patientId;holterMac;flexMac;;;;;;;;;;;;;;;;;;;;
;CA:F3:0B:1E:33:78;D3:4A:5C:52:80:78;;;;;;;;;;;;;;;;;;;;
receivedTimeStamp;timeStamp;red;ir;green;adxl_accX;adxl_accY;adxl_accZ;lsm_accelX;lsm_accelY;lsm_accelZ;lsm_gyroX;lsm_gyroY;lsm_gyroZ;ecg;flex_lsm_accelX;flex_lsm_accelY;flex_lsm_accelZ;flex_lsm_gyroX;flex_lsm_gyroY;flex_lsm_gyroZ;flex_cmd;flexTimeStamp
305.0;217.4;;;;;;;;;;;;;;;;;;;;17;0.1
305.0;217.4;;;;;;;;;;;;;;;;;13.767662;-2.643666;0.5226295;;127.5
305.0;217.4;;;;;;;;;;;;;;-0.8906522;0.14648885;-0.25763726;;;;;127.5
305.0;217.4;;;;;;;;;;;;;;;;;-5.272073;-17.250587;-7.038331;;127.5
305.0;217.4;;;;;;;;;;;;;;-0.92178106;0.16357921;-0.2713706;;;;;127.5
305.0;217.4;;;;;;;;;;;;;;;;;-64.22239;-84.43327;-59.743797;;137.0
305.0;217.4;;;;;;;;;;;;;;-0.9215369;0.1662038;-0.2719199;;;;;137.0
305.0;217.4;;;;;;;;;;;;;;;;;-122.322;-124.988556;-118.766594;;137.0
305.0;217.4;;;;;;;;;;;;;;-0.92306286;0.16119877;-0.27118748;;;;;137.0
365.0;225.2;;;;;;;;;;;;;;;;;-59.556873;-124.931335;-69.02524;;146.6
365.0;225.2;;;;;;;;;;;;;;-0.9208655;0.15082248;-0.26612142;;;;;146.6
365.0;225.2;;;;;;;;;;;;;;;;;5.394147;-124.988556;-7.683035;;146.6
365.0;225.2;;;;;;;;;;;;;;-0.9267861;0.13287759;-0.25782037;;;;;146.6
365.0;225.2;;;;;;;;;;;;;;;;;1.2131108;-99.44074;7.3854795;;156.3
365.0;225.2;;;;;;;;;;;;;;-0.9250771;0.111087374;-0.2511063;;;;;156.3
365.0;225.2;;;;;;;;;;;;;;;;;-5.0927763;-15.926847;35.64562;;156.3
365.0;225.2;;;;;;;;;;;;;;-0.9297769;0.088808864;-0.24182867;;;;;156.3
365.0;225.2;;;;;;;;;;;;;;;;;-4.863888;-9.903256;38.247322;;166.0
365.0;225.2;;;;;;;;;;;;;;-0.9240394;0.06701865;-0.23169653;;;;;166.0
365.0;225.2;;;;;;;;;;;;;;;;;-4.0246286;-10.910368;38.853878;;166.0
365.0;225.2;;;;;;;;;;;;;;-0.91616565;0.04998932;-0.22272408;;;;;166.0
365.0;285.2;;;;;;;;;;;;;;;;;-2.8344066;-11.780145;39.757988;;175.6
365.0;285.2;;;;;;;;;;;;;;-0.9089022;0.032593768;-0.21893978;;;;;175.6
365.0;285.2;;;;;;;;;;;;;;;;;-1.6365551;-12.382885;40.337837;;175.6
365.0;285.2;;;;;;;;;;;;;;-0.9010895;0.021729179;-0.22180852;;;;;175.6
365.0;285.2;;;;;;;;;;;;;;;;;-0.38911098;-12.573626;41.173283;;185.2
365.0;285.2;;;;;;;;;;;;;;-0.8899808;0.008850368;-0.22180852;;;;;185.2
365.0;285.2;;;;;;;;;;;;;;;;;0.8354442;-12.764366;42.245247;;185.2
365.0;285.2;;;;;;;;;;;;;;-0.88497573;0.0026856288;-0.2202826;;;;;185.2
365.0;285.2;;;;;;;;;;;;;;;;;1.411481;-12.733848;43.31721;;194.9
365.0;285.2;;;;;;;;;;;;;;-0.87331766;0.0025635548;-0.22766808;;;;;194.9
365.0;285.2;;;;;;;;;;;;;;;;;2.2202215;-12.245552;44.892727;;194.9
365.0;285.2;;;;;;;;;;;;;;-0.8681295;0.0053712577;-0.23401593;;;;;194.9
551.0;286.0;;;;;;;;;;;;;;;;;3.5973694;-11.947997;46.594135;;204.5
551.0;286.0;;;;;;;;;;;;;;-0.8655049;0.008239998;-0.23462631;;;;;204.5
551.0;286.0;;;;;;;;;;;;;;;;;4.7456284;-12.215034;47.990356;;204.5
551.0;286.0;;;;;;;;;;;;;;-0.8593402;0.013672292;-0.23310037;;;;;204.5
551.0;286.0;;;;;;;;;;;;;;;;;5.42848;-12.844478;49.218727;;214.2
551.0;286.0;;;;;;;;;;;;;;-0.8478042;0.013489181;-0.23456526;;;;;214.2
551.0;286.0;;;;;;;;;;;;;;;;;5.9129615;-13.298441;50.374615;;214.2
551.0;286.0;;;;;;;;;;;;;;-0.83571887;0.011719108;-0.23865475;;;;;214.2
551.0;286.0;;;;;;;;;;;;;;;;;7.019257;-13.927884;51.118504;;223.8
551.0;286.0;;;;;;;;;;;;;;-0.8200934;0.01556444;-0.2351146;;;;;223.8
551.0;286.0;;;;;;;;;;;;;;;;;7.4045534;-14.366589;52.05313;;223.8
551.0;286.0;;;;;;;;;;;;;;-0.80397964;0.015015107;-0.2414014;;;;;223.8
551.0;459.0;;;;;;;;;;;;;;;;;7.0764794;-14.442884;52.48802;;233.4
551.0;459.0;;;;;;;;;;;;;;-0.79946285;0.0073244423;-0.2531205;;;;;233.4
551.0;459.0;;;;;;;;;;;;;;;;;5.813776;-14.725182;52.167576;;233.4
551.0;459.0;;;;;;;;;;;;;;-0.79763174;-0.00982696;-0.27460554;;;;;233.4
551.0;459.0;;;;;;;;;;;;;;;;;4.4976654;-14.141514;51.000244;;243.1
551.0;459.0;;;;;;;;;;;;;;-0.80184335;-0.043092135;-0.29468673;;;;;243.1
551.0;459.0;;;;;;;;;;;;;;;;;3.1701102;-13.988921;50.168613;;243.1
551.0;459.0;;;;;;;;;;;;;;-0.8218635;-0.07104709;-0.30024108;;;;;243.1
551.0;459.0;;;;;;;;;;;;;;;;;2.5368512;-14.057589;48.986023;;252.8
551.0;459.0;;;;;;;;;;;;;;-0.8485366;-0.09521775;-0.2987762;;;;;252.8
551.0;459.0;;;;;;;;;;;;;;;;;2.5940733;-14.881589;47.79199;;252.8
551.0;459.0;;;;;;;;;;;;;;-0.87624747;-0.11206397;-0.29889828;;;;;252.8
552.0;459.8;;;;;;;;;;;;;;;;;3.624073;-15.968811;46.380505;;262.5
552.0;459.8;;;;;;;;;;;;;;-0.8925443;-0.12671286;-0.30420852;;;;;262.5
552.0;459.8;;;;;;;;;;;;;;;;;4.566332;-17.040771;45.285652;;262.5
552.0;459.8;;;;;;;;;;;;;;-0.90737635;-0.14557329;-0.30738243;;;;;262.5
552.0;459.8;;;;;;;;;;;;;;;;;5.2682576;-17.288734;44.610428;;272.1
552.0;459.8;;;;;;;;;;;;;;-0.9261757;-0.1643727;-0.31751457;;;;;272.1
552.0;459.8;;;;;;;;;;;;;;;;;6.5652943;-16.785181;44.225136;;272.1
552.0;459.8;;;;;;;;;;;;;;-0.9468673;-0.17853329;-0.33692434;;;;;272.1
552.0;459.8;;;;;;;;;;;;;;;;;8.072146;-15.938292;44.091618;;281.7
552.0;459.8;;;;;;;;;;;;;;-0.9681692;-0.19360943;-0.36219367;;;;;281.7
552.0;459.8;;;;;;;;;;;;;;;;;9.506516;-14.893033;44.438763;;281.7
552.0;459.8;;;;;;;;;;;;;;-0.99050874;-0.19690542;-0.38258004;;;;;281.7
552.0;460.5;;;;;;;;;;;;;;;;;10.45259;-13.573108;44.610428;;291.3
552.0;460.5;;;;;;;;;;;;;;-1.0160222;-0.20697653;-0.397351;;;;;291.3
552.0;460.5;;;;;;;;;;;;;;;;;11.513107;-12.489699;44.892727;;291.3
552.0;460.5;;;;;;;;;;;;;;-1.0390332;-0.21839045;-0.4064455;;;;;291.3
552.0;460.5;;;;;;;;;;;;;;;;;13.073366;-11.860256;45.018616;;301.0
552.0;460.5;;;;;;;;;;;;;;-1.0525223;-0.22949919;-0.40577412;;;;;301.0
552.0;460.5;;;;;;;;;;;;;;;;;14.469588;-11.303292;44.91943;;301.0
552.0;460.5;;;;;;;;;;;;;;-1.0574054;-0.2418897;-0.39936522;;;;;301.0
552.0;460.5;;;;;;;;;;;;;;;;;15.732292;-11.001924;44.553207;;310.7
552.0;460.5;;;;;;;;;;;;;;-1.0466018;-0.24622333;-0.39387187;;;;;310.7
552.0;460.5;;;;;;;;;;;;;;;;;16.7127;-10.261848;44.24421;;310.7
552.0;460.5;;;;;;;;;;;;;;-1.0279244;-0.24890897;-0.3850215;;;;;310.7
554.0;461.4;;;;;;;;;;;;;;;;;16.953032;-8.915219;43.99243;;320.3
554.0;461.4;;;;;;;;;;;;;;-1.0127872;-0.23761712;-0.37623218;;;;;320.3
554.0;461.4;;;;;;;;;;;;;;;;;16.38081;-7.168035;43.67962;;320.3
554.0;461.4;;;;;;;;;;;;;;-1.0002747;-0.22089297;-0.36628315;;;;;320.3
554.0;461.4;;;;;;;;;;;;;;;;;15.02655;-5.0889616;43.080692;;329.9
554.0;461.4;;;;;;;;;;;;;;-1.0003967;-0.20636617;-0.35767692;;;;;329.9
554.0;461.4;;;;;;;;;;;;;;;;;13.096255;-3.1968138;42.252876;;329.9
554.0;461.4;;;;;;;;;;;;;;-0.99954224;-0.1953795;-0.35010836;;;;;329.9
554.0;461.4;;;;;;;;;;;;;;;;;11.116366;-1.3008515;41.13132;;339.6
554.0;461.4;;;;;;;;;;;;;;-1.0037538;-0.19037446;-0.35023043;;;;;339.6
554.0;461.4;;;;;;;;;;;;;;;;;9.609516;0.3357036;39.74273;;339.6
554.0;461.4;;;;;;;;;;;;;;-1.009125;-0.1906186;-0.35499132;;;;;339.6
554.0;462.2;;;;;;;;;;;;;;;;;8.362072;1.6098514;38.270214;;349.3
554.0;462.2;;;;;;;;;;;;;;-1.0179754;-0.19592883;-0.3607898;;;;;349.3
554.0;462.2;;;;;;;;;;;;;;;;;7.27485;2.7619252;36.381878;;349.3
554.0;462.2;;;;;;;;;;;;;;-1.0351268;-0.20923491;-0.3683584;;;;;349.3
554.0;462.2;;;;;;;;;;;;;;;;;6.187628;3.5515916;34.18836;;358.9
554.0;462.2;;;;;;;;;;;;;;-1.0555131;-0.22937712;-0.37568286;;;;;358.9
554.0;462.2;;;;;;;;;;;;;;;;;4.9592576;4.074221;31.991028;;358.9
554.0;462.2;;;;;;;;;;;;;;-1.0826136;-0.24793237;-0.3823359;;;;;358.9
554.0;462.2;;;;;;;;;;;;;;;;;3.8605914;4.581591;29.484695;;368.6
554.0;462.2;;;;;;;;;;;;;;-1.1184423;-0.27332377;-0.3932005;;;;;368.6
554.0;462.2;;;;;;;;;;;;;;;;;2.8000731;4.467147;26.42903;;368.6
554.0;462.2;;;;;;;;;;;;;;-1.1703238;-0.29718924;-0.4092532;;;;;368.6
613.0;462.9;;;;;;;;;;;;;;;;;1.5030366;4.4938507;22.740105;;378.3
613.0;462.9;;;;;;;;;;;;;;-1.2325816;-0.32764673;-0.43458357;;;;;378.3
613.0;462.9;;;;;;;;;;;;;;;;;0.4463332;4.6044803;18.601032;;378.3
613.0;462.9;;;;;;;;;;;;;;-1.3000885;-0.35786003;-0.46278268;;;;;378.3
613.0;462.9;;;;;;;;;;;;;;;;;0.3013703;3.4447768;14.080477;;388.0
613.0;462.9;;;;;;;;;;;;;;-1.3525193;-0.38758507;-0.49049348;;;;;388.0
613.0;462.9;;;;;;;;;;;;;;;;;0.34714803;2.8191473;8.671071;;388.0
613.0;462.9;;;;;;;;;;;;;;-1.3862728;-0.4263436;-0.5213782;;;;;388.0
613.0;462.9;;;;;;;;;;;;;;;;;0.24796289;3.3722954;2.334666;;397.6
613.0;462.9;;;;;;;;;;;;;;-1.3933531;-0.46864223;-0.545793;;;;;397.6
613.0;462.9;;;;;;;;;;;;;;;;;0.65614796;4.142888;-4.947813;;397.6
613.0;462.9;;;;;;;;;;;;;;-1.3774225;-0.5101474;-0.5600757;;;;;397.6
613.0;519.4;;;;;;;;;;;;;;;;;2.006592;4.650258;-13.2793665;;407.2
613.0;519.4;;;;;;;;;;;;;;-1.3524582;-0.5421308;-0.5692312;;;;;407.2
613.0;519.4;;;;;;;;;;;;;;;;;4.4099245;4.4366283;-22.442549;;407.2
613.0;519.4;;;;;;;;;;;;;;-1.3132725;-0.55708486;-0.5645314;;;;;407.2
613.0;519.4;;;;;;;;;;;;;;;;;7.477035;3.3684807;-32.48314;;416.8
613.0;519.4;;;;;;;;;;;;;;-1.2590716;-0.5581225;-0.5412763;;;;;416.8
613.0;519.4;;;;;;;;;;;;;;;;;10.23896;2.0790737;-43.33247;;416.8
613.0;519.4;;;;;;;;;;;;;;-1.1958983;-0.56123537;-0.5088046;;;;;416.8
613.0;519.4;;;;;;;;;;;;;;;;;11.444441;1.6556292;-54.700615;;426.2
613.0;519.4;;;;;;;;;;;;;;-1.129368;-0.55922115;-0.46278268;;;;;426.2
613.0;519.4;;;;;;;;;;;;;;;;;11.001924;1.8196661;-66.755424;;426.2
613.0;519.4;;;;;;;;;;;;;;-1.0825526;-0.5584277;-0.38929412;;;;;426.2
670.0;520.3;;;;;;;;;;;;;;;;;7.515183;0.45777765;-79.45875;;435.8
670.0;520.3;;;;;;;;;;;;;;-1.058626;-0.56593525;-0.29291666;;;;;435.8
670.0;520.3;;;;;;;;;;;;;;;;;-0.3357036;-2.887814;-92.471085;;435.8
670.0;520.3;;;;;;;;;;;;;;-1.0642414;-0.5992004;-0.20075075;;;;;435.8
670.0;520.3;;;;;;;;;;;;;;;;;-12.638477;-6.9544053;-105.689415;;445.4
670.0;520.3;;;;;;;;;;;;;;-1.1089816;-0.6480911;-0.16919462;;;;;445.4
670.0;520.3;;;;;;;;;;;;;;;;;-25.368511;-11.078218;-118.457596;;445.4
670.0;520.3;;;;;;;;;;;;;;-1.1770989;-0.68385875;-0.20520645;;;;;445.4
670.0;520.3;;;;;;;;;;;;;;;;;-34.131138;-12.8711815;-124.702446;;455.1
670.0;520.3;;;;;;;;;;;;;;-1.2485733;-0.69862974;-0.28467667;;;;;455.1
670.0;520.3;;;;;;;;;;;;;;;;;-35.065765;-12.802515;-124.988556;;455.1
670.0;520.3;;;;;;;;;;;;;;-1.3096102;-0.6829432;-0.3277688;;;;;455.1
670.0;579.5;;;;;;;;;;;;;;;;;-28.683584;-11.181218;-124.988556;;464.7
670.0;579.5;;;;;;;;;;;;;;-1.3295083;-0.65272987;-0.37055573;;;;;464.7
670.0;579.5;;;;;;;;;;;;;;;;;-18.658255;-4.1924806;-124.988556;;464.7
670.0;579.5;;;;;;;;;;;;;;-1.3285317;-0.63777584;-0.41328165;;;;;464.7
670.0;579.5;;;;;;;;;;;;;;;;;-5.3178506;3.7194436;-124.988556;;474.4
670.0;579.5;;;;;;;;;;;;;;-1.343852;-0.63954586;-0.4506363;;;;;474.4
670.0;579.5;;;;;;;;;;;;;;;;;12.58507;11.116366;-124.988556;;474.4
670.0;579.5;;;;;;;;;;;;;;-1.4015931;-0.65596485;-0.45204017;;;;;474.4
670.0;579.5;;;;;;;;;;;;;;;;;30.568102;15.339366;-124.988556;;483.8
670.0;579.5;;;;;;;;;;;;;;-1.5059664;-0.6747032;-0.40998566;;;;;483.8
670.0;579.5;;;;;;;;;;;;;;;;;47.00995;11.524552;-124.988556;;483.8
670.0;579.5;;;;;;;;;;;;;;-1.6505021;-0.67342144;-0.37324136;;;;;483.8
730.0;580.3;;;;;;;;;;;;;;;;;61.70461;-1.3237404;-124.988556;;493.4
730.0;580.3;;;;;;;;;;;;;;-1.8156072;-0.6775109;-0.38044375;;;;;493.4
730.0;580.3;;;;;;;;;;;;;;;;;67.075874;-14.156774;-124.988556;;493.4
730.0;580.3;;;;;;;;;;;;;;-1.9657582;-0.6239204;-0.377575;;;;;493.4
730.0;580.3;;;;;;;;;;;;;;;;;60.872982;-17.70455;-124.988556;;503.0
730.0;580.3;;;;;;;;;;;;;;-1.9998169;-0.517777;-0.3994873;;;;;503.0
730.0;580.3;;;;;;;;;;;;;;;;;47.242653;-6.660665;-124.988556;;503.0
730.0;580.3;;;;;;;;;;;;;;-1.9998169;-0.42133853;-0.40876493;;;;;503.0
730.0;580.3;;;;;;;;;;;;;;;;;36.47725;10.586108;-124.988556;;512.7
730.0;580.3;;;;;;;;;;;;;;-1.9998169;-0.29554126;-0.41926327;;;;;512.7
730.0;580.3;;;;;;;;;;;;;;;;;34.56221;25.509659;-124.988556;;512.7
730.0;580.3;;;;;;;;;;;;;;-1.9733878;-0.19074069;-0.39759514;;;;;512.7
730.0;640.3;;;;;;;;;;;;;;;;;37.804806;28.180029;-124.988556;;522.4
730.0;640.3;;;;;;;;;;;;;;-1.9132664;-0.1276284;-0.37769708;;;;;522.4
730.0;640.3;;;;;;;;;;;;;;;;;43.431656;20.970032;-124.988556;;522.4
730.0;640.3;;;;;;;;;;;;;;-1.87463;-0.08789331;-0.35163426;;;;;522.4
730.0;640.3;;;;;;;;;;;;;;;;;47.521133;10.597552;-124.988556;;532.0
730.0;640.3;;;;;;;;;;;;;;-1.8694419;-0.04589984;-0.32856226;;;;;532.0
730.0;640.3;;;;;;;;;;;;;;;;;46.666615;2.5292215;-124.988556;;532.0
730.0;640.3;;;;;;;;;;;;;;-1.8785974;0.0049439985;-0.32520524;;;;;532.0
730.0;640.3;;;;;;;;;;;;;;;;;42.863247;-1.678518;-124.988556;;541.7
730.0;640.3;;;;;;;;;;;;;;-1.8741417;0.069093905;-0.32294688;;;;;541.7
730.0;640.3;;;;;;;;;;;;;;;;;35.473953;-2.25074;-124.988556;;541.7
730.0;640.3;;;;;;;;;;;;;;-1.8507645;0.13251136;-0.30475783;;;;;541.7
786.0;641.1;;;;;;;;;;;;;;;;;24.464401;-1.5984069;-124.988556;;551.4
786.0;641.1;;;;;;;;;;;;;;-1.8305002;0.20679343;-0.29071933;;;;;551.4
786.0;641.1;;;;;;;;;;;;;;;;;14.687033;-3.6736658;-124.988556;;551.4
786.0;641.1;;;;;;;;;;;;;;-1.7961974;0.26636556;-0.2929777;;;;;551.4
786.0;641.1;;;;;;;;;;;;;;;;;9.163182;-5.7908874;-124.988556;;561.0
786.0;641.1;;;;;;;;;;;;;;-1.749443;0.30573443;-0.28156376;;;;;561.0
786.0;641.1;;;;;;;;;;;;;;;;;7.2595906;-6.2982574;-124.988556;;561.0
786.0;641.1;;;;;;;;;;;;;;-1.689871;0.35096285;-0.2646565;;;;;561.0
786.0;641.1;;;;;;;;;;;;;;;;;3.0594807;-3.563036;-124.988556;;570.6
786.0;641.1;;;;;;;;;;;;;;-1.6465347;0.36628315;-0.23993652;;;;;570.6
786.0;641.1;;;;;;;;;;;;;;;;;-7.8852196;4.1962953;-124.988556;;570.6
786.0;641.1;;;;;;;;;;;;;;-1.6143681;0.3688467;-0.2642903;;;;;570.6
786.0;700.2;;;;;;;;;;;;;;;;;-15.36607;16.468552;-124.988556;;580.2
786.0;700.2;;;;;;;;;;;;;;-1.558031;0.3364971;-0.31592762;;;;;580.2
786.0;700.2;;;;;;;;;;;;;;;;;-15.938292;30.793177;-124.988556;;580.2
786.0;700.2;;;;;;;;;;;;;;-1.4819788;0.35493025;-0.34400463;;;;;580.2
786.0;700.2;;;;;;;;;;;;;;;;;-22.778252;42.203285;-124.988556;;589.9
786.0;700.2;;;;;;;;;;;;;;-1.4315012;0.30213323;-0.39210182;;;;;589.9
786.0;700.2;;;;;;;;;;;;;;;;;-27.867214;50.32502;-124.988556;;589.9
786.0;700.2;;;;;;;;;;;;;;-1.3583179;0.19141209;-0.4405652;;;;;589.9
786.0;700.2;;;;;;;;;;;;;;;;;-28.069399;59.41191;-124.988556;;599.6
786.0;700.2;;;;;;;;;;;;;;-1.2818995;0.03155614;-0.4598529;;;;;599.6
786.0;700.2;;;;;;;;;;;;;;;;;-24.086735;67.90749;-124.988556;;599.6
786.0;700.2;;;;;;;;;;;;;;-1.2252572;-0.10217597;-0.43946654;;;;;599.6
849.0;701.0;;;;;;;;;;;;;;;;;-17.689291;72.08853;-124.988556;;609.2
849.0;701.0;;;;;;;;;;;;;;-1.155797;-0.14441359;-0.41096225;;;;;609.2
849.0;701.0;;;;;;;;;;;;;;;;;-16.003143;72.40898;-124.988556;;609.2
849.0;701.0;;;;;;;;;;;;;;-1.096408;-0.16919462;-0.39228493;;;;;609.2
849.0;701.0;;;;;;;;;;;;;;;;;-16.041292;70.89068;-124.988556;;618.7
849.0;701.0;;;;;;;;;;;;;;-1.0752281;-0.18469802;-0.3848384;;;;;618.7
849.0;701.0;;;;;;;;;;;;;;;;;-12.314219;69.25413;-124.988556;;618.7
849.0;701.0;;;;;;;;;;;;;;-1.0860927;-0.19544053;-0.38209173;;;;;618.7
849.0;701.0;;;;;;;;;;;;;;;;;-3.3265176;67.90749;-124.988556;;628.4
849.0;701.0;;;;;;;;;;;;;;-1.0813318;-0.22321238;-0.35956907;;;;;628.4
849.0;701.0;;;;;;;;;;;;;;;;;5.794702;65.70635;-124.988556;;628.4
849.0;701.0;;;;;;;;;;;;;;-1.0682088;-0.26252022;-0.32978302;;;;;628.4
849.0;715.2;;;;;;;;;;;;;;;;;13.256477;63.245796;-124.988556;;638.0
849.0;715.2;;;;;;;;;;;;;;-1.0492264;-0.29511398;-0.3336894;;;;;638.0
849.0;715.2;;;;;;;;;;;;;;;;;19.951475;63.92102;-124.988556;;638.0
849.0;715.2;;;;;;;;;;;;;;-1.0180365;-0.3236793;-0.32764673;;;;;638.0
849.0;715.2;;;;;;;;;;;;;;;;;28.290659;62.414165;-124.988556;;647.7
849.0;715.2;;;;;;;;;;;;;;-0.9750053;-0.34766686;-0.31666005;;;;;647.7
849.0;715.2;;;;;;;;;;;;;;;;;40.00595;55.07065;-124.988556;;647.7
849.0;715.2;;;;;;;;;;;;;;-0.94448686;-0.35920286;-0.27344584;;;;;647.7
849.0;715.2;;;;;;;;;;;;;;;;;51.66402;43.73684;-124.988556;;657.3
849.0;715.2;;;;;;;;;;;;;;-0.8925443;-0.37202063;-0.23462631;;;;;657.3
849.0;715.2;;;;;;;;;;;;;;;;;63.46324;34.772026;-124.988556;;657.3
849.0;715.2;;;;;;;;;;;;;;-0.81160927;-0.34858242;-0.21008942;;;;;657.3
908.0;760.9;;;;;;;;;;;;;;;;;74.54527;31.159399;-124.98093;;666.8
908.0;760.9;;;;;;;;;;;;;;-0.7590564;-0.3098239;-0.19367047;;;;;666.8
908.0;760.9;;;;;;;;;;;;;;;;;84.21583;29.560991;-124.06537;;666.8
908.0;760.9;;;;;;;;;;;;;;-0.7647939;-0.3094577;-0.1975158;;;;;666.8
908.0;760.9;;;;;;;;;;;;;;;;;92.95557;27.615435;-122.016815;;676.3
908.0;760.9;;;;;;;;;;;;;;-0.7524033;-0.2906583;-0.21332438;;;;;676.3
908.0;760.9;;;;;;;;;;;;;;;;;102.87026;22.59514;-119.46089;;676.3
908.0;760.9;;;;;;;;;;;;;;-0.7329325;-0.26557207;-0.2669759;;;;;676.3
908.0;760.9;;;;;;;;;;;;;;;;;112.01819;18.776514;-118.45378;;685.9
908.0;760.9;;;;;;;;;;;;;;-0.7027192;-0.21259193;-0.29779962;;;;;685.9
908.0;760.9;;;;;;;;;;;;;;;;;117.442856;18.082216;-115.80248;;685.9
908.0;760.9;;;;;;;;;;;;;;-0.7041231;-0.15814692;-0.32410657;;;;;685.9
908.0;820.9;;;;;;;;;;;;;;;;;117.97693;17.326883;-113.05963;;695.6
908.0;820.9;;;;;;;;;;;;;;-0.6582232;-0.09735405;-0.33814508;;;;;695.6
908.0;820.9;;;;;;;;;;;;;;;;;117.75567;22.267067;-109.89715;;695.6
908.0;820.9;;;;;;;;;;;;;;-0.66805017;-0.08355968;-0.30201116;;;;;695.6
908.0;820.9;;;;;;;;;;;;;;;;;115.050964;25.040436;-103.91553;;705.1
908.0;820.9;;;;;;;;;;;;;;-0.6758019;-0.049073763;-0.2944426;;;;;705.1
908.0;820.9;;;;;;;;;;;;;;;;;111.79693;25.624104;-97.37312;;705.1
908.0;820.9;;;;;;;;;;;;;;-0.67268896;0.018921476;-0.27942747;;;;;705.1
908.0;820.9;;;;;;;;;;;;;;;;;108.34834;25.181585;-91.09393;;714.8
908.0;820.9;;;;;;;;;;;;;;-0.65126497;0.06952117;-0.25305948;;;;;714.8
908.0;820.9;;;;;;;;;;;;;;;;;102.431564;26.024658;-85.35646;;714.8
908.0;820.9;;;;;;;;;;;;;;-0.63722646;0.11157567;-0.22400586;;;;;714.8
1029.0;821.7;;;;;;;;;;;;;;;;;94.81719;27.203438;-78.80642;;724.4
1029.0;821.7;;;;;;;;;;;;;;-0.64265877;0.14264351;-0.19312114;;;;;724.4
1029.0;821.7;;;;;;;;;;;;;;;;;87.28676;27.23777;-73.515274;;724.4
1029.0;821.7;;;;;;;;;;;;;;-0.64461195;0.16809595;-0.17255165;;;;;724.4
1029.0;821.7;;;;;;;;;;;;;;;;;80.72146;26.589252;-68.36527;;734.0
1029.0;821.7;;;;;;;;;;;;;;-0.6399121;0.18750572;-0.16418958;;;;;734.0
1029.0;821.7;;;;;;;;;;;;;;;;;75.37691;25.89877;-64.218575;;734.0
1029.0;821.7;;;;;;;;;;;;;;-0.6376537;0.20398572;-0.1617481;;;;;734.0
1029.0;821.7;;;;;;;;;;;;;;;;;71.47435;24.395735;-60.33509;;743.7
1029.0;821.7;;;;;;;;;;;;;;-0.62337106;0.20892972;-0.15637684;;;;;743.7
1029.0;821.7;;;;;;;;;;;;;;;;;68.678085;22.408215;-55.993835;;743.7
1029.0;821.7;;;;;;;;;;;;;;-0.6164739;0.2120426;-0.14697714;;;;;743.7
1029.0;835.8;;;;;;;;;;;;;;;;;66.73635;20.870846;-52.236244;;753.3
1029.0;835.8;;;;;;;;;;;;;;-0.6136662;0.21338542;-0.13751641;;;;;753.3
1029.0;835.8;;;;;;;;;;;;;;;;;64.882355;19.219032;-48.192543;;753.3
1029.0;835.8;;;;;;;;;;;;;;-0.601825;0.21906187;-0.1350139;;;;;753.3
1029.0;835.8;;;;;;;;;;;;;;;;;62.875763;17.780846;-44.0611;;763.0
1029.0;835.8;;;;;;;;;;;;;;-0.58211005;0.23029268;-0.1398358;;;;;763.0
1029.0;835.8;;;;;;;;;;;;;;;;;58.923615;17.662586;-39.6321;;763.0
1029.0;835.8;;;;;;;;;;;;;;-0.56178474;0.23914304;-0.15930662;;;;;763.0
1029.0;835.8;;;;;;;;;;;;;;;;;53.95291;17.757957;-34.61562;;772.6
1029.0;835.8;;;;;;;;;;;;;;-0.54664755;0.23871578;-0.18256173;;;;;772.6
1029.0;835.8;;;;;;;;;;;;;;;;;48.45195;17.418438;-29.8204;;772.6
1029.0;835.8;;;;;;;;;;;;;;-0.5199133;0.24512467;-0.19782098;;;;;772.6
1151.0;881.4;;;;;;;;;;;;;;;;;43.813137;16.556292;-24.727623;;782.2
1151.0;881.4;;;;;;;;;;;;;;-0.49244666;0.2537309;-0.20355846;;;;;782.2
1151.0;881.4;;;;;;;;;;;;;;;;;40.448467;16.090885;-19.314402;;782.2
1151.0;881.4;;;;;;;;;;;;;;-0.4450209;0.25397503;-0.20880765;;;;;782.2
1151.0;881.4;;;;;;;;;;;;;;;;;38.422806;17.08655;-12.760551;;791.9
1151.0;881.4;;;;;;;;;;;;;;-0.39606923;0.2938322;-0.18866542;;;;;791.9
1151.0;881.4;;;;;;;;;;;;;;;;;36.458176;17.677847;-5.4170356;;791.9
1151.0;881.4;;;;;;;;;;;;;;-0.38056582;0.31684315;-0.17224647;;;;;791.9
1151.0;881.4;;;;;;;;;;;;;;;;;35.3061;17.117067;2.1324809;;801.5
1151.0;881.4;;;;;;;;;;;;;;-0.35254982;0.34369946;-0.14185004;;;;;801.5
1151.0;881.4;;;;;;;;;;;;;;;;;34.45158;13.073366;10.837886;;801.5
1151.0;881.4;;;;;;;;;;;;;;-0.33796197;0.3902707;-0.10895108;;;;;801.5
1151.0;896.1;;;;;;;;;;;;;;;;;32.258064;11.001924;19.631031;;811.1
1151.0;896.1;;;;;;;;;;;;;;-0.31550035;0.395703;-0.097048864;;;;;811.1
1151.0;896.1;;;;;;;;;;;;;;;;;27.787102;13.134403;29.221474;;811.1
1151.0;896.1;;;;;;;;;;;;;;-0.31800288;0.4096805;-0.09271523;;;;;811.1
1151.0;896.1;;;;;;;;;;;;;;;;;21.156958;15.583514;39.07895;;820.8
1151.0;896.1;;;;;;;;;;;;;;-0.305063;0.41163367;-0.107181005;;;;;820.8
1151.0;896.1;;;;;;;;;;;;;;;;;12.462996;17.60918;48.89447;;820.8
1151.0;896.1;;;;;;;;;;;;;;-0.25794244;0.41688284;-0.15112767;;;;;820.8
1151.0;896.1;;;;;;;;;;;;;;;;;-0.5874813;24.006622;58.85113;;830.4
1151.0;896.1;;;;;;;;;;;;;;-0.2047792;0.44709617;-0.18750572;;;;;830.4
1151.0;896.1;;;;;;;;;;;;;;;;;-15.690329;30.62151;68.19742;;830.4
1151.0;896.1;;;;;;;;;;;;;;-0.16150396;0.44770652;-0.22211371;;;;;830.4
1153.0;941.4;;;;;;;;;;;;;;;;;-27.397991;32.097843;77.53991;;839.9
1153.0;941.4;;;;;;;;;;;;;;-0.13476974;0.40656757;-0.22943816;;;;;839.9
1153.0;941.4;;;;;;;;;;;;;;;;;-36.52684;27.844324;85.34502;;839.9
1153.0;941.4;;;;;;;;;;;;;;-0.1551561;0.3263039;-0.22711875;;;;;839.9
1153.0;941.4;;;;;;;;;;;;;;;;;-44.797356;25.131992;89.3086;;849.4
1153.0;941.4;;;;;;;;;;;;;;-0.19763787;0.23590808;-0.20819727;;;;;849.4
1153.0;941.4;;;;;;;;;;;;;;;;;-52.751244;21.988586;92.4749;;849.4
1153.0;941.4;;;;;;;;;;;;;;-0.22284615;0.18756676;-0.15765862;;;;;849.4
1153.0;941.4;;;;;;;;;;;;;;;;;-58.355206;10.189367;97.636345;;859.0
1153.0;941.4;;;;;;;;;;;;;;-0.24738304;0.1528367;-0.028077029;;;;;859.0
1153.0;941.4;;;;;;;;;;;;;;;;;-62.475204;-12.932219;102.83593;;859.0
1153.0;941.4;;;;;;;;;;;;;;-0.28388318;0.16223639;0.14667195;;;;;859.0
1153.0;948.8;;;;;;;;;;;;;;;;;-72.386086;-28.550066;109.09605;;868.7
1153.0;948.8;;;;;;;;;;;;;;-0.24457534;0.14874722;0.1276284;;;;;868.7
1153.0;948.8;;;;;;;;;;;;;;;;;-83.460495;-18.448439;113.63948;;868.7
1153.0;948.8;;;;;;;;;;;;;;-0.21442305;-0.006775109;0.09595019;;;;;868.7
1153.0;948.8;;;;;;;;;;;;;;;;;-82.56401;-0.29374066;112.49123;;878.3
1153.0;948.8;;;;;;;;;;;;;;-0.34131902;-0.29071933;0.19873653;;;;;878.3
1153.0;948.8;;;;;;;;;;;;;;;;;-79.31379;15.991699;101.260414;;878.3
1153.0;948.8;;;;;;;;;;;;;;-0.57008576;-0.6399121;0.22730187;;;;;878.3
1153.0;948.8;;;;;;;;;;;;;;;;;-88.5876;39.48332;80.41245;;888.0
1153.0;948.8;;;;;;;;;;;;;;-0.6410718;-0.83095795;-0.20154424;;;;;888.0
1153.0;948.8;;;;;;;;;;;;;;;;;-117.522964;94.4052;52.00354;;888.0
1153.0;948.8;;;;;;;;;;;;;;-0.6385693;-0.89022493;-0.8311411;;;;;888.0
1154.0;1001.7;;;;;;;;;;;;;;;;;-124.91608;124.45067;36.553543;;897.7
1154.0;1001.7;;;;;;;;;;;;;;-0.65236366;-0.8429823;-1.0242012;;;;;897.7
1154.0;1001.7;;;;;;;;;;;;;;;;;-105.540634;124.988556;53.712578;;897.7
1154.0;1001.7;;;;;;;;;;;;;;-0.71175265;-0.7318339;-1.0632038;;;;;897.7
1154.0;1001.7;;;;;;;;;;;;;;;;;-65.14939;122.48222;88.526566;;907.1
1154.0;1001.7;;;;;;;;;;;;;;-0.931608;-0.3813593;-0.83852655;;;;;907.1
1154.0;1001.7;;;;;;;;;;;;;;;;;-81.16016;91.54408;115.46678;;907.1
1154.0;1001.7;;;;;;;;;;;;;;-1.106479;-0.092837304;-0.72371596;;;;;907.1
1154.0;1001.7;;;;;;;;;;;;;;;;;-103.99945;57.924133;124.86648;;916.8
1154.0;1001.7;;;;;;;;;;;;;;-1.3016144;0.06915494;-0.8288827;;;;;916.8
1154.0;1001.7;;;;;;;;;;;;;;;;;-99.82604;27.645954;124.988556;;916.8
1154.0;1001.7;;;;;;;;;;;;;;-1.6593524;0.13495284;-0.80684835;;;;;916.8
1154.0;1017.1;;;;;;;;;;;;;;;;;-72.52342;-23.75103;124.988556;;926.4
1154.0;1017.1;;;;;;;;;;;;;;-1.9478134;0.08001953;-0.83156836;;;;;926.4
1154.0;1017.1;;;;;;;;;;;;;;;;;-19.07407;-45.510727;124.988556;;926.4
1154.0;1017.1;;;;;;;;;;;;;;-1.9998169;-0.083010346;-0.9225135;;;;;926.4
1154.0;1017.1;;;;;;;;;;;;;;;;;14.538255;-6.977294;109.061714;;936.1
1154.0;1017.1;;;;;;;;;;;;;;-1.9998169;-0.5247963;-0.776574;;;;;936.1
1154.0;1017.1;;;;;;;;;;;;;;;;;6.839961;31.945251;27.203438;;936.1
1154.0;1017.1;;;;;;;;;;;;;;-1.9998169;-0.9351482;-0.6565752;;;;;936.1
1154.0;1017.1;;;;;;;;;;;;;;;;;-21.366772;34.329506;-61.429943;;945.8
1154.0;1017.1;;;;;;;;;;;;;;-1.9998169;-1.1172216;-0.44215217;;;;;945.8
1154.0;1017.1;;;;;;;;;;;;;;;;;-59.58739;-1.083407;-114.14304;;945.8
1154.0;1017.1;;;;;;;;;;;;;;-1.9920042;-1.3978698;-0.42512283;;;;;945.8
1211.0;1062.0;;;;;;;;;;;;;;;;;-94.85916;-17.91818;-124.988556;;955.5
1211.0;1062.0;;;;;;;;;;;;;;-1.8300118;-1.7022004;-0.47920164;;;;;955.5
1211.0;1062.0;;;;;;;;;;;;;;;;;-92.2956;-9.880367;-124.988556;;955.5
1211.0;1062.0;;;;;;;;;;;;;;-1.5920897;-1.7218543;-0.6346629;;;;;955.5
1211.0;1062.0;;;;;;;;;;;;;;;;;-54.589985;6.645406;-124.988556;;965.1
1211.0;1062.0;;;;;;;;;;;;;;-1.4315622;-1.7979064;-0.48908964;;;;;965.1
1211.0;1062.0;;;;;;;;;;;;;;;;;0.71718496;-17.265846;-124.2523;;965.1
1211.0;1062.0;;;;;;;;;;;;;;-1.180639;-1.571398;-0.15747552;;;;;965.1
1211.0;1062.0;;;;;;;;;;;;;;;;;47.151096;-58.626057;-99.795525;;974.8
1211.0;1062.0;;;;;;;;;;;;;;-0.77498704;-1.2358775;-0.06250191;;;;;974.8
1211.0;1062.0;;;;;;;;;;;;;;;;;90.48738;-61.17435;-35.531174;;974.8
1211.0;1062.0;;;;;;;;;;;;;;-0.46931365;-0.7853633;0.11011078;;;;;974.8
1211.0;1069.4;;;;;;;;;;;;;;;;;104.53734;-46.239357;46.117283;;984.4
1211.0;1069.4;;;;;;;;;;;;;;-0.43714714;-0.46681112;0.2771691;;;;;984.4
1211.0;1069.4;;;;;;;;;;;;;;;;;85.39842;-37.949768;108.218636;;984.4
1211.0;1069.4;;;;;;;;;;;;;;-0.6206244;-0.2982879;0.10522782;;;;;984.4
1211.0;1069.4;;;;;;;;;;;;;;;;;44.942318;-10.9904785;124.79781;;994.0
1211.0;1069.4;;;;;;;;;;;;;;-0.76180303;-0.20441298;-0.090823084;;;;;994.0
1211.0;1069.4;;;;;;;;;;;;;;;;;-1.7777032;18.34544;124.988556;;994.0
1211.0;1069.4;;;;;;;;;;;;;;-0.7928709;-0.06292917;-0.30036318;;;;;994.0
1211.0;1069.4;;;;;;;;;;;;;;;;;-27.92062;42.76406;124.988556;;1003.7
1211.0;1069.4;;;;;;;;;;;;;;-0.8315073;0.091677606;-0.408887;;;;;1003.7
1211.0;1069.4;;;;;;;;;;;;;;;;;-23.834957;47.845394;124.988556;;1003.7
1211.0;1069.4;;;;;;;;;;;;;;-0.8957183;0.23206274;-0.39777824;;;;;1003.7
1214.0;1122.3;;;;;;;;;;;;;;;;;-9.128849;29.011658;124.988556;;1013.2
1214.0;1122.3;;;;;;;;;;;;;;-0.88631856;0.34302804;-0.42957854;;;;;1013.2
1214.0;1122.3;;;;;;;;;;;;;;;;;11.249886;14.248329;124.988556;;1013.2
1214.0;1122.3;;;;;;;;;;;;;;-0.85714287;0.4041261;-0.44282356;;;;;1013.2
1214.0;1122.3;;;;;;;;;;;;;;;;;31.21662;5.821406;124.988556;;1022.8
1214.0;1122.3;;;;;;;;;;;;;;-0.9660329;0.43177587;-0.28058717;;;;;1022.8
1214.0;1122.3;;;;;;;;;;;;;;;;;16.666922;-6.0464797;124.988556;;1022.8
1214.0;1122.3;;;;;;;;;;;;;;-0.9446089;0.33381146;-0.43482772;;;;;1022.8
1214.0;1122.3;;;;;;;;;;;;;;;;;1.2779626;-5.2072206;124.988556;;1032.3
1214.0;1122.3;;;;;;;;;;;;;;-1.2059695;0.22894986;-0.24726096;;;;;1032.3
1214.0;1122.3;;;;;;;;;;;;;;;;;-30.91525;-27.565844;124.988556;;1032.3
1214.0;1122.3;;;;;;;;;;;;;;-1.3315226;0.18671224;-0.39039278;;;;;1032.3
1214.0;1123.5;;;;;;;;;;;;;;;;;-55.265205;-36.473434;120.92196;;1041.9
1214.0;1123.5;;;;;;;;;;;;;;-1.4050112;0.12372204;-0.50410473;;;;;1041.9
1214.0;1123.5;;;;;;;;;;;;;;;;;-47.03665;-32.471695;93.59645;;1041.9
1214.0;1123.5;;;;;;;;;;;;;;-1.3906674;0.018311106;-0.5600757;;;;;1041.9
1214.0;1123.5;;;;;;;;;;;;;;;;;-28.008362;-21.065401;71.98172;;1051.5
1214.0;1123.5;;;;;;;;;;;;;;-1.3478194;-0.08282723;-0.51283306;;;;;1051.5
1214.0;1123.5;;;;;;;;;;;;;;;;;-28.729362;-13.374737;60.6975;;1051.5
1214.0;1123.5;;;;;;;;;;;;;;-1.3283486;-0.11078219;-0.50807214;;;;;1051.5
1214.0;1123.5;;;;;;;;;;;;;;;;;-38.384655;-7.9958496;56.073944;;1061.2
1214.0;1123.5;;;;;;;;;;;;;;-1.3122959;-0.13208412;-0.5716117;;;;;1061.2
1214.0;1123.5;;;;;;;;;;;;;;;;;-43.843655;-2.9221473;57.702873;;1061.2
1214.0;1123.5;;;;;;;;;;;;;;-1.2445449;-0.12207404;-0.61610764;;;;;1061.2
1269.0;1133.0;;;;0.0;0.0;0.0;;;;;;;;;;;;;;;
1269.0;1133.0;;;;-0.13951875;0.93249905;0.1198311;;;;;;;;;;;;;;;
1269.0;1133.0;;;;-0.4592324;1.9999964;0.26869586;;;;;;;;;;;;;;;
1269.0;1133.0;;;;-0.47483832;1.9999964;0.25576785;;;;;;;;;;;;;;;
1269.0;1133.0;;;;-0.47619635;1.9999964;0.24804309;;;;;;;;;;;;;;;
1269.0;1142.9;;;;-0.4741097;1.9999964;0.24031833;;;;;;;;;;;;;;;
1269.0;1142.9;;;;-0.46732336;1.9999964;0.23370746;;;;;;;;;;;;;;;
1269.0;1142.9;;;;-0.46656805;1.9999964;0.22718051;;;;;;;;;;;;;;;
1269.0;1142.9;;;;-0.465519;1.9999964;0.21889499;;;;;;;;;;;;;;;
1269.0;1142.9;;;;-0.46351248;1.9999964;0.2141724;;;;;;;;;;;;;;;
1269.0;1144.2;57544;57514;13097;;;;;;;;;;;;;;;;;;
1269.0;1152.9;;;;-0.4606362;1.9999964;0.20862582;;;;;;;;;;;;;;;
1269.0;1152.9;;;;-0.45981604;1.9999964;0.20305255;;;;;;;;;;;;;;;
1269.0;1152.9;;;;-0.4580651;1.9999964;0.20022967;;;;;;;;;;;;;;;
1269.0;1152.9;;;;-0.4585114;1.9999964;0.1972504;;;;;;;;;;;;;;;
1269.0;1152.9;;;;-0.45351416;1.9999964;0.19823459;;;;;;;;;;;;;;;
1271.0;1163.0;;;;-0.43677908;1.9999964;0.20874026;;;;;;;;;;;;;;;
1271.0;1163.0;;;;-0.40921408;1.9999964;0.23225406;;;;;;;;;;;;;;;
1271.0;1163.0;;;;-0.38504034;1.9999964;0.25802997;;;;;;;;;;;;;;;
1271.0;1163.0;;;;-0.37300494;1.9999964;0.28211597;;;;;;;;;;;;;;;
1271.0;1163.0;;;;-0.36854556;1.9999964;0.30741885;;;;;;;;;;;;;;;
1271.0;1164.4;73846;73845;13119;;;;;;;;;;;;;;;;;;
1271.0;1170.7;;;;;;;;;;;;;0;;;;;;;;
1271.0;1170.7;;;;;;;;;;;;;0;;;;;;;;
1271.0;1170.7;;;;;;;;;;;;;-1;;;;;;;;
1271.0;1170.7;;;;;;;;;;;;;-2;;;;;;;;
1271.0;1170.7;;;;;;;;;;;;;-2;;;;;;;;
1271.0;1173.2;;;;-0.36690524;1.9999964;0.32843783;;;;;;;;;;;;;;;
1271.0;1173.2;;;;-0.35920718;1.9999964;0.3465233;;;;;;;;;;;;;;;
1271.0;1173.2;;;;-0.35113528;1.9999964;0.36301044;;;;;;;;;;;;;;;
1271.0;1173.2;;;;-0.3459473;1.9999964;0.3771668;;;;;;;;;;;;;;;
1271.0;1173.2;;;;-0.34152606;1.9999964;0.3879128;;;;;;;;;;;;;;;
1284.0;1182.7;;;;;;;;;;;;;;;;;-43.477432;-1.7090366;63.623466;;1070.9
1284.0;1182.7;;;;;;;;;;;;;;-1.1728873;-0.10748619;-0.649617;;;;;1070.9
1284.0;1182.7;;;;;;;;;;;;;;;;;-39.91058;-3.7995543;67.78542;;1070.9
1284.0;1182.7;;;;;;;;;;;;;;-1.1204566;-0.08459731;-0.61592454;;;;;1070.9
1284.0;1182.7;;;;;;;;;;;;;;;;;-41.402172;-7.3664055;68.04483;;1080.3
1284.0;1182.7;;;;;;;;;;;;;;-1.0702231;-0.07477035;-0.57618946;;;;;1080.3
1284.0;1182.7;;;;;;;;;;;;;;;;;-43.10358;-10.048219;67.94564;;1080.3
1284.0;1182.7;;;;;;;;;;;;;;-1.0430616;-0.08374279;-0.5400556;;;;;1080.3
1284.0;1182.7;;;;;;;;;;;;;;;;;-44.58754;-12.176886;68.33857;;1090.0
1284.0;1182.7;;;;;;;;;;;;;;-1.0260934;-0.08929716;-0.49983215;;;;;1090.0
1284.0;1182.7;;;;;;;;;;;;;;;;;-47.532578;-12.539292;68.342384;;1090.0
1284.0;1182.7;;;;;;;;;;;;;;-0.9971008;-0.10345775;-0.47499007;;;;;1090.0
1284.0;1183.2;;;;-0.33749774;1.9999964;0.3990937;;;;;;;;;;;;;;;
1284.0;1183.2;;;;-0.32778552;1.9999964;0.409401;;;;;;;;;;;;;;;
1284.0;1183.2;;;;-0.32512286;1.9999964;0.42193228;;;;;;;;;;;;;;;
1284.0;1183.2;;;;-0.3198624;1.9999964;0.43280798;;;;;;;;;;;;;;;
1284.0;1183.2;;;;-0.31317905;1.9999964;0.44533545;;;;;;;;;;;;;;;
1286.0;1183.5;;;;;;;;;;;;;;;;;-49.29884;-10.486923;69.11679;;1099.7
1286.0;1183.5;;;;;;;;;;;;;;-0.99002045;-0.1259804;-0.4422132;;;;;1099.7
1286.0;1183.5;;;;;;;;;;;;;;;;;-51.351208;-9.086886;68.64375;;1099.7
1286.0;1183.5;;;;;;;;;;;;;;-0.98788416;-0.1353801;-0.4344615;;;;;1099.7
1286.0;1183.5;;;;;;;;;;;;;;;;;-52.034058;-7.854701;68.92605;;1109.4
1286.0;1183.5;;;;;;;;;;;;;;-0.9897153;-0.15753655;-0.42463455;;;;;1109.4
1286.0;1183.5;;;;;;;;;;;;;;;;;-50.897243;-8.724479;70.60838;;1109.4
1286.0;1183.5;;;;;;;;;;;;;;-0.9857479;-0.16608173;-0.410596;;;;;1109.4
1286.0;1183.5;;;;;;;;;;;;;;;;;-50.49669;-11.089663;72.3632;;1119.0
1286.0;1183.5;;;;;;;;;;;;;;-0.98159736;-0.17169714;-0.3991821;;;;;1119.0
1286.0;1183.5;;;;;;;;;;;;;;;;;-51.83569;-13.1077;72.83242;;1119.0
1286.0;1183.5;;;;;;;;;;;;;;-0.9770806;-0.1693167;-0.3980224;;;;;1119.0
1286.0;1184.5;90307;90240;13123;;;;;;;;;;;;;;;;;;
1286.0;1193.2;;;;-0.31274417;1.9999964;0.45641333;;;;;;;;;;;;;;;
1286.0;1193.2;;;;-0.3120499;1.9999964;0.46591574;;;;;;;;;;;;;;;
1286.0;1193.2;;;;-0.31431583;1.9999964;0.4715119;;;;;;;;;;;;;;;
1286.0;1193.2;;;;-0.3129349;1.9999964;0.4779778;;;;;;;;;;;;;;;
1286.0;1193.2;;;;-0.31341937;1.9999964;0.48394018;;;;;;;;;;;;;;;
1286.0;1203.2;;;;-0.3200684;1.9999964;0.48631293;;;;;;;;;;;;;;;
1286.0;1203.2;;;;-0.31675723;1.9999964;0.4876595;;;;;;;;;;;;;;;
1286.0;1203.2;;;;-0.3107796;1.9999964;0.4886933;;;;;;;;;;;;;;;
1286.0;1203.2;;;;-0.30968478;1.9999964;0.48823553;;;;;;;;;;;;;;;
1286.0;1203.2;;;;-0.30783084;1.9999964;0.48455817;;;;;;;;;;;;;;;
1326.0;1204.7;106592;106659;13108;;;;;;;;;;;;;;;;;;
1326.0;1210.9;;;;;;;;;;;;;-9;;;;;;;;
1326.0;1210.9;;;;;;;;;;;;;-3;;;;;;;;
1326.0;1210.9;;;;;;;;;;;;;-2;;;;;;;;
1326.0;1210.9;;;;;;;;;;;;;-36;;;;;;;;
1326.0;1210.9;;;;;;;;;;;;;-9;;;;;;;;
1326.0;1213.3;;;;-0.30399325;1.9999964;0.48507696;;;;;;;;;;;;;;;
1326.0;1213.3;;;;-0.29799274;1.9999964;0.49566656;;;;;;;;;;;;;;;
1326.0;1213.3;;;;-0.29171756;1.9999964;0.45665365;;;;;;;;;;;;;;;
1326.0;1213.3;;;;-0.29906467;1.9999964;0.5026055;;;;;;;;;;;;;;;
1326.0;1213.3;;;;-0.28447345;1.9999964;0.45904166;;;;;;;;;;;;;;;
1326.0;1223.4;;;;-0.2815781;1.9999964;0.4407807;;;;;;;;;;;;;;;
1326.0;1223.4;;;;-0.27574542;1.9999964;0.44790655;;;;;;;;;;;;;;;
1326.0;1223.4;;;;-0.26968387;1.9999964;0.42467886;;;;;;;;;;;;;;;
1326.0;1223.4;;;;-0.26755145;1.9999964;0.41990286;;;;;;;;;;;;;;;
1326.0;1223.4;;;;-0.24924853;1.9999964;0.41482168;;;;;;;;;;;;;;;
1326.0;1224.9;123033;123071;13114;;;;;;;;;;;;;;;;;;
1326.0;1233.5;;;;-0.23398212;1.9999964;0.40547568;;;;;;;;;;;;;;;
1326.0;1233.5;;;;-0.21943286;1.9999964;0.39936835;;;;;;;;;;;;;;;
1326.0;1233.5;;;;-0.20967105;1.9999964;0.3900414;;;;;;;;;;;;;;;
1326.0;1233.5;;;;-0.20198825;1.9999964;0.37764746;;;;;;;;;;;;;;;
1326.0;1233.5;;;;-0.19832996;1.9999964;0.36510852;;;;;;;;;;;;;;;
1327.0;1243.2;;;;;;;;;;;;;;;;;-53.838467;-14.255959;71.920685;;1128.7
1327.0;1243.2;;;;;;;;;;;;;;-0.9693899;-0.17108676;-0.39906004;;;;;1128.7
1327.0;1243.2;;;;;;;;;;;;;;;;;-54.60143;-15.415662;70.78387;;1128.7
1327.0;1243.2;;;;;;;;;;;;;;-0.95242167;-0.16699728;-0.41175574;;;;;1128.7
1327.0;1243.2;;;;;;;;;;;;;;;;;-54.502243;-15.102847;70.879234;;1138.2
1327.0;1243.2;;;;;;;;;;;;;;-0.93990904;-0.15997803;-0.4215827;;;;;1138.2
1327.0;1243.2;;;;;;;;;;;;;;;;;-54.86846;-14.778588;71.85201;;1138.2
1327.0;1243.2;;;;;;;;;;;;;;-0.9231239;-0.14606158;-0.42793053;;;;;1138.2
1327.0;1243.2;;;;;;;;;;;;;;;;;-55.162205;-14.976958;72.477646;;1147.7
1327.0;1243.2;;;;;;;;;;;;;;-0.900235;-0.12988678;-0.440199;;;;;1147.7
1327.0;1243.2;;;;;;;;;;;;;;;;;-53.945282;-13.863032;73.0842;;1147.7
1327.0;1243.2;;;;;;;;;;;;;;-0.8866848;-0.115543075;-0.4532609;;;;;1147.7
1327.0;1243.6;;;;-0.19886401;1.9999964;0.3568268;;;;;;;;;;;;;;;
1327.0;1243.6;;;;-0.20012286;1.9999964;0.3447266;;;;;;;;;;;;;;;
1327.0;1243.6;;;;-0.20333865;1.9999964;0.33438113;;;;;;;;;;;;;;;
1327.0;1243.6;;;;-0.20650485;1.9999964;0.32403567;;;;;;;;;;;;;;;
1327.0;1243.6;;;;-0.20694354;1.9999964;0.3104706;;;;;;;;;;;;;;;
1328.0;1244.0;;;;;;;;;;;;;;;;;-53.830837;-12.798699;72.935425;;1157.4
1328.0;1244.0;;;;;;;;;;;;;;-0.8758812;-0.09735405;-0.44123662;;;;;1157.4
1328.0;1244.0;;;;;;;;;;;;;;;;;-55.55513;-14.2407;72.836235;;1157.4
1328.0;1244.0;;;;;;;;;;;;;;-0.8619037;-0.09985656;-0.42396313;;;;;1157.4
1328.0;1244.0;;;;;;;;;;;;;;;;;-56.978058;-18.333994;71.63075;;1167.0
1328.0;1244.0;;;;;;;;;;;;;;-0.854152;-0.09149449;-0.37861264;;;;;1167.0
1328.0;1244.0;;;;;;;;;;;;;;;;;-58.362835;-24.502548;71.06998;;1167.0
1328.0;1244.0;;;;;;;;;;;;;;-0.84109014;-0.09533983;-0.36939603;;;;;1167.0
1328.0;1244.0;;;;;;;;;;;;;;;;;-58.68328;-27.130957;69.41816;;1176.7
1328.0;1244.0;;;;;;;;;;;;;;-0.8418836;-0.10388501;-0.37171546;;;;;1176.7
1328.0;1244.0;;;;;;;;;;;;;;;;;-58.48491;-27.283548;67.3925;;1176.7
1328.0;1244.0;;;;;;;;;;;;;;-0.8516495;-0.11902219;-0.37781915;;;;;1176.7
1328.0;1245.0;139348;139364;13129;;;;;;;;;;;;;;;;;;
1328.0;1251.3;;;;;;;;;;;;;-76;;;;;;;;
1328.0;1251.3;;;;;;;;;;;;;-59;;;;;;;;
1328.0;1251.3;;;;;;;;;;;;;25;;;;;;;;
1328.0;1251.3;;;;;;;;;;;;;-361;;;;;;;;
1328.0;1251.3;;;;;;;;;;;;;104;;;;;;;;
1328.0;1253.6;;;;-0.20689014;1.9999964;0.29234698;;;;;;;;;;;;;;;
1328.0;1253.6;;;;-0.20197299;1.9999964;0.27400973;;;;;;;;;;;;;;;
1328.0;1253.6;;;;-0.20307925;1.9999964;0.2536545;;;;;;;;;;;;;;;
1328.0;1253.6;;;;-0.20122531;1.9999964;0.2385445;;;;;;;;;;;;;;;
1328.0;1253.6;;;;-0.1954613;1.9999964;0.22386554;;;;;;;;;;;;;;;
1389.0;1263.6;;;;-0.18961337;1.9999964;0.20927432;;;;;;;;;;;;;;;
1389.0;1263.6;;;;-0.18729402;1.9999964;0.19390872;;;;;;;;;;;;;;;
1389.0;1263.6;;;;-0.17897417;1.9999964;0.18246843;;;;;;;;;;;;;;;
1389.0;1263.6;;;;-0.16450502;1.9999964;0.1703644;;;;;;;;;;;;;;;
1389.0;1263.6;;;;-0.15431215;1.9999964;0.15822603;;;;;;;;;;;;;;;
1389.0;1265.2;155823;155801;13121;;;;;;;;;;;;;;;;;;
1389.0;1273.4;;;;-0.148201;1.9999964;0.14442827;;;;;;;;;;;;;;;
1389.0;1273.4;;;;-0.14242555;1.9999964;0.13252641;;;;;;;;;;;;;;;
1389.0;1273.4;;;;-0.13772584;1.9999964;0.121547714;;;;;;;;;;;;;;;
1389.0;1273.4;;;;-0.12800981;1.9999964;0.11096193;;;;;;;;;;;;;;;
1389.0;1273.4;;;;-0.117439285;1.9849741;0.099662796;;;;;;;;;;;;;;;
1389.0;1283.5;;;;-0.10738756;1.9605181;0.08738328;;;;;;;;;;;;;;;
1389.0;1283.5;;;;-0.09586336;1.937794;0.07534028;;;;;;;;;;;;;;;
1389.0;1283.5;;;;-0.085521705;1.9160006;0.062709816;;;;;;;;;;;;;;;
1389.0;1283.5;;;;-0.07706452;1.8949702;0.060806282;;;;;;;;;;;;;;;
1389.0;1283.5;;;;-0.066558845;1.8730929;0.05447007;;;;;;;;;;;;;;;
1389.0;1285.2;172160;172239;13130;;;;;;;;;;;;;;;;;;
1389.0;1291.5;;;;;;;;;;;;;1036;;;;;;;;
1389.0;1291.5;;;;;;;;;;;;;-424;;;;;;;;
1389.0;1291.5;;;;;;;;;;;;;-2305;;;;;;;;
1389.0;1291.5;;;;;;;;;;;;;1293;;;;;;;;
1389.0;1291.5;;;;;;;;;;;;;12104;;;;;;;;
1391.0;1293.7;;;;-0.06103898;1.8502581;0.044601444;;;;;;;;;;;;;;;
1391.0;1293.7;;;;-0.060085304;1.82914;0.048072822;;;;;;;;;;;;;;;
1391.0;1293.7;;;;-0.059356697;1.8081896;0.047763832;;;;;;;;;;;;;;;
1391.0;1293.7;;;;-0.05495835;1.7856791;0.045509342;;;;;;;;;;;;;;;
1391.0;1293.7;;;;-0.051647194;1.7633402;0.04346085;;;;;;;;;;;;;;;
1391.0;1303.8;;;;-0.049270637;1.7421839;0.040897373;;;;;;;;;;;;;;;
1391.0;1303.8;;;;-0.04447556;1.721638;0.03862;;;;;;;;;;;;;;;
1391.0;1303.8;;;;-0.03999329;1.7003253;0.03633881;;;;;;;;;;;;;;;
1391.0;1303.8;;;;-0.032550815;1.6793253;0.036312107;;;;;;;;;;;;;;;
1391.0;1303.8;;;;-0.027515415;1.6602137;0.035743717;;;;;;;;;;;;;;;
1391.0;1305.5;188629;188600;13110;;;;;;;;;;;;;;;;;;
1391.0;1313.9;;;;-0.023002626;1.6422045;0.034587864;;;;;;;;;;;;;;;
1391.0;1313.9;;;;-0.018211367;1.6257975;0.03474808;;;;;;;;;;;;;;;
1391.0;1313.9;;;;-0.011787416;1.607445;0.03459168;;;;;;;;;;;;;;;
1391.0;1313.9;;;;-0.0044364934;1.5890658;0.035240177;;;;;;;;;;;;;;;
1391.0;1313.9;;;;-0.0012245179;1.5716097;0.035099033;;;;;;;;;;;;;;;
1391.0;1323.9;;;;0.010578156;1.5505335;0.03563309;;;;;;;;;;;;;;;
1391.0;1323.9;;;;0.01931;1.5304415;0.037948612;;;;;;;;;;;;;;;
1391.0;1323.9;;;;0.027877811;1.5074961;0.03855515;;;;;;;;;;;;;;;
1391.0;1323.9;;;;0.034667972;1.4862596;0.03963471;;;;;;;;;;;;;;;
1391.0;1323.9;;;;0.0391655;1.4639665;0.038990024;;;;;;;;;;;;;;;
1448.0;1325.6;204920;204982;13114;;;;;;;;;;;;;;;;;;
1448.0;1331.5;;;;;;;;;;;;;23667;;;;;;;;
1448.0;1331.5;;;;;;;;;;;;;28193;;;;;;;;
1448.0;1331.5;;;;;;;;;;;;;25688;;;;;;;;
1448.0;1331.5;;;;;;;;;;;;;22392;;;;;;;;
1448.0;1331.5;;;;;;;;;;;;;22016;;;;;;;;
1448.0;1333.6;;;;0.050712593;1.4392244;0.039390568;;;;;;;;;;;;;;;
1448.0;1333.6;;;;0.053298958;1.4149553;0.040412907;;;;;;;;;;;;;;;
1448.0;1333.6;;;;0.05327607;1.3912431;0.041549686;;;;;;;;;;;;;;;
1448.0;1333.6;;;;0.058341987;1.3666955;0.041664127;;;;;;;;;;;;;;;
1448.0;1333.6;;;;0.05850602;1.3450395;0.044918064;;;;;;;;;;;;;;;
1448.0;1343.7;;;;0.058902748;1.3217965;0.048069008;;;;;;;;;;;;;;;
1448.0;1343.7;;;;0.060565956;1.296055;0.051322944;;;;;;;;;;;;;;;
1448.0;1343.7;;;;0.055488594;1.2733232;0.0522194;;;;;;;;;;;;;;;
1448.0;1343.7;;;;0.06164933;1.2482568;0.05320359;;;;;;;;;;;;;;;
1448.0;1343.7;;;;0.06823731;1.2286454;0.05691529;;;;;;;;;;;;;;;
1448.0;1345.5;221276;221357;13115;;;;;;;;;;;;;;;;;;
1448.0;1353.9;;;;0.06503297;1.2095453;0.0548668;;;;;;;;;;;;;;;
1448.0;1353.9;;;;0.061767586;1.1891443;0.05589295;;;;;;;;;;;;;;;
1448.0;1353.9;;;;0.058162697;1.173153;0.05573655;;;;;;;;;;;;;;;
1448.0;1353.9;;;;0.060546882;1.1563379;0.055496223;;;;;;;;;;;;;;;
1448.0;1353.9;;;;0.060550697;1.1385499;0.055912025;;;;;;;;;;;;;;;
1451.0;1364.0;;;;0.06216813;1.1216813;0.055885322;;;;;;;;;;;;;;;
1451.0;1364.0;;;;0.056659706;1.1058923;0.054386146;;;;;;;;;;;;;;;
1451.0;1364.0;;;;0.060955055;1.0887948;0.052783974;;;;;;;;;;;;;;;
1451.0;1364.0;;;;0.062423714;1.0686914;0.049594887;;;;;;;;;;;;;;;
1451.0;1364.0;;;;0.061912544;1.0499345;0.05062104;;;;;;;;;;;;;;;
1451.0;1365.8;237701;237838;13112;;;;;;;;;;;;;;;;;;
1451.0;1372.1;;;;;;;;;;;;;21986;;;;;;;;
1451.0;1372.1;;;;;;;;;;;;;20651;;;;;;;;
1451.0;1372.1;;;;;;;;;;;;;19459;;;;;;;;
1451.0;1372.1;;;;;;;;;;;;;18498;;;;;;;;
1451.0;1372.1;;;;;;;;;;;;;17679;;;;;;;;
1451.0;1374.0;;;;0.062255867;1.0294343;0.0491829;;;;;;;;;;;;;;;
1451.0;1374.0;;;;0.066452034;1.0092508;0.04802323;;;;;;;;;;;;;;;
1451.0;1374.0;;;;0.0664177;0.98841107;0.04742814;;;;;;;;;;;;;;;
1451.0;1374.0;;;;0.06481934;0.96878445;0.04592133;;;;;;;;;;;;;;;
1451.0;1374.0;;;;0.06881333;0.94693387;0.047466286;;;;;;;;;;;;;;;
1452.0;1379.2;;;;;;;;;;;;;;;;;-57.611317;-27.72225;65.05783;;1186.3
1452.0;1379.2;;;;;;;;;;;;;;-0.8427992;-0.13049714;-0.37861264;;;;;1186.3
1452.0;1379.2;;;;;;;;;;;;;;;;;-54.994354;-28.603474;62.868134;;1186.3
1452.0;1379.2;;;;;;;;;;;;;;-0.8296152;-0.1462447;-0.36744285;;;;;1186.3
1452.0;1379.2;;;;;;;;;;;;;;;;;-51.4008;-29.28251;61.349834;;1195.8
1452.0;1379.2;;;;;;;;;;;;;;-0.81441694;-0.15082248;-0.3427839;;;;;1195.8
1452.0;1379.2;;;;;;;;;;;;;;;;;-48.71517;-30.072176;60.205387;;1195.8
1452.0;1379.2;;;;;;;;;;;;;;-0.806238;-0.1528367;-0.3145848;;;;;1195.8
1452.0;1379.2;;;;;;;;;;;;;;;;;-47.719505;-30.770287;58.709984;;1205.5
1452.0;1379.2;;;;;;;;;;;;;;-0.7993408;-0.13904233;-0.29303873;;;;;1205.5
1452.0;1379.2;;;;;;;;;;;;;;;;;-48.45958;-30.625324;57.17261;;1205.5
1452.0;1379.2;;;;;;;;;;;;;;-0.7983642;-0.1259804;-0.2929777;;;;;1205.5
1452.0;1380.1;;;;;;;;;;;;;;;;;-48.726616;-28.813288;55.124058;;1215.2
1452.0;1380.1;;;;;;;;;;;;;;-0.80684835;-0.12182989;-0.3108005;;;;;1215.2
1452.0;1380.1;;;;;;;;;;;;;;;;;-47.559284;-27.794731;52.934357;;1215.2
1452.0;1380.1;;;;;;;;;;;;;;-0.80739766;-0.112125;-0.32807398;;;;;1215.2
1452.0;1380.1;;;;;;;;;;;;;;;;;-45.670948;-27.550583;51.576283;;1224.8
1452.0;1380.1;;;;;;;;;;;;;;-0.79354227;-0.0933256;-0.34894863;;;;;1224.8
1452.0;1380.1;;;;;;;;;;;;;;;;;-44.717243;-25.704214;50.344093;;1224.8
1452.0;1380.1;;;;;;;;;;;;;;-0.77370524;-0.07684561;-0.3554796;;;;;1224.8
1452.0;1380.1;;;;;;;;;;;;;;;;;-45.22843;-22.671436;49.16532;;1234.5
1452.0;1380.1;;;;;;;;;;;;;;-0.7610706;-0.067445904;-0.37067783;;;;;1234.5
1452.0;1380.1;;;;;;;;;;;;;;;;;-46.67806;-19.150366;48.49391;;1234.5
1452.0;1380.1;;;;;;;;;;;;;;-0.7611927;-0.06439406;-0.39613026;;;;;1234.5
1453.0;1380.8;;;;;;;;;;;;;;;;;-48.478653;-17.075106;48.295544;;1244.1
1453.0;1380.8;;;;;;;;;;;;;;-0.77932066;-0.06659139;-0.3998535;;;;;1244.1
1453.0;1380.8;;;;;;;;;;;;;;;;;-49.264507;-18.562883;48.219246;;1244.1
1453.0;1380.8;;;;;;;;;;;;;;-0.79635;-0.069093905;-0.37879574;;;;;1244.1
1453.0;1380.8;;;;;;;;;;;;;;;;;-48.886837;-21.984772;47.70043;;1253.8
1453.0;1380.8;;;;;;;;;;;;;;-0.8070925;-0.06750695;-0.35651723;;;;;1253.8
1453.0;1380.8;;;;;;;;;;;;;;;;;-47.83395;-25.28077;46.143986;;1253.8
1453.0;1380.8;;;;;;;;;;;;;;-0.8196051;-0.06292917;-0.31843013;;;;;1253.8
1453.0;1380.8;;;;;;;;;;;;;;;;;-48.802914;-27.279734;44.064915;;1263.5
1453.0;1380.8;;;;;;;;;;;;;;-0.82467115;-0.06439406;-0.30481887;;;;;1263.5
1453.0;1380.8;;;;;;;;;;;;;;;;;-51.26728;-26.024658;41.77984;;1263.5
1453.0;1380.8;;;;;;;;;;;;;;-0.83797723;-0.0761742;-0.31293678;;;;;1263.5
1453.0;1381.6;;;;;;;;;;;;;;;;;-54.84939;-23.94177;39.590134;;1273.0
1453.0;1381.6;;;;;;;;;;;;;;-0.85659355;-0.09729301;-0.3310648;;;;;1273.0
1453.0;1381.6;;;;;;;;;;;;;;;;;-60.033722;-23.461103;37.4691;;1273.0
1453.0;1381.6;;;;;;;;;;;;;;-0.8737449;-0.12524797;-0.36353648;;;;;1273.0
1453.0;1381.6;;;;;;;;;;;;;;;;;-64.86328;-23.068178;35.939358;;1282.7
1453.0;1381.6;;;;;;;;;;;;;;-0.88644063;-0.16595966;-0.39906004;;;;;1282.7
1453.0;1381.6;;;;;;;;;;;;;;;;;-67.98379;-21.511734;34.47447;;1282.7
1453.0;1381.6;;;;;;;;;;;;;;-0.9070101;-0.22315134;-0.41712698;;;;;1282.7
1453.0;1381.6;;;;;;;;;;;;;;;;;-70.57024;-19.795067;33.46736;;1292.2
1453.0;1381.6;;;;;;;;;;;;;;-0.9455855;-0.28302866;-0.43946654;;;;;1292.2
1453.0;1381.6;;;;;;;;;;;;;;;;;-71.878716;-19.531845;32.456436;;1292.2
1453.0;1381.6;;;;;;;;;;;;;;-0.98159736;-0.34784997;-0.44245735;;;;;1292.2
1509.0;1383.7;;;;0.066947944;0.925686;0.045246128;;;;;;;;;;;;;;;
1509.0;1383.7;;;;0.06647874;0.9035722;0.044425968;;;;;;;;;;;;;;;
1509.0;1383.7;;;;0.06427766;0.8846437;0.04614258;;;;;;;;;;;;;;;
1509.0;1383.7;;;;0.065094;0.8647462;0.045658115;;;;;;;;;;;;;;;
1509.0;1383.7;;;;0.067329414;0.8450624;0.04821778;;;;;;;;;;;;;;;
1509.0;1385.6;254110;254112;13106;;;;;;;;;;;;;;;;;;
1509.0;1393.3;;;;0.06343079;0.82595456;0.046680454;;;;;;;;;;;;;;;
1509.0;1393.3;;;;0.062709816;0.8079721;0.049861915;;;;;;;;;;;;;;;
1509.0;1393.3;;;;0.057518013;0.79024136;0.051349647;;;;;;;;;;;;;;;
1509.0;1393.3;;;;0.054595955;0.7728311;0.051868446;;;;;;;;;;;;;;;
1509.0;1393.3;;;;0.050846107;0.75662625;0.053062446;;;;;;;;;;;;;;;
1509.0;1403.4;;;;0.049545296;0.7406922;0.05521012;;;;;;;;;;;;;;;
1509.0;1403.4;;;;0.050292976;0.723507;0.057991035;;;;;;;;;;;;;;;
1509.0;1403.4;;;;0.046508793;0.7065354;0.062709816;;;;;;;;;;;;;;;
1509.0;1403.4;;;;0.043945316;0.6878281;0.06911088;;;;;;;;;;;;;;;
1509.0;1403.4;;;;0.038700107;0.67189413;0.073925026;;;;;;;;;;;;;;;
1509.0;1405.4;262143;262143;13092;;;;;;;;;;;;;;;;;;
1509.0;1411.6;;;;;;;;;;;;;17006;;;;;;;;
1509.0;1411.6;;;;;;;;;;;;;16129;;;;;;;;
1509.0;1411.6;;;;;;;;;;;;;15209;;;;;;;;
1509.0;1411.6;;;;;;;;;;;;;14267;;;;;;;;
1509.0;1411.6;;;;;;;;;;;;;13408;;;;;;;;
1512.0;1413.6;;;;0.033287052;0.6559182;0.07559205;;;;;;;;;;;;;;;
1512.0;1413.6;;;;0.031772617;0.64218146;0.078392036;;;;;;;;;;;;;;;
1512.0;1413.6;;;;0.03150559;0.62811285;0.08260346;;;;;;;;;;;;;;;
1512.0;1413.6;;;;0.029003147;0.6142464;0.08849717;;;;;;;;;;;;;;;
1512.0;1413.6;;;;0.029697422;0.60327536;0.094432846;;;;;;;;;;;;;;;
1512.0;1423.7;;;;0.027107242;0.59299856;0.10066225;;;;;;;;;;;;;;;
1512.0;1423.7;;;;0.023376467;0.58466727;0.10605623;;;;;;;;;;;;;;;
1512.0;1423.7;;;;0.024623875;0.576706;0.11463548;;;;;;;;;;;;;;;
1512.0;1423.7;;;;0.025840763;0.5715218;0.120834365;;;;;;;;;;;;;;;
1512.0;1423.7;;;;0.022541048;0.5676194;0.12817384;;;;;;;;;;;;;;;
1512.0;1425.6;262143;262143;13094;;;;;;;;;;;;;;;;;;
1512.0;1433.7;;;;0.020675661;0.563839;0.13414766;;;;;;;;;;;;;;;
1512.0;1433.7;;;;0.018535616;0.56132895;0.14114381;;;;;;;;;;;;;;;
1512.0;1433.7;;;;0.013603212;0.56044394;0.14405443;;;;;;;;;;;;;;;
1512.0;1433.7;;;;0.01262665;0.55749136;0.15044786;;;;;;;;;;;;;;;
1512.0;1433.7;;;;0.010578156;0.5571824;0.15505601;;;;;;;;;;;;;;;
1512.0;1443.8;;;;0.010711671;0.5553475;0.16091157;;;;;;;;;;;;;;;
1512.0;1443.8;;;;0.007419587;0.55379874;0.16568376;;;;;;;;;;;;;;;
1512.0;1443.8;;;;0.0057563786;0.5517846;0.16797258;;;;;;;;;;;;;;;
1512.0;1443.8;;;;0.0044479375;0.5516053;0.17080308;;;;;;;;;;;;;;;
1512.0;1443.8;;;;0.007133485;0.554535;0.17182542;;;;;;;;;;;;;;;
1569.0;1445.8;262143;262143;13103;;;;;;;;;;;;;;;;;;
1569.0;1451.9;;;;;;;;;;;;;12922;;;;;;;;
1569.0;1451.9;;;;;;;;;;;;;12578;;;;;;;;
1569.0;1451.9;;;;;;;;;;;;;12001;;;;;;;;
1569.0;1451.9;;;;;;;;;;;;;11267;;;;;;;;
1569.0;1451.9;;;;;;;;;;;;;10649;;;;;;;;
1569.0;1453.7;;;;0.0079689035;0.554596;0.17352296;;;;;;;;;;;;;;;
1569.0;1453.7;;;;0.009399415;0.55346686;0.17403413;;;;;;;;;;;;;;;
1569.0;1453.7;;;;0.010425569;0.54077154;0.17166139;;;;;;;;;;;;;;;
1569.0;1453.7;;;;0.008613587;0.5325814;0.17358781;;;;;;;;;;;;;;;
1569.0;1453.7;;;;0.00466919;0.53711706;0.17430879;;;;;;;;;;;;;;;
1569.0;1463.8;;;;0.0010185243;0.5445176;0.17082216;;;;;;;;;;;;;;;
1569.0;1463.8;;;;-0.0026817324;0.55120474;0.16559602;;;;;;;;;;;;;;;
1569.0;1463.8;;;;-0.0057220464;0.5566521;0.1601143;;;;;;;;;;;;;;;
1569.0;1463.8;;;;-0.007759095;0.5601464;0.15467454;;;;;;;;;;;;;;;
1569.0;1463.8;;;;-0.0076904306;0.56158835;0.14934541;;;;;;;;;;;;;;;
1569.0;1465.9;262143;262143;13101;;;;;;;;;;;;;;;;;;
1569.0;1474.0;;;;-0.006385804;0.5615502;0.14450075;;;;;;;;;;;;;;;
1569.0;1474.0;;;;-0.002723694;0.5606881;0.13964082;;;;;;;;;;;;;;;
1569.0;1474.0;;;;0.0023994448;0.55806357;0.13380815;;;;;;;;;;;;;;;
1569.0;1474.0;;;;0.00927353;0.5530587;0.12681581;;;;;;;;;;;;;;;
1569.0;1474.0;;;;0.01829529;0.5474244;0.11955263;;;;;;;;;;;;;;;
1572.0;1484.1;;;;0.028041843;0.539383;0.11249544;;;;;;;;;;;;;;;
1572.0;1484.1;;;;0.038517002;0.53096396;0.10507204;;;;;;;;;;;;;;;
1572.0;1484.1;;;;0.049594887;0.5224801;0.09847261;;;;;;;;;;;;;;;
1572.0;1484.1;;;;0.060623176;0.51471335;0.0918007;;;;;;;;;;;;;;;
1572.0;1484.1;;;;0.07032014;0.5080796;0.086486824;;;;;;;;;;;;;;;
1572.0;1486.2;262143;262143;13088;;;;;;;;;;;;;;;;;;
1572.0;1492.4;;;;;;;;;;;;;10248;;;;;;;;
1572.0;1492.4;;;;;;;;;;;;;9803;;;;;;;;
1572.0;1492.4;;;;;;;;;;;;;8965;;;;;;;;
1572.0;1492.4;;;;;;;;;;;;;7828;;;;;;;;
1572.0;1492.4;;;;;;;;;;;;;6902;;;;;;;;
1572.0;1494.1;;;;0.078731544;0.50137335;0.081104286;;;;;;;;;;;;;;;
1572.0;1494.1;;;;0.08525468;0.4959908;0.076717384;;;;;;;;;;;;;;;
1572.0;1494.1;;;;0.08965684;0.49051672;0.072429664;;;;;;;;;;;;;;;
1572.0;1494.1;;;;0.09403612;0.48587042;0.07027436;;;;;;;;;;;;;;;
1572.0;1494.1;;;;0.09730913;0.48333365;0.070034035;;;;;;;;;;;;;;;
1573.0;1500.2;;;;;;;;;;;;;;;;;-70.91357;-22.228918;31.422619;;1301.9
1573.0;1500.2;;;;;;;;;;;;;;-1.0077822;-0.4189581;-0.43269143;;;;;1301.9
1573.0;1500.2;;;;;;;;;;;;;;;;;-67.96853;-25.551622;29.652548;;1301.9
1573.0;1500.2;;;;;;;;;;;;;;-1.0177923;-0.49140903;-0.41584522;;;;;1301.9
1573.0;1500.2;;;;;;;;;;;;;;;;;-63.013092;-29.057436;27.3484;;1311.5
1573.0;1500.2;;;;;;;;;;;;;;-1.0180365;-0.5604419;-0.39606923;;;;;1311.5
1573.0;1500.2;;;;;;;;;;;;;;;;;-57.54265;-31.846066;24.410994;;1311.5
1573.0;1500.2;;;;;;;;;;;;;;-1.0157781;-0.62349313;-0.38099307;;;;;1311.5
1573.0;1500.2;;;;;;;;;;;;;;;;;-52.888577;-33.715324;19.344921;;1321.2
1573.0;1500.2;;;;;;;;;;;;;;-1.0080264;-0.67281103;-0.37104404;;;;;1321.2
1573.0;1500.2;;;;;;;;;;;;;;;;;-49.569687;-34.68047;14.786219;;1321.2
1573.0;1500.2;;;;;;;;;;;;;;-0.982696;-0.72383803;-0.37928402;;;;;1321.2
1573.0;1501.0;;;;;;;;;;;;;;;;;-44.68291;-33.92132;14.885404;;1330.7
1573.0;1501.0;;;;;;;;;;;;;;-0.96151614;-0.76711327;-0.3961913;;;;;1330.7
1573.0;1501.0;;;;;;;;;;;;;;;;;-38.083286;-33.650475;16.68981;;1330.7
1573.0;1501.0;;;;;;;;;;;;;;-0.95272684;-0.78579056;-0.39942625;;;;;1330.7
1573.0;1501.0;;;;;;;;;;;;;;;;;-31.987213;-34.57747;17.700735;;1340.4
1573.0;1501.0;;;;;;;;;;;;;;-0.9272134;-0.8053224;-0.40552995;;;;;1340.4
1573.0;1501.0;;;;;;;;;;;;;;;;;-22.553179;-33.65429;20.17655;;1340.4
1573.0;1501.0;;;;;;;;;;;;;;-0.8957793;-0.7984863;-0.37720877;;;;;1340.4
1573.0;1501.0;;;;;;;;;;;;;;;;;-16.384624;-31.411175;23.937956;;1350.0
1573.0;1501.0;;;;;;;;;;;;;;-0.87942135;-0.7922605;-0.36005738;;;;;1350.0
1573.0;1501.0;;;;;;;;;;;;;;;;;-12.665181;-28.111362;26.387066;;1350.0
1573.0;1501.0;;;;;;;;;;;;;;-0.88576925;-0.78975797;-0.3538316;;;;;1350.0
1575.0;1501.8;;;;;;;;;;;;;;;;;-6.576739;-25.57451;26.963104;;1359.7
1575.0;1501.8;;;;;;;;;;;;;;-0.8982208;-0.80520034;-0.3217261;;;;;1359.7
1575.0;1501.8;;;;;;;;;;;;;;;;;-0.27466658;-25.35325;25.276955;;1359.7
1575.0;1501.8;;;;;;;;;;;;;;-0.9022492;-0.82723475;-0.28717917;;;;;1359.7
1575.0;1501.8;;;;;;;;;;;;;;;;;4.997406;-24.70855;22.122105;;1369.4
1575.0;1501.8;;;;;;;;;;;;;;-0.9038972;-0.8417005;-0.26453444;;;;;1369.4
1575.0;1501.8;;;;;;;;;;;;;;;;;9.720146;-23.533587;18.665884;;1369.4
1575.0;1501.8;;;;;;;;;;;;;;-0.91653186;-0.8542741;-0.25739312;;;;;1369.4
1575.0;1501.8;;;;;;;;;;;;;;;;;14.572589;-23.056734;15.217292;;1379.1
1575.0;1501.8;;;;;;;;;;;;;;-0.94302195;-0.8723411;-0.25580615;;;;;1379.1
1575.0;1501.8;;;;;;;;;;;;;;;;;19.863733;-22.679068;11.513107;;1379.1
1575.0;1501.8;;;;;;;;;;;;;;-0.97488326;-0.88467056;-0.25006866;;;;;1379.1
1575.0;1502.6;;;;;;;;;;;;;;;;;24.37666;-21.908476;6.2105165;;1388.6
1575.0;1502.6;;;;;;;;;;;;;;-1.0085757;-0.8876003;-0.23847163;;;;;1388.6
1575.0;1502.6;;;;;;;;;;;;;;;;;27.764214;-22.377697;0.50737023;;1388.6
1575.0;1502.6;;;;;;;;;;;;;;-1.0439161;-0.88808864;-0.20569475;;;;;1388.6
1575.0;1502.6;;;;;;;;;;;;;;;;;28.06177;-24.334698;-7.1565905;;1398.2
1575.0;1502.6;;;;;;;;;;;;;;-1.0512406;-0.8799097;-0.1782281;;;;;1398.2
1575.0;1502.6;;;;;;;;;;;;;;;;;25.58214;-25.955992;-16.518145;;1398.2
1575.0;1502.6;;;;;;;;;;;;;;-1.0383618;-0.8438368;-0.16022217;;;;;1398.2
1575.0;1502.6;;;;;;;;;;;;;;;;;19.592882;-26.547289;-27.321697;;1407.9
1575.0;1502.6;;;;;;;;;;;;;;-1.0286568;-0.8003174;-0.15442365;;;;;1407.9
1575.0;1502.6;;;;;;;;;;;;;;;;;11.574144;-26.856289;-39.23154;;1407.9
1575.0;1502.6;;;;;;;;;;;;;;-1.0216987;-0.75685906;-0.17572558;;;;;1407.9
1629.0;1503.4;;;;;;;;;;;;;;;;;4.9859614;-27.027956;-51.67165;;1417.5
1629.0;1503.4;;;;;;;;;;;;;;-1.0170598;-0.72225106;-0.2153386;;;;;1417.5
1629.0;1503.4;;;;;;;;;;;;;;;;;0.9804071;-26.764734;-64.36354;;1417.5
1629.0;1503.4;;;;;;;;;;;;;;-1.0142522;-0.6980193;-0.24317148;;;;;1417.5
1629.0;1503.4;;;;;;;;;;;;;;;;;0.7553331;-27.26829;-77.0745;;1427.2
1629.0;1503.4;;;;;;;;;;;;;;-1.0046693;-0.6862392;-0.24689475;;;;;1427.2
1629.0;1503.4;;;;;;;;;;;;;;;;;3.0671103;-28.714102;-89.88845;;1427.2
1629.0;1503.4;;;;;;;;;;;;;;-0.9787896;-0.67195654;-0.21643727;;;;;1427.2
1629.0;1503.4;;;;;;;;;;;;;;;;;5.4704432;-30.106508;-102.98471;;1436.9
1629.0;1503.4;;;;;;;;;;;;;;-0.94698936;-0.67213964;-0.1685232;;;;;1436.9
1629.0;1503.4;;;;;;;;;;;;;;;;;6.5233316;-30.652027;-116.30985;;1436.9
1629.0;1503.4;;;;;;;;;;;;;;-0.9418012;-0.68764305;-0.15179907;;;;;1436.9
1629.0;1503.9;;;;0.09860231;0.47962576;0.06771851;;;;;;;;;;;;;;;
1629.0;1503.9;;;;0.09894182;0.4765206;0.063789375;;;;;;;;;;;;;;;
1629.0;1503.9;;;;0.09769823;0.47495657;0.06203843;;;;;;;;;;;;;;;
1629.0;1503.9;;;;0.09669115;0.4735871;0.06077195;;;;;;;;;;;;;;;
1629.0;1503.9;;;;0.09572603;0.47270972;0.058273323;;;;;;;;;;;;;;;
1629.0;1506.1;262143;262143;13088;;;;;;;;;;;;;;;;;;
1629.0;1513.7;;;;0.09307862;0.47253805;0.056804664;;;;;;;;;;;;;;;
1629.0;1513.7;;;;0.09112168;0.47261435;0.055206306;;;;;;;;;;;;;;;
1629.0;1513.7;;;;0.08846665;0.47235876;0.05329133;;;;;;;;;;;;;;;
1629.0;1513.7;;;;0.08454896;0.47261053;0.052394874;;;;;;;;;;;;;;;
1629.0;1513.7;;;;0.081485756;0.47409064;0.052669533;;;;;;;;;;;;;;;
1632.0;1523.8;;;;0.07894517;0.47668082;0.052379616;;;;;;;;;;;;;;;
1632.0;1523.8;;;;0.07679749;0.4790917;0.05186463;;;;;;;;;;;;;;;
1632.0;1523.8;;;;0.07543183;0.48195654;0.05142594;;;;;;;;;;;;;;;
1632.0;1523.8;;;;0.07369233;0.4860764;0.05252839;;;;;;;;;;;;;;;
1632.0;1523.8;;;;0.07174302;0.4912911;0.05282212;;;;;;;;;;;;;;;
1632.0;1526.1;262143;262143;13088;;;;;;;;;;;;;;;;;;
1632.0;1532.3;;;;;;;;;;;;;6470;;;;;;;;
1632.0;1532.3;;;;;;;;;;;;;6190;;;;;;;;
1632.0;1532.3;;;;;;;;;;;;;5731;;;;;;;;
1632.0;1532.3;;;;;;;;;;;;;5183;;;;;;;;
1632.0;1532.3;;;;;;;;;;;;;4878;;;;;;;;
1632.0;1533.9;;;;0.069213875;0.49681097;0.05364991;;;;;;;;;;;;;;;
1632.0;1533.9;;;;0.067832954;0.5040589;0.05478669;;;;;;;;;;;;;;;
1632.0;1533.9;;;;0.06511689;0.512127;0.055820473;;;;;;;;;;;;;;;
1632.0;1533.9;;;;0.061565407;0.52057654;0.05584336;;;;;;;;;;;;;;;
1632.0;1533.9;;;;0.057861336;0.53002936;0.056129463;;;;;;;;;;;;;;;
1632.0;1544.0;;;;0.05483628;0.53960806;0.056804664;;;;;;;;;;;;;;;
1632.0;1544.0;;;;0.051860817;0.5497132;0.057731636;;;;;;;;;;;;;;;
1632.0;1544.0;;;;0.04915238;0.5602036;0.05794526;;;;;;;;;;;;;;;
1632.0;1544.0;;;;0.046642307;0.5709;0.05875016;;;;;;;;;;;;;;;
1632.0;1544.0;;;;0.044025425;0.5824662;0.059883125;;;;;;;;;;;;;;;
1632.0;1546.3;262143;262143;13095;;;;;;;;;;;;;;;;;;
1634.0;1554.1;;;;0.04154587;0.59416205;0.060817726;;;;;;;;;;;;;;;
1634.0;1554.1;;;;0.038040165;0.60781485;0.062252052;;;;;;;;;;;;;;;
1634.0;1554.1;;;;0.03446961;0.6228638;0.06692506;;;;;;;;;;;;;;;
1634.0;1554.1;;;;0.029731754;0.63854223;0.07219697;;;;;;;;;;;;;;;
1634.0;1554.1;;;;0.022617342;0.6531678;0.07439423;;;;;;;;;;;;;;;
1634.0;1559.3;;;;;;;;;;;;;;;;;6.9696646;-29.015472;-124.32096;;1446.5
1634.0;1559.3;;;;;;;;;;;;;;-0.95632803;-0.70345163;-0.23633534;;;;;1446.5
1634.0;1559.3;;;;;;;;;;;;;;;;;7.7288127;-22.137363;-124.988556;;1446.5
1634.0;1559.3;;;;;;;;;;;;;;-0.9914243;-0.7193823;-0.40137944;;;;;1446.5
1634.0;1559.3;;;;;;;;;;;;;;;;;9.887997;-10.03296;-124.988556;;1456.1
1634.0;1559.3;;;;;;;;;;;;;;-1.0475783;-0.74648273;-0.575396;;;;;1456.1
1634.0;1559.3;;;;;;;;;;;;;;;;;14.725182;3.3646657;-124.988556;;1456.1
1634.0;1559.3;;;;;;;;;;;;;;-1.1238136;-0.7500839;-0.68190557;;;;;1456.1
1634.0;1559.3;;;;;;;;;;;;;;;;;21.938993;13.0809965;-124.988556;;1465.7
1634.0;1559.3;;;;;;;;;;;;;;-1.2370983;-0.760094;-0.68007445;;;;;1465.7
1634.0;1559.3;;;;;;;;;;;;;;;;;30.896175;14.652699;-124.988556;;1465.7
1634.0;1559.3;;;;;;;;;;;;;;-1.3575854;-0.7874996;-0.59273046;;;;;1465.7
1691.0;1560.2;;;;;;;;;;;;;;;;;37.186806;9.475998;-124.988556;;1475.3
1691.0;1560.2;;;;;;;;;;;;;;-1.4841762;-0.8067873;-0.49708548;;;;;1475.3
1691.0;1560.2;;;;;;;;;;;;;;;;;36.545914;2.006592;-124.988556;;1475.3
1691.0;1560.2;;;;;;;;;;;;;;-1.6205329;-0.7999512;-0.42744225;;;;;1475.3
1691.0;1560.2;;;;;;;;;;;;;;;;;31.071657;-4.9058504;-124.988556;;1484.8
1691.0;1560.2;;;;;;;;;;;;;;-1.7505417;-0.7175512;-0.44032106;;;;;1484.8
1691.0;1560.2;;;;;;;;;;;;;;;;;27.905361;-7.915738;-124.988556;;1484.8
1691.0;1560.2;;;;;;;;;;;;;;-1.8881801;-0.6214179;-0.5271157;;;;;1484.8
1691.0;1560.2;;;;;;;;;;;;;;;;;27.123325;1.0261849;-124.988556;;1494.5
1691.0;1560.2;;;;;;;;;;;;;;-1.9659413;-0.46607867;-0.55024874;;;;;1494.5
1691.0;1560.2;;;;;;;;;;;;;;;;;27.146215;19.680622;-124.988556;;1494.5
1691.0;1560.2;;;;;;;;;;;;;;-1.920713;-0.28955963;-0.50019836;;;;;1494.5
1691.0;1564.0;;;;0.015949251;0.66885;0.075767525;;;;;;;;;;;;;;;
1691.0;1564.0;;;;0.008880616;0.6859742;0.08021546;;;;;;;;;;;;;;;
1691.0;1564.0;;;;-5.111695E-4;0.7049447;0.08737946;;;;;;;;;;;;;;;
1691.0;1564.0;;;;-0.011695863;0.7247849;0.09756853;;;;;;;;;;;;;;;
1691.0;1564.0;;;;-0.026420597;0.74433523;0.10876848;;;;;;;;;;;;;;;
1691.0;1566.3;262143;262143;13094;;;;;;;;;;;;;;;;;;
1691.0;1572.3;;;;;;;;;;;;;4979;;;;;;;;
1691.0;1572.3;;;;;;;;;;;;;5095;;;;;;;;
1691.0;1572.3;;;;;;;;;;;;;4639;;;;;;;;
1691.0;1572.3;;;;;;;;;;;;;3650;;;;;;;;
1691.0;1572.3;;;;;;;;;;;;;2813;;;;;;;;
1693.0;1573.8;;;;-0.044197086;0.7634698;0.12143327;;;;;;;;;;;;;;;
1693.0;1573.8;;;;-0.062221535;0.78211606;0.13103105;;;;;;;;;;;;;;;
1693.0;1573.8;;;;-0.08145905;0.799389;0.14028932;;;;;;;;;;;;;;;
1693.0;1573.8;;;;-0.103008285;0.8168565;0.15130617;;;;;;;;;;;;;;;
1693.0;1573.8;;;;-0.1260071;0.83438504;0.16318513;;;;;;;;;;;;;;;
1693.0;1584.0;;;;-0.15265657;0.852852;0.1760483;;;;;;;;;;;;;;;
1693.0;1584.0;;;;-0.17971422;0.87181866;0.18817905;;;;;;;;;;;;;;;
1693.0;1584.0;;;;-0.20804217;0.8895112;0.19940189;;;;;;;;;;;;;;;
1693.0;1584.0;;;;-0.24006274;0.90866864;0.2106171;;;;;;;;;;;;;;;
1693.0;1584.0;;;;-0.27434543;0.9285356;0.22024539;;;;;;;;;;;;;;;
1693.0;1586.3;262143;262143;13089;;;;;;;;;;;;;;;;;;
1693.0;1594.1;;;;-0.31260303;0.9512788;0.22714236;;;;;;;;;;;;;;;
1693.0;1594.1;;;;-0.3516617;0.97599804;0.22152713;;;;;;;;;;;;;;;
1693.0;1594.1;;;;-0.39087683;1.001175;0.21405795;;;;;;;;;;;;;;;
1693.0;1594.1;;;;-0.43732077;1.0263597;0.21411899;;;;;;;;;;;;;;;
1693.0;1594.1;;;;-0.4818383;1.0536958;0.22710422;;;;;;;;;;;;;;;
1693.0;1604.2;;;;-0.5221253;1.0755578;0.24967197;;;;;;;;;;;;;;;
1693.0;1604.2;;;;-0.5632134;1.095276;0.2705727;;;;;;;;;;;;;;;
1693.0;1604.2;;;;-0.59478384;1.1131326;0.27849963;;;;;;;;;;;;;;;
1693.0;1604.2;;;;-0.61663824;1.129181;0.28854373;;;;;;;;;;;;;;;
1693.0;1604.2;;;;-0.6283303;1.1453515;0.29409793;;;;;;;;;;;;;;;
1695.0;1604.5;;;;;;;;;;;;;;;;;34.508804;30.251472;-124.988556;;1504.1
1695.0;1604.5;;;;;;;;;;;;;;-1.8455763;-0.18140203;-0.4161504;;;;;1504.1
1695.0;1604.5;;;;;;;;;;;;;;;;;46.60558;22.480696;-124.988556;;1504.1
1695.0;1604.5;;;;;;;;;;;;;;-1.7932066;-0.089236125;-0.3754387;;;;;1504.1
1695.0;1604.5;;;;;;;;;;;;;;;;;57.210762;11.547441;-124.988556;;1513.6
1695.0;1604.5;;;;;;;;;;;;;;-1.7404706;-0.01147496;-0.3457747;;;;;1513.6
1695.0;1604.5;;;;;;;;;;;;;;;;;58.557392;5.42848;-124.988556;;1513.6
1695.0;1604.5;;;;;;;;;;;;;;-1.6815088;0.06225776;-0.3688467;;;;;1513.6
1695.0;1604.5;;;;;;;;;;;;;;;;;49.493393;8.2819605;-124.988556;;1523.3
1695.0;1604.5;;;;;;;;;;;;;;-1.6558123;0.11548204;-0.44563127;;;;;1523.3
1695.0;1604.5;;;;;;;;;;;;;;;;;42.35969;16.022219;-124.988556;;1523.3
1695.0;1604.5;;;;;;;;;;;;;;-1.6593524;0.16132084;-0.5218665;;;;;1523.3
1695.0;1606.5;262143;262143;13070;;;;;;;;;;;;;;;;;;
1695.0;1612.7;;;;;;;;;;;;;2605;;;;;;;;
1695.0;1612.7;;;;;;;;;;;;;3302;;;;;;;;
1695.0;1612.7;;;;;;;;;;;;;3547;;;;;;;;
1695.0;1612.7;;;;;;;;;;;;;-1651;;;;;;;;
1695.0;1612.7;;;;;;;;;;;;;-13808;;;;;;;;
1695.0;1614.2;;;;-0.6306115;1.1591302;0.30072024;;;;;;;;;;;;;;;
1695.0;1614.2;;;;-0.62432104;1.1724664;0.3091202;;;;;;;;;;;;;;;
1695.0;1614.2;;;;-0.6166497;1.1847497;0.31969836;;;;;;;;;;;;;;;
1695.0;1614.2;;;;-0.6113511;1.1954004;0.32830814;;;;;;;;;;;;;;;
1695.0;1614.2;;;;-0.59408575;1.2083894;0.34203342;;;;;;;;;;;;;;;
1748.0;1624.2;;;;-0.5824128;1.2249376;0.35432056;;;;;;;;;;;;;;;
1748.0;1624.2;;;;-0.5658112;1.2398721;0.36263278;;;;;;;;;;;;;;;
1748.0;1624.2;;;;-0.5477906;1.2550775;0.37765127;;;;;;;;;;;;;;;
1748.0;1624.2;;;;-0.5382119;1.272873;0.391697;;;;;;;;;;;;;;;
1748.0;1624.2;;;;-0.5260926;1.2946321;0.40645605;;;;;;;;;;;;;;;
1748.0;1626.6;262143;262143;13068;;;;;;;;;;;;;;;;;;
1748.0;1634.0;;;;-0.51982886;1.3158151;0.41358954;;;;;;;;;;;;;;;
1748.0;1634.0;;;;-0.51486593;1.3397981;0.4209023;;;;;;;;;;;;;;;
1748.0;1634.0;;;;-0.5154763;1.3656884;0.42958075;;;;;;;;;;;;;;;
1748.0;1634.0;;;;-0.5111504;1.3900949;0.4386788;;;;;;;;;;;;;;;
1748.0;1634.0;;;;-0.517006;1.4167367;0.45572287;;;;;;;;;;;;;;;
1748.0;1644.1;;;;-0.52880484;1.446808;0.47441107;;;;;;;;;;;;;;;
1748.0;1644.1;;;;-0.5423928;1.4790345;0.49294287;;;;;;;;;;;;;;;
1748.0;1644.1;;;;-0.5668412;1.511574;0.5101319;;;;;;;;;;;;;;;
1748.0;1644.1;;;;-0.5930634;1.5436366;0.52125555;;;;;;;;;;;;;;;
1748.0;1644.1;;;;-0.62058645;1.5703051;0.52706915;;;;;;;;;;;;;;;
1748.0;1646.6;262143;262143;13075;;;;;;;;;;;;;;;;;;
1748.0;1652.8;;;;;;;;;;;;;-24459;;;;;;;;
1748.0;1652.8;;;;;;;;;;;;;-23590;;;;;;;;
1748.0;1652.8;;;;;;;;;;;;;-11751;;;;;;;;
1748.0;1652.8;;;;;;;;;;;;;450;;;;;;;;
1748.0;1652.8;;;;;;;;;;;;;4910;;;;;;;;
1751.0;1654.2;;;;-0.64913565;1.5970576;0.53348166;;;;;;;;;;;;;;;
1751.0;1654.2;;;;-0.6732026;1.6199191;0.5389939;;;;;;;;;;;;;;;
1751.0;1654.2;;;;-0.69502646;1.6386721;0.5469933;;;;;;;;;;;;;;;
1751.0;1654.2;;;;-0.72347647;1.6616786;0.5581055;;;;;;;;;;;;;;;
1751.0;1654.2;;;;-0.74068457;1.6794627;0.5666657;;;;;;;;;;;;;;;
1751.0;1664.3;;;;-0.76394665;1.6947443;0.58162695;;;;;;;;;;;;;;;
1751.0;1664.3;;;;-0.79218686;1.7117503;0.5974389;;;;;;;;;;;;;;;
1751.0;1664.3;;;;-0.8186151;1.731766;0.6170731;;;;;;;;;;;;;;;
1751.0;1664.3;;;;-0.84552395;1.7448161;0.63433844;;;;;;;;;;;;;;;
1751.0;1664.3;;;;-0.86929333;1.7608263;0.65310675;;;;;;;;;;;;;;;
1751.0;1664.9;;;;;;;;;;;;;;;;;41.283913;22.869808;-124.774925;;1532.8
1751.0;1664.9;;;;;;;;;;;;;;-1.6846217;0.18012024;-0.52650535;;;;;1532.8
1751.0;1664.9;;;;;;;;;;;;;;;;;40.2501;21.988586;-124.93515;;1532.8
1751.0;1664.9;;;;;;;;;;;;;;-1.6852931;0.18323313;-0.5052034;;;;;1532.8
1751.0;1664.9;;;;;;;;;;;;;;;;;39.052246;18.185217;-124.988556;;1542.5
1751.0;1664.9;;;;;;;;;;;;;;-1.7017121;0.1727958;-0.43690297;;;;;1542.5
1751.0;1664.9;;;;;;;;;;;;;;;;;34.84832;13.016145;-124.988556;;1542.5
1751.0;1664.9;;;;;;;;;;;;;;-1.7524339;0.17242958;-0.33558154;;;;;1542.5
1751.0;1664.9;;;;;;;;;;;;;;;;;24.716179;4.8982205;-124.988556;;1552.1
1751.0;1664.9;;;;;;;;;;;;;;-1.7432783;0.13361004;-0.33436078;;;;;1552.1
1751.0;1664.9;;;;;;;;;;;;;;;;;19.36018;4.9058504;-124.988556;;1552.1
1751.0;1664.9;;;;;;;;;;;;;;-1.7006744;0.11493271;-0.32667014;;;;;1552.1
1751.0;1666.9;262143;262143;13074;;;;;;;;;;;;;;;;;;
1754.0;1672.1;;;;;;;;;;;;;;;;;16.777552;13.412886;-124.988556;;1561.7
1754.0;1672.1;;;;;;;;;;;;;;-1.6802881;0.07061983;-0.33606982;;;;;1561.7
1754.0;1672.1;;;;;;;;;;;;;;;;;12.073886;25.540176;-124.988556;;1561.7
1754.0;1672.1;;;;;;;;;;;;;;-1.6548967;-8.5451826E-4;-0.40705588;;;;;1561.7
1754.0;1672.1;;;;;;;;;;;;;;;;;9.640035;39.677876;-124.988556;;1571.4
1754.0;1672.1;;;;;;;;;;;;;;-1.5758537;-0.08130131;-0.49824518;;;;;1571.4
1754.0;1672.1;;;;;;;;;;;;;;;;;12.4134035;51.56102;-124.988556;;1571.4
1754.0;1672.1;;;;;;;;;;;;;;-1.464095;-0.14044619;-0.5926084;;;;;1571.4
1754.0;1672.1;;;;;;;;;;;;;;;;;18.250069;62.303535;-124.988556;;1581.0
1754.0;1672.1;;;;;;;;;;;;;;-1.3765068;-0.21985534;-0.6538896;;;;;1581.0
1754.0;1672.1;;;;;;;;;;;;;;;;;26.676992;70.17731;-124.988556;;1581.0
1754.0;1672.1;;;;;;;;;;;;;;-1.3019806;-0.30933562;-0.6668294;;;;;1581.0
1754.0;1674.3;;;;-0.8978578;1.7788432;0.67236716;;;;;;;;;;;;;;;
1754.0;1674.3;;;;-0.9260255;1.7934191;0.686451;;;;;;;;;;;;;;;
1754.0;1674.3;;;;-0.9580804;1.8059008;0.7051888;;;;;;;;;;;;;;;
1754.0;1674.3;;;;-0.9873773;1.8171885;0.7158242;;;;;;;;;;;;;;;
1754.0;1674.3;;;;-1.014721;1.8274806;0.72868735;;;;;;;;;;;;;;;
1807.0;1679.8;;;;;;;;;;;;;;;;;37.69036;72.0275;-124.988556;;1590.6
1807.0;1679.8;;;;;;;;;;;;;;-1.2280648;-0.40485856;-0.62190616;;;;;1590.6
1807.0;1679.8;;;;;;;;;;;;;;;;;42.878506;65.87421;-124.988556;;1590.6
1807.0;1679.8;;;;;;;;;;;;;;-1.152501;-0.47029024;-0.553911;;;;;1590.6
1807.0;1679.8;;;;;;;;;;;;;;;;;42.321545;57.660908;-124.988556;;1600.3
1807.0;1679.8;;;;;;;;;;;;;;-1.1019013;-0.5337687;-0.512772;;;;;1600.3
1807.0;1679.8;;;;;;;;;;;;;;;;;42.741173;52.55669;-124.988556;;1600.3
1807.0;1679.8;;;;;;;;;;;;;;-1.0840175;-0.5381634;-0.47004607;;;;;1600.3
1807.0;1679.8;;;;;;;;;;;;;;;;;42.695396;48.13532;-123.40922;;1609.9
1807.0;1679.8;;;;;;;;;;;;;;-1.0942717;-0.5098422;-0.44312876;;;;;1609.9
1807.0;1679.8;;;;;;;;;;;;;;;;;43.252357;46.483505;-120.45655;;1609.9
1807.0;1679.8;;;;;;;;;;;;;;-1.1047701;-0.48713645;-0.43134862;;;;;1609.9
1807.0;1684.2;;;;-1.0392953;1.8349612;0.73764426;;;;;;;;;;;;;;;
1807.0;1684.2;;;;-1.0611993;1.839268;0.74125296;;;;;;;;;;;;;;;
1807.0;1684.2;;;;-1.0727655;1.838177;0.7430077;;;;;;;;;;;;;;;
1807.0;1684.2;;;;-1.0838815;1.8341982;0.74003226;;;;;;;;;;;;;;;
1807.0;1684.2;;;;-1.0874978;1.829201;0.7316819;;;;;;;;;;;;;;;
1807.0;1686.8;262143;262143;13086;;;;;;;;;;;;;;;;;;
1807.0;1692.7;;;;;;;;;;;;;3480;;;;;;;;
1807.0;1692.7;;;;;;;;;;;;;1989;;;;;;;;
1807.0;1692.7;;;;;;;;;;;;;2037;;;;;;;;
1807.0;1692.7;;;;;;;;;;;;;1948;;;;;;;;
1807.0;1692.7;;;;;;;;;;;;;1744;;;;;;;;
1809.0;1694.0;;;;-1.0857545;1.8237917;0.7240601;;;;;;;;;;;;;;;
1809.0;1694.0;;;;-1.088566;1.8150942;0.7122765;;;;;;;;;;;;;;;
1809.0;1694.0;;;;-1.0781442;1.8067439;0.7016793;;;;;;;;;;;;;;;
1809.0;1694.0;;;;-1.0727807;1.7990611;0.69058233;;;;;;;;;;;;;;;
1809.0;1694.0;;;;-1.0659829;1.7879488;0.6731835;;;;;;;;;;;;;;;
1809.0;1704.2;;;;-1.0517045;1.7758906;0.6578141;;;;;;;;;;;;;;;
1809.0;1704.2;;;;-1.0377465;1.7646716;0.64121634;;;;;;;;;;;;;;;
1809.0;1704.2;;;;-1.0151178;1.7551692;0.6265488;;;;;;;;;;;;;;;
1809.0;1704.2;;;;-0.9968835;1.748009;0.61404425;;;;;;;;;;;;;;;
1809.0;1704.2;;;;-0.98431027;1.7405818;0.5978165;;;;;;;;;;;;;;;
1809.0;1706.8;262143;262143;13120;;;;;;;;;;;;;;;;;;
1809.0;1714.3;;;;-0.97415555;1.733536;0.58593756;;;;;;;;;;;;;;;
1809.0;1714.3;;;;-0.96087277;1.7229769;0.5734139;;;;;;;;;;;;;;;
1809.0;1714.3;;;;-0.94079983;1.7099955;0.5630036;;;;;;;;;;;;;;;
1809.0;1714.3;;;;-0.91793835;1.6993334;0.5573006;;;;;;;;;;;;;;;
1809.0;1714.3;;;;-0.8918382;1.6902544;0.5504189;;;;;;;;;;;;;;;
1809.0;1724.4;;;;-0.8725053;1.6848452;0.5454865;;;;;;;;;;;;;;;
1809.0;1724.4;;;;-0.85782635;1.679188;0.5380669;;;;;;;;;;;;;;;
1809.0;1724.4;;;;-0.84832394;1.6774714;0.5303307;;;;;;;;;;;;;;;
1809.0;1724.4;;;;-0.84534466;1.674988;0.52081305;;;;;;;;;;;;;;;
1809.0;1724.4;;;;-0.8434335;1.6763308;0.51110846;;;;;;;;;;;;;;;
1811.0;1724.9;;;;;;;;;;;;;;;;;45.400097;47.608875;-120.15137;;1619.5
1811.0;1724.9;;;;;;;;;;;;;;-1.0832239;-0.46284372;-0.40107426;;;;;1619.5
1811.0;1724.9;;;;;;;;;;;;;;;;;45.80828;48.76858;-118.3546;;1619.5
1811.0;1724.9;;;;;;;;;;;;;;-1.0628986;-0.43415633;-0.34968108;;;;;1619.5
1811.0;1724.9;;;;;;;;;;;;;;;;;45.144505;48.24595;-114.535965;;1629.0
1811.0;1724.9;;;;;;;;;;;;;;-1.0715048;-0.39942625;-0.2719199;;;;;1629.0
1811.0;1724.9;;;;;;;;;;;;;;;;;43.073063;46.296577;-109.527115;;1629.0
1811.0;1724.9;;;;;;;;;;;;;;-1.0918913;-0.36030152;-0.19580676;;;;;1629.0
1811.0;1724.9;;;;;;;;;;;;;;;;;40.63921;44.324318;-104.66323;;1638.6
1811.0;1724.9;;;;;;;;;;;;;;-1.1055025;-0.3335063;-0.12567522;;;;;1638.6
1811.0;1724.9;;;;;;;;;;;;;;;;;37.648396;41.5891;-102.0043;;1638.6
1811.0;1724.9;;;;;;;;;;;;;;-1.1083102;-0.31427962;-0.09698782;;;;;1638.6
1811.0;1727.0;262143;262143;13128;;;;;;;;;;;;;;;;;;
1817.0;1732.3;;;;;;;;;;;;;;;;;36.709953;38.014618;-100.40589;;1648.3
1817.0;1732.3;;;;;;;;;;;;;;-1.0857265;-0.2793054;-0.102725305;;;;;1648.3
1817.0;1732.3;;;;;;;;;;;;;;;;;36.412395;35.832546;-98.73882;;1648.3
1817.0;1732.3;;;;;;;;;;;;;;-1.0545976;-0.27259132;-0.16162603;;;;;1648.3
1817.0;1732.3;;;;;;;;;;;;;;;;;42.474136;34.55458;-99.29197;;1657.9
1817.0;1732.3;;;;;;;;;;;;;;-1.015656;-0.2567217;-0.22925505;;;;;1657.9
1817.0;1732.3;;;;;;;;;;;;;;;;;54.277172;32.403027;-98.48323;;1657.9
1817.0;1732.3;;;;;;;;;;;;;;-0.9267861;-0.24671163;-0.28620258;;;;;1657.9
1817.0;1732.3;;;;;;;;;;;;;;;;;66.26713;33.242287;-95.591606;;1667.5
1817.0;1732.3;;;;;;;;;;;;;;-0.88381606;-0.22022156;-0.30793175;;;;;1667.5
1817.0;1732.3;;;;;;;;;;;;;;;;;74.900055;36.507767;-92.2956;;1667.5
1817.0;1732.3;;;;;;;;;;;;;;-0.86452836;-0.22278512;-0.30738243;;;;;1667.5
1817.0;1732.9;;;;;;;;;;;;;1729;;;;;;;;
1817.0;1732.9;;;;;;;;;;;;;1234;;;;;;;;
1817.0;1732.9;;;;;;;;;;;;;593;;;;;;;;
1817.0;1732.9;;;;;;;;;;;;;390;;;;;;;;
1817.0;1732.9;;;;;;;;;;;;;493;;;;;;;;
1817.0;1734.2;;;;-0.844658;1.6775668;0.50103;;;;;;;;;;;;;;;
1817.0;1734.2;;;;-0.8493043;1.678654;0.4892922;;;;;;;;;;;;;;;
1817.0;1734.2;;;;-0.8569871;1.6754763;0.4770127;;;;;;;;;;;;;;;
1817.0;1734.2;;;;-0.8654367;1.671715;0.46699148;;;;;;;;;;;;;;;
1817.0;1734.2;;;;-0.87755597;1.6686709;0.4592896;;;;;;;;;;;;;;;
1817.0;1743.9;;;;;;;;;;2.2164068;19.405958;-0.56840724;;;;;;;;;
1817.0;1743.9;;;;;;;0.39411604;-1.7822199;0.2700278;;;;;;;;;;;;
1817.0;1743.9;;;;;;;;;;6.14948;31.643879;8.114109;;;;;;;;;
1817.0;1743.9;;;;;;;0.44282356;-1.9998169;0.28925443;;;;;;;;;;;;
1868.0;1744.3;;;;-0.88936627;1.664078;0.45394903;;;;;;;;;;;;;;;
1868.0;1744.3;;;;-0.9015962;1.6559298;0.44978338;;;;;;;;;;;;;;;
1868.0;1744.3;;;;-0.9117662;1.6484149;0.44782263;;;;;;;;;;;;;;;
1868.0;1744.3;;;;-0.92222226;1.6414645;0.4470139;;;;;;;;;;;;;;;
1868.0;1744.3;;;;-0.92884076;1.6334765;0.44934088;;;;;;;;;;;;;;;
1868.0;1747.0;262143;262143;13121;;;;;;;;;;;;;;;;;;
1868.0;1753.2;;;;;;;;;;2.5254066;8.537553;-22.587511;;;;;;;;;
1868.0;1753.2;;;;;;;0.43714714;-1.9998169;0.27332377;;;;;;;;;;;;
1868.0;1753.2;;;;;;;;;;10.853146;29.225288;-74.58342;;;;;;;;;
1868.0;1753.2;;;;;;;0.4334849;-1.9998169;0.25971252;;;;;;;;;;;;
1868.0;1754.0;;;;-0.9339067;1.6241534;0.45215994;;;;;;;;;;;;;;;
1868.0;1754.0;;;;-0.93810666;1.6136973;0.45465094;;;;;;;;;;;;;;;
1868.0;1754.0;;;;-0.943493;1.5988314;0.45899588;;;;;;;;;;;;;;;
1868.0;1754.0;;;;-0.9517442;1.5854647;0.4648896;;;;;;;;;;;;;;;
1868.0;1754.0;;;;-0.95554745;1.5727503;0.4701348;;;;;;;;;;;;;;;
1868.0;1762.8;;;;;;;;;;14.839625;39.857174;-114.47493;;;;;;;;;
1868.0;1762.8;;;;;;;0.4288461;-1.9998169;0.25019073;;;;;;;;;;;;
1868.0;1762.8;;;;;;;;;;12.756737;13.134403;-124.80544;;;;;;;;;
1868.0;1762.8;;;;;;;0.4268929;-1.9998169;0.2484817;;;;;;;;;;;;
1871.0;1764.1;;;;-0.9571687;1.5580981;0.4739495;;;;;;;;;;;;;;;
1871.0;1764.1;;;;-0.9630395;1.5442965;0.47638327;;;;;;;;;;;;;;;
1871.0;1764.1;;;;-0.97376645;1.5286219;0.47904974;;;;;;;;;;;;;;;
1871.0;1764.1;;;;-0.97714627;1.513756;0.4807282;;;;;;;;;;;;;;;
1871.0;1764.1;;;;-0.99269116;1.4983865;0.4816857;;;;;;;;;;;;;;;
1871.0;1766.9;262143;262143;13106;;;;;;;;;;;;;;;;;;
1871.0;1772.4;;;;;;;;;;14.210181;20.062105;-124.881744;;;;;;;;;
1871.0;1772.4;;;;;;;0.39399394;-1.9998169;0.27497178;;;;;;;;;;;;
1871.0;1772.4;;;;;;;;;;14.828181;28.420362;-124.881744;;;;;;;;;
1871.0;1772.4;;;;;;;0.3552965;-1.9998169;0.32605976;;;;;;;;;;;;
1871.0;1773.1;;;;;;;;;;;;;478;;;;;;;;
1871.0;1773.1;;;;;;;;;;;;;245;;;;;;;;
1871.0;1773.1;;;;;;;;;;;;;-62;;;;;;;;
1871.0;1773.1;;;;;;;;;;;;;-557;;;;;;;;
1871.0;1773.1;;;;;;;;;;;;;-1350;;;;;;;;
1871.0;1774.2;;;;-1.0023614;1.4838182;0.48309714;;;;;;;;;;;;;;;
1871.0;1774.2;;;;-1.004078;1.4698793;0.48416525;;;;;;;;;;;;;;;
1871.0;1774.2;;;;-1.0037729;1.4541665;0.4831925;;;;;;;;;;;;;;;
1871.0;1774.2;;;;-1.0142709;1.4357797;0.48176962;;;;;;;;;;;;;;;
1871.0;1774.2;;;;-1.0178987;1.4161454;0.48016745;;;;;;;;;;;;;;;
1871.0;1782.0;;;;;;;;;;15.625477;43.877987;-124.881744;;;;;;;;;
1871.0;1782.0;;;;;;;0.34174627;-1.9998169;0.37244788;;;;;;;;;;;;
1871.0;1782.0;;;;;;;;;;16.422773;53.861355;-124.881744;;;;;;;;;
1871.0;1782.0;;;;;;;0.32685325;-1.9998169;0.41029084;;;;;;;;;;;;
1873.0;1784.3;;;;-1.0219918;1.3979913;0.47801977;;;;;;;;;;;;;;;
1873.0;1784.3;;;;-1.0276529;1.3807908;0.47402197;;;;;;;;;;;;;;;
1873.0;1784.3;;;;-1.036419;1.364792;0.46918494;;;;;;;;;;;;;;;
1873.0;1784.3;;;;-1.0425912;1.347149;0.4636231;;;;;;;;;;;;;;;
1873.0;1784.3;;;;-1.034218;1.3261148;0.4574166;;;;;;;;;;;;;;;
1873.0;1785.4;;;;;;;;;;;;;;;;;81.05716;38.579212;-89.89608;;1677.1
1873.0;1785.4;;;;;;;;;;;;;;-0.83693963;-0.21613209;-0.31171605;;;;;1677.1
1873.0;1785.4;;;;;;;;;;;;;;;;;84.85672;39.136173;-86.25675;;1677.1
1873.0;1785.4;;;;;;;;;;;;;;-0.8163091;-0.20374157;-0.30988494;;;;;1677.1
1873.0;1785.4;;;;;;;;;;;;;;;;;87.740715;37.59499;-82.17872;;1686.7
1873.0;1785.4;;;;;;;;;;;;;;-0.7932371;-0.18280587;-0.30164495;;;;;1686.7
1873.0;1785.4;;;;;;;;;;;;;;;;;89.05682;36.00421;-77.36061;;1686.7
1873.0;1785.4;;;;;;;;;;;;;;-0.7594226;-0.15527818;-0.2842494;;;;;1686.7
1873.0;1785.4;;;;;;;;;;;;;;;;;88.59523;35.74862;-71.72994;;1696.3
1873.0;1785.4;;;;;;;;;;;;;;-0.7423322;-0.12604144;-0.25782037;;;;;1696.3
1873.0;1785.4;;;;;;;;;;;;;;;;;87.32109;36.614582;-66.618095;;1696.3
1873.0;1785.4;;;;;;;;;;;;;;-0.72872096;-0.095706046;-0.21478927;;;;;1696.3
1873.0;1787.1;262143;262143;13103;;;;;;;;;;;;;;;;;;
1873.0;1791.5;;;;;;;;;;17.738884;53.891872;-124.881744;;;;;;;;;
1873.0;1791.5;;;;;;;0.31397444;-1.9998169;0.4365978;;;;;;;;;;;;
1873.0;1791.5;;;;;;;;;;18.82229;55.124058;-124.881744;;;;;;;;;
1873.0;1791.5;;;;;;;0.30182806;-1.9998169;0.46076846;;;;;;;;;;;;
1874.0;1792.5;;;;;;;;;;;;;;;;;86.75649;36.938843;-61.937313;;1706.0
1874.0;1792.5;;;;;;;;;;;;;;-0.7010712;-0.06939909;-0.16461684;;;;;1706.0
1874.0;1792.5;;;;;;;;;;;;;;;;;87.225716;36.172062;-56.855984;;1706.0
1874.0;1792.5;;;;;;;;;;;;;;-0.6772668;-0.032105472;-0.122196116;;;;;1706.0
1874.0;1792.5;;;;;;;;;;;;;;;;;86.85568;36.194954;-51.931057;;1715.7
1874.0;1792.5;;;;;;;;;;;;;;-0.6418653;-0.006286813;-0.11481063;;;;;1715.7
1874.0;1792.5;;;;;;;;;;;;;;;;;85.93631;38.056583;-47.276985;;1715.7
1874.0;1792.5;;;;;;;;;;;;;;-0.6082949;-0.0017700735;-0.12933744;;;;;1715.7
1874.0;1792.5;;;;;;;;;;;;;;;;;83.62072;40.555283;-42.115543;;1725.3
1874.0;1792.5;;;;;;;;;;;;;;-0.59218115;-0.008972442;-0.14496292;;;;;1725.3
1874.0;1792.5;;;;;;;;;;;;;;;;;80.95035;40.929134;-37.03421;;1725.3
1874.0;1792.5;;;;;;;;;;;;;;-0.5644093;-0.010986663;-0.16034424;;;;;1725.3
1874.0;1794.2;;;;-1.0318567;1.3081819;0.45324713;;;;;;;;;;;;;;;
1874.0;1794.2;;;;-1.0366098;1.291916;0.44762045;;;;;;;;;;;;;;;
1874.0;1794.2;;;;-1.0384942;1.277054;0.44219214;;;;;;;;;;;;;;;
1874.0;1794.2;;;;-1.0376703;1.2639924;0.43745428;;;;;;;;;;;;;;;
1874.0;1794.2;;;;-1.0258485;1.2516366;0.43434912;;;;;;;;;;;;;;;
1874.0;1800.9;;;;;;;;;;20.138401;59.53017;-124.881744;;;;;;;;;
1874.0;1800.9;;;;;;;0.29132968;-1.9998169;0.48402357;;;;;;;;;;;;
1874.0;1800.9;;;;;;;;;;22.3014;67.91131;-124.881744;;;;;;;;;
1874.0;1800.9;;;;;;;0.29145175;-1.9998169;0.499588;;;;;;;;;;;;
1934.0;1804.2;;;;-1.0109864;1.239235;0.42888647;;;;;;;;;;;;;;;
1934.0;1804.2;;;;-1.0022088;1.2283441;0.42389685;;;;;;;;;;;;;;;
1934.0;1804.2;;;;-0.9942666;1.2144777;0.4194985;;;;;;;;;;;;;;;
1934.0;1804.2;;;;-0.984337;1.1960145;0.4205323;;;;;;;;;;;;;;;
1934.0;1804.2;;;;-0.973076;1.1744844;0.41600806;;;;;;;;;;;;;;;
1934.0;1807.1;262143;262143;13107;;;;;;;;;;;;;;;;;;
1934.0;1810.4;;;;;;;;;;25.437178;78.68434;-124.881744;;;;;;;;;
1934.0;1810.4;;;;;;;0.29657888;-1.9998169;0.5103305;;;;;;;;;;;;
1934.0;1810.4;;;;;;;;;;29.374065;89.06445;-124.881744;;;;;;;;;
1934.0;1810.4;;;;;;;0.2954192;-1.9998169;0.5149083;;;;;;;;;;;;
1934.0;1813.1;;;;;;;;;;;;;-2261;;;;;;;;
1934.0;1813.1;;;;;;;;;;;;;-3045;;;;;;;;
1934.0;1813.1;;;;;;;;;;;;;-3696;;;;;;;;
1934.0;1813.1;;;;;;;;;;;;;-4452;;;;;;;;
1934.0;1813.1;;;;;;;;;;;;;-5254;;;;;;;;
1934.0;1814.1;;;;-0.96268857;1.1571618;0.41536337;;;;;;;;;;;;;;;
1934.0;1814.1;;;;-0.9566995;1.1404687;0.40848547;;;;;;;;;;;;;;;
1934.0;1814.1;;;;-0.9532968;1.1245118;0.40045172;;;;;;;;;;;;;;;
1934.0;1814.1;;;;-0.95474255;1.1113626;0.39121252;;;;;;;;;;;;;;;
1934.0;1814.1;;;;-0.9536592;1.0982972;0.38166815;;;;;;;;;;;;;;;
1934.0;1819.9;;;;;;;;;;33.87936;97.15949;-124.881744;;;;;;;;;
1934.0;1819.9;;;;;;;0.29047516;-1.9998169;0.512711;;;;;;;;;;;;
1934.0;1819.9;;;;;;;;;;38.41136;104.09482;-124.881744;;;;;;;;;
1934.0;1819.9;;;;;;;0.27991578;-1.9998169;0.5105136;;;;;;;;;;;;
1935.0;1824.1;;;;-0.9554063;1.0857888;0.37337497;;;;;;;;;;;;;;;
1935.0;1824.1;;;;-0.95279324;1.0731355;0.36300662;;;;;;;;;;;;;;;
1935.0;1824.1;;;;-0.9470407;1.0592042;0.35709766;;;;;;;;;;;;;;;
1935.0;1824.1;;;;-0.9366838;1.0430108;0.3502312;;;;;;;;;;;;;;;
1935.0;1824.1;;;;-0.9338113;1.0276872;0.34455875;;;;;;;;;;;;;;;
1935.0;1827.1;262143;262143;13095;;;;;;;;;;;;;;;;;;
1935.0;1829.5;;;;;;;;;;42.634357;110.44648;-124.881744;;;;;;;;;
1935.0;1829.5;;;;;;;0.27149266;-1.9998169;0.49623096;;;;;;;;;;;;
1935.0;1829.5;;;;;;;;;;46.212654;114.96704;-124.881744;;;;;;;;;
1935.0;1829.5;;;;;;;0.25818658;-1.9998169;0.47077852;;;;;;;;;;;;
1935.0;1834.3;;;;-0.92598355;1.0131952;0.33817294;;;;;;;;;;;;;;;
1935.0;1834.3;;;;-0.9175302;0.9986154;0.3342972;;;;;;;;;;;;;;;
1935.0;1834.3;;;;-0.9081193;0.98318875;0.33039096;;;;;;;;;;;;;;;
1935.0;1834.3;;;;-0.89816296;0.96647656;0.32571033;;;;;;;;;;;;;;;
1935.0;1834.3;;;;-0.890175;0.9502336;0.3250275;;;;;;;;;;;;;;;
1935.0;1839.2;;;;;;;;;;49.295025;117.21015;-124.881744;;;;;;;;;
1935.0;1839.2;;;;;;;0.23847163;-1.9998169;0.45271158;;;;;;;;;;;;
1935.0;1839.2;;;;;;;;;;52.388836;117.98456;-124.881744;;;;;;;;;
1935.0;1839.2;;;;;;;0.20783105;-1.9998169;0.43482772;;;;;;;;;;;;
1937.0;1844.4;;;;-0.8824464;0.9357835;0.32717898;;;;;;;;;;;;;;;
1937.0;1844.4;;;;-0.87207043;0.923813;0.32883075;;;;;;;;;;;;;;;
1937.0;1844.4;;;;-0.8605386;0.9121324;0.33348086;;;;;;;;;;;;;;;
1937.0;1844.4;;;;-0.84622204;0.89958584;0.33916476;;;;;;;;;;;;;;;
1937.0;1844.4;;;;-0.8356019;0.88630307;0.34296802;;;;;;;;;;;;;;;
1937.0;1845.2;;;;;;;;;;;;;;;;;77.54754;38.75851;-32.34962;;1734.8
1937.0;1845.2;;;;;;;;;;;;;;-0.5317545;0.0018921476;-0.18079165;;;;;1734.8
1937.0;1845.2;;;;;;;;;;;;;;;;;71.65364;36.942657;-27.233955;;1734.8
1937.0;1845.2;;;;;;;;;;;;;;-0.5022736;0.020386364;-0.19830927;;;;;1734.8
1937.0;1845.2;;;;;;;;;;;;;;;;;64.889984;34.016693;-22.011477;;1744.5
1937.0;1845.2;;;;;;;;;;;;;;-0.46833706;0.042664878;-0.21167639;;;;;1744.5
1937.0;1845.2;;;;;;;;;;;;;;;;;56.882687;31.064028;-16.598255;;1744.5
1937.0;1845.2;;;;;;;;;;;;;;-0.41828668;0.08709983;-0.22083193;;;;;1744.5
1937.0;1845.2;;;;;;;;;;;;;;;;;47.917877;29.049807;-10.219886;;1754.2
1937.0;1845.2;;;;;;;;;;;;;;-0.37372968;0.13788262;-0.22766808;;;;;1754.2
1937.0;1845.2;;;;;;;;;;;;;;;;;39.845726;25.406658;-3.357036;;1754.2
1937.0;1845.2;;;;;;;;;;;;;;-0.32831812;0.21601;-0.22235785;;;;;1754.2
1937.0;1847.3;262143;262143;13077;;;;;;;;;;;;;;;;;;
1937.0;1848.7;;;;;;;;;;55.98239;117.42378;-124.881744;;;;;;;;;
1937.0;1848.7;;;;;;;0.19104587;-1.9998169;0.4080935;;;;;;;;;;;;
1937.0;1848.7;;;;;;;;;;59.400467;115.54689;-124.881744;;;;;;;;;
1937.0;1848.7;;;;;;;0.19513535;-1.9998169;0.38612017;;;;;;;;;;;;
1938.0;1852.7;;;;;;;;;;;;;;;;;34.39436;18.787958;4.272591;;1763.9
1938.0;1852.7;;;;;;;;;;;;;;-0.28907132;0.29639578;-0.18842128;;;;;1763.9
1938.0;1852.7;;;;;;;;;;;;;;;;;27.764214;14.084292;12.260812;;1763.9
1938.0;1852.7;;;;;;;;;;;;;;-0.24378185;0.38612017;-0.15527818;;;;;1763.9
1938.0;1852.7;;;;;;;;;;;;;;;;;19.74929;12.989441;22.51503;;1773.6
1938.0;1852.7;;;;;;;;;;;;;;-0.19434187;0.47437972;-0.13672292;;;;;1773.6
1938.0;1852.7;;;;;;;;;;;;;;;;;11.425366;12.371441;33.02866;;1773.6
1938.0;1852.7;;;;;;;;;;;;;;-0.1480758;0.54200876;-0.1439253;;;;;1773.6
1938.0;1852.7;;;;;;;;;;;;;;;;;3.7728508;14.831996;42.56188;;1783.1
1938.0;1852.7;;;;;;;;;;;;;;-0.120365;0.54701376;-0.16162603;;;;;1783.1
1938.0;1852.7;;;;;;;;;;;;;;;;;-3.2197027;23.518326;50.19913;;1783.1
1938.0;1852.7;;;;;;;;;;;;;;-0.10376293;0.52266;-0.17493209;;;;;1783.1
1938.0;1853.3;;;;;;;;;;;;;-5613;;;;;;;;
1938.0;1853.3;;;;;;;;;;;;;-5319;;;;;;;;
1938.0;1853.3;;;;;;;;;;;;;-4741;;;;;;;;
1938.0;1853.3;;;;;;;;;;;;;-4246;;;;;;;;
1938.0;1853.3;;;;;;;;;;;;;-3786;;;;;;;;
1938.0;1854.2;;;;-0.83386624;0.874447;0.34709552;;;;;;;;;;;;;;;
1938.0;1854.2;;;;-0.83103955;0.85909665;0.34992984;;;;;;;;;;;;;;;
1938.0;1854.2;;;;-0.8281442;0.8422662;0.35431293;;;;;;;;;;;;;;;
1938.0;1854.2;;;;-0.8185159;0.8238641;0.35915378;;;;;;;;;;;;;;;
1938.0;1854.2;;;;-0.81032574;0.80513394;0.36321262;;;;;;;;;;;;;;;
1938.0;1858.2;;;;;;;;;;62.35313;111.35059;-124.881744;;;;;;;;;
1938.0;1858.2;;;;;;;0.2029481;-1.9998169;0.36280406;;;;;;;;;;;;
1938.0;1858.2;;;;;;;;;;64.49324;104.731895;-124.881744;;;;;;;;;
1938.0;1858.2;;;;;;;0.20184942;-1.9998169;0.32660908;;;;;;;;;;;;
1992.0;1864.2;;;;-0.80430233;0.790043;0.36997607;;;;;;;;;;;;;;;
1992.0;1864.2;;;;-0.804783;0.775242;0.37253955;;;;;;;;;;;;;;;
1992.0;1864.2;;;;-0.8088075;0.76174176;0.37675482;;;;;;;;;;;;;;;
1992.0;1864.2;;;;-0.7970544;0.7483025;0.3800164;;;;;;;;;;;;;;;
1992.0;1864.2;;;;-0.79024136;0.7335816;0.3851319;;;;;;;;;;;;;;;
1992.0;1867.7;;;;;;;;;;64.874725;96.47664;-124.881744;;;;;;;;;
1992.0;1867.7;;;;;;;0.19592883;-1.9998169;0.28931546;;;;;;;;;;;;
1992.0;1867.7;;;;;;;;;;64.24528;87.02734;-124.881744;;;;;;;;;
1992.0;1867.7;;;;;;;0.1826838;-1.9998169;0.2511063;;;;;;;;;;;;
1992.0;1867.3;262143;262143;13069;;;;;;;;;;;;;;;;;;
1992.0;1874.3;;;;-0.77822125;0.72102743;0.38912207;;;;;;;;;;;;;;;
1992.0;1874.3;;;;-0.77006924;0.7093163;0.39324576;;;;;;;;;;;;;;;
1992.0;1874.3;;;;-0.7662469;0.69888693;0.39462668;;;;;;;;;;;;;;;
1992.0;1874.3;;;;-0.76397336;0.68614966;0.39688116;;;;;;;;;;;;;;;
1992.0;1874.3;;;;-0.74991614;0.67355734;0.39888006;;;;;;;;;;;;;;;
1992.0;1877.1;;;;;;;;;;63.955353;77.93283;-124.881744;;;;;;;;;
1992.0;1877.1;;;;;;;0.15948974;-1.9998169;0.22168645;;;;;;;;;;;;
1992.0;1877.1;;;;;;;;;;63.92102;69.58983;-124.881744;;;;;;;;;
1992.0;1877.1;;;;;;;0.1408124;-1.9998169;0.18982513;;;;;;;;;;;;
1993.0;1884.3;;;;-0.74231726;0.6597672;0.3989945;;;;;;;;;;;;;;;
1993.0;1884.3;;;;-0.73837286;0.6491509;0.40022665;;;;;;;;;;;;;;;
1993.0;1884.3;;;;-0.73240286;0.63719946;0.40113837;;;;;;;;;;;;;;;
1993.0;1884.3;;;;-0.728756;0.62520605;0.39876944;;;;;;;;;;;;;;;
1993.0;1884.3;;;;-0.7264405;0.612999;0.39942175;;;;;;;;;;;;;;;
1993.0;1886.8;;;;;;;;;;63.35643;62.31498;-124.881744;;;;;;;;;
1993.0;1886.8;;;;;;;0.12439345;-1.9979247;0.16675314;;;;;;;;;;;;
1993.0;1886.8;;;;;;;;;;62.13187;55.64287;-124.881744;;;;;;;;;
1993.0;1886.8;;;;;;;0.100833155;-1.9613636;0.1408124;;;;;;;;;;;;
1993.0;1887.4;262143;262143;13063;;;;;;;;;;;;;;;;;;
1993.0;1893.5;;;;;;;;;;;;;-3282;;;;;;;;
1993.0;1893.5;;;;;;;;;;;;;-2775;;;;;;;;
1993.0;1893.5;;;;;;;;;;;;;-2210;;;;;;;;
1993.0;1893.5;;;;;;;;;;;;;-1576;;;;;;;;
1993.0;1893.5;;;;;;;;;;;;;-1093;;;;;;;;
1993.0;1894.4;;;;-0.7113953;0.6026574;0.3987351;;;;;;;;;;;;;;;
1993.0;1894.4;;;;-0.700203;0.59048086;0.397564;;;;;;;;;;;;;;;
1993.0;1894.4;;;;-0.69980246;0.5785218;0.39186102;;;;;;;;;;;;;;;
1993.0;1894.4;;;;-0.6916657;0.57067496;0.38997656;;;;;;;;;;;;;;;
1993.0;1894.4;;;;-0.6759415;0.5647927;0.38777548;;;;;;;;;;;;;;;
1993.0;1896.4;;;;;;;;;;60.19013;49.115726;-124.881744;;;;;;;;;
1993.0;1896.4;;;;;;;0.07507554;-1.9095432;0.11859493;;;;;;;;;;;;
1993.0;1896.4;;;;;;;;;;57.706688;43.6491;-124.881744;;;;;;;;;
1993.0;1896.4;;;;;;;0.056642354;-1.8585773;0.10711997;;;;;;;;;;;;
1995.0;1904.5;;;;-0.67070395;0.5562821;0.38413244;;;;;;;;;;;;;;;
1995.0;1904.5;;;;-0.6631661;0.5491753;0.3803864;;;;;;;;;;;;;;;
1995.0;1904.5;;;;-0.6517983;0.54373175;0.37795645;;;;;;;;;;;;;;;
1995.0;1904.5;;;;-0.64059836;0.54126364;0.3777352;;;;;;;;;;;;;;;
1995.0;1904.5;;;;-0.63870245;0.54010016;0.3749428;;;;;;;;;;;;;;;
1995.0;1905.5;;;;;;;;;;;;;;;;;-7.740257;34.142582;58.305614;;1792.8
1995.0;1905.5;;;;;;;;;;;;;;-0.09466842;0.46308786;-0.18774988;;;;;1792.8
1995.0;1905.5;;;;;;;;;;;;;;;;;-7.7898498;40.375988;65.42787;;1792.8
1995.0;1905.5;;;;;;;;;;;;;;-0.07196265;0.4104129;-0.18164617;;;;;1792.8
1995.0;1905.5;;;;;;;;;;;;;;;;;-5.771813;43.160805;72.836235;;1802.4
1995.0;1905.5;;;;;;;;;;;;;;-0.059450056;0.3487045;-0.15112767;;;;;1802.4
1995.0;1905.5;;;;;;;;;;;;;;;;;-2.9450362;41.66921;78.188416;;1802.4
1995.0;1905.5;;;;;;;;;;;;;;-0.06946013;0.253914;-0.106387526;;;;;1802.4
1995.0;1905.5;;;;;;;;;;;;;;;;;-0.32807398;34.028137;81.61412;;1812.1
1995.0;1905.5;;;;;;;;;;;;;;-0.073549606;0.1617481;-0.06286813;;;;;1812.1
1995.0;1905.5;;;;;;;;;;;;;;;;;0.38148138;22.747734;85.38698;;1812.1
1995.0;1905.5;;;;;;;;;;;;;;-0.085573904;0.0806299;-0.05597095;;;;;1812.1
1995.0;1906.0;;;;;;;;;;54.857018;39.30784;-124.881744;;;;;;;;;
1995.0;1906.0;;;;;;;0.047975097;-1.8078555;0.104739524;;;;;;;;;;;;
1995.0;1906.0;;;;;;;;;;51.69454;35.874508;-124.881744;;;;;;;;;
1995.0;1906.0;;;;;;;0.04077273;-1.7553025;0.10138249;;;;;;;;;;;;
1996.0;1906.7;;;;;;;;;;;;;;;;;-2.7390363;14.610737;88.011566;;1821.8
1996.0;1906.7;;;;;;;;;;;;;;-0.090456866;0.0126957;-0.046754356;;;;;1821.8
1996.0;1906.7;;;;;;;;;;;;;;;;;-7.8508863;6.9887385;90.6476;;1821.8
1996.0;1906.7;;;;;;;;;;;;;;-0.091921754;-0.03418073;-0.06103702;;;;;1821.8
1996.0;1906.7;;;;;;;;;;;;;;;;;-13.962218;2.929777;93.81771;;1831.4
1996.0;1906.7;;;;;;;;;;;;;;-0.09784234;-0.04364147;-0.07586902;;;;;1831.4
1996.0;1906.7;;;;;;;;;;;;;;;;;-18.993958;0.6637776;98.71212;;1831.4
1996.0;1906.7;;;;;;;;;;;;;;-0.11603137;-0.039613027;-0.028077029;;;;;1831.4
1996.0;1906.7;;;;;;;;;;;;;;;;;-19.325848;-6.878109;106.39897;;1841.0
1996.0;1906.7;;;;;;;;;;;;;;-0.101626635;0.029847102;0.06939909;;;;;1841.0
1996.0;1906.7;;;;;;;;;;;;;;;;;-19.73403;-19.569994;117.76711;;1841.0
1996.0;1906.7;;;;;;;;;;;;;;-0.07330546;0.10895108;0.1904355;;;;;1841.0
1996.0;1907.5;262143;262143;13044;;;;;;;;;;;;;;;;;;
1996.0;1914.5;;;;-0.6322594;0.5409165;0.37184528;;;;;;;;;;;;;;;
1996.0;1914.5;;;;-0.62899786;0.54105765;0.36742404;;;;;;;;;;;;;;;
1996.0;1914.5;;;;-0.62232214;0.5415917;0.36604312;;;;;;;;;;;;;;;
1996.0;1914.5;;;;-0.621811;0.5423508;0.36355212;;;;;;;;;;;;;;;
1996.0;1914.5;;;;-0.6206017;0.5452271;0.36234286;;;;;;;;;;;;;;;
1996.0;1915.5;;;;;;;;;;48.345135;32.715843;-124.881744;;;;;;;;;
1996.0;1915.5;;;;;;;0.032654807;-1.7066561;0.09741508;;;;;;;;;;;;
1996.0;1915.5;;;;;;;;;;45.159763;29.576252;-124.881744;;;;;;;;;
1996.0;1915.5;;;;;;;0.01660207;-1.6588641;0.09320353;;;;;;;;;;;;
2051.0;1924.6;;;;-0.61466986;0.54860693;0.36086276;;;;;;;;;;;;;;;
2051.0;1924.6;;;;-0.60773474;0.55634314;0.35845187;;;;;;;;;;;;;;;
2051.0;1924.6;;;;-0.6162186;0.5617829;0.35527042;;;;;;;;;;;;;;;
2051.0;1924.6;;;;-0.61110693;0.5686341;0.35241702;;;;;;;;;;;;;;;
2051.0;1924.6;;;;-0.6034661;0.5770379;0.35331348;;;;;;;;;;;;;;;
2051.0;1925.1;;;;;;;;;;42.298656;26.50151;-124.881744;;;;;;;;;
2051.0;1925.1;;;;;;;0.0056764428;-1.6188238;0.09198279;;;;;;;;;;;;
2051.0;1925.1;;;;;;;;;;39.811394;23.937956;-124.881744;;;;;;;;;
2051.0;1925.1;;;;;;;-0.009033479;-1.5740837;0.090151675;;;;;;;;;;;;
2051.0;1927.8;262143;262143;13055;;;;;;;;;;;;;;;;;;
2051.0;1933.5;;;;;;;;;;;;;-913;;;;;;;;
2051.0;1933.5;;;;;;;;;;;;;-842;;;;;;;;
2051.0;1933.5;;;;;;;;;;;;;-605;;;;;;;;
2051.0;1933.5;;;;;;;;;;;;;-311;;;;;;;;
2051.0;1933.5;;;;;;;;;;;;;-288;;;;;;;;
2051.0;1934.3;;;;-0.6031495;0.5875588;0.35197833;;;;;;;;;;;;;;;
2051.0;1934.3;;;;-0.6081582;0.6006051;0.3507233;;;;;;;;;;;;;;;
2051.0;1934.3;;;;-0.61354834;0.614502;0.34920886;;;;;;;;;;;;;;;
2051.0;1934.3;;;;-0.61962897;0.6294175;0.34774402;;;;;;;;;;;;;;;
2051.0;1934.3;;;;-0.625042;0.64451224;0.34679416;;;;;;;;;;;;;;;
2051.0;1934.3;;;;;;;;;;37.667473;21.595661;-124.881744;;;;;;;;;
2051.0;1934.3;;;;;;;-0.028809473;-1.5261697;0.093813896;;;;;;;;;;;;
2051.0;1934.3;;;;;;;;;;35.93173;19.394514;-124.881744;;;;;;;;;
2051.0;1934.3;;;;;;;-0.046815395;-1.472274;0.09356975;;;;;;;;;;;;
2053.0;1943.9;;;;;;;;;;34.253212;17.708364;-124.881744;;;;;;;;;
2053.0;1943.9;;;;;;;-0.059694204;-1.4148381;0.09521775;;;;;;;;;;;;
2053.0;1943.9;;;;;;;;;;32.49077;16.52196;-124.881744;;;;;;;;;
2053.0;1943.9;;;;;;;-0.06500442;-1.3592944;0.0987579;;;;;;;;;;;;
2053.0;1944.3;;;;-0.62932974;0.66141516;0.34642795;;;;;;;;;;;;;;;
2053.0;1944.3;;;;-0.6348954;0.6809655;0.3462067;;;;;;;;;;;;;;;
2053.0;1944.3;;;;-0.64669806;0.7011948;0.34414294;;;;;;;;;;;;;;;
2053.0;1944.3;;;;-0.6557198;0.72227484;0.34238437;;;;;;;;;;;;;;;
2053.0;1944.3;;;;-0.6623536;0.7435723;0.34339908;;;;;;;;;;;;;;;
2053.0;1947.6;262143;262143;13064;;;;;;;;;;;;;;;;;;
2053.0;1953.5;;;;;;;;;;30.518509;15.964996;-124.881744;;;;;;;;;
2053.0;1953.5;;;;;;;-0.0651265;-1.3029573;0.10730308;;;;;;;;;;;;
2053.0;1953.5;;;;;;;;;;28.290659;16.19007;-124.881744;;;;;;;;;
2053.0;1953.5;;;;;;;-0.06933805;-1.2482071;0.11127049;;;;;;;;;;;;
2053.0;1954.4;;;;-0.66930395;0.7647401;0.34544376;;;;;;;;;;;;;;;
2053.0;1954.4;;;;-0.67758566;0.78688824;0.3502045;;;;;;;;;;;;;;;
2053.0;1954.4;;;;-0.6824685;0.80911267;0.35567096;;;;;;;;;;;;;;;
2053.0;1954.4;;;;-0.6850434;0.8296243;0.36055377;;;;;;;;;;;;;;;
2053.0;1954.4;;;;-0.6897164;0.8478166;0.36652377;;;;;;;;;;;;;;;
2053.0;1963.1;;;;;;;;;;25.910215;16.933958;-124.881744;;;;;;;;;
2053.0;1963.1;;;;;;;-0.06488235;-1.2026124;0.11120945;;;;;;;;;;;;
2053.0;1963.1;;;;;;;;;;23.621326;18.280588;-124.881744;;;;;;;;;
2053.0;1963.1;;;;;;;-0.06250191;-1.1594592;0.11066011;;;;;;;;;;;;
2054.0;1964.5;;;;-0.69642264;0.86309063;0.3708115;;;;;;;;;;;;;;;
2054.0;1964.5;;;;-0.7060395;0.875908;0.3750382;;;;;;;;;;;;;;;
2054.0;1964.5;;;;-0.71978;0.8858415;0.3801499;;;;;;;;;;;;;;;
2054.0;1964.5;;;;-0.73009115;0.89281857;0.3823281;;;;;;;;;;;;;;;
2054.0;1964.5;;;;-0.7419434;0.89670193;0.38554007;;;;;;;;;;;;;;;
2054.0;1965.5;;;;;;;;;;;;;;;;;-19.806513;-27.657398;124.59181;;1850.7
2054.0;1965.5;;;;;;;;;;;;;;-0.019837031;0.21893978;0.18683432;;;;;1850.7
2054.0;1965.5;;;;;;;;;;;;;;;;;-21.549883;-18.276772;124.988556;;1850.7
2054.0;1965.5;;;;;;;;;;;;;;0.010864589;0.23224586;0.21308023;;;;;1850.7
2054.0;1965.5;;;;;;;;;;;;;;;;;-17.178104;-3.0060732;124.988556;;1860.1
2054.0;1965.5;;;;;;;;;;;;;;0.023987548;0.10620441;0.1920835;;;;;1860.1
2054.0;1965.5;;;;;;;;;;;;;;;;;-17.571032;17.162846;124.69482;;1860.1
2054.0;1965.5;;;;;;;;;;;;;;-0.15863521;-0.18909268;0.21723075;;;;;1860.1
2054.0;1965.5;;;;;;;;;;;;;;;;;-51.999725;43.527027;114.70382;;1869.8
2054.0;1965.5;;;;;;;;;;;;;;-0.3554796;-0.54499954;-0.13391522;;;;;1869.8
2054.0;1965.5;;;;;;;;;;;;;;;;;-91.185486;86.44368;91.349525;;1869.8
2054.0;1965.5;;;;;;;;;;;;;;-0.46900845;-0.7754143;-0.5406049;;;;;1869.8
2055.0;1966.3;;;;;;;;;;;;;;;;;-105.44145;119.479965;66.20991;;1879.5
2055.0;1966.3;;;;;;;;;;;;;;-0.47230446;-0.88894314;-0.73909724;;;;;1879.5
2055.0;1966.3;;;;;;;;;;;;;;;;;-89.02249;124.988556;51.458023;;1879.5
2055.0;1966.3;;;;;;;;;;;;;;-0.60646385;-0.8748436;-0.82290107;;;;;1879.5
2055.0;1966.3;;;;;;;;;;;;;;;;;-63.21528;122.31437;59.350872;;1889.0
2055.0;1966.3;;;;;;;;;;;;;;-0.79677725;-0.69631034;-0.8910794;;;;;1889.0
2055.0;1966.3;;;;;;;;;;;;;;;;;-60.6975;89.88082;90.60945;;1889.0
2055.0;1966.3;;;;;;;;;;;;;;-0.9973449;-0.35670033;-0.7817621;;;;;1889.0
2055.0;1966.3;;;;;;;;;;;;;;;;;-89.15219;40.272987;120.14374;;1898.6
2055.0;1966.3;;;;;;;;;;;;;;-1.1205176;-0.016357921;-0.6684164;;;;;1898.6
2055.0;1966.3;;;;;;;;;;;;;;;;;-108.382675;3.6584065;124.988556;;1898.6
2055.0;1966.3;;;;;;;;;;;;;;-1.3281655;0.1403241;-0.51875365;;;;;1898.6
2055.0;1967.6;262143;262143;13057;;;;;;;;;;;;;;;;;;
2055.0;1972.4;;;;;;;;;;21.41255;19.795067;-124.881744;;;;;;;;;
2055.0;1972.4;;;;;;;-0.061098058;-1.1224707;0.10870693;;;;;;;;;;;;
2055.0;1972.4;;;;;;;;;;19.459366;21.034883;-124.881744;;;;;;;;;
2055.0;1972.4;;;;;;;-0.060304575;-1.0793176;0.10614338;;;;;;;;;;;;
2055.0;1973.6;;;;;;;;;;;;;-646;;;;;;;;
2055.0;1973.6;;;;;;;;;;;;;-1191;;;;;;;;
2055.0;1973.6;;;;;;;;;;;;;-1753;;;;;;;;
2055.0;1973.6;;;;;;;;;;;;;-2292;;;;;;;;
2055.0;1973.6;;;;;;;;;;;;;-2821;;;;;;;;
2111.0;1974.3;;;;-0.75242627;0.90055096;0.3876992;;;;;;;;;;;;;;;
2111.0;1974.3;;;;-0.7623521;0.90420544;0.38814932;;;;;;;;;;;;;;;
2111.0;1974.3;;;;-0.77476895;0.90864956;0.3889237;;;;;;;;;;;;;;;
2111.0;1974.3;;;;-0.7802087;0.9116975;0.39069372;;;;;;;;;;;;;;;
2111.0;1974.3;;;;-0.7863542;0.9137536;0.39236075;;;;;;;;;;;;;;;
2111.0;1981.9;;;;;;;;;;17.567217;22.114475;-124.881744;;;;;;;;;
2111.0;1981.9;;;;;;;-0.06372265;-1.0323191;0.10242012;;;;;;;;;;;;
2111.0;1981.9;;;;;;;;;;15.900145;23.087252;-124.881744;;;;;;;;;
2111.0;1981.9;;;;;;;-0.065309614;-0.9814142;0.10229804;;;;;;;;;;;;
2111.0;1984.3;;;;-0.7940103;0.9154283;0.39441687;;;;;;;;;;;;;;;
2111.0;1984.3;;;;-0.7979623;0.9150201;0.39600378;;;;;;;;;;;;;;;
2111.0;1984.3;;;;-0.8025857;0.91316235;0.3969193;;;;;;;;;;;;;;;
2111.0;1984.3;;;;-0.8019105;0.9126588;0.39839178;;;;;;;;;;;;;;;
2111.0;1984.3;;;;-0.8047677;0.91300213;0.4003144;;;;;;;;;;;;;;;
2111.0;1987.7;262143;262143;13051;;;;;;;;;;;;;;;;;;
2111.0;1991.5;;;;;;;;;;14.271218;24.113438;-124.881744;;;;;;;;;
2111.0;1991.5;;;;;;;-0.06622516;-0.9333781;0.101504564;;;;;;;;;;;;
2111.0;1991.5;;;;;;;;;;joulu.27;25.158695;-124.881744;;;;;;;;;
2111.0;1991.5;;;;;;;-0.06439406;-0.88503677;0.10168768;;;;;;;;;;;;
2114.0;1994.3;;;;-0.8073617;0.91583264;0.40138632;;;;;;;;;;;;;;;
2114.0;1994.3;;;;-0.8114892;0.92110837;0.40190512;;;;;;;;;;;;;;;
2114.0;1994.3;;;;-0.81409085;0.92893994;0.40287024;;;;;;;;;;;;;;;
2114.0;1994.3;;;;-0.8168756;0.941105;0.40336996;;;;;;;;;;;;;;;
2114.0;1994.3;;;;-0.8240434;0.9542123;0.4030648;;;;;;;;;;;;;;;
2114.0;2001.0;;;;;;;;;;10.982849;26.482437;-124.881744;;;;;;;;;
2114.0;2001.0;;;;;;;-0.06085391;-0.8382824;0.10498367;;;;;;;;;;;;
2114.0;2001.0;;;;;;;;;;9.174627;28.073214;-124.881744;;;;;;;;;
2114.0;2001.0;;;;;;;-0.05468917;-0.79549545;0.107974485;;;;;;;;;;;;
2114.0;2004.4;;;;-0.8308641;0.9652406;0.4028855;;;;;;;;;;;;;;;
2114.0;2004.4;;;;-0.8238336;0.9740983;0.40385062;;;;;;;;;;;;;;;
2114.0;2004.4;;;;-0.8130189;0.9828416;0.40798956;;;;;;;;;;;;;;;
2114.0;2004.4;;;;-0.80685055;0.9967462;0.4096337;;;;;;;;;;;;;;;
2114.0;2004.4;;;;-0.8030511;1.0150415;0.41016394;;;;;;;;;;;;;;;
2114.0;2007.8;262143;262143;13064;;;;;;;;;;;;;;;;;;
2114.0;2010.6;;;;;;;;;;7.2176275;29.698326;-124.881744;;;;;;;;;
2114.0;2010.6;;;;;;;-0.045777764;-0.75753045;0.1119419;;;;;;;;;;;;
2114.0;2010.6;;;;;;;;;;4.9058504;31.422619;-124.881744;;;;;;;;;
2114.0;2010.6;;;;;;;-0.04156621;-0.7163915;0.121097445;;;;;;;;;;;;
2114.0;2013.8;;;;;;;;;;;;;-3359;;;;;;;;
2114.0;2013.8;;;;;;;;;;;;;-3718;;;;;;;;
2114.0;2013.8;;;;;;;;;;;;;-3577;;;;;;;;
2114.0;2013.8;;;;;;;;;;;;;-3020;;;;;;;;
2114.0;2013.8;;;;;;;;;;;;;-2615;;;;;;;;
2119.0;2014.5;;;;-0.80207455;1.0347139;0.41043478;;;;;;;;;;;;;;;
2119.0;2014.5;;;;-0.80334866;1.0534669;0.40813833;;;;;;;;;;;;;;;
2119.0;2014.5;;;;-0.7976037;1.0707856;0.40985113;;;;;;;;;;;;;;;
2119.0;2014.5;;;;-0.796322;1.0896226;0.41091925;;;;;;;;;;;;;;;
2119.0;2014.5;;;;-0.79376614;1.1090242;0.4107514;;;;;;;;;;;;;;;
2119.0;2020.3;;;;;;;;;;2.9145176;33.326214;-124.881744;;;;;;;;;
2119.0;2020.3;;;;;;;-0.031067843;-0.67665637;0.13031404;;;;;;;;;;;;
2119.0;2020.3;;;;;;;;;;1.1101108;35.5121;-124.881744;;;;;;;;;
2119.0;2020.3;;;;;;;-0.026856288;-0.6425367;0.1391644;;;;;;;;;;;;
2119.0;2024.6;;;;-0.7928659;1.1289712;0.41218573;;;;;;;;;;;;;;;
2119.0;2024.6;;;;-0.7895509;1.148945;0.41301733;;;;;;;;;;;;;;;
2119.0;2024.6;;;;-0.7820512;1.1650964;0.4149285;;;;;;;;;;;;;;;
2119.0;2024.6;;;;-0.77653134;1.180565;0.41711813;;;;;;;;;;;;;;;
2119.0;2024.6;;;;-0.76685345;1.1947786;0.4204331;;;;;;;;;;;;;;;
2120.0;2025.9;;;;;;;;;;;;;;;;;-97.022156;-26.581623;124.988556;;1908.3
2120.0;2025.9;;;;;;;;;;;;;;-1.6763207;0.12817775;-0.5513474;;;;;1908.3
2120.0;2025.9;;;;;;;;;;;;;;;;;-71.36753;-38.014618;124.988556;;1908.3
2120.0;2025.9;;;;;;;;;;;;;;-1.9965819;-0.09198279;-0.81392866;;;;;1908.3
2120.0;2025.9;;;;;;;;;;;;;;;;;-24.109623;-47.471542;124.988556;;1917.9
2120.0;2025.9;;;;;;;;;;;;;;-1.9998169;-0.55165255;-1.0201117;;;;;1917.9
2120.0;2025.9;;;;;;;;;;;;;;;;;45.26658;-86.92816;101.37867;;1917.9
2120.0;2025.9;;;;;;;;;;;;;;-1.9998169;-0.9807428;-0.93990904;;;;;1917.9
2120.0;2025.9;;;;;;;;;;;;;;;;;97.773674;-116.058075;9.708701;;1927.6
2120.0;2025.9;;;;;;;;;;;;;;-1.9998169;-1.3396405;-0.51637316;;;;;1927.6
2120.0;2025.9;;;;;;;;;;;;;;;;;50.263985;-98.06742;-85.29542;;1927.6
2120.0;2025.9;;;;;;;;;;;;;;-1.9794306;-1.3967102;-0.13678396;;;;;1927.6
2120.0;2027.0;;;;;;;;;;;;;;;;;-58.908356;16.037477;-124.09207;;1937.2
2120.0;2027.0;;;;;;;;;;;;;;-1.511948;-1.3116245;-0.47346416;;;;;1937.2
2120.0;2027.0;;;;;;;;;;;;;;;;;-60.567795;117.4543;-124.988556;;1937.2
2120.0;2027.0;;;;;;;;;;;;;;-1.2125614;-1.1515244;-0.19672231;;;;;1937.2
2120.0;2027.0;;;;;;;;;;;;;;;;;-48.1048;124.03104;-124.988556;;1946.8
2120.0;2027.0;;;;;;;;;;;;;;-0.9762871;-1.0489212;-0.031067843;;;;;1946.8
2120.0;2027.0;;;;;;;;;;;;;;;;;-68.94512;90.128784;-124.988556;;1946.8
2120.0;2027.0;;;;;;;;;;;;;;-0.7116916;-0.8860134;0.0010986663;;;;;1946.8
2120.0;2027.0;;;;;;;;;;;;;;;;;-68.678085;13.840144;-120.57863;;1956.5
2120.0;2027.0;;;;;;;;;;;;;;-0.42048404;-0.7697989;-0.18134098;;;;;1956.5
2120.0;2027.0;;;;;;;;;;;;;;;;;-1.6136662;-36.774803;-83.460495;;1956.5
2120.0;2027.0;;;;;;;;;;;;;;-0.24384288;-0.57655567;-0.17590868;;;;;1956.5
2122.0;2027.9;262143;262143;13047;;;;;;;;;;;;;;;;;;
2122.0;2029.8;;;;;;;;;;-0.85833305;37.87347;-123.64955;;;;;;;;;
2122.0;2029.8;;;;;;;-0.024048585;-0.6136662;0.1513718;;;;;;;;;;;;
2122.0;2029.8;;;;;;;;;;-2.418592;39.796135;-114.5703;;;;;;;;;
2122.0;2029.8;;;;;;;-0.01800592;-0.5929136;0.16602069;;;;;;;;;;;;
2122.0;2034.5;;;;-0.757866;1.2079812;0.4233361;;;;;;;;;;;;;;;
2122.0;2034.5;;;;-0.75312054;1.220997;0.42469412;;;;;;;;;;;;;;;
2122.0;2034.5;;;;-0.7452813;1.2320787;0.42653662;;;;;;;;;;;;;;;
2122.0;2034.5;;;;-0.7357903;1.2407113;0.4267159;;;;;;;;;;;;;;;
2122.0;2034.5;;;;-0.72775656;1.2473184;0.42701727;;;;;;;;;;;;;;;
2122.0;2039.4;;;;;;;;;;-3.6431472;41.54332;-101.73345;;;;;;;;;
2122.0;2039.4;;;;;;;-0.01495407;-0.5809503;0.18164617;;;;;;;;;;;;
2122.0;2039.4;;;;;;;;;;-4.4366283;42.8251;-88.69441;;;;;;;;;
2122.0;2039.4;;;;;;;-0.008484146;-0.5744194;0.1948912;;;;;;;;;;;;
2122.0;2044.5;;;;-0.71931845;1.2532884;0.4263726;;;;;;;;;;;;;;;
2122.0;2044.5;;;;-0.7115174;1.2599412;0.42482764;;;;;;;;;;;;;;;
2122.0;2044.5;;;;-0.70462424;1.2661287;0.422432;;;;;;;;;;;;;;;
2122.0;2044.5;;;;-0.6982499;1.2718889;0.41940695;;;;;;;;;;;;;;;
2122.0;2044.5;;;;-0.690281;1.2769204;0.41605002;;;;;;;;;;;;;;;
2122.0;2048.1;262143;262143;13057;;;;;;;;;;;;;;;;;;
2168.0;2048.9;;;;;;;;;;-5.0469985;43.786434;-75.87283;;;;;;;;;
2168.0;2048.9;;;;;;;-0.003173925;-0.57148963;0.20764793;;;;;;;;;;;;
2168.0;2048.9;;;;;;;;;;-5.83285;44.40443;-62.97876;;;;;;;;;
2168.0;2048.9;;;;;;;0.0017090365;-0.56740016;0.21778008;;;;;;;;;;;;
2168.0;2053.8;;;;;;;;;;;;;-2753;;;;;;;;
2168.0;2053.8;;;;;;;;;;;;;-3175;;;;;;;;
2168.0;2053.8;;;;;;;;;;;;;-3395;;;;;;;;
2168.0;2053.8;;;;;;;;;;;;;-3331;;;;;;;;
2168.0;2053.8;;;;;;;;;;;;;-3266;;;;;;;;
2168.0;2054.4;;;;-0.68152624;1.2820054;0.41247183;;;;;;;;;;;;;;;
2168.0;2054.4;;;;-0.676487;1.2876168;0.40871435;;;;;;;;;;;;;;;
2168.0;2054.4;;;;-0.668747;1.2956506;0.40489203;;;;;;;;;;;;;;;
2168.0;2054.4;;;;-0.6631585;1.303856;0.40100867;;;;;;;;;;;;;;;
2168.0;2054.4;;;;-0.65824133;1.313347;0.39694983;;;;;;;;;;;;;;;
2168.0;2058.1;;;;;;;;;;-6.7293315;44.362465;-50.000763;;;;;;;;;
2168.0;2058.1;;;;;;;0.0046388134;-0.56678975;0.22479934;;;;;;;;;;;;
2168.0;2058.1;;;;;;;;;;-7.7326274;43.64147;-36.80914;;;;;;;;;
2168.0;2058.1;;;;;;;0.0016479995;-0.5679495;0.22650838;;;;;;;;;;;;
2168.0;2064.4;;;;-0.6527863;1.3234407;0.3927155;;;;;;;;;;;;;;;
2168.0;2064.4;;;;-0.6456719;1.3343812;0.38912207;;;;;;;;;;;;;;;
2168.0;2064.4;;;;-0.63906866;1.3469392;0.38506323;;;;;;;;;;;;;;;
2168.0;2064.4;;;;-0.6324044;1.3591768;0.38006216;;;;;;;;;;;;;;;
2168.0;2064.4;;;;-0.62694937;1.3729669;0.37564856;;;;;;;;;;;;;;;
2168.0;2067.7;;;;;;;;;;-8.747368;42.35969;-23.506882;;;;;;;;;
2168.0;2067.7;;;;;;;0.0025025178;-0.5498215;0.22730187;;;;;;;;;;;;
2168.0;2067.7;;;;;;;;;;-9.971923;40.700245;-10.769219;;;;;;;;;
2168.0;2067.7;;;;;;;0.010132145;-0.56398207;0.22156438;;;;;;;;;;;;
2170.0;2067.9;262143;262143;13051;;;;;;;;;;;;;;;;;;
2170.0;2074.5;;;;-0.62001425;1.3881837;0.37056354;;;;;;;;;;;;;;;
2170.0;2074.5;;;;-0.61214834;1.4037629;0.36495212;;;;;;;;;;;;;;;
2170.0;2074.5;;;;-0.60576254;1.419571;0.3609772;;;;;;;;;;;;;;;
2170.0;2074.5;;;;-0.5965043;1.4370767;0.35774615;;;;;;;;;;;;;;;
2170.0;2074.5;;;;-0.5883599;1.4545823;0.35379794;;;;;;;;;;;;;;;
2170.0;2077.4;;;;;;;;;;-11.432997;38.556324;1.1711478;;;;;;;;;
2170.0;2077.4;;;;;;;0.013733329;-0.5764336;0.21057771;;;;;;;;;;;;
2170.0;2077.4;;;;;;;;;;-13.443404;36.091953;12.207404;;;;;;;;;
2170.0;2077.4;;;;;;;0.009704886;-0.5793024;0.19946899;;;;;;;;;;;;
2170.0;2084.6;;;;-0.57986075;1.4736558;0.34955218;;;;;;;;;;;;;;;
2170.0;2084.6;;;;-0.57430655;1.4917566;0.34395602;;;;;;;;;;;;;;;
2170.0;2084.6;;;;-0.56836706;1.5079195;0.3390961;;;;;;;;;;;;;;;
2170.0;2084.6;;;;-0.5628205;1.5242999;0.33474734;;;;;;;;;;;;;;;
2170.0;2084.6;;;;-0.55933386;1.541054;0.3310776;;;;;;;;;;;;;;;
2175.0;2085.9;;;;;;;;;;;;;;;;;79.68382;-56.07013;-11.364329;;1966.1
2175.0;2085.9;;;;;;;;;;;;;;-0.19556262;-0.3969848;-0.09820856;;;;;1966.1
2175.0;2085.9;;;;;;;;;;;;;;;;;97.74697;-43.076878;70.22309;;1966.1
2175.0;2085.9;;;;;;;;;;;;;;-0.4856105;-0.33051544;0.034119695;;;;;1966.1
2175.0;2085.9;;;;;;;;;;;;;;;;;60.811943;-18.93292;116.15345;;1975.7
2175.0;2085.9;;;;;;;;;;;;;;-0.70711386;-0.2690512;-0.09741508;;;;;1975.7
2175.0;2085.9;;;;;;;;;;;;;;;;;18.43318;6.3516645;124.98474;;1975.7
2175.0;2085.9;;;;;;;;;;;;;;-0.8148442;-0.21051668;-0.25238806;;;;;1975.7
2175.0;2085.9;;;;;;;;;;;;;;;;;-13.298441;17.853329;124.988556;;1985.4
2175.0;2085.9;;;;;;;;;;;;;;-0.9151891;-0.15015107;-0.43354595;;;;;1985.4
2175.0;2085.9;;;;;;;;;;;;;;;;;-19.890438;23.224586;124.988556;;1985.4
2175.0;2085.9;;;;;;;;;;;;;;-0.98117006;-0.04834132;-0.5228431;;;;;1985.4
2175.0;2086.6;;;;;;;;;;;;;;;;;-5.5352945;24.365215;124.988556;;1994.9
2175.0;2086.6;;;;;;;;;;;;;;-1.0069277;0.05713065;-0.54451126;;;;;1994.9
2175.0;2086.6;;;;;;;;;;;;;;;;;15.888699;24.075289;124.988556;;1994.9
2175.0;2086.6;;;;;;;;;;;;;;-1.0144353;0.16266365;-0.5235145;;;;;1994.9
2175.0;2086.6;;;;;;;;;;;;;;;;;26.9364;21.664328;124.988556;;2004.6
2175.0;2086.6;;;;;;;;;;;;;;-1.0710166;0.19507432;-0.46424755;;;;;2004.6
2175.0;2086.6;;;;;;;;;;;;;;;;;22.576067;12.707144;124.988556;;2004.6
2175.0;2086.6;;;;;;;;;;;;;;-1.1434675;0.1601001;-0.45039216;;;;;2004.6
2175.0;2086.6;;;;;;;;;;;;;;;;;11.88696;0.8163701;124.988556;;2014.2
2175.0;2086.6;;;;;;;;;;;;;;-1.2167729;0.124210335;-0.44746238;;;;;2014.2
2175.0;2086.6;;;;;;;;;;;;;;;;;6.1342206;-3.2044435;124.988556;;2014.2
2175.0;2086.6;;;;;;;;;;;;;;-1.182165;0.055787835;-0.56251717;;;;;2014.2
2176.0;2086.8;;;;;;;;;;-15.758995;33.18888;22.659992;;;;;;;;;
2176.0;2086.8;;;;;;;-0.0043946654;-0.57185584;0.18652913;;;;;;;;;;;;
2176.0;2086.8;;;;;;;;;;-18.349255;29.896696;32.883694;;;;;;;;;
2176.0;2086.8;;;;;;;-0.027588733;-0.5540941;0.17126988;;;;;;;;;;;;
2176.0;2088.0;262143;262143;13056;;;;;;;;;;;;;;;;;;
2176.0;2093.9;;;;;;;;;;;;;-3291;;;;;;;;
2176.0;2093.9;;;;;;;;;;;;;-3325;;;;;;;;
2176.0;2093.9;;;;;;;;;;;;;-3272;;;;;;;;
2176.0;2093.9;;;;;;;;;;;;;-3083;;;;;;;;
2176.0;2093.9;;;;;;;;;;;;;-2975;;;;;;;;
2176.0;2094.4;;;;-0.55857474;1.5574191;0.32720187;;;;;;;;;;;;;;;
2176.0;2094.4;;;;-0.5536881;1.5750773;0.3243027;;;;;;;;;;;;;;;
2176.0;2094.4;;;;-0.54918295;1.594063;0.32083133;;;;;;;;;;;;;;;
2176.0;2094.4;;;;-0.548153;1.6128848;0.31811526;;;;;;;;;;;;;;;
2176.0;2094.4;;;;-0.54765326;1.6305392;0.31431964;;;;;;;;;;;;;;;
2176.0;2096.3;;;;;;;;;;-21.004364;26.741844;43.2371;;;;;;;;;
2176.0;2096.3;;;;;;;-0.054811243;-0.53334147;0.15320292;;;;;;;;;;;;
2176.0;2096.3;;;;;;;;;;-23.613697;23.770103;53.80032;;;;;;;;;
2176.0;2096.3;;;;;;;-0.07574694;-0.51619005;0.1403241;;;;;;;;;;;;
2176.0;2104.4;;;;-0.5446206;1.6467974;0.31294253;;;;;;;;;;;;;;;
2176.0;2104.4;;;;-0.53742605;1.664799;0.3113251;;;;;;;;;;;;;;;
2176.0;2104.4;;;;-0.5338631;1.6811488;0.30863956;;;;;;;;;;;;;;;
2176.0;2104.4;;;;-0.5304032;1.6992152;0.30748752;;;;;;;;;;;;;;;
2176.0;2104.4;;;;-0.53285223;1.7152178;0.3057671;;;;;;;;;;;;;;;
2228.0;2105.8;;;;;;;;;;-26.0094;20.817438;64.69161;;;;;;;;;
2228.0;2105.8;;;;;;;-0.08850368;-0.50050354;0.1307413;;;;;;;;;;;;
2228.0;2105.8;;;;;;;;;;-28.107548;17.750328;75.571465;;;;;;;;;
2228.0;2105.8;;;;;;;-0.09540086;-0.49391156;0.12561418;;;;;;;;;;;;
2228.0;2108.0;262143;262143;13071;;;;;;;;;;;;;;;;;;
2228.0;2114.3;;;;-0.52997595;1.7344782;0.3057709;;;;;;;;;;;;;;;
2228.0;2114.3;;;;-0.5252419;1.7534869;0.30342487;;;;;;;;;;;;;;;
2228.0;2114.3;;;;-0.5266686;1.7709048;0.30151752;;;;;;;;;;;;;;;
2228.0;2114.3;;;;-0.52867514;1.7880824;0.30089572;;;;;;;;;;;;;;;
2228.0;2114.3;;;;-0.52497107;1.8087924;0.30059436;;;;;;;;;;;;;;;
2228.0;2115.1;;;;;;;;;;-29.950102;15.068514;86.611534;;;;;;;;;
2228.0;2115.1;;;;;;;-0.09533983;-0.48683128;0.11957152;;;;;;;;;;;;
2228.0;2115.1;;;;;;;;;;-31.949066;12.947477;97.99875;;;;;;;;;
2228.0;2115.1;;;;;;;-0.090823084;-0.48481703;0.1159093;;;;;;;;;;;;
2228.0;2124.3;;;;-0.52260214;1.8299906;0.299202;;;;;;;;;;;;;;;
2228.0;2124.3;;;;-0.5185624;1.8507426;0.2985535;;;;;;;;;;;;;;;
2228.0;2124.3;;;;-0.5134812;1.8723528;0.29836276;;;;;;;;;;;;;;;
2228.0;2124.3;;;;-0.5074845;1.8951533;0.2998772;;;;;;;;;;;;;;;
2228.0;2124.3;;;;-0.5028649;1.9187777;0.3012009;;;;;;;;;;;;;;;
2228.0;2124.8;;;;;;;;;;-34.310432;11.268959;110.03067;;;;;;;;;
2228.0;2124.8;;;;;;;-0.0827662;-0.48268074;0.112979524;;;;;;;;;;;;
2228.0;2124.8;;;;;;;;;;-37.14484;9.704886;121.31489;;;;;;;;;
2228.0;2124.8;;;;;;;-0.075014494;-0.48384044;0.11499374;;;;;;;;;;;;
2233.0;2128.0;262143;262143;13070;;;;;;;;;;;;;;;;;;
2233.0;2134.0;;;;;;;;;;;;;-3171;;;;;;;;
2233.0;2134.0;;;;;;;;;;;;;-3584;;;;;;;;
2233.0;2134.0;;;;;;;;;;;;;-3982;;;;;;;;
2233.0;2134.0;;;;;;;;;;;;;-4301;;;;;;;;
2233.0;2134.0;;;;;;;;;;;;;-4508;;;;;;;;
2233.0;2134.4;;;;;;;;;;-40.177616;8.533738;124.87029;;;;;;;;;
2233.0;2134.4;;;;;;;-0.070192575;-0.49024934;0.112979524;;;;;;;;;;;;
2233.0;2134.4;;;;;;;;;;-43.48506;7.930998;124.881744;;;;;;;;;
2233.0;2134.4;;;;;;;-0.06634724;-0.49885556;0.11444441;;;;;;;;;;;;
2233.0;2134.4;;;;-0.49584967;1.9409068;0.30196002;;;;;;;;;;;;;;;
2233.0;2134.4;;;;-0.48759085;1.9601634;0.30326083;;;;;;;;;;;;;;;
2233.0;2134.4;;;;-0.47717673;1.978184;0.30375293;;;;;;;;;;;;;;;
2233.0;2134.4;;;;-0.46945578;1.9915583;0.30227283;;;;;;;;;;;;;;;
2233.0;2134.4;;;;-0.4639359;1.9999964;0.3011742;;;;;;;;;;;;;;;
2233.0;2144.1;;;;;;;;;;-46.914577;7.4808497;124.881744;;;;;;;;;
2233.0;2144.1;;;;;;;-0.05938902;-0.51655626;0.11505478;;;;;;;;;;;;
2233.0;2144.1;;;;;;;;;;-50.45091;7.2367015;124.881744;;;;;;;;;
2233.0;2144.1;;;;;;;-0.050050355;-0.5348674;0.119327374;;;;;;;;;;;;
2233.0;2144.5;;;;-0.4553948;1.9999964;0.2995949;;;;;;;;;;;;;;;
2233.0;2144.5;;;;-0.4463387;1.9999964;0.29771808;;;;;;;;;;;;;;;
2233.0;2144.5;;;;-0.43723685;1.9999964;0.29704288;;;;;;;;;;;;;;;
2233.0;2144.5;;;;-0.42877585;1.9999964;0.29469684;;;;;;;;;;;;;;;
2233.0;2144.5;;;;-0.41698462;1.9999964;0.29370883;;;;;;;;;;;;;;;
2235.0;2146.0;;;;;;;;;;;;;;;;;9.31196;6.5347757;124.988556;;2023.9
2235.0;2146.0;;;;;;;;;;;;;;-1.3583789;-0.03442488;-0.34815517;;;;;2023.9
2235.0;2146.0;;;;;;;;;;;;;;;;;-11.936552;-8.602405;119.32738;;2023.9
2235.0;2146.0;;;;;;;;;;;;;;-1.4399854;-0.08984649;-0.42646566;;;;;2023.9
2235.0;2146.0;;;;;;;;;;;;;;;;;-30.81988;-15.514847;86.90909;;2033.5
2235.0;2146.0;;;;;;;;;;;;;;-1.4159367;-0.17194128;-0.56013674;;;;;2033.5
2235.0;2146.0;;;;;;;;;;;;;;;;;-22.709585;-7.37022;61.601612;;2033.5
2235.0;2146.0;;;;;;;;;;;;;;-1.292642;-0.26996672;-0.5191809;;;;;2033.5
2235.0;2146.0;;;;;;;;;;;;;;;;;-23.590809;-0.8163701;51.93487;;2043.2
2235.0;2146.0;;;;;;;;;;;;;;-1.1940062;-0.30384228;-0.5427412;;;;;2043.2
2235.0;2146.0;;;;;;;;;;;;;;;;;-26.680807;4.5396285;50.630207;;2043.2
2235.0;2146.0;;;;;;;;;;;;;;-1.1880856;-0.3431501;-0.56105226;;;;;2043.2
2235.0;2146.8;;;;;;;;;;;;;;;;;-24.842066;3.913999;51.48854;;2052.7
2235.0;2146.8;;;;;;;;;;;;;;-1.1655018;-0.33924374;-0.5564135;;;;;2052.7
2235.0;2146.8;;;;;;;;;;;;;;;;;-23.64803;0.045777764;53.45317;;2052.7
2235.0;2146.8;;;;;;;;;;;;;;-1.1334574;-0.31946775;-0.5261391;;;;;2052.7
2235.0;2146.8;;;;;;;;;;;;;;;;;-22.621845;-3.4257026;55.036316;;2062.3
2235.0;2146.8;;;;;;;;;;;;;;-1.1230812;-0.29853207;-0.4900052;;;;;2062.3
2235.0;2146.8;;;;;;;;;;;;;;;;;-22.28614;-5.4971466;56.375317;;2062.3
2235.0;2146.8;;;;;;;;;;;;;;-1.1257668;-0.28876615;-0.46162298;;;;;2062.3
2235.0;2146.8;;;;;;;;;;;;;;;;;-21.897032;-6.679739;58.618427;;2072.0
2235.0;2146.8;;;;;;;;;;;;;;-1.1197242;-0.27564317;-0.4415418;;;;;2072.0
2235.0;2146.8;;;;;;;;;;;;;;;;;-21.645254;-6.0731835;61.864834;;2072.0
2235.0;2146.8;;;;;;;;;;;;;;-1.1133152;-0.2583697;-0.43037203;;;;;2072.0
2236.0;2148.2;262143;262143;13075;;;;;;;;;;;;;;;;;;
2236.0;2153.5;;;;;;;;;;-54.37254;6.591998;124.881744;;;;;;;;;
2236.0;2153.5;;;;;;;-0.045777764;-0.5575121;0.11993774;;;;;;;;;;;;
2236.0;2153.5;;;;;;;;;;-58.404797;5.3903317;124.881744;;;;;;;;;
2236.0;2153.5;;;;;;;-0.038880583;-0.581988;0.12280648;;;;;;;;;;;;
2236.0;2154.5;;;;-0.40700537;1.9999964;0.2924576;;;;;;;;;;;;;;;
2236.0;2154.5;;;;-0.39443594;1.9999964;0.29321674;;;;;;;;;;;;;;;
2236.0;2154.5;;;;-0.3840981;1.9999964;0.29298404;;;;;;;;;;;;;;;
2236.0;2154.5;;;;-0.37425235;1.9999964;0.29129794;;;;;;;;;;;;;;;
2236.0;2154.5;;;;-0.36581424;1.9999964;0.29023746;;;;;;;;;;;;;;;
2236.0;2163.0;;;;;;;;;;-62.3455;4.1657767;124.881744;;;;;;;;;
2236.0;2163.0;;;;;;;-0.031250954;-0.6113468;0.124210335;;;;;;;;;;;;
2236.0;2163.0;;;;;;;;;;-65.954315;3.7995543;124.881744;;;;;;;;;
2236.0;2163.0;;;;;;;-0.02148503;-0.6470534;0.13306071;;;;;;;;;;;;
2236.0;2164.5;;;;-0.35816196;1.997803;0.2907715;;;;;;;;;;;;;;;
2236.0;2164.5;;;;-0.35034946;1.9932444;0.29157642;;;;;;;;;;;;;;;
2236.0;2164.5;;;;-0.34025958;1.987076;0.29218295;;;;;;;;;;;;;;;
2236.0;2164.5;;;;-0.33329776;1.9797404;0.29324344;;;;;;;;;;;;;;;
2236.0;2164.5;;;;-0.32927325;1.9709361;0.29415897;;;;;;;;;;;;;;;
2236.0;2168.3;262143;262143;13088;;;;;;;;;;;;;;;;;;
2293.0;2172.6;;;;;;;;;;-69.44105;3.4218879;124.881744;;;;;;;;;
2293.0;2172.6;;;;;;;-0.005981628;-0.6823328;0.13879818;;;;;;;;;;;;
2293.0;2172.6;;;;;;;;;;-72.82479;2.1973326;124.881744;;;;;;;;;
2293.0;2172.6;;;;;;;0.021057772;-0.7265847;0.15619373;;;;;;;;;;;;
2293.0;2174.2;;;;;;;;;;;;;-4519;;;;;;;;
2293.0;2174.2;;;;;;;;;;;;;-4257;;;;;;;;
2293.0;2174.2;;;;;;;;;;;;;-3761;;;;;;;;
2293.0;2174.2;;;;;;;;;;;;;-3373;;;;;;;;
2293.0;2174.2;;;;;;;;;;;;;-3226;;;;;;;;
2293.0;2174.4;;;;-0.3237839;1.9597933;0.2947121;;;;;;;;;;;;;;;
2293.0;2174.4;;;;-0.32091144;1.94817;0.29348376;;;;;;;;;;;;;;;
2293.0;2174.4;;;;-0.31966785;1.9360888;0.29145816;;;;;;;;;;;;;;;
2293.0;2174.4;;;;-0.31507877;1.9233744;0.29077914;;;;;;;;;;;;;;;
2293.0;2174.4;;;;-0.30918887;1.9121745;0.29034045;;;;;;;;;;;;;;;
2293.0;2182.0;;;;;;;;;;-75.479904;-0.15640736;124.881744;;;;;;;;;
2293.0;2182.0;;;;;;;0.06060976;-0.77248454;0.1805475;;;;;;;;;;;;
2293.0;2182.0;;;;;;;;;;-77.53228;-2.2698143;124.881744;;;;;;;;;
2293.0;2182.0;;;;;;;0.10522782;-0.81527144;0.20459609;;;;;;;;;;;;
2293.0;2184.4;;;;-0.30690768;1.9028094;0.2900429;;;;;;;;;;;;;;;
2293.0;2184.4;;;;-0.30561832;1.8948481;0.28989795;;;;;;;;;;;;;;;
2293.0;2184.4;;;;-0.29856876;1.8874133;0.2909241;;;;;;;;;;;;;;;
2293.0;2184.4;;;;-0.29687122;1.8816836;0.29112628;;;;;;;;;;;;;;;
2293.0;2184.4;;;;-0.2951279;1.8780291;0.290741;;;;;;;;;;;;;;;
2293.0;2188.3;262143;262143;13089;;;;;;;;;;;;;;;;;;
2295.0;2191.6;;;;;;;;;;-79.35575;-3.952147;124.881744;;;;;;;;;
2295.0;2191.6;;;;;;;0.16547136;-0.857387;0.23255104;;;;;;;;;;;;
2295.0;2191.6;;;;;;;;;;-81.09912;-5.405591;124.881744;;;;;;;;;
2295.0;2191.6;;;;;;;0.2329783;-0.9007233;0.2593463;;;;;;;;;;;;
2295.0;2194.6;;;;-0.2924309;1.8746951;0.29256824;;;;;;;;;;;;;;;
2295.0;2194.6;;;;-0.29099658;1.8738863;0.2946129;;;;;;;;;;;;;;;
2295.0;2194.6;;;;-0.28696826;1.8735163;0.2945061;;;;;;;;;;;;;;;
2295.0;2194.6;;;;-0.28105167;1.8721468;0.29547885;;;;;;;;;;;;;;;
2295.0;2194.6;;;;-0.2790871;1.8704607;0.29609683;;;;;;;;;;;;;;;
2295.0;2201.3;;;;;;;;;;-82.75094;-6.389813;124.881744;;;;;;;;;
2295.0;2201.3;;;;;;;0.31751457;-0.9502854;0.2757042;;;;;;;;;;;;
2295.0;2201.3;;;;;;;;;;-84.38368;-5.714591;124.881744;;;;;;;;;
2295.0;2201.3;;;;;;;0.41560107;-1.0102237;0.26831874;;;;;;;;;;;;
2295.0;2204.7;;;;-0.27688983;1.8673975;0.2956238;;;;;;;;;;;;;;;
2295.0;2204.7;;;;-0.27699664;1.8639758;0.29657748;;;;;;;;;;;;;;;
2295.0;2204.7;;;;-0.27655414;1.8616145;0.29875568;;;;;;;;;;;;;;;
2295.0;2204.7;;;;-0.27773288;1.8588068;0.29953387;;;;;;;;;;;;;;;
2295.0;2204.7;;;;-0.27659228;1.8552401;0.30113223;;;;;;;;;;;;;;;
2297.0;2206.6;;;;;;;;;;;;;;;;;-20.91281;-4.425184;64.947205;;2081.7
2297.0;2206.6;;;;;;;;;;;;;;-1.1055635;-0.24396497;-0.4312876;;;;;2081.7
2297.0;2206.6;;;;;;;;;;;;;;;;;-20.451216;-2.3232217;67.67861;;2081.7
2297.0;2206.6;;;;;;;;;;;;;;-1.0893277;-0.23889889;-0.4379406;;;;;2081.7
2297.0;2206.6;;;;;;;;;;;;;;;;;-19.791252;-0.5340739;70.25361;;2091.4
2297.0;2206.6;;;;;;;;;;;;;;-1.0647298;-0.23242897;-0.4461806;;;;;2091.4
2297.0;2206.6;;;;;;;;;;;;;;;;;-18.856625;0.049592577;72.21824;;2091.4
2297.0;2206.6;;;;;;;;;;;;;;-1.041963;-0.22876675;-0.43745232;;;;;2091.4
2297.0;2206.6;;;;;;;;;;;;;;;;;-17.750328;-1.1558886;73.99213;;2100.8
2297.0;2206.6;;;;;;;;;;;;;;-1.0190741;-0.22284615;-0.42982268;;;;;2100.8
2297.0;2206.6;;;;;;;;;;;;;;;;;-16.8157;-2.8916287;75.571465;;2100.8
2297.0;2206.6;;;;;;;;;;;;;;-1.0116276;-0.21350749;-0.4181646;;;;;2100.8
2297.0;2207.5;;;;;;;;;;;;;;;;;-15.491959;-5.5810723;77.0745;;2110.5
2297.0;2207.5;;;;;;;;;;;;;;-1.0135807;-0.20801416;-0.4049196;;;;;2110.5
2297.0;2207.5;;;;;;;;;;;;;;;;;-13.225959;-8.770256;78.46308;;2110.5
2297.0;2207.5;;;;;;;;;;;;;;-1.0220649;-0.20044558;-0.3914304;;;;;2110.5
2297.0;2207.5;;;;;;;;;;;;;;;;;-11.623737;-10.906552;79.61134;;2120.2
2297.0;2207.5;;;;;;;;;;;;;;-1.025422;-0.18640706;-0.3846553;;;;;2120.2
2297.0;2207.5;;;;;;;;;;;;;;;;;-10.872219;-12.352367;80.488754;;2120.2
2297.0;2207.5;;;;;;;;;;;;;;-1.0285958;-0.17737357;-0.374279;;;;;2120.2
2297.0;2207.5;;;;;;;;;;;;;;;;;-10.9904785;-14.141514;81.102936;;2129.9
2297.0;2207.5;;;;;;;;;;;;;;-1.0220649;-0.16498306;-0.36512345;;;;;2129.9
2297.0;2207.5;;;;;;;;;;;;;;;;;-11.139256;-16.067995;81.79342;;2129.9
2297.0;2207.5;;;;;;;;;;;;;;-1.0223701;-0.15442365;-0.35303813;;;;;2129.9
2299.0;2208.5;262143;262143;13080;;;;;;;;;;;;;;;;;;
2299.0;2210.8;;;;;;;;;;-87.111275;-3.9254432;124.881744;;;;;;;;;
2299.0;2210.8;;;;;;;0.5224769;-1.0708945;0.2989593;;;;;;;;;;;;
2299.0;2210.8;;;;;;;;;;-90.81164;-2.887814;124.881744;;;;;;;;;
2299.0;2210.8;;;;;;;0.6104923;-1.1181982;0.34138006;;;;;;;;;;;;
2299.0;2214.4;;;;;;;;;;;;;-3107;;;;;;;;
2299.0;2214.4;;;;;;;;;;;;;-3087;;;;;;;;
2299.0;2214.4;;;;;;;;;;;;;-3218;;;;;;;;
2299.0;2214.4;;;;;;;;;;;;;-3417;;;;;;;;
2299.0;2214.4;;;;;;;;;;;;;-3123;;;;;;;;
2299.0;2214.6;;;;-0.27456287;1.8521426;0.30336383;;;;;;;;;;;;;;;
2299.0;2214.6;;;;-0.2756081;1.8504221;0.3054314;;;;;;;;;;;;;;;
2299.0;2214.6;;;;-0.2790642;1.8473742;0.30677417;;;;;;;;;;;;;;;
2299.0;2214.6;;;;-0.2788811;1.8427012;0.30769733;;;;;;;;;;;;;;;
2299.0;2214.6;;;;-0.27849582;1.8366053;0.3092461;;;;;;;;;;;;;;;
2299.0;2220.4;;;;;;;;;;-96.19434;-4.9401836;124.881744;;;;;;;;;
2299.0;2220.4;;;;;;;0.64607686;-1.1560411;0.36371958;;;;;;;;;;;;
2299.0;2220.4;;;;;;;;;;-102.84356;-9.983367;124.881744;;;;;;;;;
2299.0;2220.4;;;;;;;0.6357616;-1.1853999;0.38239694;;;;;;;;;;;;
2299.0;2224.6;;;;-0.28253558;1.8303645;0.30843356;;;;;;;;;;;;;;;
2299.0;2224.6;;;;-0.28672794;1.8241465;0.30692294;;;;;;;;;;;;;;;
2299.0;2224.6;;;;-0.28885272;1.8177989;0.30660632;;;;;;;;;;;;;;;
2299.0;2224.6;;;;-0.29205325;1.809315;0.30440143;;;;;;;;;;;;;;;
2299.0;2224.6;;;;-0.29605487;1.8002932;0.30269626;;;;;;;;;;;;;;;
2299.0;2228.6;262143;262143;13088;;;;;;;;;;;;;;;;;;
2347.0;2229.9;;;;;;;;;;-109.511856;-17.51381;124.881744;;;;;;;;;
2347.0;2229.9;;;;;;;0.60786766;-1.2136601;0.40974152;;;;;;;;;;;;
2347.0;2229.9;;;;;;;;;;-115.493484;-26.772364;124.881744;;;;;;;;;
2347.0;2229.9;;;;;;;0.56630147;-1.2496109;0.43372905;;;;;;;;;;;;
2347.0;2234.3;;;;-0.2982178;1.7902911;0.30020908;;;;;;;;;;;;;;;
2347.0;2234.3;;;;-0.301075;1.7796748;0.29753497;;;;;;;;;;;;;;;
2347.0;2234.3;;;;-0.30284885;1.7670481;0.2941704;;;;;;;;;;;;;;;
2347.0;2234.3;;;;-0.2991219;1.7558901;0.29366305;;;;;;;;;;;;;;;
2347.0;2234.3;;;;-0.2950478;1.7466128;0.2900162;;;;;;;;;;;;;;;
2347.0;2239.0;;;;;;;;;;-120.052185;-36.854916;124.881744;;;;;;;;;
2347.0;2239.0;;;;;;;0.5341349;-1.2920316;0.45912045;;;;;;;;;;;;
2347.0;2239.0;;;;;;;;;;-122.32963;-46.277504;124.881744;;;;;;;;;
2347.0;2239.0;;;;;;;0.5202185;-1.3473922;0.4745018;;;;;;;;;;;;
2347.0;2244.4;;;;-0.29303363;1.7367365;0.28595355;;;;;;;;;;;;;;;
2347.0;2244.4;;;;-0.29468158;1.7268565;0.28137973;;;;;;;;;;;;;;;
2347.0;2244.4;;;;-0.29976276;1.7160456;0.27546313;;;;;;;;;;;;;;;
2347.0;2244.4;;;;-0.29835132;1.7065699;0.27059558;;;;;;;;;;;;;;;
2347.0;2244.4;;;;-0.295723;1.6951869;0.26458362;;;;;;;;;;;;;;;
2347.0;2248.6;;;;;;;;;;-122.8904;-55.021057;124.881744;;;;;;;;;
2347.0;2248.6;;;;;;;0.52320933;-1.4083072;0.4974517;;;;;;;;;;;;
2347.0;2248.6;;;;;;;;;;-121.89855;-62.68502;124.881744;;;;;;;;;
2347.0;2248.6;;;;;;;0.55275124;-1.4822229;0.5338908;;;;;;;;;;;;
2347.0;2248.4;262143;262143;13091;;;;;;;;;;;;;;;;;;
2349.0;2254.3;;;;;;;;;;;;;-2095;;;;;;;;
2349.0;2254.3;;;;;;;;;;;;;-4242;;;;;;;;
2349.0;2254.3;;;;;;;;;;;;;-14314;;;;;;;;
2349.0;2254.3;;;;;;;;;;;;;-27930;;;;;;;;
2349.0;2254.3;;;;;;;;;;;;;-33227;;;;;;;;
2349.0;2254.5;;;;-0.2911072;1.6832392;0.25968555;;;;;;;;;;;;;;;
2349.0;2254.5;;;;-0.28690723;1.6716387;0.25474933;;;;;;;;;;;;;;;
2349.0;2254.5;;;;-0.28598025;1.6622927;0.2503319;;;;;;;;;;;;;;;
2349.0;2254.5;;;;-0.28266528;1.6537898;0.24497226;;;;;;;;;;;;;;;
2349.0;2254.5;;;;-0.27147678;1.6479762;0.24028781;;;;;;;;;;;;;;;
2349.0;2258.3;;;;;;;;;;-118.75515;-68.66664;124.881744;;;;;;;;;
2349.0;2258.3;;;;;;;0.6146428;-1.5575427;0.5623951;;;;;;;;;;;;
2349.0;2258.3;;;;;;;;;;-115.13871;-76.1208;124.881744;;;;;;;;;
2349.0;2258.3;;;;;;;0.6828822;-1.6176641;0.5795465;;;;;;;;;;;;
2349.0;2264.6;;;;-0.26690677;1.6414492;0.23295596;;;;;;;;;;;;;;;
2349.0;2264.6;;;;-0.25882724;1.6376612;0.22788242;;;;;;;;;;;;;;;
2349.0;2264.6;;;;-0.25304416;1.63324;0.22165301;;;;;;;;;;;;;;;
2349.0;2264.6;;;;-0.25068668;1.6269381;0.2157326;;;;;;;;;;;;;;;
2349.0;2264.6;;;;-0.24545291;1.6223528;0.21009067;;;;;;;;;;;;;;;
2351.0;2266.3;;;;;;;;;;;;;;;;;-11.303292;-18.063143;82.43431;;2139.5
2351.0;2266.3;;;;;;;;;;;;;;-1.0178534;-0.13495284;-0.34565264;;;;;2139.5
2351.0;2266.3;;;;;;;;;;;;;;;;;-12.092959;-18.768885;82.78527;;2139.5
2351.0;2266.3;;;;;;;;;;;;;;-1.0099186;-0.11774041;-0.3386334;;;;;2139.5
2351.0;2266.3;;;;;;;;;;;;;;;;;-12.9703665;-18.230995;83.37657;;2149.2
2351.0;2266.3;;;;;;;;;;;;;;-1.0022279;-0.10974456;-0.33356732;;;;;2149.2
2351.0;2266.3;;;;;;;;;;;;;;;;;-14.065218;-18.127995;83.72753;;2149.2
2351.0;2266.3;;;;;;;;;;;;;;-0.9951476;-0.10174871;-0.3246559;;;;;2149.2
2351.0;2266.3;;;;;;;;;;;;;;;;;-14.492477;-18.787958;83.83816;;2158.7
2351.0;2266.3;;;;;;;;;;;;;;-0.9767144;-0.09540086;-0.3188574;;;;;2158.7
2351.0;2266.3;;;;;;;;;;;;;;;;;-14.160588;-18.604847;83.93735;;2158.7
2351.0;2266.3;;;;;;;;;;;;;;-0.96249276;-0.092471085;-0.30872524;;;;;2158.7
2351.0;2267.0;;;;;;;;;;;;;;;;;-13.172552;-18.01355;83.75042;;2168.3
2351.0;2267.0;;;;;;;;;;;;;;-0.96383554;-0.09595019;-0.2973113;;;;;2168.3
2351.0;2267.0;;;;;;;;;;;;;;;;;-12.489699;-18.166143;83.24305;;2168.3
2351.0;2267.0;;;;;;;;;;;;;;-0.96188235;-0.103946045;-0.28907132;;;;;2168.3
2351.0;2267.0;;;;;;;;;;;;;;;;;-11.402478;-18.63155;82.53349;;2178.0
2351.0;2267.0;;;;;;;;;;;;;;-0.95638907;-0.114322335;-0.2854091;;;;;2178.0
2351.0;2267.0;;;;;;;;;;;;;;;;;-10.631886;-17.838068;81.72094;;2178.0
2351.0;2267.0;;;;;;;;;;;;;;-0.9641408;-0.12225715;-0.27918333;;;;;2178.0
2351.0;2267.0;;;;;;;;;;;;;;;;;-10.254219;-17.136143;80.93509;;2187.7
2351.0;2267.0;;;;;;;;;;;;;;-0.9679251;-0.12451552;-0.2715537;;;;;2187.7
2351.0;2267.0;;;;;;;;;;;;;;;;;-9.701072;-18.059328;80.28657;;2187.7
2351.0;2267.0;;;;;;;;;;;;;;-0.9713431;-0.12634663;-0.26209295;;;;;2187.7
2352.0;2267.7;;;;;;;;;;-112.30811;-85.97827;124.881744;;;;;;;;;
2352.0;2267.7;;;;;;;0.7414167;-1.6671652;0.6021302;;;;;;;;;;;;
2352.0;2267.7;;;;;;;;;;-109.5233;-94.02753;124.881744;;;;;;;;;
2352.0;2267.7;;;;;;;0.79317605;-1.7067171;0.6302683;;;;;;;;;;;;
2352.0;2268.4;262143;262143;13099;;;;;;;;;;;;;;;;;;
2352.0;2274.4;;;;-0.23947528;1.6173594;0.20530704;;;;;;;;;;;;;;;
2352.0;2274.4;;;;-0.23455814;1.6136286;0.20026019;;;;;;;;;;;;;;;
