patientId;holterMac;flexMac;;;;;;;;;;;;;;;;;;;;
;CA:F3:0B:1E:33:78;D3:4A:5C:52:80:78;;;;;;;;;;;;;;;;;;;;
receivedTimeStamp;timeStamp;red;ir;green;adxl_accX;adxl_accY;adxl_accZ;lsm_accelX;lsm_accelY;lsm_accelZ;lsm_gyroX;lsm_gyroY;lsm_gyroZ;ecg;flex_lsm_accelX;flex_lsm_accelY;flex_lsm_accelZ;flex_lsm_gyroX;flex_lsm_gyroY;flex_lsm_gyroZ;flex_cmd;flexTimeStamp
278.0;218.6;;;;;;;;;;;;;;;;;;;;17;0.1
278.0;218.6;;;;;;;;;;;;;;;;;13.466292;1.4687033;0.7553331;;127.6
278.0;218.6;;;;;;;;;;;;;;0.74703205;-0.08172857;-0.2283395;;;;;127.6
278.0;218.6;;;;;;;;;;;;;;;;;-5.7412944;-16.914885;-8.148442;;127.6
278.0;218.6;;;;;;;;;;;;;;0.7277444;-0.086245306;-0.22132023;;;;;127.6
278.0;218.6;;;;;;;;;;;;;;;;;-67.22846;-84.43327;-65.5385;;137.3
278.0;218.6;;;;;;;;;;;;;;0.6933195;-0.08972442;-0.20850246;;;;;137.3
278.0;218.6;;;;;;;;;;;;;;;;;-122.88659;-124.988556;-121.84133;;137.3
278.0;218.6;;;;;;;;;;;;;;0.6656087;-0.100161746;-0.20081179;;;;;137.3
342.0;225.7;;;;;;;;;;;;;;;;;-73.12235;-124.75204;-89.56419;;146.9
342.0;225.7;;;;;;;;;;;;;;0.6261788;-0.09869686;-0.19495223;;;;;146.9
342.0;225.7;;;;;;;;;;;;;;;;;-30.270546;-124.90082;-57.168797;;146.9
342.0;225.7;;;;;;;;;;;;;;0.5749687;-0.093935974;-0.19708854;;;;;146.9
342.0;225.7;;;;;;;;;;;;;;;;;-46.784874;-98.74264;-50.580612;;156.5
342.0;225.7;;;;;;;;;;;;;;0.52143925;-0.10058901;-0.20581684;;;;;156.5
342.0;225.7;;;;;;;;;;;;;;;;;-60.148167;-16.91107;-21.778772;;156.5
342.0;225.7;;;;;;;;;;;;;;0.4803003;-0.120548114;-0.22174749;;;;;156.5
342.0;225.7;;;;;;;;;;;;;;;;;-62.177647;-13.019959;-13.6379595;;166.1
342.0;225.7;;;;;;;;;;;;;;0.47224343;-0.13776055;-0.242378;;;;;166.1
342.0;225.7;;;;;;;;;;;;;;;;;-61.113316;-10.589923;-8.053072;;166.1
342.0;225.7;;;;;;;;;;;;;;0.4695578;-0.1640675;-0.22730187;;;;;166.1
342.0;278.9;;;;;;;;;;;;;;;;;-58.156834;-9.807885;-1.9722588;;175.7
342.0;278.9;;;;;;;;;;;;;;0.4488052;-0.18689536;-0.19574572;;;;;175.7
342.0;278.9;;;;;;;;;;;;;;;;;-52.46132;-17.979218;4.4709616;;175.7
342.0;278.9;;;;;;;;;;;;;;0.40382093;-0.22083193;-0.20435195;;;;;175.7
342.0;278.9;;;;;;;;;;;;;;;;;-43.675804;-31.533249;10.841701;;185.4
342.0;278.9;;;;;;;;;;;;;;0.37165442;-0.25666067;-0.27033296;;;;;185.4
342.0;278.9;;;;;;;;;;;;;;;;;-34.94369;-37.21351;14.568773;;185.4
342.0;278.9;;;;;;;;;;;;;;0.35328227;-0.2755211;-0.2971282;;;;;185.4
342.0;278.9;;;;;;;;;;;;;;;;;-28.237251;-36.713768;17.887661;;194.9
342.0;278.9;;;;;;;;;;;;;;0.35950804;-0.29511398;-0.29767755;;;;;194.9
342.0;278.9;;;;;;;;;;;;;;;;;-20.38255;-32.75399;22.785881;;194.9
342.0;278.9;;;;;;;;;;;;;;0.34553057;-0.3230079;-0.28467667;;;;;194.9
406.0;293.5;;;;;;;;;;;;;;;;;-7.415998;-29.957731;24.86114;;204.5
406.0;293.5;;;;;;;;;;;;;;0.3322245;-0.3418073;-0.26917326;;;;;204.5
406.0;293.5;;;;;;;;;;;;;;;;;9.990996;-31.193731;20.935698;;204.5
406.0;293.5;;;;;;;;;;;;;;0.36579487;-0.30921355;-0.27497178;;;;;204.5
406.0;293.5;;;;;;;;;;;;;;;;;29.770807;-32.235176;19.64629;;214.2
406.0;293.5;;;;;;;;;;;;;;0.39844966;-0.29773858;-0.31824702;;;;;214.2
406.0;293.5;;;;;;;;;;;;;;;;;52.648243;-30.47273;19.882809;;214.2
406.0;293.5;;;;;;;;;;;;;;0.42164373;-0.2957854;-0.34382153;;;;;214.2
406.0;293.5;;;;;;;;;;;;;;;;;72.378456;-26.64266;18.841366;;223.8
406.0;293.5;;;;;;;;;;;;;;0.4483169;-0.28070924;-0.36768702;;;;;223.8
406.0;293.5;;;;;;;;;;;;;;;;;86.897644;-18.803217;17.952513;;223.8
406.0;293.5;;;;;;;;;;;;;;0.4740745;-0.25055698;-0.37299722;;;;;223.8
406.0;338.7;;;;;;;;;;;;;;;;;96.15238;-9.380627;16.224403;;233.5
406.0;338.7;;;;;;;;;;;;;;0.50416577;-0.20319223;-0.34601885;;;;;233.5
406.0;338.7;;;;;;;;;;;;;;;;;103.46919;-0.86214787;14.656514;;233.5
406.0;338.7;;;;;;;;;;;;;;0.52864164;-0.17157505;-0.3081149;;;;;233.5
406.0;338.7;;;;;;;;;;;;;;;;;110.88137;8.213294;13.164922;;243.0
406.0;338.7;;;;;;;;;;;;;;0.53315836;-0.14105655;-0.2582476;;;;;243.0
406.0;338.7;;;;;;;;;;;;;;;;;116.58834;16.060366;marras.37;;243.0
406.0;338.7;;;;;;;;;;;;;;0.5326701;-0.12073123;-0.23871578;;;;;243.0
406.0;338.7;;;;;;;;;;;;;;;;;122.12744;21.023438;8.713035;;252.6
406.0;338.7;;;;;;;;;;;;;;0.53621024;-0.09198279;-0.25916317;;;;;252.6
406.0;338.7;;;;;;;;;;;;;;;;;124.790184;21.027254;6.4470353;;252.6
406.0;338.7;;;;;;;;;;;;;;0.52803123;-0.041505173;-0.3177587;;;;;252.6
464.0;339.5;;;;;;;;;;;;;;;;;124.988556;13.397626;5.077517;;262.3
464.0;339.5;;;;;;;;;;;;;;0.5309;0.0075075533;-0.43342388;;;;;262.3
464.0;339.5;;;;;;;;;;;;;;;;;124.988556;6.3173313;4.6617026;;262.3
464.0;339.5;;;;;;;;;;;;;;0.54860073;0.049012728;-0.5608081;;;;;262.3
464.0;339.5;;;;;;;;;;;;;;;;;124.988556;1.7357402;4.9821467;;272.0
464.0;339.5;;;;;;;;;;;;;;0.58784753;0.09576708;-0.6416212;;;;;272.0
464.0;339.5;;;;;;;;;;;;;;;;;124.988556;-2.254555;4.2306285;;272.0
464.0;339.5;;;;;;;;;;;;;;0.6538896;0.15387432;-0.6923429;;;;;272.0
464.0;339.5;;;;;;;;;;;;;;;;;124.988556;-1.6365551;2.8344066;;281.5
464.0;339.5;;;;;;;;;;;;;;0.73677784;0.23261207;-0.71071506;;;;;281.5
464.0;339.5;;;;;;;;;;;;;;;;;124.988556;-0.1411481;-3.6126287;;281.5
464.0;339.5;;;;;;;;;;;;;;0.8230842;0.3419904;-0.69899595;;;;;281.5
464.0;399.1;;;;;;;;;;;;;;;;;124.96185;-0.6714072;-15.179143;;291.2
464.0;399.1;;;;;;;;;;;;;;0.9173864;0.49635303;-0.7408673;;;;;291.2
464.0;399.1;;;;;;;;;;;;;;;;;121.66585;-3.1052582;-25.601213;;291.2
464.0;399.1;;;;;;;;;;;;;;0.95272684;0.5601978;-0.87801754;;;;;291.2
464.0;399.1;;;;;;;;;;;;;;;;;117.8663;-6.248665;-40.128025;;300.7
464.0;399.1;;;;;;;;;;;;;;0.99826044;0.66798913;-0.9756768;;;;;300.7
464.0;399.1;;;;;;;;;;;;;;;;;110.00015;-13.508256;-58.46202;;300.7
464.0;399.1;;;;;;;;;;;;;;1.056734;0.79964596;-1.1133152;;;;;300.7
464.0;399.1;;;;;;;;;;;;;;;;;101.57323;-21.790216;-82.125305;;310.4
464.0;399.1;;;;;;;;;;;;;;1.1596423;0.9007233;-1.2880642;;;;;310.4
464.0;399.1;;;;;;;;;;;;;;;;;101.481674;-13.016145;-97.34642;;310.4
464.0;399.1;;;;;;;;;;;;;;1.2093875;1.0555742;-1.2457656;;;;;310.4
525.0;400.3;;;;;;;;;;;;;;;;;77.13935;0.8659627;-114.36048;;320.1
525.0;400.3;;;;;;;;;;;;;;1.2328868;1.239967;-1.1307718;;;;;320.1
525.0;400.3;;;;;;;;;;;;;;;;;60.132908;-3.7575915;-104.82345;;320.1
525.0;400.3;;;;;;;;;;;;;;1.2371594;1.4416944;-1.0658895;;;;;320.1
525.0;400.3;;;;;;;;;;;;;;;;;47.647022;-2.3194067;-71.66891;;329.7
525.0;400.3;;;;;;;;;;;;;;1.0496536;1.5842159;-0.8257088;;;;;329.7
525.0;400.3;;;;;;;;;;;;;;;;;-9.178442;-21.629993;-61.075165;;329.7
525.0;400.3;;;;;;;;;;;;;;0.9369793;1.7022004;-0.97762996;;;;;329.7
525.0;400.3;;;;;;;;;;;;;;;;;-7.9462566;-45.289467;-35.264137;;339.4
525.0;400.3;;;;;;;;;;;;;;0.89742726;1.6089358;-1.0483108;;;;;339.4
525.0;400.3;;;;;;;;;;;;;;;;;4.554888;-35.67232;12.112034;;339.4
525.0;400.3;;;;;;;;;;;;;;0.6571245;1.7340617;-0.7086398;;;;;339.4
525.0;459.3;;;;;;;;;;;;;;;;;-69.85305;-39.07132;21.088291;;348.9
525.0;459.3;;;;;;;;;;;;;;0.6917325;1.5870845;-0.9320963;;;;;348.9
525.0;459.3;;;;;;;;;;;;;;;;;-78.06253;-39.372692;24.445328;;348.9
525.0;459.3;;;;;;;;;;;;;;0.8420667;1.0598468;-0.9544359;;;;;348.9
525.0;459.3;;;;;;;;;;;;;;;;;-46.26606;-22.480696;42.455063;;358.6
525.0;459.3;;;;;;;;;;;;;;0.81496626;0.7475204;-0.7036958;;;;;358.6
525.0;459.3;;;;;;;;;;;;;;;;;-47.982727;-26.356548;42.416912;;358.6
525.0;459.3;;;;;;;;;;;;;;0.8514664;0.49507126;-0.71828365;;;;;358.6
525.0;459.3;;;;;;;;;;;;;;;;;-53.50276;-24.033327;36.252174;;368.2
525.0;459.3;;;;;;;;;;;;;;0.85836357;0.31989503;-0.75441754;;;;;368.2
525.0;459.3;;;;;;;;;;;;;;;;;-57.489243;-7.5914793;31.20899;;368.2
525.0;459.3;;;;;;;;;;;;;;0.8278451;0.21308023;-0.6459548;;;;;368.2
639.0;460.2;;;;;;;;;;;;;;;;;-65.89328;5.787072;32.666252;;377.8
639.0;460.2;;;;;;;;;;;;;;0.85238194;0.14917448;-0.50306714;;;;;377.8
639.0;460.2;;;;;;;;;;;;;;;;;-74.163795;11.097293;46.460617;;377.8
639.0;460.2;;;;;;;;;;;;;;0.920011;0.078981906;-0.38990447;;;;;377.8
639.0;460.2;;;;;;;;;;;;;;;;;-81.96509;11.162145;71.07379;;387.5
639.0;460.2;;;;;;;;;;;;;;1.0278023;0.090456866;-0.2969451;;;;;387.5
639.0;460.2;;;;;;;;;;;;;;;;;-90.06775;8.941923;106.51341;;387.5
639.0;460.2;;;;;;;;;;;;;;1.1216162;-0.076235235;-0.29871517;;;;;387.5
639.0;460.2;;;;;;;;;;;;;;;;;-88.47316;11.833552;124.26374;;397.2
639.0;460.2;;;;;;;;;;;;;;1.2125003;-0.2690512;-0.23218483;;;;;397.2
639.0;460.2;;;;;;;;;;;;;;;;;-91.11301;11.738182;124.988556;;397.2
639.0;460.2;;;;;;;;;;;;;;1.2767113;-0.4240852;-0.22638631;;;;;397.2
639.0;519.7;;;;;;;;;;;;;;;;;-94.67223;13.122959;124.988556;;406.8
639.0;519.7;;;;;;;;;;;;;;1.2953887;-0.57136756;-0.35102388;;;;;406.8
639.0;519.7;;;;;;;;;;;;;;;;;-80.06531;27.890102;124.988556;;406.8
639.0;519.7;;;;;;;;;;;;;;1.1952269;-0.7194433;-0.34485915;;;;;406.8
639.0;519.7;;;;;;;;;;;;;;;;;-64.34065;43.153175;123.00485;;416.4
639.0;519.7;;;;;;;;;;;;;;1.0652181;-0.7467879;-0.23010956;;;;;416.4
639.0;519.7;;;;;;;;;;;;;;;;;-53.0488;45.43443;98.429825;;416.4
639.0;519.7;;;;;;;;;;;;;;1.0175481;-0.7752312;-0.23664053;;;;;416.4
639.0;519.7;;;;;;;;;;;;;;;;;-35.13825;38.674583;50.592056;;425.9
639.0;519.7;;;;;;;;;;;;;;1.1919919;-0.3704947;-0.26154363;;;;;425.9
639.0;519.7;;;;;;;;;;;;;;;;;-26.173437;17.58629;25.875881;;425.9
639.0;519.7;;;;;;;;;;;;;;1.3209021;-0.06891079;-0.52754295;;;;;425.9
641.0;520.8;;;;;;;;;;;;;;;;;-12.627033;-1.5907773;15.530107;;435.6
641.0;520.8;;;;;;;;;;;;;;1.284341;0.08716086;-0.72621846;;;;;435.6
641.0;520.8;;;;;;;;;;;;;;;;;-1.4687033;-28.004547;5.394147;;435.6
641.0;520.8;;;;;;;;;;;;;;1.2219611;0.2595294;-0.89541304;;;;;435.6
641.0;520.8;;;;;;;;;;;;;;;;;-5.893887;-44.86221;-3.566851;;445.3
641.0;520.8;;;;;;;;;;;;;;1.201819;0.4193243;-1.0464797;;;;;445.3
641.0;520.8;;;;;;;;;;;;;;;;;-26.322214;-31.716362;-7.621998;;445.3
641.0;520.8;;;;;;;;;;;;;;1.200476;0.56001467;-1.0307932;;;;;445.3
641.0;520.8;;;;;;;;;;;;;;;;;-59.93072;3.3379622;-7.915738;;455.0
641.0;520.8;;;;;;;;;;;;;;1.188757;0.63484603;-0.7981811;;;;;455.0
641.0;520.8;;;;;;;;;;;;;;;;;-91.235085;36.717583;-2.5101473;;455.0
641.0;520.8;;;;;;;;;;;;;;1.1998657;0.6864223;-0.5103305;;;;;455.0
641.0;580.0;;;;;;;;;;;;;;;;;-113.052;72.38991;5.2568135;;464.6
641.0;580.0;;;;;;;;;;;;;;1.147435;0.56178474;-0.31946775;;;;;464.6
641.0;580.0;;;;;;;;;;;;;;;;;-111.59856;99.43311;10.525071;;464.6
641.0;580.0;;;;;;;;;;;;;;1.0253608;0.4015015;0.12427137;;;;;464.6
641.0;580.0;;;;;;;;;;;;;;;;;-84.79568;72.79809;26.909697;;474.2
641.0;580.0;;;;;;;;;;;;;;0.85964537;0.028199103;0.3725089;;;;;474.2
641.0;580.0;;;;;;;;;;;;;;;;;-49.45143;32.334362;39.883877;;474.2
641.0;580.0;;;;;;;;;;;;;;0.81801814;-0.1988586;0.23981445;;;;;474.2
641.0;580.0;;;;;;;;;;;;;;;;;-18.826105;7.721183;53.006836;;483.8
641.0;580.0;;;;;;;;;;;;;;0.9053621;-0.2658162;0.012024293;;;;;483.8
641.0;580.0;;;;;;;;;;;;;;;;;-0.18311106;-1.9302957;77.62383;;483.8
641.0;580.0;;;;;;;;;;;;;;0.89095736;-0.38947722;-0.18677329;;;;;483.8
704.0;580.8;;;;;;;;;;;;;;;;;13.527329;-13.11533;107.3336;;493.5
704.0;580.8;;;;;;;;;;;;;;0.78487504;-0.5710013;-0.364391;;;;;493.5
704.0;580.8;;;;;;;;;;;;;;;;;26.337475;-30.62151;118.171486;;493.5
704.0;580.8;;;;;;;;;;;;;;0.6820887;-0.7874386;-0.61329997;;;;;493.5
704.0;580.8;;;;;;;;;;;;;;;;;40.494247;-40.025024;109.06934;;503.1
704.0;580.8;;;;;;;;;;;;;;0.61195713;-0.8487198;-0.6266671;;;;;503.1
704.0;580.8;;;;;;;;;;;;;;;;;19.871365;-37.965027;92.28034;;503.1
704.0;580.8;;;;;;;;;;;;;;0.62086856;-0.8551897;-0.7361675;;;;;503.1
704.0;580.8;;;;;;;;;;;;;;;;;2.8954437;-16.98355;96.0799;;512.7
704.0;580.8;;;;;;;;;;;;;;0.62611777;-0.83584094;-0.5564745;;;;;512.7
704.0;580.8;;;;;;;;;;;;;;;;;-21.706291;-2.7695546;109.962;;512.7
704.0;580.8;;;;;;;;;;;;;;0.6585894;-0.8647725;-0.4766991;;;;;512.7
704.0;640.1;;;;;;;;;;;;;;;;;-15.781885;18.292032;117.03085;;522.4
704.0;640.1;;;;;;;;;;;;;;0.75930053;-0.94088566;-0.43433943;;;;;522.4
704.0;640.1;;;;;;;;;;;;;;;;;33.509327;28.214361;124.485;;522.4
704.0;640.1;;;;;;;;;;;;;;0.7685782;-1.055269;-0.30121768;;;;;522.4
704.0;640.1;;;;;;;;;;;;;;;;;81.938385;21.668142;122.38685;;532.0
704.0;640.1;;;;;;;;;;;;;;0.626545;-1.2898953;-0.23944822;;;;;532.0
704.0;640.1;;;;;;;;;;;;;;;;;90.45304;8.79696;69.929344;;532.0
704.0;640.1;;;;;;;;;;;;;;0.80538344;-0.9262978;-0.2829066;;;;;532.0
704.0;640.1;;;;;;;;;;;;;;;;;76.578575;3.3646657;12.79107;;541.6
704.0;640.1;;;;;;;;;;;;;;1.0014954;-0.560625;-0.45942563;;;;;541.6
704.0;640.1;;;;;;;;;;;;;;;;;71.78716;10.101626;-11.780145;;541.6
704.0;640.1;;;;;;;;;;;;;;1.1405377;-0.4328135;-0.6096988;;;;;541.6
761.0;655.0;;;;;;;;;;;;;;;;;87.733086;18.482773;-34.119694;;551.2
761.0;655.0;;;;;;;;;;;;;;1.2189093;-0.32538834;-0.64210945;;;;;551.2
761.0;655.0;;;;;;;;;;;;;;;;;102.90078;23.102512;-65.64913;;551.2
761.0;655.0;;;;;;;;;;;;;;1.2673116;-0.11780145;-0.5974914;;;;;551.2
761.0;655.0;;;;;;;;;;;;;;;;;108.9816;28.267769;-80.05005;;560.8
761.0;655.0;;;;;;;;;;;;;;1.2371594;0.07983642;-0.47364727;;;;;560.8
761.0;655.0;;;;;;;;;;;;;;;;;96.16001;27.520065;-77.87561;;560.8
761.0;655.0;;;;;;;;;;;;;;1.1738029;0.3217261;-0.43287453;;;;;560.8
761.0;655.0;;;;;;;;;;;;;;;;;77.1775;32.101658;-61.002686;;570.5
761.0;655.0;;;;;;;;;;;;;;1.0876186;0.4596698;-0.48005617;;;;;570.5
761.0;655.0;;;;;;;;;;;;;;;;;70.98987;42.80984;-32.04062;;570.5
761.0;655.0;;;;;;;;;;;;;;0.96395767;0.5564745;-0.36298716;;;;;570.5
761.0;700.5;;;;;;;;;;;;;;;;;53.781246;43.06925;1.4419996;;580.2
761.0;700.5;;;;;;;;;;;;;;0.91848505;0.59907836;-0.30036318;;;;;580.2
761.0;700.5;;;;;;;;;;;;;;;;;39.40321;38.480026;40.719322;;580.2
761.0;700.5;;;;;;;;;;;;;;0.88717306;0.43763542;-0.3274636;;;;;580.2
761.0;700.5;;;;;;;;;;;;;;;;;37.20588;36.85873;63.37932;;589.9
761.0;700.5;;;;;;;;;;;;;;0.8745384;0.118228704;-0.33606982;;;;;589.9
761.0;700.5;;;;;;;;;;;;;;;;;31.624805;39.235355;60.773796;;589.9
761.0;700.5;;;;;;;;;;;;;;0.9045076;0.044740137;-0.3558458;;;;;589.9
761.0;700.5;;;;;;;;;;;;;;;;;27.455214;44.953762;54.589985;;599.3
761.0;700.5;;;;;;;;;;;;;;0.8544572;0.057069615;-0.37849057;;;;;599.3
761.0;700.5;;;;;;;;;;;;;;;;;28.820917;49.096653;54.589985;;599.3
761.0;700.5;;;;;;;;;;;;;;0.7705924;0.017273476;-0.35700554;;;;;599.3
823.0;701.4;;;;;;;;;;;;;;;;;31.361584;44.267097;56.958984;;608.9
823.0;701.4;;;;;;;;;;;;;;0.72768337;-0.040101323;-0.38441116;;;;;608.9
823.0;701.4;;;;;;;;;;;;;;;;;34.94369;36.339916;58.423874;;608.9
823.0;701.4;;;;;;;;;;;;;;0.70278025;-0.087466046;-0.44196907;;;;;608.9
823.0;701.4;;;;;;;;;;;;;;;;;38.026066;30.507065;59.125797;;618.6
823.0;701.4;;;;;;;;;;;;;;0.68550676;-0.14056826;-0.492996;;;;;618.6
823.0;701.4;;;;;;;;;;;;;;;;;39.23917;27.768028;61.06372;;618.6
823.0;701.4;;;;;;;;;;;;;;0.6714072;-0.20636617;-0.52430797;;;;;618.6
823.0;701.4;;;;;;;;;;;;;;;;;39.471874;27.878658;62.1395;;628.3
823.0;701.4;;;;;;;;;;;;;;0.6625568;-0.27643666;-0.53675956;;;;;628.3
823.0;701.4;;;;;;;;;;;;;;;;;38.613544;29.17188;60.85009;;628.3
823.0;701.4;;;;;;;;;;;;;;0.67378765;-0.29639578;-0.52650535;;;;;628.3
823.0;715.1;;;;;;;;;;;;;;;;;37.35084;29.183325;60.052795;;637.9
823.0;715.1;;;;;;;;;;;;;;0.70278025;-0.30457473;-0.5272988;;;;;637.9
823.0;715.1;;;;;;;;;;;;;;;;;38.6021;28.611103;59.389023;;637.9
823.0;715.1;;;;;;;;;;;;;;0.73409224;-0.31086153;-0.53224283;;;;;637.9
823.0;715.1;;;;;;;;;;;;;;;;;40.444653;28.839993;59.980312;;647.6
823.0;715.1;;;;;;;;;;;;;;0.7522202;-0.291818;-0.52845854;;;;;647.6
823.0;715.1;;;;;;;;;;;;;;;;;40.9711;30.224768;59.675133;;647.6
823.0;715.1;;;;;;;;;;;;;;0.7651601;-0.25849178;-0.5278481;;;;;647.6
823.0;715.1;;;;;;;;;;;;;;;;;42.718285;33.2461;59.450058;;657.0
823.0;715.1;;;;;;;;;;;;;;0.7632069;-0.24085207;-0.50038147;;;;;657.0
823.0;715.1;;;;;;;;;;;;;;;;;45.255135;35.309914;58.832058;;657.0
823.0;715.1;;;;;;;;;;;;;;0.76674706;-0.2240669;-0.47413558;;;;;657.0
1004.0;767.9;;;;;;;;;;;;;;;;;48.875393;36.896877;58.286537;;666.7
1004.0;767.9;;;;;;;;;;;;;;0.7919553;-0.20209357;-0.45313883;;;;;666.7
1004.0;767.9;;;;;;;;;;;;;;;;;51.484726;37.945953;57.100132;;666.7
1004.0;767.9;;;;;;;;;;;;;;0.8265633;-0.15478988;-0.42994475;;;;;666.7
1004.0;767.9;;;;;;;;;;;;;;;;;52.90765;39.162876;55.70772;;676.4
1004.0;767.9;;;;;;;;;;;;;;0.85842466;-0.09222694;-0.41212195;;;;;676.4
1004.0;767.9;;;;;;;;;;;;;;;;;53.39976;40.952023;55.101166;;676.4
1004.0;767.9;;;;;;;;;;;;;;0.875576;-0.054750208;-0.3905759;;;;;676.4
1004.0;767.9;;;;;;;;;;;;;;;;;52.5338;43.362988;54.013947;;686.0
1004.0;767.9;;;;;;;;;;;;;;0.8834498;-0.033692434;-0.37549976;;;;;686.0
1004.0;767.9;;;;;;;;;;;;;;;;;52.7398;45.770134;53.1518;;686.0
1004.0;767.9;;;;;;;;;;;;;;0.875576;0.006530961;-0.3630482;;;;;686.0
1004.0;775.7;;;;;;;;;;;;;;;;;53.022095;48.085728;52.102726;;695.6
1004.0;775.7;;;;;;;;;;;;;;0.8522599;0.044068728;-0.3391827;;;;;695.6
1004.0;775.7;;;;;;;;;;;;;;;;;51.95395;48.432877;51.67165;;695.6
1004.0;775.7;;;;;;;;;;;;;;0.83675647;0.0733665;-0.3270974;;;;;695.6
1004.0;775.7;;;;;;;;;;;;;;;;;49.848167;48.448135;51.576283;;705.2
1004.0;775.7;;;;;;;;;;;;;;0.8220466;0.08148442;-0.32654804;;;;;705.2
1004.0;775.7;;;;;;;;;;;;;;;;;47.093876;48.997467;51.6068;;705.2
1004.0;775.7;;;;;;;;;;;;;;0.8035523;0.07928709;-0.3241676;;;;;705.2
1004.0;775.7;;;;;;;;;;;;;;;;;45.224613;49.336987;51.68691;;714.9
1004.0;775.7;;;;;;;;;;;;;;0.789819;0.048829615;-0.3145848;;;;;714.9
1004.0;775.7;;;;;;;;;;;;;;;;;42.88232;48.56258;51.927242;;714.9
1004.0;775.7;;;;;;;;;;;;;;0.77449876;0.0020142216;-0.31696525;;;;;714.9
1006.0;956.6;;;;;;;;;;;;;;;;;40.780357;47.189247;51.64876;;724.5
1006.0;956.6;;;;;;;;;;;;;;0.7657094;-0.03070162;-0.3180639;;;;;724.5
1006.0;956.6;;;;;;;;;;;;;;;;;38.995026;45.789207;52.030243;;724.5
1006.0;956.6;;;;;;;;;;;;;;0.7544786;-0.081789605;-0.3134251;;;;;724.5
1006.0;956.6;;;;;;;;;;;;;;;;;37.81625;43.256172;52.42317;;734.1
1006.0;956.6;;;;;;;;;;;;;;0.7545396;-0.1307413;-0.32404554;;;;;734.1
1006.0;956.6;;;;;;;;;;;;;;;;;36.98462;41.085545;52.39265;;734.1
1006.0;956.6;;;;;;;;;;;;;;0.75899535;-0.16418958;-0.3357036;;;;;734.1
1006.0;956.6;;;;;;;;;;;;;;;;;36.935028;39.04843;52.735985;;743.7
1006.0;956.6;;;;;;;;;;;;;;0.7624744;-0.19122899;-0.33429974;;;;;743.7
1006.0;956.6;;;;;;;;;;;;;;;;;38.31599;36.980804;53.426468;;743.7
1006.0;956.6;;;;;;;;;;;;;;0.7691275;-0.24256112;-0.3336894;;;;;743.7
1006.0;957.4;;;;;;;;;;;;;;;;;41.72262;35.18784;53.23954;;753.3
1006.0;957.4;;;;;;;;;;;;;;0.78487504;-0.2667928;-0.33344522;;;;;753.3
1006.0;957.4;;;;;;;;;;;;;;;;;44.35865;34.72243;52.33543;;753.3
1006.0;957.4;;;;;;;;;;;;;;0.78475296;-0.27161473;-0.3238014;;;;;753.3
1006.0;957.4;;;;;;;;;;;;;;;;;46.26606;34.051025;51.15665;;763.0
1006.0;957.4;;;;;;;;;;;;;;0.7854854;-0.2872402;-0.31635487;;;;;763.0
1006.0;957.4;;;;;;;;;;;;;;;;;49.924465;33.143105;50.1648;;763.0
1006.0;957.4;;;;;;;;;;;;;;0.79409164;-0.2957854;-0.31421858;;;;;763.0
1006.0;957.4;;;;;;;;;;;;;;;;;53.796505;32.067326;48.837246;;772.6
1006.0;957.4;;;;;;;;;;;;;;0.8021485;-0.29273355;-0.32410657;;;;;772.6
1006.0;957.4;;;;;;;;;;;;;;;;;57.660908;30.823694;47.66228;;772.6
1006.0;957.4;;;;;;;;;;;;;;0.81191444;-0.29486984;-0.338023;;;;;772.6
1183.0;958.2;;;;;;;;;;;;;;;;;62.85668;29.526659;46.094395;;782.4
1183.0;958.2;;;;;;;;;;;;;;0.8214362;-0.28888822;-0.34406567;;;;;782.4
1183.0;958.2;;;;;;;;;;;;;;;;;68.563644;28.359325;43.939026;;782.4
1183.0;958.2;;;;;;;;;;;;;;0.8348033;-0.27613148;-0.35767692;;;;;782.4
1183.0;958.2;;;;;;;;;;;;;;;;;74.41939;27.859583;42.405468;;791.9
1183.0;958.2;;;;;;;;;;;;;;0.84292126;-0.25342572;-0.36396375;;;;;791.9
1183.0;958.2;;;;;;;;;;;;;;;;;78.97808;27.760399;41.402172;;791.9
1183.0;958.2;;;;;;;;;;;;;;0.845851;-0.23303933;-0.37153232;;;;;791.9
1183.0;958.2;;;;;;;;;;;;;;;;;83.74279;26.703697;40.356915;;801.6
1183.0;958.2;;;;;;;;;;;;;;0.84939116;-0.2196112;-0.38398388;;;;;801.6
1183.0;958.2;;;;;;;;;;;;;;;;;88.49223;25.555437;39.613026;;801.6
1183.0;958.2;;;;;;;;;;;;;;0.8483535;-0.19202246;-0.3958861;;;;;801.6
1183.0;1016.8;;;;;;;;;;;;;;;;;92.28416;24.613178;39.399395;;811.2
1183.0;1016.8;;;;;;;;;;;;;;0.84737694;-0.16962187;-0.40827662;;;;;811.2
1183.0;1016.8;;;;;;;;;;;;;;;;;95.02319;23.392437;39.296394;;811.2
1183.0;1016.8;;;;;;;;;;;;;;0.85024565;-0.14441359;-0.4297006;;;;;811.2
1183.0;1016.8;;;;;;;;;;;;;;;;;96.81235;22.480696;39.765617;;820.9
1183.0;1016.8;;;;;;;;;;;;;;0.85262614;-0.10742515;-0.44654682;;;;;820.9
1183.0;1016.8;;;;;;;;;;;;;;;;;97.464676;22.057253;40.391247;;820.9
1183.0;1016.8;;;;;;;;;;;;;;0.849086;-0.080141604;-0.4506363;;;;;820.9
1183.0;1016.8;;;;;;;;;;;;;;;;;97.06794;21.18366;41.104618;;830.5
1183.0;1016.8;;;;;;;;;;;;;;0.85634935;-0.05450606;-0.46174505;;;;;830.5
1183.0;1016.8;;;;;;;;;;;;;;;;;94.328896;20.958586;41.66158;;830.5
1183.0;1016.8;;;;;;;;;;;;;;0.8487808;-0.035340436;-0.4634541;;;;;830.5
1244.0;1126.8;;;;0.0;0.0;0.0;;;;;;;;;;;;;;;
1244.0;1126.8;;;;-0.098274246;0.2980385;0.07577134;;;;;;;;;;;;;;;
1244.0;1126.8;;;;-0.26783374;0.8586465;0.16608812;;;;;;;;;;;;;;;
1244.0;1126.8;;;;-0.27351764;0.88468564;0.15892793;;;;;;;;;;;;;;;
1244.0;1126.8;;;;-0.27510455;0.8948518;0.15937425;;;;;;;;;;;;;;;
1244.0;1130.0;;;;;;;;;;;;;;;;;90.83834;21.09592;42.363506;;840.2
1244.0;1130.0;;;;;;;;;;;;;;0.8313242;-0.008667257;-0.44380015;;;;;840.2
1244.0;1130.0;;;;;;;;;;;;;;;;;86.34831;21.19892;42.95862;;840.2
1244.0;1130.0;;;;;;;;;;;;;;0.8096561;0.022339549;-0.41462448;;;;;840.2
1244.0;1130.0;;;;;;;;;;;;;;;;;81.57979;20.88992;43.404953;;849.8
1244.0;1130.0;;;;;;;;;;;;;;0.7797479;0.024231697;-0.3863033;;;;;849.8
1244.0;1130.0;;;;;;;;;;;;;;;;;77.45979;20.317698;42.863247;;849.8
1244.0;1130.0;;;;;;;;;;;;;;0.7599109;0.029602954;-0.36408582;;;;;849.8
1244.0;1130.0;;;;;;;;;;;;;;;;;73.20246;20.17655;41.295357;;859.4
1244.0;1130.0;;;;;;;;;;;;;;0.74019593;0.026917325;-0.35535753;;;;;859.4
1244.0;1130.0;;;;;;;;;;;;;;;;;69.177826;20.363476;39.010284;;859.4
1244.0;1130.0;;;;;;;;;;;;;;0.72243416;0.013122959;-0.35627308;;;;;859.4
1245.0;1130.7;;;;;;;;;;;;;;;;;66.4388;19.863733;36.149174;;869.0
1245.0;1130.7;;;;;;;;;;;;;;0.7192602;-0.0051881466;-0.38306832;;;;;869.0
1245.0;1130.7;;;;;;;;;;;;;;;;;64.23765;18.55144;32.95999;;869.0
1245.0;1130.7;;;;;;;;;;;;;;0.7340312;-0.009338664;-0.4278695;;;;;869.0
1245.0;1130.7;;;;;;;;;;;;;;;;;61.555832;16.575367;29.583881;;878.6
1245.0;1130.7;;;;;;;;;;;;;;0.76796776;-0.056398205;-0.48554948;;;;;878.6
1245.0;1130.7;;;;;;;;;;;;;;;;;57.992798;15.812403;24.948881;;878.6
1245.0;1130.7;;;;;;;;;;;;;;0.81264687;-0.09430219;-0.5388348;;;;;878.6
1245.0;1130.7;;;;;;;;;;;;;;;;;54.429764;15.243996;20.428328;;888.3
1245.0;1130.7;;;;;;;;;;;;;;0.86306345;-0.118533894;-0.58339185;;;;;888.3
1245.0;1130.7;;;;;;;;;;;;;;;;;50.424206;15.308847;16.407515;;888.3
1245.0;1130.7;;;;;;;;;;;;;;0.9154332;-0.13751641;-0.6234321;;;;;888.3
1245.0;1131.6;;;;;;;;;;;;;;;;;47.03665;15.858181;13.71807;;897.9
1245.0;1131.6;;;;;;;;;;;;;;0.9558397;-0.16089359;-0.6440016;;;;;897.9
1245.0;1131.6;;;;;;;;;;;;;;;;;43.977173;15.75518;11.711478;;897.9
1245.0;1131.6;;;;;;;;;;;;;;0.9833674;-0.18756676;-0.65724665;;;;;897.9
1245.0;1131.6;;;;;;;;;;;;;;;;;40.25773;14.915922;10.517442;;907.5
1245.0;1131.6;;;;;;;;;;;;;;0.98892176;-0.21924497;-0.65895563;;;;;907.5
1245.0;1131.6;;;;;;;;;;;;;;;;;36.46962;12.493514;9.662924;;907.5
1245.0;1131.6;;;;;;;;;;;;;;0.98855555;-0.24292734;-0.6405835;;;;;907.5
1245.0;1131.6;;;;;;;;;;;;;;;;;33.341473;8.190405;8.732108;;916.9
1245.0;1131.6;;;;;;;;;;;;;;0.9988708;-0.26227608;-0.6263009;;;;;916.9
1245.0;1131.6;;;;;;;;;;;;;;;;;31.792656;4.0017395;7.614368;;916.9
1245.0;1131.6;;;;;;;;;;;;;;1.0140691;-0.2684408;-0.61342204;;;;;916.9
1249.0;1132.4;;;;;;;;;;;;;;;;;32.23899;0.4730369;5.920591;;926.5
1249.0;1132.4;;;;;;;;;;;;;;1.030366;-0.2636189;-0.60335094;;;;;926.5
1249.0;1132.4;;;;;;;;;;;;;;;;;35.19547;-2.0485551;3.6660361;;926.5
1249.0;1132.4;;;;;;;;;;;;;;1.045259;-0.24097416;-0.6049379;;;;;926.5
1249.0;1132.4;;;;;;;;;;;;;;;;;39.857174;-3.5897398;0.7705924;;936.2
1249.0;1132.4;;;;;;;;;;;;;;1.0480666;-0.19690542;-0.6128117;;;;;936.2
1249.0;1132.4;;;;;;;;;;;;;;;;;44.69817;-4.669332;-2.4719992;;936.2
1249.0;1132.4;;;;;;;;;;;;;;1.0397656;-0.14899136;-0.6444899;;;;;936.2
1249.0;1132.4;;;;;;;;;;;;;;;;;48.520615;-6.1189613;-5.9930725;;945.8
1249.0;1132.4;;;;;;;;;;;;;;1.0208441;-0.080446795;-0.6717124;;;;;945.8
1249.0;1132.4;;;;;;;;;;;;;;;;;50.027466;-8.632923;-9.380627;;945.8
1249.0;1132.4;;;;;;;;;;;;;;0.9878231;0.0050050355;-0.69716483;;;;;945.8
1249.0;1133.5;;;;;;;;;;;;;;;;;47.94458;-12.073886;-12.768181;;955.4
1249.0;1133.5;;;;;;;;;;;;;;0.94827116;0.098941006;-0.71877193;;;;;955.4
1249.0;1133.5;;;;;;;;;;;;;;;;;42.95099;-17.07892;-16.07181;;955.4
1249.0;1133.5;;;;;;;;;;;;;;0.9006012;0.1866512;-0.74745935;;;;;955.4
1249.0;1133.5;;;;;;;;;;;;;;;;;36.17969;-23.533587;-19.539474;;965.1
1249.0;1133.5;;;;;;;;;;;;;;0.8568987;0.2699057;-0.7713248;;;;;965.1
1249.0;1133.5;;;;;;;;;;;;;;;;;29.744102;-30.365917;-23.78155;;965.1
1249.0;1133.5;;;;;;;;;;;;;;0.82576984;0.33729056;-0.7870113;;;;;965.1
1249.0;1133.5;;;;;;;;;;;;;;;;;24.937437;-36.69088;-29.263435;;974.8
1249.0;1133.5;;;;;;;;;;;;;;0.7950682;0.3871578;-0.7961669;;;;;974.8
1249.0;1133.5;;;;;;;;;;;;;;;;;21.626179;-42.28721;-35.988953;;974.8
1249.0;1133.5;;;;;;;;;;;;;;0.7661977;0.43342388;-0.7932981;;;;;974.8
1250.0;1136.5;;;;-0.27554324;0.90415585;0.15992357;;;;;;;;;;;;;;;
1250.0;1136.5;;;;-0.27610782;0.91285336;0.16048433;;;;;;;;;;;;;;;
1250.0;1136.5;;;;-0.27582934;0.92086804;0.16144563;;;;;;;;;;;;;;;
1250.0;1136.5;;;;-0.27477267;0.92787945;0.16106416;;;;;;;;;;;;;;;
1250.0;1136.5;;;;-0.27474597;0.93465817;0.16106416;;;;;;;;;;;;;;;
1250.0;1139.3;57467;57499;11441;;;;;;;;;;;;;;;;;;
1250.0;1146.4;;;;-0.273819;0.9405099;0.16051103;;;;;;;;;;;;;;;
1250.0;1146.4;;;;-0.2722855;0.9459001;0.15939714;;;;;;;;;;;;;;;
1250.0;1146.4;;;;-0.26989368;0.95183194;0.159359;;;;;;;;;;;;;;;
1250.0;1146.4;;;;-0.26783374;0.95742047;0.15867998;;;;;;;;;;;;;;;
1250.0;1146.4;;;;-0.26619723;0.9623834;0.15717699;;;;;;;;;;;;;;;
1250.0;1156.5;;;;-0.26420596;0.967476;0.15452577;;;;;;;;;;;;;;;
1250.0;1156.5;;;;-0.26316455;0.97299206;0.15245058;;;;;;;;;;;;;;;
1250.0;1156.5;;;;-0.26166156;0.9794961;0.15114214;;;;;;;;;;;;;;;
1250.0;1156.5;;;;-0.25938419;0.9859849;0.14897539;;;;;;;;;;;;;;;
1250.0;1156.5;;;;-0.25783542;0.9923097;0.14727785;;;;;;;;;;;;;;;
1250.0;1159.4;73817;73830;11427;;;;;;;;;;;;;;;;;;
1250.0;1164.7;;;;;;;;;;;;;0;;;;;;;;
1250.0;1164.7;;;;;;;;;;;;;0;;;;;;;;
1250.0;1164.7;;;;;;;;;;;;;-1;;;;;;;;
1250.0;1164.7;;;;;;;;;;;;;-2;;;;;;;;
1250.0;1164.7;;;;;;;;;;;;;-3;;;;;;;;
1251.0;1166.6;;;;-0.25688556;1.000084;0.14459993;;;;;;;;;;;;;;;
1251.0;1166.6;;;;-0.25498202;1.0077325;0.14239122;;;;;;;;;;;;;;;
1251.0;1166.6;;;;-0.2522469;1.0158426;0.14046098;;;;;;;;;;;;;;;
1251.0;1166.6;;;;-0.2483559;1.0237428;0.13808824;;;;;;;;;;;;;;;
1251.0;1166.6;;;;-0.24480823;1.031582;0.13516618;;;;;;;;;;;;;;;
1251.0;1176.7;;;;-0.2416611;1.0390168;0.13212968;;;;;;;;;;;;;;;
1251.0;1176.7;;;;-0.23819736;1.0463907;0.12962343;;;;;;;;;;;;;;;
1251.0;1176.7;;;;-0.23438647;1.0532876;0.12774278;;;;;;;;;;;;;;;
1251.0;1176.7;;;;-0.2315636;1.059807;0.12633134;;;;;;;;;;;;;;;
1251.0;1176.7;;;;-0.2300835;1.0659562;0.12439729;;;;;;;;;;;;;;;
1251.0;1179.7;90288;90214;11436;;;;;;;;;;;;;;;;;;
1251.0;1182.6;;;;;;;;;;;;;;;;;18.570513;-46.93747;-43.72921;;984.4
1251.0;1182.6;;;;;;;;;;;;;;0.7404401;0.46650594;-0.7942137;;;;;984.4
1251.0;1182.6;;;;;;;;;;;;;;;;;15.068514;-51.339764;-51.89291;;984.4
1251.0;1182.6;;;;;;;;;;;;;;0.7338481;0.48548844;-0.79464096;;;;;984.4
1251.0;1182.6;;;;;;;;;;;;;;;;;9.3081455;-53.69732;-60.04898;;994.0
1251.0;1182.6;;;;;;;;;;;;;;0.7597278;0.5017243;-0.74727625;;;;;994.0
1251.0;1182.6;;;;;;;;;;;;;;;;;2.067629;-53.537098;-69.11679;;994.0
1251.0;1182.6;;;;;;;;;;;;;;0.7751091;0.51960814;-0.6897183;;;;;994.0
1251.0;1182.6;;;;;;;;;;;;;;;;;-4.3107395;-53.57906;-78.88271;;1003.7
1251.0;1182.6;;;;;;;;;;;;;;0.737083;0.5379192;-0.666097;;;;;1003.7
1251.0;1182.6;;;;;;;;;;;;;;;;;-10.498367;-54.750206;-88.2519;;1003.7
1251.0;1182.6;;;;;;;;;;;;;;0.6921598;0.57545704;-0.6352733;;;;;1003.7
1253.0;1183.5;;;;;;;;;;;;;;;;;-18.97107;-57.35191;-97.563866;;1013.3
1253.0;1183.5;;;;;;;;;;;;;;0.67030853;0.63039035;-0.60335094;;;;;1013.3
1253.0;1183.5;;;;;;;;;;;;;;;;;-30.014954;-58.557392;-106.81479;;1013.3
1253.0;1183.5;;;;;;;;;;;;;;0.6679281;0.69124424;-0.55238503;;;;;1013.3
1253.0;1183.5;;;;;;;;;;;;;;;;;-41.81036;-57.760094;-117.15293;;1022.9
1253.0;1183.5;;;;;;;;;;;;;;0.67250586;0.7378155;-0.4983062;;;;;1022.9
1253.0;1183.5;;;;;;;;;;;;;;;;;-54.269543;-53.186134;-124.30189;;1022.9
1253.0;1183.5;;;;;;;;;;;;;;0.65523237;0.72511977;-0.44898832;;;;;1022.9
1253.0;1183.5;;;;;;;;;;;;;;;;;-64.325386;-47.425766;-124.988556;;1032.6
1253.0;1183.5;;;;;;;;;;;;;;0.6702475;0.69569993;-0.39368877;;;;;1032.6
1253.0;1183.5;;;;;;;;;;;;;;;;;-71.993164;-43.343914;-124.988556;;1032.6
1253.0;1183.5;;;;;;;;;;;;;;0.73714405;0.6301462;-0.3364971;;;;;1032.6
1253.0;1184.2;;;;;;;;;;;;;;;;;-77.95953;-38.83862;-124.988556;;1042.2
1253.0;1184.2;;;;;;;;;;;;;;0.81789607;0.5528123;-0.25019073;;;;;1042.2
1253.0;1184.2;;;;;;;;;;;;;;;;;-82.945496;-34.016693;-124.988556;;1042.2
1253.0;1184.2;;;;;;;;;;;;;;0.8949858;0.49537644;-0.12146367;;;;;1042.2
1253.0;1184.2;;;;;;;;;;;;;;;;;-85.81423;-31.308174;-124.988556;;1051.9
1253.0;1184.2;;;;;;;;;;;;;;0.9474166;0.40949735;-0.018677328;;;;;1051.9
1253.0;1184.2;;;;;;;;;;;;;;;;;-82.70135;-33.818325;-124.988556;;1051.9
1253.0;1184.2;;;;;;;;;;;;;;0.9962462;0.3628651;-0.069887385;;;;;1051.9
1253.0;1184.2;;;;;;;;;;;;;;;;;-75.766014;-33.562733;-124.988556;;1061.6
1253.0;1184.2;;;;;;;;;;;;;;1.197058;0.2730186;-0.032593768;;;;;1061.6
1253.0;1184.2;;;;;;;;;;;;;;;;;-70.45198;-28.107548;-124.988556;;1061.6
1253.0;1184.2;;;;;;;;;;;;;;1.4365063;0.16748558;-0.02642903;;;;;1061.6
1254.0;1185.0;;;;;;;;;;;;;;;;;-60.96835;-3.295999;-124.988556;;1080.7
1254.0;1185.0;;;;;;;;;;;;;;1.9968871;-0.37470627;-0.31653798;;;;;1080.7
1254.0;1185.0;;;;;;;;;;;;;;;;;-55.475018;-7.904294;-124.988556;;1080.7
1254.0;1185.0;;;;;;;;;;;;;;1.9968871;-0.76400036;-0.50666827;;;;;1080.7
1254.0;1185.0;;;;;;;;;;;;;;;;;-51.87765;-22.247993;-124.13785;;1090.0
1254.0;1185.0;;;;;;;;;;;;;;1.9968871;-1.1188695;-0.74977875;;;;;1090.0
1254.0;1185.0;;;;;;;;;;;;;;;;;-58.618427;-35.42436;-111.83126;;1090.0
1254.0;1185.0;;;;;;;;;;;;;;1.9968871;-1.3989685;-0.84212774;;;;;1090.0
1254.0;1185.0;;;;;;;;;;;;;;;;;-75.88046;-44.2938;-100.23423;;1099.7
1254.0;1185.0;;;;;;;;;;;;;;1.8338572;-1.5139623;-0.8497574;;;;;1099.7
1254.0;1185.0;;;;;;;;;;;;;;;;;-86.676384;-48.886837;-103.96512;;1099.7
1254.0;1185.0;;;;;;;;;;;;;;1.5397198;-1.3414105;-0.7363506;;;;;1099.7
1254.0;1186.5;;;;-0.22801211;1.0708658;0.123157516;;;;;;;;;;;;;;;
1254.0;1186.5;;;;-0.22534946;1.0745889;0.12224199;;;;;;;;;;;;;;;
1254.0;1186.5;;;;-0.22332004;1.0777208;0.12075426;;;;;;;;;;;;;;;
1254.0;1186.5;;;;-0.22200778;1.0795289;0.11967088;;;;;;;;;;;;;;;
1254.0;1186.5;;;;-0.22137836;1.0805398;0.11949159;;;;;;;;;;;;;;;
1254.0;1196.5;;;;-0.22145084;1.0808984;0.12010576;;;;;;;;;;;;;;;
1254.0;1196.5;;;;-0.22172168;1.0793878;0.12062837;;;;;;;;;;;;;;;
1254.0;1196.5;;;;-0.2231293;1.0770532;0.12058641;;;;;;;;;;;;;;;
1254.0;1196.5;;;;-0.22407535;1.0739251;0.121158615;;;;;;;;;;;;;;;
1254.0;1196.5;;;;-0.2242966;1.069729;0.12093355;;;;;;;;;;;;;;;
1254.0;1199.6;106652;106550;11437;;;;;;;;;;;;;;;;;;
1302.0;1204.9;;;;;;;;;;;;;-8;;;;;;;;
1302.0;1204.9;;;;;;;;;;;;;-6;;;;;;;;
1302.0;1204.9;;;;;;;;;;;;;-7;;;;;;;;
1302.0;1204.9;;;;;;;;;;;;;-24;;;;;;;;
1302.0;1204.9;;;;;;;;;;;;;-10;;;;;;;;
1302.0;1206.5;;;;-0.22751239;1.0636674;0.120647445;;;;;;;;;;;;;;;
1302.0;1206.5;;;;-0.23076633;1.0565454;0.12198259;;;;;;;;;;;;;;;
1302.0;1206.5;;;;-0.23401263;1.0488588;0.123741165;;;;;;;;;;;;;;;
1302.0;1206.5;;;;-0.23723987;1.0400697;0.12465669;;;;;;;;;;;;;;;
1302.0;1206.5;;;;-0.24002841;1.0303613;0.1253319;;;;;;;;;;;;;;;
1302.0;1216.1;;;;-0.24375537;1.020588;0.12619402;;;;;;;;;;;;;;;
1302.0;1216.1;;;;-0.24767688;1.010254;0.12618257;;;;;;;;;;;;;;;
1302.0;1216.1;;;;-0.252533;0.9994699;0.12647249;;;;;;;;;;;;;;;
1302.0;1216.1;;;;-0.25818256;0.98859036;0.12692644;;;;;;;;;;;;;;;
1302.0;1216.1;;;;-0.26454547;0.9778749;0.12731935;;;;;;;;;;;;;;;
1302.0;1219.2;122981;122985;11439;;;;;;;;;;;;;;;;;;
1302.0;1226.2;;;;-0.27019122;0.9668275;0.12643816;;;;;;;;;;;;;;;
1302.0;1226.2;;;;-0.2762299;0.95596325;0.125309;;;;;;;;;;;;;;;
1302.0;1226.2;;;;-0.2814751;0.944996;0.12438966;;;;;;;;;;;;;;;
1302.0;1226.2;;;;-0.2866898;0.9343988;0.12360002;;;;;;;;;;;;;;;
1302.0;1226.2;;;;-0.2913132;0.923668;0.12327577;;;;;;;;;;;;;;;
1303.0;1236.3;;;;-0.29535297;0.913479;0.12358858;;;;;;;;;;;;;;;
1303.0;1236.3;;;;-0.298687;0.9032899;0.1238022;;;;;;;;;;;;;;;
1303.0;1236.3;;;;-0.30245212;0.89361966;0.12281419;;;;;;;;;;;;;;;
1303.0;1236.3;;;;-0.3054352;0.8837968;0.12176515;;;;;;;;;;;;;;;
1303.0;1236.3;;;;-0.3091431;0.8741075;0.121215835;;;;;;;;;;;;;;;
1303.0;1239.5;139397;139420;11426;;;;;;;;;;;;;;;;;;
1303.0;1242.8;;;;;;;;;;;;;;;;;-90.59038;-57.493057;-108.63827;;1109.3
1303.0;1242.8;;;;;;;;;;;;;;1.3430586;-1.0484328;-0.616596;;;;;1109.3
1303.0;1242.8;;;;;;;;;;;;;;;;;-98.97916;-68.69716;-109.44701;;1109.3
1303.0;1242.8;;;;;;;;;;;;;;1.2236701;-0.7270119;-0.5047761;;;;;1109.3
1303.0;1242.8;;;;;;;;;;;;;;;;;-114.73815;-79.2909;-111.949524;;1118.9
1303.0;1242.8;;;;;;;;;;;;;;1.1676992;-0.39381084;-0.4223762;;;;;1118.9
1303.0;1242.8;;;;;;;;;;;;;;;;;-124.381996;-95.19868;-113.21604;;1118.9
1303.0;1242.8;;;;;;;;;;;;;;1.1362041;-0.23731193;-0.4263436;;;;;1118.9
1303.0;1242.8;;;;;;;;;;;;;;;;;-124.988556;-116.48152;-113.33811;;1128.5
1303.0;1242.8;;;;;;;;;;;;;;1.1797235;-0.12939848;-0.5398724;;;;;1128.5
1303.0;1242.8;;;;;;;;;;;;;;;;;-124.988556;-124.82452;-105.51012;;1128.5
1303.0;1242.8;;;;;;;;;;;;;;1.2983794;-0.09985656;-0.63270974;;;;;1128.5
1304.0;1243.7;;;;;;;;;;;;;;;;;-124.988556;-124.988556;-100.29908;;1138.0
1304.0;1243.7;;;;;;;;;;;;;;1.3486739;-0.05426191;-0.6382641;;;;;1138.0
1304.0;1243.7;;;;;;;;;;;;;;;;;-124.45067;-124.988556;-106.94449;;1138.0
1304.0;1243.7;;;;;;;;;;;;;;1.3681448;-0.09784234;-0.59315777;;;;;1138.0
1304.0;1243.7;;;;;;;;;;;;;;;;;-111.74352;-124.988556;-105.5063;;1147.5
1304.0;1243.7;;;;;;;;;;;;;;1.3824885;-0.18768883;-0.5052034;;;;;1147.5
1304.0;1243.7;;;;;;;;;;;;;;;;;-89.06827;-124.988556;-95.03464;;1147.5
1304.0;1243.7;;;;;;;;;;;;;;1.4302194;-0.29779962;-0.40974152;;;;;1147.5
1304.0;1243.7;;;;;;;;;;;;;;;;;-68.35764;-124.988556;-83.56731;;1157.2
1304.0;1243.7;;;;;;;;;;;;;;1.3617359;-0.38514358;-0.32197028;;;;;1157.2
1304.0;1243.7;;;;;;;;;;;;;;;;;-59.549244;-123.50841;-85.9592;;1157.2
1304.0;1243.7;;;;;;;;;;;;;;1.2676169;-0.3876461;-0.28394422;;;;;1157.2
1304.0;1244.6;;;;;;;;;;;;;-44;;;;;;;;
1304.0;1244.6;;;;;;;;;;;;;-32;;;;;;;;
1304.0;1244.6;;;;;;;;;;;;;2;;;;;;;;
1304.0;1244.6;;;;;;;;;;;;;-194;;;;;;;;
1304.0;1244.6;;;;;;;;;;;;;65;;;;;;;;
1304.0;1246.3;;;;-0.3119202;0.8639833;0.12070085;;;;;;;;;;;;;;;
1304.0;1246.3;;;;-0.31486133;0.85427487;0.11968996;;;;;;;;;;;;;;;
1304.0;1246.3;;;;-0.31849292;0.8451272;0.118438736;;;;;;;;;;;;;;;
1304.0;1246.3;;;;-0.32330325;0.8359643;0.116920486;;;;;;;;;;;;;;;
1304.0;1246.3;;;;-0.3272591;0.82759106;0.11708833;;;;;;;;;;;;;;;
1422.0;1249.9;;;;;;;;;;;;;;;;;-59.598835;-113.71578;-91.30375;;1166.8
1422.0;1249.9;;;;;;;;;;;;;;1.3112583;-0.33344522;-0.33930477;;;;;1166.8
1422.0;1249.9;;;;;;;;;;;;;;;;;-53.487503;-99.34156;-95.0499;;1166.8
1422.0;1249.9;;;;;;;;;;;;;;1.368633;-0.1899472;-0.37318033;;;;;1166.8
1422.0;1249.9;;;;;;;;;;;;;;;;;-54.452652;-78.39823;-95.84338;;1176.4
1422.0;1249.9;;;;;;;;;;;;;;1.2967315;-0.02783288;-0.24799341;;;;;1176.4
1422.0;1249.9;;;;;;;;;;;;;;;;;-73.69839;-60.510574;-91.10538;;1176.4
1422.0;1249.9;;;;;;;;;;;;;;1.2110965;0.05200354;-0.085024565;;;;;1176.4
1422.0;1249.9;;;;;;;;;;;;;;;;;-94.42427;-58.305614;-79.45112;;1186.1
1422.0;1249.9;;;;;;;;;;;;;;1.1434065;0.039246805;-0.0114139225;;;;;1186.1
1422.0;1249.9;;;;;;;;;;;;;;;;;-102.59178;-64.1728;-67.690056;;1186.1
1422.0;1249.9;;;;;;;;;;;;;;1.0407422;-0.017456587;-0.038392287;;;;;1186.1
1422.0;1256.3;;;;-0.3306351;0.81873333;0.1159897;;;;;;;;;;;;;;;
1422.0;1256.3;;;;-0.33332065;0.81001675;0.116928115;;;;;;;;;;;;;;;
1422.0;1256.3;;;;-0.33741763;0.8021661;0.11734392;;;;;;;;;;;;;;;
1422.0;1256.3;;;;-0.34172443;0.7939302;0.117942825;;;;;;;;;;;;;;;
1422.0;1256.3;;;;-0.34407046;0.78390515;0.1212845;;;;;;;;;;;;;;;
1422.0;1259.4;155852;155864;11425;;;;;;;;;;;;;;;;;;
1422.0;1266.2;;;;-0.34777072;0.77586377;0.12413408;;;;;;;;;;;;;;;
1422.0;1266.2;;;;-0.35013202;0.7666055;0.1286049;;;;;;;;;;;;;;;
1422.0;1266.2;;;;-0.35412982;0.7599603;0.13391115;;;;;;;;;;;;;;;
1422.0;1266.2;;;;-0.35680392;0.75410473;0.14050676;;;;;;;;;;;;;;;
1422.0;1266.2;;;;-0.36074832;0.74963385;0.14655305;;;;;;;;;;;;;;;
1423.0;1276.1;;;;-0.36167148;0.7446137;0.1534691;;;;;;;;;;;;;;;
1423.0;1276.1;;;;-0.3639336;0.74184424;0.16017915;;;;;;;;;;;;;;;
1423.0;1276.1;;;;-0.36653903;0.739647;0.16725542;;;;;;;;;;;;;;;
1423.0;1276.1;;;;-0.36758044;0.7370339;0.17416765;;;;;;;;;;;;;;;
1423.0;1276.1;;;;-0.3683243;0.7345124;0.17970659;;;;;;;;;;;;;;;
1423.0;1279.4;172298;172118;11422;;;;;;;;;;;;;;;;;;
1423.0;1284.6;;;;;;;;;;;;;482;;;;;;;;
1423.0;1284.6;;;;;;;;;;;;;-318;;;;;;;;
1423.0;1284.6;;;;;;;;;;;;;-1117;;;;;;;;
1423.0;1284.6;;;;;;;;;;;;;861;;;;;;;;
1423.0;1284.6;;;;;;;;;;;;;5868;;;;;;;;
1423.0;1286.2;;;;-0.3696747;0.7335511;0.18523027;;;;;;;;;;;;;;;
1423.0;1286.2;;;;-0.3710976;0.7333718;0.18896106;;;;;;;;;;;;;;;
1423.0;1286.2;;;;-0.37195972;0.7333489;0.1926308;;;;;;;;;;;;;;;
1423.0;1286.2;;;;-0.3712807;0.7326241;0.19532779;;;;;;;;;;;;;;;
1423.0;1286.2;;;;-0.37155917;0.73406607;0.19771197;;;;;;;;;;;;;;;
1423.0;1296.3;;;;-0.37315753;0.7359658;0.19994357;;;;;;;;;;;;;;;
1423.0;1296.3;;;;-0.37490085;0.73847204;0.20115665;;;;;;;;;;;;;;;
1423.0;1296.3;;;;-0.37641913;0.74047095;0.2022591;;;;;;;;;;;;;;;
1423.0;1296.3;;;;-0.3766938;0.7423745;0.20267871;;;;;;;;;;;;;;;
1423.0;1296.3;;;;-0.37673193;0.7448998;0.20144656;;;;;;;;;;;;;;;
1423.0;1299.7;188582;188591;11421;;;;;;;;;;;;;;;;;;
1428.0;1302.6;;;;;;;;;;;;;;;;;-104.52971;-63.833275;-61.864834;;1195.7
1428.0;1302.6;;;;;;;;;;;;;;0.9623707;0.0010986663;-0.085024565;;;;;1195.7
1428.0;1302.6;;;;;;;;;;;;;;;;;-109.55;-53.495132;-55.661945;;1195.7
1428.0;1302.6;;;;;;;;;;;;;;0.90804774;-0.015869625;-0.096499525;;;;;1195.7
1428.0;1302.6;;;;;;;;;;;;;;;;;-119.60586;-38.00699;-50.187687;;1205.3
1428.0;1302.6;;;;;;;;;;;;;;0.8653218;-0.020020142;-0.05835139;;;;;1205.3
1428.0;1302.6;;;;;;;;;;;;;;;;;-124.8207;-21.717735;-45.71291;;1205.3
1428.0;1302.6;;;;;;;;;;;;;;0.86587113;0.0043336283;0.006714072;;;;;1205.3
1428.0;1302.6;;;;;;;;;;;;;;;;;-124.988556;-9.0983305;-39.38032;;1214.8
1428.0;1302.6;;;;;;;;;;;;;;0.85763115;-0.04834132;0.028321177;;;;;1214.8
1428.0;1302.6;;;;;;;;;;;;;;;;;-124.988556;-2.55974;-34.78347;;1214.8
1428.0;1302.6;;;;;;;;;;;;;;0.7993408;-0.100711085;0.04504532;;;;;1214.8
1428.0;1306.3;;;;-0.37736517;0.74847037;0.20023349;;;;;;;;;;;;;;;
1428.0;1306.3;;;;-0.3773194;0.75219357;0.19906238;;;;;;;;;;;;;;;
1428.0;1306.3;;;;-0.3760453;0.7559968;0.19556811;;;;;;;;;;;;;;;
1428.0;1306.3;;;;-0.37520987;0.7603837;0.19219592;;;;;;;;;;;;;;;
1428.0;1306.3;;;;-0.37345508;0.7650186;0.18489839;;;;;;;;;;;;;;;
1429.0;1310.4;;;;;;;;;;;;;;;;;-124.9733;-2.3003328;-32.498398;;1224.5
1429.0;1310.4;;;;;;;;;;;;;;0.75045013;-0.10687582;0.008972442;;;;;1224.5
1429.0;1310.4;;;;;;;;;;;;;;;;;-124.18745;-3.460036;-28.836176;;1224.5
1429.0;1310.4;;;;;;;;;;;;;;0.7327494;-0.092043824;-0.07251198;;;;;1224.5
1429.0;1310.4;;;;;;;;;;;;;;;;;-122.42881;-0.8926664;-23.0224;;1234.1
1429.0;1310.4;;;;;;;;;;;;;;0.67806023;-0.11859493;-0.12707907;;;;;1234.1
1429.0;1310.4;;;;;;;;;;;;;;;;;-122.58522;1.7586291;-18.944365;;1234.1
1429.0;1310.4;;;;;;;;;;;;;;0.6016419;-0.12903225;-0.1530198;;;;;1234.1
1429.0;1310.4;;;;;;;;;;;;;;;;;-121.67729;0.6485183;-15.514847;;1243.8
1429.0;1310.4;;;;;;;;;;;;;;0.5244301;-0.15460677;-0.17175817;;;;;1243.8
1429.0;1310.4;;;;;;;;;;;;;;;;;-118.86578;-2.6741846;-10.399182;;1243.8
1429.0;1310.4;;;;;;;;;;;;;;0.48017824;-0.19330424;-0.19721061;;;;;1243.8
1429.0;1316.3;;;;-0.37163928;0.7692872;0.1760254;;;;;;;;;;;;;;;
1429.0;1316.3;;;;-0.368454;0.772606;0.16751482;;;;;;;;;;;;;;;
1429.0;1316.3;;;;-0.36435702;0.77767575;0.1587372;;;;;;;;;;;;;;;
1429.0;1316.3;;;;-0.35946658;0.7829629;0.1478882;;;;;;;;;;;;;;;
1429.0;1316.3;;;;-0.35358813;0.7884103;0.13769151;;;;;;;;;;;;;;;
1429.0;1319.6;204935;204955;11433;;;;;;;;;;;;;;;;;;
1429.0;1324.8;;;;;;;;;;;;;10577;;;;;;;;
1429.0;1324.8;;;;;;;;;;;;;11946;;;;;;;;
1429.0;1324.8;;;;;;;;;;;;;10802;;;;;;;;
1429.0;1324.8;;;;;;;;;;;;;10007;;;;;;;;
1429.0;1324.8;;;;;;;;;;;;;10517;;;;;;;;
1430.0;1326.2;;;;-0.34870914;0.7948648;0.12910081;;;;;;;;;;;;;;;
1430.0;1326.2;;;;-0.34505084;0.8008691;0.122676864;;;;;;;;;;;;;;;
1430.0;1326.2;;;;-0.34446338;0.8067781;0.11949922;;;;;;;;;;;;;;;
1430.0;1326.2;;;;-0.34632495;0.8129579;0.11989595;;;;;;;;;;;;;;;
1430.0;1326.2;;;;-0.3498955;0.819584;0.12307741;;;;;;;;;;;;;;;
1430.0;1336.3;;;;-0.3568993;0.8274499;0.12887956;;;;;;;;;;;;;;;
1430.0;1336.3;;;;-0.36428455;0.83490765;0.1361313;;;;;;;;;;;;;;;
1430.0;1336.3;;;;-0.37710196;0.843506;0.1446953;;;;;;;;;;;;;;;
1430.0;1336.3;;;;-0.38940436;0.85186017;0.15582277;;;;;;;;;;;;;;;
1430.0;1336.3;;;;-0.4013024;0.8602296;0.16936494;;;;;;;;;;;;;;;
1430.0;1339.7;221344;221365;11430;;;;;;;;;;;;;;;;;;
1430.0;1346.4;;;;-0.41640478;0.8708497;0.18312456;;;;;;;;;;;;;;;
1430.0;1346.4;;;;-0.43259054;0.8839799;0.19985202;;;;;;;;;;;;;;;
1430.0;1346.4;;;;-0.4432183;0.8966485;0.21636966;;;;;;;;;;;;;;;
1430.0;1346.4;;;;-0.4537621;0.9093324;0.23295596;;;;;;;;;;;;;;;
1430.0;1346.4;;;;-0.4639321;0.92351925;0.24853137;;;;;;;;;;;;;;;
1430.0;1356.5;;;;-0.47259146;0.93795025;0.26503375;;;;;;;;;;;;;;;
1430.0;1356.5;;;;-0.4801827;0.95082486;0.28096774;;;;;;;;;;;;;;;
1430.0;1356.5;;;;-0.4873429;0.9653474;0.29589465;;;;;;;;;;;;;;;
1430.0;1356.5;;;;-0.496193;0.9792291;0.31154254;;;;;;;;;;;;;;;
1430.0;1356.5;;;;-0.5029183;0.9915849;0.32669452;;;;;;;;;;;;;;;
1431.0;1360.0;237673;237721;11432;;;;;;;;;;;;;;;;;;
1431.0;1362.9;;;;;;;;;;;;;;;;;-117.671745;-5.1957765;-5.2072206;;1253.3
1431.0;1362.9;;;;;;;;;;;;;;0.46620074;-0.23303933;-0.19977416;;;;;1253.3
1431.0;1362.9;;;;;;;;;;;;;;;;;-117.179634;-11.394848;1.2131108;;1253.3
1431.0;1362.9;;;;;;;;;;;;;;0.4499649;-0.29114658;-0.21576586;;;;;1253.3
1431.0;1362.9;;;;;;;;;;;;;;;;;-112.842186;-20.081179;9.899441;;1263.0
1431.0;1362.9;;;;;;;;;;;;;;0.4333018;-0.3632313;-0.23883785;;;;;1263.0
1431.0;1362.9;;;;;;;;;;;;;;;;;-108.48949;-25.452436;18.913847;;1263.0
1431.0;1362.9;;;;;;;;;;;;;;0.42927337;-0.41560107;-0.26075014;;;;;1263.0
1431.0;1362.9;;;;;;;;;;;;;;;;;-105.78097;-25.250252;27.41325;;1272.7
1431.0;1362.9;;;;;;;;;;;;;;0.4113895;-0.47688222;-0.26392406;;;;;1272.7
1431.0;1362.9;;;;;;;;;;;;;;;;;-101.031525;-24.84588;32.265694;;1272.7
1431.0;1362.9;;;;;;;;;;;;;;0.38471633;-0.53529465;-0.27362895;;;;;1272.7
1431.0;1365.1;;;;;;;;;;;;;10544;;;;;;;;
1431.0;1365.1;;;;;;;;;;;;;9650;;;;;;;;
1431.0;1365.1;;;;;;;;;;;;;8881;;;;;;;;
1431.0;1365.1;;;;;;;;;;;;;8085;;;;;;;;
1431.0;1365.1;;;;;;;;;;;;;7260;;;;;;;;
1431.0;1366.5;;;;-0.5095406;1.0020028;0.34148028;;;;;;;;;;;;;;;
1431.0;1366.5;;;;-0.51515204;1.0096589;0.35543445;;;;;;;;;;;;;;;
1431.0;1366.5;;;;-0.51969534;1.0149347;0.3687897;;;;;;;;;;;;;;;
1431.0;1366.5;;;;-0.5226708;1.0182878;0.38089377;;;;;;;;;;;;;;;
1431.0;1366.5;;;;-0.52644736;1.0194932;0.39132696;;;;;;;;;;;;;;;
1482.0;1370.3;;;;;;;;;;;;;;;;;-89.228485;-27.82525;30.724508;;1282.3
1482.0;1370.3;;;;;;;;;;;;;;0.37745294;-0.5592822;-0.32160404;;;;;1282.3
1482.0;1370.3;;;;;;;;;;;;;;;;;-69.93697;-31.33488;30.873287;;1282.3
1482.0;1370.3;;;;;;;;;;;;;;0.36902982;-0.5565966;-0.35126805;;;;;1282.3
1482.0;1370.3;;;;;;;;;;;;;;;;;-49.33317;-37.076176;35.294655;;1292.0
1482.0;1370.3;;;;;;;;;;;;;;0.36335337;-0.5800348;-0.41737112;;;;;1292.0
1482.0;1370.3;;;;;;;;;;;;;;;;;-22.839289;-43.298138;42.538986;;1292.0
1482.0;1370.3;;;;;;;;;;;;;;0.3336894;-0.61488694;-0.4497818;;;;;1292.0
1482.0;1370.3;;;;;;;;;;;;;;;;;-0.2784814;-50.183872;51.03839;;1301.6
1482.0;1370.3;;;;;;;;;;;;;;0.27539903;-0.6865444;-0.47791985;;;;;1301.6
1482.0;1370.3;;;;;;;;;;;;;;;;;19.451736;-58.389538;52.766502;;1301.6
1482.0;1370.3;;;;;;;;;;;;;;0.23633534;-0.7795648;-0.5445723;;;;;1301.6
1482.0;1376.5;;;;-0.5289307;1.0188295;0.4009171;;;;;;;;;;;;;;;
1482.0;1376.5;;;;-0.53005606;1.0159837;0.40879446;;;;;;;;;;;;;;;
1482.0;1376.5;;;;-0.5284501;1.0108224;0.41517645;;;;;;;;;;;;;;;
1482.0;1376.5;;;;-0.5268708;1.0037996;0.4189263;;;;;;;;;;;;;;;
1482.0;1376.5;;;;-0.52522665;0.9954339;0.42264563;;;;;;;;;;;;;;;
1482.0;1379.9;254146;254101;11439;;;;;;;;;;;;;;;;;;
1482.0;1386.4;;;;-0.52247626;0.9858781;0.4247628;;;;;;;;;;;;;;;
1482.0;1386.4;;;;-0.5189019;0.9769021;0.42501074;;;;;;;;;;;;;;;
1482.0;1386.4;;;;-0.5145722;0.96798337;0.4234162;;;;;;;;;;;;;;;
1482.0;1386.4;;;;-0.5110665;0.95871747;0.42104727;;;;;;;;;;;;;;;
1482.0;1386.4;;;;-0.5072518;0.9508401;0.41846853;;;;;;;;;;;;;;;
1484.0;1396.1;;;;-0.5036889;0.9440042;0.4150315;;;;;;;;;;;;;;;
1484.0;1396.1;;;;-0.50109106;0.93789685;0.4112435;;;;;;;;;;;;;;;
1484.0;1396.1;;;;-0.49872977;0.9331895;0.40684134;;;;;;;;;;;;;;;
1484.0;1396.1;;;;-0.49669272;0.9300271;0.4013024;;;;;;;;;;;;;;;
1484.0;1396.1;;;;-0.49576956;0.92837155;0.39718634;;;;;;;;;;;;;;;
1484.0;1399.7;262143;262143;11424;;;;;;;;;;;;;;;;;;
1484.0;1404.9;;;;;;;;;;;;;7407;;;;;;;;
1484.0;1404.9;;;;;;;;;;;;;9020;;;;;;;;
1484.0;1404.9;;;;;;;;;;;;;8570;;;;;;;;
1484.0;1404.9;;;;;;;;;;;;;289;;;;;;;;
1484.0;1404.9;;;;;;;;;;;;;-12754;;;;;;;;
1484.0;1406.3;;;;-0.49549872;0.92826474;0.39186484;;;;;;;;;;;;;;;
1484.0;1406.3;;;;-0.49555212;0.9295541;0.38551337;;;;;;;;;;;;;;;
1484.0;1406.3;;;;-0.49636465;0.9321557;0.3792153;;;;;;;;;;;;;;;
1484.0;1406.3;;;;-0.4973603;0.93663037;0.37347034;;;;;;;;;;;;;;;
1484.0;1406.3;;;;-0.49778754;0.9420701;0.36799243;;;;;;;;;;;;;;;
1484.0;1416.4;;;;-0.49862295;0.9493104;0.3646622;;;;;;;;;;;;;;;
1484.0;1416.4;;;;-0.5012284;0.95822537;0.3609009;;;;;;;;;;;;;;;
1484.0;1416.4;;;;-0.5054055;0.9683305;0.35987857;;;;;;;;;;;;;;;
1484.0;1416.4;;;;-0.51033026;0.9792367;0.3601723;;;;;;;;;;;;;;;
1484.0;1416.4;;;;-0.5163041;0.9907762;0.3630524;;;;;;;;;;;;;;;
1484.0;1420.0;262143;262143;11424;;;;;;;;;;;;;;;;;;
1485.0;1422.9;;;;;;;;;;;;;;;;;40.330208;-58.465836;51.4275;;1311.3
1485.0;1422.9;;;;;;;;;;;;;;0.24463637;-0.82381666;-0.5691702;;;;;1311.3
1485.0;1422.9;;;;;;;;;;;;;;;;;56.848354;-44.534134;50.519577;;1311.3
1485.0;1422.9;;;;;;;;;;;;;;0.27045503;-0.8647725;-0.48951688;;;;;1311.3
1485.0;1422.9;;;;;;;;;;;;;;;;;70.83727;-23.888363;51.73269;;1320.7
1485.0;1422.9;;;;;;;;;;;;;;0.3007294;-0.87508774;-0.3251442;;;;;1320.7
1485.0;1422.9;;;;;;;;;;;;;;;;;79.91653;-5.500962;55.31861;;1320.7
1485.0;1422.9;;;;;;;;;;;;;;0.3717765;-0.88174075;-0.21192053;;;;;1320.7
1485.0;1422.9;;;;;;;;;;;;;;;;;89.27427;12.279885;61.407055;;1330.4
1485.0;1422.9;;;;;;;;;;;;;;0.44874418;-0.8890652;-0.08832057;;;;;1330.4
1485.0;1422.9;;;;;;;;;;;;;;;;;88.20231;31.353954;61.3155;;1330.4
1485.0;1422.9;;;;;;;;;;;;;;0.54487747;-0.8597064;0.0253914;;;;;1330.4
1485.0;1423.6;;;;;;;;;;;;;;;;;84.59349;44.644764;62.868134;;1340.0
1485.0;1423.6;;;;;;;;;;;;;;0.61293375;-0.7260964;0.119083226;;;;;1340.0
1485.0;1423.6;;;;;;;;;;;;;;;;;81.11438;48.100986;66.51509;;1340.0
1485.0;1423.6;;;;;;;;;;;;;;0.7086398;-0.43305764;0.21521653;;;;;1340.0
1485.0;1423.6;;;;;;;;;;;;;;;;;70.085754;51.66402;62.158573;;1349.6
1485.0;1423.6;;;;;;;;;;;;;;0.918424;-0.057374798;0.34485915;;;;;1349.6
1485.0;1423.6;;;;;;;;;;;;;;;;;60.65935;69.956055;55.059204;;1349.6
1485.0;1423.6;;;;;;;;;;;;;;1.0401928;0.034058657;0.4161504;;;;;1349.6
1485.0;1423.6;;;;;;;;;;;;;;;;;68.51405;84.56679;38.583027;;1359.3
1485.0;1423.6;;;;;;;;;;;;;;1.0801722;0.09833064;0.36793116;;;;;1359.3
1485.0;1423.6;;;;;;;;;;;;;;;;;91.94464;81.14871;3.051851;;1359.3
1485.0;1423.6;;;;;;;;;;;;;;1.0428785;0.15320292;0.09161656;;;;;1359.3
1541.0;1426.2;;;;-0.5235215;1.0029298;0.36723712;;;;;;;;;;;;;;;
1541.0;1426.2;;;;-0.5314637;1.0152627;0.3732758;;;;;;;;;;;;;;;
1541.0;1426.2;;;;-0.5392228;1.0278817;0.38161474;;;;;;;;;;;;;;;
1541.0;1426.2;;;;-0.54739004;1.040352;0.39051825;;;;;;;;;;;;;;;
1541.0;1426.2;;;;-0.555378;1.0530359;0.39992148;;;;;;;;;;;;;;;
1541.0;1436.3;;;;-0.5632668;1.065426;0.4103127;;;;;;;;;;;;;;;
1541.0;1436.3;;;;-0.57088476;1.0761644;0.42138296;;;;;;;;;;;;;;;
1541.0;1436.3;;;;-0.5784951;1.0864946;0.43235403;;;;;;;;;;;;;;;
1541.0;1436.3;;;;-0.5857888;1.0956689;0.44285208;;;;;;;;;;;;;;;
1541.0;1436.3;;;;-0.5924836;1.1038324;0.45283133;;;;;;;;;;;;;;;
1541.0;1439.9;262143;262143;11421;;;;;;;;;;;;;;;;;;
1541.0;1445.1;;;;;;;;;;;;;-17573;;;;;;;;
1541.0;1445.1;;;;;;;;;;;;;-7174;;;;;;;;
1541.0;1445.1;;;;;;;;;;;;;9280;;;;;;;;
1541.0;1445.1;;;;;;;;;;;;;17124;;;;;;;;
1541.0;1445.1;;;;;;;;;;;;;13124;;;;;;;;
1541.0;1446.3;;;;-0.5990334;1.1105615;0.46210867;;;;;;;;;;;;;;;
1541.0;1446.3;;;;-0.60594565;1.1165124;0.47194296;;;;;;;;;;;;;;;
1541.0;1446.3;;;;-0.6107903;1.1213838;0.4813195;;;;;;;;;;;;;;;
1541.0;1446.3;;;;-0.61590964;1.1252176;0.49120718;;;;;;;;;;;;;;;
1541.0;1446.3;;;;-0.6197358;1.1281396;0.5011521;;;;;;;;;;;;;;;
1543.0;1456.2;;;;-0.62318045;1.1300813;0.50926214;;;;;;;;;;;;;;;
1543.0;1456.2;;;;-0.62601477;1.1310693;0.5170403;;;;;;;;;;;;;;;
1543.0;1456.2;;;;-0.62551886;1.1306916;0.5250817;;;;;;;;;;;;;;;
1543.0;1456.2;;;;-0.627842;1.1299897;0.5291596;;;;;;;;;;;;;;;
1543.0;1456.2;;;;-0.6324044;1.1292726;0.53204733;;;;;;;;;;;;;;;
1543.0;1459.9;262143;262143;11415;;;;;;;;;;;;;;;;;;
1543.0;1466.3;;;;-0.6355973;1.1273309;0.535122;;;;;;;;;;;;;;;
1543.0;1466.3;;;;-0.63867193;1.1247636;0.5378457;;;;;;;;;;;;;;;
1543.0;1466.3;;;;-0.6405869;1.1216317;0.5402642;;;;;;;;;;;;;;;
1543.0;1466.3;;;;-0.64170843;1.1176835;0.5408974;;;;;;;;;;;;;;;
1543.0;1466.3;;;;-0.6421929;1.1133653;0.53991324;;;;;;;;;;;;;;;
1543.0;1476.4;;;;-0.64272696;1.1088258;0.5386124;;;;;;;;;;;;;;;
1543.0;1476.4;;;;-0.6428643;1.1045724;0.5352593;;;;;;;;;;;;;;;
1543.0;1476.4;;;;-0.6457177;1.1009218;0.5300942;;;;;;;;;;;;;;;
1543.0;1476.4;;;;-0.6475106;1.0970613;0.52540976;;;;;;;;;;;;;;;
1543.0;1476.4;;;;-0.6492005;1.0933763;0.5196038;;;;;;;;;;;;;;;
1543.0;1480.2;262143;262143;11401;;;;;;;;;;;;;;;;;;
1544.0;1482.9;;;;;;;;;;;;;;;;;121.68492;51.698357;-54.242836;;1368.9
1544.0;1482.9;;;;;;;;;;;;;;0.9886776;0.40632343;-0.3126316;;;;;1368.9
1544.0;1482.9;;;;;;;;;;;;;;;;;124.988556;2.8191473;-111.45741;;1368.9
1544.0;1482.9;;;;;;;;;;;;;;1.0112003;0.7278665;-0.97885066;;;;;1368.9
1544.0;1482.9;;;;;;;;;;;;;;;;;124.988556;-56.329536;-124.97711;;1378.5
1544.0;1482.9;;;;;;;;;;;;;;0.96267587;1.1176488;-1.5472274;;;;;1378.5
1544.0;1482.9;;;;;;;;;;;;;;;;;124.988556;-102.97708;-124.988556;;1378.5
1544.0;1482.9;;;;;;;;;;;;;;0.9335612;1.6013062;-1.9978026;;;;;1378.5
1544.0;1482.9;;;;;;;;;;;;;;;;;124.988556;-108.58868;-112.75063;;1388.1
1544.0;1482.9;;;;;;;;;;;;;;0.9238563;1.9555041;-1.9979857;;;;;1388.1
1544.0;1482.9;;;;;;;;;;;;;;;;;124.86648;-87.41646;-71.184425;;1388.1
1544.0;1482.9;;;;;;;;;;;;;;1.0977508;1.9909055;-1.945555;;;;;1388.1
1544.0;1483.7;;;;;;;;;;;;;;;;;87.79031;-31.785027;-30.034027;;1397.7
1544.0;1483.7;;;;;;;;;;;;;;1.3230385;1.9979857;-1.9137547;;;;;1397.7
1544.0;1483.7;;;;;;;;;;;;;;;;;-8.384961;-18.429365;-1.4305551;;1397.7
1544.0;1483.7;;;;;;;;;;;;;;1.6135136;1.9979857;-1.4334544;;;;;1397.7
1544.0;1483.7;;;;;;;;;;;;;;;;;-108.56579;-2.55974;24.952696;;1407.4
1544.0;1483.7;;;;;;;;;;;;;;1.4660481;1.9938962;-1.3489791;;;;;1407.4
1544.0;1483.7;;;;;;;;;;;;;;;;;-124.9733;6.672109;32.76162;;1407.4
1544.0;1483.7;;;;;;;;;;;;;;1.1150852;1.5949583;-1.0408032;;;;;1407.4
1544.0;1483.7;;;;;;;;;;;;;;;;;-123.28333;-4.0093694;42.260506;;1417.0
1544.0;1483.7;;;;;;;;;;;;;;0.7579577;1.0910367;-0.6657918;;;;;1417.0
1544.0;1483.7;;;;;;;;;;;;;;;;;-121.82607;-54.368725;40.29206;;1417.0
1544.0;1483.7;;;;;;;;;;;;;;0.68813133;0.7686392;-0.98403883;;;;;1417.0
1597.0;1485.1;;;;;;;;;;;;;6178;;;;;;;;
1597.0;1485.1;;;;;;;;;;;;;3479;;;;;;;;
1597.0;1485.1;;;;;;;;;;;;;3536;;;;;;;;
1597.0;1485.1;;;;;;;;;;;;;3088;;;;;;;;
1597.0;1485.1;;;;;;;;;;;;;2443;;;;;;;;
1597.0;1486.3;;;;-0.6500626;1.0901414;0.5135804;;;;;;;;;;;;;;;
1597.0;1486.3;;;;-0.65310293;1.0886804;0.50622183;;;;;;;;;;;;;;;
1597.0;1486.3;;;;-0.65536886;1.0885698;0.49929434;;;;;;;;;;;;;;;
1597.0;1486.3;;;;-0.6593209;1.090046;0.49104697;;;;;;;;;;;;;;;
1597.0;1486.3;;;;-0.6619187;1.093197;0.4845963;;;;;;;;;;;;;;;
1597.0;1496.2;;;;-0.6659394;1.0983735;0.47658163;;;;;;;;;;;;;;;
1597.0;1496.2;;;;-0.6681214;1.1053811;0.47048956;;;;;;;;;;;;;;;
1597.0;1496.2;;;;-0.67255026;1.1150094;0.4629174;;;;;;;;;;;;;;;
1597.0;1496.2;;;;-0.67698675;1.1275064;0.456379;;;;;;;;;;;;;;;
1597.0;1496.2;;;;-0.6799317;1.1419564;0.45083624;;;;;;;;;;;;;;;
1597.0;1500.0;262143;262143;11394;;;;;;;;;;;;;;;;;;
1597.0;1506.1;;;;-0.68241507;1.1583711;0.44614416;;;;;;;;;;;;;;;
1597.0;1506.1;;;;-0.6847344;1.175831;0.442051;;;;;;;;;;;;;;;
1597.0;1506.1;;;;-0.68619543;1.1948854;0.43915182;;;;;;;;;;;;;;;
1597.0;1506.1;;;;-0.68840796;1.2142755;0.43686682;;;;;;;;;;;;;;;
1597.0;1506.1;;;;-0.68822104;1.2329293;0.43552786;;;;;;;;;;;;;;;
1656.0;1516.2;;;;-0.6906243;1.252041;0.43386465;;;;;;;;;;;;;;;
1656.0;1516.2;;;;-0.692257;1.2703286;0.4340058;;;;;;;;;;;;;;;
1656.0;1516.2;;;;-0.6930123;1.2874299;0.4349175;;;;;;;;;;;;;;;
1656.0;1516.2;;;;-0.69289404;1.3027192;0.4352303;;;;;;;;;;;;;;;
1656.0;1516.2;;;;-0.6922303;1.31625;0.43507773;;;;;;;;;;;;;;;
1656.0;1520.1;262143;262143;11393;;;;;;;;;;;;;;;;;;
1656.0;1525.2;;;;;;;;;;;;;2145;;;;;;;;
1656.0;1525.2;;;;;;;;;;;;;1622;;;;;;;;
1656.0;1525.2;;;;;;;;;;;;;912;;;;;;;;
1656.0;1525.2;;;;;;;;;;;;;210;;;;;;;;
1656.0;1525.2;;;;;;;;;;;;;-416;;;;;;;;
1656.0;1526.3;;;;-0.6905709;1.3272477;0.43381506;;;;;;;;;;;;;;;
1656.0;1526.3;;;;-0.6880036;1.3358575;0.4316674;;;;;;;;;;;;;;;
1656.0;1526.3;;;;-0.6865426;1.3424569;0.42859274;;;;;;;;;;;;;;;
1656.0;1526.3;;;;-0.6856423;1.3469926;0.425232;;;;;;;;;;;;;;;
1656.0;1526.3;;;;-0.6861077;1.3508645;0.4219895;;;;;;;;;;;;;;;
1656.0;1536.4;;;;-0.6859208;1.3526841;0.41793066;;;;;;;;;;;;;;;
1656.0;1536.4;;;;-0.6850892;1.3528787;0.4143601;;;;;;;;;;;;;;;
1656.0;1536.4;;;;-0.68508154;1.3520738;0.41088492;;;;;;;;;;;;;;;
1656.0;1536.4;;;;-0.6848183;1.3514253;0.4063607;;;;;;;;;;;;;;;
1656.0;1536.4;;;;-0.684105;1.3503228;0.4030152;;;;;;;;;;;;;;;
1656.0;1540.3;262143;262143;11389;;;;;;;;;;;;;;;;;;
1658.0;1543.2;;;;;;;;;;;;;;;;;-113.96756;-75.29679;33.825954;;1426.7
1658.0;1543.2;;;;;;;;;;;;;;0.6072573;0.5426191;-1.2048707;;;;;1426.7
1658.0;1543.2;;;;;;;;;;;;;;;;;-101.08493;-71.17298;29.854733;;1426.7
1658.0;1543.2;;;;;;;;;;;;;;0.44160283;0.3345439;-1.1639149;;;;;1426.7
1658.0;1543.2;;;;;;;;;;;;;;;;;-107.73034;-47.055725;25.1854;;1436.3
1658.0;1543.2;;;;;;;;;;;;;;0.32764673;0.20764793;-0.93832207;;;;;1436.3
1658.0;1543.2;;;;;;;;;;;;;;;;;-123.53511;-15.213477;35.39384;;1436.3
1658.0;1543.2;;;;;;;;;;;;;;0.34290597;0.063417464;-0.6535234;;;;;1436.3
1658.0;1543.2;;;;;;;;;;;;;;;;;-124.988556;5.1957765;68.5255;;1445.8
1658.0;1543.2;;;;;;;;;;;;;;0.47431868;-0.054383986;-0.45295572;;;;;1445.8
1658.0;1543.2;;;;;;;;;;;;;;;;;-124.988556;14.206367;112.414925;;1445.8
1658.0;1543.2;;;;;;;;;;;;;;0.6728721;-0.14069033;-0.19965209;;;;;1445.8
1658.0;1544.0;;;;;;;;;;;;;;;;;-124.988556;11.76107;124.96567;;1455.4
1658.0;1544.0;;;;;;;;;;;;;;1.0160222;-0.23218483;-0.120365;;;;;1455.4
1658.0;1544.0;;;;;;;;;;;;;;;;;-124.988556;23.293253;124.988556;;1455.4
1658.0;1544.0;;;;;;;;;;;;;;1.352092;-0.6107364;-0.26648763;;;;;1455.4
1658.0;1544.0;;;;;;;;;;;;;;;;;-124.988556;52.079838;124.988556;;1465.0
1658.0;1544.0;;;;;;;;;;;;;;1.5326395;-0.86306345;-0.1909238;;;;;1465.0
1658.0;1544.0;;;;;;;;;;;;;;;;;-124.64141;66.846985;124.988556;;1465.0
1658.0;1544.0;;;;;;;;;;;;;;1.5504624;-1.081515;-0.124881744;;;;;1465.0
1658.0;1544.0;;;;;;;;;;;;;;;;;-117.728966;72.79809;124.988556;;1474.7
1658.0;1544.0;;;;;;;;;;;;;;1.4126408;-1.284402;-0.12244026;;;;;1474.7
1658.0;1544.0;;;;;;;;;;;;;;;;;-95.229195;71.42857;124.988556;;1474.7
1658.0;1544.0;;;;;;;;;;;;;;1.1122776;-1.4405347;-0.12689596;;;;;1474.7
1780.0;1546.4;;;;-0.6836663;1.349434;0.3996964;;;;;;;;;;;;;;;
1780.0;1546.4;;;;-0.68248373;1.3490754;0.39688498;;;;;;;;;;;;;;;
1780.0;1546.4;;;;-0.6816979;1.3488466;0.3947068;;;;;;;;;;;;;;;
1780.0;1546.4;;;;-0.6810189;1.3495675;0.39235312;;;;;;;;;;;;;;;
1780.0;1546.4;;;;-0.67976004;1.3507348;0.3905068;;;;;;;;;;;;;;;
1780.0;1556.4;;;;-0.6782914;1.3521348;0.38831717;;;;;;;;;;;;;;;
1780.0;1556.4;;;;-0.6764565;1.354088;0.38619238;;;;;;;;;;;;;;;
1780.0;1556.4;;;;-0.6742974;1.3564569;0.38434607;;;;;;;;;;;;;;;
1780.0;1556.4;;;;-0.6716042;1.358555;0.3831864;;;;;;;;;;;;;;;
1780.0;1556.4;;;;-0.6691666;1.3605119;0.3811074;;;;;;;;;;;;;;;
1780.0;1560.3;262143;262143;11381;;;;;;;;;;;;;;;;;;
1780.0;1565.4;;;;;;;;;;;;;-781;;;;;;;;
1780.0;1565.4;;;;;;;;;;;;;-1068;;;;;;;;
1780.0;1565.4;;;;;;;;;;;;;-1523;;;;;;;;
1780.0;1565.4;;;;;;;;;;;;;-2080;;;;;;;;
1780.0;1565.4;;;;;;;;;;;;;-2705;;;;;;;;
1780.0;1566.4;;;;-0.66637427;1.3615037;0.38011175;;;;;;;;;;;;;;;
1780.0;1566.4;;;;-0.6628037;1.3621598;0.37844473;;;;;;;;;;;;;;;
1780.0;1566.4;;;;-0.6595078;1.3615457;0.37775046;;;;;;;;;;;;;;;
1780.0;1566.4;;;;-0.65575415;1.3598024;0.37660223;;;;;;;;;;;;;;;
1780.0;1566.4;;;;-0.6511536;1.3565103;0.37432864;;;;;;;;;;;;;;;
1783.0;1576.4;;;;-0.6459237;1.3514253;0.37337878;;;;;;;;;;;;;;;
1783.0;1576.4;;;;-0.64052206;1.344616;0.37283328;;;;;;;;;;;;;;;
1783.0;1576.4;;;;-0.6348725;1.3363343;0.37118533;;;;;;;;;;;;;;;
1783.0;1576.4;;;;-0.6283608;1.3258477;0.36954883;;;;;;;;;;;;;;;
1783.0;1576.4;;;;-0.6222306;1.3134652;0.36724475;;;;;;;;;;;;;;;
1783.0;1580.4;262143;262143;11393;;;;;;;;;;;;;;;;;;
1783.0;1586.5;;;;-0.61546713;1.2997018;0.36458972;;;;;;;;;;;;;;;
1783.0;1586.5;;;;-0.6086312;1.2845422;0.36213306;;;;;;;;;;;;;;;
1783.0;1586.5;;;;-0.6019326;1.2684976;0.35898593;;;;;;;;;;;;;;;
1783.0;1586.5;;;;-0.59486777;1.2515146;0.35507587;;;;;;;;;;;;;;;
1783.0;1586.5;;;;-0.5885125;1.2343446;0.35195926;;;;;;;;;;;;;;;
1783.0;1596.6;;;;-0.5832024;1.2173082;0.34822467;;;;;;;;;;;;;;;
1783.0;1596.6;;;;-0.5779534;1.200615;0.34357837;;;;;;;;;;;;;;;
1783.0;1596.6;;;;-0.57300574;1.1839639;0.33845142;;;;;;;;;;;;;;;
1783.0;1596.6;;;;-0.5687333;1.1680528;0.33417895;;;;;;;;;;;;;;;
1783.0;1596.6;;;;-0.56446844;1.1524583;0.32882312;;;;;;;;;;;;;;;
1783.0;1600.7;262143;262143;11388;;;;;;;;;;;;;;;;;;
1786.0;1603.9;;;;;;;;;;;;;;;;;-74.86572;59.66369;124.988556;;1484.3
1786.0;1603.9;;;;;;;;;;;;;;0.7677236;-1.5848873;-0.05694754;;;;;1484.3
1786.0;1603.9;;;;;;;;;;;;;;;;;-56.028168;29.049807;124.946594;;1484.3
1786.0;1603.9;;;;;;;;;;;;;;0.5510422;-1.7683035;-0.1805475;;;;;1484.3
1786.0;1603.9;;;;;;;;;;;;;;;;;-13.863032;-12.57744;91.055786;;1494.0
1786.0;1603.9;;;;;;;;;;;;;;0.6568804;-1.2323984;-0.3483993;;;;;1494.0
1786.0;1603.9;;;;;;;;;;;;;;;;;-15.049439;-45.10254;6.0922575;;1494.0
1786.0;1603.9;;;;;;;;;;;;;;0.99398786;-0.51045257;-0.6610919;;;;;1494.0
1786.0;1603.9;;;;;;;;;;;;;;;;;-13.763847;-56.428722;-57.058167;;1503.7
1786.0;1603.9;;;;;;;;;;;;;;1.0694907;-0.31434065;-0.90377516;;;;;1503.7
1786.0;1603.9;;;;;;;;;;;;;;;;;7.965331;-43.294323;-112.125;;1503.7
1786.0;1603.9;;;;;;;;;;;;;;1.2553483;-0.0844142;-0.98294014;;;;;1503.7
1786.0;1604.5;;;;;;;;;;;;;;;;;34.88647;-15.709402;-124.89319;;1513.2
1786.0;1604.5;;;;;;;;;;;;;;1.2817774;-0.19177832;-0.8270516;;;;;1513.2
1786.0;1604.5;;;;;;;;;;;;;;;;;38.575397;42.523727;-124.988556;;1513.2
1786.0;1604.5;;;;;;;;;;;;;;1.58446;0.20300913;-0.537553;;;;;1513.2
1786.0;1604.5;;;;;;;;;;;;;;;;;-17.456587;102.14926;-124.988556;;1522.9
1786.0;1604.5;;;;;;;;;;;;;;1.787225;0.89901423;-0.017456587;;;;;1522.9
1786.0;1604.5;;;;;;;;;;;;;;;;;-59.41954;91.75771;-124.988556;;1522.9
1786.0;1604.5;;;;;;;;;;;;;;1.8475295;1.5883054;0.11304056;;;;;1522.9
1786.0;1604.5;;;;;;;;;;;;;;;;;-56.77587;73.76324;-123.79452;;1532.5
1786.0;1604.5;;;;;;;;;;;;;;1.6602069;1.9962767;0.47840816;;;;;1532.5
1786.0;1604.5;;;;;;;;;;;;;;;;;-91.40293;42.741173;-56.985687;;1532.5
1786.0;1604.5;;;;;;;;;;;;;;1.1644032;1.6389661;0.18439284;;;;;1532.5
1788.0;1605.5;;;;;;;;;;;;;-3293;;;;;;;;
1788.0;1605.5;;;;;;;;;;;;;-3651;;;;;;;;
1788.0;1605.5;;;;;;;;;;;;;-3742;;;;;;;;
1788.0;1605.5;;;;;;;;;;;;;-3685;;;;;;;;
1788.0;1605.5;;;;;;;;;;;;;-3665;;;;;;;;
1788.0;1606.4;;;;-0.5601502;1.1377069;0.32446292;;;;;;;;;;;;;;;
1788.0;1606.4;;;;-0.55590826;1.1243745;0.3200951;;;;;;;;;;;;;;;
1788.0;1606.4;;;;-0.55169684;1.111561;0.31567386;;;;;;;;;;;;;;;
1788.0;1606.4;;;;-0.5477219;1.0994188;0.31142047;;;;;;;;;;;;;;;
1788.0;1606.4;;;;-0.5437928;1.0898286;0.30721286;;;;;;;;;;;;;;;
1788.0;1616.5;;;;-0.53973395;1.0808069;0.30269244;;;;;;;;;;;;;;;
1788.0;1616.5;;;;-0.5366669;1.0729219;0.2980576;;;;;;;;;;;;;;;
1788.0;1616.5;;;;-0.53363043;1.0668985;0.29384616;;;;;;;;;;;;;;;
1788.0;1616.5;;;;-0.53139883;1.0630609;0.29030612;;;;;;;;;;;;;;;
1788.0;1616.5;;;;-0.5290604;1.0606118;0.28704074;;;;;;;;;;;;;;;
1788.0;1620.5;262143;262143;11400;;;;;;;;;;;;;;;;;;
1788.0;1626.4;;;;-0.5275994;1.0598451;0.28235248;;;;;;;;;;;;;;;
1788.0;1626.4;;;;-0.52678686;1.0615083;0.27808765;;;;;;;;;;;;;;;
1788.0;1626.4;;;;-0.52650076;1.0653459;0.2733002;;;;;;;;;;;;;;;
1788.0;1626.4;;;;-0.5259896;1.070511;0.26951984;;;;;;;;;;;;;;;
1788.0;1626.4;;;;-0.52642447;1.0781022;0.26617435;;;;;;;;;;;;;;;
1789.0;1636.2;;;;-0.5259629;1.0875818;0.2627106;;;;;;;;;;;;;;;
1789.0;1636.2;;;;-0.52629477;1.0979577;0.25980762;;;;;;;;;;;;;;;
1789.0;1636.2;;;;-0.52639776;1.1098748;0.25613025;;;;;;;;;;;;;;;
1789.0;1636.2;;;;-0.5263291;1.1229249;0.25441363;;;;;;;;;;;;;;;
1789.0;1636.2;;;;-0.52561575;1.1368943;0.2525864;;;;;;;;;;;;;;;
1789.0;1640.4;262143;262143;11389;;;;;;;;;;;;;;;;;;
1789.0;1645.5;;;;;;;;;;;;;-3762;;;;;;;;
1789.0;1645.5;;;;;;;;;;;;;-3825;;;;;;;;
1789.0;1645.5;;;;;;;;;;;;;-3611;;;;;;;;
1789.0;1645.5;;;;;;;;;;;;;-3155;;;;;;;;
1789.0;1645.5;;;;;;;;;;;;;-2637;;;;;;;;
1789.0;1646.3;;;;-0.5242997;1.1516877;0.25186542;;;;;;;;;;;;;;;
1789.0;1646.3;;;;-0.5225602;1.1666795;0.25131992;;;;;;;;;;;;;;;
1789.0;1646.3;;;;-0.5201798;1.182438;0.25043872;;;;;;;;;;;;;;;
1789.0;1646.3;;;;-0.51782995;1.198433;0.24815753;;;;;;;;;;;;;;;
1789.0;1646.3;;;;-0.5151711;1.213955;0.2457619;;;;;;;;;;;;;;;
1789.0;1656.4;;;;-0.51297385;1.230137;0.24346545;;;;;;;;;;;;;;;
1789.0;1656.4;;;;-0.51082236;1.2454225;0.24126819;;;;;;;;;;;;;;;
1789.0;1656.4;;;;-0.50884634;1.2605859;0.2382851;;;;;;;;;;;;;;;
1789.0;1656.4;;;;-0.5070229;1.2753068;0.23379901;;;;;;;;;;;;;;;
1789.0;1656.4;;;;-0.5056649;1.2899019;0.22955707;;;;;;;;;;;;;;;
1789.0;1660.7;262143;262143;11389;;;;;;;;;;;;;;;;;;
1790.0;1663.3;;;;;;;;;;;;;;;;;-49.60402;35.538803;60.964535;;1542.2
1790.0;1663.3;;;;;;;;;;;;;;0.81984925;0.5656911;0.05627613;;;;;1542.2
1790.0;1663.3;;;;;;;;;;;;;;;;;13.9317;24.277475;114.26893;;1542.2
1790.0;1663.3;;;;;;;;;;;;;;0.9027375;0.19251075;0.13049714;;;;;1542.2
1790.0;1663.3;;;;;;;;;;;;;;;;;4.6655173;-23.991364;124.90082;;1551.8
1790.0;1663.3;;;;;;;;;;;;;;1.0804163;-0.23065889;-0.1848201;;;;;1551.8
1790.0;1663.3;;;;;;;;;;;;;;;;;-14.641255;-61.41087;124.988556;;1551.8
1790.0;1663.3;;;;;;;;;;;;;;1.109714;-0.57112336;-0.5262001;;;;;1551.8
1790.0;1663.3;;;;;;;;;;;;;;;;;-15.861996;-67.80068;124.988556;;1561.5
1790.0;1663.3;;;;;;;;;;;;;;1.0284737;-0.7388531;-0.66805017;;;;;1561.5
1790.0;1663.3;;;;;;;;;;;;;;;;;-29.667807;-51.248207;124.988556;;1561.5
1790.0;1663.3;;;;;;;;;;;;;;0.9164098;-0.8545183;-0.75685906;;;;;1561.5
1790.0;1664.2;;;;;;;;;;;;;;;;;-36.606953;-21.397291;124.988556;;1571.2
1790.0;1664.2;;;;;;;;;;;;;;0.8553728;-0.9106113;-0.61415446;;;;;1571.2
1790.0;1664.2;;;;;;;;;;;;;;;;;-58.3018;7.126072;124.988556;;1571.2
1790.0;1664.2;;;;;;;;;;;;;;0.81014436;-0.92672503;-0.47499007;;;;;1571.2
1790.0;1664.2;;;;;;;;;;;;;;;;;-65.35158;19.36018;124.988556;;1580.7
1790.0;1664.2;;;;;;;;;;;;;;0.78957486;-0.99130225;-0.36310923;;;;;1580.7
1790.0;1664.2;;;;;;;;;;;;;;;;;-29.751732;21.95044;124.988556;;1580.7
1790.0;1664.2;;;;;;;;;;;;;;0.7368389;-1.1648304;-0.29255044;;;;;1580.7
1790.0;1664.2;;;;;;;;;;;;;;;;;30.079805;17.296364;124.988556;;1590.4
1790.0;1664.2;;;;;;;;;;;;;;0.600238;-1.4411451;-0.15106662;;;;;1590.4
1790.0;1664.2;;;;;;;;;;;;;;;;;75.26627;-0.9765923;124.98474;;1590.4
1790.0;1664.2;;;;;;;;;;;;;;0.5380413;-1.5389874;-0.2811365;;;;;1590.4
1791.0;1666.3;;;;-0.5041619;1.3034784;0.22469333;;;;;;;;;;;;;;;
1791.0;1666.3;;;;-0.5035477;1.3165399;0.2190552;;;;;;;;;;;;;;;
1791.0;1666.3;;;;-0.50194937;1.3298379;0.21340182;;;;;;;;;;;;;;;
1791.0;1666.3;;;;-0.5004464;1.3431054;0.20651248;;;;;;;;;;;;;;;
1791.0;1666.3;;;;-0.49823767;1.355961;0.19881442;;;;;;;;;;;;;;;
1791.0;1676.3;;;;-0.49634558;1.3688737;0.19114688;;;;;;;;;;;;;;;
1791.0;1676.3;;;;-0.49257284;1.3824769;0.18313219;;;;;;;;;;;;;;;
1791.0;1676.3;;;;-0.489132;1.3956681;0.17408372;;;;;;;;;;;;;;;
1791.0;1676.3;;;;-0.48571783;1.409321;0.16436388;;;;;;;;;;;;;;;
1791.0;1676.3;;;;-0.48136145;1.4231683;0.15388109;;;;;;;;;;;;;;;
1791.0;1680.5;262143;262143;11396;;;;;;;;;;;;;;;;;;
1791.0;1685.5;;;;;;;;;;;;;-2068;;;;;;;;
1791.0;1685.5;;;;;;;;;;;;;-1450;;;;;;;;
1791.0;1685.5;;;;;;;;;;;;;-819;;;;;;;;
1791.0;1685.5;;;;;;;;;;;;;-321;;;;;;;;
1791.0;1685.5;;;;;;;;;;;;;-145;;;;;;;;
1791.0;1686.2;;;;-0.4766503;1.4368364;0.14311601;;;;;;;;;;;;;;;
1791.0;1686.2;;;;-0.47119528;1.4504472;0.13140489;;;;;;;;;;;;;;;
1791.0;1686.2;;;;-0.46677405;1.4639703;0.120136276;;;;;;;;;;;;;;;
1791.0;1686.2;;;;-0.4621926;1.4771501;0.10881807;;;;;;;;;;;;;;;
1791.0;1686.2;;;;-0.45754248;1.489731;0.09655;;;;;;;;;;;;;;;
1795.0;1696.2;;;;-0.45327002;1.5015604;0.08333207;;;;;;;;;;;;;;;
1795.0;1696.2;;;;-0.44884497;1.5125811;0.06962586;;;;;;;;;;;;;;;
1795.0;1696.2;;;;-0.44489676;1.5222094;0.057300575;;;;;;;;;;;;;;;
1795.0;1696.2;;;;-0.4410668;1.5312884;0.046985634;;;;;;;;;;;;;;;
1795.0;1696.2;;;;-0.43614966;1.5392687;0.03577042;;;;;;;;;;;;;;;
1795.0;1700.6;262143;262143;11388;;;;;;;;;;;;;;;;;;
1795.0;1706.3;;;;-0.43093497;1.5451434;0.023452763;;;;;;;;;;;;;;;
1795.0;1706.3;;;;-0.42599875;1.5502894;0.011146546;;;;;;;;;;;;;;;
1795.0;1706.3;;;;-0.42036444;1.5537531;-8.58307E-4;;;;;;;;;;;;;;;
1795.0;1706.3;;;;-0.41505438;1.555321;-0.012557985;;;;;;;;;;;;;;;
1795.0;1706.3;;;;-0.40973288;1.554867;-0.024086002;;;;;;;;;;;;;;;
1795.0;1716.4;;;;-0.40429312;1.552479;-0.034976963;;;;;;;;;;;;;;;
1795.0;1716.4;;;;-0.39978033;1.5482485;-0.044227604;;;;;;;;;;;;;;;
1795.0;1716.4;;;;-0.39618307;1.54192;-0.05165101;;;;;;;;;;;;;;;
1795.0;1716.4;;;;-0.39350897;1.5335696;-0.058860786;;;;;;;;;;;;;;;
1795.0;1716.4;;;;-0.39062506;1.5231631;-0.064537056;;;;;;;;;;;;;;;
1795.0;1720.9;262143;262143;11407;;;;;;;;;;;;;;;;;;
1797.0;1724.0;;;;;;;;;;;;;;;;;88.62575;-3.8224432;114.68856;;1600.0
1797.0;1724.0;;;;;;;;;;;;;;0.5335246;-1.4650105;-0.5112461;;;;;1600.0
1797.0;1724.0;;;;;;;;;;;;;;;;;94.56923;5.7565536;60.26261;;1600.0
1797.0;1724.0;;;;;;;;;;;;;;0.80141604;-0.9704886;-0.628193;;;;;1600.0
1797.0;1724.0;;;;;;;;;;;;;;;;;91.83782;14.366589;35.256508;;1609.7
1797.0;1724.0;;;;;;;;;;;;;;0.9239784;-0.6642659;-0.6172674;;;;;1609.7
1797.0;1724.0;;;;;;;;;;;;;;;;;89.18271;15.263069;23.075808;;1609.7
1797.0;1724.0;;;;;;;;;;;;;;0.9096347;-0.4977569;-0.55360574;;;;;1609.7
1797.0;1724.0;;;;;;;;;;;;;;;;;94.1229;7.2977386;21.195105;;1619.1
1797.0;1724.0;;;;;;;;;;;;;;0.9396649;-0.3404645;-0.5238197;;;;;1619.1
1797.0;1724.0;;;;;;;;;;;;;;;;;90.95279;0.40437025;23.388622;;1619.1
1797.0;1724.0;;;;;;;;;;;;;;0.96133304;-0.34186834;-0.58503985;;;;;1619.1
1797.0;1725.7;;;;;;;;;;;;;8;;;;;;;;
1797.0;1725.7;;;;;;;;;;;;;464;;;;;;;;
1797.0;1725.7;;;;;;;;;;;;;944;;;;;;;;
1797.0;1725.7;;;;;;;;;;;;;849;;;;;;;;
1797.0;1725.7;;;;;;;;;;;;;-21;;;;;;;;
1797.0;1726.4;;;;-0.38784033;1.510155;-0.068149574;;;;;;;;;;;;;;;
1797.0;1726.4;;;;-0.38634497;1.4962846;-0.07009507;;;;;;;;;;;;;;;
1797.0;1726.4;;;;-0.38467032;1.4797708;-0.07127;;;;;;;;;;;;;;;
1797.0;1726.4;;;;-0.38317496;1.4622918;-0.0747223;;;;;;;;;;;;;;;
1797.0;1726.4;;;;-0.38084418;1.4437677;-0.078975685;;;;;;;;;;;;;;;
1807.0;1731.0;;;;;;;;;;;;;;;;;82.724236;5.7832575;4.3717766;;1628.8
1807.0;1731.0;;;;;;;;;;;;;;0.99972534;-0.25745416;-0.5667287;;;;;1628.8
1807.0;1731.0;;;;;;;;;;;;;;;;;75.09461;11.329996;-20.416883;;1628.8
1807.0;1731.0;;;;;;;;;;;;;;0.9976501;-0.18543047;-0.48896757;;;;;1628.8
1807.0;1731.0;;;;;;;;;;;;;;;;;62.61635;11.1507;-48.68084;;1638.5
1807.0;1731.0;;;;;;;;;;;;;;1.0150456;-0.039002657;-0.49330118;;;;;1638.5
1807.0;1731.0;;;;;;;;;;;;;;;;;50.057983;18.612476;-69.29609;;1638.5
1807.0;1731.0;;;;;;;;;;;;;;0.97848445;0.056703392;-0.5360881;;;;;1638.5
1807.0;1731.0;;;;;;;;;;;;;;;;;50.603504;32.36488;-81.36997;;1648.0
1807.0;1731.0;;;;;;;;;;;;;;0.9878231;0.26233712;-0.4786523;;;;;1648.0
1807.0;1731.0;;;;;;;;;;;;;;;;;43.67962;44.07636;-78.76064;;1648.0
1807.0;1731.0;;;;;;;;;;;;;;0.98159736;0.42048404;-0.4427015;;;;;1648.0
1807.0;1736.4;;;;-0.378933;1.424656;-0.08448411;;;;;;;;;;;;;;;
1807.0;1736.4;;;;-0.37574774;1.404976;-0.08851243;;;;;;;;;;;;;;;
1807.0;1736.4;;;;-0.3722115;1.3845865;-0.09253693;;;;;;;;;;;;;;;
1807.0;1736.4;;;;-0.3714142;1.3647996;-0.09608461;;;;;;;;;;;;;;;
1807.0;1736.4;;;;-0.36879733;1.3442613;-0.099735275;;;;;;;;;;;;;;;
1807.0;1736.5;;;;;;;;;;0.8735923;16.010773;-1.2779626;;;;;;;;;
1807.0;1736.5;;;;;;;0.23487045;-0.799707;0.18683432;;;;;;;;;;;;
1807.0;1736.5;;;;;;;;;;6.221961;32.6014;9.514146;;;;;;;;;
1807.0;1736.5;;;;;;;0.26587725;-0.91958374;0.20831935;;;;;;;;;;;;
1807.0;1740.8;262143;262143;11399;;;;;;;;;;;;;;;;;;
1839.0;1745.9;;;;;;;;;;-2.170629;4.5319986;7.2862945;;;;;;;;;
1839.0;1745.9;;;;;;;0.26654866;-0.9428999;0.20746483;;;;;;;;;;;;
1839.0;1745.9;;;;;;;;;;-6.44322;15.198217;22.568438;;;;;;;;;
1839.0;1745.9;;;;;;;0.26813564;-0.959624;0.20868556;;;;;;;;;;;;
1839.0;1746.4;;;;-0.3651047;1.3251115;-0.10328294;;;;;;;;;;;;;;;
1839.0;1746.4;;;;-0.36208728;1.3058358;-0.10737611;;;;;;;;;;;;;;;
1839.0;1746.4;;;;-0.3578072;1.286831;-0.11009218;;;;;;;;;;;;;;;
1839.0;1746.4;;;;-0.354744;1.2690545;-0.113159195;;;;;;;;;;;;;;;
1839.0;1746.4;;;;-0.35136035;1.251423;-0.11541368;;;;;;;;;;;;;;;
1839.0;1755.0;;;;;;;;;;-16.518145;14.6641445;36.06906;;;;;;;;;
1839.0;1755.0;;;;;;;0.2649617;-0.9729301;0.20667134;;;;;;;;;;;;
1839.0;1755.0;;;;;;;;;;-31.788841;-22.366251;28.859066;;;;;;;;;
1839.0;1755.0;;;;;;;0.2590411;-0.98660237;0.20508438;;;;;;;;;;;;
1839.0;1755.9;;;;-0.34869006;1.2348558;-0.1178589;;;;;;;;;;;;;;;
1839.0;1755.9;;;;-0.34548572;1.2193185;-0.119712844;;;;;;;;;;;;;;;
1839.0;1755.9;;;;-0.34363177;1.2032815;-0.12238313;;;;;;;;;;;;;;;
1839.0;1755.9;;;;-0.33794788;1.1875955;-0.12212755;;;;;;;;;;;;;;;
1839.0;1755.9;;;;-0.33695605;1.173668;-0.12490083;;;;;;;;;;;;;;;
1839.0;1760.2;262143;262143;11379;;;;;;;;;;;;;;;;;;
1839.0;1764.4;;;;;;;;;;-41.951508;-24.414808;42.012543;;;;;;;;;
1839.0;1764.4;;;;;;;0.2560503;-0.9996033;0.20032349;;;;;;;;;;;;
1839.0;1764.4;;;;;;;;;;-51.87002;-26.795252;55.684834;;;;;;;;;
1839.0;1764.4;;;;;;;0.2512894;-1.0168767;0.19458602;;;;;;;;;;;;
1841.0;1765.2;;;;;;;;;;;;;-1121;;;;;;;;
1841.0;1765.2;;;;;;;;;;;;;-1588;;;;;;;;
1841.0;1765.2;;;;;;;;;;;;;-1114;;;;;;;;
1841.0;1765.2;;;;;;;;;;;;;-77;;;;;;;;
1841.0;1765.2;;;;;;;;;;;;;1188;;;;;;;;
1841.0;1765.8;;;;-0.33226398;1.1607248;-0.12446596;;;;;;;;;;;;;;;
1841.0;1765.8;;;;-0.33472446;1.1476518;-0.12870409;;;;;;;;;;;;;;;
1841.0;1765.8;;;;-0.33040622;1.1347429;-0.12787248;;;;;;;;;;;;;;;
1841.0;1765.8;;;;-0.32880405;1.1225625;-0.12884904;;;;;;;;;;;;;;;
1841.0;1765.8;;;;-0.32859424;1.1105844;-0.12879182;;;;;;;;;;;;;;;
1841.0;1774.0;;;;;;;;;;-60.594498;-21.923735;73.68313;;;;;;;;;
1841.0;1774.0;;;;;;;0.24652852;-1.0331125;0.1906186;;;;;;;;;;;;
1841.0;1774.0;;;;;;;;;;-63.180946;-15.640736;84.94446;;;;;;;;;
1841.0;1774.0;;;;;;;0.24280526;-1.0522782;0.18506424;;;;;;;;;;;;
1841.0;1775.9;;;;-0.32877734;1.0987283;-0.12921526;;;;;;;;;;;;;;;
1841.0;1775.9;;;;-0.32748798;1.088463;-0.12722398;;;;;;;;;;;;;;;
1841.0;1775.9;;;;-0.32580188;1.0787622;-0.12714006;;;;;;;;;;;;;;;
1841.0;1775.9;;;;-0.32415012;1.0705415;-0.12630464;;;;;;;;;;;;;;;
1841.0;1775.9;;;;-0.32470325;1.063202;-0.12622072;;;;;;;;;;;;;;;
1841.0;1780.5;262143;262143;11352;;;;;;;;;;;;;;;;;;
1841.0;1783.6;;;;;;;;;;-63.52809;-18.127995;87.446976;;;;;;;;;
1841.0;1783.6;;;;;;;0.23444319;-1.0713828;0.18018128;;;;;;;;;;;;
1841.0;1783.6;;;;;;;;;;-63.77224;-21.546068;90.16312;;;;;;;;;
1841.0;1783.6;;;;;;;0.22534868;-1.0867031;0.17419966;;;;;;;;;;;;
1843.0;1786.0;;;;-0.32460025;1.0562364;-0.1272011;;;;;;;;;;;;;;;
1843.0;1786.0;;;;-0.32165912;1.0494539;-0.12652208;;;;;;;;;;;;;;;
1843.0;1786.0;;;;-0.32237247;1.043461;-0.12742235;;;;;;;;;;;;;;;
1843.0;1786.0;;;;-0.31863788;1.0373765;-0.12562563;;;;;;;;;;;;;;;
1843.0;1786.0;;;;-0.31582263;1.0322305;-0.12599947;;;;;;;;;;;;;;;
1843.0;1793.2;;;;;;;;;;-63.882874;-25.57451;92.70379;;;;;;;;;
1843.0;1793.2;;;;;;;0.22058779;-1.101474;0.17090365;;;;;;;;;;;;
1843.0;1793.2;;;;;;;;;;-63.867615;-30.125584;95.02319;;;;;;;;;
1843.0;1793.2;;;;;;;0.21405682;-1.1075778;0.1690115;;;;;;;;;;;;
1843.0;1796.1;;;;-0.3157616;1.0272981;-0.12728883;;;;;;;;;;;;;;;
1843.0;1796.1;;;;-0.3178902;1.0228769;-0.1287613;;;;;;;;;;;;;;;
1843.0;1796.1;;;;-0.3170357;1.0176355;-0.12869646;;;;;;;;;;;;;;;
1843.0;1796.1;;;;-0.3211861;1.0129243;-0.13008119;;;;;;;;;;;;;;;
1843.0;1796.1;;;;-0.3221741;1.0085679;-0.13077165;;;;;;;;;;;;;;;
1843.0;1800.6;262143;262143;11346;;;;;;;;;;;;;;;;;;
1843.0;1802.8;;;;;;;;;;-63.798943;-35.145878;97.31972;;;;;;;;;
1843.0;1802.8;;;;;;;0.21332438;-1.1098361;0.16827907;;;;;;;;;;;;
1843.0;1802.8;;;;;;;;;;-63.58531;-40.574356;99.459816;;;;;;;;;
1843.0;1802.8;;;;;;;0.21607105;-1.103061;0.16895047;;;;;;;;;;;;
1843.0;1805.6;;;;;;;;;;;;;2366;;;;;;;;
1843.0;1805.6;;;;;;;;;;;;;3026;;;;;;;;
1843.0;1805.6;;;;;;;;;;;;;3092;;;;;;;;
1843.0;1805.6;;;;;;;;;;;;;2858;;;;;;;;
1843.0;1805.6;;;;;;;;;;;;;2690;;;;;;;;
1900.0;1806.1;;;;-0.32397082;1.004593;-0.13184358;;;;;;;;;;;;;;;
1900.0;1806.1;;;;-0.32237628;1.0005151;-0.13135912;;;;;;;;;;;;;;;
1900.0;1806.1;;;;-0.3211899;0.99671566;-0.13289262;;;;;;;;;;;;;;;
1900.0;1806.1;;;;-0.32329562;0.99258816;-0.13523485;;;;;;;;;;;;;;;
1900.0;1806.1;;;;-0.32279208;0.98894894;-0.13581087;;;;;;;;;;;;;;;
1900.0;1812.1;;;;;;;;;;-63.291573;-46.304207;101.48549;;;;;;;;;
1900.0;1812.1;;;;;;;0.21900083;-1.0924406;0.16986603;;;;;;;;;;;;
1900.0;1812.1;;;;;;;;;;-62.9635;-52.2248;103.446304;;;;;;;;;
1900.0;1812.1;;;;;;;0.22797327;-1.0749229;0.17297891;;;;;;;;;;;;
1900.0;1815.9;;;;-0.32312396;0.9848329;-0.1375847;;;;;;;;;;;;;;;
1900.0;1815.9;;;;-0.32464984;0.98069775;-0.13767625;;;;;;;;;;;;;;;
1900.0;1815.9;;;;-0.32204822;0.9763032;-0.13671114;;;;;;;;;;;;;;;
1900.0;1815.9;;;;-0.3197823;0.97122586;-0.13887025;;;;;;;;;;;;;;;
1900.0;1815.9;;;;-0.3188515;0.9662553;-0.13933565;;;;;;;;;;;;;;;
1900.0;1820.6;262143;262143;11327;;;;;;;;;;;;;;;;;;
1900.0;1821.7;;;;;;;;;;-62.490463;-57.996613;105.18586;;;;;;;;;
1900.0;1821.7;;;;;;;0.23444319;-1.0518509;0.17505418;;;;;;;;;;;;
1900.0;1821.7;;;;;;;;;;-62.02887;-63.49376;106.81097;;;;;;;;;
1900.0;1821.7;;;;;;;0.24292734;-1.02884;0.17596972;;;;;;;;;;;;
1903.0;1826.0;;;;-0.31868747;0.96144116;-0.14127351;;;;;;;;;;;;;;;
1903.0;1826.0;;;;-0.32389072;0.9568788;-0.14364626;;;;;;;;;;;;;;;
1903.0;1826.0;;;;-0.32423022;0.952263;-0.14187624;;;;;;;;;;;;;;;
1903.0;1826.0;;;;-0.3203049;0.9476243;-0.14043428;;;;;;;;;;;;;;;
1903.0;1826.0;;;;-0.31770328;0.94244015;-0.14104845;;;;;;;;;;;;;;;
1903.0;1831.4;;;;;;;;;;-61.605427;-68.14783;108.18049;;;;;;;;;
1903.0;1831.4;;;;;;;0.2547075;-1.0016174;0.17590868;;;;;;;;;;;;
1903.0;1831.4;;;;;;;;;;-61.212498;-72.29072;109.0846;;;;;;;;;
1903.0;1831.4;;;;;;;0.26728112;-0.9731742;0.17505418;;;;;;;;;;;;
1903.0;1836.1;;;;-0.31901553;0.9374162;-0.14291765;;;;;;;;;;;;;;;
1903.0;1836.1;;;;-0.32163242;0.93267834;-0.14369585;;;;;;;;;;;;;;;
1903.0;1836.1;;;;-0.32269672;0.928692;-0.14253618;;;;;;;;;;;;;;;
1903.0;1836.1;;;;-0.32431415;0.9251367;-0.14116289;;;;;;;;;;;;;;;
1903.0;1836.1;;;;-0.32406238;0.9222642;-0.14035799;;;;;;;;;;;;;;;
1903.0;1841.0;;;;;;;;;;-61.025574;-76.18946;109.820854;;;;;;;;;
1903.0;1841.0;;;;;;;0.28119755;-0.94698936;0.17456588;;;;;;;;;;;;
1903.0;1841.0;;;;;;;;;;-60.838646;-80.45824;110.328224;;;;;;;;;
1903.0;1841.0;;;;;;;0.2893765;-0.92287976;0.17365032;;;;;;;;;;;;
1903.0;1840.9;262143;262143;11315;;;;;;;;;;;;;;;;;;
1903.0;1845.8;;;;;;;;;;;;;2663;;;;;;;;
1903.0;1845.8;;;;;;;;;;;;;2618;;;;;;;;
1903.0;1845.8;;;;;;;;;;;;;3193;;;;;;;;
1903.0;1845.8;;;;;;;;;;;;;4478;;;;;;;;
1903.0;1845.8;;;;;;;;;;;;;2803;;;;;;;;
1905.0;1846.2;;;;-0.3236275;0.91923153;-0.14052583;;;;;;;;;;;;;;;
1905.0;1846.2;;;;-0.32683566;0.91700757;-0.14195253;;;;;;;;;;;;;;;
1905.0;1846.2;;;;-0.32913974;0.91482556;-0.14204408;;;;;;;;;;;;;;;
1905.0;1846.2;;;;-0.3318024;0.913746;-0.14294817;;;;;;;;;;;;;;;
1905.0;1846.2;;;;-0.33279422;0.91261303;-0.14410402;;;;;;;;;;;;;;;
1905.0;1850.5;;;;;;;;;;-60.399944;-84.746086;110.656296;;;;;;;;;
1905.0;1850.5;;;;;;;0.2946257;-0.89669484;0.1721244;;;;;;;;;;;;
1905.0;1850.5;;;;;;;;;;-59.965054;-88.60286;110.62959;;;;;;;;;
1905.0;1850.5;;;;;;;0.30249947;-0.87490463;0.16986603;;;;;;;;;;;;
1905.0;1856.2;;;;-0.33374408;0.9120866;-0.14533998;;;;;;;;;;;;;;;
1905.0;1856.2;;;;-0.3337784;0.91144955;-0.14636613;;;;;;;;;;;;;;;
1905.0;1856.2;;;;-0.32978442;0.91001904;-0.14646913;;;;;;;;;;;;;;;
1905.0;1856.2;;;;-0.32719806;0.90841687;-0.14770128;;;;;;;;;;;;;;;
1905.0;1856.2;;;;-0.32556537;0.906006;-0.14899828;;;;;;;;;;;;;;;
1906.0;1858.7;;;;;;;;;;;;;;;;;40.47899;50.49669;-53.193764;;1657.7
1906.0;1858.7;;;;;;;;;;;;;;0.97109896;0.6079287;-0.4243904;;;;;1657.7
1906.0;1858.7;;;;;;;;;;;;;;;;;35.752434;49.550613;-5.9587393;;1657.7
1906.0;1858.7;;;;;;;;;;;;;;0.88088626;0.6607257;-0.3524888;;;;;1657.7
1906.0;1858.7;;;;;;;;;;;;;;;;;29.5114;41.91717;45.136875;;1667.3
1906.0;1858.7;;;;;;;;;;;;;;0.7367168;0.4623554;-0.41669974;;;;;1667.3
1906.0;1858.7;;;;;;;;;;;;;;;;;23.689993;40.627766;75.12513;;1667.3
1906.0;1858.7;;;;;;;;;;;;;;0.6681112;0.055543687;-0.44251838;;;;;1667.3
1906.0;1858.7;;;;;;;;;;;;;;;;;15.900145;38.457138;74.03027;;1676.9
1906.0;1858.7;;;;;;;;;;;;;;0.7397687;-0.016235847;-0.47523424;;;;;1676.9
1906.0;1858.7;;;;;;;;;;;;;;;;;9.483627;41.322063;71.100494;;1676.9
1906.0;1858.7;;;;;;;;;;;;;;0.7307962;-0.03790399;-0.48945585;;;;;1676.9
1906.0;1859.4;;;;;;;;;;;;;;;;;7.915738;42.47795;72.40135;;1686.4
1906.0;1859.4;;;;;;;;;;;;;;0.71431625;-0.08899198;-0.46888638;;;;;1686.4
1906.0;1859.4;;;;;;;;;;;;;;;;;6.8857384;39.662617;74.78561;;1686.4
1906.0;1859.4;;;;;;;;;;;;;;0.7384869;-0.13672292;-0.4824366;;;;;1686.4
1906.0;1859.4;;;;;;;;;;;;;;;;;6.939146;37.71325;77.150795;;1695.9
1906.0;1859.4;;;;;;;;;;;;;;0.7660146;-0.18378246;-0.48829615;;;;;1695.9
1906.0;1859.4;;;;;;;;;;;;;;;;;7.3931093;37.48436;78.352455;;1695.9
1906.0;1859.4;;;;;;;;;;;;;;0.78884244;-0.22144231;-0.4949492;;;;;1695.9
1906.0;1859.4;;;;;;;;;;;;;;;;;10.120701;39.3498;80.01953;;1705.6
1906.0;1859.4;;;;;;;;;;;;;;0.7950682;-0.27527696;-0.48023927;;;;;1705.6
1906.0;1859.4;;;;;;;;;;;;;;;;;14.351329;40.69643;80.52309;;1705.6
1906.0;1859.4;;;;;;;;;;;;;;0.7876827;-0.30890834;-0.44361705;;;;;1705.6
1907.0;1860.4;;;;;;;;;;;;;;;;;17.548143;41.390728;79.34812;;1715.2
1907.0;1860.4;;;;;;;;;;;;;;0.7876827;-0.28400525;-0.4217658;;;;;1715.2
1907.0;1860.4;;;;;;;;;;;;;;;;;20.989105;43.38206;77.929016;;1715.2
1907.0;1860.4;;;;;;;;;;;;;;0.7715079;-0.2822962;-0.39863276;;;;;1715.2
1907.0;1860.4;;;;;;;;;;;;;;;;;27.085178;44.08399;77.2042;;1724.8
1907.0;1860.4;;;;;;;;;;;;;;0.7629017;-0.28034303;-0.36896878;;;;;1724.8
1907.0;1860.4;;;;;;;;;;;;;;;;;31.987213;43.343914;75.66302;;1724.8
1907.0;1860.4;;;;;;;;;;;;;;0.7654042;-0.23847163;-0.3559679;;;;;1724.8
1907.0;1860.4;;;;;;;;;;;;;;;;;34.844505;42.16132;73.850975;;1734.4
1907.0;1860.4;;;;;;;;;;;;;;0.76711327;-0.18140203;-0.36268196;;;;;1734.4
1907.0;1860.4;;;;;;;;;;;;;;;;;36.988434;42.56188;73.15287;;1734.4
1907.0;1860.4;;;;;;;;;;;;;;0.75356305;-0.2207709;-0.3472396;;;;;1734.4
1907.0;1860.0;;;;;;;;;;-59.709465;-91.96753;110.31678;;;;;;;;;
1907.0;1860.0;;;;;;;0.3108005;-0.8532365;0.16858424;;;;;;;;;;;;
1907.0;1860.0;;;;;;;;;;-59.549244;-94.98886;109.44701;;;;;;;;;
1907.0;1860.0;;;;;;;0.31879634;-0.83278906;0.16858424;;;;;;;;;;;;
1908.0;1861.5;;;;;;;;;;;;;;;;;40.22721;42.954803;72.66457;;1744.1
1908.0;1861.5;;;;;;;;;;;;;;0.7538682;-0.23541978;-0.31867427;;;;;1744.1
1908.0;1861.5;;;;;;;;;;;;;;;;;44.057285;41.844692;71.1272;;1744.1
1908.0;1861.5;;;;;;;;;;;;;;0.7652211;-0.2285226;-0.31482893;;;;;1744.1
1908.0;1861.5;;;;;;;;;;;;;;;;;47.34947;42.329174;69.30372;;1753.7
1908.0;1861.5;;;;;;;;;;;;;;0.7795648;-0.17615284;-0.3071383;;;;;1753.7
1908.0;1861.5;;;;;;;;;;;;;;;;;48.802914;42.870876;66.92709;;1753.7
1908.0;1861.5;;;;;;;;;;;;;;0.78560746;-0.122196116;-0.29401532;;;;;1753.7
1908.0;1861.5;;;;;;;;;;;;;;;;;48.600727;42.260506;64.6115;;1763.3
1908.0;1861.5;;;;;;;;;;;;;;0.79909664;-0.0992462;-0.29804376;;;;;1763.3
1908.0;1861.5;;;;;;;;;;;;;;;;;49.01273;42.252876;62.70028;;1763.3
1908.0;1861.5;;;;;;;;;;;;;;0.82106996;-0.0933256;-0.313242;;;;;1763.3
1908.0;1861.0;262143;262143;11317;;;;;;;;;;;;;;;;;;
1961.0;1862.2;;;;;;;;;;;;;;;;;49.680317;43.961914;60.65935;;1773.0
1961.0;1862.2;;;;;;;;;;;;;;0.82796717;-0.09576708;-0.32203132;;;;;1773.0
1961.0;1862.2;;;;;;;;;;;;;;;;;51.190983;45.049133;59.453873;;1773.0
1961.0;1862.2;;;;;;;;;;;;;;0.8215583;-0.093691826;-0.3274636;;;;;1773.0
1961.0;1862.2;;;;;;;;;;;;;;;;;52.041687;43.874172;59.083836;;1782.7
1961.0;1862.2;;;;;;;;;;;;;;0.8006836;-0.08917508;-0.3203833;;;;;1782.7
1961.0;1862.2;;;;;;;;;;;;;;;;;50.836205;40.86047;59.667503;;1782.7
1961.0;1862.2;;;;;;;;;;;;;;0.7907346;-0.08185064;-0.30494094;;;;;1782.7
1961.0;1862.2;;;;;;;;;;;;;;;;;48.12006;38.041325;60.06424;;1792.3
1961.0;1862.2;;;;;;;;;;;;;;0.7889645;-0.08899198;-0.28302866;;;;;1792.3
1961.0;1862.2;;;;;;;;;;;;;;;;;45.281837;35.943172;60.010834;;1792.3
1961.0;1862.2;;;;;;;;;;;;;;0.7911008;-0.0933256;-0.25458542;;;;;1792.3
1961.0;1865.8;;;;-0.32255176;0.90415585;-0.14896394;;;;;;;;;;;;;;;
1961.0;1865.8;;;;-0.321106;0.90212643;-0.15075685;;;;;;;;;;;;;;;
1961.0;1865.8;;;;-0.3210335;0.9006425;-0.15121843;;;;;;;;;;;;;;;
1961.0;1865.8;;;;-0.32023624;0.89891064;-0.1514168;;;;;;;;;;;;;;;
1961.0;1865.8;;;;-0.3179932;0.89764416;-0.15196992;;;;;;;;;;;;;;;
1961.0;1869.2;;;;;;;;;;-59.40428;-97.60583;108.111824;;;;;;;;;
1961.0;1869.2;;;;;;;0.32734153;-0.8118534;0.17133091;;;;;;;;;;;;
1961.0;1869.2;;;;;;;;;;-59.278393;-99.566635;106.540115;;;;;;;;;
1961.0;1869.2;;;;;;;0.3336894;-0.789819;0.1788995;;;;;;;;;;;;
1966.0;1875.7;;;;-0.3172455;0.89647305;-0.15350343;;;;;;;;;;;;;;;
1966.0;1875.7;;;;-0.31507495;0.89540493;-0.15422441;;;;;;;;;;;;;;;
1966.0;1875.7;;;;-0.31035998;0.89453137;-0.15402605;;;;;;;;;;;;;;;
1966.0;1875.7;;;;-0.3076935;0.8941995;-0.15571214;;;;;;;;;;;;;;;
1966.0;1875.7;;;;-0.30412677;0.8938943;-0.1562195;;;;;;;;;;;;;;;
1966.0;1878.6;;;;;;;;;;-59.305096;-100.68056;105.01419;;;;;;;;;
1966.0;1878.6;;;;;;;0.34119692;-0.7734611;0.1920835;;;;;;;;;;;;
1966.0;1878.6;;;;;;;;;;-59.54543;-100.85223;103.53786;;;;;;;;;
1966.0;1878.6;;;;;;;0.34681234;-0.7635731;0.20783105;;;;;;;;;;;;
1966.0;1880.6;262143;262143;11325;;;;;;;;;;;;;;;;;;
1966.0;1885.5;;;;;;;;;;;;;-5336;;;;;;;;
1966.0;1885.5;;;;;;;;;;;;;-14843;;;;;;;;
1966.0;1885.5;;;;;;;;;;;;;-15199;;;;;;;;
1966.0;1885.5;;;;;;;;;;;;;-3790;;;;;;;;
1966.0;1885.5;;;;;;;;;;;;;9549;;;;;;;;
1966.0;1885.8;;;;-0.3009148;0.89346707;-0.15658571;;;;;;;;;;;;;;;
1966.0;1885.8;;;;-0.29983142;0.89392483;-0.15660478;;;;;;;;;;;;;;;
1966.0;1885.8;;;;-0.29877093;0.8941499;-0.15655138;;;;;;;;;;;;;;;
1966.0;1885.8;;;;-0.2969475;0.89423764;-0.15676118;;;;;;;;;;;;;;;
1966.0;1885.8;;;;-0.29537585;0.89447796;-0.15709306;;;;;;;;;;;;;;;
1966.0;1888.3;;;;;;;;;;-59.804836;-100.11978;102.15689;;;;;;;;;
1966.0;1888.3;;;;;;;0.35047457;-0.75716424;0.22376171;;;;;;;;;;;;
1966.0;1888.3;;;;;;;;;;-60.09857;-98.89142;100.84078;;;;;;;;;
1966.0;1888.3;;;;;;;0.35407576;-0.75191504;0.23651844;;;;;;;;;;;;
1968.0;1896.0;;;;-0.29347232;0.8956491;-0.15820314;;;;;;;;;;;;;;;
1968.0;1896.0;;;;-0.29039386;0.89616406;-0.15883256;;;;;;;;;;;;;;;
1968.0;1896.0;;;;-0.2873154;0.8964006;-0.16025926;;;;;;;;;;;;;;;
1968.0;1896.0;;;;-0.283886;0.8962709;-0.16159059;;;;;;;;;;;;;;;
1968.0;1896.0;;;;-0.27860644;0.8954736;-0.1622696;;;;;;;;;;;;;;;
1968.0;1897.9;;;;;;;;;;-60.27024;-97.27393;99.639114;;;;;;;;;
1968.0;1897.9;;;;;;;0.3554796;-0.7538072;0.24341564;;;;;;;;;;;;
1968.0;1897.9;;;;;;;;;;-60.29313;-94.93164;98.5252;;;;;;;;;
1968.0;1897.9;;;;;;;0.35560167;-0.75569934;0.24866481;;;;;;;;;;;;
1968.0;1900.9;262143;262143;11341;;;;;;;;;;;;;;;;;;
1968.0;1903.5;;;;;;;;;;;;;;;;;43.023468;34.43632;58.954132;;1801.9
1968.0;1903.5;;;;;;;;;;;;;;0.8024537;-0.109195225;-0.2501297;;;;;1801.9
1968.0;1903.5;;;;;;;;;;;;;;;;;41.83325;34.264656;56.95517;;1801.9
1968.0;1903.5;;;;;;;;;;;;;;0.8003174;-0.121768855;-0.25727102;;;;;1801.9
1968.0;1903.5;;;;;;;;;;;;;;;;;41.531876;33.87936;54.853203;;1811.5
1968.0;1903.5;;;;;;;;;;;;;;0.78597367;-0.12933744;-0.28199103;;;;;1811.5
1968.0;1903.5;;;;;;;;;;;;;;;;;41.901913;31.235695;53.8728;;1811.5
1968.0;1903.5;;;;;;;;;;;;;;0.7597888;-0.151677;-0.32013917;;;;;1811.5
1968.0;1903.5;;;;;;;;;;;;;;;;;43.301952;27.298807;53.083134;;1821.2
1968.0;1903.5;;;;;;;;;;;;;;0.74221015;-0.16144292;-0.36579487;;;;;1821.2
1968.0;1903.5;;;;;;;;;;;;;;;;;45.58702;23.293253;52.220985;;1821.2
1968.0;1903.5;;;;;;;;;;;;;;0.7284768;-0.15149388;-0.4013184;;;;;1821.2
1972.0;1905.9;;;;-0.2756386;0.8939973;-0.1651993;;;;;;;;;;;;;;;
1972.0;1905.9;;;;-0.27183154;0.89154446;-0.16640855;;;;;;;;;;;;;;;
1972.0;1905.9;;;;-0.26831058;0.8891183;-0.16762926;;;;;;;;;;;;;;;
1972.0;1905.9;;;;-0.26682666;0.8859521;-0.17113115;;;;;;;;;;;;;;;
1972.0;1905.9;;;;-0.2654343;0.88264096;-0.17317964;;;;;;;;;;;;;;;
1972.0;1907.4;;;;;;;;;;-60.235905;-91.99423;97.46086;;;;;;;;;
1972.0;1907.4;;;;;;;0.35822627;-0.7613758;0.24982452;;;;;;;;;;;;
1972.0;1907.4;;;;;;;;;;-60.21683;-88.46553;96.31642;;;;;;;;;
1972.0;1907.4;;;;;;;0.36030152;-0.76870024;0.24897;;;;;;;;;;;;
1972.0;1916.0;;;;-0.2637482;0.87921536;-0.17479707;;;;;;;;;;;;;;;
1972.0;1916.0;;;;-0.2594376;0.8765832;-0.17573549;;;;;;;;;;;;;;;
1972.0;1916.0;;;;-0.2548447;0.8734666;-0.17672731;;;;;;;;;;;;;;;
1972.0;1916.0;;;;-0.2484627;0.87062466;-0.17790224;;;;;;;;;;;;;;;
1972.0;1916.0;;;;-0.24313739;0.8679544;-0.17935945;;;;;;;;;;;;;;;
1972.0;1917.0;;;;;;;;;;-60.07187;-84.62783;95.21775;;;;;;;;;
1972.0;1917.0;;;;;;;0.359447;-0.7795648;0.2428663;;;;;;;;;;;;
1972.0;1917.0;;;;;;;;;;-59.812466;-80.324715;94.29075;;;;;;;;;
1972.0;1917.0;;;;;;;0.35724968;-0.7896359;0.22840053;;;;;;;;;;;;
1972.0;1921.0;262143;262143;11354;;;;;;;;;;;;;;;;;;
1972.0;1925.9;;;;;;;;;;;;;13857;;;;;;;;
1972.0;1925.9;;;;;;;;;;;;;9211;;;;;;;;
1972.0;1925.9;;;;;;;;;;;;;3716;;;;;;;;
1972.0;1925.9;;;;;;;;;;;;;1922;;;;;;;;
1972.0;1925.9;;;;;;;;;;;;;1872;;;;;;;;
2022.0;1926.1;;;;-0.23948291;0.86569226;-0.18132402;;;;;;;;;;;;;;;
2022.0;1926.1;;;;-0.23527911;0.8635942;-0.18178941;;;;;;;;;;;;;;;
2022.0;1926.1;;;;-0.2313309;0.862362;-0.18264772;;;;;;;;;;;;;;;
2022.0;1926.1;;;;-0.22833255;0.86177456;-0.18330385;;;;;;;;;;;;;;;
2022.0;1926.1;;;;-0.22597888;0.86114514;-0.18493654;;;;;;;;;;;;;;;
2022.0;1926.5;;;;;;;;;;-59.614094;-75.65539;93.57356;;;;;;;;;
2022.0;1926.5;;;;;;;0.34962004;-0.79714346;0.20685446;;;;;;;;;;;;
2022.0;1926.5;;;;;;;;;;-59.377575;-71.11957;93.08145;;;;;;;;;
2022.0;1926.5;;;;;;;0.33460495;-0.81099886;0.1817072;;;;;;;;;;;;
2022.0;1935.8;;;;-0.22262576;0.86093533;-0.18602373;;;;;;;;;;;;;;;
2022.0;1935.8;;;;-0.21987918;0.8610269;-0.18567277;;;;;;;;;;;;;;;
2022.0;1935.8;;;;-0.2180405;0.8618661;-0.18614198;;;;;;;;;;;;;;;
2022.0;1935.8;;;;-0.21668246;0.86306393;-0.18638612;;;;;;;;;;;;;;;
2022.0;1935.8;;;;-0.21522525;0.86416256;-0.18615343;;;;;;;;;;;;;;;
2022.0;1935.8;;;;;;;;;;-58.709984;-65.79791;92.67327;;;;;;;;;
2022.0;1935.8;;;;;;;0.32599872;-0.82515943;0.16418958;;;;;;;;;;;;
2022.0;1935.8;;;;;;;;;;-57.554092;-59.36613;91.956085;;;;;;;;;
2022.0;1935.8;;;;;;;0.33033234;-0.84182256;0.16589862;;;;;;;;;;;;
2022.0;1940.8;262143;262143;11374;;;;;;;;;;;;;;;;;;
2022.0;1945.5;;;;;;;;;;-56.184574;-52.529984;90.67049;;;;;;;;;
2022.0;1945.5;;;;;;;0.3482162;-0.8617206;0.18195136;;;;;;;;;;;;
2022.0;1945.5;;;;;;;;;;-54.963833;-45.621357;89.08734;;;;;;;;;
2022.0;1945.5;;;;;;;0.3805048;-0.88265634;0.20880765;;;;;;;;;;;;
2024.0;1945.9;;;;-0.21330264;0.86612713;-0.1837845;;;;;;;;;;;;;;;
2024.0;1945.9;;;;-0.20956042;0.8680116;-0.18104555;;;;;;;;;;;;;;;
2024.0;1945.9;;;;-0.20743564;0.870247;-0.17929079;;;;;;;;;;;;;;;
2024.0;1945.9;;;;-0.20270923;0.8722383;-0.17622377;;;;;;;;;;;;;;;
2024.0;1945.9;;;;-0.19825366;0.8740045;-0.1743622;;;;;;;;;;;;;;;
2024.0;1955.1;;;;;;;;;;-53.7698;-39.16669;87.511826;;;;;;;;;
2024.0;1955.1;;;;;;;0.41712698;-0.9114048;0.24335459;;;;;;;;;;;;
2024.0;1955.1;;;;;;;;;;-52.46132;-34.058655;86.283455;;;;;;;;;
2024.0;1955.1;;;;;;;0.4476455;-0.94106877;0.28131962;;;;;;;;;;;;
2024.0;1956.0;;;;-0.19392398;0.8753015;-0.17311479;;;;;;;;;;;;;;;
2024.0;1956.0;;;;-0.19116214;0.8765718;-0.17232133;;;;;;;;;;;;;;;
2024.0;1956.0;;;;-0.18938068;0.8768121;-0.17198564;;;;;;;;;;;;;;;
2024.0;1956.0;;;;-0.18844607;0.87702954;-0.17103197;;;;;;;;;;;;;;;
2024.0;1956.0;;;;-0.18691637;0.87688076;-0.16963197;;;;;;;;;;;;;;;
2024.0;1961.1;262143;262143;11393;;;;;;;;;;;;;;;;;;
2024.0;1964.7;;;;;;;;;;-51.06891;-30.236212;85.8295;;;;;;;;;
2024.0;1964.7;;;;;;;0.4725486;-0.97616506;0.3206885;;;;;;;;;;;;
2024.0;1964.7;;;;;;;;;;-49.81002;-27.771843;86.55431;;;;;;;;;
2024.0;1964.7;;;;;;;0.4953154;-1.0099186;0.35486922;;;;;;;;;;;;
2024.0;1966.0;;;;;;;;;;;;;1266;;;;;;;;
2024.0;1966.0;;;;;;;;;;;;;382;;;;;;;;
2024.0;1966.0;;;;;;;;;;;;;-267;;;;;;;;
2024.0;1966.0;;;;;;;;;;;;;-671;;;;;;;;
2024.0;1966.0;;;;;;;;;;;;;-942;;;;;;;;
2025.0;1966.1;;;;-0.18457414;0.87643826;-0.16700365;;;;;;;;;;;;;;;
2025.0;1966.1;;;;-0.18178178;0.87542355;-0.16480257;;;;;;;;;;;;;;;
2025.0;1966.1;;;;-0.1788521;0.87433255;-0.162941;;;;;;;;;;;;;;;
2025.0;1966.1;;;;-0.17619707;0.8725358;-0.16056825;;;;;;;;;;;;;;;
2025.0;1966.1;;;;-0.17315294;0.87069714;-0.15914918;;;;;;;;;;;;;;;
2025.0;1974.3;;;;;;;;;;-48.699913;-27.203438;87.95816;;;;;;;;;
2025.0;1974.3;;;;;;;0.514481;-1.0349437;0.39179662;;;;;;;;;;;;
2025.0;1974.3;;;;;;;;;;-47.608875;-27.72988;89.75112;;;;;;;;;
2025.0;1974.3;;;;;;;0.5254677;-1.0455031;0.42091128;;;;;;;;;;;;
2025.0;1976.2;;;;-0.16988374;0.8683816;-0.15769197;;;;;;;;;;;;;;;
2025.0;1976.2;;;;-0.16732027;0.8661729;-0.1567917;;;;;;;;;;;;;;;
2025.0;1976.2;;;;-0.1644211;0.8638154;-0.1560135;;;;;;;;;;;;;;;
2025.0;1976.2;;;;-0.1606064;0.8604814;-0.15628053;;;;;;;;;;;;;;;
2025.0;1976.2;;;;-0.15876009;0.8578874;-0.15536119;;;;;;;;;;;;;;;
2025.0;1981.2;262143;262143;11410;;;;;;;;;;;;;;;;;;
2025.0;1983.8;;;;;;;;;;-46.651356;-28.939177;91.971344;;;;;;;;;
2025.0;1983.8;;;;;;;0.5318155;-1.0450759;0.4448378;;;;;;;;;;;;
2025.0;1983.8;;;;;;;;;;-45.827354;-30.667286;94.21064;;;;;;;;;
2025.0;1983.8;;;;;;;0.5287637;-1.0327463;0.45991394;;;;;;;;;;;;
2081.0;1986.2;;;;-0.15789415;0.85580075;-0.15386964;;;;;;;;;;;;;;;
2081.0;1986.2;;;;-0.1556511;0.8530313;-0.15329744;;;;;;;;;;;;;;;
2081.0;1986.2;;;;-0.1527672;0.850464;-0.15247346;;;;;;;;;;;;;;;
2081.0;1986.2;;;;-0.15008165;0.8482095;-0.15182115;;;;;;;;;;;;;;;
2081.0;1986.2;;;;-0.14860536;0.84611905;-0.1504593;;;;;;;;;;;;;;;
2081.0;1993.1;;;;;;;;;;-45.144505;-32.456436;96.28208;;;;;;;;;
2081.0;1993.1;;;;;;;0.522599;-1.0112613;0.46632284;;;;;;;;;;;;
2081.0;1993.1;;;;;;;;;;-44.81643;-34.51262;97.96442;;;;;;;;;
2081.0;1993.1;;;;;;;0.5114292;-0.99038666;0.46485794;;;;;;;;;;;;
2081.0;1996.0;;;;-0.14673235;0.8445817;-0.1495247;;;;;;;;;;;;;;;
2081.0;1996.0;;;;-0.14422227;0.84346783;-0.1474991;;;;;;;;;;;;;;;
2081.0;1996.0;;;;-0.14192201;0.8420526;-0.1452942;;;;;;;;;;;;;;;
2081.0;1996.0;;;;-0.139946;0.84124005;-0.1442795;;;;;;;;;;;;;;;
2081.0;1996.0;;;;-0.13816454;0.8411256;-0.14260484;;;;;;;;;;;;;;;
2081.0;2001.2;262143;262143;11411;;;;;;;;;;;;;;;;;;
2081.0;2002.8;;;;;;;;;;-44.717243;-36.393322;99.08215;;;;;;;;;
2081.0;2002.8;;;;;;;0.501236;-0.9710379;0.45814386;;;;;;;;;;;;
2081.0;2002.8;;;;;;;;;;-44.755394;-37.94214;99.55138;;;;;;;;;
2081.0;2002.8;;;;;;;0.49293497;-0.95992917;0.4481338;;;;;;;;;;;;
2081.0;2006.1;;;;;;;;;;;;;-1353;;;;;;;;
2081.0;2006.1;;;;;;;;;;;;;-1880;;;;;;;;
2081.0;2006.1;;;;;;;;;;;;;-2275;;;;;;;;
2081.0;2006.1;;;;;;;;;;;;;-2547;;;;;;;;
2081.0;2006.1;;;;;;;;;;;;;-2910;;;;;;;;
2083.0;2006.1;;;;-0.136158;0.8407098;-0.13998796;;;;;;;;;;;;;;;
2083.0;2006.1;;;;-0.13441087;0.84051144;-0.13747789;;;;;;;;;;;;;;;
2083.0;2006.1;;;;-0.13256074;0.83996975;-0.1345215;;;;;;;;;;;;;;;
2083.0;2006.1;;;;-0.13030244;0.8399354;-0.1309662;;;;;;;;;;;;;;;
2083.0;2006.1;;;;-0.12906267;0.8402101;-0.12714387;;;;;;;;;;;;;;;
2083.0;2012.4;;;;;;;;;;-44.8088;-39.12473;99.33012;;;;;;;;;
2083.0;2012.4;;;;;;;0.48695335;-0.95638907;0.438612;;;;;;;;;;;;
2083.0;2012.4;;;;;;;;;;-44.991913;-39.399395;98.56716;;;;;;;;;
2083.0;2012.4;;;;;;;0.4877468;-0.96011233;0.42304757;;;;;;;;;;;;
2083.0;2016.3;;;;-0.12798311;0.839779;-0.122993484;;;;;;;;;;;;;;;
2083.0;2016.3;;;;-0.1277199;0.8403512;-0.11881639;;;;;;;;;;;;;;;
2083.0;2016.3;;;;-0.12771226;0.84140027;-0.11490251;;;;;;;;;;;;;;;
2083.0;2016.3;;;;-0.12778093;0.84267056;-0.11079408;;;;;;;;;;;;;;;
2083.0;2016.3;;;;-0.12844469;0.84324276;-0.1064644;;;;;;;;;;;;;;;
2083.0;2021.5;262143;262143;11423;;;;;;;;;;;;;;;;;;
2083.0;2022.0;;;;;;;;;;-45.281837;-38.502914;97.47612;;;;;;;;;
2083.0;2022.0;;;;;;;0.48817408;-0.9720756;0.4102298;;;;;;;;;;;;
2083.0;2022.0;;;;;;;;;;-45.503098;-36.19877;96.07227;;;;;;;;;
2083.0;2022.0;;;;;;;0.49195838;-0.9953307;0.40333262;;;;;;;;;;;;
2084.0;2026.3;;;;-0.1289673;0.8445474;-0.10302736;;;;;;;;;;;;;;;
2084.0;2026.3;;;;-0.13066866;0.8463098;-0.09843446;;;;;;;;;;;;;;;
2084.0;2026.3;;;;-0.13283922;0.8479234;-0.09493257;;;;;;;;;;;;;;;
2084.0;2026.3;;;;-0.13433458;0.8492547;-0.09233857;;;;;;;;;;;;;;;
2084.0;2026.3;;;;-0.13613512;0.85050595;-0.08876038;;;;;;;;;;;;;;;
2084.0;2031.6;;;;;;;;;;-45.453503;-32.51747;94.36705;;;;;;;;;
2084.0;2031.6;;;;;;;0.50483716;-1.0229805;0.40424818;;;;;;;;;;;;
2084.0;2031.6;;;;;;;;;;-45.13306;-28.13425;92.15445;;;;;;;;;
2084.0;2031.6;;;;;;;0.5236366;-1.0541093;0.41865292;;;;;;;;;;;;
2084.0;2036.4;;;;-0.13877489;0.8516847;-0.08485795;;;;;;;;;;;;;;;
2084.0;2036.4;;;;-0.14075471;0.85281765;-0.08014298;;;;;;;;;;;;;;;
2084.0;2036.4;;;;-0.14209749;0.85301983;-0.0760994;;;;;;;;;;;;;;;
2084.0;2036.4;;;;-0.14322664;0.8534013;-0.07138444;;;;;;;;;;;;;;;
2084.0;2036.4;;;;-0.1445389;0.85383236;-0.06630326;;;;;;;;;;;;;;;
2085.0;2039.1;;;;;;;;;;;;;;;;;48.986023;18.936735;51.084167;;1830.7
2085.0;2039.1;;;;;;;;;;;;;;0.72872096;-0.14398633;-0.4293344;;;;;1830.7
2085.0;2039.1;;;;;;;;;;;;;;;;;53.758354;14.900662;49.630726;;1830.7
2085.0;2039.1;;;;;;;;;;;;;;0.7493515;-0.11456648;-0.44721824;;;;;1830.7
2085.0;2039.1;;;;;;;;;;;;;;;;;58.24076;11.703849;48.074284;;1840.4
2085.0;2039.1;;;;;;;;;;;;;;0.78096867;-0.08081301;-0.4664449;;;;;1840.4
2085.0;2039.1;;;;;;;;;;;;;;;;;60.926388;10.029145;46.506393;;1840.4
2085.0;2039.1;;;;;;;;;;;;;;0.80886257;-0.061281167;-0.4852443;;;;;1840.4
2085.0;2039.1;;;;;;;;;;;;;;;;;62.08991;9.720146;45.163578;;1850.0
2085.0;2039.1;;;;;;;;;;;;;;0.8291879;-0.044068728;-0.5042268;;;;;1850.0
2085.0;2039.1;;;;;;;;;;;;;;;;;62.14713;10.280923;44.0611;;1850.0
2085.0;2039.1;;;;;;;;;;;;;;0.83321637;-0.015686514;-0.52058476;;;;;1850.0
2085.0;2040.3;;;;;;;;;;;;;;;;;61.41087;11.246071;43.6491;;1859.3
2085.0;2040.3;;;;;;;;;;;;;;0.82003236;0.013122959;-0.53187656;;;;;1859.3
2085.0;2040.3;;;;;;;;;;;;;;;;;59.770504;11.940367;44.00006;;1859.3
2085.0;2040.3;;;;;;;;;;;;;;0.7937254;0.055360578;-0.5305338;;;;;1859.3
2085.0;2040.3;;;;;;;;;;;;;;;;;56.840725;12.066256;44.96902;;1868.9
2085.0;2040.3;;;;;;;;;;;;;;0.7705924;0.09143346;-0.5051424;;;;;1868.9
2085.0;2040.3;;;;;;;;;;;;;;;;;53.216652;12.077701;46.02954;;1868.9
2085.0;2040.3;;;;;;;;;;;;;;0.7513657;0.12225715;-0.46662802;;;;;1868.9
2085.0;2040.3;;;;;;;;;;;;;;;;;48.646507;12.146367;46.910763;;1878.6
2085.0;2040.3;;;;;;;;;;;;;;0.7361675;0.1462447;-0.4255501;;;;;1878.6
2085.0;2040.3;;;;;;;;;;;;;;;;;43.267616;12.176886;47.685173;;1878.6
2085.0;2040.3;;;;;;;;;;;;;;0.72963655;0.15967284;-0.3878292;;;;;1878.6
2086.0;2041.2;;;;;;;;;;;;;;;;;37.48436;12.119663;47.5898;;1888.3
2086.0;2041.2;;;;;;;;;;;;;;0.73409224;0.16302988;-0.3546861;;;;;1888.3
2086.0;2041.2;;;;;;;;;;;;;;;;;31.708733;12.279885;46.254616;;1888.3
2086.0;2041.2;;;;;;;;;;;;;;0.7406232;0.16089359;-0.3261208;;;;;1888.3
2086.0;2041.2;;;;;;;;;;;;;;;;;26.436659;12.169256;43.59569;;1897.9
2086.0;2041.2;;;;;;;;;;;;;;0.74330884;0.13818781;-0.3025605;;;;;1897.9
2086.0;2041.2;;;;;;;;;;;;;;;;;22.465437;11.791589;39.876247;;1897.9
2086.0;2041.2;;;;;;;;;;;;;;0.75106055;0.11651967;-0.28888822;;;;;1897.9
2086.0;2041.2;;;;;;;;;;;;;;;;;19.146551;10.948516;35.134434;;1907.5
2086.0;2041.2;;;;;;;;;;;;;;0.7637562;0.0822779;-0.29493088;;;;;1907.5
2086.0;2041.2;;;;;;;;;;;;;;;;;17.632069;9.82696;29.416029;;1907.5
2086.0;2041.2;;;;;;;;;;;;;;0.7769402;0.05713065;-0.3162328;;;;;1907.5
2086.0;2041.0;;;;;;;;;;-44.598984;-23.258919;89.65956;;;;;;;;;
2086.0;2041.0;;;;;;;0.54200876;-1.0826746;0.4384289;;;;;;;;;;;;
2086.0;2041.0;;;;;;;;;;-43.95047;-18.261513;86.9892;;;;;;;;;
2086.0;2041.0;;;;;;;0.5627003;-1.1110568;0.4646138;;;;;;;;;;;;
2087.0;2042.0;;;;;;;;;;;;;;;;;17.155216;8.3925905;23.377178;;1917.1
2087.0;2042.0;;;;;;;;;;;;;;0.7906125;0.050294504;-0.36976227;;;;;1917.1
2087.0;2042.0;;;;;;;;;;;;;;;;;16.624958;6.8628497;17.349771;;1917.1
2087.0;2042.0;;;;;;;;;;;;;;0.8022706;0.05426191;-0.44227424;;;;;1917.1
2087.0;2042.0;;;;;;;;;;;;;;;;;15.221107;4.627369;11.555071;;1926.8
2087.0;2042.0;;;;;;;;;;;;;;0.8111209;0.0656148;-0.52668846;;;;;1926.8
2087.0;2042.0;;;;;;;;;;;;;;;;;12.867367;2.25074;6.7712946;;1926.8
2087.0;2042.0;;;;;;;;;;;;;;0.8185064;0.07751702;-0.6059755;;;;;1926.8
2087.0;2042.0;;;;;;;;;;;;;;;;;8.968627;-0.76296276;2.6818142;;1936.4
2087.0;2042.0;;;;;;;;;;;;;;0.8346812;0.08740501;-0.6841029;;;;;1936.4
2087.0;2042.0;;;;;;;;;;;;;;;;;3.1815546;-4.4366283;-0.6637776;;1936.4
2087.0;2042.0;;;;;;;;;;;;;;0.852443;0.08520768;-0.750267;;;;;1936.4
2087.0;2041.5;262143;262143;11424;;;;;;;;;;;;;;;;;;
2143.0;2042.8;;;;;;;;;;;;;;;;;-3.1701102;-8.709219;-3.47911;;1946.0
2143.0;2042.8;;;;;;;;;;;;;;0.8598895;0.061830502;-0.80251473;;;;;1946.0
2143.0;2042.8;;;;;;;;;;;;;;;;;-8.29722;-13.561663;-5.3903317;;1946.0
2143.0;2042.8;;;;;;;;;;;;;;0.8653218;0.026306955;-0.83639026;;;;;1946.0
2143.0;2042.8;;;;;;;;;;;;;;;;;-11.173589;-18.475143;-6.2944427;;1955.6
2143.0;2042.8;;;;;;;;;;;;;;0.86666465;0.03784295;-0.86324656;;;;;1955.6
2143.0;2042.8;;;;;;;;;;;;;;;;;-13.683737;-20.91281;-8.056887;;1955.6
2143.0;2042.8;;;;;;;;;;;;;;0.8319346;0.072206795;-0.8518326;;;;;1955.6
2143.0;2042.8;;;;;;;;;;;;;;;;;-16.834774;-23.850216;-10.586108;;1965.4
2143.0;2042.8;;;;;;;;;;;;;;0.79635;0.11774041;-0.8351085;;;;;1965.4
2143.0;2042.8;;;;;;;;;;;;;;;;;-20.38255;-27.890102;-14.149144;;1965.4
2143.0;2042.8;;;;;;;;;;;;;;0.7655263;0.15601063;-0.82039857;;;;;1965.4
2143.0;2046.1;;;;-0.14590456;0.8548814;-0.062011726;;;;;;;;;;;;;;;
2143.0;2046.1;;;;-0.14733125;0.85598767;-0.058422096;;;;;;;;;;;;;;;
2143.0;2046.1;;;;-0.14850236;0.85792935;-0.05491639;;;;;;;;;;;;;;;
2143.0;2046.1;;;;-0.15003206;0.8608018;-0.051723488;;;;;;;;;;;;;;;
2143.0;2046.1;;;;-0.15270998;0.8648797;-0.049469;;;;;;;;;;;;;;;
2143.0;2046.1;;;;;;;;;;;;;-3388;;;;;;;;
2143.0;2046.1;;;;;;;;;;;;;-3752;;;;;;;;
2143.0;2046.1;;;;;;;;;;;;;-3873;;;;;;;;
2143.0;2046.1;;;;;;;;;;;;;-3892;;;;;;;;
2143.0;2046.1;;;;;;;;;;;;;-3888;;;;;;;;
2143.0;2050.0;;;;;;;;;;-43.343914;-13.454848;84.32264;;;;;;;;;
2143.0;2050.0;;;;;;;0.5808893;-1.1357158;0.48890653;;;;;;;;;;;;
2143.0;2050.0;;;;;;;;;;-42.634357;-9.075441;81.75146;;;;;;;;;
2143.0;2050.0;;;;;;;0.5975524;-1.1528062;0.5088046;;;;;;;;;;;;
2147.0;2055.7;;;;-0.15652849;0.87018216;-0.047767647;;;;;;;;;;;;;;;
2147.0;2055.7;;;;-0.16014864;0.87674725;-0.04551697;;;;;;;;;;;;;;;
2147.0;2055.7;;;;-0.1644478;0.88445294;-0.043800358;;;;;;;;;;;;;;;
2147.0;2055.7;;;;-0.16894914;0.89301693;-0.042369846;;;;;;;;;;;;;;;
2147.0;2055.7;;;;-0.1737404;0.9018556;-0.040779117;;;;;;;;;;;;;;;
2147.0;2059.5;;;;;;;;;;-41.86758;-5.0927763;78.974266;;;;;;;;;
2147.0;2059.5;;;;;;;0.6099429;-1.1616565;0.5317545;;;;;;;;;;;;
2147.0;2059.5;;;;;;;;;;-40.929134;-1.2855922;76.05976;;;;;;;;;
2147.0;2059.5;;;;;;;0.61653495;-1.1654408;0.5517747;;;;;;;;;;;;
2147.0;2061.0;262143;262143;11436;;;;;;;;;;;;;;;;;;
2147.0;2065.8;;;;-0.17761232;0.91115963;-0.03961945;;;;;;;;;;;;;;;
2147.0;2065.8;;;;-0.18235017;0.92027295;-0.038715366;;;;;;;;;;;;;;;
2147.0;2065.8;;;;-0.18733598;0.9292108;-0.037319187;;;;;;;;;;;;;;;
2147.0;2065.8;;;;-0.19144824;0.93735516;-0.036067966;;;;;;;;;;;;;;;
2147.0;2065.8;;;;-0.19509509;0.9444581;-0.035545353;;;;;;;;;;;;;;;
2147.0;2069.1;;;;;;;;;;-39.757988;2.4681845;73.17194;;;;;;;;;
2147.0;2069.1;;;;;;;0.619953;-1.1644032;0.5641652;;;;;;;;;;;;
2147.0;2069.1;;;;;;;;;;-38.54488;6.0274057;70.22309;;;;;;;;;
2147.0;2069.1;;;;;;;0.62727743;-1.1587268;0.57008576;;;;;;;;;;;;
2149.0;2075.9;;;;-0.19856265;0.95076764;-0.034427647;;;;;;;;;;;;;;;
2149.0;2075.9;;;;-0.2011452;0.9560281;-0.033103947;;;;;;;;;;;;;;;
2149.0;2075.9;;;;-0.20360187;0.96014416;-0.03036118;;;;;;;;;;;;;;;
2149.0;2075.9;;;;-0.2056351;0.96240246;-0.027923588;;;;;;;;;;;;;;;
2149.0;2075.9;;;;-0.20754626;0.96356213;-0.025764469;;;;;;;;;;;;;;;
2149.0;2078.7;;;;;;;;;;-37.1601;9.453109;66.68676;;;;;;;;;
2149.0;2078.7;;;;;;;0.6317331;-1.1520737;0.5731376;;;;;;;;;;;;
2149.0;2078.7;;;;;;;;;;-35.6151;12.432477;62.92917;;;;;;;;;
2149.0;2078.7;;;;;;;0.63325906;-1.1407819;0.56971955;;;;;;;;;;;;
2149.0;2081.3;262143;262143;11438;;;;;;;;;;;;;;;;;;
2149.0;2083.8;;;;;;;;;;;;;;;;;-22.995697;-32.322918;-18.84518;;1975.0
2149.0;2083.8;;;;;;;;;;;;;;0.7332377;0.1998352;-0.826014;;;;;1975.0
2149.0;2083.8;;;;;;;;;;;;;;;;;-24.628439;-37.83151;-24.422438;;1975.0
2149.0;2083.8;;;;;;;;;;;;;;0.70296335;0.25812554;-0.87166965;;;;;1975.0
2149.0;2083.8;;;;;;;;;;;;;;;;;-27.481916;-43.328655;-30.068361;;1984.6
2149.0;2083.8;;;;;;;;;;;;;;0.70961636;0.3157445;-0.86538285;;;;;1984.6
2149.0;2083.8;;;;;;;;;;;;;;;;;-32.509842;-46.65517;-36.29795;;1984.6
2149.0;2083.8;;;;;;;;;;;;;;0.7602771;0.35425887;-0.8280282;;;;;1984.6
2149.0;2083.8;;;;;;;;;;;;;;;;;-35.676136;-46.27369;-44.114506;;1994.2
2149.0;2083.8;;;;;;;;;;;;;;0.78756064;0.42353588;-0.8015381;;;;;1994.2
2149.0;2083.8;;;;;;;;;;;;;;;;;-36.500137;-43.702507;-52.667316;;1994.2
2149.0;2083.8;;;;;;;;;;;;;;0.7826777;0.50196844;-0.74550617;;;;;1994.2
2150.0;2085.9;;;;-0.2093201;0.9634744;-0.022418978;;;;;;;;;;;;;;;
2150.0;2085.9;;;;-0.21161273;0.9627992;-0.018627169;;;;;;;;;;;;;;;
2150.0;2085.9;;;;-0.21366504;0.9612962;-0.0142059345;;;;;;;;;;;;;;;
2150.0;2085.9;;;;-0.21561816;0.95967495;-0.008808137;;;;;;;;;;;;;;;
2150.0;2085.9;;;;-0.21742252;0.9579278;-0.0040054326;;;;;;;;;;;;;;;
2150.0;2086.0;;;;;;;;;;;;;-3697;;;;;;;;
2150.0;2086.0;;;;;;;;;;;;;-3351;;;;;;;;
2150.0;2086.0;;;;;;;;;;;;;-3200;;;;;;;;
2150.0;2086.0;;;;;;;;;;;;;-3303;;;;;;;;
2150.0;2086.0;;;;;;;;;;;;;-3196;;;;;;;;
2150.0;2088.2;;;;;;;;;;-33.87936;14.957885;59.160133;;;;;;;;;
2150.0;2088.2;;;;;;;0.6378369;-1.132725;0.560625;;;;;;;;;;;;
2150.0;2088.2;;;;;;;;;;-32.04062;17.075106;55.177464;;;;;;;;;
2150.0;2088.2;;;;;;;0.64113283;-1.1239357;0.54683065;;;;;;;;;;;;
2150.0;2096.0;;;;-0.21798709;0.95551693;0.0011711122;;;;;;;;;;;;;;;
2150.0;2096.0;;;;-0.22074893;0.95377743;0.0074157724;;;;;;;;;;;;;;;
2150.0;2096.0;;;;-0.22385028;0.951542;0.013843538;;;;;;;;;;;;;;;
2150.0;2096.0;;;;-0.22578433;0.9497186;0.01948166;;;;;;;;;;;;;;;
2150.0;2096.0;;;;-0.22837833;0.9472734;0.02513123;;;;;;;;;;;;;;;
2150.0;2097.8;;;;;;;;;;-30.022583;18.64681;51.129948;;;;;;;;;
2150.0;2097.8;;;;;;;0.6470534;-1.1221045;0.5296182;;;;;;;;;;;;
2150.0;2097.8;;;;;;;;;;-27.91299;19.981993;47.09769;;;;;;;;;
2150.0;2097.8;;;;;;;0.65651417;-1.1325419;0.51057464;;;;;;;;;;;;
2150.0;2101.4;262143;262143;11434;;;;;;;;;;;;;;;;;;
2202.0;2106.0;;;;-0.23137286;0.9459306;0.032127384;;;;;;;;;;;;;;;
2202.0;2106.0;;;;-0.23453906;0.9445268;0.038162235;;;;;;;;;;;;;;;
2202.0;2106.0;;;;-0.23664096;0.9440881;0.04577637;;;;;;;;;;;;;;;
2202.0;2106.0;;;;-0.23955157;0.9442102;0.05334855;;;;;;;;;;;;;;;
2202.0;2106.0;;;;-0.24319842;0.9447633;0.060279854;;;;;;;;;;;;;;;
2202.0;2107.3;;;;;;;;;;-25.765251;21.210365;42.916656;;;;;;;;;
2202.0;2107.3;;;;;;;0.66389966;-1.1546373;0.4954985;;;;;;;;;;;;
2202.0;2107.3;;;;;;;;;;-23.556475;22.583696;38.701286;;;;;;;;;
2202.0;2107.3;;;;;;;0.67165136;-1.1897947;0.4822535;;;;;;;;;;;;
2202.0;2115.6;;;;-0.24572757;0.9458047;0.06822205;;;;;;;;;;;;;;;
2202.0;2115.6;;;;-0.24713519;0.9474832;0.07548142;;;;;;;;;;;;;;;
2202.0;2115.6;;;;-0.25076297;0.9502374;0.08386231;;;;;;;;;;;;;;;
2202.0;2115.6;;;;-0.2536278;0.95299923;0.09210969;;;;;;;;;;;;;;;
2202.0;2115.6;;;;-0.25619128;0.9566575;0.10065462;;;;;;;;;;;;;;;
2202.0;2116.6;;;;;;;;;;-21.305735;24.418623;34.463024;;;;;;;;;
2202.0;2116.6;;;;;;;0.6771447;-1.2338634;0.47309792;;;;;;;;;;;;
2202.0;2116.6;;;;;;;;;;-18.803217;26.573992;30.316324;;;;;;;;;
2202.0;2116.6;;;;;;;0.6796472;-1.2798853;0.46687216;;;;;;;;;;;;
2202.0;2121.1;262143;262143;11419;;;;;;;;;;;;;;;;;;
2203.0;2125.7;;;;-0.25931934;0.9604875;0.10884859;;;;;;;;;;;;;;;
2203.0;2125.7;;;;-0.2620392;0.9647981;0.11709215;;;;;;;;;;;;;;;
2203.0;2125.7;;;;-0.2653313;0.96984875;0.1252556;;;;;;;;;;;;;;;
2203.0;2125.7;;;;-0.26858523;0.97576916;0.13337328;;;;;;;;;;;;;;;
2203.0;2125.7;;;;-0.2723389;0.98210156;0.14056398;;;;;;;;;;;;;;;
2203.0;2125.9;;;;;;;;;;;;;-2555;;;;;;;;
2203.0;2125.9;;;;;;;;;;;;;-1765;;;;;;;;
2203.0;2125.9;;;;;;;;;;;;;-1391;;;;;;;;
2203.0;2125.9;;;;;;;;;;;;;-1349;;;;;;;;
2203.0;2125.9;;;;;;;;;;;;;-1179;;;;;;;;
2203.0;2126.2;;;;;;;;;;-16.155737;28.820917;26.013214;;;;;;;;;
2203.0;2126.2;;;;;;;0.6810511;-1.3245643;0.46699423;;;;;;;;;;;;
2203.0;2126.2;;;;;;;;;;-13.42433;31.598103;21.465958;;;;;;;;;
2203.0;2126.2;;;;;;;0.68086797;-1.3573412;0.4657735;;;;;;;;;;;;
2203.0;2135.8;;;;;;;;;;-10.5822935;34.56221;16.571552;;;;;;;;;
2203.0;2135.8;;;;;;;0.6753746;-1.3793756;0.46113467;;;;;;;;;;;;
2203.0;2135.8;;;;;;;;;;-7.675405;37.396618;11.539811;;;;;;;;;
2203.0;2135.8;;;;;;;0.6739097;-1.3907285;0.45478684;;;;;;;;;;;;
2203.0;2135.9;;;;-0.27619556;0.9891969;0.1478882;;;;;;;;;;;;;;;
2203.0;2135.9;;;;-0.28109744;0.9972955;0.15446092;;;;;;;;;;;;;;;
2203.0;2135.9;;;;-0.28613666;1.0059167;0.16079332;;;;;;;;;;;;;;;
2203.0;2135.9;;;;-0.29019168;1.0154344;0.16747667;;;;;;;;;;;;;;;
2203.0;2135.9;;;;-0.29467013;1.0259782;0.17258836;;;;;;;;;;;;;;;
2203.0;2141.4;262143;262143;11404;;;;;;;;;;;;;;;;;;
2204.0;2145.4;;;;;;;;;;-4.8333693;40.059357;6.2181463;;;;;;;;;
2204.0;2145.4;;;;;;;0.67213964;-1.3935972;0.44410536;;;;;;;;;;;;
2204.0;2145.4;;;;;;;;;;-2.0599995;42.741173;0.6179998;;;;;;;;;
2204.0;2145.4;;;;;;;0.67098;-1.3921933;0.43702507;;;;;;;;;;;;
2204.0;2145.9;;;;-0.30084994;1.0369645;0.17610551;;;;;;;;;;;;;;;
2204.0;2145.9;;;;-0.30679706;1.0478173;0.17998125;;;;;;;;;;;;;;;
2204.0;2145.9;;;;-0.31157306;1.059002;0.1836815;;;;;;;;;;;;;;;
2204.0;2145.9;;;;-0.3181496;1.0704881;0.18744661;;;;;;;;;;;;;;;
2204.0;2145.9;;;;-0.3229256;1.0820237;0.19038776;;;;;;;;;;;;;;;
2204.0;2155.0;;;;;;;;;;0.6675924;45.1178;-4.9211097;;;;;;;;;
2204.0;2155.0;;;;;;;0.6704306;-1.3888974;0.42927337;;;;;;;;;;;;
2204.0;2155.0;;;;;;;;;;3.3761103;47.39906;-10.181738;;;;;;;;;
2204.0;2155.0;;;;;;;0.6685995;-1.3890195;0.42616045;;;;;;;;;;;;
2204.0;2156.0;;;;-0.32909015;1.0936319;0.19201663;;;;;;;;;;;;;;;
2204.0;2156.0;;;;-0.33555987;1.1049119;0.19414905;;;;;;;;;;;;;;;
2204.0;2156.0;;;;-0.3418732;1.1161844;0.195591;;;;;;;;;;;;;;;
2204.0;2156.0;;;;-0.34759906;1.1271058;0.19673923;;;;;;;;;;;;;;;
2204.0;2156.0;;;;-0.3525658;1.1376992;0.19668964;;;;;;;;;;;;;;;
2204.0;2161.5;262143;262143;11413;;;;;;;;;;;;;;;;;;
2204.0;2164.5;;;;;;;;;;6.103702;49.5468;-15.190588;;;;;;;;;
2204.0;2164.5;;;;;;;0.6649983;-1.3950621;0.41840875;;;;;;;;;;;;
2204.0;2164.5;;;;;;;;;;8.922849;51.652576;-19.966734;;;;;;;;;
2204.0;2164.5;;;;;;;0.6601764;-1.3996398;0.41572315;;;;;;;;;;;;
2260.0;2166.0;;;;-0.3555031;1.1482431;0.19664004;;;;;;;;;;;;;;;
2260.0;2166.0;;;;-0.35658267;1.1577951;0.19751361;;;;;;;;;;;;;;;
2260.0;2166.0;;;;-0.35916904;1.1673814;0.19710925;;;;;;;;;;;;;;;
2260.0;2166.0;;;;-0.36031345;1.1766778;0.19721225;;;;;;;;;;;;;;;
2260.0;2166.0;;;;-0.3630295;1.1866189;0.19431308;;;;;;;;;;;;;;;
2260.0;2166.3;;;;;;;;;;;;;-821;;;;;;;;
2260.0;2166.3;;;;;;;;;;;;;-609;;;;;;;;
2260.0;2166.3;;;;;;;;;;;;;-722;;;;;;;;
2260.0;2166.3;;;;;;;;;;;;;-996;;;;;;;;
2260.0;2166.3;;;;;;;;;;;;;-1283;;;;;;;;
2260.0;2173.9;;;;;;;;;;11.757256;53.58669;-24.67803;;;;;;;;;
2260.0;2173.9;;;;;;;0.6522416;-1.4016541;0.41206092;;;;;;;;;;;;
2260.0;2173.9;;;;;;;;;;14.694663;55.35676;-29.301584;;;;;;;;;
2260.0;2173.9;;;;;;;0.6441847;-1.4003723;0.4079104;;;;;;;;;;;;
2260.0;2175.9;;;;-0.36338046;1.1954194;0.19345859;;;;;;;;;;;;;;;
2260.0;2175.9;;;;-0.36275485;1.2048188;0.19390109;;;;;;;;;;;;;;;
2260.0;2175.9;;;;-0.3622513;1.2134362;0.19275287;;;;;;;;;;;;;;;
2260.0;2175.9;;;;-0.36256793;1.2224618;0.18961337;;;;;;;;;;;;;;;
2260.0;2175.9;;;;-0.35951617;1.2307779;0.18804172;;;;;;;;;;;;;;;
2260.0;2181.5;262143;262143;11407;;;;;;;;;;;;;;;;;;
2260.0;2183.5;;;;;;;;;;17.708364;56.676685;-34.12351;;;;;;;;;
2260.0;2183.5;;;;;;;0.63106173;-1.3873714;0.40583515;;;;;;;;;;;;
2260.0;2183.5;;;;;;;;;;20.668661;57.794426;-39.02173;;;;;;;;;
2260.0;2183.5;;;;;;;0.6164129;-1.3655813;0.40418714;;;;;;;;;;;;
2262.0;2186.0;;;;-0.357605;1.2391435;0.18535616;;;;;;;;;;;;;;;
2262.0;2186.0;;;;-0.35346988;1.2465593;0.18311693;;;;;;;;;;;;;;;
2262.0;2186.0;;;;-0.35398105;1.2539064;0.17869188;;;;;;;;;;;;;;;
2262.0;2186.0;;;;-0.35110477;1.2608758;0.17647554;;;;;;;;;;;;;;;
2262.0;2186.0;;;;-0.3483353;1.2674905;0.17473985;;;;;;;;;;;;;;;
2262.0;2193.1;;;;;;;;;;23.65566;58.523056;-43.88562;;;;;;;;;
2262.0;2193.1;;;;;;;0.6013367;-1.3340251;0.39930418;;;;;;;;;;;;
2262.0;2193.1;;;;;;;;;;26.554918;58.79391;-48.86395;;;;;;;;;
2262.0;2193.1;;;;;;;0.58412427;-1.2950225;0.39136937;;;;;;;;;;;;
2262.0;2196.1;;;;-0.345871;1.2735063;0.17375566;;;;;;;;;;;;;;;
2262.0;2196.1;;;;-0.3420029;1.2799226;0.1738968;;;;;;;;;;;;;;;
2262.0;2196.1;;;;-0.33945087;1.2858163;0.17232896;;;;;;;;;;;;;;;
2262.0;2196.1;;;;-0.3377762;1.2898866;0.17069246;;;;;;;;;;;;;;;
2262.0;2196.1;;;;-0.3359032;1.2939149;0.17077257;;;;;;;;;;;;;;;
2262.0;2201.8;262143;262143;11393;;;;;;;;;;;;;;;;;;
2262.0;2202.8;;;;;;;;;;29.522844;59.106724;-53.84228;;;;;;;;;
2262.0;2202.8;;;;;;;0.5692312;-1.2536393;0.38306832;;;;;;;;;;;;
2262.0;2202.8;;;;;;;;;;32.38014;59.3585;-58.847317;;;;;;;;;
2262.0;2202.8;;;;;;;0.5559862;-1.2135991;0.37440106;;;;;;;;;;;;
2263.0;2206.2;;;;-0.33496478;1.296959;0.16949846;;;;;;;;;;;;;;;
2263.0;2206.2;;;;-0.33134082;1.2991678;0.17039873;;;;;;;;;;;;;;;
2263.0;2206.2;;;;-0.329567;1.3005029;0.17131807;;;;;;;;;;;;;;;
2263.0;2206.2;;;;-0.32608035;1.3015405;0.17327501;;;;;;;;;;;;;;;
2263.0;2206.2;;;;-0.32317355;1.3003999;0.17526628;;;;;;;;;;;;;;;
2263.0;2206.5;;;;;;;;;;;;;-1558;;;;;;;;
2263.0;2206.5;;;;;;;;;;;;;-1766;;;;;;;;
2263.0;2206.5;;;;;;;;;;;;;-1851;;;;;;;;
2263.0;2206.5;;;;;;;;;;;;;-1834;;;;;;;;
2263.0;2206.5;;;;;;;;;;;;;-1733;;;;;;;;
2263.0;2211.8;;;;;;;;;;;;;;;;;-39.353615;-44.41206;-60.419018;;2003.8
2263.0;2211.8;;;;;;;;;;;;;;0.8158208;0.5769219;-0.6963714;;;;;2003.8
2263.0;2211.8;;;;;;;;;;;;;;;;;-43.939026;-45.175022;-68.685715;;2003.8
2263.0;2211.8;;;;;;;;;;;;;;0.8713645;0.6303293;-0.63380843;;;;;2003.8
2263.0;2211.8;;;;;;;;;;;;;;;;;-49.089024;-43.65673;-78.17697;;2013.5
2263.0;2211.8;;;;;;;;;;;;;;0.906827;0.65034944;-0.55964845;;;;;2013.5
2263.0;2211.8;;;;;;;;;;;;;;;;;-54.6968;-39.47569;-87.93909;;2013.5
2263.0;2211.8;;;;;;;;;;;;;;0.9658498;0.6399121;-0.49201941;;;;;2013.5
2263.0;2211.8;;;;;;;;;;;;;;;;;-61.12476;-34.009064;-97.71264;;2023.2
2263.0;2211.8;;;;;;;;;;;;;;1.020722;0.6207465;-0.44557023;;;;;2023.2
2263.0;2211.8;;;;;;;;;;;;;;;;;-70.84872;-27.302622;-108.26441;;2023.2
2263.0;2211.8;;;;;;;;;;;;;;1.0513016;0.6024964;-0.39197972;;;;;2023.2
2263.0;2212.3;;;;;;;;;;35.34425;59.377575;-64.10413;;;;;;;;;
2263.0;2212.3;;;;;;;0.544084;-1.1750237;0.36408582;;;;;;;;;;;;
2263.0;2212.3;;;;;;;;;;38.38847;59.106724;-69.41816;;;;;;;;;
2263.0;2212.3;;;;;;;0.5340739;-1.1424909;0.3526719;;;;;;;;;;;;
2321.0;2216.2;;;;-0.32177737;1.2983476;0.17838289;;;;;;;;;;;;;;;
2321.0;2216.2;;;;-0.3192368;1.294922;0.1843033;;;;;;;;;;;;;;;
2321.0;2216.2;;;;-0.3158951;1.2907335;0.1901932;;;;;;;;;;;;;;;
2321.0;2216.2;;;;-0.3138161;1.2846147;0.19506839;;;;;;;;;;;;;;;
2321.0;2216.2;;;;-0.31061557;1.2770005;0.20143512;;;;;;;;;;;;;;;
2321.0;2221.8;;;;;;;;;;41.364025;58.610798;-74.70931;;;;;;;;;
2321.0;2221.8;;;;;;;0.5255287;-1.1147801;0.3434553;;;;;;;;;;;;
2321.0;2221.8;;;;;;;;;;44.3968;58.038574;-79.91653;;;;;;;;;
2321.0;2221.8;;;;;;;0.5164342;-1.0979339;0.3327128;;;;;;;;;;;;
2321.0;2221.9;262143;262143;11378;;;;;;;;;;;;;;;;;;
2321.0;2226.2;;;;-0.30786136;1.2681276;0.20818332;;;;;;;;;;;;;;;
2321.0;2226.2;;;;-0.30588534;1.2578813;0.21522143;;;;;;;;;;;;;;;
2321.0;2226.2;;;;-0.30204013;1.2470933;0.22277835;;;;;;;;;;;;;;;
2321.0;2226.2;;;;-0.29948428;1.2356302;0.22966388;;;;;;;;;;;;;;;
2321.0;2226.2;;;;-0.2979584;1.2238542;0.23664096;;;;;;;;;;;;;;;
2321.0;2231.1;;;;;;;;;;47.33421;57.676167;-84.94064;;;;;;;;;
2321.0;2231.1;;;;;;;0.5100253;-1.0888394;0.32343516;;;;;;;;;;;;
2321.0;2231.1;;;;;;;;;;50.122837;57.714317;-89.96093;;;;;;;;;
2321.0;2231.1;;;;;;;0.5095981;-1.0943937;0.31391338;;;;;;;;;;;;
2322.0;2236.0;;;;-0.29508212;1.211548;0.24546054;;;;;;;;;;;;;;;
2322.0;2236.0;;;;-0.29242328;1.1985208;0.25481036;;;;;;;;;;;;;;;
2322.0;2236.0;;;;-0.29244617;1.1862756;0.26302722;;;;;;;;;;;;;;;
2322.0;2236.0;;;;-0.29176715;1.1727144;0.27183917;;;;;;;;;;;;;;;
2322.0;2236.0;;;;-0.28932574;1.1605302;0.28079227;;;;;;;;;;;;;;;
2322.0;2240.7;;;;;;;;;;52.999207;57.84402;-94.71801;;;;;;;;;
2322.0;2240.7;;;;;;;0.5081942;-1.107822;0.305063;;;;;;;;;;;;
2322.0;2240.7;;;;;;;;;;55.730614;58.41243;-99.188965;;;;;;;;;
2322.0;2240.7;;;;;;;0.511124;-1.1313822;0.2957854;;;;;;;;;;;;
2322.0;2241.8;262143;262143;11383;;;;;;;;;;;;;;;;;;
2322.0;2246.1;;;;-0.28686908;1.1494714;0.2899399;;;;;;;;;;;;;;;
2322.0;2246.1;;;;-0.28767017;1.1386071;0.29597095;;;;;;;;;;;;;;;
2322.0;2246.1;;;;-0.288044;1.1267625;0.3029938;;;;;;;;;;;;;;;
2322.0;2246.1;;;;-0.2856789;1.1157113;0.31022266;;;;;;;;;;;;;;;
2322.0;2246.1;;;;-0.2844086;1.1050645;0.3162537;;;;;;;;;;;;;;;
2322.0;2246.5;;;;;;;;;;;;;-1392;;;;;;;;
2322.0;2246.5;;;;;;;;;;;;;-689;;;;;;;;
2322.0;2246.5;;;;;;;;;;;;;-17;;;;;;;;
2322.0;2246.5;;;;;;;;;;;;;193;;;;;;;;
2322.0;2246.5;;;;;;;;;;;;;70;;;;;;;;
2322.0;2250.3;;;;;;;;;;58.40098;59.08002;-103.3433;;;;;;;;;
2322.0;2250.3;;;;;;;0.51026946;-1.1630604;0.29291666;;;;;;;;;;;;
2322.0;2250.3;;;;;;;;;;61.1095;59.6408;-107.1009;;;;;;;;;
2322.0;2250.3;;;;;;;0.5084994;-1.2000488;0.29078037;;;;;;;;;;;;
2324.0;2256.2;;;;-0.2838135;1.0955697;0.32243732;;;;;;;;;;;;;;;
2324.0;2256.2;;;;-0.283371;1.0849763;0.32726672;;;;;;;;;;;;;;;
2324.0;2256.2;;;;-0.28226092;1.0755922;0.33464816;;;;;;;;;;;;;;;
2324.0;2256.2;;;;-0.28023532;1.0643464;0.34114078;;;;;;;;;;;;;;;
2324.0;2256.2;;;;-0.27947238;1.0530435;0.34852603;;;;;;;;;;;;;;;
2324.0;2259.9;;;;;;;;;;63.924835;60.30076;-110.457924;;;;;;;;;
2324.0;2259.9;;;;;;;0.5034944;-1.23661;0.28553116;;;;;;;;;;;;
2324.0;2259.9;;;;;;;;;;66.846985;61.09424;-113.4106;;;;;;;;;
2324.0;2259.9;;;;;;;0.4989166;-1.2740257;0.27906126;;;;;;;;;;;;
2324.0;2262.0;262143;262143;11362;;;;;;;;;;;;;;;;;;
2324.0;2266.3;;;;-0.27853397;1.0419923;0.35548404;;;;;;;;;;;;;;;
2324.0;2266.3;;;;-0.27767947;1.0307275;0.36270526;;;;;;;;;;;;;;;
2324.0;2266.3;;;;-0.2749863;1.0199014;0.37048724;;;;;;;;;;;;;;;
2324.0;2266.3;;;;-0.27354053;1.0092965;0.3753472;;;;;;;;;;;;;;;
2324.0;2266.3;;;;-0.2711983;0.9981309;0.38128668;;;;;;;;;;;;;;;
2324.0;2269.6;;;;;;;;;;69.75768;61.81524;-115.96652;;;;;;;;;
2324.0;2269.6;;;;;;;0.49525437;-1.3097323;0.27124852;;;;;;;;;;;;
2324.0;2269.6;;;;;;;;;;72.714165;62.444687;-118.19056;;;;;;;;;
2324.0;2269.6;;;;;;;0.49208045;-1.3433027;0.2602008;;;;;;;;;;;;
2326.0;2276.3;;;;-0.26877978;0.98628247;0.3853646;;;;;;;;;;;;;;;
2326.0;2276.3;;;;-0.26819232;0.9740144;0.38969046;;;;;;;;;;;;;;;
2326.0;2276.3;;;;-0.2652779;0.96236813;0.39345175;;;;;;;;;;;;;;;
2326.0;2276.3;;;;-0.26150897;0.95100033;0.3954888;;;;;;;;;;;;;;;
2326.0;2276.3;;;;-0.26000217;0.94033444;0.39812475;;;;;;;;;;;;;;;
2326.0;2279.1;;;;;;;;;;75.67065;62.60109;-120.32304;;;;;;;;;
2326.0;2279.1;;;;;;;0.49031037;-1.3743095;0.24634542;;;;;;;;;;;;
2326.0;2279.1;;;;;;;;;;78.60805;62.086094;-122.318184;;;;;;;;;
2326.0;2279.1;;;;;;;0.48445082;-1.4069643;0.22748497;;;;;;;;;;;;
2326.0;2279.5;;;;;;;;;;;;;;;;;-81.49968;-21.629993;-119.78515;;2032.6
2326.0;2279.5;;;;;;;;;;;;;;1.0628376;0.60103154;-0.33051544;;;;;2032.6
2326.0;2279.5;;;;;;;;;;;;;;;;;-89.78927;-19.142736;-124.881744;;2032.6
2326.0;2279.5;;;;;;;;;;;;;;1.1280862;0.5731986;-0.25928527;;;;;2032.6
2326.0;2279.5;;;;;;;;;;;;;;;;;-94.83245;-17.91818;-124.988556;;2042.2
2326.0;2279.5;;;;;;;;;;;;;;1.1778314;0.5162511;-0.21662039;;;;;2042.2
2326.0;2279.5;;;;;;;;;;;;;;;;;-97.579124;-12.0548115;-124.988556;;2042.2
2326.0;2279.5;;;;;;;;;;;;;;1.18717;0.46107364;-0.115421005;;;;;2042.2
2326.0;2279.5;;;;;;;;;;;;;;;;;-98.90668;-6.0731835;-124.988556;;2051.7
2326.0;2279.5;;;;;;;;;;;;;;1.2026124;0.34730065;0.0011597034;;;;;2051.7
2326.0;2279.5;;;;;;;;;;;;;;;;;-98.18186;0.10681479;-124.988556;;2051.7
2326.0;2279.5;;;;;;;;;;;;;;1.2571795;0.14258248;0.117435224;;;;;2051.7
2328.0;2280.4;;;;;;;;;;;;;;;;;-94.72564;2.7390363;-124.988556;;2061.3
2328.0;2280.4;;;;;;;;;;;;;;1.2410657;-0.0073244423;0.014893033;;;;;2061.3
2328.0;2280.4;;;;;;;;;;;;;;;;;-87.86279;8.610034;-124.988556;;2061.3
2328.0;2280.4;;;;;;;;;;;;;;1.2578509;-0.074221015;-0.123111665;;;;;2061.3
2328.0;2280.4;;;;;;;;;;;;;;;;;-77.314835;20.519882;-124.988556;;2070.9
2328.0;2280.4;;;;;;;;;;;;;;1.4454787;-0.23700674;-0.07684561;;;;;2070.9
2328.0;2280.4;;;;;;;;;;;;;;;;;-60.384686;28.771324;-124.988556;;2070.9
2328.0;2280.4;;;;;;;;;;;;;;1.7615894;-0.3178808;-0.14441359;;;;;2070.9
2328.0;2280.4;;;;;;;;;;;;;;;;;-44.52269;37.659843;-124.988556;;2080.6
2328.0;2280.4;;;;;;;;;;;;;;1.9888302;-0.5500046;-0.2360912;;;;;2080.6
2328.0;2280.4;;;;;;;;;;;;;;;;;-27.40562;36.42384;-124.988556;;2080.6
2328.0;2280.4;;;;;;;;;;;;;;1.9968871;-0.8808252;-0.33204138;;;;;2080.6
2328.0;2281.2;;;;;;;;;;;;;;;;;-8.301035;8.934294;-124.72152;;2090.3
2328.0;2281.2;;;;;;;;;;;;;;1.9968871;-1.2487564;-0.6118961;;;;;2090.3
2328.0;2281.2;;;;;;;;;;;;;;;;;2.254555;-22.652363;-115.56215;;2090.3
2328.0;2281.2;;;;;;;;;;;;;;1.996765;-1.431257;-0.9378338;;;;;2090.3
2328.0;2281.2;;;;;;;;;;;;;;;;;-5.405591;-36.54973;-89.0759;;2099.8
2328.0;2281.2;;;;;;;;;;;;;;1.8439894;-1.6280404;-1.0827357;;;;;2099.8
2328.0;2281.2;;;;;;;;;;;;;;;;;-28.675955;-37.835323;-73.9845;;2099.8
2328.0;2281.2;;;;;;;;;;;;;;1.581225;-1.8212836;-1.083285;;;;;2099.8
2328.0;2281.2;;;;;;;;;;;;;;;;;-42.84036;-33.017212;-87.59194;;2109.3
2328.0;2281.2;;;;;;;;;;;;;;1.3218176;-1.8195136;-0.9193396;;;;;2109.3
2328.0;2281.2;;;;;;;;;;;;;;;;;-39.147617;-39.994507;-117.87393;;2109.3
2328.0;2281.2;;;;;;;;;;;;;;1.2045045;-1.1963255;-0.7281106;;;;;2109.3
2329.0;2282.4;;;;;;;;;;;;;;;;;-41.077915;-57.744835;-122.59285;;2119.0
2329.0;2282.4;;;;;;;;;;;;;;1.0409253;-0.78920865;-0.6510208;;;;;2119.0
2329.0;2282.4;;;;;;;;;;;;;;;;;-51.65639;-79.645676;-117.023224;;2119.0
2329.0;2282.4;;;;;;;;;;;;;;0.9866634;-0.5955382;-0.6668294;;;;;2119.0
2329.0;2282.4;;;;;;;;;;;;;;;;;-57.06198;-99.99771;-109.08842;;2128.6
2329.0;2282.4;;;;;;;;;;;;;;0.9542528;-0.5669118;-0.692404;;;;;2128.6
2329.0;2282.4;;;;;;;;;;;;;;;;;-61.50624;-113.04056;-109.48897;;2128.6
2329.0;2282.4;;;;;;;;;;;;;;1.0426344;-0.4704123;-0.6800134;;;;;2128.6
2329.0;2282.4;;;;;;;;;;;;;;;;;-71.264534;-118.114265;-115.17686;;2138.3
2329.0;2282.4;;;;;;;;;;;;;;1.1642201;-0.30066836;-0.7180395;;;;;2138.3
2329.0;2282.4;;;;;;;;;;;;;;;;;-78.924675;-114.48256;-121.723076;;2138.3
2329.0;2282.4;;;;;;;;;;;;;;1.2749412;-0.10290842;-0.7138279;;;;;2138.3
2329.0;2282.0;262143;262143;11346;;;;;;;;;;;;;;;;;;
2380.0;2283.1;;;;;;;;;;;;;;;;;-75.19761;-110.92715;-124.94278;;2147.9
2380.0;2283.1;;;;;;;;;;;;;;1.3111362;0.009582812;-0.6906949;;;;;2147.9
2380.0;2283.1;;;;;;;;;;;;;;;;;-51.2978;-107.98212;-124.73296;;2147.9
2380.0;2283.1;;;;;;;;;;;;;;1.2507095;0.08203375;-0.54536575;;;;;2147.9
2380.0;2283.1;;;;;;;;;;;;;;;;;-38.895844;-109.2143;-122.07022;;2157.5
2380.0;2283.1;;;;;;;;;;;;;;1.1815546;0.09021272;-0.3960082;;;;;2157.5
2380.0;2283.1;;;;;;;;;;;;;;;;;-34.84069;-111.6367;-118.72082;;2157.5
2380.0;2283.1;;;;;;;;;;;;;;1.2668233;0.08160649;-0.45692313;;;;;2157.5
2380.0;2283.1;;;;;;;;;;;;;;;;;-20.78692;-103.839226;-110.168;;2167.0
2380.0;2283.1;;;;;;;;;;;;;;1.3314005;0.07483139;-0.4740745;;;;;2167.0
2380.0;2283.1;;;;;;;;;;;;;;;;;-14.046144;-94.30219;-108.70312;;2167.0
2380.0;2283.1;;;;;;;;;;;;;;1.3567308;0.13013093;-0.4076052;;;;;2167.0
2380.0;2286.0;;;;-0.25563434;0.93001187;0.39791495;;;;;;;;;;;;;;;
2380.0;2286.0;;;;-0.2517815;0.9208566;0.39859396;;;;;;;;;;;;;;;
2380.0;2286.0;;;;-0.24961093;0.9123155;0.39676672;;;;;;;;;;;;;;;
2380.0;2286.0;;;;-0.2468758;0.90488446;0.3947869;;;;;;;;;;;;;;;
2380.0;2286.0;;;;-0.2399483;0.8974458;0.3926354;;;;;;;;;;;;;;;
2380.0;2286.5;;;;;;;;;;;;;-87;;;;;;;;
2380.0;2286.5;;;;;;;;;;;;;-336;;;;;;;;
2380.0;2286.5;;;;;;;;;;;;;-578;;;;;;;;
2380.0;2286.5;;;;;;;;;;;;;286;;;;;;;;
2380.0;2286.5;;;;;;;;;;;;;1744;;;;;;;;
