patientId;holterMac;flexMac;;;;;;;;;;;;;;;;;;;;
stairsup;CA:F3:0B:1E:33:78;D3:4A:5C:52:80:78;;;;;;;;;;;;;;;;;;;;
receivedTimeStamp;timeStamp;red;ir;green;adxl_accX;adxl_accY;adxl_accZ;lsm_accelX;lsm_accelY;lsm_accelZ;lsm_gyroX;lsm_gyroY;lsm_gyroZ;ecg;flex_lsm_accelX;flex_lsm_accelY;flex_lsm_accelZ;flex_lsm_gyroX;flex_lsm_gyroY;flex_lsm_gyroZ;flex_cmd;flexTimeStamp
307.0;217.5;;;;;;;;;;;;;;;;;;;;17;0.1
307.0;217.5;;;;;;;;;;;;;;;;;13.695181;-2.2621846;0.82018495;;127.7
307.0;217.5;;;;;;;;;;;;;;0.9696951;-0.28894925;-0.19263284;;;;;127.7
307.0;217.5;;;;;;;;;;;;;;;;;-5.7031465;-17.418438;-7.5991087;;127.7
307.0;217.5;;;;;;;;;;;;;;0.98568684;-0.2969451;-0.21503341;;;;;127.7
307.0;217.5;;;;;;;;;;;;;;;;;-62.57057;-84.66979;-61.372723;;137.3
307.0;217.5;;;;;;;;;;;;;;0.9733573;-0.29340494;-0.23920408;;;;;137.3
307.0;217.5;;;;;;;;;;;;;;;;;-121.92907;-124.988556;-119.8767;;137.3
307.0;217.5;;;;;;;;;;;;;;0.95992917;-0.2883999;-0.25366986;;;;;137.3
492.0;218.4;;;;;;;;;;;;;;;;;-47.925507;-124.98093;-77.520836;;147.0
492.0;218.4;;;;;;;;;;;;;;0.9528489;-0.285226;-0.26276436;;;;;147.0
492.0;218.4;;;;;;;;;;;;;;;;;37.656025;-124.988556;-31.392101;;147.0
492.0;218.4;;;;;;;;;;;;;;0.9460738;-0.27863398;-0.2694174;;;;;147.0
492.0;218.4;;;;;;;;;;;;;;;;;47.00995;-99.909966;-25.940733;;156.6
492.0;218.4;;;;;;;;;;;;;;0.9324625;-0.2809534;-0.26197088;;;;;156.6
492.0;218.4;;;;;;;;;;;;;;;;;47.88354;-17.00644;-3.9445176;;156.6
492.0;218.4;;;;;;;;;;;;;;0.9214759;-0.2699057;-0.2174749;;;;;156.6
492.0;218.4;;;;;;;;;;;;;;;;;49.405655;-11.448256;-4.1734066;;166.3
492.0;218.4;;;;;;;;;;;;;;0.9143956;-0.27143162;-0.17932676;;;;;166.3
492.0;218.4;;;;;;;;;;;;;;;;;51.736504;-13.344218;-6.408887;;166.3
492.0;218.4;;;;;;;;;;;;;;0.93002105;-0.26911223;-0.18762779;;;;;166.3
492.0;414.5;;;;;;;;;;;;;;;;;55.5475;-14.244514;-8.285776;;175.9
492.0;414.5;;;;;;;;;;;;;;0.9371624;-0.25861385;-0.21246986;;;;;175.9
492.0;414.5;;;;;;;;;;;;;;;;;60.419018;-15.030366;-10.330516;;175.9
492.0;414.5;;;;;;;;;;;;;;0.9439375;-0.24164556;-0.24921414;;;;;175.9
492.0;414.5;;;;;;;;;;;;;;;;;64.18043;-15.331736;-12.058626;;185.6
492.0;414.5;;;;;;;;;;;;;;0.9242225;-0.21509446;-0.24073;;;;;185.6
492.0;414.5;;;;;;;;;;;;;;;;;64.25291;-16.628773;-13.40907;;185.6
492.0;414.5;;;;;;;;;;;;;;0.90591145;-0.19617298;-0.22370067;;;;;185.6
492.0;414.5;;;;;;;;;;;;;;;;;62.768944;-18.292032;-14.912107;;195.3
492.0;414.5;;;;;;;;;;;;;;0.8908353;-0.18463698;-0.23596911;;;;;195.3
492.0;414.5;;;;;;;;;;;;;;;;;62.18146;-20.062105;-15.945921;;195.3
492.0;414.5;;;;;;;;;;;;;;0.8904691;-0.17810602;-0.26886806;;;;;195.3
552.0;416.2;;;;;;;;;;;;;;;;;63.688316;-21.076845;-16.59444;;204.8
552.0;416.2;;;;;;;;;;;;;;0.8898587;-0.17059846;-0.30323192;;;;;204.8
552.0;416.2;;;;;;;;;;;;;;;;;65.26002;-21.09592;-17.124699;;204.8
552.0;416.2;;;;;;;;;;;;;;0.882107;-0.15424055;-0.31122777;;;;;204.8
552.0;416.2;;;;;;;;;;;;;;;;;65.23713;-21.046328;-17.258217;;214.4
552.0;416.2;;;;;;;;;;;;;;0.8753319;-0.13879818;-0.30396435;;;;;214.4
552.0;416.2;;;;;;;;;;;;;;;;;62.73461;-20.622883;-17.136143;;214.4
552.0;416.2;;;;;;;;;;;;;;0.877224;-0.13019197;-0.2764977;;;;;214.4
552.0;416.2;;;;;;;;;;;;;;;;;57.966095;-19.814142;-16.834774;;224.1
552.0;416.2;;;;;;;;;;;;;;0.8923002;-0.13525803;-0.24970244;;;;;224.1
552.0;416.2;;;;;;;;;;;;;;;;;52.96869;-18.711662;-15.926847;;224.1
552.0;416.2;;;;;;;;;;;;;;0.90896326;-0.14654988;-0.24225593;;;;;224.1
552.0;417.9;;;;;;;;;;;;;;;;;49.06232;-17.410809;-14.713737;;233.7
552.0;417.9;;;;;;;;;;;;;;0.9288614;-0.16296884;-0.2527543;;;;;233.7
552.0;417.9;;;;;;;;;;;;;;;;;45.407726;-15.053254;-13.32133;;233.7
552.0;417.9;;;;;;;;;;;;;;0.943083;-0.17603077;-0.24585712;;;;;233.7
552.0;417.9;;;;;;;;;;;;;;;;;41.505173;-12.825403;-11.722922;;243.4
552.0;417.9;;;;;;;;;;;;;;0.95095676;-0.18860438;-0.22461623;;;;;243.4
552.0;417.9;;;;;;;;;;;;;;;;;36.5421;-10.513627;-10.132145;;243.4
552.0;417.9;;;;;;;;;;;;;;0.9560228;-0.19458602;-0.18518631;;;;;243.4
552.0;417.9;;;;;;;;;;;;;;;;;30.00351;-9.060183;-8.247627;;253.1
552.0;417.9;;;;;;;;;;;;;;0.9576708;-0.2074038;-0.15918455;;;;;253.1
552.0;417.9;;;;;;;;;;;;;;;;;24.193548;-8.075961;-6.2715535;;253.1
552.0;417.9;;;;;;;;;;;;;;0.96169925;-0.21924497;-0.16071047;;;;;253.1
554.0;467.0;;;;;;;;;;;;;;;;;21.450697;-7.4732203;-4.299295;;262.8
554.0;467.0;;;;;;;;;;;;;;0.95937985;-0.22742394;-0.17627491;;;;;262.8
554.0;467.0;;;;;;;;;;;;;;;;;19.714956;-6.8895535;-2.189703;;262.8
554.0;467.0;;;;;;;;;;;;;;0.95522934;-0.23847163;-0.16400647;;;;;262.8
554.0;467.0;;;;;;;;;;;;;;;;;17.17429;-6.5195165;-0.022888882;;272.5
554.0;467.0;;;;;;;;;;;;;;0.9490036;-0.24274422;-0.15973388;;;;;272.5
554.0;467.0;;;;;;;;;;;;;;;;;14.870144;-6.241035;2.0332959;;272.5
554.0;467.0;;;;;;;;;;;;;;0.94357127;-0.24414808;-0.1485641;;;;;272.5
554.0;467.0;;;;;;;;;;;;;;;;;13.82107;-6.4127016;4.226814;;282.1
554.0;467.0;;;;;;;;;;;;;;0.9540696;-0.2763146;-0.17072055;;;;;282.1
554.0;467.0;;;;;;;;;;;;;;;;;13.374737;-5.1461835;6.263924;;282.1
554.0;467.0;;;;;;;;;;;;;;0.9508957;-0.3018891;-0.18536943;;;;;282.1
554.0;467.7;;;;;;;;;;;;;;;;;12.79107;-4.1772213;8.232368;;291.8
554.0;467.7;;;;;;;;;;;;;;0.9450972;-0.3190405;-0.20825832;;;;;291.8
554.0;467.7;;;;;;;;;;;;;;;;;12.638477;-3.78811;10.193182;;291.8
554.0;467.7;;;;;;;;;;;;;;0.9436323;-0.3424177;-0.22589801;;;;;291.8
554.0;467.7;;;;;;;;;;;;;;;;;13.1077;-3.2883694;12.226479;;301.4
554.0;467.7;;;;;;;;;;;;;;0.9392987;-0.3683584;-0.21228676;;;;;301.4
554.0;467.7;;;;;;;;;;;;;;;;;13.2793665;-1.9417402;14.061403;;301.4
554.0;467.7;;;;;;;;;;;;;;0.9294107;-0.3833125;-0.16937773;;;;;301.4
554.0;467.7;;;;;;;;;;;;;;;;;12.142552;-0.7095553;15.697958;;311.1
554.0;467.7;;;;;;;;;;;;;;0.91286963;-0.38673055;-0.13715018;;;;;311.1
554.0;467.7;;;;;;;;;;;;;;;;;10.170293;-0.9155553;17.143772;;311.1
554.0;467.7;;;;;;;;;;;;;;0.90231025;-0.38343456;-0.15033418;;;;;311.1
555.0;469.0;;;;;;;;;;;;;;;;;9.449294;-1.5640736;18.414106;;320.8
555.0;469.0;;;;;;;;;;;;;;0.89651173;-0.3681753;-0.1784112;;;;;320.8
555.0;469.0;;;;;;;;;;;;;;;;;10.410626;-1.9150364;19.421217;;320.8
555.0;469.0;;;;;;;;;;;;;;0.8938261;-0.34858242;-0.1981872;;;;;320.8
555.0;469.0;;;;;;;;;;;;;;;;;12.062441;-2.418592;19.936216;;330.5
555.0;469.0;;;;;;;;;;;;;;0.8915677;-0.32203132;-0.1980041;;;;;330.5
555.0;469.0;;;;;;;;;;;;;;;;;12.874996;-2.9412215;20.142216;;330.5
555.0;469.0;;;;;;;;;;;;;;0.89852595;-0.30262154;-0.17188025;;;;;330.5
555.0;469.0;;;;;;;;;;;;;;;;;13.370922;-3.8033693;20.001068;;340.1
555.0;469.0;;;;;;;;;;;;;;0.91274756;-0.2890103;-0.16052736;;;;;340.1
555.0;469.0;;;;;;;;;;;;;;;;;14.397107;-4.951628;19.47844;;340.1
555.0;469.0;;;;;;;;;;;;;;0.9250771;-0.2719199;-0.16962187;;;;;340.1
555.0;469.7;;;;;;;;;;;;;;;;;15.575884;-6.0312204;18.63155;;349.8
555.0;469.7;;;;;;;;;;;;;;0.93850523;-0.25898007;-0.19714957;;;;;349.8
555.0;469.7;;;;;;;;;;;;;;;;;16.220589;-6.260109;17.51381;;349.8
555.0;469.7;;;;;;;;;;;;;;0.94119084;-0.24640645;-0.20734276;;;;;349.8
555.0;469.7;;;;;;;;;;;;;;;;;15.7284775;-6.2524796;16.441847;;359.4
555.0;469.7;;;;;;;;;;;;;;0.93850523;-0.22626422;-0.18872647;;;;;359.4
555.0;469.7;;;;;;;;;;;;;;;;;15.503403;-6.839961;15.198217;;359.4
555.0;469.7;;;;;;;;;;;;;;0.9346599;-0.21234779;-0.1937315;;;;;359.4
555.0;469.7;;;;;;;;;;;;;;;;;16.953032;-7.5571456;13.946959;;369.1
555.0;469.7;;;;;;;;;;;;;;0.9327067;-0.20410779;-0.21369061;;;;;369.1
555.0;469.7;;;;;;;;;;;;;;;;;20.214697;-8.270516;12.657552;;369.1
555.0;469.7;;;;;;;;;;;;;;0.9280068;-0.19385357;-0.2290109;;;;;369.1
613.0;470.5;;;;;;;;;;;;;;;;;23.44203;-8.636738;11.494034;;378.7
613.0;470.5;;;;;;;;;;;;;;0.91763055;-0.18567461;-0.22614215;;;;;378.7
613.0;470.5;;;;;;;;;;;;;;;;;25.246437;-9.0487385;10.250404;;378.7
613.0;470.5;;;;;;;;;;;;;;0.89852595;-0.17731254;-0.2156438;;;;;378.7
613.0;470.5;;;;;;;;;;;;;;;;;26.394695;-9.945219;8.983886;;388.4
613.0;470.5;;;;;;;;;;;;;;0.8846095;-0.17297891;-0.22138126;;;;;388.4
613.0;470.5;;;;;;;;;;;;;;;;;27.546768;-10.86459;7.648701;;388.4
613.0;470.5;;;;;;;;;;;;;;0.8850978;-0.1645558;-0.23084201;;;;;388.4
613.0;470.5;;;;;;;;;;;;;;;;;28.56914;-10.616627;6.214331;;398.1
613.0;470.5;;;;;;;;;;;;;;0.9009674;-0.15845211;-0.22040467;;;;;398.1
613.0;470.5;;;;;;;;;;;;;;;;;28.584398;-9.670553;4.6464434;;398.1
613.0;470.5;;;;;;;;;;;;;;0.9267861;-0.15668203;-0.19684438;;;;;398.1
613.0;519.4;;;;;;;;;;;;;;;;;27.61162;-9.11359;3.1777399;;407.7
613.0;519.4;;;;;;;;;;;;;;0.95815915;-0.16559343;-0.19965209;;;;;407.7
613.0;519.4;;;;;;;;;;;;;;;;;26.409956;-8.9991455;2.170629;;407.7
613.0;519.4;;;;;;;;;;;;;;0.99050874;-0.19336528;-0.21283609;;;;;407.7
613.0;519.4;;;;;;;;;;;;;;;;;26.108585;-8.823664;1.7738883;;417.4
613.0;519.4;;;;;;;;;;;;;;1.0049134;-0.22644734;-0.24048586;;;;;417.4
613.0;519.4;;;;;;;;;;;;;;;;;26.22303;-9.022035;1.6975921;;417.4
613.0;519.4;;;;;;;;;;;;;;1.004059;-0.25006866;-0.28070924;;;;;417.4
613.0;519.4;;;;;;;;;;;;;;;;;24.380474;-8.6787;1.9264809;;427.0
613.0;519.4;;;;;;;;;;;;;;1.000885;-0.28199103;-0.25080112;;;;;427.0
613.0;519.4;;;;;;;;;;;;;;;;;19.985807;-8.030183;2.66274;;427.0
613.0;519.4;;;;;;;;;;;;;;0.98623616;-0.30793175;-0.19257179;;;;;427.0
671.0;527.3;;;;;;;;;;;;;;;;;16.560106;-8.110294;3.5859249;;436.5
671.0;527.3;;;;;;;;;;;;;;0.98586994;-0.34284493;-0.18335521;;;;;436.5
671.0;527.3;;;;;;;;;;;;;;;;;16.972105;-7.3320723;4.7837768;;436.5
671.0;527.3;;;;;;;;;;;;;;0.9864803;-0.37318033;-0.18359935;;;;;436.5
671.0;527.3;;;;;;;;;;;;;;;;;19.737844;-5.8709984;6.324961;;446.2
671.0;527.3;;;;;;;;;;;;;;0.9697562;-0.38984343;-0.2033143;;;;;446.2
671.0;527.3;;;;;;;;;;;;;;;;;21.263771;-4.2954803;7.8470716;;446.2
671.0;527.3;;;;;;;;;;;;;;0.93740654;-0.39417708;-0.21753594;;;;;446.2
671.0;527.3;;;;;;;;;;;;;;;;;20.775475;-3.8949249;9.159368;;455.9
671.0;527.3;;;;;;;;;;;;;;0.90841395;-0.3876461;-0.23004852;;;;;455.9
671.0;527.3;;;;;;;;;;;;;;;;;19.684439;-4.3946652;10.082552;;455.9
671.0;527.3;;;;;;;;;;;;;;0.8913846;-0.38435012;-0.24073;;;;;455.9
671.0;534.3;;;;;;;;;;;;;;;;;19.684439;-4.8486285;10.837886;;465.5
671.0;534.3;;;;;;;;;;;;;;0.885403;-0.38190863;-0.2365795;;;;;465.5
671.0;534.3;;;;;;;;;;;;;;;;;20.489365;-5.157628;11.314737;;465.5
671.0;534.3;;;;;;;;;;;;;;0.88991976;-0.3762932;-0.23718986;;;;;465.5
671.0;534.3;;;;;;;;;;;;;;;;;21.099735;-5.1881466;11.4978485;;475.1
671.0;534.3;;;;;;;;;;;;;;0.8951689;-0.36713767;-0.25763726;;;;;475.1
671.0;534.3;;;;;;;;;;;;;;;;;21.683401;-4.955443;11.474959;;475.1
671.0;534.3;;;;;;;;;;;;;;0.8995636;-0.35975218;-0.27045503;;;;;475.1
671.0;534.3;;;;;;;;;;;;;;;;;23.186438;-4.894406;11.230811;;484.6
671.0;534.3;;;;;;;;;;;;;;0.90658283;-0.34992522;-0.26972258;;;;;484.6
671.0;534.3;;;;;;;;;;;;;;;;;25.440992;-4.5129247;10.76159;;484.6
671.0;534.3;;;;;;;;;;;;;;0.90249336;-0.33234656;-0.25336465;;;;;484.6
734.0;579.5;;;;;;;;;;;;;;;;;27.15003;-3.711814;10.078737;;494.3
734.0;579.5;;;;;;;;;;;;;;0.893582;-0.31104466;-0.21607105;;;;;494.3
734.0;579.5;;;;;;;;;;;;;;;;;27.367474;-2.8305917;8.976256;;494.3
734.0;579.5;;;;;;;;;;;;;;0.8692282;-0.2906583;-0.18823817;;;;;494.3
734.0;579.5;;;;;;;;;;;;;;;;;27.962584;-3.0289621;7.6906643;;503.9
734.0;579.5;;;;;;;;;;;;;;0.8517716;-0.26630452;-0.20734276;;;;;503.9
734.0;579.5;;;;;;;;;;;;;;;;;29.660177;-3.2235177;6.3135166;;503.9
734.0;579.5;;;;;;;;;;;;;;0.8401135;-0.24390393;-0.22205268;;;;;503.9
734.0;579.5;;;;;;;;;;;;;;;;;31.659138;-3.7347028;4.860073;;513.6
734.0;579.5;;;;;;;;;;;;;;0.8297983;-0.22382274;-0.23505355;;;;;513.6
734.0;579.5;;;;;;;;;;;;;;;;;32.45262;-4.7608876;3.5706656;;513.6
734.0;579.5;;;;;;;;;;;;;;0.8222907;-0.21002838;-0.22815637;;;;;513.6
734.0;594.5;;;;;;;;;;;;;;;;;30.007324;-6.469924;2.3308513;;523.3
734.0;594.5;;;;;;;;;;;;;;0.83175147;-0.21216469;-0.16827907;;;;;523.3
734.0;594.5;;;;;;;;;;;;;;;;;27.72225;-8.205665;0.96133304;;523.3
734.0;594.5;;;;;;;;;;;;;;0.8471328;-0.21765801;-0.16351818;;;;;523.3
734.0;594.5;;;;;;;;;;;;;;;;;27.020327;-9.044923;-0.37385175;;533.0
734.0;594.5;;;;;;;;;;;;;;0.88485366;-0.23596911;-0.16583759;;;;;533.0
734.0;594.5;;;;;;;;;;;;;;;;;27.855768;-8.152257;-1.5564439;;533.0
734.0;594.5;;;;;;;;;;;;;;0.9164708;-0.25147253;-0.17590868;;;;;533.0
734.0;594.5;;;;;;;;;;;;;;;;;28.02362;-6.839961;-2.5444808;;542.6
734.0;594.5;;;;;;;;;;;;;;0.9284951;-0.26172674;-0.1864681;;;;;542.6
734.0;594.5;;;;;;;;;;;;;;;;;26.345104;-6.55385;-3.3074436;;542.6
734.0;594.5;;;;;;;;;;;;;;0.9380779;-0.27216408;-0.1772515;;;;;542.6
793.0;639.8;;;;;;;;;;;;;;;;;24.010437;-7.2023683;-3.810999;;552.3
793.0;639.8;;;;;;;;;;;;;;0.9518723;-0.2830897;-0.19244972;;;;;552.3
793.0;639.8;;;;;;;;;;;;;;;;;23.377178;-6.9734793;-4.127629;;552.3
793.0;639.8;;;;;;;;;;;;;;0.95974606;-0.29328287;-0.19989623;;;;;552.3
793.0;639.8;;;;;;;;;;;;;;;;;24.925991;-6.5424056;-4.016999;;561.9
793.0;639.8;;;;;;;;;;;;;;0.9683523;-0.2985931;-0.2108829;;;;;561.9
793.0;639.8;;;;;;;;;;;;;;;;;26.573992;-6.0998874;-3.7156286;;561.9
793.0;639.8;;;;;;;;;;;;;;0.96890163;-0.29950866;-0.20819727;;;;;561.9
793.0;639.8;;;;;;;;;;;;;;;;;27.439955;-6.302072;-3.1205175;;571.5
793.0;639.8;;;;;;;;;;;;;;0.96298105;-0.29950866;-0.21246986;;;;;571.5
793.0;639.8;;;;;;;;;;;;;;;;;27.619251;-6.85522;-2.2888882;;571.5
793.0;639.8;;;;;;;;;;;;;;0.96151614;-0.30292672;-0.2153386;;;;;571.5
793.0;655.2;;;;;;;;;;;;;;;;;27.310251;-7.2176275;-1.1177404;;581.2
793.0;655.2;;;;;;;;;;;;;;0.95211643;-0.3079928;-0.20599994;;;;;581.2
793.0;655.2;;;;;;;;;;;;;;;;;26.570177;-7.560961;0.3128147;;581.2
793.0;655.2;;;;;;;;;;;;;;0.9452803;-0.31653798;-0.20673238;;;;;581.2
793.0;655.2;;;;;;;;;;;;;;;;;24.95651;-7.4121833;1.6365551;;590.9
793.0;655.2;;;;;;;;;;;;;;0.93728447;-0.32734153;-0.20728172;;;;;590.9
793.0;655.2;;;;;;;;;;;;;;;;;23.010956;-6.859035;2.803888;;590.9
793.0;655.2;;;;;;;;;;;;;;0.9297159;-0.33491012;-0.18817712;;;;;590.9
793.0;655.2;;;;;;;;;;;;;;;;;20.657215;-5.6764426;3.8644063;;600.5
793.0;655.2;;;;;;;;;;;;;;0.92263556;-0.34308907;-0.15332499;;;;;600.5
793.0;655.2;;;;;;;;;;;;;;;;;18.00592;-4.615925;4.749443;;600.5
793.0;655.2;;;;;;;;;;;;;;0.9245277;-0.3454085;-0.108279675;;;;;600.5
854.0;700.2;;;;;;;;;;;;;;;;;16.804255;-4.4557023;5.3407393;;610.0
854.0;700.2;;;;;;;;;;;;;;0.9238563;-0.34089175;-0.110721156;;;;;610.0
854.0;700.2;;;;;;;;;;;;;;;;;16.460922;-3.9216285;5.8442945;;610.0
854.0;700.2;;;;;;;;;;;;;;0.9340495;-0.33814508;-0.13153477;;;;;610.0
854.0;700.2;;;;;;;;;;;;;;;;;16.8157;-1.7357402;6.130406;;619.6
854.0;700.2;;;;;;;;;;;;;;0.9237953;-0.33314005;-0.128605;;;;;619.6
854.0;700.2;;;;;;;;;;;;;;;;;17.08655;-0.6485183;6.1342206;;619.6
854.0;700.2;;;;;;;;;;;;;;0.8933988;-0.3154393;-0.14575641;;;;;619.6
854.0;700.2;;;;;;;;;;;;;;;;;16.747032;-1.7853328;6.023591;;629.3
854.0;700.2;;;;;;;;;;;;;;0.868923;-0.29853207;-0.17401654;;;;;629.3
854.0;700.2;;;;;;;;;;;;;;;;;16.090885;-3.5935545;5.9663687;;629.3
854.0;700.2;;;;;;;;;;;;;;0.8463393;-0.28846094;-0.20136112;;;;;629.3
854.0;707.6;;;;;;;;;;;;;;;;;14.618366;-5.11948;5.787072;;638.9
854.0;707.6;;;;;;;;;;;;;;0.83156836;-0.28711814;-0.21643727;;;;;638.9
854.0;707.6;;;;;;;;;;;;;;;;;17472;-5.897702;5.687887;;638.9
854.0;707.6;;;;;;;;;;;;;;0.8235115;-0.2903531;-0.21106601;;;;;638.9
854.0;707.6;;;;;;;;;;;;;;;;;9.411145;-6.248665;5.653554;;648.6
854.0;707.6;;;;;;;;;;;;;;0.8238777;-0.29584643;-0.20545061;;;;;648.6
854.0;707.6;;;;;;;;;;;;;;;;;7.5457015;-7.0345163;5.6421094;;648.6
854.0;707.6;;;;;;;;;;;;;;0.8337657;-0.30158392;-0.19202246;;;;;648.6
854.0;707.6;;;;;;;;;;;;;;;;;6.672109;-7.8737755;5.279702;;658.2
854.0;707.6;;;;;;;;;;;;;;0.85201573;-0.3103122;-0.18134098;;;;;658.2
854.0;707.6;;;;;;;;;;;;;;;;;7.351146;-8.613849;4.543443;;658.2
854.0;707.6;;;;;;;;;;;;;;0.8695944;-0.32337412;-0.1788995;;;;;658.2
912.0;760.6;;;;;;;;;;;;;;;;;10.349589;-9.247108;3.6927397;;667.8
912.0;760.6;;;;;;;;;;;;;;0.8910184;-0.32923368;-0.18982513;;;;;667.8
912.0;760.6;;;;;;;;;;;;;;;;;15.720848;-9.865108;2.7542956;;667.8
912.0;760.6;;;;;;;;;;;;;;0.906888;-0.33582568;-0.21802424;;;;;667.8
912.0;760.6;;;;;;;;;;;;;;;;;21.393476;-9.5675535;1.7242957;;677.5
912.0;760.6;;;;;;;;;;;;;;0.91976684;-0.34174627;-0.2410352;;;;;677.5
912.0;760.6;;;;;;;;;;;;;;;;;26.383251;-9.029664;0.7095553;;677.5
912.0;760.6;;;;;;;;;;;;;;0.9207434;-0.3432722;-0.23780023;;;;;677.5
912.0;760.6;;;;;;;;;;;;;;;;;29.213844;-9.563738;-0.07248146;;687.2
912.0;760.6;;;;;;;;;;;;;;0.93472093;-0.35535753;-0.19727165;;;;;687.2
912.0;760.6;;;;;;;;;;;;;;;;;29.48851;-9.323405;-0.6714072;;687.2
912.0;760.6;;;;;;;;;;;;;;0.9593188;-0.37165442;-0.13068026;;;;;687.2
912.0;768.5;;;;;;;;;;;;;;;;;32.23136;-9.292887;-1.2207403;;696.8
912.0;768.5;;;;;;;;;;;;;;0.9863582;-0.38142034;-0.1521653;;;;;696.8
912.0;768.5;;;;;;;;;;;;;;;;;36.973175;-9.269998;-1.4419996;;696.8
912.0;768.5;;;;;;;;;;;;;;1.0148625;-0.38550982;-0.16260262;;;;;696.8
912.0;768.5;;;;;;;;;;;;;;;;;40.768913;-8.323924;-1.1139256;;706.5
912.0;768.5;;;;;;;;;;;;;;1.0370189;-0.39350566;-0.15985595;;;;;706.5
912.0;768.5;;;;;;;;;;;;;;;;;42.44362;-6.4813685;-0.5760369;;706.5
912.0;768.5;;;;;;;;;;;;;;1.0365306;-0.39381084;-0.1469161;;;;;706.5
912.0;768.5;;;;;;;;;;;;;;;;;41.634876;-6.2524796;0.08011109;;716.1
912.0;768.5;;;;;;;;;;;;;;1.0397656;-0.38758507;-0.15643787;;;;;716.1
912.0;768.5;;;;;;;;;;;;;;;;;39.834282;-7.0345163;0.85833305;;716.1
912.0;768.5;;;;;;;;;;;;;;1.0466628;-0.3805048;-0.17407759;;;;;716.1
973.0;820.8;;;;;;;;;;;;;;;;;38.090916;-7.1565905;1.8311106;;725.6
973.0;820.8;;;;;;;;;;;;;;1.0571612;-0.3731193;-0.18097477;;;;;725.6
973.0;820.8;;;;;;;;;;;;;;;;;36.492508;-6.0922575;3.0480363;;725.6
973.0;820.8;;;;;;;;;;;;;;1.0545976;-0.36347544;-0.17999817;;;;;725.6
973.0;820.8;;;;;;;;;;;;;;;;;34.981842;-4.8257394;4.314554;;735.3
973.0;820.8;;;;;;;;;;;;;;1.040376;-0.3556627;-0.17358929;;;;;735.3
973.0;820.8;;;;;;;;;;;;;;;;;33.742027;-3.868221;5.664998;;735.3
973.0;820.8;;;;;;;;;;;;;;1.0201727;-0.3477279;-0.17291787;;;;;735.3
973.0;820.8;;;;;;;;;;;;;;;;;32.605213;-2.5521104;7.087924;;745.0
973.0;820.8;;;;;;;;;;;;;;0.99429303;-0.34217352;-0.16443373;;;;;745.0
973.0;820.8;;;;;;;;;;;;;;;;;31.159399;-1.4877774;8.384961;;745.0
973.0;820.8;;;;;;;;;;;;;;0.9679251;-0.33851132;-0.16156499;;;;;745.0
973.0;828.3;;;;;;;;;;;;;;;;;29.881437;-0.79729605;9.338664;;754.6
973.0;828.3;;;;;;;;;;;;;;0.9418622;-0.33759576;-0.16498306;;;;;754.6
973.0;828.3;;;;;;;;;;;;;;;;;28.668325;-0.65233314;10.071108;;754.6
973.0;828.3;;;;;;;;;;;;;;0.9236122;-0.33826715;-0.17419966;;;;;754.6
973.0;828.3;;;;;;;;;;;;;;;;;27.466658;-0.50737023;10.513627;;764.3
973.0;828.3;;;;;;;;;;;;;;0.90499586;-0.33661917;-0.17828913;;;;;764.3
973.0;828.3;;;;;;;;;;;;;;;;;26.631214;-0.6408887;10.578479;;764.3
973.0;828.3;;;;;;;;;;;;;;0.89272743;-0.33582568;-0.18659016;;;;;764.3
973.0;828.3;;;;;;;;;;;;;;;;;26.84103;-0.84307384;10.338145;;773.9
973.0;828.3;;;;;;;;;;;;;;0.87856686;-0.32673118;-0.22925505;;;;;773.9
973.0;828.3;;;;;;;;;;;;;;;;;27.958769;-1.7738883;9.998627;;773.9
973.0;828.3;;;;;;;;;;;;;;0.85567796;-0.31336406;-0.26239815;;;;;773.9
1038.0;881.1;;;;;;;;;;;;;;;;;26.158178;-3.5287027;9.617146;;783.5
1038.0;881.1;;;;;;;;;;;;;;0.8417615;-0.30286568;-0.2191229;;;;;783.5
1038.0;881.1;;;;;;;;;;;;;;;;;24.269846;-6.286813;8.79696;;783.5
1038.0;881.1;;;;;;;;;;;;;;0.8256478;-0.28833887;-0.20050661;;;;;783.5
1038.0;881.1;;;;;;;;;;;;;;;;;24.868769;-10.845515;7.3854795;;793.2
1038.0;881.1;;;;;;;;;;;;;;0.8170415;-0.25684378;-0.24652852;;;;;793.2
1038.0;881.1;;;;;;;;;;;;;;;;;26.860104;-15.079958;6.4546647;;793.2
1038.0;881.1;;;;;;;;;;;;;;0.83205664;-0.23450422;-0.3091525;;;;;793.2
1038.0;881.1;;;;;;;;;;;;;;;;;30.629139;-16.121403;5.760369;;802.9
1038.0;881.1;;;;;;;;;;;;;;0.8438978;-0.22101505;-0.3554796;;;;;802.9
1038.0;881.1;;;;;;;;;;;;;;;;;33.223213;-16.239662;4.528184;;802.9
1038.0;881.1;;;;;;;;;;;;;;0.85006255;-0.20532854;-0.3844722;;;;;802.9
1038.0;888.6;;;;;;;;;;;;;;;;;33.116398;-16.434217;2.784814;;812.6
1038.0;888.6;;;;;;;;;;;;;;0.8613544;-0.1920835;-0.40253913;;;;;812.6
1038.0;888.6;;;;;;;;;;;;;;;;;32.647175;-16.52196;0.6408887;;812.6
1038.0;888.6;;;;;;;;;;;;;;0.8732566;-0.18182927;-0.41376996;;;;;812.6
1038.0;888.6;;;;;;;;;;;;;;;;;34.39436;-16.735588;-1.5793328;;822.3
1038.0;888.6;;;;;;;;;;;;;;0.8921781;-0.17145298;-0.42268136;;;;;822.3
1038.0;888.6;;;;;;;;;;;;;;;;;37.385174;-16.06418;-3.7537766;;822.3
1038.0;888.6;;;;;;;;;;;;;;0.9098178;-0.16797388;-0.4199347;;;;;822.3
1038.0;888.6;;;;;;;;;;;;;;;;;39.46043;-14.442884;-5.84048;;832.0
1038.0;888.6;;;;;;;;;;;;;;0.9123203;-0.16052736;-0.3881344;;;;;832.0
1038.0;888.6;;;;;;;;;;;;;;;;;40.0708;-13.420515;-7.763146;;832.0
1038.0;888.6;;;;;;;;;;;;;;0.90896326;-0.1480758;-0.35023043;;;;;832.0
1090.0;941.9;;;;;;;;;;;;;;;;;40.02121;-13.477737;-9.4569235;;841.6
1090.0;941.9;;;;;;;;;;;;;;0.91201514;-0.14087345;-0.32837915;;;;;841.6
1090.0;941.9;;;;;;;;;;;;;;;;;39.91058;-12.985626;-10.967589;;841.6
1090.0;941.9;;;;;;;;;;;;;;0.91311383;-0.13171789;-0.30689412;;;;;841.6
1090.0;941.9;;;;;;;;;;;;;;;;;39.536728;-12.4134035;-12.112034;;851.2
1090.0;941.9;;;;;;;;;;;;;;0.9173254;-0.12170782;-0.2692343;;;;;851.2
1090.0;941.9;;;;;;;;;;;;;;;;;38.266396;-12.489699;-12.848292;;851.2
1090.0;941.9;;;;;;;;;;;;;;0.9270913;-0.11413923;-0.23816645;;;;;851.2
1090.0;941.9;;;;;;;;;;;;;;;;;35.412914;-12.417218;-13.206885;;860.9
1090.0;941.9;;;;;;;;;;;;;;0.94338816;-0.114627525;-0.20996734;;;;;860.9
1090.0;941.9;;;;;;;;;;;;;;;;;32.30003;-12.0548115;-13.172552;;860.9
1090.0;941.9;;;;;;;;;;;;;;0.96749777;-0.12244026;-0.1944029;;;;;860.9
1090.0;942.7;;;;;;;;;;;;;;;;;28.954435;-10.792109;-12.932219;;870.6
1090.0;942.7;;;;;;;;;;;;;;0.9924619;-0.13458663;-0.17572558;;;;;870.6
1090.0;942.7;;;;;;;;;;;;;;;;;24.410994;-8.41548;-12.520218;;870.6
1090.0;942.7;;;;;;;;;;;;;;1.0198065;-0.1607715;-0.10791345;;;;;870.6
1090.0;942.7;;;;;;;;;;;;;;;;;20.004883;-6.870479;-11.936552;;880.3
1090.0;942.7;;;;;;;;;;;;;;1.0408642;-0.1866512;-0.060304575;;;;;880.3
1090.0;942.7;;;;;;;;;;;;;;;;;15.926847;-6.637776;-11.154515;;880.3
1090.0;942.7;;;;;;;;;;;;;;1.0790734;-0.21802424;-0.051698357;;;;;880.3
1090.0;942.7;;;;;;;;;;;;;;;;;13.203071;-4.894406;-10.174108;;890.0
1090.0;942.7;;;;;;;;;;;;;;1.1186864;-0.260506;-0.05816828;;;;;890.0
1090.0;942.7;;;;;;;;;;;;;;;;;11.795404;-1.7471846;-8.877071;;890.0
1090.0;942.7;;;;;;;;;;;;;;1.1465194;-0.30597857;-0.05597095;;;;;890.0
1150.0;1001.9;;;;;;;;;;;;;;;;;10.383923;1.1558886;-7.511368;;899.6
1150.0;1001.9;;;;;;;;;;;;;;1.1471298;-0.34369946;-0.060304575;;;;;899.6
1150.0;1001.9;;;;;;;;;;;;;;;;;8.224739;2.193518;-6.065554;;899.6
1150.0;1001.9;;;;;;;;;;;;;;1.1373638;-0.37842953;-0.09784234;;;;;899.6
1150.0;1001.9;;;;;;;;;;;;;;;;;6.4394054;3.212073;-4.757073;;909.2
1150.0;1001.9;;;;;;;;;;;;;;1.1188695;-0.39893797;-0.13251136;;;;;909.2
1150.0;1001.9;;;;;;;;;;;;;;;;;5.859554;4.1924806;-3.6088138;;909.2
1150.0;1001.9;;;;;;;;;;;;;;1.0893887;-0.40736106;-0.14416943;;;;;909.2
1150.0;1001.9;;;;;;;;;;;;;;;;;6.0350356;4.505295;-2.7771842;;918.7
1150.0;1001.9;;;;;;;;;;;;;;1.0630817;-0.4013184;-0.1513718;;;;;918.7
1150.0;1001.9;;;;;;;;;;;;;;;;;6.042665;4.970702;-2.2087772;;918.7
1150.0;1001.9;;;;;;;;;;;;;;1.0328684;-0.3831904;-0.14819789;;;;;918.7
1150.0;1002.7;;;;;;;;;;;;;;;;;5.447554;5.348369;-1.9341105;;928.3
1150.0;1002.7;;;;;;;;;;;;;;1.0053407;-0.35700554;-0.15015107;;;;;928.3
1150.0;1002.7;;;;;;;;;;;;;;;;;4.2191844;5.359813;-1.9264809;;928.3
1150.0;1002.7;;;;;;;;;;;;;;0.9783624;-0.33179724;-0.15796381;;;;;928.3
1150.0;1002.7;;;;;;;;;;;;;;;;;2.4872584;5.5238504;-2.166814;;938.0
1150.0;1002.7;;;;;;;;;;;;;;0.96011233;-0.30957976;-0.1607715;;;;;938.0
1150.0;1002.7;;;;;;;;;;;;;;;;;2.4529252;6.145665;-2.5749993;;938.0
1150.0;1002.7;;;;;;;;;;;;;;0.94192326;-0.28992584;-0.16980499;;;;;938.0
1150.0;1002.7;;;;;;;;;;;;;;;;;5.413221;6.920072;-3.0709252;;947.6
1150.0;1002.7;;;;;;;;;;;;;;0.92324597;-0.27088228;-0.18683432;;;;;947.6
1150.0;1002.7;;;;;;;;;;;;;;;;;8.194221;7.9996643;-3.7232583;;947.6
1150.0;1002.7;;;;;;;;;;;;;;0.913419;-0.25476852;-0.2036195;;;;;947.6
1211.0;1062.8;;;;;;;;;;;;;;;;;9.9642935;9.598072;-4.5358133;;957.3
1211.0;1062.8;;;;;;;;;;;;;;0.88912624;-0.24085207;-0.19214454;;;;;957.3
1211.0;1062.8;;;;;;;;;;;;;;;;;11.074404;9.52559;-5.4170356;;957.3
1211.0;1062.8;;;;;;;;;;;;;;0.8847316;-0.24018067;-0.1953795;;;;;957.3
1211.0;1062.8;;;;;;;;;;;;;;;;;11.535996;10.334331;-6.363109;;967.0
1211.0;1062.8;;;;;;;;;;;;;;0.8746605;-0.24445327;-0.18250069;;;;;967.0
1211.0;1062.8;;;;;;;;;;;;;;;;;10.872219;10.895108;-7.351146;;967.0
1211.0;1062.8;;;;;;;;;;;;;;0.8561052;-0.25330362;-0.1723075;;;;;967.0
1211.0;1062.8;;;;;;;;;;;;;;;;;9.117405;9.998627;-8.384961;;976.7
1211.0;1062.8;;;;;;;;;;;;;;0.8422498;-0.263802;-0.15540025;;;;;976.7
1211.0;1062.8;;;;;;;;;;;;;;;;;7.831813;8.40022;-9.4569235;;976.7
1211.0;1062.8;;;;;;;;;;;;;;0.84939116;-0.27448347;-0.14178899;;;;;976.7
1211.0;1063.5;;;;;;;;;;;;;;;;;8.476516;7.6448865;-10.658589;;986.2
1211.0;1063.5;;;;;;;;;;;;;;0.8534196;-0.2789392;-0.15222633;;;;;986.2
1211.0;1063.5;;;;;;;;;;;;;;;;;10.181738;7.698294;-11.864071;;986.2
1211.0;1063.5;;;;;;;;;;;;;;0.8694113;-0.28650776;-0.14038515;;;;;986.2
1211.0;1063.5;;;;;;;;;;;;;;;;;12.627033;8.518478;-12.932219;;995.9
1211.0;1063.5;;;;;;;;;;;;;;0.87838376;-0.29871517;-0.12060915;;;;;995.9
1211.0;1063.5;;;;;;;;;;;;;;;;;14.690847;9.140294;-14.069033;;995.9
1211.0;1063.5;;;;;;;;;;;;;;0.87759024;-0.31592762;-0.10577715;;;;;995.9
1211.0;1063.5;;;;;;;;;;;;;;;;;15.892513;8.686331;-15.358439;;1005.6
1211.0;1063.5;;;;;;;;;;;;;;0.86916715;-0.33515427;-0.11236915;;;;;1005.6
1211.0;1063.5;;;;;;;;;;;;;;;;;17.090364;7.2862945;-16.674551;;1005.6
1211.0;1063.5;;;;;;;;;;;;;;0.87002164;-0.35462508;-0.13373211;;;;;1005.6
1213.0;1122.6;;;;;;;;;;;;;;;;;18.978699;6.3325906;-18.11655;;1015.2
1213.0;1122.6;;;;;;;;;;;;;;0.8750267;-0.36561173;-0.135197;;;;;1015.2
1213.0;1122.6;;;;;;;;;;;;;;;;;21.229439;5.93585;-19.707327;;1015.2
1213.0;1122.6;;;;;;;;;;;;;;0.88430434;-0.37006745;-0.12775049;;;;;1015.2
1213.0;1122.6;;;;;;;;;;;;;;;;;23.308512;6.3058867;-21.393476;;1024.8
1213.0;1122.6;;;;;;;;;;;;;;0.8954741;-0.37171546;-0.112735376;;;;;1024.8
1213.0;1122.6;;;;;;;;;;;;;;;;;25.528732;6.733146;-23.01477;;1024.8
1213.0;1122.6;;;;;;;;;;;;;;0.898587;-0.36957914;-0.10754723;;;;;1024.8
1213.0;1122.6;;;;;;;;;;;;;;;;;26.234474;8.072146;-24.563585;;1034.5
1213.0;1122.6;;;;;;;;;;;;;;0.9100009;-0.36103398;-0.05383465;;;;;1034.5
1213.0;1122.6;;;;;;;;;;;;;;;;;22.999512;9.601887;-26.108585;;1034.5
1213.0;1122.6;;;;;;;;;;;;;;0.8874172;-0.35163426;0.056398205;;;;;1034.5
1214.0;1123.4;;;;;;;;;;;;;;;;;20.458845;7.1031833;-27.489546;;1044.0
1214.0;1123.4;;;;;;;;;;;;;;0.90878016;-0.3518784;0.08740501;;;;;1044.0
1214.0;1123.4;;;;;;;;;;;;;;;;;18.593403;6.859035;-29.156622;;1044.0
1214.0;1123.4;;;;;;;;;;;;;;0.91256446;-0.35303813;0.07269509;;;;;1044.0
1214.0;1123.4;;;;;;;;;;;;;;;;;16.907255;7.9577017;-30.61388;;1053.7
1214.0;1123.4;;;;;;;;;;;;;;0.9004181;-0.3620716;0.03540147;;;;;1053.7
1214.0;1123.4;;;;;;;;;;;;;;;;;14.278848;8.453628;-31.811733;;1053.7
1214.0;1123.4;;;;;;;;;;;;;;0.8757591;-0.35688344;-0.021362957;;;;;1053.7
1214.0;1123.4;;;;;;;;;;;;;;;;;8.888515;7.450331;-32.845547;;1063.4
1214.0;1123.4;;;;;;;;;;;;;;0.8532365;-0.34125796;-0.06952117;;;;;1063.4
1214.0;1123.4;;;;;;;;;;;;;;;;;1.7509995;6.061739;-33.700066;;1063.4
1214.0;1123.4;;;;;;;;;;;;;;0.84707177;-0.32856226;-0.10052797;;;;;1063.4
1214.0;1127.4;;;;0.0;0.0;0.0;;;;;;;;;;;;;;;
1214.0;1127.4;;;;-0.032802586;0.18960193;0.056781776;;;;;;;;;;;;;;;
1214.0;1127.4;;;;-0.1618271;0.8321992;0.18140031;;;;;;;;;;;;;;;
1214.0;1127.4;;;;-0.17385103;0.92448056;0.19187167;;;;;;;;;;;;;;;
1214.0;1127.4;;;;-0.17587282;0.9250871;0.1917763;;;;;;;;;;;;;;;
1214.0;1137.4;;;;-0.17665483;0.92577374;0.19180301;;;;;;;;;;;;;;;
1214.0;1137.4;;;;-0.17737962;0.9266206;0.19218066;;;;;;;;;;;;;;;
1214.0;1137.4;;;;-0.17829134;0.9274522;0.19269565;;;;;;;;;;;;;;;
1214.0;1137.4;;;;-0.17874528;0.9282495;0.1933327;;;;;;;;;;;;;;;
1214.0;1137.4;;;;-0.17965318;0.9288713;0.19387439;;;;;;;;;;;;;;;
1272.0;1138.6;57535;57556;11769;;;;;;;;;;;;;;;;;;
1272.0;1147.3;;;;-0.1800995;0.92974484;0.1949921;;;;;;;;;;;;;;;
1272.0;1147.3;;;;-0.18008424;0.9303552;0.19524387;;;;;;;;;;;;;;;
1272.0;1147.3;;;;-0.17989732;0.9308206;0.19561389;;;;;;;;;;;;;;;
1272.0;1147.3;;;;-0.1794777;0.93166745;0.1949692;;;;;;;;;;;;;;;
1272.0;1147.3;;;;-0.17917635;0.9316369;0.19519809;;;;;;;;;;;;;;;
1272.0;1157.4;;;;-0.17813875;0.9319345;0.19451144;;;;;;;;;;;;;;;
1272.0;1157.4;;;;-0.17721559;0.9317361;0.19388202;;;;;;;;;;;;;;;
1272.0;1157.4;;;;-0.17623903;0.93128216;0.1926308;;;;;;;;;;;;;;;
1272.0;1157.4;;;;-0.17542268;0.9308549;0.19231036;;;;;;;;;;;;;;;
1272.0;1157.4;;;;-0.17499925;0.9298974;0.19040683;;;;;;;;;;;;;;;
1272.0;1158.7;73874;73862;11761;;;;;;;;;;;;;;;;;;
1272.0;1165.1;;;;;;;;;;;;;0;;;;;;;;
1272.0;1165.1;;;;;;;;;;;;;0;;;;;;;;
1272.0;1165.1;;;;;;;;;;;;;-1;;;;;;;;
1272.0;1165.1;;;;;;;;;;;;;-2;;;;;;;;
1272.0;1165.1;;;;;;;;;;;;;-3;;;;;;;;
1272.0;1167.5;;;;-0.17447664;0.9292642;0.18916705;;;;;;;;;;;;;;;
1272.0;1167.5;;;;-0.17372514;0.9284669;0.18849567;;;;;;;;;;;;;;;
1272.0;1167.5;;;;-0.17322923;0.9277841;0.1874199;;;;;;;;;;;;;;;
1272.0;1167.5;;;;-0.1729889;0.9273797;0.18636705;;;;;;;;;;;;;;;
1272.0;1167.5;;;;-0.17269899;0.92712796;0.18587877;;;;;;;;;;;;;;;
1274.0;1177.7;;;;-0.17310716;0.92766964;0.18578722;;;;;;;;;;;;;;;
1274.0;1177.7;;;;-0.1724434;0.92819226;0.18528368;;;;;;;;;;;;;;;
1274.0;1177.7;;;;-0.17198946;0.92948925;0.18486406;;;;;;;;;;;;;;;
1274.0;1177.7;;;;-0.17102815;0.9305116;0.18406297;;;;;;;;;;;;;;;
1274.0;1177.7;;;;-0.17035677;0.93143094;0.18294145;;;;;;;;;;;;;;;
1274.0;1179.0;90210;90235;11752;;;;;;;;;;;;;;;;;;
1274.0;1187.7;;;;-0.16971208;0.9326402;0.18198396;;;;;;;;;;;;;;;
1274.0;1187.7;;;;-0.1697693;0.93353665;0.18054582;;;;;;;;;;;;;;;
1274.0;1187.7;;;;-0.16987993;0.9341165;0.17869188;;;;;;;;;;;;;;;
1274.0;1187.7;;;;-0.1705475;0.93455136;0.17721559;;;;;;;;;;;;;;;
1274.0;1187.7;;;;-0.17158128;0.9345437;0.17566301;;;;;;;;;;;;;;;
1274.0;1190.6;;;;;;;;;;;;;;;;;0.7705924;5.771813;-34.501175;;1073.0
1274.0;1190.6;;;;;;;;;;;;;;0.8406018;-0.3103122;-0.15655996;;;;;1073.0
1274.0;1190.6;;;;;;;;;;;;;;;;;13.3137;4.2497025;-35.09247;;1073.0
1274.0;1190.6;;;;;;;;;;;;;;0.849147;-0.26978362;-0.2690512;;;;;1073.0
1274.0;1190.6;;;;;;;;;;;;;;;;;25.719473;6.0579243;-35.149693;;1082.6
1274.0;1190.6;;;;;;;;;;;;;;0.86770225;-0.2576983;-0.32422864;;;;;1082.6
1274.0;1190.6;;;;;;;;;;;;;;;;;30.20188;10.956145;-35.29847;;1082.6
1274.0;1190.6;;;;;;;;;;;;;;0.8553728;-0.25055698;-0.26154363;;;;;1082.6
1274.0;1190.6;;;;;;;;;;;;;;;;;30.049286;11.825923;-35.657063;;1092.2
1274.0;1190.6;;;;;;;;;;;;;;0.84670556;-0.24640645;-0.22431104;;;;;1092.2
1274.0;1190.6;;;;;;;;;;;;;;;;;28.04651;11.604663;-36.04236;;1092.2
1274.0;1190.6;;;;;;;;;;;;;;0.8816797;-0.25067905;-0.17426069;;;;;1092.2
1331.0;1191.8;;;;;;;;;;;;;;;;;24.548326;14.526811;-36.614582;;1101.8
1331.0;1191.8;;;;;;;;;;;;;;0.88430434;-0.2525712;-0.04571673;;;;;1101.8
1331.0;1191.8;;;;;;;;;;;;;;;;;24.788658;12.325664;-37.17536;;1101.8
1331.0;1191.8;;;;;;;;;;;;;;0.91744745;-0.24854274;-0.025208289;;;;;1101.8
1331.0;1191.8;;;;;;;;;;;;;;;;;26.406141;10.822627;-38.22062;;1111.5
1331.0;1191.8;;;;;;;;;;;;;;0.94845426;-0.25251016;-0.029419843;;;;;1111.5
1331.0;1191.8;;;;;;;;;;;;;;;;;25.799585;10.818812;-39.16669;;1111.5
1331.0;1191.8;;;;;;;;;;;;;;0.9604175;-0.2636189;-0.031189917;;;;;1111.5
1331.0;1191.8;;;;;;;;;;;;;;;;;23.281807;10.13596;-39.597763;;1121.1
1331.0;1191.8;;;;;;;;;;;;;;0.9615772;-0.2751549;-0.06878872;;;;;1121.1
1331.0;1191.8;;;;;;;;;;;;;;;;;18.589588;9.372997;-39.658802;;1121.1
1331.0;1191.8;;;;;;;;;;;;;;0.9515061;-0.27790156;-0.096804716;;;;;1121.1
1331.0;1197.7;;;;-0.17235185;0.93470776;0.17396165;;;;;;;;;;;;;;;
1331.0;1197.7;;;;-0.17312242;0.9342958;0.17227556;;;;;;;;;;;;;;;
1331.0;1197.7;;;;-0.17386629;0.9342729;0.17143632;;;;;;;;;;;;;;;
1331.0;1197.7;;;;-0.1744423;0.93418133;0.1699257;;;;;;;;;;;;;;;
1331.0;1197.7;;;;-0.17456819;0.9341394;0.16801454;;;;;;;;;;;;;;;
1331.0;1199.1;106666;106676;11759;;;;;;;;;;;;;;;;;;
1331.0;1205.5;;;;;;;;;;;;;-6;;;;;;;;
1331.0;1205.5;;;;;;;;;;;;;-6;;;;;;;;
1331.0;1205.5;;;;;;;;;;;;;-9;;;;;;;;
1331.0;1205.5;;;;;;;;;;;;;-16;;;;;;;;
1331.0;1205.5;;;;;;;;;;;;;-10;;;;;;;;
1333.0;1207.8;;;;-0.17475893;0.9345056;0.16684343;;;;;;;;;;;;;;;
1333.0;1207.8;;;;-0.17426683;0.9346467;0.16550829;;;;;;;;;;;;;;;
1333.0;1207.8;;;;-0.17370988;0.9351045;0.1634369;;;;;;;;;;;;;;;
1333.0;1207.8;;;;-0.17284395;0.9354936;0.16242982;;;;;;;;;;;;;;;
1333.0;1207.8;;;;-0.17230989;0.93551266;0.16051103;;;;;;;;;;;;;;;
1333.0;1217.7;;;;-0.17196657;0.9363748;0.15973283;;;;;;;;;;;;;;;
1333.0;1217.7;;;;-0.17159273;0.9363023;0.15824892;;;;;;;;;;;;;;;
1333.0;1217.7;;;;-0.17185213;0.93641293;0.15732957;;;;;;;;;;;;;;;
1333.0;1217.7;;;;-0.17171861;0.93678296;0.15666582;;;;;;;;;;;;;;;
1333.0;1217.7;;;;-0.17165758;0.9369432;0.15578462;;;;;;;;;;;;;;;
1333.0;1219.1;123034;123063;11774;;;;;;;;;;;;;;;;;;
1333.0;1227.8;;;;-0.17185213;0.9363786;0.15433122;;;;;;;;;;;;;;;
1333.0;1227.8;;;;-0.1721573;0.9361764;0.1538048;;;;;;;;;;;;;;;
1333.0;1227.8;;;;-0.17259218;0.936062;0.15339662;;;;;;;;;;;;;;;
1333.0;1227.8;;;;-0.17226793;0.9353639;0.15303804;;;;;;;;;;;;;;;
1333.0;1227.8;;;;-0.1713524;0.9355279;0.15397264;;;;;;;;;;;;;;;
1333.0;1237.9;;;;-0.17132951;0.93626416;0.15446855;;;;;;;;;;;;;;;
1333.0;1237.9;;;;-0.17126848;0.9374124;0.155468;;;;;;;;;;;;;;;
1333.0;1237.9;;;;-0.1708832;0.9391862;0.15732194;;;;;;;;;;;;;;;
1333.0;1237.9;;;;-0.17000963;0.9417726;0.15952684;;;;;;;;;;;;;;;
1333.0;1237.9;;;;-0.16930391;0.9446336;0.1604233;;;;;;;;;;;;;;;
1334.0;1239.4;139450;139379;11773;;;;;;;;;;;;;;;;;;
1334.0;1243.3;;;;;;;;;;;;;;;;;11.284219;7.992035;-39.372692;;1130.8
1334.0;1243.3;;;;;;;;;;;;;;0.9418622;-0.28156376;-0.11737419;;;;;1130.8
1334.0;1243.3;;;;;;;;;;;;;;;;;3.4409618;6.820887;-38.99884;;1130.8
1334.0;1243.3;;;;;;;;;;;;;;0.93099767;-0.2785119;-0.1241493;;;;;1130.8
1334.0;1243.3;;;;;;;;;;;;;;;;;-3.7156286;6.851405;-38.407547;;1140.5
1334.0;1243.3;;;;;;;;;;;;;;0.924955;-0.26386303;-0.1114536;;;;;1140.5
1334.0;1243.3;;;;;;;;;;;;;;;;;-8.774072;7.2634053;-37.633137;;1140.5
1334.0;1243.3;;;;;;;;;;;;;;0.9175085;-0.25611132;-0.1048616;;;;;1140.5
1334.0;1243.3;;;;;;;;;;;;;;;;;-11.337626;7.511368;-37.01895;;1150.2
1334.0;1243.3;;;;;;;;;;;;;;0.91183203;-0.2372509;-0.12134159;;;;;1150.2
1334.0;1243.3;;;;;;;;;;;;;;;;;-12.672811;7.7669606;-36.671803;;1150.2
1334.0;1243.3;;;;;;;;;;;;;;0.9057894;-0.22095402;-0.1398358;;;;;1150.2
1335.0;1244.2;;;;;;;;;;;;;;;;;-12.962737;7.7478867;-36.57262;;1159.8
1335.0;1244.2;;;;;;;;;;;;;;0.8992584;-0.20209357;-0.15833002;;;;;1159.8
1335.0;1244.2;;;;;;;;;;;;;;;;;-13.2793665;7.5418863;-36.6451;;1159.8
1335.0;1244.2;;;;;;;;;;;;;;0.89504683;-0.18018128;-0.16962187;;;;;1159.8
1335.0;1244.2;;;;;;;;;;;;;;;;;-13.447219;7.415998;-36.736656;;1169.5
1335.0;1244.2;;;;;;;;;;;;;;0.8916288;-0.16980499;-0.17011017;;;;;1169.5
1335.0;1244.2;;;;;;;;;;;;;;;;;-13.382367;7.065035;-36.702324;;1169.5
1335.0;1244.2;;;;;;;;;;;;;;0.8951689;-0.15503404;-0.15881832;;;;;1169.5
1335.0;1244.2;;;;;;;;;;;;;;;;;-13.176367;6.878109;-36.729027;;1179.1
1335.0;1244.2;;;;;;;;;;;;;;0.90145576;-0.14960173;-0.14563432;;;;;1179.1
1335.0;1244.2;;;;;;;;;;;;;;;;;-12.9703665;7.4312572;-36.96173;;1179.1
1335.0;1244.2;;;;;;;;;;;;;;0.9012726;-0.14435256;-0.114749596;;;;;1179.1
1335.0;1245.6;;;;;;;;;;;;;-26;;;;;;;;
1335.0;1245.6;;;;;;;;;;;;;-17;;;;;;;;
1335.0;1245.6;;;;;;;;;;;;;-10;;;;;;;;
1335.0;1245.6;;;;;;;;;;;;;-78;;;;;;;;
1335.0;1245.6;;;;;;;;;;;;;32;;;;;;;;
1335.0;1247.9;;;;-0.16799928;0.94879925;0.16215135;;;;;;;;;;;;;;;
1335.0;1247.9;;;;-0.16683199;0.9534875;0.1640854;;;;;;;;;;;;;;;
1335.0;1247.9;;;;-0.16541292;0.9583322;0.16526033;;;;;;;;;;;;;;;
1335.0;1247.9;;;;-0.16361238;0.963936;0.1657448;;;;;;;;;;;;;;;
1335.0;1247.9;;;;-0.16240694;0.9695054;0.16646959;;;;;;;;;;;;;;;
1393.0;1257.7;;;;-0.16090395;0.97565854;0.16666795;;;;;;;;;;;;;;;
1393.0;1257.7;;;;-0.15936662;0.98093426;0.1669388;;;;;;;;;;;;;;;
1393.0;1257.7;;;;-0.15794374;0.98627865;0.16642381;;;;;;;;;;;;;;;
1393.0;1257.7;;;;-0.15634538;0.9912454;0.16633607;;;;;;;;;;;;;;;
1393.0;1257.7;;;;-0.15483858;0.995762;0.16559984;;;;;;;;;;;;;;;
1393.0;1259.3;155819;155789;11771;;;;;;;;;;;;;;;;;;
1393.0;1267.7;;;;-0.15288545;1.0002252;0.16558076;;;;;;;;;;;;;;;
1393.0;1267.7;;;;-0.1512642;1.0039064;0.16484071;;;;;;;;;;;;;;;
1393.0;1267.7;;;;-0.14982988;1.0071565;0.16415407;;;;;;;;;;;;;;;
1393.0;1267.7;;;;-0.14855577;1.0098191;0.16339494;;;;;;;;;;;;;;;
1393.0;1267.7;;;;-0.14731218;1.0116884;0.1622925;;;;;;;;;;;;;;;
1393.0;1277.7;;;;-0.14559557;1.0130845;0.1612816;;;;;;;;;;;;;;;
1393.0;1277.7;;;;-0.14421465;1.0143434;0.16050722;;;;;;;;;;;;;;;
1393.0;1277.7;;;;-0.14275743;1.0150567;0.15935136;;;;;;;;;;;;;;;
1393.0;1277.7;;;;-0.14201356;1.0156518;0.15756609;;;;;;;;;;;;;;;
1393.0;1277.7;;;;-0.14099123;1.0158464;0.15610506;;;;;;;;;;;;;;;
1393.0;1279.3;172117;172120;11773;;;;;;;;;;;;;;;;;;
1393.0;1285.6;;;;;;;;;;;;;147;;;;;;;;
1393.0;1285.6;;;;;;;;;;;;;-199;;;;;;;;
1393.0;1285.6;;;;;;;;;;;;;-370;;;;;;;;
1393.0;1285.6;;;;;;;;;;;;;493;;;;;;;;
1393.0;1285.6;;;;;;;;;;;;;1892;;;;;;;;
1395.0;1287.8;;;;-0.14099123;1.0157434;0.15462114;;;;;;;;;;;;;;;
1395.0;1287.8;;;;-0.14019395;1.0156175;0.1535225;;;;;;;;;;;;;;;
1395.0;1287.8;;;;-0.14006425;1.0147439;0.15165712;;;;;;;;;;;;;;;
1395.0;1287.8;;;;-0.1399193;1.0139962;0.15059663;;;;;;;;;;;;;;;
1395.0;1287.8;;;;-0.13986208;1.0137254;0.14864351;;;;;;;;;;;;;;;
1395.0;1297.9;;;;-0.13978578;1.0134164;0.14667894;;;;;;;;;;;;;;;
1395.0;1297.9;;;;-0.13944246;1.0129052;0.14554216;;;;;;;;;;;;;;;
1395.0;1297.9;;;;-0.13933946;1.0124017;0.14456941;;;;;;;;;;;;;;;
1395.0;1297.9;;;;-0.13919832;1.0116693;0.14347841;;;;;;;;;;;;;;;
1395.0;1297.9;;;;-0.13928224;1.0114671;0.14263536;;;;;;;;;;;;;;;
1395.0;1299.5;188545;188524;11783;;;;;;;;;;;;;;;;;;
1395.0;1303.5;;;;;;;;;;;;;;;;;-13.183996;5.859554;-36.759544;;1188.8
1395.0;1303.5;;;;;;;;;;;;;;0.93215734;-0.14752647;-0.10736412;;;;;1188.8
1395.0;1303.5;;;;;;;;;;;;;;;;;-13.653218;5.607776;-37.186806;;1188.8
1395.0;1303.5;;;;;;;;;;;;;;0.94051945;-0.13104647;-0.10400708;;;;;1188.8
1395.0;1303.5;;;;;;;;;;;;;;;;;-14.5497;5.0393686;-37.736137;;1198.4
1395.0;1303.5;;;;;;;;;;;;;;0.9488205;-0.12549211;-0.10388501;;;;;1198.4
1395.0;1303.5;;;;;;;;;;;;;;;;;-15.404218;3.7041843;-37.995544;;1198.4
1395.0;1303.5;;;;;;;;;;;;;;0.9685354;-0.11883908;-0.106631674;;;;;1198.4
1395.0;1303.5;;;;;;;;;;;;;;;;;-16.628773;2.5978882;-38.27403;;1208.0
1395.0;1303.5;;;;;;;;;;;;;;0.9887997;-0.115848266;-0.11749626;;;;;1208.0
1395.0;1303.5;;;;;;;;;;;;;;;;;-17.571032;2.0752587;-38.804287;;1208.0
1395.0;1303.5;;;;;;;;;;;;;;0.99417096;-0.11127049;-0.12225715;;;;;1208.0
1397.0;1304.7;;;;;;;;;;;;;;;;;-18.524736;1.411481;-39.326912;;1217.7
1397.0;1304.7;;;;;;;;;;;;;;1.0053407;-0.113956116;-0.12347789;;;;;1217.7
1397.0;1304.7;;;;;;;;;;;;;;;;;-18.875698;0.5569628;-39.74273;;1217.7
1397.0;1304.7;;;;;;;;;;;;;;1.0186468;-0.11810663;-0.12585834;;;;;1217.7
1397.0;1304.7;;;;;;;;;;;;;;;;;-18.64681;0.14496292;-39.971615;;1227.4
1397.0;1304.7;;;;;;;;;;;;;;1.0260934;-0.12707907;-0.12573627;;;;;1227.4
1397.0;1304.7;;;;;;;;;;;;;;;;;-18.055513;-0.34333324;-40.089874;;1227.4
1397.0;1304.7;;;;;;;;;;;;;;1.0339671;-0.13715018;-0.13098544;;;;;1227.4
1397.0;1304.7;;;;;;;;;;;;;;;;;-16.853848;-0.5302591;-40.192875;;1237.1
1397.0;1304.7;;;;;;;;;;;;;;1.0403149;-0.15588854;-0.1312296;;;;;1237.1
1397.0;1304.7;;;;;;;;;;;;;;;;;-15.24018;-0.4196295;-40.787987;;1237.1
1397.0;1304.7;;;;;;;;;;;;;;1.0455642;-0.17011017;-0.12799463;;;;;1237.1
1397.0;1307.9;;;;-0.13917543;1.0112382;0.14143755;;;;;;;;;;;;;;;
1397.0;1307.9;;;;-0.13871004;1.0102159;0.14054109;;;;;;;;;;;;;;;
1397.0;1307.9;;;;-0.13862993;1.0097886;0.13998415;;;;;;;;;;;;;;;
1397.0;1307.9;;;;-0.13801958;1.0090715;0.13953783;;;;;;;;;;;;;;;
1397.0;1307.9;;;;-0.137455;1.0081025;0.1386986;;;;;;;;;;;;;;;
1397.0;1317.9;;;;-0.13753511;1.006939;0.13762666;;;;;;;;;;;;;;;
1397.0;1317.9;;;;-0.13738634;1.0059472;0.13756944;;;;;;;;;;;;;;;
1397.0;1317.9;;;;-0.1368561;1.0047914;0.13801958;;;;;;;;;;;;;;;
1397.0;1317.9;;;;-0.13643266;1.003151;0.1377678;;;;;;;;;;;;;;;
1397.0;1317.9;;;;-0.13636781;1.0013734;0.13697435;;;;;;;;;;;;;;;
1453.0;1318.5;;;;;;;;;;;;;;;;;-13.740958;0.0;-40.993988;;1246.8
1453.0;1318.5;;;;;;;;;;;;;;1.0545366;-0.18073061;-0.12359996;;;;;1246.8
1453.0;1318.5;;;;;;;;;;;;;;;;;-12.253182;0.76296276;-41.03595;;1246.8
1453.0;1318.5;;;;;;;;;;;;;;1.0582598;-0.19629505;-0.119754635;;;;;1246.8
1453.0;1318.5;;;;;;;;;;;;;;;;;-10.631886;1.5259255;-41.3068;;1256.5
1453.0;1318.5;;;;;;;;;;;;;;1.0548418;-0.20441298;-0.11828975;;;;;1256.5
1453.0;1318.5;;;;;;;;;;;;;;;;;-9.304331;2.4071476;-41.760765;;1256.5
1453.0;1318.5;;;;;;;;;;;;;;1.0440992;-0.20587787;-0.11444441;;;;;1256.5
1453.0;1318.5;;;;;;;;;;;;;;;;;-7.805109;2.9641104;-42.180397;;1266.1
1453.0;1318.5;;;;;;;;;;;;;;1.0374463;-0.20935698;-0.105166785;;;;;1266.1
1453.0;1318.5;;;;;;;;;;;;;;;;;-5.5810723;2.5864437;-42.577137;;1266.1
1453.0;1318.5;;;;;;;;;;;;;;1.0331736;-0.20715964;-0.1037019;;;;;1266.1
1453.0;1319.4;204891;204936;11777;;;;;;;;;;;;;;;;;;
1453.0;1325.8;;;;;;;;;;;;;2766;;;;;;;;
1453.0;1325.8;;;;;;;;;;;;;2675;;;;;;;;
1453.0;1325.8;;;;;;;;;;;;;2022;;;;;;;;
1453.0;1325.8;;;;;;;;;;;;;1591;;;;;;;;
1453.0;1325.8;;;;;;;;;;;;;1345;;;;;;;;
1453.0;1327.8;;;;-0.13604738;0.9993745;0.13693239;;;;;;;;;;;;;;;
1453.0;1327.8;;;;-0.1355858;0.9977914;0.1369629;;;;;;;;;;;;;;;
1453.0;1327.8;;;;-0.13507845;0.9954797;0.13674928;;;;;;;;;;;;;;;
1453.0;1327.8;;;;-0.1345749;0.99289334;0.13703538;;;;;;;;;;;;;;;
1453.0;1327.8;;;;-0.13422777;0.99041;0.13682176;;;;;;;;;;;;;;;
1454.0;1337.7;;;;-0.13391878;0.9883195;0.13734438;;;;;;;;;;;;;;;
1454.0;1337.7;;;;-0.13365556;0.98654187;0.13846971;;;;;;;;;;;;;;;
1454.0;1337.7;;;;-0.1330948;0.98467267;0.13877489;;;;;;;;;;;;;;;
1454.0;1337.7;;;;-0.13267137;0.9826814;0.13872148;;;;;;;;;;;;;;;
1454.0;1337.7;;;;-0.13189317;0.9806291;0.13916017;;;;;;;;;;;;;;;
1454.0;1339.4;221340;221304;11770;;;;;;;;;;;;;;;;;;
1454.0;1347.8;;;;-0.13135149;0.9786111;0.13958742;;;;;;;;;;;;;;;
1454.0;1347.8;;;;-0.13103487;0.97659314;0.13981248;;;;;;;;;;;;;;;
1454.0;1347.8;;;;-0.13087465;0.97460186;0.14018632;;;;;;;;;;;;;;;
1454.0;1347.8;;;;-0.13016511;0.9724122;0.13951112;;;;;;;;;;;;;;;
1454.0;1347.8;;;;-0.12999345;0.96971905;0.13995744;;;;;;;;;;;;;;;
1454.0;1357.9;;;;-0.12978746;0.9672471;0.14042284;;;;;;;;;;;;;;;
1454.0;1357.9;;;;-0.12955858;0.96492016;0.14045335;;;;;;;;;;;;;;;
1454.0;1357.9;;;;-0.12958528;0.9620935;0.14018632;;;;;;;;;;;;;;;
1454.0;1357.9;;;;-0.12938692;0.9590455;0.14013673;;;;;;;;;;;;;;;
1454.0;1357.9;;;;-0.12918855;0.95562756;0.14038469;;;;;;;;;;;;;;;
1454.0;1359.7;237713;237720;11778;;;;;;;;;;;;;;;;;;
1456.0;1363.6;;;;;;;;;;;;;;;;;-3.2044435;2.25074;-43.027283;;1275.8
1456.0;1363.6;;;;;;;;;;;;;;1.0256661;-0.20825832;-0.094485305;;;;;1275.8
1456.0;1363.6;;;;;;;;;;;;;;;;;-1.22837;1.064333;-43.64147;;1275.8
1456.0;1363.6;;;;;;;;;;;;;;1.0231636;-0.2064272;-0.09442427;;;;;1275.8
1456.0;1363.6;;;;;;;;;;;;;;;;;0.48448133;0.3128147;-44.526505;;1285.4
1456.0;1363.6;;;;;;;;;;;;;;1.0113834;-0.20673238;-0.087588124;;;;;1285.4
1456.0;1363.6;;;;;;;;;;;;;;;;;1.9684439;-0.8697775;-45.26658;;1285.4
1456.0;1363.6;;;;;;;;;;;;;;1.0171819;-0.21008942;-0.08264413;;;;;1285.4
1456.0;1363.6;;;;;;;;;;;;;;;;;3.952147;-1.3885921;-46.1478;;1295.1
1456.0;1363.6;;;;;;;;;;;;;;1.0286568;-0.21680349;-0.08642842;;;;;1295.1
1456.0;1363.6;;;;;;;;;;;;;;;;;6.0197763;-0.54933316;-47.067173;;1295.1
1456.0;1363.6;;;;;;;;;;;;;;1.0336009;-0.22095402;-0.082583085;;;;;1295.1
1456.0;1365.9;;;;;;;;;;;;;630;;;;;;;;
1456.0;1365.9;;;;;;;;;;;;;-621;;;;;;;;
1456.0;1365.9;;;;;;;;;;;;;-2030;;;;;;;;
1456.0;1365.9;;;;;;;;;;;;;-3136;;;;;;;;
1456.0;1365.9;;;;;;;;;;;;;-3682;;;;;;;;
1456.0;1367.9;;;;-0.12911989;0.9524728;0.14173509;;;;;;;;;;;;;;;
1456.0;1367.9;;;;-0.12914278;0.94908917;0.142334;;;;;;;;;;;;;;;
1456.0;1367.9;;;;-0.129097;0.94532406;0.142231;;;;;;;;;;;;;;;
1456.0;1367.9;;;;-0.12906267;0.94124234;0.14205171;;;;;;;;;;;;;;;
1456.0;1367.9;;;;-0.12952806;0.9366151;0.14169313;;;;;;;;;;;;;;;
1512.0;1378.0;;;;-0.12977602;0.9322778;0.14161302;;;;;;;;;;;;;;;
1512.0;1378.0;;;;-0.13073732;0.9271661;0.14041902;;;;;;;;;;;;;;;
1512.0;1378.0;;;;-0.13173296;0.9223367;0.1396332;;;;;;;;;;;;;;;
1512.0;1378.0;;;;-0.13271715;0.91677487;0.1392441;;;;;;;;;;;;;;;
1512.0;1378.0;;;;-0.13383485;0.9109231;0.13860704;;;;;;;;;;;;;;;
1512.0;1378.6;;;;;;;;;;;;;;;;;8.018739;1.0299997;-47.814877;;1304.8
1512.0;1378.6;;;;;;;;;;;;;;1.0408642;-0.22052675;-0.06311228;;;;;1304.8
1512.0;1378.6;;;;;;;;;;;;;;;;;9.720146;2.4605548;-48.63506;;1304.8
1512.0;1378.6;;;;;;;;;;;;;;1.046968;-0.2163152;-0.052980132;;;;;1304.8
1512.0;1378.6;;;;;;;;;;;;;;;;;11.036257;3.9407024;-49.48958;;1314.4
1512.0;1378.6;;;;;;;;;;;;;;1.0418409;-0.20227668;-0.048463393;;;;;1314.4
1512.0;1378.6;;;;;;;;;;;;;;;;;12.012849;4.9172945;-50.290688;;1314.4
1512.0;1378.6;;;;;;;;;;;;;;1.0267037;-0.1817072;-0.052186653;;;;;1314.4
1512.0;1378.6;;;;;;;;;;;;;;;;;12.520218;4.8219247;-50.977356;;1324.0
1512.0;1378.6;;;;;;;;;;;;;;1.0216987;-0.15607166;-0.06280709;;;;;1324.0
1512.0;1378.6;;;;;;;;;;;;;;;;;12.825403;4.5319986;-51.61443;;1324.0
1512.0;1378.6;;;;;;;;;;;;;;1.018952;-0.13238929;-0.073793754;;;;;1324.0
1512.0;1379.6;254165;254116;11772;;;;;;;;;;;;;;;;;;
1512.0;1387.8;;;;-0.13487245;0.9047967;0.13715364;;;;;;;;;;;;;;;
1512.0;1387.8;;;;-0.13590242;0.8992349;0.13696672;;;;;;;;;;;;;;;
1512.0;1387.8;;;;-0.13650896;0.89338315;0.13633348;;;;;;;;;;;;;;;
1512.0;1387.8;;;;-0.13711168;0.8870927;0.13543703;;;;;;;;;;;;;;;
1512.0;1387.8;;;;-0.13774492;0.8813859;0.13482286;;;;;;;;;;;;;;;
1515.0;1397.8;;;;-0.1377411;0.87547696;0.13389589;;;;;;;;;;;;;;;
1515.0;1397.8;;;;-0.13806917;0.87009823;0.13345338;;;;;;;;;;;;;;;
1515.0;1397.8;;;;-0.13814546;0.8646966;0.13293077;;;;;;;;;;;;;;;
1515.0;1397.8;;;;-0.13829042;0.85966885;0.13308717;;;;;;;;;;;;;;;
1515.0;1397.8;;;;-0.13845827;0.85478985;0.13293077;;;;;;;;;;;;;;;
1515.0;1399.7;262143;262143;11776;;;;;;;;;;;;;;;;;;
1515.0;1406.1;;;;;;;;;;;;;-3786;;;;;;;;
1515.0;1406.1;;;;;;;;;;;;;-3772;;;;;;;;
1515.0;1406.1;;;;;;;;;;;;;-3585;;;;;;;;
1515.0;1406.1;;;;;;;;;;;;;-2970;;;;;;;;
1515.0;1406.1;;;;;;;;;;;;;-2276;;;;;;;;
1515.0;1407.9;;;;-0.13874437;0.850525;0.1329384;;;;;;;;;;;;;;;
1515.0;1407.9;;;;-0.13912202;0.8462907;0.13370897;;;;;;;;;;;;;;;
1515.0;1407.9;;;;-0.1398697;0.84232724;0.13366319;;;;;;;;;;;;;;;
1515.0;1407.9;;;;-0.1397133;0.83851254;0.13414384;;;;;;;;;;;;;;;
1515.0;1407.9;;;;-0.1395035;0.8348962;0.1347542;;;;;;;;;;;;;;;
1515.0;1418.1;;;;-0.13936616;0.83187115;0.13586046;;;;;;;;;;;;;;;
1515.0;1418.1;;;;-0.1389847;0.8284379;0.13669969;;;;;;;;;;;;;;;
1515.0;1418.1;;;;-0.13819124;0.825081;0.13739015;;;;;;;;;;;;;;;
1515.0;1418.1;;;;-0.13732149;0.82180035;0.13788225;;;;;;;;;;;;;;;
1515.0;1418.1;;;;-0.13671876;0.8190805;0.13901521;;;;;;;;;;;;;;;
1515.0;1420.0;262143;262143;11773;;;;;;;;;;;;;;;;;;
1517.0;1423.9;;;;;;;;;;;;;;;;;12.977996;4.631184;-52.23243;;1333.6
1517.0;1423.9;;;;;;;;;;;;;;1.0112003;-0.10254219;-0.07477035;;;;;1333.6
1517.0;1423.9;;;;;;;;;;;;;;;;;13.008514;4.844814;-52.59865;;1333.6
1517.0;1423.9;;;;;;;;;;;;;;1.0038759;-0.08307138;-0.0695822;;;;;1333.6
1517.0;1423.9;;;;;;;;;;;;;;;;;13.187811;4.9630723;-53.258614;;1343.3
1517.0;1423.9;;;;;;;;;;;;;;1.0112003;-0.07483139;-0.05755791;;;;;1343.3
1517.0;1423.9;;;;;;;;;;;;;;;;;13.496811;5.8252206;-54.38017;;1343.3
1517.0;1423.9;;;;;;;;;;;;;;1.0104679;-0.06549272;-0.05505539;;;;;1343.3
1517.0;1423.9;;;;;;;;;;;;;;;;;14.477218;6.3173313;-55.31098;;1353.0
1517.0;1423.9;;;;;;;;;;;;;;1.0129703;-0.084902495;-0.043153174;;;;;1353.0
1517.0;1423.9;;;;;;;;;;;;;;;;;15.86581;4.2840357;-57.06198;;1353.0
1517.0;1423.9;;;;;;;;;;;;;;1.0215766;-0.06799524;-0.067873165;;;;;1353.0
1517.0;1428.1;;;;-0.13573457;0.81614316;0.14040376;;;;;;;;;;;;;;;
1517.0;1428.1;;;;-0.13533784;0.8129388;0.14175417;;;;;;;;;;;;;;;
1517.0;1428.1;;;;-0.13486482;0.81048214;0.14276125;;;;;;;;;;;;;;;
1517.0;1428.1;;;;-0.13396074;0.8082086;0.1438141;;;;;;;;;;;;;;;
1517.0;1428.1;;;;-0.13281633;0.80602276;0.14517595;;;;;;;;;;;;;;;
1517.0;1438.1;;;;-0.13235857;0.8044702;0.14582063;;;;;;;;;;;;;;;
1517.0;1438.1;;;;-0.13183214;0.80249035;0.14675905;;;;;;;;;;;;;;;
1517.0;1438.1;;;;-0.13142397;0.8011972;0.14763643;;;;;;;;;;;;;;;
1517.0;1438.1;;;;-0.13097002;0.79952633;0.148407;;;;;;;;;;;;;;;
1517.0;1438.1;;;;-0.13080598;0.7982255;0.14941789;;;;;;;;;;;;;;;
1569.0;1439.0;;;;;;;;;;;;;;;;;16.258736;3.3494065;-58.893093;;1362.6
1569.0;1439.0;;;;;;;;;;;;;;1.0376904;0.03295999;-0.08764916;;;;;1362.6
1569.0;1439.0;;;;;;;;;;;;;;;;;14.515367;3.543962;-58.641315;;1362.6
1569.0;1439.0;;;;;;;;;;;;;;1.0708334;0.025330363;-0.11896115;;;;;1362.6
1569.0;1439.0;;;;;;;;;;;;;;;;;14.32081;5.592517;-59.152504;;1372.3
1569.0;1439.0;;;;;;;;;;;;;;1.1027558;-0.0014038514;-0.11017182;;;;;1372.3
1569.0;1439.0;;;;;;;;;;;;;;;;;13.466292;7.7097383;-59.869686;;1372.3
1569.0;1439.0;;;;;;;;;;;;;;1.1011078;-2.4414808E-4;-0.096499525;;;;;1372.3
1569.0;1439.0;;;;;;;;;;;;;;;;;10.410626;9.418776;-60.628834;;1382.0
1569.0;1439.0;;;;;;;;;;;;;;1.1142308;-0.009949034;-0.09271523;;;;;1382.0
1569.0;1439.0;;;;;;;;;;;;;;;;;6.725517;12.256997;-61.777092;;1382.0
1569.0;1439.0;;;;;;;;;;;;;;1.1205786;-0.0144657735;-0.08996857;;;;;1382.0
1569.0;1440.0;262143;262143;11783;;;;;;;;;;;;;;;;;;
1569.0;1446.3;;;;;;;;;;;;;-1649;;;;;;;;
1569.0;1446.3;;;;;;;;;;;;;-689;;;;;;;;
1569.0;1446.3;;;;;;;;;;;;;658;;;;;;;;
1569.0;1446.3;;;;;;;;;;;;;1860;;;;;;;;
1569.0;1446.3;;;;;;;;;;;;;2556;;;;;;;;
1569.0;1448.0;;;;-0.13071062;0.79706204;0.15113832;;;;;;;;;;;;;;;
1569.0;1448.0;;;;-0.130394;0.7962533;0.15232088;;;;;;;;;;;;;;;
1569.0;1448.0;;;;-0.13066866;0.7955972;0.15390779;;;;;;;;;;;;;;;
1569.0;1448.0;;;;-0.13055803;0.79512036;0.15489198;;;;;;;;;;;;;;;
1569.0;1448.0;;;;-0.12995912;0.7949945;0.1556511;;;;;;;;;;;;;;;
1587.0;1458.0;;;;-0.12953188;0.7957269;0.15626527;;;;;;;;;;;;;;;
1587.0;1458.0;;;;-0.12915422;0.7965318;0.15715791;;;;;;;;;;;;;;;
1587.0;1458.0;;;;-0.1284218;0.7979013;0.157856;;;;;;;;;;;;;;;
1587.0;1458.0;;;;-0.12836076;0.7990266;0.15861894;;;;;;;;;;;;;;;
1587.0;1458.0;;;;-0.12790681;0.80072796;0.1592064;;;;;;;;;;;;;;;
1587.0;1460.0;262143;262143;11788;;;;;;;;;;;;;;;;;;
1587.0;1468.1;;;;-0.12757112;0.8025209;0.16001512;;;;;;;;;;;;;;;
1587.0;1468.1;;;;-0.12762453;0.80404675;0.16132356;;;;;;;;;;;;;;;
1587.0;1468.1;;;;-0.1273308;0.8053628;0.16209032;;;;;;;;;;;;;;;
1587.0;1468.1;;;;-0.12640382;0.80693066;0.16356279;;;;;;;;;;;;;;;
1587.0;1468.1;;;;-0.12607194;0.80859005;0.16400911;;;;;;;;;;;;;;;
1587.0;1478.2;;;;-0.1252022;0.8101541;0.16485216;;;;;;;;;;;;;;;
1587.0;1478.2;;;;-0.124862686;0.8112298;0.16513063;;;;;;;;;;;;;;;
1587.0;1478.2;;;;-0.12459566;0.8123971;0.16587831;;;;;;;;;;;;;;;
1587.0;1478.2;;;;-0.12397005;0.8133279;0.16587831;;;;;;;;;;;;;;;
1587.0;1478.2;;;;-0.12414552;0.81386197;0.16617967;;;;;;;;;;;;;;;
1587.0;1480.3;262143;262143;11789;;;;;;;;;;;;;;;;;;
1587.0;1486.6;;;;;;;;;;;;;2938;;;;;;;;
1587.0;1486.6;;;;;;;;;;;;;3081;;;;;;;;
1587.0;1486.6;;;;;;;;;;;;;3068;;;;;;;;
1587.0;1486.6;;;;;;;;;;;;;3270;;;;;;;;
1587.0;1486.6;;;;;;;;;;;;;3595;;;;;;;;
1630.0;1488.3;;;;-0.12405397;0.8144151;0.1666527;;;;;;;;;;;;;;;
1630.0;1488.3;;;;-0.12401201;0.81510174;0.16720964;;;;;;;;;;;;;;;
1630.0;1488.3;;;;-0.12427141;0.81557477;0.16831972;;;;;;;;;;;;;;;
1630.0;1488.3;;;;-0.12480928;0.81592953;0.16898729;;;;;;;;;;;;;;;
1630.0;1488.3;;;;-0.12501527;0.81642544;0.1693535;;;;;;;;;;;;;;;
1630.0;1498.4;;;;-0.1258545;0.81689847;0.17025758;;;;;;;;;;;;;;;
1630.0;1498.4;;;;-0.12605669;0.81798565;0.17153932;;;;;;;;;;;;;;;
1630.0;1498.4;;;;-0.1265526;0.819069;0.17222597;;;;;;;;;;;;;;;
1630.0;1498.4;;;;-0.1269684;0.82068264;0.17433931;;;;;;;;;;;;;;;
1630.0;1498.4;;;;-0.12754442;0.8229104;0.17603303;;;;;;;;;;;;;;;
1630.0;1500.4;262143;262143;11786;;;;;;;;;;;;;;;;;;
1630.0;1508.3;;;;-0.12796022;0.82463086;0.17732622;;;;;;;;;;;;;;;
1630.0;1508.3;;;;-0.1279793;0.8272897;0.17928316;;;;;;;;;;;;;;;
1630.0;1508.3;;;;-0.12833406;0.8299676;0.18206407;;;;;;;;;;;;;;;
1630.0;1508.3;;;;-0.12918474;0.831936;0.18435289;;;;;;;;;;;;;;;
1630.0;1508.3;;;;-0.1303673;0.83433545;0.18663408;;;;;;;;;;;;;;;
1630.0;1518.3;;;;-0.1313286;0.8363191;0.18858722;;;;;;;;;;;;;;;
1630.0;1518.3;;;;-0.13194658;0.83832943;0.19118884;;;;;;;;;;;;;;;
1630.0;1518.3;;;;-0.13209917;0.83975995;0.19317248;;;;;;;;;;;;;;;
1630.0;1518.3;;;;-0.13140108;0.8414041;0.19495776;;;;;;;;;;;;;;;
1630.0;1518.3;;;;-0.13084795;0.84227;0.19639972;;;;;;;;;;;;;;;
1636.0;1520.5;262143;262143;11791;;;;;;;;;;;;;;;;;;
1636.0;1526.8;;;;;;;;;;;;;3514;;;;;;;;
1636.0;1526.8;;;;;;;;;;;;;2880;;;;;;;;
1636.0;1526.8;;;;;;;;;;;;;2337;;;;;;;;
1636.0;1526.8;;;;;;;;;;;;;2495;;;;;;;;
1636.0;1526.8;;;;;;;;;;;;;2845;;;;;;;;
1636.0;1528.4;;;;-0.1292534;0.84276974;0.19817737;;;;;;;;;;;;;;;
1636.0;1528.4;;;;-0.12800981;0.8433114;0.19986728;;;;;;;;;;;;;;;
1636.0;1528.4;;;;-0.12714006;0.843464;0.20154956;;;;;;;;;;;;;;;
1636.0;1528.4;;;;-0.12584688;0.8432504;0.20262912;;;;;;;;;;;;;;;
1636.0;1528.4;;;;-0.12489702;0.8431474;0.2039986;;;;;;;;;;;;;;;
1636.0;1538.6;;;;-0.12385942;0.8429452;0.20492938;;;;;;;;;;;;;;;
1636.0;1538.6;;;;-0.12295534;0.8427392;0.20594409;;;;;;;;;;;;;;;
1636.0;1538.6;;;;-0.122238174;0.84256375;0.20655444;;;;;;;;;;;;;;;
1636.0;1538.6;;;;-0.12167741;0.842682;0.20650485;;;;;;;;;;;;;;;
1636.0;1538.6;;;;-0.12100603;0.8431207;0.20624164;;;;;;;;;;;;;;;
1636.0;1540.8;262143;262143;11799;;;;;;;;;;;;;;;;;;
1637.0;1544.7;;;;;;;;;;;;;;;;;3.5058138;15.533921;-62.90628;;1391.7
1637.0;1544.7;;;;;;;;;;;;;;1.1363262;-0.026184881;-0.07562487;;;;;1391.7
1637.0;1544.7;;;;;;;;;;;;;;;;;1.617481;17.811365;-64.424576;;1391.7
1637.0;1544.7;;;;;;;;;;;;;;1.1425519;-0.028321177;-0.075014494;;;;;1391.7
1637.0;1544.7;;;;;;;;;;;;;;;;;0.46922207;18.494217;-66.40065;;1401.4
1637.0;1544.7;;;;;;;;;;;;;;1.1424298;0.010315256;-0.08264413;;;;;1401.4
1637.0;1544.7;;;;;;;;;;;;;;;;;-1.0872219;18.250069;-67.76635;;1401.4
1637.0;1544.7;;;;;;;;;;;;;;1.149205;0.032471694;-0.09857479;;;;;1401.4
1637.0;1544.7;;;;;;;;;;;;;;;;;-1.9493698;17.983032;-68.54457;;1411.0
1637.0;1544.7;;;;;;;;;;;;;;1.1416364;0.03869747;-0.116641745;;;;;1411.0
1637.0;1544.7;;;;;;;;;;;;;;;;;-3.0251474;17.563402;-69.85305;;1411.0
1637.0;1544.7;;;;;;;;;;;;;;1.1222876;0.049745172;-0.12518692;;;;;1411.0
1637.0;1545.4;;;;;;;;;;;;;;;;;-3.5859249;15.530107;-70.89831;;1420.7
1637.0;1545.4;;;;;;;;;;;;;;1.1062349;0.041932434;-0.15039521;;;;;1420.7
1637.0;1545.4;;;;;;;;;;;;;;;;;-3.4371471;13.626515;-71.90161;;1420.7
1637.0;1545.4;;;;;;;;;;;;;;1.1002533;0.049684133;-0.17749566;;;;;1420.7
1637.0;1545.4;;;;;;;;;;;;;;;;;-3.7347028;13.294626;-72.71035;;1430.4
1637.0;1545.4;;;;;;;;;;;;;;1.0977508;0.038331248;-0.17920469;;;;;1430.4
1637.0;1545.4;;;;;;;;;;;;;;;;;-4.7418137;13.912625;-74.43465;;1430.4
1637.0;1545.4;;;;;;;;;;;;;;1.0835291;0.041505173;-0.15527818;;;;;1430.4
1637.0;1545.4;;;;;;;;;;;;;;;;;-6.275368;13.851588;-75.59817;;1440.1
1637.0;1545.4;;;;;;;;;;;;;;1.0889615;0.032715842;-0.122989595;;;;;1440.1
1637.0;1545.4;;;;;;;;;;;;;;;;;-7.206183;13.576922;-76.79602;;1440.1
1637.0;1545.4;;;;;;;;;;;;;;1.1181371;0.026917325;-0.107608266;;;;;1440.1
1641.0;1546.2;;;;;;;;;;;;;;;;;-7.763146;14.473403;-78.21512;;1449.8
1641.0;1546.2;;;;;;;;;;;;;;1.1252785;0.021729179;-0.09186071;;;;;1449.8
1641.0;1546.2;;;;;;;;;;;;;;;;;-8.484145;15.95355;-79.65712;;1449.8
1641.0;1546.2;;;;;;;;;;;;;;1.1136814;0.02478103;-0.0672628;;;;;1449.8
1641.0;1546.2;;;;;;;;;;;;;;;;;-9.598072;16.96066;-80.82064;;1459.4
1641.0;1546.2;;;;;;;;;;;;;;1.117893;0.03302103;-0.035767693;;;;;1459.4
1641.0;1546.2;;;;;;;;;;;;;;;;;-10.902738;15.732292;-81.67135;;1459.4
1641.0;1546.2;;;;;;;;;;;;;;1.1397443;0.043336283;-0.03607288;;;;;1459.4
1641.0;1546.2;;;;;;;;;;;;;;;;;-11.528367;15.44618;-83.47194;;1469.2
1641.0;1546.2;;;;;;;;;;;;;;1.1582385;0.048829615;-0.041871395;;;;;1469.2
1641.0;1546.2;;;;;;;;;;;;;;;;;-12.707144;16.006958;-85.6235;;1469.2
1641.0;1546.2;;;;;;;;;;;;;;1.1634266;0.06634724;-0.049012728;;;;;1469.2
1641.0;1548.4;;;;-0.12062456;0.8438188;0.20623782;;;;;;;;;;;;;;;
1641.0;1548.4;;;;-0.12068559;0.8444978;0.20629123;;;;;;;;;;;;;;;
1641.0;1548.4;;;;-0.12081529;0.84472287;0.20564654;;;;;;;;;;;;;;;
1641.0;1548.4;;;;-0.12159349;0.84581006;0.20491031;;;;;;;;;;;;;;;
1641.0;1548.4;;;;-0.12155534;0.84664166;0.20420077;;;;;;;;;;;;;;;
1642.0;1552.4;;;;;;;;;;;;;;;;;-14.564959;16.6097;-85.69979;;1478.9
1642.0;1552.4;;;;;;;;;;;;;;1.1498764;0.08551286;-0.038819544;;;;;1478.9
1642.0;1552.4;;;;;;;;;;;;;;;;;-17.502365;16.80807;-86.653496;;1478.9
1642.0;1552.4;;;;;;;;;;;;;;1.1495712;0.096804716;-0.035950806;;;;;1478.9
1642.0;1552.4;;;;;;;;;;;;;;;;;-19.821772;17.021698;-87.9429;;1488.5
1642.0;1552.4;;;;;;;;;;;;;;1.1482284;0.13086337;-0.03234962;;;;;1488.5
1642.0;1552.4;;;;;;;;;;;;;;;;;-23.52214;16.666922;-88.32057;;1488.5
1642.0;1552.4;;;;;;;;;;;;;;1.1408429;0.15436262;-0.04809717;;;;;1488.5
1642.0;1552.4;;;;;;;;;;;;;;;;;-27.653584;15.099032;-88.541824;;1498.2
1642.0;1552.4;;;;;;;;;;;;;;1.1418195;0.18933684;-0.07678457;;;;;1498.2
1642.0;1552.4;;;;;;;;;;;;;;;;;-34.257027;13.832514;-90.25086;;1498.2
1642.0;1552.4;;;;;;;;;;;;;;1.1315043;0.22583698;-0.1159093;;;;;1498.2
1642.0;1558.4;;;;-0.122467056;0.8477365;0.20395663;;;;;;;;;;;;;;;
1642.0;1558.4;;;;-0.12276079;0.8477174;0.20379642;;;;;;;;;;;;;;;
1642.0;1558.4;;;;-0.12317659;0.84827435;0.20325091;;;;;;;;;;;;;;;
1642.0;1558.4;;;;-0.12388231;0.84899914;0.20266345;;;;;;;;;;;;;;;
1642.0;1558.4;;;;-0.12489702;0.8494302;0.20185855;;;;;;;;;;;;;;;
1642.0;1560.6;262143;262143;11795;;;;;;;;;;;;;;;;;;
1642.0;1566.9;;;;;;;;;;;;;2602;;;;;;;;
1642.0;1566.9;;;;;;;;;;;;;2132;;;;;;;;
1642.0;1566.9;;;;;;;;;;;;;2044;;;;;;;;
1642.0;1566.9;;;;;;;;;;;;;2022;;;;;;;;
1642.0;1566.9;;;;;;;;;;;;;1760;;;;;;;;
1691.0;1568.3;;;;-0.12571336;0.8502046;0.20050052;;;;;;;;;;;;;;;
1691.0;1568.3;;;;-0.12633134;0.8507234;0.19991687;;;;;;;;;;;;;;;
1691.0;1568.3;;;;-0.12673189;0.8514329;0.19918063;;;;;;;;;;;;;;;
1691.0;1568.3;;;;-0.12737657;0.8521043;0.19750598;;;;;;;;;;;;;;;
1691.0;1568.3;;;;-0.12767793;0.853016;0.19657138;;;;;;;;;;;;;;;
1691.0;1578.1;;;;-0.12853624;0.85422146;0.19554523;;;;;;;;;;;;;;;
1691.0;1578.1;;;;-0.12911607;0.85515225;0.19432834;;;;;;;;;;;;;;;
1691.0;1578.1;;;;-0.12991716;0.8565408;0.1940079;;;;;;;;;;;;;;;
1691.0;1578.1;;;;-0.12990953;0.857792;0.19306567;;;;;;;;;;;;;;;
1691.0;1578.1;;;;-0.13032915;0.859337;0.19197467;;;;;;;;;;;;;;;
1691.0;1580.4;262143;262143;11785;;;;;;;;;;;;;;;;;;
1691.0;1588.2;;;;-0.13098527;0.8609735;0.19162753;;;;;;;;;;;;;;;
1691.0;1588.2;;;;-0.1319008;0.8628274;0.19137195;;;;;;;;;;;;;;;
1691.0;1588.2;;;;-0.13286974;0.86457837;0.19157794;;;;;;;;;;;;;;;
1691.0;1588.2;;;;-0.13333513;0.86690533;0.19263843;;;;;;;;;;;;;;;
1691.0;1588.2;;;;-0.13381197;0.8691217;0.19411853;;;;;;;;;;;;;;;
1691.0;1598.4;;;;-0.13459398;0.8718988;0.19532779;;;;;;;;;;;;;;;
1691.0;1598.4;;;;-0.13465883;0.87495434;0.19694903;;;;;;;;;;;;;;;
1691.0;1598.4;;;;-0.13516237;0.8786317;0.19923022;;;;;;;;;;;;;;;
1691.0;1598.4;;;;-0.13555528;0.88251126;0.20077899;;;;;;;;;;;;;;;
1691.0;1598.4;;;;-0.1354828;0.8869401;0.20230106;;;;;;;;;;;;;;;
1692.0;1600.7;262143;262143;11784;;;;;;;;;;;;;;;;;;
1692.0;1604.6;;;;;;;;;;;;;;;;;-42.49321;13.485367;-91.31901;;1507.7
1692.0;1604.6;;;;;;;;;;;;;;1.1298562;0.25647756;-0.14545122;;;;;1507.7
1692.0;1604.6;;;;;;;;;;;;;;;;;-49.741352;14.01944;-90.05249;;1507.7
1692.0;1604.6;;;;;;;;;;;;;;1.1362041;0.27240822;-0.1594287;;;;;1507.7
1692.0;1604.6;;;;;;;;;;;;;;;;;-56.80639;16.327404;-90.685745;;1517.3
1692.0;1604.6;;;;;;;;;;;;;;1.1614734;0.2898648;-0.15472884;;;;;1517.3
1692.0;1604.6;;;;;;;;;;;;;;;;;-61.746574;20.836512;-92.0896;;1517.3
1692.0;1604.6;;;;;;;;;;;;;;1.1371197;0.31824702;-0.1685232;;;;;1517.3
1692.0;1604.6;;;;;;;;;;;;;;;;;-63.520462;27.684103;-92.905975;;1527.0
1692.0;1604.6;;;;;;;;;;;;;;1.0921965;0.3241676;-0.11090426;;;;;1527.0
1692.0;1604.6;;;;;;;;;;;;;;;;;-62.364574;27.62688;-92.75338;;1527.0
1692.0;1604.6;;;;;;;;;;;;;;1.1076999;0.32007813;-0.09454634;;;;;1527.0
1692.0;1606.9;;;;;;;;;;;;;1537;;;;;;;;
1692.0;1606.9;;;;;;;;;;;;;1526;;;;;;;;
1692.0;1606.9;;;;;;;;;;;;;1601;;;;;;;;
1692.0;1606.9;;;;;;;;;;;;;1547;;;;;;;;
1692.0;1606.9;;;;;;;;;;;;;1674;;;;;;;;
1692.0;1608.3;;;;-0.13658144;0.89177716;0.20417789;;;;;;;;;;;;;;;
1692.0;1608.3;;;;-0.13740541;0.8971406;0.20602801;;;;;;;;;;;;;;;
1692.0;1608.3;;;;-0.1387787;0.9023324;0.20728686;;;;;;;;;;;;;;;
1692.0;1608.3;;;;-0.14000703;0.90781415;0.20886233;;;;;;;;;;;;;;;
1692.0;1608.3;;;;-0.14125825;0.9130136;0.21048358;;;;;;;;;;;;;;;
1751.0;1611.9;;;;;;;;;;;;;;;;;-61.16672;27.409435;-92.71905;;1536.6
1751.0;1611.9;;;;;;;;;;;;;;1.1223487;0.308298;-0.07104709;;;;;1536.6
1751.0;1611.9;;;;;;;;;;;;;;;;;-60.857723;28.03888;-92.7839;;1536.6
1751.0;1611.9;;;;;;;;;;;;;;1.094821;0.28156376;-0.047242653;;;;;1536.6
1751.0;1611.9;;;;;;;;;;;;;;;;;-60.57161;28.02362;-93.543045;;1546.3
1751.0;1611.9;;;;;;;;;;;;;;1.0872524;0.26648763;-0.026551103;;;;;1546.3
1751.0;1611.9;;;;;;;;;;;;;;;;;-59.72091;28.424177;-94.344154;;1546.3
1751.0;1611.9;;;;;;;;;;;;;;1.0892056;0.24115726;-0.0270394;;;;;1546.3
1751.0;1611.9;;;;;;;;;;;;;;;;;-58.778652;29.301584;-94.85916;;1555.9
1751.0;1611.9;;;;;;;;;;;;;;1.0869472;0.21301919;-0.018372143;;;;;1555.9
1751.0;1611.9;;;;;;;;;;;;;;;;;-57.35191;30.278175;-95.89679;;1555.9
1751.0;1611.9;;;;;;;;;;;;;;1.0814539;0.19946899;-0.023255104;;;;;1555.9
1751.0;1618.2;;;;-0.14265825;0.9177934;0.21229175;;;;;;;;;;;;;;;
1751.0;1618.2;;;;-0.14430238;0.9222261;0.21411899;;;;;;;;;;;;;;;
1751.0;1618.2;;;;-0.1451111;0.9261323;0.21615222;;;;;;;;;;;;;;;
1751.0;1618.2;;;;-0.14625551;0.9294168;0.21790317;;;;;;;;;;;;;;;
1751.0;1618.2;;;;-0.14711381;0.9320718;0.22057346;;;;;;;;;;;;;;;
1751.0;1620.5;262143;262143;11792;;;;;;;;;;;;;;;;;;
1751.0;1628.2;;;;-0.14800645;0.9343568;0.22196582;;;;;;;;;;;;;;;
1751.0;1628.2;;;;-0.14841844;0.93631756;0.2240372;;;;;;;;;;;;;;;
1751.0;1628.2;;;;-0.14941789;0.938141;0.2258034;;;;;;;;;;;;;;;
1751.0;1628.2;;;;-0.14941789;0.9393617;0.22753528;;;;;;;;;;;;;;;
1751.0;1628.2;;;;-0.14969255;0.9404756;0.22869495;;;;;;;;;;;;;;;
1753.0;1638.2;;;;-0.15010835;0.94148266;0.22937015;;;;;;;;;;;;;;;
1753.0;1638.2;;;;-0.15034486;0.9425546;0.2303429;;;;;;;;;;;;;;;
1753.0;1638.2;;;;-0.15113832;0.9435693;0.23154452;;;;;;;;;;;;;;;
1753.0;1638.2;;;;-0.15186311;0.944317;0.23191836;;;;;;;;;;;;;;;
1753.0;1638.2;;;;-0.15229036;0.94557965;0.23212817;;;;;;;;;;;;;;;
1753.0;1640.7;262143;262143;11805;;;;;;;;;;;;;;;;;;
1753.0;1646.9;;;;;;;;;;;;;2284;;;;;;;;
1753.0;1646.9;;;;;;;;;;;;;2739;;;;;;;;
1753.0;1646.9;;;;;;;;;;;;;2580;;;;;;;;
1753.0;1646.9;;;;;;;;;;;;;2275;;;;;;;;
1753.0;1646.9;;;;;;;;;;;;;2258;;;;;;;;
1753.0;1648.3;;;;-0.15217973;0.9467317;0.23210147;;;;;;;;;;;;;;;
1753.0;1648.3;;;;-0.15196992;0.94763577;0.23252109;;;;;;;;;;;;;;;
1753.0;1648.3;;;;-0.15228654;0.9482347;0.23277286;;;;;;;;;;;;;;;
1753.0;1648.3;;;;-0.15319063;0.9488679;0.23237231;;;;;;;;;;;;;;;
1753.0;1648.3;;;;-0.15335466;0.94984066;0.23236468;;;;;;;;;;;;;;;
1753.0;1658.4;;;;-0.15409853;0.9505006;0.23176578;;;;;;;;;;;;;;;
1753.0;1658.4;;;;-0.15457536;0.9508859;0.23121646;;;;;;;;;;;;;;;
1753.0;1658.4;;;;-0.15505601;0.95136654;0.23108676;;;;;;;;;;;;;;;
1753.0;1658.4;;;;-0.15557481;0.9514276;0.23103717;;;;;;;;;;;;;;;
1753.0;1658.4;;;;-0.1558037;0.95157254;0.23064044;;;;;;;;;;;;;;;
1753.0;1660.9;262143;262143;11813;;;;;;;;;;;;;;;;;;
1755.0;1664.7;;;;;;;;;;;;;;;;;-55.612354;31.95288;-96.7246;;1565.5
1755.0;1664.7;;;;;;;;;;;;;;1.0719321;0.18811609;-0.019348735;;;;;1565.5
1755.0;1664.7;;;;;;;;;;;;;;;;;-54.559467;33.207954;-97.53716;;1565.5
1755.0;1664.7;;;;;;;;;;;;;;1.0600909;0.1920835;-0.0074465163;;;;;1565.5
1755.0;1664.7;;;;;;;;;;;;;;;;;-54.68154;33.974728;-98.20475;;1575.2
1755.0;1664.7;;;;;;;;;;;;;;1.0580157;0.1998352;-4.8829615E-4;;;;;1575.2
1755.0;1664.7;;;;;;;;;;;;;;;;;-55.35676;35.260323;-98.54046;;1575.2
1755.0;1664.7;;;;;;;;;;;;;;1.050264;0.2120426;0.012573626;;;;;1575.2
1755.0;1664.7;;;;;;;;;;;;;;;;;-56.321907;36.889248;-98.49086;;1584.9
1755.0;1664.7;;;;;;;;;;;;;;1.0453811;0.22315134;0.03399762;;;;;1584.9
1755.0;1664.7;;;;;;;;;;;;;;;;;-58.16065;37.411877;-98.63201;;1584.9
1755.0;1664.7;;;;;;;;;;;;;;1.0342723;0.23413801;0.029419843;;;;;1584.9
1755.0;1668.4;;;;-0.15617372;0.9514657;0.22995761;;;;;;;;;;;;;;;
1755.0;1668.4;;;;-0.15637209;0.95087063;0.23001865;;;;;;;;;;;;;;;
1755.0;1668.4;;;;-0.15717699;0.95007336;0.22995761;;;;;;;;;;;;;;;
1755.0;1668.4;;;;-0.15765001;0.94942486;0.23033527;;;;;;;;;;;;;;;
1755.0;1668.4;;;;-0.15791322;0.94840634;0.22965625;;;;;;;;;;;;;;;
1755.0;1672.6;;;;;;;;;;;;;;;;;-59.396652;38.090916;-99.1203;;1594.6
1755.0;1672.6;;;;;;;;;;;;;;1.0019226;0.25305948;0.026367992;;;;;1594.6
1755.0;1672.6;;;;;;;;;;;;;;;;;-60.415203;36.824398;-99.37208;;1594.6
1755.0;1672.6;;;;;;;;;;;;;;0.99667346;0.27655873;0.0037842952;;;;;1594.6
1755.0;1672.6;;;;;;;;;;;;;;;;;-62.25776;34.981842;-99.60478;;1604.3
1755.0;1672.6;;;;;;;;;;;;;;1.0085757;0.3076876;-0.042115543;;;;;1604.3
1755.0;1672.6;;;;;;;;;;;;;;;;;-64.24528;34.020508;-99.467445;;1604.3
1755.0;1672.6;;;;;;;;;;;;;;0.99795526;0.32258064;-0.068300426;;;;;1604.3
1755.0;1672.6;;;;;;;;;;;;;;;;;-65.60717;31.613361;-99.25382;;1614.0
1755.0;1672.6;;;;;;;;;;;;;;0.99545276;0.3361919;-0.07953124;;;;;1614.0
1755.0;1672.6;;;;;;;;;;;;;;;;;-65.55758;30.423138;-99.26145;;1614.0
1755.0;1672.6;;;;;;;;;;;;;;1.0101627;0.34998626;-0.07727287;;;;;1614.0
1755.0;1678.4;;;;-0.1583214;0.9472238;0.22920993;;;;;;;;;;;;;;;
1755.0;1678.4;;;;-0.1584015;0.945984;0.22956851;;;;;;;;;;;;;;;
1755.0;1678.4;;;;-0.15860368;0.94503033;0.22877505;;;;;;;;;;;;;;;
1755.0;1678.4;;;;-0.15929414;0.9438478;0.22801593;;;;;;;;;;;;;;;
1755.0;1678.4;;;;-0.15966798;0.9425508;0.22760776;;;;;;;;;;;;;;;
1755.0;1680.9;262143;262143;11798;;;;;;;;;;;;;;;;;;
1755.0;1687.2;;;;;;;;;;;;;2240;;;;;;;;
1755.0;1687.2;;;;;;;;;;;;;1813;;;;;;;;
1755.0;1687.2;;;;;;;;;;;;;1296;;;;;;;;
1755.0;1687.2;;;;;;;;;;;;;1156;;;;;;;;
1755.0;1687.2;;;;;;;;;;;;;1403;;;;;;;;
1809.0;1688.4;;;;-0.16021349;0.9411737;0.2277756;;;;;;;;;;;;;;;
1809.0;1688.4;;;;-0.1610985;0.94079983;0.22841266;;;;;;;;;;;;;;;
1809.0;1688.4;;;;-0.16164781;0.94007885;0.23018268;;;;;;;;;;;;;;;
1809.0;1688.4;;;;-0.16167451;0.93985;0.23168567;;;;;;;;;;;;;;;
1809.0;1688.4;;;;-0.16078188;0.9396745;0.23402789;;;;;;;;;;;;;;;
1809.0;1698.3;;;;-0.15994646;0.9400331;0.2368584;;;;;;;;;;;;;;;
1809.0;1698.3;;;;-0.15880968;0.9402467;0.2388573;;;;;;;;;;;;;;;
1809.0;1698.3;;;;-0.1571541;0.9407464;0.24143985;;;;;;;;;;;;;;;
1809.0;1698.3;;;;-0.15580751;0.94142544;0.24357226;;;;;;;;;;;;;;;
1809.0;1698.3;;;;-0.15486147;0.9419557;0.24489596;;;;;;;;;;;;;;;
1809.0;1700.9;262143;262143;11808;;;;;;;;;;;;;;;;;;
1809.0;1708.4;;;;-0.15456773;0.9419786;0.24515155;;;;;;;;;;;;;;;
1809.0;1708.4;;;;-0.15414049;0.9421731;0.24604419;;;;;;;;;;;;;;;
1809.0;1708.4;;;;-0.15431978;0.9418298;0.24639896;;;;;;;;;;;;;;;
1809.0;1708.4;;;;-0.15480424;0.941311;0.24632266;;;;;;;;;;;;;;;
1809.0;1708.4;;;;-0.15493394;0.94067395;0.24628451;;;;;;;;;;;;;;;
1809.0;1718.5;;;;-0.15571977;0.93921673;0.24585727;;;;;;;;;;;;;;;
1809.0;1718.5;;;;-0.15654756;0.93761456;0.24546817;;;;;;;;;;;;;;;
1809.0;1718.5;;;;-0.15698244;0.93553174;0.24526599;;;;;;;;;;;;;;;
1809.0;1718.5;;;;-0.15768053;0.9333917;0.24457934;;;;;;;;;;;;;;;
1809.0;1718.5;;;;-0.15839006;0.9309732;0.24448398;;;;;;;;;;;;;;;
1823.0;1721.2;262143;262143;11805;;;;;;;;;;;;;;;;;;
1823.0;1725.0;;;;;;;;;;;;;;;;;-64.18806;31.674397;-98.872345;;1623.6
1823.0;1725.0;;;;;;;;;;;;;;1.0159612;0.36445203;-0.037354656;;;;;1623.6
1823.0;1725.0;;;;;;;;;;;;;;;;;-62.501907;32.8074;-98.39168;;1623.6
1823.0;1725.0;;;;;;;;;;;;;;1.0195624;0.36481827;6.714072E-4;;;;;1623.6
1823.0;1725.0;;;;;;;;;;;;;;;;;-60.464794;32.979065;-97.88431;;1633.0
1823.0;1725.0;;;;;;;;;;;;;;1.0195013;0.36103398;0.026978362;;;;;1633.0
1823.0;1725.0;;;;;;;;;;;;;;;;;-59.129612;32.780697;-97.23579;;1633.0
1823.0;1725.0;;;;;;;;;;;;;;1.0121769;0.354503;0.056459244;;;;;1633.0
1823.0;1725.0;;;;;;;;;;;;;;;;;-58.133945;31.949066;-96.35838;;1642.5
1823.0;1725.0;;;;;;;;;;;;;;1.0054628;0.34247872;0.074892424;;;;;1642.5
1823.0;1725.0;;;;;;;;;;;;;;;;;-57.599873;32.155064;-95.458084;;1642.5
1823.0;1725.0;;;;;;;;;;;;;;0.9897763;0.32245857;0.09356975;;;;;1642.5
1834.0;1725.7;;;;;;;;;;;;;;;;;-57.546463;32.46025;-94.66079;;1652.1
1834.0;1725.7;;;;;;;;;;;;;;0.98062074;0.310007;0.08551286;;;;;1652.1
1834.0;1725.7;;;;;;;;;;;;;;;;;-57.382427;33.005768;-93.24168;;1652.1
1834.0;1725.7;;;;;;;;;;;;;;0.9610889;0.2959685;0.07238991;;;;;1652.1
1834.0;1725.7;;;;;;;;;;;;;;;;;-59.0228;32.971436;-92.36808;;1661.8
1834.0;1725.7;;;;;;;;;;;;;;0.9375286;0.28736228;0.04382458;;;;;1661.8
1834.0;1725.7;;;;;;;;;;;;;;;;;-60.35035;33.055363;-91.30756;;1661.8
1834.0;1725.7;;;;;;;;;;;;;;0.92287976;0.2817469;0.025818659;;;;;1661.8
1834.0;1725.7;;;;;;;;;;;;;;;;;-59.76669;33.932766;-90.14023;;1671.4
1834.0;1725.7;;;;;;;;;;;;;;0.8989532;0.28876615;0.025757622;;;;;1671.4
1834.0;1725.7;;;;;;;;;;;;;;;;;-58.557392;34.566025;-89.19797;;1671.4
1834.0;1725.7;;;;;;;;;;;;;;0.8746605;0.30396435;0.035950806;;;;;1671.4
1834.0;1727.2;;;;;;;;;;;;;1587;;;;;;;;
1834.0;1727.2;;;;;;;;;;;;;1310;;;;;;;;
1834.0;1727.2;;;;;;;;;;;;;1031;;;;;;;;
1834.0;1727.2;;;;;;;;;;;;;1362;;;;;;;;
1834.0;1727.2;;;;;;;;;;;;;1826;;;;;;;;
1834.0;1728.4;;;;-0.15911485;0.9280969;0.24391177;;;;;;;;;;;;;;;
1834.0;1728.4;;;;-0.15943147;0.9252168;0.2431145;;;;;;;;;;;;;;;
1834.0;1728.4;;;;-0.1600609;0.92255795;0.24264148;;;;;;;;;;;;;;;
1834.0;1728.4;;;;-0.1607895;0.9205171;0.24136356;;;;;;;;;;;;;;;
1834.0;1728.4;;;;-0.1610756;0.91791546;0.24055102;;;;;;;;;;;;;;;
1871.0;1738.5;;;;-0.16180803;0.9156686;0.23959354;;;;;;;;;;;;;;;
1871.0;1738.5;;;;-0.16270448;0.91323483;0.23833087;;;;;;;;;;;;;;;
1871.0;1738.5;;;;-0.16311647;0.91064847;0.23655322;;;;;;;;;;;;;;;
1871.0;1738.5;;;;-0.16364671;0.90867245;0.23472217;;;;;;;;;;;;;;;
1871.0;1738.5;;;;-0.16492845;0.90670025;0.23379901;;;;;;;;;;;;;;;
1871.0;1738.6;;;;;;;;;;-0.07248146;16.693626;-2.8077028;;;;;;;;;
1871.0;1738.6;;;;;;;0.13812678;-0.8464003;0.21027254;;;;;;;;;;;;
1871.0;1738.6;;;;;;;;;;7.087924;31.991028;8.621479;;;;;;;;;
1871.0;1738.6;;;;;;;0.15918455;-0.9538865;0.23548082;;;;;;;;;;;;
1871.0;1741.1;262143;262143;11796;;;;;;;;;;;;;;;;;;
1871.0;1748.1;;;;;;;;;;0.35859248;4.1238136;1.1940367;;;;;;;;;
1871.0;1748.1;;;;;;;0.16003907;-0.95541245;0.23737296;;;;;;;;;;;;
1871.0;1748.1;;;;;;;;;;13.401441;15.87344;3.0976286;;;;;;;;;
1871.0;1748.1;;;;;;;0.16064943;-0.9568163;0.23871578;;;;;;;;;;;;
1871.0;1748.5;;;;-0.16574861;0.9051782;0.23194888;;;;;;;;;;;;;;;
1871.0;1748.5;;;;-0.16688539;0.9035264;0.23064426;;;;;;;;;;;;;;;
1871.0;1748.5;;;;-0.16799165;0.90230954;0.22895434;;;;;;;;;;;;;;;
1871.0;1748.5;;;;-0.16952898;0.9009553;0.22767642;;;;;;;;;;;;;;;
1871.0;1748.5;;;;-0.17070009;0.9005853;0.22597888;;;;;;;;;;;;;;;
1871.0;1757.3;;;;;;;;;;20.390179;15.846737;-0.20981476;;;;;;;;;
1871.0;1757.3;;;;;;;0.16113773;-0.95870847;0.24030274;;;;;;;;;;;;
1871.0;1757.3;;;;;;;;;;21.614735;-20.48555;-24.655142;;;;;;;;;
1871.0;1757.3;;;;;;;0.16113773;-0.9604175;0.23895992;;;;;;;;;;;;
1873.0;1758.3;;;;-0.17217256;0.900139;0.22488025;;;;;;;;;;;;;;;
1873.0;1758.3;;;;-0.17400362;0.9002458;0.22521976;;;;;;;;;;;;;;;
1873.0;1758.3;;;;-0.17584611;0.9005357;0.22466663;;;;;;;;;;;;;;;
1873.0;1758.3;;;;-0.177063;0.900921;0.22524264;;;;;;;;;;;;;;;
1873.0;1758.3;;;;-0.1786957;0.9022981;0.22688678;;;;;;;;;;;;;;;
1873.0;1761.0;262143;262143;11792;;;;;;;;;;;;;;;;;;
1873.0;1767.0;;;;;;;;;;27.71462;-21.546068;-29.148993;;;;;;;;;
1873.0;1767.0;;;;;;;0.15973388;-0.9609668;0.2395703;;;;;;;;;;;;
1873.0;1767.0;;;;;;;;;;33.558918;-22.026735;-33.532215;;;;;;;;;
1873.0;1767.0;;;;;;;0.1558275;-0.9578539;0.23682363;;;;;;;;;;;;
1873.0;1767.2;;;;;;;;;;;;;1559;;;;;;;;
1873.0;1767.2;;;;;;;;;;;;;730;;;;;;;;
1873.0;1767.2;;;;;;;;;;;;;242;;;;;;;;
1873.0;1767.2;;;;;;;;;;;;;426;;;;;;;;
1873.0;1767.2;;;;;;;;;;;;;817;;;;;;;;
1873.0;1768.4;;;;-0.18066789;0.90384305;0.22881702;;;;;;;;;;;;;;;
1873.0;1768.4;;;;-0.18228151;0.9057504;0.23144153;;;;;;;;;;;;;;;
1873.0;1768.4;;;;-0.18383409;0.9087144;0.2346268;;;;;;;;;;;;;;;
1873.0;1768.4;;;;-0.18532564;0.91259396;0.23853305;;;;;;;;;;;;;;;
1873.0;1768.4;;;;-0.18609239;0.91726696;0.24247363;;;;;;;;;;;;;;;
1873.0;1776.6;;;;;;;;;;37.86584;-14.5039215;-31.449326;;;;;;;;;
1873.0;1776.6;;;;;;;0.15466781;-0.957976;0.23438215;;;;;;;;;;;;
1873.0;1776.6;;;;;;;;;;38.52962;-5.7374797;-26.165808;;;;;;;;;
1873.0;1776.6;;;;;;;0.1539964;-0.95638907;0.2313303;;;;;;;;;;;;
1874.0;1778.5;;;;-0.18703462;0.9224092;0.2465134;;;;;;;;;;;;;;;
1874.0;1778.5;;;;-0.18708421;0.9287034;0.25063708;;;;;;;;;;;;;;;
1874.0;1778.5;;;;-0.18716814;0.9351922;0.25547794;;;;;;;;;;;;;;;
1874.0;1778.5;;;;-0.18729402;0.94191754;0.25970462;;;;;;;;;;;;;;;
1874.0;1778.5;;;;-0.18730928;0.9489633;0.2635117;;;;;;;;;;;;;;;
1874.0;1781.3;262143;262143;11807;;;;;;;;;;;;;;;;;;
1874.0;1785.0;;;;;;;;;;;;;;;;;-58.339947;34.203617;-88.290054;;1681.1
1874.0;1785.0;;;;;;;;;;;;;;0.8545183;0.31794184;0.037659843;;;;;1681.1
1874.0;1785.0;;;;;;;;;;;;;;;;;-58.980835;33.82977;-87.29057;;1681.1
1874.0;1785.0;;;;;;;;;;;;;;0.8395642;0.32715842;0.028199103;;;;;1681.1
1874.0;1785.0;;;;;;;;;;;;;;;;;-60.140537;34.875027;-85.53194;;1690.8
1874.0;1785.0;;;;;;;;;;;;;;0.81258583;0.33960998;0.036133915;;;;;1690.8
1874.0;1785.0;;;;;;;;;;;;;;;;;-62.261574;37.48436;-83.910645;;1690.8
1874.0;1785.0;;;;;;;;;;;;;;0.7948851;0.33741266;0.07513657;;;;;1690.8
1874.0;1785.0;;;;;;;;;;;;;;;;;-64.08124;39.52147;-81.99179;;1700.4
1874.0;1785.0;;;;;;;;;;;;;;0.7762688;0.33588672;0.109866634;;;;;1700.4
1874.0;1785.0;;;;;;;;;;;;;;;;;-65.64532;40.608692;-80.488754;;1700.4
1874.0;1785.0;;;;;;;;;;;;;;0.7635731;0.33320108;0.13476974;;;;;1700.4
1876.0;1785.8;;;;;;;;;;;;;;;;;-66.66769;40.833767;-79.802086;;1710.0
1876.0;1785.8;;;;;;;;;;;;;;0.75283056;0.32966095;0.15057832;;;;;1710.0
1876.0;1785.8;;;;;;;;;;;;;;;;;-65.2562;38.76614;-78.6996;;1710.0
1876.0;1785.8;;;;;;;;;;;;;;0.73342085;0.33265176;0.15033418;;;;;1710.0
1876.0;1785.8;;;;;;;;;;;;;;;;;-61.590168;34.413433;-77.57424;;1719.7
1876.0;1785.8;;;;;;;;;;;;;;0.7140721;0.316599;0.13574633;;;;;1719.7
1876.0;1785.8;;;;;;;;;;;;;;;;;-56.3448;27.779472;-76.300095;;1719.7
1876.0;1785.8;;;;;;;;;;;;;;0.72115237;0.30243844;0.09375286;;;;;1719.7
1876.0;1785.8;;;;;;;;;;;;;;;;;-51.93487;23.445845;-75.09461;;1729.3
1876.0;1785.8;;;;;;;;;;;;;;0.7295145;0.29255044;0.0756859;;;;;1729.3
1876.0;1785.8;;;;;;;;;;;;;;;;;-47.81106;20.077364;-73.64117;;1729.3
1876.0;1785.8;;;;;;;;;;;;;;0.7415998;0.29291666;0.06427198;;;;;1729.3
1876.0;1786.0;;;;;;;;;;38.58684;-5.1118503;-26.749474;;;;;;;;;
1876.0;1786.0;;;;;;;0.15314189;-0.9560228;0.23108615;;;;;;;;;;;;
1876.0;1786.0;;;;;;;;;;38.54488;-4.7875915;-27.52388;;;;;;;;;
1876.0;1786.0;;;;;;;0.1523484;-0.959685;0.23035371;;;;;;;;;;;;
1876.0;1788.4;;;;-0.18795016;0.9557954;0.26744464;;;;;;;;;;;;;;;
1876.0;1788.4;;;;-0.18846515;0.96239865;0.2709656;;;;;;;;;;;;;;;
1876.0;1788.4;;;;-0.1892815;0.9686967;0.2739983;;;;;;;;;;;;;;;
1876.0;1788.4;;;;-0.19093326;0.97410595;0.27713016;;;;;;;;;;;;;;;
1876.0;1788.4;;;;-0.19155124;0.9789735;0.280098;;;;;;;;;;;;;;;
1876.0;1795.6;;;;;;;;;;38.52199;-4.2687764;-28.206732;;;;;;;;;
1876.0;1795.6;;;;;;;0.15021211;-0.9609058;0.22748497;;;;;;;;;;;;
1876.0;1795.6;;;;;;;;;;38.460953;-3.5897398;-28.817102;;;;;;;;;
1876.0;1795.6;;;;;;;0.15094455;-0.9620045;0.22394483;;;;;;;;;;;;
1930.0;1798.5;;;;-0.19265369;0.9833261;0.28298572;;;;;;;;;;;;;;;
1930.0;1798.5;;;;-0.19358829;0.9872743;0.28592685;;;;;;;;;;;;;;;
1930.0;1798.5;;;;-0.19428256;0.9898187;0.2889748;;;;;;;;;;;;;;;
1930.0;1798.5;;;;-0.19513324;0.99222195;0.2918816;;;;;;;;;;;;;;;
1930.0;1798.5;;;;-0.1957474;0.99416745;0.29402545;;;;;;;;;;;;;;;
1930.0;1801.2;262143;262143;11797;;;;;;;;;;;;;;;;;;
1930.0;1805.1;;;;;;;;;;38.38084;-2.7695546;-29.442732;;;;;;;;;
1930.0;1805.1;;;;;;;0.15204321;-0.9640187;0.22156438;;;;;;;;;;;;
1930.0;1805.1;;;;;;;;;;38.28166;-1.9302957;-30.140842;;;;;;;;;
1930.0;1805.1;;;;;;;0.1530198;-0.9625538;0.21826838;;;;;;;;;;;;
1930.0;1807.4;;;;;;;;;;;;;994;;;;;;;;
1930.0;1807.4;;;;;;;;;;;;;1135;;;;;;;;
1930.0;1807.4;;;;;;;;;;;;;1386;;;;;;;;
1930.0;1807.4;;;;;;;;;;;;;1324;;;;;;;;
1930.0;1807.4;;;;;;;;;;;;;697;;;;;;;;
1930.0;1808.5;;;;-0.19541934;0.9958116;0.29597858;;;;;;;;;;;;;;;
1930.0;1808.5;;;;-0.19526675;0.99705136;0.2975159;;;;;;;;;;;;;;;
1930.0;1808.5;;;;-0.1945534;0.9980928;0.29866794;;;;;;;;;;;;;;;
1930.0;1808.5;;;;-0.19347003;0.9989625;0.29950336;;;;;;;;;;;;;;;
1930.0;1808.5;;;;-0.19226459;1.0002176;0.30002597;;;;;;;;;;;;;;;
1930.0;1814.4;;;;;;;;;;38.11762;-1.12537;-30.835138;;;;;;;;;
1930.0;1814.4;;;;;;;0.15442365;-0.9625538;0.21369061;;;;;;;;;;;;
1930.0;1814.4;;;;;;;;;;37.854397;-0.40055543;-31.376842;;;;;;;;;
1930.0;1814.4;;;;;;;0.15405744;-0.9641408;0.21143223;;;;;;;;;;;;
1932.0;1818.2;;;;-0.19174579;1.0013124;0.29991916;;;;;;;;;;;;;;;
1932.0;1818.2;;;;-0.19087222;1.0024225;0.2993813;;;;;;;;;;;;;;;
1932.0;1818.2;;;;-0.1902695;1.0036088;0.2986565;;;;;;;;;;;;;;;
1932.0;1818.2;;;;-0.19004062;1.0051614;0.2973595;;;;;;;;;;;;;;;
1932.0;1818.2;;;;-0.18992999;1.0067674;0.29560474;;;;;;;;;;;;;;;
1932.0;1821.1;262143;262143;11803;;;;;;;;;;;;;;;;;;
1932.0;1824.0;;;;;;;;;;37.591175;0.42725915;-31.815548;;;;;;;;;
1932.0;1824.0;;;;;;;0.15308085;-0.9646901;0.20856349;;;;;;;;;;;;
1932.0;1824.0;;;;;;;;;;37.362286;1.22837;-32.132175;;;;;;;;;
1932.0;1824.0;;;;;;;0.15222633;-0.9643239;0.20557268;;;;;;;;;;;;
1932.0;1828.3;;;;-0.1905022;1.0081865;0.29331592;;;;;;;;;;;;;;;
1932.0;1828.3;;;;-0.19159701;1.0096132;0.29049686;;;;;;;;;;;;;;;
1932.0;1828.3;;;;-0.19316104;1.0114709;0.287941;;;;;;;;;;;;;;;
1932.0;1828.3;;;;-0.19552615;1.0133706;0.28600314;;;;;;;;;;;;;;;
1932.0;1828.3;;;;-0.197876;1.0149461;0.28361514;;;;;;;;;;;;;;;
1932.0;1833.6;;;;;;;;;;37.045654;2.231666;-32.322918;;;;;;;;;
1932.0;1833.6;;;;;;;0.15271463;-0.9640187;0.20355846;;;;;;;;;;;;
1932.0;1833.6;;;;;;;;;;36.774803;3.460036;-32.532734;;;;;;;;;
1932.0;1833.6;;;;;;;0.1525315;-0.9643849;0.20239876;;;;;;;;;;;;
1934.0;1838.4;;;;-0.19985965;1.0168535;0.2810364;;;;;;;;;;;;;;;
1934.0;1838.4;;;;-0.20145419;1.0181237;0.27873996;;;;;;;;;;;;;;;
1934.0;1838.4;;;;-0.20343402;1.0198823;0.27629092;;;;;;;;;;;;;;;
1934.0;1838.4;;;;-0.20506671;1.0210077;0.274128;;;;;;;;;;;;;;;
1934.0;1838.4;;;;-0.20567706;1.0225946;0.2733269;;;;;;;;;;;;;;;
1934.0;1841.4;262143;262143;11815;;;;;;;;;;;;;;;;;;
1934.0;1843.3;;;;;;;;;;36.473434;4.4938507;-32.74636;;;;;;;;;
1934.0;1843.3;;;;;;;0.1528367;-0.96383554;0.20087282;;;;;;;;;;;;
1934.0;1843.3;;;;;;;;;;36.160618;5.500962;-32.952362;;;;;;;;;
1934.0;1843.3;;;;;;;0.1507004;-0.9635914;0.20410779;;;;;;;;;;;;
1934.0;1845.6;;;;;;;;;;;;;;;;;-44.534134;17.49855;-72.11905;;1739.0
1934.0;1845.6;;;;;;;;;;;;;;0.74794763;0.29255044;0.057863094;;;;;1739.0
1934.0;1845.6;;;;;;;;;;;;;;;;;-41.82562;16.541033;-70.47487;;1739.0
1934.0;1845.6;;;;;;;;;;;;;;0.74306464;0.29114658;0.07550279;;;;;1739.0
1934.0;1845.6;;;;;;;;;;;;;;;;;-39.345985;16.018402;-68.63231;;1748.6
1934.0;1845.6;;;;;;;;;;;;;;0.74599445;0.28119755;0.1015656;;;;;1748.6
1934.0;1845.6;;;;;;;;;;;;;;;;;-36.576435;15.968811;-66.625725;;1748.6
1934.0;1845.6;;;;;;;;;;;;;;0.73610646;0.26325268;0.13605152;;;;;1748.6
1934.0;1845.6;;;;;;;;;;;;;;;;;-32.734917;15.629292;-64.34065;;1758.2
1934.0;1845.6;;;;;;;;;;;;;;0.7195654;0.2529374;0.17670217;;;;;1758.2
1934.0;1845.6;;;;;;;;;;;;;;;;;-28.313547;13.794366;-62.15476;;1758.2
1934.0;1845.6;;;;;;;;;;;;;;0.70961636;0.24347667;0.20050661;;;;;1758.2
1935.0;1846.4;;;;;;;;;;;;;;;;;-24.433882;11.074404;-60.758537;;1768.0
1935.0;1846.4;;;;;;;;;;;;;;0.7063204;0.23877682;0.18292795;;;;;1768.0
1935.0;1846.4;;;;;;;;;;;;;;;;;-23.201696;8.827478;-60.220646;;1768.0
1935.0;1846.4;;;;;;;;;;;;;;0.7096774;0.24329355;0.14606158;;;;;1768.0
1935.0;1846.4;;;;;;;;;;;;;;;;;-24.529253;8.079776;-60.46098;;1777.7
1935.0;1846.4;;;;;;;;;;;;;;0.71266824;0.26111636;0.12042604;;;;;1777.7
1935.0;1846.4;;;;;;;;;;;;;;;;;-24.929806;8.350628;-60.510574;;1777.7
1935.0;1846.4;;;;;;;;;;;;;;0.70229197;0.28022096;0.11389508;;;;;1777.7
1935.0;1846.4;;;;;;;;;;;;;;;;;-23.36192;8.606219;-60.178684;;1787.4
1935.0;1846.4;;;;;;;;;;;;;;0.69576097;0.30677205;0.11993774;;;;;1787.4
1935.0;1846.4;;;;;;;;;;;;;;;;;-21.881773;9.10596;-59.091465;;1787.4
1935.0;1846.4;;;;;;;;;;;;;;0.69716483;0.34827724;0.122989595;;;;;1787.4
1935.0;1847.5;;;;;;;;;;;;;61;;;;;;;;
1935.0;1847.5;;;;;;;;;;;;;-127;;;;;;;;
1935.0;1847.5;;;;;;;;;;;;;-160;;;;;;;;
1935.0;1847.5;;;;;;;;;;;;;-209;;;;;;;;
1935.0;1847.5;;;;;;;;;;;;;-251;;;;;;;;
1935.0;1848.4;;;;-0.20650104;1.0236245;0.27217105;;;;;;;;;;;;;;;
1935.0;1848.4;;;;-0.20576862;1.024727;0.2707596;;;;;;;;;;;;;;;
1935.0;1848.4;;;;-0.20470813;1.0256501;0.26913455;;;;;;;;;;;;;;;
1935.0;1848.4;;;;-0.20375445;1.0262376;0.2671738;;;;;;;;;;;;;;;
1935.0;1848.4;;;;-0.20310596;1.0267106;0.26543048;;;;;;;;;;;;;;;
1935.0;1852.7;;;;;;;;;;35.943172;6.4737387;-33.10877;;;;;;;;;
1935.0;1852.7;;;;;;;0.14941862;-0.9720756;0.20838039;;;;;;;;;;;;
1935.0;1852.7;;;;;;;;;;35.760063;7.4198127;-33.234657;;;;;;;;;
1935.0;1852.7;;;;;;;0.14685507;-0.98330635;0.21216469;;;;;;;;;;;;
1995.0;1858.5;;;;-0.20267108;1.0277597;0.26386264;;;;;;;;;;;;;;;
1995.0;1858.5;;;;-0.20326236;1.028782;0.26317218;;;;;;;;;;;;;;;
1995.0;1858.5;;;;-0.20375827;1.0294152;0.26316074;;;;;;;;;;;;;;;
1995.0;1858.5;;;;-0.20418933;1.0300561;0.26356128;;;;;;;;;;;;;;;
1995.0;1858.5;;;;-0.20422366;1.0305101;0.264576;;;;;;;;;;;;;;;
1995.0;1861.5;262143;262143;11819;;;;;;;;;;;;;;;;;;
1995.0;1862.4;;;;;;;;;;35.611286;8.335368;-33.4254;;;;;;;;;
1995.0;1862.4;;;;;;;0.14349803;-0.9955138;0.21405682;;;;;;;;;;;;
1995.0;1862.4;;;;;;;;;;35.477768;9.23185;-33.5284;;;;;;;;;
1995.0;1862.4;;;;;;;0.1413007;-1.0082095;0.21527757;;;;;;;;;;;;
1995.0;1868.6;;;;-0.20458987;1.0313722;0.266346;;;;;;;;;;;;;;;
1995.0;1868.6;;;;-0.2045708;1.0320588;0.26866916;;;;;;;;;;;;;;;
1995.0;1868.6;;;;-0.20522311;1.0325395;0.27093127;;;;;;;;;;;;;;;
1995.0;1868.6;;;;-0.20586017;1.0331956;0.27315906;;;;;;;;;;;;;;;
1995.0;1868.6;;;;-0.20708087;1.0332719;0.27570727;;;;;;;;;;;;;;;
1995.0;1871.7;;;;;;;;;;35.4091;9.968108;-33.562733;;;;;;;;;
1995.0;1871.7;;;;;;;0.13708915;-1.0241401;0.21210364;;;;;;;;;;;;
1995.0;1871.7;;;;;;;;;;35.348064;10.589923;-33.581806;;;;;;;;;
1995.0;1871.7;;;;;;;0.13183996;-1.0342723;0.21228676;;;;;;;;;;;;
1997.0;1878.2;;;;-0.20875934;1.0331575;0.27788547;;;;;;;;;;;;;;;
1997.0;1878.2;;;;-0.20970538;1.0326654;0.27962497;;;;;;;;;;;;;;;
1997.0;1878.2;;;;-0.2104607;1.0315057;0.28081134;;;;;;;;;;;;;;;
1997.0;1878.2;;;;-0.21078113;1.0301896;0.2814484;;;;;;;;;;;;;;;
1997.0;1878.2;;;;-0.21101001;1.0282289;0.28151706;;;;;;;;;;;;;;;
1997.0;1881.1;;;;;;;;;;35.267952;11.06296;-33.53603;;;;;;;;;
1997.0;1881.1;;;;;;;0.13049714;-1.038728;0.2103946;;;;;;;;;;;;
1997.0;1881.1;;;;;;;;;;35.260323;11.322367;-33.391068;;;;;;;;;
1997.0;1881.1;;;;;;;0.1276284;-1.0458083;0.20947905;;;;;;;;;;;;
1997.0;1881.3;262143;262143;11808;;;;;;;;;;;;;;;;;;
1997.0;1887.5;;;;;;;;;;;;;-433;;;;;;;;
1997.0;1887.5;;;;;;;;;;;;;-316;;;;;;;;
1997.0;1887.5;;;;;;;;;;;;;443;;;;;;;;
1997.0;1887.5;;;;;;;;;;;;;1061;;;;;;;;
1997.0;1887.5;;;;;;;;;;;;;839;;;;;;;;
1997.0;1888.3;;;;-0.21129611;1.0253717;0.2810631;;;;;;;;;;;;;;;
1997.0;1888.3;;;;-0.21268466;1.0228425;0.28092197;;;;;;;;;;;;;;;
1997.0;1888.3;;;;-0.21366885;1.0197221;0.28164294;;;;;;;;;;;;;;;
1997.0;1888.3;;;;-0.2145119;1.0161325;0.2811089;;;;;;;;;;;;;;;
1997.0;1888.3;;;;-0.21575168;1.0127946;0.2812424;;;;;;;;;;;;;;;
1997.0;1890.8;;;;;;;;;;35.134434;11.299478;-33.13547;;;;;;;;;
1997.0;1890.8;;;;;;;0.1241493;-1.0455031;0.20612201;;;;;;;;;;;;
1997.0;1890.8;;;;;;;;;;35.050507;11.26133;-32.78451;;;;;;;;;
1997.0;1890.8;;;;;;;0.123416856;-1.0450759;0.20490128;;;;;;;;;;;;
1998.0;1898.4;;;;-0.21643832;1.010151;0.28114703;;;;;;;;;;;;;;;
1998.0;1898.4;;;;-0.21678165;1.0070192;0.28133014;;;;;;;;;;;;;;;
1998.0;1898.4;;;;-0.21733859;1.0043374;0.28091815;;;;;;;;;;;;;;;
1998.0;1898.4;;;;-0.2179642;1.0018197;0.28104785;;;;;;;;;;;;;;;
1998.0;1898.4;;;;-0.2184296;0.99938595;0.28081515;;;;;;;;;;;;;;;
1998.0;1900.4;;;;;;;;;;34.859768;11.207922;-32.444992;;;;;;;;;
1998.0;1900.4;;;;;;;0.12152471;-1.0457473;0.1991638;;;;;;;;;;;;
1998.0;1900.4;;;;;;;;;;34.61562;10.998108;-32.109287;;;;;;;;;
1998.0;1900.4;;;;;;;0.12128056;-1.043672;0.19623402;;;;;;;;;;;;
1998.0;1901.6;262143;262143;11808;;;;;;;;;;;;;;;;;;
1998.0;1905.2;;;;;;;;;;;;;;;;;-20.050661;9.81933;-57.24128;;1796.9
1998.0;1905.2;;;;;;;;;;;;;;0.6800134;0.374279;0.15051728;;;;;1796.9
1998.0;1905.2;;;;;;;;;;;;;;;;;-18.040255;9.201331;-54.49843;;1796.9
1998.0;1905.2;;;;;;;;;;;;;;0.68453014;0.39283425;0.16205329;;;;;1796.9
1998.0;1905.2;;;;;;;;;;;;;;;;;-16.098515;9.353924;-51.49617;;1806.5
1998.0;1905.2;;;;;;;;;;;;;;0.67195654;0.40400404;0.17700736;;;;;1806.5
1998.0;1905.2;;;;;;;;;;;;;;;;;-14.706107;8.610034;-48.131504;;1806.5
1998.0;1905.2;;;;;;;;;;;;;;0.6682333;0.41755426;0.18494217;;;;;1806.5
1998.0;1905.2;;;;;;;;;;;;;;;;;-14.053774;7.694479;-44.46928;;1816.2
1998.0;1905.2;;;;;;;;;;;;;;0.6608478;0.4340953;0.20911282;;;;;1816.2
1998.0;1905.2;;;;;;;;;;;;;;;;;-14.187292;6.5843687;-40.635395;;1816.2
1998.0;1905.2;;;;;;;;;;;;;;0.65901667;0.43751335;0.22876675;;;;;1816.2
1999.0;1906.0;;;;;;;;;;;;;;;;;-15.02655;5.237739;-36.767174;;1825.8
1999.0;1906.0;;;;;;;;;;;;;;0.6659749;0.438612;0.22498246;;;;;1825.8
1999.0;1906.0;;;;;;;;;;;;;;;;;-16.518145;4.9172945;-32.937103;;1825.8
1999.0;1906.0;;;;;;;;;;;;;;0.66713464;0.4370861;0.21491134;;;;;1825.8
1999.0;1906.0;;;;;;;;;;;;;;;;;-18.383587;5.649739;-29.25962;;1835.4
1999.0;1906.0;;;;;;;;;;;;;;0.67177343;0.43537706;0.2202826;;;;;1835.4
1999.0;1906.0;;;;;;;;;;;;;;;;;-20.878475;6.8857384;-25.635548;;1835.4
1999.0;1906.0;;;;;;;;;;;;;;0.6763512;0.42963958;0.22980438;;;;;1835.4
1999.0;1906.0;;;;;;;;;;;;;;;;;-24.414808;7.698294;-22.644733;;1845.1
1999.0;1906.0;;;;;;;;;;;;;;0.687521;0.43720818;0.22864467;;;;;1845.1
1999.0;1906.0;;;;;;;;;;;;;;;;;-28.427992;8.003479;-20.081179;;1845.1
1999.0;1906.0;;;;;;;;;;;;;;0.70729697;0.44904935;0.21192053;;;;;1845.1
1999.0;1908.3;;;;-0.21897128;0.99749386;0.2810898;;;;;;;;;;;;;;;
1999.0;1908.3;;;;-0.21992877;0.9957353;0.28104404;;;;;;;;;;;;;;;
1999.0;1908.3;;;;-0.22047809;0.994259;0.2810631;;;;;;;;;;;;;;;
1999.0;1908.3;;;;-0.22077563;0.993065;0.28157428;;;;;;;;;;;;;;;
1999.0;1908.3;;;;-0.2216492;0.9919778;0.28166965;;;;;;;;;;;;;;;
1999.0;1909.8;;;;;;;;;;34.352394;10.662404;-31.685844;;;;;;;;;
1999.0;1909.8;;;;;;;0.12207404;-1.0418409;0.19299905;;;;;;;;;;;;
1999.0;1909.8;;;;;;;;;;34.03195;10.265663;-31.23188;;;;;;;;;
1999.0;1909.8;;;;;;;0.120975375;-1.0401318;0.19116795;;;;;;;;;;;;
2050.0;1918.4;;;;-0.22245792;0.99029934;0.28234866;;;;;;;;;;;;;;;
2050.0;1918.4;;;;-0.22376254;0.98892605;0.28311923;;;;;;;;;;;;;;;
2050.0;1918.4;;;;-0.22491458;0.98772824;0.2839432;;;;;;;;;;;;;;;
2050.0;1918.4;;;;-0.22615054;0.98664486;0.28527454;;;;;;;;;;;;;;;
2050.0;1918.4;;;;-0.2279549;0.98558056;0.2863274;;;;;;;;;;;;;;;
2050.0;1919.4;;;;;;;;;;33.669548;9.823145;-30.663471;;;;;;;;;
2050.0;1919.4;;;;;;;0.12079226;-1.0395215;0.18897061;;;;;;;;;;;;
2050.0;1919.4;;;;;;;;;;33.276623;9.392072;-30.121769;;;;;;;;;
2050.0;1919.4;;;;;;;0.119327374;-1.0381787;0.18744469;;;;;;;;;;;;
2050.0;1921.4;262143;262143;11804;;;;;;;;;;;;;;;;;;
2050.0;1927.6;;;;;;;;;;;;;385;;;;;;;;
2050.0;1927.6;;;;;;;;;;;;;936;;;;;;;;
2050.0;1927.6;;;;;;;;;;;;;1853;;;;;;;;
2050.0;1927.6;;;;;;;;;;;;;-1257;;;;;;;;
2050.0;1927.6;;;;;;;;;;;;;-10676;;;;;;;;
2050.0;1928.4;;;;-0.2295647;0.98454297;0.28715137;;;;;;;;;;;;;;;
2050.0;1928.4;;;;-0.23108295;0.9834558;0.28826144;;;;;;;;;;;;;;;
2050.0;1928.4;;;;-0.23320773;0.9828874;0.28972247;;;;;;;;;;;;;;;
2050.0;1928.4;;;;-0.23563007;0.98282254;0.29010394;;;;;;;;;;;;;;;
2050.0;1928.4;;;;-0.23638538;0.98238385;0.2898331;;;;;;;;;;;;;;;
2050.0;1928.8;;;;;;;;;;32.93329;8.919034;-29.549547;;;;;;;;;
2050.0;1928.8;;;;;;;0.11926634;-1.0351268;0.18622394;;;;;;;;;;;;
2050.0;1928.8;;;;;;;;;;32.528915;8.331553;-29.07651;;;;;;;;;
2050.0;1928.8;;;;;;;0.11780145;-1.0307322;0.18622394;;;;;;;;;;;;
2053.0;1938.1;;;;-0.23706058;0.98215115;0.2897568;;;;;;;;;;;;;;;
2053.0;1938.1;;;;-0.23868945;0.9829446;0.28977206;;;;;;;;;;;;;;;
2053.0;1938.1;;;;-0.24061587;0.98431027;0.28994754;;;;;;;;;;;;;;;
2053.0;1938.1;;;;-0.24216846;0.9858285;0.2894936;;;;;;;;;;;;;;;
2053.0;1938.1;;;;-0.24417117;0.98754895;0.28974918;;;;;;;;;;;;;;;
2053.0;1938.1;;;;;;;;;;32.07877;7.801294;-28.534807;;;;;;;;;
2053.0;1938.1;;;;;;;0.11749626;-1.0251167;0.18622394;;;;;;;;;;;;
2053.0;1938.1;;;;;;;;;;31.62099;7.152776;-28.077028;;;;;;;;;
2053.0;1938.1;;;;;;;0.11688589;-1.0199896;0.18604083;;;;;;;;;;;;
2053.0;1941.3;262143;262143;11801;;;;;;;;;;;;;;;;;;
2053.0;1947.8;;;;;;;;;;31.247139;6.5271463;-27.760399;;;;;;;;;
2053.0;1947.8;;;;;;;0.11725211;-1.0148625;0.18781091;;;;;;;;;;;;
2053.0;1947.8;;;;;;;;;;30.842768;5.8671837;-27.462843;;;;;;;;;
2053.0;1947.8;;;;;;;0.1142613;-1.0111393;0.18939787;;;;;;;;;;;;
2053.0;1948.3;;;;-0.24588016;0.98918164;0.29022983;;;;;;;;;;;;;;;
2053.0;1948.3;;;;-0.24690631;0.9914781;0.29100803;;;;;;;;;;;;;;;
2053.0;1948.3;;;;-0.24823001;0.99440014;0.29253772;;;;;;;;;;;;;;;
2053.0;1948.3;;;;-0.24851611;0.9977838;0.29343417;;;;;;;;;;;;;;;
2053.0;1948.3;;;;-0.24787143;1.0014802;0.29434207;;;;;;;;;;;;;;;
2053.0;1957.4;;;;;;;;;;30.449842;5.2072206;-27.203438;;;;;;;;;
2053.0;1957.4;;;;;;;0.11249123;-1.0058901;0.19037446;;;;;;;;;;;;
2053.0;1957.4;;;;;;;;;;29.946287;4.581591;-26.970734;;;;;;;;;
2053.0;1957.4;;;;;;;0.11133152;-0.99972534;0.19098483;;;;;;;;;;;;
2057.0;1958.4;;;;-0.24675372;1.0054017;0.29483035;;;;;;;;;;;;;;;
2057.0;1958.4;;;;-0.24583057;1.0098039;0.2943459;;;;;;;;;;;;;;;
2057.0;1958.4;;;;-0.2443352;1.0137254;0.29344943;;;;;;;;;;;;;;;
2057.0;1958.4;;;;-0.24335864;1.017975;0.2920647;;;;;;;;;;;;;;;
2057.0;1958.4;;;;-0.24287036;1.0222093;0.2910271;;;;;;;;;;;;;;;
2057.0;1961.6;262143;262143;11801;;;;;;;;;;;;;;;;;;
2057.0;1965.8;;;;;;;;;;;;;;;;;-32.45262;8.259072;-17.754143;;1854.7
2057.0;1965.8;;;;;;;;;;;;;;0.7182226;0.46583453;0.19037446;;;;;1854.7
2057.0;1965.8;;;;;;;;;;;;;;;;;-35.031433;9.384442;-15.991699;;1854.7
2057.0;1965.8;;;;;;;;;;;;;;0.7071749;0.48683128;0.17981505;;;;;1854.7
2057.0;1965.8;;;;;;;;;;;;;;;;;-34.508804;9.472182;-13.832514;;1864.4
2057.0;1965.8;;;;;;;;;;;;;;0.6807459;0.49336222;0.16534929;;;;;1864.4
2057.0;1965.8;;;;;;;;;;;;;;;;;-31.41499;7.1794796;-11.581775;;1864.4
2057.0;1965.8;;;;;;;;;;;;;;0.6568804;0.50032043;0.14758751;;;;;1864.4
2057.0;1965.8;;;;;;;;;;;;;;;;;-28.065584;3.6393323;-9.563738;;1874.0
2057.0;1965.8;;;;;;;;;;;;;;0.654622;0.5059969;0.1264687;;;;;1874.0
2057.0;1965.8;;;;;;;;;;;;;;;;;-25.318918;0.41199988;-7.78222;;1874.0
2057.0;1965.8;;;;;;;;;;;;;;0.6557207;0.5065462;0.11499374;;;;;1874.0
2059.0;1966.6;;;;;;;;;;;;;;;;;-22.621845;-1.5106663;-6.023591;;1883.6
2059.0;1966.6;;;;;;;;;;;;;;0.65681934;0.5060579;0.12884915;;;;;1883.6
2059.0;1966.6;;;;;;;;;;;;;;;;;-19.135107;-2.784814;-4.482406;;1883.6
2059.0;1966.6;;;;;;;;;;;;;;0.6443068;0.5036775;0.16034424;;;;;1883.6
2059.0;1966.6;;;;;;;;;;;;;;;;;-15.14481;-4.2115545;-3.2502213;;1893.2
2059.0;1966.6;;;;;;;;;;;;;;0.64082766;0.5056917;0.19995728;;;;;1893.2
2059.0;1966.6;;;;;;;;;;;;;;;;;-11.291848;-5.474258;-2.2011476;;1893.2
2059.0;1966.6;;;;;;;;;;;;;;0.6383862;0.50593585;0.24439223;;;;;1893.2
2059.0;1966.6;;;;;;;;;;;;;;;;;-8.4421835;-6.672109;-1.5259255;;1902.9
2059.0;1966.6;;;;;;;;;;;;;;0.63795894;0.5001373;0.2684408;;;;;1902.9
2059.0;1966.6;;;;;;;;;;;;;;;;;-7.1832943;-7.801294;-1.5488143;;1902.9
2059.0;1966.6;;;;;;;;;;;;;;0.64174324;0.5010529;0.2684408;;;;;1902.9
2059.0;1966.9;;;;;;;;;;29.469437;3.933073;-26.799067;;;;;;;;;
2059.0;1966.9;;;;;;;0.11102634;-0.99325544;0.19074069;;;;;;;;;;;;
2059.0;1966.9;;;;;;;;;;28.927732;3.360851;-26.600697;;;;;;;;;
2059.0;1966.9;;;;;;;0.11078219;-0.98641926;0.1906186;;;;;;;;;;;;
2059.0;1967.7;;;;;;;;;;;;;-19293;;;;;;;;
2059.0;1967.7;;;;;;;;;;;;;-17260;;;;;;;;
2059.0;1967.7;;;;;;;;;;;;;-4940;;;;;;;;
2059.0;1967.7;;;;;;;;;;;;;6644;;;;;;;;
2059.0;1967.7;;;;;;;;;;;;;8962;;;;;;;;
2059.0;1968.3;;;;-0.24226001;1.0257684;0.2897263;;;;;;;;;;;;;;;
2059.0;1968.3;;;;-0.24203494;1.0292665;0.2887726;;;;;;;;;;;;;;;
2059.0;1968.3;;;;-0.24189761;1.0328332;0.28759387;;;;;;;;;;;;;;;
2059.0;1968.3;;;;-0.24144366;1.0354806;0.28611758;;;;;;;;;;;;;;;
2059.0;1968.3;;;;-0.23980334;1.0374147;0.28498462;;;;;;;;;;;;;;;
2110.0;1976.5;;;;;;;;;;28.412733;2.7886288;-26.432844;;;;;;;;;
2110.0;1976.5;;;;;;;0.110721156;-0.9786065;0.19104587;;;;;;;;;;;;
2110.0;1976.5;;;;;;;;;;27.91299;2.273629;-26.276438;;;;;;;;;
2110.0;1976.5;;;;;;;0.111636706;-0.9690237;0.19220558;;;;;;;;;;;;
2110.0;1978.4;;;;-0.23823169;1.0387651;0.2838364;;;;;;;;;;;;;;;
2110.0;1978.4;;;;-0.23602298;1.0395967;0.28166583;;;;;;;;;;;;;;;
2110.0;1978.4;;;;-0.23395923;1.0394365;0.27983096;;;;;;;;;;;;;;;
2110.0;1978.4;;;;-0.23160556;1.0383645;0.27759174;;;;;;;;;;;;;;;
2110.0;1978.4;;;;-0.22939304;1.0366784;0.276516;;;;;;;;;;;;;;;
2110.0;1981.7;262143;262143;11802;;;;;;;;;;;;;;;;;;
2110.0;1986.1;;;;;;;;;;27.35603;1.842555;-26.108585;;;;;;;;;
2110.0;1986.1;;;;;;;0.112186044;-0.95864743;0.19177832;;;;;;;;;;;;
2110.0;1986.1;;;;;;;;;;26.684622;1.4610736;-25.955992;;;;;;;;;
2110.0;1986.1;;;;;;;0.114322335;-0.9441816;0.18939787;;;;;;;;;;;;
2110.0;1988.5;;;;-0.22724536;1.0344659;0.2751961;;;;;;;;;;;;;;;
2110.0;1988.5;;;;-0.2247658;1.0316163;0.2735863;;;;;;;;;;;;;;;
2110.0;1988.5;;;;-0.22179416;1.0288926;0.27172855;;;;;;;;;;;;;;;
2110.0;1988.5;;;;-0.21956256;1.0252076;0.26957706;;;;;;;;;;;;;;;
2110.0;1988.5;;;;-0.21757892;1.0215036;0.2687569;;;;;;;;;;;;;;;
2110.0;1995.4;;;;;;;;;;25.997955;1.12537;-25.727104;;;;;;;;;
2110.0;1995.4;;;;;;;0.11609241;-0.93197423;0.18836024;;;;;;;;;;;;
2110.0;1995.4;;;;;;;;;;25.246437;0.7515183;-25.50203;;;;;;;;;
2110.0;1995.4;;;;;;;0.11890011;-0.9169591;0.18774988;;;;;;;;;;;;
2114.0;1998.3;;;;-0.21597293;1.0177232;0.26768115;;;;;;;;;;;;;;;
2114.0;1998.3;;;;-0.21396258;1.0135461;0.26672366;;;;;;;;;;;;;;;
2114.0;1998.3;;;;-0.21185306;1.0090142;0.26568988;;;;;;;;;;;;;;;
2114.0;1998.3;;;;-0.20963672;1.0045968;0.2638779;;;;;;;;;;;;;;;
2114.0;1998.3;;;;-0.20740893;0.99922955;0.262764;;;;;;;;;;;;;;;
2114.0;2001.6;262143;262143;11795;;;;;;;;;;;;;;;;;;
2114.0;2005.0;;;;;;;;;;24.456772;0.3128147;-25.1854;;;;;;;;;
2114.0;2005.0;;;;;;;0.118533894;-0.9031037;0.18591876;;;;;;;;;;;;
2114.0;2005.0;;;;;;;;;;23.54503;0.045777764;-24.830622;;;;;;;;;
2114.0;2005.0;;;;;;;0.119083226;-0.8896756;0.18475905;;;;;;;;;;;;
2114.0;2007.8;;;;;;;;;;;;;4719;;;;;;;;
2114.0;2007.8;;;;;;;;;;;;;1499;;;;;;;;
2114.0;2007.8;;;;;;;;;;;;;1615;;;;;;;;
2114.0;2007.8;;;;;;;;;;;;;1831;;;;;;;;
2114.0;2007.8;;;;;;;;;;;;;821;;;;;;;;
2114.0;2008.4;;;;-0.2048569;0.99403775;0.26197055;;;;;;;;;;;;;;;
2114.0;2008.4;;;;-0.2022362;0.9885522;0.26047137;;;;;;;;;;;;;;;
2114.0;2008.4;;;;-0.19895938;0.9830476;0.25986865;;;;;;;;;;;;;;;
2114.0;2008.4;;;;-0.19762042;0.97667706;0.25849918;;;;;;;;;;;;;;;
2114.0;2008.4;;;;-0.19576266;0.97013867;0.25706866;;;;;;;;;;;;;;;
2114.0;2014.6;;;;;;;;;;22.495956;0.0076296274;-24.349957;;;;;;;;;
2114.0;2014.6;;;;;;;0.12048708;-0.8792993;0.1864681;;;;;;;;;;;;
2114.0;2014.6;;;;;;;;;;21.416365;0.14496292;-23.86929;;;;;;;;;
2114.0;2014.6;;;;;;;0.12274545;-0.8691061;0.1854915;;;;;;;;;;;;
2117.0;2018.5;;;;-0.19438556;0.9634973;0.25558475;;;;;;;;;;;;;;;
2117.0;2018.5;;;;-0.19326404;0.9569551;0.25468066;;;;;;;;;;;;;;;
2117.0;2018.5;;;;-0.1924744;0.95040524;0.25408557;;;;;;;;;;;;;;;
2117.0;2018.5;;;;-0.1917763;0.94401944;0.25367358;;;;;;;;;;;;;;;
2117.0;2018.5;;;;-0.19093707;0.93804944;0.2537842;;;;;;;;;;;;;;;
2117.0;2021.9;262143;262143;11807;;;;;;;;;;;;;;;;;;
2117.0;2024.2;;;;;;;;;;20.313883;0.19455549;-23.35429;;;;;;;;;
2117.0;2024.2;;;;;;;0.12103641;-0.85909605;0.18573564;;;;;;;;;;;;
2117.0;2024.2;;;;;;;;;;19.219032;0.15640736;-22.759178;;;;;;;;;
2117.0;2024.2;;;;;;;0.120975375;-0.85079503;0.18988617;;;;;;;;;;;;
2117.0;2025.6;;;;;;;;;;;;;;;;;-7.1718497;-8.365887;-2.067629;;1912.5
2117.0;2025.6;;;;;;;;;;;;;;0.6480911;0.5035554;0.24872585;;;;;1912.5
2117.0;2025.6;;;;;;;;;;;;;;;;;-7.5380716;-8.2819605;-2.8305917;;1912.5
2117.0;2025.6;;;;;;;;;;;;;;0.6465041;0.51258886;0.23310037;;;;;1912.5
2117.0;2025.6;;;;;;;;;;;;;;;;;-7.869961;-8.445998;-3.6812954;;1922.2
2117.0;2025.6;;;;;;;;;;;;;;0.64278084;0.52504045;0.23059785;;;;;1922.2
2117.0;2025.6;;;;;;;;;;;;;;;;;-7.2824793;-9.109776;-4.50148;;1922.2
2117.0;2025.6;;;;;;;;;;;;;;0.6440016;0.53743094;0.24127933;;;;;1922.2
2117.0;2025.6;;;;;;;;;;;;;;;;;-5.5810723;-9.998627;-5.069887;;1931.8
2117.0;2025.6;;;;;;;;;;;;;;0.64754176;0.5548265;0.2512894;;;;;1931.8
2117.0;2025.6;;;;;;;;;;;;;;;;;-3.3494065;-10.670034;-5.394147;;1931.8
2117.0;2025.6;;;;;;;;;;;;;;0.6461379;0.56740016;0.25702688;;;;;1931.8
2119.0;2026.3;;;;;;;;;;;;;;;;;-1.4038514;-11.650441;-5.7412944;;1941.4
2119.0;2026.3;;;;;;;;;;;;;;0.64729756;0.57765436;0.25037384;;;;;1941.4
2119.0;2026.3;;;;;;;;;;;;;;;;;-0.17166662;-12.062441;-5.5734425;;1941.4
2119.0;2026.3;;;;;;;;;;;;;;0.6465041;0.57924134;0.24897;;;;;1941.4
2119.0;2026.3;;;;;;;;;;;;;;;;;0.23270364;-11.837367;-4.757073;;1951.0
2119.0;2026.3;;;;;;;;;;;;;;0.64064455;0.58308667;0.2563555;;;;;1951.0
2119.0;2026.3;;;;;;;;;;;;;;;;;0.17548142;-11.036257;-3.563036;;1951.0
2119.0;2026.3;;;;;;;;;;;;;;0.62910855;0.5760674;0.27863398;;;;;1951.0
2119.0;2026.3;;;;;;;;;;;;;;;;;-0.23651844;-9.9147005;-1.8692588;;1960.7
2119.0;2026.3;;;;;;;;;;;;;;0.6158635;0.56807154;0.29779962;;;;;1960.7
2119.0;2026.3;;;;;;;;;;;;;;;;;-1.5640736;-8.762627;0.27085176;;1960.7
2119.0;2026.3;;;;;;;;;;;;;;0.6049379;0.5593432;0.2995697;;;;;1960.7
2119.0;2028.4;;;;-0.19094089;0.93188107;0.2539139;;;;;;;;;;;;;;;
2119.0;2028.4;;;;-0.18978885;0.92611706;0.25498965;;;;;;;;;;;;;;;
2119.0;2028.4;;;;-0.18883136;0.9205667;0.255909;;;;;;;;;;;;;;;
2119.0;2028.4;;;;-0.19005206;0.9153787;0.2578583;;;;;;;;;;;;;;;
2119.0;2028.4;;;;-0.19115451;0.9101449;0.2598839;;;;;;;;;;;;;;;
2119.0;2033.6;;;;;;;;;;18.066957;0.24796289;-22.015291;;;;;;;;;
2119.0;2033.6;;;;;;;0.11841182;-0.842616;0.19220558;;;;;;;;;;;;
2119.0;2033.6;;;;;;;;;;16.90344;0.3128147;-21.156958;;;;;;;;;
2119.0;2033.6;;;;;;;0.1175573;-0.83639026;0.1953795;;;;;;;;;;;;
2174.0;2038.5;;;;-0.1857834;0.90410244;0.26171878;;;;;;;;;;;;;;;
2174.0;2038.5;;;;-0.18377306;0.89876187;0.26259235;;;;;;;;;;;;;;;
2174.0;2038.5;;;;-0.183136;0.8953897;0.26453784;;;;;;;;;;;;;;;
2174.0;2038.5;;;;-0.18162538;0.89089215;0.2656937;;;;;;;;;;;;;;;
2174.0;2038.5;;;;-0.18095018;0.88601315;0.26660922;;;;;;;;;;;;;;;
2174.0;2041.8;262143;262143;11798;;;;;;;;;;;;;;;;;;
2174.0;2043.1;;;;;;;;;;15.743736;0.3929258;-20.25666;;;;;;;;;
2174.0;2043.1;;;;;;;0.11578722;-0.8323008;0.1975158;;;;;;;;;;;;
2174.0;2043.1;;;;;;;;;;14.446699;0.51118505;-19.253365;;;;;;;;;
2174.0;2043.1;;;;;;;0.11633656;-0.82662433;0.20001832;;;;;;;;;;;;
2174.0;2047.9;;;;;;;;;;;;;310;;;;;;;;
2174.0;2047.9;;;;;;;;;;;;;668;;;;;;;;
2174.0;2047.9;;;;;;;;;;;;;1037;;;;;;;;
2174.0;2047.9;;;;;;;;;;;;;900;;;;;;;;
2174.0;2047.9;;;;;;;;;;;;;541;;;;;;;;
2174.0;2048.4;;;;-0.18280412;0.88082516;0.2676697;;;;;;;;;;;;;;;
2174.0;2048.4;;;;-0.18468477;0.87622464;0.26801684;;;;;;;;;;;;;;;
2174.0;2048.4;;;;-0.18640901;0.8716737;0.26845935;;;;;;;;;;;;;;;
2174.0;2048.4;;;;-0.1880875;0.86654294;0.26824573;;;;;;;;;;;;;;;
2174.0;2048.4;;;;-0.1898041;0.8616525;0.26835635;;;;;;;;;;;;;;;
2174.0;2052.5;;;;;;;;;;13.222144;0.5378887;-18.112736;;;;;;;;;
2174.0;2052.5;;;;;;;0.11481063;-0.82345045;0.20191047;;;;;;;;;;;;
2174.0;2052.5;;;;;;;;;;12.024293;0.6599628;-16.876738;;;;;;;;;
2174.0;2052.5;;;;;;;0.11481063;-0.8224128;0.20496231;;;;;;;;;;;;
2176.0;2058.1;;;;-0.19045642;0.8577043;0.26849368;;;;;;;;;;;;;;;
2176.0;2058.1;;;;-0.19097522;0.85353863;0.26866916;;;;;;;;;;;;;;;
2176.0;2058.1;;;;-0.19177249;0.8493806;0.26795962;;;;;;;;;;;;;;;
2176.0;2058.1;;;;-0.19257739;0.8460046;0.26781467;;;;;;;;;;;;;;;
2176.0;2058.1;;;;-0.1937218;0.84215176;0.26713184;;;;;;;;;;;;;;;
2176.0;2061.9;;;;;;;;;;10.906552;0.7477035;-15.507217;;;;;;;;;
2176.0;2061.9;;;;;;;0.11456648;-0.81905574;0.20801416;;;;;;;;;;;;
2176.0;2061.9;;;;;;;;;;9.63622;0.6256294;-14.061403;;;;;;;;;
2176.0;2061.9;;;;;;;0.11181982;-0.82235175;0.20954008;;;;;;;;;;;;
2176.0;2061.6;262143;262143;11786;;;;;;;;;;;;;;;;;;
2176.0;2068.2;;;;-0.19451907;0.83890164;0.26697925;;;;;;;;;;;;;;;
2176.0;2068.2;;;;-0.19497302;0.8361436;0.2664757;;;;;;;;;;;;;;;
2176.0;2068.2;;;;-0.19578937;0.83345807;0.265873;;;;;;;;;;;;;;;
2176.0;2068.2;;;;-0.19630817;0.83090985;0.26526645;;;;;;;;;;;;;;;
2176.0;2068.2;;;;-0.19700244;0.82849514;0.2642403;;;;;;;;;;;;;;;
2176.0;2071.5;;;;;;;;;;8.419294;0.6981109;-12.459181;;;;;;;;;
2176.0;2071.5;;;;;;;0.11169775;-0.8253426;0.2097232;;;;;;;;;;;;
2176.0;2071.5;;;;;;;;;;7.209998;0.79348123;-10.776849;;;;;;;;;
2176.0;2071.5;;;;;;;0.11249123;-0.8298593;0.21362957;;;;;;;;;;;;
2177.0;2078.3;;;;-0.1970711;0.826748;0.26238635;;;;;;;;;;;;;;;
2177.0;2078.3;;;;-0.19700626;0.8254968;0.26114276;;;;;;;;;;;;;;;
2177.0;2078.3;;;;-0.19742206;0.82426083;0.2594147;;;;;;;;;;;;;;;
2177.0;2078.3;;;;-0.19778064;0.8231431;0.2581177;;;;;;;;;;;;;;;
2177.0;2078.3;;;;-0.19820026;0.8228036;0.25601962;;;;;;;;;;;;;;;
2177.0;2081.2;;;;;;;;;;6.000702;0.73625904;-8.991516;;;;;;;;;
2177.0;2081.2;;;;;;;0.11175878;-0.8339488;0.21576586;;;;;;;;;;;;
2177.0;2081.2;;;;;;;;;;4.730369;0.6218146;-7.019257;;;;;;;;;
2177.0;2081.2;;;;;;;0.11114841;-0.8379162;0.21704765;;;;;;;;;;;;
2177.0;2081.9;262143;262143;11789;;;;;;;;;;;;;;;;;;
2177.0;2085.6;;;;;;;;;;;;;;;;;-3.9788508;-7.9729605;2.5254066;;1970.3
2177.0;2085.6;;;;;;;;;;;;;;0.5955382;0.5547044;0.27625355;;;;;1970.3
2177.0;2085.6;;;;;;;;;;;;;;;;;-7.312998;-7.106998;4.7837768;;1970.3
2177.0;2085.6;;;;;;;;;;;;;;0.5960875;0.5565966;0.25916317;;;;;1970.3
2177.0;2085.6;;;;;;;;;;;;;;;;;-11.112552;-5.7374797;7.045961;;1980.0
2177.0;2085.6;;;;;;;;;;;;;;0.5978576;0.5597705;0.25562304;;;;;1980.0
2177.0;2085.6;;;;;;;;;;;;;;;;;-14.900662;-5.043184;9.323405;;1980.0
2177.0;2085.6;;;;;;;;;;;;;;0.6120792;0.56929225;0.24768822;;;;;1980.0
2177.0;2085.6;;;;;;;;;;;;;;;;;-17.559587;-5.226295;11.555071;;1989.6
2177.0;2085.6;;;;;;;;;;;;;;0.6292306;0.5879696;0.22070986;;;;;1989.6
2177.0;2085.6;;;;;;;;;;;;;;;;;-18.612476;-5.550554;14.015625;;1989.6
2177.0;2085.6;;;;;;;;;;;;;;0.63502914;0.6061586;0.20160528;;;;;1989.6
2184.0;2086.8;;;;;;;;;;;;;;;;;-18.829922;-5.405591;16.270182;;1999.2
2184.0;2086.8;;;;;;;;;;;;;;0.6283151;0.61488694;0.18848231;;;;;1999.2
2184.0;2086.8;;;;;;;;;;;;;;;;;-17.525253;-5.5734425;18.280588;;1999.2
2184.0;2086.8;;;;;;;;;;;;;;0.5978576;0.61903745;0.17688528;;;;;1999.2
2184.0;2086.8;;;;;;;;;;;;;;;;;-14.931181;-7.927183;20.268105;;2008.8
2184.0;2086.8;;;;;;;;;;;;;;0.5698416;0.61708426;0.15771966;;;;;2008.8
2184.0;2086.8;;;;;;;;;;;;;;;;;-12.432477;-11.032442;22.282326;;2008.8
2184.0;2086.8;;;;;;;;;;;;;;0.5488449;0.6103091;0.15619373;;;;;2008.8
2184.0;2086.8;;;;;;;;;;;;;;;;;-10.887479;-14.042329;24.254585;;2018.5
2184.0;2086.8;;;;;;;;;;;;;;0.5390179;0.59401226;0.16473891;;;;;2018.5
2184.0;2086.8;;;;;;;;;;;;;;;;;-10.536515;-16.441847;26.039919;;2018.5
2184.0;2086.8;;;;;;;;;;;;;;0.53871274;0.57783747;0.17023225;;;;;2018.5
2184.0;2087.9;;;;;;;;;;;;;381;;;;;;;;
2184.0;2087.9;;;;;;;;;;;;;45;;;;;;;;
2184.0;2087.9;;;;;;;;;;;;;-707;;;;;;;;
2184.0;2087.9;;;;;;;;;;;;;-1458;;;;;;;;
2184.0;2087.9;;;;;;;;;;;;;-1739;;;;;;;;
2184.0;2088.3;;;;-0.19927981;0.82244885;0.25356296;;;;;;;;;;;;;;;
2184.0;2088.3;;;;-0.19970706;0.82242215;0.25078967;;;;;;;;;;;;;;;
2184.0;2088.3;;;;-0.20011142;0.8228723;0.248745;;;;;;;;;;;;;;;
2184.0;2088.3;;;;-0.20130542;0.8229257;0.24605182;;;;;;;;;;;;;;;
2184.0;2088.3;;;;-0.20142749;0.8236009;0.24337009;;;;;;;;;;;;;;;
2184.0;2090.7;;;;;;;;;;3.5325174;0.44251838;-4.951628;;;;;;;;;
2184.0;2090.7;;;;;;;0.109622486;-0.8385876;0.21723075;;;;;;;;;;;;
2184.0;2090.7;;;;;;;;;;2.3804438;0.3624073;-2.826777;;;;;;;;;
2184.0;2090.7;;;;;;;0.109866634;-0.84054077;0.22034363;;;;;;;;;;;;
2186.0;2098.4;;;;-0.20131686;0.82423794;0.24021152;;;;;;;;;;;;;;;
2186.0;2098.4;;;;-0.20120624;0.82548153;0.23727801;;;;;;;;;;;;;;;
2186.0;2098.4;;;;-0.20088199;0.8266679;0.2347031;;;;;;;;;;;;;;;
2186.0;2098.4;;;;-0.20089343;0.8283273;0.23156741;;;;;;;;;;;;;;;
2186.0;2098.4;;;;-0.20116809;0.8299676;0.22888568;;;;;;;;;;;;;;;
2186.0;2100.3;;;;;;;;;;1.083407;0.20981476;-0.6408887;;;;;;;;;
2186.0;2100.3;;;;;;;0.11127049;-0.84035766;0.22046572;;;;;;;;;;;;
2186.0;2100.3;;;;;;;;;;-0.16022217;-0.045777764;1.575518;;;;;;;;;
2186.0;2100.3;;;;;;;0.11200293;-0.8430433;0.22327341;;;;;;;;;;;;
2186.0;2100.5;;;;;;;;;;;;;;;;;-11.581775;-17.223883;27.512436;;2028.2
2186.0;2100.5;;;;;;;;;;;;;;0.53956723;0.5663625;0.17835017;;;;;2028.2
2186.0;2100.5;;;;;;;;;;;;;;;;;-13.245033;-17.208624;28.47377;;2028.2
2186.0;2100.5;;;;;;;;;;;;;;0.5437788;0.5641652;0.19733268;;;;;2028.2
2186.0;2100.5;;;;;;;;;;;;;;;;;-14.912107;-17.28492;28.904844;;2037.8
2186.0;2100.5;;;;;;;;;;;;;;0.55903804;0.5658132;0.21784112;;;;;2037.8
2186.0;2100.5;;;;;;;;;;;;;;;;;-16.28544;-18.01355;28.714102;;2037.8
2186.0;2100.5;;;;;;;;;;;;;;0.58229315;0.5727714;0.23523667;;;;;2037.8
2186.0;2100.5;;;;;;;;;;;;;;;;;-16.930143;-19.253365;28.015991;;2047.4
2186.0;2100.5;;;;;;;;;;;;;;0.60878325;0.5851619;0.24768822;;;;;2047.4
2186.0;2100.5;;;;;;;;;;;;;;;;;-16.388441;-20.588549;26.65029;;2047.4
2186.0;2100.5;;;;;;;;;;;;;;0.64424574;0.6068911;0.23761712;;;;;2047.4
2186.0;2101.8;262143;262143;11793;;;;;;;;;;;;;;;;;;
2231.0;2108.3;;;;-0.20129016;0.8319284;0.22655109;;;;;;;;;;;;;;;
2231.0;2108.3;;;;-0.20060351;0.8346292;0.22453311;;;;;;;;;;;;;;;
2231.0;2108.3;;;;-0.2005234;0.8377267;0.22135547;;;;;;;;;;;;;;;
2231.0;2108.3;;;;-0.20038989;0.84072125;0.2180138;;;;;;;;;;;;;;;
2231.0;2108.3;;;;-0.20051196;0.84435284;0.21490481;;;;;;;;;;;;;;;
2231.0;2109.7;;;;;;;;;;-1.3580737;-0.3089999;3.8186285;;;;;;;;;
2231.0;2109.7;;;;;;;0.11322367;-0.84542376;0.22540972;;;;;;;;;;;;
2231.0;2109.7;;;;;;;;;;-2.582629;-0.5378887;5.981628;;;;;;;;;
2231.0;2109.7;;;;;;;0.11456648;-0.85079503;0.22791223;;;;;;;;;;;;
2231.0;2117.9;;;;-0.20064929;0.84808743;0.21219257;;;;;;;;;;;;;;;
2231.0;2117.9;;;;-0.20092776;0.8519021;0.21060565;;;;;;;;;;;;;;;
2231.0;2117.9;;;;-0.20204547;0.85624707;0.20898059;;;;;;;;;;;;;;;
2231.0;2117.9;;;;-0.20235828;0.86086667;0.20797732;;;;;;;;;;;;;;;
2231.0;2117.9;;;;-0.20266727;0.86545956;0.20727542;;;;;;;;;;;;;;;
2231.0;2118.8;;;;;;;;;;-3.78811;-0.6866665;8.125553;;;;;;;;;
2231.0;2118.8;;;;;;;0.115421005;-0.85494554;0.23316142;;;;;;;;;;;;
2231.0;2118.8;;;;;;;;;;-4.9249244;-0.7095553;10.216071;;;;;;;;;
2231.0;2118.8;;;;;;;0.11627552;-0.8616596;0.23969238;;;;;;;;;;;;
2231.0;2121.5;262143;262143;11781;;;;;;;;;;;;;;;;;;
2231.0;2127.6;;;;;;;;;;;;;-1895;;;;;;;;
2231.0;2127.6;;;;;;;;;;;;;-2924;;;;;;;;
2231.0;2127.6;;;;;;;;;;;;;-4605;;;;;;;;
2231.0;2127.6;;;;;;;;;;;;;-5629;;;;;;;;
2231.0;2127.6;;;;;;;;;;;;;-5769;;;;;;;;
2232.0;2128.0;;;;-0.2031441;0.8698617;0.20587543;;;;;;;;;;;;;;;
2232.0;2128.0;;;;-0.20390704;0.874714;0.20450214;;;;;;;;;;;;;;;
2232.0;2128.0;;;;-0.20394138;0.8787576;0.20336917;;;;;;;;;;;;;;;
2232.0;2128.0;;;;-0.20478061;0.8826448;0.20098498;;;;;;;;;;;;;;;
2232.0;2128.0;;;;-0.20550922;0.8867341;0.19908908;;;;;;;;;;;;;;;
2232.0;2128.4;;;;;;;;;;-6.0197763;-0.9155553;12.356182;;;;;;;;;
2232.0;2128.4;;;;;;;0.11749626;-0.865627;0.2417066;;;;;;;;;;;;
2232.0;2128.4;;;;;;;;;;-7.0307016;-1.3122959;14.412366;;;;;;;;;
2232.0;2128.4;;;;;;;0.11761834;-0.8670919;0.24750511;;;;;;;;;;;;
2232.0;2138.1;;;;;;;;;;-7.9462566;-1.6632588;16.4037;;;;;;;;;
2232.0;2138.1;;;;;;;0.11493271;-0.8683737;0.250618;;;;;;;;;;;;
2232.0;2138.1;;;;;;;;;;-8.800775;-2.0447402;18.364513;;;;;;;;;
2232.0;2138.1;;;;;;;0.10992767;-0.8677633;0.25403607;;;;;;;;;;;;
2232.0;2138.1;;;;-0.20611194;0.8904573;0.19872668;;;;;;;;;;;;;;;
2232.0;2138.1;;;;-0.20665744;0.89421093;0.19779208;;;;;;;;;;;;;;;
2232.0;2138.1;;;;-0.20774844;0.89842236;0.1974335;;;;;;;;;;;;;;;
2232.0;2138.1;;;;-0.20858768;0.9030992;0.19726565;;;;;;;;;;;;;;;
2232.0;2138.1;;;;-0.20969775;0.9077188;0.19713214;;;;;;;;;;;;;;;
2232.0;2141.8;262143;262143;11786;;;;;;;;;;;;;;;;;;
2234.0;2145.5;;;;;;;;;;;;;;;;;-14.618366;-22.389141;24.85351;;2057.1
2234.0;2145.5;;;;;;;;;;;;;;0.67281103;0.62715536;0.19379254;;;;;2057.1
2234.0;2145.5;;;;;;;;;;;;;;;;;-12.79107;-25.040436;23.079622;;2057.1
2234.0;2145.5;;;;;;;;;;;;;;0.68874174;0.6459548;0.13745537;;;;;2057.1
2234.0;2145.5;;;;;;;;;;;;;;;;;-13.508256;-27.554398;21.862698;;2066.6
2234.0;2145.5;;;;;;;;;;;;;;0.69954526;0.65150917;0.122196116;;;;;2066.6
2234.0;2145.5;;;;;;;;;;;;;;;;;-14.22544;-28.378399;21.41255;;2066.6
2234.0;2145.5;;;;;;;;;;;;;;0.6980193;0.65779597;0.1650441;;;;;2066.6
2234.0;2145.5;;;;;;;;;;;;;;;;;-12.745293;-27.394176;21.797846;;2076.3
2234.0;2145.5;;;;;;;;;;;;;;0.68282115;0.65364546;0.23236793;;;;;2076.3
2234.0;2145.5;;;;;;;;;;;;;;;;;-9.975738;-25.822474;22.843103;;2076.3
2234.0;2145.5;;;;;;;;;;;;;;0.65120393;0.63740957;0.30597857;;;;;2076.3
2234.0;2147.6;;;;;;;;;;-9.647664;-2.5330362;20.245216;;;;;;;;;
2234.0;2147.6;;;;;;;0.10699789;-0.8679464;0.25592822;;;;;;;;;;;;
2234.0;2147.6;;;;;;;;;;-10.475478;-3.1777399;21.954254;;;;;;;;;
2234.0;2147.6;;;;;;;0.10620441;-0.868862;0.25763726;;;;;;;;;;;;
2234.0;2148.1;;;;-0.21078113;0.912655;0.19689563;;;;;;;;;;;;;;;
2234.0;2148.1;;;;-0.21180347;0.91736233;0.19627383;;;;;;;;;;;;;;;
2234.0;2148.1;;;;-0.21229938;0.9221498;0.19518283;;;;;;;;;;;;;;;
2234.0;2148.1;;;;-0.2128754;0.9266168;0.19469073;;;;;;;;;;;;;;;
2234.0;2148.1;;;;-0.21301654;0.93130124;0.1937752;;;;;;;;;;;;;;;
2234.0;2157.2;;;;;;;;;;-11.303292;-3.9674063;23.453474;;;;;;;;;
2234.0;2157.2;;;;;;;0.106509596;-0.8717917;0.25684378;;;;;;;;;;;;
2234.0;2157.2;;;;;;;;;;-12.0548115;-4.7074804;24.834436;;;;;;;;;
2234.0;2157.2;;;;;;;0.104373306;-0.8725242;0.25568408;;;;;;;;;;;;
2235.0;2158.2;;;;-0.21346286;0.93551266;0.19268802;;;;;;;;;;;;;;;
2235.0;2158.2;;;;-0.21334842;0.9390336;0.19248584;;;;;;;;;;;;;;;
2235.0;2158.2;;;;-0.21303561;0.9425279;0.19225696;;;;;;;;;;;;;;;
2235.0;2158.2;;;;-0.21310428;0.94560254;0.19170383;;;;;;;;;;;;;;;
2235.0;2158.2;;;;-0.21286777;0.9482347;0.1916199;;;;;;;;;;;;;;;
2235.0;2160.6;;;;;;;;;;;;;;;;;-7.4541464;-25.17014;24.338512;;2086.0
2235.0;2160.6;;;;;;;;;;;;;;0.6219672;0.62007505;0.3662221;;;;;2086.0
2235.0;2160.6;;;;;;;;;;;;;;;;;-6.9544053;-25.776695;26.070436;;2086.0
2235.0;2160.6;;;;;;;;;;;;;;0.59694207;0.61415446;0.37604907;;;;;2086.0
2235.0;2160.6;;;;;;;;;;;;;;;;;-8.987701;-27.0394;27.916805;;2095.6
2235.0;2160.6;;;;;;;;;;;;;;0.5813166;0.61397135;0.3192236;;;;;2095.6
2235.0;2160.6;;;;;;;;;;;;;;;;;-13.153478;-28.729362;29.744102;;2095.6
2235.0;2160.6;;;;;;;;;;;;;;0.5594653;0.61110264;0.26093325;;;;;2095.6
2235.0;2160.6;;;;;;;;;;;;;;;;;-17.15903;-30.453657;32.05588;;2105.2
2235.0;2160.6;;;;;;;;;;;;;;0.5508591;0.60048217;0.21723075;;;;;2105.2
2235.0;2160.6;;;;;;;;;;;;;;;;;-19.642475;-31.376842;34.924618;;2105.2
2235.0;2160.6;;;;;;;;;;;;;;0.52845854;0.5851009;0.21423994;;;;;2105.2
2235.0;2161.8;262143;262143;11785;;;;;;;;;;;;;;;;;;
2235.0;2166.7;;;;;;;;;;-12.798699;-5.607776;26.020844;;;;;;;;;
2235.0;2166.7;;;;;;;0.10913419;-0.87478256;0.25415814;;;;;;;;;;;;
2235.0;2166.7;;;;;;;;;;-13.542589;-6.6835537;27.207253;;;;;;;;;
2235.0;2166.7;;;;;;;0.10846278;-0.8751488;0.2519608;;;;;;;;;;;;
2290.0;2167.9;;;;;;;;;;;;;-6012;;;;;;;;
2290.0;2167.9;;;;;;;;;;;;;-6717;;;;;;;;
2290.0;2167.9;;;;;;;;;;;;;-6993;;;;;;;;
2290.0;2167.9;;;;;;;;;;;;;-6135;;;;;;;;
2290.0;2167.9;;;;;;;;;;;;;-4481;;;;;;;;
2290.0;2168.2;;;;-0.21339038;0.95087445;0.19196323;;;;;;;;;;;;;;;
2290.0;2168.2;;;;-0.21410373;0.95349133;0.19247821;;;;;;;;;;;;;;;
2290.0;2168.2;;;;-0.21430591;0.95645916;0.19299701;;;;;;;;;;;;;;;
2290.0;2168.2;;;;-0.21532443;0.95912564;0.19377902;;;;;;;;;;;;;;;
2290.0;2168.2;;;;-0.21593478;0.9620286;0.19495395;;;;;;;;;;;;;;;
2290.0;2176.1;;;;;;;;;;-14.248329;-7.778405;28.34788;;;;;;;;;
2290.0;2176.1;;;;;;;0.10974456;-0.8761254;0.25098422;;;;;;;;;;;;
2290.0;2176.1;;;;;;;;;;-15.037995;-8.70159;29.419844;;;;;;;;;
2290.0;2176.1;;;;;;;0.1114536;-0.8792993;0.24860378;;;;;;;;;;;;
2290.0;2178.1;;;;-0.2165604;0.9653398;0.19588092;;;;;;;;;;;;;;;
2290.0;2178.1;;;;-0.217186;0.9685632;0.19687274;;;;;;;;;;;;;;;
2290.0;2178.1;;;;-0.21787265;0.9725114;0.1979523;;;;;;;;;;;;;;;
2290.0;2178.1;;;;-0.21857074;0.97631466;0.19862369;;;;;;;;;;;;;;;
2290.0;2178.1;;;;-0.21990588;0.9801408;0.19905856;;;;;;;;;;;;;;;
2290.0;2181.9;262143;262143;11783;;;;;;;;;;;;;;;;;;
2290.0;2185.8;;;;;;;;;;-15.816217;-9.689628;30.468916;;;;;;;;;
2290.0;2185.8;;;;;;;0.11407819;-0.88033694;0.24695578;;;;;;;;;;;;
2290.0;2185.8;;;;;;;;;;-16.52196;-10.811182;31.487473;;;;;;;;;
2290.0;2185.8;;;;;;;0.113528855;-0.88375497;0.24524674;;;;;;;;;;;;
2306.0;2188.2;;;;-0.22086719;0.98404706;0.20032886;;;;;;;;;;;;;;;
2306.0;2188.2;;;;-0.22270969;0.9879724;0.2025452;;;;;;;;;;;;;;;
2306.0;2188.2;;;;-0.2243729;0.9924432;0.20493701;;;;;;;;;;;;;;;
2306.0;2188.2;;;;-0.22571567;0.9972116;0.20706561;;;;;;;;;;;;;;;
2306.0;2188.2;;;;-0.22710422;1.0016214;0.20962527;;;;;;;;;;;;;;;
2306.0;2195.4;;;;;;;;;;-17.262032;-11.734367;32.513657;;;;;;;;;
2306.0;2195.4;;;;;;;0.11535997;-0.88735616;0.24201179;;;;;;;;;;;;
2306.0;2195.4;;;;;;;;;;-17.990662;-12.726218;33.532215;;;;;;;;;
2306.0;2195.4;;;;;;;0.11713004;-0.8923612;0.24304941;;;;;;;;;;;;
2306.0;2198.3;;;;-0.22918704;1.0063478;0.21185306;;;;;;;;;;;;;;;
2306.0;2198.3;;;;-0.23052219;1.0106965;0.2142792;;;;;;;;;;;;;;;
2306.0;2198.3;;;;-0.23168948;1.015217;0.2168999;;;;;;;;;;;;;;;
2306.0;2198.3;;;;-0.2324219;1.0195886;0.21979907;;;;;;;;;;;;;;;
2306.0;2198.3;;;;-0.23335269;1.0238267;0.22366336;;;;;;;;;;;;;;;
2306.0;2202.2;262143;262143;11779;;;;;;;;;;;;;;;;;;
2306.0;2205.0;;;;;;;;;;-18.726921;-13.698996;34.432507;;;;;;;;;
2306.0;2205.0;;;;;;;0.11841182;-0.89797664;0.2454909;;;;;;;;;;;;
2306.0;2205.0;;;;;;;;;;-19.46318;-14.717551;35.336617;;;;;;;;;
2306.0;2205.0;;;;;;;0.117862485;-0.9081088;0.24988556;;;;;;;;;;;;
2309.0;2206.2;;;;;;;;;;;;;;;;;-20.99292;-33.8641;38.518177;;2114.9
2309.0;2206.2;;;;;;;;;;;;;;0.50538653;0.557329;0.23114718;;;;;2114.9
2309.0;2206.2;;;;;;;;;;;;;;;;;-19.05881;-38.518177;42.9281;;2114.9
2309.0;2206.2;;;;;;;;;;;;;;0.49635303;0.5435957;0.23670156;;;;;2114.9
2309.0;2206.2;;;;;;;;;;;;;;;;;-13.53496;-43.477432;47.66228;;2124.6
2309.0;2206.2;;;;;;;;;;;;;;0.5038606;0.5368816;0.2372509;;;;;2124.6
2309.0;2206.2;;;;;;;;;;;;;;;;;-5.344554;-47.521133;52.198097;;2124.6
2309.0;2206.2;;;;;;;;;;;;;;0.51319927;0.51997435;0.15100558;;;;;2124.6
2309.0;2206.2;;;;;;;;;;;;;;;;;4.1734066;-48.718987;56.92465;;2134.2
2309.0;2206.2;;;;;;;;;;;;;;0.57979065;0.5390179;0.07562487;;;;;2134.2
2309.0;2206.2;;;;;;;;;;;;;;;;;13.370922;-41.405987;60.15198;;2134.2
2309.0;2206.2;;;;;;;;;;;;;;0.6563921;0.54322946;0.11566515;;;;;2134.2
2309.0;2208.2;;;;;;;;;;;;;-2729;;;;;;;;
2309.0;2208.2;;;;;;;;;;;;;-1393;;;;;;;;
2309.0;2208.2;;;;;;;;;;;;;-565;;;;;;;;
2309.0;2208.2;;;;;;;;;;;;;25;;;;;;;;
2309.0;2208.2;;;;;;;;;;;;;635;;;;;;;;
2309.0;2208.3;;;;-0.23418811;1.027958;0.22736362;;;;;;;;;;;;;;;
2309.0;2208.3;;;;-0.2350426;1.0322839;0.23101428;;;;;;;;;;;;;;;
2309.0;2208.3;;;;-0.23536685;1.03677;0.23430637;;;;;;;;;;;;;;;
2309.0;2208.3;;;;-0.23628238;1.0413476;0.23697665;;;;;;;;;;;;;;;
2309.0;2208.3;;;;-0.23667148;1.0463411;0.24064258;;;;;;;;;;;;;;;
2309.0;2214.5;;;;;;;;;;-20.020142;-15.518662;36.206398;;;;;;;;;
2309.0;2214.5;;;;;;;0.119327374;-0.9175695;0.253914;;;;;;;;;;;;
2309.0;2214.5;;;;;;;;;;-20.752586;-16.090885;36.973175;;;;;;;;;
2309.0;2214.5;;;;;;;0.12286752;-0.9308756;0.25617236;;;;;;;;;;;;
2312.0;2218.4;;;;-0.23703006;1.0514756;0.24393085;;;;;;;;;;;;;;;
2312.0;2218.4;;;;-0.23720935;1.0573884;0.2469025;;;;;;;;;;;;;;;
2312.0;2218.4;;;;-0.23735431;1.0635301;0.25005344;;;;;;;;;;;;;;;
2312.0;2218.4;;;;-0.23736957;1.0707132;0.2528229;;;;;;;;;;;;;;;
2312.0;2218.4;;;;-0.23789218;1.0779763;0.25532153;;;;;;;;;;;;;;;
2312.0;2220.9;;;;;;;;;;;;;;;;;19.135107;-34.649952;61.42613;;2143.9
2312.0;2220.9;;;;;;;;;;;;;;0.7282937;0.5629444;0.15015107;;;;;2143.9
2312.0;2220.9;;;;;;;;;;;;;;;;;24.285105;-33.51314;61.20487;;2143.9
2312.0;2220.9;;;;;;;;;;;;;;0.83730584;0.59797966;0.23145238;;;;;2143.9
2312.0;2220.9;;;;;;;;;;;;;;;;;35.794395;-35.1001;59.007538;;2153.5
2312.0;2220.9;;;;;;;;;;;;;;0.95022434;0.63686025;0.31177709;;;;;2153.5
2312.0;2220.9;;;;;;;;;;;;;;;;;55.066833;-41.96295;54.948574;;2153.5
2312.0;2220.9;;;;;;;;;;;;;;1.0743126;0.6706137;0.28675193;;;;;2153.5
2312.0;2220.9;;;;;;;;;;;;;;;;;72.92398;-52.823727;50.313576;;2163.2
2312.0;2220.9;;;;;;;;;;;;;;1.2426527;0.6690268;0.27460554;;;;;2163.2
2312.0;2220.9;;;;;;;;;;;;;;;;;81.545456;-58.500168;45.960876;;2163.2
2312.0;2220.9;;;;;;;;;;;;;;1.449324;0.62349313;0.32587665;;;;;2163.2
2312.0;2222.1;262143;262143;11784;;;;;;;;;;;;;;;;;;
2312.0;2223.9;;;;;;;;;;-21.229439;-16.472366;37.68273;;;;;;;;;
2312.0;2223.9;;;;;;;0.1248207;-0.9423505;0.25995666;;;;;;;;;;;;
2312.0;2223.9;;;;;;;;;;-21.702477;-16.666922;38.26258;;;;;;;;;
2312.0;2223.9;;;;;;;0.12793359;-0.9553514;0.26337475;;;;;;;;;;;;
2348.0;2228.3;;;;-0.2380028;1.0859033;0.25691226;;;;;;;;;;;;;;;
2348.0;2228.3;;;;-0.23806766;1.0949174;0.2588654;;;;;;;;;;;;;;;
2348.0;2228.3;;;;-0.23881915;1.1042367;0.25986102;;;;;;;;;;;;;;;
2348.0;2228.3;;;;-0.23987201;1.1140634;0.26034167;;;;;;;;;;;;;;;
2348.0;2228.3;;;;-0.24028781;1.1232263;0.26070026;;;;;;;;;;;;;;;
2348.0;2233.3;;;;;;;;;;-22.202215;-16.762293;38.89203;;;;;;;;;
2348.0;2233.3;;;;;;;0.13098544;-0.96114993;0.26966155;;;;;;;;;;;;
2348.0;2233.3;;;;;;;;;;-22.572252;-16.838589;39.5558;;;;;;;;;
2348.0;2233.3;;;;;;;0.13177893;-0.96609396;0.27240822;;;;;;;;;;;;
2348.0;2238.0;;;;-0.24214175;1.133114;0.260582;;;;;;;;;;;;;;;
2348.0;2238.0;;;;-0.24394992;1.1433374;0.2600899;;;;;;;;;;;;;;;
2348.0;2238.0;;;;-0.24645236;1.1533738;0.2596741;;;;;;;;;;;;;;;
2348.0;2238.0;;;;-0.24925616;1.1639444;0.25939944;;;;;;;;;;;;;;;
2348.0;2238.0;;;;-0.25283816;1.1748277;0.2594643;;;;;;;;;;;;;;;
2348.0;2242.0;262143;262143;11787;;;;;;;;;;;;;;;;;;
2348.0;2242.8;;;;;;;;;;-23.007141;-16.846218;40.18906;;;;;;;;;
2348.0;2242.8;;;;;;;0.13385418;-0.9686575;0.27607045;;;;;;;;;;;;
2348.0;2242.8;;;;;;;;;;-23.365734;-16.79281;40.738396;;;;;;;;;
2348.0;2242.8;;;;;;;0.13391522;-0.9717094;0.27936643;;;;;;;;;;;;
2348.0;2248.1;;;;;;;;;;;;;1521;;;;;;;;
2348.0;2248.1;;;;;;;;;;;;;2419;;;;;;;;
2348.0;2248.1;;;;;;;;;;;;;2558;;;;;;;;
2348.0;2248.1;;;;;;;;;;;;;1974;;;;;;;;
2348.0;2248.1;;;;;;;;;;;;;1702;;;;;;;;
2350.0;2248.1;;;;-0.25576022;1.1859056;0.26019672;;;;;;;;;;;;;;;
2350.0;2248.1;;;;-0.2588654;1.1971322;0.2605782;;;;;;;;;;;;;;;
2350.0;2248.1;;;;-0.26245883;1.208912;0.26192096;;;;;;;;;;;;;;;
2350.0;2248.1;;;;-0.2650757;1.2209054;0.26301196;;;;;;;;;;;;;;;
2350.0;2248.1;;;;-0.26784137;1.2329942;0.26387408;;;;;;;;;;;;;;;
2350.0;2252.4;;;;;;;;;;-23.716698;-16.674551;41.222878;;;;;;;;;
2350.0;2252.4;;;;;;;0.13531907;-0.97396773;0.28015992;;;;;;;;;;;;
2350.0;2252.4;;;;;;;;;;-24.079105;-16.548662;41.657764;;;;;;;;;
2350.0;2252.4;;;;;;;0.13489181;-0.9756768;0.28070924;;;;;;;;;;;;
2350.0;2258.3;;;;-0.27037433;1.2450029;0.26502994;;;;;;;;;;;;;;;
2350.0;2258.3;;;;-0.27228168;1.2571183;0.2664719;;;;;;;;;;;;;;;
2350.0;2258.3;;;;-0.27458957;1.268902;0.26801303;;;;;;;;;;;;;;;
2350.0;2258.3;;;;-0.27702335;1.2800142;0.2691193;;;;;;;;;;;;;;;
2350.0;2258.3;;;;-0.2799187;1.2905618;0.2704163;;;;;;;;;;;;;;;
2350.0;2262.0;;;;;;;;;;-24.430067;-16.49144;42.039246;;;;;;;;;
2350.0;2262.0;;;;;;;0.13574633;-0.9780572;0.280282;;;;;;;;;;;;
2350.0;2262.0;;;;;;;;;;-24.761955;-16.38081;42.409283;;;;;;;;;
2350.0;2262.0;;;;;;;0.13641773;-0.9797052;0.28040406;;;;;;;;;;;;
2350.0;2262.3;262143;262143;11786;;;;;;;;;;;;;;;;;;
2351.0;2265.9;;;;;;;;;;;;;;;;;81.4539;-53.250984;42.481766;;2172.9
2351.0;2265.9;;;;;;;;;;;;;;1.6080203;0.53779715;0.33582568;;;;;2172.9
2351.0;2265.9;;;;;;;;;;;;;;;;;77.36824;-43.591877;40.31495;;2172.9
2351.0;2265.9;;;;;;;;;;;;;;1.690054;0.479812;0.2611774;;;;;2172.9
2351.0;2265.9;;;;;;;;;;;;;;;;;68.95275;-33.18125;38.0604;;2182.6
2351.0;2265.9;;;;;;;;;;;;;;1.7272255;0.4370861;0.1864681;;;;;2182.6
2351.0;2265.9;;;;;;;;;;;;;;;;;58.25602;-22.419659;34.947506;;2182.6
2351.0;2265.9;;;;;;;;;;;;;;1.6824855;0.4447157;0.08856472;;;;;2182.6
2351.0;2265.9;;;;;;;;;;;;;;;;;50.44328;-13.527329;31.29673;;2192.2
2351.0;2265.9;;;;;;;;;;;;;;1.5546129;0.46412548;0.008667257;;;;;2192.2
2351.0;2265.9;;;;;;;;;;;;;;;;;48.18873;-8.724479;28.946806;;2192.2
2351.0;2265.9;;;;;;;;;;;;;;1.3505051;0.42475662;0.04156621;;;;;2192.2
2351.0;2268.3;;;;-0.28358462;1.3005716;0.27117923;;;;;;;;;;;;;;;
2351.0;2268.3;;;;-0.2874718;1.3101236;0.2726784;;;;;;;;;;;;;;;
2351.0;2268.3;;;;-0.29126742;1.3187295;0.2731972;;;;;;;;;;;;;;;
2351.0;2268.3;;;;-0.29497913;1.3264695;0.2735367;;;;;;;;;;;;;;;
2351.0;2268.3;;;;-0.29739383;1.3331262;0.2739754;;;;;;;;;;;;;;;
2351.0;2271.5;;;;;;;;;;-25.189215;-16.315958;42.783134;;;;;;;;;
2351.0;2271.5;;;;;;;0.1391644;-0.9814142;0.27845088;;;;;;;;;;;;
2351.0;2271.5;;;;;;;;;;-25.517288;-16.281626;43.160805;;;;;;;;;
2351.0;2271.5;;;;;;;0.13940856;-0.9800714;0.2791223;;;;;;;;;;;;
2357.0;2273.4;;;;;;;;;;;;;;;;;51.534317;-11.200293;29.190954;;2201.9
2357.0;2273.4;;;;;;;;;;;;;;1.1252174;0.32203132;0.12866604;;;;;2201.9
2357.0;2273.4;;;;;;;;;;;;;;;;;53.84991;-19.86755;33.127842;;2201.9
