patientId;holterMac;flexMac;;;;;;;;;;;;;;;;;;;;
;CA:F3:0B:1E:33:78;D3:4A:5C:52:80:78;;;;;;;;;;;;;;;;;;;;
receivedTimeStamp;timeStamp;red;ir;green;adxl_accX;adxl_accY;adxl_accZ;lsm_accelX;lsm_accelY;lsm_accelZ;lsm_gyroX;lsm_gyroY;lsm_gyroZ;ecg;flex_lsm_accelX;flex_lsm_accelY;flex_lsm_accelZ;flex_lsm_gyroX;flex_lsm_gyroY;flex_lsm_gyroZ;flex_cmd;flexTimeStamp
402.0;338.8;;;;;;;;;;;;;;;;;;;;17;0.1
402.0;338.8;;;;;;;;;;;;;;;;;joulu.17;0.8735923;1.1825923;;127.6
402.0;338.8;;;;;;;;;;;;;;-0.84987944;-0.16547136;-0.25342572;;;;;127.6
402.0;338.8;;;;;;;;;;;;;;;;;-5.115665;-17.765587;-7.023072;;127.6
402.0;338.8;;;;;;;;;;;;;;-0.8763085;-0.17432173;-0.26532793;;;;;127.6
402.0;338.8;;;;;;;;;;;;;;;;;-64.23765;-84.58586;-60.67461;;137.3
402.0;338.8;;;;;;;;;;;;;;-0.873867;-0.18066958;-0.2679525;;;;;137.3
402.0;338.8;;;;;;;;;;;;;;;;;-122.38685;-124.988556;-119.39223;;137.3
402.0;338.8;;;;;;;;;;;;;;-0.8674581;-0.19074069;-0.26367992;;;;;137.3
405.0;346.3;;;;;;;;;;;;;;;;;-59.850613;-124.94278;-72.88202;;147.0
405.0;346.3;;;;;;;;;;;;;;-0.85860777;-0.1948912;-0.26190984;;;;;147.0
405.0;346.3;;;;;;;;;;;;;;;;;5.1347394;-124.988556;-17.864773;;147.0
405.0;346.3;;;;;;;;;;;;;;-0.85067296;-0.20093387;-0.25995666;;;;;147.0
405.0;346.3;;;;;;;;;;;;;;;;;0.9117405;-99.52849;-6.431776;;156.6
405.0;346.3;;;;;;;;;;;;;;-0.8400525;-0.20923491;-0.26349682;;;;;156.6
405.0;346.3;;;;;;;;;;;;;;;;;-5.3750725;-15.327921;19.882809;;156.6
405.0;346.3;;;;;;;;;;;;;;-0.82790613;-0.21503341;-0.26374096;;;;;156.6
405.0;346.3;;;;;;;;;;;;;;;;;-4.4976654;-8.10648;22.247993;;166.1
405.0;346.3;;;;;;;;;;;;;;-0.8143559;-0.22107609;-0.26227608;;;;;166.1
405.0;346.3;;;;;;;;;;;;;;;;;-2.643666;-7.5991087;22.701956;;166.1
405.0;346.3;;;;;;;;;;;;;;-0.7966552;-0.22125919;-0.26093325;;;;;166.1
405.0;347.2;;;;;;;;;;;;;;;;;-1.0223701;-6.912442;23.644215;;175.8
405.0;347.2;;;;;;;;;;;;;;-0.7827998;-0.21619312;-0.26343578;;;;;175.8
405.0;347.2;;;;;;;;;;;;;;;;;0.28992584;-6.14948;24.25077;;175.8
405.0;347.2;;;;;;;;;;;;;;-0.7691885;-0.2156438;-0.25959045;;;;;175.8
405.0;347.2;;;;;;;;;;;;;;;;;1.2054812;-5.7222204;24.716179;;185.4
405.0;347.2;;;;;;;;;;;;;;-0.7514878;-0.21210364;-0.25043488;;;;;185.4
405.0;347.2;;;;;;;;;;;;;;;;;1.4229255;-5.733665;25.276955;;185.4
405.0;347.2;;;;;;;;;;;;;;-0.74257636;-0.20825832;-0.24744408;;;;;185.4
405.0;347.2;;;;;;;;;;;;;;;;;0.96514785;-6.0197763;25.395214;;195.1
405.0;347.2;;;;;;;;;;;;;;-0.73824275;-0.2019715;-0.25189978;;;;;195.1
405.0;347.2;;;;;;;;;;;;;;;;;0.57222205;-6.164739;25.540176;;195.1
405.0;347.2;;;;;;;;;;;;;;-0.7417829;-0.2024598;-0.25299844;;;;;195.1
458.0;348.0;;;;;;;;;;;;;;;;;0.13733329;-6.488998;25.673697;;204.7
458.0;348.0;;;;;;;;;;;;;;-0.7509384;-0.20557268;-0.25592822;;;;;204.7
458.0;348.0;;;;;;;;;;;;;;;;;-0.049592577;-6.851405;25.8034;;204.7
458.0;348.0;;;;;;;;;;;;;;-0.77303386;-0.20831935;-0.2664266;;;;;204.7
458.0;348.0;;;;;;;;;;;;;;;;;-0.07629627;-6.611072;25.982697;;214.4
458.0;348.0;;;;;;;;;;;;;;-0.7999512;-0.22266304;-0.27661976;;;;;214.4
458.0;348.0;;;;;;;;;;;;;;;;;0.15640736;-6.5652943;26.535845;;214.4
458.0;348.0;;;;;;;;;;;;;;-0.8340098;-0.23419905;-0.2822962;;;;;214.4
458.0;348.0;;;;;;;;;;;;;;;;;0.6027406;-6.8094425;27.04703;;224.1
458.0;348.0;;;;;;;;;;;;;;-0.8682516;-0.24933623;-0.28675193;;;;;224.1
458.0;348.0;;;;;;;;;;;;;;;;;1.3504441;-7.4083686;27.638325;;224.1
458.0;348.0;;;;;;;;;;;;;;-0.90121156;-0.26306954;-0.29505295;;;;;224.1
458.0;399.5;;;;;;;;;;;;;;;;;2.6551104;-8.369701;28.286842;;233.7
458.0;399.5;;;;;;;;;;;;;;-0.9187902;-0.27784052;-0.2938322;;;;;233.7
458.0;399.5;;;;;;;;;;;;;;;;;4.016999;-9.281442;28.916288;;233.7
458.0;399.5;;;;;;;;;;;;;;-0.9328288;-0.28894925;-0.29096347;;;;;233.7
458.0;399.5;;;;;;;;;;;;;;;;;5.0889616;-9.994812;29.759363;;243.4
458.0;399.5;;;;;;;;;;;;;;-0.93728447;-0.2993866;-0.28235725;;;;;243.4
458.0;399.5;;;;;;;;;;;;;;;;;5.9053316;-10.570848;30.697805;;243.4
458.0;399.5;;;;;;;;;;;;;;-0.94106877;-0.30018005;-0.28168583;;;;;243.4
458.0;399.5;;;;;;;;;;;;;;;;;6.6415906;-10.826442;31.632435;;252.9
458.0;399.5;;;;;;;;;;;;;;-0.94027525;-0.30365917;-0.27875605;;;;;252.9
458.0;399.5;;;;;;;;;;;;;;;;;7.248146;-11.001924;32.59377;;252.9
458.0;399.5;;;;;;;;;;;;;;-0.9446089;-0.3020722;-0.27655873;;;;;252.9
521.0;400.3;;;;;;;;;;;;;;;;;7.461776;-10.876034;33.368176;;262.6
521.0;400.3;;;;;;;;;;;;;;-0.9490646;-0.2993866;-0.27497178;;;;;262.6
521.0;400.3;;;;;;;;;;;;;;;;;7.3587756;-10.784478;34.00525;;262.6
521.0;400.3;;;;;;;;;;;;;;-0.95199436;-0.3023774;-0.2807703;;;;;262.6
521.0;400.3;;;;;;;;;;;;;;;;;7.3015537;-10.471663;34.619434;;272.3
521.0;400.3;;;;;;;;;;;;;;-0.9627369;-0.30439162;-0.27997681;;;;;272.3
521.0;400.3;;;;;;;;;;;;;;;;;6.939146;-10.490738;34.844505;;272.3
521.0;400.3;;;;;;;;;;;;;;-0.9710379;-0.31055635;-0.2865688;;;;;272.3
521.0;400.3;;;;;;;;;;;;;;;;;6.538591;-10.536515;35.05432;;282.0
521.0;400.3;;;;;;;;;;;;;;-0.9785455;-0.31189916;-0.29029205;;;;;282.0
521.0;400.3;;;;;;;;;;;;;;;;;6.5805535;-10.731071;35.309914;;282.0
521.0;400.3;;;;;;;;;;;;;;-0.98080385;-0.31348613;-0.29834896;;;;;282.0
521.0;459.4;;;;;;;;;;;;;;;;;6.714072;-11.066774;35.466324;;291.6
521.0;459.4;;;;;;;;;;;;;;-0.98690754;-0.31330302;-0.3005463;;;;;291.6
521.0;459.4;;;;;;;;;;;;;;;;;6.591998;-11.635181;35.763878;;291.6
521.0;459.4;;;;;;;;;;;;;;-0.9901425;-0.31250954;-0.31495103;;;;;291.6
521.0;459.4;;;;;;;;;;;;;;;;;6.698813;-11.341441;36.229286;;301.2
521.0;459.4;;;;;;;;;;;;;;-0.99447614;-0.31910154;-0.33558154;;;;;301.2
521.0;459.4;;;;;;;;;;;;;;;;;7.37022;-10.269479;37.083805;;301.2
521.0;459.4;;;;;;;;;;;;;;-1.000946;-0.3267922;-0.35358745;;;;;301.2
521.0;459.4;;;;;;;;;;;;;;;;;7.9386272;-8.80459;38.247322;;310.7
521.0;459.4;;;;;;;;;;;;;;-1.0218818;-0.3336894;-0.3789178;;;;;310.7
521.0;459.4;;;;;;;;;;;;;;;;;8.373516;-7.889035;39.345985;;310.7
521.0;459.4;;;;;;;;;;;;;;-1.0494095;-0.34174627;-0.39313945;;;;;310.7
639.0;460.2;;;;;;;;;;;;;;;;;8.7397375;-7.4083686;40.383617;;320.4
639.0;460.2;;;;;;;;;;;;;;-1.0663167;-0.36152226;-0.4029664;;;;;320.4
639.0;460.2;;;;;;;;;;;;;;;;;9.960478;-7.0688496;41.337322;;320.4
639.0;460.2;;;;;;;;;;;;;;-1.0788903;-0.37208167;-0.40156254;;;;;320.4
639.0;460.2;;;;;;;;;;;;;;;;;11.795404;-7.5228124;42.08121;;330.0
639.0;460.2;;;;;;;;;;;;;;-1.0722984;-0.37696463;-0.39576402;;;;;330.0
639.0;460.2;;;;;;;;;;;;;;;;;13.924069;-7.827998;42.516098;;330.0
639.0;460.2;;;;;;;;;;;;;;-1.0553911;-0.37849057;-0.38654745;;;;;330.0
639.0;460.2;;;;;;;;;;;;;;;;;15.655996;-7.423628;42.56188;;339.7
639.0;460.2;;;;;;;;;;;;;;-1.0374463;-0.39008757;-0.37720877;;;;;339.7
639.0;460.2;;;;;;;;;;;;;;;;;17.235327;-6.1380353;41.898098;;339.7
639.0;460.2;;;;;;;;;;;;;;-1.0257882;-0.4016846;-0.37165442;;;;;339.7
639.0;580.7;;;;;;;;;;;;;;;;;18.177588;-3.6545916;40.948208;;349.3
639.0;580.7;;;;;;;;;;;;;;-1.0301218;-0.41492966;-0.377575;;;;;349.3
639.0;580.7;;;;;;;;;;;;;;;;;18.475143;-0.4768517;39.50621;;349.3
639.0;580.7;;;;;;;;;;;;;;-1.050325;-0.42854092;-0.39478743;;;;;349.3
639.0;580.7;;;;;;;;;;;;;;;;;18.482773;2.5902586;38.05277;;359.0
639.0;580.7;;;;;;;;;;;;;;-1.0827967;-0.44001588;-0.4170049;;;;;359.0
639.0;580.7;;;;;;;;;;;;;;;;;17.906734;5.4628134;36.385693;;359.0
639.0;580.7;;;;;;;;;;;;;;-1.1223487;-0.45258948;-0.44068727;;;;;359.0
639.0;580.7;;;;;;;;;;;;;;;;;16.289255;8.190405;34.600357;;368.4
639.0;580.7;;;;;;;;;;;;;;-1.1643422;-0.47834712;-0.46888638;;;;;368.4
639.0;580.7;;;;;;;;;;;;;;;;;13.920255;10.364849;32.68914;;368.4
639.0;580.7;;;;;;;;;;;;;;-1.2025514;-0.5058748;-0.51442;;;;;368.4
641.0;581.5;;;;;;;;;;;;;;;;;10.902738;12.504959;30.228582;;377.9
641.0;581.5;;;;;;;;;;;;;;-1.2458266;-0.5470748;-0.558916;;;;;377.9
641.0;581.5;;;;;;;;;;;;;;;;;8.823664;13.428144;27.562029;;377.9
641.0;581.5;;;;;;;;;;;;;;-1.2821436;-0.5938902;-0.5843074;;;;;377.9
641.0;581.5;;;;;;;;;;;;;;;;;7.915738;13.164922;23.75866;;387.5
641.0;581.5;;;;;;;;;;;;;;-1.2975249;-0.64638203;-0.6113468;;;;;387.5
641.0;581.5;;;;;;;;;;;;;;;;;9.041108;12.703329;19.428846;;387.5
641.0;581.5;;;;;;;;;;;;;;-1.2905056;-0.6852626;-0.62569046;;;;;387.5
641.0;581.5;;;;;;;;;;;;;;;;;11.783959;12.623219;14.332255;;397.1
641.0;581.5;;;;;;;;;;;;;;-1.2516861;-0.7035737;-0.6327708;;;;;397.1
641.0;581.5;;;;;;;;;;;;;;;;;14.389478;13.691366;8.323924;;397.1
641.0;581.5;;;;;;;;;;;;;;-1.1937621;-0.7190161;-0.62007505;;;;;397.1
641.0;582.3;;;;;;;;;;;;;;;;;15.701773;14.252144;1.5144811;;406.7
641.0;582.3;;;;;;;;;;;;;;-1.1412091;-0.73390913;-0.5858333;;;;;406.7
641.0;582.3;;;;;;;;;;;;;;;;;15.75518;15.118106;-6.6644797;;406.7
641.0;582.3;;;;;;;;;;;;;;-1.0979339;-0.7497177;-0.5137486;;;;;406.7
641.0;582.3;;;;;;;;;;;;;;;;;15.308847;14.53444;-16.438032;;416.4
641.0;582.3;;;;;;;;;;;;;;-1.0540483;-0.7783441;-0.42774743;;;;;416.4
641.0;582.3;;;;;;;;;;;;;;;;;15.217292;11.280404;-27.241585;;416.4
641.0;582.3;;;;;;;;;;;;;;-1.000946;-0.7972655;-0.34949797;;;;;416.4
641.0;582.3;;;;;;;;;;;;;;;;;15.316477;6.740776;-38.41899;;426.1
641.0;582.3;;;;;;;;;;;;;;-0.9416181;-0.80306405;-0.27161473;;;;;426.1
641.0;582.3;;;;;;;;;;;;;;;;;15.583514;1.4763329;-49.958797;;426.1
641.0;582.3;;;;;;;;;;;;;;-0.8869289;-0.8015381;-0.20026246;;;;;426.1
699.0;583.1;;;;;;;;;;;;;;;;;15.301217;-3.093814;-61.269722;;435.7
699.0;583.1;;;;;;;;;;;;;;-0.8454848;-0.8080691;-0.1276284;;;;;435.7
699.0;583.1;;;;;;;;;;;;;;;;;14.618366;-8.243813;-72.634056;;435.7
699.0;583.1;;;;;;;;;;;;;;-0.8233894;-0.8264412;-0.043702506;;;;;435.7
699.0;583.1;;;;;;;;;;;;;;;;;11.959441;-12.447737;-84.25779;;445.4
699.0;583.1;;;;;;;;;;;;;;-0.8253426;-0.8550066;-0.012573626;;;;;445.4
699.0;583.1;;;;;;;;;;;;;;;;;8.224739;-13.523515;-96.35457;;445.4
699.0;583.1;;;;;;;;;;;;;;-0.86733603;-0.8941313;-0.050477616;;;;;445.4
699.0;583.1;;;;;;;;;;;;;;;;;5.138554;-12.604144;-108.684044;;455.1
699.0;583.1;;;;;;;;;;;;;;-0.9412519;-0.92519915;-0.16888943;;;;;455.1
699.0;583.1;;;;;;;;;;;;;;;;;3.151036;-6.897183;-119.521935;;455.1
699.0;583.1;;;;;;;;;;;;;;-1.0379345;-0.92062134;-0.33741266;;;;;455.1
699.0;595.2;;;;;;;;;;;;;;;;;4.669332;1.9951477;-124.618515;;464.8
699.0;595.2;;;;;;;;;;;;;;-1.1220435;-0.9048738;-0.47663808;;;;;464.8
699.0;595.2;;;;;;;;;;;;;;;;;9.659109;11.715293;-124.988556;;464.8
699.0;595.2;;;;;;;;;;;;;;-1.1416364;-0.8852809;-0.5670339;;;;;464.8
699.0;595.2;;;;;;;;;;;;;;;;;17.014069;22.331919;-124.988556;;474.4
699.0;595.2;;;;;;;;;;;;;;-1.1220435;-0.870571;-0.5872982;;;;;474.4
699.0;595.2;;;;;;;;;;;;;;;;;24.235512;32.26188;-124.988556;;474.4
699.0;595.2;;;;;;;;;;;;;;-1.0950041;-0.8559221;-0.5647755;;;;;474.4
699.0;595.2;;;;;;;;;;;;;;;;;28.401287;44.240395;-124.988556;;483.9
699.0;595.2;;;;;;;;;;;;;;-1.1051973;-0.8625752;-0.5402387;;;;;483.9
699.0;595.2;;;;;;;;;;;;;;;;;31.704918;55.99765;-124.988556;;483.9
699.0;595.2;;;;;;;;;;;;;;-1.1826533;-0.8763085;-0.48097172;;;;;483.9
758.0;640.8;;;;;;;;;;;;;;;;;34.127323;58.90454;-124.988556;;493.4
758.0;640.8;;;;;;;;;;;;;;-1.2897122;-0.8834498;-0.38935515;;;;;493.4
758.0;640.8;;;;;;;;;;;;;;;;;33.970913;51.492355;-124.988556;;493.4
758.0;640.8;;;;;;;;;;;;;;-1.403241;-0.8814966;-0.33069858;;;;;493.4
758.0;640.8;;;;;;;;;;;;;;;;;32.727287;39.74273;-124.988556;;503.0
758.0;640.8;;;;;;;;;;;;;;-1.5196387;-0.8659932;-0.31366923;;;;;503.0
758.0;640.8;;;;;;;;;;;;;;;;;30.331583;28.64925;-124.988556;;503.0
758.0;640.8;;;;;;;;;;;;;;-1.6459242;-0.8536027;-0.3178808;;;;;503.0
758.0;640.8;;;;;;;;;;;;;;;;;29.515215;17.548143;-124.988556;;512.7
758.0;640.8;;;;;;;;;;;;;;-1.7316202;-0.8034913;-0.33655813;;;;;512.7
758.0;640.8;;;;;;;;;;;;;;;;;34.550766;11.589404;-124.988556;;512.7
758.0;640.8;;;;;;;;;;;;;;-1.8035829;-0.765038;-0.34632406;;;;;512.7
758.0;655.6;;;;;;;;;;;;;;;;;43.70632;15.747551;-124.988556;;522.4
758.0;655.6;;;;;;;;;;;;;;-1.8299508;-0.71700186;-0.2779626;;;;;522.4
758.0;655.6;;;;;;;;;;;;;;;;;48.589283;23.205511;-124.988556;;522.4
758.0;655.6;;;;;;;;;;;;;;-1.7805719;-0.6443068;-0.20514542;;;;;522.4
758.0;655.6;;;;;;;;;;;;;;;;;47.490616;25.196844;-124.988556;;532.0
758.0;655.6;;;;;;;;;;;;;;-1.7078158;-0.59254736;-0.21955016;;;;;532.0
758.0;655.6;;;;;;;;;;;;;;;;;48.749504;24.967955;-124.988556;;532.0
758.0;655.6;;;;;;;;;;;;;;-1.6559343;-0.5442061;-0.22608112;;;;;532.0
758.0;655.6;;;;;;;;;;;;;;;;;47.956024;22.17551;-124.988556;;541.6
758.0;655.6;;;;;;;;;;;;;;-1.6228522;-0.5022736;-0.24890897;;;;;541.6
758.0;655.6;;;;;;;;;;;;;;;;;44.25184;19.539474;-124.988556;;541.6
758.0;655.6;;;;;;;;;;;;;;-1.6000245;-0.46375927;-0.26215398;;;;;541.6
819.0;708.5;;;;;;;;;;;;;;;;;37.549213;17.242958;-124.988556;;551.2
819.0;708.5;;;;;;;;;;;;;;-1.6068605;-0.4316538;-0.2544023;;;;;551.2
819.0;708.5;;;;;;;;;;;;;;;;;27.844324;13.645589;-124.988556;;551.2
819.0;708.5;;;;;;;;;;;;;;-1.6254158;-0.41608936;-0.2268746;;;;;551.2
819.0;708.5;;;;;;;;;;;;;;;;;17.929625;6.6949983;-124.988556;;560.8
819.0;708.5;;;;;;;;;;;;;;-1.6335948;-0.3988769;-0.20136112;;;;;560.8
819.0;708.5;;;;;;;;;;;;;;;;;9.0983305;-0.13351847;-124.988556;;560.8
819.0;708.5;;;;;;;;;;;;;;-1.6309092;-0.3939329;-0.19299905;;;;;560.8
819.0;708.5;;;;;;;;;;;;;;;;;3.707999;-3.913999;-124.988556;;570.3
819.0;708.5;;;;;;;;;;;;;;-1.6363415;-0.39228493;-0.18543047;;;;;570.3
819.0;708.5;;;;;;;;;;;;;;;;;-1.8501847;-5.035554;-124.988556;;570.3
819.0;708.5;;;;;;;;;;;;;;-1.6252327;-0.395703;-0.20697653;;;;;570.3
819.0;716.0;;;;;;;;;;;;;;;;;-7.2595906;-1.7548143;-124.988556;;580.0
819.0;716.0;;;;;;;;;;;;;;-1.5987426;-0.41053498;-0.24134037;;;;;580.0
819.0;716.0;;;;;;;;;;;;;;;;;-12.058626;3.5859249;-124.988556;;580.0
819.0;716.0;;;;;;;;;;;;;;-1.5440534;-0.4316538;-0.29902035;;;;;580.0
819.0;716.0;;;;;;;;;;;;;;;;;-15.377514;9.651479;-124.988556;;589.7
819.0;716.0;;;;;;;;;;;;;;-1.4754479;-0.44306773;-0.36872464;;;;;589.7
819.0;716.0;;;;;;;;;;;;;;;;;-16.82333;18.53618;-124.988556;;589.7
819.0;716.0;;;;;;;;;;;;;;-1.408124;-0.47834712;-0.4450209;;;;;589.7
819.0;716.0;;;;;;;;;;;;;;;;;-17.353586;30.602434;-124.988556;;599.4
819.0;716.0;;;;;;;;;;;;;;-1.3411053;-0.49800104;-0.4852443;;;;;599.4
819.0;716.0;;;;;;;;;;;;;;;;;-19.138922;41.173283;-124.988556;;599.4
819.0;716.0;;;;;;;;;;;;;;-1.2662129;-0.5139927;-0.52357554;;;;;599.4
942.0;761.7;;;;;;;;;;;;;;;;;-19.974363;50.073242;-124.988556;;609.0
942.0;761.7;;;;;;;;;;;;;;-1.1974853;-0.5611133;-0.56251717;;;;;609.0
942.0;761.7;;;;;;;;;;;;;;;;;-17.162846;58.481094;-124.988556;;609.0
942.0;761.7;;;;;;;;;;;;;;-1.1349834;-0.60573137;-0.57124543;;;;;609.0
942.0;761.7;;;;;;;;;;;;;;;;;-13.584552;64.89761;-124.988556;;618.5
942.0;761.7;;;;;;;;;;;;;;-1.0723594;-0.62855923;-0.57637256;;;;;618.5
942.0;761.7;;;;;;;;;;;;;;;;;-8.011109;70.142975;-124.988556;;618.5
942.0;761.7;;;;;;;;;;;;;;-0.99813837;-0.6225776;-0.56593525;;;;;618.5
942.0;761.7;;;;;;;;;;;;;;;;;-3.5134435;73.86243;-124.988556;;628.1
942.0;761.7;;;;;;;;;;;;;;-0.9737236;-0.61128575;-0.5495773;;;;;628.1
942.0;761.7;;;;;;;;;;;;;;;;;0.56840724;72.31742;-124.988556;;628.1
942.0;761.7;;;;;;;;;;;;;;-0.98117006;-0.61738944;-0.5255287;;;;;628.1
942.0;776.4;;;;;;;;;;;;;;;;;8.728293;67.07206;-124.988556;;637.8
942.0;776.4;;;;;;;;;;;;;;-0.99429303;-0.60963774;-0.51405376;;;;;637.8
942.0;776.4;;;;;;;;;;;;;;;;;19.87518;62.280647;-124.988556;;637.8
942.0;776.4;;;;;;;;;;;;;;-1.009064;-0.5937071;-0.45826593;;;;;637.8
942.0;776.4;;;;;;;;;;;;;;;;;28.855251;54.391617;-124.988556;;647.5
942.0;776.4;;;;;;;;;;;;;;-1.0119327;-0.57686085;-0.41853085;;;;;647.5
942.0;776.4;;;;;;;;;;;;;;;;;36.26362;48.22306;-124.988556;;647.5
942.0;776.4;;;;;;;;;;;;;;-1.0151067;-0.5691702;-0.36939603;;;;;647.5
942.0;776.4;;;;;;;;;;;;;;;;;41.787468;44.423504;-124.988556;;657.1
942.0;776.4;;;;;;;;;;;;;;-1.0013123;-0.53462327;-0.34150213;;;;;657.1
942.0;776.4;;;;;;;;;;;;;;;;;43.092136;43.946655;-124.988556;;657.1
942.0;776.4;;;;;;;;;;;;;;-1.0121158;-0.53675956;-0.31464583;;;;;657.1
944.0;821.7;;;;;;;;;;;;;;;;;43.122654;43.60332;-124.988556;;666.7
944.0;821.7;;;;;;;;;;;;;;-1.0036317;-0.5277871;-0.31116673;;;;;666.7
944.0;821.7;;;;;;;;;;;;;;;;;44.28617;43.67199;-124.988556;;666.7
944.0;821.7;;;;;;;;;;;;;;-0.9944151;-0.52211064;-0.29786065;;;;;666.7
944.0;821.7;;;;;;;;;;;;;;;;;48.520615;41.966766;-124.988556;;676.2
944.0;821.7;;;;;;;;;;;;;;-0.93710136;-0.5031282;-0.2866909;;;;;676.2
944.0;821.7;;;;;;;;;;;;;;;;;56.89413;40.429394;-124.988556;;676.2
944.0;821.7;;;;;;;;;;;;;;-0.8807642;-0.46162298;-0.3088473;;;;;676.2
944.0;821.7;;;;;;;;;;;;;;;;;62.63543;43.15699;-124.988556;;685.8
944.0;821.7;;;;;;;;;;;;;;-0.882107;-0.47523424;-0.29145175;;;;;685.8
944.0;821.7;;;;;;;;;;;;;;;;;65.45076;44.610428;-124.988556;;685.8
944.0;821.7;;;;;;;;;;;;;;-0.83730584;-0.48268074;-0.32624286;;;;;685.8
944.0;829.2;;;;;;;;;;;;;;;;;72.47383;49.153877;-124.988556;;695.5
944.0;829.2;;;;;;;;;;;;;;-0.79067355;-0.45051423;-0.37586597;;;;;695.5
944.0;829.2;;;;;;;;;;;;;;;;;78.43638;55.192722;-124.988556;;695.5
944.0;829.2;;;;;;;;;;;;;;-0.7738273;-0.43830684;-0.42640463;;;;;695.5
944.0;829.2;;;;;;;;;;;;;;;;;86.82898;61.761833;-124.988556;;705.0
944.0;829.2;;;;;;;;;;;;;;-0.77535325;-0.43153173;-0.49439985;;;;;705.0
944.0;829.2;;;;;;;;;;;;;;;;;97.19001;62.776573;-124.96185;;705.0
944.0;829.2;;;;;;;;;;;;;;-0.8065432;-0.3869747;-0.46327096;;;;;705.0
944.0;829.2;;;;;;;;;;;;;;;;;103.61034;51.919613;-123.98526;;714.6
944.0;829.2;;;;;;;;;;;;;;-0.78060246;-0.36036256;-0.49671927;;;;;714.6
944.0;829.2;;;;;;;;;;;;;;;;;111.43452;45.400097;-121.14703;;714.6
944.0;829.2;;;;;;;;;;;;;;-0.7399518;-0.28034303;-0.43293557;;;;;714.6
1001.0;882.1;;;;;;;;;;;;;;;;;111.07211;40.96347;-115.59648;;724.2
1001.0;882.1;;;;;;;;;;;;;;-0.6940519;-0.21100497;-0.34968108;;;;;724.2
1001.0;882.1;;;;;;;;;;;;;;;;;104.20545;37.400433;-108.40938;;724.2
1001.0;882.1;;;;;;;;;;;;;;-0.6634114;-0.14471877;-0.25928527;;;;;724.2
1001.0;882.1;;;;;;;;;;;;;;;;;93.56975;34.649952;-100.898;;733.9
1001.0;882.1;;;;;;;;;;;;;;-0.633198;-0.09418012;-0.1640675;;;;;733.9
1001.0;882.1;;;;;;;;;;;;;;;;;82.41524;31.647694;-95.40086;;733.9
1001.0;882.1;;;;;;;;;;;;;;-0.595172;-0.05328532;-0.11841182;;;;;733.9
1001.0;882.1;;;;;;;;;;;;;;;;;74.48805;30.81225;-89.9266;;743.2
1001.0;882.1;;;;;;;;;;;;;;-0.5526902;-0.02948088;-0.10303049;;;;;743.2
1001.0;882.1;;;;;;;;;;;;;;;;;71.99698;30.81225;-84.00601;;743.2
1001.0;882.1;;;;;;;;;;;;;;-0.527665;0.00921659;-0.112125;;;;;743.2
1001.0;889.9;;;;;;;;;;;;;;;;;71.3332;31.12125;-77.96716;;752.9
1001.0;889.9;;;;;;;;;;;;;;-0.5008087;0.031617176;-0.13208412;;;;;752.9
1001.0;889.9;;;;;;;;;;;;;;;;;72.32505;30.762657;-71.93594;;752.9
1001.0;889.9;;;;;;;;;;;;;;-0.46467483;0.057252724;-0.1495407;;;;;752.9
1001.0;889.9;;;;;;;;;;;;;;;;;73.156685;32.12073;-65.47365;;762.5
1001.0;889.9;;;;;;;;;;;;;;-0.423719;0.080996126;-0.15588854;;;;;762.5
1001.0;889.9;;;;;;;;;;;;;;;;;74.00357;34.066284;-58.423874;;762.5
1001.0;889.9;;;;;;;;;;;;;;-0.39649647;0.10711997;-0.15643787;;;;;762.5
1001.0;889.9;;;;;;;;;;;;;;;;;74.28205;35.935543;-51.202427;;772.1
1001.0;889.9;;;;;;;;;;;;;;-0.36255988;0.1267739;-0.14593951;;;;;772.1
1001.0;889.9;;;;;;;;;;;;;;;;;73.37413;36.626026;-43.557545;;772.1
1001.0;889.9;;;;;;;;;;;;;;-0.33606982;0.16724144;-0.13904233;;;;;772.1
1060.0;942.5;;;;;;;;;;;;;;;;;71.24546;37.007507;-35.16495;;781.6
1060.0;942.5;;;;;;;;;;;;;;-0.3197119;0.19501327;-0.14166692;;;;;781.6
1060.0;942.5;;;;;;;;;;;;;;;;;68.277534;37.99936;-26.558733;;781.6
1060.0;942.5;;;;;;;;;;;;;;-0.3452254;0.20770897;-0.14349803;;;;;781.6
1060.0;942.5;;;;;;;;;;;;;;;;;66.37776;36.488693;-18.944365;;791.2
1060.0;942.5;;;;;;;;;;;;;;-0.32502213;0.21369061;-0.13373211;;;;;791.2
1060.0;942.5;;;;;;;;;;;;;;;;;66.1298;32.948547;-11.2880335;;791.2
1060.0;942.5;;;;;;;;;;;;;;-0.29651785;0.22779016;-0.13116856;;;;;791.2
1060.0;942.5;;;;;;;;;;;;;;;;;65.71017;32.47551;-3.2692955;;800.9
1060.0;942.5;;;;;;;;;;;;;;-0.31311992;0.20545061;-0.10559405;;;;;800.9
1060.0;942.5;;;;;;;;;;;;;;;;;65.48509;31.33488;4.058962;;800.9
1060.0;942.5;;;;;;;;;;;;;;-0.30396435;0.18359935;-0.10687582;;;;;800.9
1060.0;950.0;;;;;;;;;;;;;;;;;63.6845;30.678732;12.001404;;810.5
1060.0;950.0;;;;;;;;;;;;;;-0.313242;0.1605884;-0.11078219;;;;;810.5
1060.0;950.0;;;;;;;;;;;;;;;;;59.90402;31.430248;18.929106;;810.5
1060.0;950.0;;;;;;;;;;;;;;-0.30219427;0.14850307;-0.1098056;;;;;810.5
1060.0;950.0;;;;;;;;;;;;;;;;;55.864132;30.499435;26.268806;;820.2
1060.0;950.0;;;;;;;;;;;;;;-0.2944426;0.16412854;-0.10290842;;;;;820.2
1060.0;950.0;;;;;;;;;;;;;;;;;53.39976;27.367474;33.860287;;820.2
1060.0;950.0;;;;;;;;;;;;;;-0.27326274;0.19568469;-0.08209479;;;;;820.2
1060.0;950.0;;;;;;;;;;;;;;;;;50.38606;24.571217;42.550434;;829.8
1060.0;950.0;;;;;;;;;;;;;;-0.2582476;0.2118595;-0.05633717;;;;;829.8
1060.0;950.0;;;;;;;;;;;;;;;;;47.29606;22.057253;51.17191;;829.8
1060.0;950.0;;;;;;;;;;;;;;-0.24292734;0.20447402;-0.03747673;;;;;829.8
1118.0;1002.8;;;;;;;;;;;;;;;;;43.694878;19.077885;59.549244;;839.5
1118.0;1002.8;;;;;;;;;;;;;;-0.2280343;0.19531846;-0.037110507;;;;;839.5
1118.0;1002.8;;;;;;;;;;;;;;;;;40.269173;17.418438;67.80831;;839.5
1118.0;1002.8;;;;;;;;;;;;;;-0.21387371;0.18243966;-0.05261391;;;;;839.5
1118.0;1002.8;;;;;;;;;;;;;;;;;37.297436;17.18955;76.79602;;849.1
1118.0;1002.8;;;;;;;;;;;;;;-0.20984527;0.17468795;-0.042054508;;;;;849.1
1118.0;1002.8;;;;;;;;;;;;;;;;;34.9971;13.7371435;85.482346;;849.1
1118.0;1002.8;;;;;;;;;;;;;;-0.20667134;0.15240943;-0.018555254;;;;;849.1
1118.0;1002.8;;;;;;;;;;;;;;;;;31.132694;8.152257;93.00516;;858.8
1118.0;1002.8;;;;;;;;;;;;;;-0.18799402;0.13550219;-0.006653035;;;;;858.8
1118.0;1002.8;;;;;;;;;;;;;;;;;23.609882;3.1472213;99.53993;;858.8
1118.0;1002.8;;;;;;;;;;;;;;-0.20087282;0.11023286;0.012207404;;;;;858.8
1118.0;1003.9;;;;;;;;;;;;;;;;;14.423811;-3.318888;104.84634;;868.4
1118.0;1003.9;;;;;;;;;;;;;;-0.2059389;0.09411909;-0.0015259255;;;;;868.4
1118.0;1003.9;;;;;;;;;;;;;;;;;3.646962;-7.9348125;109.813225;;868.4
1118.0;1003.9;;;;;;;;;;;;;;-0.19995728;0.050294504;-0.010742515;;;;;868.4
1118.0;1003.9;;;;;;;;;;;;;;;;;-6.7712946;-9.868922;111.10263;;878.0
1118.0;1003.9;;;;;;;;;;;;;;-0.18317209;-0.08948027;0.044068728;;;;;878.0
1118.0;1003.9;;;;;;;;;;;;;;;;;-18.94055;-9.346293;106.26545;;878.0
1118.0;1003.9;;;;;;;;;;;;;;-0.19745475;-0.3449202;0.08990753;;;;;878.0
1118.0;1003.9;;;;;;;;;;;;;;;;;-43.084507;1.6747032;96.572014;;887.6
1118.0;1003.9;;;;;;;;;;;;;;-0.2639851;-0.6946013;0.006836146;;;;;887.6
1118.0;1003.9;;;;;;;;;;;;;;;;;-76.13987;23.674734;86.53523;;887.6
1118.0;1003.9;;;;;;;;;;;;;;-0.3679922;-0.99435407;-0.24011964;;;;;887.6
1241.0;1063.2;;;;;;;;;;;;;;;;;-112.07922;52.55669;73.60301;;897.2
1241.0;1063.2;;;;;;;;;;;;;;-0.41547897;-1.1885738;-0.6544389;;;;;897.2
1241.0;1063.2;;;;;;;;;;;;;;;;;-124.90082;94.00464;50.431835;;897.2
1241.0;1063.2;;;;;;;;;;;;;;-0.46052432;-1.3912168;-1.1711173;;;;;897.2
1241.0;1063.2;;;;;;;;;;;;;;;;;-124.988556;123.481705;24.403364;;906.6
1241.0;1063.2;;;;;;;;;;;;;;-0.6148259;-1.3920712;-1.269631;;;;;906.6
1241.0;1063.2;;;;;;;;;;;;;;;;;-124.988556;124.988556;26.882992;;906.6
1241.0;1063.2;;;;;;;;;;;;;;-0.7698599;-1.2405164;-1.3251747;;;;;906.6
1241.0;1063.2;;;;;;;;;;;;;;;;;-124.988556;123.67245;61.46046;;916.3
1241.0;1063.2;;;;;;;;;;;;;;-1.0721152;-0.9895322;-1.1520737;;;;;916.3
1241.0;1063.2;;;;;;;;;;;;;;;;;-124.988556;89.35056;95.599236;;916.3
1241.0;1063.2;;;;;;;;;;;;;;-1.3595996;-0.6785485;-0.992584;;;;;916.3
1241.0;1064.0;;;;;;;;;;;;;;;;;-124.74441;31.666767;115.93219;;926.0
1241.0;1064.0;;;;;;;;;;;;;;-1.6506852;-0.6203803;-1.0265206;;;;;926.0
1241.0;1064.0;;;;;;;;;;;;;;;;;-100.05493;-5.539109;124.90845;;926.0
1241.0;1064.0;;;;;;;;;;;;;;-1.9627674;-0.9058504;-1.0923796;;;;;926.0
1241.0;1064.0;;;;;;;;;;;;;;;;;-9.392072;-16.834774;122.466965;;935.7
1241.0;1064.0;;;;;;;;;;;;;;-1.9998169;-1.2503433;-0.70381784;;;;;935.7
1241.0;1064.0;;;;;;;;;;;;;;;;;63.154243;-18.35307;81.67898;;935.7
1241.0;1064.0;;;;;;;;;;;;;;-1.9720451;-1.4459059;0.042725913;;;;;935.7
1241.0;1064.0;;;;;;;;;;;;;;;;;38.762325;-20.096437;12.68807;;945.3
1241.0;1064.0;;;;;;;;;;;;;;-1.398175;-1.2766503;0.23633534;;;;;945.3
1241.0;1064.0;;;;;;;;;;;;;;;;;0.39674062;-0.8087405;-14.469588;;945.3
1241.0;1064.0;;;;;;;;;;;;;;-1.3730277;-1.5376446;-0.014282662;;;;;945.3
1301.0;1123.5;;;;;;;;;;;;;;;;;-3.5058138;22.797327;-27.15766;;954.9
1301.0;1123.5;;;;;;;;;;;;;;-1.5197607;-1.7644582;0.042664878;;;;;954.9
1301.0;1123.5;;;;;;;;;;;;;;;;;5.22248;2.3537402;-20.840326;;954.9
1301.0;1123.5;;;;;;;;;;;;;;-1.0983001;-1.4752648;-0.11694693;;;;;954.9
1301.0;1123.5;;;;;;;;;;;;;;;;;6.8323317;4.8829613;0.7438887;;964.5
1301.0;1123.5;;;;;;;;;;;;;;-0.76094854;-1.2615131;-0.25861385;;;;;964.5
1301.0;1123.5;;;;;;;;;;;;;;;;;15.663626;34.93606;15.926847;;964.5
1301.0;1123.5;;;;;;;;;;;;;;-0.6531571;-1.1291238;-0.18518631;;;;;964.5
1301.0;1123.5;;;;;;;;;;;;;;;;;19.909512;39.822838;34.638508;;974.0
1301.0;1123.5;;;;;;;;;;;;;;-0.56160164;-1.0320749;-0.16583759;;;;;974.0
1301.0;1123.5;;;;;;;;;;;;;;;;;16.48381;30.552843;57.01239;;974.0
1301.0;1123.5;;;;;;;;;;;;;;-0.46467483;-0.82613605;-0.17200232;;;;;974.0
1302.0;1124.3;;;;;;;;;;;;;;;;;13.843959;23.010956;89.36964;;983.7
1302.0;1124.3;;;;;;;;;;;;;;-0.4074221;-0.6073794;-0.1262856;;;;;983.7
1302.0;1124.3;;;;;;;;;;;;;;;;;18.677328;15.163884;117.48863;;983.7
1302.0;1124.3;;;;;;;;;;;;;;-0.42518386;-0.40668964;-0.08020265;;;;;983.7
1302.0;1124.3;;;;;;;;;;;;;;;;;24.819178;16.472366;124.85122;;993.4
1302.0;1124.3;;;;;;;;;;;;;;-0.48762473;-0.25446334;-0.17102572;;;;;993.4
1302.0;1124.3;;;;;;;;;;;;;;;;;25.894955;37.701805;124.988556;;993.4
1302.0;1124.3;;;;;;;;;;;;;;-0.610065;-0.1734672;-0.26325268;;;;;993.4
1302.0;1124.3;;;;;;;;;;;;;;;;;20.226141;54.651024;124.988556;;1003.0
1302.0;1124.3;;;;;;;;;;;;;;-0.80916774;-0.19135106;-0.2738731;;;;;1003.0
1302.0;1124.3;;;;;;;;;;;;;;;;;12.096774;46.06006;124.988556;;1003.0
1302.0;1124.3;;;;;;;;;;;;;;-0.99343854;-0.21192053;-0.2727134;;;;;1003.0
1302.0;1129.7;;;;0.0;0.0;0.0;;;;;;;;;;;;;;;
1302.0;1129.7;;;;-0.14468385;0.4823647;0.19410327;;;;;;;;;;;;;;;
1302.0;1129.7;;;;-0.46758658;1.3284837;0.46059424;;;;;;;;;;;;;;;
1302.0;1129.7;;;;-0.47347265;1.3710672;0.44302374;;;;;;;;;;;;;;;
1302.0;1129.7;;;;-0.472786;1.3865396;0.42638785;;;;;;;;;;;;;;;
1302.0;1139.6;;;;-0.4526673;1.4050523;0.4130898;;;;;;;;;;;;;;;
1302.0;1139.6;;;;-0.44009024;1.4201127;0.39506918;;;;;;;;;;;;;;;
1302.0;1139.6;;;;-0.43029028;1.4315301;0.37705237;;;;;;;;;;;;;;;
1302.0;1139.6;;;;-0.40619284;1.450226;0.36262515;;;;;;;;;;;;;;;
1302.0;1139.6;;;;-0.39089972;1.4698907;0.34731296;;;;;;;;;;;;;;;
1304.0;1140.8;57467;57539;12949;;;;;;;;;;;;;;;;;;
1304.0;1149.6;;;;-0.37272266;1.4919397;0.33013156;;;;;;;;;;;;;;;
1304.0;1149.6;;;;-0.3483124;1.5194972;0.31834033;;;;;;;;;;;;;;;
1304.0;1149.6;;;;-0.3212929;1.5464861;0.30392078;;;;;;;;;;;;;;;
1304.0;1149.6;;;;-0.31388476;1.5630381;0.28757098;;;;;;;;;;;;;;;
1304.0;1149.6;;;;-0.29439166;1.5838892;0.27444842;;;;;;;;;;;;;;;
1304.0;1159.8;;;;-0.26025775;1.6067622;0.2642441;;;;;;;;;;;;;;;
1304.0;1159.8;;;;-0.23919299;1.6271746;0.25032046;;;;;;;;;;;;;;;
1304.0;1159.8;;;;-0.22397617;1.6451304;0.23712161;;;;;;;;;;;;;;;
1304.0;1159.8;;;;-0.20067981;1.6637194;0.22574237;;;;;;;;;;;;;;;
1304.0;1159.8;;;;-0.1845131;1.6794589;0.2124863;;;;;;;;;;;;;;;
1304.0;1161.1;73830;73866;12964;;;;;;;;;;;;;;;;;;
1304.0;1167.5;;;;;;;;;;;;;0;;;;;;;;
1304.0;1167.5;;;;;;;;;;;;;0;;;;;;;;
1304.0;1167.5;;;;;;;;;;;;;-1;;;;;;;;
1304.0;1167.5;;;;;;;;;;;;;-2;;;;;;;;
1304.0;1167.5;;;;;;;;;;;;;-3;;;;;;;;
1304.0;1169.9;;;;-0.18024446;1.6934893;0.19807056;;;;;;;;;;;;;;;
1304.0;1169.9;;;;-0.17755128;1.7077601;0.18462755;;;;;;;;;;;;;;;
1304.0;1169.9;;;;-0.16710283;1.7252085;0.17436601;;;;;;;;;;;;;;;
1304.0;1169.9;;;;-0.16607668;1.7396891;0.16390993;;;;;;;;;;;;;;;
1304.0;1169.9;;;;-0.16746904;1.748604;0.15464403;;;;;;;;;;;;;;;
1305.0;1180.0;;;;-0.15964891;1.7627223;0.15015794;;;;;;;;;;;;;;;
1305.0;1180.0;;;;-0.15616609;1.7775462;0.14465334;;;;;;;;;;;;;;;
1305.0;1180.0;;;;-0.15412141;1.7917941;0.14131166;;;;;;;;;;;;;;;
1305.0;1180.0;;;;-0.15078737;1.8036425;0.1367264;;;;;;;;;;;;;;;
1305.0;1180.0;;;;-0.14731218;1.8161509;0.13475038;;;;;;;;;;;;;;;
1305.0;1181.4;90294;90168;12979;;;;;;;;;;;;;;;;;;
1305.0;1184.3;;;;;;;;;;;;;;;;;2.193518;26.31077;124.988556;;1012.6
1305.0;1184.3;;;;;;;;;;;;;;-1.0797448;-0.20020142;-0.31897947;;;;;1012.6
1305.0;1184.3;;;;;;;;;;;;;;;;;-7.9462566;16.762293;124.89319;;1012.6
1305.0;1184.3;;;;;;;;;;;;;;-1.1732535;-0.21381268;-0.35987428;;;;;1012.6
1305.0;1184.3;;;;;;;;;;;;;;;;;-18.429365;11.616108;122.90566;;1022.1
1305.0;1184.3;;;;;;;;;;;;;;-1.2706076;-0.24085207;-0.42023987;;;;;1022.1
1305.0;1184.3;;;;;;;;;;;;;;;;;-22.228918;5.6001463;119.99496;;1022.1
1305.0;1184.3;;;;;;;;;;;;;;-1.3564867;-0.28199103;-0.45600757;;;;;1022.1
1305.0;1184.3;;;;;;;;;;;;;;;;;-18.478958;-3.9559617;118.43089;;1031.6
1305.0;1184.3;;;;;;;;;;;;;;-1.4210029;-0.33533737;-0.45997497;;;;;1031.6
1305.0;1184.3;;;;;;;;;;;;;;;;;-10.696738;-14.435255;115.48204;;1031.6
1305.0;1184.3;;;;;;;;;;;;;;-1.4461501;-0.3800775;-0.43159276;;;;;1031.6
1306.0;1185.1;;;;;;;;;;;;;;;;;-5.1690726;-21.435438;107.57775;;1041.1
1306.0;1185.1;;;;;;;;;;;;;;-1.424482;-0.43458357;-0.40845972;;;;;1041.1
1306.0;1185.1;;;;;;;;;;;;;;;;;-5.565813;-20.355846;93.31034;;1041.1
1306.0;1185.1;;;;;;;;;;;;;;-1.2940458;-0.44465467;-0.39387187;;;;;1041.1
1306.0;1185.1;;;;;;;;;;;;;;;;;-12.558367;-16.296885;83.39183;;1050.8
1306.0;1185.1;;;;;;;;;;;;;;-1.0883511;-0.43873408;-0.4193243;;;;;1050.8
1306.0;1185.1;;;;;;;;;;;;;;;;;-23.113956;-10.738701;83.09427;;1050.8
1306.0;1185.1;;;;;;;;;;;;;;-0.9607227;-0.4558855;-0.47627187;;;;;1050.8
1306.0;1185.1;;;;;;;;;;;;;;;;;-29.576252;-3.2731102;86.325424;;1060.5
1306.0;1185.1;;;;;;;;;;;;;;-0.9297159;-0.46852016;-0.5007477;;;;;1060.5
1306.0;1185.1;;;;;;;;;;;;;;;;;-31.693474;1.0376294;87.77124;;1060.5
1306.0;1185.1;;;;;;;;;;;;;;-0.9175695;-0.4676046;-0.49720755;;;;;1060.5
1306.0;1190.0;;;;-0.14362718;1.8296435;0.13230897;;;;;;;;;;;;;;;
1306.0;1190.0;;;;-0.14125444;1.84396;0.13079835;;;;;;;;;;;;;;;
1306.0;1190.0;;;;-0.14086534;1.8581965;0.12969209;;;;;;;;;;;;;;;
1306.0;1190.0;;;;-0.14276125;1.8721278;0.13075258;;;;;;;;;;;;;;;
1306.0;1190.0;;;;-0.14127351;1.8862422;0.12962343;;;;;;;;;;;;;;;
1306.0;1200.0;;;;-0.13685228;1.8974688;0.1289406;;;;;;;;;;;;;;;
1306.0;1200.0;;;;-0.13816072;1.9097064;0.12850572;;;;;;;;;;;;;;;
1306.0;1200.0;;;;-0.13626863;1.9189303;0.12895586;;;;;;;;;;;;;;;
1306.0;1200.0;;;;-0.13487245;1.9246676;0.13000108;;;;;;;;;;;;;;;
1306.0;1200.0;;;;-0.1340294;1.9322283;0.12969972;;;;;;;;;;;;;;;
1306.0;1201.4;106747;106624;12992;;;;;;;;;;;;;;;;;;
1308.0;1207.8;;;;;;;;;;;;;-6;;;;;;;;
1308.0;1207.8;;;;;;;;;;;;;-6;;;;;;;;
1308.0;1207.8;;;;;;;;;;;;;-10;;;;;;;;
1308.0;1207.8;;;;;;;;;;;;;-14;;;;;;;;
1308.0;1207.8;;;;;;;;;;;;;-11;;;;;;;;
1308.0;1209.9;;;;-0.13058473;1.9413722;0.1317177;;;;;;;;;;;;;;;
1308.0;1209.9;;;;-0.124618545;1.9485476;0.1370926;;;;;;;;;;;;;;;
1308.0;1209.9;;;;-0.12459566;1.9589274;0.14265825;;;;;;;;;;;;;;;
1308.0;1209.9;;;;-0.12216188;1.967953;0.14684679;;;;;;;;;;;;;;;
1308.0;1209.9;;;;-0.117431656;1.9752123;0.1524315;;;;;;;;;;;;;;;
1308.0;1220.0;;;;-0.116058365;1.9802363;0.15761568;;;;;;;;;;;;;;;
1308.0;1220.0;;;;-0.11196138;1.9846804;0.16470338;;;;;;;;;;;;;;;
1308.0;1220.0;;;;-0.11052324;1.990948;0.17163087;;;;;;;;;;;;;;;
1308.0;1220.0;;;;-0.10425188;1.9935648;0.17818834;;;;;;;;;;;;;;;
1308.0;1220.0;;;;-0.099475875;1.9969676;0.18678667;;;;;;;;;;;;;;;
1308.0;1221.5;123014;123024;13024;;;;;;;;;;;;;;;;;;
1308.0;1230.1;;;;-0.09522249;1.9999964;0.19507602;;;;;;;;;;;;;;;
1308.0;1230.1;;;;-0.095390335;1.9999964;0.20487598;;;;;;;;;;;;;;;
1308.0;1230.1;;;;-0.097015396;1.9999964;0.21418384;;;;;;;;;;;;;;;
1308.0;1230.1;;;;-0.092651375;1.9999964;0.22436908;;;;;;;;;;;;;;;
1308.0;1230.1;;;;-0.090450294;1.9999964;0.2329674;;;;;;;;;;;;;;;
1309.0;1240.2;;;;-0.09321595;1.9999964;0.24178699;;;;;;;;;;;;;;;
1309.0;1240.2;;;;-0.09480287;1.9999812;0.25233462;;;;;;;;;;;;;;;
1309.0;1240.2;;;;-0.09812166;1.9983599;0.2647591;;;;;;;;;;;;;;;
1309.0;1240.2;;;;-0.10286714;1.9963648;0.27310184;;;;;;;;;;;;;;;
1309.0;1240.2;;;;-0.111087814;1.9915354;0.28424075;;;;;;;;;;;;;;;
1309.0;1241.8;139388;139415;13057;;;;;;;;;;;;;;;;;;
1309.0;1244.1;;;;;;;;;;;;;;;;;-33.452103;2.0409255;87.22953;;1070.2
1309.0;1244.1;;;;;;;;;;;;;;-0.911771;-0.46998504;-0.49073765;;;;;1070.2
1309.0;1244.1;;;;;;;;;;;;;;;;;-34.35621;1.2169256;85.867645;;1070.2
1309.0;1244.1;;;;;;;;;;;;;;-0.92477185;-0.4735252;-0.47676015;;;;;1070.2
1309.0;1244.1;;;;;;;;;;;;;;;;;-35.279396;-0.839259;85.46709;;1079.7
1309.0;1244.1;;;;;;;;;;;;;;-0.9429609;-0.47926268;-0.46906948;;;;;1079.7
1309.0;1244.1;;;;;;;;;;;;;;;;;-35.252693;-3.276925;85.52049;;1079.7
1309.0;1244.1;;;;;;;;;;;;;;-0.9522996;-0.48384044;-0.4603412;;;;;1079.7
1309.0;1244.1;;;;;;;;;;;;;;;;;-35.4091;-4.627369;86.725975;;1089.5
1309.0;1244.1;;;;;;;;;;;;;;-0.9686575;-0.49092075;-0.45484787;;;;;1089.5
1309.0;1244.1;;;;;;;;;;;;;;;;;-34.63088;-5.6192203;88.526566;;1089.5
1309.0;1244.1;;;;;;;;;;;;;;-0.9790948;-0.49012727;-0.4522843;;;;;1089.5
1310.0;1244.9;;;;;;;;;;;;;;;;;-33.406326;-6.6072574;90.43397;;1099.1
1310.0;1244.9;;;;;;;;;;;;;;-0.9884335;-0.49165317;-0.45081943;;;;;1099.1
1310.0;1244.9;;;;;;;;;;;;;;;;;-31.502731;-6.8437757;92.49397;;1099.1
1310.0;1244.9;;;;;;;;;;;;;;-0.9898984;-0.49049348;-0.44782862;;;;;1099.1
1310.0;1244.9;;;;;;;;;;;;;;;;;-29.37025;-7.038331;94.5883;;1108.7
1310.0;1244.9;;;;;;;;;;;;;;-0.99038666;-0.49171424;-0.4318369;;;;;1108.7
1310.0;1244.9;;;;;;;;;;;;;;;;;-27.695547;-8.014924;96.63305;;1108.7
1310.0;1244.9;;;;;;;;;;;;;;-0.98330635;-0.48670918;-0.41969055;;;;;1108.7
1310.0;1244.9;;;;;;;;;;;;;;;;;-26.84103;-9.102145;97.96442;;1118.3
1310.0;1244.9;;;;;;;;;;;;;;-0.96499527;-0.48500016;-0.41468552;;;;;1118.3
1310.0;1244.9;;;;;;;;;;;;;;;;;-26.741844;-9.563738;98.57098;;1118.3
1310.0;1244.9;;;;;;;;;;;;;;-0.94497514;-0.47853023;-0.4049196;;;;;1118.3
1310.0;1247.9;;;;;;;;;;;;;-23;;;;;;;;
1310.0;1247.9;;;;;;;;;;;;;-12;;;;;;;;
1310.0;1247.9;;;;;;;;;;;;;-19;;;;;;;;
1310.0;1247.9;;;;;;;;;;;;;-49;;;;;;;;
1310.0;1247.9;;;;;;;;;;;;;28;;;;;;;;
1310.0;1250.1;;;;-0.11995317;1.9893076;0.29452136;;;;;;;;;;;;;;;
1310.0;1250.1;;;;-0.1310425;1.9853213;0.3042374;;;;;;;;;;;;;;;
1310.0;1250.1;;;;-0.13840105;1.982075;0.31734088;;;;;;;;;;;;;;;
1310.0;1250.1;;;;-0.13886644;1.9757197;0.32695773;;;;;;;;;;;;;;;
1310.0;1250.1;;;;-0.14662553;1.9674647;0.33747485;;;;;;;;;;;;;;;
1360.0;1260.1;;;;-0.15975572;1.9582446;0.34733966;;;;;;;;;;;;;;;
1360.0;1260.1;;;;-0.17186739;1.9526598;0.35480884;;;;;;;;;;;;;;;
1360.0;1260.1;;;;-0.1806183;1.94574;0.36385348;;;;;;;;;;;;;;;
1360.0;1260.1;;;;-0.19480518;1.9392779;0.3685036;;;;;;;;;;;;;;;
1360.0;1260.1;;;;-0.20127109;1.9341929;0.3735657;;;;;;;;;;;;;;;
1360.0;1261.7;155829;155712;13084;;;;;;;;;;;;;;;;;;
1360.0;1270.1;;;;-0.21976474;1.9255946;0.37560278;;;;;;;;;;;;;;;
1360.0;1270.1;;;;-0.23351672;1.9127886;0.37571722;;;;;;;;;;;;;;;
1360.0;1270.1;;;;-0.24739459;1.9006617;0.37694937;;;;;;;;;;;;;;;
1360.0;1270.1;;;;-0.26877216;1.8849566;0.37931448;;;;;;;;;;;;;;;
1360.0;1270.1;;;;-0.28675845;1.8684695;0.38404852;;;;;;;;;;;;;;;
1360.0;1280.0;;;;-0.29970172;1.8549273;0.3865357;;;;;;;;;;;;;;;
1360.0;1280.0;;;;-0.31125262;1.847687;0.3887444;;;;;;;;;;;;;;;
1360.0;1280.0;;;;-0.3208275;1.8383486;0.38763815;;;;;;;;;;;;;;;
1360.0;1280.0;;;;-0.3424988;1.8332942;0.38597113;;;;;;;;;;;;;;;
1360.0;1280.0;;;;-0.36586002;1.8261378;0.38222128;;;;;;;;;;;;;;;
1360.0;1281.6;172182;172243;13104;;;;;;;;;;;;;;;;;;
1360.0;1288.0;;;;;;;;;;;;;51;;;;;;;;
1360.0;1288.0;;;;;;;;;;;;;-166;;;;;;;;
1360.0;1288.0;;;;;;;;;;;;;-179;;;;;;;;
1360.0;1288.0;;;;;;;;;;;;;368;;;;;;;;
1360.0;1288.0;;;;;;;;;;;;;1005;;;;;;;;
1362.0;1290.1;;;;-0.37995917;1.8143198;0.37727362;;;;;;;;;;;;;;;
1362.0;1290.1;;;;-0.39905173;1.7984927;0.37129596;;;;;;;;;;;;;;;
1362.0;1290.1;;;;-0.4206925;1.7809107;0.36310962;;;;;;;;;;;;;;;
1362.0;1290.1;;;;-0.43088156;1.7635462;0.35813907;;;;;;;;;;;;;;;
1362.0;1290.1;;;;-0.43793112;1.7468989;0.35304645;;;;;;;;;;;;;;;
1362.0;1300.3;;;;-0.44220358;1.7332652;0.35129932;;;;;;;;;;;;;;;
1362.0;1300.3;;;;-0.443821;1.7266886;0.34778216;;;;;;;;;;;;;;;
1362.0;1300.3;;;;-0.44797903;1.7205431;0.33814242;;;;;;;;;;;;;;;
1362.0;1300.3;;;;-0.45124823;1.7114756;0.32726672;;;;;;;;;;;;;;;
1362.0;1300.3;;;;-0.4529572;1.7035029;0.31647113;;;;;;;;;;;;;;;
1362.0;1301.9;188545;188498;13114;;;;;;;;;;;;;;;;;;
1362.0;1304.8;;;;;;;;;;;;;;;;;-26.61977;-11.215552;99.02875;;1128.0
1362.0;1304.8;;;;;;;;;;;;;;-0.9328898;-0.4746849;-0.3905759;;;;;1128.0
1362.0;1304.8;;;;;;;;;;;;;;;;;-26.882992;-13.4167;99.60478;;1128.0
1362.0;1304.8;;;;;;;;;;;;;;-0.9208655;-0.4629658;-0.379223;;;;;1128.0
1362.0;1304.8;;;;;;;;;;;;;;;;;-27.34077;-14.866329;100.76449;;1137.6
1362.0;1304.8;;;;;;;;;;;;;;-0.911771;-0.45197913;-0.36872464;;;;;1137.6
1362.0;1304.8;;;;;;;;;;;;;;;;;-26.863918;-16.563921;101.695305;;1137.6
1362.0;1304.8;;;;;;;;;;;;;;-0.9121372;-0.4329966;-0.3554796;;;;;1137.6
1362.0;1304.8;;;;;;;;;;;;;;;;;-26.177252;-18.219551;102.381966;;1147.1
1362.0;1304.8;;;;;;;;;;;;;;-0.91415143;-0.41151157;-0.352855;;;;;1147.1
1362.0;1304.8;;;;;;;;;;;;;;;;;-25.608845;-19.207588;102.324745;;1147.1
1362.0;1304.8;;;;;;;;;;;;;;-0.9284341;-0.39436018;-0.34626302;;;;;1147.1
1364.0;1310.3;;;;-0.44700247;1.6957324;0.30376056;;;;;;;;;;;;;;;
1364.0;1310.3;;;;-0.44268042;1.688309;0.29452518;;;;;;;;;;;;;;;
1364.0;1310.3;;;;-0.4476052;1.6819537;0.28125766;;;;;;;;;;;;;;;
1364.0;1310.3;;;;-0.4347611;1.6719706;0.26951602;;;;;;;;;;;;;;;
1364.0;1310.3;;;;-0.42602164;1.6600802;0.2571793;;;;;;;;;;;;;;;
1364.0;1311.8;;;;;;;;;;;;;;;;;-25.372326;-21.595661;100.98956;;1156.8
1364.0;1311.8;;;;;;;;;;;;;;-0.93362224;-0.3797113;-0.34467605;;;;;1156.8
1364.0;1311.8;;;;;;;;;;;;;;;;;-26.280252;-24.208809;100.16174;;1156.8
1364.0;1311.8;;;;;;;;;;;;;;-0.9308756;-0.36298716;-0.34235665;;;;;1156.8
1364.0;1311.8;;;;;;;;;;;;;;;;;-28.893398;-26.326029;99.65437;;1166.5
1364.0;1311.8;;;;;;;;;;;;;;-0.9261147;-0.36036256;-0.3477279;;;;;1166.5
1364.0;1311.8;;;;;;;;;;;;;;;;;-30.926695;-28.160954;98.44127;;1166.5
1364.0;1311.8;;;;;;;;;;;;;;-0.9137242;-0.35462508;-0.35901976;;;;;1166.5
1364.0;1311.8;;;;;;;;;;;;;;;;;-33.3224;-28.695028;97.22053;;1176.0
1364.0;1311.8;;;;;;;;;;;;;;-0.8998688;-0.34986418;-0.364391;;;;;1176.0
1364.0;1311.8;;;;;;;;;;;;;;;;;-35.668507;-29.21003;96.24012;;1176.0
1364.0;1311.8;;;;;;;;;;;;;;-0.88412124;-0.3483993;-0.37220374;;;;;1176.0
1364.0;1320.1;;;;-0.4122544;1.6479113;0.24435809;;;;;;;;;;;;;;;
1364.0;1320.1;;;;-0.39884192;1.6327021;0.22864917;;;;;;;;;;;;;;;
1364.0;1320.1;;;;-0.38760382;1.6180537;0.21676257;;;;;;;;;;;;;;;
1364.0;1320.1;;;;-0.37771994;1.6039355;0.20094302;;;;;;;;;;;;;;;
1364.0;1320.1;;;;-0.36412814;1.5911219;0.18423845;;;;;;;;;;;;;;;
1364.0;1321.8;204961;204938;13117;;;;;;;;;;;;;;;;;;
1480.0;1328.1;;;;;;;;;;;;;1010;;;;;;;;
1480.0;1328.1;;;;;;;;;;;;;402;;;;;;;;
1480.0;1328.1;;;;;;;;;;;;;-246;;;;;;;;
1480.0;1328.1;;;;;;;;;;;;;-594;;;;;;;;
1480.0;1328.1;;;;;;;;;;;;;-937;;;;;;;;
1480.0;1330.2;;;;-0.3506966;1.5766528;0.1624489;;;;;;;;;;;;;;;
1480.0;1330.2;;;;-0.32873157;1.5602534;0.14124681;;;;;;;;;;;;;;;
1480.0;1330.2;;;;-0.31489947;1.5485346;0.12469484;;;;;;;;;;;;;;;
1480.0;1330.2;;;;-0.3007088;1.5385325;0.11003877;;;;;;;;;;;;;;;
1480.0;1330.2;;;;-0.28321078;1.5315135;0.09349824;;;;;;;;;;;;;;;
1480.0;1340.3;;;;-0.26577762;1.5242617;0.07602311;;;;;;;;;;;;;;;
1480.0;1340.3;;;;-0.2508469;1.5174677;0.06009675;;;;;;;;;;;;;;;
1480.0;1340.3;;;;-0.23588184;1.5107195;0.045497898;;;;;;;;;;;;;;;
1480.0;1340.3;;;;-0.2216759;1.5029032;0.030025486;;;;;;;;;;;;;;;
1480.0;1340.3;;;;-0.20867923;1.4933664;0.01495743;;;;;;;;;;;;;;;
1480.0;1342.1;221358;221409;13113;;;;;;;;;;;;;;;;;;
1480.0;1350.4;;;;-0.19893268;1.483616;4.0817267E-4;;;;;;;;;;;;;;;
1480.0;1350.4;;;;-0.18767169;1.4741632;-0.01400757;;;;;;;;;;;;;;;
1480.0;1350.4;;;;-0.17469408;1.4638025;-0.029472355;;;;;;;;;;;;;;;
1480.0;1350.4;;;;-0.16239549;1.4522439;-0.04428864;;;;;;;;;;;;;;;
1480.0;1350.4;;;;-0.15142442;1.4401704;-0.057575233;;;;;;;;;;;;;;;
1482.0;1360.5;;;;-0.13984682;1.4282418;-0.06835938;;;;;;;;;;;;;;;
1482.0;1360.5;;;;-0.12596895;1.4163095;-0.07727433;;;;;;;;;;;;;;;
1482.0;1360.5;;;;-0.11508562;1.4025499;-0.088226326;;;;;;;;;;;;;;;
1482.0;1360.5;;;;-0.10322572;1.3876764;-0.098167434;;;;;;;;;;;;;;;
1482.0;1360.5;;;;-0.095901504;1.3715593;-0.108570114;;;;;;;;;;;;;;;
1482.0;1362.4;237679;237757;13118;;;;;;;;;;;;;;;;;;
1482.0;1364.8;;;;;;;;;;;;;;;;;-37.556843;-29.78988;95.00412;;1185.6
1482.0;1364.8;;;;;;;;;;;;;;-0.87655264;-0.35444197;-0.3706168;;;;;1185.6
1482.0;1364.8;;;;;;;;;;;;;;;;;-38.605915;-31.22425;93.100525;;1185.6
1482.0;1364.8;;;;;;;;;;;;;;-0.8655049;-0.36463514;-0.36292613;;;;;1185.6
1482.0;1364.8;;;;;;;;;;;;;;;;;-39.136173;-32.589954;90.76968;;1195.3
1482.0;1364.8;;;;;;;;;;;;;;-0.8521378;-0.37745294;-0.35114598;;;;;1195.3
1482.0;1364.8;;;;;;;;;;;;;;;;;-39.628284;-33.61614;88.747826;;1195.3
1482.0;1364.8;;;;;;;;;;;;;;-0.8428602;-0.38917205;-0.3432722;;;;;1195.3
1482.0;1364.8;;;;;;;;;;;;;;;;;-39.433727;-34.730064;86.210976;;1204.9
1482.0;1364.8;;;;;;;;;;;;;;-0.8319346;-0.39301735;-0.3399762;;;;;1204.9
1482.0;1364.8;;;;;;;;;;;;;;;;;-38.525806;-35.40147;83.174385;;1204.9
1482.0;1364.8;;;;;;;;;;;;;;-0.8217414;-0.39204076;-0.33228552;;;;;1204.9
1486.0;1365.5;;;;;;;;;;;;;;;;;-37.285988;-36.008026;80.49257;;1214.6
1486.0;1365.5;;;;;;;;;;;;;;-0.82180244;-0.40058595;-0.32557145;;;;;1214.6
1486.0;1365.5;;;;;;;;;;;;;;;;;-34.627064;-36.084324;77.01346;;1214.6
1486.0;1365.5;;;;;;;;;;;;;;-0.8114261;-0.4118778;-0.31958982;;;;;1214.6
1486.0;1365.5;;;;;;;;;;;;;;;;;-30.720694;-35.870693;73.801384;;1224.3
1486.0;1365.5;;;;;;;;;;;;;;-0.8037355;-0.40638447;-0.30774865;;;;;1224.3
1486.0;1365.5;;;;;;;;;;;;;;;;;-26.955475;-36.202583;70.749535;;1224.3
1486.0;1365.5;;;;;;;;;;;;;;-0.7958006;-0.40583515;-0.29621264;;;;;1224.3
1486.0;1365.5;;;;;;;;;;;;;;;;;-23.903624;-36.538284;67.8579;;1233.9
1486.0;1365.5;;;;;;;;;;;;;;-0.77968687;-0.39051485;-0.28650776;;;;;1233.9
1486.0;1365.5;;;;;;;;;;;;;;;;;-21.706291;-36.118656;65.34776;;1233.9
1486.0;1365.5;;;;;;;;;;;;;;-0.7572863;-0.36921293;-0.28357798;;;;;1233.9
1486.0;1368.4;;;;;;;;;;;;;-1516;;;;;;;;
1486.0;1368.4;;;;;;;;;;;;;-1923;;;;;;;;
1486.0;1368.4;;;;;;;;;;;;;-1924;;;;;;;;
1486.0;1368.4;;;;;;;;;;;;;-1910;;;;;;;;
1486.0;1368.4;;;;;;;;;;;;;-2136;;;;;;;;
1486.0;1370.4;;;;-0.086837776;1.3543168;-0.11835863;;;;;;;;;;;;;;;
1486.0;1370.4;;;;-0.08542252;1.3368379;-0.12788011;;;;;;;;;;;;;;;
1486.0;1370.4;;;;-0.090061195;1.3195382;-0.13724901;;;;;;;;;;;;;;;
1486.0;1370.4;;;;-0.093025215;1.3032495;-0.14699937;;;;;;;;;;;;;;;
1486.0;1370.4;;;;-0.10280229;1.2879258;-0.1558037;;;;;;;;;;;;;;;
1488.0;1380.5;;;;-0.10942842;1.2747194;-0.16305925;;;;;;;;;;;;;;;
1488.0;1380.5;;;;-0.12003328;1.2628556;-0.17056657;;;;;;;;;;;;;;;
1488.0;1380.5;;;;-0.12553789;1.2535516;-0.17724992;;;;;;;;;;;;;;;
1488.0;1380.5;;;;-0.12311937;1.2447587;-0.18358995;;;;;;;;;;;;;;;
1488.0;1380.5;;;;-0.12779619;1.2354203;-0.18799594;;;;;;;;;;;;;;;
1488.0;1382.4;254110;254140;13118;;;;;;;;;;;;;;;;;;
1488.0;1390.6;;;;-0.11951448;1.2267305;-0.19007114;;;;;;;;;;;;;;;
1488.0;1390.6;;;;-0.115734115;1.2188569;-0.19189456;;;;;;;;;;;;;;;
1488.0;1390.6;;;;-0.11356355;1.2115709;-0.1922951;;;;;;;;;;;;;;;
1488.0;1390.6;;;;-0.1087227;1.2052537;-0.19138339;;;;;;;;;;;;;;;
1488.0;1390.6;;;;-0.09793855;1.1984254;-0.18926623;;;;;;;;;;;;;;;
1488.0;1400.7;;;;-0.08996583;1.190796;-0.1868477;;;;;;;;;;;;;;;
1488.0;1400.7;;;;-0.08432389;1.183323;-0.183033;;;;;;;;;;;;;;;
1488.0;1400.7;;;;-0.08457566;1.1767274;-0.18016817;;;;;;;;;;;;;;;
1488.0;1400.7;;;;-0.08582307;1.1735765;-0.17696;;;;;;;;;;;;;;;
1488.0;1400.7;;;;-0.08869172;1.1730539;-0.17382814;;;;;;;;;;;;;;;
1488.0;1402.7;262143;262143;13116;;;;;;;;;;;;;;;;;;
1488.0;1408.9;;;;;;;;;;;;;-2504;;;;;;;;
1488.0;1408.9;;;;;;;;;;;;;-2819;;;;;;;;
1488.0;1408.9;;;;;;;;;;;;;-2972;;;;;;;;
1488.0;1408.9;;;;;;;;;;;;;-3107;;;;;;;;
1488.0;1408.9;;;;;;;;;;;;;-3288;;;;;;;;
1491.0;1410.8;;;;-0.09302903;1.1748391;-0.17029573;;;;;;;;;;;;;;;
1491.0;1410.8;;;;-0.10103227;1.1768609;-0.16632082;;;;;;;;;;;;;;;
1491.0;1410.8;;;;-0.10699083;1.1779481;-0.15937044;;;;;;;;;;;;;;;
1491.0;1410.8;;;;-0.11507417;1.1799966;-0.1554146;;;;;;;;;;;;;;;
1491.0;1410.8;;;;-0.124755874;1.1828996;-0.15077211;;;;;;;;;;;;;;;
1491.0;1421.0;;;;-0.12359621;1.1873857;-0.1477852;;;;;;;;;;;;;;;
1491.0;1421.0;;;;-0.124919906;1.1902505;-0.14346696;;;;;;;;;;;;;;;
1491.0;1421.0;;;;-0.12327959;1.1913568;-0.13548662;;;;;;;;;;;;;;;
1491.0;1421.0;;;;-0.117870346;1.1900941;-0.12833025;;;;;;;;;;;;;;;
1491.0;1421.0;;;;-0.11576845;1.1851121;-0.12511827;;;;;;;;;;;;;;;
1491.0;1423.0;262143;262143;13121;;;;;;;;;;;;;;;;;;
1491.0;1431.1;;;;-0.114036575;1.1786958;-0.12181856;;;;;;;;;;;;;;;
1491.0;1431.1;;;;-0.11034776;1.1727067;-0.11606218;;;;;;;;;;;;;;;
1491.0;1431.1;;;;-0.109115615;1.1670991;-0.11054994;;;;;;;;;;;;;;;
1491.0;1431.1;;;;-0.10909654;1.1616441;-0.10564043;;;;;;;;;;;;;;;
1491.0;1431.1;;;;-0.10498048;1.1544;-0.09942247;;;;;;;;;;;;;;;
1491.0;1441.2;;;;-0.09951021;1.1461297;-0.093009956;;;;;;;;;;;;;;;
1491.0;1441.2;;;;-0.09939195;1.1379358;-0.088184364;;;;;;;;;;;;;;;
1491.0;1441.2;;;;-0.094951645;1.1297303;-0.083938606;;;;;;;;;;;;;;;
1491.0;1441.2;;;;-0.092189796;1.1213914;-0.079933174;;;;;;;;;;;;;;;
1491.0;1441.2;;;;-0.09049607;1.1125413;-0.07567979;;;;;;;;;;;;;;;
1541.0;1443.2;262143;262143;13114;;;;;;;;;;;;;;;;;;
1541.0;1449.5;;;;;;;;;;;;;-3278;;;;;;;;
1541.0;1449.5;;;;;;;;;;;;;-2963;;;;;;;;
1541.0;1449.5;;;;;;;;;;;;;-2579;;;;;;;;
1541.0;1449.5;;;;;;;;;;;;;-2337;;;;;;;;
1541.0;1449.5;;;;;;;;;;;;;-2014;;;;;;;;
1541.0;1451.3;;;;-0.084068306;1.103386;-0.07018662;;;;;;;;;;;;;;;
1541.0;1451.3;;;;-0.08504868;1.0944101;-0.06570435;;;;;;;;;;;;;;;
1541.0;1451.3;;;;-0.08394242;1.086033;-0.06027604;;;;;;;;;;;;;;;
1541.0;1451.3;;;;-0.07949067;1.0776635;-0.056236275;;;;;;;;;;;;;;;
1541.0;1451.3;;;;-0.07932664;1.0678483;-0.053005226;;;;;;;;;;;;;;;
1541.0;1461.1;;;;-0.07187272;1.056286;-0.04774476;;;;;;;;;;;;;;;
1541.0;1461.1;;;;-0.07144166;1.0447885;-0.044601444;;;;;;;;;;;;;;;
1541.0;1461.1;;;;-0.06573487;1.0315439;-0.039859775;;;;;;;;;;;;;;;
1541.0;1461.1;;;;-0.066638954;1.0174829;-0.037193302;;;;;;;;;;;;;;;
1541.0;1461.1;;;;-0.059566505;1.0036432;-0.032966617;;;;;;;;;;;;;;;
1541.0;1463.2;262143;262143;13106;;;;;;;;;;;;;;;;;;
1541.0;1471.2;;;;-0.05555726;0.9892694;-0.030574802;;;;;;;;;;;;;;;
1541.0;1471.2;;;;-0.053920753;0.97332776;-0.027709965;;;;;;;;;;;;;;;
1541.0;1471.2;;;;-0.050422676;0.9573518;-0.025054935;;;;;;;;;;;;;;;
1541.0;1471.2;;;;-0.045089725;0.9397851;-0.022998812;;;;;;;;;;;;;;;
1541.0;1471.2;;;;-0.044811253;0.92305386;-0.021492006;;;;;;;;;;;;;;;
1598.0;1481.4;;;;-0.046695713;0.907158;-0.019737246;;;;;;;;;;;;;;;
1598.0;1481.4;;;;-0.04797364;0.89151776;-0.018058779;;;;;;;;;;;;;;;
1598.0;1481.4;;;;-0.045455936;0.87557614;-0.014404299;;;;;;;;;;;;;;;
1598.0;1481.4;;;;-0.046615604;0.859234;-0.010566712;;;;;;;;;;;;;;;
1598.0;1481.4;;;;-0.049278267;0.8411752;-0.007648469;;;;;;;;;;;;;;;
1598.0;1483.5;262143;262143;13092;;;;;;;;;;;;;;;;;;
1598.0;1489.7;;;;;;;;;;;;;-1358;;;;;;;;
1598.0;1489.7;;;;;;;;;;;;;-724;;;;;;;;
1598.0;1489.7;;;;;;;;;;;;;-705;;;;;;;;
1598.0;1489.7;;;;;;;;;;;;;-1153;;;;;;;;
1598.0;1489.7;;;;;;;;;;;;;-1371;;;;;;;;
1598.0;1491.4;;;;-0.047122963;0.8240243;-0.0047531133;;;;;;;;;;;;;;;
1598.0;1491.4;;;;-0.049682625;0.80770886;-2.2888187E-5;;;;;;;;;;;;;;;
1598.0;1491.4;;;;-0.051956184;0.79174054;0.0055580144;;;;;;;;;;;;;;;
1598.0;1491.4;;;;-0.054748543;0.7776872;0.01287079;;;;;;;;;;;;;;;
1598.0;1491.4;;;;-0.05888749;0.76241314;0.018825533;;;;;;;;;;;;;;;
1598.0;1501.4;;;;-0.061172493;0.74568945;0.02354813;;;;;;;;;;;;;;;
1598.0;1501.4;;;;-0.06232453;0.7296868;0.027248386;;;;;;;;;;;;;;;
1598.0;1501.4;;;;-0.06492234;0.7138367;0.03010178;;;;;;;;;;;;;;;
1598.0;1501.4;;;;-0.06747056;0.69769675;0.031314854;;;;;;;;;;;;;;;
1598.0;1501.4;;;;-0.06513596;0.6820641;0.035011295;;;;;;;;;;;;;;;
1598.0;1503.6;262143;262143;13075;;;;;;;;;;;;;;;;;;
1601.0;1511.4;;;;-0.06804658;0.66627127;0.03812409;;;;;;;;;;;;;;;
1601.0;1511.4;;;;-0.069717415;0.65059286;0.040859226;;;;;;;;;;;;;;;
1601.0;1511.4;;;;-0.07056809;0.6369553;0.04514313;;;;;;;;;;;;;;;
1601.0;1511.4;;;;-0.0727768;0.62379843;0.050674446;;;;;;;;;;;;;;;
1601.0;1511.4;;;;-0.0745926;0.6113129;0.055732735;;;;;;;;;;;;;;;
1601.0;1521.5;;;;-0.073608406;0.60111624;0.06301499;;;;;;;;;;;;;;;
1601.0;1521.5;;;;-0.07301713;0.59112173;0.0677414;;;;;;;;;;;;;;;
1601.0;1521.5;;;;-0.071365364;0.5811005;0.068946846;;;;;;;;;;;;;;;
1601.0;1521.5;;;;-0.06830979;0.5700303;0.073307045;;;;;;;;;;;;;;;
1601.0;1521.5;;;;-0.06711198;0.5588532;0.07818604;;;;;;;;;;;;;;;
1601.0;1523.8;262143;262143;13066;;;;;;;;;;;;;;;;;;
1601.0;1530.0;;;;;;;;;;;;;-1105;;;;;;;;
1601.0;1530.0;;;;;;;;;;;;;-691;;;;;;;;
1601.0;1530.0;;;;;;;;;;;;;-376;;;;;;;;
1601.0;1530.0;;;;;;;;;;;;;-237;;;;;;;;
1601.0;1530.0;;;;;;;;;;;;;-231;;;;;;;;
1601.0;1531.7;;;;-0.06590653;0.55079275;0.08524323;;;;;;;;;;;;;;;
1601.0;1531.7;;;;-0.060970314;0.5433312;0.09318162;;;;;;;;;;;;;;;
1601.0;1531.7;;;;-0.056659706;0.53751;0.099159256;;;;;;;;;;;;;;;
1601.0;1531.7;;;;-0.048275;0.5306435;0.10725786;;;;;;;;;;;;;;;
1601.0;1531.7;;;;-0.041343693;0.519394;0.11374284;;;;;;;;;;;;;;;
1603.0;1541.8;;;;-0.04040909;0.5079232;0.12094499;;;;;;;;;;;;;;;
1603.0;1541.8;;;;-0.03646851;0.50334936;0.12887956;;;;;;;;;;;;;;;
1603.0;1541.8;;;;-0.03131867;0.5036889;0.13679887;;;;;;;;;;;;;;;
1603.0;1541.8;;;;-0.02801514;0.50781256;0.14326479;;;;;;;;;;;;;;;
1603.0;1541.8;;;;-0.024066929;0.51271063;0.14649583;;;;;;;;;;;;;;;
1603.0;1544.1;262143;262143;13058;;;;;;;;;;;;;;;;;;
1603.0;1546.4;;;;;;;;;;;;;;;;;-20.081179;-34.882656;63.1428;;1243.6
1603.0;1546.4;;;;;;;;;;;;;;-0.7422712;-0.3503525;-0.28888822;;;;;1243.6
1603.0;1546.4;;;;;;;;;;;;;;;;;-18.86044;-32.68151;61.75039;;1243.6
1603.0;1546.4;;;;;;;;;;;;;;-0.7359844;-0.32862332;-0.29755548;;;;;1243.6
1603.0;1546.4;;;;;;;;;;;;;;;;;-18.421736;-30.28962;60.541092;;1253.2
1603.0;1546.4;;;;;;;;;;;;;;-0.72347176;-0.31006807;-0.30976287;;;;;1253.2
1603.0;1546.4;;;;;;;;;;;;;;;;;-17.921995;-28.191473;59.503464;;1253.2
1603.0;1546.4;;;;;;;;;;;;;;-0.715598;-0.29132968;-0.3150731;;;;;1253.2
1603.0;1546.4;;;;;;;;;;;;;;;;;-17.040771;-26.245918;59.305096;;1262.7
1603.0;1546.4;;;;;;;;;;;;;;-0.7150487;-0.27753532;-0.3065279;;;;;1262.7
1603.0;1546.4;;;;;;;;;;;;;;;;;-16.029848;-25.734734;59.224983;;1262.7
1603.0;1546.4;;;;;;;;;;;;;;-0.71053195;-0.25928527;-0.28418836;;;;;1262.7
1604.0;1547.5;;;;;;;;;;;;;;;;;-15.854366;-26.867733;59.480576;;1272.3
1604.0;1547.5;;;;;;;;;;;;;;-0.72078615;-0.2547075;-0.26209295;;;;;1272.3
1604.0;1547.5;;;;;;;;;;;;;;;;;-16.605885;-28.805658;59.686577;;1272.3
1604.0;1547.5;;;;;;;;;;;;;;-0.7374493;-0.24750511;-0.23273416;;;;;1272.3
1604.0;1547.5;;;;;;;;;;;;;;;;;-18.265327;-30.644398;60.361794;;1281.8
1604.0;1547.5;;;;;;;;;;;;;;-0.75014496;-0.23828852;-0.20087282;;;;;1281.8
1604.0;1547.5;;;;;;;;;;;;;;;;;-20.466475;-32.18177;60.66698;;1281.8
1604.0;1547.5;;;;;;;;;;;;;;-0.7613758;-0.23151341;-0.19306009;;;;;1281.8
1604.0;1547.5;;;;;;;;;;;;;;;;;-22.560808;-33.669548;60.613575;;1291.5
1604.0;1547.5;;;;;;;;;;;;;;-0.76613665;-0.22132023;-0.20728172;;;;;1291.5
1604.0;1547.5;;;;;;;;;;;;;;;;;-24.945066;-34.44395;60.510574;;1291.5
1604.0;1547.5;;;;;;;;;;;;;;-0.77822196;-0.21558276;-0.2235786;;;;;1291.5
1604.0;1548.4;;;;;;;;;;;;;;;;;-26.802881;-35.168766;60.640278;;1301.2
1604.0;1548.4;;;;;;;;;;;;;;-0.79354227;-0.21320231;-0.22382274;;;;;1301.2
1604.0;1548.4;;;;;;;;;;;;;;;;;-28.836176;-35.50447;60.80813;;1301.2
1604.0;1548.4;;;;;;;;;;;;;;-0.80721456;-0.21344645;-0.22156438;;;;;1301.2
1604.0;1548.4;;;;;;;;;;;;;;;;;-30.980103;-34.417248;60.00702;;1310.9
1604.0;1548.4;;;;;;;;;;;;;;-0.81460005;-0.21472824;-0.23102511;;;;;1310.9
1604.0;1548.4;;;;;;;;;;;;;;;;;-31.537064;-32.876064;58.38191;;1310.9
1604.0;1548.4;;;;;;;;;;;;;;-0.8166143;-0.21802424;-0.22956023;;;;;1310.9
1604.0;1548.4;;;;;;;;;;;;;;;;;-31.11362;-33.074436;56.558426;;1320.4
1604.0;1548.4;;;;;;;;;;;;;;-0.8069704;-0.21472824;-0.2313303;;;;;1320.4
1604.0;1548.4;;;;;;;;;;;;;;;;;-31.167028;-32.42592;54.406876;;1320.4
1604.0;1548.4;;;;;;;;;;;;;;-0.7865841;-0.21637623;-0.237434;;;;;1320.4
1606.0;1549.2;;;;;;;;;;;;;;;;;-32.96762;-30.354471;52.381207;;1330.1
1606.0;1549.2;;;;;;;;;;;;;;-0.79103976;-0.22766808;-0.24597919;;;;;1330.1
1606.0;1549.2;;;;;;;;;;;;;;;;;-36.900692;-29.56862;50.485245;;1330.1
1606.0;1549.2;;;;;;;;;;;;;;-0.7942137;-0.24555193;-0.25397503;;;;;1330.1
1606.0;1549.2;;;;;;;;;;;;;;;;;-41.302986;-29.404585;48.417618;;1339.7
1606.0;1549.2;;;;;;;;;;;;;;-0.8083743;-0.2730186;-0.2763146;;;;;1339.7
1606.0;1549.2;;;;;;;;;;;;;;;;;-46.239357;-28.916288;46.70095;;1339.7
1606.0;1549.2;;;;;;;;;;;;;;-0.8299814;-0.3134251;-0.31727043;;;;;1339.7
1606.0;1549.2;;;;;;;;;;;;;;;;;-49.40947;-29.278696;44.949947;;1349.3
1606.0;1549.2;;;;;;;;;;;;;;-0.84774315;-0.36170536;-0.35883662;;;;;1349.3
1606.0;1549.2;;;;;;;;;;;;;;;;;-50.45091;-29.931028;43.919952;;1349.3
1606.0;1549.2;;;;;;;;;;;;;;-0.86214787;-0.41248816;-0.39545885;;;;;1349.3
1606.0;1550.0;;;;;;;;;;;;;;;;;-49.268322;-29.934843;43.34773;;1359.0
1606.0;1550.0;;;;;;;;;;;;;;-0.87331766;-0.47309792;-0.4176153;;;;;1359.0
1606.0;1550.0;;;;;;;;;;;;;;;;;-44.93469;-30.323954;42.966248;;1359.0
1606.0;1550.0;;;;;;;;;;;;;;-0.88070315;-0.5265664;-0.42500076;;;;;1359.0
1606.0;1550.0;;;;;;;;;;;;;;;;;-38.77377;-30.220953;42.81747;;1368.5
1606.0;1550.0;;;;;;;;;;;;;;-0.893582;-0.5870541;-0.41676077;;;;;1368.5
1606.0;1550.0;;;;;;;;;;;;;;;;;-30.674917;-30.457472;42.50084;;1368.5
1606.0;1550.0;;;;;;;;;;;;;;-0.8993194;-0.6524857;-0.41212195;;;;;1368.5
1606.0;1550.0;;;;;;;;;;;;;;;;;-20.48555;-30.861843;42.21473;;1378.2
1606.0;1550.0;;;;;;;;;;;;;;-0.90524;-0.71572006;-0.42170477;;;;;1378.2
1606.0;1550.0;;;;;;;;;;;;;;;;;-8.976256;-30.858028;42.11173;;1378.2
1606.0;1550.0;;;;;;;;;;;;;;-0.9022492;-0.76339;-0.42841884;;;;;1378.2
1607.0;1551.5;;;;-0.018852236;0.5196534;0.15153886;;;;;;;;;;;;;;;
1607.0;1551.5;;;;-0.015296938;0.52792746;0.15149309;;;;;;;;;;;;;;;
1607.0;1551.5;;;;-0.010795594;0.53734976;0.1515732;;;;;;;;;;;;;;;
1607.0;1551.5;;;;-0.005058289;0.54845434;0.15128328;;;;;;;;;;;;;;;
1607.0;1551.5;;;;-9.5367443E-4;0.559208;0.14715959;;;;;;;;;;;;;;;
1607.0;1561.7;;;;;;;;;;;;;;;;;3.1891842;-31.647694;42.523727;;1387.9
1607.0;1561.7;;;;;;;;;;;;;;-0.88265634;-0.8149052;-0.43836787;;;;;1387.9
1607.0;1561.7;;;;;;;;;;;;;;;;;14.828181;-30.457472;42.93573;;1387.9
1607.0;1561.7;;;;;;;;;;;;;;-0.8642842;-0.8462172;-0.4340953;;;;;1387.9
1607.0;1561.7;;;;;;;;;;;;;;;;;24.132511;-28.389843;45.41917;;1397.5
1607.0;1561.7;;;;;;;;;;;;;;-0.84267706;-0.86605424;-0.4058962;;;;;1397.5
1607.0;1561.7;;;;;;;;;;;;;;;;;30.785545;-26.181067;48.211617;;1397.5
1607.0;1561.7;;;;;;;;;;;;;;-0.8219245;-0.8756981;-0.37165442;;;;;1397.5
1607.0;1561.7;;;;;;;;;;;;;;;;;34.66521;-23.529772;51.168095;;1407.0
1607.0;1561.7;;;;;;;;;;;;;;-0.8238777;-0.8878445;-0.35560167;;;;;1407.0
1607.0;1561.7;;;;;;;;;;;;;;;;;38.05277;-20.378735;54.31532;;1407.0
1607.0;1561.7;;;;;;;;;;;;;;-0.8665426;-0.90347;-0.35651723;;;;;1407.0
1607.0;1561.6;;;;0.003509522;0.56885535;0.14250948;;;;;;;;;;;;;;;
1607.0;1561.6;;;;0.007915498;0.5781327;0.13858034;;;;;;;;;;;;;;;
1607.0;1561.6;;;;0.011016847;0.5874596;0.13363267;;;;;;;;;;;;;;;
1607.0;1561.6;;;;0.014591219;0.5951577;0.12918474;;;;;;;;;;;;;;;
1607.0;1561.6;;;;0.018783571;0.60106283;0.12554933;;;;;;;;;;;;;;;
1658.0;1562.5;;;;;;;;;;;;;;;;;41.650135;-17.029327;57.157352;;1416.6
1658.0;1562.5;;;;;;;;;;;;;;-0.9070101;-0.9058504;-0.37714773;;;;;1416.6
1658.0;1562.5;;;;;;;;;;;;;;;;;45.049133;-14.435255;59.54543;;1416.6
1658.0;1562.5;;;;;;;;;;;;;;-0.92318493;-0.9048738;-0.4087039;;;;;1416.6
1658.0;1562.5;;;;;;;;;;;;;;;;;47.971283;-10.952331;60.483868;;1426.3
1658.0;1562.5;;;;;;;;;;;;;;-0.9931944;-0.9278237;-0.40583515;;;;;1426.3
1658.0;1562.5;;;;;;;;;;;;;;;;;48.280285;-9.414961;59.846798;;1426.3
1658.0;1562.5;;;;;;;;;;;;;;-1.0621052;-0.9368572;-0.39875484;;;;;1426.3
1658.0;1562.5;;;;;;;;;;;;;;;;;47.055725;-8.915219;57.18024;;1436.0
1658.0;1562.5;;;;;;;;;;;;;;-1.1251564;-0.9516892;-0.36695457;;;;;1436.0
1658.0;1562.5;;;;;;;;;;;;;;;;;47.66228;-10.715812;52.34306;;1436.0
1658.0;1562.5;;;;;;;;;;;;;;-1.1317484;-0.95022434;-0.32636493;;;;;1436.0
1658.0;1563.8;262143;262143;13041;;;;;;;;;;;;;;;;;;
1658.0;1570.0;;;;;;;;;;;;;-275;;;;;;;;
1658.0;1570.0;;;;;;;;;;;;;-300;;;;;;;;
1658.0;1570.0;;;;;;;;;;;;;-169;;;;;;;;
1658.0;1570.0;;;;;;;;;;;;;-77;;;;;;;;
1658.0;1570.0;;;;;;;;;;;;;-281;;;;;;;;
1658.0;1571.5;;;;0.021778109;0.6063958;0.12067033;;;;;;;;;;;;;;;
1658.0;1571.5;;;;0.024673466;0.60993963;0.11294557;;;;;;;;;;;;;;;
1658.0;1571.5;;;;0.026592258;0.61254126;0.10611726;;;;;;;;;;;;;;;
1658.0;1571.5;;;;0.026077274;0.6138039;0.098655716;;;;;;;;;;;;;;;
1658.0;1571.5;;;;0.025856022;0.61320883;0.09303666;;;;;;;;;;;;;;;
1660.0;1581.4;;;;0.025856022;0.6122094;0.08978654;;;;;;;;;;;;;;;
1660.0;1581.4;;;;0.027484898;0.6116486;0.085327156;;;;;;;;;;;;;;;
1660.0;1581.4;;;;0.028827671;0.60976034;0.08209992;;;;;;;;;;;;;;;
1660.0;1581.4;;;;0.030479435;0.608017;0.076652534;;;;;;;;;;;;;;;
1660.0;1581.4;;;;0.032241825;0.6064492;0.07152177;;;;;;;;;;;;;;;
1660.0;1583.8;262143;262143;13047;;;;;;;;;;;;;;;;;;
1660.0;1591.5;;;;0.02966309;0.6050835;0.06583787;;;;;;;;;;;;;;;
1660.0;1591.5;;;;0.028881077;0.6048432;0.05927659;;;;;;;;;;;;;;;
1660.0;1591.5;;;;0.029315952;0.6060639;0.053279884;;;;;;;;;;;;;;;
1660.0;1591.5;;;;0.028541569;0.6084252;0.049690254;;;;;;;;;;;;;;;
1660.0;1591.5;;;;0.025226597;0.61191183;0.046413425;;;;;;;;;;;;;;;
1660.0;1601.6;;;;0.019649507;0.6169892;0.04573441;;;;;;;;;;;;;;;
1660.0;1601.6;;;;0.015739443;0.62400824;0.047321327;;;;;;;;;;;;;;;
1660.0;1601.6;;;;0.012306215;0.6313248;0.047805794;;;;;;;;;;;;;;;
1660.0;1601.6;;;;0.006992341;0.6388131;0.04867936;;;;;;;;;;;;;;;
1660.0;1601.6;;;;0.0039443974;0.64781195;0.051841743;;;;;;;;;;;;;;;
1660.0;1604.1;262143;262143;13036;;;;;;;;;;;;;;;;;;
1662.0;1606.4;;;;;;;;;;;;;;;;;48.989838;-11.391033;45.319984;;1445.3
1662.0;1606.4;;;;;;;;;;;;;;-1.1586658;-0.9676809;-0.30475783;;;;;1445.3
1662.0;1606.4;;;;;;;;;;;;;;;;;48.98221;-10.639516;37.076176;;1445.3
1662.0;1606.4;;;;;;;;;;;;;;-1.1832637;-0.97634816;-0.3018891;;;;;1445.3
1662.0;1606.4;;;;;;;;;;;;;;;;;47.872097;-9.369183;26.7304;;1454.8
1662.0;1606.4;;;;;;;;;;;;;;-1.2058474;-0.9873959;-0.3289285;;;;;1454.8
1662.0;1606.4;;;;;;;;;;;;;;;;;45.381023;-7.515183;15.472884;;1454.8
1662.0;1606.4;;;;;;;;;;;;;;-1.224891;-0.96761984;-0.36432996;;;;;1454.8
1662.0;1606.4;;;;;;;;;;;;;;;;;42.836544;-6.920072;3.0137029;;1464.5
1662.0;1606.4;;;;;;;;;;;;;;-1.2378918;-0.94729453;-0.4066286;;;;;1464.5
1662.0;1606.4;;;;;;;;;;;;;;;;;39.986877;-6.1532946;-10.86459;;1464.5
1662.0;1606.4;;;;;;;;;;;;;;-1.2468642;-0.93575853;-0.43391216;;;;;1464.5
1662.0;1610.1;;;;;;;;;;;;;-518;;;;;;;;
1662.0;1610.1;;;;;;;;;;;;;-424;;;;;;;;
1662.0;1610.1;;;;;;;;;;;;;-19;;;;;;;;
1662.0;1610.1;;;;;;;;;;;;;335;;;;;;;;
1662.0;1610.1;;;;;;;;;;;;;547;;;;;;;;
1662.0;1611.6;;;;-6.523133E-4;0.65896994;0.058918007;;;;;;;;;;;;;;;
1662.0;1611.6;;;;-0.009593965;0.67063147;0.06736375;;;;;;;;;;;;;;;
1662.0;1611.6;;;;-0.019538881;0.68207175;0.07718278;;;;;;;;;;;;;;;
1662.0;1611.6;;;;-0.030651096;0.69450766;0.08568955;;;;;;;;;;;;;;;
1662.0;1611.6;;;;-0.040916447;0.7101212;0.10112001;;;;;;;;;;;;;;;
1721.0;1613.8;;;;;;;;;;;;;;;;;38.579212;-7.8585167;-26.417585;;1474.1
1721.0;1613.8;;;;;;;;;;;;;;-1.1845454;-0.89706105;-0.4232917;;;;;1474.1
1721.0;1613.8;;;;;;;;;;;;;;;;;37.629322;-10.853146;-45.167393;;1474.1
1721.0;1613.8;;;;;;;;;;;;;;-1.0622272;-0.8616596;-0.37134922;;;;;1474.1
1721.0;1613.8;;;;;;;;;;;;;;;;;33.276623;-13.222144;-63.806572;;1483.7
1721.0;1613.8;;;;;;;;;;;;;;-0.966155;-0.85964537;-0.29303873;;;;;1483.7
1721.0;1613.8;;;;;;;;;;;;;;;;;24.243141;-14.442884;-82.796715;;1483.7
1721.0;1613.8;;;;;;;;;;;;;;-0.92641985;-0.8874172;-0.23371075;;;;;1483.7
1721.0;1613.8;;;;;;;;;;;;;;;;;13.760033;-15.65218;-100.39445;;1493.3
1721.0;1613.8;;;;;;;;;;;;;;-0.91994995;-0.9054842;-0.23090304;;;;;1493.3
1721.0;1613.8;;;;;;;;;;;;;;;;;3.5897398;-16.277811;-115.98941;;1493.3
1721.0;1613.8;;;;;;;;;;;;;;-0.93057036;-0.9115879;-0.25775933;;;;;1493.3
1721.0;1621.5;;;;-0.052257545;0.72486883;0.11205675;;;;;;;;;;;;;;;
1721.0;1621.5;;;;-0.061855324;0.73668295;0.111763015;;;;;;;;;;;;;;;
1721.0;1621.5;;;;-0.07288743;0.7501527;0.117065445;;;;;;;;;;;;;;;
1721.0;1621.5;;;;-0.086334236;0.76560986;0.1345978;;;;;;;;;;;;;;;
1721.0;1621.5;;;;-0.09714128;0.7850038;0.1596718;;;;;;;;;;;;;;;
1721.0;1624.0;262143;262143;13030;;;;;;;;;;;;;;;;;;
1721.0;1631.6;;;;-0.10892488;0.80498517;0.1850548;;;;;;;;;;;;;;;
1721.0;1631.6;;;;-0.12440492;0.82580197;0.21084216;;;;;;;;;;;;;;;
1721.0;1631.6;;;;-0.14265825;0.8468896;0.23340991;;;;;;;;;;;;;;;
1721.0;1631.6;;;;-0.16033556;0.8698617;0.25779727;;;;;;;;;;;;;;;
1721.0;1631.6;;;;-0.1783867;0.89223874;0.28228763;;;;;;;;;;;;;;;
1723.0;1641.6;;;;-0.19573215;0.9138032;0.30999377;;;;;;;;;;;;;;;
1723.0;1641.6;;;;-0.2161484;0.9341279;0.33734515;;;;;;;;;;;;;;;
1723.0;1641.6;;;;-0.24297336;0.954033;0.3665581;;;;;;;;;;;;;;;
1723.0;1641.6;;;;-0.27354816;0.974476;0.3937531;;;;;;;;;;;;;;;
1723.0;1641.6;;;;-0.30463794;0.99304974;0.41932303;;;;;;;;;;;;;;;
1723.0;1644.1;262143;262143;13030;;;;;;;;;;;;;;;;;;
1723.0;1650.3;;;;;;;;;;;;;849;;;;;;;;
1723.0;1650.3;;;;;;;;;;;;;1200;;;;;;;;
1723.0;1650.3;;;;;;;;;;;;;1192;;;;;;;;
1723.0;1650.3;;;;;;;;;;;;;730;;;;;;;;
1723.0;1650.3;;;;;;;;;;;;;322;;;;;;;;
1723.0;1651.7;;;;-0.33580783;1.0110818;0.4425469;;;;;;;;;;;;;;;
1723.0;1651.7;;;;-0.37136844;1.028267;0.46506125;;;;;;;;;;;;;;;
1723.0;1651.7;;;;-0.40529257;1.0449029;0.48309332;;;;;;;;;;;;;;;
1723.0;1651.7;;;;-0.44408423;1.0617486;0.4971543;;;;;;;;;;;;;;;
1723.0;1651.7;;;;-0.4772759;1.0759202;0.50913626;;;;;;;;;;;;;;;
1723.0;1661.9;;;;-0.50804526;1.0889512;0.5248528;;;;;;;;;;;;;;;
1723.0;1661.9;;;;-0.53470236;1.1020738;0.5412751;;;;;;;;;;;;;;;
1723.0;1661.9;;;;-0.5539742;1.1130449;0.55725485;;;;;;;;;;;;;;;
1723.0;1661.9;;;;-0.5693665;1.1226846;0.56875235;;;;;;;;;;;;;;;
1723.0;1661.9;;;;-0.582161;1.1285821;0.5769349;;;;;;;;;;;;;;;
1723.0;1664.4;262143;262143;13016;;;;;;;;;;;;;;;;;;
1724.0;1666.7;;;;;;;;;;;;;;;;;-4.5968504;-18.105106;-124.423965;;1502.9
1724.0;1666.7;;;;;;;;;;;;;;-0.91293067;-0.9351482;-0.2826014;;;;;1502.9
1724.0;1666.7;;;;;;;;;;;;;;;;;-10.429701;-21.572771;-124.988556;;1502.9
1724.0;1666.7;;;;;;;;;;;;;;-0.88662374;-0.97866756;-0.26557207;;;;;1502.9
1724.0;1666.7;;;;;;;;;;;;;;;;;-14.85107;-25.330362;-124.988556;;1512.5
1724.0;1666.7;;;;;;;;;;;;;;-0.8906522;-1.0383618;-0.25659963;;;;;1512.5
1724.0;1666.7;;;;;;;;;;;;;;;;;-17.017883;-27.737509;-124.988556;;1512.5
1724.0;1666.7;;;;;;;;;;;;;;-0.95468;-1.124546;-0.2842494;;;;;1512.5
1724.0;1666.7;;;;;;;;;;;;;;;;;-15.415662;-29.316843;-124.988556;;1522.1
1724.0;1666.7;;;;;;;;;;;;;;-1.0375073;-1.2189093;-0.32905057;;;;;1522.1
1724.0;1666.7;;;;;;;;;;;;;;;;;-9.277627;-24.906918;-124.988556;;1522.1
1724.0;1666.7;;;;;;;;;;;;;;-1.1038545;-1.2847072;-0.4083987;;;;;1522.1
1724.0;1671.8;;;;-0.58427054;1.1315881;0.58333594;;;;;;;;;;;;;;;
1724.0;1671.8;;;;-0.57648855;1.133629;0.5827256;;;;;;;;;;;;;;;
1724.0;1671.8;;;;-0.5631142;1.1354638;0.58471686;;;;;;;;;;;;;;;
1724.0;1671.8;;;;-0.55276495;1.1331445;0.58190924;;;;;;;;;;;;;;;
1724.0;1671.8;;;;-0.5275994;1.1326257;0.58071905;;;;;;;;;;;;;;;
1725.0;1674.2;;;;;;;;;;;;;;;;;1.6632588;-11.822107;-124.988556;;1531.7
1725.0;1674.2;;;;;;;;;;;;;;-1.1523789;-1.3527024;-0.5188147;;;;;1531.7
1725.0;1674.2;;;;;;;;;;;;;;;;;12.836848;6.923887;-124.988556;;1531.7
1725.0;1674.2;;;;;;;;;;;;;;-1.1955931;-1.391644;-0.58082825;;;;;1531.7
1725.0;1674.2;;;;;;;;;;;;;;;;;22.091587;24.48729;-124.988556;;1541.3
1725.0;1674.2;;;;;;;;;;;;;;-1.2112186;-1.4070253;-0.5807672;;;;;1541.3
1725.0;1674.2;;;;;;;;;;;;;;;;;28.35551;37.232582;-124.988556;;1541.3
1725.0;1674.2;;;;;;;;;;;;;;-1.2077395;-1.3778497;-0.5166784;;;;;1541.3
1725.0;1674.2;;;;;;;;;;;;;;;;;32.471695;42.836544;-124.988556;;1550.9
1725.0;1674.2;;;;;;;;;;;;;;-1.2227546;-1.2797632;-0.4511246;;;;;1550.9
1725.0;1674.2;;;;;;;;;;;;;;;;;39.227726;45.224613;-124.988556;;1550.9
1725.0;1674.2;;;;;;;;;;;;;;-1.2813501;-1.1348614;-0.43910033;;;;;1550.9
1725.0;1681.7;;;;-0.50547796;1.1324235;0.57828146;;;;;;;;;;;;;;;
1725.0;1681.7;;;;-0.480774;1.131817;0.5779801;;;;;;;;;;;;;;;
1725.0;1681.7;;;;-0.4531098;1.1311227;0.5756493;;;;;;;;;;;;;;;
1725.0;1681.7;;;;-0.43069464;1.1325761;0.5790673;;;;;;;;;;;;;;;
1725.0;1681.7;;;;-0.40373236;1.137375;0.58095175;;;;;;;;;;;;;;;
1725.0;1684.3;262143;262143;13008;;;;;;;;;;;;;;;;;;
1725.0;1690.4;;;;;;;;;;;;;330;;;;;;;;
1725.0;1690.4;;;;;;;;;;;;;451;;;;;;;;
1725.0;1690.4;;;;;;;;;;;;;489;;;;;;;;
1725.0;1690.4;;;;;;;;;;;;;665;;;;;;;;
1725.0;1690.4;;;;;;;;;;;;;1095;;;;;;;;
1779.0;1691.8;;;;-0.37932974;1.1440202;0.58592993;;;;;;;;;;;;;;;
1779.0;1691.8;;;;-0.3545914;1.152218;0.5885964;;;;;;;;;;;;;;;
1779.0;1691.8;;;;-0.34007266;1.1653825;0.59053427;;;;;;;;;;;;;;;
1779.0;1691.8;;;;-0.33425525;1.1770898;0.5898858;;;;;;;;;;;;;;;
1779.0;1691.8;;;;-0.33334735;1.1930276;0.5886727;;;;;;;;;;;;;;;
1779.0;1701.6;;;;-0.3264847;1.212906;0.5849305;;;;;;;;;;;;;;;
1779.0;1701.6;;;;-0.3296509;1.2308046;0.579773;;;;;;;;;;;;;;;
1779.0;1701.6;;;;-0.32472613;1.2527353;0.5770264;;;;;;;;;;;;;;;
1779.0;1701.6;;;;-0.32962802;1.2692949;0.5719567;;;;;;;;;;;;;;;
1779.0;1701.6;;;;-0.33723453;1.2822953;0.571209;;;;;;;;;;;;;;;
1779.0;1704.2;262143;262143;13007;;;;;;;;;;;;;;;;;;
1779.0;1711.7;;;;-0.34299472;1.2985879;0.5706406;;;;;;;;;;;;;;;
1779.0;1711.7;;;;-0.35571292;1.314686;0.5709191;;;;;;;;;;;;;;;
1779.0;1711.7;;;;-0.3685265;1.3324586;0.5709267;;;;;;;;;;;;;;;
1779.0;1711.7;;;;-0.38037878;1.3472711;0.5677224;;;;;;;;;;;;;;;
1779.0;1711.7;;;;-0.3962174;1.3619653;0.5667115;;;;;;;;;;;;;;;
1779.0;1721.8;;;;-0.40191275;1.3786851;0.56550986;;;;;;;;;;;;;;;
1779.0;1721.8;;;;-0.4172631;1.3915483;0.56373984;;;;;;;;;;;;;;;
1779.0;1721.8;;;;-0.4183274;1.4052011;0.56758505;;;;;;;;;;;;;;;
1779.0;1721.8;;;;-0.4229775;1.4201509;0.56960684;;;;;;;;;;;;;;;
1779.0;1721.8;;;;-0.43314368;1.4339143;0.5715981;;;;;;;;;;;;;;;
1781.0;1724.5;262143;262143;13008;;;;;;;;;;;;;;;;;;
1781.0;1726.8;;;;;;;;;;;;;;;;;39.27732;54.47554;-124.988556;;1560.5
1781.0;1726.8;;;;;;;;;;;;;;-1.3894467;-0.9607837;-0.5087435;;;;;1560.5
1781.0;1726.8;;;;;;;;;;;;;;;;;35.927914;67.255165;-124.988556;;1560.5
1781.0;1726.8;;;;;;;;;;;;;;-1.5475326;-0.80831325;-0.6186102;;;;;1560.5
1781.0;1726.8;;;;;;;;;;;;;;;;;49.199654;67.5718;-124.946594;;1570.1
1781.0;1726.8;;;;;;;;;;;;;;-1.6915799;-0.6432081;-0.62190616;;;;;1570.1
1781.0;1726.8;;;;;;;;;;;;;;;;;71.600235;47.72332;-119.79278;;1570.1
1781.0;1726.8;;;;;;;;;;;;;;-1.7441328;-0.5222327;-0.5719169;;;;;1570.1
1781.0;1726.8;;;;;;;;;;;;;;;;;94.98123;26.940214;-106.05182;;1579.6
1781.0;1726.8;;;;;;;;;;;;;;-1.721305;-0.3658559;-0.47779778;;;;;1579.6
1781.0;1726.8;;;;;;;;;;;;;;;;;114.65804;20.661032;-85.88672;;1579.6
1781.0;1726.8;;;;;;;;;;;;;;-1.6849879;-0.25318155;-0.33912167;;;;;1579.6
1781.0;1730.6;;;;;;;;;;;;;1384;;;;;;;;
1781.0;1730.6;;;;;;;;;;;;;1322;;;;;;;;
1781.0;1730.6;;;;;;;;;;;;;1298;;;;;;;;
1781.0;1730.6;;;;;;;;;;;;;1421;;;;;;;;
1781.0;1730.6;;;;;;;;;;;;;1294;;;;;;;;
1781.0;1731.8;;;;-0.431099;1.4443818;0.5699807;;;;;;;;;;;;;;;
1781.0;1731.8;;;;-0.4421273;1.4578706;0.5720673;;;;;;;;;;;;;;;
1781.0;1731.8;;;;-0.43754202;1.4692193;0.5762978;;;;;;;;;;;;;;;
1781.0;1731.8;;;;-0.44439322;1.4832879;0.58162695;;;;;;;;;;;;;;;
1781.0;1731.8;;;;-0.45035177;1.4933664;0.57760626;;;;;;;;;;;;;;;
1784.0;1734.3;;;;;;;;;;;;;;;;;115.699486;19.592882;-75.26246;;1589.2
1784.0;1734.3;;;;;;;;;;;;;;-1.6317027;-0.13776055;-0.29847103;;;;;1589.2
1784.0;1734.3;;;;;;;;;;;;;;;;;107.92871;24.941252;-72.99646;;1589.2
1784.0;1734.3;;;;;;;;;;;;;;-1.5167089;-0.054139838;-0.34034243;;;;;1589.2
1784.0;1734.3;;;;;;;;;;;;;;;;;100.16174;34.321877;-69.627975;;1598.9
1784.0;1734.3;;;;;;;;;;;;;;-1.4752038;0.006408887;-0.30744347;;;;;1598.9
1784.0;1734.3;;;;;;;;;;;;;;;;;84.475235;38.319805;-77.7688;;1598.9
1784.0;1734.3;;;;;;;;;;;;;;-1.3703421;0.04034547;-0.38624227;;;;;1598.9
1784.0;1734.3;;;;;;;;;;;;;;;;;80.75579;45.80828;-86.996826;;1608.6
1784.0;1734.3;;;;;;;;;;;;;;-1.3047273;0.019898068;-0.3861812;;;;;1608.6
1784.0;1734.3;;;;;;;;;;;;;;;;;79.55031;49.06995;-99.88326;;1608.6
1784.0;1734.3;;;;;;;;;;;;;;-1.3006989;-0.015808588;-0.33771783;;;;;1608.6
1784.0;1740.8;;;;;;;;;;-0.13733329;18.848995;-1.781518;;;;;;;;;
1784.0;1740.8;;;;;;;0.4051027;-1.2171392;0.43879512;;;;;;;;;;;;
1784.0;1740.8;;;;;;;;;;6.0464797;34.707172;7.2824793;;;;;;;;;
1784.0;1740.8;;;;;;;0.44312876;-1.4141667;0.46528518;;;;;;;;;;;;
1784.0;1741.7;;;;-0.44915777;1.5005114;0.5841294;;;;;;;;;;;;;;;
1784.0;1741.7;;;;-0.45065695;1.5121462;0.5841904;;;;;;;;;;;;;;;
1784.0;1741.7;;;;-0.45294195;1.5245364;0.592392;;;;;;;;;;;;;;;
1784.0;1741.7;;;;-0.46396643;1.5358851;0.5938149;;;;;;;;;;;;;;;
1784.0;1741.7;;;;-0.46425635;1.5476687;0.6011811;;;;;;;;;;;;;;;
1784.0;1744.5;262143;262143;13016;;;;;;;;;;;;;;;;;;
1838.0;1750.3;;;;;;;;;;3.4943693;14.450515;-5.53148;;;;;;;;;
1838.0;1750.3;;;;;;;0.4079104;-1.455855;0.4293344;;;;;;;;;;;;
1838.0;1750.3;;;;;;;;;;13.138219;47.585987;-19.009216;;;;;;;;;
1838.0;1750.3;;;;;;;0.36823633;-1.4925382;0.39204076;;;;;;;;;;;;
1838.0;1751.8;;;;-0.46818167;1.5567439;0.6015397;;;;;;;;;;;;;;;
1838.0;1751.8;;;;-0.47030264;1.568207;0.6088143;;;;;;;;;;;;;;;
1838.0;1751.8;;;;-0.4749108;1.5742342;0.6116143;;;;;;;;;;;;;;;
1838.0;1751.8;;;;-0.47738272;1.5833132;0.6168862;;;;;;;;;;;;;;;
1838.0;1751.8;;;;-0.48406225;1.5893519;0.61884314;;;;;;;;;;;;;;;
1838.0;1759.8;;;;;;;;;;21.057772;71.56209;-44.141212;;;;;;;;;
1838.0;1759.8;;;;;;;0.3228248;-1.5466781;0.35608998;;;;;;;;;;;;
1838.0;1759.8;;;;;;;;;;25.30366;56.3448;-92.56645;;;;;;;;;
1838.0;1759.8;;;;;;;0.2766808;-1.6008179;0.32123783;;;;;;;;;;;;
1838.0;1761.8;;;;-0.48253638;1.5900843;0.6228829;;;;;;;;;;;;;;;
1838.0;1761.8;;;;-0.48050696;1.5893977;0.6305924;;;;;;;;;;;;;;;
1838.0;1761.8;;;;-0.48736578;1.5842211;0.62971884;;;;;;;;;;;;;;;
1838.0;1761.8;;;;-0.48699194;1.5785143;0.6339913;;;;;;;;;;;;;;;
1838.0;1761.8;;;;-0.48151785;1.5701602;0.63537985;;;;;;;;;;;;;;;
1838.0;1764.6;262143;262143;13016;;;;;;;;;;;;;;;;;;
1838.0;1769.4;;;;;;;;;;36.183506;72.42424;-116.98508;;;;;;;;;
1838.0;1769.4;;;;;;;0.22119816;-1.6500137;0.29169592;;;;;;;;;;;;
1838.0;1769.4;;;;;;;;;;48.886837;84.87579;-124.717705;;;;;;;;;
1838.0;1769.4;;;;;;;0.17340617;-1.6944487;0.26160467;;;;;;;;;;;;
1840.0;1770.7;;;;;;;;;;;;;696;;;;;;;;
1840.0;1770.7;;;;;;;;;;;;;574;;;;;;;;
1840.0;1770.7;;;;;;;;;;;;;1226;;;;;;;;
1840.0;1770.7;;;;;;;;;;;;;-1626;;;;;;;;
1840.0;1770.7;;;;;;;;;;;;;-11673;;;;;;;;
1840.0;1771.9;;;;-0.4853478;1.5643809;0.64020544;;;;;;;;;;;;;;;
1840.0;1771.9;;;;-0.48540503;1.5551264;0.6428681;;;;;;;;;;;;;;;
1840.0;1771.9;;;;-0.4844399;1.5408213;0.64537436;;;;;;;;;;;;;;;
1840.0;1771.9;;;;-0.48178107;1.5355151;0.65164953;;;;;;;;;;;;;;;
1840.0;1771.9;;;;-0.48409277;1.5320857;0.6503449;;;;;;;;;;;;;;;
1840.0;1779.1;;;;;;;;;;61.22013;98.62438;-124.881744;;;;;;;;;
1840.0;1779.1;;;;;;;0.14148381;-1.7297281;0.23236793;;;;;;;;;;;;
1840.0;1779.1;;;;;;;;;;68.041016;100.96286;-124.881744;;;;;;;;;
1840.0;1779.1;;;;;;;0.12964264;-1.7668386;0.20630513;;;;;;;;;;;;
1840.0;1782.0;;;;-0.46918112;1.5153353;0.65318304;;;;;;;;;;;;;;;
1840.0;1782.0;;;;-0.46669775;1.4969102;0.6532021;;;;;;;;;;;;;;;
1840.0;1782.0;;;;-0.46379095;1.4794198;0.65299994;;;;;;;;;;;;;;;
1840.0;1782.0;;;;-0.4627648;1.4586831;0.6569405;;;;;;;;;;;;;;;
1840.0;1782.0;;;;-0.45535284;1.4343683;0.6606942;;;;;;;;;;;;;;;
1840.0;1784.9;262143;262143;12995;;;;;;;;;;;;;;;;;;
1842.0;1787.1;;;;;;;;;;;;;;;;;73.54579;45.953243;-119.28923;;1618.2
1842.0;1787.1;;;;;;;;;;;;;;-1.2826319;-0.07361065;-0.35987428;;;;;1618.2
1842.0;1787.1;;;;;;;;;;;;;;;;;73.3932;43.96573;-124.96948;;1618.2
1842.0;1787.1;;;;;;;;;;;;;;-1.2272103;-0.15124974;-0.31427962;;;;;1618.2
1842.0;1787.1;;;;;;;;;;;;;;;;;64.783165;43.786434;-124.988556;;1627.7
1842.0;1787.1;;;;;;;;;;;;;;-1.1513413;-0.24457534;-0.30921355;;;;;1627.7
1842.0;1787.1;;;;;;;;;;;;;;;;;57.02002;47.345654;-124.988556;;1627.7
1842.0;1787.1;;;;;;;;;;;;;;-1.0850551;-0.30341503;-0.34498122;;;;;1627.7
1842.0;1787.1;;;;;;;;;;;;;;;;;52.23243;51.667835;-124.988556;;1637.4
1842.0;1787.1;;;;;;;;;;;;;;-1.0359813;-0.38001648;-0.37916195;;;;;1637.4
1842.0;1787.1;;;;;;;;;;;;;;;;;47.650837;54.555653;-124.988556;;1637.4
1842.0;1787.1;;;;;;;;;;;;;;-0.98556477;-0.47059542;-0.43720818;;;;;1637.4
1842.0;1788.3;;;;;;;;;;;;;;;;;45.7358;57.943207;-124.988556;;1647.1
1842.0;1788.3;;;;;;;;;;;;;;-0.9400311;-0.5500046;-0.48994416;;;;;1647.1
1842.0;1788.3;;;;;;;;;;;;;;;;;45.10254;61.45283;-124.988556;;1647.1
1842.0;1788.3;;;;;;;;;;;;;;-0.90694904;-0.5988342;-0.49336222;;;;;1647.1
1842.0;1788.3;;;;;;;;;;;;;;;;;39.91058;61.254463;-124.988556;;1656.7
1842.0;1788.3;;;;;;;;;;;;;;-0.86269724;-0.63557845;-0.4875637;;;;;1656.7
1842.0;1788.3;;;;;;;;;;;;;;;;;34.45921;58.88165;-124.988556;;1656.7
1842.0;1788.3;;;;;;;;;;;;;;-0.8517716;-0.6774499;-0.4544206;;;;;1656.7
1842.0;1788.3;;;;;;;;;;;;;;;;;30.213324;52.201912;-124.988556;;1666.3
1842.0;1788.3;;;;;;;;;;;;;;-0.84109014;-0.69466233;-0.40583515;;;;;1666.3
1842.0;1788.3;;;;;;;;;;;;;;;;;26.909697;44.30906;-124.988556;;1666.3
1842.0;1788.3;;;;;;;;;;;;;;-0.80520034;-0.675985;-0.35303813;;;;;1666.3
1843.0;1788.5;;;;;;;;;;73.11853;92.44057;-124.881744;;;;;;;;;
1843.0;1788.5;;;;;;;0.12512589;-1.7963195;0.18774988;;;;;;;;;;;;
1843.0;1788.5;;;;;;;;;;77.97098;83.99838;-124.881744;;;;;;;;;
1843.0;1788.5;;;;;;;0.11938841;-1.8283639;0.17780083;;;;;;;;;;;;
1843.0;1791.9;;;;-0.45203024;1.412407;0.66141516;;;;;;;;;;;;;;;
1843.0;1791.9;;;;-0.4615441;1.392685;0.6576157;;;;;;;;;;;;;;;
1843.0;1791.9;;;;-0.4584046;1.3776475;0.65494925;;;;;;;;;;;;;;;
1843.0;1791.9;;;;-0.45830923;1.3569452;0.6511269;;;;;;;;;;;;;;;
1843.0;1791.9;;;;-0.46069723;1.3338357;0.64731985;;;;;;;;;;;;;;;
1843.0;1798.1;;;;;;;;;;82.7929;75.61724;-124.881744;;;;;;;;;
1843.0;1798.1;;;;;;;0.11322367;-1.8593097;0.17126988;;;;;;;;;;;;
1843.0;1798.1;;;;;;;;;;86.92816;67.37724;-124.881744;;;;;;;;;
1843.0;1798.1;;;;;;;0.11078219;-1.8923917;0.16937773;;;;;;;;;;;;
1843.0;1801.9;;;;-0.46127707;1.310196;0.64625174;;;;;;;;;;;;;;;
1843.0;1801.9;;;;-0.47513968;1.292885;0.6449967;;;;;;;;;;;;;;;
1843.0;1801.9;;;;-0.47160727;1.2719461;0.63769156;;;;;;;;;;;;;;;
1843.0;1801.9;;;;-0.47809988;1.2479287;0.6339608;;;;;;;;;;;;;;;
1843.0;1801.9;;;;-0.48738486;1.2261773;0.6280022;;;;;;;;;;;;;;;
1843.0;1804.8;262143;262143;13001;;;;;;;;;;;;;;;;;;
1843.0;1807.6;;;;;;;;;;90.31571;59.675133;-124.881744;;;;;;;;;
1843.0;1807.6;;;;;;;0.10834071;-1.9230933;0.17218544;;;;;;;;;;;;
1843.0;1807.6;;;;;;;;;;93.01279;52.32017;-124.881744;;;;;;;;;
1843.0;1807.6;;;;;;;0.106509596;-1.9487289;0.17120884;;;;;;;;;;;;
1898.0;1810.8;;;;;;;;;;;;;-23165;;;;;;;;
1898.0;1810.8;;;;;;;;;;;;;-25452;;;;;;;;
1898.0;1810.8;;;;;;;;;;;;;-15700;;;;;;;;
1898.0;1810.8;;;;;;;;;;;;;-2557;;;;;;;;
1898.0;1810.8;;;;;;;;;;;;;4339;;;;;;;;
1898.0;1811.9;;;;-0.4844361;1.2020723;0.62167364;;;;;;;;;;;;;;;
1898.0;1811.9;;;;-0.4845391;1.1795388;0.6148148;;;;;;;;;;;;;;;
1898.0;1811.9;;;;-0.49791342;1.1571542;0.6074639;;;;;;;;;;;;;;;
1898.0;1811.9;;;;-0.5036393;1.1376573;0.60236746;;;;;;;;;;;;;;;
1898.0;1811.9;;;;-0.5057946;1.1181489;0.5958672;;;;;;;;;;;;;;;
1898.0;1816.8;;;;;;;;;;94.98886;44.782097;-124.881744;;;;;;;;;
1898.0;1816.8;;;;;;;0.10559405;-1.9671011;0.17383343;;;;;;;;;;;;
1898.0;1816.8;;;;;;;;;;96.61016;36.286507;-124.881744;;;;;;;;;
1898.0;1816.8;;;;;;;0.09643849;-1.985107;0.18262276;;;;;;;;;;;;
1898.0;1821.6;;;;-0.5021058;1.101494;0.5893441;;;;;;;;;;;;;;;
1898.0;1821.6;;;;-0.49446493;1.083069;0.57908255;;;;;;;;;;;;;;;
1898.0;1821.6;;;;-0.49374396;1.067154;0.57106024;;;;;;;;;;;;;;;
1898.0;1821.6;;;;-0.49688345;1.0522195;0.5627976;;;;;;;;;;;;;;;
1898.0;1821.6;;;;-0.4923249;1.0384294;0.55821997;;;;;;;;;;;;;;;
1898.0;1824.6;262143;262143;12987;;;;;;;;;;;;;;;;;;
1898.0;1826.4;;;;;;;;;;98.50612;27.211067;-124.881744;;;;;;;;;
1898.0;1826.4;;;;;;;0.091921754;-1.996643;0.19306009;;;;;;;;;;;;
1898.0;1826.4;;;;;;;;;;100.573746;18.055513;-124.881744;;;;;;;;;
1898.0;1826.4;;;;;;;0.086123236;-1.9998169;0.20722067;;;;;;;;;;;;
1901.0;1831.8;;;;-0.4867211;1.024872;0.5481301;;;;;;;;;;;;;;;
1901.0;1831.8;;;;-0.48398215;1.011963;0.5412598;;;;;;;;;;;;;;;
1901.0;1831.8;;;;-0.48784643;0.998047;0.53160864;;;;;;;;;;;;;;;
1901.0;1831.8;;;;-0.49039084;0.98669064;0.5258332;;;;;;;;;;;;;;;
1901.0;1831.8;;;;-0.5023652;0.97400296;0.5158921;;;;;;;;;;;;;;;
1901.0;1836.1;;;;;;;;;;102.626114;8.621479;-124.881744;;;;;;;;;
1901.0;1836.1;;;;;;;0.08050783;-1.9998169;0.22608112;;;;;;;;;;;;
1901.0;1836.1;;;;;;;;;;104.42671;-1.4992218;-124.881744;;;;;;;;;
1901.0;1836.1;;;;;;;0.07391583;-1.9998169;0.24530777;;;;;;;;;;;;
1901.0;1841.9;;;;-0.49681097;0.9622613;0.5088578;;;;;;;;;;;;;;;
1901.0;1841.9;;;;-0.48539358;0.95412076;0.50235754;;;;;;;;;;;;;;;
1901.0;1841.9;;;;-0.47582632;0.95053494;0.49802023;;;;;;;;;;;;;;;
1901.0;1841.9;;;;-0.47082144;0.94934475;0.49335104;;;;;;;;;;;;;;;
1901.0;1841.9;;;;-0.47010046;0.946808;0.48806006;;;;;;;;;;;;;;;
1901.0;1844.9;262143;262143;12983;;;;;;;;;;;;;;;;;;
1901.0;1845.7;;;;;;;;;;105.97171;-12.6117735;-124.881744;;;;;;;;;
1901.0;1845.7;;;;;;;0.073000275;-1.9998169;0.26947844;;;;;;;;;;;;
1901.0;1845.7;;;;;;;;;;107.28019;-24.338512;-124.881744;;;;;;;;;
1901.0;1845.7;;;;;;;0.07647938;-1.9998169;0.2908414;;;;;;;;;;;;
1902.0;1847.2;;;;;;;;;;;;;;;;;23.556475;38.659325;-124.988556;;1676.0
1902.0;1847.2;;;;;;;;;;;;;;-0.79103976;-0.669393;-0.33838925;;;;;1676.0
1902.0;1847.2;;;;;;;;;;;;;;;;;26.23066;35.44343;-124.988556;;1676.0
1902.0;1847.2;;;;;;;;;;;;;;-0.8086184;-0.6747032;-0.36127812;;;;;1676.0
1902.0;1847.2;;;;;;;;;;;;;;;;;36.202583;33.272808;-124.660484;;1685.6
1902.0;1847.2;;;;;;;;;;;;;;-0.8224128;-0.6553545;-0.37202063;;;;;1685.6
1902.0;1847.2;;;;;;;;;;;;;;;;;48.883022;31.880398;-124.08826;;1685.6
1902.0;1847.2;;;;;;;;;;;;;;-0.8080691;-0.6227607;-0.38489944;;;;;1685.6
1902.0;1847.2;;;;;;;;;;;;;;;;;62.68502;33.46736;-123.21848;;1695.2
1902.0;1847.2;;;;;;;;;;;;;;-0.7828608;-0.58162177;-0.3838618;;;;;1695.2
1902.0;1847.2;;;;;;;;;;;;;;;;;74.087494;36.553543;-121.059296;;1695.2
1902.0;1847.2;;;;;;;;;;;;;;-0.7731559;-0.5442671;-0.38685262;;;;;1695.2
1902.0;1848.0;;;;;;;;;;;;;;;;;80.96561;38.930176;-118.36986;;1704.9
1902.0;1848.0;;;;;;;;;;;;;;-0.7803583;-0.48908964;-0.3736076;;;;;1704.9
1902.0;1848.0;;;;;;;;;;;;;;;;;80.40101;39.41847;-114.608444;;1704.9
1902.0;1848.0;;;;;;;;;;;;;;-0.7838984;-0.4358043;-0.3723258;;;;;1704.9
1902.0;1848.0;;;;;;;;;;;;;;;;;77.83365;40.192875;-112.434006;;1714.4
1902.0;1848.0;;;;;;;;;;;;;;-0.80074465;-0.38032165;-0.3501694;;;;;1714.4
1902.0;1848.0;;;;;;;;;;;;;;;;;74.43083;39.95254;-112.04108;;1714.4
1902.0;1848.0;;;;;;;;;;;;;;-0.80129397;-0.34022033;-0.29517502;;;;;1714.4
1902.0;1848.0;;;;;;;;;;;;;;;;;69.47157;39.464245;-112.1517;;1724.1
1902.0;1848.0;;;;;;;;;;;;;;-0.7791986;-0.3112888;-0.2491531;;;;;1724.1
1902.0;1848.0;;;;;;;;;;;;;;;;;64.80224;40.83758;-112.09448;;1724.1
1902.0;1848.0;;;;;;;;;;;;;;-0.7509995;-0.28437147;-0.20935698;;;;;1724.1
1903.0;1850.9;;;;;;;;;;;;;4395;;;;;;;;
1903.0;1850.9;;;;;;;;;;;;;3208;;;;;;;;
1903.0;1850.9;;;;;;;;;;;;;3549;;;;;;;;
1903.0;1850.9;;;;;;;;;;;;;3724;;;;;;;;
1903.0;1850.9;;;;;;;;;;;;;3243;;;;;;;;
1903.0;1851.9;;;;-0.469822;0.94402707;0.48185736;;;;;;;;;;;;;;;
1903.0;1851.9;;;;-0.47375113;0.94321454;0.47562033;;;;;;;;;;;;;;;
1903.0;1851.9;;;;-0.4682923;0.94531643;0.47479254;;;;;;;;;;;;;;;
1903.0;1851.9;;;;-0.45820242;0.9443971;0.4676476;;;;;;;;;;;;;;;
1903.0;1851.9;;;;-0.462349;0.9450456;0.4611321;;;;;;;;;;;;;;;
1903.0;1855.2;;;;;;;;;;108.1576;-36.04236;-124.881744;;;;;;;;;
1903.0;1855.2;;;;;;;0.08856472;-1.9998169;0.316599;;;;;;;;;;;;
1903.0;1855.2;;;;;;;;;;108.48186;-47.84921;-124.881744;;;;;;;;;
1903.0;1855.2;;;;;;;0.10882901;-1.9998169;0.34125796;;;;;;;;;;;;
1903.0;1862.0;;;;-0.46833426;0.94541943;0.45402533;;;;;;;;;;;;;;;
1903.0;1862.0;;;;-0.4686013;0.94482434;0.45064932;;;;;;;;;;;;;;;
1903.0;1862.0;;;;-0.47082907;0.9413301;0.44549185;;;;;;;;;;;;;;;
1903.0;1862.0;;;;-0.47295004;0.93875515;0.4411927;;;;;;;;;;;;;;;
1903.0;1862.0;;;;-0.47603995;0.9354516;0.43611532;;;;;;;;;;;;;;;
1903.0;1864.8;;;;;;;;;;108.668785;-59.224983;-124.881744;;;;;;;;;
1903.0;1864.8;;;;;;;0.12475967;-1.9956664;0.36512345;;;;;;;;;;;;
1903.0;1864.8;;;;;;;;;;108.905304;-69.563126;-124.881744;;;;;;;;;
1903.0;1864.8;;;;;;;0.15002899;-1.9828486;0.38508254;;;;;;;;;;;;
1903.0;1865.0;262143;262143;12987;;;;;;;;;;;;;;;;;;
1958.0;1872.1;;;;-0.4757424;0.9305459;0.43128973;;;;;;;;;;;;;;;
1958.0;1872.1;;;;-0.47725302;0.9259454;0.4286347;;;;;;;;;;;;;;;
1958.0;1872.1;;;;-0.47845465;0.92237484;0.42605215;;;;;;;;;;;;;;;
1958.0;1872.1;;;;-0.4845696;0.9202386;0.42482;;;;;;;;;;;;;;;
1958.0;1872.1;;;;-0.48501593;0.91703045;0.422741;;;;;;;;;;;;;;;
1958.0;1874.4;;;;;;;;;;109.038826;-78.787346;-124.881744;;;;;;;;;
1958.0;1874.4;;;;;;;0.17865536;-1.9681997;0.40205085;;;;;;;;;;;;
1958.0;1874.4;;;;;;;;;;109.14564;-86.64205;-124.881744;;;;;;;;;
1958.0;1874.4;;;;;;;0.20929594;-1.94879;0.4107181;;;;;;;;;;;;
1958.0;1882.0;;;;-0.48771673;0.91521466;0.41983038;;;;;;;;;;;;;;;
1958.0;1882.0;;;;-0.49444205;0.9127008;0.41722494;;;;;;;;;;;;;;;
1958.0;1882.0;;;;-0.5024491;0.91025174;0.416462;;;;;;;;;;;;;;;
1958.0;1882.0;;;;-0.508606;0.90828335;0.41507727;;;;;;;;;;;;;;;
1958.0;1882.0;;;;-0.5149117;0.90636075;0.41295248;;;;;;;;;;;;;;;
1958.0;1883.9;;;;;;;;;;108.53527;-91.792046;-124.881744;;;;;;;;;
1958.0;1883.9;;;;;;;0.24750511;-1.9164404;0.41389203;;;;;;;;;;;;
1958.0;1883.9;;;;;;;;;;107.375565;-94.4052;-124.881744;;;;;;;;;
1958.0;1883.9;;;;;;;0.2866909;-1.8831751;0.42121646;;;;;;;;;;;;
1958.0;1885.1;262143;262143;12970;;;;;;;;;;;;;;;;;;
1958.0;1891.2;;;;;;;;;;;;;3058;;;;;;;;
1958.0;1891.2;;;;;;;;;;;;;2904;;;;;;;;
1958.0;1891.2;;;;;;;;;;;;;2624;;;;;;;;
1958.0;1891.2;;;;;;;;;;;;;2275;;;;;;;;
1958.0;1891.2;;;;;;;;;;;;;1864;;;;;;;;
1961.0;1892.1;;;;-0.5214425;0.90301526;0.409813;;;;;;;;;;;;;;;
1961.0;1892.1;;;;-0.5260239;0.898327;0.40697104;;;;;;;;;;;;;;;
1961.0;1892.1;;;;-0.5307732;0.8930398;0.4050942;;;;;;;;;;;;;;;
1961.0;1892.1;;;;-0.53638464;0.8872987;0.4026757;;;;;;;;;;;;;;;
1961.0;1892.1;;;;-0.54276663;0.8811265;0.39980322;;;;;;;;;;;;;;;
1961.0;1893.5;;;;;;;;;;106.21586;-94.67223;-124.881744;;;;;;;;;
1961.0;1893.5;;;;;;;0.3195288;-1.8616902;0.42146063;;;;;;;;;;;;
1961.0;1893.5;;;;;;;;;;104.99893;-92.764824;-124.881744;;;;;;;;;
1961.0;1893.5;;;;;;;0.3645741;-1.8430738;0.41450238;;;;;;;;;;;;
1961.0;1902.3;;;;-0.54947287;0.87399304;0.3966065;;;;;;;;;;;;;;;
1961.0;1902.3;;;;-0.55400854;0.8672143;0.3925858;;;;;;;;;;;;;;;
1961.0;1902.3;;;;-0.55828863;0.86045086;0.38842016;;;;;;;;;;;;;;;
1961.0;1902.3;;;;-0.56446844;0.85393155;0.3841706;;;;;;;;;;;;;;;
1961.0;1902.3;;;;-0.5694924;0.84744275;0.37967306;;;;;;;;;;;;;;;
1961.0;1903.1;;;;;;;;;;103.16782;-88.91567;-124.881744;;;;;;;;;
1961.0;1903.1;;;;;;;0.40479752;-1.8042543;0.39973143;;;;;;;;;;;;
1961.0;1903.1;;;;;;;;;;100.939964;-83.09427;-124.881744;;;;;;;;;
1961.0;1903.1;;;;;;;0.428663;-1.7656789;0.39069796;;;;;;;;;;;;
1961.0;1905.4;262143;262143;12976;;;;;;;;;;;;;;;;;;
1962.0;1907.5;;;;;;;;;;;;;;;;;60.705128;43.12647;-112.68578;;1733.7
1962.0;1907.5;;;;;;;;;;;;;;-0.7284768;-0.26197088;-0.18286692;;;;;1733.7
1962.0;1907.5;;;;;;;;;;;;;;;;;58.076725;46.514023;-113.86837;;1733.7
1962.0;1907.5;;;;;;;;;;;;;;-0.69844663;-0.25067905;-0.18762779;;;;;1733.7
1962.0;1907.5;;;;;;;;;;;;;;;;;56.9628;51.73269;-114.413895;;1743.2
1962.0;1907.5;;;;;;;;;;;;;;-0.67165136;-0.21454512;-0.20917386;;;;;1743.2
1962.0;1907.5;;;;;;;;;;;;;;;;;59.41191;54.898983;-109.97726;;1743.2
1962.0;1907.5;;;;;;;;;;;;;;-0.6541948;-0.22602008;-0.26929533;;;;;1743.2
1962.0;1907.5;;;;;;;;;;;;;;;;;66.92709;57.4778;-107.45567;;1752.9
1962.0;1907.5;;;;;;;;;;;;;;-0.6239204;-0.20374157;-0.3284402;;;;;1752.9
1962.0;1907.5;;;;;;;;;;;;;;;;;74.80468;61.601612;-104.92264;;1752.9
1962.0;1907.5;;;;;;;;;;;;;;-0.59511095;-0.19501327;-0.37879574;;;;;1752.9
1962.0;1908.8;;;;;;;;;;;;;;;;;82.216866;67.83883;-101.252785;;1762.6
1962.0;1908.8;;;;;;;;;;;;;;-0.5790582;-0.18005921;-0.40601826;;;;;1762.6
1962.0;1908.8;;;;;;;;;;;;;;;;;86.439865;73.40465;-96.243935;;1762.6
1962.0;1908.8;;;;;;;;;;;;;;-0.5789361;-0.17303994;-0.40260017;;;;;1762.6
1962.0;1908.8;;;;;;;;;;;;;;;;;86.40935;77.65435;-91.02908;;1772.2
1962.0;1908.8;;;;;;;;;;;;;;-0.5949889;-0.17383343;-0.36567277;;;;;1772.2
1962.0;1908.8;;;;;;;;;;;;;;;;;81.51112;80.08057;-85.6769;;1772.2
1962.0;1908.8;;;;;;;;;;;;;;-0.62245554;-0.17981505;-0.3065279;;;;;1772.2
1962.0;1908.8;;;;;;;;;;;;;;;;;75.258644;79.83642;-80.33616;;1781.9
1962.0;1908.8;;;;;;;;;;;;;;-0.65559864;-0.18872647;-0.24048586;;;;;1781.9
1962.0;1908.8;;;;;;;;;;;;;;;;;71.29887;77.364426;-75.20524;;1781.9
1962.0;1908.8;;;;;;;;;;;;;;-0.6917325;-0.20404676;-0.18768883;;;;;1781.9
1963.0;1912.1;;;;-0.57333;0.8418695;0.375763;;;;;;;;;;;;;;;
1963.0;1912.1;;;;-0.5775338;0.83604825;0.37215045;;;;;;;;;;;;;;;
1963.0;1912.1;;;;-0.5820618;0.8294984;0.36813357;;;;;;;;;;;;;;;
1963.0;1912.1;;;;-0.58466345;0.8235284;0.36467746;;;;;;;;;;;;;;;
1963.0;1912.1;;;;-0.5857392;0.8189317;0.36250308;;;;;;;;;;;;;;;
1963.0;1912.5;;;;;;;;;;98.757904;-76.879944;-124.881744;;;;;;;;;
1963.0;1912.5;;;;;;;0.43946654;-1.7441939;0.37739187;;;;;;;;;;;;
1963.0;1912.5;;;;;;;;;;97.28538;-72.35175;-124.881744;;;;;;;;;
1963.0;1912.5;;;;;;;0.44080934;-1.7239906;0.35224465;;;;;;;;;;;;
1963.0;1921.9;;;;;;;;;;95.74801;-68.613235;-124.881744;;;;;;;;;
1963.0;1921.9;;;;;;;0.43458357;-1.7069002;0.32764673;;;;;;;;;;;;
1963.0;1921.9;;;;;;;;;;94.050415;-65.153206;-124.881744;;;;;;;;;
1963.0;1921.9;;;;;;;0.41572315;-1.6805933;0.2989593;;;;;;;;;;;;
1963.0;1922.0;;;;-0.5894547;0.8147775;0.35971454;;;;;;;;;;;;;;;
1963.0;1922.0;;;;-0.59151465;0.81147015;0.3569832;;;;;;;;;;;;;;;
1963.0;1922.0;;;;-0.59486014;0.80863583;0.35483173;;;;;;;;;;;;;;;
1963.0;1922.0;;;;-0.59431845;0.8045579;0.35198596;;;;;;;;;;;;;;;
1963.0;1922.0;;;;-0.5965157;0.80009854;0.35045627;;;;;;;;;;;;;;;
1963.0;1925.2;262143;262143;12973;;;;;;;;;;;;;;;;;;
1963.0;1931.2;;;;;;;;;;;;;1611;;;;;;;;
1963.0;1931.2;;;;;;;;;;;;;1425;;;;;;;;
1963.0;1931.2;;;;;;;;;;;;;1183;;;;;;;;
1963.0;1931.2;;;;;;;;;;;;;817;;;;;;;;
1963.0;1931.2;;;;;;;;;;;;;183;;;;;;;;
2019.0;1931.5;;;;;;;;;;92.30323;-62.318798;-124.881744;;;;;;;;;
2019.0;1931.5;;;;;;;0.38569292;-1.6472061;0.2667928;;;;;;;;;;;;
2019.0;1931.5;;;;;;;;;;90.61708;-59.71328;-124.881744;;;;;;;;;
2019.0;1931.5;;;;;;;0.36036256;-1.6137577;0.23285623;;;;;;;;;;;;
2019.0;1932.0;;;;-0.5977593;0.7961732;0.34881976;;;;;;;;;;;;;;;
2019.0;1932.0;;;;-0.6020966;0.79327023;0.34733966;;;;;;;;;;;;;;;
2019.0;1932.0;;;;-0.60337454;0.7913438;0.3449364;;;;;;;;;;;;;;;
2019.0;1932.0;;;;-0.6060906;0.78860486;0.3432999;;;;;;;;;;;;;;;
2019.0;1932.0;;;;-0.6092568;0.7864343;0.3413277;;;;;;;;;;;;;;;
2019.0;1940.9;;;;;;;;;;88.49986;-59.19828;-124.881744;;;;;;;;;
2019.0;1940.9;;;;;;;0.3213599;-1.5768304;0.18903165;;;;;;;;;;;;
2019.0;1940.9;;;;;;;;;;85.63494;-60.26261;-124.881744;;;;;;;;;
2019.0;1940.9;;;;;;;0.28235725;-1.5525376;0.15204321;;;;;;;;;;;;
2019.0;1942.0;;;;-0.611332;0.7850801;0.3404427;;;;;;;;;;;;;;;
2019.0;1942.0;;;;-0.6151543;0.78447354;0.33962634;;;;;;;;;;;;;;;
2019.0;1942.0;;;;-0.6171532;0.7832948;0.33850864;;;;;;;;;;;;;;;
2019.0;1942.0;;;;-0.6188622;0.7819902;0.3390732;;;;;;;;;;;;;;;
2019.0;1942.0;;;;-0.62107855;0.78123486;0.33894733;;;;;;;;;;;;;;;
2019.0;1945.2;262143;262143;12989;;;;;;;;;;;;;;;;;;
2019.0;1950.6;;;;;;;;;;82.51442;-61.0065;-124.881744;;;;;;;;;
2019.0;1950.6;;;;;;;0.24079104;-1.5357524;0.11291849;;;;;;;;;;;;
2019.0;1950.6;;;;;;;;;;79.51979;-60.99887;-124.881744;;;;;;;;;
2019.0;1950.6;;;;;;;0.2047792;-1.5176245;0.07837153;;;;;;;;;;;;
2021.0;1952.1;;;;-0.6221543;0.7798997;0.33895114;;;;;;;;;;;;;;;
2021.0;1952.1;;;;-0.62369543;0.78016293;0.33875278;;;;;;;;;;;;;;;
2021.0;1952.1;;;;-0.6250306;0.7805902;0.3394051;;;;;;;;;;;;;;;
2021.0;1952.1;;;;-0.62627417;0.78175366;0.33875278;;;;;;;;;;;;;;;
2021.0;1952.1;;;;-0.627266;0.7835809;0.3385735;;;;;;;;;;;;;;;
2021.0;1960.2;;;;;;;;;;76.72353;-60.88061;-124.881744;;;;;;;;;
2021.0;1960.2;;;;;;;0.17780083;-1.494003;0.042542804;;;;;;;;;;;;
2021.0;1960.2;;;;;;;;;;73.76324;-61.16672;-124.881744;;;;;;;;;
2021.0;1960.2;;;;;;;0.15033418;-1.4703207;0.008972442;;;;;;;;;;;;
2021.0;1962.2;;;;-0.6278649;0.7859155;0.3367119;;;;;;;;;;;;;;;
2021.0;1962.2;;;;-0.62870413;0.78774655;0.33773425;;;;;;;;;;;;;;;
2021.0;1962.2;;;;-0.62966543;0.78891003;0.33718875;;;;;;;;;;;;;;;
2021.0;1962.2;;;;-0.6313477;0.79016125;0.33643726;;;;;;;;;;;;;;;
2021.0;1962.2;;;;-0.6324883;0.79140866;0.3361359;;;;;;;;;;;;;;;
2021.0;1965.5;262143;262143;12988;;;;;;;;;;;;;;;;;;
2025.0;1967.7;;;;;;;;;;;;;;;;;71.2035;73.801384;-70.16586;;1791.6
2025.0;1967.7;;;;;;;;;;;;;;-0.6999725;-0.20404676;-0.1572924;;;;;1791.6
2025.0;1967.7;;;;;;;;;;;;;;;;;73.870056;70.8182;-65.061646;;1791.6
2025.0;1967.7;;;;;;;;;;;;;;-0.6952727;-0.1980041;-0.1525315;;;;;1791.6
2025.0;1967.7;;;;;;;;;;;;;;;;;76.84943;69.193085;-59.621723;;1801.1
2025.0;1967.7;;;;;;;;;;;;;;-0.69161046;-0.18848231;-0.1683401;;;;;1801.1
2025.0;1967.7;;;;;;;;;;;;;;;;;77.90994;66.99576;-54.132206;;1801.1
2025.0;1967.7;;;;;;;;;;;;;;-0.68959624;-0.18414868;-0.19434187;;;;;1801.1
2025.0;1967.7;;;;;;;;;;;;;;;;;77.36061;63.989685;-48.646507;;1810.8
2025.0;1967.7;;;;;;;;;;;;;;-0.6868496;-0.17481002;-0.21680349;;;;;1810.8
2025.0;1967.7;;;;;;;;;;;;;;;;;74.36217;60.441906;-42.87469;;1810.8
2025.0;1967.7;;;;;;;;;;;;;;-0.6839198;-0.15454574;-0.23822749;;;;;1810.8
2025.0;1968.4;;;;;;;;;;;;;;;;;69.32661;55.9595;-36.885433;;1820.5
2025.0;1968.4;;;;;;;;;;;;;;-0.6695761;-0.119449444;-0.26190984;;;;;1820.5
2025.0;1968.4;;;;;;;;;;;;;;;;;62.95587;51.000244;-30.537582;;1820.5
2025.0;1968.4;;;;;;;;;;;;;;-0.64259773;-0.072634056;-0.28382215;;;;;1820.5
2025.0;1968.4;;;;;;;;;;;;;;;;;56.028168;45.541245;-23.953215;;1830.1
2025.0;1968.4;;;;;;;;;;;;;;-0.61812186;-0.00695822;-0.28266242;;;;;1830.1
2025.0;1968.4;;;;;;;;;;;;;;;;;48.669395;39.57106;-16.766108;;1830.1
2025.0;1968.4;;;;;;;;;;;;;;-0.5827204;0.064210944;-0.267098;;;;;1830.1
2025.0;1968.4;;;;;;;;;;;;;;;;;41.623432;34.264656;-8.70159;;1839.8
2025.0;1968.4;;;;;;;;;;;;;;-0.5483566;0.14764854;-0.23401593;;;;;1839.8
2025.0;1968.4;;;;;;;;;;;;;;;;;34.47447;29.293955;0.48829615;;1839.8
2025.0;1968.4;;;;;;;;;;;;;;-0.52034056;0.24268319;-0.18494217;;;;;1839.8
2027.0;1969.6;;;;;;;;;;70.471054;-62.08228;-124.881744;;;;;;;;;
2027.0;1969.6;;;;;;;0.12372204;-1.4389477;-0.017090365;;;;;;;;;;;;
2027.0;1969.6;;;;;;;;;;66.93472;-62.498093;-124.881744;;;;;;;;;
2027.0;1969.6;;;;;;;0.09411909;-1.4067202;-0.040894803;;;;;;;;;;;;
2027.0;1971.4;;;;;;;;;;;;;-505;;;;;;;;
2027.0;1971.4;;;;;;;;;;;;;-963;;;;;;;;
2027.0;1971.4;;;;;;;;;;;;;-1261;;;;;;;;
2027.0;1971.4;;;;;;;;;;;;;-1441;;;;;;;;
2027.0;1971.4;;;;;;;;;;;;;-1236;;;;;;;;
2027.0;1972.1;;;;-0.63302237;0.7936479;0.33505633;;;;;;;;;;;;;;;
2027.0;1972.1;;;;-0.6326104;0.7961389;0.33293536;;;;;;;;;;;;;;;
2027.0;1972.1;;;;-0.63226324;0.79807293;0.33097842;;;;;;;;;;;;;;;
2027.0;1972.1;;;;-0.6327134;0.799122;0.32928088;;;;;;;;;;;;;;;
2027.0;1972.1;;;;-0.6335984;0.80082333;0.32701877;;;;;;;;;;;;;;;
2027.0;1979.1;;;;;;;;;;63.46324;-61.613056;-124.881744;;;;;;;;;
2027.0;1979.1;;;;;;;0.07312235;-1.3683889;-0.0634785;;;;;;;;;;;;
2027.0;1979.1;;;;;;;;;;59.659874;-59.011353;-124.881744;;;;;;;;;
2027.0;1979.1;;;;;;;0.07477035;-1.3276772;-0.0844142;;;;;;;;;;;;
2027.0;1981.9;;;;-0.6332627;0.8034364;0.32514957;;;;;;;;;;;;;;;
2027.0;1981.9;;;;-0.6335526;0.80534375;0.3230858;;;;;;;;;;;;;;;
2027.0;1981.9;;;;-0.6325913;0.8073503;0.32120135;;;;;;;;;;;;;;;
2027.0;1981.9;;;;-0.63138205;0.8093759;0.31928638;;;;;;;;;;;;;;;
2027.0;1981.9;;;;-0.6293717;0.811432;0.3174782;;;;;;;;;;;;;;;
2027.0;1985.3;262143;262143;12996;;;;;;;;;;;;;;;;;;
2086.0;1988.6;;;;;;;;;;55.26139;-55.06302;-124.881744;;;;;;;;;
2086.0;1988.6;;;;;;;0.089358196;-1.292642;-0.10235908;;;;;;;;;;;;
2086.0;1988.6;;;;;;;;;;50.515762;-50.374615;-124.881744;;;;;;;;;
2086.0;1988.6;;;;;;;0.106387526;-1.2675557;-0.1180456;;;;;;;;;;;;
2086.0;1992.1;;;;-0.6284676;0.8139421;0.31546786;;;;;;;;;;;;;;;
2086.0;1992.1;;;;-0.62660223;0.81577694;0.3133202;;;;;;;;;;;;;;;
2086.0;1992.1;;;;-0.62430197;0.81803906;0.31077197;;;;;;;;;;;;;;;
2086.0;1992.1;;;;-0.6244164;0.8206979;0.30793765;;;;;;;;;;;;;;;
2086.0;1992.1;;;;-0.6249848;0.82426465;0.3052216;;;;;;;;;;;;;;;
2086.0;1998.0;;;;;;;;;;45.575577;-45.110172;-124.881744;;;;;;;;;
2086.0;1998.0;;;;;;;0.10681479;-1.2463759;-0.12921537;;;;;;;;;;;;
2086.0;1998.0;;;;;;;;;;40.75747;-38.89203;-124.881744;;;;;;;;;
2086.0;1998.0;;;;;;;0.0992462;-1.2261117;-0.13202307;;;;;;;;;;;;
2086.0;2001.9;;;;-0.62413794;0.82709134;0.30305865;;;;;;;;;;;;;;;
2086.0;2001.9;;;;-0.6239663;0.8293611;0.30015185;;;;;;;;;;;;;;;
2086.0;2001.9;;;;-0.6253472;0.8319284;0.29787448;;;;;;;;;;;;;;;
2086.0;2001.9;;;;-0.6267777;0.83547604;0.29623035;;;;;;;;;;;;;;;
2086.0;2001.9;;;;-0.62941366;0.83919156;0.2938805;;;;;;;;;;;;;;;
2086.0;2005.3;262143;262143;12998;;;;;;;;;;;;;;;;;;
2086.0;2007.6;;;;;;;;;;36.41621;-32.052067;-124.881744;;;;;;;;;
2086.0;2007.6;;;;;;;0.08087405;-1.2098148;-0.12909329;;;;;;;;;;;;
2086.0;2007.6;;;;;;;;;;32.6014;-25.17014;-124.881744;;;;;;;;;
2086.0;2007.6;;;;;;;0.07080294;-1.1930295;-0.12347789;;;;;;;;;;;;
2097.0;2011.4;;;;;;;;;;;;;-545;;;;;;;;
2097.0;2011.4;;;;;;;;;;;;;383;;;;;;;;
2097.0;2011.4;;;;;;;;;;;;;1282;;;;;;;;
2097.0;2011.4;;;;;;;;;;;;;2091;;;;;;;;
2097.0;2011.4;;;;;;;;;;;;;2883;;;;;;;;
2097.0;2012.1;;;;-0.63122183;0.8423959;0.29122546;;;;;;;;;;;;;;;
2097.0;2012.1;;;;-0.63138586;0.84442914;0.28846362;;;;;;;;;;;;;;;
2097.0;2012.1;;;;-0.6348267;0.84625256;0.2847977;;;;;;;;;;;;;;;
2097.0;2012.1;;;;-0.640812;0.8492242;0.28294376;;;;;;;;;;;;;;;
2097.0;2012.1;;;;-0.6406098;0.851143;0.28162387;;;;;;;;;;;;;;;
2097.0;2017.3;;;;;;;;;;29.236732;-18.818476;-124.881744;;;;;;;;;
2097.0;2017.3;;;;;;;0.0733665;-1.1906492;-0.11548204;;;;;;;;;;;;
2097.0;2017.3;;;;;;;;;;26.074251;-11.730552;-124.881744;;;;;;;;;
2097.0;2017.3;;;;;;;0.08740501;-1.1932737;-0.10510575;;;;;;;;;;;;
2097.0;2022.2;;;;-0.64049155;0.85115063;0.27853397;;;;;;;;;;;;;;;
2097.0;2022.2;;;;-0.6418763;0.85216916;0.27567676;;;;;;;;;;;;;;;
2097.0;2022.2;;;;-0.64358526;0.85408795;0.27195743;;;;;;;;;;;;;;;
2097.0;2022.2;;;;-0.64553076;0.85559857;0.2680817;;;;;;;;;;;;;;;
2097.0;2022.2;;;;-0.64736944;0.85847485;0.26532367;;;;;;;;;;;;;;;
2097.0;2025.6;262143;262143;12995;;;;;;;;;;;;;;;;;;
2097.0;2026.9;;;;;;;;;;23.0224;-4.5167394;-124.881744;;;;;;;;;
2097.0;2026.9;;;;;;;0.10504471;-1.2011474;-0.09363079;;;;;;;;;;;;
2097.0;2026.9;;;;;;;;;;19.974363;2.685629;-124.881744;;;;;;;;;
2097.0;2026.9;;;;;;;0.11279641;-1.2078615;-0.082461014;;;;;;;;;;;;
2100.0;2027.7;;;;;;;;;;;;;;;;;28.077028;24.662771;11.490219;;1849.3
2100.0;2027.7;;;;;;;;;;;;;;-0.4969634;0.33851132;-0.14093448;;;;;1849.3
2100.0;2027.7;;;;;;;;;;;;;;;;;21.427809;21.549883;22.907955;;1849.3
2100.0;2027.7;;;;;;;;;;;;;;-0.4735252;0.42518386;-0.11566515;;;;;1849.3
2100.0;2027.7;;;;;;;;;;;;;;;;;13.71807;23.064363;34.169285;;1859.0
2100.0;2027.7;;;;;;;;;;;;;;-0.43537706;0.49922177;-0.14197211;;;;;1859.0
2100.0;2027.7;;;;;;;;;;;;;;;;;5.5238504;29.992064;45.388653;;1859.0
2100.0;2027.7;;;;;;;;;;;;;;-0.38856167;0.5428022;-0.19080172;;;;;1859.0
2100.0;2027.7;;;;;;;;;;;;;;;;;0.22888882;39.052246;56.825466;;1868.4
2100.0;2027.7;;;;;;;;;;;;;;-0.37141025;0.50935394;-0.21735282;;;;;1868.4
2100.0;2027.7;;;;;;;;;;;;;;;;;-0.13733329;46.7658;66.32817;;1868.4
2100.0;2027.7;;;;;;;;;;;;;;-0.36909086;0.44080934;-0.18811609;;;;;1868.4
2100.0;2028.5;;;;;;;;;;;;;;;;;2.475814;52.175205;75.64394;;1878.1
2100.0;2028.5;;;;;;;;;;;;;;-0.35438094;0.35419783;-0.16333507;;;;;1878.1
2100.0;2028.5;;;;;;;;;;;;;;;;;6.050295;57.08106;83.98312;;1878.1
2100.0;2028.5;;;;;;;;;;;;;;-0.35163426;0.23004852;-0.112857446;;;;;1878.1
2100.0;2028.5;;;;;;;;;;;;;;;;;10.395368;55.375835;89.91897;;1887.6
2100.0;2028.5;;;;;;;;;;;;;;-0.38605914;0.084353164;-0.014038514;;;;;1887.6
2100.0;2028.5;;;;;;;;;;;;;;;;;16.029848;44.00006;93.85204;;1887.6
2100.0;2028.5;;;;;;;;;;;;;;-0.40028077;0.0112918485;0.084475234;;;;;1887.6
2100.0;2028.5;;;;;;;;;;;;;;;;;19.001587;31.632435;99.49797;;1897.3
2100.0;2028.5;;;;;;;;;;;;;;-0.36017945;0.07879879;0.113956116;;;;;1897.3
2100.0;2028.5;;;;;;;;;;;;;;;;;10.010071;28.164768;108.80231;;1897.3
2100.0;2028.5;;;;;;;;;;;;;;-0.36530656;0.1932432;0.06140324;;;;;1897.3
2101.0;2032.1;;;;-0.6497498;0.86259854;0.2644463;;;;;;;;;;;;;;;
2101.0;2032.1;;;;-0.65110403;0.86501324;0.26219562;;;;;;;;;;;;;;;
2101.0;2032.1;;;;-0.6519776;0.86831295;0.2619057;;;;;;;;;;;;;;;
2101.0;2032.1;;;;-0.6523629;0.8738061;0.2639847;;;;;;;;;;;;;;;
2101.0;2032.1;;;;-0.65193945;0.8802339;0.2648926;;;;;;;;;;;;;;;
2101.0;2036.3;;;;;;;;;;17.143772;9.708701;-124.881744;;;;;;;;;
2101.0;2036.3;;;;;;;0.10974456;-1.2038941;-0.068544574;;;;;;;;;;;;
2101.0;2036.3;;;;;;;;;;15.083773;16.003143;-124.881744;;;;;;;;;
2101.0;2036.3;;;;;;;0.10266427;-1.1894895;-0.058656577;;;;;;;;;;;;
2101.0;2042.1;;;;-0.6513291;0.88767254;0.26708224;;;;;;;;;;;;;;;
2101.0;2042.1;;;;-0.65230185;0.8951875;0.26976398;;;;;;;;;;;;;;;
2101.0;2042.1;;;;-0.65374;0.90384305;0.27365115;;;;;;;;;;;;;;;
2101.0;2042.1;;;;-0.6543847;0.91147625;0.2759705;;;;;;;;;;;;;;;
2101.0;2042.1;;;;-0.6580239;0.920292;0.27803043;;;;;;;;;;;;;;;
2101.0;2045.8;;;;;;;;;;13.187811;22.545547;-124.881744;;;;;;;;;
2101.0;2045.8;;;;;;;0.09997864;-1.1759392;-0.04571673;;;;;;;;;;;;
2101.0;2045.8;;;;;;;;;;11.3986635;29.538103;-124.881744;;;;;;;;;
2101.0;2045.8;;;;;;;0.08966338;-1.157506;-0.03442488;;;;;;;;;;;;
2101.0;2045.5;262143;262143;12997;;;;;;;;;;;;;;;;;;
2101.0;2051.5;;;;;;;;;;;;;3564;;;;;;;;
2101.0;2051.5;;;;;;;;;;;;;3744;;;;;;;;
2101.0;2051.5;;;;;;;;;;;;;3476;;;;;;;;
2101.0;2051.5;;;;;;;;;;;;;3275;;;;;;;;
2101.0;2051.5;;;;;;;;;;;;;3198;;;;;;;;
2140.0;2052.1;;;;-0.66069037;0.9308969;0.2808533;;;;;;;;;;;;;;;
2140.0;2052.1;;;;-0.6608811;0.94036496;0.28509906;;;;;;;;;;;;;;;
2140.0;2052.1;;;;-0.6605454;0.9504968;0.2900124;;;;;;;;;;;;;;;
2140.0;2052.1;;;;-0.661274;0.9595834;0.29448703;;;;;;;;;;;;;;;
2140.0;2052.1;;;;-0.6638184;0.9707986;0.30068973;;;;;;;;;;;;;;;
2140.0;2055.2;;;;;;;;;;9.773552;36.610767;-124.881744;;;;;;;;;
2140.0;2055.2;;;;;;;0.08362072;-1.1385235;-0.02417066;;;;;;;;;;;;
2140.0;2055.2;;;;;;;;;;8.190405;43.74447;-124.881744;;;;;;;;;
2140.0;2055.2;;;;;;;0.078554645;-1.1164892;-0.0112308115;;;;;;;;;;;;
2140.0;2062.0;;;;-0.66764456;0.9831544;0.30728534;;;;;;;;;;;;;;;
2140.0;2062.0;;;;-0.6713639;0.9960786;0.31410602;;;;;;;;;;;;;;;
2140.0;2062.0;;;;-0.67187124;1.0091974;0.32064822;;;;;;;;;;;;;;;
2140.0;2062.0;;;;-0.67465216;1.0234681;0.32843783;;;;;;;;;;;;;;;
2140.0;2062.0;;;;-0.6805344;1.0368501;0.3371468;;;;;;;;;;;;;;;
2140.0;2064.8;;;;;;;;;;6.717887;50.794243;-124.881744;;;;;;;;;
2140.0;2064.8;;;;;;;0.07257301;-1.0975066;-0.0019531846;;;;;;;;;;;;
2140.0;2064.8;;;;;;;;;;5.2339244;57.79824;-124.881744;;;;;;;;;
2140.0;2064.8;;;;;;;0.065431684;-1.0698569;0.008728294;;;;;;;;;;;;
2140.0;2065.5;262143;262143;12988;;;;;;;;;;;;;;;;;;
2141.0;2072.1;;;;-0.6869622;1.0506326;0.34652713;;;;;;;;;;;;;;;
2141.0;2072.1;;;;-0.69284827;1.0635072;0.3568268;;;;;;;;;;;;;;;
2141.0;2072.1;;;;-0.700924;1.0760728;0.3665314;;;;;;;;;;;;;;;
2141.0;2072.1;;;;-0.7101746;1.087555;0.37593085;;;;;;;;;;;;;;;
2141.0;2072.1;;;;-0.72115713;1.0979043;0.38568884;;;;;;;;;;;;;;;
2141.0;2074.4;;;;;;;;;;3.7232583;64.64965;-124.881744;;;;;;;;;
2141.0;2074.4;;;;;;;0.061342206;-1.0392773;0.018555254;;;;;;;;;;;;
2141.0;2074.4;;;;;;;;;;2.189703;70.99368;-124.881744;;;;;;;;;
2141.0;2074.4;;;;;;;0.052552875;-1.0054628;0.027405621;;;;;;;;;;;;
2141.0;2082.2;;;;-0.7315636;1.1059266;0.39439398;;;;;;;;;;;;;;;
2141.0;2082.2;;;;-0.739441;1.1106721;0.40272146;;;;;;;;;;;;;;;
2141.0;2082.2;;;;-0.74561316;1.1120836;0.40901572;;;;;;;;;;;;;;;
2141.0;2082.2;;;;-0.7510644;1.1097909;0.41328436;;;;;;;;;;;;;;;
2141.0;2082.2;;;;-0.7568399;1.104683;0.41710287;;;;;;;;;;;;;;;
2141.0;2084.0;;;;;;;;;;0.7209998;77.08213;-124.881744;;;;;;;;;
2141.0;2084.0;;;;;;;0.048280284;-0.96804714;0.03381451;;;;;;;;;;;;
2141.0;2084.0;;;;;;;;;;-0.80111086;82.86538;-124.881744;;;;;;;;;
2141.0;2084.0;;;;;;;0.046388134;-0.9277627;0.036317028;;;;;;;;;;;;
2141.0;2085.9;262143;262143;12983;;;;;;;;;;;;;;;;;;
2141.0;2091.9;;;;;;;;;;;;;3011;;;;;;;;
2141.0;2091.9;;;;;;;;;;;;;2758;;;;;;;;
2141.0;2091.9;;;;;;;;;;;;;2400;;;;;;;;
2141.0;2091.9;;;;;;;;;;;;;1889;;;;;;;;
2141.0;2091.9;;;;;;;;;;;;;1323;;;;;;;;
2142.0;2092.3;;;;-0.76062787;1.0974084;0.4210549;;;;;;;;;;;;;;;
2142.0;2092.3;;;;-0.7652246;1.0884324;0.42646796;;;;;;;;;;;;;;;
2142.0;2092.3;;;;-0.7695848;1.0794946;0.43435293;;;;;;;;;;;;;;;
2142.0;2092.3;;;;-0.77381146;1.0694886;0.44066244;;;;;;;;;;;;;;;
2142.0;2092.3;;;;-0.7779504;1.0598298;0.44588858;;;;;;;;;;;;;;;
2142.0;2093.7;;;;;;;;;;-2.376629;88.49223;-124.881744;;;;;;;;;
2142.0;2093.7;;;;;;;0.046143986;-0.88991976;0.04388562;;;;;;;;;;;;
2142.0;2093.7;;;;;;;;;;-4.139073;94.17249;-124.332405;;;;;;;;;
2142.0;2093.7;;;;;;;0.050294504;-0.8493301;0.052186653;;;;;;;;;;;;
2142.0;2096.0;;;;;;;;;;;;;;;;;-9.81933;30.259102;120.044556;;1906.9
2142.0;2096.0;;;;;;;;;;;;;;-0.40253913;0.25397503;-0.0056764428;;;;;1906.9
2142.0;2096.0;;;;;;;;;;;;;;;;;-28.618732;29.522844;124.87792;;1906.9
2142.0;2096.0;;;;;;;;;;;;;;-0.3969848;0.3340556;0.0022583697;;;;;1906.9
2142.0;2096.0;;;;;;;;;;;;;;;;;-41.329693;27.706991;124.988556;;1916.6
2142.0;2096.0;;;;;;;;;;;;;;-0.2956023;0.47126684;0.017334513;;;;;1916.6
2142.0;2096.0;;;;;;;;;;;;;;;;;-46.769615;34.875027;124.988556;;1916.6
2142.0;2096.0;;;;;;;;;;;;;;-0.24585712;0.6244087;0.15881832;;;;;1916.6
2142.0;2096.0;;;;;;;;;;;;;;;;;-47.616505;31.666767;124.988556;;1925.9
2142.0;2096.0;;;;;;;;;;;;;;-0.2229072;0.6490066;0.21198156;;;;;1925.9
2142.0;2096.0;;;;;;;;;;;;;;;;;-69.7615;37.987915;124.988556;;1925.9
2142.0;2096.0;;;;;;;;;;;;;;-0.301706;0.33710745;0.09887997;;;;;1925.9
2143.0;2096.8;;;;;;;;;;;;;;;;;-116.53111;63.661613;124.988556;;1935.6
2143.0;2096.8;;;;;;;;;;;;;;-0.50270087;-0.3353984;-0.20764793;;;;;1935.6
2143.0;2096.8;;;;;;;;;;;;;;;;;-124.988556;85.6769;121.74215;;1935.6
2143.0;2096.8;;;;;;;;;;;;;;-0.7024751;-0.8888821;-0.4746849;;;;;1935.6
2143.0;2096.8;;;;;;;;;;;;;;;;;-124.988556;78.867455;100.287636;;1945.3
2143.0;2096.8;;;;;;;;;;;;;;-0.7169408;-1.1378521;-0.7531358;;;;;1945.3
2143.0;2096.8;;;;;;;;;;;;;;;;;-124.988556;83.86868;78.5966;;1945.3
2143.0;2096.8;;;;;;;;;;;;;;-0.7226783;-1.1028168;-1.0071108;;;;;1945.3
2143.0;2096.8;;;;;;;;;;;;;;;;;-124.988556;106.25019;91.13971;;1955.0
2143.0;2096.8;;;;;;;;;;;;;;-0.92306286;-0.84865874;-1.0512406;;;;;1955.0
2143.0;2096.8;;;;;;;;;;;;;;;;;-124.988556;85.47853;121.63533;;1955.0
2143.0;2096.8;;;;;;;;;;;;;;-1.3154088;-0.40070802;-0.6988739;;;;;1955.0
2143.0;2102.3;;;;-0.7798387;1.04945;0.45166022;;;;;;;;;;;;;;;
2143.0;2102.3;;;;-0.78229153;1.0390168;0.45925528;;;;;;;;;;;;;;;
2143.0;2102.3;;;;-0.78385556;1.0286905;0.4646111;;;;;;;;;;;;;;;
2143.0;2102.3;;;;-0.785885;1.0206834;0.46882254;;;;;;;;;;;;;;;
2143.0;2102.3;;;;-0.78813565;1.0140153;0.47035986;;;;;;;;;;;;;;;
2143.0;2103.0;;;;;;;;;;-5.9739985;99.66582;-117.42378;;;;;;;;;
2143.0;2103.0;;;;;;;0.05590991;-0.81099886;0.065065466;;;;;;;;;;;;
2143.0;2103.0;;;;;;;;;;-7.9004793;104.76241;-106.05945;;;;;;;;;
2143.0;2103.0;;;;;;;0.061281167;-0.7738273;0.0794702;;;;;;;;;;;;
2143.0;2105.9;262143;262143;12971;;;;;;;;;;;;;;;;;;
2200.0;2112.2;;;;-0.7892839;1.0086404;0.46970755;;;;;;;;;;;;;;;
2200.0;2112.2;;;;-0.78902066;1.0065652;0.46838003;;;;;;;;;;;;;;;
2200.0;2112.2;;;;-0.7870141;1.0070916;0.46492773;;;;;;;;;;;;;;;
2200.0;2112.2;;;;-0.78572094;1.0130578;0.46478277;;;;;;;;;;;;;;;
2200.0;2112.2;;;;-0.78489697;1.0235597;0.46672827;;;;;;;;;;;;;;;
2200.0;2112.5;;;;;;;;;;-10.036775;109.81704;-94.52727;;;;;;;;;
2200.0;2112.5;;;;;;;0.06927702;-0.73482466;0.08990753;;;;;;;;;;;;
2200.0;2112.5;;;;;;;;;;-12.714774;114.86404;-83.02179;;;;;;;;;
2200.0;2112.5;;;;;;;0.070192575;-0.69569993;0.09613331;;;;;;;;;;;;
2200.0;2121.9;;;;;;;;;;-15.617847;119.60586;-71.50868;;;;;;;;;
2200.0;2121.9;;;;;;;0.07519761;-0.6610919;0.105838194;;;;;;;;;;;;
2200.0;2121.9;;;;;;;;;;-18.52092;123.36344;-60.07187;;;;;;;;;
2200.0;2121.9;;;;;;;0.0778222;-0.62984097;0.11633656;;;;;;;;;;;;
2200.0;2122.0;;;;-0.783764;1.0387803;0.46963507;;;;;;;;;;;;;;;
2200.0;2122.0;;;;-0.7788049;1.0548784;0.4700051;;;;;;;;;;;;;;;
2200.0;2122.0;;;;-0.77625287;1.0734254;0.47697836;;;;;;;;;;;;;;;
2200.0;2122.0;;;;-0.77554715;1.0959245;0.48125845;;;;;;;;;;;;;;;
2200.0;2122.0;;;;-0.7703897;1.1198579;0.48762518;;;;;;;;;;;;;;;
2200.0;2125.8;262143;262143;12955;;;;;;;;;;;;;;;;;;
2200.0;2131.6;;;;;;;;;;-21.477402;124.81689;-48.68847;;;;;;;;;
2200.0;2131.6;;;;;;;0.07861568;-0.6047548;0.12970367;;;;;;;;;;;;
2200.0;2131.6;;;;;;;;;;-24.815363;124.881744;-37.030396;;;;;;;;;
2200.0;2131.6;;;;;;;0.07507554;-0.5790582;0.1386761;;;;;;;;;;;;
2204.0;2131.8;;;;;;;;;;;;;849;;;;;;;;
2204.0;2131.8;;;;;;;;;;;;;573;;;;;;;;
2204.0;2131.8;;;;;;;;;;;;;353;;;;;;;;
2204.0;2131.8;;;;;;;;;;;;;217;;;;;;;;
2204.0;2131.8;;;;;;;;;;;;;370;;;;;;;;
2204.0;2132.2;;;;-0.770012;1.1448861;0.49657446;;;;;;;;;;;;;;;
2204.0;2132.2;;;;-0.765381;1.1681596;0.5042916;;;;;;;;;;;;;;;
2204.0;2132.2;;;;-0.7581483;1.1900407;0.5165711;;;;;;;;;;;;;;;
2204.0;2132.2;;;;-0.76020443;1.213154;0.52652746;;;;;;;;;;;;;;;
2204.0;2132.2;;;;-0.75943005;1.2339364;0.5347405;;;;;;;;;;;;;;;
2204.0;2141.2;;;;;;;;;;-28.256325;124.881744;-25.093843;;;;;;;;;
2204.0;2141.2;;;;;;;0.07049776;-0.55836666;0.15265359;;;;;;;;;;;;
2204.0;2141.2;;;;;;;;;;-31.086916;124.881744;-12.749107;;;;;;;;;
2204.0;2141.2;;;;;;;0.057679985;-0.5406049;0.16992706;;;;;;;;;;;;
2204.0;2142.3;;;;-0.75462353;1.2504617;0.54020315;;;;;;;;;;;;;;;
2204.0;2142.3;;;;-0.7498551;1.2632486;0.54793173;;;;;;;;;;;;;;;
2204.0;2142.3;;;;-0.7504388;1.273285;0.55509955;;;;;;;;;;;;;;;
2204.0;2142.3;;;;-0.7412835;1.284607;0.56109244;;;;;;;;;;;;;;;
2204.0;2142.3;;;;-0.730877;1.2911035;0.5666657;;;;;;;;;;;;;;;
2204.0;2146.1;262143;262143;12951;;;;;;;;;;;;;;;;;;
2206.0;2148.2;;;;;;;;;;;;;;;;;-124.988556;4.1924806;124.988556;;1964.6
2206.0;2148.2;;;;;;;;;;;;;;-1.5513169;-0.0043946654;-0.6059755;;;;;1964.6
2206.0;2148.2;;;;;;;;;;;;;;;;;-124.988556;-39.830467;124.988556;;1964.6
2206.0;2148.2;;;;;;;;;;;;;;-1.9317607;-0.07483139;-0.97219765;;;;;1964.6
2206.0;2148.2;;;;;;;;;;;;;;;;;-124.988556;-11.650441;124.988556;;1974.3
2206.0;2148.2;;;;;;;;;;;;;;-1.9998169;-0.5811945;-1.5096896;;;;;1974.3
2206.0;2148.2;;;;;;;;;;;;;;;;;-116.45482;24.563585;124.332405;;1974.3
2206.0;2148.2;;;;;;;;;;;;;;-1.9998169;-1.480697;-1.6291391;;;;;1974.3
2206.0;2148.2;;;;;;;;;;;;;;;;;-52.0455;-3.8262582;64.38643;;1983.9
2206.0;2148.2;;;;;;;;;;;;;;-1.9998169;-1.9998169;-1.1962645;;;;;1983.9
2206.0;2148.2;;;;;;;;;;;;;;;;;-29.992064;-52.365948;-83.41472;;1983.9
2206.0;2148.2;;;;;;;;;;;;;;-1.9998169;-1.9998169;-0.39265114;;;;;1983.9
2206.0;2148.9;;;;;;;;;;;;;;;;;-107.890564;-30.89999;-124.86266;;1993.5
2206.0;2148.9;;;;;;;;;;;;;;-1.9436018;-1.9998169;-0.7391583;;;;;1993.5
2206.0;2148.9;;;;;;;;;;;;;;;;;-124.988556;83.1515;-124.988556;;1993.5
2206.0;2148.9;;;;;;;;;;;;;;-1.5372784;-1.9998169;-0.89187294;;;;;1993.5
2206.0;2148.9;;;;;;;;;;;;;;;;;-107.425156;124.40489;-124.988556;;2003.2
2206.0;2148.9;;;;;;;;;;;;;;-1.1965086;-1.9998169;-0.8463393;;;;;2003.2
2206.0;2148.9;;;;;;;;;;;;;;;;;-20.401623;100.92089;-124.988556;;2003.2
2206.0;2148.9;;;;;;;;;;;;;;-0.8999298;-1.9998169;-0.110415965;;;;;2003.2
2206.0;2148.9;;;;;;;;;;;;;;;;;78.5699;-39.96017;-124.988556;;2012.8
2206.0;2148.9;;;;;;;;;;;;;;-0.42378002;-1.9998169;0.43287453;;;;;2012.8
2206.0;2148.9;;;;;;;;;;;;;;;;;112.80785;-119.88433;-124.988556;;2012.8
2206.0;2148.9;;;;;;;;;;;;;;-0.025452437;-1.5341655;0.52668846;;;;;2012.8
2207.0;2150.6;;;;;;;;;;-33.932766;124.881744;-0.057222206;;;;;;;;;
2207.0;2150.6;;;;;;;0.04608295;-0.51875365;0.18921477;;;;;;;;;;;;
2207.0;2150.6;;;;;;;;;;-37.114323;124.881744;12.169256;;;;;;;;;
2207.0;2150.6;;;;;;;0.037354656;-0.52455217;0.20349742;;;;;;;;;;;;
2207.0;2152.2;;;;-0.7261353;1.2980272;0.5712548;;;;;;;;;;;;;;;
2207.0;2152.2;;;;-0.7178841;1.3045121;0.5745774;;;;;;;;;;;;;;;
2207.0;2152.2;;;;-0.7066193;1.3100587;0.5760804;;;;;;;;;;;;;;;
2207.0;2152.2;;;;-0.69920737;1.3184663;0.5747948;;;;;;;;;;;;;;;
2207.0;2152.2;;;;-0.69507986;1.3256646;0.5726815;;;;;;;;;;;;;;;
2207.0;2160.2;;;;;;;;;;-40.253914;124.80544;24.620808;;;;;;;;;
2207.0;2160.2;;;;;;;0.029236732;-0.54017764;0.21210364;;;;;;;;;;;;
2207.0;2160.2;;;;;;;;;;-43.599506;123.352;37.507248;;;;;;;;;
2207.0;2160.2;;;;;;;0.021118809;-0.5635548;0.21277505;;;;;;;;;;;;
2207.0;2162.3;;;;-0.6844178;1.3307763;0.5686608;;;;;;;;;;;;;;;
2207.0;2162.3;;;;-0.6804467;1.3389703;0.56633765;;;;;;;;;;;;;;;
2207.0;2162.3;;;;-0.6724892;1.3474389;0.5573121;;;;;;;;;;;;;;;
2207.0;2162.3;;;;-0.67098624;1.3572541;0.55193335;;;;;;;;;;;;;;;
2207.0;2162.3;;;;-0.6700364;1.3683778;0.5409203;;;;;;;;;;;;;;;
2208.0;2163.5;;;;;;;;;;;;;;;;;96.19053;-124.988556;-124.988556;;2022.4
2208.0;2163.5;;;;;;;;;;;;;;0.15723136;-1.1158178;0.37073886;;;;;2022.4
2208.0;2163.5;;;;;;;;;;;;;;;;;117.43523;-108.176674;-124.988556;;2022.4
2208.0;2163.5;;;;;;;;;;;;;;0.48158208;-0.9765923;0.24250008;;;;;2022.4
2208.0;2163.5;;;;;;;;;;;;;;;;;121.280556;-37.514877;-124.988556;;2032.1
2208.0;2163.5;;;;;;;;;;;;;;0.5872372;-0.8723411;0.49220252;;;;;2032.1
2208.0;2163.5;;;;;;;;;;;;;;;;;90.02197;-10.288552;-124.988556;;2032.1
2208.0;2163.5;;;;;;;;;;;;;;0.6816004;-0.5184484;0.41309854;;;;;2032.1
2208.0;2163.5;;;;;;;;;;;;;;;;;14.946441;-18.391216;-112.81167;;2041.7
2208.0;2163.5;;;;;;;;;;;;;;0.66280097;-0.067445904;-0.061769463;;;;;2041.7
2208.0;2163.5;;;;;;;;;;;;;;;;;-43.16462;1.7853328;8.270516;;2041.7
2208.0;2163.5;;;;;;;;;;;;;;0.319834;0.122562334;-0.36194953;;;;;2041.7
2208.0;2165.9;262143;262143;12923;;;;;;;;;;;;;;;;;;
2208.0;2169.6;;;;;;;;;;-47.31895;117.73278;50.87817;;;;;;;;;
2208.0;2169.6;;;;;;;0.011841182;-0.5899228;0.2042909;;;;;;;;;;;;
2208.0;2169.6;;;;;;;;;;-51.36265;109.46608;64.19187;;;;;;;;;
2208.0;2169.6;;;;;;;0.0018311106;-0.60835594;0.19336528;;;;;;;;;;;;
2208.0;2171.7;;;;;;;;;;;;;712;;;;;;;;
2208.0;2171.7;;;;;;;;;;;;;919;;;;;;;;
2208.0;2171.7;;;;;;;;;;;;;693;;;;;;;;
2208.0;2171.7;;;;;;;;;;;;;368;;;;;;;;
2208.0;2171.7;;;;;;;;;;;;;597;;;;;;;;
2259.0;2172.1;;;;-0.6605683;1.3790437;0.53126913;;;;;;;;;;;;;;;
2259.0;2172.1;;;;-0.6587487;1.3906785;0.51987463;;;;;;;;;;;;;;;
2259.0;2172.1;;;;-0.6552544;1.4053918;0.5095864;;;;;;;;;;;;;;;
2259.0;2172.1;;;;-0.6383744;1.420189;0.49571234;;;;;;;;;;;;;;;
2259.0;2172.1;;;;-0.63291174;1.4356195;0.48305517;;;;;;;;;;;;;;;
2259.0;2178.8;;;;;;;;;;-55.410168;100.29145;77.13554;;;;;;;;;
2259.0;2178.8;;;;;;;-0.008423109;-0.6237373;0.18250069;;;;;;;;;;;;
2259.0;2178.8;;;;;;;;;;-59.629353;90.95279;89.39634;;;;;;;;;
2259.0;2178.8;;;;;;;-0.0145268105;-0.6294137;0.16626485;;;;;;;;;;;;
2259.0;2181.9;;;;-0.6195298;1.4548837;0.47001272;;;;;;;;;;;;;;;
2259.0;2181.9;;;;-0.6142197;1.4747049;0.45535666;;;;;;;;;;;;;;;
2259.0;2181.9;;;;-0.61232;1.4952089;0.44074637;;;;;;;;;;;;;;;
2259.0;2181.9;;;;-0.6066056;1.5175478;0.4249993;;;;;;;;;;;;;;;
2259.0;2181.9;;;;-0.59668356;1.5373805;0.40804297;;;;;;;;;;;;;;;
2259.0;2185.8;262143;262143;12914;;;;;;;;;;;;;;;;;;
2259.0;2188.5;;;;;;;;;;-64.1728;81.25553;100.82552;;;;;;;;;
2259.0;2188.5;;;;;;;-0.016235847;-0.6284982;0.15540025;;;;;;;;;;;;
2259.0;2188.5;;;;;;;;;;-69.04813;71.329384;111.77404;;;;;;;;;
2259.0;2188.5;;;;;;;-0.018677328;-0.6252022;0.14868619;;;;;;;;;;;;
2260.0;2192.0;;;;-0.58404166;1.5559847;0.39331824;;;;;;;;;;;;;;;
2260.0;2192.0;;;;-0.5821534;1.5750468;0.378357;;;;;;;;;;;;;;;
2260.0;2192.0;;;;-0.5771714;1.5952761;0.36584094;;;;;;;;;;;;;;;
2260.0;2192.0;;;;-0.5672074;1.6179545;0.35304263;;;;;;;;;;;;;;;
2260.0;2192.0;;;;-0.5534592;1.6439211;0.34159854;;;;;;;;;;;;;;;
2260.0;2198.1;;;;;;;;;;-74.58724;61.441387;121.87948;;;;;;;;;
2260.0;2198.1;;;;;;;-0.018799402;-0.6198309;0.13843197;;;;;;;;;;;;
2260.0;2198.1;;;;;;;;;;-80.72146;52.24769;124.881744;;;;;;;;;
2260.0;2198.1;;;;;;;-0.015991699;-0.61836606;0.12408826;;;;;;;;;;;;
2260.0;2202.1;;;;-0.5362473;1.6723902;0.3314934;;;;;;;;;;;;;;;
2260.0;2202.1;;;;-0.5198174;1.7015955;0.31850055;;;;;;;;;;;;;;;
2260.0;2202.1;;;;-0.50306326;1.7311251;0.30549243;;;;;;;;;;;;;;;
2260.0;2202.1;;;;-0.48553473;1.7628481;0.2915459;;;;;;;;;;;;;;;
2260.0;2202.1;;;;-0.46125418;1.7944262;0.2809067;;;;;;;;;;;;;;;
2260.0;2206.1;262143;262143;12921;;;;;;;;;;;;;;;;;;
2260.0;2207.7;;;;;;;;;;-86.97775;43.62621;124.881744;;;;;;;;;
2260.0;2207.7;;;;;;;-0.011719108;-0.6250191;0.116763815;;;;;;;;;;;;
2260.0;2207.7;;;;;;;;;;-92.71905;35.74099;124.881744;;;;;;;;;
2260.0;2207.7;;;;;;;-0.0023194067;-0.64015627;0.114749596;;;;;;;;;;;;
2263.0;2208.2;;;;;;;;;;;;;;;;;-65.012054;5.7641835;115.38667;;2051.3
2263.0;2208.2;;;;;;;;;;;;;;-0.29847103;0.14551225;-0.3150731;;;;;2051.3
2263.0;2208.2;;;;;;;;;;;;;;;;;-58.29417;-25.879696;124.988556;;2051.3
2263.0;2208.2;;;;;;;;;;;;;;-0.47907957;0.25678274;-0.5073397;;;;;2051.3
2263.0;2208.2;;;;;;;;;;;;;;;;;-20.168919;-19.787437;124.988556;;2060.9
2263.0;2208.2;;;;;;;;;;;;;;-0.51564074;0.2832728;-0.6714072;;;;;2060.9
2263.0;2208.2;;;;;;;;;;;;;;;;;19.531845;12.2646265;124.988556;;2060.9
2263.0;2208.2;;;;;;;;;;;;;;-0.72255623;0.1899472;-0.45655692;;;;;2060.9
2263.0;2208.2;;;;;;;;;;;;;;;;;35.10773;11.337626;124.988556;;2070.6
2263.0;2208.2;;;;;;;;;;;;;;-0.77980894;0.015015107;-0.39466536;;;;;2070.6
2263.0;2208.2;;;;;;;;;;;;;;;;;28.462324;-3.0289621;124.988556;;2070.6
2263.0;2208.2;;;;;;;;;;;;;;-0.95706046;-0.26270333;-0.2817469;;;;;2070.6
2263.0;2211.9;;;;;;;;;;;;;1319;;;;;;;;
2263.0;2211.9;;;;;;;;;;;;;1931;;;;;;;;
2263.0;2211.9;;;;;;;;;;;;;2213;;;;;;;;
2263.0;2211.9;;;;;;;;;;;;;2458;;;;;;;;
2263.0;2211.9;;;;;;;;;;;;;2686;;;;;;;;
2263.0;2212.1;;;;-0.4365769;1.8275645;0.27042392;;;;;;;;;;;;;;;
2263.0;2212.1;;;;-0.4216805;1.8619502;0.2600098;;;;;;;;;;;;;;;
2263.0;2212.1;;;;-0.4129029;1.8964236;0.248539;;;;;;;;;;;;;;;
2263.0;2212.1;;;;-0.40193945;1.9265788;0.2331467;;;;;;;;;;;;;;;
2263.0;2212.1;;;;-0.39010245;1.9511797;0.21628192;;;;;;;;;;;;;;;
2263.0;2217.3;;;;;;;;;;-97.59057;28.099916;124.881744;;;;;;;;;
2263.0;2217.3;;;;;;;0.010010071;-0.6583453;0.117984556;;;;;;;;;;;;
2263.0;2217.3;;;;;;;;;;-101.74108;19.95529;124.881744;;;;;;;;;
2263.0;2217.3;;;;;;;0.027954955;-0.68465227;0.13342692;;;;;;;;;;;;
2264.0;2222.2;;;;-0.3768769;1.9717104;0.1989899;;;;;;;;;;;;;;;
2264.0;2222.2;;;;-0.36028293;1.9905665;0.18439485;;;;;;;;;;;;;;;
2264.0;2222.2;;;;-0.34168628;1.9999964;0.17296983;;;;;;;;;;;;;;;
2264.0;2222.2;;;;-0.32172015;1.9999964;0.16418077;;;;;;;;;;;;;;;
2264.0;2222.2;;;;-0.29934695;1.9999964;0.15843202;;;;;;;;;;;;;;;
2264.0;2223.2;;;;;;;;;;;;;;;;;13.61507;-32.05588;124.988556;;2080.2
2264.0;2223.2;;;;;;;;;;;;;;-1.0412306;-0.46717733;-0.3460799;;;;;2080.2
2264.0;2223.2;;;;;;;;;;;;;;;;;3.4066288;-44.122135;124.988556;;2080.2
2264.0;2223.2;;;;;;;;;;;;;;-1.0593585;-0.57509077;-0.48072755;;;;;2080.2
2264.0;2223.2;;;;;;;;;;;;;;;;;8.4421835;-22.240362;124.988556;;2089.8
2264.0;2223.2;;;;;;;;;;;;;;-1.1411481;-0.73409224;-0.5463424;;;;;2089.8
2264.0;2223.2;;;;;;;;;;;;;;;;;27.40562;-4.6540728;124.988556;;2089.8
2264.0;2223.2;;;;;;;;;;;;;;-1.3370769;-0.8587909;-0.39930418;;;;;2089.8
2264.0;2223.2;;;;;;;;;;;;;;;;;26.161993;-12.596515;124.988556;;2099.3
2264.0;2223.2;;;;;;;;;;;;;;-1.4268013;-1.0278634;-0.48792994;;;;;2099.3
2264.0;2223.2;;;;;;;;;;;;;;;;;17.567217;-11.185034;124.988556;;2099.3
2264.0;2223.2;;;;;;;;;;;;;;-1.5983764;-1.1766106;-0.5360881;;;;;2099.3
2264.0;2226.0;262143;262143;12933;;;;;;;;;;;;;;;;;;
2264.0;2226.7;;;;;;;;;;-105.04471;12.318034;124.881744;;;;;;;;;
2264.0;2226.7;;;;;;;0.04992828;-0.7165746;0.15796381;;;;;;;;;;;;
2264.0;2226.7;;;;;;;;;;-107.810455;6.496628;124.881744;;;;;;;;;
2264.0;2226.7;;;;;;;0.06952117;-0.7477035;0.17401654;;;;;;;;;;;;
2319.0;2232.0;;;;-0.27554706;1.9999964;0.15425111;;;;;;;;;;;;;;;
2319.0;2232.0;;;;-0.25358966;1.9999964;0.1515236;;;;;;;;;;;;;;;
2319.0;2232.0;;;;-0.23539355;1.9999964;0.15003206;;;;;;;;;;;;;;;
2319.0;2232.0;;;;-0.21898654;1.9999964;0.14940263;;;;;;;;;;;;;;;
2319.0;2232.0;;;;-0.20118335;1.9999964;0.1498604;;;;;;;;;;;;;;;
2319.0;2236.0;;;;;;;;;;-111.121704;2.6284068;124.881744;;;;;;;;;
2319.0;2236.0;;;;;;;0.0966216;-0.78579056;0.20960112;;;;;;;;;;;;
2319.0;2236.0;;;;;;;;;;-113.9256;-0.45777765;124.881744;;;;;;;;;
2319.0;2236.0;;;;;;;0.13031404;-0.8348643;0.2628254;;;;;;;;;;;;
2319.0;2241.9;;;;-0.18408968;1.9999964;0.15203096;;;;;;;;;;;;;;;
2319.0;2241.9;;;;-0.16781999;1.9999964;0.1539612;;;;;;;;;;;;;;;
2319.0;2241.9;;;;-0.15350343;1.9999964;0.15573885;;;;;;;;;;;;;;;
2319.0;2241.9;;;;-0.14050294;1.9999964;0.16067888;;;;;;;;;;;;;;;
2319.0;2241.9;;;;-0.13475801;1.9999964;0.16588594;;;;;;;;;;;;;;;
2319.0;2245.5;;;;;;;;;;-114.78393;-2.9183326;124.881744;;;;;;;;;
2319.0;2245.5;;;;;;;0.16974396;-0.88644063;0.31354716;;;;;;;;;;;;
2319.0;2245.5;;;;;;;;;;-114.379555;-3.212073;124.881744;;;;;;;;;
2319.0;2245.5;;;;;;;0.21442305;-0.9378338;0.3736076;;;;;;;;;;;;
2319.0;2245.9;262143;262143;12939;;;;;;;;;;;;;;;;;;
2319.0;2251.8;;;;;;;;;;;;;2686;;;;;;;;
2319.0;2251.8;;;;;;;;;;;;;2245;;;;;;;;
2319.0;2251.8;;;;;;;;;;;;;1608;;;;;;;;
2319.0;2251.8;;;;;;;;;;;;;1263;;;;;;;;
2319.0;2251.8;;;;;;;;;;;;;1838;;;;;;;;
2321.0;2252.0;;;;-0.13285829;1.9999964;0.17251207;;;;;;;;;;;;;;;
2321.0;2252.0;;;;-0.1332245;1.9999964;0.17999269;;;;;;;;;;;;;;;
2321.0;2252.0;;;;-0.13275148;1.9999964;0.18615724;;;;;;;;;;;;;;;
2321.0;2252.0;;;;-0.13687898;1.9999964;0.18841937;;;;;;;;;;;;;;;
2321.0;2252.0;;;;-0.13958742;1.9999964;0.19077685;;;;;;;;;;;;;;;
2321.0;2255.2;;;;;;;;;;-113.235115;-1.3695182;124.881744;;;;;;;;;
2321.0;2255.2;;;;;;;0.2776574;-0.9866634;0.4367809;;;;;;;;;;;;
2321.0;2255.2;;;;;;;;;;-111.827446;3.360851;124.881744;;;;;;;;;
2321.0;2255.2;;;;;;;0.35377055;-1.0294504;0.49024934;;;;;;;;;;;;
2321.0;2262.1;;;;-0.14219286;1.9999964;0.194603;;;;;;;;;;;;;;;
2321.0;2262.1;;;;-0.146122;1.9999964;0.20189288;;;;;;;;;;;;;;;
2321.0;2262.1;;;;-0.14891435;1.9999964;0.21179202;;;;;;;;;;;;;;;
2321.0;2262.1;;;;-0.15375902;1.9999964;0.2213135;;;;;;;;;;;;;;;
2321.0;2262.1;;;;-0.15694429;1.9999964;0.22997287;;;;;;;;;;;;;;;
2321.0;2264.8;;;;;;;;;;-110.671555;10.376293;124.881744;;;;;;;;;
2321.0;2264.8;;;;;;;0.44068727;-1.0730919;0.53242594;;;;;;;;;;;;
2321.0;2264.8;;;;;;;;;;-110.46174;18.997772;124.881744;;;;;;;;;
2321.0;2264.8;;;;;;;0.516129;-1.1073946;0.5689871;;;;;;;;;;;;
2321.0;2266.2;262143;262143;12974;;;;;;;;;;;;;;;;;;
2322.0;2268.1;;;;;;;;;;;;;;;;;-1.4076662;-1.7586291;124.717705;;2109.0
2322.0;2268.1;;;;;;;;;;;;;;-1.5875728;-1.2127445;-0.55256814;;;;;2109.0
2322.0;2268.1;;;;;;;;;;;;;;;;;-21.80166;0.18692587;101.523636;;2109.0
2322.0;2268.1;;;;;;;;;;;;;;-1.4242378;-1.0813318;-0.44013795;;;;;2109.0
2322.0;2268.1;;;;;;;;;;;;;;;;;-41.982025;-14.828181;51.9158;;2118.7
2322.0;2268.1;;;;;;;;;;;;;;-0.96249276;-0.9026154;-0.6063417;;;;;2118.7
2322.0;2268.1;;;;;;;;;;;;;;;;;-40.42558;2.1248512;38.666954;;2118.7
2322.0;2268.1;;;;;;;;;;;;;;-0.74452955;-0.82168037;-0.537492;;;;;2118.7
2322.0;2268.1;;;;;;;;;;;;;;;;;-31.590473;3.9178138;39.590134;;2128.3
2322.0;2268.1;;;;;;;;;;;;;;-0.62117374;-0.74813074;-0.44080934;;;;;2128.3
2322.0;2268.1;;;;;;;;;;;;;;;;;-26.711327;-11.627552;46.880245;;2128.3
2322.0;2268.1;;;;;;;;;;;;;;-0.52211064;-0.7404401;-0.47706535;;;;;2128.3
2322.0;2272.0;;;;-0.15952303;1.9999964;0.23957828;;;;;;;;;;;;;;;
2322.0;2272.0;;;;-0.1648369;1.9999964;0.2502556;;;;;;;;;;;;;;;
2322.0;2272.0;;;;-0.17092134;1.9999964;0.26095203;;;;;;;;;;;;;;;
2322.0;2272.0;;;;-0.17576219;1.9999964;0.27627185;;;;;;;;;;;;;;;
2322.0;2272.0;;;;-0.17871477;1.9999964;0.29467776;;;;;;;;;;;;;;;
2322.0;2274.2;;;;;;;;;;-111.033966;27.848139;124.881744;;;;;;;;;
2322.0;2274.2;;;;;;;0.56715596;-1.134434;0.60438854;;;;;;;;;;;;
2322.0;2274.2;;;;;;;;;;-112.23945;35.657063;124.881744;;;;;;;;;
2322.0;2274.2;;;;;;;0.5808893;-1.1440779;0.6234321;;;;;;;;;;;;
2323.0;2282.1;;;;-0.17774202;1.9999964;0.30574802;;;;;;;;;;;;;;;
2323.0;2282.1;;;;-0.1767502;1.9999964;0.3207703;;;;;;;;;;;;;;;
2323.0;2282.1;;;;-0.17453386;1.9999964;0.32963946;;;;;;;;;;;;;;;
2323.0;2282.1;;;;-0.17927934;1.9999964;0.34101108;;;;;;;;;;;;;;;
2323.0;2282.1;;;;-0.1832123;1.9999964;0.3548012;;;;;;;;;;;;;;;
2323.0;2283.1;;;;;;;;;;;;;;;;;-17.979218;-13.527329;61.559647;;2137.9
2323.0;2283.1;;;;;;;;;;;;;;-0.50556964;-0.78688926;-0.47151098;;;;;2137.9
2323.0;2283.1;;;;;;;;;;;;;;;;;-11.2537;-7.7478867;78.62712;;2137.9
2323.0;2283.1;;;;;;;;;;;;;;-0.5667287;-0.84627825;-0.38380077;;;;;2137.9
2323.0;2283.1;;;;;;;;;;;;;;;;;-13.264108;-10.292367;86.725975;;2147.5
2323.0;2283.1;;;;;;;;;;;;;;-0.58717614;-0.8630024;-0.3477279;;;;;2147.5
2323.0;2283.1;;;;;;;;;;;;;;;;;-17.101809;-13.950773;89.63286;;2147.5
2323.0;2283.1;;;;;;;;;;;;;;-0.5731986;-0.8631245;-0.35200047;;;;;2147.5
2323.0;2283.1;;;;;;;;;;;;;;;;;-16.590626;-15.938292;90.99475;;2157.1
2323.0;2283.1;;;;;;;;;;;;;;-0.55586416;-0.8449965;-0.35480818;;;;;2157.1
2323.0;2283.1;;;;;;;;;;;;;;;;;-13.950773;-17.46803;92.020935;;2157.1
2323.0;2283.1;;;;;;;;;;;;;;-0.5453047;-0.82595295;-0.35145116;;;;;2157.1
2323.0;2283.6;;;;;;;;;;-114.33759;42.226173;124.881744;;;;;;;;;
