patientId;holterMac;flexMac;;;;;;;;;;;;;;;;;;;;
;CA:F3:0B:1E:33:78;D3:4A:5C:52:80:78;;;;;;;;;;;;;;;;;;;;
receivedTimeStamp;timeStamp;red;ir;green;adxl_accX;adxl_accY;adxl_accZ;lsm_accelX;lsm_accelY;lsm_accelZ;lsm_gyroX;lsm_gyroY;lsm_gyroZ;ecg;flex_lsm_accelX;flex_lsm_accelY;flex_lsm_accelZ;flex_lsm_gyroX;flex_lsm_gyroY;flex_lsm_gyroZ;flex_cmd;flexTimeStamp
305.0;220.9;;;;;;;;;;;;;;;;;;;;17;0.1
305.0;220.9;;;;;;;;;;;;;;;;;13.283181;0.6218146;1.3046663;;127.6
305.0;220.9;;;;;;;;;;;;;;-0.86092716;-0.34730065;-0.23395489;;;;;127.6
305.0;220.9;;;;;;;;;;;;;;;;;-6.000702;-17.281105;-6.302072;;127.6
305.0;220.9;;;;;;;;;;;;;;-0.8863796;-0.35901976;-0.23383282;;;;;127.6
305.0;220.9;;;;;;;;;;;;;;;;;-63.85617;-84.646904;-58.805355;;137.2
305.0;220.9;;;;;;;;;;;;;;-0.88991976;-0.36805323;-0.22217475;;;;;137.2
305.0;220.9;;;;;;;;;;;;;;;;;-122.26096;-124.988556;-118.13334;;137.2
305.0;220.9;;;;;;;;;;;;;;-0.88088626;-0.3823359;-0.2169866;;;;;137.2
368.0;221.7;;;;;;;;;;;;;;;;;-53.37306;-124.90082;-65.30198;;146.9
368.0;221.7;;;;;;;;;;;;;;-0.875515;-0.38795128;-0.21216469;;;;;146.9
368.0;221.7;;;;;;;;;;;;;;;;;23.571733;-124.95041;1.3275552;;146.9
368.0;221.7;;;;;;;;;;;;;;-0.86489457;-0.39051485;-0.20136112;;;;;146.9
368.0;221.7;;;;;;;;;;;;;;;;;28.130436;-97.5982;18.303476;;156.6
368.0;221.7;;;;;;;;;;;;;;-0.86269724;-0.39960936;-0.19971313;;;;;156.6
368.0;221.7;;;;;;;;;;;;;;;;;27.974028;-8.40022;47.067173;;156.6
368.0;221.7;;;;;;;;;;;;;;-0.85695976;-0.4034547;-0.20404676;;;;;156.6
368.0;221.7;;;;;;;;;;;;;;;;;31.781212;-0.3357036;49.382767;;166.3
368.0;221.7;;;;;;;;;;;;;;-0.854091;-0.38917205;-0.21161534;;;;;166.3
368.0;221.7;;;;;;;;;;;;;;;;;35.35188;0.14877774;49.80239;;166.3
368.0;221.7;;;;;;;;;;;;;;-0.86410105;-0.31629384;-0.20764793;;;;;166.3
368.0;273.7;;;;;;;;;;;;;;;;;36.626026;0.5417035;49.550613;;175.9
368.0;273.7;;;;;;;;;;;;;;-0.8752098;-0.27985474;-0.23206274;;;;;175.9
368.0;273.7;;;;;;;;;;;;;;;;;37.675102;0.8316294;49.104282;;175.9
368.0;273.7;;;;;;;;;;;;;;-0.9129917;-0.237434;-0.24091311;;;;;175.9
368.0;273.7;;;;;;;;;;;;;;;;;38.003174;0.17166662;48.757133;;185.6
368.0;273.7;;;;;;;;;;;;;;-0.92031616;-0.2038026;-0.25757623;;;;;185.6
368.0;273.7;;;;;;;;;;;;;;;;;37.915436;-0.5378887;49.104282;;185.6
368.0;273.7;;;;;;;;;;;;;;-0.95211643;-0.15747552;-0.26929533;;;;;185.6
368.0;273.7;;;;;;;;;;;;;;;;;36.820583;-1.4915922;49.470505;;195.2
368.0;273.7;;;;;;;;;;;;;;-0.9767144;-0.12274545;-0.28205207;;;;;195.2
368.0;273.7;;;;;;;;;;;;;;;;;34.588913;-2.5330362;49.695576;;195.2
368.0;273.7;;;;;;;;;;;;;;-1.0039979;-0.09985656;-0.30628377;;;;;195.2
431.0;274.5;;;;;;;;;;;;;;;;;31.346325;-3.6774805;49.420914;;204.9
431.0;274.5;;;;;;;;;;;;;;-1.0199286;-0.085695975;-0.32544938;;;;;204.9
431.0;274.5;;;;;;;;;;;;;;;;;27.447584;-4.181036;48.543507;;204.9
431.0;274.5;;;;;;;;;;;;;;-1.0225532;-0.06769005;-0.344615;;;;;204.9
431.0;274.5;;;;;;;;;;;;;;;;;23.567919;-4.528184;47.76528;;214.6
431.0;274.5;;;;;;;;;;;;;;-1.0263985;-0.05487228;-0.34681234;;;;;214.6
431.0;274.5;;;;;;;;;;;;;;;;;19.53566;-4.6121097;47.109135;;214.6
431.0;274.5;;;;;;;;;;;;;;-1.0329294;-0.057435837;-0.3551134;;;;;214.6
431.0;274.5;;;;;;;;;;;;;;;;;15.213477;-4.2878504;46.17069;;224.3
431.0;274.5;;;;;;;;;;;;;;-1.0408642;-0.06732383;-0.36573383;;;;;224.3
431.0;274.5;;;;;;;;;;;;;;;;;10.574664;-3.8567767;45.636616;;224.3
431.0;274.5;;;;;;;;;;;;;;-1.0574054;-0.085695975;-0.37189856;;;;;224.3
431.0;334.4;;;;;;;;;;;;;;;;;5.9854426;-3.6622212;45.033875;;233.9
431.0;334.4;;;;;;;;;;;;;;-1.0715048;-0.11371197;-0.38111514;;;;;233.9
431.0;334.4;;;;;;;;;;;;;;;;;2.2621846;-3.6355176;44.24421;;233.9
431.0;334.4;;;;;;;;;;;;;;-1.0922575;-0.15332499;-0.39112523;;;;;233.9
431.0;334.4;;;;;;;;;;;;;;;;;-0.65233314;-3.456221;43.56899;;243.6
431.0;334.4;;;;;;;;;;;;;;-1.1039766;-0.1988586;-0.3894162;;;;;243.6
431.0;334.4;;;;;;;;;;;;;;;;;-2.7085178;-3.3379622;43.21421;;243.6
431.0;334.4;;;;;;;;;;;;;;-1.1141697;-0.25611132;-0.39582506;;;;;243.6
431.0;334.4;;;;;;;;;;;;;;;;;-3.8033693;-2.9793696;42.806026;;253.3
431.0;334.4;;;;;;;;;;;;;;-1.1264992;-0.3114719;-0.4034547;;;;;253.3
431.0;334.4;;;;;;;;;;;;;;;;;-3.7919247;-2.8611102;42.49321;;253.3
431.0;334.4;;;;;;;;;;;;;;-1.1365093;-0.36524552;-0.40388197;;;;;253.3
491.0;335.2;;;;;;;;;;;;;;;;;-2.601703;-3.563036;42.077396;;263.0
491.0;335.2;;;;;;;;;;;;;;-1.1352276;-0.41755426;-0.39808345;;;;;263.0
491.0;335.2;;;;;;;;;;;;;;;;;-0.9498886;-3.7194436;41.703545;;263.0
491.0;335.2;;;;;;;;;;;;;;-1.1368755;-0.46339306;-0.39759514;;;;;263.0
491.0;335.2;;;;;;;;;;;;;;;;;1.7548143;-3.1128879;41.66158;;272.6
491.0;335.2;;;;;;;;;;;;;;-1.1425519;-0.49171424;-0.39991456;;;;;272.6
491.0;335.2;;;;;;;;;;;;;;;;;5.130924;-2.6245918;42.08121;;272.6
491.0;335.2;;;;;;;;;;;;;;-1.1529282;-0.5451216;-0.40235603;;;;;272.6
491.0;335.2;;;;;;;;;;;;;;;;;9.945219;-3.379925;41.974396;;282.3
491.0;335.2;;;;;;;;;;;;;;-1.1466415;-0.5701468;-0.3968627;;;;;282.3
491.0;335.2;;;;;;;;;;;;;;;;;15.465255;-4.1924806;41.451767;;282.3
491.0;335.2;;;;;;;;;;;;;;-1.129368;-0.58839685;-0.39399394;;;;;282.3
491.0;394.5;;;;;;;;;;;;;;;;;21.767328;-4.5319986;41.19999;;292.0
491.0;394.5;;;;;;;;;;;;;;-1.1319926;-0.61146885;-0.39271218;;;;;292.0
491.0;394.5;;;;;;;;;;;;;;;;;28.7904;-4.520554;40.883358;;292.0
491.0;394.5;;;;;;;;;;;;;;-1.1338236;-0.61867124;-0.38190863;;;;;292.0
491.0;394.5;;;;;;;;;;;;;;;;;36.618397;-4.5319986;40.52858;;301.7
491.0;394.5;;;;;;;;;;;;;;-1.1495712;-0.6255684;-0.38294625;;;;;301.7
491.0;394.5;;;;;;;;;;;;;;;;;45.186466;-4.1695914;40.059357;;301.7
491.0;394.5;;;;;;;;;;;;;;-1.183752;-0.60499895;-0.37318033;;;;;301.7
491.0;394.5;;;;;;;;;;;;;;;;;53.014465;-4.1238136;38.731804;;311.1
491.0;394.5;;;;;;;;;;;;;;-1.2039552;-0.5647145;-0.35560167;;;;;311.1
491.0;394.5;;;;;;;;;;;;;;;;;60.026093;-4.154332;37.08762;;311.1
491.0;394.5;;;;;;;;;;;;;;-1.2342906;-0.51405376;-0.34437087;;;;;311.1
551.0;395.7;;;;;;;;;;;;;;;;;65.462204;-4.688406;34.875027;;320.8
551.0;395.7;;;;;;;;;;;;;;-1.2596819;-0.4582049;-0.33851132;;;;;320.8
551.0;395.7;;;;;;;;;;;;;;;;;69.0405;-5.451369;32.6281;;320.8
551.0;395.7;;;;;;;;;;;;;;-1.2826929;-0.40827662;-0.3353984;;;;;320.8
551.0;395.7;;;;;;;;;;;;;;;;;70.6656;-6.0731835;30.49562;;330.5
551.0;395.7;;;;;;;;;;;;;;-1.3292031;-0.35340434;-0.3289285;;;;;330.5
551.0;395.7;;;;;;;;;;;;;;;;;69.93697;-7.122257;27.676472;;330.5
551.0;395.7;;;;;;;;;;;;;;-1.3726004;-0.30121768;-0.3145848;;;;;330.5
551.0;395.7;;;;;;;;;;;;;;;;;66.969055;-8.766441;24.16303;;340.0
551.0;395.7;;;;;;;;;;;;;;-1.4136784;-0.2656331;-0.3134251;;;;;340.0
551.0;395.7;;;;;;;;;;;;;;;;;62.70791;-11.738182;20.17655;;340.0
551.0;395.7;;;;;;;;;;;;;;-1.4452956;-0.2484817;-0.31696525;;;;;340.0
551.0;454.8;;;;;;;;;;;;;;;;;57.22602;-15.442366;15.297402;;349.7
551.0;454.8;;;;;;;;;;;;;;-1.4693441;-0.24219489;-0.3221534;;;;;349.7
551.0;454.8;;;;;;;;;;;;;;;;;50.881985;-19.898067;9.479813;;349.7
551.0;454.8;;;;;;;;;;;;;;-1.4778283;-0.23877682;-0.32209235;;;;;349.7
551.0;454.8;;;;;;;;;;;;;;;;;44.072544;-24.975584;2.9755547;;359.4
551.0;454.8;;;;;;;;;;;;;;-1.475692;-0.24011964;-0.32508317;;;;;359.4
551.0;454.8;;;;;;;;;;;;;;;;;37.617878;-30.056915;-4.1924806;;359.4
551.0;454.8;;;;;;;;;;;;;;-1.4576861;-0.25299844;-0.3299051;;;;;359.4
551.0;454.8;;;;;;;;;;;;;;;;;32.95999;-35.3328;-11.410108;;368.9
551.0;454.8;;;;;;;;;;;;;;-1.409772;-0.26831874;-0.3366802;;;;;368.9
551.0;454.8;;;;;;;;;;;;;;;;;30.388805;-40.62395;-18.089846;;368.9
551.0;454.8;;;;;;;;;;;;;;-1.3501999;-0.28266242;-0.3335063;;;;;368.9
610.0;455.6;;;;;;;;;;;;;;;;;29.824215;-45.609913;-24.304178;;378.6
610.0;455.6;;;;;;;;;;;;;;-1.2873318;-0.29016998;-0.30097353;;;;;378.6
610.0;455.6;;;;;;;;;;;;;;;;;30.117952;-49.85961;-30.610065;;378.6
610.0;455.6;;;;;;;;;;;;;;-1.2209846;-0.28254035;-0.2575152;;;;;378.6
610.0;455.6;;;;;;;;;;;;;;;;;31.39973;-53.331097;-36.87399;;388.3
610.0;455.6;;;;;;;;;;;;;;-1.1521958;-0.2569048;-0.20056765;;;;;388.3
610.0;455.6;;;;;;;;;;;;;;;;;32.788326;-55.71535;-43.343914;;388.3
610.0;455.6;;;;;;;;;;;;;;-1.0895108;-0.2540971;-0.17548142;;;;;388.3
610.0;455.6;;;;;;;;;;;;;;;;;35.44343;-56.43635;-49.798576;;398.0
610.0;455.6;;;;;;;;;;;;;;-1.0569781;-0.26722008;-0.17639698;;;;;398.0
610.0;455.6;;;;;;;;;;;;;;;;;40.12421;-56.80639;-56.169315;;398.0
610.0;455.6;;;;;;;;;;;;;;-1.0508133;-0.30121768;-0.15637684;;;;;398.0
610.0;515.5;;;;;;;;;;;;;;;;;45.590836;-57.493057;-62.295906;;407.6
610.0;515.5;;;;;;;;;;;;;;-1.0660726;-0.3426008;-0.11993774;;;;;407.6
610.0;515.5;;;;;;;;;;;;;;;;;50.53865;-57.451096;-68.88027;;407.6
610.0;515.5;;;;;;;;;;;;;;-1.0819422;-0.39796138;-0.08148442;;;;;407.6
610.0;515.5;;;;;;;;;;;;;;;;;55.471203;-55.940426;-75.01068;;417.3
610.0;515.5;;;;;;;;;;;;;;-1.0685141;-0.44660786;-0.050416578;;;;;417.3
610.0;515.5;;;;;;;;;;;;;;;;;58.622242;-50.241096;-82.05664;;417.3
610.0;515.5;;;;;;;;;;;;;;-1.0112003;-0.50447094;-0.062135685;;;;;417.3
610.0;515.5;;;;;;;;;;;;;;;;;61.185795;-39.23154;-88.88134;;426.8
610.0;515.5;;;;;;;;;;;;;;-0.9704886;-0.56105226;-0.1126133;;;;;426.8
610.0;515.5;;;;;;;;;;;;;;;;;62.868134;-25.421919;-95.70223;;426.8
610.0;515.5;;;;;;;;;;;;;;-0.9443037;-0.61043125;-0.17920469;;;;;426.8
669.0;516.7;;;;;;;;;;;;;;;;;64.84039;-9.990996;-101.809746;;436.5
669.0;516.7;;;;;;;;;;;;;;-0.97305214;-0.64497817;-0.25959045;;;;;436.5
669.0;516.7;;;;;;;;;;;;;;;;;66.82028;3.7919247;-106.761375;;436.5
669.0;516.7;;;;;;;;;;;;;;-1.0319529;-0.6551103;-0.3338725;;;;;436.5
669.0;516.7;;;;;;;;;;;;;;;;;69.04431;14.233069;-110.84322;;446.1
669.0;516.7;;;;;;;;;;;;;;-1.1203955;-0.64638203;-0.3939329;;;;;446.1
669.0;516.7;;;;;;;;;;;;;;;;;72.721794;20.836512;-113.82259;;446.1
669.0;516.7;;;;;;;;;;;;;;-1.2219611;-0.60982084;-0.40998566;;;;;446.1
669.0;516.7;;;;;;;;;;;;;;;;;76.815094;23.03003;-115.58504;;455.8
669.0;516.7;;;;;;;;;;;;;;-1.2855006;-0.5642262;-0.41828668;;;;;455.8
669.0;516.7;;;;;;;;;;;;;;;;;81.060974;23.316141;-115.833;;455.8
669.0;516.7;;;;;;;;;;;;;;-1.389935;-0.53425705;-0.4329966;;;;;455.8
669.0;530.5;;;;;;;;;;;;;;;;;86.42842;20.733513;-116.042816;;465.5
669.0;530.5;;;;;;;;;;;;;;-1.4066591;-0.4900052;-0.44001588;;;;;465.5
669.0;530.5;;;;;;;;;;;;;;;;;89.91897;19.119846;-115.993225;;465.5
669.0;530.5;;;;;;;;;;;;;;-1.3959776;-0.46107364;-0.4580218;;;;;465.5
669.0;530.5;;;;;;;;;;;;;;;;;91.83019;19.119846;-114.806816;;475.1
669.0;530.5;;;;;;;;;;;;;;-1.3967102;-0.4143803;-0.49598682;;;;;475.1
669.0;530.5;;;;;;;;;;;;;;;;;93.642235;16.224403;-113.41441;;475.1
669.0;530.5;;;;;;;;;;;;;;-1.3655202;-0.3894162;-0.52211064;;;;;475.1
669.0;530.5;;;;;;;;;;;;;;;;;95.3093;13.626515;-112.86889;;484.7
669.0;530.5;;;;;;;;;;;;;;-1.3227333;-0.37153232;-0.5190588;;;;;484.7
669.0;530.5;;;;;;;;;;;;;;;;;95.828125;11.619923;-111.12933;;484.7
669.0;530.5;;;;;;;;;;;;;;-1.2920927;-0.33838925;-0.5274209;;;;;484.7
732.0;575.3;;;;;;;;;;;;;;;;;95.41612;11.429182;-108.68023;;494.4
732.0;575.3;;;;;;;;;;;;;;-1.2940458;-0.30561236;-0.5263833;;;;;494.4
732.0;575.3;;;;;;;;;;;;;;;;;95.965454;11.978516;-107.50145;;494.4
732.0;575.3;;;;;;;;;;;;;;-1.3053987;-0.28894925;-0.4898221;;;;;494.4
732.0;575.3;;;;;;;;;;;;;;;;;97.46086;12.558367;-108.06986;;503.9
732.0;575.3;;;;;;;;;;;;;;-1.2598041;-0.24738304;-0.3834956;;;;;503.9
732.0;575.3;;;;;;;;;;;;;;;;;96.758934;13.874477;-109.176155;;503.9
732.0;575.3;;;;;;;;;;;;;;-1.2214729;-0.20465712;-0.29053622;;;;;503.9
732.0;575.3;;;;;;;;;;;;;;;;;93.57738;15.732292;-108.72219;;513.6
732.0;575.3;;;;;;;;;;;;;;-1.2855006;-0.16779077;-0.24146245;;;;;513.6
732.0;575.3;;;;;;;;;;;;;;;;;87.46605;13.1801815;-106.13575;;513.6
732.0;575.3;;;;;;;;;;;;;;-1.2900784;-0.17816706;-0.2191229;;;;;513.6
732.0;590.3;;;;;;;;;;;;;;;;;84.410385;9.212775;-106.71941;;523.3
732.0;590.3;;;;;;;;;;;;;;-1.2165288;-0.17389446;-0.16895047;;;;;523.3
732.0;590.3;;;;;;;;;;;;;;;;;82.716606;8.40785;-106.14338;;523.3
732.0;590.3;;;;;;;;;;;;;;-1.1693472;-0.18890958;-0.13934751;;;;;523.3
732.0;590.3;;;;;;;;;;;;;;;;;82.43431;7.206183;-105.23545;;532.9
732.0;590.3;;;;;;;;;;;;;;-1.1484725;-0.17303994;-0.14038515;;;;;532.9
732.0;590.3;;;;;;;;;;;;;;;;;83.460495;4.9058504;-104.58693;;532.9
732.0;590.3;;;;;;;;;;;;;;-1.1087375;-0.1767632;-0.15753655;;;;;532.9
732.0;590.3;;;;;;;;;;;;;;;;;86.3712;2.4529252;-103.01904;;542.5
732.0;590.3;;;;;;;;;;;;;;-1.065096;-0.18378246;-0.18567461;;;;;542.5
732.0;590.3;;;;;;;;;;;;;;;;;90.514084;1.2054812;-101.04297;;542.5
732.0;590.3;;;;;;;;;;;;;;-1.0408642;-0.17322306;-0.19507432;;;;;542.5
788.0;635.7;;;;;;;;;;;;;;;;;94.88968;-0.4158147;-98.937195;;552.2
788.0;635.7;;;;;;;;;;;;;;-1.0054017;-0.16046633;-0.23285623;;;;;552.2
788.0;635.7;;;;;;;;;;;;;;;;;99.47889;-0.79729605;-97.31972;;552.2
788.0;635.7;;;;;;;;;;;;;;-0.9748222;-0.12689596;-0.23572497;;;;;552.2
788.0;635.7;;;;;;;;;;;;;;;;;102.847374;-0.26322216;-95.58779;;561.8
788.0;635.7;;;;;;;;;;;;;;-0.9502854;-0.111636706;-0.24744408;;;;;561.8
788.0;635.7;;;;;;;;;;;;;;;;;104.56023;1.4000366;-94.23734;;561.8
788.0;635.7;;;;;;;;;;;;;;-0.94247264;-0.08996857;-0.24597919;;;;;561.8
788.0;635.7;;;;;;;;;;;;;;;;;104.13297;2.6512957;-93.184456;;571.4
788.0;635.7;;;;;;;;;;;;;;-0.92587054;-0.083803825;-0.23493148;;;;;571.4
788.0;635.7;;;;;;;;;;;;;;;;;102.00812;3.8453321;-93.184456;;571.4
788.0;635.7;;;;;;;;;;;;;;-0.9106723;-0.119876705;-0.23816645;;;;;571.4
788.0;651.0;;;;;;;;;;;;;;;;;99.5056;4.8295546;-93.10434;;581.2
788.0;651.0;;;;;;;;;;;;;;-0.88790554;-0.15363018;-0.24018067;;;;;581.2
788.0;651.0;;;;;;;;;;;;;;;;;95.606865;5.0851464;-93.714714;;581.2
788.0;651.0;;;;;;;;;;;;;;-0.8666036;-0.17902158;-0.25122836;;;;;581.2
788.0;651.0;;;;;;;;;;;;;;;;;89.541306;6.5462203;-94.73708;;590.9
788.0;651.0;;;;;;;;;;;;;;-0.88119143;-0.15601063;-0.25104526;;;;;590.9
788.0;651.0;;;;;;;;;;;;;;;;;80.61464;7.6792197;-95.05371;;590.9
788.0;651.0;;;;;;;;;;;;;;-0.89779353;-0.2026429;-0.2624592;;;;;590.9
788.0;651.0;;;;;;;;;;;;;;;;;72.21824;6.6492205;-94.370865;;600.5
788.0;651.0;;;;;;;;;;;;;;-0.8682516;-0.2560503;-0.29145175;;;;;600.5
788.0;651.0;;;;;;;;;;;;;;;;;64.424576;6.721702;-95.671715;;600.5
788.0;651.0;;;;;;;;;;;;;;-0.83748895;-0.23047578;-0.27008882;;;;;600.5
851.0;696.0;;;;;;;;;;;;;;;;;57.56554;7.6105533;-96.86957;;609.9
851.0;696.0;;;;;;;;;;;;;;-0.802942;-0.25818658;-0.283639;;;;;609.9
851.0;696.0;;;;;;;;;;;;;;;;;54.044468;10.063478;-97.49519;;609.9
851.0;696.0;;;;;;;;;;;;;;-0.79366434;-0.23480941;-0.25745416;;;;;609.9
851.0;696.0;;;;;;;;;;;;;;;;;52.262947;10.982849;-97.693565;;619.5
851.0;696.0;;;;;;;;;;;;;;-0.7554552;-0.267098;-0.252266;;;;;619.5
851.0;696.0;;;;;;;;;;;;;;;;;54.006317;12.478255;-96.1562;;619.5
851.0;696.0;;;;;;;;;;;;;;-0.7737663;-0.29999694;-0.24951933;;;;;619.5
851.0;696.0;;;;;;;;;;;;;;;;;57.611317;13.176367;-93.81771;;629.3
851.0;696.0;;;;;;;;;;;;;;-0.770043;-0.28955963;-0.22882779;;;;;629.3
851.0;696.0;;;;;;;;;;;;;;;;;58.523056;14.183477;-92.75338;;629.3
851.0;696.0;;;;;;;;;;;;;;-0.7563097;-0.2702109;-0.21662039;;;;;629.3
851.0;703.4;;;;;;;;;;;;;;;;;59.2555;13.485367;-93.50871;;638.8
851.0;703.4;;;;;;;;;;;;;;-0.72475356;-0.31562242;-0.17957091;;;;;638.8
851.0;703.4;;;;;;;;;;;;;;;;;59.091465;15.682699;-93.913086;;638.8
851.0;703.4;;;;;;;;;;;;;;-0.7711417;-0.34156317;-0.17456588;;;;;638.8
851.0;703.4;;;;;;;;;;;;;;;;;60.708942;16.113773;-93.07001;;648.5
851.0;703.4;;;;;;;;;;;;;;-0.8011719;-0.34107485;-0.11963256;;;;;648.5
851.0;703.4;;;;;;;;;;;;;;;;;60.995056;16.37318;-92.26127;;648.5
851.0;703.4;;;;;;;;;;;;;;-0.8103275;-0.30622274;-0.12573627;;;;;648.5
851.0;703.4;;;;;;;;;;;;;;;;;61.826683;17.548143;-92.40623;;658.2
851.0;703.4;;;;;;;;;;;;;;-0.7986694;-0.25482956;-0.10834071;;;;;658.2
851.0;703.4;;;;;;;;;;;;;;;;;62.5782;18.986328;-91.628006;;658.2
851.0;703.4;;;;;;;;;;;;;;-0.794763;-0.23816645;-0.11780145;;;;;658.2
913.0;756.2;;;;;;;;;;;;;;;;;63.74935;20.050661;-90.907005;;667.9
913.0;756.2;;;;;;;;;;;;;;-0.77535325;-0.2019715;-0.11493271;;;;;667.9
913.0;756.2;;;;;;;;;;;;;;;;;66.05732;20.466475;-89.29334;;667.9
913.0;756.2;;;;;;;;;;;;;;-0.7701651;-0.24219489;-0.120975375;;;;;667.9
913.0;756.2;;;;;;;;;;;;;;;;;70.448166;19.913326;-86.97775;;677.4
913.0;756.2;;;;;;;;;;;;;;-0.75771356;-0.28382215;-0.13196203;;;;;677.4
913.0;756.2;;;;;;;;;;;;;;;;;75.38072;18.608662;-84.21201;;677.4
913.0;756.2;;;;;;;;;;;;;;-0.74153876;-0.28980377;-0.13769951;;;;;677.4
913.0;756.2;;;;;;;;;;;;;;;;;79.55031;17.128513;-81.57216;;687.2
913.0;756.2;;;;;;;;;;;;;;-0.72762233;-0.30292672;-0.15802485;;;;;687.2
913.0;756.2;;;;;;;;;;;;;;;;;83.73516;15.797144;-79.15738;;687.2
913.0;756.2;;;;;;;;;;;;;;-0.7140111;-0.32343516;-0.15814692;;;;;687.2
913.0;764.1;;;;;;;;;;;;;;;;;87.08076;14.275033;-76.80365;;696.9
913.0;764.1;;;;;;;;;;;;;;-0.69899595;-0.34485915;-0.17169714;;;;;696.9
913.0;764.1;;;;;;;;;;;;;;;;;90.42634;12.974181;-74.20576;;696.9
913.0;764.1;;;;;;;;;;;;;;-0.70223093;-0.35145116;-0.17065951;;;;;696.9
913.0;764.1;;;;;;;;;;;;;;;;;92.257454;10.876034;-72.22968;;706.5
913.0;764.1;;;;;;;;;;;;;;-0.67738885;-0.35023043;-0.17188025;;;;;706.5
913.0;764.1;;;;;;;;;;;;;;;;;92.87545;10.277108;-70.21546;;706.5
913.0;764.1;;;;;;;;;;;;;;-0.6704306;-0.3441267;-0.17255165;;;;;706.5
913.0;764.1;;;;;;;;;;;;;;;;;92.52449;10.307627;-68.33857;;716.2
913.0;764.1;;;;;;;;;;;;;;-0.6803186;-0.35114598;-0.16113773;;;;;716.2
913.0;764.1;;;;;;;;;;;;;;;;;90.97186;10.147405;-66.42735;;716.2
913.0;764.1;;;;;;;;;;;;;;-0.6796472;-0.3368633;-0.15387432;;;;;716.2
971.0;816.6;;;;;;;;;;;;;;;;;88.57997;10.170293;-64.504684;;725.9
971.0;816.6;;;;;;;;;;;;;;-0.6797693;-0.33234656;-0.1472213;;;;;725.9
971.0;816.6;;;;;;;;;;;;;;;;;86.53523;10.677664;-62.51335;;725.9
971.0;816.6;;;;;;;;;;;;;;-0.6761681;-0.30133978;-0.12439345;;;;;725.9
971.0;816.6;;;;;;;;;;;;;;;;;83.56349;11.741997;-60.644093;;735.5
971.0;816.6;;;;;;;;;;;;;;-0.66261786;-0.2658162;-0.11206397;;;;;735.5
971.0;816.6;;;;;;;;;;;;;;;;;80.19119;13.985106;-58.389538;;735.5
971.0;816.6;;;;;;;;;;;;;;-0.66658527;-0.24738304;-0.083010346;;;;;735.5
971.0;816.6;;;;;;;;;;;;;;;;;76.78839;15.56444;-55.90228;;745.0
971.0;816.6;;;;;;;;;;;;;;-0.65901667;-0.22998749;-0.052369762;;;;;745.0
971.0;816.6;;;;;;;;;;;;;;;;;72.92398;17.578661;-52.52617;;745.0
971.0;816.6;;;;;;;;;;;;;;-0.66060364;-0.21906187;-0.027893918;;;;;745.0
971.0;824.0;;;;;;;;;;;;;;;;;69.28083;18.936735;-48.95932;;754.7
971.0;824.0;;;;;;;;;;;;;;-0.66280097;-0.2229072;-0.0056154057;;;;;754.7
971.0;824.0;;;;;;;;;;;;;;;;;66.53417;20.012512;-44.942318;;754.7
971.0;824.0;;;;;;;;;;;;;;-0.662862;-0.23358867;0.00982696;;;;;754.7
971.0;824.0;;;;;;;;;;;;;;;;;64.34447;20.47792;-40.753654;;764.4
971.0;824.0;;;;;;;;;;;;;;-0.6523026;-0.24115726;0.01678518;;;;;764.4
971.0;824.0;;;;;;;;;;;;;;;;;62.284462;20.809809;-36.271248;;764.4
971.0;824.0;;;;;;;;;;;;;;-0.63399154;-0.26764733;0.00695822;;;;;764.4
971.0;824.0;;;;;;;;;;;;;;;;;60.861538;21.275217;-31.506546;;773.9
971.0;824.0;;;;;;;;;;;;;;-0.6120792;-0.29078037;-0.011658071;;;;;773.9
971.0;824.0;;;;;;;;;;;;;;;;;59.163948;22.179325;-26.81051;;773.9
971.0;824.0;;;;;;;;;;;;;;-0.5913877;-0.31733146;-0.031922363;;;;;773.9
1027.0;876.8;;;;;;;;;;;;;;;;;57.603687;23.167364;-22.419659;;783.4
1027.0;876.8;;;;;;;;;;;;;;-0.57307655;-0.33564258;-0.04486221;;;;;783.4
1027.0;876.8;;;;;;;;;;;;;;;;;55.669575;24.433882;-17.956327;;783.4
1027.0;876.8;;;;;;;;;;;;;;-0.5477462;-0.3546861;-0.054383986;;;;;783.4
1027.0;876.8;;;;;;;;;;;;;;;;;53.85754;26.177252;-13.859218;;793.1
1027.0;876.8;;;;;;;;;;;;;;-0.5263833;-0.37318033;-0.04486221;;;;;793.1
1027.0;876.8;;;;;;;;;;;;;;;;;51.76702;27.871029;-9.846034;;793.1
1027.0;876.8;;;;;;;;;;;;;;-0.5033113;-0.38166448;-0.030152287;;;;;793.1
1027.0;876.8;;;;;;;;;;;;;;;;;49.46669;29.465622;-5.939665;;802.6
1027.0;876.8;;;;;;;;;;;;;;-0.48469496;-0.39436018;-0.007141331;;;;;802.6
1027.0;876.8;;;;;;;;;;;;;;;;;46.838284;30.793177;-2.1858883;;802.6
1027.0;876.8;;;;;;;;;;;;;;-0.4669332;-0.4051027;0.016541032;;;;;802.6
1027.0;884.3;;;;;;;;;;;;;;;;;44.01151;32.113102;1.5564439;;812.2
1027.0;884.3;;;;;;;;;;;;;;-0.44642475;-0.40705588;0.023377178;;;;;812.2
1027.0;884.3;;;;;;;;;;;;;;;;;40.780357;33.730583;5.1499987;;812.2
1027.0;884.3;;;;;;;;;;;;;;-0.42725915;-0.40375987;0.028382214;;;;;812.2
1027.0;884.3;;;;;;;;;;;;;;;;;36.76336;35.882137;8.526108;;821.9
1027.0;884.3;;;;;;;;;;;;;;-0.40559098;-0.4112064;0.026184881;;;;;821.9
1027.0;884.3;;;;;;;;;;;;;;;;;31.964325;38.33125;11.810663;;821.9
1027.0;884.3;;;;;;;;;;;;;;-0.38605914;-0.42774743;0.018677328;;;;;821.9
1027.0;884.3;;;;;;;;;;;;;;;;;26.886808;41.04358;15.003662;;831.7
1027.0;884.3;;;;;;;;;;;;;;-0.36896878;-0.4367809;0.01208533;;;;;831.7
1027.0;884.3;;;;;;;;;;;;;;;;;20.80218;44.19462;17.849512;;831.7
1027.0;884.3;;;;;;;;;;;;;;-0.35273293;-0.4720603;-0.005920591;;;;;831.7
1090.0;937.7;;;;;;;;;;;;;;;;;14.728996;46.55217;20.340586;;841.2
1090.0;937.7;;;;;;;;;;;;;;-0.34290597;-0.51655626;-0.027893918;;;;;841.2
1090.0;937.7;;;;;;;;;;;;;;;;;9.006775;48.303173;22.873623;;841.2
1090.0;937.7;;;;;;;;;;;;;;-0.35493025;-0.558916;-0.03460799;;;;;841.2
1090.0;937.7;;;;;;;;;;;;;;;;;2.7542956;47.11295;25.437178;;850.8
1090.0;937.7;;;;;;;;;;;;;;-0.36890775;-0.62153995;-0.06378368;;;;;850.8
1090.0;937.7;;;;;;;;;;;;;;;;;-3.6545916;44.50743;28.126621;;850.8
1090.0;937.7;;;;;;;;;;;;;;-0.33399457;-0.68996245;-0.15393536;;;;;850.8
1090.0;937.7;;;;;;;;;;;;;;;;;-9.861293;45.026245;30.625324;;860.4
1090.0;937.7;;;;;;;;;;;;;;-0.30664998;-0.7820673;-0.2811365;;;;;860.4
1090.0;937.7;;;;;;;;;;;;;;;;;-14.034699;45.89221;32.90277;;860.4
1090.0;937.7;;;;;;;;;;;;;;-0.30060732;-0.85219884;-0.3813593;;;;;860.4
1090.0;938.3;;;;;;;;;;;;;;;;;-15.400403;47.95984;35.855434;;870.2
1090.0;938.3;;;;;;;;;;;;;;-0.24445327;-0.89870906;-0.50148016;;;;;870.2
1090.0;938.3;;;;;;;;;;;;;;;;;-11.005738;53.312023;40.91006;;870.2
1090.0;938.3;;;;;;;;;;;;;;-0.27124852;-0.92287976;-0.55128634;;;;;870.2
1090.0;938.3;;;;;;;;;;;;;;;;;2.7428513;54.677727;48.013245;;879.7
1090.0;938.3;;;;;;;;;;;;;;-0.35462508;-0.86770225;-0.4709006;;;;;879.7
1090.0;938.3;;;;;;;;;;;;;;;;;22.11829;51.54576;56.51265;;879.7
1090.0;938.3;;;;;;;;;;;;;;-0.4255501;-0.79348123;-0.35041353;;;;;879.7
1090.0;938.3;;;;;;;;;;;;;;;;;47.078617;50.10376;65.71017;;889.5
1090.0;938.3;;;;;;;;;;;;;;-0.49171424;-0.68153936;-0.023316141;;;;;889.5
1090.0;938.3;;;;;;;;;;;;;;;;;70.127716;53.758354;73.8319;;889.5
1090.0;938.3;;;;;;;;;;;;;;-0.64741963;-0.6110416;0.3985107;;;;;889.5
1159.0;997.4;;;;;;;;;;;;;;;;;79.809715;55.61617;76.95242;;899.2
1159.0;997.4;;;;;;;;;;;;;;-0.7906125;-0.704062;0.6824549;;;;;899.2
1159.0;997.4;;;;;;;;;;;;;;;;;69.08627;62.0632;72.75613;;899.2
1159.0;997.4;;;;;;;;;;;;;;-0.8707541;-0.9521775;0.58754236;;;;;899.2
1159.0;997.4;;;;;;;;;;;;;;;;;48.17347;75.15565;65.6415;;908.7
1159.0;997.4;;;;;;;;;;;;;;-1.0089419;-1.0492874;0.4603412;;;;;908.7
1159.0;997.4;;;;;;;;;;;;;;;;;24.098179;91.0863;61.441387;;908.7
1159.0;997.4;;;;;;;;;;;;;;-1.1998657;-0.93844414;0.19922483;;;;;908.7
1159.0;997.4;;;;;;;;;;;;;;;;;8.564257;98.529015;60.544907;;918.3
1159.0;997.4;;;;;;;;;;;;;;-1.3497727;-0.79030734;-0.2666097;;;;;918.3
1159.0;997.4;;;;;;;;;;;;;;;;;10.624256;99.37208;65.05783;;918.3
1159.0;997.4;;;;;;;;;;;;;;-1.4778893;-0.68715477;-0.598529;;;;;918.3
1159.0;998.3;;;;;;;;;;;;;;;;;11.726737;101.86315;74.94202;;928.0
1159.0;998.3;;;;;;;;;;;;;;-1.6615497;-0.70351267;-0.70528275;;;;;928.0
1159.0;998.3;;;;;;;;;;;;;;;;;1.9112216;100.222786;84.74227;;928.0
1159.0;998.3;;;;;;;;;;;;;;-1.8922696;-0.6079897;-0.61525315;;;;;928.0
1159.0;998.3;;;;;;;;;;;;;;;;;-2.8305917;88.38924;89.964745;;937.7
1159.0;998.3;;;;;;;;;;;;;;-1.9998169;-0.38160345;-0.29474777;;;;;937.7
1159.0;998.3;;;;;;;;;;;;;;;;;-12.737662;75.70879;89.35819;;937.7
1159.0;998.3;;;;;;;;;;;;;;-1.952147;-0.15442365;-0.33478805;;;;;937.7
1159.0;998.3;;;;;;;;;;;;;;;;;-28.092287;70.72283;88.83175;;947.3
1159.0;998.3;;;;;;;;;;;;;;-1.7100132;-0.020813623;-0.79763174;;;;;947.3
1159.0;998.3;;;;;;;;;;;;;;;;;-24.212624;70.51683;86.93579;;947.3
1159.0;998.3;;;;;;;;;;;;;;-1.5842769;0.07306131;-0.7029023;;;;;947.3
1206.0;1058.3;;;;;;;;;;;;;;;;;-17.273476;65.519424;81.31657;;957.0
1206.0;1058.3;;;;;;;;;;;;;;-1.4852748;0.11304056;-0.35767692;;;;;957.0
1206.0;1058.3;;;;;;;;;;;;;;;;;-26.791437;55.654316;71.56209;;957.0
1206.0;1058.3;;;;;;;;;;;;;;-1.3648487;0.1037019;-0.22498246;;;;;957.0
1206.0;1058.3;;;;;;;;;;;;;;;;;-38.21299;46.67806;59.472946;;966.6
1206.0;1058.3;;;;;;;;;;;;;;-1.1879635;0.11859493;-0.11835078;;;;;966.6
1206.0;1058.3;;;;;;;;;;;;;;;;;-53.827023;43.73684;49.18821;;966.6
1206.0;1058.3;;;;;;;;;;;;;;-0.97866756;0.06335643;-0.23194067;;;;;966.6
1206.0;1058.3;;;;;;;;;;;;;;;;;-65.97339;47.19306;43.786434;;976.3
1206.0;1058.3;;;;;;;;;;;;;;-0.885464;-0.080568865;-0.19812617;;;;;976.3
1206.0;1058.3;;;;;;;;;;;;;;;;;-71.46672;50.630207;44.328133;;976.3
1206.0;1058.3;;;;;;;;;;;;;;-0.90121156;-0.23615223;-0.063417464;;;;;976.3
1206.0;1059.1;;;;;;;;;;;;;;;;;-76.46031;48.49391;46.628468;;985.8
1206.0;1059.1;;;;;;;;;;;;;;-0.87423325;-0.3374737;-0.07770012;;;;;985.8
1206.0;1059.1;;;;;;;;;;;;;;;;;-80.816826;44.907986;48.955505;;985.8
1206.0;1059.1;;;;;;;;;;;;;;-0.8069094;-0.42567217;-0.20819727;;;;;985.8
1206.0;1059.1;;;;;;;;;;;;;;;;;-79.85931;43.778805;51.78991;;995.5
1206.0;1059.1;;;;;;;;;;;;;;-0.80935085;-0.5188757;-0.24298838;;;;;995.5
1206.0;1059.1;;;;;;;;;;;;;;;;;-76.258125;41.032135;54.53658;;995.5
1206.0;1059.1;;;;;;;;;;;;;;-0.8413953;-0.6006043;-0.21900083;;;;;995.5
1206.0;1059.1;;;;;;;;;;;;;;;;;-73.17194;36.420025;56.550797;;1005.2
1206.0;1059.1;;;;;;;;;;;;;;-0.84841454;-0.6751915;-0.23572497;;;;;1005.2
1206.0;1059.1;;;;;;;;;;;;;;;;;-70.03998;32.92566;58.282722;;1005.2
1206.0;1059.1;;;;;;;;;;;;;;-0.8701438;-0.7503891;-0.28199103;;;;;1005.2
1208.0;1118.3;;;;;;;;;;;;;;;;;-64.05835;30.919065;59.099094;;1014.8
1208.0;1118.3;;;;;;;;;;;;;;-0.934843;-0.7912839;-0.29932556;;;;;1014.8
1208.0;1118.3;;;;;;;;;;;;;;;;;-55.68102;28.057955;60.441906;;1014.8
1208.0;1118.3;;;;;;;;;;;;;;-1.0079653;-0.79628897;-0.3119602;;;;;1014.8
1208.0;1118.3;;;;;;;;;;;;;;;;;-46.697136;24.018068;62.356945;;1024.5
1208.0;1118.3;;;;;;;;;;;;;;-1.063509;-0.7884152;-0.35419783;;;;;1024.5
1208.0;1118.3;;;;;;;;;;;;;;;;;-37.980286;20.88229;64.23383;;1024.5
1208.0;1118.3;;;;;;;;;;;;;;-1.108005;-0.7400128;-0.38605914;;;;;1024.5
1208.0;1118.3;;;;;;;;;;;;;;;;;-30.278175;19.089329;65.88565;;1034.2
1208.0;1118.3;;;;;;;;;;;;;;-1.1713614;-0.6526078;-0.38612017;;;;;1034.2
1208.0;1118.3;;;;;;;;;;;;;;;;;-24.67803;16.052736;67.44972;;1034.2
1208.0;1118.3;;;;;;;;;;;;;;-1.2034669;-0.55403304;-0.40479752;;;;;1034.2
1208.0;1119.1;;;;;;;;;;;;;;;;;-21.076845;12.867367;68.92986;;1043.9
1208.0;1119.1;;;;;;;;;;;;;;-1.2037721;-0.47175512;-0.43574327;;;;;1043.9
1208.0;1119.1;;;;;;;;;;;;;;;;;-18.94818;10.658589;70.22309;;1043.9
1208.0;1119.1;;;;;;;;;;;;;;-1.1785028;-0.3999756;-0.4445326;;;;;1043.9
1208.0;1119.1;;;;;;;;;;;;;;;;;-18.566698;9.426405;71.21113;;1053.5
1208.0;1119.1;;;;;;;;;;;;;;-1.1401105;-0.34253976;-0.4242683;;;;;1053.5
1208.0;1119.1;;;;;;;;;;;;;;;;;-19.817957;8.972442;71.470535;;1053.5
1208.0;1119.1;;;;;;;;;;;;;;-1.0918913;-0.28296763;-0.3848384;;;;;1053.5
1208.0;1119.1;;;;;;;;;;;;;;;;;-22.7134;8.266702;70.94409;;1063.2
1208.0;1119.1;;;;;;;;;;;;;;-1.0283517;-0.25049594;-0.35749382;;;;;1063.2
1208.0;1119.1;;;;;;;;;;;;;;;;;-26.245918;7.698294;69.77676;;1063.2
1208.0;1119.1;;;;;;;;;;;;;;-0.9654225;-0.23969238;-0.33320108;;;;;1063.2
1268.0;1129.6;;;;0.0;0.0;0.0;;;;;;;;;;;;;;;
1268.0;1129.6;;;;-0.12945177;-0.0044212346;-0.063846596;;;;;;;;;;;;;;;
1268.0;1129.6;;;;-0.6733437;-0.14327241;-0.5082169;;;;;;;;;;;;;;;
1268.0;1129.6;;;;-0.7442513;-0.16888048;-0.58250433;;;;;;;;;;;;;;;
1268.0;1129.6;;;;-0.7413407;-0.16828538;-0.5829163;;;;;;;;;;;;;;;
1268.0;1139.6;;;;-0.73919684;-0.1665764;-0.5833283;;;;;;;;;;;;;;;
1268.0;1139.6;;;;-0.7363396;-0.16449358;-0.58401877;;;;;;;;;;;;;;;
1268.0;1139.6;;;;-0.73135763;-0.16282655;-0.584446;;;;;;;;;;;;;;;
1268.0;1139.6;;;;-0.72409445;-0.16130067;-0.5854569;;;;;;;;;;;;;;;
1268.0;1139.6;;;;-0.7161637;-0.15925218;-0.5852166;;;;;;;;;;;;;;;
1268.0;1140.8;57477;57463;12919;;;;;;;;;;;;;;;;;;
1268.0;1149.6;;;;-0.70820624;-0.15790941;-0.5846444;;;;;;;;;;;;;;;
1268.0;1149.6;;;;-0.70034796;-0.15644075;-0.5836869;;;;;;;;;;;;;;;
1268.0;1149.6;;;;-0.69258505;-0.15560533;-0.5836335;;;;;;;;;;;;;;;
1268.0;1149.6;;;;-0.6867905;-0.15496065;-0.58445364;;;;;;;;;;;;;;;
1268.0;1149.6;;;;-0.68399054;-0.15548708;-0.5861588;;;;;;;;;;;;;;;
1271.0;1159.7;;;;-0.68443686;-0.15602495;-0.58756644;;;;;;;;;;;;;;;
1271.0;1159.7;;;;-0.6855584;-0.15678789;-0.5881043;;;;;;;;;;;;;;;
1271.0;1159.7;;;;-0.68622214;-0.15687181;-0.5878449;;;;;;;;;;;;;;;
1271.0;1159.7;;;;-0.68591696;-0.156971;-0.5871392;;;;;;;;;;;;;;;
1271.0;1159.7;;;;-0.6853371;-0.15674593;-0.5863915;;;;;;;;;;;;;;;
1271.0;1161.0;73866;73929;12908;;;;;;;;;;;;;;;;;;
1271.0;1167.4;;;;;;;;;;;;;0;;;;;;;;
1271.0;1167.4;;;;;;;;;;;;;0;;;;;;;;
1271.0;1167.4;;;;;;;;;;;;;-1;;;;;;;;
1271.0;1167.4;;;;;;;;;;;;;-2;;;;;;;;
1271.0;1167.4;;;;;;;;;;;;;-3;;;;;;;;
1271.0;1169.8;;;;-0.685463;-0.15674593;-0.58624655;;;;;;;;;;;;;;;
1271.0;1169.8;;;;-0.6855698;-0.15638734;-0.5858498;;;;;;;;;;;;;;;
1271.0;1169.8;;;;-0.68747336;-0.15575792;-0.5830117;;;;;;;;;;;;;;;
1271.0;1169.8;;;;-0.6893769;-0.15503313;-0.5795365;;;;;;;;;;;;;;;
1271.0;1169.8;;;;-0.68980795;-0.15338518;-0.57529074;;;;;;;;;;;;;;;
1274.0;1178.8;;;;;;;;;;;;;;;;;-29.564806;7.641072;68.35383;;1072.9
1274.0;1178.8;;;;;;;;;;;;;;-0.90859705;-0.23187964;-0.29358807;;;;;1072.9
1274.0;1178.8;;;;;;;;;;;;;;;;;-33.223213;7.5991087;67.25135;;1072.9
1274.0;1178.8;;;;;;;;;;;;;;-0.8714255;-0.2512894;-0.2499466;;;;;1072.9
1274.0;1178.8;;;;;;;;;;;;;;;;;-36.90832;7.450331;66.190834;;1082.4
1274.0;1178.8;;;;;;;;;;;;;;-0.8351085;-0.28186896;-0.2230903;;;;;1082.4
1274.0;1178.8;;;;;;;;;;;;;;;;;-40.467545;7.7249975;65.0731;;1082.4
1274.0;1178.8;;;;;;;;;;;;;;-0.79976803;-0.2973113;-0.23688467;;;;;1082.4
1274.0;1178.8;;;;;;;;;;;;;;;;;-43.233284;8.48796;64.41695;;1092.0
1274.0;1178.8;;;;;;;;;;;;;;-0.7851192;-0.3249611;-0.23572497;;;;;1092.0
1274.0;1178.8;;;;;;;;;;;;;;;;;-45.49547;9.399701;63.825645;;1092.0
1274.0;1178.8;;;;;;;;;;;;;;-0.7740104;-0.36121708;-0.2327952;;;;;1092.0
1274.0;1180.0;;;;;;;;;;;;;;;;;-46.92602;10.490738;63.325905;;1101.7
1274.0;1180.0;;;;;;;;;;;;;;-0.773278;-0.39606923;-0.23468734;;;;;1101.7
1274.0;1180.0;;;;;;;;;;;;;;;;;-47.101505;11.757256;62.944427;;1101.7
1274.0;1180.0;;;;;;;;;;;;;;-0.779931;-0.40650654;-0.2487869;;;;;1101.7
1274.0;1180.0;;;;;;;;;;;;;;;;;-46.36906;12.527848;62.74987;;1111.4
1274.0;1180.0;;;;;;;;;;;;;;-0.7950682;-0.42402416;-0.26648763;;;;;1111.4
1274.0;1180.0;;;;;;;;;;;;;;;;;-44.75158;12.268441;62.82998;;1111.4
1274.0;1180.0;;;;;;;;;;;;;;-0.79494613;-0.43714714;-0.2880337;;;;;1111.4
1274.0;1180.0;;;;;;;;;;;;;;;;;-42.718285;12.794885;62.89865;;1121.0
1274.0;1180.0;;;;;;;;;;;;;;-0.8072756;-0.4349498;-0.2923673;;;;;1121.0
1274.0;1180.0;;;;;;;;;;;;;;;;;-40.62395;13.580737;62.959686;;1121.0
1274.0;1180.0;;;;;;;;;;;;;;-0.82937104;-0.43995485;-0.28913236;;;;;1121.0
1330.0;1179.8;;;;-0.6899186;-0.150898;-0.572094;;;;;;;;;;;;;;;
1330.0;1179.8;;;;-0.68672186;-0.14730455;-0.5688172;;;;;;;;;;;;;;;
1330.0;1179.8;;;;-0.68428427;-0.14358903;-0.5635529;;;;;;;;;;;;;;;
1330.0;1179.8;;;;-0.6843644;-0.14035417;-0.5599633;;;;;;;;;;;;;;;
1330.0;1179.8;;;;-0.6871224;-0.1386223;-0.55706793;;;;;;;;;;;;;;;
1330.0;1181.1;90289;90309;12910;;;;;;;;;;;;;;;;;;
1330.0;1189.9;;;;-0.6893044;-0.13725282;-0.5543061;;;;;;;;;;;;;;;
1330.0;1189.9;;;;-0.68999106;-0.13687898;-0.55175406;;;;;;;;;;;;;;;
1330.0;1189.9;;;;-0.68892676;-0.13691713;-0.54954916;;;;;;;;;;;;;;;
1330.0;1189.9;;;;-0.68606573;-0.13703538;-0.54796606;;;;;;;;;;;;;;;
1330.0;1189.9;;;;-0.68309027;-0.13603975;-0.54518896;;;;;;;;;;;;;;;
1330.0;1199.9;;;;-0.6795464;-0.1341858;-0.54101187;;;;;;;;;;;;;;;
1330.0;1199.9;;;;-0.67625815;-0.13204576;-0.53705984;;;;;;;;;;;;;;;
1330.0;1199.9;;;;-0.67288977;-0.12992097;-0.53218466;;;;;;;;;;;;;;;
1330.0;1199.9;;;;-0.66912466;-0.12765886;-0.5274506;;;;;;;;;;;;;;;
1330.0;1199.9;;;;-0.6665345;-0.12542345;-0.5227929;;;;;;;;;;;;;;;
1330.0;1201.3;106618;106600;12915;;;;;;;;;;;;;;;;;;
1330.0;1207.6;;;;;;;;;;;;;-7;;;;;;;;
1330.0;1207.6;;;;;;;;;;;;;-6;;;;;;;;
1330.0;1207.6;;;;;;;;;;;;;-8;;;;;;;;
1330.0;1207.6;;;;;;;;;;;;;-18;;;;;;;;
1330.0;1207.6;;;;;;;;;;;;;-11;;;;;;;;
1332.0;1209.9;;;;-0.6644593;-0.123683944;-0.5181199;;;;;;;;;;;;;;;
1332.0;1209.9;;;;-0.663292;-0.122425094;-0.51323706;;;;;;;;;;;;;;;
1332.0;1209.9;;;;-0.66198736;-0.12189485;-0.5092431;;;;;;;;;;;;;;;
1332.0;1209.9;;;;-0.66115576;-0.12166597;-0.5064469;;;;;;;;;;;;;;;
1332.0;1209.9;;;;-0.6607705;-0.12094118;-0.50444037;;;;;;;;;;;;;;;
1332.0;1219.9;;;;-0.6604424;-0.12033464;-0.500042;;;;;;;;;;;;;;;
1332.0;1219.9;;;;-0.65951544;-0.120006576;-0.49940115;;;;;;;;;;;;;;;
1332.0;1219.9;;;;-0.6539002;-0.119518295;-0.5032044;;;;;;;;;;;;;;;
1332.0;1219.9;;;;-0.642994;-0.11867906;-0.503048;;;;;;;;;;;;;;;
1332.0;1219.9;;;;-0.633194;-0.11694719;-0.5032807;;;;;;;;;;;;;;;
1332.0;1221.3;123012;123134;12924;;;;;;;;;;;;;;;;;;
1332.0;1230.0;;;;-0.6294709;-0.11556627;-0.50379187;;;;;;;;;;;;;;;
1332.0;1230.0;;;;-0.6306763;-0.11405565;-0.50355154;;;;;;;;;;;;;;;
1332.0;1230.0;;;;-0.63228613;-0.1127968;-0.5030022;;;;;;;;;;;;;;;
1332.0;1230.0;;;;-0.63241583;-0.11265947;-0.50178534;;;;;;;;;;;;;;;
1332.0;1230.0;;;;-0.63008505;-0.11213304;-0.49931723;;;;;;;;;;;;;;;
1333.0;1239.1;;;;;;;;;;;;;;;;;-38.369396;13.599812;63.291573;;1130.7
1333.0;1239.1;;;;;;;;;;;;;;-0.83712274;-0.43226418;-0.30243844;;;;;1130.7
1333.0;1239.1;;;;;;;;;;;;;;;;;-36.301765;13.977477;63.695946;;1130.7
1333.0;1239.1;;;;;;;;;;;;;;-0.845851;-0.4234138;-0.31647694;;;;;1130.7
1333.0;1239.1;;;;;;;;;;;;;;;;;-34.29136;14.519181;64.29487;;1140.4
1333.0;1239.1;;;;;;;;;;;;;;-0.8559221;-0.43617055;-0.32428968;;;;;1140.4
1333.0;1239.1;;;;;;;;;;;;;;;;;-32.124546;15.034181;64.733574;;1140.4
1333.0;1239.1;;;;;;;;;;;;;;-0.86935025;-0.38215277;-0.31843013;;;;;1140.4
1333.0;1239.1;;;;;;;;;;;;;;;;;-31.945251;15.572069;64.489426;;1150.0
1333.0;1239.1;;;;;;;;;;;;;;-0.8682516;-0.31043428;-0.3128147;;;;;1150.0
1333.0;1239.1;;;;;;;;;;;;;;;;;-32.803585;15.923033;64.6115;;1150.0
1333.0;1239.1;;;;;;;;;;;;;;-0.8642842;-0.30927458;-0.31385234;;;;;1150.0
1333.0;1239.9;;;;;;;;;;;;;;;;;-32.96762;15.949736;65.07691;;1159.6
1333.0;1239.9;;;;;;;;;;;;;;-0.86501664;-0.31116673;-0.3126316;;;;;1159.6
1333.0;1239.9;;;;;;;;;;;;;;;;;-32.631916;15.65218;65.9505;;1159.6
1333.0;1239.9;;;;;;;;;;;;;;-0.85763115;-0.31202126;-0.31373027;;;;;1159.6
1333.0;1239.9;;;;;;;;;;;;;;;;;-32.147434;15.114291;66.88132;;1169.2
1333.0;1239.9;;;;;;;;;;;;;;-0.84774315;-0.32807398;-0.30060732;;;;;1169.2
1333.0;1239.9;;;;;;;;;;;;;;;;;-31.84225;14.713737;67.73965;;1169.2
1333.0;1239.9;;;;;;;;;;;;;;-0.8294931;-0.27918333;-0.30591753;;;;;1169.2
1333.0;1239.9;;;;;;;;;;;;;;;;;-32.235176;14.759515;68.319496;;1178.9
1333.0;1239.9;;;;;;;;;;;;;;-0.81276894;-0.26453444;-0.29950866;;;;;1178.9
1333.0;1239.9;;;;;;;;;;;;;;;;;-32.57088;14.900662;68.59416;;1178.9
1333.0;1239.9;;;;;;;;;;;;;;-0.80507827;-0.2553789;-0.2979217;;;;;1178.9
1388.0;1240.0;;;;-0.626854;-0.11215593;-0.4970017;;;;;;;;;;;;;;;
1388.0;1240.0;;;;-0.6236077;-0.11114885;-0.49312598;;;;;;;;;;;;;;;
1388.0;1240.0;;;;-0.6204224;-0.109928146;-0.4872704;;;;;;;;;;;;;;;
1388.0;1240.0;;;;-0.61763006;-0.10869981;-0.48151404;;;;;;;;;;;;;;;
1388.0;1240.0;;;;-0.6150971;-0.107849136;-0.4757424;;;;;;;;;;;;;;;
1388.0;1241.5;139392;139521;12918;;;;;;;;;;;;;;;;;;
1388.0;1247.8;;;;;;;;;;;;;-30;;;;;;;;
1388.0;1247.8;;;;;;;;;;;;;-24;;;;;;;;
1388.0;1247.8;;;;;;;;;;;;;-10;;;;;;;;
1388.0;1247.8;;;;;;;;;;;;;-109;;;;;;;;
1388.0;1247.8;;;;;;;;;;;;;24;;;;;;;;
1388.0;1250.1;;;;-0.6139832;-0.10719301;-0.47079474;;;;;;;;;;;;;;;
1388.0;1250.1;;;;-0.6136399;-0.10638429;-0.46705252;;;;;;;;;;;;;;;
1388.0;1250.1;;;;-0.61210257;-0.10597612;-0.46311194;;;;;;;;;;;;;;;
1388.0;1250.1;;;;-0.61030966;-0.10607149;-0.45877463;;;;;;;;;;;;;;;
1388.0;1250.1;;;;-0.6079903;-0.10530092;-0.4538117;;;;;;;;;;;;;;;
1388.0;1260.2;;;;-0.60420996;-0.10488893;-0.44942862;;;;;;;;;;;;;;;
1388.0;1260.2;;;;-0.6000367;-0.10393144;-0.44478232;;;;;;;;;;;;;;;
1388.0;1260.2;;;;-0.59709173;-0.1031151;-0.44184119;;;;;;;;;;;;;;;
1388.0;1260.2;;;;-0.59379965;-0.10208894;-0.43918997;;;;;;;;;;;;;;;
1388.0;1260.2;;;;-0.5922623;-0.10092546;-0.43555456;;;;;;;;;;;;;;;
1388.0;1261.8;155729;155834;12927;;;;;;;;;;;;;;;;;;
1392.0;1270.2;;;;-0.5915871;-0.10012819;-0.43323523;;;;;;;;;;;;;;;
1392.0;1270.2;;;;-0.59382254;-0.098720565;-0.4280892;;;;;;;;;;;;;;;
1392.0;1270.2;;;;-0.5984078;-0.09775926;-0.4261399;;;;;;;;;;;;;;;
1392.0;1270.2;;;;-0.60007864;-0.09680559;-0.42809302;;;;;;;;;;;;;;;
1392.0;1270.2;;;;-0.5969506;-0.0954857;-0.4272042;;;;;;;;;;;;;;;
1392.0;1280.2;;;;-0.592022;-0.094684616;-0.42372137;;;;;;;;;;;;;;;
1392.0;1280.2;;;;-0.5883866;-0.09335709;-0.42030722;;;;;;;;;;;;;;;
1392.0;1280.2;;;;-0.590046;-0.09254456;-0.4172173;;;;;;;;;;;;;;;
1392.0;1280.2;;;;-0.59419256;-0.09199906;-0.41551214;;;;;;;;;;;;;;;
1392.0;1280.2;;;;-0.598877;-0.09231187;-0.4139138;;;;;;;;;;;;;;;
1392.0;1281.8;172177;172136;12933;;;;;;;;;;;;;;;;;;
1392.0;1288.1;;;;;;;;;;;;;237;;;;;;;;
1392.0;1288.1;;;;;;;;;;;;;-172;;;;;;;;
1392.0;1288.1;;;;;;;;;;;;;-526;;;;;;;;
1392.0;1288.1;;;;;;;;;;;;;549;;;;;;;;
1392.0;1288.1;;;;;;;;;;;;;3038;;;;;;;;
1392.0;1290.3;;;;-0.6027985;-0.09279252;-0.41263968;;;;;;;;;;;;;;;
1392.0;1290.3;;;;-0.60622793;-0.09292222;-0.41115576;;;;;;;;;;;;;;;
1392.0;1290.3;;;;-0.60999686;-0.09244538;-0.40960318;;;;;;;;;;;;;;;
1392.0;1290.3;;;;-0.6141587;-0.09186936;-0.40697104;;;;;;;;;;;;;;;
1392.0;1290.3;;;;-0.61962515;-0.09071351;-0.4034806;;;;;;;;;;;;;;;
1394.0;1299.9;;;;;;;;;;;;;;;;;-32.845547;14.790033;68.72386;;1188.5
1394.0;1299.9;;;;;;;;;;;;;;-0.7957396;-0.25946838;-0.3058565;;;;;1188.5
1394.0;1299.9;;;;;;;;;;;;;;;;;-33.104954;14.923552;69.10916;;1188.5
1394.0;1299.9;;;;;;;;;;;;;;-0.8003174;-0.28498185;-0.2936491;;;;;1188.5
1394.0;1299.9;;;;;;;;;;;;;;;;;-32.834103;14.461959;69.65086;;1198.2
1394.0;1299.9;;;;;;;;;;;;;;-0.79384744;-0.29523605;-0.29865414;;;;;1198.2
1394.0;1299.9;;;;;;;;;;;;;;;;;-32.49077;14.4047365;70.31846;;1198.2
1394.0;1299.9;;;;;;;;;;;;;;-0.8031861;-0.27857295;-0.2990814;;;;;1198.2
1394.0;1299.9;;;;;;;;;;;;;;;;;-31.384472;14.206367;71.00894;;1207.8
1394.0;1299.9;;;;;;;;;;;;;;-0.8218635;-0.2912076;-0.29206213;;;;;1207.8
1394.0;1299.9;;;;;;;;;;;;;;;;;-30.034027;13.359478;71.63838;;1207.8
1394.0;1299.9;;;;;;;;;;;;;;-0.8291879;-0.2995697;-0.301706;;;;;1207.8
1394.0;1300.4;;;;-0.6250039;-0.08965684;-0.40072638;;;;;;;;;;;;;;;
1394.0;1300.4;;;;-0.630066;-0.088500984;-0.39774328;;;;;;;;;;;;;;;
1394.0;1300.4;;;;-0.63610464;-0.08776856;-0.39645392;;;;;;;;;;;;;;;
1394.0;1300.4;;;;-0.6416703;-0.087097175;-0.39622504;;;;;;;;;;;;;;;
1394.0;1300.4;;;;-0.6494828;-0.08681107;-0.39641958;;;;;;;;;;;;;;;
1396.0;1301.1;;;;;;;;;;;;;;;;;-27.512436;13.527329;72.96976;;1217.4
1396.0;1301.1;;;;;;;;;;;;;;-0.8561052;-0.30671102;-0.30817592;;;;;1217.4
1396.0;1301.1;;;;;;;;;;;;;;;;;-22.881252;12.009034;73.01172;;1217.4
1396.0;1301.1;;;;;;;;;;;;;;-0.81246376;-0.36841944;-0.26227608;;;;;1217.4
1396.0;1301.1;;;;;;;;;;;;;;;;;-17.93344;10.788294;69.71572;;1227.0
1396.0;1301.1;;;;;;;;;;;;;;-0.74886316;-0.2893765;-0.27802363;;;;;1227.0
1396.0;1301.1;;;;;;;;;;;;;;;;;-13.027589;14.13007;68.98328;;1227.0
1396.0;1301.1;;;;;;;;;;;;;;-0.8613544;-0.28455457;-0.26160467;;;;;1227.0
1396.0;1301.1;;;;;;;;;;;;;;;;;-8.335368;11.87933;68.22031;;1236.7
1396.0;1301.1;;;;;;;;;;;;;;-0.863979;-0.29139072;-0.2658162;;;;;1236.7
1396.0;1301.1;;;;;;;;;;;;;;;;;-4.7837768;10.464034;66.4388;;1236.7
1396.0;1301.1;;;;;;;;;;;;;;-0.84951323;-0.21094394;-0.26618245;;;;;1236.7
1396.0;1302.0;188581;188586;12921;;;;;;;;;;;;;;;;;;
1396.0;1310.3;;;;-0.6576043;-0.08647538;-0.39759833;;;;;;;;;;;;;;;
1396.0;1310.3;;;;-0.6657906;-0.086219795;-0.3985291;;;;;;;;;;;;;;;
1396.0;1310.3;;;;-0.6733056;-0.08636094;-0.3996964;;;;;;;;;;;;;;;
1396.0;1310.3;;;;-0.6800156;-0.086292274;-0.39968878;;;;;;;;;;;;;;;
1396.0;1310.3;;;;-0.6854363;-0.08631135;-0.40066916;;;;;;;;;;;;;;;
1400.0;1314.5;;;;;;;;;;;;;;;;;-2.6131475;10.86459;65.012054;;1246.4
1400.0;1314.5;;;;;;;;;;;;;;-0.86037785;-0.21344645;-0.2779626;;;;;1246.4
1400.0;1314.5;;;;;;;;;;;;;;;;;-0.59511095;10.525071;64.3025;;1246.4
1400.0;1314.5;;;;;;;;;;;;;;-0.8675802;-0.21387371;-0.28510392;;;;;1246.4
1400.0;1314.5;;;;;;;;;;;;;;;;;2.6894438;10.860775;63.75698;;1256.0
1400.0;1314.5;;;;;;;;;;;;;;-0.8850978;-0.16943876;-0.26313058;;;;;1256.0
1400.0;1314.5;;;;;;;;;;;;;;;;;3.5058138;9.5675535;62.356945;;1256.0
1400.0;1314.5;;;;;;;;;;;;;;-0.8694113;-0.13788262;-0.28156376;;;;;1256.0
1400.0;1314.5;;;;;;;;;;;;;;;;;3.9674063;8.533738;60.434277;;1265.7
1400.0;1314.5;;;;;;;;;;;;;;-0.8653218;-0.13232826;-0.26007873;;;;;1265.7
1400.0;1314.5;;;;;;;;;;;;;;;;;3.563036;8.274331;58.893093;;1265.7
1400.0;1314.5;;;;;;;;;;;;;;-0.8732566;-0.1248207;-0.24597919;;;;;1265.7
1400.0;1320.2;;;;-0.6900788;-0.08568192;-0.40180594;;;;;;;;;;;;;;;
1400.0;1320.2;;;;-0.69471365;-0.085098274;-0.40308005;;;;;;;;;;;;;;;
1400.0;1320.2;;;;-0.69897467;-0.08431245;-0.40381628;;;;;;;;;;;;;;;
1400.0;1320.2;;;;-0.70457083;-0.083400734;-0.40492254;;;;;;;;;;;;;;;
1400.0;1320.2;;;;-0.71057516;-0.08238984;-0.40549093;;;;;;;;;;;;;;;
1400.0;1322.0;204985;204933;12938;;;;;;;;;;;;;;;;;;
1400.0;1328.3;;;;;;;;;;;;;5093;;;;;;;;
1400.0;1328.3;;;;;;;;;;;;;5368;;;;;;;;
1400.0;1328.3;;;;;;;;;;;;;4947;;;;;;;;
1400.0;1328.3;;;;;;;;;;;;;6304;;;;;;;;
1400.0;1328.3;;;;;;;;;;;;;8260;;;;;;;;
1446.0;1330.2;;;;-0.7173119;-0.081306465;-0.40634924;;;;;;;;;;;;;;;
1446.0;1330.2;;;;-0.7237168;-0.08025742;-0.40720755;;;;;;;;;;;;;;;
1446.0;1330.2;;;;-0.730835;-0.0799408;-0.40875632;;;;;;;;;;;;;;;
1446.0;1330.2;;;;-0.7384339;-0.07930375;-0.41011816;;;;;;;;;;;;;;;
1446.0;1330.2;;;;-0.74537283;-0.07889939;-0.41162115;;;;;;;;;;;;;;;
1446.0;1340.1;;;;-0.7517129;-0.078544624;-0.41345602;;;;;;;;;;;;;;;
1446.0;1340.1;;;;-0.7583238;-0.07849885;-0.41619116;;;;;;;;;;;;;;;
1446.0;1340.1;;;;-0.7658235;-0.07812501;-0.4182015;;;;;;;;;;;;;;;
1446.0;1340.1;;;;-0.77378476;-0.07843018;-0.4215241;;;;;;;;;;;;;;;
1446.0;1340.1;;;;-0.782055;-0.0787201;-0.42501074;;;;;;;;;;;;;;;
1446.0;1341.9;221328;221354;12940;;;;;;;;;;;;;;;;;;
1446.0;1350.2;;;;-0.7903749;-0.07869721;-0.42834097;;;;;;;;;;;;;;;
1446.0;1350.2;;;;-0.79854214;-0.078990944;-0.4321404;;;;;;;;;;;;;;;
1446.0;1350.2;;;;-0.8072244;-0.07914353;-0.4359551;;;;;;;;;;;;;;;
1446.0;1350.2;;;;-0.8151132;-0.07959748;-0.43904883;;;;;;;;;;;;;;;
1446.0;1350.2;;;;-0.823269;-0.078983314;-0.44209296;;;;;;;;;;;;;;;
1449.0;1359.5;;;;;;;;;;;;;;;;;2.6703696;7.0726647;57.294685;;1275.4
1449.0;1359.5;;;;;;;;;;;;;;-0.86587113;-0.114627525;-0.24713889;;;;;1275.4
1449.0;1359.5;;;;;;;;;;;;;;;;;1.5335552;5.878628;55.845055;;1275.4
1449.0;1359.5;;;;;;;;;;;;;;-0.84810936;-0.11767937;-0.25019073;;;;;1275.4
1449.0;1359.5;;;;;;;;;;;;;;;;;0.7095553;5.142369;54.727318;;1285.0
1449.0;1359.5;;;;;;;;;;;;;;-0.83913696;-0.125309;-0.2320017;;;;;1285.0
1449.0;1359.5;;;;;;;;;;;;;;;;;0.21362957;4.5129247;54.29243;;1285.0
1449.0;1359.5;;;;;;;;;;;;;;-0.839259;-0.14508499;-0.22211371;;;;;1285.0
1449.0;1359.5;;;;;;;;;;;;;;;;;0.28611103;4.39848;53.57143;;1294.6
1449.0;1359.5;;;;;;;;;;;;;;-0.8362682;-0.16418958;-0.20764793;;;;;1294.6
1449.0;1359.5;;;;;;;;;;;;;;;;;-0.09155553;4.4442577;52.903835;;1294.6
1449.0;1359.5;;;;;;;;;;;;;;-0.84267706;-0.17963195;-0.2108829;;;;;1294.6
1449.0;1360.2;;;;-0.8313066;-0.07848359;-0.44439703;;;;;;;;;;;;;;;
1449.0;1360.2;;;;-0.838627;-0.07831574;-0.4467774;;;;;;;;;;;;;;;
1449.0;1360.2;;;;-0.8451997;-0.078220375;-0.44929892;;;;;;;;;;;;;;;
1449.0;1360.2;;;;-0.85183346;-0.07819749;-0.4520951;;;;;;;;;;;;;;;
1449.0;1360.2;;;;-0.85811627;-0.07776261;-0.454979;;;;;;;;;;;;;;;
1449.0;1362.1;237705;237743;12936;;;;;;;;;;;;;;;;;;
1449.0;1368.3;;;;;;;;;;;;;3558;;;;;;;;
1449.0;1368.3;;;;;;;;;;;;;-10474;;;;;;;;
1449.0;1368.3;;;;;;;;;;;;;-23955;;;;;;;;
1449.0;1368.3;;;;;;;;;;;;;-24704;;;;;;;;
1449.0;1368.3;;;;;;;;;;;;;-12214;;;;;;;;
1506.0;1370.3;;;;-0.86387265;-0.07826234;-0.45843512;;;;;;;;;;;;;;;
1506.0;1370.3;;;;-0.86909115;-0.078788765;-0.46218115;;;;;;;;;;;;;;;
1506.0;1370.3;;;;-0.87467587;-0.07912064;-0.4667359;;;;;;;;;;;;;;;
1506.0;1370.3;;;;-0.8805009;-0.0794983;-0.47235876;;;;;;;;;;;;;;;
1506.0;1370.3;;;;-0.8866769;-0.07944871;-0.47785574;;;;;;;;;;;;;;;
1506.0;1374.6;;;;;;;;;;;;;;;;;-1.0376294;4.074221;51.816612;;1304.3
1506.0;1374.6;;;;;;;;;;;;;;-0.85781425;-0.19714957;-0.22113712;;;;;1304.3
1506.0;1374.6;;;;;;;;;;;;;;;;;-1.8005921;3.318888;50.397503;;1304.3
1506.0;1374.6;;;;;;;;;;;;;;-0.86269724;-0.20929594;-0.24378185;;;;;1304.3
1506.0;1374.6;;;;;;;;;;;;;;;;;-1.1406293;2.311777;49.470505;;1314.0
1506.0;1374.6;;;;;;;;;;;;;;-0.86751914;-0.2320017;-0.26715904;;;;;1314.0
1506.0;1374.6;;;;;;;;;;;;;;;;;-0.24796289;1.4458144;49.272137;;1314.0
1506.0;1374.6;;;;;;;;;;;;;;-0.86935025;-0.23755608;-0.30591753;;;;;1314.0
1506.0;1374.6;;;;;;;;;;;;;;;;;0.31662953;0.92318493;49.073765;;1323.4
1506.0;1374.6;;;;;;;;;;;;;;-0.8753929;-0.22467726;-0.32782984;;;;;1323.4
1506.0;1374.6;;;;;;;;;;;;;;;;;-0.7095553;1.1635182;48.73043;;1323.4
1506.0;1374.6;;;;;;;;;;;;;;-0.89260536;-0.22193061;-0.3255104;;;;;1323.4
1506.0;1380.2;;;;-0.8926393;-0.080177315;-0.48181158;;;;;;;;;;;;;;;
1506.0;1380.2;;;;-0.89779675;-0.08021546;-0.48569876;;;;;;;;;;;;;;;
1506.0;1380.2;;;;-0.90179074;-0.08050538;-0.48906332;;;;;;;;;;;;;;;
1506.0;1380.2;;;;-0.90563214;-0.0808487;-0.49164587;;;;;;;;;;;;;;;
1506.0;1380.2;;;;-0.90895855;-0.08089066;-0.49421698;;;;;;;;;;;;;;;
1506.0;1382.1;254064;254176;12944;;;;;;;;;;;;;;;;;;
1509.0;1390.2;;;;-0.9123498;-0.08014298;-0.49647146;;;;;;;;;;;;;;;
1509.0;1390.2;;;;-0.91672146;-0.0793686;-0.49901968;;;;;;;;;;;;;;;
1509.0;1390.2;;;;-0.9220277;-0.07905198;-0.5010453;;;;;;;;;;;;;;;
1509.0;1390.2;;;;-0.929371;-0.07785035;-0.5025559;;;;;;;;;;;;;;;
1509.0;1390.2;;;;-0.93735135;-0.07693864;-0.5037232;;;;;;;;;;;;;;;
1509.0;1400.2;;;;-0.9457818;-0.075557716;-0.504654;;;;;;;;;;;;;;;
1509.0;1400.2;;;;-0.95601285;-0.074436195;-0.5047799;;;;;;;;;;;;;;;
1509.0;1400.2;;;;-0.9668542;-0.072681434;-0.5062142;;;;;;;;;;;;;;;
1509.0;1400.2;;;;-0.9765359;-0.07076264;-0.50770193;;;;;;;;;;;;;;;
1509.0;1400.2;;;;-0.9857942;-0.06866837;-0.5082436;;;;;;;;;;;;;;;
1509.0;1402.2;262143;262143;12945;;;;;;;;;;;;;;;;;;
1509.0;1408.4;;;;;;;;;;;;;1728;;;;;;;;
1509.0;1408.4;;;;;;;;;;;;;7034;;;;;;;;
1509.0;1408.4;;;;;;;;;;;;;5296;;;;;;;;
1509.0;1408.4;;;;;;;;;;;;;3429;;;;;;;;
1509.0;1408.4;;;;;;;;;;;;;3673;;;;;;;;
1509.0;1410.3;;;;-0.99504864;-0.06543351;-0.5089875;;;;;;;;;;;;;;;
1509.0;1410.3;;;;-1.0052186;-0.06213761;-0.5108872;;;;;;;;;;;;;;;
1509.0;1410.3;;;;-1.0175363;-0.058185585;-0.51500326;;;;;;;;;;;;;;;
1509.0;1410.3;;;;-1.031521;-0.054004677;-0.5202599;;;;;;;;;;;;;;;
1509.0;1410.3;;;;-1.0460778;-0.04949189;-0.524952;;;;;;;;;;;;;;;
1511.0;1420.4;;;;-1.0603257;-0.045528416;-0.5292092;;;;;;;;;;;;;;;
1511.0;1420.4;;;;-1.0727464;-0.04189301;-0.5323296;;;;;;;;;;;;;;;
1511.0;1420.4;;;;-1.0836641;-0.038738254;-0.53532034;;;;;;;;;;;;;;;
1511.0;1420.4;;;;-1.0927469;-0.03513718;-0.54043967;;;;;;;;;;;;;;;
1511.0;1420.4;;;;-1.1001664;-0.031578068;-0.54533774;;;;;;;;;;;;;;;
1511.0;1422.4;262143;262143;12936;;;;;;;;;;;;;;;;;;
1511.0;1427.3;;;;;;;;;;;;;;;;;-3.0137029;1.003296;48.40999;;1333.0
1511.0;1427.3;;;;;;;;;;;;;;-0.90542316;-0.22840053;-0.3233131;;;;;1333.0
1511.0;1427.3;;;;;;;;;;;;;;;;;-5.11948;0.7705924;48.261208;;1333.0
1511.0;1427.3;;;;;;;;;;;;;;-0.91091645;-0.23902097;-0.3261208;;;;;1333.0
1511.0;1427.3;;;;;;;;;;;;;;;;;-6.3364053;0.43107393;48.203987;;1342.6
1511.0;1427.3;;;;;;;;;;;;;;-0.9297769;-0.24536882;-0.3206885;;;;;1342.6
1511.0;1427.3;;;;;;;;;;;;;;;;;-7.5914793;0.110629596;48.310802;;1342.6
1511.0;1427.3;;;;;;;;;;;;;;-0.92916656;-0.25165564;-0.35364848;;;;;1342.6
1511.0;1427.3;;;;;;;;;;;;;;;;;-8.270516;-0.0038148137;48.421432;;1352.2
1511.0;1427.3;;;;;;;;;;;;;;-0.93856627;-0.24274422;-0.3571276;;;;;1352.2
1511.0;1427.3;;;;;;;;;;;;;;;;;-8.438369;-0.09155553;48.677025;;1352.2
1511.0;1427.3;;;;;;;;;;;;;;-0.95901364;-0.23847163;-0.35254982;;;;;1352.2
1511.0;1430.4;;;;-1.1079217;-0.027214054;-0.5463944;;;;;;;;;;;;;;;
1511.0;1430.4;;;;-1.1180307;-0.021675112;-0.54604346;;;;;;;;;;;;;;;
1511.0;1430.4;;;;-1.1273385;-0.01589966;-0.55554205;;;;;;;;;;;;;;;
1511.0;1430.4;;;;-1.1365548;-0.010101319;-0.56224066;;;;;;;;;;;;;;;
1511.0;1430.4;;;;-1.1484147;-0.0035133366;-0.56678015;;;;;;;;;;;;;;;
1513.0;1434.8;;;;;;;;;;;;;;;;;-7.5418863;-0.40437025;48.90973;;1361.8
1513.0;1434.8;;;;;;;;;;;;;;-0.964568;-0.2318186;-0.3493759;;;;;1361.8
1513.0;1434.8;;;;;;;;;;;;;;;;;-6.126591;-0.15640736;49.192024;;1361.8
1513.0;1434.8;;;;;;;;;;;;;;-0.9775689;-0.23487045;-0.35084078;;;;;1361.8
1513.0;1434.8;;;;;;;;;;;;;;;;;-4.058962;0.068666644;49.645985;;1371.6
1513.0;1434.8;;;;;;;;;;;;;;-0.98788416;-0.2482986;-0.35145116;;;;;1371.6
1513.0;1434.8;;;;;;;;;;;;;;;;;-1.7700735;0.44251838;50.111393;;1371.6
1513.0;1434.8;;;;;;;;;;;;;;-1.0122379;-0.26422927;-0.35358745;;;;;1371.6
1513.0;1434.8;;;;;;;;;;;;;;;;;0.6866665;0.71718496;50.576797;;1381.2
1513.0;1434.8;;;;;;;;;;;;;;-1.0427564;-0.28931546;-0.3471175;;;;;1381.2
1513.0;1434.8;;;;;;;;;;;;;;;;;2.8611102;0.45014802;51.06128;;1381.2
1513.0;1434.8;;;;;;;;;;;;;;-1.0754112;-0.32374036;-0.3426008;;;;;1381.2
1513.0;1440.3;;;;-1.1623117;0.0028038027;-0.57056814;;;;;;;;;;;;;;;
1513.0;1440.3;;;;-1.1753389;0.009124757;-0.5723458;;;;;;;;;;;;;;;
1513.0;1440.3;;;;-1.1858484;0.01558304;-0.5737801;;;;;;;;;;;;;;;
1513.0;1440.3;;;;-1.1931192;0.02194214;-0.5760575;;;;;;;;;;;;;;;
1513.0;1440.3;;;;-1.1978608;0.027069096;-0.57778174;;;;;;;;;;;;;;;
1513.0;1442.4;262143;262143;12933;;;;;;;;;;;;;;;;;;
1513.0;1448.6;;;;;;;;;;;;;3986;;;;;;;;
1513.0;1448.6;;;;;;;;;;;;;4068;;;;;;;;
1513.0;1448.6;;;;;;;;;;;;;4386;;;;;;;;
1513.0;1448.6;;;;;;;;;;;;;4204;;;;;;;;
1513.0;1448.6;;;;;;;;;;;;;3796;;;;;;;;
1567.0;1450.2;;;;-1.2013208;0.03194428;-0.577076;;;;;;;;;;;;;;;
1567.0;1450.2;;;;-1.2045099;0.036888126;-0.57640463;;;;;;;;;;;;;;;
1567.0;1450.2;;;;-1.2033235;0.040557865;-0.57913595;;;;;;;;;;;;;;;
1567.0;1450.2;;;;-1.1994592;0.044498447;-0.5761376;;;;;;;;;;;;;;;
1567.0;1450.2;;;;-1.1968423;0.048831947;-0.5765267;;;;;;;;;;;;;;;
1567.0;1460.0;;;;-1.1965219;0.053466804;-0.57487875;;;;;;;;;;;;;;;
1567.0;1460.0;;;;-1.1970025;0.05762864;-0.57205206;;;;;;;;;;;;;;;
1567.0;1460.0;;;;-1.1982995;0.060604103;-0.5742112;;;;;;;;;;;;;;;
1567.0;1460.0;;;;-1.2008783;0.061992653;-0.5745469;;;;;;;;;;;;;;;
1567.0;1460.0;;;;-1.2029954;0.062797554;-0.572712;;;;;;;;;;;;;;;
1567.0;1462.2;262143;262143;12929;;;;;;;;;;;;;;;;;;
1567.0;1470.1;;;;-1.203087;0.06238175;-0.572342;;;;;;;;;;;;;;;
1567.0;1470.1;;;;-1.2025415;0.062183388;-0.57246786;;;;;;;;;;;;;;;
1567.0;1470.1;;;;-1.2007104;0.06119538;-0.5721207;;;;;;;;;;;;;;;
1567.0;1470.1;;;;-1.1991082;0.060230263;-0.5707932;;;;;;;;;;;;;;;
1567.0;1470.1;;;;-1.1965142;0.05939103;-0.5687333;;;;;;;;;;;;;;;
1571.0;1479.7;;;;;;;;;;;;;;;;;6.008332;-0.25940734;51.286354;;1390.9
1571.0;1479.7;;;;;;;;;;;;;;-1.0957977;-0.3695181;-0.3185522;;;;;1390.9
1571.0;1479.7;;;;;;;;;;;;;;;;;9.929959;-1.1597034;51.175724;;1390.9
1571.0;1479.7;;;;;;;;;;;;;;-1.1011689;-0.39960936;-0.30787072;;;;;1390.9
1571.0;1479.7;;;;;;;;;;;;;;;;;14.233069;-1.6479995;51.534317;;1400.6
1571.0;1479.7;;;;;;;;;;;;;;-1.1084933;-0.4422132;-0.29725027;;;;;1400.6
1571.0;1479.7;;;;;;;;;;;;;;;;;18.707848;-2.3880734;51.78991;;1400.6
1571.0;1479.7;;;;;;;;;;;;;;-1.1233253;-0.48957792;-0.29981384;;;;;1400.6
1571.0;1479.7;;;;;;;;;;;;;;;;;23.678549;-3.6660361;51.736504;;1410.3
1571.0;1479.7;;;;;;;;;;;;;;-1.1197242;-0.5304117;-0.29963073;;;;;1410.3
1571.0;1479.7;;;;;;;;;;;;;;;;;29.404585;-4.6845913;51.534317;;1410.3
1571.0;1479.7;;;;;;;;;;;;;;-1.1159399;-0.55995363;-0.29902035;;;;;1410.3
1571.0;1480.1;;;;-1.1941873;0.058479317;-0.56748587;;;;;;;;;;;;;;;
1571.0;1480.1;;;;-1.1925393;0.057258613;-0.56735235;;;;;;;;;;;;;;;
1571.0;1480.1;;;;-1.19265;0.05597306;-0.56740195;;;;;;;;;;;;;;;
1571.0;1480.1;;;;-1.1927606;0.055187233;-0.5655213;;;;;;;;;;;;;;;
1571.0;1480.1;;;;-1.1940423;0.05406571;-0.5655213;;;;;;;;;;;;;;;
1571.0;1482.4;262143;262143;12931;;;;;;;;;;;;;;;;;;
1573.0;1487.2;;;;;;;;;;;;;;;;;35.668507;-5.962554;51.23295;;1419.9
1573.0;1487.2;;;;;;;;;;;;;;-1.116184;-0.5846736;-0.28894925;;;;;1419.9
1573.0;1487.2;;;;;;;;;;;;;;;;;41.787468;-7.4732203;51.019318;;1419.9
1573.0;1487.2;;;;;;;;;;;;;;-1.1050752;-0.58607745;-0.28778955;;;;;1419.9
1573.0;1487.2;;;;;;;;;;;;;;;;;47.14728;-8.117924;51.21769;;1429.6
1573.0;1487.2;;;;;;;;;;;;;;-1.1029389;-0.5888852;-0.2883999;;;;;1429.6
1573.0;1487.2;;;;;;;;;;;;;;;;;51.610615;-8.495589;51.351208;;1429.6
1573.0;1487.2;;;;;;;;;;;;;;-1.1005585;-0.58162177;-0.2844325;;;;;1429.6
1573.0;1487.2;;;;;;;;;;;;;;;;;54.58617;-8.358257;50.64165;;1439.3
1573.0;1487.2;;;;;;;;;;;;;;-1.1056856;-0.5692312;-0.27869502;;;;;1439.3
1573.0;1487.2;;;;;;;;;;;;;;;;;56.653797;-8.354443;49.382767;;1439.3
1573.0;1487.2;;;;;;;;;;;;;;-1.109653;-0.5498215;-0.26587725;;;;;1439.3
1573.0;1488.4;;;;;;;;;;;;;3517;;;;;;;;
1573.0;1488.4;;;;;;;;;;;;;3035;;;;;;;;
1573.0;1488.4;;;;;;;;;;;;;2472;;;;;;;;
1573.0;1488.4;;;;;;;;;;;;;2293;;;;;;;;
1573.0;1488.4;;;;;;;;;;;;;2513;;;;;;;;
1573.0;1490.1;;;;-1.1960717;0.053119667;-0.5648423;;;;;;;;;;;;;;;
1573.0;1490.1;;;;-1.198044;0.051925667;-0.563881;;;;;;;;;;;;;;;
1573.0;1490.1;;;;-1.2000924;0.051242836;-0.56270605;;;;;;;;;;;;;;;
1573.0;1490.1;;;;-1.1987611;0.050186165;-0.55989844;;;;;;;;;;;;;;;
1573.0;1490.1;;;;-1.1949388;0.04962922;-0.5582467;;;;;;;;;;;;;;;
1628.0;1500.1;;;;-1.1957513;0.048904426;-0.555069;;;;;;;;;;;;;;;
1628.0;1500.1;;;;-1.2021295;0.048992164;-0.5496102;;;;;;;;;;;;;;;
1628.0;1500.1;;;;-1.2089654;0.049747474;-0.5468407;;;;;;;;;;;;;;;
1628.0;1500.1;;;;-1.2140199;0.050552376;-0.54539496;;;;;;;;;;;;;;;
1628.0;1500.1;;;;-1.217991;0.05083085;-0.5405808;;;;;;;;;;;;;;;
1628.0;1502.4;262143;262143;12914;;;;;;;;;;;;;;;;;;
1628.0;1510.2;;;;-1.2196199;0.051517494;-0.5357781;;;;;;;;;;;;;;;
1628.0;1510.2;;;;-1.2208558;0.051853187;-0.53358084;;;;;;;;;;;;;;;
1628.0;1510.2;;;;-1.2249833;0.05265809;-0.53361136;;;;;;;;;;;;;;;
1628.0;1510.2;;;;-1.2303697;0.053676613;-0.5341416;;;;;;;;;;;;;;;
1628.0;1510.2;;;;-1.2362634;0.055767067;-0.5341416;;;;;;;;;;;;;;;
1628.0;1520.1;;;;-1.2407457;0.05736924;-0.5346833;;;;;;;;;;;;;;;
1628.0;1520.1;;;;-1.2434617;0.059143074;-0.5345002;;;;;;;;;;;;;;;
1628.0;1520.1;;;;-1.2450753;0.06078721;-0.53124624;;;;;;;;;;;;;;;
1628.0;1520.1;;;;-1.2462388;0.06264878;-0.52839285;;;;;;;;;;;;;;;
1628.0;1520.1;;;;-1.2451249;0.064796455;-0.5360337;;;;;;;;;;;;;;;
1628.0;1522.4;262143;262143;12912;;;;;;;;;;;;;;;;;;
1628.0;1528.6;;;;;;;;;;;;;2463;;;;;;;;
1628.0;1528.6;;;;;;;;;;;;;1764;;;;;;;;
1628.0;1528.6;;;;;;;;;;;;;788;;;;;;;;
1628.0;1528.6;;;;;;;;;;;;;232;;;;;;;;
1628.0;1528.6;;;;;;;;;;;;;218;;;;;;;;
1632.0;1530.2;;;;-1.2426912;0.0667801;-0.54045874;;;;;;;;;;;;;;;
1632.0;1530.2;;;;-1.2409288;0.068500526;-0.54108053;;;;;;;;;;;;;;;
1632.0;1530.2;;;;-1.2401582;0.070148475;-0.5408936;;;;;;;;;;;;;;;
1632.0;1530.2;;;;-1.2382165;0.071983345;-0.5402222;;;;;;;;;;;;;;;
1632.0;1530.2;;;;-1.2332498;0.07358552;-0.5406876;;;;;;;;;;;;;;;
1632.0;1540.0;;;;;;;;;;;;;;;;;58.320873;-8.949553;47.975098;;1449.0
1632.0;1540.0;;;;;;;;;;;;;;-1.1186254;-0.53889585;-0.26056704;;;;;1449.0
1632.0;1540.0;;;;;;;;;;;;;;;;;59.732353;-10.082552;46.212654;;1449.0
1632.0;1540.0;;;;;;;;;;;;;;-1.1388898;-0.52864164;-0.27240822;;;;;1449.0
1632.0;1540.0;;;;;;;;;;;;;;;;;61.14002;-11.631367;43.740654;;1458.6
1632.0;1540.0;;;;;;;;;;;;;;-1.1633656;-0.50923187;-0.2920011;;;;;1458.6
1632.0;1540.0;;;;;;;;;;;;;;;;;62.322613;-13.5883665;40.5858;;1458.6
1632.0;1540.0;;;;;;;;;;;;;;-1.1878414;-0.4898221;-0.3096408;;;;;1458.6
1632.0;1540.0;;;;;;;;;;;;;;;;;63.20002;-15.438551;36.736656;;1468.2
1632.0;1540.0;;;;;;;;;;;;;;-1.2103031;-0.46498;-0.32459486;;;;;1468.2
1632.0;1540.0;;;;;;;;;;;;;;;;;65.298164;-17.628254;32.498398;;1468.2
1632.0;1540.0;;;;;;;;;;;;;;-1.2104251;-0.44001588;-0.32752463;;;;;1468.2
1632.0;1540.2;;;;-1.2272493;0.07535935;-0.54440695;;;;;;;;;;;;;;;
1632.0;1540.2;;;;-1.220379;0.07698441;-0.54767233;;;;;;;;;;;;;;;
1632.0;1540.2;;;;-1.2135049;0.07774735;-0.5489579;;;;;;;;;;;;;;;
1632.0;1540.2;;;;-1.2074624;0.0784607;-0.54824835;;;;;;;;;;;;;;;
1632.0;1540.2;;;;-1.201378;0.07860566;-0.55040365;;;;;;;;;;;;;;;
1632.0;1542.6;262143;262143;12911;;;;;;;;;;;;;;;;;;
1634.0;1550.3;;;;-1.1964532;0.07798768;-0.5526162;;;;;;;;;;;;;;;
1634.0;1550.3;;;;-1.1893045;0.07758332;-0.5503159;;;;;;;;;;;;;;;
1634.0;1550.3;;;;-1.1817476;0.07680512;-0.5479813;;;;;;;;;;;;;;;
1634.0;1550.3;;;;-1.176346;0.07573701;-0.54900366;;;;;;;;;;;;;;;
1634.0;1550.3;;;;-1.1723062;0.07426835;-0.5497094;;;;;;;;;;;;;;;
1634.0;1555.5;;;;;;;;;;;;;;;;;68.92605;-19.318218;28.538622;;1477.9
1634.0;1555.5;;;;;;;;;;;;;;-1.2173223;-0.3958861;-0.3180639;;;;;1477.9
1634.0;1555.5;;;;;;;;;;;;;;;;;73.049866;-20.680105;24.430067;;1477.9
1634.0;1555.5;;;;;;;;;;;;;;-1.2286142;-0.3361919;-0.3039033;;;;;1477.9
1634.0;1555.5;;;;;;;;;;;;;;;;;77.509384;-21.675772;20.641956;;1487.5
1634.0;1555.5;;;;;;;;;;;;;;-1.2543107;-0.2976165;-0.30231637;;;;;1487.5
1634.0;1555.5;;;;;;;;;;;;;;;;;82.052826;-22.968992;16.869106;;1487.5
1634.0;1555.5;;;;;;;;;;;;;;-1.2839137;-0.27411726;-0.30793175;;;;;1487.5
1634.0;1555.5;;;;;;;;;;;;;;;;;86.32161;-24.777214;13.218329;;1497.2
1634.0;1555.5;;;;;;;;;;;;;;-1.3069247;-0.2598346;-0.2959685;;;;;1497.2
1634.0;1555.5;;;;;;;;;;;;;;;;;89.228485;-27.256845;9.277627;;1497.2
1634.0;1555.5;;;;;;;;;;;;;;-1.3145543;-0.26239815;-0.29468673;;;;;1497.2
1634.0;1560.3;;;;-1.1671907;0.07206345;-0.5496407;;;;;;;;;;;;;;;
1634.0;1560.3;;;;-1.1600763;0.07063294;-0.5505944;;;;;;;;;;;;;;;
1634.0;1560.3;;;;-1.1518365;0.06912232;-0.5525628;;;;;;;;;;;;;;;
1634.0;1560.3;;;;-1.1428071;0.06748582;-0.5525513;;;;;;;;;;;;;;;
1634.0;1560.3;;;;-1.1337892;0.066120155;-0.551529;;;;;;;;;;;;;;;
1634.0;1562.8;262143;262143;12903;;;;;;;;;;;;;;;;;;
1686.0;1568.9;;;;;;;;;;;;;-18;;;;;;;;
1686.0;1568.9;;;;;;;;;;;;;-532;;;;;;;;
1686.0;1568.9;;;;;;;;;;;;;-903;;;;;;;;
1686.0;1568.9;;;;;;;;;;;;;-1339;;;;;;;;
1686.0;1568.9;;;;;;;;;;;;;-1968;;;;;;;;
1686.0;1570.4;;;;-1.1260263;0.06549073;-0.5510178;;;;;;;;;;;;;;;
1686.0;1570.4;;;;-1.1191903;0.06540681;-0.54944617;;;;;;;;;;;;;;;
1686.0;1570.4;;;;-1.113022;0.065177925;-0.5479165;;;;;;;;;;;;;;;
1686.0;1570.4;;;;-1.1078607;0.06395341;-0.5452576;;;;;;;;;;;;;;;
1686.0;1570.4;;;;-1.1036988;0.061435707;-0.5418053;;;;;;;;;;;;;;;
1686.0;1580.3;;;;-1.0996209;0.058273323;-0.5390015;;;;;;;;;;;;;;;
1686.0;1580.3;;;;-1.0950662;0.05445481;-0.5360413;;;;;;;;;;;;;;;
1686.0;1580.3;;;;-1.0909997;0.049518593;-0.5320588;;;;;;;;;;;;;;;
1686.0;1580.3;;;;-1.0870134;0.04488373;-0.5279694;;;;;;;;;;;;;;;
1686.0;1580.3;;;;-1.0844766;0.04056168;-0.52413946;;;;;;;;;;;;;;;
1686.0;1582.8;262143;262143;12904;;;;;;;;;;;;;;;;;;
1686.0;1590.4;;;;-1.0819932;0.037307743;-0.5197678;;;;;;;;;;;;;;;
1686.0;1590.4;;;;-1.07959;0.035114292;-0.515915;;;;;;;;;;;;;;;
1686.0;1590.4;;;;-1.076336;0.033523563;-0.511921;;;;;;;;;;;;;;;
1686.0;1590.4;;;;-1.0727655;0.03257752;-0.50848395;;;;;;;;;;;;;;;
1686.0;1590.4;;;;-1.0691339;0.03153992;-0.5047036;;;;;;;;;;;;;;;
1688.0;1600.3;;;;;;;;;;;;;;;;;90.87267;-29.934843;4.387036;;1506.9
1688.0;1600.3;;;;;;;;;;;;;;-1.3031404;-0.28015992;-0.28315073;;;;;1506.9
1688.0;1600.3;;;;;;;;;;;;;;;;;90.99094;-32.303844;-1.2207403;;1506.9
1688.0;1600.3;;;;;;;;;;;;;;-1.279397;-0.2842494;-0.25818658;;;;;1506.9
1688.0;1600.3;;;;;;;;;;;;;;;;;90.4416;-34.60417;-7.8737755;;1516.5
1688.0;1600.3;;;;;;;;;;;;;;-1.2488785;-0.28974274;-0.21790215;;;;;1516.5
1688.0;1600.3;;;;;;;;;;;;;;;;;89.18652;-36.687065;-15.194403;;1516.5
1688.0;1600.3;;;;;;;;;;;;;;-1.2115848;-0.3010956;-0.16913357;;;;;1516.5
1688.0;1600.3;;;;;;;;;;;;;;;;;86.783195;-38.0871;-22.064884;;1526.0
1688.0;1600.3;;;;;;;;;;;;;;-1.1714225;-0.33033234;-0.14374217;;;;;1526.0
1688.0;1600.3;;;;;;;;;;;;;;;;;84.482864;-38.15577;-28.439436;;1526.0
1688.0;1600.3;;;;;;;;;;;;;;-1.1503036;-0.35688344;-0.1208533;;;;;1526.0
1688.0;1600.4;;;;-1.0636369;0.03181458;-0.4995461;;;;;;;;;;;;;;;
1688.0;1600.4;;;;-1.0573541;0.032226566;-0.49556738;;;;;;;;;;;;;;;
1688.0;1600.4;;;;-1.0517236;0.032459263;-0.49178702;;;;;;;;;;;;;;;
1688.0;1600.4;;;;-1.0457536;0.032592777;-0.48860174;;;;;;;;;;;;;;;
1688.0;1600.4;;;;-1.0399667;0.0324173;-0.48587042;;;;;;;;;;;;;;;
1688.0;1603.0;262143;262143;12904;;;;;;;;;;;;;;;;;;
1691.0;1607.8;;;;;;;;;;;;;;;;;81.16016;-37.007507;-34.592728;;1535.7
1691.0;1607.8;;;;;;;;;;;;;;-1.1337626;-0.37018952;-0.098941006;;;;;1535.7
1691.0;1607.8;;;;;;;;;;;;;;;;;76.994385;-34.52025;-40.62395;;1535.7
1691.0;1607.8;;;;;;;;;;;;;;-1.1205176;-0.37012848;-0.07660146;;;;;1535.7
1691.0;1607.8;;;;;;;;;;;;;;;;;71.67654;-31.022064;-46.77343;;1545.4
1691.0;1607.8;;;;;;;;;;;;;;-1.1131321;-0.3878292;-0.06469924;;;;;1545.4
1691.0;1607.8;;;;;;;;;;;;;;;;;66.00009;-26.12003;-52.713097;;1545.4
1691.0;1607.8;;;;;;;;;;;;;;-1.1073946;-0.4173101;-0.08160649;;;;;1545.4
1691.0;1607.8;;;;;;;;;;;;;;;;;61.330757;-20.023956;-58.694725;;1555.0
1691.0;1607.8;;;;;;;;;;;;;;-1.093112;-0.44251838;-0.12024293;;;;;1555.0
1691.0;1607.8;;;;;;;;;;;;;;;;;57.687614;-12.150182;-64.61532;;1555.0
1691.0;1607.8;;;;;;;;;;;;;;-1.0790124;-0.46498;-0.16821803;;;;;1555.0
1691.0;1609.0;;;;;;;;;;;;;-2477;;;;;;;;
1691.0;1609.0;;;;;;;;;;;;;-2590;;;;;;;;
1691.0;1609.0;;;;;;;;;;;;;-2430;;;;;;;;
1691.0;1609.0;;;;;;;;;;;;;-2163;;;;;;;;
1691.0;1609.0;;;;;;;;;;;;;-1706;;;;;;;;
1691.0;1610.4;;;;-1.0344049;0.031803135;-0.48397452;;;;;;;;;;;;;;;
1691.0;1610.4;;;;-1.0287286;0.030689243;-0.48229986;;;;;;;;;;;;;;;
1691.0;1610.4;;;;-1.0238992;0.029510502;-0.4809571;;;;;;;;;;;;;;;
1691.0;1610.4;;;;-1.0190507;0.028308872;-0.48027045;;;;;;;;;;;;;;;
1691.0;1610.4;;;;-1.014721;0.027179722;-0.47938925;;;;;;;;;;;;;;;
1747.0;1620.4;;;;-1.0103914;0.02656174;-0.47882086;;;;;;;;;;;;;;;
1747.0;1620.4;;;;-1.0060502;0.026088718;-0.47827917;;;;;;;;;;;;;;;
1747.0;1620.4;;;;-1.001896;0.025531773;-0.4783898;;;;;;;;;;;;;;;
1747.0;1620.4;;;;-0.997017;0.025470737;-0.47769552;;;;;;;;;;;;;;;
1747.0;1620.4;;;;-0.99169934;0.025836948;-0.4758187;;;;;;;;;;;;;;;
1747.0;1623.0;262143;262143;12902;;;;;;;;;;;;;;;;;;
1747.0;1630.5;;;;-0.9867326;0.025909428;-0.47476202;;;;;;;;;;;;;;;
1747.0;1630.5;;;;-0.98222744;0.025718693;-0.47453696;;;;;;;;;;;;;;;
1747.0;1630.5;;;;-0.9783937;0.02625275;-0.47467428;;;;;;;;;;;;;;;
1747.0;1630.5;;;;-0.9750253;0.026866917;-0.47323996;;;;;;;;;;;;;;;
1747.0;1630.5;;;;-0.97044384;0.027557377;-0.47132498;;;;;;;;;;;;;;;
1747.0;1640.6;;;;-0.9652177;0.028644565;-0.46870047;;;;;;;;;;;;;;;
1747.0;1640.6;;;;-0.9592439;0.028945927;-0.46768194;;;;;;;;;;;;;;;
1747.0;1640.6;;;;-0.95440304;0.029327396;-0.46622473;;;;;;;;;;;;;;;
1747.0;1640.6;;;;-0.9474679;0.030097965;-0.46376806;;;;;;;;;;;;;;;
1747.0;1640.6;;;;-0.9405252;0.030689243;-0.46147543;;;;;;;;;;;;;;;
1747.0;1643.2;262143;262143;12899;;;;;;;;;;;;;;;;;;
1747.0;1649.4;;;;;;;;;;;;;-1117;;;;;;;;
1747.0;1649.4;;;;;;;;;;;;;-499;;;;;;;;
1747.0;1649.4;;;;;;;;;;;;;201;;;;;;;;
1747.0;1649.4;;;;;;;;;;;;;1167;;;;;;;;
1747.0;1649.4;;;;;;;;;;;;;2253;;;;;;;;
1749.0;1650.7;;;;-0.93400586;0.032089237;-0.4589768;;;;;;;;;;;;;;;
1749.0;1650.7;;;;-0.9283601;0.034042362;-0.45806128;;;;;;;;;;;;;;;
1749.0;1650.7;;;;-0.9227792;0.035312656;-0.4556237;;;;;;;;;;;;;;;
1749.0;1650.7;;;;-0.91664517;0.037937168;-0.45072562;;;;;;;;;;;;;;;
1749.0;1650.7;;;;-0.9094697;0.04087067;-0.44459158;;;;;;;;;;;;;;;
1749.0;1660.6;;;;;;;;;;;;;;;;;55.051575;-3.1968138;-70.20402;;1564.6
1749.0;1660.6;;;;;;;;;;;;;;-1.0608234;-0.4925077;-0.22815637;;;;;1564.6
1749.0;1660.6;;;;;;;;;;;;;;;;;52.96869;5.272073;-75.42268;;1564.6
1749.0;1660.6;;;;;;;;;;;;;;-1.0571612;-0.5190588;-0.31086153;;;;;1564.6
1749.0;1660.6;;;;;;;;;;;;;;;;;51.824245;11.097293;-80.439156;;1574.3
1749.0;1660.6;;;;;;;;;;;;;;-1.0869472;-0.5323649;-0.3686636;;;;;1574.3
1749.0;1660.6;;;;;;;;;;;;;;;;;51.79754;12.730033;-85.30305;;1574.3
1749.0;1660.6;;;;;;;;;;;;;;-1.1255836;-0.502884;-0.4191412;;;;;1574.3
1749.0;1660.6;;;;;;;;;;;;;;;;;52.346874;10.010071;-90.06012;;1584.0
1749.0;1660.6;;;;;;;;;;;;;;-1.1742302;-0.4931791;-0.48298594;;;;;1584.0
1749.0;1660.6;;;;;;;;;;;;;;;;;53.59432;2.906888;-94.843895;;1584.0
1749.0;1660.6;;;;;;;;;;;;;;-1.1930906;-0.50807214;-0.54811245;;;;;1584.0
1749.0;1660.6;;;;-0.90106213;0.04415131;-0.43996435;;;;;;;;;;;;;;;
1749.0;1660.6;;;;-0.89332974;0.046703342;-0.43488318;;;;;;;;;;;;;;;
1749.0;1660.6;;;;-0.8873941;0.048954017;-0.4303437;;;;;;;;;;;;;;;
1749.0;1660.6;;;;-0.88300717;0.050704964;-0.42675406;;;;;;;;;;;;;;;
1749.0;1660.6;;;;-0.8807832;0.052070625;-0.42288214;;;;;;;;;;;;;;;
1749.0;1663.3;262143;262143;12899;;;;;;;;;;;;;;;;;;
1754.0;1670.7;;;;-0.8790208;0.0532837;-0.41857916;;;;;;;;;;;;;;;
1754.0;1670.7;;;;-0.8774911;0.054344185;-0.41407782;;;;;;;;;;;;;;;
1754.0;1670.7;;;;-0.87523663;0.05593873;-0.40974814;;;;;;;;;;;;;;;
1754.0;1670.7;;;;-0.87266934;0.05792237;-0.40469366;;;;;;;;;;;;;;;
1754.0;1670.7;;;;-0.87160504;0.060226448;-0.3989449;;;;;;;;;;;;;;;
1754.0;1675.3;;;;;;;;;;;;;;;;;56.356243;-4.734184;-100.53941;;1593.6
1754.0;1675.3;;;;;;;;;;;;;;-1.17893;-0.4737083;-0.56770533;;;;;1593.6
1754.0;1675.3;;;;;;;;;;;;;;;;;60.552536;-9.777367;-105.95645;;1593.6
1754.0;1675.3;;;;;;;;;;;;;;-1.1736197;-0.44642475;-0.54158145;;;;;1593.6
1754.0;1675.3;;;;;;;;;;;;;;;;;65.103615;-10.9408865;-110.93096;;1603.3
1754.0;1675.3;;;;;;;;;;;;;;-1.1548204;-0.42402416;-0.527665;;;;;1603.3
1754.0;1675.3;;;;;;;;;;;;;;;;;68.990906;-8.037812;-114.61226;;1603.3
1754.0;1675.3;;;;;;;;;;;;;;-1.1432844;-0.41047394;-0.5075228;;;;;1603.3
1754.0;1675.3;;;;;;;;;;;;;;;;;70.49013;-2.9869993;-117.557304;;1613.1
1754.0;1675.3;;;;;;;;;;;;;;-1.1338236;-0.40687278;-0.50233465;;;;;1613.1
1754.0;1675.3;;;;;;;;;;;;;;;;;70.757164;2.8916287;-119.529564;;1613.1
1754.0;1675.3;;;;;;;;;;;;;;-1.1219214;-0.42048404;-0.5085604;;;;;1613.1
1754.0;1680.7;;;;-0.86903393;0.06274033;-0.393776;;;;;;;;;;;;;;;
1754.0;1680.7;;;;-0.86490643;0.0653534;-0.38801962;;;;;;;;;;;;;;;
1754.0;1680.7;;;;-0.8598901;0.06753922;-0.3817826;;;;;;;;;;;;;;;
1754.0;1680.7;;;;-0.8532716;0.06949235;-0.37566;;;;;;;;;;;;;;;
1754.0;1680.7;;;;-0.84664166;0.070968635;-0.37070087;;;;;;;;;;;;;;;
1754.0;1683.5;262143;262143;12902;;;;;;;;;;;;;;;;;;
1807.0;1689.5;;;;;;;;;;;;;2873;;;;;;;;
1807.0;1689.5;;;;;;;;;;;;;2744;;;;;;;;
1807.0;1689.5;;;;;;;;;;;;;2345;;;;;;;;
1807.0;1689.5;;;;;;;;;;;;;2292;;;;;;;;
1807.0;1689.5;;;;;;;;;;;;;2538;;;;;;;;
1807.0;1690.7;;;;-0.83981717;0.07187653;-0.36654666;;;;;;;;;;;;;;;
1807.0;1690.7;;;;-0.8327142;0.07279206;-0.36366656;;;;;;;;;;;;;;;
1807.0;1690.7;;;;-0.8267518;0.074249275;-0.34865573;;;;;;;;;;;;;;;
1807.0;1690.7;;;;-0.82511914;0.07691956;-0.33465198;;;;;;;;;;;;;;;
1807.0;1690.7;;;;-0.82353985;0.079730995;-0.32577136;;;;;;;;;;;;;;;
1807.0;1700.8;;;;-0.8180009;0.082305916;-0.31811908;;;;;;;;;;;;;;;
1807.0;1700.8;;;;-0.8092996;0.08327866;-0.31414416;;;;;;;;;;;;;;;
1807.0;1700.8;;;;-0.8004991;0.08106614;-0.3126984;;;;;;;;;;;;;;;
1807.0;1700.8;;;;-0.79265225;0.07510758;-0.3122101;;;;;;;;;;;;;;;
1807.0;1700.8;;;;-0.7885705;0.0679741;-0.31150058;;;;;;;;;;;;;;;
1807.0;1703.7;262143;262143;12904;;;;;;;;;;;;;;;;;;
1807.0;1710.9;;;;-0.78593075;0.0622902;-0.30765918;;;;;;;;;;;;;;;
1807.0;1710.9;;;;-0.78048337;0.05989457;-0.30077365;;;;;;;;;;;;;;;
1807.0;1710.9;;;;-0.77069485;0.05927659;-0.29446414;;;;;;;;;;;;;;;
1807.0;1710.9;;;;-0.7604257;0.06090165;-0.2903519;;;;;;;;;;;;;;;
1807.0;1710.9;;;;-0.750744;0.063228615;-0.28660586;;;;;;;;;;;;;;;
1821.0;1721.1;;;;;;;;;;;;;;;;;71.61549;8.426924;-119.85;;1622.7
1821.0;1721.1;;;;;;;;;;;;;;-1.1298562;-0.42719808;-0.52192754;;;;;1622.7
1821.0;1721.1;;;;;;;;;;;;;;;;;73.35505;12.852107;-118.94971;;1622.7
1821.0;1721.1;;;;;;;;;;;;;;-1.1615344;-0.43006682;-0.52900785;;;;;1622.7
1821.0;1721.1;;;;;;;;;;;;;;;;;74.76272;16.140476;-117.328415;;1632.3
1821.0;1721.1;;;;;;;;;;;;;;-1.1897947;-0.44129765;-0.5353557;;;;;1632.3
1821.0;1721.1;;;;;;;;;;;;;;;;;77.90613;15.617847;-116.11912;;1632.3
1821.0;1721.1;;;;;;;;;;;;;;-1.2093875;-0.44294566;-0.50086975;;;;;1632.3
1821.0;1721.1;;;;;;;;;;;;;;;;;81.11438;13.580737;-115.9093;;1641.9
1821.0;1721.1;;;;;;;;;;;;;;-1.2140263;-0.41468552;-0.43763542;;;;;1641.9
1821.0;1721.1;;;;;;;;;;;;;;;;;83.95642;11.490219;-114.6237;;1641.9
1821.0;1721.1;;;;;;;;;;;;;;-1.2179937;-0.40119633;-0.3521836;;;;;1641.9
1821.0;1720.9;;;;-0.7427674;0.06435395;-0.28367236;;;;;;;;;;;;;;;
1821.0;1720.9;;;;-0.7369996;0.06373597;-0.28135303;;;;;;;;;;;;;;;
1821.0;1720.9;;;;-0.73185736;0.061309822;-0.27769092;;;;;;;;;;;;;;;
1821.0;1720.9;;;;-0.72671896;0.057643898;-0.27416614;;;;;;;;;;;;;;;
1821.0;1720.9;;;;-0.7215424;0.053012855;-0.27157596;;;;;;;;;;;;;;;
1822.0;1721.9;;;;;;;;;;;;;;;;;86.169014;8.159886;-113.26945;;1651.6
1822.0;1721.9;;;;;;;;;;;;;;-1.2289194;-0.3749504;-0.28254035;;;;;1651.6
1822.0;1721.9;;;;;;;;;;;;;;;;;88.198494;3.1052582;-111.46123;;1651.6
1822.0;1721.9;;;;;;;;;;;;;;-1.2175055;-0.3373516;-0.21283609;;;;;1651.6
1822.0;1721.9;;;;;;;;;;;;;;;;;90.28901;-1.4267403;-110.442665;;1661.2
1822.0;1721.9;;;;;;;;;;;;;;-1.1791742;-0.2646565;-0.10956145;;;;;1661.2
1822.0;1721.9;;;;;;;;;;;;;;;;;89.71678;-3.627888;-111.114075;;1661.2
1822.0;1721.9;;;;;;;;;;;;;;-1.1797235;-0.15033418;-0.03155614;;;;;1661.2
1822.0;1721.9;;;;;;;;;;;;;;;;;84.5439;-4.608295;-109.95437;;1671.0
1822.0;1721.9;;;;;;;;;;;;;;-1.1808221;-0.12457655;-0.006225776;;;;;1671.0
1822.0;1721.9;;;;;;;;;;;;;;;;;78.43638;-5.779443;-109.73692;;1671.0
1822.0;1721.9;;;;;;;;;;;;;;-1.101352;-0.0740379;0.05121006;;;;;1671.0
1822.0;1723.7;262143;262143;12902;;;;;;;;;;;;;;;;;;
1822.0;1729.8;;;;;;;;;;;;;2829;;;;;;;;
1822.0;1729.8;;;;;;;;;;;;;3248;;;;;;;;
1822.0;1729.8;;;;;;;;;;;;;3456;;;;;;;;
1822.0;1729.8;;;;;;;;;;;;;3087;;;;;;;;
1822.0;1729.8;;;;;;;;;;;;;2653;;;;;;;;
1822.0;1730.9;;;;-0.7174912;0.04841996;-0.26923373;;;;;;;;;;;;;;;
1822.0;1730.9;;;;-0.7136689;0.043361668;-0.26678088;;;;;;;;;;;;;;;
1822.0;1730.9;;;;-0.7103005;0.038551334;-0.2641869;;;;;;;;;;;;;;;
1822.0;1730.9;;;;-0.7067757;0.033741;-0.26155093;;;;;;;;;;;;;;;
1822.0;1730.9;;;;-0.70322424;0.030071262;-0.25875095;;;;;;;;;;;;;;;
1869.0;1740.7;;;;;;;;;;1.5259255;19.230476;-2.8077028;;;;;;;;;
1869.0;1740.7;;;;;;;0.66518146;0.15918455;-0.4608295;;;;;;;;;;;;
1869.0;1740.7;;;;;;;;;;4.036073;28.668325;6.389813;;;;;;;;;
1869.0;1740.7;;;;;;;0.73464155;0.17560351;-0.51515245;;;;;;;;;;;;
1869.0;1740.9;;;;-0.69977957;0.027050022;-0.2566338;;;;;;;;;;;;;;;
1869.0;1740.9;;;;-0.69574744;0.023948673;-0.2547951;;;;;;;;;;;;;;;
1869.0;1740.9;;;;-0.6922646;0.02068329;-0.2535973;;;;;;;;;;;;;;;
1869.0;1740.9;;;;-0.68881994;0.017890932;-0.25149158;;;;;;;;;;;;;;;
1869.0;1740.9;;;;-0.686596;0.014808657;-0.24918368;;;;;;;;;;;;;;;
1869.0;1743.9;262143;262143;12906;;;;;;;;;;;;;;;;;;
1869.0;1750.2;;;;;;;;;;-0.17929624;3.5706656;2.6245918;;;;;;;;;
1869.0;1750.2;;;;;;;0.7291482;0.17242958;-0.5172277;;;;;;;;;;;;
1869.0;1750.2;;;;;;;;;;-8.728293;18.677328;11.738182;;;;;;;;;
1869.0;1750.2;;;;;;;0.712302;0.16864528;-0.5186926;;;;;;;;;;;;
1869.0;1750.8;;;;-0.6851044;0.011577607;-0.24785617;;;;;;;;;;;;;;;
1869.0;1750.8;;;;-0.68459326;0.008399964;-0.24732593;;;;;;;;;;;;;;;
1869.0;1750.8;;;;-0.6844788;0.004528046;-0.2467232;;;;;;;;;;;;;;;
1869.0;1750.8;;;;-0.6842385;-7.2479255E-5;-0.2482529;;;;;;;;;;;;;;;
1869.0;1750.8;;;;-0.68306357;-0.004402161;-0.24238208;;;;;;;;;;;;;;;
1869.0;1759.6;;;;;;;;;;-20.596178;20.355846;15.751366;;;;;;;;;
1869.0;1759.6;;;;;;;0.694235;0.1652272;-0.51747185;;;;;;;;;;;;
1869.0;1759.6;;;;;;;;;;-36.91595;-15.392773;-1.495407;;;;;;;;;
1869.0;1759.6;;;;;;;0.67812127;0.16272469;-0.5186926;;;;;;;;;;;;
1870.0;1760.8;;;;-0.67890555;-0.009483338;-0.23856738;;;;;;;;;;;;;;;
1870.0;1760.8;;;;-0.6734353;-0.014720919;-0.23520282;;;;;;;;;;;;;;;
1870.0;1760.8;;;;-0.67018896;-0.019641878;-0.2324219;;;;;;;;;;;;;;;
1870.0;1760.8;;;;-0.668644;-0.024703983;-0.2302399;;;;;;;;;;;;;;;
1870.0;1760.8;;;;-0.6653634;-0.029331211;-0.23022845;;;;;;;;;;;;;;;
1870.0;1763.8;262143;262143;12894;;;;;;;;;;;;;;;;;;
1870.0;1769.2;;;;;;;;;;-47.704247;-15.961182;1.22837;;;;;;;;;
1870.0;1769.2;;;;;;;0.6762291;0.16528825;-0.52070683;;;;;;;;;;;;
1870.0;1769.2;;;;;;;;;;-57.85928;-16.18244;4.100925;;;;;;;;;
1870.0;1769.2;;;;;;;0.67793816;0.16443373;-0.5200964;;;;;;;;;;;;
1870.0;1769.9;;;;;;;;;;;;;2725;;;;;;;;
1870.0;1769.9;;;;;;;;;;;;;3033;;;;;;;;
1870.0;1769.9;;;;;;;;;;;;;2914;;;;;;;;
1870.0;1769.9;;;;;;;;;;;;;2384;;;;;;;;
1870.0;1769.9;;;;;;;;;;;;;2038;;;;;;;;
1870.0;1770.9;;;;-0.66009146;-0.033741;-0.23033145;;;;;;;;;;;;;;;
1870.0;1770.9;;;;-0.65458685;-0.038673405;-0.23183063;;;;;;;;;;;;;;;
1870.0;1770.9;;;;-0.65043265;-0.04305649;-0.23232654;;;;;;;;;;;;;;;
1870.0;1770.9;;;;-0.6473618;-0.046760563;-0.23270419;;;;;;;;;;;;;;;
1870.0;1770.9;;;;-0.64313513;-0.049705513;-0.23181537;;;;;;;;;;;;;;;
1870.0;1778.9;;;;;;;;;;-66.240425;-8.980071;12.29133;;;;;;;;;
1870.0;1778.9;;;;;;;0.67738885;0.16577655;-0.5195471;;;;;;;;;;;;
1870.0;1778.9;;;;;;;;;;-68.041016;-0.18311106;19.768364;;;;;;;;;
1870.0;1778.9;;;;;;;0.6787317;0.16302988;-0.5137486;;;;;;;;;;;;
1872.0;1781.0;;;;-0.6399575;-0.0519867;-0.23123553;;;;;;;;;;;;;;;
1872.0;1781.0;;;;-0.63773733;-0.05359269;-0.23010257;;;;;;;;;;;;;;;
1872.0;1781.0;;;;-0.63886267;-0.054393776;-0.22809604;;;;;;;;;;;;;;;
1872.0;1781.0;;;;-0.63917166;-0.055847175;-0.22571567;;;;;;;;;;;;;;;
1872.0;1781.0;;;;-0.63434225;-0.056827553;-0.22319034;;;;;;;;;;;;;;;
1872.0;1781.4;;;;;;;;;;;;;;;;;71.1539;-4.623554;-109.66826;;1680.7
1872.0;1781.4;;;;;;;;;;;;;;-1.0661947;-0.0872219;0.067873165;;;;;1680.7
1872.0;1781.4;;;;;;;;;;;;;;;;;65.96576;-4.1123695;-108.78323;;1680.7
1872.0;1781.4;;;;;;;;;;;;;;-1.038789;-0.0695822;0.065187536;;;;;1680.7
1872.0;1781.4;;;;;;;;;;;;;;;;;62.639244;-3.9292583;-108.14997;;1690.2
1872.0;1781.4;;;;;;;;;;;;;;-1.0150456;-0.07580798;0.06451613;;;;;1690.2
1872.0;1781.4;;;;;;;;;;;;;;;;;62.086094;-4.692221;-106.15864;;1690.2
1872.0;1781.4;;;;;;;;;;;;;;-0.97128206;-0.13647878;0.04077273;;;;;1690.2
1872.0;1781.4;;;;;;;;;;;;;;;;;63.55861;-4.528184;-104.78149;;1699.8
1872.0;1781.4;;;;;;;;;;;;;;-0.9355144;-0.06164739;0.017944884;;;;;1699.8
1872.0;1781.4;;;;;;;;;;;;;;;;;64.138466;-4.1085544;-103.09534;;1699.8
1872.0;1781.4;;;;;;;;;;;;;;-0.9196448;-0.043702506;-0.018799402;;;;;1699.8
1878.0;1782.1;;;;;;;;;;;;;;;;;65.03494;-5.7832575;-101.17648;;1709.4
1878.0;1782.1;;;;;;;;;;;;;;-0.8799707;-0.060670797;-0.067201756;;;;;1709.4
1878.0;1782.1;;;;;;;;;;;;;;;;;67.20176;-8.247627;-98.658714;;1709.4
1878.0;1782.1;;;;;;;;;;;;;;-0.83932006;-0.09033479;-0.10858486;;;;;1709.4
1878.0;1782.1;;;;;;;;;;;;;;;;;70.05905;-10.898923;-96.04556;;1719.1
1878.0;1782.1;;;;;;;;;;;;;;-0.8070925;-0.1340373;-0.16089359;;;;;1719.1
1878.0;1782.1;;;;;;;;;;;;;;;;;72.565384;-12.878811;-94.24116;;1719.1
1878.0;1782.1;;;;;;;;;;;;;;-0.7940306;-0.17114781;-0.18659016;;;;;1719.1
1878.0;1782.1;;;;;;;;;;;;;;;;;72.95068;-15.190588;-93.928345;;1728.7
1878.0;1782.1;;;;;;;;;;;;;;-0.7729118;-0.20752586;-0.20056765;;;;;1728.7
1878.0;1782.1;;;;;;;;;;;;;;;;;70.50157;-16.769922;-94.80956;;1728.7
1878.0;1782.1;;;;;;;;;;;;;;-0.76314586;-0.24750511;-0.2125309;;;;;1728.7
1878.0;1784.0;262143;262143;12900;;;;;;;;;;;;;;;;;;
1878.0;1788.3;;;;;;;;;;-67.426834;0.3662221;19.936216;;;;;;;;;
1878.0;1788.3;;;;;;;0.6799524;0.15741447;-0.5052034;;;;;;;;;;;;
1878.0;1788.3;;;;;;;;;;-66.65243;0.8697775;20.195623;;;;;;;;;
1878.0;1788.3;;;;;;;0.67488635;0.15015107;-0.49690238;;;;;;;;;;;;
1878.0;1791.0;;;;-0.63057333;-0.05775071;-0.2232056;;;;;;;;;;;;;;;
1878.0;1791.0;;;;-0.6289826;-0.05995942;-0.22404483;;;;;;;;;;;;;;;
1878.0;1791.0;;;;-0.6284142;-0.062335975;-0.22443774;;;;;;;;;;;;;;;
1878.0;1791.0;;;;-0.6280518;-0.0649376;-0.22446445;;;;;;;;;;;;;;;
1878.0;1791.0;;;;-0.62725073;-0.06818009;-0.22452167;;;;;;;;;;;;;;;
1927.0;1797.8;;;;;;;;;;-65.8208;1.4801477;20.443586;;;;;;;;;
1927.0;1797.8;;;;;;;0.6800134;0.14453566;-0.48817408;;;;;;;;;;;;
1927.0;1797.8;;;;;;;;;;-64.95102;1.8387402;20.29481;;;;;;;;;
1927.0;1797.8;;;;;;;0.67970824;0.1439253;-0.48316905;;;;;;;;;;;;
1927.0;1801.0;;;;-0.62772757;-0.07195283;-0.22537234;;;;;;;;;;;;;;;
1927.0;1801.0;;;;-0.6262551;-0.076190956;-0.22656634;;;;;;;;;;;;;;;
1927.0;1801.0;;;;-0.6240693;-0.07949067;-0.22659305;;;;;;;;;;;;;;;
1927.0;1801.0;;;;-0.6219254;-0.08259583;-0.22631839;;;;;;;;;;;;;;;
1927.0;1801.0;;;;-0.6210671;-0.085033424;-0.22663882;;;;;;;;;;;;;;;
1927.0;1804.1;262143;262143;12902;;;;;;;;;;;;;;;;;;
1927.0;1807.5;;;;;;;;;;-64.05072;1.9760735;20.329142;;;;;;;;;
1927.0;1807.5;;;;;;;0.6720176;0.14160588;-0.4776757;;;;;;;;;;;;
1927.0;1807.5;;;;;;;;;;-63.18476;1.8005921;20.413067;;;;;;;;;
1927.0;1807.5;;;;;;;0.66158026;0.13696708;-0.46626177;;;;;;;;;;;;
1927.0;1810.0;;;;;;;;;;;;;1875;;;;;;;;
1927.0;1810.0;;;;;;;;;;;;;1273;;;;;;;;
1927.0;1810.0;;;;;;;;;;;;;326;;;;;;;;
1927.0;1810.0;;;;;;;;;;;;;34;;;;;;;;
1927.0;1810.0;;;;;;;;;;;;;703;;;;;;;;
1927.0;1811.0;;;;-0.6194878;-0.08754731;-0.22706988;;;;;;;;;;;;;;;
1927.0;1811.0;;;;-0.6179276;-0.08948899;-0.22597125;;;;;;;;;;;;;;;
1927.0;1811.0;;;;-0.6170884;-0.09135819;-0.22571567;;;;;;;;;;;;;;;
1927.0;1811.0;;;;-0.616787;-0.093147285;-0.22545627;;;;;;;;;;;;;;;
1927.0;1811.0;;;;-0.6169129;-0.09521867;-0.22637561;;;;;;;;;;;;;;;
1929.0;1816.6;;;;;;;;;;-62.288277;1.4992218;20.279549;;;;;;;;;
1929.0;1816.6;;;;;;;0.6570635;0.13196203;-0.45466477;;;;;;;;;;;;
1929.0;1816.6;;;;;;;;;;-61.45283;1.167333;20.088808;;;;;;;;;
1929.0;1816.6;;;;;;;0.6526078;0.12842189;-0.44514298;;;;;;;;;;;;
1929.0;1820.7;;;;-0.61804205;-0.09637453;-0.22610858;;;;;;;;;;;;;;;
1929.0;1820.7;;;;-0.619484;-0.09778978;-0.22565463;;;;;;;;;;;;;;;
1929.0;1820.7;;;;-0.6219292;-0.0993271;-0.22362521;;;;;;;;;;;;;;;
1929.0;1820.7;;;;-0.6252366;-0.1011696;-0.22221759;;;;;;;;;;;;;;;
1929.0;1820.7;;;;-0.628624;-0.10266878;-0.22290042;;;;;;;;;;;;;;;
1929.0;1823.9;262143;262143;12902;;;;;;;;;;;;;;;;;;
1929.0;1826.3;;;;;;;;;;-60.701313;0.8659627;19.878994;;;;;;;;;
1929.0;1826.3;;;;;;;0.65144813;0.12732323;-0.43848994;;;;;;;;;;;;
1929.0;1826.3;;;;;;;;;;-59.900204;0.3357036;19.718771;;;;;;;;;
1929.0;1826.3;;;;;;;0.64772487;0.12390515;-0.4370861;;;;;;;;;;;;
1929.0;1830.9;;;;-0.631363;-0.104339615;-0.22336963;;;;;;;;;;;;;;;
1929.0;1830.9;;;;-0.6345139;-0.10637285;-0.22402957;;;;;;;;;;;;;;;
1929.0;1830.9;;;;-0.6360169;-0.108367935;-0.22478488;;;;;;;;;;;;;;;
1929.0;1830.9;;;;-0.63846976;-0.11011125;-0.2247887;;;;;;;;;;;;;;;
1929.0;1830.9;;;;-0.6415444;-0.11169435;-0.22540286;;;;;;;;;;;;;;;
1929.0;1835.9;;;;;;;;;;-59.30128;-0.3929258;19.829401;;;;;;;;;
1929.0;1835.9;;;;;;;0.62715536;0.123111665;-0.43745232;;;;;;;;;;;;
1929.0;1835.9;;;;;;;;;;-58.58791;-1.12537;20.18418;;;;;;;;;
1929.0;1835.9;;;;;;;0.621601;0.11847285;-0.43702507;;;;;;;;;;;;
1931.0;1841.0;;;;-0.64588934;-0.11405565;-0.22586825;;;;;;;;;;;;;;;
1931.0;1841.0;;;;-0.65029913;-0.1154709;-0.22694781;;;;;;;;;;;;;;;
1931.0;1841.0;;;;-0.65575033;-0.116985336;-0.22782901;;;;;;;;;;;;;;;
1931.0;1841.0;;;;-0.66101843;-0.11880495;-0.22875217;;;;;;;;;;;;;;;
1931.0;1841.0;;;;-0.6659127;-0.120784774;-0.22899249;;;;;;;;;;;;;;;
1931.0;1841.6;;;;;;;;;;;;;;;;;66.06495;-17.326883;-95.0766;;1738.4
1931.0;1841.6;;;;;;;;;;;;;;-0.7721183;-0.31482893;-0.21765801;;;;;1738.4
1931.0;1841.6;;;;;;;;;;;;;;;;;59.98794;-17.517624;-95.49242;;1738.4
1931.0;1841.6;;;;;;;;;;;;;;-0.7899411;-0.37910092;-0.22333445;;;;;1738.4
1931.0;1841.6;;;;;;;;;;;;;;;;;54.113132;-18.719292;-97.636345;;1748.0
1931.0;1841.6;;;;;;;;;;;;;;-0.78292185;-0.41590625;-0.21399578;;;;;1748.0
1931.0;1841.6;;;;;;;;;;;;;;;;;48.631245;-17.429884;-100.417336;;1748.0
1931.0;1841.6;;;;;;;;;;;;;;-0.7889035;-0.43305764;-0.18787195;;;;;1748.0
1931.0;1841.6;;;;;;;;;;;;;;;;;45.171207;-16.415144;-104.091;;1757.7
1931.0;1841.6;;;;;;;;;;;;;;-0.7693716;-0.43995485;-0.15887935;;;;;1757.7
1931.0;1841.6;;;;;;;;;;;;;;;;;41.9248;-14.797663;-107.32597;;1757.7
1931.0;1841.6;;;;;;;;;;;;;;-0.77932066;-0.37598804;-0.1594287;;;;;1757.7
1933.0;1842.4;;;;;;;;;;;;;;;;;38.834805;-14.118626;-110.18707;;1767.2
1933.0;1842.4;;;;;;;;;;;;;;-0.77932066;-0.38477737;-0.14056826;;;;;1767.2
1933.0;1842.4;;;;;;;;;;;;;;;;;37.701805;-13.176367;-111.42689;;1767.2
1933.0;1842.4;;;;;;;;;;;;;;-0.7845088;-0.3852046;-0.13275552;;;;;1767.2
1933.0;1842.4;;;;;;;;;;;;;;;;;38.792843;-12.974181;-111.564224;;1776.9
1933.0;1842.4;;;;;;;;;;;;;;-0.7953734;-0.3602405;-0.120548114;;;;;1776.9
1933.0;1842.4;;;;;;;;;;;;;;;;;41.592915;-15.091403;-110.72878;;1776.9
1933.0;1842.4;;;;;;;;;;;;;;-0.79280984;-0.3190405;-0.111087374;;;;;1776.9
1933.0;1842.4;;;;;;;;;;;;;;;;;45.37721;-18.898588;-109.68352;;1786.6
1933.0;1842.4;;;;;;;;;;;;;;-0.73787653;-0.26691487;-0.12555315;;;;;1786.6
1933.0;1842.4;;;;;;;;;;;;;;;;;50.6798;-20.825068;-107.96304;;1786.6
1933.0;1842.4;;;;;;;;;;;;;;-0.69179356;-0.22797327;-0.12738426;;;;;1786.6
1933.0;1844.0;262143;262143;12913;;;;;;;;;;;;;;;;;;
1933.0;1845.3;;;;;;;;;;-57.992798;-1.9531846;20.15366;;;;;;;;;
1933.0;1845.3;;;;;;;0.6217841;0.11767937;-0.43519396;;;;;;;;;;;;
1933.0;1845.3;;;;;;;;;;-57.378613;-2.887814;20.210882;;;;;;;;;
1933.0;1845.3;;;;;;;0.6154973;0.11603137;-0.42609942;;;;;;;;;;;;
1933.0;1849.9;;;;;;;;;;;;;1536;;;;;;;;
1933.0;1849.9;;;;;;;;;;;;;1970;;;;;;;;
1933.0;1849.9;;;;;;;;;;;;;2210;;;;;;;;
1933.0;1849.9;;;;;;;;;;;;;2480;;;;;;;;
1933.0;1849.9;;;;;;;;;;;;;2591;;;;;;;;
1934.0;1850.7;;;;-0.67023474;-0.1222191;-0.22674182;;;;;;;;;;;;;;;
1934.0;1850.7;;;;-0.67478186;-0.12385179;-0.2253342;;;;;;;;;;;;;;;
1934.0;1850.7;;;;-0.6783486;-0.12498094;-0.2282677;;;;;;;;;;;;;;;
1934.0;1850.7;;;;-0.6825486;-0.12563325;-0.23204806;;;;;;;;;;;;;;;
1934.0;1850.7;;;;-0.68752676;-0.1267357;-0.23323825;;;;;;;;;;;;;;;
1934.0;1854.8;;;;;;;;;;-56.699574;-3.6736658;20.825068;;;;;;;;;
1934.0;1854.8;;;;;;;0.60847807;0.11346782;-0.41334268;;;;;;;;;;;;
1934.0;1854.8;;;;;;;;;;-56.127354;-4.3221836;21.584217;;;;;;;;;
1934.0;1854.8;;;;;;;0.605121;0.11291849;-0.40180668;;;;;;;;;;;;
1934.0;1860.7;;;;-0.69427496;-0.12760164;-0.23173907;;;;;;;;;;;;;;;
1934.0;1860.7;;;;-0.70013815;-0.12885667;-0.22888187;;;;;;;;;;;;;;;
1934.0;1860.7;;;;-0.7060967;-0.1296158;-0.22600177;;;;;;;;;;;;;;;
1934.0;1860.7;;;;-0.7120858;-0.1304741;-0.22447208;;;;;;;;;;;;;;;
1934.0;1860.7;;;;-0.71801764;-0.13173296;-0.22274783;;;;;;;;;;;;;;;
1934.0;1864.3;;;;;;;;;;-55.516983;-5.4246655;22.137363;;;;;;;;;
1934.0;1864.3;;;;;;;0.600177;0.111880854;-0.39051485;;;;;;;;;;;;
1934.0;1864.3;;;;;;;;;;-54.857018;-6.65685;22.534103;;;;;;;;;
1934.0;1864.3;;;;;;;0.59364605;0.109195225;-0.38172552;;;;;;;;;;;;
1934.0;1864.1;262143;262143;12915;;;;;;;;;;;;;;;;;;
1986.0;1870.8;;;;-0.7255555;-0.13378908;-0.22066501;;;;;;;;;;;;;;;
1986.0;1870.8;;;;-0.73353964;-0.13537599;-0.21927646;;;;;;;;;;;;;;;
1986.0;1870.8;;;;-0.739647;-0.1375084;-0.21805194;;;;;;;;;;;;;;;
1986.0;1870.8;;;;-0.7448426;-0.13956453;-0.21681598;;;;;;;;;;;;;;;
1986.0;1870.8;;;;-0.7505952;-0.14133836;-0.21533206;;;;;;;;;;;;;;;
1986.0;1873.8;;;;;;;;;;-54.250465;-7.8394423;23.091066;;;;;;;;;
1986.0;1873.8;;;;;;;0.58571124;0.10669271;-0.374279;;;;;;;;;;;;
1986.0;1873.8;;;;;;;;;;-53.708763;-9.437849;23.6404;;;;;;;;;
1986.0;1873.8;;;;;;;0.58424634;0.10541093;-0.36725974;;;;;;;;;;;;
1986.0;1880.6;;;;-0.75476086;-0.1431656;-0.21610644;;;;;;;;;;;;;;;
1986.0;1880.6;;;;-0.76015484;-0.1441269;-0.21770862;;;;;;;;;;;;;;;
1986.0;1880.6;;;;-0.7670671;-0.14489748;-0.21844104;;;;;;;;;;;;;;;
1986.0;1880.6;;;;-0.77523816;-0.14617158;-0.21960834;;;;;;;;;;;;;;;
1986.0;1880.6;;;;-0.78263485;-0.14651872;-0.2206383;;;;;;;;;;;;;;;
1986.0;1883.3;;;;;;;;;;-53.1518;-11.45207;24.262217;;;;;;;;;
1986.0;1883.3;;;;;;;0.59132665;0.101626635;-0.36262092;;;;;;;;;;;;
1986.0;1883.3;;;;;;;;;;-52.74743;-13.599812;25.048065;;;;;;;;;
1986.0;1883.3;;;;;;;0.5835139;0.098941006;-0.35987428;;;;;;;;;;;;
1986.0;1884.0;262143;262143;12911;;;;;;;;;;;;;;;;;;
1986.0;1890.0;;;;;;;;;;;;;2620;;;;;;;;
1986.0;1890.0;;;;;;;;;;;;;3096;;;;;;;;
1986.0;1890.0;;;;;;;;;;;;;4824;;;;;;;;
1986.0;1890.0;;;;;;;;;;;;;7171;;;;;;;;
1986.0;1890.0;;;;;;;;;;;;;4558;;;;;;;;
1988.0;1890.8;;;;-0.78917706;-0.14712526;-0.2231293;;;;;;;;;;;;;;;
1988.0;1890.8;;;;-0.7959138;-0.14800264;-0.22620776;;;;;;;;;;;;;;;
1988.0;1890.8;;;;-0.80334866;-0.1485634;-0.22952273;;;;;;;;;;;;;;;
1988.0;1890.8;;;;-0.8108407;-0.14976121;-0.2330971;;;;;;;;;;;;;;;
1988.0;1890.8;;;;-0.8176652;-0.14969255;-0.23492435;;;;;;;;;;;;;;;
1988.0;1892.9;;;;;;;;;;-52.068394;-16.06418;25.77288;;;;;;;;;
1988.0;1892.9;;;;;;;0.5838191;0.097598195;-0.35157323;;;;;;;;;;;;
1988.0;1892.9;;;;;;;;;;-51.48854;-18.246254;26.306955;;;;;;;;;
1988.0;1892.9;;;;;;;0.5926084;0.098025456;-0.34815517;;;;;;;;;;;;
1988.0;1900.9;;;;-0.82374585;-0.14980699;-0.23753741;;;;;;;;;;;;;;;
1988.0;1900.9;;;;-0.8301126;-0.15006639;-0.23983386;;;;;;;;;;;;;;;
1988.0;1900.9;;;;-0.8353311;-0.15021516;-0.2418442;;;;;;;;;;;;;;;
1988.0;1900.9;;;;-0.83848965;-0.14994432;-0.24407199;;;;;;;;;;;;;;;
1988.0;1900.9;;;;-0.84328854;-0.15029146;-0.24748614;;;;;;;;;;;;;;;
1989.0;1901.4;;;;;;;;;;;;;;;;;55.730614;-21.557512;-105.42238;;1796.2
1989.0;1901.4;;;;;;;;;;;;;;-0.6598102;-0.24207282;-0.12518692;;;;;1796.2
1989.0;1901.4;;;;;;;;;;;;;;;;;61.178165;-22.328104;-102.65282;;1796.2
1989.0;1901.4;;;;;;;;;;;;;;-0.62105167;-0.24524674;-0.115543075;;;;;1796.2
1989.0;1901.4;;;;;;;;;;;;;;;;;65.80173;-22.41203;-100.14267;;1805.8
1989.0;1901.4;;;;;;;;;;;;;;-0.5851009;-0.2252266;-0.09161656;;;;;1805.8
1989.0;1901.4;;;;;;;;;;;;;;;;;69.0672;-21.378216;-97.5982;;1805.8
1989.0;1901.4;;;;;;;;;;;;;;-0.56862086;-0.24433118;-0.07574694;;;;;1805.8
1989.0;1901.4;;;;;;;;;;;;;;;;;71.371346;-20.458845;-95.32456;;1815.5
1989.0;1901.4;;;;;;;;;;;;;;-0.5582446;-0.23841059;-0.04504532;;;;;1815.5
1989.0;1901.4;;;;;;;;;;;;;;;;;72.20298;-20.283363;-93.691826;;1815.5
1989.0;1901.4;;;;;;;;;;;;;;-0.5451216;-0.23688467;-0.020752586;;;;;1815.5
1989.0;1902.2;;;;;;;;;;;;;;;;;71.56972;-20.023956;-92.41005;;1825.1
1989.0;1902.2;;;;;;;;;;;;;;-0.5361492;-0.26178777;-0.010315256;;;;;1825.1
1989.0;1902.2;;;;;;;;;;;;;;;;;70.81057;-20.233772;-90.75442;;1825.1
1989.0;1902.2;;;;;;;;;;;;;;-0.5361492;-0.27118748;0.013672292;;;;;1825.1
1989.0;1902.2;;;;;;;;;;;;;;;;;69.36094;-20.607624;-89.30097;;1834.7
1989.0;1902.2;;;;;;;;;;;;;;-0.53675956;-0.29255044;0.029663991;;;;;1834.7
1989.0;1902.2;;;;;;;;;;;;;;;;;68.10968;-20.714437;-87.87424;;1834.7
1989.0;1902.2;;;;;;;;;;;;;;-0.5481735;-0.29950866;0.04327525;;;;;1834.7
1989.0;1902.2;;;;;;;;;;;;;;;;;67.09113;-20.920439;-85.875275;;1844.4
1989.0;1902.2;;;;;;;;;;;;;;-0.55653554;-0.32459486;0.038636435;;;;;1844.4
1989.0;1902.2;;;;;;;;;;;;;;;;;67.339096;-20.607624;-83.02942;;1844.4
1989.0;1902.2;;;;;;;;;;;;;;-0.5755791;-0.31745353;0.03381451;;;;;1844.4
1990.0;1902.4;;;;;;;;;;-51.12232;-20.15366;26.600697;;;;;;;;;
1990.0;1902.4;;;;;;;0.60499895;0.09741508;-0.34351635;;;;;;;;;;;;
1990.0;1902.4;;;;;;;;;;-50.763725;-21.519365;27.291178;;;;;;;;;
1990.0;1902.4;;;;;;;0.619953;0.09521775;-0.33710745;;;;;;;;;;;;
1990.0;1904.2;262143;262143;12914;;;;;;;;;;;;;;;;;;
1990.0;1910.8;;;;-0.84951794;-0.15012361;-0.25086215;;;;;;;;;;;;;;;
1990.0;1910.8;;;;-0.8578721;-0.15053941;-0.25447467;;;;;;;;;;;;;;;
1990.0;1910.8;;;;-0.8659059;-0.15059663;-0.2587662;;;;;;;;;;;;;;;
1990.0;1910.8;;;;-0.8748628;-0.15032579;-0.2623749;;;;;;;;;;;;;;;
1990.0;1910.8;;;;-0.8836137;-0.15010454;-0.26609805;;;;;;;;;;;;;;;
1990.0;1912.1;;;;;;;;;;-50.366985;-22.366251;28.45851;;;;;;;;;
1990.0;1912.1;;;;;;;0.63002414;0.0921659;-0.33179724;;;;;;;;;;;;
1990.0;1912.1;;;;;;;;;;-49.92065;-22.862179;29.087955;;;;;;;;;
1990.0;1912.1;;;;;;;0.6460158;0.09131138;-0.33344522;;;;;;;;;;;;
1990.0;1920.9;;;;-0.89023983;-0.14976503;-0.26903537;;;;;;;;;;;;;;;
1990.0;1920.9;;;;-0.89553845;-0.14919282;-0.2718964;;;;;;;;;;;;;;;
1990.0;1920.9;;;;-0.9005281;-0.14818574;-0.2747803;;;;;;;;;;;;;;;
1990.0;1920.9;;;;-0.9051591;-0.14717866;-0.27785113;;;;;;;;;;;;;;;
1990.0;1920.9;;;;-0.9099046;-0.14623262;-0.2811089;;;;;;;;;;;;;;;
1990.0;1921.6;;;;;;;;;;-49.710835;-22.873623;29.557177;;;;;;;;;
1990.0;1921.6;;;;;;;0.66402173;0.09210486;-0.33472702;;;;;;;;;;;;
1990.0;1921.6;;;;;;;;;;-49.46669;-22.797327;30.08362;;;;;;;;;
1990.0;1921.6;;;;;;;0.67842644;0.09033479;-0.33698538;;;;;;;;;;;;
2047.0;1924.4;262143;262143;12916;;;;;;;;;;;;;;;;;;
2047.0;1930.3;;;;;;;;;;;;;-7868;;;;;;;;
2047.0;1930.3;;;;;;;;;;;;;-23501;;;;;;;;
2047.0;1930.3;;;;;;;;;;;;;-28683;;;;;;;;
2047.0;1930.3;;;;;;;;;;;;;-18589;;;;;;;;
2047.0;1930.3;;;;;;;;;;;;;-3001;;;;;;;;
2047.0;1930.9;;;;-0.9138986;-0.14517595;-0.28532794;;;;;;;;;;;;;;;
2047.0;1930.9;;;;-0.91801465;-0.14404298;-0.29027942;;;;;;;;;;;;;;;
2047.0;1930.9;;;;-0.9244882;-0.1431923;-0.2947617;;;;;;;;;;;;;;;
2047.0;1930.9;;;;-0.93335354;-0.14196016;-0.29991534;;;;;;;;;;;;;;;
2047.0;1930.9;;;;-0.9421998;-0.14060594;-0.30624774;;;;;;;;;;;;;;;
2047.0;1931.1;;;;;;;;;;-49.19584;-22.6104;30.514694;;;;;;;;;
2047.0;1931.1;;;;;;;0.6920377;0.08856472;-0.3394879;;;;;;;;;;;;
2047.0;1931.1;;;;;;;;;;-48.921173;-22.583696;31.037325;;;;;;;;;
2047.0;1931.1;;;;;;;0.7041841;0.087588124;-0.34052554;;;;;;;;;;;;
2047.0;1940.6;;;;;;;;;;-48.677025;-22.511215;31.567585;;;;;;;;;
2047.0;1940.6;;;;;;;0.72170174;0.08398694;-0.3439436;;;;;;;;;;;;
2047.0;1940.6;;;;;;;;;;-48.394726;-22.52266;32.116917;;;;;;;;;
2047.0;1940.6;;;;;;;0.7383038;0.08307138;-0.34778893;;;;;;;;;;;;
2047.0;1940.8;;;;-0.94954693;-0.13969804;-0.3129883;;;;;;;;;;;;;;;
2047.0;1940.8;;;;-0.9553224;-0.13843156;-0.314518;;;;;;;;;;;;;;;
2047.0;1940.8;;;;-0.95996106;-0.13724138;-0.32045367;;;;;;;;;;;;;;;
2047.0;1940.8;;;;-0.96458066;-0.13628389;-0.32530215;;;;;;;;;;;;;;;
2047.0;1940.8;;;;-0.9693605;-0.13496019;-0.33034518;;;;;;;;;;;;;;;
2047.0;1944.4;262143;262143;12906;;;;;;;;;;;;;;;;;;
2050.0;1950.2;;;;;;;;;;-48.074284;-22.438734;32.719658;;;;;;;;;
2050.0;1950.2;;;;;;;0.75557727;0.083010346;-0.35108495;;;;;;;;;;;;
2050.0;1950.2;;;;;;;;;;-47.71569;-22.003847;33.173622;;;;;;;;;
2050.0;1950.2;;;;;;;0.77205724;0.08404797;-0.35749382;;;;;;;;;;;;
2050.0;1950.9;;;;-0.9750825;-0.13393022;-0.3358765;;;;;;;;;;;;;;;
2050.0;1950.9;;;;-0.98105633;-0.1335335;-0.3411713;;;;;;;;;;;;;;;
2050.0;1950.9;;;;-0.9857713;-0.13309099;-0.345089;;;;;;;;;;;;;;;
2050.0;1950.9;;;;-0.9909135;-0.13282014;-0.34907153;;;;;;;;;;;;;;;
2050.0;1950.9;;;;-0.99561703;-0.13222124;-0.35462192;;;;;;;;;;;;;;;
2050.0;1959.8;;;;;;;;;;-47.532578;-21.519365;33.570362;;;;;;;;;
2050.0;1959.8;;;;;;;0.7943358;0.08429212;-0.36750388;;;;;;;;;;;;
2050.0;1959.8;;;;;;;;;;-47.338024;-20.77166;33.925137;;;;;;;;;
2050.0;1959.8;;;;;;;0.81411177;0.08337657;-0.37604907;;;;;;;;;;;;
2050.0;1961.0;;;;-0.99806607;-0.13124849;-0.35991672;;;;;;;;;;;;;;;
2050.0;1961.0;;;;-0.99889386;-0.1298485;-0.36397555;;;;;;;;;;;;;;;
2050.0;1961.0;;;;-1.0000268;-0.12824632;-0.3680077;;;;;;;;;;;;;;;
2050.0;1961.0;;;;-1.0000077;-0.12691118;-0.37438205;;;;;;;;;;;;;;;
2050.0;1961.0;;;;-1.0003053;-0.12553789;-0.37819678;;;;;;;;;;;;;;;
2052.0;1962.1;;;;;;;;;;;;;;;;;67.36961;-20.38255;-79.653305;;1854.0
2052.0;1962.1;;;;;;;;;;;;;;-0.5965758;-0.35065767;0.026184881;;;;;1854.0
2052.0;1962.1;;;;;;;;;;;;;;;;;67.65191;-20.004883;-76.078835;;1854.0
2052.0;1962.1;;;;;;;;;;;;;;-0.6088443;-0.36994538;0.010071108;;;;;1854.0
2052.0;1962.1;;;;;;;;;;;;;;;;;68.36909;-19.3907;-72.29453;;1863.6
2052.0;1962.1;;;;;;;;;;;;;;-0.62910855;-0.3806879;-0.003906369;;;;;1863.6
2052.0;1962.1;;;;;;;;;;;;;;;;;68.85357;-18.906218;-68.03339;;1863.6
2052.0;1962.1;;;;;;;;;;;;;;-0.6443068;-0.3922239;-0.019714957;;;;;1863.6
2052.0;1962.1;;;;;;;;;;;;;;;;;69.006165;-18.4637;-63.482315;;1873.4
2052.0;1962.1;;;;;;;;;;;;;;-0.6559038;-0.3947264;-0.0336314;;;;;1873.4
2052.0;1962.1;;;;;;;;;;;;;;;;;68.09442;-18.20429;-59.129612;;1873.4
2052.0;1962.1;;;;;;;;;;;;;;-0.64772487;-0.37055573;-0.052491836;;;;;1873.4
2052.0;1962.9;;;;;;;;;;;;;;;;;65.65295;-17.220068;-54.8265;;1883.0
2052.0;1962.9;;;;;;;;;;;;;;-0.6511429;-0.35700554;-0.063417464;;;;;1883.0
2052.0;1962.9;;;;;;;;;;;;;;;;;61.899166;-15.915403;-50.740837;;1883.0
2052.0;1962.9;;;;;;;;;;;;;;-0.6600543;-0.3353984;-0.057924133;;;;;1883.0
2052.0;1962.9;;;;;;;;;;;;;;;;;57.279427;-14.526811;-46.475876;;1892.7
2052.0;1962.9;;;;;;;;;;;;;;-0.659505;-0.3292947;-0.04870754;;;;;1892.7
2052.0;1962.9;;;;;;;;;;;;;;;;;52.014984;-12.752922;-41.47847;;1892.7
2052.0;1962.9;;;;;;;;;;;;;;-0.6588946;-0.32044435;-0.03424177;;;;;1892.7
2052.0;1962.9;;;;;;;;;;;;;;;;;47.34947;-11.314737;-36.439102;;1902.3
2052.0;1962.9;;;;;;;;;;;;;;-0.6425367;-0.31299785;-0.011169774;;;;;1902.3
2052.0;1962.9;;;;;;;;;;;;;;;;;43.122654;-9.704886;-31.395916;;1902.3
2052.0;1962.9;;;;;;;;;;;;;;-0.61885434;-0.29804376;0.019531846;;;;;1902.3
2054.0;1964.5;262143;262143;12903;;;;;;;;;;;;;;;;;;
2054.0;1969.3;;;;;;;;;;-47.15491;-19.966734;34.081543;;;;;;;;;
2054.0;1969.3;;;;;;;0.83352154;0.083010346;-0.38044375;;;;;;;;;;;;
2054.0;1969.3;;;;;;;;;;-47.029022;-19.13129;34.28373;;;;;;;;;
2054.0;1969.3;;;;;;;0.8489639;0.08307138;-0.3876461;;;;;;;;;;;;
2054.0;1970.4;;;;;;;;;;;;;5503;;;;;;;;
2054.0;1970.4;;;;;;;;;;;;;5048;;;;;;;;
2054.0;1970.4;;;;;;;;;;;;;2686;;;;;;;;
2054.0;1970.4;;;;;;;;;;;;;2617;;;;;;;;
2054.0;1970.4;;;;;;;;;;;;;2928;;;;;;;;
2054.0;1971.0;;;;-0.99992;-0.12398912;-0.38258368;;;;;;;;;;;;;;;
2054.0;1971.0;;;;-1.0015336;-0.12264253;-0.38462073;;;;;;;;;;;;;;;
2054.0;1971.0;;;;-1.0070535;-0.121913925;-0.38941962;;;;;;;;;;;;;;;
2054.0;1971.0;;;;-1.0110093;-0.121604934;-0.39583212;;;;;;;;;;;;;;;
2054.0;1971.0;;;;-1.0114328;-0.121662155;-0.39624792;;;;;;;;;;;;;;;
2054.0;1978.8;;;;;;;;;;-46.7658;-18.34544;34.56221;;;;;;;;;
2054.0;1978.8;;;;;;;0.86288035;0.0839259;-0.39551988;;;;;;;;;;;;
2054.0;1978.8;;;;;;;;;;-46.41865;-17.647327;34.844505;;;;;;;;;
2054.0;1978.8;;;;;;;0.8768578;0.08319346;-0.40797144;;;;;;;;;;;;
2054.0;1981.0;;;;-1.0104371;-0.12138368;-0.39882666;;;;;;;;;;;;;;;
2054.0;1981.0;;;;-1.0109063;-0.1201172;-0.39852148;;;;;;;;;;;;;;;
2054.0;1981.0;;;;-1.0160447;-0.11822511;-0.40272146;;;;;;;;;;;;;;;
2054.0;1981.0;;;;-1.0227395;-0.115726486;-0.40517813;;;;;;;;;;;;;;;
2054.0;1981.0;;;;-1.0282823;-0.11344911;-0.40603644;;;;;;;;;;;;;;;
2054.0;1984.7;262143;262143;12900;;;;;;;;;;;;;;;;;;
2107.0;1988.5;;;;;;;;;;-46.079132;-17.090364;35.153507;;;;;;;;;
2107.0;1988.5;;;;;;;0.8910184;0.085024565;-0.41712698;;;;;;;;;;;;
2107.0;1988.5;;;;;;;;;;-45.762505;-16.769922;35.466324;;;;;;;;;
2107.0;1988.5;;;;;;;0.90395826;0.08783227;-0.42493972;;;;;;;;;;;;
2107.0;1991.1;;;;-1.0312539;-0.11178972;-0.40479285;;;;;;;;;;;;;;;
2107.0;1991.1;;;;-1.030922;-0.11065675;-0.4031487;;;;;;;;;;;;;;;
2107.0;1991.1;;;;-1.0297738;-0.11009981;-0.40334326;;;;;;;;;;;;;;;
2107.0;1991.1;;;;-1.0299608;-0.110115066;-0.40328985;;;;;;;;;;;;;;;
2107.0;1991.1;;;;-1.032055;-0.11130525;-0.40362555;;;;;;;;;;;;;;;
2107.0;1997.7;;;;;;;;;;-45.25895;-16.41133;35.889767;;;;;;;;;
2107.0;1997.7;;;;;;;0.91152686;0.08496353;-0.43098238;;;;;;;;;;;;
2107.0;1997.7;;;;;;;;;;-44.591354;-16.365551;36.450546;;;;;;;;;
2107.0;1997.7;;;;;;;0.92605364;0.08343761;-0.435255;;;;;;;;;;;;
2107.0;2000.8;;;;-1.035103;-0.113166824;-0.404831;;;;;;;;;;;;;;;
2107.0;2000.8;;;;-1.0404588;-0.11551286;-0.405922;;;;;;;;;;;;;;;
2107.0;2000.8;;;;-1.0469095;-0.118351;-0.40796286;;;;;;;;;;;;;;;
2107.0;2000.8;;;;-1.0532304;-0.11996843;-0.41008383;;;;;;;;;;;;;;;
2107.0;2000.8;;;;-1.0589219;-0.12034227;-0.40995795;;;;;;;;;;;;;;;
2107.0;2004.6;262143;262143;12895;;;;;;;;;;;;;;;;;;
2107.0;2007.3;;;;;;;;;;-43.813137;-16.548662;37.171547;;;;;;;;;
2107.0;2007.3;;;;;;;0.9433271;0.08349864;-0.4390393;;;;;;;;;;;;
2107.0;2007.3;;;;;;;;;;-42.828915;-16.949217;37.4691;;;;;;;;;
2107.0;2007.3;;;;;;;0.9679251;0.078554645;-0.44196907;;;;;;;;;;;;
2111.0;2010.5;;;;;;;;;;;;;2636;;;;;;;;
2111.0;2010.5;;;;;;;;;;;;;2666;;;;;;;;
2111.0;2010.5;;;;;;;;;;;;;2833;;;;;;;;
2111.0;2010.5;;;;;;;;;;;;;2831;;;;;;;;
2111.0;2010.5;;;;;;;;;;;;;2545;;;;;;;;
2111.0;2011.0;;;;-1.0646745;-0.11991502;-0.4088822;;;;;;;;;;;;;;;
2111.0;2011.0;;;;-1.0711709;-0.119785324;-0.40873343;;;;;;;;;;;;;;;
2111.0;2011.0;;;;-1.0779077;-0.120006576;-0.40845877;;;;;;;;;;;;;;;
2111.0;2011.0;;;;-1.0849344;-0.1199875;-0.40684515;;;;;;;;;;;;;;;
2111.0;2011.0;;;;-1.0914537;-0.11890413;-0.40655524;;;;;;;;;;;;;;;
2111.0;2017.0;;;;;;;;;;-41.753136;-17.742699;37.732323;;;;;;;;;
2111.0;2017.0;;;;;;;0.9938658;0.07293924;-0.4439833;;;;;;;;;;;;
2111.0;2017.0;;;;;;;;;;-40.53621;-18.681143;38.266396;;;;;;;;;
2111.0;2017.0;;;;;;;1.0198675;0.064210944;-0.45008698;;;;;;;;;;;;
2111.0;2021.0;;;;-1.0974504;-0.11539842;-0.40471274;;;;;;;;;;;;;;;
2111.0;2021.0;;;;-1.1050302;-0.110496536;-0.40681845;;;;;;;;;;;;;;;
2111.0;2021.0;;;;-1.1074296;-0.10251619;-0.40949255;;;;;;;;;;;;;;;
2111.0;2021.0;;;;-1.1017381;-0.09009553;-0.39583594;;;;;;;;;;;;;;;
2111.0;2021.0;;;;-1.0882493;-0.08123017;-0.3834496;;;;;;;;;;;;;;;
2113.0;2021.9;;;;;;;;;;;;;;;;;38.880585;-8.255258;-26.203955;;1912.0
2113.0;2021.9;;;;;;;;;;;;;;-0.5863216;-0.29328287;0.05444502;;;;;1912.0
2113.0;2021.9;;;;;;;;;;;;;;;;;35.096287;-6.672109;-20.706808;;1912.0
2113.0;2021.9;;;;;;;;;;;;;;-0.5454878;-0.29291666;0.08844264;;;;;1912.0
2113.0;2021.9;;;;;;;;;;;;;;;;;31.338696;-4.9668875;-15.095218;;1921.6
2113.0;2021.9;;;;;;;;;;;;;;-0.50410473;-0.3140965;0.11316264;;;;;1921.6
2113.0;2021.9;;;;;;;;;;;;;;;;;27.977842;-3.0671103;-9.472182;;1921.6
2113.0;2021.9;;;;;;;;;;;;;;-0.4671163;-0.3432722;0.13055818;;;;;1921.6
2113.0;2021.9;;;;;;;;;;;;;;;;;24.47203;-1.3237404;-3.913999;;1931.2
2113.0;2021.9;;;;;;;;;;;;;;-0.44288462;-0.37617114;0.14148381;;;;;1931.2
2113.0;2021.9;;;;;;;;;;;;;;;;;20.474104;0.37385175;1.5793328;;1931.2
2113.0;2021.9;;;;;;;;;;;;;;-0.42023987;-0.41279337;0.1380047;;;;;1931.2
2113.0;2022.7;;;;;;;;;;;;;;;;;15.67507;3.6164434;6.8475904;;1940.9
2113.0;2022.7;;;;;;;;;;;;;;-0.40980256;-0.46156195;0.1267739;;;;;1940.9
2113.0;2022.7;;;;;;;;;;;;;;;;;10.170293;6.672109;11.432997;;1940.9
2113.0;2022.7;;;;;;;;;;;;;;-0.42847988;-0.5146642;0.10693686;;;;;1940.9
2113.0;2022.7;;;;;;;;;;;;;;;;;3.0594807;7.57622;15.507217;;1950.6
2113.0;2022.7;;;;;;;;;;;;;;-0.44111454;-0.5664846;0.08752709;;;;;1950.6
2113.0;2022.7;;;;;;;;;;;;;;;;;-6.3554797;8.285776;18.868069;;1950.6
2113.0;2022.7;;;;;;;;;;;;;;-0.42957854;-0.6227607;0.047669914;;;;;1950.6
2113.0;2022.7;;;;;;;;;;;;;;;;;-16.788996;9.586627;21.542253;;1960.2
2113.0;2022.7;;;;;;;;;;;;;;-0.42585528;-0.70003355;0.0081179235;;;;;1960.2
2113.0;2022.7;;;;;;;;;;;;;;;;;-28.157139;11.211737;24.056215;;1960.2
2113.0;2022.7;;;;;;;;;;;;;;-0.4245735;-0.77205724;-0.04773095;;;;;1960.2
2115.0;2024.7;262143;262143;12892;;;;;;;;;;;;;;;;;;
2115.0;2026.5;;;;;;;;;;-39.193394;-19.077885;38.7814;;;;;;;;;
2115.0;2026.5;;;;;;;1.0530717;0.053590503;-0.46113467;;;;;;;;;;;;
2115.0;2026.5;;;;;;;;;;-37.8811;-18.925291;39.12091;;;;;;;;;
2115.0;2026.5;;;;;;;1.0825526;0.044618063;-0.47102267;;;;;;;;;;;;
2115.0;2031.0;;;;-1.0770608;-0.08238984;-0.37585455;;;;;;;;;;;;;;;
2115.0;2031.0;;;;-1.0887986;-0.09650041;-0.37236026;;;;;;;;;;;;;;;
2115.0;2031.0;;;;-1.1223527;-0.12420274;-0.37436298;;;;;;;;;;;;;;;
2115.0;2031.0;;;;-1.1544572;-0.15826036;-0.388691;;;;;;;;;;;;;;;
2115.0;2031.0;;;;-1.1695443;-0.18598177;-0.40453726;;;;;;;;;;;;;;;
2115.0;2036.1;;;;;;;;;;-36.473434;-18.417921;39.35743;;;;;;;;;
2115.0;2036.1;;;;;;;1.1051973;0.036439102;-0.48103276;;;;;;;;;;;;
2115.0;2036.1;;;;;;;;;;-35.000916;-17.93344;39.757988;;;;;;;;;
2115.0;2036.1;;;;;;;1.1255836;0.025025178;-0.486404;;;;;;;;;;;;
2115.0;2041.0;;;;-1.1647531;-0.19853976;-0.41348273;;;;;;;;;;;;;;;
2115.0;2041.0;;;;-1.145691;-0.19306186;-0.41581732;;;;;;;;;;;;;;;
2115.0;2041.0;;;;-1.1251336;-0.17693712;-0.413868;;;;;;;;;;;;;;;
2115.0;2041.0;;;;-1.1111909;-0.15986635;-0.4111405;;;;;;;;;;;;;;;
2115.0;2041.0;;;;-1.105385;-0.14902116;-0.40879828;;;;;;;;;;;;;;;
2115.0;2044.9;262143;262143;12892;;;;;;;;;;;;;;;;;;
2166.0;2045.6;;;;;;;;;;-33.574177;-17.231512;40.025024;;;;;;;;;
2166.0;2045.6;;;;;;;1.1498764;0.009277627;-0.5000763;;;;;;;;;;;;
2166.0;2045.6;;;;;;;;;;-32.0864;-15.98407;40.017395;;;;;;;;;
2166.0;2045.6;;;;;;;1.1794794;-0.006286813;-0.50904876;;;;;;;;;;;;
2166.0;2050.6;;;;;;;;;;;;;1832;;;;;;;;
2166.0;2050.6;;;;;;;;;;;;;1045;;;;;;;;
2166.0;2050.6;;;;;;;;;;;;;580;;;;;;;;
2166.0;2050.6;;;;;;;;;;;;;484;;;;;;;;
2166.0;2050.6;;;;;;;;;;;;;596;;;;;;;;
2166.0;2051.0;;;;-1.1052972;-0.14734651;-0.41050726;;;;;;;;;;;;;;;
2166.0;2051.0;;;;-1.1095353;-0.15407945;-0.41487128;;;;;;;;;;;;;;;
2166.0;2051.0;;;;-1.1158563;-0.1661606;-0.42194372;;;;;;;;;;;;;;;
2166.0;2051.0;;;;-1.1221124;-0.17919542;-0.42969137;;;;;;;;;;;;;;;
2166.0;2051.0;;;;-1.1257783;-0.19058612;-0.43845373;;;;;;;;;;;;;;;
2166.0;2054.9;;;;;;;;;;-30.358286;-14.7633295;39.67406;;;;;;;;;
2166.0;2054.9;;;;;;;1.2010864;-0.021973327;-0.5132603;;;;;;;;;;;;
2166.0;2054.9;;;;;;;;;;-28.721733;-13.698996;39.52147;;;;;;;;;
2166.0;2054.9;;;;;;;1.2080446;-0.032044437;-0.51368755;;;;;;;;;;;;
2166.0;2060.9;;;;-1.1287919;-0.19866565;-0.44824988;;;;;;;;;;;;;;;
2166.0;2060.9;;;;-1.1313821;-0.20326999;-0.45791632;;;;;;;;;;;;;;;
2166.0;2060.9;;;;-1.1327134;-0.2053757;-0.46512228;;;;;;;;;;;;;;;
2166.0;2060.9;;;;-1.133957;-0.20687869;-0.47217566;;;;;;;;;;;;;;;
2166.0;2060.9;;;;-1.1346246;-0.20833972;-0.48083502;;;;;;;;;;;;;;;
2166.0;2064.5;;;;;;;;;;-27.2454;-12.607959;39.338356;;;;;;;;;
2166.0;2064.5;;;;;;;1.2046876;-0.04242073;-0.5139927;;;;;;;;;;;;
2166.0;2064.5;;;;;;;;;;-25.669882;-11.295663;39.10565;;;;;;;;;
2166.0;2064.5;;;;;;;1.2021852;-0.054200873;-0.5101474;;;;;;;;;;;;
2169.0;2064.8;262143;262143;12888;;;;;;;;;;;;;;;;;;
2169.0;2071.0;;;;-1.1353265;-0.20991519;-0.48842245;;;;;;;;;;;;;;;
2169.0;2071.0;;;;-1.1372949;-0.2113953;-0.4933167;;;;;;;;;;;;;;;
2169.0;2071.0;;;;-1.1373178;-0.21257785;-0.49405676;;;;;;;;;;;;;;;
2169.0;2071.0;;;;-1.1340867;-0.21383289;-0.50123984;;;;;;;;;;;;;;;
2169.0;2071.0;;;;-1.1350366;-0.2150307;-0.51367575;;;;;;;;;;;;;;;
2169.0;2074.1;;;;;;;;;;-24.010437;-10.158849;38.82336;;;;;;;;;
2169.0;2074.1;;;;;;;1.205176;-0.059144873;-0.5098422;;;;;;;;;;;;
2169.0;2074.1;;;;;;;;;;-22.446363;-9.250923;38.289288;;;;;;;;;
2169.0;2074.1;;;;;;;1.2078005;-0.05859554;-0.50843835;;;;;;;;;;;;
2169.0;2081.1;;;;-1.1447145;-0.21698764;-0.52465063;;;;;;;;;;;;;;;
2169.0;2081.1;;;;-1.1605111;-0.2197304;-0.5338784;;;;;;;;;;;;;;;
2169.0;2081.1;;;;-1.1769143;-0.22132114;-0.5436097;;;;;;;;;;;;;;;
2169.0;2081.1;;;;-1.188965;-0.22275928;-0.5545121;;;;;;;;;;;;;;;
2169.0;2081.1;;;;-1.1990396;-0.22314456;-0.5647698;;;;;;;;;;;;;;;
2170.0;2081.9;;;;;;;;;;;;;;;;;-39.780876;12.035737;27.283548;;1969.8
2170.0;2081.9;;;;;;;;;;;;;;-0.40339366;-0.8289437;-0.14484085;;;;;1969.8
2170.0;2081.9;;;;;;;;;;;;;;;;;-48.131504;13.939329;31.418804;;1969.8
2170.0;2081.9;;;;;;;;;;;;;;-0.38361767;-0.8663595;-0.22321238;;;;;1969.8
2170.0;2081.9;;;;;;;;;;;;;;;;;-51.301613;17.418438;36.347546;;1979.5
2170.0;2081.9;;;;;;;;;;;;;;-0.40797144;-0.87710196;-0.23706779;;;;;1979.5
2170.0;2081.9;;;;;;;;;;;;;;;;;-47.551655;20.012512;42.203285;;1979.5
2170.0;2081.9;;;;;;;;;;;;;;-0.45564136;-0.8427381;-0.15527818;;;;;1979.5
2170.0;2081.9;;;;;;;;;;;;;;;;;-36.14536;21.092106;49.09284;;1989.1
2170.0;2081.9;;;;;;;;;;;;;;-0.51118505;-0.7791986;0.045350507;;;;;1989.1
2170.0;2081.9;;;;;;;;;;;;;;;;;-20.638142;22.728659;56.421093;;1989.1
2170.0;2081.9;;;;;;;;;;;;;;-0.65523237;-0.7743156;0.3027436;;;;;1989.1
2170.0;2083.1;;;;;;;;;;;;;;;;;-9.975738;23.606068;60.31983;;1998.7
2170.0;2083.1;;;;;;;;;;;;;;-0.7928709;-0.8519547;0.41987365;;;;;1998.7
2170.0;2083.1;;;;;;;;;;;;;;;;;-5.031739;27.397991;60.129093;;1998.7
2170.0;2083.1;;;;;;;;;;;;;;-0.88949245;-0.9418622;0.49372846;;;;;1998.7
2170.0;2083.1;;;;;;;;;;;;;;;;;-5.901517;32.8074;61.075165;;2008.3
2170.0;2083.1;;;;;;;;;;;;;;-0.9913633;-1.0104679;0.4232917;;;;;2008.3
2170.0;2083.1;;;;;;;;;;;;;;;;;-9.094516;35.81347;64.42076;;2008.3
2170.0;2083.1;;;;;;;;;;;;;;-0.99343854;-1.046968;0.15015107;;;;;2008.3
2170.0;2083.1;;;;;;;;;;;;;;;;;-6.1418505;39.75036;67.63665;;2018.0
2170.0;2083.1;;;;;;;;;;;;;;-1.0291451;-1.0248725;0.119083226;;;;;2018.0
2170.0;2083.1;;;;;;;;;;;;;;;;;-5.7908874;46.685688;69.799644;;2018.0
2170.0;2083.1;;;;;;;;;;;;;;-1.1811883;-0.97024447;0.26880702;;;;;2018.0
2174.0;2083.5;;;;;;;;;;-20.886105;-8.140813;37.797176;;;;;;;;;
2174.0;2083.5;;;;;;;1.205176;-0.057924133;-0.50691247;;;;;;;;;;;;
2174.0;2083.5;;;;;;;;;;-19.268625;-6.992553;37.47673;;;;;;;;;
2174.0;2083.5;;;;;;;1.1996826;-0.05505539;-0.50483716;;;;;;;;;;;;
2174.0;2084.9;262143;262143;12876;;;;;;;;;;;;;;;;;;
2174.0;2090.6;;;;;;;;;;;;;609;;;;;;;;
2174.0;2090.6;;;;;;;;;;;;;211;;;;;;;;
2174.0;2090.6;;;;;;;;;;;;;-478;;;;;;;;
2174.0;2090.6;;;;;;;;;;;;;-1089;;;;;;;;
2174.0;2090.6;;;;;;;;;;;;;-1544;;;;;;;;
2174.0;2090.9;;;;-1.2094537;-0.22270206;-0.5779763;;;;;;;;;;;;;;;
2174.0;2090.9;;;;-1.21867;-0.22134021;-0.58920294;;;;;;;;;;;;;;;
2174.0;2090.9;;;;-1.2290231;-0.21922305;-0.5973931;;;;;;;;;;;;;;;
2174.0;2090.9;;;;-1.2426416;-0.21540835;-0.61077887;;;;;;;;;;;;;;;
2174.0;2090.9;;;;-1.2579957;-0.21144488;-0.62160116;;;;;;;;;;;;;;;
2174.0;2093.0;;;;;;;;;;-17.60918;-5.6955166;37.362286;;;;;;;;;
2174.0;2093.0;;;;;;;1.198645;-0.052308727;-0.50233465;;;;;;;;;;;;
2174.0;2093.0;;;;;;;;;;-16.090885;-4.238258;37.20588;;;;;;;;;
2174.0;2093.0;;;;;;;1.2014527;-0.051026948;-0.49971008;;;;;;;;;;;;
2176.0;2096.8;;;;;;;;;;;;;;;;;-10.387737;55.06302;73.98068;;2027.7
2176.0;2096.8;;;;;;;;;;;;;;-1.3036897;-0.8377941;0.098025456;;;;;2027.7
2176.0;2096.8;;;;;;;;;;;;;;;;;-15.884884;58.42006;80.973236;;2027.7
2176.0;2096.8;;;;;;;;;;;;;;-1.4044619;-0.66408277;-0.19873653;;;;;2027.7
2176.0;2096.8;;;;;;;;;;;;;;;;;-17.132328;49.27595;88.49605;;2037.3
2176.0;2096.8;;;;;;;;;;;;;;-1.4885708;-0.50038147;-0.18469802;;;;;2037.3
2176.0;2096.8;;;;;;;;;;;;;;;;;-21.984772;34.730064;95.01938;;2037.3
2176.0;2096.8;;;;;;;;;;;;;;-1.4745322;-0.38489944;-0.053407393;;;;;2037.3
2176.0;2096.8;;;;;;;;;;;;;;;;;-33.57799;30.644398;101.03534;;2046.9
2176.0;2096.8;;;;;;;;;;;;;;-1.444319;-0.2694174;0.03936888;;;;;2046.9
2176.0;2096.8;;;;;;;;;;;;;;;;;-49.584946;35.779137;104.51445;;2046.9
2176.0;2096.8;;;;;;;;;;;;;;-1.4058046;-0.23682363;-0.10541093;;;;;2046.9
2176.0;2100.8;;;;-1.2745477;-0.20829394;-0.63325506;;;;;;;;;;;;;;;
2176.0;2100.8;;;;-1.2912141;-0.20438388;-0.6453667;;;;;;;;;;;;;;;
2176.0;2100.8;;;;-1.3039018;-0.1988869;-0.65458685;;;;;;;;;;;;;;;
2176.0;2100.8;;;;-1.3138162;-0.19319156;-0.66263205;;;;;;;;;;;;;;;
2176.0;2100.8;;;;-1.3231126;-0.18748094;-0.6700936;;;;;;;;;;;;;;;
2176.0;2102.5;;;;;;;;;;-14.545885;-2.9793696;36.912136;;;;;;;;;
2176.0;2102.5;;;;;;;1.2049928;-0.048890654;-0.49794;;;;;;;;;;;;
2176.0;2102.5;;;;;;;;;;-12.68807;-1.903592;36.614582;;;;;;;;;
2176.0;2102.5;;;;;;;1.2013917;-0.0463271;-0.4934843;;;;;;;;;;;;
2176.0;2104.8;262143;262143;12870;;;;;;;;;;;;;;;;;;
2228.0;2110.8;;;;-1.3330079;-0.18210222;-0.6769791;;;;;;;;;;;;;;;
2228.0;2110.8;;;;-1.3424684;-0.177063;-0.68113714;;;;;;;;;;;;;;;
2228.0;2110.8;;;;-1.3499109;-0.17154695;-0.68274313;;;;;;;;;;;;;;;
2228.0;2110.8;;;;-1.3519021;-0.16651918;-0.684784;;;;;;;;;;;;;;;
2228.0;2110.8;;;;-1.3518564;-0.16118623;-0.68804175;;;;;;;;;;;;;;;
2228.0;2111.9;;;;;;;;;;-10.593738;-0.90411085;36.46962;;;;;;;;;
2228.0;2111.9;;;;;;;1.2131108;-0.04754784;-0.486404;;;;;;;;;;;;
2228.0;2111.9;;;;;;;;;;-8.545182;0.24033326;35.83636;;;;;;;;;
2228.0;2111.9;;;;;;;1.2254403;-0.04730369;-0.47737053;;;;;;;;;;;;
2228.0;2120.5;;;;-1.3489724;-0.15604402;-0.6887513;;;;;;;;;;;;;;;
2228.0;2120.5;;;;-1.3479539;-0.15252687;-0.68762213;;;;;;;;;;;;;;;
2228.0;2120.5;;;;-1.3490869;-0.14977266;-0.68809897;;;;;;;;;;;;;;;
2228.0;2120.5;;;;-1.3504525;-0.14701845;-0.6871796;;;;;;;;;;;;;;;
2228.0;2120.5;;;;-1.3461229;-0.14120866;-0.68373114;;;;;;;;;;;;;;;
2228.0;2121.2;;;;;;;;;;-6.416517;1.7509995;35.29847;;;;;;;;;
2228.0;2121.2;;;;;;;1.2302011;-0.04992828;-0.47328106;;;;;;;;;;;;
2228.0;2121.2;;;;;;;;;;-4.280221;3.0404067;34.66521;;;;;;;;;
2228.0;2121.2;;;;;;;1.2402723;-0.05328532;-0.47437972;;;;;;;;;;;;
2228.0;2124.6;262143;262143;12872;;;;;;;;;;;;;;;;;;
2228.0;2130.4;;;;;;;;;;;;;-2033;;;;;;;;
2228.0;2130.4;;;;;;;;;;;;;-2506;;;;;;;;
2228.0;2130.4;;;;;;;;;;;;;-2822;;;;;;;;
2228.0;2130.4;;;;;;;;;;;;;-2957;;;;;;;;
2228.0;2130.4;;;;;;;;;;;;;-3142;;;;;;;;
2230.0;2130.6;;;;-1.3381959;-0.13475038;-0.6810685;;;;;;;;;;;;;;;
2230.0;2130.6;;;;-1.3319017;-0.12951662;-0.67796713;;;;;;;;;;;;;;;
2230.0;2130.6;;;;-1.325821;-0.12602235;-0.6725045;;;;;;;;;;;;;;;
2230.0;2130.6;;;;-1.3178064;-0.123100296;-0.66618735;;;;;;;;;;;;;;;
2230.0;2130.6;;;;-1.3067781;-0.121093765;-0.65941244;;;;;;;;;;;;;;;
2230.0;2130.9;;;;;;;;;;-2.0256662;4.1123695;33.37199;;;;;;;;;
2230.0;2130.9;;;;;;;1.2490616;-0.05780206;-0.47199926;;;;;;;;;;;;
2230.0;2130.9;;;;;;;;;;0.19074069;4.7036653;32.05588;;;;;;;;;
2230.0;2130.9;;;;;;;1.2503433;-0.06457717;-0.47376934;;;;;;;;;;;;
2230.0;2140.5;;;;;;;;;;2.357555;5.1499987;30.827509;;;;;;;;;
2230.0;2140.5;;;;;;;1.2427747;-0.0667745;-0.47987303;;;;;;;;;;;;
2230.0;2140.5;;;;;;;;;;4.6121097;5.3636284;29.328289;;;;;;;;;
2230.0;2140.5;;;;;;;1.2373425;-0.07000946;-0.479812;;;;;;;;;;;;
2230.0;2140.7;;;;-1.2932702;-0.11964418;-0.65181357;;;;;;;;;;;;;;;
2230.0;2140.7;;;;-1.2792817;-0.117698684;-0.6451569;;;;;;;;;;;;;;;
2230.0;2140.7;;;;-1.2655259;-0.11569215;-0.6389771;;;;;;;;;;;;;;;
2230.0;2140.7;;;;-1.2517968;-0.11418916;-0.6329728;;;;;;;;;;;;;;;
2230.0;2140.7;;;;-1.2362443;-0.11389543;-0.6268769;;;;;;;;;;;;;;;
2231.0;2141.8;;;;;;;;;;;;;;;;;-68.63612;43.805508;102.160706;;2056.6
2231.0;2141.8;;;;;;;;;;;;;;-1.325724;-0.29273355;-0.4618061;;;;;2056.6
2231.0;2141.8;;;;;;;;;;;;;;;;;-84.02127;48.91736;95.55345;;2056.6
2231.0;2141.8;;;;;;;;;;;;;;-1.3040559;-0.34925383;-0.5428022;;;;;2056.6
2231.0;2141.8;;;;;;;;;;;;;;;;;-89.842674;49.638355;88.99579;;2066.2
2231.0;2141.8;;;;;;;;;;;;;;-1.3577075;-0.42469558;-0.36762595;;;;;2066.2
2231.0;2141.8;;;;;;;;;;;;;;;;;-89.73205;45.9418;84.04797;;2066.2
2231.0;2141.8;;;;;;;;;;;;;;-1.4429761;-0.45295572;-0.20905179;;;;;2066.2
2231.0;2141.8;;;;;;;;;;;;;;;;;-90.53316;39.002655;79.53505;;2075.8
2231.0;2141.8;;;;;;;;;;;;;;-1.4355296;-0.48231453;-0.12012085;;;;;2075.8
2231.0;2141.8;;;;;;;;;;;;;;;;;-96.72842;36.420025;75.65157;;2075.8
2231.0;2141.8;;;;;;;;;;;;;;-1.3708915;-0.5614185;-0.23938718;;;;;2075.8
2231.0;2144.8;262143;262143;12869;;;;;;;;;;;;;;;;;;
2231.0;2150.0;;;;;;;;;;6.870479;4.8791466;27.657398;;;;;;;;;
2231.0;2150.0;;;;;;;1.2228767;-0.0756859;-0.4852443;;;;;;;;;;;;
2231.0;2150.0;;;;;;;;;;8.987701;3.9559617;26.165808;;;;;;;;;
2231.0;2150.0;;;;;;;1.2078615;-0.07635731;-0.4878689;;;;;;;;;;;;
2231.0;2150.7;;;;-1.2197267;-0.11343767;-0.61944586;;;;;;;;;;;;;;;
2231.0;2150.7;;;;-1.2035257;-0.11260988;-0.6131478;;;;;;;;;;;;;;;
2231.0;2150.7;;;;-1.1850511;-0.11224748;-0.606659;;;;;;;;;;;;;;;
2231.0;2150.7;;;;-1.1669198;-0.11106111;-0.5971299;;;;;;;;;;;;;;;
2231.0;2150.7;;;;-1.1529695;-0.109375015;-0.59049994;;;;;;;;;;;;;;;
2236.0;2156.9;;;;;;;;;;;;;;;;;-99.81841;34.691914;72.61879;;2085.5
2236.0;2156.9;;;;;;;;;;;;;;-1.3279824;-0.6393017;-0.29767755;;;;;2085.5
2236.0;2156.9;;;;;;;;;;;;;;;;;-95.52675;29.938658;70.94409;;2085.5
2236.0;2156.9;;;;;;;;;;;;;;-1.2923979;-0.6826991;-0.2412183;;;;;2085.5
2236.0;2156.9;;;;;;;;;;;;;;;;;-89.51842;24.334698;69.55931;;2095.2
2236.0;2156.9;;;;;;;;;;;;;;-1.1955931;-0.7032075;-0.26435134;;;;;2095.2
2236.0;2156.9;;;;;;;;;;;;;;;;;-85.91342;21.07303;67.04917;;2095.2
2236.0;2156.9;;;;;;;;;;;;;;-1.079989;-0.71089816;-0.34400463;;;;;2095.2
2236.0;2156.9;;;;;;;;;;;;;;;;;-80.32853;20.88229;64.504684;;2104.8
2236.0;2156.9;;;;;;;;;;;;;;-1.0021058;-0.70204777;-0.31794184;;;;;2104.8
2236.0;2156.9;;;;;;;;;;;;;;;;;-73.54579;20.233772;63.165688;;2104.8
2236.0;2156.9;;;;;;;;;;;;;;-0.9193396;-0.67592394;-0.28034303;;;;;2104.8
2236.0;2159.5;;;;;;;;;;11.047701;2.6932585;24.39955;;;;;;;;;
2236.0;2159.5;;;;;;;1.1929685;-0.076662496;-0.4878689;;;;;;;;;;;;
2236.0;2159.5;;;;;;;;;;13.000885;1.0948515;22.560808;;;;;;;;;
2236.0;2159.5;;;;;;;1.1770378;-0.07470931;-0.4857326;;;;;;;;;;;;
2236.0;2160.7;;;;-1.1374437;-0.10932924;-0.58518225;;;;;;;;;;;;;;;
2236.0;2160.7;;;;-1.1169473;-0.111202255;-0.57714087;;;;;;;;;;;;;;;
2236.0;2160.7;;;;-1.0936509;-0.11385347;-0.56930166;;;;;;;;;;;;;;;
2236.0;2160.7;;;;-1.0724069;-0.11790086;-0.5639306;;;;;;;;;;;;;;;
2236.0;2160.7;;;;-1.0549165;-0.12290956;-0.5616074;;;;;;;;;;;;;;;
2236.0;2164.9;262143;262143;12868;;;;;;;;;;;;;;;;;;
2288.0;2169.1;;;;;;;;;;14.538255;-0.44251838;20.38255;;;;;;;;;
2288.0;2169.1;;;;;;;1.1633046;-0.0700705;-0.4839015;;;;;;;;;;;;
2288.0;2169.1;;;;;;;;;;15.770439;-1.9150364;18.448439;;;;;;;;;
2288.0;2169.1;;;;;;;1.1431624;-0.06469924;-0.486404;;;;;;;;;;;;
2288.0;2170.7;;;;;;;;;;;;;-3549;;;;;;;;
2288.0;2170.7;;;;;;;;;;;;;-3627;;;;;;;;
2288.0;2170.7;;;;;;;;;;;;;-3156;;;;;;;;
2288.0;2170.7;;;;;;;;;;;;;-2676;;;;;;;;
2288.0;2170.7;;;;;;;;;;;;;-2231;;;;;;;;
2288.0;2170.8;;;;-1.0404359;-0.12742616;-0.560196;;;;;;;;;;;;;;;
2288.0;2170.8;;;;-1.0277101;-0.13164903;-0.5589829;;;;;;;;;;;;;;;
2288.0;2170.8;;;;-1.0144883;-0.13596727;-0.5581551;;;;;;;;;;;;;;;
2288.0;2170.8;;;;-1.0010911;-0.13944246;-0.55941397;;;;;;;;;;;;;;;
2288.0;2170.8;;;;-0.9891778;-0.14316179;-0.5614968;;;;;;;;;;;;;;;
2288.0;2178.6;;;;;;;;;;16.773737;-3.5897398;16.766108;;;;;;;;;
2288.0;2178.6;;;;;;;1.1235085;-0.06433302;-0.4839015;;;;;;;;;;;;
2288.0;2178.6;;;;;;;;;;17.479475;-5.1881466;14.660329;;;;;;;;;
2288.0;2178.6;;;;;;;1.1084323;-0.06280709;-0.47816402;;;;;;;;;;;;
2288.0;2180.7;;;;-0.9778787;-0.14604189;-0.5628739;;;;;;;;;;;;;;;
2288.0;2180.7;;;;-0.96615994;-0.14832307;-0.56494147;;;;;;;;;;;;;;;
2288.0;2180.7;;;;-0.9560319;-0.1513138;-0.5674935;;;;;;;;;;;;;;;
2288.0;2180.7;;;;-0.9480897;-0.15489961;-0.57074744;;;;;;;;;;;;;;;
2288.0;2180.7;;;;-0.93730557;-0.15771867;-0.57311636;;;;;;;;;;;;;;;
2288.0;2185.0;262143;262143;12860;;;;;;;;;;;;;;;;;;
2291.0;2188.2;;;;;;;;;;18.02118;-6.202887;12.222664;;;;;;;;;
2291.0;2188.2;;;;;;;1.0950651;-0.056398205;-0.47083956;;;;;;;;;;;;
2291.0;2188.2;;;;;;;;;;18.398846;-6.611072;9.884182;;;;;;;;;
2291.0;2188.2;;;;;;;1.0853603;-0.046205025;-0.46284372;;;;;;;;;;;;
2291.0;2190.9;;;;-0.92914593;-0.15963747;-0.58014303;;;;;;;;;;;;;;;
2291.0;2190.9;;;;-0.92483914;-0.16184236;-0.587967;;;;;;;;;;;;;;;
2291.0;2190.9;;;;-0.9230577;-0.16301729;-0.5927163;;;;;;;;;;;;;;;
2291.0;2190.9;;;;-0.9241296;-0.16450883;-0.59935385;;;;;;;;;;;;;;;
2291.0;2190.9;;;;-0.92956555;-0.16730882;-0.60779196;;;;;;;;;;;;;;;
2291.0;2197.9;;;;;;;;;;18.642994;-6.130406;7.637257;;;;;;;;;
2291.0;2197.9;;;;;;;1.0792565;-0.03784295;-0.45399335;;;;;;;;;;;;
2291.0;2197.9;;;;;;;;;;18.704031;-5.0241094;5.2110357;;;;;;;;;
2291.0;2197.9;;;;;;;1.0716879;-0.032288585;-0.4423963;;;;;;;;;;;;
2291.0;2201.0;;;;-0.93239224;-0.17023088;-0.6140061;;;;;;;;;;;;;;;
2291.0;2201.0;;;;-0.9271432;-0.17171861;-0.6129609;;;;;;;;;;;;;;;
2291.0;2201.0;;;;-0.9143182;-0.17234041;-0.61305624;;;;;;;;;;;;;;;
2291.0;2201.0;;;;-0.90903103;-0.16646959;-0.61334616;;;;;;;;;;;;;;;
2291.0;2201.0;;;;-0.90825665;-0.15610887;-0.61341864;;;;;;;;;;;;;;;
2292.0;2202.5;;;;;;;;;;;;;;;;;-67.52984;18.738365;62.85668;;2114.3
2292.0;2202.5;;;;;;;;;;;;;;-0.8130131;-0.6549272;-0.30872524;;;;;2114.3
2292.0;2202.5;;;;;;;;;;;;;;;;;-62.997833;18.269142;63.295387;;2114.3
2292.0;2202.5;;;;;;;;;;;;;;-0.71718496;-0.63631094;-0.352855;;;;;2114.3
2292.0;2202.5;;;;;;;;;;;;;;;;;-57.61513;19.936216;64.49324;;2124.1
2292.0;2202.5;;;;;;;;;;;;;;-0.6961882;-0.60322887;-0.30481887;;;;;2124.1
2292.0;2202.5;;;;;;;;;;;;;;;;;-53.624836;21.328623;66.118355;;2124.1
2292.0;2202.5;;;;;;;;;;;;;;-0.7027192;-0.5748466;-0.25696585;;;;;2124.1
2292.0;2202.5;;;;;;;;;;;;;;;;;-52.80084;22.144993;67.411575;;2133.7
2292.0;2202.5;;;;;;;;;;;;;;-0.6994842;-0.56697285;-0.2732017;;;;;2133.7
2292.0;2202.5;;;;;;;;;;;;;;;;;-53.693504;24.098179;68.59035;;2133.7
2292.0;2202.5;;;;;;;;;;;;;;-0.7208472;-0.5681936;-0.3150731;;;;;2133.7
2292.0;2205.2;262143;262143;12866;;;;;;;;;;;;;;;;;;
2292.0;2207.4;;;;;;;;;;18.597218;-3.604999;2.7771842;;;;;;;;;
2292.0;2207.4;;;;;;;1.0615559;-0.032044437;-0.43440047;;;;;;;;;;;;
2292.0;2207.4;;;;;;;;;;18.581957;-1.8921475;0.7553331;;;;;;;;;
2292.0;2207.4;;;;;;;1.0481887;-0.031861324;-0.42548907;;;;;;;;;;;;
2292.0;2210.9;;;;-0.9150392;-0.14694597;-0.620163;;;;;;;;;;;;;;;
2292.0;2210.9;;;;-0.91923535;-0.14152528;-0.6190644;;;;;;;;;;;;;;;
2292.0;2210.9;;;;-0.9163629;-0.13910295;-0.62048346;;;;;;;;;;;;;;;
2292.0;2210.9;;;;-0.90693676;-0.13917924;-0.62141806;;;;;;;;;;;;;;;
2292.0;2210.9;;;;-0.8935586;-0.13781358;-0.61999136;;;;;;;;;;;;;;;
2294.0;2210.9;;;;;;;;;;;;;-1242;;;;;;;;
2294.0;2210.9;;;;;;;;;;;;;256;;;;;;;;
2294.0;2210.9;;;;;;;;;;;;;1461;;;;;;;;
2294.0;2210.9;;;;;;;;;;;;;2236;;;;;;;;
2294.0;2210.9;;;;;;;;;;;;;3101;;;;;;;;
2294.0;2217.0;;;;;;;;;;18.52092;-0.019074067;-0.90029603;;;;;;;;;
2294.0;2217.0;;;;;;;1.0347606;-0.031861324;-0.41785944;;;;;;;;;;;;
2294.0;2217.0;;;;;;;;;;18.501846;2.0409255;-2.3689995;;;;;;;;;
2294.0;2217.0;;;;;;;1.0220039;-0.028992584;-0.4143803;;;;;;;;;;;;
2294.0;2217.2;;;;;;;;;;;;;;;;;-53.491318;25.89877;69.54024;;2143.4
2294.0;2217.2;;;;;;;;;;;;;;-0.7528916;-0.54335153;-0.33112583;;;;;2143.4
2294.0;2217.2;;;;;;;;;;;;;;;;;-53.06406;26.73803;70.429085;;2143.4
2294.0;2217.2;;;;;;;;;;;;;;-0.7835322;-0.52339244;-0.3587756;;;;;2143.4
2294.0;2217.2;;;;;;;;;;;;;;;;;-52.133244;27.539139;71.67272;;2153.1
2294.0;2217.2;;;;;;;;;;;;;;-0.8105716;-0.4998932;-0.39051485;;;;;2153.1
2294.0;2217.2;;;;;;;;;;;;;;;;;-51.248207;28.073214;72.992645;;2153.1
2294.0;2217.2;;;;;;;;;;;;;;-0.83999145;-0.4707175;-0.42091128;;;;;2153.1
2294.0;2217.2;;;;;;;;;;;;;;;;;-49.92828;28.118992;74.514755;;2162.8
2294.0;2217.2;;;;;;;;;;;;;;-0.8679464;-0.43177587;-0.420423;;;;;2162.8
2294.0;2217.2;;;;;;;;;;;;;;;;;-49.123356;28.02362;76.143684;;2162.8
2294.0;2217.2;;;;;;;;;;;;;;-0.89669484;-0.4255501;-0.41529587;;;;;2162.8
2294.0;2220.8;;;;-0.8862306;-0.13510515;-0.6221505;;;;;;;;;;;;;;;
2294.0;2220.8;;;;-0.88694394;-0.13129808;-0.62798315;;;;;;;;;;;;;;;
2294.0;2220.8;;;;-0.8894769;-0.12816621;-0.6328965;;;;;;;;;;;;;;;
2294.0;2220.8;;;;-0.88439953;-0.12614061;-0.6315537;;;;;;;;;;;;;;;
2294.0;2220.8;;;;-0.8850099;-0.12461473;-0.6315575;;;;;;;;;;;;;;;
2348.0;2225.2;262143;262143;12869;;;;;;;;;;;;;;;;;;
2348.0;2226.4;;;;;;;;;;18.471329;4.20774;-3.7385175;;;;;;;;;
2348.0;2226.4;;;;;;;1.0101627;-0.026978362;-0.41340372;;;;;;;;;;;;
2348.0;2226.4;;;;;;;;;;18.517105;6.4622946;-5.1080356;;;;;;;;;
2348.0;2226.4;;;;;;;0.9983825;-0.024536882;-0.41273233;;;;;;;;;;;;
2348.0;2230.9;;;;-0.8884698;-0.12476732;-0.63013464;;;;;;;;;;;;;;;
2348.0;2230.9;;;;-0.88137066;-0.12584306;-0.627945;;;;;;;;;;;;;;;
2348.0;2230.9;;;;-0.86836636;-0.12496187;-0.62757117;;;;;;;;;;;;;;;
2348.0;2230.9;;;;-0.8635522;-0.12311937;-0.6315194;;;;;;;;;;;;;;;
2348.0;2230.9;;;;-0.86361325;-0.12139131;-0.63224036;;;;;;;;;;;;;;;
2348.0;2235.8;;;;;;;;;;18.501846;8.842738;-6.286813;;;;;;;;;
2348.0;2235.8;;;;;;;0.9891659;-0.025269326;-0.41175574;;;;;;;;;;;;
2348.0;2235.8;;;;;;;;;;18.570513;11.478774;-7.461776;;;;;;;;;
2348.0;2235.8;;;;;;;0.97762996;-0.023926511;-0.40949735;;;;;;;;;;;;
2348.0;2240.9;;;;-0.8549501;-0.120475784;-0.62227255;;;;;;;;;;;;;;;
2348.0;2240.9;;;;-0.84627545;-0.11875917;-0.61536413;;;;;;;;;;;;;;;
2348.0;2240.9;;;;-0.83763134;-0.11664583;-0.60924536;;;;;;;;;;;;;;;
2348.0;2240.9;;;;-0.8275224;-0.114036575;-0.60420233;;;;;;;;;;;;;;;
2348.0;2240.9;;;;-0.82296383;-0.11256029;-0.5989457;;;;;;;;;;;;;;;
2348.0;2245.5;;;;;;;;;;18.620106;14.446699;-8.50322;;;;;;;;;
2348.0;2245.5;;;;;;;0.97054964;-0.025452437;-0.40577412;;;;;;;;;;;;
2348.0;2245.5;;;;;;;;;;18.700216;17.544327;-9.037293;;;;;;;;;
2348.0;2245.5;;;;;;;0.9564501;-0.028748436;-0.40144047;;;;;;;;;;;;
2350.0;2245.3;262143;262143;12877;;;;;;;;;;;;;;;;;;
2350.0;2251.0;;;;-0.82539;-0.112461105;-0.59037405;;;;;;;;;;;;;;;
2350.0;2251.0;;;;-0.8331796;-0.11304857;-0.5826569;;;;;;;;;;;;;;;
2350.0;2251.0;;;;-0.84093106;-0.11394121;-0.57638556;;;;;;;;;;;;;;;
2350.0;2251.0;;;;-0.8433801;-0.114742294;-0.56844336;;;;;;;;;;;;;;;
2350.0;2251.0;;;;-0.839306;-0.114051834;-0.56031805;;;;;;;;;;;;;;;
2350.0;2251.1;;;;;;;;;;;;;4057;;;;;;;;
2350.0;2251.1;;;;;;;;;;;;;4468;;;;;;;;
2350.0;2251.1;;;;;;;;;;;;;3823;;;;;;;;
2350.0;2251.1;;;;;;;;;;;;;2854;;;;;;;;
2350.0;2251.1;;;;;;;;;;;;;2740;;;;;;;;
2350.0;2255.1;;;;;;;;;;18.620106;20.584734;-9.552294;;;;;;;;;
2350.0;2255.1;;;;;;;0.9411298;-0.029419843;-0.397351;;;;;;;;;;;;
2350.0;2255.1;;;;;;;;;;18.604847;23.289438;-10.029145;;;;;;;;;
2350.0;2255.1;;;;;;;0.92501605;-0.032654807;-0.39179662;;;;;;;;;;;;
2350.0;2261.1;;;;-0.8281175;-0.11345674;-0.55431753;;;;;;;;;;;;;;;
2350.0;2261.1;;;;-0.81422055;-0.11250307;-0.5485192;;;;;;;;;;;;;;;
2350.0;2261.1;;;;-0.79908;-0.11080171;-0.5421334;;;;;;;;;;;;;;;
2350.0;2261.1;;;;-0.7849847;-0.10740282;-0.5389443;;;;;;;;;;;;;;;
2350.0;2261.1;;;;-0.7689439;-0.104072586;-0.53501517;;;;;;;;;;;;;;;
2351.0;2262.4;;;;;;;;;;;;;;;;;-48.46721;27.779472;77.5628;;2172.4
2351.0;2262.4;;;;;;;;;;;;;;-0.91927856;-0.4223762;-0.4161504;;;;;2172.4
2351.0;2262.4;;;;;;;;;;;;;;;;;-48.036137;27.43614;78.695786;;2172.4
2351.0;2262.4;;;;;;;;;;;;;;-0.9277627;-0.43470564;-0.42048404;;;;;2172.4
2351.0;2262.4;;;;;;;;;;;;;;;;;-47.704247;27.83288;79.37864;;2182.1
2351.0;2262.4;;;;;;;;;;;;;;-0.9427168;-0.44264045;-0.4170049;;;;;2182.1
2351.0;2262.4;;;;;;;;;;;;;;;;;-47.03665;27.802362;79.302345;;2182.1
