patientId;holterMac;flexMac;;;;;;;;;;;;;;;;;;;;
;CA:F3:0B:1E:33:78;D3:4A:5C:52:80:78;;;;;;;;;;;;;;;;;;;;
receivedTimeStamp;timeStamp;red;ir;green;adxl_accX;adxl_accY;adxl_accZ;lsm_accelX;lsm_accelY;lsm_accelZ;lsm_gyroX;lsm_gyroY;lsm_gyroZ;ecg;flex_lsm_accelX;flex_lsm_accelY;flex_lsm_accelZ;flex_lsm_gyroX;flex_lsm_gyroY;flex_lsm_gyroZ;flex_cmd;flexTimeStamp
274.0;218.2;;;;;;;;;;;;;;;;;;;;17;0.1
274.0;218.2;;;;;;;;;;;;;;;;;13.706625;1.2207403;1.0338145;;127.5
274.0;218.2;;;;;;;;;;;;;;0.9368572;-0.049073763;-0.14087345;;;;;127.5
274.0;218.2;;;;;;;;;;;;;;;;;-5.283517;-18.063143;-7.507553;;127.5
274.0;218.2;;;;;;;;;;;;;;0.97781307;-0.046571247;-0.14575641;;;;;127.5
274.0;218.2;;;;;;;;;;;;;;;;;-63.947723;-84.360794;-62.326427;;137.1
274.0;218.2;;;;;;;;;;;;;;0.9830012;-0.043946654;-0.14429152;;;;;137.1
274.0;218.2;;;;;;;;;;;;;;;;;-122.19229;-124.988556;-120.51378;;137.1
274.0;218.2;;;;;;;;;;;;;;0.97683644;-0.04364147;-0.14069033;;;;;137.1
339.0;219.0;;;;;;;;;;;;;;;;;-59.049503;-124.6643;-82.46864;;146.7
339.0;219.0;;;;;;;;;;;;;;0.9762261;-0.034363844;-0.13763848;;;;;146.7
339.0;219.0;;;;;;;;;;;;;;;;;6.7484055;-123.57707;-42.76406;;146.7
339.0;219.0;;;;;;;;;;;;;;0.97238076;-0.032227546;-0.13605152;;;;;146.7
339.0;219.0;;;;;;;;;;;;;;;;;2.0256662;-91.83782;-38.403732;;156.4
339.0;219.0;;;;;;;;;;;;;;0.9693289;-0.032837916;-0.14050722;;;;;156.4
339.0;219.0;;;;;;;;;;;;;;;;;-5.1080356;2.3079624;-15.533921;;156.4
339.0;219.0;;;;;;;;;;;;;;0.9731132;-0.02557451;-0.13019197;;;;;156.4
339.0;219.0;;;;;;;;;;;;;;;;;-5.93585;10.040589;-14.179663;;166.0
339.0;219.0;;;;;;;;;;;;;;0.9693899;-0.02722251;-0.13006988;;;;;166.0
339.0;219.0;;;;;;;;;;;;;;;;;-5.878628;10.433516;-14.6641445;;166.0
339.0;219.0;;;;;;;;;;;;;;0.96658224;-0.028321177;-0.13409834;;;;;166.0
339.0;278.4;;;;;;;;;;;;;;;;;-5.9320354;10.883664;-14.988402;;175.7
339.0;278.4;;;;;;;;;;;;;;0.96462905;-0.028687399;-0.1345256;;;;;175.7
339.0;278.4;;;;;;;;;;;;;;;;;-6.145665;11.4978485;-15.66744;;175.7
339.0;278.4;;;;;;;;;;;;;;0.96298105;-0.029236732;-0.13165686;;;;;175.7
339.0;278.4;;;;;;;;;;;;;;;;;-6.424146;11.936552;-16.140476;;185.2
339.0;278.4;;;;;;;;;;;;;;0.9675588;-0.029663991;-0.12982574;;;;;185.2
339.0;278.4;;;;;;;;;;;;;;;;;-6.572924;12.440107;-16.479996;;185.2
339.0;278.4;;;;;;;;;;;;;;0.969573;-0.032837916;-0.1259804;;;;;185.2
339.0;278.4;;;;;;;;;;;;;;;;;-6.7484055;12.691885;-17.19718;;194.7
339.0;278.4;;;;;;;;;;;;;;0.9735404;-0.033753473;-0.1276284;;;;;194.7
339.0;278.4;;;;;;;;;;;;;;;;;-6.599628;13.019959;-17.70455;;194.7
339.0;278.4;;;;;;;;;;;;;;0.9778741;-0.037415694;-0.12506485;;;;;194.7
397.0;279.6;;;;;;;;;;;;;;;;;-6.4813685;13.126774;-18.223366;;204.4
397.0;279.6;;;;;;;;;;;;;;0.98373365;-0.036378063;-0.1259804;;;;;204.4
397.0;279.6;;;;;;;;;;;;;;;;;-5.901517;13.111515;-18.986328;;204.4
397.0;279.6;;;;;;;;;;;;;;0.9904477;-0.03625599;-0.12665181;;;;;204.4
397.0;279.6;;;;;;;;;;;;;;;;;-5.592517;13.19544;-19.581438;;214.0
397.0;279.6;;;;;;;;;;;;;;0.99758905;-0.03320414;-0.12671286;;;;;214.0
397.0;279.6;;;;;;;;;;;;;;;;;-5.272073;13.389997;-20.138401;;214.0
397.0;279.6;;;;;;;;;;;;;;1.0032655;-0.03234962;-0.12872708;;;;;214.0
397.0;279.6;;;;;;;;;;;;;;;;;-4.974517;13.81344;-21.027254;;223.7
397.0;279.6;;;;;;;;;;;;;;1.0082095;-0.026673177;-0.12500381;;;;;223.7
397.0;279.6;;;;;;;;;;;;;;;;;-4.886776;13.962218;-21.671957;;223.7
397.0;279.6;;;;;;;;;;;;;;1.0102848;-0.021423994;-0.124332406;;;;;223.7
397.0;338.7;;;;;;;;;;;;;;;;;-4.6807766;14.263588;-22.373882;;233.3
397.0;338.7;;;;;;;;;;;;;;1.0152898;-0.01660207;-0.12060915;;;;;233.3
397.0;338.7;;;;;;;;;;;;;;;;;-4.482406;14.213996;-22.892696;;233.3
397.0;338.7;;;;;;;;;;;;;;1.0144353;-0.012939848;-0.120303966;;;;;233.3
397.0;338.7;;;;;;;;;;;;;;;;;-4.4289985;14.187292;-23.430586;;242.9
397.0;338.7;;;;;;;;;;;;;;1.0175481;-0.0047608875;-0.11938841;;;;;242.9
397.0;338.7;;;;;;;;;;;;;;;;;-4.623554;14.343699;-23.808252;;242.9
397.0;338.7;;;;;;;;;;;;;;1.0165105;6.103702E-5;-0.11749626;;;;;242.9
397.0;338.7;;;;;;;;;;;;;;;;;-4.7837768;14.7633295;-24.075289;;252.6
397.0;338.7;;;;;;;;;;;;;;1.0153508;0.0046388134;-0.1159093;;;;;252.6
397.0;338.7;;;;;;;;;;;;;;;;;-5.104221;14.950255;-24.304178;;252.6
397.0;338.7;;;;;;;;;;;;;;1.0075991;0.009643849;-0.11206397;;;;;252.6
457.0;339.5;;;;;;;;;;;;;;;;;-4.9249244;14.831996;-24.624622;;262.1
457.0;339.5;;;;;;;;;;;;;;1.0029603;0.0145268105;-0.11053804;;;;;262.1
457.0;339.5;;;;;;;;;;;;;;;;;-4.8677025;14.7633295;-25.055696;;262.1
457.0;339.5;;;;;;;;;;;;;;1.0003967;0.01843318;-0.10699789;;;;;262.1
457.0;339.5;;;;;;;;;;;;;;;;;-4.7685175;14.488663;-25.326548;;271.8
457.0;339.5;;;;;;;;;;;;;;0.99777216;0.025086215;-0.10724204;;;;;271.8
457.0;339.5;;;;;;;;;;;;;;;;;-4.753258;14.378033;-25.30366;;271.8
457.0;339.5;;;;;;;;;;;;;;0.9933775;0.028809473;-0.10736412;;;;;271.8
457.0;339.5;;;;;;;;;;;;;;;;;-4.757073;14.343699;-25.227362;;281.4
457.0;339.5;;;;;;;;;;;;;;0.9882504;0.027466659;-0.105166785;;;;;281.4
457.0;339.5;;;;;;;;;;;;;;;;;-4.554888;14.213996;-25.475325;;281.4
457.0;339.5;;;;;;;;;;;;;;0.98477125;0.02826014;-0.10412916;;;;;281.4
457.0;398.9;;;;;;;;;;;;;;;;;-4.4785914;14.435255;-25.753807;;291.1
457.0;398.9;;;;;;;;;;;;;;0.97701955;0.030213324;-0.101931825;;;;;291.1
457.0;398.9;;;;;;;;;;;;;;;;;-4.692221;14.358959;-25.738548;;291.1
457.0;398.9;;;;;;;;;;;;;;0.9724418;0.029663991;-0.098391674;;;;;291.1
457.0;398.9;;;;;;;;;;;;;;;;;-4.852443;13.897366;-25.910215;;300.8
457.0;398.9;;;;;;;;;;;;;;0.9697562;0.029053621;-0.10113834;;;;;300.8
457.0;398.9;;;;;;;;;;;;;;;;;-4.676962;13.569293;-26.608326;;300.8
457.0;398.9;;;;;;;;;;;;;;0.9632862;0.034058657;-0.10290842;;;;;300.8
457.0;398.9;;;;;;;;;;;;;;;;;-4.2115545;12.890255;-27.390362;;310.4
457.0;398.9;;;;;;;;;;;;;;0.95559555;0.043946654;-0.1037019;;;;;310.4
457.0;398.9;;;;;;;;;;;;;;;;;-4.039888;12.047182;-27.726065;;310.4
457.0;398.9;;;;;;;;;;;;;;0.94857633;0.048219245;-0.11011078;;;;;310.4
518.0;399.7;;;;;;;;;;;;;;;;;-3.872036;11.246071;-27.489546;;319.9
518.0;399.7;;;;;;;;;;;;;;0.9491867;0.043458357;-0.11481063;;;;;319.9
518.0;399.7;;;;;;;;;;;;;;;;;-4.2306285;11.46733;-27.062288;;319.9
518.0;399.7;;;;;;;;;;;;;;0.9475387;0.0314951;-0.11633656;;;;;319.9
518.0;399.7;;;;;;;;;;;;;;;;;-4.7685175;11.883144;-27.367474;;329.5
518.0;399.7;;;;;;;;;;;;;;0.9469283;0.031067843;-0.11725211;;;;;329.5
518.0;399.7;;;;;;;;;;;;;;;;;-5.2415543;12.401958;-27.451399;;329.5
518.0;399.7;;;;;;;;;;;;;;0.9432661;0.034913175;-0.11078219;;;;;329.5
518.0;399.7;;;;;;;;;;;;;;;;;-6.0731835;12.8711815;-27.180548;;339.2
518.0;399.7;;;;;;;;;;;;;;0.9404584;0.031250954;-0.10644856;;;;;339.2
518.0;399.7;;;;;;;;;;;;;;;;;-6.6492205;13.348033;-26.947845;;339.2
518.0;399.7;;;;;;;;;;;;;;0.93923765;0.029541917;-0.09973449;;;;;339.2
518.0;459.3;;;;;;;;;;;;;;;;;-7.206183;13.294626;-26.886808;;348.9
518.0;459.3;;;;;;;;;;;;;;0.93844414;0.028748436;-0.09521775;;;;;348.9
518.0;459.3;;;;;;;;;;;;;;;;;-7.4121833;12.600329;-26.978363;;348.9
518.0;459.3;;;;;;;;;;;;;;0.93954283;0.028565325;-0.0949736;;;;;348.9
518.0;459.3;;;;;;;;;;;;;;;;;-7.4732203;12.1654415;-27.100437;;358.6
518.0;459.3;;;;;;;;;;;;;;0.9418622;0.030396435;-0.09479049;;;;;358.6
518.0;459.3;;;;;;;;;;;;;;;;;-7.4312572;11.909848;-27.329327;;358.6
518.0;459.3;;;;;;;;;;;;;;0.9423505;0.0380871;-0.09210486;;;;;358.6
518.0;459.3;;;;;;;;;;;;;;;;;-7.629627;11.474959;-27.336956;;368.0
518.0;459.3;;;;;;;;;;;;;;0.94479203;0.04034547;-0.08581805;;;;;368.0
518.0;459.3;;;;;;;;;;;;;;;;;-8.087405;11.017182;-27.497177;;368.0
518.0;459.3;;;;;;;;;;;;;;0.9496139;0.0474868;-0.08233894;;;;;368.0
578.0;460.1;;;;;;;;;;;;;;;;;-8.571886;10.624256;-27.653584;;377.7
578.0;460.1;;;;;;;;;;;;;;0.95754874;0.053102206;-0.081240274;;;;;377.7
578.0;460.1;;;;;;;;;;;;;;;;;-9.372997;10.616627;-27.504807;;377.7
578.0;460.1;;;;;;;;;;;;;;0.9651784;0.053163245;-0.082583085;;;;;377.7
578.0;460.1;;;;;;;;;;;;;;;;;-9.807885;10.76159;-27.592546;;387.3
578.0;460.1;;;;;;;;;;;;;;0.9721366;0.05627613;-0.08154546;;;;;387.3
578.0;460.1;;;;;;;;;;;;;;;;;-10.334331;10.284738;-27.928251;;387.3
578.0;460.1;;;;;;;;;;;;;;0.976043;0.06250191;-0.08203375;;;;;387.3
578.0;460.1;;;;;;;;;;;;;;;;;-10.773034;9.617146;-28.435621;;397.0
578.0;460.1;;;;;;;;;;;;;;0.9782403;0.06769005;-0.08752709;;;;;397.0
578.0;460.1;;;;;;;;;;;;;;;;;-10.769219;8.476516;-28.580584;;397.0
578.0;460.1;;;;;;;;;;;;;;0.98025453;0.07446516;-0.09643849;;;;;397.0
578.0;519.8;;;;;;;;;;;;;;;;;-10.715812;7.534257;-28.092287;;406.6
578.0;519.8;;;;;;;;;;;;;;0.9812311;0.0778222;-0.10467849;;;;;406.6
578.0;519.8;;;;;;;;;;;;;;;;;-11.070589;7.2405167;-27.25303;;406.6
578.0;519.8;;;;;;;;;;;;;;0.9771416;0.076662496;-0.10724204;;;;;406.6
578.0;519.8;;;;;;;;;;;;;;;;;-11.490219;6.538591;-27.027956;;416.3
578.0;519.8;;;;;;;;;;;;;;0.9731132;0.07727287;-0.11157567;;;;;416.3
578.0;519.8;;;;;;;;;;;;;;;;;-12.039553;6.0388503;-26.535845;;416.3
578.0;519.8;;;;;;;;;;;;;;0.97238076;0.07885983;-0.11139256;;;;;416.3
578.0;519.8;;;;;;;;;;;;;;;;;-12.936033;5.4361095;-26.226845;;425.9
578.0;519.8;;;;;;;;;;;;;;0.97140414;0.08453627;-0.1098056;;;;;425.9
578.0;519.8;;;;;;;;;;;;;;;;;-13.729514;5.180517;-25.761436;;425.9
578.0;519.8;;;;;;;;;;;;;;0.97091585;0.08191168;-0.111514635;;;;;425.9
637.0;520.6;;;;;;;;;;;;;;;;;-14.175848;5.4017763;-25.421919;;435.5
637.0;520.6;;;;;;;;;;;;;;0.967803;0.08270516;-0.10303049;;;;;435.5
637.0;520.6;;;;;;;;;;;;;;;;;-14.687033;4.81811;-25.086214;;435.5
637.0;520.6;;;;;;;;;;;;;;0.9696951;0.0806299;-0.102053896;;;;;435.5
637.0;520.6;;;;;;;;;;;;;;;;;-15.068514;4.299295;-24.811548;;445.2
637.0;520.6;;;;;;;;;;;;;;0.96945095;0.08032472;-0.104068115;;;;;445.2
637.0;520.6;;;;;;;;;;;;;;;;;-15.060884;3.6812954;-24.647512;;445.2
637.0;520.6;;;;;;;;;;;;;;0.9737846;0.07879879;-0.10449538;;;;;445.2
637.0;520.6;;;;;;;;;;;;;;;;;-15.186773;3.3150733;-24.372845;;454.8
637.0;520.6;;;;;;;;;;;;;;0.9725028;0.07635731;-0.10364086;;;;;454.8
637.0;520.6;;;;;;;;;;;;;;;;;-15.396588;2.8572955;-24.235512;;454.8
637.0;520.6;;;;;;;;;;;;;;0.9686575;0.07940916;-0.09906308;;;;;454.8
637.0;535.1;;;;;;;;;;;;;;;;;-15.751366;2.1210363;-24.132511;;464.4
637.0;535.1;;;;;;;;;;;;;;0.96676534;0.08215583;-0.099612415;;;;;464.4
637.0;535.1;;;;;;;;;;;;;;;;;-16.220589;2.4033327;-25.200659;;464.4
637.0;535.1;;;;;;;;;;;;;;0.9700003;0.09796441;-0.09668264;;;;;464.4
637.0;535.1;;;;;;;;;;;;;;;;;-16.647848;2.643666;-25.955992;;474.0
637.0;535.1;;;;;;;;;;;;;;0.97396773;0.11279641;-0.09234901;;;;;474.0
637.0;535.1;;;;;;;;;;;;;;;;;-17.376476;3.0632956;-25.982697;;474.0
637.0;535.1;;;;;;;;;;;;;;0.9742119;0.12091433;-0.090823084;;;;;474.0
637.0;535.1;;;;;;;;;;;;;;;;;-18.078402;3.8529618;-25.208288;;483.7
637.0;535.1;;;;;;;;;;;;;;0.974456;0.12561418;-0.08471938;;;;;483.7
637.0;535.1;;;;;;;;;;;;;;;;;-17.937254;3.807184;-24.636068;;483.7
637.0;535.1;;;;;;;;;;;;;;0.9775078;0.12427137;-0.07940916;;;;;483.7
699.0;579.9;;;;;;;;;;;;;;;;;-17.151402;3.4485915;-23.911253;;493.3
699.0;579.9;;;;;;;;;;;;;;0.97537154;0.12012085;-0.079348125;;;;;493.3
699.0;579.9;;;;;;;;;;;;;;;;;-16.697441;2.6970735;-23.945585;;493.3
699.0;579.9;;;;;;;;;;;;;;0.987579;0.118228704;-0.07641835;;;;;493.3
699.0;579.9;;;;;;;;;;;;;;;;;-15.442366;1.4076662;-23.724327;;502.9
699.0;579.9;;;;;;;;;;;;;;0.9903256;0.12024293;-0.07672353;;;;;502.9
699.0;579.9;;;;;;;;;;;;;;;;;-15.1104765;0.7858516;-23.998993;;502.9
699.0;579.9;;;;;;;;;;;;;;0.98525953;0.12170782;-0.08355968;;;;;502.9
699.0;579.9;;;;;;;;;;;;;;;;;-14.4047365;0.8125553;-24.407179;;512.6
699.0;579.9;;;;;;;;;;;;;;0.99252295;0.12457655;-0.078127384;;;;;512.6
699.0;579.9;;;;;;;;;;;;;;;;;-14.01181;0.71337014;-24.674215;;512.6
699.0;579.9;;;;;;;;;;;;;;0.99270606;0.13098544;-0.071108125;;;;;512.6
699.0;595.0;;;;;;;;;;;;;;;;;-14.461959;1.0376294;-24.311808;;522.2
699.0;595.0;;;;;;;;;;;;;;0.9823908;0.12683493;-0.074892424;;;;;522.2
699.0;595.0;;;;;;;;;;;;;;;;;-14.118626;1.3199255;-24.613178;;522.2
699.0;595.0;;;;;;;;;;;;;;0.99612415;0.12555315;-0.06433302;;;;;522.2
699.0;595.0;;;;;;;;;;;;;;;;;-13.103885;-0.19074069;-24.048586;;531.9
699.0;595.0;;;;;;;;;;;;;;1.0010681;0.11499374;-0.063417464;;;;;531.9
699.0;595.0;;;;;;;;;;;;;;;;;-12.6117735;-1.1940367;-23.789179;;531.9
699.0;595.0;;;;;;;;;;;;;;0.9914243;0.0999176;-0.05816828;;;;;531.9
699.0;595.0;;;;;;;;;;;;;;;;;-11.417737;-3.1891842;-24.37666;;541.5
699.0;595.0;;;;;;;;;;;;;;0.9867855;0.095278785;-0.06103702;;;;;541.5
699.0;595.0;;;;;;;;;;;;;;;;;-10.490738;-4.8982205;-25.402843;;541.5
699.0;595.0;;;;;;;;;;;;;;0.98275703;0.0949736;-0.0684225;;;;;541.5
757.0;640.2;;;;;;;;;;;;;;;;;-9.292887;-6.214331;-25.91403;;551.1
757.0;640.2;;;;;;;;;;;;;;0.9833674;0.0966216;-0.08343761;;;;;551.1
757.0;640.2;;;;;;;;;;;;;;;;;-8.20185;-6.5080724;-26.135288;;551.1
757.0;640.2;;;;;;;;;;;;;;0.97561574;0.09552293;-0.09033479;;;;;551.1
757.0;640.2;;;;;;;;;;;;;;;;;-7.87759;-6.8132577;-26.146732;;560.6
757.0;640.2;;;;;;;;;;;;;;0.9663381;0.09533983;-0.10119938;;;;;560.6
757.0;640.2;;;;;;;;;;;;;;;;;-9.151738;-5.8709984;-25.227362;;560.6
757.0;640.2;;;;;;;;;;;;;;0.95742667;0.08807642;-0.1119419;;;;;560.6
757.0;640.2;;;;;;;;;;;;;;;;;-10.708182;-3.78811;-27.073734;;570.2
757.0;640.2;;;;;;;;;;;;;;0.97274697;0.10736412;-0.11249123;;;;;570.2
757.0;640.2;;;;;;;;;;;;;;;;;-12.108219;-1.9684439;-28.67977;;570.2
757.0;640.2;;;;;;;;;;;;;;0.9725028;0.13336588;-0.09900205;;;;;570.2
757.0;655.7;;;;;;;;;;;;;;;;;-14.309366;-1.8005921;-28.546251;;579.9
757.0;655.7;;;;;;;;;;;;;;0.95669425;0.1495407;-0.08856472;;;;;579.9
757.0;655.7;;;;;;;;;;;;;;;;;-17.62444;-2.9450362;-27.565844;;579.9
757.0;655.7;;;;;;;;;;;;;;0.94222844;0.15741447;-0.096499525;;;;;579.9
757.0;655.7;;;;;;;;;;;;;;;;;-20.142216;-3.2197027;-28.03125;;589.5
757.0;655.7;;;;;;;;;;;;;;0.9518723;0.16608173;-0.11224708;;;;;589.5
757.0;655.7;;;;;;;;;;;;;;;;;-20.275734;-2.0790737;-27.871029;;589.5
757.0;655.7;;;;;;;;;;;;;;0.9625538;0.17560351;-0.113101594;;;;;589.5
757.0;655.7;;;;;;;;;;;;;;;;;-22.663807;0.17929624;-26.615955;;599.2
757.0;655.7;;;;;;;;;;;;;;0.9501022;0.1688284;-0.105288856;;;;;599.2
757.0;655.7;;;;;;;;;;;;;;;;;-24.075289;2.1629994;-26.61214;;599.2
757.0;655.7;;;;;;;;;;;;;;0.94784385;0.16235848;-0.10779138;;;;;599.2
818.0;700.6;;;;;;;;;;;;;;;;;-23.194067;4.1734066;-26.562548;;608.6
818.0;700.6;;;;;;;;;;;;;;0.94766074;0.16046633;-0.088808864;;;;;608.6
818.0;700.6;;;;;;;;;;;;;;;;;-22.984253;4.8333693;-24.811548;;608.6
818.0;700.6;;;;;;;;;;;;;;0.9361858;0.15277566;-0.09210486;;;;;608.6
818.0;700.6;;;;;;;;;;;;;;;;;-23.216955;7.065035;-24.365215;;618.2
818.0;700.6;;;;;;;;;;;;;;0.9504685;0.13776055;-0.093142495;;;;;618.2
818.0;700.6;;;;;;;;;;;;;;;;;-21.217995;8.632923;-24.624622;;618.2
818.0;700.6;;;;;;;;;;;;;;0.94570756;0.13861507;-0.07678457;;;;;618.2
818.0;700.6;;;;;;;;;;;;;;;;;-20.47792;10.109256;-24.59792;;627.9
818.0;700.6;;;;;;;;;;;;;;0.93740654;0.14368114;-0.07470931;;;;;627.9
818.0;700.6;;;;;;;;;;;;;;;;;-19.394514;10.631886;-24.735252;;627.9
818.0;700.6;;;;;;;;;;;;;;0.95883054;0.13495284;-0.05938902;;;;;627.9
818.0;708.0;;;;;;;;;;;;;;;;;-15.4690695;8.003479;-25.833918;;637.6
818.0;708.0;;;;;;;;;;;;;;0.9634693;0.13440351;-0.042542804;;;;;637.6
818.0;708.0;;;;;;;;;;;;;;;;;-12.470626;2.906888;-26.917326;;637.6
818.0;708.0;;;;;;;;;;;;;;0.9469283;0.15100558;-0.02252266;;;;;637.6
818.0;708.0;;;;;;;;;;;;;;;;;-10.673849;-5.1347394;-28.1724;;647.2
818.0;708.0;;;;;;;;;;;;;;0.9488815;0.16132084;-0.033753473;;;;;647.2
818.0;708.0;;;;;;;;;;;;;;;;;-7.1298866;-12.089145;-28.454695;;647.2
818.0;708.0;;;;;;;;;;;;;;0.95541245;0.17474899;-0.050355542;;;;;647.2
818.0;708.0;;;;;;;;;;;;;;;;;-6.321146;-15.911589;-28.660696;;656.9
818.0;708.0;;;;;;;;;;;;;;0.9673757;0.18109684;-0.076662496;;;;;656.9
818.0;708.0;;;;;;;;;;;;;;;;;-5.8290353;-18.23481;-27.699362;;656.9
818.0;708.0;;;;;;;;;;;;;;0.97433394;0.18890958;-0.09857479;;;;;656.9
876.0;760.7;;;;;;;;;;;;;;;;;-6.8895535;-18.303476;-26.81051;;666.5
876.0;760.7;;;;;;;;;;;;;;0.98690754;0.19367047;-0.122196116;;;;;666.5
876.0;760.7;;;;;;;;;;;;;;;;;-7.7288127;-16.556292;-25.940733;;666.5
876.0;760.7;;;;;;;;;;;;;;1.0002136;0.19684438;-0.12622456;;;;;666.5
876.0;760.7;;;;;;;;;;;;;;;;;-10.357219;-13.657034;-24.395735;;676.0
876.0;760.7;;;;;;;;;;;;;;1.0012512;0.18903165;-0.12823878;;;;;676.0
876.0;760.7;;;;;;;;;;;;;;;;;-13.042848;-10.700553;-23.071993;;676.0
876.0;760.7;;;;;;;;;;;;;;0.9999695;0.17999817;-0.131901;;;;;676.0
876.0;760.7;;;;;;;;;;;;;;;;;-13.779107;-7.965331;-21.874142;;685.7
876.0;760.7;;;;;;;;;;;;;;0.99990845;0.17639698;-0.118228704;;;;;685.7
876.0;760.7;;;;;;;;;;;;;;;;;-15.491959;-6.3402205;-20.630512;;685.7
876.0;760.7;;;;;;;;;;;;;;1.000946;0.16614276;-0.10559405;;;;;685.7
876.0;768.2;;;;;;;;;;;;;;;;;-15.858181;-6.1380353;-19.318218;;695.3
876.0;768.2;;;;;;;;;;;;;;0.98928803;0.15417951;-0.10058901;;;;;695.3
876.0;768.2;;;;;;;;;;;;;;;;;-15.270699;-6.260109;-19.219032;;695.3
876.0;768.2;;;;;;;;;;;;;;0.9911801;0.1507004;-0.08789331;;;;;695.3
876.0;768.2;;;;;;;;;;;;;;;;;-15.545365;-7.4274426;-19.550919;;704.9
876.0;768.2;;;;;;;;;;;;;;0.9895932;0.14563432;-0.080141604;;;;;704.9
876.0;768.2;;;;;;;;;;;;;;;;;-15.598773;-8.518478;-20.466475;;704.9
876.0;768.2;;;;;;;;;;;;;;0.97256386;0.15265359;-0.07367168;;;;;704.9
876.0;768.2;;;;;;;;;;;;;;;;;-15.423291;-9.655293;-21.42018;;714.5
876.0;768.2;;;;;;;;;;;;;;0.9651784;0.17206335;-0.06884976;;;;;714.5
876.0;768.2;;;;;;;;;;;;;;;;;-15.919218;-10.700553;-21.851254;;714.5
876.0;768.2;;;;;;;;;;;;;;0.96084476;0.18701743;-0.06982635;;;;;714.5
937.0;821.3;;;;;;;;;;;;;;;;;-16.582996;-11.501663;-21.504105;;724.2
937.0;821.3;;;;;;;;;;;;;;0.96169925;0.1998352;-0.07629628;;;;;724.2
937.0;821.3;;;;;;;;;;;;;;;;;-17.265846;-11.4978485;-21.526995;;724.2
937.0;821.3;;;;;;;;;;;;;;0.964568;0.21271402;-0.07757805;;;;;724.2
937.0;821.3;;;;;;;;;;;;;;;;;-18.398846;-10.868404;-21.61855;;733.8
937.0;821.3;;;;;;;;;;;;;;0.96890163;0.22717978;-0.07330546;;;;;733.8
937.0;821.3;;;;;;;;;;;;;;;;;-19.913326;-10.65096;-21.954254;;733.8
937.0;821.3;;;;;;;;;;;;;;0.97018343;0.2395703;-0.07324442;;;;;733.8
937.0;821.3;;;;;;;;;;;;;;;;;-21.469772;-10.334331;-22.511215;;743.5
937.0;821.3;;;;;;;;;;;;;;0.97384566;0.25598925;-0.077333905;;;;;743.5
937.0;821.3;;;;;;;;;;;;;;;;;-22.965178;-10.376293;-22.820215;;743.5
937.0;821.3;;;;;;;;;;;;;;0.98373365;0.2715537;-0.086916715;;;;;743.5
937.0;828.4;;;;;;;;;;;;;;;;;-24.212624;-9.971923;-22.766808;;753.1
937.0;828.4;;;;;;;;;;;;;;0.98525953;0.27588734;-0.09186071;;;;;753.1
937.0;828.4;;;;;;;;;;;;;;;;;-25.837732;-9.529405;-22.873623;;753.1
937.0;828.4;;;;;;;;;;;;;;0.9816584;0.27759635;-0.093264565;;;;;753.1
937.0;828.4;;;;;;;;;;;;;;;;;-28.374584;-9.3081455;-23.060549;;762.8
937.0;828.4;;;;;;;;;;;;;;0.98373365;0.2776574;-0.09686575;;;;;762.8
937.0;828.4;;;;;;;;;;;;;;;;;-30.69399;-8.533738;-23.190252;;762.8
937.0;828.4;;;;;;;;;;;;;;0.9886166;0.27326274;-0.10449538;;;;;762.8
937.0;828.4;;;;;;;;;;;;;;;;;-32.330547;-6.3173313;-22.957548;;772.3
937.0;828.4;;;;;;;;;;;;;;0.98806727;0.25940734;-0.09619434;;;;;772.3
937.0;828.4;;;;;;;;;;;;;;;;;-33.742027;-3.6812954;-23.117771;;772.3
937.0;828.4;;;;;;;;;;;;;;0.9836116;0.24365978;-0.0778222;;;;;772.3
1000.0;881.2;;;;;;;;;;;;;;;;;-34.913174;-1.5831476;-23.567919;;782.0
1000.0;881.2;;;;;;;;;;;;;;0.98568684;0.23670156;-0.05322428;;;;;782.0
1000.0;881.2;;;;;;;;;;;;;;;;;-35.653248;-0.3662221;-23.483994;;782.0
1000.0;881.2;;;;;;;;;;;;;;0.98409986;0.2245552;-0.032288585;;;;;782.0
1000.0;881.2;;;;;;;;;;;;;;;;;-35.08484;-0.25940734;-23.842587;;791.6
1000.0;881.2;;;;;;;;;;;;;;0.9846492;0.21375164;-0.017273476;;;;;791.6
1000.0;881.2;;;;;;;;;;;;;;;;;-33.41777;-0.39674062;-24.704735;;791.6
1000.0;881.2;;;;;;;;;;;;;;0.9841609;0.21356852;-0.008850368;;;;;791.6
1000.0;881.2;;;;;;;;;;;;;;;;;-31.678215;-0.8316294;-25.788141;;801.2
1000.0;881.2;;;;;;;;;;;;;;0.981048;0.21771905;-0.006836146;;;;;801.2
1000.0;881.2;;;;;;;;;;;;;;;;;-29.450363;-1.33137;-26.932585;;801.2
1000.0;881.2;;;;;;;;;;;;;;0.9786065;0.2200995;-0.011780145;;;;;801.2
1000.0;888.7;;;;;;;;;;;;;;;;;-26.821955;-1.3428144;-28.115177;;810.9
1000.0;888.7;;;;;;;;;;;;;;0.97866756;0.2287057;-0.016052736;;;;;810.9
1000.0;888.7;;;;;;;;;;;;;;;;;-24.460587;-0.8507035;-29.164251;;810.9
1000.0;888.7;;;;;;;;;;;;;;0.9751274;0.23804438;-0.0220954;;;;;810.9
1000.0;888.7;;;;;;;;;;;;;;;;;-22.52266;0.22125919;-30.117952;;820.5
1000.0;888.7;;;;;;;;;;;;;;0.97524947;0.2487869;-0.028199103;;;;;820.5
1000.0;888.7;;;;;;;;;;;;;;;;;-20.622883;1.4343699;-30.896175;;820.5
1000.0;888.7;;;;;;;;;;;;;;0.97524947;0.25757623;-0.03546251;;;;;820.5
1000.0;888.7;;;;;;;;;;;;;;;;;-19.146551;2.8725548;-31.819363;;830.1
1000.0;888.7;;;;;;;;;;;;;;0.97775203;0.27558213;-0.037720878;;;;;830.1
1000.0;888.7;;;;;;;;;;;;;;;;;-19.405958;4.4518876;-32.02536;;830.1
1000.0;888.7;;;;;;;;;;;;;;0.97903377;0.28241828;-0.04181036;;;;;830.1
1059.0;941.9;;;;;;;;;;;;;;;;;-20.077364;5.8671837;-32.021545;;839.7
1059.0;941.9;;;;;;;;;;;;;;0.97897273;0.2800989;-0.04242073;;;;;839.7
1059.0;941.9;;;;;;;;;;;;;;;;;-20.901363;6.805628;-32.444992;;839.7
1059.0;941.9;;;;;;;;;;;;;;0.97451705;0.28431043;-0.041077916;;;;;839.7
1059.0;941.9;;;;;;;;;;;;;;;;;-21.72918;7.0497756;-32.868435;;849.3
1059.0;941.9;;;;;;;;;;;;;;0.9715262;0.2961516;-0.040223397;;;;;849.3
1059.0;941.9;;;;;;;;;;;;;;;;;-22.446363;6.7445908;-33.31477;;849.3
1059.0;941.9;;;;;;;;;;;;;;0.9721366;0.311655;-0.04016236;;;;;849.3
1059.0;941.9;;;;;;;;;;;;;;;;;-24.59029;6.878109;-33.66192;;858.8
1059.0;941.9;;;;;;;;;;;;;;0.9684744;0.32123783;-0.042481765;;;;;858.8
1059.0;941.9;;;;;;;;;;;;;;;;;-26.993622;8.045443;-33.94421;;858.8
1059.0;941.9;;;;;;;;;;;;;;0.9673757;0.32996613;-0.034302805;;;;;858.8
1059.0;942.6;;;;;;;;;;;;;;;;;-29.404585;9.533219;-34.257027;;868.4
1059.0;942.6;;;;;;;;;;;;;;0.9634083;0.33796197;-0.023865474;;;;;868.4
1059.0;942.6;;;;;;;;;;;;;;;;;-30.19425;10.731071;-34.5851;;868.4
1059.0;942.6;;;;;;;;;;;;;;0.95742667;0.3475448;-0.0045777764;;;;;868.4
1059.0;942.6;;;;;;;;;;;;;;;;;-30.758842;11.001924;-35.088654;;878.1
1059.0;942.6;;;;;;;;;;;;;;0.9584643;0.3531602;1.8311106E-4;;;;;878.1
1059.0;942.6;;;;;;;;;;;;;;;;;-30.476545;11.131626;-35.660877;;878.1
1059.0;942.6;;;;;;;;;;;;;;0.9558397;0.3569445;0.00634785;;;;;878.1
1059.0;942.6;;;;;;;;;;;;;;;;;-29.442732;10.769219;-36.45436;;887.7
1059.0;942.6;;;;;;;;;;;;;;0.961272;0.3632313;0.0041505173;;;;;887.7
1059.0;942.6;;;;;;;;;;;;;;;;;-27.630695;10.677664;-36.839657;;887.7
1059.0;942.6;;;;;;;;;;;;;;0.9605396;0.36036256;-0.0056154057;;;;;887.7
1119.0;1009.2;;;;;;;;;;;;;;;;;-25.719473;11.425366;-37.915436;;897.3
1119.0;1009.2;;;;;;;;;;;;;;0.9643239;0.37104404;-0.0112308115;;;;;897.3
1119.0;1009.2;;;;;;;;;;;;;;;;;-24.304178;joulu.57;-38.43425;;897.3
1119.0;1009.2;;;;;;;;;;;;;;0.96353036;0.38398388;-0.009521775;;;;;897.3
1119.0;1009.2;;;;;;;;;;;;;;;;;-23.617512;13.958403;-39.10565;;906.7
1119.0;1009.2;;;;;;;;;;;;;;0.96511734;0.3971679;-0.011841182;;;;;906.7
1119.0;1009.2;;;;;;;;;;;;;;;;;-22.770622;14.893033;-40.044098;;906.7
1119.0;1009.2;;;;;;;;;;;;;;0.9677419;0.41608936;-0.012390515;;;;;906.7
1119.0;1009.2;;;;;;;;;;;;;;;;;-22.442549;15.781885;-40.761284;;916.3
1119.0;1009.2;;;;;;;;;;;;;;0.97506636;0.43269143;-0.02069155;;;;;916.3
1119.0;1009.2;;;;;;;;;;;;;;;;;-22.00003;16.777552;-40.974915;;916.3
1119.0;1009.2;;;;;;;;;;;;;;0.9720756;0.44050416;-0.029602954;;;;;916.3
1119.0;1010.1;;;;;;;;;;;;;;;;;-21.771143;17.113253;-41.222878;;926.0
1119.0;1010.1;;;;;;;;;;;;;;0.9710379;0.44495988;-0.040467545;;;;;926.0
1119.0;1010.1;;;;;;;;;;;;;;;;;-22.274696;17.246773;-41.730247;;926.0
1119.0;1010.1;;;;;;;;;;;;;;0.97109896;0.4532609;-0.047853023;;;;;926.0
1119.0;1010.1;;;;;;;;;;;;;;;;;-23.789179;17.380291;-42.18421;;935.6
1119.0;1010.1;;;;;;;;;;;;;;0.9691458;0.46308786;-0.04547258;;;;;935.6
1119.0;1010.1;;;;;;;;;;;;;;;;;-26.238289;17.464216;-42.355877;;935.6
1119.0;1010.1;;;;;;;;;;;;;;0.96804714;0.47541735;-0.040040284;;;;;935.6
1119.0;1010.1;;;;;;;;;;;;;;;;;-28.378399;17.300179;-41.71499;;945.3
1119.0;1010.1;;;;;;;;;;;;;;0.9602344;0.46589556;-0.033265177;;;;;945.3
1119.0;1010.1;;;;;;;;;;;;;;;;;-30.987732;16.750847;-41.19999;;945.3
1119.0;1010.1;;;;;;;;;;;;;;0.95919675;0.458388;-0.028382214;;;;;945.3
1178.0;1062.1;;;;;;;;;;;;;;;;;-32.93329;16.678366;-40.662098;;954.9
1178.0;1062.1;;;;;;;;;;;;;;0.95309305;0.44972077;-0.014343699;;;;;954.9
1178.0;1062.1;;;;;;;;;;;;;;;;;-34.619434;16.418959;-40.7918;;954.9
1178.0;1062.1;;;;;;;;;;;;;;0.9394818;0.45136875;-0.0052491836;;;;;954.9
1178.0;1062.1;;;;;;;;;;;;;;;;;-36.275063;15.15244;-40.79943;;964.6
1178.0;1062.1;;;;;;;;;;;;;;0.92605364;0.4488052;-8.5451826E-4;;;;;964.6
1178.0;1062.1;;;;;;;;;;;;;;;;;-38.140507;13.187811;-40.894802;;964.6
1178.0;1062.1;;;;;;;;;;;;;;0.9172033;0.44935453;-4.8829615E-4;;;;;964.6
1178.0;1062.1;;;;;;;;;;;;;;;;;-39.963985;11.05533;-40.803246;;974.1
1178.0;1062.1;;;;;;;;;;;;;;0.91116065;0.44703513;5.4933317E-4;;;;;974.1
1178.0;1062.1;;;;;;;;;;;;;;;;;-41.5891;8.758812;-40.936764;;974.1
1178.0;1062.1;;;;;;;;;;;;;;0.9054842;0.4466689;-0.0015869625;;;;;974.1
1178.0;1063.2;;;;;;;;;;;;;;;;;-43.134098;6.9505906;-41.077915;;983.7
1178.0;1063.2;;;;;;;;;;;;;;0.91451764;0.4560686;-6.714072E-4;;;;;983.7
1178.0;1063.2;;;;;;;;;;;;;;;;;-44.835503;5.706961;-41.173283;;983.7
1178.0;1063.2;;;;;;;;;;;;;;0.9212928;0.46070743;-0.0042725913;;;;;983.7
1178.0;1063.2;;;;;;;;;;;;;;;;;-46.254616;5.0279245;-41.390728;;993.4
1178.0;1063.2;;;;;;;;;;;;;;0.9242225;0.46339306;-0.008301035;;;;;993.4
1178.0;1063.2;;;;;;;;;;;;;;;;;-48.028503;4.142888;-41.814175;;993.4
1178.0;1063.2;;;;;;;;;;;;;;0.9227576;0.46589556;-0.012512589;;;;;993.4
1178.0;1063.2;;;;;;;;;;;;;;;;;-49.542984;3.1434064;-42.497025;;1003.0
1178.0;1063.2;;;;;;;;;;;;;;0.92477185;0.4621723;-0.026062807;;;;;1003.0
1178.0;1063.2;;;;;;;;;;;;;;;;;-50.53865;3.5477767;-42.94336;;1003.0
1178.0;1063.2;;;;;;;;;;;;;;0.92483294;0.45710623;-0.030457472;;;;;1003.0
1181.0;1122.2;;;;;;;;;;;;;;;;;-51.202427;4.623554;-43.527027;;1012.7
1181.0;1122.2;;;;;;;;;;;;;;0.90859705;0.4483169;-0.018311106;;;;;1012.7
1181.0;1122.2;;;;;;;;;;;;;;;;;-52.17902;4.8066654;-44.106876;;1012.7
1181.0;1122.2;;;;;;;;;;;;;;0.8979156;0.43873408;-0.010193182;;;;;1012.7
1181.0;1122.2;;;;;;;;;;;;;;;;;-52.999207;4.3755913;-44.656208;;1022.2
1181.0;1122.2;;;;;;;;;;;;;;0.8893704;0.42945647;-0.006469924;;;;;1022.2
1181.0;1122.2;;;;;;;;;;;;;;;;;-53.788876;4.6121097;-44.854576;;1022.2
1181.0;1122.2;;;;;;;;;;;;;;0.88253427;0.42829677;-0.003418073;;;;;1022.2
1181.0;1122.2;;;;;;;;;;;;;;;;;-55.04013;5.5543685;-45.396282;;1031.9
1181.0;1122.2;;;;;;;;;;;;;;0.8844264;0.44758445;0.0113528855;;;;;1031.9
1181.0;1122.2;;;;;;;;;;;;;;;;;-55.646687;6.9277015;-45.14832;;1031.9
1181.0;1122.2;;;;;;;;;;;;;;0.86733603;0.43781853;0.019409772;;;;;1031.9
1183.0;1123.0;;;;;;;;;;;;;;;;;-55.814537;8.716849;-45.319984;;1041.5
1183.0;1123.0;;;;;;;;;;;;;;0.854091;0.44654682;0.038819544;;;;;1041.5
1183.0;1123.0;;;;;;;;;;;;;;;;;-56.566055;8.980071;-45.113987;;1041.5
1183.0;1123.0;;;;;;;;;;;;;;0.8528703;0.4522843;0.04565569;;;;;1041.5
1183.0;1123.0;;;;;;;;;;;;;;;;;-56.428722;elo.87;-44.57228;;1051.1
1183.0;1123.0;;;;;;;;;;;;;;0.85464036;0.45564136;0.04651021;;;;;1051.1
1183.0;1123.0;;;;;;;;;;;;;;;;;-56.83691;8.098849;-44.114506;;1051.1
1183.0;1123.0;;;;;;;;;;;;;;0.85744804;0.46546832;0.038209174;;;;;1051.1
1183.0;1123.0;;;;;;;;;;;;;;;;;-57.142094;8.854182;-43.698692;;1060.8
1183.0;1123.0;;;;;;;;;;;;;;0.857387;0.48237556;0.047181617;;;;;1060.8
1183.0;1123.0;;;;;;;;;;;;;;;;;-58.25602;9.094516;-43.385876;;1060.8
1183.0;1123.0;;;;;;;;;;;;;;0.8568987;0.49922177;0.06085391;;;;;1060.8
1183.0;1126.9;;;;0.0;0.0;0.0;;;;;;;;;;;;;;;
1183.0;1126.9;;;;-0.32125476;0.007587434;-0.05685044;;;;;;;;;;;;;;;
1183.0;1126.9;;;;-0.9551698;-0.02349091;-0.22211078;;;;;;;;;;;;;;;
1183.0;1126.9;;;;-0.97867596;-0.027587894;-0.2363129;;;;;;;;;;;;;;;
1183.0;1126.9;;;;-0.979828;-0.02594376;-0.23708728;;;;;;;;;;;;;;;
1183.0;1137.0;;;;-0.980507;-0.025150303;-0.2375069;;;;;;;;;;;;;;;
1183.0;1137.0;;;;-0.98109066;-0.0237999;-0.23721698;;;;;;;;;;;;;;;
1183.0;1137.0;;;;-0.98083127;-0.02320099;-0.23672488;;;;;;;;;;;;;;;
1183.0;1137.0;;;;-0.9800683;-0.022239687;-0.23673633;;;;;;;;;;;;;;;
1183.0;1137.0;;;;-0.97906506;-0.021926882;-0.2373505;;;;;;;;;;;;;;;
1238.0;1138.3;57553;57407;11509;;;;;;;;;;;;;;;;;;
1238.0;1146.9;;;;-0.97797024;-0.021553041;-0.23764041;;;;;;;;;;;;;;;
1238.0;1146.9;;;;-0.9771234;-0.020957949;-0.23788074;;;;;;;;;;;;;;;
1238.0;1146.9;;;;-0.9767877;-0.020385744;-0.23796085;;;;;;;;;;;;;;;
1238.0;1146.9;;;;-0.9764863;-0.020042421;-0.23784259;;;;;;;;;;;;;;;
1238.0;1146.9;;;;-0.9767686;-0.019191744;-0.23738101;;;;;;;;;;;;;;;
1238.0;1157.1;;;;-0.9772378;-0.018672945;-0.23699191;;;;;;;;;;;;;;;
1238.0;1157.1;;;;-0.977707;-0.017974855;-0.23624423;;;;;;;;;;;;;;;
1238.0;1157.1;;;;-0.9779855;-0.017585756;-0.23662189;;;;;;;;;;;;;;;
1238.0;1157.1;;;;-0.9780351;-0.017196657;-0.23609164;;;;;;;;;;;;;;;
1238.0;1157.1;;;;-0.9773828;-0.016918184;-0.23600772;;;;;;;;;;;;;;;
1238.0;1158.4;73876;73966;11513;;;;;;;;;;;;;;;;;;
1238.0;1164.8;;;;;;;;;;;;;0;;;;;;;;
1238.0;1164.8;;;;;;;;;;;;;0;;;;;;;;
1238.0;1164.8;;;;;;;;;;;;;-1;;;;;;;;
1238.0;1164.8;;;;;;;;;;;;;-3;;;;;;;;
1238.0;1164.8;;;;;;;;;;;;;-4;;;;;;;;
1238.0;1167.2;;;;-0.9771043;-0.016998293;-0.23562244;;;;;;;;;;;;;;;
1238.0;1167.2;;;;-0.97641385;-0.016838076;-0.23441318;;;;;;;;;;;;;;;
1238.0;1167.2;;;;-0.9760705;-0.016757967;-0.23412707;;;;;;;;;;;;;;;
1238.0;1167.2;;;;-0.9757997;-0.016918184;-0.23355106;;;;;;;;;;;;;;;
1238.0;1167.2;;;;-0.97542965;-0.01740265;-0.23311237;;;;;;;;;;;;;;;
1240.0;1177.3;;;;-0.9752923;-0.017601015;-0.23263171;;;;;;;;;;;;;;;
1240.0;1177.3;;;;-0.9751245;-0.017616274;-0.23199084;;;;;;;;;;;;;;;
1240.0;1177.3;;;;-0.9749223;-0.017551424;-0.23118594;;;;;;;;;;;;;;;
1240.0;1177.3;;;;-0.9750596;-0.017902376;-0.23015216;;;;;;;;;;;;;;;
1240.0;1177.3;;;;-0.97543347;-0.0178566;-0.22957233;;;;;;;;;;;;;;;
1240.0;1178.6;90262;90131;11500;;;;;;;;;;;;;;;;;;
1240.0;1182.5;;;;;;;;;;;;;;;;;-58.957947;7.6448865;-42.92047;;1070.5
1240.0;1182.5;;;;;;;;;;;;;;0.85964537;0.5107578;0.06305124;;;;;1070.5
1240.0;1182.5;;;;;;;;;;;;;;;;;-59.19828;5.0393686;-42.73736;;1070.5
1240.0;1182.5;;;;;;;;;;;;;;0.8744774;0.5238807;0.04937895;;;;;1070.5
1240.0;1182.5;;;;;;;;;;;;;;;;;-58.702354;3.8262582;-42.020172;;1080.0
1240.0;1182.5;;;;;;;;;;;;;;0.87923825;0.52735984;0.040040284;;;;;1080.0
1240.0;1182.5;;;;;;;;;;;;;;;;;-57.660908;4.4557023;-41.821804;;1080.0
1240.0;1182.5;;;;;;;;;;;;;;0.8867458;0.52986234;0.041627247;;;;;1080.0
1240.0;1182.5;;;;;;;;;;;;;;;;;-55.79928;6.557665;-41.27247;;1089.6
1240.0;1182.5;;;;;;;;;;;;;;0.8867458;0.5246132;0.059511095;;;;;1089.6
1240.0;1182.5;;;;;;;;;;;;;;;;;-54.155098;7.1794796;-40.96347;;1089.6
1240.0;1182.5;;;;;;;;;;;;;;0.8827174;0.5206458;0.07196265;;;;;1089.6
1243.0;1183.6;;;;;;;;;;;;;;;;;-53.8728;6.1799984;-41.055023;;1099.3
1243.0;1183.6;;;;;;;;;;;;;;0.87838376;0.5146642;0.06646931;;;;;1099.3
1243.0;1183.6;;;;;;;;;;;;;;;;;-54.12076;5.592517;-41.211433;;1099.3
1243.0;1183.6;;;;;;;;;;;;;;0.8751488;0.50416577;0.058229316;;;;;1099.3
1243.0;1183.6;;;;;;;;;;;;;;;;;-54.261913;6.1418505;-41.150394;;1109.0
1243.0;1183.6;;;;;;;;;;;;;;0.8691061;0.49806207;0.062135685;;;;;1109.0
1243.0;1183.6;;;;;;;;;;;;;;;;;-54.38017;7.213813;-41.261024;;1109.0
1243.0;1183.6;;;;;;;;;;;;;;0.8611713;0.50001526;0.074098945;;;;;1109.0
1243.0;1183.6;;;;;;;;;;;;;;;;;-55.013428;7.6868496;-41.211433;;1118.7
1243.0;1183.6;;;;;;;;;;;;;;0.8509171;0.49501023;0.08514664;;;;;1118.7
1243.0;1183.6;;;;;;;;;;;;;;;;;-55.68102;6.260109;-40.80706;;1118.7
1243.0;1183.6;;;;;;;;;;;;;;0.8400525;0.4867702;0.07672353;;;;;1118.7
1243.0;1187.0;;;;-0.97493374;-0.018039705;-0.22966388;;;;;;;;;;;;;;;
1243.0;1187.0;;;;-0.9750825;-0.017993929;-0.2293053;;;;;;;;;;;;;;;
1243.0;1187.0;;;;-0.9750329;-0.018432619;-0.22895434;;;;;;;;;;;;;;;
1243.0;1187.0;;;;-0.97459805;-0.018104555;-0.2287598;;;;;;;;;;;;;;;
1243.0;1187.0;;;;-0.9746705;-0.018154146;-0.22885135;;;;;;;;;;;;;;;
1243.0;1197.0;;;;-0.9749719;-0.018608095;-0.22866824;;;;;;;;;;;;;;;
1243.0;1197.0;;;;-0.9756242;-0.018550875;-0.22910312;;;;;;;;;;;;;;;
1243.0;1197.0;;;;-0.9762193;-0.0189209;-0.22865298;;;;;;;;;;;;;;;
1243.0;1197.0;;;;-0.9772302;-0.019233705;-0.22829059;;;;;;;;;;;;;;;
1243.0;1197.0;;;;-0.97810376;-0.019599916;-0.22829059;;;;;;;;;;;;;;;
1243.0;1198.4;106535;106586;11503;;;;;;;;;;;;;;;;;;
1295.0;1204.8;;;;;;;;;;;;;-3;;;;;;;;
1295.0;1204.8;;;;;;;;;;;;;-11;;;;;;;;
1295.0;1204.8;;;;;;;;;;;;;-16;;;;;;;;
1295.0;1204.8;;;;;;;;;;;;;7;;;;;;;;
1295.0;1204.8;;;;;;;;;;;;;-17;;;;;;;;
1295.0;1207.1;;;;-0.9788629;-0.020168306;-0.22760013;;;;;;;;;;;;;;;
1295.0;1207.1;;;;-0.9792596;-0.02000046;-0.22780994;;;;;;;;;;;;;;;
1295.0;1207.1;;;;-0.9801065;-0.020416262;-0.2273598;;;;;;;;;;;;;;;
1295.0;1207.1;;;;-0.98059475;-0.021183016;-0.22776797;;;;;;;;;;;;;;;
1295.0;1207.1;;;;-0.98090374;-0.021411898;-0.22815326;;;;;;;;;;;;;;;
1295.0;1217.1;;;;-0.9809915;-0.0218277;-0.22836307;;;;;;;;;;;;;;;
1295.0;1217.1;;;;-0.9808084;-0.022251131;-0.2282944;;;;;;;;;;;;;;;
1295.0;1217.1;;;;-0.98139584;-0.023063662;-0.22863391;;;;;;;;;;;;;;;
1295.0;1217.1;;;;-0.98111737;-0.02314377;-0.22858813;;;;;;;;;;;;;;;
1295.0;1217.1;;;;-0.9810983;-0.023426058;-0.22843555;;;;;;;;;;;;;;;
1295.0;1218.5;122961;123018;11516;;;;;;;;;;;;;;;;;;
1295.0;1227.2;;;;-0.9810144;-0.023704533;-0.22912219;;;;;;;;;;;;;;;
1295.0;1227.2;;;;-0.9812318;-0.023876194;-0.22977069;;;;;;;;;;;;;;;
1295.0;1227.2;;;;-0.9808961;-0.024398807;-0.22983935;;;;;;;;;;;;;;;
1295.0;1227.2;;;;-0.9808732;-0.024818424;-0.22982791;;;;;;;;;;;;;;;
1295.0;1227.2;;;;-0.9803735;-0.025508884;-0.22991183;;;;;;;;;;;;;;;
1297.0;1237.3;;;;-0.9801904;-0.025909428;-0.2302399;;;;;;;;;;;;;;;
1297.0;1237.3;;;;-0.9796144;-0.026283268;-0.23053744;;;;;;;;;;;;;;;
1297.0;1237.3;;;;-0.9786416;-0.02688599;-0.23066714;;;;;;;;;;;;;;;
1297.0;1237.3;;;;-0.9776956;-0.027492527;-0.23143008;;;;;;;;;;;;;;;
1297.0;1237.3;;;;-0.97701657;-0.028442387;-0.23183826;;;;;;;;;;;;;;;
1297.0;1238.8;139393;139344;11526;;;;;;;;;;;;;;;;;;
1297.0;1242.6;;;;;;;;;;;;;;;;;-56.611835;4.203925;-40.52095;;1128.3
1297.0;1242.6;;;;;;;;;;;;;;0.8370617;0.47975096;0.051026948;;;;;1128.3
1297.0;1242.6;;;;;;;;;;;;;;;;;-56.272316;4.486221;-39.983063;;1128.3
1297.0;1242.6;;;;;;;;;;;;;;0.8333995;0.48268074;0.057618946;;;;;1128.3
1297.0;1242.6;;;;;;;;;;;;;;;;;-55.84124;4.863888;-39.57106;;1137.9
1297.0;1242.6;;;;;;;;;;;;;;0.8355968;0.4816431;0.06756798;;;;;1137.9
1297.0;1242.6;;;;;;;;;;;;;;;;;-54.651024;4.3679614;-39.07895;;1137.9
1297.0;1242.6;;;;;;;;;;;;;;0.839259;0.4923246;0.08496353;;;;;1137.9
1297.0;1242.6;;;;;;;;;;;;;;;;;-54.845573;2.166814;-38.7051;;1147.4
1297.0;1242.6;;;;;;;;;;;;;;0.8464003;0.4954985;0.07873776;;;;;1147.4
1297.0;1242.6;;;;;;;;;;;;;;;;;-54.345837;1.9722588;-38.834805;;1147.4
1297.0;1242.6;;;;;;;;;;;;;;0.8539689;0.50666827;0.08191168;;;;;1147.4
1298.0;1243.5;;;;;;;;;;;;;;;;;-52.39265;4.142888;-39.22391;;1157.1
1298.0;1243.5;;;;;;;;;;;;;;0.8674581;0.52375865;0.10235908;;;;;1157.1
1298.0;1243.5;;;;;;;;;;;;;;;;;-50.03891;6.263924;-39.651173;;1157.1
1298.0;1243.5;;;;;;;;;;;;;;0.8666036;0.5348674;0.11957152;;;;;1157.1
1298.0;1243.5;;;;;;;;;;;;;;;;;-48.154392;6.004517;-40.65447;;1166.8
1298.0;1243.5;;;;;;;;;;;;;;0.86556596;0.5339518;0.118717;;;;;1166.8
1298.0;1243.5;;;;;;;;;;;;;;;;;-46.7658;3.1281471;-41.88284;;1166.8
1298.0;1243.5;;;;;;;;;;;;;;0.86342967;0.52967924;0.091250345;;;;;1166.8
1298.0;1243.5;;;;;;;;;;;;;;;;;-45.297096;0.82018495;-43.0311;;1176.5
1298.0;1243.5;;;;;;;;;;;;;;0.8609882;0.5352336;0.07837153;;;;;1176.5
1298.0;1243.5;;;;;;;;;;;;;;;;;-43.57662;1.0910367;-44.137398;;1176.5
1298.0;1243.5;;;;;;;;;;;;;;0.8694113;0.53004545;0.08313242;;;;;1176.5
1298.0;1244.9;;;;;;;;;;;;;28;;;;;;;;
1298.0;1244.9;;;;;;;;;;;;;24;;;;;;;;
1298.0;1244.9;;;;;;;;;;;;;-58;;;;;;;;
1298.0;1244.9;;;;;;;;;;;;;237;;;;;;;;
1298.0;1244.9;;;;;;;;;;;;;-78;;;;;;;;
1298.0;1247.1;;;;-0.97634137;-0.02878571;-0.23175815;;;;;;;;;;;;;;;
1298.0;1247.1;;;;-0.975422;-0.029380802;-0.23209384;;;;;;;;;;;;;;;
1298.0;1247.1;;;;-0.9751855;-0.029762272;-0.23287585;;;;;;;;;;;;;;;
1298.0;1247.1;;;;-0.974434;-0.030315403;-0.23242953;;;;;;;;;;;;;;;
1298.0;1247.1;;;;-0.9735147;-0.03105164;-0.23242572;;;;;;;;;;;;;;;
1355.0;1257.0;;;;-0.9727632;-0.030891422;-0.23271564;;;;;;;;;;;;;;;
1355.0;1257.0;;;;-0.9716188;-0.031463627;-0.2321854;;;;;;;;;;;;;;;
1355.0;1257.0;;;;-0.9710618;-0.031333927;-0.2322922;;;;;;;;;;;;;;;
1355.0;1257.0;;;;-0.97148526;-0.031196598;-0.23308948;;;;;;;;;;;;;;;
1355.0;1257.0;;;;-0.9714662;-0.03144074;-0.23302844;;;;;;;;;;;;;;;
1355.0;1258.6;155755;155827;11520;;;;;;;;;;;;;;;;;;
1355.0;1267.0;;;;-0.9718896;-0.031551365;-0.23310092;;;;;;;;;;;;;;;
1355.0;1267.0;;;;-0.9722787;-0.03179932;-0.23298267;;;;;;;;;;;;;;;
1355.0;1267.0;;;;-0.9731866;-0.032848362;-0.23289111;;;;;;;;;;;;;;;
1355.0;1267.0;;;;-0.9740907;-0.033191685;-0.23254016;;;;;;;;;;;;;;;
1355.0;1267.0;;;;-0.97532284;-0.03411484;-0.23266605;;;;;;;;;;;;;;;
1355.0;1277.0;;;;-0.9762765;-0.03450394;-0.2325745;;;;;;;;;;;;;;;
1355.0;1277.0;;;;-0.97666943;-0.035011295;-0.23189548;;;;;;;;;;;;;;;
1355.0;1277.0;;;;-0.9773179;-0.034866337;-0.2308121;;;;;;;;;;;;;;;
1355.0;1277.0;;;;-0.97737515;-0.034904484;-0.23036578;;;;;;;;;;;;;;;
1355.0;1277.0;;;;-0.976452;-0.034881596;-0.2297974;;;;;;;;;;;;;;;
1355.0;1278.6;172178;172123;11528;;;;;;;;;;;;;;;;;;
1355.0;1284.9;;;;;;;;;;;;;-890;;;;;;;;
1355.0;1284.9;;;;;;;;;;;;;183;;;;;;;;
1355.0;1284.9;;;;;;;;;;;;;1833;;;;;;;;
1355.0;1284.9;;;;;;;;;;;;;-859;;;;;;;;
1355.0;1284.9;;;;;;;;;;;;;-9606;;;;;;;;
1358.0;1287.1;;;;-0.9753953;-0.034358982;-0.22832873;;;;;;;;;;;;;;;
1358.0;1287.1;;;;-0.9739038;-0.033767704;-0.22703174;;;;;;;;;;;;;;;
1358.0;1287.1;;;;-0.9727746;-0.033222202;-0.22587588;;;;;;;;;;;;;;;
1358.0;1287.1;;;;-0.9722787;-0.032810215;-0.22484592;;;;;;;;;;;;;;;
1358.0;1287.1;;;;-0.9713861;-0.031902317;-0.22413257;;;;;;;;;;;;;;;
1358.0;1297.2;;;;-0.97049725;-0.030906681;-0.22265628;;;;;;;;;;;;;;;
1358.0;1297.2;;;;-0.9696237;-0.030284885;-0.2212334;;;;;;;;;;;;;;;
1358.0;1297.2;;;;-0.9687959;-0.02964783;-0.2194672;;;;;;;;;;;;;;;
1358.0;1297.2;;;;-0.9678384;-0.029121403;-0.2180939;;;;;;;;;;;;;;;
1358.0;1297.2;;;;-0.96754086;-0.028644565;-0.21640018;;;;;;;;;;;;;;;
1358.0;1298.8;188512;188523;11534;;;;;;;;;;;;;;;;;;
1358.0;1302.8;;;;;;;;;;;;;;;;;-41.42506;5.920591;-44.21369;;1186.1
1358.0;1302.8;;;;;;;;;;;;;;0.87246317;0.52577287;0.13220619;;;;;1186.1
1358.0;1302.8;;;;;;;;;;;;;;;;;-39.78469;11.2384405;-44.0611;;1186.1
1358.0;1302.8;;;;;;;;;;;;;;0.8730735;0.5236976;0.19147313;;;;;1186.1
1358.0;1302.8;;;;;;;;;;;;;;;;;-38.693657;14.915922;-42.878506;;1195.7
1358.0;1302.8;;;;;;;;;;;;;;0.86111027;0.48188725;0.2230903;;;;;1195.7
1358.0;1302.8;;;;;;;;;;;;;;;;;-37.083805;17.16666;-42.775505;;1195.7
1358.0;1302.8;;;;;;;;;;;;;;0.85384685;0.46852016;0.24176763;;;;;1195.7
1358.0;1302.8;;;;;;;;;;;;;;;;;-35.149693;17.979218;-44.63332;;1205.3
1358.0;1302.8;;;;;;;;;;;;;;0.85872984;0.4697409;0.23273416;;;;;1205.3
1358.0;1302.8;;;;;;;;;;;;;;;;;-34.44395;20.542772;-46.506393;;1205.3
1358.0;1302.8;;;;;;;;;;;;;;0.8525651;0.5047761;0.21375164;;;;;1205.3
1364.0;1303.6;;;;;;;;;;;;;;;;;-34.985657;24.224068;-46.64754;;1215.0
1364.0;1303.6;;;;;;;;;;;;;;0.8407239;0.52735984;0.19611195;;;;;1215.0
1364.0;1303.6;;;;;;;;;;;;;;;;;-35.676136;28.099916;-45.82354;;1215.0
1364.0;1303.6;;;;;;;;;;;;;;0.82662433;0.5509201;0.19220558;;;;;1215.0
1364.0;1303.6;;;;;;;;;;;;;;;;;-36.77099;32.311474;-44.724873;;1224.7
1364.0;1303.6;;;;;;;;;;;;;;0.8106937;0.5706961;0.19830927;;;;;1224.7
1364.0;1303.6;;;;;;;;;;;;;;;;;-37.77047;35.126804;-43.55373;;1224.7
1364.0;1303.6;;;;;;;;;;;;;;0.8067263;0.5921201;0.21289712;;;;;1224.7
1364.0;1303.6;;;;;;;;;;;;;;;;;-39.62447;36.96173;-42.741173;;1234.3
1364.0;1303.6;;;;;;;;;;;;;;0.79427475;0.606708;0.22565386;;;;;1234.3
1364.0;1303.6;;;;;;;;;;;;;;;;;-40.887173;38.209175;-41.997284;;1234.3
1364.0;1303.6;;;;;;;;;;;;;;0.78328806;0.6257515;0.24207282;;;;;1234.3
1364.0;1307.2;;;;-0.96680844;-0.02821732;-0.21509936;;;;;;;;;;;;;;;
1364.0;1307.2;;;;-0.9665719;-0.02745438;-0.21392062;;;;;;;;;;;;;;;
1364.0;1307.2;;;;-0.96662533;-0.027458195;-0.21292499;;;;;;;;;;;;;;;
1364.0;1307.2;;;;-0.966118;-0.02739716;-0.21204379;;;;;;;;;;;;;;;
1364.0;1307.2;;;;-0.96566784;-0.02752686;-0.21181872;;;;;;;;;;;;;;;
1364.0;1317.2;;;;-0.9653741;-0.027801517;-0.21170428;;;;;;;;;;;;;;;
1364.0;1317.2;;;;-0.96556866;-0.027664188;-0.21088794;;;;;;;;;;;;;;;
1364.0;1317.2;;;;-0.96497357;-0.028156284;-0.21099094;;;;;;;;;;;;;;;
1364.0;1317.2;;;;-0.9643098;-0.02859116;-0.21062854;;;;;;;;;;;;;;;
1364.0;1317.2;;;;-0.96367276;-0.028545383;-0.20985416;;;;;;;;;;;;;;;
1418.0;1318.1;;;;;;;;;;;;;;;;;-40.80706;36.36662;-40.620136;;1244.0
1418.0;1318.1;;;;;;;;;;;;;;0.7772454;0.63618886;0.23633534;;;;;1244.0
1418.0;1318.1;;;;;;;;;;;;;;;;;-40.18906;33.37199;-39.49858;;1244.0
1418.0;1318.1;;;;;;;;;;;;;;0.7714469;0.63869137;0.22418897;;;;;1244.0
1418.0;1318.1;;;;;;;;;;;;;;;;;-39.384136;30.671103;-38.72799;;1253.5
1418.0;1318.1;;;;;;;;;;;;;;0.76973784;0.64461195;0.20001832;;;;;1253.5
1418.0;1318.1;;;;;;;;;;;;;;;;;-38.27403;29.648733;-37.953583;;1253.5
1418.0;1318.1;;;;;;;;;;;;;;0.77950376;0.6423536;0.18982513;;;;;1253.5
1418.0;1318.1;;;;;;;;;;;;;;;;;-37.58736;30.858028;-37.194435;;1263.2
1418.0;1318.1;;;;;;;;;;;;;;0.78615683;0.62715536;0.21295816;;;;;1263.2
1418.0;1318.1;;;;;;;;;;;;;;;;;-36.45436;30.40025;-36.98462;;1263.2
1418.0;1318.1;;;;;;;;;;;;;;0.78817105;0.61110264;0.22937712;;;;;1263.2
1418.0;1318.7;204824;204897;11529;;;;;;;;;;;;;;;;;;
1418.0;1325.0;;;;;;;;;;;;;-19466;;;;;;;;
1418.0;1325.0;;;;;;;;;;;;;-23927;;;;;;;;
1418.0;1325.0;;;;;;;;;;;;;-22299;;;;;;;;
1418.0;1325.0;;;;;;;;;;;;;-19384;;;;;;;;
1418.0;1325.0;;;;;;;;;;;;;-18658;;;;;;;;
1418.0;1327.0;;;;-0.962536;-0.028675083;-0.2090607;;;;;;;;;;;;;;;
1418.0;1327.0;;;;-0.9617692;-0.028251652;-0.20808032;;;;;;;;;;;;;;;
1418.0;1327.0;;;;-0.9606477;-0.02814484;-0.20763019;;;;;;;;;;;;;;;
1418.0;1327.0;;;;-0.959797;-0.028480534;-0.20772937;;;;;;;;;;;;;;;
1418.0;1327.0;;;;-0.95882046;-0.028961185;-0.20764163;;;;;;;;;;;;;;;
1419.0;1336.9;;;;-0.95730984;-0.029132847;-0.20756152;;;;;;;;;;;;;;;
1419.0;1336.9;;;;-0.95587933;-0.029186253;-0.20762637;;;;;;;;;;;;;;;
1419.0;1336.9;;;;-0.9543954;-0.029674534;-0.20838931;;;;;;;;;;;;;;;
1419.0;1336.9;;;;-0.95336926;-0.030513767;-0.20919421;;;;;;;;;;;;;;;
1419.0;1336.9;;;;-0.9526521;-0.031040195;-0.20957568;;;;;;;;;;;;;;;
1419.0;1338.7;221296;221379;11537;;;;;;;;;;;;;;;;;;
1419.0;1347.1;;;;-0.9527246;-0.03153992;-0.20941928;;;;;;;;;;;;;;;
1419.0;1347.1;;;;-0.9526025;-0.03216553;-0.20926288;;;;;;;;;;;;;;;
1419.0;1347.1;;;;-0.9529458;-0.032276157;-0.20980838;;;;;;;;;;;;;;;
1419.0;1347.1;;;;-0.9537431;-0.03244019;-0.21021274;;;;;;;;;;;;;;;
1419.0;1347.1;;;;-0.9544908;-0.03266907;-0.21041873;;;;;;;;;;;;;;;
1419.0;1357.2;;;;-0.95495236;-0.032772068;-0.21109393;;;;;;;;;;;;;;;
1419.0;1357.2;;;;-0.9556619;-0.03294373;-0.21188739;;;;;;;;;;;;;;;
1419.0;1357.2;;;;-0.95645916;-0.03337479;-0.2123833;;;;;;;;;;;;;;;
1419.0;1357.2;;;;-0.9573442;-0.033493046;-0.21322253;;;;;;;;;;;;;;;
1419.0;1357.2;;;;-0.95814145;-0.03364182;-0.21340564;;;;;;;;;;;;;;;
1419.0;1359.0;237675;237739;11536;;;;;;;;;;;;;;;;;;
1423.0;1362.8;;;;;;;;;;;;;;;;;-34.375286;27.336956;-37.060917;;1272.9
1423.0;1362.8;;;;;;;;;;;;;;0.78475296;0.5899838;0.21576586;;;;;1272.9
1423.0;1362.8;;;;;;;;;;;;;;;;;-31.815548;24.506365;-37.038025;;1272.9
1423.0;1362.8;;;;;;;;;;;;;;0.7818842;0.6061586;0.20447402;;;;;1272.9
1423.0;1362.8;;;;;;;;;;;;;;;;;-30.92288;24.17066;-37.114323;;1282.6
1423.0;1362.8;;;;;;;;;;;;;;0.78670615;0.6275216;0.20166631;;;;;1282.6
1423.0;1362.8;;;;;;;;;;;;;;;;;-30.152287;25.284584;-36.58025;;1282.6
1423.0;1362.8;;;;;;;;;;;;;;0.77425456;0.61311686;0.21234779;;;;;1282.6
1423.0;1362.8;;;;;;;;;;;;;;;;;-29.82803;24.20118;-36.68325;;1292.3
1423.0;1362.8;;;;;;;;;;;;;;0.773278;0.5973083;0.20850246;;;;;1292.3
1423.0;1362.8;;;;;;;;;;;;;;;;;-29.877623;22.755363;-36.53447;;1292.3
1423.0;1362.8;;;;;;;;;;;;;;0.7762688;0.5769219;0.20667134;;;;;1292.3
1423.0;1365.2;;;;;;;;;;;;;-18478;;;;;;;;
1423.0;1365.2;;;;;;;;;;;;;-17385;;;;;;;;
1423.0;1365.2;;;;;;;;;;;;;-16424;;;;;;;;
1423.0;1365.2;;;;;;;;;;;;;-15572;;;;;;;;
1423.0;1365.2;;;;;;;;;;;;;-14744;;;;;;;;
1423.0;1367.2;;;;-0.95883954;-0.03399277;-0.21411899;;;;;;;;;;;;;;;
1423.0;1367.2;;;;-0.9591371;-0.034042362;-0.21434787;;;;;;;;;;;;;;;
1423.0;1367.2;;;;-0.9592706;-0.034221653;-0.21545032;;;;;;;;;;;;;;;
1423.0;1367.2;;;;-0.9591142;-0.034042362;-0.21569827;;;;;;;;;;;;;;;
1423.0;1367.2;;;;-0.9583856;-0.034046177;-0.21633151;;;;;;;;;;;;;;;
1477.0;1377.2;;;;-0.95723736;-0.03381348;-0.21668246;;;;;;;;;;;;;;;
1477.0;1377.2;;;;-0.9558412;-0.03339768;-0.21686175;;;;;;;;;;;;;;;
1477.0;1377.2;;;;-0.95487607;-0.03312302;-0.21725085;;;;;;;;;;;;;;;
1477.0;1377.2;;;;-0.9534875;-0.03310776;-0.21762088;;;;;;;;;;;;;;;
1477.0;1377.2;;;;-0.95279324;-0.032768253;-0.21763995;;;;;;;;;;;;;;;
1477.0;1377.8;;;;;;;;;;;;;;;;;-29.98062;24.143957;-36.76336;;1301.9
1477.0;1377.8;;;;;;;;;;;;;;0.7777947;0.5775933;0.22229682;;;;;1301.9
1477.0;1377.8;;;;;;;;;;;;;;;;;-29.37788;27.275919;-36.610767;;1301.9
1477.0;1377.8;;;;;;;;;;;;;;0.77047026;0.56575215;0.24756615;;;;;1301.9
1477.0;1377.8;;;;;;;;;;;;;;;;;-28.87051;29.232918;-36.488693;;1311.5
1477.0;1377.8;;;;;;;;;;;;;;0.75228125;0.56318855;0.25995666;;;;;1311.5
1477.0;1377.8;;;;;;;;;;;;;;;;;-29.49614;29.030733;-36.397137;;1311.5
1477.0;1377.8;;;;;;;;;;;;;;0.74288154;0.56532484;0.25318155;;;;;1311.5
1477.0;1377.8;;;;;;;;;;;;;;;;;-30.926695;28.912474;-36.049988;;1321.0
1477.0;1377.8;;;;;;;;;;;;;;0.7356792;0.560564;0.2362743;;;;;1321.0
1477.0;1377.8;;;;;;;;;;;;;;;;;-31.983398;30.995361;-35.84399;;1321.0
1477.0;1377.8;;;;;;;;;;;;;;0.7270119;0.5650807;0.24182867;;;;;1321.0
1477.0;1378.9;254141;254062;11532;;;;;;;;;;;;;;;;;;
1477.0;1387.1;;;;-0.95193875;-0.032718662;-0.2182503;;;;;;;;;;;;;;;
1477.0;1387.1;;;;-0.9505235;-0.032695774;-0.21850589;;;;;;;;;;;;;;;
1477.0;1387.1;;;;-0.9495965;-0.032932285;-0.21935275;;;;;;;;;;;;;;;
1477.0;1387.1;;;;-0.9487306;-0.033214573;-0.21982577;;;;;;;;;;;;;;;
1477.0;1387.1;;;;-0.94843686;-0.033824924;-0.2201691;;;;;;;;;;;;;;;
1481.0;1397.1;;;;-0.9478189;-0.034412388;-0.22100833;;;;;;;;;;;;;;;
1481.0;1397.1;;;;-0.947384;-0.03512955;-0.22197726;;;;;;;;;;;;;;;
1481.0;1397.1;;;;-0.9473001;-0.035732273;-0.22221759;;;;;;;;;;;;;;;
1481.0;1397.1;;;;-0.9471971;-0.036602024;-0.22270206;;;;;;;;;;;;;;;
1481.0;1397.1;;;;-0.9473802;-0.037185673;-0.22308353;;;;;;;;;;;;;;;
1481.0;1399.0;262143;262143;11523;;;;;;;;;;;;;;;;;;
1481.0;1405.3;;;;;;;;;;;;;-14225;;;;;;;;
1481.0;1405.3;;;;;;;;;;;;;-13535;;;;;;;;
1481.0;1405.3;;;;;;;;;;;;;-12624;;;;;;;;
1481.0;1405.3;;;;;;;;;;;;;-11865;;;;;;;;
1481.0;1405.3;;;;;;;;;;;;;-11346;;;;;;;;
1481.0;1407.2;;;;-0.94786465;-0.038009647;-0.22408298;;;;;;;;;;;;;;;
1481.0;1407.2;;;;-0.94822323;-0.03847504;-0.2242432;;;;;;;;;;;;;;;
1481.0;1407.2;;;;-0.94853985;-0.038925175;-0.22440341;;;;;;;;;;;;;;;
1481.0;1407.2;;;;-0.948845;-0.03972626;-0.22488406;;;;;;;;;;;;;;;
1481.0;1407.2;;;;-0.949154;-0.040142063;-0.22441486;;;;;;;;;;;;;;;
1481.0;1417.3;;;;-0.9491502;-0.04074097;-0.22401813;;;;;;;;;;;;;;;
1481.0;1417.3;;;;-0.9493829;-0.040802006;-0.2237511;;;;;;;;;;;;;;;
1481.0;1417.3;;;;-0.9491731;-0.04095078;-0.22355273;;;;;;;;;;;;;;;
1481.0;1417.3;;;;-0.9488374;-0.040946964;-0.2233887;;;;;;;;;;;;;;;
1481.0;1417.3;;;;-0.9487115;-0.041286472;-0.22342685;;;;;;;;;;;;;;;
1481.0;1419.2;262143;262143;11541;;;;;;;;;;;;;;;;;;
1484.0;1423.1;;;;;;;;;;;;;;;;;-32.69677;33.44066;-35.039062;;1330.7
1484.0;1423.1;;;;;;;;;;;;;;0.7215796;0.56123537;0.2567217;;;;;1330.7
1484.0;1423.1;;;;;;;;;;;;;;;;;-33.574177;34.306618;-34.558395;;1330.7
1484.0;1423.1;;;;;;;;;;;;;;0.7198706;0.5727714;0.26172674;;;;;1330.7
1484.0;1423.1;;;;;;;;;;;;;;;;;-34.962765;33.413956;-34.47447;;1340.3
1484.0;1423.1;;;;;;;;;;;;;;0.72493666;0.5823542;0.25995666;;;;;1340.3
1484.0;1423.1;;;;;;;;;;;;;;;;;-36.725212;30.728323;-33.730583;;1340.3
1484.0;1423.1;;;;;;;;;;;;;;0.73543507;0.5807062;0.2379223;;;;;1340.3
1484.0;1423.1;;;;;;;;;;;;;;;;;-36.488693;29.442732;-33.413956;;1349.9
1484.0;1423.1;;;;;;;;;;;;;;0.7311624;0.58754236;0.2369457;;;;;1349.9
1484.0;1423.1;;;;;;;;;;;;;;;;;-36.450546;29.183325;-33.200325;;1349.9
1484.0;1423.1;;;;;;;;;;;;;;0.74434644;0.6090884;0.23053682;;;;;1349.9
1484.0;1427.3;;;;-0.9490129;-0.04138947;-0.22266772;;;;;;;;;;;;;;;
1484.0;1427.3;;;;-0.9493028;-0.041378025;-0.2222977;;;;;;;;;;;;;;;
1484.0;1427.3;;;;-0.9504739;-0.041725162;-0.22219089;;;;;;;;;;;;;;;
1484.0;1427.3;;;;-0.9521333;-0.041866306;-0.22175983;;;;;;;;;;;;;;;
1484.0;1427.3;;;;-0.9538995;-0.04263306;-0.22154239;;;;;;;;;;;;;;;
1484.0;1437.3;;;;-0.95577633;-0.04276276;-0.22207263;;;;;;;;;;;;;;;
1484.0;1437.3;;;;-0.95769894;-0.042961124;-0.22213367;;;;;;;;;;;;;;;
1484.0;1437.3;;;;-0.96026623;-0.04328156;-0.2226868;;;;;;;;;;;;;;;
1484.0;1437.3;;;;-0.9625169;-0.0436554;-0.22348407;;;;;;;;;;;;;;;
1484.0;1437.3;;;;-0.96507275;-0.04428864;-0.2240639;;;;;;;;;;;;;;;
1536.0;1438.5;;;;;;;;;;;;;;;;;-36.301765;31.052584;-32.31529;;1359.6
1536.0;1438.5;;;;;;;;;;;;;;0.72798854;0.60353404;0.24359874;;;;;1359.6
1536.0;1438.5;;;;;;;;;;;;;;;;;-37.17536;30.48036;-31.868954;;1359.6
1536.0;1438.5;;;;;;;;;;;;;;0.7144383;0.59559923;0.24536882;;;;;1359.6
1536.0;1438.5;;;;;;;;;;;;;;;;;-37.25547;28.36314;-31.060213;;1369.2
1536.0;1438.5;;;;;;;;;;;;;;0.7142552;0.5766167;0.2544023;;;;;1369.2
1536.0;1438.5;;;;;;;;;;;;;;;;;-36.015656;27.375103;-30.762657;;1369.2
1536.0;1438.5;;;;;;;;;;;;;;0.71303445;0.57203895;0.26673177;;;;;1369.2
1536.0;1438.5;;;;;;;;;;;;;;;;;-34.092987;27.75277;-30.31251;;1378.9
1536.0;1438.5;;;;;;;;;;;;;;0.6959441;0.56337166;0.30262154;;;;;1378.9
1536.0;1438.5;;;;;;;;;;;;;;;;;-31.819363;25.482956;-29.843288;;1378.9
1536.0;1438.5;;;;;;;;;;;;;;0.68422496;0.5598926;0.310007;;;;;1378.9
1536.0;1439.1;262143;262143;11539;;;;;;;;;;;;;;;;;;
1536.0;1445.4;;;;;;;;;;;;;-10886;;;;;;;;
1536.0;1445.4;;;;;;;;;;;;;-10333;;;;;;;;
1536.0;1445.4;;;;;;;;;;;;;-9610;;;;;;;;
1536.0;1445.4;;;;;;;;;;;;;-8884;;;;;;;;
1536.0;1445.4;;;;;;;;;;;;;-8357;;;;;;;;
1536.0;1447.1;;;;-0.96759427;-0.044105534;-0.22522739;;;;;;;;;;;;;;;
1536.0;1447.1;;;;-0.96961224;-0.044212345;-0.2249451;;;;;;;;;;;;;;;
1536.0;1447.1;;;;-0.9719087;-0.04435349;-0.22565845;;;;;;;;;;;;;;;
1536.0;1447.1;;;;-0.97358334;-0.04451752;-0.22639087;;;;;;;;;;;;;;;
1536.0;1447.1;;;;-0.9757043;-0.043773655;-0.22657779;;;;;;;;;;;;;;;
1539.0;1457.1;;;;-0.97695553;-0.04284287;-0.22665027;;;;;;;;;;;;;;;
1539.0;1457.1;;;;-0.97807324;-0.04190064;-0.22640231;;;;;;;;;;;;;;;
1539.0;1457.1;;;;-0.9789964;-0.04098511;-0.22645953;;;;;;;;;;;;;;;
1539.0;1457.1;;;;-0.97937405;-0.039844517;-0.2269707;;;;;;;;;;;;;;;
1539.0;1457.1;;;;-0.9798356;-0.039272312;-0.2271004;;;;;;;;;;;;;;;
1539.0;1459.1;262143;262143;11546;;;;;;;;;;;;;;;;;;
1539.0;1467.2;;;;-0.9802133;-0.038349155;-0.2276459;;;;;;;;;;;;;;;
1539.0;1467.2;;;;-0.98088086;-0.037212376;-0.22792819;;;;;;;;;;;;;;;
1539.0;1467.2;;;;-0.9817468;-0.036579136;-0.22890475;;;;;;;;;;;;;;;
1539.0;1467.2;;;;-0.98324215;-0.036182407;-0.22977069;;;;;;;;;;;;;;;
1539.0;1467.2;;;;-0.9854547;-0.035758976;-0.23038486;;;;;;;;;;;;;;;
1539.0;1477.3;;;;-0.98718655;-0.035240177;-0.23075488;;;;;;;;;;;;;;;
1539.0;1477.3;;;;-0.9891931;-0.034759525;-0.23093417;;;;;;;;;;;;;;;
1539.0;1477.3;;;;-0.9904405;-0.03364945;-0.23048022;;;;;;;;;;;;;;;
1539.0;1477.3;;;;-0.99154294;-0.032932285;-0.23056415;;;;;;;;;;;;;;;
1539.0;1477.3;;;;-0.9928018;-0.031780247;-0.23134997;;;;;;;;;;;;;;;
1539.0;1479.4;262143;262143;11539;;;;;;;;;;;;;;;;;;
1542.0;1483.2;;;;;;;;;;;;;;;;;-29.934843;22.785881;-29.095585;;1388.4
1542.0;1483.2;;;;;;;;;;;;;;0.6690878;0.5614185;0.30762658;;;;;1388.4
1542.0;1483.2;;;;;;;;;;;;;;;;;-28.67214;20.008698;-28.233437;;1388.4
1542.0;1483.2;;;;;;;;;;;;;;0.66566974;0.5635548;0.2872402;;;;;1388.4
1542.0;1483.2;;;;;;;;;;;;;;;;;-27.287363;18.707848;-27.504807;;1398.0
1542.0;1483.2;;;;;;;;;;;;;;0.65681934;0.57997376;0.2865688;;;;;1398.0
1542.0;1483.2;;;;;;;;;;;;;;;;;-26.932585;19.268625;-27.03177;;1398.0
1542.0;1483.2;;;;;;;;;;;;;;0.6408887;0.5953551;0.3020722;;;;;1398.0
1542.0;1483.2;;;;;;;;;;;;;;;;;-26.12003;19.291513;-25.925474;;1407.7
1542.0;1483.2;;;;;;;;;;;;;;0.6367992;0.59529406;0.31556138;;;;;1407.7
1542.0;1483.2;;;;;;;;;;;;;;;;;-25.307474;18.475143;-24.868769;;1407.7
1542.0;1483.2;;;;;;;;;;;;;;0.63185525;0.60750145;0.31299785;;;;;1407.7
1542.0;1485.5;;;;;;;;;;;;;-7880;;;;;;;;
1542.0;1485.5;;;;;;;;;;;;;-7268;;;;;;;;
1542.0;1485.5;;;;;;;;;;;;;-6819;;;;;;;;
1542.0;1485.5;;;;;;;;;;;;;-6866;;;;;;;;
1542.0;1485.5;;;;;;;;;;;;;-7189;;;;;;;;
1542.0;1487.3;;;;-0.9942056;-0.030387882;-0.23205951;;;;;;;;;;;;;;;
1542.0;1487.3;;;;-0.99565136;-0.029197697;-0.23213199;;;;;;;;;;;;;;;
1542.0;1487.3;;;;-0.9972955;-0.028358463;-0.23293689;;;;;;;;;;;;;;;
1542.0;1487.3;;;;-0.9987985;-0.026981357;-0.23375705;;;;;;;;;;;;;;;
1542.0;1487.3;;;;-1.0003701;-0.02606583;-0.23472217;;;;;;;;;;;;;;;
1595.0;1490.7;;;;;;;;;;;;;;;;;-25.543993;17.811365;-24.06766;;1417.3
1595.0;1490.7;;;;;;;;;;;;;;0.6277047;0.6107364;0.32264167;;;;;1417.3
1595.0;1490.7;;;;;;;;;;;;;;;;;-25.917845;16.28544;-23.155918;;1417.3
1595.0;1490.7;;;;;;;;;;;;;;0.6311838;0.6053041;0.3360088;;;;;1417.3
1595.0;1490.7;;;;;;;;;;;;;;;;;-25.559252;14.85107;-22.358622;;1426.9
1595.0;1490.7;;;;;;;;;;;;;;0.64027834;0.6032899;0.33771783;;;;;1426.9
1595.0;1490.7;;;;;;;;;;;;;;;;;-24.113438;14.450515;-21.546068;;1426.9
1595.0;1490.7;;;;;;;;;;;;;;0.6388745;0.60426646;0.3559679;;;;;1426.9
1595.0;1490.7;;;;;;;;;;;;;;;;;-22.785881;13.492996;-20.836512;;1436.6
1595.0;1490.7;;;;;;;;;;;;;;0.64375746;0.6057924;0.352855;;;;;1436.6
1595.0;1490.7;;;;;;;;;;;;;;;;;-21.519365;13.363293;-20.039215;;1436.6
1595.0;1490.7;;;;;;;;;;;;;;0.65034944;0.6194647;0.3437605;;;;;1436.6
1595.0;1497.2;;;;-1.0023309;-0.025802616;-0.23478702;;;;;;;;;;;;;;;
1595.0;1497.2;;;;-1.0038186;-0.024650577;-0.23471835;;;;;;;;;;;;;;;
1595.0;1497.2;;;;-1.0050927;-0.024086002;-0.23472598;;;;;;;;;;;;;;;
1595.0;1497.2;;;;-1.0064622;-0.023426058;-0.2339249;;;;;;;;;;;;;;;
1595.0;1497.2;;;;-1.007908;-0.022994997;-0.23332599;;;;;;;;;;;;;;;
1595.0;1499.3;262143;262143;11554;;;;;;;;;;;;;;;;;;
1595.0;1507.2;;;;-1.0090066;-0.02245331;-0.23278812;;;;;;;;;;;;;;;
1595.0;1507.2;;;;-1.0103723;-0.02151871;-0.23254016;;;;;;;;;;;;;;;
1595.0;1507.2;;;;-1.0111848;-0.020828249;-0.23235324;;;;;;;;;;;;;;;
1595.0;1507.2;;;;-1.01252;-0.02048874;-0.23244861;;;;;;;;;;;;;;;
1595.0;1507.2;;;;-1.0136186;-0.019207003;-0.2329674;;;;;;;;;;;;;;;
1598.0;1517.2;;;;-1.0145875;-0.01822281;-0.23274997;;;;;;;;;;;;;;;
1598.0;1517.2;;;;-1.0155565;-0.017284395;-0.23255923;;;;;;;;;;;;;;;
1598.0;1517.2;;;;-1.0169297;-0.016113283;-0.23183063;;;;;;;;;;;;;;;
1598.0;1517.2;;;;-1.0182267;-0.015010836;-0.23161319;;;;;;;;;;;;;;;
1598.0;1517.2;;;;-1.0194169;-0.013679506;-0.23110583;;;;;;;;;;;;;;;
1598.0;1519.4;262143;262143;11545;;;;;;;;;;;;;;;;;;
1598.0;1525.6;;;;;;;;;;;;;-7283;;;;;;;;
1598.0;1525.6;;;;;;;;;;;;;-6806;;;;;;;;
1598.0;1525.6;;;;;;;;;;;;;-5804;;;;;;;;
1598.0;1525.6;;;;;;;;;;;;;-4930;;;;;;;;
1598.0;1525.6;;;;;;;;;;;;;-4536;;;;;;;;
1598.0;1527.3;;;;-1.019745;-0.01236725;-0.23030856;;;;;;;;;;;;;;;
1598.0;1527.3;;;;-1.0200387;-0.010932923;-0.22970203;;;;;;;;;;;;;;;
1598.0;1527.3;;;;-1.020218;-0.009449006;-0.22887042;;;;;;;;;;;;;;;
1598.0;1527.3;;;;-1.0196992;-0.0085868845;-0.2278786;;;;;;;;;;;;;;;
1598.0;1527.3;;;;-1.0194322;-0.0074043283;-0.22691348;;;;;;;;;;;;;;;
1598.0;1537.4;;;;-1.0187227;-0.006275178;-0.22584918;;;;;;;;;;;;;;;
1598.0;1537.4;;;;-1.0185472;-0.005802155;-0.22397617;;;;;;;;;;;;;;;
1598.0;1537.4;;;;-1.017975;-0.005260468;-0.22238544;;;;;;;;;;;;;;;
1598.0;1537.4;;;;-1.0172197;-0.004779816;-0.22087482;;;;;;;;;;;;;;;
1598.0;1537.4;;;;-1.0167009;-0.004867554;-0.22020724;;;;;;;;;;;;;;;
1598.0;1539.6;262143;262143;11555;;;;;;;;;;;;;;;;;;
1602.0;1543.4;;;;;;;;;;;;;;;;;-20.203253;14.587848;-19.116032;;1446.2
1602.0;1543.4;;;;;;;;;;;;;;0.6485183;0.6156804;0.34980315;;;;;1446.2
1602.0;1543.4;;;;;;;;;;;;;;;;;-19.46318;15.812403;-18.635365;;1446.2
1602.0;1543.4;;;;;;;;;;;;;;0.6432691;0.6211127;0.35425887;;;;;1446.2
1602.0;1543.4;;;;;;;;;;;;;;;;;-18.387402;15.915403;-17.429884;;1455.8
1602.0;1543.4;;;;;;;;;;;;;;0.63356423;0.6172674;0.3543199;;;;;1455.8
1602.0;1543.4;;;;;;;;;;;;;;;;;-18.395031;14.625996;-16.537218;;1455.8
1602.0;1543.4;;;;;;;;;;;;;;0.62733847;0.62190616;0.3284402;;;;;1455.8
1602.0;1543.4;;;;;;;;;;;;;;;;;-19.016848;13.11533;-15.484328;;1465.5
1602.0;1543.4;;;;;;;;;;;;;;0.62349313;0.6292306;0.29663992;;;;;1465.5
1602.0;1543.4;;;;;;;;;;;;;;;;;-20.496994;13.672293;-14.580218;;1465.5
1602.0;1543.4;;;;;;;;;;;;;;0.62947476;0.63161105;0.2872402;;;;;1465.5
1602.0;1547.4;;;;-1.0159456;-0.0053138738;-0.2205315;;;;;;;;;;;;;;;
1602.0;1547.4;;;;-1.0148965;-0.005474091;-0.22004703;;;;;;;;;;;;;;;
1602.0;1547.4;;;;-1.0133172;-0.0063667307;-0.22021487;;;;;;;;;;;;;;;
1602.0;1547.4;;;;-1.0117112;-0.007068635;-0.22014621;;;;;;;;;;;;;;;
1602.0;1547.4;;;;-1.0098726;-0.008129121;-0.21988681;;;;;;;;;;;;;;;
1603.0;1550.9;;;;;;;;;;;;;;;;;-21.958069;17.124699;-13.443404;;1475.2
1603.0;1550.9;;;;;;;;;;;;;;0.62318796;0.62532425;0.32502213;;;;;1475.2
1603.0;1550.9;;;;;;;;;;;;;;;;;-22.419659;19.421217;-12.329478;;1475.2
1603.0;1550.9;;;;;;;;;;;;;;0.61525315;0.6108585;0.36170536;;;;;1475.2
1603.0;1550.9;;;;;;;;;;;;;;;;;-22.591326;19.375439;-11.516922;;1484.8
1603.0;1550.9;;;;;;;;;;;;;;0.6155583;0.61635184;0.36365855;;;;;1484.8
1603.0;1550.9;;;;;;;;;;;;;;;;;-23.682364;20.17655;-10.799738;;1484.8
1603.0;1550.9;;;;;;;;;;;;;;0.6201972;0.62086856;0.36548966;;;;;1484.8
1603.0;1550.9;;;;;;;;;;;;;;;;;-24.88403;22.48451;-10.223701;;1494.4
1603.0;1550.9;;;;;;;;;;;;;;0.6227607;0.6297189;0.38740197;;;;;1494.4
1603.0;1550.9;;;;;;;;;;;;;;;;;-25.242622;23.194067;-9.426405;;1494.4
1603.0;1550.9;;;;;;;;;;;;;;0.62428665;0.62984097;0.39344463;;;;;1494.4
1603.0;1557.4;;;;-1.0071794;-0.00933838;-0.21974185;;;;;;;;;;;;;;;
1603.0;1557.4;;;;-1.0048295;-0.011005403;-0.21981815;;;;;;;;;;;;;;;
1603.0;1557.4;;;;-1.0020944;-0.01211548;-0.21944812;;;;;;;;;;;;;;;
1603.0;1557.4;;;;-0.9995843;-0.013324739;-0.21934131;;;;;;;;;;;;;;;
1603.0;1557.4;;;;-0.99639523;-0.014305117;-0.21893695;;;;;;;;;;;;;;;
1603.0;1559.5;262143;262143;11557;;;;;;;;;;;;;;;;;;
1603.0;1565.7;;;;;;;;;;;;;-4202;;;;;;;;
1603.0;1565.7;;;;;;;;;;;;;-3597;;;;;;;;
1603.0;1565.7;;;;;;;;;;;;;-3598;;;;;;;;
1603.0;1565.7;;;;;;;;;;;;;-4465;;;;;;;;
1603.0;1565.7;;;;;;;;;;;;;-2674;;;;;;;;
1655.0;1567.3;;;;-0.9937631;-0.015789034;-0.21870425;;;;;;;;;;;;;;;
1655.0;1567.3;;;;-0.99108136;-0.017463686;-0.21791843;;;;;;;;;;;;;;;
1655.0;1567.3;;;;-0.98871624;-0.01873398;-0.21764377;;;;;;;;;;;;;;;
1655.0;1567.3;;;;-0.9865304;-0.02017975;-0.21730426;;;;;;;;;;;;;;;
1655.0;1567.3;;;;-0.98461163;-0.021175386;-0.21720126;;;;;;;;;;;;;;;
1655.0;1577.1;;;;-0.9828416;-0.02257538;-0.21732715;;;;;;;;;;;;;;;
1655.0;1577.1;;;;-0.9816247;-0.023895267;-0.21702197;;;;;;;;;;;;;;;
1655.0;1577.1;;;;-0.98036206;-0.025184635;-0.21691135;;;;;;;;;;;;;;;
1655.0;1577.1;;;;-0.980034;-0.026630405;-0.21703342;;;;;;;;;;;;;;;
1655.0;1577.1;;;;-0.9795381;-0.027717594;-0.21720889;;;;;;;;;;;;;;;
1655.0;1579.4;262143;262143;11557;;;;;;;;;;;;;;;;;;
1655.0;1587.2;;;;-0.97909176;-0.028697971;-0.21764758;;;;;;;;;;;;;;;
1655.0;1587.2;;;;-0.9792367;-0.02985001;-0.21812442;;;;;;;;;;;;;;;
1655.0;1587.2;;;;-0.97905743;-0.03079987;-0.21802524;;;;;;;;;;;;;;;
1655.0;1587.2;;;;-0.9788133;-0.032024387;-0.21857074;;;;;;;;;;;;;;;
1655.0;1587.2;;;;-0.97861874;-0.03257752;-0.21875003;;;;;;;;;;;;;;;
1655.0;1597.3;;;;-0.97771466;-0.03322983;-0.21899799;;;;;;;;;;;;;;;
1655.0;1597.3;;;;-0.97740185;-0.034069065;-0.219677;;;;;;;;;;;;;;;
1655.0;1597.3;;;;-0.9764329;-0.034515385;-0.22030261;;;;;;;;;;;;;;;
1655.0;1597.3;;;;-0.97566235;-0.03490067;-0.22003177;;;;;;;;;;;;;;;
1655.0;1597.3;;;;-0.9746171;-0.035167698;-0.21968463;;;;;;;;;;;;;;;
1657.0;1599.7;262143;262143;11550;;;;;;;;;;;;;;;;;;
1657.0;1603.4;;;;;;;;;;;;;;;;;-24.754326;22.144993;-8.571886;;1503.9
1657.0;1603.4;;;;;;;;;;;;;;0.6284982;0.63307595;0.38453323;;;;;1503.9
1657.0;1603.4;;;;;;;;;;;;;;;;;-25.234991;21.10355;-8.09122;;1503.9
1657.0;1603.4;;;;;;;;;;;;;;0.6389355;0.6245308;0.3686636;;;;;1503.9
1657.0;1603.4;;;;;;;;;;;;;;;;;-24.86114;21.668142;-7.362591;;1513.6
1657.0;1603.4;;;;;;;;;;;;;;0.6367382;0.61812186;0.3782464;;;;;1513.6
1657.0;1603.4;;;;;;;;;;;;;;;;;-24.605549;21.53081;-6.698813;;1513.6
1657.0;1603.4;;;;;;;;;;;;;;0.63753164;0.6081118;0.37696463;;;;;1513.6
1657.0;1603.4;;;;;;;;;;;;;;;;;-24.563585;21.416365;-6.126591;;1523.3
1657.0;1603.4;;;;;;;;;;;;;;0.62929165;0.59688103;0.39265114;;;;;1523.3
1657.0;1603.4;;;;;;;;;;;;;;;;;-23.78155;20.027771;-5.447554;;1523.3
1657.0;1603.4;;;;;;;;;;;;;;0.61952573;0.5840022;0.39759514;;;;;1523.3
1657.0;1605.8;;;;;;;;;;;;;-337;;;;;;;;
1657.0;1605.8;;;;;;;;;;;;;-9422;;;;;;;;
1657.0;1605.8;;;;;;;;;;;;;-30608;;;;;;;;
1657.0;1605.8;;;;;;;;;;;;;-44458;;;;;;;;
1657.0;1605.8;;;;;;;;;;;;;-34532;;;;;;;;
1657.0;1607.3;;;;-0.9743844;-0.035114292;-0.21932223;;;;;;;;;;;;;;;
1657.0;1607.3;;;;-0.9732667;-0.035617832;-0.21851733;;;;;;;;;;;;;;;
1657.0;1607.3;;;;-0.9724504;-0.035865787;-0.21793368;;;;;;;;;;;;;;;
1657.0;1607.3;;;;-0.9717065;-0.0359993;-0.21709827;;;;;;;;;;;;;;;
1657.0;1607.3;;;;-0.9713708;-0.036106113;-0.21641925;;;;;;;;;;;;;;;
1717.0;1610.9;;;;;;;;;;;;;;;;;-22.385326;16.933958;-4.993591;;1533.0
1717.0;1610.9;;;;;;;;;;;;;;0.6072573;0.588641;0.38392285;;;;;1533.0
1717.0;1610.9;;;;;;;;;;;;;;;;;-21.870327;12.218848;-4.5167394;;1533.0
1717.0;1610.9;;;;;;;;;;;;;;0.610065;0.60158086;0.3482162;;;;;1533.0
1717.0;1610.9;;;;;;;;;;;;;;;;;-22.274696;10.139774;-3.9254432;;1542.7
1717.0;1610.9;;;;;;;;;;;;;;0.6151921;0.60786766;0.35358745;;;;;1542.7
1717.0;1610.9;;;;;;;;;;;;;;;;;-22.267067;10.0177;-3.543962;;1542.7
1717.0;1610.9;;;;;;;;;;;;;;0.6134831;0.60567033;0.38190863;;;;;1542.7
1717.0;1610.9;;;;;;;;;;;;;;;;;-20.859402;9.781182;-3.0632956;;1552.3
1717.0;1610.9;;;;;;;;;;;;;;0.6140934;0.59993285;0.39429915;;;;;1552.3
1717.0;1610.9;;;;;;;;;;;;;;;;;-18.96344;9.094516;-2.8191473;;1552.3
1717.0;1610.9;;;;;;;;;;;;;;0.6076235;0.590289;0.38575396;;;;;1552.3
1717.0;1617.2;;;;-0.9710351;-0.0363884;-0.2156525;;;;;;;;;;;;;;;
1717.0;1617.2;;;;-0.9710351;-0.036560062;-0.21487048;;;;;;;;;;;;;;;
1717.0;1617.2;;;;-0.9711038;-0.03684235;-0.21430972;;;;;;;;;;;;;;;
1717.0;1617.2;;;;-0.9715463;-0.03722382;-0.2142792;;;;;;;;;;;;;;;
1717.0;1617.2;;;;-0.9714891;-0.0377121;-0.21408847;;;;;;;;;;;;;;;
1717.0;1619.6;262143;262143;11548;;;;;;;;;;;;;;;;;;
1717.0;1627.1;;;;-0.9712106;-0.038307194;-0.21421054;;;;;;;;;;;;;;;
1717.0;1627.1;;;;-0.9703828;-0.039081577;-0.21340564;;;;;;;;;;;;;;;
1717.0;1627.1;;;;-0.9695779;-0.039421085;-0.21302417;;;;;;;;;;;;;;;
1717.0;1627.1;;;;-0.9681512;-0.040508274;-0.21277621;;;;;;;;;;;;;;;
1717.0;1627.1;;;;-0.9666978;-0.041141514;-0.21281436;;;;;;;;;;;;;;;
1719.0;1637.1;;;;-0.965664;-0.04220963;-0.2123299;;;;;;;;;;;;;;;
1719.0;1637.1;;;;-0.9642831;-0.04330826;-0.21195605;;;;;;;;;;;;;;;
1719.0;1637.1;;;;-0.9628984;-0.04421616;-0.21253207;;;;;;;;;;;;;;;
1719.0;1637.1;;;;-0.9617082;-0.045528416;-0.21250156;;;;;;;;;;;;;;;
1719.0;1637.1;;;;-0.96091473;-0.04616547;-0.21266177;;;;;;;;;;;;;;;
1719.0;1639.6;262143;262143;11552;;;;;;;;;;;;;;;;;;
1719.0;1645.8;;;;;;;;;;;;;-9715;;;;;;;;
1719.0;1645.8;;;;;;;;;;;;;6506;;;;;;;;
1719.0;1645.8;;;;;;;;;;;;;5855;;;;;;;;
1719.0;1645.8;;;;;;;;;;;;;507;;;;;;;;
1719.0;1645.8;;;;;;;;;;;;;1039;;;;;;;;
1719.0;1647.2;;;;-0.96035016;-0.04715348;-0.21293643;;;;;;;;;;;;;;;
1719.0;1647.2;;;;-0.960045;-0.04808808;-0.21301273;;;;;;;;;;;;;;;
1719.0;1647.2;;;;-0.9595758;-0.04841233;-0.21253207;;;;;;;;;;;;;;;
1719.0;1647.2;;;;-0.95933926;-0.048576362;-0.21222308;;;;;;;;;;;;;;;
1719.0;1647.2;;;;-0.9586412;-0.04848481;-0.21231845;;;;;;;;;;;;;;;
1719.0;1657.3;;;;-0.9572984;-0.048320778;-0.21196368;;;;;;;;;;;;;;;
1719.0;1657.3;;;;-0.9560472;-0.04783631;-0.21138385;;;;;;;;;;;;;;;
1719.0;1657.3;;;;-0.95463574;-0.0470543;-0.21097568;;;;;;;;;;;;;;;
1719.0;1657.3;;;;-0.95326626;-0.046386722;-0.21085742;;;;;;;;;;;;;;;
1719.0;1657.3;;;;-0.9521295;-0.045707706;-0.21088794;;;;;;;;;;;;;;;
1719.0;1659.9;262143;262143;11556;;;;;;;;;;;;;;;;;;
1722.0;1663.6;;;;;;;;;;;;;;;;;-17.792292;8.819849;-3.0137029;;1562.0
1722.0;1663.6;;;;;;;;;;;;;;0.59846795;0.57765436;0.37983337;;;;;1562.0
1722.0;1663.6;;;;;;;;;;;;;;;;;-16.571552;9.067812;-2.9641104;;1562.0
1722.0;1663.6;;;;;;;;;;;;;;0.57728815;0.5656911;0.3965575;;;;;1562.0
1722.0;1663.6;;;;;;;;;;;;;;;;;-14.519181;7.4465165;-2.582629;;1571.6
1722.0;1663.6;;;;;;;;;;;;;;0.56447035;0.54951626;0.40730003;;;;;1571.6
1722.0;1663.6;;;;;;;;;;;;;;;;;-12.314219;5.409406;-2.0561848;;1571.6
1722.0;1663.6;;;;;;;;;;;;;;0.55098116;0.5482345;0.4049196;;;;;1571.6
1722.0;1663.6;;;;;;;;;;;;;;;;;-10.647145;4.1505175;-1.2550737;;1581.2
1722.0;1663.6;;;;;;;;;;;;;;0.54139835;0.5522019;0.39875484;;;;;1581.2
1722.0;1663.6;;;;;;;;;;;;;;;;;-10.109256;3.6965547;-0.32425916;;1581.2
1722.0;1663.6;;;;;;;;;;;;;;0.5316324;0.5525071;0.39796138;;;;;1581.2
1722.0;1667.3;;;;-0.9513055;-0.044944767;-0.21007541;;;;;;;;;;;;;;;
1722.0;1667.3;;;;-0.95033276;-0.044303898;-0.20983127;;;;;;;;;;;;;;;
1722.0;1667.3;;;;-0.95030224;-0.043685917;-0.20965579;;;;;;;;;;;;;;;
1722.0;1667.3;;;;-0.94931805;-0.043243412;-0.20952609;;;;;;;;;;;;;;;
1722.0;1667.3;;;;-0.94838727;-0.042686466;-0.20998004;;;;;;;;;;;;;;;
1725.0;1671.0;;;;;;;;;;;;;;;;;-10.078737;3.8872952;0.6179998;;1590.9
1725.0;1671.0;;;;;;;;;;;;;;0.5170446;0.5616627;0.4161504;;;;;1590.9
1725.0;1671.0;;;;;;;;;;;;;;;;;-9.952848;4.570147;1.247444;;1590.9
1725.0;1671.0;;;;;;;;;;;;;;0.5087435;0.5755791;0.4304941;;;;;1590.9
1725.0;1671.0;;;;;;;;;;;;;;;;;-10.13596;6.4470353;1.7662587;;1600.5
1725.0;1671.0;;;;;;;;;;;;;;0.51350445;0.5793024;0.4532609;;;;;1600.5
1725.0;1671.0;;;;;;;;;;;;;;;;;-10.353404;7.6258125;2.0180366;;1600.5
1725.0;1671.0;;;;;;;;;;;;;;0.5363323;0.5980407;0.46357617;;;;;1600.5
1725.0;1671.0;;;;;;;;;;;;;;;;;-10.792109;9.952848;1.9379253;;1610.2
1725.0;1671.0;;;;;;;;;;;;;;0.5686819;0.6070742;0.47645497;;;;;1610.2
1725.0;1671.0;;;;;;;;;;;;;;;;;-10.223701;14.446699;1.6289254;;1610.2
1725.0;1671.0;;;;;;;;;;;;;;0.5846736;0.6136662;0.48725852;;;;;1610.2
1725.0;1677.3;;;;-0.9478456;-0.042587284;-0.20970157;;;;;;;;;;;;;;;
1725.0;1677.3;;;;-0.9470216;-0.04239655;-0.20981601;;;;;;;;;;;;;;;
1725.0;1677.3;;;;-0.945984;-0.041969303;-0.20995715;;;;;;;;;;;;;;;
1725.0;1677.3;;;;-0.94596493;-0.04223633;-0.20963672;;;;;;;;;;;;;;;
1725.0;1677.3;;;;-0.9452058;-0.042175297;-0.20941928;;;;;;;;;;;;;;;
1725.0;1679.7;262143;262143;11557;;;;;;;;;;;;;;;;;;
1725.0;1685.9;;;;;;;;;;;;;3586;;;;;;;;
1725.0;1685.9;;;;;;;;;;;;;3058;;;;;;;;
1725.0;1685.9;;;;;;;;;;;;;2153;;;;;;;;
1725.0;1685.9;;;;;;;;;;;;;2343;;;;;;;;
1725.0;1685.9;;;;;;;;;;;;;2587;;;;;;;;
1775.0;1687.1;;;;-0.94490826;-0.04238129;-0.20951846;;;;;;;;;;;;;;;
1775.0;1687.1;;;;-0.94433224;-0.042472843;-0.20915988;;;;;;;;;;;;;;;
1775.0;1687.1;;;;-0.9438478;-0.0420723;-0.20883945;;;;;;;;;;;;;;;
1775.0;1687.1;;;;-0.9433137;-0.042171482;-0.20860294;;;;;;;;;;;;;;;
1775.0;1687.1;;;;-0.9435121;-0.041896824;-0.2086449;;;;;;;;;;;;;;;
1775.0;1697.1;;;;-0.94339764;-0.04151917;-0.20780948;;;;;;;;;;;;;;;
1775.0;1697.1;;;;-0.94347775;-0.041282658;-0.20811847;;;;;;;;;;;;;;;
1775.0;1697.1;;;;-0.94337475;-0.040832523;-0.20742801;;;;;;;;;;;;;;;
1775.0;1697.1;;;;-0.942814;-0.040607456;-0.20698932;;;;;;;;;;;;;;;
1775.0;1697.1;;;;-0.9417497;-0.04054642;-0.20685199;;;;;;;;;;;;;;;
1775.0;1699.7;262143;262143;11554;;;;;;;;;;;;;;;;;;
1775.0;1707.2;;;;-0.94093335;-0.040279392;-0.20686725;;;;;;;;;;;;;;;
1775.0;1707.2;;;;-0.9399568;-0.040557865;-0.20650104;;;;;;;;;;;;;;;
1775.0;1707.2;;;;-0.93942654;-0.040737156;-0.20658496;;;;;;;;;;;;;;;
1775.0;1707.2;;;;-0.93924344;-0.041534428;-0.20663837;;;;;;;;;;;;;;;
1775.0;1707.2;;;;-0.9394456;-0.041694645;-0.2069855;;;;;;;;;;;;;;;
1775.0;1717.3;;;;-0.93950284;-0.04205704;-0.20691684;;;;;;;;;;;;;;;
1775.0;1717.3;;;;-0.93989575;-0.042377476;-0.2077103;;;;;;;;;;;;;;;
1775.0;1717.3;;;;-0.94018185;-0.042449955;-0.20795444;;;;;;;;;;;;;;;
1775.0;1717.3;;;;-0.94026196;-0.042602543;-0.20825198;;;;;;;;;;;;;;;
1775.0;1717.3;;;;-0.9402696;-0.042846683;-0.20885089;;;;;;;;;;;;;;;
1792.0;1720.0;262143;262143;11562;;;;;;;;;;;;;;;;;;
1792.0;1724.1;;;;;;;;;;;;;;;;;-8.625294;16.457108;0.48066652;;1619.9
1792.0;1724.1;;;;;;;;;;;;;;0.5876034;0.63325906;0.47901854;;;;;1619.9
1792.0;1724.1;;;;;;;;;;;;;;;;;-7.614368;14.606922;-0.7248146;;1619.9
1792.0;1724.1;;;;;;;;;;;;;;0.601825;0.6517533;0.4384289;;;;;1619.9
1792.0;1724.1;;;;;;;;;;;;;;;;;-6.698813;12.455366;-1.2131108;;1629.5
1792.0;1724.1;;;;;;;;;;;;;;0.61543626;0.65449995;0.3927732;;;;;1629.5
1792.0;1724.1;;;;;;;;;;;;;;;;;-5.500962;10.288552;-0.8735923;;1629.5
1792.0;1724.1;;;;;;;;;;;;;;0.6590777;0.6498001;0.37055573;;;;;1629.5
1792.0;1724.1;;;;;;;;;;;;;;;;;-5.043184;8.663442;-0.7019257;;1639.2
1792.0;1724.1;;;;;;;;;;;;;;0.6713462;0.644734;0.37720877;;;;;1639.2
1792.0;1724.1;;;;;;;;;;;;;;;;;-4.776147;8.148442;-0.87740713;;1639.2
1792.0;1724.1;;;;;;;;;;;;;;0.649617;0.6346019;0.41206092;;;;;1639.2
1794.0;1724.8;;;;;;;;;;;;;;;;;-3.543962;4.9172945;-0.6866665;;1648.9
1794.0;1724.8;;;;;;;;;;;;;;0.6507767;0.616657;0.41456345;;;;;1648.9
1794.0;1724.8;;;;;;;;;;;;;;;;;-1.739555;2.6894438;-0.27085176;;1648.9
1794.0;1724.8;;;;;;;;;;;;;;0.64894557;0.5901059;0.40473646;;;;;1648.9
1794.0;1724.8;;;;;;;;;;;;;;;;;0.5302591;2.3003328;-0.019074067;;1658.5
1794.0;1724.8;;;;;;;;;;;;;;0.6320994;0.57618946;0.4283578;;;;;1658.5
1794.0;1724.8;;;;;;;;;;;;;;;;;3.4905546;1.1177404;0.43107393;;1658.5
1794.0;1724.8;;;;;;;;;;;;;;0.6148259;0.5659963;0.4405652;;;;;1658.5
1794.0;1724.8;;;;;;;;;;;;;;;;;6.389813;0.9575182;0.7248146;;1668.2
1794.0;1724.8;;;;;;;;;;;;;;0.59761345;0.5597095;0.45100254;;;;;1668.2
1794.0;1724.8;;;;;;;;;;;;;;;;;8.81222;1.0872219;1.1291848;;1668.2
1794.0;1724.8;;;;;;;;;;;;;;0.5800958;0.5567797;0.4557024;;;;;1668.2
1794.0;1725.9;;;;;;;;;;;;;2761;;;;;;;;
1794.0;1725.9;;;;;;;;;;;;;2575;;;;;;;;
1794.0;1725.9;;;;;;;;;;;;;2152;;;;;;;;
1794.0;1725.9;;;;;;;;;;;;;1867;;;;;;;;
1794.0;1725.9;;;;;;;;;;;;;1758;;;;;;;;
1794.0;1727.2;;;;-0.9403688;-0.04305649;-0.2092438;;;;;;;;;;;;;;;
1794.0;1727.2;;;;-0.9398805;-0.0428772;-0.20983127;;;;;;;;;;;;;;;
1794.0;1727.2;;;;-0.93974316;-0.04305649;-0.21026996;;;;;;;;;;;;;;;
1794.0;1727.2;;;;-0.93964016;-0.04318619;-0.2109566;;;;;;;;;;;;;;;
1794.0;1727.2;;;;-0.93979275;-0.043552402;-0.21158603;;;;;;;;;;;;;;;
1794.0;1736.3;;;;;;;;;;-0.85833305;17.921995;-2.0981476;;;;;;;;;
1794.0;1736.3;;;;;;;0.8719138;0.027161473;-0.15869625;;;;;;;;;;;;
1794.0;1736.3;;;;;;;;;;5.733665;32.57088;8.896146;;;;;;;;;
1794.0;1736.3;;;;;;;0.98263496;0.027466659;-0.17871639;;;;;;;;;;;;
1838.0;1737.3;;;;-0.93985;-0.043853763;-0.21281436;;;;;;;;;;;;;;;
1838.0;1737.3;;;;-0.94036496;-0.04428864;-0.21498874;;;;;;;;;;;;;;;
1838.0;1737.3;;;;-0.940693;-0.0448494;-0.2169533;;;;;;;;;;;;;;;
1838.0;1737.3;;;;-0.9415475;-0.045249943;-0.21831134;;;;;;;;;;;;;;;
1838.0;1737.3;;;;-0.9422723;-0.045307163;-0.22025302;;;;;;;;;;;;;;;
1838.0;1739.9;262143;262143;11561;;;;;;;;;;;;;;;;;;
1838.0;1745.8;;;;;;;;;;1.3161107;4.3221836;2.6131475;;;;;;;;;
1838.0;1745.8;;;;;;;0.98312324;0.026551103;-0.1810358;;;;;;;;;;;;
1838.0;1745.8;;;;;;;;;;5.5047765;17.151402;8.48033;;;;;;;;;
1838.0;1745.8;;;;;;;0.98312324;0.023010956;-0.17914365;;;;;;;;;;;;
1838.0;1747.2;;;;-0.9428979;-0.045688633;-0.22238544;;;;;;;;;;;;;;;
1838.0;1747.2;;;;-0.943535;-0.04603577;-0.2236481;;;;;;;;;;;;;;;
1838.0;1747.2;;;;-0.9446107;-0.046787266;-0.22475055;;;;;;;;;;;;;;;
1838.0;1747.2;;;;-0.946293;-0.04761506;-0.22695544;;;;;;;;;;;;;;;
1838.0;1747.2;;;;-0.94864666;-0.047939308;-0.23004916;;;;;;;;;;;;;;;
1838.0;1755.3;;;;;;;;;;5.466628;18.253883;9.8155155;;;;;;;;;
1838.0;1755.3;;;;;;;0.9796442;0.021607105;-0.17828913;;;;;;;;;;;;
1838.0;1755.3;;;;;;;;;;0.0839259;-16.914885;-9.899441;;;;;;;;;
1838.0;1755.3;;;;;;;0.9781793;0.021790216;-0.17828913;;;;;;;;;;;;
1840.0;1757.3;;;;-0.9522401;-0.048725136;-0.23294833;;;;;;;;;;;;;;;
1840.0;1757.3;;;;-0.95674527;-0.049896248;-0.23543552;;;;;;;;;;;;;;;
1840.0;1757.3;;;;-0.9618341;-0.051071174;-0.23860553;;;;;;;;;;;;;;;
1840.0;1757.3;;;;-0.9679185;-0.05252839;-0.24199298;;;;;;;;;;;;;;;
1840.0;1757.3;;;;-0.97475064;-0.053791054;-0.2448273;;;;;;;;;;;;;;;
1840.0;1760.1;262143;262143;11557;;;;;;;;;;;;;;;;;;
1840.0;1764.9;;;;;;;;;;-0.35859248;-17.372662;-9.907071;;;;;;;;;
1840.0;1764.9;;;;;;;0.97994936;0.020996734;-0.17731254;;;;;;;;;;;;
1840.0;1764.9;;;;;;;;;;-0.8087405;-17.479475;-9.81933;;;;;;;;;
1840.0;1764.9;;;;;;;0.98080385;0.018738365;-0.17731254;;;;;;;;;;;;
1840.0;1766.2;;;;;;;;;;;;;1569;;;;;;;;
1840.0;1766.2;;;;;;;;;;;;;1007;;;;;;;;
1840.0;1766.2;;;;;;;;;;;;;193;;;;;;;;
1840.0;1766.2;;;;;;;;;;;;;-551;;;;;;;;
1840.0;1766.2;;;;;;;;;;;;;-1079;;;;;;;;
1840.0;1767.4;;;;-0.98279965;-0.054618843;-0.24784854;;;;;;;;;;;;;;;
1840.0;1767.4;;;;-0.99048626;-0.054603584;-0.25119022;;;;;;;;;;;;;;;
1840.0;1767.4;;;;-0.99855816;-0.054767616;-0.25330356;;;;;;;;;;;;;;;
1840.0;1767.4;;;;-1.0058175;-0.05426789;-0.25565723;;;;;;;;;;;;;;;
1840.0;1767.4;;;;-1.0115701;-0.053680427;-0.25733188;;;;;;;;;;;;;;;
1840.0;1774.6;;;;;;;;;;-1.7738883;-9.681997;-3.807184;;;;;;;;;
1840.0;1774.6;;;;;;;0.97958314;0.018982513;-0.17590868;;;;;;;;;;;;
1840.0;1774.6;;;;;;;;;;-2.4605548;-1.4610736;2.7619252;;;;;;;;;
1840.0;1774.6;;;;;;;0.97933894;0.018311106;-0.17578661;;;;;;;;;;;;
1841.0;1777.5;;;;-1.0167009;-0.052616127;-0.25994113;;;;;;;;;;;;;;;
1841.0;1777.5;;;;-1.0211946;-0.05085755;-0.26210025;;;;;;;;;;;;;;;
1841.0;1777.5;;;;-1.0256463;-0.04949189;-0.26439288;;;;;;;;;;;;;;;
1841.0;1777.5;;;;-1.0293466;-0.047622688;-0.26655582;;;;;;;;;;;;;;;
1841.0;1777.5;;;;-1.0332834;-0.045959476;-0.2688866;;;;;;;;;;;;;;;
1841.0;1780.4;262143;262143;11562;;;;;;;;;;;;;;;;;;
1841.0;1784.1;;;;;;;;;;;;;;;;;10.284738;1.7700735;1.6098514;;1677.8
1841.0;1784.1;;;;;;;;;;;;;;0.5564135;0.5536668;0.45747244;;;;;1677.8
1841.0;1784.1;;;;;;;;;;;;;;;;;10.826442;3.0213325;2.010407;;1677.8
1841.0;1784.1;;;;;;;;;;;;;;0.5368206;0.56642354;0.46748254;;;;;1677.8
1841.0;1784.1;;;;;;;;;;;;;;;;;10.586108;4.860073;2.6551104;;1687.4
1841.0;1784.1;;;;;;;;;;;;;;0.5109409;0.5757012;0.4850612;;;;;1687.4
1841.0;1784.1;;;;;;;;;;;;;;;;;9.716331;6.145665;3.4714804;;1687.4
1841.0;1784.1;;;;;;;;;;;;;;0.49208045;0.5891293;0.49140903;;;;;1687.4
1841.0;1784.1;;;;;;;;;;;;;;;;;8.79696;6.660665;3.7041843;;1697.1
1841.0;1784.1;;;;;;;;;;;;;;0.47480696;0.6099429;0.47340313;;;;;1697.1
1841.0;1784.1;;;;;;;;;;;;;;;;;8.381146;7.248146;4.402295;;1697.1
1841.0;1784.1;;;;;;;;;;;;;;0.45582446;0.6409497;0.43623158;;;;;1697.1
1841.0;1784.2;;;;;;;;;;-2.5482955;-1.5640736;2.7809992;;;;;;;;;
1841.0;1784.2;;;;;;;0.9784234;0.018738365;-0.17224647;;;;;;;;;;;;
1841.0;1784.2;;;;;;;;;;-2.8077028;-1.7853328;2.76574;;;;;;;;;
1841.0;1784.2;;;;;;;0.97647023;0.019531846;-0.17108676;;;;;;;;;;;;
1843.0;1784.9;;;;;;;;;;;;;;;;;8.095035;4.562517;5.607776;;1706.7
1843.0;1784.9;;;;;;;;;;;;;;0.43617055;0.6904508;0.36677146;;;;;1706.7
1843.0;1784.9;;;;;;;;;;;;;;;;;4.6998506;0.07248146;6.5080724;;1706.7
1843.0;1784.9;;;;;;;;;;;;;;0.4430067;0.733665;0.32288584;;;;;1706.7
1843.0;1784.9;;;;;;;;;;;;;;;;;1.1368145;-0.77440715;7.6868496;;1716.3
1843.0;1784.9;;;;;;;;;;;;;;0.45826593;0.7737663;0.40321055;;;;;1716.3
1843.0;1784.9;;;;;;;;;;;;;;;;;0.3929258;-3.6545916;8.911405;;1716.3
1843.0;1784.9;;;;;;;;;;;;;;0.50917083;0.79946285;0.4290292;;;;;1716.3
1843.0;1784.9;;;;;;;;;;;;;;;;;1.3695182;-2.7008882;9.693442;;1725.9
1843.0;1784.9;;;;;;;;;;;;;;0.5513474;0.8148442;0.43433943;;;;;1725.9
1843.0;1784.9;;;;;;;;;;;;;;;;;1.823481;2.5139623;9.762108;;1725.9
1843.0;1784.9;;;;;;;;;;;;;;0.58461255;0.8401135;0.46424755;;;;;1725.9
1843.0;1787.5;;;;-1.0374757;-0.044384006;-0.2709351;;;;;;;;;;;;;;;
1843.0;1787.5;;;;-1.0418626;-0.04308701;-0.2721024;;;;;;;;;;;;;;;
1843.0;1787.5;;;;-1.0465852;-0.04199219;-0.27388003;;;;;;;;;;;;;;;
1843.0;1787.5;;;;-1.0517656;-0.040916447;-0.2754517;;;;;;;;;;;;;;;
1843.0;1787.5;;;;-1.0560609;-0.039394382;-0.27700046;;;;;;;;;;;;;;;
1843.0;1793.7;;;;;;;;;;-3.0213325;-2.0561848;2.6322215;;;;;;;;;
1843.0;1793.7;;;;;;;0.97830135;0.018860439;-0.16943876;;;;;;;;;;;;
1843.0;1793.7;;;;;;;;;;-3.2464066;-2.315592;2.475814;;;;;;;;;
1843.0;1793.7;;;;;;;0.97701955;0.02008118;-0.17017122;;;;;;;;;;;;
1895.0;1797.6;;;;-1.0606729;-0.03822327;-0.27867892;;;;;;;;;;;;;;;
1895.0;1797.6;;;;-1.064747;-0.037292484;-0.2801781;;;;;;;;;;;;;;;
1895.0;1797.6;;;;-1.0684701;-0.035671238;-0.28156665;;;;;;;;;;;;;;;
1895.0;1797.6;;;;-1.0721093;-0.03350449;-0.2828255;;;;;;;;;;;;;;;
1895.0;1797.6;;;;-1.0749398;-0.031631473;-0.28445056;;;;;;;;;;;;;;;
1895.0;1800.3;262143;262143;11566;;;;;;;;;;;;;;;;;;
1895.0;1803.2;;;;;;;;;;-3.482925;-2.4414806;2.3804438;;;;;;;;;
1895.0;1803.2;;;;;;;0.97762996;0.019959105;-0.16919462;;;;;;;;;;;;
1895.0;1803.2;;;;;;;;;;-3.6812954;-2.5406659;2.3308513;;;;;;;;;
1895.0;1803.2;;;;;;;0.979461;0.020020142;-0.16943876;;;;;;;;;;;;
1895.0;1806.4;;;;;;;;;;;;;-1294;;;;;;;;
1895.0;1806.4;;;;;;;;;;;;;-1136;;;;;;;;
1895.0;1806.4;;;;;;;;;;;;;-644;;;;;;;;
1895.0;1806.4;;;;;;;;;;;;;128;;;;;;;;
1895.0;1806.4;;;;;;;;;;;;;933;;;;;;;;
1895.0;1807.5;;;;-1.0779268;-0.02990723;-0.284977;;;;;;;;;;;;;;;
1895.0;1807.5;;;;-1.0802194;-0.027656559;-0.28654864;;;;;;;;;;;;;;;
1895.0;1807.5;;;;-1.0823137;-0.025753025;-0.2877083;;;;;;;;;;;;;;;
1895.0;1807.5;;;;-1.0847474;-0.02430344;-0.2890282;;;;;;;;;;;;;;;
1895.0;1807.5;;;;-1.0861169;-0.022960665;-0.29021838;;;;;;;;;;;;;;;
1895.0;1812.6;;;;;;;;;;-3.8605914;-2.6512957;2.2049623;;;;;;;;;
1895.0;1812.6;;;;;;;0.9809259;0.02191229;-0.16974396;;;;;;;;;;;;
1895.0;1812.6;;;;;;;;;;-4.032258;-2.7390363;2.0981476;;;;;;;;;
1895.0;1812.6;;;;;;;0.98440504;0.021790216;-0.16962187;;;;;;;;;;;;
1899.0;1817.5;;;;-1.0874254;-0.021095278;-0.29156116;;;;;;;;;;;;;;;
1899.0;1817.5;;;;-1.088688;-0.019844057;-0.2931519;;;;;;;;;;;;;;;
1899.0;1817.5;;;;-1.0898668;-0.019077303;-0.295002;;;;;;;;;;;;;;;
1899.0;1817.5;;;;-1.0919534;-0.018196108;-0.2969475;;;;;;;;;;;;;;;
1899.0;1817.5;;;;-1.0942079;-0.01697922;-0.2991524;;;;;;;;;;;;;;;
1899.0;1820.4;262143;262143;11580;;;;;;;;;;;;;;;;;;
1899.0;1822.2;;;;;;;;;;-4.203925;-2.7352216;1.9608142;;;;;;;;;
1899.0;1822.2;;;;;;;0.9830622;0.023926511;-0.1688284;;;;;;;;;;;;
1899.0;1822.2;;;;;;;;;;-4.276406;-2.7390363;1.9188513;;;;;;;;;
1899.0;1822.2;;;;;;;0.9818415;0.0237434;-0.16864528;;;;;;;;;;;;
1899.0;1827.6;;;;-1.0960313;-0.016799929;-0.29949954;;;;;;;;;;;;;;;
1899.0;1827.6;;;;-1.0967294;-0.016227724;-0.3012505;;;;;;;;;;;;;;;
1899.0;1827.6;;;;-1.095833;-0.014839174;-0.30292132;;;;;;;;;;;;;;;
1899.0;1827.6;;;;-1.094967;-0.013725283;-0.30479053;;;;;;;;;;;;;;;
1899.0;1827.6;;;;-1.0941964;-0.013359072;-0.30697253;;;;;;;;;;;;;;;
1899.0;1831.8;;;;;;;;;;-4.448073;-2.7161474;1.9302957;;;;;;;;;
1899.0;1831.8;;;;;;;0.9833674;0.024292734;-0.16870633;;;;;;;;;;;;
1899.0;1831.8;;;;;;;;;;-4.631184;-2.6894438;1.9074068;;;;;;;;;
1899.0;1831.8;;;;;;;0.9833674;0.024842067;-0.17059846;;;;;;;;;;;;
1901.0;1837.7;;;;-1.0941392;-0.0126686115;-0.30931476;;;;;;;;;;;;;;;
1901.0;1837.7;;;;-1.0946542;-0.011955263;-0.31145862;;;;;;;;;;;;;;;
1901.0;1837.7;;;;-1.0953332;-0.01123047;-0.312542;;;;;;;;;;;;;;;
1901.0;1837.7;;;;-1.0966417;-0.010772706;-0.31447223;;;;;;;;;;;;;;;
1901.0;1837.7;;;;-1.0971528;-0.010559083;-0.31590274;;;;;;;;;;;;;;;
1901.0;1840.7;262143;262143;11582;;;;;;;;;;;;;;;;;;
1901.0;1841.5;;;;;;;;;;-4.7875915;-2.6055179;1.8807031;;;;;;;;;
1901.0;1841.5;;;;;;;0.9812921;0.025818659;-0.17053743;;;;;;;;;;;;
1901.0;1841.5;;;;;;;;;;-4.886776;-2.6055179;1.8997772;;;;;;;;;
1901.0;1841.5;;;;;;;0.98275703;0.02844325;-0.17096469;;;;;;;;;;;;
1901.0;1844.8;;;;;;;;;;;;;;;;;1.6518143;8.732108;8.667256;;1735.6
1901.0;1844.8;;;;;;;;;;;;;;0.60322887;0.8565325;0.4941557;;;;;1735.6
1901.0;1844.8;;;;;;;;;;;;;;;;;1.2703329;13.145848;8.136998;;1735.6
1901.0;1844.8;;;;;;;;;;;;;;0.62337106;0.85842466;0.53169346;;;;;1735.6
1901.0;1844.8;;;;;;;;;;;;;;;;;-1.5259255;16.041292;8.358257;;1745.2
1901.0;1844.8;;;;;;;;;;;;;;0.6402173;0.8328501;0.5454878;;;;;1745.2
1901.0;1844.8;;;;;;;;;;;;;;;;;-3.9407024;17.082735;9.083072;;1745.2
1901.0;1844.8;;;;;;;;;;;;;;0.6621906;0.79500717;0.53114414;;;;;1745.2
1901.0;1844.8;;;;;;;;;;;;;;;;;-6.2067018;17.559587;10.216071;;1754.9
1901.0;1844.8;;;;;;;;;;;;;;0.6864223;0.7557604;0.5235145;;;;;1754.9
1901.0;1844.8;;;;;;;;;;;;;;;;;-10.563219;19.524216;10.147405;;1754.9
1901.0;1844.8;;;;;;;;;;;;;;0.71663564;0.7124241;0.51600695;;;;;1754.9
1902.0;1845.6;;;;;;;;;;;;;;;;;-14.893033;23.918882;10.559404;;1764.6
1902.0;1845.6;;;;;;;;;;;;;;0.720542;0.65382856;0.5445723;;;;;1764.6
1902.0;1845.6;;;;;;;;;;;;;;;;;-19.188513;24.689476;9.590442;;1764.6
1902.0;1845.6;;;;;;;;;;;;;;0.730369;0.6214179;0.58375806;;;;;1764.6
1902.0;1845.6;;;;;;;;;;;;;;;;;-21.366772;24.983213;8.697775;;1774.1
1902.0;1845.6;;;;;;;;;;;;;;0.73970765;0.6036561;0.65791804;;;;;1774.1
1902.0;1845.6;;;;;;;;;;;;;;;;;-20.07355;23.129215;8.327739;;1774.1
1902.0;1845.6;;;;;;;;;;;;;;0.74745935;0.6105533;0.7081515;;;;;1774.1
1902.0;1845.6;;;;;;;;;;;;;;;;;-13.763847;20.638142;9.239479;;1783.7
1902.0;1845.6;;;;;;;;;;;;;;0.73482466;0.6290475;0.72328866;;;;;1783.7
1902.0;1845.6;;;;;;;;;;;;;;;;;-7.1832943;19.276255;10.223701;;1783.7
1902.0;1845.6;;;;;;;;;;;;;;0.74648273;0.6659749;0.7154759;;;;;1783.7
1902.0;1846.6;;;;;;;;;;;;;1317;;;;;;;;
1902.0;1846.6;;;;;;;;;;;;;1322;;;;;;;;
1902.0;1846.6;;;;;;;;;;;;;1476;;;;;;;;
1902.0;1846.6;;;;;;;;;;;;;2016;;;;;;;;
1902.0;1846.6;;;;;;;;;;;;;2733;;;;;;;;
1902.0;1847.7;;;;-1.0977212;-0.010505677;-0.31761172;;;;;;;;;;;;;;;
1902.0;1847.7;;;;-1.0979234;-0.01047516;-0.31918338;;;;;;;;;;;;;;;
1902.0;1847.7;;;;-1.0971681;-0.010833741;-0.3212662;;;;;;;;;;;;;;;
1902.0;1847.7;;;;-1.0965806;-0.011581422;-0.32418063;;;;;;;;;;;;;;;
1902.0;1847.7;;;;-1.0961343;-0.012142183;-0.32659534;;;;;;;;;;;;;;;
1902.0;1850.9;;;;;;;;;;-4.989776;-2.498703;1.8501847;;;;;;;;;
1902.0;1850.9;;;;;;;0.9816584;0.029602954;-0.17041536;;;;;;;;;;;;
1902.0;1850.9;;;;;;;;;;-5.050813;-2.418592;1.8997772;;;;;;;;;
1902.0;1850.9;;;;;;;0.9794;0.030762658;-0.17340617;;;;;;;;;;;;
1957.0;1857.8;;;;-1.096634;-0.012966158;-0.32864;;;;;;;;;;;;;;;
1957.0;1857.8;;;;-1.0974504;-0.0140152;-0.33045962;;;;;;;;;;;;;;;
1957.0;1857.8;;;;-1.0989;-0.014411928;-0.33222583;;;;;;;;;;;;;;;
1957.0;1857.8;;;;-1.1005136;-0.0153274555;-0.33397678;;;;;;;;;;;;;;;
1957.0;1857.8;;;;-1.1023751;-0.015750887;-0.33565143;;;;;;;;;;;;;;;
1957.0;1860.4;;;;;;;;;;-5.1004057;-2.3880734;2.0027773;;;;;;;;;
1957.0;1860.4;;;;;;;0.97683644;0.033875547;-0.1732841;;;;;;;;;;;;
1957.0;1860.4;;;;;;;;;;-5.22248;-2.4033327;2.1095922;;;;;;;;;
1957.0;1860.4;;;;;;;0.97360146;0.03173925;-0.17200232;;;;;;;;;;;;
1957.0;1860.7;262143;262143;11586;;;;;;;;;;;;;;;;;;
1957.0;1867.7;;;;-1.1036798;-0.015735628;-0.33716205;;;;;;;;;;;;;;;
1957.0;1867.7;;;;-1.104683;-0.016189577;-0.33906177;;;;;;;;;;;;;;;
1957.0;1867.7;;;;-1.1051294;-0.016593935;-0.34028628;;;;;;;;;;;;;;;
1957.0;1867.7;;;;-1.1057359;-0.016708376;-0.34196857;;;;;;;;;;;;;;;
1957.0;1867.7;;;;-1.1069375;-0.016860964;-0.34289172;;;;;;;;;;;;;;;
1957.0;1870.0;;;;;;;;;;-5.279702;-2.3804438;2.1362956;;;;;;;;;
1957.0;1870.0;;;;;;;0.9731742;0.03277688;-0.17188025;;;;;;;;;;;;
1957.0;1870.0;;;;;;;;;;-5.3750725;-2.4109623;2.1324809;;;;;;;;;
1957.0;1870.0;;;;;;;0.974395;0.03521836;-0.17297891;;;;;;;;;;;;
1961.0;1877.7;;;;-1.107216;-0.01736069;-0.34402087;;;;;;;;;;;;;;;
1961.0;1877.7;;;;-1.1087037;-0.017696382;-0.34496692;;;;;;;;;;;;;;;
1961.0;1877.7;;;;-1.1098596;-0.017879488;-0.3459778;;;;;;;;;;;;;;;
1961.0;1877.7;;;;-1.1112787;-0.018581392;-0.34734347;;;;;;;;;;;;;;;
1961.0;1877.7;;;;-1.1126443;-0.019210817;-0.3483887;;;;;;;;;;;;;;;
1961.0;1879.5;;;;;;;;;;-5.5200357;-2.5063326;2.1629994;;;;;;;;;
1961.0;1879.5;;;;;;;0.9779962;0.03601184;-0.17316203;;;;;;;;;;;;
1961.0;1879.5;;;;;;;;;;-5.691702;-2.6131475;2.2392957;;;;;;;;;
1961.0;1879.5;;;;;;;0.9806818;0.036500137;-0.17322306;;;;;;;;;;;;
1961.0;1880.8;262143;262143;11602;;;;;;;;;;;;;;;;;;
1961.0;1886.8;;;;;;;;;;;;;3353;;;;;;;;
1961.0;1886.8;;;;;;;;;;;;;3833;;;;;;;;
1961.0;1886.8;;;;;;;;;;;;;4228;;;;;;;;
1961.0;1886.8;;;;;;;;;;;;;4447;;;;;;;;
1961.0;1886.8;;;;;;;;;;;;;4425;;;;;;;;
1961.0;1887.8;;;;-1.1136628;-0.019977571;-0.35000995;;;;;;;;;;;;;;;
1961.0;1887.8;;;;-1.1148835;-0.020637514;-0.35135272;;;;;;;;;;;;;;;
1961.0;1887.8;;;;-1.1163064;-0.020675661;-0.35319903;;;;;;;;;;;;;;;
1961.0;1887.8;;;;-1.1183015;-0.02138138;-0.3549271;;;;;;;;;;;;;;;
1961.0;1887.8;;;;-1.1205522;-0.02157593;-0.35715488;;;;;;;;;;;;;;;
1961.0;1889.1;;;;;;;;;;-5.7832575;-2.6512957;2.2698143;;;;;;;;;
1961.0;1889.1;;;;;;;0.97958314;0.03723258;-0.17157505;;;;;;;;;;;;
1961.0;1889.1;;;;;;;;;;-5.8671837;-2.7809992;2.3308513;;;;;;;;;
1961.0;1889.1;;;;;;;0.9782403;0.037049472;-0.17053743;;;;;;;;;;;;
1964.0;1897.9;;;;-1.1226808;-0.021003725;-0.35935214;;;;;;;;;;;;;;;
1964.0;1897.9;;;;-1.1246301;-0.021087648;-0.3614159;;;;;;;;;;;;;;;
1964.0;1897.9;;;;-1.1263582;-0.020214083;-0.36439136;;;;;;;;;;;;;;;
1964.0;1897.9;;;;-1.1281663;-0.01956177;-0.3671303;;;;;;;;;;;;;;;
1964.0;1897.9;;;;-1.129181;-0.0186615;-0.3704491;;;;;;;;;;;;;;;
1964.0;1898.7;;;;;;;;;;-5.9739985;-2.8382213;2.3613698;;;;;;;;;
1964.0;1898.7;;;;;;;0.97524947;0.03521836;-0.16449477;;;;;;;;;;;;
1964.0;1898.7;;;;;;;;;;-6.0274057;-2.8420362;2.357555;;;;;;;;;
1964.0;1898.7;;;;;;;0.9716483;0.033692434;-0.16217536;;;;;;;;;;;;
1964.0;1901.0;262143;262143;11605;;;;;;;;;;;;;;;;;;
1964.0;1904.7;;;;;;;;;;;;;;;;;-0.20599994;17.555773;11.844996;;1793.3
1964.0;1904.7;;;;;;;;;;;;;;0.7417829;0.70113224;0.6906339;;;;;1793.3
1964.0;1904.7;;;;;;;;;;;;;;;;;6.859035;11.864071;13.412886;;1793.3
1964.0;1904.7;;;;;;;;;;;;;;0.7399518;0.73213905;0.64986116;;;;;1793.3
1964.0;1904.7;;;;;;;;;;;;;;;;;15.77807;4.0246286;16.121403;;1803.0
1964.0;1904.7;;;;;;;;;;;;;;0.7560045;0.72640157;0.54451126;;;;;1803.0
1964.0;1904.7;;;;;;;;;;;;;;;;;22.728659;-0.44251838;17.29255;;1803.0
1964.0;1904.7;;;;;;;;;;;;;;0.7572863;0.7217628;0.44410536;;;;;1803.0
1964.0;1904.7;;;;;;;;;;;;;;;;;25.818659;-2.9526658;20.054476;;1812.7
1964.0;1904.7;;;;;;;;;;;;;;0.74849695;0.6810511;0.44087037;;;;;1812.7
1964.0;1904.7;;;;;;;;;;;;;;;;;24.891659;-6.714072;22.228918;;1812.7
1964.0;1904.7;;;;;;;;;;;;;;0.7305521;0.65596485;0.46852016;;;;;1812.7
1966.0;1905.5;;;;;;;;;;;;;;;;;24.06766;-11.67333;28.675955;;1822.4
1966.0;1905.5;;;;;;;;;;;;;;0.71217996;0.56660664;0.5056917;;;;;1822.4
1966.0;1905.5;;;;;;;;;;;;;;;;;23.815882;-13.782922;31.666767;;1822.4
1966.0;1905.5;;;;;;;;;;;;;;0.6702475;0.5653859;0.56392103;;;;;1822.4
1966.0;1905.5;;;;;;;;;;;;;;;;;25.048065;-19.260996;33.974728;;1832.1
1966.0;1905.5;;;;;;;;;;;;;;0.65761286;0.56233406;0.52705467;;;;;1832.1
1966.0;1905.5;;;;;;;;;;;;;;;;;25.917845;-23.316141;37.556843;;1832.1
1966.0;1905.5;;;;;;;;;;;;;;0.6537675;0.59993285;0.4709006;;;;;1832.1
1966.0;1905.5;;;;;;;;;;;;;;;;;25.543993;-22.129734;40.055542;;1841.8
1966.0;1905.5;;;;;;;;;;;;;;0.649617;0.6972869;0.4816431;;;;;1841.8
1966.0;1905.5;;;;;;;;;;;;;;;;;25.212103;-24.338512;42.59621;;1841.8
1966.0;1905.5;;;;;;;;;;;;;;0.68892485;0.74092835;0.43812373;;;;;1841.8
1966.0;1907.9;;;;-1.1306077;-0.0175972;-0.37424472;;;;;;;;;;;;;;;
1966.0;1907.9;;;;-1.1320993;-0.016384127;-0.3775826;;;;;;;;;;;;;;;
1966.0;1907.9;;;;-1.1341897;-0.014480593;-0.38100058;;;;;;;;;;;;;;;
1966.0;1907.9;;;;-1.1371995;-0.013370516;-0.38511664;;;;;;;;;;;;;;;
1966.0;1907.9;;;;-1.1401788;-0.011600495;-0.3890038;;;;;;;;;;;;;;;
1966.0;1908.2;;;;;;;;;;-6.1532946;-2.9259622;2.2621846;;;;;;;;;
1966.0;1908.2;;;;;;;0.9715262;0.03234962;-0.16028321;;;;;;;;;;;;
1966.0;1908.2;;;;;;;;;;-6.1799984;-2.906888;2.0981476;;;;;;;;;
1966.0;1908.2;;;;;;;0.96890163;0.030335398;-0.15655996;;;;;;;;;;;;
1966.0;1917.8;;;;;;;;;;-6.214331;-2.7619252;1.9646292;;;;;;;;;
1966.0;1917.8;;;;;;;0.96786404;0.030213324;-0.15405744;;;;;;;;;;;;
1966.0;1917.8;;;;;;;;;;-6.2067018;-2.5444808;1.9188513;;;;;;;;;
1966.0;1917.8;;;;;;;0.96761984;0.028565325;-0.15210426;;;;;;;;;;;;
2015.0;1918.0;;;;-1.1431428;-0.009860993;-0.39212805;;;;;;;;;;;;;;;
2015.0;1918.0;;;;-1.1466142;-0.007637025;-0.39585882;;;;;;;;;;;;;;;
2015.0;1918.0;;;;-1.1501237;-0.004779816;-0.39963537;;;;;;;;;;;;;;;
2015.0;1918.0;;;;-1.1537172;-0.0017433169;-0.4036942;;;;;;;;;;;;;;;
2015.0;1918.0;;;;-1.1570398;0.0024185183;-0.40793997;;;;;;;;;;;;;;;
2015.0;1921.1;262143;262143;11613;;;;;;;;;;;;;;;;;;
2015.0;1927.2;;;;;;;;;;;;;4375;;;;;;;;
2015.0;1927.2;;;;;;;;;;;;;4527;;;;;;;;
2015.0;1927.2;;;;;;;;;;;;;4785;;;;;;;;
2015.0;1927.2;;;;;;;;;;;;;4903;;;;;;;;
2015.0;1927.2;;;;;;;;;;;;;4864;;;;;;;;
2015.0;1927.3;;;;;;;;;;-6.2524796;-2.2812586;1.8463699;;;;;;;;;
2015.0;1927.3;;;;;;;0.96609396;0.030884732;-0.15173803;;;;;;;;;;;;
2015.0;1927.3;;;;;;;;;;-6.3325906;-2.1057773;1.7281106;;;;;;;;;
2015.0;1927.3;;;;;;;0.96761984;0.029358806;-0.1507004;;;;;;;;;;;;
2015.0;1927.9;;;;-1.1606675;0.006500245;-0.4130593;;;;;;;;;;;;;;;
2015.0;1927.9;;;;-1.1644937;0.010192872;-0.41764456;;;;;;;;;;;;;;;
2015.0;1927.9;;;;-1.1692353;0.014839174;-0.42176443;;;;;;;;;;;;;;;
2015.0;1927.9;;;;-1.173935;0.019664766;-0.42589957;;;;;;;;;;;;;;;
2015.0;1927.9;;;;-1.1791726;0.02474976;-0.42985922;;;;;;;;;;;;;;;
2015.0;1936.8;;;;;;;;;;-6.2715535;-1.9226661;1.6518143;;;;;;;;;
2015.0;1936.8;;;;;;;0.96292;0.03070162;-0.14868619;;;;;;;;;;;;
2015.0;1936.8;;;;;;;;;;-6.2067018;-1.9989624;1.5182959;;;;;;;;;
2015.0;1936.8;;;;;;;0.9603565;0.029969176;-0.14825892;;;;;;;;;;;;
2018.0;1937.9;;;;-1.1838228;0.030464176;-0.43316656;;;;;;;;;;;;;;;
2018.0;1937.9;;;;-1.1880723;0.036182407;-0.43620306;;;;;;;;;;;;;;;
2018.0;1937.9;;;;-1.1910592;0.041889194;-0.43923575;;;;;;;;;;;;;;;
2018.0;1937.9;;;;-1.1929475;0.047763832;-0.44156653;;;;;;;;;;;;;;;
2018.0;1937.9;;;;-1.1936799;0.053501137;-0.44342047;;;;;;;;;;;;;;;
2018.0;1941.1;262143;262143;11636;;;;;;;;;;;;;;;;;;
2018.0;1946.4;;;;;;;;;;-6.168554;-1.9837031;1.4267403;;;;;;;;;
2018.0;1946.4;;;;;;;0.95901364;0.030945769;-0.14899136;;;;;;;;;;;;
2018.0;1946.4;;;;;;;;;;-6.0922575;-1.9341105;1.2359996;;;;;;;;;
2018.0;1946.4;;;;;;;0.9543138;0.03320414;-0.14978485;;;;;;;;;;;;
2018.0;1948.0;;;;-1.1940042;0.059104927;-0.44493872;;;;;;;;;;;;;;;
2018.0;1948.0;;;;-1.1928369;0.06393815;-0.44740683;;;;;;;;;;;;;;;
2018.0;1948.0;;;;-1.1909372;0.068328865;-0.44829184;;;;;;;;;;;;;;;
2018.0;1948.0;;;;-1.1880685;0.07253266;-0.44897848;;;;;;;;;;;;;;;
2018.0;1948.0;;;;-1.1849519;0.076046;-0.44837576;;;;;;;;;;;;;;;
2018.0;1956.0;;;;;;;;;;-6.042665;-1.9760735;1.1558886;;;;;;;;;
2018.0;1956.0;;;;;;;0.9538865;0.03357036;-0.15082248;;;;;;;;;;;;
2018.0;1956.0;;;;;;;;;;-5.9244056;-1.9798884;1.0719626;;;;;;;;;
2018.0;1956.0;;;;;;;0.9556566;0.034730066;-0.151677;;;;;;;;;;;;
2020.0;1958.1;;;;-1.1806337;0.07886887;-0.44795233;;;;;;;;;;;;;;;
2020.0;1958.1;;;;-1.1757203;0.081802376;-0.44655997;;;;;;;;;;;;;;;
2020.0;1958.1;;;;-1.170353;0.0839119;-0.4445992;;;;;;;;;;;;;;;
2020.0;1958.1;;;;-1.1642419;0.08560563;-0.4419518;;;;;;;;;;;;;;;
2020.0;1958.1;;;;-1.15823;0.08721162;-0.4388314;;;;;;;;;;;;;;;
2020.0;1961.4;262143;262143;11647;;;;;;;;;;;;;;;;;;
2020.0;1965.0;;;;;;;;;;;;;;;;;25.757622;-28.168585;46.948914;;1851.4
2020.0;1965.0;;;;;;;;;;;;;;0.7175512;0.72542495;0.39497054;;;;;1851.4
2020.0;1965.0;;;;;;;;;;;;;;;;;25.570696;-33.059177;49.87869;;1851.4
2020.0;1965.0;;;;;;;;;;;;;;0.7613758;0.7767571;0.33631396;;;;;1851.4
2020.0;1965.0;;;;;;;;;;;;;;;;;22.194586;-36.160618;53.18995;;1861.0
2020.0;1965.0;;;;;;;;;;;;;;0.8197272;0.7425153;0.27356791;;;;;1861.0
2020.0;1965.0;;;;;;;;;;;;;;;;;21.22181;-37.57973;56.28376;;1861.0
2020.0;1965.0;;;;;;;;;;;;;;0.837611;0.6390576;0.22986542;;;;;1861.0
2020.0;1965.0;;;;;;;;;;;;;;;;;25.425734;-37.63695;58.47728;;1870.6
2020.0;1965.0;;;;;;;;;;;;;;0.86306345;0.59797966;0.27936643;;;;;1870.6
2020.0;1965.0;;;;;;;;;;;;;;;;;30.594805;-38.296917;61.258278;;1870.6
2020.0;1965.0;;;;;;;;;;;;;;0.8719138;0.53578293;0.31958982;;;;;1870.6
2020.0;1965.6;;;;;;;;;;-5.8290353;-2.029481;1.0071108;;;;;;;;;
2020.0;1965.6;;;;;;;0.9571825;0.035523545;-0.15289773;;;;;;;;;;;;
2020.0;1965.6;;;;;;;;;;-5.6802573;-1.823481;0.8888516;;;;;;;;;
2020.0;1965.6;;;;;;;0.9598071;0.03521836;-0.15448469;;;;;;;;;;;;
2021.0;1966.2;;;;;;;;;;;;;;;;;31.651508;-40.36836;62.002167;;1880.3
2021.0;1966.2;;;;;;;;;;;;;;0.81624806;0.50691247;0.31250954;;;;;1880.3
2021.0;1966.2;;;;;;;;;;;;;;;;;37.022766;-47.040466;64.367355;;1880.3
2021.0;1966.2;;;;;;;;;;;;;;0.880398;0.47950682;0.24726096;;;;;1880.3
2021.0;1966.2;;;;;;;;;;;;;;;;;39.91821;-45.178837;63.333534;;1890.0
2021.0;1966.2;;;;;;;;;;;;;;0.8680074;0.51185644;0.25147253;;;;;1890.0
2021.0;1966.2;;;;;;;;;;;;;;;;;40.025024;-45.365765;62.887207;;1890.0
2021.0;1966.2;;;;;;;;;;;;;;0.8742943;0.5228431;0.25385296;;;;;1890.0
2021.0;1966.2;;;;;;;;;;;;;;;;;44.347206;-48.43669;62.437054;;1899.6
2021.0;1966.2;;;;;;;;;;;;;;0.87490463;0.5434736;0.24250008;;;;;1899.6
2021.0;1966.2;;;;;;;;;;;;;;;;;48.883022;-53.353985;61.239204;;1899.6
2021.0;1966.2;;;;;;;;;;;;;;0.8636738;0.56740016;0.18158513;;;;;1899.6
2021.0;1967.3;;;;;;;;;;;;;4848;;;;;;;;
2021.0;1967.3;;;;;;;;;;;;;4987;;;;;;;;
2021.0;1967.3;;;;;;;;;;;;;5234;;;;;;;;
2021.0;1967.3;;;;;;;;;;;;;5397;;;;;;;;
2021.0;1967.3;;;;;;;;;;;;;5393;;;;;;;;
2021.0;1968.1;;;;-1.1516;0.08852387;-0.43601614;;;;;;;;;;;;;;;
2021.0;1968.1;;;;-1.1444207;0.08933259;-0.43299872;;;;;;;;;;;;;;;
2021.0;1968.1;;;;-1.1373445;0.090824135;-0.42943197;;;;;;;;;;;;;;;
2021.0;1968.1;;;;-1.1297456;0.09207917;-0.42621619;;;;;;;;;;;;;;;
2021.0;1968.1;;;;-1.1221849;0.09276963;-0.4220658;;;;;;;;;;;;;;;
2021.0;1975.1;;;;;;;;;;-5.5352945;-1.6365551;0.8697775;;;;;;;;;
2021.0;1975.1;;;;;;;0.96017337;0.035889767;-0.15521714;;;;;;;;;;;;
2021.0;1975.1;;;;;;;;;;-5.455184;-1.5831476;0.8049257;;;;;;;;;
2021.0;1975.1;;;;;;;0.9593188;0.035889767;-0.15405744;;;;;;;;;;;;
2076.0;1978.1;;;;-1.1147958;0.09348298;-0.4179421;;;;;;;;;;;;;;;
2076.0;1978.1;;;;-1.1076013;0.09349824;-0.41375357;;;;;;;;;;;;;;;
2076.0;1978.1;;;;-1.1003877;0.093799606;-0.4094277;;;;;;;;;;;;;;;
2076.0;1978.1;;;;-1.0935479;0.09396745;-0.40599447;;;;;;;;;;;;;;;
2076.0;1978.1;;;;-1.0866624;0.092975624;-0.4022599;;;;;;;;;;;;;;;
2076.0;1981.4;262143;262143;11654;;;;;;;;;;;;;;;;;;
2076.0;1984.7;;;;;;;;;;-5.283517;-1.4381847;0.7705924;;;;;;;;;
2076.0;1984.7;;;;;;;0.9595019;0.035767693;-0.15790276;;;;;;;;;;;;
2076.0;1984.7;;;;;;;;;;-5.138554;-1.3771478;0.7820368;;;;;;;;;
2076.0;1984.7;;;;;;;0.95559555;0.033692434;-0.15857418;;;;;;;;;;;;
2076.0;1988.1;;;;-1.0804254;0.09138108;-0.39973456;;;;;;;;;;;;;;;
2076.0;1988.1;;;;-1.0744249;0.09028245;-0.3969155;;;;;;;;;;;;;;;
2076.0;1988.1;;;;-1.0689737;0.0885048;-0.39412314;;;;;;;;;;;;;;;
2076.0;1988.1;;;;-1.0642053;0.086212166;-0.393467;;;;;;;;;;;;;;;
2076.0;1988.1;;;;-1.0595514;0.08424378;-0.39176947;;;;;;;;;;;;;;;
2076.0;1994.0;;;;;;;;;;-4.9058504;-1.5907773;0.73625904;;;;;;;;;
2076.0;1994.0;;;;;;;0.95522934;0.03424177;-0.15723136;;;;;;;;;;;;
2076.0;1994.0;;;;;;;;;;-4.7608876;-1.6556292;0.71337014;;;;;;;;;
2076.0;1994.0;;;;;;;0.95113987;0.035340436;-0.15979491;;;;;;;;;;;;
2081.0;1998.1;;;;-1.055111;0.08196259;-0.39086157;;;;;;;;;;;;;;;
2081.0;1998.1;;;;-1.0508195;0.0802002;-0.38951498;;;;;;;;;;;;;;;
2081.0;1998.1;;;;-1.0463945;0.078140266;-0.3896523;;;;;;;;;;;;;;;
2081.0;1998.1;;;;-1.0420495;0.07677842;-0.38947302;;;;;;;;;;;;;;;
2081.0;1998.1;;;;-1.0372888;0.07546998;-0.38904577;;;;;;;;;;;;;;;
2081.0;2001.4;262143;262143;11657;;;;;;;;;;;;;;;;;;
2081.0;2003.7;;;;;;;;;;-4.6388135;-1.8616291;0.6866665;;;;;;;;;
2081.0;2003.7;;;;;;;0.9502854;0.036133915;-0.16205329;;;;;;;;;;;;
2081.0;2003.7;;;;;;;;;;-4.4099245;-2.0142217;0.6027406;;;;;;;;;
2081.0;2003.7;;;;;;;0.9490036;0.03851436;-0.16278572;;;;;;;;;;;;
2081.0;2007.4;;;;;;;;;;;;;5310;;;;;;;;
2081.0;2007.4;;;;;;;;;;;;;5186;;;;;;;;
2081.0;2007.4;;;;;;;;;;;;;5178;;;;;;;;
2081.0;2007.4;;;;;;;;;;;;;5461;;;;;;;;
2081.0;2007.4;;;;;;;;;;;;;5813;;;;;;;;
2081.0;2008.2;;;;-1.0320474;0.074176796;-0.38917547;;;;;;;;;;;;;;;
2081.0;2008.2;;;;-1.0270463;0.07317353;-0.38941962;;;;;;;;;;;;;;;
2081.0;2008.2;;;;-1.0213319;0.07258607;-0.39028174;;;;;;;;;;;;;;;
2081.0;2008.2;;;;-1.0163575;0.07146073;-0.39292914;;;;;;;;;;;;;;;
2081.0;2008.2;;;;-1.0118829;0.0706482;-0.39501196;;;;;;;;;;;;;;;
2081.0;2013.3;;;;;;;;;;-4.2497025;-2.2698143;0.5417035;;;;;;;;;
2081.0;2013.3;;;;;;;0.9503464;0.040284432;-0.16351818;;;;;;;;;;;;
2081.0;2013.3;;;;;;;;;;-4.0856657;-2.5025177;0.553148;;;;;;;;;
2081.0;2013.3;;;;;;;0.94949186;0.040650655;-0.16510513;;;;;;;;;;;;
2084.0;2018.3;;;;-1.0077935;0.07054139;-0.3972512;;;;;;;;;;;;;;;
2084.0;2018.3;;;;-1.0044824;0.070106514;-0.40015417;;;;;;;;;;;;;;;
2084.0;2018.3;;;;-1.0016099;0.069473274;-0.4038468;;;;;;;;;;;;;;;
2084.0;2018.3;;;;-1.0000459;0.06874467;-0.40724188;;;;;;;;;;;;;;;
2084.0;2018.3;;;;-0.9981805;0.06845475;-0.41059119;;;;;;;;;;;;;;;
2084.0;2021.7;262143;262143;11645;;;;;;;;;;;;;;;;;;
2084.0;2022.9;;;;;;;;;;-3.913999;-2.7542956;0.6027406;;;;;;;;;
2084.0;2022.9;;;;;;;0.9519333;0.042481765;-0.16443373;;;;;;;;;;;;
2084.0;2022.9;;;;;;;;;;-3.7194436;-3.0480363;0.6485183;;;;;;;;;
2084.0;2022.9;;;;;;;0.9501022;0.042664878;-0.164861;;;;;;;;;;;;
2084.0;2025.3;;;;;;;;;;;;;;;;;49.974056;-56.363873;61.349834;;1909.3
2084.0;2025.3;;;;;;;;;;;;;;0.8598285;0.55922115;0.15124974;;;;;1909.3
2084.0;2025.3;;;;;;;;;;;;;;;;;47.799618;-56.760612;61.47191;;1909.3
2084.0;2025.3;;;;;;;;;;;;;;0.85616624;0.5279702;0.15375225;;;;;1909.3
2084.0;2025.3;;;;;;;;;;;;;;;;;46.89169;-57.771538;62.22724;;1918.8
2084.0;2025.3;;;;;;;;;;;;;;0.83498645;0.51832634;0.16919462;;;;;1918.8
2084.0;2025.3;;;;;;;;;;;;;;;;;46.075317;-59.049503;62.982574;;1918.8
2084.0;2025.3;;;;;;;;;;;;;;0.8283334;0.5077059;0.18659016;;;;;1918.8
2084.0;2025.3;;;;;;;;;;;;;;;;;46.37669;-60.865353;64.561905;;1928.4
2084.0;2025.3;;;;;;;;;;;;;;0.81246376;0.47224343;0.1947081;;;;;1928.4
2084.0;2025.3;;;;;;;;;;;;;;;;;46.254616;-63.505203;65.17991;;1928.4
2084.0;2025.3;;;;;;;;;;;;;;0.8156377;0.44465467;0.18079165;;;;;1928.4
2085.0;2026.0;;;;;;;;;;;;;;;;;46.075317;-64.96628;65.85132;;1938.0
2085.0;2026.0;;;;;;;;;;;;;;0.81948304;0.4212775;0.15698722;;;;;1938.0
2085.0;2026.0;;;;;;;;;;;;;;;;;46.555984;-65.382095;65.06928;;1938.0
2085.0;2026.0;;;;;;;;;;;;;;0.85067296;0.44227424;0.1340373;;;;;1938.0
2085.0;2026.0;;;;;;;;;;;;;;;;;48.57784;-63.61965;64.87091;;1947.6
2085.0;2026.0;;;;;;;;;;;;;;0.8691061;0.455092;0.121890925;;;;;1947.6
2085.0;2026.0;;;;;;;;;;;;;;;;;52.861874;-61.700794;64.23765;;1947.6
2085.0;2026.0;;;;;;;;;;;;;;0.8862575;0.4671163;0.1126133;;;;;1947.6
2085.0;2026.0;;;;;;;;;;;;;;;;;55.90991;-60.544907;63.840904;;1957.3
2085.0;2026.0;;;;;;;;;;;;;;0.90121156;0.45991394;0.09686575;;;;;1957.3
2085.0;2026.0;;;;;;;;;;;;;;;;;58.942688;-59.289837;63.72265;;1957.3
2085.0;2026.0;;;;;;;;;;;;;;0.9124424;0.44257942;0.07550279;;;;;1957.3
2085.0;2028.2;;;;-0.99647534;0.06834031;-0.41418463;;;;;;;;;;;;;;;
2085.0;2028.2;;;;-0.994671;0.068012245;-0.41797262;;;;;;;;;;;;;;;
2085.0;2028.2;;;;-0.99253476;0.067810066;-0.42185217;;;;;;;;;;;;;;;
2085.0;2028.2;;;;-0.9898759;0.0678711;-0.42515188;;;;;;;;;;;;;;;
2085.0;2028.2;;;;-0.98669064;0.06780244;-0.4289437;;;;;;;;;;;;;;;
2085.0;2032.3;;;;;;;;;;-3.540147;-3.1891842;0.74007386;;;;;;;;;
2085.0;2032.3;;;;;;;0.9500412;0.044740137;-0.16443373;;;;;;;;;;;;
2085.0;2032.3;;;;;;;;;;-3.257851;-3.3265176;0.8735923;;;;;;;;;
2085.0;2032.3;;;;;;;0.95199436;0.044068728;-0.16425061;;;;;;;;;;;;
2136.0;2038.2;;;;-0.98386776;0.06744767;-0.4327126;;;;;;;;;;;;;;;
2136.0;2038.2;;;;-0.9815446;0.067459114;-0.4366036;;;;;;;;;;;;;;;
2136.0;2038.2;;;;-0.97911847;0.067703255;-0.44019705;;;;;;;;;;;;;;;
2136.0;2038.2;;;;-0.97737896;0.0680008;-0.44368368;;;;;;;;;;;;;;;
2136.0;2038.2;;;;-0.97514737;0.06805421;-0.44725806;;;;;;;;;;;;;;;
2136.0;2041.8;;;;;;;;;;-3.0022585;-3.4905546;0.99185157;;;;;;;;;
2136.0;2041.8;;;;;;;0.9541307;0.044312876;-0.16272469;;;;;;;;;;;;
2136.0;2041.8;;;;;;;;;;-2.784814;-3.5821102;1.0719626;;;;;;;;;
2136.0;2041.8;;;;;;;0.9591357;0.045350507;-0.16333507;;;;;;;;;;;;
2136.0;2041.6;262143;262143;11652;;;;;;;;;;;;;;;;;;
2136.0;2047.6;;;;;;;;;;;;;5987;;;;;;;;
2136.0;2047.6;;;;;;;;;;;;;5875;;;;;;;;
2136.0;2047.6;;;;;;;;;;;;;5663;;;;;;;;
2136.0;2047.6;;;;;;;;;;;;;5743;;;;;;;;
2136.0;2047.6;;;;;;;;;;;;;6037;;;;;;;;
2136.0;2048.1;;;;-0.97382367;0.06815339;-0.45032126;;;;;;;;;;;;;;;
2136.0;2048.1;;;;-0.97252285;0.06767655;-0.45457083;;;;;;;;;;;;;;;
2136.0;2048.1;;;;-0.9710084;0.06747056;-0.45870596;;;;;;;;;;;;;;;
2136.0;2048.1;;;;-0.97003186;0.067306526;-0.46262366;;;;;;;;;;;;;;;
2136.0;2048.1;;;;-0.9689218;0.0669098;-0.46598822;;;;;;;;;;;;;;;
2136.0;2051.1;;;;;;;;;;-2.6284068;-3.5325174;1.2131108;;;;;;;;;
2136.0;2051.1;;;;;;;0.9657887;0.044984285;-0.16431166;;;;;;;;;;;;
2136.0;2051.1;;;;;;;;;;-2.5063326;-3.5897398;1.289407;;;;;;;;;
2136.0;2051.1;;;;;;;0.97128206;0.045960877;-0.16675314;;;;;;;;;;;;
2140.0;2058.1;;;;-0.96769345;0.06659318;-0.46919256;;;;;;;;;;;;;;;
2140.0;2058.1;;;;-0.96665585;0.06608582;-0.47208792;;;;;;;;;;;;;;;
2140.0;2058.1;;;;-0.96577084;0.06639863;-0.4738503;;;;;;;;;;;;;;;
2140.0;2058.1;;;;-0.9649011;0.06713105;-0.47546774;;;;;;;;;;;;;;;
2140.0;2058.1;;;;-0.96408474;0.06772614;-0.47695166;;;;;;;;;;;;;;;
2140.0;2060.7;;;;;;;;;;-2.1820734;-3.5554063;1.4381847;;;;;;;;;
2140.0;2060.7;;;;;;;0.97647023;0.04712058;-0.16687521;;;;;;;;;;;;
2140.0;2060.7;;;;;;;;;;-1.9913328;-3.5897398;1.617481;;;;;;;;;
2140.0;2060.7;;;;;;;0.9801935;0.0463271;-0.16705832;;;;;;;;;;;;
2140.0;2061.6;262143;262143;11650;;;;;;;;;;;;;;;;;;
2140.0;2068.2;;;;-0.9636842;0.06844712;-0.47827154;;;;;;;;;;;;;;;
2140.0;2068.2;;;;-0.9618684;0.06931687;-0.47798163;;;;;;;;;;;;;;;
2140.0;2068.2;;;;-0.96008694;0.07012559;-0.47768408;;;;;;;;;;;;;;;
2140.0;2068.2;;;;-0.95796216;0.070213325;-0.47731787;;;;;;;;;;;;;;;
2140.0;2068.2;;;;-0.9546586;0.07042695;-0.47661597;;;;;;;;;;;;;;;
2140.0;2070.4;;;;;;;;;;-1.8845179;-3.6507769;1.7357402;;;;;;;;;
2140.0;2070.4;;;;;;;0.98178047;0.042725913;-0.16675314;;;;;;;;;;;;
2140.0;2070.4;;;;;;;;;;-1.6670736;-3.7232583;1.8845179;;;;;;;;;
2140.0;2070.4;;;;;;;0.98355055;0.0413831;-0.16742454;;;;;;;;;;;;
2143.0;2078.3;;;;-0.9512025;0.07029725;-0.4763146;;;;;;;;;;;;;;;
2143.0;2078.3;;;;-0.94770443;0.06941987;-0.47585684;;;;;;;;;;;;;;;
2143.0;2078.3;;;;-0.94553006;0.068702705;-0.47586066;;;;;;;;;;;;;;;
2143.0;2078.3;;;;-0.94373715;0.067581184;-0.47554022;;;;;;;;;;;;;;;
2143.0;2078.3;;;;-0.9432336;0.066551216;-0.47440726;;;;;;;;;;;;;;;
2143.0;2080.0;;;;;;;;;;-1.5221107;-3.624073;1.9913328;;;;;;;;;
2143.0;2080.0;;;;;;;0.98513746;0.039185766;-0.1693167;;;;;;;;;;;;
2143.0;2080.0;;;;;;;;;;-1.411481;-3.5477767;2.0752587;;;;;;;;;
2143.0;2080.0;;;;;;;0.98837245;0.03729362;-0.17090365;;;;;;;;;;;;
2143.0;2081.8;262143;262143;11652;;;;;;;;;;;;;;;;;;
2143.0;2085.3;;;;;;;;;;;;;;;;;62.967316;-58.744316;64.06598;;1966.9
2143.0;2085.3;;;;;;;;;;;;;;0.9082919;0.43140966;0.075441755;;;;;1966.9
2143.0;2085.3;;;;;;;;;;;;;;;;;63.703575;-59.232613;63.818016;;1966.9
2143.0;2085.3;;;;;;;;;;;;;;0.9116489;0.42854092;0.057252724;;;;;1966.9
2143.0;2085.3;;;;;;;;;;;;;;;;;65.47365;-59.297466;64.18043;;1976.6
2143.0;2085.3;;;;;;;;;;;;;;0.9073153;0.43195897;0.053590503;;;;;1976.6
2143.0;2085.3;;;;;;;;;;;;;;;;;66.53799;-59.354687;64.14228;;1976.6
2143.0;2085.3;;;;;;;;;;;;;;0.9115879;0.4293344;0.05224769;;;;;1976.6
2143.0;2085.3;;;;;;;;;;;;;;;;;67.16743;-57.61513;64.26054;;1986.1
2143.0;2085.3;;;;;;;;;;;;;;0.90554523;0.43018892;0.05896176;;;;;1986.1
2143.0;2085.3;;;;;;;;;;;;;;;;;67.54891;-58.355206;64.06598;;1986.1
2143.0;2085.3;;;;;;;;;;;;;;0.89144564;0.42585528;0.04669332;;;;;1986.1
2149.0;2086.5;;;;;;;;;;;;;;;;;68.87646;-61.74276;65.26765;;1995.7
2149.0;2086.5;;;;;;;;;;;;;;0.8907132;0.42316964;9.765923E-4;;;;;1995.7
2149.0;2086.5;;;;;;;;;;;;;;;;;70.86016;-64.146095;67.403946;;1995.7
2149.0;2086.5;;;;;;;;;;;;;;0.88552505;0.4312876;-0.015259255;;;;;1995.7
2149.0;2086.5;;;;;;;;;;;;;;;;;68.826866;-65.51561;68.02194;;2005.4
2149.0;2086.5;;;;;;;;;;;;;;0.9009064;0.42945647;-0.033082064;;;;;2005.4
2149.0;2086.5;;;;;;;;;;;;;;;;;66.09547;-64.275795;68.07153;;2005.4
2149.0;2086.5;;;;;;;;;;;;;;0.92263556;0.43391216;-0.017334513;;;;;2005.4
2149.0;2086.5;;;;;;;;;;;;;;;;;64.76791;-62.40272;67.777794;;2015.1
2149.0;2086.5;;;;;;;;;;;;;;0.93203527;0.44611958;-0.009949034;;;;;2015.1
2149.0;2086.5;;;;;;;;;;;;;;;;;66.16032;-62.623985;67.30858;;2015.1
2149.0;2086.5;;;;;;;;;;;;;;0.93472093;0.47437972;-0.017578661;;;;;2015.1
2149.0;2087.6;;;;;;;;;;;;;6267;;;;;;;;
2149.0;2087.6;;;;;;;;;;;;;6170;;;;;;;;
2149.0;2087.6;;;;;;;;;;;;;5359;;;;;;;;
2149.0;2087.6;;;;;;;;;;;;;3926;;;;;;;;
2149.0;2087.6;;;;;;;;;;;;;2853;;;;;;;;
2149.0;2088.2;;;;-0.94404995;0.06507874;-0.4738236;;;;;;;;;;;;;;;
2149.0;2088.2;;;;-0.9448358;0.06413651;-0.4733048;;;;;;;;;;;;;;;
2149.0;2088.2;;;;-0.945305;0.06319428;-0.47253424;;;;;;;;;;;;;;;
2149.0;2088.2;;;;-0.94545376;0.06200791;-0.47256476;;;;;;;;;;;;;;;
2149.0;2088.2;;;;-0.9450227;0.061119087;-0.4730721;;;;;;;;;;;;;;;
2149.0;2089.4;;;;;;;;;;-1.2588885;-3.5935545;1.9798884;;;;;;;;;
2149.0;2089.4;;;;;;;0.9940489;0.03686636;-0.1723075;;;;;;;;;;;;
2149.0;2089.4;;;;;;;;;;-1.1024811;-3.624073;1.9913328;;;;;;;;;
2149.0;2089.4;;;;;;;0.99826044;0.032227546;-0.17188025;;;;;;;;;;;;
2151.0;2098.2;;;;-0.9450532;0.060371406;-0.4736176;;;;;;;;;;;;;;;
2151.0;2098.2;;;;-0.9445535;0.059722908;-0.47373587;;;;;;;;;;;;;;;
2151.0;2098.2;;;;-0.9445001;0.05880738;-0.4734078;;;;;;;;;;;;;;;
2151.0;2098.2;;;;-0.94428647;0.058193214;-0.47325522;;;;;;;;;;;;;;;
2151.0;2098.2;;;;-0.9441949;0.057113655;-0.47276694;;;;;;;;;;;;;;;
2151.0;2099.0;;;;;;;;;;-1.0109257;-3.540147;2.0256662;;;;;;;;;
2151.0;2099.0;;;;;;;1.0015564;0.030152287;-0.17358929;;;;;;;;;;;;
2151.0;2099.0;;;;;;;;;;-0.90411085;-3.711814;2.0523698;;;;;;;;;
2151.0;2099.0;;;;;;;1.0033876;0.029419843;-0.17468795;;;;;;;;;;;;
2151.0;2100.3;;;;;;;;;;;;;;;;;67.09495;-62.952057;66.94235;;2024.8
2151.0;2100.3;;;;;;;;;;;;;;0.9425947;0.49324015;-0.031067843;;;;;2024.8
2151.0;2100.3;;;;;;;;;;;;;;;;;65.01587;-61.376537;67.92275;;2024.8
2151.0;2100.3;;;;;;;;;;;;;;0.9349651;0.49586475;-0.041505173;;;;;2024.8
2151.0;2100.3;;;;;;;;;;;;;;;;;59.911648;-57.676167;68.90316;;2034.5
2151.0;2100.3;;;;;;;;;;;;;;0.9457686;0.48200935;-0.044557024;;;;;2034.5
2151.0;2100.3;;;;;;;;;;;;;;;;;55.837425;-54.048283;69.46776;;2034.5
2151.0;2100.3;;;;;;;;;;;;;;0.96047854;0.47791985;-0.045167394;;;;;2034.5
2151.0;2100.3;;;;;;;;;;;;;;;;;50.97354;-50.592056;69.635605;;2044.1
2151.0;2100.3;;;;;;;;;;;;;;0.99087495;0.47718742;-0.037049472;;;;;2044.1
2151.0;2100.3;;;;;;;;;;;;;;;;;45.857876;-48.993652;69.48683;;2044.1
2151.0;2100.3;;;;;;;;;;;;;;1.007477;0.47889644;-0.039490953;;;;;2044.1
2151.0;2101.6;262143;262143;11652;;;;;;;;;;;;;;;;;;
2197.0;2108.0;;;;-0.9438859;0.055595405;-0.4727288;;;;;;;;;;;;;;;
2197.0;2108.0;;;;-0.94329464;0.05388642;-0.47259527;;;;;;;;;;;;;;;
2197.0;2108.0;;;;-0.9431764;0.052135475;-0.47326666;;;;;;;;;;;;;;;
2197.0;2108.0;;;;-0.9433061;0.050220497;-0.47299963;;;;;;;;;;;;;;;
2197.0;2108.0;;;;-0.9434167;0.04808045;-0.47264868;;;;;;;;;;;;;;;
2197.0;2108.3;;;;;;;;;;-0.79348123;-3.807184;2.0027773;;;;;;;;;
2197.0;2108.3;;;;;;;1.0088198;0.02600177;-0.17493209;;;;;;;;;;;;
2197.0;2108.3;;;;;;;;;;-0.71337014;-3.872036;1.9188513;;;;;;;;;
2197.0;2108.3;;;;;;;1.0108951;0.024597919;-0.17432173;;;;;;;;;;;;
2197.0;2117.5;;;;;;;;;;-0.6370739;-4.032258;1.842555;;;;;;;;;
2197.0;2117.5;;;;;;;1.0152287;0.021973327;-0.17303994;;;;;;;;;;;;
2197.0;2117.5;;;;;;;;;;-0.59511095;-4.188666;1.8311106;;;;;;;;;
2197.0;2117.5;;;;;;;1.0155339;0.023010956;-0.17297891;;;;;;;;;;;;
2197.0;2117.7;;;;-0.9437791;0.046184544;-0.47236258;;;;;;;;;;;;;;;
2197.0;2117.7;;;;-0.94373333;0.044246677;-0.47108084;;;;;;;;;;;;;;;
2197.0;2117.7;;;;-0.9437295;0.042564396;-0.47007757;;;;;;;;;;;;;;;
2197.0;2117.7;;;;-0.94373333;0.041416172;-0.4690743;;;;;;;;;;;;;;;
2197.0;2117.7;;;;-0.9433938;0.03950501;-0.46863562;;;;;;;;;;;;;;;
2197.0;2121.4;262143;262143;11659;;;;;;;;;;;;;;;;;;
2197.0;2127.1;;;;;;;;;;-0.5302591;-4.379406;1.701407;;;;;;;;;
2197.0;2127.1;;;;;;;1.0209051;0.01843318;-0.17108676;;;;;;;;;;;;
2197.0;2127.1;;;;;;;;;;-0.42725915;-4.6540728;1.575518;;;;;;;;;
2197.0;2127.1;;;;;;;1.0224311;0.015686514;-0.17108676;;;;;;;;;;;;
2199.0;2127.4;;;;;;;;;;;;;2957;;;;;;;;
2199.0;2127.4;;;;;;;;;;;;;3771;;;;;;;;
2199.0;2127.4;;;;;;;;;;;;;4396;;;;;;;;
2199.0;2127.4;;;;;;;;;;;;;4629;;;;;;;;
2199.0;2127.4;;;;;;;;;;;;;4600;;;;;;;;
2199.0;2127.8;;;;-0.94324505;0.038169865;-0.46786124;;;;;;;;;;;;;;;
2199.0;2127.8;;;;-0.94337857;0.03681946;-0.46714407;;;;;;;;;;;;;;;
2199.0;2127.8;;;;-0.9439546;0.03660584;-0.46633154;;;;;;;;;;;;;;;
2199.0;2127.8;;;;-0.94506085;0.0357132;-0.46544653;;;;;;;;;;;;;;;
2199.0;2127.8;;;;-0.9459573;0.03533173;-0.46461874;;;;;;;;;;;;;;;
2199.0;2136.8;;;;;;;;;;-0.3089999;-4.9401836;1.4610736;;;;;;;;;
2199.0;2136.8;;;;;;;1.0243232;0.0114139225;-0.17078158;;;;;;;;;;;;
2199.0;2136.8;;;;;;;;;;-0.25940734;-5.0737023;1.3351848;;;;;;;;;
2199.0;2136.8;;;;;;;1.0231025;0.009094516;-0.16840114;;;;;;;;;;;;
2199.0;2138.0;;;;-0.9470178;0.035049442;-0.4638062;;;;;;;;;;;;;;;
2199.0;2138.0;;;;-0.9475328;0.034946445;-0.46371847;;;;;;;;;;;;;;;
2199.0;2138.0;;;;-0.94768536;0.03487778;-0.46369177;;;;;;;;;;;;;;;
2199.0;2138.0;;;;-0.94682324;0.034542087;-0.46375662;;;;;;;;;;;;;;;
2199.0;2138.0;;;;-0.94620144;0.034694675;-0.4634362;;;;;;;;;;;;;;;
2199.0;2141.7;262143;262143;11665;;;;;;;;;;;;;;;;;;
2203.0;2145.2;;;;;;;;;;;;;;;;;40.87573;-47.23121;68.334755;;2053.7
2203.0;2145.2;;;;;;;;;;;;;;1.0043031;0.48628193;-0.049073763;;;;;2053.7
2203.0;2145.2;;;;;;;;;;;;;;;;;36.862545;-45.590836;67.78924;;2053.7
2203.0;2145.2;;;;;;;;;;;;;;1.0052186;0.4796289;-0.05346843;;;;;2053.7
2203.0;2145.2;;;;;;;;;;;;;;;;;33.940395;-43.66436;68.05246;;2063.4
2203.0;2145.2;;;;;;;;;;;;;;1.0200506;0.4664449;-0.053956725;;;;;2063.4
2203.0;2145.2;;;;;;;;;;;;;;;;;30.430769;-39.429913;68.42249;;2063.4
2203.0;2145.2;;;;;;;;;;;;;;1.02884;0.4392224;-0.036378063;;;;;2063.4
2203.0;2145.2;;;;;;;;;;;;;;;;;27.607805;-36.164433;67.50313;;2073.1
2203.0;2145.2;;;;;;;;;;;;;;1.0306101;0.41883603;-0.010681478;;;;;2073.1
2203.0;2145.2;;;;;;;;;;;;;;;;;27.562029;-38.7051;67.30476;;2073.1
2203.0;2145.2;;;;;;;;;;;;;;1.0232856;0.39613026;0.0017700735;;;;;2073.1
2203.0;2146.3;;;;;;;;;;-0.12970367;-5.1957765;1.2054812;;;;;;;;;
2203.0;2146.3;;;;;;;1.0232246;0.006530961;-0.1657155;;;;;;;;;;;;
2203.0;2146.3;;;;;;;;;;-0.14877774;-5.4399247;1.1444441;;;;;;;;;
2203.0;2146.3;;;;;;;1.0213324;0.006286813;-0.16150396;;;;;;;;;;;;
2203.0;2147.9;;;;-0.9440614;0.03421021;-0.46358496;;;;;;;;;;;;;;;
2203.0;2147.9;;;;-0.94225323;0.03343964;-0.46370703;;;;;;;;;;;;;;;
2203.0;2147.9;;;;-0.9402658;0.03250504;-0.46275336;;;;;;;;;;;;;;;
2203.0;2147.9;;;;-0.9389268;0.031890873;-0.462143;;;;;;;;;;;;;;;
2203.0;2147.9;;;;-0.9378511;0.030742649;-0.46443564;;;;;;;;;;;;;;;
2203.0;2155.8;;;;;;;;;;-0.14496292;-5.550554;1.0147405;;;;;;;;;
2203.0;2155.8;;;;;;;1.017487;0.006530961;-0.16187018;;;;;;;;;;;;
2203.0;2155.8;;;;;;;;;;-0.0839259;-5.752739;0.84307384;;;;;;;;;
2203.0;2155.8;;;;;;;1.0146184;0.0075075533;-0.15918455;;;;;;;;;;;;
2206.0;2157.9;;;;-0.937359;0.029674534;-0.46755224;;;;;;;;;;;;;;;
2206.0;2157.9;;;;-0.93755734;0.028709415;-0.47019964;;;;;;;;;;;;;;;
2206.0;2157.9;;;;-0.93791974;0.028156284;-0.47162634;;;;;;;;;;;;;;;
2206.0;2157.9;;;;-0.9381143;0.027862553;-0.47274023;;;;;;;;;;;;;;;
2206.0;2157.9;;;;-0.9375955;0.027751926;-0.47351462;;;;;;;;;;;;;;;
2206.0;2160.2;;;;;;;;;;;;;;;;;28.336435;-44.08399;67.21702;;2082.7
2206.0;2160.2;;;;;;;;;;;;;;1.0202338;0.36591694;-0.031311993;;;;;2082.7
2206.0;2160.2;;;;;;;;;;;;;;;;;29.232918;-45.064392;67.16361;;2082.7
2206.0;2160.2;;;;;;;;;;;;;;1.0162663;0.34321114;-0.043946654;;;;;2082.7
2206.0;2160.2;;;;;;;;;;;;;;;;;27.760399;-43.202766;67.55273;;2092.4
2206.0;2160.2;;;;;;;;;;;;;;1.01059;0.31501207;-0.04327525;;;;;2092.4
2206.0;2160.2;;;;;;;;;;;;;;;;;25.30366;-41.46321;68.03339;;2092.4
2206.0;2160.2;;;;;;;;;;;;;;0.99954224;0.2927946;-0.04937895;;;;;2092.4
2206.0;2160.2;;;;;;;;;;;;;;;;;24.967955;-42.550434;67.75872;;2102.0
2206.0;2160.2;;;;;;;;;;;;;;0.9933775;0.28107548;-0.06878872;;;;;2102.0
2206.0;2160.2;;;;;;;;;;;;;;;;;26.512955;-44.511246;68.06009;;2102.0
2206.0;2160.2;;;;;;;;;;;;;;0.99630725;0.26276436;-0.0905179;;;;;2102.0
2206.0;2161.6;262143;262143;11662;;;;;;;;;;;;;;;;;;
2206.0;2165.3;;;;;;;;;;-0.0076296274;-5.981628;0.67903686;;;;;;;;;
2206.0;2165.3;;;;;;;1.0094302;0.011963256;-0.15918455;;;;;;;;;;;;
2206.0;2165.3;;;;;;;;;;0.057222206;-6.2715535;0.63325906;;;;;;;;;
2206.0;2165.3;;;;;;;1.0039979;0.015015107;-0.16028321;;;;;;;;;;;;
2257.0;2167.5;;;;;;;;;;;;;4370;;;;;;;;
2257.0;2167.5;;;;;;;;;;;;;3095;;;;;;;;
2257.0;2167.5;;;;;;;;;;;;;1513;;;;;;;;
2257.0;2167.5;;;;;;;;;;;;;3822;;;;;;;;
2257.0;2167.5;;;;;;;;;;;;;5334;;;;;;;;
2257.0;2167.8;;;;-0.93677914;0.028049473;-0.47448355;;;;;;;;;;;;;;;
2257.0;2167.8;;;;-0.9353944;0.02877808;-0.47531515;;;;;;;;;;;;;;;
2257.0;2167.8;;;;-0.9341699;0.029438023;-0.4762116;;;;;;;;;;;;;;;
2257.0;2167.8;;;;-0.93317807;0.030265812;-0.47778708;;;;;;;;;;;;;;;
2257.0;2167.8;;;;-0.9319917;0.03085709;-0.47869498;;;;;;;;;;;;;;;
2257.0;2174.6;;;;;;;;;;0.0839259;-6.408887;0.7324442;;;;;;;;;
2257.0;2174.6;;;;;;;0.9983825;0.017151402;-0.15906247;;;;;;;;;;;;
2257.0;2174.6;;;;;;;;;;0.09155553;-6.5691094;0.8659627;;;;;;;;;
2257.0;2174.6;;;;;;;0.98965424;0.021668142;-0.15900144;;;;;;;;;;;;
2257.0;2177.7;;;;-0.9319917;0.031158451;-0.47951895;;;;;;;;;;;;;;;
2257.0;2177.7;;;;-0.9314729;0.031646732;-0.4801293;;;;;;;;;;;;;;;
2257.0;2177.7;;;;-0.93055356;0.031341556;-0.480156;;;;;;;;;;;;;;;
2257.0;2177.7;;;;-0.92936337;0.031265263;-0.47938925;;;;;;;;;;;;;;;
2257.0;2177.7;;;;-0.92702496;0.031459812;-0.4783097;;;;;;;;;;;;;;;
2257.0;2181.5;262143;262143;11667;;;;;;;;;;;;;;;;;;
2257.0;2184.2;;;;;;;;;;0.095370345;-6.8094425;0.96896267;;;;;;;;;
2257.0;2184.2;;;;;;;0.9861751;0.02313303;-0.15643787;;;;;;;;;;;;
2257.0;2184.2;;;;;;;;;;0.10299997;-7.1031833;1.0261849;;;;;;;;;
2257.0;2184.2;;;;;;;0.98538166;0.026245918;-0.15594958;;;;;;;;;;;;
2259.0;2187.9;;;;-0.924122;0.03110886;-0.47759634;;;;;;;;;;;;;;;
2259.0;2187.9;;;;-0.9208337;0.031421665;-0.4768029;;;;;;;;;;;;;;;
2259.0;2187.9;;;;-0.9174539;0.031059269;-0.4754334;;;;;;;;;;;;;;;
2259.0;2187.9;;;;-0.9143754;0.03079224;-0.47474295;;;;;;;;;;;;;;;
2259.0;2187.9;;;;-0.9119035;0.030635837;-0.47437674;;;;;;;;;;;;;;;
2259.0;2193.9;;;;;;;;;;0.08774071;-7.4007387;1.0872219;;;;;;;;;
2259.0;2193.9;;;;;;;0.98226875;0.030457472;-0.15735343;;;;;;;;;;;;
2259.0;2193.9;;;;;;;;;;0.038148135;-7.820368;1.2016664;;;;;;;;;
2259.0;2193.9;;;;;;;0.9814142;0.033875547;-0.15771966;;;;;;;;;;;;
2259.0;2198.0;;;;-0.9092752;0.030506138;-0.4728852;;;;;;;;;;;;;;;
2259.0;2198.0;;;;-0.9068452;0.030555729;-0.47121054;;;;;;;;;;;;;;;
2259.0;2198.0;;;;-0.903515;0.030918125;-0.46889502;;;;;;;;;;;;;;;
2259.0;2198.0;;;;-0.8993455;0.030521397;-0.46582037;;;;;;;;;;;;;;;
2259.0;2198.0;;;;-0.89414227;0.030303959;-0.46427923;;;;;;;;;;;;;;;
2259.0;2201.8;262143;262143;11672;;;;;;;;;;;;;;;;;;
2259.0;2203.5;;;;;;;;;;-0.068666644;-8.247627;1.3008515;;;;;;;;;
2259.0;2203.5;;;;;;;0.9818415;0.035279397;-0.15985595;;;;;;;;;;;;
2259.0;2203.5;;;;;;;;;;-0.16403699;-8.533738;1.4038514;;;;;;;;;
2259.0;2203.5;;;;;;;0.9796442;0.036805324;-0.15918455;;;;;;;;;;;;
2260.0;2205.2;;;;;;;;;;;;;;;;;26.535845;-41.77984;69.39527;;2111.6
2260.0;2205.2;;;;;;;;;;;;;;1.0028383;0.23120824;-0.09289835;;;;;2111.6
2260.0;2205.2;;;;;;;;;;;;;;;;;26.039919;-37.01895;70.34135;;2111.6
2260.0;2205.2;;;;;;;;;;;;;;1.0014954;0.2031312;-0.07184057;;;;;2111.6
2260.0;2205.2;;;;;;;;;;;;;;;;;27.043215;-35.592213;69.74624;;2121.2
2260.0;2205.2;;;;;;;;;;;;;;0.9956969;0.1850032;-0.06433302;;;;;2121.2
2260.0;2205.2;;;;;;;;;;;;;;;;;29.694511;-38.869137;68.19742;;2121.2
2260.0;2205.2;;;;;;;;;;;;;;1.0004578;0.19733268;-0.07757805;;;;;2121.2
2260.0;2205.2;;;;;;;;;;;;;;;;;31.865139;-42.046875;67.76635;;2130.8
2260.0;2205.2;;;;;;;;;;;;;;1.0005188;0.2047792;-0.101931825;;;;;2130.8
2260.0;2205.2;;;;;;;;;;;;;;;;;32.334362;-41.245766;68.327126;;2130.8
2260.0;2205.2;;;;;;;;;;;;;;1.0151677;0.20374157;-0.116641745;;;;;2130.8
2260.0;2207.5;;;;;;;;;;;;;-7902;;;;;;;;
2260.0;2207.5;;;;;;;;;;;;;-33140;;;;;;;;
2260.0;2207.5;;;;;;;;;;;;;-46315;;;;;;;;
2260.0;2207.5;;;;;;;;;;;;;-31586;;;;;;;;
2260.0;2207.5;;;;;;;;;;;;;-2570;;;;;;;;
2260.0;2207.9;;;;-0.8899766;0.030441288;-0.46225363;;;;;;;;;;;;;;;
2260.0;2207.9;;;;-0.8874017;0.030838016;-0.45960623;;;;;;;;;;;;;;;
2260.0;2207.9;;;;-0.885296;0.031040195;-0.45753103;;;;;;;;;;;;;;;
2260.0;2207.9;;;;-0.88269055;0.030696873;-0.45487982;;;;;;;;;;;;;;;
2260.0;2207.9;;;;-0.88095486;0.030704502;-0.4533463;;;;;;;;;;;;;;;
2260.0;2212.8;;;;;;;;;;-0.37385175;-8.827478;1.5907773;;;;;;;;;
2260.0;2212.8;;;;;;;0.9800104;0.036439102;-0.15979491;;;;;;;;;;;;
2260.0;2212.8;;;;;;;;;;-0.4730369;-8.957183;1.781518;;;;;;;;;
2260.0;2212.8;;;;;;;0.9759209;0.037965026;-0.15863521;;;;;;;;;;;;
2262.0;2217.8;;;;-0.8788682;0.029731754;-0.45109183;;;;;;;;;;;;;;;
2262.0;2217.8;;;;-0.8765031;0.028934482;-0.4488564;;;;;;;;;;;;;;;
2262.0;2217.8;;;;-0.87417233;0.027664188;-0.4460984;;;;;;;;;;;;;;;
2262.0;2217.8;;;;-0.87129223;0.02639008;-0.44273;;;;;;;;;;;;;;;
2262.0;2217.8;;;;-0.8689996;0.025150303;-0.43950278;;;;;;;;;;;;;;;
2262.0;2220.5;;;;;;;;;;;;;;;;;31.338696;-35.08484;69.5822;;2140.5
2262.0;2220.5;;;;;;;;;;;;;;1.0213324;0.19788201;-0.08978546;;;;;2140.5
2262.0;2220.5;;;;;;;;;;;;;;;;;30.411694;-29.667807;69.85305;;2140.5
2262.0;2220.5;;;;;;;;;;;;;;1.0179754;0.19611195;-0.056642354;;;;;2140.5
2262.0;2220.5;;;;;;;;;;;;;;;;;32.006287;-30.522324;70.234535;;2150.1
2262.0;2220.5;;;;;;;;;;;;;;1.0119327;0.16370128;-0.05859554;;;;;2150.1
2262.0;2220.5;;;;;;;;;;;;;;;;;34.424877;-34.249397;70.593124;;2150.1
2262.0;2220.5;;;;;;;;;;;;;;1.0069277;0.15210426;-0.083010346;;;;;2150.1
2262.0;2220.5;;;;;;;;;;;;;;;;;34.905544;-37.10288;69.292274;;2159.8
2262.0;2220.5;;;;;;;;;;;;;;1.0002747;0.17474899;-0.12170782;;;;;2159.8
2262.0;2220.5;;;;;;;;;;;;;;;;;35.767693;-37.49199;69.063385;;2159.8
2262.0;2220.5;;;;;;;;;;;;;;0.982696;0.19214454;-0.14099552;;;;;2159.8
2262.0;2221.5;262143;262143;11658;;;;;;;;;;;;;;;;;;
2262.0;2222.2;;;;;;;;;;-0.6370739;-9.052553;1.9837031;;;;;;;;;
2262.0;2222.2;;;;;;;0.97524947;0.0397351;-0.15698722;;;;;;;;;;;;
2262.0;2222.2;;;;;;;;;;-0.77822196;-9.006775;2.1439252;;;;;;;;;
2262.0;2222.2;;;;;;;0.97518843;0.040284432;-0.15552233;;;;;;;;;;;;
2315.0;2227.7;;;;-0.86703885;0.023696903;-0.43627554;;;;;;;;;;;;;;;
2315.0;2227.7;;;;-0.8641664;0.022109987;-0.43317038;;;;;;;;;;;;;;;
2315.0;2227.7;;;;-0.8608743;0.02105713;-0.43079764;;;;;;;;;;;;;;;
2315.0;2227.7;;;;-0.8575326;0.01962662;-0.42818457;;;;;;;;;;;;;;;
2315.0;2227.7;;;;-0.8543893;0.018184664;-0.42543036;;;;;;;;;;;;;;;
2315.0;2231.5;;;;;;;;;;-0.94225895;-8.972442;2.3079624;;;;;;;;;
2315.0;2231.5;;;;;;;0.9770806;0.038880583;-0.15375225;;;;;;;;;;;;
2315.0;2231.5;;;;;;;;;;-1.1406293;-8.896146;2.422407;;;;;;;;;
2315.0;2231.5;;;;;;;0.9722587;0.041627247;-0.15265359;;;;;;;;;;;;
2315.0;2237.4;;;;-0.8513757;0.016757967;-0.42268378;;;;;;;;;;;;;;;
2315.0;2237.4;;;;-0.84907544;0.016136171;-0.41995627;;;;;;;;;;;;;;;
2315.0;2237.4;;;;-0.8476106;0.015502932;-0.41729742;;;;;;;;;;;;;;;
2315.0;2237.4;;;;-0.84685147;0.014484407;-0.41515738;;;;;;;;;;;;;;;
2315.0;2237.4;;;;-0.84661114;0.013404848;-0.41270453;;;;;;;;;;;;;;;
2315.0;2241.0;;;;;;;;;;-1.3389996;-8.869442;2.6360364;;;;;;;;;
2315.0;2241.0;;;;;;;0.9698172;0.042909026;-0.1521653;;;;;;;;;;;;
2315.0;2241.0;;;;;;;;;;-1.4076662;-8.774072;2.929777;;;;;;;;;
2315.0;2241.0;;;;;;;0.96743673;0.0441908;-0.15259255;;;;;;;;;;;;
2315.0;2241.4;262143;262143;11661;;;;;;;;;;;;;;;;;;
2315.0;2247.3;;;;;;;;;;;;;14524;;;;;;;;
2315.0;2247.3;;;;;;;;;;;;;12841;;;;;;;;
2315.0;2247.3;;;;;;;;;;;;;6987;;;;;;;;
2315.0;2247.3;;;;;;;;;;;;;7772;;;;;;;;
2315.0;2247.3;;;;;;;;;;;;;10289;;;;;;;;
2318.0;2247.6;;;;-0.84638226;0.012638094;-0.40990835;;;;;;;;;;;;;;;
2318.0;2247.6;;;;-0.8459245;0.011779787;-0.4083634;;;;;;;;;;;;;;;
2318.0;2247.6;;;;-0.8449975;0.011196137;-0.40611655;;;;;;;;;;;;;;;
2318.0;2247.6;;;;-0.84365094;0.010299684;-0.40357977;;;;;;;;;;;;;;;
2318.0;2247.6;;;;-0.8423692;0.009815217;-0.40105063;;;;;;;;;;;;;;;
2318.0;2250.6;;;;;;;;;;-1.5640736;-8.587145;3.173925;;;;;;;;;
2318.0;2250.6;;;;;;;0.96591085;0.04773095;-0.15308085;;;;;;;;;;;;
2318.0;2250.6;;;;;;;;;;-1.7471846;-8.220923;3.4333322;;;;;;;;;
2318.0;2250.6;;;;;;;0.9620655;0.047608875;-0.1528367;;;;;;;;;;;;
2318.0;2257.7;;;;-0.84180844;0.010387422;-0.39841086;;;;;;;;;;;;;;;
2318.0;2257.7;;;;-0.8423158;0.011138917;-0.3967362;;;;;;;;;;;;;;;
2318.0;2257.7;;;;-0.8418313;0.011859896;-0.3946572;;;;;;;;;;;;;;;
2318.0;2257.7;;;;-0.8413354;0.012500765;-0.39225394;;;;;;;;;;;;;;;
2318.0;2257.7;;;;-0.84103024;0.013397219;-0.3908921;;;;;;;;;;;;;;;
2318.0;2260.3;;;;;;;;;;-1.8196661;-8.003479;3.5554063;;;;;;;;;
2318.0;2260.3;;;;;;;0.9618213;0.050416578;-0.15094455;;;;;;;;;;;;
2318.0;2260.3;;;;;;;;;;-2.006592;-7.942442;3.707999;;;;;;;;;
2318.0;2260.3;;;;;;;0.95937985;0.05017243;-0.15033418;;;;;;;;;;;;
2318.0;2261.7;262143;262143;11662;;;;;;;;;;;;;;;;;;
