patientId;holterMac;flexMac;;;;;;;;;;;;;;;;;;;;
;CA:F3:0B:1E:33:78;D3:4A:5C:52:80:78;;;;;;;;;;;;;;;;;;;;
receivedTimeStamp;timeStamp;red;ir;green;adxl_accX;adxl_accY;adxl_accZ;lsm_accelX;lsm_accelY;lsm_accelZ;lsm_gyroX;lsm_gyroY;lsm_gyroZ;ecg;flex_lsm_accelX;flex_lsm_accelY;flex_lsm_accelZ;flex_lsm_gyroX;flex_lsm_gyroY;flex_lsm_gyroZ;flex_cmd;flexTimeStamp
306.0;212.8;;;;;;;;;;;;;;;;;;;;17;0.1
306.0;212.8;;;;;;;;;;;;;;;;;12.485885;2.0561848;1.2207403;;127.5
306.0;212.8;;;;;;;;;;;;;;0.80813015;0.43079928;-0.67110205;;;;;127.5
306.0;212.8;;;;;;;;;;;;;;;;;-8.224739;-16.476181;-6.85522;;127.5
306.0;212.8;;;;;;;;;;;;;;0.804651;0.42091128;-0.6928312;;;;;127.5
306.0;212.8;;;;;;;;;;;;;;;;;-72.74468;-85.352646;-66.045876;;137.2
306.0;212.8;;;;;;;;;;;;;;0.8233894;0.3700064;-0.67659533;;;;;137.2
306.0;212.8;;;;;;;;;;;;;;;;;-123.908966;-124.988556;-122.10074;;137.2
306.0;212.8;;;;;;;;;;;;;;0.8429823;0.33606982;-0.6797693;;;;;137.2
367.0;213.5;;;;;;;;;;;;;;;;;-105.76571;-124.988556;-96.70171;;146.8
367.0;213.5;;;;;;;;;;;;;;0.8427992;0.3160497;-0.69429606;;;;;146.8
367.0;213.5;;;;;;;;;;;;;;;;;-110.263374;-124.988556;-76.51753;;146.8
367.0;213.5;;;;;;;;;;;;;;0.8476821;0.30115664;-0.68660545;;;;;146.8
367.0;213.5;;;;;;;;;;;;;;;;;-124.64141;-112.19749;-77.5132;;156.5
367.0;213.5;;;;;;;;;;;;;;0.8636128;0.2811365;-0.67427593;;;;;156.5
367.0;213.5;;;;;;;;;;;;;;;;;-124.988556;-67.957085;-53.941467;;156.5
367.0;213.5;;;;;;;;;;;;;;0.88680685;0.26319164;-0.66170233;;;;;156.5
367.0;213.5;;;;;;;;;;;;;;;;;-124.988556;-66.911835;-47.601246;;166.1
367.0;213.5;;;;;;;;;;;;;;0.9023713;0.2501297;-0.6587725;;;;;166.1
367.0;213.5;;;;;;;;;;;;;;;;;-124.988556;-70.01709;-42.275764;;166.1
367.0;213.5;;;;;;;;;;;;;;0.91317487;0.23358867;-0.6585894;;;;;166.1
367.0;273.6;;;;;;;;;;;;;;;;;-124.988556;-73.885315;-36.111027;;175.7
367.0;273.6;;;;;;;;;;;;;;0.92965484;0.20947905;-0.6697592;;;;;175.7
367.0;273.6;;;;;;;;;;;;;;;;;-124.988556;-76.208534;-30.121769;;175.7
367.0;273.6;;;;;;;;;;;;;;0.9373455;0.18762779;-0.69124424;;;;;175.7
367.0;273.6;;;;;;;;;;;;;;;;;-124.988556;-75.2205;-24.063845;;185.2
367.0;273.6;;;;;;;;;;;;;;0.9317301;0.16510513;-0.69429606;;;;;185.2
367.0;273.6;;;;;;;;;;;;;;;;;-124.988556;-72.75613;-18.753624;;185.2
367.0;273.6;;;;;;;;;;;;;;0.9173864;0.15747552;-0.6837367;;;;;185.2
367.0;273.6;;;;;;;;;;;;;;;;;-124.988556;-71.16153;-13.496811;;194.9
367.0;273.6;;;;;;;;;;;;;;0.8921781;0.14123966;-0.6653035;;;;;194.9
367.0;273.6;;;;;;;;;;;;;;;;;-124.988556;-71.60405;-7.801294;;194.9
367.0;273.6;;;;;;;;;;;;;;0.86556596;0.13385418;-0.6532792;;;;;194.9
431.0;274.2;;;;;;;;;;;;;;;;;-124.988556;-73.81664;-1.7471846;;204.6
431.0;274.2;;;;;;;;;;;;;;0.8503677;0.11279641;-0.6457717;;;;;204.6
431.0;274.2;;;;;;;;;;;;;;;;;-124.988556;-75.59435;3.9368877;;204.6
431.0;274.2;;;;;;;;;;;;;;0.8344981;0.13135166;-0.63637197;;;;;204.6
431.0;274.2;;;;;;;;;;;;;;;;;-124.75204;-71.2302;22.770622;;214.2
431.0;274.2;;;;;;;;;;;;;;1.2262948;-0.50660723;-0.52650535;;;;;214.2
431.0;274.2;;;;;;;;;;;;;;;;;-113.84167;-11.909848;57.607502;;214.2
431.0;274.2;;;;;;;;;;;;;;0.7021699;0.003540147;0.3882565;;;;;214.2
431.0;274.2;;;;;;;;;;;;;;;;;-122.38303;-57.321392;29.721214;;223.9
431.0;274.2;;;;;;;;;;;;;;0.79824215;0.11175878;-0.9666433;;;;;223.9
431.0;274.2;;;;;;;;;;;;;;;;;-122.245705;-59.66369;39.551987;;223.9
431.0;274.2;;;;;;;;;;;;;;1.2339244;-0.8008667;-0.89651173;;;;;223.9
431.0;333.4;;;;;;;;;;;;;;;;;-97.38838;26.30314;64.87854;;233.5
431.0;333.4;;;;;;;;;;;;;;0.57527393;-0.78212833;1.0891446;;;;;233.5
431.0;333.4;;;;;;;;;;;;;;;;;-118.96878;-88.183235;0.34714803;;233.5
431.0;333.4;;;;;;;;;;;;;;0.39558092;0.06701865;0.5230262;;;;;233.5
431.0;333.4;;;;;;;;;;;;;;;;;-124.988556;-124.988556;-27.397991;;243.1
431.0;333.4;;;;;;;;;;;;;;1.0430616;0.73775446;-0.9177526;;;;;243.1
431.0;333.4;;;;;;;;;;;;;;;;;-124.988556;-124.038666;46.254616;;243.1
431.0;333.4;;;;;;;;;;;;;;1.1895505;0.27112645;-1.5297709;;;;;243.1
431.0;333.4;;;;;;;;;;;;;;;;;-124.988556;-96.621605;52.728355;;252.6
431.0;333.4;;;;;;;;;;;;;;1.1665395;0.0966216;-1.8524125;;;;;252.6
431.0;333.4;;;;;;;;;;;;;;;;;-124.988556;-49.64217;35.412914;;252.6
431.0;333.4;;;;;;;;;;;;;;1.0160832;0.012573626;-1.9763176;;;;;252.6
492.0;334.2;;;;;;;;;;;;;;;;;-124.988556;2.094333;27.294992;;262.3
492.0;334.2;;;;;;;;;;;;;;0.9582202;-0.118717;-1.2641377;;;;;262.3
492.0;334.2;;;;;;;;;;;;;;;;;-124.988556;27.04703;20.386364;;262.3
492.0;334.2;;;;;;;;;;;;;;0.84414196;-0.25147253;-0.39362773;;;;;262.3
492.0;334.2;;;;;;;;;;;;;;;;;-124.176;21.473587;26.249733;;271.9
492.0;334.2;;;;;;;;;;;;;;0.6388745;-0.18420972;0.4062624;;;;;271.9
492.0;334.2;;;;;;;;;;;;;;;;;-115.112;-10.418256;39.361244;;271.9
492.0;334.2;;;;;;;;;;;;;;0.53761405;-0.049867246;0.56788844;;;;;271.9
492.0;334.2;;;;;;;;;;;;;;;;;-115.4706;-42.439804;55.059204;;281.6
492.0;334.2;;;;;;;;;;;;;;0.59596545;-0.15936765;0.017517624;;;;;281.6
492.0;334.2;;;;;;;;;;;;;;;;;-102.988525;-31.85751;63.8142;;281.6
492.0;334.2;;;;;;;;;;;;;;0.5735649;-0.27820674;-0.08081301;;;;;281.6
492.0;393.8;;;;;;;;;;;;;;;;;-87.05024;-14.328441;65.382095;;291.3
492.0;393.8;;;;;;;;;;;;;;0.4125492;-0.25287637;0.14703818;;;;;291.3
492.0;393.8;;;;;;;;;;;;;;;;;-84.98642;-29.499954;72.42424;;291.3
492.0;393.8;;;;;;;;;;;;;;0.29963073;-0.29224524;0.15155491;;;;;291.3
492.0;393.8;;;;;;;;;;;;;;;;;-88.53801;-54.658653;79.596085;;300.8
492.0;393.8;;;;;;;;;;;;;;0.34382153;-0.32801294;0.0024414808;;;;;300.8
492.0;393.8;;;;;;;;;;;;;;;;;-86.11561;-71.13101;87.43935;;300.8
492.0;393.8;;;;;;;;;;;;;;0.4080935;-0.3389996;-0.060975984;;;;;300.8
492.0;393.8;;;;;;;;;;;;;;;;;-85.203865;-83.25449;90.24323;;310.5
492.0;393.8;;;;;;;;;;;;;;0.5515305;-0.40028077;-0.11444441;;;;;310.5
492.0;393.8;;;;;;;;;;;;;;;;;-72.81716;-85.497604;90.89175;;310.5
492.0;393.8;;;;;;;;;;;;;;0.6275216;-0.46259958;0.05139317;;;;;310.5
550.0;394.6;;;;;;;;;;;;;;;;;-59.614094;-94.17631;89.777824;;320.1
550.0;394.6;;;;;;;;;;;;;;0.64461195;-0.4956206;0.13794367;;;;;320.1
550.0;394.6;;;;;;;;;;;;;;;;;-49.874874;-110.32441;88.68678;;320.1
550.0;394.6;;;;;;;;;;;;;;0.67085785;-0.54609823;0.13495284;;;;;320.1
550.0;394.6;;;;;;;;;;;;;;;;;-44.08399;-120.44129;86.1919;;329.6
550.0;394.6;;;;;;;;;;;;;;0.72206795;-0.50160223;0.16046633;;;;;329.6
550.0;394.6;;;;;;;;;;;;;;;;;-43.805508;-124.22178;84.933014;;329.6
550.0;394.6;;;;;;;;;;;;;;0.81026644;-0.42945647;0.19550157;;;;;329.6
550.0;394.6;;;;;;;;;;;;;;;;;-45.613728;-121.66585;86.56194;;339.2
550.0;394.6;;;;;;;;;;;;;;0.9071932;-0.35029146;0.18488114;;;;;339.2
550.0;394.6;;;;;;;;;;;;;;;;;-49.104282;-109.225746;86.61916;;339.2
550.0;394.6;;;;;;;;;;;;;;0.9812311;-0.32087162;0.16736351;;;;;339.2
550.0;461.7;;;;;;;;;;;;;;;;;-55.249947;-93.89783;79.95086;;348.9
550.0;461.7;;;;;;;;;;;;;;1.0378735;-0.23401593;0.07953124;;;;;348.9
550.0;461.7;;;;;;;;;;;;;;;;;-57.46254;-75.972015;78.43638;;348.9
550.0;461.7;;;;;;;;;;;;;;1.0408032;-0.17737357;0.038880583;;;;;348.9
550.0;461.7;;;;;;;;;;;;;;;;;-55.398724;-60.213017;77.528465;;358.5
550.0;461.7;;;;;;;;;;;;;;1.0425123;-0.13196203;0.0081789605;;;;;358.5
550.0;461.7;;;;;;;;;;;;;;;;;-50.19913;-47.50206;76.01398;;358.5
550.0;461.7;;;;;;;;;;;;;;1.0480056;-0.097598195;-0.04242073;;;;;358.5
550.0;461.7;;;;;;;;;;;;;;;;;-40.02884;-34.38673;72.80953;;368.1
550.0;461.7;;;;;;;;;;;;;;1.040437;-0.080996126;-0.09552293;;;;;368.1
550.0;461.7;;;;;;;;;;;;;;;;;-25.35325;-19.882809;67.70913;;368.1
550.0;461.7;;;;;;;;;;;;;;1.0159001;-0.056398205;-0.09063997;;;;;368.1
672.0;462.4;;;;;;;;;;;;;;;;;-8.114109;-8.377332;62.990204;;377.7
672.0;462.4;;;;;;;;;;;;;;0.9822077;-0.043397322;-0.068666644;;;;;377.7
672.0;462.4;;;;;;;;;;;;;;;;;9.643849;-1.4610736;58.435318;;377.7
672.0;462.4;;;;;;;;;;;;;;0.94192326;-0.043458357;-0.06738487;;;;;377.7
672.0;462.4;;;;;;;;;;;;;;;;;26.806696;-1.3122959;53.59432;;387.4
672.0;462.4;;;;;;;;;;;;;;0.8964507;-0.00573748;-0.15912351;;;;;387.4
672.0;462.4;;;;;;;;;;;;;;;;;45.464947;-3.3265176;47.87591;;387.4
672.0;462.4;;;;;;;;;;;;;;0.84212774;0.06891079;-0.25928527;;;;;387.4
672.0;462.4;;;;;;;;;;;;;;;;;66.93472;-9.228034;41.928616;;397.0
672.0;462.4;;;;;;;;;;;;;;0.80880153;0.15540025;-0.35084078;;;;;397.0
672.0;462.4;;;;;;;;;;;;;;;;;88.068794;-14.233069;37.15247;;397.0
672.0;462.4;;;;;;;;;;;;;;0.78109074;0.20081179;-0.43934447;;;;;397.0
672.0;521.9;;;;;;;;;;;;;;;;;110.156555;-15.907774;31.949066;;406.6
672.0;521.9;;;;;;;;;;;;;;0.7201758;0.2169866;-0.5114902;;;;;406.6
672.0;521.9;;;;;;;;;;;;;;;;;124.23322;-20.130772;26.257362;;406.6
672.0;521.9;;;;;;;;;;;;;;0.6093936;0.23908201;-0.5808893;;;;;406.6
672.0;521.9;;;;;;;;;;;;;;;;;124.988556;-32.37251;22.541733;;416.1
672.0;521.9;;;;;;;;;;;;;;0.49867246;0.24732201;-0.65382856;;;;;416.1
672.0;521.9;;;;;;;;;;;;;;;;;124.988556;-51.85095;19.0817;;416.1
672.0;521.9;;;;;;;;;;;;;;0.45039216;0.2501297;-0.72310555;;;;;416.1
672.0;521.9;;;;;;;;;;;;;;;;;124.988556;-67.52221;14.172032;;425.8
672.0;521.9;;;;;;;;;;;;;;0.5058748;0.30115664;-0.7729118;;;;;425.8
672.0;521.9;;;;;;;;;;;;;;;;;124.988556;-70.6122;13.187811;;425.8
672.0;521.9;;;;;;;;;;;;;;0.53382975;0.2705771;-0.78902555;;;;;425.8
673.0;523.1;;;;;;;;;;;;;;;;;124.988556;-75.37309;11.391033;;435.4
673.0;523.1;;;;;;;;;;;;;;0.5406049;0.27802363;-0.816126;;;;;435.4
673.0;523.1;;;;;;;;;;;;;;;;;124.988556;-83.288826;8.095035;;435.4
673.0;523.1;;;;;;;;;;;;;;0.52955717;0.34363842;-0.8514054;;;;;435.4
673.0;523.1;;;;;;;;;;;;;;;;;124.988556;-91.3686;0.30518508;;445.1
673.0;523.1;;;;;;;;;;;;;;0.56105226;0.48146;-0.86861783;;;;;445.1
673.0;523.1;;;;;;;;;;;;;;;;;124.988556;-89.7969;-10.803553;;445.1
673.0;523.1;;;;;;;;;;;;;;0.63057345;0.67824334;-0.79171115;;;;;445.1
673.0;523.1;;;;;;;;;;;;;;;;;124.988556;-84.67361;-17.265846;;454.6
673.0;523.1;;;;;;;;;;;;;;0.7160253;0.9383831;-0.57960755;;;;;454.6
673.0;523.1;;;;;;;;;;;;;;;;;124.59181;-88.15272;-13.122959;;454.6
673.0;523.1;;;;;;;;;;;;;;0.73677784;0.9798273;-0.4975738;;;;;454.6
673.0;529.2;;;;;;;;;;;;;;;;;112.72393;-92.94794;-15.614033;;464.3
673.0;529.2;;;;;;;;;;;;;;0.79586166;1.0751671;-0.46607867;;;;;464.3
673.0;529.2;;;;;;;;;;;;;;;;;80.84734;-86.97012;-20.069735;;464.3
673.0;529.2;;;;;;;;;;;;;;0.842555;1.0713828;-0.44520402;;;;;464.3
673.0;529.2;;;;;;;;;;;;;;;;;56.684315;-75.308235;-29.29014;;473.9
673.0;529.2;;;;;;;;;;;;;;0.94119084;1.2895901;-0.3364971;;;;;473.9
673.0;529.2;;;;;;;;;;;;;;;;;23.010956;-67.38106;-16.865292;;473.9
673.0;529.2;;;;;;;;;;;;;;0.9960631;1.4252144;-0.35743278;;;;;473.9
673.0;529.2;;;;;;;;;;;;;;;;;2.6131475;-71.37516;2.113407;;483.6
673.0;529.2;;;;;;;;;;;;;;1.038667;1.3724173;-0.4283578;;;;;483.6
673.0;529.2;;;;;;;;;;;;;;;;;-16.407515;-76.83798;8.40022;;483.6
673.0;529.2;;;;;;;;;;;;;;1.1910154;1.399945;-0.4431898;;;;;483.6
731.0;582.1;;;;;;;;;;;;;;;;;-57.260353;-75.44939;19.085514;;493.3
731.0;582.1;;;;;;;;;;;;;;1.3200476;1.3445845;-0.47553942;;;;;493.3
731.0;582.1;;;;;;;;;;;;;;;;;-99.34919;-75.59817;28.389843;;493.3
731.0;582.1;;;;;;;;;;;;;;1.482284;1.2040772;-0.5305338;;;;;493.3
731.0;582.1;;;;;;;;;;;;;;;;;-121.295815;-68.548386;35.699024;;502.8
731.0;582.1;;;;;;;;;;;;;;1.7886288;1.1280862;-0.57020783;;;;;502.8
731.0;582.1;;;;;;;;;;;;;;;;;-124.988556;-37.743767;39.391766;;502.8
731.0;582.1;;;;;;;;;;;;;;1.9965819;1.0056459;-0.48304698;;;;;502.8
731.0;582.1;;;;;;;;;;;;;;;;;-124.988556;2.25074;48.623615;;512.4
731.0;582.1;;;;;;;;;;;;;;1.9965819;1.0788293;-0.1345256;;;;;512.4
731.0;582.1;;;;;;;;;;;;;;;;;-124.988556;25.009918;83.62072;;512.4
731.0;582.1;;;;;;;;;;;;;;1.9725333;0.7887814;-0.058046207;;;;;512.4
731.0;634.8;;;;;;;;;;;;;;;;;-124.988556;60.132908;92.71523;;522.1
731.0;634.8;;;;;;;;;;;;;;1.9248635;0.5874203;0.35175633;;;;;522.1
731.0;634.8;;;;;;;;;;;;;;;;;-124.988556;61.34602;82.74712;;522.1
731.0;634.8;;;;;;;;;;;;;;1.996643;0.6427198;0.3533433;;;;;522.1
731.0;634.8;;;;;;;;;;;;;;;;;-124.988556;50.85528;74.736015;;531.7
731.0;634.8;;;;;;;;;;;;;;1.996643;0.7624744;-0.025818659;;;;;531.7
731.0;634.8;;;;;;;;;;;;;;;;;-124.988556;54.990536;56.41728;;531.7
731.0;634.8;;;;;;;;;;;;;;1.996643;1.078402;-0.4051027;;;;;531.7
731.0;634.8;;;;;;;;;;;;;;;;;-124.988556;62.5782;35.668507;;541.3
731.0;634.8;;;;;;;;;;;;;;1.996643;1.460738;-0.707358;;;;;541.3
731.0;634.8;;;;;;;;;;;;;;;;;-124.988556;49.40184;31.125065;;541.3
731.0;634.8;;;;;;;;;;;;;;1.7134312;1.5390484;-1.0309153;;;;;541.3
854.0;636.0;;;;;;;;;;;;;;;;;-124.988556;8.911405;38.44951;;551.0
854.0;636.0;;;;;;;;;;;;;;1.2287973;1.1280862;-1.330607;;;;;551.0
854.0;636.0;;;;;;;;;;;;;;;;;-124.988556;-34.875027;43.969543;;551.0
854.0;636.0;;;;;;;;;;;;;;0.9406415;0.52540666;-1.3597217;;;;;551.0
854.0;636.0;;;;;;;;;;;;;;;;;-124.988556;-58.339947;55.963314;;560.6
854.0;636.0;;;;;;;;;;;;;;0.8321787;0.09356975;-1.1593982;;;;;560.6
854.0;636.0;;;;;;;;;;;;;;;;;-124.988556;-58.503983;91.364784;;560.6
854.0;636.0;;;;;;;;;;;;;;0.7752312;-0.28455457;-0.8855861;;;;;560.6
854.0;636.0;;;;;;;;;;;;;;;;;-124.988556;-43.72921;122.451706;;570.3
854.0;636.0;;;;;;;;;;;;;;0.7001556;-0.53401285;-0.60506;;;;;570.3
854.0;636.0;;;;;;;;;;;;;;;;;-124.01578;-20.401623;124.988556;;570.3
854.0;636.0;;;;;;;;;;;;;;0.49720755;-0.803003;-0.21796319;;;;;570.3
854.0;649.8;;;;;;;;;;;;;;;;;-118.850525;-1.1597034;124.988556;;579.9
854.0;649.8;;;;;;;;;;;;;;0.3472396;-1.0906705;-0.0783105;;;;;579.9
854.0;649.8;;;;;;;;;;;;;;;;;-88.290054;33.280437;124.988556;;579.9
854.0;649.8;;;;;;;;;;;;;;0.37940612;-1.1516465;0.021057772;;;;;579.9
854.0;649.8;;;;;;;;;;;;;;;;;-67.54128;92.600784;124.988556;;589.6
854.0;649.8;;;;;;;;;;;;;;0.38013855;-1.124485;0.16284677;;;;;589.6
854.0;649.8;;;;;;;;;;;;;;;;;-57.676167;123.79452;124.988556;;589.6
854.0;649.8;;;;;;;;;;;;;;0.31415755;-1.17893;0.29255044;;;;;589.6
854.0;649.8;;;;;;;;;;;;;;;;;-25.357065;124.988556;124.988556;;599.3
854.0;649.8;;;;;;;;;;;;;;0.19586779;-1.2228156;0.38666952;;;;;599.3
854.0;649.8;;;;;;;;;;;;;;;;;13.729514;124.80163;124.988556;;599.3
854.0;649.8;;;;;;;;;;;;;;0.04998932;-1.5587634;0.5953551;;;;;599.3
909.0;702.6;;;;;;;;;;;;;;;;;79.882195;86.661125;124.988556;;608.8
909.0;702.6;;;;;;;;;;;;;;-0.23993652;-1.528489;0.6048769;;;;;608.8
909.0;702.6;;;;;;;;;;;;;;;;;124.14166;-31.45314;124.988556;;608.8
909.0;702.6;;;;;;;;;;;;;;-0.4878689;-1.6049074;0.49879453;;;;;608.8
909.0;702.6;;;;;;;;;;;;;;;;;124.91226;-114.543594;124.988556;;618.3
909.0;702.6;;;;;;;;;;;;;;-0.4888455;-1.2847072;0.0827662;;;;;618.3
909.0;702.6;;;;;;;;;;;;;;;;;116.98508;-124.988556;124.57274;;618.3
909.0;702.6;;;;;;;;;;;;;;-0.5146642;-1.0439161;-0.20392469;;;;;618.3
909.0;702.6;;;;;;;;;;;;;;;;;79.25657;-122.88659;81.46916;;627.9
909.0;702.6;;;;;;;;;;;;;;-0.3058565;-0.39002654;-0.42860195;;;;;627.9
909.0;702.6;;;;;;;;;;;;;;;;;-13.557848;-92.814415;-8.7893305;;627.9
909.0;702.6;;;;;;;;;;;;;;0.023010956;0.10242012;-0.40418714;;;;;627.9
909.0;703.4;;;;;;;;;;;;;;;;;-104.07193;-61.49861;-61.490982;;637.5
909.0;703.4;;;;;;;;;;;;;;0.19959106;0.082583085;-0.41248816;;;;;637.5
909.0;703.4;;;;;;;;;;;;;;;;;-124.93515;-69.193085;-109.71022;;637.5
909.0;703.4;;;;;;;;;;;;;;0.326487;-0.027100436;-0.4636372;;;;;637.5
909.0;703.4;;;;;;;;;;;;;;;;;-120.117035;-112.20512;-124.80544;;647.2
909.0;703.4;;;;;;;;;;;;;;0.5800348;-0.069093905;-0.6916715;;;;;647.2
909.0;703.4;;;;;;;;;;;;;;;;;-97.01453;-124.54985;-124.988556;;647.2
909.0;703.4;;;;;;;;;;;;;;1.0686972;-0.04242073;-1.1666616;;;;;647.2
909.0;703.4;;;;;;;;;;;;;;;;;-24.59029;-114.57793;-124.988556;;656.9
909.0;703.4;;;;;;;;;;;;;;1.3531296;-0.25189978;-1.3426924;;;;;656.9
909.0;703.4;;;;;;;;;;;;;;;;;102.5193;-84.852905;-124.988556;;656.9
909.0;703.4;;;;;;;;;;;;;;1.8870205;-0.08239998;-1.5881222;;;;;656.9
910.0;755.4;;;;;;;;;;;;;;;;;124.988556;57.94702;-124.988556;;666.4
910.0;755.4;;;;;;;;;;;;;;1.996643;0.69454026;-0.92855614;;;;;666.4
910.0;755.4;;;;;;;;;;;;;;;;;124.988556;124.98093;-124.988556;;666.4
910.0;755.4;;;;;;;;;;;;;;1.9185766;1.3926817;0.43653676;;;;;666.4
910.0;755.4;;;;;;;;;;;;;;;;;121.35685;124.881744;-124.988556;;675.8
910.0;755.4;;;;;;;;;;;;;;1.223365;1.8558916;1.0242012;;;;;675.8
910.0;755.4;;;;;;;;;;;;;;;;;28.771324;75.10987;-124.988556;;675.8
910.0;755.4;;;;;;;;;;;;;;0.6789758;1.9875485;1.1233864;;;;;675.8
910.0;755.4;;;;;;;;;;;;;;;;;-98.66253;-85.61205;-119.04508;;685.4
910.0;755.4;;;;;;;;;;;;;;0.43812373;1.6040529;0.5150304;;;;;685.4
910.0;755.4;;;;;;;;;;;;;;;;;-124.938965;-124.988556;-28.057955;;685.4
910.0;755.4;;;;;;;;;;;;;;0.4163335;0.8833277;-0.34229562;;;;;685.4
910.0;763.1;;;;;;;;;;;;;;;;;-124.9733;-124.988556;85.73794;;695.1
910.0;763.1;;;;;;;;;;;;;;0.41645557;0.2658162;-1.1476791;;;;;695.1
910.0;763.1;;;;;;;;;;;;;;;;;-104.48393;-109.70259;99.19278;;695.1
910.0;763.1;;;;;;;;;;;;;;0.33753473;0.06402783;-1.4351023;;;;;695.1
910.0;763.1;;;;;;;;;;;;;;;;;-37.202065;-1.3847773;79.52742;;704.6
910.0;763.1;;;;;;;;;;;;;;0.4227424;0.012146367;-0.8357799;;;;;704.6
910.0;763.1;;;;;;;;;;;;;;;;;-11.577959;72.89346;101.897484;;704.6
910.0;763.1;;;;;;;;;;;;;;0.6491897;0.121890925;-0.22168645;;;;;704.6
910.0;763.1;;;;;;;;;;;;;;;;;-40.948208;78.40586;109.47752;;714.2
910.0;763.1;;;;;;;;;;;;;;0.51155126;0.10589923;0.048036136;;;;;714.2
910.0;763.1;;;;;;;;;;;;;;;;;-57.069614;-37.671288;96.46138;;714.2
910.0;763.1;;;;;;;;;;;;;;0.7639393;0.022217475;-0.4537492;;;;;714.2
972.0;815.5;;;;;;;;;;;;;;;;;-40.41795;-95.24445;113.11685;;723.8
972.0;815.5;;;;;;;;;;;;;;1.0965911;0.07013153;-0.7342143;;;;;723.8
972.0;815.5;;;;;;;;;;;;;;;;;-25.837732;-31.491287;124.847404;;723.8
972.0;815.5;;;;;;;;;;;;;;1.1158788;0.15002899;-0.423719;;;;;723.8
972.0;815.5;;;;;;;;;;;;;;;;;-15.270699;32.193214;124.988556;;733.4
972.0;815.5;;;;;;;;;;;;;;1.0722984;0.065981016;-0.09399701;;;;;733.4
972.0;815.5;;;;;;;;;;;;;;;;;18.063143;40.952023;124.988556;;733.4
972.0;815.5;;;;;;;;;;;;;;0.99923706;-0.06872769;0.05468917;;;;;733.4
972.0;815.5;;;;;;;;;;;;;;;;;22.362436;-2.8534806;124.988556;;742.9
972.0;815.5;;;;;;;;;;;;;;0.93905455;-0.26996672;-0.2630085;;;;;742.9
972.0;815.5;;;;;;;;;;;;;;;;;-15.705587;-41.901913;124.988556;;742.9
972.0;815.5;;;;;;;;;;;;;;0.93960387;-0.47529528;-0.63093966;;;;;742.9
972.0;876.0;;;;;;;;;;;;;;;;;-39.540543;-41.03595;124.988556;;752.6
972.0;876.0;;;;;;;;;;;;;;0.85860777;-0.6203803;-0.70003355;;;;;752.6
972.0;876.0;;;;;;;;;;;;;;;;;-34.69573;-15.942106;116.25263;;752.6
972.0;876.0;;;;;;;;;;;;;;0.74898523;-0.6560259;-0.4671163;;;;;752.6
972.0;876.0;;;;;;;;;;;;;;;;;-4.272591;-5.775628;63.074127;;762.2
972.0;876.0;;;;;;;;;;;;;;0.7817621;-0.49043244;-0.23291726;;;;;762.2
972.0;876.0;;;;;;;;;;;;;;;;;26.039919;-10.120701;16.6097;;762.2
972.0;876.0;;;;;;;;;;;;;;0.93691826;-0.015015107;-0.15320292;;;;;762.2
972.0;876.0;;;;;;;;;;;;;;;;;21.83981;-12.29896;16.739403;;771.8
972.0;876.0;;;;;;;;;;;;;;0.9571215;0.13934751;-0.18048647;;;;;771.8
972.0;876.0;;;;;;;;;;;;;;;;;9.861293;-15.488144;30.106508;;771.8
972.0;876.0;;;;;;;;;;;;;;0.92208624;0.04510636;-0.3037202;;;;;771.8
1032.0;877.5;;;;;;;;;;;;;;;;;6.7026277;-15.991699;31.670582;;781.4
1032.0;877.5;;;;;;;;;;;;;;0.9223914;0.029602954;-0.39112523;;;;;781.4
1032.0;877.5;;;;;;;;;;;;;;;;;2.0142217;-13.161107;29.911955;;781.4
1032.0;877.5;;;;;;;;;;;;;;0.91348004;0.02929777;-0.42304757;;;;;781.4
1032.0;877.5;;;;;;;;;;;;;;;;;2.0828884;-10.879849;28.393658;;790.9
1032.0;877.5;;;;;;;;;;;;;;0.8845485;0.034363844;-0.4005249;;;;;790.9
1032.0;877.5;;;;;;;;;;;;;;;;;3.8415174;-11.066774;27.005066;;790.9
1032.0;877.5;;;;;;;;;;;;;;0.8593402;0.026856288;-0.3863033;;;;;790.9
1032.0;877.5;;;;;;;;;;;;;;;;;5.939665;-11.169774;25.887325;;800.6
1032.0;877.5;;;;;;;;;;;;;;0.8346202;0.018311106;-0.3869747;;;;;800.6
1032.0;877.5;;;;;;;;;;;;;;;;;7.6792197;-10.788294;24.838251;;800.6
1032.0;877.5;;;;;;;;;;;;;;0.81392866;0.0076906644;-0.39197972;;;;;800.6
1032.0;883.6;;;;;;;;;;;;;;;;;8.430738;-10.479293;24.033327;;810.2
1032.0;883.6;;;;;;;;;;;;;;0.8026368;0.003967406;-0.40668964;;;;;810.2
1032.0;883.6;;;;;;;;;;;;;;;;;8.617663;-10.170293;23.464918;;810.2
1032.0;883.6;;;;;;;;;;;;;;0.7955565;0.0044557024;-0.42323068;;;;;810.2
1032.0;883.6;;;;;;;;;;;;;;;;;8.30485;-10.078737;23.13303;;819.8
1032.0;883.6;;;;;;;;;;;;;;0.79049045;0.007019257;-0.43238625;;;;;819.8
1032.0;883.6;;;;;;;;;;;;;;;;;7.152776;-10.54033;22.850733;;819.8
1032.0;883.6;;;;;;;;;;;;;;0.789819;0.012939848;-0.44190803;;;;;819.8
1032.0;883.6;;;;;;;;;;;;;;;;;5.264443;-10.9408865;22.339548;;829.5
1032.0;883.6;;;;;;;;;;;;;;0.79628897;0.018372143;-0.45240638;;;;;829.5
1032.0;883.6;;;;;;;;;;;;;;;;;3.5096285;-10.826442;21.80166;;829.5
1032.0;883.6;;;;;;;;;;;;;;0.8114261;0.01800592;-0.45759454;;;;;829.5
1090.0;951.1;;;;;;;;;;;;;;;;;2.8305917;-10.1130705;21.053957;;838.9
1090.0;951.1;;;;;;;;;;;;;;0.8361461;0.017639698;-0.4544206;;;;;838.9
1090.0;951.1;;;;;;;;;;;;;;;;;2.7962584;-8.667256;20.203253;;838.9
1090.0;951.1;;;;;;;;;;;;;;0.8575091;0.021729179;-0.43665883;;;;;838.9
1090.0;951.1;;;;;;;;;;;;;;;;;3.0404067;-7.4274426;19.642475;;848.5
1090.0;951.1;;;;;;;;;;;;;;0.87459946;0.025757622;-0.41871396;;;;;848.5
1090.0;951.1;;;;;;;;;;;;;;;;;3.1395917;-6.65685;19.24192;;848.5
1090.0;951.1;;;;;;;;;;;;;;0.8802759;0.028565325;-0.3985107;;;;;848.5
1090.0;951.1;;;;;;;;;;;;;;;;;3.0060732;-6.9620347;19.173254;;858.2
1090.0;951.1;;;;;;;;;;;;;;0.8841823;0.028626362;-0.3842891;;;;;858.2
1090.0;951.1;;;;;;;;;;;;;;;;;2.55974;-7.7707753;18.94055;;858.2
1090.0;951.1;;;;;;;;;;;;;;0.8923002;0.029358806;-0.3757439;;;;;858.2
1090.0;951.8;;;;;;;;;;;;;;;;;2.128666;-8.758812;19.207588;;867.8
1090.0;951.8;;;;;;;;;;;;;;0.88772243;0.019592883;-0.38721886;;;;;867.8
1090.0;951.8;;;;;;;;;;;;;;;;;2.9641104;-7.4312572;19.53566;;867.8
1090.0;951.8;;;;;;;;;;;;;;0.87942135;0.02252266;-0.3642079;;;;;867.8
1090.0;951.8;;;;;;;;;;;;;;;;;2.2354808;-7.087924;19.848475;;877.5
1090.0;951.8;;;;;;;;;;;;;;0.8514664;0.036133915;-0.34931487;;;;;877.5
1090.0;951.8;;;;;;;;;;;;;;;;;0.59892577;-9.0487385;20.79455;;877.5
1090.0;951.8;;;;;;;;;;;;;;0.8512223;0.017151402;-0.3622547;;;;;877.5
1090.0;951.8;;;;;;;;;;;;;;;;;0.90792567;-8.884701;20.954771;;887.1
1090.0;951.8;;;;;;;;;;;;;;0.86074406;0.0144657735;-0.35737175;;;;;887.1
1090.0;951.8;;;;;;;;;;;;;;;;;2.1095922;-7.805109;21.011993;;887.1
1090.0;951.8;;;;;;;;;;;;;;0.87777334;-0.007202368;-0.35462508;;;;;887.1
1148.0;996.3;;;;;;;;;;;;;;;;;3.131962;-5.6993318;21.027254;;896.8
1148.0;996.3;;;;;;;;;;;;;;0.86226994;-6.103702E-4;-0.32374036;;;;;896.8
1148.0;996.3;;;;;;;;;;;;;;;;;-0.095370345;-8.846553;20.783106;;896.8
1148.0;996.3;;;;;;;;;;;;;;0.8530534;0.007019257;-0.36353648;;;;;896.8
1148.0;996.3;;;;;;;;;;;;;;;;;-4.402295;-12.607959;20.870846;;906.4
1148.0;996.3;;;;;;;;;;;;;;0.8890042;-0.031983398;-0.43537706;;;;;906.4
1148.0;996.3;;;;;;;;;;;;;;;;;-1.0757774;-8.785516;19.882809;;906.4
1148.0;996.3;;;;;;;;;;;;;;0.9162877;-0.062746055;-0.42988372;;;;;906.4
1148.0;996.3;;;;;;;;;;;;;;;;;7.8623314;-1.5984069;18.505661;;916.1
1148.0;996.3;;;;;;;;;;;;;;0.9053011;-0.047791988;-0.32074952;;;;;916.1
1148.0;996.3;;;;;;;;;;;;;;;;;12.485885;0.0076296274;18.03644;;916.1
1148.0;996.3;;;;;;;;;;;;;;0.88863796;-0.026856288;-0.26734215;;;;;916.1
1148.0;997.1;;;;;;;;;;;;;;;;;13.019959;-2.4033327;18.32255;;925.7
1148.0;997.1;;;;;;;;;;;;;;0.90914637;-0.03460799;-0.28998688;;;;;925.7
1148.0;997.1;;;;;;;;;;;;;;;;;11.700033;-3.566851;17.662586;;925.7
1148.0;997.1;;;;;;;;;;;;;;0.9230018;-0.019898068;-0.33655813;;;;;925.7
1148.0;997.1;;;;;;;;;;;;;;;;;11.612293;-2.4872584;16.361736;;935.4
1148.0;997.1;;;;;;;;;;;;;;0.94424266;-0.022766808;-0.3640248;;;;;935.4
1148.0;997.1;;;;;;;;;;;;;;;;;16.228218;2.5864437;15.186773;;935.4
1148.0;997.1;;;;;;;;;;;;;;0.93923765;-0.015930662;-0.3086642;;;;;935.4
1148.0;997.1;;;;;;;;;;;;;;;;;19.894253;5.4170356;14.061403;;945.0
1148.0;997.1;;;;;;;;;;;;;;0.92477185;0.011902219;-0.26514482;;;;;945.0
1148.0;997.1;;;;;;;;;;;;;;;;;20.847958;5.348369;13.222144;;945.0
1148.0;997.1;;;;;;;;;;;;;;0.91994995;0.033448286;-0.27625355;;;;;945.0
1211.0;1056.9;;;;;;;;;;;;;;;;;21.984772;5.5734425;12.260812;;954.7
1211.0;1056.9;;;;;;;;;;;;;;0.92013305;0.05658132;-0.29737237;;;;;954.7
1211.0;1056.9;;;;;;;;;;;;;;;;;23.537401;6.8895535;11.207922;;954.7
1211.0;1056.9;;;;;;;;;;;;;;0.9240394;0.06769005;-0.30555132;;;;;954.7
1211.0;1056.9;;;;;;;;;;;;;;;;;26.448103;9.460738;9.865108;;964.3
1211.0;1056.9;;;;;;;;;;;;;;0.92281866;0.08117924;-0.28583637;;;;;964.3
1211.0;1056.9;;;;;;;;;;;;;;;;;29.164251;11.123997;8.705404;;964.3
1211.0;1056.9;;;;;;;;;;;;;;0.9178747;0.08844264;-0.25305948;;;;;964.3
1211.0;1056.9;;;;;;;;;;;;;;;;;31.662952;11.265144;7.7059236;;974.0
1211.0;1056.9;;;;;;;;;;;;;;0.9135411;0.09564501;-0.24854274;;;;;974.0
1211.0;1056.9;;;;;;;;;;;;;;;;;33.318584;11.67333;6.7369614;;974.0
1211.0;1056.9;;;;;;;;;;;;;;0.90658283;0.109866634;-0.25818658;;;;;974.0
1211.0;1057.7;;;;;;;;;;;;;;;;;34.321877;12.310404;6.000702;;983.6
1211.0;1057.7;;;;;;;;;;;;;;0.89492476;0.11938841;-0.26038393;;;;;983.6
1211.0;1057.7;;;;;;;;;;;;;;;;;34.95895;12.199775;5.512406;;983.6
1211.0;1057.7;;;;;;;;;;;;;;0.880398;0.12988678;-0.2664266;;;;;983.6
1211.0;1057.7;;;;;;;;;;;;;;;;;35.431988;11.627552;5.1080356;;993.2
1211.0;1057.7;;;;;;;;;;;;;;0.86849576;0.1408124;-0.2733848;;;;;993.2
1211.0;1057.7;;;;;;;;;;;;;;;;;35.82873;11.173589;4.871517;;993.2
1211.0;1057.7;;;;;;;;;;;;;;0.85927916;0.15625477;-0.27838984;;;;;993.2
1211.0;1057.7;;;;;;;;;;;;;;;;;35.82873;11.066774;4.4747763;;1002.9
1211.0;1057.7;;;;;;;;;;;;;;0.85097814;0.16913357;-0.28357798;;;;;1002.9
1211.0;1057.7;;;;;;;;;;;;;;;;;35.222176;11.020997;4.119999;;1002.9
1211.0;1057.7;;;;;;;;;;;;;;0.8397473;0.18012024;-0.2900479;;;;;1002.9
1450.0;1127.6;;;;0.0;0.0;0.0;;;;;;;;;;;;;;;
1450.0;1127.6;;;;0.01141739;-0.14789964;0.07163239;;;;;;;;;;;;;;;
1450.0;1127.6;;;;0.0018234255;-1.0784379;0.18530275;;;;;;;;;;;;;;;
1450.0;1127.6;;;;0.007648469;-1.246193;0.19774249;;;;;;;;;;;;;;;
1450.0;1127.6;;;;0.008991242;-1.2663194;0.20076373;;;;;;;;;;;;;;;
1450.0;1137.6;;;;0.0107536325;-1.2861253;0.20094684;;;;;;;;;;;;;;;
1450.0;1137.6;;;;0.012531282;-1.3058549;0.20014194;;;;;;;;;;;;;;;
1450.0;1137.6;;;;0.013870241;-1.3249971;0.19985202;;;;;;;;;;;;;;;
1450.0;1137.6;;;;0.014572145;-1.3431665;0.19842914;;;;;;;;;;;;;;;
1450.0;1137.6;;;;0.014560701;-1.3600122;0.19723895;;;;;;;;;;;;;;;
1450.0;1138.9;57511;57451;14006;;;;;;;;;;;;;;;;;;
1450.0;1147.6;;;;0.013309481;-1.3755113;0.19611362;;;;;;;;;;;;;;;
1450.0;1147.6;;;;0.012802126;-1.3884698;0.19549564;;;;;;;;;;;;;;;
1450.0;1147.6;;;;0.012268068;-1.3998529;0.19524005;;;;;;;;;;;;;;;
1450.0;1147.6;;;;0.0093956;-1.4091378;0.1952286;;;;;;;;;;;;;;;
1450.0;1147.6;;;;0.007522584;-1.4163095;0.1951752;;;;;;;;;;;;;;;
1453.0;1157.7;;;;0.0074539194;-1.4197923;0.19533542;;;;;;;;;;;;;;;
1453.0;1157.7;;;;0.0069084177;-1.4200746;0.1956177;;;;;;;;;;;;;;;
1453.0;1157.7;;;;0.007221223;-1.4171678;0.19609073;;;;;;;;;;;;;;;
1453.0;1157.7;;;;0.0068206796;-1.411709;0.19695285;;;;;;;;;;;;;;;
1453.0;1157.7;;;;0.008693696;-1.4035188;0.19719699;;;;;;;;;;;;;;;
1453.0;1159.0;73864;73825;13994;;;;;;;;;;;;;;;;;;
1453.0;1165.4;;;;;;;;;;;;;0;;;;;;;;
1453.0;1165.4;;;;;;;;;;;;;0;;;;;;;;
1453.0;1165.4;;;;;;;;;;;;;-1;;;;;;;;
1453.0;1165.4;;;;;;;;;;;;;-2;;;;;;;;
1453.0;1165.4;;;;;;;;;;;;;-3;;;;;;;;
1453.0;1167.8;;;;0.011577607;-1.3933908;0.19604877;;;;;;;;;;;;;;;
1453.0;1167.8;;;;0.014278414;-1.3821832;0.19360355;;;;;;;;;;;;;;;
1453.0;1167.8;;;;0.01804352;-1.3693849;0.19103625;;;;;;;;;;;;;;;
1453.0;1167.8;;;;0.02418137;-1.3561288;0.19017032;;;;;;;;;;;;;;;
1453.0;1167.8;;;;0.031852726;-1.3414499;0.19018176;;;;;;;;;;;;;;;
1453.0;1177.9;;;;0.041019443;-1.3259584;0.18971255;;;;;;;;;;;;;;;
1453.0;1177.9;;;;0.051177986;-1.3094865;0.18665315;;;;;;;;;;;;;;;
1453.0;1177.9;;;;0.06825257;-1.292988;0.18801883;;;;;;;;;;;;;;;
1453.0;1177.9;;;;0.1029854;-1.2733728;0.19035342;;;;;;;;;;;;;;;
1453.0;1177.9;;;;0.11411668;-1.2543603;0.1878548;;;;;;;;;;;;;;;
1453.0;1179.3;90292;90265;13970;;;;;;;;;;;;;;;;;;
1456.0;1184.9;;;;;;;;;;;;;;;;;34.676655;10.898923;3.7575915;;1012.6
1456.0;1184.9;;;;;;;;;;;;;;0.8224738;0.19086276;-0.29273355;;;;;1012.6
1456.0;1184.9;;;;;;;;;;;;;;;;;34.127323;10.597552;3.5325174;;1012.6
1456.0;1184.9;;;;;;;;;;;;;;0.80324715;0.19483016;-0.29523605;;;;;1012.6
1456.0;1184.9;;;;;;;;;;;;;;;;;33.95184;10.052033;3.238777;;1022.3
1456.0;1184.9;;;;;;;;;;;;;;0.7808466;0.20050661;-0.30121768;;;;;1022.3
1456.0;1184.9;;;;;;;;;;;;;;;;;33.734398;8.587145;2.7619252;;1022.3
1456.0;1184.9;;;;;;;;;;;;;;0.7621082;0.2069155;-0.3345439;;;;;1022.3
1456.0;1184.9;;;;;;;;;;;;;;;;;32.82266;7.003998;2.1782587;;1032.0
1456.0;1184.9;;;;;;;;;;;;;;0.7437971;0.20715964;-0.37470627;;;;;1032.0
1456.0;1184.9;;;;;;;;;;;;;;;;;31.479843;5.245369;1.4000366;;1032.0
1456.0;1184.9;;;;;;;;;;;;;;0.7323832;0.20911282;-0.40998566;;;;;1032.0
1456.0;1185.6;;;;;;;;;;;;;;;;;29.70214;3.9483323;0.32425916;;1041.6
1456.0;1185.6;;;;;;;;;;;;;;0.7260964;0.22565386;-0.4481338;;;;;1041.6
1456.0;1185.6;;;;;;;;;;;;;;;;;27.306437;3.051851;-0.67903686;;1041.6
1456.0;1185.6;;;;;;;;;;;;;;0.71352273;0.23169653;-0.49024934;;;;;1041.6
1456.0;1185.6;;;;;;;;;;;;;;;;;24.868769;2.8191473;-1.8578143;;1051.3
1456.0;1185.6;;;;;;;;;;;;;;0.68929106;0.2245552;-0.525956;;;;;1051.3
1456.0;1185.6;;;;;;;;;;;;;;;;;22.373882;2.803888;-3.234962;;1051.3
1456.0;1185.6;;;;;;;;;;;;;;0.6549882;0.21619312;-0.54499954;;;;;1051.3
1456.0;1185.6;;;;;;;;;;;;;;;;;20.119328;1.6518143;-4.8982205;;1061.0
1456.0;1185.6;;;;;;;;;;;;;;0.62855923;0.20203254;-0.5492721;;;;;1061.0
1456.0;1185.6;;;;;;;;;;;;;;;;;18.276772;-0.50737023;-6.8933682;;1061.0
1456.0;1185.6;;;;;;;;;;;;;;0.61708426;0.18988617;-0.57039094;;;;;1061.0
1457.0;1186.8;;;;;;;;;;;;;;;;;17.128513;-1.8044069;-9.254738;;1070.7
1457.0;1186.8;;;;;;;;;;;;;;0.6164129;0.16431166;-0.5846736;;;;;1070.7
1457.0;1186.8;;;;;;;;;;;;;;;;;17.113253;-2.090518;-12.268441;;1070.7
1457.0;1186.8;;;;;;;;;;;;;;0.62764364;0.13440351;-0.5976745;;;;;1070.7
1457.0;1186.8;;;;;;;;;;;;;;;;;18.097477;-1.2398144;-15.602588;;1080.3
1457.0;1186.8;;;;;;;;;;;;;;0.6382641;0.10101627;-0.5971252;;;;;1080.3
1457.0;1186.8;;;;;;;;;;;;;;;;;19.547104;0.90792567;-19.253365;;1080.3
1457.0;1186.8;;;;;;;;;;;;;;0.643086;0.0738548;-0.5730155;;;;;1080.3
1457.0;1186.8;;;;;;;;;;;;;;;;;21.099735;2.6894438;-23.33903;;1090.0
1457.0;1186.8;;;;;;;;;;;;;;0.64925075;0.052735984;-0.55384994;;;;;1090.0
1457.0;1186.8;;;;;;;;;;;;;;;;;22.762993;4.036073;-27.600176;;1090.0
1457.0;1186.8;;;;;;;;;;;;;;0.6718955;0.043702506;-0.53706473;;;;;1090.0
1457.0;1187.7;;;;;;;;;;;;;;;;;23.556475;5.0393686;-32.05588;;1099.7
1457.0;1187.7;;;;;;;;;;;;;;0.70473343;0.037171546;-0.52174443;;;;;1099.7
1457.0;1187.7;;;;;;;;;;;;;;;;;24.307993;5.546739;-36.679432;;1099.7
1457.0;1187.7;;;;;;;;;;;;;;0.75899535;0.036378063;-0.50233465;;;;;1099.7
1457.0;1187.7;;;;;;;;;;;;;;;;;25.593584;6.7979984;-41.66921;;1109.3
1457.0;1187.7;;;;;;;;;;;;;;0.8384655;0.035523545;-0.47682118;;;;;1109.3
1457.0;1187.7;;;;;;;;;;;;;;;;;28.668325;9.82696;-47.3838;;1109.3
1457.0;1187.7;;;;;;;;;;;;;;0.92208624;0.036194954;-0.4390393;;;;;1109.3
1457.0;1187.7;;;;;;;;;;;;;;;;;33.36436;13.958403;-53.45317;;1118.8
1457.0;1187.7;;;;;;;;;;;;;;1.0135196;0.023926511;-0.4021119;;;;;1118.8
1457.0;1187.7;;;;;;;;;;;;;;;;;39.81521;20.737328;-59.415726;;1118.8
1457.0;1187.7;;;;;;;;;;;;;;1.1138035;0.014709922;-0.35444197;;;;;1118.8
1458.0;1187.8;;;;0.10319139;-1.2383348;0.18931583;;;;;;;;;;;;;;;
1458.0;1187.8;;;;0.08299256;-1.2239953;0.19477084;;;;;;;;;;;;;;;
1458.0;1187.8;;;;0.06227494;-1.2106439;0.19958499;;;;;;;;;;;;;;;
1458.0;1187.8;;;;0.05539704;-1.1959077;0.2046242;;;;;;;;;;;;;;;
1458.0;1187.8;;;;0.05578614;-1.1788255;0.20723346;;;;;;;;;;;;;;;
1458.0;1197.8;;;;0.05982209;-1.1636049;0.2087746;;;;;;;;;;;;;;;
1458.0;1197.8;;;;0.06028367;-1.150097;0.20590976;;;;;;;;;;;;;;;
1458.0;1197.8;;;;0.062236793;-1.1352617;0.20497516;;;;;;;;;;;;;;;
1458.0;1197.8;;;;0.06792832;-1.119732;0.20673373;;;;;;;;;;;;;;;
1458.0;1197.8;;;;0.06852723;-1.106373;0.20929721;;;;;;;;;;;;;;;
1458.0;1199.2;106617;106630;13970;;;;;;;;;;;;;;;;;;
1458.0;1205.6;;;;;;;;;;;;;-7;;;;;;;;
1458.0;1205.6;;;;;;;;;;;;;-6;;;;;;;;
1458.0;1205.6;;;;;;;;;;;;;-8;;;;;;;;
1458.0;1205.6;;;;;;;;;;;;;-21;;;;;;;;
1458.0;1205.6;;;;;;;;;;;;;-12;;;;;;;;
1458.0;1207.8;;;;0.06768037;-1.0951196;0.21298602;;;;;;;;;;;;;;;
1458.0;1207.8;;;;0.070854194;-1.0835954;0.21678546;;;;;;;;;;;;;;;
1458.0;1207.8;;;;0.073452;-1.0717927;0.21662524;;;;;;;;;;;;;;;
1458.0;1207.8;;;;0.07624055;-1.0578614;0.21483615;;;;;;;;;;;;;;;
1458.0;1207.8;;;;0.079845436;-1.0438882;0.21289065;;;;;;;;;;;;;;;
1460.0;1217.9;;;;0.083873756;-1.0312387;0.21001437;;;;;;;;;;;;;;;
1460.0;1217.9;;;;0.09041596;-1.0190355;0.20862201;;;;;;;;;;;;;;;
1460.0;1217.9;;;;0.09902574;-1.0064584;0.20639041;;;;;;;;;;;;;;;
1460.0;1217.9;;;;0.10647203;-0.9931146;0.20360568;;;;;;;;;;;;;;;
1460.0;1217.9;;;;0.112827316;-0.979458;0.20253375;;;;;;;;;;;;;;;
1460.0;1219.3;122977;123028;13961;;;;;;;;;;;;;;;;;;
1460.0;1228.0;;;;0.12282945;-0.9653512;0.20287707;;;;;;;;;;;;;;;
1460.0;1228.0;;;;0.13143541;-0.9509393;0.2029114;;;;;;;;;;;;;;;
1460.0;1228.0;;;;0.138752;-0.938553;0.2032471;;;;;;;;;;;;;;;
1460.0;1228.0;;;;0.1464348;-0.9274522;0.20606998;;;;;;;;;;;;;;;
1460.0;1228.0;;;;0.15190889;-0.9165307;0.20824817;;;;;;;;;;;;;;;
1460.0;1238.1;;;;0.15395357;-0.9045793;0.21025851;;;;;;;;;;;;;;;
1460.0;1238.1;;;;0.15330507;-0.89229214;0.21219638;;;;;;;;;;;;;;;
1460.0;1238.1;;;;0.15106966;-0.8811723;0.21332934;;;;;;;;;;;;;;;
1460.0;1238.1;;;;0.14867784;-0.87103283;0.21563724;;;;;;;;;;;;;;;
1460.0;1238.1;;;;0.14504625;-0.86034405;0.21520236;;;;;;;;;;;;;;;
1460.0;1239.6;139405;139442;13977;;;;;;;;;;;;;;;;;;
1460.0;1245.9;;;;;;;;;;;;;-37;;;;;;;;
1460.0;1245.9;;;;;;;;;;;;;-26;;;;;;;;
1460.0;1245.9;;;;;;;;;;;;;-3;;;;;;;;
1460.0;1245.9;;;;;;;;;;;;;-146;;;;;;;;
1460.0;1245.9;;;;;;;;;;;;;46;;;;;;;;
1461.0;1248.2;;;;0.14035036;-0.8496591;0.21039203;;;;;;;;;;;;;;;
1461.0;1248.2;;;;0.13574983;-0.8369714;0.2083092;;;;;;;;;;;;;;;
1461.0;1248.2;;;;0.12542345;-0.82294095;0.20591357;;;;;;;;;;;;;;;
1461.0;1248.2;;;;0.11408235;-0.8120614;0.20468143;;;;;;;;;;;;;;;
1461.0;1248.2;;;;0.10090639;-0.8017961;0.20367435;;;;;;;;;;;;;;;
1461.0;1258.3;;;;0.081752785;-0.79475415;0.19939044;;;;;;;;;;;;;;;
1461.0;1258.3;;;;0.07357407;-0.7901498;0.20116428;;;;;;;;;;;;;;;
1461.0;1258.3;;;;0.068717964;-0.78159726;0.20974353;;;;;;;;;;;;;;;
1461.0;1258.3;;;;0.054119118;-0.7755891;0.2137337;;;;;;;;;;;;;;;
1461.0;1258.3;;;;0.038925175;-0.77357876;0.22101215;;;;;;;;;;;;;;;
1461.0;1259.8;155863;155832;13988;;;;;;;;;;;;;;;;;;
1461.0;1268.3;;;;0.027786259;-0.7717668;0.22776797;;;;;;;;;;;;;;;
1461.0;1268.3;;;;0.020526888;-0.7716676;0.23650745;;;;;;;;;;;;;;;
1461.0;1268.3;;;;0.021553041;-0.7681085;0.24530414;;;;;;;;;;;;;;;
1461.0;1268.3;;;;0.027385715;-0.7622682;0.25550845;;;;;;;;;;;;;;;
1461.0;1268.3;;;;0.0156173725;-0.7610284;0.25932696;;;;;;;;;;;;;;;
1461.0;1278.5;;;;-0.0048484807;-0.7698709;0.26173022;;;;;;;;;;;;;;;
1461.0;1278.5;;;;-0.0149993915;-0.7796556;0.26744464;;;;;;;;;;;;;;;
1461.0;1278.5;;;;-0.021564486;-0.7775117;0.27048114;;;;;;;;;;;;;;;
1461.0;1278.5;;;;-0.025356296;-0.7723657;0.27751544;;;;;;;;;;;;;;;
1461.0;1278.5;;;;-0.026401524;-0.7719766;0.27572253;;;;;;;;;;;;;;;
1462.0;1280.1;172192;172133;13986;;;;;;;;;;;;;;;;;;
1462.0;1286.4;;;;;;;;;;;;;363;;;;;;;;
1462.0;1286.4;;;;;;;;;;;;;-232;;;;;;;;
1462.0;1286.4;;;;;;;;;;;;;-885;;;;;;;;
1462.0;1286.4;;;;;;;;;;;;;587;;;;;;;;
1462.0;1286.4;;;;;;;;;;;;;4564;;;;;;;;
1462.0;1288.6;;;;-0.029392246;-0.7736665;0.27346423;;;;;;;;;;;;;;;
1462.0;1288.6;;;;-0.03136826;-0.78400433;0.27178958;;;;;;;;;;;;;;;
1462.0;1288.6;;;;-0.035797123;-0.79052365;0.2727318;;;;;;;;;;;;;;;
1462.0;1288.6;;;;-0.0437851;-0.7957841;0.2760277;;;;;;;;;;;;;;;
1462.0;1288.6;;;;-0.053314216;-0.80035794;0.2804604;;;;;;;;;;;;;;;
1462.0;1298.3;;;;;;;;;;;;;;;;;47.006134;30.213324;-65.103615;;1128.5
1462.0;1298.3;;;;;;;;;;;;;;1.206885;0.020447401;-0.2862636;;;;;1128.5
1462.0;1298.3;;;;;;;;;;;;;;;;;53.81558;35.641804;-71.020386;;1128.5
1462.0;1298.3;;;;;;;;;;;;;;11324;0.0042725913;-0.28370008;;;;;1128.5
1462.0;1298.3;;;;;;;;;;;;;;;;;62.0632;33.898434;-76.13987;;1138.1
1462.0;1298.3;;;;;;;;;;;;;;1.3060701;-0.04034547;-0.3475448;;;;;1138.1
1462.0;1298.3;;;;;;;;;;;;;;;;;69.93316;35.191654;-81.72094;;1138.1
1462.0;1298.3;;;;;;;;;;;;;;1.3426924;-0.05963317;-0.37202063;;;;;1138.1
1462.0;1298.3;;;;;;;;;;;;;;;;;76.17039;41.64632;-88.7936;;1147.6
1462.0;1298.3;;;;;;;;;;;;;;1.3262124;-0.05505539;-0.37403485;;;;;1147.6
1462.0;1298.3;;;;;;;;;;;;;;;;;83.98312;48.406174;-95.71368;;1147.6
1462.0;1298.3;;;;;;;;;;;;;;1.2710348;-0.013367107;-0.29749444;;;;;1147.6
1463.0;1298.7;;;;-0.059745796;-0.80524457;0.2837067;;;;;;;;;;;;;;;
1463.0;1298.7;;;;-0.06228257;-0.81050885;0.28625873;;;;;;;;;;;;;;;
1463.0;1298.7;;;;-0.065177925;-0.818287;0.28746036;;;;;;;;;;;;;;;
1463.0;1298.7;;;;-0.0620308;-0.823311;0.29249957;;;;;;;;;;;;;;;
1463.0;1298.7;;;;-0.05889512;-0.82935345;0.29727176;;;;;;;;;;;;;;;
1463.0;1299.1;;;;;;;;;;;;;;;;;87.92001;45.93417;-101.588486;;1157.2
1463.0;1299.1;;;;;;;;;;;;;;1.2056032;0.0010376293;-0.219306;;;;;1157.2
1463.0;1299.1;;;;;;;;;;;;;;;;;87.65679;37.987915;-106.95593;;1157.2
1463.0;1299.1;;;;;;;;;;;;;;1.2012696;0.0112308115;-0.15204321;;;;;1157.2
1463.0;1299.1;;;;;;;;;;;;;;;;;85.547195;34.363842;-112.60185;;1166.9
1463.0;1299.1;;;;;;;;;;;;;;1.1850337;0.034302805;-0.06762902;;;;;1166.9
1463.0;1299.1;;;;;;;;;;;;;;;;;82.6136;32.105473;-117.465744;;1166.9
1463.0;1299.1;;;;;;;;;;;;;;1.1579943;0.07159642;-0.027405621;;;;;1166.9
1463.0;1299.1;;;;;;;;;;;;;;;;;79.23368;29.499954;-121.24622;;1176.5
1463.0;1299.1;;;;;;;;;;;;;;1.1343119;0.09179968;0.014099551;;;;;1176.5
1463.0;1299.1;;;;;;;;;;;;;;;;;76.69683;27.264475;-124.11496;;1176.5
1463.0;1299.1;;;;;;;;;;;;;;1.1354717;0.11059908;0.05444502;;;;;1176.5
1467.0;1299.9;;;;;;;;;;;;;;;;;75.49516;25.009918;-124.95041;;1186.2
1467.0;1299.9;;;;;;;;;;;;;;1.1413922;0.12591937;0.0441908;;;;;1186.2
1467.0;1299.9;;;;;;;;;;;;;;;;;75.121315;23.575548;-124.988556;;1186.2
1467.0;1299.9;;;;;;;;;;;;;;1.1564074;0.13690603;0.01782281;;;;;1186.2
1467.0;1299.9;;;;;;;;;;;;;;;;;74.04935;24.418623;-124.988556;;1195.9
1467.0;1299.9;;;;;;;;;;;;;;1.1801507;0.14502396;0.023621326;;;;;1195.9
1467.0;1299.9;;;;;;;;;;;;;;;;;71.93213;27.211067;-124.988556;;1195.9
1467.0;1299.9;;;;;;;;;;;;;;1.2108524;0.14502396;0.04669332;;;;;1195.9
1467.0;1299.9;;;;;;;;;;;;;;;;;69.921715;29.503769;-124.988556;;1205.4
1467.0;1299.9;;;;;;;;;;;;;;1.2309946;0.15527818;0.048585467;;;;;1205.4
1467.0;1299.9;;;;;;;;;;;;;;;;;66.81265;30.064547;-124.988556;;1205.4
1467.0;1299.9;;;;;;;;;;;;;;1.2440565;0.15320292;0.029602954;;;;;1205.4
1467.0;1300.2;188573;188541;13996;;;;;;;;;;;;;;;;;;
1468.0;1301.1;;;;;;;;;;;;;;;;;62.215797;30.976288;-124.988556;;1215.0
1468.0;1301.1;;;;;;;;;;;;;;1.2573626;0.1535081;0.021607105;;;;;1215.0
1468.0;1301.1;;;;;;;;;;;;;;;;;56.707207;32.494583;-124.988556;;1215.0
1468.0;1301.1;;;;;;;;;;;;;;1.2494278;0.16693625;0.0314951;;;;;1215.0
1468.0;1301.1;;;;;;;;;;;;;;;;;50.77517;32.048252;-124.988556;;1224.6
1468.0;1301.1;;;;;;;;;;;;;;1.2470473;0.18884854;0.03790399;;;;;1224.6
1468.0;1301.1;;;;;;;;;;;;;;;;;44.10306;29.038363;-124.988556;;1224.6
1468.0;1301.1;;;;;;;;;;;;;;1.2569964;0.16449477;0.028809473;;;;;1224.6
1468.0;1301.1;;;;;;;;;;;;;;;;;39.254433;26.345104;-124.988556;;1234.3
1468.0;1301.1;;;;;;;;;;;;;;1.3093051;0.13483077;0.00982696;;;;;1234.3
1468.0;1301.1;;;;;;;;;;;;;;;;;38.22062;27.314068;-124.988556;;1234.3
1468.0;1301.1;;;;;;;;;;;;;;1.3729056;0.06390576;-0.015930662;;;;;1234.3
1468.0;1308.5;;;;-0.058918007;-0.83838284;0.29898074;;;;;;;;;;;;;;;
1468.0;1308.5;;;;-0.052558906;-0.8463365;0.30222324;;;;;;;;;;;;;;;
1468.0;1308.5;;;;-0.047504432;-0.8536836;0.3035393;;;;;;;;;;;;;;;
1468.0;1308.5;;;;-0.047256477;-0.8615304;0.30170825;;;;;;;;;;;;;;;
1468.0;1308.5;;;;-0.04654694;-0.870659;0.29966357;;;;;;;;;;;;;;;
1469.0;1313.1;;;;;;;;;;;;;;;;;41.54332;30.884731;-124.988556;;1243.8
1469.0;1313.1;;;;;;;;;;;;;;1.40141;0.02764977;-0.05920591;;;;;1243.8
1469.0;1313.1;;;;;;;;;;;;;;;;;47.864468;32.99814;-124.988556;;1243.8
1469.0;1313.1;;;;;;;;;;;;;;1.4304025;0.0012207404;-0.08630635;;;;;1243.8
1469.0;1313.1;;;;;;;;;;;;;;;;;55.551315;29.91577;-124.988556;;1253.3
1469.0;1313.1;;;;;;;;;;;;;;1.4421827;-0.033326212;-0.14819789;;;;;1253.3
1469.0;1313.1;;;;;;;;;;;;;;;;;62.349316;30.564287;-124.988556;;1253.3
1469.0;1313.1;;;;;;;;;;;;;;1.4025086;-0.09277627;-0.21283609;;;;;1253.3
1469.0;1313.1;;;;;;;;;;;;;;;;;66.6715;38.296917;-124.988556;;1262.9
1469.0;1313.1;;;;;;;;;;;;;;1.3361614;-0.13006988;-0.22150335;;;;;1262.9
1469.0;1313.1;;;;;;;;;;;;;;;;;66.78595;47.10532;-124.988556;;1262.9
1469.0;1313.1;;;;;;;;;;;;;;1.2731102;-0.18427075;-0.17535935;;;;;1262.9
1469.0;1318.4;;;;-0.04708863;-0.8800508;0.29772952;;;;;;;;;;;;;;;
1469.0;1318.4;;;;-0.050674446;-0.8910066;0.29584125;;;;;;;;;;;;;;;
1469.0;1318.4;;;;-0.053043373;-0.90236294;0.29314426;;;;;;;;;;;;;;;
1469.0;1318.4;;;;-0.05830384;-0.91339886;0.28981784;;;;;;;;;;;;;;;
1469.0;1318.4;;;;-0.06808091;-0.9248506;0.28434375;;;;;;;;;;;;;;;
1469.0;1320.1;204925;204983;14000;;;;;;;;;;;;;;;;;;
1469.0;1326.4;;;;;;;;;;;;;8242;;;;;;;;
1469.0;1326.4;;;;;;;;;;;;;8928;;;;;;;;
1469.0;1326.4;;;;;;;;;;;;;7516;;;;;;;;
1469.0;1326.4;;;;;;;;;;;;;6177;;;;;;;;
1469.0;1326.4;;;;;;;;;;;;;5543;;;;;;;;
1470.0;1328.4;;;;-0.07984162;-0.9364358;0.27996448;;;;;;;;;;;;;;;
1470.0;1328.4;;;;-0.089420326;-0.9487573;0.2789841;;;;;;;;;;;;;;;
1470.0;1328.4;;;;-0.09848024;-0.9619447;0.27946857;;;;;;;;;;;;;;;
1470.0;1328.4;;;;-0.107662216;-0.9760057;0.27890018;;;;;;;;;;;;;;;
1470.0;1328.4;;;;-0.117065445;-0.9888536;0.27923968;;;;;;;;;;;;;;;
1470.0;1338.5;;;;-0.1282654;-1.0008584;0.27902225;;;;;;;;;;;;;;;
1470.0;1338.5;;;;-0.13775636;-1.0131227;0.27886584;;;;;;;;;;;;;;;
1470.0;1338.5;;;;-0.14783098;-1.0245057;0.27782443;;;;;;;;;;;;;;;
1470.0;1338.5;;;;-0.15726091;-1.0366327;0.2763138;;;;;;;;;;;;;;;
1470.0;1338.5;;;;-0.16982652;-1.049183;0.27500919;;;;;;;;;;;;;;;
1470.0;1340.3;221317;221272;14007;;;;;;;;;;;;;;;;;;
1470.0;1348.6;;;;-0.18449785;-1.0598642;0.27559665;;;;;;;;;;;;;;;
1470.0;1348.6;;;;-0.19712451;-1.0706292;0.27401736;;;;;;;;;;;;;;;
1470.0;1348.6;;;;-0.20992282;-1.081894;0.27074435;;;;;;;;;;;;;;;
1470.0;1348.6;;;;-0.22354129;-1.0923539;0.26694873;;;;;;;;;;;;;;;
1470.0;1348.6;;;;-0.23555377;-1.1027299;0.2629967;;;;;;;;;;;;;;;
1470.0;1358.7;;;;-0.24613956;-1.1129953;0.25732425;;;;;;;;;;;;;;;
1470.0;1358.7;;;;-0.2541428;-1.1228029;0.25033954;;;;;;;;;;;;;;;
1470.0;1358.7;;;;-0.26028445;-1.1306993;0.24523166;;;;;;;;;;;;;;;
1470.0;1358.7;;;;-0.26511386;-1.1388055;0.24183658;;;;;;;;;;;;;;;
1470.0;1358.7;;;;-0.26908877;-1.1468469;0.23717502;;;;;;;;;;;;;;;
1471.0;1360.5;237671;237705;14008;;;;;;;;;;;;;;;;;;
1471.0;1366.8;;;;;;;;;;;;;5452;;;;;;;;
1471.0;1366.8;;;;;;;;;;;;;6561;;;;;;;;
1471.0;1366.8;;;;;;;;;;;;;8645;;;;;;;;
1471.0;1366.8;;;;;;;;;;;;;9288;;;;;;;;
1471.0;1366.8;;;;;;;;;;;;;7662;;;;;;;;
1471.0;1368.8;;;;-0.27235797;-1.1540529;0.2323952;;;;;;;;;;;;;;;
1471.0;1368.8;;;;-0.2756119;-1.161091;0.22939304;;;;;;;;;;;;;;;
1471.0;1368.8;;;;-0.2813759;-1.1665269;0.22560886;;;;;;;;;;;;;;;
1471.0;1368.8;;;;-0.28900912;-1.1709024;0.22021869;;;;;;;;;;;;;;;
1471.0;1368.8;;;;-0.29758075;-1.1740419;0.21395496;;;;;;;;;;;;;;;
1471.0;1373.6;;;;;;;;;;;;;;;;;63.734093;52.4308;-124.988556;;1272.4
1471.0;1373.6;;;;;;;;;;;;;;1.2490616;-0.17926572;-0.11700796;;;;;1272.4
1471.0;1373.6;;;;;;;;;;;;;;;;;59.732353;55.001984;-124.988556;;1272.4
1471.0;1373.6;;;;;;;;;;;;;;1.223426;-0.15588854;-0.06836146;;;;;1272.4
1471.0;1373.6;;;;;;;;;;;;;;;;;57.4015;54.883724;-124.988556;;1281.9
1471.0;1373.6;;;;;;;;;;;;;;1.1810663;-0.14477982;-0.0568865;;;;;1281.9
1471.0;1373.6;;;;;;;;;;;;;;;;;57.210762;52.89239;-124.988556;;1281.9
1471.0;1373.6;;;;;;;;;;;;;;1.1582385;-0.11688589;-0.06378368;;;;;1281.9
1471.0;1373.6;;;;;;;;;;;;;;;;;58.244576;51.11469;-124.988556;;1291.6
1471.0;1373.6;;;;;;;;;;;;;;1.1563463;-0.06714072;-0.060670797;;;;;1291.6
1471.0;1373.6;;;;;;;;;;;;;;;;;58.8168;50.25254;-124.637596;;1291.6
1471.0;1373.6;;;;;;;;;;;;;;1.1461531;-0.05139317;-0.032227546;;;;;1291.6
1472.0;1374.5;;;;;;;;;;;;;;;;;59.884945;48.787655;-123.68389;;1301.3
1472.0;1374.5;;;;;;;;;;;;;;1.1413922;-0.048280284;-0.0081789605;;;;;1301.3
1472.0;1374.5;;;;;;;;;;;;;;;;;61.754204;46.033356;-122.04352;;1301.3
1472.0;1374.5;;;;;;;;;;;;;;1.1329691;-0.013550218;-0.0026245918;;;;;1301.3
1472.0;1374.5;;;;;;;;;;;;;;;;;61.803795;41.436504;-118.14478;;1310.9
1472.0;1374.5;;;;;;;;;;;;;;1.1181371;0.0023804437;-0.043092135;;;;;1310.9
1472.0;1374.5;;;;;;;;;;;;;;;;;61.559647;37.148655;-112.13263;;1310.9
1472.0;1374.5;;;;;;;;;;;;;;1.0942717;-0.018066958;-0.090823084;;;;;1310.9
1472.0;1374.5;;;;;;;;;;;;;;;;;61.68172;33.856472;-107.203896;;1320.5
1472.0;1374.5;;;;;;;;;;;;;;1.0555742;-0.035706658;-0.13440351;;;;;1320.5
1472.0;1374.5;;;;;;;;;;;;;;;;;61.52913;31.300545;-102.37052;;1320.5
1472.0;1374.5;;;;;;;;;;;;;;1.0208441;-0.042847987;-0.16583759;;;;;1320.5
1472.0;1378.8;;;;-0.3050423;-1.176632;0.20846942;;;;;;;;;;;;;;;
1472.0;1378.8;;;;-0.31391528;-1.1774789;0.20257571;;;;;;;;;;;;;;;
1472.0;1378.8;;;;-0.32511142;-1.1784555;0.19577411;;;;;;;;;;;;;;;
1472.0;1378.8;;;;-0.33526233;-1.1787072;0.18971255;;;;;;;;;;;;;;;
1472.0;1378.8;;;;-0.3426247;-1.1788827;0.18420412;;;;;;;;;;;;;;;
1472.0;1380.6;253969;254148;14016;;;;;;;;;;;;;;;;;;
1472.0;1388.8;;;;-0.34561542;-1.1778756;0.1804619;;;;;;;;;;;;;;;
1472.0;1388.8;;;;-0.34796527;-1.175232;0.17635728;;;;;;;;;;;;;;;
1472.0;1388.8;;;;-0.34887698;-1.1721421;0.1733246;;;;;;;;;;;;;;;
1472.0;1388.8;;;;-0.34881213;-1.1692544;0.1708832;;;;;;;;;;;;;;;
1472.0;1388.8;;;;-0.34909824;-1.166794;0.16752626;;;;;;;;;;;;;;;
1629.0;1398.3;;;;-0.34637454;-1.1636773;0.16562654;;;;;;;;;;;;;;;
1629.0;1398.3;;;;-0.34189227;-1.1605111;0.16286851;;;;;;;;;;;;;;;
1629.0;1398.3;;;;-0.33887103;-1.1581918;0.15758134;;;;;;;;;;;;;;;
1629.0;1398.3;;;;-0.33396915;-1.1554719;0.15154268;;;;;;;;;;;;;;;
1629.0;1398.3;;;;-0.32799914;-1.1531945;0.1457329;;;;;;;;;;;;;;;
1629.0;1400.3;262143;262143;14012;;;;;;;;;;;;;;;;;;
1629.0;1406.2;;;;;;;;;;;;;6042;;;;;;;;
1629.0;1406.2;;;;;;;;;;;;;6571;;;;;;;;
1629.0;1406.2;;;;;;;;;;;;;8364;;;;;;;;
1629.0;1406.2;;;;;;;;;;;;;8812;;;;;;;;
1629.0;1406.2;;;;;;;;;;;;;7419;;;;;;;;
1629.0;1408.1;;;;-0.3215485;-1.1495286;0.14059068;;;;;;;;;;;;;;;
1629.0;1408.1;;;;-0.31497195;-1.1445695;0.13703157;;;;;;;;;;;;;;;
1629.0;1408.1;;;;-0.30905536;-1.139618;0.13361742;;;;;;;;;;;;;;;
1629.0;1408.1;;;;-0.30129626;-1.1334115;0.13113023;;;;;;;;;;;;;;;
1629.0;1408.1;;;;-0.29294208;-1.1259195;0.12845613;;;;;;;;;;;;;;;
1629.0;1418.2;;;;-0.2848244;-1.1175538;0.124740615;;;;;;;;;;;;;;;
1629.0;1418.2;;;;-0.27429202;-1.1087114;0.121582046;;;;;;;;;;;;;;;
1629.0;1418.2;;;;-0.26256946;-1.099415;0.118381515;;;;;;;;;;;;;;;
1629.0;1418.2;;;;-0.25003055;-1.0896989;0.11396791;;;;;;;;;;;;;;;
1629.0;1418.2;;;;-0.23629001;-1.0797311;0.10983659;;;;;;;;;;;;;;;
1629.0;1420.2;262143;262143;14010;;;;;;;;;;;;;;;;;;
1634.0;1428.3;;;;-0.22057346;-1.0698854;0.10811998;;;;;;;;;;;;;;;
1634.0;1428.3;;;;-0.20331195;-1.0596696;0.1064644;;;;;;;;;;;;;;;
1634.0;1428.3;;;;-0.1858368;-1.049244;0.105011;;;;;;;;;;;;;;;
1634.0;1428.3;;;;-0.16911317;-1.0380441;0.10385133;;;;;;;;;;;;;;;
1634.0;1428.3;;;;-0.15242387;-1.0266305;0.10170747;;;;;;;;;;;;;;;
1634.0;1438.3;;;;-0.13563158;-1.0141412;0.10013582;;;;;;;;;;;;;;;
1634.0;1438.3;;;;-0.11968996;-1.0012552;0.09833147;;;;;;;;;;;;;;;
1634.0;1438.3;;;;-0.10372163;-0.98892987;0.0971718;;;;;;;;;;;;;;;
1634.0;1438.3;;;;-0.08801652;-0.976719;0.09822847;;;;;;;;;;;;;;;
1634.0;1438.3;;;;-0.07407761;-0.964676;0.10190584;;;;;;;;;;;;;;;
1634.0;1440.3;262143;262143;14016;;;;;;;;;;;;;;;;;;
1634.0;1446.6;;;;;;;;;;;;;5681;;;;;;;;
1634.0;1446.6;;;;;;;;;;;;;4659;;;;;;;;
1634.0;1446.6;;;;;;;;;;;;;4449;;;;;;;;
1634.0;1446.6;;;;;;;;;;;;;4530;;;;;;;;
1634.0;1446.6;;;;;;;;;;;;;4516;;;;;;;;
1634.0;1448.2;;;;-0.060043342;-0.9533578;0.10723497;;;;;;;;;;;;;;;
1634.0;1448.2;;;;-0.046794895;-0.94191754;0.11226274;;;;;;;;;;;;;;;
1634.0;1448.2;;;;-0.035068516;-0.93091977;0.114467636;;;;;;;;;;;;;;;
1634.0;1448.2;;;;-0.024227146;-0.9209901;0.11499025;;;;;;;;;;;;;;;
1634.0;1448.2;;;;-0.012348177;-0.9120408;0.11750032;;;;;;;;;;;;;;;
1636.0;1458.3;;;;-3.013611E-4;-0.9028245;0.124237075;;;;;;;;;;;;;;;
1636.0;1458.3;;;;0.010570527;-0.89475644;0.13091661;;;;;;;;;;;;;;;
1636.0;1458.3;;;;0.022937777;-0.8866807;0.13684846;;;;;;;;;;;;;;;
1636.0;1458.3;;;;0.034629826;-0.87716305;0.13979341;;;;;;;;;;;;;;;
1636.0;1458.3;;;;0.045047764;-0.86667264;0.14080049;;;;;;;;;;;;;;;
1636.0;1460.3;262143;262143;14016;;;;;;;;;;;;;;;;;;
1636.0;1468.4;;;;0.056205757;-0.85524;0.14230348;;;;;;;;;;;;;;;
1636.0;1468.4;;;;0.06853486;-0.8428956;0.14390947;;;;;;;;;;;;;;;
1636.0;1468.4;;;;0.08077622;-0.8298265;0.1441002;;;;;;;;;;;;;;;
1636.0;1468.4;;;;0.09210969;-0.81663525;0.14325716;;;;;;;;;;;;;;;
1636.0;1468.4;;;;0.10307695;-0.80430233;0.14011003;;;;;;;;;;;;;;;
1636.0;1478.5;;;;0.11251451;-0.7929269;0.13463975;;;;;;;;;;;;;;;
1636.0;1478.5;;;;0.12262346;-0.78182614;0.12626268;;;;;;;;;;;;;;;
1636.0;1478.5;;;;0.13298036;-0.7725488;0.115028396;;;;;;;;;;;;;;;
1636.0;1478.5;;;;0.14275743;-0.76454556;0.10530473;;;;;;;;;;;;;;;
1636.0;1478.5;;;;0.15347673;-0.7589265;0.09931947;;;;;;;;;;;;;;;
1636.0;1480.6;262143;262143;14009;;;;;;;;;;;;;;;;;;
1636.0;1486.9;;;;;;;;;;;;;4372;;;;;;;;
1636.0;1486.9;;;;;;;;;;;;;4141;;;;;;;;
1636.0;1486.9;;;;;;;;;;;;;3921;;;;;;;;
1636.0;1486.9;;;;;;;;;;;;;3902;;;;;;;;
1636.0;1486.9;;;;;;;;;;;;;4047;;;;;;;;
1637.0;1488.6;;;;0.16700365;-0.75473034;0.092823036;;;;;;;;;;;;;;;
1637.0;1488.6;;;;0.18251802;-0.75162137;0.080364235;;;;;;;;;;;;;;;
1637.0;1488.6;;;;0.20087436;-0.74908835;0.07192994;;;;;;;;;;;;;;;
1637.0;1488.6;;;;0.21998599;-0.7470589;0.08120728;;;;;;;;;;;;;;;
1637.0;1488.6;;;;0.23921207;-0.74514776;0.10552217;;;;;;;;;;;;;;;
1637.0;1498.6;;;;0.2551575;-0.7427178;0.13235475;;;;;;;;;;;;;;;
1637.0;1498.6;;;;0.26420596;-0.74029166;0.15532686;;;;;;;;;;;;;;;
1637.0;1498.6;;;;0.26537326;-0.73647696;0.17431642;;;;;;;;;;;;;;;
1637.0;1498.6;;;;0.2585068;-0.73014075;0.1920357;;;;;;;;;;;;;;;
1637.0;1498.6;;;;0.24563983;-0.722683;0.20810321;;;;;;;;;;;;;;;
1637.0;1500.7;262143;262143;14022;;;;;;;;;;;;;;;;;;
1637.0;1508.6;;;;0.22849277;-0.7143784;0.22082141;;;;;;;;;;;;;;;
1637.0;1508.6;;;;0.2083359;-0.7068444;0.2288132;;;;;;;;;;;;;;;
1637.0;1508.6;;;;0.18823627;-0.6998864;0.2356148;;;;;;;;;;;;;;;
1637.0;1508.6;;;;0.16895677;-0.69439703;0.23769382;;;;;;;;;;;;;;;
1637.0;1508.6;;;;0.15066911;-0.6915665;0.23882297;;;;;;;;;;;;;;;
1637.0;1518.7;;;;0.13678743;-0.6912728;0.23978809;;;;;;;;;;;;;;;
1637.0;1518.7;;;;0.12799074;-0.69331366;0.23888782;;;;;;;;;;;;;;;
1637.0;1518.7;;;;0.124065414;-0.6984635;0.23582461;;;;;;;;;;;;;;;
1637.0;1518.7;;;;0.12345125;-0.70615774;0.2314072;;;;;;;;;;;;;;;
1637.0;1518.7;;;;0.12549593;-0.7160302;0.22732165;;;;;;;;;;;;;;;
1638.0;1520.9;262143;262143;14000;;;;;;;;;;;;;;;;;;
1638.0;1527.2;;;;;;;;;;;;;4035;;;;;;;;
1638.0;1527.2;;;;;;;;;;;;;3897;;;;;;;;
1638.0;1527.2;;;;;;;;;;;;;3607;;;;;;;;
1638.0;1527.2;;;;;;;;;;;;;3233;;;;;;;;
1638.0;1527.2;;;;;;;;;;;;;2882;;;;;;;;
1638.0;1528.8;;;;0.12874223;-0.7262421;0.22365192;;;;;;;;;;;;;;;
1638.0;1528.8;;;;0.13262941;-0.73473364;0.21921924;;;;;;;;;;;;;;;
1638.0;1528.8;;;;0.1352997;-0.7428742;0.21527866;;;;;;;;;;;;;;;
1638.0;1528.8;;;;0.13788225;-0.7511636;0.21572879;;;;;;;;;;;;;;;
1638.0;1528.8;;;;0.14020921;-0.75914776;0.2192612;;;;;;;;;;;;;;;
1638.0;1538.9;;;;0.14156343;-0.76627743;0.22487262;;;;;;;;;;;;;;;
1638.0;1538.9;;;;0.144928;-0.77313244;0.22885516;;;;;;;;;;;;;;;
1638.0;1538.9;;;;0.14625932;-0.7798196;0.23028186;;;;;;;;;;;;;;;
1638.0;1538.9;;;;0.14459611;-0.78649914;0.23131946;;;;;;;;;;;;;;;
1638.0;1538.9;;;;0.14229967;-0.7944604;0.23161319;;;;;;;;;;;;;;;
1638.0;1541.1;262143;262143;14010;;;;;;;;;;;;;;;;;;
1638.0;1548.9;;;;0.14594652;-0.8052064;0.23477939;;;;;;;;;;;;;;;
1638.0;1548.9;;;;0.15224458;-0.8165971;0.23760608;;;;;;;;;;;;;;;
1638.0;1548.9;;;;0.1572571;-0.8284646;0.24061969;;;;;;;;;;;;;;;
1638.0;1548.9;;;;0.15884782;-0.8411256;0.24216083;;;;;;;;;;;;;;;
1638.0;1548.9;;;;0.15450288;-0.8565141;0.24093631;;;;;;;;;;;;;;;
1639.0;1553.6;;;;;;;;;;;;;;;;;61.185795;28.809473;-97.38457;;1330.2
1639.0;1553.6;;;;;;;;;;;;;;0.9836116;-0.04058962;-0.18250069;;;;;1330.2
1639.0;1553.6;;;;;;;;;;;;;;;;;60.296944;25.208288;-91.49068;;1330.2
1639.0;1553.6;;;;;;;;;;;;;;0.95742667;-0.05877865;-0.19287698;;;;;1330.2
1639.0;1553.6;;;;;;;;;;;;;;;;;59.19828;21.248512;-85.74557;;1339.9
1639.0;1553.6;;;;;;;;;;;;;;0.94552445;-0.057618946;-0.21210364;;;;;1339.9
1639.0;1553.6;;;;;;;;;;;;;;;;;58.347576;19.219032;-80.1416;;1339.9
1639.0;1553.6;;;;;;;;;;;;;;0.9284341;-0.042237617;-0.2164983;;;;;1339.9
1639.0;1553.6;;;;;;;;;;;;;;;;;57.596058;17.574846;-73.572495;;1349.5
1639.0;1553.6;;;;;;;;;;;;;;0.92336804;-0.043763544;-0.20636617;;;;;1349.5
1639.0;1553.6;;;;;;;;;;;;;;;;;56.550797;15.8772545;-67.22846;;1349.5
1639.0;1553.6;;;;;;;;;;;;;;0.931547;-0.010193182;-0.21735282;;;;;1349.5
1639.0;1554.5;;;;;;;;;;;;;;;;;56.176945;16.49144;-60.346535;;1359.1
1639.0;1554.5;;;;;;;;;;;;;;0.9284951;6.103702E-5;-0.2026429;;;;;1359.1
1639.0;1554.5;;;;;;;;;;;;;;;;;55.757317;17.464216;-53.788876;;1359.1
1639.0;1554.5;;;;;;;;;;;;;;0.9202551;0.022278512;-0.20276497;;;;;1359.1
1639.0;1554.5;;;;;;;;;;;;;;;;;55.65813;18.906218;-47.448654;;1368.8
1639.0;1554.5;;;;;;;;;;;;;;0.90737635;0.053773616;-0.19672231;;;;;1368.8
1639.0;1554.5;;;;;;;;;;;;;;;;;55.703907;19.64629;-41.329693;;1368.8
1639.0;1554.5;;;;;;;;;;;;;;0.88973665;0.052797023;-0.1859798;;;;;1368.8
1639.0;1554.5;;;;;;;;;;;;;;;;;56.001465;19.337292;-35.981323;;1378.5
1639.0;1554.5;;;;;;;;;;;;;;0.877224;0.08087405;-0.18359935;;;;;1378.5
1639.0;1554.5;;;;;;;;;;;;;;;;;56.169315;18.429365;-30.446028;;1378.5
1639.0;1554.5;;;;;;;;;;;;;;0.85494554;0.08948027;-0.18695639;;;;;1378.5
1689.0;1558.8;;;;0.14995576;-0.8724328;0.23699954;;;;;;;;;;;;;;;
1689.0;1558.8;;;;0.1555176;-0.8874589;0.2328377;;;;;;;;;;;;;;;
1689.0;1558.8;;;;0.15955736;-0.9039117;0.22854236;;;;;;;;;;;;;;;
1689.0;1558.8;;;;0.1656418;-0.9184648;0.22914127;;;;;;;;;;;;;;;
1689.0;1558.8;;;;0.16822816;-0.9338342;0.2316666;;;;;;;;;;;;;;;
1689.0;1561.0;262143;262143;13996;;;;;;;;;;;;;;;;;;
1689.0;1567.3;;;;;;;;;;;;;1447;;;;;;;;
1689.0;1567.3;;;;;;;;;;;;;-1335;;;;;;;;
1689.0;1567.3;;;;;;;;;;;;;-3159;;;;;;;;
1689.0;1567.3;;;;;;;;;;;;;-1413;;;;;;;;
1689.0;1567.3;;;;;;;;;;;;;3504;;;;;;;;
1689.0;1568.8;;;;0.17483903;-0.9477197;0.23456195;;;;;;;;;;;;;;;
1689.0;1568.8;;;;0.18233873;-0.9600717;0.23711017;;;;;;;;;;;;;;;
1689.0;1568.8;;;;0.19128802;-0.9705087;0.2395592;;;;;;;;;;;;;;;
1689.0;1568.8;;;;0.19812396;-0.9815484;0.24132541;;;;;;;;;;;;;;;
1689.0;1568.8;;;;0.20556262;-0.9920198;0.2441788;;;;;;;;;;;;;;;
1689.0;1578.5;;;;0.2134476;-1.0016633;0.24390414;;;;;;;;;;;;;;;
1689.0;1578.5;;;;0.2197037;-1.0108072;0.24171832;;;;;;;;;;;;;;;
1689.0;1578.5;;;;0.22634128;-1.0185739;0.2438927;;;;;;;;;;;;;;;
1689.0;1578.5;;;;0.23385623;-1.025158;0.2555695;;;;;;;;;;;;;;;
1689.0;1578.5;;;;0.23928836;-1.0307313;0.27033237;;;;;;;;;;;;;;;
1689.0;1580.8;262143;262143;13992;;;;;;;;;;;;;;;;;;
1694.0;1588.6;;;;0.24305728;-1.0348779;0.2810097;;;;;;;;;;;;;;;
1694.0;1588.6;;;;0.24630359;-1.0377504;0.28698352;;;;;;;;;;;;;;;
1694.0;1588.6;;;;0.24856952;-1.0404435;0.28921512;;;;;;;;;;;;;;;
1694.0;1588.6;;;;0.2497063;-1.0428201;0.29157642;;;;;;;;;;;;;;;
1694.0;1588.6;;;;0.24844745;-1.0447198;0.29545215;;;;;;;;;;;;;;;
1694.0;1598.9;;;;;;;;;;;;;;;;;56.421093;16.79281;-24.842066;;1388.1
1694.0;1598.9;;;;;;;;;;;;;;0.83803827;0.10303049;-0.18744469;;;;;1388.1
1694.0;1598.9;;;;;;;;;;;;;;;;;56.9628;14.919737;-18.997772;;1388.1
1694.0;1598.9;;;;;;;;;;;;;;0.81160927;0.08191168;-0.1784112;;;;;1388.1
1694.0;1598.9;;;;;;;;;;;;;;;;;57.87454;12.691885;-13.6379595;;1397.7
1694.0;1598.9;;;;;;;;;;;;;;0.7920774;0.09643849;-0.18640706;;;;;1397.7
1694.0;1598.9;;;;;;;;;;;;;;;;;58.599354;11.410108;-7.942442;;1397.7
1694.0;1598.9;;;;;;;;;;;;;;0.7658315;0.08203375;-0.19141209;;;;;1397.7
1694.0;1598.9;;;;;;;;;;;;;;;;;60.644093;10.303812;-2.498703;;1407.3
1694.0;1598.9;;;;;;;;;;;;;;0.74025697;0.07586902;-0.18659016;;;;;1407.3
1694.0;1598.9;;;;;;;;;;;;;;;;;63.37932;8.896146;2.990814;;1407.3
1694.0;1598.9;;;;;;;;;;;;;;0.7174291;0.058534503;-0.1894589;;;;;1407.3
1694.0;1598.7;;;;0.24291995;-1.0469667;0.29773715;;;;;;;;;;;;;;;
1694.0;1598.7;;;;0.23571017;-1.0498849;0.2985573;;;;;;;;;;;;;;;
1694.0;1598.7;;;;0.22553638;-1.0543176;0.30179217;;;;;;;;;;;;;;;
1694.0;1598.7;;;;0.21203235;-1.0593606;0.31053928;;;;;;;;;;;;;;;
1694.0;1598.7;;;;0.19920352;-1.0638658;0.32006457;;;;;;;;;;;;;;;
1695.0;1599.7;;;;;;;;;;;;;;;;;67.04154;7.255776;8.339183;;1416.9
1695.0;1599.7;;;;;;;;;;;;;;0.6944182;0.029236732;-0.19006927;;;;;1416.9
1695.0;1599.7;;;;;;;;;;;;;;;;;70.95935;5.386517;13.161107;;1416.9
1695.0;1599.7;;;;;;;;;;;;;;0.671041;0.02069155;-0.19379254;;;;;1416.9
1695.0;1599.7;;;;;;;;;;;;;;;;;75.17472;3.2197027;18.501846;;1426.6
1695.0;1599.7;;;;;;;;;;;;;;0.6425367;-0.015869625;-0.18860438;;;;;1426.6
1695.0;1599.7;;;;;;;;;;;;;;;;;79.76394;-0.21362957;23.613697;;1426.6
1695.0;1599.7;;;;;;;;;;;;;;0.6175115;-0.039429914;-0.18884854;;;;;1426.6
1695.0;1599.7;;;;;;;;;;;;;;;;;83.83816;-4.0093694;28.523361;;1436.1
1695.0;1599.7;;;;;;;;;;;;;;0.5989563;-0.06659139;-0.19116795;;;;;1436.1
1695.0;1599.7;;;;;;;;;;;;;;;;;87.839905;-8.156072;34.40199;;1436.1
1695.0;1599.7;;;;;;;;;;;;;;0.58406323;-0.10034486;-0.19312114;;;;;1436.1
1695.0;1600.8;262143;262143;13990;;;;;;;;;;;;;;;;;;
1695.0;1607.1;;;;;;;;;;;;;7780;;;;;;;;
1695.0;1607.1;;;;;;;;;;;;;8398;;;;;;;;
1695.0;1607.1;;;;;;;;;;;;;6107;;;;;;;;
1695.0;1607.1;;;;;;;;;;;;;3864;;;;;;;;
1695.0;1607.1;;;;;;;;;;;;;3030;;;;;;;;
1695.0;1608.5;;;;0.18313982;-1.0679971;0.32865146;;;;;;;;;;;;;;;
1695.0;1608.5;;;;0.16585924;-1.0728418;0.3349991;;;;;;;;;;;;;;;
1695.0;1608.5;;;;0.14767076;-1.0792466;0.34085086;;;;;;;;;;;;;;;
1695.0;1608.5;;;;0.12980272;-1.0865747;0.34781268;;;;;;;;;;;;;;;
1695.0;1608.5;;;;0.11322786;-1.0928689;0.35483554;;;;;;;;;;;;;;;
1750.0;1618.5;;;;0.098289505;-1.0969812;0.35813907;;;;;;;;;;;;;;;
1750.0;1618.5;;;;0.08485032;-1.099518;0.35510638;;;;;;;;;;;;;;;
1750.0;1618.5;;;;0.07383347;-1.1010743;0.3491631;;;;;;;;;;;;;;;
1750.0;1618.5;;;;0.064285286;-1.1041719;0.33934405;;;;;;;;;;;;;;;
1750.0;1618.5;;;;0.054546364;-1.1076547;0.3265839;;;;;;;;;;;;;;;
1750.0;1620.9;262143;262143;13985;;;;;;;;;;;;;;;;;;
1750.0;1628.4;;;;0.049900062;-1.111332;0.32530978;;;;;;;;;;;;;;;
1750.0;1628.4;;;;0.05466462;-1.1137468;0.34398654;;;;;;;;;;;;;;;
1750.0;1628.4;;;;0.052791603;-1.1154939;0.36662677;;;;;;;;;;;;;;;
1750.0;1628.4;;;;0.042491917;-1.1148072;0.36436847;;;;;;;;;;;;;;;
1750.0;1628.4;;;;0.040637974;-1.111458;0.34791186;;;;;;;;;;;;;;;
1750.0;1638.4;;;;0.038887028;-1.1056405;0.3339081;;;;;;;;;;;;;;;
1750.0;1638.4;;;;0.03380585;-1.097912;0.32272723;;;;;;;;;;;;;;;
1750.0;1638.4;;;;0.025794987;-1.0894815;0.31471637;;;;;;;;;;;;;;;
1750.0;1638.4;;;;0.016380312;-1.0801927;0.30806735;;;;;;;;;;;;;;;
1750.0;1638.4;;;;0.0073738107;-1.0709344;0.30284503;;;;;;;;;;;;;;;
1750.0;1640.8;262143;262143;13993;;;;;;;;;;;;;;;;;;
1750.0;1647.1;;;;;;;;;;;;;2694;;;;;;;;
1750.0;1647.1;;;;;;;;;;;;;2409;;;;;;;;
1750.0;1647.1;;;;;;;;;;;;;2222;;;;;;;;
1750.0;1647.1;;;;;;;;;;;;;2037;;;;;;;;
1750.0;1647.1;;;;;;;;;;;;;1958;;;;;;;;
1753.0;1648.5;;;;2.2506717E-4;-1.0627519;0.2989426;;;;;;;;;;;;;;;
1753.0;1648.5;;;;-0.0054588323;-1.0550348;0.29467395;;;;;;;;;;;;;;;
1753.0;1648.5;;;;-0.009155274;-1.0475274;0.292244;;;;;;;;;;;;;;;
1753.0;1648.5;;;;-0.011131288;-1.0386811;0.28841403;;;;;;;;;;;;;;;
1753.0;1648.5;;;;-0.009342195;-1.0287591;0.284565;;;;;;;;;;;;;;;
1753.0;1658.6;;;;-0.0030975346;-1.0181237;0.27854922;;;;;;;;;;;;;;;
1753.0;1658.6;;;;0.0024795535;-1.0040971;0.27181247;;;;;;;;;;;;;;;
1753.0;1658.6;;;;0.010349275;-0.9939462;0.26380542;;;;;;;;;;;;;;;
1753.0;1658.6;;;;0.026996616;-0.9817277;0.2590218;;;;;;;;;;;;;;;
1753.0;1658.6;;;;0.0452385;-0.9692651;0.25495914;;;;;;;;;;;;;;;
1753.0;1661.1;262143;262143;13979;;;;;;;;;;;;;;;;;;
1753.0;1666.5;;;;;;;;;;;;;;;;;91.01764;-12.169256;39.582504;;1445.8
1753.0;1666.5;;;;;;;;;;;;;;0.57545704;-0.122013;-0.1984924;;;;;1445.8
1753.0;1666.5;;;;;;;;;;;;;;;;;94.29838;-15.964996;44.656208;;1445.8
1753.0;1666.5;;;;;;;;;;;;;;0.57747126;-0.14203314;-0.21558276;;;;;1445.8
1753.0;1666.5;;;;;;;;;;;;;;;;;100.302895;-18.276772;49.97787;;1455.4
1753.0;1666.5;;;;;;;;;;;;;;0.5885189;-0.15826899;-0.22101505;;;;;1455.4
1753.0;1666.5;;;;;;;;;;;;;;;;;108.07368;-20.172735;54.57854;;1455.4
1753.0;1666.5;;;;;;;;;;;;;;0.610065;-0.1601001;-0.22724082;;;;;1455.4
1753.0;1666.5;;;;;;;;;;;;;;;;;116.54256;-20.714437;58.324688;;1465.1
1753.0;1666.5;;;;;;;;;;;;;;0.6461989;-0.13269448;-0.23194067;;;;;1465.1
1753.0;1666.5;;;;;;;;;;;;;;;;;123.187965;-19.474625;61.45283;;1465.1
1753.0;1666.5;;;;;;;;;;;;;;0.7002167;-0.10693686;-0.22003846;;;;;1465.1
1755.0;1667.3;;;;;;;;;;;;;;;;;124.988556;-17.445143;65.52324;;1474.7
1755.0;1667.3;;;;;;;;;;;;;;0.7744377;-0.08087405;-0.21246986;;;;;1474.7
1755.0;1667.3;;;;;;;;;;;;;;;;;124.988556;-12.043367;68.82305;;1474.7
1755.0;1667.3;;;;;;;;;;;;;;0.8489029;-0.049684133;-0.21570483;;;;;1474.7
1755.0;1667.3;;;;;;;;;;;;;;;;;124.988556;-4.413739;72.73324;;1484.4
1755.0;1667.3;;;;;;;;;;;;;;0.9114658;-0.041932434;-0.20502335;;;;;1484.4
1755.0;1667.3;;;;;;;;;;;;;;;;;124.988556;-0.7248146;74.77035;;1484.4
1755.0;1667.3;;;;;;;;;;;;;;0.9792169;-0.006408887;-0.22595905;;;;;1484.4
1755.0;1667.3;;;;;;;;;;;;;;;;;124.988556;1.4191107;72.42424;;1494.1
1755.0;1667.3;;;;;;;;;;;;;;1.0626545;0.054322947;-0.28577533;;;;;1494.1
1755.0;1667.3;;;;;;;;;;;;;;;;;124.988556;8.758812;66.969055;;1494.1
1755.0;1667.3;;;;;;;;;;;;;;1.1637928;0.11413923;-0.32563248;;;;;1494.1
1755.0;1668.5;;;;0.060558327;-0.9569856;0.2500191;;;;;;;;;;;;;;;
1755.0;1668.5;;;;0.07640839;-0.9438592;0.24513248;;;;;;;;;;;;;;;
1755.0;1668.5;;;;0.09284211;-0.9306184;0.24173358;;;;;;;;;;;;;;;
1755.0;1668.5;;;;0.10638048;-0.9181558;0.23918155;;;;;;;;;;;;;;;
1755.0;1668.5;;;;0.11898805;-0.90652096;0.23617557;;;;;;;;;;;;;;;
1756.0;1669.1;;;;;;;;;;;;;;;;;124.988556;23.34666;61.70461;;1503.8
1756.0;1669.1;;;;;;;;;;;;;;1.2621235;0.16235848;-0.29548022;;;;;1503.8
1756.0;1669.1;;;;;;;;;;;;;;;;;124.988556;33.677177;56.825466;;1503.8
1756.0;1669.1;;;;;;;;;;;;;;1.3277993;0.2115543;-0.26007873;;;;;1503.8
1756.0;1669.1;;;;;;;;;;;;;;;;;124.988556;28.157139;48.34895;;1513.3
1756.0;1669.1;;;;;;;;;;;;;;1.3593554;0.285226;-0.32105473;;;;;1513.3
1756.0;1669.1;;;;;;;;;;;;;;;;;124.988556;13.6227;37.58736;;1513.3
1756.0;1669.1;;;;;;;;;;;;;;1.3741875;0.3961913;-0.47285378;;;;;1513.3
1756.0;1669.1;;;;;;;;;;;;;;;;;124.988556;4.8791466;29.652548;;1522.9
1756.0;1669.1;;;;;;;;;;;;;;1.350383;0.49256873;-0.60805076;;;;;1522.9
1756.0;1669.1;;;;;;;;;;;;;;;;;124.988556;4.078036;26.268806;;1522.9
1756.0;1669.1;;;;;;;;;;;;;;1.2559588;0.53022856;-0.656209;;;;;1522.9
1756.0;1669.7;;;;;;;;;;;;;;;;;124.988556;4.955443;26.81051;;1532.6
1756.0;1669.7;;;;;;;;;;;;;;1.1190526;0.50178534;-0.63490707;;;;;1532.6
1756.0;1669.7;;;;;;;;;;;;;;;;;124.988556;2.6322215;28.721733;;1532.6
1756.0;1669.7;;;;;;;;;;;;;;0.98538166;0.42384106;-0.5592822;;;;;1532.6
1756.0;1669.7;;;;;;;;;;;;;;;;;124.988556;-3.688925;30.114138;;1542.2
1756.0;1669.7;;;;;;;;;;;;;;0.9136021;0.3606067;-0.46192816;;;;;1542.2
1756.0;1669.7;;;;;;;;;;;;;;;;;124.93515;-11.677145;32.2924;;1542.2
1756.0;1669.7;;;;;;;;;;;;;;0.93594164;0.31592762;-0.41029084;;;;;1542.2
1756.0;1669.7;;;;;;;;;;;;;;;;;124.35911;-18.807032;33.07825;;1551.8
1756.0;1669.7;;;;;;;;;;;;;;1.0785851;0.32801294;-0.42567217;;;;;1551.8
1756.0;1669.7;;;;;;;;;;;;;;;;;123.97763;-21.351513;29.911955;;1551.8
1756.0;1669.7;;;;;;;;;;;;;;1.2996002;0.42829677;-0.4778588;;;;;1551.8
1757.0;1670.5;;;;;;;;;;;;;;;;;124.80163;-12.932219;23.6404;;1561.3
1757.0;1670.5;;;;;;;;;;;;;;1.4275948;0.560564;-0.5085604;;;;;1561.3
1757.0;1670.5;;;;;;;;;;;;;;;;;124.988556;-0.39674062;12.241737;;1561.3
1757.0;1670.5;;;;;;;;;;;;;;1.4842982;0.7070528;-0.51368755;;;;;1561.3
1757.0;1670.5;;;;;;;;;;;;;;;;;124.988556;6.1418505;-7.4007387;;1571.0
1757.0;1670.5;;;;;;;;;;;;;;1.5870235;0.91073334;-0.48579362;;;;;1571.0
1757.0;1670.5;;;;;;;;;;;;;;;;;121.49419;12.672811;-30.484175;;1571.0
1757.0;1670.5;;;;;;;;;;;;;;1.731376;1.2135991;-0.41608936;;;;;1571.0
1757.0;1670.5;;;;;;;;;;;;;;;;;105.75808;29.740288;-44.408245;;1580.7
1757.0;1670.5;;;;;;;;;;;;;;1.7026887;1.2632221;-0.27069917;;;;;1580.7
1757.0;1670.5;;;;;;;;;;;;;;;;;86.54668;51.633503;-50.74465;;1580.7
1757.0;1670.5;;;;;;;;;;;;;;1.4587237;1.3338419;-0.033692434;;;;;1580.7
1757.0;1678.4;;;;0.12905885;-0.8977624;0.23285297;;;;;;;;;;;;;;;
1757.0;1678.4;;;;0.13645174;-0.8895875;0.22875598;;;;;;;;;;;;;;;
1757.0;1678.4;;;;0.14249422;-0.8819963;0.22286227;;;;;;;;;;;;;;;
1757.0;1678.4;;;;0.14583208;-0.87469876;0.21603397;;;;;;;;;;;;;;;
1757.0;1678.4;;;;0.1490288;-0.8678018;0.20865634;;;;;;;;;;;;;;;
1757.0;1681.0;262143;262143;13978;;;;;;;;;;;;;;;;;;
1757.0;1687.2;;;;;;;;;;;;;1839;;;;;;;;
1757.0;1687.2;;;;;;;;;;;;;1573;;;;;;;;
1757.0;1687.2;;;;;;;;;;;;;1196;;;;;;;;
1757.0;1687.2;;;;;;;;;;;;;753;;;;;;;;
1757.0;1687.2;;;;;;;;;;;;;301;;;;;;;;
1807.0;1688.4;;;;0.1509781;-0.86065686;0.20035937;;;;;;;;;;;;;;;
1807.0;1688.4;;;;0.15164568;-0.8527986;0.19040301;;;;;;;;;;;;;;;
1807.0;1688.4;;;;0.15374376;-0.84547436;0.17689516;;;;;;;;;;;;;;;
1807.0;1688.4;;;;0.15662004;-0.84053814;0.16254045;;;;;;;;;;;;;;;
1807.0;1688.4;;;;0.15857698;-0.83532345;0.1486664;;;;;;;;;;;;;;;
1807.0;1698.1;;;;0.16214372;-0.82933056;0.13534547;;;;;;;;;;;;;;;
1807.0;1698.1;;;;0.16789629;-0.82498944;0.12386705;;;;;;;;;;;;;;;
1807.0;1698.1;;;;0.17335512;-0.8233453;0.1138878;;;;;;;;;;;;;;;
1807.0;1698.1;;;;0.18130495;-0.8222276;0.10809328;;;;;;;;;;;;;;;
1807.0;1698.1;;;;0.19115451;-0.8223344;0.10466005;;;;;;;;;;;;;;;
1807.0;1700.7;262143;262143;13963;;;;;;;;;;;;;;;;;;
1807.0;1708.3;;;;0.20229343;-0.8234674;0.10271074;;;;;;;;;;;;;;;
1807.0;1708.3;;;;0.2155228;-0.8252336;0.10178377;;;;;;;;;;;;;;;
1807.0;1708.3;;;;0.2299271;-0.8285371;0.10108949;;;;;;;;;;;;;;;
1807.0;1708.3;;;;0.2448807;-0.8323823;0.101432815;;;;;;;;;;;;;;;
1807.0;1708.3;;;;0.2597542;-0.8365861;0.10245134;;;;;;;;;;;;;;;
1807.0;1718.3;;;;0.27342227;-0.8423234;0.10405351;;;;;;;;;;;;;;;
1807.0;1718.3;;;;0.28598407;-0.8483468;0.10650255;;;;;;;;;;;;;;;
1807.0;1718.3;;;;0.29700473;-0.85392773;0.11022188;;;;;;;;;;;;;;;
1807.0;1718.3;;;;0.30695346;-0.85995114;0.114475265;;;;;;;;;;;;;;;
1807.0;1718.3;;;;0.31475833;-0.86519253;0.11837007;;;;;;;;;;;;;;;
1809.0;1721.0;262143;262143;13963;;;;;;;;;;;;;;;;;;
1809.0;1726.8;;;;;;;;;;;;;;;;;46.460617;60.060425;-35.870693;;1590.2
1809.0;1726.8;;;;;;;;;;;;;;1.1254616;1.192114;0.05999939;;;;;1590.2
1809.0;1726.8;;;;;;;;;;;;;;;;;20.657215;50.008392;-13.42433;;1590.2
1809.0;1726.8;;;;;;;;;;;;;;0.85262614;0.76039916;-0.0040284432;;;;;1590.2
1809.0;1726.8;;;;;;;;;;;;;;;;;15.35081;37.52632;-8.060701;;1599.9
1809.0;1726.8;;;;;;;;;;;;;;0.77590257;0.50111395;-0.13214515;;;;;1599.9
1809.0;1726.8;;;;;;;;;;;;;;;;;18.047884;28.683584;0.0;;1599.9
1809.0;1726.8;;;;;;;;;;;;;;0.68599504;0.27411726;-0.21735282;;;;;1599.9
1809.0;1726.8;;;;;;;;;;;;;;;;;27.096622;13.042848;6.912442;;1609.6
1809.0;1726.8;;;;;;;;;;;;;;0.619953;0.11749626;-0.29352704;;;;;1609.6
1809.0;1726.8;;;;;;;;;;;;;;;;;38.91873;-9.056368;15.5796995;;1609.6
1809.0;1726.8;;;;;;;;;;;;;;0.59450054;0.020935697;-0.3640248;;;;;1609.6
1809.0;1727.2;;;;;;;;;;;;;-163;;;;;;;;
1809.0;1727.2;;;;;;;;;;;;;-600;;;;;;;;
1809.0;1727.2;;;;;;;;;;;;;-935;;;;;;;;
1809.0;1727.2;;;;;;;;;;;;;-1096;;;;;;;;
1809.0;1727.2;;;;;;;;;;;;;-1014;;;;;;;;
1811.0;1727.7;;;;;;;;;;;;;;;;;56.794945;-29.931028;29.396955;;1619.3
1811.0;1727.7;;;;;;;;;;;;;;0.5335856;-0.16913357;-0.5258339;;;;;1619.3
1811.0;1727.7;;;;;;;;;;;;;;;;;84.44472;-38.87295;39.147617;;1619.3
1811.0;1727.7;;;;;;;;;;;;;;0.48915067;-0.3124485;-0.601825;;;;;1619.3
1811.0;1727.7;;;;;;;;;;;;;;;;;106.22349;-44.923244;53.36543;;1628.6
1811.0;1727.7;;;;;;;;;;;;;;0.50196844;-0.36689353;-0.5861385;;;;;1628.6
1811.0;1727.7;;;;;;;;;;;;;;;;;114.18119;-56.939907;73.79757;;1628.6
1811.0;1727.7;;;;;;;;;;;;;;0.55873287;-0.41468552;-0.63686025;;;;;1628.6
1811.0;1727.7;;;;;;;;;;;;;;;;;120.92577;-58.53832;90.53697;;1638.2
1811.0;1727.7;;;;;;;;;;;;;;0.53444016;-0.6153142;-0.7889035;;;;;1638.2
1811.0;1727.7;;;;;;;;;;;;;;;;;124.9733;-38.590656;78.00531;;1638.2
1811.0;1727.7;;;;;;;;;;;;;;0.48988312;-0.66121405;-0.75551623;;;;;1638.2
1811.0;1728.4;;;;0.3212357;-0.8714181;0.123352066;;;;;;;;;;;;;;;
1811.0;1728.4;;;;0.32734302;-0.8769189;0.12715913;;;;;;;;;;;;;;;
1811.0;1728.4;;;;0.33228305;-0.88193524;0.13187028;;;;;;;;;;;;;;;
1811.0;1728.4;;;;0.33599094;-0.8875619;0.13548662;;;;;;;;;;;;;;;
1811.0;1728.4;;;;0.33808902;-0.89304745;0.13926317;;;;;;;;;;;;;;;
1811.0;1737.5;;;;;;;;;;-0.22507401;20.096437;-0.5226295;;;;;;;;;
1811.0;1737.5;;;;;;;-0.02557451;1.1141087;0.21106601;;;;;;;;;;;;
1811.0;1737.5;;;;;;;;;;7.549516;33.288067;9.23185;;;;;;;;;
1811.0;1737.5;;;;;;;-0.02948088;1.295877;0.24726096;;;;;;;;;;;;
1868.0;1738.4;;;;0.33888248;-0.8977052;0.14265825;;;;;;;;;;;;;;;
1868.0;1738.4;;;;0.33946612;-0.9027864;0.14672472;;;;;;;;;;;;;;;
1868.0;1738.4;;;;0.33948138;-0.9074174;0.15048982;;;;;;;;;;;;;;;
1868.0;1738.4;;;;0.33854297;-0.91163266;0.15381624;;;;;;;;;;;;;;;
1868.0;1738.4;;;;0.3368416;-0.91539013;0.1573105;;;;;;;;;;;;;;;
1868.0;1741.1;262143;262143;13960;;;;;;;;;;;;;;;;;;
1868.0;1747.1;;;;;;;;;;1.1940367;8.781701;5.813776;;;;;;;;;
1868.0;1747.1;;;;;;;-0.03540147;1.3440351;0.24872585;;;;;;;;;;;;
1868.0;1747.1;;;;;;;;;;5.836665;32.116917;18.807032;;;;;;;;;
1868.0;1747.1;;;;;;;-0.038270213;1.3905454;0.24909207;;;;;;;;;;;;
1868.0;1748.5;;;;0.33489993;-0.9188653;0.16054155;;;;;;;;;;;;;;;
1868.0;1748.5;;;;0.33311465;-0.9218179;0.16421129;;;;;;;;;;;;;;;
1868.0;1748.5;;;;0.33170703;-0.92489254;0.1679764;;;;;;;;;;;;;;;
1868.0;1748.5;;;;0.32968524;-0.92803204;0.16978456;;;;;;;;;;;;;;;
1868.0;1748.5;;;;0.3285828;-0.9307138;0.17265321;;;;;;;;;;;;;;;
1868.0;1756.7;;;;;;;;;;6.324961;48.257393;29.251991;;;;;;;;;
1868.0;1756.7;;;;;;;-0.036133915;1.4267403;0.24573503;;;;;;;;;;;;
1868.0;1756.7;;;;;;;;;;1.6403699;30.51088;19.222847;;;;;;;;;
1868.0;1756.7;;;;;;;-0.033265177;1.4499954;0.2446974;;;;;;;;;;;;
1870.0;1758.6;;;;0.32654193;-0.932953;0.1755829;;;;;;;;;;;;;;;
1870.0;1758.6;;;;0.3254967;-0.93433774;0.17836381;;;;;;;;;;;;;;;
1870.0;1758.6;;;;0.3231049;-0.93683636;0.18117906;;;;;;;;;;;;;;;
1870.0;1758.6;;;;0.32086948;-0.93922055;0.18213274;;;;;;;;;;;;;;;
1870.0;1758.6;;;;0.31887057;-0.9408227;0.18043901;;;;;;;;;;;;;;;
1870.0;1761.3;262143;262143;13956;;;;;;;;;;;;;;;;;;
1870.0;1766.3;;;;;;;;;;2.006592;49.81002;29.389326;;;;;;;;;
1870.0;1766.3;;;;;;;-0.034546953;1.4615924;0.24756615;;;;;;;;;;;;
1870.0;1766.3;;;;;;;;;;2.3804438;71.5125;39.353615;;;;;;;;;
1870.0;1766.3;;;;;;;-0.0380871;1.4521317;0.24793237;;;;;;;;;;;;
1870.0;1767.5;;;;;;;;;;;;;-752;;;;;;;;
1870.0;1767.5;;;;;;;;;;;;;-443;;;;;;;;
1870.0;1767.5;;;;;;;;;;;;;-136;;;;;;;;
1870.0;1767.5;;;;;;;;;;;;;208;;;;;;;;
1870.0;1767.5;;;;;;;;;;;;;606;;;;;;;;
1870.0;1768.7;;;;0.31642154;-0.941929;0.17829134;;;;;;;;;;;;;;;
1870.0;1768.7;;;;0.3137398;-0.9421464;0.17641069;;;;;;;;;;;;;;;
1870.0;1768.7;;;;0.3115845;-0.9442369;0.17504503;;;;;;;;;;;;;;;
1870.0;1768.7;;;;0.30675128;-0.9416467;0.17540742;;;;;;;;;;;;;;;
1870.0;1768.7;;;;0.30170062;-0.9414636;0.17508699;;;;;;;;;;;;;;;
1870.0;1776.0;;;;;;;;;;2.2240365;100.188446;53.014465;;;;;;;;;
1870.0;1776.0;;;;;;;-0.043153174;1.4293039;0.24713889;;;;;;;;;;;;
1870.0;1776.0;;;;;;;;;;1.6747032;119.0489;60.61739;;;;;;;;;
1870.0;1776.0;;;;;;;-0.056031983;1.399945;0.24427015;;;;;;;;;;;;
1873.0;1778.7;;;;0.29719546;-0.9417306;0.17469789;;;;;;;;;;;;;;;
1873.0;1778.7;;;;0.29367068;-0.94157803;0.17302324;;;;;;;;;;;;;;;
1873.0;1778.7;;;;0.288662;-0.9408952;0.17063524;;;;;;;;;;;;;;;
1873.0;1778.7;;;;0.28326038;-0.93898404;0.16824724;;;;;;;;;;;;;;;
1873.0;1778.7;;;;0.27834323;-0.93641293;0.16635515;;;;;;;;;;;;;;;
1873.0;1781.5;262143;262143;13962;;;;;;;;;;;;;;;;;;
1873.0;1785.6;;;;;;;;;;1.3618885;123.67626;59.133427;;;;;;;;;
1873.0;1785.6;;;;;;;-0.078127384;1.3624684;0.24262215;;;;;;;;;;;;
1873.0;1785.6;;;;;;;;;;0.88503677;124.86266;56.94754;;;;;;;;;
1873.0;1785.6;;;;;;;-0.11767937;1.3212073;0.2428663;;;;;;;;;;;;
1873.0;1788.9;;;;0.27211002;-0.93395627;0.16435243;;;;;;;;;;;;;;;
1873.0;1788.9;;;;0.26542285;-0.9315263;0.16223146;;;;;;;;;;;;;;;
1873.0;1788.9;;;;0.25846103;-0.9292871;0.1594658;;;;;;;;;;;;;;;
1873.0;1788.9;;;;0.25216296;-0.9272195;0.1568413;;;;;;;;;;;;;;;
1873.0;1788.9;;;;0.24545291;-0.9250833;0.15527345;;;;;;;;;;;;;;;
1874.0;1794.5;;;;;;;;;;;;;;;;;120.91433;-18.417921;50.290688;;1647.8
1874.0;1794.5;;;;;;;;;;;;;;0.53004545;-0.41242713;-0.6326487;;;;;1647.8
1874.0;1794.5;;;;;;;;;;;;;;;;;90.78875;-4.772332;34.382915;;1647.8
1874.0;1794.5;;;;;;;;;;;;;;0.61323893;-0.10669271;-0.59614855;;;;;1647.8
1874.0;1794.5;;;;;;;;;;;;;;;;;63.840904;2.4719992;25.215918;;1657.4
1874.0;1794.5;;;;;;;;;;;;;;0.70821255;0.050965913;-0.5579394;;;;;1657.4
1874.0;1794.5;;;;;;;;;;;;;;;;;45.556503;12.096774;12.642292;;1657.4
1874.0;1794.5;;;;;;;;;;;;;;0.8080691;0.19824824;-0.5031282;;;;;1657.4
1874.0;1794.5;;;;;;;;;;;;;;;;;32.895138;23.373363;-1.7738883;;1667.0
1874.0;1794.5;;;;;;;;;;;;;;0.90676594;0.3378399;-0.43452254;;;;;1667.0
1874.0;1794.5;;;;;;;;;;;;;;;;;28.145695;32.551807;-15.324106;;1667.0
1874.0;1794.5;;;;;;;;;;;;;;0.99942017;0.52455217;-0.3310648;;;;;1667.0
1874.0;1795.4;;;;;;;;;;;;;;;;;30.449842;35.683765;-23.05292;;1676.7
1874.0;1795.4;;;;;;;;;;;;;;1.0365916;0.6493728;-0.3039033;;;;;1676.7
1874.0;1795.4;;;;;;;;;;;;;;;;;43.42784;35.81347;-25.856808;;1676.7
1874.0;1795.4;;;;;;;;;;;;;;1.0182196;0.74184394;-0.2887051;;;;;1676.7
1874.0;1795.4;;;;;;;;;;;;;;;;;50.8858;41.402172;-16.228218;;1686.3
1874.0;1795.4;;;;;;;;;;;;;;0.9305093;0.7718741;-0.2402417;;;;;1686.3
1874.0;1795.4;;;;;;;;;;;;;;;;;48.31843;50.21439;0.88503677;;1686.3
1874.0;1795.4;;;;;;;;;;;;;;0.79842526;0.5380413;-0.12878811;;;;;1686.3
1874.0;1795.4;;;;;;;;;;;;;;;;;43.977173;51.431316;5.836665;;1695.8
1874.0;1795.4;;;;;;;;;;;;;;0.77449876;0.456679;0.010071108;;;;;1695.8
1874.0;1795.4;;;;;;;;;;;;;;;;;30.724508;42.91284;10.971405;;1695.8
1874.0;1795.4;;;;;;;;;;;;;;0.75319684;0.36396375;0.05450606;;;;;1695.8
1877.0;1795.0;;;;;;;;;;0.35477766;124.881744;55.99002;;;;;;;;;
1877.0;1795.0;;;;;;;-0.1386761;1.2759179;0.245674;;;;;;;;;;;;
1877.0;1795.0;;;;;;;;;;-0.76296276;124.881744;54.09406;;;;;;;;;
1877.0;1795.0;;;;;;;-0.10913419;1.2389294;0.25794244;;;;;;;;;;;;
1877.0;1796.4;;;;;;;;;;;;;;;;;16.994993;26.142918;17.548143;;1705.4
1877.0;1796.4;;;;;;;;;;;;;;0.7727287;0.25818658;0.036439102;;;;;1705.4
1877.0;1796.4;;;;;;;;;;;;;;;;;5.592517;6.408887;23.922697;;1705.4
1877.0;1796.4;;;;;;;;;;;;;;0.8390149;0.14398633;-0.04809717;;;;;1705.4
1877.0;1796.4;;;;;;;;;;;;;;;;;0.17166662;-7.89285;27.962584;;1715.1
1877.0;1796.4;;;;;;;;;;;;;;0.91402936;0.046632282;-0.17560351;;;;;1715.1
1877.0;1796.4;;;;;;;;;;;;;;;;;0.63325906;-10.570848;29.049807;;1715.1
1877.0;1796.4;;;;;;;;;;;;;;0.9434492;0.0045167394;-0.24860378;;;;;1715.1
1877.0;1796.4;;;;;;;;;;;;;;;;;2.4071476;-8.945738;28.56151;;1724.7
1877.0;1796.4;;;;;;;;;;;;;;0.9571215;-9.155553E-4;-0.27332377;;;;;1724.7
1877.0;1796.4;;;;;;;;;;;;;;;;;5.9511094;-7.755516;27.11951;;1724.7
1877.0;1796.4;;;;;;;;;;;;;;0.9851985;-0.006225776;-0.31336406;;;;;1724.7
1877.0;1798.6;;;;0.23868564;-0.92338955;0.15367891;;;;;;;;;;;;;;;
1877.0;1798.6;;;;0.23117831;-0.92231;0.15240099;;;;;;;;;;;;;;;
1877.0;1798.6;;;;0.22420123;-0.9208299;0.15197374;;;;;;;;;;;;;;;
1877.0;1798.6;;;;0.21671298;-0.92013943;0.15097429;;;;;;;;;;;;;;;
1877.0;1798.6;;;;0.2095032;-0.919922;0.15151598;;;;;;;;;;;;;;;
1877.0;1801.5;262143;262143;13963;;;;;;;;;;;;;;;;;;
1929.0;1804.4;;;;;;;;;;-1.9837031;124.881744;48.234505;;;;;;;;;
1929.0;1804.4;;;;;;;-0.10168768;1.2013307;0.26422927;;;;;;;;;;;;
1929.0;1804.4;;;;;;;;;;-3.1815546;124.881744;42.35969;;;;;;;;;
1929.0;1804.4;;;;;;;-0.10290842;1.1659291;0.26319164;;;;;;;;;;;;
1929.0;1807.6;;;;;;;;;;;;;981;;;;;;;;
1929.0;1807.6;;;;;;;;;;;;;1258;;;;;;;;
1929.0;1807.6;;;;;;;;;;;;;1397;;;;;;;;
1929.0;1807.6;;;;;;;;;;;;;1417;;;;;;;;
1929.0;1807.6;;;;;;;;;;;;;1328;;;;;;;;
1929.0;1808.7;;;;0.20211032;-0.920231;0.15138628;;;;;;;;;;;;;;;
1929.0;1808.7;;;;0.19490436;-0.9201814;0.15205003;;;;;;;;;;;;;;;
1929.0;1808.7;;;;0.18706132;-0.92076886;0.15191652;;;;;;;;;;;;;;;
1929.0;1808.7;;;;0.17919923;-0.9216844;0.15232469;;;;;;;;;;;;;;;
1929.0;1808.7;;;;0.17201616;-0.9227983;0.15276338;;;;;;;;;;;;;;;
1929.0;1814.0;;;;;;;;;;-4.844814;124.881744;38.186287;;;;;;;;;
1929.0;1814.0;;;;;;;-0.1053499;1.1316264;0.26831874;;;;;;;;;;;;
1929.0;1814.0;;;;;;;;;;-6.6949983;124.881744;34.90936;;;;;;;;;
1929.0;1814.0;;;;;;;-0.10821863;1.1017792;0.27460554;;;;;;;;;;;;
1929.0;1818.6;;;;0.16451646;-0.92458737;0.15255739;;;;;;;;;;;;;;;
1929.0;1818.6;;;;0.15740205;-0.9261018;0.1520157;;;;;;;;;;;;;;;
1929.0;1818.6;;;;0.15071489;-0.9280931;0.15126802;;;;;;;;;;;;;;;
1929.0;1818.6;;;;0.14431764;-0.93024457;0.14957811;;;;;;;;;;;;;;;
1929.0;1818.6;;;;0.13885118;-0.9328424;0.14847566;;;;;;;;;;;;;;;
1929.0;1821.5;262143;262143;13969;;;;;;;;;;;;;;;;;;
1931.0;1823.5;;;;;;;;;;-8.48033;124.881744;31.609547;;;;;;;;;
1931.0;1823.5;;;;;;;-0.115970336;1.0712607;0.27344584;;;;;;;;;;;;
1931.0;1823.5;;;;;;;;;;-10.189367;124.881744;27.733694;;;;;;;;;
1931.0;1823.5;;;;;;;-0.13000885;1.0398266;0.26917326;;;;;;;;;;;;
1931.0;1828.7;;;;0.13343431;-0.935856;0.14774324;;;;;;;;;;;;;;;
1931.0;1828.7;;;;0.12899019;-0.9386941;0.147007;;;;;;;;;;;;;;;
1931.0;1828.7;;;;0.1252022;-0.9425317;0.14616777;;;;;;;;;;;;;;;
1931.0;1828.7;;;;0.12270357;-0.94589245;0.14584352;;;;;;;;;;;;;;;
1931.0;1828.7;;;;0.12056352;-0.9494096;0.14603426;;;;;;;;;;;;;;;
1931.0;1833.1;;;;;;;;;;-12.0548115;124.881744;23.377178;;;;;;;;;
1931.0;1833.1;;;;;;;-0.14654988;1.007355;0.26593828;;;;;;;;;;;;
1931.0;1833.1;;;;;;;;;;-14.0957365;124.881744;18.55144;;;;;;;;;
1931.0;1833.1;;;;;;;-0.16657002;0.9721366;0.2679525;;;;;;;;;;;;
1931.0;1838.8;;;;0.11961366;-0.952984;0.14616014;;;;;;;;;;;;;;;
1931.0;1838.8;;;;0.117324844;-0.956627;0.14536668;;;;;;;;;;;;;;;
1931.0;1838.8;;;;0.11619188;-0.9607698;0.14543916;;;;;;;;;;;;;;;
1931.0;1838.8;;;;0.11529161;-0.9649087;0.14554216;;;;;;;;;;;;;;;
1931.0;1838.8;;;;0.11483003;-0.9697038;0.14481355;;;;;;;;;;;;;;;
1933.0;1839.6;;;;;;;;;;;;;;;;;11.730552;-4.325999;24.58266;;1734.4
1933.0;1839.6;;;;;;;;;;;;;;0.99447614;-0.024536882;-0.3588977;;;;;1734.4
1933.0;1839.6;;;;;;;;;;;;;;;;;20.523697;0.43488875;21.355328;;1734.4
1933.0;1839.6;;;;;;;;;;;;;;0.9732963;-0.06610309;-0.4149907;;;;;1734.4
1933.0;1839.6;;;;;;;;;;;;;;;;;29.786066;8.377332;16.083256;;1744.1
1933.0;1839.6;;;;;;;;;;;;;;0.9403363;-0.06042665;-0.45674002;;;;;1744.1
1933.0;1839.6;;;;;;;;;;;;;;;;;40.20432;17.40318;11.37196;;1744.1
1933.0;1839.6;;;;;;;;;;;;;;0.88894314;-0.13116856;-0.4395886;;;;;1744.1
1933.0;1839.6;;;;;;;;;;;;;;;;;50.187687;22.52266;5.0202947;;1753.7
1933.0;1839.6;;;;;;;;;;;;;;0.8613544;-0.1093173;-0.43092135;;;;;1753.7
1933.0;1839.6;;;;;;;;;;;;;;;;;55.612354;25.563066;-0.87740713;;1753.7
1933.0;1839.6;;;;;;;;;;;;;;0.85439616;-0.08154546;-0.42872402;;;;;1753.7
1933.0;1841.7;262143;262143;13972;;;;;;;;;;;;;;;;;;
1933.0;1842.6;;;;;;;;;;-16.270182;124.77874;13.63033;;;;;;;;;
1933.0;1842.6;;;;;;;-0.18311106;0.94338816;0.2713706;;;;;;;;;;;;
1933.0;1842.6;;;;;;;;;;-18.448439;119.350266;8.781701;;;;;;;;;
1933.0;1842.6;;;;;;;-0.18366039;0.91488385;0.27619252;;;;;;;;;;;;
1933.0;1847.8;;;;;;;;;;;;;1167;;;;;;;;
1933.0;1847.8;;;;;;;;;;;;;978;;;;;;;;
1933.0;1847.8;;;;;;;;;;;;;703;;;;;;;;
1933.0;1847.8;;;;;;;;;;;;;325;;;;;;;;
1933.0;1847.8;;;;;;;;;;;;;-27;;;;;;;;
1934.0;1848.8;;;;0.11345674;-0.9739076;0.14449312;;;;;;;;;;;;;;;
1934.0;1848.8;;;;0.113483444;-0.97799313;0.1442299;;;;;;;;;;;;;;;
1934.0;1848.8;;;;0.11330034;-0.9828454;0.14447023;;;;;;;;;;;;;;;
1934.0;1848.8;;;;0.11280824;-0.98754895;0.14416887;;;;;;;;;;;;;;;
1934.0;1848.8;;;;0.11318208;-0.99211514;0.14431764;;;;;;;;;;;;;;;
1934.0;1852.2;;;;;;;;;;-20.424513;104.17112;4.081851;;;;;;;;;
1934.0;1852.2;;;;;;;-0.17804499;0.8890042;0.2806482;;;;;;;;;;;;
1934.0;1852.2;;;;;;;;;;-22.282326;86.98538;-0.22507401;;;;;;;;;
1934.0;1852.2;;;;;;;-0.16351818;0.8601947;0.2732017;;;;;;;;;;;;
1934.0;1858.8;;;;0.11275484;-0.9962045;0.14530565;;;;;;;;;;;;;;;
1934.0;1858.8;;;;0.11180879;-1.0001107;0.14483644;;;;;;;;;;;;;;;
1934.0;1858.8;;;;0.11263658;-1.0037919;0.14577104;;;;;;;;;;;;;;;
1934.0;1858.8;;;;0.11301042;-1.0074311;0.14616777;;;;;;;;;;;;;;;
1934.0;1858.8;;;;0.11352159;-1.0103685;0.1466942;;;;;;;;;;;;;;;
1934.0;1861.7;;;;;;;;;;-24.079105;70.18494;-3.5363324;;;;;;;;;
1934.0;1861.7;;;;;;;-0.13830988;0.8312632;0.26996672;;;;;;;;;;;;
1934.0;1861.7;;;;;;;;;;-25.826288;54.83413;-6.3402205;;;;;;;;;
1934.0;1861.7;;;;;;;-0.10382397;0.8117924;0.26722008;;;;;;;;;;;;
1934.0;1861.8;262143;262143;13973;;;;;;;;;;;;;;;;;;
1989.0;1868.8;;;;0.113670364;-1.0131036;0.14701082;;;;;;;;;;;;;;;
1989.0;1868.8;;;;0.11552049;-1.016224;0.14787294;;;;;;;;;;;;;;;
1989.0;1868.8;;;;0.116985336;-1.0189897;0.14911272;;;;;;;;;;;;;;;
1989.0;1868.8;;;;0.11809923;-1.0221483;0.15018465;;;;;;;;;;;;;;;
1989.0;1868.8;;;;0.11903383;-1.025303;0.15067293;;;;;;;;;;;;;;;
1989.0;1871.2;;;;;;;;;;-28.218176;40.730766;-9.239479;;;;;;;;;
1989.0;1871.2;;;;;;;-0.07892086;0.79628897;0.27924436;;;;;;;;;;;;
1989.0;1871.2;;;;;;;;;;-30.671103;27.756584;-12.077701;;;;;;;;;
1989.0;1871.2;;;;;;;-0.052735984;0.7905515;0.29584643;;;;;;;;;;;;
1989.0;1878.7;;;;0.12006761;-1.02837;0.15161134;;;;;;;;;;;;;;;
1989.0;1878.7;;;;0.12130357;-1.0315095;0.15261461;;;;;;;;;;;;;;;
1989.0;1878.7;;;;0.12232973;-1.0344087;0.15413286;;;;;;;;;;;;;;;
1989.0;1878.7;;;;0.12352754;-1.0381662;0.15567781;;;;;;;;;;;;;;;
1989.0;1878.7;;;;0.12500764;-1.0416108;0.15671922;;;;;;;;;;;;;;;
1989.0;1880.7;;;;;;;;;;-33.604694;15.55681;-15.66744;;;;;;;;;
1989.0;1880.7;;;;;;;-0.045960877;0.78328806;0.31568345;;;;;;;;;;;;
1989.0;1880.7;;;;;;;;;;-36.492508;3.6507769;-18.32255;;;;;;;;;
1989.0;1880.7;;;;;;;-0.021851253;0.78969693;0.32660908;;;;;;;;;;;;
1989.0;1881.8;262143;262143;13973;;;;;;;;;;;;;;;;;;
1989.0;1888.0;;;;;;;;;;;;;-191;;;;;;;;
1989.0;1888.0;;;;;;;;;;;;;-194;;;;;;;;
1989.0;1888.0;;;;;;;;;;;;;-200;;;;;;;;
1989.0;1888.0;;;;;;;;;;;;;-209;;;;;;;;
1989.0;1888.0;;;;;;;;;;;;;-98;;;;;;;;
1992.0;1888.9;;;;0.12679674;-1.0447885;0.15768053;;;;;;;;;;;;;;;
1992.0;1888.9;;;;0.12903978;-1.0480195;0.15856554;;;;;;;;;;;;;;;
1992.0;1888.9;;;;0.1319275;-1.0514985;0.15945436;;;;;;;;;;;;;;;
1992.0;1888.9;;;;0.13444902;-1.0549394;0.15994264;;;;;;;;;;;;;;;
1992.0;1888.9;;;;0.13630296;-1.0585443;0.16021349;;;;;;;;;;;;;;;
1992.0;1890.3;;;;;;;;;;-38.979767;-6.9620347;-21.031069;;;;;;;;;
1992.0;1890.3;;;;;;;-0.0016479995;0.79787594;0.3344218;;;;;;;;;;;;
1992.0;1890.3;;;;;;;;;;-40.57054;-15.079958;-23.35429;;;;;;;;;
1992.0;1890.3;;;;;;;0.006591998;0.79586166;0.3315531;;;;;;;;;;;;
1992.0;1899.0;;;;0.13859178;-1.0619127;0.16026308;;;;;;;;;;;;;;;
1992.0;1899.0;;;;0.14090349;-1.06559;0.1607895;;;;;;;;;;;;;;;
1992.0;1899.0;;;;0.14376451;-1.0692636;0.16093828;;;;;;;;;;;;;;;
1992.0;1899.0;;;;0.14658357;-1.0729562;0.16179658;;;;;;;;;;;;;;;
1992.0;1899.0;;;;0.15052797;-1.0765077;0.16260912;;;;;;;;;;;;;;;
1992.0;1899.9;;;;;;;;;;-42.14606;-19.61577;-23.957031;;;;;;;;;
1992.0;1899.9;;;;;;;0.017944884;0.8134403;0.33460495;;;;;;;;;;;;
1992.0;1899.9;;;;;;;;;;-44.606613;-22.606585;-23.625141;;;;;;;;;
1992.0;1899.9;;;;;;;0.035523545;0.82430494;0.34217352;;;;;;;;;;;;
1993.0;1900.7;;;;;;;;;;;;;;;;;59.53017;25.017548;-5.6344795;;1763.2
1993.0;1900.7;;;;;;;;;;;;;;0.83535266;-0.034974214;-0.44111454;;;;;1763.2
1993.0;1900.7;;;;;;;;;;;;;;;;;60.754723;22.70577;-9.93759;;1763.2
1993.0;1900.7;;;;;;;;;;;;;;0.81655324;0.006714072;-0.45460373;;;;;1763.2
1993.0;1900.7;;;;;;;;;;;;;;;;;60.068054;19.192327;-13.698996;;1772.8
1993.0;1900.7;;;;;;;;;;;;;;0.8239387;0.045228433;-0.4875637;;;;;1772.8
1993.0;1900.7;;;;;;;;;;;;;;;;;59.13724;17.490921;-16.972105;;1772.8
1993.0;1900.7;;;;;;;;;;;;;;0.8285165;0.11890011;-0.4892117;;;;;1772.8
1993.0;1900.7;;;;;;;;;;;;;;;;;58.118687;15.362254;-18.864254;;1782.5
1993.0;1900.7;;;;;;;;;;;;;;0.82345045;0.17493209;-0.4776757;;;;;1782.5
1993.0;1900.7;;;;;;;;;;;;;;;;;58.282722;12.527848;-19.295328;;1782.5
1993.0;1900.7;;;;;;;;;;;;;;0.8169805;0.120548114;-0.4816431;;;;;1782.5
1993.0;1901.4;;;;;;;;;;;;;;;;;60.121464;11.028626;-21.187475;;1792.2
1993.0;1901.4;;;;;;;;;;;;;;0.8174688;0.13843197;-0.47840816;;;;;1792.2
1993.0;1901.4;;;;;;;;;;;;;;;;;62.54387;11.341441;-23.03003;;1792.2
1993.0;1901.4;;;;;;;;;;;;;;0.8067873;0.15436262;-0.46143988;;;;;1792.2
1993.0;1901.4;;;;;;;;;;;;;;;;;65.08073;11.082033;-23.739586;;1801.6
1993.0;1901.4;;;;;;;;;;;;;;0.80257577;0.1683401;-0.44062623;;;;;1801.6
1993.0;1901.4;;;;;;;;;;;;;;;;;66.99576;9.80407;-23.892178;;1801.6
1993.0;1901.4;;;;;;;;;;;;;;0.8011719;0.17120884;-0.43800166;;;;;1801.6
1993.0;1901.4;;;;;;;;;;;;;;;;;67.92657;8.167517;-23.65566;;1811.2
1993.0;1901.4;;;;;;;;;;;;;;0.80288094;0.1563158;-0.4496597;;;;;1811.2
1993.0;1901.4;;;;;;;;;;;;;;;;;68.52931;6.496628;-23.415327;;1811.2
1993.0;1901.4;;;;;;;;;;;;;;0.8123417;0.12817775;-0.46900845;;;;;1811.2
1994.0;1902.3;;;;;;;;;;;;;;;;;69.013794;4.856258;-23.380993;;1820.8
1994.0;1902.3;;;;;;;;;;;;;;0.8230842;0.10199286;-0.48988312;;;;;1820.8
1994.0;1902.3;;;;;;;;;;;;;;;;;69.22361;3.4409618;-23.34666;;1820.8
1994.0;1902.3;;;;;;;;;;;;;;0.8384655;0.09039582;-0.5135655;;;;;1820.8
1994.0;1902.3;;;;;;;;;;;;;;;;;68.97565;2.1973326;-23.205511;;1830.5
1994.0;1902.3;;;;;;;;;;;;;;0.8560442;0.09533983;-0.5414594;;;;;1830.5
1994.0;1902.3;;;;;;;;;;;;;;;;;68.06009;1.9493698;-22.865993;;1830.5
1994.0;1902.3;;;;;;;;;;;;;;0.86935025;0.11603137;-0.5612964;;;;;1830.5
1994.0;1902.3;;;;;;;;;;;;;;;;;66.86224;2.4796288;-22.549362;;1840.1
1994.0;1902.3;;;;;;;;;;;;;;0.8847926;0.07147435;-0.5656911;;;;;1840.1
1994.0;1902.3;;;;;;;;;;;;;;;;;66.27476;4.2306285;-23.911253;;1840.1
1994.0;1902.3;;;;;;;;;;;;;;0.89187294;0.12939848;-0.57240516;;;;;1840.1
1994.0;1901.9;262143;262143;13966;;;;;;;;;;;;;;;;;;
1994.0;1908.8;;;;0.15406038;-1.0806314;0.16285707;;;;;;;;;;;;;;;
1994.0;1908.8;;;;0.15800096;-1.0841981;0.1635666;;;;;;;;;;;;;;;
1994.0;1908.8;;;;0.16170122;-1.0886918;0.16431047;;;;;;;;;;;;;;;
1994.0;1908.8;;;;0.16454317;-1.0929605;0.16425325;;;;;;;;;;;;;;;
1994.0;1908.8;;;;0.16794969;-1.0974962;0.1641884;;;;;;;;;;;;;;;
1994.0;1909.3;;;;;;;;;;-47.33421;-24.781029;-23.388622;;;;;;;;;
1994.0;1909.3;;;;;;;0.042054508;0.83834344;0.34882656;;;;;;;;;;;;
1994.0;1909.3;;;;;;;;;;-50.012207;-27.001251;-23.327585;;;;;;;;;
1994.0;1909.3;;;;;;;0.037965026;0.8554338;0.35749382;;;;;;;;;;;;
2048.0;1918.8;;;;0.17108156;-1.1016237;0.16405107;;;;;;;;;;;;;;;
2048.0;1918.8;;;;0.17382814;-1.105446;0.164135;;;;;;;;;;;;;;;
2048.0;1918.8;;;;0.17609026;-1.109562;0.16402437;;;;;;;;;;;;;;;
2048.0;1918.8;;;;0.17768861;-1.1127588;0.16446687;;;;;;;;;;;;;;;
2048.0;1918.8;;;;0.17919542;-1.1155816;0.16470338;;;;;;;;;;;;;;;
2048.0;1918.8;;;;;;;;;;-52.194283;-29.892881;-23.16355;;;;;;;;;
2048.0;1918.8;;;;;;;0.030884732;0.8734397;0.35987428;;;;;;;;;;;;
2048.0;1918.8;;;;;;;;;;-53.701134;-33.26518;-22.770622;;;;;;;;;
2048.0;1918.8;;;;;;;0.028931547;0.8955962;0.35633412;;;;;;;;;;;;
2048.0;1921.9;262143;262143;13979;;;;;;;;;;;;;;;;;;
2048.0;1928.1;;;;;;;;;;;;;170;;;;;;;;
2048.0;1928.1;;;;;;;;;;;;;499;;;;;;;;
2048.0;1928.1;;;;;;;;;;;;;880;;;;;;;;
2048.0;1928.1;;;;;;;;;;;;;1167;;;;;;;;
2048.0;1928.1;;;;;;;;;;;;;1287;;;;;;;;
2048.0;1928.3;;;;;;;;;;-54.807426;-36.8511;-21.908476;;;;;;;;;
2048.0;1928.3;;;;;;;0.033875547;0.92159796;0.3516953;;;;;;;;;;;;
2048.0;1928.3;;;;;;;;;;-55.757317;-39.7351;-20.535141;;;;;;;;;
2048.0;1928.3;;;;;;;0.049867246;0.9515061;0.3416242;;;;;;;;;;;;
2048.0;1928.8;;;;0.18034746;-1.118702;0.16393663;;;;;;;;;;;;;;;
2048.0;1928.8;;;;0.18138124;-1.121399;0.1629944;;;;;;;;;;;;;;;
2048.0;1928.8;;;;0.1816826;-1.1233293;0.16292955;;;;;;;;;;;;;;;
2048.0;1928.8;;;;0.18122102;-1.1236116;0.16334917;;;;;;;;;;;;;;;
2048.0;1928.8;;;;0.18099596;-1.1260339;0.16171648;;;;;;;;;;;;;;;
2050.0;1937.6;;;;;;;;;;-56.539352;-40.91769;-18.349255;;;;;;;;;
2050.0;1937.6;;;;;;;0.07525864;0.98080385;0.3350322;;;;;;;;;;;;
2050.0;1937.6;;;;;;;;;;-57.54265;-40.57817;-15.594958;;;;;;;;;
2050.0;1937.6;;;;;;;0.100711085;1.0130924;0.33411664;;;;;;;;;;;;
2050.0;1938.5;;;;0.18134691;-1.1284219;0.16041566;;;;;;;;;;;;;;;
2050.0;1938.5;;;;0.18166353;-1.1308442;0.1585312;;;;;;;;;;;;;;;
2050.0;1938.5;;;;0.18159486;-1.1330873;0.15718843;;;;;;;;;;;;;;;
2050.0;1938.5;;;;0.1815262;-1.1341172;0.15625001;;;;;;;;;;;;;;;
2050.0;1938.5;;;;0.18141939;-1.1348916;0.15474702;;;;;;;;;;;;;;;
2050.0;1941.7;262143;262143;13973;;;;;;;;;;;;;;;;;;
2050.0;1947.2;;;;;;;;;;-58.465836;-39.117096;-12.37907;;;;;;;;;
2050.0;1947.2;;;;;;;0.12500381;1.0414747;0.33399457;;;;;;;;;;;;
2050.0;1947.2;;;;;;;;;;-58.996094;-36.835842;-8.953367;;;;;;;;;
2050.0;1947.2;;;;;;;0.14746544;1.0723594;0.3292947;;;;;;;;;;;;
2050.0;1948.7;;;;0.18075944;-1.1352693;0.15374376;;;;;;;;;;;;;;;
2050.0;1948.7;;;;0.18104936;-1.1346551;0.15267946;;;;;;;;;;;;;;;
2050.0;1948.7;;;;0.18127824;-1.1329728;0.15248491;;;;;;;;;;;;;;;
2050.0;1948.7;;;;0.18091966;-1.1309587;0.15210344;;;;;;;;;;;;;;;
2050.0;1948.7;;;;0.18090822;-1.1282007;0.15121843;;;;;;;;;;;;;;;
2050.0;1956.9;;;;;;;;;;-59.244057;-33.35673;-5.260628;;;;;;;;;
2050.0;1956.9;;;;;;;0.1817072;1.1009858;0.32715842;;;;;;;;;;;;
2050.0;1956.9;;;;;;;;;;-59.42717;-29.251991;-1.7548143;;;;;;;;;
2050.0;1956.9;;;;;;;0.21338542;1.1249733;0.31946775;;;;;;;;;;;;
2052.0;1958.8;;;;0.18107606;-1.1246415;0.1501198;;;;;;;;;;;;;;;
2052.0;1958.8;;;;0.1808777;-1.1200219;0.15042879;;;;;;;;;;;;;;;
2052.0;1958.8;;;;0.18055727;-1.1151925;0.1499634;;;;;;;;;;;;;;;
2052.0;1958.8;;;;0.17971803;-1.1089212;0.15034105;;;;;;;;;;;;;;;
2052.0;1958.8;;;;0.1792946;-1.1020395;0.15036775;;;;;;;;;;;;;;;
2052.0;1960.0;;;;;;;;;;;;;;;;;65.2028;6.7026277;-24.197363;;1849.7
2052.0;1960.0;;;;;;;;;;;;;;0.8646504;0.14069033;-0.5382855;;;;;1849.7
2052.0;1960.0;;;;;;;;;;;;;;;;;63.21528;6.653035;-24.426252;;1849.7
2052.0;1960.0;;;;;;;;;;;;;;0.88863796;0.14490189;-0.53132725;;;;;1849.7
2052.0;1960.0;;;;;;;;;;;;;;;;;62.429424;8.491775;-24.407179;;1859.4
2052.0;1960.0;;;;;;;;;;;;;;0.8992584;0.15027314;-0.5354167;;;;;1859.4
2052.0;1960.0;;;;;;;;;;;;;;;;;62.395092;10.467849;-23.937956;;1859.4
2052.0;1960.0;;;;;;;;;;;;;;0.8955352;0.1469161;-0.51600695;;;;;1859.4
2052.0;1960.0;;;;;;;;;;;;;;;;;62.18909;10.711997;-23.071993;;1869.0
2052.0;1960.0;;;;;;;;;;;;;;0.898648;0.13623463;-0.50630206;;;;;1869.0
2052.0;1960.0;;;;;;;;;;;;;;;;;61.475723;10.9904785;-21.851254;;1869.0
2052.0;1960.0;;;;;;;;;;;;;;0.89492476;0.12335581;-0.4947661;;;;;1869.0
2054.0;1960.8;;;;;;;;;;;;;;;;;59.797207;10.792109;-20.241402;;1878.5
2054.0;1960.8;;;;;;;;;;;;;;0.8885159;0.11255226;-0.47053438;;;;;1878.5
2054.0;1960.8;;;;;;;;;;;;;;;;;57.546463;9.350108;-18.364513;;1878.5
2054.0;1960.8;;;;;;;;;;;;;;0.8883328;0.09820856;-0.45789972;;;;;1878.5
2054.0;1960.8;;;;;;;;;;;;;;;;;55.46739;7.572405;-16.655478;;1888.2
2054.0;1960.8;;;;;;;;;;;;;;0.89059114;0.081789605;-0.46040222;;;;;1888.2
2054.0;1960.8;;;;;;;;;;;;;;;;;54.258095;7.003998;-15.251625;;1888.2
2054.0;1960.8;;;;;;;;;;;;;;0.88747823;0.066286206;-0.4558855;;;;;1888.2
2054.0;1960.8;;;;;;;;;;;;;;;;;53.773617;6.618702;-14.198736;;1897.8
2054.0;1960.8;;;;;;;;;;;;;;0.8861965;0.053956725;-0.45460373;;;;;1897.8
2054.0;1960.8;;;;;;;;;;;;;;;;;53.99106;6.427961;-13.172552;;1897.8
2054.0;1960.8;;;;;;;;;;;;;;0.88485366;0.038941618;-0.46284372;;;;;1897.8
2054.0;1961.8;262143;262143;13975;;;;;;;;;;;;;;;;;;
2054.0;1966.2;;;;;;;;;;-59.327984;-24.445328;1.6670736;;;;;;;;;
2054.0;1966.2;;;;;;;0.23761712;1.152501;0.305063;;;;;;;;;;;;
2054.0;1966.2;;;;;;;;;;-58.6375;-17.651142;5.096591;;;;;;;;;
2054.0;1966.2;;;;;;;0.25452438;1.1729484;0.29291666;;;;;;;;;;;;
2054.0;1967.8;;;;;;;;;;;;;1333;;;;;;;;
2054.0;1967.8;;;;;;;;;;;;;1145;;;;;;;;
2054.0;1967.8;;;;;;;;;;;;;1057;;;;;;;;
2054.0;1967.8;;;;;;;;;;;;;625;;;;;;;;
2054.0;1967.8;;;;;;;;;;;;;-1636;;;;;;;;
2055.0;1968.5;;;;0.17833711;-1.0946847;0.14971544;;;;;;;;;;;;;;;
2055.0;1968.5;;;;0.17775728;-1.0865213;0.14986803;;;;;;;;;;;;;;;
2055.0;1968.5;;;;0.17647554;-1.077942;0.15007783;;;;;;;;;;;;;;;
2055.0;1968.5;;;;0.17460634;-1.068596;0.15066148;;;;;;;;;;;;;;;
2055.0;1968.5;;;;0.17292406;-1.059105;0.15080644;;;;;;;;;;;;;;;
2055.0;1975.6;;;;;;;;;;-57.786797;-9.037293;8.770256;;;;;;;;;
2055.0;1975.6;;;;;;;0.26142156;1.1922361;0.27942747;;;;;;;;;;;;
2055.0;1975.6;;;;;;;;;;-56.535538;1.5221107;12.57744;;;;;;;;;
2055.0;1975.6;;;;;;;0.27179784;1.2053591;0.26856288;;;;;;;;;;;;
2055.0;1978.5;;;;0.17128755;-1.0495149;0.15105821;;;;;;;;;;;;;;;
2055.0;1978.5;;;;0.16891481;-1.039982;0.15159608;;;;;;;;;;;;;;;
2055.0;1978.5;;;;0.16661073;-1.0306817;0.15202715;;;;;;;;;;;;;;;
2055.0;1978.5;;;;0.16391756;-1.021576;0.15258409;;;;;;;;;;;;;;;
2055.0;1978.5;;;;0.16117097;-1.0126306;0.15343095;;;;;;;;;;;;;;;
2055.0;1981.8;262143;262143;13980;;;;;;;;;;;;;;;;;;
2055.0;1985.3;;;;;;;;;;-55.11643;14.847256;16.472366;;;;;;;;;
2055.0;1985.3;;;;;;;0.29151282;1.213355;0.253914;;;;;;;;;;;;
2055.0;1985.3;;;;;;;;;;-53.57143;30.354471;20.279549;;;;;;;;;
2055.0;1985.3;;;;;;;0.31391338;1.2150029;0.23859371;;;;;;;;;;;;
2121.0;1988.6;;;;0.15857698;-1.0041009;0.15420915;;;;;;;;;;;;;;;
2121.0;1988.6;;;;0.15513612;-0.9957658;0.15501405;;;;;;;;;;;;;;;
2121.0;1988.6;;;;0.15184785;-0.98841107;0.15576936;;;;;;;;;;;;;;;
2121.0;1988.6;;;;0.14847566;-0.9809495;0.15672685;;;;;;;;;;;;;;;
2121.0;1988.6;;;;0.14611436;-0.97355664;0.1572838;;;;;;;;;;;;;;;
2121.0;1994.6;;;;;;;;;;-51.801353;47.425766;23.976105;;;;;;;;;
2121.0;1994.6;;;;;;;0.32947782;1.215247;0.22418897;;;;;;;;;;;;
2121.0;1994.6;;;;;;;;;;-49.867245;66.26331;27.676472;;;;;;;;;
2121.0;1994.6;;;;;;;0.331431;1.2099369;0.2169866;;;;;;;;;;;;
2121.0;1998.5;;;;0.14400102;-0.9661027;0.15805818;;;;;;;;;;;;;;;
2121.0;1998.5;;;;0.14151765;-0.95897305;0.15898134;;;;;;;;;;;;;;;
2121.0;1998.5;;;;0.1399994;-0.95225155;0.16102983;;;;;;;;;;;;;;;
2121.0;1998.5;;;;0.13846208;-0.9458848;0.16220857;;;;;;;;;;;;;;;
2121.0;1998.5;;;;0.13766481;-0.94005215;0.16312028;;;;;;;;;;;;;;;
2121.0;2001.8;262143;262143;13978;;;;;;;;;;;;;;;;;;
2121.0;2004.2;;;;;;;;;;-47.864468;85.90961;31.30436;;;;;;;;;
2121.0;2004.2;;;;;;;0.33088169;1.2025514;0.20960112;;;;;;;;;;;;
2121.0;2004.2;;;;;;;;;;-45.506912;106.55156;34.558395;;;;;;;;;
2121.0;2004.2;;;;;;;0.32123783;1.1963255;0.20001832;;;;;;;;;;;;
2121.0;2007.9;;;;;;;;;;;;;-4773;;;;;;;;
2121.0;2007.9;;;;;;;;;;;;;-5455;;;;;;;;
2121.0;2007.9;;;;;;;;;;;;;-1866;;;;;;;;
2121.0;2007.9;;;;;;;;;;;;;3568;;;;;;;;
2121.0;2007.9;;;;;;;;;;;;;6501;;;;;;;;
2128.0;2008.6;;;;0.13815309;-0.93428814;0.16456224;;;;;;;;;;;;;;;
2128.0;2008.6;;;;0.13851167;-0.9286691;0.16643907;;;;;;;;;;;;;;;
2128.0;2008.6;;;;0.13886644;-0.9227029;0.16840364;;;;;;;;;;;;;;;
2128.0;2008.6;;;;0.1383896;-0.91806424;0.16967393;;;;;;;;;;;;;;;
2128.0;2008.6;;;;0.13887407;-0.91300595;0.17024995;;;;;;;;;;;;;;;
2128.0;2013.9;;;;;;;;;;-42.863247;122.51274;37.751396;;;;;;;;;
2128.0;2013.9;;;;;;;0.30872524;1.1873531;0.18744469;;;;;;;;;;;;
2128.0;2013.9;;;;;;;;;;-40.456097;124.88556;41.135136;;;;;;;;;
2128.0;2013.9;;;;;;;0.2956023;1.177282;0.17920469;;;;;;;;;;;;
2128.0;2018.7;;;;0.13914873;-0.90802395;0.17129518;;;;;;;;;;;;;;;
2128.0;2018.7;;;;0.13996507;-0.9028703;0.17251207;;;;;;;;;;;;;;;
2128.0;2018.7;;;;0.14033891;-0.89766705;0.17310335;;;;;;;;;;;;;;;
2128.0;2018.7;;;;0.14068605;-0.8919641;0.1739464;;;;;;;;;;;;;;;
2128.0;2018.7;;;;0.14070131;-0.88588345;0.17501451;;;;;;;;;;;;;;;
2132.0;2019.9;;;;;;;;;;;;;;;;;54.78454;7.1832943;-12.604144;;1907.4
2132.0;2019.9;;;;;;;;;;;;;;0.8791772;0.02783288;-0.45478684;;;;;1907.4
2132.0;2019.9;;;;;;;;;;;;;;;;;55.84124;7.9615164;-12.432477;;1907.4
2132.0;2019.9;;;;;;;;;;;;;;0.87508774;0.019409772;-0.44001588;;;;;1907.4
2132.0;2019.9;;;;;;;;;;;;;;;;;56.703392;8.48796;-12.478255;;1917.0
2132.0;2019.9;;;;;;;;;;;;;;0.87728506;0.015503403;-0.4242683;;;;;1917.0
2132.0;2019.9;;;;;;;;;;;;;;;;;57.203133;8.857997;-12.6957;;1917.0
2132.0;2019.9;;;;;;;;;;;;;;0.8827784;0.015442366;-0.40937528;;;;;1917.0
2132.0;2019.9;;;;;;;;;;;;;;;;;57.47017;8.632923;-13.10007;;1926.7
2132.0;2019.9;;;;;;;;;;;;;;0.89022493;0.014099551;-0.41248816;;;;;1926.7
2132.0;2019.9;;;;;;;;;;;;;;;;;57.466354;8.259072;-13.573108;;1926.7
2132.0;2019.9;;;;;;;;;;;;;;0.900235;0.014343699;-0.4242683;;;;;1926.7
2132.0;2020.6;;;;;;;;;;;;;;;;;57.57317;7.9577017;-14.229255;;1936.2
2132.0;2020.6;;;;;;;;;;;;;;0.90755945;0.018066958;-0.43574327;;;;;1936.2
2132.0;2020.6;;;;;;;;;;;;;;;;;57.79824;7.8394423;-15.072329;;1936.2
2132.0;2020.6;;;;;;;;;;;;;;0.9076815;0.0237434;-0.44752342;;;;;1936.2
2132.0;2020.6;;;;;;;;;;;;;;;;;58.04239;8.041628;-16.098515;;1945.8
2132.0;2020.6;;;;;;;;;;;;;;0.90066224;0.03234962;-0.4488052;;;;;1945.8
2132.0;2020.6;;;;;;;;;;;;;;;;;58.24839;8.289591;-17.185736;;1945.8
2132.0;2020.6;;;;;;;;;;;;;;0.88772243;0.040833768;-0.4333018;;;;;1945.8
2132.0;2020.6;;;;;;;;;;;;;;;;;58.561207;8.301035;-18.13181;;1955.4
2132.0;2020.6;;;;;;;;;;;;;;0.87777334;0.045960877;-0.4153569;;;;;1955.4
2132.0;2020.6;;;;;;;;;;;;;;;;;59.30891;8.060701;-18.978699;;1955.4
2132.0;2020.6;;;;;;;;;;;;;;0.87185276;0.046021912;-0.39442122;;;;;1955.4
2134.0;2021.9;262143;262143;13975;;;;;;;;;;;;;;;;;;
2134.0;2023.3;;;;;;;;;;-38.132877;124.881744;44.61806;;;;;;;;;
2134.0;2023.3;;;;;;;0.27558213;1.1605579;0.17255165;;;;;;;;;;;;
2134.0;2023.3;;;;;;;;;;-35.882137;124.881744;48.005615;;;;;;;;;
2134.0;2023.3;;;;;;;0.25025177;1.1394391;0.16602069;;;;;;;;;;;;
2134.0;2028.6;;;;0.14102556;-0.8794671;0.17536546;;;;;;;;;;;;;;;
2134.0;2028.6;;;;0.14200212;-0.8726579;0.17643358;;;;;;;;;;;;;;;
2134.0;2028.6;;;;0.14278795;-0.8659593;0.17664339;;;;;;;;;;;;;;;
2134.0;2028.6;;;;0.14427187;-0.8589059;0.17691042;;;;;;;;;;;;;;;
2134.0;2028.6;;;;0.14551164;-0.852337;0.17724611;;;;;;;;;;;;;;;
2134.0;2032.9;;;;;;;;;;-33.692436;124.881744;51.03076;;;;;;;;;
2134.0;2032.9;;;;;;;0.22107609;1.1164281;0.15790276;;;;;;;;;;;;
2134.0;2032.9;;;;;;;;;;-31.598103;124.881744;53.750725;;;;;;;;;
2134.0;2032.9;;;;;;;0.1812189;1.0895108;0.15424055;;;;;;;;;;;;
2134.0;2038.6;;;;0.14675523;-0.84591687;0.17730333;;;;;;;;;;;;;;;
2134.0;2038.6;;;;0.14847948;-0.8401643;0.17795946;;;;;;;;;;;;;;;
2134.0;2038.6;;;;0.15018846;-0.83495724;0.17787172;;;;;;;;;;;;;;;
2134.0;2038.6;;;;0.15208437;-0.83107007;0.17740251;;;;;;;;;;;;;;;
2134.0;2038.6;;;;0.1539116;-0.82857907;0.1765938;;;;;;;;;;;;;;;
2134.0;2042.5;;;;;;;;;;-29.869991;124.881744;56.45161;;;;;;;;;
2134.0;2042.5;;;;;;;0.14221625;1.063509;0.15124974;;;;;;;;;;;;
2134.0;2042.5;;;;;;;;;;-28.37077;124.881744;59.015167;;;;;;;;;
2134.0;2042.5;;;;;;;0.10254219;1.0326242;0.14886929;;;;;;;;;;;;
2168.0;2042.1;262143;262143;13964;;;;;;;;;;;;;;;;;;
2168.0;2048.2;;;;;;;;;;;;;5483;;;;;;;;
2168.0;2048.2;;;;;;;;;;;;;2863;;;;;;;;
2168.0;2048.2;;;;;;;;;;;;;1365;;;;;;;;
2168.0;2048.2;;;;;;;;;;;;;922;;;;;;;;
2168.0;2048.2;;;;;;;;;;;;;599;;;;;;;;
2168.0;2048.6;;;;0.15592195;-0.82779324;0.17584993;;;;;;;;;;;;;;;
2168.0;2048.6;;;;0.15822984;-0.8292085;0.17557527;;;;;;;;;;;;;;;
2168.0;2048.6;;;;0.15913011;-0.83335507;0.17403032;;;;;;;;;;;;;;;
2168.0;2048.6;;;;0.16376878;-0.8395349;0.17300035;;;;;;;;;;;;;;;
2168.0;2048.6;;;;0.17113496;-0.8467294;0.1730385;;;;;;;;;;;;;;;
2168.0;2051.7;;;;;;;;;;-27.024141;124.881744;61.349834;;;;;;;;;
2168.0;2051.7;;;;;;;0.063844725;1.0029603;0.1523484;;;;;;;;;;;;
2168.0;2051.7;;;;;;;;;;-26.169622;124.881744;63.238167;;;;;;;;;
2168.0;2051.7;;;;;;;0.028992584;0.9742119;0.16278572;;;;;;;;;;;;
2168.0;2058.4;;;;0.1763878;-0.85631573;0.1724434;;;;;;;;;;;;;;;
2168.0;2058.4;;;;0.17652895;-0.86958325;0.1721306;;;;;;;;;;;;;;;
2168.0;2058.4;;;;0.1790848;-0.8856126;0.17237474;;;;;;;;;;;;;;;
2168.0;2058.4;;;;0.18293764;-0.9049951;0.1718445;;;;;;;;;;;;;;;
2168.0;2058.4;;;;0.18757632;-0.92590725;0.17106248;;;;;;;;;;;;;;;
2168.0;2061.2;;;;;;;;;;-25.498215;124.881744;64.7412;;;;;;;;;
2168.0;2061.2;;;;;;;0.0014648885;0.9483932;0.16864528;;;;;;;;;;;;
2168.0;2061.2;;;;;;;;;;-25.017548;124.881744;65.93143;;;;;;;;;
2168.0;2061.2;;;;;;;-0.026856288;0.9253212;0.18146306;;;;;;;;;;;;
2168.0;2061.9;262143;262143;13965;;;;;;;;;;;;;;;;;;
2175.0;2068.5;;;;0.1916199;-0.9479753;0.17073442;;;;;;;;;;;;;;;
2175.0;2068.5;;;;0.19446185;-0.9699632;0.17124559;;;;;;;;;;;;;;;
2175.0;2068.5;;;;0.19588473;-0.9924394;0.1720543;;;;;;;;;;;;;;;
2175.0;2068.5;;;;0.196991;-1.0138322;0.17351915;;;;;;;;;;;;;;;
2175.0;2068.5;;;;0.19823459;-1.0334665;0.17446138;;;;;;;;;;;;;;;
2175.0;2070.9;;;;;;;;;;-24.475845;124.881744;66.961426;;;;;;;;;
2175.0;2070.9;;;;;;;-0.052919097;0.903531;0.19354838;;;;;;;;;;;;
2175.0;2070.9;;;;;;;;;;-23.792994;124.881744;67.92275;;;;;;;;;
2175.0;2070.9;;;;;;;-0.07879879;0.8778954;0.19678335;;;;;;;;;;;;
2175.0;2078.6;;;;0.19972995;-1.0513116;0.17517473;;;;;;;;;;;;;;;
2175.0;2078.6;;;;0.20146564;-1.0667306;0.17593004;;;;;;;;;;;;;;;
2175.0;2078.6;;;;0.2027016;-1.0790902;0.17629625;;;;;;;;;;;;;;;
2175.0;2078.6;;;;0.2034302;-1.0893251;0.17719652;;;;;;;;;;;;;;;
2175.0;2078.6;;;;0.20359805;-1.0968934;0.17775346;;;;;;;;;;;;;;;
2176.0;2080.1;;;;;;;;;;;;;;;;;60.56398;8.152257;-19.814142;;1965.0
2176.0;2080.1;;;;;;;;;;;;;;0.86867887;0.045289468;-0.37781915;;;;;1965.0
2176.0;2080.1;;;;;;;;;;;;;;;;;62.086094;8.667256;-20.649586;;1965.0
2176.0;2080.1;;;;;;;;;;;;;;0.868862;0.036133915;-0.3634144;;;;;1965.0
2176.0;2080.1;;;;;;;;;;;;;;;;;63.77224;9.1975155;-21.679586;;1974.6
2176.0;2080.1;;;;;;;;;;;;;;0.8742943;0.028992584;-0.3556627;;;;;1974.6
2176.0;2080.1;;;;;;;;;;;;;;;;;65.4088;9.670553;-22.751549;;1974.6
2176.0;2080.1;;;;;;;;;;;;;;0.88375497;0.027344584;-0.3521836;;;;;1974.6
2176.0;2080.1;;;;;;;;;;;;;;;;;66.82791;10.086368;-23.812067;;1984.3
2176.0;2080.1;;;;;;;;;;;;;;0.89028597;0.02026429;-0.3509018;;;;;1984.3
2176.0;2080.1;;;;;;;;;;;;;;;;;68.43012;10.280923;-25.120548;;1984.3
2176.0;2080.1;;;;;;;;;;;;;;0.89785457;0.0220954;-0.3541368;;;;;1984.3
2176.0;2080.4;;;;;;;;;;-22.579882;124.881744;68.85357;;;;;;;;;
2176.0;2080.4;;;;;;;-0.10864589;0.8465224;0.19519639;;;;;;;;;;;;
2176.0;2080.4;;;;;;;;;;-20.615253;124.881744;69.52879;;;;;;;;;
2176.0;2080.4;;;;;;;-0.13562426;0.8189947;0.18628499;;;;;;;;;;;;
2177.0;2081.0;;;;;;;;;;;;;;;;;69.914085;10.361034;-26.329844;;1993.8
2177.0;2081.0;;;;;;;;;;;;;;0.90627766;0.026734214;-0.35865352;;;;;1993.8
2177.0;2081.0;;;;;;;;;;;;;;;;;71.45146;10.380108;-27.336956;;1993.8
2177.0;2081.0;;;;;;;;;;;;;;0.9100009;0.03381451;-0.36255988;;;;;1993.8
2177.0;2081.0;;;;;;;;;;;;;;;;;72.79809;10.921812;-27.924437;;2003.4
2177.0;2081.0;;;;;;;;;;;;;;0.9027375;0.042481765;-0.3618885;;;;;2003.4
2177.0;2081.0;;;;;;;;;;;;;;;;;73.778496;12.009034;-28.107548;;2003.4
2177.0;2081.0;;;;;;;;;;;;;;0.88357186;0.05114902;-0.35346538;;;;;2003.4
2177.0;2081.0;;;;;;;;;;;;;;;;;74.76272;12.749107;-28.241066;;2013.1
2177.0;2081.0;;;;;;;;;;;;;;0.860622;0.07129124;-0.3482162;;;;;2013.1
2177.0;2081.0;;;;;;;;;;;;;;;;;74.94202;11.963256;-28.279213;;2013.1
2177.0;2081.0;;;;;;;;;;;;;;0.85677665;0.10522782;-0.35395366;;;;;2013.1
2177.0;2081.9;262143;262143;13966;;;;;;;;;;;;;;;;;;
2177.0;2087.9;;;;;;;;;;;;;415;;;;;;;;
2177.0;2087.9;;;;;;;;;;;;;155;;;;;;;;
2177.0;2087.9;;;;;;;;;;;;;-193;;;;;;;;
2177.0;2087.9;;;;;;;;;;;;;-464;;;;;;;;
2177.0;2087.9;;;;;;;;;;;;;-796;;;;;;;;
2177.0;2088.4;;;;0.20380405;-1.1026345;0.17783739;;;;;;;;;;;;;;;
2177.0;2088.4;;;;0.204155;-1.1067888;0.17785265;;;;;;;;;;;;;;;
2177.0;2088.4;;;;0.20402148;-1.1098634;0.17901231;;;;;;;;;;;;;;;
2177.0;2088.4;;;;0.20421603;-1.1128274;0.17853166;;;;;;;;;;;;;;;
2177.0;2088.4;;;;0.20466998;-1.1155092;0.17879488;;;;;;;;;;;;;;;
2178.0;2089.8;;;;;;;;;;-18.452253;124.881744;69.81872;;;;;;;;;
2178.0;2089.8;;;;;;;-0.15887935;0.79348123;0.16699728;;;;;;;;;;;;
2178.0;2089.8;;;;;;;;;;-16.663107;124.881744;69.75387;;;;;;;;;
2178.0;2089.8;;;;;;;-0.18524735;0.77748954;0.15112767;;;;;;;;;;;;
2178.0;2094.6;;;;;;;;;;;;;;;;;73.4962;9.750664;-28.34788;;2022.7
2178.0;2094.6;;;;;;;;;;;;;;0.87673575;0.14239937;-0.3588977;;;;;2022.7
2178.0;2094.6;;;;;;;;;;;;;;;;;70.20783;6.992553;-28.588213;;2022.7
2178.0;2094.6;;;;;;;;;;;;;;0.9246498;0.17621388;-0.36054567;;;;;2022.7
2178.0;2094.6;;;;;;;;;;;;;;;;;65.40117;6.164739;-28.851437;;2032.3
2178.0;2094.6;;;;;;;;;;;;;;0.96639913;0.18439284;-0.3424177;;;;;2032.3
2178.0;2094.6;;;;;;;;;;;;;;;;;60.533463;8.213294;-28.859066;;2032.3
2178.0;2094.6;;;;;;;;;;;;;;0.97305214;0.17438276;-0.29590747;;;;;2032.3
2178.0;2094.6;;;;;;;;;;;;;;;;;57.420574;10.23896;-28.122807;;2041.9
2178.0;2094.6;;;;;;;;;;;;;;0.9356975;0.15356915;-0.27314067;;;;;2041.9
2178.0;2094.6;;;;;;;;;;;;;;;;;56.348614;9.80407;-26.654104;;2041.9
2178.0;2094.6;;;;;;;;;;;;;;0.8844264;0.13019197;-0.29126865;;;;;2041.9
2178.0;2098.3;;;;0.20454028;-1.11821;0.17834093;;;;;;;;;;;;;;;
2178.0;2098.3;;;;0.20338824;-1.1217157;0.17727281;;;;;;;;;;;;;;;
2178.0;2098.3;;;;0.2024422;-1.1262056;0.17629625;;;;;;;;;;;;;;;
2178.0;2098.3;;;;0.20138934;-1.1307756;0.1755295;;;;;;;;;;;;;;;
2178.0;2098.3;;;;0.19994357;-1.135029;0.1751137;;;;;;;;;;;;;;;
2178.0;2099.2;;;;;;;;;;-15.408032;124.881744;69.55931;;;;;;;;;
2178.0;2099.2;;;;;;;-0.22272408;0.7693106;0.13617359;;;;;;;;;;;;
2178.0;2099.2;;;;;;;;;;-14.5039215;124.881744;69.357124;;;;;;;;;
2178.0;2099.2;;;;;;;-0.2684408;0.76631975;0.17535935;;;;;;;;;;;;
2226.0;2101.8;262143;262143;13952;;;;;;;;;;;;;;;;;;
2226.0;2108.4;;;;0.19955829;-1.1395532;0.17442705;;;;;;;;;;;;;;;
2226.0;2108.4;;;;0.200264;-1.1432496;0.17351915;;;;;;;;;;;;;;;
2226.0;2108.4;;;;0.20019534;-1.1457025;0.17277528;;;;;;;;;;;;;;;
2226.0;2108.4;;;;0.19864276;-1.1476899;0.17198946;;;;;;;;;;;;;;;
2226.0;2108.4;;;;0.1939812;-1.1491166;0.17160036;;;;;;;;;;;;;;;
2226.0;2108.8;;;;;;;;;;-13.30607;124.881744;68.89553;;;;;;;;;
2226.0;2108.8;;;;;;;-0.28858304;0.75771356;0.22742394;;;;;;;;;;;;
2226.0;2108.8;;;;;;;;;;-12.142552;124.881744;68.45301;;;;;;;;;
2226.0;2108.8;;;;;;;-0.26630452;0.74422437;0.25959045;;;;;;;;;;;;
2226.0;2118.2;;;;;;;;;;-9.334849;124.881744;67.99524;;;;;;;;;
2226.0;2118.2;;;;;;;-0.22150335;0.72420424;0.27753532;;;;;;;;;;;;
2226.0;2118.2;;;;;;;;;;-5.493332;124.69482;66.560875;;;;;;;;;
2226.0;2118.2;;;;;;;-0.17963195;0.7112644;0.28315073;;;;;;;;;;;;
2226.0;2118.3;;;;0.18750766;-1.1506387;0.17120363;;;;;;;;;;;;;;;
2226.0;2118.3;;;;0.18245317;-1.1503145;0.17113878;;;;;;;;;;;;;;;
2226.0;2118.3;;;;0.17864992;-1.1478387;0.1700821;;;;;;;;;;;;;;;
2226.0;2118.3;;;;0.17570879;-1.1427385;0.16942216;;;;;;;;;;;;;;;
2226.0;2118.3;;;;0.17344286;-1.1368753;0.16912462;;;;;;;;;;;;;;;
2226.0;2121.9;262143;262143;13954;;;;;;;;;;;;;;;;;;
2229.0;2127.9;;;;;;;;;;-1.4152958;121.01352;63.745537;;;;;;;;;
2229.0;2127.9;;;;;;;-0.16144292;0.71633047;0.28083134;;;;;;;;;;;;
2229.0;2127.9;;;;;;;;;;2.6055179;115.634636;60.193943;;;;;;;;;
2229.0;2127.9;;;;;;;-0.16022217;0.73500776;0.27210304;;;;;;;;;;;;
2229.0;2128.0;;;;;;;;;;;;;-1158;;;;;;;;
2229.0;2128.0;;;;;;;;;;;;;-1505;;;;;;;;
2229.0;2128.0;;;;;;;;;;;;;-1894;;;;;;;;
2229.0;2128.0;;;;;;;;;;;;;-2338;;;;;;;;
2229.0;2128.0;;;;;;;;;;;;;-2812;;;;;;;;
2229.0;2128.4;;;;0.17332079;-1.1282121;0.16879274;;;;;;;;;;;;;;;
2229.0;2128.4;;;;0.16437913;-1.1215478;0.16510393;;;;;;;;;;;;;;;
2229.0;2128.4;;;;0.15743257;-1.1111337;0.16548921;;;;;;;;;;;;;;;
2229.0;2128.4;;;;0.15041353;-1.0979196;0.1658745;;;;;;;;;;;;;;;
2229.0;2128.4;;;;0.14273836;-1.0854303;0.16433717;;;;;;;;;;;;;;;
2229.0;2137.5;;;;;;;;;;5.882443;113.14737;56.897945;;;;;;;;;
2229.0;2137.5;;;;;;;-0.1685232;0.75807977;0.26410717;;;;;;;;;;;;
2229.0;2137.5;;;;;;;;;;8.846553;112.643814;54.258095;;;;;;;;;
2229.0;2137.5;;;;;;;-0.1727958;0.7780999;0.26294747;;;;;;;;;;;;
2229.0;2138.5;;;;0.13769151;-1.0735551;0.16500093;;;;;;;;;;;;;;;
2229.0;2138.5;;;;0.13077928;-1.063366;0.16371156;;;;;;;;;;;;;;;
2229.0;2138.5;;;;0.11852647;-1.0550653;0.16067506;;;;;;;;;;;;;;;
2229.0;2138.5;;;;0.10915376;-1.0444795;0.15877916;;;;;;;;;;;;;;;
2229.0;2138.5;;;;0.10444261;-1.0302736;0.15797807;;;;;;;;;;;;;;;
2231.0;2139.8;;;;;;;;;;;;;;;;;56.699574;6.859035;-25.326548;;2051.6
2231.0;2139.8;;;;;;;;;;;;;;0.8467666;0.11566515;-0.31727043;;;;;2051.6
2231.0;2139.8;;;;;;;;;;;;;;;;;57.000946;1.7204809;-24.185919;;2051.6
2231.0;2139.8;;;;;;;;;;;;;;0.83059174;0.1098056;-0.3427839;;;;;2051.6
2231.0;2139.8;;;;;;;;;;;;;;;;;56.413464;-4.2458873;-23.388622;;2061.3
2231.0;2139.8;;;;;;;;;;;;;;0.8429823;0.11603137;-0.37415692;;;;;2061.3
2231.0;2139.8;;;;;;;;;;;;;;;;;54.563282;-8.3925905;-22.587511;;2061.3
2231.0;2139.8;;;;;;;;;;;;;;0.8731956;0.12408826;-0.39265114;;;;;2061.3
2231.0;2139.8;;;;;;;;;;;;;;;;;51.22532;-10.284738;-21.72155;;2071.0
2231.0;2139.8;;;;;;;;;;;;;;0.9088412;0.12115848;-0.39991456;;;;;2071.0
2231.0;2139.8;;;;;;;;;;;;;;;;;46.89932;-9.834589;-20.897549;;2071.0
2231.0;2139.8;;;;;;;;;;;;;;0.93740654;0.106387526;-0.4115726;;;;;2071.0
2231.0;2142.1;262143;262143;13952;;;;;;;;;;;;;;;;;;
2231.0;2147.0;;;;;;;;;;11.738182;112.59422;51.911983;;;;;;;;;
2231.0;2147.0;;;;;;;-0.17816706;0.79622793;0.2732017;;;;;;;;;;;;
2231.0;2147.0;;;;;;;;;;14.641255;111.85415;49.35606;;;;;;;;;
2231.0;2147.0;;;;;;;-0.17780083;0.8134403;0.27723014;;;;;;;;;;;;
2231.0;2148.5;;;;0.099857345;-1.0156633;0.1588669;;;;;;;;;;;;;;;
2231.0;2148.5;;;;0.0957184;-1.0023805;0.15924837;;;;;;;;;;;;;;;
2231.0;2148.5;;;;0.09292222;-0.9913217;0.15872957;;;;;;;;;;;;;;;
2231.0;2148.5;;;;0.09077073;-0.98160183;0.15917589;;;;;;;;;;;;;;;
2231.0;2148.5;;;;0.08778382;-0.9729043;0.15927126;;;;;;;;;;;;;;;
2233.0;2154.9;;;;;;;;;;;;;;;;;42.98532;-6.5843687;-20.039215;;2080.5
2233.0;2154.9;;;;;;;;;;;;;;0.9507126;0.074892424;-0.42170477;;;;;2080.5
2233.0;2154.9;;;;;;;;;;;;;;;;;40.43321;-1.247444;-19.180883;;2080.5
2233.0;2154.9;;;;;;;;;;;;;;0.9483932;0.03930784;-0.4189581;;;;;2080.5
2233.0;2154.9;;;;;;;;;;;;;;;;;38.888214;3.8949249;-18.292032;;2090.2
2233.0;2154.9;;;;;;;;;;;;;;0.92446667;0.006164739;-0.4076052;;;;;2090.2
2233.0;2154.9;;;;;;;;;;;;;;;;;38.47621;7.4999237;-18.250069;;2090.2
2233.0;2154.9;;;;;;;;;;;;;;0.8860744;-0.013794366;-0.39625233;;;;;2090.2
2233.0;2154.9;;;;;;;;;;;;;;;;;38.93399;9.411145;-18.906218;;2099.8
2233.0;2154.9;;;;;;;;;;;;;;0.85042876;-0.035340436;-0.38587603;;;;;2099.8
2233.0;2154.9;;;;;;;;;;;;;;;;;40.36836;10.250404;-20.58092;;2099.8
2233.0;2154.9;;;;;;;;;;;;;;0.8283944;-0.027588733;-0.37647635;;;;;2099.8
2233.0;2156.4;;;;;;;;;;17.700735;109.20286;46.437725;;;;;;;;;
2233.0;2156.4;;;;;;;-0.18347728;0.8374279;0.2821131;;;;;;;;;;;;
2233.0;2156.4;;;;;;;;;;21.053957;105.37279;44.381542;;;;;;;;;
2233.0;2156.4;;;;;;;-0.18720053;0.8682516;0.28711814;;;;;;;;;;;;
2233.0;2158.4;;;;0.089492805;-0.96595395;0.16104509;;;;;;;;;;;;;;;
2233.0;2158.4;;;;0.09106446;-0.95935833;0.16194154;;;;;;;;;;;;;;;
2233.0;2158.4;;;;0.091903694;-0.95290387;0.16307451;;;;;;;;;;;;;;;
2233.0;2158.4;;;;0.09492113;-0.94565976;0.1645241;;;;;;;;;;;;;;;
2233.0;2158.4;;;;0.095333114;-0.9384233;0.16654588;;;;;;;;;;;;;;;
2233.0;2162.1;262143;262143;13951;;;;;;;;;;;;;;;;;;
2288.0;2166.0;;;;;;;;;;24.433882;100.77212;43.45836;;;;;;;;;
2288.0;2166.0;;;;;;;-0.1810358;0.9056673;0.2840663;;;;;;;;;;;;
2288.0;2166.0;;;;;;;;;;27.027956;95.62594;42.42836;;;;;;;;;
2288.0;2166.0;;;;;;;-0.19251075;0.94448686;0.28101444;;;;;;;;;;;;
2288.0;2168.2;;;;;;;;;;;;;-3213;;;;;;;;
2288.0;2168.2;;;;;;;;;;;;;-3500;;;;;;;;
2288.0;2168.2;;;;;;;;;;;;;-3640;;;;;;;;
2288.0;2168.2;;;;;;;;;;;;;-3555;;;;;;;;
2288.0;2168.2;;;;;;;;;;;;;-3228;;;;;;;;
2288.0;2168.5;;;;0.093887344;-0.9316102;0.16867067;;;;;;;;;;;;;;;
2288.0;2168.5;;;;0.09401323;-0.9235765;0.17174913;;;;;;;;;;;;;;;
2288.0;2168.5;;;;0.096382156;-0.9147912;0.17603303;;;;;;;;;;;;;;;
2288.0;2168.5;;;;0.0988083;-0.9052583;0.18022157;;;;;;;;;;;;;;;
2288.0;2168.5;;;;0.101131454;-0.8958131;0.18505861;;;;;;;;;;;;;;;
2288.0;2175.4;;;;;;;;;;28.660696;90.31571;41.665394;;;;;;;;;
2288.0;2175.4;;;;;;;-0.20435195;0.97616506;0.2883999;;;;;;;;;;;;
2288.0;2175.4;;;;;;;;;;29.583881;84.45998;40.94058;;;;;;;;;
2288.0;2175.4;;;;;;;-0.22333445;1.0039979;0.29609057;;;;;;;;;;;;
2288.0;2178.4;;;;0.10361482;-0.8862916;0.19046405;;;;;;;;;;;;;;;
2288.0;2178.4;;;;0.10829927;-0.87677777;0.19668964;;;;;;;;;;;;;;;
2288.0;2178.4;;;;0.114151016;-0.86680615;0.20419696;;;;;;;;;;;;;;;
2288.0;2178.4;;;;0.12036516;-0.8574296;0.21010974;;;;;;;;;;;;;;;
2288.0;2178.4;;;;0.12665941;-0.8487245;0.21685031;;;;;;;;;;;;;;;
2288.0;2182.2;262143;262143;13959;;;;;;;;;;;;;;;;;;
2290.0;2185.1;;;;;;;;;;29.808954;78.203674;40.463726;;;;;;;;;
2290.0;2185.1;;;;;;;-0.24018067;1.0281686;0.30115664;;;;;;;;;;;;
2290.0;2185.1;;;;;;;;;;29.07651;70.90594;40.28443;;;;;;;;;
2290.0;2185.1;;;;;;;-0.25421917;1.0485549;0.30756554;;;;;;;;;;;;
2290.0;2188.5;;;;0.1323929;-0.8400651;0.22293094;;;;;;;;;;;;;;;
2290.0;2188.5;;;;0.13812257;-0.8328706;0.2278519;;;;;;;;;;;;;;;
2290.0;2188.5;;;;0.14449693;-0.8258325;0.2337189;;;;;;;;;;;;;;;
2290.0;2188.5;;;;0.14991762;-0.8195497;0.23951343;;;;;;;;;;;;;;;
2290.0;2188.5;;;;0.15509035;-0.8141328;0.24411395;;;;;;;;;;;;;;;
2290.0;2194.7;;;;;;;;;;27.958769;61.483353;40.43321;;;;;;;;;
2290.0;2194.7;;;;;;;-0.26648763;1.0639362;0.33741266;;;;;;;;;;;;
2290.0;2194.7;;;;;;;;;;26.806696;51.137577;40.967285;;;;;;;;;
2290.0;2194.7;;;;;;;-0.27167577;1.0679036;0.35230568;;;;;;;;;;;;
2290.0;2198.6;;;;0.15901567;-0.8100778;0.2486954;;;;;;;;;;;;;;;
2290.0;2198.6;;;;0.1630974;-0.8067056;0.2532654;;;;;;;;;;;;;;;
2290.0;2198.6;;;;0.1673012;-0.80417264;0.25867084;;;;;;;;;;;;;;;
2290.0;2198.6;;;;0.17173387;-0.8017503;0.26437;;;;;;;;;;;;;;;
2290.0;2198.6;;;;0.17727663;-0.8000337;0.27042773;;;;;;;;;;;;;;;
2294.0;2200.5;;;;;;;;;;;;;;;;;41.43269;10.498367;-21.748253;;2109.5
2294.0;2200.5;;;;;;;;;;;;;;0.8180792;-0.021790216;-0.380871;;;;;2109.5
2294.0;2200.5;;;;;;;;;;;;;;;;;42.970062;10.2732935;-22.93466;;2109.5
2294.0;2200.5;;;;;;;;;;;;;;0.81606495;-0.014160588;-0.39301735;;;;;2109.5
2294.0;2200.5;;;;;;;;;;;;;;;;;44.557022;9.205146;-23.819696;;2119.2
2294.0;2200.5;;;;;;;;;;;;;;0.8351085;-0.0044557024;-0.4185919;;;;;2119.2
2294.0;2200.5;;;;;;;;;;;;;;;;;45.74343;8.6901455;-23.842587;;2119.2
2294.0;2200.5;;;;;;;;;;;;;;0.8651387;-0.0077517014;-0.44422743;;;;;2119.2
2294.0;2200.5;;;;;;;;;;;;;;;;;47.471542;10.3228855;-23.846401;;2128.7
2294.0;2200.5;;;;;;;;;;;;;;0.89901423;-0.01208533;-0.451735;;;;;2128.7
2294.0;2200.5;;;;;;;;;;;;;;;;;50.077057;13.714254;-24.151587;;2128.7
2294.0;2200.5;;;;;;;;;;;;;;0.92703027;-0.012329478;-0.44111454;;;;;2128.7
2294.0;2202.3;262143;262143;13952;;;;;;;;;;;;;;;;;;
2294.0;2204.2;;;;;;;;;;25.292213;40.375988;42.321545;;;;;;;;;
2294.0;2204.2;;;;;;;-0.26752526;1.0740684;0.357799;;;;;;;;;;;;
2294.0;2204.2;;;;;;;;;;23.636585;30.461287;44.152657;;;;;;;;;
2294.0;2204.2;;;;;;;-0.2492752;1.083407;0.36298716;;;;;;;;;;;;
2294.0;2208.3;;;;;;;;;;;;;-2768;;;;;;;;
2294.0;2208.3;;;;;;;;;;;;;-2351;;;;;;;;
2294.0;2208.3;;;;;;;;;;;;;-2046;;;;;;;;
2294.0;2208.3;;;;;;;;;;;;;-1704;;;;;;;;
2294.0;2208.3;;;;;;;;;;;;;-1308;;;;;;;;
2295.0;2208.5;;;;0.18302156;-0.7977792;0.2759476;;;;;;;;;;;;;;;
2295.0;2208.5;;;;0.18909839;-0.79563916;0.28216174;;;;;;;;;;;;;;;
2295.0;2208.5;;;;0.19440082;-0.7932054;0.28831103;;;;;;;;;;;;;;;
2295.0;2208.5;;;;0.2000542;-0.7912675;0.29503253;;;;;;;;;;;;;;;
2295.0;2208.5;;;;0.20563129;-0.7890779;0.30121234;;;;;;;;;;;;;;;
2295.0;2213.7;;;;;;;;;;21.71392;22.90414;45.98758;;;;;;;;;
2295.0;2213.7;;;;;;;-0.2174749;1.0940275;0.3822138;;;;;;;;;;;;
2295.0;2213.7;;;;;;;;;;19.650105;19.634846;48.013245;;;;;;;;;
2295.0;2213.7;;;;;;;-0.1784112;1.1066622;0.39667958;;;;;;;;;;;;
2295.0;2215.0;;;;;;;;;;;;;;;;;53.69732;16.90344;-24.395735;;2138.4
2295.0;2215.0;;;;;;;;;;;;;;0.9389325;-0.0052491836;-0.4265267;;;;;2138.4
2295.0;2215.0;;;;;;;;;;;;;;;;;57.775352;19.196144;-24.563585;;2138.4
2295.0;2215.0;;;;;;;;;;;;;;0.9452193;0.008545183;-0.40333262;;;;;2138.4
2295.0;2215.0;;;;;;;;;;;;;;;;;61.326942;20.60381;-24.70092;;2148.1
2295.0;2215.0;;;;;;;;;;;;;;0.94912565;0.026551103;-0.37452316;;;;;2148.1
2295.0;2215.0;;;;;;;;;;;;;;;;;63.84854;21.763514;-24.76577;;2148.1
2295.0;2215.0;;;;;;;;;;;;;;0.9538255;0.050416578;-0.34272286;;;;;2148.1
2295.0;2215.0;;;;;;;;;;;;;;;;;65.240944;22.671436;-24.67803;;2157.8
2295.0;2215.0;;;;;;;;;;;;;;0.9571825;0.06884976;-0.31617177;;;;;2157.8
2295.0;2215.0;;;;;;;;;;;;;;;;;65.91235;22.865993;-24.636068;;2157.8
2295.0;2215.0;;;;;;;;;;;;;;0.9551683;0.094058044;-0.29194006;;;;;2157.8
2347.0;2218.4;;;;0.21179965;-0.7872697;0.30694965;;;;;;;;;;;;;;;
2347.0;2218.4;;;;0.21906283;-0.7853128;0.31287006;;;;;;;;;;;;;;;
2347.0;2218.4;;;;0.22766879;-0.7836839;0.3184357;;;;;;;;;;;;;;;
2347.0;2218.4;;;;0.23774341;-0.7815553;0.3238106;;;;;;;;;;;;;;;
2347.0;2218.4;;;;0.247551;-0.7788316;0.3288994;;;;;;;;;;;;;;;
2347.0;2222.2;262143;262143;13953;;;;;;;;;;;;;;;;;;
2347.0;2223.1;;;;;;;;;;17.365032;20.16129;50.138096;;;;;;;;;
2347.0;2223.1;;;;;;;-0.13904233;1.1214331;0.40974152;;;;;;;;;;;;
2347.0;2223.1;;;;;;;;;;15.194403;23.373363;52.0455;;;;;;;;;
2347.0;2223.1;;;;;;;-0.105288856;1.129551;0.40668964;;;;;;;;;;;;
2347.0;2228.5;;;;0.25618365;-0.77689373;0.33380893;;;;;;;;;;;;;;;
2347.0;2228.5;;;;0.2660294;-0.77466214;0.33800128;;;;;;;;;;;;;;;
2347.0;2228.5;;;;0.27642062;-0.77157223;0.34243777;;;;;;;;;;;;;;;
2347.0;2228.5;;;;0.28608707;-0.76892865;0.346077;;;;;;;;;;;;;;;
2347.0;2228.5;;;;0.29517367;-0.7654954;0.3491898;;;;;;;;;;;;;;;
2347.0;2232.5;;;;;;;;;;14.023255;28.015991;53.907135;;;;;;;;;
2347.0;2232.5;;;;;;;-0.081667535;1.137791;0.3861812;;;;;;;;;;;;
2347.0;2232.5;;;;;;;;;;12.550736;32.48314;55.742058;;;;;;;;;
2347.0;2232.5;;;;;;;-0.07678457;1.1456038;0.40028077;;;;;;;;;;;;
2350.0;2238.2;;;;0.3035622;-0.761448;0.35115436;;;;;;;;;;;;;;;
2350.0;2238.2;;;;0.3107529;-0.7573701;0.35339358;;;;;;;;;;;;;;;
2350.0;2238.2;;;;0.3172417;-0.75361645;0.35436633;;;;;;;;;;;;;;;
2350.0;2238.2;;;;0.3234749;-0.75016034;0.35520557;;;;;;;;;;;;;;;
2350.0;2238.2;;;;0.32969287;-0.74750906;0.3548241;;;;;;;;;;;;;;;
2350.0;2242.0;;;;;;;;;;11.5970335;37.030396;57.86691;;;;;;;;;
2350.0;2242.0;;;;;;;-0.06500442;1.144261;0.41145054;;;;;;;;;;;;
2350.0;2242.0;;;;;;;;;;10.147405;41.585285;59.83917;;;;;;;;;
2350.0;2242.0;;;;;;;-0.05652028;1.1299173;0.37934506;;;;;;;;;;;;
2350.0;2242.1;262143;262143;13960;;;;;;;;;;;;;;;;;;
2350.0;2248.2;;;;;;;;;;;;;-1068;;;;;;;;
2350.0;2248.2;;;;;;;;;;;;;-1126;;;;;;;;
2350.0;2248.2;;;;;;;;;;;;;-1381;;;;;;;;
2350.0;2248.2;;;;;;;;;;;;;-1697;;;;;;;;
2350.0;2248.2;;;;;;;;;;;;;-2013;;;;;;;;
2350.0;2248.4;;;;0.3352318;-0.74903876;0.35319903;;;;;;;;;;;;;;;
2350.0;2248.4;;;;0.3352585;-0.7403069;0.3586693;;;;;;;;;;;;;;;
2350.0;2248.4;;;;0.33690646;-0.7417527;0.35933307;;;;;;;;;;;;;;;
2350.0;2248.4;;;;0.33903888;-0.74454886;0.3574982;;;;;;;;;;;;;;;
2350.0;2248.4;;;;0.34189227;-0.7494126;0.35293964;;;;;;;;;;;;;;;
2350.0;2251.6;;;;;;;;;;8.358257;47.39906;61.83813;;;;;;;;;
2350.0;2251.6;;;;;;;-0.041932434;1.1084933;0.36170536;;;;;;;;;;;;
2350.0;2251.6;;;;;;;;;;6.416517;57.24891;62.85668;;;;;;;;;
2350.0;2251.6;;;;;;;-0.027344584;1.0875576;0.35193944;;;;;;;;;;;;
2351.0;2258.5;;;;0.3457947;-0.75314724;0.35002902;;;;;;;;;;;;;;;
2351.0;2258.5;;;;0.3482857;-0.7561761;0.34991077;;;;;;;;;;;;;;;
2351.0;2258.5;;;;0.34781268;-0.7597276;0.34987262;;;;;;;;;;;;;;;
2351.0;2258.5;;;;0.34791186;-0.76355374;0.34873202;;;;;;;;;;;;;;;
2351.0;2258.5;;;;0.34984973;-0.7692567;0.34813312;;;;;;;;;;;;;;;
2351.0;2260.0;;;;;;;;;;;;;;;;;65.969574;22.331919;-24.437696;;2167.3
2351.0;2260.0;;;;;;;;;;;;;;0.9512009;0.112979524;-0.2675863;;;;;2167.3
2351.0;2260.0;;;;;;;;;;;;;;;;;65.748314;21.134068;-24.311808;;2167.3
2351.0;2260.0;;;;;;;;;;;;;;0.9465011;0.138493;-0.25360882;;;;;2167.3
2351.0;2260.0;;;;;;;;;;;;;;;;;65.462204;20.706808;-24.327068;;2177.0
2351.0;2260.0;;;;;;;;;;;;;;0.94088566;0.16412854;-0.2351146;;;;;2177.0
2351.0;2260.0;;;;;;;;;;;;;;;;;65.56521;20.664846;-24.536882;;2177.0
2351.0;2260.0;;;;;;;;;;;;;;0.9335612;0.18305002;-0.21576586;;;;;2177.0
2351.0;2260.0;;;;;;;;;;;;;;;;;65.9505;20.397808;-24.975584;;2186.7
2351.0;2260.0;;;;;;;;;;;;;;0.92953277;0.1909238;-0.20368053;;;;;2186.7
2351.0;2260.0;;;;;;;;;;;;;;;;;66.324356;20.439772;-25.631733;;2186.7
2351.0;2260.0;;;;;;;;;;;;;;0.9128086;0.18884854;-0.19287698;;;;;2186.7
2351.0;2261.1;;;;;;;;;;4.0704064;70.3032;62.795647;;;;;;;;;
2351.0;2261.1;;;;;;;-0.023316141;1.066744;0.34186834;;;;;;;;;;;;
2351.0;2261.1;;;;;;;;;;1.9112216;84.58205;62.30735;;;;;;;;;
2351.0;2261.1;;;;;;;-0.035279397;1.0396435;0.32862332;;;;;;;;;;;;
2351.0;2262.3;262143;262143;13944;;;;;;;;;;;;;;;;;;
2353.0;2267.5;;;;;;;;;;;;;;;;;66.331985;20.458845;-26.219215;;2196.3
2353.0;2267.5;;;;;;;;;;;;;;0.89657277;0.17828913;-0.18231757;;;;;2196.3
2353.0;2267.5;;;;;;;;;;;;;;;;;65.92761;20.897549;-27.066103;;2196.3
2353.0;2267.5;;;;;;;;;;;;;;0.88033694;0.17139195;-0.16681418;;;;;2196.3
2353.0;2267.5;;;;;;;;;;;;;;;;;65.4355;20.931883;-27.966398;;2205.8
2353.0;2267.5;;;;;;;;;;;;;;0.86629844;0.17017122;-0.159917;;;;;2205.8
2353.0;2267.5;;;;;;;;;;;;;;;;;65.54231;19.817957;-28.725548;;2205.8
2353.0;2267.5;;;;;;;;;;;;;;0.8565325;0.1694998;-0.17670217;;;;;2205.8
2353.0;2267.5;;;;;;;;;;;;;;;;;66.045876;17.906734;-29.423658;;2215.5
2353.0;2267.5;;;;;;;;;;;;;;0.8509171;0.17065951;-0.20453505;;;;;2215.5
