patientId;holterMac;flexMac;;;;;;;;;;;;;;;;;;;;
;CA:F3:0B:1E:33:78;D3:4A:5C:52:80:78;;;;;;;;;;;;;;;;;;;;
receivedTimeStamp;timeStamp;red;ir;green;adxl_accX;adxl_accY;adxl_accZ;lsm_accelX;lsm_accelY;lsm_accelZ;lsm_gyroX;lsm_gyroY;lsm_gyroZ;ecg;flex_lsm_accelX;flex_lsm_accelY;flex_lsm_accelZ;flex_lsm_gyroX;flex_lsm_gyroY;flex_lsm_gyroZ;flex_cmd;flexTimeStamp
266.0;214.9;;;;;;;;;;;;;;;;;;;;17;0.1
266.0;214.9;;;;;;;;;;;;;;;;;13.492996;1.8883327;1.7052218;;127.5
266.0;214.9;;;;;;;;;;;;;;0.8040407;-0.16095462;-0.36347544;;;;;127.5
266.0;214.9;;;;;;;;;;;;;;;;;-5.6802573;-15.980255;-5.7641835;;127.5
266.0;214.9;;;;;;;;;;;;;;0.8302255;-0.14038515;-0.37287515;;;;;127.5
266.0;214.9;;;;;;;;;;;;;;;;;-54.93713;-84.16242;-58.59554;;137.1
266.0;214.9;;;;;;;;;;;;;;0.8233284;-0.100161746;-0.3635975;;;;;137.1
266.0;214.9;;;;;;;;;;;;;;;;;-119.365524;-124.988556;-117.99219;;137.1
266.0;214.9;;;;;;;;;;;;;;0.8019654;-0.081667535;-0.39216286;;;;;137.1
327.0;215.6;;;;;;;;;;;;;;;;;-20.443586;-124.69863;-64.11176;;146.8
327.0;215.6;;;;;;;;;;;;;;0.7651601;-0.050050355;-0.4522843;;;;;146.8
327.0;215.6;;;;;;;;;;;;;;;;;102.64137;-124.44685;2.8191473;;146.8
327.0;215.6;;;;;;;;;;;;;;0.7372661;0.013550218;-0.47260964;;;;;146.8
327.0;215.6;;;;;;;;;;;;;;;;;117.442856;-96.186714;18.383587;;156.4
327.0;215.6;;;;;;;;;;;;;;0.7375103;0.08630635;-0.4816431;;;;;156.4
327.0;215.6;;;;;;;;;;;;;;;;;108.218636;-6.504257;45.106358;;156.4
327.0;215.6;;;;;;;;;;;;;;0.75698113;0.11737419;-0.46339306;;;;;156.4
327.0;215.6;;;;;;;;;;;;;;;;;94.59593;1.575518;45.87695;;166.0
327.0;215.6;;;;;;;;;;;;;;0.7597278;0.09442427;-0.43836787;;;;;166.0
327.0;215.6;;;;;;;;;;;;;;;;;82.75094;3.402814;44.11069;;166.0
327.0;215.6;;;;;;;;;;;;;;0.75948364;0.08239998;-0.4098636;;;;;166.0
327.0;275.5;;;;;;;;;;;;;;;;;71.89779;4.5396285;42.519913;;175.6
327.0;275.5;;;;;;;;;;;;;;0.7763298;0.041444138;-0.39179662;;;;;175.6
327.0;275.5;;;;;;;;;;;;;;;;;62.429424;4.8295546;40.044098;;175.6
327.0;275.5;;;;;;;;;;;;;;0.81411177;0.033753473;-0.39381084;;;;;175.6
327.0;275.5;;;;;;;;;;;;;;;;;53.407394;4.5358133;37.949768;;185.3
327.0;275.5;;;;;;;;;;;;;;0.87063205;-6.103702E-5;-0.4227424;;;;;185.3
327.0;275.5;;;;;;;;;;;;;;;;;46.205025;4.7418137;35.126804;;185.3
327.0;275.5;;;;;;;;;;;;;;0.90298164;-0.03234962;-0.47102267;;;;;185.3
327.0;275.5;;;;;;;;;;;;;;;;;42.523727;4.909665;31.456955;;195.0
327.0;275.5;;;;;;;;;;;;;;0.9175085;-0.072878204;-0.4989166;;;;;195.0
327.0;275.5;;;;;;;;;;;;;;;;;43.51558;2.9831843;27.53151;;195.0
327.0;275.5;;;;;;;;;;;;;;0.9378948;-0.10376293;-0.50886565;;;;;195.0
391.0;276.4;;;;;;;;;;;;;;;;;47.28843;0.84688866;23.907438;;204.4
391.0;276.4;;;;;;;;;;;;;;0.9772637;-0.12158574;-0.49208045;;;;;204.4
391.0;276.4;;;;;;;;;;;;;;;;;50.55391;-1.3542589;20.56566;;204.4
391.0;276.4;;;;;;;;;;;;;;1.0323191;-0.1353801;-0.463332;;;;;204.4
391.0;276.4;;;;;;;;;;;;;;;;;52.056946;-2.273629;18.173773;;214.1
391.0;276.4;;;;;;;;;;;;;;1.0774255;-0.13544114;-0.42219305;;;;;214.1
391.0;276.4;;;;;;;;;;;;;;;;;51.53813;-2.8115177;16.254921;;214.1
391.0;276.4;;;;;;;;;;;;;;1.1083102;-0.14874722;-0.395703;;;;;214.1
391.0;276.4;;;;;;;;;;;;;;;;;50.21439;-3.360851;14.709922;;223.7
391.0;276.4;;;;;;;;;;;;;;1.1252174;-0.13855404;-0.38410595;;;;;223.7
391.0;276.4;;;;;;;;;;;;;;;;;47.14728;-3.627888;13.584552;;223.7
391.0;276.4;;;;;;;;;;;;;;1.1369976;-0.1358684;-0.37751397;;;;;223.7
391.0;335.3;;;;;;;;;;;;;;;;;43.477432;-3.8377025;12.157811;;233.4
391.0;335.3;;;;;;;;;;;;;;1.1399274;-0.13153477;-0.39564195;;;;;233.4
391.0;335.3;;;;;;;;;;;;;;;;;40.494247;-4.1581473;10.795923;;233.4
391.0;335.3;;;;;;;;;;;;;;1.1258888;-0.11999878;-0.4318369;;;;;233.4
391.0;335.3;;;;;;;;;;;;;;;;;38.853878;-4.81811;8.102665;;243.1
391.0;335.3;;;;;;;;;;;;;;1.0990325;-0.07843257;-0.49360636;;;;;243.1
391.0;335.3;;;;;;;;;;;;;;;;;37.953583;-5.077517;4.623554;;243.1
391.0;335.3;;;;;;;;;;;;;;1.0744957;-0.022583697;-0.5567797;;;;;243.1
391.0;335.3;;;;;;;;;;;;;;;;;37.5454;-6.3364053;1.0338145;;252.8
391.0;335.3;;;;;;;;;;;;;;1.0582598;0.032837916;-0.6230659;;;;;252.8
391.0;335.3;;;;;;;;;;;;;;;;;35.042877;-8.236183;-3.1395917;;252.8
391.0;335.3;;;;;;;;;;;;;;1.0375683;0.08294931;-0.66945404;;;;;252.8
452.0;336.5;;;;;;;;;;;;;;;;;29.587696;-11.162145;-7.2824793;;262.3
452.0;336.5;;;;;;;;;;;;;;1.0012512;0.124332406;-0.68495744;;;;;262.3
452.0;336.5;;;;;;;;;;;;;;;;;21.023438;-15.7284775;-11.276589;;262.3
452.0;336.5;;;;;;;;;;;;;;0.9757378;0.15027314;-0.6786706;;;;;262.3
452.0;336.5;;;;;;;;;;;;;;;;;11.890775;-21.408735;-16.556292;;271.9
452.0;336.5;;;;;;;;;;;;;;0.9483932;0.17200232;-0.63753164;;;;;271.9
452.0;336.5;;;;;;;;;;;;;;;;;4.2954803;-27.916805;-23.796808;;271.9
452.0;336.5;;;;;;;;;;;;;;0.9351482;0.19122899;-0.5910825;;;;;271.9
452.0;336.5;;;;;;;;;;;;;;;;;-0.5302591;-34.501175;-33.055363;;281.6
452.0;336.5;;;;;;;;;;;;;;0.9479659;0.2111881;-0.54371774;;;;;281.6
452.0;336.5;;;;;;;;;;;;;;;;;-2.273629;-40.52095;-44.145027;;281.6
452.0;336.5;;;;;;;;;;;;;;0.9864803;0.21436201;-0.52320933;;;;;281.6
452.0;403.2;;;;;;;;;;;;;;;;;-2.0828884;-44.75921;-56.74917;;291.2
452.0;403.2;;;;;;;;;;;;;;1.030366;0.2186346;-0.5340739;;;;;291.2
452.0;403.2;;;;;;;;;;;;;;;;;-0.7248146;-47.025208;-70.142975;;291.2
452.0;403.2;;;;;;;;;;;;;;1.0461135;0.23053682;-0.57454145;;;;;291.2
452.0;403.2;;;;;;;;;;;;;;;;;0.71337014;-47.914062;-83.43761;;300.9
452.0;403.2;;;;;;;;;;;;;;1.0513016;0.24933623;-0.621601;;;;;300.9
452.0;403.2;;;;;;;;;;;;;;;;;0.51118505;-47.01758;-96.55293;;300.9
452.0;403.2;;;;;;;;;;;;;;1.0703452;0.28516495;-0.64693135;;;;;300.9
452.0;403.2;;;;;;;;;;;;;;;;;-2.5330362;-44.248024;-108.99686;;310.3
452.0;403.2;;;;;;;;;;;;;;1.0523392;0.30359814;-0.63106173;;;;;310.3
452.0;403.2;;;;;;;;;;;;;;;;;-9.754478;-40.22721;-120.15137;;310.3
452.0;403.2;;;;;;;;;;;;;;1.0270089;0.32441175;-0.5746025;;;;;310.3
511.0;404.0;;;;;;;;;;;;;;;;;-19.295328;-36.393322;-124.87029;;320.0
511.0;404.0;;;;;;;;;;;;;;0.9655446;0.3546861;-0.5173498;;;;;320.0
511.0;404.0;;;;;;;;;;;;;;;;;-28.576769;-33.642845;-124.988556;;320.0
511.0;404.0;;;;;;;;;;;;;;0.8913846;0.4231086;-0.44538713;;;;;320.0
511.0;404.0;;;;;;;;;;;;;;;;;-38.762325;-33.700066;-124.988556;;329.7
511.0;404.0;;;;;;;;;;;;;;0.87624747;0.49806207;-0.37653738;;;;;329.7
511.0;404.0;;;;;;;;;;;;;;;;;-46.983246;-36.175877;-124.988556;;329.7
511.0;404.0;;;;;;;;;;;;;;0.9378338;0.53761405;-0.33051544;;;;;329.7
511.0;404.0;;;;;;;;;;;;;;;;;-49.047062;-34.455395;-124.988556;;339.4
511.0;404.0;;;;;;;;;;;;;;1.0177923;0.52375865;-0.2569048;;;;;339.4
511.0;404.0;;;;;;;;;;;;;;;;;-46.983246;-28.389843;-124.988556;;339.4
511.0;404.0;;;;;;;;;;;;;;1.1226538;0.5128941;-0.18933684;;;;;339.4
511.0;456.8;;;;;;;;;;;;;;;;;-40.566727;-20.950956;-124.988556;;349.0
511.0;456.8;;;;;;;;;;;;;;1.2508926;0.47279274;-0.135197;;;;;349.0
511.0;456.8;;;;;;;;;;;;;;;;;-33.394882;-9.063997;-124.988556;;349.0
511.0;456.8;;;;;;;;;;;;;;1.450972;0.42829677;-0.01739555;;;;;349.0
511.0;456.8;;;;;;;;;;;;;;;;;-28.866695;3.7690358;-124.988556;;358.7
511.0;456.8;;;;;;;;;;;;;;1.6853541;0.308298;0.06921598;;;;;358.7
511.0;456.8;;;;;;;;;;;;;;;;;-28.210546;20.168919;-124.988556;;358.7
511.0;456.8;;;;;;;;;;;;;;1.8886074;0.07885983;0.06372265;;;;;358.7
511.0;456.8;;;;;;;;;;;;;;;;;-32.87225;39.17432;-124.988556;;368.3
511.0;456.8;;;;;;;;;;;;;;1.9954833;-0.15472884;0.06164739;;;;;368.3
511.0;456.8;;;;;;;;;;;;;;;;;-39.08658;46.109653;-124.988556;;368.3
511.0;456.8;;;;;;;;;;;;;;1.996765;-0.42280343;-0.05719169;;;;;368.3
572.0;458.8;;;;;;;;;;;;;;;;;-43.557545;39.670246;-124.91608;;377.9
572.0;458.8;;;;;;;;;;;;;;1.996765;-0.69954526;-0.21497238;;;;;377.9
572.0;458.8;;;;;;;;;;;;;;;;;-47.803432;20.096437;-116.38997;;377.9
572.0;458.8;;;;;;;;;;;;;;1.9955443;-1.0447096;-0.46113467;;;;;377.9
572.0;458.8;;;;;;;;;;;;;;;;;-52.26676;-1.1825923;-93.092896;;387.6
572.0;458.8;;;;;;;;;;;;;;1.9229102;-1.2189703;-0.5874813;;;;;387.6
572.0;458.8;;;;;;;;;;;;;;;;;-67.625206;-25.238808;-65.92761;;387.6
572.0;458.8;;;;;;;;;;;;;;1.7231361;-1.4076357;-0.74257636;;;;;387.6
572.0;458.8;;;;;;;;;;;;;;;;;-75.70498;-45.09491;-55.948055;;397.3
572.0;458.8;;;;;;;;;;;;;;1.5089571;-1.4479202;-0.8728904;;;;;397.3
572.0;458.8;;;;;;;;;;;;;;;;;-88.248085;-48.089542;-60.45335;;397.3
572.0;458.8;;;;;;;;;;;;;;1.2674947;-1.4587237;-0.89272743;;;;;397.3
572.0;516.6;;;;;;;;;;;;;;;;;-100.18082;-37.87347;-87.332535;;406.9
572.0;516.6;;;;;;;;;;;;;;1.0560625;-1.320658;-0.81258583;;;;;406.9
572.0;516.6;;;;;;;;;;;;;;;;;-111.87322;-30.041656;-120.918144;;406.9
572.0;516.6;;;;;;;;;;;;;;1.2054812;-0.7499008;-0.585284;;;;;406.9
572.0;516.6;;;;;;;;;;;;;;;;;-118.30501;-42.394024;-124.95422;;416.5
572.0;516.6;;;;;;;;;;;;;;1.3517869;-0.5100253;-0.53761405;;;;;416.5
572.0;516.6;;;;;;;;;;;;;;;;;-118.27067;-55.772575;-124.988556;;416.5
572.0;516.6;;;;;;;;;;;;;;1.3758965;-0.3772698;-0.52919096;;;;;416.5
572.0;516.6;;;;;;;;;;;;;;;;;-108.13471;-67.777794;-124.988556;;426.2
572.0;516.6;;;;;;;;;;;;;;1.4052553;-0.25745416;-0.51747185;;;;;426.2
572.0;516.6;;;;;;;;;;;;;;;;;-92.12012;-73.30546;-124.988556;;426.2
572.0;516.6;;;;;;;;;;;;;;1.465926;-0.20563371;-0.5274209;;;;;426.2
630.0;523.8;;;;;;;;;;;;;;;;;-63.42891;-68.42631;-124.988556;;435.8
630.0;523.8;;;;;;;;;;;;;;1.5535753;-0.18073061;-0.51301616;;;;;435.8
630.0;523.8;;;;;;;;;;;;;;;;;-26.387066;-55.27665;-124.988556;;435.8
630.0;523.8;;;;;;;;;;;;;;1.449202;-0.4080935;-0.40681174;;;;;435.8
630.0;523.8;;;;;;;;;;;;;;;;;1.3885921;-45.88458;-124.5117;;445.5
630.0;523.8;;;;;;;;;;;;;;1.370159;-0.55604726;-0.32361826;;;;;445.5
630.0;523.8;;;;;;;;;;;;;;;;;14.446699;-38.193916;-122.60048;;445.5
630.0;523.8;;;;;;;;;;;;;;1.3162023;-0.6659749;-0.2959685;;;;;445.5
630.0;523.8;;;;;;;;;;;;;;;;;13.363293;-32.048252;-124.691;;455.1
630.0;523.8;;;;;;;;;;;;;;1.2603534;-0.56031984;-0.21802424;;;;;455.1
630.0;523.8;;;;;;;;;;;;;;;;;0.82018495;-38.876766;-124.05774;;455.1
630.0;523.8;;;;;;;;;;;;;;1.2340465;-0.43800166;-0.23853268;;;;;455.1
630.0;531.3;;;;;;;;;;;;;;;;;-9.662924;-43.698692;-115.787224;;464.8
630.0;531.3;;;;;;;;;;;;;;1.1249123;-0.45124668;-0.29584643;;;;;464.8
630.0;531.3;;;;;;;;;;;;;;;;;-13.973662;-35.184025;-108.20338;;464.8
630.0;531.3;;;;;;;;;;;;;;1.00235;-0.44294566;-0.26416823;;;;;464.8
630.0;531.3;;;;;;;;;;;;;;;;;-22.640919;-24.624622;-105.57497;;474.4
630.0;531.3;;;;;;;;;;;;;;0.9558397;-0.29883724;-0.16132084;;;;;474.4
630.0;531.3;;;;;;;;;;;;;;;;;-35.897396;-26.371807;-105.975525;;474.4
630.0;531.3;;;;;;;;;;;;;;0.90017396;-0.18207343;-0.1652272;;;;;474.4
630.0;531.3;;;;;;;;;;;;;;;;;-43.122654;-32.81503;-102.202675;;484.0
630.0;531.3;;;;;;;;;;;;;;0.85439616;-0.08685568;-0.14990692;;;;;484.0
630.0;531.3;;;;;;;;;;;;;;;;;-51.110874;-39.29258;-96.78564;;484.0
630.0;531.3;;;;;;;;;;;;;;0.9139683;-0.068300426;-0.23206274;;;;;484.0
691.0;576.7;;;;;;;;;;;;;;;;;-60.52202;-13.599812;-88.6143;;493.7
691.0;576.7;;;;;;;;;;;;;;0.9149449;-0.13660085;-0.18060854;;;;;493.7
691.0;576.7;;;;;;;;;;;;;;;;;-75.62487;18.456068;-84.94064;;493.7
691.0;576.7;;;;;;;;;;;;;;0.819422;-0.16266365;0.015991699;;;;;493.7
691.0;576.7;;;;;;;;;;;;;;;;;-94.52345;19.512772;-80.23316;;503.2
691.0;576.7;;;;;;;;;;;;;;0.7116306;-0.19531846;0.047425766;;;;;503.2
691.0;576.7;;;;;;;;;;;;;;;;;-102.97708;8.571886;-77.32628;;503.2
691.0;576.7;;;;;;;;;;;;;;0.66451;-0.16827907;0.0045167394;;;;;503.2
691.0;576.7;;;;;;;;;;;;;;;;;-104.075745;3.5859249;-72.79809;;512.9
691.0;576.7;;;;;;;;;;;;;;0.65913874;-0.16254158;-0.05468917;;;;;512.9
691.0;576.7;;;;;;;;;;;;;;;;;-103.846855;9.994812;-67.74728;;512.9
691.0;576.7;;;;;;;;;;;;;;0.67146826;-0.1805475;-0.059450056;;;;;512.9
691.0;592.4;;;;;;;;;;;;;;;;;-104.11771;20.405437;-62.64306;;522.6
691.0;592.4;;;;;;;;;;;;;;0.65810114;-0.23493148;-0.021790216;;;;;522.6
691.0;592.4;;;;;;;;;;;;;;;;;-104.60982;26.871548;-59.091465;;522.6
691.0;592.4;;;;;;;;;;;;;;0.59401226;-0.23834956;0.013122959;;;;;522.6
691.0;592.4;;;;;;;;;;;;;;;;;-107.02841;28.000732;-56.257057;;532.2
691.0;592.4;;;;;;;;;;;;;;0.5106357;-0.22235785;0.03784295;;;;;532.2
691.0;592.4;;;;;;;;;;;;;;;;;-110.156555;25.669882;-53.407394;;532.2
691.0;592.4;;;;;;;;;;;;;;0.44959867;-0.20954008;0.02130192;;;;;532.2
691.0;592.4;;;;;;;;;;;;;;;;;-110.4007;24.922176;-50.256355;;541.9
691.0;592.4;;;;;;;;;;;;;;0.408887;-0.22113712;-0.015808588;;;;;541.9
691.0;592.4;;;;;;;;;;;;;;;;;-107.310715;26.161993;-45.838802;;541.9
691.0;592.4;;;;;;;;;;;;;;0.37153232;-0.25580615;-0.050111394;;;;;541.9
752.0;636.9;;;;;;;;;;;;;;;;;-103.953674;27.996918;-43.03873;;551.3
752.0;636.9;;;;;;;;;;;;;;0.37421796;-0.26819667;-0.093935974;;;;;551.3
752.0;636.9;;;;;;;;;;;;;;;;;-99.62004;31.804104;-38.804287;;551.3
752.0;636.9;;;;;;;;;;;;;;0.3091525;-0.33039337;-0.117313154;;;;;551.3
752.0;636.9;;;;;;;;;;;;;;;;;-91.521194;25.719473;-35.91647;;560.9
752.0;636.9;;;;;;;;;;;;;;0.18738365;-0.33429974;-0.05267495;;;;;560.9
752.0;636.9;;;;;;;;;;;;;;;;;-85.53194;12.691885;-31.983398;;560.9
752.0;636.9;;;;;;;;;;;;;;0.16376232;-0.38093203;-0.14191107;;;;;560.9
752.0;636.9;;;;;;;;;;;;;;;;;-77.96716;6.9505906;-27.329327;;570.6
752.0;636.9;;;;;;;;;;;;;;0.15717033;-0.42335278;-0.18317209;;;;;570.6
752.0;636.9;;;;;;;;;;;;;;;;;-69.784386;3.89111;-22.141178;;570.6
752.0;636.9;;;;;;;;;;;;;;0.156621;-0.46436965;-0.17688528;;;;;570.6
752.0;651.9;;;;;;;;;;;;;;;;;-60.52202;0.77822196;-17.242958;;580.3
752.0;651.9;;;;;;;;;;;;;;0.15454574;-0.47791985;-0.15826899;;;;;580.3
752.0;651.9;;;;;;;;;;;;;;;;;-51.236763;-1.8082217;-11.88696;;580.3
752.0;651.9;;;;;;;;;;;;;;0.1507004;-0.48860133;-0.13483077;;;;;580.3
752.0;651.9;;;;;;;;;;;;;;;;;-42.844173;-4.1238136;-6.3173313;;589.9
752.0;651.9;;;;;;;;;;;;;;0.14850307;-0.50691247;-0.11346782;;;;;589.9
752.0;651.9;;;;;;;;;;;;;;;;;-34.882656;-7.2367015;-0.8354442;;589.9
752.0;651.9;;;;;;;;;;;;;;0.120548114;-0.5109409;-0.08832057;;;;;589.9
752.0;651.9;;;;;;;;;;;;;;;;;-27.043215;-12.726218;4.947813;;599.6
752.0;651.9;;;;;;;;;;;;;;0.123538926;-0.46522415;-0.089358196;;;;;599.6
752.0;651.9;;;;;;;;;;;;;;;;;-19.215218;-19.680622;11.852626;;599.6
752.0;651.9;;;;;;;;;;;;;;0.14844203;-0.45893735;-0.10504471;;;;;599.6
810.0;697.1;;;;;;;;;;;;;;;;;-9.609516;-25.009918;18.280588;;609.2
810.0;697.1;;;;;;;;;;;;;;0.18274483;-0.456679;-0.119327374;;;;;609.2
810.0;697.1;;;;;;;;;;;;;;;;;1.2054812;-26.829586;24.029512;;609.2
810.0;697.1;;;;;;;;;;;;;;0.20569475;-0.4801172;-0.13690603;;;;;609.2
810.0;697.1;;;;;;;;;;;;;;;;;12.348553;-25.410473;30.28962;;618.9
810.0;697.1;;;;;;;;;;;;;;0.22510453;-0.4860378;-0.12652974;;;;;618.9
810.0;697.1;;;;;;;;;;;;;;;;;21.164587;-23.377178;37.12958;;618.9
810.0;697.1;;;;;;;;;;;;;;0.27216408;-0.47541735;-0.10925627;;;;;618.9
810.0;697.1;;;;;;;;;;;;;;;;;26.287882;-18.64681;44.3968;;628.6
810.0;697.1;;;;;;;;;;;;;;0.33283487;-0.4586932;-0.06714072;;;;;628.6
810.0;697.1;;;;;;;;;;;;;;;;;28.027435;-9.708701;50.592056;;628.6
810.0;697.1;;;;;;;;;;;;;;0.38819546;-0.42603838;-0.0080568865;;;;;628.6
810.0;712.4;;;;;;;;;;;;;;;;;27.123325;1.0147405;56.566055;;638.2
810.0;712.4;;;;;;;;;;;;;;0.43836787;-0.38642538;0.065187536;;;;;638.2
810.0;712.4;;;;;;;;;;;;;;;;;22.11066;8.114109;63.05887;;638.2
810.0;712.4;;;;;;;;;;;;;;0.54414505;-0.3164159;0.08844264;;;;;638.2
810.0;712.4;;;;;;;;;;;;;;;;;19.486069;14.866329;68.09442;;647.8
810.0;712.4;;;;;;;;;;;;;;0.7256081;-0.18939787;0.060487688;;;;;647.8
810.0;712.4;;;;;;;;;;;;;;;;;17.754143;31.117435;69.80346;;647.8
810.0;712.4;;;;;;;;;;;;;;0.9352092;-0.0110477;0.002929777;;;;;647.8
810.0;712.4;;;;;;;;;;;;;;;;;15.503403;60.56398;68.464455;;657.4
810.0;712.4;;;;;;;;;;;;;;1.149266;0.17450483;-0.020569475;;;;;657.4
810.0;712.4;;;;;;;;;;;;;;;;;13.222144;98.593864;64.218575;;657.4
810.0;712.4;;;;;;;;;;;;;;1.3509934;0.36152226;0.021362957;;;;;657.4
870.0;757.2;;;;;;;;;;;;;;;;;14.965514;123.39396;44.381542;;667.0
870.0;757.2;;;;;;;;;;;;;;1.4618976;0.62874234;0.068666644;;;;;667.0
870.0;757.2;;;;;;;;;;;;;;;;;28.534807;124.52696;14.179663;;667.0
870.0;757.2;;;;;;;;;;;;;;1.4602497;0.9501022;-0.055787835;;;;;667.0
870.0;757.2;;;;;;;;;;;;;;;;;44.511246;106.20823;-20.924253;;676.6
870.0;757.2;;;;;;;;;;;;;;1.4731284;1.2379528;-0.42823574;;;;;676.6
870.0;757.2;;;;;;;;;;;;;;;;;83.075195;44.34339;-58.679466;;676.6
870.0;757.2;;;;;;;;;;;;;;1.5211035;1.3721122;-1.0083315;;;;;676.6
870.0;757.2;;;;;;;;;;;;;;;;;120.475624;-19.35255;-99.53612;;686.3
870.0;757.2;;;;;;;;;;;;;;1.6417737;1.8474685;-1.358623;;;;;686.3
870.0;757.2;;;;;;;;;;;;;;;;;114.45204;-56.0625;-115.25315;;686.3
870.0;757.2;;;;;;;;;;;;;;1.7466353;1.9971923;-1.7238685;;;;;686.3
870.0;764.6;;;;;;;;;;;;;;;;;100.352486;-66.49602;-117.465744;;695.8
870.0;764.6;;;;;;;;;;;;;;1.9101535;1.9979857;-1.7705008;;;;;695.8
870.0;764.6;;;;;;;;;;;;;;;;;77.69631;-49.36369;-81.7629;;695.8
870.0;764.6;;;;;;;;;;;;;;1.9921262;1.9918821;-1.3247474;;;;;695.8
870.0;764.6;;;;;;;;;;;;;;;;;13.191626;-33.124027;-28.710287;;705.4
870.0;764.6;;;;;;;;;;;;;;1.8182317;1.0903043;-1.0746177;;;;;705.4
870.0;764.6;;;;;;;;;;;;;;;;;-36.427654;-19.379255;-25.536362;;705.4
870.0;764.6;;;;;;;;;;;;;;1.6984161;0.80886257;-0.8328501;;;;;705.4
870.0;764.6;;;;;;;;;;;;;;;;;-78.081604;-6.7026277;-24.941252;;715.1
870.0;764.6;;;;;;;;;;;;;;1.46263;0.6341136;-0.6805017;;;;;715.1
870.0;764.6;;;;;;;;;;;;;;;;;-101.2833;0.94225895;-21.210365;;715.1
870.0;764.6;;;;;;;;;;;;;;1.1893063;0.436964;-0.55769527;;;;;715.1
931.0;817.3;;;;;;;;;;;;;;;;;-108.52764;-0.3929258;-20.867031;;724.8
931.0;817.3;;;;;;;;;;;;;;0.9241615;0.30219427;-0.50611895;;;;;724.8
931.0;817.3;;;;;;;;;;;;;;;;;-104.625084;-11.635181;-21.450697;;724.8
931.0;817.3;;;;;;;;;;;;;;0.69734794;0.1911069;-0.5178991;;;;;724.8
931.0;817.3;;;;;;;;;;;;;;;;;-94.29838;-24.777214;-21.538439;;734.4
931.0;817.3;;;;;;;;;;;;;;0.570513;0.11114841;-0.4875637;;;;;734.4
931.0;817.3;;;;;;;;;;;;;;;;;-85.20005;-31.723991;-18.147068;;734.4
931.0;817.3;;;;;;;;;;;;;;0.51619005;0.014893033;-0.3515122;;;;;734.4
931.0;817.3;;;;;;;;;;;;;;;;;-76.56332;-39.712208;-12.0548115;;744.0
931.0;817.3;;;;;;;;;;;;;;0.46723837;-0.14148381;-0.17590868;;;;;744.0
931.0;817.3;;;;;;;;;;;;;;;;;-64.67635;-54.296246;-5.3369246;;744.0
931.0;817.3;;;;;;;;;;;;;;0.47791985;-0.28193;-0.084902495;;;;;744.0
931.0;824.8;;;;;;;;;;;;;;;;;-51.06891;-67.1865;5.218665;;753.6
931.0;824.8;;;;;;;;;;;;;;0.6587725;-0.4395886;-0.08520768;;;;;753.6
931.0;824.8;;;;;;;;;;;;;;;;;-36.744286;-65.595726;16.987364;;753.6
931.0;824.8;;;;;;;;;;;;;;0.9460738;-0.49751273;-0.085329756;;;;;753.6
931.0;824.8;;;;;;;;;;;;;;;;;-29.961546;-54.486984;26.917326;;763.3
931.0;824.8;;;;;;;;;;;;;;1.2139043;-0.440199;-0.13306071;;;;;763.3
931.0;824.8;;;;;;;;;;;;;;;;;-21.240883;-53.590504;40.19669;;763.3
931.0;824.8;;;;;;;;;;;;;;1.4042176;-0.44013795;-0.30976287;;;;;763.3
931.0;824.8;;;;;;;;;;;;;;;;;-8.041628;-68.08679;52.51854;;772.9
931.0;824.8;;;;;;;;;;;;;;1.5198218;-0.39362773;-0.44654682;;;;;772.9
931.0;824.8;;;;;;;;;;;;;;;;;-15.926847;-74.007385;63.520462;;772.9
931.0;824.8;;;;;;;;;;;;;;1.568041;-0.39197972;-0.40198982;;;;;772.9
992.0;878.0;;;;;;;;;;;;;;;;;-46.11347;-46.49495;73.107086;;782.6
992.0;878.0;;;;;;;;;;;;;;1.5196997;-0.4549089;-0.14539018;;;;;782.6
992.0;878.0;;;;;;;;;;;;;;;;;-76.67776;-9.445479;75.39598;;782.6
992.0;878.0;;;;;;;;;;;;;;1.4227118;-0.52558976;0.15009002;;;;;782.6
992.0;878.0;;;;;;;;;;;;;;;;;-88.51131;6.572924;66.35487;;792.1
992.0;878.0;;;;;;;;;;;;;;1.4562212;-0.5323649;0.2858974;;;;;792.1
992.0;878.0;;;;;;;;;;;;;;;;;-54.132206;-11.722922;45.3238;;792.1
992.0;878.0;;;;;;;;;;;;;;1.643849;-0.27680287;0.1976989;;;;;792.1
992.0;878.0;;;;;;;;;;;;;;;;;5.0241094;-49.130985;20.886105;;801.8
992.0;878.0;;;;;;;;;;;;;;1.780755;0.080446795;-0.30640584;;;;;801.8
992.0;878.0;;;;;;;;;;;;;;;;;52.60628;-56.821648;1.9646292;;801.8
992.0;878.0;;;;;;;;;;;;;;1.7811823;0.35023043;-0.591876;;;;;801.8
992.0;885.0;;;;;;;;;;;;;;;;;62.20054;-42.401653;-8.602405;;811.4
992.0;885.0;;;;;;;;;;;;;;1.6745507;0.5318155;-0.3937498;;;;;811.4
992.0;885.0;;;;;;;;;;;;;;;;;45.575577;-40.86047;-10.235145;;811.4
992.0;885.0;;;;;;;;;;;;;;1.607471;0.5240028;-0.16870633;;;;;811.4
992.0;885.0;;;;;;;;;;;;;;;;;21.549883;-44.53032;-15.148624;;821.1
992.0;885.0;;;;;;;;;;;;;;1.564562;0.49073765;-0.10077212;;;;;821.1
992.0;885.0;;;;;;;;;;;;;;;;;-11.455885;-26.61977;-12.909329;;821.1
992.0;885.0;;;;;;;;;;;;;;1.4210639;0.23993652;-0.108401746;;;;;821.1
992.0;885.0;;;;;;;;;;;;;;;;;-44.25184;17.887661;-3.2692955;;830.8
992.0;885.0;;;;;;;;;;;;;;1.1398664;-0.08471938;0.039063692;;;;;830.8
992.0;885.0;;;;;;;;;;;;;;;;;-61.044647;41.135136;9.254738;;830.8
992.0;885.0;;;;;;;;;;;;;;0.87490463;-0.31781974;0.09796441;;;;;830.8
1052.0;937.9;;;;;;;;;;;;;;;;;-62.90628;43.89325;18.070772;;840.4
1052.0;937.9;;;;;;;;;;;;;;0.7356182;-0.42500076;0.05719169;;;;;840.4
1052.0;937.9;;;;;;;;;;;;;;;;;-61.922054;44.53795;28.25251;;840.4
1052.0;937.9;;;;;;;;;;;;;;0.65718555;-0.5109409;0.0380871;;;;;840.4
1052.0;937.9;;;;;;;;;;;;;;;;;-49.703205;40.421764;46.514023;;849.9
1052.0;937.9;;;;;;;;;;;;;;0.6367992;-0.62105167;0.016235847;;;;;849.9
1052.0;937.9;;;;;;;;;;;;;;;;;-29.721214;23.13303;72.73705;;849.9
1052.0;937.9;;;;;;;;;;;;;;0.6092105;-0.68678856;-0.04199347;;;;;849.9
1052.0;937.9;;;;;;;;;;;;;;;;;-4.562517;-27.283548;105.43001;;859.5
1052.0;937.9;;;;;;;;;;;;;;0.54139835;-0.79250467;-0.2580645;;;;;859.5
1052.0;937.9;;;;;;;;;;;;;;;;;38.44188;-103.51878;123.764;;859.5
1052.0;937.9;;;;;;;;;;;;;;0.5182653;-0.9472335;-0.71016574;;;;;859.5
1052.0;938.6;;;;;;;;;;;;;;;;;99.87182;-124.988556;124.988556;;869.2
1052.0;938.6;;;;;;;;;;;;;;0.5645924;-1.2273934;-1.2092655;;;;;869.2
1052.0;938.6;;;;;;;;;;;;;;;;;123.84411;-124.938965;124.988556;;869.2
1052.0;938.6;;;;;;;;;;;;;;0.6790979;-1.302652;-1.38493;;;;;869.2
1052.0;938.6;;;;;;;;;;;;;;;;;105.07904;-105.639824;124.988556;;878.7
1052.0;938.6;;;;;;;;;;;;;;0.7538682;-1.3906064;-1.3313395;;;;;878.7
1052.0;938.6;;;;;;;;;;;;;;;;;69.1702;-27.321697;124.988556;;878.7
1052.0;938.6;;;;;;;;;;;;;;0.7431257;-1.3431807;-0.8242439;;;;;878.7
1052.0;938.6;;;;;;;;;;;;;;;;;37.930695;29.072695;124.988556;;888.4
1052.0;938.6;;;;;;;;;;;;;;0.81789607;-1.1141697;-0.3899655;;;;;888.4
1052.0;938.6;;;;;;;;;;;;;;;;;27.661213;38.850063;123.72967;;888.4
1052.0;938.6;;;;;;;;;;;;;;0.9419843;-1.053438;0.016235847;;;;;888.4
1170.0;998.4;;;;;;;;;;;;;;;;;52.26676;7.312998;100.56612;;897.9
1170.0;998.4;;;;;;;;;;;;;;1.1252174;-0.8636738;0.070314646;;;;;897.9
1170.0;998.4;;;;;;;;;;;;;;;;;71.993164;-25.345621;71.45146;;897.9
1170.0;998.4;;;;;;;;;;;;;;1.2046266;-0.54194766;-0.13171789;;;;;897.9
1170.0;998.4;;;;;;;;;;;;;;;;;65.240944;-41.87521;62.604904;;907.6
1170.0;998.4;;;;;;;;;;;;;;1.1769158;-0.44819483;-0.3945433;;;;;907.6
1170.0;998.4;;;;;;;;;;;;;;;;;60.258797;-46.102024;53.76217;;907.6
1170.0;998.4;;;;;;;;;;;;;;1.1726432;-0.357799;-0.6841639;;;;;907.6
1170.0;998.4;;;;;;;;;;;;;;;;;66.175575;-27.249214;46.27369;;917.1
1170.0;998.4;;;;;;;;;;;;;;1.1532944;-0.19580676;-0.8448134;;;;;917.1
1170.0;998.4;;;;;;;;;;;;;;;;;71.12338;3.1205175;40.34547;;917.1
1170.0;998.4;;;;;;;;;;;;;;1.0831629;-0.07586902;-0.81801814;;;;;917.1
1170.0;999.2;;;;;;;;;;;;;;;;;77.73827;19.512772;24.960325;;926.7
1170.0;999.2;;;;;;;;;;;;;;1.0000305;-0.07605213;-0.71053195;;;;;926.7
1170.0;999.2;;;;;;;;;;;;;;;;;103.19071;15.301217;8.560442;;926.7
1170.0;999.2;;;;;;;;;;;;;;0.9718925;-0.023499252;-0.603412;;;;;926.7
1170.0;999.2;;;;;;;;;;;;;;;;;109.48897;7.9996643;3.8987396;;936.4
1170.0;999.2;;;;;;;;;;;;;;0.9538865;0.1098056;-0.4720603;;;;;936.4
1170.0;999.2;;;;;;;;;;;;;;;;;80.50783;4.4900355;14.042329;;936.4
1170.0;999.2;;;;;;;;;;;;;;0.9146397;0.14874722;-0.44917142;;;;;936.4
1170.0;999.2;;;;;;;;;;;;;;;;;56.40965;-1.6518143;31.51799;;945.9
1170.0;999.2;;;;;;;;;;;;;;0.88399917;0.1556444;-0.4242683;;;;;945.9
1170.0;999.2;;;;;;;;;;;;;;;;;36.912136;-2.8305917;51.03839;;945.9
1170.0;999.2;;;;;;;;;;;;;;0.89724416;0.19141209;-0.34730065;;;;;945.9
1172.0;1118.9;;;;;;;;;;;;;;;;;18.898588;4.482406;74.02646;;955.5
1172.0;1118.9;;;;;;;;;;;;;;0.878811;0.13080233;-0.26178777;;;;;955.5
1172.0;1118.9;;;;;;;;;;;;;;;;;15.095218;10.799738;89.07208;;955.5
1172.0;1118.9;;;;;;;;;;;;;;0.80306405;-0.027283547;-0.1981872;;;;;955.5
1172.0;1118.9;;;;;;;;;;;;;;;;;16.693626;11.825923;88.133644;;965.2
1172.0;1118.9;;;;;;;;;;;;;;0.7960448;-0.10577715;-0.2664266;;;;;965.2
1172.0;1118.9;;;;;;;;;;;;;;;;;20.611439;17.582476;83.98312;;965.2
1172.0;1118.9;;;;;;;;;;;;;;0.7743156;-0.14026307;-0.35914183;;;;;965.2
1172.0;1118.9;;;;;;;;;;;;;;;;;28.7904;26.802881;82.159645;;974.8
1172.0;1118.9;;;;;;;;;;;;;;0.7245094;-0.20307016;-0.3856319;;;;;974.8
1172.0;1118.9;;;;;;;;;;;;;;;;;35.889767;35.832546;79.744865;;974.8
1172.0;1118.9;;;;;;;;;;;;;;0.6751915;-0.24939726;-0.37134922;;;;;974.8
1173.0;1119.6;;;;;;;;;;;;;;;;;41.047394;40.215763;75.93005;;984.5
1173.0;1119.6;;;;;;;;;;;;;;0.63954586;-0.25782037;-0.3607898;;;;;984.5
1173.0;1119.6;;;;;;;;;;;;;;;;;42.75643;38.995026;73.5229;;984.5
1173.0;1119.6;;;;;;;;;;;;;;0.6173284;-0.2600177;-0.37598804;;;;;984.5
1173.0;1119.6;;;;;;;;;;;;;;;;;43.4431;33.062992;73.9845;;994.1
1173.0;1119.6;;;;;;;;;;;;;;0.6125065;-0.2946257;-0.39924315;;;;;994.1
1173.0;1119.6;;;;;;;;;;;;;;;;;45.567947;25.570696;76.63198;;994.1
1173.0;1119.6;;;;;;;;;;;;;;0.6214179;-0.34229562;-0.40156254;;;;;994.1
1173.0;1119.6;;;;;;;;;;;;;;;;;51.198612;14.469588;84.61257;;1003.7
1173.0;1119.6;;;;;;;;;;;;;;0.631489;-0.45240638;-0.43336284;;;;;1003.7
1173.0;1119.6;;;;;;;;;;;;;;;;;57.313763;12.215034;88.35109;;1003.7
1173.0;1119.6;;;;;;;;;;;;;;0.62733847;-0.49409467;-0.39429915;;;;;1003.7
1173.0;1120.5;;;;;;;;;;;;;;;;;54.822685;13.855403;83.65505;;1013.3
1173.0;1120.5;;;;;;;;;;;;;;0.6753746;-0.3902707;-0.3745842;;;;;1013.3
1173.0;1120.5;;;;;;;;;;;;;;;;;52.880947;14.545885;81.54927;;1013.3
1173.0;1120.5;;;;;;;;;;;;;;0.7013764;-0.29682302;-0.3467513;;;;;1013.3
1173.0;1120.5;;;;;;;;;;;;;;;;;53.193764;16.796625;79.515976;;1023.0
1173.0;1120.5;;;;;;;;;;;;;;0.7347026;-0.26899013;-0.34449294;;;;;1023.0
1173.0;1120.5;;;;;;;;;;;;;;;;;57.039093;23.77392;76.364944;;1023.0
1173.0;1120.5;;;;;;;;;;;;;;0.7581408;-0.23682363;-0.3172094;;;;;1023.0
1173.0;1120.5;;;;;;;;;;;;;;;;;59.465317;27.34077;73.507645;;1032.6
1173.0;1120.5;;;;;;;;;;;;;;0.80556655;-0.23175757;-0.31495103;;;;;1032.6
1173.0;1120.5;;;;;;;;;;;;;;;;;62.80709;29.198584;71.13483;;1032.6
1173.0;1120.5;;;;;;;;;;;;;;0.8230842;-0.16925566;-0.3136082;;;;;1032.6
1177.0;1121.7;;;;;;;;;;;;;;;;;64.07742;32.09403;69.02142;;1042.2
1177.0;1121.7;;;;;;;;;;;;;;0.799707;-0.14007996;-0.2927946;;;;;1042.2
1177.0;1121.7;;;;;;;;;;;;;;;;;64.75646;32.0864;68.613235;;1042.2
1177.0;1121.7;;;;;;;;;;;;;;0.77163;-0.156621;-0.26850185;;;;;1042.2
1177.0;1121.7;;;;;;;;;;;;;;;;;65.51561;29.721214;65.43169;;1051.9
1177.0;1121.7;;;;;;;;;;;;;;0.7783441;-0.0733665;-0.28315073;;;;;1051.9
1177.0;1121.7;;;;;;;;;;;;;;;;;64.325386;27.085178;64.15754;;1051.9
1177.0;1121.7;;;;;;;;;;;;;;0.7735832;-0.0474868;-0.3300882;;;;;1051.9
1177.0;1121.7;;;;;;;;;;;;;;;;;63.432724;27.62688;64.512314;;1061.5
1177.0;1121.7;;;;;;;;;;;;;;0.7718131;-0.041016877;-0.31910154;;;;;1061.5
1177.0;1121.7;;;;;;;;;;;;;;;;;60.815758;27.615435;63.83709;;1061.5
1177.0;1121.7;;;;;;;;;;;;;;0.7711417;-0.024292734;-0.31629384;;;;;1061.5
1177.0;1126.9;;;;0.0;0.0;0.0;;;;;;;;;;;;;;;
1177.0;1126.9;;;;-0.16301347;0.05761338;-0.072284706;;;;;;;;;;;;;;;
1177.0;1126.9;;;;-0.48413092;0.0768776;-0.32318118;;;;;;;;;;;;;;;
1177.0;1126.9;;;;-0.49700934;0.07083131;-0.34725574;;;;;;;;;;;;;;;
1177.0;1126.9;;;;-0.49840552;0.071048744;-0.35131457;;;;;;;;;;;;;;;
1177.0;1136.9;;;;-0.4991532;0.071041115;-0.3551903;;;;;;;;;;;;;;;
1177.0;1136.9;;;;-0.49948126;0.07094193;-0.35915378;;;;;;;;;;;;;;;
1177.0;1136.9;;;;-0.49980932;0.070861824;-0.36414722;;;;;;;;;;;;;;;
1177.0;1136.9;;;;-0.50116354;0.07140351;-0.3683205;;;;;;;;;;;;;;;
1177.0;1136.9;;;;-0.5029488;0.07167054;-0.37298205;;;;;;;;;;;;;;;
1230.0;1138.1;57457;57466;11263;;;;;;;;;;;;;;;;;;
1230.0;1146.8;;;;-0.5050202;0.07295609;-0.37903982;;;;;;;;;;;;;;;
1230.0;1146.8;;;;-0.50752264;0.074428566;-0.38608176;;;;;;;;;;;;;;;
1230.0;1146.8;;;;-0.50942236;0.07567216;-0.39508063;;;;;;;;;;;;;;;
1230.0;1146.8;;;;-0.51180655;0.07724763;-0.40342337;;;;;;;;;;;;;;;
1230.0;1146.8;;;;-0.5134507;0.07834626;-0.40998083;;;;;;;;;;;;;;;
1230.0;1156.8;;;;-0.5166283;0.07951737;-0.41580588;;;;;;;;;;;;;;;
1230.0;1156.8;;;;-0.52067953;0.08073426;-0.4220429;;;;;;;;;;;;;;;
1230.0;1156.8;;;;-0.52678305;0.08153916;-0.42758948;;;;;;;;;;;;;;;
1230.0;1156.8;;;;-0.53425604;0.08232499;-0.43394476;;;;;;;;;;;;;;;
1230.0;1156.8;;;;-0.54240805;0.08296586;-0.4397927;;;;;;;;;;;;;;;
1230.0;1158.1;73863;73800;11244;;;;;;;;;;;;;;;;;;
1230.0;1164.2;;;;;;;;;;;;;0;;;;;;;;
1230.0;1164.2;;;;;;;;;;;;;0;;;;;;;;
1230.0;1164.2;;;;;;;;;;;;;-1;;;;;;;;
1230.0;1164.2;;;;;;;;;;;;;-2;;;;;;;;
1230.0;1164.2;;;;;;;;;;;;;-4;;;;;;;;
1230.0;1166.9;;;;-0.5502091;0.08379746;-0.4449311;;;;;;;;;;;;;;;
1230.0;1166.9;;;;-0.5571442;0.08437348;-0.45075613;;;;;;;;;;;;;;;
1230.0;1166.9;;;;-0.5641938;0.08456803;-0.4572106;;;;;;;;;;;;;;;
1230.0;1166.9;;;;-0.57264334;0.08469773;-0.46122366;;;;;;;;;;;;;;;
1230.0;1166.9;;;;-0.5810357;0.085765846;-0.46316916;;;;;;;;;;;;;;;
1232.0;1177.0;;;;-0.58840567;0.087242134;-0.46419913;;;;;;;;;;;;;;;
1232.0;1177.0;;;;-0.5949822;0.08870316;-0.4639359;;;;;;;;;;;;;;;
1232.0;1177.0;;;;-0.6003037;0.090312965;-0.46397406;;;;;;;;;;;;;;;
1232.0;1177.0;;;;-0.60464483;0.09248353;-0.46345145;;;;;;;;;;;;;;;
1232.0;1177.0;;;;-0.6079255;0.09569551;-0.46416098;;;;;;;;;;;;;;;
1232.0;1178.4;90261;90242;11255;;;;;;;;;;;;;;;;;;
1232.0;1179.4;;;;;;;;;;;;;;;;;57.721947;25.89114;63.188576;;1071.2
1232.0;1179.4;;;;;;;;;;;;;;0.7608875;-0.06103702;-0.32789087;;;;;1071.2
1232.0;1179.4;;;;;;;;;;;;;;;;;56.058685;24.498734;62.105167;;1071.2
1232.0;1179.4;;;;;;;;;;;;;;0.7566759;-0.065187536;-0.34009826;;;;;1071.2
1232.0;1179.4;;;;;;;;;;;;;;;;;57.74102;23.556475;60.37324;;1080.6
1232.0;1179.4;;;;;;;;;;;;;;0.7547227;-0.04119999;-0.3350322;;;;;1080.6
1232.0;1179.4;;;;;;;;;;;;;;;;;59.350872;22.663807;57.96228;;1080.6
1232.0;1179.4;;;;;;;;;;;;;;0.7583239;-0.05145421;-0.33582568;;;;;1080.6
1232.0;1179.4;;;;;;;;;;;;;;;;;61.75802;22.766808;56.10828;;1090.2
1232.0;1179.4;;;;;;;;;;;;;;0.7706534;-0.07025361;-0.29132968;;;;;1090.2
1232.0;1179.4;;;;;;;;;;;;;;;;;64.10032;21.137882;54.361095;;1090.2
1232.0;1179.4;;;;;;;;;;;;;;0.7757805;-0.10449538;-0.29468673;;;;;1090.2
1232.0;1187.1;;;;-0.6100617;0.09902193;-0.46477133;;;;;;;;;;;;;;;
1232.0;1187.1;;;;-0.6114617;0.10274507;-0.4644547;;;;;;;;;;;;;;;
1232.0;1187.1;;;;-0.6129609;0.1057625;-0.46260077;;;;;;;;;;;;;;;
1232.0;1187.1;;;;-0.61256415;0.10758211;-0.46015173;;;;;;;;;;;;;;;
1232.0;1187.1;;;;-0.6101914;0.10853197;-0.45740515;;;;;;;;;;;;;;;
1292.0;1197.0;;;;-0.60719687;0.10893251;-0.454979;;;;;;;;;;;;;;;
1292.0;1197.0;;;;-0.6051064;0.108936325;-0.45450598;;;;;;;;;;;;;;;
1292.0;1197.0;;;;-0.60446936;0.108173385;-0.4571076;;;;;;;;;;;;;;;
1292.0;1197.0;;;;-0.6054726;0.107849136;-0.46069723;;;;;;;;;;;;;;;
1292.0;1197.0;;;;-0.6082726;0.10745241;-0.4644814;;;;;;;;;;;;;;;
1292.0;1198.5;106645;106582;11269;;;;;;;;;;;;;;;;;;
1292.0;1204.5;;;;;;;;;;;;;-4;;;;;;;;
1292.0;1204.5;;;;;;;;;;;;;-8;;;;;;;;
1292.0;1204.5;;;;;;;;;;;;;-12;;;;;;;;
1292.0;1204.5;;;;;;;;;;;;;-6;;;;;;;;
1292.0;1204.5;;;;;;;;;;;;;-15;;;;;;;;
1292.0;1207.1;;;;-0.6130677;0.10762788;-0.468525;;;;;;;;;;;;;;;
1292.0;1207.1;;;;-0.61785513;0.108539596;-0.4709168;;;;;;;;;;;;;;;
1292.0;1207.1;;;;-0.622551;0.109180465;-0.47427756;;;;;;;;;;;;;;;
1292.0;1207.1;;;;-0.6245423;0.108985916;-0.47931296;;;;;;;;;;;;;;;
1292.0;1207.1;;;;-0.6300011;0.11038591;-0.48389822;;;;;;;;;;;;;;;
1292.0;1217.1;;;;-0.63981634;0.111404434;-0.4867478;;;;;;;;;;;;;;;
1292.0;1217.1;;;;-0.65321356;0.11183931;-0.4894715;;;;;;;;;;;;;;;
1292.0;1217.1;;;;-0.66601187;0.111145034;-0.49561697;;;;;;;;;;;;;;;
1292.0;1217.1;;;;-0.67472464;0.10908891;-0.50648123;;;;;;;;;;;;;;;
1292.0;1217.1;;;;-0.6801644;0.10696794;-0.5175324;;;;;;;;;;;;;;;
1292.0;1218.6;123043;122970;11299;;;;;;;;;;;;;;;;;;
1294.0;1227.2;;;;-0.68648535;0.10630418;-0.52684027;;;;;;;;;;;;;;;
1294.0;1227.2;;;;-0.6948319;0.10619356;-0.537201;;;;;;;;;;;;;;;
1294.0;1227.2;;;;-0.70240027;0.10620119;-0.5475083;;;;;;;;;;;;;;;
1294.0;1227.2;;;;-0.7124749;0.106655136;-0.5584031;;;;;;;;;;;;;;;
1294.0;1227.2;;;;-0.72158056;0.108375564;-0.5707856;;;;;;;;;;;;;;;
1294.0;1237.3;;;;-0.72819525;0.1114731;-0.5833817;;;;;;;;;;;;;;;
1294.0;1237.3;;;;-0.73450094;0.11588289;-0.5944291;;;;;;;;;;;;;;;
1294.0;1237.3;;;;-0.74075705;0.119640365;-0.60628897;;;;;;;;;;;;;;;
1294.0;1237.3;;;;-0.746399;0.122791305;-0.618763;;;;;;;;;;;;;;;
1294.0;1237.3;;;;-0.7528001;0.1260338;-0.6304093;;;;;;;;;;;;;;;
1294.0;1239.5;;;;;;;;;;;;;;;;;64.80605;21.248512;53.178505;;1099.8
1294.0;1239.5;;;;;;;;;;;;;;0.76760155;-0.14239937;-0.28846094;;;;;1099.8
1294.0;1239.5;;;;;;;;;;;;;;;;;64.34065;20.870846;52.373577;;1099.8
1294.0;1239.5;;;;;;;;;;;;;;0.7802362;-0.15851314;-0.29425946;;;;;1099.8
1294.0;1239.5;;;;;;;;;;;;;;;;;63.303017;20.046844;51.931057;;1109.5
1294.0;1239.5;;;;;;;;;;;;;;0.791467;-0.19275491;-0.30933562;;;;;1109.5
1294.0;1239.5;;;;;;;;;;;;;;;;;63.21528;19.714956;51.7098;;1109.5
1294.0;1239.5;;;;;;;;;;;;;;0.8019654;-0.21839045;-0.32209235;;;;;1109.5
1294.0;1239.5;;;;;;;;;;;;;;;;;64.825134;20.191809;51.3245;;1119.1
1294.0;1239.5;;;;;;;;;;;;;;0.8121586;-0.2405469;-0.32886747;;;;;1119.1
1294.0;1239.5;;;;;;;;;;;;;;;;;69.35331;21.568956;50.508133;;1119.1
1294.0;1239.5;;;;;;;;;;;;;;0.81752986;-0.23780023;-0.3249611;;;;;1119.1
1294.0;1238.8;139413;139436;11302;;;;;;;;;;;;;;;;;;
1297.0;1240.1;;;;;;;;;;;;;;;;;75.334946;23.594624;49.771873;;1128.7
1297.0;1240.1;;;;;;;;;;;;;;0.8056276;-0.23047578;-0.32667014;;;;;1128.7
1297.0;1240.1;;;;;;;;;;;;;;;;;82.27027;25.818659;48.821987;;1128.7
1297.0;1240.1;;;;;;;;;;;;;;0.784814;-0.21869564;-0.30079043;;;;;1128.7
1297.0;1240.1;;;;;;;;;;;;;;;;;90.38438;25.7004;48.211617;;1138.3
1297.0;1240.1;;;;;;;;;;;;;;0.7909787;-0.20746483;-0.2806482;;;;;1138.3
1297.0;1240.1;;;;;;;;;;;;;;;;;98.807495;24.033327;47.799618;;1138.3
1297.0;1240.1;;;;;;;;;;;;;;0.8106937;-0.16461684;-0.29816583;;;;;1138.3
1297.0;1240.1;;;;;;;;;;;;;;;;;106.15482;22.419659;47.84158;;1147.8
1297.0;1240.1;;;;;;;;;;;;;;0.8318125;-0.12878811;-0.3079928;;;;;1147.8
1297.0;1240.1;;;;;;;;;;;;;;;;;111.484116;20.008698;47.540207;;1147.8
1297.0;1240.1;;;;;;;;;;;;;;0.8645894;-0.07245094;-0.34473708;;;;;1147.8
1297.0;1241.3;;;;;;;;;;;;;;;;;114.978485;18.082216;48.051395;;1157.5
1297.0;1241.3;;;;;;;;;;;;;;0.88302255;-0.03320414;-0.38721886;;;;;1157.5
1297.0;1241.3;;;;;;;;;;;;;;;;;115.06241;16.964476;48.352764;;1157.5
1297.0;1241.3;;;;;;;;;;;;;;0.8840602;0.011902219;-0.4485;;;;;1157.5
1297.0;1241.3;;;;;;;;;;;;;;;;;112.56752;16.251106;49.668873;;1167.1
1297.0;1241.3;;;;;;;;;;;;;;0.8545793;0.04077273;-0.48567155;;;;;1167.1
1297.0;1241.3;;;;;;;;;;;;;;;;;108.40175;14.751884;51.11469;;1167.1
1297.0;1241.3;;;;;;;;;;;;;;0.7983032;0.05816828;-0.50251776;;;;;1167.1
1297.0;1241.3;;;;;;;;;;;;;;;;;102.02338;13.878292;51.53813;;1176.7
1297.0;1241.3;;;;;;;;;;;;;;0.7466048;0.09033479;-0.49543747;;;;;1176.7
1297.0;1241.3;;;;;;;;;;;;;;;;;93.92453;13.504441;52.552876;;1176.7
1297.0;1241.3;;;;;;;;;;;;;;0.6936857;0.08703879;-0.443556;;;;;1176.7
1353.0;1244.7;;;;;;;;;;;;;-6;;;;;;;;
1353.0;1244.7;;;;;;;;;;;;;-1;;;;;;;;
1353.0;1244.7;;;;;;;;;;;;;-28;;;;;;;;
1353.0;1244.7;;;;;;;;;;;;;50;;;;;;;;
1353.0;1244.7;;;;;;;;;;;;;-15;;;;;;;;
1353.0;1247.1;;;;-0.75989926;0.12982179;-0.6411095;;;;;;;;;;;;;;;
1353.0;1247.1;;;;-0.7690164;0.13381197;-0.65074545;;;;;;;;;;;;;;;
1353.0;1247.1;;;;-0.7797357;0.13783647;-0.66000754;;;;;;;;;;;;;;;
1353.0;1247.1;;;;-0.7904779;0.14255907;-0.66795355;;;;;;;;;;;;;;;
1353.0;1247.1;;;;-0.80109036;0.1468773;-0.67363364;;;;;;;;;;;;;;;
1353.0;1257.1;;;;-0.81035626;0.15056993;-0.6785813;;;;;;;;;;;;;;;
1353.0;1257.1;;;;-0.81753933;0.15355302;-0.68347555;;;;;;;;;;;;;;;
1353.0;1257.1;;;;-0.8233758;0.15685655;-0.6861611;;;;;;;;;;;;;;;
1353.0;1257.1;;;;-0.82912457;0.16028596;-0.6876603;;;;;;;;;;;;;;;
1353.0;1257.1;;;;-0.833851;0.16380693;-0.6895638;;;;;;;;;;;;;;;
1353.0;1258.7;155726;155749;11305;;;;;;;;;;;;;;;;;;
1353.0;1267.1;;;;-0.84017956;0.16687395;-0.6904412;;;;;;;;;;;;;;;
1353.0;1267.1;;;;-0.8456956;0.17029573;-0.6911507;;;;;;;;;;;;;;;
1353.0;1267.1;;;;-0.85019314;0.17325975;-0.68918616;;;;;;;;;;;;;;;
1353.0;1267.1;;;;-0.85364926;0.1748314;-0.6853638;;;;;;;;;;;;;;;
1353.0;1267.1;;;;-0.8566514;0.17602922;-0.6822701;;;;;;;;;;;;;;;
1355.0;1277.2;;;;-0.8594209;0.17621614;-0.6819497;;;;;;;;;;;;;;;
1355.0;1277.2;;;;-0.8634187;0.17513658;-0.68513495;;;;;;;;;;;;;;;
1355.0;1277.2;;;;-0.8693315;0.1734543;-0.69042593;;;;;;;;;;;;;;;
1355.0;1277.2;;;;-0.8774072;0.17187501;-0.69652563;;;;;;;;;;;;;;;
1355.0;1277.2;;;;-0.88686;0.17089082;-0.7017594;;;;;;;;;;;;;;;
1355.0;1278.8;172152;172146;11303;;;;;;;;;;;;;;;;;;
1355.0;1284.9;;;;;;;;;;;;;-244;;;;;;;;
1355.0;1284.9;;;;;;;;;;;;;4;;;;;;;;
1355.0;1284.9;;;;;;;;;;;;;440;;;;;;;;
1355.0;1284.9;;;;;;;;;;;;;-146;;;;;;;;
1355.0;1284.9;;;;;;;;;;;;;-2293;;;;;;;;
1355.0;1287.3;;;;-0.8948442;0.17067339;-0.7043763;;;;;;;;;;;;;;;
1355.0;1287.3;;;;-0.90171444;0.17138292;-0.7043801;;;;;;;;;;;;;;;
1355.0;1287.3;;;;-0.90555966;0.17203905;-0.7019463;;;;;;;;;;;;;;;
1355.0;1287.3;;;;-0.90695965;0.17332841;-0.6999932;;;;;;;;;;;;;;;
1355.0;1287.3;;;;-0.90680325;0.17417146;-0.698597;;;;;;;;;;;;;;;
1355.0;1297.4;;;;-0.90773404;0.17460634;-0.6966515;;;;;;;;;;;;;;;
1355.0;1297.4;;;;-0.9090158;0.1740532;-0.6960946;;;;;;;;;;;;;;;
1355.0;1297.4;;;;-0.9108201;0.1718712;-0.6958695;;;;;;;;;;;;;;;
1355.0;1297.4;;;;-0.9144746;0.16894533;-0.6961213;;;;;;;;;;;;;;;
1355.0;1297.4;;;;-0.920437;0.16460039;-0.696621;;;;;;;;;;;;;;;
1355.0;1299.0;188620;188549;11296;;;;;;;;;;;;;;;;;;
1356.0;1307.5;;;;-0.9263383;0.1590767;-0.6987038;;;;;;;;;;;;;;;
1356.0;1307.5;;;;-0.932686;0.15319444;-0.70088965;;;;;;;;;;;;;;;
1356.0;1307.5;;;;-0.93994915;0.14733888;-0.7028237;;;;;;;;;;;;;;;
1356.0;1307.5;;;;-0.94806683;0.14183809;-0.70624167;;;;;;;;;;;;;;;
1356.0;1307.5;;;;-0.95572674;0.13712312;-0.71109015;;;;;;;;;;;;;;;
1356.0;1314.8;;;;;;;;;;;;;;;;;85.83713;11.207922;51.904354;;1186.4
1356.0;1314.8;;;;;;;;;;;;;;0.6933195;0.10065004;-0.40803248;;;;;1186.4
1356.0;1314.8;;;;;;;;;;;;;;;;;75.91098;9.968108;50.48906;;1186.4
1356.0;1314.8;;;;;;;;;;;;;;0.7302469;0.0910062;-0.3844722;;;;;1186.4
1356.0;1314.8;;;;;;;;;;;;;;;;;65.1265;9.365368;48.455765;;1196.1
1356.0;1314.8;;;;;;;;;;;;;;0.8154546;0.07965331;-0.3827021;;;;;1196.1
1356.0;1314.8;;;;;;;;;;;;;;;;;54.81887;9.73159;46.5598;;1196.1
1356.0;1314.8;;;;;;;;;;;;;;0.8992584;0.052980132;-0.40540788;;;;;1196.1
1356.0;1314.8;;;;;;;;;;;;;;;;;45.41154;10.406812;43.78262;;1205.7
1356.0;1314.8;;;;;;;;;;;;;;0.98495436;-9.155553E-4;-0.44917142;;;;;1205.7
1356.0;1314.8;;;;;;;;;;;;;;;;;39.094208;12.169256;40.238655;;1205.7
1356.0;1314.8;;;;;;;;;;;;;;1.0312204;-0.05633717;-0.4941557;;;;;1205.7
1356.0;1317.4;;;;-0.9626428;0.13272859;-0.71680456;;;;;;;;;;;;;;;
1356.0;1317.4;;;;-0.96873486;0.1284485;-0.71989065;;;;;;;;;;;;;;;
1356.0;1317.4;;;;-0.9760629;0.12602617;-0.72225577;;;;;;;;;;;;;;;
1356.0;1317.4;;;;-0.98606884;0.12401582;-0.7231408;;;;;;;;;;;;;;;
1356.0;1317.4;;;;-0.9941827;0.12145235;-0.72489935;;;;;;;;;;;;;;;
1356.0;1319.2;204929;204945;11300;;;;;;;;;;;;;;;;;;
1411.0;1325.2;;;;;;;;;;;;;-4985;;;;;;;;
1411.0;1325.2;;;;;;;;;;;;;-6621;;;;;;;;
1411.0;1325.2;;;;;;;;;;;;;-6898;;;;;;;;
1411.0;1325.2;;;;;;;;;;;;;-6793;;;;;;;;
1411.0;1325.2;;;;;;;;;;;;;-7112;;;;;;;;
1411.0;1327.5;;;;-0.99967206;0.11854555;-0.72726065;;;;;;;;;;;;;;;
1411.0;1327.5;;;;-1.002186;0.11552812;-0.7293244;;;;;;;;;;;;;;;
1411.0;1327.5;;;;-1.0030862;0.11300661;-0.7321053;;;;;;;;;;;;;;;
1411.0;1327.5;;;;-1.0028001;0.11067201;-0.7341996;;;;;;;;;;;;;;;
1411.0;1327.5;;;;-1.0010263;0.108879104;-0.7365113;;;;;;;;;;;;;;;
1411.0;1337.4;;;;-0.9998399;0.10702135;-0.7377549;;;;;;;;;;;;;;;
1411.0;1337.4;;;;-0.998932;0.104274765;-0.7383576;;;;;;;;;;;;;;;
1411.0;1337.4;;;;-0.999035;0.10130693;-0.73889166;;;;;;;;;;;;;;;
1411.0;1337.4;;;;-0.9996644;0.09759523;-0.73891836;;;;;;;;;;;;;;;
1411.0;1337.4;;;;-1.0003091;0.0931511;-0.7384148;;;;;;;;;;;;;;;
1411.0;1339.2;221330;221342;11310;;;;;;;;;;;;;;;;;;
1411.0;1347.5;;;;-1.0010759;0.088104255;-0.7387276;;;;;;;;;;;;;;;
1411.0;1347.5;;;;-1.001835;0.08253098;-0.73743445;;;;;;;;;;;;;;;
1411.0;1347.5;;;;-1.003357;0.07667924;-0.7354813;;;;;;;;;;;;;;;
1411.0;1347.5;;;;-1.005478;0.07154084;-0.73336035;;;;;;;;;;;;;;;
1411.0;1347.5;;;;-1.0086366;0.06660844;-0.7310448;;;;;;;;;;;;;;;
1412.0;1357.6;;;;-1.013054;0.06103898;-0.728859;;;;;;;;;;;;;;;
1412.0;1357.6;;;;-1.0183564;0.05700303;-0.72446066;;;;;;;;;;;;;;;
1412.0;1357.6;;;;-1.0248872;0.053581245;-0.71932226;;;;;;;;;;;;;;;
1412.0;1357.6;;;;-1.0322763;0.050983436;-0.7153092;;;;;;;;;;;;;;;
1412.0;1357.6;;;;-1.0394365;0.04947663;-0.7131844;;;;;;;;;;;;;;;
1412.0;1359.9;;;;;;;;;;;;;;;;;37.408062;14.9616995;36.17969;;1215.2
1412.0;1359.9;;;;;;;;;;;;;;1.0292062;-0.100711085;-0.5254677;;;;;1215.2
1412.0;1359.9;;;;;;;;;;;;;;;;;38.468582;16.537218;32.082584;;1215.2
1412.0;1359.9;;;;;;;;;;;;;;1.0044252;-0.12732323;-0.5504929;;;;;1215.2
1412.0;1359.9;;;;;;;;;;;;;;;;;40.532394;15.87344;28.336435;;1224.9
1412.0;1359.9;;;;;;;;;;;;;;0.9906308;-0.15039521;-0.5726493;;;;;1224.9
1412.0;1359.9;;;;;;;;;;;;;;;;;42.020172;13.878292;25.215918;;1224.9
1412.0;1359.9;;;;;;;;;;;;;;0.984283;-0.16821803;-0.59797966;;;;;1224.9
1412.0;1359.9;;;;;;;;;;;;;;;;;42.058323;10.952331;22.907955;;1234.6
1412.0;1359.9;;;;;;;;;;;;;;0.99197364;-0.1777398;-0.6153752;;;;;1234.6
1412.0;1359.9;;;;;;;;;;;;;;;;;39.857174;7.316813;21.187475;;1234.6
1412.0;1359.9;;;;;;;;;;;;;;1.0118717;-0.2042909;-0.6191595;;;;;1234.6
1412.0;1359.4;237645;237720;11287;;;;;;;;;;;;;;;;;;
1412.0;1365.3;;;;;;;;;;;;;-7637;;;;;;;;
1412.0;1365.3;;;;;;;;;;;;;-8050;;;;;;;;
1412.0;1365.3;;;;;;;;;;;;;-8459;;;;;;;;
1412.0;1365.3;;;;;;;;;;;;;-8765;;;;;;;;
1412.0;1365.3;;;;;;;;;;;;;-8957;;;;;;;;
1414.0;1367.5;;;;-1.0469133;0.048660286;-0.7119599;;;;;;;;;;;;;;;
1414.0;1367.5;;;;-1.0547944;0.047725685;-0.7101632;;;;;;;;;;;;;;;
1414.0;1367.5;;;;-1.0618669;0.04747773;-0.7108918;;;;;;;;;;;;;;;
1414.0;1367.5;;;;-1.0686494;0.04728318;-0.7120858;;;;;;;;;;;;;;;
1414.0;1367.5;;;;-1.0746232;0.04730607;-0.71376425;;;;;;;;;;;;;;;
1414.0;1374.8;;;;;;;;;;;;;;;;;36.90832;3.8644063;19.909512;;1244.3
1414.0;1374.8;;;;;;;;;;;;;;1.040437;-0.21948913;-0.606769;;;;;1244.3
1414.0;1374.8;;;;;;;;;;;;;;;;;33.82214;1.7433698;18.959625;;1244.3
1414.0;1374.8;;;;;;;;;;;;;;1.0637531;-0.21826838;-0.5783868;;;;;1244.3
1414.0;1374.8;;;;;;;;;;;;;;;;;32.513657;0.5607776;17.48329;;1253.8
1414.0;1374.8;;;;;;;;;;;;;;1.0761436;-0.19379254;-0.56117433;;;;;1253.8
1414.0;1374.8;;;;;;;;;;;;;;;;;32.433548;0.26703694;15.2096615;;1253.8
1414.0;1374.8;;;;;;;;;;;;;;1.0705893;-0.14374217;-0.55488753;;;;;1253.8
1414.0;1374.8;;;;;;;;;;;;;;;;;33.18125;0.04196295;12.398144;;1263.4
1414.0;1374.8;;;;;;;;;;;;;;1.0592364;-0.08581805;-0.565447;;;;;1263.4
1414.0;1374.8;;;;;;;;;;;;;;;;;33.955654;-0.026703697;8.953367;;1263.4
1414.0;1374.8;;;;;;;;;;;;;;1.0433668;-0.005920591;-0.5847346;;;;;1263.4
1416.0;1375.7;;;;;;;;;;;;;;;;;32.87225;-0.8163701;4.936369;;1273.1
1416.0;1375.7;;;;;;;;;;;;;;1.0371411;0.07580798;-0.61329997;;;;;1273.1
1416.0;1375.7;;;;;;;;;;;;;;;;;29.354992;-2.4109623;0.5569628;;1273.1
1416.0;1375.7;;;;;;;;;;;;;;1.030366;0.15643787;-0.63795894;;;;;1273.1
1416.0;1375.7;;;;;;;;;;;;;;;;;23.068178;-5.0279245;-4.5129247;;1282.6
1416.0;1375.7;;;;;;;;;;;;;;1.0224311;0.22516556;-0.6537065;;;;;1282.6
1416.0;1375.7;;;;;;;;;;;;;;;;;14.595477;-8.438369;-9.758293;;1282.6
1416.0;1375.7;;;;;;;;;;;;;;0.98117006;0.29786065;-0.6419874;;;;;1282.6
1416.0;1375.7;;;;;;;;;;;;;;;;;4.2649617;-14.084292;-15.270699;;1292.2
1416.0;1375.7;;;;;;;;;;;;;;0.93710136;0.3573107;-0.6136662;;;;;1292.2
1416.0;1375.7;;;;;;;;;;;;;;;;;-6.0541096;-21.584217;-21.534624;;1292.2
1416.0;1375.7;;;;;;;;;;;;;;0.91134375;0.3994873;-0.580401;;;;;1292.2
1416.0;1376.5;;;;;;;;;;;;;;;;;-14.767144;-29.4084;-28.942991;;1301.8
1416.0;1376.5;;;;;;;;;;;;;;0.8930326;0.43342388;-0.5683767;;;;;1301.8
1416.0;1376.5;;;;;;;;;;;;;;;;;-20.222326;-38.44951;-38.270214;;1301.8
1416.0;1376.5;;;;;;;;;;;;;;0.8915067;0.45142978;-0.57258826;;;;;1301.8
1416.0;1376.5;;;;;;;;;;;;;;;;;-21.347698;-47.421947;-49.199654;;1311.4
1416.0;1376.5;;;;;;;;;;;;;;0.9180578;0.41370893;-0.57728815;;;;;1311.4
1416.0;1376.5;;;;;;;;;;;;;;;;;-18.936735;-52.05313;-61.574905;;1311.4
1416.0;1376.5;;;;;;;;;;;;;;0.9310587;0.35724968;-0.5652638;;;;;1311.4
1416.0;1376.5;;;;;;;;;;;;;;;;;-16.6097;-51.389355;-74.59106;;1321.0
1416.0;1376.5;;;;;;;;;;;;;;0.8780786;0.3444319;-0.52070683;;;;;1321.0
1416.0;1376.5;;;;;;;;;;;;;;;;;-16.884367;-50.49669;-87.56905;;1321.0
1416.0;1376.5;;;;;;;;;;;;;;0.7954344;0.37434003;-0.45637378;;;;;1321.0
1469.0;1377.3;;;;-1.0797082;0.04732514;-0.71624;;;;;;;;;;;;;;;
1469.0;1377.3;;;;-1.0844613;0.04696656;-0.71978766;;;;;;;;;;;;;;;
1469.0;1377.3;;;;-1.0892602;0.046890266;-0.72425085;;;;;;;;;;;;;;;
1469.0;1377.3;;;;-1.0944635;0.047149666;-0.7289315;;;;;;;;;;;;;;;
1469.0;1377.3;;;;-1.0996057;0.047561653;-0.7328568;;;;;;;;;;;;;;;
1469.0;1379.2;254115;254042;11287;;;;;;;;;;;;;;;;;;
1469.0;1387.3;;;;-1.105507;0.048393257;-0.73610693;;;;;;;;;;;;;;;
1469.0;1387.3;;;;-1.1100885;0.049015053;-0.7384339;;;;;;;;;;;;;;;
1469.0;1387.3;;;;-1.1144029;0.04987336;-0.7397881;;;;;;;;;;;;;;;
1469.0;1387.3;;;;-1.1185304;0.050926216;-0.74041754;;;;;;;;;;;;;;;
1469.0;1387.3;;;;-1.1225854;0.05157853;-0.7397614;;;;;;;;;;;;;;;
1469.0;1397.3;;;;-1.1256067;0.05193711;-0.7383118;;;;;;;;;;;;;;;
1469.0;1397.3;;;;-1.1283151;0.052036293;-0.7353249;;;;;;;;;;;;;;;
1469.0;1397.3;;;;-1.1303865;0.05215455;-0.7311669;;;;;;;;;;;;;;;
1469.0;1397.3;;;;-1.1312562;0.052215584;-0.7252198;;;;;;;;;;;;;;;
1469.0;1397.3;;;;-1.1298562;0.052932747;-0.717331;;;;;;;;;;;;;;;
1469.0;1399.2;262143;262143;11284;;;;;;;;;;;;;;;;;;
1469.0;1405.3;;;;;;;;;;;;;-8953;;;;;;;;
1469.0;1405.3;;;;;;;;;;;;;-8481;;;;;;;;
1469.0;1405.3;;;;;;;;;;;;;-7671;;;;;;;;
1469.0;1405.3;;;;;;;;;;;;;-6809;;;;;;;;
1469.0;1405.3;;;;;;;;;;;;;-6012;;;;;;;;
1472.0;1407.4;;;;-1.1260606;0.053115852;-0.7087212;;;;;;;;;;;;;;;
1472.0;1407.4;;;;-1.1217881;0.053104408;-0.7010804;;;;;;;;;;;;;;;
1472.0;1407.4;;;;-1.1179811;0.05364991;-0.6940041;;;;;;;;;;;;;;;
1472.0;1407.4;;;;-1.1151239;0.053932197;-0.68728644;;;;;;;;;;;;;;;
1472.0;1407.4;;;;-1.1129342;0.053489693;-0.6810189;;;;;;;;;;;;;;;
1472.0;1417.5;;;;-1.111168;0.05308915;-0.6751366;;;;;;;;;;;;;;;
1472.0;1417.5;;;;-1.1099359;0.05133439;-0.6694909;;;;;;;;;;;;;;;
1472.0;1417.5;;;;-1.1100618;0.04978562;-0.6641808;;;;;;;;;;;;;;;
1472.0;1417.5;;;;-1.1084596;0.04848481;-0.658886;;;;;;;;;;;;;;;
1472.0;1417.5;;;;-1.1049501;0.047565468;-0.65380484;;;;;;;;;;;;;;;
1472.0;1420.0;;;;;;;;;;;;;;;;;-18.688772;-53.823208;-99.86419;;1330.6
1472.0;1420.0;;;;;;;;;;;;;;0.7613758;0.44642475;-0.43116552;;;;;1330.6
1472.0;1420.0;;;;;;;;;;;;;;;;;-22.381512;-56.375317;-111.098816;;1330.6
1472.0;1420.0;;;;;;;;;;;;;;0.76741844;0.50807214;-0.4090701;;;;;1330.6
1472.0;1420.0;;;;;;;;;;;;;;;;;-28.813288;-54.788353;-121.360664;;1340.0
1472.0;1420.0;;;;;;;;;;;;;;0.82088685;0.5635548;-0.35456404;;;;;1340.0
1472.0;1420.0;;;;;;;;;;;;;;;;;-38.64025;-50.771355;-124.9733;;1340.0
1472.0;1420.0;;;;;;;;;;;;;;0.9139073;0.57039094;-0.26715904;;;;;1340.0
1472.0;1420.0;;;;;;;;;;;;;;;;;-49.562057;-44.637135;-124.988556;;1349.7
1472.0;1420.0;;;;;;;;;;;;;;1.0216377;0.5175329;-0.1657155;;;;;1349.7
1472.0;1420.0;;;;;;;;;;;;;;;;;-59.160133;-33.295696;-124.988556;;1349.7
1472.0;1420.0;;;;;;;;;;;;;;1.1458479;0.40736106;-0.01147496;;;;;1349.7
1472.0;1419.5;262143;262143;11277;;;;;;;;;;;;;;;;;;
1473.0;1427.5;;;;-1.1003;0.04755784;-0.6492539;;;;;;;;;;;;;;;
1473.0;1427.5;;;;-1.093422;0.048213966;-0.64415747;;;;;;;;;;;;;;;
1473.0;1427.5;;;;-1.0873376;0.050216682;-0.63830954;;;;;;;;;;;;;;;
1473.0;1427.5;;;;-1.081772;0.052227028;-0.6335984;;;;;;;;;;;;;;;
1473.0;1427.5;;;;-1.0749933;0.053352363;-0.63008505;;;;;;;;;;;;;;;
1473.0;1435.0;;;;;;;;;;;;;;;;;-65.374466;-18.547625;-124.988556;;1359.4
1473.0;1435.0;;;;;;;;;;;;;;1.2748802;0.24823755;0.16492203;;;;;1359.4
1473.0;1435.0;;;;;;;;;;;;;;;;;-68.15164;-4.5777764;-124.988556;;1359.4
1473.0;1435.0;;;;;;;;;;;;;;1.3390301;0.13043611;0.1241493;;;;;1359.4
1473.0;1435.0;;;;;;;;;;;;;;;;;-60.91876;17.731255;-124.988556;;1369.0
1473.0;1435.0;;;;;;;;;;;;;;1.4119693;0.049439985;0.16101566;;;;;1369.0
1473.0;1435.0;;;;;;;;;;;;;;;;;-51.66402;29.442732;-124.988556;;1369.0
1473.0;1435.0;;;;;;;;;;;;;;1.5287331;-0.052308727;0.13727225;;;;;1369.0
1473.0;1435.0;;;;;;;;;;;;;;;;;-48.39854;26.944029;-124.988556;;1378.7
1473.0;1435.0;;;;;;;;;;;;;;1.734489;-0.30402538;-0.06366161;;;;;1378.7
1473.0;1435.0;;;;;;;;;;;;;;;;;-47.425766;37.75521;-124.988556;;1378.7
1473.0;1435.0;;;;;;;;;;;;;;1.9124119;-0.55586416;-0.09863582;;;;;1378.7
1473.0;1437.4;;;;-1.0695268;0.055366524;-0.62666327;;;;;;;;;;;;;;;
1473.0;1437.4;;;;-1.0647928;0.056747444;-0.62252814;;;;;;;;;;;;;;;
1473.0;1437.4;;;;-1.0604097;0.058906563;-0.6186829;;;;;;;;;;;;;;;
1473.0;1437.4;;;;-1.0563546;0.061328895;-0.6158715;;;;;;;;;;;;;;;
1473.0;1437.4;;;;-1.0528756;0.06363297;-0.6138726;;;;;;;;;;;;;;;
1473.0;1439.4;262143;262143;11268;;;;;;;;;;;;;;;;;;
1531.0;1445.4;;;;;;;;;;;;;-5069;;;;;;;;
1531.0;1445.4;;;;;;;;;;;;;-3776;;;;;;;;
1531.0;1445.4;;;;;;;;;;;;;-2440;;;;;;;;
1531.0;1445.4;;;;;;;;;;;;;-1467;;;;;;;;
1531.0;1445.4;;;;;;;;;;;;;-940;;;;;;;;
1531.0;1447.3;;;;-1.0512964;0.06644059;-0.61487204;;;;;;;;;;;;;;;
1531.0;1447.3;;;;-1.0497438;0.06973267;-0.6165772;;;;;;;;;;;;;;;
1531.0;1447.3;;;;-1.0494386;0.074054725;-0.61874014;;;;;;;;;;;;;;;
1531.0;1447.3;;;;-1.0505372;0.0788765;-0.62032324;;;;;;;;;;;;;;;
1531.0;1447.3;;;;-1.0516015;0.08322526;-0.6217881;;;;;;;;;;;;;;;
1531.0;1457.3;;;;-1.051735;0.0872078;-0.621605;;;;;;;;;;;;;;;
1531.0;1457.3;;;;-1.0507509;0.09217835;-0.6191521;;;;;;;;;;;;;;;
1531.0;1457.3;;;;-1.0486261;0.09673692;-0.61682135;;;;;;;;;;;;;;;
1531.0;1457.3;;;;-1.0456048;0.10140993;-0.6148377;;;;;;;;;;;;;;;
1531.0;1457.3;;;;-1.0416375;0.10622026;-0.6112557;;;;;;;;;;;;;;;
1531.0;1459.4;262143;262143;11261;;;;;;;;;;;;;;;;;;
1531.0;1467.4;;;;-1.0383302;0.11168291;-0.6086007;;;;;;;;;;;;;;;
1531.0;1467.4;;;;-1.0362931;0.11711122;-0.6056214;;;;;;;;;;;;;;;
1531.0;1467.4;;;;-1.0365258;0.12136461;-0.6050301;;;;;;;;;;;;;;;
1531.0;1467.4;;;;-1.0387498;0.12556078;-0.60734564;;;;;;;;;;;;;;;
1531.0;1467.4;;;;-1.042595;0.12870027;-0.6105843;;;;;;;;;;;;;;;
1533.0;1477.5;;;;-1.0471307;0.13135149;-0.61422354;;;;;;;;;;;;;;;
1533.0;1477.5;;;;-1.051613;0.13373949;-0.6166726;;;;;;;;;;;;;;;
1533.0;1477.5;;;;-1.0567514;0.13533784;-0.6193047;;;;;;;;;;;;;;;
1533.0;1477.5;;;;-1.061905;0.13807298;-0.6223145;;;;;;;;;;;;;;;
1533.0;1477.5;;;;-1.0670205;0.140934;-0.62390524;;;;;;;;;;;;;;;
1533.0;1479.7;262143;262143;11255;;;;;;;;;;;;;;;;;;
1533.0;1485.5;;;;;;;;;;;;;-793;;;;;;;;
1533.0;1485.5;;;;;;;;;;;;;-911;;;;;;;;
1533.0;1485.5;;;;;;;;;;;;;-966;;;;;;;;
1533.0;1485.5;;;;;;;;;;;;;-769;;;;;;;;
1533.0;1485.5;;;;;;;;;;;;;-542;;;;;;;;
1533.0;1487.6;;;;;;;;;;;;;;;;;-48.608356;45.178837;-124.988556;;1388.3
1533.0;1487.6;;;;;;;;;;;;;;1.9843745;-0.81374556;-0.15533921;;;;;1388.3
1533.0;1487.6;;;;;;;;;;;;;;;;;-53.235725;37.728508;-124.90845;;1388.3
1533.0;1487.6;;;;;;;;;;;;;;1.9577624;-1.0823694;-0.32544938;;;;;1388.3
1533.0;1487.6;;;;;;;;;;;;;;;;;-61.52913;17.761772;-119.09467;;1397.9
1533.0;1487.6;;;;;;;;;;;;;;1.8312937;-1.335551;-0.5963927;;;;;1397.9
1533.0;1487.6;;;;;;;;;;;;;;;;;-77.59713;-9.823145;-102.94275;;1397.9
1533.0;1487.6;;;;;;;;;;;;;;1.6832179;-1.4367504;-0.84524065;;;;;1397.9
1533.0;1487.6;;;;;;;;;;;;;;;;;-92.25364;-28.839993;-90.041046;;1407.6
1533.0;1487.6;;;;;;;;;;;;;;1.5209814;-1.5226295;-1.0097353;;;;;1407.6
1533.0;1487.6;;;;;;;;;;;;;;;;;-96.678825;-35.626545;-97.47612;;1407.6
1533.0;1487.6;;;;;;;;;;;;;;1.3860286;-1.4059267;-0.97183144;;;;;1407.6
1607.0;1487.4;;;;-1.070881;0.14401628;-0.6250649;;;;;;;;;;;;;;;
1607.0;1487.4;;;;-1.0737993;0.14745332;-0.62450796;;;;;;;;;;;;;;;
1607.0;1487.4;;;;-1.0746919;0.15129091;-0.62235266;;;;;;;;;;;;;;;
1607.0;1487.4;;;;-1.073517;0.15490343;-0.6186257;;;;;;;;;;;;;;;
1607.0;1487.4;;;;-1.0705072;0.1592293;-0.6144791;;;;;;;;;;;;;;;
1607.0;1488.7;;;;;;;;;;;;;;;;;-99.33012;-45.2208;-116.08096;;1417.3
1607.0;1488.7;;;;;;;;;;;;;;1.330546;-0.9812921;-0.89742726;;;;;1417.3
1607.0;1488.7;;;;;;;;;;;;;;;;;-96.63305;-54.994354;-120.07507;;1417.3
1607.0;1488.7;;;;;;;;;;;;;;1.258095;-0.80324715;-0.8082522;;;;;1417.3
1607.0;1488.7;;;;;;;;;;;;;;;;;-92.192604;-57.355724;-122.089294;;1426.9
1607.0;1488.7;;;;;;;;;;;;;;1.3509324;-0.6603595;-0.6491287;;;;;1426.9
1607.0;1488.7;;;;;;;;;;;;;;;;;-86.20335;-57.515945;-124.18745;;1426.9
1607.0;1488.7;;;;;;;;;;;;;;1.4651936;-0.4878689;-0.47340313;;;;;1426.9
1607.0;1488.7;;;;;;;;;;;;;;;;;-80.44679;-61.864834;-124.95804;;1436.6
1607.0;1488.7;;;;;;;;;;;;;;1.5579089;-0.3513291;-0.34742272;;;;;1436.6
1607.0;1488.7;;;;;;;;;;;;;;;;;-71.157715;-71.57353;-124.988556;;1436.6
1607.0;1488.7;;;;;;;;;;;;;;1.6235847;-0.27240822;-0.27790156;;;;;1436.6
1607.0;1497.3;;;;-1.0647546;0.16393282;-0.61095434;;;;;;;;;;;;;;;
1607.0;1497.3;;;;-1.0584527;0.16783525;-0.6075097;;;;;;;;;;;;;;;
1607.0;1497.3;;;;-1.0526925;0.17147447;-0.6039086;;;;;;;;;;;;;;;
1607.0;1497.3;;;;-1.0469018;0.17414095;-0.5994187;;;;;;;;;;;;;;;
1607.0;1497.3;;;;-1.041073;0.17588808;-0.59431845;;;;;;;;;;;;;;;
1607.0;1499.5;262143;262143;11247;;;;;;;;;;;;;;;;;;
1610.0;1507.3;;;;-1.0341951;0.17728807;-0.5886689;;;;;;;;;;;;;;;
1610.0;1507.3;;;;-1.0269777;0.1783066;-0.582573;;;;;;;;;;;;;;;
1610.0;1507.3;;;;-1.0208665;0.1796303;-0.57609564;;;;;;;;;;;;;;;
1610.0;1507.3;;;;-1.0150834;0.18187334;-0.5692292;;;;;;;;;;;;;;;
1610.0;1507.3;;;;-1.0091859;0.18350603;-0.56083685;;;;;;;;;;;;;;;
1610.0;1517.4;;;;-1.0023843;0.18598558;-0.55037314;;;;;;;;;;;;;;;
1610.0;1517.4;;;;-0.99634564;0.18835834;-0.5405579;;;;;;;;;;;;;;;
1610.0;1517.4;;;;-0.98970425;0.19035724;-0.53218085;;;;;;;;;;;;;;;
1610.0;1517.4;;;;-0.98118985;0.19235232;-0.52027136;;;;;;;;;;;;;;;
1610.0;1517.4;;;;-0.9738771;0.19338611;-0.5031205;;;;;;;;;;;;;;;
1610.0;1519.7;262143;262143;11249;;;;;;;;;;;;;;;;;;
1610.0;1525.6;;;;;;;;;;;;;-414;;;;;;;;
1610.0;1525.6;;;;;;;;;;;;;-328;;;;;;;;
1610.0;1525.6;;;;;;;;;;;;;-43;;;;;;;;
1610.0;1525.6;;;;;;;;;;;;;506;;;;;;;;
1610.0;1525.6;;;;;;;;;;;;;919;;;;;;;;
1610.0;1527.5;;;;-0.9625665;0.19374469;-0.48598868;;;;;;;;;;;;;;;
1610.0;1527.5;;;;-0.9473916;0.19425586;-0.46586233;;;;;;;;;;;;;;;
1610.0;1527.5;;;;-0.9348451;0.19344333;-0.4451638;;;;;;;;;;;;;;;
1610.0;1527.5;;;;-0.9246675;0.1910477;-0.426323;;;;;;;;;;;;;;;
1610.0;1527.5;;;;-0.9151803;0.18602373;-0.41157156;;;;;;;;;;;;;;;
1613.0;1537.6;;;;-0.9057008;0.18085481;-0.40087897;;;;;;;;;;;;;;;
1613.0;1537.6;;;;-0.89458096;0.17662431;-0.3880921;;;;;;;;;;;;;;;
1613.0;1537.6;;;;-0.88368237;0.17420198;-0.37165454;;;;;;;;;;;;;;;
1613.0;1537.6;;;;-0.87397397;0.17222978;-0.35497287;;;;;;;;;;;;;;;
1613.0;1537.6;;;;-0.862507;0.16916658;-0.3403969;;;;;;;;;;;;;;;
1613.0;1539.9;262143;262143;11249;;;;;;;;;;;;;;;;;;
1613.0;1540.8;;;;;;;;;;;;;;;;;-59.495834;-77.86035;-124.988556;;1446.2
1613.0;1540.8;;;;;;;;;;;;;;1.6435438;-0.20569475;-0.28083134;;;;;1446.2
1613.0;1540.8;;;;;;;;;;;;;;;;;-46.83447;-72.73705;-124.988556;;1446.2
1613.0;1540.8;;;;;;;;;;;;;;1.6047853;-0.18640706;-0.23377179;;;;;1446.2
1613.0;1540.8;;;;;;;;;;;;;;;;;-36.107212;-68.89553;-124.988556;;1455.8
1613.0;1540.8;;;;;;;;;;;;;;1.5092623;-0.3122654;-0.18005921;;;;;1455.8
1613.0;1540.8;;;;;;;;;;;;;;;;;-29.053621;-65.34395;-124.988556;;1455.8
1613.0;1540.8;;;;;;;;;;;;;;1.4769127;-0.43250832;-0.17218544;;;;;1455.8
1613.0;1540.8;;;;;;;;;;;;;;;;;-23.018585;-58.679466;-124.988556;;1465.5
1613.0;1540.8;;;;;;;;;;;;;;1.4095889;-0.5155797;-0.14477982;;;;;1465.5
1613.0;1540.8;;;;;;;;;;;;;;;;;-13.927884;-53.937653;-124.98093;;1465.5
1613.0;1540.8;;;;;;;;;;;;;;1.287698;-0.58735925;-0.104617454;;;;;1465.5
1613.0;1547.6;;;;-0.84975064;0.16521074;-0.32533267;;;;;;;;;;;;;;;
1613.0;1547.6;;;;-0.8379785;0.16071703;-0.31126025;;;;;;;;;;;;;;;
1613.0;1547.6;;;;-0.8283807;0.15527345;-0.301487;;;;;;;;;;;;;;;
1613.0;1547.6;;;;-0.818802;0.1495743;-0.2897797;;;;;;;;;;;;;;;
1613.0;1547.6;;;;-0.8109666;0.14365007;-0.2728081;;;;;;;;;;;;;;;
1617.0;1555.3;;;;;;;;;;;;;;;;;-2.521592;-51.43513;-123.06207;;1475.1
1617.0;1555.3;;;;;;;;;;;;;;1.2059695;-0.67281103;-0.05511643;;;;;1475.1
1617.0;1555.3;;;;;;;;;;;;;;;;;1.9112216;-52.186653;-121.12033;;1475.1
1617.0;1555.3;;;;;;;;;;;;;;1.1709952;-0.62642294;-0.03564562;;;;;1475.1
1617.0;1555.3;;;;;;;;;;;;;;;;;0.45396283;-54.53658;-121.6277;;1484.7
1617.0;1555.3;;;;;;;;;;;;;;1.1751457;-0.55128634;-0.07202368;;;;;1484.7
1617.0;1555.3;;;;;;;;;;;;;;;;;1.003296;-58.050022;-111.095;;1484.7
1617.0;1555.3;;;;;;;;;;;;;;1.1569567;-0.5319376;-0.13696708;;;;;1484.7
1617.0;1555.3;;;;;;;;;;;;;;;;;-5.035554;-51.465652;-107.24967;;1494.4
1617.0;1555.3;;;;;;;;;;;;;;1.0922575;-0.3552965;-0.10296945;;;;;1494.4
1617.0;1555.3;;;;;;;;;;;;;;;;;-16.72033;-40.448467;-104.02234;;1494.4
1617.0;1555.3;;;;;;;;;;;;;;0.98409986;-0.25360882;-0.11938841;;;;;1494.4
1617.0;1557.5;;;;-0.8026811;0.13818742;-0.25651935;;;;;;;;;;;;;;;
1617.0;1557.5;;;;-0.7932359;0.13251878;-0.24484637;;;;;;;;;;;;;;;
1617.0;1557.5;;;;-0.78271115;0.12681963;-0.23598865;;;;;;;;;;;;;;;
1617.0;1557.5;;;;-0.77145016;0.12037279;-0.23041919;;;;;;;;;;;;;;;
1617.0;1557.5;;;;-0.75807583;0.11516191;-0.22493747;;;;;;;;;;;;;;;
1617.0;1559.8;262143;262143;11240;;;;;;;;;;;;;;;;;;
1617.0;1565.8;;;;;;;;;;;;;901;;;;;;;;
1617.0;1565.8;;;;;;;;;;;;;572;;;;;;;;
1617.0;1565.8;;;;;;;;;;;;;385;;;;;;;;
1617.0;1565.8;;;;;;;;;;;;;620;;;;;;;;
1617.0;1565.8;;;;;;;;;;;;;1119;;;;;;;;
1648.0;1567.5;;;;-0.7502328;0.11084749;-0.22202685;;;;;;;;;;;;;;;
1648.0;1567.5;;;;-0.7423859;0.10580446;-0.21934512;;;;;;;;;;;;;;;
1648.0;1567.5;;;;-0.73457724;0.10057832;-0.21555331;;;;;;;;;;;;;;;
1648.0;1567.5;;;;-0.7276078;0.095439926;-0.21182254;;;;;;;;;;;;;;;
1648.0;1567.5;;;;-0.7199822;0.09048081;-0.20879367;;;;;;;;;;;;;;;
1648.0;1577.4;;;;-0.7121926;0.08643342;-0.20610812;;;;;;;;;;;;;;;
1648.0;1577.4;;;;-0.70574194;0.0837288;-0.20899585;;;;;;;;;;;;;;;
1648.0;1577.4;;;;-0.6998673;0.08002091;-0.21316913;;;;;;;;;;;;;;;
1648.0;1577.4;;;;-0.692566;0.07571412;-0.21786502;;;;;;;;;;;;;;;
1648.0;1577.4;;;;-0.686142;0.07221223;-0.22244266;;;;;;;;;;;;;;;
1648.0;1579.8;262143;262143;11244;;;;;;;;;;;;;;;;;;
1648.0;1587.5;;;;-0.68282706;0.069465645;-0.22551349;;;;;;;;;;;;;;;
1648.0;1587.5;;;;-0.67931753;0.06653977;-0.22626117;;;;;;;;;;;;;;;
1648.0;1587.5;;;;-0.67760473;0.0637436;-0.22932056;;;;;;;;;;;;;;;
1648.0;1587.5;;;;-0.6754342;0.060234077;-0.23383334;;;;;;;;;;;;;;;
1648.0;1587.5;;;;-0.670456;0.056602485;-0.23638919;;;;;;;;;;;;;;;
1648.0;1597.6;;;;-0.6661797;0.054126747;-0.2388039;;;;;;;;;;;;;;;
1648.0;1597.6;;;;-0.66172415;0.051357277;-0.23914722;;;;;;;;;;;;;;;
1648.0;1597.6;;;;-0.6555291;0.048805244;-0.23840335;;;;;;;;;;;;;;;
1648.0;1597.6;;;;-0.6465226;0.046001438;-0.23686984;;;;;;;;;;;;;;;
1648.0;1597.6;;;;-0.63623816;0.043968204;-0.23481753;;;;;;;;;;;;;;;
1650.0;1600.5;;;;;;;;;;;;;;;;;-16.750847;-29.29014;-94.17631;;1504.1
1650.0;1600.5;;;;;;;;;;;;;;0.8949858;-0.19806513;-0.096377455;;;;;1504.1
1650.0;1600.5;;;;;;;;;;;;;;;;;-23.541216;-21.50029;-91.42582;;1504.1
1650.0;1600.5;;;;;;;;;;;;;;0.84090704;-0.079897456;-0.038392287;;;;;1504.1
1650.0;1600.5;;;;;;;;;;;;;;;;;-36.515396;-19.547104;-86.081276;;1513.7
1650.0;1600.5;;;;;;;;;;;;;;0.7701651;-0.11560412;-0.04443495;;;;;1513.7
1650.0;1600.5;;;;;;;;;;;;;;;;;-52.037872;-14.988402;-78.581345;;1513.7
1650.0;1600.5;;;;;;;;;;;;;;0.66652423;-0.073000275;0.049745172;;;;;1513.7
1650.0;1600.5;;;;;;;;;;;;;;;;;-71.79479;-28.199102;-76.60909;;1523.3
1650.0;1600.5;;;;;;;;;;;;;;0.72078615;-0.031373028;-0.033509325;;;;;1523.3
1650.0;1600.5;;;;;;;;;;;;;;;;;-85.00549;-20.123142;-72.24876;;1523.3
1650.0;1600.5;;;;;;;;;;;;;;0.8142949;-0.03668325;-0.0430311;;;;;1523.3
1650.0;1600.1;262143;262143;11246;;;;;;;;;;;;;;;;;;
1650.0;1605.9;;;;;;;;;;;;;1632;;;;;;;;
1650.0;1605.9;;;;;;;;;;;;;1931;;;;;;;;
1650.0;1605.9;;;;;;;;;;;;;2200;;;;;;;;
1650.0;1605.9;;;;;;;;;;;;;2605;;;;;;;;
1650.0;1605.9;;;;;;;;;;;;;2909;;;;;;;;
1650.0;1607.6;;;;-0.625084;0.042415623;-0.23055652;;;;;;;;;;;;;;;
1650.0;1607.6;;;;-0.61240774;0.041450504;-0.2250481;;;;;;;;;;;;;;;
1650.0;1607.6;;;;-0.59844595;0.03950501;-0.22048953;;;;;;;;;;;;;;;
1650.0;1607.6;;;;-0.5847207;0.037120823;-0.21644977;;;;;;;;;;;;;;;
1650.0;1607.6;;;;-0.5718613;0.035148624;-0.21504214;;;;;;;;;;;;;;;
1710.0;1615.7;;;;;;;;;;;;;;;;;-96.10279;1.9798884;-67.57943;;1532.9
1710.0;1615.7;;;;;;;;;;;;;;0.73757136;-0.050721765;0.07599109;;;;;1532.9
1710.0;1615.7;;;;;;;;;;;;;;;;;-104.6289;-2.4796288;-60.251167;;1532.9
1710.0;1615.7;;;;;;;;;;;;;;0.641377;-0.09363079;0.053102206;;;;;1532.9
1710.0;1615.7;;;;;;;;;;;;;;;;;-107.87912;-15.530107;-53.029724;;1542.6
1710.0;1615.7;;;;;;;;;;;;;;0.63252664;-0.12573627;-0.051026948;;;;;1542.6
1710.0;1615.7;;;;;;;;;;;;;;;;;-110.9653;-16.167181;-46.960358;;1542.6
1710.0;1615.7;;;;;;;;;;;;;;0.62965786;-0.14050722;-0.0827662;;;;;1542.6
1710.0;1615.7;;;;;;;;;;;;;;;;;-113.73867;-9.392072;-41.447952;;1552.2
1710.0;1615.7;;;;;;;;;;;;;;0.60463274;-0.15674306;-0.058229316;;;;;1552.2
1710.0;1615.7;;;;;;;;;;;;;;;;;-115.028076;0.6866665;-38.995026;;1552.2
1710.0;1615.7;;;;;;;;;;;;;;0.55604726;-0.14166692;-0.005920591;;;;;1552.2
1710.0;1617.3;;;;-0.5609055;0.03235245;-0.21348956;;;;;;;;;;;;;;;
1710.0;1617.3;;;;-0.5519791;0.028827671;-0.21234897;;;;;;;;;;;;;;;
1710.0;1617.3;;;;-0.54562384;0.025539402;-0.21270755;;;;;;;;;;;;;;;
1710.0;1617.3;;;;-0.54108053;0.021278383;-0.21605685;;;;;;;;;;;;;;;
1710.0;1617.3;;;;-0.53869635;0.016674044;-0.219574;;;;;;;;;;;;;;;
1710.0;1619.9;262143;262143;11261;;;;;;;;;;;;;;;;;;
1710.0;1627.3;;;;-0.5362473;0.011840822;-0.22235492;;;;;;;;;;;;;;;
1710.0;1627.3;;;;-0.5342904;0.007305146;-0.22569278;;;;;;;;;;;;;;;
1710.0;1627.3;;;;-0.53301245;0.0032043462;-0.23108676;;;;;;;;;;;;;;;
1710.0;1627.3;;;;-0.5335999;-0.0015487673;-0.23853686;;;;;;;;;;;;;;;
1710.0;1627.3;;;;-0.53548056;-0.0062408457;-0.24681094;;;;;;;;;;;;;;;
1712.0;1637.3;;;;-0.5392571;-0.010803224;-0.25646213;;;;;;;;;;;;;;;
1712.0;1637.3;;;;-0.54412466;-0.015102388;-0.2654648;;;;;;;;;;;;;;;
1712.0;1637.3;;;;-0.55032736;-0.019634249;-0.2751427;;;;;;;;;;;;;;;
1712.0;1637.3;;;;-0.5562249;-0.023910526;-0.2846947;;;;;;;;;;;;;;;
1712.0;1637.3;;;;-0.5603829;-0.027492527;-0.29295352;;;;;;;;;;;;;;;
1712.0;1639.9;262143;262143;11266;;;;;;;;;;;;;;;;;;
1712.0;1645.8;;;;;;;;;;;;;2981;;;;;;;;
1712.0;1645.8;;;;;;;;;;;;;2926;;;;;;;;
1712.0;1645.8;;;;;;;;;;;;;2701;;;;;;;;
1712.0;1645.8;;;;;;;;;;;;;2273;;;;;;;;
1712.0;1645.8;;;;;;;;;;;;;2170;;;;;;;;
1712.0;1647.4;;;;-0.5632439;-0.030838016;-0.30253986;;;;;;;;;;;;;;;
1712.0;1647.4;;;;-0.5646363;-0.034011845;-0.31168368;;;;;;;;;;;;;;;
1712.0;1647.4;;;;-0.56556326;-0.036758427;-0.3208504;;;;;;;;;;;;;;;
1712.0;1647.4;;;;-0.5658074;-0.038948063;-0.32971576;;;;;;;;;;;;;;;
1712.0;1647.4;;;;-0.56665045;-0.040397648;-0.33806995;;;;;;;;;;;;;;;
1712.0;1657.5;;;;-0.5678864;-0.041580204;-0.34495547;;;;;;;;;;;;;;;
1712.0;1657.5;;;;-0.5702668;-0.042465214;-0.35123447;;;;;;;;;;;;;;;
1712.0;1657.5;;;;-0.5733338;-0.043495182;-0.35742572;;;;;;;;;;;;;;;
1712.0;1657.5;;;;-0.5763512;-0.04427338;-0.36238864;;;;;;;;;;;;;;;
1712.0;1657.5;;;;-0.5801125;-0.044879917;-0.366066;;;;;;;;;;;;;;;
1714.0;1660.5;;;;;;;;;;;;;;;;;-114.978485;7.3931093;-37.03421;;1561.9
1714.0;1660.5;;;;;;;;;;;;;;0.49366742;-0.19556262;0.00695822;;;;;1561.9
1714.0;1660.5;;;;;;;;;;;;;;;;;-111.06067;9.163182;-34.218876;;1561.9
1714.0;1660.5;;;;;;;;;;;;;;0.44080934;-0.23554185;0.021362957;;;;;1561.9
1714.0;1660.5;;;;;;;;;;;;;;;;;-108.104195;6.7445908;-31.73162;;1571.4
1714.0;1660.5;;;;;;;;;;;;;;0.4213996;-0.26715904;-0.023865474;;;;;1571.4
1714.0;1660.5;;;;;;;;;;;;;;;;;-103.38526;6.7445908;-29.28251;;1571.4
1714.0;1660.5;;;;;;;;;;;;;;0.41376996;-0.29273355;-0.06683554;;;;;1571.4
1714.0;1660.5;;;;;;;;;;;;;;;;;-95.74801;9.903256;-26.161993;;1581.0
1714.0;1660.5;;;;;;;;;;;;;;0.36481827;-0.3452254;-0.05981628;;;;;1581.0
1714.0;1660.5;;;;;;;;;;;;;;;;;-86.17664;8.964812;-23.701437;;1581.0
1714.0;1660.5;;;;;;;;;;;;;;0.31116673;-0.36988434;-0.06524857;;;;;1581.0
1714.0;1660.1;262143;262143;11270;;;;;;;;;;;;;;;;;;
1714.0;1667.5;;;;-0.58461004;-0.045486454;-0.3699303;;;;;;;;;;;;;;;
1714.0;1667.5;;;;-0.58728796;-0.04571152;-0.37433627;;;;;;;;;;;;;;;
1714.0;1667.5;;;;-0.58863455;-0.04627991;-0.3784333;;;;;;;;;;;;;;;
1714.0;1667.5;;;;-0.59053427;-0.047126777;-0.38182837;;;;;;;;;;;;;;;
1714.0;1667.5;;;;-0.592907;-0.047912605;-0.38603216;;;;;;;;;;;;;;;
1715.0;1675.5;;;;;;;;;;;;;;;;;-75.350204;1.4839625;-21.320993;;1590.7
1715.0;1675.5;;;;;;;;;;;;;;0.27509385;-0.40192878;-0.13171789;;;;;1590.7
1715.0;1675.5;;;;;;;;;;;;;;;;;-62.64306;-5.0202947;-18.024994;;1590.7
1715.0;1675.5;;;;;;;;;;;;;;0.25519577;-0.42579424;-0.19031343;;;;;1590.7
1715.0;1675.5;;;;;;;;;;;;;;;;;-51.065094;-7.927183;-14.213996;;1600.4
1715.0;1675.5;;;;;;;;;;;;;;0.25037384;-0.44148076;-0.22247994;;;;;1600.4
1715.0;1675.5;;;;;;;;;;;;;;;;;-40.150913;-8.983886;-9.598072;;1600.4
1715.0;1675.5;;;;;;;;;;;;;;0.24958037;-0.45381024;-0.23749503;;;;;1600.4
1715.0;1675.5;;;;;;;;;;;;;;;;;-27.974028;-9.029664;-5.855739;;1610.0
1715.0;1675.5;;;;;;;;;;;;;;0.2501297;-0.4530778;-0.22247994;;;;;1610.0
1715.0;1675.5;;;;;;;;;;;;;;;;;-14.5039215;-9.235664;-2.6093326;;1610.0
1715.0;1675.5;;;;;;;;;;;;;;0.2562334;-0.43665883;-0.22553179;;;;;1610.0
1715.0;1677.4;;;;-0.59629446;-0.04841996;-0.38994986;;;;;;;;;;;;;;;
1715.0;1677.4;;;;-0.6020852;-0.04923249;-0.39425284;;;;;;;;;;;;;;;
1715.0;1677.4;;;;-0.6086617;-0.05013276;-0.39829642;;;;;;;;;;;;;;;
1715.0;1677.4;;;;-0.6145707;-0.05243302;-0.4035378;;;;;;;;;;;;;;;
1715.0;1677.4;;;;-0.61993796;-0.055171974;-0.40960318;;;;;;;;;;;;;;;
1715.0;1680.1;262143;262143;11275;;;;;;;;;;;;;;;;;;
1715.0;1685.9;;;;;;;;;;;;;3233;;;;;;;;
1715.0;1685.9;;;;;;;;;;;;;3632;;;;;;;;
1715.0;1685.9;;;;;;;;;;;;;-1574;;;;;;;;
1715.0;1685.9;;;;;;;;;;;;;-12488;;;;;;;;
1715.0;1685.9;;;;;;;;;;;;;-19265;;;;;;;;
1772.0;1687.4;;;;-0.6245881;-0.058479317;-0.41616827;;;;;;;;;;;;;;;
1772.0;1687.4;;;;-0.6270028;-0.061580665;-0.42184073;;;;;;;;;;;;;;;
1772.0;1687.4;;;;-0.6297417;-0.06476975;-0.42591864;;;;;;;;;;;;;;;
1772.0;1687.4;;;;-0.6323624;-0.06766892;-0.42753226;;;;;;;;;;;;;;;
1772.0;1687.4;;;;-0.6337357;-0.0697136;-0.42640692;;;;;;;;;;;;;;;
1772.0;1697.3;;;;-0.6346627;-0.0703888;-0.42462546;;;;;;;;;;;;;;;
1772.0;1697.3;;;;-0.636612;-0.06819535;-0.4239083;;;;;;;;;;;;;;;
1772.0;1697.3;;;;-0.6397248;-0.06497193;-0.42662436;;;;;;;;;;;;;;;
1772.0;1697.3;;;;-0.6446572;-0.06314088;-0.43098837;;;;;;;;;;;;;;;
1772.0;1697.3;;;;-0.649479;-0.062118538;-0.4376374;;;;;;;;;;;;;;;
1772.0;1700.1;262143;262143;11278;;;;;;;;;;;;;;;;;;
1772.0;1707.4;;;;-0.65600973;-0.061508186;-0.44674307;;;;;;;;;;;;;;;
1772.0;1707.4;;;;-0.66530997;-0.061019905;-0.4560166;;;;;;;;;;;;;;;
1772.0;1707.4;;;;-0.67670447;-0.06090165;-0.46493536;;;;;;;;;;;;;;;
1772.0;1707.4;;;;-0.68843085;-0.061855324;-0.47208792;;;;;;;;;;;;;;;
1772.0;1707.4;;;;-0.7001305;-0.06325913;-0.4785996;;;;;;;;;;;;;;;
1772.0;1717.5;;;;-0.71145636;-0.064559944;-0.48598868;;;;;;;;;;;;;;;
1772.0;1717.5;;;;-0.7231789;-0.06549836;-0.4950524;;;;;;;;;;;;;;;
1772.0;1717.5;;;;-0.7357407;-0.06627274;-0.50489813;;;;;;;;;;;;;;;
1772.0;1717.5;;;;-0.7482224;-0.06779099;-0.51614004;;;;;;;;;;;;;;;
1772.0;1717.5;;;;-0.76044095;-0.069084175;-0.5280915;;;;;;;;;;;;;;;
1789.0;1720.7;;;;;;;;;;;;;;;;;-4.139073;-7.965331;0.92318493;;1619.6
1789.0;1720.7;;;;;;;;;;;;;;0.2611774;-0.38801232;-0.24109623;;;;;1619.6
1789.0;1720.7;;;;;;;;;;;;;;;;;5.2110357;-6.302072;5.8061466;;1619.6
1789.0;1720.7;;;;;;;;;;;;;;0.2700278;-0.38935515;-0.26343578;;;;;1619.6
1789.0;1720.7;;;;;;;;;;;;;;;;;16.636404;-5.1538134;11.68096;;1629.1
1789.0;1720.7;;;;;;;;;;;;;;0.286874;-0.43702507;-0.27820674;;;;;1629.1
1789.0;1720.7;;;;;;;;;;;;;;;;;28.324991;-2.1401105;17.025513;;1629.1
1789.0;1720.7;;;;;;;;;;;;;;0.311655;-0.4829249;-0.25775933;;;;;1629.1
1789.0;1720.7;;;;;;;;;;;;;;;;;36.820583;3.1357768;22.648548;;1638.7
1789.0;1720.7;;;;;;;;;;;;;;0.32520524;-0.49385053;-0.20404676;;;;;1638.7
1789.0;1720.7;;;;;;;;;;;;;;;;;39.258247;9.235664;30.030212;;1638.7
1789.0;1720.7;;;;;;;;;;;;;;0.34125796;-0.49653614;-0.118533894;;;;;1638.7
1789.0;1720.3;262143;262143;11262;;;;;;;;;;;;;;;;;;
1792.0;1721.5;;;;;;;;;;;;;;;;;39.441357;11.967071;37.04184;;1648.4
1792.0;1721.5;;;;;;;;;;;;;;0.40449232;-0.4773095;-0.061159093;;;;;1648.4
1792.0;1721.5;;;;;;;;;;;;;;;;;38.857693;13.740958;43.755913;;1648.4
1792.0;1721.5;;;;;;;;;;;;;;0.47657704;-0.44477674;-0.031373028;;;;;1648.4
1792.0;1721.5;;;;;;;;;;;;;;;;;41.03595;13.626515;50.8095;;1658.1
1792.0;1721.5;;;;;;;;;;;;;;0.5415204;-0.4001587;-0.030152287;;;;;1658.1
1792.0;1721.5;;;;;;;;;;;;;;;;;46.506393;12.562181;57.508316;;1658.1
1792.0;1721.5;;;;;;;;;;;;;;0.6584063;-0.2923673;-0.06042665;;;;;1658.1
1792.0;1721.5;;;;;;;;;;;;;;;;;51.461838;23.075808;61.326942;;1667.6
1792.0;1721.5;;;;;;;;;;;;;;0.8646504;-0.071535386;-0.04058962;;;;;1667.6
1792.0;1721.5;;;;;;;;;;;;;;;;;49.36369;55.600906;62.715538;;1667.6
1792.0;1721.5;;;;;;;;;;;;;;1.0142522;0.09228797;0.11487167;;;;;1667.6
1792.0;1726.0;;;;;;;;;;;;;-12543;;;;;;;;
1792.0;1726.0;;;;;;;;;;;;;3471;;;;;;;;
1792.0;1726.0;;;;;;;;;;;;;14891;;;;;;;;
1792.0;1726.0;;;;;;;;;;;;;14376;;;;;;;;
1792.0;1726.0;;;;;;;;;;;;;7662;;;;;;;;
1792.0;1727.5;;;;-0.77393353;-0.07066346;-0.54110724;;;;;;;;;;;;;;;
1792.0;1727.5;;;;-0.7872964;-0.07179261;-0.55362326;;;;;;;;;;;;;;;
1792.0;1727.5;;;;-0.8000604;-0.07234574;-0.56568915;;;;;;;;;;;;;;;
1792.0;1727.5;;;;-0.81305325;-0.073673256;-0.5785752;;;;;;;;;;;;;;;
1792.0;1727.5;;;;-0.825245;-0.07436753;-0.5899964;;;;;;;;;;;;;;;
1792.0;1737.2;;;;;;;;;;0.6981109;17.097994;-2.822962;;;;;;;;;
1792.0;1737.2;;;;;;;0.43275246;-0.06390576;-0.25336465;;;;;;;;;;;;
1792.0;1737.2;;;;;;;;;;8.060701;31.20136;9.144109;;;;;;;;;
1792.0;1737.2;;;;;;;0.48609883;-0.07196265;-0.2912076;;;;;;;;;;;;
1826.0;1737.5;;;;-0.8371316;-0.0744629;-0.6004067;;;;;;;;;;;;;;;
1826.0;1737.5;;;;-0.84762967;-0.0748787;-0.6092873;;;;;;;;;;;;;;;
1826.0;1737.5;;;;-0.85570157;-0.07482148;-0.61731726;;;;;;;;;;;;;;;
1826.0;1737.5;;;;-0.8634225;-0.074623115;-0.62527853;;;;;;;;;;;;;;;
1826.0;1737.5;;;;-0.8731729;-0.07358552;-0.6332703;;;;;;;;;;;;;;;
1826.0;1740.3;262143;262143;11255;;;;;;;;;;;;;;;;;;
1826.0;1746.7;;;;;;;;;;0.7248146;7.0688496;-2.1095922;;;;;;;;;
1826.0;1746.7;;;;;;;0.48860133;-0.07275613;-0.30231637;;;;;;;;;;;;
1826.0;1746.7;;;;;;;;;;2.3422956;22.923216;2.7771842;;;;;;;;;
1826.0;1746.7;;;;;;;0.49201941;-0.072878204;-0.3136082;;;;;;;;;;;;
1826.0;1747.5;;;;-0.8815042;-0.073444374;-0.63828665;;;;;;;;;;;;;;;
1826.0;1747.5;;;;-0.88853467;-0.074386604;-0.64423376;;;;;;;;;;;;;;;
1826.0;1747.5;;;;-0.89460766;-0.075523384;-0.6513367;;;;;;;;;;;;;;;
1826.0;1747.5;;;;-0.89958966;-0.076278694;-0.6578103;;;;;;;;;;;;;;;
1826.0;1747.5;;;;-0.90384305;-0.07682801;-0.6618348;;;;;;;;;;;;;;;
1826.0;1756.2;;;;;;;;;;0.06103702;28.668325;0.038148135;;;;;;;;;
1826.0;1756.2;;;;;;;0.49653614;-0.07574694;-0.3279519;;;;;;;;;;;;
1826.0;1756.2;;;;;;;;;;-7.160405;-2.2965178;-23.857845;;;;;;;;;
1826.0;1756.2;;;;;;;0.5010529;-0.07904294;-0.34644613;;;;;;;;;;;;
1828.0;1757.4;;;;-0.90662014;-0.076652534;-0.6647416;;;;;;;;;;;;;;;
1828.0;1757.4;;;;-0.9091569;-0.07670594;-0.66647345;;;;;;;;;;;;;;;
1828.0;1757.4;;;;-0.91209805;-0.07628632;-0.66940695;;;;;;;;;;;;;;;
1828.0;1757.4;;;;-0.91510403;-0.076084144;-0.67290884;;;;;;;;;;;;;;;
1828.0;1757.4;;;;-0.918892;-0.07577134;-0.67631155;;;;;;;;;;;;;;;
1828.0;1760.3;262143;262143;11248;;;;;;;;;;;;;;;;;;
1828.0;1765.8;;;;;;;;;;-9.071627;1.2855922;-27.60399;;;;;;;;;
1828.0;1765.8;;;;;;;0.5083773;-0.08233894;-0.36121708;;;;;;;;;;;;
1828.0;1765.8;;;;;;;;;;-10.601367;4.989776;-30.873287;;;;;;;;;
1828.0;1765.8;;;;;;;0.52571183;-0.08374279;-0.37397382;;;;;;;;;;;;
1828.0;1766.2;;;;;;;;;;;;;3515;;;;;;;;
1828.0;1766.2;;;;;;;;;;;;;3242;;;;;;;;
1828.0;1766.2;;;;;;;;;;;;;3325;;;;;;;;
1828.0;1766.2;;;;;;;;;;;;;2694;;;;;;;;
1828.0;1766.2;;;;;;;;;;;;;2248;;;;;;;;
1828.0;1767.5;;;;-0.92136776;-0.07543946;-0.68009573;;;;;;;;;;;;;;;
1828.0;1767.5;;;;-0.9228593;-0.07483292;-0.6841851;;;;;;;;;;;;;;;
1828.0;1767.5;;;;-0.923092;-0.074817665;-0.6877709;;;;;;;;;;;;;;;
1828.0;1767.5;;;;-0.9231912;-0.074501045;-0.6909943;;;;;;;;;;;;;;;
1828.0;1767.5;;;;-0.9220735;-0.07372285;-0.69380957;;;;;;;;;;;;;;;
1828.0;1775.5;;;;;;;;;;-11.98996;15.717033;-27.63451;;;;;;;;;
1828.0;1775.5;;;;;;;0.54396194;-0.08716086;-0.38721886;;;;;;;;;;;;
1828.0;1775.5;;;;;;;;;;-12.020478;24.338512;-21.328623;;;;;;;;;
1828.0;1775.5;;;;;;;0.5632496;-0.08832057;-0.39875484;;;;;;;;;;;;
1829.0;1777.7;;;;-0.92084897;-0.07365418;-0.69619757;;;;;;;;;;;;;;;
1829.0;1777.7;;;;-0.92019665;-0.07347489;-0.6990319;;;;;;;;;;;;;;;
1829.0;1777.7;;;;-0.9205438;-0.07291032;-0.7015076;;;;;;;;;;;;;;;
1829.0;1777.7;;;;-0.9219018;-0.0719719;-0.7030602;;;;;;;;;;;;;;;
1829.0;1777.7;;;;-0.9238359;-0.070270546;-0.7044564;;;;;;;;;;;;;;;
1829.0;1780.6;262143;262143;11238;;;;;;;;;;;;;;;;;;
1829.0;1781.4;;;;;;;;;;;;;;;;;49.50865;89.491714;55.860317;;1677.3
1829.0;1781.4;;;;;;;;;;;;;;1.068392;0.29230627;0.26410717;;;;;1677.3
1829.0;1781.4;;;;;;;;;;;;;;;;;56.74917;98.12464;42.851803;;1677.3
1829.0;1781.4;;;;;;;;;;;;;;1.0049134;0.484756;0.22296824;;;;;1677.3
1829.0;1781.4;;;;;;;;;;;;;;;;;67.94564;76.58239;20.237587;;1686.7
1829.0;1781.4;;;;;;;;;;;;;;1.0313425;0.7475814;-0.10095523;;;;;1686.7
1829.0;1781.4;;;;;;;;;;;;;;;;;85.59298;40.017395;-9.022035;;1686.7
1829.0;1781.4;;;;;;;;;;;;;;1.1357158;1.0997651;-0.60951567;;;;;1686.7
1829.0;1781.4;;;;;;;;;;;;;;;;;112.399666;-4.8257394;-35.096287;;1696.4
1829.0;1781.4;;;;;;;;;;;;;;1.2485733;1.3763237;-1.1215552;;;;;1696.4
1829.0;1781.4;;;;;;;;;;;;;;;;;122.802666;-43.370617;-57.611317;;1696.4
1829.0;1781.4;;;;;;;;;;;;;;1.4224067;1.6918851;-1.4919279;;;;;1696.4
1832.0;1782.1;;;;;;;;;;;;;;;;;116.039;-54.662468;-61.037018;;1706.1
1832.0;1782.1;;;;;;;;;;;;;;1.4592731;1.5722525;-1.6691793;;;;;1706.1
1832.0;1782.1;;;;;;;;;;;;;;;;;105.4796;-45.785393;-59.354687;;1706.1
1832.0;1782.1;;;;;;;;;;;;;;1.5734733;1.705008;-1.41142;;;;;1706.1
1832.0;1782.1;;;;;;;;;;;;;;;;;33.177437;-17.769402;-48.852505;;1715.7
1832.0;1782.1;;;;;;;;;;;;;;1.7582934;1.6432997;-1.1645253;;;;;1715.7
1832.0;1782.1;;;;;;;;;;;;;;;;;-42.165134;2.9221473;-25.650806;;1715.7
1832.0;1782.1;;;;;;;;;;;;;;1.9313943;1.518479;-0.8980987;;;;;1715.7
1832.0;1782.1;;;;;;;;;;;;;;;;;-96.42323;2.8420362;6.6835537;;1725.3
1832.0;1782.1;;;;;;;;;;;;;;1.7534105;0.8899808;-0.8297983;;;;;1725.3
1832.0;1782.1;;;;;;;;;;;;;;;;;-122.27241;-1.5068514;7.019257;;1725.3
1832.0;1782.1;;;;;;;;;;;;;;1.5083468;0.83639026;-0.8604389;;;;;1725.3
1832.0;1785.0;;;;;;;;;;-11.280404;23.915068;-20.718252;;;;;;;;;
1832.0;1785.0;;;;;;;0.5818659;-0.08783227;-0.402295;;;;;;;;;;;;
1832.0;1785.0;;;;;;;;;;-10.498367;23.457289;-20.069735;;;;;;;;;
1832.0;1785.0;;;;;;;0.5962096;-0.09338664;-0.40241706;;;;;;;;;;;;
1832.0;1787.6;;;;-0.92651;-0.068443306;-0.70566946;;;;;;;;;;;;;;;
1832.0;1787.6;;;;-0.9299928;-0.06642533;-0.7054406;;;;;;;;;;;;;;;
1832.0;1787.6;;;;-0.93319714;-0.06476975;-0.7039872;;;;;;;;;;;;;;;
1832.0;1787.6;;;;-0.93662655;-0.062473305;-0.70343786;;;;;;;;;;;;;;;
1832.0;1787.6;;;;-0.9384767;-0.06006623;-0.70164114;;;;;;;;;;;;;;;
1832.0;1794.6;;;;;;;;;;-9.697257;22.93466;-19.26481;;;;;;;;;
1832.0;1794.6;;;;;;;0.60408336;-0.10077212;-0.402295;;;;;;;;;;;;
1832.0;1794.6;;;;;;;;;;-8.754997;22.392956;-18.44081;;;;;;;;;
1832.0;1794.6;;;;;;;0.6049379;-0.108401746;-0.39954832;;;;;;;;;;;;
1890.0;1797.6;;;;-0.93981564;-0.058055885;-0.6996346;;;;;;;;;;;;;;;
1890.0;1797.6;;;;-0.94036496;-0.05591584;-0.6989365;;;;;;;;;;;;;;;
1890.0;1797.6;;;;-0.9411317;-0.054904945;-0.6982537;;;;;;;;;;;;;;;
1890.0;1797.6;;;;-0.94277585;-0.054603584;-0.69923025;;;;;;;;;;;;;;;
1890.0;1797.6;;;;-0.94583523;-0.05471421;-0.7008477;;;;;;;;;;;;;;;
1890.0;1800.6;262143;262143;11239;;;;;;;;;;;;;;;;;;
1890.0;1804.1;;;;;;;;;;-7.656331;21.584217;-17.61681;;;;;;;;;
1890.0;1804.1;;;;;;;0.60353404;-0.1098056;-0.3947264;;;;;;;;;;;;
1890.0;1804.1;;;;;;;;;;-6.633961;20.626698;-16.434217;;;;;;;;;
1890.0;1804.1;;;;;;;0.5987732;-0.10992767;-0.39692372;;;;;;;;;;;;
1890.0;1806.4;;;;;;;;;;;;;2035;;;;;;;;
1890.0;1806.4;;;;;;;;;;;;;1858;;;;;;;;
1890.0;1806.4;;;;;;;;;;;;;1687;;;;;;;;
1890.0;1806.4;;;;;;;;;;;;;1413;;;;;;;;
1890.0;1806.4;;;;;;;;;;;;;1028;;;;;;;;
1890.0;1807.7;;;;-0.9511758;-0.055854805;-0.7024422;;;;;;;;;;;;;;;
1890.0;1807.7;;;;-0.95739377;-0.056537636;-0.70465094;;;;;;;;;;;;;;;
1890.0;1807.7;;;;-0.96413434;-0.057342537;-0.70777136;;;;;;;;;;;;;;;
1890.0;1807.7;;;;-0.97151196;-0.058536537;-0.71226126;;;;;;;;;;;;;;;
1890.0;1807.7;;;;-0.980652;-0.059085853;-0.71692663;;;;;;;;;;;;;;;
1890.0;1813.4;;;;;;;;;;-5.706961;20.119328;-15.278329;;;;;;;;;
1890.0;1813.4;;;;;;;0.6041444;-0.10876797;-0.4062624;;;;;;;;;;;;
1890.0;1813.4;;;;;;;;;;-4.589221;19.886623;-14.6641445;;;;;;;;;
1890.0;1813.4;;;;;;;0.6140934;-0.11133152;-0.4135258;;;;;;;;;;;;
1892.0;1817.5;;;;-0.9906045;-0.059032448;-0.7231446;;;;;;;;;;;;;;;
1892.0;1817.5;;;;-1.0013467;-0.05837632;-0.7318955;;;;;;;;;;;;;;;
1892.0;1817.5;;;;-1.0131723;-0.056644447;-0.7412415;;;;;;;;;;;;;;;
1892.0;1817.5;;;;-1.024254;-0.054458626;-0.7504693;;;;;;;;;;;;;;;
1892.0;1817.5;;;;-1.0351144;-0.05108262;-0.76036465;;;;;;;;;;;;;;;
1892.0;1820.6;262143;262143;11213;;;;;;;;;;;;;;;;;;
1892.0;1823.0;;;;;;;;;;-3.1205175;19.61577;-14.481033;;;;;;;;;
1892.0;1823.0;;;;;;;0.62611777;-0.112125;-0.4252449;;;;;;;;;;;;
1892.0;1823.0;;;;;;;;;;-1.5678884;19.989624;-14.080477;;;;;;;;;
1892.0;1823.0;;;;;;;0.65517133;-0.11175878;-0.43531603;;;;;;;;;;;;
1892.0;1827.6;;;;-1.0455552;-0.046382908;-0.7700006;;;;;;;;;;;;;;;
1892.0;1827.6;;;;-1.0546685;-0.04121018;-0.780655;;;;;;;;;;;;;;;
1892.0;1827.6;;;;-1.0627862;-0.034839634;-0.79109204;;;;;;;;;;;;;;;
1892.0;1827.6;;;;-1.0696603;-0.028186802;-0.8027307;;;;;;;;;;;;;;;
1892.0;1827.6;;;;-1.0761567;-0.020828249;-0.8141061;;;;;;;;;;;;;;;
1892.0;1832.7;;;;;;;;;;0.08774071;20.237587;-13.554033;;;;;;;;;
1892.0;1832.7;;;;;;;0.67555773;-0.10821863;-0.4570452;;;;;;;;;;;;
1892.0;1832.7;;;;;;;;;;1.9989624;19.661549;-12.951292;;;;;;;;;
1892.0;1832.7;;;;;;;0.69228184;-0.1048616;-0.48316905;;;;;;;;;;;;
1893.0;1837.7;;;;-1.0824815;-0.013545992;-0.8253099;;;;;;;;;;;;;;;
1893.0;1837.7;;;;-1.0888749;-0.006992341;-0.8372041;;;;;;;;;;;;;;;
1893.0;1837.7;;;;-1.0955583;-3.089905E-4;-0.8487779;;;;;;;;;;;;;;;
1893.0;1837.7;;;;-1.1020166;0.0051651006;-0.85948193;;;;;;;;;;;;;;;
1893.0;1837.7;;;;-1.1086046;0.009483338;-0.86991894;;;;;;;;;;;;;;;
1893.0;1841.1;;;;;;;;;;;;;;;;;-124.988556;-3.1968138;0.30518508;;1735.0
1893.0;1841.1;;;;;;;;;;;;;;1.2443618;0.74691;-0.80581075;;;;;1735.0
1893.0;1841.1;;;;;;;;;;;;;;;;;-124.988556;-8.552812;-6.4622946;;1735.0
1893.0;1841.1;;;;;;;;;;;;;;0.9966124;0.6024964;-0.74111146;;;;;1735.0
1893.0;1841.1;;;;;;;;;;;;;;;;;-124.988556;-15.175328;-13.447219;;1744.6
1893.0;1841.1;;;;;;;;;;;;;;0.7729118;0.44575334;-0.68709373;;;;;1744.6
1893.0;1841.1;;;;;;;;;;;;;;;;;-124.75585;-22.335733;-16.277811;;1744.6
1893.0;1841.1;;;;;;;;;;;;;;0.63582265;0.23999757;-0.63106173;;;;;1744.6
1893.0;1841.1;;;;;;;;;;;;;;;;;-118.54153;-28.073214;-14.587848;;1754.0
1893.0;1841.1;;;;;;;;;;;;;;0.573748;0.053407393;-0.5236976;;;;;1754.0
1893.0;1841.1;;;;;;;;;;;;;;;;;-106.37608;-32.20466;-9.250923;;1754.0
1893.0;1841.1;;;;;;;;;;;;;;0.553911;-0.12518692;-0.36695457;;;;;1754.0
1893.0;1840.8;262143;262143;11202;;;;;;;;;;;;;;;;;;
1894.0;1841.9;;;;;;;;;;;;;;;;;-94.042786;-35.161137;-0.6637776;;1763.7
1894.0;1841.9;;;;;;;;;;;;;;0.63356423;-0.31086153;-0.20209357;;;;;1763.7
1894.0;1841.9;;;;;;;;;;;;;;;;;-77.208015;-36.04236;12.29896;;1763.7
1894.0;1841.9;;;;;;;;;;;;;;0.873867;-0.46986297;-0.11780145;;;;;1763.7
1894.0;1841.9;;;;;;;;;;;;;;;;;-59.08002;-25.101473;30.20188;;1773.4
1894.0;1841.9;;;;;;;;;;;;;;1.1353496;-0.6063417;-0.051759392;;;;;1773.4
1894.0;1841.9;;;;;;;;;;;;;;;;;-49.035618;-9.884182;41.20762;;1773.4
1894.0;1841.9;;;;;;;;;;;;;;1.357097;-0.6732994;0.019837031;;;;;1773.4
1894.0;1841.9;;;;;;;;;;;;;;;;;-37.751396;-15.408032;44.01151;;1783.1
1894.0;1841.9;;;;;;;;;;;;;;1.5093844;-0.63344216;-0.03503525;;;;;1783.1
1894.0;1841.9;;;;;;;;;;;;;;;;;-21.683401;-35.668507;46.49495;;1783.1
1894.0;1841.9;;;;;;;;;;;;;;1.5254372;-0.5824152;-0.11767937;;;;;1783.1
1894.0;1842.0;;;;;;;;;;4.299295;19.226662;-12.283701;;;;;;;;;
1894.0;1842.0;;;;;;;0.71480453;-0.10876797;-0.5088046;;;;;;;;;;;;
1894.0;1842.0;;;;;;;;;;6.5881834;18.63155;-12.050997;;;;;;;;;
1894.0;1842.0;;;;;;;0.7298807;-0.118228704;-0.5381024;;;;;;;;;;;;
1894.0;1846.4;;;;;;;;;;;;;612;;;;;;;;
1894.0;1846.4;;;;;;;;;;;;;207;;;;;;;;
1894.0;1846.4;;;;;;;;;;;;;-200;;;;;;;;
1894.0;1846.4;;;;;;;;;;;;;-680;;;;;;;;
1894.0;1846.4;;;;;;;;;;;;;-1254;;;;;;;;
1894.0;1847.6;;;;-1.113598;0.013290407;-0.879387;;;;;;;;;;;;;;;
1894.0;1847.6;;;;-1.1175462;0.016227724;-0.8865243;;;;;;;;;;;;;;;
1894.0;1847.6;;;;-1.1201898;0.019046785;-0.892624;;;;;;;;;;;;;;;
1894.0;1847.6;;;;-1.1219407;0.021190645;-0.89779675;;;;;;;;;;;;;;;
1894.0;1847.6;;;;-1.1227037;0.023197176;-0.9017564;;;;;;;;;;;;;;;
1948.0;1851.6;;;;;;;;;;8.758812;17.960142;-11.940367;;;;;;;;;
1948.0;1851.6;;;;;;;0.7455672;-0.12555315;-0.5645314;;;;;;;;;;;;
1948.0;1851.6;;;;;;;;;;11.0400715;17.773216;-11.5970335;;;;;;;;;
1948.0;1851.6;;;;;;;0.7653432;-0.1350139;-0.58876306;;;;;;;;;;;;
1948.0;1857.6;;;;-1.1252328;0.024990086;-0.9031488;;;;;;;;;;;;;;;
1948.0;1857.6;;;;-1.1254388;0.025798801;-0.9042741;;;;;;;;;;;;;;;
1948.0;1857.6;;;;-1.1244088;0.026393894;-0.9045373;;;;;;;;;;;;;;;
1948.0;1857.6;;;;-1.1246301;0.026714329;-0.90225995;;;;;;;;;;;;;;;
1948.0;1857.6;;;;-1.1234437;0.026966099;-0.89914334;;;;;;;;;;;;;;;
1948.0;1861.2;;;;;;;;;;13.286996;18.215734;-11.322367;;;;;;;;;
1948.0;1861.2;;;;;;;0.7879879;-0.14539018;-0.6088443;;;;;;;;;;;;
1948.0;1861.2;;;;;;;;;;15.640736;19.077885;-11.059145;;;;;;;;;
1948.0;1861.2;;;;;;;0.8098392;-0.15332499;-0.6201972;;;;;;;;;;;;
1948.0;1860.7;262143;262143;11184;;;;;;;;;;;;;;;;;;
1948.0;1867.7;;;;-1.1214067;0.027225498;-0.89593136;;;;;;;;;;;;;;;
1948.0;1867.7;;;;-1.1179048;0.027076725;-0.89195263;;;;;;;;;;;;;;;
1948.0;1867.7;;;;-1.112526;0.027679447;-0.88666165;;;;;;;;;;;;;;;
1948.0;1867.7;;;;-1.1064492;0.028213505;-0.88010037;;;;;;;;;;;;;;;
1948.0;1867.7;;;;-1.0993081;0.029178623;-0.8730546;;;;;;;;;;;;;;;
1948.0;1870.6;;;;;;;;;;18.055513;19.627216;-10.433516;;;;;;;;;
1948.0;1870.6;;;;;;;0.827662;-0.16150396;-0.626545;;;;;;;;;;;;
1948.0;1870.6;;;;;;;;;;20.531326;19.772179;-9.208961;;;;;;;;;
1948.0;1870.6;;;;;;;0.84426403;-0.16986603;-0.62892544;;;;;;;;;;;;
1952.0;1877.5;;;;-1.0921975;0.03010178;-0.86550915;;;;;;;;;;;;;;;
1952.0;1877.5;;;;-1.085766;0.030910496;-0.85668576;;;;;;;;;;;;;;;
1952.0;1877.5;;;;-1.0797883;0.031284336;-0.8467523;;;;;;;;;;;;;;;
1952.0;1877.5;;;;-1.0739938;0.031291965;-0.83704007;;;;;;;;;;;;;;;
1952.0;1877.5;;;;-1.0678712;0.030773167;-0.82719815;;;;;;;;;;;;;;;
1952.0;1880.1;;;;;;;;;;23.098696;18.787958;-7.854701;;;;;;;;;
1952.0;1880.1;;;;;;;0.85586107;-0.17731254;-0.6241646;;;;;;;;;;;;
1952.0;1880.1;;;;;;;;;;25.601213;16.434217;-6.557665;;;;;;;;;
1952.0;1880.1;;;;;;;0.8631245;-0.17719047;-0.61940366;;;;;;;;;;;;
1952.0;1880.7;262143;262143;11184;;;;;;;;;;;;;;;;;;
1952.0;1886.5;;;;;;;;;;;;;-1715;;;;;;;;
1952.0;1886.5;;;;;;;;;;;;;-1947;;;;;;;;
1952.0;1886.5;;;;;;;;;;;;;-1892;;;;;;;;
1952.0;1886.5;;;;;;;;;;;;;-1549;;;;;;;;
1952.0;1886.5;;;;;;;;;;;;;-1174;;;;;;;;
1952.0;1887.6;;;;-1.061905;0.029617313;-0.81652844;;;;;;;;;;;;;;;
1952.0;1887.6;;;;-1.0556909;0.028430942;-0.8056222;;;;;;;;;;;;;;;
1952.0;1887.6;;;;-1.0489465;0.027629856;-0.79379666;;;;;;;;;;;;;;;
1952.0;1887.6;;;;-1.0419694;0.026607517;-0.78110516;;;;;;;;;;;;;;;
1952.0;1887.6;;;;-1.0341722;0.02548981;-0.7682878;;;;;;;;;;;;;;;
1952.0;1889.7;;;;;;;;;;27.459028;12.928404;-5.123295;;;;;;;;;
1952.0;1889.7;;;;;;;0.87820065;-0.17578661;-0.6268502;;;;;;;;;;;;
1952.0;1889.7;;;;;;;;;;28.683584;8.823664;-3.8872952;;;;;;;;;
1952.0;1889.7;;;;;;;0.89834285;-0.17322306;-0.63777584;;;;;;;;;;;;
1953.0;1897.7;;;;-1.0262109;0.025085453;-0.7549325;;;;;;;;;;;;;;;
1953.0;1897.7;;;;-1.0176393;0.023899082;-0.7411538;;;;;;;;;;;;;;;
1953.0;1897.7;;;;-1.0087739;0.02282715;-0.7278748;;;;;;;;;;;;;;;
1953.0;1897.7;;;;-1.0003816;0.021411898;-0.7158547;;;;;;;;;;;;;;;
1953.0;1897.7;;;;-0.99204266;0.019138338;-0.7054978;;;;;;;;;;;;;;;
1953.0;1899.4;;;;;;;;;;29.988249;4.4518876;-3.051851;;;;;;;;;
1953.0;1899.4;;;;;;;0.9095737;-0.17468795;-0.63472396;;;;;;;;;;;;
1953.0;1899.4;;;;;;;;;;31.292915;-0.2517777;-2.1019626;;;;;;;;;
1953.0;1899.4;;;;;;;0.9123203;-0.1760918;-0.6288644;;;;;;;;;;;;
1953.0;1901.6;;;;;;;;;;;;;;;;;-20.050661;-45.953243;52.552876;;1792.7
1953.0;1901.6;;;;;;;;;;;;;;1.413068;-0.56971955;-0.113773;;;;;1792.7
1953.0;1901.6;;;;;;;;;;;;;;;;;-36.709953;-34.84832;58.938873;;1792.7
1953.0;1901.6;;;;;;;;;;;;;;1.3199255;-0.5906552;0.09656057;;;;;1792.7
1953.0;1901.6;;;;;;;;;;;;;;;;;-63.783684;-18.650625;61.74276;;1802.1
1953.0;1901.6;;;;;;;;;;;;;;1.2904446;-0.65779597;0.2491531;;;;;1802.1
1953.0;1901.6;;;;;;;;;;;;;;;;;-79.05057;-13.000885;58.187355;;1802.1
1953.0;1901.6;;;;;;;;;;;;;;1.3410443;-0.68202764;0.2164983;;;;;1802.1
1953.0;1901.6;;;;;;;;;;;;;;;;;-54.94476;-28.122807;40.83758;;1811.6
1953.0;1901.6;;;;;;;;;;;;;;1.4893032;-0.38660848;-0.061586354;;;;;1811.6
1953.0;1901.6;;;;;;;;;;;;;;;;;1.7967772;-52.831356;16.48381;;1811.6
1953.0;1901.6;;;;;;;;;;;;;;1.5577258;-0.006714072;-0.48335215;;;;;1811.6
1953.0;1901.0;262143;262143;11171;;;;;;;;;;;;;;;;;;
1954.0;1902.3;;;;;;;;;;;;;;;;;58.31706;-73.61446;-5.7832575;;1821.3
1954.0;1902.3;;;;;;;;;;;;;;1.5624866;0.23480941;-0.7680288;;;;;1821.3
1954.0;1902.3;;;;;;;;;;;;;;;;;88.98052;-83.19727;-24.58266;;1821.3
1954.0;1902.3;;;;;;;;;;;;;;1.5837885;0.41999573;-0.70711386;;;;;1821.3
1954.0;1902.3;;;;;;;;;;;;;;;;;80.00046;-76.43361;-38.666954;;1831.0
1954.0;1902.3;;;;;;;;;;;;;;1.5988647;0.48994416;-0.4156621;;;;;1831.0
1954.0;1902.3;;;;;;;;;;;;;;;;;39.74273;-50.569168;-49.134804;;1831.0
1954.0;1902.3;;;;;;;;;;;;;;1.6002686;0.5612964;-0.045838803;;;;;1831.0
1954.0;1902.3;;;;;;;;;;;;;;;;;-17.906734;-23.174994;-42.626728;;1840.7
1954.0;1902.3;;;;;;;;;;;;;;1.5394757;0.5404828;0.1391644;;;;;1840.7
1954.0;1902.3;;;;;;;;;;;;;;;;;-53.727837;8.79696;-13.973662;;1840.7
1954.0;1902.3;;;;;;;;;;;;;;1.2551652;0.04687643;0.16449477;;;;;1840.7
1954.0;1907.6;;;;-0.984913;0.016769411;-0.6959496;;;;;;;;;;;;;;;
1954.0;1907.6;;;;-0.9786531;0.014175417;-0.688984;;;;;;;;;;;;;;;
1954.0;1907.6;;;;-0.9722787;0.010959626;-0.6832085;;;;;;;;;;;;;;;
1954.0;1907.6;;;;-0.96714413;0.007461549;-0.6781159;;;;;;;;;;;;;;;
1954.0;1907.6;;;;-0.96219647;0.0038185124;-0.6736451;;;;;;;;;;;;;;;
1954.0;1908.6;;;;;;;;;;32.311474;-5.0851464;-0.8735923;;;;;;;;;
1954.0;1908.6;;;;;;;0.9172033;-0.17358929;-0.62892544;;;;;;;;;;;;
1954.0;1908.6;;;;;;;;;;33.082066;-9.781182;0.2517777;;;;;;;;;
1954.0;1908.6;;;;;;;0.9288614;-0.16321298;-0.6295358;;;;;;;;;;;;
2008.0;1917.5;;;;-0.95705044;3.5858157E-4;-0.67050177;;;;;;;;;;;;;;;
2008.0;1917.5;;;;-0.9521905;-0.00416565;-0.66836935;;;;;;;;;;;;;;;
2008.0;1917.5;;;;-0.9476205;-0.00933838;-0.66691977;;;;;;;;;;;;;;;
2008.0;1917.5;;;;-0.9438821;-0.014686586;-0.66639715;;;;;;;;;;;;;;;
2008.0;1917.5;;;;-0.9419404;-0.019954683;-0.6666375;;;;;;;;;;;;;;;
2008.0;1918.1;;;;;;;;;;33.80688;-14.507736;1.1444441;;;;;;;;;
2008.0;1918.1;;;;;;;0.94424266;-0.14972381;-0.6353343;;;;;;;;;;;;
2008.0;1918.1;;;;;;;;;;34.73388;-19.001587;1.865444;;;;;;;;;
2008.0;1918.1;;;;;;;0.9632252;-0.13623463;-0.64546645;;;;;;;;;;;;
2008.0;1920.8;262143;262143;11167;;;;;;;;;;;;;;;;;;
2008.0;1926.5;;;;;;;;;;;;;-858;;;;;;;;
2008.0;1926.5;;;;;;;;;;;;;-399;;;;;;;;
2008.0;1926.5;;;;;;;;;;;;;340;;;;;;;;
2008.0;1926.5;;;;;;;;;;;;;1234;;;;;;;;
2008.0;1926.5;;;;;;;;;;;;;2018;;;;;;;;
2008.0;1927.4;;;;-0.9418336;-0.024978641;-0.6683846;;;;;;;;;;;;;;;
2008.0;1927.4;;;;-0.9424859;-0.029567722;-0.6710358;;;;;;;;;;;;;;;
2008.0;1927.4;;;;-0.944378;-0.03344727;-0.6748963;;;;;;;;;;;;;;;
2008.0;1927.4;;;;-0.947117;-0.036426548;-0.68015677;;;;;;;;;;;;;;;
2008.0;1927.4;;;;-0.9500505;-0.03868485;-0.6863175;;;;;;;;;;;;;;;
2008.0;1927.6;;;;;;;;;;35.97751;-22.751549;2.643666;;;;;;;;;
2008.0;1927.6;;;;;;;0.9785455;-0.12720115;-0.65541553;;;;;;;;;;;;
2008.0;1927.6;;;;;;;;;;37.392803;-25.578325;3.5706656;;;;;;;;;
2008.0;1927.6;;;;;;;0.9996643;-0.121097445;-0.65865046;;;;;;;;;;;;
2011.0;1936.9;;;;;;;;;;38.850063;-28.248695;4.5854063;;;;;;;;;
2011.0;1936.9;;;;;;;1.0079653;-0.113956116;-0.66292304;;;;;;;;;;;;
2011.0;1936.9;;;;;;;;;;39.941097;-30.587175;5.775628;;;;;;;;;
2011.0;1936.9;;;;;;;1.0072329;-0.10864589;-0.6681112;;;;;;;;;;;;
2011.0;1937.2;;;;-0.95261014;-0.03995133;-0.6927224;;;;;;;;;;;;;;;
2011.0;1937.2;;;;-0.9551965;-0.040954594;-0.6999665;;;;;;;;;;;;;;;
2011.0;1937.2;;;;-0.9576875;-0.040523533;-0.70605856;;;;;;;;;;;;;;;
2011.0;1937.2;;;;-0.9594079;-0.039649967;-0.71286017;;;;;;;;;;;;;;;
2011.0;1937.2;;;;-0.9610902;-0.038276676;-0.7186242;;;;;;;;;;;;;;;
2011.0;1940.5;262143;262143;11158;;;;;;;;;;;;;;;;;;
2011.0;1946.5;;;;;;;;;;40.719322;-32.486954;7.133702;;;;;;;;;
2011.0;1946.5;;;;;;;1.0026551;-0.10345775;-0.6690268;;;;;;;;;;;;
2011.0;1946.5;;;;;;;;;;41.333508;-34.092987;8.163702;;;;;;;;;
2011.0;1946.5;;;;;;;1.0032045;-0.09411909;-0.6702475;;;;;;;;;;;;
2011.0;1947.3;;;;-0.9626962;-0.0361023;-0.7238503;;;;;;;;;;;;;;;
2011.0;1947.3;;;;-0.96468365;-0.033370975;-0.72803885;;;;;;;;;;;;;;;
2011.0;1947.3;;;;-0.9667703;-0.030124668;-0.7331963;;;;;;;;;;;;;;;
2011.0;1947.3;;;;-0.9698869;-0.02632523;-0.73922354;;;;;;;;;;;;;;;
2011.0;1947.3;;;;-0.972355;-0.022228243;-0.7442017;;;;;;;;;;;;;;;
2011.0;1956.2;;;;;;;;;;41.5891;-35.592213;8.770256;;;;;;;;;
2011.0;1956.2;;;;;;;1.0038759;-0.08081301;-0.66786706;;;;;;;;;;;;
2011.0;1956.2;;;;;;;;;;41.711174;-36.988434;9.170813;;;;;;;;;
2011.0;1956.2;;;;;;;1.0089419;-0.067873165;-0.6614582;;;;;;;;;;;;
2012.0;1957.4;;;;-0.97415555;-0.018074038;-0.7487603;;;;;;;;;;;;;;;
2012.0;1957.4;;;;-0.97459424;-0.01432419;-0.7527963;;;;;;;;;;;;;;;
2012.0;1957.4;;;;-0.97351086;-0.010921479;-0.7555696;;;;;;;;;;;;;;;
2012.0;1957.4;;;;-0.9714128;-0.0075683603;-0.7571336;;;;;;;;;;;;;;;
2012.0;1957.4;;;;-0.9686624;-0.0045127873;-0.7583276;;;;;;;;;;;;;;;
2012.0;1961.0;;;;;;;;;;;;;;;;;-60.426647;36.45436;7.6525164;;1850.3
2012.0;1961.0;;;;;;;;;;;;;;0.97054964;-0.2763146;0.2372509;;;;;1850.3
2012.0;1961.0;;;;;;;;;;;;;;;;;-55.48265;33.753475;21.961884;;1850.3
2012.0;1961.0;;;;;;;;;;;;;;0.80111086;-0.4201178;0.063417464;;;;;1850.3
2012.0;1961.0;;;;;;;;;;;;;;;;;-42.947174;26.623585;37.362286;;1859.9
2012.0;1961.0;;;;;;;;;;;;;;0.7021088;-0.50758386;-0.06360058;;;;;1859.9
2012.0;1961.0;;;;;;;;;;;;;;;;;-34.455395;25.719473;57.72576;;1859.9
2012.0;1961.0;;;;;;;;;;;;;;0.58967865;-0.6222114;-0.060914945;;;;;1859.9
2012.0;1961.0;;;;;;;;;;;;;;;;;-30.842768;17.456587;75.3235;;1869.3
2012.0;1961.0;;;;;;;;;;;;;;0.5330973;-0.72389907;-0.011963256;;;;;1869.3
2012.0;1961.0;;;;;;;;;;;;;;;;;-14.236885;-14.175848;93.756676;;1869.3
2012.0;1961.0;;;;;;;;;;;;;;0.51710564;-0.86666465;-0.19782098;;;;;1869.3
2012.0;1960.8;262143;262143;11154;;;;;;;;;;;;;;;;;;
2013.0;1961.8;;;;;;;;;;;;;;;;;24.929806;-72.08472;114.48256;;1879.0
2013.0;1961.8;;;;;;;;;;;;;;0.5121616;-0.957976;-0.49067658;;;;;1879.0
2013.0;1961.8;;;;;;;;;;;;;;;;;65.454575;-120.239105;124.767296;;1879.0
2013.0;1961.8;;;;;;;;;;;;;;0.54481643;-1.1396832;-0.900235;;;;;1879.0
2013.0;1961.8;;;;;;;;;;;;;;;;;109.813225;-124.988556;124.988556;;1888.7
2013.0;1961.8;;;;;;;;;;;;;;0.68514055;-1.3823664;-1.2845241;;;;;1888.7
2013.0;1961.8;;;;;;;;;;;;;;;;;124.33622;-115.35233;124.988556;;1888.7
2013.0;1961.8;;;;;;;;;;;;;;0.7803583;-1.5286111;-1.297586;;;;;1888.7
2013.0;1961.8;;;;;;;;;;;;;;;;;95.52675;-47.143467;124.946594;;1898.3
2013.0;1961.8;;;;;;;;;;;;;;0.8516495;-1.4536576;-0.9532151;;;;;1898.3
2013.0;1961.8;;;;;;;;;;;;;;;;;49.645985;17.654957;112.99478;;1898.3
2013.0;1961.8;;;;;;;;;;;;;;1.030427;-1.1824702;-0.4704123;;;;;1898.3
2013.0;1965.5;;;;;;;;;;41.623432;-38.251137;9.517961;;;;;;;;;
2013.0;1965.5;;;;;;;1.0204779;-0.05658132;-0.6544389;;;;;;;;;;;;
2013.0;1965.5;;;;;;;;;;41.3831;-39.391766;9.674368;;;;;;;;;
2013.0;1965.5;;;;;;;1.0361034;-0.046998505;-0.6441847;;;;;;;;;;;;
2013.0;1966.3;;;;;;;;;;;;;2609;;;;;;;;
2013.0;1966.3;;;;;;;;;;;;;3018;;;;;;;;
2013.0;1966.3;;;;;;;;;;;;;3165;;;;;;;;
2013.0;1966.3;;;;;;;;;;;;;2991;;;;;;;;
2013.0;1966.3;;;;;;;;;;;;;2698;;;;;;;;
2013.0;1967.3;;;;-0.96571743;-0.0017242434;-0.75854886;;;;;;;;;;;;;;;
2013.0;1967.3;;;;-0.9633676;6.027222E-4;-0.7588273;;;;;;;;;;;;;;;
2013.0;1967.3;;;;-0.9608575;0.0026283266;-0.75932324;;;;;;;;;;;;;;;
2013.0;1967.3;;;;-0.95826733;0.00428772;-0.75930035;;;;;;;;;;;;;;;
2013.0;1967.3;;;;-0.9550897;0.005599976;-0.75833905;;;;;;;;;;;;;;;
2071.0;1975.1;;;;;;;;;;41.24195;-39.99832;9.617146;;;;;;;;;
2071.0;1975.1;;;;;;;1.0515457;-0.04565569;-0.6405225;;;;;;;;;;;;
2071.0;1975.1;;;;;;;;;;40.967285;-39.983063;9.392072;;;;;;;;;
2071.0;1975.1;;;;;;;1.0677205;-0.044129767;-0.64119387;;;;;;;;;;;;
2071.0;1977.3;;;;-0.9511987;0.006259919;-0.7569314;;;;;;;;;;;;;;;
2071.0;1977.3;;;;-0.94742596;0.0068130502;-0.7546998;;;;;;;;;;;;;;;
2071.0;1977.3;;;;-0.9435998;0.0075531015;-0.75410855;;;;;;;;;;;;;;;
2071.0;1977.3;;;;-0.9398881;0.0080947885;-0.7534028;;;;;;;;;;;;;;;
2071.0;1977.3;;;;-0.93721783;0.008735658;-0.7527505;;;;;;;;;;;;;;;
2071.0;1980.7;262143;262143;11136;;;;;;;;;;;;;;;;;;
2071.0;1984.6;;;;;;;;;;40.677357;-39.91058;9.0487385;;;;;;;;;
2071.0;1984.6;;;;;;;1.0834681;-0.046021912;-0.6451613;;;;;;;;;;;;
2071.0;1984.6;;;;;;;;;;40.238655;-39.700764;8.545182;;;;;;;;;
2071.0;1984.6;;;;;;;1.0946379;-0.04510636;-0.654561;;;;;;;;;;;;
2071.0;1987.2;;;;-0.93498623;0.0096702585;-0.75304043;;;;;;;;;;;;;;;
2071.0;1987.2;;;;-0.9339868;0.0108299265;-0.7534753;;;;;;;;;;;;;;;
2071.0;1987.2;;;;-0.9332353;0.01154709;-0.75293744;;;;;;;;;;;;;;;
2071.0;1987.2;;;;-0.9318887;0.012577059;-0.7524377;;;;;;;;;;;;;;;
2071.0;1987.2;;;;-0.93037045;0.013679506;-0.75112545;;;;;;;;;;;;;;;
2071.0;1993.9;;;;;;;;;;39.422283;-39.536728;7.9119234;;;;;;;;;
2071.0;1993.9;;;;;;;1.106418;-0.046632282;-0.6610309;;;;;;;;;;;;
2071.0;1993.9;;;;;;;;;;38.19773;-39.35743;7.0535903;;;;;;;;;
2071.0;1993.9;;;;;;;1.1189916;-0.048646506;-0.66518146;;;;;;;;;;;;
2073.0;1997.1;;;;-0.92875683;0.014938356;-0.7489129;;;;;;;;;;;;;;;
2073.0;1997.1;;;;-0.92603314;0.016544344;-0.7457772;;;;;;;;;;;;;;;
2073.0;1997.1;;;;-0.9227487;0.018844606;-0.74187857;;;;;;;;;;;;;;;
2073.0;1997.1;;;;-0.91874707;0.021110537;-0.7373467;;;;;;;;;;;;;;;
2073.0;1997.1;;;;-0.9138223;0.023658756;-0.73195654;;;;;;;;;;;;;;;
2073.0;2000.6;262143;262143;11146;;;;;;;;;;;;;;;;;;
2073.0;2003.5;;;;;;;;;;36.751915;-39.040802;6.1380353;;;;;;;;;
2073.0;2003.5;;;;;;;1.1264381;-0.05182043;-0.66438794;;;;;;;;;;;;
2073.0;2003.5;;;;;;;;;;35.02762;-38.00699;5.1728873;;;;;;;;;
2073.0;2003.5;;;;;;;1.1322367;-0.051698357;-0.65547657;;;;;;;;;;;;
2073.0;2006.3;;;;;;;;;;;;;2644;;;;;;;;
2073.0;2006.3;;;;;;;;;;;;;2796;;;;;;;;
2073.0;2006.3;;;;;;;;;;;;;2819;;;;;;;;
2073.0;2006.3;;;;;;;;;;;;;2648;;;;;;;;
2073.0;2006.3;;;;;;;;;;;;;2452;;;;;;;;
2073.0;2007.2;;;;-0.90776074;0.026107792;-0.7267991;;;;;;;;;;;;;;;
2073.0;2007.2;;;;-0.9007989;0.029350284;-0.7208138;;;;;;;;;;;;;;;
2073.0;2007.2;;;;-0.8937646;0.032535557;-0.71451575;;;;;;;;;;;;;;;
2073.0;2007.2;;;;-0.88686764;0.035823826;-0.7086907;;;;;;;;;;;;;;;
2073.0;2007.2;;;;-0.8804246;0.039268497;-0.702488;;;;;;;;;;;;;;;
2073.0;2013.1;;;;;;;;;;33.143105;-36.713768;4.1085544;;;;;;;;;
2073.0;2013.1;;;;;;;1.1283303;-0.05182043;-0.63753164;;;;;;;;;;;;
2073.0;2013.1;;;;;;;;;;31.273842;-34.95895;3.0137029;;;;;;;;;
2073.0;2013.1;;;;;;;1.119419;-0.054750208;-0.6205634;;;;;;;;;;;;
2074.0;2017.3;;;;-0.8744813;0.042926792;-0.69715506;;;;;;;;;;;;;;;
2074.0;2017.3;;;;-0.86836636;0.04586411;-0.6915589;;;;;;;;;;;;;;;
2074.0;2017.3;;;;-0.86238873;0.049064644;-0.6867295;;;;;;;;;;;;;;;
2074.0;2017.3;;;;-0.8562738;0.052402504;-0.68173224;;;;;;;;;;;;;;;
2074.0;2017.3;;;;-0.850731;0.05554963;-0.6765252;;;;;;;;;;;;;;;
2074.0;2021.1;;;;;;;;;;;;;;;;;39.635914;39.838097;90.63234;;1907.9
2074.0;2021.1;;;;;;;;;;;;;;1.1927854;-0.9223304;-0.04156621;;;;;1907.9
2074.0;2021.1;;;;;;;;;;;;;;;;;53.90332;22.392956;77.33009;;1907.9
2074.0;2021.1;;;;;;;;;;;;;;1.238197;-0.7769402;0.090029605;;;;;1907.9
2074.0;2021.1;;;;;;;;;;;;;;;;;67.93038;-10.185553;54.303875;;1917.6
2074.0;2021.1;;;;;;;;;;;;;;1.2611469;-0.5213782;-0.113956116;;;;;1917.6
2074.0;2021.1;;;;;;;;;;;;;;;;;72.035126;-29.251991;44.50743;;1917.6
2074.0;2021.1;;;;;;;;;;;;;;1.2305063;-0.3787347;-0.3471175;;;;;1917.6
2074.0;2021.1;;;;;;;;;;;;;;;;;72.71035;-38.26258;41.951508;;1927.1
2074.0;2021.1;;;;;;;;;;;;;;1.1984619;-0.30524614;-0.5988342;;;;;1927.1
2074.0;2021.1;;;;;;;;;;;;;;;;;76.258125;-28.210546;37.694176;;1927.1
2074.0;2021.1;;;;;;;;;;;;;;1.1142918;-0.21997742;-0.7449568;;;;;1927.1
2074.0;2020.8;262143;262143;11157;;;;;;;;;;;;;;;;;;
2075.0;2022.3;;;;;;;;;;;;;;;;;72.927795;-5.733665;23.22077;;1936.7
2075.0;2022.3;;;;;;;;;;;;;;1.0838953;-0.08355968;-0.7655263;;;;;1936.7
2075.0;2022.3;;;;;;;;;;;;;;;;;60.8272;14.1949215;3.1395917;;1936.7
2075.0;2022.3;;;;;;;;;;;;;;1.0089419;-0.0076906644;-0.6967376;;;;;1936.7
2075.0;2022.3;;;;;;;;;;;;;;;;;72.6722;13.500626;-13.260293;;1946.3
2075.0;2022.3;;;;;;;;;;;;;;0.9036531;0.018921476;-0.6140934;;;;;1946.3
2075.0;2022.3;;;;;;;;;;;;;;;;;90.93371;3.4676657;-20.569475;;1946.3
2075.0;2022.3;;;;;;;;;;;;;;0.91170996;0.16144292;-0.5130772;;;;;1946.3
2075.0;2022.3;;;;;;;;;;;;;;;;;76.700645;1.6327403;-10.261848;;1956.0
2075.0;2022.3;;;;;;;;;;;;;;0.8822291;0.24420911;-0.42909023;;;;;1956.0
2075.0;2022.3;;;;;;;;;;;;;;;;;43.660545;-4.8409986;15.354625;;1956.0
2075.0;2022.3;;;;;;;;;;;;;;0.87026584;0.31189916;-0.41834772;;;;;1956.0
2075.0;2022.6;;;;;;;;;;29.374065;-32.631916;1.9760735;;;;;;;;;
2075.0;2022.6;;;;;;;1.1108737;-0.053712577;-0.6077456;;;;;;;;;;;;
2075.0;2022.6;;;;;;;;;;27.653584;-30.09125;0.6637776;;;;;;;;;
2075.0;2022.6;;;;;;;1.1086154;-0.051942505;-0.59419537;;;;;;;;;;;;
2075.0;2027.3;;;;-0.84585583;0.058338173;-0.671711;;;;;;;;;;;;;;;
2075.0;2027.3;;;;-0.8415643;0.060482033;-0.6670113;;;;;;;;;;;;;;;
2075.0;2027.3;;;;-0.8371316;0.063034065;-0.66356283;;;;;;;;;;;;;;;
2075.0;2027.3;;;;-0.8321916;0.064659126;-0.66079336;;;;;;;;;;;;;;;
2075.0;2027.3;;;;-0.82686245;0.066005714;-0.6585923;;;;;;;;;;;;;;;
2075.0;2032.2;;;;;;;;;;26.085695;-27.638325;-0.9155553;;;;;;;;;
2075.0;2032.2;;;;;;;1.1050752;-0.049501024;-0.5825373;;;;;;;;;;;;
2075.0;2032.2;;;;;;;;;;24.712364;-25.719473;-2.2812586;;;;;;;;;
2075.0;2032.2;;;;;;;1.0926847;-0.04992828;-0.5690481;;;;;;;;;;;;
2127.0;2037.2;;;;-0.8208581;0.06749726;-0.6560288;;;;;;;;;;;;;;;
2127.0;2037.2;;;;-0.81369793;0.06798936;-0.65316397;;;;;;;;;;;;;;;
2127.0;2037.2;;;;-0.8059312;0.068531044;-0.649437;;;;;;;;;;;;;;;
2127.0;2037.2;;;;-0.797516;0.069400795;-0.645443;;;;;;;;;;;;;;;
2127.0;2037.2;;;;-0.78891385;0.0703621;-0.6410065;;;;;;;;;;;;;;;
2127.0;2040.8;262143;262143;11153;;;;;;;;;;;;;;;;;;
2127.0;2041.7;;;;;;;;;;23.483994;-23.998993;-3.0251474;;;;;;;;;
2127.0;2041.7;;;;;;;1.0802943;-0.05389569;-0.560564;;;;;;;;;;;;
2127.0;2041.7;;;;;;;;;;22.48451;-22.568438;-3.3722954;;;;;;;;;
2127.0;2041.7;;;;;;;1.0652791;-0.058046207;-0.5533616;;;;;;;;;;;;
2127.0;2046.6;;;;;;;;;;;;;2462;;;;;;;;
2127.0;2046.6;;;;;;;;;;;;;2645;;;;;;;;
2127.0;2046.6;;;;;;;;;;;;;2650;;;;;;;;
2127.0;2046.6;;;;;;;;;;;;;2247;;;;;;;;
2127.0;2046.6;;;;;;;;;;;;;1619;;;;;;;;
2127.0;2047.2;;;;-0.78139126;0.071105964;-0.63704306;;;;;;;;;;;;;;;
2127.0;2047.2;;;;-0.77376187;0.07206727;-0.63399893;;;;;;;;;;;;;;;
2127.0;2047.2;;;;-0.76659024;0.07270051;-0.62995917;;;;;;;;;;;;;;;
2127.0;2047.2;;;;-0.76018155;0.07343293;-0.6246415;;;;;;;;;;;;;;;
2127.0;2047.2;;;;-0.75411236;0.07426072;-0.61962515;;;;;;;;;;;;;;;
2127.0;2051.2;;;;;;;;;;21.660513;-21.187475;-3.5973694;;;;;;;;;
2127.0;2051.2;;;;;;;1.0558794;-0.06305124;-0.54628134;;;;;;;;;;;;
2127.0;2051.2;;;;;;;;;;20.817438;-19.64629;-3.6698508;;;;;;;;;
2127.0;2051.2;;;;;;;1.0518509;-0.070314646;-0.5464034;;;;;;;;;;;;
2132.0;2057.2;;;;-0.74743277;0.07493592;-0.6151276;;;;;;;;;;;;;;;
2132.0;2057.2;;;;-0.74077994;0.07540131;-0.6100808;;;;;;;;;;;;;;;
2132.0;2057.2;;;;-0.7344933;0.07490922;-0.6050492;;;;;;;;;;;;;;;
2132.0;2057.2;;;;-0.72809225;0.07468415;-0.5995713;;;;;;;;;;;;;;;
2132.0;2057.2;;;;-0.721901;0.07441331;-0.5946923;;;;;;;;;;;;;;;
2132.0;2060.7;;;;;;;;;;19.943846;-18.105106;-3.6202583;;;;;;;;;
2132.0;2060.7;;;;;;;1.0525833;-0.08160649;-0.55110323;;;;;;;;;;;;
2132.0;2060.7;;;;;;;;;;19.123661;-16.640219;-3.6736658;;;;;;;;;
2132.0;2060.7;;;;;;;1.0533769;-0.09241005;-0.55238503;;;;;;;;;;;;
2132.0;2060.8;262143;262143;11171;;;;;;;;;;;;;;;;;;
2132.0;2067.3;;;;-0.71599203;0.074550636;-0.5883294;;;;;;;;;;;;;;;
2132.0;2067.3;;;;-0.71002966;0.07400132;-0.57991415;;;;;;;;;;;;;;;
2132.0;2067.3;;;;-0.70366675;0.07370377;-0.571724;;;;;;;;;;;;;;;
2132.0;2067.3;;;;-0.69746786;0.0737877;-0.56496817;;;;;;;;;;;;;;;
2132.0;2067.3;;;;-0.690754;0.074012764;-0.5589333;;;;;;;;;;;;;;;
2132.0;2070.3;;;;;;;;;;18.608662;-15.381329;-3.5859249;;;;;;;;;
2132.0;2070.3;;;;;;;1.0495926;-0.10382397;-0.5459151;;;;;;;;;;;;
2132.0;2070.3;;;;;;;;;;18.208105;-14.282662;-3.0251474;;;;;;;;;
2132.0;2070.3;;;;;;;1.0400097;-0.11529893;-0.53926206;;;;;;;;;;;;
2133.0;2077.4;;;;-0.6853486;0.07369996;-0.5527573;;;;;;;;;;;;;;;
2133.0;2077.4;;;;-0.6801987;0.07323075;-0.5474625;;;;;;;;;;;;;;;
2133.0;2077.4;;;;-0.67622;0.073177345;-0.5428582;;;;;;;;;;;;;;;
2133.0;2077.4;;;;-0.6728707;0.073120125;-0.5374604;;;;;;;;;;;;;;;
2133.0;2077.4;;;;-0.6699868;0.07286454;-0.53133017;;;;;;;;;;;;;;;
2133.0;2079.9;;;;;;;;;;17.880032;-13.470107;-2.166814;;;;;;;;;
2133.0;2079.9;;;;;;;1.041963;-0.12610248;-0.5412763;;;;;;;;;;;;
2133.0;2079.9;;;;;;;;;;17.723623;-12.798699;-1.575518;;;;;;;;;
2133.0;2079.9;;;;;;;1.0523392;-0.13397625;-0.54713583;;;;;;;;;;;;
2133.0;2081.1;262143;262143;11169;;;;;;;;;;;;;;;;;;
2133.0;2082.0;;;;;;;;;;;;;;;;;20.928068;-3.8453321;49.97024;;1965.7
2133.0;2082.0;;;;;;;;;;;;;;0.85348064;0.253914;-0.37464523;;;;;1965.7
2133.0;2082.0;;;;;;;;;;;;;;;;;17.185736;4.3488874;77.2042;;1965.7
2133.0;2082.0;;;;;;;;;;;;;;0.8382214;0.09320353;-0.22199164;;;;;1965.7
2133.0;2082.0;;;;;;;;;;;;;;;;;13.531144;9.086886;85.52431;;1975.4
2133.0;2082.0;;;;;;;;;;;;;;0.8010498;-0.10309152;-0.19336528;;;;;1975.4
2133.0;2082.0;;;;;;;;;;;;;;;;;11.608478;11.204107;77.93283;;1975.4
2133.0;2082.0;;;;;;;;;;;;;;0.80813015;-0.135197;-0.29303873;;;;;1975.4
2133.0;2082.0;;;;;;;;;;;;;;;;;15.602588;19.070253;72.90491;;1984.9
2133.0;2082.0;;;;;;;;;;;;;;0.78109074;-0.1638844;-0.37745294;;;;;1984.9
2133.0;2082.0;;;;;;;;;;;;;;;;;23.66329;28.874325;72.550125;;1984.9
2133.0;2082.0;;;;;;;;;;;;;;0.72060305;-0.2484817;-0.40467542;;;;;1984.9
2134.0;2082.8;;;;;;;;;;;;;;;;;32.39921;35.649433;72.58064;;1994.5
2134.0;2082.8;;;;;;;;;;;;;;0.6753746;-0.32581562;-0.41688284;;;;;1994.5
2134.0;2082.8;;;;;;;;;;;;;;;;;38.888214;38.03751;69.58983;;1994.5
2134.0;2082.8;;;;;;;;;;;;;;0.641438;-0.3590808;-0.4252449;;;;;1994.5
2134.0;2082.8;;;;;;;;;;;;;;;;;44.457836;34.501175;68.07916;;2004.1
2134.0;2082.8;;;;;;;;;;;;;;0.6031068;-0.3859981;-0.43916136;;;;;2004.1
2134.0;2082.8;;;;;;;;;;;;;;;;;48.287914;28.405102;67.60995;;2004.1
2134.0;2082.8;;;;;;;;;;;;;;0.5723441;-0.40736106;-0.44508195;;;;;2004.1
2134.0;2082.8;;;;;;;;;;;;;;;;;51.019318;20.558031;68.70479;;2013.8
2134.0;2082.8;;;;;;;;;;;;;;0.5805841;-0.42646566;-0.45155185;;;;;2013.8
2134.0;2082.8;;;;;;;;;;;;;;;;;56.28376;10.196997;75.29298;;2013.8
2134.0;2082.8;;;;;;;;;;;;;;0.6186102;-0.49635303;-0.49061555;;;;;2013.8
2134.0;2086.6;;;;;;;;;;;;;1118;;;;;;;;
2134.0;2086.6;;;;;;;;;;;;;932;;;;;;;;
2134.0;2086.6;;;;;;;;;;;;;1059;;;;;;;;
2134.0;2086.6;;;;;;;;;;;;;1461;;;;;;;;
2134.0;2086.6;;;;;;;;;;;;;1997;;;;;;;;
2134.0;2087.2;;;;-0.66681296;0.072357185;-0.5258294;;;;;;;;;;;;;;;
2134.0;2087.2;;;;-0.6633683;0.07175446;-0.520485;;;;;;;;;;;;;;;
2134.0;2087.2;;;;-0.6593171;0.07092286;-0.5145188;;;;;;;;;;;;;;;
2134.0;2087.2;;;;-0.6554757;0.06983567;-0.50749594;;;;;;;;;;;;;;;
2134.0;2087.2;;;;-0.65131;0.06884385;-0.4996453;;;;;;;;;;;;;;;
2134.0;2089.3;;;;;;;;;;17.464216;-12.405774;-1.3389996;;;;;;;;;
2134.0;2089.3;;;;;;;1.0647908;-0.13989685;-0.55238503;;;;;;;;;;;;
2134.0;2089.3;;;;;;;;;;17.193365;-12.478255;-1.2207403;;;;;;;;;
2134.0;2089.3;;;;;;;1.0743126;-0.14600055;-0.557329;;;;;;;;;;;;
2188.0;2097.2;;;;-0.6464539;0.06843568;-0.49283224;;;;;;;;;;;;;;;
2188.0;2097.2;;;;-0.6412278;0.068386085;-0.48593527;;;;;;;;;;;;;;;
2188.0;2097.2;;;;-0.6359177;0.068710335;-0.47962195;;;;;;;;;;;;;;;
2188.0;2097.2;;;;-0.63019186;0.068466194;-0.47424322;;;;;;;;;;;;;;;
2188.0;2097.2;;;;-0.6234856;0.06791688;-0.46868902;;;;;;;;;;;;;;;
2188.0;2098.8;;;;;;;;;;16.96066;-12.932219;-1.0338145;;;;;;;;;
2188.0;2098.8;;;;;;;1.0801722;-0.15533921;-0.55311745;;;;;;;;;;;;
2188.0;2098.8;;;;;;;;;;16.766108;-13.618885;-0.71337014;;;;;;;;;
2188.0;2098.8;;;;;;;1.0711997;-0.16461684;-0.5431684;;;;;;;;;;;;
2188.0;2101.0;262143;262143;11179;;;;;;;;;;;;;;;;;;
2188.0;2107.2;;;;-0.6173287;0.06713868;-0.46305853;;;;;;;;;;;;;;;
2188.0;2107.2;;;;-0.6122628;0.066452034;-0.45782858;;;;;;;;;;;;;;;
2188.0;2107.2;;;;-0.60748297;0.06540299;-0.4529572;;;;;;;;;;;;;;;
2188.0;2107.2;;;;-0.6035767;0.064090736;-0.44911963;;;;;;;;;;;;;;;
2188.0;2107.2;;;;-0.60065085;0.062492378;-0.44520575;;;;;;;;;;;;;;;
2188.0;2108.1;;;;;;;;;;16.571552;-14.408551;-0.24414808;;;;;;;;;
2188.0;2108.1;;;;;;;1.0580157;-0.17474899;-0.53547776;;;;;;;;;;;;
2188.0;2108.1;;;;;;;;;;16.26255;-15.121922;-0.019074067;;;;;;;;;
2188.0;2108.1;;;;;;;1.0375683;-0.18018128;-0.5241859;;;;;;;;;;;;
2193.0;2117.1;;;;-0.5979157;0.061401375;-0.44134146;;;;;;;;;;;;;;;
2193.0;2117.1;;;;-0.59675986;0.06143952;-0.43630224;;;;;;;;;;;;;;;
2193.0;2117.1;;;;-0.59678656;0.06160737;-0.43253714;;;;;;;;;;;;;;;
2193.0;2117.1;;;;-0.59699255;0.06194306;-0.4299317;;;;;;;;;;;;;;;
2193.0;2117.1;;;;-0.5962487;0.06145478;-0.42716223;;;;;;;;;;;;;;;
2193.0;2117.7;;;;;;;;;;15.774254;-15.530107;-0.39674062;;;;;;;;;
2193.0;2117.7;;;;;;;1.0204169;-0.18384351;-0.5088046;;;;;;;;;;;;
2193.0;2117.7;;;;;;;;;;15.14481;-15.892513;-1.1444441;;;;;;;;;
2193.0;2117.7;;;;;;;1.007416;-0.19049653;-0.48878446;;;;;;;;;;;;
2193.0;2120.9;262143;262143;11174;;;;;;;;;;;;;;;;;;
2193.0;2126.6;;;;;;;;;;;;;2472;;;;;;;;
2193.0;2126.6;;;;;;;;;;;;;2758;;;;;;;;
2193.0;2126.6;;;;;;;;;;;;;2728;;;;;;;;
2193.0;2126.6;;;;;;;;;;;;;2470;;;;;;;;
2193.0;2126.6;;;;;;;;;;;;;2258;;;;;;;;
2193.0;2127.2;;;;-0.5950089;0.0599289;-0.42563635;;;;;;;;;;;;;;;
2193.0;2127.2;;;;-0.59370047;0.058464058;-0.42368323;;;;;;;;;;;;;;;
2193.0;2127.2;;;;-0.5926514;0.057262428;-0.42213827;;;;;;;;;;;;;;;
2193.0;2127.2;;;;-0.59330374;0.055667885;-0.42098624;;;;;;;;;;;;;;;
2193.0;2127.2;;;;-0.5952645;0.054756172;-0.41975027;;;;;;;;;;;;;;;
2193.0;2127.4;;;;;;;;;;14.458144;-16.052736;-2.254555;;;;;;;;;
2193.0;2127.4;;;;;;;0.99050874;-0.1947081;-0.4667501;;;;;;;;;;;;
2193.0;2127.4;;;;;;;;;;13.714254;-16.239662;-3.47911;;;;;;;;;
2193.0;2127.4;;;;;;;0.9713431;-0.19922483;-0.43623158;;;;;;;;;;;;
2195.0;2137.0;;;;;;;;;;13.023774;-16.0947;-4.6845913;;;;;;;;;
2195.0;2137.0;;;;;;;0.94174016;-0.19922483;-0.3899655;;;;;;;;;;;;
2195.0;2137.0;;;;;;;;;;11.741997;-15.396588;-5.5543685;;;;;;;;;
2195.0;2137.0;;;;;;;0.91561633;-0.19287698;-0.347911;;;;;;;;;;;;
2195.0;2137.4;;;;-0.5979424;0.053688057;-0.41931158;;;;;;;;;;;;;;;
2195.0;2137.4;;;;-0.6012345;0.05318833;-0.4188729;;;;;;;;;;;;;;;
2195.0;2137.4;;;;-0.6035195;0.052848823;-0.41935354;;;;;;;;;;;;;;;
2195.0;2137.4;;;;-0.6055642;0.05230332;-0.41957098;;;;;;;;;;;;;;;
2195.0;2137.4;;;;-0.60752493;0.052165993;-0.42020804;;;;;;;;;;;;;;;
2195.0;2141.2;262143;262143;11168;;;;;;;;;;;;;;;;;;
2195.0;2146.6;;;;;;;;;;9.975738;-13.706625;-6.3783684;;;;;;;;;
2195.0;2146.6;;;;;;;0.88717306;-0.18317209;-0.32111576;;;;;;;;;;;;
2195.0;2146.6;;;;;;;;;;8.777886;-10.75396;-7.335887;;;;;;;;;
2195.0;2146.6;;;;;;;0.8630024;-0.17633595;-0.28412732;;;;;;;;;;;;
2195.0;2147.4;;;;-0.60921484;0.052104957;-0.4206429;;;;;;;;;;;;;;;
2195.0;2147.4;;;;-0.61145025;0.052726753;-0.41981512;;;;;;;;;;;;;;;
2195.0;2147.4;;;;-0.6136933;0.05396653;-0.41894156;;;;;;;;;;;;;;;
2195.0;2147.4;;;;-0.6153489;0.05583573;-0.41976553;;;;;;;;;;;;;;;
2195.0;2147.4;;;;-0.61677176;0.057716377;-0.42165;;;;;;;;;;;;;;;
2196.0;2148.8;;;;;;;;;;;;;;;;;60.251167;11.547441;76.086464;;2023.4
2196.0;2148.8;;;;;;;;;;;;;;0.63057345;-0.46925262;-0.44141972;;;;;2023.4
2196.0;2148.8;;;;;;;;;;;;;;;;;58.332317;12.779626;72.641685;;2023.4
2196.0;2148.8;;;;;;;;;;;;;;0.6762291;-0.35486922;-0.408887;;;;;2023.4
2196.0;2148.8;;;;;;;;;;;;;;;;;60.281685;11.032442;73.99594;;2033.1
2196.0;2148.8;;;;;;;;;;;;;;0.7066866;-0.4112064;-0.40656757;;;;;2033.1
2196.0;2148.8;;;;;;;;;;;;;;;;;64.80987;12.421033;71.165344;;2033.1
2196.0;2148.8;;;;;;;;;;;;;;0.75753045;-0.32703635;-0.39576402;;;;;2033.1
2196.0;2148.8;;;;;;;;;;;;;;;;;67.46498;17.460402;65.79791;;2042.7
2196.0;2148.8;;;;;;;;;;;;;;0.7781609;-0.26862392;-0.39893797;;;;;2042.7
2196.0;2148.8;;;;;;;;;;;;;;;;;72.336494;22.259438;64.73739;;2042.7
2196.0;2148.8;;;;;;;;;;;;;;0.8022706;-0.23487045;-0.38703573;;;;;2042.7
2196.0;2150.8;;;;;;;;;;;;;;;;;76.62054;26.73803;61.178165;;2052.3
2196.0;2150.8;;;;;;;;;;;;;;0.80306405;-0.14215522;-0.35328227;;;;;2052.3
2196.0;2150.8;;;;;;;;;;;;;;;;;77.56661;28.382214;58.202614;;2052.3
2196.0;2150.8;;;;;;;;;;;;;;0.76180303;-0.092837304;-0.3328959;;;;;2052.3
2196.0;2150.8;;;;;;;;;;;;;;;;;77.22709;25.715658;56.745354;;2061.8
2196.0;2150.8;;;;;;;;;;;;;;0.7548448;-0.035767693;-0.3267922;;;;;2061.8
2196.0;2150.8;;;;;;;;;;;;;;;;;74.23246;21.629993;56.058685;;2061.8
2196.0;2150.8;;;;;;;;;;;;;;0.76430553;-0.025513474;-0.35120702;;;;;2061.8
2196.0;2150.8;;;;;;;;;;;;;;;;;71.95502;21.446882;56.72628;;2071.5
2196.0;2150.8;;;;;;;;;;;;;;0.773278;-0.022705771;-0.34583575;;;;;2071.5
2196.0;2150.8;;;;;;;;;;;;;;;;;69.28083;21.477402;54.53658;;2071.5
2196.0;2150.8;;;;;;;;;;;;;;0.7828608;0.013489181;-0.36378065;;;;;2071.5
2197.0;2155.9;;;;;;;;;;8.060701;-7.309183;-8.468886;;;;;;;;;
2197.0;2155.9;;;;;;;0.83242285;-0.16516617;-0.25208288;;;;;;;;;;;;
2197.0;2155.9;;;;;;;;;;7.3816648;-3.5897398;-9.403516;;;;;;;;;
2197.0;2155.9;;;;;;;0.80953395;-0.1521653;-0.22370067;;;;;;;;;;;;
2197.0;2156.2;;;;;;;;;;;;;;;;;66.99957;23.037659;54.113132;;2081.1
2197.0;2156.2;;;;;;;;;;;;;;0.7522202;0.019470809;-0.3432722;;;;;2081.1
2197.0;2156.2;;;;;;;;;;;;;;;;;65.79409;21.607105;53.369244;;2081.1
2197.0;2156.2;;;;;;;;;;;;;;0.7372661;0.027954955;-0.33497116;;;;;2081.1
2197.0;2156.2;;;;;;;;;;;;;;;;;65.16465;18.684958;52.68258;;2090.8
2197.0;2156.2;;;;;;;;;;;;;;0.73213905;0.0052491836;-0.33497116;;;;;2090.8
2197.0;2156.2;;;;;;;;;;;;;;;;;65.27146;15.758995;51.736504;;2090.8
2197.0;2156.2;;;;;;;;;;;;;;0.7444685;-0.0018311106;-0.3370464;;;;;2090.8
2197.0;2156.2;;;;;;;;;;;;;;;;;66.6715;13.966033;50.7065;;2100.5
2197.0;2156.2;;;;;;;;;;;;;;0.76888335;-0.04486221;-0.32544938;;;;;2100.5
2197.0;2156.2;;;;;;;;;;;;;;;;;69.65086;14.172032;48.56258;;2100.5
2197.0;2156.2;;;;;;;;;;;;;;0.7882931;-0.0994293;-0.3060396;;;;;2100.5
2197.0;2157.0;;;;-0.6178475;0.060127266;-0.4215775;;;;;;;;;;;;;;;
2197.0;2157.0;;;;-0.61956793;0.0625496;-0.41796118;;;;;;;;;;;;;;;
2197.0;2157.0;;;;-0.6213723;0.06349183;-0.41602713;;;;;;;;;;;;;;;
2197.0;2157.0;;;;-0.62245184;0.062278755;-0.4159127;;;;;;;;;;;;;;;
2197.0;2157.0;;;;-0.62255865;0.05949021;-0.416874;;;;;;;;;;;;;;;
2197.0;2161.0;262143;262143;11151;;;;;;;;;;;;;;;;;;
2249.0;2165.4;;;;;;;;;;6.672109;1.0757774;-10.345775;;;;;;;;;
2249.0;2165.4;;;;;;;0.78817105;-0.138493;-0.19006927;;;;;;;;;;;;
2249.0;2165.4;;;;;;;;;;6.3936276;4.8677025;-11.383404;;;;;;;;;
2249.0;2165.4;;;;;;;0.7625965;-0.12427137;-0.17133091;;;;;;;;;;;;
2249.0;2166.6;;;;;;;;;;;;;2039;;;;;;;;
2249.0;2166.6;;;;;;;;;;;;;1636;;;;;;;;
2249.0;2166.6;;;;;;;;;;;;;1569;;;;;;;;
2249.0;2166.6;;;;;;;;;;;;;2367;;;;;;;;
2249.0;2166.6;;;;;;;;;;;;;1638;;;;;;;;
2249.0;2167.0;;;;-0.6225472;0.056838997;-0.41796118;;;;;;;;;;;;;;;
2249.0;2167.0;;;;-0.62292105;0.054531105;-0.42026144;;;;;;;;;;;;;;;
2249.0;2167.0;;;;-0.6232529;0.053241737;-0.42186743;;;;;;;;;;;;;;;
2249.0;2167.0;;;;-0.6248551;0.05287171;-0.4221154;;;;;;;;;;;;;;;
2249.0;2167.0;;;;-0.6265717;0.053386696;-0.42088324;;;;;;;;;;;;;;;
2249.0;2174.7;;;;;;;;;;6.3516645;8.209479;-12.344738;;;;;;;;;
2249.0;2174.7;;;;;;;0.7396466;-0.11120945;-0.16235848;;;;;;;;;;;;
2249.0;2174.7;;;;;;;;;;6.4203315;11.707664;-13.393811;;;;;;;;;
2249.0;2174.7;;;;;;;0.71877193;-0.09979553;-0.15466781;;;;;;;;;;;;
2249.0;2177.0;;;;-0.63296896;0.05384446;-0.42153174;;;;;;;;;;;;;;;
2249.0;2177.0;;;;-0.6387482;0.05505372;-0.42189413;;;;;;;;;;;;;;;
2249.0;2177.0;;;;-0.63950354;0.058082588;-0.42062002;;;;;;;;;;;;;;;
2249.0;2177.0;;;;-0.63945776;0.06311799;-0.41772848;;;;;;;;;;;;;;;
2249.0;2177.0;;;;-0.64038855;0.06847764;-0.4158364;;;;;;;;;;;;;;;
2249.0;2180.9;262143;262143;11152;;;;;;;;;;;;;;;;;;
2250.0;2184.3;;;;;;;;;;6.5424056;15.045625;-14.5497;;;;;;;;;
2250.0;2184.3;;;;;;;0.70241404;-0.090029605;-0.14960173;;;;;;;;;;;;
2250.0;2184.3;;;;;;;;;;6.820887;17.708364;-15.690329;;;;;;;;;
2250.0;2184.3;;;;;;;0.68617815;-0.07959227;-0.15649892;;;;;;;;;;;;
2250.0;2187.1;;;;-0.64095694;0.07239152;-0.41505438;;;;;;;;;;;;;;;
2250.0;2187.1;;;;-0.6405335;0.07447816;-0.4167176;;;;;;;;;;;;;;;
2250.0;2187.1;;;;-0.6380158;0.074996956;-0.41883093;;;;;;;;;;;;;;;
2250.0;2187.1;;;;-0.6362267;0.07358552;-0.42200476;;;;;;;;;;;;;;;
2250.0;2187.1;;;;-0.6349564;0.07151795;-0.4243279;;;;;;;;;;;;;;;
2250.0;2193.9;;;;;;;;;;6.8742943;19.917141;-16.754663;;;;;;;;;
2250.0;2193.9;;;;;;;0.674398;-0.07074191;-0.16705832;;;;;;;;;;;;
2250.0;2193.9;;;;;;;;;;6.9696646;21.900846;-17.70455;;;;;;;;;
2250.0;2193.9;;;;;;;0.6656087;-0.06390576;-0.17200232;;;;;;;;;;;;
2250.0;2197.2;;;;-0.6338082;0.06941605;-0.4259835;;;;;;;;;;;;;;;
2250.0;2197.2;;;;-0.63244253;0.067451485;-0.4282685;;;;;;;;;;;;;;;
2250.0;2197.2;;;;-0.63133246;0.06547166;-0.4313851;;;;;;;;;;;;;;;
2250.0;2197.2;;;;-0.6308747;0.06330872;-0.43515784;;;;;;;;;;;;;;;
2250.0;2197.2;;;;-0.6319848;0.061782844;-0.4398957;;;;;;;;;;;;;;;
2251.0;2201.2;;;;;;;;;;;;;;;;;72.779015;16.163366;46.269875;;2110.2
2251.0;2201.2;;;;;;;;;;;;;;0.8052614;-0.1264687;-0.2794885;;;;;2110.2
2251.0;2201.2;;;;;;;;;;;;;;;;;74.59869;17.876217;44.35865;;2110.2
2251.0;2201.2;;;;;;;;;;;;;;0.8089236;-0.16095462;-0.2677694;;;;;2110.2
2251.0;2201.2;;;;;;;;;;;;;;;;;74.3202;19.054995;42.573322;;2119.7
2251.0;2201.2;;;;;;;;;;;;;;0.8249763;-0.1657155;-0.27887815;;;;;2119.7
2251.0;2201.2;;;;;;;;;;;;;;;;;72.7485;20.325327;41.684467;;2119.7
2251.0;2201.2;;;;;;;;;;;;;;0.8233284;-0.19135106;-0.2821131;;;;;2119.7
2251.0;2201.2;;;;;;;;;;;;;;;;;72.86675;20.80218;41.184727;;2129.3
2251.0;2201.2;;;;;;;;;;;;;;0.8202765;-0.21686453;-0.29682302;;;;;2129.3
2251.0;2201.2;;;;;;;;;;;;;;;;;75.54094;20.607624;40.69643;;2129.3
2251.0;2201.2;;;;;;;;;;;;;;0.8200934;-0.24640645;-0.30664998;;;;;2129.3
2251.0;2201.1;262143;262143;11142;;;;;;;;;;;;;;;;;;
2251.0;2203.3;;;;;;;;;;7.1756644;23.880733;-18.841366;;;;;;;;;
2251.0;2203.3;;;;;;;0.65761286;-0.056642354;-0.17926572;;;;;;;;;;;;
2251.0;2203.3;;;;;;;;;;7.206183;25.322733;-19.985807;;;;;;;;;
2251.0;2203.3;;;;;;;0.64351326;-0.052125614;-0.17865536;;;;;;;;;;;;
2251.0;2206.6;;;;;;;;;;;;;-4742;;;;;;;;
2251.0;2206.6;;;;;;;;;;;;;-14560;;;;;;;;
2251.0;2206.6;;;;;;;;;;;;;-17865;;;;;;;;
2251.0;2206.6;;;;;;;;;;;;;-8670;;;;;;;;
2251.0;2206.6;;;;;;;;;;;;;6112;;;;;;;;
2252.0;2207.1;;;;-0.63561255;0.06087113;-0.44396216;;;;;;;;;;;;;;;
2252.0;2207.1;;;;-0.6422005;0.0610962;-0.44901282;;;;;;;;;;;;;;;
2252.0;2207.1;;;;-0.6503411;0.061740883;-0.45439535;;;;;;;;;;;;;;;
2252.0;2207.1;;;;-0.6594277;0.06325913;-0.45997244;;;;;;;;;;;;;;;
2252.0;2207.1;;;;-0.66706854;0.06536866;-0.46508795;;;;;;;;;;;;;;;
2252.0;2212.8;;;;;;;;;;7.2367015;26.688437;-20.897549;;;;;;;;;
2252.0;2212.8;;;;;;;0.61989194;-0.045228433;-0.1726127;;;;;;;;;;;;
2252.0;2212.8;;;;;;;;;;7.187109;27.691732;-21.580402;;;;;;;;;
2252.0;2212.8;;;;;;;0.5910825;-0.041627247;-0.16028321;;;;;;;;;;;;
2252.0;2216.9;;;;-0.67426306;0.067581184;-0.47015387;;;;;;;;;;;;;;;
2252.0;2216.9;;;;-0.68022925;0.07030488;-0.47552115;;;;;;;;;;;;;;;
2252.0;2216.9;;;;-0.685299;0.07341004;-0.47882468;;;;;;;;;;;;;;;
2252.0;2216.9;;;;-0.69001013;0.07622529;-0.481041;;;;;;;;;;;;;;;
2252.0;2216.9;;;;-0.6951638;0.079212196;-0.4816628;;;;;;;;;;;;;;;
2252.0;2221.0;262143;262143;11144;;;;;;;;;;;;;;;;;;
2252.0;2222.3;;;;;;;;;;7.126072;28.523361;-21.973328;;;;;;;;;
2252.0;2222.3;;;;;;;0.55854976;-0.036133915;-0.15436262;;;;;;;;;;;;
2252.0;2222.3;;;;;;;;;;6.859035;29.0994;-22.122105;;;;;;;;;
2252.0;2222.3;;;;;;;0.53761405;-0.0270394;-0.15332499;;;;;;;;;;;;
2308.0;2226.9;;;;-0.7001763;0.08275605;-0.4826699;;;;;;;;;;;;;;;
2308.0;2226.9;;;;-0.70524603;0.08563233;-0.4846955;;;;;;;;;;;;;;;
2308.0;2226.9;;;;-0.70999914;0.08846284;-0.48797613;;;;;;;;;;;;;;;
2308.0;2226.9;;;;-0.71706396;0.09152985;-0.49227148;;;;;;;;;;;;;;;
2308.0;2226.9;;;;-0.7252236;0.095512405;-0.49683768;;;;;;;;;;;;;;;
2308.0;2231.5;;;;;;;;;;6.6225166;29.587696;-22.492142;;;;;;;;;
2308.0;2231.5;;;;;;;0.5266274;-0.017029328;-0.15967284;;;;;;;;;;;;
2308.0;2231.5;;;;;;;;;;6.424146;29.633474;-23.144474;;;;;;;;;
2308.0;2231.5;;;;;;;0.5211341;-0.00634785;-0.16876736;;;;;;;;;;;;
2308.0;2236.7;;;;-0.73385245;0.09963609;-0.50282294;;;;;;;;;;;;;;;
2308.0;2236.7;;;;-0.74132925;0.10519029;-0.50684744;;;;;;;;;;;;;;;
2308.0;2236.7;;;;-0.7482148;0.11036302;-0.51113135;;;;;;;;;;;;;;;
2308.0;2236.7;;;;-0.7534791;0.11354448;-0.5112801;;;;;;;;;;;;;;;
2308.0;2236.7;;;;-0.7582208;0.11447908;-0.5095559;;;;;;;;;;;;;;;
2308.0;2241.1;;;;;;;;;;6.3058867;29.541918;-23.800623;;;;;;;;;
2308.0;2241.1;;;;;;;0.52327037;0.0051881466;-0.18463698;;;;;;;;;;;;
2308.0;2241.1;;;;;;;;;;6.2334056;29.381695;-24.27366;;;;;;;;;
2308.0;2241.1;;;;;;;0.5335856;0.01678518;-0.20636617;;;;;;;;;;;;
2308.0;2240.8;262143;262143;11127;;;;;;;;;;;;;;;;;;
2308.0;2246.4;;;;;;;;;;;;;14051;;;;;;;;
2308.0;2246.4;;;;;;;;;;;;;11304;;;;;;;;
2308.0;2246.4;;;;;;;;;;;;;4606;;;;;;;;
2308.0;2246.4;;;;;;;;;;;;;908;;;;;;;;
2308.0;2246.4;;;;;;;;;;;;;432;;;;;;;;
2310.0;2246.8;;;;-0.7650529;0.11311723;-0.51238257;;;;;;;;;;;;;;;
2310.0;2246.8;;;;-0.77248776;0.11141588;-0.51925284;;;;;;;;;;;;;;;
2310.0;2246.8;;;;-0.7812997;0.11128999;-0.5267907;;;;;;;;;;;;;;;
2310.0;2246.8;;;;-0.7910806;0.11191179;-0.5337525;;;;;;;;;;;;;;;
2310.0;2246.8;;;;-0.8010789;0.113021865;-0.5414849;;;;;;;;;;;;;;;
2310.0;2250.7;;;;;;;;;;6.267739;28.633991;-24.636068;;;;;;;;;
2310.0;2250.7;;;;;;;0.5497604;0.026917325;-0.22772911;;;;;;;;;;;;
2310.0;2250.7;;;;;;;;;;6.515702;26.787622;-24.815363;;;;;;;;;
2310.0;2250.7;;;;;;;0.55800045;0.034485918;-0.24921414;;;;;;;;;;;;
2310.0;2256.9;;;;-0.81037915;0.113468185;-0.5490685;;;;;;;;;;;;;;;
2310.0;2256.9;;;;-0.81961834;0.11345674;-0.55496985;;;;;;;;;;;;;;;
2310.0;2256.9;;;;-0.8292657;0.11317827;-0.5594788;;;;;;;;;;;;;;;
2310.0;2256.9;;;;-0.83869946;0.11382677;-0.5638123;;;;;;;;;;;;;;;
2310.0;2256.9;;;;-0.8468553;0.11508943;-0.56799704;;;;;;;;;;;;;;;
2310.0;2260.3;;;;;;;;;;6.782739;24.056215;-24.76577;;;;;;;;;
2310.0;2260.3;;;;;;;0.558916;0.04297006;-0.26911223;;;;;;;;;;;;
2310.0;2260.3;;;;;;;;;;7.1298866;20.924253;-24.468216;;;;;;;;;
2310.0;2260.3;;;;;;;0.562212;0.04425184;-0.28583637;;;;;;;;;;;;
2316.0;2261.3;;;;;;;;;;;;;;;;;81.65227;19.951475;39.5558;;2139.0
2316.0;2261.3;;;;;;;;;;;;;;0.8398694;-0.22229682;-0.32770777;;;;;2139.0
2316.0;2261.3;;;;;;;;;;;;;;;;;90.269936;19.825586;38.62499;;2139.0
2316.0;2261.3;;;;;;;;;;;;;;0.8548845;-0.1815241;-0.33021027;;;;;2139.0
2316.0;2261.3;;;;;;;;;;;;;;;;;98.19712;19.692068;38.14432;;2148.7
2316.0;2261.3;;;;;;;;;;;;;;0.87508774;-0.1271401;-0.3408307;;;;;2148.7
2316.0;2261.3;;;;;;;;;;;;;;;;;103.75912;20.622883;38.21299;;2148.7
2316.0;2261.3;;;;;;;;;;;;;;0.8791162;-0.090029605;-0.3490707;;;;;2148.7
2316.0;2261.3;;;;;;;;;;;;;;;;;107.28019;22.141178;39.00647;;2158.4
2316.0;2261.3;;;;;;;;;;;;;;0.8484756;-0.080996126;-0.3325297;;;;;2158.4
2316.0;2261.3;;;;;;;;;;;;;;;;;110.76693;21.805475;39.68932;;2158.4
2316.0;2261.3;;;;;;;;;;;;;;0.8264412;-0.046449173;-0.32288584;;;;;2158.4
2316.0;2261.0;262143;262143;11123;;;;;;;;;;;;;;;;;;
2316.0;2262.1;;;;;;;;;;;;;;;;;114.39482;20.069735;40.498062;;2167.9
2316.0;2262.1;;;;;;;;;;;;;;0.81276894;0.0026245918;-0.32917264;;;;;2167.9
2316.0;2262.1;;;;;;;;;;;;;;;;;116.222115;17.15903;40.498062;;2167.9
2316.0;2262.1;;;;;;;;;;;;;;0.8019044;0.051942505;-0.35407576;;;;;2167.9
2316.0;2262.1;;;;;;;;;;;;;;;;;114.642784;14.912107;41.4098;;2177.5
2316.0;2262.1;;;;;;;;;;;;;;0.79030734;0.084902495;-0.37940612;;;;;2177.5
2316.0;2262.1;;;;;;;;;;;;;;;;;110.50752;12.989441;42.298656;;2177.5
2316.0;2262.1;;;;;;;;;;;;;;0.77846617;0.10242012;-0.410596;;;;;2177.5
2316.0;2262.1;;;;;;;;;;;;;;;;;105.40712;12.367626;42.996765;;2187.2
2316.0;2262.1;;;;;;;;;;;;;;0.7481918;0.11279641;-0.42396313;;;;;2187.2
