patientId;holterMac;flexMac;;;;;;;;;;;;;;;;;;;;
stairsup;CA:F3:0B:1E:33:78;D3:4A:5C:52:80:78;;;;;;;;;;;;;;;;;;;;
receivedTimeStamp;timeStamp;red;ir;green;adxl_accX;adxl_accY;adxl_accZ;lsm_accelX;lsm_accelY;lsm_accelZ;lsm_gyroX;lsm_gyroY;lsm_gyroZ;ecg;flex_lsm_accelX;flex_lsm_accelY;flex_lsm_accelZ;flex_lsm_gyroX;flex_lsm_gyroY;flex_lsm_gyroZ;flex_cmd;flexTimeStamp
300.0;214.5;;;;;;;;;;;;;;;;;;;;17;0.1
300.0;214.5;;;;;;;;;;;;;;;;;14.061403;1.7777032;1.2970366;;127.5
300.0;214.5;;;;;;;;;;;;;;0.8730125;-0.034669027;-0.29340494;;;;;127.5
300.0;214.5;;;;;;;;;;;;;;;;;-5.1957765;-17.433699;-6.7712946;;127.5
300.0;214.5;;;;;;;;;;;;;;0.89504683;-0.048036136;-0.29175696;;;;;127.5
300.0;214.5;;;;;;;;;;;;;;;;;-62.29972;-85.039825;-59.11054;;137.1
300.0;214.5;;;;;;;;;;;;;;0.9021882;-0.060304575;-0.27655873;;;;;137.1
300.0;214.5;;;;;;;;;;;;;;;;;-121.89474;-124.988556;-118.44997;;137.1
300.0;214.5;;;;;;;;;;;;;;0.9119541;-0.07550279;-0.2694174;;;;;137.1
365.0;215.4;;;;;;;;;;;;;;;;;-47.78817;-124.98093;-64.874725;;146.8
365.0;215.4;;;;;;;;;;;;;;0.9164098;-0.09979553;-0.29255044;;;;;146.8
365.0;215.4;;;;;;;;;;;;;;;;;34.382915;-124.988556;1.3161107;;146.8
365.0;215.4;;;;;;;;;;;;;;0.92703027;-0.11444441;-0.30292672;;;;;146.8
365.0;215.4;;;;;;;;;;;;;;;;;36.91595;-98.77698;17.010254;;156.5
365.0;215.4;;;;;;;;;;;;;;0.9373455;-0.12689596;-0.28388318;;;;;156.5
365.0;215.4;;;;;;;;;;;;;;;;;33.234657;-11.524552;44.17173;;156.5
365.0;215.4;;;;;;;;;;;;;;0.93447673;-0.13940856;-0.25891903;;;;;156.5
365.0;215.4;;;;;;;;;;;;;;;;;33.024845;-3.2883694;45.503098;;166.0
365.0;215.4;;;;;;;;;;;;;;0.93081456;-0.146733;-0.25098422;;;;;166.0
365.0;215.4;;;;;;;;;;;;;;;;;34.66521;-3.5287027;45.30091;;166.0
365.0;215.4;;;;;;;;;;;;;;0.92123175;-0.15918455;-0.26722008;;;;;166.0
365.0;274.9;;;;;;;;;;;;;;;;;36.896877;-4.253517;45.4268;;175.7
365.0;274.9;;;;;;;;;;;;;;0.91329694;-0.173101;-0.2713706;;;;;175.7
365.0;274.9;;;;;;;;;;;;;;;;;38.979767;-4.9592576;45.04532;;175.7
365.0;274.9;;;;;;;;;;;;;;0.9137242;-0.18109684;-0.2658162;;;;;175.7
365.0;274.9;;;;;;;;;;;;;;;;;40.738396;-6.1342206;44.938503;;185.3
365.0;274.9;;;;;;;;;;;;;;0.9142735;-0.18561357;-0.28186896;;;;;185.3
365.0;274.9;;;;;;;;;;;;;;;;;42.38258;-7.6105533;45.37721;;185.3
365.0;274.9;;;;;;;;;;;;;;0.90737635;-0.18359935;-0.30463576;;;;;185.3
365.0;274.9;;;;;;;;;;;;;;;;;43.74447;-9.697257;45.930355;;195.0
365.0;274.9;;;;;;;;;;;;;;0.9076815;-0.18396558;-0.31397444;;;;;195.0
365.0;274.9;;;;;;;;;;;;;;;;;45.5298;-11.043886;46.498764;;195.0
365.0;274.9;;;;;;;;;;;;;;0.91219825;-0.19452497;-0.2959685;;;;;195.0
425.0;275.7;;;;;;;;;;;;;;;;;46.269875;-12.962737;46.72384;;204.7
425.0;275.7;;;;;;;;;;;;;;0.9391766;-0.1854915;-0.28382215;;;;;204.7
425.0;275.7;;;;;;;;;;;;;;;;;45.346687;-14.034699;47.284615;;204.7
425.0;275.7;;;;;;;;;;;;;;0.95236063;-0.18115787;-0.30060732;;;;;204.7
425.0;275.7;;;;;;;;;;;;;;;;;43.759727;-14.080477;48.23832;;214.3
425.0;275.7;;;;;;;;;;;;;;0.9543138;-0.18524735;-0.31385234;;;;;214.3
425.0;275.7;;;;;;;;;;;;;;;;;42.626728;-12.623219;48.39854;;214.3
425.0;275.7;;;;;;;;;;;;;;0.9465011;-0.1699881;-0.30225533;;;;;214.3
425.0;275.7;;;;;;;;;;;;;;;;;42.855618;-10.13596;47.814877;;224.0
425.0;275.7;;;;;;;;;;;;;;0.9485153;-0.15021211;-0.25611132;;;;;224.0
425.0;275.7;;;;;;;;;;;;;;;;;42.329174;-9.857478;47.917877;;224.0
425.0;275.7;;;;;;;;;;;;;;0.946379;-0.12622456;-0.24219489;;;;;224.0
425.0;335.3;;;;;;;;;;;;;;;;;41.55095;-11.2537;48.852505;;233.5
425.0;335.3;;;;;;;;;;;;;;0.95620596;-0.111636706;-0.23554185;;;;;233.5
425.0;335.3;;;;;;;;;;;;;;;;;40.50569;-12.825403;49.066135;;233.5
425.0;335.3;;;;;;;;;;;;;;0.94985807;-0.084231086;-0.25141147;;;;;233.5
425.0;335.3;;;;;;;;;;;;;;;;;39.536728;-12.1654415;49.17295;;243.2
425.0;335.3;;;;;;;;;;;;;;0.9412519;-0.060670797;-0.23780023;;;;;243.2
425.0;335.3;;;;;;;;;;;;;;;;;37.70562;-13.443404;49.81765;;243.2
425.0;335.3;;;;;;;;;;;;;;0.9416181;-0.058290355;-0.2499466;;;;;243.2
425.0;335.3;;;;;;;;;;;;;;;;;34.76821;-12.760551;49.901577;;252.9
425.0;335.3;;;;;;;;;;;;;;0.939787;-0.024842067;-0.2548906;;;;;252.9
425.0;335.3;;;;;;;;;;;;;;;;;29.892881;-9.659109;49.951168;;252.9
425.0;335.3;;;;;;;;;;;;;;0.92696923;-0.008667257;-0.20984527;;;;;252.9
483.0;336.1;;;;;;;;;;;;;;;;;24.983213;-10.734886;50.210575;;262.5
483.0;336.1;;;;;;;;;;;;;;0.9368572;-0.0026245918;-0.21167639;;;;;262.5
483.0;336.1;;;;;;;;;;;;;;;;;20.931883;-10.902738;50.48143;;262.5
483.0;336.1;;;;;;;;;;;;;;0.95577866;-0.0113528855;-0.22351757;;;;;262.5
483.0;336.1;;;;;;;;;;;;;;;;;17.20481;-9.006775;50.805687;;272.2
483.0;336.1;;;;;;;;;;;;;;0.9818415;-0.011841182;-0.21124913;;;;;272.2
483.0;336.1;;;;;;;;;;;;;;;;;12.562181;-3.8224432;50.72558;;272.2
483.0;336.1;;;;;;;;;;;;;;0.9104892;-0.022400586;-0.19971313;;;;;272.2
483.0;336.1;;;;;;;;;;;;;;;;;8.041628;-0.553148;50.71413;;281.8
483.0;336.1;;;;;;;;;;;;;;0.87508774;-0.039185766;-0.13605152;;;;;281.8
483.0;336.1;;;;;;;;;;;;;;;;;3.952147;-6.1418505;50.52339;;281.8
483.0;336.1;;;;;;;;;;;;;;0.9205603;-0.05139317;-0.18237862;;;;;281.8
483.0;396.0;;;;;;;;;;;;;;;;;1.1558886;-5.962554;51.37791;;291.5
483.0;396.0;;;;;;;;;;;;;;0.9303262;-0.060670797;-0.21015045;;;;;291.5
483.0;396.0;;;;;;;;;;;;;;;;;-3.0594807;-2.6894438;52.40028;;291.5
483.0;396.0;;;;;;;;;;;;;;0.92855614;-0.06799524;-0.19238868;;;;;291.5
483.0;396.0;;;;;;;;;;;;;;;;;-9.281442;-1.2016664;53.8728;;301.1
483.0;396.0;;;;;;;;;;;;;;0.9292886;-0.07641835;-0.18298899;;;;;301.1
483.0;396.0;;;;;;;;;;;;;;;;;-15.091403;-0.4196295;55.272835;;301.1
483.0;396.0;;;;;;;;;;;;;;0.92281866;-0.085695975;-0.18024231;;;;;301.1
483.0;396.0;;;;;;;;;;;;;;;;;-19.760735;-0.3013703;56.360058;;310.6
483.0;396.0;;;;;;;;;;;;;;0.9215369;-0.09552293;-0.18463698;;;;;310.6
483.0;396.0;;;;;;;;;;;;;;;;;-23.117771;-0.7209998;57.51213;;310.6
483.0;396.0;;;;;;;;;;;;;;0.931608;-0.10669271;-0.19367047;;;;;310.6
544.0;396.8;;;;;;;;;;;;;;;;;-25.326548;-1.411481;58.7405;;320.3
544.0;396.8;;;;;;;;;;;;;;0.9401532;-0.11120945;-0.21314128;;;;;320.3
544.0;396.8;;;;;;;;;;;;;;;;;-27.72225;-1.8616291;60.26261;;320.3
544.0;396.8;;;;;;;;;;;;;;0.92623675;-0.11902219;-0.21802424;;;;;320.3
544.0;396.8;;;;;;;;;;;;;;;;;-30.58336;-3.9445176;61.75802;;330.0
544.0;396.8;;;;;;;;;;;;;;0.92306286;-0.10803553;-0.22315134;;;;;330.0
544.0;396.8;;;;;;;;;;;;;;;;;-34.06247;-6.992553;63.82946;;330.0
544.0;396.8;;;;;;;;;;;;;;0.9317301;-0.13550219;-0.23865475;;;;;330.0
544.0;396.8;;;;;;;;;;;;;;;;;-36.286507;-8.159886;65.740685;;339.7
544.0;396.8;;;;;;;;;;;;;;0.9159215;-0.19251075;-0.24787134;;;;;339.7
544.0;396.8;;;;;;;;;;;;;;;;;-39.765617;-4.6044803;66.13743;;339.7
544.0;396.8;;;;;;;;;;;;;;0.8565325;-0.18408765;-0.21887875;;;;;339.7
544.0;455.9;;;;;;;;;;;;;;;;;-44.408245;-1.8616291;66.44261;;349.3
544.0;455.9;;;;;;;;;;;;;;0.81063265;-0.1737724;-0.16479996;;;;;349.3
544.0;455.9;;;;;;;;;;;;;;;;;-46.903133;-4.425184;66.53799;;349.3
544.0;455.9;;;;;;;;;;;;;;0.8410291;-0.15375225;-0.1445967;;;;;349.3
544.0;455.9;;;;;;;;;;;;;;;;;-47.36854;-7.145146;66.58758;;359.0
544.0;455.9;;;;;;;;;;;;;;0.897;-0.12292856;-0.16968292;;;;;359.0
544.0;455.9;;;;;;;;;;;;;;;;;-47.475357;-7.27485;66.29002;;359.0
544.0;455.9;;;;;;;;;;;;;;0.90823084;-0.10974456;-0.18366039;;;;;359.0
544.0;455.9;;;;;;;;;;;;;;;;;-47.185432;-7.7478867;65.26383;;368.5
544.0;455.9;;;;;;;;;;;;;;0.901883;-0.09796441;-0.19299905;;;;;368.5
544.0;455.9;;;;;;;;;;;;;;;;;-47.59743;-9.758293;64.38643;;368.5
544.0;455.9;;;;;;;;;;;;;;0.89944154;-0.08429212;-0.19312114;;;;;368.5
725.0;470.9;;;;;;;;;;;;;;;;;-49.60402;-12.57744;63.87143;;378.2
725.0;470.9;;;;;;;;;;;;;;0.89980775;-0.07684561;-0.18469802;;;;;378.2
725.0;470.9;;;;;;;;;;;;;;;;;-52.88476;-14.275033;62.795647;;378.2
725.0;470.9;;;;;;;;;;;;;;0.9023713;-0.05304117;-0.17072055;;;;;378.2
725.0;470.9;;;;;;;;;;;;;;;;;-54.277172;-14.01181;62.231056;;387.9
725.0;470.9;;;;;;;;;;;;;;0.8930326;-0.07324442;-0.1391644;;;;;387.9
725.0;470.9;;;;;;;;;;;;;;;;;-51.530502;-14.820552;60.857723;;387.9
725.0;470.9;;;;;;;;;;;;;;0.88137454;-0.10223701;-0.11078219;;;;;387.9
725.0;470.9;;;;;;;;;;;;;;;;;-46.75054;-18.62392;58.614613;;397.5
725.0;470.9;;;;;;;;;;;;;;0.8799097;-0.119754635;-0.13116856;;;;;397.5
725.0;470.9;;;;;;;;;;;;;;;;;-41.169468;-21.069216;56.073944;;397.5
725.0;470.9;;;;;;;;;;;;;;0.89400923;-0.1312296;-0.16846217;;;;;397.5
725.0;637.7;;;;;;;;;;;;;;;;;-35.390026;-19.718771;52.99539;;407.2
725.0;637.7;;;;;;;;;;;;;;0.90157783;-0.13794367;-0.1859798;;;;;407.2
725.0;637.7;;;;;;;;;;;;;;;;;-28.923918;-17.132328;50.37843;;407.2
725.0;637.7;;;;;;;;;;;;;;0.89919734;-0.15753655;-0.18793298;;;;;407.2
725.0;637.7;;;;;;;;;;;;;;;;;-21.965698;-15.655996;47.60506;;416.8
725.0;637.7;;;;;;;;;;;;;;0.9147618;-0.15784173;-0.19525743;;;;;416.8
725.0;637.7;;;;;;;;;;;;;;;;;-14.587848;-14.690847;44.56465;;416.8
725.0;637.7;;;;;;;;;;;;;;0.9462569;-0.14746544;-0.23139134;;;;;416.8
725.0;637.7;;;;;;;;;;;;;;;;;-7.507553;-12.031922;41.25721;;426.5
725.0;637.7;;;;;;;;;;;;;;0.9580981;-0.12823878;-0.26111636;;;;;426.5
725.0;637.7;;;;;;;;;;;;;;;;;-1.5297403;-10.628071;38.548695;;426.5
725.0;637.7;;;;;;;;;;;;;;0.95919675;-0.112308115;-0.28058717;;;;;426.5
728.0;638.6;;;;;;;;;;;;;;;;;2.6818142;-10.830256;36.774803;;436.0
728.0;638.6;;;;;;;;;;;;;;0.9659719;-0.08215583;-0.2840663;;;;;436.0
728.0;638.6;;;;;;;;;;;;;;;;;4.974517;-11.864071;35.550247;;436.0
728.0;638.6;;;;;;;;;;;;;;0.96926785;-0.06738487;-0.29352704;;;;;436.0
728.0;638.6;;;;;;;;;;;;;;;;;8.140813;-12.962737;34.184544;;445.5
728.0;638.6;;;;;;;;;;;;;;0.97396773;-0.048219245;-0.28827783;;;;;445.5
728.0;638.6;;;;;;;;;;;;;;;;;11.6962185;-12.985626;32.868435;;445.5
728.0;638.6;;;;;;;;;;;;;;0.9779962;-0.034974214;-0.2696005;;;;;445.5
728.0;638.6;;;;;;;;;;;;;;;;;15.4194765;-11.890775;31.20136;;455.2
728.0;638.6;;;;;;;;;;;;;;0.97366256;-0.019592883;-0.2362743;;;;;455.2
728.0;638.6;;;;;;;;;;;;;;;;;18.753624;-11.722922;29.087955;;455.2
728.0;638.6;;;;;;;;;;;;;;0.95651114;-0.0019531846;-0.21955016;;;;;455.2
728.0;639.3;;;;;;;;;;;;;;;;;20.386364;-12.859736;26.886808;;464.9
728.0;639.3;;;;;;;;;;;;;;0.9416181;0.0075685903;-0.22333445;;;;;464.9
728.0;639.3;;;;;;;;;;;;;;;;;20.302439;-13.61507;24.84588;;464.9
728.0;639.3;;;;;;;;;;;;;;0.9312418;0.011535997;-0.23670156;;;;;464.9
728.0;639.3;;;;;;;;;;;;;;;;;19.581438;-12.844478;22.919401;;474.5
728.0;639.3;;;;;;;;;;;;;;0.9239784;0.02191229;-0.24274422;;;;;474.5
728.0;639.3;;;;;;;;;;;;;;;;;19.344921;-12.524033;21.370586;;474.5
728.0;639.3;;;;;;;;;;;;;;0.92684716;0.03485214;-0.26197088;;;;;474.5
728.0;639.3;;;;;;;;;;;;;;;;;19.84466;-13.0047;20.119328;;484.1
728.0;639.3;;;;;;;;;;;;;;0.94369334;0.045411542;-0.28730124;;;;;484.1
728.0;639.3;;;;;;;;;;;;;;;;;19.36018;-13.229774;19.150366;;484.1
728.0;639.3;;;;;;;;;;;;;;0.97366256;0.053102206;-0.3185522;;;;;484.1
729.0;640.1;;;;;;;;;;;;;;;;;18.238625;-12.531663;18.169958;;493.8
729.0;640.1;;;;;;;;;;;;;;1.0096743;0.054139838;-0.3475448;;;;;493.8
729.0;640.1;;;;;;;;;;;;;;;;;17.147587;-10.765405;17.502365;;493.8
729.0;640.1;;;;;;;;;;;;;;1.0384228;0.046388134;-0.3569445;;;;;493.8
729.0;640.1;;;;;;;;;;;;;;;;;16.785181;-8.205665;16.964476;;503.4
729.0;640.1;;;;;;;;;;;;;;1.0630207;0.044740137;-0.34968108;;;;;503.4
729.0;640.1;;;;;;;;;;;;;;;;;17.883846;-5.8519244;16.07944;;503.4
729.0;640.1;;;;;;;;;;;;;;1.07004;0.045411542;-0.34101382;;;;;503.4
729.0;640.1;;;;;;;;;;;;;;;;;19.013033;-4.856258;15.511032;;513.0
729.0;640.1;;;;;;;;;;;;;;1.0652791;0.04504532;-0.3477279;;;;;513.0
729.0;640.1;;;;;;;;;;;;;;;;;18.601032;-4.1047397;15.297402;;513.0
729.0;640.1;;;;;;;;;;;;;;1.052034;0.037720878;-0.35309917;;;;;513.0
729.0;652.2;;;;;;;;;;;;;;;;;17.063662;-3.6011841;15.354625;;522.7
729.0;652.2;;;;;;;;;;;;;;1.0343333;0.03070162;-0.35700554;;;;;522.7
729.0;652.2;;;;;;;;;;;;;;;;;15.831476;-3.3112583;15.377514;;522.7
729.0;652.2;;;;;;;;;;;;;;1.0131534;0.024536882;-0.3658559;;;;;522.7
729.0;652.2;;;;;;;;;;;;;;;;;15.049439;-3.9063692;14.500107;;532.4
729.0;652.2;;;;;;;;;;;;;;0.9862972;0.0496231;-0.3958861;;;;;532.4
729.0;652.2;;;;;;;;;;;;;;;;;10.921812;-4.226814;13.744773;;532.4
729.0;652.2;;;;;;;;;;;;;;0.99862665;0.0954619;-0.3979003;;;;;532.4
729.0;652.2;;;;;;;;;;;;;;;;;2.8992584;-1.4839625;13.958403;;541.9
729.0;652.2;;;;;;;;;;;;;;1.0430006;0.11401715;-0.3552965;;;;;541.9
729.0;652.2;;;;;;;;;;;;;;;;;-0.7057405;-2.3651845;12.176886;;541.9
729.0;652.2;;;;;;;;;;;;;;1.0946379;0.140141;-0.37903988;;;;;541.9
785.0;653.3;;;;;;;;;;;;;;;;;0.6256294;-6.164739;9.239479;;551.5
785.0;653.3;;;;;;;;;;;;;;1.1520127;0.11346782;-0.45692313;;;;;551.5
785.0;653.3;;;;;;;;;;;;;;;;;0.21362957;-3.2654805;6.4470353;;551.5
785.0;653.3;;;;;;;;;;;;;;1.1922361;0.029847102;-0.49543747;;;;;551.5
785.0;653.3;;;;;;;;;;;;;;;;;-0.51499987;5.592517;2.948851;;561.2
785.0;653.3;;;;;;;;;;;;;;1.2126834;0.02130192;-0.41999573;;;;;561.2
785.0;653.3;;;;;;;;;;;;;;;;;-0.026703697;11.780145;-0.8888516;;561.2
785.0;653.3;;;;;;;;;;;;;;1.2127445;0.049745172;-0.25421917;;;;;561.2
785.0;653.3;;;;;;;;;;;;;;;;;1.6365551;12.455366;-5.767998;;570.7
785.0;653.3;;;;;;;;;;;;;;1.2113407;0.081118196;-0.10065004;;;;;570.7
785.0;653.3;;;;;;;;;;;;;;;;;4.5739617;10.029145;-12.199775;;570.7
785.0;653.3;;;;;;;;;;;;;;1.1749016;0.10547197;-0.07470931;;;;;570.7
785.0;654.1;;;;;;;;;;;;;;;;;5.4971466;7.560961;-18.505661;;580.4
785.0;654.1;;;;;;;;;;;;;;1.1438948;0.12683493;-0.15051728;;;;;580.4
785.0;654.1;;;;;;;;;;;;;;;;;3.3761103;7.026887;-23.876919;;580.4
785.0;654.1;;;;;;;;;;;;;;1.1671499;0.14496292;-0.20838039;;;;;580.4
785.0;654.1;;;;;;;;;;;;;;;;;2.3537402;9.92233;-28.969696;;590.1
785.0;654.1;;;;;;;;;;;;;;1.225074;0.14899136;-0.16809595;;;;;590.1
785.0;654.1;;;;;;;;;;;;;;;;;5.878628;15.003662;-35.29084;;590.1
785.0;654.1;;;;;;;;;;;;;;1.2668233;0.15643787;-0.083010346;;;;;590.1
785.0;654.1;;;;;;;;;;;;;;;;;12.493514;20.489365;-42.119358;;599.8
785.0;654.1;;;;;;;;;;;;;;1.2783593;0.1734672;-0.03625599;;;;;599.8
785.0;654.1;;;;;;;;;;;;;;;;;18.215734;25.37614;-48.867764;;599.8
785.0;654.1;;;;;;;;;;;;;;1.2624286;0.17853329;-0.019959105;;;;;599.8
846.0;704.8;;;;;;;;;;;;;;;;;22.415844;29.614399;-55.696278;;609.0
846.0;704.8;;;;;;;;;;;;;;1.2553483;0.20233771;-0.013550218;;;;;609.0
846.0;704.8;;;;;;;;;;;;;;;;;24.109623;32.574696;-61.574905;;609.0
846.0;704.8;;;;;;;;;;;;;;1.284341;0.19183935;0.0037842952;;;;;609.0
846.0;704.8;;;;;;;;;;;;;;;;;25.757622;36.885433;-67.78161;;618.7
846.0;704.8;;;;;;;;;;;;;;1.294473;0.16809595;0.006042665;;;;;618.7
846.0;704.8;;;;;;;;;;;;;;;;;28.584398;44.660023;-74.35454;;618.7
846.0;704.8;;;;;;;;;;;;;;1.2686545;0.12884915;0.0397351;;;;;618.7
846.0;704.8;;;;;;;;;;;;;;;;;31.758324;50.962093;-80.23316;;628.4
846.0;704.8;;;;;;;;;;;;;;1.2605366;0.044557024;0.06591998;;;;;628.4
846.0;704.8;;;;;;;;;;;;;;;;;35.46251;57.229836;-87.21046;;628.4
846.0;704.8;;;;;;;;;;;;;;1.2373425;-0.035340436;0.06591998;;;;;628.4
846.0;705.6;;;;;;;;;;;;;;;;;37.3661;61.42613;-94.794304;;638.0
846.0;705.6;;;;;;;;;;;;;;1.1876583;-0.09729301;-0.011108737;;;;;638.0
846.0;705.6;;;;;;;;;;;;;;;;;36.56499;66.782135;-102.58415;;638.0
846.0;705.6;;;;;;;;;;;;;;1.1624501;-0.17151402;-0.055604726;;;;;638.0
846.0;705.6;;;;;;;;;;;;;;;;;39.10565;75.88809;-110.248116;;647.7
846.0;705.6;;;;;;;;;;;;;;1.1144749;-0.25074008;-0.012451552;;;;;647.7
846.0;705.6;;;;;;;;;;;;;;;;;44.450207;78.489784;-116.68752;;647.7
846.0;705.6;;;;;;;;;;;;;;1.0253608;-0.33588672;-0.04358043;;;;;647.7
846.0;705.6;;;;;;;;;;;;;;;;;44.56465;70.20783;-121.63533;;657.3
846.0;705.6;;;;;;;;;;;;;;0.9560228;-0.35950804;-0.18848231;;;;;657.3
846.0;705.6;;;;;;;;;;;;;;;;;40.150913;54.143654;-124.29426;;657.3
846.0;705.6;;;;;;;;;;;;;;0.89767146;-0.36097294;-0.42200994;;;;;657.3
907.0;765.6;;;;;;;;;;;;;;;;;38.056583;40.06317;-124.988556;;666.8
907.0;765.6;;;;;;;;;;;;;;0.78212833;-0.2997528;-0.52253795;;;;;666.8
907.0;765.6;;;;;;;;;;;;;;;;;35.35188;23.682364;-124.988556;;666.8
907.0;765.6;;;;;;;;;;;;;;0.68532366;-0.29242834;-0.5553148;;;;;666.8
907.0;765.6;;;;;;;;;;;;;;;;;38.285473;6.5233316;-124.988556;;676.3
907.0;765.6;;;;;;;;;;;;;;0.6530961;-0.29554126;-0.55226296;;;;;676.3
907.0;765.6;;;;;;;;;;;;;;;;;45.915096;-8.762627;-124.988556;;676.3
907.0;765.6;;;;;;;;;;;;;;0.6656087;-0.31092256;-0.55293435;;;;;676.3
907.0;765.6;;;;;;;;;;;;;;;;;55.21561;-16.270182;-124.988556;;686.0
907.0;765.6;;;;;;;;;;;;;;0.7157811;-0.32410657;-0.49861142;;;;;686.0
907.0;765.6;;;;;;;;;;;;;;;;;64.02402;-17.033142;-124.988556;;686.0
907.0;765.6;;;;;;;;;;;;;;0.84542376;-0.2997528;-0.36317027;;;;;686.0
907.0;766.4;;;;;;;;;;;;;;;;;68.277534;-5.050813;-124.10733;;695.7
907.0;766.4;;;;;;;;;;;;;;1.0340282;-0.31495103;-0.19190039;;;;;695.7
907.0;766.4;;;;;;;;;;;;;;;;;75.99109;13.6875515;-116.9126;;695.7
907.0;766.4;;;;;;;;;;;;;;1.2027955;-0.48200935;0.016724143;;;;;695.7
907.0;766.4;;;;;;;;;;;;;;;;;100.26093;9.716331;-113.70052;;705.3
907.0;766.4;;;;;;;;;;;;;;1.4253975;-0.66206855;0.10699789;;;;;705.3
907.0;766.4;;;;;;;;;;;;;;;;;122.50511;-7.045961;-119.479965;;705.3
907.0;766.4;;;;;;;;;;;;;;1.548204;-0.7466048;-0.054994356;;;;;705.3
907.0;766.4;;;;;;;;;;;;;;;;;124.988556;-17.16666;-123.57707;;715.0
907.0;766.4;;;;;;;;;;;;;;1.5518662;-0.677633;-0.25745416;;;;;715.0
907.0;766.4;;;;;;;;;;;;;;;;;124.988556;-21.061586;-119.33119;;715.0
907.0;766.4;;;;;;;;;;;;;;1.5450301;-0.61165196;-0.3999756;;;;;715.0
967.0;818.0;;;;;;;;;;;;;;;;;123.867;-22.3014;-115.256966;;724.7
967.0;818.0;;;;;;;;;;;;;;1.5807368;-0.52430797;-0.44026002;;;;;724.7
967.0;818.0;;;;;;;;;;;;;;;;;116.14582;-20.56566;-117.099525;;724.7
967.0;818.0;;;;;;;;;;;;;;1.5923338;-0.37110507;-0.40882596;;;;;724.7
967.0;818.0;;;;;;;;;;;;;;;;;101.981415;-11.455885;-119.57534;;734.2
967.0;818.0;;;;;;;;;;;;;;1.4962004;-0.26599932;-0.36365855;;;;;734.2
967.0;818.0;;;;;;;;;;;;;;;;;88.248085;-0.37003693;-122.71111;;734.2
967.0;818.0;;;;;;;;;;;;;;1.3534958;-0.17859432;-0.24958037;;;;;734.2
967.0;818.0;;;;;;;;;;;;;;;;;76.09409;0.7019257;-123.62285;;743.9
967.0;818.0;;;;;;;;;;;;;;1.2088381;-0.15326396;-0.20606098;;;;;743.9
967.0;818.0;;;;;;;;;;;;;;;;;64.87854;2.0332959;-124.717705;;743.9
967.0;818.0;;;;;;;;;;;;;;1.0397046;-0.156621;-0.17694631;;;;;743.9
967.0;825.5;;;;;;;;;;;;;;;;;55.475018;-2.5406659;-124.35529;;753.6
967.0;825.5;;;;;;;;;;;;;;0.95107883;-0.18591876;-0.18512528;;;;;753.6
967.0;825.5;;;;;;;;;;;;;;;;;48.532063;-9.063997;-121.292;;753.6
967.0;825.5;;;;;;;;;;;;;;0.95742667;-0.24341564;-0.20416883;;;;;753.6
967.0;825.5;;;;;;;;;;;;;;;;;43.11884;-12.29896;-117.244484;;763.3
967.0;825.5;;;;;;;;;;;;;;0.97915584;-0.28614154;-0.2191229;;;;;763.3
967.0;825.5;;;;;;;;;;;;;;;;;37.49199;-12.768181;-112.54845;;763.3
967.0;825.5;;;;;;;;;;;;;;1.0148015;-0.34382153;-0.2070986;;;;;763.3
967.0;825.5;;;;;;;;;;;;;;;;;34.199802;-13.790551;-108.825195;;772.9
967.0;825.5;;;;;;;;;;;;;;1.1124607;-0.4013184;-0.18738365;;;;;772.9
967.0;825.5;;;;;;;;;;;;;;;;;36.12247;-15.629292;-105.32319;;772.9
967.0;825.5;;;;;;;;;;;;;;1.1816767;-0.44093144;-0.19306009;;;;;772.9
1024.0;878.2;;;;;;;;;;;;;;;;;40.208134;-15.053254;-102.76345;;782.6
1024.0;878.2;;;;;;;;;;;;;;1.2449721;-0.45808282;-0.20911282;;;;;782.6
1024.0;878.2;;;;;;;;;;;;;;;;;46.349987;-12.321849;-98.08268;;782.6
1024.0;878.2;;;;;;;;;;;;;;1.2403944;-0.4822535;-0.19580676;;;;;782.6
1024.0;878.2;;;;;;;;;;;;;;;;;46.178318;-9.189886;-96.81235;;792.2
1024.0;878.2;;;;;;;;;;;;;;1.1676382;-0.44447157;-0.16351818;;;;;792.2
1024.0;878.2;;;;;;;;;;;;;;;;;41.913357;-7.457961;-94.950714;;792.2
1024.0;878.2;;;;;;;;;;;;;;1.0984222;-0.37281412;-0.13324381;;;;;792.2
1024.0;878.2;;;;;;;;;;;;;;;;;34.669025;-4.71511;-90.76586;;801.9
1024.0;878.2;;;;;;;;;;;;;;1.0528886;-0.36408582;-0.09906308;;;;;801.9
1024.0;878.2;;;;;;;;;;;;;;;;;25.69277;-1.8768883;-86.82135;;801.9
1024.0;878.2;;;;;;;;;;;;;;0.9930723;-0.3136082;-0.054200873;;;;;801.9
1024.0;886.1;;;;;;;;;;;;;;;;;14.118626;-1.4648885;-83.61308;;811.4
1024.0;886.1;;;;;;;;;;;;;;0.9407636;-0.27198097;-0.033753473;;;;;811.4
1024.0;886.1;;;;;;;;;;;;;;;;;2.8000731;-1.7891476;-78.466896;;811.4
1024.0;886.1;;;;;;;;;;;;;;0.8997467;-0.25183874;-0.023621326;;;;;811.4
1024.0;886.1;;;;;;;;;;;;;;;;;-7.9996643;-0.79729605;-74.5262;;821.0
1024.0;886.1;;;;;;;;;;;;;;0.85262614;-0.22070986;-0.0072634052;;;;;821.0
1024.0;886.1;;;;;;;;;;;;;;;;;-17.723623;-0.6866665;-69.948425;;821.0
1024.0;886.1;;;;;;;;;;;;;;0.8440199;-0.20307016;0.0037842952;;;;;821.0
1024.0;886.1;;;;;;;;;;;;;;;;;-26.825771;-0.7667776;-66.026794;;830.7
1024.0;886.1;;;;;;;;;;;;;;0.84163946;-0.19641712;-9.765923E-4;;;;;830.7
1024.0;886.1;;;;;;;;;;;;;;;;;-35.69521;1.7090366;-62.967316;;830.7
1024.0;886.1;;;;;;;;;;;;;;0.8100223;-0.18140203;-0.00347911;;;;;830.7
1084.0;938.3;;;;;;;;;;;;;;;;;-42.462692;2.4033327;-60.1062;;840.3
1084.0;938.3;;;;;;;;;;;;;;0.814478;-0.18683432;-0.009887997;;;;;840.3
1084.0;938.3;;;;;;;;;;;;;;;;;-46.88406;2.2202215;-56.920834;;840.3
1084.0;938.3;;;;;;;;;;;;;;0.7999512;-0.18762779;-0.02887051;;;;;840.3
1084.0;938.3;;;;;;;;;;;;;;;;;-49.737537;2.3880734;-54.46791;;849.9
1084.0;938.3;;;;;;;;;;;;;;0.72835475;-0.17871639;-0.03790399;;;;;849.9
1084.0;938.3;;;;;;;;;;;;;;;;;-52.568134;-0.31662953;-51.87002;;849.9
1084.0;938.3;;;;;;;;;;;;;;0.7154149;-0.15936765;-0.06891079;;;;;849.9
1084.0;938.3;;;;;;;;;;;;;;;;;-54.277172;-2.8954437;-48.36421;;859.6
1084.0;938.3;;;;;;;;;;;;;;0.7134617;-0.20014039;-0.101260416;;;;;859.6
1084.0;938.3;;;;;;;;;;;;;;;;;-53.914764;-3.6355176;-45.003357;;859.6
1084.0;938.3;;;;;;;;;;;;;;0.6753746;-0.23303933;-0.1474044;;;;;859.6
1084.0;939.2;;;;;;;;;;;;;;;;;-52.713097;-2.315592;-41.37547;;869.3
1084.0;939.2;;;;;;;;;;;;;;0.59529406;-0.27161473;-0.16803491;;;;;869.3
1084.0;939.2;;;;;;;;;;;;;;;;;-51.58391;-2.1172216;-37.839138;;869.3
1084.0;939.2;;;;;;;;;;;;;;0.5663625;-0.26685384;-0.16858424;;;;;869.3
1084.0;939.2;;;;;;;;;;;;;;;;;-49.527725;-4.4900355;-33.665733;;879.0
1084.0;939.2;;;;;;;;;;;;;;0.55207986;-0.2548906;-0.17218544;;;;;879.0
1084.0;939.2;;;;;;;;;;;;;;;;;-47.536392;-6.981109;-29.56862;;879.0
1084.0;939.2;;;;;;;;;;;;;;0.5467696;-0.25519577;-0.16876736;;;;;879.0
1084.0;939.2;;;;;;;;;;;;;;;;;-47.242653;-6.660665;-25.269325;;888.6
1084.0;939.2;;;;;;;;;;;;;;0.5494552;-0.24524674;-0.14496292;;;;;888.6
1084.0;939.2;;;;;;;;;;;;;;;;;-47.021393;-5.3636284;-21.217995;;888.6
1084.0;939.2;;;;;;;;;;;;;;0.5363323;-0.25263223;-0.123538926;;;;;888.6
1147.0;998.7;;;;;;;;;;;;;;;;;-45.880764;-4.253517;-17.338327;;898.2
1147.0;998.7;;;;;;;;;;;;;;0.53205967;-0.24634542;-0.1037019;;;;;898.2
1147.0;998.7;;;;;;;;;;;;;;;;;-43.72158;-3.8300729;-12.9703665;;898.2
1147.0;998.7;;;;;;;;;;;;;;0.5373089;-0.23261207;-0.093935974;;;;;898.2
1147.0;998.7;;;;;;;;;;;;;;;;;-41.959137;-2.4033327;-8.236183;;907.8
1147.0;998.7;;;;;;;;;;;;;;0.54091007;-0.23139134;-0.074892424;;;;;907.8
1147.0;998.7;;;;;;;;;;;;;;;;;-40.53621;-1.6022217;-3.4981842;;907.8
1147.0;998.7;;;;;;;;;;;;;;0.53694266;-0.24390393;-0.070314646;;;;;907.8
1147.0;998.7;;;;;;;;;;;;;;;;;-39.605392;-0.35096285;0.6866665;;917.5
1147.0;998.7;;;;;;;;;;;;;;0.53944516;-0.26575518;-0.049684133;;;;;917.5
1147.0;998.7;;;;;;;;;;;;;;;;;-37.60262;1.2207403;3.9407024;;917.5
1147.0;998.7;;;;;;;;;;;;;;0.5481735;-0.2910245;-0.05017243;;;;;917.5
1147.0;999.9;;;;;;;;;;;;;;;;;-33.55129;4.71511;6.389813;;927.2
1147.0;999.9;;;;;;;;;;;;;;0.5383465;-0.30201116;-0.033692434;;;;;927.2
1147.0;999.9;;;;;;;;;;;;;;;;;-28.90103;9.208961;8.251442;;927.2
1147.0;999.9;;;;;;;;;;;;;;0.5467696;-0.2858974;0.013122959;;;;;927.2
1147.0;999.9;;;;;;;;;;;;;;;;;-25.738548;14.248329;9.701072;;936.8
1147.0;999.9;;;;;;;;;;;;;;0.567217;-0.26105532;0.057985168;;;;;936.8
1147.0;999.9;;;;;;;;;;;;;;;;;-24.704735;20.134586;11.444441;;936.8
1147.0;999.9;;;;;;;;;;;;;;0.5814997;-0.23548082;0.096377455;;;;;936.8
1147.0;999.9;;;;;;;;;;;;;;;;;-25.322733;24.97177;13.348033;;946.5
1147.0;999.9;;;;;;;;;;;;;;0.6031068;-0.18793298;0.13757744;;;;;946.5
1147.0;999.9;;;;;;;;;;;;;;;;;-27.619251;28.851437;15.087587;;946.5
1147.0;999.9;;;;;;;;;;;;;;0.6476028;-0.14618365;0.19171728;;;;;946.5
1207.0;1059.1;;;;;;;;;;;;;;;;;-29.580067;33.082066;16.357922;;956.1
1207.0;1059.1;;;;;;;;;;;;;;0.7121189;-0.09253212;0.26508376;;;;;956.1
1207.0;1059.1;;;;;;;;;;;;;;;;;-29.419844;36.393322;17.178104;;956.1
1207.0;1059.1;;;;;;;;;;;;;;0.7691275;-0.04998932;0.2855922;;;;;956.1
1207.0;1059.1;;;;;;;;;;;;;;;;;-24.68566;36.13773;17.746513;;965.7
1207.0;1059.1;;;;;;;;;;;;;;0.8325449;-0.016113773;0.24634542;;;;;965.7
1207.0;1059.1;;;;;;;;;;;;;;;;;-15.591144;32.303844;17.883846;;965.7
1207.0;1059.1;;;;;;;;;;;;;;0.8478652;0.022644734;0.16760765;;;;;965.7
1207.0;1059.1;;;;;;;;;;;;;;;;;-2.8725548;20.523697;18.417921;;975.4
1207.0;1059.1;;;;;;;;;;;;;;0.8409681;0.042542804;-0.011719108;;;;;975.4
1207.0;1059.1;;;;;;;;;;;;;;;;;14.286477;3.4524064;19.15418;;975.4
1207.0;1059.1;;;;;;;;;;;;;;0.8858913;0.077883236;-0.25104526;;;;;975.4
1207.0;1059.9;;;;;;;;;;;;;;;;;30.0531;-8.617663;19.36018;;984.9
1207.0;1059.9;;;;;;;;;;;;;;0.96084476;0.12652974;-0.41749322;;;;;984.9
1207.0;1059.9;;;;;;;;;;;;;;;;;36.328472;-12.6117735;19.066439;;984.9
1207.0;1059.9;;;;;;;;;;;;;;1.0084536;0.1340373;-0.5195471;;;;;984.9
1207.0;1059.9;;;;;;;;;;;;;;;;;38.541065;-17.986847;17.639698;;994.6
1207.0;1059.9;;;;;;;;;;;;;;1.0496536;0.16913357;-0.5895566;;;;;994.6
1207.0;1059.9;;;;;;;;;;;;;;;;;39.38032;-30.156101;16.026033;;994.6
1207.0;1059.9;;;;;;;;;;;;;;1.0826136;0.1947081;-0.71700186;;;;;994.6
1207.0;1059.9;;;;;;;;;;;;;;;;;40.79943;-40.898617;13.958403;;1004.3
1207.0;1059.9;;;;;;;;;;;;;;1.0987273;0.23712882;-0.7878048;;;;;1004.3
1207.0;1059.9;;;;;;;;;;;;;;;;;41.879025;-47.799618;12.958922;;1004.3
1207.0;1059.9;;;;;;;;;;;;;;1.1075778;0.2921842;-0.7278665;;;;;1004.3
1211.0;1119.5;;;;;;;;;;;;;;;;;43.584248;-52.854244;12.390514;;1013.9
1211.0;1119.5;;;;;;;;;;;;;;1.1152685;0.34595782;-0.62202823;;;;;1013.9
1211.0;1119.5;;;;;;;;;;;;;;;;;46.44154;-54.612873;10.601367;;1013.9
1211.0;1119.5;;;;;;;;;;;;;;1.124363;0.38636434;-0.5235145;;;;;1013.9
1211.0;1119.5;;;;;;;;;;;;;;;;;53.26243;-53.193764;8.064516;;1023.5
1211.0;1119.5;;;;;;;;;;;;;;1.122959;0.41676077;-0.4479507;;;;;1023.5
1211.0;1119.5;;;;;;;;;;;;;;;;;64.580986;-47.776726;5.53148;;1023.5
1211.0;1119.5;;;;;;;;;;;;;;1.1086764;0.43812373;-0.40162358;;;;;1023.5
1211.0;1119.5;;;;;;;;;;;;;;;;;79.84023;-41.116062;3.482925;;1033.0
1211.0;1119.5;;;;;;;;;;;;;;1.0560625;0.42585528;-0.35175633;;;;;1033.0
1211.0;1119.5;;;;;;;;;;;;;;;;;92.88308;-37.450027;1.411481;;1033.0
1211.0;1119.5;;;;;;;;;;;;;;0.97683644;0.394055;-0.31153294;;;;;1033.0
1212.0;1120.3;;;;;;;;;;;;;;;;;98.22001;-35.378582;0.064851835;;1042.6
1212.0;1120.3;;;;;;;;;;;;;;0.939787;0.36500138;-0.27924436;;;;;1042.6
1212.0;1120.3;;;;;;;;;;;;;;;;;94.47768;-30.022583;-0.32807398;;1042.6
1212.0;1120.3;;;;;;;;;;;;;;0.8789331;0.3338725;-0.1975158;;;;;1042.6
1212.0;1120.3;;;;;;;;;;;;;;;;;83.76186;-26.23066;-1.3580737;;1052.2
1212.0;1120.3;;;;;;;;;;;;;;0.8092898;0.2900479;-0.115970336;;;;;1052.2
1212.0;1120.3;;;;;;;;;;;;;;;;;69.56694;-26.41377;-1.3161107;;1052.2
1212.0;1120.3;;;;;;;;;;;;;;0.7719962;0.22699668;-0.104068115;;;;;1052.2
1212.0;1120.3;;;;;;;;;;;;;;;;;54.250465;-25.730919;-0.3318888;;1061.9
1212.0;1120.3;;;;;;;;;;;;;;0.7295145;0.13953063;-0.12262337;;;;;1061.9
1212.0;1120.3;;;;;;;;;;;;;;;;;38.357952;-25.894955;0.7515183;;1061.9
1212.0;1120.3;;;;;;;;;;;;;;0.7242653;0.05597095;-0.1445967;;;;;1061.9
1212.0;1127.8;;;;0.0;0.0;0.0;;;;;;;;;;;;;;;
1212.0;1127.8;;;;-0.04188538;0.16733934;0.05974961;;;;;;;;;;;;;;;
1212.0;1127.8;;;;-0.20912173;0.72377783;0.18969348;;;;;;;;;;;;;;;
1212.0;1127.8;;;;-0.22542194;0.81860363;0.19573978;;;;;;;;;;;;;;;
1212.0;1127.8;;;;-0.22583011;0.8391725;0.19002917;;;;;;;;;;;;;;;
1212.0;1137.8;;;;-0.22679904;0.86252224;0.18350221;;;;;;;;;;;;;;;
1212.0;1137.8;;;;-0.22901538;0.88876736;0.17808534;;;;;;;;;;;;;;;
1212.0;1137.8;;;;-0.23228458;0.91738904;0.17285539;;;;;;;;;;;;;;;
1212.0;1137.8;;;;-0.23664859;0.94716656;0.16786195;;;;;;;;;;;;;;;
1212.0;1137.8;;;;-0.24137118;0.9777795;0.16443254;;;;;;;;;;;;;;;
1262.0;1138.8;57400;57492;12778;;;;;;;;;;;;;;;;;;
1262.0;1147.9;;;;-0.24591067;1.0087396;0.16284944;;;;;;;;;;;;;;;
1262.0;1147.9;;;;-0.24994662;1.0385171;0.16287614;;;;;;;;;;;;;;;
1262.0;1147.9;;;;-0.25260165;1.0657235;0.16273119;;;;;;;;;;;;;;;
1262.0;1147.9;;;;-0.25454715;1.0903474;0.16324617;;;;;;;;;;;;;;;
1262.0;1147.9;;;;-0.25385287;1.1115495;0.1632004;;;;;;;;;;;;;;;
1262.0;1157.9;;;;-0.25236896;1.1291085;0.16263582;;;;;;;;;;;;;;;
1262.0;1157.9;;;;-0.249527;1.1423723;0.16236879;;;;;;;;;;;;;;;
1262.0;1157.9;;;;-0.24558261;1.1521913;0.16306688;;;;;;;;;;;;;;;
1262.0;1157.9;;;;-0.24142078;1.1584474;0.16392519;;;;;;;;;;;;;;;
1262.0;1157.9;;;;-0.23738101;1.1612626;0.16505052;;;;;;;;;;;;;;;
1262.0;1158.9;73831;73826;12762;;;;;;;;;;;;;;;;;;
1262.0;1165.1;;;;;;;;;;;;;0;;;;;;;;
1262.0;1165.1;;;;;;;;;;;;;0;;;;;;;;
1262.0;1165.1;;;;;;;;;;;;;-1;;;;;;;;
1262.0;1165.1;;;;;;;;;;;;;-2;;;;;;;;
1262.0;1165.1;;;;;;;;;;;;;-4;;;;;;;;
1262.0;1168.0;;;;-0.23347095;1.1614877;0.16724779;;;;;;;;;;;;;;;
1262.0;1168.0;;;;-0.22980121;1.1598932;0.16975404;;;;;;;;;;;;;;;
1262.0;1168.0;;;;-0.22668841;1.1566888;0.1718712;;;;;;;;;;;;;;;
1262.0;1168.0;;;;-0.22427753;1.1529161;0.17451479;;;;;;;;;;;;;;;
1262.0;1168.0;;;;-0.22135928;1.1484376;0.17551042;;;;;;;;;;;;;;;
1264.0;1178.1;;;;-0.21920398;1.1453134;0.17635347;;;;;;;;;;;;;;;
1264.0;1178.1;;;;-0.21797183;1.1436158;0.17834856;;;;;;;;;;;;;;;
1264.0;1178.1;;;;-0.21710971;1.1440088;0.1814995;;;;;;;;;;;;;;;
1264.0;1178.1;;;;-0.21736911;1.1469804;0.18381502;;;;;;;;;;;;;;;
1264.0;1178.1;;;;-0.21850589;1.1519471;0.1860428;;;;;;;;;;;;;;;
1264.0;1179.2;90340;90223;12750;;;;;;;;;;;;;;;;;;
1264.0;1180.1;;;;;;;;;;;;;;;;;22.297585;-24.327068;1.4381847;;1071.6
1264.0;1180.1;;;;;;;;;;;;;;0.7079073;-0.03540147;-0.17828913;;;;;1071.6
1264.0;1180.1;;;;;;;;;;;;;;;;;9.117405;-22.270882;3.5592213;;1071.6
1264.0;1180.1;;;;;;;;;;;;;;0.69252604;-0.12805566;-0.17902158;;;;;1071.6
1264.0;1180.1;;;;;;;;;;;;;;;;;-1.2207403;-20.706808;7.1298866;;1081.1
1264.0;1180.1;;;;;;;;;;;;;;0.6882534;-0.20410779;-0.1439253;;;;;1081.1
1264.0;1180.1;;;;;;;;;;;;;;;;;-11.46733;-16.773737;10.517442;;1081.1
1264.0;1180.1;;;;;;;;;;;;;;0.75441754;-0.27747428;0.01495407;;;;;1081.1
1264.0;1180.1;;;;;;;;;;;;;;;;;-27.180548;-8.632923;15.335551;;1090.9
1264.0;1180.1;;;;;;;;;;;;;;0.98965424;-0.3884396;0.2816248;;;;;1090.9
1264.0;1180.1;;;;;;;;;;;;;;;;;-42.16895;3.8262582;21.21418;;1090.9
1264.0;1180.1;;;;;;;;;;;;;;1.3862728;-0.5863826;0.57747126;;;;;1090.9
1265.0;1181.0;;;;;;;;;;;;;;;;;-43.01584;13.412886;27.226326;;1100.5
1265.0;1181.0;;;;;;;;;;;;;;1.8461257;-0.8784448;0.7169408;;;;;1100.5
1265.0;1181.0;;;;;;;;;;;;;;;;;-17.326883;11.543626;22.572252;;1100.5
1265.0;1181.0;;;;;;;;;;;;;;1.9972533;-0.85152745;0.43140966;;;;;1100.5
1265.0;1181.0;;;;;;;;;;;;;;;;;41.3831;6.9277015;12.787255;;1110.0
1265.0;1181.0;;;;;;;;;;;;;;1.9682608;-0.4845729;-0.13129063;;;;;1110.0
1265.0;1181.0;;;;;;;;;;;;;;;;;106.33412;1.9722588;4.333628;;1110.0
1265.0;1181.0;;;;;;;;;;;;;;1.548326;0.032288585;-0.58406323;;;;;1110.0
1265.0;1181.0;;;;;;;;;;;;;;;;;123.91278;-20.817438;1.373333;;1119.6
1265.0;1181.0;;;;;;;;;;;;;;1.3234047;0.4318369;-0.84572893;;;;;1119.6
1265.0;1181.0;;;;;;;;;;;;;;;;;99.95574;-27.058474;3.7232583;;1119.6
1265.0;1181.0;;;;;;;;;;;;;;1.2690207;0.4540544;-0.55885494;;;;;1119.6
1265.0;1187.9;;;;-0.2203789;1.1589853;0.18906406;;;;;;;;;;;;;;;
1265.0;1187.9;;;;-0.22226718;1.1677171;0.1919556;;;;;;;;;;;;;;;
1265.0;1187.9;;;;-0.22428516;1.1784326;0.19483188;;;;;;;;;;;;;;;
1265.0;1187.9;;;;-0.22702792;1.1902848;0.19799045;;;;;;;;;;;;;;;
1265.0;1187.9;;;;-0.230423;1.2034303;0.20152286;;;;;;;;;;;;;;;
1265.0;1197.9;;;;-0.23379901;1.2174493;0.20584872;;;;;;;;;;;;;;;
1265.0;1197.9;;;;-0.23754123;1.2310067;0.20956805;;;;;;;;;;;;;;;
1265.0;1197.9;;;;-0.2411156;1.2433091;0.21409228;;;;;;;;;;;;;;;
1265.0;1197.9;;;;-0.24418262;1.2548715;0.21911624;;;;;;;;;;;;;;;
1265.0;1197.9;;;;-0.24683383;1.2639962;0.22399142;;;;;;;;;;;;;;;
1265.0;1199.0;106701;106577;12744;;;;;;;;;;;;;;;;;;
1325.0;1205.2;;;;;;;;;;;;;-5;;;;;;;;
1325.0;1205.2;;;;;;;;;;;;;-7;;;;;;;;
1325.0;1205.2;;;;;;;;;;;;;-12;;;;;;;;
1325.0;1205.2;;;;;;;;;;;;;-10;;;;;;;;
1325.0;1205.2;;;;;;;;;;;;;-12;;;;;;;;
1325.0;1207.8;;;;-0.24890903;1.2709466;0.2301369;;;;;;;;;;;;;;;
1325.0;1207.8;;;;-0.25114062;1.2761575;0.23556522;;;;;;;;;;;;;;;
1325.0;1207.8;;;;-0.25317386;1.2790185;0.24130252;;;;;;;;;;;;;;;
1325.0;1207.8;;;;-0.25574496;1.2797738;0.24750903;;;;;;;;;;;;;;;
1325.0;1207.8;;;;-0.25856784;1.2789727;0.25234607;;;;;;;;;;;;;;;
1325.0;1217.8;;;;-0.26144412;1.2760621;0.25648502;;;;;;;;;;;;;;;
1325.0;1217.8;;;;-0.26425555;1.2712709;0.26087955;;;;;;;;;;;;;;;
1325.0;1217.8;;;;-0.2670975;1.2649919;0.26424792;;;;;;;;;;;;;;;
1325.0;1217.8;;;;-0.26942065;1.2576715;0.26755527;;;;;;;;;;;;;;;
1325.0;1217.8;;;;-0.2704468;1.2491494;0.27023318;;;;;;;;;;;;;;;
1325.0;1219.0;123084;123006;12757;;;;;;;;;;;;;;;;;;
1325.0;1227.9;;;;-0.27082828;1.2394716;0.27232745;;;;;;;;;;;;;;;
1325.0;1227.9;;;;-0.27141955;1.2283136;0.27248386;;;;;;;;;;;;;;;
1325.0;1227.9;;;;-0.2719536;1.2179872;0.27181628;;;;;;;;;;;;;;;
1325.0;1227.9;;;;-0.2726517;1.207985;0.2692528;;;;;;;;;;;;;;;
1325.0;1227.9;;;;-0.27426913;1.1998521;0.26686862;;;;;;;;;;;;;;;
1330.0;1238.0;;;;-0.27653125;1.193741;0.26613238;;;;;;;;;;;;;;;
1330.0;1238.0;;;;-0.27862552;1.1889383;0.2664452;;;;;;;;;;;;;;;
1330.0;1238.0;;;;-0.2792969;1.1850396;0.26593783;;;;;;;;;;;;;;;
1330.0;1238.0;;;;-0.27860644;1.1816674;0.26474002;;;;;;;;;;;;;;;
1330.0;1238.0;;;;-0.27715304;1.1771051;0.2620125;;;;;;;;;;;;;;;
1330.0;1239.3;139511;139440;12753;;;;;;;;;;;;;;;;;;
1330.0;1240.0;;;;;;;;;;;;;;;;;61.067535;-18.284403;-1.2703329;;1129.3
1330.0;1240.0;;;;;;;;;;;;;;1.2493057;0.4524674;-0.031434067;;;;;1129.3
1330.0;1240.0;;;;;;;;;;;;;;;;;33.276623;-17.46803;-8.339183;;1129.3
1330.0;1240.0;;;;;;;;;;;;;;1.3689382;0.46357617;0.12567522;;;;;1129.3
1330.0;1240.0;;;;;;;;;;;;;;;;;14.324625;-5.9739985;-16.315958;;1139.0
1330.0;1240.0;;;;;;;;;;;;;;1.3954893;0.53712577;0.20862453;;;;;1139.0
1330.0;1240.0;;;;;;;;;;;;;;;;;-7.3816648;6.904813;-20.531326;;1139.0
1330.0;1240.0;;;;;;;;;;;;;;1.3055208;0.5559252;0.16211432;;;;;1139.0
1330.0;1240.0;;;;;;;;;;;;;;;;;-21.30955;9.9642935;-20.741142;;1148.4
1330.0;1240.0;;;;;;;;;;;;;;1.1974853;0.46162298;-0.0999176;;;;;1148.4
1330.0;1240.0;;;;;;;;;;;;;;;;;-16.766108;5.6001463;-16.21296;;1148.4
1330.0;1240.0;;;;;;;;;;;;;;1.1331522;0.23041475;-0.43220314;;;;;1148.4
1331.0;1240.6;;;;;;;;;;;;;;;;;-6.839961;4.1734066;-7.457961;;1158.1
1331.0;1240.6;;;;;;;;;;;;;;1.1119725;-0.052308727;-0.4947661;;;;;1158.1
1331.0;1240.6;;;;;;;;;;;;;;;;;-6.366924;7.1298866;3.3303325;;1158.1
1331.0;1240.6;;;;;;;;;;;;;;1.0918913;-0.37720877;-0.23303933;;;;;1158.1
1331.0;1240.6;;;;;;;;;;;;;;;;;-13.348033;13.157292;16.441847;;1167.8
1331.0;1240.6;;;;;;;;;;;;;;1.1139866;-0.7347026;0.08117924;;;;;1167.8
1331.0;1240.6;;;;;;;;;;;;;;;;;-11.242255;18.864254;28.920103;;1167.8
1331.0;1240.6;;;;;;;;;;;;;;1.1041597;-1.0351268;0.29627368;;;;;1167.8
1331.0;1240.6;;;;;;;;;;;;;;;;;3.6774805;14.370403;38.209175;;1177.4
1331.0;1240.6;;;;;;;;;;;;;;1.0120548;-1.1449934;0.2461623;;;;;1177.4
1331.0;1240.6;;;;;;;;;;;;;;;;;20.249031;2.094333;45.163578;;1177.4
1331.0;1240.6;;;;;;;;;;;;;;0.91109955;-1.0921354;-0.011169774;;;;;1177.4
1331.0;1245.2;;;;;;;;;;;;;-13;;;;;;;;
1331.0;1245.2;;;;;;;;;;;;;-12;;;;;;;;
1331.0;1245.2;;;;;;;;;;;;;-20;;;;;;;;
1331.0;1245.2;;;;;;;;;;;;;-5;;;;;;;;
1331.0;1245.2;;;;;;;;;;;;;-4;;;;;;;;
1331.0;1247.9;;;;-0.27540973;1.1701623;0.26012805;;;;;;;;;;;;;;;
1331.0;1247.9;;;;-0.2731934;1.1625863;0.25766376;;;;;;;;;;;;;;;
1331.0;1247.9;;;;-0.27230838;1.1539918;0.25338748;;;;;;;;;;;;;;;
1331.0;1247.9;;;;-0.27252963;1.1449395;0.24842837;;;;;;;;;;;;;;;
1331.0;1247.9;;;;-0.2736893;1.1359864;0.2442055;;;;;;;;;;;;;;;
1384.0;1257.9;;;;-0.27577975;1.127781;0.24101642;;;;;;;;;;;;;;;
1384.0;1257.9;;;;-0.27827838;1.1201135;0.2383652;;;;;;;;;;;;;;;
1384.0;1257.9;;;;-0.28046802;1.1132737;0.23611835;;;;;;;;;;;;;;;
1384.0;1257.9;;;;-0.28265765;1.107113;0.23292544;;;;;;;;;;;;;;;
1384.0;1257.9;;;;-0.2849274;1.1014787;0.23012164;;;;;;;;;;;;;;;
1384.0;1259.2;155773;155776;12749;;;;;;;;;;;;;;;;;;
1384.0;1268.0;;;;-0.28660205;1.0969774;0.22787097;;;;;;;;;;;;;;;
1384.0;1268.0;;;;-0.2878075;1.0933534;0.22478488;;;;;;;;;;;;;;;
1384.0;1268.0;;;;-0.28898242;1.0904237;0.22179034;;;;;;;;;;;;;;;
1384.0;1268.0;;;;-0.28999332;1.0884591;0.21893695;;;;;;;;;;;;;;;
1384.0;1268.0;;;;-0.2907181;1.0877572;0.21556476;;;;;;;;;;;;;;;
1384.0;1278.0;;;;-0.2916222;1.0881234;0.21247104;;;;;;;;;;;;;;;
1384.0;1278.0;;;;-0.2917786;1.0890161;0.20962527;;;;;;;;;;;;;;;
1384.0;1278.0;;;;-0.2913628;1.0906678;0.20618442;;;;;;;;;;;;;;;
1384.0;1278.0;;;;-0.2908478;1.0929605;0.20365909;;;;;;;;;;;;;;;
1384.0;1278.0;;;;-0.29018024;1.0956575;0.20167926;;;;;;;;;;;;;;;
1384.0;1279.3;172159;172169;12757;;;;;;;;;;;;;;;;;;
1384.0;1285.4;;;;;;;;;;;;;-102;;;;;;;;
1384.0;1285.4;;;;;;;;;;;;;-94;;;;;;;;
1384.0;1285.4;;;;;;;;;;;;;192;;;;;;;;
1384.0;1285.4;;;;;;;;;;;;;125;;;;;;;;
1384.0;1285.4;;;;;;;;;;;;;-942;;;;;;;;
1386.0;1288.1;;;;-0.28862002;1.0985299;0.19988635;;;;;;;;;;;;;;;
1386.0;1288.1;;;;-0.2866135;1.1008111;0.19781497;;;;;;;;;;;;;;;
1386.0;1288.1;;;;-0.28491977;1.1037027;0.19570163;;;;;;;;;;;;;;;
1386.0;1288.1;;;;-0.28320697;1.105877;0.19380191;;;;;;;;;;;;;;;
1386.0;1288.1;;;;-0.2812653;1.1077958;0.19032672;;;;;;;;;;;;;;;
1386.0;1298.2;;;;-0.27949527;1.1097795;0.18672182;;;;;;;;;;;;;;;
1386.0;1298.2;;;;-0.27785495;1.1106797;0.18319704;;;;;;;;;;;;;;;
1386.0;1298.2;;;;-0.27658847;1.1109277;0.17928316;;;;;;;;;;;;;;;
1386.0;1298.2;;;;-0.2750397;1.1107637;0.17510606;;;;;;;;;;;;;;;
1386.0;1298.2;;;;-0.2732239;1.1099511;0.17092134;;;;;;;;;;;;;;;
1386.0;1299.5;188612;188518;12757;;;;;;;;;;;;;;;;;;
1386.0;1300.4;;;;;;;;;;;;;;;;;34.600357;-9.23185;50.298317;;1187.0
1386.0;1300.4;;;;;;;;;;;;;;0.83755;-0.9413129;-0.27741325;;;;;1187.0
1386.0;1300.4;;;;;;;;;;;;;;;;;45.770134;-15.537736;52.34306;;1187.0
1386.0;1300.4;;;;;;;;;;;;;;0.7658315;-0.76339;-0.41431928;;;;;1187.0
1386.0;1300.4;;;;;;;;;;;;;;;;;52.06076;-17.788475;52.095097;;1196.7
1386.0;1300.4;;;;;;;;;;;;;;0.73696095;-0.5747856;-0.39466536;;;;;1196.7
1386.0;1300.4;;;;;;;;;;;;;;;;;53.876614;-16.247292;51.45039;;1196.7
1386.0;1300.4;;;;;;;;;;;;;;0.7685782;-0.41560107;-0.27295756;;;;;1196.7
1386.0;1300.4;;;;;;;;;;;;;;;;;54.151283;-12.7719965;49.821465;;1206.3
1386.0;1300.4;;;;;;;;;;;;;;0.82198554;-0.3091525;-0.1445967;;;;;1206.3
1386.0;1300.4;;;;;;;;;;;;;;;;;56.066315;-11.688589;48.06284;;1206.3
1386.0;1300.4;;;;;;;;;;;;;;0.8766747;-0.25989562;-0.12152471;;;;;1206.3
1388.0;1301.3;;;;;;;;;;;;;;;;;59.488205;-9.178442;45.564133;;1216.0
1388.0;1301.3;;;;;;;;;;;;;;0.9129917;-0.19525743;-0.09765923;;;;;1216.0
1388.0;1301.3;;;;;;;;;;;;;;;;;59.92309;-8.758812;44.03821;;1216.0
1388.0;1301.3;;;;;;;;;;;;;;0.9913633;-0.1276284;-0.08459731;;;;;1216.0
1388.0;1301.3;;;;;;;;;;;;;;;;;55.7268;-8.178961;43.496506;;1225.7
1388.0;1301.3;;;;;;;;;;;;;;1.0603961;-0.07092502;-0.086123236;;;;;1225.7
1388.0;1301.3;;;;;;;;;;;;;;;;;48.337505;-7.2405167;43.191322;;1225.7
1388.0;1301.3;;;;;;;;;;;;;;1.1176488;-0.0020752586;-0.117313154;;;;;1225.7
1388.0;1301.3;;;;;;;;;;;;;;;;;39.57869;-5.123295;43.06925;;1235.3
1388.0;1301.3;;;;;;;;;;;;;;1.1620837;0.07959227;-0.18335521;;;;;1235.3
1388.0;1301.3;;;;;;;;;;;;;;;;;31.491287;0.7095553;42.851803;;1235.3
1388.0;1301.3;;;;;;;;;;;;;;1.1398053;0.12970367;-0.20764793;;;;;1235.3
1388.0;1307.9;;;;-0.27178958;1.1090127;0.16748048;;;;;;;;;;;;;;;
1388.0;1307.9;;;;-0.2697716;1.1079255;0.16404344;;;;;;;;;;;;;;;
1388.0;1307.9;;;;-0.26754382;1.1060334;0.16054155;;;;;;;;;;;;;;;
1388.0;1307.9;;;;-0.26474383;1.1039582;0.15742113;;;;;;;;;;;;;;;
1388.0;1307.9;;;;-0.26213458;1.1018602;0.15381242;;;;;;;;;;;;;;;
1389.0;1314.9;;;;;;;;;;;;;;;;;25.204473;3.9254432;43.294323;;1244.8
1389.0;1314.9;;;;;;;;;;;;;;1.1330302;0.13238929;-0.25385296;;;;;1244.8
1389.0;1314.9;;;;;;;;;;;;;;;;;20.0354;7.7249975;43.191322;;1244.8
1389.0;1314.9;;;;;;;;;;;;;;1.0917081;0.12060915;-0.28412732;;;;;1244.8
1389.0;1314.9;;;;;;;;;;;;;;;;;14.275033;10.696738;43.29051;;1254.3
1389.0;1314.9;;;;;;;;;;;;;;1.0608845;0.08545183;-0.29419842;;;;;1254.3
1389.0;1314.9;;;;;;;;;;;;;;;;;7.717368;13.901181;43.477432;;1254.3
1389.0;1314.9;;;;;;;;;;;;;;1.0459304;0.036805324;-0.27332377;;;;;1254.3
1389.0;1314.9;;;;;;;;;;;;;;;;;0.6828517;17.551958;43.919952;;1264.0
1389.0;1314.9;;;;;;;;;;;;;;1.0340892;-0.018127995;-0.24243905;;;;;1264.0
1389.0;1314.9;;;;;;;;;;;;;;;;;-4.856258;22.087772;43.954285;;1264.0
1389.0;1314.9;;;;;;;;;;;;;;0.95223856;-0.048829615;-0.23963134;;;;;1264.0
1389.0;1317.8;;;;-0.25918964;1.0997277;0.15043642;;;;;;;;;;;;;;;
1389.0;1317.8;;;;-0.2553368;1.0974542;0.14671709;;;;;;;;;;;;;;;
1389.0;1317.8;;;;-0.25197223;1.0948831;0.14224626;;;;;;;;;;;;;;;
1389.0;1317.8;;;;-0.24808124;1.0921937;0.13845064;;;;;;;;;;;;;;;
1389.0;1317.8;;;;-0.24497989;1.0896837;0.13420488;;;;;;;;;;;;;;;
1389.0;1319.2;204907;204940;12765;;;;;;;;;;;;;;;;;;
1389.0;1325.4;;;;;;;;;;;;;-2434;;;;;;;;
1389.0;1325.4;;;;;;;;;;;;;-3111;;;;;;;;
1389.0;1325.4;;;;;;;;;;;;;-2682;;;;;;;;
1389.0;1325.4;;;;;;;;;;;;;-2273;;;;;;;;
1389.0;1325.4;;;;;;;;;;;;;-2708;;;;;;;;
1445.0;1327.7;;;;-0.24239352;1.0874864;0.1310425;;;;;;;;;;;;;;;
1445.0;1327.7;;;;-0.2400513;1.0855447;0.12746812;;;;;;;;;;;;;;;
1445.0;1327.7;;;;-0.23783496;1.083748;0.123733535;;;;;;;;;;;;;;;
1445.0;1327.7;;;;-0.23663333;1.081482;0.11956026;;;;;;;;;;;;;;;
1445.0;1327.7;;;;-0.23567966;1.0795289;0.11620714;;;;;;;;;;;;;;;
1445.0;1337.6;;;;-0.23440173;1.0777932;0.11236574;;;;;;;;;;;;;;;
1445.0;1337.6;;;;-0.23367694;1.0763208;0.10910036;;;;;;;;;;;;;;;
1445.0;1337.6;;;;-0.23254016;1.0752717;0.106418625;;;;;;;;;;;;;;;
1445.0;1337.6;;;;-0.23136905;1.0740663;0.10363008;;;;;;;;;;;;;;;
1445.0;1337.6;;;;-0.23025516;1.0735513;0.101757064;;;;;;;;;;;;;;;
1445.0;1339.1;221360;221325;12751;;;;;;;;;;;;;;;;;;
1445.0;1347.8;;;;-0.22869113;1.0736238;0.10019685;;;;;;;;;;;;;;;
1445.0;1347.8;;;;-0.22706226;1.0740587;0.09934999;;;;;;;;;;;;;;;
1445.0;1347.8;;;;-0.2248154;1.0743333;0.099117294;;;;;;;;;;;;;;;
1445.0;1347.8;;;;-0.22292331;1.0752755;0.09856416;;;;;;;;;;;;;;;
1445.0;1347.8;;;;-0.22028354;1.0763818;0.09803392;;;;;;;;;;;;;;;
1445.0;1357.9;;;;-0.21758273;1.0774308;0.09778215;;;;;;;;;;;;;;;
1445.0;1357.9;;;;-0.2154465;1.0779611;0.0981064;;;;;;;;;;;;;;;
1445.0;1357.9;;;;-0.21312717;1.0786096;0.09827806;;;;;;;;;;;;;;;
1445.0;1357.9;;;;-0.21093753;1.0788766;0.09777452;;;;;;;;;;;;;;;
1445.0;1357.9;;;;-0.20901111;1.0783998;0.09830476;;;;;;;;;;;;;;;
1452.0;1359.4;237660;237684;12762;;;;;;;;;;;;;;;;;;
1452.0;1359.9;;;;;;;;;;;;;;;;;-7.396924;23.922697;43.370617;;1273.7
1452.0;1359.9;;;;;;;;;;;;;;0.90572834;-0.08001953;-0.21594897;;;;;1273.7
1452.0;1359.9;;;;;;;;;;;;;;;;;-7.152776;19.848475;43.351543;;1273.7
1452.0;1359.9;;;;;;;;;;;;;;0.92660296;-0.0999176;-0.2797937;;;;;1273.7
1452.0;1359.9;;;;;;;;;;;;;;;;;-5.203406;21.38966;42.95099;;1283.3
1452.0;1359.9;;;;;;;;;;;;;;0.89638966;-0.10480056;-0.27710807;;;;;1283.3
1452.0;1359.9;;;;;;;;;;;;;;;;;-2.8763695;21.40492;42.584766;;1283.3
1452.0;1359.9;;;;;;;;;;;;;;0.8764306;-0.11749626;-0.28754538;;;;;1283.3
1452.0;1359.9;;;;;;;;;;;;;;;;;0.10681479;20.657215;41.650135;;1293.0
1452.0;1359.9;;;;;;;;;;;;;;0.8654439;-0.12506485;-0.3035371;;;;;1293.0
1452.0;1359.9;;;;;;;;;;;;;;;;;2.1401105;19.833216;41.13895;;1293.0
1452.0;1359.9;;;;;;;;;;;;;;0.8528703;-0.13922544;-0.29145175;;;;;1293.0
1452.0;1365.4;;;;;;;;;;;;;-3523;;;;;;;;
1452.0;1365.4;;;;;;;;;;;;;-4119;;;;;;;;
1452.0;1365.4;;;;;;;;;;;;;-4780;;;;;;;;
1452.0;1365.4;;;;;;;;;;;;;-5657;;;;;;;;
1452.0;1365.4;;;;;;;;;;;;;-6230;;;;;;;;
1452.0;1367.8;;;;-0.20730975;1.0778276;0.09858324;;;;;;;;;;;;;;;
1452.0;1367.8;;;;-0.20515063;1.0770112;0.09923555;;;;;;;;;;;;;;;
1452.0;1367.8;;;;-0.20364383;1.0749589;0.09913637;;;;;;;;;;;;;;;
1452.0;1367.8;;;;-0.20227054;1.0721017;0.09806062;;;;;;;;;;;;;;;
1452.0;1367.8;;;;-0.20121768;1.0686761;0.09767915;;;;;;;;;;;;;;;
1500.0;1375.0;;;;;;;;;;;;;;;;;2.7428513;17.906734;40.849026;;1302.6
1500.0;1375.0;;;;;;;;;;;;;;0.8380993;-0.15295877;-0.293466;;;;;1302.6
1500.0;1375.0;;;;;;;;;;;;;;;;;3.6965547;15.64455;39.983063;;1302.6
1500.0;1375.0;;;;;;;;;;;;;;0.8497574;-0.16577655;-0.29902035;;;;;1302.6
1500.0;1375.0;;;;;;;;;;;;;;;;;5.4818873;14.33607;38.911102;;1312.2
1500.0;1375.0;;;;;;;;;;;;;;0.87051;-0.16370128;-0.2830897;;;;;1312.2
1500.0;1375.0;;;;;;;;;;;;;;;;;7.869961;13.317514;38.132877;;1312.2
1500.0;1375.0;;;;;;;;;;;;;;0.87398905;-0.13971373;-0.28205207;;;;;1312.2
1500.0;1375.0;;;;;;;;;;;;;;;;;10.876034;11.14307;37.224953;;1321.9
1500.0;1375.0;;;;;;;;;;;;;;0.88302255;-0.1060213;-0.3037202;;;;;1321.9
1500.0;1375.0;;;;;;;;;;;;;;;;;13.664663;9.014404;36.301765;;1321.9
1500.0;1375.0;;;;;;;;;;;;;;0.88070315;-0.11572619;-0.31446272;;;;;1321.9
1500.0;1377.7;;;;-0.19894794;1.0647126;0.098281875;;;;;;;;;;;;;;;
1500.0;1377.7;;;;-0.19669726;1.0611917;0.099094406;;;;;;;;;;;;;;;
1500.0;1377.7;;;;-0.19439319;1.0575944;0.10058977;;;;;;;;;;;;;;;
1500.0;1377.7;;;;-0.19189456;1.053238;0.10224916;;;;;;;;;;;;;;;
1500.0;1377.7;;;;-0.18976596;1.0496026;0.103893295;;;;;;;;;;;;;;;
1500.0;1379.3;254117;254071;12763;;;;;;;;;;;;;;;;;;
1500.0;1387.8;;;;-0.18778613;1.0464059;0.106410995;;;;;;;;;;;;;;;
1500.0;1387.8;;;;-0.18584444;1.0437547;0.10877229;;;;;;;;;;;;;;;
1500.0;1387.8;;;;-0.18455888;1.0415841;0.11104204;;;;;;;;;;;;;;;
1500.0;1387.8;;;;-0.18364717;1.0391351;0.11150743;;;;;;;;;;;;;;;
1500.0;1387.8;;;;-0.18312456;1.0365258;0.11190416;;;;;;;;;;;;;;;
1504.0;1397.8;;;;-0.18255617;1.033291;0.112278;;;;;;;;;;;;;;;
1504.0;1397.8;;;;-0.18190767;1.0306436;0.112697616;;;;;;;;;;;;;;;
1504.0;1397.8;;;;-0.18222047;1.0282556;0.11199571;;;;;;;;;;;;;;;
1504.0;1397.8;;;;-0.18242265;1.0250627;0.11061098;;;;;;;;;;;;;;;
1504.0;1397.8;;;;-0.18272783;1.0215379;0.10871889;;;;;;;;;;;;;;;
1504.0;1399.4;262143;262143;12756;;;;;;;;;;;;;;;;;;
1504.0;1405.5;;;;;;;;;;;;;-6638;;;;;;;;
1504.0;1405.5;;;;;;;;;;;;;-7235;;;;;;;;
1504.0;1405.5;;;;;;;;;;;;;-7548;;;;;;;;
1504.0;1405.5;;;;;;;;;;;;;-7092;;;;;;;;
1504.0;1405.5;;;;;;;;;;;;;-6077;;;;;;;;
1504.0;1407.9;;;;-0.18324663;1.0178758;0.10729982;;;;;;;;;;;;;;;
1504.0;1407.9;;;;-0.18406297;1.0144578;0.10665132;;;;;;;;;;;;;;;
1504.0;1407.9;;;;-0.18446733;1.0109559;0.10618974;;;;;;;;;;;;;;;
1504.0;1407.9;;;;-0.18495561;1.0070268;0.106094375;;;;;;;;;;;;;;;
1504.0;1407.9;;;;-0.18580247;1.0034677;0.10568239;;;;;;;;;;;;;;;
1504.0;1418.0;;;;-0.18650056;0.99998105;0.10498048;;;;;;;;;;;;;;;
1504.0;1418.0;;;;-0.18735506;0.9970819;0.10510637;;;;;;;;;;;;;;;
1504.0;1418.0;;;;-0.18844607;0.99437726;0.1052437;;;;;;;;;;;;;;;
1504.0;1418.0;;;;-0.18913653;0.9921113;0.10444261;;;;;;;;;;;;;;;
1504.0;1418.0;;;;-0.18948749;0.9902345;0.10360338;;;;;;;;;;;;;;;
1504.0;1419.6;262143;262143;12757;;;;;;;;;;;;;;;;;;
1508.0;1427.8;;;;;;;;;;;;;;;;;13.924069;7.7326274;34.749138;;1331.4
1508.0;1427.8;;;;;;;;;;;;;;0.86770225;-0.09149449;-0.29621264;;;;;1331.4
1508.0;1427.8;;;;;;;;;;;;;;;;;9.876553;6.2944427;33.8641;;1331.4
1508.0;1427.8;;;;;;;;;;;;;;0.8534196;-0.08661153;-0.27863398;;;;;1331.4
1508.0;1427.8;;;;;;;;;;;;;;;;;4.5739617;4.6578875;33.391068;;1341.0
1508.0;1427.8;;;;;;;;;;;;;;0.8545793;-0.10065004;-0.28180793;;;;;1341.0
1508.0;1427.8;;;;;;;;;;;;;;;;;2.2392957;3.810999;32.99814;;1341.0
1508.0;1427.8;;;;;;;;;;;;;;0.8615375;-0.113956116;-0.28156376;;;;;1341.0
1508.0;1427.8;;;;;;;;;;;;;;;;;4.039888;3.0289621;32.456436;;1350.6
1508.0;1427.8;;;;;;;;;;;;;;0.86587113;-0.12134159;-0.280282;;;;;1350.6
1508.0;1427.8;;;;;;;;;;;;;;;;;7.148961;1.9417402;31.727806;;1350.6
1508.0;1427.8;;;;;;;;;;;;;;0.8728904;-0.12152471;-0.28168583;;;;;1350.6
1508.0;1428.0;;;;-0.19027713;0.98889935;0.10260393;;;;;;;;;;;;;;;
1508.0;1428.0;;;;-0.19034961;0.9881898;0.10239412;;;;;;;;;;;;;;;
1508.0;1428.0;;;;-0.19000247;0.9872285;0.102626815;;;;;;;;;;;;;;;
1508.0;1428.0;;;;-0.18882373;0.98612607;0.10218431;;;;;;;;;;;;;;;
1508.0;1428.0;;;;-0.18757251;0.9850503;0.101699844;;;;;;;;;;;;;;;
1509.0;1435.2;;;;;;;;;;;;;;;;;9.254738;1.0605181;30.842768;;1360.3
1509.0;1435.2;;;;;;;;;;;;;;0.8832667;-0.11993774;-0.28150272;;;;;1360.3
1509.0;1435.2;;;;;;;;;;;;;;;;;9.979552;0.4768517;30.07599;;1360.3
1509.0;1435.2;;;;;;;;;;;;;;0.882107;-0.15027314;-0.27411726;;;;;1360.3
1509.0;1435.2;;;;;;;;;;;;;;;;;10.784478;-0.98803675;29.313028;;1370.0
1509.0;1435.2;;;;;;;;;;;;;;0.88790554;-0.15930662;-0.27143162;;;;;1370.0
1509.0;1435.2;;;;;;;;;;;;;;;;;11.642812;-2.0523698;28.86288;;1370.0
1509.0;1435.2;;;;;;;;;;;;;;0.9046907;-0.17206335;-0.25714895;;;;;1370.0
1509.0;1435.2;;;;;;;;;;;;;;;;;13.63033;-1.9760735;28.523361;;1379.7
1509.0;1435.2;;;;;;;;;;;;;;0.91958374;-0.18359935;-0.24048586;;;;;1379.7
1509.0;1435.2;;;;;;;;;;;;;;;;;16.72033;-1.5335552;28.344065;;1379.7
1509.0;1435.2;;;;;;;;;;;;;;0.92178106;-0.17944884;-0.23334453;;;;;1379.7
1509.0;1437.9;;;;-0.18561555;0.983719;0.10089113;;;;;;;;;;;;;;;
1509.0;1437.9;;;;-0.18372346;0.98186886;0.1004944;;;;;;;;;;;;;;;
1509.0;1437.9;;;;-0.18271638;0.97976315;0.09973146;;;;;;;;;;;;;;;
1509.0;1437.9;;;;-0.18199159;0.97797024;0.09870531;;;;;;;;;;;;;;;
1509.0;1437.9;;;;-0.18191911;0.97535336;0.0986519;;;;;;;;;;;;;;;
1509.0;1439.6;262143;262143;12753;;;;;;;;;;;;;;;;;;
1509.0;1445.7;;;;;;;;;;;;;-5155;;;;;;;;
1509.0;1445.7;;;;;;;;;;;;;-4562;;;;;;;;
1509.0;1445.7;;;;;;;;;;;;;-3886;;;;;;;;
1509.0;1445.7;;;;;;;;;;;;;-3028;;;;;;;;
1509.0;1445.7;;;;;;;;;;;;;-2316;;;;;;;;
1561.0;1447.9;;;;-0.18230821;0.97348034;0.09761812;;;;;;;;;;;;;;;
1561.0;1447.9;;;;-0.18303682;0.97197354;0.09716417;;;;;;;;;;;;;;;
1561.0;1447.9;;;;-0.18425371;0.97034085;0.09620668;;;;;;;;;;;;;;;
1561.0;1447.9;;;;-0.18545915;0.96852887;0.09505464;;;;;;;;;;;;;;;
1561.0;1447.9;;;;-0.18742754;0.9667779;0.09470369;;;;;;;;;;;;;;;
1561.0;1457.8;;;;-0.19021228;0.9653703;0.0946808;;;;;;;;;;;;;;;
1561.0;1457.8;;;;-0.19275668;0.96354306;0.09484102;;;;;;;;;;;;;;;
1561.0;1457.8;;;;-0.1958504;0.9617692;0.09580614;;;;;;;;;;;;;;;
1561.0;1457.8;;;;-0.19890216;0.96010983;0.09679033;;;;;;;;;;;;;;;
1561.0;1457.8;;;;-0.20160297;0.95887387;0.09798814;;;;;;;;;;;;;;;
1561.0;1459.6;262143;262143;12756;;;;;;;;;;;;;;;;;;
1561.0;1467.9;;;;-0.20409396;0.9573785;0.09957887;;;;;;;;;;;;;;;
1561.0;1467.9;;;;-0.20579913;0.95588696;0.101188675;;;;;;;;;;;;;;;
1561.0;1467.9;;;;-0.20727542;0.9539796;0.10293962;;;;;;;;;;;;;;;
1561.0;1467.9;;;;-0.20821765;0.9523736;0.10398485;;;;;;;;;;;;;;;
1561.0;1467.9;;;;-0.2088547;0.95038235;0.105403915;;;;;;;;;;;;;;;
1561.0;1478.0;;;;-0.20864871;0.9483186;0.106468216;;;;;;;;;;;;;;;
1561.0;1478.0;;;;-0.20855334;0.94620526;0.107166305;;;;;;;;;;;;;;;
1561.0;1478.0;;;;-0.20769885;0.9437448;0.10690309;;;;;;;;;;;;;;;
1561.0;1478.0;;;;-0.20626834;0.94100964;0.10612108;;;;;;;;;;;;;;;
1561.0;1478.0;;;;-0.20478442;0.9380075;0.10580064;;;;;;;;;;;;;;;
1564.0;1480.4;;;;;;;;;;;;;;;;;19.436476;-1.865444;28.13425;;1389.3
1564.0;1480.4;;;;;;;;;;;;;;0.9330729;-0.16681418;-0.23584704;;;;;1389.3
1564.0;1480.4;;;;;;;;;;;;;;;;;19.005402;-1.8005921;28.06177;;1389.3
1564.0;1480.4;;;;;;;;;;;;;;0.9441816;-0.15204321;-0.2229072;;;;;1389.3
1564.0;1480.4;;;;;;;;;;;;;;;;;15.9878845;-1.6289254;27.665028;;1398.9
1564.0;1480.4;;;;;;;;;;;;;;0.95724356;-0.13361004;-0.20880765;;;;;1398.9
1564.0;1480.4;;;;;;;;;;;;;;;;;12.863552;-1.8845179;27.851954;;1398.9
1564.0;1480.4;;;;;;;;;;;;;;0.98294014;-0.12244026;-0.20838039;;;;;1398.9
1564.0;1480.4;;;;;;;;;;;;;;;;;11.295663;0.46540728;28.22199;;1408.5
1564.0;1480.4;;;;;;;;;;;;;;0.9936827;-0.10937834;-0.20783105;;;;;1408.5
1564.0;1480.4;;;;;;;;;;;;;;;;;11.566515;2.4452956;28.34788;;1408.5
1564.0;1480.4;;;;;;;;;;;;;;0.9947813;-0.08355968;-0.22223578;;;;;1408.5
1564.0;1479.9;262143;262143;12741;;;;;;;;;;;;;;;;;;
1564.0;1485.8;;;;;;;;;;;;;-1505;;;;;;;;
1564.0;1485.8;;;;;;;;;;;;;-371;;;;;;;;
1564.0;1485.8;;;;;;;;;;;;;215;;;;;;;;
1564.0;1485.8;;;;;;;;;;;;;-397;;;;;;;;
1564.0;1485.8;;;;;;;;;;;;;-1198;;;;;;;;
1565.0;1487.8;;;;;;;;;;;;;;;;;11.822107;4.5930357;28.275398;;1418.2
1565.0;1487.8;;;;;;;;;;;;;;0.9899594;-0.056459244;-0.21430098;;;;;1418.2
1565.0;1487.8;;;;;;;;;;;;;;;;;11.051516;5.6230354;28.56151;;1418.2
1565.0;1487.8;;;;;;;;;;;;;;0.9816584;-0.042298656;-0.21790215;;;;;1418.2
1565.0;1487.8;;;;;;;;;;;;;;;;;10.006256;6.778924;28.408916;;1427.8
1565.0;1487.8;;;;;;;;;;;;;;0.9764092;-0.02948088;-0.22235785;;;;;1427.8
1565.0;1487.8;;;;;;;;;;;;;;;;;8.613849;7.9081087;28.187658;;1427.8
1565.0;1487.8;;;;;;;;;;;;;;0.9696951;-0.025940733;-0.22101505;;;;;1427.8
1565.0;1487.8;;;;;;;;;;;;;;;;;6.8628497;8.754997;27.962584;;1437.5
1565.0;1487.8;;;;;;;;;;;;;;0.96047854;-0.014770959;-0.22205268;;;;;1437.5
1565.0;1487.8;;;;;;;;;;;;;;;;;4.71511;9.346293;27.726065;;1437.5
1565.0;1487.8;;;;;;;;;;;;;;0.9515671;-0.0018921476;-0.2283395;;;;;1437.5
1565.0;1487.9;;;;-0.20317844;0.9350053;0.10487749;;;;;;;;;;;;;;;
1565.0;1487.9;;;;-0.20186618;0.9321519;0.10406877;;;;;;;;;;;;;;;
1565.0;1487.9;;;;-0.19990161;0.9283563;0.1030388;;;;;;;;;;;;;;;
1565.0;1487.9;;;;-0.19795612;0.9253427;0.10211183;;;;;;;;;;;;;;;
1565.0;1487.9;;;;-0.19685748;0.9221841;0.10172273;;;;;;;;;;;;;;;
1565.0;1497.9;;;;-0.1958771;0.91910946;0.10128023;;;;;;;;;;;;;;;
1565.0;1497.9;;;;-0.19510654;0.9162103;0.10058977;;;;;;;;;;;;;;;
1565.0;1497.9;;;;-0.19473651;0.9140054;0.099403396;;;;;;;;;;;;;;;
1565.0;1497.9;;;;-0.1944733;0.91196835;0.099346176;;;;;;;;;;;;;;;
1565.0;1497.9;;;;-0.1950188;0.9104272;0.09888078;;;;;;;;;;;;;;;
1565.0;1499.8;262143;262143;12753;;;;;;;;;;;;;;;;;;
1624.0;1508.0;;;;-0.19550708;0.90893567;0.09835054;;;;;;;;;;;;;;;
1624.0;1508.0;;;;-0.19593814;0.90854275;0.0979767;;;;;;;;;;;;;;;
1624.0;1508.0;;;;-0.19717792;0.90817654;0.09795381;;;;;;;;;;;;;;;
1624.0;1508.0;;;;-0.19808963;0.90807354;0.09824754;;;;;;;;;;;;;;;
1624.0;1508.0;;;;-0.19890597;0.9079324;0.09808351;;;;;;;;;;;;;;;
1624.0;1518.0;;;;-0.19961551;0.9077798;0.09854509;;;;;;;;;;;;;;;
1624.0;1518.0;;;;-0.2000046;0.9079629;0.098224655;;;;;;;;;;;;;;;
1624.0;1518.0;;;;-0.20002368;0.90773785;0.09822847;;;;;;;;;;;;;;;
1624.0;1518.0;;;;-0.20015338;0.90760434;0.09764482;;;;;;;;;;;;;;;
1624.0;1518.0;;;;-0.2000275;0.907261;0.09663774;;;;;;;;;;;;;;;
1624.0;1519.9;262143;262143;12753;;;;;;;;;;;;;;;;;;
1624.0;1525.9;;;;;;;;;;;;;-777;;;;;;;;
1624.0;1525.9;;;;;;;;;;;;;633;;;;;;;;
1624.0;1525.9;;;;;;;;;;;;;1473;;;;;;;;
1624.0;1525.9;;;;;;;;;;;;;1012;;;;;;;;
1624.0;1525.9;;;;;;;;;;;;;200;;;;;;;;
1624.0;1528.1;;;;-0.19983676;0.9071008;0.09591295;;;;;;;;;;;;;;;
1624.0;1528.1;;;;-0.19924167;0.9062158;0.09526445;;;;;;;;;;;;;;;
1624.0;1528.1;;;;-0.19917682;0.9057771;0.094238296;;;;;;;;;;;;;;;
1624.0;1528.1;;;;-0.19902804;0.905079;0.09382631;;;;;;;;;;;;;;;
1624.0;1528.1;;;;-0.19865802;0.90402234;0.09329606;;;;;;;;;;;;;;;
1625.0;1538.2;;;;-0.19896701;0.9036027;0.0931511;;;;;;;;;;;;;;;
1625.0;1538.2;;;;-0.1989136;0.9025003;0.09350968;;;;;;;;;;;;;;;
1625.0;1538.2;;;;-0.19836047;0.9016763;0.093730934;;;;;;;;;;;;;;;
1625.0;1538.2;;;;-0.19840625;0.9011804;0.09404375;;;;;;;;;;;;;;;
1625.0;1538.2;;;;-0.19808963;0.9003221;0.09419252;;;;;;;;;;;;;;;
1625.0;1540.1;262143;262143;12749;;;;;;;;;;;;;;;;;;
1625.0;1541.1;;;;;;;;;;;;;;;;;1.9646292;10.025331;27.298807;;1447.2
1625.0;1541.1;;;;;;;;;;;;;;0.95742667;0.013611255;-0.23151341;;;;;1447.2
1625.0;1541.1;;;;;;;;;;;;;;;;;-3.1014435;13.275552;26.84103;;1447.2
1625.0;1541.1;;;;;;;;;;;;;;0.9677419;0.021668142;-0.2268746;;;;;1447.2
1625.0;1541.1;;;;;;;;;;;;;;;;;-11.310923;18.395031;26.333658;;1456.8
1625.0;1541.1;;;;;;;;;;;;;;0.96334726;0.010803552;-0.20734276;;;;;1456.8
1625.0;1541.1;;;;;;;;;;;;;;;;;-21.240883;22.419659;25.58977;;1456.8
1625.0;1541.1;;;;;;;;;;;;;;0.9346599;0.014709922;-0.19226661;;;;;1456.8
1625.0;1541.1;;;;;;;;;;;;;;;;;-29.48851;23.018585;24.525438;;1466.5
1625.0;1541.1;;;;;;;;;;;;;;0.9136021;0.010681478;-0.2042909;;;;;1466.5
1625.0;1541.1;;;;;;;;;;;;;;;;;-32.76925;19.402143;23.766289;;1466.5
1625.0;1541.1;;;;;;;;;;;;;;0.9259316;-0.0075685903;-0.24933623;;;;;1466.5
1628.0;1548.1;;;;;;;;;;;;;;;;;-31.23951;16.51433;23.312326;;1476.0
1628.0;1548.1;;;;;;;;;;;;;;0.9287393;-0.02252266;-0.2717368;;;;;1476.0
1628.0;1548.1;;;;;;;;;;;;;;;;;-29.103214;14.809107;23.201696;;1476.0
1628.0;1548.1;;;;;;;;;;;;;;0.9392987;-0.044679098;-0.2757042;;;;;1476.0
1628.0;1548.1;;;;;;;;;;;;;;;;;-27.848139;14.984588;23.239845;;1485.7
1628.0;1548.1;;;;;;;;;;;;;;0.9469283;-0.06921598;-0.2592242;;;;;1485.7
1628.0;1548.1;;;;;;;;;;;;;;;;;-27.214882;15.343181;23.4344;;1485.7
1628.0;1548.1;;;;;;;;;;;;;;0.9462569;-0.10187078;-0.23944822;;;;;1485.7
1628.0;1548.1;;;;;;;;;;;;;;;;;-26.829586;15.133366;23.97992;;1495.3
1628.0;1548.1;;;;;;;;;;;;;;0.949736;-0.13739432;-0.2200995;;;;;1495.3
1628.0;1548.1;;;;;;;;;;;;;;;;;-25.879696;15.175328;24.460587;;1495.3
1628.0;1548.1;;;;;;;;;;;;;;0.94729453;-0.16864528;-0.20654927;;;;;1495.3
1628.0;1548.0;;;;-0.19729236;0.899582;0.093479164;;;;;;;;;;;;;;;
1628.0;1548.0;;;;-0.19636157;0.89893353;0.09327317;;;;;;;;;;;;;;;
1628.0;1548.0;;;;-0.19549945;0.8978158;0.09256364;;;;;;;;;;;;;;;
1628.0;1548.0;;;;-0.19477466;0.89703;0.09135819;;;;;;;;;;;;;;;
1628.0;1548.0;;;;-0.19411471;0.8957025;0.08979035;;;;;;;;;;;;;;;
1628.0;1558.1;;;;-0.19311526;0.89418423;0.089054115;;;;;;;;;;;;;;;
1628.0;1558.1;;;;-0.19246677;0.89273083;0.087997444;;;;;;;;;;;;;;;
1628.0;1558.1;;;;-0.19141391;0.89117825;0.086463936;;;;;;;;;;;;;;;
1628.0;1558.1;;;;-0.1906052;0.88941586;0.084404;;;;;;;;;;;;;;;
1628.0;1558.1;;;;-0.19002536;0.8872491;0.082435615;;;;;;;;;;;;;;;
1628.0;1560.2;262143;262143;12748;;;;;;;;;;;;;;;;;;
1682.0;1566.2;;;;;;;;;;;;;15;;;;;;;;
1682.0;1566.2;;;;;;;;;;;;;252;;;;;;;;
1682.0;1566.2;;;;;;;;;;;;;610;;;;;;;;
1682.0;1566.2;;;;;;;;;;;;;933;;;;;;;;
1682.0;1566.2;;;;;;;;;;;;;1061;;;;;;;;
1682.0;1568.2;;;;-0.1892319;0.88504803;0.08097077;;;;;;;;;;;;;;;
1682.0;1568.2;;;;-0.18836978;0.8827592;0.078910835;;;;;;;;;;;;;;;
1682.0;1568.2;;;;-0.18752673;0.8802606;0.07711793;;;;;;;;;;;;;;;
1682.0;1568.2;;;;-0.18672945;0.8781129;0.07535554;;;;;;;;;;;;;;;
1682.0;1568.2;;;;-0.18625642;0.8759233;0.0733986;;;;;;;;;;;;;;;
1682.0;1578.1;;;;-0.1855736;0.87332547;0.071990974;;;;;;;;;;;;;;;
1682.0;1578.1;;;;-0.18474199;0.871338;0.07082749;;;;;;;;;;;;;;;
1682.0;1578.1;;;;-0.18397905;0.8691369;0.06949235;;;;;;;;;;;;;;;
1682.0;1578.1;;;;-0.18301775;0.8672639;0.06795884;;;;;;;;;;;;;;;
1682.0;1578.1;;;;-0.18226625;0.8653337;0.0666504;;;;;;;;;;;;;;;
1682.0;1580.2;262143;262143;12732;;;;;;;;;;;;;;;;;;
1682.0;1588.2;;;;-0.18179323;0.86366665;0.065860756;;;;;;;;;;;;;;;
1682.0;1588.2;;;;-0.18164064;0.8620492;0.06517411;;;;;;;;;;;;;;;
1682.0;1588.2;;;;-0.18172838;0.8605691;0.06417466;;;;;;;;;;;;;;;
1682.0;1588.2;;;;-0.18239595;0.85964596;0.06306458;;;;;;;;;;;;;;;
1682.0;1588.2;;;;-0.18283083;0.85800946;0.06261445;;;;;;;;;;;;;;;
1686.0;1598.3;;;;-0.18387987;0.8563119;0.06147767;;;;;;;;;;;;;;;
1686.0;1598.3;;;;-0.18437578;0.85497296;0.06134797;;;;;;;;;;;;;;;
1686.0;1598.3;;;;-0.1844864;0.8535348;0.06179429;;;;;;;;;;;;;;;
1686.0;1598.3;;;;-0.18499757;0.8518754;0.062213905;;;;;;;;;;;;;;;
1686.0;1598.3;;;;-0.18480684;0.85006726;0.06342698;;;;;;;;;;;;;;;
1686.0;1600.9;;;;;;;;;;;;;;;;;-23.724327;14.305552;24.849695;;1505.0
1686.0;1600.9;;;;;;;;;;;;;;0.9445479;-0.19879757;-0.17975402;;;;;1505.0
1686.0;1600.9;;;;;;;;;;;;;;;;;-21.980957;13.290812;24.906918;;1505.0
1686.0;1600.9;;;;;;;;;;;;;;0.95290995;-0.21283609;-0.15881832;;;;;1505.0
1686.0;1600.9;;;;;;;;;;;;;;;;;-20.149845;12.9703665;24.69329;;1514.7
1686.0;1600.9;;;;;;;;;;;;;;0.9519333;-0.22528763;-0.16016114;;;;;1514.7
1686.0;1600.9;;;;;;;;;;;;;;;;;-16.51433;11.635181;24.357586;;1514.7
1686.0;1600.9;;;;;;;;;;;;;;0.9532151;-0.21723075;-0.1784112;;;;;1514.7
1686.0;1600.9;;;;;;;;;;;;;;;;;-11.654256;9.73922;24.098179;;1524.1
1686.0;1600.9;;;;;;;;;;;;;;0.94875944;-0.19843134;-0.18781091;;;;;1524.1
1686.0;1600.9;;;;;;;;;;;;;;;;;-10.296182;7.6105533;23.911253;;1524.1
1686.0;1600.9;;;;;;;;;;;;;;0.9556566;-0.1857967;-0.16260262;;;;;1524.1
1686.0;1600.4;262143;262143;12741;;;;;;;;;;;;;;;;;;
1686.0;1606.4;;;;;;;;;;;;;1217;;;;;;;;
1686.0;1606.4;;;;;;;;;;;;;1629;;;;;;;;
1686.0;1606.4;;;;;;;;;;;;;2117;;;;;;;;
1686.0;1606.4;;;;;;;;;;;;;2245;;;;;;;;
1686.0;1606.4;;;;;;;;;;;;;1952;;;;;;;;
1742.0;1608.2;;;;-0.18486787;0.8484498;0.06490327;;;;;;;;;;;;;;;
1742.0;1608.2;;;;-0.18419267;0.84682477;0.065494545;;;;;;;;;;;;;;;
1742.0;1608.2;;;;-0.18389131;0.8444749;0.0666771;;;;;;;;;;;;;;;
1742.0;1608.2;;;;-0.18398668;0.84246075;0.067955025;;;;;;;;;;;;;;;
1742.0;1608.2;;;;-0.18434145;0.8399621;0.06946183;;;;;;;;;;;;;;;
1742.0;1618.2;;;;-0.18484499;0.83789456;0.070846565;;;;;;;;;;;;;;;
1742.0;1618.2;;;;-0.18578722;0.8356782;0.0718155;;;;;;;;;;;;;;;
1742.0;1618.2;;;;-0.18624498;0.83381283;0.073314674;;;;;;;;;;;;;;;
1742.0;1618.2;;;;-0.18659593;0.83182156;0.074558266;;;;;;;;;;;;;;;
1742.0;1618.2;;;;-0.18701936;0.8300592;0.07569886;;;;;;;;;;;;;;;
1742.0;1620.4;262143;262143;12748;;;;;;;;;;;;;;;;;;
1742.0;1628.2;;;;-0.1872368;0.8286859;0.076572426;;;;;;;;;;;;;;;
1742.0;1628.2;;;;-0.18685915;0.82716763;0.07841874;;;;;;;;;;;;;;;
1742.0;1628.2;;;;-0.18637086;0.8260499;0.078845985;;;;;;;;;;;;;;;
1742.0;1628.2;;;;-0.18633272;0.8250886;0.07911683;;;;;;;;;;;;;;;
1742.0;1628.2;;;;-0.18592454;0.8241426;0.07959748;;;;;;;;;;;;;;;
1742.0;1638.0;;;;-0.1859131;0.8235551;0.079235084;;;;;;;;;;;;;;;
1742.0;1638.0;;;;-0.18580247;0.82349026;0.0793953;;;;;;;;;;;;;;;
1742.0;1638.0;;;;-0.18628313;0.8235208;0.079235084;;;;;;;;;;;;;;;
1742.0;1638.0;;;;-0.18649293;0.8238679;0.07878495;;;;;;;;;;;;;;;
1742.0;1638.0;;;;-0.18753055;0.82460034;0.07794572;;;;;;;;;;;;;;;
1746.0;1640.3;262143;262143;12747;;;;;;;;;;;;;;;;;;
1746.0;1646.3;;;;;;;;;;;;;1855;;;;;;;;
1746.0;1646.3;;;;;;;;;;;;;2266;;;;;;;;
1746.0;1646.3;;;;;;;;;;;;;2502;;;;;;;;
1746.0;1646.3;;;;;;;;;;;;;1992;;;;;;;;
1746.0;1646.3;;;;;;;;;;;;;1374;;;;;;;;
1746.0;1648.2;;;;-0.18891528;0.8256799;0.07758332;;;;;;;;;;;;;;;
1746.0;1648.2;;;;-0.19012454;0.8270608;0.07781983;;;;;;;;;;;;;;;
1746.0;1648.2;;;;-0.19184116;0.82903683;0.076839454;;;;;;;;;;;;;;;
1746.0;1648.2;;;;-0.19391254;0.8308221;0.07625199;;;;;;;;;;;;;;;
1746.0;1648.2;;;;-0.19558719;0.83296597;0.07574464;;;;;;;;;;;;;;;
1746.0;1658.3;;;;-0.1971207;0.83485806;0.07484437;;;;;;;;;;;;;;;
1746.0;1658.3;;;;-0.19770053;0.8369256;0.07449723;;;;;;;;;;;;;;;
1746.0;1658.3;;;;-0.19832996;0.83838284;0.07466508;;;;;;;;;;;;;;;
1746.0;1658.3;;;;-0.19844058;0.8401338;0.0746193;;;;;;;;;;;;;;;
1746.0;1658.3;;;;-0.19847873;0.84167874;0.07483292;;;;;;;;;;;;;;;
1747.0;1661.0;;;;;;;;;;;;;;;;;-10.292367;6.069369;23.308512;;1533.8
1747.0;1661.0;;;;;;;;;;;;;;0.95883054;-0.18402661;-0.1511887;;;;;1533.8
1747.0;1661.0;;;;;;;;;;;;;;;;;-7.930998;4.1695914;22.79351;;1533.8
1747.0;1661.0;;;;;;;;;;;;;;0.964568;-0.1810358;-0.15393536;;;;;1533.8
1747.0;1661.0;;;;;;;;;;;;;;;;;-4.5319986;3.3646657;22.423473;;1543.3
1747.0;1661.0;;;;;;;;;;;;;;0.97116;-0.17401654;-0.16394544;;;;;1543.3
1747.0;1661.0;;;;;;;;;;;;;;;;;-1.8730735;4.9211097;22.045809;;1543.3
1747.0;1661.0;;;;;;;;;;;;;;0.9641408;-0.17072055;-0.15637684;;;;;1543.3
1747.0;1661.0;;;;;;;;;;;;;;;;;-1.083407;6.199072;21.61855;;1553.0
1747.0;1661.0;;;;;;;;;;;;;;0.94351023;-0.1633961;-0.13629566;;;;;1553.0
1747.0;1661.0;;;;;;;;;;;;;;;;;-0.6256294;6.241035;20.828882;;1553.0
1747.0;1661.0;;;;;;;;;;;;;;0.9378338;-0.15704826;-0.13721122;;;;;1553.0
1747.0;1660.5;262143;262143;12747;;;;;;;;;;;;;;;;;;
1747.0;1662.2;;;;;;;;;;;;;;;;;1.9569995;6.4546647;19.783623;;1562.6
1747.0;1662.2;;;;;;;;;;;;;;0.92837304;-0.15124974;-0.13824885;;;;;1562.6
1747.0;1662.2;;;;;;;;;;;;;;;;;5.7412944;6.122776;18.929106;;1562.6
1747.0;1662.2;;;;;;;;;;;;;;0.92245245;-0.13824885;-0.13263345;;;;;1562.6
1747.0;1662.2;;;;;;;;;;;;;;;;;8.419294;6.1761837;18.055513;;1572.2
1747.0;1662.2;;;;;;;;;;;;;;0.92281866;-0.11725211;-0.13299966;;;;;1572.2
1747.0;1662.2;;;;;;;;;;;;;;;;;8.632923;7.2443314;17.101809;;1572.2
1747.0;1662.2;;;;;;;;;;;;;;0.92172;-0.0905179;-0.13129063;;;;;1572.2
1747.0;1662.2;;;;;;;;;;;;;;;;;8.20185;7.805109;16.090885;;1581.8
1747.0;1662.2;;;;;;;;;;;;;;0.9191565;-0.07208472;-0.15655996;;;;;1581.8
1747.0;1662.2;;;;;;;;;;;;;;;;;8.59859;7.374035;15.251625;;1581.8
1747.0;1662.2;;;;;;;;;;;;;;0.913419;-0.049439985;-0.1894589;;;;;1581.8
1747.0;1663.0;;;;;;;;;;;;;;;;;8.70159;5.710776;14.908293;;1591.5
1747.0;1663.0;;;;;;;;;;;;;;0.9027375;-0.040833768;-0.21942808;;;;;1591.5
1747.0;1663.0;;;;;;;;;;;;;;;;;7.3244424;3.2425916;15.400403;;1591.5
1747.0;1663.0;;;;;;;;;;;;;;0.8995636;-0.044801172;-0.23053682;;;;;1591.5
1747.0;1663.0;;;;;;;;;;;;;;;;;3.3455918;1.7319254;16.563921;;1601.2
1747.0;1663.0;;;;;;;;;;;;;;0.9073153;-0.07068087;-0.21753594;;;;;1601.2
1747.0;1663.0;;;;;;;;;;;;;;;;;-2.3003328;1.8082217;18.108921;;1601.2
1747.0;1663.0;;;;;;;;;;;;;;0.9220252;-0.10608234;-0.1894589;;;;;1601.2
1747.0;1663.0;;;;;;;;;;;;;;;;;-8.575701;2.9412215;20.165104;;1610.8
1747.0;1663.0;;;;;;;;;;;;;;0.9424116;-0.14453566;-0.1793878;;;;;1610.8
1747.0;1663.0;;;;;;;;;;;;;;;;;-16.006958;5.6230354;22.48451;;1610.8
1747.0;1663.0;;;;;;;;;;;;;;0.9577929;-0.18005921;-0.11322367;;;;;1610.8
1801.0;1668.1;;;;-0.1984177;0.8427278;0.07419587;;;;;;;;;;;;;;;
1801.0;1668.1;;;;-0.1985245;0.8434831;0.07358933;;;;;;;;;;;;;;;
1801.0;1668.1;;;;-0.19887164;0.8446084;0.073658;;;;;;;;;;;;;;;
1801.0;1668.1;;;;-0.19915012;0.8455125;0.07421494;;;;;;;;;;;;;;;
1801.0;1668.1;;;;-0.19977954;0.84659207;0.07486344;;;;;;;;;;;;;;;
1801.0;1678.1;;;;-0.2002869;0.8478776;0.07585145;;;;;;;;;;;;;;;
1801.0;1678.1;;;;-0.20117572;0.84923184;0.07758332;;;;;;;;;;;;;;;
1801.0;1678.1;;;;-0.20178989;0.8508073;0.07894517;;;;;;;;;;;;;;;
1801.0;1678.1;;;;-0.20196918;0.8525468;0.0803299;;;;;;;;;;;;;;;
1801.0;1678.1;;;;-0.2024689;0.8542329;0.082061775;;;;;;;;;;;;;;;
1801.0;1680.4;262143;262143;12748;;;;;;;;;;;;;;;;;;
1801.0;1686.4;;;;;;;;;;;;;1409;;;;;;;;
1801.0;1686.4;;;;;;;;;;;;;1797;;;;;;;;
1801.0;1686.4;;;;;;;;;;;;;2090;;;;;;;;
1801.0;1686.4;;;;;;;;;;;;;2262;;;;;;;;
1801.0;1686.4;;;;;;;;;;;;;2141;;;;;;;;
1801.0;1688.1;;;;-0.202755;0.8561593;0.08380891;;;;;;;;;;;;;;;
1801.0;1688.1;;;;-0.20250323;0.8584329;0.08600999;;;;;;;;;;;;;;;
1801.0;1688.1;;;;-0.20278934;0.860695;0.08812714;;;;;;;;;;;;;;;
1801.0;1688.1;;;;-0.20321277;0.8632356;0.090881355;;;;;;;;;;;;;;;
1801.0;1688.1;;;;-0.20389178;0.8659936;0.093269356;;;;;;;;;;;;;;;
1805.0;1697.8;;;;-0.20477298;0.8690454;0.09560014;;;;;;;;;;;;;;;
1805.0;1697.8;;;;-0.20554736;0.8723489;0.09788896;;;;;;;;;;;;;;;
1805.0;1697.8;;;;-0.2062836;0.87567914;0.10061647;;;;;;;;;;;;;;;
1805.0;1697.8;;;;-0.20729068;0.87907803;0.10320665;;;;;;;;;;;;;;;
1805.0;1697.8;;;;-0.2075043;0.8824769;0.105712906;;;;;;;;;;;;;;;
1805.0;1700.2;262143;262143;12745;;;;;;;;;;;;;;;;;;
1805.0;1708.0;;;;-0.20825961;0.88578427;0.10815431;;;;;;;;;;;;;;;
1805.0;1708.0;;;;-0.20860294;0.88873684;0.11071779;;;;;;;;;;;;;;;
1805.0;1708.0;;;;-0.2092171;0.8913766;0.11349107;;;;;;;;;;;;;;;
1805.0;1708.0;;;;-0.20944217;0.89395916;0.11645509;;;;;;;;;;;;;;;
1805.0;1708.0;;;;-0.20968631;0.89637005;0.119144455;;;;;;;;;;;;;;;
1805.0;1718.1;;;;-0.21010211;0.899006;0.12130357;;;;;;;;;;;;;;;
1805.0;1718.1;;;;-0.21026996;0.9012033;0.12344362;;;;;;;;;;;;;;;
1805.0;1718.1;;;;-0.21029285;0.90355694;0.12604143;;;;;;;;;;;;;;;
1805.0;1718.1;;;;-0.21008304;0.9063226;0.12808992;;;;;;;;;;;;;;;
1805.0;1718.1;;;;-0.210228;0.9088403;0.13033678;;;;;;;;;;;;;;;
1807.0;1721.0;;;;;;;;;;;;;;;;;-24.109623;7.065035;24.666586;;1620.4
1807.0;1721.0;;;;;;;;;;;;;;0.97488326;-0.20844142;-0.06549272;;;;;1620.4
1807.0;1721.0;;;;;;;;;;;;;;;;;-29.190954;7.0764794;26.871548;;1620.4
1807.0;1721.0;;;;;;;;;;;;;;0.98623616;-0.23859371;-0.083010346;;;;;1620.4
1807.0;1721.0;;;;;;;;;;;;;;;;;-31.292915;6.992553;29.072695;;1630.1
1807.0;1721.0;;;;;;;;;;;;;;0.9872127;-0.2535478;-0.09765923;;;;;1630.1
1807.0;1721.0;;;;;;;;;;;;;;;;;-36.805325;5.9282207;31.56377;;1630.1
1807.0;1721.0;;;;;;;;;;;;;;0.9783624;-0.2702109;-0.078554645;;;;;1630.1
1807.0;1721.0;;;;;;;;;;;;;;;;;-42.607655;4.974517;33.890804;;1639.8
1807.0;1721.0;;;;;;;;;;;;;;1.0077822;-0.3020722;-0.080446795;;;;;1639.8
1807.0;1721.0;;;;;;;;;;;;;;;;;-39.906765;7.629627;34.98947;;1639.8
1807.0;1721.0;;;;;;;;;;;;;;1.0199286;-0.32453382;-0.11481063;;;;;1639.8
1807.0;1720.5;262143;262143;12749;;;;;;;;;;;;;;;;;;
1813.0;1721.8;;;;;;;;;;;;;;;;;-30.568102;10.288552;35.508286;;1649.5
1813.0;1721.8;;;;;;;;;;;;;;1.0033265;-0.32905057;-0.16290781;;;;;1649.5
1813.0;1721.8;;;;;;;;;;;;;;;;;-21.847439;10.979034;36.294136;;1649.5
1813.0;1721.8;;;;;;;;;;;;;;0.97518843;-0.32715842;-0.20526749;;;;;1649.5
1813.0;1721.8;;;;;;;;;;;;;;;;;-18.250069;11.310923;37.02658;;1659.1
1813.0;1721.8;;;;;;;;;;;;;;0.93166906;-0.32544938;-0.20673238;;;;;1659.1
1813.0;1721.8;;;;;;;;;;;;;;;;;-18.951996;10.914183;37.446213;;1659.1
1813.0;1721.8;;;;;;;;;;;;;;0.9046907;-0.32654804;-0.19745475;;;;;1659.1
1813.0;1721.8;;;;;;;;;;;;;;;;;-20.050661;11.272774;37.522507;;1668.8
1813.0;1721.8;;;;;;;;;;;;;;0.8852809;-0.32581562;-0.17651907;;;;;1668.8
1813.0;1721.8;;;;;;;;;;;;;;;;;-19.062624;11.917479;37.514877;;1668.8
1813.0;1721.8;;;;;;;;;;;;;;0.86605424;-0.32239753;-0.1539964;;;;;1668.8
1813.0;1726.4;;;;;;;;;;;;;1681;;;;;;;;
1813.0;1726.4;;;;;;;;;;;;;1195;;;;;;;;
1813.0;1726.4;;;;;;;;;;;;;873;;;;;;;;
1813.0;1726.4;;;;;;;;;;;;;1161;;;;;;;;
1813.0;1726.4;;;;;;;;;;;;;2774;;;;;;;;
1813.0;1728.0;;;;-0.21038058;0.91132367;0.13123323;;;;;;;;;;;;;;;
1813.0;1728.0;;;;-0.21012118;0.91363156;0.13314058;;;;;;;;;;;;;;;
1813.0;1728.0;;;;-0.2105408;0.91609585;0.13474275;;;;;;;;;;;;;;;
1813.0;1728.0;;;;-0.21026996;0.9184114;0.13562013;;;;;;;;;;;;;;;
1813.0;1728.0;;;;-0.21011737;0.92107403;0.13731386;;;;;;;;;;;;;;;
1813.0;1737.7;;;;;;;;;;1.4572588;19.74166;-3.3761103;;;;;;;;;
1813.0;1737.7;;;;;;;0.18475905;-0.7309183;0.22498246;;;;;;;;;;;;
1813.0;1737.7;;;;;;;;;;3.8300729;32.92566;8.2819605;;;;;;;;;
1813.0;1737.7;;;;;;;0.20764793;-0.86324656;0.23932615;;;;;;;;;;;;
1862.0;1738.0;;;;-0.21006015;0.9231149;0.13903429;;;;;;;;;;;;;;;
1862.0;1738.0;;;;-0.21001437;0.92479336;0.1403084;;;;;;;;;;;;;;;
1862.0;1738.0;;;;-0.20958331;0.92665493;0.14045717;;;;;;;;;;;;;;;
1862.0;1738.0;;;;-0.20879748;0.9283143;0.14051439;;;;;;;;;;;;;;;
1862.0;1738.0;;;;-0.20835117;0.9295007;0.14062501;;;;;;;;;;;;;;;
1862.0;1740.5;262143;262143;12752;;;;;;;;;;;;;;;;;;
1862.0;1747.3;;;;;;;;;;-0.110629596;5.916776;2.4033327;;;;;;;;;
1862.0;1747.3;;;;;;;0.2115543;-0.92440563;0.2252266;;;;;;;;;;;;
1862.0;1747.3;;;;;;;;;;1.5793328;20.16129;7.0764794;;;;;;;;;
1862.0;1747.3;;;;;;;0.22345653;-0.9956969;0.21356852;;;;;;;;;;;;
1862.0;1748.1;;;;-0.20853046;0.93053067;0.14040758;;;;;;;;;;;;;;;
1862.0;1748.1;;;;-0.20877841;0.93166363;0.13967516;;;;;;;;;;;;;;;
1862.0;1748.1;;;;-0.20993808;0.9329301;0.13973238;;;;;;;;;;;;;;;
1862.0;1748.1;;;;-0.21121219;0.93429196;0.13982011;;;;;;;;;;;;;;;
1862.0;1748.1;;;;-0.21197131;0.9368135;0.14061357;;;;;;;;;;;;;;;
1862.0;1756.7;;;;;;;;;;-2.0867033;24.456772;7.099368;;;;;;;;;
1862.0;1756.7;;;;;;;0.23529771;-1.0679647;0.21063875;;;;;;;;;;;;
1862.0;1756.7;;;;;;;;;;-11.101108;-6.9277015;-13.714254;;;;;;;;;
1862.0;1756.7;;;;;;;0.24219489;-1.1302224;0.20789209;;;;;;;;;;;;
1864.0;1758.0;;;;-0.21200183;0.9394456;0.14120485;;;;;;;;;;;;;;;
1864.0;1758.0;;;;-0.21196368;0.94243634;0.14190675;;;;;;;;;;;;;;;
1864.0;1758.0;;;;-0.21115115;0.9457971;0.1426735;;;;;;;;;;;;;;;
1864.0;1758.0;;;;-0.21085742;0.95009243;0.14262392;;;;;;;;;;;;;;;
1864.0;1758.0;;;;-0.21034625;0.95489895;0.1432152;;;;;;;;;;;;;;;
1864.0;1760.5;262143;262143;12744;;;;;;;;;;;;;;;;;;
1864.0;1766.3;;;;;;;;;;-15.034181;-3.6126287;-13.988921;;;;;;;;;
1864.0;1766.3;;;;;;;0.23853268;-1.1713004;0.20844142;;;;;;;;;;;;
1864.0;1766.3;;;;;;;;;;-18.803217;-0.43107393;-13.458663;;;;;;;;;
1864.0;1766.3;;;;;;;0.22931609;-1.1923581;0.20880765;;;;;;;;;;;;
1864.0;1766.5;;;;;;;;;;;;;4898;;;;;;;;
1864.0;1766.5;;;;;;;;;;;;;3427;;;;;;;;
1864.0;1766.5;;;;;;;;;;;;;-4505;;;;;;;;
1864.0;1766.5;;;;;;;;;;;;;-13622;;;;;;;;
1864.0;1766.5;;;;;;;;;;;;;-14440;;;;;;;;
1864.0;1768.1;;;;-0.21061328;0.96003354;0.14358903;;;;;;;;;;;;;;;
1864.0;1768.1;;;;-0.21035388;0.9654275;0.14443208;;;;;;;;;;;;;;;
1864.0;1768.1;;;;-0.21054843;0.97106946;0.14512636;;;;;;;;;;;;;;;
1864.0;1768.1;;;;-0.21134189;0.97670376;0.14549257;;;;;;;;;;;;;;;
1864.0;1768.1;;;;-0.21150592;0.98238003;0.14599992;;;;;;;;;;;;;;;
1864.0;1775.9;;;;;;;;;;-22.297585;9.640035;-6.5233316;;;;;;;;;
1864.0;1775.9;;;;;;;0.21991637;-1.1933959;0.21448408;;;;;;;;;;;;
1864.0;1775.9;;;;;;;;;;-23.602253;18.494217;1.4305551;;;;;;;;;
1864.0;1775.9;;;;;;;0.21033357;-1.1873531;0.21985534;;;;;;;;;;;;
1865.0;1778.2;;;;-0.2106972;0.988556;0.14628984;;;;;;;;;;;;;;;
1865.0;1778.2;;;;-0.20993808;0.9941522;0.14629366;;;;;;;;;;;;;;;
1865.0;1778.2;;;;-0.20910266;0.9995271;0.14616777;;;;;;;;;;;;;;;
1865.0;1778.2;;;;-0.2078171;1.0047837;0.14612962;;;;;;;;;;;;;;;
1865.0;1778.2;;;;-0.20645908;1.0101548;0.14672853;;;;;;;;;;;;;;;
1865.0;1781.2;;;;;;;;;;;;;;;;;-15.7284775;11.501663;37.125767;;1678.3
1865.0;1781.2;;;;;;;;;;;;;;0.8567156;-0.29847103;-0.15332499;;;;;1678.3
1865.0;1781.2;;;;;;;;;;;;;;;;;-11.970885;10.158849;36.435284;;1678.3
1865.0;1781.2;;;;;;;;;;;;;;0.84688866;-0.26654866;-0.16248055;;;;;1678.3
1865.0;1781.2;;;;;;;;;;;;;;;;;-8.919034;8.163702;35.603657;;1687.9
1865.0;1781.2;;;;;;;;;;;;;;0.8528703;-0.23206274;-0.18176824;;;;;1687.9
1865.0;1781.2;;;;;;;;;;;;;;;;;-6.530961;7.0574055;34.398174;;1687.9
1865.0;1781.2;;;;;;;;;;;;;;0.8627583;-0.19598986;-0.1944029;;;;;1687.9
1865.0;1781.2;;;;;;;;;;;;;;;;;-3.6622212;5.9282207;32.979065;;1697.6
1865.0;1781.2;;;;;;;;;;;;;;0.8746605;-0.15784173;-0.21472824;;;;;1697.6
1865.0;1781.2;;;;;;;;;;;;;;;;;-0.67903686;5.4780726;31.311993;;1697.6
1865.0;1781.2;;;;;;;;;;;;;;0.88448745;-0.12152471;-0.22254097;;;;;1697.6
1865.0;1780.8;262143;262143;12744;;;;;;;;;;;;;;;;;;
1866.0;1782.3;;;;;;;;;;;;;;;;;1.8883327;5.1538134;29.583881;;1707.2
1866.0;1782.3;;;;;;;;;;;;;;0.88973665;-0.090456866;-0.21381268;;;;;1707.2
1866.0;1782.3;;;;;;;;;;;;;;;;;3.7957397;4.6731467;27.718435;;1707.2
1866.0;1782.3;;;;;;;;;;;;;;0.90017396;-0.06640828;-0.2029481;;;;;1707.2
1866.0;1782.3;;;;;;;;;;;;;;;;;5.508591;4.7875915;25.631733;;1716.9
1866.0;1782.3;;;;;;;;;;;;;;0.9140904;-0.04034547;-0.19403668;;;;;1716.9
1866.0;1782.3;;;;;;;;;;;;;;;;;7.2977386;5.157628;23.426771;;1716.9
1866.0;1782.3;;;;;;;;;;;;;;0.92226934;-0.013367107;-0.20026246;;;;;1716.9
1866.0;1782.3;;;;;;;;;;;;;;;;;8.1827755;4.799036;21.450697;;1726.6
1866.0;1782.3;;;;;;;;;;;;;;0.93459886;0.011108737;-0.2151555;;;;;1726.6
1866.0;1782.3;;;;;;;;;;;;;;;;;7.213813;4.402295;19.878994;;1726.6
1866.0;1782.3;;;;;;;;;;;;;;0.94320506;0.031617176;-0.2278512;;;;;1726.6
1866.0;1785.3;;;;;;;;;;-23.953215;18.406477;2.4719992;;;;;;;;;
1866.0;1785.3;;;;;;;0.2059389;-1.1803949;0.22479934;;;;;;;;;;;;
1866.0;1785.3;;;;;;;;;;-24.414808;18.24244;3.299814;;;;;;;;;
1866.0;1785.3;;;;;;;0.20282601;-1.178808;0.23004852;;;;;;;;;;;;
1866.0;1788.1;;;;-0.2055321;1.0146028;0.1469803;;;;;;;;;;;;;;;
1866.0;1788.1;;;;-0.2044411;1.0195848;0.1477051;;;;;;;;;;;;;;;
1866.0;1788.1;;;;-0.20391849;1.0244943;0.14922334;;;;;;;;;;;;;;;
1866.0;1788.1;;;;-0.20322803;1.0288659;0.15042116;;;;;;;;;;;;;;;
1866.0;1788.1;;;;-0.20258334;1.0334245;0.15127565;;;;;;;;;;;;;;;
1866.0;1794.9;;;;;;;;;;-25.040436;18.192846;4.0055547;;;;;;;;;
1866.0;1794.9;;;;;;;0.20648824;-1.1934569;0.23450422;;;;;;;;;;;;
1866.0;1794.9;;;;;;;;;;-25.517288;18.295847;4.7189245;;;;;;;;;
1866.0;1794.9;;;;;;;0.2120426;-1.220191;0.24243905;;;;;;;;;;;;
1923.0;1798.1;;;;-0.2020264;1.0380403;0.15192415;;;;;;;;;;;;;;;
1923.0;1798.1;;;;-0.20084766;1.0421678;0.15204622;;;;;;;;;;;;;;;
1923.0;1798.1;;;;-0.19973758;1.046734;0.15293123;;;;;;;;;;;;;;;
1923.0;1798.1;;;;-0.19837192;1.0513498;0.15333177;;;;;;;;;;;;;;;
1923.0;1798.1;;;;-0.19630054;1.0554658;0.1543236;;;;;;;;;;;;;;;
1923.0;1800.7;262143;262143;12745;;;;;;;;;;;;;;;;;;
1923.0;1804.4;;;;;;;;;;-25.990326;18.299662;5.455184;;;;;;;;;
1923.0;1804.4;;;;;;;0.2202826;-1.2491226;0.2509232;;;;;;;;;;;;
1923.0;1804.4;;;;;;;;;;-26.326029;18.173773;6.241035;;;;;;;;;
1923.0;1804.4;;;;;;;0.22882779;-1.2803736;0.25959045;;;;;;;;;;;;
1923.0;1806.7;;;;;;;;;;;;;-4833;;;;;;;;
1923.0;1806.7;;;;;;;;;;;;;6321;;;;;;;;
1923.0;1806.7;;;;;;;;;;;;;9637;;;;;;;;
1923.0;1806.7;;;;;;;;;;;;;5768;;;;;;;;
1923.0;1806.7;;;;;;;;;;;;;1618;;;;;;;;
1923.0;1808.0;;;;-0.19472125;1.0601083;0.15550233;;;;;;;;;;;;;;;
1923.0;1808.0;;;;-0.19314578;1.0651933;0.15729524;;;;;;;;;;;;;;;
1923.0;1808.0;;;;-0.19189838;1.0705072;0.15943147;;;;;;;;;;;;;;;
1923.0;1808.0;;;;-0.19074252;1.0761186;0.1613579;;;;;;;;;;;;;;;
1923.0;1808.0;;;;-0.18951038;1.081566;0.1637459;;;;;;;;;;;;;;;
1923.0;1813.7;;;;;;;;;;-26.295511;18.101292;7.152776;;;;;;;;;
1923.0;1813.7;;;;;;;0.23700674;-1.3029573;0.2696005;;;;;;;;;;;;
1923.0;1813.7;;;;;;;;;;-25.875881;17.929625;8.262887;;;;;;;;;
1923.0;1813.7;;;;;;;0.24353771;-1.3147985;0.28296763;;;;;;;;;;;;
1929.0;1817.9;;;;-0.18879321;1.0875283;0.16598894;;;;;;;;;;;;;;;
1929.0;1817.9;;;;-0.18761829;1.0942079;0.16856004;;;;;;;;;;;;;;;
1929.0;1817.9;;;;-0.18647768;1.1004945;0.17073824;;;;;;;;;;;;;;;
1929.0;1817.9;;;;-0.18522646;1.1067888;0.17286684;;;;;;;;;;;;;;;
1929.0;1817.9;;;;-0.18413164;1.1134225;0.17566682;;;;;;;;;;;;;;;
1929.0;1820.6;262143;262143;12745;;;;;;;;;;;;;;;;;;
1929.0;1823.3;;;;;;;;;;-25.07477;17.597734;9.624775;;;;;;;;;
1929.0;1823.3;;;;;;;0.24744408;-1.3148595;0.29425946;;;;;;;;;;;;
1929.0;1823.3;;;;;;;;;;-24.098179;17.082735;10.906552;;;;;;;;;
1929.0;1823.3;;;;;;;0.25629443;-1.3035066;0.30323192;;;;;;;;;;;;
1929.0;1828.0;;;;-0.18291856;1.1199685;0.17796709;;;;;;;;;;;;;;;
1929.0;1828.0;;;;-0.18139268;1.126278;0.17949297;;;;;;;;;;;;;;;
1929.0;1828.0;;;;-0.17961122;1.1319047;0.18119814;;;;;;;;;;;;;;;
1929.0;1828.0;;;;-0.17767717;1.1380807;0.1823311;;;;;;;;;;;;;;;
1929.0;1828.0;;;;-0.17483522;1.1428224;0.18326189;;;;;;;;;;;;;;;
1929.0;1832.9;;;;;;;;;;-23.010956;16.60207;11.646626;;;;;;;;;
1929.0;1832.9;;;;;;;0.2582476;-1.2847682;0.30994597;;;;;;;;;;;;
1929.0;1832.9;;;;;;;;;;-21.828365;16.113773;11.791589;;;;;;;;;
1929.0;1832.9;;;;;;;0.2578814;-1.2601093;0.31134984;;;;;;;;;;;;
1931.0;1838.1;;;;-0.17208864;1.1474916;0.18398286;;;;;;;;;;;;;;;
1931.0;1838.1;;;;-0.16853334;1.1520654;0.18426134;;;;;;;;;;;;;;;
1931.0;1838.1;;;;-0.16530992;1.1561776;0.18511201;;;;;;;;;;;;;;;
1931.0;1838.1;;;;-0.16168596;1.1598817;0.18509294;;;;;;;;;;;;;;;
1931.0;1838.1;;;;-0.15852357;1.1634675;0.18553545;;;;;;;;;;;;;;;
1931.0;1840.9;262143;262143;12745;;;;;;;;;;;;;;;;;;
1931.0;1842.6;;;;;;;;;;-20.363476;16.113773;11.322367;;;;;;;;;
1931.0;1842.6;;;;;;;0.25879696;-1.23661;0.30610064;;;;;;;;;;;;
1931.0;1842.6;;;;;;;;;;-18.669699;16.346478;10.368664;;;;;;;;;
1931.0;1842.6;;;;;;;0.2590411;-1.2233039;0.30719933;;;;;;;;;;;;
1931.0;1846.8;;;;;;;;;;;;;734;;;;;;;;
1931.0;1846.8;;;;;;;;;;;;;1290;;;;;;;;
1931.0;1846.8;;;;;;;;;;;;;1185;;;;;;;;
1931.0;1846.8;;;;;;;;;;;;;730;;;;;;;;
1931.0;1846.8;;;;;;;;;;;;;423;;;;;;;;
1931.0;1848.2;;;;-0.15547945;1.1667825;0.18584062;;;;;;;;;;;;;;;
1931.0;1848.2;;;;-0.15260698;1.1702996;0.18605043;;;;;;;;;;;;;;;
1931.0;1848.2;;;;-0.14989854;1.1739465;0.18605806;;;;;;;;;;;;;;;
1931.0;1848.2;;;;-0.1476288;1.1767732;0.18513872;;;;;;;;;;;;;;;
1931.0;1848.2;;;;-0.14538576;1.1799089;0.1837578;;;;;;;;;;;;;;;
1933.0;1849.1;;;;;;;;;;;;;;;;;3.7003694;4.5739617;18.757439;;1736.3
1933.0;1849.1;;;;;;;;;;;;;;0.9588916;0.045777764;-0.21399578;;;;;1736.3
1933.0;1849.1;;;;;;;;;;;;;;;;;-2.9183326;6.427961;17.887661;;1736.3
1933.0;1849.1;;;;;;;;;;;;;;0.96444595;0.039796136;-0.19592883;;;;;1736.3
1933.0;1849.1;;;;;;;;;;;;;;;;;-12.57744;9.445479;17.200994;;1745.8
1933.0;1849.1;;;;;;;;;;;;;;0.96279794;0.016846217;-0.10913419;;;;;1745.8
1933.0;1849.1;;;;;;;;;;;;;;;;;-25.933104;11.326181;16.727959;;1745.8
1933.0;1849.1;;;;;;;;;;;;;;0.93447673;-0.033143103;-0.006286813;;;;;1745.8
1933.0;1849.1;;;;;;;;;;;;;;;;;-34.62325;6.6225166;15.602588;;1755.3
1933.0;1849.1;;;;;;;;;;;;;;0.9115879;-0.0629902;-0.022034364;;;;;1755.3
1933.0;1849.1;;;;;;;;;;;;;;;;;-33.677177;-1.167333;14.713737;;1755.3
1933.0;1849.1;;;;;;;;;;;;;;0.92953277;-0.08514664;-0.11371197;;;;;1755.3
1933.0;1850.0;;;;;;;;;;;;;;;;;-27.35603;-6.698813;14.248329;;1765.0
1933.0;1850.0;;;;;;;;;;;;;;0.95022434;-0.096804716;-0.21082187;;;;;1765.0
1933.0;1850.0;;;;;;;;;;;;;;;;;-25.543993;-9.506516;15.289773;;1765.0
1933.0;1850.0;;;;;;;;;;;;;;0.99526966;-0.12140263;-0.2933439;;;;;1765.0
1933.0;1850.0;;;;;;;;;;;;;;;;;-29.004028;-6.9086275;17.143772;;1774.6
1933.0;1850.0;;;;;;;;;;;;;;1.0257882;-0.1556444;-0.3246559;;;;;1774.6
1933.0;1850.0;;;;;;;;;;;;;;;;;-35.08484;-3.212073;19.142736;;1774.6
1933.0;1850.0;;;;;;;;;;;;;;1.033662;-0.19226661;-0.32050538;;;;;1774.6
1933.0;1850.0;;;;;;;;;;;;;;;;;-41.116062;-3.0251474;21.248512;;1784.3
1933.0;1850.0;;;;;;;;;;;;;;1.0439161;-0.2235786;-0.3188574;;;;;1784.3
1933.0;1850.0;;;;;;;;;;;;;;;;;-45.70528;-4.146703;23.36192;;1784.3
1933.0;1850.0;;;;;;;;;;;;;;1.0596637;-0.24677266;-0.3103122;;;;;1784.3
1987.0;1851.9;;;;;;;;;;-17.69692;16.022219;8.79696;;;;;;;;;
1987.0;1851.9;;;;;;;0.26172674;-1.2130498;0.30512404;;;;;;;;;;;;
1987.0;1851.9;;;;;;;;;;-17.002625;15.388958;7.106998;;;;;;;;;
1987.0;1851.9;;;;;;;0.2565386;-1.1962035;0.2976165;;;;;;;;;;;;
1987.0;1858.0;;;;-0.14395525;1.1827127;0.18222429;;;;;;;;;;;;;;;
1987.0;1858.0;;;;-0.14214708;1.185299;0.18039323;;;;;;;;;;;;;;;
1987.0;1858.0;;;;-0.14072038;1.187275;0.1772957;;;;;;;;;;;;;;;
1987.0;1858.0;;;;-0.13922884;1.1888314;0.17390443;;;;;;;;;;;;;;;
1987.0;1858.0;;;;-0.1381569;1.1900522;0.16992952;;;;;;;;;;;;;;;
1987.0;1860.8;262143;262143;12736;;;;;;;;;;;;;;;;;;
1987.0;1861.5;;;;;;;;;;-15.804773;15.25544;5.767998;;;;;;;;;
1987.0;1861.5;;;;;;;0.25598925;-1.1750847;0.28772852;;;;;;;;;;;;
1987.0;1861.5;;;;;;;;;;-14.164403;15.717033;4.299295;;;;;;;;;
1987.0;1861.5;;;;;;;0.25775933;-1.1548815;0.27924436;;;;;;;;;;;;
1987.0;1868.0;;;;-0.13650514;1.1914254;0.16529848;;;;;;;;;;;;;;;
1987.0;1868.0;;;;-0.13411333;1.1927797;0.16070177;;;;;;;;;;;;;;;
1987.0;1868.0;;;;-0.13294603;1.1944162;0.15679933;;;;;;;;;;;;;;;
1987.0;1868.0;;;;-0.13156892;1.1964456;0.15243532;;;;;;;;;;;;;;;
1987.0;1868.0;;;;-0.13047792;1.198639;0.14719011;;;;;;;;;;;;;;;
1987.0;1870.8;;;;;;;;;;-12.596515;16.556292;2.4643695;;;;;;;;;
1987.0;1870.8;;;;;;;0.26349682;-1.1401105;0.27411726;;;;;;;;;;;;
1987.0;1870.8;;;;;;;;;;-11.051516;17.773216;0.5607776;;;;;;;;;
1987.0;1870.8;;;;;;;0.26862392;-1.1279641;0.2680746;;;;;;;;;;;;
1991.0;1877.8;;;;-0.13017274;1.2013589;0.14232637;;;;;;;;;;;;;;;
1991.0;1877.8;;;;-0.12972642;1.20496;0.13801195;;;;;;;;;;;;;;;
1991.0;1877.8;;;;-0.13001253;1.2093354;0.13316347;;;;;;;;;;;;;;;
1991.0;1877.8;;;;-0.13076021;1.2141954;0.12960054;;;;;;;;;;;;;;;
1991.0;1877.8;;;;-0.13233186;1.2201768;0.12594987;;;;;;;;;;;;;;;
1991.0;1880.3;;;;;;;;;;-9.651479;19.38307;-1.4496292;;;;;;;;;
1991.0;1880.3;;;;;;;0.27063814;-1.1233864;0.26026186;;;;;;;;;;;;
1991.0;1880.3;;;;;;;;;;-8.320109;21.168402;-3.3341472;;;;;;;;;
1991.0;1880.3;;;;;;;0.27283546;-1.1210059;0.25397503;;;;;;;;;;;;
1991.0;1880.7;262143;262143;12731;;;;;;;;;;;;;;;;;;
1991.0;1886.6;;;;;;;;;;;;;148;;;;;;;;
1991.0;1886.6;;;;;;;;;;;;;-163;;;;;;;;
1991.0;1886.6;;;;;;;;;;;;;-409;;;;;;;;
1991.0;1886.6;;;;;;;;;;;;;-588;;;;;;;;
1991.0;1886.6;;;;;;;;;;;;;-988;;;;;;;;
1991.0;1887.9;;;;-0.133976;1.2261201;0.12273027;;;;;;;;;;;;;;;
1991.0;1887.9;;;;-0.1360779;1.2331926;0.120712295;;;;;;;;;;;;;;;
1991.0;1887.9;;;;-0.1392441;1.2405092;0.11882402;;;;;;;;;;;;;;;
1991.0;1887.9;;;;-0.14257814;1.2481157;0.117576614;;;;;;;;;;;;;;;
1991.0;1887.9;;;;-0.14620973;1.2562829;0.116733566;;;;;;;;;;;;;;;
1991.0;1890.0;;;;;;;;;;-6.9887385;23.003326;-5.3025913;;;;;;;;;
1991.0;1890.0;;;;;;;0.27228615;-1.1250954;0.24683371;;;;;;;;;;;;
1991.0;1890.0;;;;;;;;;;-5.710776;24.868769;-7.1756644;;;;;;;;;
1991.0;1890.0;;;;;;;0.2709433;-1.1306497;0.24201179;;;;;;;;;;;;
1992.0;1898.0;;;;-0.1504822;1.2644273;0.11671449;;;;;;;;;;;;;;;
1992.0;1898.0;;;;-0.15464021;1.2727624;0.117927566;;;;;;;;;;;;;;;
1992.0;1898.0;;;;-0.15935136;1.2819406;0.1200905;;;;;;;;;;;;;;;
1992.0;1898.0;;;;-0.1634102;1.2912065;0.12308504;;;;;;;;;;;;;;;
1992.0;1898.0;;;;-0.16809465;1.3005983;0.12686922;;;;;;;;;;;;;;;
1992.0;1899.6;;;;;;;;;;-4.3565173;26.638844;-8.888515;;;;;;;;;
1992.0;1899.6;;;;;;;0.26532793;-1.1362652;0.23596911;;;;;;;;;;;;
1992.0;1899.6;;;;;;;;;;-2.9335918;28.420362;-10.383923;;;;;;;;;
1992.0;1899.6;;;;;;;0.26007873;-1.1403546;0.22962126;;;;;;;;;;;;
1992.0;1901.3;;;;;;;;;;;;;;;;;-48.257393;-3.8033693;25.37614;;1794.0
1992.0;1901.3;;;;;;;;;;;;;;1.0726646;-0.25989562;-0.29590747;;;;;1794.0
1992.0;1901.3;;;;;;;;;;;;;;;;;-48.043766;-1.6975921;26.741844;;1794.0
1992.0;1901.3;;;;;;;;;;;;;;1.0751671;-0.26770836;-0.29059726;;;;;1794.0
1992.0;1901.3;;;;;;;;;;;;;;;;;-43.77499;-0.038148135;27.111881;;1803.6
1992.0;1901.3;;;;;;;;;;;;;;1.0686972;-0.25183874;-0.31531724;;;;;1803.6
1992.0;1901.3;;;;;;;;;;;;;;;;;-37.842953;0.5226295;26.478622;;1803.6
1992.0;1901.3;;;;;;;;;;;;;;1.0547807;-0.22907193;-0.36512345;;;;;1803.6
1992.0;1901.3;;;;;;;;;;;;;;;;;-32.685326;0.3357036;25.440992;;1813.3
1992.0;1901.3;;;;;;;;;;;;;;1.0498978;-0.22577593;-0.39631337;;;;;1813.3
1992.0;1901.3;;;;;;;;;;;;;;;;;-30.156101;0.42725915;23.716698;;1813.3
1992.0;1901.3;;;;;;;;;;;;;;1.0613728;-0.2482986;-0.39442122;;;;;1813.3
1992.0;1900.9;262143;262143;12730;;;;;;;;;;;;;;;;;;
1994.0;1902.3;;;;;;;;;;;;;;;;;-29.816586;1.2321848;21.904661;;1822.7
1994.0;1902.3;;;;;;;;;;;;;;1.0914639;-0.27954954;-0.3653676;;;;;1822.7
1994.0;1902.3;;;;;;;;;;;;;;;;;-30.16373;2.4872584;19.829401;;1822.7
1994.0;1902.3;;;;;;;;;;;;;;1.1150852;-0.2923673;-0.33509323;;;;;1822.7
1994.0;1902.3;;;;;;;;;;;;;;;;;-29.786066;3.5134435;17.689291;;1832.4
1994.0;1902.3;;;;;;;;;;;;;;1.1213111;-0.293466;-0.30378124;;;;;1832.4
1994.0;1902.3;;;;;;;;;;;;;;;;;-28.75225;3.8987396;15.427107;;1832.4
1994.0;1902.3;;;;;;;;;;;;;;1.1224097;-0.28601947;-0.2793054;;;;;1832.4
1994.0;1902.3;;;;;;;;;;;;;;;;;-28.45851;5.2949615;13.229774;;1842.0
1994.0;1902.3;;;;;;;;;;;;;;1.1169775;-0.26703694;-0.24298838;;;;;1842.0
1994.0;1902.3;;;;;;;;;;;;;;;;;-29.232918;6.6644797;11.185034;;1842.0
1994.0;1902.3;;;;;;;;;;;;;;1.1177099;-0.24707785;-0.21002838;;;;;1842.0
1994.0;1907.8;;;;-0.17289354;1.3101312;0.13064577;;;;;;;;;;;;;;;
1994.0;1907.8;;;;-0.1764908;1.3201257;0.13490678;;;;;;;;;;;;;;;
1994.0;1907.8;;;;-0.18013002;1.3297998;0.13891603;;;;;;;;;;;;;;;
1994.0;1907.8;;;;-0.18410112;1.3394662;0.14297105;;;;;;;;;;;;;;;
1994.0;1907.8;;;;-0.18807223;1.3491403;0.1469269;;;;;;;;;;;;;;;
1994.0;1908.8;;;;;;;;;;-1.5144811;30.106508;-11.902219;;;;;;;;;
1994.0;1908.8;;;;;;;0.25800347;-1.1415753;0.22070986;;;;;;;;;;;;
1994.0;1908.8;;;;;;;;;;-0.049592577;31.62099;-13.367107;;;;;;;;;
1994.0;1908.8;;;;;;;0.25299844;-1.1424298;0.21234779;;;;;;;;;;;;
2043.0;1917.8;;;;-0.19124225;1.3584787;0.1514435;;;;;;;;;;;;;;;
2043.0;1917.8;;;;-0.19473651;1.367344;0.15579225;;;;;;;;;;;;;;;
2043.0;1917.8;;;;-0.19831088;1.3759156;0.15985872;;;;;;;;;;;;;;;
2043.0;1917.8;;;;-0.20064548;1.3841363;0.16476442;;;;;;;;;;;;;;;
2043.0;1917.8;;;;-0.20259479;1.3916131;0.17097856;;;;;;;;;;;;;;;
2043.0;1918.4;;;;;;;;;;1.3199255;32.883694;-14.870144;;;;;;;;;
2043.0;1918.4;;;;;;;0.2487869;-1.1385845;0.20325327;;;;;;;;;;;;
2043.0;1918.4;;;;;;;;;;2.8305917;33.9671;-16.422773;;;;;;;;;
2043.0;1918.4;;;;;;;0.24158452;-1.1337016;0.19635609;;;;;;;;;;;;
2043.0;1920.7;262143;262143;12729;;;;;;;;;;;;;;;;;;
2043.0;1926.6;;;;;;;;;;;;;-1855;;;;;;;;
2043.0;1926.6;;;;;;;;;;;;;-2958;;;;;;;;
2043.0;1926.6;;;;;;;;;;;;;-3728;;;;;;;;
2043.0;1926.6;;;;;;;;;;;;;-4165;;;;;;;;
2043.0;1926.6;;;;;;;;;;;;;-4779;;;;;;;;
2043.0;1927.8;;;;-0.20417789;1.3995706;0.17725755;;;;;;;;;;;;;;;
2043.0;1927.8;;;;-0.20487598;1.4070092;0.18345262;;;;;;;;;;;;;;;
2043.0;1927.8;;;;-0.20536807;1.413498;0.18935016;;;;;;;;;;;;;;;
2043.0;1927.8;;;;-0.2051926;1.4200593;0.1955109;;;;;;;;;;;;;;;
2043.0;1927.8;;;;-0.2045174;1.4258157;0.19976047;;;;;;;;;;;;;;;
2043.0;1927.9;;;;;;;;;;4.234443;34.787285;-17.998291;;;;;;;;;
2043.0;1927.9;;;;;;;0.23493148;-1.1267433;0.18726158;;;;;;;;;;;;
2043.0;1927.9;;;;;;;;;;5.607776;35.580765;-19.47081;;;;;;;;;
2043.0;1927.9;;;;;;;0.22675252;-1.1223487;0.17883846;;;;;;;;;;;;
2048.0;1937.1;;;;;;;;;;6.923887;36.48488;-20.863216;;;;;;;;;
2048.0;1937.1;;;;;;;0.21924497;-1.1165502;0.17023225;;;;;;;;;;;;
2048.0;1937.1;;;;;;;;;;8.152257;37.015137;-22.350992;;;;;;;;;
2048.0;1937.1;;;;;;;0.21613209;-1.1117283;0.16144292;;;;;;;;;;;;
2048.0;1937.5;;;;-0.20384601;1.4312936;0.20340732;;;;;;;;;;;;;;;
2048.0;1937.5;;;;-0.20277026;1.4361154;0.20782855;;;;;;;;;;;;;;;
2048.0;1937.5;;;;-0.201458;1.4405137;0.21148303;;;;;;;;;;;;;;;
2048.0;1937.5;;;;-0.20094302;1.444111;0.21486667;;;;;;;;;;;;;;;
2048.0;1937.5;;;;-0.2006531;1.4467164;0.21732715;;;;;;;;;;;;;;;
2048.0;1940.5;262143;262143;12725;;;;;;;;;;;;;;;;;;
2048.0;1946.8;;;;;;;;;;9.3081455;37.320324;-23.75103;;;;;;;;;
2048.0;1946.8;;;;;;;0.21356852;-1.1072725;0.1539964;;;;;;;;;;;;
2048.0;1946.8;;;;;;;;;;10.315256;37.472916;-25.17014;;;;;;;;;
2048.0;1946.8;;;;;;;0.21100497;-1.1039156;0.14825892;;;;;;;;;;;;
2048.0;1947.6;;;;-0.20018771;1.4482499;0.2196236;;;;;;;;;;;;;;;
2048.0;1947.6;;;;-0.19958499;1.4488565;0.2221413;;;;;;;;;;;;;;;
2048.0;1947.6;;;;-0.19806674;1.4500695;0.22246936;;;;;;;;;;;;;;;
2048.0;1947.6;;;;-0.19765094;1.4495622;0.22298053;;;;;;;;;;;;;;;
2048.0;1947.6;;;;-0.19661716;1.4479982;0.22404864;;;;;;;;;;;;;;;
2048.0;1956.4;;;;;;;;;;11.406293;37.354656;-26.51677;;;;;;;;;
2048.0;1956.4;;;;;;;0.20801416;-1.1050142;0.1445967;;;;;;;;;;;;
2048.0;1956.4;;;;;;;;;;12.508774;37.09525;-27.787102;;;;;;;;;
2048.0;1956.4;;;;;;;0.20123905;-1.1067842;0.14319284;;;;;;;;;;;;
2050.0;1957.7;;;;-0.19495776;1.4457055;0.22451404;;;;;;;;;;;;;;;
2050.0;1957.7;;;;-0.1929703;1.4430658;0.22487643;;;;;;;;;;;;;;;
2050.0;1957.7;;;;-0.19112399;1.4387971;0.22357562;;;;;;;;;;;;;;;
2050.0;1957.7;;;;-0.18916705;1.4335405;0.22285846;;;;;;;;;;;;;;;
2050.0;1957.7;;;;-0.18778232;1.4279901;0.22249225;;;;;;;;;;;;;;;
2050.0;1961.1;;;;;;;;;;;;;;;;;-30.47273;7.1985536;9.201331;;1851.7
2050.0;1961.1;;;;;;;;;;;;;;1.127781;-0.23267312;-0.1859798;;;;;1851.7
2050.0;1961.1;;;;;;;;;;;;;;;;;-31.311993;6.5424056;7.3053684;;1851.7
2050.0;1961.1;;;;;;;;;;;;;;1.1543322;-0.22046572;-0.18097477;;;;;1851.7
2050.0;1961.1;;;;;;;;;;;;;;;;;-31.380657;5.0660725;5.5238504;;1861.3
2050.0;1961.1;;;;;;;;;;;;;;1.1923581;-0.20892972;-0.18848231;;;;;1861.3
2050.0;1961.1;;;;;;;;;;;;;;;;;-31.105991;4.127629;3.7728508;;1861.3
2050.0;1961.1;;;;;;;;;;;;;;1.2375866;-0.19678335;-0.18659016;;;;;1861.3
2050.0;1961.1;;;;;;;;;;;;;;;;;-30.602434;3.7690358;1.7891476;;1871.0
2050.0;1961.1;;;;;;;;;;;;;;1.2834255;-0.17645802;-0.17322306;;;;;1871.0
2050.0;1961.1;;;;;;;;;;;;;;;;;-29.984434;3.646962;-0.34714803;;1871.0
2050.0;1961.1;;;;;;;;;;;;;;1.3061922;-0.16498306;-0.15784173;;;;;1871.0
2050.0;1960.8;262143;262143;12718;;;;;;;;;;;;;;;;;;
2051.0;1961.9;;;;;;;;;;;;;;;;;-29.255806;2.7886288;-3.0175178;;1880.7
2051.0;1961.9;;;;;;;;;;;;;;1.3218787;-0.15784173;-0.15204321;;;;;1880.7
2051.0;1961.9;;;;;;;;;;;;;;;;;-28.736992;1.781518;-6.084628;;1880.7
2051.0;1961.9;;;;;;;;;;;;;;1.3361614;-0.15552233;-0.15192114;;;;;1880.7
2051.0;1961.9;;;;;;;;;;;;;;;;;-28.622547;1.0757774;-9.42259;;1890.2
2051.0;1961.9;;;;;;;;;;;;;;1.3458053;-0.15082248;-0.1403241;;;;;1890.2
2051.0;1961.9;;;;;;;;;;;;;;;;;-28.267769;-0.30518508;-12.646107;;1890.2
2051.0;1961.9;;;;;;;;;;;;;;1.3530686;-0.14300974;-0.1274453;;;;;1890.2
2051.0;1961.9;;;;;;;;;;;;;;;;;-27.306437;-1.6975921;-15.549181;;1899.8
2051.0;1961.9;;;;;;;;;;;;;;1.3586841;-0.12323374;-0.12781152;;;;;1899.8
2051.0;1961.9;;;;;;;;;;;;;;;;;-25.04425;-2.7619252;-18.65444;;1899.8
2051.0;1961.9;;;;;;;;;;;;;;1.366863;-0.09350871;-0.13061923;;;;;1899.8
2051.0;1965.8;;;;;;;;;;13.473923;36.58025;-28.916288;;;;;;;;;
2051.0;1965.8;;;;;;;0.19690542;-1.109714;0.14526811;;;;;;;;;;;;
2051.0;1965.8;;;;;;;;;;14.507736;35.809654;-29.97299;;;;;;;;;
2051.0;1965.8;;;;;;;0.19220558;-1.1095309;0.1445967;;;;;;;;;;;;
2051.0;1966.4;;;;;;;;;;;;;-5443;;;;;;;;
2051.0;1966.4;;;;;;;;;;;;;-5720;;;;;;;;
2051.0;1966.4;;;;;;;;;;;;;-5589;;;;;;;;
2051.0;1966.4;;;;;;;;;;;;;-5023;;;;;;;;
2051.0;1966.4;;;;;;;;;;;;;-3994;;;;;;;;
2051.0;1967.6;;;;-0.18725206;1.4211999;0.22126773;;;;;;;;;;;;;;;
2051.0;1967.6;;;;-0.18695833;1.4129144;0.21976855;;;;;;;;;;;;;;;
2051.0;1967.6;;;;-0.18563844;1.4037019;0.21891025;;;;;;;;;;;;;;;
2051.0;1967.6;;;;-0.18508531;1.3935586;0.21709827;;;;;;;;;;;;;;;
2051.0;1967.6;;;;-0.18448259;1.3823854;0.21629336;;;;;;;;;;;;;;;
2101.0;1975.3;;;;;;;;;;15.442366;34.836876;-31.006805;;;;;;;;;
2101.0;1975.3;;;;;;;0.18671224;-1.1085544;0.14484085;;;;;;;;;;;;
2101.0;1975.3;;;;;;;;;;16.335033;33.61614;-31.95288;;;;;;;;;
2101.0;1975.3;;;;;;;0.18359935;-1.1042207;0.14441359;;;;;;;;;;;;
2101.0;1977.5;;;;-0.18391801;1.3703576;0.21549228;;;;;;;;;;;;;;;
2101.0;1977.5;;;;-0.18299104;1.357216;0.21568683;;;;;;;;;;;;;;;
2101.0;1977.5;;;;-0.1819153;1.3438951;0.2156525;;;;;;;;;;;;;;;
2101.0;1977.5;;;;-0.18097688;1.3294412;0.21694568;;;;;;;;;;;;;;;
2101.0;1977.5;;;;-0.18026353;1.3148996;0.21899036;;;;;;;;;;;;;;;
2101.0;1980.6;262143;262143;12727;;;;;;;;;;;;;;;;;;
2101.0;1984.8;;;;;;;;;;17.181921;32.0864;-32.876064;;;;;;;;;
2101.0;1984.8;;;;;;;0.17944884;-1.0960418;0.14539018;;;;;;;;;;;;
2101.0;1984.8;;;;;;;;;;17.914366;30.442213;-33.803066;;;;;;;;;
2101.0;1984.8;;;;;;;0.17383343;-1.0859096;0.14844203;;;;;;;;;;;;
2101.0;1987.6;;;;-0.17982484;1.2997819;0.22164157;;;;;;;;;;;;;;;
2101.0;1987.6;;;;-0.17869951;1.2842027;0.22412494;;;;;;;;;;;;;;;
2101.0;1987.6;;;;-0.17751695;1.268593;0.226738;;;;;;;;;;;;;;;
2101.0;1987.6;;;;-0.17590715;1.2528383;0.2288666;;;;;;;;;;;;;;;
2101.0;1987.6;;;;-0.17335512;1.2365304;0.2311478;;;;;;;;;;;;;;;
2101.0;1993.9;;;;;;;;;;18.673513;28.56151;-34.66521;;;;;;;;;
2101.0;1993.9;;;;;;;0.16974396;-1.0769372;0.15179907;;;;;;;;;;;;
2101.0;1993.9;;;;;;;;;;19.703512;26.451918;-35.74862;;;;;;;;;
2101.0;1993.9;;;;;;;0.16510513;-1.0697348;0.15698722;;;;;;;;;;;;
2163.0;1997.2;;;;-0.17016985;1.2195092;0.23315051;;;;;;;;;;;;;;;
2163.0;1997.2;;;;-0.16775133;1.2024118;0.2344971;;;;;;;;;;;;;;;
2163.0;1997.2;;;;-0.16585542;1.1846277;0.23601535;;;;;;;;;;;;;;;
2163.0;1997.2;;;;-0.16400148;1.1666833;0.23779681;;;;;;;;;;;;;;;
2163.0;1997.2;;;;-0.16215135;1.1481897;0.23926166;;;;;;;;;;;;;;;
2163.0;2000.4;262143;262143;12729;;;;;;;;;;;;;;;;;;
2163.0;2003.6;;;;;;;;;;20.813623;24.540697;-36.97699;;;;;;;;;
2163.0;2003.6;;;;;;;0.16235848;-1.0633869;0.15771966;;;;;;;;;;;;
2163.0;2003.6;;;;;;;;;;21.755882;22.949919;-38.354137;;;;;;;;;
2163.0;2003.6;;;;;;;0.16199225;-1.0580157;0.15704826;;;;;;;;;;;;
2163.0;2006.3;;;;;;;;;;;;;-2753;;;;;;;;
2163.0;2006.3;;;;;;;;;;;;;-1520;;;;;;;;
2163.0;2006.3;;;;;;;;;;;;;-695;;;;;;;;
2163.0;2006.3;;;;;;;;;;;;;-503;;;;;;;;
2163.0;2006.3;;;;;;;;;;;;;-279;;;;;;;;
2163.0;2007.3;;;;-0.16101457;1.1298982;0.24061587;;;;;;;;;;;;;;;
2163.0;2007.3;;;;-0.1599045;1.1114045;0.24106601;;;;;;;;;;;;;;;
2163.0;2007.3;;;;-0.15919115;1.0931512;0.2415047;;;;;;;;;;;;;;;
2163.0;2007.3;;;;-0.15838625;1.0749856;0.24121097;;;;;;;;;;;;;;;
2163.0;2007.3;;;;-0.15784074;1.0565683;0.24011996;;;;;;;;;;;;;;;
2163.0;2013.2;;;;;;;;;;22.70577;21.702477;-39.74273;;;;;;;;;
2163.0;2013.2;;;;;;;0.16211432;-1.0490433;0.15247047;;;;;;;;;;;;
2163.0;2013.2;;;;;;;;;;23.579363;20.435957;-40.974915;;;;;;;;;
2163.0;2013.2;;;;;;;0.164861;-1.0398266;0.15411848;;;;;;;;;;;;
2169.0;2017.5;;;;-0.1564522;1.038231;0.23894122;;;;;;;;;;;;;;;
2169.0;2017.5;;;;-0.15531541;1.0205728;0.23843768;;;;;;;;;;;;;;;
2169.0;2017.5;;;;-0.15400697;1.00346;0.23774722;;;;;;;;;;;;;;;
2169.0;2017.5;;;;-0.15286638;0.98695385;0.23794177;;;;;;;;;;;;;;;
2169.0;2017.5;;;;-0.15101625;0.9714471;0.23808292;;;;;;;;;;;;;;;
2169.0;2021.0;;;;;;;;;;;;;;;;;-21.588032;-2.7809992;-22.263252;;1909.4
2169.0;2021.0;;;;;;;;;;;;;;1.371868;-0.061342206;-0.13183996;;;;;1909.4
2169.0;2021.0;;;;;;;;;;;;;;;;;-17.052216;-2.2621846;-25.952177;;1909.4
2169.0;2021.0;;;;;;;;;;;;;;1.3715018;-0.039002657;-0.138493;;;;;1909.4
2169.0;2021.0;;;;;;;;;;;;;;;;;-12.10059;-0.46922207;-30.869473;;1919.1
2169.0;2021.0;;;;;;;;;;;;;;1.3528855;-0.010742515;-0.14978485;;;;;1919.1
2169.0;2021.0;;;;;;;;;;;;;;;;;-8.171331;1.5678884;-36.14536;;1919.1
2169.0;2021.0;;;;;;;;;;;;;;1.3459884;0.020325327;-0.1403241;;;;;1919.1
2169.0;2021.0;;;;;;;;;;;;;;;;;-4.4747763;2.4491103;-40.452282;;1928.7
2169.0;2021.0;;;;;;;;;;;;;;1.3413495;0.03155614;-0.14148381;;;;;1928.7
2169.0;2021.0;;;;;;;;;;;;;;;;;-0.5340739;5.9854426;-44.1641;;1928.7
2169.0;2021.0;;;;;;;;;;;;;;1.3171788;0.034730066;-0.13104647;;;;;1928.7
2169.0;2020.7;262143;262143;12725;;;;;;;;;;;;;;;;;;
2170.0;2021.6;;;;;;;;;;;;;;;;;2.8382213;10.826442;-48.986023;;1938.3
2170.0;2021.6;;;;;;;;;;;;;;1.2898953;0.04504532;-0.115421005;;;;;1938.3
2170.0;2021.6;;;;;;;;;;;;;;;;;5.287332;16.407515;-53.78506;;1938.3
2170.0;2021.6;;;;;;;;;;;;;;1.261269;0.05963317;-0.08587909;;;;;1938.3
2170.0;2021.6;;;;;;;;;;;;;;;;;6.7102575;20.851772;-58.18354;;1948.0
2170.0;2021.6;;;;;;;;;;;;;;1.2341075;0.073549606;-0.05749687;;;;;1948.0
2170.0;2021.6;;;;;;;;;;;;;;;;;6.878109;24.033327;-62.841423;;1948.0
2170.0;2021.6;;;;;;;;;;;;;;1.2092655;0.0827662;-0.04443495;;;;;1948.0
2170.0;2021.6;;;;;;;;;;;;;;;;;5.8061466;26.570177;-67.65954;;1957.7
2170.0;2021.6;;;;;;;;;;;;;;1.1886959;0.093691826;-0.042298656;;;;;1957.7
2170.0;2021.6;;;;;;;;;;;;;;;;;3.6660361;29.152807;-72.927795;;1957.7
2170.0;2021.6;;;;;;;;;;;;;;1.1725821;0.09424116;-0.043092135;;;;;1957.7
2170.0;2022.5;;;;;;;;;;24.456772;19.203773;-41.989655;;;;;;;;;
2170.0;2022.5;;;;;;;0.16864528;-1.030488;0.15247047;;;;;;;;;;;;
2170.0;2022.5;;;;;;;;;;25.196844;18.063143;-42.73736;;;;;;;;;
2170.0;2022.5;;;;;;;0.16980499;-1.025422;0.15247047;;;;;;;;;;;;
2170.0;2027.2;;;;-0.14911653;0.9560739;0.23728946;;;;;;;;;;;;;;;
2170.0;2027.2;;;;-0.1477852;0.9415475;0.23551181;;;;;;;;;;;;;;;
2170.0;2027.2;;;;-0.1467972;0.9276353;0.23435977;;;;;;;;;;;;;;;
2170.0;2027.2;;;;-0.14571382;0.91458905;0.23293689;;;;;;;;;;;;;;;
2170.0;2027.2;;;;-0.14473344;0.9027864;0.23173907;;;;;;;;;;;;;;;
2170.0;2032.1;;;;;;;;;;25.7004;17.155216;-43.33247;;;;;;;;;
2170.0;2032.1;;;;;;;0.17120884;-1.0182196;0.15259255;;;;;;;;;;;;
2170.0;2032.1;;;;;;;;;;26.123844;16.273996;-43.89325;;;;;;;;;
2170.0;2032.1;;;;;;;0.1716361;-1.0170598;0.14874722;;;;;;;;;;;;
2172.0;2037.3;;;;-0.14422609;0.8918878;0.23047641;;;;;;;;;;;;;;;
2172.0;2037.3;;;;-0.14455415;0.8820497;0.22937778;;;;;;;;;;;;;;;
2172.0;2037.3;;;;-0.14458086;0.87380993;0.22877505;;;;;;;;;;;;;;;
2172.0;2037.3;;;;-0.14441301;0.86655056;0.22800449;;;;;;;;;;;;;;;
2172.0;2037.3;;;;-0.14484407;0.8602487;0.22713092;;;;;;;;;;;;;;;
2172.0;2040.6;262143;262143;12728;;;;;;;;;;;;;;;;;;
2172.0;2041.7;;;;;;;;;;26.657919;15.13718;-44.457836;;;;;;;;;
2172.0;2041.7;;;;;;;0.16962187;-1.0125431;0.1474044;;;;;;;;;;;;
2172.0;2041.7;;;;;;;;;;27.256845;13.725699;-45.00717;;;;;;;;;
2172.0;2041.7;;;;;;;0.16657002;-1.0086977;0.14783166;;;;;;;;;;;;
2172.0;2046.4;;;;;;;;;;;;;421;;;;;;;;
2172.0;2046.4;;;;;;;;;;;;;990;;;;;;;;
2172.0;2046.4;;;;;;;;;;;;;1051;;;;;;;;
2172.0;2046.4;;;;;;;;;;;;;725;;;;;;;;
2172.0;2046.4;;;;;;;;;;;;;252;;;;;;;;
2172.0;2047.4;;;;-0.14511491;0.85486615;0.22642902;;;;;;;;;;;;;;;
2172.0;2047.4;;;;-0.14499666;0.85094845;0.22529605;;;;;;;;;;;;;;;
2172.0;2047.4;;;;-0.1448784;0.8474275;0.22439197;;;;;;;;;;;;;;;
2172.0;2047.4;;;;-0.14411165;0.8448068;0.22300723;;;;;;;;;;;;;;;
2172.0;2047.4;;;;-0.14311601;0.84388363;0.2225571;;;;;;;;;;;;;;;
2172.0;2051.1;;;;;;;;;;27.817621;12.333293;-45.48021;;;;;;;;;
2172.0;2051.1;;;;;;;0.16278572;-1.0059512;0.14746544;;;;;;;;;;;;
2172.0;2051.1;;;;;;;;;;28.187658;11.375774;-46.014282;;;;;;;;;
2172.0;2051.1;;;;;;;0.16180913;-0.9985656;0.14545122;;;;;;;;;;;;
2173.0;2057.3;;;;-0.14154436;0.84365094;0.22252658;;;;;;;;;;;;;;;
2173.0;2057.3;;;;-0.13987352;0.8447038;0.22162631;;;;;;;;;;;;;;;
2173.0;2057.3;;;;-0.13865282;0.8462602;0.22046283;;;;;;;;;;;;;;;
2173.0;2057.3;;;;-0.13730623;0.84912884;0.2188988;;;;;;;;;;;;;;;
2173.0;2057.3;;;;-0.13605501;0.852913;0.21864703;;;;;;;;;;;;;;;
2173.0;2060.7;;;;;;;;;;28.366955;10.544146;-46.521652;;;;;;;;;
2173.0;2060.7;;;;;;;0.16821803;-0.99588;0.1441084;;;;;;;;;;;;
2173.0;2060.7;;;;;;;;;;28.393658;10.021515;-46.811577;;;;;;;;;
2173.0;2060.7;;;;;;;0.17456588;-0.99288917;0.1441084;;;;;;;;;;;;
2173.0;2060.6;262143;262143;12729;;;;;;;;;;;;;;;;;;
2173.0;2067.4;;;;-0.1344948;0.85743344;0.2184296;;;;;;;;;;;;;;;
2173.0;2067.4;;;;-0.13314058;0.8627664;0.21796802;;;;;;;;;;;;;;;
2173.0;2067.4;;;;-0.13219072;0.868744;0.21852878;;;;;;;;;;;;;;;
2173.0;2067.4;;;;-0.13204958;0.8751489;0.2187157;;;;;;;;;;;;;;;
2173.0;2067.4;;;;-0.13155366;0.8825227;0.2186661;;;;;;;;;;;;;;;
2173.0;2070.3;;;;;;;;;;28.317362;9.80407;-46.906948;;;;;;;;;
2173.0;2070.3;;;;;;;0.18298899;-0.9873959;0.14514603;;;;;;;;;;;;
2173.0;2070.3;;;;;;;;;;28.393658;9.727776;-46.78106;;;;;;;;;
2173.0;2070.3;;;;;;;0.1897641;-0.984344;0.14880826;;;;;;;;;;;;
2174.0;2077.5;;;;-0.1313286;0.8896829;0.21846011;;;;;;;;;;;;;;;
2174.0;2077.5;;;;-0.13068773;0.89667904;0.21884921;;;;;;;;;;;;;;;
2174.0;2077.5;;;;-0.13030626;0.9040452;0.21828082;;;;;;;;;;;;;;;
2174.0;2077.5;;;;-0.1292534;0.9105798;0.2169762;;;;;;;;;;;;;;;
2174.0;2077.5;;;;-0.12837984;0.91698086;0.21555713;;;;;;;;;;;;;;;
2174.0;2080.0;;;;;;;;;;28.435621;9.746849;-46.517838;;;;;;;;;
2174.0;2080.0;;;;;;;0.19330424;-0.98080385;0.1523484;;;;;;;;;;;;
2174.0;2080.0;;;;;;;;;;28.565325;9.994812;-46.15543;;;;;;;;;
2174.0;2080.0;;;;;;;0.19183935;-0.97561574;0.15405744;;;;;;;;;;;;
2174.0;2080.9;262143;262143;12726;;;;;;;;;;;;;;;;;;
2174.0;2082.0;;;;;;;;;;;;;;;;;0.98803675;31.250954;-78.638565;;1967.3
2174.0;2082.0;;;;;;;;;;;;;;1.1548204;0.094058044;-0.044801172;;;;;1967.3
2174.0;2082.0;;;;;;;;;;;;;;;;;-1.4267403;32.361065;-85.3412;;1967.3
2174.0;2082.0;;;;;;;;;;;;;;1.1489608;0.10431226;-0.05206458;;;;;1967.3
2174.0;2082.0;;;;;;;;;;;;;;;;;-1.5221107;33.5284;-93.07382;;1977.0
2174.0;2082.0;;;;;;;;;;;;;;1.1282083;0.11938841;-0.06933805;;;;;1977.0
2174.0;2082.0;;;;;;;;;;;;;;;;;4.3565173;29.725029;-102.24845;;1977.0
2174.0;2082.0;;;;;;;;;;;;;;1.0882291;0.14947966;-0.15588854;;;;;1977.0
2174.0;2082.0;;;;;;;;;;;;;;;;;11.650441;24.311808;-110.04593;;1986.6
2174.0;2082.0;;;;;;;;;;;;;;1.0509964;0.13678396;-0.23078097;;;;;1986.6
2174.0;2082.0;;;;;;;;;;;;;;;;;15.75518;19.86755;-117.671745;;1986.6
2174.0;2082.0;;;;;;;;;;;;;;1.084872;0.13885921;-0.23645741;;;;;1986.6
2179.0;2082.8;;;;;;;;;;;;;;;;;16.834774;24.323254;-123.60759;;1996.0
2179.0;2082.8;;;;;;;;;;;;;;1.1758782;0.12903225;-0.15027314;;;;;1996.0
2179.0;2082.8;;;;;;;;;;;;;;;;;19.711142;39.422283;-124.988556;;1996.0
2179.0;2082.8;;;;;;;;;;;;;;1.1957152;0.12512589;0.0015869625;;;;;1996.0
2179.0;2082.8;;;;;;;;;;;;;;;;;28.881954;42.844173;-124.988556;;2005.7
2179.0;2082.8;;;;;;;;;;;;;;1.1151463;0.16327402;0.08239998;;;;;2005.7
2179.0;2082.8;;;;;;;;;;;;;;;;;42.203285;24.323254;-124.988556;;2005.7
2179.0;2082.8;;;;;;;;;;;;;;1.1151463;0.19281594;0.0015869625;;;;;2005.7
2179.0;2082.8;;;;;;;;;;;;;;;;;55.6238;-5.451369;-124.988556;;2015.3
2179.0;2082.8;;;;;;;;;;;;;;1.2223274;0.2196112;-0.19598986;;;;;2015.3
2179.0;2082.8;;;;;;;;;;;;;;;;;61.826683;-26.150547;-124.988556;;2015.3
2179.0;2082.8;;;;;;;;;;;;;;1.2936796;0.2156438;-0.38099307;;;;;2015.3
2179.0;2086.6;;;;;;;;;;;;;-32;;;;;;;;
2179.0;2086.6;;;;;;;;;;;;;-107;;;;;;;;
2179.0;2086.6;;;;;;;;;;;;;-98;;;;;;;;
2179.0;2086.6;;;;;;;;;;;;;148;;;;;;;;
2179.0;2086.6;;;;;;;;;;;;;566;;;;;;;;
2179.0;2087.5;;;;-0.12687303;0.9222299;0.21416095;;;;;;;;;;;;;;;
2179.0;2087.5;;;;-0.12565996;0.9273454;0.21306613;;;;;;;;;;;;;;;
2179.0;2087.5;;;;-0.124504104;0.931759;0.2111359;;;;;;;;;;;;;;;
2179.0;2087.5;;;;-0.122783676;0.935608;0.20892337;;;;;;;;;;;;;;;
2179.0;2087.5;;;;-0.121784225;0.93856823;0.20642856;;;;;;;;;;;;;;;
2179.0;2089.4;;;;;;;;;;28.546251;10.422071;-45.834984;;;;;;;;;
2179.0;2089.4;;;;;;;0.18982513;-0.9691458;0.15478988;;;;;;;;;;;;
2179.0;2089.4;;;;;;;;;;28.496658;10.914183;-45.5298;;;;;;;;;
2179.0;2089.4;;;;;;;0.18659016;-0.96188235;0.15387432;;;;;;;;;;;;
2182.0;2096.1;;;;;;;;;;;;;;;;;60.762352;-33.43303;-124.988556;;2025.0
2182.0;2096.1;;;;;;;;;;;;;;1.3953673;0.17743461;-0.4453261;;;;;2025.0
2182.0;2096.1;;;;;;;;;;;;;;;;;62.29209;-42.69158;-124.988556;;2025.0
2182.0;2096.1;;;;;;;;;;;;;;1.6411023;0.10681479;-0.47987303;;;;;2025.0
2182.0;2096.1;;;;;;;;;;;;;;;;;66.03824;-49.764244;-124.988556;;2034.6
2182.0;2096.1;;;;;;;;;;;;;;1.8878139;-0.012756737;-0.48414564;;;;;2034.6
2182.0;2096.1;;;;;;;;;;;;;;;;;58.23313;-47.10532;-124.988556;;2034.6
2182.0;2096.1;;;;;;;;;;;;;;1.9050264;-0.13464767;-0.4892117;;;;;2034.6
2182.0;2096.1;;;;;;;;;;;;;;;;;35.57695;-24.681845;-124.988556;;2044.2
2182.0;2096.1;;;;;;;;;;;;;;1.7095249;-0.2066103;-0.44380015;;;;;2044.2
2182.0;2096.1;;;;;;;;;;;;;;;;;9.575183;9.681997;-124.988556;;2044.2
2182.0;2096.1;;;;;;;;;;;;;;1.4852138;-0.25684378;-0.2362743;;;;;2044.2
2182.0;2097.4;;;;-0.120288864;0.9414407;0.20320132;;;;;;;;;;;;;;;
2182.0;2097.4;;;;-0.11829759;0.94378674;0.20072177;;;;;;;;;;;;;;;
2182.0;2097.4;;;;-0.11566545;0.94573987;0.19686893;;;;;;;;;;;;;;;
2182.0;2097.4;;;;-0.1136017;0.94775784;0.19265369;;;;;;;;;;;;;;;
2182.0;2097.4;;;;-0.11097337;0.94916546;0.18828586;;;;;;;;;;;;;;;
2182.0;2098.9;;;;;;;;;;28.416548;11.303292;-45.33143;;;;;;;;;
2182.0;2098.9;;;;;;;0.18378246;-0.95419174;0.15222633;;;;;;;;;;;;
2182.0;2098.9;;;;;;;;;;28.225805;11.68096;-45.04532;;;;;;;;;
2182.0;2098.9;;;;;;;0.17914365;-0.94766074;0.15045625;;;;;;;;;;;;
2182.0;2100.8;262143;262143;12730;;;;;;;;;;;;;;;;;;
2222.0;2107.4;;;;-0.10870363;0.95092785;0.18416978;;;;;;;;;;;;;;;
2222.0;2107.4;;;;-0.106216446;0.9525491;0.17928697;;;;;;;;;;;;;;;
2222.0;2107.4;;;;-0.10316469;0.954178;0.17424394;;;;;;;;;;;;;;;
2222.0;2107.4;;;;-0.10011293;0.9557954;0.17023851;;;;;;;;;;;;;;;
2222.0;2107.4;;;;-0.09693147;0.9578439;0.16585542;;;;;;;;;;;;;;;
2222.0;2108.5;;;;;;;;;;27.95114;12.043367;-44.81643;;;;;;;;;
2222.0;2108.5;;;;;;;0.17767876;-0.9402142;0.15082248;;;;;;;;;;;;
2222.0;2108.5;;;;;;;;;;27.51625;24807;-44.434948;;;;;;;;;
2222.0;2108.5;;;;;;;0.17896055;-0.93459886;0.14935759;;;;;;;;;;;;
2222.0;2117.3;;;;-0.09334565;0.95962155;0.16160585;;;;;;;;;;;;;;;
2222.0;2117.3;;;;-0.08983231;0.96187603;0.15891649;;;;;;;;;;;;;;;
2222.0;2117.3;;;;-0.08664704;0.9635507;0.15563203;;;;;;;;;;;;;;;
2222.0;2117.3;;;;-0.08343888;0.96497357;0.15184404;;;;;;;;;;;;;;;
2222.0;2117.3;;;;-0.080162056;0.9664537;0.14857484;;;;;;;;;;;;;;;
2222.0;2117.9;;;;;;;;;;27.054659;12.859736;-43.805508;;;;;;;;;
2222.0;2117.9;;;;;;;0.18060854;-0.93649095;0.1478927;;;;;;;;;;;;
2222.0;2117.9;;;;;;;;;;26.593067;13.397626;-43.107395;;;;;;;;;
2222.0;2117.9;;;;;;;0.18445387;-0.93478197;0.14844203;;;;;;;;;;;;
2222.0;2120.7;262143;262143;12731;;;;;;;;;;;;;;;;;;
2222.0;2126.5;;;;;;;;;;;;;860;;;;;;;;
2222.0;2126.5;;;;;;;;;;;;;1012;;;;;;;;
2222.0;2126.5;;;;;;;;;;;;;1036;;;;;;;;
2222.0;2126.5;;;;;;;;;;;;;772;;;;;;;;
2222.0;2126.5;;;;;;;;;;;;;744;;;;;;;;
2224.0;2127.3;;;;-0.07711411;0.9674226;0.14629366;;;;;;;;;;;;;;;
2224.0;2127.3;;;;-0.07405854;0.9680253;0.1438408;;;;;;;;;;;;;;;
2224.0;2127.3;;;;-0.07120515;0.96855557;0.1421509;;;;;;;;;;;;;;;
2224.0;2127.3;;;;-0.06785203;0.9679986;0.14031221;;;;;;;;;;;;;;;
2224.0;2127.3;;;;-0.06471253;0.9673654;0.13784792;;;;;;;;;;;;;;;
2224.0;2127.4;;;;;;;;;;26.058992;14.007996;-42.260506;;;;;;;;;
2224.0;2127.4;;;;;;;0.18396558;-0.93459886;0.1480758;;;;;;;;;;;;
2224.0;2127.4;;;;;;;;;;25.540176;14.62981;-41.287727;;;;;;;;;
2224.0;2127.4;;;;;;;0.1850032;-0.93453777;0.14874722;;;;;;;;;;;;
2224.0;2137.0;;;;;;;;;;24.933622;15.213477;-40.082245;;;;;;;;;
2224.0;2137.0;;;;;;;0.1853084;-0.9326457;0.14532915;;;;;;;;;;;;
2224.0;2137.0;;;;;;;;;;24.285105;15.686514;-38.796658;;;;;;;;;
2224.0;2137.0;;;;;;;0.18298899;-0.9312418;0.14490189;;;;;;;;;;;;
2224.0;2137.5;;;;-0.06204606;0.9658929;0.13604356;;;;;;;;;;;;;;;
2224.0;2137.5;;;;-0.058826454;0.9644853;0.13335039;;;;;;;;;;;;;;;
2224.0;2137.5;;;;-0.056114204;0.96200573;0.13140489;;;;;;;;;;;;;;;
2224.0;2137.5;;;;-0.053245552;0.95928586;0.12978365;;;;;;;;;;;;;;;
2224.0;2137.5;;;;-0.05097962;0.9562875;0.12810518;;;;;;;;;;;;;;;
2225.0;2141.2;;;;;;;;;;;;;;;;;-7.229072;27.081364;-124.988556;;2053.9
2225.0;2141.2;;;;;;;;;;;;;;1.3697318;-0.31562242;-0.025330363;;;;;2053.9
2225.0;2141.2;;;;;;;;;;;;;;;;;-9.960478;23.804438;-124.988556;;2053.9
2225.0;2141.2;;;;;;;;;;;;;;1.332194;-0.31678212;0.019226661;;;;;2053.9
2225.0;2141.2;;;;;;;;;;;;;;;;;-8.072146;18.086031;-124.988556;;2063.5
2225.0;2141.2;;;;;;;;;;;;;;1.3003327;-0.2883999;-0.022705771;;;;;2063.5
2225.0;2141.2;;;;;;;;;;;;;;;;;-7.927183;18.047884;-124.988556;;2063.5
2225.0;2141.2;;;;;;;;;;;;;;1.261269;-0.2563555;-0.06390576;;;;;2063.5
2225.0;2141.2;;;;;;;;;;;;;;;;;-7.7135534;21.828365;-124.988556;;2073.2
2225.0;2141.2;;;;;;;;;;;;;;1.2286142;-0.17664114;-0.058656577;;;;;2073.2
2225.0;2141.2;;;;;;;;;;;;;;;;;-8.568071;24.09055;-124.988556;;2073.2
2225.0;2141.2;;;;;;;;;;;;;;1.2623066;-0.14514603;-0.081362344;;;;;2073.2
2225.0;2141.0;262143;262143;12728;;;;;;;;;;;;;;;;;;
2225.0;2146.5;;;;;;;;;;23.66329;16.129032;-37.488174;;;;;;;;;
2225.0;2146.5;;;;;;;0.18488114;-0.92953277;0.14612262;;;;;;;;;;;;
2225.0;2146.5;;;;;;;;;;22.953733;16.605885;-36.107212;;;;;;;;;
2225.0;2146.5;;;;;;;0.18305002;-0.928312;0.14600055;;;;;;;;;;;;
2225.0;2147.4;;;;-0.04841996;0.95286953;0.12683488;;;;;;;;;;;;;;;
2225.0;2147.4;;;;-0.045948032;0.94921505;0.12575914;;;;;;;;;;;;;;;
2225.0;2147.4;;;;-0.043937687;0.9453851;0.124423996;;;;;;;;;;;;;;;
2225.0;2147.4;;;;-0.0423317;0.9409181;0.12339403;;;;;;;;;;;;;;;
2225.0;2147.4;;;;-0.041088108;0.9364511;0.12313081;;;;;;;;;;;;;;;
2227.0;2156.1;;;;;;;;;;22.240362;16.9187;-34.69573;;;;;;;;;
2227.0;2156.1;;;;;;;0.18335521;-0.9263588;0.14465773;;;;;;;;;;;;
2227.0;2156.1;;;;;;;;;;21.504105;17.059847;-33.223213;;;;;;;;;
2227.0;2156.1;;;;;;;0.18005921;-0.923307;0.14221625;;;;;;;;;;;;
2227.0;2156.6;;;;;;;;;;;;;;;;;-7.89285;27.874844;-124.767296;;2082.8
2227.0;2156.6;;;;;;;;;;;;;;1.2917875;-0.15778069;-0.09039582;;;;;2082.8
2227.0;2156.6;;;;;;;;;;;;;;;;;-9.224219;31.84225;-124.84359;;2082.8
2227.0;2156.6;;;;;;;;;;;;;;1.3013092;-0.16071047;-0.11792352;;;;;2082.8
2227.0;2156.6;;;;;;;;;;;;;;;;;-16.121403;36.332287;-124.988556;;2092.4
2227.0;2156.6;;;;;;;;;;;;;;1.3087558;-0.122989595;-0.15143284;;;;;2092.4
2227.0;2156.6;;;;;;;;;;;;;;;;;-26.684622;40.753654;-124.988556;;2092.4
2227.0;2156.6;;;;;;;;;;;;;;1.279458;-0.10559405;-0.1859798;;;;;2092.4
2227.0;2156.6;;;;;;;;;;;;;;;;;-33.66192;41.447952;-124.988556;;2102.0
2227.0;2156.6;;;;;;;;;;;;;;1.2009643;-0.083803825;-0.18243966;;;;;2102.0
2227.0;2156.6;;;;;;;;;;;;;;;;;-39.16669;33.82214;-124.988556;;2102.0
2227.0;2156.6;;;;;;;;;;;;;;1.1484115;-0.04626606;-0.21246986;;;;;2102.0
2227.0;2157.3;;;;-0.039909367;0.93182385;0.123691574;;;;;;;;;;;;;;;
2227.0;2157.3;;;;-0.03911591;0.92686856;0.124561325;;;;;;;;;;;;;;;
2227.0;2157.3;;;;-0.038444523;0.92224896;0.12503816;;;;;;;;;;;;;;;
2227.0;2157.3;;;;-0.03749085;0.9173471;0.12606432;;;;;;;;;;;;;;;
2227.0;2157.3;;;;-0.036571506;0.9115373;0.12664796;;;;;;;;;;;;;;;
2227.0;2160.9;262143;262143;12734;;;;;;;;;;;;;;;;;;
2281.0;2165.5;;;;;;;;;;20.737328;17.117067;-31.727806;;;;;;;;;
2281.0;2165.5;;;;;;;0.1788995;-0.9189734;0.13861507;;;;;;;;;;;;
2281.0;2165.5;;;;;;;;;;19.940031;17.052216;-30.114138;;;;;;;;;
2281.0;2165.5;;;;;;;0.17688528;-0.9158605;0.13599049;;;;;;;;;;;;
2281.0;2166.7;;;;;;;;;;;;;1608;;;;;;;;
2281.0;2166.7;;;;;;;;;;;;;2803;;;;;;;;
2281.0;2166.7;;;;;;;;;;;;;3300;;;;;;;;
2281.0;2166.7;;;;;;;;;;;;;2844;;;;;;;;
2281.0;2166.7;;;;;;;;;;;;;2000;;;;;;;;
2281.0;2167.4;;;;-0.036033634;0.90586865;0.12763979;;;;;;;;;;;;;;;
2281.0;2167.4;;;;-0.03557587;0.90093625;0.1282921;;;;;;;;;;;;;;;
2281.0;2167.4;;;;-0.035434727;0.89595807;0.12985994;;;;;;;;;;;;;;;
2281.0;2167.4;;;;-0.03541184;0.8904191;0.13110353;;;;;;;;;;;;;;;
2281.0;2167.4;;;;-0.035961155;0.88543713;0.13245775;;;;;;;;;;;;;;;
2281.0;2174.7;;;;;;;;;;19.104588;16.945402;-28.427992;;;;;;;;;
2281.0;2174.7;;;;;;;0.17554247;-0.91152686;0.13257241;;;;;;;;;;;;
2281.0;2174.7;;;;;;;;;;18.326365;16.727959;-26.734215;;;;;;;;;
2281.0;2174.7;;;;;;;0.17371136;-0.9051179;0.12836085;;;;;;;;;;;;
2281.0;2177.0;;;;-0.036823276;0.8809091;0.13479997;;;;;;;;;;;;;;;
2281.0;2177.0;;;;-0.03760529;0.87625897;0.13735963;;;;;;;;;;;;;;;
2281.0;2177.0;;;;-0.03867722;0.8720857;0.14056398;;;;;;;;;;;;;;;
2281.0;2177.0;;;;-0.03971863;0.8679544;0.14423372;;;;;;;;;;;;;;;
2281.0;2177.0;;;;-0.040729526;0.86413205;0.14757158;;;;;;;;;;;;;;;
2281.0;2180.7;262143;262143;12729;;;;;;;;;;;;;;;;;;
2284.0;2184.3;;;;;;;;;;17.368847;16.434217;-25.0824;;;;;;;;;
2284.0;2184.3;;;;;;;0.17218544;-0.89785457;0.12390515;;;;;;;;;;;;
2284.0;2184.3;;;;;;;;;;16.460922;16.033663;-23.403881;;;;;;;;;
2284.0;2184.3;;;;;;;0.16956083;-0.8943144;0.12274545;;;;;;;;;;;;
2284.0;2187.2;;;;-0.042171482;0.86047375;0.15075685;;;;;;;;;;;;;;;
2284.0;2187.2;;;;-0.043701176;0.8571855;0.15405275;;;;;;;;;;;;;;;
2284.0;2187.2;;;;-0.04489136;0.8535348;0.15708162;;;;;;;;;;;;;;;
2284.0;2187.2;;;;-0.046169285;0.84986126;0.15993883;;;;;;;;;;;;;;;
2284.0;2187.2;;;;-0.04816819;0.84643567;0.16342165;;;;;;;;;;;;;;;
2284.0;2193.9;;;;;;;;;;15.587329;15.533921;-21.725365;;;;;;;;;
2284.0;2193.9;;;;;;;0.16986603;-0.8916288;0.11841182;;;;;;;;;;;;
2284.0;2193.9;;;;;;;;;;14.54207;15.087587;-20.020142;;;;;;;;;
2284.0;2193.9;;;;;;;0.16821803;-0.88613546;0.11694693;;;;;;;;;;;;
2284.0;2197.3;;;;-0.04965592;0.8424188;0.16711046;;;;;;;;;;;;;;;
2284.0;2197.3;;;;-0.05163575;0.83841336;0.17042543;;;;;;;;;;;;;;;
2284.0;2197.3;;;;-0.05470658;0.8339807;0.17370607;;;;;;;;;;;;;;;
2284.0;2197.3;;;;-0.057624824;0.82906735;0.17749788;;;;;;;;;;;;;;;
2284.0;2197.3;;;;-0.06082917;0.8243829;0.18088533;;;;;;;;;;;;;;;
2286.0;2201.2;;;;;;;;;;;;;;;;;-44.34339;22.835474;-124.988556;;2111.7
2286.0;2201.2;;;;;;;;;;;;;;1.1439558;-0.03723258;-0.21875668;;;;;2111.7
2286.0;2201.2;;;;;;;;;;;;;;;;;-49.550613;11.368145;-124.988556;;2111.7
2286.0;2201.2;;;;;;;;;;;;;;1.1957762;-0.027466659;-0.21442305;;;;;2111.7
2286.0;2201.2;;;;;;;;;;;;;;;;;-52.95343;7.511368;-124.988556;;2121.4
2286.0;2201.2;;;;;;;;;;;;;;1.2040772;-0.042176582;-0.17072055;;;;;2121.4
2286.0;2201.2;;;;;;;;;;;;;;;;;-52.91528;7.065035;-124.988556;;2121.4
2286.0;2201.2;;;;;;;;;;;;;;1.2121952;-0.032593768;-0.0971099;;;;;2121.4
2286.0;2201.2;;;;;;;;;;;;;;;;;-50.54628;7.194739;-124.988556;;2131.1
2286.0;2201.2;;;;;;;;;;;;;;1.2391735;-0.048219245;-0.02948088;;;;;2131.1
2286.0;2201.2;;;;;;;;;;;;;;;;;-46.304207;9.601887;-124.988556;;2131.1
2286.0;2201.2;;;;;;;;;;;;;;1.241432;-0.112125;0.03112888;;;;;2131.1
2286.0;2200.9;262143;262143;12727;;;;;;;;;;;;;;;;;;
2286.0;2203.4;;;;;;;;;;13.5883665;14.622181;-18.360699;;;;;;;;;
2286.0;2203.4;;;;;;;0.16919462;-0.88174075;0.115848266;;;;;;;;;;;;
2286.0;2203.4;;;;;;;;;;12.550736;14.156774;-16.827145;;;;;;;;;
2286.0;2203.4;;;;;;;0.1699881;-0.8793603;0.11481063;;;;;;;;;;;;
2286.0;2206.6;;;;;;;;;;;;;1481;;;;;;;;
2286.0;2206.6;;;;;;;;;;;;;1465;;;;;;;;
2286.0;2206.6;;;;;;;;;;;;;1729;;;;;;;;
2286.0;2206.6;;;;;;;;;;;;;2054;;;;;;;;
2286.0;2206.6;;;;;;;;;;;;;2220;;;;;;;;
2287.0;2207.2;;;;-0.06343079;0.8195573;0.18458177;;;;;;;;;;;;;;;
2287.0;2207.2;;;;-0.066688545;0.8142396;0.18681337;;;;;;;;;;;;;;;
2287.0;2207.2;;;;-0.06974793;0.8091012;0.18950656;;;;;;;;;;;;;;;
2287.0;2207.2;;;;-0.07372285;0.80334103;0.19191363;;;;;;;;;;;;;;;
2287.0;2207.2;;;;-0.07715226;0.79745114;0.19385532;;;;;;;;;;;;;;;
2287.0;2213.0;;;;;;;;;;11.505478;13.657034;-15.297402;;;;;;;;;
2287.0;2213.0;;;;;;;0.17188025;-0.8752098;0.1180456;;;;;;;;;;;;
2287.0;2213.0;;;;;;;;;;10.559404;13.30607;-13.714254;;;;;;;;;
2287.0;2213.0;;;;;;;0.17053743;-0.87051;0.119449444;;;;;;;;;;;;
2287.0;2216.2;;;;;;;;;;;;;;;;;-39.3498;13.309885;-124.988556;;2140.7
2287.0;2216.2;;;;;;;;;;;;;;1.1974853;-0.19788201;0.099612415;;;;;2140.7
2287.0;2216.2;;;;;;;;;;;;;;;;;-33.02103;14.873959;-124.988556;;2140.7
2287.0;2216.2;;;;;;;;;;;;;;1.1959593;-0.15320292;0.13977477;;;;;2140.7
2287.0;2216.2;;;;;;;;;;;;;;;;;-29.019287;16.97592;-124.988556;;2150.4
2287.0;2216.2;;;;;;;;;;;;;;1.1872311;-0.12952055;0.11517686;;;;;2150.4
2287.0;2216.2;;;;;;;;;;;;;;;;;-28.595844;20.901363;-124.988556;;2150.4
2287.0;2216.2;;;;;;;;;;;;;;1.1478622;-0.14252144;0.060365614;;;;;2150.4
2287.0;2216.2;;;;;;;;;;;;;;;;;-31.395916;23.953215;-124.988556;;2160.1
2287.0;2216.2;;;;;;;;;;;;;;1.1313212;-0.10974456;-0.029114658;;;;;2160.1
2287.0;2216.2;;;;;;;;;;;;;;;;;-34.176914;26.64266;-124.988556;;2160.1
2287.0;2216.2;;;;;;;;;;;;;;1.1057466;-0.10266427;-0.09387494;;;;;2160.1
2344.0;2217.1;;;;-0.08097459;0.79197323;0.19588092;;;;;;;;;;;;;;;
2344.0;2217.1;;;;-0.08453751;0.78626263;0.19785312;;;;;;;;;;;;;;;
2344.0;2217.1;;;;-0.087867744;0.78073895;0.19891742;;;;;;;;;;;;;;;
2344.0;2217.1;;;;-0.0910492;0.7752;0.20080951;;;;;;;;;;;;;;;
2344.0;2217.1;;;;-0.094162;0.7698556;0.20224002;;;;;;;;;;;;;;;
2344.0;2220.9;262143;262143;12734;;;;;;;;;;;;;;;;;;
2344.0;2222.4;;;;;;;;;;9.590442;12.993256;-12.253182;;;;;;;;;
2344.0;2222.4;;;;;;;0.17175817;-0.86574906;0.123416856;;;;;;;;;;;;
2344.0;2222.4;;;;;;;;;;8.648182;12.691885;-10.757775;;;;;;;;;
2344.0;2222.4;;;;;;;0.17157505;-0.8597064;0.12543108;;;;;;;;;;;;
2344.0;2227.2;;;;-0.09655763;0.7648126;0.20373157;;;;;;;;;;;;;;;
2344.0;2227.2;;;;-0.09975435;0.75930035;0.20483401;;;;;;;;;;;;;;;
2344.0;2227.2;;;;-0.10326387;0.7536775;0.20540622;;;;;;;;;;;;;;;
2344.0;2227.2;;;;-0.10694887;0.74802786;0.20567706;;;;;;;;;;;;;;;
2344.0;2227.2;;;;-0.11034013;0.7424317;0.20573047;;;;;;;;;;;;;;;
2344.0;2232.0;;;;;;;;;;7.7326274;24807;-9.380627;;;;;;;;;
2344.0;2232.0;;;;;;;0.1723075;-0.8544572;0.12891018;;;;;;;;;;;;
2344.0;2232.0;;;;;;;;;;6.859035;11.947997;-8.049257;;;;;;;;;
2344.0;2232.0;;;;;;;0.17242958;-0.8532365;0.130253;;;;;;;;;;;;
2348.0;2237.2;;;;-0.113899246;0.73683935;0.2057114;;;;;;;;;;;;;;;
2348.0;2237.2;;;;-0.11746599;0.7315789;0.20474628;;;;;;;;;;;;;;;
2348.0;2237.2;;;;-0.12070848;0.7265435;0.20523837;;;;;;;;;;;;;;;
2348.0;2237.2;;;;-0.12377931;0.72077566;0.2055588;;;;;;;;;;;;;;;
2348.0;2237.2;;;;-0.12662126;0.7159882;0.20533374;;;;;;;;;;;;;;;
2348.0;2241.0;262143;262143;12738;;;;;;;;;;;;;;;;;;
2348.0;2241.5;;;;;;;;;;5.94348;11.520738;-6.733146;;;;;;;;;
2348.0;2241.5;;;;;;;0.1699881;-0.8500015;0.13318278;;;;;;;;;;;;
2348.0;2241.5;;;;;;;;;;5.058443;11.009553;-5.4704432;;;;;;;;;
2348.0;2241.5;;;;;;;0.17102572;-0.8496353;0.13287759;;;;;;;;;;;;
2348.0;2246.7;;;;;;;;;;;;;2047;;;;;;;;
2348.0;2246.7;;;;;;;;;;;;;1741;;;;;;;;
2348.0;2246.7;;;;;;;;;;;;;1670;;;;;;;;
2348.0;2246.7;;;;;;;;;;;;;1704;;;;;;;;
2348.0;2246.7;;;;;;;;;;;;;1617;;;;;;;;
2348.0;2247.3;;;;-0.12941743;0.7111016;0.2058945;;;;;;;;;;;;;;;
2348.0;2247.3;;;;-0.13201524;0.70656973;0.20705035;;;;;;;;;;;;;;;
2348.0;2247.3;;;;-0.13386537;0.70252234;0.20797732;;;;;;;;;;;;;;;
2348.0;2247.3;;;;-0.13623811;0.69940954;0.20894244;;;;;;;;;;;;;;;
2348.0;2247.3;;;;-0.13801576;0.6955796;0.209919;;;;;;;;;;;;;;;
2348.0;2251.2;;;;;;;;;;4.2649617;10.769219;-4.3107395;;;;;;;;;
2348.0;2251.2;;;;;;;0.17297891;-0.85042876;0.1314127;;;;;;;;;;;;
2348.0;2251.2;;;;;;;;;;3.295999;10.521256;-3.234962;;;;;;;;;
2348.0;2251.2;;;;;;;0.17523728;-0.8534196;0.13098544;;;;;;;;;;;;
2350.0;2257.4;;;;-0.13963701;0.69284445;0.21067432;;;;;;;;;;;;;;;
2350.0;2257.4;;;;-0.14181139;0.6902543;0.21074298;;;;;;;;;;;;;;;
2350.0;2257.4;;;;-0.1441002;0.68780905;0.2107735;;;;;;;;;;;;;;;
2350.0;2257.4;;;;-0.14605714;0.68560034;0.21079639;;;;;;;;;;;;;;;
2350.0;2257.4;;;;-0.14788438;0.6839257;0.21031955;;;;;;;;;;;;;;;
2350.0;2260.8;;;;;;;;;;2.2812586;10.361034;-2.0981476;;;;;;;;;
2350.0;2260.8;;;;;;;0.17828913;-0.8579363;0.12848292;;;;;;;;;;;;
2350.0;2260.8;;;;;;;;;;1.33137;10.166478;-0.96133304;;;;;;;;;
2350.0;2260.8;;;;;;;0.18097477;-0.8619037;0.12854396;;;;;;;;;;;;
2350.0;2261.4;;;;;;;;;;;;;;;;;-34.867397;26.7304;-124.988556;;2169.5
2350.0;2261.4;;;;;;;;;;;;;;1.1156347;-0.05774102;-0.1403241;;;;;2169.5
2350.0;2261.4;;;;;;;;;;;;;;;;;-34.90936;26.53966;-124.988556;;2169.5
2350.0;2261.4;;;;;;;;;;;;;;1.0973846;-0.021362957;-0.1788995;;;;;2169.5
2350.0;2261.4;;;;;;;;;;;;;;;;;-34.96658;24.842066;-124.988556;;2179.1
2350.0;2261.4;;;;;;;;;;;;;;1.0789514;0.026245918;-0.23554185;;;;;2179.1
2350.0;2261.4;;;;;;;;;;;;;;;;;-35.729546;23.106327;-124.988556;;2179.1
2350.0;2261.4;;;;;;;;;;;;;;1.0475783;0.058290355;-0.28754538;;;;;2179.1
2350.0;2261.4;;;;;;;;;;;;;;;;;-38.174843;23.258919;-124.988556;;2188.8
2350.0;2261.4;;;;;;;;;;;;;;0.9951476;0.06604206;-0.3018891;;;;;2188.8
2350.0;2261.4;;;;;;;;;;;;;;;;;-40.772728;25.158695;-124.988556;;2188.8
2350.0;2261.4;;;;;;;;;;;;;;0.9605396;0.05999939;-0.2832728;;;;;2188.8
2350.0;2261.2;262143;262143;12740;;;;;;;;;;;;;;;;;;
2352.0;2267.4;;;;-0.14977266;0.6817971;0.20954135;;;;;;;;;;;;;;;
2352.0;2267.4;;;;-0.1517029;0.67996985;0.20850757;;;;;;;;;;;;;;;
2352.0;2267.4;;;;-0.1528702;0.6778527;0.20707324;;;;;;;;;;;;;;;
2352.0;2267.4;;;;-0.15435793;0.6758347;0.2056084;;;;;;;;;;;;;;;
2352.0;2267.4;;;;-0.15575792;0.6736298;0.20387271;;;;;;;;;;;;;;;
2352.0;2270.3;;;;;;;;;;0.3089999;9.918515;0.26322216;;;;;;;;;
2352.0;2270.3;;;;;;;0.18366039;-0.865688;0.12805566;;;;;;;;;;;;
2352.0;2270.3;;;;;;;;;;-0.82018495;9.685812;1.5602587;;;;;;;;;
2352.0;2270.3;;;;;;;0.18317209;-0.86880094;0.12836085;;;;;;;;;;;;
