patientId;holterMac;flexMac;;;;;;;;;;;;;;;;;;;;
;CA:F3:0B:1E:33:78;D3:4A:5C:52:80:78;;;;;;;;;;;;;;;;;;;;
receivedTimeStamp;timeStamp;red;ir;green;adxl_accX;adxl_accY;adxl_accZ;lsm_accelX;lsm_accelY;lsm_accelZ;lsm_gyroX;lsm_gyroY;lsm_gyroZ;ecg;flex_lsm_accelX;flex_lsm_accelY;flex_lsm_accelZ;flex_lsm_gyroX;flex_lsm_gyroY;flex_lsm_gyroZ;flex_cmd;flexTimeStamp
278.0;218.9;;;;;;;;;;;;;;;;;;;;17;0.1
278.0;218.9;;;;;;;;;;;;;;;;;12.321849;2.4872584;2.6779993;;127.6
278.0;218.9;;;;;;;;;;;;;;0.79348123;0.52772605;-0.017029328;;;;;127.6
278.0;218.9;;;;;;;;;;;;;;;;;-7.942442;-14.278848;-3.2425916;;127.6
278.0;218.9;;;;;;;;;;;;;;0.86123234;0.60316783;0.03601184;;;;;127.6
278.0;218.9;;;;;;;;;;;;;;;;;-62.57057;-84.90631;-59.785763;;137.2
278.0;218.9;;;;;;;;;;;;;;0.8908353;0.68044066;0.046571247;;;;;137.2
278.0;218.9;;;;;;;;;;;;;;;;;-122.03589;-124.988556;-118.96115;;137.2
278.0;218.9;;;;;;;;;;;;;;0.9011505;0.6975921;0.029236732;;;;;137.2
339.0;219.7;;;;;;;;;;;;;;;;;-52.96869;-124.988556;-70.3299;;146.9
339.0;219.7;;;;;;;;;;;;;;0.89278847;0.7116916;0.038209174;;;;;146.9
339.0;219.7;;;;;;;;;;;;;;;;;20.25666;-124.988556;-10.120701;;146.9
339.0;219.7;;;;;;;;;;;;;;0.87838376;0.70204777;0.040894803;;;;;146.9
339.0;219.7;;;;;;;;;;;;;;;;;19.05118;-103.58363;7.232887;;156.6
339.0;219.7;;;;;;;;;;;;;;0.87710196;0.67989135;0.044007692;;;;;156.6
339.0;219.7;;;;;;;;;;;;;;;;;9.754478;-27.180548;36.320843;;156.6
339.0;219.7;;;;;;;;;;;;;;0.859035;0.64711446;0.057863094;;;;;156.6
339.0;219.7;;;;;;;;;;;;;;;;;5.3979616;-16.445662;37.2631;;166.1
339.0;219.7;;;;;;;;;;;;;;0.8324839;0.60805076;0.09540086;;;;;166.1
339.0;219.7;;;;;;;;;;;;;;;;;2.422407;-15.587329;35.3328;;166.1
339.0;219.7;;;;;;;;;;;;;;0.8285775;0.5821711;0.11255226;;;;;166.1
339.0;286.5;;;;;;;;;;;;;;;;;-0.18692587;-15.114291;34.764397;;175.7
339.0;286.5;;;;;;;;;;;;;;0.8386486;0.54554886;0.10443434;;;;;175.7
339.0;286.5;;;;;;;;;;;;;;;;;-0.98803675;-13.11533;34.043396;;175.7
339.0;286.5;;;;;;;;;;;;;;0.84145635;0.5036775;0.10034486;;;;;175.7
339.0;286.5;;;;;;;;;;;;;;;;;-0.5340739;-11.940367;33.50551;;185.4
339.0;286.5;;;;;;;;;;;;;;0.8423719;0.456679;0.08978546;;;;;185.4
339.0;286.5;;;;;;;;;;;;;;;;;0.6256294;-11.516922;33.48262;;185.4
339.0;286.5;;;;;;;;;;;;;;0.8469497;0.40699485;0.07940916;;;;;185.4
339.0;286.5;;;;;;;;;;;;;;;;;1.5335552;-11.547441;33.131657;;195.1
339.0;286.5;;;;;;;;;;;;;;0.8544572;0.36408582;0.07446516;;;;;195.1
339.0;286.5;;;;;;;;;;;;;;;;;2.0485551;-11.829738;32.91803;;195.1
339.0;286.5;;;;;;;;;;;;;;0.85512865;0.3255104;0.07538072;;;;;195.1
400.0;287.3;;;;;;;;;;;;;;;;;2.2164068;-13.103885;33.310955;;204.6
400.0;287.3;;;;;;;;;;;;;;0.8612934;0.29969177;0.08832057;;;;;204.6
400.0;287.3;;;;;;;;;;;;;;;;;1.7166661;-14.481033;32.85699;;204.6
400.0;287.3;;;;;;;;;;;;;;0.8580584;0.26520586;0.09686575;;;;;204.6
400.0;287.3;;;;;;;;;;;;;;;;;2.1591845;-16.922514;33.15455;;214.2
400.0;287.3;;;;;;;;;;;;;;0.86983854;0.23816645;0.10046694;;;;;214.2
400.0;287.3;;;;;;;;;;;;;;;;;1.6899625;-18.944365;33.272808;;214.2
400.0;287.3;;;;;;;;;;;;;;0.88827175;0.22479934;0.09094516;;;;;214.2
400.0;287.3;;;;;;;;;;;;;;;;;-0.12588885;-17.559587;33.80688;;223.8
400.0;287.3;;;;;;;;;;;;;;0.9170202;0.21588793;0.10223701;;;;;223.8
400.0;287.3;;;;;;;;;;;;;;;;;-2.8344066;-13.035218;34.337135;;223.8
400.0;287.3;;;;;;;;;;;;;;0.9346599;0.2156438;0.14569536;;;;;223.8
400.0;339.2;;;;;;;;;;;;;;;;;-4.314554;-11.089663;34.421062;;233.5
400.0;339.2;;;;;;;;;;;;;;0.94552445;0.22003846;0.17859432;;;;;233.5
400.0;339.2;;;;;;;;;;;;;;;;;-3.4905546;-11.98996;33.867916;;233.5
400.0;339.2;;;;;;;;;;;;;;0.959624;0.23798333;0.17303994;;;;;233.5
400.0;339.2;;;;;;;;;;;;;;;;;-1.9722588;-11.494034;33.391068;;243.2
400.0;339.2;;;;;;;;;;;;;;0.95992917;0.2612995;0.16022217;;;;;243.2
400.0;339.2;;;;;;;;;;;;;;;;;0.12970367;-10.418256;33.112583;;243.2
400.0;339.2;;;;;;;;;;;;;;0.9580371;0.27771842;0.1513718;;;;;243.2
400.0;339.2;;;;;;;;;;;;;;;;;3.3951843;-8.827478;33.31477;;252.8
400.0;339.2;;;;;;;;;;;;;;0.9660329;0.28650776;0.15521714;;;;;252.8
400.0;339.2;;;;;;;;;;;;;;;;;10.021515;-7.9004793;33.700066;;252.8
400.0;339.2;;;;;;;;;;;;;;0.9778741;0.28241828;0.16333507;;;;;252.8
461.0;340.0;;;;;;;;;;;;;;;;;20.897549;-9.857478;34.142582;;262.4
461.0;340.0;;;;;;;;;;;;;;0.9847102;0.2733848;0.1469161;;;;;262.4
461.0;340.0;;;;;;;;;;;;;;;;;33.478806;-13.153478;34.730064;;262.4
461.0;340.0;;;;;;;;;;;;;;0.99588;0.26966155;0.09601123;;;;;262.4
461.0;340.0;;;;;;;;;;;;;;;;;44.209877;-11.45207;36.59551;;272.0
461.0;340.0;;;;;;;;;;;;;;1.0356761;0.26746422;0.07904294;;;;;272.0
461.0;340.0;;;;;;;;;;;;;;;;;52.854244;-3.6431472;39.471874;;272.0
461.0;340.0;;;;;;;;;;;;;;1.0713828;0.26929533;0.15033418;;;;;272.0
461.0;340.0;;;;;;;;;;;;;;;;;62.589645;-0.82399976;41.703545;;281.7
461.0;340.0;;;;;;;;;;;;;;1.1036714;0.2982879;0.19452497;;;;;281.7
461.0;340.0;;;;;;;;;;;;;;;;;73.14524;-0.4158147;44.457836;;281.7
461.0;340.0;;;;;;;;;;;;;;1.1600696;0.32258064;0.19855343;;;;;281.7
461.0;399.5;;;;;;;;;;;;;;;;;83.25831;3.1395917;47.269356;;291.3
461.0;399.5;;;;;;;;;;;;;;1.2010254;0.30426955;0.17157505;;;;;291.3
461.0;399.5;;;;;;;;;;;;;;;;;92.65801;11.116366;49.367504;;291.3
461.0;399.5;;;;;;;;;;;;;;1.2170782;0.3088473;0.18762779;;;;;291.3
461.0;399.5;;;;;;;;;;;;;;;;;96.343124;16.727959;50.24491;;301.0
461.0;399.5;;;;;;;;;;;;;;1.2538224;0.3469344;0.2379223;;;;;301.0
461.0;399.5;;;;;;;;;;;;;;;;;95.46571;23.705252;49.512466;;301.0
461.0;399.5;;;;;;;;;;;;;;1.3204138;0.37763605;0.2606891;;;;;301.0
461.0;399.5;;;;;;;;;;;;;;;;;104.02997;32.74636;46.967987;;310.3
461.0;399.5;;;;;;;;;;;;;;1.3379925;0.30103457;0.2064272;;;;;310.3
461.0;399.5;;;;;;;;;;;;;;;;;121.6544;29.622028;43.301952;;310.3
461.0;399.5;;;;;;;;;;;;;;1.3006989;0.22479934;0.015015107;;;;;310.3
520.0;400.3;;;;;;;;;;;;;;;;;124.988556;12.550736;34.646137;;319.9
520.0;400.3;;;;;;;;;;;;;;1.299112;0.2896817;-0.24475844;;;;;319.9
520.0;400.3;;;;;;;;;;;;;;;;;124.988556;-6.4012575;27.996918;;319.9
520.0;400.3;;;;;;;;;;;;;;1.2500992;0.23877682;-0.4835963;;;;;319.9
520.0;400.3;;;;;;;;;;;;;;;;;124.988556;-38.6021;25.547808;;329.6
520.0;400.3;;;;;;;;;;;;;;1.1826533;0.17285684;-0.6772668;;;;;329.6
520.0;400.3;;;;;;;;;;;;;;;;;124.988556;-76.89139;22.049623;;329.6
520.0;400.3;;;;;;;;;;;;;;1.2666402;0.1093173;-0.77999204;;;;;329.6
520.0;400.3;;;;;;;;;;;;;;;;;124.98474;-82.62123;26.181067;;339.3
520.0;400.3;;;;;;;;;;;;;;1.4411451;-0.06732383;-0.6425367;;;;;339.3
520.0;400.3;;;;;;;;;;;;;;;;;114.398636;-52.652058;33.406326;;339.3
520.0;400.3;;;;;;;;;;;;;;1.6100955;-0.1915952;-0.25977355;;;;;339.3
520.0;459.8;;;;;;;;;;;;;;;;;77.40257;-22.740105;29.850918;;348.9
520.0;459.8;;;;;;;;;;;;;;1.688467;-0.21362957;0.23078097;;;;;348.9
520.0;459.8;;;;;;;;;;;;;;;;;58.229317;-57.767723;11.722922;;348.9
520.0;459.8;;;;;;;;;;;;;;1.5322123;-0.025757622;0.24860378;;;;;348.9
520.0;459.8;;;;;;;;;;;;;;;;;53.312023;-116.85156;8.842738;;358.6
520.0;459.8;;;;;;;;;;;;;;1.2606586;0.053163245;-0.32642597;;;;;358.6
520.0;459.8;;;;;;;;;;;;;;;;;31.945251;-122.581406;14.507736;;358.6
520.0;459.8;;;;;;;;;;;;;;1.2873318;-0.040650655;-0.67091894;;;;;358.6
520.0;459.8;;;;;;;;;;;;;;;;;-4.871517;-73.54961;13.794366;;368.0
520.0;459.8;;;;;;;;;;;;;;1.3547167;-0.08349864;-0.5818659;;;;;368.0
520.0;459.8;;;;;;;;;;;;;;;;;-40.448467;19.425032;-2.5940733;;368.0
520.0;459.8;;;;;;;;;;;;;;1.2567523;0.0028077029;-0.1604053;;;;;368.0
582.0;461.0;;;;;;;;;;;;;;;;;-44.457836;50.572983;-26.837215;;377.6
582.0;461.0;;;;;;;;;;;;;;0.9413129;0.14654988;0.260506;;;;;377.6
582.0;461.0;;;;;;;;;;;;;;;;;-14.084292;-24.76577;-50.057983;;377.6
582.0;461.0;;;;;;;;;;;;;;0.882046;0.32471696;0.07373272;;;;;377.6
582.0;461.0;;;;;;;;;;;;;;;;;35.500656;-111.384926;-69.22361;;387.3
582.0;461.0;;;;;;;;;;;;;;1.1367534;0.51118505;-0.5634938;;;;;387.3
582.0;461.0;;;;;;;;;;;;;;;;;60.57924;-105.33082;-67.09113;;387.3
582.0;461.0;;;;;;;;;;;;;;1.394879;0.6610309;-0.7477645;;;;;387.3
582.0;461.0;;;;;;;;;;;;;;;;;31.025879;-20.710623;-52.17139;;396.9
582.0;461.0;;;;;;;;;;;;;;1.4234443;0.618244;-0.31965086;;;;;396.9
582.0;461.0;;;;;;;;;;;;;;;;;-12.314219;53.853725;-48.83343;;396.9
582.0;461.0;;;;;;;;;;;;;;1.241493;0.4845729;0.23145238;;;;;396.9
582.0;520.3;;;;;;;;;;;;;;;;;-19.417402;36.507767;-60.029907;;406.6
582.0;520.3;;;;;;;;;;;;;;1.0591143;0.583697;0.40260017;;;;;406.6
582.0;520.3;;;;;;;;;;;;;;;;;-13.557848;-51.461838;-69.90264;;406.6
582.0;520.3;;;;;;;;;;;;;;1.193701;0.8245491;-0.19031343;;;;;406.6
582.0;520.3;;;;;;;;;;;;;;;;;-29.732658;-75.6325;-51.64876;;416.3
582.0;520.3;;;;;;;;;;;;;;1.480697;0.81508833;-0.75789666;;;;;416.3
582.0;520.3;;;;;;;;;;;;;;;;;-59.812466;-2.6551104;-9.651479;;416.3
582.0;520.3;;;;;;;;;;;;;;1.3601489;0.20984527;-0.5377361;;;;;416.3
582.0;520.3;;;;;;;;;;;;;;;;;-79.5999;46.39195;18.379772;;425.9
582.0;520.3;;;;;;;;;;;;;;1.1263161;-0.11700796;-0.012817774;;;;;425.9
582.0;520.3;;;;;;;;;;;;;;;;;-71.62694;16.155737;40.684986;;425.9
582.0;520.3;;;;;;;;;;;;;;0.9083529;-0.3642079;0.022217475;;;;;425.9
645.0;521.1;;;;;;;;;;;;;;;;;-24.727623;-39.876247;41.54332;;435.5
645.0;521.1;;;;;;;;;;;;;;0.80092776;-0.48188725;-0.17285684;;;;;435.5
645.0;521.1;;;;;;;;;;;;;;;;;17.361216;-76.586205;17.746513;;435.5
645.0;521.1;;;;;;;;;;;;;;0.7464217;-0.44514298;-0.36909086;;;;;435.5
645.0;521.1;;;;;;;;;;;;;;;;;25.88351;-91.15115;-7.1642203;;445.2
645.0;521.1;;;;;;;;;;;;;;0.80721456;-0.18988617;-0.60158086;;;;;445.2
645.0;521.1;;;;;;;;;;;;;;;;;0.7286294;-68.605606;-10.44496;;445.2
645.0;521.1;;;;;;;;;;;;;;0.84627825;-0.0114139225;-0.79103976;;;;;445.2
645.0;521.1;;;;;;;;;;;;;;;;;-18.95581;-27.569658;-3.913999;;454.8
645.0;521.1;;;;;;;;;;;;;;0.82845545;0.065309614;-0.727134;;;;;454.8
645.0;521.1;;;;;;;;;;;;;;;;;-18.673513;-15.2096615;5.93585;;454.8
645.0;521.1;;;;;;;;;;;;;;0.8504898;0.07629628;-0.57368696;;;;;454.8
645.0;535.2;;;;;;;;;;;;;;;;;-18.620106;-23.819696;17.128513;;464.5
645.0;535.2;;;;;;;;;;;;;;0.8822901;0.029725028;-0.53462327;;;;;464.5
645.0;535.2;;;;;;;;;;;;;;;;;-22.106846;-30.89999;23.682364;;464.5
645.0;535.2;;;;;;;;;;;;;;0.95883054;-0.009460738;-0.56086916;;;;;464.5
645.0;535.2;;;;;;;;;;;;;;;;;-29.354992;-31.331066;28.53099;;474.1
645.0;535.2;;;;;;;;;;;;;;1.071871;-0.0037232582;-0.5996887;;;;;474.1
645.0;535.2;;;;;;;;;;;;;;;;;-30.079805;-26.741844;35.439617;;474.1
645.0;535.2;;;;;;;;;;;;;;1.1711173;-0.11816767;-0.60499895;;;;;474.1
645.0;535.2;;;;;;;;;;;;;;;;;-32.79214;-16.79281;38.598286;;483.7
645.0;535.2;;;;;;;;;;;;;;1.2378918;-0.1561327;-0.4848781;;;;;483.7
645.0;535.2;;;;;;;;;;;;;;;;;-39.029358;-12.073886;38.89203;;483.7
645.0;535.2;;;;;;;;;;;;;;1.2496109;-0.14239937;-0.38111514;;;;;483.7
703.0;580.9;;;;;;;;;;;;;;;;;-37.236397;-15.259254;38.30073;;493.4
703.0;580.9;;;;;;;;;;;;;;1.2262948;-0.06488235;-0.3109836;;;;;493.4
703.0;580.9;;;;;;;;;;;;;;;;;-34.955135;-22.091587;39.204838;;493.4
703.0;580.9;;;;;;;;;;;;;;1.2054201;4.2725913E-4;-0.32087162;;;;;493.4
703.0;580.9;;;;;;;;;;;;;;;;;-35.17258;-24.70855;40.673542;;503.1
703.0;580.9;;;;;;;;;;;;;;1.1978515;0.040894803;-0.34662923;;;;;503.1
703.0;580.9;;;;;;;;;;;;;;;;;-39.201023;-19.306772;39.90295;;503.1
703.0;580.9;;;;;;;;;;;;;;1.1813715;0.07440413;-0.31305888;;;;;503.1
703.0;580.9;;;;;;;;;;;;;;;;;-41.93625;-11.505478;37.701805;;512.8
703.0;580.9;;;;;;;;;;;;;;1.1382183;0.09808649;-0.22400586;;;;;512.8
703.0;580.9;;;;;;;;;;;;;;;;;-40.551468;-9.42259;34.98947;;512.8
703.0;580.9;;;;;;;;;;;;;;1.0828577;0.12866604;-0.14728233;;;;;512.8
703.0;596.0;;;;;;;;;;;;;;;;;-36.000397;-16.457108;34.8941;;522.4
703.0;596.0;;;;;;;;;;;;;;1.0328684;0.13263345;-0.16064943;;;;;522.4
703.0;596.0;;;;;;;;;;;;;;;;;-31.277657;-22.656178;37.442398;;522.4
703.0;596.0;;;;;;;;;;;;;;1.0101627;0.08911405;-0.21454512;;;;;522.4
703.0;596.0;;;;;;;;;;;;;;;;;-29.423658;-21.916105;38.83862;;532.1
703.0;596.0;;;;;;;;;;;;;;0.99130225;0.0145268105;-0.23670156;;;;;532.1
703.0;596.0;;;;;;;;;;;;;;;;;-27.687918;-19.219032;37.55303;;532.1
703.0;596.0;;;;;;;;;;;;;;0.94698936;-0.012573626;-0.2113712;;;;;532.1
703.0;596.0;;;;;;;;;;;;;;;;;-25.032806;-20.512253;37.285988;;541.5
703.0;596.0;;;;;;;;;;;;;;0.90121156;-0.038575396;-0.19995728;;;;;541.5
703.0;596.0;;;;;;;;;;;;;;;;;-21.50792;-23.36192;37.01895;;541.5
703.0;596.0;;;;;;;;;;;;;;0.87350076;-0.064638205;-0.21393475;;;;;541.5
768.0;640.9;;;;;;;;;;;;;;;;;-16.663107;-24.86114;36.832027;;551.2
768.0;640.9;;;;;;;;;;;;;;0.8467666;-0.09308145;-0.22663045;;;;;551.2
768.0;640.9;;;;;;;;;;;;;;;;;-12.783441;-24.086735;34.707172;;551.2
768.0;640.9;;;;;;;;;;;;;;0.8325449;-0.07428205;-0.22302927;;;;;551.2
768.0;640.9;;;;;;;;;;;;;;;;;-9.952848;-22.621845;32.68914;;560.8
768.0;640.9;;;;;;;;;;;;;;0.83291113;-0.056764428;-0.22150335;;;;;560.8
768.0;640.9;;;;;;;;;;;;;;;;;-6.126591;-18.745995;31.758324;;560.8
768.0;640.9;;;;;;;;;;;;;;0.84163946;-0.04791406;-0.19641712;;;;;560.8
768.0;640.9;;;;;;;;;;;;;;;;;-2.1973326;-15.46144;29.59914;;570.6
768.0;640.9;;;;;;;;;;;;;;0.8395642;-0.030884732;-0.16736351;;;;;570.6
768.0;640.9;;;;;;;;;;;;;;;;;2.3804438;-16.739403;27.325512;;570.6
768.0;640.9;;;;;;;;;;;;;;0.8298593;-0.010620441;-0.15625477;;;;;570.6
768.0;656.0;;;;;;;;;;;;;;;;;7.8623314;-20.657215;24.922176;;580.2
768.0;656.0;;;;;;;;;;;;;;0.8235725;0.014893033;-0.1694998;;;;;580.2
768.0;656.0;;;;;;;;;;;;;;;;;12.485885;-24.502548;21.95044;;580.2
768.0;656.0;;;;;;;;;;;;;;0.82039857;0.05365154;-0.1892758;;;;;580.2
768.0;656.0;;;;;;;;;;;;;;;;;14.435255;-26.917326;18.902403;;589.8
768.0;656.0;;;;;;;;;;;;;;0.8143559;0.08294931;-0.20911282;;;;;589.8
768.0;656.0;;;;;;;;;;;;;;;;;15.400403;-26.829586;14.831996;;589.8
768.0;656.0;;;;;;;;;;;;;;0.80648214;0.11926634;-0.21210364;;;;;589.8
768.0;656.0;;;;;;;;;;;;;;;;;14.423811;-24.48729;10.410626;;599.4
768.0;656.0;;;;;;;;;;;;;;0.7970214;0.15240943;-0.20789209;;;;;599.4
768.0;656.0;;;;;;;;;;;;;;;;;12.382885;-21.00055;5.4628134;;599.4
768.0;656.0;;;;;;;;;;;;;;0.7958006;0.17639698;-0.20368053;;;;;599.4
819.0;701.2;;;;;;;;;;;;;;;;;11.898404;-15.293588;-0.22888882;;609.0
819.0;701.2;;;;;;;;;;;;;;0.8067263;0.19495223;-0.19074069;;;;;609.0
819.0;701.2;;;;;;;;;;;;;;;;;11.841182;-7.160405;-5.00885;;609.0
819.0;701.2;;;;;;;;;;;;;;0.8240608;0.24756615;-0.13153477;;;;;609.0
819.0;701.2;;;;;;;;;;;;;;;;;9.31196;-1.2245551;-3.7270732;;618.6
819.0;701.2;;;;;;;;;;;;;;0.82320625;0.27295756;-0.08819849;;;;;618.6
819.0;701.2;;;;;;;;;;;;;;;;;10.696738;1.3695182;1.5449996;;618.6
819.0;701.2;;;;;;;;;;;;;;0.7968383;0.26703694;-0.050904874;;;;;618.6
819.0;701.2;;;;;;;;;;;;;;;;;15.198217;-2.0447402;6.324961;;628.2
819.0;701.2;;;;;;;;;;;;;;0.75160986;0.22467726;-0.032471694;;;;;628.2
819.0;701.2;;;;;;;;;;;;;;;;;19.001587;-9.994812;6.7979984;;628.2
819.0;701.2;;;;;;;;;;;;;;0.7442854;0.18890958;-0.07586902;;;;;628.2
819.0;708.9;;;;;;;;;;;;;;;;;19.661549;-15.583514;4.146703;;637.9
819.0;708.9;;;;;;;;;;;;;;0.75551623;0.19214454;-0.13702811;;;;;637.9
819.0;708.9;;;;;;;;;;;;;;;;;19.047365;-19.692068;1.6289254;;637.9
819.0;708.9;;;;;;;;;;;;;;0.732017;0.19763787;-0.18048647;;;;;637.9
819.0;708.9;;;;;;;;;;;;;;;;;17.60918;-22.556993;-0.50737023;;647.5
819.0;708.9;;;;;;;;;;;;;;0.69899595;0.21027254;-0.21906187;;;;;647.5
819.0;708.9;;;;;;;;;;;;;;;;;15.099032;-20.420698;-2.1477401;;647.5
819.0;708.9;;;;;;;;;;;;;;0.66798913;0.21710868;-0.23523667;;;;;647.5
819.0;708.9;;;;;;;;;;;;;;;;;12.256997;-14.332255;-3.9597769;;657.2
819.0;708.9;;;;;;;;;;;;;;0.6569414;0.22943816;-0.23548082;;;;;657.2
819.0;708.9;;;;;;;;;;;;;;;;;7.045961;-4.3565173;-5.123295;;657.2
819.0;708.9;;;;;;;;;;;;;;0.64571065;0.23389386;-0.2153386;;;;;657.2
881.0;761.3;;;;;;;;;;;;;;;;;1.701407;5.218665;-5.2911468;;666.8
881.0;761.3;;;;;;;;;;;;;;0.62990206;0.23236793;-0.18463698;;;;;666.8
881.0;761.3;;;;;;;;;;;;;;;;;-1.4725181;13.302256;-5.1538134;;666.8
881.0;761.3;;;;;;;;;;;;;;0.62117374;0.22962126;-0.1478927;;;;;666.8
881.0;761.3;;;;;;;;;;;;;;;;;-2.643666;19.36781;-5.603961;;676.5
881.0;761.3;;;;;;;;;;;;;;0.62282175;0.23358867;-0.10388501;;;;;676.5
881.0;761.3;;;;;;;;;;;;;;;;;-3.4752953;22.709585;-6.96585;;676.5
881.0;761.3;;;;;;;;;;;;;;0.643086;0.2461623;-0.074892424;;;;;676.5
881.0;761.3;;;;;;;;;;;;;;;;;-4.7685175;27.386547;-8.40022;;686.2
881.0;761.3;;;;;;;;;;;;;;0.66768396;0.2582476;-0.052308727;;;;;686.2
881.0;761.3;;;;;;;;;;;;;;;;;-5.7451096;33.074436;-11.566515;;686.2
881.0;761.3;;;;;;;;;;;;;;0.6916715;0.28022096;-0.026367992;;;;;686.2
881.0;768.8;;;;;;;;;;;;;;;;;-3.2654805;30.636768;-16.155737;;695.8
881.0;768.8;;;;;;;;;;;;;;0.73104036;0.3152562;-0.018799402;;;;;695.8
881.0;768.8;;;;;;;;;;;;;;;;;3.47911;21.835995;-19.585253;;695.8
881.0;768.8;;;;;;;;;;;;;;0.7730949;0.37397382;-0.04156621;;;;;695.8
881.0;768.8;;;;;;;;;;;;;;;;;13.035218;11.715293;-19.066439;;705.5
881.0;768.8;;;;;;;;;;;;;;0.7710807;0.41035187;-0.08374279;;;;;705.5
881.0;768.8;;;;;;;;;;;;;;;;;19.707327;3.78811;-15.285958;;705.5
881.0;768.8;;;;;;;;;;;;;;0.7446516;0.3975341;-0.12292856;;;;;705.5
881.0;768.8;;;;;;;;;;;;;;;;;19.917141;1.701407;-12.722404;;715.1
881.0;768.8;;;;;;;;;;;;;;0.74452955;0.364391;-0.15381329;;;;;715.1
881.0;768.8;;;;;;;;;;;;;;;;;15.636921;6.14948;-11.600848;;715.1
881.0;768.8;;;;;;;;;;;;;;0.74416333;0.3355205;-0.1640675;;;;;715.1
942.0;821.6;;;;;;;;;;;;;;;;;7.9996643;13.81344;-10.948516;;724.6
942.0;821.6;;;;;;;;;;;;;;0.71102023;0.29602954;-0.148381;;;;;724.6
942.0;821.6;;;;;;;;;;;;;;;;;1.4419996;20.313883;-10.460219;;724.6
942.0;821.6;;;;;;;;;;;;;;0.6706137;0.25458542;-0.12512589;;;;;724.6
942.0;821.6;;;;;;;;;;;;;;;;;-1.5488143;25.17777;-10.261848;;734.2
942.0;821.6;;;;;;;;;;;;;;0.63539535;0.22760704;-0.103946045;;;;;734.2
942.0;821.6;;;;;;;;;;;;;;;;;-1.6632588;27.497177;-11.501663;;734.2
942.0;821.6;;;;;;;;;;;;;;0.5962706;0.20923491;-0.08990753;;;;;734.2
942.0;821.6;;;;;;;;;;;;;;;;;2.5978882;22.083958;-13.5387745;;743.6
942.0;821.6;;;;;;;;;;;;;;0.5542772;0.20520645;-0.09668264;;;;;743.6
942.0;821.6;;;;;;;;;;;;;;;;;12.073886;5.882443;-14.4543295;;743.6
942.0;821.6;;;;;;;;;;;;;;0.5261391;0.19098483;-0.12732323;;;;;743.6
942.0;829.4;;;;;;;;;;;;;;;;;24.182104;-10.784478;-15.686514;;753.3
942.0;829.4;;;;;;;;;;;;;;0.5152135;0.19141209;-0.17291787;;;;;753.3
942.0;829.4;;;;;;;;;;;;;;;;;31.815548;-14.618366;-14.339885;;753.3
942.0;829.4;;;;;;;;;;;;;;0.5155797;0.19354838;-0.21900083;;;;;753.3
942.0;829.4;;;;;;;;;;;;;;;;;34.96658;-5.096591;-11.841182;;762.9
942.0;829.4;;;;;;;;;;;;;;0.5204016;0.19196142;-0.25141147;;;;;762.9
942.0;829.4;;;;;;;;;;;;;;;;;30.877102;15.659811;-11.616108;;762.9
942.0;829.4;;;;;;;;;;;;;;0.52571183;0.17523728;-0.27008882;;;;;762.9
942.0;829.4;;;;;;;;;;;;;;;;;26.711327;30.468916;-8.465072;;772.6
942.0;829.4;;;;;;;;;;;;;;0.5393841;0.13306071;-0.26966155;;;;;772.6
942.0;829.4;;;;;;;;;;;;;;;;;25.997955;30.58336;-6.2448497;;772.6
942.0;829.4;;;;;;;;;;;;;;0.59596545;0.11572619;-0.29047516;;;;;772.6
1003.0;881.9;;;;;;;;;;;;;;;;;24.891659;31.037325;-4.1962953;;782.2
1003.0;881.9;;;;;;;;;;;;;;0.66176337;0.11255226;-0.3079928;;;;;782.2
1003.0;881.9;;;;;;;;;;;;;;;;;21.267586;39.456615;-2.7161474;;782.2
1003.0;881.9;;;;;;;;;;;;;;0.7248146;0.11890011;-0.29090244;;;;;782.2
1003.0;881.9;;;;;;;;;;;;;;;;;14.782403;50.351723;-2.006592;;791.8
1003.0;881.9;;;;;;;;;;;;;;0.77730644;0.11951049;-0.25647756;;;;;791.8
1003.0;881.9;;;;;;;;;;;;;;;;;9.994812;56.95517;-1.0872219;;791.8
1003.0;881.9;;;;;;;;;;;;;;0.84200567;0.11011078;-0.22693564;;;;;791.8
1003.0;881.9;;;;;;;;;;;;;;;;;9.514146;55.581833;-0.32044435;;801.5
1003.0;881.9;;;;;;;;;;;;;;0.9006012;0.10278634;-0.1767632;;;;;801.5
1003.0;881.9;;;;;;;;;;;;;;;;;14.435255;38.72036;-0.049592577;;801.5
1003.0;881.9;;;;;;;;;;;;;;0.9139683;0.08319346;-0.17896055;;;;;801.5
1003.0;889.3;;;;;;;;;;;;;;;;;24.27366;13.851588;-0.54933316;;811.2
1003.0;889.3;;;;;;;;;;;;;;0.87545395;0.10144353;-0.28052613;;;;;811.2
1003.0;889.3;;;;;;;;;;;;;;;;;29.530474;0.3013703;-0.6675924;;811.2
1003.0;889.3;;;;;;;;;;;;;;0.8982818;0.15491195;-0.40620136;;;;;811.2
1003.0;889.3;;;;;;;;;;;;;;;;;27.478102;8.449813;0.8888516;;820.9
1003.0;889.3;;;;;;;;;;;;;;0.92965484;0.18768883;-0.5038606;;;;;820.9
1003.0;889.3;;;;;;;;;;;;;;;;;19.711142;32.395397;2.3461106;;820.9
1003.0;889.3;;;;;;;;;;;;;;0.9103061;0.23120824;-0.4464858;;;;;820.9
1003.0;889.3;;;;;;;;;;;;;;;;;9.899441;42.683952;3.624073;;830.5
1003.0;889.3;;;;;;;;;;;;;;0.8615375;0.25843075;-0.36597797;;;;;830.5
1003.0;889.3;;;;;;;;;;;;;;;;;7.335887;34.82543;4.7189245;;830.5
1003.0;889.3;;;;;;;;;;;;;;0.8396863;0.3010956;-0.34894863;;;;;830.5
1062.0;942.1;;;;;;;;;;;;;;;;;6.851405;23.033844;6.0464797;;840.2
1062.0;942.1;;;;;;;;;;;;;;0.86233103;0.35798213;-0.40101323;;;;;840.2
1062.0;942.1;;;;;;;;;;;;;;;;;0.50737023;23.918882;8.980071;;840.2
1062.0;942.1;;;;;;;;;;;;;;0.87459946;0.39173558;-0.42939544;;;;;840.2
1062.0;942.1;;;;;;;;;;;;;;;;;-7.820368;34.611805;12.1807;;849.7
1062.0;942.1;;;;;;;;;;;;;;0.86404;0.41889706;-0.39893797;;;;;849.7
1062.0;942.1;;;;;;;;;;;;;;;;;-12.9017;45.888393;14.5535145;;849.7
1062.0;942.1;;;;;;;;;;;;;;0.83687854;0.42445144;-0.32087162;;;;;849.7
1062.0;942.1;;;;;;;;;;;;;;;;;-7.904294;42.18421;15.724663;;859.4
1062.0;942.1;;;;;;;;;;;;;;0.8139897;0.41981262;-0.27881712;;;;;859.4
1062.0;942.1;;;;;;;;;;;;;;;;;3.9368877;22.90414;16.48381;;859.4
1062.0;942.1;;;;;;;;;;;;;;0.84524065;0.4326304;-0.34052554;;;;;859.4
1062.0;942.9;;;;;;;;;;;;;;;;;6.8742943;10.639516;16.418959;;869.1
1062.0;942.9;;;;;;;;;;;;;;0.9047517;0.45674002;-0.44508195;;;;;869.1
1062.0;942.9;;;;;;;;;;;;;;;;;-1.2627033;13.790551;13.988921;;869.1
1062.0;942.9;;;;;;;;;;;;;;0.9604175;0.4812769;-0.49977112;;;;;869.1
1062.0;942.9;;;;;;;;;;;;;;;;;-14.896848;30.182806;11.070589;;878.7
1062.0;942.9;;;;;;;;;;;;;;0.9978942;0.48628193;-0.4459975;;;;;878.7
1062.0;942.9;;;;;;;;;;;;;;;;;-29.938658;50.462353;7.3015537;;878.7
1062.0;942.9;;;;;;;;;;;;;;1.0403149;0.45368817;-0.356151;;;;;878.7
1062.0;942.9;;;;;;;;;;;;;;;;;-38.716545;68.6819;-0.61037016;;888.4
1062.0;942.9;;;;;;;;;;;;;;1.1660513;0.42713705;-0.26837978;;;;;888.4
1062.0;942.9;;;;;;;;;;;;;;;;;-39.3498;80.79012;-14.000366;;888.4
1062.0;942.9;;;;;;;;;;;;;;1.3276162;0.43952757;-0.17645802;;;;;888.4
1121.0;1002.9;;;;;;;;;;;;;;;;;-37.68273;86.64205;-31.785027;;898.1
1121.0;1002.9;;;;;;;;;;;;;;1.4647053;0.4738914;-0.09430219;;;;;898.1
1121.0;1002.9;;;;;;;;;;;;;;;;;-37.591175;92.63893;-50.14954;;898.1
1121.0;1002.9;;;;;;;;;;;;;;1.5584582;0.5202795;-0.030152287;;;;;898.1
1121.0;1002.9;;;;;;;;;;;;;;;;;-34.531693;97.693565;-67.40776;;907.6
1121.0;1002.9;;;;;;;;;;;;;;1.5941038;0.5831477;0.08239998;;;;;907.6
1121.0;1002.9;;;;;;;;;;;;;;;;;-34.49736;97.94534;-82.16346;;907.6
1121.0;1002.9;;;;;;;;;;;;;;1.5938597;0.6637776;0.18140203;;;;;907.6
1121.0;1002.9;;;;;;;;;;;;;;;;;-32.677696;92.64656;-90.55986;;917.1
1121.0;1002.9;;;;;;;;;;;;;;1.5372174;0.69075596;0.22425;;;;;917.1
1121.0;1002.9;;;;;;;;;;;;;;;;;-24.151587;86.53905;-95.835754;;917.1
1121.0;1002.9;;;;;;;;;;;;;;1.4794153;0.7381817;0.26862392;;;;;917.1
1121.0;1003.7;;;;;;;;;;;;;;;;;-17.349771;76.82654;-96.758934;;926.8
1121.0;1003.7;;;;;;;;;;;;;;1.4411451;0.723777;0.27411726;;;;;926.8
1121.0;1003.7;;;;;;;;;;;;;;;;;-16.544847;68.75057;-99.394966;;926.8
1121.0;1003.7;;;;;;;;;;;;;;1.4571978;0.65865046;0.21570483;;;;;926.8
1121.0;1003.7;;;;;;;;;;;;;;;;;-16.659292;72.45857;-107.360306;;936.4
1121.0;1003.7;;;;;;;;;;;;;;1.4682455;0.5950499;0.17493209;;;;;936.4
1121.0;1003.7;;;;;;;;;;;;;;;;;-14.973144;80.46968;-120.44129;;936.4
1121.0;1003.7;;;;;;;;;;;;;;1.4615314;0.5708792;0.16119877;;;;;936.4
1121.0;1003.7;;;;;;;;;;;;;;;;;-13.340404;84.31501;-124.90463;;946.0
1121.0;1003.7;;;;;;;;;;;;;;1.469161;0.519364;0.15051728;;;;;946.0
1121.0;1003.7;;;;;;;;;;;;;;;;;-13.431959;83.41472;-124.988556;;946.0
1121.0;1003.7;;;;;;;;;;;;;;1.493942;0.44294566;0.13794367;;;;;946.0
1183.0;1062.8;;;;;;;;;;;;;;;;;-11.036257;80.05386;-124.988556;;955.6
1183.0;1062.8;;;;;;;;;;;;;;1.5704825;0.32740256;0.084109016;;;;;955.6
1183.0;1062.8;;;;;;;;;;;;;;;;;6.164739;73.8319;-122.07022;;955.6
1183.0;1062.8;;;;;;;;;;;;;;1.6457411;0.1944029;0.03607288;;;;;955.6
1183.0;1062.8;;;;;;;;;;;;;;;;;28.618732;64.23765;-104.747154;;965.2
1183.0;1062.8;;;;;;;;;;;;;;1.7194128;0.03357036;-0.0700705;;;;;965.2
1183.0;1062.8;;;;;;;;;;;;;;;;;49.94354;64.43602;-83.3079;;965.2
1183.0;1062.8;;;;;;;;;;;;;;1.7677542;-0.14709921;-0.12121952;;;;;965.2
1183.0;1062.8;;;;;;;;;;;;;;;;;64.34828;70.9975;-58.24076;;974.9
1183.0;1062.8;;;;;;;;;;;;;;1.7267983;-0.34302804;-0.17316203;;;;;974.9
1183.0;1062.8;;;;;;;;;;;;;;;;;77.0478;77.730644;-40.715508;;974.9
1183.0;1062.8;;;;;;;;;;;;;;1.5584582;-0.5364544;-0.21265298;;;;;974.9
1183.0;1063.6;;;;;;;;;;;;;;;;;81.81249;87.86279;-35.13825;;984.5
1183.0;1063.6;;;;;;;;;;;;;;1.6319468;-0.7275002;-0.22443312;;;;;984.5
1183.0;1063.6;;;;;;;;;;;;;;;;;77.143166;103.99945;-32.074955;;984.5
1183.0;1063.6;;;;;;;;;;;;;;1.5854366;-0.92208624;-0.15179907;;;;;984.5
1183.0;1063.6;;;;;;;;;;;;;;;;;59.4348;121.810814;-60.541092;;994.2
1183.0;1063.6;;;;;;;;;;;;;;1.4456618;-1.0005798;-0.05285806;;;;;994.2
1183.0;1063.6;;;;;;;;;;;;;;;;;73.507645;123.08496;-79.966125;;994.2
1183.0;1063.6;;;;;;;;;;;;;;1.2203741;-1.0544755;0.072878204;;;;;994.2
1183.0;1063.6;;;;;;;;;;;;;;;;;91.135895;120.52522;-113.258;;1003.8
1183.0;1063.6;;;;;;;;;;;;;;1.0371411;-0.81752986;0.29096347;;;;;1003.8
1183.0;1063.6;;;;;;;;;;;;;;;;;93.68801;100.238045;-124.988556;;1003.8
1183.0;1063.6;;;;;;;;;;;;;;1.099643;-0.3209937;0.43867305;;;;;1003.8
1187.0;1123.4;;;;;;;;;;;;;;;;;75.392166;61.24302;-124.988556;;1013.3
1187.0;1123.4;;;;;;;;;;;;;;1.1173437;-0.014709922;0.38099307;;;;;1013.3
1187.0;1123.4;;;;;;;;;;;;;;;;;55.43687;29.49614;-124.988556;;1013.3
1187.0;1123.4;;;;;;;;;;;;;;1.1555529;0.25281534;0.1490524;;;;;1013.3
1187.0;1123.4;;;;;;;;;;;;;;;;;64.13465;8.69396;-124.988556;;1023.0
1187.0;1123.4;;;;;;;;;;;;;;1.2242194;0.69466233;0.011169774;;;;;1023.0
1187.0;1123.4;;;;;;;;;;;;;;;;;61.693165;2.2621846;-124.988556;;1023.0
1187.0;1123.4;;;;;;;;;;;;;;1.3063753;1.0642414;-0.11938841;;;;;1023.0
1187.0;1123.4;;;;;;;;;;;;;;;;;54.605244;11.207922;-124.988556;;1032.7
1187.0;1123.4;;;;;;;;;;;;;;1.3172399;1.3066806;-0.28614154;;;;;1032.7
1187.0;1123.4;;;;;;;;;;;;;;;;;61.136204;29.332104;-124.431595;;1032.7
1187.0;1123.4;;;;;;;;;;;;;;1.2986846;1.4237494;-0.2910245;;;;;1032.7
1189.0;1124.3;;;;;;;;;;;;;;;;;57.370983;46.19739;-102.65282;;1042.3
1189.0;1124.3;;;;;;;;;;;;;;1.2171392;0.98910487;-0.21210364;;;;;1042.3
1189.0;1124.3;;;;;;;;;;;;;;;;;45.327614;47.94458;-81.99942;;1042.3
1189.0;1124.3;;;;;;;;;;;;;;1.3150426;0.5492111;-0.07751702;;;;;1042.3
1189.0;1124.3;;;;;;;;;;;;;;;;;28.75225;40.330208;-87.15324;;1051.9
1189.0;1124.3;;;;;;;;;;;;;;1.3599658;0.42988372;-0.087466046;;;;;1051.9
1189.0;1124.3;;;;;;;;;;;;;;;;;15.614033;37.347027;-92.97464;;1051.9
1189.0;1124.3;;;;;;;;;;;;;;1.3071688;0.4173101;-0.12384411;;;;;1051.9
1189.0;1124.3;;;;;;;;;;;;;;;;;0.7324442;37.25547;-90.59419;;1061.5
1189.0;1124.3;;;;;;;;;;;;;;1.25486;0.34022033;-0.12842189;;;;;1061.5
1189.0;1124.3;;;;;;;;;;;;;;;;;-13.019959;39.551987;-85.48616;;1061.5
1189.0;1124.3;;;;;;;;;;;;;;1.1879025;0.24256112;-0.08795434;;;;;1061.5
1189.0;1127.2;;;;0.0;0.0;0.0;;;;;;;;;;;;;;;
1189.0;1127.2;;;;-0.35087588;0.057144172;-0.04703141;;;;;;;;;;;;;;;
1189.0;1127.2;;;;-1.0311815;0.109756485;-0.19406894;;;;;;;;;;;;;;;
1189.0;1127.2;;;;-1.0434839;0.10139467;-0.20208743;;;;;;;;;;;;;;;
1189.0;1127.2;;;;-1.0331842;0.09591295;-0.19694903;;;;;;;;;;;;;;;
1189.0;1137.2;;;;-1.0218164;0.09072877;-0.19264224;;;;;;;;;;;;;;;
1189.0;1137.2;;;;-1.0111009;0.08534623;-0.1884003;;;;;;;;;;;;;;;
1189.0;1137.2;;;;-1.0017053;0.07996369;-0.18393327;;;;;;;;;;;;;;;
1189.0;1137.2;;;;-0.99341977;0.07466508;-0.17983247;;;;;;;;;;;;;;;
1189.0;1137.2;;;;-0.9865838;0.0694542;-0.1758423;;;;;;;;;;;;;;;
1238.0;1140.4;57493;57396;11555;;;;;;;;;;;;;;;;;;
1238.0;1147.1;;;;-0.97999966;0.0642891;-0.17198946;;;;;;;;;;;;;;;
1238.0;1147.1;;;;-0.9731561;0.059810646;-0.1694832;;;;;;;;;;;;;;;
1238.0;1147.1;;;;-0.9660188;0.05466462;-0.16679384;;;;;;;;;;;;;;;
1238.0;1147.1;;;;-0.95835125;0.04965592;-0.16475298;;;;;;;;;;;;;;;
1238.0;1147.1;;;;-0.9505693;0.044738773;-0.16257478;;;;;;;;;;;;;;;
1238.0;1157.1;;;;-0.9419328;0.04035187;-0.16082384;;;;;;;;;;;;;;;
1238.0;1157.1;;;;-0.9340974;0.035537723;-0.15906145;;;;;;;;;;;;;;;
1238.0;1157.1;;;;-0.9268037;0.031421665;-0.15694429;;;;;;;;;;;;;;;
1238.0;1157.1;;;;-0.9199449;0.026897434;-0.15482332;;;;;;;;;;;;;;;
1238.0;1157.1;;;;-0.9131814;0.023174288;-0.15347673;;;;;;;;;;;;;;;
1238.0;1160.4;73824;73845;11468;;;;;;;;;;;;;;;;;;
1238.0;1166.7;;;;;;;;;;;;;0;;;;;;;;
1238.0;1166.7;;;;;;;;;;;;;0;;;;;;;;
1238.0;1166.7;;;;;;;;;;;;;-1;;;;;;;;
1238.0;1166.7;;;;;;;;;;;;;-2;;;;;;;;
1238.0;1166.7;;;;;;;;;;;;;-3;;;;;;;;
1238.0;1167.2;;;;-0.90610135;0.019371035;-0.15122606;;;;;;;;;;;;;;;
1238.0;1167.2;;;;-0.89863217;0.015258791;-0.1490555;;;;;;;;;;;;;;;
1238.0;1167.2;;;;-0.8902627;0.012001039;-0.14771654;;;;;;;;;;;;;;;
1238.0;1167.2;;;;-0.8827516;0.008678437;-0.1455536;;;;;;;;;;;;;;;
1238.0;1167.2;;;;-0.87527096;0.005577088;-0.14309694;;;;;;;;;;;;;;;
1240.0;1177.3;;;;-0.86835873;0.0025711062;-0.141243;;;;;;;;;;;;;;;
1240.0;1177.3;;;;-0.86238873;-1.2969972E-4;-0.13937761;;;;;;;;;;;;;;;
1240.0;1177.3;;;;-0.85665905;-0.0026206973;-0.13744356;;;;;;;;;;;;;;;
1240.0;1177.3;;;;-0.8510896;-0.0048370366;-0.13605882;;;;;;;;;;;;;;;
1240.0;1177.3;;;;-0.8453294;-0.0070762644;-0.13469316;;;;;;;;;;;;;;;
1240.0;1180.7;90217;90223;11404;;;;;;;;;;;;;;;;;;
1240.0;1183.1;;;;;;;;;;;;;;;;;-24.609364;41.337322;-83.06375;;1071.1
1240.0;1183.1;;;;;;;;;;;;;;1.1073946;0.19049653;-0.043763544;;;;;1071.1
1240.0;1183.1;;;;;;;;;;;;;;;;;-35.439617;39.9678;-81.57979;;1071.1
1240.0;1183.1;;;;;;;;;;;;;;1.0309763;0.14575641;-0.025452437;;;;;1071.1
1240.0;1183.1;;;;;;;;;;;;;;;;;-42.550434;36.938843;-79.18027;;1080.8
1240.0;1183.1;;;;;;;;;;;;;;0.9568163;0.11847285;0.010681478;;;;;1080.8
1240.0;1183.1;;;;;;;;;;;;;;;;;-46.52928;31.140324;-75.88046;;1080.8
1240.0;1183.1;;;;;;;;;;;;;;0.8872341;0.09143346;0.036500137;;;;;1080.8
1240.0;1183.1;;;;;;;;;;;;;;;;;-48.84869;23.270363;-72.45857;;1090.5
1240.0;1183.1;;;;;;;;;;;;;;0.82528156;0.061525315;0.04052858;;;;;1090.5
1240.0;1183.1;;;;;;;;;;;;;;;;;-48.310802;15.594958;-68.17453;;1090.5
1240.0;1183.1;;;;;;;;;;;;;;0.755089;0.044129767;0.052186653;;;;;1090.5
1248.0;1183.9;;;;;;;;;;;;;;;;;-45.80828;8.461257;-64.18806;;1100.1
1248.0;1183.9;;;;;;;;;;;;;;0.67921996;0.042664878;0.072206795;;;;;1100.1
1248.0;1183.9;;;;;;;;;;;;;;;;;-42.31773;0.75914794;-59.36613;;1100.1
1248.0;1183.9;;;;;;;;;;;;;;0.6191595;0.05346843;0.0888699;;;;;1100.1
1248.0;1183.9;;;;;;;;;;;;;;;;;-38.00699;-7.087924;-53.937653;;1109.7
1248.0;1183.9;;;;;;;;;;;;;;0.57814264;0.06646931;0.09472945;;;;;1109.7
1248.0;1183.9;;;;;;;;;;;;;;;;;-33.459732;-13.088626;-48.49391;;1109.7
1248.0;1183.9;;;;;;;;;;;;;;0.55903804;0.07348857;0.09808649;;;;;1109.7
1248.0;1183.9;;;;;;;;;;;;;;;;;-28.454695;-16.869106;-42.615284;;1119.3
1248.0;1183.9;;;;;;;;;;;;;;0.5465865;0.06329539;0.09729301;;;;;1119.3
1248.0;1183.9;;;;;;;;;;;;;;;;;-23.747215;-19.314402;-36.80914;;1119.3
1248.0;1183.9;;;;;;;;;;;;;;0.52455217;0.03936888;0.11200293;;;;;1119.3
1248.0;1187.2;;;;-0.839985;-0.009471894;-0.13371278;;;;;;;;;;;;;;;
1248.0;1187.2;;;;-0.83464825;-0.011432649;-0.13320161;;;;;;;;;;;;;;;
1248.0;1187.2;;;;-0.8291551;-0.013023378;-0.13215639;;;;;;;;;;;;;;;
1248.0;1187.2;;;;-0.82172024;-0.0144195575;-0.13027956;;;;;;;;;;;;;;;
1248.0;1187.2;;;;-0.8147012;-0.016639711;-0.13196184;;;;;;;;;;;;;;;
1248.0;1197.3;;;;-0.8168756;-0.01898575;-0.13671876;;;;;;;;;;;;;;;
1248.0;1197.3;;;;-0.816414;-0.020565035;-0.13178636;;;;;;;;;;;;;;;
1248.0;1197.3;;;;-0.81281674;-0.021739962;-0.13164522;;;;;;;;;;;;;;;
1248.0;1197.3;;;;-0.8091661;-0.023784641;-0.13316728;;;;;;;;;;;;;;;
1248.0;1197.3;;;;-0.80505383;-0.02544022;-0.13372804;;;;;;;;;;;;;;;
1248.0;1200.6;106671;106604;11345;;;;;;;;;;;;;;;;;;
1299.0;1206.9;;;;;;;;;;;;;-8;;;;;;;;
1299.0;1206.9;;;;;;;;;;;;;-5;;;;;;;;
1299.0;1206.9;;;;;;;;;;;;;-6;;;;;;;;
1299.0;1206.9;;;;;;;;;;;;;-26;;;;;;;;
1299.0;1206.9;;;;;;;;;;;;;-13;;;;;;;;
1299.0;1207.2;;;;-0.80114377;-0.026802067;-0.13305284;;;;;;;;;;;;;;;
1299.0;1207.2;;;;-0.79729855;-0.028053287;-0.13405229;;;;;;;;;;;;;;;
1299.0;1207.2;;;;-0.7941743;-0.029174808;-0.13465883;;;;;;;;;;;;;;;
1299.0;1207.2;;;;-0.7911569;-0.030143742;-0.13515855;;;;;;;;;;;;;;;
1299.0;1207.2;;;;-0.78886425;-0.031215671;-0.13591386;;;;;;;;;;;;;;;
1299.0;1217.2;;;;-0.7862092;-0.032672886;-0.13676073;;;;;;;;;;;;;;;
1299.0;1217.2;;;;-0.7836076;-0.033473972;-0.13845827;;;;;;;;;;;;;;;
1299.0;1217.2;;;;-0.7815896;-0.03457642;-0.1401024;;;;;;;;;;;;;;;
1299.0;1217.2;;;;-0.7792131;-0.03538132;-0.14091112;;;;;;;;;;;;;;;
1299.0;1217.2;;;;-0.7772752;-0.035594944;-0.14129259;;;;;;;;;;;;;;;
1299.0;1220.7;123023;123024;11317;;;;;;;;;;;;;;;;;;
1299.0;1227.3;;;;-0.775612;-0.0359726;-0.14252473;;;;;;;;;;;;;;;
1299.0;1227.3;;;;-0.7742387;-0.035839085;-0.14319994;;;;;;;;;;;;;;;
1299.0;1227.3;;;;-0.7735635;-0.035587315;-0.144722;;;;;;;;;;;;;;;
1299.0;1227.3;;;;-0.7730943;-0.035171513;-0.14667894;;;;;;;;;;;;;;;
1299.0;1227.3;;;;-0.7730218;-0.034233097;-0.14865114;;;;;;;;;;;;;;;
1302.0;1237.5;;;;-0.7730409;-0.033088688;-0.15026857;;;;;;;;;;;;;;;
1302.0;1237.5;;;;-0.7730409;-0.032112125;-0.15158464;;;;;;;;;;;;;;;
1302.0;1237.5;;;;-0.7729837;-0.031040195;-0.15303423;;;;;;;;;;;;;;;
1302.0;1237.5;;;;-0.77243817;-0.029766086;-0.15338899;;;;;;;;;;;;;;;
1302.0;1237.5;;;;-0.77116406;-0.02852631;-0.15415956;;;;;;;;;;;;;;;
1302.0;1241.0;139353;139385;11299;;;;;;;;;;;;;;;;;;
1302.0;1243.5;;;;;;;;;;;;;;;;;-19.623402;-22.362436;-30.808435;;1129.0
1302.0;1243.5;;;;;;;;;;;;;;0.5081332;0.007873775;0.11877804;;;;;1129.0
1302.0;1243.5;;;;;;;;;;;;;;;;;-14.927366;-25.719473;-26.139103;;1129.0
1302.0;1243.5;;;;;;;;;;;;;;0.5175939;0.0040284432;0.122562334;;;;;1129.0
1302.0;1243.5;;;;;;;;;;;;;;;;;-11.764886;-28.176214;-20.527512;;1138.7
1302.0;1243.5;;;;;;;;;;;;;;0.5249184;-6.103702E-5;0.11175878;;;;;1138.7
1302.0;1243.5;;;;;;;;;;;;;;;;;-9.903256;-28.78277;-14.442884;;1138.7
1302.0;1243.5;;;;;;;;;;;;;;0.5199133;-0.017639698;0.11902219;;;;;1138.7
1302.0;1243.5;;;;;;;;;;;;;;;;;-8.342998;-29.240547;-9.224219;;1148.2
1302.0;1243.5;;;;;;;;;;;;;;0.50428784;-0.024536882;0.13562426;;;;;1148.2
1302.0;1243.5;;;;;;;;;;;;;;;;;-6.76748;-31.064028;-4.0894804;;1148.2
1302.0;1243.5;;;;;;;;;;;;;;0.4937895;-0.0113528855;0.14777063;;;;;1148.2
1305.0;1244.7;;;;;;;;;;;;;;;;;-6.2524796;-32.528915;1.7281106;;1157.9
1305.0;1244.7;;;;;;;;;;;;;;0.49024934;-0.0027466659;0.1530198;;;;;1157.9
1305.0;1244.7;;;;;;;;;;;;;;;;;-5.1919613;-32.8074;7.003998;;1157.9
1305.0;1244.7;;;;;;;;;;;;;;0.48316905;0.019104587;0.1596118;;;;;1157.9
1305.0;1244.7;;;;;;;;;;;;;;;;;-4.8142953;-32.25425;12.207404;;1167.6
1305.0;1244.7;;;;;;;;;;;;;;0.47309792;0.0507828;0.16400647;;;;;1167.6
1305.0;1244.7;;;;;;;;;;;;;;;;;-4.7265544;-30.762657;18.22718;;1167.6
1305.0;1244.7;;;;;;;;;;;;;;0.46797082;0.078981906;0.16943876;;;;;1167.6
1305.0;1244.7;;;;;;;;;;;;;;;;;-4.9630723;-28.653065;24.68566;;1177.2
1305.0;1244.7;;;;;;;;;;;;;;0.46406445;0.09350871;0.17523728;;;;;1177.2
1305.0;1244.7;;;;;;;;;;;;;;;;;-4.589221;-27.226326;30.61388;;1177.2
1305.0;1244.7;;;;;;;;;;;;;;0.4593646;0.103152566;0.18060854;;;;;1177.2
1305.0;1247.1;;;;;;;;;;;;;-49;;;;;;;;
1305.0;1247.1;;;;;;;;;;;;;-37;;;;;;;;
1305.0;1247.1;;;;;;;;;;;;;6;;;;;;;;
1305.0;1247.1;;;;;;;;;;;;;-209;;;;;;;;
1305.0;1247.1;;;;;;;;;;;;;45;;;;;;;;
1305.0;1247.4;;;;-0.7693902;-0.026966099;-0.15573503;;;;;;;;;;;;;;;
1305.0;1247.4;;;;-0.7682611;-0.025485996;-0.15712358;;;;;;;;;;;;;;;
1305.0;1247.4;;;;-0.76679623;-0.023899082;-0.15797807;;;;;;;;;;;;;;;
1305.0;1247.4;;;;-0.76570904;-0.02231598;-0.15888597;;;;;;;;;;;;;;;
1305.0;1247.4;;;;-0.7642671;-0.020931246;-0.16023637;;;;;;;;;;;;;;;
1363.0;1257.5;;;;-0.7628366;-0.018939974;-0.16069414;;;;;;;;;;;;;;;
1363.0;1257.5;;;;-0.7610208;-0.01748276;-0.16126634;;;;;;;;;;;;;;;
1363.0;1257.5;;;;-0.7586709;-0.015888216;-0.16072847;;;;;;;;;;;;;;;
1363.0;1257.5;;;;-0.7557374;-0.013553621;-0.15919878;;;;;;;;;;;;;;;
1363.0;1257.5;;;;-0.7520639;-0.011425019;-0.15787126;;;;;;;;;;;;;;;
1363.0;1261.0;155736;155814;11304;;;;;;;;;;;;;;;;;;
1363.0;1267.4;;;;-0.7474175;-0.009502412;-0.15698625;;;;;;;;;;;;;;;
1363.0;1267.4;;;;-0.7421952;-0.0070724497;-0.1564522;;;;;;;;;;;;;;;
1363.0;1267.4;;;;-0.7376633;-0.0044479375;-0.15558244;;;;;;;;;;;;;;;
1363.0;1267.4;;;;-0.7328835;-0.002182007;-0.15519716;;;;;;;;;;;;;;;
1363.0;1267.4;;;;-0.7289162;-2.0980838E-4;-0.1548958;;;;;;;;;;;;;;;
1363.0;1277.4;;;;-0.72518927;0.0019645693;-0.15478517;;;;;;;;;;;;;;;
1363.0;1277.4;;;;-0.7214852;0.0032348637;-0.15503313;;;;;;;;;;;;;;;
1363.0;1277.4;;;;-0.7171021;0.0040473943;-0.15558626;;;;;;;;;;;;;;;
1363.0;1277.4;;;;-0.7133103;0.004932404;-0.15635301;;;;;;;;;;;;;;;
1363.0;1277.4;;;;-0.7093316;0.005474091;-0.15672685;;;;;;;;;;;;;;;
1363.0;1281.0;172224;172181;11311;;;;;;;;;;;;;;;;;;
1363.0;1287.3;;;;;;;;;;;;;577;;;;;;;;
1363.0;1287.3;;;;;;;;;;;;;-191;;;;;;;;
1363.0;1287.3;;;;;;;;;;;;;-1238;;;;;;;;
1363.0;1287.3;;;;;;;;;;;;;763;;;;;;;;
1363.0;1287.3;;;;;;;;;;;;;6761;;;;;;;;
1367.0;1287.5;;;;-0.7067452;0.0054245;-0.15760042;;;;;;;;;;;;;;;
1367.0;1287.5;;;;-0.7044869;0.004467011;-0.15790178;;;;;;;;;;;;;;;
1367.0;1287.5;;;;-0.7029496;0.003952027;-0.15835573;;;;;;;;;;;;;;;
1367.0;1287.5;;;;-0.7027741;0.0027770998;-0.1593094;;;;;;;;;;;;;;;
1367.0;1287.5;;;;-0.70240027;0.001235962;-0.16064455;;;;;;;;;;;;;;;
1367.0;1297.6;;;;-0.7025338;-1.7547609E-4;-0.1622429;;;;;;;;;;;;;;;
1367.0;1297.6;;;;-0.7025872;-0.0024642947;-0.16459276;;;;;;;;;;;;;;;
1367.0;1297.6;;;;-0.7029763;-0.0044631963;-0.16612627;;;;;;;;;;;;;;;
1367.0;1297.6;;;;-0.703785;-0.0065307627;-0.16810991;;;;;;;;;;;;;;;
1367.0;1297.6;;;;-0.70403296;-0.008602143;-0.1701317;;;;;;;;;;;;;;;
1367.0;1301.3;188550;188537;11348;;;;;;;;;;;;;;;;;;
1367.0;1303.8;;;;;;;;;;;;;;;;;-2.9412215;-27.054659;35.82873;;1186.8
1367.0;1303.8;;;;;;;;;;;;;;0.45991394;0.123538926;0.16876736;;;;;1186.8
1367.0;1303.8;;;;;;;;;;;;;;;;;-1.0223701;-27.256845;41.390728;;1186.8
1367.0;1303.8;;;;;;;;;;;;;;0.4588763;0.13592944;0.14557329;;;;;1186.8
1367.0;1303.8;;;;;;;;;;;;;;;;;0.40055543;-26.638844;47.624134;;1196.5
1367.0;1303.8;;;;;;;;;;;;;;0.4456923;0.12604144;0.12359996;;;;;1196.5
1367.0;1303.8;;;;;;;;;;;;;;;;;1.5259255;-26.360363;54.10169;;1196.5
1367.0;1303.8;;;;;;;;;;;;;;0.4250618;0.12408826;0.11896115;;;;;1196.5
1367.0;1303.8;;;;;;;;;;;;;;;;;3.1357768;-28.64925;61.044647;;1206.1
1367.0;1303.8;;;;;;;;;;;;;;0.41035187;0.07824946;0.10058901;;;;;1206.1
1367.0;1303.8;;;;;;;;;;;;;;;;;6.611072;-31.311993;67.45735;;1206.1
1367.0;1303.8;;;;;;;;;;;;;;0.3961913;0.027710807;0.068971835;;;;;1206.1
1373.0;1304.6;;;;;;;;;;;;;;;;;11.6962185;-32.24662;72.321236;;1215.7
1373.0;1304.6;;;;;;;;;;;;;;0.39417708;0.035279397;0.03955199;;;;;1215.7
1373.0;1304.6;;;;;;;;;;;;;;;;;19.028292;-32.265694;76.570946;;1215.7
1373.0;1304.6;;;;;;;;;;;;;;0.39130834;0.08191168;0.037049472;;;;;1215.7
1373.0;1304.6;;;;;;;;;;;;;;;;;27.550583;-34.875027;81.053345;;1225.4
1373.0;1304.6;;;;;;;;;;;;;;0.4051027;0.09521775;0.018372143;;;;;1225.4
1373.0;1304.6;;;;;;;;;;;;;;;;;38.239693;-40.375988;88.28624;;1225.4
1373.0;1304.6;;;;;;;;;;;;;;0.40186775;0.04260384;-0.039429914;;;;;1225.4
1373.0;1304.6;;;;;;;;;;;;;;;;;48.29173;-46.998505;98.83038;;1235.0
1373.0;1304.6;;;;;;;;;;;;;;0.46424755;-0.0042115543;-0.09009064;;;;;1235.0
1373.0;1304.6;;;;;;;;;;;;;;;;;49.382767;-43.321026;111.01489;;1235.0
1373.0;1304.6;;;;;;;;;;;;;;0.573809;-0.024109622;-0.039185766;;;;;1235.0
1373.0;1307.6;;;;-0.7043076;-0.010448457;-0.17231752;;;;;;;;;;;;;;;
1373.0;1307.6;;;;-0.7040749;-0.012752535;-0.17432787;;;;;;;;;;;;;;;
1373.0;1307.6;;;;-0.70341116;-0.014804842;-0.17665102;;;;;;;;;;;;;;;
1373.0;1307.6;;;;-0.7019349;-0.016738893;-0.17812349;;;;;;;;;;;;;;;
1373.0;1307.6;;;;-0.7000466;-0.01886368;-0.1803055;;;;;;;;;;;;;;;
1373.0;1317.7;;;;-0.6975098;-0.020526888;-0.18251802;;;;;;;;;;;;;;;
1373.0;1317.7;;;;-0.6953812;-0.022521975;-0.18532182;;;;;;;;;;;;;;;
1373.0;1317.7;;;;-0.6943055;-0.024024967;-0.1868744;;;;;;;;;;;;;;;
1373.0;1317.7;;;;-0.69435126;-0.025573734;-0.1893349;;;;;;;;;;;;;;;
1373.0;1317.7;;;;-0.69546896;-0.027915958;-0.19043353;;;;;;;;;;;;;;;
1420.0;1318.7;;;;;;;;;;;;;;;;;36.523026;-26.181067;117.3513;;1244.6
1420.0;1318.7;;;;;;;;;;;;;;0.6214789;0.03485214;0.16199225;;;;;1244.6
1420.0;1318.7;;;;;;;;;;;;;;;;;27.466658;-20.443586;119.75463;;1244.6
1420.0;1318.7;;;;;;;;;;;;;;0.5271157;0.12671286;0.38953826;;;;;1244.6
1420.0;1318.7;;;;;;;;;;;;;;;;;36.29032;-51.747948;124.03104;;1254.1
1420.0;1318.7;;;;;;;;;;;;;;0.42738122;0.067751095;0.34150213;;;;;1254.1
1420.0;1318.7;;;;;;;;;;;;;;;;;52.34306;-89.27808;124.988556;;1254.1
1420.0;1318.7;;;;;;;;;;;;;;0.48194832;0.013245033;0.14307077;;;;;1254.1
1420.0;1318.7;;;;;;;;;;;;;;;;;61.723686;-90.31571;124.988556;;1263.8
1420.0;1318.7;;;;;;;;;;;;;;0.5916318;-0.047975097;0.0783105;;;;;1263.8
1420.0;1318.7;;;;;;;;;;;;;;;;;65.76357;-63.24198;124.988556;;1263.8
1420.0;1318.7;;;;;;;;;;;;;;0.62929165;-0.1126133;0.16473891;;;;;1263.8
1420.0;1321.2;204948;204926;11370;;;;;;;;;;;;;;;;;;
1420.0;1327.3;;;;;;;;;;;;;12915;;;;;;;;
1420.0;1327.3;;;;;;;;;;;;;14660;;;;;;;;
1420.0;1327.3;;;;;;;;;;;;;12146;;;;;;;;
1420.0;1327.3;;;;;;;;;;;;;11531;;;;;;;;
1420.0;1327.3;;;;;;;;;;;;;14154;;;;;;;;
1420.0;1327.4;;;;-0.6979485;-0.029769901;-0.19197848;;;;;;;;;;;;;;;
1420.0;1327.4;;;;-0.7013894;-0.031250004;-0.19276431;;;;;;;;;;;;;;;
1420.0;1327.4;;;;-0.70592123;-0.032455448;-0.19410327;;;;;;;;;;;;;;;
1420.0;1327.4;;;;-0.7111321;-0.03392029;-0.19629672;;;;;;;;;;;;;;;
1420.0;1327.4;;;;-0.7170144;-0.034744266;-0.19887546;;;;;;;;;;;;;;;
1421.0;1337.4;;;;-0.7232285;-0.0359726;-0.20138171;;;;;;;;;;;;;;;
1421.0;1337.4;;;;-0.7293206;-0.036621097;-0.20406726;;;;;;;;;;;;;;;
1421.0;1337.4;;;;-0.7356606;-0.037982944;-0.20674136;;;;;;;;;;;;;;;
1421.0;1337.4;;;;-0.74192053;-0.038887028;-0.20972064;;;;;;;;;;;;;;;
1421.0;1337.4;;;;-0.7484818;-0.039264683;-0.21210864;;;;;;;;;;;;;;;
1421.0;1341.2;221350;221350;11399;;;;;;;;;;;;;;;;;;
1421.0;1347.5;;;;-0.7551271;-0.0392952;-0.21464923;;;;;;;;;;;;;;;
1421.0;1347.5;;;;-0.761078;-0.03881455;-0.21781161;;;;;;;;;;;;;;;
1421.0;1347.5;;;;-0.767872;-0.037910465;-0.22010043;;;;;;;;;;;;;;;
1421.0;1347.5;;;;-0.7727281;-0.037689213;-0.22375491;;;;;;;;;;;;;;;
1421.0;1347.5;;;;-0.77767193;-0.036788944;-0.22653964;;;;;;;;;;;;;;;
1421.0;1357.6;;;;-0.7817346;-0.035430912;-0.22832873;;;;;;;;;;;;;;;
1421.0;1357.6;;;;-0.7855073;-0.03427506;-0.22997287;;;;;;;;;;;;;;;
1421.0;1357.6;;;;-0.78976834;-0.033103947;-0.2309914;;;;;;;;;;;;;;;
1421.0;1357.6;;;;-0.793419;-0.031291965;-0.23313525;;;;;;;;;;;;;;;
1421.0;1357.6;;;;-0.7985002;-0.02903748;-0.23478702;;;;;;;;;;;;;;;
1421.0;1361.5;237630;237724;11441;;;;;;;;;;;;;;;;;;
1424.0;1364.3;;;;;;;;;;;;;;;;;61.826683;-30.3621;124.988556;;1273.5
1424.0;1364.3;;;;;;;;;;;;;;0.6011536;-0.15649892;0.3183691;;;;;1273.5
1424.0;1364.3;;;;;;;;;;;;;;;;;53.323467;-15.285958;124.988556;;1273.5
1424.0;1364.3;;;;;;;;;;;;;;0.5644093;-0.16840114;0.41828668;;;;;1273.5
1424.0;1364.3;;;;;;;;;;;;;;;;;47.418133;-24.58266;124.988556;;1283.1
1424.0;1364.3;;;;;;;;;;;;;;0.5537889;-0.135197;0.3700064;;;;;1283.1
1424.0;1364.3;;;;;;;;;;;;;;;;;45.346687;-39.880062;124.96567;;1283.1
1424.0;1364.3;;;;;;;;;;;;;;0.6122623;-0.033448286;0.20673238;;;;;1283.1
1424.0;1364.3;;;;;;;;;;;;;;;;;46.422466;-39.036987;124.832146;;1292.8
1424.0;1364.3;;;;;;;;;;;;;;0.6883755;0.02764977;0.005920591;;;;;1292.8
1424.0;1364.3;;;;;;;;;;;;;;;;;48.68847;-19.65392;124.95041;;1292.8
1424.0;1364.3;;;;;;;;;;;;;;0.76094854;0.08307138;-0.11346782;;;;;1292.8
1424.0;1367.6;;;;;;;;;;;;;6752;;;;;;;;
1424.0;1367.6;;;;;;;;;;;;;-17013;;;;;;;;
1424.0;1367.6;;;;;;;;;;;;;-38526;;;;;;;;
1424.0;1367.6;;;;;;;;;;;;;-35537;;;;;;;;
1424.0;1367.6;;;;;;;;;;;;;-9824;;;;;;;;
1424.0;1367.6;;;;-0.80459607;-0.027187351;-0.23673251;;;;;;;;;;;;;;;
1424.0;1367.6;;;;-0.81095135;-0.025295261;-0.23939136;;;;;;;;;;;;;;;
1424.0;1367.6;;;;-0.8174783;-0.022975923;-0.2401276;;;;;;;;;;;;;;;
1424.0;1367.6;;;;-0.8247529;-0.020256044;-0.24079135;;;;;;;;;;;;;;;
1424.0;1367.6;;;;-0.8324243;-0.017082216;-0.24006656;;;;;;;;;;;;;;;
1482.0;1377.7;;;;-0.83900845;-0.014400484;-0.2393494;;;;;;;;;;;;;;;
1482.0;1377.7;;;;-0.8446847;-0.011161805;-0.23940662;;;;;;;;;;;;;;;
1482.0;1377.7;;;;-0.84957516;-0.0075263986;-0.23865893;;;;;;;;;;;;;;;
1482.0;1377.7;;;;-0.8542253;-0.0032119756;-0.23880008;;;;;;;;;;;;;;;
1482.0;1377.7;;;;-0.8590776;4.806519E-4;-0.2384148;;;;;;;;;;;;;;;
1482.0;1378.9;;;;;;;;;;;;;;;;;39.288765;-2.4796288;124.988556;;1302.5
1482.0;1378.9;;;;;;;;;;;;;;0.819422;0.14239937;-0.20001832;;;;;1302.5
1482.0;1378.9;;;;;;;;;;;;;;;;;18.715477;-2.6512957;124.74059;;1302.5
1482.0;1378.9;;;;;;;;;;;;;;0.8581194;0.22766808;-0.30152288;;;;;1302.5
1482.0;1378.9;;;;;;;;;;;;;;;;;-3.0175178;-18.829922;122.08548;;1312.1
1482.0;1378.9;;;;;;;;;;;;;;0.8895535;0.31159398;-0.43989378;;;;;1312.1
1482.0;1378.9;;;;;;;;;;;;;;;;;-13.607441;-44.209877;113.21604;;1312.1
1482.0;1378.9;;;;;;;;;;;;;;0.9699393;0.40699485;-0.5992004;;;;;1312.1
1482.0;1378.9;;;;;;;;;;;;;;;;;-4.7875915;-67.97616;97.579124;;1321.7
1482.0;1378.9;;;;;;;;;;;;;;1.0704062;0.47560045;-0.7248146;;;;;1321.7
1482.0;1378.9;;;;;;;;;;;;;;;;;25.456251;-84.89868;70.978424;;1321.7
1482.0;1378.9;;;;;;;;;;;;;;1.2723777;0.57747126;-0.78865933;;;;;1321.7
1482.0;1381.4;254085;254116;11482;;;;;;;;;;;;;;;;;;
1482.0;1387.5;;;;-0.863083;0.004665375;-0.23803714;;;;;;;;;;;;;;;
1482.0;1387.5;;;;-0.86665356;0.009384156;-0.23725894;;;;;;;;;;;;;;;
1482.0;1387.5;;;;-0.8689958;0.01395035;-0.2371712;;;;;;;;;;;;;;;
1482.0;1387.5;;;;-0.87059796;0.018428804;-0.2370682;;;;;;;;;;;;;;;
1482.0;1387.5;;;;-0.8724061;0.022464754;-0.23695758;;;;;;;;;;;;;;;
1485.0;1397.5;;;;-0.8742143;0.026489262;-0.23603442;;;;;;;;;;;;;;;
1485.0;1397.5;;;;-0.8762742;0.030399326;-0.23472598;;;;;;;;;;;;;;;
1485.0;1397.5;;;;-0.879284;0.034046177;-0.23374942;;;;;;;;;;;;;;;
1485.0;1397.5;;;;-0.8822633;0.037521366;-0.23325351;;;;;;;;;;;;;;;
1485.0;1397.5;;;;-0.8857728;0.040767673;-0.2323151;;;;;;;;;;;;;;;
1485.0;1401.4;262143;262143;11520;;;;;;;;;;;;;;;;;;
1485.0;1407.6;;;;-0.88920224;0.04366303;-0.23218158;;;;;;;;;;;;;;;
1485.0;1407.6;;;;-0.892048;0.04679871;-0.23186877;;;;;;;;;;;;;;;
1485.0;1407.6;;;;-0.8943254;0.049469;-0.23306277;;;;;;;;;;;;;;;
1485.0;1407.6;;;;-0.8976861;0.05156327;-0.234005;;;;;;;;;;;;;;;
1485.0;1407.6;;;;-0.90200055;0.053165443;-0.23637393;;;;;;;;;;;;;;;
1485.0;1407.6;;;;;;;;;;;;;14367;;;;;;;;
1485.0;1407.6;;;;;;;;;;;;;20026;;;;;;;;
1485.0;1407.6;;;;;;;;;;;;;14254;;;;;;;;
1485.0;1407.6;;;;;;;;;;;;;11377;;;;;;;;
1485.0;1407.6;;;;;;;;;;;;;12827;;;;;;;;
1485.0;1417.7;;;;-0.9074365;0.054409035;-0.23965839;;;;;;;;;;;;;;;
1485.0;1417.7;;;;-0.91547406;0.0551529;-0.2432442;;;;;;;;;;;;;;;
1485.0;1417.7;;;;-0.925068;0.05530549;-0.2469025;;;;;;;;;;;;;;;
1485.0;1417.7;;;;-0.93579876;0.05562211;-0.25053027;;;;;;;;;;;;;;;
1485.0;1417.7;;;;-0.9467622;0.05541993;-0.25481418;;;;;;;;;;;;;;;
1485.0;1421.7;262143;262143;11553;;;;;;;;;;;;;;;;;;
1539.0;1424.0;;;;;;;;;;;;;;;;;69.36857;-75.64776;38.327435;;1331.2
1539.0;1424.0;;;;;;;;;;;;;;1.536668;0.7392193;-0.6723838;;;;;1331.2
1539.0;1424.0;;;;;;;;;;;;;;;;;99.051636;-33.669548;20.401623;;1331.2
1539.0;1424.0;;;;;;;;;;;;;;1.8150579;1.0157781;-0.3876461;;;;;1331.2
1539.0;1424.0;;;;;;;;;;;;;;;;;117.42378;16.91107;37.209694;;1340.8
1539.0;1424.0;;;;;;;;;;;;;;1.8457595;1.0737633;-0.011535997;;;;;1340.8
1539.0;1424.0;;;;;;;;;;;;;;;;;124.938965;50.69887;58.744316;;1340.8
1539.0;1424.0;;;;;;;;;;;;;;1.5457015;0.86538285;0.38471633;;;;;1340.8
1539.0;1424.0;;;;;;;;;;;;;;;;;124.988556;42.60384;61.19724;;1350.4
1539.0;1424.0;;;;;;;;;;;;;;1.2026734;0.72109133;0.5106357;;;;;1350.4
1539.0;1424.0;;;;;;;;;;;;;;;;;124.988556;3.4752953;52.694023;;1350.4
1539.0;1424.0;;;;;;;;;;;;;;1.093173;0.74727625;0.2912076;;;;;1350.4
1539.0;1427.7;;;;-0.95811474;0.055847175;-0.2585564;;;;;;;;;;;;;;;
1539.0;1427.7;;;;-0.9688951;0.056358345;-0.2622452;;;;;;;;;;;;;;;
1539.0;1427.7;;;;-0.97882855;0.057163246;-0.26513293;;;;;;;;;;;;;;;
1539.0;1427.7;;;;-0.98812497;0.05892945;-0.26914218;;;;;;;;;;;;;;;
1539.0;1427.7;;;;-0.9964067;0.0610962;-0.27341464;;;;;;;;;;;;;;;
1539.0;1437.8;;;;-1.0043947;0.063610084;-0.2776833;;;;;;;;;;;;;;;
1539.0;1437.8;;;;-1.0131875;0.06664277;-0.281868;;;;;;;;;;;;;;;
1539.0;1437.8;;;;-1.0219423;0.070026405;-0.28792956;;;;;;;;;;;;;;;
1539.0;1437.8;;;;-1.0311166;0.073184974;-0.2936211;;;;;;;;;;;;;;;
1539.0;1437.8;;;;-1.0406381;0.07656098;-0.3001099;;;;;;;;;;;;;;;
1539.0;1441.7;262143;262143;11569;;;;;;;;;;;;;;;;;;
1544.0;1447.7;;;;-1.0521013;0.07977677;-0.30713657;;;;;;;;;;;;;;;
1544.0;1447.7;;;;-1.0632135;0.08184815;-0.31432727;;;;;;;;;;;;;;;
1544.0;1447.7;;;;-1.0759546;0.08504105;-0.3214951;;;;;;;;;;;;;;;
1544.0;1447.7;;;;-1.0895692;0.087551124;-0.32789233;;;;;;;;;;;;;;;
1544.0;1447.7;;;;-1.1035501;0.08990861;-0.33456805;;;;;;;;;;;;;;;
1544.0;1447.8;;;;;;;;;;;;;12674;;;;;;;;
1544.0;1447.8;;;;;;;;;;;;;11519;;;;;;;;
1544.0;1447.8;;;;;;;;;;;;;11318;;;;;;;;
1544.0;1447.8;;;;;;;;;;;;;10761;;;;;;;;
1544.0;1447.8;;;;;;;;;;;;;9835;;;;;;;;
1544.0;1457.7;;;;-1.1179086;0.09314347;-0.34106448;;;;;;;;;;;;;;;
1544.0;1457.7;;;;-1.1325532;0.09672548;-0.34755328;;;;;;;;;;;;;;;
1544.0;1457.7;;;;-1.1469995;0.10118486;-0.35391238;;;;;;;;;;;;;;;
1544.0;1457.7;;;;-1.1613542;0.105705276;-0.36031345;;;;;;;;;;;;;;;
1544.0;1457.7;;;;-1.1754571;0.11138536;-0.36656573;;;;;;;;;;;;;;;
1544.0;1461.8;262143;262143;11618;;;;;;;;;;;;;;;;;;
1544.0;1467.8;;;;-1.1886445;0.11749269;-0.37350085;;;;;;;;;;;;;;;
1544.0;1467.8;;;;-1.2010041;0.123943344;-0.37992865;;;;;;;;;;;;;;;
1544.0;1467.8;;;;-1.2129709;0.13204576;-0.3856011;;;;;;;;;;;;;;;
1544.0;1467.8;;;;-1.2236596;0.14095308;-0.39189535;;;;;;;;;;;;;;;
1544.0;1467.8;;;;-1.2329332;0.1497841;-0.39783484;;;;;;;;;;;;;;;
1545.0;1478.0;;;;-1.2413026;0.15945055;-0.40320593;;;;;;;;;;;;;;;
1545.0;1478.0;;;;-1.2486612;0.1694832;-0.4082108;;;;;;;;;;;;;;;
1545.0;1478.0;;;;-1.2542001;0.17925645;-0.41307455;;;;;;;;;;;;;;;
1545.0;1478.0;;;;-1.2588159;0.18922046;-0.41759115;;;;;;;;;;;;;;;
1545.0;1478.0;;;;-1.2627679;0.19907382;-0.42186362;;;;;;;;;;;;;;;
1545.0;1482.1;262143;262143;11660;;;;;;;;;;;;;;;;;;
1545.0;1484.5;;;;;;;;;;;;;;;;;124.118774;-26.944029;48.50154;;1360.1
1545.0;1484.5;;;;;;;;;;;;;;1.0678426;0.7564928;0.06646931;;;;;1360.1
1545.0;1484.5;;;;;;;;;;;;;;;;;108.32164;-38.26258;44.663837;;1360.1
1545.0;1484.5;;;;;;;;;;;;;;1.0302439;0.78817105;-0.019287698;;;;;1360.1
1545.0;1484.5;;;;;;;;;;;;;;;;;78.524124;-36.790062;40.440838;;1369.8
1545.0;1484.5;;;;;;;;;;;;;;0.95937985;0.85439616;0.06970428;;;;;1369.8
1545.0;1484.5;;;;;;;;;;;;;;;;;55.3415;-37.224953;37.423325;;1369.8
1545.0;1484.5;;;;;;;;;;;;;;0.9449141;0.8550066;0.15332499;;;;;1369.8
1545.0;1484.5;;;;;;;;;;;;;;;;;46.296577;-34.745323;33.845028;;1379.5
1545.0;1484.5;;;;;;;;;;;;;;1.0027772;0.82430494;0.19287698;;;;;1379.5
1545.0;1484.5;;;;;;;;;;;;;;;;;45.201725;-18.276772;27.977842;;1379.5
1545.0;1484.5;;;;;;;;;;;;;;1.038789;0.8100223;0.26819667;;;;;1379.5
1547.0;1485.3;;;;;;;;;;;;;;;;;47.631763;3.5248878;18.620106;;1389.0
1547.0;1485.3;;;;;;;;;;;;;;1.0779138;0.81783503;0.30774865;;;;;1389.0
1547.0;1485.3;;;;;;;;;;;;;;;;;57.897427;24.121067;7.976775;;1389.0
1547.0;1485.3;;;;;;;;;;;;;;1.0823694;0.7629017;0.20648824;;;;;1389.0
1547.0;1485.3;;;;;;;;;;;;;;;;;82.15583;45.056763;-4.890591;;1398.7
1547.0;1485.3;;;;;;;;;;;;;;1.0433058;0.6540727;0.11548204;;;;;1398.7
1547.0;1485.3;;;;;;;;;;;;;;;;;115.05478;51.33595;-13.912625;;1398.7
1547.0;1485.3;;;;;;;;;;;;;;0.82253486;0.43964964;0.26355785;;;;;1398.7
1547.0;1485.3;;;;;;;;;;;;;;;;;124.988556;-35.065765;-19.978178;;1408.3
1547.0;1485.3;;;;;;;;;;;;;;0.8069094;0.40443128;0.1490524;;;;;1408.3
1547.0;1485.3;;;;;;;;;;;;;;;;;124.988556;-118.6636;-18.230995;;1408.3
1547.0;1485.3;;;;;;;;;;;;;;1.2112796;0.32740256;-0.3366802;;;;;1408.3
1547.0;1487.9;;;;-1.2660753;0.2086983;-0.42514426;;;;;;;;;;;;;;;
1547.0;1487.9;;;;-1.266308;0.21800235;-0.42733008;;;;;;;;;;;;;;;
1547.0;1487.9;;;;-1.2633477;0.22729114;-0.43071753;;;;;;;;;;;;;;;
1547.0;1487.9;;;;-1.258011;0.23558429;-0.43305975;;;;;;;;;;;;;;;
1547.0;1487.9;;;;-1.2505952;0.24346545;-0.43436438;;;;;;;;;;;;;;;
1547.0;1488.1;;;;;;;;;;;;;8926;;;;;;;;
1547.0;1488.1;;;;;;;;;;;;;8015;;;;;;;;
1547.0;1488.1;;;;;;;;;;;;;7176;;;;;;;;
1547.0;1488.1;;;;;;;;;;;;;6094;;;;;;;;
1547.0;1488.1;;;;;;;;;;;;;4791;;;;;;;;
1600.0;1491.9;;;;;;;;;;;;;;;;;124.988556;-123.93567;-3.9635916;;1417.9
1600.0;1491.9;;;;;;;;;;;;;;1.4870449;0.09533983;-0.58229315;;;;;1417.9
1600.0;1491.9;;;;;;;;;;;;;;;;;121.99393;-94.5349;15.297402;;1417.9
1600.0;1491.9;;;;;;;;;;;;;;1.6364025;-0.022034364;-0.380871;;;;;1417.9
1600.0;1491.9;;;;;;;;;;;;;;;;;87.72546;-58.58791;48.371838;;1427.6
1600.0;1491.9;;;;;;;;;;;;;;1.5688956;-0.20538957;0.065187536;;;;;1427.6
1600.0;1491.9;;;;;;;;;;;;;;;;;4.936369;-71.764275;84.75753;;1427.6
1600.0;1491.9;;;;;;;;;;;;;;1.4283273;-0.54829556;3.051851E-4;;;;;1427.6
1600.0;1491.9;;;;;;;;;;;;;;;;;-44.606613;-88.354904;83.47957;;1437.3
1600.0;1491.9;;;;;;;;;;;;;;1.2608417;-0.6720786;-0.2896817;;;;;1437.3
1600.0;1491.9;;;;;;;;;;;;;;;;;-73.09946;-55.7268;50.180058;;1437.3
1600.0;1491.9;;;;;;;;;;;;;;1.386578;-0.5043489;-0.4522843;;;;;1437.3
1600.0;1497.9;;;;-1.2417909;0.25086978;-0.4343949;;;;;;;;;;;;;;;
1600.0;1497.9;;;;-1.2304612;0.2578278;-0.43325812;;;;;;;;;;;;;;;
1600.0;1497.9;;;;-1.2170793;0.26248172;-0.4310456;;;;;;;;;;;;;;;
1600.0;1497.9;;;;-1.2014962;0.26633456;-0.42939383;;;;;;;;;;;;;;;
1600.0;1497.9;;;;-1.1837312;0.26861194;-0.42705923;;;;;;;;;;;;;;;
1600.0;1502.0;262143;262143;11706;;;;;;;;;;;;;;;;;;
1600.0;1507.7;;;;-1.1646882;0.26964572;-0.42454916;;;;;;;;;;;;;;;
1600.0;1507.7;;;;-1.1457635;0.26871493;-0.4213639;;;;;;;;;;;;;;;
1600.0;1507.7;;;;-1.128277;0.26583102;-0.41859823;;;;;;;;;;;;;;;
1600.0;1507.7;;;;-1.1137086;0.2612839;-0.41781622;;;;;;;;;;;;;;;
1600.0;1507.7;;;;-1.1017953;0.25413135;-0.41748816;;;;;;;;;;;;;;;
1605.0;1517.5;;;;-1.0936204;0.24496844;-0.41672903;;;;;;;;;;;;;;;
1605.0;1517.5;;;;-1.0887872;0.23447421;-0.4184113;;;;;;;;;;;;;;;
1605.0;1517.5;;;;-1.0882989;0.2221146;-0.42276388;;;;;;;;;;;;;;;
1605.0;1517.5;;;;-1.0931932;0.2091141;-0.42889792;;;;;;;;;;;;;;;
1605.0;1517.5;;;;-1.1037828;0.19545367;-0.43581778;;;;;;;;;;;;;;;
1605.0;1521.8;262143;262143;11722;;;;;;;;;;;;;;;;;;
1605.0;1527.6;;;;-1.1200906;0.18199159;-0.44300085;;;;;;;;;;;;;;;
1605.0;1527.6;;;;-1.1398088;0.16825868;-0.44980627;;;;;;;;;;;;;;;
1605.0;1527.6;;;;-1.1623994;0.15577699;-0.45711523;;;;;;;;;;;;;;;
1605.0;1527.6;;;;-1.1868593;0.14437868;-0.46414572;;;;;;;;;;;;;;;
1605.0;1527.6;;;;-1.2129709;0.13468553;-0.47139364;;;;;;;;;;;;;;;
1605.0;1527.9;;;;;;;;;;;;;3624;;;;;;;;
1605.0;1527.9;;;;;;;;;;;;;2603;;;;;;;;
1605.0;1527.9;;;;;;;;;;;;;1339;;;;;;;;
1605.0;1527.9;;;;;;;;;;;;;-148;;;;;;;;
1605.0;1527.9;;;;;;;;;;;;;-1457;;;;;;;;
1605.0;1537.8;;;;-1.2391626;0.12696458;-0.47842795;;;;;;;;;;;;;;;
1605.0;1537.8;;;;-1.2650033;0.121280685;-0.48512274;;;;;;;;;;;;;;;
1605.0;1537.8;;;;-1.2881967;0.11791612;-0.49088293;;;;;;;;;;;;;;;
1605.0;1537.8;;;;-1.3083459;0.11726762;-0.49350744;;;;;;;;;;;;;;;
1605.0;1537.8;;;;-1.3237382;0.11913301;-0.4948464;;;;;;;;;;;;;;;
1605.0;1542.1;262143;262143;11729;;;;;;;;;;;;;;;;;;
1609.0;1544.4;;;;;;;;;;;;;;;;;-111.301;76.03305;16.228218;;1446.8
1609.0;1544.4;;;;;;;;;;;;;;1.4536576;-0.23187964;0.11859493;;;;;1446.8
1609.0;1544.4;;;;;;;;;;;;;;;;;-87.59957;117.313156;-3.2883694;;1446.8
1609.0;1544.4;;;;;;;;;;;;;;0.84810936;-0.17200232;0.87527084;;;;;1446.8
1609.0;1544.4;;;;;;;;;;;;;;;;;19.047365;5.176702;-30.327768;;1456.5
1609.0;1544.4;;;;;;;;;;;;;;0.65199745;0.043153174;0.54768515;;;;;1456.5
1609.0;1544.4;;;;;;;;;;;;;;;;;111.15985;-110.45411;-55.494095;;1456.5
1609.0;1544.4;;;;;;;;;;;;;;0.89144564;0.30872524;-0.26410717;;;;;1456.5
1609.0;1544.4;;;;;;;;;;;;;;;;;124.51933;-111.827446;-72.91254;;1466.1
1609.0;1544.4;;;;;;;;;;;;;;1.0425733;0.7475814;-0.6176946;;;;;1466.1
1609.0;1544.4;;;;;;;;;;;;;;;;;96.43849;-45.88458;-53.498947;;1466.1
1609.0;1544.4;;;;;;;;;;;;;;0.9252602;0.8800928;-0.5290689;;;;;1466.1
1609.0;1547.8;;;;-1.3337365;0.122921005;-0.49456793;;;;;;;;;;;;;;;
1609.0;1547.8;;;;-1.3385469;0.12827684;-0.4934693;;;;;;;;;;;;;;;
1609.0;1547.8;;;;-1.339161;0.13449861;-0.49159628;;;;;;;;;;;;;;;
1609.0;1547.8;;;;-1.3374406;0.14248659;-0.4904557;;;;;;;;;;;;;;;
1609.0;1547.8;;;;-1.3333589;0.15002443;-0.48940283;;;;;;;;;;;;;;;
1610.0;1551.8;;;;;;;;;;;;;;;;;34.51262;4.5739617;-21.336254;;1475.8
1610.0;1551.8;;;;;;;;;;;;;;0.8615375;0.750267;-0.14728233;;;;;1475.8
1610.0;1551.8;;;;;;;;;;;;;;;;;1.0910367;-10.670034;-6.267739;;1475.8
1610.0;1551.8;;;;;;;;;;;;;;1.1578112;0.61110264;-0.22779016;;;;;1475.8
1610.0;1551.8;;;;;;;;;;;;;;;;;-8.301035;-34.16547;-22.320475;;1485.4
1610.0;1551.8;;;;;;;;;;;;;;1.5991699;0.8364513;-0.5811335;;;;;1485.4
1610.0;1551.8;;;;;;;;;;;;;;;;;-16.148108;-39.090393;-35.546432;;1485.4
1610.0;1551.8;;;;;;;;;;;;;;1.9956664;1.0081484;-0.97415084;;;;;1485.4
1610.0;1551.8;;;;;;;;;;;;;;;;;-29.793695;14.02707;-14.633626;;1495.1
1610.0;1551.8;;;;;;;;;;;;;;1.9970702;0.93215734;-0.90914637;;;;;1495.1
1610.0;1551.8;;;;;;;;;;;;;;;;;-48.61217;94.328896;12.691885;;1495.1
1610.0;1551.8;;;;;;;;;;;;;;1.9970702;0.40784937;-0.25855282;;;;;1495.1
1610.0;1557.7;;;;-1.3270112;0.15747072;-0.4891892;;;;;;;;;;;;;;;
1610.0;1557.7;;;;-1.319729;0.16518785;-0.48822027;;;;;;;;;;;;;;;
1610.0;1557.7;;;;-1.3112603;0.17266847;-0.4871903;;;;;;;;;;;;;;;
1610.0;1557.7;;;;-1.3037721;0.17980959;-0.48803335;;;;;;;;;;;;;;;
1610.0;1557.7;;;;-1.2970124;0.18642808;-0.49094015;;;;;;;;;;;;;;;
1610.0;1562.0;262143;262143;11744;;;;;;;;;;;;;;;;;;
1610.0;1567.7;;;;-1.2920915;0.19294742;-0.49473578;;;;;;;;;;;;;;;
1610.0;1567.7;;;;-1.2886773;0.19888309;-0.49693304;;;;;;;;;;;;;;;
1610.0;1567.7;;;;-1.285225;0.20406726;-0.4976235;;;;;;;;;;;;;;;
1610.0;1567.7;;;;-1.2807199;0.20718768;-0.49703223;;;;;;;;;;;;;;;
1610.0;1567.7;;;;-1.2742501;0.20957187;-0.4960671;;;;;;;;;;;;;;;
1661.0;1568.0;;;;;;;;;;;;;-2650;;;;;;;;
1661.0;1568.0;;;;;;;;;;;;;-4141;;;;;;;;
1661.0;1568.0;;;;;;;;;;;;;-5710;;;;;;;;
1661.0;1568.0;;;;;;;;;;;;;-6298;;;;;;;;
1661.0;1568.0;;;;;;;;;;;;;-5211;;;;;;;;
1661.0;1577.6;;;;-1.2665635;0.21107104;-0.49543005;;;;;;;;;;;;;;;
1661.0;1577.6;;;;-1.2597352;0.21110538;-0.496296;;;;;;;;;;;;;;;
1661.0;1577.6;;;;-1.2526017;0.21038821;-0.49651724;;;;;;;;;;;;;;;
1661.0;1577.6;;;;-1.2478372;0.20833972;-0.49789053;;;;;;;;;;;;;;;
1661.0;1577.6;;;;-1.2439233;0.20571521;-0.49782187;;;;;;;;;;;;;;;
1661.0;1581.9;262143;262143;11738;;;;;;;;;;;;;;;;;;
1661.0;1587.7;;;;-1.2412378;0.202652;-0.49760443;;;;;;;;;;;;;;;
1661.0;1587.7;;;;-1.2392389;0.19861606;-0.49748236;;;;;;;;;;;;;;;
1661.0;1587.7;;;;-1.2363702;0.19488147;-0.49592596;;;;;;;;;;;;;;;
1661.0;1587.7;;;;-1.2339593;0.19086841;-0.49435812;;;;;;;;;;;;;;;
1661.0;1587.7;;;;-1.2314912;0.18695833;-0.4920693;;;;;;;;;;;;;;;
1661.0;1597.8;;;;-1.2286683;0.18319322;-0.48940665;;;;;;;;;;;;;;;
1661.0;1597.8;;;;-1.2249871;0.17950441;-0.48769766;;;;;;;;;;;;;;;
1661.0;1597.8;;;;-1.2206155;0.17632677;-0.485035;;;;;;;;;;;;;;;
1661.0;1597.8;;;;-1.2160951;0.17321016;-0.48157126;;;;;;;;;;;;;;;
1661.0;1597.8;;;;-1.210457;0.17004396;-0.47706228;;;;;;;;;;;;;;;
1661.0;1602.2;262143;262143;11739;;;;;;;;;;;;;;;;;;
1663.0;1604.4;;;;;;;;;;;;;;;;;-40.601063;103.94223;22.43492;;1504.7
1663.0;1604.4;;;;;;;;;;;;;;1.853267;-0.119754635;0.42799157;;;;;1504.7
1663.0;1604.4;;;;;;;;;;;;;;;;;-11.864071;15.6788845;-14.751884;;1504.7
1663.0;1604.4;;;;;;;;;;;;;;1.2473525;-0.10052797;0.14337596;;;;;1504.7
1663.0;1604.4;;;;;;;;;;;;;;;;;23.689993;-73.435165;-53.98343;;1514.3
1663.0;1604.4;;;;;;;;;;;;;;1.254799;0.4361095;-0.30347607;;;;;1514.3
1663.0;1604.4;;;;;;;;;;;;;;;;;-0.7286294;-94.20301;-53.796505;;1514.3
1663.0;1604.4;;;;;;;;;;;;;;1.1553087;0.5877865;-0.78212833;;;;;1514.3
1663.0;1604.4;;;;;;;;;;;;;;;;;-27.336956;-62.00598;-52.05313;;1524.0
1663.0;1604.4;;;;;;;;;;;;;;0.98281807;0.6707358;-0.90774256;;;;;1524.0
1663.0;1604.4;;;;;;;;;;;;;;;;;-49.5468;-1.0261849;-39.84191;;1524.0
1663.0;1604.4;;;;;;;;;;;;;;0.74977875;0.5652638;-0.70082706;;;;;1524.0
1663.0;1607.7;;;;-1.2045709;0.16748811;-0.47266394;;;;;;;;;;;;;;;
1663.0;1607.7;;;;-1.1981393;0.1650963;-0.46865088;;;;;;;;;;;;;;;
1663.0;1607.7;;;;-1.1910707;0.16308214;-0.46490866;;;;;;;;;;;;;;;
1663.0;1607.7;;;;-1.1832124;0.16127016;-0.46163183;;;;;;;;;;;;;;;
1663.0;1607.7;;;;-1.1745797;0.15908052;-0.45778662;;;;;;;;;;;;;;;
1663.0;1608.1;;;;;;;;;;;;;-3036;;;;;;;;
1663.0;1608.1;;;;;;;;;;;;;-989;;;;;;;;
1663.0;1608.1;;;;;;;;;;;;;583;;;;;;;;
1663.0;1608.1;;;;;;;;;;;;;2255;;;;;;;;
1663.0;1608.1;;;;;;;;;;;;;3840;;;;;;;;
1722.0;1612.3;;;;;;;;;;;;;;;;;-58.915985;39.620655;-15.476699;;1533.7
1722.0;1612.3;;;;;;;;;;;;;;0.61922055;0.28186896;-0.32660908;;;;;1533.7
1722.0;1612.3;;;;;;;;;;;;;;;;;-57.252724;32.30003;8.564257;;1533.7
1722.0;1612.3;;;;;;;;;;;;;;0.77053136;-0.014709922;-0.12866604;;;;;1533.7
1722.0;1612.3;;;;;;;;;;;;;;;;;-41.974396;6.431776;36.717583;;1543.3
1722.0;1612.3;;;;;;;;;;;;;;0.85927916;-0.21814631;-0.17957091;;;;;1543.3
1722.0;1612.3;;;;;;;;;;;;;;;;;-12.150182;-15.167699;72.61116;;1543.3
1722.0;1612.3;;;;;;;;;;;;;;0.8509171;-0.4080935;-0.25263223;;;;;1543.3
1722.0;1612.3;;;;;;;;;;;;;;;;;11.097293;-28.164768;97.65923;;1553.0
1722.0;1612.3;;;;;;;;;;;;;;0.7527085;-0.55275124;-0.26673177;;;;;1553.0
1722.0;1612.3;;;;;;;;;;;;;;;;;22.297585;-47.639393;95.85101;;1553.0
1722.0;1612.3;;;;;;;;;;;;;;0.63997316;-0.6385693;-0.31104466;;;;;1553.0
1722.0;1617.7;;;;-1.1654397;0.15633775;-0.45368582;;;;;;;;;;;;;;;
1722.0;1617.7;;;;-1.1564332;0.15360643;-0.45091635;;;;;;;;;;;;;;;
1722.0;1617.7;;;;-1.147854;0.15098955;-0.44744116;;;;;;;;;;;;;;;
1722.0;1617.7;;;;-1.1390535;0.14752962;-0.44394308;;;;;;;;;;;;;;;
1722.0;1617.7;;;;-1.1304322;0.14368059;-0.43991095;;;;;;;;;;;;;;;
1722.0;1622.0;262143;262143;11744;;;;;;;;;;;;;;;;;;
1722.0;1627.6;;;;-1.1221124;0.13935854;-0.43574148;;;;;;;;;;;;;;;
1722.0;1627.6;;;;-1.1143304;0.13481142;-0.4323426;;;;;;;;;;;;;;;
1722.0;1627.6;;;;-1.1062318;0.1300316;-0.4285813;;;;;;;;;;;;;;;
1722.0;1627.6;;;;-1.0990182;0.12517549;-0.424614;;;;;;;;;;;;;;;
1722.0;1627.6;;;;-1.0917207;0.120590225;-0.42041403;;;;;;;;;;;;;;;
1724.0;1637.6;;;;-1.0843507;0.11602785;-0.41658407;;;;;;;;;;;;;;;
1724.0;1637.6;;;;-1.0770341;0.11145784;-0.41220862;;;;;;;;;;;;;;;
1724.0;1637.6;;;;-1.0692941;0.10706331;-0.4078217;;;;;;;;;;;;;;;
1724.0;1637.6;;;;-1.0605775;0.10260011;-0.403534;;;;;;;;;;;;;;;
1724.0;1637.6;;;;-1.0508653;0.09792711;-0.3987313;;;;;;;;;;;;;;;
1724.0;1642.2;262143;262143;11722;;;;;;;;;;;;;;;;;;
1724.0;1647.7;;;;-1.040722;0.093227394;-0.39339072;;;;;;;;;;;;;;;
1724.0;1647.7;;;;-1.0299951;0.08892823;-0.3892098;;;;;;;;;;;;;;;
1724.0;1647.7;;;;-1.0192033;0.08448792;-0.38396078;;;;;;;;;;;;;;;
1724.0;1647.7;;;;-1.008526;0.08006669;-0.37917715;;;;;;;;;;;;;;;
1724.0;1647.7;;;;-0.9975511;0.075687416;-0.37438968;;;;;;;;;;;;;;;
1724.0;1648.3;;;;;;;;;;;;;4600;;;;;;;;
1724.0;1648.3;;;;;;;;;;;;;4707;;;;;;;;
1724.0;1648.3;;;;;;;;;;;;;5333;;;;;;;;
1724.0;1648.3;;;;;;;;;;;;;7048;;;;;;;;
1724.0;1648.3;;;;;;;;;;;;;8548;;;;;;;;
1724.0;1657.8;;;;-0.98547757;0.07120515;-0.37053302;;;;;;;;;;;;;;;
1724.0;1657.8;;;;-0.9738313;0.066444404;-0.36625293;;;;;;;;;;;;;;;
1724.0;1657.8;;;;-0.96245587;0.06183625;-0.3616791;;;;;;;;;;;;;;;
1724.0;1657.8;;;;-0.9509088;0.057258613;-0.356926;;;;;;;;;;;;;;;
1724.0;1657.8;;;;-0.9402925;0.05196;-0.35244372;;;;;;;;;;;;;;;
1724.0;1662.4;262143;262143;11674;;;;;;;;;;;;;;;;;;
1725.0;1664.7;;;;;;;;;;;;;;;;;24.586475;-72.328865;74.05698;;1562.6
1725.0;1664.7;;;;;;;;;;;;;;0.5656911;-0.6394238;-0.4166387;;;;;1562.6
1725.0;1664.7;;;;;;;;;;;;;;;;;14.667959;-81.12964;38.93399;;1562.6
1725.0;1664.7;;;;;;;;;;;;;;0.5901669;-0.46748254;-0.5642262;;;;;1562.6
1725.0;1664.7;;;;;;;;;;;;;;;;;-8.754997;-69.81109;16.28544;;1572.2
1725.0;1664.7;;;;;;;;;;;;;;0.718894;-0.1716361;-0.6747032;;;;;1572.2
1725.0;1664.7;;;;;;;;;;;;;;;;;-25.971252;-53.52565;13.847774;;1572.2
1725.0;1664.7;;;;;;;;;;;;;;0.8339488;-0.083803825;-0.77053136;;;;;1572.2
1725.0;1664.7;;;;;;;;;;;;;;;;;-26.478622;-28.996399;7.8089237;;1581.9
1725.0;1664.7;;;;;;;;;;;;;;0.98922694;0.00573748;-0.70198673;;;;;1581.9
1725.0;1664.7;;;;;;;;;;;;;;;;;-25.055696;-10.971405;6.126591;;1581.9
1725.0;1664.7;;;;;;;;;;;;;;1.1980957;0.067079686;-0.56630147;;;;;1581.9
1725.0;1667.8;;;;-0.9304391;0.04688645;-0.3479195;;;;;;;;;;;;;;;
1725.0;1667.8;;;;-0.9214517;0.041614536;-0.34447864;;;;;;;;;;;;;;;
1725.0;1667.8;;;;-0.9143106;0.036693577;-0.3407555;;;;;;;;;;;;;;;
1725.0;1667.8;;;;-0.90768445;0.031478886;-0.33703616;;;;;;;;;;;;;;;
1725.0;1667.8;;;;-0.902382;0.02702332;-0.33298877;;;;;;;;;;;;;;;
1726.0;1672.2;;;;;;;;;;;;;;;;;-21.378216;-8.198035;11.177403;;1591.5
1726.0;1672.2;;;;;;;;;;;;;;1.3243202;0.11249123;-0.45020905;;;;;1591.5
1726.0;1672.2;;;;;;;;;;;;;;;;;-13.672293;-17.887661;20.226141;;1591.5
1726.0;1672.2;;;;;;;;;;;;;;1.241554;0.15686513;-0.37635425;;;;;1591.5
1726.0;1672.2;;;;;;;;;;;;;;;;;-5.6611834;-33.619953;27.703176;;1601.2
1726.0;1672.2;;;;;;;;;;;;;;1.0338451;0.15192114;-0.3632313;;;;;1601.2
1726.0;1672.2;;;;;;;;;;;;;;;;;1.1902219;-50.557724;29.057436;;1601.2
1726.0;1672.2;;;;;;;;;;;;;;0.9358806;0.16461684;-0.4176153;;;;;1601.2
1726.0;1672.2;;;;;;;;;;;;;;;;;4.7647023;-57.546463;25.963621;;1610.9
1726.0;1672.2;;;;;;;;;;;;;;0.9227576;0.20422986;-0.49372846;;;;;1610.9
1726.0;1672.2;;;;;;;;;;;;;;;;;0.7896664;-46.77343;22.335733;;1610.9
1726.0;1672.2;;;;;;;;;;;;;;0.9340495;0.26026186;-0.5022736;;;;;1610.9
1726.0;1677.8;;;;-0.8983804;0.02226639;-0.32975772;;;;;;;;;;;;;;;
1726.0;1677.8;;;;-0.8946687;0.017574312;-0.32696536;;;;;;;;;;;;;;;
1726.0;1677.8;;;;-0.8911706;0.0133361835;-0.3241997;;;;;;;;;;;;;;;
1726.0;1677.8;;;;-0.8882791;0.009399415;-0.32179263;;;;;;;;;;;;;;;
1726.0;1677.8;;;;-0.8852693;0.0052909856;-0.3194466;;;;;;;;;;;;;;;
1726.0;1682.3;262143;262143;11613;;;;;;;;;;;;;;;;;;
1726.0;1687.8;;;;-0.88230526;0.0015983584;-0.31678012;;;;;;;;;;;;;;;
1726.0;1687.8;;;;-0.8791009;-0.0022354128;-0.3141289;;;;;;;;;;;;;;;
1726.0;1687.8;;;;-0.8754388;-0.005447388;-0.31164172;;;;;;;;;;;;;;;
1726.0;1687.8;;;;-0.87137616;-0.008781434;-0.30907443;;;;;;;;;;;;;;;
1726.0;1687.8;;;;-0.8680612;-0.011775972;-0.3074837;;;;;;;;;;;;;;;
1781.0;1688.3;;;;;;;;;;;;;8597;;;;;;;;
1781.0;1688.3;;;;;;;;;;;;;7953;;;;;;;;
1781.0;1688.3;;;;;;;;;;;;;7919;;;;;;;;
1781.0;1688.3;;;;;;;;;;;;;8103;;;;;;;;
1781.0;1688.3;;;;;;;;;;;;;6862;;;;;;;;
1781.0;1697.6;;;;-0.86465085;-0.014385225;-0.30563357;;;;;;;;;;;;;;;
1781.0;1697.6;;;;-0.86127484;-0.016693117;-0.30310062;;;;;;;;;;;;;;;
1781.0;1697.6;;;;-0.85738385;-0.018680574;-0.30041888;;;;;;;;;;;;;;;
1781.0;1697.6;;;;-0.8537637;-0.020572664;-0.29708865;;;;;;;;;;;;;;;
1781.0;1697.6;;;;-0.8497735;-0.021984102;-0.29420856;;;;;;;;;;;;;;;
1781.0;1702.3;262143;262143;11593;;;;;;;;;;;;;;;;;;
1781.0;1707.7;;;;-0.8447267;-0.023227694;-0.29086688;;;;;;;;;;;;;;;
1781.0;1707.7;;;;-0.838791;-0.023944858;-0.28691104;;;;;;;;;;;;;;;
1781.0;1707.7;;;;-0.83216107;-0.024738315;-0.28406528;;;;;;;;;;;;;;;
1781.0;1707.7;;;;-0.8251649;-0.025512699;-0.27992252;;;;;;;;;;;;;;;
1781.0;1707.7;;;;-0.81806576;-0.026062015;-0.2760773;;;;;;;;;;;;;;;
1781.0;1717.9;;;;-0.8108827;-0.026538853;-0.2719002;;;;;;;;;;;;;;;
1781.0;1717.9;;;;-0.8034669;-0.02713776;-0.26773074;;;;;;;;;;;;;;;
1781.0;1717.9;;;;-0.7961503;-0.027423862;-0.26382068;;;;;;;;;;;;;;;
1781.0;1717.9;;;;-0.789219;-0.02756882;-0.25898746;;;;;;;;;;;;;;;
1781.0;1717.9;;;;-0.7816011;-0.02782059;-0.25384524;;;;;;;;;;;;;;;
1781.0;1722.6;262143;262143;11579;;;;;;;;;;;;;;;;;;
1784.0;1724.7;;;;;;;;;;;;;;;;;-9.350108;-28.344065;22.083958;;1620.5
1784.0;1724.7;;;;;;;;;;;;;;0.9311808;0.2794885;-0.43140966;;;;;1620.5
1784.0;1724.7;;;;;;;;;;;;;;;;;-19.001587;-15.301217;22.682882;;1620.5
1784.0;1724.7;;;;;;;;;;;;;;0.93215734;0.2680746;-0.3376568;;;;;1620.5
1784.0;1724.7;;;;;;;;;;;;;;;;;-23.499252;-10.906552;21.473587;;1630.1
1784.0;1724.7;;;;;;;;;;;;;;0.94857633;0.26422927;-0.26123846;;;;;1630.1
1784.0;1724.7;;;;;;;;;;;;;;;;;-27.005066;-10.9904785;20.092623;;1630.1
1784.0;1724.7;;;;;;;;;;;;;;0.9746391;0.27466658;-0.20911282;;;;;1630.1
1784.0;1724.7;;;;;;;;;;;;;;;;;-29.889067;-10.490738;19.203773;;1639.7
1784.0;1724.7;;;;;;;;;;;;;;0.9952086;0.2727134;-0.18207343;;;;;1639.7
1784.0;1724.7;;;;;;;;;;;;;;;;;-30.838953;-8.175146;17.681662;;1639.7
1784.0;1724.7;;;;;;;;;;;;;;0.9846492;0.28418836;-0.1477096;;;;;1639.7
1784.0;1725.9;;;;;;;;;;;;;;;;;-31.258583;-5.760369;15.75518;;1649.4
1784.0;1725.9;;;;;;;;;;;;;;0.9561449;0.27845088;-0.13147373;;;;;1649.4
1784.0;1725.9;;;;;;;;;;;;;;;;;-30.610065;-1.2855922;16.640219;;1649.4
1784.0;1725.9;;;;;;;;;;;;;;0.91549426;0.22260201;-0.09533983;;;;;1649.4
1784.0;1725.9;;;;;;;;;;;;;;;;;-29.438917;0.1678518;16.060366;;1659.0
1784.0;1725.9;;;;;;;;;;;;;;0.86684775;0.17731254;-0.057252724;;;;;1659.0
1784.0;1725.9;;;;;;;;;;;;;;;;;-27.279734;-6.3325906;13.756218;;1659.0
1784.0;1725.9;;;;;;;;;;;;;;0.8302255;0.14178899;-0.089358196;;;;;1659.0
1784.0;1725.9;;;;;;;;;;;;;;;;;-22.637104;-12.436293;13.393811;;1668.7
1784.0;1725.9;;;;;;;;;;;;;;0.8147221;0.103518784;-0.14215522;;;;;1668.7
1784.0;1725.9;;;;;;;;;;;;;;;;;-18.356884;-13.809626;15.46144;;1668.7
1784.0;1725.9;;;;;;;;;;;;;;0.81374556;0.058046207;-0.16071047;;;;;1668.7
1838.0;1727.7;;;;-0.77441037;-0.027668003;-0.24925616;;;;;;;;;;;;;;;
1838.0;1727.7;;;;-0.7678071;-0.02828217;-0.24444583;;;;;;;;;;;;;;;
1838.0;1727.7;;;;-0.7610856;-0.028621677;-0.2395859;;;;;;;;;;;;;;;
1838.0;1727.7;;;;-0.7538034;-0.028808597;-0.2355347;;;;;;;;;;;;;;;
1838.0;1727.7;;;;-0.7465096;-0.028633121;-0.23071292;;;;;;;;;;;;;;;
1838.0;1728.4;;;;;;;;;;;;;4187;;;;;;;;
1838.0;1728.4;;;;;;;;;;;;;1987;;;;;;;;
1838.0;1728.4;;;;;;;;;;;;;1573;;;;;;;;
1838.0;1728.4;;;;;;;;;;;;;2774;;;;;;;;
1838.0;1728.4;;;;;;;;;;;;;4840;;;;;;;;
1838.0;1737.6;;;;;;;;;;0.12207404;18.753624;-1.678518;;;;;;;;;
1838.0;1737.6;;;;;;;0.9465621;-0.09863582;-0.1347087;;;;;;;;;;;;
1838.0;1737.6;;;;;;;;;;6.984924;29.530474;8.423109;;;;;;;;;
1838.0;1737.6;;;;;;;1.0376904;-0.09753716;-0.13959166;;;;;;;;;;;;
1838.0;1737.7;;;;-0.73901755;-0.028991703;-0.22669223;;;;;;;;;;;;;;;
1838.0;1737.7;;;;-0.7320481;-0.029369358;-0.22214511;;;;;;;;;;;;;;;
1838.0;1737.7;;;;-0.7253342;-0.029571537;-0.21722797;;;;;;;;;;;;;;;
1838.0;1737.7;;;;-0.7190667;-0.029926304;-0.2131615;;;;;;;;;;;;;;;
1838.0;1737.7;;;;-0.7124482;-0.03021622;-0.20890048;;;;;;;;;;;;;;;
1838.0;1742.4;262143;262143;11575;;;;;;;;;;;;;;;;;;
1838.0;1747.1;;;;;;;;;;2.4300365;2.8992584;6.2906275;;;;;;;;;
1838.0;1747.1;;;;;;;1.0104069;-0.08508561;-0.12964264;;;;;;;;;;;;
1838.0;1747.1;;;;;;;;;;8.81222;46722;9.300516;;;;;;;;;
1838.0;1747.1;;;;;;;0.99038666;-0.072328866;-0.120670184;;;;;;;;;;;;
1840.0;1747.7;;;;-0.7055741;-0.030326847;-0.20411685;;;;;;;;;;;;;;;
1840.0;1747.7;;;;-0.69816214;-0.0305481;-0.19931415;;;;;;;;;;;;;;;
1840.0;1747.7;;;;-0.6907616;-0.0314827;-0.19544986;;;;;;;;;;;;;;;
1840.0;1747.7;;;;-0.6846772;-0.032199863;-0.19005969;;;;;;;;;;;;;;;
1840.0;1747.7;;;;-0.6784478;-0.032451633;-0.18457796;;;;;;;;;;;;;;;
1840.0;1756.6;;;;;;;;;;11.234626;10.826442;10.6814785;;;;;;;;;
1840.0;1756.6;;;;;;;0.9725028;-0.059511095;-0.111880854;;;;;;;;;;;;
1840.0;1756.6;;;;;;;;;;8.117924;-27.043215;-8.838923;;;;;;;;;
1840.0;1756.6;;;;;;;0.9551683;-0.047853023;-0.10626545;;;;;;;;;;;;
1840.0;1757.7;;;;-0.6732598;-0.032680515;-0.17979433;;;;;;;;;;;;;;;
1840.0;1757.7;;;;-0.66772467;-0.03320313;-0.17630388;;;;;;;;;;;;;;;
1840.0;1757.7;;;;-0.6617432;-0.03382874;-0.1709099;;;;;;;;;;;;;;;
1840.0;1757.7;;;;-0.65445715;-0.034564976;-0.16562654;;;;;;;;;;;;;;;
1840.0;1757.7;;;;-0.64745337;-0.036499027;-0.1615143;;;;;;;;;;;;;;;
1840.0;1762.5;262143;262143;11560;;;;;;;;;;;;;;;;;;
1840.0;1766.3;;;;;;;;;;9.800256;-29.435102;-8.697775;;;;;;;;;
1840.0;1766.3;;;;;;;0.9342936;-0.037659843;-0.10199286;;;;;;;;;;;;
1840.0;1766.3;;;;;;;;;;11.249886;-30.69399;-8.510849;;;;;;;;;
1840.0;1766.3;;;;;;;0.91653186;-0.026123844;-0.0966216;;;;;;;;;;;;
1842.0;1767.8;;;;-0.64083105;-0.037876133;-0.15805437;;;;;;;;;;;;;;;
1842.0;1767.8;;;;-0.635048;-0.038845066;-0.15420915;;;;;;;;;;;;;;;
1842.0;1767.8;;;;-0.6297074;-0.04023743;-0.15096666;;;;;;;;;;;;;;;
1842.0;1767.8;;;;-0.62466437;-0.041908268;-0.14811327;;;;;;;;;;;;;;;
1842.0;1767.8;;;;-0.62073904;-0.043830875;-0.14493562;;;;;;;;;;;;;;;
1842.0;1768.5;;;;;;;;;;;;;6882;;;;;;;;
1842.0;1768.5;;;;;;;;;;;;;7525;;;;;;;;
1842.0;1768.5;;;;;;;;;;;;;5886;;;;;;;;
1842.0;1768.5;;;;;;;;;;;;;3065;;;;;;;;
1842.0;1768.5;;;;;;;;;;;;;1034;;;;;;;;
1842.0;1775.9;;;;;;;;;;11.76107;-22.965178;-2.517777;;;;;;;;;
1842.0;1775.9;;;;;;;0.8993194;-0.017090365;-0.092593156;;;;;;;;;;;;
1842.0;1775.9;;;;;;;;;;11.120181;-13.172552;3.6126287;;;;;;;;;
1842.0;1775.9;;;;;;;0.87960446;-0.0081179235;-0.08795434;;;;;;;;;;;;
1842.0;1777.9;;;;-0.6176377;-0.045764927;-0.14201356;;;;;;;;;;;;;;;
1842.0;1777.9;;;;-0.61479956;-0.04707337;-0.13983919;;;;;;;;;;;;;;;
1842.0;1777.9;;;;-0.6124459;-0.048568733;-0.1383896;;;;;;;;;;;;;;;
1842.0;1777.9;;;;-0.61033636;-0.05007554;-0.13768007;;;;;;;;;;;;;;;
1842.0;1777.9;;;;-0.60853964;-0.051731117;-0.13685991;;;;;;;;;;;;;;;
1842.0;1782.8;262143;262143;11535;;;;;;;;;;;;;;;;;;
1844.0;1785.0;;;;;;;;;;;;;;;;;-15.980255;-9.00296;17.77703;;1678.3
1844.0;1785.0;;;;;;;;;;;;;;0.8052614;0.02191229;-0.13232826;;;;;1678.3
1844.0;1785.0;;;;;;;;;;;;;;;;;-12.48207;-3.4257026;20.249031;;1678.3
1844.0;1785.0;;;;;;;;;;;;;;0.7785272;-0.017273476;-0.086489454;;;;;1678.3
1844.0;1785.0;;;;;;;;;;;;;;;;;-4.669332;-3.913999;22.6104;;1687.7
1844.0;1785.0;;;;;;;;;;;;;;0.7446516;-0.04791406;-0.06634724;;;;;1687.7
1844.0;1785.0;;;;;;;;;;;;;;;;;4.947813;-9.956663;24.224068;;1687.7
1844.0;1785.0;;;;;;;;;;;;;;0.72060305;-0.06488235;-0.07373272;;;;;1687.7
1844.0;1785.0;;;;;;;;;;;;;;;;;12.607959;-15.427107;23.983734;;1697.3
1844.0;1785.0;;;;;;;;;;;;;;0.7064425;-0.07080294;-0.09887997;;;;;1697.3
1844.0;1785.0;;;;;;;;;;;;;;;;;18.253883;-16.747032;21.046328;;1697.3
1844.0;1785.0;;;;;;;;;;;;;;0.6784875;-0.0524308;-0.10699789;;;;;1697.3
1844.0;1785.5;;;;;;;;;;10.795923;-11.173589;3.3265176;;;;;;;;;
1844.0;1785.5;;;;;;;0.86251414;-0.0023804437;-0.08453627;;;;;;;;;;;;
1844.0;1785.5;;;;;;;;;;10.55559;-9.376812;2.9564807;;;;;;;;;
1844.0;1785.5;;;;;;;0.84865874;0.0036622211;-0.0799585;;;;;;;;;;;;
1847.0;1785.7;;;;;;;;;;;;;;;;;20.371105;-15.488144;16.220589;;1706.9
1847.0;1785.7;;;;;;;;;;;;;;0.6688436;-4.8829615E-4;-0.109500416;;;;;1706.9
1847.0;1785.7;;;;;;;;;;;;;;;;;19.15418;-9.582812;12.417218;;1706.9
1847.0;1785.7;;;;;;;;;;;;;;0.67165136;0.057985168;-0.10260323;;;;;1706.9
1847.0;1785.7;;;;;;;;;;;;;;;;;18.54381;-1.4725181;9.746849;;1716.6
1847.0;1785.7;;;;;;;;;;;;;;0.6629841;0.10376293;-0.06683554;;;;;1716.6
1847.0;1785.7;;;;;;;;;;;;;;;;;19.783623;2.0981476;8.037812;;1716.6
1847.0;1785.7;;;;;;;;;;;;;;0.6480911;0.13873714;-0.048280284;;;;;1716.6
1847.0;1785.7;;;;;;;;;;;;;;;;;23.571733;2.1172216;6.103702;;1726.2
1847.0;1785.7;;;;;;;;;;;;;;0.6399121;0.18073061;-0.04297006;;;;;1726.2
1847.0;1785.7;;;;;;;;;;;;;;;;;28.351696;2.338481;2.128666;;1726.2
1847.0;1785.7;;;;;;;;;;;;;;0.64510024;0.21906187;-0.04998932;;;;;1726.2
1847.0;1787.8;;;;-0.6069146;-0.053344734;-0.13634492;;;;;;;;;;;;;;;
1847.0;1787.8;;;;-0.6059151;-0.055625923;-0.1363373;;;;;;;;;;;;;;;
1847.0;1787.8;;;;-0.60568243;-0.057147987;-0.13632585;;;;;;;;;;;;;;;
1847.0;1787.8;;;;-0.60578924;-0.058837898;-0.13661195;;;;;;;;;;;;;;;
1847.0;1787.8;;;;-0.6062737;-0.060825355;-0.13674928;;;;;;;;;;;;;;;
1847.0;1794.9;;;;;;;;;;10.284738;-7.614368;2.5025177;;;;;;;;;
1847.0;1794.9;;;;;;;0.83571887;0.009582812;-0.07684561;;;;;;;;;;;;
1847.0;1794.9;;;;;;;;;;10.052033;-5.794702;2.0523698;;;;;;;;;
1847.0;1794.9;;;;;;;0.8219245;0.0145268105;-0.07470931;;;;;;;;;;;;
1899.0;1797.8;;;;-0.607071;-0.062580116;-0.13759615;;;;;;;;;;;;;;;
1899.0;1797.8;;;;-0.60786444;-0.063919075;-0.13838579;;;;;;;;;;;;;;;
1899.0;1797.8;;;;-0.60864264;-0.06521226;-0.13906099;;;;;;;;;;;;;;;
1899.0;1797.8;;;;-0.6095658;-0.066955574;-0.14057924;;;;;;;;;;;;;;;
1899.0;1797.8;;;;-0.6100884;-0.06817628;-0.14162065;;;;;;;;;;;;;;;
1899.0;1802.7;262143;262143;11515;;;;;;;;;;;;;;;;;;
1899.0;1804.4;;;;;;;;;;10.002441;-4.3679614;1.7319254;;;;;;;;;
1899.0;1804.4;;;;;;;0.81191444;0.019348735;-0.07739494;;;;;;;;;;;;
1899.0;1804.4;;;;;;;;;;9.918515;-2.7390363;1.3008515;;;;;;;;;
1899.0;1804.4;;;;;;;0.80764186;0.02313303;-0.074648276;;;;;;;;;;;;
1899.0;1807.7;;;;-0.6117516;-0.06946183;-0.14418031;;;;;;;;;;;;;;;
1899.0;1807.7;;;;-0.61448294;-0.0701294;-0.14629747;;;;;;;;;;;;;;;
1899.0;1807.7;;;;-0.6177674;-0.07165528;-0.1483574;;;;;;;;;;;;;;;
1899.0;1807.7;;;;-0.621563;-0.07226563;-0.1514168;;;;;;;;;;;;;;;
1899.0;1807.7;;;;-0.62644583;-0.07215119;-0.15490724;;;;;;;;;;;;;;;
1899.0;1808.4;;;;;;;;;;;;;513;;;;;;;;
1899.0;1808.4;;;;;;;;;;;;;553;;;;;;;;
1899.0;1808.4;;;;;;;;;;;;;124;;;;;;;;
1899.0;1808.4;;;;;;;;;;;;;-437;;;;;;;;
1899.0;1808.4;;;;;;;;;;;;;-368;;;;;;;;
1899.0;1813.5;;;;;;;;;;9.987182;-1.373333;0.7477035;;;;;;;;;
1899.0;1813.5;;;;;;;0.7990356;0.028015992;-0.077761166;;;;;;;;;;;;
1899.0;1813.5;;;;;;;;;;10.052033;-0.16403699;0.3852962;;;;;;;;;
1899.0;1813.5;;;;;;;0.79012424;0.02887051;-0.07885983;;;;;;;;;;;;
1904.0;1817.5;;;;-0.631733;-0.07270051;-0.15779497;;;;;;;;;;;;;;;
1904.0;1817.5;;;;-0.6372567;-0.07270432;-0.16164781;;;;;;;;;;;;;;;
1904.0;1817.5;;;;-0.6433602;-0.072361;-0.16498949;;;;;;;;;;;;;;;
1904.0;1817.5;;;;-0.649376;-0.07166291;-0.16881181;;;;;;;;;;;;;;;
1904.0;1817.5;;;;-0.65533453;-0.0707512;-0.17227174;;;;;;;;;;;;;;;
1904.0;1822.4;262143;262143;11519;;;;;;;;;;;;;;;;;;
1904.0;1823.1;;;;;;;;;;10.181738;1.1825923;0.0839259;;;;;;;;;
1904.0;1823.1;;;;;;;0.7844478;0.032898955;-0.081362344;;;;;;;;;;;;
1904.0;1823.1;;;;;;;;;;10.315256;2.2927032;-0.17929624;;;;;;;;;
1904.0;1823.1;;;;;;;0.7788324;0.03521836;-0.083010346;;;;;;;;;;;;
1904.0;1827.6;;;;-0.66120535;-0.06954194;-0.17543031;;;;;;;;;;;;;;;
1904.0;1827.6;;;;-0.66683584;-0.068077095;-0.1779976;;;;;;;;;;;;;;;
1904.0;1827.6;;;;-0.6720925;-0.06673051;-0.18110658;;;;;;;;;;;;;;;
1904.0;1827.6;;;;-0.67667776;-0.06471635;-0.1837578;;;;;;;;;;;;;;;
1904.0;1827.6;;;;-0.6818467;-0.06302262;-0.18764117;;;;;;;;;;;;;;;
1904.0;1832.8;;;;;;;;;;10.494553;3.1624806;-0.46159247;;;;;;;;;
1904.0;1832.8;;;;;;;0.7739494;0.03784295;-0.085573904;;;;;;;;;;;;
1904.0;1832.8;;;;;;;;;;10.734886;3.8186285;-0.7515183;;;;;;;;;
1904.0;1832.8;;;;;;;0.76992095;0.0369274;-0.08819849;;;;;;;;;;;;
1905.0;1837.7;;;;-0.6872025;-0.061424263;-0.19163135;;;;;;;;;;;;;;;
1905.0;1837.7;;;;-0.6945496;-0.059356697;-0.19632342;;;;;;;;;;;;;;;
1905.0;1837.7;;;;-0.7030869;-0.05724717;-0.20160678;;;;;;;;;;;;;;;
1905.0;1837.7;;;;-0.7135697;-0.05514527;-0.20669177;;;;;;;;;;;;;;;
1905.0;1837.7;;;;-0.72404486;-0.052913673;-0.21247485;;;;;;;;;;;;;;;
1905.0;1842.4;;;;;;;;;;11.104922;4.2878504;-1.0147405;;;;;;;;;
1905.0;1842.4;;;;;;;0.76973784;0.03460799;-0.09277627;;;;;;;;;;;;
1905.0;1842.4;;;;;;;;;;11.555071;4.467147;-1.2359996;;;;;;;;;
1905.0;1842.4;;;;;;;0.7693716;0.032105472;-0.095278785;;;;;;;;;;;;
1905.0;1842.7;262143;262143;11541;;;;;;;;;;;;;;;;;;
1905.0;1844.9;;;;;;;;;;;;;;;;;32.288586;6.4012575;-2.8992584;;1735.9
1905.0;1844.9;;;;;;;;;;;;;;0.6391186;0.24530777;-0.042176582;;;;;1735.9
1905.0;1844.9;;;;;;;;;;;;;;;;;36.40095;9.765923;-9.254738;;1735.9
1905.0;1844.9;;;;;;;;;;;;;;0.63142794;0.29230627;-0.0270394;;;;;1735.9
1905.0;1844.9;;;;;;;;;;;;;;;;;41.718803;3.6660361;-14.805292;;1745.3
1905.0;1844.9;;;;;;;;;;;;;;0.6145207;0.34205145;-0.027588733;;;;;1745.3
1905.0;1844.9;;;;;;;;;;;;;;;;;49.42473;-13.565478;-19.119846;;1745.3
1905.0;1844.9;;;;;;;;;;;;;;0.58101135;0.33930477;-0.059144873;;;;;1745.3
1905.0;1844.9;;;;;;;;;;;;;;;;;60.155796;-36.160618;-27.481916;;1754.8
1905.0;1844.9;;;;;;;;;;;;;;0.57545704;0.37678152;-0.12622456;;;;;1754.8
1905.0;1844.9;;;;;;;;;;;;;;;;;72.6722;-56.855984;-33.07062;;1754.8
1905.0;1844.9;;;;;;;;;;;;;;0.60316783;0.46998504;-0.19830927;;;;;1754.8
1907.0;1845.7;;;;;;;;;;;;;;;;;70.87542;-67.09113;-30.728323;;1764.5
1907.0;1845.7;;;;;;;;;;;;;;0.64491713;0.58162177;-0.27838984;;;;;1764.5
1907.0;1845.7;;;;;;;;;;;;;;;;;52.743614;-65.34013;-18.01355;;1764.5
1907.0;1845.7;;;;;;;;;;;;;;0.67720574;0.64925075;-0.43116552;;;;;1764.5
1907.0;1845.7;;;;;;;;;;;;;;;;;39.273506;-51.026947;4.0437026;;1774.2
1907.0;1845.7;;;;;;;;;;;;;;0.6415601;0.5973083;-0.55421615;;;;;1774.2
1907.0;1845.7;;;;;;;;;;;;;;;;;28.542437;-21.328623;13.592181;;1774.2
1907.0;1845.7;;;;;;;;;;;;;;0.5811945;0.5489059;-0.54036075;;;;;1774.2
1907.0;1845.7;;;;;;;;;;;;;;;;;9.578998;6.65685;11.738182;;1783.9
1907.0;1845.7;;;;;;;;;;;;;;0.616596;0.47706535;-0.4664449;;;;;1783.9
1907.0;1845.7;;;;;;;;;;;;;;;;;-9.292887;25.711843;15.343181;;1783.9
1907.0;1845.7;;;;;;;;;;;;;;0.68514055;0.39210182;-0.3516953;;;;;1783.9
1907.0;1847.7;;;;-0.73564154;-0.050746925;-0.21798709;;;;;;;;;;;;;;;
1907.0;1847.7;;;;-0.7478867;-0.048034675;-0.22520068;;;;;;;;;;;;;;;
1907.0;1847.7;;;;-0.7610513;-0.045024876;-0.23196414;;;;;;;;;;;;;;;
1907.0;1847.7;;;;-0.7738801;-0.041099552;-0.23878482;;;;;;;;;;;;;;;
1907.0;1847.7;;;;-0.7872468;-0.037059788;-0.24598697;;;;;;;;;;;;;;;
1907.0;1848.6;;;;;;;;;;;;;333;;;;;;;;
1907.0;1848.6;;;;;;;;;;;;;851;;;;;;;;
1907.0;1848.6;;;;;;;;;;;;;352;;;;;;;;
1907.0;1848.6;;;;;;;;;;;;;-855;;;;;;;;
1907.0;1848.6;;;;;;;;;;;;;-1566;;;;;;;;
1907.0;1851.9;;;;;;;;;;12.112034;4.4289985;-1.4763329;;;;;;;;;
1907.0;1851.9;;;;;;;0.7680288;0.028992584;-0.09729301;;;;;;;;;;;;
1907.0;1851.9;;;;;;;;;;12.623219;4.3565173;-1.6518143;;;;;;;;;
1907.0;1851.9;;;;;;;0.7630238;0.026551103;-0.10095523;;;;;;;;;;;;
1959.0;1857.7;;;;-0.8002397;-0.03297806;-0.2533951;;;;;;;;;;;;;;;
1959.0;1857.7;;;;-0.81188977;-0.027278904;-0.25941852;;;;;;;;;;;;;;;
1959.0;1857.7;;;;-0.8219186;-0.02126694;-0.2655144;;;;;;;;;;;;;;;
1959.0;1857.7;;;;-0.83061993;-0.015048983;-0.27123263;;;;;;;;;;;;;;;
1959.0;1857.7;;;;-0.8374368;-0.008358003;-0.27598193;;;;;;;;;;;;;;;
1959.0;1861.4;;;;;;;;;;13.161107;4.2497025;-1.865444;;;;;;;;;
1959.0;1861.4;;;;;;;0.7602771;0.023316141;-0.10376293;;;;;;;;;;;;
1959.0;1861.4;;;;;;;;;;13.790551;4.055147;-2.071444;;;;;;;;;
1959.0;1861.4;;;;;;;0.75679797;0.019104587;-0.10492264;;;;;;;;;;;;
1959.0;1862.7;262143;262143;11579;;;;;;;;;;;;;;;;;;
1959.0;1867.7;;;;-0.84323895;-0.0014228822;-0.28014377;;;;;;;;;;;;;;;
1959.0;1867.7;;;;-0.8470193;0.005550385;-0.2847443;;;;;;;;;;;;;;;
1959.0;1867.7;;;;-0.84946454;0.011955263;-0.2882729;;;;;;;;;;;;;;;
1959.0;1867.7;;;;-0.8515016;0.018314363;-0.29179385;;;;;;;;;;;;;;;
1959.0;1867.7;;;;-0.85312283;0.024211887;-0.29422763;;;;;;;;;;;;;;;
1959.0;1870.8;;;;;;;;;;14.419996;3.711814;-2.25074;;;;;;;;;
1959.0;1870.8;;;;;;;0.7513047;0.014404736;-0.10345775;;;;;;;;;;;;
1959.0;1870.8;;;;;;;;;;14.976958;3.1891842;-2.4872584;;;;;;;;;
1959.0;1870.8;;;;;;;0.7395856;0.008484146;-0.1010773;;;;;;;;;;;;
1960.0;1877.5;;;;-0.85364544;0.029670719;-0.2964745;;;;;;;;;;;;;;;
1960.0;1877.5;;;;-0.85333645;0.035232548;-0.2987633;;;;;;;;;;;;;;;
1960.0;1877.5;;;;-0.8521005;0.04075623;-0.30004504;;;;;;;;;;;;;;;
1960.0;1877.5;;;;-0.8517152;0.045925144;-0.30163577;;;;;;;;;;;;;;;
1960.0;1877.5;;;;-0.8512193;0.050598152;-0.3028908;;;;;;;;;;;;;;;
1960.0;1880.2;;;;;;;;;;15.549181;2.5444808;-2.6970735;;;;;;;;;
1960.0;1880.2;;;;;;;0.7293313;0.00347911;-0.10065004;;;;;;;;;;;;
1960.0;1880.2;;;;;;;;;;16.056551;1.9837031;-3.051851;;;;;;;;;
1960.0;1880.2;;;;;;;0.7175512;-0.003112888;-0.097720265;;;;;;;;;;;;
1960.0;1882.6;262143;262143;11634;;;;;;;;;;;;;;;;;;
1960.0;1887.6;;;;-0.85084546;0.05505372;-0.3044472;;;;;;;;;;;;;;;
1960.0;1887.6;;;;-0.85052884;0.059143074;-0.3048096;;;;;;;;;;;;;;;
1960.0;1887.6;;;;-0.8502351;0.063026436;-0.30552676;;;;;;;;;;;;;;;
1960.0;1887.6;;;;-0.8493005;0.06643296;-0.30562976;;;;;;;;;;;;;;;
1960.0;1887.6;;;;-0.848446;0.06952668;-0.30538943;;;;;;;;;;;;;;;
1960.0;1888.6;;;;;;;;;;;;;-1070;;;;;;;;
1960.0;1888.6;;;;;;;;;;;;;161;;;;;;;;
1960.0;1888.6;;;;;;;;;;;;;1283;;;;;;;;
1960.0;1888.6;;;;;;;;;;;;;2032;;;;;;;;
1960.0;1888.6;;;;;;;;;;;;;2519;;;;;;;;
1960.0;1889.8;;;;;;;;;;16.457108;1.4687033;-3.4676657;;;;;;;;;
1960.0;1889.8;;;;;;;0.70906705;-0.0048829615;-0.0992462;;;;;;;;;;;;
1960.0;1889.8;;;;;;;;;;16.727959;0.8125553;-3.9368877;;;;;;;;;
1960.0;1889.8;;;;;;;0.69862974;-0.0047608875;-0.09979553;;;;;;;;;;;;
1965.0;1897.7;;;;-0.8473245;0.072177894;-0.30590823;;;;;;;;;;;;;;;
1965.0;1897.7;;;;-0.8455659;0.07339097;-0.3071175;;;;;;;;;;;;;;;
1965.0;1897.7;;;;-0.84424984;0.074256904;-0.30812457;;;;;;;;;;;;;;;
1965.0;1897.7;;;;-0.8436662;0.07457734;-0.30985644;;;;;;;;;;;;;;;
1965.0;1897.7;;;;-0.8438302;0.07390214;-0.31121448;;;;;;;;;;;;;;;
1965.0;1899.5;;;;;;;;;;16.979734;0.16022217;-4.3031096;;;;;;;;;
1965.0;1899.5;;;;;;;0.697409;-0.00286874;-0.102053896;;;;;;;;;;;;
1965.0;1899.5;;;;;;;;;;17.162846;-0.25559253;-4.730369;;;;;;;;;
1965.0;1899.5;;;;;;;0.6947844;0.0014038514;-0.10376293;;;;;;;;;;;;
1965.0;1902.8;262143;262143;11673;;;;;;;;;;;;;;;;;;
1965.0;1905.3;;;;;;;;;;;;;;;;;-27.64214;43.870358;22.732473;;1793.4
1965.0;1905.3;;;;;;;;;;;;;;0.72768337;0.34479812;-0.23584704;;;;;1793.4
1965.0;1905.3;;;;;;;;;;;;;;;;;-39.376507;56.928463;30.129398;;1793.4
1965.0;1905.3;;;;;;;;;;;;;;0.7462386;0.28717917;-0.16614276;;;;;1793.4
1965.0;1905.3;;;;;;;;;;;;;;;;;-36.339916;61.265907;35.72573;;1803.0
1965.0;1905.3;;;;;;;;;;;;;;0.74782556;0.2075869;-0.09778131;;;;;1803.0
1965.0;1905.3;;;;;;;;;;;;;;;;;-25.444807;55.314796;33.94421;;1803.0
1965.0;1905.3;;;;;;;;;;;;;;0.7295145;0.13373211;-0.05859554;;;;;1803.0
1965.0;1905.3;;;;;;;;;;;;;;;;;-7.9348125;37.79336;22.312845;;1812.5
1965.0;1905.3;;;;;;;;;;;;;;0.64149904;0.051332135;-0.03601184;;;;;1812.5
1965.0;1905.3;;;;;;;;;;;;;;;;;13.157292;11.26133;0.26322216;;1812.5
1965.0;1905.3;;;;;;;;;;;;;;0.58919036;0.10510575;-0.07586902;;;;;1812.5
1966.0;1906.1;;;;;;;;;;;;;;;;;28.202917;-11.146885;-16.888182;;1822.1
1966.0;1906.1;;;;;;;;;;;;;;0.60664696;0.24018067;-0.14618365;;;;;1822.1
1966.0;1906.1;;;;;;;;;;;;;;;;;32.01773;-18.688772;-22.70577;;1822.1
1966.0;1906.1;;;;;;;;;;;;;;0.62550735;0.34333324;-0.24152349;;;;;1822.1
1966.0;1906.1;;;;;;;;;;;;;;;;;26.074251;-6.2105165;-21.217995;;1831.8
1966.0;1906.1;;;;;;;;;;;;;;0.6304514;0.423719;-0.29175696;;;;;1831.8
1966.0;1906.1;;;;;;;;;;;;;;;;;12.3638115;11.917479;-13.611256;;1831.8
1966.0;1906.1;;;;;;;;;;;;;;0.66927093;0.47688222;-0.30115664;;;;;1831.8
1966.0;1906.1;;;;;;;;;;;;;;;;;-1.8311106;27.42088;-3.379925;;1841.5
1966.0;1906.1;;;;;;;;;;;;;;0.74434644;0.42939544;-0.30243844;;;;;1841.5
1966.0;1906.1;;;;;;;;;;;;;;;;;-14.362774;47.910244;-0.3318888;;1841.5
1966.0;1906.1;;;;;;;;;;;;;;0.8185064;0.4308603;-0.23401593;;;;;1841.5
1966.0;1907.6;;;;-0.84622204;0.07198716;-0.31294635;;;;;;;;;;;;;;;
1966.0;1907.6;;;;-0.8506013;0.069602974;-0.3136826;;;;;;;;;;;;;;;
1966.0;1907.6;;;;-0.8558885;0.06707383;-0.31512836;;;;;;;;;;;;;;;
1966.0;1907.6;;;;-0.8630334;0.06432343;-0.31616595;;;;;;;;;;;;;;;
1966.0;1907.6;;;;-0.8712083;0.060981758;-0.31702045;;;;;;;;;;;;;;;
1966.0;1908.9;;;;;;;;;;17.227697;-0.5378887;-5.22248;;;;;;;;;
1966.0;1908.9;;;;;;;0.6954558;0.00573748;-0.10968352;;;;;;;;;;;;
1966.0;1908.9;;;;;;;;;;17.136143;-0.54551834;-5.706961;;;;;;;;;
1966.0;1908.9;;;;;;;0.6972869;0.010620441;-0.11291849;;;;;;;;;;;;
2020.0;1917.6;;;;-0.87947094;0.058265693;-0.31780246;;;;;;;;;;;;;;;
2020.0;1917.6;;;;-0.8879167;0.05616761;-0.31852344;;;;;;;;;;;;;;;
2020.0;1917.6;;;;-0.8962289;0.054035194;-0.31888965;;;;;;;;;;;;;;;
2020.0;1917.6;;;;-0.90433896;0.052997597;-0.31957248;;;;;;;;;;;;;;;
2020.0;1917.6;;;;-0.91175854;0.05149079;-0.3205147;;;;;;;;;;;;;;;
2020.0;1918.5;;;;;;;;;;16.899626;-0.5798517;-6.0274057;;;;;;;;;
2020.0;1918.5;;;;;;;0.69667655;0.014770959;-0.11749626;;;;;;;;;;;;
2020.0;1918.5;;;;;;;;;;16.537218;-1.0948515;-6.416517;;;;;;;;;
2020.0;1918.5;;;;;;;0.69270915;0.020020142;-0.12091433;;;;;;;;;;;;
2020.0;1922.7;262143;262143;11709;;;;;;;;;;;;;;;;;;
2020.0;1927.6;;;;-0.91993725;0.0495987;-0.32218555;;;;;;;;;;;;;;;
2020.0;1927.6;;;;-0.92922604;0.047775276;-0.32478335;;;;;;;;;;;;;;;
2020.0;1927.6;;;;-0.9394113;0.04502869;-0.32702258;;;;;;;;;;;;;;;
2020.0;1927.6;;;;-0.95097744;0.04180527;-0.33081058;;;;;;;;;;;;;;;
2020.0;1927.6;;;;-0.9639436;0.03797913;-0.33469775;;;;;;;;;;;;;;;
2020.0;1927.9;;;;;;;;;;16.144293;-1.3962218;-6.740776;;;;;;;;;
2020.0;1927.9;;;;;;;0.68819237;0.024842067;-0.12707907;;;;;;;;;;;;
2020.0;1927.9;;;;;;;;;;15.774254;-1.6022217;-7.1108127;;;;;;;;;
2020.0;1927.9;;;;;;;0.689169;0.028626362;-0.12891018;;;;;;;;;;;;
2020.0;1928.7;;;;;;;;;;;;;2876;;;;;;;;
2020.0;1928.7;;;;;;;;;;;;;3086;;;;;;;;
2020.0;1928.7;;;;;;;;;;;;;3077;;;;;;;;
2020.0;1928.7;;;;;;;;;;;;;2793;;;;;;;;
2020.0;1928.7;;;;;;;;;;;;;2172;;;;;;;;
2023.0;1937.4;;;;;;;;;;15.285958;-1.7700735;-7.3435163;;;;;;;;;
2023.0;1937.4;;;;;;;0.6980193;0.033753473;-0.13312174;;;;;;;;;;;;
2023.0;1937.4;;;;;;;;;;14.6641445;-1.8501847;-7.5647755;;;;;;;;;
2023.0;1937.4;;;;;;;0.7111423;0.033692434;-0.1380047;;;;;;;;;;;;
2023.0;1937.6;;;;-0.97895443;0.033843998;-0.33854297;;;;;;;;;;;;;;;
2023.0;1937.6;;;;-0.99385464;0.030147556;-0.34212115;;;;;;;;;;;;;;;
2023.0;1937.6;;;;-1.009945;0.026145939;-0.34497073;;;;;;;;;;;;;;;
2023.0;1937.6;;;;-1.0270997;0.023117067;-0.34746936;;;;;;;;;;;;;;;
2023.0;1937.6;;;;-1.0444223;0.020393373;-0.3503838;;;;;;;;;;;;;;;
2023.0;1942.8;262143;262143;11718;;;;;;;;;;;;;;;;;;
2023.0;1947.0;;;;;;;;;;13.866847;-1.7738883;-7.7669606;;;;;;;;;
2023.0;1947.0;;;;;;;0.72634053;0.039002657;-0.14416943;;;;;;;;;;;;
2023.0;1947.0;;;;;;;;;;13.0047;-1.4992218;-7.9233685;;;;;;;;;
2023.0;1947.0;;;;;;;0.7426374;0.04095584;-0.14880826;;;;;;;;;;;;
2023.0;1947.7;;;;-1.0603524;0.018981935;-0.35252002;;;;;;;;;;;;;;;
2023.0;1947.7;;;;-1.0758935;0.01836014;-0.35364154;;;;;;;;;;;;;;;
2023.0;1947.7;;;;-1.0887834;0.018459322;-0.35475543;;;;;;;;;;;;;;;
2023.0;1947.7;;;;-1.0976678;0.019138338;-0.3551903;;;;;;;;;;;;;;;
2023.0;1947.7;;;;-1.1047288;0.02125931;-0.35603717;;;;;;;;;;;;;;;
2023.0;1956.7;;;;;;;;;;12.081515;-1.1406293;-8.003479;;;;;;;;;
2023.0;1956.7;;;;;;;0.7581408;0.040223397;-0.15698722;;;;;;;;;;;;
2023.0;1956.7;;;;;;;;;;11.139256;-0.57222205;-8.011109;;;;;;;;;
2023.0;1956.7;;;;;;;0.77138585;0.037049472;-0.16394544;;;;;;;;;;;;
2024.0;1957.8;;;;-1.1109811;0.024517063;-0.3571129;;;;;;;;;;;;;;;
2024.0;1957.8;;;;-1.1177713;0.029003147;-0.35736468;;;;;;;;;;;;;;;
2024.0;1957.8;;;;-1.1260835;0.035190586;-0.35785678;;;;;;;;;;;;;;;
2024.0;1957.8;;;;-1.1353608;0.042659763;-0.35898593;;;;;;;;;;;;;;;
2024.0;1957.8;;;;-1.145569;0.051071174;-0.35979465;;;;;;;;;;;;;;;
2024.0;1963.1;262143;262143;11740;;;;;;;;;;;;;;;;;;
2024.0;1966.3;;;;;;;;;;10.200811;0.08011109;-7.9348125;;;;;;;;;
2024.0;1966.3;;;;;;;0.7828608;0.03601184;-0.16772974;;;;;;;;;;;;
2024.0;1966.3;;;;;;;;;;9.166997;0.80111086;-7.820368;;;;;;;;;
2024.0;1966.3;;;;;;;0.7919553;0.031373028;-0.17242958;;;;;;;;;;;;
2024.0;1967.9;;;;-1.1559373;0.060733803;-0.36111072;;;;;;;;;;;;;;;
2024.0;1967.9;;;;-1.1661569;0.07157136;-0.36321643;;;;;;;;;;;;;;;
2024.0;1967.9;;;;-1.1752626;0.08291627;-0.36166385;;;;;;;;;;;;;;;
2024.0;1967.9;;;;-1.1825258;0.09502031;-0.36065295;;;;;;;;;;;;;;;
2024.0;1967.9;;;;-1.1895715;0.1080208;-0.36094287;;;;;;;;;;;;;;;
2024.0;1969.0;;;;;;;;;;;;;1446;;;;;;;;
2024.0;1969.0;;;;;;;;;;;;;979;;;;;;;;
2024.0;1969.0;;;;;;;;;;;;;705;;;;;;;;
2024.0;1969.0;;;;;;;;;;;;;309;;;;;;;;
2024.0;1969.0;;;;;;;;;;;;;-154;;;;;;;;
2027.0;1972.7;;;;;;;;;;;;;;;;;-30.48036;69.963684;-1.1139256;;1851.0
2027.0;1972.7;;;;;;;;;;;;;;0.88662374;0.46253854;-0.15918455;;;;;1851.0
2027.0;1972.7;;;;;;;;;;;;;;;;;-37.869656;78.2609;-5.7908874;;1851.0
2027.0;1972.7;;;;;;;;;;;;;;0.9602344;0.46790978;-0.11047701;;;;;1851.0
2027.0;1972.7;;;;;;;;;;;;;;;;;-24.27366;59.52254;-18.44081;;1860.7
2027.0;1972.7;;;;;;;;;;;;;;1.0296946;0.5267495;-0.08716086;;;;;1860.7
2027.0;1972.7;;;;;;;;;;;;;;;;;-3.6660361;27.409435;-27.855768;;1860.7
2027.0;1972.7;;;;;;;;;;;;;;0.99679554;0.6126286;-0.15808588;;;;;1860.7
2027.0;1972.7;;;;;;;;;;;;;;;;;1.8959624;12.878811;-25.509659;;1870.3
2027.0;1972.7;;;;;;;;;;;;;;0.91848505;0.63356423;-0.2773522;;;;;1870.3
2027.0;1972.7;;;;;;;;;;;;;;;;;-5.779443;19.516586;-18.673513;;1870.3
2027.0;1972.7;;;;;;;;;;;;;;0.93868834;0.61580247;-0.357799;;;;;1870.3
2027.0;1973.5;;;;;;;;;;;;;;;;;-19.425032;44.888912;-14.01181;;1880.0
2027.0;1973.5;;;;;;;;;;;;;;0.9400311;0.51582384;-0.2956023;;;;;1880.0
2027.0;1973.5;;;;;;;;;;;;;;;;;-29.499954;69.013794;-15.972626;;1880.0
2027.0;1973.5;;;;;;;;;;;;;;0.9291055;0.44508195;-0.13818781;;;;;1880.0
2027.0;1973.5;;;;;;;;;;;;;;;;;-36.51158;85.360275;-20.279549;;1889.6
2027.0;1973.5;;;;;;;;;;;;;;0.9317301;0.40821558;0.015686514;;;;;1889.6
2027.0;1973.5;;;;;;;;;;;;;;;;;-39.036987;88.52275;-25.849178;;1889.6
2027.0;1973.5;;;;;;;;;;;;;;0.92355114;0.3632313;0.098941006;;;;;1889.6
2027.0;1973.5;;;;;;;;;;;;;;;;;-31.151768;74.850464;-37.717064;;1899.3
2027.0;1973.5;;;;;;;;;;;;;;0.96639913;0.40003663;0.10229804;;;;;1899.3
2027.0;1973.5;;;;;;;;;;;;;;;;;-18.898588;58.618427;-51.564835;;1899.3
2027.0;1973.5;;;;;;;;;;;;;;1.0608234;0.45912045;0.030030213;;;;;1899.3
2079.0;1975.6;;;;;;;;;;8.121738;1.4801477;-7.7707753;;;;;;;;;
2079.0;1975.6;;;;;;;0.80459;0.027466659;-0.1760918;;;;;;;;;;;;
2079.0;1975.6;;;;;;;;;;7.133702;2.1401105;-7.866146;;;;;;;;;
2079.0;1975.6;;;;;;;0.82198554;0.020569475;-0.1784112;;;;;;;;;;;;
2079.0;1977.7;;;;-1.1953927;0.1213112;-0.3617058;;;;;;;;;;;;;;;
2079.0;1977.7;;;;-1.2014085;0.13444902;-0.361805;;;;;;;;;;;;;;;
2079.0;1977.7;;;;-1.2068444;0.14696123;-0.36182025;;;;;;;;;;;;;;;
2079.0;1977.7;;;;-1.2117082;0.1596985;-0.36130527;;;;;;;;;;;;;;;
2079.0;1977.7;;;;-1.2148286;0.17177202;-0.36149982;;;;;;;;;;;;;;;
2079.0;1983.0;262143;262143;11763;;;;;;;;;;;;;;;;;;
2079.0;1985.2;;;;;;;;;;6.199072;2.7809992;-8.136998;;;;;;;;;
2079.0;1985.2;;;;;;;0.8387707;0.012817774;-0.17682424;;;;;;;;;;;;
2079.0;1985.2;;;;;;;;;;5.22248;3.460036;-8.484145;;;;;;;;;
2079.0;1985.2;;;;;;;0.85079503;0.0042115543;-0.17694631;;;;;;;;;;;;
2079.0;1987.7;;;;-1.2158471;0.18233491;-0.36150363;;;;;;;;;;;;;;;
2079.0;1987.7;;;;-1.2143136;0.19238666;-0.36133197;;;;;;;;;;;;;;;
2079.0;1987.7;;;;-1.2106668;0.20129779;-0.36031726;;;;;;;;;;;;;;;
2079.0;1987.7;;;;-1.2054979;0.20948794;-0.35924152;;;;;;;;;;;;;;;
2079.0;1987.7;;;;-1.1996156;0.21624377;-0.35781863;;;;;;;;;;;;;;;
2079.0;1994.6;;;;;;;;;;4.352702;4.291665;-8.838923;;;;;;;;;
2079.0;1994.6;;;;;;;0.860622;-0.006042665;-0.1777398;;;;;;;;;;;;
2079.0;1994.6;;;;;;;;;;3.6393323;4.9592576;-9.250923;;;;;;;;;
2079.0;1994.6;;;;;;;0.8681906;-0.018189032;-0.17670217;;;;;;;;;;;;
2083.0;1997.7;;;;-1.1933557;0.22237018;-0.3548546;;;;;;;;;;;;;;;
2083.0;1997.7;;;;-1.1870843;0.22722247;-0.35171512;;;;;;;;;;;;;;;
2083.0;1997.7;;;;-1.1815645;0.23086551;-0.34816363;;;;;;;;;;;;;;;
2083.0;1997.7;;;;-1.1775285;0.23324588;-0.3446541;;;;;;;;;;;;;;;
2083.0;1997.7;;;;-1.174038;0.23424914;-0.34152606;;;;;;;;;;;;;;;
2083.0;2003.1;262143;262143;11781;;;;;;;;;;;;;;;;;;
2083.0;2004.2;;;;;;;;;;2.845851;5.6764426;-9.765923;;;;;;;;;
2083.0;2004.2;;;;;;;0.8715476;-0.026551103;-0.1744438;;;;;;;;;;;;
2083.0;2004.2;;;;;;;;;;2.0523698;6.645406;-10.3228855;;;;;;;;;
2083.0;2004.2;;;;;;;0.8781396;-0.034485918;-0.17194128;;;;;;;;;;;;
2083.0;2007.8;;;;-1.1709214;0.23412707;-0.33799365;;;;;;;;;;;;;;;
2083.0;2007.8;;;;-1.1692201;0.2327309;-0.33433917;;;;;;;;;;;;;;;
2083.0;2007.8;;;;-1.1680528;0.23072818;-0.33111575;;;;;;;;;;;;;;;
2083.0;2007.8;;;;-1.168686;0.22734836;-0.32713702;;;;;;;;;;;;;;;
2083.0;2007.8;;;;-1.1705285;0.22354129;-0.3227425;;;;;;;;;;;;;;;
2083.0;2009.0;;;;;;;;;;;;;-401;;;;;;;;
2083.0;2009.0;;;;;;;;;;;;;-267;;;;;;;;
2083.0;2009.0;;;;;;;;;;;;;351;;;;;;;;
2083.0;2009.0;;;;;;;;;;;;;1074;;;;;;;;
2083.0;2009.0;;;;;;;;;;;;;1383;;;;;;;;
2083.0;2013.9;;;;;;;;;;1.3771478;7.6601458;-11.082033;;;;;;;;;
2083.0;2013.9;;;;;;;0.88595235;-0.044312876;-0.1721244;;;;;;;;;;;;
2083.0;2013.9;;;;;;;;;;0.8087405;8.484145;-11.917479;;;;;;;;;
2083.0;2013.9;;;;;;;0.8931547;-0.05017243;-0.17188025;;;;;;;;;;;;
2087.0;2017.9;;;;-1.1729661;0.21893695;-0.3183327;;;;;;;;;;;;;;;
2087.0;2017.9;;;;-1.1763383;0.21397403;-0.31429675;;;;;;;;;;;;;;;
2087.0;2017.9;;;;-1.1803323;0.20850375;-0.31173328;;;;;;;;;;;;;;;
2087.0;2017.9;;;;-1.1850778;0.20227435;-0.3098946;;;;;;;;;;;;;;;
2087.0;2017.9;;;;-1.1903383;0.19591907;-0.3089371;;;;;;;;;;;;;;;
2087.0;2023.5;;;;;;;;;;0.11825922;9.170813;-12.604144;;;;;;;;;
2087.0;2023.5;;;;;;;0.90249336;-0.055421613;-0.1772515;;;;;;;;;;;;
2087.0;2023.5;;;;;;;;;;-0.32044435;9.926145;-13.161107;;;;;;;;;
2087.0;2023.5;;;;;;;0.9231239;-0.05633717;-0.1850032;;;;;;;;;;;;
2087.0;2023.4;262143;262143;11806;;;;;;;;;;;;;;;;;;
2087.0;2025.9;;;;;;;;;;;;;;;;;-9.075441;58.370464;-63.062683;;1908.9
2087.0;2025.9;;;;;;;;;;;;;;1.1962645;0.4918363;-0.03277688;;;;;1908.9
2087.0;2025.9;;;;;;;;;;;;;;;;;-6.939146;74.892426;-72.39754;;1908.9
2087.0;2025.9;;;;;;;;;;;;;;1.3138218;0.4972686;-0.030945769;;;;;1908.9
2087.0;2025.9;;;;;;;;;;;;;;;;;-10.147405;95.89679;-86.87094;;1918.5
2087.0;2025.9;;;;;;;;;;;;;;1.4473709;0.47999513;-0.015259255;;;;;1918.5
2087.0;2025.9;;;;;;;;;;;;;;;;;-9.075441;115.07767;-97.02597;;1918.5
2087.0;2025.9;;;;;;;;;;;;;;1.6017945;0.46498;0.074648276;;;;;1918.5
2087.0;2025.9;;;;;;;;;;;;;;;;;-7.5647755;122.32963;-101.45116;;1928.1
2087.0;2025.9;;;;;;;;;;;;;;1.6381725;0.3881344;0.15466781;;;;;1928.1
2087.0;2025.9;;;;;;;;;;;;;;;;;-4.463332;118.91919;-107.98593;;1928.1
2087.0;2025.9;;;;;;;;;;;;;;1.6556292;0.29853207;0.20795313;;;;;1928.1
2090.0;2026.7;;;;;;;;;;;;;;;;;-0.7209998;105.12864;-115.871155;;1937.7
2090.0;2026.7;;;;;;;;;;;;;;1.6528214;0.20117801;0.21778008;;;;;1937.7
2090.0;2026.7;;;;;;;;;;;;;;;;;7.255776;82.47627;-123.85937;;1937.7
2090.0;2026.7;;;;;;;;;;;;;;1.6022217;0.10699789;0.110293895;;;;;1937.7
2090.0;2026.7;;;;;;;;;;;;;;;;;24.071474;59.09528;-124.988556;;1947.4
2090.0;2026.7;;;;;;;;;;;;;;1.5478377;0.075319685;-0.036561176;;;;;1947.4
2090.0;2026.7;;;;;;;;;;;;;;;;;46.6628;32.74636;-124.988556;;1947.4
2090.0;2026.7;;;;;;;;;;;;;;1.5422834;0.053102206;-0.19171728;;;;;1947.4
2090.0;2026.7;;;;;;;;;;;;;;;;;71.50105;3.2502213;-124.282814;;1957.0
2090.0;2026.7;;;;;;;;;;;;;;1.5627918;-0.010193182;-0.3590808;;;;;1957.0
2090.0;2026.7;;;;;;;;;;;;;;;;;90.58275;-14.015625;-108.3369;;1957.0
2090.0;2026.7;;;;;;;;;;;;;;1.5392315;-0.18042544;-0.47724846;;;;;1957.0
2090.0;2027.9;;;;-1.1964189;0.18954471;-0.30965427;;;;;;;;;;;;;;;
2090.0;2027.9;;;;-1.20393;0.18301393;-0.31027225;;;;;;;;;;;;;;;
2090.0;2027.9;;;;-1.2123643;0.17665865;-0.31193927;;;;;;;;;;;;;;;
2090.0;2027.9;;;;-1.2204591;0.1707802;-0.3135338;;;;;;;;;;;;;;;
2090.0;2027.9;;;;-1.2288209;0.1649933;-0.31561664;;;;;;;;;;;;;;;
2090.0;2032.9;;;;;;;;;;-0.62944424;10.811182;-13.763847;;;;;;;;;
2090.0;2032.9;;;;;;;0.9491867;-0.058473464;-0.1947081;;;;;;;;;;;;
2090.0;2032.9;;;;;;;;;;-0.87740713;11.894589;-14.511552;;;;;;;;;
2090.0;2032.9;;;;;;;0.97384566;-0.057069615;-0.20410779;;;;;;;;;;;;
2139.0;2038.0;;;;-1.2372476;0.15974046;-0.316803;;;;;;;;;;;;;;;
2139.0;2038.0;;;;-1.2444535;0.15518953;-0.31761554;;;;;;;;;;;;;;;
2139.0;2038.0;;;;-1.2507135;0.15100862;-0.31755832;;;;;;;;;;;;;;;
2139.0;2038.0;;;;-1.2559777;0.14693452;-0.31734088;;;;;;;;;;;;;;;
2139.0;2038.0;;;;-1.260235;0.14343263;-0.3177109;;;;;;;;;;;;;;;
2139.0;2042.5;;;;;;;;;;-1.0567034;13.054293;-15.068514;;;;;;;;;
2139.0;2042.5;;;;;;;0.9988708;-0.061098058;-0.21228676;;;;;;;;;;;;
2139.0;2042.5;;;;;;;;;;-1.2016664;14.507736;-15.430922;;;;;;;;;
2139.0;2042.5;;;;;;;1.0175481;-0.06811731;-0.22333445;;;;;;;;;;;;
2139.0;2043.4;262143;262143;11791;;;;;;;;;;;;;;;;;;
2139.0;2047.8;;;;-1.2641908;0.14019777;-0.31863406;;;;;;;;;;;;;;;
2139.0;2047.8;;;;-1.2679597;0.13765718;-0.31998447;;;;;;;;;;;;;;;
2139.0;2047.8;;;;-1.2712175;0.13554384;-0.3222275;;;;;;;;;;;;;;;
2139.0;2047.8;;;;-1.2744676;0.1339264;-0.3245888;;;;;;;;;;;;;;;
2139.0;2047.8;;;;-1.2777215;0.13292696;-0.32801822;;;;;;;;;;;;;;;
2139.0;2049.1;;;;;;;;;;;;;1264;;;;;;;;
2139.0;2049.1;;;;;;;;;;;;;531;;;;;;;;
2139.0;2049.1;;;;;;;;;;;;;-1089;;;;;;;;
2139.0;2049.1;;;;;;;;;;;;;-3001;;;;;;;;
2139.0;2049.1;;;;;;;;;;;;;-1633;;;;;;;;
2139.0;2051.9;;;;;;;;;;-1.1749626;16.3007;-15.511032;;;;;;;;;
2139.0;2051.9;;;;;;;1.0415968;-0.076113164;-0.23920408;;;;;;;;;;;;
2139.0;2051.9;;;;;;;;;;-1.1406293;18.059328;-15.56444;;;;;;;;;
2139.0;2051.9;;;;;;;1.0682088;-0.084109016;-0.25519577;;;;;;;;;;;;
2141.0;2057.8;;;;-1.2800027;0.13232423;-0.3311806;;;;;;;;;;;;;;;
2141.0;2057.8;;;;-1.282425;0.13240053;-0.33377078;;;;;;;;;;;;;;;
2141.0;2057.8;;;;-1.2841836;0.1330681;-0.3369141;;;;;;;;;;;;;;;
2141.0;2057.8;;;;-1.2855035;0.13508989;-0.3392754;;;;;;;;;;;;;;;
2141.0;2057.8;;;;-1.2865487;0.13756944;-0.34159473;;;;;;;;;;;;;;;
2141.0;2061.4;;;;;;;;;;-1.0109257;19.772179;-15.629292;;;;;;;;;
2141.0;2061.4;;;;;;;1.1016572;-0.09033479;-0.27149266;;;;;;;;;;;;
2141.0;2061.4;;;;;;;;;;-0.6904813;21.271402;-15.598773;;;;;;;;;
2141.0;2061.4;;;;;;;1.1367534;-0.09729301;-0.28699607;;;;;;;;;;;;
2141.0;2063.3;262143;262143;11805;;;;;;;;;;;;;;;;;;
2141.0;2067.9;;;;-1.2880594;0.1410637;-0.34544376;;;;;;;;;;;;;;;
2141.0;2067.9;;;;-1.2906457;0.14404298;-0.349556;;;;;;;;;;;;;;;
2141.0;2067.9;;;;-1.293564;0.14784624;-0.35348132;;;;;;;;;;;;;;;
2141.0;2067.9;;;;-1.2980844;0.15152742;-0.35657123;;;;;;;;;;;;;;;
2141.0;2067.9;;;;-1.3034364;0.15523912;-0.36022952;;;;;;;;;;;;;;;
2141.0;2071.1;;;;;;;;;;-0.11825922;22.431105;-15.507217;;;;;;;;;
2141.0;2071.1;;;;;;;1.1720939;-0.10846278;-0.30213323;;;;;;;;;;;;
2141.0;2071.1;;;;;;;;;;0.49211097;23.529772;-15.285958;;;;;;;;;
2141.0;2071.1;;;;;;;1.2027345;-0.12237922;-0.31745353;;;;;;;;;;;;
2142.0;2078.0;;;;-1.3081247;0.15908433;-0.36349872;;;;;;;;;;;;;;;
2142.0;2078.0;;;;-1.3123246;0.16274263;-0.36599353;;;;;;;;;;;;;;;
2142.0;2078.0;;;;-1.3158838;0.16651918;-0.3681641;;;;;;;;;;;;;;;
2142.0;2078.0;;;;-1.3178369;0.1701851;-0.36970904;;;;;;;;;;;;;;;
2142.0;2078.0;;;;-1.3180848;0.1734276;-0.3705521;;;;;;;;;;;;;;;
2142.0;2080.7;;;;;;;;;;1.247444;24.754326;-15.045625;;;;;;;;;
2142.0;2080.7;;;;;;;1.2311777;-0.143437;-0.331431;;;;;;;;;;;;
2142.0;2080.7;;;;;;;;;;2.1401105;25.646992;-14.908293;;;;;;;;;
2142.0;2080.7;;;;;;;1.2527238;-0.16718039;-0.34485915;;;;;;;;;;;;
2142.0;2083.6;262143;262143;11799;;;;;;;;;;;;;;;;;;
2142.0;2085.6;;;;;;;;;;;;;;;;;100.11978;-15.66744;-77.536095;;1966.6
2142.0;2085.6;;;;;;;;;;;;;;1.5076144;-0.35474715;-0.5780816;;;;;1966.6
2142.0;2085.6;;;;;;;;;;;;;;;;;99.77645;4.3298135;-57.62276;;1966.6
2142.0;2085.6;;;;;;;;;;;;;;1.4363232;-0.53462327;-0.6272164;;;;;1966.6
2142.0;2085.6;;;;;;;;;;;;;;;;;86.63061;50.03891;-54.235207;;1976.2
2142.0;2085.6;;;;;;;;;;;;;;1.2947782;-0.6159856;-0.53675956;;;;;1976.2
2142.0;2085.6;;;;;;;;;;;;;;;;;63.554794;99.066895;-68.05246;;1976.2
2142.0;2085.6;;;;;;;;;;;;;;1.1497543;-0.7049776;-0.46607867;;;;;1976.2
2142.0;2085.6;;;;;;;;;;;;;;;;;55.906094;123.29859;-94.4319;;1985.9
2142.0;2085.6;;;;;;;;;;;;;;1.0144963;-0.68813133;-0.28302866;;;;;1985.9
2142.0;2085.6;;;;;;;;;;;;;;;;;48.24595;124.988556;-121.87566;;1985.9
2142.0;2085.6;;;;;;;;;;;;;;0.99807733;-0.48414564;-0.0966216;;;;;1985.9
2143.0;2086.4;;;;;;;;;;;;;;;;;35.82873;124.988556;-124.988556;;1995.5
2143.0;2086.4;;;;;;;;;;;;;;1.0656453;-0.16278572;0.016052736;;;;;1995.5
2143.0;2086.4;;;;;;;;;;;;;;;;;21.652884;123.15744;-124.988556;;1995.5
2143.0;2086.4;;;;;;;;;;;;;;1.1355938;0.12305063;0.11004975;;;;;1995.5
2143.0;2086.4;;;;;;;;;;;;;;;;;4.154332;96.32405;-124.988556;;2005.1
2143.0;2086.4;;;;;;;;;;;;;;1.2520524;0.43873408;0.057008576;;;;;2005.1
2143.0;2086.4;;;;;;;;;;;;;;;;;-5.8671837;62.288277;-124.988556;;2005.1
2143.0;2086.4;;;;;;;;;;;;;;1.4233832;0.84646136;-0.18274483;;;;;2005.1
2143.0;2086.4;;;;;;;;;;;;;;;;;8.976256;44.87747;-124.988556;;2014.7
2143.0;2086.4;;;;;;;;;;;;;;1.4918058;1.1518906;-0.26490065;;;;;2014.7
2143.0;2086.4;;;;;;;;;;;;;;;;;17.071291;30.995361;-124.988556;;2014.7
2143.0;2086.4;;;;;;;;;;;;;;1.5831171;1.3480026;-0.456679;;;;;2014.7
2143.0;2087.9;;;;-1.3168947;0.17703249;-0.3718758;;;;;;;;;;;;;;;
2143.0;2087.9;;;;-1.3142778;0.18032075;-0.37176517;;;;;;;;;;;;;;;
2143.0;2087.9;;;;-1.3093797;0.18394853;-0.37087634;;;;;;;;;;;;;;;
2143.0;2087.9;;;;-1.3025628;0.18810657;-0.36951068;;;;;;;;;;;;;;;
2143.0;2087.9;;;;-1.2945634;0.19183353;-0.3674393;;;;;;;;;;;;;;;
2143.0;2089.3;;;;;;;;;;;;;2570;;;;;;;;
2143.0;2089.3;;;;;;;;;;;;;-3967;;;;;;;;
2143.0;2089.3;;;;;;;;;;;;;-28664;;;;;;;;
2143.0;2089.3;;;;;;;;;;;;;-52486;;;;;;;;
2143.0;2089.3;;;;;;;;;;;;;-49560;;;;;;;;
2143.0;2090.1;;;;;;;;;;3.0823696;26.493881;-14.85107;;;;;;;;;
2143.0;2090.1;;;;;;;1.2668233;-0.19013031;-0.3566393;;;;;;;;;;;;
2143.0;2090.1;;;;;;;;;;4.0856657;27.462843;-14.904477;;;;;;;;;
2143.0;2090.1;;;;;;;1.2737205;-0.21332438;-0.36469617;;;;;;;;;;;;
2145.0;2098.0;;;;-1.2847215;0.19503787;-0.3648949;;;;;;;;;;;;;;;
2145.0;2098.0;;;;-1.2735254;0.19803622;-0.3621712;;;;;;;;;;;;;;;
2145.0;2098.0;;;;-1.2602922;0.20068362;-0.35839847;;;;;;;;;;;;;;;
2145.0;2098.0;;;;-1.2464372;0.20314792;-0.3544884;;;;;;;;;;;;;;;
2145.0;2098.0;;;;-1.2325326;0.20518497;-0.35036853;;;;;;;;;;;;;;;
2145.0;2099.7;;;;;;;;;;4.951628;28.229622;-15.163884;;;;;;;;;
2145.0;2099.7;;;;;;;1.2689596;-0.23664053;-0.3700064;;;;;;;;;;;;
2145.0;2099.7;;;;;;;;;;5.8442945;28.626362;-15.583514;;;;;;;;;
2145.0;2099.7;;;;;;;1.2501602;-0.2548906;-0.3736076;;;;;;;;;;;;
2145.0;2100.7;;;;;;;;;;;;;;;;;28.02362;42.474136;-124.103516;;2024.3
2145.0;2100.7;;;;;;;;;;;;;;1.629017;1.3198035;-0.60139775;;;;;2024.3
2145.0;2100.7;;;;;;;;;;;;;;;;;42.336803;75.0679;-96.80853;;2024.3
2145.0;2100.7;;;;;;;;;;;;;;1.6172369;0.8685568;-0.46528518;;;;;2024.3
2145.0;2100.7;;;;;;;;;;;;;;;;;32.51747;94.36705;-64.47035;;2034.0
2145.0;2100.7;;;;;;;;;;;;;;1.6064943;0.43226418;-0.18134098;;;;;2034.0
2145.0;2100.7;;;;;;;;;;;;;;;;;4.50911;88.57234;-61.708427;;2034.0
2145.0;2100.7;;;;;;;;;;;;;;1.5919676;0.17535935;-0.03869747;;;;;2034.0
2145.0;2100.7;;;;;;;;;;;;;;;;;-10.055849;69.4296;-67.62902;;2043.6
2145.0;2100.7;;;;;;;;;;;;;;1.4991913;0.046998505;-0.016052736;;;;;2043.6
2145.0;2100.7;;;;;;;;;;;;;;;;;-16.449478;52.365948;-76.26194;;2043.6
2145.0;2100.7;;;;;;;;;;;;;;1.4356518;0.045960877;-0.051332135;;;;;2043.6
2145.0;2103.5;262143;262143;11786;;;;;;;;;;;;;;;;;;
2200.0;2107.9;;;;-1.2193261;0.20679477;-0.3440514;;;;;;;;;;;;;;;
2200.0;2107.9;;;;-1.2059861;0.20771411;-0.3360596;;;;;;;;;;;;;;;
2200.0;2107.9;;;;-1.1926461;0.20791629;-0.32822803;;;;;;;;;;;;;;;
2200.0;2107.9;;;;-1.1793748;0.20664218;-0.32075885;;;;;;;;;;;;;;;
2200.0;2107.9;;;;-1.1660234;0.20502856;-0.31219104;;;;;;;;;;;;;;;
2200.0;2109.1;;;;;;;;;;6.714072;28.572954;-16.17481;;;;;;;;;
2200.0;2109.1;;;;;;;1.2189093;-0.27008882;-0.36994538;;;;;;;;;;;;
2200.0;2109.1;;;;;;;;;;7.477035;27.932066;-16.827145;;;;;;;;;
2200.0;2109.1;;;;;;;1.1769768;-0.27558213;-0.36268196;;;;;;;;;;;;
2200.0;2117.6;;;;-1.152485;0.20240405;-0.30404666;;;;;;;;;;;;;;;
2200.0;2117.6;;;;-1.138115;0.19853595;-0.2952614;;;;;;;;;;;;;;;
2200.0;2117.6;;;;-1.1246568;0.19375613;-0.28636172;;;;;;;;;;;;;;;
2200.0;2117.6;;;;-1.1122209;0.18858722;-0.27688983;;;;;;;;;;;;;;;
2200.0;2117.6;;;;-1.1002198;0.1828499;-0.2663727;;;;;;;;;;;;;;;
2200.0;2118.3;;;;;;;;;;8.159886;27.241585;-17.38792;;;;;;;;;
2200.0;2118.3;;;;;;;1.1329081;-0.2702109;-0.35724968;;;;;;;;;;;;
2200.0;2118.3;;;;;;;;;;8.861812;26.84866;-17.834253;;;;;;;;;
2200.0;2118.3;;;;;;;1.1033051;-0.25501266;-0.35590684;;;;;;;;;;;;
2200.0;2123.3;262143;262143;11792;;;;;;;;;;;;;;;;;;
2205.0;2127.7;;;;-1.0883371;0.17688753;-0.25678638;;;;;;;;;;;;;;;
2205.0;2127.7;;;;-1.0757028;0.16984941;-0.24768832;;;;;;;;;;;;;;;
2205.0;2127.7;;;;-1.0613862;0.16214372;-0.23970035;;;;;;;;;;;;;;;
2205.0;2127.7;;;;-1.0464822;0.15428926;-0.23109058;;;;;;;;;;;;;;;
2205.0;2127.7;;;;-1.0321923;0.14578249;-0.22369006;;;;;;;;;;;;;;;
2205.0;2127.9;;;;;;;;;;9.369183;26.22303;-18.105106;;;;;;;;;
2205.0;2127.9;;;;;;;1.0929899;-0.22772911;-0.36054567;;;;;;;;;;;;
2205.0;2127.9;;;;;;;;;;9.861293;24.918362;-18.223366;;;;;;;;;
2205.0;2127.9;;;;;;;1.1132542;-0.19672231;-0.37531662;;;;;;;;;;;;
2205.0;2129.2;;;;;;;;;;;;;-20458;;;;;;;;
2205.0;2129.2;;;;;;;;;;;;;7269;;;;;;;;
2205.0;2129.2;;;;;;;;;;;;;13728;;;;;;;;
2205.0;2129.2;;;;;;;;;;;;;6427;;;;;;;;
2205.0;2129.2;;;;;;;;;;;;;1767;;;;;;;;
2205.0;2137.6;;;;;;;;;;10.4831085;23.625141;-18.047884;;;;;;;;;
2205.0;2137.6;;;;;;;1.1616565;-0.16296884;-0.39204076;;;;;;;;;;;;
2205.0;2137.6;;;;;;;;;;11.257515;22.442549;-17.559587;;;;;;;;;
2205.0;2137.6;;;;;;;1.2221442;-0.13605152;-0.4090701;;;;;;;;;;;;
2205.0;2137.8;;;;-1.0189172;0.13693239;-0.21691898;;;;;;;;;;;;;;;
2205.0;2137.8;;;;-1.0074579;0.12827684;-0.21045688;;;;;;;;;;;;;;;
2205.0;2137.8;;;;-0.9969331;0.12034227;-0.20365146;;;;;;;;;;;;;;;
2205.0;2137.8;;;;-0.9870187;0.11243822;-0.1963158;;;;;;;;;;;;;;;
2205.0;2137.8;;;;-0.9755403;0.105453506;-0.186924;;;;;;;;;;;;;;;
2205.0;2143.5;262143;262143;11776;;;;;;;;;;;;;;;;;;
2208.0;2146.0;;;;;;;;;;;;;;;;;-28.04651;45.83117;-78.21512;;2053.2
2208.0;2146.0;;;;;;;;;;;;;;1.3715628;0.0568865;-0.09607227;;;;;2053.2
2208.0;2146.0;;;;;;;;;;;;;;;;;-38.14432;48.24595;-75.243385;;2053.2
2208.0;2146.0;;;;;;;;;;;;;;1.2901394;0.055360578;-0.06372265;;;;;2053.2
2208.0;2146.0;;;;;;;;;;;;;;;;;-41.932434;48.310802;-72.3632;;2062.8
2208.0;2146.0;;;;;;;;;;;;;;1.1647694;0.04834132;0.01617481;;;;;2062.8
2208.0;2146.0;;;;;;;;;;;;;;;;;-42.1041;38.686028;-70.020905;;2062.8
2208.0;2146.0;;;;;;;;;;;;;;1.0325632;0.042481765;0.084475234;;;;;2062.8
2208.0;2146.0;;;;;;;;;;;;;;;;;-41.226692;24.887844;-67.25898;;2072.4
2208.0;2146.0;;;;;;;;;;;;;;0.9439375;0.038575396;0.09479049;;;;;2072.4
2208.0;2146.0;;;;;;;;;;;;;;;;;-37.9841;14.01181;-64.53139;;2072.4
2208.0;2146.0;;;;;;;;;;;;;;0.8669698;0.046388134;0.08105716;;;;;2072.4
2208.0;2147.0;;;;;;;;;;12.169256;21.122623;-16.52196;;;;;;;;;
2208.0;2147.0;;;;;;;1.2845851;-0.121097445;-0.42316964;;;;;;;;;;;;
2208.0;2147.0;;;;;;;;;;13.348033;19.409773;-15.24781;;;;;;;;;
2208.0;2147.0;;;;;;;1.3337809;-0.11847285;-0.43250832;;;;;;;;;;;;
2208.0;2147.8;;;;-0.96190274;0.09840013;-0.17916872;;;;;;;;;;;;;;;
2208.0;2147.8;;;;-0.95375454;0.09151078;-0.17648317;;;;;;;;;;;;;;;
2208.0;2147.8;;;;-0.9492227;0.08534623;-0.1680031;;;;;;;;;;;;;;;
2208.0;2147.8;;;;-0.9387132;0.0791092;-0.15626909;;;;;;;;;;;;;;;
2208.0;2147.8;;;;-0.9265443;0.0731392;-0.14916612;;;;;;;;;;;;;;;
2208.0;2156.6;;;;;;;;;;14.610737;17.986847;-13.70281;;;;;;;;;
2208.0;2156.6;;;;;;;1.3540453;-0.12945952;-0.43073824;;;;;;;;;;;;
2208.0;2156.6;;;;;;;;;;15.8772545;17.582476;-11.722922;;;;;;;;;
2208.0;2156.6;;;;;;;1.3513596;-0.14618365;-0.42927337;;;;;;;;;;;;
2268.0;2157.9;;;;-0.91479886;0.06688691;-0.14327623;;;;;;;;;;;;;;;
2268.0;2157.9;;;;-0.9027482;0.061027534;-0.13516237;;;;;;;;;;;;;;;
2268.0;2157.9;;;;-0.89042294;0.056186683;-0.12892534;;;;;;;;;;;;;;;
2268.0;2157.9;;;;-0.87829983;0.05075074;-0.12425615;;;;;;;;;;;;;;;
2268.0;2157.9;;;;-0.8668519;0.04503632;-0.11997606;;;;;;;;;;;;;;;
2268.0;2163.5;262143;262143;11738;;;;;;;;;;;;;;;;;;
2268.0;2166.2;;;;;;;;;;16.922514;18.181402;-9.704886;;;;;;;;;
2268.0;2166.2;;;;;;;1.335612;-0.16541032;-0.4268929;;;;;;;;;;;;
2268.0;2166.2;;;;;;;;;;17.967772;18.459883;-8.167517;;;;;;;;;
2268.0;2166.2;;;;;;;1.3138828;-0.1826838;-0.42585528;;;;;;;;;;;;
2268.0;2167.8;;;;-0.85582745;0.039520267;-0.115848556;;;;;;;;;;;;;;;
2268.0;2167.8;;;;-0.84455884;0.033412937;-0.11216356;;;;;;;;;;;;;;;
2268.0;2167.8;;;;-0.83332837;0.027515415;-0.1096039;;;;;;;;;;;;;;;
2268.0;2167.8;;;;-0.8227693;0.021991732;-0.10715105;;;;;;;;;;;;;;;
2268.0;2167.8;;;;-0.8122102;0.01664734;-0.10510637;;;;;;;;;;;;;;;
2268.0;2169.4;;;;;;;;;;;;;2170;;;;;;;;
2268.0;2169.4;;;;;;;;;;;;;1131;;;;;;;;
2268.0;2169.4;;;;;;;;;;;;;-748;;;;;;;;
2268.0;2169.4;;;;;;;;;;;;;-527;;;;;;;;
2268.0;2169.4;;;;;;;;;;;;;666;;;;;;;;
2268.0;2175.5;;;;;;;;;;18.97107;18.32255;-7.2405167;;;;;;;;;
2268.0;2175.5;;;;;;;1.3019196;-0.1981872;-0.4339732;;;;;;;;;;;;
2268.0;2175.5;;;;;;;;;;20.15366;17.296364;-6.637776;;;;;;;;;
2268.0;2175.5;;;;;;;1.292581;-0.21002838;-0.4344615;;;;;;;;;;;;
2270.0;2177.7;;;;-0.8026391;0.011535645;-0.104282394;;;;;;;;;;;;;;;
2270.0;2177.7;;;;-0.79431164;0.0068702707;-0.10427858;;;;;;;;;;;;;;;
2270.0;2177.7;;;;-0.7875482;0.0022163393;-0.104698196;;;;;;;;;;;;;;;
2270.0;2177.7;;;;-0.78237545;-0.001930237;-0.10624315;;;;;;;;;;;;;;;
2270.0;2177.7;;;;-0.77825177;-0.006011964;-0.10833742;;;;;;;;;;;;;;;
2270.0;2183.5;262143;262143;11691;;;;;;;;;;;;;;;;;;
2270.0;2185.1;;;;;;;;;;21.385845;15.095218;-6.0808134;;;;;;;;;
2270.0;2185.1;;;;;;;1.2773827;-0.21277505;-0.43250832;;;;;;;;;;;;
2270.0;2185.1;;;;;;;;;;22.362436;12.3638115;-5.33311;;;;;;;;;
2270.0;2185.1;;;;;;;1.2617573;-0.21277505;-0.43372905;;;;;;;;;;;;
2270.0;2187.8;;;;-0.77521145;-0.009510041;-0.11104585;;;;;;;;;;;;;;;
2270.0;2187.8;;;;-0.7734376;-0.012397768;-0.1137581;;;;;;;;;;;;;;;
2270.0;2187.8;;;;-0.77243817;-0.015365602;-0.116691604;;;;;;;;;;;;;;;
2270.0;2187.8;;;;-0.77173626;-0.017738344;-0.11958696;;;;;;;;;;;;;;;
2270.0;2187.8;;;;-0.7722398;-0.020423891;-0.12295915;;;;;;;;;;;;;;;
2270.0;2194.8;;;;;;;;;;23.174994;9.361553;-4.634999;;;;;;;;;
2270.0;2194.8;;;;;;;1.2520524;-0.2042909;-0.43391216;;;;;;;;;;;;
2270.0;2194.8;;;;;;;;;;24.006622;6.069369;-4.379406;;;;;;;;;
2270.0;2194.8;;;;;;;1.2476577;-0.19623402;-0.4316538;;;;;;;;;;;;
2271.0;2197.9;;;;-0.7723428;-0.022251131;-0.12662889;;;;;;;;;;;;;;;
2271.0;2197.9;;;;-0.7731744;-0.02362061;-0.13036348;;;;;;;;;;;;;;;
2271.0;2197.9;;;;-0.7733766;-0.025016788;-0.13391115;;;;;;;;;;;;;;;
2271.0;2197.9;;;;-0.7737123;-0.026218418;-0.13713457;;;;;;;;;;;;;;;
2271.0;2197.9;;;;-0.7745782;-0.02713013;-0.141037;;;;;;;;;;;;;;;
2271.0;2203.8;262143;262143;11660;;;;;;;;;;;;;;;;;;
2271.0;2204.4;;;;;;;;;;24.849695;2.399518;-4.2115545;;;;;;;;;
2271.0;2204.4;;;;;;;1.2411268;-0.18518631;-0.4275033;;;;;;;;;;;;
2271.0;2204.4;;;;;;;;;;25.601213;-0.98422194;-3.8872952;;;;;;;;;
2271.0;2204.4;;;;;;;1.2321543;-0.17902158;-0.42054507;;;;;;;;;;;;
2271.0;2205.9;;;;;;;;;;;;;;;;;-33.82977;5.6993318;-60.30076;;2082.1
2271.0;2205.9;;;;;;;;;;;;;;0.79384744;0.031250954;0.0695822;;;;;2082.1
2271.0;2205.9;;;;;;;;;;;;;;;;;-29.034548;-0.35477766;-56.329536;;2082.1
2271.0;2205.9;;;;;;;;;;;;;;0.7210303;0.024719993;0.07068087;;;;;2082.1
2271.0;2205.9;;;;;;;;;;;;;;;;;-25.578325;-5.33311;-51.786095;;2091.7
2271.0;2205.9;;;;;;;;;;;;;;0.6711631;0.04034547;0.084902495;;;;;2091.7
2271.0;2205.9;;;;;;;;;;;;;;;;;-22.026735;-10.12833;-46.27369;;2091.7
2271.0;2205.9;;;;;;;;;;;;;;0.6306345;0.065981016;0.09302042;;;;;2091.7
2271.0;2205.9;;;;;;;;;;;;;;;;;-18.787958;-14.141514;-40.166172;;2101.4
2271.0;2205.9;;;;;;;;;;;;;;0.5944395;0.08172857;0.08819849;;;;;2101.4
2271.0;2205.9;;;;;;;;;;;;;;;;;-16.357922;-17.345957;-34.051025;;2101.4
2271.0;2205.9;;;;;;;;;;;;;;0.5632496;0.094058044;0.076113164;;;;;2101.4
2273.0;2206.7;;;;;;;;;;;;;;;;;-14.698478;-19.459366;-27.325512;;2110.9
2273.0;2206.7;;;;;;;;;;;;;;0.52540666;0.09778131;0.07025361;;;;;2110.9
2273.0;2206.7;;;;;;;;;;;;;;;;;-13.4167;-21.565142;-20.226141;;2110.9
2273.0;2206.7;;;;;;;;;;;;;;0.48316905;0.076113164;0.058107242;;;;;2110.9
2273.0;2206.7;;;;;;;;;;;;;;;;;-12.88644;-22.778252;-13.5387745;;2120.5
2273.0;2206.7;;;;;;;;;;;;;;0.44886625;0.07116917;0.049073763;;;;;2120.5
2273.0;2206.7;;;;;;;;;;;;;;;;;-12.752922;-22.686697;-6.530961;;2120.5
2273.0;2206.7;;;;;;;;;;;;;;0.40705588;0.05896176;0.05023347;;;;;2120.5
2273.0;2206.7;;;;;;;;;;;;;;;;;-11.848811;-22.900326;0.94225895;;2130.1
2273.0;2206.7;;;;;;;;;;;;;;0.37189856;0.051271096;0.057863094;;;;;2130.1
2273.0;2206.7;;;;;;;;;;;;;;;;;-10.425886;-23.041475;7.9348125;;2130.1
2273.0;2206.7;;;;;;;;;;;;;;0.33973205;0.0557268;0.05566576;;;;;2130.1
2273.0;2207.9;;;;-0.7750894;-0.027759556;-0.14482118;;;;;;;;;;;;;;;
2273.0;2207.9;;;;-0.77638257;-0.02807999;-0.14764406;;;;;;;;;;;;;;;
2273.0;2207.9;;;;-0.77762234;-0.027854923;-0.1505623;;;;;;;;;;;;;;;
2273.0;2207.9;;;;-0.7779161;-0.026927952;-0.15268327;;;;;;;;;;;;;;;
2273.0;2207.9;;;;-0.77742016;-0.026622776;-0.15457536;;;;;;;;;;;;;;;
2273.0;2209.5;;;;;;;;;;;;;2043;;;;;;;;
2273.0;2209.5;;;;;;;;;;;;;2898;;;;;;;;
2273.0;2209.5;;;;;;;;;;;;;2713;;;;;;;;
2273.0;2209.5;;;;;;;;;;;;;1941;;;;;;;;
2273.0;2209.5;;;;;;;;;;;;;982;;;;;;;;
2273.0;2213.8;;;;;;;;;;26.417585;-3.7957397;-3.4066288;;;;;;;;;
2273.0;2213.8;;;;;;;1.218543;-0.17078158;-0.4110233;;;;;;;;;;;;
2273.0;2213.8;;;;;;;;;;27.1424;-6.221961;-2.76574;;;;;;;;;
2273.0;2213.8;;;;;;;1.2027345;-0.16528825;-0.40180668;;;;;;;;;;;;
2275.0;2218.0;;;;-0.7763635;-0.025917057;-0.1576729;;;;;;;;;;;;;;;
2275.0;2218.0;;;;-0.7743379;-0.02498627;-0.15997316;;;;;;;;;;;;;;;
2275.0;2218.0;;;;-0.77204144;-0.024501804;-0.16215898;;;;;;;;;;;;;;;
2275.0;2218.0;;;;-0.7696649;-0.02347565;-0.1639824;;;;;;;;;;;;;;;
2275.0;2218.0;;;;-0.7665864;-0.022041323;-0.16644289;;;;;;;;;;;;;;;
2275.0;2220.8;;;;;;;;;;;;;;;;;-9.3577385;-23.438215;15.900145;;2139.8
2275.0;2220.8;;;;;;;;;;;;;;0.3203833;0.058473464;0.061342206;;;;;2139.8
2275.0;2220.8;;;;;;;;;;;;;;;;;-8.816034;-24.388105;24.868769;;2139.8
2275.0;2220.8;;;;;;;;;;;;;;0.31055635;0.052919097;0.051087987;;;;;2139.8
2275.0;2220.8;;;;;;;;;;;;;;;;;-7.3244424;-24.868769;32.20466;;2149.5
2275.0;2220.8;;;;;;;;;;;;;;0.32056642;0.08417005;0.054933317;;;;;2149.5
2275.0;2220.8;;;;;;;;;;;;;;;;;-7.587664;-25.856808;40.707874;;2149.5
2275.0;2220.8;;;;;;;;;;;;;;0.326487;0.094912566;0.047425766;;;;;2149.5
2275.0;2220.8;;;;;;;;;;;;;;;;;-7.229072;-26.947845;49.226357;;2159.1
2275.0;2220.8;;;;;;;;;;;;;;0.311655;0.07214576;0.036317028;;;;;2159.1
2275.0;2220.8;;;;;;;;;;;;;;;;;-5.0279245;-27.974028;57.23365;;2159.1
2275.0;2220.8;;;;;;;;;;;;;;0.2912076;0.02764977;0.013855403;;;;;2159.1
2275.0;2223.3;;;;;;;;;;27.787102;-8.220923;-2.1782587;;;;;;;;;
2275.0;2223.3;;;;;;;1.1797235;-0.15955077;-0.39344463;;;;;;;;;;;;
2275.0;2223.3;;;;;;;;;;28.511917;-9.807885;-1.5869625;;;;;;;;;
2275.0;2223.3;;;;;;;1.1592761;-0.15344706;-0.38471633;;;;;;;;;;;;
2275.0;2223.7;262143;262143;11642;;;;;;;;;;;;;;;;;;
2320.0;2227.8;;;;-0.76366055;-0.020824434;-0.16753389;;;;;;;;;;;;;;;
2320.0;2227.8;;;;-0.76046765;-0.019519808;-0.1695099;;;;;;;;;;;;;;;
2320.0;2227.8;;;;-0.7554437;-0.018325808;-0.17006685;;;;;;;;;;;;;;;
2320.0;2227.8;;;;-0.75052655;-0.016838076;-0.17044069;;;;;;;;;;;;;;;
2320.0;2227.8;;;;-0.7444802;-0.015758516;-0.17180635;;;;;;;;;;;;;;;
2320.0;2232.7;;;;;;;;;;29.164251;-10.914183;-0.80111086;;;;;;;;;
2320.0;2232.7;;;;;;;1.1390729;-0.14484085;-0.37745294;;;;;;;;;;;;
2320.0;2232.7;;;;;;;;;;29.755548;-11.814478;0.10681479;;;;;;;;;
2320.0;2232.7;;;;;;;1.1188695;-0.13293862;-0.3665273;;;;;;;;;;;;
2320.0;2237.7;;;;-0.73818976;-0.014636995;-0.17384721;;;;;;;;;;;;;;;
2320.0;2237.7;;;;-0.7320519;-0.013477327;-0.17517091;;;;;;;;;;;;;;;
2320.0;2237.7;;;;-0.72723013;-0.012451174;-0.17673875;;;;;;;;;;;;;;;
2320.0;2237.7;;;;-0.72251135;-0.011615754;-0.17857744;;;;;;;;;;;;;;;
2320.0;2237.7;;;;-0.7177239;-0.011844637;-0.1799698;;;;;;;;;;;;;;;
2320.0;2242.2;;;;;;;;;;30.18662;-12.443922;1.0910367;;;;;;;;;
2320.0;2242.2;;;;;;;1.1008027;-0.12128056;-0.35920286;;;;;;;;;;;;
2320.0;2242.2;;;;;;;;;;30.632954;-12.783441;2.067629;;;;;;;;;
2320.0;2242.2;;;;;;;1.0810877;-0.111636706;-0.3475448;;;;;;;;;;;;
2320.0;2243.7;262143;262143;11643;;;;;;;;;;;;;;;;;;
2323.0;2247.8;;;;-0.7132264;-0.0118370075;-0.18093874;;;;;;;;;;;;;;;
2323.0;2247.8;;;;-0.708397;-0.012153627;-0.18187715;;;;;;;;;;;;;;;
2323.0;2247.8;;;;-0.70309454;-0.012660982;-0.18311693;;;;;;;;;;;;;;;
2323.0;2247.8;;;;-0.6970139;-0.0126915;-0.18267061;;;;;;;;;;;;;;;
2323.0;2247.8;;;;-0.69055563;-0.014091494;-0.18072893;;;;;;;;;;;;;;;
2323.0;2249.5;;;;;;;;;;;;;251;;;;;;;;
2323.0;2249.5;;;;;;;;;;;;;-264;;;;;;;;
2323.0;2249.5;;;;;;;;;;;;;-939;;;;;;;;
2323.0;2249.5;;;;;;;;;;;;;-2074;;;;;;;;
2323.0;2249.5;;;;;;;;;;;;;-3687;;;;;;;;
2323.0;2251.8;;;;;;;;;;31.025879;-13.042848;3.051851;;;;;;;;;
2323.0;2251.8;;;;;;;1.0604571;-0.09973449;-0.338023;;;;;;;;;;;;
2323.0;2251.8;;;;;;;;;;31.327251;-13.206885;3.9368877;;;;;;;;;
2323.0;2251.8;;;;;;;1.0351268;-0.08954131;-0.326487;;;;;;;;;;;;
2323.0;2257.9;;;;-0.6840516;-0.01526642;-0.1788254;;;;;;;;;;;;;;;
2323.0;2257.9;;;;-0.67675024;-0.016796114;-0.1772423;;;;;;;;;;;;;;;
2323.0;2257.9;;;;-0.67021185;-0.018241884;-0.1754532;;;;;;;;;;;;;;;
2323.0;2257.9;;;;-0.6637383;-0.020660402;-0.1731949;;;;;;;;;;;;;;;
2323.0;2257.9;;;;-0.6572953;-0.02399445;-0.1716385;;;;;;;;;;;;;;;
2323.0;2261.5;;;;;;;;;;31.495102;-13.168737;4.8829613;;;;;;;;;
2323.0;2261.5;;;;;;;1.0092471;-0.07873776;-0.31550035;;;;;;;;;;;;
2323.0;2261.5;;;;;;;;;;31.655323;-13.370922;5.6955166;;;;;;;;;
2323.0;2261.5;;;;;;;0.9797052;-0.067751095;-0.30530718;;;;;;;;;;;;
2323.0;2263.9;262143;262143;11671;;;;;;;;;;;;;;;;;;
2324.0;2266.3;;;;;;;;;;;;;;;;;-0.7248146;-28.03125;64.16517;;2168.8
2324.0;2266.3;;;;;;;;;;;;;;0.28278452;-0.0347911;-0.010864589;;;;;2168.8
2324.0;2266.3;;;;;;;;;;;;;;;;;6.4737387;-27.867214;69.77294;;2168.8
2324.0;2266.3;;;;;;;;;;;;;;0.29767755;-0.05920591;-0.026062807;;;;;2168.8
2324.0;2266.3;;;;;;;;;;;;;;;;;15.301217;-28.908659;75.06027;;2178.5
2324.0;2266.3;;;;;;;;;;;;;;0.35175633;0.016418958;-0.02496414;;;;;2178.5
2324.0;2266.3;;;;;;;;;;;;;;;;;26.287882;-31.300545;79.71435;;2178.5
