patientId;holterMac;flexMac;;;;;;;;;;;;;;;;;;;;
stairsup;CA:F3:0B:1E:33:78;D3:4A:5C:52:80:78;;;;;;;;;;;;;;;;;;;;
receivedTimeStamp;timeStamp;red;ir;green;adxl_accX;adxl_accY;adxl_accZ;lsm_accelX;lsm_accelY;lsm_accelZ;lsm_gyroX;lsm_gyroY;lsm_gyroZ;ecg;flex_lsm_accelX;flex_lsm_accelY;flex_lsm_accelZ;flex_lsm_gyroX;flex_lsm_gyroY;flex_lsm_gyroZ;flex_cmd;flexTimeStamp
292.0;219.0;;;;;;;;;;;;;;;;;;;;17;0.1
292.0;219.0;;;;;;;;;;;;;;;;;13.729514;0.51499987;1.22837;;127.7
292.0;219.0;;;;;;;;;;;;;;0.8959624;0.117862485;-0.48615986;;;;;127.7
292.0;219.0;;;;;;;;;;;;;;;;;-5.359813;-16.804255;-6.065554;;127.7
292.0;219.0;;;;;;;;;;;;;;0.93313396;0.123661004;-0.51350445;;;;;127.7
292.0;219.0;;;;;;;;;;;;;;;;;-64.867096;-84.410385;-59.41191;;137.3
292.0;219.0;;;;;;;;;;;;;;0.93795586;0.1225013;-0.52589494;;;;;137.3
292.0;219.0;;;;;;;;;;;;;;;;;-122.47078;-124.988556;-118.44997;;137.3
292.0;219.0;;;;;;;;;;;;;;0.9438154;0.119449444;-0.53944516;;;;;137.3
352.0;219.9;;;;;;;;;;;;;;;;;-58.70617;-124.652855;-68.20886;;147.0
352.0;219.9;;;;;;;;;;;;;;0.9568163;0.11548204;-0.54237497;;;;;147.0
352.0;219.9;;;;;;;;;;;;;;;;;7.457961;-123.775444;-5.8175907;;147.0
352.0;219.9;;;;;;;;;;;;;;0.97402877;0.10742515;-0.5416425;;;;;147.0
352.0;219.9;;;;;;;;;;;;;;;;;2.746666;-92.50923;9.414961;;156.7
352.0;219.9;;;;;;;;;;;;;;0.9881283;0.1032136;-0.5313883;;;;;156.7
352.0;219.9;;;;;;;;;;;;;;;;;-4.6617026;0.8507035;37.8811;;156.7
352.0;219.9;;;;;;;;;;;;;;1.0137029;0.100283824;-0.5287637;;;;;156.7
352.0;219.9;;;;;;;;;;;;;;;;;-5.8709984;8.682516;40.849026;;166.3
352.0;219.9;;;;;;;;;;;;;;1.022248;0.10541093;-0.52290416;;;;;166.3
352.0;219.9;;;;;;;;;;;;;;;;;-5.565813;8.445998;42.130802;;166.3
352.0;219.9;;;;;;;;;;;;;;1.0491654;0.1142613;-0.5236976;;;;;166.3
352.0;278.8;;;;;;;;;;;;;;;;;-4.8142953;8.774072;43.2371;;176.0
352.0;278.8;;;;;;;;;;;;;;1.0627766;0.114627525;-0.5246132;;;;;176.0
352.0;278.8;;;;;;;;;;;;;;;;;-3.952147;8.48796;43.50795;;176.0
352.0;278.8;;;;;;;;;;;;;;1.0827357;0.1350139;-0.5297403;;;;;176.0
352.0;278.8;;;;;;;;;;;;;;;;;-3.3684807;8.568071;43.801693;;185.6
352.0;278.8;;;;;;;;;;;;;;1.0937223;0.14325388;-0.5282754;;;;;185.6
352.0;278.8;;;;;;;;;;;;;;;;;-2.357555;8.865627;43.763546;;185.6
352.0;278.8;;;;;;;;;;;;;;1.1094699;0.15338603;-0.5330363;;;;;185.6
352.0;278.8;;;;;;;;;;;;;;;;;-1.0071108;9.376812;42.607655;;195.1
352.0;278.8;;;;;;;;;;;;;;1.0995818;0.16516617;-0.53334147;;;;;195.1
352.0;278.8;;;;;;;;;;;;;;;;;0.8964812;9.800256;40.9711;;195.1
352.0;278.8;;;;;;;;;;;;;;1.0919523;0.17847225;-0.5366375;;;;;195.1
415.0;279.6;;;;;;;;;;;;;;;;;3.1052582;10.0177;39.033173;;204.8
415.0;279.6;;;;;;;;;;;;;;1.0874965;0.18091373;-0.53315836;;;;;204.8
415.0;279.6;;;;;;;;;;;;;;;;;4.8409986;10.097812;36.385693;;204.8
415.0;279.6;;;;;;;;;;;;;;1.0937834;0.18939787;-0.5449385;;;;;204.8
415.0;279.6;;;;;;;;;;;;;;;;;6.1761837;10.021515;33.82977;;214.4
415.0;279.6;;;;;;;;;;;;;;1.1029999;0.2014832;-0.5590991;;;;;214.4
415.0;279.6;;;;;;;;;;;;;;;;;6.3783684;9.1975155;31.277657;;214.4
415.0;279.6;;;;;;;;;;;;;;1.1455427;0.23548082;-0.5758843;;;;;214.4
415.0;279.6;;;;;;;;;;;;;;;;;4.4289985;8.90759;28.607288;;224.0
415.0;279.6;;;;;;;;;;;;;;1.172399;0.2639851;-0.573809;;;;;224.0
415.0;279.6;;;;;;;;;;;;;;;;;0.5836665;8.724479;26.055178;;224.0
415.0;279.6;;;;;;;;;;;;;;1.1990112;0.31025118;-0.5805231;;;;;224.0
415.0;339.4;;;;;;;;;;;;;;;;;-5.771813;9.5675535;23.613697;;233.5
415.0;339.4;;;;;;;;;;;;;;1.1996826;0.3642079;-0.5751518;;;;;233.5
415.0;339.4;;;;;;;;;;;;;;;;;-13.512071;11.036257;21.019623;;233.5
415.0;339.4;;;;;;;;;;;;;;1.1982788;0.4339732;-0.58229315;;;;;233.5
415.0;339.4;;;;;;;;;;;;;;;;;-21.664328;13.882107;18.299662;;243.2
415.0;339.4;;;;;;;;;;;;;;1.1893673;0.5081332;-0.573809;;;;;243.2
415.0;339.4;;;;;;;;;;;;;;;;;-30.793177;16.613514;15.14481;;243.2
415.0;339.4;;;;;;;;;;;;;;1.1910764;0.57417524;-0.5717338;;;;;243.2
415.0;339.4;;;;;;;;;;;;;;;;;-38.0871;18.604847;12.810144;;252.9
415.0;339.4;;;;;;;;;;;;;;1.1662344;0.59150976;-0.5608081;;;;;252.9
415.0;339.4;;;;;;;;;;;;;;;;;-43.27525;19.188513;9.323405;;252.9
415.0;339.4;;;;;;;;;;;;;;1.1517686;0.58211005;-0.5637379;;;;;252.9
476.0;340.2;;;;;;;;;;;;;;;;;-45.91891;18.856625;3.8415174;;262.6
476.0;340.2;;;;;;;;;;;;;;1.1438948;0.567217;-0.56398207;;;;;262.6
476.0;340.2;;;;;;;;;;;;;;;;;-45.358135;18.974884;-3.3722954;;262.6
476.0;340.2;;;;;;;;;;;;;;1.1286966;0.59236425;-0.55360574;;;;;262.6
476.0;340.2;;;;;;;;;;;;;;;;;-42.130802;19.825586;-10.822627;;272.3
476.0;340.2;;;;;;;;;;;;;;1.1136204;0.6206244;-0.5453047;;;;;272.3
476.0;340.2;;;;;;;;;;;;;;;;;-37.2631;21.145512;-19.035921;;272.3
476.0;340.2;;;;;;;;;;;;;;1.1164892;0.6306345;-0.53529465;;;;;272.3
476.0;340.2;;;;;;;;;;;;;;;;;-31.594288;22.92703;-28.366955;;282.0
476.0;340.2;;;;;;;;;;;;;;1.1105075;0.6304514;-0.51661736;;;;;282.0
476.0;340.2;;;;;;;;;;;;;;;;;-25.997955;24.727623;-39.18958;;282.0
476.0;340.2;;;;;;;;;;;;;;1.1000702;0.624897;-0.48609883;;;;;282.0
476.0;400.3;;;;;;;;;;;;;;;;;-20.317698;26.84866;-51.007874;;291.6
476.0;400.3;;;;;;;;;;;;;;1.083285;0.6358837;-0.44257942;;;;;291.6
476.0;400.3;;;;;;;;;;;;;;;;;-14.698478;29.8204;-63.13517;;291.6
476.0;400.3;;;;;;;;;;;;;;1.0613728;0.651326;-0.38752404;;;;;291.6
476.0;400.3;;;;;;;;;;;;;;;;;-8.7397375;32.96762;-74.64828;;301.3
476.0;400.3;;;;;;;;;;;;;;1.0160832;0.68800926;-0.31159398;;;;;301.3
476.0;400.3;;;;;;;;;;;;;;;;;-5.0012207;34.18073;-84.50575;;301.3
476.0;400.3;;;;;;;;;;;;;;0.9659719;0.7182226;-0.25434124;;;;;301.3
476.0;400.3;;;;;;;;;;;;;;;;;-2.8649251;33.60088;-92.2689;;310.9
476.0;400.3;;;;;;;;;;;;;;0.8997467;0.7693106;-0.22809534;;;;;310.9
476.0;400.3;;;;;;;;;;;;;;;;;-4.3298135;30.610065;-97.57531;;310.9
476.0;400.3;;;;;;;;;;;;;;0.82796717;0.81283;-0.22516556;;;;;310.9
537.0;401.1;;;;;;;;;;;;;;;;;-8.274331;24.68566;-100.802635;;320.5
537.0;401.1;;;;;;;;;;;;;;0.7900632;0.867275;-0.23865475;;;;;320.5
537.0;401.1;;;;;;;;;;;;;;;;;-17.406994;18.265327;-101.91274;;320.5
537.0;401.1;;;;;;;;;;;;;;0.79964596;0.89492476;-0.26319164;;;;;320.5
537.0;401.1;;;;;;;;;;;;;;;;;-31.060213;13.515885;-101.71819;;330.0
537.0;401.1;;;;;;;;;;;;;;0.82741785;0.91116065;-0.2773522;;;;;330.0
537.0;401.1;;;;;;;;;;;;;;;;;-47.17017;9.582812;-99.76501;;330.0
537.0;401.1;;;;;;;;;;;;;;0.8555559;0.9074374;-0.2870571;;;;;330.0
537.0;401.1;;;;;;;;;;;;;;;;;-65.54994;2.97174;-95.90442;;339.7
537.0;401.1;;;;;;;;;;;;;;0.8908353;0.8453017;-0.33533737;;;;;339.7
537.0;401.1;;;;;;;;;;;;;;;;;-80.35142;-5.8061466;-93.37519;;339.7
537.0;401.1;;;;;;;;;;;;;;0.95272684;0.7995239;-0.39930418;;;;;339.7
537.0;459.5;;;;;;;;;;;;;;;;;-94.49675;-16.651663;-91.09012;;349.3
537.0;459.5;;;;;;;;;;;;;;1.0243232;0.7536241;-0.4921415;;;;;349.3
537.0;459.5;;;;;;;;;;;;;;;;;-103.99182;-28.080843;-89.38871;;349.3
537.0;459.5;;;;;;;;;;;;;;1.0828577;0.6961882;-0.6326487;;;;;349.3
537.0;459.5;;;;;;;;;;;;;;;;;-110.240486;-36.111027;-88.38924;;359.0
537.0;459.5;;;;;;;;;;;;;;1.1656849;0.65486616;-0.7735832;;;;;359.0
537.0;459.5;;;;;;;;;;;;;;;;;-115.28748;-40.456097;-88.78979;;359.0
537.0;459.5;;;;;;;;;;;;;;1.1957152;0.57509077;-0.8626362;;;;;359.0
537.0;459.5;;;;;;;;;;;;;;;;;-115.89786;-43.70632;-88.53038;;368.7
537.0;459.5;;;;;;;;;;;;;;1.3097323;0.5044099;-0.8995636;;;;;368.7
537.0;459.5;;;;;;;;;;;;;;;;;-113.7196;-46.380505;-88.23664;;368.7
537.0;459.5;;;;;;;;;;;;;;1.4982147;0.4173101;-0.98904383;;;;;368.7
596.0;460.7;;;;;;;;;;;;;;;;;-107.65023;-42.077396;-89.50697;;378.4
596.0;460.7;;;;;;;;;;;;;;1.7092197;0.30994597;-1.0455642;;;;;378.4
596.0;460.7;;;;;;;;;;;;;;;;;-108.840454;-26.398512;-93.993195;;378.4
596.0;460.7;;;;;;;;;;;;;;1.6486099;0.1782281;-1.0378125;;;;;378.4
596.0;460.7;;;;;;;;;;;;;;;;;-115.99704;-3.7614062;-100.79119;;388.1
596.0;460.7;;;;;;;;;;;;;;1.543321;0.15295877;-0.94424266;;;;;388.1
596.0;460.7;;;;;;;;;;;;;;;;;-119.579155;10.822627;-103.732414;;388.1
596.0;460.7;;;;;;;;;;;;;;1.6931669;0.10608234;-0.89742726;;;;;388.1
596.0;460.7;;;;;;;;;;;;;;;;;-118.21726;25.669882;-107.68456;;397.7
596.0;460.7;;;;;;;;;;;;;;1.718009;0.008362072;-0.824427;;;;;397.7
596.0;460.7;;;;;;;;;;;;;;;;;-120.09033;38.518177;-116.90497;;397.7
596.0;460.7;;;;;;;;;;;;;;1.459029;0.002990814;-0.60664696;;;;;397.7
596.0;519.8;;;;;;;;;;;;;;;;;-107.58538;36.5421;-120.01022;;407.3
596.0;519.8;;;;;;;;;;;;;;1.4715415;-0.0041505173;-0.6585284;;;;;407.3
596.0;519.8;;;;;;;;;;;;;;;;;-92.72286;39.212467;-121.60481;;407.3
596.0;519.8;;;;;;;;;;;;;;1.5769525;-0.027283547;-0.75264746;;;;;407.3
596.0;519.8;;;;;;;;;;;;;;;;;-85.61205;45.53743;-124.53841;;417.0
596.0;519.8;;;;;;;;;;;;;;1.5221412;0.02148503;-0.7345195;;;;;417.0
596.0;519.8;;;;;;;;;;;;;;;;;-78.081604;48.081913;-124.67574;;417.0
596.0;519.8;;;;;;;;;;;;;;1.4266182;0.064210944;-0.6758629;;;;;417.0
596.0;519.8;;;;;;;;;;;;;;;;;-68.57509;47.963654;-124.09207;;426.6
596.0;519.8;;;;;;;;;;;;;;1.3846858;0.04358043;-0.619953;;;;;426.6
596.0;519.8;;;;;;;;;;;;;;;;;-62.6278;50.550095;-124.74441;;426.6
596.0;519.8;;;;;;;;;;;;;;1.3832209;0.09656057;-0.5602588;;;;;426.6
656.0;520.6;;;;;;;;;;;;;;;;;-62.15476;53.998688;-124.988556;;436.1
656.0;520.6;;;;;;;;;;;;;;1.2125614;0.23328349;-0.446791;;;;;436.1
656.0;520.6;;;;;;;;;;;;;;;;;-64.98535;48.287914;-124.988556;;436.1
656.0;520.6;;;;;;;;;;;;;;1.1588489;0.42402416;-0.39857173;;;;;436.1
656.0;520.6;;;;;;;;;;;;;;;;;-66.67913;39.429913;-124.782555;;445.8
656.0;520.6;;;;;;;;;;;;;;1.1239967;0.29755548;-0.49665824;;;;;445.8
656.0;520.6;;;;;;;;;;;;;;;;;-67.09495;33.76492;-124.50789;;445.8
656.0;520.6;;;;;;;;;;;;;;1.0292062;0.52699363;-0.46986297;;;;;445.8
656.0;520.6;;;;;;;;;;;;;;;;;-74.465164;25.543993;-124.389626;;455.5
656.0;520.6;;;;;;;;;;;;;;0.9328898;0.48084962;-0.5175329;;;;;455.5
656.0;520.6;;;;;;;;;;;;;;;;;-79.088715;18.62392;-124.25611;;455.5
656.0;520.6;;;;;;;;;;;;;;0.89706105;0.5390179;-0.53956723;;;;;455.5
656.0;534.7;;;;;;;;;;;;;;;;;-81.553085;14.633626;-124.618515;;465.2
656.0;534.7;;;;;;;;;;;;;;0.87148654;0.60408336;-0.5741142;;;;;465.2
656.0;534.7;;;;;;;;;;;;;;;;;-80.660416;8.827478;-124.27137;;465.2
656.0;534.7;;;;;;;;;;;;;;0.9230018;0.63649404;-0.61610764;;;;;465.2
656.0;534.7;;;;;;;;;;;;;;;;;-82.34275;5.794702;-124.12259;;474.9
656.0;534.7;;;;;;;;;;;;;;0.8593402;0.6408887;-0.570513;;;;;474.9
656.0;534.7;;;;;;;;;;;;;;;;;-83.34223;0.46922207;-121.89092;;474.9
656.0;534.7;;;;;;;;;;;;;;0.8872341;0.66713464;-0.5683767;;;;;474.9
656.0;534.7;;;;;;;;;;;;;;;;;-85.82568;-4.360332;-119.10612;;484.6
656.0;534.7;;;;;;;;;;;;;;0.8666036;0.5816828;-0.5478683;;;;;484.6
656.0;534.7;;;;;;;;;;;;;;;;;-87.79031;-8.705404;-116.6303;;484.6
656.0;534.7;;;;;;;;;;;;;;0.86629844;0.48866236;-0.5313883;;;;;484.6
713.0;580.4;;;;;;;;;;;;;;;;;-89.77401;-12.226479;-112.96045;;494.3
713.0;580.4;;;;;;;;;;;;;;0.8895535;0.41468552;-0.54353464;;;;;494.3
713.0;580.4;;;;;;;;;;;;;;;;;-92.3986;-12.222664;-108.94345;;494.3
713.0;580.4;;;;;;;;;;;;;;0.85580003;0.3569445;-0.5525071;;;;;494.3
713.0;580.4;;;;;;;;;;;;;;;;;-97.479935;-10.692923;-106.704155;;503.9
713.0;580.4;;;;;;;;;;;;;;0.7906125;0.30457473;-0.5224158;;;;;503.9
713.0;580.4;;;;;;;;;;;;;;;;;-103.659935;-12.546922;-105.59405;;503.9
713.0;580.4;;;;;;;;;;;;;;0.8591571;0.29804376;-0.53151035;;;;;503.9
713.0;580.4;;;;;;;;;;;;;;;;;-109.54619;-11.349071;-103.49971;;513.6
713.0;580.4;;;;;;;;;;;;;;0.8586688;0.250618;-0.5071566;;;;;513.6
713.0;580.4;;;;;;;;;;;;;;;;;-114.19645;-8.278146;-100.730156;;513.6
713.0;580.4;;;;;;;;;;;;;;0.8467666;0.22070986;-0.4865871;;;;;513.6
713.0;595.0;;;;;;;;;;;;;;;;;-118.24778;-6.050295;-98.67016;;523.3
713.0;595.0;;;;;;;;;;;;;;0.7498398;0.21527757;-0.43989378;;;;;523.3
713.0;595.0;;;;;;;;;;;;;;;;;-120.777;-7.415998;-97.056496;;523.3
713.0;595.0;;;;;;;;;;;;;;0.75063324;0.20508438;-0.4524674;;;;;523.3
713.0;595.0;;;;;;;;;;;;;;;;;-122.04352;-7.621998;-94.870605;;532.9
713.0;595.0;;;;;;;;;;;;;;0.7713248;0.21167639;-0.45106357;;;;;532.9
713.0;595.0;;;;;;;;;;;;;;;;;-123.249;-4.4557023;-92.39478;;532.9
713.0;595.0;;;;;;;;;;;;;;0.7783441;0.21057771;-0.41908017;;;;;532.9
713.0;595.0;;;;;;;;;;;;;;;;;-122.867516;-0.54933316;-89.98764;;542.5
713.0;595.0;;;;;;;;;;;;;;0.7787103;0.21100497;-0.36561173;;;;;542.5
713.0;595.0;;;;;;;;;;;;;;;;;-120.64348;2.4262216;-87.59576;;542.5
713.0;595.0;;;;;;;;;;;;;;0.74452955;0.19116795;-0.33234656;;;;;542.5
777.0;640.0;;;;;;;;;;;;;;;;;-117.02704;4.2458873;-85.039825;;552.2
777.0;640.0;;;;;;;;;;;;;;0.6902066;0.18366039;-0.29285562;;;;;552.2
777.0;640.0;;;;;;;;;;;;;;;;;-113.94467;4.631184;-83.182014;;552.2
777.0;640.0;;;;;;;;;;;;;;0.651326;0.20484024;-0.2675863;;;;;552.2
777.0;640.0;;;;;;;;;;;;;;;;;-111.850334;4.6540728;-82.232124;;561.9
777.0;640.0;;;;;;;;;;;;;;0.60139775;0.1948912;-0.23993652;;;;;561.9
777.0;640.0;;;;;;;;;;;;;;;;;-111.03778;2.0027773;-80.84353;;561.9
777.0;640.0;;;;;;;;;;;;;;0.56971955;0.19507432;-0.22821741;;;;;561.9
777.0;640.0;;;;;;;;;;;;;;;;;-110.40452;-2.1248512;-78.45545;;571.6
777.0;640.0;;;;;;;;;;;;;;0.52607805;0.16937773;-0.21149327;;;;;571.6
777.0;640.0;;;;;;;;;;;;;;;;;-109.19904;-5.6573687;-77.764984;;571.6
777.0;640.0;;;;;;;;;;;;;;0.56105226;0.19000824;-0.19714957;;;;;571.6
777.0;655.0;;;;;;;;;;;;;;;;;-108.59249;-5.0012207;-78.03964;;581.2
777.0;655.0;;;;;;;;;;;;;;0.53425705;0.14563432;-0.20117801;;;;;581.2
777.0;655.0;;;;;;;;;;;;;;;;;-109.23719;-6.95822;-77.11265;;581.2
777.0;655.0;;;;;;;;;;;;;;0.49470505;0.08453627;-0.1744438;;;;;581.2
777.0;655.0;;;;;;;;;;;;;;;;;-107.92871;-10.029145;-75.95294;;590.9
777.0;655.0;;;;;;;;;;;;;;0.50038147;0.033143103;-0.15686513;;;;;590.9
777.0;655.0;;;;;;;;;;;;;;;;;-104.86542;-12.016664;-74.86572;;590.9
777.0;655.0;;;;;;;;;;;;;;0.50660723;-0.013489181;-0.15124974;;;;;590.9
777.0;655.0;;;;;;;;;;;;;;;;;-101.55415;-12.112034;-74.19431;;600.6
777.0;655.0;;;;;;;;;;;;;;0.48554948;-0.040284432;-0.11969359;;;;;600.6
777.0;655.0;;;;;;;;;;;;;;;;;-98.98297;-12.253182;-73.51146;;600.6
777.0;655.0;;;;;;;;;;;;;;0.45893735;-0.047242653;-0.08685568;;;;;600.6
836.0;700.3;;;;;;;;;;;;;;;;;-94.89731;-13.496811;-72.38991;;610.1
836.0;700.3;;;;;;;;;;;;;;0.4608295;-0.044740137;-0.08001953;;;;;610.1
836.0;700.3;;;;;;;;;;;;;;;;;-90.220345;-12.19596;-71.092865;;610.1
836.0;700.3;;;;;;;;;;;;;;0.43989378;-0.07849361;-0.04052858;;;;;610.1
836.0;700.3;;;;;;;;;;;;;;;;;-84.52864;-12.359997;-69.64705;;619.7
836.0;700.3;;;;;;;;;;;;;;0.42738122;-0.010925626;-0.050355542;;;;;619.7
836.0;700.3;;;;;;;;;;;;;;;;;-81.04953;-12.272256;-66.77832;;619.7
836.0;700.3;;;;;;;;;;;;;;0.37641528;-0.01800592;-0.05658132;;;;;619.7
836.0;700.3;;;;;;;;;;;;;;;;;-76.75405;-14.790033;-64.046906;;629.4
836.0;700.3;;;;;;;;;;;;;;0.39625233;0.0073244423;-0.07373272;;;;;629.4
836.0;700.3;;;;;;;;;;;;;;;;;-72.65313;-14.984588;-62.22724;;629.4
836.0;700.3;;;;;;;;;;;;;;0.36164433;0.017944884;-0.07000946;;;;;629.4
836.0;707.7;;;;;;;;;;;;;;;;;-68.113495;-16.613514;-60.296944;;638.9
836.0;707.7;;;;;;;;;;;;;;0.42023987;0.060548723;-0.08233894;;;;;638.9
836.0;707.7;;;;;;;;;;;;;;;;;-63.875244;-16.750847;-57.721947;;638.9
836.0;707.7;;;;;;;;;;;;;;0.4252449;0.109073155;-0.06964324;;;;;638.9
836.0;707.7;;;;;;;;;;;;;;;;;-62.444687;-16.342663;-54.9295;;648.6
836.0;707.7;;;;;;;;;;;;;;0.42182684;0.13666189;-0.0684225;;;;;648.6
836.0;707.7;;;;;;;;;;;;;;;;;-62.105167;-15.526292;-52.041687;;648.6
836.0;707.7;;;;;;;;;;;;;;0.40070802;0.14142278;-0.0700705;;;;;648.6
836.0;707.7;;;;;;;;;;;;;;;;;-61.849575;-16.178625;-49.268322;;658.3
836.0;707.7;;;;;;;;;;;;;;0.402295;0.15033418;-0.083803825;;;;;658.3
836.0;707.7;;;;;;;;;;;;;;;;;-61.41087;-16.98355;-46.269875;;658.3
836.0;707.7;;;;;;;;;;;;;;0.42982268;0.15466781;-0.09277627;;;;;658.3
897.0;760.4;;;;;;;;;;;;;;;;;-61.38798;-17.029327;-42.886135;;668.0
897.0;760.4;;;;;;;;;;;;;;0.4337901;0.1812189;-0.08844264;;;;;668.0
897.0;760.4;;;;;;;;;;;;;;;;;-61.368908;-16.582996;-38.563953;;668.0
897.0;760.4;;;;;;;;;;;;;;0.41132846;0.17181921;-0.08008057;;;;;668.0
897.0;760.4;;;;;;;;;;;;;;;;;-60.41139;-17.406994;-34.619434;;677.5
897.0;760.4;;;;;;;;;;;;;;0.4046144;0.16022217;-0.09631642;;;;;677.5
897.0;760.4;;;;;;;;;;;;;;;;;-58.286537;-18.101292;-30.888546;;677.5
897.0;760.4;;;;;;;;;;;;;;0.3916135;0.16687521;-0.095278785;;;;;677.5
897.0;760.4;;;;;;;;;;;;;;;;;-55.18128;-21.008179;-26.608326;;687.2
897.0;760.4;;;;;;;;;;;;;;0.37794122;0.13861507;-0.10620441;;;;;687.2
897.0;760.4;;;;;;;;;;;;;;;;;-51.484726;-22.377697;-22.968992;;687.2
897.0;760.4;;;;;;;;;;;;;;0.35999635;0.1358684;-0.098025456;;;;;687.2
897.0;767.9;;;;;;;;;;;;;;;;;-46.430096;-24.803917;-18.925291;;696.8
897.0;767.9;;;;;;;;;;;;;;0.3640248;0.13367108;-0.10168768;;;;;696.8
897.0;767.9;;;;;;;;;;;;;;;;;-41.436504;-25.116734;-14.62981;;696.8
897.0;767.9;;;;;;;;;;;;;;0.35572374;0.15540025;-0.06701865;;;;;696.8
897.0;767.9;;;;;;;;;;;;;;;;;-36.648914;-25.89114;-10.311441;;706.5
897.0;767.9;;;;;;;;;;;;;;0.3531602;0.18732262;-0.07086398;;;;;706.5
897.0;767.9;;;;;;;;;;;;;;;;;-32.921844;-26.19251;-5.893887;;706.5
897.0;767.9;;;;;;;;;;;;;;0.3598132;0.25580615;-0.05896176;;;;;706.5
897.0;767.9;;;;;;;;;;;;;;;;;-30.476545;-26.352734;-1.4229255;;716.1
897.0;767.9;;;;;;;;;;;;;;0.35578477;0.3010956;-0.0651265;;;;;716.1
897.0;767.9;;;;;;;;;;;;;;;;;-27.218697;-27.558214;2.4834437;;716.1
897.0;767.9;;;;;;;;;;;;;;0.3469344;0.36640522;-0.056764428;;;;;716.1
1016.0;820.7;;;;;;;;;;;;;;;;;-22.938475;-29.39314;5.6802573;;725.7
1016.0;820.7;;;;;;;;;;;;;;0.3685415;0.42597735;-0.07483139;;;;;725.7
1016.0;820.7;;;;;;;;;;;;;;;;;-16.350292;-31.815548;8.079776;;725.7
1016.0;820.7;;;;;;;;;;;;;;0.3487045;0.4596698;-0.09814753;;;;;725.7
1016.0;820.7;;;;;;;;;;;;;;;;;-7.511368;-35.786766;9.73922;;735.4
1016.0;820.7;;;;;;;;;;;;;;0.36292613;0.5084994;-0.13245033;;;;;735.4
1016.0;820.7;;;;;;;;;;;;;;;;;1.247444;-37.63695;11.650441;;735.4
1016.0;820.7;;;;;;;;;;;;;;0.3543199;0.53779715;-0.14423047;;;;;735.4
1016.0;820.7;;;;;;;;;;;;;;;;;9.834589;-41.37547;13.851588;;745.0
1016.0;820.7;;;;;;;;;;;;;;0.38471633;0.57582325;-0.17096469;;;;;745.0
1016.0;820.7;;;;;;;;;;;;;;;;;18.62392;-45.41154;16.193884;;745.0
1016.0;820.7;;;;;;;;;;;;;;0.38923308;0.58900726;-0.20624408;;;;;745.0
1016.0;828.5;;;;;;;;;;;;;;;;;28.050325;-49.882504;18.707848;;754.7
1016.0;828.5;;;;;;;;;;;;;;0.40058595;0.6135441;-0.25586718;;;;;754.7
1016.0;828.5;;;;;;;;;;;;;;;;;36.828213;-53.685875;22.343363;;754.7
1016.0;828.5;;;;;;;;;;;;;;0.41901913;0.6226997;-0.29535812;;;;;754.7
1016.0;828.5;;;;;;;;;;;;;;;;;43.68725;-54.734947;27.695547;;764.4
1016.0;828.5;;;;;;;;;;;;;;0.46632284;0.62977993;-0.35328227;;;;;764.4
1016.0;828.5;;;;;;;;;;;;;;;;;46.594135;-52.46132;34.573654;;764.4
1016.0;828.5;;;;;;;;;;;;;;0.4669332;0.60951567;-0.34284493;;;;;764.4
1016.0;828.5;;;;;;;;;;;;;;;;;44.91943;-48.924988;43.404953;;773.9
1016.0;828.5;;;;;;;;;;;;;;0.4807886;0.59071624;-0.33460495;;;;;773.9
1016.0;828.5;;;;;;;;;;;;;;;;;39.84954;-46.643726;52.507095;;773.9
1016.0;828.5;;;;;;;;;;;;;;0.5182653;0.5431684;-0.33356732;;;;;773.9
1018.0;880.8;;;;;;;;;;;;;;;;;34.020508;-41.98584;61.57872;;783.6
1018.0;880.8;;;;;;;;;;;;;;0.4712058;0.49403363;-0.28876615;;;;;783.6
1018.0;880.8;;;;;;;;;;;;;;;;;29.545732;-40.5858;70.39094;;783.6
1018.0;880.8;;;;;;;;;;;;;;0.47444075;0.45533615;-0.34449294;;;;;783.6
1018.0;880.8;;;;;;;;;;;;;;;;;26.467178;-39.67406;78.3906;;793.1
1018.0;880.8;;;;;;;;;;;;;;0.4562517;0.40174565;-0.37702566;;;;;793.1
1018.0;880.8;;;;;;;;;;;;;;;;;26.821955;-40.566727;86.31398;;793.1
1018.0;880.8;;;;;;;;;;;;;;0.45612964;0.35749382;-0.4046144;;;;;793.1
1018.0;880.8;;;;;;;;;;;;;;;;;28.702658;-42.401653;94.64553;;802.7
1018.0;880.8;;;;;;;;;;;;;;0.44117558;0.26783043;-0.41920224;;;;;802.7
1018.0;880.8;;;;;;;;;;;;;;;;;32.105473;-44.095432;102.839745;;802.7
1018.0;880.8;;;;;;;;;;;;;;0.42316964;0.15918455;-0.4329966;;;;;802.7
1018.0;888.3;;;;;;;;;;;;;;;;;36.217842;-44.518875;110.942406;;812.3
1018.0;888.3;;;;;;;;;;;;;;0.41584522;0.058473464;-0.41694388;;;;;812.3
1018.0;888.3;;;;;;;;;;;;;;;;;39.00647;-42.069767;119.16715;;812.3
1018.0;888.3;;;;;;;;;;;;;;0.41865292;-0.023255104;-0.3696402;;;;;812.3
1018.0;888.3;;;;;;;;;;;;;;;;;38.598286;-36.54973;124.546036;;822.0
1018.0;888.3;;;;;;;;;;;;;;0.42121646;-0.08709983;-0.24787134;;;;;822.0
1018.0;888.3;;;;;;;;;;;;;;;;;39.72365;-33.352917;124.988556;;822.0
1018.0;888.3;;;;;;;;;;;;;;0.39173558;-0.095583975;-0.08185064;;;;;822.0
1018.0;888.3;;;;;;;;;;;;;;;;;50.508133;-41.768394;124.988556;;831.7
1018.0;888.3;;;;;;;;;;;;;;0.42847988;0.06946013;-0.07550279;;;;;831.7
1018.0;888.3;;;;;;;;;;;;;;;;;63.20765;-56.081573;124.988556;;831.7
1018.0;888.3;;;;;;;;;;;;;;0.60011595;0.44117558;-0.09033479;;;;;831.7
1077.0;941.1;;;;;;;;;;;;;;;;;58.57265;-63.03598;124.85122;;841.4
1077.0;941.1;;;;;;;;;;;;;;0.87044895;0.82003236;0.11511582;;;;;841.4
1077.0;941.1;;;;;;;;;;;;;;;;;57.42439;-65.56902;121.66203;;841.4
1077.0;941.1;;;;;;;;;;;;;;1.292642;1.139256;0.18506424;;;;;841.4
1077.0;941.1;;;;;;;;;;;;;;;;;97.88049;-65.64532;112.056335;;851.0
1077.0;941.1;;;;;;;;;;;;;;1.4201484;1.3509934;-0.5064241;;;;;851.0
1077.0;941.1;;;;;;;;;;;;;;;;;124.324776;-83.78475;98.521385;;851.0
1077.0;941.1;;;;;;;;;;;;;;1.2852565;1.3684499;-1.2981963;;;;;851.0
1077.0;941.1;;;;;;;;;;;;;;;;;124.988556;-117.244484;94.09619;;860.7
1077.0;941.1;;;;;;;;;;;;;;1.744438;1.1996826;-1.5183569;;;;;860.7
1077.0;941.1;;;;;;;;;;;;;;;;;124.988556;-101.11545;97.76223;;860.7
1077.0;941.1;;;;;;;;;;;;;;1.9970702;1.1117283;-1.3228554;;;;;860.7
1077.0;942.3;;;;;;;;;;;;;;;;;124.832146;-65.40498;91.24653;;870.4
1077.0;942.3;;;;;;;;;;;;;;1.9970702;1.1101413;-1.2684103;;;;;870.4
1077.0;942.3;;;;;;;;;;;;;;;;;113.81878;-72.71798;75.10606;;870.4
1077.0;942.3;;;;;;;;;;;;;;1.8522294;1.1734366;-1.4058046;;;;;870.4
1077.0;942.3;;;;;;;;;;;;;;;;;73.34742;-78.44782;71.10812;;880.0
1077.0;942.3;;;;;;;;;;;;;;1.8287911;1.1485946;-1.3068026;;;;;880.0
1077.0;942.3;;;;;;;;;;;;;;;;;25.635548;-54.437393;73.92346;;880.0
1077.0;942.3;;;;;;;;;;;;;;1.6286508;0.97219765;-0.67738885;;;;;880.0
1077.0;942.3;;;;;;;;;;;;;;;;;11.719108;-45.07965;71.63838;;889.7
1077.0;942.3;;;;;;;;;;;;;;1.1645863;0.9479659;-0.46394238;;;;;889.7
1077.0;942.3;;;;;;;;;;;;;;;;;9.418776;-52.472763;66.42354;;889.7
1077.0;942.3;;;;;;;;;;;;;;0.9099399;0.91274756;-0.46736047;;;;;889.7
1137.0;1001.5;;;;;;;;;;;;;;;;;-5.603961;-50.012207;61.91061;;899.4
1137.0;1001.5;;;;;;;;;;;;;;0.92373425;0.67934203;-0.13202307;;;;;899.4
1137.0;1001.5;;;;;;;;;;;;;;;;;-12.4134035;-44.007694;60.529648;;899.4
1137.0;1001.5;;;;;;;;;;;;;;0.80343026;0.39533678;0.031250954;;;;;899.4
1137.0;1001.5;;;;;;;;;;;;;;;;;-9.449294;-43.557545;62.322613;;908.9
1137.0;1001.5;;;;;;;;;;;;;;0.68202764;0.25794244;-0.042481765;;;;;908.9
1137.0;1001.5;;;;;;;;;;;;;;;;;-11.2537;-40.6888;66.839355;;908.9
1137.0;1001.5;;;;;;;;;;;;;;0.64082766;0.14819789;0.0015869625;;;;;908.9
1137.0;1001.5;;;;;;;;;;;;;;;;;-9.155553;-39.620655;71.34083;;918.4
1137.0;1001.5;;;;;;;;;;;;;;0.61958677;0.070558794;8.5451826E-4;;;;;918.4
1137.0;1001.5;;;;;;;;;;;;;;;;;1.9837031;-42.126987;74.38124;;918.4
1137.0;1001.5;;;;;;;;;;;;;;0.6472365;0.051698357;-0.07000946;;;;;918.4
1137.0;1002.3;;;;;;;;;;;;;;;;;15.640736;-42.39784;77.26142;;928.1
1137.0;1002.3;;;;;;;;;;;;;;0.7275613;0.06695761;-0.055787835;;;;;928.1
1137.0;1002.3;;;;;;;;;;;;;;;;;27.462843;-42.83273;80.82827;;928.1
1137.0;1002.3;;;;;;;;;;;;;;0.7592395;0.059450056;-0.07184057;;;;;928.1
1137.0;1002.3;;;;;;;;;;;;;;;;;35.44343;-45.075836;84.9025;;937.7
1137.0;1002.3;;;;;;;;;;;;;;0.7918332;0.063966796;-0.12408826;;;;;937.7
1137.0;1002.3;;;;;;;;;;;;;;;;;40.81469;-45.82354;88.42738;;937.7
1137.0;1002.3;;;;;;;;;;;;;;0.8208258;0.04870754;-0.18689536;;;;;937.7
1137.0;1002.3;;;;;;;;;;;;;;;;;48.40236;-44.64858;89.384895;;947.4
1137.0;1002.3;;;;;;;;;;;;;;0.8001343;0.08130131;-0.24610126;;;;;947.4
1137.0;1002.3;;;;;;;;;;;;;;;;;56.119724;-43.37443;88.92712;;947.4
1137.0;1002.3;;;;;;;;;;;;;;0.8311411;0.15985595;-0.3043306;;;;;947.4
1192.0;1061.8;;;;;;;;;;;;;;;;;58.214058;-38.762325;88.12983;;957.0
1192.0;1061.8;;;;;;;;;;;;;;0.8847926;0.21991637;-0.31348613;;;;;957.0
1192.0;1061.8;;;;;;;;;;;;;;;;;57.050537;-33.44066;87.847534;;957.0
1192.0;1061.8;;;;;;;;;;;;;;0.9396649;0.27130955;-0.33954895;;;;;957.0
1192.0;1061.8;;;;;;;;;;;;;;;;;54.540394;-28.908659;87.240974;;966.7
1192.0;1061.8;;;;;;;;;;;;;;1.0127872;0.29285562;-0.380871;;;;;966.7
1192.0;1061.8;;;;;;;;;;;;;;;;;52.39265;-24.456772;85.74557;;966.7
1192.0;1061.8;;;;;;;;;;;;;;1.081637;0.3108005;-0.4011353;;;;;966.7
1192.0;1061.8;;;;;;;;;;;;;;;;;51.007874;-21.141697;84.253975;;976.4
1192.0;1061.8;;;;;;;;;;;;;;1.1612293;0.28089237;-0.4268929;;;;;976.4
1192.0;1061.8;;;;;;;;;;;;;;;;;49.97024;-18.238625;82.42668;;976.4
1192.0;1061.8;;;;;;;;;;;;;;1.2549821;0.25348675;-0.47492903;;;;;976.4
1192.0;1062.7;;;;;;;;;;;;;;;;;50.733208;-14.698478;80.095825;;985.9
1192.0;1062.7;;;;;;;;;;;;;;1.2904446;0.21936704;-0.5096591;;;;;985.9
1192.0;1062.7;;;;;;;;;;;;;;;;;53.23191;-13.775291;76.88376;;985.9
1192.0;1062.7;;;;;;;;;;;;;;1.3298135;0.2360912;-0.57039094;;;;;985.9
1192.0;1062.7;;;;;;;;;;;;;;;;;54.975277;-13.286996;74.34691;;995.6
1192.0;1062.7;;;;;;;;;;;;;;1.3550829;0.26075014;-0.5901059;;;;;995.6
1192.0;1062.7;;;;;;;;;;;;;;;;;55.528427;-11.940367;73.072754;;995.6
1192.0;1062.7;;;;;;;;;;;;;;1.348735;0.30127874;-0.6036561;;;;;995.6
1192.0;1062.7;;;;;;;;;;;;;;;;;55.085907;-9.502701;72.66076;;1005.3
1192.0;1062.7;;;;;;;;;;;;;;1.2443618;0.321543;-0.5789361;;;;;1005.3
1192.0;1062.7;;;;;;;;;;;;;;;;;55.42924;-7.122257;71.84057;;1005.3
1192.0;1062.7;;;;;;;;;;;;;;1.0992156;0.33381146;-0.5228431;;;;;1005.3
1198.0;1122.6;;;;;;;;;;;;;;;;;56.237984;-4.2115545;69.33805;;1014.9
1198.0;1122.6;;;;;;;;;;;;;;0.9625538;0.3073214;-0.4939726;;;;;1014.9
1198.0;1122.6;;;;;;;;;;;;;;;;;57.11539;-2.0256662;65.73687;;1014.9
1198.0;1122.6;;;;;;;;;;;;;;0.8366344;0.34681234;-0.43305764;;;;;1014.9
1198.0;1122.6;;;;;;;;;;;;;;;;;57.679985;-3.1357768;63.097015;;1024.4
1198.0;1122.6;;;;;;;;;;;;;;0.78487504;0.3853267;-0.41456345;;;;;1024.4
1198.0;1122.6;;;;;;;;;;;;;;;;;56.928463;-5.7031465;61.567276;;1024.4
1198.0;1122.6;;;;;;;;;;;;;;0.7890866;0.4316538;-0.42365795;;;;;1024.4
1198.0;1122.6;;;;;;;;;;;;;;;;;54.383987;-6.7369614;61.044647;;1034.1
1198.0;1122.6;;;;;;;;;;;;;;0.77803886;0.45808282;-0.44166386;;;;;1034.1
1198.0;1122.6;;;;;;;;;;;;;;;;;50.466167;-7.099368;60.975983;;1034.1
1198.0;1122.6;;;;;;;;;;;;;;0.7826167;0.47621083;-0.45692313;;;;;1034.1
1199.0;1123.4;;;;;;;;;;;;;;;;;46.449173;-7.026887;61.27735;;1043.7
1199.0;1123.4;;;;;;;;;;;;;;0.7845088;0.47077852;-0.45692313;;;;;1043.7
1199.0;1123.4;;;;;;;;;;;;;;;;;42.710655;-6.912442;61.433758;;1043.7
1199.0;1123.4;;;;;;;;;;;;;;0.7882931;0.45747244;-0.44825587;;;;;1043.7
1199.0;1123.4;;;;;;;;;;;;;;;;;38.937805;-6.2524796;61.872463;;1053.3
1199.0;1123.4;;;;;;;;;;;;;;0.7854854;0.41822565;-0.43684193;;;;;1053.3
1199.0;1123.4;;;;;;;;;;;;;;;;;34.8941;-4.871517;62.219612;;1053.3
1199.0;1123.4;;;;;;;;;;;;;;0.7916501;0.39613026;-0.44190803;;;;;1053.3
1199.0;1123.4;;;;;;;;;;;;;;;;;30.827509;-2.784814;62.490463;;1063.0
1199.0;1123.4;;;;;;;;;;;;;;0.7810297;0.3582873;-0.45368817;;;;;1063.0
1199.0;1123.4;;;;;;;;;;;;;;;;;28.042694;-0.3128147;62.73461;;1063.0
1199.0;1123.4;;;;;;;;;;;;;;0.7853633;0.32239753;-0.47328106;;;;;1063.0
1199.0;1126.8;;;;0.0;0.0;0.0;;;;;;;;;;;;;;;
1199.0;1126.8;;;;-0.03439713;0.18242265;0.042751316;;;;;;;;;;;;;;;
1199.0;1126.8;;;;-0.10303117;0.92701733;0.05202485;;;;;;;;;;;;;;;
1199.0;1126.8;;;;-0.10633089;1.0326043;0.043975834;;;;;;;;;;;;;;;
1199.0;1126.8;;;;-0.11249162;1.0274278;0.04362488;;;;;;;;;;;;;;;
1199.0;1136.8;;;;-0.11574556;1.0224;0.04387665;;;;;;;;;;;;;;;
1199.0;1136.8;;;;-0.12012865;1.017521;0.04372788;;;;;;;;;;;;;;;
1199.0;1136.8;;;;-0.12425615;1.0120012;0.0432663;;;;;;;;;;;;;;;
1199.0;1136.8;;;;-0.1270485;1.0066453;0.043483738;;;;;;;;;;;;;;;
1199.0;1136.8;;;;-0.13019945;1.0010148;0.0440712;;;;;;;;;;;;;;;
1256.0;1138.1;57400;57428;14443;;;;;;;;;;;;;;;;;;
1256.0;1146.8;;;;-0.13374712;0.9953462;0.043945316;;;;;;;;;;;;;;;
1256.0;1146.8;;;;-0.1348343;0.99043286;0.045627598;;;;;;;;;;;;;;;
1256.0;1146.8;;;;-0.1382866;0.98503506;0.045772556;;;;;;;;;;;;;;;
1256.0;1146.8;;;;-0.1410103;0.98046505;0.045989994;;;;;;;;;;;;;;;
1256.0;1146.8;;;;-0.14331056;0.9762498;0.04649735;;;;;;;;;;;;;;;
1256.0;1156.9;;;;-0.14449693;0.97223675;0.04790879;;;;;;;;;;;;;;;
1256.0;1156.9;;;;-0.14692308;0.96891797;0.048172005;;;;;;;;;;;;;;;
1256.0;1156.9;;;;-0.14923479;0.96631634;0.04812623;;;;;;;;;;;;;;;
1256.0;1156.9;;;;-0.15090944;0.96313107;0.047767647;;;;;;;;;;;;;;;
1256.0;1156.9;;;;-0.15353777;0.9607469;0.04728318;;;;;;;;;;;;;;;
1256.0;1158.2;73923;73808;14429;;;;;;;;;;;;;;;;;;
1256.0;1164.5;;;;;;;;;;;;;0;;;;;;;;
1256.0;1164.5;;;;;;;;;;;;;0;;;;;;;;
1256.0;1164.5;;;;;;;;;;;;;-1;;;;;;;;
1256.0;1164.5;;;;;;;;;;;;;-2;;;;;;;;
1256.0;1164.5;;;;;;;;;;;;;-3;;;;;;;;
1256.0;1167.0;;;;-0.15596391;0.95814526;0.045997623;;;;;;;;;;;;;;;
1256.0;1167.0;;;;-0.15767671;0.95588315;0.04428864;;;;;;;;;;;;;;;
1256.0;1167.0;;;;-0.16020967;0.95354855;0.042808536;;;;;;;;;;;;;;;
1256.0;1167.0;;;;-0.16271211;0.95100033;0.04076386;;;;;;;;;;;;;;;
1256.0;1167.0;;;;-0.16489412;0.9485017;0.03891373;;;;;;;;;;;;;;;
1258.0;1177.1;;;;-0.16687776;0.9459878;0.037128452;;;;;;;;;;;;;;;
1258.0;1177.1;;;;-0.16978075;0.94269574;0.035190586;;;;;;;;;;;;;;;
1258.0;1177.1;;;;-0.17219163;0.93973553;0.032783512;;;;;;;;;;;;;;;
1258.0;1177.1;;;;-0.17399599;0.9368783;0.030761722;;;;;;;;;;;;;;;
1258.0;1177.1;;;;-0.17643358;0.9343835;0.028697971;;;;;;;;;;;;;;;
1258.0;1178.5;90219;90251;14429;;;;;;;;;;;;;;;;;;
1258.0;1182.5;;;;;;;;;;;;;;;;;26.020844;2.55974;63.13517;;1072.7
1258.0;1182.5;;;;;;;;;;;;;;0.76961577;0.2727134;-0.46241647;;;;;1072.7
1258.0;1182.5;;;;;;;;;;;;;;;;;24.796288;4.505295;63.123726;;1072.7
1258.0;1182.5;;;;;;;;;;;;;;0.76363415;0.2700278;-0.43372905;;;;;1072.7
1258.0;1182.5;;;;;;;;;;;;;;;;;23.63277;5.287332;63.013092;;1082.4
1258.0;1182.5;;;;;;;;;;;;;;0.73213905;0.24817652;-0.4126713;;;;;1082.4
1258.0;1182.5;;;;;;;;;;;;;;;;;22.354807;5.264443;62.170017;;1082.4
1258.0;1182.5;;;;;;;;;;;;;;0.6763512;0.2278512;-0.39387187;;;;;1082.4
1258.0;1182.5;;;;;;;;;;;;;;;;;22.59514;4.074221;61.216312;;1091.8
1258.0;1182.5;;;;;;;;;;;;;;0.69093907;0.21002838;-0.41969055;;;;;1091.8
1258.0;1182.5;;;;;;;;;;;;;;;;;23.9494;3.3303325;60.354164;;1091.8
1258.0;1182.5;;;;;;;;;;;;;;0.7129124;0.20514542;-0.43830684;;;;;1091.8
1260.0;1183.1;;;;;;;;;;;;;;;;;24.594105;3.238777;59.186836;;1101.5
1260.0;1183.1;;;;;;;;;;;;;;0.7118137;0.20545061;-0.4359874;;;;;1101.5
1260.0;1183.1;;;;;;;;;;;;;;;;;25.440992;2.3003328;58.35139;;1101.5
1260.0;1183.1;;;;;;;;;;;;;;0.7307352;0.20001832;-0.45521408;;;;;1101.5
1260.0;1183.1;;;;;;;;;;;;;;;;;25.532547;2.643666;57.355724;;1111.2
1260.0;1183.1;;;;;;;;;;;;;;0.7383038;0.19812617;-0.46638387;;;;;1111.2
1260.0;1183.1;;;;;;;;;;;;;;;;;24.075289;3.4295175;56.253242;;1111.2
1260.0;1183.1;;;;;;;;;;;;;;0.7292703;0.18231757;-0.46790978;;;;;1111.2
1260.0;1183.1;;;;;;;;;;;;;;;;;22.591326;4.154332;54.437393;;1120.8
1260.0;1183.1;;;;;;;;;;;;;;0.7154149;0.18921477;-0.4570452;;;;;1120.8
1260.0;1183.1;;;;;;;;;;;;;;;;;22.011477;3.8377025;52.308727;;1120.8
1260.0;1183.1;;;;;;;;;;;;;;0.7203589;0.20502335;-0.4405652;;;;;1120.8
1260.0;1186.8;;;;-0.17909624;0.932068;0.027019504;;;;;;;;;;;;;;;
1260.0;1186.8;;;;-0.18153001;0.9305688;0.025897983;;;;;;;;;;;;;;;
1260.0;1186.8;;;;-0.18425752;0.9303094;0.02372742;;;;;;;;;;;;;;;
1260.0;1186.8;;;;-0.18645479;0.93050396;0.02202225;;;;;;;;;;;;;;;
1260.0;1186.8;;;;-0.18852618;0.93164456;0.020042421;;;;;;;;;;;;;;;
1260.0;1196.8;;;;-0.19057468;0.9338075;0.019084932;;;;;;;;;;;;;;;
1260.0;1196.8;;;;-0.19288257;0.9368936;0.017570497;;;;;;;;;;;;;;;
1260.0;1196.8;;;;-0.19527057;0.941044;0.015468599;;;;;;;;;;;;;;;
1260.0;1196.8;;;;-0.1974869;0.94614804;0.012805941;;;;;;;;;;;;;;;
1260.0;1196.8;;;;-0.19958499;0.9518243;0.008846284;;;;;;;;;;;;;;;
1260.0;1198.2;106631;106604;14427;;;;;;;;;;;;;;;;;;
1314.0;1204.6;;;;;;;;;;;;;-6;;;;;;;;
1314.0;1204.6;;;;;;;;;;;;;-6;;;;;;;;
1314.0;1204.6;;;;;;;;;;;;;-10;;;;;;;;
1314.0;1204.6;;;;;;;;;;;;;-17;;;;;;;;
1314.0;1204.6;;;;;;;;;;;;;-10;;;;;;;;
1314.0;1206.8;;;;-0.20187381;0.95769894;0.005298615;;;;;;;;;;;;;;;
1314.0;1206.8;;;;-0.20390704;0.96364224;0.0022010806;;;;;;;;;;;;;;;
1314.0;1206.8;;;;-0.20603564;0.97026074;-0.0015830996;;;;;;;;;;;;;;;
1314.0;1206.8;;;;-0.20792773;0.97657406;-0.0055694585;;;;;;;;;;;;;;;
1314.0;1206.8;;;;-0.20983127;0.9825517;-0.010284425;;;;;;;;;;;;;;;
1314.0;1216.8;;;;-0.21171191;0.9877168;-0.014820101;;;;;;;;;;;;;;;
1314.0;1216.8;;;;-0.21265033;0.99316037;-0.02062607;;;;;;;;;;;;;;;
1314.0;1216.8;;;;-0.21365741;0.9979669;-0.025779728;;;;;;;;;;;;;;;
1314.0;1216.8;;;;-0.2145882;1.0021783;-0.030593876;;;;;;;;;;;;;;;
1314.0;1216.8;;;;-0.21582034;1.0056802;-0.0350647;;;;;;;;;;;;;;;
1314.0;1218.3;123046;123033;14423;;;;;;;;;;;;;;;;;;
1314.0;1227.0;;;;-0.2172623;1.0089647;-0.039325718;;;;;;;;;;;;;;;
1314.0;1227.0;;;;-0.21814731;1.0119134;-0.043895725;;;;;;;;;;;;;;;
1314.0;1227.0;;;;-0.21895984;1.0154115;-0.048519142;;;;;;;;;;;;;;;
1314.0;1227.0;;;;-0.21921924;1.018303;-0.05244065;;;;;;;;;;;;;;;
1314.0;1227.0;;;;-0.22000125;1.0206834;-0.05649949;;;;;;;;;;;;;;;
1316.0;1237.1;;;;-0.22085956;1.0235482;-0.06018067;;;;;;;;;;;;;;;
1316.0;1237.1;;;;-0.22137454;1.0264207;-0.063804634;;;;;;;;;;;;;;;
1316.0;1237.1;;;;-0.22170642;1.0291826;-0.06715012;;;;;;;;;;;;;;;
1316.0;1237.1;;;;-0.22233203;1.0320741;-0.069976814;;;;;;;;;;;;;;;
1316.0;1237.1;;;;-0.22292712;1.0355035;-0.07270051;;;;;;;;;;;;;;;
1316.0;1238.6;139422;139396;14423;;;;;;;;;;;;;;;;;;
1316.0;1244.8;;;;;;;;;;;;;-29;;;;;;;;
1316.0;1244.8;;;;;;;;;;;;;-14;;;;;;;;
1316.0;1244.8;;;;;;;;;;;;;-14;;;;;;;;
1316.0;1244.8;;;;;;;;;;;;;-87;;;;;;;;
1316.0;1244.8;;;;;;;;;;;;;46;;;;;;;;
1316.0;1247.0;;;;-0.22358707;1.039158;-0.07535172;;;;;;;;;;;;;;;
1316.0;1247.0;;;;-0.2240105;1.0434877;-0.07819367;;;;;;;;;;;;;;;
1316.0;1247.0;;;;-0.22509006;1.0481225;-0.08076859;;;;;;;;;;;;;;;
1316.0;1247.0;;;;-0.22529987;1.0530969;-0.08296967;;;;;;;;;;;;;;;
1316.0;1247.0;;;;-0.2260094;1.0586816;-0.08464051;;;;;;;;;;;;;;;
1316.0;1257.1;;;;-0.22640994;1.0648538;-0.08650208;;;;;;;;;;;;;;;
1316.0;1257.1;;;;-0.2263985;1.0716745;-0.08769608;;;;;;;;;;;;;;;
1316.0;1257.1;;;;-0.2263222;1.0790483;-0.08988572;;;;;;;;;;;;;;;
1316.0;1257.1;;;;-0.2266846;1.0871583;-0.091716774;;;;;;;;;;;;;;;
1316.0;1257.1;;;;-0.22640613;1.0958635;-0.09368897;;;;;;;;;;;;;;;
1317.0;1258.1;;;;;;;;;;;;;;;;;21.069216;3.5859249;50.065613;;1130.5
1317.0;1258.1;;;;;;;;;;;;;;0.72652364;0.2418897;-0.41444135;;;;;1130.5
1317.0;1258.1;;;;;;;;;;;;;;;;;19.87518;3.1662953;48.25358;;1130.5
1317.0;1258.1;;;;;;;;;;;;;;0.7541734;0.24897;-0.41450238;;;;;1130.5
1317.0;1258.1;;;;;;;;;;;;;;;;;19.077885;2.8000731;46.414837;;1140.2
1317.0;1258.1;;;;;;;;;;;;;;0.74306464;0.26355785;-0.42170477;;;;;1140.2
1317.0;1258.1;;;;;;;;;;;;;;;;;18.166143;2.2621846;45.068207;;1140.2
1317.0;1258.1;;;;;;;;;;;;;;0.7482528;0.26477858;-0.42396313;;;;;1140.2
1317.0;1258.1;;;;;;;;;;;;;;;;;16.502884;3.1205175;43.62621;;1149.5
1317.0;1258.1;;;;;;;;;;;;;;0.7459334;0.29670095;-0.40321055;;;;;1149.5
1317.0;1258.1;;;;;;;;;;;;;;;;;14.481033;4.2420726;41.863766;;1149.5
1317.0;1258.1;;;;;;;;;;;;;;0.7591174;0.23853268;-0.3590808;;;;;1149.5
1317.0;1258.9;;;;;;;;;;;;;;;;;14.442884;4.692221;39.56343;;1159.2
1317.0;1258.9;;;;;;;;;;;;;;0.76253545;0.2224189;-0.33625293;;;;;1159.2
1317.0;1258.9;;;;;;;;;;;;;;;;;14.973144;5.4589987;37.686546;;1159.2
1317.0;1258.9;;;;;;;;;;;;;;0.7467269;0.25379193;-0.32966095;;;;;1159.2
1317.0;1258.9;;;;;;;;;;;;;;;;;12.8215885;6.061739;37.232582;;1168.9
1317.0;1258.9;;;;;;;;;;;;;;0.74532306;0.24420911;-0.34614092;;;;;1168.9
1317.0;1258.9;;;;;;;;;;;;;;;;;12.3638115;7.316813;36.58788;;1168.9
1317.0;1258.9;;;;;;;;;;;;;;0.7447737;0.24634542;-0.34797204;;;;;1168.9
1317.0;1258.9;;;;;;;;;;;;;;;;;12.550736;8.20185;36.835842;;1178.5
1317.0;1258.9;;;;;;;;;;;;;;0.7257302;0.25482956;-0.37025055;;;;;1178.5
1317.0;1258.9;;;;;;;;;;;;;;;;;12.279885;7.3206277;38.724174;;1178.5
1317.0;1258.9;;;;;;;;;;;;;;0.6950896;0.24817652;-0.41627246;;;;;1178.5
1374.0;1258.7;155741;155825;14432;;;;;;;;;;;;;;;;;;
1374.0;1259.7;;;;;;;;;;;;;;;;;11.520738;5.5810723;41.062653;;1188.2
1374.0;1259.7;;;;;;;;;;;;;;0.68929106;0.21448408;-0.4447157;;;;;1188.2
1374.0;1259.7;;;;;;;;;;;;;;;;;12.981811;2.4414806;42.294838;;1188.2
1374.0;1259.7;;;;;;;;;;;;;;0.69392985;0.18860438;-0.43934447;;;;;1188.2
1374.0;1259.7;;;;;;;;;;;;;;;;;15.140995;-1.3542589;42.744987;;1197.8
1374.0;1259.7;;;;;;;;;;;;;;0.73427534;0.19544053;-0.4163335;;;;;1197.8
1374.0;1259.7;;;;;;;;;;;;;;;;;15.8772545;-2.231666;43.557545;;1197.8
1374.0;1259.7;;;;;;;;;;;;;;0.76094854;0.15784173;-0.4113895;;;;;1197.8
1374.0;1259.7;;;;;;;;;;;;;;;;;15.354625;-2.2202215;44.59517;;1207.5
1374.0;1259.7;;;;;;;;;;;;;;0.76845604;0.13647878;-0.3975341;;;;;1207.5
1374.0;1259.7;;;;;;;;;;;;;;;;;14.667959;-2.45674;46.25843;;1207.5
1374.0;1259.7;;;;;;;;;;;;;;0.79354227;0.14667195;-0.38306832;;;;;1207.5
1374.0;1266.8;;;;-0.22692874;1.1057969;-0.09497072;;;;;;;;;;;;;;;
1374.0;1266.8;;;;-0.22775653;1.1158983;-0.095706955;;;;;;;;;;;;;;;
1374.0;1266.8;;;;-0.22923663;1.1257058;-0.09559633;;;;;;;;;;;;;;;
1374.0;1266.8;;;;-0.22975543;1.1361657;-0.0973015;;;;;;;;;;;;;;;
1374.0;1266.8;;;;-0.23018268;1.1470605;-0.097526565;;;;;;;;;;;;;;;
1374.0;1276.8;;;;-0.23050311;1.15757;-0.09776308;;;;;;;;;;;;;;;
1374.0;1276.8;;;;-0.23114398;1.1675683;-0.09719087;;;;;;;;;;;;;;;
1374.0;1276.8;;;;-0.2314072;1.1771051;-0.09739305;;;;;;;;;;;;;;;
1374.0;1276.8;;;;-0.23220447;1.1861802;-0.09711076;;;;;;;;;;;;;;;
1374.0;1276.8;;;;-0.23246005;1.19545;-0.09730913;;;;;;;;;;;;;;;
1376.0;1278.5;172173;172141;14430;;;;;;;;;;;;;;;;;;
1376.0;1284.8;;;;;;;;;;;;;139;;;;;;;;
1376.0;1284.8;;;;;;;;;;;;;-219;;;;;;;;
1376.0;1284.8;;;;;;;;;;;;;-372;;;;;;;;
1376.0;1284.8;;;;;;;;;;;;;510;;;;;;;;
1376.0;1284.8;;;;;;;;;;;;;2068;;;;;;;;
1376.0;1286.9;;;;-0.23196033;1.2036477;-0.09795;;;;;;;;;;;;;;;
1376.0;1286.9;;;;-0.23184589;1.2106897;-0.09807207;;;;;;;;;;;;;;;
1376.0;1286.9;;;;-0.23188785;1.2166826;-0.097217575;;;;;;;;;;;;;;;
1376.0;1286.9;;;;-0.2314606;1.2218362;-0.09751131;;;;;;;;;;;;;;;
1376.0;1286.9;;;;-0.23037723;1.2258302;-0.097324386;;;;;;;;;;;;;;;
1376.0;1297.0;;;;-0.2297745;1.2289277;-0.0969124;;;;;;;;;;;;;;;
1376.0;1297.0;;;;-0.22850803;1.2310792;-0.09711839;;;;;;;;;;;;;;;
1376.0;1297.0;;;;-0.22729114;1.2320749;-0.097015396;;;;;;;;;;;;;;;
1376.0;1297.0;;;;-0.22620013;1.2317888;-0.09624101;;;;;;;;;;;;;;;
1376.0;1297.0;;;;-0.22552112;1.2306978;-0.09490205;;;;;;;;;;;;;;;
1376.0;1298.7;188490;188613;14428;;;;;;;;;;;;;;;;;;
1377.0;1302.7;;;;;;;;;;;;;;;;;13.695181;-0.39674062;48.57784;;1217.2
1377.0;1302.7;;;;;;;;;;;;;;0.8201544;0.12768945;-0.3844722;;;;;1217.2
1377.0;1302.7;;;;;;;;;;;;;;;;;15.411847;2.0981476;49.69176;;1217.2
1377.0;1302.7;;;;;;;;;;;;;;0.7973876;0.109073155;-0.38032165;;;;;1217.2
1377.0;1302.7;;;;;;;;;;;;;;;;;19.039736;2.8115177;49.64217;;1226.7
1377.0;1302.7;;;;;;;;;;;;;;0.7927488;0.086123236;-0.3755608;;;;;1226.7
1377.0;1302.7;;;;;;;;;;;;;;;;;22.457808;4.020814;49.413284;;1226.7
1377.0;1302.7;;;;;;;;;;;;;;0.79927975;0.10644856;-0.38734093;;;;;1226.7
1377.0;1302.7;;;;;;;;;;;;;;;;;24.6704;4.894406;49.63454;;1236.4
1377.0;1302.7;;;;;;;;;;;;;;0.80385756;0.125309;-0.4156621;;;;;1236.4
1377.0;1302.7;;;;;;;;;;;;;;;;;27.504807;4.116184;49.867245;;1236.4
1377.0;1302.7;;;;;;;;;;;;;;0.8233284;0.16400647;-0.44843897;;;;;1236.4
1377.0;1307.0;;;;-0.2245827;1.2289354;-0.09415437;;;;;;;;;;;;;;;
1377.0;1307.0;;;;-0.22286227;1.2271272;-0.092708595;;;;;;;;;;;;;;;
1377.0;1307.0;;;;-0.22077563;1.2246515;-0.091255195;;;;;;;;;;;;;;;
1377.0;1307.0;;;;-0.21978763;1.2211915;-0.09034348;;;;;;;;;;;;;;;
1377.0;1307.0;;;;-0.21931079;1.2175294;-0.08855439;;;;;;;;;;;;;;;
1377.0;1317.0;;;;-0.21917728;1.2143289;-0.08604432;;;;;;;;;;;;;;;
1377.0;1317.0;;;;-0.21854785;1.2116967;-0.08478547;;;;;;;;;;;;;;;
1377.0;1317.0;;;;-0.21815494;1.2088014;-0.082298286;;;;;;;;;;;;;;;
1377.0;1317.0;;;;-0.2190285;1.205906;-0.07931519;;;;;;;;;;;;;;;
1377.0;1317.0;;;;-0.21983722;1.2037774;-0.077133186;;;;;;;;;;;;;;;
1434.0;1317.7;;;;;;;;;;;;;;;;;30.90762;2.582629;51.595356;;1246.1
1434.0;1317.7;;;;;;;;;;;;;;0.8666036;0.20203254;-0.4826197;;;;;1246.1
1434.0;1317.7;;;;;;;;;;;;;;;;;32.654808;2.76574;53.632465;;1246.1
1434.0;1317.7;;;;;;;;;;;;;;0.8850978;0.2511063;-0.47840816;;;;;1246.1
1434.0;1317.7;;;;;;;;;;;;;;;;;33.055363;2.5139623;55.795464;;1255.6
1434.0;1317.7;;;;;;;;;;;;;;0.88845485;0.29273355;-0.47810298;;;;;1255.6
1434.0;1317.7;;;;;;;;;;;;;;;;;32.498398;1.8120365;57.313763;;1255.6
1434.0;1317.7;;;;;;;;;;;;;;0.890347;0.354503;-0.48005617;;;;;1255.6
1434.0;1317.7;;;;;;;;;;;;;;;;;31.376842;1.5869625;59.858242;;1265.2
1434.0;1317.7;;;;;;;;;;;;;;0.8789331;0.41291544;-0.47553942;;;;;1265.2
1434.0;1317.7;;;;;;;;;;;;;;;;;28.412733;0.34333324;62.08991;;1265.2
1434.0;1317.7;;;;;;;;;;;;;;0.87112033;0.4621723;-0.47212133;;;;;1265.2
1434.0;1318.6;204909;204896;14428;;;;;;;;;;;;;;;;;;
1434.0;1324.9;;;;;;;;;;;;;2996;;;;;;;;
1434.0;1324.9;;;;;;;;;;;;;2860;;;;;;;;
1434.0;1324.9;;;;;;;;;;;;;2350;;;;;;;;
1434.0;1324.9;;;;;;;;;;;;;2045;;;;;;;;
1434.0;1324.9;;;;;;;;;;;;;2003;;;;;;;;
1434.0;1326.8;;;;-0.22058871;1.2019807;-0.07534028;;;;;;;;;;;;;;;
1434.0;1326.8;;;;-0.22153476;1.1999971;-0.07247544;;;;;;;;;;;;;;;
1434.0;1326.8;;;;-0.22319415;1.1986428;-0.069141395;;;;;;;;;;;;;;;
1434.0;1326.8;;;;-0.22500995;1.1976167;-0.06589509;;;;;;;;;;;;;;;
1434.0;1326.8;;;;-0.22698215;1.1964608;-0.06261445;;;;;;;;;;;;;;;
1438.0;1336.8;;;;-0.22902682;1.196045;-0.05793763;;;;;;;;;;;;;;;
1438.0;1336.8;;;;-0.23040393;1.1953431;-0.05464173;;;;;;;;;;;;;;;
1438.0;1336.8;;;;-0.23273471;1.194893;-0.050128944;;;;;;;;;;;;;;;
1438.0;1336.8;;;;-0.23453525;1.194996;-0.046600346;;;;;;;;;;;;;;;
1438.0;1336.8;;;;-0.23593906;1.1954957;-0.043003086;;;;;;;;;;;;;;;
1438.0;1338.6;221266;221273;14434;;;;;;;;;;;;;;;;;;
1438.0;1346.9;;;;-0.23727039;1.195244;-0.038204197;;;;;;;;;;;;;;;
1438.0;1346.9;;;;-0.23945239;1.1952935;-0.03289414;;;;;;;;;;;;;;;
1438.0;1346.9;;;;-0.24047473;1.1958772;-0.028358463;;;;;;;;;;;;;;;
1438.0;1346.9;;;;-0.24081805;1.1968538;-0.0248642;;;;;;;;;;;;;;;
1438.0;1346.9;;;;-0.24026111;1.1979257;-0.020839693;;;;;;;;;;;;;;;
1438.0;1357.0;;;;-0.24011233;1.1993142;-0.016380312;;;;;;;;;;;;;;;
1438.0;1357.0;;;;-0.23980334;1.2001497;-0.010601045;;;;;;;;;;;;;;;
1438.0;1357.0;;;;-0.23909763;1.2015725;-0.005725861;;;;;;;;;;;;;;;
1438.0;1357.0;;;;-0.23775867;1.2027742;-0.0018882754;;;;;;;;;;;;;;;
1438.0;1357.0;;;;-0.23687366;1.2037774;0.0024147036;;;;;;;;;;;;;;;
1438.0;1358.9;237699;237735;14426;;;;;;;;;;;;;;;;;;
1439.0;1363.2;;;;;;;;;;;;;;;;;24.456772;-0.40818506;63.360245;;1274.9
1439.0;1363.2;;;;;;;;;;;;;;0.8492691;0.50233465;-0.4481338;;;;;1274.9
1439.0;1363.2;;;;;;;;;;;;;;;;;21.217995;-1.4191107;65.160835;;1274.9
1439.0;1363.2;;;;;;;;;;;;;;0.82741785;0.5236366;-0.42396313;;;;;1274.9
1439.0;1363.2;;;;;;;;;;;;;;;;;18.03644;-2.5254066;66.14124;;1284.6
1439.0;1363.2;;;;;;;;;;;;;;0.82448804;0.53114414;-0.39857173;;;;;1284.6
1439.0;1363.2;;;;;;;;;;;;;;;;;14.7557;-3.4295175;66.37776;;1284.6
1439.0;1363.2;;;;;;;;;;;;;;0.81856745;0.53474534;-0.37781915;;;;;1284.6
1439.0;1363.2;;;;;;;;;;;;;;;;;12.2646265;-4.2191844;67.17124;;1294.3
1439.0;1363.2;;;;;;;;;;;;;;0.8143559;0.5168615;-0.36317027;;;;;1294.3
1439.0;1363.2;;;;;;;;;;;;;;;;;9.899441;-4.440443;67.281876;;1294.3
1439.0;1363.2;;;;;;;;;;;;;;0.80648214;0.49861142;-0.35541856;;;;;1294.3
1439.0;1365.0;;;;;;;;;;;;;1777;;;;;;;;
1439.0;1365.0;;;;;;;;;;;;;1578;;;;;;;;
1439.0;1365.0;;;;;;;;;;;;;1708;;;;;;;;
1439.0;1365.0;;;;;;;;;;;;;1737;;;;;;;;
1439.0;1365.0;;;;;;;;;;;;;1681;;;;;;;;
1439.0;1367.0;;;;-0.23542026;1.2043916;0.0064964304;;;;;;;;;;;;;;;
1439.0;1367.0;;;;-0.23280719;1.2053682;0.008872987;;;;;;;;;;;;;;;
1439.0;1367.0;;;;-0.2303429;1.2050058;0.011856081;;;;;;;;;;;;;;;
1439.0;1367.0;;;;-0.2286568;1.2045633;0.01608658;;;;;;;;;;;;;;;
1439.0;1367.0;;;;-0.22685245;1.2046853;0.019645693;;;;;;;;;;;;;;;
1494.0;1377.1;;;;-0.22542956;1.2043573;0.022739412;;;;;;;;;;;;;;;
1494.0;1377.1;;;;-0.22356036;1.2045518;0.025398258;;;;;;;;;;;;;;;
1494.0;1377.1;;;;-0.22137836;1.2049066;0.028484348;;;;;;;;;;;;;;;
1494.0;1377.1;;;;-0.22010425;1.2058297;0.030479435;;;;;;;;;;;;;;;
1494.0;1377.1;;;;-0.21823123;1.2064782;0.032249454;;;;;;;;;;;;;;;
1494.0;1378.9;254055;254126;14428;;;;;;;;;;;;;;;;;;
1494.0;1387.0;;;;-0.2164841;1.2076684;0.03446961;;;;;;;;;;;;;;;
1494.0;1387.0;;;;-0.21497348;1.2093927;0.03673554;;;;;;;;;;;;;;;
1494.0;1387.0;;;;-0.2132416;1.2115175;0.03852463;;;;;;;;;;;;;;;
1494.0;1387.0;;;;-0.21162418;1.2150041;0.03987122;;;;;;;;;;;;;;;
1494.0;1387.0;;;;-0.20895389;1.218628;0.041759495;;;;;;;;;;;;;;;
1494.0;1396.8;;;;-0.2062836;1.2229882;0.04253388;;;;;;;;;;;;;;;
1494.0;1396.8;;;;-0.20328906;1.226986;0.043220524;;;;;;;;;;;;;;;
1494.0;1396.8;;;;-0.1999779;1.2311097;0.04320145;;;;;;;;;;;;;;;
1494.0;1396.8;;;;-0.19657138;1.2357522;0.04356766;;;;;;;;;;;;;;;
1494.0;1396.8;;;;-0.19319156;1.2402612;0.04318619;;;;;;;;;;;;;;;
1494.0;1398.8;262143;262143;14420;;;;;;;;;;;;;;;;;;
1494.0;1405.0;;;;;;;;;;;;;1745;;;;;;;;
1494.0;1405.0;;;;;;;;;;;;;1931;;;;;;;;
1494.0;1405.0;;;;;;;;;;;;;2004;;;;;;;;
1494.0;1405.0;;;;;;;;;;;;;1756;;;;;;;;
1494.0;1405.0;;;;;;;;;;;;;1534;;;;;;;;
1496.0;1406.9;;;;-0.18952182;1.2433816;0.04286957;;;;;;;;;;;;;;;
1496.0;1406.9;;;;-0.1864052;1.2455178;0.042823795;;;;;;;;;;;;;;;
1496.0;1406.9;;;;-0.18252183;1.2467691;0.042419437;;;;;;;;;;;;;;;
1496.0;1406.9;;;;-0.17852785;1.2463952;0.042694096;;;;;;;;;;;;;;;
1496.0;1406.9;;;;-0.17465211;1.2439462;0.0428772;;;;;;;;;;;;;;;
1496.0;1417.0;;;;-0.17112733;1.2392198;0.04263306;;;;;;;;;;;;;;;
1496.0;1417.0;;;;-0.16741945;1.2325441;0.04226685;;;;;;;;;;;;;;;
1496.0;1417.0;;;;-0.16390993;1.2233087;0.042148594;;;;;;;;;;;;;;;
1496.0;1417.0;;;;-0.16041566;1.2120286;0.042083744;;;;;;;;;;;;;;;
1496.0;1417.0;;;;-0.15719225;1.1992913;0.042140964;;;;;;;;;;;;;;;
1496.0;1419.1;262143;262143;14416;;;;;;;;;;;;;;;;;;
1496.0;1423.1;;;;;;;;;;;;;;;;;7.4121833;-4.547258;67.018654;;1303.9
1496.0;1423.1;;;;;;;;;;;;;;0.8083743;0.48866236;-0.3437605;;;;;1303.9
1496.0;1423.1;;;;;;;;;;;;;;;;;4.4442577;-5.050813;66.64098;;1303.9
1496.0;1423.1;;;;;;;;;;;;;;0.83895385;0.48371837;-0.34705648;;;;;1303.9
1496.0;1423.1;;;;;;;;;;;;;;;;;1.5793328;-4.3908505;66.40065;;1313.6
1496.0;1423.1;;;;;;;;;;;;;;0.87710196;0.47645497;-0.34473708;;;;;1313.6
1496.0;1423.1;;;;;;;;;;;;;;;;;-0.5378887;-2.990814;66.00772;;1313.6
1496.0;1423.1;;;;;;;;;;;;;;0.92641985;0.47444075;-0.34650716;;;;;1313.6
1496.0;1423.1;;;;;;;;;;;;;;;;;-2.067629;-1.823481;65.33632;;1323.2
1496.0;1423.1;;;;;;;;;;;;;;0.97091585;0.47511217;-0.3460799;;;;;1323.2
1496.0;1423.1;;;;;;;;;;;;;;;;;-3.379925;-0.9956664;64.40932;;1323.2
1496.0;1423.1;;;;;;;;;;;;;;1.0315866;0.486404;-0.3501694;;;;;1323.2
1498.0;1423.8;;;;;;;;;;;;;;;;;-4.440443;0.27085176;63.352608;;1332.7
1498.0;1423.8;;;;;;;;;;;;;;1.09476;0.49073765;-0.35676137;;;;;1332.7
1498.0;1423.8;;;;;;;;;;;;;;;;;-4.5968504;2.090518;61.811424;;1332.7
1498.0;1423.8;;;;;;;;;;;;;;1.1537827;0.4990997;-0.36787012;;;;;1332.7
1498.0;1423.8;;;;;;;;;;;;;;;;;-3.7232583;4.257332;59.667503;;1342.3
1498.0;1423.8;;;;;;;;;;;;;;1.2059084;0.49482712;-0.40046388;;;;;1342.3
1498.0;1423.8;;;;;;;;;;;;;;;;;-1.392407;6.9277015;56.287575;;1342.3
1498.0;1423.8;;;;;;;;;;;;;;1.2566302;0.4867702;-0.45222327;;;;;1342.3
1498.0;1423.8;;;;;;;;;;;;;;;;;3.0251474;10.578479;52.014984;;1351.8
1498.0;1423.8;;;;;;;;;;;;;;1.3021637;0.5019074;-0.5074618;;;;;1351.8
1498.0;1423.8;;;;;;;;;;;;;;;;;8.541368;15.991699;46.81921;;1351.8
1498.0;1423.8;;;;;;;;;;;;;;1.3314005;0.51661736;-0.5685598;;;;;1351.8
1498.0;1427.0;;;;-0.15381624;1.1848451;0.042133335;;;;;;;;;;;;;;;
1498.0;1427.0;;;;-0.15116502;1.1701738;0.0419426;;;;;;;;;;;;;;;
1498.0;1427.0;;;;-0.14884187;1.1550256;0.0419426;;;;;;;;;;;;;;;
1498.0;1427.0;;;;-0.1467743;1.1400567;0.041824345;;;;;;;;;;;;;;;
1498.0;1427.0;;;;-0.14506914;1.1257707;0.04150391;;;;;;;;;;;;;;;
1498.0;1437.1;;;;-0.14385606;1.1130677;0.041271213;;;;;;;;;;;;;;;
1498.0;1437.1;;;;-0.14339449;1.1013376;0.040882114;;;;;;;;;;;;;;;
1498.0;1437.1;;;;-0.1427765;1.0905915;0.040859226;;;;;;;;;;;;;;;
1498.0;1437.1;;;;-0.14278413;1.081154;0.041328434;;;;;;;;;;;;;;;
1498.0;1437.1;;;;-0.14304735;1.0726243;0.04151917;;;;;;;;;;;;;;;
1555.0;1438.0;;;;;;;;;;;;;;;;;14.74044;21.607105;40.906246;;1361.5
1555.0;1438.0;;;;;;;;;;;;;;1.3796197;0.5663625;-0.60847807;;;;;1361.5
1555.0;1438.0;;;;;;;;;;;;;;;;;18.848995;26.173437;34.417248;;1361.5
1555.0;1438.0;;;;;;;;;;;;;;1.4062319;0.60463274;-0.61793876;;;;;1361.5
1555.0;1438.0;;;;;;;;;;;;;;;;;19.768364;29.618214;27.92062;;1371.2
1555.0;1438.0;;;;;;;;;;;;;;1.4592121;0.7045503;-0.62605673;;;;;1371.2
1555.0;1438.0;;;;;;;;;;;;;;;;;15.705587;31.632435;21.397291;;1371.2
1555.0;1438.0;;;;;;;;;;;;;;1.5195166;0.8238777;-0.64174324;;;;;1371.2
1555.0;1438.0;;;;;;;;;;;;;;;;;6.6835537;34.10443;14.481033;;1380.8
1555.0;1438.0;;;;;;;;;;;;;;1.5438093;0.91848505;-0.6761681;;;;;1380.8
1555.0;1438.0;;;;;;;;;;;;;;;;;-6.2524796;38.975952;6.0197763;;1380.8
1555.0;1438.0;;;;;;;;;;;;;;1.5116428;0.96249276;-0.6720786;;;;;1380.8
1555.0;1439.0;262143;262143;14419;;;;;;;;;;;;;;;;;;
1555.0;1445.2;;;;;;;;;;;;;1591;;;;;;;;
1555.0;1445.2;;;;;;;;;;;;;1949;;;;;;;;
1555.0;1445.2;;;;;;;;;;;;;2312;;;;;;;;
1555.0;1445.2;;;;;;;;;;;;;2309;;;;;;;;
1555.0;1445.2;;;;;;;;;;;;;2164;;;;;;;;
1555.0;1446.9;;;;-0.14421083;1.0653421;0.04170609;;;;;;;;;;;;;;;
1555.0;1446.9;;;;-0.14544679;1.0583383;0.04199219;;;;;;;;;;;;;;;
1555.0;1446.9;;;;-0.14683153;1.0522119;0.043178562;;;;;;;;;;;;;;;
1555.0;1446.9;;;;-0.14857866;1.0462991;0.044219974;;;;;;;;;;;;;;;
1555.0;1446.9;;;;-0.1506653;1.0399362;0.045322422;;;;;;;;;;;;;;;
1556.0;1456.8;;;;-0.15322115;1.0339814;0.046817783;;;;;;;;;;;;;;;
1556.0;1456.8;;;;-0.15568544;1.0288087;0.04916001;;;;;;;;;;;;;;;
1556.0;1456.8;;;;-0.1587906;1.0229646;0.052280433;;;;;;;;;;;;;;;
1556.0;1456.8;;;;-0.16111757;1.0171663;0.054309852;;;;;;;;;;;;;;;
1556.0;1456.8;;;;-0.16354372;1.0113794;0.05757142;;;;;;;;;;;;;;;
1556.0;1458.9;262143;262143;14414;;;;;;;;;;;;;;;;;;
1556.0;1466.9;;;;-0.16607286;1.0055085;0.06157685;;;;;;;;;;;;;;;
1556.0;1466.9;;;;-0.16819765;0.9993478;0.0654564;;;;;;;;;;;;;;;
1556.0;1466.9;;;;-0.17063524;0.9937173;0.07030869;;;;;;;;;;;;;;;
1556.0;1466.9;;;;-0.17357637;0.9882356;0.075630195;;;;;;;;;;;;;;;
1556.0;1466.9;;;;-0.1759186;0.9829713;0.08098603;;;;;;;;;;;;;;;
1556.0;1477.0;;;;-0.17754747;0.9780427;0.08579255;;;;;;;;;;;;;;;
1556.0;1477.0;;;;-0.17900087;0.9728433;0.08959962;;;;;;;;;;;;;;;
1556.0;1477.0;;;;-0.18032838;0.96751416;0.094253555;;;;;;;;;;;;;;;
1556.0;1477.0;;;;-0.18119814;0.9626237;0.098217025;;;;;;;;;;;;;;;
1556.0;1477.0;;;;-0.18104173;0.957718;0.1028824;;;;;;;;;;;;;;;
1556.0;1479.2;262143;262143;14416;;;;;;;;;;;;;;;;;;
1556.0;1485.4;;;;;;;;;;;;;2037;;;;;;;;
1556.0;1485.4;;;;;;;;;;;;;1861;;;;;;;;
1556.0;1485.4;;;;;;;;;;;;;1671;;;;;;;;
1556.0;1485.4;;;;;;;;;;;;;1600;;;;;;;;
1556.0;1485.4;;;;;;;;;;;;;1731;;;;;;;;
1557.0;1487.1;;;;-0.1812134;0.95346844;0.10675432;;;;;;;;;;;;;;;
1557.0;1487.1;;;;-0.18096925;0.94947445;0.110569015;;;;;;;;;;;;;;;
1557.0;1487.1;;;;-0.18135454;0.9458543;0.11413194;;;;;;;;;;;;;;;
1557.0;1487.1;;;;-0.18084718;0.94238675;0.11722566;;;;;;;;;;;;;;;
1557.0;1487.1;;;;-0.18086244;0.9391366;0.12049486;;;;;;;;;;;;;;;
1557.0;1497.1;;;;-0.17932893;0.9363328;0.12386705;;;;;;;;;;;;;;;
1557.0;1497.1;;;;-0.17839815;0.9327699;0.12658693;;;;;;;;;;;;;;;
1557.0;1497.1;;;;-0.17760088;0.93013394;0.1292534;;;;;;;;;;;;;;;
1557.0;1497.1;;;;-0.17690279;0.92684186;0.13175966;;;;;;;;;;;;;;;
1557.0;1497.1;;;;-0.17558672;0.9237939;0.13520052;;;;;;;;;;;;;;;
1557.0;1497.6;;;;;;;;;;;;;;;;;-22.148808;44.694355;-4.341258;;1390.5
1557.0;1497.6;;;;;;;;;;;;;;1.4051943;0.96926785;-0.60029906;;;;;1390.5
1557.0;1497.6;;;;;;;;;;;;;;;;;-36.6451;48.421432;-14.9616995;;1390.5
1557.0;1497.6;;;;;;;;;;;;;;1.3224891;0.94320506;-0.5114902;;;;;1390.5
1557.0;1497.6;;;;;;;;;;;;;;;;;-47.90643;51.09943;-25.879696;;1400.1
1557.0;1497.6;;;;;;;;;;;;;;1.2390515;0.87868893;-0.38740197;;;;;1400.1
1557.0;1497.6;;;;;;;;;;;;;;;;;-55.345314;53.037354;-37.774284;;1400.1
1557.0;1497.6;;;;;;;;;;;;;;1.1743523;0.7611927;-0.303354;;;;;1400.1
1557.0;1497.6;;;;;;;;;;;;;;;;;-59.37376;55.612354;-50.69887;;1409.7
1557.0;1497.6;;;;;;;;;;;;;;1.0990936;0.6769616;-0.23102511;;;;;1409.7
1557.0;1497.6;;;;;;;;;;;;;;;;;-62.715538;58.847317;-63.833275;;1409.7
1557.0;1497.6;;;;;;;;;;;;;;1.0002747;0.61592454;-0.20020142;;;;;1409.7
1557.0;1499.1;262143;262143;14401;;;;;;;;;;;;;;;;;;
1614.0;1506.8;;;;-0.17395402;0.9209634;0.13763429;;;;;;;;;;;;;;;
1614.0;1506.8;;;;-0.17300798;0.91778576;0.14007188;;;;;;;;;;;;;;;
1614.0;1506.8;;;;-0.17299654;0.91506207;0.14174654;;;;;;;;;;;;;;;
1614.0;1506.8;;;;-0.17189409;0.9125253;0.14457323;;;;;;;;;;;;;;;
1614.0;1506.8;;;;-0.17255022;0.90967953;0.14628603;;;;;;;;;;;;;;;
1614.0;1516.8;;;;-0.17105867;0.90763867;0.14825441;;;;;;;;;;;;;;;
1614.0;1516.8;;;;-0.1704178;0.90574276;0.15031435;;;;;;;;;;;;;;;
1614.0;1516.8;;;;-0.16984178;0.9040643;0.15175249;;;;;;;;;;;;;;;
1614.0;1516.8;;;;-0.16891481;0.9026643;0.15306474;;;;;;;;;;;;;;;
1614.0;1516.8;;;;-0.16837312;0.9007455;0.15404893;;;;;;;;;;;;;;;
1614.0;1519.1;262143;262143;14412;;;;;;;;;;;;;;;;;;
1614.0;1525.3;;;;;;;;;;;;;1734;;;;;;;;
1614.0;1525.3;;;;;;;;;;;;;1458;;;;;;;;
1614.0;1525.3;;;;;;;;;;;;;1319;;;;;;;;
1614.0;1525.3;;;;;;;;;;;;;1431;;;;;;;;
1614.0;1525.3;;;;;;;;;;;;;1285;;;;;;;;
1614.0;1526.9;;;;-0.16744615;0.8998109;0.15520097;;;;;;;;;;;;;;;
1614.0;1526.9;;;;-0.1670189;0.8989259;0.15582658;;;;;;;;;;;;;;;
1614.0;1526.9;;;;-0.16765215;0.8974496;0.15584184;;;;;;;;;;;;;;;
1614.0;1526.9;;;;-0.16649248;0.89603436;0.15593721;;;;;;;;;;;;;;;
1614.0;1526.9;;;;-0.1650963;0.8952409;0.15706636;;;;;;;;;;;;;;;
1617.0;1537.0;;;;-0.164032;0.8935815;0.15713884;;;;;;;;;;;;;;;
1617.0;1537.0;;;;-0.16267015;0.89203656;0.15718843;;;;;;;;;;;;;;;
1617.0;1537.0;;;;-0.16103365;0.890072;0.15717699;;;;;;;;;;;;;;;
1617.0;1537.0;;;;-0.15970995;0.8885385;0.15803911;;;;;;;;;;;;;;;
1617.0;1537.0;;;;-0.15810014;0.8867456;0.15861131;;;;;;;;;;;;;;;
1617.0;1539.3;262143;262143;14415;;;;;;;;;;;;;;;;;;
1617.0;1543.1;;;;;;;;;;;;;;;;;-64.67635;59.369946;-76.8418;;1419.4
1617.0;1543.1;;;;;;;;;;;;;;0.93832207;0.5874203;-0.25287637;;;;;1419.4
1617.0;1543.1;;;;;;;;;;;;;;;;;-65.40498;56.596577;-89.63667;;1419.4
1617.0;1543.1;;;;;;;;;;;;;;0.8811304;0.5757012;-0.3406476;;;;;1419.4
1617.0;1543.1;;;;;;;;;;;;;;;;;-65.19898;49.40947;-101.63426;;1429.0
1617.0;1543.1;;;;;;;;;;;;;;0.86751914;0.5989563;-0.4574114;;;;;1429.0
1617.0;1543.1;;;;;;;;;;;;;;;;;-63.791313;38.87295;-112.35389;;1429.0
1617.0;1543.1;;;;;;;;;;;;;;0.8575091;0.6115909;-0.5691702;;;;;1429.0
1617.0;1543.1;;;;;;;;;;;;;;;;;-61.040833;23.586992;-121.52089;;1438.7
1617.0;1543.1;;;;;;;;;;;;;;0.8713645;0.6548051;-0.6817835;;;;;1438.7
1617.0;1543.1;;;;;;;;;;;;;;;;;-59.652245;5.760369;-124.91608;;1438.7
1617.0;1543.1;;;;;;;;;;;;;;0.89651173;0.6733604;-0.79635;;;;;1438.7
1619.0;1543.9;;;;;;;;;;;;;;;;;-57.496872;-11.059145;-124.988556;;1448.3
1619.0;1543.9;;;;;;;;;;;;;;0.95504624;0.70198673;-0.8745384;;;;;1448.3
1619.0;1543.9;;;;;;;;;;;;;;;;;-57.481613;-23.644215;-124.988556;;1448.3
1619.0;1543.9;;;;;;;;;;;;;;1.0656453;0.7259133;-0.89852595;;;;;1448.3
1619.0;1543.9;;;;;;;;;;;;;;;;;-59.90402;-30.396435;-124.988556;;1457.8
1619.0;1543.9;;;;;;;;;;;;;;1.2104251;0.725547;-0.8728294;;;;;1457.8
1619.0;1543.9;;;;;;;;;;;;;;;;;-66.545616;-29.545732;-124.988556;;1457.8
1619.0;1543.9;;;;;;;;;;;;;;1.3436689;0.7442854;-0.79549545;;;;;1457.8
1619.0;1543.9;;;;;;;;;;;;;;;;;-78.45927;-21.81692;-124.988556;;1467.5
1619.0;1543.9;;;;;;;;;;;;;;1.4700766;0.73867;-0.7315287;;;;;1467.5
1619.0;1543.9;;;;;;;;;;;;;;;;;-90.1593;-9.3577385;-124.988556;;1467.5
1619.0;1543.9;;;;;;;;;;;;;;1.5600451;0.7455672;-0.71468246;;;;;1467.5
1619.0;1546.9;;;;-0.15607835;0.8838502;0.15869524;;;;;;;;;;;;;;;
1619.0;1546.9;;;;-0.15410997;0.8815652;0.15897752;;;;;;;;;;;;;;;
1619.0;1546.9;;;;-0.15209962;0.8792039;0.15942003;;;;;;;;;;;;;;;
1619.0;1546.9;;;;-0.14954759;0.87651074;0.15964128;;;;;;;;;;;;;;;
1619.0;1546.9;;;;-0.14778902;0.8731233;0.16002275;;;;;;;;;;;;;;;
1620.0;1550.5;;;;;;;;;;;;;;;;;-100.38682;2.399518;-124.92752;;1477.1
1620.0;1550.5;;;;;;;;;;;;;;1.6129643;0.7545396;-0.8099002;;;;;1477.1
1620.0;1550.5;;;;;;;;;;;;;;;;;-108.41319;11.833552;-123.088776;;1477.1
1620.0;1550.5;;;;;;;;;;;;;;1.6714988;0.7563097;-0.9553514;;;;;1477.1
1620.0;1550.5;;;;;;;;;;;;;;;;;-114.21171;19.932402;-119.747;;1486.7
1620.0;1550.5;;;;;;;;;;;;;;1.5719473;0.46705526;-0.97976625;;;;;1486.7
1620.0;1550.5;;;;;;;;;;;;;;;;;-121.57048;28.496658;-123.18415;;1486.7
1620.0;1550.5;;;;;;;;;;;;;;1.3876766;0.35865352;-0.92818993;;;;;1486.7
1620.0;1550.5;;;;;;;;;;;;;;;;;-124.423965;23.541216;-123.390144;;1496.4
1620.0;1550.5;;;;;;;;;;;;;;1.4379101;0.2600177;-0.9086581;;;;;1496.4
1620.0;1550.5;;;;;;;;;;;;;;;;;-124.94278;23.75866;-121.65059;;1496.4
1620.0;1550.5;;;;;;;;;;;;;;1.3763847;0.16534929;-0.880459;;;;;1496.4
1620.0;1556.8;;;;-0.14570238;0.8701669;0.16121294;;;;;;;;;;;;;;;
1620.0;1556.8;;;;-0.14377595;0.8663446;0.16193773;;;;;;;;;;;;;;;
1620.0;1556.8;;;;-0.14226152;0.8625871;0.16341402;;;;;;;;;;;;;;;
1620.0;1556.8;;;;-0.14106752;0.8590013;0.16485597;;;;;;;;;;;;;;;
1620.0;1556.8;;;;-0.14006425;0.8543016;0.16679384;;;;;;;;;;;;;;;
1620.0;1559.1;262143;262143;14404;;;;;;;;;;;;;;;;;;
1620.0;1565.3;;;;;;;;;;;;;693;;;;;;;;
1620.0;1565.3;;;;;;;;;;;;;155;;;;;;;;
1620.0;1565.3;;;;;;;;;;;;;-93;;;;;;;;
1620.0;1565.3;;;;;;;;;;;;;-100;;;;;;;;
1620.0;1565.3;;;;;;;;;;;;;664;;;;;;;;
1679.0;1566.8;;;;-0.13901903;0.8496362;0.16827394;;;;;;;;;;;;;;;
1679.0;1566.8;;;;-0.13882448;0.8448678;0.17005922;;;;;;;;;;;;;;;
1679.0;1566.8;;;;-0.13933946;0.8396379;0.17140199;;;;;;;;;;;;;;;
1679.0;1566.8;;;;-0.14015199;0.83399594;0.17232133;;;;;;;;;;;;;;;
1679.0;1566.8;;;;-0.14115907;0.8279878;0.17276002;;;;;;;;;;;;;;;
1679.0;1576.8;;;;-0.14176561;0.8216783;0.173378;;;;;;;;;;;;;;;
1679.0;1576.8;;;;-0.14270402;0.81485;0.17459108;;;;;;;;;;;;;;;
1679.0;1576.8;;;;-0.14382555;0.80791485;0.17513658;;;;;;;;;;;;;;;
1679.0;1576.8;;;;-0.14427568;0.8010484;0.17518999;;;;;;;;;;;;;;;
1679.0;1576.8;;;;-0.14527895;0.7938577;0.1752968;;;;;;;;;;;;;;;
1679.0;1579.2;262143;262143;14400;;;;;;;;;;;;;;;;;;
1679.0;1586.9;;;;-0.1464882;0.7863084;0.17567445;;;;;;;;;;;;;;;
1679.0;1586.9;;;;-0.14735033;0.77853787;0.17619325;;;;;;;;;;;;;;;
1679.0;1586.9;;;;-0.1478119;0.7704164;0.17599107;;;;;;;;;;;;;;;
1679.0;1586.9;;;;-0.1490822;0.7625314;0.17658998;;;;;;;;;;;;;;;
1679.0;1586.9;;;;-0.14997102;0.7548181;0.17752077;;;;;;;;;;;;;;;
1679.0;1597.0;;;;-0.15107347;0.7471505;0.17823412;;;;;;;;;;;;;;;
1679.0;1597.0;;;;-0.15233614;0.7391587;0.17941286;;;;;;;;;;;;;;;
1679.0;1597.0;;;;-0.15314867;0.73135763;0.17998888;;;;;;;;;;;;;;;
1679.0;1597.0;;;;-0.1538849;0.7238808;0.18006898;;;;;;;;;;;;;;;
1679.0;1597.0;;;;-0.15446855;0.7157555;0.18019487;;;;;;;;;;;;;;;
1683.0;1599.5;262143;262143;14415;;;;;;;;;;;;;;;;;;
1683.0;1603.3;;;;;;;;;;;;;;;;;-124.3057;27.058474;-116.99271;;1506.0
1683.0;1603.3;;;;;;;;;;;;;;1.3389691;0.042664878;-0.81496626;;;;;1506.0
1683.0;1603.3;;;;;;;;;;;;;;;;;-122.03589;24.937437;-113.80352;;1506.0
1683.0;1603.3;;;;;;;;;;;;;;1.5469832;-0.13696708;-0.8810083;;;;;1506.0
1683.0;1603.3;;;;;;;;;;;;;;;;;-123.65718;30.568102;-118.99167;;1515.6
1683.0;1603.3;;;;;;;;;;;;;;1.4598224;-0.15369122;-0.84047973;;;;;1515.6
1683.0;1603.3;;;;;;;;;;;;;;;;;-124.988556;39.48332;-123.153625;;1515.6
1683.0;1603.3;;;;;;;;;;;;;;1.3155919;-0.1380047;-0.68453014;;;;;1515.6
1683.0;1603.3;;;;;;;;;;;;;;;;;-124.988556;40.23484;-124.29044;;1525.3
1683.0;1603.3;;;;;;;;;;;;;;1.2373425;-0.12262337;-0.593585;;;;;1525.3
1683.0;1603.3;;;;;;;;;;;;;;;;;-124.988556;37.58736;-124.96567;;1525.3
1683.0;1603.3;;;;;;;;;;;;;;1.1333964;6.714072E-4;-0.5213172;;;;;1525.3
1683.0;1605.5;;;;;;;;;;;;;2899;;;;;;;;
1683.0;1605.5;;;;;;;;;;;;;3033;;;;;;;;
1683.0;1605.5;;;;;;;;;;;;;-6942;;;;;;;;
1683.0;1605.5;;;;;;;;;;;;;-26154;;;;;;;;
1683.0;1605.5;;;;;;;;;;;;;-38379;;;;;;;;
1683.0;1606.9;;;;-0.15513994;0.70766455;0.18052293;;;;;;;;;;;;;;;
1683.0;1606.9;;;;-0.15589143;0.69977957;0.18070604;;;;;;;;;;;;;;;
1683.0;1606.9;;;;-0.15605928;0.69211584;0.18074037;;;;;;;;;;;;;;;
1683.0;1606.9;;;;-0.15573122;0.68412405;0.18273164;;;;;;;;;;;;;;;
1683.0;1606.9;;;;-0.15633012;0.67633826;0.18373491;;;;;;;;;;;;;;;
1732.0;1611.1;;;;;;;;;;;;;;;;;-124.988556;30.652027;-124.94278;;1534.9
1732.0;1611.1;;;;;;;;;;;;;;1.1445662;0.03668325;-0.49293497;;;;;1534.9
1732.0;1611.1;;;;;;;;;;;;;;;;;-124.988556;24.84588;-124.988556;;1534.9
1732.0;1611.1;;;;;;;;;;;;;;1.1503036;0.105960265;-0.43293557;;;;;1534.9
1732.0;1611.1;;;;;;;;;;;;;;;;;-122.99341;15.75518;-124.54222;;1544.6
1732.0;1611.1;;;;;;;;;;;;;;1.4778283;0.07849361;-0.65468305;;;;;1544.6
1732.0;1611.1;;;;;;;;;;;;;;;;;-116.46626;26.779993;-124.774925;;1544.6
1732.0;1611.1;;;;;;;;;;;;;;1.2950835;0.16205329;-0.50556964;;;;;1544.6
1732.0;1611.1;;;;;;;;;;;;;;;;;-105.88397;29.229103;-124.988556;;1554.1
1732.0;1611.1;;;;;;;;;;;;;;1.2057253;0.18060854;-0.4181646;;;;;1554.1
1732.0;1611.1;;;;;;;;;;;;;;;;;-91.73864;23.777735;-124.988556;;1554.1
1732.0;1611.1;;;;;;;;;;;;;;1.1615344;0.23535874;-0.36408582;;;;;1554.1
1732.0;1616.9;;;;-0.15682985;0.6688004;0.18579866;;;;;;;;;;;;;;;
1732.0;1616.9;;;;-0.1572075;0.6618882;0.18838504;;;;;;;;;;;;;;;
1732.0;1616.9;;;;-0.15788652;0.65544516;0.19115451;;;;;;;;;;;;;;;
1732.0;1616.9;;;;-0.15865327;0.6488877;0.1948128;;;;;;;;;;;;;;;
1732.0;1616.9;;;;-0.15964128;0.6430245;0.19860843;;;;;;;;;;;;;;;
1732.0;1619.3;262143;262143;14411;;;;;;;;;;;;;;;;;;
1732.0;1626.9;;;;-0.16029741;0.63719946;0.20180514;;;;;;;;;;;;;;;
1732.0;1626.9;;;;-0.16139986;0.6321297;0.2044945;;;;;;;;;;;;;;;
1732.0;1626.9;;;;-0.16237642;0.62728506;0.20708087;;;;;;;;;;;;;;;
1732.0;1626.9;;;;-0.16350557;0.62302786;0.20978549;;;;;;;;;;;;;;;
1732.0;1626.9;;;;-0.16521074;0.6188012;0.2126961;;;;;;;;;;;;;;;
1734.0;1636.9;;;;-0.16669466;0.6141663;0.2161217;;;;;;;;;;;;;;;
1734.0;1636.9;;;;-0.1686249;0.6104012;0.2189484;;;;;;;;;;;;;;;
1734.0;1636.9;;;;-0.17037965;0.60704046;0.22112277;;;;;;;;;;;;;;;
1734.0;1636.9;;;;-0.17261125;0.60369116;0.22377017;;;;;;;;;;;;;;;
1734.0;1636.9;;;;-0.17514803;0.60026175;0.22673419;;;;;;;;;;;;;;;
1734.0;1639.4;262143;262143;14418;;;;;;;;;;;;;;;;;;
1734.0;1645.6;;;;;;;;;;;;;-29355;;;;;;;;
1734.0;1645.6;;;;;;;;;;;;;-5574;;;;;;;;
1734.0;1645.6;;;;;;;;;;;;;12690;;;;;;;;
1734.0;1645.6;;;;;;;;;;;;;14679;;;;;;;;
1734.0;1645.6;;;;;;;;;;;;;7408;;;;;;;;
1734.0;1647.0;;;;-0.17781831;0.5969315;0.22931293;;;;;;;;;;;;;;;
1734.0;1647.0;;;;-0.18065263;0.5936852;0.2321091;;;;;;;;;;;;;;;
1734.0;1647.0;;;;-0.18325426;0.5902901;0.23516467;;;;;;;;;;;;;;;
1734.0;1647.0;;;;-0.18595888;0.5873986;0.2373276;;;;;;;;;;;;;;;
1734.0;1647.0;;;;-0.18896487;0.58398443;0.24007419;;;;;;;;;;;;;;;
1734.0;1657.1;;;;-0.19148257;0.580803;0.24231341;;;;;;;;;;;;;;;
1734.0;1657.1;;;;-0.19409183;0.5781632;0.24418643;;;;;;;;;;;;;;;
1734.0;1657.1;;;;-0.19767001;0.57591254;0.24639133;;;;;;;;;;;;;;;
1734.0;1657.1;;;;-0.20151904;0.573433;0.24960712;;;;;;;;;;;;;;;
1734.0;1657.1;;;;-0.20585254;0.57191473;0.25176242;;;;;;;;;;;;;;;
1734.0;1659.7;262143;262143;14415;;;;;;;;;;;;;;;;;;
1736.0;1663.5;;;;;;;;;;;;;;;;;-81.701866;16.865292;-124.988556;;1563.7
1736.0;1663.5;;;;;;;;;;;;;;1.1255836;0.25464645;-0.3157445;;;;;1563.7
1736.0;1663.5;;;;;;;;;;;;;;;;;-74.400314;12.337108;-124.988556;;1563.7
1736.0;1663.5;;;;;;;;;;;;;;1.0342723;0.28199103;-0.33857235;;;;;1563.7
1736.0;1663.5;;;;;;;;;;;;;;;;;-68.21649;8.0835905;-124.988556;;1573.4
1736.0;1663.5;;;;;;;;;;;;;;1.0055848;0.29914242;-0.37586597;;;;;1573.4
1736.0;1663.5;;;;;;;;;;;;;;;;;-65.511795;7.3397017;-124.73296;;1573.4
1736.0;1663.5;;;;;;;;;;;;;;0.92880034;0.25147253;-0.40314952;;;;;1573.4
1736.0;1663.5;;;;;;;;;;;;;;;;;-65.374466;8.5909605;-123.47026;;1583.1
1736.0;1663.5;;;;;;;;;;;;;;0.8527482;0.24073;-0.44392225;;;;;1583.1
1736.0;1663.5;;;;;;;;;;;;;;;;;-70.17349;11.349071;-121.65059;;1583.1
1736.0;1663.5;;;;;;;;;;;;;;0.7074801;0.2229072;-0.49244666;;;;;1583.1
1736.0;1667.0;;;;-0.21036533;0.5705796;0.2542458;;;;;;;;;;;;;;;
1736.0;1667.0;;;;-0.21558383;0.56981665;0.25740054;;;;;;;;;;;;;;;
1736.0;1667.0;;;;-0.21907428;0.5692406;0.2596741;;;;;;;;;;;;;;;
1736.0;1667.0;;;;-0.2228165;0.5687638;0.26106647;;;;;;;;;;;;;;;
1736.0;1667.0;;;;-0.2265015;0.5678101;0.26217654;;;;;;;;;;;;;;;
1737.0;1671.0;;;;;;;;;;;;;;;;;-75.73931;8.274331;-119.86144;;1592.8
1737.0;1671.0;;;;;;;;;;;;;;0.7341533;0.24897;-0.5859554;;;;;1592.8
1737.0;1671.0;;;;;;;;;;;;;;;;;-82.2779;3.151036;-117.09571;;1592.8
1737.0;1671.0;;;;;;;;;;;;;;0.6979583;0.23932615;-0.64375746;;;;;1592.8
1737.0;1671.0;;;;;;;;;;;;;;;;;-87.94672;-0.59511095;-115.48967;;1602.5
1737.0;1671.0;;;;;;;;;;;;;;0.6814173;0.35108495;-0.6607257;;;;;1602.5
1737.0;1671.0;;;;;;;;;;;;;;;;;-91.021454;-6.130406;-113.94467;;1602.5
1737.0;1671.0;;;;;;;;;;;;;;0.68221074;0.34815517;-0.66188544;;;;;1602.5
1737.0;1671.0;;;;;;;;;;;;;;;;;-88.877525;-11.77633;-114.79156;;1612.2
1737.0;1671.0;;;;;;;;;;;;;;0.6767785;0.31928465;-0.6013367;;;;;1612.2
1737.0;1671.0;;;;;;;;;;;;;;;;;-84.12046;-15.465255;-116.65319;;1612.2
1737.0;1671.0;;;;;;;;;;;;;;0.7381817;0.2982879;-0.5220496;;;;;1612.2
1737.0;1677.0;;;;-0.23020938;0.566948;0.26532367;;;;;;;;;;;;;;;
1737.0;1677.0;;;;-0.23384097;0.5662728;0.26926044;;;;;;;;;;;;;;;
1737.0;1677.0;;;;-0.23722461;0.5663796;0.27299884;;;;;;;;;;;;;;;
1737.0;1677.0;;;;-0.24058154;0.5658303;0.2764397;;;;;;;;;;;;;;;
1737.0;1677.0;;;;-0.2431145;0.5659676;0.27967075;;;;;;;;;;;;;;;
1737.0;1679.6;262143;262143;14408;;;;;;;;;;;;;;;;;;
1737.0;1685.7;;;;;;;;;;;;;2199;;;;;;;;
1737.0;1685.7;;;;;;;;;;;;;1175;;;;;;;;
1737.0;1685.7;;;;;;;;;;;;;743;;;;;;;;
1737.0;1685.7;;;;;;;;;;;;;165;;;;;;;;
1737.0;1685.7;;;;;;;;;;;;;-62;;;;;;;;
1793.0;1687.0;;;;-0.24539188;0.5661469;0.283474;;;;;;;;;;;;;;;
1793.0;1687.0;;;;-0.2475014;0.5667344;0.28694156;;;;;;;;;;;;;;;
1793.0;1687.0;;;;-0.24987796;0.5666924;0.29063419;;;;;;;;;;;;;;;
1793.0;1687.0;;;;-0.2518845;0.5673333;0.29474643;;;;;;;;;;;;;;;
1793.0;1687.0;;;;-0.25358966;0.56789404;0.2990456;;;;;;;;;;;;;;;
1793.0;1696.8;;;;-0.25532916;0.568657;0.3050919;;;;;;;;;;;;;;;
1793.0;1696.8;;;;-0.25776675;0.5698815;0.3116379;;;;;;;;;;;;;;;
1793.0;1696.8;;;;-0.25999454;0.5710297;0.31655887;;;;;;;;;;;;;;;
1793.0;1696.8;;;;-0.2619019;0.57254416;0.32197955;;;;;;;;;;;;;;;
1793.0;1696.8;;;;-0.26372913;0.57446295;0.3272324;;;;;;;;;;;;;;;
1793.0;1699.6;262143;262143;14398;;;;;;;;;;;;;;;;;;
1793.0;1706.9;;;;-0.26609042;0.5765839;0.33291247;;;;;;;;;;;;;;;
1793.0;1706.9;;;;-0.26805118;0.5792962;0.33907703;;;;;;;;;;;;;;;
1793.0;1706.9;;;;-0.27100757;0.58263403;0.34344485;;;;;;;;;;;;;;;
1793.0;1706.9;;;;-0.27555087;0.58588797;0.34736255;;;;;;;;;;;;;;;
1793.0;1706.9;;;;-0.2791901;0.5886422;0.35195544;;;;;;;;;;;;;;;
1793.0;1717.0;;;;-0.28203967;0.59154516;0.35546115;;;;;;;;;;;;;;;
1793.0;1717.0;;;;-0.28542712;0.5949555;0.35922626;;;;;;;;;;;;;;;
1793.0;1717.0;;;;-0.2884827;0.59797674;0.36283496;;;;;;;;;;;;;;;
1793.0;1717.0;;;;-0.29186252;0.6009217;0.36727145;;;;;;;;;;;;;;;
1793.0;1717.0;;;;-0.29545596;0.60374075;0.3705559;;;;;;;;;;;;;;;
1796.0;1719.8;262143;262143;14398;;;;;;;;;;;;;;;;;;
1796.0;1723.5;;;;;;;;;;;;;;;;;-79.081085;-13.233589;-118.022705;;1621.8
1796.0;1723.5;;;;;;;;;;;;;;0.7804804;0.26569414;-0.4210944;;;;;1621.8
1796.0;1723.5;;;;;;;;;;;;;;;;;-74.82757;-7.6525164;-119.01074;;1621.8
1796.0;1723.5;;;;;;;;;;;;;;0.77645195;0.21680349;-0.33460495;;;;;1621.8
1796.0;1723.5;;;;;;;;;;;;;;;;;-72.81716;-3.9368877;-118.64452;;1631.4
1796.0;1723.5;;;;;;;;;;;;;;0.76845604;0.20532854;-0.28321177;;;;;1631.4
1796.0;1723.5;;;;;;;;;;;;;;;;;-74.907684;-2.0638144;-116.100044;;1631.4
1796.0;1723.5;;;;;;;;;;;;;;0.73049104;0.17297891;-0.2525712;;;;;1631.4
1796.0;1723.5;;;;;;;;;;;;;;;;;-81.97653;-1.1139256;-112.9223;;1640.9
1796.0;1723.5;;;;;;;;;;;;;;0.70027775;0.15668203;-0.25348675;;;;;1640.9
1796.0;1723.5;;;;;;;;;;;;;;;;;-90.491196;-0.28611103;-107.92871;;1640.9
1796.0;1723.5;;;;;;;;;;;;;;0.65321815;0.12958159;-0.25244913;;;;;1640.9
1813.0;1724.7;;;;;;;;;;;;;;;;;-99.47889;0.03051851;-102.30186;;1650.5
1813.0;1724.7;;;;;;;;;;;;;;0.5888852;0.12665181;-0.2402417;;;;;1650.5
1813.0;1724.7;;;;;;;;;;;;;;;;;-107.42897;-0.7248146;-97.01834;;1650.5
1813.0;1724.7;;;;;;;;;;;;;;0.5487228;0.08319346;-0.22180852;;;;;1650.5
1813.0;1724.7;;;;;;;;;;;;;;;;;-112.72393;-1.7777032;-91.85308;;1660.2
1813.0;1724.7;;;;;;;;;;;;;;0.5008087;0.06769005;-0.18921477;;;;;1660.2
1813.0;1724.7;;;;;;;;;;;;;;;;;-115.72619;-3.5172582;-87.389755;;1660.2
1813.0;1724.7;;;;;;;;;;;;;;0.47376934;0.051271096;-0.15698722;;;;;1660.2
1813.0;1724.7;;;;;;;;;;;;;;;;;-116.61123;-6.1380353;-83.25449;;1669.8
1813.0;1724.7;;;;;;;;;;;;;;0.4664449;0.03234962;-0.12884915;;;;;1669.8
1813.0;1724.7;;;;;;;;;;;;;;;;;-115.7033;-8.301035;-79.65712;;1669.8
1813.0;1724.7;;;;;;;;;;;;;;0.4643086;0.01660207;-0.10504471;;;;;1669.8
1813.0;1725.7;;;;;;;;;;;;;-493;;;;;;;;
1813.0;1725.7;;;;;;;;;;;;;-1032;;;;;;;;
1813.0;1725.7;;;;;;;;;;;;;-1230;;;;;;;;
1813.0;1725.7;;;;;;;;;;;;;-1209;;;;;;;;
1813.0;1725.7;;;;;;;;;;;;;-1420;;;;;;;;
1813.0;1726.9;;;;-0.29687503;0.6067353;0.37404636;;;;;;;;;;;;;;;
1813.0;1726.9;;;;-0.30030063;0.6097565;0.37663275;;;;;;;;;;;;;;;
1813.0;1726.9;;;;-0.30479053;0.6125756;0.37926108;;;;;;;;;;;;;;;
1813.0;1726.9;;;;-0.30858997;0.61529166;0.38161474;;;;;;;;;;;;;;;
1813.0;1726.9;;;;-0.31118777;0.6187783;0.38312918;;;;;;;;;;;;;;;
1852.0;1737.0;;;;-0.31382754;0.6223679;0.38494498;;;;;;;;;;;;;;;
1852.0;1737.0;;;;-0.31579974;0.6255532;0.38612753;;;;;;;;;;;;;;;
1852.0;1737.0;;;;-0.3185654;0.6283379;0.386818;;;;;;;;;;;;;;;
1852.0;1737.0;;;;-0.32059482;0.63166434;0.38820654;;;;;;;;;;;;;;;
1852.0;1737.0;;;;-0.32295993;0.63586813;0.3883477;;;;;;;;;;;;;;;
1852.0;1737.0;;;;;;;;;;1.2855922;18.658255;-3.299814;;;;;;;;;
1852.0;1737.0;;;;;;;0.08575701;-0.94247264;0.08087405;;;;;;;;;;;;
1852.0;1737.0;;;;;;;;;;5.687887;32.105473;8.842738;;;;;;;;;
1852.0;1737.0;;;;;;;0.10425123;-1.0478225;0.089602344;;;;;;;;;;;;
1852.0;1739.7;262143;262143;14393;;;;;;;;;;;;;;;;;;
1852.0;1746.5;;;;;;;;;;5.9053316;4.337443;0.74007386;;;;;;;;;
1852.0;1746.5;;;;;;;0.11499374;-1.0353099;0.08941923;;;;;;;;;;;;
1852.0;1746.5;;;;;;;;;;21.275217;13.988921;-10.979034;;;;;;;;;
1852.0;1746.5;;;;;;;0.122989595;-1.023896;0.09118931;;;;;;;;;;;;
1852.0;1746.9;;;;-0.32550052;0.639824;0.38839728;;;;;;;;;;;;;;;
1852.0;1746.9;;;;-0.3271561;0.64368826;0.3886605;;;;;;;;;;;;;;;
1852.0;1746.9;;;;-0.32786182;0.64794165;0.38869864;;;;;;;;;;;;;;;
1852.0;1746.9;;;;-0.32958224;0.6529923;0.38882452;;;;;;;;;;;;;;;
1852.0;1746.9;;;;-0.33069232;0.6581574;0.38793188;;;;;;;;;;;;;;;
1852.0;1756.0;;;;;;;;;;34.726246;9.857478;-28.012177;;;;;;;;;
1852.0;1756.0;;;;;;;0.12921537;-1.0104069;0.091921754;;;;;;;;;;;;
1852.0;1756.0;;;;;;;;;;42.859432;-32.895138;-66.64098;;;;;;;;;
1852.0;1756.0;;;;;;;0.13611256;-0.99844354;0.09277627;;;;;;;;;;;;
1857.0;1756.9;;;;-0.33218768;0.66444784;0.38724905;;;;;;;;;;;;;;;
1857.0;1756.9;;;;-0.33321384;0.6715279;0.386303;;;;;;;;;;;;;;;
1857.0;1756.9;;;;-0.334034;0.6792832;0.385006;;;;;;;;;;;;;;;
1857.0;1756.9;;;;-0.33433536;0.68864065;0.38353354;;;;;;;;;;;;;;;
1857.0;1756.9;;;;-0.33401874;0.69857794;0.38163;;;;;;;;;;;;;;;
1857.0;1759.8;262143;262143;14399;;;;;;;;;;;;;;;;;;
1857.0;1765.6;;;;;;;;;;55.46739;-42.291023;-83.223976;;;;;;;;;
1857.0;1765.6;;;;;;;0.14111759;-0.98873866;0.095156714;;;;;;;;;;;;
1857.0;1765.6;;;;;;;;;;67.86935;-52.67495;-99.21948;;;;;;;;;
1857.0;1765.6;;;;;;;0.14526811;-0.98226875;0.09466842;;;;;;;;;;;;
1857.0;1765.9;;;;;;;;;;;;;-2091;;;;;;;;
1857.0;1765.9;;;;;;;;;;;;;-2951;;;;;;;;
1857.0;1765.9;;;;;;;;;;;;;-3615;;;;;;;;
1857.0;1765.9;;;;;;;;;;;;;-3990;;;;;;;;
1857.0;1765.9;;;;;;;;;;;;;-4425;;;;;;;;
1857.0;1767.0;;;;-0.33415225;0.7086182;0.37938696;;;;;;;;;;;;;;;
1857.0;1767.0;;;;-0.33401492;0.72035986;0.37688452;;;;;;;;;;;;;;;
1857.0;1767.0;;;;-0.33417895;0.73320013;0.37533957;;;;;;;;;;;;;;;
1857.0;1767.0;;;;-0.33433917;0.74620444;0.37451556;;;;;;;;;;;;;;;
1857.0;1767.0;;;;-0.33461002;0.7600633;0.37350467;;;;;;;;;;;;;;;
1857.0;1775.2;;;;;;;;;;77.764984;-55.4445;-107.19245;;;;;;;;;
1857.0;1775.2;;;;;;;0.15106662;-0.97537154;0.09234901;;;;;;;;;;;;
1857.0;1775.2;;;;;;;;;;80.095825;-53.250984;-104.30082;;;;;;;;;
1857.0;1775.2;;;;;;;0.15607166;-0.97036654;0.08862575;;;;;;;;;;;;
1859.0;1777.1;;;;-0.33555987;0.7748109;0.3716698;;;;;;;;;;;;;;;
1859.0;1777.1;;;;-0.33512118;0.7899133;0.37077335;;;;;;;;;;;;;;;
1859.0;1777.1;;;;-0.33531955;0.805565;0.37015918;;;;;;;;;;;;;;;
1859.0;1777.1;;;;-0.3349686;0.8219758;0.36980823;;;;;;;;;;;;;;;
1859.0;1777.1;;;;-0.3345833;0.8381845;0.36888888;;;;;;;;;;;;;;;
1859.0;1780.1;262143;262143;14399;;;;;;;;;;;;;;;;;;
1859.0;1783.7;;;;;;;;;;;;;;;;;-113.56319;-10.402997;-76.44505;;1679.4
1859.0;1783.7;;;;;;;;;;;;;;0.4685812;-3.051851E-4;-0.089236125;;;;;1679.4
1859.0;1783.7;;;;;;;;;;;;;;;;;-111.23234;-12.699514;-72.763756;;1679.4
1859.0;1783.7;;;;;;;;;;;;;;0.46668905;-0.01678518;-0.06811731;;;;;1679.4
1859.0;1783.7;;;;;;;;;;;;;;;;;-108.47804;-14.931181;-68.678085;;1688.9
1859.0;1783.7;;;;;;;;;;;;;;0.46882534;-0.037171546;-0.054383986;;;;;1688.9
1859.0;1783.7;;;;;;;;;;;;;;;;;-106.10523;-16.430403;-64.4055;;1688.9
1859.0;1783.7;;;;;;;;;;;;;;0.4667501;-0.036439102;-0.02990814;;;;;1688.9
1859.0;1783.7;;;;;;;;;;;;;;;;;-103.289894;-17.986847;-59.560688;;1698.6
1859.0;1783.7;;;;;;;;;;;;;;0.46980193;-0.037354656;-0.006775109;;;;;1698.6
1859.0;1783.7;;;;;;;;;;;;;;;;;-100.56612;-19.425032;-54.422134;;1698.6
1859.0;1783.7;;;;;;;;;;;;;;0.4575335;-0.033326212;0.02294992;;;;;1698.6
1861.0;1784.6;;;;;;;;;;;;;;;;;-97.53716;-21.710106;-48.46721;;1708.3
1861.0;1784.6;;;;;;;;;;;;;;0.46174505;-0.042054508;0.028504288;;;;;1708.3
1861.0;1784.6;;;;;;;;;;;;;;;;;-93.23023;-22.144993;-42.70684;;1708.3
1861.0;1784.6;;;;;;;;;;;;;;0.418775;-0.046143986;0.021240883;;;;;1708.3
1861.0;1784.6;;;;;;;;;;;;;;;;;-88.12983;-20.275734;-38.42662;;1717.9
1861.0;1784.6;;;;;;;;;;;;;;0.44788966;-0.03625599;-0.017700735;;;;;1717.9
1861.0;1784.6;;;;;;;;;;;;;;;;;-83.85342;-16.453293;-34.72243;;1717.9
1861.0;1784.6;;;;;;;;;;;;;;0.38605914;-0.07037568;-0.04626606;;;;;1717.9
1861.0;1784.6;;;;;;;;;;;;;;;;;-78.04346;-16.399885;-31.022064;;1727.6
1861.0;1784.6;;;;;;;;;;;;;;0.38160345;-0.0761742;-0.07635731;;;;;1727.6
1861.0;1784.6;;;;;;;;;;;;;;;;;-71.46672;-16.17481;-27.432323;;1727.6
1861.0;1784.6;;;;;;;;;;;;;;0.38093203;-0.06756798;-0.085573904;;;;;1727.6
1861.0;1784.6;;;;;;;;;;80.51927;-57.69143;-104.20927;;;;;;;;;
1861.0;1784.6;;;;;;;0.16089359;-0.96426284;0.085329756;;;;;;;;;;;;
1861.0;1784.6;;;;;;;;;;80.8626;-61.712242;-104.02234;;;;;;;;;
1861.0;1784.6;;;;;;;0.16766869;-0.9584643;0.07940916;;;;;;;;;;;;
1861.0;1787.0;;;;-0.33474353;0.85494244;0.36769107;;;;;;;;;;;;;;;
1861.0;1787.0;;;;-0.3346024;0.8712045;0.36713412;;;;;;;;;;;;;;;
1861.0;1787.0;;;;-0.3346825;0.8879167;0.36706927;;;;;;;;;;;;;;;
1861.0;1787.0;;;;-0.3351517;0.904194;0.3667641;;;;;;;;;;;;;;;
1861.0;1787.0;;;;-0.3356171;0.9210092;0.36693957;;;;;;;;;;;;;;;
1861.0;1794.1;;;;;;;;;;81.07242;-65.08454;-103.92316;;;;;;;;;
1861.0;1794.1;;;;;;;0.17383343;-0.95242167;0.07580798;;;;;;;;;;;;
1861.0;1794.1;;;;;;;;;;81.25553;-67.812126;-103.74386;;;;;;;;;
1861.0;1794.1;;;;;;;0.17810602;-0.9503464;0.07257301;;;;;;;;;;;;
1913.0;1797.0;;;;-0.33646396;0.93779767;0.36686328;;;;;;;;;;;;;;;
1913.0;1797.0;;;;-0.3376198;0.95471966;0.36745074;;;;;;;;;;;;;;;
1913.0;1797.0;;;;-0.3385773;0.97070324;0.36732867;;;;;;;;;;;;;;;
1913.0;1797.0;;;;-0.33890918;0.98672116;0.36732104;;;;;;;;;;;;;;;
1913.0;1797.0;;;;-0.33936313;1.0026551;0.3670769;;;;;;;;;;;;;;;
1913.0;1799.9;262143;262143;14395;;;;;;;;;;;;;;;;;;
1913.0;1803.6;;;;;;;;;;81.331825;-69.799644;-103.503525;;;;;;;;;
1913.0;1803.6;;;;;;;0.1817072;-0.9531541;0.06762902;;;;;;;;;;;;
1913.0;1803.6;;;;;;;;;;81.29368;-71.06998;-103.14493;;;;;;;;;
1913.0;1803.6;;;;;;;0.1897641;-0.96365243;0.06317332;;;;;;;;;;;;
1913.0;1805.9;;;;;;;;;;;;;-5411;;;;;;;;
1913.0;1805.9;;;;;;;;;;;;;-7156;;;;;;;;
1913.0;1805.9;;;;;;;;;;;;;-9135;;;;;;;;
1913.0;1805.9;;;;;;;;;;;;;-10296;;;;;;;;
1913.0;1805.9;;;;;;;;;;;;;-10244;;;;;;;;
1913.0;1806.9;;;;-0.33955768;1.018242;0.36779025;;;;;;;;;;;;;;;
1913.0;1806.9;;;;-0.33991626;1.0340883;0.36946872;;;;;;;;;;;;;;;
1913.0;1806.9;;;;-0.34055713;1.0495569;0.37080768;;;;;;;;;;;;;;;
1913.0;1806.9;;;;-0.34087756;1.0648118;0.3718796;;;;;;;;;;;;;;;
1913.0;1806.9;;;;-0.3413315;1.0794984;0.3729668;;;;;;;;;;;;;;;
1913.0;1813.0;;;;;;;;;;81.21357;-72.02368;-102.832115;;;;;;;;;
1913.0;1813.0;;;;;;;0.19379254;-0.97738576;0.055360578;;;;;;;;;;;;
1913.0;1813.0;;;;;;;;;;80.980865;-72.45094;-102.50023;;;;;;;;;
1913.0;1813.0;;;;;;;0.20081179;-0.99325544;0.047853023;;;;;;;;;;;;
1915.0;1816.8;;;;-0.34132388;1.09404;0.37422565;;;;;;;;;;;;;;;
1915.0;1816.8;;;;-0.34109882;1.10804;0.37637335;;;;;;;;;;;;;;;
1915.0;1816.8;;;;-0.34082797;1.1211549;0.37879187;;;;;;;;;;;;;;;
1915.0;1816.8;;;;-0.34081653;1.1337816;0.381836;;;;;;;;;;;;;;;
1915.0;1816.8;;;;-0.34066775;1.1451646;0.38470083;;;;;;;;;;;;;;;
1915.0;1819.8;262143;262143;14394;;;;;;;;;;;;;;;;;;
1915.0;1822.6;;;;;;;;;;80.55742;-72.47383;-102.24464;;;;;;;;;
1915.0;1822.6;;;;;;;0.20068972;-1.0066836;0.037171546;;;;;;;;;;;;
1915.0;1822.6;;;;;;;;;;79.981384;-72.099976;-101.85934;;;;;;;;;
1915.0;1822.6;;;;;;;0.2047792;-1.0190741;0.025208289;;;;;;;;;;;;
1915.0;1826.9;;;;-0.34051135;1.1552049;0.38772207;;;;;;;;;;;;;;;
1915.0;1826.9;;;;-0.34043887;1.164776;0.39130408;;;;;;;;;;;;;;;
1915.0;1826.9;;;;-0.34047702;1.1732255;0.39528662;;;;;;;;;;;;;;;
1915.0;1826.9;;;;-0.34017566;1.1807443;0.39925772;;;;;;;;;;;;;;;
1915.0;1826.9;;;;-0.3406792;1.1873323;0.40245444;;;;;;;;;;;;;;;
1915.0;1832.2;;;;;;;;;;79.17645;-71.371346;-101.57323;;;;;;;;;
1915.0;1832.2;;;;;;;0.20899075;-1.0290841;0.014893033;;;;;;;;;;;;
1915.0;1832.2;;;;;;;;;;78.21512;-70.25361;-101.23371;;;;;;;;;
1915.0;1832.2;;;;;;;0.21124913;-1.0370799;0.005920591;;;;;;;;;;;;
1919.0;1837.0;;;;-0.3417206;1.192814;0.4058991;;;;;;;;;;;;;;;
1919.0;1837.0;;;;-0.3432732;1.1978647;0.40964514;;;;;;;;;;;;;;;
1919.0;1837.0;;;;-0.34515002;1.202469;0.41253668;;;;;;;;;;;;;;;
1919.0;1837.0;;;;-0.3480263;1.2062494;0.41577917;;;;;;;;;;;;;;;
1919.0;1837.0;;;;-0.35119632;1.2097589;0.41777426;;;;;;;;;;;;;;;
1919.0;1840.1;262143;262143;14389;;;;;;;;;;;;;;;;;;
1919.0;1841.8;;;;;;;;;;77.05543;-68.61705;-100.82934;;;;;;;;;
1919.0;1841.8;;;;;;;0.21295816;-1.0433668;-0.0036622211;;;;;;;;;;;;
1919.0;1841.8;;;;;;;;;;75.69735;-66.57995;-100.39826;;;;;;;;;
1919.0;1841.8;;;;;;;0.21369061;-1.0498978;-0.012024293;;;;;;;;;;;;
1919.0;1843.7;;;;;;;;;;;;;;;;;-64.17661;-16.506699;-23.636585;;1737.2
1919.0;1843.7;;;;;;;;;;;;;;0.37366864;-0.06402783;-0.09131138;;;;;1737.2
1919.0;1843.7;;;;;;;;;;;;;;;;;-56.55461;-17.433699;-19.64629;;1737.2
1919.0;1843.7;;;;;;;;;;;;;;0.35853145;-0.08270516;-0.10711997;;;;;1737.2
1919.0;1843.7;;;;;;;;;;;;;;;;;-49.176765;-17.845697;-15.793329;;1746.8
1919.0;1843.7;;;;;;;;;;;;;;0.3238014;-0.10925627;-0.12567522;;;;;1746.8
1919.0;1843.7;;;;;;;;;;;;;;;;;-40.22721;-18.562883;-11.864071;;1746.8
1919.0;1843.7;;;;;;;;;;;;;;0.30310982;-0.112186044;-0.13660085;;;;;1746.8
1919.0;1843.7;;;;;;;;;;;;;;;;;-30.461287;-19.878994;-8.152257;;1756.5
1919.0;1843.7;;;;;;;;;;;;;;0.25843075;-0.111636706;-0.14813684;;;;;1756.5
1919.0;1843.7;;;;;;;;;;;;;;;;;-23.083437;-21.336254;-3.8987396;;1756.5
1919.0;1843.7;;;;;;;;;;;;;;0.2080752;-0.10547197;-0.14197211;;;;;1756.5
1921.0;1844.5;;;;;;;;;;;;;;;;;-15.160069;-23.712883;0.2822962;;1766.0
1921.0;1844.5;;;;;;;;;;;;;;0.17139195;-0.084231086;-0.14282663;;;;;1766.0
1921.0;1844.5;;;;;;;;;;;;;;;;;-6.3859982;-27.962584;4.505295;;1766.0
1921.0;1844.5;;;;;;;;;;;;;;0.14532915;-0.047242653;-0.1477096;;;;;1766.0
1921.0;1844.5;;;;;;;;;;;;;;;;;4.669332;-33.818325;8.709219;;1775.7
1921.0;1844.5;;;;;;;;;;;;;;0.15552233;0.0568865;-0.17035432;;;;;1775.7
1921.0;1844.5;;;;;;;;;;;;;;;;;15.121922;-40.894802;13.054293;;1775.7
1921.0;1844.5;;;;;;;;;;;;;;0.13507493;0.11346782;-0.21124913;;;;;1775.7
1921.0;1844.5;;;;;;;;;;;;;;;;;26.135288;-47.990356;17.296364;;1785.4
1921.0;1844.5;;;;;;;;;;;;;;0.1784112;0.22638631;-0.24213386;;;;;1785.4
1921.0;1844.5;;;;;;;;;;;;;;;;;35.927914;-54.044468;21.870327;;1785.4
1921.0;1844.5;;;;;;;;;;;;;;0.21716972;0.3378399;-0.26514482;;;;;1785.4
1921.0;1845.9;;;;;;;;;;;;;-9725;;;;;;;;
1921.0;1845.9;;;;;;;;;;;;;-9486;;;;;;;;
1921.0;1845.9;;;;;;;;;;;;;-9235;;;;;;;;
1921.0;1845.9;;;;;;;;;;;;;-8178;;;;;;;;
1921.0;1845.9;;;;;;;;;;;;;-6272;;;;;;;;
1921.0;1846.8;;;;-0.3552399;1.2132722;0.4201699;;;;;;;;;;;;;;;
1921.0;1846.8;;;;-0.3587685;1.2158929;0.4217072;;;;;;;;;;;;;;;
1921.0;1846.8;;;;-0.36265185;1.218609;0.4237061;;;;;;;;;;;;;;;
1921.0;1846.8;;;;-0.36676028;1.2207757;0.42486578;;;;;;;;;;;;;;;
1921.0;1846.8;;;;-0.3703728;1.2231256;0.42623144;;;;;;;;;;;;;;;
1921.0;1851.2;;;;;;;;;;74.26298;-64.05072;-99.76501;;;;;;;;;
1921.0;1851.2;;;;;;;0.21625416;-1.0587481;-0.018127995;;;;;;;;;;;;
1921.0;1851.2;;;;;;;;;;72.714165;-61.082794;-99.02493;;;;;;;;;
1921.0;1851.2;;;;;;;0.21790215;-1.0686362;-0.023682363;;;;;;;;;;;;
1972.0;1856.9;;;;-0.37396625;1.2249643;0.42728812;;;;;;;;;;;;;;;
1972.0;1856.9;;;;-0.37767035;1.2261621;0.42768866;;;;;;;;;;;;;;;
1972.0;1856.9;;;;-0.38102728;1.2276307;0.4279366;;;;;;;;;;;;;;;
1972.0;1856.9;;;;-0.3852387;1.229168;0.4281159;;;;;;;;;;;;;;;
1972.0;1856.9;;;;-0.38996512;1.2303239;0.4285851;;;;;;;;;;;;;;;
1972.0;1860.0;262143;262143;14378;;;;;;;;;;;;;;;;;;
1972.0;1860.7;;;;;;;;;;70.93646;-57.79061;-97.987305;;;;;;;;;
1972.0;1860.7;;;;;;;0.21893978;-1.0795007;-0.028321177;;;;;;;;;;;;
1972.0;1860.7;;;;;;;;;;69.15112;-54.235207;-96.743675;;;;;;;;;
1972.0;1860.7;;;;;;;0.21967223;-1.0959808;-0.03277688;;;;;;;;;;;;
1972.0;1866.9;;;;-0.39510733;1.231064;0.4285012;;;;;;;;;;;;;;;
1972.0;1866.9;;;;-0.40017325;1.23164;0.42810827;;;;;;;;;;;;;;;
1972.0;1866.9;;;;-0.40565878;1.2323762;0.42768103;;;;;;;;;;;;;;;
1972.0;1866.9;;;;-0.4108315;1.2322885;0.4276963;;;;;;;;;;;;;;;
1972.0;1866.9;;;;-0.4171067;1.2323648;0.42739493;;;;;;;;;;;;;;;
1972.0;1870.2;;;;;;;;;;67.35054;-50.294502;-95.156715;;;;;;;;;
1972.0;1870.2;;;;;;;0.2191229;-1.1149632;-0.037171546;;;;;;;;;;;;
1972.0;1870.2;;;;;;;;;;65.34395;-45.97232;-93.23023;;;;;;;;;
1972.0;1870.2;;;;;;;0.22223578;-1.139256;-0.040040284;;;;;;;;;;;;
1974.0;1876.8;;;;-0.42312628;1.2318994;0.42704016;;;;;;;;;;;;;;;
1974.0;1876.8;;;;-0.42973334;1.231762;0.4258843;;;;;;;;;;;;;;;
1974.0;1876.8;;;;-0.4357224;1.2306634;0.42506796;;;;;;;;;;;;;;;
1974.0;1876.8;;;;-0.44230276;1.2295419;0.4235688;;;;;;;;;;;;;;;
1974.0;1876.8;;;;-0.4496079;1.2275583;0.42199713;;;;;;;;;;;;;;;
1974.0;1879.7;;;;;;;;;;63.20765;-41.421246;-91.071045;;;;;;;;;
1974.0;1879.7;;;;;;;0.22376171;-1.1629994;-0.042542804;;;;;;;;;;;;
1974.0;1879.7;;;;;;;;;;61.113316;-36.778618;-88.78979;;;;;;;;;
1974.0;1879.7;;;;;;;0.2268746;-1.1883297;-0.04382458;;;;;;;;;;;;
1974.0;1880.1;262143;262143;14383;;;;;;;;;;;;;;;;;;
1974.0;1886.1;;;;;;;;;;;;;-4173;;;;;;;;
1974.0;1886.1;;;;;;;;;;;;;-2320;;;;;;;;
1974.0;1886.1;;;;;;;;;;;;;-840;;;;;;;;
1974.0;1886.1;;;;;;;;;;;;;190;;;;;;;;
1974.0;1886.1;;;;;;;;;;;;;900;;;;;;;;
1974.0;1886.9;;;;-0.45664603;1.2257692;0.42042547;;;;;;;;;;;;;;;
1974.0;1886.9;;;;-0.46351248;1.2234613;0.41876608;;;;;;;;;;;;;;;
1974.0;1886.9;;;;-0.4700356;1.2205621;0.41682822;;;;;;;;;;;;;;;
1974.0;1886.9;;;;-0.47703177;1.2169191;0.41418463;;;;;;;;;;;;;;;
1974.0;1886.9;;;;-0.4838677;1.2128183;0.41181952;;;;;;;;;;;;;;;
1974.0;1889.4;;;;;;;;;;58.85876;-32.07877;-86.0622;;;;;;;;;
1974.0;1889.4;;;;;;;0.22827846;-1.2123172;-0.041444138;;;;;;;;;;;;
1974.0;1889.4;;;;;;;;;;56.550797;-27.25303;-83.27357;;;;;;;;;
1974.0;1889.4;;;;;;;0.2290109;-1.2326427;-0.042237617;;;;;;;;;;;;
1976.0;1897.0;;;;-0.49019247;1.2086793;0.4102555;;;;;;;;;;;;;;;
1976.0;1897.0;;;;-0.49620062;1.20496;0.4082299;;;;;;;;;;;;;;;
1976.0;1897.0;;;;-0.50169;1.2007753;0.40608984;;;;;;;;;;;;;;;
1976.0;1897.0;;;;-0.5065842;1.1971742;0.4050637;;;;;;;;;;;;;;;
1976.0;1897.0;;;;-0.51131827;1.1940271;0.4032517;;;;;;;;;;;;;;;
1976.0;1899.0;;;;;;;;;;54.29243;-22.423473;-80.36668;;;;;;;;;
1976.0;1899.0;;;;;;;0.2283395;-1.2482681;-0.041688286;;;;;;;;;;;;
1976.0;1899.0;;;;;;;;;;51.9158;-17.605364;-77.36061;;;;;;;;;
1976.0;1899.0;;;;;;;0.22620319;-1.2568743;-0.0413831;;;;;;;;;;;;
1976.0;1900.3;262143;262143;14373;;;;;;;;;;;;;;;;;;
1976.0;1903.9;;;;;;;;;;;;;;;;;45.12543;-60.99124;26.734215;;1795.1
1976.0;1903.9;;;;;;;;;;;;;;0.23383282;0.41395307;-0.27234718;;;;;1795.1
1976.0;1903.9;;;;;;;;;;;;;;;;;52.46895;-67.690056;31.964325;;1795.1
1976.0;1903.9;;;;;;;;;;;;;;0.28980377;0.48646504;-0.2817469;;;;;1795.1
1976.0;1903.9;;;;;;;;;;;;;;;;;58.050022;-73.46187;37.556843;;1804.6
1976.0;1903.9;;;;;;;;;;;;;;0.37421796;0.55995363;-0.26899013;;;;;1804.6
1976.0;1903.9;;;;;;;;;;;;;;;;;60.472424;-75.28535;44.442577;;1804.6
1976.0;1903.9;;;;;;;;;;;;;;0.44111454;0.6142155;-0.29053622;;;;;1804.6
1976.0;1903.9;;;;;;;;;;;;;;;;;60.43809;-72.11142;52.17902;;1814.0
1976.0;1903.9;;;;;;;;;;;;;;0.47346416;0.6154973;-0.34174627;;;;;1814.0
1976.0;1903.9;;;;;;;;;;;;;;;;;58.362835;-65.13795;59.99939;;1814.0
1976.0;1903.9;;;;;;;;;;;;;;0.52174443;0.6498001;-0.39728996;;;;;1814.0
1979.0;1904.7;;;;;;;;;;;;;;;;;54.87228;-55.780205;68.613235;;1823.6
1979.0;1904.7;;;;;;;;;;;;;;0.51301616;0.6048769;-0.49305704;;;;;1823.6
1979.0;1904.7;;;;;;;;;;;;;;;;;52.07221;-45.785393;77.0249;;1823.6
1979.0;1904.7;;;;;;;;;;;;;;0.45899838;0.5427412;-0.5542772;;;;;1823.6
1979.0;1904.7;;;;;;;;;;;;;;;;;51.763206;-42.931915;85.33357;;1833.2
1979.0;1904.7;;;;;;;;;;;;;;0.41523483;0.46143988;-0.6670126;;;;;1833.2
1979.0;1904.7;;;;;;;;;;;;;;;;;53.014465;-43.378246;93.37519;;1833.2
1979.0;1904.7;;;;;;;;;;;;;;0.42738122;0.37867367;-0.73592335;;;;;1833.2
1979.0;1904.7;;;;;;;;;;;;;;;;;52.014984;-38.59447;101.23371;;1842.9
1979.0;1904.7;;;;;;;;;;;;;;0.43537706;0.26899013;-0.7394635;;;;;1842.9
1979.0;1904.7;;;;;;;;;;;;;;;;;49.94354;-30.098879;107.85242;;1842.9
1979.0;1904.7;;;;;;;;;;;;;;0.40479752;0.20062868;-0.6568804;;;;;1842.9
1979.0;1906.9;;;;-0.5150681;1.1925317;0.40302664;;;;;;;;;;;;;;;
1979.0;1906.9;;;;-0.5187493;1.1917917;0.40214163;;;;;;;;;;;;;;;
1979.0;1906.9;;;;-0.52146536;1.1931955;0.40170676;;;;;;;;;;;;;;;
1979.0;1906.9;;;;-0.5239678;1.1951028;0.40002447;;;;;;;;;;;;;;;
1979.0;1906.9;;;;-0.5263024;1.1982042;0.39877325;;;;;;;;;;;;;;;
1979.0;1908.4;;;;;;;;;;49.432358;-12.840663;-74.27442;;;;;;;;;
1979.0;1908.4;;;;;;;0.22528763;-1.2599262;-0.04016236;;;;;;;;;;;;
1979.0;1908.4;;;;;;;;;;46.838284;-8.011109;-71.0242;;;;;;;;;
1979.0;1908.4;;;;;;;0.22132023;-1.2594378;-0.036439102;;;;;;;;;;;;
2033.0;1917.0;;;;-0.5282288;1.2022096;0.39734656;;;;;;;;;;;;;;;
2033.0;1917.0;;;;-0.52849585;1.2065507;0.39565665;;;;;;;;;;;;;;;
2033.0;1917.0;;;;-0.52867895;1.2111665;0.39443213;;;;;;;;;;;;;;;
2033.0;1917.0;;;;-0.5274773;1.2162019;0.39348227;;;;;;;;;;;;;;;
2033.0;1917.0;;;;-0.525837;1.2213174;0.39229208;;;;;;;;;;;;;;;
2033.0;1917.9;;;;;;;;;;44.183174;-3.2082584;-67.68624;;;;;;;;;
2033.0;1917.9;;;;;;;0.21771905;-1.2516251;-0.03320414;;;;;;;;;;;;
2033.0;1917.9;;;;;;;;;;41.501358;1.4343699;-64.20713;;;;;;;;;
2033.0;1917.9;;;;;;;0.21619312;-1.2445449;-0.029175695;;;;;;;;;;;;
2033.0;1920.2;262143;262143;14373;;;;;;;;;;;;;;;;;;
2033.0;1926.2;;;;;;;;;;;;;1696;;;;;;;;
2033.0;1926.2;;;;;;;;;;;;;2802;;;;;;;;
2033.0;1926.2;;;;;;;;;;;;;3929;;;;;;;;
2033.0;1926.2;;;;;;;;;;;;;4653;;;;;;;;
2033.0;1926.2;;;;;;;;;;;;;4865;;;;;;;;
2033.0;1926.9;;;;-0.52385336;1.2251512;0.39103323;;;;;;;;;;;;;;;
2033.0;1926.9;;;;-0.5221253;1.2286721;0.39087301;;;;;;;;;;;;;;;
2033.0;1926.9;;;;-0.5199662;1.2321817;0.39116675;;;;;;;;;;;;;;;
2033.0;1926.9;;;;-0.51803595;1.2348901;0.39170843;;;;;;;;;;;;;;;
2033.0;1926.9;;;;-0.5167275;1.2375795;0.392479;;;;;;;;;;;;;;;
2033.0;1927.4;;;;;;;;;;38.724174;6.008332;-60.567795;;;;;;;;;
2033.0;1927.4;;;;;;;0.21552171;-1.2389294;-0.024536882;;;;;;;;;;;;
2033.0;1927.4;;;;;;;;;;35.897396;10.807367;-56.707207;;;;;;;;;
2033.0;1927.4;;;;;;;0.21814631;-1.2323374;-0.019348735;;;;;;;;;;;;
2035.0;1936.8;;;;-0.5146981;1.240429;0.395073;;;;;;;;;;;;;;;
2035.0;1936.8;;;;-0.5132714;1.2448198;0.39854056;;;;;;;;;;;;;;;
2035.0;1936.8;;;;-0.51147085;1.2495424;0.4029351;;;;;;;;;;;;;;;
2035.0;1936.8;;;;-0.5104142;1.2558099;0.40748602;;;;;;;;;;;;;;;
2035.0;1936.8;;;;-0.5098687;1.2637216;0.41379172;;;;;;;;;;;;;;;
2035.0;1936.8;;;;;;;;;;33.10114;15.602588;-52.72454;;;;;;;;;
2035.0;1936.8;;;;;;;0.22260201;-1.2291635;-0.012756737;;;;;;;;;;;;
2035.0;1936.8;;;;;;;;;;30.316324;20.386364;-48.471024;;;;;;;;;
2035.0;1936.8;;;;;;;0.2247383;-1.226661;-0.0051881466;;;;;;;;;;;;
2035.0;1940.2;262143;262143;14379;;;;;;;;;;;;;;;;;;
2035.0;1946.4;;;;;;;;;;27.581102;25.318918;-44.122135;;;;;;;;;
2035.0;1946.4;;;;;;;0.2323069;-1.2253182;0.0036622211;;;;;;;;;;;;
2035.0;1946.4;;;;;;;;;;24.937437;30.167545;-39.700764;;;;;;;;;
2035.0;1946.4;;;;;;;0.23773919;-1.2240974;0.0126957;;;;;;;;;;;;
2035.0;1946.9;;;;-0.50954825;1.2731706;0.42093664;;;;;;;;;;;;;;;
2035.0;1946.9;;;;-0.5103341;1.2847406;0.42838675;;;;;;;;;;;;;;;
2035.0;1946.9;;;;-0.5116845;1.2970353;0.4353791;;;;;;;;;;;;;;;
2035.0;1946.9;;;;-0.5132256;1.3095437;0.44224936;;;;;;;;;;;;;;;
2035.0;1946.9;;;;-0.5156632;1.3235933;0.45128638;;;;;;;;;;;;;;;
2035.0;1956.1;;;;;;;;;;22.343363;34.974213;-35.18021;;;;;;;;;
2035.0;1956.1;;;;;;;0.24048586;-1.2246468;0.023499252;;;;;;;;;;;;
2035.0;1956.1;;;;;;;;;;19.913326;39.620655;-30.697805;;;;;;;;;
2035.0;1956.1;;;;;;;0.2410352;-1.2268441;0.033326212;;;;;;;;;;;;
2037.0;1957.0;;;;-0.5190392;1.337475;0.45815665;;;;;;;;;;;;;;;
2037.0;1957.0;;;;-0.52223974;1.3502694;0.46552283;;;;;;;;;;;;;;;
2037.0;1957.0;;;;-0.5262795;1.3622438;0.47176367;;;;;;;;;;;;;;;
2037.0;1957.0;;;;-0.52899176;1.3726922;0.47720724;;;;;;;;;;;;;;;
2037.0;1957.0;;;;-0.53262717;1.3812753;0.4836083;;;;;;;;;;;;;;;
2037.0;1960.5;262143;262143;14367;;;;;;;;;;;;;;;;;;
2037.0;1964.0;;;;;;;;;;;;;;;;;47.11295;-30.537582;112.91849;;1852.6
2037.0;1964.0;;;;;;;;;;;;;;0.34546953;0.22827846;-0.6153752;;;;;1852.6
2037.0;1964.0;;;;;;;;;;;;;;;;;36.309395;-42.26432;118.2783;;1852.6
2037.0;1964.0;;;;;;;;;;;;;;0.44636372;0.39765617;-0.52900785;;;;;1852.6
2037.0;1964.0;;;;;;;;;;;;;;;;;6.042665;-48.74569;123.710594;;1862.1
2037.0;1964.0;;;;;;;;;;;;;;0.79891354;0.59871215;-0.1850032;;;;;1862.1
2037.0;1964.0;;;;;;;;;;;;;;;;;-26.158178;-46.48732;124.988556;;1862.1
2037.0;1964.0;;;;;;;;;;;;;;1.1368145;0.6270943;0.16443373;;;;;1862.1
2037.0;1964.0;;;;;;;;;;;;;;;;;-10.917997;-53.201393;122.92856;;1871.8
2037.0;1964.0;;;;;;;;;;;;;;1.0599078;0.473159;-0.08130131;;;;;1871.8
2037.0;1964.0;;;;;;;;;;;;;;;;;35.096287;-86.84805;116.649376;;1871.8
2037.0;1964.0;;;;;;;;;;;;;;1.2305673;0.44972077;-0.6256294;;;;;1871.8
2038.0;1964.8;;;;;;;;;;;;;;;;;44.457836;-97.50664;115.15778;;1881.4
2038.0;1964.8;;;;;;;;;;;;;;1.6698507;0.48451185;-0.63618886;;;;;1881.4
2038.0;1964.8;;;;;;;;;;;;;;;;;42.523727;-77.39494;115.7033;;1881.4
2038.0;1964.8;;;;;;;;;;;;;;1.9066744;0.60121465;-0.62581253;;;;;1881.4
2038.0;1964.8;;;;;;;;;;;;;;;;;51.118504;-52.701653;111.178925;;1891.0
2038.0;1964.8;;;;;;;;;;;;;;1.9702139;0.8236946;-0.68874174;;;;;1891.0
2038.0;1964.8;;;;;;;;;;;;;;;;;57.313763;-37.480545;100.10834;;1891.0
2038.0;1964.8;;;;;;;;;;;;;;1.7546922;0.95773184;-0.62623984;;;;;1891.0
2038.0;1964.8;;;;;;;;;;;;;;;;;60.19013;-51.423687;86.733604;;1900.6
2038.0;1964.8;;;;;;;;;;;;;;1.5904416;1.007477;-0.6935026;;;;;1900.6
2038.0;1964.8;;;;;;;;;;;;;;;;;52.85043;-60.068054;79.8326;;1900.6
2038.0;1964.8;;;;;;;;;;;;;;1.6934111;0.9050569;-0.46473587;;;;;1900.6
2038.0;1965.4;;;;;;;;;;17.544327;43.90851;-26.139103;;;;;;;;;
2038.0;1965.4;;;;;;;0.24231696;-1.2314218;0.04449599;;;;;;;;;;;;
2038.0;1965.4;;;;;;;;;;15.24781;47.93695;-21.481216;;;;;;;;;
2038.0;1965.4;;;;;;;0.23871578;-1.231788;0.052491836;;;;;;;;;;;;
2038.0;1966.2;;;;;;;;;;;;;4702;;;;;;;;
2038.0;1966.2;;;;;;;;;;;;;4406;;;;;;;;
2038.0;1966.2;;;;;;;;;;;;;4064;;;;;;;;
2038.0;1966.2;;;;;;;;;;;;;3597;;;;;;;;
2038.0;1966.2;;;;;;;;;;;;;3022;;;;;;;;
2038.0;1966.9;;;;-0.5361214;1.3882104;0.49175268;;;;;;;;;;;;;;;
2038.0;1966.9;;;;-0.5393639;1.3931009;0.4964295;;;;;;;;;;;;;;;
2038.0;1966.9;;;;-0.54002005;1.3966829;0.5001145;;;;;;;;;;;;;;;
2038.0;1966.9;;;;-0.5388413;1.3974954;0.50267416;;;;;;;;;;;;;;;
2038.0;1966.9;;;;-0.5360337;1.39637;0.50336844;;;;;;;;;;;;;;;
2094.0;1975.0;;;;;;;;;;13.084811;51.713615;-16.880552;;;;;;;;;
2094.0;1975.0;;;;;;;0.23621327;-1.2359385;0.0629902;;;;;;;;;;;;
2094.0;1975.0;;;;;;;;;;10.967589;55.33387;-12.241737;;;;;;;;;
2094.0;1975.0;;;;;;;0.23071994;-1.2354503;0.07104709;;;;;;;;;;;;
2094.0;1976.9;;;;-0.532383;1.3929635;0.5021325;;;;;;;;;;;;;;;
2094.0;1976.9;;;;-0.5282822;1.3877565;0.49893576;;;;;;;;;;;;;;;
2094.0;1976.9;;;;-0.5228272;1.381054;0.4965096;;;;;;;;;;;;;;;
2094.0;1976.9;;;;-0.5163575;1.3724099;0.49236304;;;;;;;;;;;;;;;
2094.0;1976.9;;;;-0.50934607;1.3630105;0.4855805;;;;;;;;;;;;;;;
2094.0;1980.3;262143;262143;14374;;;;;;;;;;;;;;;;;;
2094.0;1984.5;;;;;;;;;;8.880886;58.732872;-7.5991087;;;;;;;;;
2094.0;1984.5;;;;;;;0.22669148;-1.2352672;0.07824946;;;;;;;;;;;;
2094.0;1984.5;;;;;;;;;;6.9429607;61.887722;-3.0594807;;;;;;;;;
2094.0;1984.5;;;;;;;0.22174749;-1.2371594;0.083803825;;;;;;;;;;;;
2094.0;1986.9;;;;-0.50223166;1.3526536;0.47720724;;;;;;;;;;;;;;;
2094.0;1986.9;;;;-0.4949494;1.3417436;0.46856695;;;;;;;;;;;;;;;
2094.0;1986.9;;;;-0.487526;1.3300706;0.45922476;;;;;;;;;;;;;;;
2094.0;1986.9;;;;-0.47988516;1.3178102;0.4487229;;;;;;;;;;;;;;;
2094.0;1986.9;;;;-0.47222143;1.3054506;0.4386788;;;;;;;;;;;;;;;
2094.0;1993.8;;;;;;;;;;5.0241094;64.64202;1.3504441;;;;;;;;;
2094.0;1993.8;;;;;;;0.21735282;-1.2374645;0.087343976;;;;;;;;;;;;
2094.0;1993.8;;;;;;;;;;3.212073;67.11402;5.733665;;;;;;;;;
2094.0;1993.8;;;;;;;0.21320231;-1.24485;0.09143346;;;;;;;;;;;;
2095.0;1996.7;;;;-0.46449286;1.2933427;0.42815787;;;;;;;;;;;;;;;
2095.0;1996.7;;;;-0.457367;1.2812272;0.41724402;;;;;;;;;;;;;;;
2095.0;1996.7;;;;-0.45002753;1.268818;0.40583807;;;;;;;;;;;;;;;
2095.0;1996.7;;;;-0.4434777;1.256405;0.39480215;;;;;;;;;;;;;;;
2095.0;1996.7;;;;-0.43741232;1.2442704;0.38338476;;;;;;;;;;;;;;;
2095.0;2000.2;262143;262143;14368;;;;;;;;;;;;;;;;;;
2095.0;2003.4;;;;;;;;;;1.4839625;69.05957;10.036775;;;;;;;;;
2095.0;2003.4;;;;;;;0.20954008;-1.25309;0.09601123;;;;;;;;;;;;
2095.0;2003.4;;;;;;;;;;-0.19074069;70.32227;14.408551;;;;;;;;;
2095.0;2003.4;;;;;;;0.19940794;-1.2638936;0.09674367;;;;;;;;;;;;
2095.0;2006.2;;;;;;;;;;;;;2454;;;;;;;;
2095.0;2006.2;;;;;;;;;;;;;1959;;;;;;;;
2095.0;2006.2;;;;;;;;;;;;;1659;;;;;;;;
2095.0;2006.2;;;;;;;;;;;;;1603;;;;;;;;
2095.0;2006.2;;;;;;;;;;;;;1649;;;;;;;;
2095.0;2006.8;;;;-0.4318238;1.2322694;0.37242892;;;;;;;;;;;;;;;
2095.0;2006.8;;;;-0.42696768;1.2205087;0.36172488;;;;;;;;;;;;;;;
2095.0;2006.8;;;;-0.42242438;1.2088968;0.35211948;;;;;;;;;;;;;;;
2095.0;2006.8;;;;-0.41805273;1.1971589;0.34388736;;;;;;;;;;;;;;;
2095.0;2006.8;;;;-0.41374975;1.1854783;0.335125;;;;;;;;;;;;;;;
2095.0;2013.0;;;;;;;;;;-1.9684439;71.01657;18.73455;;;;;;;;;
2095.0;2013.0;;;;;;;0.1939146;-1.2739036;0.09643849;;;;;;;;;;;;
2095.0;2013.0;;;;;;;;;;-3.78811;71.11957;22.946104;;;;;;;;;
2095.0;2013.0;;;;;;;0.18256173;-1.2776269;0.096499525;;;;;;;;;;;;
2097.0;2016.9;;;;-0.40956885;1.1747247;0.32730106;;;;;;;;;;;;;;;
2097.0;2016.9;;;;-0.40572745;1.1642724;0.31990436;;;;;;;;;;;;;;;
2097.0;2016.9;;;;-0.40059668;1.1537973;0.31410983;;;;;;;;;;;;;;;
2097.0;2016.9;;;;-0.3952065;1.1449052;0.3084717;;;;;;;;;;;;;;;
2097.0;2016.9;;;;-0.38929373;1.136551;0.30341724;;;;;;;;;;;;;;;
2097.0;2020.5;262143;262143;14366;;;;;;;;;;;;;;;;;;
2097.0;2022.6;;;;;;;;;;-5.6840725;70.76861;27.016512;;;;;;;;;
2097.0;2022.6;;;;;;;0.17352824;-1.2726829;0.09735405;;;;;;;;;;;;
2097.0;2022.6;;;;;;;;;;-7.57622;69.83016;30.91525;;;;;;;;;
2097.0;2022.6;;;;;;;0.16382337;-1.2562029;0.09619434;;;;;;;;;;;;
2097.0;2024.4;;;;;;;;;;;;;;;;;38.556324;-46.166874;78.79879;;1910.3
2097.0;2024.4;;;;;;;;;;;;;;1.5914181;0.51765496;-0.09241005;;;;;1910.3
2097.0;2024.4;;;;;;;;;;;;;;;;;41.226692;-43.614765;76.41835;;1910.3
2097.0;2024.4;;;;;;;;;;;;;;1.2620014;0.31562242;-0.31556138;;;;;1910.3
2097.0;2024.4;;;;;;;;;;;;;;;;;39.48332;-44.034397;73.492386;;1920.0
2097.0;2024.4;;;;;;;;;;;;;;1.0444044;0.30921355;-0.40583515;;;;;1920.0
2097.0;2024.4;;;;;;;;;;;;;;;;;35.29847;-34.57747;71.51631;;1920.0
2097.0;2024.4;;;;;;;;;;;;;;0.9919126;0.25562304;-0.15289773;;;;;1920.0
2097.0;2024.4;;;;;;;;;;;;;;;;;50.294502;-27.123325;67.74346;;1929.4
2097.0;2024.4;;;;;;;;;;;;;;0.8440809;0.17499313;-0.052552875;;;;;1929.4
2097.0;2024.4;;;;;;;;;;;;;;;;;74.457535;-33.345287;63.386948;;1929.4
2097.0;2024.4;;;;;;;;;;;;;;0.7928709;0.15363018;-0.15106662;;;;;1929.4
2098.0;2025.2;;;;;;;;;;;;;;;;;83.1782;-37.52632;63.676872;;1939.1
2098.0;2025.2;;;;;;;;;;;;;;0.79427475;0.06427198;-0.22907193;;;;;1939.1
2098.0;2025.2;;;;;;;;;;;;;;;;;82.4305;-38.968323;67.48024;;1939.1
2098.0;2025.2;;;;;;;;;;;;;;0.8053224;0.0080568865;-0.32996613;;;;;1939.1
2098.0;2025.2;;;;;;;;;;;;;;;;;80.8092;-33.68862;71.27598;;1948.8
2098.0;2025.2;;;;;;;;;;;;;;0.83816034;0.02313303;-0.33295694;;;;;1948.8
2098.0;2025.2;;;;;;;;;;;;;;;;;83.975494;-26.253548;72.92398;;1948.8
2098.0;2025.2;;;;;;;;;;;;;;0.8261971;0.10577715;-0.30835903;;;;;1948.8
2098.0;2025.2;;;;;;;;;;;;;;;;;91.33427;-26.455732;72.13431;;1958.4
2098.0;2025.2;;;;;;;;;;;;;;0.8153935;0.18323313;-0.3798944;;;;;1958.4
2098.0;2025.2;;;;;;;;;;;;;;;;;93.36756;-26.406141;71.19587;;1958.4
2098.0;2025.2;;;;;;;;;;;;;;0.87441635;0.26471755;-0.4026612;;;;;1958.4
2098.0;2026.7;;;;-0.38224417;1.1289712;0.29950717;;;;;;;;;;;;;;;
2098.0;2026.7;;;;-0.37479404;1.1220514;0.2959328;;;;;;;;;;;;;;;
2098.0;2026.7;;;;-0.3666878;1.116028;0.29216388;;;;;;;;;;;;;;;
2098.0;2026.7;;;;-0.35811237;1.1113359;0.2882004;;;;;;;;;;;;;;;
2098.0;2026.7;;;;-0.34920123;1.1079789;0.28382114;;;;;;;;;;;;;;;
2098.0;2032.0;;;;;;;;;;-9.346293;68.43012;34.527878;;;;;;;;;
2098.0;2032.0;;;;;;;0.15735343;-1.2251961;0.09735405;;;;;;;;;;;;
2098.0;2032.0;;;;;;;;;;-11.226996;66.47313;37.82388;;;;;;;;;
2098.0;2032.0;;;;;;;0.14972381;-1.1890621;0.09564501;;;;;;;;;;;;
2155.0;2036.8;;;;-0.34015658;1.1052247;0.27925876;;;;;;;;;;;;;;;
2155.0;2036.8;;;;-0.33124164;1.1037141;0.2742577;;;;;;;;;;;;;;;
2155.0;2036.8;;;;-0.3221741;1.1026689;0.26939395;;;;;;;;;;;;;;;
2155.0;2036.8;;;;-0.3126488;1.1029397;0.2645264;;;;;;;;;;;;;;;
2155.0;2036.8;;;;-0.3033066;1.1039163;0.25959018;;;;;;;;;;;;;;;
2155.0;2040.4;262143;262143;14359;;;;;;;;;;;;;;;;;;
2155.0;2041.5;;;;;;;;;;-13.054293;64.03165;40.967285;;;;;;;;;
2155.0;2041.5;;;;;;;0.14593951;-1.1545153;0.09540086;;;;;;;;;;;;
2155.0;2041.5;;;;;;;;;;-14.893033;61.304054;43.954285;;;;;;;;;
2155.0;2041.5;;;;;;;0.1408124;-1.1254616;0.09576708;;;;;;;;;;;;
2155.0;2046.3;;;;;;;;;;;;;1618;;;;;;;;
2155.0;2046.3;;;;;;;;;;;;;1527;;;;;;;;
2155.0;2046.3;;;;;;;;;;;;;1558;;;;;;;;
2155.0;2046.3;;;;;;;;;;;;;1654;;;;;;;;
2155.0;2046.3;;;;;;;;;;;;;1780;;;;;;;;
2155.0;2046.8;;;;-0.29374316;1.105755;0.2537575;;;;;;;;;;;;;;;
2155.0;2046.8;;;;-0.28382877;1.1078836;0.24813083;;;;;;;;;;;;;;;
2155.0;2046.8;;;;-0.27334216;1.1107675;0.24265292;;;;;;;;;;;;;;;
2155.0;2046.8;;;;-0.26293185;1.1139642;0.2369614;;;;;;;;;;;;;;;
2155.0;2046.8;;;;-0.2518387;1.1176378;0.23130038;;;;;;;;;;;;;;;
2155.0;2050.8;;;;;;;;;;-16.804255;58.431503;46.8688;;;;;;;;;
2155.0;2050.8;;;;;;;0.14142278;-1.103183;0.09784234;;;;;;;;;;;;
2155.0;2050.8;;;;;;;;;;-18.681143;55.585648;49.74517;;;;;;;;;
2155.0;2050.8;;;;;;;0.14325388;-1.0862148;0.098391674;;;;;;;;;;;;
2157.0;2056.5;;;;-0.24095157;1.1214219;0.2252846;;;;;;;;;;;;;;;
2157.0;2056.5;;;;-0.23018649;1.1257821;0.2191315;;;;;;;;;;;;;;;
2157.0;2056.5;;;;-0.21975711;1.1303025;0.21307376;;;;;;;;;;;;;;;
2157.0;2056.5;;;;-0.20932773;1.1349221;0.20752338;;;;;;;;;;;;;;;
2157.0;2056.5;;;;-0.19947436;1.1399804;0.2012749;;;;;;;;;;;;;;;
2157.0;2060.4;;;;;;;;;;-20.554216;53.01828;52.632984;;;;;;;;;
2157.0;2060.4;;;;;;;0.1469161;-1.0694907;0.09997864;;;;;;;;;;;;
2157.0;2060.4;;;;;;;;;;-22.186956;50.527206;55.303352;;;;;;;;;
2157.0;2060.4;;;;;;;0.15222633;-1.0561235;0.104373306;;;;;;;;;;;;
2157.0;2060.3;262143;262143;14363;;;;;;;;;;;;;;;;;;
2157.0;2066.6;;;;-0.18988422;1.1447908;0.19529346;;;;;;;;;;;;;;;
2157.0;2066.6;;;;-0.18133546;1.1492234;0.18914416;;;;;;;;;;;;;;;
2157.0;2066.6;;;;-0.17329408;1.1539727;0.18260957;;;;;;;;;;;;;;;
2157.0;2066.6;;;;-0.16534044;1.1591035;0.17694475;;;;;;;;;;;;;;;
2157.0;2066.6;;;;-0.15827943;1.1641771;0.1706238;;;;;;;;;;;;;;;
2157.0;2070.0;;;;;;;;;;-23.716698;48.177284;57.676167;;;;;;;;;
2157.0;2070.0;;;;;;;0.15808588;-1.040559;0.108401746;;;;;;;;;;;;
2157.0;2070.0;;;;;;;;;;-25.17014;46.040985;59.781948;;;;;;;;;
2157.0;2070.0;;;;;;;0.16315195;-1.0263375;0.11774041;;;;;;;;;;;;
2158.0;2076.7;;;;-0.15187456;1.1682397;0.16461946;;;;;;;;;;;;;;;
2158.0;2076.7;;;;-0.14654543;1.1723863;0.1582985;;;;;;;;;;;;;;;
2158.0;2076.7;;;;-0.14154436;1.176037;0.1527939;;;;;;;;;;;;;;;
2158.0;2076.7;;;;-0.13681032;1.1797334;0.14825441;;;;;;;;;;;;;;;
2158.0;2076.7;;;;-0.13328554;1.1831399;0.14366533;;;;;;;;;;;;;;;
2158.0;2079.6;;;;;;;;;;-26.444288;43.874172;61.567276;;;;;;;;;
2158.0;2079.6;;;;;;;0.16907254;-1.0131534;0.12817775;;;;;;;;;;;;
2158.0;2079.6;;;;;;;;;;-27.558214;41.77221;62.997833;;;;;;;;;
2158.0;2079.6;;;;;;;0.17249061;-0.9997864;0.13885921;;;;;;;;;;;;
2158.0;2080.5;262143;262143;14370;;;;;;;;;;;;;;;;;;
2158.0;2084.1;;;;;;;;;;;;;;;;;92.00949;-23.468735;71.73376;;1968.1
2158.0;2084.1;;;;;;;;;;;;;;0.9067049;0.33973205;-0.39069796;;;;;1968.1
2158.0;2084.1;;;;;;;;;;;;;;;;;88.85845;-22.73629;72.98883;;1968.1
2158.0;2084.1;;;;;;;;;;;;;;0.98690754;0.41407514;-0.42841884;;;;;1968.1
2158.0;2084.1;;;;;;;;;;;;;;;;;84.982605;-21.526995;72.5692;;1977.7
2158.0;2084.1;;;;;;;;;;;;;;1.017426;0.4804834;-0.49171424;;;;;1977.7
2158.0;2084.1;;;;;;;;;;;;;;;;;82.75857;-19.83703;70.36042;;1977.7
2158.0;2084.1;;;;;;;;;;;;;;1.0548418;0.5645924;-0.53328043;;;;;1977.7
2158.0;2084.1;;;;;;;;;;;;;;;;;79.26801;-17.670218;67.85027;;1987.3
2158.0;2084.1;;;;;;;;;;;;;;1.1468856;0.64082766;-0.5522019;;;;;1987.3
2158.0;2084.1;;;;;;;;;;;;;;;;;72.68746;-13.42433;66.675316;;1987.3
2158.0;2084.1;;;;;;;;;;;;;;1.1659901;0.6476028;-0.55330056;;;;;1987.3
2159.0;2084.8;;;;;;;;;;;;;;;;;65.59954;-10.956145;67.30095;;1996.9
2159.0;2084.8;;;;;;;;;;;;;;1.1380962;0.62782675;-0.60408336;;;;;1996.9
2159.0;2084.8;;;;;;;;;;;;;;;;;59.57976;-11.741997;69.10916;;1996.9
2159.0;2084.8;;;;;;;;;;;;;;1.1552477;0.58674884;-0.66872156;;;;;1996.9
2159.0;2084.8;;;;;;;;;;;;;;;;;53.28532;-9.704886;69.8149;;2006.5
2159.0;2084.8;;;;;;;;;;;;;;1.0976287;0.48420668;-0.6329539;;;;;2006.5
2159.0;2084.8;;;;;;;;;;;;;;;;;47.803432;-5.7222204;69.193085;;2006.5
2159.0;2084.8;;;;;;;;;;;;;;1.0799279;0.4148076;-0.6025575;;;;;2006.5
2159.0;2084.8;;;;;;;;;;;;;;;;;43.60332;-1.9569995;68.85738;;2016.2
2159.0;2084.8;;;;;;;;;;;;;;1.0200506;0.38489944;-0.59431744;;;;;2016.2
2159.0;2084.8;;;;;;;;;;;;;;;;;39.956356;0.4768517;68.88409;;2016.2
2159.0;2084.8;;;;;;;;;;;;;;0.9518723;0.3538316;-0.575396;;;;;2016.2
2159.0;2086.2;;;;;;;;;;;;;2070;;;;;;;;
2159.0;2086.2;;;;;;;;;;;;;2448;;;;;;;;
2159.0;2086.2;;;;;;;;;;;;;2659;;;;;;;;
2159.0;2086.2;;;;;;;;;;;;;2488;;;;;;;;
2159.0;2086.2;;;;;;;;;;;;;2225;;;;;;;;
2159.0;2086.6;;;;-0.13053514;1.1858789;0.13847734;;;;;;;;;;;;;;;
2159.0;2086.6;;;;-0.12712099;1.1879731;0.13505937;;;;;;;;;;;;;;;
2159.0;2086.6;;;;-0.12460329;1.1903077;0.13254167;;;;;;;;;;;;;;;
2159.0;2086.6;;;;-0.12259294;1.1923791;0.12962343;;;;;;;;;;;;;;;
2159.0;2086.6;;;;-0.12031557;1.1940309;0.12734224;;;;;;;;;;;;;;;
2159.0;2089.0;;;;;;;;;;-28.462324;39.95254;64.08505;;;;;;;;;
2159.0;2089.0;;;;;;;0.1739555;-0.9877621;0.14947966;;;;;;;;;;;;
2159.0;2089.0;;;;;;;;;;-29.412214;38.50673;65.00061;;;;;;;;;
2159.0;2089.0;;;;;;;0.17450483;-0.9770806;0.15808588;;;;;;;;;;;;
2161.0;2096.7;;;;-0.11909868;1.1951143;0.12596132;;;;;;;;;;;;;;;
2161.0;2096.7;;;;-0.11890413;1.196232;0.124691024;;;;;;;;;;;;;;;
2161.0;2096.7;;;;-0.120208755;1.1974832;0.124546066;;;;;;;;;;;;;;;
2161.0;2096.7;;;;-0.120533004;1.1989671;0.1257744;;;;;;;;;;;;;;;
2161.0;2096.7;;;;-0.12185289;1.2002527;0.12600328;;;;;;;;;;;;;;;
2161.0;2098.6;;;;;;;;;;-30.354471;37.118137;65.81317;;;;;;;;;
2161.0;2098.6;;;;;;;0.17493209;-0.96743673;0.16699728;;;;;;;;;;;;
2161.0;2098.6;;;;;;;;;;-31.311993;35.779137;66.625725;;;;;;;;;
2161.0;2098.6;;;;;;;0.17236854;-0.959685;0.1744438;;;;;;;;;;;;
2161.0;2099.4;;;;;;;;;;;;;;;;;37.892544;1.4725181;68.64375;;2025.9
2161.0;2099.4;;;;;;;;;;;;;;0.90524;0.31818599;-0.5501267;;;;;2025.9
2161.0;2099.4;;;;;;;;;;;;;;;;;37.606434;3.0060732;67.60613;;2025.9
2161.0;2099.4;;;;;;;;;;;;;;0.86251414;0.29486984;-0.52253795;;;;;2025.9
2161.0;2099.4;;;;;;;;;;;;;;;;;38.47621;4.3679614;66.553246;;2035.5
2161.0;2099.4;;;;;;;;;;;;;;0.80977815;0.291818;-0.5147252;;;;;2035.5
2161.0;2099.4;;;;;;;;;;;;;;;;;39.95254;4.20774;65.99246;;2035.5
2161.0;2099.4;;;;;;;;;;;;;;0.76613665;0.2931608;-0.5301675;;;;;2035.5
2161.0;2099.4;;;;;;;;;;;;;;;;;41.63869;3.357036;65.80173;;2045.1
2161.0;2099.4;;;;;;;;;;;;;;0.74172187;0.28418836;-0.5299844;;;;;2045.1
2161.0;2099.4;;;;;;;;;;;;;;;;;44.0611;1.6251106;66.396835;;2045.1
2161.0;2099.4;;;;;;;;;;;;;;0.7800531;0.2949919;-0.5432905;;;;;2045.1
2161.0;2100.3;262143;262143;14359;;;;;;;;;;;;;;;;;;
2211.0;2106.5;;;;-0.123157516;1.2013475;0.123497024;;;;;;;;;;;;;;;
2211.0;2106.5;;;;-0.12012865;1.2001992;0.11867143;;;;;;;;;;;;;;;
2211.0;2106.5;;;;-0.11853792;1.1995393;0.114597335;;;;;;;;;;;;;;;
2211.0;2106.5;;;;-0.11771394;1.1979333;0.10923387;;;;;;;;;;;;;;;
2211.0;2106.5;;;;-0.11687471;1.1964113;0.10509111;;;;;;;;;;;;;;;
2211.0;2107.8;;;;;;;;;;-32.25425;34.306618;67.32765;;;;;;;;;
2211.0;2107.8;;;;;;;0.16925566;-0.95309305;0.18036439;;;;;;;;;;;;
2211.0;2107.8;;;;;;;;;;-33.131657;32.971436;68.0639;;;;;;;;;
2211.0;2107.8;;;;;;;0.16809595;-0.94448686;0.18738365;;;;;;;;;;;;
2211.0;2116.3;;;;-0.11661531;1.1951143;0.102130905;;;;;;;;;;;;;;;
2211.0;2116.3;;;;-0.11619188;1.193268;0.0980034;;;;;;;;;;;;;;;
2211.0;2116.3;;;;-0.11627199;1.1910135;0.094505325;;;;;;;;;;;;;;;
2211.0;2116.3;;;;-0.11763765;1.1879617;0.09100724;;;;;;;;;;;;;;;
2211.0;2116.3;;;;-0.116245285;1.1858407;0.09029771;;;;;;;;;;;;;;;
2211.0;2117.2;;;;;;;;;;-33.94421;31.502731;68.66664;;;;;;;;;
2211.0;2117.2;;;;;;;0.16626485;-0.93868834;0.19287698;;;;;;;;;;;;
2211.0;2117.2;;;;;;;;;;-34.760582;30.18662;69.14731;;;;;;;;;
2211.0;2117.2;;;;;;;0.16296884;-0.93130285;0.1986755;;;;;;;;;;;;
2211.0;2120.2;262143;262143;14366;;;;;;;;;;;;;;;;;;
2211.0;2126.0;;;;;;;;;;;;;2325;;;;;;;;
2211.0;2126.0;;;;;;;;;;;;;2641;;;;;;;;
2211.0;2126.0;;;;;;;;;;;;;2682;;;;;;;;
2211.0;2126.0;;;;;;;;;;;;;2316;;;;;;;;
2211.0;2126.0;;;;;;;;;;;;;2012;;;;;;;;
2214.0;2126.4;;;;-0.117195144;1.1834184;0.089355476;;;;;;;;;;;;;;;
2214.0;2126.4;;;;-0.11856462;1.181183;0.08769227;;;;;;;;;;;;;;;
2214.0;2126.4;;;;-0.121288314;1.1771623;0.08447266;;;;;;;;;;;;;;;
2214.0;2126.4;;;;-0.12109758;1.1737214;0.08240891;;;;;;;;;;;;;;;
2214.0;2126.4;;;;-0.12395479;1.1696054;0.079299934;;;;;;;;;;;;;;;
2214.0;2126.8;;;;;;;;;;-35.557877;28.756065;69.37238;;;;;;;;;
2214.0;2126.8;;;;;;;0.16156499;-0.92696923;0.20154424;;;;;;;;;;;;
2214.0;2126.8;;;;;;;;;;-36.309395;27.279734;69.45249;;;;;;;;;
2214.0;2126.8;;;;;;;0.1596118;-0.92178106;0.20447402;;;;;;;;;;;;
2214.0;2136.4;;;;;;;;;;-37.07999;25.872066;69.37238;;;;;;;;;
2214.0;2136.4;;;;;;;0.15784173;-0.92049927;0.20630513;;;;;;;;;;;;
2214.0;2136.4;;;;;;;;;;-37.869656;24.445328;69.15494;;;;;;;;;
2214.0;2136.4;;;;;;;0.15668203;-0.9173864;0.20703757;;;;;;;;;;;;
2214.0;2136.5;;;;-0.1254387;1.1658288;0.07630158;;;;;;;;;;;;;;;
2214.0;2136.5;;;;-0.12660982;1.1620713;0.07447816;;;;;;;;;;;;;;;
2214.0;2136.5;;;;-0.12913515;1.1576082;0.07061768;;;;;;;;;;;;;;;
2214.0;2136.5;;;;-0.13137437;1.1530267;0.066288;;;;;;;;;;;;;;;
2214.0;2136.5;;;;-0.1341057;1.149067;0.06337357;;;;;;;;;;;;;;;
2214.0;2140.4;262143;262143;14357;;;;;;;;;;;;;;;;;;
2216.0;2144.0;;;;;;;;;;;;;;;;;45.602283;2.029481;67.2132;;2054.8
2216.0;2144.0;;;;;;;;;;;;;;0.74684894;0.30628377;-0.50160223;;;;;2054.8
2216.0;2144.0;;;;;;;;;;;;;;;;;43.313396;2.4033327;67.11402;;2054.8
2216.0;2144.0;;;;;;;;;;;;;;0.66280097;0.34650716;-0.45069736;;;;;2054.8
2216.0;2144.0;;;;;;;;;;;;;;;;;43.523212;-0.35859248;67.72057;;2064.5
2216.0;2144.0;;;;;;;;;;;;;;0.70113224;0.31745353;-0.509476;;;;;2064.5
2216.0;2144.0;;;;;;;;;;;;;;;;;43.66436;-1.0490738;67.5718;;2064.5
2216.0;2144.0;;;;;;;;;;;;;;0.66805017;0.31434065;-0.4981231;;;;;2064.5
2216.0;2144.0;;;;;;;;;;;;;;;;;43.408768;-2.666555;67.27425;;2074.2
2216.0;2144.0;;;;;;;;;;;;;;0.65779597;0.2797937;-0.50935394;;;;;2074.2
2216.0;2144.0;;;;;;;;;;;;;;;;;43.240913;-3.7995543;66.93854;;2074.2
2216.0;2144.0;;;;;;;;;;;;;;0.6765343;0.35633412;-0.48512223;;;;;2074.2
2216.0;2145.9;;;;;;;;;;-38.644066;22.850733;68.76202;;;;;;;;;
2216.0;2145.9;;;;;;;0.15210426;-0.9139073;0.2075869;;;;;;;;;;;;
2216.0;2145.9;;;;;;;;;;-39.399395;21.07303;68.42249;;;;;;;;;
2216.0;2145.9;;;;;;;0.14935759;-0.9100009;0.20996734;;;;;;;;;;;;
2216.0;2146.5;;;;-0.13792802;1.1446153;0.059535988;;;;;;;;;;;;;;;
2216.0;2146.5;;;;-0.14012147;1.1404954;0.056587227;;;;;;;;;;;;;;;
2216.0;2146.5;;;;-0.14238359;1.1364328;0.054061897;;;;;;;;;;;;;;;
2216.0;2146.5;;;;-0.14490129;1.1319658;0.05167771;;;;;;;;;;;;;;;
2216.0;2146.5;;;;-0.14733888;1.1281053;0.048717506;;;;;;;;;;;;;;;
2216.0;2155.5;;;;;;;;;;-40.13184;19.184698;68.170715;;;;;;;;;
2216.0;2155.5;;;;;;;0.14526811;-0.9043855;0.21094394;;;;;;;;;;;;
2216.0;2155.5;;;;;;;;;;-40.883358;17.097994;67.97616;;;;;;;;;
2216.0;2155.5;;;;;;;0.13861507;-0.8961455;0.2097232;;;;;;;;;;;;
2275.0;2156.5;;;;-0.15007402;1.1239816;0.04577637;;;;;;;;;;;;;;;
2275.0;2156.5;;;;-0.15177156;1.1195222;0.04340363;;;;;;;;;;;;;;;
2275.0;2156.5;;;;-0.15376665;1.1153833;0.041542057;;;;;;;;;;;;;;;
2275.0;2156.5;;;;-0.15599062;1.1116182;0.039161686;;;;;;;;;;;;;;;
2275.0;2156.5;;;;-0.15848924;1.1076623;0.037479404;;;;;;;;;;;;;;;
2275.0;2160.5;262143;262143;14363;;;;;;;;;;;;;;;;;;
2275.0;2165.1;;;;;;;;;;-41.623432;14.980773;67.93801;;;;;;;;;
2275.0;2165.1;;;;;;;0.13458663;-0.8895535;0.2120426;;;;;;;;;;;;
2275.0;2165.1;;;;;;;;;;-42.306286;12.672811;67.93038;;;;;;;;;
2275.0;2165.1;;;;;;;0.1314127;-0.87820065;0.21539964;;;;;;;;;;;;
2275.0;2166.4;;;;;;;;;;;;;1993;;;;;;;;
2275.0;2166.4;;;;;;;;;;;;;2171;;;;;;;;
2275.0;2166.4;;;;;;;;;;;;;2527;;;;;;;;
2275.0;2166.4;;;;;;;;;;;;;2835;;;;;;;;
2275.0;2166.4;;;;;;;;;;;;;3104;;;;;;;;
2275.0;2166.6;;;;-0.16134645;1.1034623;0.03520203;;;;;;;;;;;;;;;
2275.0;2166.6;;;;-0.1639824;1.099106;0.03312302;;;;;;;;;;;;;;;
2275.0;2166.6;;;;-0.16551973;1.0950891;0.03179169;;;;;;;;;;;;;;;
2275.0;2166.6;;;;-0.16848756;1.0910684;0.030494694;;;;;;;;;;;;;;;
2275.0;2166.6;;;;-0.1715088;1.0873338;0.028804783;;;;;;;;;;;;;;;
2275.0;2174.3;;;;;;;;;;-42.886135;10.3724785;68.13638;;;;;;;;;
2275.0;2174.3;;;;;;;0.13043611;-0.8669088;0.22003846;;;;;;;;;;;;
2275.0;2174.3;;;;;;;;;;-43.412582;8.1827755;68.54076;;;;;;;;;
2275.0;2174.3;;;;;;;0.13116856;-0.8550066;0.22132023;;;;;;;;;;;;
2278.0;2176.3;;;;-0.17317964;1.0837137;0.028568272;;;;;;;;;;;;;;;
2278.0;2176.3;;;;-0.17621614;1.0805169;0.027214054;;;;;;;;;;;;;;;
2278.0;2176.3;;;;-0.17815019;1.0774194;0.026233677;;;;;;;;;;;;;;;
2278.0;2176.3;;;;-0.18087007;1.0743219;0.02574921;;;;;;;;;;;;;;;
2278.0;2176.3;;;;-0.1833191;1.0714532;0.02429581;;;;;;;;;;;;;;;
2278.0;2180.3;262143;262143;14360;;;;;;;;;;;;;;;;;;
2278.0;2183.9;;;;;;;;;;-43.889435;5.8709984;68.94894;;;;;;;;;
2278.0;2183.9;;;;;;;0.13367108;-0.8388317;0.22363964;;;;;;;;;;;;
2278.0;2183.9;;;;;;;;;;-44.31669;3.3112583;69.32279;;;;;;;;;
2278.0;2183.9;;;;;;;0.136845;-0.82302314;0.22504349;;;;;;;;;;;;
2278.0;2186.4;;;;-0.18610002;1.0691262;0.023147585;;;;;;;;;;;;;;;
2278.0;2186.4;;;;-0.1881409;1.0669366;0.022464754;;;;;;;;;;;;;;;
2278.0;2186.4;;;;-0.19091037;1.0656701;0.02251053;;;;;;;;;;;;;;;
2278.0;2186.4;;;;-0.19276431;1.0643045;0.022693636;;;;;;;;;;;;;;;
2278.0;2186.4;;;;-0.19462207;1.063717;0.021278383;;;;;;;;;;;;;;;
2278.0;2193.5;;;;;;;;;;-44.732502;0.8278146;69.948425;;;;;;;;;
2278.0;2193.5;;;;;;;0.13812678;-0.8031861;0.2247383;;;;;;;;;;;;
2278.0;2193.5;;;;;;;;;;-44.999542;-1.5297403;70.757164;;;;;;;;;
2278.0;2193.5;;;;;;;0.14105655;-0.7849361;0.22809534;;;;;;;;;;;;
2279.0;2196.5;;;;-0.19679645;1.0629655;0.020786287;;;;;;;;;;;;;;;
2279.0;2196.5;;;;-0.1986275;1.0624963;0.020286562;;;;;;;;;;;;;;;
2279.0;2196.5;;;;-0.20027164;1.0629312;0.01867676;;;;;;;;;;;;;;;
2279.0;2196.5;;;;-0.20177463;1.0631372;0.01823044;;;;;;;;;;;;;;;
2279.0;2196.5;;;;-0.20389941;1.0634576;0.017807009;;;;;;;;;;;;;;;
2279.0;2200.6;262143;262143;14362;;;;;;;;;;;;;;;;;;
2279.0;2203.2;;;;;;;;;;-45.23606;-3.89111;71.76809;;;;;;;;;
2279.0;2203.2;;;;;;;0.1462447;-0.76650286;0.2287057;;;;;;;;;;;;
2279.0;2203.2;;;;;;;;;;-45.583206;-6.187628;72.851494;;;;;;;;;
2279.0;2203.2;;;;;;;0.14709921;-0.74636066;0.23004852;;;;;;;;;;;;
2279.0;2204.0;;;;;;;;;;;;;;;;;41.108433;-6.202887;67.354355;;2083.7
2279.0;2204.0;;;;;;;;;;;;;;0.6913053;0.37769708;-0.47932371;;;;;2083.7
2279.0;2204.0;;;;;;;;;;;;;;;;;38.460953;-8.190405;67.74728;;2083.7
2279.0;2204.0;;;;;;;;;;;;;;0.7235328;0.35322124;-0.51167333;;;;;2083.7
2279.0;2204.0;;;;;;;;;;;;;;;;;35.6151;-7.8394423;67.37343;;2093.4
2279.0;2204.0;;;;;;;;;;;;;;0.7536851;0.3653676;-0.53315836;;;;;2093.4
2279.0;2204.0;;;;;;;;;;;;;;;;;32.36488;-5.9129615;66.8775;;2093.4
2279.0;2204.0;;;;;;;;;;;;;;0.7620472;0.37281412;-0.52357554;;;;;2093.4
2279.0;2204.0;;;;;;;;;;;;;;;;;29.324472;-4.676962;66.782135;;2102.9
2279.0;2204.0;;;;;;;;;;;;;;0.75917846;0.41291544;-0.51661736;;;;;2102.9
2279.0;2204.0;;;;;;;;;;;;;;;;;25.105288;-3.5058138;67.2132;;2102.9
2279.0;2204.0;;;;;;;;;;;;;;0.7705924;0.4227424;-0.49360636;;;;;2102.9
2331.0;2204.8;;;;;;;;;;;;;;;;;20.523697;-2.7390363;67.3658;;2112.5
2331.0;2204.8;;;;;;;;;;;;;;0.76870024;0.4051027;-0.45051423;;;;;2112.5
2331.0;2204.8;;;;;;;;;;;;;;;;;17.097994;-2.7695546;67.10639;;2112.5
2331.0;2204.8;;;;;;;;;;;;;;0.77175206;0.3772698;-0.4365978;;;;;2112.5
2331.0;2204.8;;;;;;;;;;;;;;;;;14.652699;-2.8191473;66.52272;;2122.1
2331.0;2204.8;;;;;;;;;;;;;;0.760094;0.36237678;-0.44196907;;;;;2122.1
2331.0;2204.8;;;;;;;;;;;;;;;;;11.474959;-2.3270364;66.190834;;2122.1
2331.0;2204.8;;;;;;;;;;;;;;0.75899535;0.3452254;-0.45478684;;;;;2122.1
2331.0;2204.8;;;;;;;;;;;;;;;;;7.37022;-1.1902219;65.9238;;2131.8
2331.0;2204.8;;;;;;;;;;;;;;0.74813074;0.32288584;-0.4574114;;;;;2131.8
2331.0;2204.8;;;;;;;;;;;;;;;;;2.97174;-0.31662953;65.332504;;2131.8
2331.0;2204.8;;;;;;;;;;;;;;0.74019593;0.3065279;-0.43513292;;;;;2131.8
2331.0;2206.2;;;;;;;;;;;;;3098;;;;;;;;
2331.0;2206.2;;;;;;;;;;;;;2285;;;;;;;;
2331.0;2206.2;;;;;;;;;;;;;1202;;;;;;;;
2331.0;2206.2;;;;;;;;;;;;;1645;;;;;;;;
2331.0;2206.2;;;;;;;;;;;;;4373;;;;;;;;
2331.0;2206.3;;;;-0.20567325;1.0638353;0.016067507;;;;;;;;;;;;;;;
2331.0;2206.3;;;;-0.20655063;1.0641176;0.015197756;;;;;;;;;;;;;;;
2331.0;2206.3;;;;-0.2073746;1.0646821;0.0149993915;;;;;;;;;;;;;;;
2331.0;2206.3;;;;-0.2086449;1.0661088;0.012908937;;;;;;;;;;;;;;;
2331.0;2206.3;;;;-0.20920947;1.0674287;0.010803224;;;;;;;;;;;;;;;
2331.0;2212.5;;;;;;;;;;-45.915096;-8.575701;74.072235;;;;;;;;;
2331.0;2212.5;;;;;;;0.14935759;-0.7246925;0.23059785;;;;;;;;;;;;
2331.0;2212.5;;;;;;;;;;-46.09821;-10.952331;75.23194;;;;;;;;;
2331.0;2212.5;;;;;;;0.14850307;-0.7061373;0.23249;;;;;;;;;;;;
2393.0;2216.4;;;;-0.2099953;1.0690461;0.010059358;;;;;;;;;;;;;;;
2393.0;2216.4;;;;-0.21073154;1.0712091;0.010368348;;;;;;;;;;;;;;;
2393.0;2216.4;;;;-0.2110329;1.0744783;0.008728028;;;;;;;;;;;;;;;
2393.0;2216.4;;;;-0.21078876;1.0779229;0.0073165903;;;;;;;;;;;;;;;
2393.0;2216.4;;;;-0.2106438;1.0816194;0.007987977;;;;;;;;;;;;;;;
2393.0;2219.1;;;;;;;;;;;;;;;;;-0.8964812;-0.41199988;64.69924;;2141.5
2393.0;2219.1;;;;;;;;;;;;;;0.74831384;0.28119755;-0.4242683;;;;;2141.5
2393.0;2219.1;;;;;;;;;;;;;;;;;-3.6965547;-0.22888882;63.951538;;2141.5
2393.0;2219.1;;;;;;;;;;;;;;0.75569934;0.2552568;-0.41743216;;;;;2141.5
2393.0;2219.1;;;;;;;;;;;;;;;;;-5.7298503;0.13351847;63.070312;;2151.1
2393.0;2219.1;;;;;;;;;;;;;;0.76070434;0.23761712;-0.4062624;;;;;2151.1
2393.0;2219.1;;;;;;;;;;;;;;;;;-7.3854795;-0.3852962;61.651203;;2151.1
2393.0;2219.1;;;;;;;;;;;;;;0.7563707;0.2644734;-0.3836787;;;;;2151.1
2393.0;2219.1;;;;;;;;;;;;;;;;;-10.12833;-1.1635182;60.26261;;2160.8
2393.0;2219.1;;;;;;;;;;;;;;0.7868282;0.24427015;-0.42219305;;;;;2160.8
2393.0;2219.1;;;;;;;;;;;;;;;;;-13.924069;0.62944424;57.824947;;2160.8
2393.0;2219.1;;;;;;;;;;;;;;0.7820673;0.22644734;-0.4125492;;;;;2160.8
2393.0;2220.4;262143;262143;14355;;;;;;;;;;;;;;;;;;
2393.0;2222.0;;;;;;;;;;-46.349987;-13.393811;76.51372;;;;;;;;;
2393.0;2222.0;;;;;;;0.151677;-0.68947417;0.23493148;;;;;;;;;;;;
2393.0;2222.0;;;;;;;;;;-46.55217;-15.736107;77.84509;;;;;;;;;
2393.0;2222.0;;;;;;;0.15161596;-0.6705527;0.24042481;;;;;;;;;;;;
2400.0;2226.4;;;;-0.21073154;1.0857927;0.007923127;;;;;;;;;;;;;;;
2400.0;2226.4;;;;-0.21086887;1.0909921;0.005897523;;;;;;;;;;;;;;;
2400.0;2226.4;;;;-0.21004489;1.0957032;0.005271912;;;;;;;;;;;;;;;
2400.0;2226.4;;;;-0.20909885;1.101101;0.0049247746;;;;;;;;;;;;;;;
2400.0;2226.4;;;;-0.20889667;1.1064073;0.0028305056;;;;;;;;;;;;;;;
2400.0;2231.3;;;;;;;;;;-46.643726;-18.009735;79.13449;;;;;;;;;
2400.0;2231.3;;;;;;;0.15503404;-0.6555376;0.2492752;;;;;;;;;;;;
2400.0;2231.3;;;;;;;;;;-46.761986;-20.157475;80.374306;;;;;;;;;
2400.0;2231.3;;;;;;;0.15381329;-0.6422315;0.25617236;;;;;;;;;;;;
2400.0;2236.0;;;;-0.20731738;1.111828;-6.370545E-4;;;;;;;;;;;;;;;
2400.0;2236.0;;;;-0.20578006;1.1165887;-0.003231049;;;;;;;;;;;;;;;
2400.0;2236.0;;;;-0.20454791;1.1212007;-0.0061950693;;;;;;;;;;;;;;;
2400.0;2236.0;;;;-0.20357135;1.125744;-0.008262635;;;;;;;;;;;;;;;
2400.0;2236.0;;;;-0.2034798;1.1289216;-0.009967805;;;;;;;;;;;;;;;
2400.0;2240.2;262143;262143;14366;;;;;;;;;;;;;;;;;;
2400.0;2240.8;;;;;;;;;;-46.807762;-22.068699;81.625565;;;;;;;;;
2400.0;2240.8;;;;;;;0.15778069;-0.6302683;0.263802;;;;;;;;;;;;
2400.0;2240.8;;;;;;;;;;-46.95273;-23.922697;82.93787;;;;;;;;;
2400.0;2240.8;;;;;;;0.16278572;-0.621662;0.268746;;;;;;;;;;;;
2400.0;2246.1;;;;;;;;;;;;;3801;;;;;;;;
2400.0;2246.1;;;;;;;;;;;;;-8591;;;;;;;;
2400.0;2246.1;;;;;;;;;;;;;-28598;;;;;;;;
2400.0;2246.1;;;;;;;;;;;;;-37532;;;;;;;;
2400.0;2246.1;;;;;;;;;;;;;-23824;;;;;;;;
2401.0;2246.1;;;;-0.2033768;1.1323625;-0.0140800495;;;;;;;;;;;;;;;
2401.0;2246.1;;;;-0.20286945;1.135727;-0.018321993;;;;;;;;;;;;;;;
2401.0;2246.1;;;;-0.20287326;1.1378862;-0.02106476;;;;;;;;;;;;;;;
2401.0;2246.1;;;;-0.20372012;1.140133;-0.023990635;;;;;;;;;;;;;;;
2401.0;2246.1;;;;-0.20486835;1.1419145;-0.028358463;;;;;;;;;;;;;;;
2401.0;2250.4;;;;;;;;;;-47.093876;-25.719473;84.31501;;;;;;;;;
2401.0;2250.4;;;;;;;0.1694998;-0.61342204;0.27582628;;;;;;;;;;;;
2401.0;2250.4;;;;;;;;;;-47.189247;-27.49336;85.67309;;;;;;;;;
2401.0;2250.4;;;;;;;0.17499313;-0.6057924;0.28180793;;;;;;;;;;;;
2401.0;2256.2;;;;-0.20616916;1.1437379;-0.032543186;;;;;;;;;;;;;;;
2401.0;2256.2;;;;-0.20749286;1.145218;-0.03736115;;;;;;;;;;;;;;;
2401.0;2256.2;;;;-0.20837405;1.1463281;-0.042358402;;;;;;;;;;;;;;;
2401.0;2256.2;;;;-0.21078876;1.1469461;-0.046184544;;;;;;;;;;;;;;;
2401.0;2256.2;;;;-0.21330646;1.1472551;-0.049900062;;;;;;;;;;;;;;;
2401.0;2260.0;;;;;;;;;;-47.212135;-29.152807;87.02734;;;;;;;;;
2401.0;2260.0;;;;;;;0.18146306;-0.5971862;0.2872402;;;;;;;;;;;;
2401.0;2260.0;;;;;;;;;;-47.20832;-30.716879;88.38924;;;;;;;;;
2401.0;2260.0;;;;;;;0.18805505;-0.59053314;0.293466;;;;;;;;;;;;
2401.0;2260.5;262143;262143;14350;;;;;;;;;;;;;;;;;;
2403.0;2264.4;;;;;;;;;;;;;;;;;-14.885404;0.13351847;56.40202;;2170.3
2403.0;2264.4;;;;;;;;;;;;;;0.73891413;0.24738304;-0.4141972;;;;;2170.3
2403.0;2264.4;;;;;;;;;;;;;;;;;-17.89529;-0.88503677;55.829796;;2170.3
2403.0;2264.4;;;;;;;;;;;;;;0.7223731;0.2106998;-0.40375987;;;;;2170.3
2403.0;2264.4;;;;;;;;;;;;;;;;;-20.825068;-1.4381847;54.666283;;2180.0
2403.0;2264.4;;;;;;;;;;;;;;0.718894;0.19812617;-0.3538316;;;;;2180.0
2403.0;2264.4;;;;;;;;;;;;;;;;;-22.43492;-3.6202583;53.098392;;2180.0
2403.0;2264.4;;;;;;;;;;;;;;0.7374493;0.18396558;-0.35224465;;;;;2180.0
2403.0;2264.4;;;;;;;;;;;;;;;;;-23.85403;-4.753258;52.02643;;2189.7
2403.0;2264.4;;;;;;;;;;;;;;0.74330884;0.15796381;-0.3721427;;;;;2189.7
2403.0;2264.4;;;;;;;;;;;;;;;;;-24.307993;-6.0121465;50.923946;;2189.7
2403.0;2264.4;;;;;;;;;;;;;;0.74782556;0.0905179;-0.36677146;;;;;2189.7
2403.0;2266.2;;;;-0.21406558;1.1473275;-0.05509568;;;;;;;;;;;;;;;
2403.0;2266.2;;;;-0.21546558;1.1472207;-0.059970863;;;;;;;;;;;;;;;
2403.0;2266.2;;;;-0.21694568;1.1472322;-0.06473542;;;;;;;;;;;;;;;
2403.0;2266.2;;;;-0.2195473;1.1464959;-0.06936646;;;;;;;;;;;;;;;
2403.0;2266.2;;;;-0.2215462;1.1457177;-0.073486336;;;;;;;;;;;;;;;
2403.0;2269.5;;;;;;;;;;-47.181618;-31.937622;89.671005;;;;;;;;;
2403.0;2269.5;;;;;;;0.19544053;-0.5851619;0.2982879;;;;;;;;;;;;
2403.0;2269.5;;;;;;;;;;-47.013763;-32.81503;90.849785;;;;;;;;;
2403.0;2269.5;;;;;;;0.20667134;-0.5809503;0.3051851;;;;;;;;;;;;
2404.0;2271.4;;;;;;;;;;;;;;;;;-22.709585;-8.411665;49.737537;;2199.3
2404.0;2271.4;;;;;;;;;;;;;;0.76052123;0.08520768;-0.39509264;;;;;2199.3
2404.0;2271.4;;;;;;;;;;;;;;;;;-20.023956;-8.239998;49.100468;;2199.3
2404.0;2271.4;;;;;;;;;;;;;;0.77681816;0.09161656;-0.39765617;;;;;2199.3
