patientId;holterMac;flexMac;;;;;;;;;;;;;;;;;;;;
stairsdown;CA:F3:0B:1E:33:78;D3:4A:5C:52:80:78;;;;;;;;;;;;;;;;;;;;
receivedTimeStamp;timeStamp;red;ir;green;adxl_accX;adxl_accY;adxl_accZ;lsm_accelX;lsm_accelY;lsm_accelZ;lsm_gyroX;lsm_gyroY;lsm_gyroZ;ecg;flex_lsm_accelX;flex_lsm_accelY;flex_lsm_accelZ;flex_lsm_gyroX;flex_lsm_gyroY;flex_lsm_gyroZ;flex_cmd;flexTimeStamp
273.0;215.5;;;;;;;;;;;;;;;;;;;;17;0.1
273.0;215.5;;;;;;;;;;;;;;;;;13.389997;1.2627033;1.1482589;;127.7
273.0;215.5;;;;;;;;;;;;;;0.87838376;-0.19086276;-0.08819849;;;;;127.7
273.0;215.5;;;;;;;;;;;;;;;;;-4.6464434;-16.464737;-9.205146;;127.7
273.0;215.5;;;;;;;;;;;;;;0.891995;-0.23157445;-0.13574633;;;;;127.7
273.0;215.5;;;;;;;;;;;;;;;;;-62.238686;-83.70083;-68.08298;;137.3
273.0;215.5;;;;;;;;;;;;;;0.84792626;-0.23700674;-0.18134098;;;;;137.3
273.0;215.5;;;;;;;;;;;;;;;;;-121.87185;-124.988556;-122.66533;;137.3
273.0;215.5;;;;;;;;;;;;;;0.81771296;-0.2360912;-0.23480941;;;;;137.3
333.0;216.3;;;;;;;;;;;;;;;;;-47.31895;-121.288185;-107.04367;;146.9
333.0;216.3;;;;;;;;;;;;;;0.8061159;-0.2278512;-0.26453444;;;;;146.9
333.0;216.3;;;;;;;;;;;;;;;;;38.357952;-112.220375;-102.63756;;146.9
333.0;216.3;;;;;;;;;;;;;;0.8052614;-0.20606098;-0.28412732;;;;;146.9
333.0;216.3;;;;;;;;;;;;;;;;;45.392467;-77.822205;-111.36967;;156.6
333.0;216.3;;;;;;;;;;;;;;0.80001223;-0.18689536;-0.29663992;;;;;156.6
333.0;216.3;;;;;;;;;;;;;;;;;46.166874;11.200293;-100.48982;;156.6
333.0;216.3;;;;;;;;;;;;;;0.8056276;-0.19000824;-0.28241828;;;;;156.6
333.0;216.3;;;;;;;;;;;;;;;;;48.100986;11.585589;-99.95574;;166.2
333.0;216.3;;;;;;;;;;;;;;0.8500015;-0.19653921;-0.2725303;;;;;166.2
333.0;216.3;;;;;;;;;;;;;;;;;50.34028;6.4813685;-100.95523;;166.2
333.0;216.3;;;;;;;;;;;;;;0.87673575;-0.19733268;-0.2855922;;;;;166.2
333.0;276.2;;;;;;;;;;;;;;;;;53.24717;4.711295;-102.603226;;175.9
333.0;276.2;;;;;;;;;;;;;;0.89901423;-0.19611195;-0.2633137;;;;;175.9
333.0;276.2;;;;;;;;;;;;;;;;;56.104465;1.7967772;-102.896965;;175.9
333.0;276.2;;;;;;;;;;;;;;0.9311808;-0.22644734;-0.27130955;;;;;175.9
333.0;276.2;;;;;;;;;;;;;;;;;59.686577;1.1558886;-102.50023;;185.5
333.0;276.2;;;;;;;;;;;;;;0.95986813;-0.2519608;-0.28107548;;;;;185.5
333.0;276.2;;;;;;;;;;;;;;;;;61.23539;2.8153324;-101.58086;;185.5
333.0;276.2;;;;;;;;;;;;;;0.9815363;-0.2690512;-0.2652669;;;;;185.5
333.0;276.2;;;;;;;;;;;;;;;;;59.259315;4.0513325;-99.89471;;195.2
333.0;276.2;;;;;;;;;;;;;;1.0082705;-0.27661976;-0.2197943;;;;;195.2
333.0;276.2;;;;;;;;;;;;;;;;;54.48317;3.4638507;-97.079384;;195.2
333.0;276.2;;;;;;;;;;;;;;1.0457473;-0.28321177;-0.18634602;;;;;195.2
396.0;277.0;;;;;;;;;;;;;;;;;50.859097;1.5221107;-94.60356;;204.7
396.0;277.0;;;;;;;;;;;;;;1.0969573;-0.29108554;-0.1688284;;;;;204.7
396.0;277.0;;;;;;;;;;;;;;;;;49.848167;-1.5526291;-92.413864;;204.7
396.0;277.0;;;;;;;;;;;;;;1.1376079;-0.28675193;-0.19501327;;;;;204.7
396.0;277.0;;;;;;;;;;;;;;;;;49.836723;-4.71511;-92.036194;;214.4
396.0;277.0;;;;;;;;;;;;;;1.1664785;-0.22205268;-0.23010956;;;;;214.4
396.0;277.0;;;;;;;;;;;;;;;;;49.69176;-8.163702;-91.063416;;214.4
396.0;277.0;;;;;;;;;;;;;;1.1672109;-0.20819727;-0.2827235;;;;;214.4
396.0;277.0;;;;;;;;;;;;;;;;;48.68084;-9.8155155;-91.63182;;224.1
396.0;277.0;;;;;;;;;;;;;;1.1655018;-0.15460677;-0.29627368;;;;;224.1
396.0;277.0;;;;;;;;;;;;;;;;;46.93747;-10.170293;-91.30756;;224.1
396.0;277.0;;;;;;;;;;;;;;1.1442;-0.14117862;-0.28693503;;;;;224.1
396.0;336.2;;;;;;;;;;;;;;;;;45.602283;-11.043886;-90.73153;;233.7
396.0;336.2;;;;;;;;;;;;;;1.1511582;-0.128605;-0.24665059;;;;;233.7
396.0;336.2;;;;;;;;;;;;;;;;;44.175545;-13.363293;-90.342415;;233.7
396.0;336.2;;;;;;;;;;;;;;1.1647084;-0.1114536;-0.24585712;;;;;233.7
396.0;336.2;;;;;;;;;;;;;;;;;42.058323;-10.658589;-89.2323;;243.3
396.0;336.2;;;;;;;;;;;;;;1.1423078;-0.097048864;-0.22101505;;;;;243.3
396.0;336.2;;;;;;;;;;;;;;;;;39.39558;-8.468886;-87.50038;;243.3
396.0;336.2;;;;;;;;;;;;;;1.1275979;-0.10211493;-0.18707846;;;;;243.3
396.0;336.2;;;;;;;;;;;;;;;;;36.675617;-7.8852196;-85.554825;;253.0
396.0;336.2;;;;;;;;;;;;;;1.11948;-0.059755243;-0.16400647;;;;;253.0
396.0;336.2;;;;;;;;;;;;;;;;;31.895657;-7.026887;-83.517715;;253.0
396.0;336.2;;;;;;;;;;;;;;1.1100192;-0.059694204;-0.18640706;;;;;253.0
464.0;337.0;;;;;;;;;;;;;;;;;27.741325;-3.730888;-80.45824;;262.6
464.0;337.0;;;;;;;;;;;;;;1.0822474;-0.07684561;-0.15912351;;;;;262.6
464.0;337.0;;;;;;;;;;;;;;;;;22.144993;-2.8611102;-78.05109;;262.6
464.0;337.0;;;;;;;;;;;;;;1.058443;-0.0783105;-0.15533921;;;;;262.6
464.0;337.0;;;;;;;;;;;;;;;;;17.124699;-2.2278512;-75.05264;;272.3
464.0;337.0;;;;;;;;;;;;;;1.028901;-0.098269604;-0.16492203;;;;;272.3
464.0;337.0;;;;;;;;;;;;;;;;;12.253182;-1.6747032;-72.95831;;272.3
464.0;337.0;;;;;;;;;;;;;;1.0018616;-0.10388501;-0.1633961;;;;;272.3
464.0;337.0;;;;;;;;;;;;;;;;;7.56859;-1.3771478;-70.53972;;282.0
464.0;337.0;;;;;;;;;;;;;;0.9862972;-0.11407819;-0.17468795;;;;;282.0
464.0;337.0;;;;;;;;;;;;;;;;;3.1891842;0.015259255;-67.91512;;282.0
464.0;337.0;;;;;;;;;;;;;;0.96407974;-0.13483077;-0.1683401;;;;;282.0
464.0;396.6;;;;;;;;;;;;;;;;;-0.46922207;1.0948515;-65.0502;;291.6
464.0;396.6;;;;;;;;;;;;;;0.94137394;-0.12994781;-0.15308085;;;;;291.6
464.0;396.6;;;;;;;;;;;;;;;;;-4.6617026;0.37766656;-62.067017;;291.6
464.0;396.6;;;;;;;;;;;;;;0.9297769;-0.14056826;-0.16467787;;;;;291.6
464.0;396.6;;;;;;;;;;;;;;;;;-8.854182;-0.049592577;-58.721428;;301.2
464.0;396.6;;;;;;;;;;;;;;0.9097568;-0.17108676;-0.17462692;;;;;301.2
464.0;396.6;;;;;;;;;;;;;;;;;-12.546922;-1.2588885;-55.177464;;301.2
464.0;396.6;;;;;;;;;;;;;;0.9063997;-0.17474899;-0.16907254;;;;;301.2
464.0;396.6;;;;;;;;;;;;;;;;;-15.884884;-3.3951843;-51.660206;;310.8
464.0;396.6;;;;;;;;;;;;;;0.90347;-0.18353832;-0.18622394;;;;;310.8
464.0;396.6;;;;;;;;;;;;;;;;;-17.635883;-3.3112583;-47.948395;;310.8
464.0;396.6;;;;;;;;;;;;;;0.89522994;-0.19843134;-0.16589862;;;;;310.8
578.0;397.8;;;;;;;;;;;;;;;;;-18.887142;-5.130924;-43.65673;;320.5
578.0;397.8;;;;;;;;;;;;;;0.9306314;-0.2156438;-0.16895047;;;;;320.5
578.0;397.8;;;;;;;;;;;;;;;;;-19.871365;-5.283517;-39.922024;;320.5
578.0;397.8;;;;;;;;;;;;;;0.9213538;-0.21814631;-0.17493209;;;;;320.5
578.0;397.8;;;;;;;;;;;;;;;;;-22.518845;-3.3989992;-36.347546;;330.1
578.0;397.8;;;;;;;;;;;;;;0.8941313;-0.21210364;-0.14185004;;;;;330.1
578.0;397.8;;;;;;;;;;;;;;;;;-26.467178;-2.6322215;-32.853176;;330.1
578.0;397.8;;;;;;;;;;;;;;0.87923825;-0.2026429;-0.1225013;;;;;330.1
578.0;397.8;;;;;;;;;;;;;;;;;-31.170843;-1.0147405;-29.232918;;339.8
578.0;397.8;;;;;;;;;;;;;;0.8822291;-0.18726158;-0.10211493;;;;;339.8
578.0;397.8;;;;;;;;;;;;;;;;;-36.65273;1.6403699;-25.673697;;339.8
578.0;397.8;;;;;;;;;;;;;;0.87295145;-0.17291787;-0.07483139;;;;;339.8
578.0;457.1;;;;;;;;;;;;;;;;;-41.65395;3.1243324;-22.801142;;349.5
578.0;457.1;;;;;;;;;;;;;;0.86306345;-0.14654988;-0.047059543;;;;;349.5
578.0;457.1;;;;;;;;;;;;;;;;;-45.373394;1.7433698;-19.802696;;349.5
578.0;457.1;;;;;;;;;;;;;;0.870571;-0.12549211;-0.05389569;;;;;349.5
578.0;457.1;;;;;;;;;;;;;;;;;-47.860653;-1.5488143;-16.827145;;359.1
578.0;457.1;;;;;;;;;;;;;;0.8957793;-0.09955138;-0.06946013;;;;;359.1
578.0;457.1;;;;;;;;;;;;;;;;;-48.772396;-3.0213325;-13.874477;;359.1
578.0;457.1;;;;;;;;;;;;;;0.8489029;-0.08807642;-0.123416856;;;;;359.1
578.0;457.1;;;;;;;;;;;;;;;;;-48.394726;1.4000366;-10.860775;;368.8
578.0;457.1;;;;;;;;;;;;;;0.7810297;-0.08209479;-0.0872219;;;;;368.8
578.0;457.1;;;;;;;;;;;;;;;;;-47.505875;-2.1477401;-7.461776;;368.8
578.0;457.1;;;;;;;;;;;;;;0.79860836;-0.08130131;-0.11084323;;;;;368.8
636.0;457.9;;;;;;;;;;;;;;;;;-47.322765;-5.1614428;-4.1123695;;378.5
636.0;457.9;;;;;;;;;;;;;;0.78591263;-0.08789331;-0.1472213;;;;;378.5
636.0;457.9;;;;;;;;;;;;;;;;;-48.1048;-5.83285;-0.69429606;;378.5
636.0;457.9;;;;;;;;;;;;;;0.75209814;-0.09979553;-0.14331493;;;;;378.5
636.0;457.9;;;;;;;;;;;;;;;;;-48.06284;-7.881405;1.9608142;;388.2
636.0;457.9;;;;;;;;;;;;;;0.75392926;-0.1093173;-0.14679404;;;;;388.2
636.0;457.9;;;;;;;;;;;;;;;;;-46.262245;-9.243294;4.0475173;;388.2
636.0;457.9;;;;;;;;;;;;;;0.7685171;-0.1241493;-0.16968292;;;;;388.2
636.0;457.9;;;;;;;;;;;;;;;;;-42.638172;-8.114109;5.94348;;397.8
636.0;457.9;;;;;;;;;;;;;;0.77071446;-0.12726219;-0.1897641;;;;;397.8
636.0;457.9;;;;;;;;;;;;;;;;;-38.430435;-5.9511094;8.335368;;397.8
636.0;457.9;;;;;;;;;;;;;;0.77303386;-0.13000885;-0.19415876;;;;;397.8
636.0;517.4;;;;;;;;;;;;;;;;;-35.065765;-3.154851;11.116366;;407.5
636.0;517.4;;;;;;;;;;;;;;0.76906645;-0.14111759;-0.18561357;;;;;407.5
636.0;517.4;;;;;;;;;;;;;;;;;-32.437363;-0.45777765;13.595997;;407.5
636.0;517.4;;;;;;;;;;;;;;0.75716424;-0.15765862;-0.1726127;;;;;407.5
636.0;517.4;;;;;;;;;;;;;;;;;-28.53099;0.18692587;15.930662;;417.1
636.0;517.4;;;;;;;;;;;;;;0.74025697;-0.18182927;-0.18414868;;;;;417.1
636.0;517.4;;;;;;;;;;;;;;;;;-24.029512;-0.62944424;18.150883;;417.1
636.0;517.4;;;;;;;;;;;;;;0.7324442;-0.20178838;-0.2029481;;;;;417.1
636.0;517.4;;;;;;;;;;;;;;;;;-20.325327;-1.3962218;20.123142;;426.7
636.0;517.4;;;;;;;;;;;;;;0.7241432;-0.21857357;-0.19891964;;;;;426.7
636.0;517.4;;;;;;;;;;;;;;;;;-17.239141;-2.3613698;21.81692;;426.7
636.0;517.4;;;;;;;;;;;;;;0.732017;-0.22669148;-0.17169714;;;;;426.7
641.0;518.6;;;;;;;;;;;;;;;;;-14.915922;-2.6322215;22.94229;;436.2
641.0;518.6;;;;;;;;;;;;;;0.7405011;-0.23822749;-0.14368114;;;;;436.2
641.0;518.6;;;;;;;;;;;;;;;;;-12.554551;-1.6136662;22.991882;;436.2
641.0;518.6;;;;;;;;;;;;;;0.7467269;-0.24365978;-0.122196116;;;;;436.2
641.0;518.6;;;;;;;;;;;;;;;;;-8.354443;0.04196295;22.267067;;445.9
641.0;518.6;;;;;;;;;;;;;;0.7614368;-0.23603015;-0.11358989;;;;;445.9
641.0;518.6;;;;;;;;;;;;;;;;;-2.494888;2.2278512;21.748253;;445.9
641.0;518.6;;;;;;;;;;;;;;0.77138585;-0.2245552;-0.11609241;;;;;445.9
641.0;518.6;;;;;;;;;;;;;;;;;3.4638507;2.395703;21.088291;;455.6
641.0;518.6;;;;;;;;;;;;;;0.77700126;-0.18237862;-0.10589923;;;;;455.6
641.0;518.6;;;;;;;;;;;;;;;;;5.706961;-1.575518;21.317179;;455.6
641.0;518.6;;;;;;;;;;;;;;0.7937864;-0.1518601;-0.10571612;;;;;455.6
641.0;532.3;;;;;;;;;;;;;;;;;4.5319986;-7.755516;21.572771;;465.2
641.0;532.3;;;;;;;;;;;;;;0.84328747;-0.09674367;-0.11999878;;;;;465.2
641.0;532.3;;;;;;;;;;;;;;;;;-0.06103702;-11.898404;21.80166;;465.2
641.0;532.3;;;;;;;;;;;;;;0.9032258;-0.04077273;-0.086916715;;;;;465.2
641.0;532.3;;;;;;;;;;;;;;;;;-6.496628;-12.153996;21.710106;;474.8
641.0;532.3;;;;;;;;;;;;;;0.96896267;0.003967406;-0.024475845;;;;;474.8
641.0;532.3;;;;;;;;;;;;;;;;;-11.669515;-8.48033;20.844143;;474.8
641.0;532.3;;;;;;;;;;;;;;1.0204169;0.040040284;0.028138066;;;;;474.8
641.0;532.3;;;;;;;;;;;;;;;;;-14.118626;-3.99411;19.661549;;484.4
641.0;532.3;;;;;;;;;;;;;;1.0484939;0.088137455;0.04956206;;;;;484.4
641.0;532.3;;;;;;;;;;;;;;;;;-13.8363285;-2.0523698;18.34544;;484.4
641.0;532.3;;;;;;;;;;;;;;1.0805384;0.15845211;0.030640583;;;;;484.4
697.0;585.1;;;;;;;;;;;;;;;;;-14.229255;-3.3303325;17.49855;;493.9
697.0;585.1;;;;;;;;;;;;;;1.1349224;0.20838039;-0.05774102;;;;;493.9
697.0;585.1;;;;;;;;;;;;;;;;;-16.41133;-4.2420726;15.945921;;493.9
697.0;585.1;;;;;;;;;;;;;;1.1396222;0.27674183;-0.20044558;;;;;493.9
697.0;585.1;;;;;;;;;;;;;;;;;-22.3014;-6.7560353;15.053254;;503.6
697.0;585.1;;;;;;;;;;;;;;1.1139256;0.3509018;-0.36927396;;;;;503.6
697.0;585.1;;;;;;;;;;;;;;;;;-32.494583;-7.9729605;14.809107;;503.6
697.0;585.1;;;;;;;;;;;;;;1.1045259;0.39136937;-0.4342784;;;;;503.6
697.0;585.1;;;;;;;;;;;;;;;;;-39.757988;-9.365368;13.5387745;;513.2
697.0;585.1;;;;;;;;;;;;;;1.1048311;0.4263436;-0.4372692;;;;;513.2
697.0;585.1;;;;;;;;;;;;;;;;;-41.219063;-8.991516;11.455885;;513.2
697.0;585.1;;;;;;;;;;;;;;1.1385235;0.44544816;-0.37665945;;;;;513.2
697.0;592.6;;;;;;;;;;;;;;;;;-36.46199;-6.4470353;9.170813;;522.8
697.0;592.6;;;;;;;;;;;;;;1.1157568;0.47706535;-0.3272805;;;;;522.8
697.0;592.6;;;;;;;;;;;;;;;;;-31.132694;-6.76748;7.362591;;522.8
697.0;592.6;;;;;;;;;;;;;;1.0664388;0.4758446;-0.2620319;;;;;522.8
697.0;592.6;;;;;;;;;;;;;;;;;-26.383251;-12.394329;5.94348;;532.5
697.0;592.6;;;;;;;;;;;;;;1.0441602;0.45551926;-0.22614215;;;;;532.5
697.0;592.6;;;;;;;;;;;;;;;;;-20.306253;-17.17429;4.238258;;532.5
697.0;592.6;;;;;;;;;;;;;;1.0058901;0.42597735;-0.18756676;;;;;532.5
697.0;592.6;;;;;;;;;;;;;;;;;-14.198736;-22.476881;2.7352216;;542.2
697.0;592.6;;;;;;;;;;;;;;1.002411;0.3655507;-0.16846217;;;;;542.2
697.0;592.6;;;;;;;;;;;;;;;;;-8.629108;-25.543993;1.1558886;;542.2
697.0;592.6;;;;;;;;;;;;;;1.0005188;0.30262154;-0.16345714;;;;;542.2
757.0;637.8;;;;;;;;;;;;;;;;;-4.074221;-26.604511;-0.011444441;;551.8
757.0;637.8;;;;;;;;;;;;;;0.98690754;0.22925505;-0.1640675;;;;;551.8
757.0;637.8;;;;;;;;;;;;;;;;;-0.19455549;-26.22303;-0.7057405;;551.8
757.0;637.8;;;;;;;;;;;;;;0.9825739;0.15655996;-0.19135106;;;;;551.8
757.0;637.8;;;;;;;;;;;;;;;;;1.7967772;-23.827326;-0.8697775;;561.5
757.0;637.8;;;;;;;;;;;;;;0.9580371;0.10559405;-0.16187018;;;;;561.5
757.0;637.8;;;;;;;;;;;;;;;;;-0.11444441;-23.873104;-0.5836665;;561.5
757.0;637.8;;;;;;;;;;;;;;0.944731;0.055543687;-0.10443434;;;;;561.5
757.0;637.8;;;;;;;;;;;;;;;;;-2.7619252;-23.83114;-0.22125919;;571.2
757.0;637.8;;;;;;;;;;;;;;0.9589526;-0.003295999;-0.05114902;;;;;571.2
757.0;637.8;;;;;;;;;;;;;;;;;-2.3918884;-21.870327;0.35477766;;571.2
757.0;637.8;;;;;;;;;;;;;;0.9764092;-0.067873165;-0.022766808;;;;;571.2
757.0;652.8;;;;;;;;;;;;;;;;;3.2273324;-18.589588;1.0338145;;580.9
757.0;652.8;;;;;;;;;;;;;;0.9655446;-0.13556322;-0.041444138;;;;;580.9
757.0;652.8;;;;;;;;;;;;;;;;;6.6644797;-16.109959;2.1515548;;580.9
757.0;652.8;;;;;;;;;;;;;;0.9355754;-0.19544053;-0.10119938;;;;;580.9
757.0;652.8;;;;;;;;;;;;;;;;;1.823481;-15.404218;3.4333322;;590.5
757.0;652.8;;;;;;;;;;;;;;0.92519915;-0.25916317;-0.1347087;;;;;590.5
757.0;652.8;;;;;;;;;;;;;;;;;-7.595294;-15.495773;5.1118503;;590.5
757.0;652.8;;;;;;;;;;;;;;0.969512;-0.32160404;-0.0738548;;;;;590.5
757.0;652.8;;;;;;;;;;;;;;;;;-13.096255;-16.758478;7.2634053;;600.2
757.0;652.8;;;;;;;;;;;;;;1.0180365;-0.35670033;-0.02252266;;;;;600.2
757.0;652.8;;;;;;;;;;;;;;;;;-12.192145;-20.149845;9.971923;;600.2
757.0;652.8;;;;;;;;;;;;;;1.0917691;-0.37702566;-0.08130131;;;;;600.2
817.0;698.1;;;;;;;;;;;;;;;;;-7.8470716;-18.627735;13.199256;;609.8
817.0;698.1;;;;;;;;;;;;;;1.150792;-0.3905759;-0.13269448;;;;;609.8
817.0;698.1;;;;;;;;;;;;;;;;;-4.50911;-14.481033;16.544847;;609.8
817.0;698.1;;;;;;;;;;;;;;1.1545763;-0.39271218;-0.14874722;;;;;609.8
817.0;698.1;;;;;;;;;;;;;;;;;-5.096591;-10.967589;19.16181;;619.5
817.0;698.1;;;;;;;;;;;;;;1.1520127;-0.38911098;-0.1424604;;;;;619.5
817.0;698.1;;;;;;;;;;;;;;;;;-5.432295;-6.5004425;20.695364;;619.5
817.0;698.1;;;;;;;;;;;;;;1.1340067;-0.36365855;-0.13995789;;;;;619.5
817.0;698.1;;;;;;;;;;;;;;;;;-2.76574;-0.82018495;21.40492;;629.1
817.0;698.1;;;;;;;;;;;;;;1.088168;-0.30854213;-0.125309;;;;;629.1
817.0;698.1;;;;;;;;;;;;;;;;;1.5831476;2.7695546;21.263771;;629.1
817.0;698.1;;;;;;;;;;;;;;1.0569781;-0.20844142;-0.09295938;;;;;629.1
817.0;705.6;;;;;;;;;;;;;;;;;4.71511;3.4714804;20.348215;;638.8
817.0;705.6;;;;;;;;;;;;;;1.0511795;-0.09698782;-0.05633717;;;;;638.8
817.0;705.6;;;;;;;;;;;;;;;;;5.5772576;3.173925;18.757439;;638.8
817.0;705.6;;;;;;;;;;;;;;1.0443434;0.013000885;-0.03051851;;;;;638.8
817.0;705.6;;;;;;;;;;;;;;;;;6.107517;1.9341105;16.777552;;648.4
817.0;705.6;;;;;;;;;;;;;;1.0494705;0.08954131;-0.03662221;;;;;648.4
817.0;705.6;;;;;;;;;;;;;;;;;8.709219;1.9722588;14.580218;;648.4
817.0;705.6;;;;;;;;;;;;;;1.0683309;0.14471877;-0.05444502;;;;;648.4
817.0;705.6;;;;;;;;;;;;;;;;;12.684256;4.379406;11.986145;;658.1
817.0;705.6;;;;;;;;;;;;;;1.0699179;0.19147313;-0.06683554;;;;;658.1
817.0;705.6;;;;;;;;;;;;;;;;;14.625996;6.366924;9.495071;;658.1
817.0;705.6;;;;;;;;;;;;;;1.0751671;0.23432112;-0.111636706;;;;;658.1
936.0;758.5;;;;;;;;;;;;;;;;;14.2941065;6.828517;7.6448865;;667.7
936.0;758.5;;;;;;;;;;;;;;1.0711997;0.2451857;-0.17401654;;;;;667.7
936.0;758.5;;;;;;;;;;;;;;;;;13.084811;4.6578875;6.904813;;667.7
936.0;758.5;;;;;;;;;;;;;;1.0796838;0.21234779;-0.2323069;;;;;667.7
936.0;758.5;;;;;;;;;;;;;;;;;11.089663;1.0948515;7.3587756;;677.4
936.0;758.5;;;;;;;;;;;;;;1.0844448;0.14264351;-0.27588734;;;;;677.4
936.0;758.5;;;;;;;;;;;;;;;;;8.659627;-2.727592;8.831293;;677.4
936.0;758.5;;;;;;;;;;;;;;1.0740074;0.021546068;-0.30018005;;;;;677.4
936.0;758.5;;;;;;;;;;;;;;;;;6.389813;-5.897702;11.1507;;687.1
936.0;758.5;;;;;;;;;;;;;;1.0473952;-0.109622486;-0.30280465;;;;;687.1
936.0;758.5;;;;;;;;;;;;;;;;;2.475814;-7.6105533;14.263588;;687.1
936.0;758.5;;;;;;;;;;;;;;1.017304;-0.23633534;-0.2540971;;;;;687.1
936.0;766.2;;;;;;;;;;;;;;;;;-2.1362956;-7.5991087;18.22718;;696.7
936.0;766.2;;;;;;;;;;;;;;0.97537154;-0.3327128;-0.20026246;;;;;696.7
936.0;766.2;;;;;;;;;;;;;;;;;-6.6492205;-6.4813685;22.827845;;696.7
936.0;766.2;;;;;;;;;;;;;;0.93868834;-0.41547897;-0.13580737;;;;;696.7
936.0;766.2;;;;;;;;;;;;;;;;;-7.694479;-6.725517;27.645954;;706.4
936.0;766.2;;;;;;;;;;;;;;0.92013305;-0.48231453;-0.12750633;;;;;706.4
936.0;766.2;;;;;;;;;;;;;;;;;-4.9401836;-7.2634053;31.941437;;706.4
936.0;766.2;;;;;;;;;;;;;;0.9191565;-0.5231483;-0.15124974;;;;;706.4
936.0;766.2;;;;;;;;;;;;;;;;;0.13733329;-5.6421094;35.405285;;716.0
936.0;766.2;;;;;;;;;;;;;;0.90591145;-0.5223548;-0.17572558;;;;;716.0
936.0;766.2;;;;;;;;;;;;;;;;;6.408887;-3.8758507;38.07947;;716.0
936.0;766.2;;;;;;;;;;;;;;0.88106936;-0.4865871;-0.16583759;;;;;716.0
937.0;818.6;;;;;;;;;;;;;;;;;13.420515;-4.2649617;39.92584;;725.6
937.0;818.6;;;;;;;;;;;;;;0.8556169;-0.42286447;-0.15295877;;;;;725.6
937.0;818.6;;;;;;;;;;;;;;;;;19.688253;-7.335887;41.489914;;725.6
937.0;818.6;;;;;;;;;;;;;;0.8511002;-0.34644613;-0.16766869;;;;;725.6
937.0;818.6;;;;;;;;;;;;;;;;;23.66329;-10.513627;42.203285;;735.2
937.0;818.6;;;;;;;;;;;;;;0.88576925;-0.28577533;-0.19177832;;;;;735.2
937.0;818.6;;;;;;;;;;;;;;;;;25.967436;-12.237923;42.012543;;735.2
937.0;818.6;;;;;;;;;;;;;;0.9618213;-0.22498246;-0.21356852;;;;;735.2
937.0;818.6;;;;;;;;;;;;;;;;;25.666067;-10.296182;41.554764;;744.9
937.0;818.6;;;;;;;;;;;;;;1.0306101;-0.17303994;-0.1939146;;;;;744.9
937.0;818.6;;;;;;;;;;;;;;;;;23.709066;-7.816553;40.761284;;744.9
937.0;818.6;;;;;;;;;;;;;;1.0873134;-0.114749596;-0.16760765;;;;;744.9
937.0;826.0;;;;;;;;;;;;;;;;;20.371105;-4.9668875;39.551987;;754.5
937.0;826.0;;;;;;;;;;;;;;1.1113621;-0.05200354;-0.15259255;;;;;754.5
937.0;826.0;;;;;;;;;;;;;;;;;15.823847;-2.994629;38.888214;;754.5
937.0;826.0;;;;;;;;;;;;;;1.1255836;-0.017578661;-0.19202246;;;;;754.5
937.0;826.0;;;;;;;;;;;;;;;;;9.952848;0.27466658;38.480026;;764.1
937.0;826.0;;;;;;;;;;;;;;1.0604571;0.006897183;-0.1727958;;;;;764.1
937.0;826.0;;;;;;;;;;;;;;;;;2.3804438;0.16403699;38.93399;;764.1
937.0;826.0;;;;;;;;;;;;;;1.0858486;-0.0044557024;-0.18683432;;;;;764.1
937.0;826.0;;;;;;;;;;;;;;;;;-5.558183;3.257851;39.92584;;773.7
937.0;826.0;;;;;;;;;;;;;;1.0473952;-0.023010956;-0.16071047;;;;;773.7
937.0;826.0;;;;;;;;;;;;;;;;;-11.9060335;6.3402205;41.21525;;773.7
937.0;826.0;;;;;;;;;;;;;;1.0145574;-0.055177465;-0.14178899;;;;;773.7
997.0;878.9;;;;;;;;;;;;;;;;;-15.293588;9.136478;42.30247;;783.4
997.0;878.9;;;;;;;;;;;;;;0.9850764;-0.0839259;-0.1307413;;;;;783.4
997.0;878.9;;;;;;;;;;;;;;;;;-17.334513;11.57033;43.04636;;783.4
997.0;878.9;;;;;;;;;;;;;;0.94174016;-0.098025456;-0.1175573;;;;;783.4
997.0;878.9;;;;;;;;;;;;;;;;;-19.38307;12.428662;43.637653;;793.0
997.0;878.9;;;;;;;;;;;;;;0.9108554;-0.102725305;-0.128605;;;;;793.0
997.0;878.9;;;;;;;;;;;;;;;;;-20.115513;11.276589;43.866543;;793.0
997.0;878.9;;;;;;;;;;;;;;0.8910794;-0.119083226;-0.17011017;;;;;793.0
997.0;878.9;;;;;;;;;;;;;;;;;-19.337292;9.861293;43.843655;;802.7
997.0;878.9;;;;;;;;;;;;;;0.8885769;-0.13690603;-0.21094394;;;;;802.7
997.0;878.9;;;;;;;;;;;;;;;;;-17.60155;9.552294;43.38969;;802.7
997.0;878.9;;;;;;;;;;;;;;0.8842433;-0.1521653;-0.23010956;;;;;802.7
997.0;893.5;;;;;;;;;;;;;;;;;-16.056551;9.861293;42.630543;;812.3
997.0;893.5;;;;;;;;;;;;;;0.8779565;-0.16168706;-0.2191229;;;;;812.3
997.0;893.5;;;;;;;;;;;;;;;;;-15.099032;9.643849;41.329693;;812.3
997.0;893.5;;;;;;;;;;;;;;0.8805811;-0.16510513;-0.1975158;;;;;812.3
997.0;893.5;;;;;;;;;;;;;;;;;-15.888699;8.587145;39.712208;;821.9
997.0;893.5;;;;;;;;;;;;;;0.8829615;-0.164861;-0.17316203;;;;;821.9
997.0;893.5;;;;;;;;;;;;;;;;;-19.222847;6.344035;38.098545;;821.9
997.0;893.5;;;;;;;;;;;;;;0.8943144;-0.1779229;-0.18176824;;;;;821.9
997.0;893.5;;;;;;;;;;;;;;;;;-21.477402;4.8219247;36.34373;;831.6
997.0;893.5;;;;;;;;;;;;;;0.91763055;-0.1909238;-0.20355846;;;;;831.6
997.0;893.5;;;;;;;;;;;;;;;;;-20.554216;4.791406;34.581284;;831.6
997.0;893.5;;;;;;;;;;;;;;0.93111974;-0.19318217;-0.20874661;;;;;831.6
1058.0;939.3;;;;;;;;;;;;;;;;;-17.540512;4.7875915;33.124027;;841.3
1058.0;939.3;;;;;;;;;;;;;;0.9353923;-0.19525743;-0.22443312;;;;;841.3
1058.0;939.3;;;;;;;;;;;;;;;;;-13.973662;4.615925;31.96051;;841.3
1058.0;939.3;;;;;;;;;;;;;;0.92568743;-0.21228676;-0.23877682;;;;;841.3
1058.0;939.3;;;;;;;;;;;;;;;;;-9.788812;3.540147;30.91525;;851.0
1058.0;939.3;;;;;;;;;;;;;;0.9177526;-0.22779016;-0.25318155;;;;;851.0
1058.0;939.3;;;;;;;;;;;;;;;;;-5.1461835;1.6327403;30.217138;;851.0
1058.0;939.3;;;;;;;;;;;;;;0.9110385;-0.24665059;-0.26105532;;;;;851.0
1058.0;939.3;;;;;;;;;;;;;;;;;-1.0605181;0.21362957;29.854733;;860.6
1058.0;939.3;;;;;;;;;;;;;;0.91488385;-0.2614826;-0.24115726;;;;;860.6
1058.0;939.3;;;;;;;;;;;;;;;;;1.4877774;-0.7248146;29.728844;;860.6
1058.0;939.3;;;;;;;;;;;;;;0.92104864;-0.26880702;-0.21375164;;;;;860.6
1058.0;940.1;;;;;;;;;;;;;;;;;2.5902586;-1.22837;29.747917;;870.3
1058.0;940.1;;;;;;;;;;;;;;0.92245245;-0.2677694;-0.21393475;;;;;870.3
1058.0;940.1;;;;;;;;;;;;;;;;;4.0665917;-2.0409255;29.79751;;870.3
1058.0;940.1;;;;;;;;;;;;;;0.9247108;-0.2525712;-0.23664053;;;;;870.3
1058.0;940.1;;;;;;;;;;;;;;;;;6.214331;-2.7924435;29.934843;;879.9
1058.0;940.1;;;;;;;;;;;;;;0.9305093;-0.23096408;-0.26038393;;;;;879.9
1058.0;940.1;;;;;;;;;;;;;;;;;7.4465165;-2.8572955;30.007324;;879.9
1058.0;940.1;;;;;;;;;;;;;;0.9265419;-0.20722067;-0.25342572;;;;;879.9
1058.0;940.1;;;;;;;;;;;;;;;;;6.515702;-3.7423322;29.896696;;889.6
1058.0;940.1;;;;;;;;;;;;;;0.9280068;-0.18518631;-0.24317148;;;;;889.6
1058.0;940.1;;;;;;;;;;;;;;;;;4.734184;-4.81811;29.896696;;889.6
1058.0;940.1;;;;;;;;;;;;;;0.9355754;-0.1734672;-0.2451857;;;;;889.6
1118.0;999.7;;;;;;;;;;;;;;;;;3.5477767;-5.2148504;29.927214;;899.3
1118.0;999.7;;;;;;;;;;;;;;0.9394818;-0.1678518;-0.25202185;;;;;899.3
1118.0;999.7;;;;;;;;;;;;;;;;;3.0709252;-4.6388135;30.117952;;899.3
1118.0;999.7;;;;;;;;;;;;;;0.93954283;-0.17236854;-0.25800347;;;;;899.3
1118.0;999.7;;;;;;;;;;;;;;;;;3.1357768;-3.4676657;30.190435;;908.8
1118.0;999.7;;;;;;;;;;;;;;0.93093663;-0.17383343;-0.25153357;;;;;908.8
1118.0;999.7;;;;;;;;;;;;;;;;;3.0899992;-2.9030733;30.007324;;908.8
1118.0;999.7;;;;;;;;;;;;;;0.916776;-0.16345714;-0.25434124;;;;;908.8
1118.0;999.7;;;;;;;;;;;;;;;;;2.498703;-2.4719992;30.148472;;918.5
1118.0;999.7;;;;;;;;;;;;;;0.9081698;-0.16937773;-0.27362895;;;;;918.5
1118.0;999.7;;;;;;;;;;;;;;;;;0.11825922;-0.96133304;30.30488;;918.5
1118.0;999.7;;;;;;;;;;;;;;0.90572834;-0.16925566;-0.25830868;;;;;918.5
1118.0;1000.5;;;;;;;;;;;;;;;;;-4.0704064;0.8659627;30.228582;;928.2
1118.0;1000.5;;;;;;;;;;;;;;0.9020051;-0.17200232;-0.23187964;;;;;928.2
1118.0;1000.5;;;;;;;;;;;;;;;;;-7.477035;0.35477766;30.148472;;928.2
1118.0;1000.5;;;;;;;;;;;;;;0.91042817;-0.1694998;-0.23554185;;;;;928.2
1118.0;1000.5;;;;;;;;;;;;;;;;;-9.594256;-0.41199988;30.190435;;937.9
1118.0;1000.5;;;;;;;;;;;;;;0.9289224;-0.17242958;-0.24439223;;;;;937.9
1118.0;1000.5;;;;;;;;;;;;;;;;;-10.177923;-0.04196295;30.39262;;937.9
1118.0;1000.5;;;;;;;;;;;;;;0.9428999;-0.16736351;-0.24701682;;;;;937.9
1118.0;1000.5;;;;;;;;;;;;;;;;;-10.010071;0.9537034;30.541397;;947.5
1118.0;1000.5;;;;;;;;;;;;;;0.9502854;-0.16418958;-0.2496414;;;;;947.5
1118.0;1000.5;;;;;;;;;;;;;;;;;-9.537035;1.5907773;31.014435;;947.5
1118.0;1000.5;;;;;;;;;;;;;;0.95095676;-0.16644795;-0.25678274;;;;;947.5
1180.0;1060.5;;;;;;;;;;;;;;;;;-10.0177;1.8463699;31.743065;;957.2
1180.0;1060.5;;;;;;;;;;;;;;0.9479049;-0.1744438;-0.2595294;;;;;957.2
1180.0;1060.5;;;;;;;;;;;;;;;;;-11.474959;1.9837031;32.68151;;957.2
1180.0;1060.5;;;;;;;;;;;;;;0.94582963;-0.18402661;-0.25238806;;;;;957.2
1180.0;1060.5;;;;;;;;;;;;;;;;;-13.058107;2.475814;33.532215;;966.8
1180.0;1060.5;;;;;;;;;;;;;;0.95016325;-0.18707846;-0.242378;;;;;966.8
1180.0;1060.5;;;;;;;;;;;;;;;;;-14.324625;3.3150733;34.3791;;966.8
1180.0;1060.5;;;;;;;;;;;;;;0.9468673;-0.1920835;-0.23249;;;;;966.8
1180.0;1060.5;;;;;;;;;;;;;;;;;-15.472884;3.7156286;35.222176;;976.4
1180.0;1060.5;;;;;;;;;;;;;;0.93954283;-0.19287698;-0.21887875;;;;;976.4
1180.0;1060.5;;;;;;;;;;;;;;;;;-17.715994;3.604999;36.267433;;976.4
1180.0;1060.5;;;;;;;;;;;;;;0.9389325;-0.20068972;-0.19922483;;;;;976.4
1180.0;1061.3;;;;;;;;;;;;;;;;;-20.348215;3.0137029;36.885433;;986.1
1180.0;1061.3;;;;;;;;;;;;;;0.9401532;-0.1998352;-0.1980041;;;;;986.1
1180.0;1061.3;;;;;;;;;;;;;;;;;-22.019106;3.3417768;37.35084;;986.1
1180.0;1061.3;;;;;;;;;;;;;;0.943083;-0.20770897;-0.19550157;;;;;986.1
1180.0;1061.3;;;;;;;;;;;;;;;;;-22.045809;3.688925;37.751396;;995.8
1180.0;1061.3;;;;;;;;;;;;;;0.9439985;-0.21454512;-0.21057771;;;;;995.8
1180.0;1061.3;;;;;;;;;;;;;;;;;-21.038698;4.650258;38.235878;;995.8
1180.0;1061.3;;;;;;;;;;;;;;0.9399701;-0.21179846;-0.21686453;;;;;995.8
1180.0;1061.3;;;;;;;;;;;;;;;;;-19.707327;5.4399247;38.769955;;1005.4
1180.0;1061.3;;;;;;;;;;;;;;0.92623675;-0.20954008;-0.21430098;;;;;1005.4
1180.0;1061.3;;;;;;;;;;;;;;;;;-18.990143;5.455184;39.220097;;1005.4
1180.0;1061.3;;;;;;;;;;;;;;0.9144566;-0.20764793;-0.20410779;;;;;1005.4
1182.0;1120.4;;;;;;;;;;;;;;;;;-19.539474;4.2878504;39.922024;;1015.1
1182.0;1120.4;;;;;;;;;;;;;;0.9006012;-0.20905179;-0.17835017;;;;;1015.1
1182.0;1120.4;;;;;;;;;;;;;;;;;-20.9624;1.9379253;40.63921;;1015.1
1182.0;1120.4;;;;;;;;;;;;;;0.9067049;-0.23731193;-0.1518601;;;;;1015.1
1182.0;1120.4;;;;;;;;;;;;;;;;;-21.088291;0.37003693;40.62395;;1024.7
1182.0;1120.4;;;;;;;;;;;;;;0.92049927;-0.24079104;-0.16290781;;;;;1024.7
1182.0;1120.4;;;;;;;;;;;;;;;;;-19.589067;-0.045777764;40.57817;;1024.7
1182.0;1120.4;;;;;;;;;;;;;;0.93099767;-0.24658956;-0.18964201;;;;;1024.7
1182.0;1120.4;;;;;;;;;;;;;;;;;-17.353586;0.6714072;40.635395;;1034.2
1182.0;1120.4;;;;;;;;;;;;;;0.93758965;-0.2482986;-0.21723075;;;;;1034.2
1182.0;1120.4;;;;;;;;;;;;;;;;;-15.55681;1.4496292;40.64684;;1034.2
1182.0;1120.4;;;;;;;;;;;;;;0.93166906;-0.24231696;-0.22614215;;;;;1034.2
1182.0;1121.3;;;;;;;;;;;;;;;;;-14.530625;1.0261849;40.83758;;1043.9
1182.0;1121.3;;;;;;;;;;;;;;0.921659;-0.23529771;-0.22370067;;;;;1043.9
1182.0;1121.3;;;;;;;;;;;;;;;;;-14.084292;-0.057222206;40.9711;;1043.9
1182.0;1121.3;;;;;;;;;;;;;;0.92287976;-0.23468734;-0.21967223;;;;;1043.9
1182.0;1121.3;;;;;;;;;;;;;;;;;-13.492996;-0.8888516;41.24195;;1053.5
1182.0;1121.3;;;;;;;;;;;;;;0.9241615;-0.23651844;-0.20557268;;;;;1053.5
1182.0;1121.3;;;;;;;;;;;;;;;;;-12.516403;-1.6518143;41.24195;;1053.5
1182.0;1121.3;;;;;;;;;;;;;;0.92141485;-0.23566394;-0.19623402;;;;;1053.5
1182.0;1121.3;;;;;;;;;;;;;;;;;-11.051516;-3.2082584;40.906246;;1063.1
1182.0;1121.3;;;;;;;;;;;;;;0.92715234;-0.22479934;-0.20087282;;;;;1063.1
1182.0;1121.3;;;;;;;;;;;;;;;;;-9.3577385;-4.570147;40.311134;;1063.1
1182.0;1121.3;;;;;;;;;;;;;;0.9369793;-0.20532854;-0.21198156;;;;;1063.1
1237.0;1129.5;;;;0.0;0.0;0.0;;;;;;;;;;;;;;;
1237.0;1129.5;;;;-0.088932045;0.32820895;0.07084275;;;;;;;;;;;;;;;
1237.0;1129.5;;;;-0.21479037;0.8880731;0.07767106;;;;;;;;;;;;;;;
1237.0;1129.5;;;;-0.21651843;0.9005815;0.062706;;;;;;;;;;;;;;;
1237.0;1129.5;;;;-0.21677402;0.9011117;0.06166459;;;;;;;;;;;;;;;
1237.0;1139.5;;;;-0.21622851;0.901703;0.060798652;;;;;;;;;;;;;;;
1237.0;1139.5;;;;-0.2157822;0.902424;0.060737617;;;;;;;;;;;;;;;
1237.0;1139.5;;;;-0.21523288;0.903412;0.060543068;;;;;;;;;;;;;;;
1237.0;1139.5;;;;-0.21459964;0.90464413;0.06102372;;;;;;;;;;;;;;;
1237.0;1139.5;;;;-0.21421817;0.90579236;0.061214454;;;;;;;;;;;;;;;
1237.0;1140.5;57495;57539;12529;;;;;;;;;;;;;;;;;;
1237.0;1149.4;;;;-0.2136803;0.90773785;0.061866768;;;;;;;;;;;;;;;
1237.0;1149.4;;;;-0.21315005;0.9098779;0.062240608;;;;;;;;;;;;;;;
1237.0;1149.4;;;;-0.2125397;0.91199124;0.06175614;;;;;;;;;;;;;;;
1237.0;1149.4;;;;-0.21187595;0.91440594;0.061370857;;;;;;;;;;;;;;;
1237.0;1149.4;;;;-0.21123889;0.9164392;0.06165696;;;;;;;;;;;;;;;
1238.0;1159.5;;;;-0.21057513;0.918892;0.0620308;;;;;;;;;;;;;;;
1238.0;1159.5;;;;-0.20946887;0.9215356;0.062068947;;;;;;;;;;;;;;;
1238.0;1159.5;;;;-0.2083855;0.923668;0.06267548;;;;;;;;;;;;;;;
1238.0;1159.5;;;;-0.20777896;0.92569745;0.06365586;;;;;;;;;;;;;;;
1238.0;1159.5;;;;-0.20685199;0.9277116;0.064537056;;;;;;;;;;;;;;;
1238.0;1160.5;73890;73827;12524;;;;;;;;;;;;;;;;;;
1238.0;1166.7;;;;;;;;;;;;;0;;;;;;;;
1238.0;1166.7;;;;;;;;;;;;;0;;;;;;;;
1238.0;1166.7;;;;;;;;;;;;;-1;;;;;;;;
1238.0;1166.7;;;;;;;;;;;;;-3;;;;;;;;
1238.0;1166.7;;;;;;;;;;;;;-4;;;;;;;;
1238.0;1169.6;;;;-0.20620349;0.92940533;0.06526948;;;;;;;;;;;;;;;
1238.0;1169.6;;;;-0.20520404;0.93076336;0.06655503;;;;;;;;;;;;;;;
1238.0;1169.6;;;;-0.20432284;0.9319078;0.06739808;;;;;;;;;;;;;;;
1238.0;1169.6;;;;-0.2027817;0.9329759;0.067768104;;;;;;;;;;;;;;;
1238.0;1169.6;;;;-0.2011185;0.93416226;0.068676;;;;;;;;;;;;;;;
1238.0;1179.7;;;;-0.19952014;0.93457806;0.06950761;;;;;;;;;;;;;;;
1238.0;1179.7;;;;-0.19792941;0.9353677;0.07070161;;;;;;;;;;;;;;;
1238.0;1179.7;;;;-0.19620135;0.9354936;0.07151795;;;;;;;;;;;;;;;
1238.0;1179.7;;;;-0.19398502;0.9361001;0.07250214;;;;;;;;;;;;;;;
1238.0;1179.7;;;;-0.19215396;0.9367486;0.073356636;;;;;;;;;;;;;;;
1239.0;1181.1;;;;;;;;;;;;;;;;;-7.6715903;-4.936369;39.361244;;1072.8
1239.0;1181.1;;;;;;;;;;;;;;0.944731;-0.1854915;-0.2224189;;;;;1072.8
1239.0;1181.1;;;;;;;;;;;;;;;;;-5.710776;-4.4442577;37.987915;;1072.8
1239.0;1181.1;;;;;;;;;;;;;;0.9438154;-0.16693625;-0.24433118;;;;;1072.8
1239.0;1181.1;;;;;;;;;;;;;;;;;-4.711295;-2.784814;36.393322;;1082.3
1239.0;1181.1;;;;;;;;;;;;;;0.93215734;-0.14203314;-0.25464645;;;;;1082.3
1239.0;1181.1;;;;;;;;;;;;;;;;;-5.672628;-1.6861477;34.424877;;1082.3
1239.0;1181.1;;;;;;;;;;;;;;0.9326457;-0.110415965;-0.2682577;;;;;1082.3
1239.0;1181.1;;;;;;;;;;;;;;;;;-6.076998;0.20599994;32.23899;;1091.9
1239.0;1181.1;;;;;;;;;;;;;;0.93758965;-0.091921754;-0.25666067;;;;;1091.9
1239.0;1181.1;;;;;;;;;;;;;;;;;-3.1434064;2.1248512;29.557177;;1091.9
1239.0;1181.1;;;;;;;;;;;;;;0.94204533;-0.06378368;-0.23151341;;;;;1091.9
1239.0;1180.8;90255;90250;12531;;;;;;;;;;;;;;;;;;
1240.0;1188.0;;;;;;;;;;;;;;;;;1.7586291;2.845851;27.081364;;1101.6
1240.0;1188.0;;;;;;;;;;;;;;0.94320506;-0.039246805;-0.23786126;;;;;1101.6
1240.0;1188.0;;;;;;;;;;;;;;;;;4.8791466;3.3761103;25.093843;;1101.6
1240.0;1188.0;;;;;;;;;;;;;;0.9441206;-0.023377178;-0.20868556;;;;;1101.6
1240.0;1188.0;;;;;;;;;;;;;;;;;4.7265544;2.4605548;23.461103;;1111.3
1240.0;1188.0;;;;;;;;;;;;;;0.9450362;-0.021668142;-0.14557329;;;;;1111.3
1240.0;1188.0;;;;;;;;;;;;;;;;;4.467147;-0.5264443;21.710106;;1111.3
1240.0;1188.0;;;;;;;;;;;;;;0.96713156;-0.030457472;-0.14508499;;;;;1111.3
1240.0;1188.0;;;;;;;;;;;;;;;;;5.4399247;-1.6518143;19.783623;;1120.9
1240.0;1188.0;;;;;;;;;;;;;;0.98586994;-0.034974214;-0.15155491;;;;;1120.9
1240.0;1188.0;;;;;;;;;;;;;;;;;6.0312204;-1.8082217;17.986847;;1120.9
1240.0;1188.0;;;;;;;;;;;;;;0.9930723;-0.038453322;-0.17596972;;;;;1120.9
1240.0;1189.5;;;;-0.1905022;0.93756497;0.073696144;;;;;;;;;;;;;;;
1240.0;1189.5;;;;-0.18839648;0.9381906;0.07422257;;;;;;;;;;;;;;;
1240.0;1189.5;;;;-0.18702318;0.93932354;0.07528306;;;;;;;;;;;;;;;
1240.0;1189.5;;;;-0.18532564;0.9401094;0.07656098;;;;;;;;;;;;;;;
1240.0;1189.5;;;;-0.18375398;0.9410516;0.0776558;;;;;;;;;;;;;;;
1240.0;1199.5;;;;-0.18241884;0.9420091;0.07855225;;;;;;;;;;;;;;;
1240.0;1199.5;;;;-0.18130495;0.94329846;0.07937623;;;;;;;;;;;;;;;
1240.0;1199.5;;;;-0.18018343;0.94417965;0.080616005;;;;;;;;;;;;;;;
1240.0;1199.5;;;;-0.17944337;0.94492733;0.08192063;;;;;;;;;;;;;;;
1240.0;1199.5;;;;-0.1789055;0.94599926;0.08316804;;;;;;;;;;;;;;;
1240.0;1200.7;106619;106612;12532;;;;;;;;;;;;;;;;;;
1297.0;1206.7;;;;;;;;;;;;;-1;;;;;;;;
1297.0;1206.7;;;;;;;;;;;;;-15;;;;;;;;
1297.0;1206.7;;;;;;;;;;;;;-18;;;;;;;;
1297.0;1206.7;;;;;;;;;;;;;19;;;;;;;;
1297.0;1206.7;;;;;;;;;;;;;-24;;;;;;;;
1297.0;1209.5;;;;-0.17832567;0.9461366;0.085018165;;;;;;;;;;;;;;;
1297.0;1209.5;;;;-0.17787935;0.946293;0.087226875;;;;;;;;;;;;;;;
1297.0;1209.5;;;;-0.17744447;0.9460603;0.08971024;;;;;;;;;;;;;;;
1297.0;1209.5;;;;-0.17714311;0.94596875;0.09178162;;;;;;;;;;;;;;;
1297.0;1209.5;;;;-0.17683412;0.94542325;0.09389497;;;;;;;;;;;;;;;
1297.0;1219.5;;;;-0.17631532;0.9441148;0.09675218;;;;;;;;;;;;;;;
1297.0;1219.5;;;;-0.17557909;0.9427644;0.09913637;;;;;;;;;;;;;;;
1297.0;1219.5;;;;-0.17496492;0.94108975;0.10132982;;;;;;;;;;;;;;;
1297.0;1219.5;;;;-0.17418672;0.93948376;0.10340883;;;;;;;;;;;;;;;
1297.0;1219.5;;;;-0.17324068;0.9370729;0.10547258;;;;;;;;;;;;;;;
1297.0;1220.7;123003;123032;12536;;;;;;;;;;;;;;;;;;
1297.0;1229.6;;;;-0.1728058;0.93480694;0.108490005;;;;;;;;;;;;;;;
1297.0;1229.6;;;;-0.17247011;0.9322854;0.11106874;;;;;;;;;;;;;;;
1297.0;1229.6;;;;-0.17190553;0.9295541;0.11283876;;;;;;;;;;;;;;;
1297.0;1229.6;;;;-0.17139818;0.92702115;0.114101425;;;;;;;;;;;;;;;
1297.0;1229.6;;;;-0.17048647;0.924492;0.115661636;;;;;;;;;;;;;;;
1300.0;1239.7;;;;-0.16996385;0.92252743;0.116748825;;;;;;;;;;;;;;;
1300.0;1239.7;;;;-0.16941454;0.9201051;0.11778261;;;;;;;;;;;;;;;
1300.0;1239.7;;;;-0.16879274;0.9181634;0.118713394;;;;;;;;;;;;;;;
1300.0;1239.7;;;;-0.1685219;0.9161798;0.11888887;;;;;;;;;;;;;;;
1300.0;1239.7;;;;-0.16822435;0.91373837;0.118949905;;;;;;;;;;;;;;;
1300.0;1240.9;;;;;;;;;;;;;;;;;6.9963684;-1.8196661;16.502884;;1130.6
1300.0;1240.9;;;;;;;;;;;;;;1.0003357;-0.042909026;-0.21845149;;;;;1130.6
1300.0;1240.9;;;;;;;;;;;;;;;;;8.873257;-1.4648885;15.457625;;1130.6
1300.0;1240.9;;;;;;;;;;;;;;0.99105805;-0.04626606;-0.25348675;;;;;1130.6
1300.0;1240.9;;;;;;;;;;;;;;;;;10.074923;-1.5335552;14.969329;;1140.2
1300.0;1240.9;;;;;;;;;;;;;;0.97720265;-0.04956206;-0.26422927;;;;;1140.2
1300.0;1240.9;;;;;;;;;;;;;;;;;9.437849;-1.7700735;14.595477;;1140.2
1300.0;1240.9;;;;;;;;;;;;;;0.95974606;-0.051698357;-0.2667928;;;;;1140.2
1300.0;1240.9;;;;;;;;;;;;;;;;;7.354961;-1.8616291;14.32081;;1149.8
1300.0;1240.9;;;;;;;;;;;;;;0.94680625;-0.05487228;-0.258858;;;;;1149.8
1300.0;1240.9;;;;;;;;;;;;;;;;;4.5777764;-1.8120365;14.259773;;1149.8
1300.0;1240.9;;;;;;;;;;;;;;0.9404584;-0.05938902;-0.25348675;;;;;1149.8
1302.0;1241.7;;;;;;;;;;;;;;;;;2.189703;-1.2436292;14.419996;;1159.5
1302.0;1241.7;;;;;;;;;;;;;;0.931608;-0.06378368;-0.25251016;;;;;1159.5
1302.0;1241.7;;;;;;;;;;;;;;;;;0.15640736;-0.614185;14.500107;;1159.5
1302.0;1241.7;;;;;;;;;;;;;;0.91885126;-0.065858945;-0.25067905;;;;;1159.5
1302.0;1241.7;;;;;;;;;;;;;;;;;-2.8725548;-0.057222206;14.866329;;1169.2
1302.0;1241.7;;;;;;;;;;;;;;0.9140904;-0.07562487;-0.22547075;;;;;1169.2
1302.0;1241.7;;;;;;;;;;;;;;;;;-6.538591;-0.12970367;15.213477;;1169.2
1302.0;1241.7;;;;;;;;;;;;;;0.90896326;-0.08545183;-0.20044558;;;;;1169.2
1302.0;1241.7;;;;;;;;;;;;;;;;;-8.976256;-1.5984069;15.552996;;1178.8
1302.0;1241.7;;;;;;;;;;;;;;0.91531116;-0.0999176;-0.19244972;;;;;1178.8
1302.0;1241.7;;;;;;;;;;;;;;;;;-10.54796;-2.8420362;16.243477;;1178.8
1302.0;1241.7;;;;;;;;;;;;;;0.9259926;-0.115848266;-0.1953795;;;;;1178.8
1302.0;1240.9;139461;139425;12536;;;;;;;;;;;;;;;;;;
1302.0;1246.9;;;;;;;;;;;;;63;;;;;;;;
1302.0;1246.9;;;;;;;;;;;;;22;;;;;;;;
1302.0;1246.9;;;;;;;;;;;;;-77;;;;;;;;
1302.0;1246.9;;;;;;;;;;;;;415;;;;;;;;
1302.0;1246.9;;;;;;;;;;;;;-248;;;;;;;;
1302.0;1249.7;;;;-0.16838075;0.91165173;0.11908342;;;;;;;;;;;;;;;
1302.0;1249.7;;;;-0.16801836;0.9099542;0.11962892;;;;;;;;;;;;;;;
1302.0;1249.7;;;;-0.16807939;0.90739834;0.1195717;;;;;;;;;;;;;;;
1302.0;1249.7;;;;-0.16816713;0.9056779;0.11952974;;;;;;;;;;;;;;;
1302.0;1249.7;;;;-0.16753389;0.90353787;0.11931993;;;;;;;;;;;;;;;
1356.0;1259.7;;;;-0.1675873;0.9015924;0.118705764;;;;;;;;;;;;;;;
1356.0;1259.7;;;;-0.16739275;0.9001237;0.11867143;;;;;;;;;;;;;;;
1356.0;1259.7;;;;-0.1672783;0.8982698;0.11848833;;;;;;;;;;;;;;;
1356.0;1259.7;;;;-0.16677476;0.8964845;0.118396774;;;;;;;;;;;;;;;
1356.0;1259.7;;;;-0.16644289;0.89530957;0.11861421;;;;;;;;;;;;;;;
1356.0;1261.0;155793;155822;12541;;;;;;;;;;;;;;;;;;
1356.0;1269.6;;;;-0.16629793;0.89379895;0.11855699;;;;;;;;;;;;;;;
1356.0;1269.6;;;;-0.16604997;0.8927423;0.11869432;;;;;;;;;;;;;;;
1356.0;1269.6;;;;-0.16560747;0.8918649;0.118965164;;;;;;;;;;;;;;;
1356.0;1269.6;;;;-0.1654854;0.89086163;0.11872865;;;;;;;;;;;;;;;
1356.0;1269.6;;;;-0.16500475;0.8906404;0.11856462;;;;;;;;;;;;;;;
1356.0;1279.8;;;;-0.16503145;0.89029706;0.119007125;;;;;;;;;;;;;;;
1356.0;1279.8;;;;-0.16528322;0.8895837;0.11877824;;;;;;;;;;;;;;;
1356.0;1279.8;;;;-0.16568758;0.888939;0.11880113;;;;;;;;;;;;;;;
1356.0;1279.8;;;;-0.16571046;0.88853467;0.119079605;;;;;;;;;;;;;;;
1356.0;1279.8;;;;-0.16623308;0.888096;0.11903764;;;;;;;;;;;;;;;
1356.0;1281.2;172216;172167;12540;;;;;;;;;;;;;;;;;;
1356.0;1287.3;;;;;;;;;;;;;-1345;;;;;;;;
1356.0;1287.3;;;;;;;;;;;;;646;;;;;;;;
1356.0;1287.3;;;;;;;;;;;;;2783;;;;;;;;
1356.0;1287.3;;;;;;;;;;;;;-2106;;;;;;;;
1356.0;1287.3;;;;;;;;;;;;;-15390;;;;;;;;
1359.0;1289.9;;;;-0.16637422;0.88837445;0.11991502;;;;;;;;;;;;;;;
1359.0;1289.9;;;;-0.16624452;0.8889581;0.12055208;;;;;;;;;;;;;;;
1359.0;1289.9;;;;-0.16628267;0.8891946;0.1210518;;;;;;;;;;;;;;;
1359.0;1289.9;;;;-0.16678621;0.88993466;0.12160112;;;;;;;;;;;;;;;
1359.0;1289.9;;;;-0.16669084;0.8913499;0.12160875;;;;;;;;;;;;;;;
1359.0;1300.0;;;;-0.16694261;0.8928567;0.122238174;;;;;;;;;;;;;;;
1359.0;1300.0;;;;-0.16690828;0.8947412;0.122669235;;;;;;;;;;;;;;;
1359.0;1300.0;;;;-0.16651537;0.89678967;0.12196733;;;;;;;;;;;;;;;
1359.0;1300.0;;;;-0.16666414;0.8998872;0.1219597;;;;;;;;;;;;;;;
1359.0;1300.0;;;;-0.16656877;0.902382;0.122417465;;;;;;;;;;;;;;;
1359.0;1301.4;188575;188534;12555;;;;;;;;;;;;;;;;;;
1359.0;1308.9;;;;;;;;;;;;;;;;;-12.657552;-2.5139623;17.300179;;1188.5
1359.0;1308.9;;;;;;;;;;;;;;0.9353313;-0.13794367;-0.19244972;;;;;1188.5
1359.0;1308.9;;;;;;;;;;;;;;;;;-15.881069;-1.2703329;18.64681;;1188.5
1359.0;1308.9;;;;;;;;;;;;;;0.94100773;-0.1523484;-0.18262276;;;;;1188.5
1359.0;1308.9;;;;;;;;;;;;;;;;;-20.378735;-0.9575182;20.126957;;1198.1
1359.0;1308.9;;;;;;;;;;;;;;0.9446089;-0.159917;-0.17682424;;;;;1198.1
1359.0;1308.9;;;;;;;;;;;;;;;;;-25.593584;-1.289407;21.671957;;1198.1
1359.0;1308.9;;;;;;;;;;;;;;0.9455855;-0.15668203;-0.18305002;;;;;1198.1
1359.0;1308.9;;;;;;;;;;;;;;;;;-30.377361;-2.029481;23.110142;;1207.8
1359.0;1308.9;;;;;;;;;;;;;;0.94949186;-0.15057832;-0.19690542;;;;;1207.8
1359.0;1308.9;;;;;;;;;;;;;;;;;-33.92895;-2.906888;24.304178;;1207.8
1359.0;1308.9;;;;;;;;;;;;;;0.94051945;-0.13415937;-0.21753594;;;;;1207.8
1360.0;1310.1;;;;;;;;;;;;;;;;;-36.29032;-3.4257026;25.456251;;1217.5
1360.0;1310.1;;;;;;;;;;;;;;0.93331707;-0.12213507;-0.23035371;;;;;1217.5
1360.0;1310.1;;;;;;;;;;;;;;;;;-36.820583;-2.948851;26.379436;;1217.5
1360.0;1310.1;;;;;;;;;;;;;;0.9234901;-0.12005982;-0.23194067;;;;;1217.5
1360.0;1310.1;;;;;;;;;;;;;;;;;-36.091953;-2.399518;26.615955;;1227.2
1360.0;1310.1;;;;;;;;;;;;;;0.9090243;-0.120670184;-0.24127933;;;;;1227.2
1360.0;1310.1;;;;;;;;;;;;;;;;;-32.67388;-2.7619252;26.81051;;1227.2
1360.0;1310.1;;;;;;;;;;;;;;0.893582;-0.12445448;-0.28278452;;;;;1227.2
1360.0;1310.1;;;;;;;;;;;;;;;;;-29.896696;-2.2965178;27.188177;;1236.9
1360.0;1310.1;;;;;;;;;;;;;;0.89767146;-0.14282663;-0.2804651;;;;;1236.9
1360.0;1310.1;;;;;;;;;;;;;;;;;-27.005066;-0.22125919;26.718956;;1236.9
1360.0;1310.1;;;;;;;;;;;;;;0.88845485;-0.15833002;-0.27246925;;;;;1236.9
1360.0;1309.9;;;;-0.16629793;0.9053575;0.122783676;;;;;;;;;;;;;;;
1360.0;1309.9;;;;-0.16581728;0.9085351;0.122734085;;;;;;;;;;;;;;;
1360.0;1309.9;;;;-0.16610338;0.9118997;0.12344743;;;;;;;;;;;;;;;
1360.0;1309.9;;;;-0.16554262;0.9154855;0.12377931;;;;;;;;;;;;;;;
1360.0;1309.9;;;;-0.16487505;0.91874707;0.12429048;;;;;;;;;;;;;;;
1416.0;1316.2;;;;;;;;;;;;;;;;;-22.980438;0.51499987;25.66225;;1246.6
1416.0;1316.2;;;;;;;;;;;;;;0.87728506;-0.1640675;-0.28266242;;;;;1246.6
1416.0;1316.2;;;;;;;;;;;;;;;;;-20.687735;0.98422194;24.70092;;1246.6
1416.0;1316.2;;;;;;;;;;;;;;0.8798486;-0.17603077;-0.2865688;;;;;1246.6
1416.0;1316.2;;;;;;;;;;;;;;;;;-18.799402;2.6245918;23.583178;;1256.3
1416.0;1316.2;;;;;;;;;;;;;;0.87545395;-0.18787195;-0.27875605;;;;;1256.3
1416.0;1316.2;;;;;;;;;;;;;;;;;-17.525253;3.1281471;21.91992;;1256.3
1416.0;1316.2;;;;;;;;;;;;;;0.8746605;-0.19031343;-0.2924894;;;;;1256.3
1416.0;1316.2;;;;;;;;;;;;;;;;;-16.708885;2.76574;20.07355;;1266.0
1416.0;1316.2;;;;;;;;;;;;;;0.8764306;-0.17859432;-0.3200171;;;;;1266.0
1416.0;1316.2;;;;;;;;;;;;;;;;;-15.900145;2.3194067;18.177588;;1266.0
1416.0;1316.2;;;;;;;;;;;;;;0.8760033;-0.16302988;-0.33674124;;;;;1266.0
1416.0;1319.8;;;;-0.1641884;0.92243207;0.12510301;;;;;;;;;;;;;;;
1416.0;1319.8;;;;-0.16342928;0.9254533;0.1252022;;;;;;;;;;;;;;;
1416.0;1319.8;;;;-0.16322328;0.9290925;0.12589647;;;;;;;;;;;;;;;
1416.0;1319.8;;;;-0.16252519;0.9328424;0.12713625;;;;;;;;;;;;;;;
1416.0;1319.8;;;;-0.16160585;0.93608105;0.12855531;;;;;;;;;;;;;;;
1416.0;1321.2;204890;204973;12548;;;;;;;;;;;;;;;;;;
1416.0;1327.2;;;;;;;;;;;;;-28676;;;;;;;;
1416.0;1327.2;;;;;;;;;;;;;-33099;;;;;;;;
1416.0;1327.2;;;;;;;;;;;;;-29660;;;;;;;;
1416.0;1327.2;;;;;;;;;;;;;-25999;;;;;;;;
1416.0;1327.2;;;;;;;;;;;;;-25971;;;;;;;;
1418.0;1329.7;;;;-0.16115572;0.93953717;0.12944795;;;;;;;;;;;;;;;
1418.0;1329.7;;;;-0.1601143;0.94311917;0.13136293;;;;;;;;;;;;;;;
1418.0;1329.7;;;;-0.15901186;0.94661343;0.1333008;;;;;;;;;;;;;;;
1418.0;1329.7;;;;-0.15805818;0.9494363;0.13562013;;;;;;;;;;;;;;;
1418.0;1329.7;;;;-0.15692903;0.9518434;0.13748552;;;;;;;;;;;;;;;
1418.0;1339.6;;;;-0.15617372;0.95445645;0.14012529;;;;;;;;;;;;;;;
1418.0;1339.6;;;;-0.15523149;0.9566575;0.14188386;;;;;;;;;;;;;;;
1418.0;1339.6;;;;-0.15410997;0.9581758;0.14354707;;;;;;;;;;;;;;;
1418.0;1339.6;;;;-0.153183;0.9602777;0.14458849;;;;;;;;;;;;;;;
1418.0;1339.6;;;;-0.15268327;0.9620172;0.14562227;;;;;;;;;;;;;;;
1418.0;1341.1;221328;221359;12548;;;;;;;;;;;;;;;;;;
1418.0;1349.8;;;;-0.15189745;0.9638101;0.1462288;;;;;;;;;;;;;;;
1418.0;1349.8;;;;-0.15103151;0.96593106;0.14690782;;;;;;;;;;;;;;;
1418.0;1349.8;;;;-0.1504593;0.9678575;0.1476822;;;;;;;;;;;;;;;
1418.0;1349.8;;;;-0.14967348;0.9704019;0.14715196;;;;;;;;;;;;;;;
1418.0;1349.8;;;;-0.14917375;0.97353375;0.14725114;;;;;;;;;;;;;;;
1418.0;1359.9;;;;-0.14875413;0.9779321;0.14735414;;;;;;;;;;;;;;;
1418.0;1359.9;;;;-0.14842226;0.98250973;0.14647295;;;;;;;;;;;;;;;
1418.0;1359.9;;;;-0.14823534;0.98900235;0.14531328;;;;;;;;;;;;;;;
1418.0;1359.9;;;;-0.148304;0.9957925;0.14359666;;;;;;;;;;;;;;;
1418.0;1359.9;;;;-0.14819719;1.0043412;0.14276125;;;;;;;;;;;;;;;
1419.0;1361.4;237685;237680;12549;;;;;;;;;;;;;;;;;;
1419.0;1367.5;;;;;;;;;;;;;-26054;;;;;;;;
1419.0;1367.5;;;;;;;;;;;;;-24642;;;;;;;;
1419.0;1367.5;;;;;;;;;;;;;-23685;;;;;;;;
1419.0;1367.5;;;;;;;;;;;;;-22698;;;;;;;;
1419.0;1367.5;;;;;;;;;;;;;-21501;;;;;;;;
1419.0;1368.7;;;;;;;;;;;;;;;;;-14.927366;1.5411848;16.228218;;1275.6
1419.0;1368.7;;;;;;;;;;;;;;0.8778344;-0.15240943;-0.34681234;;;;;1275.6
1419.0;1368.7;;;;;;;;;;;;;;;;;-13.733329;0.5836665;14.282662;;1275.6
1419.0;1368.7;;;;;;;;;;;;;;0.8814356;-0.14355907;-0.35077974;;;;;1275.6
1419.0;1368.7;;;;;;;;;;;;;;;;;-12.722404;0.110629596;12.524033;;1285.0
1419.0;1368.7;;;;;;;;;;;;;;0.87350076;-0.13275552;-0.34467605;;;;;1285.0
1419.0;1368.7;;;;;;;;;;;;;;;;;-12.001404;-1.167333;11.082033;;1285.0
1419.0;1368.7;;;;;;;;;;;;;;0.87002164;-0.12469863;-0.3432722;;;;;1285.0
1419.0;1368.7;;;;;;;;;;;;;;;;;-11.581775;-2.0752587;10.010071;;1294.7
1419.0;1368.7;;;;;;;;;;;;;;0.87148654;-0.119205296;-0.33887753;;;;;1294.7
1419.0;1368.7;;;;;;;;;;;;;;;;;-11.322367;-2.4338512;9.163182;;1294.7
1419.0;1368.7;;;;;;;;;;;;;;0.8783227;-0.11951049;-0.33136997;;;;;1294.7
1419.0;1369.7;;;;-0.14852525;1.0148851;0.14215852;;;;;;;;;;;;;;;
1419.0;1369.7;;;;-0.14904024;1.0269243;0.14240266;;;;;;;;;;;;;;;
1419.0;1369.7;;;;-0.14979173;1.0403291;0.14276506;;;;;;;;;;;;;;;
1419.0;1369.7;;;;-0.15106584;1.0547372;0.14333726;;;;;;;;;;;;;;;
1419.0;1369.7;;;;-0.152092;1.0701143;0.14458849;;;;;;;;;;;;;;;
1475.0;1376.2;;;;;;;;;;;;;;;;;-11.37196;-2.357555;8.514664;;1304.5
1475.0;1376.2;;;;;;;;;;;;;;0.8898587;-0.123783074;-0.32148197;;;;;1304.5
1475.0;1376.2;;;;;;;;;;;;;;;;;-11.654256;-2.0599995;8.018739;;1304.5
1475.0;1376.2;;;;;;;;;;;;;;0.90932953;-0.13080233;-0.31495103;;;;;1304.5
1475.0;1376.2;;;;;;;;;;;;;;;;;-12.230293;-1.4229255;7.702109;;1314.0
1475.0;1376.2;;;;;;;;;;;;;;0.92818993;-0.14117862;-0.30365917;;;;;1314.0
1475.0;1376.2;;;;;;;;;;;;;;;;;-12.99707;-0.84307384;7.1832943;;1314.0
1475.0;1376.2;;;;;;;;;;;;;;0.9477828;-0.14178899;-0.29389325;;;;;1314.0
1475.0;1376.2;;;;;;;;;;;;;;;;;-13.81344;-0.0839259;6.4203315;;1323.6
1475.0;1376.2;;;;;;;;;;;;;;0.96481216;-0.13476974;-0.28437147;;;;;1323.6
1475.0;1376.2;;;;;;;;;;;;;;;;;-14.667959;0.35477766;5.6840725;;1323.6
1475.0;1376.2;;;;;;;;;;;;;;0.9830012;-0.12640767;-0.27045503;;;;;1323.6
1475.0;1379.6;;;;-0.15293123;1.0855066;0.14649965;;;;;;;;;;;;;;;
1475.0;1379.6;;;;-0.15408327;1.1007043;0.14862062;;;;;;;;;;;;;;;
1475.0;1379.6;;;;-0.15449525;1.1153451;0.15044786;;;;;;;;;;;;;;;
1475.0;1379.6;;;;-0.15450288;1.1289026;0.15262987;;;;;;;;;;;;;;;
1475.0;1379.6;;;;-0.15392686;1.1405298;0.15427019;;;;;;;;;;;;;;;
1475.0;1381.2;254023;254156;12551;;;;;;;;;;;;;;;;;;
1475.0;1389.6;;;;-0.15325929;1.1505662;0.15557863;;;;;;;;;;;;;;;
1475.0;1389.6;;;;-0.1521988;1.1581994;0.15777971;;;;;;;;;;;;;;;
1475.0;1389.6;;;;-0.15097429;1.1632463;0.15974809;;;;;;;;;;;;;;;
1475.0;1389.6;;;;-0.14892961;1.1661569;0.16124345;;;;;;;;;;;;;;;
1475.0;1389.6;;;;-0.1478386;1.1669885;0.16352846;;;;;;;;;;;;;;;
1477.0;1399.7;;;;-0.1463318;1.1657029;0.16540147;;;;;;;;;;;;;;;
1477.0;1399.7;;;;-0.14519884;1.16251;0.16725923;;;;;;;;;;;;;;;
1477.0;1399.7;;;;-0.14422227;1.1575052;0.1693268;;;;;;;;;;;;;;;
1477.0;1399.7;;;;-0.14355852;1.1509706;0.17154695;;;;;;;;;;;;;;;
1477.0;1399.7;;;;-0.14281084;1.1434709;0.17316438;;;;;;;;;;;;;;;
1477.0;1401.3;262143;262143;12544;;;;;;;;;;;;;;;;;;
1477.0;1407.4;;;;;;;;;;;;;-20610;;;;;;;;
1477.0;1407.4;;;;;;;;;;;;;-19797;;;;;;;;
1477.0;1407.4;;;;;;;;;;;;;-18939;;;;;;;;
1477.0;1407.4;;;;;;;;;;;;;-17837;;;;;;;;
1477.0;1407.4;;;;;;;;;;;;;-16556;;;;;;;;
1477.0;1409.8;;;;-0.14238359;1.1347734;0.17398454;;;;;;;;;;;;;;;
1477.0;1409.8;;;;-0.14221956;1.1259042;0.17572023;;;;;;;;;;;;;;;
1477.0;1409.8;;;;-0.1424904;1.1166116;0.17728044;;;;;;;;;;;;;;;
1477.0;1409.8;;;;-0.14271928;1.1075822;0.17775728;;;;;;;;;;;;;;;
1477.0;1409.8;;;;-0.14305498;1.0988771;0.17861177;;;;;;;;;;;;;;;
1477.0;1419.9;;;;-0.14234163;1.0912248;0.17852022;;;;;;;;;;;;;;;
1477.0;1419.9;;;;-0.14151002;1.0844575;0.17884828;;;;;;;;;;;;;;;
1477.0;1419.9;;;;-0.14078523;1.0782624;0.17840959;;;;;;;;;;;;;;;
1477.0;1419.9;;;;-0.14051057;1.0736924;0.17776491;;;;;;;;;;;;;;;
1477.0;1419.9;;;;-0.14028932;1.0702516;0.17731859;;;;;;;;;;;;;;;
1478.0;1421.8;;;;;;;;;;;;;;;;;-16.407515;0.7286294;4.4175544;;1333.2
1478.0;1421.8;;;;;;;;;;;;;;1.0176703;-0.12158574;-0.25678274;;;;;1333.2
1478.0;1421.8;;;;;;;;;;;;;;;;;-17.208624;1.3847773;2.8191473;;1333.2
1478.0;1421.8;;;;;;;;;;;;;;1.0616169;-0.10669271;-0.2580645;;;;;1333.2
1478.0;1421.8;;;;;;;;;;;;;;;;;-15.278329;0.34714803;1.4687033;;1342.8
1478.0;1421.8;;;;;;;;;;;;;;1.107944;-0.11383404;-0.28644672;;;;;1342.8
1478.0;1421.8;;;;;;;;;;;;;;;;;-13.439589;-1.8158513;0.4730369;;1342.8
1478.0;1421.8;;;;;;;;;;;;;;1.1516465;-0.13544114;-0.35358745;;;;;1342.8
1478.0;1421.8;;;;;;;;;;;;;;;;;-13.0809965;-1.8692588;0.4196295;;1352.4
1478.0;1421.8;;;;;;;;;;;;;;1.1808221;-0.16235848;-0.39558092;;;;;1352.4
1478.0;1421.8;;;;;;;;;;;;;;;;;-14.275033;0.7820368;1.0338145;;1352.4
1478.0;1421.8;;;;;;;;;;;;;;1.1930295;-0.18073061;-0.39295632;;;;;1352.4
1478.0;1421.6;262143;262143;12544;;;;;;;;;;;;;;;;;;
1478.0;1429.8;;;;-0.14010622;1.0675241;0.17683412;;;;;;;;;;;;;;;
1478.0;1429.8;;;;-0.13994981;1.0664979;0.17669679;;;;;;;;;;;;;;;
1478.0;1429.8;;;;-0.14037324;1.0661317;0.17731477;;;;;;;;;;;;;;;
1478.0;1429.8;;;;-0.1408539;1.0668527;0.1786728;;;;;;;;;;;;;;;
1478.0;1429.8;;;;-0.14214708;1.0677758;0.17992784;;;;;;;;;;;;;;;
1536.0;1436.3;;;;;;;;;;;;;;;;;-15.800959;5.22248;2.090518;;1362.1
1536.0;1436.3;;;;;;;;;;;;;;1.1853389;-0.17145298;-0.34357738;;;;;1362.1
1536.0;1436.3;;;;;;;;;;;;;;;;;-16.972105;9.498886;2.6970735;;1362.1
1536.0;1436.3;;;;;;;;;;;;;;1.1717277;-0.13892026;-0.27198097;;;;;1362.1
1536.0;1436.3;;;;;;;;;;;;;;;;;-17.654957;11.333811;2.5940733;;1371.7
1536.0;1436.3;;;;;;;;;;;;;;1.1593372;-0.1060213;-0.21655935;;;;;1371.7
1536.0;1436.3;;;;;;;;;;;;;;;;;-17.738884;11.383404;1.6327403;;1371.7
1536.0;1436.3;;;;;;;;;;;;;;1.1423078;-0.08185064;-0.17688528;;;;;1371.7
1536.0;1436.3;;;;;;;;;;;;;;;;;-17.654957;9.807885;0.034333322;;1381.4
1536.0;1436.3;;;;;;;;;;;;;;1.1292459;-0.07635731;-0.16022217;;;;;1381.4
1536.0;1436.3;;;;;;;;;;;;;;;;;-17.281105;8.438369;-2.1820734;;1381.4
1536.0;1436.3;;;;;;;;;;;;;;1.1154516;-0.0872219;-0.16083254;;;;;1381.4
1536.0;1439.7;;;;-0.14406206;1.0696145;0.18188478;;;;;;;;;;;;;;;
1536.0;1439.7;;;;-0.14630891;1.0716859;0.18452837;;;;;;;;;;;;;;;
1536.0;1439.7;;;;-0.14891054;1.0739633;0.18720247;;;;;;;;;;;;;;;
1536.0;1439.7;;;;-0.15132524;1.076378;0.18963626;;;;;;;;;;;;;;;
1536.0;1439.7;;;;-0.15449907;1.0785676;0.1916199;;;;;;;;;;;;;;;
1536.0;1441.4;262143;262143;12541;;;;;;;;;;;;;;;;;;
1536.0;1447.4;;;;;;;;;;;;;-15250;;;;;;;;
1536.0;1447.4;;;;;;;;;;;;;-14226;;;;;;;;
1536.0;1447.4;;;;;;;;;;;;;-13656;;;;;;;;
1536.0;1447.4;;;;;;;;;;;;;-13207;;;;;;;;
1536.0;1447.4;;;;;;;;;;;;;-12583;;;;;;;;
1539.0;1449.6;;;;-0.15733339;1.0803872;0.19466785;;;;;;;;;;;;;;;
1539.0;1449.6;;;;-0.1608925;1.082039;0.19760898;;;;;;;;;;;;;;;
1539.0;1449.6;;;;-0.16436769;1.0831186;0.20100787;;;;;;;;;;;;;;;
1539.0;1449.6;;;;-0.16859438;1.0839273;0.20389941;;;;;;;;;;;;;;;
1539.0;1449.6;;;;-0.17237474;1.0845071;0.20746234;;;;;;;;;;;;;;;
1539.0;1459.6;;;;-0.17620088;1.0840188;0.21125796;;;;;;;;;;;;;;;
1539.0;1459.6;;;;-0.18027116;1.0841867;0.21547702;;;;;;;;;;;;;;;
1539.0;1459.6;;;;-0.1842766;1.0832826;0.21926883;;;;;;;;;;;;;;;
1539.0;1459.6;;;;-0.18853381;1.0824167;0.22328189;;;;;;;;;;;;;;;
1539.0;1459.6;;;;-0.19231036;1.0810167;0.2275925;;;;;;;;;;;;;;;
1539.0;1461.4;262143;262143;12539;;;;;;;;;;;;;;;;;;
1539.0;1469.7;;;;-0.19608691;1.0793115;0.2324219;;;;;;;;;;;;;;;
1539.0;1469.7;;;;-0.20017627;1.0772973;0.23722461;;;;;;;;;;;;;;;
1539.0;1469.7;;;;-0.2045975;1.075657;0.24173358;;;;;;;;;;;;;;;
1539.0;1469.7;;;;-0.20865253;1.0735971;0.2462044;;;;;;;;;;;;;;;
1539.0;1469.7;;;;-0.21293643;1.0717355;0.2506142;;;;;;;;;;;;;;;
1539.0;1479.8;;;;-0.21647266;1.068863;0.25514606;;;;;;;;;;;;;;;
1539.0;1479.8;;;;-0.21987918;1.0658036;0.25893787;;;;;;;;;;;;;;;
1539.0;1479.8;;;;-0.22181705;1.0619851;0.262661;;;;;;;;;;;;;;;
1539.0;1479.8;;;;-0.22331622;1.0579492;0.26562503;;;;;;;;;;;;;;;
1539.0;1479.8;;;;-0.22370914;1.0531312;0.2689133;;;;;;;;;;;;;;;
1541.0;1481.4;;;;;;;;;;;;;;;;;-16.739403;8.068331;-4.737999;;1391.0
1541.0;1481.4;;;;;;;;;;;;;;1.1081882;-0.10614338;-0.16644795;;;;;1391.0
1541.0;1481.4;;;;;;;;;;;;;;;;;-16.251106;8.40785;-7.5228124;;1391.0
1541.0;1481.4;;;;;;;;;;;;;;1.1098361;-0.12207404;-0.17767876;;;;;1391.0
1541.0;1481.4;;;;;;;;;;;;;;;;;-16.209145;9.605701;-10.509811;;1400.7
1541.0;1481.4;;;;;;;;;;;;;;1.1140476;-0.12952055;-0.18573564;;;;;1400.7
1541.0;1481.4;;;;;;;;;;;;;;;;;-16.678366;11.074404;-13.412886;;1400.7
1541.0;1481.4;;;;;;;;;;;;;;1.1210669;-0.12878811;-0.1817072;;;;;1400.7
1541.0;1481.4;;;;;;;;;;;;;;;;;-17.529068;12.192145;-16.430403;;1410.3
1541.0;1481.4;;;;;;;;;;;;;;1.1292459;-0.119876705;-0.17914365;;;;;1410.3
1541.0;1481.4;;;;;;;;;;;;;;;;;-18.64681;13.492996;-19.402143;;1410.3
1541.0;1481.4;;;;;;;;;;;;;;1.1398053;-0.112979524;-0.17731254;;;;;1410.3
1541.0;1481.5;262143;262143;12548;;;;;;;;;;;;;;;;;;
1541.0;1487.6;;;;;;;;;;;;;-11693;;;;;;;;
1541.0;1487.6;;;;;;;;;;;;;-10735;;;;;;;;
1541.0;1487.6;;;;;;;;;;;;;-10017;;;;;;;;
1541.0;1487.6;;;;;;;;;;;;;-9439;;;;;;;;
1541.0;1487.6;;;;;;;;;;;;;-8596;;;;;;;;
1596.0;1488.8;;;;;;;;;;;;;;;;;-19.623402;15.140995;-22.354807;;1420.0
1596.0;1488.8;;;;;;;;;;;;;;1.1468856;-0.10199286;-0.17224647;;;;;1420.0
1596.0;1488.8;;;;;;;;;;;;;;;;;-19.833216;16.827145;-25.643177;;1420.0
1596.0;1488.8;;;;;;;;;;;;;;1.1545153;-0.090029605;-0.1568041;;;;;1420.0
1596.0;1488.8;;;;;;;;;;;;;;;;;-18.84518;18.44081;-29.248177;;1429.6
1596.0;1488.8;;;;;;;;;;;;;;1.1596423;-0.07190161;-0.15057832;;;;;1429.6
1596.0;1488.8;;;;;;;;;;;;;;;;;-16.640219;20.424513;-33.18888;;1429.6
1596.0;1488.8;;;;;;;;;;;;;;1.1548204;-0.053529467;-0.14062929;;;;;1429.6
1596.0;1488.8;;;;;;;;;;;;;;;;;-13.138219;21.805475;-37.514877;;1439.3
1596.0;1488.8;;;;;;;;;;;;;;1.1454207;-0.03112888;-0.131901;;;;;1439.3
1596.0;1488.8;;;;;;;;;;;;;;;;;-8.445998;23.850216;-42.44362;;1439.3
1596.0;1488.8;;;;;;;;;;;;;;1.1324198;-0.0050050355;-0.12018189;;;;;1439.3
1596.0;1489.6;;;;-0.22341159;1.0479966;0.2716103;;;;;;;;;;;;;;;
1596.0;1489.6;;;;-0.22195056;1.0425721;0.2736397;;;;;;;;;;;;;;;
1596.0;1489.6;;;;-0.22021106;1.0363008;0.27661517;;;;;;;;;;;;;;;
1596.0;1489.6;;;;-0.21871951;1.0305368;0.28216937;;;;;;;;;;;;;;;
1596.0;1489.6;;;;-0.21690372;1.0243036;0.28723148;;;;;;;;;;;;;;;
1596.0;1499.6;;;;-0.21532443;1.0177919;0.28744128;;;;;;;;;;;;;;;
1596.0;1499.6;;;;-0.21456149;1.0103952;0.286747;;;;;;;;;;;;;;;
1596.0;1499.6;;;;-0.21330264;1.0025293;0.28719333;;;;;;;;;;;;;;;
1596.0;1499.6;;;;-0.21211627;0.9942781;0.2876816;;;;;;;;;;;;;;;
1596.0;1499.6;;;;-0.21236804;0.985428;0.28743365;;;;;;;;;;;;;;;
1596.0;1501.5;262143;262143;12542;;;;;;;;;;;;;;;;;;
1599.0;1509.5;;;;-0.2128258;0.976452;0.28730395;;;;;;;;;;;;;;;
1599.0;1509.5;;;;-0.21319583;0.9671327;0.28715137;;;;;;;;;;;;;;;
1599.0;1509.5;;;;-0.21385196;0.95801175;0.28662875;;;;;;;;;;;;;;;
1599.0;1509.5;;;;-0.21556094;0.9484178;0.28577808;;;;;;;;;;;;;;;
1599.0;1509.5;;;;-0.21712115;0.93880093;0.28353885;;;;;;;;;;;;;;;
1599.0;1519.5;;;;-0.21824649;0.92951214;0.2804871;;;;;;;;;;;;;;;
1599.0;1519.5;;;;-0.21878818;0.9201127;0.2767525;;;;;;;;;;;;;;;
1599.0;1519.5;;;;-0.21857837;0.9109422;0.27354434;;;;;;;;;;;;;;;
1599.0;1519.5;;;;-0.2180138;0.90225613;0.27074435;;;;;;;;;;;;;;;
1599.0;1519.5;;;;-0.21627429;0.8946687;0.26754764;;;;;;;;;;;;;;;
1599.0;1521.5;262143;262143;12546;;;;;;;;;;;;;;;;;;
1599.0;1527.5;;;;;;;;;;;;;-7799;;;;;;;;
1599.0;1527.5;;;;;;;;;;;;;-7597;;;;;;;;
1599.0;1527.5;;;;;;;;;;;;;-7316;;;;;;;;
1599.0;1527.5;;;;;;;;;;;;;-6266;;;;;;;;
1599.0;1527.5;;;;;;;;;;;;;-5179;;;;;;;;
1599.0;1529.6;;;;-0.21401599;0.88789;0.26565173;;;;;;;;;;;;;;;
1599.0;1529.6;;;;-0.21055987;0.8809396;0.26326755;;;;;;;;;;;;;;;
1599.0;1529.6;;;;-0.20683292;0.8741418;0.2615395;;;;;;;;;;;;;;;
1599.0;1529.6;;;;-0.20230106;0.86825955;0.26018527;;;;;;;;;;;;;;;
1599.0;1529.6;;;;-0.19770053;0.8624574;0.2599602;;;;;;;;;;;;;;;
1601.0;1539.7;;;;-0.19320682;0.8574029;0.2591782;;;;;;;;;;;;;;;
1601.0;1539.7;;;;-0.1887398;0.8529626;0.25862888;;;;;;;;;;;;;;;
1601.0;1539.7;;;;-0.18395616;0.8489953;0.25711825;;;;;;;;;;;;;;;
1601.0;1539.7;;;;-0.17967226;0.845173;0.25552753;;;;;;;;;;;;;;;
1601.0;1539.7;;;;-0.17568971;0.84165204;0.25346377;;;;;;;;;;;;;;;
1601.0;1541.5;;;;;;;;;;;;;;;;;-2.9869993;26.409956;-48.211617;;1448.9
1601.0;1541.5;;;;;;;;;;;;;;1.1093478;0.028687399;-0.106387526;;;;;1448.9
1601.0;1541.5;;;;;;;;;;;;;;;;;2.9450362;28.050325;-54.551838;;1448.9
1601.0;1541.5;;;;;;;;;;;;;;1.081515;0.05444502;-0.11157567;;;;;1448.9
1601.0;1541.5;;;;;;;;;;;;;;;;;8.117924;30.198065;-61.265907;;1458.4
1601.0;1541.5;;;;;;;;;;;;;;1.0495316;0.07373272;-0.1119419;;;;;1458.4
1601.0;1541.5;;;;;;;;;;;;;;;;;13.134403;33.375805;-68.15927;;1458.4
1601.0;1541.5;;;;;;;;;;;;;;1.0152287;0.0822779;-0.104617454;;;;;1458.4
1601.0;1541.5;;;;;;;;;;;;;;;;;19.455551;37.450027;-74.835205;;1468.0
1601.0;1541.5;;;;;;;;;;;;;;0.9847102;0.07562487;-0.07727287;;;;;1468.0
1601.0;1541.5;;;;;;;;;;;;;;;;;25.749992;42.100285;-80.97705;;1468.0
1601.0;1541.5;;;;;;;;;;;;;;0.94137394;0.05841243;-0.049806207;;;;;1468.0
1601.0;1541.6;262143;262143;12535;;;;;;;;;;;;;;;;;;
1603.0;1549.4;;;;;;;;;;;;;;;;;26.470993;44.835503;-86.55431;;1477.7
1603.0;1549.4;;;;;;;;;;;;;;0.8991363;0.039613027;-0.07092502;;;;;1477.7
1603.0;1549.4;;;;;;;;;;;;;;;;;22.263252;47.74621;-91.49831;;1477.7
1603.0;1549.4;;;;;;;;;;;;;;0.82528156;0.02148503;-0.08929716;;;;;1477.7
1603.0;1549.4;;;;;;;;;;;;;;;;;18.875698;45.838802;-96.20579;;1487.4
1603.0;1549.4;;;;;;;;;;;;;;0.76723534;0.02661214;-0.12836085;;;;;1487.4
1603.0;1549.4;;;;;;;;;;;;;;;;;17.693106;41.844692;-100.5623;;1487.4
1603.0;1549.4;;;;;;;;;;;;;;0.7509995;0.033143103;-0.16431166;;;;;1487.4
1603.0;1549.4;;;;;;;;;;;;;;;;;18.372143;40.08606;-104.80056;;1497.0
1603.0;1549.4;;;;;;;;;;;;;;0.73738825;0.0430311;-0.16754662;;;;;1497.0
1603.0;1549.4;;;;;;;;;;;;;;;;;18.864254;37.171547;-108.74508;;1497.0
1603.0;1549.4;;;;;;;;;;;;;;0.71993166;0.04693747;-0.15967284;;;;;1497.0
1603.0;1549.6;;;;-0.17227937;0.83856976;0.25174716;;;;;;;;;;;;;;;
1603.0;1549.6;;;;-0.16902925;0.83651745;0.25026324;;;;;;;;;;;;;;;
1603.0;1549.6;;;;-0.16568758;0.83485806;0.24937442;;;;;;;;;;;;;;;
1603.0;1549.6;;;;-0.16287996;0.8334657;0.2488518;;;;;;;;;;;;;;;
1603.0;1549.6;;;;-0.16067888;0.83296216;0.24823764;;;;;;;;;;;;;;;
1603.0;1559.6;;;;-0.15900423;0.8325616;0.24745563;;;;;;;;;;;;;;;
1603.0;1559.6;;;;-0.15744783;0.8328477;0.24673846;;;;;;;;;;;;;;;
1603.0;1559.6;;;;-0.15663148;0.8325044;0.2453995;;;;;;;;;;;;;;;
1603.0;1559.6;;;;-0.15649797;0.8332139;0.2461777;;;;;;;;;;;;;;;
1603.0;1559.6;;;;-0.15711595;0.83457196;0.24742892;;;;;;;;;;;;;;;
1603.0;1561.6;262143;262143;12547;;;;;;;;;;;;;;;;;;
1659.0;1567.6;;;;;;;;;;;;;-4587;;;;;;;;
1659.0;1567.6;;;;;;;;;;;;;-3626;;;;;;;;
1659.0;1567.6;;;;;;;;;;;;;-2451;;;;;;;;
1659.0;1567.6;;;;;;;;;;;;;-4474;;;;;;;;
1659.0;1567.6;;;;;;;;;;;;;-11953;;;;;;;;
1659.0;1569.5;;;;-0.15805055;0.8353311;0.24711993;;;;;;;;;;;;;;;
1659.0;1569.5;;;;-0.15910722;0.83570874;0.24683002;;;;;;;;;;;;;;;
1659.0;1569.5;;;;-0.1599312;0.8358308;0.24653247;;;;;;;;;;;;;;;
1659.0;1569.5;;;;-0.1598015;0.83620846;0.24560168;;;;;;;;;;;;;;;
1659.0;1569.5;;;;-0.15952684;0.8358041;0.2446442;;;;;;;;;;;;;;;
1659.0;1579.5;;;;-0.15835573;0.835724;0.24375537;;;;;;;;;;;;;;;
1659.0;1579.5;;;;-0.1570244;0.83552945;0.24211505;;;;;;;;;;;;;;;
1659.0;1579.5;;;;-0.15541078;0.8351289;0.23995212;;;;;;;;;;;;;;;
1659.0;1579.5;;;;-0.15377428;0.83459103;0.23747638;;;;;;;;;;;;;;;
1659.0;1579.5;;;;-0.15233995;0.8341218;0.23483661;;;;;;;;;;;;;;;
1659.0;1581.6;262143;262143;12542;;;;;;;;;;;;;;;;;;
1659.0;1589.6;;;;-0.1503792;0.83384335;0.23147967;;;;;;;;;;;;;;;
1659.0;1589.6;;;;-0.14873125;0.8338853;0.22779086;;;;;;;;;;;;;;;
1659.0;1589.6;;;;-0.14668657;0.8348199;0.22431949;;;;;;;;;;;;;;;
1659.0;1589.6;;;;-0.14486314;0.83617413;0.22095492;;;;;;;;;;;;;;;
1659.0;1589.6;;;;-0.14279939;0.8379098;0.2179108;;;;;;;;;;;;;;;
1661.0;1599.7;;;;-0.14206697;0.8406526;0.21491626;;;;;;;;;;;;;;;
1661.0;1599.7;;;;-0.14068605;0.84339535;0.21188739;;;;;;;;;;;;;;;
1661.0;1599.7;;;;-0.13987733;0.8472978;0.2097359;;;;;;;;;;;;;;;
1661.0;1599.7;;;;-0.13936235;0.8511926;0.20772555;;;;;;;;;;;;;;;
1661.0;1599.7;;;;-0.13903047;0.8559114;0.20573428;;;;;;;;;;;;;;;
1661.0;1601.6;;;;;;;;;;;;;;;;;18.166143;30.251472;-111.35441;;1506.6
1661.0;1601.6;;;;;;;;;;;;;;0.75081635;0.025635548;-0.18317209;;;;;1506.6
1661.0;1601.6;;;;;;;;;;;;;;;;;17.181921;25.936918;-113.46782;;1506.6
1661.0;1601.6;;;;;;;;;;;;;;0.7866451;-0.0011597034;-0.19409773;;;;;1506.6
1661.0;1601.6;;;;;;;;;;;;;;;;;16.884367;22.892696;-116.000854;;1516.3
1661.0;1601.6;;;;;;;;;;;;;;0.8086184;-0.047242653;-0.20184942;;;;;1516.3
1661.0;1601.6;;;;;;;;;;;;;;;;;16.991179;19.173254;-119.895775;;1516.3
1661.0;1601.6;;;;;;;;;;;;;;0.8061159;-0.07892086;-0.22772911;;;;;1516.3
1661.0;1601.6;;;;;;;;;;;;;;;;;18.86044;10.902738;-121.89092;;1526.0
1661.0;1601.6;;;;;;;;;;;;;;0.7968993;-0.10480056;-0.2699057;;;;;1526.0
1661.0;1601.6;;;;;;;;;;;;;;;;;23.857845;-1.9341105;-122.85607;;1526.0
1661.0;1601.6;;;;;;;;;;;;;;0.8011719;-0.13000885;-0.33808404;;;;;1526.0
1661.0;1601.8;262143;262143;12552;;;;;;;;;;;;;;;;;;
1661.0;1607.7;;;;;;;;;;;;;-19440;;;;;;;;
1661.0;1607.7;;;;;;;;;;;;;-18184;;;;;;;;
1661.0;1607.7;;;;;;;;;;;;;-7797;;;;;;;;
1661.0;1607.7;;;;;;;;;;;;;2430;;;;;;;;
1661.0;1607.7;;;;;;;;;;;;;4979;;;;;;;;
1717.0;1609.1;;;;;;;;;;;;;;;;;31.651508;-14.8587;-122.28767;;1535.7
1717.0;1609.1;;;;;;;;;;;;;;0.8215583;-0.14215522;-0.38093203;;;;;1535.7
1717.0;1609.1;;;;;;;;;;;;;;;;;38.277843;-25.27314;-119.78896;;1535.7
1717.0;1609.1;;;;;;;;;;;;;;0.85958433;-0.1605884;-0.38752404;;;;;1535.7
1717.0;1609.1;;;;;;;;;;;;;;;;;41.4098;-31.071657;-116.13056;;1545.4
1717.0;1609.1;;;;;;;;;;;;;;0.9370403;-0.1726127;-0.34962004;;;;;1545.4
1717.0;1609.1;;;;;;;;;;;;;;;;;41.402172;-29.435102;-110.942406;;1545.4
1717.0;1609.1;;;;;;;;;;;;;;1.0578326;-0.19586779;-0.26593828;;;;;1545.4
1717.0;1609.1;;;;;;;;;;;;;;;;;41.768394;-18.547625;-104.20164;;1555.0
1717.0;1609.1;;;;;;;;;;;;;;1.2143315;-0.25269327;-0.14123966;;;;;1555.0
1717.0;1609.1;;;;;;;;;;;;;;;;;44.18699;-6.3554797;-101.86697;;1555.0
1717.0;1609.1;;;;;;;;;;;;;;1.371746;-0.29755548;0.024536882;;;;;1555.0
1717.0;1609.6;;;;-0.13839723;0.86111844;0.20327762;;;;;;;;;;;;;;;
1717.0;1609.6;;;;-0.13837053;0.86717236;0.20197299;;;;;;;;;;;;;;;
1717.0;1609.6;;;;-0.13842775;0.87233746;0.19944766;;;;;;;;;;;;;;;
1717.0;1609.6;;;;-0.13879396;0.8781396;0.19800189;;;;;;;;;;;;;;;
1717.0;1609.6;;;;-0.1395035;0.8843347;0.19721606;;;;;;;;;;;;;;;
1717.0;1619.6;;;;-0.14083864;0.8908464;0.19635013;;;;;;;;;;;;;;;
1717.0;1619.6;;;;-0.14204027;0.897854;0.19589236;;;;;;;;;;;;;;;
1717.0;1619.6;;;;-0.14348222;0.90506375;0.19544986;;;;;;;;;;;;;;;
1717.0;1619.6;;;;-0.14464189;0.91199124;0.19495395;;;;;;;;;;;;;;;
1717.0;1619.6;;;;-0.14638902;0.919449;0.1952515;;;;;;;;;;;;;;;
1717.0;1621.8;262143;262143;12557;;;;;;;;;;;;;;;;;;
1722.0;1629.7;;;;-0.1484337;0.9271623;0.1958771;;;;;;;;;;;;;;;
1722.0;1629.7;;;;-0.14929964;0.9350778;0.19728473;;;;;;;;;;;;;;;
1722.0;1629.7;;;;-0.15015794;0.9429971;0.19850543;;;;;;;;;;;;;;;
1722.0;1629.7;;;;-0.15078737;0.95032895;0.19967654;;;;;;;;;;;;;;;
1722.0;1629.7;;;;-0.1513672;0.9578439;0.20170978;;;;;;;;;;;;;;;
1722.0;1639.8;;;;-0.15122987;0.96473706;0.20310596;;;;;;;;;;;;;;;
1722.0;1639.8;;;;-0.15107347;0.97109616;0.20479587;;;;;;;;;;;;;;;
1722.0;1639.8;;;;-0.15072252;0.9768716;0.20628741;;;;;;;;;;;;;;;
1722.0;1639.8;;;;-0.1502762;0.9831811;0.20800784;;;;;;;;;;;;;;;
1722.0;1639.8;;;;-0.15003587;0.98820126;0.20897678;;;;;;;;;;;;;;;
1722.0;1642.0;262143;262143;12546;;;;;;;;;;;;;;;;;;
1722.0;1648.0;;;;;;;;;;;;;1950;;;;;;;;
1722.0;1648.0;;;;;;;;;;;;;-599;;;;;;;;
1722.0;1648.0;;;;;;;;;;;;;-734;;;;;;;;
1722.0;1648.0;;;;;;;;;;;;;-466;;;;;;;;
1722.0;1648.0;;;;;;;;;;;;;-903;;;;;;;;
1722.0;1649.9;;;;-0.15018465;0.9928895;0.21023181;;;;;;;;;;;;;;;
1722.0;1649.9;;;;-0.15034868;0.99720776;0.2120209;;;;;;;;;;;;;;;
1722.0;1649.9;;;;-0.15167238;1.0015298;0.2140961;;;;;;;;;;;;;;;
1722.0;1649.9;;;;-0.15349199;1.0053407;0.21617511;;;;;;;;;;;;;;;
1722.0;1649.9;;;;-0.1553116;1.0093042;0.21772769;;;;;;;;;;;;;;;
1724.0;1660.0;;;;-0.15757753;1.012539;0.21989062;;;;;;;;;;;;;;;
1724.0;1660.0;;;;-0.1600609;1.0156175;0.22248843;;;;;;;;;;;;;;;
1724.0;1660.0;;;;-0.16323473;1.0175554;0.22492221;;;;;;;;;;;;;;;
1724.0;1660.0;;;;-0.16630174;1.019085;0.22763065;;;;;;;;;;;;;;;
1724.0;1660.0;;;;-0.16956712;1.0201455;0.23017505;;;;;;;;;;;;;;;
1724.0;1662.0;;;;;;;;;;;;;;;;;49.25306;-8.785516;-103.94223;;1564.6
1724.0;1662.0;;;;;;;;;;;;;;1.518418;-0.3251442;0.052797023;;;;;1564.6
1724.0;1662.0;;;;;;;;;;;;;;;;;56.80639;-13.8363285;-108.676414;;1564.6
1724.0;1662.0;;;;;;;;;;;;;;1.5560777;-0.2814417;-0.07885983;;;;;1564.6
1724.0;1662.0;;;;;;;;;;;;;;;;;62.192905;-13.721885;-109.805595;;1574.3
1724.0;1662.0;;;;;;;;;;;;;;1.5187231;-0.23334453;-0.19074069;;;;;1574.3
1724.0;1662.0;;;;;;;;;;;;;;;;;61.05609;-14.877774;-108.79468;;1574.3
1724.0;1662.0;;;;;;;;;;;;;;1.4685507;-0.2174749;-0.2814417;;;;;1574.3
1724.0;1662.0;;;;;;;;;;;;;;;;;53.78506;-14.069033;-109.656815;;1584.0
1724.0;1662.0;;;;;;;;;;;;;;1.3856624;-0.17419966;-0.36219367;;;;;1584.0
1724.0;1662.0;;;;;;;;;;;;;;;;;41.837063;-7.389294;-109.84374;;1584.0
1724.0;1662.0;;;;;;;;;;;;;;1.266274;-0.1398358;-0.3806879;;;;;1584.0
1724.0;1662.2;262143;262143;12550;;;;;;;;;;;;;;;;;;
1725.0;1669.9;;;;;;;;;;;;;;;;;30.28199;0.7667776;-108.86716;;1593.6
1725.0;1669.9;;;;;;;;;;;;;;1.1264381;-0.111087374;-0.34626302;;;;;1593.6
1725.0;1669.9;;;;;;;;;;;;;;;;;21.240883;5.245369;-107.62353;;1593.6
1725.0;1669.9;;;;;;;;;;;;;;1.0458083;-0.07574694;-0.29584643;;;;;1593.6
1725.0;1669.9;;;;;;;;;;;;;;;;;15.724663;4.1924806;-105.098114;;1603.3
1725.0;1669.9;;;;;;;;;;;;;;1.046907;-0.05841243;-0.286874;;;;;1603.3
1725.0;1669.9;;;;;;;;;;;;;;;;;11.98996;4.40611;-103.35093;;1603.3
1725.0;1669.9;;;;;;;;;;;;;;1.0578326;-0.045777764;-0.2880337;;;;;1603.3
1725.0;1669.9;;;;;;;;;;;;;;;;;9.983367;7.976775;-101.928;;1613.0
1725.0;1669.9;;;;;;;;;;;;;;1.0382397;-0.060304575;-0.26239815;;;;;1613.0
1725.0;1669.9;;;;;;;;;;;;;;;;;9.453109;10.307627;-100.196075;;1613.0
1725.0;1669.9;;;;;;;;;;;;;;1.0268258;-0.067751095;-0.23065889;;;;;1613.0
1725.0;1669.8;;;;-0.17291643;1.0204393;0.23287204;;;;;;;;;;;;;;;
1725.0;1669.8;;;;-0.17597963;1.0205728;0.23573306;;;;;;;;;;;;;;;
1725.0;1669.8;;;;-0.17934419;1.0191308;0.23749164;;;;;;;;;;;;;;;
1725.0;1669.8;;;;-0.18278123;1.0171739;0.23899081;;;;;;;;;;;;;;;
1725.0;1669.8;;;;-0.1862755;1.0143052;0.24114612;;;;;;;;;;;;;;;
1725.0;1679.8;;;;-0.18963626;1.0109521;0.24318698;;;;;;;;;;;;;;;
1725.0;1679.8;;;;-0.19336703;1.007187;0.24572757;;;;;;;;;;;;;;;
1725.0;1679.8;;;;-0.1963158;1.0029908;0.2488747;;;;;;;;;;;;;;;
1725.0;1679.8;;;;-0.19957355;0.99790204;0.25210956;;;;;;;;;;;;;;;
1725.0;1679.8;;;;-0.20269778;0.99251187;0.25558856;;;;;;;;;;;;;;;
1725.0;1682.2;262143;262143;12536;;;;;;;;;;;;;;;;;;
1775.0;1688.1;;;;;;;;;;;;;-1092;;;;;;;;
1775.0;1688.1;;;;;;;;;;;;;-700;;;;;;;;
1775.0;1688.1;;;;;;;;;;;;;-224;;;;;;;;
1775.0;1688.1;;;;;;;;;;;;;-14;;;;;;;;
1775.0;1688.1;;;;;;;;;;;;;-164;;;;;;;;
1775.0;1689.8;;;;-0.2057114;0.98684704;0.25857165;;;;;;;;;;;;;;;
1775.0;1689.8;;;;-0.2083855;0.98007596;0.26174548;;;;;;;;;;;;;;;
1775.0;1689.8;;;;-0.21081546;0.9733087;0.26477817;;;;;;;;;;;;;;;
1775.0;1689.8;;;;-0.21291354;0.96615994;0.26794818;;;;;;;;;;;;;;;
1775.0;1689.8;;;;-0.2152138;0.95883954;0.27080157;;;;;;;;;;;;;;;
1775.0;1699.7;;;;-0.21706012;0.9511415;0.27400592;;;;;;;;;;;;;;;
1775.0;1699.7;;;;-0.21901324;0.94321454;0.27635196;;;;;;;;;;;;;;;
1775.0;1699.7;;;;-0.2206879;0.9347688;0.2784653;;;;;;;;;;;;;;;
1775.0;1699.7;;;;-0.22269824;0.92642987;0.28121188;;;;;;;;;;;;;;;
1775.0;1699.7;;;;-0.22427371;0.91749585;0.28297046;;;;;;;;;;;;;;;
1775.0;1702.1;262143;262143;12530;;;;;;;;;;;;;;;;;;
1775.0;1709.8;;;;-0.22609332;0.9090234;0.28426746;;;;;;;;;;;;;;;
1775.0;1709.8;;;;-0.22734836;0.89997494;0.28514484;;;;;;;;;;;;;;;
1775.0;1709.8;;;;-0.22933963;0.8911668;0.28545383;;;;;;;;;;;;;;;
1775.0;1709.8;;;;-0.23111346;0.88253415;0.28589252;;;;;;;;;;;;;;;
1775.0;1709.8;;;;-0.23326114;0.8735925;0.28654101;;;;;;;;;;;;;;;
1778.0;1719.9;;;;-0.23470691;0.8649255;0.28668216;;;;;;;;;;;;;;;
1778.0;1719.9;;;;-0.23698428;0.8561593;0.28656772;;;;;;;;;;;;;;;
1778.0;1719.9;;;;-0.23859027;0.84801114;0.2861252;;;;;;;;;;;;;;;
1778.0;1719.9;;;;-0.23986056;0.8396188;0.28570178;;;;;;;;;;;;;;;
1778.0;1719.9;;;;-0.24208453;0.83184826;0.28507236;;;;;;;;;;;;;;;
1778.0;1722.1;;;;;;;;;;;;;;;;;9.468368;10.212256;-97.7279;;1622.6
1778.0;1722.1;;;;;;;;;;;;;;1.0229194;-0.08941923;-0.22266304;;;;;1622.6
1778.0;1722.1;;;;;;;;;;;;;;;;;10.185553;10.45259;-95.23301;;1622.6
1778.0;1722.1;;;;;;;;;;;;;;0.99923706;-0.11651967;-0.21625416;;;;;1622.6
1778.0;1722.1;;;;;;;;;;;;;;;;;10.23896;9.403516;-93.14631;;1632.1
1778.0;1722.1;;;;;;;;;;;;;;0.99862665;-0.07818842;-0.20520645;;;;;1632.1
1778.0;1722.1;;;;;;;;;;;;;;;;;8.793145;7.820368;-89.86938;;1632.1
1778.0;1722.1;;;;;;;;;;;;;;1.0071108;-0.12024293;-0.21936704;;;;;1632.1
1778.0;1722.1;;;;;;;;;;;;;;;;;6.8094425;7.843257;-86.5009;;1641.8
1778.0;1722.1;;;;;;;;;;;;;;0.9836116;-0.13605152;-0.2033143;;;;;1641.8
1778.0;1722.1;;;;;;;;;;;;;;;;;3.9445176;5.901517;-82.22068;;1641.8
1778.0;1722.1;;;;;;;;;;;;;;1.0033265;-0.17603077;-0.18951994;;;;;1641.8
1784.0;1722.9;;;;;;;;;;;;;;;;;2.0828884;3.173925;-78.23419;;1651.5
1784.0;1722.9;;;;;;;;;;;;;;0.98525953;-0.18506424;-0.20892972;;;;;1651.5
1784.0;1722.9;;;;;;;;;;;;;;;;;-1.1978515;3.5096285;-74.663536;;1651.5
1784.0;1722.9;;;;;;;;;;;;;;0.9400311;-0.18494217;-0.18091373;;;;;1651.5
1784.0;1722.9;;;;;;;;;;;;;;;;;-3.7957397;0.59129614;-70.749535;;1661.2
1784.0;1722.9;;;;;;;;;;;;;;0.91421247;-0.18872647;-0.1765801;;;;;1661.2
1784.0;1722.9;;;;;;;;;;;;;;;;;-6.1189613;-2.315592;-66.93091;;1661.2
1784.0;1722.9;;;;;;;;;;;;;;0.9264809;-0.18024231;-0.18012024;;;;;1661.2
1784.0;1722.9;;;;;;;;;;;;;;;;;-8.419294;-3.9025545;-62.58583;;1670.9
1784.0;1722.9;;;;;;;;;;;;;;0.90987885;-0.17877743;-0.18305002;;;;;1670.9
1784.0;1722.9;;;;;;;;;;;;;;;;;-11.738182;-4.1657767;-58.660393;;1670.9
1784.0;1722.9;;;;;;;;;;;;;;0.8816797;-0.17297891;-0.15485092;;;;;1670.9
1784.0;1722.3;262143;262143;12529;;;;;;;;;;;;;;;;;;
1784.0;1728.1;;;;;;;;;;;;;-329;;;;;;;;
1784.0;1728.1;;;;;;;;;;;;;-282;;;;;;;;
1784.0;1728.1;;;;;;;;;;;;;-332;;;;;;;;
1784.0;1728.1;;;;;;;;;;;;;-845;;;;;;;;
1784.0;1728.1;;;;;;;;;;;;;-1583;;;;;;;;
1784.0;1729.9;;;;-0.24385837;0.8242837;0.28440478;;;;;;;;;;;;;;;
1784.0;1729.9;;;;-0.24438098;0.8178216;0.2835541;;;;;;;;;;;;;;;
1784.0;1729.9;;;;-0.24547961;0.81157315;0.28255847;;;;;;;;;;;;;;;
1784.0;1729.9;;;;-0.24623874;0.8059503;0.28178027;;;;;;;;;;;;;;;
1784.0;1729.9;;;;-0.24634555;0.80043423;0.27999118;;;;;;;;;;;;;;;
1896.0;1738.5;;;;;;;;;;1.3771478;18.978699;-1.8539995;;;;;;;;;
1896.0;1738.5;;;;;;;0.18042544;-0.8249763;0.0992462;;;;;;;;;;;;
1896.0;1738.5;;;;;;;;;;9.060183;32.24662;8.114109;;;;;;;;;
1896.0;1738.5;;;;;;;0.20184942;-0.9286172;0.11255226;;;;;;;;;;;;
1896.0;1740.0;;;;-0.24608234;0.7953683;0.27816775;;;;;;;;;;;;;;;
1896.0;1740.0;;;;-0.24574283;0.79091656;0.27573398;;;;;;;;;;;;;;;
1896.0;1740.0;;;;-0.24563983;0.786728;0.27386478;;;;;;;;;;;;;;;
1896.0;1740.0;;;;-0.24539569;0.7826196;0.2721558;;;;;;;;;;;;;;;
1896.0;1740.0;;;;-0.24460986;0.77858365;0.2705193;;;;;;;;;;;;;;;
1896.0;1742.5;262143;262143;12525;;;;;;;;;;;;;;;;;;
1896.0;1748.1;;;;;;;;;;3.3112583;5.516221;0.6447035;;;;;;;;;
1896.0;1748.1;;;;;;;0.20032349;-0.92837304;0.11035493;;;;;;;;;;;;
1896.0;1748.1;;;;;;;;;;10.544146;20.508438;1.4839625;;;;;;;;;
1896.0;1748.1;;;;;;;0.1988586;-0.93166906;0.11169775;;;;;;;;;;;;
1896.0;1750.0;;;;-0.24374393;0.7752534;0.2690201;;;;;;;;;;;;;;;
1896.0;1750.0;;;;-0.24360278;0.7723886;0.26814273;;;;;;;;;;;;;;;
1896.0;1750.0;;;;-0.24307254;0.77024853;0.26729587;;;;;;;;;;;;;;;
1896.0;1750.0;;;;-0.24235919;0.7683183;0.26610187;;;;;;;;;;;;;;;
1896.0;1750.0;;;;-0.24142459;0.76657116;0.26492313;;;;;;;;;;;;;;;
1896.0;1757.7;;;;;;;;;;14.328441;24.529253;-2.8153324;;;;;;;;;
1896.0;1757.7;;;;;;;0.19672231;-0.9376507;0.11279641;;;;;;;;;;;;
1896.0;1757.7;;;;;;;;;;12.318034;-7.869961;-27.775658;;;;;;;;;
1896.0;1757.7;;;;;;;0.19684438;-0.9407636;0.1126133;;;;;;;;;;;;
1898.0;1760.1;;;;-0.24048999;0.7652017;0.26375964;;;;;;;;;;;;;;;
1898.0;1760.1;;;;-0.23916247;0.76384366;0.2624741;;;;;;;;;;;;;;;
1898.0;1760.1;;;;-0.23732379;0.7623559;0.26163486;;;;;;;;;;;;;;;
1898.0;1760.1;;;;-0.23556903;0.7612535;0.2599869;;;;;;;;;;;;;;;
1898.0;1760.1;;;;-0.23427203;0.76000607;0.2589226;;;;;;;;;;;;;;;
1898.0;1762.7;262143;262143;12529;;;;;;;;;;;;;;;;;;
1898.0;1767.4;;;;;;;;;;14.950255;-5.130924;-32.34199;;;;;;;;;
1898.0;1767.4;;;;;;;0.19556262;-0.94717246;0.11267434;;;;;;;;;;;;
1898.0;1767.4;;;;;;;;;;17.15903;-1.9989624;-36.2331;;;;;;;;;
1898.0;1767.4;;;;;;;0.19501327;-0.95059055;0.11322367;;;;;;;;;;;;
1898.0;1768.6;;;;;;;;;;;;;-2106;;;;;;;;
1898.0;1768.6;;;;;;;;;;;;;-2285;;;;;;;;
1898.0;1768.6;;;;;;;;;;;;;-2104;;;;;;;;
1898.0;1768.6;;;;;;;;;;;;;-1820;;;;;;;;
1898.0;1768.6;;;;;;;;;;;;;-1544;;;;;;;;
1898.0;1770.2;;;;-0.23270038;0.7591783;0.2574921;;;;;;;;;;;;;;;
1898.0;1770.2;;;;-0.23165515;0.7585412;0.2560654;;;;;;;;;;;;;;;
1898.0;1770.2;;;;-0.23056796;0.75777066;0.2548943;;;;;;;;;;;;;;;
1898.0;1770.2;;;;-0.22965243;0.7575456;0.2535973;;;;;;;;;;;;;;;
1898.0;1770.2;;;;-0.22883609;0.75763714;0.25348285;;;;;;;;;;;;;;;
1898.0;1777.0;;;;;;;;;;18.23481;8.48796;-33.18125;;;;;;;;;
1898.0;1777.0;;;;;;;0.19141209;-0.95687735;0.115543075;;;;;;;;;;;;
1898.0;1777.0;;;;;;;;;;17.368847;18.009735;-26.173437;;;;;;;;;
1898.0;1777.0;;;;;;;0.18970306;-0.9620045;0.119327374;;;;;;;;;;;;
1899.0;1780.3;;;;-0.228241;0.7577058;0.25338367;;;;;;;;;;;;;;;
1899.0;1780.3;;;;-0.22753528;0.75846493;0.25306705;;;;;;;;;;;;;;;
1899.0;1780.3;;;;-0.22705844;0.75961316;0.253006;;;;;;;;;;;;;;;
1899.0;1780.3;;;;-0.22609714;0.7609445;0.25360492;;;;;;;;;;;;;;;
1899.0;1780.3;;;;-0.22515109;0.7621347;0.25351337;;;;;;;;;;;;;;;
1899.0;1782.6;;;;;;;;;;;;;;;;;-14.526811;-6.172369;-54.773094;;1680.5
1899.0;1782.6;;;;;;;;;;;;;;0.86196476;-0.16937773;-0.1617481;;;;;1680.5
1899.0;1782.6;;;;;;;;;;;;;;;;;-17.582476;-6.061739;-50.96591;;1680.5
1899.0;1782.6;;;;;;;;;;;;;;0.8302255;-0.15173803;-0.14587848;;;;;1680.5
1899.0;1782.6;;;;;;;;;;;;;;;;;-21.244698;-6.75985;-46.010468;;1690.1
1899.0;1782.6;;;;;;;;;;;;;;0.8258919;-0.1477096;-0.14117862;;;;;1690.1
1899.0;1782.6;;;;;;;;;;;;;;;;;-25.513474;-6.0731835;-40.93295;;1690.1
1899.0;1782.6;;;;;;;;;;;;;;0.8008057;-0.13086337;-0.11890011;;;;;1690.1
1899.0;1782.6;;;;;;;;;;;;;;;;;-30.777916;-5.7451096;-36.0271;;1699.7
1899.0;1782.6;;;;;;;;;;;;;;0.7740104;-0.11780145;-0.08319346;;;;;1699.7
1899.0;1782.6;;;;;;;;;;;;;;;;;-36.656544;-6.550035;-31.132694;;1699.7
1899.0;1782.6;;;;;;;;;;;;;;0.7830439;-0.10925627;-0.05182043;;;;;1699.7
1900.0;1783.4;;;;;;;;;;;;;;;;;-42.783134;-6.8361464;-26.615955;;1709.3
1900.0;1783.4;;;;;;;;;;;;;;0.75936157;-0.093264565;-0.06402783;;;;;1709.3
1900.0;1783.4;;;;;;;;;;;;;;;;;-50.035095;-0.23651844;-22.858364;;1709.3
1900.0;1783.4;;;;;;;;;;;;;;0.6960051;-0.06060976;0.0053712577;;;;;1709.3
1900.0;1783.4;;;;;;;;;;;;;;;;;-57.35191;0.96896267;-18.841366;;1719.0
1900.0;1783.4;;;;;;;;;;;;;;0.69917905;-0.05365154;0.025757622;;;;;1719.0
1900.0;1783.4;;;;;;;;;;;;;;;;;-63.325905;0.59511095;-15.068514;;1719.0
1900.0;1783.4;;;;;;;;;;;;;;0.702353;-0.045289468;0.012146367;;;;;1719.0
1900.0;1783.4;;;;;;;;;;;;;;;;;-68.54457;1.0872219;-11.532182;;1728.6
1900.0;1783.4;;;;;;;;;;;;;;0.70082706;-0.036744285;-0.0010986663;;;;;1728.6
1900.0;1783.4;;;;;;;;;;;;;;;;;-72.6455;2.094333;-7.6448865;;1728.6
1900.0;1783.4;;;;;;;;;;;;;;0.70778525;-0.027771844;-0.012756737;;;;;1728.6
1900.0;1782.8;262143;262143;12537;;;;;;;;;;;;;;;;;;
1900.0;1786.4;;;;;;;;;;16.502884;18.482773;-24.704735;;;;;;;;;
1900.0;1786.4;;;;;;;0.18659016;-0.962859;0.120365;;;;;;;;;;;;
1900.0;1786.4;;;;;;;;;;15.64455;18.528551;-23.25129;;;;;;;;;
1900.0;1786.4;;;;;;;0.18182927;-0.9631031;0.12372204;;;;;;;;;;;;
1900.0;1790.1;;;;-0.22454837;0.76410687;0.25303653;;;;;;;;;;;;;;;
1900.0;1790.1;;;;-0.22316363;0.76646054;0.25358966;;;;;;;;;;;;;;;
1900.0;1790.1;;;;-0.22177508;0.7688333;0.25317767;;;;;;;;;;;;;;;
1900.0;1790.1;;;;-0.22076419;0.77134335;0.25281528;;;;;;;;;;;;;;;
1900.0;1790.1;;;;-0.21902087;0.7738;0.25271228;;;;;;;;;;;;;;;
1901.0;1795.9;;;;;;;;;;14.805292;18.326365;-21.725365;;;;;;;;;
1901.0;1795.9;;;;;;;0.1782281;-0.9646901;0.1241493;;;;;;;;;;;;
1901.0;1795.9;;;;;;;;;;13.782922;17.929625;-20.119328;;;;;;;;;
1901.0;1795.9;;;;;;;0.17291787;-0.9682913;0.12591937;;;;;;;;;;;;
1901.0;1800.1;;;;-0.21759036;0.77674496;0.2531357;;;;;;;;;;;;;;;
1901.0;1800.1;;;;-0.21627429;0.7797204;0.25383;;;;;;;;;;;;;;;
1901.0;1800.1;;;;-0.21539691;0.7828218;0.254612;;;;;;;;;;;;;;;
1901.0;1800.1;;;;-0.21462634;0.78590024;0.2558823;;;;;;;;;;;;;;;
1901.0;1800.1;;;;-0.21413425;0.78935635;0.2578812;;;;;;;;;;;;;;;
1901.0;1802.7;262143;262143;12537;;;;;;;;;;;;;;;;;;
1901.0;1805.4;;;;;;;;;;12.802515;17.406994;-18.52092;;;;;;;;;
1901.0;1805.4;;;;;;;0.16968292;-0.96877956;0.12872708;;;;;;;;;;;;
1901.0;1805.4;;;;;;;;;;marras.17;16.636404;-16.930143;;;;;;;;;
1901.0;1805.4;;;;;;;0.16705832;-0.97286904;0.13226722;;;;;;;;;;;;
1901.0;1808.6;;;;;;;;;;;;;-989;;;;;;;;
1901.0;1808.6;;;;;;;;;;;;;-108;;;;;;;;
1901.0;1808.6;;;;;;;;;;;;;828;;;;;;;;
1901.0;1808.6;;;;;;;;;;;;;1607;;;;;;;;
1901.0;1808.6;;;;;;;;;;;;;2258;;;;;;;;
1901.0;1810.1;;;;-0.21334079;0.79309094;0.25984958;;;;;;;;;;;;;;;
1901.0;1810.1;;;;-0.21241763;0.79750836;0.26256183;;;;;;;;;;;;;;;
1901.0;1810.1;;;;-0.21171573;0.80181515;0.26500323;;;;;;;;;;;;;;;
1901.0;1810.1;;;;-0.21130756;0.80557644;0.26627734;;;;;;;;;;;;;;;
1901.0;1810.1;;;;-0.21076968;0.8094293;0.26820377;;;;;;;;;;;;;;;
1904.0;1814.9;;;;;;;;;;10.910368;15.770439;-15.251625;;;;;;;;;
1904.0;1814.9;;;;;;;0.16583759;-0.9731742;0.13531907;;;;;;;;;;;;
1904.0;1814.9;;;;;;;;;;9.960478;14.797663;-13.466292;;;;;;;;;
1904.0;1814.9;;;;;;;0.1650441;-0.97470015;0.1394696;;;;;;;;;;;;
1904.0;1820.2;;;;-0.2104607;0.8128015;0.2697411;;;;;;;;;;;;;;;
1904.0;1820.2;;;;-0.21017459;0.8155061;0.27196124;;;;;;;;;;;;;;;
1904.0;1820.2;;;;-0.20981982;0.81866467;0.27419284;;;;;;;;;;;;;;;
1904.0;1820.2;;;;-0.21008304;0.8212205;0.27650836;;;;;;;;;;;;;;;
1904.0;1820.2;;;;-0.21030429;0.8229486;0.27853397;;;;;;;;;;;;;;;
1904.0;1822.9;262143;262143;12538;;;;;;;;;;;;;;;;;;
1904.0;1824.5;;;;;;;;;;9.041108;13.809626;-11.715293;;;;;;;;;
1904.0;1824.5;;;;;;;0.16266365;-0.9734794;0.14508499;;;;;;;;;;;;
1904.0;1824.5;;;;;;;;;;8.1331835;12.703329;-9.945219;;;;;;;;;
1904.0;1824.5;;;;;;;0.16113773;-0.9708548;0.14893033;;;;;;;;;;;;
1904.0;1830.3;;;;-0.210125;0.8243028;0.2812424;;;;;;;;;;;;;;;
1904.0;1830.3;;;;-0.20991519;0.8255235;0.2844315;;;;;;;;;;;;;;;
1904.0;1830.3;;;;-0.20939639;0.82699597;0.2882004;;;;;;;;;;;;;;;
1904.0;1830.3;;;;-0.20883945;0.8283349;0.2920151;;;;;;;;;;;;;;;
1904.0;1830.3;;;;-0.20782855;0.8300401;0.29589084;;;;;;;;;;;;;;;
1904.0;1834.1;;;;;;;;;;7.2595906;11.669515;-8.171331;;;;;;;;;
1904.0;1834.1;;;;;;;0.16083254;-0.9670095;0.15533921;;;;;;;;;;;;
1904.0;1834.1;;;;;;;;;;6.45085;10.597552;-6.4012575;;;;;;;;;
1904.0;1834.1;;;;;;;0.16016114;-0.9609668;0.1612598;;;;;;;;;;;;
1906.0;1840.4;;;;-0.2064896;0.8313981;0.2994385;;;;;;;;;;;;;;;
1906.0;1840.4;;;;-0.20489123;0.8330842;0.3023682;;;;;;;;;;;;;;;
1906.0;1840.4;;;;-0.20336917;0.8343431;0.30456927;;;;;;;;;;;;;;;
1906.0;1840.4;;;;-0.20194629;0.83568585;0.3065453;;;;;;;;;;;;;;;
1906.0;1840.4;;;;-0.20083621;0.83675015;0.30757144;;;;;;;;;;;;;;;
1906.0;1842.8;;;;;;;;;;;;;;;;;-74.816124;3.8300729;-4.0665917;;1738.3
1906.0;1842.8;;;;;;;;;;;;;;0.69289225;-0.041505173;-0.023071993;;;;;1738.3
1906.0;1842.8;;;;;;;;;;;;;;;;;-74.85428;5.4017763;-1.0910367;;1738.3
1906.0;1842.8;;;;;;;;;;;;;;0.6723838;-0.047853023;-0.028199103;;;;;1738.3
1906.0;1842.8;;;;;;;;;;;;;;;;;-73.58394;4.7418137;2.010407;;1748.0
1906.0;1842.8;;;;;;;;;;;;;;0.65364546;-0.07306131;-0.05505539;;;;;1748.0
1906.0;1842.8;;;;;;;;;;;;;;;;;-70.12009;2.639851;4.9668875;;1748.0
1906.0;1842.8;;;;;;;;;;;;;;0.62746054;-0.09747612;-0.09179968;;;;;1748.0
1906.0;1842.8;;;;;;;;;;;;;;;;;-65.51561;-0.29755548;8.224739;;1757.7
1906.0;1842.8;;;;;;;;;;;;;;0.6028016;-0.12652974;-0.12897122;;;;;1757.7
1906.0;1842.8;;;;;;;;;;;;;;;;;-60.29313;-3.6545916;11.097293;;1757.7
1906.0;1842.8;;;;;;;;;;;;;;0.57911927;-0.14825892;-0.16333507;;;;;1757.7
1907.0;1843.6;;;;;;;;;;;;;;;;;-53.548542;-6.572924;13.225959;;1767.3
1907.0;1843.6;;;;;;;;;;;;;;0.5701468;-0.1563158;-0.19843134;;;;;1767.3
1907.0;1843.6;;;;;;;;;;;;;;;;;-44.667652;-7.9004793;15.0112915;;1767.3
1907.0;1843.6;;;;;;;;;;;;;;0.5674612;-0.15643787;-0.21283609;;;;;1767.3
1907.0;1843.6;;;;;;;;;;;;;;;;;-34.134953;-8.320109;16.819515;;1777.0
1907.0;1843.6;;;;;;;;;;;;;;0.5751518;-0.15332499;-0.21045564;;;;;1777.0
1907.0;1843.6;;;;;;;;;;;;;;;;;-23.792994;-8.80459;19.028292;;1777.0
1907.0;1843.6;;;;;;;;;;;;;;0.58534503;-0.1633961;-0.19568469;;;;;1777.0
1907.0;1843.6;;;;;;;;;;;;;;;;;-15.339366;-10.284738;21.156958;;1786.7
1907.0;1843.6;;;;;;;;;;;;;;0.6010926;-0.17499313;-0.18695639;;;;;1786.7
1907.0;1843.6;;;;;;;;;;;;;;;;;-9.926145;-12.070071;23.815882;;1786.7
1907.0;1843.6;;;;;;;;;;;;;;0.62202823;-0.18420972;-0.18652913;;;;;1786.7
1907.0;1843.5;;;;;;;;;;5.672628;9.521775;-4.81048;;;;;;;;;
1907.0;1843.5;;;;;;;0.15619373;-0.9549852;0.1657155;;;;;;;;;;;;
1907.0;1843.5;;;;;;;;;;4.81048;8.342998;-3.1662953;;;;;;;;;
1907.0;1843.5;;;;;;;0.15643787;-0.9502854;0.16766869;;;;;;;;;;;;
1907.0;1843.0;262143;262143;12535;;;;;;;;;;;;;;;;;;
1907.0;1848.8;;;;;;;;;;;;;3076;;;;;;;;
1907.0;1848.8;;;;;;;;;;;;;4254;;;;;;;;
1907.0;1848.8;;;;;;;;;;;;;5246;;;;;;;;
1907.0;1848.8;;;;;;;;;;;;;5278;;;;;;;;
1907.0;1848.8;;;;;;;;;;;;;4612;;;;;;;;
1908.0;1850.2;;;;-0.20073703;0.83794796;0.3089333;;;;;;;;;;;;;;;
1908.0;1850.2;;;;-0.20029452;0.83901227;0.31043628;;;;;;;;;;;;;;;
1908.0;1850.2;;;;-0.20050433;0.8402177;0.3118172;;;;;;;;;;;;;;;
1908.0;1850.2;;;;-0.20105746;0.8411943;0.3126259;;;;;;;;;;;;;;;
1908.0;1850.2;;;;-0.20084766;0.84191144;0.3129845;;;;;;;;;;;;;;;
1908.0;1853.1;;;;;;;;;;3.9902954;7.126072;-1.7090366;;;;;;;;;
1908.0;1853.1;;;;;;;0.15417951;-0.9437544;0.1693167;;;;;;;;;;;;
1908.0;1853.1;;;;;;;;;;3.1815546;6.187628;-0.30518508;;;;;;;;;
1908.0;1853.1;;;;;;;0.15387432;-0.93856627;0.17126988;;;;;;;;;;;;
1908.0;1860.2;;;;-0.20007327;0.84259427;0.31261066;;;;;;;;;;;;;;;
1908.0;1860.2;;;;-0.19917682;0.84329236;0.31229404;;;;;;;;;;;;;;;
1908.0;1860.2;;;;-0.19780734;0.8434602;0.31238177;;;;;;;;;;;;;;;
1908.0;1860.2;;;;-0.19672778;0.84424603;0.31251147;;;;;;;;;;;;;;;
1908.0;1860.2;;;;-0.19536594;0.8450433;0.31344607;;;;;;;;;;;;;;;
1908.0;1862.6;;;;;;;;;;2.357555;5.2072206;1.0528886;;;;;;;;;
1908.0;1862.6;;;;;;;0.15344706;-0.9353313;0.16980499;;;;;;;;;;;;
1908.0;1862.6;;;;;;;;;;1.4687033;4.154332;2.3079624;;;;;;;;;
1908.0;1862.6;;;;;;;0.15295877;-0.92947173;0.16913357;;;;;;;;;;;;
1908.0;1863.1;262143;262143;12540;;;;;;;;;;;;;;;;;;
1964.0;1870.3;;;;-0.19405368;0.84653103;0.31403354;;;;;;;;;;;;;;;
1964.0;1870.3;;;;-0.19285205;0.84749234;0.31339267;;;;;;;;;;;;;;;
1964.0;1870.3;;;;-0.19235614;0.84913266;0.31271365;;;;;;;;;;;;;;;
1964.0;1870.3;;;;-0.19134524;0.8506204;0.31244662;;;;;;;;;;;;;;;
1964.0;1870.3;;;;-0.19106296;0.8533479;0.312027;;;;;;;;;;;;;;;
1964.0;1872.2;;;;;;;;;;0.65233314;3.2616658;3.5477767;;;;;;;;;
1964.0;1872.2;;;;;;;0.15173803;-0.92501605;0.17041536;;;;;;;;;;;;
1964.0;1872.2;;;;;;;;;;-0.13733329;2.5406659;4.7189245;;;;;;;;;
1964.0;1872.2;;;;;;;0.1495407;-0.9223304;0.17035432;;;;;;;;;;;;
1964.0;1880.2;;;;-0.19014743;0.85541165;0.31172565;;;;;;;;;;;;;;;
1964.0;1880.2;;;;-0.19013217;0.85793316;0.31130603;;;;;;;;;;;;;;;
1964.0;1880.2;;;;-0.18987277;0.8604928;0.3112755;;;;;;;;;;;;;;;
1964.0;1880.2;;;;-0.19039539;0.8627473;0.31078723;;;;;;;;;;;;;;;
1964.0;1880.2;;;;-0.19145587;0.8653413;0.31089023;;;;;;;;;;;;;;;
1964.0;1881.6;;;;;;;;;;-1.0872219;1.6747032;5.7641835;;;;;;;;;
1964.0;1881.6;;;;;;;0.14746544;-0.9197058;0.17065951;;;;;;;;;;;;
1964.0;1881.6;;;;;;;;;;-1.8730735;1.0071108;6.7293315;;;;;;;;;
1964.0;1881.6;;;;;;;0.14966278;-0.9182409;0.16974396;;;;;;;;;;;;
1964.0;1883.1;262143;262143;12542;;;;;;;;;;;;;;;;;;
1964.0;1888.9;;;;;;;;;;;;;4335;;;;;;;;
1964.0;1888.9;;;;;;;;;;;;;4971;;;;;;;;
1964.0;1888.9;;;;;;;;;;;;;5769;;;;;;;;
1964.0;1888.9;;;;;;;;;;;;;5837;;;;;;;;
1964.0;1888.9;;;;;;;;;;;;;5347;;;;;;;;
1965.0;1890.3;;;;-0.19202426;0.8670007;0.31081393;;;;;;;;;;;;;;;
1965.0;1890.3;;;;-0.19328693;0.8690759;0.3109322;;;;;;;;;;;;;;;
1965.0;1890.3;;;;-0.19402698;0.87109387;0.31144336;;;;;;;;;;;;;;;
1965.0;1890.3;;;;-0.19520953;0.87319577;0.31235126;;;;;;;;;;;;;;;
1965.0;1890.3;;;;-0.19609454;0.87560666;0.3126488;;;;;;;;;;;;;;;
1965.0;1891.3;;;;;;;;;;-2.727592;0.42725915;7.698294;;;;;;;;;
1965.0;1891.3;;;;;;;0.1507004;-0.9164708;0.16888943;;;;;;;;;;;;
1965.0;1891.3;;;;;;;;;;-3.521073;-0.10299997;8.5909605;;;;;;;;;
1965.0;1891.3;;;;;;;0.15002899;-0.9155553;0.17090365;;;;;;;;;;;;
1965.0;1900.4;;;;-0.19702151;0.8782884;0.3133736;;;;;;;;;;;;;;;
1965.0;1900.4;;;;-0.19780353;0.8814851;0.31410983;;;;;;;;;;;;;;;
1965.0;1900.4;;;;-0.19890216;0.8850404;0.31547168;;;;;;;;;;;;;;;
1965.0;1900.4;;;;-0.20022967;0.8893739;0.31699374;;;;;;;;;;;;;;;
1965.0;1900.4;;;;-0.20180896;0.8944284;0.3184128;;;;;;;;;;;;;;;
1965.0;1900.9;;;;;;;;;;-4.448073;-0.7705924;9.4569235;;;;;;;;;
1965.0;1900.9;;;;;;;0.15063937;-0.91799676;0.17181921;;;;;;;;;;;;
1965.0;1900.9;;;;;;;;;;-5.2110357;-1.4343699;10.280923;;;;;;;;;
1965.0;1900.9;;;;;;;0.14972381;-0.9213538;0.17291787;;;;;;;;;;;;
1967.0;1903.0;;;;;;;;;;;;;;;;;-5.813776;-13.889736;26.364178;;1796.2
1967.0;1903.0;;;;;;;;;;;;;;0.65865046;-0.18164617;-0.19574572;;;;;1796.2
1967.0;1903.0;;;;;;;;;;;;;;;;;-3.3646657;-12.928404;28.065584;;1796.2
1967.0;1903.0;;;;;;;;;;;;;;0.69972837;-0.16095462;-0.16602069;;;;;1796.2
1967.0;1903.0;;;;;;;;;;;;;;;;;-3.5515916;-8.747368;28.927732;;1805.9
1967.0;1903.0;;;;;;;;;;;;;;0.7269509;-0.13605152;-0.09619434;;;;;1805.9
1967.0;1903.0;;;;;;;;;;;;;;;;;-3.8987396;-3.521073;28.775139;;1805.9
1967.0;1903.0;;;;;;;;;;;;;;0.7612537;-0.09009064;-0.02435377;;;;;1805.9
1967.0;1903.0;;;;;;;;;;;;;;;;;-3.707999;1.7967772;27.71462;;1815.6
1967.0;1903.0;;;;;;;;;;;;;;0.8027589;-0.03729362;0.007202368;;;;;1815.6
1967.0;1903.0;;;;;;;;;;;;;;;;;-3.3989992;6.2562943;26.348919;;1815.6
1967.0;1903.0;;;;;;;;;;;;;;0.84701073;0.0144657735;0.014221625;;;;;1815.6
1967.0;1903.8;;;;;;;;;;;;;;;;;-2.8000731;7.9577017;24.533068;;1825.1
1967.0;1903.8;;;;;;;;;;;;;;0.90694904;0.07739494;1.2207404E-4;;;;;1825.1
1967.0;1903.8;;;;;;;;;;;;;;;;;-2.8763695;5.7031465;22.93466;;1825.1
1967.0;1903.8;;;;;;;;;;;;;;0.9654225;0.14947966;-0.044557024;;;;;1825.1
1967.0;1903.8;;;;;;;;;;;;;;;;;-4.2649617;2.6741846;21.935179;;1834.7
1967.0;1903.8;;;;;;;;;;;;;;1.0493485;0.21045564;-0.050111394;;;;;1834.7
1967.0;1903.8;;;;;;;;;;;;;;;;;-6.0312204;-0.19455549;21.439253;;1834.7
1967.0;1903.8;;;;;;;;;;;;;;1.1352886;0.25147253;-0.038270213;;;;;1834.7
1967.0;1903.8;;;;;;;;;;;;;;;;;-8.037812;-0.8545183;20.336771;;1844.4
1967.0;1903.8;;;;;;;;;;;;;;1.1869869;0.31434065;-0.04156621;;;;;1844.4
1967.0;1903.8;;;;;;;;;;;;;;;;;-11.741997;-1.5526291;19.077885;;1844.4
1967.0;1903.8;;;;;;;;;;;;;;1.235084;0.3588977;-0.078554645;;;;;1844.4
1968.0;1903.3;262143;262143;12536;;;;;;;;;;;;;;;;;;
1968.0;1910.4;;;;;;;;;;-6.084628;-1.9379253;11.0400715;;;;;;;;;
1968.0;1910.4;;;;;;;0.14947966;-0.92538226;0.17358929;;;;;;;;;;;;
1968.0;1910.4;;;;;;;;;;-7.003998;-2.437666;11.791589;;;;;;;;;
1968.0;1910.4;;;;;;;0.1485641;-0.9307535;0.17297891;;;;;;;;;;;;
1968.0;1910.4;;;;-0.20364001;0.89995587;0.32028964;;;;;;;;;;;;;;;
1968.0;1910.4;;;;-0.20514682;0.90607464;0.3222275;;;;;;;;;;;;;;;
1968.0;1910.4;;;;-0.20672229;0.91306317;0.32369617;;;;;;;;;;;;;;;
1968.0;1910.4;;;;-0.20839313;0.9200555;0.325264;;;;;;;;;;;;;;;
1968.0;1910.4;;;;-0.2099686;0.927086;0.32690433;;;;;;;;;;;;;;;
1968.0;1919.9;;;;;;;;;;-7.8585167;-2.8077028;12.569811;;;;;;;;;
1968.0;1919.9;;;;;;;0.14874722;-0.9391156;0.173101;;;;;;;;;;;;
1968.0;1919.9;;;;;;;;;;-8.659627;-3.2082584;13.275552;;;;;;;;;
1968.0;1919.9;;;;;;;0.14795373;-0.9465621;0.17413862;;;;;;;;;;;;
1968.0;1920.4;;;;-0.2116547;0.93411267;0.32791522;;;;;;;;;;;;;;;
1968.0;1920.4;;;;-0.21311954;0.9410707;0.32862857;;;;;;;;;;;;;;;
1968.0;1920.4;;;;-0.21404651;0.9474298;0.32860187;;;;;;;;;;;;;;;
1968.0;1920.4;;;;-0.21437839;0.95427334;0.3291817;;;;;;;;;;;;;;;
1968.0;1920.4;;;;-0.21490481;0.9608003;0.32960513;;;;;;;;;;;;;;;
1968.0;1923.3;262143;262143;12549;;;;;;;;;;;;;;;;;;
1968.0;1929.2;;;;;;;;;;;;;5137;;;;;;;;
1968.0;1929.2;;;;;;;;;;;;;5468;;;;;;;;
1968.0;1929.2;;;;;;;;;;;;;5820;;;;;;;;
1968.0;1929.2;;;;;;;;;;;;;5902;;;;;;;;
1968.0;1929.2;;;;;;;;;;;;;5953;;;;;;;;
2016.0;1929.5;;;;;;;;;;-9.5675535;-3.4943693;14.015625;;;;;;;;;
2016.0;1929.5;;;;;;;0.14685507;-0.95468;0.17767876;;;;;;;;;;;;
2016.0;1929.5;;;;;;;;;;-10.513627;-3.7385175;14.782403;;;;;;;;;
2016.0;1929.5;;;;;;;0.14539018;-0.96316415;0.17835017;;;;;;;;;;;;
2016.0;1930.4;;;;-0.21530154;0.96714413;0.33023456;;;;;;;;;;;;;;;
2016.0;1930.4;;;;-0.21518329;0.9729196;0.33076862;;;;;;;;;;;;;;;
2016.0;1930.4;;;;-0.21517184;0.97872174;0.33103946;;;;;;;;;;;;;;;
2016.0;1930.4;;;;-0.21511844;0.98422635;0.33209231;;;;;;;;;;;;;;;
2016.0;1930.4;;;;-0.21489337;0.9889413;0.33145526;;;;;;;;;;;;;;;
2016.0;1938.9;;;;;;;;;;-11.436811;-4.0246286;15.594958;;;;;;;;;
2016.0;1938.9;;;;;;;0.1441084;-0.9715262;0.1820124;;;;;;;;;;;;
2016.0;1938.9;;;;;;;;;;-12.287516;-4.3221836;16.472366;;;;;;;;;
2016.0;1938.9;;;;;;;0.14252144;-0.9772637;0.18707846;;;;;;;;;;;;
2016.0;1940.4;;;;-0.21431354;0.993641;0.3306847;;;;;;;;;;;;;;;
2016.0;1940.4;;;;-0.21342853;0.9983293;0.329834;;;;;;;;;;;;;;;
2016.0;1940.4;;;;-0.21265033;1.0028573;0.3286629;;;;;;;;;;;;;;;
2016.0;1940.4;;;;-0.21152118;1.0064088;0.32726672;;;;;;;;;;;;;;;
2016.0;1940.4;;;;-0.2106972;1.0097657;0.32515338;;;;;;;;;;;;;;;
2016.0;1943.4;262143;262143;12545;;;;;;;;;;;;;;;;;;
2016.0;1948.6;;;;;;;;;;-13.065737;-4.627369;17.391735;;;;;;;;;
2016.0;1948.6;;;;;;;0.14093448;-0.9850764;0.19177832;;;;;;;;;;;;
2016.0;1948.6;;;;;;;;;;-13.855403;-5.069887;18.372143;;;;;;;;;
2016.0;1948.6;;;;;;;0.13757744;-0.98928803;0.19513535;;;;;;;;;;;;
2018.0;1950.5;;;;-0.20952609;1.0132142;0.32306674;;;;;;;;;;;;;;;
2018.0;1950.5;;;;-0.20822528;1.016018;0.32063678;;;;;;;;;;;;;;;
2018.0;1950.5;;;;-0.20699695;1.0187341;0.31854632;;;;;;;;;;;;;;;
2018.0;1950.5;;;;-0.20587161;1.0213052;0.3159714;;;;;;;;;;;;;;;
2018.0;1950.5;;;;-0.2042847;1.023697;0.31334308;;;;;;;;;;;;;;;
2018.0;1958.2;;;;;;;;;;-14.709922;-5.706961;19.402143;;;;;;;;;
2018.0;1958.2;;;;;;;0.13574633;-0.99484235;0.19775994;;;;;;;;;;;;
2018.0;1958.2;;;;;;;;;;-15.720848;-6.324961;20.428328;;;;;;;;;
2018.0;1958.2;;;;;;;0.13373211;-0.9994812;0.19898069;;;;;;;;;;;;
2018.0;1960.6;;;;-0.20360568;1.0257493;0.31085208;;;;;;;;;;;;;;;
2018.0;1960.6;;;;-0.203064;1.0270158;0.30808643;;;;;;;;;;;;;;;
2018.0;1960.6;;;;-0.20187;1.0282937;0.3050194;;;;;;;;;;;;;;;
2018.0;1960.6;;;;-0.20080951;1.0286714;0.30205157;;;;;;;;;;;;;;;
2018.0;1960.6;;;;-0.20009616;1.029751;0.29835132;;;;;;;;;;;;;;;
2019.0;1963.8;;;;;;;;;;;;;;;;;-16.144293;-1.7242957;17.80755;;1854.1
2019.0;1963.8;;;;;;;;;;;;;;1.3034456;0.40418714;-0.15668203;;;;;1854.1
2019.0;1963.8;;;;;;;;;;;;;;;;;-19.64629;2.887814;15.221107;;1854.1
2019.0;1963.8;;;;;;;;;;;;;;1.3457443;0.45716727;-0.24097416;;;;;1854.1
2019.0;1963.8;;;;;;;;;;;;;;;;;-19.619585;9.166997;11.993774;;1863.8
2019.0;1963.8;;;;;;;;;;;;;;1.3463546;0.53224283;-0.30909148;;;;;1863.8
2019.0;1963.8;;;;;;;;;;;;;;;;;-16.544847;9.998627;9.876553;;1863.8
2019.0;1963.8;;;;;;;;;;;;;;1.3150426;0.58589435;-0.39381084;;;;;1863.8
2019.0;1963.8;;;;;;;;;;;;;;;;;-15.381329;5.5734425;7.595294;;1873.5
2019.0;1963.8;;;;;;;;;;;;;;1.2714621;0.6493118;-0.51435894;;;;;1873.5
2019.0;1963.8;;;;;;;;;;;;;;;;;-15.4690695;1.0910367;6.95822;;1873.5
2019.0;1963.8;;;;;;;;;;;;;;1.198584;0.6827601;-0.50398266;;;;;1873.5
2019.0;1963.7;262143;262143;12542;;;;;;;;;;;;;;;;;;
2020.0;1964.4;;;;;;;;;;;;;;;;;-12.676625;-5.2301097;8.156072;;1883.1
2020.0;1964.4;;;;;;;;;;;;;;1.1431624;0.6563921;-0.4067507;;;;;1883.1
2020.0;1964.4;;;;;;;;;;;;;;;;;-7.003998;-9.189886;7.6792197;;1883.1
2020.0;1964.4;;;;;;;;;;;;;;1.0975677;0.65578175;-0.3120823;;;;;1883.1
2020.0;1964.4;;;;;;;;;;;;;;;;;1.9875181;-7.3587756;6.2906275;;1892.7
2020.0;1964.4;;;;;;;;;;;;;;1.0309153;0.6269112;-0.15607166;;;;;1892.7
2020.0;1964.4;;;;;;;;;;;;;;;;;14.622181;-9.998627;5.142369;;1892.7
2020.0;1964.4;;;;;;;;;;;;;;0.98440504;0.5805841;-0.065309614;;;;;1892.7
2020.0;1964.4;;;;;;;;;;;;;;;;;27.878658;-13.855403;3.9902954;;1902.3
2020.0;1964.4;;;;;;;;;;;;;;0.9554735;0.5157628;-0.015503403;;;;;1902.3
2020.0;1964.4;;;;;;;;;;;;;;;;;38.804287;-17.254402;2.8725548;;1902.3
2020.0;1964.4;;;;;;;;;;;;;;0.9543138;0.42811364;0.04687643;;;;;1902.3
2020.0;1967.6;;;;;;;;;;-16.640219;-7.0688496;21.584217;;;;;;;;;
2020.0;1967.6;;;;;;;0.13434248;-1.009186;0.19794305;;;;;;;;;;;;
2020.0;1967.6;;;;;;;;;;-17.773216;-7.9958496;22.892696;;;;;;;;;
2020.0;1967.6;;;;;;;0.13373211;-1.0247505;0.19647816;;;;;;;;;;;;
2020.0;1969.3;;;;;;;;;;;;;6039;;;;;;;;
2020.0;1969.3;;;;;;;;;;;;;6014;;;;;;;;
2020.0;1969.3;;;;;;;;;;;;;6077;;;;;;;;
2020.0;1969.3;;;;;;;;;;;;;6470;;;;;;;;
2020.0;1969.3;;;;;;;;;;;;;6774;;;;;;;;
2020.0;1970.5;;;;-0.19903186;1.0309144;0.29449084;;;;;;;;;;;;;;;
2020.0;1970.5;;;;-0.19790271;1.0317346;0.2894936;;;;;;;;;;;;;;;
2020.0;1970.5;;;;-0.19636539;1.0331804;0.2845612;;;;;;;;;;;;;;;
2020.0;1970.5;;;;-0.19560245;1.0349389;0.27786258;;;;;;;;;;;;;;;
2020.0;1970.5;;;;-0.19476321;1.0377961;0.27040866;;;;;;;;;;;;;;;
2076.0;1977.2;;;;;;;;;;-19.05118;-9.166997;24.433882;;;;;;;;;
2076.0;1977.2;;;;;;;0.13434248;-1.0456862;0.19397564;;;;;;;;;;;;
2076.0;1977.2;;;;;;;;;;-20.363476;-10.307627;26.093327;;;;;;;;;
2076.0;1977.2;;;;;;;0.13495284;-1.0755943;0.19312114;;;;;;;;;;;;
2076.0;1980.5;;;;-0.19469836;1.0427858;0.26321033;;;;;;;;;;;;;;;
2076.0;1980.5;;;;-0.19414523;1.0500604;0.25617984;;;;;;;;;;;;;;;
2076.0;1980.5;;;;-0.19417194;1.0592576;0.25006488;;;;;;;;;;;;;;;
2076.0;1980.5;;;;-0.19482806;1.0717279;0.2457085;;;;;;;;;;;;;;;
2076.0;1980.5;;;;-0.19528964;1.0870286;0.24391177;;;;;;;;;;;;;;;
2076.0;1983.6;262143;262143;12539;;;;;;;;;;;;;;;;;;
2076.0;1986.7;;;;;;;;;;-21.668142;-11.383404;27.958769;;;;;;;;;
2076.0;1986.7;;;;;;;0.13959166;-1.1124607;0.19794305;;;;;;;;;;;;
2076.0;1986.7;;;;;;;;;;-22.885067;-12.436293;29.950102;;;;;;;;;
2076.0;1986.7;;;;;;;0.14142278;-1.1484115;0.20136112;;;;;;;;;;;;
2076.0;1990.4;;;;-0.19654086;1.1044465;0.24516681;;;;;;;;;;;;;;;
2076.0;1990.4;;;;-0.1975899;1.1238137;0.24720767;;;;;;;;;;;;;;;
2076.0;1990.4;;;;-0.19954303;1.1442491;0.25037768;;;;;;;;;;;;;;;
2076.0;1990.4;;;;-0.20137027;1.1647683;0.2542267;;;;;;;;;;;;;;;
2076.0;1990.4;;;;-0.20299533;1.1839448;0.2573929;;;;;;;;;;;;;;;
2076.0;1996.0;;;;;;;;;;-24.08292;-13.698996;32.155064;;;;;;;;;
2076.0;1996.0;;;;;;;0.14172795;-1.1778924;0.20496231;;;;;;;;;;;;
2076.0;1996.0;;;;;;;;;;-25.139622;-14.988402;34.66521;;;;;;;;;
2076.0;1996.0;;;;;;;0.14123966;-1.1964476;0.2097232;;;;;;;;;;;;
2079.0;2000.4;;;;-0.2033005;1.2019769;0.26140597;;;;;;;;;;;;;;;
2079.0;2000.4;;;;-0.20291904;1.218342;0.26365665;;;;;;;;;;;;;;;
2079.0;2000.4;;;;-0.20183185;1.2316476;0.26514056;;;;;;;;;;;;;;;
2079.0;2000.4;;;;-0.19992068;1.24152;0.26570514;;;;;;;;;;;;;;;
2079.0;2000.4;;;;-0.19703296;1.2474862;0.2666054;;;;;;;;;;;;;;;
2079.0;2003.6;262143;262143;12544;;;;;;;;;;;;;;;;;;
2079.0;2005.7;;;;;;;;;;-26.08951;-16.49907;37.392803;;;;;;;;;
2079.0;2005.7;;;;;;;0.138493;-1.200293;0.21344645;;;;;;;;;;;;
2079.0;2005.7;;;;;;;;;;-27.024141;-18.23481;40.246284;;;;;;;;;
2079.0;2005.7;;;;;;;0.13373211;-1.1927243;0.21771905;;;;;;;;;;;;
2079.0;2009.4;;;;;;;;;;;;;6636;;;;;;;;
2079.0;2009.4;;;;;;;;;;;;;6305;;;;;;;;
2079.0;2009.4;;;;;;;;;;;;;6217;;;;;;;;
2079.0;2009.4;;;;;;;;;;;;;6539;;;;;;;;
2079.0;2009.4;;;;;;;;;;;;;6821;;;;;;;;
2079.0;2010.5;;;;-0.19369891;1.2499582;0.26736835;;;;;;;;;;;;;;;
2079.0;2010.5;;;;-0.19019702;1.2492028;0.26768497;;;;;;;;;;;;;;;
2079.0;2010.5;;;;-0.18684007;1.2453233;0.2689362;;;;;;;;;;;;;;;
2079.0;2010.5;;;;-0.18409349;1.2382394;0.2699013;;;;;;;;;;;;;;;
2079.0;2010.5;;;;-0.18161012;1.229107;0.27043536;;;;;;;;;;;;;;;
2079.0;2015.3;;;;;;;;;;-27.932066;-20.203253;42.89758;;;;;;;;;
2079.0;2015.3;;;;;;;0.13031404;-1.1774651;0.22235785;;;;;;;;;;;;
2079.0;2015.3;;;;;;;;;;-28.786585;-22.240362;45.37721;;;;;;;;;
2079.0;2015.3;;;;;;;0.12921537;-1.1559191;0.22815637;;;;;;;;;;;;
2080.0;2020.6;;;;-0.17976;1.218403;0.27173617;;;;;;;;;;;;;;;
2080.0;2020.6;;;;-0.17787935;1.2068712;0.27212527;;;;;;;;;;;;;;;
2080.0;2020.6;;;;-0.17708589;1.1949464;0.2725449;;;;;;;;;;;;;;;
2080.0;2020.6;;;;-0.17591478;1.1837426;0.2728882;;;;;;;;;;;;;;;
2080.0;2020.6;;;;-0.17538835;1.17305;0.27360156;;;;;;;;;;;;;;;
2080.0;2023.5;;;;;;;;;;;;;;;;;47.307507;-21.19892;1.8044069;;1911.9
2080.0;2023.5;;;;;;;;;;;;;;0.95455796;0.32526627;0.0783105;;;;;1911.9
2080.0;2023.5;;;;;;;;;;;;;;;;;56.92465;-24.38429;-0.14877774;;1911.9
2080.0;2023.5;;;;;;;;;;;;;;0.9734794;0.23285623;0.055543687;;;;;1911.9
2080.0;2023.5;;;;;;;;;;;;;;;;;67.63665;-25.196844;-1.9531846;;1921.6
2080.0;2023.5;;;;;;;;;;;;;;0.9506516;0.14734337;0.030030213;;;;;1921.6
2080.0;2023.5;;;;;;;;;;;;;;;;;77.81076;-28.927732;-2.826777;;1921.6
2080.0;2023.5;;;;;;;;;;;;;;0.9317911;0.068544574;-0.050294504;;;;;1921.6
2080.0;2023.5;;;;;;;;;;;;;;;;;83.918274;-32.92566;-2.7085178;;1931.2
2080.0;2023.5;;;;;;;;;;;;;;0.976104;-0.013550218;-0.12042604;;;;;1931.2
2080.0;2023.5;;;;;;;;;;;;;;;;;85.70742;-31.765953;-2.1324809;;1931.2
2080.0;2023.5;;;;;;;;;;;;;;1.0253608;-0.11444441;-0.19214454;;;;;1931.2
2081.0;2024.3;;;;;;;;;;;;;;;;;80.31327;-29.366436;-1.2779626;;1940.8
2081.0;2024.3;;;;;;;;;;;;;;1.1369976;-0.2806482;-0.28998688;;;;;1940.8
2081.0;2024.3;;;;;;;;;;;;;;;;;69.18164;-31.411175;1.0910367;;1940.8
2081.0;2024.3;;;;;;;;;;;;;;1.3989685;-0.47053438;-0.34784997;;;;;1940.8
2081.0;2024.3;;;;;;;;;;;;;;;;;56.11591;-24.967955;4.615925;;1950.5
2081.0;2024.3;;;;;;;;;;;;;;1.7726982;-0.583697;-0.17651907;;;;;1950.5
2081.0;2024.3;;;;;;;;;;;;;;;;;41.539505;3.5706656;5.4780726;;1950.5
2081.0;2024.3;;;;;;;;;;;;;;1.7934507;-0.52034056;0.39814448;;;;;1950.5
2081.0;2024.3;;;;;;;;;;;;;;;;;42.73736;11.078218;1.7128513;;1960.2
2081.0;2024.3;;;;;;;;;;;;;;1.2034669;-0.1953795;0.6075625;;;;;1960.2
2081.0;2024.3;;;;;;;;;;;;;;;;;54.23139;-27.962584;2.7581105;;1960.2
2081.0;2024.3;;;;;;;;;;;;;;1.0576495;-0.095583975;-0.014343699;;;;;1960.2
2081.0;2023.8;262143;262143;12535;;;;;;;;;;;;;;;;;;
2081.0;2024.8;;;;;;;;;;-29.816586;-24.460587;47.536392;;;;;;;;;
2081.0;2024.8;;;;;;;0.13177893;-1.1340678;0.22894986;;;;;;;;;;;;
2081.0;2024.8;;;;;;;;;;-30.80462;-26.554918;49.428543;;;;;;;;;
2081.0;2024.8;;;;;;;0.1276284;-1.114597;0.2290109;;;;;;;;;;;;
2081.0;2030.6;;;;-0.17499544;1.16391;0.27455142;;;;;;;;;;;;;;;
2081.0;2030.6;;;;-0.1752205;1.1564447;0.27559665;;;;;;;;;;;;;;;
2081.0;2030.6;;;;-0.17486955;1.1509515;0.27698138;;;;;;;;;;;;;;;
2081.0;2030.6;;;;-0.1749077;1.1462785;0.2779236;;;;;;;;;;;;;;;
2081.0;2030.6;;;;-0.17553712;1.142769;0.27801135;;;;;;;;;;;;;;;
2133.0;2034.4;;;;;;;;;;-31.971954;-28.695028;51.236763;;;;;;;;;
2133.0;2034.4;;;;;;;0.12591937;-1.1026947;0.22962126;;;;;;;;;;;;
2133.0;2034.4;;;;;;;;;;-33.18888;-30.728323;52.90002;;;;;;;;;
2133.0;2034.4;;;;;;;0.12494278;-1.0965911;0.2283395;;;;;;;;;;;;
2133.0;2040.6;;;;-0.17605592;1.14003;0.27793506;;;;;;;;;;;;;;;
2133.0;2040.6;;;;-0.17803575;1.1379472;0.27804187;;;;;;;;;;;;;;;
2133.0;2040.6;;;;-0.17937852;1.1358148;0.27704242;;;;;;;;;;;;;;;
2133.0;2040.6;;;;-0.18174364;1.1337625;0.276001;;;;;;;;;;;;;;;
2133.0;2040.6;;;;-0.18497469;1.1316491;0.2755547;;;;;;;;;;;;;;;
2133.0;2043.9;;;;;;;;;;-34.413433;-32.647175;54.311504;;;;;;;;;
2133.0;2043.9;;;;;;;0.12793359;-1.0983611;0.23175757;;;;;;;;;;;;
2133.0;2043.9;;;;;;;;;;-35.542618;-34.417248;55.551315;;;;;;;;;
2133.0;2043.9;;;;;;;0.13013093;-1.1025727;0.23517564;;;;;;;;;;;;
2133.0;2043.9;262143;262143;12534;;;;;;;;;;;;;;;;;;
2133.0;2049.6;;;;;;;;;;;;;6617;;;;;;;;
2133.0;2049.6;;;;;;;;;;;;;6265;;;;;;;;
2133.0;2049.6;;;;;;;;;;;;;6254;;;;;;;;
2133.0;2049.6;;;;;;;;;;;;;6334;;;;;;;;
2133.0;2049.6;;;;;;;;;;;;;6195;;;;;;;;
2133.0;2050.5;;;;-0.18867496;1.1299249;0.27417758;;;;;;;;;;;;;;;
2133.0;2050.5;;;;-0.19261554;1.1282502;0.27311328;;;;;;;;;;;;;;;
2133.0;2050.5;;;;-0.19625857;1.1264917;0.2715111;;;;;;;;;;;;;;;
2133.0;2050.5;;;;-0.20009616;1.1251184;0.27010348;;;;;;;;;;;;;;;
2133.0;2050.5;;;;-0.20384982;1.1245958;0.26725772;;;;;;;;;;;;;;;
2135.0;2053.3;;;;;;;;;;-36.545914;-35.988953;56.74154;;;;;;;;;
2135.0;2053.3;;;;;;;0.13605152;-1.1075778;0.23950927;;;;;;;;;;;;
2135.0;2053.3;;;;;;;;;;-37.52632;-37.430954;58.046207;;;;;;;;;
2135.0;2053.3;;;;;;;0.14490189;-1.1120335;0.24512467;;;;;;;;;;;;
2135.0;2060.5;;;;-0.20757297;1.1251756;0.26467136;;;;;;;;;;;;;;;
2135.0;2060.5;;;;-0.21053317;1.1267892;0.26132968;;;;;;;;;;;;;;;
2135.0;2060.5;;;;-0.21342471;1.1299325;0.2574921;;;;;;;;;;;;;;;
2135.0;2060.5;;;;-0.2162247;1.134842;0.25436023;;;;;;;;;;;;;;;
2135.0;2060.5;;;;-0.21908572;1.1411134;0.25098422;;;;;;;;;;;;;;;
2135.0;2062.9;;;;;;;;;;-38.312176;-38.66314;59.42717;;;;;;;;;
2135.0;2062.9;;;;;;;0.15411848;-1.114597;0.25171667;;;;;;;;;;;;
2135.0;2062.9;;;;;;;;;;-38.99884;-39.643543;60.88061;;;;;;;;;
2135.0;2062.9;;;;;;;0.16278572;-1.1143528;0.25959045;;;;;;;;;;;;
2135.0;2063.8;262143;262143;12530;;;;;;;;;;;;;;;;;;
2135.0;2070.6;;;;-0.2218552;1.1482049;0.24748233;;;;;;;;;;;;;;;
2135.0;2070.6;;;;-0.22446063;1.1573068;0.24492267;;;;;;;;;;;;;;;
2135.0;2070.6;;;;-0.22661975;1.1671182;0.24217227;;;;;;;;;;;;;;;
2135.0;2070.6;;;;-0.22905734;1.1769601;0.24035266;;;;;;;;;;;;;;;
2135.0;2070.6;;;;-0.23123172;1.1877443;0.23886493;;;;;;;;;;;;;;;
2135.0;2072.5;;;;;;;;;;-39.540543;-40.18906;62.288277;;;;;;;;;
2135.0;2072.5;;;;;;;0.17273477;-1.112949;0.2692343;;;;;;;;;;;;
2135.0;2072.5;;;;;;;;;;-39.994507;-40.467545;63.669243;;;;;;;;;
2135.0;2072.5;;;;;;;0.18262276;-1.1109958;0.27942747;;;;;;;;;;;;
2143.0;2080.7;;;;-0.23341373;1.198433;0.23804095;;;;;;;;;;;;;;;
2143.0;2080.7;;;;-0.23536304;1.2092248;0.23803332;;;;;;;;;;;;;;;
2143.0;2080.7;;;;-0.23701862;1.2193109;0.23741534;;;;;;;;;;;;;;;
2143.0;2080.7;;;;-0.23828891;1.228943;0.2368317;;;;;;;;;;;;;;;
2143.0;2080.7;;;;-0.23866656;1.2375451;0.2373772;;;;;;;;;;;;;;;
2143.0;2082.1;;;;;;;;;;-40.288246;-40.57817;64.882355;;;;;;;;;
2143.0;2082.1;;;;;;;0.19202246;-1.1069063;0.2891934;;;;;;;;;;;;
2143.0;2082.1;;;;;;;;;;-40.39506;-40.581985;65.99246;;;;;;;;;
2143.0;2082.1;;;;;;;0.20154424;-1.0992156;0.30005798;;;;;;;;;;;;
2143.0;2084.1;;;;;;;;;;;;;;;;;60.872982;-52.922913;4.360332;;1969.8
2143.0;2084.1;;;;;;;;;;;;;;1.063631;-0.0042115543;-0.48493913;;;;;1969.8
2143.0;2084.1;;;;;;;;;;;;;;;;;44.881283;-45.14069;7.801294;;1969.8
2143.0;2084.1;;;;;;;;;;;;;;1.0659505;-0.0054933317;-0.3953978;;;;;1969.8
2143.0;2084.1;;;;;;;;;;;;;;;;;19.192327;-31.834621;7.5189977;;1979.5
2143.0;2084.1;;;;;;;;;;;;;;1.0465407;0.003295999;-0.07373272;;;;;1979.5
2143.0;2084.1;;;;;;;;;;;;;;;;;3.9750361;-22.32429;4.116184;;1979.5
2143.0;2084.1;;;;;;;;;;;;;;1.0641804;0.08398694;0.1810358;;;;;1979.5
2143.0;2084.1;;;;;;;;;;;;;;;;;4.890591;-14.53444;0.4730369;;1989.1
2143.0;2084.1;;;;;;;;;;;;;;1.0707114;0.16199225;0.19879757;;;;;1989.1
2143.0;2084.1;;;;;;;;;;;;;;;;;13.481552;-5.901517;-4.20011;;1989.1
2143.0;2084.1;;;;;;;;;;;;;;1.0216987;0.26819667;0.072328866;;;;;1989.1
2147.0;2084.9;;;;;;;;;;;;;;;;;19.611956;-0.06103702;-8.777886;;1998.8
2147.0;2084.9;;;;;;;;;;;;;;0.9424116;0.36152226;-0.041322064;;;;;1998.8
2147.0;2084.9;;;;;;;;;;;;;;;;;18.402662;4.3221836;-11.638996;;1998.8
2147.0;2084.9;;;;;;;;;;;;;;0.90591145;0.40162358;-0.046388134;;;;;1998.8
2147.0;2084.9;;;;;;;;;;;;;;;;;10.505997;9.624775;-12.913144;;2008.5
2147.0;2084.9;;;;;;;;;;;;;;0.855739;0.3711661;0.01678518;;;;;2008.5
2147.0;2084.9;;;;;;;;;;;;;;;;;2.3461106;10.227515;-11.98996;;2008.5
2147.0;2084.9;;;;;;;;;;;;;;0.8564715;0.24732201;-0.002929777;;;;;2008.5
2147.0;2084.9;;;;;;;;;;;;;;;;;2.3232217;8.293406;-7.629627;;2018.2
2147.0;2084.9;;;;;;;;;;;;;;0.87099826;0.066530354;-0.100161746;;;;;2018.2
2147.0;2084.9;;;;;;;;;;;;;;;;;9.212775;7.9081087;-1.5411848;;2018.2
2147.0;2084.9;;;;;;;;;;;;;;0.92141485;-0.17169714;-0.14532915;;;;;2018.2
2147.0;2084.1;262143;262143;12521;;;;;;;;;;;;;;;;;;
2147.0;2089.8;;;;;;;;;;;;;5971;;;;;;;;
2147.0;2089.8;;;;;;;;;;;;;5798;;;;;;;;
2147.0;2089.8;;;;;;;;;;;;;5634;;;;;;;;
2147.0;2089.8;;;;;;;;;;;;;5262;;;;;;;;
2147.0;2089.8;;;;;;;;;;;;;5290;;;;;;;;
2147.0;2090.7;;;;-0.23881152;1.2452241;0.23842624;;;;;;;;;;;;;;;
2147.0;2090.7;;;;-0.23866656;1.2519914;0.2393265;;;;;;;;;;;;;;;
2147.0;2090.7;;;;-0.23834613;1.2577287;0.24056247;;;;;;;;;;;;;;;
2147.0;2090.7;;;;-0.23744968;1.2619592;0.2415314;;;;;;;;;;;;;;;
2147.0;2090.7;;;;-0.23588946;1.2644426;0.24377826;;;;;;;;;;;;;;;
2148.0;2091.6;;;;;;;;;;-40.326393;-40.414135;66.99957;;;;;;;;;
2148.0;2091.6;;;;;;;0.21033357;-1.091586;0.30976287;;;;;;;;;;;;
2148.0;2091.6;;;;;;;;;;-40.18143;-39.922024;67.827385;;;;;;;;;
2148.0;2091.6;;;;;;;0.20813623;-1.0796227;0.31488997;;;;;;;;;;;;
2148.0;2098.7;;;;;;;;;;;;;;;;;16.846218;9.796441;3.131962;;2027.8
2148.0;2098.7;;;;;;;;;;;;;;0.95687735;-0.3683584;-0.15436262;;;;;2027.8
2148.0;2098.7;;;;;;;;;;;;;;;;;24.494919;7.763146;7.5380716;;2027.8
2148.0;2098.7;;;;;;;;;;;;;;0.99942017;-0.5335856;-0.21436201;;;;;2027.8
2148.0;2098.7;;;;;;;;;;;;;;;;;32.12073;1.9417402;12.794885;;2037.5
2148.0;2098.7;;;;;;;;;;;;;;1.0473952;-0.6275826;-0.32062745;;;;;2037.5
2148.0;2098.7;;;;;;;;;;;;;;;;;36.47725;-3.6584065;18.94055;;2037.5
2148.0;2098.7;;;;;;;;;;;;;;1.0548418;-0.66798913;-0.3975341;;;;;2037.5
2148.0;2098.7;;;;;;;;;;;;;;;;;33.856472;-5.7832575;24.830622;;2047.1
2148.0;2098.7;;;;;;;;;;;;;;1.0702841;-0.68874174;-0.37025055;;;;;2047.1
2148.0;2098.7;;;;;;;;;;;;;;;;;31.392101;-6.126591;29.313028;;2047.1
2148.0;2098.7;;;;;;;;;;;;;;1.0671102;-0.6765343;-0.2896817;;;;;2047.1
2148.0;2100.6;;;;-0.23427203;1.2662431;0.24512866;;;;;;;;;;;;;;;
2148.0;2100.6;;;;-0.23199084;1.2669297;0.24667743;;;;;;;;;;;;;;;
2148.0;2100.6;;;;-0.22934344;1.2657472;0.24725726;;;;;;;;;;;;;;;
2148.0;2100.6;;;;-0.22675708;1.2632371;0.24821857;;;;;;;;;;;;;;;
2148.0;2100.6;;;;-0.22404101;1.2586023;0.24854663;;;;;;;;;;;;;;;
2148.0;2101.0;;;;;;;;;;-39.922024;-39.376507;68.5255;;;;;;;;;
2148.0;2101.0;;;;;;;0.2070986;-1.0657064;0.32026124;;;;;;;;;;;;
2148.0;2101.0;;;;;;;;;;-39.376507;-38.598286;69.26939;;;;;;;;;
2148.0;2101.0;;;;;;;0.2021546;-1.0518509;0.32984406;;;;;;;;;;;;
2193.0;2104.0;262143;262143;12523;;;;;;;;;;;;;;;;;;
2193.0;2110.5;;;;;;;;;;-38.518177;-37.736137;69.692825;;;;;;;;;
2193.0;2110.5;;;;;;;0.19617298;-1.0333568;0.3312479;;;;;;;;;;;;
2193.0;2110.5;;;;;;;;;;-37.82388;-36.80914;69.719536;;;;;;;;;
2193.0;2110.5;;;;;;;0.19458602;-1.0132145;0.33277383;;;;;;;;;;;;
2193.0;2110.5;;;;-0.22103885;1.2528459;0.24818805;;;;;;;;;;;;;;;
2193.0;2110.5;;;;-0.21797946;1.2450601;0.24735644;;;;;;;;;;;;;;;
2193.0;2110.5;;;;-0.21435168;1.23621;0.24686435;;;;;;;;;;;;;;;
2193.0;2110.5;;;;-0.21109393;1.2257997;0.24528888;;;;;;;;;;;;;;;
2193.0;2110.5;;;;-0.207634;1.2135469;0.2437897;;;;;;;;;;;;;;;
2193.0;2119.7;;;;;;;;;;-37.171547;-35.81347;69.45631;;;;;;;;;
2193.0;2119.7;;;;;;;0.19550157;-0.99233985;0.33094272;;;;;;;;;;;;
2193.0;2119.7;;;;;;;;;;-36.420025;-34.726246;68.76583;;;;;;;;;
2193.0;2119.7;;;;;;;0.19739372;-0.9685354;0.3279519;;;;;;;;;;;;
2193.0;2120.3;;;;-0.20404819;1.2004396;0.24238208;;;;;;;;;;;;;;;
2193.0;2120.3;;;;-0.20084003;1.1861497;0.24131778;;;;;;;;;;;;;;;
2193.0;2120.3;;;;-0.19767383;1.1714936;0.24048236;;;;;;;;;;;;;;;
2193.0;2120.3;;;;-0.19449618;1.1561509;0.23883823;;;;;;;;;;;;;;;
2193.0;2120.3;;;;-0.19177249;1.1407968;0.2366791;;;;;;;;;;;;;;;
2193.0;2123.8;262143;262143;12531;;;;;;;;;;;;;;;;;;
2196.0;2129.4;;;;;;;;;;-35.67232;-33.436844;67.899864;;;;;;;;;
2196.0;2129.4;;;;;;;0.20014039;-0.9455855;0.32276377;;;;;;;;;;;;
2196.0;2129.4;;;;;;;;;;-35.031433;-31.926178;67.02628;;;;;;;;;
2196.0;2129.4;;;;;;;0.19635609;-0.9241615;0.31427962;;;;;;;;;;;;
2196.0;2129.5;;;;;;;;;;;;;6805;;;;;;;;
2196.0;2129.5;;;;;;;;;;;;;8265;;;;;;;;
2196.0;2129.5;;;;;;;;;;;;;5078;;;;;;;;
2196.0;2129.5;;;;;;;;;;;;;-3775;;;;;;;;
2196.0;2129.5;;;;;;;;;;;;;-10893;;;;;;;;
2196.0;2130.4;;;;-0.1896973;1.1251565;0.23419574;;;;;;;;;;;;;;;
2196.0;2130.4;;;;-0.18752292;1.1096841;0.23185733;;;;;;;;;;;;;;;
2196.0;2130.4;;;;-0.18606187;1.0950547;0.22949222;;;;;;;;;;;;;;;
2196.0;2130.4;;;;-0.1849251;1.0809594;0.22618106;;;;;;;;;;;;;;;
2196.0;2130.4;;;;-0.1845131;1.0682641;0.22289279;;;;;;;;;;;;;;;
2196.0;2139.0;;;;;;;;;;-34.440136;-30.457472;66.22517;;;;;;;;;
2196.0;2139.0;;;;;;;0.19220558;-0.9073153;0.30854213;;;;;;;;;;;;
2196.0;2139.0;;;;;;;;;;-33.932766;-28.992584;65.389725;;;;;;;;;
2196.0;2139.0;;;;;;;0.17993714;-0.891995;0.30500197;;;;;;;;;;;;
2196.0;2140.5;;;;-0.18455507;1.0564729;0.22023395;;;;;;;;;;;;;;;
2196.0;2140.5;;;;-0.18496706;1.046383;0.21714404;;;;;;;;;;;;;;;
2196.0;2140.5;;;;-0.18524553;1.0369607;0.21411136;;;;;;;;;;;;;;;
2196.0;2140.5;;;;-0.18571855;1.0288087;0.21112064;;;;;;;;;;;;;;;
2196.0;2140.5;;;;-0.18682863;1.0215417;0.20756152;;;;;;;;;;;;;;;
2201.0;2143.6;;;;;;;;;;;;;;;;;37.224953;-9.43022;31.888027;;2056.6
2201.0;2143.6;;;;;;;;;;;;;;1.035432;-0.5996887;-0.25800347;;;;;2056.6
2201.0;2143.6;;;;;;;;;;;;;;;;;47.28843;-12.661366;32.700584;;2056.6
2201.0;2143.6;;;;;;;;;;;;;;0.96365243;-0.46302682;-0.24750511;;;;;2056.6
2201.0;2143.6;;;;;;;;;;;;;;;;;56.249428;-16.075624;32.074955;;2066.2
2201.0;2143.6;;;;;;;;;;;;;;0.9070101;-0.30976287;-0.2576983;;;;;2066.2
2201.0;2143.6;;;;;;;;;;;;;;;;;63.547165;-19.257181;30.16373;;2066.2
2201.0;2143.6;;;;;;;;;;;;;;0.8930326;-0.16376232;-0.25305948;;;;;2066.2
2201.0;2143.6;;;;;;;;;;;;;;;;;68.113495;-21.450697;27.970213;;2075.8
2201.0;2143.6;;;;;;;;;;;;;;0.9355144;-0.048402358;-0.2301706;;;;;2075.8
2201.0;2143.6;;;;;;;;;;;;;;;;;68.384346;-20.424513;25.925474;;2075.8
2201.0;2143.6;;;;;;;;;;;;;;0.9565722;0.05383465;-0.18005921;;;;;2075.8
2201.0;2143.9;262143;262143;12521;;;;;;;;;;;;;;;;;;
2201.0;2148.5;;;;;;;;;;-33.326214;-27.619251;64.41695;;;;;;;;;
2201.0;2148.5;;;;;;;0.16919462;-0.8791772;0.30463576;;;;;;;;;;;;
2201.0;2148.5;;;;;;;;;;-32.78451;-26.03229;63.18476;;;;;;;;;
2201.0;2148.5;;;;;;;0.15863521;-0.87118137;0.30030215;;;;;;;;;;;;
2201.0;2150.4;;;;-0.18786243;1.0156709;0.20471957;;;;;;;;;;;;;;;
2201.0;2150.4;;;;-0.18885806;1.0101587;0.20092013;;;;;;;;;;;;;;;
2201.0;2150.4;;;;-0.18962482;1.0056802;0.1974602;;;;;;;;;;;;;;;
2201.0;2150.4;;;;-0.1905556;1.0021363;0.1935654;;;;;;;;;;;;;;;
2201.0;2150.4;;;;-0.19175723;0.9988595;0.1896744;;;;;;;;;;;;;;;
2202.0;2158.1;;;;;;;;;;-32.265694;-24.628439;61.61687;;;;;;;;;
2202.0;2158.1;;;;;;;0.15015107;-0.8637959;0.29767755;;;;;;;;;;;;
2202.0;2158.1;;;;;;;;;;-31.853695;-23.319956;59.732353;;;;;;;;;
2202.0;2158.1;;;;;;;0.14044619;-0.8598285;0.29554126;;;;;;;;;;;;
2202.0;2158.6;;;;;;;;;;;;;;;;;63.40602;-18.53618;24.014252;;2085.4
2202.0;2158.6;;;;;;;;;;;;;;0.9571825;0.136845;-0.13617359;;;;;2085.4
2202.0;2158.6;;;;;;;;;;;;;;;;;56.485947;-19.203773;22.797327;;2085.4
2202.0;2158.6;;;;;;;;;;;;;;0.9878231;0.2036195;-0.17108676;;;;;2085.4
2202.0;2158.6;;;;;;;;;;;;;;;;;49.619278;-17.178104;21.958069;;2095.1
2202.0;2158.6;;;;;;;;;;;;;;0.98568684;0.25348675;-0.19232765;;;;;2095.1
2202.0;2158.6;;;;;;;;;;;;;;;;;43.62621;-13.977477;21.370586;;2095.1
2202.0;2158.6;;;;;;;;;;;;;;0.994232;0.29169592;-0.18335521;;;;;2095.1
2202.0;2158.6;;;;;;;;;;;;;;;;;37.106693;-10.040589;21.645254;;2104.6
2202.0;2158.6;;;;;;;;;;;;;;1.0076602;0.30286568;-0.1521653;;;;;2104.6
2202.0;2158.6;;;;;;;;;;;;;;;;;29.545732;-6.0312204;22.980438;;2104.6
2202.0;2158.6;;;;;;;;;;;;;;1.0149236;0.28205207;-0.119449444;;;;;2104.6
2202.0;2160.4;;;;-0.19224551;0.9967004;0.18600084;;;;;;;;;;;;;;;
2202.0;2160.4;;;;-0.19230655;0.99564755;0.18324663;;;;;;;;;;;;;;;
2202.0;2160.4;;;;-0.1926041;0.99554455;0.1808243;;;;;;;;;;;;;;;
2202.0;2160.4;;;;-0.19285205;0.9969064;0.17816927;;;;;;;;;;;;;;;
2202.0;2160.4;;;;-0.19203189;0.99964917;0.17661668;;;;;;;;;;;;;;;
2202.0;2163.9;262143;262143;12523;;;;;;;;;;;;;;;;;;
2252.0;2167.5;;;;;;;;;;-31.39973;-22.225103;57.76391;;;;;;;;;
2252.0;2167.5;;;;;;;0.1347087;-0.85927916;0.29450363;;;;;;;;;;;;
2252.0;2167.5;;;;;;;;;;-30.877102;-21.233253;55.764946;;;;;;;;;
2252.0;2167.5;;;;;;;0.13293862;-0.85744804;0.29242834;;;;;;;;;;;;
2252.0;2169.6;;;;;;;;;;;;;-8179;;;;;;;;
2252.0;2169.6;;;;;;;;;;;;;2602;;;;;;;;
2252.0;2169.6;;;;;;;;;;;;;11541;;;;;;;;
2252.0;2169.6;;;;;;;;;;;;;12271;;;;;;;;
2252.0;2169.6;;;;;;;;;;;;;8136;;;;;;;;
2252.0;2170.3;;;;-0.19152072;1.0035478;0.17427827;;;;;;;;;;;;;;;
2252.0;2170.3;;;;-0.19108585;1.0089151;0.17313768;;;;;;;;;;;;;;;
2252.0;2170.3;;;;-0.19145206;1.0155908;0.17188264;;;;;;;;;;;;;;;
2252.0;2170.3;;;;-0.19125369;1.022976;0.17090227;;;;;;;;;;;;;;;
2252.0;2170.3;;;;-0.1913338;1.0315286;0.1708603;;;;;;;;;;;;;;;
2252.0;2176.8;;;;;;;;;;-30.365917;-19.863733;53.8728;;;;;;;;;
2252.0;2176.8;;;;;;;0.13513596;-0.8601947;0.29187903;;;;;;;;;;;;
2252.0;2176.8;;;;;;;;;;-29.808954;-18.585773;52.022614;;;;;;;;;
2252.0;2176.8;;;;;;;0.13653982;-0.86214787;0.29114658;;;;;;;;;;;;
2252.0;2180.3;;;;-0.19121554;1.0409547;0.17011644;;;;;;;;;;;;;;;
2252.0;2180.3;;;;-0.19051746;1.0507203;0.16978456;;;;;;;;;;;;;;;
2252.0;2180.3;;;;-0.19074634;1.0603563;0.16863252;;;;;;;;;;;;;;;
2252.0;2180.3;;;;-0.19077685;1.0692598;0.16738512;;;;;;;;;;;;;;;
2252.0;2180.3;;;;-0.19093707;1.0782319;0.16627504;;;;;;;;;;;;;;;
2252.0;2183.9;262143;262143;12521;;;;;;;;;;;;;;;;;;
2253.0;2186.5;;;;;;;;;;-29.267252;-17.845697;50.279243;;;;;;;;;
2253.0;2186.5;;;;;;;0.13476974;-0.8608051;0.28974274;;;;;;;;;;;;
2253.0;2186.5;;;;;;;;;;-28.687399;-17.490921;48.623615;;;;;;;;;
2253.0;2186.5;;;;;;;0.13348795;-0.85958433;0.28547013;;;;;;;;;;;;
2253.0;2190.4;;;;-0.19120029;1.0868264;0.16500475;;;;;;;;;;;;;;;
2253.0;2190.4;;;;-0.19104007;1.0945398;0.16382982;;;;;;;;;;;;;;;
2253.0;2190.4;;;;-0.19044116;1.1022607;0.16340257;;;;;;;;;;;;;;;
2253.0;2190.4;;;;-0.18939212;1.1092912;0.162838;;;;;;;;;;;;;;;
2253.0;2190.4;;;;-0.18790057;1.1159097;0.16197588;;;;;;;;;;;;;;;
2253.0;2196.1;;;;;;;;;;-28.168585;-17.303995;47.055725;;;;;;;;;
2253.0;2196.1;;;;;;;0.12958159;-0.85927916;0.27900022;;;;;;;;;;;;
2253.0;2196.1;;;;;;;;;;-27.775658;-17.563402;45.38484;;;;;;;;;
2253.0;2196.1;;;;;;;0.12610248;-0.8619037;0.2719199;;;;;;;;;;;;
2253.0;2200.5;;;;-0.18572618;1.1219102;0.16025163;;;;;;;;;;;;;;;
2253.0;2200.5;;;;-0.18288423;1.1276933;0.15853502;;;;;;;;;;;;;;;
2253.0;2200.5;;;;-0.18060304;1.1331216;0.15700151;;;;;;;;;;;;;;;
2253.0;2200.5;;;;-0.17861558;1.1385385;0.15583421;;;;;;;;;;;;;;;
2253.0;2200.5;;;;-0.17684175;1.1443177;0.15475847;;;;;;;;;;;;;;;
2255.0;2204.1;;;;;;;;;;;;;;;;;21.38203;-2.3689995;24.403364;;2114.2
2255.0;2204.1;;;;;;;;;;;;;;0.9987487;0.2560503;-0.12244026;;;;;2114.2
2255.0;2204.1;;;;;;;;;;;;;;;;;12.112034;0.26703694;26.013214;;2114.2
2255.0;2204.1;;;;;;;;;;;;;;1.0154729;0.21680349;-0.1563158;;;;;2114.2
2255.0;2204.1;;;;;;;;;;;;;;;;;3.711814;3.5287027;27.53151;;2123.7
2255.0;2204.1;;;;;;;;;;;;;;1.0085146;0.1688284;-0.22400586;;;;;2123.7
2255.0;2204.1;;;;;;;;;;;;;;;;;-3.5744805;7.587664;28.35551;;2123.7
2255.0;2204.1;;;;;;;;;;;;;;0.9983215;0.12952055;-0.25977355;;;;;2123.7
2255.0;2204.1;;;;;;;;;;;;;;;;;-10.303812;11.787774;28.595844;;2133.3
2255.0;2204.1;;;;;;;;;;;;;;0.96261483;0.1010773;-0.26093325;;;;;2133.3
2255.0;2204.1;;;;;;;;;;;;;;;;;-16.170996;13.592181;28.736992;;2133.3
2255.0;2204.1;;;;;;;;;;;;;;0.9263588;0.06915494;-0.2732017;;;;;2133.3
2255.0;2204.1;262143;262143;12521;;;;;;;;;;;;;;;;;;
2255.0;2205.6;;;;;;;;;;-27.43614;-18.181402;43.778805;;;;;;;;;
2255.0;2205.6;;;;;;;0.12115848;-0.86434525;0.2646565;;;;;;;;;;;;
2255.0;2205.6;;;;;;;;;;-27.058474;-19.165625;42.24906;;;;;;;;;
2255.0;2205.6;;;;;;;0.11890011;-0.87112033;0.25843075;;;;;;;;;;;;
2255.0;2209.8;;;;;;;;;;;;;5499;;;;;;;;
2255.0;2209.8;;;;;;;;;;;;;5816;;;;;;;;
2255.0;2209.8;;;;;;;;;;;;;6317;;;;;;;;
2255.0;2209.8;;;;;;;;;;;;;5489;;;;;;;;
2255.0;2209.8;;;;;;;;;;;;;4449;;;;;;;;
2260.0;2210.5;;;;-0.17569734;1.1497194;0.15384676;;;;;;;;;;;;;;;
2260.0;2210.5;;;;-0.17530824;1.1545717;0.15278627;;;;;;;;;;;;;;;
2260.0;2210.5;;;;-0.17535783;1.1601945;0.15182115;;;;;;;;;;;;;;;
2260.0;2210.5;;;;-0.17492677;1.1653444;0.15083696;;;;;;;;;;;;;;;
2260.0;2210.5;;;;-0.17466737;1.1700746;0.1497841;;;;;;;;;;;;;;;
2260.0;2215.1;;;;;;;;;;-26.703697;-20.290993;40.841396;;;;;;;;;
2260.0;2215.1;;;;;;;0.119876705;-0.8829615;0.25403607;;;;;;;;;;;;
2260.0;2215.1;;;;;;;;;;-26.490067;-21.576588;39.502396;;;;;;;;;
2260.0;2215.1;;;;;;;0.11700796;-0.8946196;0.24805444;;;;;;;;;;;;
2260.0;2218.7;;;;;;;;;;;;;;;;;-20.523697;14.5039215;28.78277;;2143.0
2260.0;2218.7;;;;;;;;;;;;;;0.9112827;0.034546953;-0.29047516;;;;;2143.0
2260.0;2218.7;;;;;;;;;;;;;;;;;-23.113956;16.438032;28.706472;;2143.0
2260.0;2218.7;;;;;;;;;;;;;;0.89345986;0.017090365;-0.28479874;;;;;2143.0
2260.0;2218.7;;;;;;;;;;;;;;;;;-24.506365;17.349771;28.76751;;2152.7
2260.0;2218.7;;;;;;;;;;;;;;0.87398905;-0.022766808;-0.28962067;;;;;2152.7
2260.0;2218.7;;;;;;;;;;;;;;;;;-24.975584;16.659292;28.809473;;2152.7
2260.0;2218.7;;;;;;;;;;;;;;0.8615375;-0.04687643;-0.30890834;;;;;2152.7
2260.0;2218.7;;;;;;;;;;;;;;;;;-25.48677;15.739922;28.736992;;2162.3
2260.0;2218.7;;;;;;;;;;;;;;0.85830253;-0.05719169;-0.31849116;;;;;2162.3
2260.0;2218.7;;;;;;;;;;;;;;;;;-26.543474;14.641255;27.859583;;2162.3
2260.0;2218.7;;;;;;;;;;;;;;0.8593402;-0.06836146;-0.32166508;;;;;2162.3
2311.0;2220.4;;;;-0.17356874;1.1741182;0.14896776;;;;;;;;;;;;;;;
2311.0;2220.4;;;;-0.17255403;1.1773034;0.1477318;;;;;;;;;;;;;;;
2311.0;2220.4;;;;-0.17073442;1.1796037;0.14678957;;;;;;;;;;;;;;;
2311.0;2220.4;;;;-0.16899492;1.1810876;0.14562227;;;;;;;;;;;;;;;
2311.0;2220.4;;;;-0.16677095;1.181492;0.14427187;;;;;;;;;;;;;;;
2311.0;2224.6;;;;;;;;;;-26.20014;-22.93466;38.350323;;;;;;;;;
2311.0;2224.6;;;;;;;0.11963256;-0.9090243;0.24622333;;;;;;;;;;;;
2311.0;2224.6;;;;;;;;;;-26.039919;-24.28892;37.24784;;;;;;;;;
2311.0;2224.6;;;;;;;0.12158574;-0.92684716;0.24292734;;;;;;;;;;;;
2311.0;2224.1;262143;262143;12522;;;;;;;;;;;;;;;;;;
2311.0;2230.2;;;;-0.16497423;1.1813127;0.14278795;;;;;;;;;;;;;;;
2311.0;2230.2;;;;-0.16283037;1.1800004;0.14146043;;;;;;;;;;;;;;;
2311.0;2230.2;;;;-0.15998842;1.1769639;0.13947298;;;;;;;;;;;;;;;
2311.0;2230.2;;;;-0.15803148;1.1732332;0.13673402;;;;;;;;;;;;;;;
2311.0;2230.2;;;;-0.15578462;1.1689798;0.13479997;;;;;;;;;;;;;;;
2311.0;2233.7;;;;;;;;;;-25.8034;-25.769066;36.221657;;;;;;;;;
2311.0;2233.7;;;;;;;0.12408826;-0.94338816;0.24262215;;;;;;;;;;;;
2311.0;2233.7;;;;;;;;;;-25.517288;-27.344585;35.4091;;;;;;;;;
2311.0;2233.7;;;;;;;0.12964264;-0.96316415;0.24457534;;;;;;;;;;;;
2314.0;2240.1;;;;-0.15279771;1.1640931;0.13378145;;;;;;;;;;;;;;;
2314.0;2240.1;;;;-0.1503792;1.1584741;0.13275148;;;;;;;;;;;;;;;
2314.0;2240.1;;;;-0.1481743;1.1529733;0.13100435;;;;;;;;;;;;;;;
2314.0;2240.1;;;;-0.146019;1.1467668;0.1296692;;;;;;;;;;;;;;;
2314.0;2240.1;;;;-0.14443971;1.1405603;0.12770082;;;;;;;;;;;;;;;
2314.0;2243.4;;;;;;;;;;-25.231176;-29.030733;34.69573;;;;;;;;;
2314.0;2243.4;;;;;;;0.13110752;-0.9806818;0.24677266;;;;;;;;;;;;
2314.0;2243.4;;;;;;;;;;-24.922176;-30.926695;34.195988;;;;;;;;;
2314.0;2243.4;;;;;;;0.133549;-0.99740595;0.25232702;;;;;;;;;;;;
2314.0;2243.9;262143;262143;12515;;;;;;;;;;;;;;;;;;
2314.0;2249.6;;;;;;;;;;;;;4168;;;;;;;;
2314.0;2249.6;;;;;;;;;;;;;4449;;;;;;;;
2314.0;2249.6;;;;;;;;;;;;;4469;;;;;;;;
2314.0;2249.6;;;;;;;;;;;;;3779;;;;;;;;
2314.0;2249.6;;;;;;;;;;;;;2932;;;;;;;;
2314.0;2250.2;;;;-0.14291383;1.1336786;0.12589265;;;;;;;;;;;;;;;
2314.0;2250.2;;;;-0.14094163;1.1265413;0.124218;;;;;;;;;;;;;;;
2314.0;2250.2;;;;-0.13890459;1.1193391;0.12254335;;;;;;;;;;;;;;;
2314.0;2250.2;;;;-0.13739778;1.1121103;0.120540634;;;;;;;;;;;;;;;
2314.0;2250.2;;;;-0.13495637;1.1050645;0.11867143;;;;;;;;;;;;;;;
2314.0;2253.0;;;;;;;;;;-24.494919;-32.868435;33.76492;;;;;;;;;
2314.0;2253.0;;;;;;;0.13281655;-1.0103458;0.25519577;;;;;;;;;;;;
2314.0;2253.0;;;;;;;;;;-24.121067;-34.82543;33.40251;;;;;;;;;
2314.0;2253.0;;;;;;;0.13245033;-1.0249946;0.25775933;;;;;;;;;;;;
2317.0;2260.3;;;;-0.13284303;1.0978585;0.11701585;;;;;;;;;;;;;;;
2317.0;2260.3;;;;-0.13124467;1.0904275;0.115554824;;;;;;;;;;;;;;;
2317.0;2260.3;;;;-0.1299553;1.0835458;0.113540664;;;;;;;;;;;;;;;
2317.0;2260.3;;;;-0.12797548;1.0761071;0.110870376;;;;;;;;;;;;;;;
2317.0;2260.3;;;;-0.12590791;1.0677911;0.107051864;;;;;;;;;;;;;;;
2317.0;2262.6;;;;;;;;;;-23.777735;-36.610767;32.98288;;;;;;;;;
2317.0;2262.6;;;;;;;0.13275552;-1.0339671;0.26172674;;;;;;;;;;;;
2317.0;2262.6;;;;;;;;;;-23.445845;-38.384655;32.38014;;;;;;;;;
2317.0;2262.6;;;;;;;0.13879818;-1.0438551;0.26770836;;;;;;;;;;;;
2317.0;2263.6;;;;;;;;;;;;;;;;;-25.830103;14.271218;26.394695;;2171.9
2317.0;2263.6;;;;;;;;;;;;;;0.8741722;-0.06305124;-0.30121768;;;;;2171.9
2317.0;2263.6;;;;;;;;;;;;;;;;;-22.671436;14.339885;24.849695;;2171.9
2317.0;2263.6;;;;;;;;;;;;;;0.8816797;-0.07580798;-0.28962067;;;;;2171.9
2317.0;2263.6;;;;;;;;;;;;;;;;;-18.002106;13.7371435;23.087252;;2181.5
2317.0;2263.6;;;;;;;;;;;;;;0.8614765;-0.08795434;-0.28418836;;;;;2181.5
2317.0;2263.6;;;;;;;;;;;;;;;;;-13.870663;10.933256;21.607105;;2181.5
2317.0;2263.6;;;;;;;;;;;;;;0.8526872;-0.07940916;-0.275338;;;;;2181.5
2317.0;2263.6;;;;;;;;;;;;;;;;;-10.998108;8.022553;20.550402;;2191.2
2317.0;2263.6;;;;;;;;;;;;;;0.84487444;-0.08026368;-0.23322245;;;;;2191.2
2317.0;2263.6;;;;;;;;;;;;;;;;;-7.560961;5.199591;19.623402;;2191.2
2317.0;2263.6;;;;;;;;;;;;;;0.8449965;-0.08319346;-0.20252083;;;;;2191.2
2317.0;2264.0;262143;262143;12508;;;;;;;;;;;;;;;;;;
2319.0;2270.3;;;;-0.12397005;1.0598451;0.1029091;;;;;;;;;;;;;;;
2319.0;2270.3;;;;-0.12176897;1.051529;0.09976579;;;;;;;;;;;;;;;
2319.0;2270.3;;;;-0.11962511;1.0434533;0.09968187;;;;;;;;;;;;;;;
2319.0;2270.3;;;;-0.11859132;1.0355569;0.09836961;;;;;;;;;;;;;;;
2319.0;2270.3;;;;-0.11730577;1.0276071;0.095699325;;;;;;;;;;;;;;;
2319.0;2271.1;;;;;;;;;;;;;;;;;-2.5635548;3.4867396;18.700216;;2200.9
