patientId;holterMac;flexMac;;;;;;;;;;;;;;;;;;;;
;CA:F3:0B:1E:33:78;D3:4A:5C:52:80:78;;;;;;;;;;;;;;;;;;;;
receivedTimeStamp;timeStamp;red;ir;green;adxl_accX;adxl_accY;adxl_accZ;lsm_accelX;lsm_accelY;lsm_accelZ;lsm_gyroX;lsm_gyroY;lsm_gyroZ;ecg;flex_lsm_accelX;flex_lsm_accelY;flex_lsm_accelZ;flex_lsm_gyroX;flex_lsm_gyroY;flex_lsm_gyroZ;flex_cmd;flexTimeStamp
277.0;217.8;;;;;;;;;;;;;;;;;;;;17;0.1
277.0;217.8;;;;;;;;;;;;;;;;;13.809626;0.61037016;1.3084811;;127.4
277.0;217.8;;;;;;;;;;;;;;0.56642354;1.9960326;0.19611195;;;;;127.4
277.0;217.8;;;;;;;;;;;;;;;;;-4.5930357;-17.47566;-7.9348125;;127.4
277.0;217.8;;;;;;;;;;;;;;0.58339185;1.9979857;0.06878872;;;;;127.4
277.0;217.8;;;;;;;;;;;;;;;;;-67.98379;-86.3712;-64.06598;;137.0
277.0;217.8;;;;;;;;;;;;;;0.6138493;1.9979857;-0.022339549;;;;;137.0
277.0;217.8;;;;;;;;;;;;;;;;;-123.21085;-124.988556;-121.42933;;137.0
277.0;217.8;;;;;;;;;;;;;;0.652913;1.9671621;-0.046143986;;;;;137.0
336.0;218.6;;;;;;;;;;;;;;;;;-87.95816;-124.988556;-91.799675;;146.6
336.0;218.6;;;;;;;;;;;;;;0.7239601;1.7069002;-0.011658071;;;;;146.6
336.0;218.6;;;;;;;;;;;;;;;;;-78.44782;-124.988556;-65.85132;;146.6
336.0;218.6;;;;;;;;;;;;;;0.7608875;1.4324778;0.089358196;;;;;146.6
336.0;218.6;;;;;;;;;;;;;;;;;-116.47008;-103.339485;-67.36961;;156.2
336.0;218.6;;;;;;;;;;;;;;0.7613758;1.1966918;0.20160528;;;;;156.2
336.0;218.6;;;;;;;;;;;;;;;;;-124.988556;-23.636585;-47.44484;;156.2
336.0;218.6;;;;;;;;;;;;;;0.7597888;0.97897273;0.27576524;;;;;156.2
336.0;218.6;;;;;;;;;;;;;;;;;-124.988556;-8.167517;-45.6328;;165.8
336.0;218.6;;;;;;;;;;;;;;0.7591174;0.7807245;0.3045137;;;;;165.8
336.0;218.6;;;;;;;;;;;;;;;;;-124.988556;-0.5378887;-45.422985;;165.8
336.0;218.6;;;;;;;;;;;;;;0.78127384;0.55561996;0.28632465;;;;;165.8
336.0;278.5;;;;;;;;;;;;;;;;;-124.988556;7.362591;-43.6491;;175.4
336.0;278.5;;;;;;;;;;;;;;0.8440199;0.45301676;0.35724968;;;;;175.4
336.0;278.5;;;;;;;;;;;;;;;;;-124.16837;10.738701;-38.77377;;175.4
336.0;278.5;;;;;;;;;;;;;;0.9565722;0.55189675;0.4741966;;;;;175.4
336.0;278.5;;;;;;;;;;;;;;;;;-103.354744;-13.035218;-25.196844;;185.1
336.0;278.5;;;;;;;;;;;;;;1.287637;0.66438794;0.2548906;;;;;185.1
336.0;278.5;;;;;;;;;;;;;;;;;-48.62743;-64.07361;-3.688925;;185.1
336.0;278.5;;;;;;;;;;;;;;1.7316202;0.7431868;-0.1398358;;;;;185.1
336.0;278.5;;;;;;;;;;;;;;;;;12.215034;-116.90115;16.026033;;194.8
336.0;278.5;;;;;;;;;;;;;;1.9849238;0.67293316;-0.86574906;;;;;194.8
336.0;278.5;;;;;;;;;;;;;;;;;38.41899;-109.721664;34.928432;;194.8
336.0;278.5;;;;;;;;;;;;;;1.9973754;0.28467667;-1.4164251;;;;;194.8
399.0;279.3;;;;;;;;;;;;;;;;;31.762138;-39.67406;47.90643;;204.2
399.0;279.3;;;;;;;;;;;;;;1.9973754;-0.15778069;-1.1234474;;;;;204.2
399.0;279.3;;;;;;;;;;;;;;;;;15.129551;14.8587;58.950317;;204.2
399.0;279.3;;;;;;;;;;;;;;1.9530625;-0.44129765;-0.72402114;;;;;204.2
399.0;279.3;;;;;;;;;;;;;;;;;2.2011476;44.381542;66.1298;;213.9
399.0;279.3;;;;;;;;;;;;;;1.7930845;-0.6207465;-0.46449172;;;;;213.9
399.0;279.3;;;;;;;;;;;;;;;;;-5.7832575;51.931057;65.603355;;213.9
399.0;279.3;;;;;;;;;;;;;;1.5142674;-0.7101047;-0.31653798;;;;;213.9
399.0;279.3;;;;;;;;;;;;;;;;;-11.566515;38.834805;57.428204;;223.6
399.0;279.3;;;;;;;;;;;;;;1.1567736;-0.7054048;-0.23755608;;;;;223.6
399.0;279.3;;;;;;;;;;;;;;;;;-15.499588;17.193365;45.5298;;223.6
399.0;279.3;;;;;;;;;;;;;;0.9099399;-0.6781823;-0.1820124;;;;;223.6
399.0;338.4;;;;;;;;;;;;;;;;;-21.38966;5.939665;33.50551;;233.3
399.0;338.4;;;;;;;;;;;;;;0.8454848;-0.59663683;-0.08856472;;;;;233.3
399.0;338.4;;;;;;;;;;;;;;;;;-26.444288;5.714591;23.342844;;233.3
399.0;338.4;;;;;;;;;;;;;;0.88265634;-0.4674215;0.040650655;;;;;233.3
399.0;338.4;;;;;;;;;;;;;;;;;-28.75988;8.175146;16.586811;;242.9
399.0;338.4;;;;;;;;;;;;;;0.8822901;-0.3653676;0.20386365;;;;;242.9
399.0;338.4;;;;;;;;;;;;;;;;;-27.966398;5.348369;11.951812;;242.9
399.0;338.4;;;;;;;;;;;;;;0.88247323;-0.3109836;0.2738731;;;;;242.9
399.0;338.4;;;;;;;;;;;;;;;;;-20.57329;2.494888;8.831293;;252.5
399.0;338.4;;;;;;;;;;;;;;0.8665426;-0.2327952;0.26850185;;;;;252.5
399.0;338.4;;;;;;;;;;;;;;;;;-4.203925;-0.8964812;8.270516;;252.5
399.0;338.4;;;;;;;;;;;;;;0.84035766;-0.14960173;0.23645741;;;;;252.5
460.0;339.3;;;;;;;;;;;;;;;;;18.421736;-6.4546647;11.078218;;262.2
460.0;339.3;;;;;;;;;;;;;;0.8683737;-0.07818842;0.148381;;;;;262.2
460.0;339.3;;;;;;;;;;;;;;;;;42.687767;-7.930998;17.296364;;262.2
460.0;339.3;;;;;;;;;;;;;;0.9328898;-0.03418073;-0.0075685903;;;;;262.2
460.0;339.3;;;;;;;;;;;;;;;;;65.86276;-3.566851;26.23066;;271.8
460.0;339.3;;;;;;;;;;;;;;0.96493423;-0.016052736;-0.17188025;;;;;271.8
460.0;339.3;;;;;;;;;;;;;;;;;86.283455;0.22507401;36.973175;;271.8
460.0;339.3;;;;;;;;;;;;;;0.95706046;6.714072E-4;-0.27838984;;;;;271.8
460.0;339.3;;;;;;;;;;;;;;;;;102.44682;-2.6818142;48.432877;;281.5
460.0;339.3;;;;;;;;;;;;;;0.9297769;0.010742515;-0.32886747;;;;;281.5
460.0;339.3;;;;;;;;;;;;;;;;;113.956116;-11.314737;59.88113;;281.5
460.0;339.3;;;;;;;;;;;;;;0.9159215;-0.0046388134;-0.3648793;;;;;281.5
460.0;398.8;;;;;;;;;;;;;;;;;120.34211;-20.298624;71.39805;;291.1
460.0;398.8;;;;;;;;;;;;;;0.906888;-0.011597034;-0.39838862;;;;;291.1
460.0;398.8;;;;;;;;;;;;;;;;;120.97155;-26.596882;82.56401;;291.1
460.0;398.8;;;;;;;;;;;;;;0.89400923;6.103702E-4;-0.43305764;;;;;291.1
460.0;398.8;;;;;;;;;;;;;;;;;115.93219;-30.07599;92.28797;;300.8
460.0;398.8;;;;;;;;;;;;;;0.90676594;0.026184881;-0.44660786;;;;;300.8
460.0;398.8;;;;;;;;;;;;;;;;;106.61642;-30.762657;99.9939;;300.8
460.0;398.8;;;;;;;;;;;;;;0.92934966;0.073549606;-0.44709617;;;;;300.8
460.0;398.8;;;;;;;;;;;;;;;;;93.550674;-27.41325;104.68993;;310.4
460.0;398.8;;;;;;;;;;;;;;0.96133304;0.1225013;-0.42628255;;;;;310.4
460.0;398.8;;;;;;;;;;;;;;;;;79.02005;-20.500809;107.303085;;310.4
460.0;398.8;;;;;;;;;;;;;;0.9862972;0.17316203;-0.3916135;;;;;310.4
520.0;399.9;;;;;;;;;;;;;;;;;66.26713;-12.073886;107.51289;;320.1
520.0;399.9;;;;;;;;;;;;;;0.9753105;0.23535874;-0.3310648;;;;;320.1
520.0;399.9;;;;;;;;;;;;;;;;;55.35676;-8.064516;105.88016;;320.1
520.0;399.9;;;;;;;;;;;;;;0.9330729;0.29779962;-0.31202126;;;;;320.1
520.0;399.9;;;;;;;;;;;;;;;;;47.559284;-8.50322;101.67241;;329.7
520.0;399.9;;;;;;;;;;;;;;0.87350076;0.34302804;-0.3408307;;;;;329.7
520.0;399.9;;;;;;;;;;;;;;;;;41.93625;-11.104922;93.13486;;329.7
520.0;399.9;;;;;;;;;;;;;;0.814478;0.42988372;-0.41834772;;;;;329.7
520.0;399.9;;;;;;;;;;;;;;;;;37.015137;-12.405774;81.625565;;339.3
520.0;399.9;;;;;;;;;;;;;;0.7506943;0.52986234;-0.492996;;;;;339.3
520.0;399.9;;;;;;;;;;;;;;;;;32.818844;-13.851588;69.77294;;339.3
520.0;399.9;;;;;;;;;;;;;;0.69197667;0.59828484;-0.5183874;;;;;339.3
520.0;458.9;;;;;;;;;;;;;;;;;28.836176;-16.8157;57.79061;;349.0
520.0;458.9;;;;;;;;;;;;;;0.66585284;0.71053195;-0.50325024;;;;;349.0
520.0;458.9;;;;;;;;;;;;;;;;;24.746696;-19.333477;49.30647;;349.0
520.0;458.9;;;;;;;;;;;;;;0.66927093;0.75374615;-0.47492903;;;;;349.0
520.0;458.9;;;;;;;;;;;;;;;;;20.737328;-18.986328;43.72921;;358.6
520.0;458.9;;;;;;;;;;;;;;0.67903686;0.8003174;-0.45088047;;;;;358.6
520.0;458.9;;;;;;;;;;;;;;;;;14.927366;-15.5796995;40.887173;;358.6
520.0;458.9;;;;;;;;;;;;;;0.6836146;0.80434585;-0.41926327;;;;;358.6
520.0;458.9;;;;;;;;;;;;;;;;;6.9353313;-12.073886;40.261543;;368.2
520.0;458.9;;;;;;;;;;;;;;0.7021088;0.7849361;-0.40333262;;;;;368.2
520.0;458.9;;;;;;;;;;;;;;;;;-1.0185553;-9.548479;41.562393;;368.2
520.0;458.9;;;;;;;;;;;;;;0.7181616;0.7483749;-0.374279;;;;;368.2
582.0;459.7;;;;;;;;;;;;;;;;;-8.056887;-9.498886;44.022953;;377.8
582.0;459.7;;;;;;;;;;;;;;0.7341533;0.6905118;-0.3426008;;;;;377.8
582.0;459.7;;;;;;;;;;;;;;;;;-13.023774;-12.714774;47.235023;;377.8
582.0;459.7;;;;;;;;;;;;;;0.74092835;0.62550735;-0.31781974;;;;;377.8
582.0;459.7;;;;;;;;;;;;;;;;;-15.392773;-18.4637;51.17954;;387.4
582.0;459.7;;;;;;;;;;;;;;0.7455672;0.5404218;-0.29737237;;;;;387.4
582.0;459.7;;;;;;;;;;;;;;;;;-14.992217;-25.536362;55.51317;;387.4
582.0;459.7;;;;;;;;;;;;;;0.75392926;0.46125674;-0.30408642;;;;;387.4
582.0;459.7;;;;;;;;;;;;;;;;;-11.867886;-30.354471;60.30076;;397.0
582.0;459.7;;;;;;;;;;;;;;0.76082647;0.4008301;-0.3302713;;;;;397.0
582.0;459.7;;;;;;;;;;;;;;;;;-7.3320723;-31.609547;65.14176;;397.0
582.0;459.7;;;;;;;;;;;;;;0.7676626;0.3344218;-0.35462508;;;;;397.0
582.0;519.2;;;;;;;;;;;;;;;;;-2.3842587;-30.39262;69.68138;;406.6
582.0;519.2;;;;;;;;;;;;;;0.77352214;0.27710807;-0.37134922;;;;;406.6
582.0;519.2;;;;;;;;;;;;;;;;;2.311777;-27.23777;73.61828;;406.6
582.0;519.2;;;;;;;;;;;;;;0.76345104;0.2576983;-0.3624378;;;;;406.6
582.0;519.2;;;;;;;;;;;;;;;;;6.042665;-24.735252;76.84943;;416.3
582.0;519.2;;;;;;;;;;;;;;0.76473284;0.1850032;-0.33777887;;;;;416.3
582.0;519.2;;;;;;;;;;;;;;;;;8.987701;-23.613697;78.83694;;416.3
582.0;519.2;;;;;;;;;;;;;;0.7756584;0.1342204;-0.3157445;;;;;416.3
582.0;519.2;;;;;;;;;;;;;;;;;11.127811;-22.953733;79.61516;;425.9
582.0;519.2;;;;;;;;;;;;;;0.7811518;0.1208533;-0.2969451;;;;;425.9
582.0;519.2;;;;;;;;;;;;;;;;;12.939848;-22.915585;78.90942;;425.9
582.0;519.2;;;;;;;;;;;;;;0.79171115;0.095583975;-0.2771691;;;;;425.9
640.0;521.2;;;;;;;;;;;;;;;;;15.015106;-23.281807;76.96768;;435.4
640.0;521.2;;;;;;;;;;;;;;0.80385756;0.09979553;-0.26209295;;;;;435.4
640.0;521.2;;;;;;;;;;;;;;;;;17.77703;-24.48729;73.97305;;435.4
640.0;521.2;;;;;;;;;;;;;;0.8200934;0.106753744;-0.25910214;;;;;435.4
640.0;521.2;;;;;;;;;;;;;;;;;20.798365;-26.573992;70.463425;;445.1
640.0;521.2;;;;;;;;;;;;;;0.8427381;0.11322367;-0.26813564;;;;;445.1
640.0;521.2;;;;;;;;;;;;;;;;;24.20118;-29.156622;65.72924;;445.1
640.0;521.2;;;;;;;;;;;;;;0.8707541;0.13037507;-0.29151282;;;;;445.1
640.0;521.2;;;;;;;;;;;;;;;;;28.168585;-31.12125;61.170536;;454.8
640.0;521.2;;;;;;;;;;;;;;0.89223915;0.15723136;-0.30805382;;;;;454.8
640.0;521.2;;;;;;;;;;;;;;;;;31.975769;-32.338177;56.848354;;454.8
640.0;521.2;;;;;;;;;;;;;;0.9063387;0.19598986;-0.31092256;;;;;454.8
640.0;534.1;;;;;;;;;;;;;;;;;33.841213;-33.70388;53.312023;;464.5
640.0;534.1;;;;;;;;;;;;;;0.92501605;0.22180852;-0.31891844;;;;;464.5
640.0;534.1;;;;;;;;;;;;;;;;;35.27558;-33.90225;49.91302;;464.5
640.0;534.1;;;;;;;;;;;;;;0.9324625;0.26410717;-0.3185522;;;;;464.5
640.0;534.1;;;;;;;;;;;;;;;;;37.9841;-32.78451;47.639393;;474.0
640.0;534.1;;;;;;;;;;;;;;0.9418012;0.291818;-0.29969177;;;;;474.0
640.0;534.1;;;;;;;;;;;;;;;;;40.047913;-29.988249;45.96469;;474.0
640.0;534.1;;;;;;;;;;;;;;0.941435;0.3243507;-0.2696005;;;;;474.0
640.0;534.1;;;;;;;;;;;;;;;;;40.79943;-26.92114;45.026245;;483.6
640.0;534.1;;;;;;;;;;;;;;0.9310587;0.35444197;-0.23865475;;;;;483.6
640.0;534.1;;;;;;;;;;;;;;;;;39.38032;-24.254585;44.663837;;483.6
640.0;534.1;;;;;;;;;;;;;;0.91940063;0.37659842;-0.22370067;;;;;483.6
702.0;579.3;;;;;;;;;;;;;;;;;36.496323;-21.80166;44.6028;;493.3
702.0;579.3;;;;;;;;;;;;;;0.90676594;0.37842953;-0.22247994;;;;;493.3
702.0;579.3;;;;;;;;;;;;;;;;;32.948547;-19.56618;43.78262;;493.3
702.0;579.3;;;;;;;;;;;;;;0.8888821;0.38227484;-0.22498246;;;;;493.3
702.0;579.3;;;;;;;;;;;;;;;;;29.213844;-17.08655;42.634357;;503.0
702.0;579.3;;;;;;;;;;;;;;0.87838376;0.37134922;-0.23926511;;;;;503.0
702.0;579.3;;;;;;;;;;;;;;;;;25.475325;-14.107181;41.169468;;503.0
702.0;579.3;;;;;;;;;;;;;;0.85799736;0.3686636;-0.2552568;;;;;503.0
702.0;579.3;;;;;;;;;;;;;;;;;22.358622;-11.478774;39.040802;;512.6
702.0;579.3;;;;;;;;;;;;;;0.8460341;0.36353648;-0.27027193;;;;;512.6
702.0;579.3;;;;;;;;;;;;;;;;;19.848475;-9.693442;36.709953;;512.6
702.0;579.3;;;;;;;;;;;;;;0.8433485;0.35077974;-0.29108554;;;;;512.6
702.0;639.6;;;;;;;;;;;;;;;;;18.471329;-8.209479;34.115875;;522.3
702.0;639.6;;;;;;;;;;;;;;0.8340098;0.35096285;-0.30542925;;;;;522.3
702.0;639.6;;;;;;;;;;;;;;;;;18.127995;-7.3397017;31.479843;;522.3
702.0;639.6;;;;;;;;;;;;;;0.8324839;0.36017945;-0.3178808;;;;;522.3
702.0;639.6;;;;;;;;;;;;;;;;;18.64681;-6.76748;29.072695;;531.9
702.0;639.6;;;;;;;;;;;;;;0.8310801;0.36573383;-0.31751457;;;;;531.9
702.0;639.6;;;;;;;;;;;;;;;;;19.676807;-6.477554;26.963104;;531.9
702.0;639.6;;;;;;;;;;;;;;0.83712274;0.36365855;-0.31019014;;;;;531.9
702.0;639.6;;;;;;;;;;;;;;;;;20.76403;-6.4355907;25.166325;;541.4
702.0;639.6;;;;;;;;;;;;;;0.84487444;0.36280406;-0.303354;;;;;541.4
702.0;639.6;;;;;;;;;;;;;;;;;21.408735;-6.286813;23.819696;;541.4
702.0;639.6;;;;;;;;;;;;;;0.8568987;0.35023043;-0.29169592;;;;;541.4
822.0;647.1;;;;;;;;;;;;;;;;;21.576588;-5.874813;22.839289;;551.1
822.0;647.1;;;;;;;;;;;;;;0.8766137;0.3218482;-0.28382215;;;;;551.1
822.0;647.1;;;;;;;;;;;;;;;;;21.511734;-4.6006656;22.419659;;551.1
822.0;647.1;;;;;;;;;;;;;;0.88399917;0.29999694;-0.2840663;;;;;551.1
822.0;647.1;;;;;;;;;;;;;;;;;21.82455;-3.7270732;22.389141;;560.8
822.0;647.1;;;;;;;;;;;;;;0.901822;0.27521592;-0.28766748;;;;;560.8
822.0;647.1;;;;;;;;;;;;;;;;;22.675253;-3.0213325;22.717215;;560.8
822.0;647.1;;;;;;;;;;;;;;0.91293067;0.23859371;-0.28858304;;;;;560.8
822.0;647.1;;;;;;;;;;;;;;;;;24.08292;-2.6360364;23.300882;;570.4
822.0;647.1;;;;;;;;;;;;;;0.92104864;0.2273629;-0.28974274;;;;;570.4
822.0;647.1;;;;;;;;;;;;;;;;;25.532547;-2.750481;23.945585;;570.4
822.0;647.1;;;;;;;;;;;;;;0.93508714;0.18689536;-0.28614154;;;;;570.4
822.0;654.9;;;;;;;;;;;;;;;;;27.764214;-2.6207771;24.353771;;580.1
822.0;654.9;;;;;;;;;;;;;;0.943083;0.16736351;-0.27997681;;;;;580.1
822.0;654.9;;;;;;;;;;;;;;;;;30.632954;-2.5673697;24.803917;;580.1
822.0;654.9;;;;;;;;;;;;;;0.9483932;0.15222633;-0.27692497;;;;;580.1
822.0;654.9;;;;;;;;;;;;;;;;;33.77255;-2.4147773;25.090029;;589.7
822.0;654.9;;;;;;;;;;;;;;0.94845426;0.15063937;-0.27497178;;;;;589.7
822.0;654.9;;;;;;;;;;;;;;;;;36.828213;-2.5521104;24.868769;;589.7
822.0;654.9;;;;;;;;;;;;;;0.9538255;0.1445967;-0.28022096;;;;;589.7
822.0;654.9;;;;;;;;;;;;;;;;;39.605392;-2.395703;24.315622;;599.4
822.0;654.9;;;;;;;;;;;;;;0.951323;0.15478988;-0.28357798;;;;;599.4
822.0;654.9;;;;;;;;;;;;;;;;;42.008728;-2.3003328;23.411512;;599.4
822.0;654.9;;;;;;;;;;;;;;0.9508957;0.15601063;-0.29126865;;;;;599.4
824.0;699.8;;;;;;;;;;;;;;;;;44.23658;-1.5717032;22.21366;;608.9
824.0;699.8;;;;;;;;;;;;;;0.9394818;0.18018128;-0.2944426;;;;;608.9
824.0;699.8;;;;;;;;;;;;;;;;;46.586506;-0.32044435;21.092106;;608.9
824.0;699.8;;;;;;;;;;;;;;0.93197423;0.19220558;-0.29725027;;;;;608.9
824.0;699.8;;;;;;;;;;;;;;;;;49.676502;1.3008515;19.898067;;618.5
824.0;699.8;;;;;;;;;;;;;;0.91348004;0.22730187;-0.30298775;;;;;618.5
824.0;699.8;;;;;;;;;;;;;;;;;52.793205;3.234962;18.765068;;618.5
824.0;699.8;;;;;;;;;;;;;;0.89510787;0.25946838;-0.31391338;;;;;618.5
824.0;699.8;;;;;;;;;;;;;;;;;55.76876;5.4399247;17.872402;;628.2
824.0;699.8;;;;;;;;;;;;;;0.87362283;0.2959685;-0.32978302;;;;;628.2
824.0;699.8;;;;;;;;;;;;;;;;;58.70617;7.8585167;17.29255;;628.2
824.0;699.8;;;;;;;;;;;;;;0.8523209;0.3312479;-0.34998626;;;;;628.2
824.0;707.3;;;;;;;;;;;;;;;;;61.208683;10.563219;16.96829;;637.9
824.0;707.3;;;;;;;;;;;;;;0.82778406;0.35914183;-0.36695457;;;;;637.9
824.0;707.3;;;;;;;;;;;;;;;;;63.131355;13.092441;17.025513;;637.9
824.0;707.3;;;;;;;;;;;;;;0.8067263;0.3961913;-0.38453323;;;;;637.9
824.0;707.3;;;;;;;;;;;;;;;;;64.874725;15.121922;17.38792;;647.5
824.0;707.3;;;;;;;;;;;;;;0.79030734;0.41755426;-0.4011353;;;;;647.5
824.0;707.3;;;;;;;;;;;;;;;;;65.70635;16.735588;17.742699;;647.5
824.0;707.3;;;;;;;;;;;;;;0.77370524;0.43910033;-0.41029084;;;;;647.5
824.0;707.3;;;;;;;;;;;;;;;;;65.67202;17.834253;18.288218;;657.2
824.0;707.3;;;;;;;;;;;;;;0.7612537;0.45545822;-0.4168218;;;;;657.2
824.0;707.3;;;;;;;;;;;;;;;;;63.768425;18.414106;18.284403;;657.2
824.0;707.3;;;;;;;;;;;;;;0.7473373;0.48200935;-0.42658773;;;;;657.2
881.0;760.0;;;;;;;;;;;;;;;;;60.243538;18.601032;17.811365;;666.8
881.0;760.0;;;;;;;;;;;;;;0.7423322;0.48072755;-0.42207098;;;;;666.8
881.0;760.0;;;;;;;;;;;;;;;;;55.635242;18.601032;16.972105;;666.8
881.0;760.0;;;;;;;;;;;;;;0.7395856;0.4893948;-0.41376996;;;;;666.8
881.0;760.0;;;;;;;;;;;;;;;;;50.313576;18.417921;15.869625;;676.4
881.0;760.0;;;;;;;;;;;;;;0.74404126;0.49024934;-0.39759514;;;;;676.4
881.0;760.0;;;;;;;;;;;;;;;;;44.01914;18.410292;14.5039215;;676.4
881.0;760.0;;;;;;;;;;;;;;0.74452955;0.4953154;-0.37434003;;;;;676.4
881.0;760.0;;;;;;;;;;;;;;;;;37.83151;17.876217;12.958922;;686.1
881.0;760.0;;;;;;;;;;;;;;0.7578356;0.50019836;-0.35541856;;;;;686.1
881.0;760.0;;;;;;;;;;;;;;;;;31.865139;17.220068;11.734367;;686.1
881.0;760.0;;;;;;;;;;;;;;0.7745598;0.5119175;-0.34229562;;;;;686.1
881.0;768.7;;;;;;;;;;;;;;;;;26.51677;16.289255;10.921812;;695.7
881.0;768.7;;;;;;;;;;;;;;0.8008667;0.51442;-0.33204138;;;;;695.7
881.0;768.7;;;;;;;;;;;;;;;;;21.893217;15.15244;10.254219;;695.7
881.0;768.7;;;;;;;;;;;;;;0.82662433;0.51960814;-0.32111576;;;;;695.7
881.0;768.7;;;;;;;;;;;;;;;;;17.708364;14.080477;9.63622;;705.3
881.0;768.7;;;;;;;;;;;;;;0.8560442;0.5174108;-0.32984406;;;;;705.3
881.0;768.7;;;;;;;;;;;;;;;;;14.614552;13.164922;9.300516;;705.3
881.0;768.7;;;;;;;;;;;;;;0.87978756;0.5221717;-0.3515122;;;;;705.3
881.0;768.7;;;;;;;;;;;;;;;;;12.840663;12.722404;9.102145;;714.9
881.0;768.7;;;;;;;;;;;;;;0.921659;0.52266;-0.32605976;;;;;714.9
881.0;768.7;;;;;;;;;;;;;;;;;12.569811;12.234108;8.816034;;714.9
881.0;768.7;;;;;;;;;;;;;;0.9816584;0.56013674;-0.3162328;;;;;714.9
940.0;820.2;;;;;;;;;;;;;;;;;11.944181;10.769219;8.40022;;724.5
940.0;820.2;;;;;;;;;;;;;;1.0448927;0.6128727;-0.37678152;;;;;724.5
940.0;820.2;;;;;;;;;;;;;;;;;9.960478;6.595813;7.6181827;;724.5
940.0;820.2;;;;;;;;;;;;;;1.1119725;0.6162298;-0.45808282;;;;;724.5
940.0;820.2;;;;;;;;;;;;;;;;;7.530442;3.1624806;6.4127016;;734.1
940.0;820.2;;;;;;;;;;;;;;1.1718497;0.5572069;-0.4921415;;;;;734.1
940.0;820.2;;;;;;;;;;;;;;;;;6.538591;6.912442;4.352702;;734.1
940.0;820.2;;;;;;;;;;;;;;1.1783807;0.46467483;-0.44611958;;;;;734.1
940.0;820.2;;;;;;;;;;;;;;;;;8.262887;13.477737;1.5488143;;743.5
940.0;820.2;;;;;;;;;;;;;;1.1427351;0.39448225;-0.3922239;;;;;743.5
940.0;820.2;;;;;;;;;;;;;;;;;11.165959;16.586811;-1.6136662;;743.5
940.0;820.2;;;;;;;;;;;;;;1.0912198;0.3487045;-0.36231574;;;;;743.5
940.0;827.7;;;;;;;;;;;;;;;;;14.023255;15.831476;-5.115665;;753.2
940.0;827.7;;;;;;;;;;;;;;1.0596637;0.33625293;-0.34846035;;;;;753.2
940.0;827.7;;;;;;;;;;;;;;;;;15.476699;15.640736;-9.174627;;753.2
940.0;827.7;;;;;;;;;;;;;;1.0448316;0.35059664;-0.31708732;;;;;753.2
940.0;827.7;;;;;;;;;;;;;;;;;15.175328;17.46803;-14.1949215;;762.9
940.0;827.7;;;;;;;;;;;;;;1.0560625;0.36542863;-0.27008882;;;;;762.9
940.0;827.7;;;;;;;;;;;;;;;;;14.759515;20.49318;-19.65392;;762.9
940.0;827.7;;;;;;;;;;;;;;1.056734;0.40778834;-0.2313303;;;;;762.9
940.0;827.7;;;;;;;;;;;;;;;;;15.278329;22.370068;-25.025177;;772.5
940.0;827.7;;;;;;;;;;;;;;1.0660726;0.45698416;-0.22333445;;;;;772.5
940.0;827.7;;;;;;;;;;;;;;;;;16.678366;23.487808;-30.953398;;772.5
940.0;827.7;;;;;;;;;;;;;;1.0897549;0.48963895;-0.24933623;;;;;772.5
1001.0;880.4;;;;;;;;;;;;;;;;;19.482254;25.997955;-37.08762;;782.2
1001.0;880.4;;;;;;;;;;;;;;1.1111789;0.5133824;-0.28089237;;;;;782.2
1001.0;880.4;;;;;;;;;;;;;;;;;22.873623;30.896175;-43.5461;;782.2
1001.0;880.4;;;;;;;;;;;;;;1.1174047;0.5208289;-0.2957854;;;;;782.2
1001.0;880.4;;;;;;;;;;;;;;;;;26.20014;38.136692;-50.279243;;791.8
1001.0;880.4;;;;;;;;;;;;;;1.1057466;0.51332134;-0.27924436;;;;;791.8
1001.0;880.4;;;;;;;;;;;;;;;;;28.90103;46.37669;-57.100132;;791.8
1001.0;880.4;;;;;;;;;;;;;;1.0742515;0.4981231;-0.24085207;;;;;791.8
1001.0;880.4;;;;;;;;;;;;;;;;;31.346325;55.036316;-64.13084;;801.5
1001.0;880.4;;;;;;;;;;;;;;1.0298166;0.4956206;-0.18262276;;;;;801.5
1001.0;880.4;;;;;;;;;;;;;;;;;33.26136;63.25724;-71.527756;;801.5
1001.0;880.4;;;;;;;;;;;;;;0.9833674;0.5002594;-0.11969359;;;;;801.5
1001.0;887.8;;;;;;;;;;;;;;;;;34.56984;70.32609;-79.32523;;811.0
1001.0;887.8;;;;;;;;;;;;;;0.944731;0.5042268;-0.059877317;;;;;811.0
1001.0;887.8;;;;;;;;;;;;;;;;;35.149693;75.99109;-87.32109;;811.0
1001.0;887.8;;;;;;;;;;;;;;0.9196448;0.5162511;-0.012512589;;;;;811.0
1001.0;887.8;;;;;;;;;;;;;;;;;34.829247;80.82064;-95.16816;;820.7
1001.0;887.8;;;;;;;;;;;;;;0.90316474;0.5136265;0.03070162;;;;;820.7
1001.0;887.8;;;;;;;;;;;;;;;;;33.974728;85.34883;-102.84356;;820.7
1001.0;887.8;;;;;;;;;;;;;;0.8988311;0.5043489;0.061708428;;;;;820.7
1001.0;887.8;;;;;;;;;;;;;;;;;32.69677;90.26612;-110.312965;;830.4
1001.0;887.8;;;;;;;;;;;;;;0.89400923;0.49287394;0.09088412;;;;;830.4
1001.0;887.8;;;;;;;;;;;;;;;;;30.785545;95.065155;-116.8363;;830.4
1001.0;887.8;;;;;;;;;;;;;;0.8930326;0.4763329;0.110721156;;;;;830.4
1060.0;948.6;;;;;;;;;;;;;;;;;28.546251;99.925224;-122.131256;;840.1
1060.0;948.6;;;;;;;;;;;;;;0.89706105;0.45057526;0.13818781;;;;;840.1
1060.0;948.6;;;;;;;;;;;;;;;;;25.578325;104.167305;-124.60326;;840.1
1060.0;948.6;;;;;;;;;;;;;;0.9129917;0.4130375;0.16193122;;;;;840.1
1060.0;948.6;;;;;;;;;;;;;;;;;22.41203;107.80664;-124.98093;;849.7
1060.0;948.6;;;;;;;;;;;;;;0.9352092;0.36793116;0.17200232;;;;;849.7
1060.0;948.6;;;;;;;;;;;;;;;;;19.672993;110.827965;-124.988556;;849.7
1060.0;948.6;;;;;;;;;;;;;;0.96151614;0.33112583;0.17615284;;;;;849.7
1060.0;948.6;;;;;;;;;;;;;;;;;16.552477;112.212746;-124.988556;;859.3
1060.0;948.6;;;;;;;;;;;;;;0.9821467;0.3035371;0.173101;;;;;859.3
1060.0;948.6;;;;;;;;;;;;;;;;;12.256997;111.548965;-124.988556;;859.3
1060.0;948.6;;;;;;;;;;;;;;1.0051576;0.2696005;0.1523484;;;;;859.3
1060.0;949.4;;;;;;;;;;;;;;;;;7.4007387;109.14945;-124.988556;;869.0
1060.0;949.4;;;;;;;;;;;;;;1.0378735;0.19690542;0.116763815;;;;;869.0
1060.0;949.4;;;;;;;;;;;;;;;;;3.6622212;105.83056;-124.988556;;869.0
1060.0;949.4;;;;;;;;;;;;;;1.0671712;0.16705832;0.068544574;;;;;869.0
1060.0;949.4;;;;;;;;;;;;;;;;;0.54551834;101.39393;-124.988556;;878.5
1060.0;949.4;;;;;;;;;;;;;;1.0903653;0.1439253;0.009155553;;;;;878.5
1060.0;949.4;;;;;;;;;;;;;;;;;-2.1057773;94.0199;-124.988556;;878.5
1060.0;949.4;;;;;;;;;;;;;;1.1322978;0.12659077;-0.06823939;;;;;878.5
1060.0;949.4;;;;;;;;;;;;;;;;;-3.9979248;84.65072;-124.988556;;888.2
1060.0;949.4;;;;;;;;;;;;;;1.1900388;0.10846278;-0.1561327;;;;;888.2
1060.0;949.4;;;;;;;;;;;;;;;;;-5.584887;74.70931;-124.988556;;888.2
1060.0;949.4;;;;;;;;;;;;;;1.2596209;0.10364086;-0.23969238;;;;;888.2
1121.0;1000.9;;;;;;;;;;;;;;;;;-6.103702;66.846985;-124.77874;;897.8
1121.0;1000.9;;;;;;;;;;;;;;1.3331095;0.095583975;-0.29651785;;;;;897.8
1121.0;1000.9;;;;;;;;;;;;;;;;;-4.257332;62.391277;-123.14218;;897.8
1121.0;1000.9;;;;;;;;;;;;;;1.3995178;0.0872219;-0.30079043;;;;;897.8
1121.0;1000.9;;;;;;;;;;;;;;;;;-0.86214787;61.19724;-121.16992;;907.5
1121.0;1000.9;;;;;;;;;;;;;;1.4508499;0.091250345;-0.26929533;;;;;907.5
1121.0;1000.9;;;;;;;;;;;;;;;;;3.7766654;60.872982;-119.232;;907.5
1121.0;1000.9;;;;;;;;;;;;;;1.4629964;0.091250345;-0.23749503;;;;;907.5
1121.0;1000.9;;;;;;;;;;;;;;;;;9.205146;59.453873;-119.651634;;916.9
1121.0;1000.9;;;;;;;;;;;;;;1.4701376;0.0987579;-0.23041475;;;;;916.9
1121.0;1000.9;;;;;;;;;;;;;;;;;14.950255;61.02176;-121.64296;;916.9
1121.0;1000.9;;;;;;;;;;;;;;1.4555498;0.11810663;-0.22559282;;;;;916.9
1121.0;1001.7;;;;;;;;;;;;;;;;;20.622883;66.92709;-124.32859;;926.5
1121.0;1001.7;;;;;;;;;;;;;;1.418073;0.16418958;-0.20050661;;;;;926.5
1121.0;1001.7;;;;;;;;;;;;;;;;;25.879696;75.36165;-124.97711;;926.5
1121.0;1001.7;;;;;;;;;;;;;;1.3610034;0.18274483;-0.16138189;;;;;926.5
1121.0;1001.7;;;;;;;;;;;;;;;;;31.250954;84.025085;-124.988556;;936.1
1121.0;1001.7;;;;;;;;;;;;;;1.2788476;0.17621388;-0.12836085;;;;;936.1
1121.0;1001.7;;;;;;;;;;;;;;;;;36.488693;91.30375;-124.988556;;936.1
1121.0;1001.7;;;;;;;;;;;;;;1.1909543;0.17456588;-0.10895108;;;;;936.1
1121.0;1001.7;;;;;;;;;;;;;;;;;41.348766;94.222084;-124.988556;;945.8
1121.0;1001.7;;;;;;;;;;;;;;1.1115452;0.17999817;-0.1163976;;;;;945.8
1121.0;1001.7;;;;;;;;;;;;;;;;;45.907467;92.86019;-124.988556;;945.8
1121.0;1001.7;;;;;;;;;;;;;;1.0539873;0.1386761;-0.14917448;;;;;945.8
1181.0;1061.6;;;;;;;;;;;;;;;;;51.854763;88.40831;-124.988556;;955.5
1181.0;1061.6;;;;;;;;;;;;;;1.0140691;0.1032136;-0.1861629;;;;;955.5
1181.0;1061.6;;;;;;;;;;;;;;;;;58.07291;82.48009;-124.988556;;955.5
1181.0;1061.6;;;;;;;;;;;;;;0.9687185;0.11328471;-0.2334666;;;;;955.5
1181.0;1061.6;;;;;;;;;;;;;;;;;64.18043;76.52135;-124.988556;;965.0
1181.0;1061.6;;;;;;;;;;;;;;0.92568743;0.14252144;-0.2620319;;;;;965.0
1181.0;1061.6;;;;;;;;;;;;;;;;;69.26557;71.07379;-124.988556;;965.0
1181.0;1061.6;;;;;;;;;;;;;;0.9045686;0.1264687;-0.28302866;;;;;965.0
1181.0;1061.6;;;;;;;;;;;;;;;;;74.65591;66.87369;-124.767296;;974.5
1181.0;1061.6;;;;;;;;;;;;;;0.88357186;0.13104647;-0.28400525;;;;;974.5
1181.0;1061.6;;;;;;;;;;;;;;;;;78.573715;62.41035;-123.0163;;974.5
1181.0;1061.6;;;;;;;;;;;;;;0.8926664;0.15918455;-0.27124852;;;;;974.5
1181.0;1062.4;;;;;;;;;;;;;;;;;79.32142;59.556873;-118.94589;;984.2
1181.0;1062.4;;;;;;;;;;;;;;0.90554523;0.14862514;-0.24475844;;;;;984.2
1181.0;1062.4;;;;;;;;;;;;;;;;;76.91809;58.732872;-114.72671;;984.2
1181.0;1062.4;;;;;;;;;;;;;;0.91488385;0.13763848;-0.19940794;;;;;984.2
1181.0;1062.4;;;;;;;;;;;;;;;;;72.13049;58.37428;-110.26719;;993.8
1181.0;1062.4;;;;;;;;;;;;;;0.90987885;0.1345256;-0.15747552;;;;;993.8
1181.0;1062.4;;;;;;;;;;;;;;;;;65.41643;57.779167;-105.918304;;993.8
1181.0;1062.4;;;;;;;;;;;;;;0.9087191;0.1469161;-0.12823878;;;;;993.8
1181.0;1062.4;;;;;;;;;;;;;;;;;59.10291;58.0195;-100.466934;;1003.5
1181.0;1062.4;;;;;;;;;;;;;;0.8867458;0.15594958;-0.08075198;;;;;1003.5
1181.0;1062.4;;;;;;;;;;;;;;;;;53.098392;57.21839;-94.5349;;1003.5
1181.0;1062.4;;;;;;;;;;;;;;0.8601947;0.17236854;-0.028687399;;;;;1003.5
1183.0;1121.4;;;;;;;;;;;;;;;;;44.854576;55.20798;-90.09827;;1013.1
1183.0;1121.4;;;;;;;;;;;;;;0.83315533;0.20703757;-0.010071108;;;;;1013.1
1183.0;1121.4;;;;;;;;;;;;;;;;;35.603657;53.582874;-86.07365;;1013.1
1183.0;1121.4;;;;;;;;;;;;;;0.80037844;0.23468734;-0.0014648885;;;;;1013.1
1183.0;1121.4;;;;;;;;;;;;;;;;;28.283028;51.637318;-82.32368;;1022.7
1183.0;1121.4;;;;;;;;;;;;;;0.7614368;0.27729118;0.023010956;;;;;1022.7
1183.0;1121.4;;;;;;;;;;;;;;;;;21.134068;48.558765;-79.439674;;1022.7
1183.0;1121.4;;;;;;;;;;;;;;0.7163915;0.2941374;0.049134802;;;;;1022.7
1183.0;1121.4;;;;;;;;;;;;;;;;;14.62981;43.71395;-77.51702;;1032.4
1183.0;1121.4;;;;;;;;;;;;;;0.67647326;0.32605976;0.08001953;;;;;1032.4
1183.0;1121.4;;;;;;;;;;;;;;;;;8.102665;37.221138;-75.60198;;1032.4
1183.0;1121.4;;;;;;;;;;;;;;0.64906764;0.35322124;0.08856472;;;;;1032.4
1187.0;1122.2;;;;;;;;;;;;;;;;;2.1362956;30.865658;-73.86624;;1042.0
1187.0;1122.2;;;;;;;;;;;;;;0.62532425;0.3859981;0.083010346;;;;;1042.0
1187.0;1122.2;;;;;;;;;;;;;;;;;-1.945555;24.616993;-72.03131;;1042.0
1187.0;1122.2;;;;;;;;;;;;;;0.5975524;0.41755426;0.07696768;;;;;1042.0
1187.0;1122.2;;;;;;;;;;;;;;;;;-4.9401836;17.643513;-70.013275;;1051.7
1187.0;1122.2;;;;;;;;;;;;;;0.57777643;0.44410536;0.065431684;;;;;1051.7
1187.0;1122.2;;;;;;;;;;;;;;;;;-6.5691094;10.235145;-67.97234;;1051.7
1187.0;1122.2;;;;;;;;;;;;;;0.56642354;0.4693747;0.031373028;;;;;1051.7
1187.0;1122.2;;;;;;;;;;;;;;;;;-6.1799984;3.8987396;-65.610985;;1061.3
1187.0;1122.2;;;;;;;;;;;;;;0.5544603;0.4885403;-0.012207404;;;;;1061.3
1187.0;1122.2;;;;;;;;;;;;;;;;;-4.1085544;-1.5449996;-62.7575;;1061.3
1187.0;1122.2;;;;;;;;;;;;;;0.5445723;0.5036775;-0.045350507;;;;;1061.3
1187.0;1129.8;;;;0.0;0.0;0.0;;;;;;;;;;;;;;;
1187.0;1129.8;;;;-0.20973971;0.20964053;-0.009319306;;;;;;;;;;;;;;;
1187.0;1129.8;;;;-0.5769463;0.6064568;-0.13033296;;;;;;;;;;;;;;;
1187.0;1129.8;;;;-0.5856324;0.6145516;-0.14429475;;;;;;;;;;;;;;;
1187.0;1129.8;;;;-0.5852967;0.6110001;-0.14203645;;;;;;;;;;;;;;;
1187.0;1139.8;;;;-0.58380896;0.60750204;-0.14038469;;;;;;;;;;;;;;;
1187.0;1139.8;;;;-0.58250815;0.6045762;-0.13871767;;;;;;;;;;;;;;;
1187.0;1139.8;;;;-0.5806084;0.60088354;-0.13695528;;;;;;;;;;;;;;;
1187.0;1139.8;;;;-0.5770455;0.59758;-0.13484193;;;;;;;;;;;;;;;
1187.0;1139.8;;;;-0.5741959;0.5960389;-0.13304521;;;;;;;;;;;;;;;
1240.0;1141.0;57438;57451;13066;;;;;;;;;;;;;;;;;;
1240.0;1149.5;;;;-0.5690461;0.59413916;-0.13136293;;;;;;;;;;;;;;;
1240.0;1149.5;;;;-0.56633765;0.5937386;-0.129097;;;;;;;;;;;;;;;
1240.0;1149.5;;;;-0.5654488;0.59357077;-0.12839891;;;;;;;;;;;;;;;
1240.0;1149.5;;;;-0.56322104;0.59325415;-0.1273308;;;;;;;;;;;;;;;
1240.0;1149.5;;;;-0.5611306;0.5938836;-0.12530138;;;;;;;;;;;;;;;
1240.0;1159.6;;;;-0.5646363;0.5947953;-0.12369539;;;;;;;;;;;;;;;
1240.0;1159.6;;;;-0.56397635;0.59525687;-0.120964065;;;;;;;;;;;;;;;
1240.0;1159.6;;;;-0.5634118;0.5969773;-0.11811449;;;;;;;;;;;;;;;
1240.0;1159.6;;;;-0.56076056;0.5983239;-0.115547195;;;;;;;;;;;;;;;
1240.0;1159.6;;;;-0.5573655;0.6006394;-0.1131096;;;;;;;;;;;;;;;
1240.0;1160.9;73896;73843;13076;;;;;;;;;;;;;;;;;;
1240.0;1167.1;;;;;;;;;;;;;0;;;;;;;;
1240.0;1167.1;;;;;;;;;;;;;0;;;;;;;;
1240.0;1167.1;;;;;;;;;;;;;-1;;;;;;;;
1240.0;1167.1;;;;;;;;;;;;;-3;;;;;;;;
1240.0;1167.1;;;;;;;;;;;;;-4;;;;;;;;
1240.0;1169.7;;;;-0.556511;0.60383993;-0.1099167;;;;;;;;;;;;;;;
1240.0;1169.7;;;;-0.55352026;0.6066323;-0.10626222;;;;;;;;;;;;;;;
1240.0;1169.7;;;;-0.5523835;0.609665;-0.104152694;;;;;;;;;;;;;;;
1240.0;1169.7;;;;-0.5522767;0.61306006;-0.1019745;;;;;;;;;;;;;;;
1240.0;1169.7;;;;-0.5476609;0.61668783;-0.10066225;;;;;;;;;;;;;;;
1242.0;1179.8;;;;-0.54492193;0.61917883;-0.09748079;;;;;;;;;;;;;;;
1242.0;1179.8;;;;-0.5461388;0.6235047;-0.09424974;;;;;;;;;;;;;;;
1242.0;1179.8;;;;-0.5517579;0.6289368;-0.09061433;;;;;;;;;;;;;;;
1242.0;1179.8;;;;-0.55782324;0.6330338;-0.08732987;;;;;;;;;;;;;;;
1242.0;1179.8;;;;-0.5596505;0.63499457;-0.08320237;;;;;;;;;;;;;;;
1242.0;1181.6;;;;;;;;;;;;;;;;;-1.1406293;-6.7026277;-59.163948;;1070.9
1242.0;1181.6;;;;;;;;;;;;;;0.5373699;0.51832634;-0.063417464;;;;;1070.9
1242.0;1181.6;;;;;;;;;;;;;;;;;2.5254066;-11.333811;-54.734947;;1070.9
1242.0;1181.6;;;;;;;;;;;;;;0.5341349;0.5220496;-0.075319685;;;;;1070.9
1242.0;1181.6;;;;;;;;;;;;;;;;;5.981628;-15.308847;-49.542984;;1080.5
1242.0;1181.6;;;;;;;;;;;;;;0.5382855;0.52504045;-0.091921754;;;;;1080.5
1242.0;1181.6;;;;;;;;;;;;;;;;;9.102145;-18.387402;-43.66436;;1080.5
1242.0;1181.6;;;;;;;;;;;;;;0.535905;0.52290416;-0.09588916;;;;;1080.5
1242.0;1181.6;;;;;;;;;;;;;;;;;11.005738;-21.534624;-37.339397;;1090.2
1242.0;1181.6;;;;;;;;;;;;;;0.5406659;0.5190588;-0.107181005;;;;;1090.2
1242.0;1181.6;;;;;;;;;;;;;;;;;11.87933;-24.132511;-30.774101;;1090.2
1242.0;1181.6;;;;;;;;;;;;;;0.5418866;0.5139317;-0.108279675;;;;;1090.2
1242.0;1181.1;90331;90298;13072;;;;;;;;;;;;;;;;;;
1300.0;1182.7;;;;;;;;;;;;;;;;;11.57033;-27.081364;-24.101994;;1099.8
1300.0;1182.7;;;;;;;;;;;;;;0.54933316;0.50825524;-0.11175878;;;;;1099.8
1300.0;1182.7;;;;;;;;;;;;;;;;;10.364849;-29.683065;-17.38792;;1099.8
1300.0;1182.7;;;;;;;;;;;;;;0.5653859;0.5020295;-0.11767937;;;;;1099.8
1300.0;1182.7;;;;;;;;;;;;;;;;;8.800775;-31.582844;-10.76159;;1109.4
1300.0;1182.7;;;;;;;;;;;;;;0.5914487;0.48567155;-0.1391644;;;;;1109.4
1300.0;1182.7;;;;;;;;;;;;;;;;;7.648701;-31.956696;-4.4099245;;1109.4
1300.0;1182.7;;;;;;;;;;;;;;0.61561936;0.46565142;-0.1690115;;;;;1109.4
1300.0;1182.7;;;;;;;;;;;;;;;;;7.4808497;-31.105991;1.4839625;;1119.1
1300.0;1182.7;;;;;;;;;;;;;;0.6440016;0.4405652;-0.20343639;;;;;1119.1
1300.0;1182.7;;;;;;;;;;;;;;;;;8.285776;-28.885769;6.7712946;;1119.1
1300.0;1182.7;;;;;;;;;;;;;;0.664449;0.41108432;-0.23700674;;;;;1119.1
1300.0;1189.7;;;;-0.5603486;0.6397057;-0.08115769;;;;;;;;;;;;;;;
1300.0;1189.7;;;;-0.5627938;0.6439858;-0.07987977;;;;;;;;;;;;;;;
1300.0;1189.7;;;;-0.56636816;0.6485444;-0.07970811;;;;;;;;;;;;;;;
1300.0;1189.7;;;;-0.57477576;0.65263754;-0.07937623;;;;;;;;;;;;;;;
1300.0;1189.7;;;;-0.58601004;0.6556397;-0.07684327;;;;;;;;;;;;;;;
1300.0;1199.7;;;;-0.594925;0.65882117;-0.0744896;;;;;;;;;;;;;;;
1300.0;1199.7;;;;-0.6023446;0.66109854;-0.07276917;;;;;;;;;;;;;;;
1300.0;1199.7;;;;-0.6137238;0.6645089;-0.07141114;;;;;;;;;;;;;;;
1300.0;1199.7;;;;-0.62497336;0.6669732;-0.06985856;;;;;;;;;;;;;;;
1300.0;1199.7;;;;-0.6350785;0.6670647;-0.06746293;;;;;;;;;;;;;;;
1300.0;1201.1;106664;106615;13080;;;;;;;;;;;;;;;;;;
1301.0;1207.2;;;;;;;;;;;;;3;;;;;;;;
1301.0;1207.2;;;;;;;;;;;;;-20;;;;;;;;
1301.0;1207.2;;;;;;;;;;;;;-27;;;;;;;;
1301.0;1207.2;;;;;;;;;;;;;39;;;;;;;;
1301.0;1207.2;;;;;;;;;;;;;-23;;;;;;;;
1301.0;1209.7;;;;-0.64999014;0.6670075;-0.065948494;;;;;;;;;;;;;;;
1301.0;1209.7;;;;-0.6660691;0.6686745;-0.06325532;;;;;;;;;;;;;;;
1301.0;1209.7;;;;-0.6805573;0.66888815;-0.05942536;;;;;;;;;;;;;;;
1301.0;1209.7;;;;-0.6947556;0.6683007;-0.057121284;;;;;;;;;;;;;;;
1301.0;1209.7;;;;-0.70924383;0.6693612;-0.054969795;;;;;;;;;;;;;;;
1301.0;1219.7;;;;-0.71895224;0.6683236;-0.04998017;;;;;;;;;;;;;;;
1301.0;1219.7;;;;-0.7318879;0.66870505;-0.047004707;;;;;;;;;;;;;;;
1301.0;1219.7;;;;-0.74355704;0.6691399;-0.04238892;;;;;;;;;;;;;;;
1301.0;1219.7;;;;-0.751156;0.6681214;-0.037277225;;;;;;;;;;;;;;;
1301.0;1219.7;;;;-0.7556344;0.66595846;-0.03186417;;;;;;;;;;;;;;;
1301.0;1221.2;123018;123036;13081;;;;;;;;;;;;;;;;;;
1301.0;1229.9;;;;-0.7601167;0.665844;-0.026905064;;;;;;;;;;;;;;;
1301.0;1229.9;;;;-0.7634393;0.6658669;-0.021850588;;;;;;;;;;;;;;;
1301.0;1229.9;;;;-0.7635957;0.6655999;-0.016529085;;;;;;;;;;;;;;;
1301.0;1229.9;;;;-0.7617341;0.66530615;-0.010982514;;;;;;;;;;;;;;;
1301.0;1229.9;;;;-0.757599;0.6646233;-0.0064163217;;;;;;;;;;;;;;;
1303.0;1239.9;;;;-0.75291455;0.66475683;-0.0027351382;;;;;;;;;;;;;;;
1303.0;1239.9;;;;-0.7475167;0.6658936;-6.370545E-4;;;;;;;;;;;;;;;
1303.0;1239.9;;;;-0.74116904;0.6671296;0.0020980837;;;;;;;;;;;;;;;
1303.0;1239.9;;;;-0.7343369;0.6679383;0.0042304997;;;;;;;;;;;;;;;
1303.0;1239.9;;;;-0.7282525;0.66847616;0.006095887;;;;;;;;;;;;;;;
1303.0;1241.9;;;;;;;;;;;;;;;;;9.495071;-25.57451;11.2880335;;1128.8
1303.0;1241.9;;;;;;;;;;;;;;0.6778771;0.38306832;-0.25708792;;;;;1128.8
1303.0;1241.9;;;;;;;;;;;;;;;;;10.925627;-22.48451;15.057069;;1128.8
1303.0;1241.9;;;;;;;;;;;;;;0.68330944;0.35444197;-0.26868495;;;;;1128.8
1303.0;1241.9;;;;;;;;;;;;;;;;;11.642812;-19.36018;18.200476;;1138.4
1303.0;1241.9;;;;;;;;;;;;;;0.6790979;0.33277383;-0.2573321;;;;;1138.4
1303.0;1241.9;;;;;;;;;;;;;;;;;11.848811;-17.063662;20.760216;;1138.4
1303.0;1241.9;;;;;;;;;;;;;;0.66945404;0.3203833;-0.2418897;;;;;1138.4
1303.0;1241.9;;;;;;;;;;;;;;;;;10.921812;-14.976958;22.854548;;1147.8
1303.0;1241.9;;;;;;;;;;;;;;0.65254676;0.3175756;-0.21472824;;;;;1147.8
1303.0;1241.9;;;;;;;;;;;;;;;;;9.399701;-13.237404;24.948881;;1147.8
1303.0;1241.9;;;;;;;;;;;;;;0.62727743;0.3145848;-0.18109684;;;;;1147.8
1303.0;1241.5;139383;139502;13081;;;;;;;;;;;;;;;;;;
1304.0;1242.6;;;;;;;;;;;;;;;;;8.037812;-12.962737;26.890623;;1157.5
1304.0;1242.6;;;;;;;;;;;;;;0.6073794;0.31611073;-0.1431318;;;;;1157.5
1304.0;1242.6;;;;;;;;;;;;;;;;;6.931516;-14.01944;28.87051;;1157.5
1304.0;1242.6;;;;;;;;;;;;;;0.59181494;0.3192236;-0.12018189;;;;;1157.5
1304.0;1242.6;;;;;;;;;;;;;;;;;6.1799984;-15.25544;30.953398;;1167.2
1304.0;1242.6;;;;;;;;;;;;;;0.57942444;0.32782984;-0.089602344;;;;;1167.2
1304.0;1242.6;;;;;;;;;;;;;;;;;6.408887;-17.555773;33.074436;;1167.2
1304.0;1242.6;;;;;;;;;;;;;;0.585284;0.34138006;-0.06488235;;;;;1167.2
1304.0;1242.6;;;;;;;;;;;;;;;;;7.5838494;-19.886623;34.600357;;1176.8
1304.0;1242.6;;;;;;;;;;;;;;0.5965758;0.37452316;-0.039246805;;;;;1176.8
1304.0;1242.6;;;;;;;;;;;;;;;;;9.388257;-21.92755;35.8211;;1176.8
1304.0;1242.6;;;;;;;;;;;;;;0.60982084;0.4166387;-0.013183996;;;;;1176.8
1304.0;1247.5;;;;;;;;;;;;;105;;;;;;;;
1304.0;1247.5;;;;;;;;;;;;;66;;;;;;;;
1304.0;1247.5;;;;;;;;;;;;;-113;;;;;;;;
1304.0;1247.5;;;;;;;;;;;;;658;;;;;;;;
1304.0;1247.5;;;;;;;;;;;;;-281;;;;;;;;
1304.0;1249.9;;;;-0.7225266;0.66870505;0.0071487436;;;;;;;;;;;;;;;
1304.0;1249.9;;;;-0.71641165;0.66902167;0.008880616;;;;;;;;;;;;;;;
1304.0;1249.9;;;;-0.7110558;0.66948706;0.0108299265;;;;;;;;;;;;;;;
1304.0;1249.9;;;;-0.7068177;0.66872793;0.013465883;;;;;;;;;;;;;;;
1304.0;1249.9;;;;-0.7031937;0.6689988;0.015422823;;;;;;;;;;;;;;;
1361.0;1259.9;;;;-0.69943243;0.66943365;0.01815796;;;;;;;;;;;;;;;
1361.0;1259.9;;;;-0.6970177;0.6691933;0.020889284;;;;;;;;;;;;;;;
1361.0;1259.9;;;;-0.69567114;0.6685906;0.023349764;;;;;;;;;;;;;;;
1361.0;1259.9;;;;-0.6927796;0.66794974;0.027538303;;;;;;;;;;;;;;;
1361.0;1259.9;;;;-0.6901017;0.66738135;0.033264164;;;;;;;;;;;;;;;
1361.0;1261.5;155826;155734;13096;;;;;;;;;;;;;;;;;;
1361.0;1269.7;;;;-0.68871695;0.6670075;0.038852695;;;;;;;;;;;;;;;
1361.0;1269.7;;;;-0.68845373;0.66704184;0.04454041;;;;;;;;;;;;;;;
1361.0;1269.7;;;;-0.6885033;0.66733557;0.049488075;;;;;;;;;;;;;;;
1361.0;1269.7;;;;-0.687584;0.66653067;0.05498887;;;;;;;;;;;;;;;
1361.0;1269.7;;;;-0.68482214;0.6649056;0.060356148;;;;;;;;;;;;;;;
1361.0;1279.8;;;;-0.6828576;0.66236883;0.06507111;;;;;;;;;;;;;;;
1361.0;1279.8;;;;-0.6851044;0.6628228;0.06792832;;;;;;;;;;;;;;;
1361.0;1279.8;;;;-0.6896668;0.66320425;0.06895829;;;;;;;;;;;;;;;
1361.0;1279.8;;;;-0.68853;0.66236883;0.071609505;;;;;;;;;;;;;;;
1361.0;1279.8;;;;-0.68845373;0.6617661;0.073860176;;;;;;;;;;;;;;;
1361.0;1281.4;172241;172136;13086;;;;;;;;;;;;;;;;;;
1361.0;1287.5;;;;;;;;;;;;;-2167;;;;;;;;
1361.0;1287.5;;;;;;;;;;;;;800;;;;;;;;
1361.0;1287.5;;;;;;;;;;;;;4562;;;;;;;;
1361.0;1287.5;;;;;;;;;;;;;-2799;;;;;;;;
1361.0;1287.5;;;;;;;;;;;;;-24469;;;;;;;;
1362.0;1289.9;;;;-0.6911202;0.66213614;0.075752266;;;;;;;;;;;;;;;
1362.0;1289.9;;;;-0.691639;0.66172034;0.07619477;;;;;;;;;;;;;;;
1362.0;1289.9;;;;-0.6890984;0.661316;0.07775117;;;;;;;;;;;;;;;
1362.0;1289.9;;;;-0.68669516;0.6608315;0.079414375;;;;;;;;;;;;;;;
1362.0;1289.9;;;;-0.68745047;0.6607209;0.07708741;;;;;;;;;;;;;;;
1362.0;1300.0;;;;-0.6900788;0.66177756;0.07615281;;;;;;;;;;;;;;;
1362.0;1300.0;;;;-0.6931725;0.66288763;0.07632447;;;;;;;;;;;;;;;
1362.0;1300.0;;;;-0.69535834;0.66305166;0.07546235;;;;;;;;;;;;;;;
1362.0;1300.0;;;;-0.6990014;0.6643525;0.074954994;;;;;;;;;;;;;;;
1362.0;1300.0;;;;-0.70545584;0.6678887;0.07326127;;;;;;;;;;;;;;;
1362.0;1302.0;;;;;;;;;;;;;;;;;11.658071;-23.598438;36.854916;;1186.5
1362.0;1302.0;;;;;;;;;;;;;;0.6263009;0.46320993;0.0145268105;;;;;1186.5
1362.0;1302.0;;;;;;;;;;;;;;;;;14.427626;-25.200659;37.686546;;1186.5
1362.0;1302.0;;;;;;;;;;;;;;0.63832515;0.4977569;0.039063692;;;;;1186.5
1362.0;1302.0;;;;;;;;;;;;;;;;;17.433699;-26.8334;38.270214;;1196.1
1362.0;1302.0;;;;;;;;;;;;;;0.64784694;0.535905;0.07257301;;;;;1196.1
1362.0;1302.0;;;;;;;;;;;;;;;;;20.054476;-28.923918;38.842434;;1196.1
1362.0;1302.0;;;;;;;;;;;;;;0.6587115;0.5759453;0.1093173;;;;;1196.1
1362.0;1302.0;;;;;;;;;;;;;;;;;22.453993;-30.648212;39.448986;;1205.7
1362.0;1302.0;;;;;;;;;;;;;;0.66713464;0.61903745;0.15106662;;;;;1205.7
1362.0;1302.0;;;;;;;;;;;;;;;;;24.628439;-31.96814;40.002136;;1205.7
1362.0;1302.0;;;;;;;;;;;;;;0.6805017;0.6726279;0.19525743;;;;;1205.7
1362.0;1301.7;188585;188562;13086;;;;;;;;;;;;;;;;;;
1363.0;1303.1;;;;;;;;;;;;;;;;;27.066103;-32.021545;40.540024;;1215.4
1363.0;1303.1;;;;;;;;;;;;;;0.6964324;0.7275613;0.22571489;;;;;1215.4
1363.0;1303.1;;;;;;;;;;;;;;;;;29.5114;-30.037842;40.57054;;1215.4
1363.0;1303.1;;;;;;;;;;;;;;0.70149845;0.8024537;0.2535478;;;;;1215.4
1363.0;1303.1;;;;;;;;;;;;;;;;;31.23188;-27.779472;40.79943;;1225.1
1363.0;1303.1;;;;;;;;;;;;;;0.6967986;0.87380594;0.26013976;;;;;1225.1
1363.0;1303.1;;;;;;;;;;;;;;;;;31.434067;-25.521103;40.414135;;1225.1
1363.0;1303.1;;;;;;;;;;;;;;0.6921598;0.9477218;0.2454909;;;;;1225.1
1363.0;1303.1;;;;;;;;;;;;;;;;;29.911955;-22.640919;39.426098;;1234.7
1363.0;1303.1;;;;;;;;;;;;;;0.68636125;1.0265816;0.23090304;;;;;1234.7
1363.0;1303.1;;;;;;;;;;;;;;;;;27.905361;-19.856104;37.957397;;1234.7
1363.0;1303.1;;;;;;;;;;;;;;0.6740928;1.0917081;0.19873653;;;;;1234.7
1363.0;1309.9;;;;-0.7113953;0.67262655;0.07297135;;;;;;;;;;;;;;;
1363.0;1309.9;;;;-0.7140656;0.6760407;0.07369233;;;;;;;;;;;;;;;
1363.0;1309.9;;;;-0.71479803;0.67892843;0.075393684;;;;;;;;;;;;;;;
1363.0;1309.9;;;;-0.71599203;0.6821404;0.07699204;;;;;;;;;;;;;;;
1363.0;1309.9;;;;-0.71875006;0.68640906;0.07767869;;;;;;;;;;;;;;;
1420.0;1316.8;;;;;;;;;;;;;;;;;26.875362;-18.730736;35.920284;;1244.4
1420.0;1316.8;;;;;;;;;;;;;;0.67397076;1.1604968;0.15289773;;;;;1244.4
1420.0;1316.8;;;;;;;;;;;;;;;;;26.165808;-17.803736;33.375805;;1244.4
1420.0;1316.8;;;;;;;;;;;;;;0.6712241;1.2105472;0.10357982;;;;;1244.4
1420.0;1316.8;;;;;;;;;;;;;;;;;25.387585;-16.251106;29.000214;;1253.9
1420.0;1316.8;;;;;;;;;;;;;;0.66982025;1.2869655;0.07074191;;;;;1253.9
1420.0;1316.8;;;;;;;;;;;;;;;;;24.498734;-16.0947;24.418623;;1253.9
1420.0;1316.8;;;;;;;;;;;;;;0.6648762;1.335429;0.03302103;;;;;1253.9
1420.0;1316.8;;;;;;;;;;;;;;;;;22.591326;-16.98355;17.860958;;1263.5
1420.0;1316.8;;;;;;;;;;;;;;0.6735435;1.3933531;-0.018311106;;;;;1263.5
1420.0;1316.8;;;;;;;;;;;;;;;;;19.001587;-16.003143;10.696738;;1263.5
1420.0;1316.8;;;;;;;;;;;;;;0.6799524;1.4340647;-0.057435837;;;;;1263.5
1420.0;1319.7;;;;-0.7220307;0.69055945;0.07793809;;;;;;;;;;;;;;;
1420.0;1319.7;;;;-0.72702795;0.69531256;0.07740403;;;;;;;;;;;;;;;
1420.0;1319.7;;;;-0.73081213;0.7009888;0.078910835;;;;;;;;;;;;;;;
1420.0;1319.7;;;;-0.7329865;0.70550543;0.07932282;;;;;;;;;;;;;;;
1420.0;1319.7;;;;-0.7337075;0.71049505;0.0816002;;;;;;;;;;;;;;;
1420.0;1321.5;204926;204952;13091;;;;;;;;;;;;;;;;;;
1420.0;1327.4;;;;;;;;;;;;;-47447;;;;;;;;
1420.0;1327.4;;;;;;;;;;;;;-56640;;;;;;;;
1420.0;1327.4;;;;;;;;;;;;;-52216;;;;;;;;
1420.0;1327.4;;;;;;;;;;;;;-46051;;;;;;;;
1420.0;1327.4;;;;;;;;;;;;;-45197;;;;;;;;
1422.0;1329.6;;;;-0.7363854;0.7162972;0.08290864;;;;;;;;;;;;;;;
1422.0;1329.6;;;;-0.74090964;0.7225495;0.08255387;;;;;;;;;;;;;;;
1422.0;1329.6;;;;-0.7436066;0.7278634;0.08267594;;;;;;;;;;;;;;;
1422.0;1329.6;;;;-0.7457085;0.7333756;0.083118446;;;;;;;;;;;;;;;
1422.0;1329.6;;;;-0.74561316;0.7377396;0.08399583;;;;;;;;;;;;;;;
1422.0;1339.7;;;;-0.7450829;0.74236685;0.08748246;;;;;;;;;;;;;;;
1422.0;1339.7;;;;-0.748005;0.74843603;0.0906601;;;;;;;;;;;;;;;
1422.0;1339.7;;;;-0.75095;0.7534791;0.09227372;;;;;;;;;;;;;;;
1422.0;1339.7;;;;-0.7520906;0.7572328;0.09449388;;;;;;;;;;;;;;;
1422.0;1339.7;;;;-0.75127804;0.7608148;0.09767152;;;;;;;;;;;;;;;
1422.0;1341.5;221408;221405;13101;;;;;;;;;;;;;;;;;;
1422.0;1349.8;;;;-0.7503854;0.7619821;0.101799026;;;;;;;;;;;;;;;
1422.0;1349.8;;;;-0.7526094;0.76448834;0.10624315;;;;;;;;;;;;;;;
1422.0;1349.8;;;;-0.7550012;0.76588833;0.10823442;;;;;;;;;;;;;;;
1422.0;1349.8;;;;-0.75616086;0.76745236;0.11061098;;;;;;;;;;;;;;;
1422.0;1349.8;;;;-0.75670636;0.76742184;0.110519424;;;;;;;;;;;;;;;
1422.0;1359.9;;;;-0.7568437;0.7681657;0.1122513;;;;;;;;;;;;;;;
1422.0;1359.9;;;;-0.75449;0.7674409;0.11612703;;;;;;;;;;;;;;;
1422.0;1359.9;;;;-0.74496466;0.76103604;0.120258346;;;;;;;;;;;;;;;
1422.0;1359.9;;;;-0.7431069;0.7576257;0.12561418;;;;;;;;;;;;;;;
1422.0;1359.9;;;;-0.75638974;0.757126;0.123058334;;;;;;;;;;;;;;;
1423.0;1361.8;;;;;;;;;;;;;;;;;13.382367;-15.266884;3.8148136;;1273.2
1423.0;1361.8;;;;;;;;;;;;;;0.70064396;1.4358349;-0.09973449;;;;;1273.2
1423.0;1361.8;;;;;;;;;;;;;;;;;5.5200357;-13.9317;-1.945555;;1273.2
1423.0;1361.8;;;;;;;;;;;;;;0.72493666;1.4117862;-0.13000885;;;;;1273.2
1423.0;1361.8;;;;;;;;;;;;;;;;;-3.7804804;-12.646107;-6.328776;;1282.8
1423.0;1361.8;;;;;;;;;;;;;;0.7449568;1.353557;-0.14587848;;;;;1282.8
1423.0;1361.8;;;;;;;;;;;;;;;;;-13.91644;-12.19596;-9.235664;;1282.8
1423.0;1361.8;;;;;;;;;;;;;;0.7788324;1.2525407;-0.15204321;;;;;1282.8
1423.0;1361.8;;;;;;;;;;;;;;;;;-24.498734;-11.383404;-10.181738;;1292.5
1423.0;1361.8;;;;;;;;;;;;;;0.81588185;1.1125828;-0.14123966;;;;;1292.5
1423.0;1361.8;;;;;;;;;;;;;;;;;-34.234135;-10.818812;-9.704886;;1292.5
1423.0;1361.8;;;;;;;;;;;;;;0.8530534;0.96151614;-0.11694693;;;;;1292.5
1423.0;1361.7;237681;237735;13088;;;;;;;;;;;;;;;;;;
1423.0;1367.5;;;;;;;;;;;;;-44973;;;;;;;;
1423.0;1367.5;;;;;;;;;;;;;-42657;;;;;;;;
1423.0;1367.5;;;;;;;;;;;;;-40954;;;;;;;;
1423.0;1367.5;;;;;;;;;;;;;-39255;;;;;;;;
1423.0;1367.5;;;;;;;;;;;;;-37279;;;;;;;;
1423.0;1369.6;;;;-0.77342236;0.7611009;0.1179619;;;;;;;;;;;;;;;
1423.0;1369.6;;;;-0.7715341;0.7596742;0.11938478;;;;;;;;;;;;;;;
1423.0;1369.6;;;;-0.7608911;0.7546693;0.12427141;;;;;;;;;;;;;;;
1423.0;1369.6;;;;-0.75001156;0.7463456;0.13140489;;;;;;;;;;;;;;;
1423.0;1369.6;;;;-0.74604803;0.73982626;0.13616563;;;;;;;;;;;;;;;
1480.0;1376.7;;;;;;;;;;;;;;;;;-42.439804;-9.926145;-8.594775;;1302.1
1480.0;1376.7;;;;;;;;;;;;;;0.87350076;0.868923;-0.07763909;;;;;1302.1
1480.0;1376.7;;;;;;;;;;;;;;;;;-50.27543;-8.751183;-6.9505906;;1302.1
1480.0;1376.7;;;;;;;;;;;;;;0.8894314;0.7635121;-0.030030213;;;;;1302.1
1480.0;1376.7;;;;;;;;;;;;;;;;;-57.103947;-7.4045534;-4.9821467;;1311.8
1480.0;1376.7;;;;;;;;;;;;;;0.90163887;0.6783044;0.014343699;;;;;1311.8
1480.0;1376.7;;;;;;;;;;;;;;;;;-62.398907;-5.8709984;-3.1853695;;1311.8
1480.0;1376.7;;;;;;;;;;;;;;0.9137852;0.60463274;0.05121006;;;;;1311.8
1480.0;1376.7;;;;;;;;;;;;;;;;;-65.65676;-3.952147;-1.2741477;;1321.4
1480.0;1376.7;;;;;;;;;;;;;;0.92190313;0.5305338;0.08954131;;;;;1321.4
1480.0;1376.7;;;;;;;;;;;;;;;;;-66.68676;-1.6823329;0.6027406;;1321.4
1480.0;1376.7;;;;;;;;;;;;;;0.9300821;0.47053438;0.1248207;;;;;1321.4
1480.0;1379.5;;;;-0.75005734;0.7367402;0.13531114;;;;;;;;;;;;;;;
1480.0;1379.5;;;;-0.7541009;0.7311097;0.13201524;;;;;;;;;;;;;;;
1480.0;1379.5;;;;-0.75535977;0.72677237;0.12969972;;;;;;;;;;;;;;;
1480.0;1379.5;;;;-0.7516252;0.72129446;0.12909319;;;;;;;;;;;;;;;
1480.0;1379.5;;;;-0.74898535;0.7163163;0.12826158;;;;;;;;;;;;;;;
1480.0;1381.4;254067;254107;13089;;;;;;;;;;;;;;;;;;
1480.0;1389.4;;;;-0.7487374;0.7135468;0.124130264;;;;;;;;;;;;;;;
1480.0;1389.4;;;;-0.74675375;0.7094689;0.11629106;;;;;;;;;;;;;;;
1480.0;1389.4;;;;-0.7422181;0.70571905;0.110130325;;;;;;;;;;;;;;;
1480.0;1389.4;;;;-0.7391663;0.7038117;0.10265733;;;;;;;;;;;;;;;
1480.0;1389.4;;;;-0.7367249;0.70434195;0.09441759;;;;;;;;;;;;;;;
1483.0;1399.5;;;;-0.7350159;0.7053452;0.086082466;;;;;;;;;;;;;;;
1483.0;1399.5;;;;-0.7335244;0.70859534;0.078796394;;;;;;;;;;;;;;;
1483.0;1399.5;;;;-0.73408896;0.7133942;0.0741005;;;;;;;;;;;;;;;
1483.0;1399.5;;;;-0.7342034;0.7189446;0.071464546;;;;;;;;;;;;;;;
1483.0;1399.5;;;;-0.73415;0.7251206;0.07048798;;;;;;;;;;;;;;;
1483.0;1401.5;262143;262143;13090;;;;;;;;;;;;;;;;;;
1483.0;1407.5;;;;;;;;;;;;;-35816;;;;;;;;
1483.0;1407.5;;;;;;;;;;;;;-34332;;;;;;;;
1483.0;1407.5;;;;;;;;;;;;;-32751;;;;;;;;
1483.0;1407.5;;;;;;;;;;;;;-31261;;;;;;;;
1483.0;1407.5;;;;;;;;;;;;;-30047;;;;;;;;
1483.0;1409.6;;;;-0.7347413;0.7326012;0.06931687;;;;;;;;;;;;;;;
1483.0;1409.6;;;;-0.7357407;0.7421265;0.067947395;;;;;;;;;;;;;;;
1483.0;1409.6;;;;-0.74609;0.75652325;0.06859971;;;;;;;;;;;;;;;
1483.0;1409.6;;;;-0.7623979;0.7764894;0.06653214;;;;;;;;;;;;;;;
1483.0;1409.6;;;;-0.7738153;0.79407513;0.06241227;;;;;;;;;;;;;;;
1483.0;1419.7;;;;-0.7755815;0.8096925;0.06608964;;;;;;;;;;;;;;;
1483.0;1419.7;;;;-0.7768594;0.8222734;0.069973;;;;;;;;;;;;;;;
1483.0;1419.7;;;;-0.79171;0.84043515;0.070903786;;;;;;;;;;;;;;;
1483.0;1419.7;;;;-0.8117181;0.86065304;0.06925965;;;;;;;;;;;;;;;
1483.0;1419.7;;;;-0.8233682;0.8768579;0.07021714;;;;;;;;;;;;;;;
1485.0;1421.9;;;;;;;;;;;;;;;;;-65.218056;1.0795922;2.376629;;1330.9
1485.0;1421.9;;;;;;;;;;;;;;0.93740654;0.43055514;0.1485641;;;;;1330.9
1485.0;1421.9;;;;;;;;;;;;;;;;;-61.922054;4.772332;3.89111;;1330.9
1485.0;1421.9;;;;;;;;;;;;;;0.93710136;0.4148076;0.17041536;;;;;1330.9
1485.0;1421.9;;;;;;;;;;;;;;;;;-57.042908;9.083072;5.352184;;1340.5
1485.0;1421.9;;;;;;;;;;;;;;0.94405955;0.36298716;0.1942198;;;;;1340.5
1485.0;1421.9;;;;;;;;;;;;;;;;;-49.703205;14.042329;7.122257;;1340.5
1485.0;1421.9;;;;;;;;;;;;;;0.9537034;0.32312998;0.2318186;;;;;1340.5
1485.0;1421.9;;;;;;;;;;;;;;;;;-40.391247;19.0817;9.559923;;1350.1
1485.0;1421.9;;;;;;;;;;;;;;0.9774468;0.29981384;0.28119755;;;;;1350.1
1485.0;1421.9;;;;;;;;;;;;;;;;;-29.553362;22.534103;13.672293;;1350.1
1485.0;1421.9;;;;;;;;;;;;;;1.0163274;0.32685325;0.33326212;;;;;1350.1
1485.0;1421.7;262143;262143;13077;;;;;;;;;;;;;;;;;;
1485.0;1429.7;;;;-0.833233;0.8899194;0.07722474;;;;;;;;;;;;;;;
1485.0;1429.7;;;;-0.8448373;0.9069482;0.08749009;;;;;;;;;;;;;;;
1485.0;1429.7;;;;-0.8545495;0.92126477;0.100540176;;;;;;;;;;;;;;;
1485.0;1429.7;;;;-0.8651506;0.9320985;0.113964096;;;;;;;;;;;;;;;
1485.0;1429.7;;;;-0.8775369;0.94192135;0.12915803;;;;;;;;;;;;;;;
1540.0;1436.9;;;;;;;;;;;;;;;;;-14.473403;18.707848;19.940031;;1359.8
1540.0;1436.9;;;;;;;;;;;;;;1.1001923;0.34449294;0.32575458;;;;;1359.8
1540.0;1436.9;;;;;;;;;;;;;;;;;9.521775;2.5711844;27.314068;;1359.8
1540.0;1436.9;;;;;;;;;;;;;;1.2356334;0.37720877;0.22907193;;;;;1359.8
1540.0;1436.9;;;;;;;;;;;;;;;;;40.601063;-23.453474;33.738213;;1369.4
1540.0;1436.9;;;;;;;;;;;;;;1.4314401;0.41108432;0.057069615;;;;;1369.4
1540.0;1436.9;;;;;;;;;;;;;;;;;65.68728;-38.312176;39.109467;;1369.4
1540.0;1436.9;;;;;;;;;;;;;;1.584399;0.40748313;-0.13995789;;;;;1369.4
1540.0;1436.9;;;;;;;;;;;;;;;;;79.580826;-26.882992;44.46928;;1379.1
1540.0;1436.9;;;;;;;;;;;;;;1.6064333;0.37965026;-0.23084201;;;;;1379.1
1540.0;1436.9;;;;;;;;;;;;;;;;;89.11786;-3.2654805;48.875393;;1379.1
1540.0;1436.9;;;;;;;;;;;;;;1.5186621;0.33515427;-0.25263223;;;;;1379.1
1540.0;1439.6;;;;-0.89398587;0.953354;0.1392708;;;;;;;;;;;;;;;
1540.0;1439.6;;;;-0.9052087;0.9616929;0.15210725;;;;;;;;;;;;;;;
1540.0;1439.6;;;;-0.91025937;0.9670335;0.16485216;;;;;;;;;;;;;;;
1540.0;1439.6;;;;-0.91358197;0.97140515;0.17926027;;;;;;;;;;;;;;;
1540.0;1439.6;;;;-0.92011654;0.97555554;0.19309238;;;;;;;;;;;;;;;
1540.0;1441.6;262143;262143;13074;;;;;;;;;;;;;;;;;;
1540.0;1447.5;;;;;;;;;;;;;-29040;;;;;;;;
1540.0;1447.5;;;;;;;;;;;;;-27771;;;;;;;;
1540.0;1447.5;;;;;;;;;;;;;-25911;;;;;;;;
1540.0;1447.5;;;;;;;;;;;;;-23583;;;;;;;;
1540.0;1447.5;;;;;;;;;;;;;-21278;;;;;;;;
1543.0;1449.4;;;;-0.9317514;0.9817964;0.20222858;;;;;;;;;;;;;;;
1543.0;1449.4;;;;-0.9360467;0.9830743;0.20685962;;;;;;;;;;;;;;;
1543.0;1449.4;;;;-0.93250287;0.98197186;0.21381;;;;;;;;;;;;;;;
1543.0;1449.4;;;;-0.9252778;0.98023236;0.2227135;;;;;;;;;;;;;;;
1543.0;1449.4;;;;-0.92068875;0.9774934;0.22708896;;;;;;;;;;;;;;;
1543.0;1459.5;;;;-0.9150201;0.97366345;0.22983173;;;;;;;;;;;;;;;
1543.0;1459.5;;;;-0.9096452;0.96896374;0.23176959;;;;;;;;;;;;;;;
1543.0;1459.5;;;;-0.91274655;0.96813214;0.23132709;;;;;;;;;;;;;;;
1543.0;1459.5;;;;-0.90929806;0.96452725;0.22805789;;;;;;;;;;;;;;;
1543.0;1459.5;;;;-0.89411557;0.9575921;0.23043445;;;;;;;;;;;;;;;
1543.0;1461.6;262143;262143;13077;;;;;;;;;;;;;;;;;;
1543.0;1469.6;;;;-0.8817941;0.9511033;0.23443988;;;;;;;;;;;;;;;
1543.0;1469.6;;;;-0.8746377;0.946602;0.23453525;;;;;;;;;;;;;;;
1543.0;1469.6;;;;-0.8711206;0.9420625;0.23067096;;;;;;;;;;;;;;;
1543.0;1469.6;;;;-0.8694993;0.9394685;0.22711948;;;;;;;;;;;;;;;
1543.0;1469.6;;;;-0.86678326;0.9379121;0.22195438;;;;;;;;;;;;;;;
1543.0;1479.7;;;;-0.857937;0.9338075;0.21835712;;;;;;;;;;;;;;;
1543.0;1479.7;;;;-0.8480264;0.9306947;0.218277;;;;;;;;;;;;;;;
1543.0;1479.7;;;;-0.84451306;0.93065274;0.21771243;;;;;;;;;;;;;;;
1543.0;1479.7;;;;-0.8484422;0.9337007;0.21195224;;;;;;;;;;;;;;;
1543.0;1479.7;;;;-0.8487283;0.93475735;0.2050362;;;;;;;;;;;;;;;
1545.0;1482.1;;;;;;;;;;;;;;;;;100.56612;15.457625;51.423687;;1388.7
1545.0;1482.1;;;;;;;;;;;;;;1.4050722;0.29126865;-0.26886806;;;;;1388.7
1545.0;1482.1;;;;;;;;;;;;;;;;;112.76589;24.594105;51.00406;;1388.7
1545.0;1482.1;;;;;;;;;;;;;;1.2917265;0.2910245;-0.2727134;;;;;1388.7
1545.0;1482.1;;;;;;;;;;;;;;;;;119.30449;25.940733;47.887356;;1398.3
1545.0;1482.1;;;;;;;;;;;;;;1.1714835;0.3144017;-0.2900479;;;;;1398.3
1545.0;1482.1;;;;;;;;;;;;;;;;;116.19541;25.135807;42.458878;;1398.3
1545.0;1482.1;;;;;;;;;;;;;;1.041963;0.32337412;-0.30164495;;;;;1398.3
1545.0;1482.1;;;;;;;;;;;;;;;;;103.86593;23.937956;35.431988;;1408.0
1545.0;1482.1;;;;;;;;;;;;;;0.95455796;0.35108495;-0.30475783;;;;;1408.0
1545.0;1482.1;;;;;;;;;;;;;;;;;86.939606;22.812586;26.276438;;1408.0
1545.0;1482.1;;;;;;;;;;;;;;0.8971221;0.39680165;-0.29932556;;;;;1408.0
1545.0;1481.9;262143;262143;13071;;;;;;;;;;;;;;;;;;
1545.0;1487.8;;;;;;;;;;;;;-19303;;;;;;;;
1545.0;1487.8;;;;;;;;;;;;;-17503;;;;;;;;
1545.0;1487.8;;;;;;;;;;;;;-15673;;;;;;;;
1545.0;1487.8;;;;;;;;;;;;;-13921;;;;;;;;
1545.0;1487.8;;;;;;;;;;;;;-12619;;;;;;;;
1599.0;1489.5;;;;;;;;;;;;;;;;;69.97894;21.408735;15.930662;;1417.6
1599.0;1489.5;;;;;;;;;;;;;;0.839259;0.4499649;-0.2992645;;;;;1417.6
1599.0;1489.5;;;;;;;;;;;;;;;;;53.605762;18.566698;5.050813;;1417.6
1599.0;1489.5;;;;;;;;;;;;;;0.76924956;0.46009704;-0.29303873;;;;;1417.6
1599.0;1489.5;;;;;;;;;;;;;;;;;37.781918;14.751884;-5.3407393;;1427.3
1599.0;1489.5;;;;;;;;;;;;;;0.71596426;0.458388;-0.25891903;;;;;1427.3
1599.0;1489.5;;;;;;;;;;;;;;;;;24.285105;10.242775;-13.088626;;1427.3
1599.0;1489.5;;;;;;;;;;;;;;0.6905118;0.44196907;-0.1779229;;;;;1427.3
1599.0;1489.5;;;;;;;;;;;;;;;;;16.472366;4.459517;-17.891476;;1436.9
1599.0;1489.5;;;;;;;;;;;;;;0.6979583;0.41047394;-0.11688589;;;;;1436.9
1599.0;1489.5;;;;;;;;;;;;;;;;;16.075624;0.88122195;-19.291513;;1436.9
1599.0;1489.5;;;;;;;;;;;;;;0.7134617;0.35175633;-0.094363235;;;;;1436.9
1599.0;1489.6;;;;-0.8379098;0.929886;0.19951251;;;;;;;;;;;;;;;
1599.0;1489.6;;;;-0.82608426;0.9279672;0.19974521;;;;;;;;;;;;;;;
1599.0;1489.6;;;;-0.8177568;0.92808163;0.199173;;;;;;;;;;;;;;;
1599.0;1489.6;;;;-0.8121873;0.9279939;0.19925693;;;;;;;;;;;;;;;
1599.0;1489.6;;;;-0.81061184;0.9323312;0.19757083;;;;;;;;;;;;;;;
1599.0;1499.6;;;;-0.80902874;0.93476117;0.19370273;;;;;;;;;;;;;;;
1599.0;1499.6;;;;-0.8016664;0.9323312;0.19103244;;;;;;;;;;;;;;;
1599.0;1499.6;;;;-0.7935678;0.93418896;0.19393542;;;;;;;;;;;;;;;
1599.0;1499.6;;;;-0.7858888;0.93543255;0.19432071;;;;;;;;;;;;;;;
1599.0;1499.6;;;;-0.78247845;0.9381753;0.19677737;;;;;;;;;;;;;;;
1599.0;1501.8;262143;262143;13072;;;;;;;;;;;;;;;;;;
1601.0;1509.4;;;;-0.7850572;0.94402707;0.20180514;;;;;;;;;;;;;;;
1601.0;1509.4;;;;-0.78751004;0.95115674;0.204258;;;;;;;;;;;;;;;
1601.0;1509.4;;;;-0.7856561;0.9557115;0.20604327;;;;;;;;;;;;;;;
1601.0;1509.4;;;;-0.77843106;0.95754254;0.20723727;;;;;;;;;;;;;;;
1601.0;1509.4;;;;-0.771927;0.961094;0.21163562;;;;;;;;;;;;;;;
1601.0;1519.5;;;;-0.7668382;0.96823514;0.21636203;;;;;;;;;;;;;;;
1601.0;1519.5;;;;-0.7616235;0.9735185;0.21786502;;;;;;;;;;;;;;;
1601.0;1519.5;;;;-0.758278;0.98064053;0.21674731;;;;;;;;;;;;;;;
1601.0;1519.5;;;;-0.7561799;0.9892045;0.21298984;;;;;;;;;;;;;;;
1601.0;1519.5;;;;-0.7516366;0.9952661;0.2102814;;;;;;;;;;;;;;;
1601.0;1521.8;262143;262143;13071;;;;;;;;;;;;;;;;;;
1601.0;1527.8;;;;;;;;;;;;;-11825;;;;;;;;
1601.0;1527.8;;;;;;;;;;;;;-11073;;;;;;;;
1601.0;1527.8;;;;;;;;;;;;;-10113;;;;;;;;
1601.0;1527.8;;;;;;;;;;;;;-9217;;;;;;;;
1601.0;1527.8;;;;;;;;;;;;;-8664;;;;;;;;
1601.0;1529.6;;;;-0.7447739;0.9983331;0.20931247;;;;;;;;;;;;;;;
1601.0;1529.6;;;;-0.7378617;0.99829495;0.20611194;;;;;;;;;;;;;;;
1601.0;1529.6;;;;-0.72967535;1.0011941;0.20450976;;;;;;;;;;;;;;;
1601.0;1529.6;;;;-0.7283669;1.0030214;0.20345691;;;;;;;;;;;;;;;
1601.0;1529.6;;;;-0.7293511;1.0037919;0.20019916;;;;;;;;;;;;;;;
1602.0;1539.7;;;;-0.72528845;1.0014955;0.19554141;;;;;;;;;;;;;;;
1602.0;1539.7;;;;-0.72160345;0.99935544;0.19235995;;;;;;;;;;;;;;;
1602.0;1539.7;;;;-0.7214661;0.9971353;0.18778613;;;;;;;;;;;;;;;
1602.0;1539.7;;;;-0.7252808;0.9968606;0.18186952;;;;;;;;;;;;;;;
1602.0;1539.7;;;;-0.72866064;0.9990884;0.17738344;;;;;;;;;;;;;;;
1602.0;1542.2;;;;;;;;;;;;;;;;;22.335733;-0.42725915;-17.16666;;1446.5
1602.0;1542.2;;;;;;;;;;;;;;0.7412336;0.28131962;-0.08600116;;;;;1446.5
1602.0;1542.2;;;;;;;;;;;;;;;;;31.311993;-0.32044435;-11.875515;;1446.5
1602.0;1542.2;;;;;;;;;;;;;;0.7817621;0.20899075;-0.06292917;;;;;1446.5
1602.0;1542.2;;;;;;;;;;;;;;;;;40.906246;0.16403699;-4.40611;;1456.0
1602.0;1542.2;;;;;;;;;;;;;;0.83187354;0.13592944;-0.020996734;;;;;1456.0
1602.0;1542.2;;;;;;;;;;;;;;;;;50.45091;1.1558886;4.0971103;;1456.0
1602.0;1542.2;;;;;;;;;;;;;;0.88369393;0.07428205;0.009643849;;;;;1456.0
1602.0;1542.2;;;;;;;;;;;;;;;;;61.60924;3.3341472;14.080477;;1465.5
1602.0;1542.2;;;;;;;;;;;;;;0.90896326;0.009949034;0.016357921;;;;;1465.5
1602.0;1542.2;;;;;;;;;;;;;;;;;74.91531;6.023591;24.781029;;1465.5
1602.0;1542.2;;;;;;;;;;;;;;0.90047914;-0.03790399;-0.031250954;;;;;1465.5
1602.0;1542.0;262143;262143;13063;;;;;;;;;;;;;;;;;;
1602.0;1549.7;;;;-0.7294007;0.99943936;0.17267229;;;;;;;;;;;;;;;
1602.0;1549.7;;;;-0.7302094;1.0026933;0.17004777;;;;;;;;;;;;;;;
1602.0;1549.7;;;;-0.73299795;1.0068742;0.16750719;;;;;;;;;;;;;;;
1602.0;1549.7;;;;-0.73810965;1.0128671;0.16342165;;;;;;;;;;;;;;;
1602.0;1549.7;;;;-0.7424355;1.0190774;0.16051103;;;;;;;;;;;;;;;
1658.0;1550.0;;;;;;;;;;;;;;;;;89.9762;7.930998;36.267433;;1475.2
1658.0;1550.0;;;;;;;;;;;;;;0.87874997;-0.05529954;-0.10455641;;;;;1475.2
1658.0;1550.0;;;;;;;;;;;;;;;;;104.62127;6.9277015;48.79147;;1475.2
1658.0;1550.0;;;;;;;;;;;;;;0.86410105;-0.10132145;-0.1984924;;;;;1475.2
1658.0;1550.0;;;;;;;;;;;;;;;;;117.04993;3.5706656;61.544388;;1484.8
1658.0;1550.0;;;;;;;;;;;;;;0.8534196;-0.10730308;-0.28949857;;;;;1484.8
1658.0;1550.0;;;;;;;;;;;;;;;;;123.325294;-1.1444441;72.51961;;1484.8
1658.0;1550.0;;;;;;;;;;;;;;0.8664205;-0.12018189;-0.34797204;;;;;1484.8
1658.0;1550.0;;;;;;;;;;;;;;;;;122.238075;-2.277444;80.030975;;1494.5
1658.0;1550.0;;;;;;;;;;;;;;0.906827;-0.071657464;-0.36664936;;;;;1494.5
1658.0;1550.0;;;;;;;;;;;;;;;;;114.177376;5.00885;84.50957;;1494.5
1658.0;1550.0;;;;;;;;;;;;;;0.9303262;0.019470809;-0.2842494;;;;;1494.5
1658.0;1559.5;;;;-0.74417883;1.0253793;0.15563585;;;;;;;;;;;;;;;
1658.0;1559.5;;;;-0.7413445;1.0330049;0.15416338;;;;;;;;;;;;;;;
1658.0;1559.5;;;;-0.73675925;1.0420381;0.1548691;;;;;;;;;;;;;;;
1658.0;1559.5;;;;-0.74161917;1.0498468;0.14701845;;;;;;;;;;;;;;;
1658.0;1559.5;;;;-0.74290854;1.0571405;0.1432953;;;;;;;;;;;;;;;
1658.0;1561.9;262143;262143;13058;;;;;;;;;;;;;;;;;;
1658.0;1567.6;;;;;;;;;;;;;-8236;;;;;;;;
1658.0;1567.6;;;;;;;;;;;;;-7512;;;;;;;;
1658.0;1567.6;;;;;;;;;;;;;-6540;;;;;;;;
1658.0;1567.6;;;;;;;;;;;;;-5771;;;;;;;;
1658.0;1567.6;;;;;;;;;;;;;-5241;;;;;;;;
1661.0;1569.3;;;;-0.7458573;1.0661317;0.13903047;;;;;;;;;;;;;;;
1661.0;1569.3;;;;-0.7473183;1.0740739;0.13308717;;;;;;;;;;;;;;;
1661.0;1569.3;;;;-0.74802786;1.0810853;0.12577058;;;;;;;;;;;;;;;
1661.0;1569.3;;;;-0.7476006;1.0896226;0.11972429;;;;;;;;;;;;;;;
1661.0;1569.3;;;;-0.7466622;1.0979234;0.11482622;;;;;;;;;;;;;;;
1661.0;1579.4;;;;-0.74478155;1.1053468;0.10979845;;;;;;;;;;;;;;;
1661.0;1579.4;;;;-0.74291235;1.1123811;0.10450365;;;;;;;;;;;;;;;
1661.0;1579.4;;;;-0.7424126;1.119259;0.09950258;;;;;;;;;;;;;;;
1661.0;1579.4;;;;-0.74501044;1.1274415;0.0923462;;;;;;;;;;;;;;;
1661.0;1579.4;;;;-0.74711996;1.13612;0.08410264;;;;;;;;;;;;;;;
1661.0;1581.8;262143;262143;13058;;;;;;;;;;;;;;;;;;
1661.0;1589.5;;;;-0.7476159;1.1438104;0.07590104;;;;;;;;;;;;;;;
1661.0;1589.5;;;;-0.74996954;1.1517106;0.06655503;;;;;;;;;;;;;;;
1661.0;1589.5;;;;-0.7504922;1.1589204;0.056888588;;;;;;;;;;;;;;;
1661.0;1589.5;;;;-0.7514421;1.1664544;0.047466286;;;;;;;;;;;;;;;
1661.0;1589.5;;;;-0.75078213;1.173359;0.03856278;;;;;;;;;;;;;;;
1661.0;1599.6;;;;-0.74971396;1.1804429;0.030471805;;;;;;;;;;;;;;;
1661.0;1599.6;;;;-0.74799734;1.1862489;0.024040226;;;;;;;;;;;;;;;
1661.0;1599.6;;;;-0.74633795;1.1922799;0.016788485;;;;;;;;;;;;;;;
1661.0;1599.6;;;;-0.7446709;1.1972009;0.009586335;;;;;;;;;;;;;;;
1661.0;1599.6;;;;-0.74028784;1.2027208;0.0036621098;;;;;;;;;;;;;;;
1662.0;1602.0;262143;262143;13056;;;;;;;;;;;;;;;;;;
1662.0;1608.0;;;;;;;;;;;;;-4517;;;;;;;;
1662.0;1608.0;;;;;;;;;;;;;-3524;;;;;;;;
1662.0;1608.0;;;;;;;;;;;;;-2854;;;;;;;;
1662.0;1608.0;;;;;;;;;;;;;-2958;;;;;;;;
1662.0;1608.0;;;;;;;;;;;;;-3382;;;;;;;;
1662.0;1609.8;;;;;;;;;;;;;;;;;102.24464;14.522996;86.0126;;1504.2
1662.0;1609.8;;;;;;;;;;;;;;0.93252355;0.096804716;-0.17596972;;;;;1504.2
1662.0;1609.8;;;;;;;;;;;;;;;;;90.25849;20.199438;84.58205;;1504.2
1662.0;1609.8;;;;;;;;;;;;;;0.9240394;0.16632588;-0.10034486;;;;;1504.2
1662.0;1609.8;;;;;;;;;;;;;;;;;81.01138;15.533921;82.73568;;1513.8
1662.0;1609.8;;;;;;;;;;;;;;0.91763055;0.20715964;-0.13525803;;;;;1513.8
1662.0;1609.8;;;;;;;;;;;;;;;;;75.46083;3.3684807;74.54527;;1513.8
1662.0;1609.8;;;;;;;;;;;;;;0.88882107;0.30860317;-0.28962067;;;;;1513.8
1662.0;1609.8;;;;;;;;;;;;;;;;;73.90439;-9.865108;63.276314;;1523.4
1662.0;1609.8;;;;;;;;;;;;;;0.8517716;0.42579424;-0.5102084;;;;;1523.4
1662.0;1609.8;;;;;;;;;;;;;;;;;73.97305;-17.544327;51.11469;;1523.4
1662.0;1609.8;;;;;;;;;;;;;;0.8301645;0.6024964;-0.6626789;;;;;1523.4
1662.0;1609.6;;;;-0.7347222;1.2068597;-0.0026130679;;;;;;;;;;;;;;;
1662.0;1609.6;;;;-0.72705084;1.2090684;-0.009040833;;;;;;;;;;;;;;;
1662.0;1609.6;;;;-0.7196122;1.2103463;-0.016990663;;;;;;;;;;;;;;;
1662.0;1609.6;;;;-0.71228033;1.2121583;-0.02456284;;;;;;;;;;;;;;;
1662.0;1609.6;;;;-0.7006379;1.2146493;-0.03136063;;;;;;;;;;;;;;;
1718.0;1617.3;;;;;;;;;;;;;;;;;72.68365;-19.024477;41.52806;;1533.0
1718.0;1617.3;;;;;;;;;;;;;;0.7871334;0.6682943;-0.75460064;;;;;1533.0
1718.0;1617.3;;;;;;;;;;;;;;;;;72.40898;-14.2941065;33.795437;;1533.0
1718.0;1617.3;;;;;;;;;;;;;;0.73891413;0.69722587;-0.6690878;;;;;1533.0
1718.0;1617.3;;;;;;;;;;;;;;;;;71.028015;-12.569811;25.990326;;1542.7
1718.0;1617.3;;;;;;;;;;;;;;0.75661486;0.68080693;-0.5966979;;;;;1542.7
1718.0;1617.3;;;;;;;;;;;;;;;;;68.22412;-7.6105533;21.145512;;1542.7
1718.0;1617.3;;;;;;;;;;;;;;0.78957486;0.66554767;-0.52967924;;;;;1542.7
1718.0;1617.3;;;;;;;;;;;;;;;;;64.25291;-0.5760369;19.440292;;1552.4
1718.0;1617.3;;;;;;;;;;;;;;0.8287606;0.64772487;-0.4549089;;;;;1552.4
1718.0;1617.3;;;;;;;;;;;;;;;;;58.08054;4.4099245;20.268105;;1552.4
1718.0;1617.3;;;;;;;;;;;;;;0.85586107;0.6089053;-0.39930418;;;;;1552.4
1718.0;1619.5;;;;-0.6871758;1.2174112;-0.03702164;;;;;;;;;;;;;;;
1718.0;1619.5;;;;-0.6734963;1.2161332;-0.042053226;;;;;;;;;;;;;;;
1718.0;1619.5;;;;-0.6594315;1.215561;-0.050495155;;;;;;;;;;;;;;;
1718.0;1619.5;;;;-0.644455;1.2178956;-0.057388313;;;;;;;;;;;;;;;
1718.0;1619.5;;;;-0.6292077;1.2188951;-0.060985573;;;;;;;;;;;;;;;
1718.0;1622.0;262143;262143;13053;;;;;;;;;;;;;;;;;;
1718.0;1629.1;;;;-0.6162835;1.2176553;-0.0655861;;;;;;;;;;;;;;;
1718.0;1629.1;;;;-0.60713965;1.2163278;-0.07244492;;;;;;;;;;;;;;;
1718.0;1629.1;;;;-0.593422;1.2163545;-0.07660676;;;;;;;;;;;;;;;
1718.0;1629.1;;;;-0.57768255;1.2183305;-0.08082581;;;;;;;;;;;;;;;
1718.0;1629.1;;;;-0.56369406;1.220131;-0.082313545;;;;;;;;;;;;;;;
1720.0;1639.2;;;;-0.5524369;1.2230607;-0.08398438;;;;;;;;;;;;;;;
1720.0;1639.2;;;;-0.5409394;1.2244416;-0.08533097;;;;;;;;;;;;;;;
1720.0;1639.2;;;;-0.52548605;1.2261773;-0.08631516;;;;;;;;;;;;;;;
1720.0;1639.2;;;;-0.51292425;1.2291986;-0.0866356;;;;;;;;;;;;;;;
1720.0;1639.2;;;;-0.5024262;1.2324296;-0.08819199;;;;;;;;;;;;;;;
1720.0;1641.8;262143;262143;13059;;;;;;;;;;;;;;;;;;
1720.0;1647.8;;;;;;;;;;;;;-3349;;;;;;;;
1720.0;1647.8;;;;;;;;;;;;;-2759;;;;;;;;
1720.0;1647.8;;;;;;;;;;;;;-2106;;;;;;;;
1720.0;1647.8;;;;;;;;;;;;;-1588;;;;;;;;
1720.0;1647.8;;;;;;;;;;;;;-901;;;;;;;;
1720.0;1649.3;;;;-0.49039465;1.2335359;-0.08921052;;;;;;;;;;;;;;;
1720.0;1649.3;;;;-0.47557837;1.2349397;-0.08996583;;;;;;;;;;;;;;;
1720.0;1649.3;;;;-0.46084982;1.2331964;-0.09002686;;;;;;;;;;;;;;;
1720.0;1649.3;;;;-0.44822317;1.2350198;-0.08969117;;;;;;;;;;;;;;;
1720.0;1649.3;;;;-0.43662268;1.234646;-0.08852006;;;;;;;;;;;;;;;
1720.0;1659.4;;;;-0.42000967;1.2319757;-0.08648301;;;;;;;;;;;;;;;
1720.0;1659.4;;;;-0.40639883;1.2295114;-0.08530808;;;;;;;;;;;;;;;
1720.0;1659.4;;;;-0.39501578;1.2243081;-0.08390809;;;;;;;;;;;;;;;
1720.0;1659.4;;;;-0.38493353;1.2177964;-0.08277512;;;;;;;;;;;;;;;
1720.0;1659.4;;;;-0.37165454;1.2136194;-0.08246613;;;;;;;;;;;;;;;
1722.0;1662.2;;;;;;;;;;;;;;;;;50.97354;6.275368;21.95044;;1562.1
1722.0;1662.2;;;;;;;;;;;;;;0.8641621;0.562212;-0.37488937;;;;;1562.1
1722.0;1662.2;;;;;;;;;;;;;;;;;44.442577;5.352184;23.44203;;1562.1
1722.0;1662.2;;;;;;;;;;;;;;0.8741722;0.52174443;-0.3538316;;;;;1562.1
1722.0;1662.2;;;;;;;;;;;;;;;;;38.636436;3.1853695;24.578846;;1571.7
1722.0;1662.2;;;;;;;;;;;;;;0.8769799;0.49903867;-0.33753473;;;;;1571.7
1722.0;1662.2;;;;;;;;;;;;;;;;;33.280437;1.9989624;25.559252;;1571.7
1722.0;1662.2;;;;;;;;;;;;;;0.8619037;0.46882534;-0.30805382;;;;;1571.7
1722.0;1662.2;;;;;;;;;;;;;;;;;28.511917;1.9951477;26.154364;;1581.4
1722.0;1662.2;;;;;;;;;;;;;;0.8421888;0.46302682;-0.27478865;;;;;1581.4
1722.0;1662.2;;;;;;;;;;;;;;;;;24.605549;3.4180732;26.882992;;1581.4
1722.0;1662.2;;;;;;;;;;;;;;0.82284003;0.44972077;-0.24787134;;;;;1581.4
1722.0;1662.0;262143;262143;13050;;;;;;;;;;;;;;;;;;
1722.0;1669.4;;;;-0.36143878;1.2071115;-0.08063889;;;;;;;;;;;;;;;
1722.0;1669.4;;;;-0.35405734;1.2010537;-0.07914735;;;;;;;;;;;;;;;
1722.0;1669.4;;;;-0.3439255;1.1965715;-0.077350624;;;;;;;;;;;;;;;
1722.0;1669.4;;;;-0.3327637;1.1899873;-0.074947365;;;;;;;;;;;;;;;
1722.0;1669.4;;;;-0.32146457;1.1823236;-0.07419587;;;;;;;;;;;;;;;
1779.0;1670.0;;;;;;;;;;;;;;;;;21.83981;6.550035;27.26066;;1591.1
1779.0;1670.0;;;;;;;;;;;;;;0.7967162;0.4496597;-0.22998749;;;;;1591.1
1779.0;1670.0;;;;;;;;;;;;;;;;;21.053957;10.708182;26.993622;;1591.1
1779.0;1670.0;;;;;;;;;;;;;;0.7602771;0.4492935;-0.21527757;;;;;1591.1
1779.0;1670.0;;;;;;;;;;;;;;;;;21.83218;14.183477;25.845362;;1600.6
1779.0;1670.0;;;;;;;;;;;;;;0.7268288;0.45258948;-0.21423994;;;;;1600.6
1779.0;1670.0;;;;;;;;;;;;;;;;;23.468735;16.804255;23.922697;;1600.6
1779.0;1670.0;;;;;;;;;;;;;;0.6931364;0.46827602;-0.22528763;;;;;1600.6
1779.0;1670.0;;;;;;;;;;;;;;;;;26.0094;17.635883;21.549883;;1610.3
1779.0;1670.0;;;;;;;;;;;;;;0.66890466;0.48097172;-0.23993652;;;;;1610.3
1779.0;1670.0;;;;;;;;;;;;;;;;;29.404585;16.155737;19.054995;;1610.3
1779.0;1670.0;;;;;;;;;;;;;;0.65321815;0.49867246;-0.26197088;;;;;1610.3
1779.0;1679.3;;;;-0.3106499;1.1748735;-0.07266236;;;;;;;;;;;;;;;
1779.0;1679.3;;;;-0.3056946;1.1639901;-0.06886674;;;;;;;;;;;;;;;
1779.0;1679.3;;;;-0.29986575;1.1543847;-0.06666184;;;;;;;;;;;;;;;
1779.0;1679.3;;;;-0.2908173;1.1469423;-0.06590272;;;;;;;;;;;;;;;
1779.0;1679.3;;;;-0.28525546;1.1387292;-0.06407166;;;;;;;;;;;;;;;
1779.0;1681.9;262143;262143;13048;;;;;;;;;;;;;;;;;;
1779.0;1687.6;;;;;;;;;;;;;-91;;;;;;;;
1779.0;1687.6;;;;;;;;;;;;;349;;;;;;;;
1779.0;1687.6;;;;;;;;;;;;;403;;;;;;;;
1779.0;1687.6;;;;;;;;;;;;;575;;;;;;;;
1779.0;1687.6;;;;;;;;;;;;;1167;;;;;;;;
1782.0;1689.0;;;;-0.2787247;1.1290132;-0.06294251;;;;;;;;;;;;;;;
1782.0;1689.0;;;;-0.2708054;1.1198732;-0.061710365;;;;;;;;;;;;;;;
1782.0;1689.0;;;;-0.2635155;1.1109353;-0.060508735;;;;;;;;;;;;;;;
1782.0;1689.0;;;;-0.25999835;1.1010896;-0.06052781;;;;;;;;;;;;;;;
1782.0;1689.0;;;;-0.25483325;1.0926667;-0.05962754;;;;;;;;;;;;;;;
1782.0;1699.1;;;;-0.24719241;1.0830461;-0.05818177;;;;;;;;;;;;;;;
1782.0;1699.1;;;;-0.23628238;1.0738755;-0.058040626;;;;;;;;;;;;;;;
1782.0;1699.1;;;;-0.22843555;1.0652162;-0.057682045;;;;;;;;;;;;;;;
1782.0;1699.1;;;;-0.22448733;1.0567933;-0.05774308;;;;;;;;;;;;;;;
1782.0;1699.1;;;;-0.22217181;1.0497781;-0.05889512;;;;;;;;;;;;;;;
1782.0;1701.8;262143;262143;13053;;;;;;;;;;;;;;;;;;
1782.0;1709.2;;;;-0.2176018;1.0416147;-0.059352882;;;;;;;;;;;;;;;
1782.0;1709.2;;;;-0.2148247;1.0326387;-0.05867768;;;;;;;;;;;;;;;
1782.0;1709.2;;;;-0.21346667;1.021412;-0.05820466;;;;;;;;;;;;;;;
1782.0;1709.2;;;;-0.21028903;1.0140268;-0.05895997;;;;;;;;;;;;;;;
1782.0;1709.2;;;;-0.20569614;1.008339;-0.0584488;;;;;;;;;;;;;;;
1782.0;1719.3;;;;-0.20059589;0.9999124;-0.059055336;;;;;;;;;;;;;;;
1782.0;1719.3;;;;-0.19877627;0.9920312;-0.058029182;;;;;;;;;;;;;;;
1782.0;1719.3;;;;-0.19454196;0.9845964;-0.05618287;;;;;;;;;;;;;;;
1782.0;1719.3;;;;-0.1865616;0.97602475;-0.055316932;;;;;;;;;;;;;;;
1782.0;1719.3;;;;-0.1812935;0.96559155;-0.057552345;;;;;;;;;;;;;;;
1785.0;1722.3;;;;;;;;;;;;;;;;;33.03629;12.878811;16.52196;;1619.9
1785.0;1722.3;;;;;;;;;;;;;;0.6506546;0.49983215;-0.275338;;;;;1619.9
1785.0;1722.3;;;;;;;;;;;;;;;;;36.523026;8.5909605;13.870663;;1619.9
1785.0;1722.3;;;;;;;;;;;;;;0.6556597;0.51783806;-0.27954954;;;;;1619.9
1785.0;1722.3;;;;;;;;;;;;;;;;;39.19721;3.646962;11.196478;;1629.5
1785.0;1722.3;;;;;;;;;;;;;;0.67525256;0.5355998;-0.28266242;;;;;1629.5
1785.0;1722.3;;;;;;;;;;;;;;;;;40.231026;-0.5035554;8.426924;;1629.5
1785.0;1722.3;;;;;;;;;;;;;;0.7107761;0.565447;-0.2891934;;;;;1629.5
1785.0;1722.3;;;;;;;;;;;;;;;;;38.93399;-2.8191473;5.5200357;;1639.2
1785.0;1722.3;;;;;;;;;;;;;;0.7483749;0.57222205;-0.29438153;;;;;1639.2
1785.0;1722.3;;;;;;;;;;;;;;;;;35.428173;-3.3112583;2.475814;;1639.2
1785.0;1722.3;;;;;;;;;;;;;;0.7698599;0.616596;-0.30365917;;;;;1639.2
1785.0;1722.0;262143;262143;13043;;;;;;;;;;;;;;;;;;
1786.0;1723.0;;;;;;;;;;;;;;;;;30.270546;-2.0867033;-0.50737023;;1648.8
1786.0;1723.0;;;;;;;;;;;;;;0.8006226;0.6063417;-0.3147679;;;;;1648.8
1786.0;1723.0;;;;;;;;;;;;;;;;;25.723288;0.99185157;-3.2807398;;1648.8
1786.0;1723.0;;;;;;;;;;;;;;0.8179571;0.59706414;-0.31177709;;;;;1648.8
1786.0;1723.0;;;;;;;;;;;;;;;;;22.766808;4.8257394;-6.1151466;;1658.5
1786.0;1723.0;;;;;;;;;;;;;;0.8380993;0.5769219;-0.29889828;;;;;1658.5
1786.0;1723.0;;;;;;;;;;;;;;;;;21.568956;9.453109;-8.602405;;1658.5
1786.0;1723.0;;;;;;;;;;;;;;0.8509171;0.5510422;-0.27228615;;;;;1658.5
1786.0;1723.0;;;;;;;;;;;;;;;;;21.675772;14.587848;-10.689108;;1668.0
1786.0;1723.0;;;;;;;;;;;;;;0.8564104;0.51692253;-0.23462631;;;;;1668.0
1786.0;1723.0;;;;;;;;;;;;;;;;;22.282326;19.554733;-12.318034;;1668.0
1786.0;1723.0;;;;;;;;;;;;;;0.8478042;0.49555954;-0.20020142;;;;;1668.0
1786.0;1727.9;;;;;;;;;;;;;1843;;;;;;;;
1786.0;1727.9;;;;;;;;;;;;;2167;;;;;;;;
1786.0;1727.9;;;;;;;;;;;;;2103;;;;;;;;
1786.0;1727.9;;;;;;;;;;;;;1977;;;;;;;;
1786.0;1727.9;;;;;;;;;;;;;1962;;;;;;;;
1786.0;1729.3;;;;-0.17781831;0.95479596;-0.058479317;;;;;;;;;;;;;;;
1786.0;1729.3;;;;-0.17537309;0.94112027;-0.058998115;;;;;;;;;;;;;;;
1786.0;1729.3;;;;-0.17647173;0.93080914;-0.057518013;;;;;;;;;;;;;;;
1786.0;1729.3;;;;-0.31280902;0.99876034;0.0053520207;;;;;;;;;;;;;;;
1786.0;1729.3;;;;-0.6484757;1.2446405;0.206646;;;;;;;;;;;;;;;
1786.0;1737.2;;;;;;;;;;0.16403699;20.126957;-2.1820734;;;;;;;;;
1786.0;1737.2;;;;;;;0.5258339;-0.5683157;-0.07971435;;;;;;;;;;;;
1786.0;1737.2;;;;;;;;;;4.9668875;32.544178;7.820368;;;;;;;;;
1786.0;1737.2;;;;;;;0.58839685;-0.6277657;-0.08331553;;;;;;;;;;;;
1837.0;1739.3;;;;0.092823036;0.75444806;-0.18796542;;;;;;;;;;;;;;;
1837.0;1739.3;;;;0.007205964;0.7941896;-0.17297365;;;;;;;;;;;;;;;
1837.0;1739.3;;;;-0.360611;1.0001489;0.0035934453;;;;;;;;;;;;;;;
1837.0;1739.3;;;;-0.050495155;0.8127595;-0.140934;;;;;;;;;;;;;;;
1837.0;1739.3;;;;-0.25130084;0.9126016;-0.030033115;;;;;;;;;;;;;;;
1837.0;1742.2;262143;262143;13043;;;;;;;;;;;;;;;;;;
1837.0;1746.6;;;;;;;;;;4.2878504;-1.4725181;9.449294;;;;;;;;;
1837.0;1746.6;;;;;;;0.583636;-0.62117374;-0.08075198;;;;;;;;;;;;
1837.0;1746.6;;;;;;;;;;15.308847;-2.338481;18.807032;;;;;;;;;
1837.0;1746.6;;;;;;;0.5773492;-0.61342204;-0.075319685;;;;;;;;;;;;
1837.0;1749.2;;;;-0.14452364;0.84202206;-0.097648636;;;;;;;;;;;;;;;
1837.0;1749.2;;;;-0.17139436;0.8492242;-0.069522865;;;;;;;;;;;;;;;
1837.0;1749.2;;;;-0.17494585;0.8466569;-0.06396104;;;;;;;;;;;;;;;
1837.0;1749.2;;;;-0.17054369;0.83916104;-0.06301118;;;;;;;;;;;;;;;
1837.0;1749.2;;;;-0.1713257;0.8338243;-0.061618812;;;;;;;;;;;;;;;
1837.0;1756.0;;;;;;;;;;22.591326;-16.605885;25.79577;;;;;;;;;
1837.0;1756.0;;;;;;;0.57020783;-0.6097598;-0.07068087;;;;;;;;;;;;
1837.0;1756.0;;;;;;;;;;23.529772;-66.80502;10.227515;;;;;;;;;
1837.0;1756.0;;;;;;;0.5676443;-0.60750145;-0.06689657;;;;;;;;;;;;
1839.0;1759.2;;;;-0.17766191;0.83083737;-0.058300026;;;;;;;;;;;;;;;
1839.0;1759.2;;;;-0.17868425;0.8251649;-0.058967598;;;;;;;;;;;;;;;
1839.0;1759.2;;;;-0.17997743;0.8184167;-0.061149605;;;;;;;;;;;;;;;
1839.0;1759.2;;;;-0.1814499;0.8133584;-0.062366493;;;;;;;;;;;;;;;
1839.0;1759.2;;;;-0.17997362;0.8085748;-0.06312943;;;;;;;;;;;;;;;
1839.0;1762.0;262143;262143;13029;;;;;;;;;;;;;;;;;;
1839.0;1765.6;;;;;;;;;;28.03888;-81.102936;16.773737;;;;;;;;;
1839.0;1765.6;;;;;;;0.56678975;-0.60860014;-0.062440872;;;;;;;;;;;;
1839.0;1765.6;;;;;;;;;;31.533249;-93.93216;23.651846;;;;;;;;;
1839.0;1765.6;;;;;;;0.5615406;-0.6114078;-0.057985168;;;;;;;;;;;;
1839.0;1768.0;;;;;;;;;;;;;1921;;;;;;;;
1839.0;1768.0;;;;;;;;;;;;;1957;;;;;;;;
1839.0;1768.0;;;;;;;;;;;;;2679;;;;;;;;
1839.0;1768.0;;;;;;;;;;;;;4883;;;;;;;;
1839.0;1768.0;;;;;;;;;;;;;6120;;;;;;;;
1839.0;1769.3;;;;-0.18057252;0.8012506;-0.061870582;;;;;;;;;;;;;;;
1839.0;1769.3;;;;-0.18236543;0.7946092;-0.059005745;;;;;;;;;;;;;;;
1839.0;1769.3;;;;-0.18465425;0.78792584;-0.057273872;;;;;;;;;;;;;;;
1839.0;1769.3;;;;-0.18636324;0.781582;-0.055328377;;;;;;;;;;;;;;;
1839.0;1769.3;;;;-0.18880084;0.7755853;-0.05402375;;;;;;;;;;;;;;;
1839.0;1775.3;;;;;;;;;;33.349102;-96.47664;34.06247;;;;;;;;;
1839.0;1775.3;;;;;;;0.55708486;-0.61635184;-0.05145421;;;;;;;;;;;;
1839.0;1775.3;;;;;;;;;;31.743065;-90.22416;40.894802;;;;;;;;;
1839.0;1775.3;;;;;;;0.5526902;-0.6237983;-0.04608295;;;;;;;;;;;;
1840.0;1779.4;;;;-0.19100955;0.7694818;-0.05265046;;;;;;;;;;;;;;;
1840.0;1779.4;;;;-0.19486621;0.76197064;-0.050273903;;;;;;;;;;;;;;;
1840.0;1779.4;;;;-0.19933322;0.75523007;-0.048336037;;;;;;;;;;;;;;;
1840.0;1779.4;;;;-0.20355228;0.74976736;-0.04822541;;;;;;;;;;;;;;;
1840.0;1779.4;;;;-0.20765689;0.7444115;-0.04753495;;;;;;;;;;;;;;;
1840.0;1782.5;;;;;;;;;;;;;;;;;22.564623;22.995697;-13.473923;;1677.7
1840.0;1782.5;;;;;;;;;;;;;;0.8289437;0.458388;-0.17450483;;;;;1677.7
1840.0;1782.5;;;;;;;;;;;;;;;;;22.297585;24.39192;-14.381847;;1677.7
1840.0;1782.5;;;;;;;;;;;;;;0.81081575;0.42542803;-0.16943876;;;;;1677.7
1840.0;1782.5;;;;;;;;;;;;;;;;;22.152622;24.365215;-14.992217;;1687.3
1840.0;1782.5;;;;;;;;;;;;;;0.7929319;0.40156254;-0.16907254;;;;;1687.3
1840.0;1782.5;;;;;;;;;;;;;;;;;22.190771;23.277992;-15.182959;;1687.3
1840.0;1782.5;;;;;;;;;;;;;;0.7779778;0.37464523;-0.16772974;;;;;1687.3
1840.0;1782.5;;;;;;;;;;;;;;;;;22.095402;21.481216;-14.9616995;;1697.0
1840.0;1782.5;;;;;;;;;;;;;;0.76216924;0.36841944;-0.17267373;;;;;1697.0
1840.0;1782.5;;;;;;;;;;;;;;;;;21.698662;19.417402;-14.290292;;1697.0
1840.0;1782.5;;;;;;;;;;;;;;0.75106055;0.34229562;-0.17780083;;;;;1697.0
1840.0;1782.2;262143;262143;13034;;;;;;;;;;;;;;;;;;
1845.0;1783.1;;;;;;;;;;;;;;;;;20.847958;17.029327;-13.454848;;1706.7
1845.0;1783.1;;;;;;;;;;;;;;0.73641163;0.34962004;-0.19238868;;;;;1706.7
1845.0;1783.1;;;;;;;;;;;;;;;;;18.4637;13.973662;-12.462996;;1706.7
1845.0;1783.1;;;;;;;;;;;;;;0.7213965;0.35914183;-0.2202826;;;;;1706.7
1845.0;1783.1;;;;;;;;;;;;;;;;;14.580218;10.170293;-11.711478;;1716.3
1845.0;1783.1;;;;;;;;;;;;;;0.71791744;0.36878568;-0.25971252;;;;;1716.3
1845.0;1783.1;;;;;;;;;;;;;;;;;10.574664;7.3435163;-11.421552;;1716.3
1845.0;1783.1;;;;;;;;;;;;;;0.71968746;0.3744621;-0.27869502;;;;;1716.3
1845.0;1783.1;;;;;;;;;;;;;;;;;7.553331;6.7102575;-11.413922;;1725.9
1845.0;1783.1;;;;;;;;;;;;;;0.7241432;0.37812433;-0.2738731;;;;;1725.9
1845.0;1783.1;;;;;;;;;;;;;;;;;6.5614796;8.396405;-11.230811;;1725.9
1845.0;1783.1;;;;;;;;;;;;;;0.7171239;0.3830073;-0.2418897;;;;;1725.9
1845.0;1784.6;;;;;;;;;;29.782251;-89.9266;40.768913;;;;;;;;;
1845.0;1784.6;;;;;;;0.54963833;-0.63112277;-0.039613027;;;;;;;;;;;;
1845.0;1784.6;;;;;;;;;;27.798546;-89.12167;41.52043;;;;;;;;;
1845.0;1784.6;;;;;;;0.55116427;-0.6422315;-0.032837916;;;;;;;;;;;;
1845.0;1789.2;;;;-0.21188357;0.7395554;-0.047725685;;;;;;;;;;;;;;;
1845.0;1789.2;;;;-0.21567157;0.7352982;-0.047149666;;;;;;;;;;;;;;;
1845.0;1789.2;;;;-0.21823886;0.7312127;-0.046913154;;;;;;;;;;;;;;;
1845.0;1789.2;;;;-0.22070315;0.7271691;-0.04704667;;;;;;;;;;;;;;;
1845.0;1789.2;;;;-0.22337344;0.72331625;-0.04717637;;;;;;;;;;;;;;;
1845.0;1794.3;;;;;;;;;;25.917845;-87.225716;41.98584;;;;;;;;;
1845.0;1794.3;;;;;;;0.5566576;-0.6509598;-0.02496414;;;;;;;;;;;;
1845.0;1794.3;;;;;;;;;;23.857845;-84.360794;40.85284;;;;;;;;;
1845.0;1794.3;;;;;;;0.5648976;-0.6614582;-0.021668142;;;;;;;;;;;;
1897.0;1799.3;;;;-0.22604755;0.7178002;-0.04760743;;;;;;;;;;;;;;;
1897.0;1799.3;;;;-0.2285538;0.7128907;-0.049221046;;;;;;;;;;;;;;;
1897.0;1799.3;;;;-0.229435;0.7080155;-0.049449928;;;;;;;;;;;;;;;
1897.0;1799.3;;;;-0.23043826;0.703167;-0.05006028;;;;;;;;;;;;;;;
1897.0;1799.3;;;;-0.23126987;0.6987038;-0.049205787;;;;;;;;;;;;;;;
1897.0;1802.3;262143;262143;13029;;;;;;;;;;;;;;;;;;
1897.0;1803.9;;;;;;;;;;21.50792;-81.31657;40.913876;;;;;;;;;
1897.0;1803.9;;;;;;;0.5827204;-0.67067474;-0.017700735;;;;;;;;;;;;
1897.0;1803.9;;;;;;;;;;18.95581;-77.47505;40.871914;;;;;;;;;
1897.0;1803.9;;;;;;;0.6060976;-0.6786706;-0.014770959;;;;;;;;;;;;
1897.0;1808.0;;;;;;;;;;;;;1100;;;;;;;;
1897.0;1808.0;;;;;;;;;;;;;-9309;;;;;;;;
1897.0;1808.0;;;;;;;;;;;;;-16154;;;;;;;;
1897.0;1808.0;;;;;;;;;;;;;-12601;;;;;;;;
1897.0;1808.0;;;;;;;;;;;;;-2215;;;;;;;;
1897.0;1809.3;;;;-0.23195651;0.6946412;-0.049900062;;;;;;;;;;;;;;;
1897.0;1809.3;;;;-0.23333362;0.6897202;-0.050796516;;;;;;;;;;;;;;;
1897.0;1809.3;;;;-0.23486331;0.6856461;-0.05131913;;;;;;;;;;;;;;;
1897.0;1809.3;;;;-0.23612216;0.6821404;-0.050827034;;;;;;;;;;;;;;;
1897.0;1809.3;;;;-0.23634341;0.6791459;-0.050838478;;;;;;;;;;;;;;;
1897.0;1813.2;;;;;;;;;;16.544847;-72.81716;40.82995;;;;;;;;;
1897.0;1813.2;;;;;;;0.6341136;-0.6825159;-0.010071108;;;;;;;;;;;;
1897.0;1813.2;;;;;;;;;;14.259773;-67.54128;41.29917;;;;;;;;;
1897.0;1813.2;;;;;;;0.6662801;-0.6863002;-0.0051881466;;;;;;;;;;;;
1899.0;1819.2;;;;-0.2375069;0.6773377;-0.052299507;;;;;;;;;;;;;;;
1899.0;1819.2;;;;-0.23934177;0.67452246;-0.0532837;;;;;;;;;;;;;;;
1899.0;1819.2;;;;-0.2395859;0.6717797;-0.05360032;;;;;;;;;;;;;;;
1899.0;1819.2;;;;-0.23951724;0.6694794;-0.052776344;;;;;;;;;;;;;;;
1899.0;1819.2;;;;-0.24125293;0.66743857;-0.05333329;;;;;;;;;;;;;;;
1899.0;1822.3;262143;262143;13034;;;;;;;;;;;;;;;;;;
1899.0;1822.8;;;;;;;;;;12.260812;-61.63213;41.695915;;;;;;;;;
1899.0;1822.8;;;;;;;0.70149845;-0.6862392;7.324442E-4;;;;;;;;;;;;
1899.0;1822.8;;;;;;;;;;10.170293;-55.711536;41.600544;;;;;;;;;
1899.0;1822.8;;;;;;;0.7315287;-0.684286;0.009643849;;;;;;;;;;;;
1899.0;1829.3;;;;-0.24114993;0.6646653;-0.052906044;;;;;;;;;;;;;;;
1899.0;1829.3;;;;-0.24138263;0.6628037;-0.052848823;;;;;;;;;;;;;;;
1899.0;1829.3;;;;-0.24315646;0.662571;-0.05482865;;;;;;;;;;;;;;;
1899.0;1829.3;;;;-0.24539569;0.6623841;-0.057273872;;;;;;;;;;;;;;;
1899.0;1829.3;;;;-0.24554065;0.66209036;-0.05760575;;;;;;;;;;;;;;;
1899.0;1832.4;;;;;;;;;;8.060701;-50.10376;41.24958;;;;;;;;;
1899.0;1832.4;;;;;;;0.7531358;-0.6833705;0.019959105;;;;;;;;;;;;
1899.0;1832.4;;;;;;;;;;6.263924;-45.091095;40.1738;;;;;;;;;
1899.0;1832.4;;;;;;;0.7637562;-0.68190557;0.031067843;;;;;;;;;;;;
1900.0;1839.4;;;;-0.24463657;0.66197973;-0.05624009;;;;;;;;;;;;;;;
1900.0;1839.4;;;;-0.24484637;0.6617585;-0.055717476;;;;;;;;;;;;;;;
1900.0;1839.4;;;;-0.24464038;0.6615105;-0.055431373;;;;;;;;;;;;;;;
1900.0;1839.4;;;;-0.2453194;0.66180426;-0.056064613;;;;;;;;;;;;;;;
1900.0;1839.4;;;;-0.24637988;0.66204077;-0.057689674;;;;;;;;;;;;;;;
1900.0;1842.0;;;;;;;;;;4.6731467;-41.348766;38.945435;;;;;;;;;
1900.0;1842.0;;;;;;;0.76339;-0.6822718;0.044923246;;;;;;;;;;;;
1900.0;1842.0;;;;;;;;;;3.0861845;-38.69747;37.408062;;;;;;;;;
1900.0;1842.0;;;;;;;0.753441;-0.68330944;0.055848874;;;;;;;;;;;;
1900.0;1843.1;;;;;;;;;;;;;;;;;6.6415906;10.784478;-10.822627;;1735.5
1900.0;1843.1;;;;;;;;;;;;;;0.7052217;0.38819546;-0.21594897;;;;;1735.5
1900.0;1843.1;;;;;;;;;;;;;;;;;6.496628;12.249367;-10.66622;;1735.5
1900.0;1843.1;;;;;;;;;;;;;;0.7038789;0.3897824;-0.20783105;;;;;1735.5
1900.0;1843.1;;;;;;;;;;;;;;;;;6.550035;13.370922;-10.814997;;1745.1
1900.0;1843.1;;;;;;;;;;;;;;0.71718496;0.38435012;-0.19354838;;;;;1745.1
1900.0;1843.1;;;;;;;;;;;;;;;;;7.206183;15.243996;-11.051516;;1745.1
1900.0;1843.1;;;;;;;;;;;;;;0.7343974;0.37519455;-0.16858424;;;;;1745.1
1900.0;1843.1;;;;;;;;;;;;;;;;;8.102665;18.24244;-11.444441;;1754.9
1900.0;1843.1;;;;;;;;;;;;;;0.74153876;0.37580493;-0.14825892;;;;;1754.9
1900.0;1843.1;;;;;;;;;;;;;;;;;8.949553;21.195105;-11.959441;;1754.9
1900.0;1843.1;;;;;;;;;;;;;;0.73659474;0.38972136;-0.13922544;;;;;1754.9
1900.0;1842.5;262143;262143;13027;;;;;;;;;;;;;;;;;;
1902.0;1843.8;;;;;;;;;;;;;;;;;9.575183;23.796808;-12.676625;;1764.4
1902.0;1843.8;;;;;;;;;;;;;;0.72652364;0.4113895;-0.13367108;;;;;1764.4
1902.0;1843.8;;;;;;;;;;;;;;;;;9.388257;25.856808;-13.355663;;1764.4
1902.0;1843.8;;;;;;;;;;;;;;0.7109592;0.4329966;-0.12549211;;;;;1764.4
1902.0;1843.8;;;;;;;;;;;;;;;;;8.457442;26.894438;-13.779107;;1774.1
1902.0;1843.8;;;;;;;;;;;;;;0.6900845;0.45155185;-0.106631674;;;;;1774.1
1902.0;1843.8;;;;;;;;;;;;;;;;;7.187109;26.772364;-14.210181;;1774.1
1902.0;1843.8;;;;;;;;;;;;;;0.674398;0.46522415;-0.08728294;;;;;1774.1
1902.0;1843.8;;;;;;;;;;;;;;;;;6.405072;26.1124;-14.671774;;1783.8
1902.0;1843.8;;;;;;;;;;;;;;0.66243476;0.47199926;-0.05816828;;;;;1783.8
1902.0;1843.8;;;;;;;;;;;;;;;;;5.6382947;25.269325;-15.224921;;1783.8
1902.0;1843.8;;;;;;;;;;;;;;0.64876246;0.48634297;-0.03173925;;;;;1783.8
1902.0;1848.3;;;;;;;;;;;;;5845;;;;;;;;
1902.0;1848.3;;;;;;;;;;;;;7959;;;;;;;;
1902.0;1848.3;;;;;;;;;;;;;7859;;;;;;;;
1902.0;1848.3;;;;;;;;;;;;;9197;;;;;;;;
1902.0;1848.3;;;;;;;;;;;;;10901;;;;;;;;
1902.0;1849.4;;;;-0.24769214;0.6630288;-0.059192665;;;;;;;;;;;;;;;
1902.0;1849.4;;;;-0.24746707;0.6636773;-0.05926133;;;;;;;;;;;;;;;
1902.0;1849.4;;;;-0.24695209;0.66506964;-0.05921174;;;;;;;;;;;;;;;
1902.0;1849.4;;;;-0.24612048;0.6667939;-0.05933381;;;;;;;;;;;;;;;
1902.0;1849.4;;;;-0.24561313;0.6683999;-0.06147767;;;;;;;;;;;;;;;
1902.0;1851.5;;;;;;;;;;1.4267403;-37.221138;35.870693;;;;;;;;;
1902.0;1851.5;;;;;;;0.7412336;-0.68385875;0.06122013;;;;;;;;;;;;
1902.0;1851.5;;;;;;;;;;-0.25940734;-36.744286;34.649952;;;;;;;;;
1902.0;1851.5;;;;;;;0.725547;-0.68459123;0.06433302;;;;;;;;;;;;
1957.0;1859.4;;;;-0.2457085;0.6692658;-0.06274796;;;;;;;;;;;;;;;
1957.0;1859.4;;;;-0.24486163;0.6699677;-0.06327058;;;;;;;;;;;;;;;
1957.0;1859.4;;;;-0.24310687;0.6710015;-0.064113624;;;;;;;;;;;;;;;
1957.0;1859.4;;;;-0.24169925;0.6720467;-0.06490708;;;;;;;;;;;;;;;
1957.0;1859.4;;;;-0.24123386;0.67382056;-0.06697846;;;;;;;;;;;;;;;
1957.0;1861.0;;;;;;;;;;-1.9951477;-36.66036;33.833584;;;;;;;;;
1957.0;1861.0;;;;;;;0.71517074;-0.6841639;0.06799524;;;;;;;;;;;;
1957.0;1861.0;;;;;;;;;;-3.6317027;-36.774803;33.268993;;;;;;;;;
1957.0;1861.0;;;;;;;0.7048555;-0.68568987;0.07440413;;;;;;;;;;;;
1957.0;1862.5;262143;262143;13029;;;;;;;;;;;;;;;;;;
1957.0;1869.4;;;;-0.24061969;0.6756287;-0.0684166;;;;;;;;;;;;;;;
1957.0;1869.4;;;;-0.23909;0.67686087;-0.070034035;;;;;;;;;;;;;;;
1957.0;1869.4;;;;-0.23771289;0.6782189;-0.07180024;;;;;;;;;;;;;;;
1957.0;1869.4;;;;-0.2364159;0.67929465;-0.072860725;;;;;;;;;;;;;;;
1957.0;1869.4;;;;-0.23471072;0.680069;-0.07426835;;;;;;;;;;;;;;;
1957.0;1870.4;;;;;;;;;;-5.2949615;-36.9274;32.876064;;;;;;;;;
1957.0;1870.4;;;;;;;0.69936216;-0.6848964;0.080141604;;;;;;;;;;;;
1957.0;1870.4;;;;;;;;;;-6.9467754;-37.49199;32.448807;;;;;;;;;
1957.0;1870.4;;;;;;;0.6938078;-0.68221074;0.09222694;;;;;;;;;;;;
1958.0;1879.2;;;;-0.23297504;0.68069464;-0.075263985;;;;;;;;;;;;;;;
1958.0;1879.2;;;;-0.2311745;0.6812783;-0.07671357;;;;;;;;;;;;;;;
1958.0;1879.2;;;;-0.22901538;0.68126684;-0.07880784;;;;;;;;;;;;;;;
1958.0;1879.2;;;;-0.22770694;0.68113714;-0.08080674;;;;;;;;;;;;;;;
1958.0;1879.2;;;;-0.22592166;0.6804734;-0.08285142;;;;;;;;;;;;;;;
1958.0;1879.9;;;;;;;;;;-8.449813;-38.36558;32.132175;;;;;;;;;
1958.0;1879.9;;;;;;;0.6933195;-0.68385875;0.10449538;;;;;;;;;;;;
1958.0;1879.9;;;;;;;;;;-9.659109;-39.643543;31.655323;;;;;;;;;
1958.0;1879.9;;;;;;;0.6902066;-0.6790979;0.11627552;;;;;;;;;;;;
1958.0;1882.4;262143;262143;13012;;;;;;;;;;;;;;;;;;
1958.0;1888.3;;;;;;;;;;;;;11460;;;;;;;;
1958.0;1888.3;;;;;;;;;;;;;11694;;;;;;;;
1958.0;1888.3;;;;;;;;;;;;;11748;;;;;;;;
1958.0;1888.3;;;;;;;;;;;;;11626;;;;;;;;
1958.0;1888.3;;;;;;;;;;;;;12029;;;;;;;;
1958.0;1889.3;;;;-0.22459415;0.6799813;-0.08447266;;;;;;;;;;;;;;;
1958.0;1889.3;;;;-0.22295383;0.6786538;-0.08606339;;;;;;;;;;;;;;;
1958.0;1889.3;;;;-0.2221413;0.67737204;-0.08695603;;;;;;;;;;;;;;;
1958.0;1889.3;;;;-0.22058871;0.67646796;-0.08845139;;;;;;;;;;;;;;;
1958.0;1889.3;;;;-0.21931079;0.6751366;-0.088817604;;;;;;;;;;;;;;;
1958.0;1889.5;;;;;;;;;;-10.65096;-41.18854;31.338696;;;;;;;;;
1958.0;1889.5;;;;;;;0.69289225;-0.679281;0.12537004;;;;;;;;;;;;
1958.0;1889.5;;;;;;;;;;-11.658071;-42.622913;30.682547;;;;;;;;;
1958.0;1889.5;;;;;;;0.6931974;-0.67702264;0.12884915;;;;;;;;;;;;
1961.0;1899.1;;;;;;;;;;-12.745293;-43.946655;29.801325;;;;;;;;;
1961.0;1899.1;;;;;;;0.69844663;-0.6778771;0.13165686;;;;;;;;;;;;
1961.0;1899.1;;;;;;;;;;-13.683737;-45.453503;28.98877;;;;;;;;;
1961.0;1899.1;;;;;;;0.6920377;-0.6761681;0.13220619;;;;;;;;;;;;
1961.0;1899.4;;;;-0.21833804;0.6739159;-0.08864213;;;;;;;;;;;;;;;
1961.0;1899.4;;;;-0.21695712;0.6732407;-0.087543495;;;;;;;;;;;;;;;
1961.0;1899.4;;;;-0.21607974;0.6722756;-0.086689;;;;;;;;;;;;;;;
1961.0;1899.4;;;;-0.21495822;0.6722222;-0.08522416;;;;;;;;;;;;;;;
1961.0;1899.4;;;;-0.21379855;0.6724816;-0.084400184;;;;;;;;;;;;;;;
1961.0;1902.7;262143;262143;13021;;;;;;;;;;;;;;;;;;
1961.0;1908.7;;;;;;;;;;-14.690847;-46.517838;28.485214;;;;;;;;;
1961.0;1908.7;;;;;;;0.69820243;-0.6794641;0.13049714;;;;;;;;;;;;
1961.0;1908.7;;;;;;;;;;-15.957365;-47.379986;27.619251;;;;;;;;;
1961.0;1908.7;;;;;;;0.7048555;-0.6826991;0.13116856;;;;;;;;;;;;
1961.0;1909.5;;;;-0.21298602;0.672844;-0.0837822;;;;;;;;;;;;;;;
1961.0;1909.5;;;;-0.21201327;0.67389303;-0.083644874;;;;;;;;;;;;;;;
1961.0;1909.5;;;;-0.21080783;0.67589575;-0.083084114;;;;;;;;;;;;;;;
1961.0;1909.5;;;;-0.21001819;0.67802435;-0.08335877;;;;;;;;;;;;;;;
1961.0;1909.5;;;;-0.20956424;0.6799088;-0.0837288;;;;;;;;;;;;;;;
1963.0;1910.2;;;;;;;;;;;;;;;;;3.8644063;24.319437;-15.884884;;1793.4
1963.0;1910.2;;;;;;;;;;;;;;0.6388745;0.49256873;-0.026673177;;;;;1793.4
1963.0;1910.2;;;;;;;;;;;;;;;;;1.903592;23.731956;-16.384624;;1793.4
1963.0;1910.2;;;;;;;;;;;;;;0.6382641;0.49836725;-0.037415694;;;;;1793.4
1963.0;1910.2;;;;;;;;;;;;;;;;;0.16403699;24.319437;-16.735588;;1803.0
1963.0;1910.2;;;;;;;;;;;;;;0.6382031;0.5178991;-0.032044437;;;;;1803.0
1963.0;1910.2;;;;;;;;;;;;;;;;;-2.0638144;25.498215;-17.010254;;1803.0
1963.0;1910.2;;;;;;;;;;;;;;0.6485183;0.5223548;-0.031983398;;;;;1803.0
1963.0;1910.2;;;;;;;;;;;;;;;;;-4.753258;27.390362;-16.994993;;1812.7
1963.0;1910.2;;;;;;;;;;;;;;0.6604816;0.5310831;-0.034730066;;;;;1812.7
1963.0;1910.2;;;;;;;;;;;;;;;;;-7.06122;29.293955;-16.468552;;1812.7
1963.0;1910.2;;;;;;;;;;;;;;0.6749474;0.53132725;-0.04174932;;;;;1812.7
1963.0;1911.1;;;;;;;;;;;;;;;;;-8.335368;30.095064;-15.205847;;1822.3
1963.0;1911.1;;;;;;;;;;;;;;0.6952727;0.5299844;-0.05652028;;;;;1822.3
1963.0;1911.1;;;;;;;;;;;;;;;;;-8.655812;29.477066;-13.2107;;1822.3
1963.0;1911.1;;;;;;;;;;;;;;0.72060305;0.51893675;-0.08343761;;;;;1822.3
1963.0;1911.1;;;;;;;;;;;;;;;;;-8.335368;27.394176;-10.219886;;1831.8
1963.0;1911.1;;;;;;;;;;;;;;0.74532306;0.5136265;-0.113406785;;;;;1831.8
1963.0;1911.1;;;;;;;;;;;;;;;;;-8.167517;23.709066;-6.5424056;;1831.8
1963.0;1911.1;;;;;;;;;;;;;;0.7741935;0.49067658;-0.15247047;;;;;1831.8
1963.0;1911.1;;;;;;;;;;;;;;;;;-7.9500723;18.990143;-2.6360364;;1841.4
1963.0;1911.1;;;;;;;;;;;;;;0.8146611;0.47224343;-0.20715964;;;;;1841.4
1963.0;1911.1;;;;;;;;;;;;;;;;;-7.7936645;15.484328;1.5907773;;1841.4
1963.0;1911.1;;;;;;;;;;;;;;0.8489029;0.45997497;-0.24176763;;;;;1841.4
2016.0;1918.1;;;;;;;;;;-17.605364;-48.203987;26.333658;;;;;;;;;
2016.0;1918.1;;;;;;;0.7166967;-0.6920377;0.1297647;;;;;;;;;;;;
2016.0;1918.1;;;;;;;;;;-19.066439;-48.68084;24.811548;;;;;;;;;
2016.0;1918.1;;;;;;;0.7220069;-0.70113224;0.13110752;;;;;;;;;;;;
2016.0;1919.3;;;;-0.2090073;0.6814614;-0.08432389;;;;;;;;;;;;;;;
2016.0;1919.3;;;;-0.20864108;0.68339545;-0.08486176;;;;;;;;;;;;;;;
2016.0;1919.3;;;;-0.20882037;0.6853371;-0.0857544;;;;;;;;;;;;;;;
2016.0;1919.3;;;;-0.2087479;0.6868897;-0.08606721;;;;;;;;;;;;;;;
2016.0;1919.3;;;;-0.20954898;0.68918234;-0.08736802;;;;;;;;;;;;;;;
2016.0;1922.7;262143;262143;13029;;;;;;;;;;;;;;;;;;
2016.0;1927.7;;;;;;;;;;-20.092623;-49.169136;23.709066;;;;;;;;;
2016.0;1927.7;;;;;;;0.7312845;-0.7115085;0.1297647;;;;;;;;;;;;
2016.0;1927.7;;;;;;;;;;-21.015808;-49.771873;22.778252;;;;;;;;;
2016.0;1927.7;;;;;;;0.7392193;-0.72438735;0.13306071;;;;;;;;;;;;
2016.0;1928.3;;;;;;;;;;;;;12780;;;;;;;;
2016.0;1928.3;;;;;;;;;;;;;12963;;;;;;;;
2016.0;1928.3;;;;;;;;;;;;;11844;;;;;;;;
2016.0;1928.3;;;;;;;;;;;;;9722;;;;;;;;
2016.0;1928.3;;;;;;;;;;;;;7682;;;;;;;;
2016.0;1929.3;;;;-0.211216;0.69191366;-0.08895112;;;;;;;;;;;;;;;
2016.0;1929.3;;;;-0.21223834;0.69322973;-0.08835221;;;;;;;;;;;;;;;
2016.0;1929.3;;;;-0.21286777;0.6911202;-0.08702851;;;;;;;;;;;;;;;
2016.0;1929.3;;;;-0.21370319;0.6896058;-0.08577729;;;;;;;;;;;;;;;
2016.0;1929.3;;;;-0.21502689;0.68869025;-0.08367158;;;;;;;;;;;;;;;
2021.0;1937.1;;;;;;;;;;-21.717735;-50.218204;21.889402;;;;;;;;;
2021.0;1937.1;;;;;;;0.7442854;-0.7366558;0.13476974;;;;;;;;;;;;
2021.0;1937.1;;;;;;;;;;-22.30903;-50.286873;21.229439;;;;;;;;;
2021.0;1937.1;;;;;;;0.75063324;-0.75173193;0.1353801;;;;;;;;;;;;
2021.0;1939.3;;;;-0.21640399;0.6869927;-0.08163453;;;;;;;;;;;;;;;
2021.0;1939.3;;;;-0.21894076;0.6848641;-0.08117295;;;;;;;;;;;;;;;
2021.0;1939.3;;;;-0.22246554;0.68189245;-0.08044816;;;;;;;;;;;;;;;
2021.0;1939.3;;;;-0.22506717;0.6796265;-0.078536995;;;;;;;;;;;;;;;
2021.0;1939.3;;;;-0.2274361;0.67823035;-0.076759346;;;;;;;;;;;;;;;
2021.0;1942.6;262143;262143;13028;;;;;;;;;;;;;;;;;;
2021.0;1946.7;;;;;;;;;;-22.930845;-49.798576;20.68392;;;;;;;;;
2021.0;1946.7;;;;;;;0.7525254;-0.7638783;0.140141;;;;;;;;;;;;
2021.0;1946.7;;;;;;;;;;-23.34666;-48.970764;20.329142;;;;;;;;;
2021.0;1946.7;;;;;;;0.7581408;-0.7739494;0.14477982;;;;;;;;;;;;
2021.0;1949.4;;;;-0.22961047;0.67690283;-0.07540131;;;;;;;;;;;;;;;
2021.0;1949.4;;;;-0.23138812;0.6758042;-0.07471848;;;;;;;;;;;;;;;
2021.0;1949.4;;;;-0.23390582;0.6750718;-0.07428361;;;;;;;;;;;;;;;
2021.0;1949.4;;;;-0.23657992;0.67420584;-0.07418061;;;;;;;;;;;;;;;
2021.0;1949.4;;;;-0.23941806;0.6725274;-0.07357407;;;;;;;;;;;;;;;
2021.0;1956.3;;;;;;;;;;-23.602253;-47.87591;20.016327;;;;;;;;;
2021.0;1956.3;;;;;;;0.75807977;-0.78145695;0.1513718;;;;;;;;;;;;
2021.0;1956.3;;;;;;;;;;-23.606068;-46.67806;19.993439;;;;;;;;;
2021.0;1956.3;;;;;;;0.7625965;-0.78591263;0.1572924;;;;;;;;;;;;
2025.0;1959.5;;;;-0.23989108;0.67202383;-0.074321754;;;;;;;;;;;;;;;
2025.0;1959.5;;;;-0.23896793;0.6718827;-0.07535172;;;;;;;;;;;;;;;
2025.0;1959.5;;;;-0.23916629;0.6698876;-0.07792664;;;;;;;;;;;;;;;
2025.0;1959.5;;;;-0.24045947;0.6664277;-0.08150483;;;;;;;;;;;;;;;
2025.0;1959.5;;;;-0.24125674;0.6612244;-0.0846901;;;;;;;;;;;;;;;
2025.0;1962.9;262143;262143;13017;;;;;;;;;;;;;;;;;;
2025.0;1965.9;;;;;;;;;;-23.430586;-45.617542;19.745476;;;;;;;;;
2025.0;1965.9;;;;;;;0.7632069;-0.78872037;0.1610767;;;;;;;;;;;;
2025.0;1965.9;;;;;;;;;;-23.430586;-44.999542;19.356365;;;;;;;;;
2025.0;1965.9;;;;;;;0.7563707;-0.7806635;0.16925566;;;;;;;;;;;;
2025.0;1968.7;;;;;;;;;;;;;6516;;;;;;;;
2025.0;1968.7;;;;;;;;;;;;;6063;;;;;;;;
2025.0;1968.7;;;;;;;;;;;;;5663;;;;;;;;
2025.0;1968.7;;;;;;;;;;;;;5107;;;;;;;;
2025.0;1968.7;;;;;;;;;;;;;4703;;;;;;;;
2025.0;1969.6;;;;-0.24283984;0.6550904;-0.08783723;;;;;;;;;;;;;;;
2025.0;1969.6;;;;-0.24268344;0.64851385;-0.09079362;;;;;;;;;;;;;;;
2025.0;1969.6;;;;-0.24144366;0.64096075;-0.093471535;;;;;;;;;;;;;;;
2025.0;1969.6;;;;-0.23923495;0.6341019;-0.09745027;;;;;;;;;;;;;;;
2025.0;1969.6;;;;-0.23738864;0.6270562;-0.10129167;;;;;;;;;;;;;;;
2027.0;1970.7;;;;;;;;;;;;;;;;;-7.915738;13.512071;5.775628;;1851.1
2027.0;1970.7;;;;;;;;;;;;;;0.87710196;0.44959867;-0.26270333;;;;;1851.1
2027.0;1970.7;;;;;;;;;;;;;;;;;-7.736442;12.356182;10.414441;;1851.1
2027.0;1970.7;;;;;;;;;;;;;;0.8916288;0.43745232;-0.2709433;;;;;1851.1
2027.0;1970.7;;;;;;;;;;;;;;;;;-6.920072;11.15833;14.992217;;1860.7
2027.0;1970.7;;;;;;;;;;;;;;0.8944975;0.4430067;-0.2700278;;;;;1860.7
2027.0;1970.7;;;;;;;;;;;;;;;;;-5.836665;9.685812;19.276255;;1860.7
2027.0;1970.7;;;;;;;;;;;;;;0.89901423;0.4458144;-0.2710654;;;;;1860.7
2027.0;1970.7;;;;;;;;;;;;;;;;;-5.0241094;9.4569235;23.003326;;1870.3
2027.0;1970.7;;;;;;;;;;;;;;0.89492476;0.4453261;-0.27478865;;;;;1870.3
2027.0;1970.7;;;;;;;;;;;;;;;;;-4.3832207;10.9408865;26.116215;;1870.3
2027.0;1970.7;;;;;;;;;;;;;;0.8725242;0.46015808;-0.2667928;;;;;1870.3
2027.0;1971.6;;;;;;;;;;;;;;;;;-3.8300729;13.138219;28.366955;;1879.8
2027.0;1971.6;;;;;;;;;;;;;;0.8468276;0.46705526;-0.2700278;;;;;1879.8
2027.0;1971.6;;;;;;;;;;;;;;;;;-3.0594807;16.232033;29.747917;;1879.8
2027.0;1971.6;;;;;;;;;;;;;;0.8149052;0.46327096;-0.2822962;;;;;1879.8
2027.0;1971.6;;;;;;;;;;;;;;;;;-1.9989624;19.341106;30.217138;;1889.3
2027.0;1971.6;;;;;;;;;;;;;;0.77340007;0.4492935;-0.28370008;;;;;1889.3
2027.0;1971.6;;;;;;;;;;;;;;;;;0.18311106;20.504623;29.934843;;1889.3
2027.0;1971.6;;;;;;;;;;;;;;0.7347026;0.4453261;-0.28815576;;;;;1889.3
2027.0;1971.6;;;;;;;;;;;;;;;;;3.4104435;20.558031;29.065065;;1898.9
2027.0;1971.6;;;;;;;;;;;;;;0.69197667;0.45411542;-0.29175696;;;;;1898.9
2027.0;1971.6;;;;;;;;;;;;;;;;;6.9086275;19.611956;27.851954;;1898.9
2027.0;1971.6;;;;;;;;;;;;;;0.65541553;0.4477676;-0.29517502;;;;;1898.9
2087.0;1975.3;;;;;;;;;;-23.190252;-44.58754;19.60814;;;;;;;;;
2087.0;1975.3;;;;;;;0.7698599;-0.77895445;0.17126988;;;;;;;;;;;;
2087.0;1975.3;;;;;;;;;;-23.277992;-44.331947;18.318735;;;;;;;;;
2087.0;1975.3;;;;;;;0.7660756;-0.77388835;0.17371136;;;;;;;;;;;;
2087.0;1979.3;;;;-0.23509982;0.61949164;-0.10458757;;;;;;;;;;;;;;;
2087.0;1979.3;;;;-0.23099902;0.61127096;-0.106655136;;;;;;;;;;;;;;;
2087.0;1979.3;;;;-0.22711948;0.60267645;-0.10959245;;;;;;;;;;;;;;;
2087.0;1979.3;;;;-0.2240639;0.5949021;-0.112842575;;;;;;;;;;;;;;;
2087.0;1979.3;;;;-0.22103885;0.58746344;-0.1158333;;;;;;;;;;;;;;;
2087.0;1982.8;262143;262143;13023;;;;;;;;;;;;;;;;;;
2087.0;1984.8;;;;;;;;;;-23.335215;-44.17936;16.624958;;;;;;;;;
2087.0;1984.8;;;;;;;0.755089;-0.7591174;0.18359935;;;;;;;;;;;;
2087.0;1984.8;;;;;;;;;;-23.01477;-44.17173;15.720848;;;;;;;;;
2087.0;1984.8;;;;;;;0.76094854;-0.74599445;0.18134098;;;;;;;;;;;;
2087.0;1989.3;;;;-0.21857074;0.5801125;-0.11897661;;;;;;;;;;;;;;;
2087.0;1989.3;;;;-0.21599963;0.5730782;-0.12113191;;;;;;;;;;;;;;;
2087.0;1989.3;;;;-0.21326068;0.5647355;-0.12075044;;;;;;;;;;;;;;;
2087.0;1989.3;;;;-0.20945361;0.5576783;-0.1211548;;;;;;;;;;;;;;;
2087.0;1989.3;;;;-0.20761493;0.55209357;-0.1205063;;;;;;;;;;;;;;;
2087.0;1994.1;;;;;;;;;;-23.121586;-44.61806;14.229255;;;;;;;;;
2087.0;1994.1;;;;;;;0.7543565;-0.7342143;0.17926572;;;;;;;;;;;;
2087.0;1994.1;;;;;;;;;;-23.686178;-45.36958;12.714774;;;;;;;;;
2087.0;1994.1;;;;;;;0.74886316;-0.7257302;0.16705832;;;;;;;;;;;;
2093.0;1999.2;;;;-0.20691302;0.5468903;-0.12118532;;;;;;;;;;;;;;;
2093.0;1999.2;;;;-0.20637515;0.542965;-0.12055208;;;;;;;;;;;;;;;
2093.0;1999.2;;;;-0.20715716;0.5391808;-0.120208755;;;;;;;;;;;;;;;
2093.0;1999.2;;;;-0.20824054;0.5365563;-0.119468704;;;;;;;;;;;;;;;
2093.0;1999.2;;;;-0.20972064;0.53485113;-0.11877443;;;;;;;;;;;;;;;
2093.0;2002.8;262143;262143;13007;;;;;;;;;;;;;;;;;;
2093.0;2003.7;;;;;;;;;;-24.689476;-45.850246;11.101108;;;;;;;;;
2093.0;2003.7;;;;;;;0.7431868;-0.7228614;0.15002899;;;;;;;;;;;;
2093.0;2003.7;;;;;;;;;;-26.024658;-45.888393;9.9642935;;;;;;;;;
2093.0;2003.7;;;;;;;0.7394635;-0.72963655;0.13373211;;;;;;;;;;;;
2093.0;2008.6;;;;;;;;;;;;;4761;;;;;;;;
2093.0;2008.6;;;;;;;;;;;;;5286;;;;;;;;
2093.0;2008.6;;;;;;;;;;;;;6048;;;;;;;;
2093.0;2008.6;;;;;;;;;;;;;6831;;;;;;;;
2093.0;2008.6;;;;;;;;;;;;;7532;;;;;;;;
2093.0;2009.3;;;;-0.21259692;0.5319901;-0.11746599;;;;;;;;;;;;;;;
2093.0;2009.3;;;;-0.21601489;0.5298882;-0.11545183;;;;;;;;;;;;;;;
2093.0;2009.3;;;;-0.21849063;0.53101736;-0.11617662;;;;;;;;;;;;;;;
2093.0;2009.3;;;;-0.2194176;0.5314179;-0.11439516;;;;;;;;;;;;;;;
2093.0;2009.3;;;;-0.22004321;0.532898;-0.11241914;;;;;;;;;;;;;;;
2093.0;2013.4;;;;;;;;;;-27.623066;-45.312355;9.601887;;;;;;;;;
2093.0;2013.4;;;;;;;0.7396466;-0.74111146;0.12494278;;;;;;;;;;;;
2093.0;2013.4;;;;;;;;;;-28.817102;-43.866543;9.582812;;;;;;;;;
2093.0;2013.4;;;;;;;0.74513996;-0.760094;0.12018189;;;;;;;;;;;;
2096.0;2019.4;;;;-0.22069171;0.533886;-0.11073305;;;;;;;;;;;;;;;
2096.0;2019.4;;;;-0.22077563;0.536419;-0.10803224;;;;;;;;;;;;;;;
2096.0;2019.4;;;;-0.21982577;0.53937536;-0.10588075;;;;;;;;;;;;;;;
2096.0;2019.4;;;;-0.21949771;0.5411301;-0.102619186;;;;;;;;;;;;;;;
2096.0;2019.4;;;;-0.22121814;0.54253393;-0.09887315;;;;;;;;;;;;;;;
2096.0;2023.0;;;;;;;;;;-29.549547;-41.86758;10.261848;;;;;;;;;
2096.0;2023.0;;;;;;;0.77535325;-0.8019044;0.11700796;;;;;;;;;;;;
2096.0;2023.0;;;;;;;;;;-30.167545;-39.246803;11.101108;;;;;;;;;
2096.0;2023.0;;;;;;;0.78957486;-0.83944213;0.11792352;;;;;;;;;;;;
2096.0;2023.5;;;;;;;;;;;;;;;;;10.299997;18.047884;26.257362;;1908.6
2096.0;2023.5;;;;;;;;;;;;;;0.62355417;0.45100254;-0.2923673;;;;;1908.6
2096.0;2023.5;;;;;;;;;;;;;;;;;13.447219;17.143772;24.59792;;1908.6
2096.0;2023.5;;;;;;;;;;;;;;0.59566027;0.4582049;-0.27503282;;;;;1908.6
2096.0;2023.5;;;;;;;;;;;;;;;;;15.884884;16.075624;22.93466;;1918.2
2096.0;2023.5;;;;;;;;;;;;;;0.5727714;0.4479507;-0.26136053;;;;;1918.2
2096.0;2023.5;;;;;;;;;;;;;;;;;17.124699;15.7857;20.9624;;1918.2
2096.0;2023.5;;;;;;;;;;;;;;0.55348366;0.4349498;-0.2503128;;;;;1918.2
2096.0;2023.5;;;;;;;;;;;;;;;;;16.567736;17.109438;18.486588;;1927.9
2096.0;2023.5;;;;;;;;;;;;;;0.53132725;0.42353588;-0.2296823;;;;;1927.9
2096.0;2023.5;;;;;;;;;;;;;;;;;14.198736;18.398846;15.533921;;1927.9
2096.0;2023.5;;;;;;;;;;;;;;0.5148473;0.42347485;-0.2024598;;;;;1927.9
2096.0;2023.0;262143;262143;13001;;;;;;;;;;;;;;;;;;
2099.0;2024.2;;;;;;;;;;;;;;;;;9.73922;19.26481;12.222664;;1937.2
2099.0;2024.2;;;;;;;;;;;;;;0.49787897;0.43995485;-0.16760765;;;;;1937.2
2099.0;2024.2;;;;;;;;;;;;;;;;;3.4371471;20.195623;8.934294;;1937.2
2099.0;2024.2;;;;;;;;;;;;;;0.48213142;0.4604633;-0.14288767;;;;;1937.2
2099.0;2024.2;;;;;;;;;;;;;;;;;-2.883999;21.256142;5.8709984;;1946.8
2099.0;2024.2;;;;;;;;;;;;;;0.4721824;0.47779778;-0.13476974;;;;;1946.8
2099.0;2024.2;;;;;;;;;;;;;;;;;-8.735923;22.972807;3.2425916;;1946.8
2099.0;2024.2;;;;;;;;;;;;;;0.46662802;0.48927274;-0.12518692;;;;;1946.8
2099.0;2024.2;;;;;;;;;;;;;;;;;-13.103885;25.27314;1.2665181;;1956.5
2099.0;2024.2;;;;;;;;;;;;;;0.4547258;0.49147007;-0.09460738;;;;;1956.5
2099.0;2024.2;;;;;;;;;;;;;;;;;-15.892513;26.463364;-0.08774071;;1956.5
2099.0;2024.2;;;;;;;;;;;;;;0.44325083;0.49049348;-0.06122013;;;;;1956.5
2099.0;2029.4;;;;-0.22516635;0.54357916;-0.09485628;;;;;;;;;;;;;;;
2099.0;2029.4;;;;-0.22994998;0.5434876;-0.0905037;;;;;;;;;;;;;;;
2099.0;2029.4;;;;-0.23516849;0.5439225;-0.085147865;;;;;;;;;;;;;;;
2099.0;2029.4;;;;-0.24198154;0.54510504;-0.0800171;;;;;;;;;;;;;;;
2099.0;2029.4;;;;-0.2503319;0.5459328;-0.07367707;;;;;;;;;;;;;;;
2099.0;2032.5;;;;;;;;;;-30.404064;-35.6151;21155;;;;;;;;;
2099.0;2032.5;;;;;;;0.8206427;-0.8829615;0.11981567;;;;;;;;;;;;
2099.0;2032.5;;;;;;;;;;-30.3621;-30.411694;14.328441;;;;;;;;;
2099.0;2032.5;;;;;;;0.850734;-0.9197058;0.12878811;;;;;;;;;;;;
2138.0;2039.5;;;;-0.26012424;0.54721457;-0.06747056;;;;;;;;;;;;;;;
2138.0;2039.5;;;;-0.27112964;0.54845816;-0.0611229;;;;;;;;;;;;;;;
2138.0;2039.5;;;;-0.28265384;0.5501099;-0.0548668;;;;;;;;;;;;;;;
2138.0;2039.5;;;;-0.29568103;0.5514489;-0.047813423;;;;;;;;;;;;;;;
2138.0;2039.5;;;;-0.31008914;0.5528794;-0.041412357;;;;;;;;;;;;;;;
2138.0;2042.1;;;;;;;;;;-29.469437;-25.16251;16.014587;;;;;;;;;
2138.0;2042.1;;;;;;;0.88015383;-0.9519333;0.1539964;;;;;;;;;;;;
2138.0;2042.1;;;;;;;;;;-27.3484;-20.508438;18.417921;;;;;;;;;
2138.0;2042.1;;;;;;;0.91348004;-0.9775078;0.18323313;;;;;;;;;;;;
2138.0;2043.1;262143;262143;13012;;;;;;;;;;;;;;;;;;
2138.0;2048.7;;;;;;;;;;;;;8136;;;;;;;;
2138.0;2048.7;;;;;;;;;;;;;8513;;;;;;;;
2138.0;2048.7;;;;;;;;;;;;;8508;;;;;;;;
2138.0;2048.7;;;;;;;;;;;;;8310;;;;;;;;
2138.0;2048.7;;;;;;;;;;;;;8053;;;;;;;;
2138.0;2049.4;;;;-0.32472232;0.5541726;-0.03557587;;;;;;;;;;;;;;;
2138.0;2049.4;;;;-0.3386574;0.5550385;-0.030967716;;;;;;;;;;;;;;;
2138.0;2049.4;;;;-0.3522797;0.55574423;-0.028041843;;;;;;;;;;;;;;;
2138.0;2049.4;;;;-0.36547092;0.5562058;-0.026542667;;;;;;;;;;;;;;;
2138.0;2049.4;;;;-0.37782294;0.5555039;-0.025615696;;;;;;;;;;;;;;;
2138.0;2051.4;;;;;;;;;;-24.418623;-15.942106;21.378216;;;;;;;;;
2138.0;2051.4;;;;;;;0.9344157;-0.9897153;0.21332438;;;;;;;;;;;;
2138.0;2051.4;;;;;;;;;;-21.423994;-11.276589;25.509659;;;;;;;;;
2138.0;2051.4;;;;;;;0.94912565;-1.0033876;0.24097416;;;;;;;;;;;;
2143.0;2059.4;;;;-0.38951498;0.55442053;-0.024974827;;;;;;;;;;;;;;;
2143.0;2059.4;;;;-0.40105826;0.5524903;-0.02626801;;;;;;;;;;;;;;;
2143.0;2059.4;;;;-0.41230017;0.54996496;-0.028377537;;;;;;;;;;;;;;;
2143.0;2059.4;;;;-0.42207342;0.54634863;-0.030879978;;;;;;;;;;;;;;;
2143.0;2059.4;;;;-0.43101507;0.542492;-0.03213883;;;;;;;;;;;;;;;
2143.0;2061.0;;;;;;;;;;-18.650625;-5.714591;28.725548;;;;;;;;;
2143.0;2061.0;;;;;;;0.9488205;-1.0046083;0.2565386;;;;;;;;;;;;
2143.0;2061.0;;;;;;;;;;-16.28544;0.22507401;31.197546;;;;;;;;;
2143.0;2061.0;;;;;;;0.93343914;-0.9970397;0.26728112;;;;;;;;;;;;
2143.0;2063.1;262143;262143;13013;;;;;;;;;;;;;;;;;;
2143.0;2069.5;;;;-0.44002157;0.53859717;-0.032840732;;;;;;;;;;;;;;;
2143.0;2069.5;;;;-0.44948965;0.53511435;-0.033355717;;;;;;;;;;;;;;;
2143.0;2069.5;;;;-0.45859152;0.5333634;-0.033264164;;;;;;;;;;;;;;;
2143.0;2069.5;;;;-0.46677786;0.53498846;-0.032028202;;;;;;;;;;;;;;;
2143.0;2069.5;;;;-0.47566992;0.53858954;-0.032234196;;;;;;;;;;;;;;;
2143.0;2070.6;;;;;;;;;;-13.966033;6.45085;33.642845;;;;;;;;;
2143.0;2070.6;;;;;;;0.9238563;-0.99215674;0.2709433;;;;;;;;;;;;
2143.0;2070.6;;;;;;;;;;-12.2646265;12.619404;34.985657;;;;;;;;;
2143.0;2070.6;;;;;;;0.90145576;-0.9764092;0.2728965;;;;;;;;;;;;
2144.0;2079.6;;;;-0.48610312;0.54640204;-0.034355167;;;;;;;;;;;;;;;
2144.0;2079.6;;;;-0.4979859;0.5570145;-0.036975864;;;;;;;;;;;;;;;
2144.0;2079.6;;;;-0.51232916;0.5710488;-0.041843418;;;;;;;;;;;;;;;
2144.0;2079.6;;;;-0.5276604;0.58835226;-0.047618873;;;;;;;;;;;;;;;
2144.0;2079.6;;;;-0.54467016;0.60874563;-0.05754853;;;;;;;;;;;;;;;
2144.0;2080.3;;;;;;;;;;-11.005738;18.20429;36.191135;;;;;;;;;
2144.0;2080.3;;;;;;;0.88235116;-0.964507;0.27265236;;;;;;;;;;;;
2144.0;2080.3;;;;;;;;;;-9.590442;23.628956;36.87399;;;;;;;;;
2144.0;2080.3;;;;;;;0.8717917;-0.9614551;0.26410717;;;;;;;;;;;;
2144.0;2083.3;262143;262143;13010;;;;;;;;;;;;;;;;;;
2144.0;2089.1;;;;;;;;;;;;;7765;;;;;;;;
2144.0;2089.1;;;;;;;;;;;;;7558;;;;;;;;
2144.0;2089.1;;;;;;;;;;;;;7222;;;;;;;;
2144.0;2089.1;;;;;;;;;;;;;6565;;;;;;;;
2144.0;2089.1;;;;;;;;;;;;;6094;;;;;;;;
2144.0;2089.7;;;;-0.5633927;0.63208777;-0.068256386;;;;;;;;;;;;;;;
2144.0;2089.7;;;;-0.58108145;0.6595841;-0.07747651;;;;;;;;;;;;;;;
2144.0;2089.7;;;;-0.5966683;0.6914025;-0.08603669;;;;;;;;;;;;;;;
2144.0;2089.7;;;;-0.6119042;0.72591025;-0.09338761;;;;;;;;;;;;;;;
2144.0;2089.7;;;;-0.62665945;0.7623521;-0.10135271;;;;;;;;;;;;;;;
2144.0;2089.8;;;;;;;;;;-8.369701;28.298288;36.561176;;;;;;;;;
2144.0;2089.8;;;;;;;0.8564104;-0.9554735;0.25971252;;;;;;;;;;;;
2144.0;2089.8;;;;;;;;;;-6.897183;32.56325;35.74862;;;;;;;;;
2144.0;2089.8;;;;;;;0.8498184;-0.95706046;0.24726096;;;;;;;;;;;;
2146.0;2090.8;;;;;;;;;;;;;;;;;-18.215734;25.78051;-1.3657033;;1966.2
2146.0;2090.8;;;;;;;;;;;;;;0.43531603;0.48176518;-0.070192575;;;;;1966.2
2146.0;2090.8;;;;;;;;;;;;;;;;;-20.947142;24.864954;-2.6131475;;1966.2
2146.0;2090.8;;;;;;;;;;;;;;0.4403821;0.4737083;-0.0966216;;;;;1966.2
2146.0;2090.8;;;;;;;;;;;;;;;;;-22.938475;25.593584;-3.4371471;;1975.9
2146.0;2090.8;;;;;;;;;;;;;;0.44972077;0.4723655;-0.08337657;;;;;1975.9
2146.0;2090.8;;;;;;;;;;;;;;;;;-23.136845;28.073214;-4.0437026;;1975.9
2146.0;2090.8;;;;;;;;;;;;;;0.45680106;0.47987303;-0.024903104;;;;;1975.9
2146.0;2090.8;;;;;;;;;;;;;;;;;-21.290476;31.254768;-4.860073;;1985.6
2146.0;2090.8;;;;;;;;;;;;;;0.46455276;0.50166327;0.029725028;;;;;1985.6
2146.0;2090.8;;;;;;;;;;;;;;;;;-19.283884;34.543137;-6.122776;;1985.6
2146.0;2090.8;;;;;;;;;;;;;;0.47151098;0.52790916;0.04791406;;;;;1985.6
2146.0;2092.1;;;;;;;;;;;;;;;;;-19.028292;38.72799;-8.285776;;1995.1
2146.0;2092.1;;;;;;;;;;;;;;0.4776757;0.56532484;0.0557268;;;;;1995.1
2146.0;2092.1;;;;;;;;;;;;;;;;;-18.768885;43.49269;-10.402997;;1995.1
2146.0;2092.1;;;;;;;;;;;;;;0.48469496;0.5944395;0.090029605;;;;;1995.1
2146.0;2092.1;;;;;;;;;;;;;;;;;-17.27729;48.21543;-12.08533;;2004.7
2146.0;2092.1;;;;;;;;;;;;;;0.48615986;0.60554826;0.14728233;;;;;2004.7
2146.0;2092.1;;;;;;;;;;;;;;;;;-15.377514;52.049316;-14.515367;;2004.7
2146.0;2092.1;;;;;;;;;;;;;;0.5027619;0.60316783;0.17389446;;;;;2004.7
2146.0;2092.1;;;;;;;;;;;;;;;;;-13.660849;56.39439;-17.326883;;2014.4
2146.0;2092.1;;;;;;;;;;;;;;0.51313823;0.6013367;0.16138189;;;;;2014.4
2146.0;2092.1;;;;;;;;;;;;;;;;;-12.112034;60.71657;-21.107365;;2014.4
2146.0;2092.1;;;;;;;;;;;;;;0.5075228;0.60945463;0.11523789;;;;;2014.4
2147.0;2098.2;;;;;;;;;;;;;;;;;-12.10059;64.367355;-25.929289;;2024.1
2147.0;2098.2;;;;;;;;;;;;;;0.5247963;0.60463274;0.09460738;;;;;2024.1
2147.0;2098.2;;;;;;;;;;;;;;;;;-13.870663;67.61758;-31.95288;;2024.1
2147.0;2098.2;;;;;;;;;;;;;;0.5542772;0.5794855;0.120365;;;;;2024.1
2147.0;2098.2;;;;;;;;;;;;;;;;;-16.346478;70.26124;-39.04843;;2033.7
2147.0;2098.2;;;;;;;;;;;;;;0.61128575;0.5609302;0.17572558;;;;;2033.7
2147.0;2098.2;;;;;;;;;;;;;;;;;-18.883327;72.59972;-46.311836;;2033.7
2147.0;2098.2;;;;;;;;;;;;;;0.6701254;0.56483656;0.21906187;;;;;2033.7
2147.0;2098.2;;;;;;;;;;;;;;;;;-21.046328;73.63735;-53.834652;;2043.3
2147.0;2098.2;;;;;;;;;;;;;;0.73647267;0.6068911;0.229194;;;;;2043.3
2147.0;2098.2;;;;;;;;;;;;;;;;;-23.102512;74.13709;-61.666462;;2043.3
2147.0;2098.2;;;;;;;;;;;;;;0.81527144;0.6905118;0.23535874;;;;;2043.3
2147.0;2099.1;;;;;;;;;;-5.630665;36.950287;33.509327;;;;;;;;;
2147.0;2099.1;;;;;;;0.82973725;-0.9524827;0.24219489;;;;;;;;;;;;
2147.0;2099.1;;;;;;;;;;-4.570147;40.372173;31.762138;;;;;;;;;
2147.0;2099.1;;;;;;;0.816187;-0.9558397;0.24042481;;;;;;;;;;;;
2147.0;2099.4;;;;-0.6408883;0.8026811;-0.10915758;;;;;;;;;;;;;;;
2147.0;2099.4;;;;-0.6532288;0.8473855;-0.11576845;;;;;;;;;;;;;;;
2147.0;2099.4;;;;-0.6678124;0.8958665;-0.118812576;;;;;;;;;;;;;;;
2147.0;2099.4;;;;-0.6784554;0.9442674;-0.12529756;;;;;;;;;;;;;;;
2147.0;2099.4;;;;-0.6874581;0.99232495;-0.13085176;;;;;;;;;;;;;;;
2147.0;2103.2;262143;262143;13011;;;;;;;;;;;;;;;;;;
2198.0;2108.5;;;;;;;;;;-3.4752953;43.141727;29.70214;;;;;;;;;
2198.0;2108.5;;;;;;;0.8039186;-0.95736563;0.23645741;;;;;;;;;;;;
2198.0;2108.5;;;;;;;;;;-2.5406659;45.99521;27.542953;;;;;;;;;
2198.0;2108.5;;;;;;;0.7889645;-0.9630421;0.24115726;;;;;;;;;;;;
2198.0;2109.2;;;;-0.7007294;1.0498964;-0.13031389;;;;;;;;;;;;;;;
2198.0;2109.2;;;;-0.71305853;1.1079942;-0.12949754;;;;;;;;;;;;;;;
2198.0;2109.2;;;;-0.7245484;1.1647455;-0.12726976;;;;;;;;;;;;;;;
2198.0;2109.2;;;;-0.74020773;1.2168542;-0.12321855;;;;;;;;;;;;;;;
2198.0;2109.2;;;;-0.76161206;1.2681085;-0.11481477;;;;;;;;;;;;;;;
2198.0;2118.0;;;;;;;;;;-1.6365551;48.249763;25.719473;;;;;;;;;
2198.0;2118.0;;;;;;;0.7900632;-0.9764092;0.24799341;;;;;;;;;;;;
2198.0;2118.0;;;;;;;;;;-0.6408887;50.107574;22.73629;;;;;;;;;
2198.0;2118.0;;;;;;;0.77663505;-0.9846492;0.25330362;;;;;;;;;;;;
2198.0;2119.2;;;;-0.7793428;1.3090631;-0.10839082;;;;;;;;;;;;;;;
2198.0;2119.2;;;;-0.7933961;1.3471719;-0.095260635;;;;;;;;;;;;;;;
2198.0;2119.2;;;;-0.82034314;1.3710862;-0.08812714;;;;;;;;;;;;;;;
2198.0;2119.2;;;;-0.8518144;1.3835641;-0.07423783;;;;;;;;;;;;;;;
2198.0;2119.2;;;;-0.89117444;1.3905984;-0.059410103;;;;;;;;;;;;;;;
2198.0;2123.1;262143;262143;13022;;;;;;;;;;;;;;;;;;
2198.0;2127.6;;;;;;;;;;0.32044435;51.98065;19.394514;;;;;;;;;
2198.0;2127.6;;;;;;;0.7622913;-0.99679554;0.26270333;;;;;;;;;;;;
2198.0;2127.6;;;;;;;;;;1.3504441;53.506577;15.659811;;;;;;;;;
2198.0;2127.6;;;;;;;0.7532579;-1.0159001;0.26026186;;;;;;;;;;;;
2201.0;2128.8;;;;;;;;;;;;;6124;;;;;;;;
2201.0;2128.8;;;;;;;;;;;;;5990;;;;;;;;
2201.0;2128.8;;;;;;;;;;;;;5160;;;;;;;;
2201.0;2128.8;;;;;;;;;;;;;4161;;;;;;;;
2201.0;2128.8;;;;;;;;;;;;;3870;;;;;;;;
2201.0;2129.3;;;;-0.90950406;1.386078;-0.05825425;;;;;;;;;;;;;;;
2201.0;2129.3;;;;-0.95580685;1.3924524;-0.034141544;;;;;;;;;;;;;;;
2201.0;2129.3;;;;-1.0258256;1.4065934;0.0015754702;;;;;;;;;;;;;;;
2201.0;2129.3;;;;-1.0813218;1.4046899;0.020744326;;;;;;;;;;;;;;;
2201.0;2129.3;;;;-1.1225549;1.3844682;0.022148134;;;;;;;;;;;;;;;
2201.0;2137.2;;;;;;;;;;1.7929624;55.478832;11.276589;;;;;;;;;
2201.0;2137.2;;;;;;;0.73842585;-1.0262154;0.25434124;;;;;;;;;;;;
2201.0;2137.2;;;;;;;;;;1.8921475;58.126316;6.8094425;;;;;;;;;
2201.0;2137.2;;;;;;;0.72402114;-1.030488;0.24951933;;;;;;;;;;;;
2201.0;2139.4;;;;-1.1521455;1.3536683;0.0077285776;;;;;;;;;;;;;;;
2201.0;2139.4;;;;-1.1785051;1.3151551;-0.016742708;;;;;;;;;;;;;;;
2201.0;2139.4;;;;-1.2039376;1.2787439;-0.045009617;;;;;;;;;;;;;;;
2201.0;2139.4;;;;-1.2195817;1.243889;-0.07175065;;;;;;;;;;;;;;;
2201.0;2139.4;;;;-1.2355195;1.2184068;-0.09423067;;;;;;;;;;;;;;;
2202.0;2143.2;;;;;;;;;;;;;;;;;-26.608326;72.71035;-70.23835;;2052.8
2202.0;2143.2;;;;;;;;;;;;;;0.9103061;0.80129397;0.20368053;;;;;2052.8
2202.0;2143.2;;;;;;;;;;;;;;;;;-31.411175;69.72335;-80.17975;;2052.8
2202.0;2143.2;;;;;;;;;;;;;;1.0310984;0.93252355;0.15625477;;;;;2052.8
2202.0;2143.2;;;;;;;;;;;;;;;;;-37.09525;65.41643;-91.6013;;2062.3
2202.0;2143.2;;;;;;;;;;;;;;1.1619006;1.0831019;0.11499374;;;;;2062.3
2202.0;2143.2;;;;;;;;;;;;;;;;;-43.336285;57.96991;-104.41527;;2062.3
2202.0;2143.2;;;;;;;;;;;;;;1.2988678;1.2556535;0.042298656;;;;;2062.3
2202.0;2143.2;;;;;;;;;;;;;;;;;-50.733208;48.23832;-117.72515;;2072.0
2202.0;2143.2;;;;;;;;;;;;;;1.4752648;1.4166082;-0.09009064;;;;;2072.0
2202.0;2143.2;;;;;;;;;;;;;;;;;-58.68328;42.859432;-124.6147;;2072.0
2202.0;2143.2;;;;;;;;;;;;;;1.6920072;1.5423445;-0.23175757;;;;;2072.0
2202.0;2143.2;262143;262143;13024;;;;;;;;;;;;;;;;;;
2202.0;2146.7;;;;;;;;;;2.0981476;61.06372;2.2583697;;;;;;;;;
2202.0;2146.7;;;;;;;0.71810055;-1.0273751;0.24115726;;;;;;;;;;;;
2202.0;2146.7;;;;;;;;;;2.3689995;64.05072;-2.9030733;;;;;;;;;
2202.0;2146.7;;;;;;;0.7192602;-1.0237739;0.23175757;;;;;;;;;;;;
2202.0;2149.4;;;;-1.2481538;1.2040406;-0.1092415;;;;;;;;;;;;;;;
2202.0;2149.4;;;;-1.2586251;1.2028505;-0.116001144;;;;;;;;;;;;;;;
2202.0;2149.4;;;;-1.2694513;1.214512;-0.11337663;;;;;;;;;;;;;;;
2202.0;2149.4;;;;-1.2765504;1.238556;-0.10832597;;;;;;;;;;;;;;;
2202.0;2149.4;;;;-1.2892572;1.2710038;-0.10184862;;;;;;;;;;;;;;;
2204.0;2156.3;;;;;;;;;;2.3232217;67.03773;-8.022553;;;;;;;;;
2204.0;2156.3;;;;;;;0.7226783;-1.0269479;0.2233955;;;;;;;;;;;;
2204.0;2156.3;;;;;;;;;;2.0218513;70.4062;-13.481552;;;;;;;;;
2204.0;2156.3;;;;;;;0.72768337;-1.0375073;0.21338542;;;;;;;;;;;;
2204.0;2158.2;;;;;;;;;;;;;;;;;-64.18424;45.575577;-124.988556;;2081.7
2204.0;2158.2;;;;;;;;;;;;;;1.9165014;1.5567492;-0.36707664;;;;;2081.7
2204.0;2158.2;;;;;;;;;;;;;;;;;-64.57717;61.11713;-124.988556;;2081.7
2204.0;2158.2;;;;;;;;;;;;;;1.9970092;1.4745933;-0.3919187;;;;;2081.7
2204.0;2158.2;;;;;;;;;;;;;;;;;-63.24198;82.94168;-124.988556;;2091.3
2204.0;2158.2;;;;;;;;;;;;;;1.9678335;1.2272713;-0.29096347;;;;;2091.3
2204.0;2158.2;;;;;;;;;;;;;;;;;-71.20731;101.17648;-124.988556;;2091.3
2204.0;2158.2;;;;;;;;;;;;;;1.7094028;0.9152501;-0.18066958;;;;;2091.3
2204.0;2158.2;;;;;;;;;;;;;;;;;-82.21305;102.09967;-124.988556;;2100.9
2204.0;2158.2;;;;;;;;;;;;;;1.5380108;0.6596881;-0.14069033;;;;;2100.9
2204.0;2158.2;;;;;;;;;;;;;;;;;-88.64482;94.2526;-124.988556;;2100.9
2204.0;2158.2;;;;;;;;;;;;;;1.460799;0.46278268;-0.11505478;;;;;2100.9
2204.0;2159.3;;;;-1.300747;1.3139879;-0.09049607;;;;;;;;;;;;;;;
2204.0;2159.3;;;;-1.3090402;1.361065;-0.07738114;;;;;;;;;;;;;;;
2204.0;2159.3;;;;-1.3133966;1.4114534;-0.06370164;;;;;;;;;;;;;;;
2204.0;2159.3;;;;-1.3210069;1.4602472;-0.048442848;;;;;;;;;;;;;;;
2204.0;2159.3;;;;-1.3313142;1.503155;-0.03230286;;;;;;;;;;;;;;;
2204.0;2163.2;262143;262143;13028;;;;;;;;;;;;;;;;;;
2257.0;2165.7;;;;;;;;;;1.9493698;74.06842;-18.96344;;;;;;;;;
2257.0;2165.7;;;;;;;0.7338481;-1.0504471;0.20551164;;;;;;;;;;;;
2257.0;2165.7;;;;;;;;;;1.9188513;77.83365;-24.945066;;;;;;;;;
2257.0;2165.7;;;;;;;0.7335429;-1.0704062;0.20044558;;;;;;;;;;;;
2257.0;2168.8;;;;;;;;;;;;;4345;;;;;;;;
2257.0;2168.8;;;;;;;;;;;;;4815;;;;;;;;
2257.0;2168.8;;;;;;;;;;;;;5069;;;;;;;;
2257.0;2168.8;;;;;;;;;;;;;5711;;;;;;;;
2257.0;2168.8;;;;;;;;;;;;;6764;;;;;;;;
2257.0;2169.2;;;;-1.3420678;1.5389102;-0.014984133;;;;;;;;;;;;;;;
2257.0;2169.2;;;;-1.3509637;1.5669062;8.2016E-4;;;;;;;;;;;;;;;
2257.0;2169.2;;;;-1.3605081;1.5879176;0.015949251;;;;;;;;;;;;;;;
2257.0;2169.2;;;;-1.3691827;1.5982249;0.031028751;;;;;;;;;;;;;;;
2257.0;2169.2;;;;-1.3781701;1.6003382;0.046363834;;;;;;;;;;;;;;;
2257.0;2175.0;;;;;;;;;;2.1172216;81.274605;-30.438398;;;;;;;;;
2257.0;2175.0;;;;;;;0.7374493;-1.0890225;0.1892758;;;;;;;;;;;;
2257.0;2175.0;;;;;;;;;;2.3461106;84.7232;-35.885952;;;;;;;;;
2257.0;2175.0;;;;;;;0.74153876;-1.1110568;0.17462692;;;;;;;;;;;;
2257.0;2179.2;;;;-1.387642;1.5947421;0.059665687;;;;;;;;;;;;;;;
2257.0;2179.2;;;;-1.3957025;1.5801585;0.07095719;;;;;;;;;;;;;;;
2257.0;2179.2;;;;-1.39843;1.5601695;0.08089066;;;;;;;;;;;;;;;
2257.0;2179.2;;;;-1.4048539;1.5319293;0.09312058;;;;;;;;;;;;;;;
2257.0;2179.2;;;;-1.4097482;1.5003626;0.10625078;;;;;;;;;;;;;;;
2257.0;2183.2;262143;262143;13020;;;;;;;;;;;;;;;;;;
2261.0;2184.7;;;;;;;;;;2.3880734;88.21375;-40.82995;;;;;;;;;
2261.0;2184.7;;;;;;;0.741966;-1.1284524;0.16235848;;;;;;;;;;;;
2261.0;2184.7;;;;;;;;;;2.277444;92.028564;-44.930874;;;;;;;;;
2261.0;2184.7;;;;;;;0.74269843;-1.1462752;0.15057832;;;;;;;;;;;;
2261.0;2189.3;;;;-1.4116288;1.4674379;0.11966707;;;;;;;;;;;;;;;
2261.0;2189.3;;;;-1.4107972;1.4333154;0.13143541;;;;;;;;;;;;;;;
2261.0;2189.3;;;;-1.4072229;1.3997918;0.14416505;;;;;;;;;;;;;;;
2261.0;2189.3;;;;-1.3994333;1.3690072;0.15739442;;;;;;;;;;;;;;;
2261.0;2189.3;;;;-1.3894845;1.340458;0.17121889;;;;;;;;;;;;;;;
2261.0;2194.3;;;;;;;;;;2.2698143;96.694084;-48.177284;;;;;;;;;
2261.0;2194.3;;;;;;;0.74617755;-1.1647084;0.13489181;;;;;;;;;;;;
2261.0;2194.3;;;;;;;;;;2.0790737;102.12256;-50.763725;;;;;;;;;
2261.0;2194.3;;;;;;;0.7495346;-1.185522;0.113773;;;;;;;;;;;;
2261.0;2199.4;;;;-1.3786851;1.3171045;0.18431093;;;;;;;;;;;;;;;
2261.0;2199.4;;;;-1.3663064;1.2972108;0.19792178;;;;;;;;;;;;;;;
2261.0;2199.4;;;;-1.3533975;1.280594;0.21331027;;;;;;;;;;;;;;;
2261.0;2199.4;;;;-1.3405839;1.2686769;0.22994617;;;;;;;;;;;;;;;
2261.0;2199.4;;;;-1.3258897;1.2588845;0.24664691;;;;;;;;;;;;;;;
2263.0;2203.8;;;;;;;;;;;;;;;;;-89.45356;82.25883;-124.988556;;2110.4
2263.0;2203.8;;;;;;;;;;;;;;1.4413892;0.331431;-0.068666644;;;;;2110.4
2263.0;2203.8;;;;;;;;;;;;;;;;;-84.21964;67.10258;-124.988556;;2110.4
2263.0;2203.8;;;;;;;;;;;;;;1.434431;0.27283546;-0.042786952;;;;;2110.4
2263.0;2203.8;;;;;;;;;;;;;;;;;-73.51909;48.707542;-124.988556;;2120.0
2263.0;2203.8;;;;;;;;;;;;;;1.4111758;0.29328287;-0.10608234;;;;;2120.0
2263.0;2203.8;;;;;;;;;;;;;;;;;-57.966095;23.808252;-124.988556;;2120.0
2263.0;2203.8;;;;;;;;;;;;;;1.4042786;0.31629384;-0.30286568;;;;;2120.0
2263.0;2203.8;;;;;;;;;;;;;;;;;-39.59395;0.23270364;-124.988556;;2129.6
2263.0;2203.8;;;;;;;;;;;;;;1.4948577;0.30103457;-0.5464034;;;;;2129.6
2263.0;2203.8;;;;;;;;;;;;;;;;;-22.026735;-5.916776;-123.40159;;2129.6
2263.0;2203.8;;;;;;;;;;;;;;1.6161382;0.24640645;-0.7014374;;;;;2129.6
2263.0;2203.8;;;;;;;;;;1.392407;108.4933;-53.00302;;;;;;;;;
2263.0;2203.8;;;;;;;0.7503891;-1.2020631;0.092593156;;;;;;;;;;;;
2263.0;2203.8;;;;;;;;;;0.3624073;115.52782;-54.87228;;;;;;;;;
2263.0;2203.8;;;;;;;0.7475204;-1.2165288;0.0761742;;;;;;;;;;;;
2263.0;2203.5;262143;262143;13016;;;;;;;;;;;;;;;;;;
2263.0;2209.1;;;;;;;;;;;;;7477;;;;;;;;
2263.0;2209.1;;;;;;;;;;;;;7634;;;;;;;;
2263.0;2209.1;;;;;;;;;;;;;7740;;;;;;;;
2263.0;2209.1;;;;;;;;;;;;;8000;;;;;;;;
2263.0;2209.1;;;;;;;;;;;;;8199;;;;;;;;
2264.0;2209.4;;;;-1.3115846;1.2516366;0.26405337;;;;;;;;;;;;;;;
2264.0;2209.4;;;;-1.2972261;1.2454797;0.28178027;;;;;;;;;;;;;;;
2264.0;2209.4;;;;-1.2806741;1.2384416;0.29965976;;;;;;;;;;;;;;;
2264.0;2209.4;;;;-1.2636491;1.2312585;0.3175049;;;;;;;;;;;;;;;
2264.0;2209.4;;;;-1.2463876;1.2235528;0.33393863;;;;;;;;;;;;;;;
2264.0;2213.4;;;;;;;;;;-0.5874813;122.30674;-56.29139;;;;;;;;;
2264.0;2213.4;;;;;;;0.743553;-1.2297739;0.059755243;;;;;;;;;;;;
2264.0;2213.4;;;;;;;;;;-1.1787775;124.82452;-57.40913;;;;;;;;;
2264.0;2213.4;;;;;;;0.72981966;-1.2385021;0.042481765;;;;;;;;;;;;
2264.0;2218.4;;;;;;;;;;;;;;;;;-7.5418863;8.857997;-118.37749;;2139.3
2264.0;2218.4;;;;;;;;;;;;;;1.683401;0.22931609;-0.6707358;;;;;2139.3
2264.0;2218.4;;;;;;;;;;;;;;;;;2.7542956;27.26829;-113.864555;;2139.3
2264.0;2218.4;;;;;;;;;;;;;;1.6804101;0.23352763;-0.5757012;;;;;2139.3
2264.0;2218.4;;;;;;;;;;;;;;;;;14.004181;37.63695;-113.914154;;2148.9
2264.0;2218.4;;;;;;;;;;;;;;1.6281625;0.26819667;-0.48951688;;;;;2148.9
2264.0;2218.4;;;;;;;;;;;;;;;;;27.043215;38.83099;-119.0489;;2148.9
2264.0;2218.4;;;;;;;;;;;;;;1.5914181;0.33112583;-0.43720818;;;;;2148.9
2264.0;2218.4;;;;;;;;;;;;;;;;;42.54662;37.453842;-124.176;;2158.5
2264.0;2218.4;;;;;;;;;;;;;;1.5513169;0.42115542;-0.41096225;;;;;2158.5
2264.0;2218.4;;;;;;;;;;;;;;;;;57.870724;39.155247;-124.988556;;2158.5
2264.0;2218.4;;;;;;;;;;;;;;1.4930265;0.5195471;-0.35755485;;;;;2158.5
2317.0;2219.3;;;;-1.2321016;1.215912;0.34972385;;;;;;;;;;;;;;;
2317.0;2219.3;;;;-1.2206079;1.2087861;0.36409763;;;;;;;;;;;;;;;
2317.0;2219.3;;;;-1.2097245;1.199608;0.37725455;;;;;;;;;;;;;;;
2317.0;2219.3;;;;-1.1989099;1.188183;0.3899346;;;;;;;;;;;;;;;
2317.0;2219.3;;;;-1.1879998;1.1763955;0.40035635;;;;;;;;;;;;;;;
2317.0;2222.8;;;;;;;;;;-1.2321848;124.881744;-58.08817;;;;;;;;;
2317.0;2222.8;;;;;;;0.70870084;-1.2413709;0.024903104;;;;;;;;;;;;
2317.0;2222.8;;;;;;;;;;-0.96133304;124.881744;-58.915985;;;;;;;;;
2317.0;2222.8;;;;;;;0.67690057;-1.2459487;0.010742515;;;;;;;;;;;;
2317.0;2223.4;262143;262143;13018;;;;;;;;;;;;;;;;;;
2317.0;2229.2;;;;-1.1777116;1.1636316;0.41070944;;;;;;;;;;;;;;;
2317.0;2229.2;;;;-1.167389;1.1484491;0.4192658;;;;;;;;;;;;;;;
2317.0;2229.2;;;;-1.1569406;1.1318475;0.4272843;;;;;;;;;;;;;;;
2317.0;2229.2;;;;-1.1468354;1.1146966;0.43288046;;;;;;;;;;;;;;;
2317.0;2229.2;;;;-1.1369897;1.0984765;0.4368897;;;;;;;;;;;;;;;
2317.0;2232.0;;;;;;;;;;-0.56840724;124.881744;-59.755245;;;;;;;;;
2317.0;2232.0;;;;;;;0.6457717;-1.2457045;-0.0056764428;;;;;;;;;;;;
2317.0;2232.0;;;;;;;;;;-0.23270364;124.881744;-59.675133;;;;;;;;;
2317.0;2232.0;;;;;;;0.6107364;-1.2459487;-0.01556444;;;;;;;;;;;;
2319.0;2239.1;;;;-1.1281244;1.08387;0.43947226;;;;;;;;;;;;;;;
2319.0;2239.1;;;;-1.117901;1.0693895;0.44005972;;;;;;;;;;;;;;;
2319.0;2239.1;;;;-1.1057168;1.0541574;0.44665533;;;;;;;;;;;;;;;
2319.0;2239.1;;;;-1.0938073;1.0375329;0.44590765;;;;;;;;;;;;;;;
2319.0;2239.1;;;;-1.0813295;1.0191957;0.44496924;;;;;;;;;;;;;;;
2319.0;2241.6;;;;;;;;;;0.24414808;124.881744;-60.003204;;;;;;;;;
2319.0;2241.6;;;;;;;0.5811335;-1.2459487;-0.025818659;;;;;;;;;;;;
2319.0;2241.6;;;;;;;;;;0.5645924;124.881744;-60.2092;;;;;;;;;
2319.0;2241.6;;;;;;;0.5483566;-1.2524186;-0.03070162;;;;;;;;;;;;
2319.0;2243.2;262143;262143;13011;;;;;;;;;;;;;;;;;;
2319.0;2249.0;;;;;;;;;;;;;8166;;;;;;;;
2319.0;2249.0;;;;;;;;;;;;;7977;;;;;;;;
2319.0;2249.0;;;;;;;;;;;;;7709;;;;;;;;
2319.0;2249.0;;;;;;;;;;;;;7024;;;;;;;;
2319.0;2249.0;;;;;;;;;;;;;5932;;;;;;;;
2319.0;2249.2;;;;-1.066929;0.99927914;0.44214636;;;;;;;;;;;;;;;
2319.0;2249.2;;;;-1.0524064;0.98017514;0.43794638;;;;;;;;;;;;;;;
2319.0;2249.2;;;;-1.0351602;0.9599267;0.43598944;;;;;;;;;;;;;;;
2319.0;2249.2;;;;-1.018509;0.9392663;0.43335348;;;;;;;;;;;;;;;
2319.0;2249.2;;;;-1.0017778;0.9186975;0.4304734;;;;;;;;;;;;;;;
2319.0;2251.3;;;;;;;;;;1.1902219;124.881744;-60.95309;;;;;;;;;
2319.0;2251.3;;;;;;;0.5167394;-1.2558978;-0.033082064;;;;;;;;;;;;
2319.0;2251.3;;;;;;;;;;2.311777;124.881744;-61.700794;;;;;;;;;
2319.0;2251.3;;;;;;;0.48384044;-1.2612079;-0.037171546;;;;;;;;;;;;
2322.0;2259.3;;;;-0.98635495;0.8998147;0.42773443;;;;;;;;;;;;;;;
2322.0;2259.3;;;;-0.9725381;0.8820497;0.42413718;;;;;;;;;;;;;;;
2322.0;2259.3;;;;-0.9595338;0.86428845;0.42168814;;;;;;;;;;;;;;;
2322.0;2259.3;;;;-0.9448625;0.84651196;0.41870123;;;;;;;;;;;;;;;
2322.0;2259.3;;;;-0.9295312;0.82973874;0.4173966;;;;;;;;;;;;;;;
2322.0;2260.9;;;;;;;;;;3.8224432;124.881744;-63.19239;;;;;;;;;
2322.0;2260.9;;;;;;;0.45185706;-1.2615131;-0.03747673;;;;;;;;;;;;
2322.0;2260.9;;;;;;;;;;5.6611834;124.881744;-64.57717;;;;;;;;;
2322.0;2260.9;;;;;;;0.41834772;-1.2587664;-0.03503525;;;;;;;;;;;;
2322.0;2263.4;;;;;;;;;;;;;;;;;71.58116;42.725914;-124.988556;;2168.1
2322.0;2263.4;;;;;;;;;;;;;;1.3960387;0.5406049;-0.30182806;;;;;2168.1
2322.0;2263.4;;;;;;;;;;;;;;;;;81.53783;47.27317;-124.988556;;2168.1
2322.0;2263.4;;;;;;;;;;;;;;1.2757958;0.56642354;-0.24353771;;;;;2168.1
2322.0;2263.4;;;;;;;;;;;;;;;;;86.56194;48.028503;-124.988556;;2177.8
2322.0;2263.4;;;;;;;;;;;;;;1.1587268;0.6032899;-0.18640706;;;;;2177.8
2322.0;2263.4;;;;;;;;;;;;;;;;;86.97775;46.151615;-124.988556;;2177.8
2322.0;2263.4;;;;;;;;;;;;;;1.101413;0.6366161;-0.15332499;;;;;2177.8
2322.0;2263.4;;;;;;;;;;;;;;;;;84.24253;46.30802;-124.86648;;2187.5
2322.0;2263.4;;;;;;;;;;;;;;1.063631;0.6861171;-0.100161746;;;;;2187.5
2322.0;2263.4;;;;;;;;;;;;;;;;;78.474525;48.21543;-121.79937;;2187.5
2322.0;2263.4;;;;;;;;;;;;;;1.0242012;0.6952727;-0.038331248;;;;;2187.5
2322.0;2263.4;262143;262143;13005;;;;;;;;;;;;;;;;;;
2323.0;2269.3;;;;-0.9169923;0.81144345;0.4135552;;;;;;;;;;;;;;;
2323.0;2269.3;;;;-0.9049951;0.79311;0.40975958;;;;;;;;;;;;;;;
2323.0;2269.3;;;;-0.89325345;0.77468884;0.4065438;;;;;;;;;;;;;;;
2323.0;2269.3;;;;-0.8819696;0.75652707;0.40242392;;;;;;;;;;;;;;;
2323.0;2269.3;;;;-0.87462246;0.74177176;0.39845282;;;;;;;;;;;;;;;
2323.0;2270.4;;;;;;;;;;7.992035;124.881744;-66.09547;;;;;;;;;
2323.0;2270.4;;;;;;;0.38593706;-1.2493668;-0.03320414;;;;;;;;;;;;
2323.0;2270.4;;;;;;;;;;10.769219;124.881744;-67.78161;;;;;;;;;
2323.0;2270.4;;;;;;;0.36127812;-1.2359385;-0.030823695;;;;;;;;;;;;
2323.0;2278.4;;;;;;;;;;;;;;;;;70.7915;49.378952;-113.734856;;2197.1
2323.0;2278.4;;;;;;;;;;;;;;0.9620655;0.69454026;0.047608875;;;;;2197.1
2323.0;2278.4;;;;;;;;;;;;;;;;;61.670277;44.19462;-103.35856;;2197.1
