patientId;holterMac;flexMac;;;;;;;;;;;;;;;;;;;;
;CA:F3:0B:1E:33:78;D3:4A:5C:52:80:78;;;;;;;;;;;;;;;;;;;;
receivedTimeStamp;timeStamp;red;ir;green;adxl_accX;adxl_accY;adxl_accZ;lsm_accelX;lsm_accelY;lsm_accelZ;lsm_gyroX;lsm_gyroY;lsm_gyroZ;ecg;flex_lsm_accelX;flex_lsm_accelY;flex_lsm_accelZ;flex_lsm_gyroX;flex_lsm_gyroY;flex_lsm_gyroZ;flex_cmd;flexTimeStamp
263.0;218.9;;;;;;;;;;;;;;;;;;;;17;0.1
263.0;218.9;;;;;;;;;;;;;;;;;13.61507;0.48066652;1.5869625;;127.6
263.0;218.9;;;;;;;;;;;;;;0.04119999;0.9195227;-0.30286568;;;;;127.6
263.0;218.9;;;;;;;;;;;;;;;;;-5.3292947;-17.77703;-6.637776;;127.6
263.0;218.9;;;;;;;;;;;;;;0.04174932;0.939787;-0.31092256;;;;;127.6
263.0;218.9;;;;;;;;;;;;;;;;;-64.20713;-84.29594;-61.593983;;137.2
263.0;218.9;;;;;;;;;;;;;;0.026795251;0.93527025;-0.31073946;;;;;137.2
263.0;218.9;;;;;;;;;;;;;;;;;-122.18848;-124.988556;-120.01404;;137.2
263.0;218.9;;;;;;;;;;;;;;0.015930662;0.93490404;-0.31025118;;;;;137.2
323.0;219.7;;;;;;;;;;;;;;;;;-59.21354;-124.18745;-77.24616;;146.8
323.0;219.7;;;;;;;;;;;;;;0.00286874;0.9336833;-0.3086642;;;;;146.8
323.0;219.7;;;;;;;;;;;;;;;;;6.023591;-120.616776;-29.232918;;146.8
323.0;219.7;;;;;;;;;;;;;;-0.01208533;0.93826103;-0.3098239;;;;;146.8
323.0;219.7;;;;;;;;;;;;;;;;;1.575518;-84.16242;-20.855587;;156.4
323.0;219.7;;;;;;;;;;;;;;-0.03302103;0.9376507;-0.30579546;;;;;156.4
323.0;219.7;;;;;;;;;;;;;;;;;-5.3140354;11.230811;3.8377025;;156.4
323.0;219.7;;;;;;;;;;;;;;-0.048402358;0.9355144;-0.3073214;;;;;156.4
323.0;219.7;;;;;;;;;;;;;;;;;-6.614887;19.230476;5.6001463;;166.0
323.0;219.7;;;;;;;;;;;;;;-0.07397687;0.9292886;-0.31153294;;;;;166.0
323.0;219.7;;;;;;;;;;;;;;;;;-6.2562943;19.554733;5.4971466;;166.0
323.0;219.7;;;;;;;;;;;;;;-0.106631674;0.93478197;-0.3094577;;;;;166.0
323.0;279.1;;;;;;;;;;;;;;;;;-6.576739;20.088808;5.394147;;175.7
323.0;279.1;;;;;;;;;;;;;;-0.13110752;0.92934966;-0.29737237;;;;;175.7
323.0;279.1;;;;;;;;;;;;;;;;;-7.3664055;20.069735;4.772332;;175.7
323.0;279.1;;;;;;;;;;;;;;-0.15338603;0.9176916;-0.2936491;;;;;175.7
323.0;279.1;;;;;;;;;;;;;;;;;-8.239998;20.279549;3.8605914;;185.3
323.0;279.1;;;;;;;;;;;;;;-0.17590868;0.90499586;-0.29261148;;;;;185.3
323.0;279.1;;;;;;;;;;;;;;;;;-8.964812;20.207067;2.990814;;185.3
323.0;279.1;;;;;;;;;;;;;;-0.1939146;0.89077425;-0.30262154;;;;;185.3
323.0;279.1;;;;;;;;;;;;;;;;;-8.548997;20.027771;2.0409255;;194.8
323.0;279.1;;;;;;;;;;;;;;-0.20954008;0.8791162;-0.31452376;;;;;194.8
323.0;279.1;;;;;;;;;;;;;;;;;-7.316813;19.371624;1.1139256;;194.8
323.0;279.1;;;;;;;;;;;;;;-0.22437209;0.8777123;-0.31891844;;;;;194.8
448.0;279.9;;;;;;;;;;;;;;;;;-7.0345163;18.295847;0.5760369;;204.4
448.0;279.9;;;;;;;;;;;;;;-0.24018067;0.8757591;-0.31177709;;;;;204.4
448.0;279.9;;;;;;;;;;;;;;;;;-6.6072574;16.460922;0.14877774;;204.4
448.0;279.9;;;;;;;;;;;;;;-0.25006866;0.8763085;-0.29474777;;;;;204.4
448.0;279.9;;;;;;;;;;;;;;;;;-6.122776;15.007477;-0.07248146;;214.1
448.0;279.9;;;;;;;;;;;;;;-0.25965148;0.88003176;-0.27710807;;;;;214.1
448.0;279.9;;;;;;;;;;;;;;;;;-5.962554;14.347514;-0.8163701;;214.1
448.0;279.9;;;;;;;;;;;;;;-0.27118748;0.8814356;-0.26575518;;;;;214.1
448.0;279.9;;;;;;;;;;;;;;;;;-5.5047765;14.484848;-1.247444;;223.8
448.0;279.9;;;;;;;;;;;;;;-0.2738731;0.8827174;-0.26673177;;;;;223.8
448.0;279.9;;;;;;;;;;;;;;;;;-5.3140354;15.930662;-2.2049623;;223.8
448.0;279.9;;;;;;;;;;;;;;-0.27692497;0.89272743;-0.2725303;;;;;223.8
448.0;347.1;;;;;;;;;;;;;;;;;-5.2911468;17.323069;-2.8725548;;233.4
448.0;347.1;;;;;;;;;;;;;;-0.2793054;0.8984649;-0.28717917;;;;;233.4
448.0;347.1;;;;;;;;;;;;;;;;;-4.7647023;18.150883;-3.5897398;;233.4
448.0;347.1;;;;;;;;;;;;;;-0.28186896;0.90298164;-0.30359814;;;;;233.4
448.0;347.1;;;;;;;;;;;;;;;;;-3.8758507;17.960142;-4.036073;;243.0
448.0;347.1;;;;;;;;;;;;;;-0.28266242;0.9099399;-0.31562242;;;;;243.0
448.0;347.1;;;;;;;;;;;;;;;;;-3.3074436;16.544847;-4.5587025;;243.0
448.0;347.1;;;;;;;;;;;;;;-0.28138065;0.91671497;-0.32490006;;;;;243.0
448.0;347.1;;;;;;;;;;;;;;;;;-2.4491103;13.851588;-4.6998506;;252.7
448.0;347.1;;;;;;;;;;;;;;-0.27423933;0.9251381;-0.3263039;;;;;252.7
448.0;347.1;;;;;;;;;;;;;;;;;-1.7509995;9.8155155;-4.1962953;;252.7
448.0;347.1;;;;;;;;;;;;;;-0.26453444;0.93093663;-0.32941678;;;;;252.7
450.0;407.5;;;;;;;;;;;;;;;;;-1.0223701;4.634999;-3.9674063;;262.3
450.0;407.5;;;;;;;;;;;;;;-0.24701682;0.9340495;-0.32831812;;;;;262.3
450.0;407.5;;;;;;;;;;;;;;;;;-0.8354442;-0.5188147;-3.872036;;262.3
450.0;407.5;;;;;;;;;;;;;;-0.23218483;0.93960387;-0.32428968;;;;;262.3
450.0;407.5;;;;;;;;;;;;;;;;;-0.38148138;-5.077517;-4.1314435;;271.8
450.0;407.5;;;;;;;;;;;;;;-0.21509446;0.94912565;-0.32697532;;;;;271.8
450.0;407.5;;;;;;;;;;;;;;;;;0.3357036;-7.9081087;-4.2687764;;271.8
450.0;407.5;;;;;;;;;;;;;;-0.20441298;0.9652394;-0.33729056;;;;;271.8
450.0;407.5;;;;;;;;;;;;;;;;;1.5831476;-9.243294;-4.5396285;;281.4
450.0;407.5;;;;;;;;;;;;;;-0.20386365;0.99795526;-0.34601885;;;;;281.4
450.0;407.5;;;;;;;;;;;;;;;;;1.3161107;-8.426924;-5.1919613;;281.4
450.0;407.5;;;;;;;;;;;;;;-0.21497238;1.0315256;-0.34846035;;;;;281.4
450.0;408.2;;;;;;;;;;;;;;;;;-1.3580737;-5.1004057;-7.06122;;291.1
450.0;408.2;;;;;;;;;;;;;;-0.24115726;1.0559404;-0.34900966;;;;;291.1
450.0;408.2;;;;;;;;;;;;;;;;;-4.951628;0.6256294;-9.784997;;291.1
450.0;408.2;;;;;;;;;;;;;;-0.2837611;1.0688803;-0.3665273;;;;;291.1
450.0;408.2;;;;;;;;;;;;;;;;;-8.350628;8.1331835;-12.924589;;300.7
450.0;408.2;;;;;;;;;;;;;;-0.34382153;1.0698569;-0.38282418;;;;;300.7
450.0;408.2;;;;;;;;;;;;;;;;;-11.577959;15.324106;-16.758478;;300.7
450.0;408.2;;;;;;;;;;;;;;-0.40876493;1.0572222;-0.40552995;;;;;300.7
450.0;408.2;;;;;;;;;;;;;;;;;-14.091922;21.29429;-20.836512;;310.3
450.0;408.2;;;;;;;;;;;;;;-0.4804834;1.0413526;-0.4092532;;;;;310.3
450.0;408.2;;;;;;;;;;;;;;;;;-16.781366;25.58977;-25.139622;;310.3
450.0;408.2;;;;;;;;;;;;;;-0.54847866;1.0172429;-0.40382093;;;;;310.3
508.0;409.4;;;;;;;;;;;;;;;;;-19.760735;29.023104;-30.106508;;320.0
508.0;409.4;;;;;;;;;;;;;;-0.6065249;0.9938658;-0.3834956;;;;;320.0
508.0;409.4;;;;;;;;;;;;;;;;;-23.0224;32.353436;-35.550247;;320.0
508.0;409.4;;;;;;;;;;;;;;-0.66731775;0.974395;-0.36298716;;;;;320.0
508.0;409.4;;;;;;;;;;;;;;;;;-25.971252;36.24073;-41.421246;;329.5
508.0;409.4;;;;;;;;;;;;;;-0.7286599;0.9647511;-0.3501694;;;;;329.5
508.0;409.4;;;;;;;;;;;;;;;;;-28.798029;41.066467;-47.242653;;329.5
508.0;409.4;;;;;;;;;;;;;;-0.78096867;0.9624317;-0.34186834;;;;;329.5
508.0;409.4;;;;;;;;;;;;;;;;;-31.33488;45.709095;-53.209023;;339.2
508.0;409.4;;;;;;;;;;;;;;-0.8422498;0.96786404;-0.32959992;;;;;339.2
508.0;409.4;;;;;;;;;;;;;;;;;-33.406326;48.963135;-58.96176;;339.2
508.0;409.4;;;;;;;;;;;;;;-0.90029603;0.98873866;-0.3126316;;;;;339.2
508.0;460.2;;;;;;;;;;;;;;;;;-34.928432;50.64165;-64.83658;;348.8
508.0;460.2;;;;;;;;;;;;;;-0.9651784;1.0126652;-0.28382215;;;;;348.8
508.0;460.2;;;;;;;;;;;;;;;;;-36.06143;51.484726;-72.12286;;348.8
508.0;460.2;;;;;;;;;;;;;;-1.0329294;1.0376904;-0.2517777;;;;;348.8
508.0;460.2;;;;;;;;;;;;;;;;;-36.729027;53.5638;-80.63753;;358.5
508.0;460.2;;;;;;;;;;;;;;-1.1023285;1.0739464;-0.21613209;;;;;358.5
508.0;460.2;;;;;;;;;;;;;;;;;-39.029358;58.008057;-90.52934;;358.5
508.0;460.2;;;;;;;;;;;;;;-1.1702628;1.0922575;-0.16956083;;;;;358.5
508.0;460.2;;;;;;;;;;;;;;;;;-43.469803;69.94079;-107.19245;;368.2
508.0;460.2;;;;;;;;;;;;;;-1.2073122;1.1138645;-0.1469161;;;;;368.2
508.0;460.2;;;;;;;;;;;;;;;;;-48.814358;94.65316;-122.93237;;368.2
508.0;460.2;;;;;;;;;;;;;;-1.2665181;1.1483505;-0.0380871;;;;;368.2
568.0;461.0;;;;;;;;;;;;;;;;;-53.19758;118.20963;-124.988556;;377.6
568.0;461.0;;;;;;;;;;;;;;-1.3901181;1.1498764;0.088137455;;;;;377.6
568.0;461.0;;;;;;;;;;;;;;;;;-47.135838;123.50078;-124.988556;;377.6
568.0;461.0;;;;;;;;;;;;;;-1.5244606;1.1216162;0.25830868;;;;;377.6
568.0;461.0;;;;;;;;;;;;;;;;;-35.16495;106.563;-124.988556;;387.2
568.0;461.0;;;;;;;;;;;;;;-1.4980927;1.1487777;0.29157385;;;;;387.2
568.0;461.0;;;;;;;;;;;;;;;;;-25.917845;78.25327;-124.988556;;387.2
568.0;461.0;;;;;;;;;;;;;;-1.3907285;1.190344;0.29425946;;;;;387.2
568.0;461.0;;;;;;;;;;;;;;;;;-23.480179;60.2855;-124.988556;;396.9
568.0;461.0;;;;;;;;;;;;;;-1.2435071;1.2527238;0.22644734;;;;;396.9
568.0;461.0;;;;;;;;;;;;;;;;;-26.69988;47.719505;-124.988556;;396.9
568.0;461.0;;;;;;;;;;;;;;-1.1249733;1.2412488;0.09912412;;;;;396.9
568.0;520.6;;;;;;;;;;;;;;;;;-23.159733;29.721214;-124.988556;;406.5
568.0;520.6;;;;;;;;;;;;;;-1.1355327;1.27134;-0.033326212;;;;;406.5
568.0;520.6;;;;;;;;;;;;;;;;;-12.447737;10.662404;-124.988556;;406.5
568.0;520.6;;;;;;;;;;;;;;-1.0081484;1.3569139;-0.0971099;;;;;406.5
568.0;520.6;;;;;;;;;;;;;;;;;-6.2295904;-3.933073;-124.988556;;416.2
568.0;520.6;;;;;;;;;;;;;;-0.79964596;1.4449904;-0.100711085;;;;;416.2
568.0;520.6;;;;;;;;;;;;;;;;;-2.9564807;-12.6117735;-124.988556;;416.2
568.0;520.6;;;;;;;;;;;;;;-0.5857723;1.4678183;-0.12329478;;;;;416.2
568.0;520.6;;;;;;;;;;;;;;;;;2.578814;-18.936735;-124.988556;;425.8
568.0;520.6;;;;;;;;;;;;;;-0.42188787;1.452559;-0.19202246;;;;;425.8
568.0;520.6;;;;;;;;;;;;;;;;;13.111515;-23.762474;-124.988556;;425.8
568.0;520.6;;;;;;;;;;;;;;-0.3284402;1.4385204;-0.25281534;;;;;425.8
625.0;521.8;;;;;;;;;;;;;;;;;27.298807;-28.969696;-124.988556;;435.2
625.0;521.8;;;;;;;;;;;;;;-0.24231696;1.4451735;-0.35419783;;;;;435.2
625.0;521.8;;;;;;;;;;;;;;;;;45.74343;-36.221657;-124.988556;;435.2
625.0;521.8;;;;;;;;;;;;;;-0.14331493;1.4603717;-0.44544816;;;;;435.2
625.0;521.8;;;;;;;;;;;;;;;;;61.4185;-47.99417;-124.988556;;444.9
625.0;521.8;;;;;;;;;;;;;;-0.03320414;1.4811243;-0.55348366;;;;;444.9
625.0;521.8;;;;;;;;;;;;;;;;;75.51424;-64.63821;-124.46974;;444.9
625.0;521.8;;;;;;;;;;;;;;0.062440872;1.520188;-0.6440016;;;;;444.9
625.0;521.8;;;;;;;;;;;;;;;;;84.696495;-80.93509;-117.75567;;454.5
625.0;521.8;;;;;;;;;;;;;;0.21955016;1.5666372;-0.7348857;;;;;454.5
625.0;521.8;;;;;;;;;;;;;;;;;82.51442;-78.08542;-98.04453;;454.5
625.0;521.8;;;;;;;;;;;;;;0.382519;1.5897702;-0.88393813;;;;;454.5
625.0;535.5;;;;;;;;;;;;;;;;;100.15411;-69.30372;-64.4055;;464.2
625.0;535.5;;;;;;;;;;;;;;0.36347544;1.6500747;-0.8734397;;;;;464.2
625.0;535.5;;;;;;;;;;;;;;;;;122.44408;-78.196045;-33.64666;;464.2
625.0;535.5;;;;;;;;;;;;;;0.44898832;1.6689962;-0.89223915;;;;;464.2
625.0;535.5;;;;;;;;;;;;;;;;;120.281075;-72.01224;-25.570696;;473.8
625.0;535.5;;;;;;;;;;;;;;0.5360271;1.6519059;-0.8833277;;;;;473.8
625.0;535.5;;;;;;;;;;;;;;;;;94.96216;-49.66506;-31.292915;;473.8
625.0;535.5;;;;;;;;;;;;;;0.5564135;1.526719;-0.90524;;;;;473.8
625.0;535.5;;;;;;;;;;;;;;;;;67.30095;-8.747368;-46.44154;;483.4
625.0;535.5;;;;;;;;;;;;;;0.6103702;1.4101382;-1.0486159;;;;;483.4
625.0;535.5;;;;;;;;;;;;;;;;;63.440353;48.524433;-70.82964;;483.4
625.0;535.5;;;;;;;;;;;;;;0.6445509;1.3274331;-0.9978332;;;;;483.4
685.0;580.9;;;;;;;;;;;;;;;;;52.919098;99.67345;-106.10142;;492.8
685.0;580.9;;;;;;;;;;;;;;0.64247566;1.2180548;-0.91433454;;;;;492.8
685.0;580.9;;;;;;;;;;;;;;;;;35.538803;121.99393;-124.10733;;492.8
685.0;580.9;;;;;;;;;;;;;;0.56788844;1.0882901;-0.89657277;;;;;492.8
685.0;580.9;;;;;;;;;;;;;;;;;26.829586;121.70782;-124.988556;;502.4
685.0;580.9;;;;;;;;;;;;;;0.4513077;0.9967345;-0.91634876;;;;;502.4
685.0;580.9;;;;;;;;;;;;;;;;;28.630177;114.21552;-124.988556;;502.4
685.0;580.9;;;;;;;;;;;;;;0.18213446;1.0118717;-0.90359205;;;;;502.4
685.0;580.9;;;;;;;;;;;;;;;;;38.888214;100.76449;-124.988556;;512.0
685.0;580.9;;;;;;;;;;;;;;-0.15527818;1.1750237;-0.5544603;;;;;512.0
685.0;580.9;;;;;;;;;;;;;;;;;33.471176;77.05924;-124.988556;;512.0
685.0;580.9;;;;;;;;;;;;;;0.020447401;0.7884762;-0.873928;;;;;512.0
685.0;595.8;;;;;;;;;;;;;;;;;84.81475;81.24409;-124.988556;;521.7
685.0;595.8;;;;;;;;;;;;;;-0.10077212;0.7322611;-0.93099767;;;;;521.7
685.0;595.8;;;;;;;;;;;;;;;;;119.92248;92.26127;-124.988556;;521.7
685.0;595.8;;;;;;;;;;;;;;-0.11633656;1.2496109;-0.48646504;;;;;521.7
685.0;595.8;;;;;;;;;;;;;;;;;74.072235;90.857414;-124.988556;;531.4
685.0;595.8;;;;;;;;;;;;;;-0.16101566;1.5142064;-0.35041353;;;;;531.4
685.0;595.8;;;;;;;;;;;;;;;;;14.442884;89.94186;-124.988556;;531.4
685.0;595.8;;;;;;;;;;;;;;-0.20130008;1.5148168;-0.31977293;;;;;531.4
685.0;595.8;;;;;;;;;;;;;;;;;-25.746178;92.75338;-124.988556;;541.0
685.0;595.8;;;;;;;;;;;;;;-0.24182867;1.4034852;-0.11236915;;;;;541.0
685.0;595.8;;;;;;;;;;;;;;;;;-51.51906;85.22675;-124.988556;;541.0
685.0;595.8;;;;;;;;;;;;;;-0.38227484;1.1197852;-0.41340372;;;;;541.0
751.0;641.1;;;;;;;;;;;;;;;;;1.5793328;64.54283;-124.988556;;550.7
751.0;641.1;;;;;;;;;;;;;;-0.5960875;1.1732535;-0.38837856;;;;;550.7
751.0;641.1;;;;;;;;;;;;;;;;;48.703728;2.8572955;-124.988556;;550.7
751.0;641.1;;;;;;;;;;;;;;-0.610126;1.22837;-0.48780787;;;;;550.7
751.0;641.1;;;;;;;;;;;;;;;;;51.263466;-57.596058;-124.988556;;560.3
751.0;641.1;;;;;;;;;;;;;;-0.53083897;1.2358165;-0.7396466;;;;;560.3
751.0;641.1;;;;;;;;;;;;;;;;;44.312874;-92.61223;-124.988556;;560.3
751.0;641.1;;;;;;;;;;;;;;-0.6603595;1.2167119;-0.7487411;;;;;560.3
751.0;641.1;;;;;;;;;;;;;;;;;35.191654;-121.303444;-124.96948;;569.9
751.0;641.1;;;;;;;;;;;;;;-0.6868496;1.1923581;-0.85995054;;;;;569.9
751.0;641.1;;;;;;;;;;;;;;;;;25.101473;-119.01456;-123.931854;;569.9
751.0;641.1;;;;;;;;;;;;;;-0.66292304;1.1661123;-0.7760857;;;;;569.9
751.0;656.6;;;;;;;;;;;;;;;;;9.975738;-105.05234;-117.679375;;579.5
751.0;656.6;;;;;;;;;;;;;;-0.50556964;1.1769158;-0.6140324;;;;;579.5
751.0;656.6;;;;;;;;;;;;;;;;;5.9739985;-95.336006;-103.83541;;579.5
751.0;656.6;;;;;;;;;;;;;;-0.32355723;1.1039766;-0.5361492;;;;;579.5
751.0;656.6;;;;;;;;;;;;;;;;;15.045625;-90.14786;-93.44005;;589.2
751.0;656.6;;;;;;;;;;;;;;-0.23090304;1.0412916;-0.47132787;;;;;589.2
751.0;656.6;;;;;;;;;;;;;;;;;23.945585;-86.37883;-85.25727;;589.2
751.0;656.6;;;;;;;;;;;;;;-0.13293862;0.984344;-0.42725915;;;;;589.2
751.0;656.6;;;;;;;;;;;;;;;;;23.289438;-77.47505;-78.55464;;598.9
751.0;656.6;;;;;;;;;;;;;;-0.08581805;0.93630785;-0.37568286;;;;;598.9
751.0;656.6;;;;;;;;;;;;;;;;;20.790735;-69.792015;-72.115234;;598.9
751.0;656.6;;;;;;;;;;;;;;-0.0695822;0.9046907;-0.2652669;;;;;598.9
806.0;701.5;;;;;;;;;;;;;;;;;20.04303;-67.86935;-67.60232;;608.4
806.0;701.5;;;;;;;;;;;;;;-0.073000275;0.890347;-0.17194128;;;;;608.4
806.0;701.5;;;;;;;;;;;;;;;;;23.682364;-66.461685;-62.74987;;608.4
806.0;701.5;;;;;;;;;;;;;;-0.1037019;0.8840602;-0.098025456;;;;;608.4
806.0;701.5;;;;;;;;;;;;;;;;;28.389843;-67.79687;-59.167763;;618.0
806.0;701.5;;;;;;;;;;;;;;-0.12836085;0.855739;-0.07000946;;;;;618.0
806.0;701.5;;;;;;;;;;;;;;;;;34.49736;-71.905426;-56.134983;;618.0
806.0;701.5;;;;;;;;;;;;;;-0.12750633;0.8105106;-0.08471938;;;;;618.0
806.0;701.5;;;;;;;;;;;;;;;;;40.787987;-77.501755;-54.368725;;627.6
806.0;701.5;;;;;;;;;;;;;;-0.11847285;0.7876217;-0.117984556;;;;;627.6
806.0;701.5;;;;;;;;;;;;;;;;;45.903652;-81.423386;-50.405132;;627.6
806.0;701.5;;;;;;;;;;;;;;-0.10754723;0.73268837;-0.14319284;;;;;627.6
806.0;708.9;;;;;;;;;;;;;;;;;50.42039;-86.07746;-47.776726;;637.3
806.0;708.9;;;;;;;;;;;;;;-0.09753716;0.69057286;-0.16272469;;;;;637.3
806.0;708.9;;;;;;;;;;;;;;;;;52.808468;-91.414375;-44.728687;;637.3
806.0;708.9;;;;;;;;;;;;;;-0.07739494;0.6573077;-0.17914365;;;;;637.3
806.0;708.9;;;;;;;;;;;;;;;;;54.059727;-94.59975;-41.898098;;646.9
806.0;708.9;;;;;;;;;;;;;;-0.07562487;0.61183506;-0.20398572;;;;;646.9
806.0;708.9;;;;;;;;;;;;;;;;;56.035797;-97.88049;-39.36506;;646.9
806.0;708.9;;;;;;;;;;;;;;-0.06408887;0.6110416;-0.19775994;;;;;646.9
806.0;708.9;;;;;;;;;;;;;;;;;58.606983;-100.70726;-35.714287;;656.6
806.0;708.9;;;;;;;;;;;;;;-0.042725913;0.6400342;-0.20416883;;;;;656.6
806.0;708.9;;;;;;;;;;;;;;;;;59.583576;-101.897484;-32.895138;;656.6
806.0;708.9;;;;;;;;;;;;;;-0.03814814;0.63814205;-0.1765801;;;;;656.6
868.0;762.2;;;;;;;;;;;;;;;;;59.495834;-102.694786;-30.880917;;666.2
868.0;762.2;;;;;;;;;;;;;;-0.02130192;0.6277657;-0.19000824;;;;;666.2
868.0;762.2;;;;;;;;;;;;;;;;;60.43809;-102.41248;-27.890102;;666.2
868.0;762.2;;;;;;;;;;;;;;0.007202368;0.67464215;-0.18884854;;;;;666.2
868.0;762.2;;;;;;;;;;;;;;;;;59.160133;-99.696335;-25.204473;;675.8
868.0;762.2;;;;;;;;;;;;;;0.06280709;0.6481521;-0.22467726;;;;;675.8
868.0;762.2;;;;;;;;;;;;;;;;;59.41954;-96.09135;-22.232733;;675.8
868.0;762.2;;;;;;;;;;;;;;0.07940916;0.6493728;-0.19367047;;;;;675.8
868.0;762.2;;;;;;;;;;;;;;;;;56.566055;-92.978455;-19.730215;;685.5
868.0;762.2;;;;;;;;;;;;;;0.073427536;0.6604816;-0.18073061;;;;;685.5
868.0;762.2;;;;;;;;;;;;;;;;;52.51091;-85.53194;-17.998291;;685.5
868.0;762.2;;;;;;;;;;;;;;0.05999939;0.63686025;-0.18256173;;;;;685.5
868.0;769.6;;;;;;;;;;;;;;;;;50.08087;-76.5595;-16.415144;;695.2
868.0;769.6;;;;;;;;;;;;;;0.051637318;0.6483352;-0.16467787;;;;;695.2
868.0;769.6;;;;;;;;;;;;;;;;;45.003357;-69.742424;-14.667959;;695.2
868.0;769.6;;;;;;;;;;;;;;-0.0043336283;0.66158026;-0.093264565;;;;;695.2
868.0;769.6;;;;;;;;;;;;;;;;;39.605392;-62.047943;-13.061922;;704.7
868.0;769.6;;;;;;;;;;;;;;-0.033082064;0.62514114;-0.15820795;;;;;704.7
868.0;769.6;;;;;;;;;;;;;;;;;38.403732;-53.3578;-11.852626;;704.7
868.0;769.6;;;;;;;;;;;;;;-0.069887385;0.6171453;-0.18347728;;;;;704.7
868.0;769.6;;;;;;;;;;;;;;;;;35.683765;-44.07636;-11.787774;;714.3
868.0;769.6;;;;;;;;;;;;;;-0.083803825;0.5717338;-0.24201179;;;;;714.3
868.0;769.6;;;;;;;;;;;;;;;;;34.8941;-34.49736;-11.368145;;714.3
868.0;769.6;;;;;;;;;;;;;;-0.112125;0.5735649;-0.28601947;;;;;714.3
929.0;829.7;;;;;;;;;;;;;;;;;34.77584;-24.609364;-11.318552;;723.9
929.0;829.7;;;;;;;;;;;;;;-0.13611256;0.517777;-0.34382153;;;;;723.9
929.0;829.7;;;;;;;;;;;;;;;;;35.191654;-18.150883;-10.612812;;723.9
929.0;829.7;;;;;;;;;;;;;;-0.15033418;0.49366742;-0.37507248;;;;;723.9
929.0;829.7;;;;;;;;;;;;;;;;;35.24888;-11.57033;-10.196997;;733.6
929.0;829.7;;;;;;;;;;;;;;-0.17596972;0.45558032;-0.38398388;;;;;733.6
929.0;829.7;;;;;;;;;;;;;;;;;35.435802;-5.954924;-9.262368;;733.6
929.0;829.7;;;;;;;;;;;;;;-0.14801477;0.44727927;-0.34894863;;;;;733.6
929.0;829.7;;;;;;;;;;;;;;;;;30.575731;-0.6599628;-8.102665;;743.1
929.0;829.7;;;;;;;;;;;;;;-0.18140203;0.44007692;-0.32569355;;;;;743.1
929.0;829.7;;;;;;;;;;;;;;;;;25.418102;2.8496659;-6.9544053;;743.1
929.0;829.7;;;;;;;;;;;;;;-0.1521653;0.42854092;-0.3192236;;;;;743.1
929.0;830.5;;;;;;;;;;;;;;;;;22.041994;9.853663;-6.0121465;;752.8
929.0;830.5;;;;;;;;;;;;;;-0.17175817;0.4189581;-0.31318095;;;;;752.8
929.0;830.5;;;;;;;;;;;;;;;;;21.862698;17.021698;-6.0388503;;752.8
929.0;830.5;;;;;;;;;;;;;;-0.16260262;0.410596;-0.35560167;;;;;752.8
929.0;830.5;;;;;;;;;;;;;;;;;23.369549;23.991364;-6.2067018;;762.5
929.0;830.5;;;;;;;;;;;;;;-0.18127994;0.39844966;-0.39747307;;;;;762.5
929.0;830.5;;;;;;;;;;;;;;;;;25.017548;28.965881;-6.5462203;;762.5
929.0;830.5;;;;;;;;;;;;;;-0.21558276;0.38789025;-0.44514298;;;;;762.5
929.0;830.5;;;;;;;;;;;;;;;;;29.240547;33.139286;-5.691702;;772.0
929.0;830.5;;;;;;;;;;;;;;-0.26435134;0.36561173;-0.46107364;;;;;772.0
929.0;830.5;;;;;;;;;;;;;;;;;32.48314;32.963806;-5.077517;;772.0
929.0;830.5;;;;;;;;;;;;;;-0.30262154;0.36909086;-0.45478684;;;;;772.0
987.0;890.0;;;;;;;;;;;;;;;;;34.257027;29.148993;-3.299814;;781.7
987.0;890.0;;;;;;;;;;;;;;-0.33167517;0.37818536;-0.44026002;;;;;781.7
987.0;890.0;;;;;;;;;;;;;;;;;35.10773;23.461103;-1.0414442;;781.7
987.0;890.0;;;;;;;;;;;;;;-0.3556627;0.3986938;-0.39973143;;;;;781.7
987.0;890.0;;;;;;;;;;;;;;;;;35.973694;16.857662;1.9569995;;791.4
987.0;890.0;;;;;;;;;;;;;;-0.3881344;0.4223762;-0.36793116;;;;;791.4
987.0;890.0;;;;;;;;;;;;;;;;;36.557358;11.066774;5.645924;;791.4
987.0;890.0;;;;;;;;;;;;;;-0.42976165;0.45527512;-0.34913176;;;;;791.4
987.0;890.0;;;;;;;;;;;;;;;;;37.07236;6.6949983;9.918515;;801.1
987.0;890.0;;;;;;;;;;;;;;-0.479812;0.4956206;-0.33259073;;;;;801.1
987.0;890.0;;;;;;;;;;;;;;;;;38.1901;3.624073;14.5535145;;801.1
987.0;890.0;;;;;;;;;;;;;;-0.5368206;0.53456223;-0.3128147;;;;;801.1
987.0;890.8;;;;;;;;;;;;;;;;;38.6021;1.22837;19.432661;;810.7
987.0;890.8;;;;;;;;;;;;;;-0.58540606;0.5644093;-0.30524614;;;;;810.7
987.0;890.8;;;;;;;;;;;;;;;;;39.613026;-0.9765923;24.796288;;810.7
987.0;890.8;;;;;;;;;;;;;;-0.61958677;0.60206914;-0.28931546;;;;;810.7
987.0;890.8;;;;;;;;;;;;;;;;;39.330727;-3.8262582;30.056915;;820.4
987.0;890.8;;;;;;;;;;;;;;-0.626545;0.62172306;-0.2791223;;;;;820.4
987.0;890.8;;;;;;;;;;;;;;;;;40.162357;-7.827998;35.878323;;820.4
987.0;890.8;;;;;;;;;;;;;;-0.62715536;0.6523026;-0.29126865;;;;;820.4
987.0;890.8;;;;;;;;;;;;;;;;;40.42558;-10.517442;41.83325;;830.1
987.0;890.8;;;;;;;;;;;;;;-0.63222146;0.66853845;-0.30158392;;;;;830.1
987.0;890.8;;;;;;;;;;;;;;;;;40.45991;-13.950773;48.18873;;830.1
987.0;890.8;;;;;;;;;;;;;;-0.63814205;0.70363474;-0.32093266;;;;;830.1
1050.0;943.0;;;;;;;;;;;;;;;;;39.99832;-16.586811;55.18128;;839.6
1050.0;943.0;;;;;;;;;;;;;;-0.63399154;0.74513996;-0.33039337;;;;;839.6
1050.0;943.0;;;;;;;;;;;;;;;;;38.430435;-20.748772;62.20054;;839.6
1050.0;943.0;;;;;;;;;;;;;;-0.6187933;0.771691;-0.32587665;;;;;839.6
1050.0;943.0;;;;;;;;;;;;;;;;;37.541584;-28.424177;69.54787;;849.1
1050.0;943.0;;;;;;;;;;;;;;-0.5438398;0.7818842;-0.35425887;;;;;849.1
1050.0;943.0;;;;;;;;;;;;;;;;;39.052246;-36.324657;77.806946;;849.1
1050.0;943.0;;;;;;;;;;;;;;-0.43079928;0.79622793;-0.39765617;;;;;849.1
1050.0;943.0;;;;;;;;;;;;;;;;;39.69695;-44.259468;87.14561;;858.6
1050.0;943.0;;;;;;;;;;;;;;-0.3477279;0.8366344;-0.4212775;;;;;858.6
1050.0;943.0;;;;;;;;;;;;;;;;;35.75625;-48.7228;96.08372;;858.6
1050.0;943.0;;;;;;;;;;;;;;-0.25098422;0.88174075;-0.44801173;;;;;858.6
1050.0;943.9;;;;;;;;;;;;;;;;;28.557695;-50.22202;102.202675;;868.2
1050.0;943.9;;;;;;;;;;;;;;-0.19299905;0.811243;-0.4828028;;;;;868.2
1050.0;943.9;;;;;;;;;;;;;;;;;22.51503;-46.99469;107.14286;;868.2
1050.0;943.9;;;;;;;;;;;;;;-0.12384411;0.77480394;-0.45411542;;;;;868.2
1050.0;943.9;;;;;;;;;;;;;;;;;24.098179;-44.64858;112.59041;;877.9
1050.0;943.9;;;;;;;;;;;;;;-0.030579546;0.7639393;-0.47285378;;;;;877.9
1050.0;943.9;;;;;;;;;;;;;;;;;33.37962;-43.05399;118.44997;;877.9
1050.0;943.9;;;;;;;;;;;;;;0.051271096;0.74550617;-0.38917205;;;;;877.9
1050.0;943.9;;;;;;;;;;;;;;;;;34.51262;-47.37617;123.63429;;887.6
1050.0;943.9;;;;;;;;;;;;;;0.17096469;0.7685171;-0.3451033;;;;;887.6
1050.0;943.9;;;;;;;;;;;;;;;;;29.999695;-50.389874;124.988556;;887.6
1050.0;943.9;;;;;;;;;;;;;;0.24390393;0.8005005;-0.21259193;;;;;887.6
1108.0;1003.1;;;;;;;;;;;;;;;;;14.43144;-57.222206;124.988556;;897.3
1108.0;1003.1;;;;;;;;;;;;;;0.26551104;0.79171115;-0.13611256;;;;;897.3
1108.0;1003.1;;;;;;;;;;;;;;;;;-2.666555;-56.936092;124.988556;;897.3
1108.0;1003.1;;;;;;;;;;;;;;0.21082187;0.72127444;-0.21893978;;;;;897.3
1108.0;1003.1;;;;;;;;;;;;;;;;;-6.6072574;-39.10565;124.988556;;906.6
1108.0;1003.1;;;;;;;;;;;;;;0.044007692;0.6715293;-0.3590808;;;;;906.6
1108.0;1003.1;;;;;;;;;;;;;;;;;6.145665;-17.654957;122.49367;;906.6
1108.0;1003.1;;;;;;;;;;;;;;-0.2550737;0.6187323;-0.50691247;;;;;906.6
1108.0;1003.1;;;;;;;;;;;;;;;;;37.549213;-8.983886;107.16956;;916.2
1108.0;1003.1;;;;;;;;;;;;;;-0.4513077;0.61812186;-0.7878048;;;;;916.2
1108.0;1003.1;;;;;;;;;;;;;;;;;87.324905;2.1629994;86.95868;;916.2
1108.0;1003.1;;;;;;;;;;;;;;-0.6151921;0.6833705;-1.1265602;;;;;916.2
1108.0;1004.0;;;;;;;;;;;;;;;;;122.528;26.219215;66.85843;;925.9
1108.0;1004.0;;;;;;;;;;;;;;-0.6827601;0.81771296;-1.3274941;;;;;925.9
1108.0;1004.0;;;;;;;;;;;;;;;;;124.988556;46.521652;57.668537;;925.9
1108.0;1004.0;;;;;;;;;;;;;;-0.79549545;1.0166326;-1.1735587;;;;;925.9
1108.0;1004.0;;;;;;;;;;;;;;;;;117.023224;40.337837;71.62694;;935.5
1108.0;1004.0;;;;;;;;;;;;;;-0.8027589;1.2750633;-0.94698936;;;;;935.5
1108.0;1004.0;;;;;;;;;;;;;;;;;52.667316;27.298807;99.38352;;935.5
1108.0;1004.0;;;;;;;;;;;;;;-0.7918332;1.581225;-0.6126286;;;;;935.5
1108.0;1004.0;;;;;;;;;;;;;;;;;-39.28495;8.720664;108.87479;;945.2
1108.0;1004.0;;;;;;;;;;;;;;-0.7302469;1.7999817;-0.21601;;;;;945.2
1108.0;1004.0;;;;;;;;;;;;;;;;;-112.0983;-20.04303;97.67449;;945.2
1108.0;1004.0;;;;;;;;;;;;;;-0.74239326;1.8676107;-0.022644734;;;;;945.2
1168.0;1063.7;;;;;;;;;;;;;;;;;-121.860405;-53.537098;80.751976;;954.9
1168.0;1063.7;;;;;;;;;;;;;;-0.79531235;1.8124332;3.051851E-4;;;;;954.9
1168.0;1063.7;;;;;;;;;;;;;;;;;-80.889305;-66.86224;61.475723;;954.9
1168.0;1063.7;;;;;;;;;;;;;;-0.80239266;1.6598407;0.061891537;;;;;954.9
1168.0;1063.7;;;;;;;;;;;;;;;;;-30.041656;-59.354687;57.52739;;964.5
1168.0;1063.7;;;;;;;;;;;;;;-0.68813133;1.4015931;0.07446516;;;;;964.5
1168.0;1063.7;;;;;;;;;;;;;;;;;3.4218879;-58.210243;73.16813;;964.5
1168.0;1063.7;;;;;;;;;;;;;;-0.49684134;1.2093875;-0.2529374;;;;;964.5
1168.0;1063.7;;;;;;;;;;;;;;;;;37.99173;-45.62517;84.27305;;974.1
1168.0;1063.7;;;;;;;;;;;;;;-0.30689412;1.2117069;-0.46626177;;;;;974.1
1168.0;1063.7;;;;;;;;;;;;;;;;;46.212654;-26.169622;90.96423;;974.1
1168.0;1063.7;;;;;;;;;;;;;;-0.18012024;1.2407606;-0.48194832;;;;;974.1
1168.0;1064.5;;;;;;;;;;;;;;;;;15.293588;-17.16666;95.065155;;983.7
1168.0;1064.5;;;;;;;;;;;;;;-0.025330363;1.1615955;-0.4021119;;;;;983.7
1168.0;1064.5;;;;;;;;;;;;;;;;;-28.077028;-19.016848;101.752525;;983.7
1168.0;1064.5;;;;;;;;;;;;;;0.14654988;0.9594409;-0.31141087;;;;;983.7
1168.0;1064.5;;;;;;;;;;;;;;;;;-47.78054;-14.580218;107.34505;;993.4
1168.0;1064.5;;;;;;;;;;;;;;0.31977293;0.7819452;-0.22949919;;;;;993.4
1168.0;1064.5;;;;;;;;;;;;;;;;;-36.023285;0.74007386;110.98819;;993.4
1168.0;1064.5;;;;;;;;;;;;;;0.43665883;0.6837367;-0.20227668;;;;;993.4
1168.0;1064.5;;;;;;;;;;;;;;;;;-6.0998874;19.440292;117.62597;;1003.0
1168.0;1064.5;;;;;;;;;;;;;;0.46906948;0.63362527;-0.26752526;;;;;1003.0
1168.0;1064.5;;;;;;;;;;;;;;;;;15.034181;32.845547;118.343155;;1003.0
1168.0;1064.5;;;;;;;;;;;;;;0.4713889;0.61329997;-0.24494156;;;;;1003.0
1169.0;1123.6;;;;;;;;;;;;;;;;;19.138922;28.813288;111.20563;;1012.7
1169.0;1123.6;;;;;;;;;;;;;;0.46485794;0.54969937;-0.21228676;;;;;1012.7
1169.0;1123.6;;;;;;;;;;;;;;;;;13.985106;15.934477;91.89504;;1012.7
1169.0;1123.6;;;;;;;;;;;;;;0.35975218;0.56233406;-0.15533921;;;;;1012.7
1169.0;1123.6;;;;;;;;;;;;;;;;;7.7860346;5.409406;67.0301;;1022.4
1169.0;1123.6;;;;;;;;;;;;;;0.11835078;0.76528215;-0.074221015;;;;;1022.4
1169.0;1123.6;;;;;;;;;;;;;;;;;6.248665;0.19455549;58.187355;;1022.4
1169.0;1123.6;;;;;;;;;;;;;;-0.04260384;0.89767146;0.05963317;;;;;1022.4
1169.0;1123.6;;;;;;;;;;;;;;;;;-0.8659627;-0.8087405;58.64513;;1032.0
1169.0;1123.6;;;;;;;;;;;;;;-0.105838194;0.9433271;0.13043611;;;;;1032.0
1169.0;1123.6;;;;;;;;;;;;;;;;;-5.050813;1.8921475;60.65935;;1032.0
1169.0;1123.6;;;;;;;;;;;;;;-0.1469161;0.9578539;0.148381;;;;;1032.0
1170.0;1124.4;;;;;;;;;;;;;;;;;-0.22507401;5.6573687;62.841423;;1041.6
1170.0;1124.4;;;;;;;;;;;;;;-0.16382337;0.9797052;0.08105716;;;;;1041.6
1170.0;1124.4;;;;;;;;;;;;;;;;;11.112552;15.697958;66.461685;;1041.6
1170.0;1124.4;;;;;;;;;;;;;;-0.18921477;0.98495436;-0.07843257;;;;;1041.6
1170.0;1124.4;;;;;;;;;;;;;;;;;30.972471;27.554398;68.041016;;1051.3
1170.0;1124.4;;;;;;;;;;;;;;-0.1948912;1.040437;-0.2224189;;;;;1051.3
1170.0;1124.4;;;;;;;;;;;;;;;;;52.17902;35.142063;70.92883;;1051.3
1170.0;1124.4;;;;;;;;;;;;;;-0.1993469;1.1433455;-0.29865414;;;;;1051.3
1170.0;1124.4;;;;;;;;;;;;;;;;;61.700794;39.86099;76.33061;;1061.0
1170.0;1124.4;;;;;;;;;;;;;;-0.19104587;1.2818995;-0.32197028;;;;;1061.0
1170.0;1124.4;;;;;;;;;;;;;;;;;51.248207;45.00717;84.78423;;1061.0
1170.0;1124.4;;;;;;;;;;;;;;-0.17529832;1.3627735;-0.3576159;;;;;1061.0
1170.0;1126.9;;;;0.0;0.0;0.0;;;;;;;;;;;;;;;
1170.0;1126.9;;;;-0.032329563;0.4692307;0.016380312;;;;;;;;;;;;;;;
1170.0;1126.9;;;;-0.15218736;1.2907716;-0.04554749;;;;;;;;;;;;;;;
1170.0;1126.9;;;;-0.16231538;1.3111078;-0.060085304;;;;;;;;;;;;;;;
1170.0;1126.9;;;;-0.16249086;1.3108026;-0.060718544;;;;;;;;;;;;;;;
1170.0;1137.0;;;;-0.1636429;1.3095285;-0.06094361;;;;;;;;;;;;;;;
1170.0;1137.0;;;;-0.15961076;1.3088609;-0.060459144;;;;;;;;;;;;;;;
1170.0;1137.0;;;;-0.15665819;1.3070642;-0.059112556;;;;;;;;;;;;;;;
1170.0;1137.0;;;;-0.15422441;1.3061754;-0.056755073;;;;;;;;;;;;;;;
1170.0;1137.0;;;;-0.14996721;1.3062936;-0.054092415;;;;;;;;;;;;;;;
1228.0;1138.2;57496;57514;9686;;;;;;;;;;;;;;;;;;
1228.0;1146.9;;;;-0.150486;1.3057901;-0.053874977;;;;;;;;;;;;;;;
1228.0;1146.9;;;;-0.149292;1.3060457;-0.051738746;;;;;;;;;;;;;;;
1228.0;1146.9;;;;-0.14836504;1.305359;-0.050537117;;;;;;;;;;;;;;;
1228.0;1146.9;;;;-0.14760591;1.304516;-0.05169297;;;;;;;;;;;;;;;
1228.0;1146.9;;;;-0.14658357;1.3043519;-0.05152131;;;;;;;;;;;;;;;
1228.0;1156.8;;;;-0.14759828;1.3037759;-0.052783974;;;;;;;;;;;;;;;
1228.0;1156.8;;;;-0.1475525;1.3045999;-0.05451966;;;;;;;;;;;;;;;
1228.0;1156.8;;;;-0.15222932;1.3035585;-0.059265144;;;;;;;;;;;;;;;
1228.0;1156.8;;;;-0.15618517;1.3055154;-0.06533433;;;;;;;;;;;;;;;
1228.0;1156.8;;;;-0.159256;1.3088266;-0.07097245;;;;;;;;;;;;;;;
1228.0;1158.1;73847;73893;9678;;;;;;;;;;;;;;;;;;
1228.0;1164.5;;;;;;;;;;;;;0;;;;;;;;
1228.0;1164.5;;;;;;;;;;;;;0;;;;;;;;
1228.0;1164.5;;;;;;;;;;;;;-1;;;;;;;;
1228.0;1164.5;;;;;;;;;;;;;-2;;;;;;;;
1228.0;1164.5;;;;;;;;;;;;;-2;;;;;;;;
1228.0;1166.9;;;;-0.16322328;1.3122293;-0.076026924;;;;;;;;;;;;;;;
1228.0;1166.9;;;;-0.16664888;1.3162729;-0.08114625;;;;;;;;;;;;;;;
1228.0;1166.9;;;;-0.1692505;1.3205606;-0.0853386;;;;;;;;;;;;;;;
1228.0;1166.9;;;;-0.17253114;1.3247453;-0.08719254;;;;;;;;;;;;;;;
1228.0;1166.9;;;;-0.18142702;1.3264848;-0.09040452;;;;;;;;;;;;;;;
1231.0;1177.0;;;;-0.19279483;1.325226;-0.095317855;;;;;;;;;;;;;;;
1231.0;1177.0;;;;-0.2022591;1.327839;-0.1000786;;;;;;;;;;;;;;;
1231.0;1177.0;;;;-0.21310809;1.3275033;-0.10647966;;;;;;;;;;;;;;;
1231.0;1177.0;;;;-0.22261432;1.3303376;-0.11090471;;;;;;;;;;;;;;;
1231.0;1177.0;;;;-0.22977069;1.3355066;-0.11662294;;;;;;;;;;;;;;;
1231.0;1178.4;90297;90231;9659;;;;;;;;;;;;;;;;;;
1231.0;1184.5;;;;;;;;;;;;;;;;;30.034027;50.447094;90.2356;;1070.6
1231.0;1184.5;;;;;;;;;;;;;;-0.14984588;1.3473312;-0.36567277;;;;;1070.6
1231.0;1184.5;;;;;;;;;;;;;;;;;10.612812;51.82043;89.64812;;1070.6
1231.0;1184.5;;;;;;;;;;;;;;-0.135197;1.3034456;-0.33967102;;;;;1070.6
1231.0;1184.5;;;;;;;;;;;;;;;;;-0.614185;49.61165;86.1385;;1080.3
1231.0;1184.5;;;;;;;;;;;;;;-0.11993774;1.2251961;-0.33130893;;;;;1080.3
1231.0;1184.5;;;;;;;;;;;;;;;;;-2.9335918;48.421432;80.1149;;1080.3
1231.0;1184.5;;;;;;;;;;;;;;-0.12543108;1.1677603;-0.2995697;;;;;1080.3
1231.0;1184.5;;;;;;;;;;;;;;;;;-1.7128513;45.4268;75.8385;;1089.7
1231.0;1184.5;;;;;;;;;;;;;;-0.09784234;1.172338;-0.2816248;;;;;1089.7
1231.0;1184.5;;;;;;;;;;;;;;;;;-2.4262216;45.75106;69.97131;;1089.7
1231.0;1184.5;;;;;;;;;;;;;;-0.100283824;1.2047486;-0.3045137;;;;;1089.7
1233.0;1185.7;;;;;;;;;;;;;;;;;0.095370345;48.200172;64.569534;;1099.3
1233.0;1185.7;;;;;;;;;;;;;;-0.12280648;1.2362437;-0.35670033;;;;;1099.3
1233.0;1185.7;;;;;;;;;;;;;;;;;4.9439983;49.35606;59.400467;;1099.3
1233.0;1185.7;;;;;;;;;;;;;;-0.16925566;1.2823877;-0.3912473;;;;;1099.3
1233.0;1185.7;;;;;;;;;;;;;;;;;4.3832207;47.910244;55.11643;;1109.0
1233.0;1185.7;;;;;;;;;;;;;;-0.20728172;1.2957549;-0.44990388;;;;;1109.0
1233.0;1185.7;;;;;;;;;;;;;;;;;-1.8578143;44.91943;52.62917;;1109.0
1233.0;1185.7;;;;;;;;;;;;;;-0.20636617;1.2468642;-0.46821496;;;;;1109.0
1233.0;1185.7;;;;;;;;;;;;;;;;;-16.197699;39.719837;50.897243;;1118.6
1233.0;1185.7;;;;;;;;;;;;;;-0.18079165;1.1635487;-0.46327096;;;;;1118.6
1233.0;1185.7;;;;;;;;;;;;;;;;;-28.881954;34.26084;49.264507;;1118.6
1233.0;1185.7;;;;;;;;;;;;;;-0.15771966;1.0855434;-0.43415633;;;;;1118.6
1233.0;1186.9;;;;-0.231926;1.3423654;-0.12239458;;;;;;;;;;;;;;;
1233.0;1186.9;;;;-0.23812488;1.3471032;-0.12670518;;;;;;;;;;;;;;;
1233.0;1186.9;;;;-0.24499133;1.3514253;-0.12948991;;;;;;;;;;;;;;;
1233.0;1186.9;;;;-0.25057986;1.3532373;-0.13161851;;;;;;;;;;;;;;;
1233.0;1186.9;;;;-0.25820926;1.354767;-0.13427736;;;;;;;;;;;;;;;
1233.0;1196.9;;;;-0.25802997;1.3621255;-0.1376114;;;;;;;;;;;;;;;
1233.0;1196.9;;;;-0.26160434;1.3631021;-0.14254762;;;;;;;;;;;;;;;
1233.0;1196.9;;;;-0.26703647;1.361107;-0.14628221;;;;;;;;;;;;;;;
1233.0;1196.9;;;;-0.2689133;1.35944;-0.1482506;;;;;;;;;;;;;;;
1233.0;1196.9;;;;-0.27288058;1.3592798;-0.15100862;;;;;;;;;;;;;;;
1233.0;1198.2;106583;106565;9632;;;;;;;;;;;;;;;;;;
1287.0;1204.6;;;;;;;;;;;;;-9;;;;;;;;
1287.0;1204.6;;;;;;;;;;;;;-3;;;;;;;;
1287.0;1204.6;;;;;;;;;;;;;-3;;;;;;;;
1287.0;1204.6;;;;;;;;;;;;;-32;;;;;;;;
1287.0;1204.6;;;;;;;;;;;;;-12;;;;;;;;
1287.0;1206.9;;;;-0.27450565;1.3562585;-0.1530533;;;;;;;;;;;;;;;
1287.0;1206.9;;;;-0.27020648;1.3617746;-0.15631486;;;;;;;;;;;;;;;
1287.0;1206.9;;;;-0.2787476;1.350319;-0.16215898;;;;;;;;;;;;;;;
1287.0;1206.9;;;;-0.2911339;1.3327142;-0.16505052;;;;;;;;;;;;;;;
1287.0;1206.9;;;;-0.2932358;1.3206941;-0.16977312;;;;;;;;;;;;;;;
1287.0;1216.8;;;;-0.29134753;1.324505;-0.17624284;;;;;;;;;;;;;;;
1287.0;1216.8;;;;-0.2906151;1.320839;-0.1869011;;;;;;;;;;;;;;;
1287.0;1216.8;;;;-0.29077914;1.3257142;-0.19272235;;;;;;;;;;;;;;;
1287.0;1216.8;;;;-0.28524783;1.3328096;-0.20235065;;;;;;;;;;;;;;;
1287.0;1216.8;;;;-0.2840729;1.3362161;-0.21282962;;;;;;;;;;;;;;;
1287.0;1218.2;122969;123088;9611;;;;;;;;;;;;;;;;;;
1287.0;1226.9;;;;-0.2804871;1.3384095;-0.22306064;;;;;;;;;;;;;;;
1287.0;1226.9;;;;-0.27769473;1.3397828;-0.235199;;;;;;;;;;;;;;;
1287.0;1226.9;;;;-0.2721863;1.3450624;-0.2469559;;;;;;;;;;;;;;;
1287.0;1226.9;;;;-0.25828174;1.3585893;-0.25929263;;;;;;;;;;;;;;;
1287.0;1226.9;;;;-0.24691775;1.354046;-0.27840808;;;;;;;;;;;;;;;
1349.0;1237.0;;;;-0.24174502;1.3465272;-0.28585437;;;;;;;;;;;;;;;
1349.0;1237.0;;;;-0.23276523;1.3459817;-0.29342654;;;;;;;;;;;;;;;
1349.0;1237.0;;;;-0.22594836;1.3497888;-0.30131915;;;;;;;;;;;;;;;
1349.0;1237.0;;;;-0.22639468;1.3415643;-0.31390002;;;;;;;;;;;;;;;
1349.0;1237.0;;;;-0.2154465;1.3489152;-0.3223;;;;;;;;;;;;;;;
1349.0;1238.5;139532;139358;9580;;;;;;;;;;;;;;;;;;
1349.0;1244.9;;;;;;;;;;;;;-65;;;;;;;;
1349.0;1244.9;;;;;;;;;;;;;-56;;;;;;;;
1349.0;1244.9;;;;;;;;;;;;;23;;;;;;;;
1349.0;1244.9;;;;;;;;;;;;;-303;;;;;;;;
1349.0;1244.9;;;;;;;;;;;;;71;;;;;;;;
1349.0;1247.1;;;;-0.21944812;1.3404809;-0.33609012;;;;;;;;;;;;;;;
1349.0;1247.1;;;;-0.22083667;1.3253251;-0.34998325;;;;;;;;;;;;;;;
1349.0;1247.1;;;;-0.21624759;1.3173143;-0.35881427;;;;;;;;;;;;;;;
1349.0;1247.1;;;;-0.21579745;1.3143655;-0.36605456;;;;;;;;;;;;;;;
1349.0;1247.1;;;;-0.21099856;1.3136293;-0.37532812;;;;;;;;;;;;;;;
1351.0;1252.4;;;;;;;;;;;;;;;;;-34.092987;30.667286;47.11295;;1128.3
1351.0;1252.4;;;;;;;;;;;;;;-0.12195197;1.0075381;-0.40540788;;;;;1128.3
1351.0;1252.4;;;;;;;;;;;;;;;;;-35.126804;31.083101;45.37721;;1128.3
1351.0;1252.4;;;;;;;;;;;;;;-0.107181005;0.9573046;-0.4156621;;;;;1128.3
1351.0;1252.4;;;;;;;;;;;;;;;;;-31.34251;33.974728;44.949947;;1137.9
1351.0;1252.4;;;;;;;;;;;;;;-0.09155553;0.9190344;-0.43122655;;;;;1137.9
1351.0;1252.4;;;;;;;;;;;;;;;;;-27.25303;36.73284;45.64806;;1137.9
1351.0;1252.4;;;;;;;;;;;;;;-0.08026368;0.88106936;-0.44984284;;;;;1137.9
1351.0;1252.4;;;;;;;;;;;;;;;;;-23.419142;37.598804;45.84643;;1147.5
1351.0;1252.4;;;;;;;;;;;;;;-0.07458724;0.84340954;-0.46943572;;;;;1147.5
1351.0;1252.4;;;;;;;;;;;;;;;;;-18.642994;37.46147;46.914577;;1147.5
1351.0;1252.4;;;;;;;;;;;;;;-0.07660146;0.82381666;-0.47810298;;;;;1147.5
1351.0;1253.2;;;;;;;;;;;;;;;;;-15.068514;37.125767;48.425247;;1157.0
1351.0;1253.2;;;;;;;;;;;;;;-0.07953124;0.803003;-0.49836725;;;;;1157.0
1351.0;1253.2;;;;;;;;;;;;;;;;;-11.482589;38.0871;49.81765;;1157.0
1351.0;1253.2;;;;;;;;;;;;;;-0.09753716;0.79732656;-0.51405376;;;;;1157.0
1351.0;1253.2;;;;;;;;;;;;;;;;;-7.7288127;39.220097;51.3245;;1166.7
1351.0;1253.2;;;;;;;;;;;;;;-0.10791345;0.7942137;-0.52424693;;;;;1166.7
1351.0;1253.2;;;;;;;;;;;;;;;;;-7.6601458;41.82562;53.041172;;1166.7
1351.0;1253.2;;;;;;;;;;;;;;-0.11481063;0.77083653;-0.5278481;;;;;1166.7
1351.0;1253.2;;;;;;;;;;;;;;;;;-8.033998;43.78262;53.567616;;1176.4
1351.0;1253.2;;;;;;;;;;;;;;-0.11468856;0.7487411;-0.5379192;;;;;1176.4
1351.0;1253.2;;;;;;;;;;;;;;;;;-5.954924;46.143986;54.532764;;1176.4
1351.0;1253.2;;;;;;;;;;;;;;-0.13379315;0.74532306;-0.5483566;;;;;1176.4
1353.0;1257.1;;;;-0.21277621;1.3087198;-0.38336188;;;;;;;;;;;;;;;
1353.0;1257.1;;;;-0.20953754;1.2982904;-0.3896485;;;;;;;;;;;;;;;
1353.0;1257.1;;;;-0.20442584;1.2849313;-0.39377218;;;;;;;;;;;;;;;
1353.0;1257.1;;;;-0.202652;1.2733155;-0.39443213;;;;;;;;;;;;;;;
1353.0;1257.1;;;;-0.20534137;1.2715875;-0.39643103;;;;;;;;;;;;;;;
1353.0;1258.5;155831;155745;9558;;;;;;;;;;;;;;;;;;
1353.0;1267.0;;;;-0.20724872;1.275158;-0.39825445;;;;;;;;;;;;;;;
1353.0;1267.0;;;;-0.2041283;1.2770921;-0.39911276;;;;;;;;;;;;;;;
1353.0;1267.0;;;;-0.21424106;1.2642633;-0.398655;;;;;;;;;;;;;;;
1353.0;1267.0;;;;-0.22119144;1.2519647;-0.39479452;;;;;;;;;;;;;;;
1353.0;1267.0;;;;-0.22560123;1.2394487;-0.38807684;;;;;;;;;;;;;;;
1353.0;1277.1;;;;-0.23274234;1.231579;-0.38023764;;;;;;;;;;;;;;;
1353.0;1277.1;;;;-0.24528888;1.2249719;-0.3732529;;;;;;;;;;;;;;;
1353.0;1277.1;;;;-0.25775912;1.2236215;-0.36636737;;;;;;;;;;;;;;;
1353.0;1277.1;;;;-0.2634087;1.2157785;-0.35920718;;;;;;;;;;;;;;;
1353.0;1277.1;;;;-0.27249148;1.2075235;-0.35155872;;;;;;;;;;;;;;;
1353.0;1278.8;172128;172199;9548;;;;;;;;;;;;;;;;;;
1353.0;1285.1;;;;;;;;;;;;;937;;;;;;;;
1353.0;1285.1;;;;;;;;;;;;;-318;;;;;;;;
1353.0;1285.1;;;;;;;;;;;;;-2108;;;;;;;;
1353.0;1285.1;;;;;;;;;;;;;1062;;;;;;;;
1353.0;1285.1;;;;;;;;;;;;;10733;;;;;;;;
1354.0;1287.3;;;;-0.29093173;1.1966707;-0.34236148;;;;;;;;;;;;;;;
1354.0;1287.3;;;;-0.29844669;1.1953965;-0.33422855;;;;;;;;;;;;;;;
1354.0;1287.3;;;;-0.30306247;1.1948587;-0.325676;;;;;;;;;;;;;;;
1354.0;1287.3;;;;-0.31557468;1.1932184;-0.31673053;;;;;;;;;;;;;;;
1354.0;1287.3;;;;-0.32428363;1.1960565;-0.30738834;;;;;;;;;;;;;;;
1354.0;1297.4;;;;-0.33369067;1.1970178;-0.2979088;;;;;;;;;;;;;;;
1354.0;1297.4;;;;-0.3507271;1.1887971;-0.2894478;;;;;;;;;;;;;;;
1354.0;1297.4;;;;-0.3601227;1.1945573;-0.27779773;;;;;;;;;;;;;;;
1354.0;1297.4;;;;-0.3626671;1.2022058;-0.26754382;;;;;;;;;;;;;;;
1354.0;1297.4;;;;-0.36701205;1.2046434;-0.26150134;;;;;;;;;;;;;;;
1354.0;1299.1;188497;188577;9527;;;;;;;;;;;;;;;;;;
1354.0;1304.3;;;;;;;;;;;;;;;;;-4.036073;47.990356;56.40965;;1186.0
1354.0;1304.3;;;;;;;;;;;;;;-0.15314189;0.7459334;-0.52174443;;;;;1186.0
1354.0;1304.3;;;;;;;;;;;;;;;;;-5.3025913;47.27317;57.489243;;1186.0
1354.0;1304.3;;;;;;;;;;;;;;-0.17194128;0.781518;-0.52772605;;;;;1186.0
1354.0;1304.3;;;;;;;;;;;;;;;;;-10.685293;46.87643;57.821133;;1195.7
1354.0;1304.3;;;;;;;;;;;;;;-0.18860438;0.7981201;-0.5047761;;;;;1195.7
1354.0;1304.3;;;;;;;;;;;;;;;;;-16.979734;45.793022;58.843502;;1195.7
1354.0;1304.3;;;;;;;;;;;;;;-0.2031312;0.80324715;-0.49043244;;;;;1195.7
1354.0;1304.3;;;;;;;;;;;;;;;;;-19.65392;45.274208;58.832058;;1205.4
1354.0;1304.3;;;;;;;;;;;;;;-0.19196142;0.8019654;-0.4644307;;;;;1205.4
1354.0;1304.3;;;;;;;;;;;;;;;;;-21.134068;46.056244;57.710503;;1205.4
1354.0;1304.3;;;;;;;;;;;;;;-0.2059389;0.82973725;-0.43989378;;;;;1205.4
1357.0;1305.5;;;;;;;;;;;;;;;;;-21.675772;45.583206;56.27613;;1214.8
1357.0;1305.5;;;;;;;;;;;;;;-0.21570483;0.8494522;-0.4443495;;;;;1214.8
1357.0;1305.5;;;;;;;;;;;;;;;;;-22.698141;45.41154;54.65484;;1214.8
1357.0;1305.5;;;;;;;;;;;;;;-0.22205268;0.87636954;-0.44782862;;;;;1214.8
1357.0;1305.5;;;;;;;;;;;;;;;;;-26.097141;44.248024;53.13654;;1224.4
1357.0;1305.5;;;;;;;;;;;;;;-0.21820734;0.86788535;-0.43342388;;;;;1224.4
1357.0;1305.5;;;;;;;;;;;;;;;;;-28.22199;40.684986;51.705986;;1224.4
1357.0;1305.5;;;;;;;;;;;;;;-0.20532854;0.88650167;-0.41016877;;;;;1224.4
1357.0;1305.5;;;;;;;;;;;;;;;;;-31.998657;37.717064;50.500504;;1234.1
1357.0;1305.5;;;;;;;;;;;;;;-0.18280587;0.893582;-0.37794122;;;;;1234.1
1357.0;1305.5;;;;;;;;;;;;;;;;;-34.947506;36.41621;48.150578;;1234.1
1357.0;1305.5;;;;;;;;;;;;;;-0.15149388;0.8661763;-0.4096805;;;;;1234.1
1357.0;1307.3;;;;-0.37664038;1.198002;-0.25309375;;;;;;;;;;;;;;;
1357.0;1307.3;;;;-0.38794333;1.1955682;-0.24481204;;;;;;;;;;;;;;;
1357.0;1307.3;;;;-0.3917809;1.1931802;-0.236393;;;;;;;;;;;;;;;
1357.0;1307.3;;;;-0.39786154;1.193638;-0.22788623;;;;;;;;;;;;;;;
1357.0;1307.3;;;;-0.39443976;1.1968614;-0.22208789;;;;;;;;;;;;;;;
1357.0;1317.4;;;;-0.39020926;1.2025033;-0.21600726;;;;;;;;;;;;;;;
1357.0;1317.4;;;;-0.40547568;1.1973268;-0.21018222;;;;;;;;;;;;;;;
1357.0;1317.4;;;;-0.42453772;1.1921045;-0.21216968;;;;;;;;;;;;;;;
1357.0;1317.4;;;;-0.43370444;1.1897928;-0.20413211;;;;;;;;;;;;;;;
1357.0;1317.4;;;;-0.4284554;1.200409;-0.19809344;;;;;;;;;;;;;;;
1406.0;1319.3;;;;;;;;;;;;;;;;;-29.91577;37.48436;46.64754;;1243.8
1406.0;1319.3;;;;;;;;;;;;;;-0.1274453;0.8484756;-0.456679;;;;;1243.8
1406.0;1319.3;;;;;;;;;;;;;;;;;-23.297068;37.99936;45.628986;;1243.8
1406.0;1319.3;;;;;;;;;;;;;;-0.10266427;0.8361461;-0.5180822;;;;;1243.8
1406.0;1319.3;;;;;;;;;;;;;;;;;-19.920956;37.995544;44.320503;;1253.4
1406.0;1319.3;;;;;;;;;;;;;;-0.07818842;0.8328501;-0.5641652;;;;;1253.4
1406.0;1319.3;;;;;;;;;;;;;;;;;-18.84518;36.324657;43.378246;;1253.4
1406.0;1319.3;;;;;;;;;;;;;;-0.047181617;0.8380993;-0.58949554;;;;;1253.4
1406.0;1319.3;;;;;;;;;;;;;;;;;-19.425032;34.337135;43.073063;;1263.1
1406.0;1319.3;;;;;;;;;;;;;;-0.01739555;0.8498184;-0.5834529;;;;;1263.1
1406.0;1319.3;;;;;;;;;;;;;;;;;-21.084475;32.73873;42.94336;;1263.1
1406.0;1319.3;;;;;;;;;;;;;;0.019837031;0.85006255;-0.56514174;;;;;1263.1
1406.0;1319.0;204997;204920;9528;;;;;;;;;;;;;;;;;;
1406.0;1325.2;;;;;;;;;;;;;20930;;;;;;;;
1406.0;1325.2;;;;;;;;;;;;;24571;;;;;;;;
1406.0;1325.2;;;;;;;;;;;;;21655;;;;;;;;
1406.0;1325.2;;;;;;;;;;;;;17736;;;;;;;;
1406.0;1325.2;;;;;;;;;;;;;16087;;;;;;;;
1406.0;1327.1;;;;-0.43378836;1.2069513;-0.19633105;;;;;;;;;;;;;;;
1406.0;1327.1;;;;-0.4302979;1.2137185;-0.19238666;;;;;;;;;;;;;;;
1406.0;1327.1;;;;-0.4244309;1.222973;-0.18478395;;;;;;;;;;;;;;;
1406.0;1327.1;;;;-0.41369253;1.2365953;-0.18351366;;;;;;;;;;;;;;;
1406.0;1327.1;;;;-0.4075852;1.2385103;-0.18128969;;;;;;;;;;;;;;;
1408.0;1337.2;;;;-0.37357333;1.2650453;-0.17612459;;;;;;;;;;;;;;;
1408.0;1337.2;;;;-0.369175;1.2709886;-0.18921283;;;;;;;;;;;;;;;
1408.0;1337.2;;;;-0.37938315;1.252205;-0.18082811;;;;;;;;;;;;;;;
1408.0;1337.2;;;;-0.37398532;1.2436906;-0.16672136;;;;;;;;;;;;;;;
1408.0;1337.2;;;;-0.3620148;1.2511026;-0.1682129;;;;;;;;;;;;;;;
1408.0;1338.9;221346;221323;9533;;;;;;;;;;;;;;;;;;
1408.0;1347.3;;;;-0.35647967;1.2542344;-0.17625429;;;;;;;;;;;;;;;
1408.0;1347.3;;;;-0.34176257;1.2528764;-0.16967012;;;;;;;;;;;;;;;
1408.0;1347.3;;;;-0.33312228;1.2516862;-0.16419221;;;;;;;;;;;;;;;
1408.0;1347.3;;;;-0.32995608;1.2452432;-0.16305543;;;;;;;;;;;;;;;
1408.0;1347.3;;;;-0.34076312;1.2345773;-0.15818025;;;;;;;;;;;;;;;
1408.0;1357.4;;;;-0.34019473;1.2319032;-0.15152742;;;;;;;;;;;;;;;
1408.0;1357.4;;;;-0.3381348;1.2314569;-0.14828874;;;;;;;;;;;;;;;
1408.0;1357.4;;;;-0.3410721;1.2319871;-0.14670564;;;;;;;;;;;;;;;
1408.0;1357.4;;;;-0.3465958;1.2203141;-0.141037;;;;;;;;;;;;;;;
1408.0;1357.4;;;;-0.354435;1.2131196;-0.13636018;;;;;;;;;;;;;;;
1408.0;1359.2;237709;237652;9576;;;;;;;;;;;;;;;;;;
1409.0;1364.5;;;;;;;;;;;;;;;;;-23.293253;31.85751;43.12647;;1272.6
1409.0;1364.5;;;;;;;;;;;;;;0.06756798;0.85714287;-0.5848567;;;;;1272.6
1409.0;1364.5;;;;;;;;;;;;;;;;;-22.778252;33.77255;44.2938;;1272.6
1409.0;1364.5;;;;;;;;;;;;;;0.097048864;0.86013365;-0.6070742;;;;;1272.6
1409.0;1364.5;;;;;;;;;;;;;;;;;-21.149328;35.397655;46.246986;;1282.1
1409.0;1364.5;;;;;;;;;;;;;;0.124881744;0.8753319;-0.6308786;;;;;1282.1
1409.0;1364.5;;;;;;;;;;;;;;;;;-20.04303;35.412914;50.107574;;1282.1
1409.0;1364.5;;;;;;;;;;;;;;0.1518601;0.9032868;-0.6405835;;;;;1282.1
1409.0;1364.5;;;;;;;;;;;;;;;;;-21.401106;33.917507;53.186134;;1291.8
1409.0;1364.5;;;;;;;;;;;;;;0.1826838;0.93563646;-0.6236152;;;;;1291.8
1409.0;1364.5;;;;;;;;;;;;;;;;;-26.058992;31.258583;55.433056;;1291.8
1409.0;1364.5;;;;;;;;;;;;;;0.1991638;0.9632252;-0.6294137;;;;;1291.8
1409.0;1365.4;;;;;;;;;;;;;14702;;;;;;;;
1409.0;1365.4;;;;;;;;;;;;;12428;;;;;;;;
1409.0;1365.4;;;;;;;;;;;;;10681;;;;;;;;
1409.0;1365.4;;;;;;;;;;;;;9316;;;;;;;;
1409.0;1365.4;;;;;;;;;;;;;8188;;;;;;;;
1409.0;1367.4;;;;-0.36172488;1.2112008;-0.13141252;;;;;;;;;;;;;;;
1409.0;1367.4;;;;-0.3694382;1.2071306;-0.12697603;;;;;;;;;;;;;;;
1409.0;1367.4;;;;-0.3751946;1.2018815;-0.12237169;;;;;;;;;;;;;;;
1409.0;1367.4;;;;-0.37855917;1.197445;-0.11741258;;;;;;;;;;;;;;;
1409.0;1367.4;;;;-0.3806954;1.1950074;-0.111690536;;;;;;;;;;;;;;;
1468.0;1377.5;;;;-0.38259894;1.1912843;-0.10797502;;;;;;;;;;;;;;;
1468.0;1377.5;;;;-0.38177878;1.1878167;-0.105266586;;;;;;;;;;;;;;;
1468.0;1377.5;;;;-0.38040167;1.1838685;-0.10223009;;;;;;;;;;;;;;;
1468.0;1377.5;;;;-0.37987906;1.180504;-0.09886171;;;;;;;;;;;;;;;
1468.0;1377.5;;;;-0.3783036;1.177334;-0.095203415;;;;;;;;;;;;;;;
1468.0;1379.6;;;;;;;;;;;;;;;;;-27.378918;30.175175;57.912685;;1301.5
1468.0;1379.6;;;;;;;;;;;;;;0.18756676;1.0026551;-0.6461379;;;;;1301.5
1468.0;1379.6;;;;;;;;;;;;;;;;;-27.34077;31.659138;59.51491;;1301.5
1468.0;1379.6;;;;;;;;;;;;;;0.16400647;1.0383618;-0.649556;;;;;1301.5
1468.0;1379.6;;;;;;;;;;;;;;;;;-28.008362;32.65099;62.15476;;1311.1
1468.0;1379.6;;;;;;;;;;;;;;0.12707907;1.0676595;-0.66060364;;;;;1311.1
1468.0;1379.6;;;;;;;;;;;;;;;;;-29.320658;33.5284;64.954834;;1311.1
1468.0;1379.6;;;;;;;;;;;;;;0.10058901;1.1107516;-0.6636555;;;;;1311.1
1468.0;1379.6;;;;;;;;;;;;;;;;;-34.653767;36.782433;65.8475;;1320.7
1468.0;1379.6;;;;;;;;;;;;;;0.030152287;1.1516465;-0.6308786;;;;;1320.7
1468.0;1379.6;;;;;;;;;;;;;;;;;-43.424026;38.384655;65.33632;;1320.7
1468.0;1379.6;;;;;;;;;;;;;;-0.04260384;1.167333;-0.5884579;;;;;1320.7
1468.0;1379.3;254027;254013;9608;;;;;;;;;;;;;;;;;;
1468.0;1387.2;;;;-0.3777619;1.1738778;-0.09323121;;;;;;;;;;;;;;;
1468.0;1387.2;;;;-0.37608343;1.168625;-0.08982087;;;;;;;;;;;;;;;
1468.0;1387.2;;;;-0.3691521;1.1632959;-0.08932496;;;;;;;;;;;;;;;
1468.0;1387.2;;;;-0.36444095;1.1580316;-0.08886338;;;;;;;;;;;;;;;
1468.0;1387.2;;;;-0.35821536;1.1520005;-0.0885048;;;;;;;;;;;;;;;
1528.0;1397.0;;;;-0.35337833;1.146351;-0.08743287;;;;;;;;;;;;;;;
1528.0;1397.0;;;;-0.34782794;1.1401025;-0.08329774;;;;;;;;;;;;;;;
1528.0;1397.0;;;;-0.34326938;1.1337434;-0.08277131;;;;;;;;;;;;;;;
1528.0;1397.0;;;;-0.3372765;1.1269456;-0.08292008;;;;;;;;;;;;;;;
1528.0;1397.0;;;;-0.33155444;1.1210176;-0.08320237;;;;;;;;;;;;;;;
1528.0;1398.9;258498;262143;9662;;;;;;;;;;;;;;;;;;
1528.0;1405.2;;;;;;;;;;;;;7856;;;;;;;;
1528.0;1405.2;;;;;;;;;;;;;8020;;;;;;;;
1528.0;1405.2;;;;;;;;;;;;;8227;;;;;;;;
1528.0;1405.2;;;;;;;;;;;;;8450;;;;;;;;
1528.0;1405.2;;;;;;;;;;;;;8929;;;;;;;;
1528.0;1407.1;;;;-0.32459643;1.1161462;-0.0845604;;;;;;;;;;;;;;;
1528.0;1407.1;;;;-0.31688693;1.1113855;-0.08771134;;;;;;;;;;;;;;;
1528.0;1407.1;;;;-0.310627;1.108658;-0.09054185;;;;;;;;;;;;;;;
1528.0;1407.1;;;;-0.30267337;1.1050798;-0.09604646;;;;;;;;;;;;;;;
1528.0;1407.1;;;;-0.29292682;1.1027299;-0.101318374;;;;;;;;;;;;;;;
1528.0;1417.2;;;;-0.2843819;1.0985528;-0.106548324;;;;;;;;;;;;;;;
1528.0;1417.2;;;;-0.27775195;1.0967714;-0.11002733;;;;;;;;;;;;;;;
1528.0;1417.2;;;;-0.27102283;1.0935441;-0.11421205;;;;;;;;;;;;;;;
1528.0;1417.2;;;;-0.2671509;1.091057;-0.119834915;;;;;;;;;;;;;;;
1528.0;1417.2;;;;-0.25853732;1.0859224;-0.12490083;;;;;;;;;;;;;;;
1528.0;1419.2;259175;262143;9682;;;;;;;;;;;;;;;;;;
1531.0;1427.3;;;;-0.25151446;1.0835153;-0.12911607;;;;;;;;;;;;;;;
1531.0;1427.3;;;;-0.24351504;1.0803796;-0.13432314;;;;;;;;;;;;;;;
1531.0;1427.3;;;;-0.23548892;1.075615;-0.13817216;;;;;;;;;;;;;;;
1531.0;1427.3;;;;-0.22500613;1.0694581;-0.1410637;;;;;;;;;;;;;;;
1531.0;1427.3;;;;-0.21436313;1.0638887;-0.14422609;;;;;;;;;;;;;;;
1531.0;1432.1;;;;;;;;;;;;;;;;;-55.265205;39.693134;64.27198;;1330.4
1531.0;1432.1;;;;;;;;;;;;;;-0.10541093;1.1450545;-0.5533616;;;;;1330.4
1531.0;1432.1;;;;;;;;;;;;;;;;;-64.24909;40.62395;62.35313;;1330.4
1531.0;1432.1;;;;;;;;;;;;;;-0.18506424;1.1249123;-0.51240575;;;;;1330.4
1531.0;1432.1;;;;;;;;;;;;;;;;;-68.29279;41.72262;59.385204;;1340.1
1531.0;1432.1;;;;;;;;;;;;;;-0.26673177;1.1090426;-0.4771264;;;;;1340.1
1531.0;1432.1;;;;;;;;;;;;;;;;;-69.292274;45.075836;55.124058;;1340.1
1531.0;1432.1;;;;;;;;;;;;;;-0.36072877;1.1256447;-0.42927337;;;;;1340.1
1531.0;1432.1;;;;;;;;;;;;;;;;;-68.384346;46.514023;51.927242;;1349.7
1531.0;1432.1;;;;;;;;;;;;;;-0.44380015;1.1488998;-0.3961913;;;;;1349.7
1531.0;1432.1;;;;;;;;;;;;;;;;;-68.55983;48.589283;49.06232;;1349.7
1531.0;1432.1;;;;;;;;;;;;;;-0.52687156;1.1680044;-0.36707664;;;;;1349.7
1531.0;1437.3;;;;-0.20557788;1.0572816;-0.14598848;;;;;;;;;;;;;;;
1531.0;1437.3;;;;-0.19799045;1.0524484;-0.14697267;;;;;;;;;;;;;;;
1531.0;1437.3;;;;-0.18906406;1.0461236;-0.14831163;;;;;;;;;;;;;;;
1531.0;1437.3;;;;-0.1803589;1.0384408;-0.14921953;;;;;;;;;;;;;;;
1531.0;1437.3;;;;-0.17202379;1.028721;-0.14978792;;;;;;;;;;;;;;;
1533.0;1439.6;;;;;;;;;;;;;;;;;-68.27372;49.81002;46.525467;;1359.3
1533.0;1439.6;;;;;;;;;;;;;;-0.6037782;1.1774651;-0.35193944;;;;;1359.3
1533.0;1439.6;;;;;;;;;;;;;;;;;-64.03165;48.65795;43.63384;;1359.3
1533.0;1439.6;;;;;;;;;;;;;;-0.67934203;1.1804559;-0.349559;;;;;1359.3
1533.0;1439.6;;;;;;;;;;;;;;;;;-59.30128;45.644245;39.6321;;1369.0
1533.0;1439.6;;;;;;;;;;;;;;-0.7499008;1.1726432;-0.35047457;;;;;1369.0
1533.0;1439.6;;;;;;;;;;;;;;;;;-55.410168;39.48332;37.671288;;1369.0
1533.0;1439.6;;;;;;;;;;;;;;-0.82992035;1.1638539;-0.3441267;;;;;1369.0
1533.0;1439.6;;;;;;;;;;;;;;;;;-52.926727;31.430248;40.09369;;1378.6
1533.0;1439.6;;;;;;;;;;;;;;-0.8655049;1.1076388;-0.35499132;;;;;1378.6
1533.0;1439.6;;;;;;;;;;;;;;;;;-50.874355;24.822992;39.193394;;1378.6
1533.0;1439.6;;;;;;;;;;;;;;-0.8737449;1.0565507;-0.35865352;;;;;1378.6
1533.0;1439.3;259642;262143;9697;;;;;;;;;;;;;;;;;;
1533.0;1445.4;;;;;;;;;;;;;9361;;;;;;;;
1533.0;1445.4;;;;;;;;;;;;;9429;;;;;;;;
1533.0;1445.4;;;;;;;;;;;;;9643;;;;;;;;
1533.0;1445.4;;;;;;;;;;;;;10308;;;;;;;;
1533.0;1445.4;;;;;;;;;;;;;10778;;;;;;;;
1533.0;1447.2;;;;-0.1648636;1.0174676;-0.14842607;;;;;;;;;;;;;;;
1533.0;1447.2;;;;-0.15743257;1.008854;-0.14546968;;;;;;;;;;;;;;;
1533.0;1447.2;;;;-0.15084077;0.99824536;-0.14406206;;;;;;;;;;;;;;;
1533.0;1447.2;;;;-0.1431122;0.98725903;-0.14286043;;;;;;;;;;;;;;;
1533.0;1447.2;;;;-0.13512804;0.97504056;-0.14154436;;;;;;;;;;;;;;;
1534.0;1457.1;;;;-0.12622072;0.96216977;-0.14034273;;;;;;;;;;;;;;;
1534.0;1457.1;;;;-0.11483003;0.94885266;-0.13793947;;;;;;;;;;;;;;;
1534.0;1457.1;;;;-0.10372545;0.93589413;-0.13490297;;;;;;;;;;;;;;;
1534.0;1457.1;;;;-0.09205247;0.92305005;-0.13122179;;;;;;;;;;;;;;;
1534.0;1457.1;;;;-0.08069611;0.9119798;-0.12718584;;;;;;;;;;;;;;;
1534.0;1459.1;259908;262143;9703;;;;;;;;;;;;;;;;;;
1534.0;1467.2;;;;-0.07023621;0.90151227;-0.12327959;;;;;;;;;;;;;;;
1534.0;1467.2;;;;-0.059730537;0.89231884;-0.11886598;;;;;;;;;;;;;;;
1534.0;1467.2;;;;-0.05001069;0.8846513;-0.114994064;;;;;;;;;;;;;;;
1534.0;1467.2;;;;-0.040435795;0.877823;-0.1106949;;;;;;;;;;;;;;;
1534.0;1467.2;;;;-0.031486515;0.8716394;-0.10745241;;;;;;;;;;;;;;;
1534.0;1477.3;;;;-0.021881105;0.86804974;-0.105152145;;;;;;;;;;;;;;;
1534.0;1477.3;;;;-0.0107536325;0.8644868;-0.10253526;;;;;;;;;;;;;;;
1534.0;1477.3;;;;8.468629E-4;0.8598329;-0.09883501;;;;;;;;;;;;;;;
1534.0;1477.3;;;;0.011913301;0.85746014;-0.096405044;;;;;;;;;;;;;;;
1534.0;1477.3;;;;0.024139408;0.8539163;-0.09485628;;;;;;;;;;;;;;;
1534.0;1479.4;259966;262143;9706;;;;;;;;;;;;;;;;;;
1536.0;1484.7;;;;;;;;;;;;;;;;;-47.12821;20.790735;36.11484;;1388.2
1536.0;1484.7;;;;;;;;;;;;;;-0.88393813;1.010712;-0.3599353;;;;;1388.2
1536.0;1484.7;;;;;;;;;;;;;;;;;-41.23432;19.768364;32.731102;;1388.2
1536.0;1484.7;;;;;;;;;;;;;;-0.89114046;0.97238076;-0.37110507;;;;;1388.2
1536.0;1484.7;;;;;;;;;;;;;;;;;-35.039062;20.226141;29.59151;;1397.8
1536.0;1484.7;;;;;;;;;;;;;;-0.89419234;0.9452803;-0.36463514;;;;;1397.8
1536.0;1484.7;;;;;;;;;;;;;;;;;-31.250954;19.87518;26.596882;;1397.8
1536.0;1484.7;;;;;;;;;;;;;;-0.88015383;0.91799676;-0.35193944;;;;;1397.8
1536.0;1484.7;;;;;;;;;;;;;;;;;-28.969696;21.217995;22.160252;;1407.4
1536.0;1484.7;;;;;;;;;;;;;;-0.85586107;0.88778347;-0.32129887;;;;;1407.4
1536.0;1484.7;;;;;;;;;;;;;;;;;-26.512955;23.327585;16.804255;;1407.4
1536.0;1484.7;;;;;;;;;;;;;;-0.8489029;0.8675802;-0.29609057;;;;;1407.4
1536.0;1485.6;;;;;;;;;;;;;10464;;;;;;;;
1536.0;1485.6;;;;;;;;;;;;;9879;;;;;;;;
1536.0;1485.6;;;;;;;;;;;;;9818;;;;;;;;
1536.0;1485.6;;;;;;;;;;;;;9872;;;;;;;;
1536.0;1485.6;;;;;;;;;;;;;8826;;;;;;;;
1536.0;1487.3;;;;0.033378605;0.8511239;-0.092758186;;;;;;;;;;;;;;;
1536.0;1487.3;;;;0.042392734;0.84811413;-0.08861161;;;;;;;;;;;;;;;
1536.0;1487.3;;;;0.052078255;0.84468853;-0.08148957;;;;;;;;;;;;;;;
1536.0;1487.3;;;;0.062667854;0.8416215;-0.07585145;;;;;;;;;;;;;;;
1536.0;1487.3;;;;0.073379524;0.8386804;-0.07241059;;;;;;;;;;;;;;;
1645.0;1492.2;;;;;;;;;;;;;;;;;-24.3614;26.287882;10.03296;;1417.0
1645.0;1492.2;;;;;;;;;;;;;;-0.9015168;0.8894314;-0.26435134;;;;;1417.0
1645.0;1492.2;;;;;;;;;;;;;;;;;-23.518326;28.290659;2.5559251;;1417.0
1645.0;1492.2;;;;;;;;;;;;;;-0.86770225;0.86739707;-0.23419905;;;;;1417.0
1645.0;1492.2;;;;;;;;;;;;;;;;;-24.48729;26.196325;-4.7418137;;1426.6
1645.0;1492.2;;;;;;;;;;;;;;-0.88552505;0.8395642;-0.24677266;;;;;1426.6
1645.0;1492.2;;;;;;;;;;;;;;;;;-21.710106;23.701437;-11.108737;;1426.6
1645.0;1492.2;;;;;;;;;;;;;;-0.8881497;0.8449355;-0.25745416;;;;;1426.6
1645.0;1492.2;;;;;;;;;;;;;;;;;-17.479475;20.935698;-17.674032;;1436.3
1645.0;1492.2;;;;;;;;;;;;;;-0.9096347;0.88369393;-0.25940734;;;;;1436.3
1645.0;1492.2;;;;;;;;;;;;;;;;;-14.275033;16.96829;-24.643698;;1436.3
1645.0;1492.2;;;;;;;;;;;;;;-0.9405805;0.943144;-0.2450026;;;;;1436.3
1645.0;1497.3;;;;0.08445359;0.83675015;-0.07030869;;;;;;;;;;;;;;;
1645.0;1497.3;;;;0.09555055;0.8352357;-0.067955025;;;;;;;;;;;;;;;
1645.0;1497.3;;;;0.10572435;0.83334744;-0.06557847;;;;;;;;;;;;;;;
1645.0;1497.3;;;;0.11560823;0.83168805;-0.06326295;;;;;;;;;;;;;;;
1645.0;1497.3;;;;0.12511064;0.8294145;-0.061092384;;;;;;;;;;;;;;;
1645.0;1499.3;259945;262143;9709;;;;;;;;;;;;;;;;;;
1645.0;1507.2;;;;0.13418199;0.8263513;-0.058364876;;;;;;;;;;;;;;;
1645.0;1507.2;;;;0.14349748;0.8223077;-0.055431373;;;;;;;;;;;;;;;
1645.0;1507.2;;;;0.15184785;0.8181268;-0.05278016;;;;;;;;;;;;;;;
1645.0;1507.2;;;;0.15810777;0.81352246;-0.0497284;;;;;;;;;;;;;;;
1645.0;1507.2;;;;0.16410448;0.80811703;-0.046493534;;;;;;;;;;;;;;;
1649.0;1517.2;;;;0.16854097;0.8028985;-0.043033604;;;;;;;;;;;;;;;
1649.0;1517.2;;;;0.17269517;0.79688656;-0.038585667;;;;;;;;;;;;;;;
1649.0;1517.2;;;;0.17540742;0.79143536;-0.03388596;;;;;;;;;;;;;;;
1649.0;1517.2;;;;0.17661287;0.7855035;-0.029174808;;;;;;;;;;;;;;;
1649.0;1517.2;;;;0.17596056;0.7808572;-0.024421696;;;;;;;;;;;;;;;
1649.0;1519.4;259870;262143;9705;;;;;;;;;;;;;;;;;;
1649.0;1525.7;;;;;;;;;;;;;6856;;;;;;;;
1649.0;1525.7;;;;;;;;;;;;;5231;;;;;;;;
1649.0;1525.7;;;;;;;;;;;;;4105;;;;;;;;
1649.0;1525.7;;;;;;;;;;;;;3405;;;;;;;;
1649.0;1525.7;;;;;;;;;;;;;3738;;;;;;;;
1649.0;1527.3;;;;0.17478181;0.77569973;-0.020084383;;;;;;;;;;;;;;;
1649.0;1527.3;;;;0.17301561;0.77142346;-0.01564026;;;;;;;;;;;;;;;
1649.0;1527.3;;;;0.17129137;0.76877606;-0.011302949;;;;;;;;;;;;;;;
1649.0;1527.3;;;;0.16846086;0.76511776;-0.0068626413;;;;;;;;;;;;;;;
1649.0;1527.3;;;;0.16399385;0.7634393;-0.002384186;;;;;;;;;;;;;;;
1649.0;1537.4;;;;0.15924837;0.7630769;0.0025062563;;;;;;;;;;;;;;;
1649.0;1537.4;;;;0.1527176;0.7634393;0.007980348;;;;;;;;;;;;;;;
1649.0;1537.4;;;;0.14664842;0.76422894;0.012348177;;;;;;;;;;;;;;;
1649.0;1537.4;;;;0.13886644;0.76734173;0.01689911;;;;;;;;;;;;;;;
1649.0;1537.4;;;;0.13143922;0.77085125;0.02074814;;;;;;;;;;;;;;;
1649.0;1539.7;259732;262143;9700;;;;;;;;;;;;;;;;;;
1651.0;1547.5;;;;0.123302475;0.774788;0.024959568;;;;;;;;;;;;;;;
1651.0;1547.5;;;;0.11491777;0.7792398;0.028682712;;;;;;;;;;;;;;;
1651.0;1547.5;;;;0.10564043;0.7849122;0.032558445;;;;;;;;;;;;;;;
1651.0;1547.5;;;;0.096088424;0.7899095;0.03659058;;;;;;;;;;;;;;;
1651.0;1547.5;;;;0.08545304;0.79493344;0.04098511;;;;;;;;;;;;;;;
1651.0;1552.4;;;;;;;;;;;;;;;;;-13.32133;12.867367;-30.629139;;1446.0
1651.0;1552.4;;;;;;;;;;;;;;-0.9517502;1.0001526;-0.23914304;;;;;1446.0
1651.0;1552.4;;;;;;;;;;;;;;;;;-13.435774;10.647145;-36.397137;;1446.0
1651.0;1552.4;;;;;;;;;;;;;;-0.95956296;1.0416578;-0.24750511;;;;;1446.0
1651.0;1552.4;;;;;;;;;;;;;;;;;-14.198736;10.292367;-42.649616;;1455.6
1651.0;1552.4;;;;;;;;;;;;;;-0.96249276;1.0699179;-0.26056704;;;;;1455.6
1651.0;1552.4;;;;;;;;;;;;;;;;;-14.374218;11.463515;-49.024174;;1455.6
1651.0;1552.4;;;;;;;;;;;;;;-0.95419174;1.0796227;-0.30378124;;;;;1455.6
1651.0;1552.4;;;;;;;;;;;;;;;;;-12.073886;14.038514;-55.795464;;1465.3
1651.0;1552.4;;;;;;;;;;;;;;-0.9350261;1.0797448;-0.3645741;;;;;1465.3
1651.0;1552.4;;;;;;;;;;;;;;;;;-8.198035;16.430403;-63.009277;;1465.3
1651.0;1552.4;;;;;;;;;;;;;;-0.9328898;1.0746788;-0.3833125;;;;;1465.3
1652.0;1553.6;;;;;;;;;;;;;;;;;-5.2110357;18.09366;-70.83727;;1474.8
1652.0;1553.6;;;;;;;;;;;;;;-0.92605364;1.0475173;-0.36329234;;;;;1474.8
1652.0;1553.6;;;;;;;;;;;;;;;;;-3.868221;18.753624;-79.46256;;1474.8
1652.0;1553.6;;;;;;;;;;;;;;-0.9494308;1.0274361;-0.27503282;;;;;1474.8
1652.0;1553.6;;;;;;;;;;;;;;;;;-7.1718497;16.533403;-87.7369;;1484.5
1652.0;1553.6;;;;;;;;;;;;;;-0.953032;1.0162663;-0.15521714;;;;;1484.5
1652.0;1553.6;;;;;;;;;;;;;;;;;-11.825923;11.101108;-94.91257;;1484.5
1652.0;1553.6;;;;;;;;;;;;;;-0.94100773;1.0426344;-0.012573626;;;;;1484.5
1652.0;1553.6;;;;;;;;;;;;;;;;;-17.880032;2.7695546;-101.71819;;1494.1
1652.0;1553.6;;;;;;;;;;;;;;-0.9187902;1.0889615;0.12543108;;;;;1494.1
1652.0;1553.6;;;;;;;;;;;;;;;;;-25.826288;-5.630665;-108.03171;;1494.1
1652.0;1553.6;;;;;;;;;;;;;;-0.8767968;1.1352886;0.2125309;;;;;1494.1
1652.0;1557.4;;;;0.07460023;0.8005601;0.04425812;;;;;;;;;;;;;;;
1652.0;1557.4;;;;0.06344987;0.8062097;0.047767647;;;;;;;;;;;;;;;
1652.0;1557.4;;;;0.05287171;0.8113557;0.05138398;;;;;;;;;;;;;;;
1652.0;1557.4;;;;0.042846683;0.8168832;0.055187233;;;;;;;;;;;;;;;
1652.0;1557.4;;;;0.033287052;0.8218843;0.058925636;;;;;;;;;;;;;;;
1652.0;1559.6;259654;262143;9688;;;;;;;;;;;;;;;;;;
1652.0;1565.8;;;;;;;;;;;;;5250;;;;;;;;
1652.0;1565.8;;;;;;;;;;;;;6870;;;;;;;;
1652.0;1565.8;;;;;;;;;;;;;7223;;;;;;;;
1652.0;1565.8;;;;;;;;;;;;;6459;;;;;;;;
1652.0;1565.8;;;;;;;;;;;;;6043;;;;;;;;
1654.0;1567.3;;;;0.024257664;0.8271066;0.062515266;;;;;;;;;;;;;;;
1654.0;1567.3;;;;0.015430452;0.8316194;0.066185005;;;;;;;;;;;;;;;
1654.0;1567.3;;;;0.0068321237;0.83607495;0.06972123;;;;;;;;;;;;;;;
1654.0;1567.3;;;;-0.0010757447;0.8405229;0.07307053;;;;;;;;;;;;;;;
1654.0;1567.3;;;;-0.009723664;0.8445779;0.07598496;;;;;;;;;;;;;;;
1654.0;1577.4;;;;-0.017177584;0.84793866;0.078098305;;;;;;;;;;;;;;;
1654.0;1577.4;;;;-0.025035862;0.85216916;0.07979203;;;;;;;;;;;;;;;
1654.0;1577.4;;;;-0.033962253;0.85593426;0.080730446;;;;;;;;;;;;;;;
1654.0;1577.4;;;;-0.041923527;0.8598443;0.081104286;;;;;;;;;;;;;;;
1654.0;1577.4;;;;-0.050277717;0.8643037;0.08093644;;;;;;;;;;;;;;;
1654.0;1579.8;259570;262143;9685;;;;;;;;;;;;;;;;;;
1654.0;1587.5;;;;-0.058341987;0.8682977;0.08113862;;;;;;;;;;;;;;;
1654.0;1587.5;;;;-0.06741715;0.8714944;0.081104286;;;;;;;;;;;;;;;
1654.0;1587.5;;;;-0.07580186;0.87557614;0.08097077;;;;;;;;;;;;;;;
1654.0;1587.5;;;;-0.0840416;0.87988293;0.08074189;;;;;;;;;;;;;;;
1654.0;1587.5;;;;-0.09266282;0.8840333;0.08034135;;;;;;;;;;;;;;;
1654.0;1597.7;;;;-0.10222246;0.8877412;0.07994843;;;;;;;;;;;;;;;
1654.0;1597.7;;;;-0.109577194;0.89146435;0.08057786;;;;;;;;;;;;;;;
1654.0;1597.7;;;;-0.11763765;0.8956224;0.08128358;;;;;;;;;;;;;;;
1654.0;1597.7;;;;-0.12871172;0.9002954;0.081436165;;;;;;;;;;;;;;;
1654.0;1597.7;;;;-0.13888933;0.90396893;0.08316804;;;;;;;;;;;;;;;
1655.0;1600.1;259456;262143;9676;;;;;;;;;;;;;;;;;;
1655.0;1605.2;;;;;;;;;;;;;;;;;-31.193731;-11.486403;-113.77682;;1503.7
1655.0;1605.2;;;;;;;;;;;;;;-0.8714255;1.1631215;0.20239876;;;;;1503.7
1655.0;1605.2;;;;;;;;;;;;;;;;;-27.11951;-19.425032;-118.82764;;1503.7
1655.0;1605.2;;;;;;;;;;;;;;-0.8683737;1.1471298;0.095278785;;;;;1503.7
1655.0;1605.2;;;;;;;;;;;;;;;;;-11.165959;-31.720177;-123.46263;;1513.3
1655.0;1605.2;;;;;;;;;;;;;;-0.7959838;1.1518906;-0.12402722;;;;;1513.3
1655.0;1605.2;;;;;;;;;;;;;;;;;12.421033;-45.46876;-124.938965;;1513.3
1655.0;1605.2;;;;;;;;;;;;;;-0.63270974;1.2367321;-0.37842953;;;;;1513.3
1655.0;1605.2;;;;;;;;;;;;;;;;;35.996582;-59.55306;-124.988556;;1522.8
1655.0;1605.2;;;;;;;;;;;;;;-0.41846982;1.3589892;-0.6342357;;;;;1522.8
1655.0;1605.2;;;;;;;;;;;;;;;;;50.98117;-66.03824;-124.988556;;1522.8
1655.0;1605.2;;;;;;;;;;;;;;-0.2684408;1.3688772;-0.78737754;;;;;1522.8
1655.0;1606.1;;;;;;;;;;;;;7079;;;;;;;;
1655.0;1606.1;;;;;;;;;;;;;8948;;;;;;;;
1655.0;1606.1;;;;;;;;;;;;;10174;;;;;;;;
1655.0;1606.1;;;;;;;;;;;;;10344;;;;;;;;
1655.0;1606.1;;;;;;;;;;;;;9813;;;;;;;;
1655.0;1607.5;;;;-0.14782716;0.9081842;0.08600617;;;;;;;;;;;;;;;
1655.0;1607.5;;;;-0.15698625;0.9122087;0.08869172;;;;;;;;;;;;;;;
1655.0;1607.5;;;;-0.1667061;0.9170991;0.09071732;;;;;;;;;;;;;;;
1655.0;1607.5;;;;-0.17564394;0.92297757;0.09344865;;;;;;;;;;;;;;;
1655.0;1607.5;;;;-0.18354799;0.9277879;0.094390884;;;;;;;;;;;;;;;
1706.0;1612.7;;;;;;;;;;;;;;;;;62.0632;-67.75872;-124.988556;;1532.5
1706.0;1612.7;;;;;;;;;;;;;;-0.1607715;1.318949;-0.86666465;;;;;1532.5
1706.0;1612.7;;;;;;;;;;;;;;;;;80.58412;-62.07083;-124.988556;;1532.5
1706.0;1612.7;;;;;;;;;;;;;;-0.14160588;1.2735374;-0.8572039;;;;;1532.5
1706.0;1612.7;;;;;;;;;;;;;;;;;98.872345;-47.31132;-124.988556;;1542.1
1706.0;1612.7;;;;;;;;;;;;;;-0.12836085;1.2619404;-0.7519761;;;;;1542.1
1706.0;1612.7;;;;;;;;;;;;;;;;;105.75808;-27.672657;-124.988556;;1542.1
1706.0;1612.7;;;;;;;;;;;;;;-0.12842189;1.2734153;-0.6164129;;;;;1542.1
1706.0;1612.7;;;;;;;;;;;;;;;;;103.88119;-6.015961;-124.988556;;1551.7
1706.0;1612.7;;;;;;;;;;;;;;-0.11835078;1.2750633;-0.5197302;;;;;1551.7
1706.0;1612.7;;;;;;;;;;;;;;;;;96.76656;15.121922;-124.988556;;1551.7
1706.0;1612.7;;;;;;;;;;;;;;-0.094058044;1.2699972;-0.4603412;;;;;1551.7
1706.0;1617.5;;;;-0.19034961;0.9345094;0.09592821;;;;;;;;;;;;;;;
1706.0;1617.5;;;;-0.19687656;0.94134533;0.096015945;;;;;;;;;;;;;;;
1706.0;1617.5;;;;-0.20382312;0.9480859;0.096706405;;;;;;;;;;;;;;;
1706.0;1617.5;;;;-0.21101764;0.95471585;0.0974846;;;;;;;;;;;;;;;
1706.0;1617.5;;;;-0.21956638;0.9602777;0.09766008;;;;;;;;;;;;;;;
1706.0;1619.9;259323;262143;9678;;;;;;;;;;;;;;;;;;
1706.0;1627.5;;;;-0.2267876;0.9655801;0.097980514;;;;;;;;;;;;;;;
1706.0;1627.5;;;;-0.23162082;0.97185147;0.09732057;;;;;;;;;;;;;;;
1706.0;1627.5;;;;-0.23367694;0.97945416;0.097599044;;;;;;;;;;;;;;;
1706.0;1627.5;;;;-0.24055102;0.9857446;0.097770706;;;;;;;;;;;;;;;
1706.0;1627.5;;;;-0.24714664;0.99087155;0.09723283;;;;;;;;;;;;;;;
1767.0;1637.3;;;;-0.25233844;0.99684155;0.096836105;;;;;;;;;;;;;;;
1767.0;1637.3;;;;-0.25566104;1.0031816;0.09625246;;;;;;;;;;;;;;;
1767.0;1637.3;;;;-0.25717166;1.0099641;0.09578325;;;;;;;;;;;;;;;
1767.0;1637.3;;;;-0.2608414;1.0174714;0.09549333;;;;;;;;;;;;;;;
1767.0;1637.3;;;;-0.26572803;1.0226022;0.094001785;;;;;;;;;;;;;;;
1767.0;1639.8;259170;262143;9657;;;;;;;;;;;;;;;;;;
1767.0;1646.1;;;;;;;;;;;;;8975;;;;;;;;
1767.0;1646.1;;;;;;;;;;;;;7891;;;;;;;;
1767.0;1646.1;;;;;;;;;;;;;6782;;;;;;;;
1767.0;1646.1;;;;;;;;;;;;;6937;;;;;;;;
1767.0;1646.1;;;;;;;;;;;;;8326;;;;;;;;
1767.0;1647.4;;;;-0.26806262;1.0290529;0.09331513;;;;;;;;;;;;;;;
1767.0;1647.4;;;;-0.2710953;1.0342103;0.09249879;;;;;;;;;;;;;;;
1767.0;1647.4;;;;-0.27401355;1.0412713;0.092506416;;;;;;;;;;;;;;;
1767.0;1647.4;;;;-0.277401;1.0478746;0.09109498;;;;;;;;;;;;;;;
1767.0;1647.4;;;;-0.2796364;1.054886;0.08927537;;;;;;;;;;;;;;;
1767.0;1657.5;;;;-0.28024295;1.059765;0.088802345;;;;;;;;;;;;;;;
1767.0;1657.5;;;;-0.28337863;1.0662423;0.087722786;;;;;;;;;;;;;;;
1767.0;1657.5;;;;-0.28623584;1.0729638;0.08682252;;;;;;;;;;;;;;;
1767.0;1657.5;;;;-0.2878647;1.0795327;0.08671189;;;;;;;;;;;;;;;
1767.0;1657.5;;;;-0.2862511;1.0873109;0.086235054;;;;;;;;;;;;;;;
1767.0;1660.1;259014;262143;9660;;;;;;;;;;;;;;;;;;
1774.0;1665.2;;;;;;;;;;;;;;;;;95.19486;23.884548;-124.988556;;1561.4
1774.0;1665.2;;;;;;;;;;;;;;-0.10742515;1.2144536;-0.49287394;;;;;1561.4
1774.0;1665.2;;;;;;;;;;;;;;;;;99.196594;20.56566;-124.988556;;1561.4
1774.0;1665.2;;;;;;;;;;;;;;-0.14545122;1.1876583;-0.60750145;;;;;1561.4
1774.0;1665.2;;;;;;;;;;;;;;;;;98.68923;18.372143;-124.988556;;1570.9
1774.0;1665.2;;;;;;;;;;;;;;-0.23059785;1.1567125;-0.7267678;;;;;1570.9
1774.0;1665.2;;;;;;;;;;;;;;;;;88.53801;15.095218;-124.988556;;1570.9
1774.0;1665.2;;;;;;;;;;;;;;-0.3635975;1.0984832;-0.779931;;;;;1570.9
1774.0;1665.2;;;;;;;;;;;;;;;;;71.27979;8.045443;-124.988556;;1580.6
1774.0;1665.2;;;;;;;;;;;;;;-0.44257942;1.1503646;-0.82558674;;;;;1580.6
1774.0;1665.2;;;;;;;;;;;;;;;;;61.57872;-0.015259255;-124.988556;;1580.6
1774.0;1665.2;;;;;;;;;;;;;;-0.47706535;1.1357158;-0.73317665;;;;;1580.6
1774.0;1667.4;;;;-0.2854233;1.0946809;0.085277565;;;;;;;;;;;;;;;
1774.0;1667.4;;;;-0.2899094;1.1005899;0.083824165;;;;;;;;;;;;;;;
1774.0;1667.4;;;;-0.29197314;1.1056939;0.08244706;;;;;;;;;;;;;;;
1774.0;1667.4;;;;-0.292244;1.1115342;0.08158494;;;;;;;;;;;;;;;
1774.0;1667.4;;;;-0.29166415;1.1177789;0.08209229;;;;;;;;;;;;;;;
1775.0;1673.1;;;;;;;;;;;;;;;;;51.33595;-8.262887;-124.988556;;1590.2
1775.0;1673.1;;;;;;;;;;;;;;-0.3810541;1.2222053;-0.6911832;;;;;1590.2
1775.0;1673.1;;;;;;;;;;;;;;;;;43.923767;-6.004517;-124.988556;;1590.2
1775.0;1673.1;;;;;;;;;;;;;;-0.29950866;1.3972595;-0.58754236;;;;;1590.2
1775.0;1673.1;;;;;;;;;;;;;;;;;38.022247;4.0856657;-124.988556;;1599.9
1775.0;1673.1;;;;;;;;;;;;;;-0.12787256;1.7235023;-0.5346843;;;;;1599.9
1775.0;1673.1;;;;;;;;;;;;;;;;;29.740288;21.526995;-124.988556;;1599.9
1775.0;1673.1;;;;;;;;;;;;;;-0.096499525;1.792169;-0.40516374;;;;;1599.9
1775.0;1673.1;;;;;;;;;;;;;;;;;21.340069;28.077028;-124.988556;;1609.6
1775.0;1673.1;;;;;;;;;;;;;;-0.055238504;1.6796777;-0.3609119;;;;;1609.6
1775.0;1673.1;;;;;;;;;;;;;;;;;23.815882;33.215584;-124.988556;;1609.6
1775.0;1673.1;;;;;;;;;;;;;;-0.06689657;1.5699942;-0.38038272;;;;;1609.6
1775.0;1677.4;;;;-0.28839114;1.1243974;0.08251954;;;;;;;;;;;;;;;
1775.0;1677.4;;;;-0.28813174;1.1295663;0.08246232;;;;;;;;;;;;;;;
1775.0;1677.4;;;;-0.28805545;1.134533;0.08290864;;;;;;;;;;;;;;;
1775.0;1677.4;;;;-0.2879906;1.1385461;0.08416749;;;;;;;;;;;;;;;
1775.0;1677.4;;;;-0.28738406;1.1432267;0.08442689;;;;;;;;;;;;;;;
1775.0;1679.9;258835;262143;9653;;;;;;;;;;;;;;;;;;
1775.0;1686.1;;;;;;;;;;;;;8526;;;;;;;;
1775.0;1686.1;;;;;;;;;;;;;5151;;;;;;;;
1775.0;1686.1;;;;;;;;;;;;;-2285;;;;;;;;
1775.0;1686.1;;;;;;;;;;;;;-10183;;;;;;;;
1775.0;1686.1;;;;;;;;;;;;;-12565;;;;;;;;
1776.0;1687.4;;;;-0.28727725;1.1474572;0.084896095;;;;;;;;;;;;;;;
1776.0;1687.4;;;;-0.2870827;1.1512948;0.08641053;;;;;;;;;;;;;;;
1776.0;1687.4;;;;-0.28644565;1.155491;0.08823777;;;;;;;;;;;;;;;
1776.0;1687.4;;;;-0.287262;1.158558;0.08920289;;;;;;;;;;;;;;;
1776.0;1687.4;;;;-0.28647617;1.1629373;0.091384895;;;;;;;;;;;;;;;
1776.0;1697.3;;;;-0.2865105;1.1659776;0.09330369;;;;;;;;;;;;;;;
1776.0;1697.3;;;;-0.28615955;1.1692353;0.09604646;;;;;;;;;;;;;;;
1776.0;1697.3;;;;-0.28636554;1.1720353;0.09889223;;;;;;;;;;;;;;;
1776.0;1697.3;;;;-0.28525546;1.1741487;0.10110475;;;;;;;;;;;;;;;
1776.0;1697.3;;;;-0.28216556;1.1753694;0.10441972;;;;;;;;;;;;;;;
1776.0;1700.0;258604;262143;9632;;;;;;;;;;;;;;;;;;
1776.0;1707.5;;;;-0.2801247;1.177517;0.10877611;;;;;;;;;;;;;;;
1776.0;1707.5;;;;-0.27790835;1.1789857;0.11236955;;;;;;;;;;;;;;;
1776.0;1707.5;;;;-0.2761536;1.1792871;0.11625673;;;;;;;;;;;;;;;
1776.0;1707.5;;;;-0.27606586;1.179432;0.12071611;;;;;;;;;;;;;;;
1776.0;1707.5;;;;-0.27300647;1.1803476;0.12564088;;;;;;;;;;;;;;;
1776.0;1717.6;;;;-0.2698212;1.1811677;0.13149644;;;;;;;;;;;;;;;
1776.0;1717.6;;;;-0.2679787;1.1821901;0.13737108;;;;;;;;;;;;;;;
1776.0;1717.6;;;;-0.2680588;1.1817323;0.1438408;;;;;;;;;;;;;;;
1776.0;1717.6;;;;-0.26446155;1.1817209;0.15002824;;;;;;;;;;;;;;;
1776.0;1717.6;;;;-0.26237872;1.1816217;0.15639879;;;;;;;;;;;;;;;
1779.0;1720.3;258404;262143;9623;;;;;;;;;;;;;;;;;;
1779.0;1725.5;;;;;;;;;;;;;;;;;36.92358;43.591877;-124.988556;;1619.2
1779.0;1725.5;;;;;;;;;;;;;;-0.14264351;1.6007569;-0.398999;;;;;1619.2
1779.0;1725.5;;;;;;;;;;;;;;;;;50.42802;47.639393;-124.988556;;1619.2
1779.0;1725.5;;;;;;;;;;;;;;-0.18555254;1.676931;-0.41724905;;;;;1619.2
1779.0;1725.5;;;;;;;;;;;;;;;;;50.225834;47.975098;-124.988556;;1628.8
1779.0;1725.5;;;;;;;;;;;;;;-0.19684438;1.754326;-0.47004607;;;;;1628.8
1779.0;1725.5;;;;;;;;;;;;;;;;;37.53777;41.711174;-124.988556;;1628.8
1779.0;1725.5;;;;;;;;;;;;;;-0.22113712;1.765801;-0.4782861;;;;;1628.8
1779.0;1725.5;;;;;;;;;;;;;;;;;16.18244;22.995697;-124.988556;;1638.2
1779.0;1725.5;;;;;;;;;;;;;;-0.20545061;1.6923124;-0.5767998;;;;;1638.2
1779.0;1725.5;;;;;;;;;;;;;;;;;-0.79348123;-2.5940733;-124.988556;;1638.2
1779.0;1725.5;;;;;;;;;;;;;;-0.19360943;1.5448469;-0.69820243;;;;;1638.2
1779.0;1726.2;;;;;;;;;;;;;;;;;-0.07629627;-35.050507;-124.988556;;1647.8
1779.0;1726.2;;;;;;;;;;;;;;-0.18897061;1.41142;-0.877224;;;;;1647.8
1779.0;1726.2;;;;;;;;;;;;;;;;;22.961363;-66.846985;-124.988556;;1647.8
1779.0;1726.2;;;;;;;;;;;;;;-0.17816706;1.3356731;-1.0752281;;;;;1647.8
1779.0;1726.2;;;;;;;;;;;;;;;;;52.35069;-85.726494;-124.988556;;1657.5
1779.0;1726.2;;;;;;;;;;;;;;-0.20587787;1.3545946;-1.1535386;;;;;1657.5
1779.0;1726.2;;;;;;;;;;;;;;;;;62.730797;-97.28538;-124.988556;;1657.5
1779.0;1726.2;;;;;;;;;;;;;;-0.22547075;1.4007386;-1.1305887;;;;;1657.5
1779.0;1726.2;;;;;;;;;;;;;;;;;50.12665;-102.0806;-124.561295;;1667.1
1779.0;1726.2;;;;;;;;;;;;;;-0.23108615;1.4207587;-0.9904477;;;;;1667.1
1779.0;1726.2;;;;;;;;;;;;;;;;;33.734398;-101.390114;-122.06641;;1667.1
1779.0;1726.2;;;;;;;;;;;;;;-0.2320017;1.4218574;-0.79366434;;;;;1667.1
1779.0;1726.3;;;;;;;;;;;;;-7000;;;;;;;;
1779.0;1726.3;;;;;;;;;;;;;2566;;;;;;;;
1779.0;1726.3;;;;;;;;;;;;;9110;;;;;;;;
1779.0;1726.3;;;;;;;;;;;;;9693;;;;;;;;
1779.0;1726.3;;;;;;;;;;;;;7356;;;;;;;;
1779.0;1727.4;;;;-0.26124576;1.1821786;0.16305162;;;;;;;;;;;;;;;
1779.0;1727.4;;;;-0.25930026;1.1829683;0.17151262;;;;;;;;;;;;;;;
1779.0;1727.4;;;;-0.2594376;1.1836091;0.17897035;;;;;;;;;;;;;;;
1779.0;1727.4;;;;-0.25897983;1.1847688;0.185627;;;;;;;;;;;;;;;
1779.0;1727.4;;;;-0.2590523;1.1844293;0.19307712;;;;;;;;;;;;;;;
1825.0;1737.5;;;;-0.2611237;1.182541;0.20055774;;;;;;;;;;;;;;;
1825.0;1737.5;;;;-0.26054767;1.1834146;0.20747378;;;;;;;;;;;;;;;
1825.0;1737.5;;;;-0.25869372;1.1868631;0.21453479;;;;;;;;;;;;;;;
1825.0;1737.5;;;;-0.26256183;1.1869317;0.2216759;;;;;;;;;;;;;;;
1825.0;1737.5;;;;-0.26898578;1.1844293;0.2282143;;;;;;;;;;;;;;;
1825.0;1737.6;;;;;;;;;;1.5945921;19.112217;-1.6327403;;;;;;;;;
1825.0;1737.6;;;;;;;0.1380047;-1.1924192;-0.019531846;;;;;;;;;;;;
1825.0;1737.6;;;;;;;;;;6.6644797;30.259102;8.014924;;;;;;;;;
1825.0;1737.6;;;;;;;0.15155491;-1.3386029;-0.022339549;;;;;;;;;;;;
1825.0;1740.2;258318;262143;9624;;;;;;;;;;;;;;;;;;
1825.0;1747.1;;;;;;;;;;6.275368;10.254219;0.16403699;;;;;;;;;
1825.0;1747.1;;;;;;;0.14685507;-1.3369548;-0.02087466;;;;;;;;;;;;
1825.0;1747.1;;;;;;;;;;21.725365;36.41621;-8.80459;;;;;;;;;
1825.0;1747.1;;;;;;;0.13892026;-1.3361003;-0.015381329;;;;;;;;;;;;
1825.0;1747.5;;;;-0.26406863;1.1896211;0.23342517;;;;;;;;;;;;;;;
1825.0;1747.5;;;;-0.25896075;1.1954118;0.24336627;;;;;;;;;;;;;;;
1825.0;1747.5;;;;-0.25602725;1.2019655;0.24832919;;;;;;;;;;;;;;;
1825.0;1747.5;;;;-0.25382617;1.2076494;0.25638965;;;;;;;;;;;;;;;
1825.0;1747.5;;;;-0.25677875;1.2073518;0.26116946;;;;;;;;;;;;;;;
1825.0;1756.2;;;;;;;;;;36.656544;50.119022;-21.649069;;;;;;;;;
1825.0;1756.2;;;;;;;0.1363567;-1.3337809;-0.011658071;;;;;;;;;;;;
1825.0;1756.2;;;;;;;;;;47.246468;23.991364;-54.68154;;;;;;;;;
1825.0;1756.2;;;;;;;0.1347087;-1.3335978;-0.010986663;;;;;;;;;;;;
1827.0;1757.1;;;;-0.26028064;1.2084848;0.26518252;;;;;;;;;;;;;;;
1827.0;1757.1;;;;-0.26088336;1.2106363;0.27064136;;;;;;;;;;;;;;;
1827.0;1757.1;;;;-0.25783542;1.2162172;0.27510074;;;;;;;;;;;;;;;
1827.0;1757.1;;;;-0.2603226;1.2172433;0.2801285;;;;;;;;;;;;;;;
1827.0;1757.1;;;;-0.26161578;1.2200738;0.28397754;;;;;;;;;;;;;;;
1827.0;1759.9;258394;262143;9626;;;;;;;;;;;;;;;;;;
1827.0;1765.9;;;;;;;;;;63.8142;29.763178;-67.0568;;;;;;;;;
1827.0;1765.9;;;;;;;0.13562426;-1.3345745;-0.014648885;;;;;;;;;;;;
1827.0;1765.9;;;;;;;;;;81.209755;33.29188;-78.695786;;;;;;;;;
1827.0;1765.9;;;;;;;0.14453566;-1.333964;-0.026245918;;;;;;;;;;;;
1827.0;1766.1;;;;;;;;;;;;;5856;;;;;;;;
1827.0;1766.1;;;;;;;;;;;;;5418;;;;;;;;
1827.0;1766.1;;;;;;;;;;;;;4492;;;;;;;;
1827.0;1766.1;;;;;;;;;;;;;3395;;;;;;;;
1827.0;1766.1;;;;;;;;;;;;;2819;;;;;;;;
1827.0;1767.2;;;;-0.2638512;1.2229348;0.28831485;;;;;;;;;;;;;;;
1827.0;1767.2;;;;-0.26102832;1.2295266;0.29160312;;;;;;;;;;;;;;;
1827.0;1767.2;;;;-0.26122287;1.235962;0.29325488;;;;;;;;;;;;;;;
1827.0;1767.2;;;;-0.26106265;1.2420541;0.29478458;;;;;;;;;;;;;;;
1827.0;1767.2;;;;-0.25860217;1.2518312;0.29626468;;;;;;;;;;;;;;;
1827.0;1775.5;;;;;;;;;;96.58727;40.936764;-82.06427;;;;;;;;;
1827.0;1775.5;;;;;;;0.15228736;-1.3431196;-0.038209174;;;;;;;;;;;;
1827.0;1775.5;;;;;;;;;;103.22886;43.43547;-76.55569;;;;;;;;;
1827.0;1775.5;;;;;;;0.16461684;-1.3538011;-0.046205025;;;;;;;;;;;;
1828.0;1777.3;;;;-0.2669945;1.2552377;0.2971039;;;;;;;;;;;;;;;
1828.0;1777.3;;;;-0.27463153;1.2596284;0.30155566;;;;;;;;;;;;;;;
1828.0;1777.3;;;;-0.27540973;1.2696916;0.30531695;;;;;;;;;;;;;;;
1828.0;1777.3;;;;-0.26607898;1.2863542;0.30314258;;;;;;;;;;;;;;;
1828.0;1777.3;;;;-0.27152637;1.2978059;0.30479816;;;;;;;;;;;;;;;
1828.0;1780.2;258683;262143;9638;;;;;;;;;;;;;;;;;;
1828.0;1785.0;;;;;;;;;;107.54341;36.435284;-74.842834;;;;;;;;;
1828.0;1785.0;;;;;;;0.1864681;-1.3555712;-0.056764428;;;;;;;;;;;;
1828.0;1785.0;;;;;;;;;;111.64052;29.732658;-73.55342;;;;;;;;;
1828.0;1785.0;;;;;;;0.21106601;-1.3596606;-0.0679342;;;;;;;;;;;;
1828.0;1787.3;;;;-0.2821732;1.3049394;0.30903247;;;;;;;;;;;;;;;
1828.0;1787.3;;;;-0.2910309;1.3125879;0.3097649;;;;;;;;;;;;;;;
1828.0;1787.3;;;;-0.30318454;1.3193666;0.31213;;;;;;;;;;;;;;;
1828.0;1787.3;;;;-0.30991748;1.328415;0.31491855;;;;;;;;;;;;;;;
1828.0;1787.3;;;;-0.31951526;1.338585;0.3149338;;;;;;;;;;;;;;;
1830.0;1793.0;;;;;;;;;;;;;;;;;21.355328;-96.007416;-120.54048;;1676.8
1830.0;1793.0;;;;;;;;;;;;;;-0.20276497;1.3978088;-0.61378825;;;;;1676.8
1830.0;1793.0;;;;;;;;;;;;;;;;;10.422071;-89.56419;-118.93063;;1676.8
1830.0;1793.0;;;;;;;;;;;;;;-0.15375225;1.3506882;-0.48548844;;;;;1676.8
1830.0;1793.0;;;;;;;;;;;;;;;;;5.0851464;-86.26438;-118.88867;;1686.4
1830.0;1793.0;;;;;;;;;;;;;;-0.08093509;1.305826;-0.42945647;;;;;1686.4
1830.0;1793.0;;;;;;;;;;;;;;;;;8.968627;-84.58586;-119.36171;;1686.4
1830.0;1793.0;;;;;;;;;;;;;;-1.8311106E-4;1.2618793;-0.40998566;;;;;1686.4
1830.0;1793.0;;;;;;;;;;;;;;;;;14.5535145;-84.04416;-117.34749;;1696.1
1830.0;1793.0;;;;;;;;;;;;;;0.088137455;1.2380749;-0.44685203;;;;;1696.1
1830.0;1793.0;;;;;;;;;;;;;;;;;19.142736;-80.01572;-114.08963;;1696.1
1830.0;1793.0;;;;;;;;;;;;;;0.16034424;1.2359385;-0.46473587;;;;;1696.1
1830.0;1793.6;;;;;;;;;;;;;;;;;18.589588;-74.106575;-111.33915;;1705.8
1830.0;1793.6;;;;;;;;;;;;;;0.19458602;1.218543;-0.44251838;;;;;1705.8
1830.0;1793.6;;;;;;;;;;;;;;;;;16.426588;-66.63717;-109.35927;;1705.8
1830.0;1793.6;;;;;;;;;;;;;;0.20703757;1.2193975;-0.3919187;;;;;1705.8
1830.0;1793.6;;;;;;;;;;;;;;;;;11.093478;-58.27128;-104.86923;;1715.4
1830.0;1793.6;;;;;;;;;;;;;;0.19672231;1.2535173;-0.3152562;;;;;1715.4
1830.0;1793.6;;;;;;;;;;;;;;;;;-1.6251106;-50.1915;-101.02008;;1715.4
1830.0;1793.6;;;;;;;;;;;;;;0.24127933;1.1236305;-0.27246925;;;;;1715.4
1830.0;1793.6;;;;;;;;;;;;;;;;;6.2105165;-42.668694;-103.59889;;1724.9
1830.0;1793.6;;;;;;;;;;;;;;0.18811609;1.0714438;-0.2014832;;;;;1724.9
1830.0;1793.6;;;;;;;;;;;;;;;;;23.056734;-41.26484;-101.51601;;1724.9
1830.0;1793.6;;;;;;;;;;;;;;0.16376232;1.0490433;-0.22095402;;;;;1724.9
1885.0;1794.4;;;;;;;;;;115.53926;23.079622;-72.68365;;;;;;;;;
1885.0;1794.4;;;;;;;0.22376171;-1.3730277;-0.08081301;;;;;;;;;;;;
1885.0;1794.4;;;;;;;;;;118.63308;16.350292;-71.756645;;;;;;;;;
1885.0;1794.4;;;;;;;0.23938718;-1.3826716;-0.087588124;;;;;;;;;;;;
1885.0;1797.2;;;;-0.32499698;1.3470155;0.3176308;;;;;;;;;;;;;;;
1885.0;1797.2;;;;-0.33368686;1.3555452;0.3183289;;;;;;;;;;;;;;;
1885.0;1797.2;;;;-0.34212878;1.3611757;0.3179703;;;;;;;;;;;;;;;
1885.0;1797.2;;;;-0.350853;1.365883;0.32109836;;;;;;;;;;;;;;;
1885.0;1797.2;;;;-0.3589516;1.366726;0.32153705;;;;;;;;;;;;;;;
1885.0;1800.0;259084;262143;9647;;;;;;;;;;;;;;;;;;
1885.0;1803.9;;;;;;;;;;121.16992;9.743034;-70.83346;;;;;;;;;
1885.0;1803.9;;;;;;;0.24958037;-1.3892026;-0.09302042;;;;;;;;;;;;
1885.0;1803.9;;;;;;;;;;123.29478;3.1853695;-70.16586;;;;;;;;;
1885.0;1803.9;;;;;;;0.25702688;-1.3888364;-0.1010773;;;;;;;;;;;;
1885.0;1806.2;;;;;;;;;;;;;2275;;;;;;;;
1885.0;1806.2;;;;;;;;;;;;;1459;;;;;;;;
1885.0;1806.2;;;;;;;;;;;;;438;;;;;;;;
1885.0;1806.2;;;;;;;;;;;;;-576;;;;;;;;
1885.0;1806.2;;;;;;;;;;;;;-1463;;;;;;;;
1885.0;1807.1;;;;-0.36904147;1.3694955;0.32325366;;;;;;;;;;;;;;;
1885.0;1807.1;;;;-0.36711887;1.373459;0.3219376;;;;;;;;;;;;;;;
1885.0;1807.1;;;;-0.37472156;1.3776437;0.32437137;;;;;;;;;;;;;;;
1885.0;1807.1;;;;-0.37754065;1.3806497;0.32192996;;;;;;;;;;;;;;;
1885.0;1807.1;;;;-0.38701254;1.3778573;0.3189011;;;;;;;;;;;;;;;
1888.0;1813.4;;;;;;;;;;124.60326;-3.0442214;-69.7882;;;;;;;;;
1888.0;1813.4;;;;;;;0.2636189;-1.386639;-0.105960265;;;;;;;;;;;;
1888.0;1813.4;;;;;;;;;;124.881744;-9.1975155;-69.63179;;;;;;;;;
1888.0;1813.4;;;;;;;0.27063814;-1.3758965;-0.11682486;;;;;;;;;;;;
1888.0;1817.2;;;;-0.3958779;1.3737565;0.31775668;;;;;;;;;;;;;;;
1888.0;1817.2;;;;-0.40322882;1.3707963;0.32023242;;;;;;;;;;;;;;;
1888.0;1817.2;;;;-0.41427618;1.3653985;0.31808093;;;;;;;;;;;;;;;
1888.0;1817.2;;;;-0.41838843;1.3609048;0.31528857;;;;;;;;;;;;;;;
1888.0;1817.2;;;;-0.42813498;1.3575441;0.31336978;;;;;;;;;;;;;;;
1888.0;1820.2;259569;262143;9657;;;;;;;;;;;;;;;;;;
1888.0;1823.1;;;;;;;;;;124.881744;-14.950255;-69.91027;;;;;;;;;
1888.0;1823.1;;;;;;;0.27863398;-1.3516648;-0.130253;;;;;;;;;;;;
1888.0;1823.1;;;;;;;;;;124.881744;-20.355846;-71.01276;;;;;;;;;
1888.0;1823.1;;;;;;;0.27576524;-1.3521531;-0.14868619;;;;;;;;;;;;
1888.0;1827.3;;;;-0.43394095;1.3569223;0.31122592;;;;;;;;;;;;;;;
1888.0;1827.3;;;;-0.43883902;1.3572465;0.30952457;;;;;;;;;;;;;;;
1888.0;1827.3;;;;-0.45068365;1.3514673;0.30903628;;;;;;;;;;;;;;;
1888.0;1827.3;;;;-0.45663077;1.3477594;0.30744556;;;;;;;;;;;;;;;
1888.0;1827.3;;;;-0.46857458;1.3425332;0.30573276;;;;;;;;;;;;;;;
1888.0;1832.7;;;;;;;;;;124.881744;-25.585955;-72.2602;;;;;;;;;
1888.0;1832.7;;;;;;;0.2709433;-1.3638722;-0.17316203;;;;;;;;;;;;
1888.0;1832.7;;;;;;;;;;124.881744;-30.961027;-73.580124;;;;;;;;;
1888.0;1832.7;;;;;;;0.25946838;-1.3712577;-0.19788201;;;;;;;;;;;;
1890.0;1837.4;;;;-0.4782334;1.3376695;0.3047333;;;;;;;;;;;;;;;
1890.0;1837.4;;;;-0.48419958;1.3348542;0.30177692;;;;;;;;;;;;;;;
1890.0;1837.4;;;;-0.4919129;1.3317415;0.29902652;;;;;;;;;;;;;;;
1890.0;1837.4;;;;-0.50137335;1.3268434;0.29770282;;;;;;;;;;;;;;;
1890.0;1837.4;;;;-0.5121613;1.3182603;0.29495242;;;;;;;;;;;;;;;
1890.0;1840.5;259916;262143;9675;;;;;;;;;;;;;;;;;;
1890.0;1842.3;;;;;;;;;;124.881744;-36.57262;-75.20905;;;;;;;;;
1890.0;1842.3;;;;;;;0.23426008;-1.3820612;-0.22626422;;;;;;;;;;;;
1890.0;1842.3;;;;;;;;;;124.881744;-42.909027;-76.73498;;;;;;;;;
1890.0;1842.3;;;;;;;0.21594897;-1.375103;-0.242378;;;;;;;;;;;;
1890.0;1846.0;;;;;;;;;;;;;;;;;32.68151;-44.52269;-97.579124;;1734.5
1890.0;1846.0;;;;;;;;;;;;;;0.14441359;1.0100406;-0.28321177;;;;;1734.5
1890.0;1846.0;;;;;;;;;;;;;;;;;37.892544;-48.543507;-93.493454;;1734.5
1890.0;1846.0;;;;;;;;;;;;;;0.15601063;0.9607837;-0.3317362;;;;;1734.5
1890.0;1846.0;;;;;;;;;;;;;;;;;39.246803;-50.695057;-88.34346;;1744.2
1890.0;1846.0;;;;;;;;;;;;;;0.16144292;0.8908963;-0.32587665;;;;;1744.2
1890.0;1846.0;;;;;;;;;;;;;;;;;37.766655;-52.514725;-81.88116;;1744.2
1890.0;1846.0;;;;;;;;;;;;;;0.17560351;0.8280282;-0.31696525;;;;;1744.2
1890.0;1846.0;;;;;;;;;;;;;;;;;36.34373;-54.479355;-74.4232;;1753.8
1890.0;1846.0;;;;;;;;;;;;;;0.19275491;0.768395;-0.3173925;;;;;1753.8
1890.0;1846.0;;;;;;;;;;;;;;;;;36.832027;-56.558426;-67.22083;;1753.8
1890.0;1846.0;;;;;;;;;;;;;;0.19165625;0.70528275;-0.3023774;;;;;1753.8
1946.0;1846.5;;;;;;;;;;;;;-2262;;;;;;;;
1946.0;1846.5;;;;;;;;;;;;;-3256;;;;;;;;
1946.0;1846.5;;;;;;;;;;;;;-4751;;;;;;;;
1946.0;1846.5;;;;;;;;;;;;;-6369;;;;;;;;
1946.0;1846.5;;;;;;;;;;;;;-7422;;;;;;;;
1946.0;1846.8;;;;;;;;;;;;;;;;;36.912136;-59.572132;-60.19013;;1763.4
1946.0;1846.8;;;;;;;;;;;;;;0.21301919;0.6485183;-0.31434065;;;;;1763.4
1946.0;1846.8;;;;;;;;;;;;;;;;;37.4691;-61.63213;-52.46895;;1763.4
1946.0;1846.8;;;;;;;;;;;;;;0.21246986;0.5976745;-0.32319102;;;;;1763.4
1946.0;1846.8;;;;;;;;;;;;;;;;;38.4991;-62.398907;-43.77499;;1773.0
1946.0;1846.8;;;;;;;;;;;;;;0.22693564;0.5736259;-0.32526627;;;;;1773.0
1946.0;1846.8;;;;;;;;;;;;;;;;;41.615803;-62.58583;-35.081024;;1773.0
1946.0;1846.8;;;;;;;;;;;;;;0.23169653;0.56532484;-0.30176702;;;;;1773.0
1946.0;1846.8;;;;;;;;;;;;;;;;;44.240395;-62.83761;-26.631214;;1782.7
1946.0;1846.8;;;;;;;;;;;;;;0.23358867;0.56495863;-0.2606891;;;;;1782.7
1946.0;1846.8;;;;;;;;;;;;;;;;;46.38432;-63.66543;-17.857143;;1782.7
1946.0;1846.8;;;;;;;;;;;;;;0.22711875;0.56953645;-0.22797327;;;;;1782.7
1946.0;1847.3;;;;-0.5220986;1.3119317;0.2945595;;;;;;;;;;;;;;;
1946.0;1847.3;;;;-0.5261498;1.3073579;0.2942734;;;;;;;;;;;;;;;
1946.0;1847.3;;;;-0.5327988;1.3000566;0.29603198;;;;;;;;;;;;;;;
1946.0;1847.3;;;;-0.5413247;1.2928315;0.29731372;;;;;;;;;;;;;;;
1946.0;1847.3;;;;-0.5488015;1.2877961;0.2952309;;;;;;;;;;;;;;;
1946.0;1851.7;;;;;;;;;;124.881744;-49.5735;-78.287605;;;;;;;;;
1946.0;1851.7;;;;;;;0.20337535;-1.3732109;-0.26441237;;;;;;;;;;;;
1946.0;1851.7;;;;;;;;;;124.881744;-56.12354;-80.309456;;;;;;;;;
1946.0;1851.7;;;;;;;0.2024598;-1.3547777;-0.29016998;;;;;;;;;;;;
1947.0;1857.3;;;;-0.55954367;1.2797052;0.2943268;;;;;;;;;;;;;;;
1947.0;1857.3;;;;-0.5708695;1.2680665;0.29386905;;;;;;;;;;;;;;;
1947.0;1857.3;;;;-0.5795861;1.2582475;0.295105;;;;;;;;;;;;;;;
1947.0;1857.3;;;;-0.58261114;1.2514688;0.30194476;;;;;;;;;;;;;;;
1947.0;1857.3;;;;-0.5848122;1.2438394;0.3037949;;;;;;;;;;;;;;;
1947.0;1860.3;260117;262143;9675;;;;;;;;;;;;;;;;;;
1947.0;1861.1;;;;;;;;;;124.881744;-64.5085;-83.13624;;;;;;;;;
1947.0;1861.1;;;;;;;0.19342631;-1.3449507;-0.30555132;;;;;;;;;;;;
1947.0;1861.1;;;;;;;;;;124.881744;-75.0908;-87.27149;;;;;;;;;
1947.0;1861.1;;;;;;;0.18402661;-1.3297524;-0.32044435;;;;;;;;;;;;
1947.0;1867.3;;;;-0.59268194;1.2306138;0.30884555;;;;;;;;;;;;;;;
1947.0;1867.3;;;;-0.61043936;1.2196237;0.3060799;;;;;;;;;;;;;;;
1947.0;1867.3;;;;-0.62546164;1.2060739;0.3036919;;;;;;;;;;;;;;;
1947.0;1867.3;;;;-0.64096457;1.1969224;0.30355456;;;;;;;;;;;;;;;
1947.0;1867.3;;;;-0.65201575;1.1899644;0.30495456;;;;;;;;;;;;;;;
1947.0;1870.6;;;;;;;;;;124.881744;-85.54338;-92.79534;;;;;;;;;
1947.0;1870.6;;;;;;;0.17920469;-1.3053377;-0.32544938;;;;;;;;;;;;
1947.0;1870.6;;;;;;;;;;124.881744;-95.98834;-98.879974;;;;;;;;;
1947.0;1870.6;;;;;;;0.18024231;-1.3071688;-0.32642597;;;;;;;;;;;;
1952.0;1877.1;;;;-0.6656304;1.1815759;0.30934146;;;;;;;;;;;;;;;
1952.0;1877.1;;;;-0.6857529;1.1694757;0.31317905;;;;;;;;;;;;;;;
1952.0;1877.1;;;;-0.70182043;1.1502916;0.3138695;;;;;;;;;;;;;;;
1952.0;1877.1;;;;-0.7129441;1.1333276;0.3152199;;;;;;;;;;;;;;;
1952.0;1877.1;;;;-0.71721274;1.12138;0.31665805;;;;;;;;;;;;;;;
1952.0;1880.1;;;;;;;;;;124.881744;-106.940674;-105.8153;;;;;;;;;
1952.0;1880.1;;;;;;;0.1942198;-1.2834255;-0.32178718;;;;;;;;;;;;
1952.0;1880.1;;;;;;;;;;124.881744;-116.1916;-112.80785;;;;;;;;;
1952.0;1880.1;;;;;;;0.21240883;-1.2604145;-0.3068331;;;;;;;;;;;;
1952.0;1880.2;260170;262143;9687;;;;;;;;;;;;;;;;;;
1952.0;1886.4;;;;;;;;;;;;;-7730;;;;;;;;
1952.0;1886.4;;;;;;;;;;;;;-7755;;;;;;;;
1952.0;1886.4;;;;;;;;;;;;;-7838;;;;;;;;
1952.0;1886.4;;;;;;;;;;;;;-7699;;;;;;;;
1952.0;1886.4;;;;;;;;;;;;;-7181;;;;;;;;
1952.0;1887.2;;;;-0.72396475;1.1078912;0.31824878;;;;;;;;;;;;;;;
1952.0;1887.2;;;;-0.723362;1.0977823;0.32407382;;;;;;;;;;;;;;;
1952.0;1887.2;;;;-0.7305413;1.0881387;0.3293915;;;;;;;;;;;;;;;
1952.0;1887.2;;;;-0.7394143;1.0726625;0.33324435;;;;;;;;;;;;;;;
1952.0;1887.2;;;;-0.74506;1.0532304;0.33668903;;;;;;;;;;;;;;;
1952.0;1889.7;;;;;;;;;;124.87029;-123.22611;-119.136635;;;;;;;;;
1952.0;1889.7;;;;;;;0.2405469;-1.2473525;-0.29041412;;;;;;;;;;;;
1952.0;1889.7;;;;;;;;;;123.72585;-124.881744;-123.908966;;;;;;;;;
1952.0;1889.7;;;;;;;0.26783043;-1.2292856;-0.27185887;;;;;;;;;;;;
1954.0;1897.3;;;;-0.74146277;1.0382806;0.3388405;;;;;;;;;;;;;;;
1954.0;1897.3;;;;-0.7300454;1.0282708;0.3420296;;;;;;;;;;;;;;;
1954.0;1897.3;;;;-0.72887045;1.0163232;0.34796908;;;;;;;;;;;;;;;
1954.0;1897.3;;;;-0.723362;1.0060464;0.35279086;;;;;;;;;;;;;;;
1954.0;1897.3;;;;-0.7154427;0.9981195;0.35818103;;;;;;;;;;;;;;;
1954.0;1899.3;;;;;;;;;;119.38841;-124.881744;-124.87411;;;;;;;;;
1954.0;1899.3;;;;;;;0.29157385;-1.2264168;-0.25098422;;;;;;;;;;;;
1954.0;1899.3;;;;;;;;;;114.0553;-124.881744;-124.881744;;;;;;;;;
1954.0;1899.3;;;;;;;0.3188574;-1.2237312;-0.23084201;;;;;;;;;;;;
1954.0;1900.5;260191;262143;9678;;;;;;;;;;;;;;;;;;
1954.0;1907.4;;;;-0.72165304;0.9761239;0.36297992;;;;;;;;;;;;;;;
1954.0;1907.4;;;;-0.72482306;0.9576913;0.3645554;;;;;;;;;;;;;;;
1954.0;1907.4;;;;-0.72121054;0.94422925;0.3710747;;;;;;;;;;;;;;;
1954.0;1907.4;;;;-0.7176972;0.9293138;0.37803656;;;;;;;;;;;;;;;
1954.0;1907.4;;;;-0.7140313;0.9244157;0.3835526;;;;;;;;;;;;;;;
1954.0;1908.9;;;;;;;;;;108.63445;-124.881744;-124.881744;;;;;;;;;
1954.0;1908.9;;;;;;;0.34742272;-1.2278817;-0.20722067;;;;;;;;;;;;
1954.0;1908.9;;;;;;;;;;102.980896;-124.881744;-124.881744;;;;;;;;;
1954.0;1908.9;;;;;;;0.35938597;-1.231666;-0.18799402;;;;;;;;;;;;
1955.0;1913.2;;;;;;;;;;;;;;;;;49.497208;-66.08402;-8.793145;;1792.3
1955.0;1913.2;;;;;;;;;;;;;;0.2021546;0.5863826;-0.17499313;;;;;1792.3
1955.0;1913.2;;;;;;;;;;;;;;;;;51.82806;-70.299385;0.4158147;;1792.3
1955.0;1913.2;;;;;;;;;;;;;;0.16528825;0.60390025;-0.15124974;;;;;1792.3
1955.0;1913.2;;;;;;;;;;;;;;;;;52.198097;-74.03027;9.32722;;1802.0
1955.0;1913.2;;;;;;;;;;;;;;0.14416943;0.62764364;-0.12689596;;;;;1802.0
1955.0;1913.2;;;;;;;;;;;;;;;;;49.58876;-78.424934;19.508957;;1802.0
1955.0;1913.2;;;;;;;;;;;;;;0.14020203;0.6123234;-0.123661004;;;;;1802.0
1955.0;1913.2;;;;;;;;;;;;;;;;;49.42473;-79.51979;25.135807;;1811.7
1955.0;1913.2;;;;;;;;;;;;;;0.11120945;0.62135684;-0.09222694;;;;;1811.7
1955.0;1913.2;;;;;;;;;;;;;;;;;52.37739;-80.22935;33.753475;;1811.7
1955.0;1913.2;;;;;;;;;;;;;;0.07367168;0.6418043;-0.061342206;;;;;1811.7
1955.0;1914.1;;;;;;;;;;;;;;;;;49.439987;-79.33286;41.49373;;1821.2
1955.0;1914.1;;;;;;;;;;;;;;0.043763544;0.6616413;-0.038392287;;;;;1821.2
1955.0;1914.1;;;;;;;;;;;;;;;;;40.532394;-74.67498;47.917877;;1821.2
1955.0;1914.1;;;;;;;;;;;;;;0.04504532;0.65791804;-0.044618063;;;;;1821.2
1955.0;1914.1;;;;;;;;;;;;;;;;;29.374065;-64.447464;53.437912;;1830.8
1955.0;1914.1;;;;;;;;;;;;;;0.05957213;0.62611777;-0.035706658;;;;;1830.8
1955.0;1914.1;;;;;;;;;;;;;;;;;20.157475;-52.625355;59.209724;;1830.8
1955.0;1914.1;;;;;;;;;;;;;;0.08038575;0.59114355;-0.047059543;;;;;1830.8
1955.0;1914.1;;;;;;;;;;;;;;;;;13.153478;-38.243507;64.39024;;1840.5
1955.0;1914.1;;;;;;;;;;;;;;0.117313154;0.51533556;-0.10614338;;;;;1840.5
1955.0;1914.1;;;;;;;;;;;;;;;;;9.32722;-22.850733;69.36857;;1840.5
1955.0;1914.1;;;;;;;;;;;;;;0.15082248;0.47376934;-0.14471877;;;;;1840.5
2007.0;1917.4;;;;-0.71355826;0.9117776;0.38806158;;;;;;;;;;;;;;;
2007.0;1917.4;;;;-0.7176629;0.899685;0.39203268;;;;;;;;;;;;;;;
2007.0;1917.4;;;;-0.72072226;0.8842813;0.3935967;;;;;;;;;;;;;;;
2007.0;1917.4;;;;-0.72051626;0.87780774;0.3914147;;;;;;;;;;;;;;;
2007.0;1917.4;;;;-0.7189484;0.866768;0.39442068;;;;;;;;;;;;;;;
2007.0;1918.4;;;;;;;;;;96.6979;-124.881744;-124.881744;;;;;;;;;
2007.0;1918.4;;;;;;;0.37775812;-1.2251351;-0.16803491;;;;;;;;;;;;
2007.0;1918.4;;;;;;;;;;89.89608;-124.881744;-124.881744;;;;;;;;;
2007.0;1918.4;;;;;;;0.38355663;-1.2328258;-0.15063937;;;;;;;;;;;;
2007.0;1920.5;260094;262143;9669;;;;;;;;;;;;;;;;;;
2007.0;1926.6;;;;;;;;;;;;;-6379;;;;;;;;
2007.0;1926.6;;;;;;;;;;;;;-5341;;;;;;;;
2007.0;1926.6;;;;;;;;;;;;;-4334;;;;;;;;
2007.0;1926.6;;;;;;;;;;;;;-3914;;;;;;;;
2007.0;1926.6;;;;;;;;;;;;;-4088;;;;;;;;
2007.0;1927.4;;;;-0.720974;0.85198605;0.39388663;;;;;;;;;;;;;;;
2007.0;1927.4;;;;-0.72910315;0.8304063;0.39330298;;;;;;;;;;;;;;;
2007.0;1927.4;;;;-0.73086935;0.81489193;0.39532477;;;;;;;;;;;;;;;
2007.0;1927.4;;;;-0.7188569;0.8058816;0.3995934;;;;;;;;;;;;;;;
2007.0;1927.4;;;;-0.71441275;0.79701245;0.39726645;;;;;;;;;;;;;;;
2007.0;1927.9;;;;;;;;;;82.7929;-124.881744;-124.881744;;;;;;;;;
2007.0;1927.9;;;;;;;0.40980256;-1.2251351;-0.14288767;;;;;;;;;;;;
2007.0;1927.9;;;;;;;;;;75.28153;-124.881744;-124.881744;;;;;;;;;
2007.0;1927.9;;;;;;;0.4181646;-1.2343516;-0.13086337;;;;;;;;;;;;
2011.0;1937.3;;;;-0.71754843;0.7850915;0.3984185;;;;;;;;;;;;;;;
2011.0;1937.3;;;;-0.71287924;0.776497;0.3963738;;;;;;;;;;;;;;;
2011.0;1937.3;;;;-0.705864;0.7628938;0.3969956;;;;;;;;;;;;;;;
2011.0;1937.3;;;;-0.69920355;0.7506219;0.3944245;;;;;;;;;;;;;;;
2011.0;1937.3;;;;-0.6881371;0.7411309;0.39591604;;;;;;;;;;;;;;;
2011.0;1937.3;;;;;;;;;;67.86935;-124.86648;-124.881744;;;;;;;;;
2011.0;1937.3;;;;;;;0.41621143;-1.2534562;-0.1225013;;;;;;;;;;;;
2011.0;1937.3;;;;;;;;;;60.598312;-123.84411;-124.881744;;;;;;;;;
2011.0;1937.3;;;;;;;0.392407;-1.2785424;-0.113773;;;;;;;;;;;;
2011.0;1940.6;259878;262143;9661;;;;;;;;;;;;;;;;;;
2011.0;1947.0;;;;;;;;;;53.205208;-120.067444;-124.881744;;;;;;;;;
2011.0;1947.0;;;;;;;0.3688467;-1.2960601;-0.11749626;;;;;;;;;;;;
2011.0;1947.0;;;;;;;;;;45.560318;-114.42915;-124.881744;;;;;;;;;
2011.0;1947.0;;;;;;;0.35804316;-1.282815;-0.10223701;;;;;;;;;;;;
2011.0;1947.4;;;;-0.6729012;0.73574454;0.39072043;;;;;;;;;;;;;;;
2011.0;1947.4;;;;-0.6701775;0.72297674;0.3891297;;;;;;;;;;;;;;;
2011.0;1947.4;;;;-0.6568833;0.7121125;0.38925177;;;;;;;;;;;;;;;
2011.0;1947.4;;;;-0.6488686;0.7027398;0.38464743;;;;;;;;;;;;;;;
2011.0;1947.4;;;;-0.6403542;0.6920052;0.38254172;;;;;;;;;;;;;;;
2011.0;1956.6;;;;;;;;;;38.22825;-109.56908;-124.86648;;;;;;;;;
2011.0;1956.6;;;;;;;0.33161414;-1.2864772;-0.10309152;;;;;;;;;;;;
2011.0;1956.6;;;;;;;;;;30.682547;-103.91934;-124.58418;;;;;;;;;
2011.0;1956.6;;;;;;;0.32123783;-1.2751853;-0.09338664;;;;;;;;;;;;
2012.0;1957.5;;;;-0.6313973;0.679535;0.38140494;;;;;;;;;;;;;;;
2012.0;1957.5;;;;-0.6219979;0.6690331;0.3749657;;;;;;;;;;;;;;;
2012.0;1957.5;;;;-0.6145707;0.6580201;0.3730202;;;;;;;;;;;;;;;
2012.0;1957.5;;;;-0.6070481;0.6475068;0.36913684;;;;;;;;;;;;;;;
2012.0;1957.5;;;;-0.59891135;0.63987356;0.3672028;;;;;;;;;;;;;;;
2012.0;1960.9;259622;262143;9642;;;;;;;;;;;;;;;;;;
2012.0;1966.2;;;;;;;;;;23.258919;-97.079384;-124.195076;;;;;;;;;
2012.0;1966.2;;;;;;;0.32288584;-1.2667012;-0.08264413;;;;;;;;;;;;
2012.0;1966.2;;;;;;;;;;15.861996;-89.48027;-123.63429;;;;;;;;;
2012.0;1966.2;;;;;;;0.3345439;-1.2527848;-0.0733665;;;;;;;;;;;;
2012.0;1967.0;;;;;;;;;;;;;-3833;;;;;;;;
2012.0;1967.0;;;;;;;;;;;;;-2940;;;;;;;;
2012.0;1967.0;;;;;;;;;;;;;-2591;;;;;;;;
2012.0;1967.0;;;;;;;;;;;;;-2951;;;;;;;;
2012.0;1967.0;;;;;;;;;;;;;-3069;;;;;;;;
2012.0;1967.6;;;;-0.5903931;0.63234335;0.36054233;;;;;;;;;;;;;;;
2012.0;1967.6;;;;-0.5812798;0.6255532;0.35930637;;;;;;;;;;;;;;;
2012.0;1967.6;;;;-0.57539374;0.6185151;0.35639957;;;;;;;;;;;;;;;
2012.0;1967.6;;;;-0.56987005;0.6106644;0.35315707;;;;;;;;;;;;;;;
2012.0;1967.6;;;;-0.5603333;0.6034699;0.34730533;;;;;;;;;;;;;;;
2015.0;1975.2;;;;;;;;;;;;;;;;;4.909665;-8.90759;74.457535;;1850.1
2015.0;1975.2;;;;;;;;;;;;;;0.16766869;0.42518386;-0.21765801;;;;;1850.1
2015.0;1975.2;;;;;;;;;;;;;;;;;1.9989624;5.542924;78.92086;;1850.1
2015.0;1975.2;;;;;;;;;;;;;;0.21539964;0.3751335;-0.26953948;;;;;1850.1
2015.0;1975.2;;;;;;;;;;;;;;;;;-0.67903686;21.008179;82.869194;;1859.7
2015.0;1975.2;;;;;;;;;;;;;;0.2550737;0.32905057;-0.33466598;;;;;1859.7
2015.0;1975.2;;;;;;;;;;;;;;;;;-0.7705924;34.932247;85.12757;;1859.7
2015.0;1975.2;;;;;;;;;;;;;;0.2806482;0.30060732;-0.3988769;;;;;1859.7
2015.0;1975.2;;;;;;;;;;;;;;;;;-0.3852962;49.863426;86.676384;;1869.4
2015.0;1975.2;;;;;;;;;;;;;;0.2874233;0.26154363;-0.4873806;;;;;1869.4
2015.0;1975.2;;;;;;;;;;;;;;;;;5.6764426;63.72265;88.354904;;1869.4
2015.0;1975.2;;;;;;;;;;;;;;0.2727134;0.28662986;-0.48780787;;;;;1869.4
2015.0;1975.6;;;;;;;;;;8.720664;-80.22172;-121.696365;;;;;;;;;
2015.0;1975.6;;;;;;;0.357799;-1.2413099;-0.06537065;;;;;;;;;;;;
2015.0;1975.6;;;;;;;;;;2.1858883;-70.4062;-117.957855;;;;;;;;;
2015.0;1975.6;;;;;;;0.36939603;-1.2322763;-0.055238504;;;;;;;;;;;;
2015.0;1977.5;;;;-0.5529099;0.5985032;0.3433495;;;;;;;;;;;;;;;
2015.0;1977.5;;;;-0.5471726;0.5919991;0.338913;;;;;;;;;;;;;;;
2015.0;1977.5;;;;-0.541298;0.5878411;0.3330231;;;;;;;;;;;;;;;
2015.0;1977.5;;;;-0.53524405;0.58364874;0.32979968;;;;;;;;;;;;;;;
2015.0;1977.5;;;;-0.5298844;0.58011633;0.3266907;;;;;;;;;;;;;;;
2064.0;1980.9;;;;;;;;;;;;;;;;;8.8999605;73.91202;91.9103;;1879.0
2064.0;1980.9;;;;;;;;;;;;;;0.23212378;0.28339487;-0.56807154;;;;;1879.0
2064.0;1980.9;;;;;;;;;;;;;;;;;16.151922;85.15046;94.82101;;1879.0
2064.0;1980.9;;;;;;;;;;;;;;0.19238868;0.32410657;-0.5157018;;;;;1879.0
2064.0;1980.9;;;;;;;;;;;;;;;;;17.109438;92.528305;97.51045;;1888.7
2064.0;1980.9;;;;;;;;;;;;;;0.10180975;0.3255104;-0.5180822;;;;;1888.7
2064.0;1980.9;;;;;;;;;;;;;;;;;23.586992;92.95175;98.708305;;1888.7
2064.0;1980.9;;;;;;;;;;;;;;0.01208533;0.35126805;-0.4380627;;;;;1888.7
2064.0;1980.9;;;;;;;;;;;;;;;;;24.285105;87.0922;99.13556;;1898.3
2064.0;1980.9;;;;;;;;;;;;;;-0.073000275;0.3737907;-0.39295632;;;;;1898.3
2064.0;1980.9;;;;;;;;;;;;;;;;;24.20118;79.966125;98.872345;;1898.3
2064.0;1980.9;;;;;;;;;;;;;;-0.1431318;0.4067507;-0.33613086;;;;;1898.3
2064.0;1980.7;259456;262143;9629;;;;;;;;;;;;;;;;;;
2064.0;1985.0;;;;;;;;;;-3.707999;-59.511097;-113.670006;;;;;;;;;
2064.0;1985.0;;;;;;;0.37226477;-1.2227546;-0.04693747;;;;;;;;;;;;
2064.0;1985.0;;;;;;;;;;-9.277627;-47.338024;-109.41649;;;;;;;;;
2064.0;1985.0;;;;;;;0.37134922;-1.2148808;-0.04077273;;;;;;;;;;;;
2064.0;1987.4;;;;-0.52374274;0.57773215;0.32175067;;;;;;;;;;;;;;;
2064.0;1987.4;;;;-0.5177155;0.5752068;0.3150101;;;;;;;;;;;;;;;
2064.0;1987.4;;;;-0.51157385;0.5741692;0.3111649;;;;;;;;;;;;;;;
2064.0;1987.4;;;;-0.5052529;0.5752297;0.30995944;;;;;;;;;;;;;;;
2064.0;1987.4;;;;-0.50002295;0.57640463;0.31107333;;;;;;;;;;;;;;;
2068.0;1994.2;;;;;;;;;;-14.393292;-34.661396;-104.68993;;;;;;;;;
2068.0;1994.2;;;;;;;0.36890775;-1.205176;-0.03381451;;;;;;;;;;;;
2068.0;1994.2;;;;;;;;;;-19.047365;-22.015291;-99.82604;;;;;;;;;
2068.0;1994.2;;;;;;;0.35865352;-1.1902219;-0.031617176;;;;;;;;;;;;
2068.0;1997.1;;;;-0.49953467;0.5757714;0.30855182;;;;;;;;;;;;;;;
2068.0;1997.1;;;;-0.4983216;0.5737954;0.30148318;;;;;;;;;;;;;;;
2068.0;1997.1;;;;-0.49689108;0.5737305;0.29666904;;;;;;;;;;;;;;;
2068.0;1997.1;;;;-0.49514776;0.57389075;0.2932587;;;;;;;;;;;;;;;
2068.0;1997.1;;;;-0.49430853;0.57635504;0.29128268;;;;;;;;;;;;;;;
2068.0;2000.5;259400;262143;9629;;;;;;;;;;;;;;;;;;
2068.0;2003.9;;;;;;;;;;-23.16355;-9.544664;-94.794304;;;;;;;;;
2068.0;2003.9;;;;;;;0.34614092;-1.177343;-0.030945769;;;;;;;;;;;;
2068.0;2003.9;;;;;;;;;;-26.566362;2.2164068;-89.58708;;;;;;;;;
2068.0;2003.9;;;;;;;0.33356732;-1.1626332;-0.027527696;;;;;;;;;;;;
2068.0;2006.6;;;;;;;;;;;;;-2805;;;;;;;;
2068.0;2006.6;;;;;;;;;;;;;-2868;;;;;;;;
2068.0;2006.6;;;;;;;;;;;;;-3418;;;;;;;;
2068.0;2006.6;;;;;;;;;;;;;-3881;;;;;;;;
2068.0;2006.6;;;;;;;;;;;;;-4169;;;;;;;;
2068.0;2007.2;;;;-0.49521643;0.5833321;0.29099277;;;;;;;;;;;;;;;
2068.0;2007.2;;;;-0.4960099;0.5918732;0.29117587;;;;;;;;;;;;;;;
2068.0;2007.2;;;;-0.4961205;0.6008721;0.29140094;;;;;;;;;;;;;;;
2068.0;2007.2;;;;-0.49672705;0.61017996;0.2908173;;;;;;;;;;;;;;;
2068.0;2007.2;;;;-0.4972344;0.62076193;0.2891579;;;;;;;;;;;;;;;
2070.0;2013.5;;;;;;;;;;-29.492325;13.611256;-84.3379;;;;;;;;;
2070.0;2013.5;;;;;;;0.32093266;-1.1480453;-0.031983398;;;;;;;;;;;;
2070.0;2013.5;;;;;;;;;;-31.479843;24.319437;-78.56227;;;;;;;;;
2070.0;2013.5;;;;;;;0.30579546;-1.136021;-0.039185766;;;;;;;;;;;;
2070.0;2017.3;;;;-0.49701315;0.63296896;0.28773883;;;;;;;;;;;;;;;
2070.0;2017.3;;;;-0.49555594;0.6469689;0.2864876;;;;;;;;;;;;;;;
2070.0;2017.3;;;;-0.49533087;0.66065603;0.2837601;;;;;;;;;;;;;;;
2070.0;2017.3;;;;-0.4946862;0.6739884;0.28172687;;;;;;;;;;;;;;;
2070.0;2017.3;;;;-0.4949265;0.6880494;0.27861026;;;;;;;;;;;;;;;
2070.0;2020.8;259554;262143;9637;;;;;;;;;;;;;;;;;;
2070.0;2023.1;;;;;;;;;;-32.700584;34.04721;-72.38227;;;;;;;;;
2070.0;2023.1;;;;;;;0.28485978;-1.1291848;-0.05224769;;;;;;;;;;;;
2070.0;2023.1;;;;;;;;;;-33.268993;43.042545;-65.87421;;;;;;;;;
2070.0;2023.1;;;;;;;0.26813564;-1.122898;-0.06427198;;;;;;;;;;;;
2071.0;2025.9;;;;;;;;;;;;;;;;;26.188696;65.89328;100.59282;;1908.0
2071.0;2025.9;;;;;;;;;;;;;;-0.19953002;0.45313883;-0.2245552;;;;;1908.0
2071.0;2025.9;;;;;;;;;;;;;;;;;23.194067;39.323097;103.160194;;1908.0
2071.0;2025.9;;;;;;;;;;;;;;-0.2529374;0.50679034;-0.12634663;;;;;1908.0
2071.0;2025.9;;;;;;;;;;;;;;;;;14.236885;7.560961;106.59353;;1917.6
2071.0;2025.9;;;;;;;;;;;;;;-0.28754538;0.5249184;-0.06488235;;;;;1917.6
2071.0;2025.9;;;;;;;;;;;;;;;;;0.14877774;-16.90344;107.29545;;1917.6
2071.0;2025.9;;;;;;;;;;;;;;-0.36530656;0.5326701;-0.053590503;;;;;1917.6
2071.0;2025.9;;;;;;;;;;;;;;;;;-9.006775;-33.44066;99.65819;;1927.3
2071.0;2025.9;;;;;;;;;;;;;;-0.4958037;0.50935394;-0.09009064;;;;;1927.3
2071.0;2025.9;;;;;;;;;;;;;;;;;-4.055147;-45.37721;78.489784;;1927.3
2071.0;2025.9;;;;;;;;;;;;;;-0.5831477;0.5487228;-0.117069006;;;;;1927.3
2071.0;2026.6;;;;;;;;;;;;;;;;;3.9559617;-51.801353;58.41243;;1936.8
2071.0;2026.6;;;;;;;;;;;;;;-0.6481521;0.65218055;-0.0540788;;;;;1936.8
2071.0;2026.6;;;;;;;;;;;;;;;;;-5.394147;-55.516983;47.242653;;1936.8
2071.0;2026.6;;;;;;;;;;;;;;-0.63362527;0.7615589;0.08191168;;;;;1936.8
2071.0;2026.6;;;;;;;;;;;;;;;;;-21.80929;-65.103615;52.35069;;1946.4
2071.0;2026.6;;;;;;;;;;;;;;-0.638081;0.86538285;0.1612598;;;;;1946.4
2071.0;2026.6;;;;;;;;;;;;;;;;;-28.126621;-75.46846;80.24079;;1946.4
2071.0;2026.6;;;;;;;;;;;;;;-0.5627003;0.8588519;0.13006988;;;;;1946.4
2071.0;2026.6;;;;;;;;;;;;;;;;;-12.272256;-82.30079;115.56215;;1956.0
2071.0;2026.6;;;;;;;;;;;;;;-0.36957914;0.6837367;0.03662221;;;;;1956.0
2071.0;2026.6;;;;;;;;;;;;;;;;;5.8671837;-76.51372;124.98093;;1956.0
2071.0;2026.6;;;;;;;;;;;;;;-0.20984527;0.63075656;-0.12671286;;;;;1956.0
2072.0;2027.2;;;;-0.49565512;0.70180136;0.2759972;;;;;;;;;;;;;;;
2072.0;2027.2;;;;-0.49584585;0.715107;0.2737961;;;;;;;;;;;;;;;
2072.0;2027.2;;;;-0.4971047;0.7286301;0.2717171;;;;;;;;;;;;;;;
2072.0;2027.2;;;;-0.49865347;0.7419396;0.26985934;;;;;;;;;;;;;;;
2072.0;2027.2;;;;-0.5005036;0.75488675;0.26762775;;;;;;;;;;;;;;;
2072.0;2032.5;;;;;;;;;;-33.41014;51.09943;-59.251686;;;;;;;;;
2072.0;2032.5;;;;;;;0.2535478;-1.1131321;-0.07586902;;;;;;;;;;;;
2072.0;2032.5;;;;;;;;;;-33.177437;57.760094;-52.686394;;;;;;;;;
2072.0;2032.5;;;;;;;0.23364972;-1.1036714;-0.08575701;;;;;;;;;;;;
2072.0;2037.2;;;;-0.5009652;0.76708233;0.26603702;;;;;;;;;;;;;;;
2072.0;2037.2;;;;-0.50225455;0.7785531;0.26205447;;;;;;;;;;;;;;;
2072.0;2037.2;;;;-0.5039101;0.7902757;0.25798038;;;;;;;;;;;;;;;
2072.0;2037.2;;;;-0.5072022;0.8006631;0.25379565;;;;;;;;;;;;;;;
2072.0;2037.2;;;;-0.51131445;0.8105546;0.24903873;;;;;;;;;;;;;;;
2072.0;2040.6;259711;262143;9635;;;;;;;;;;;;;;;;;;
2072.0;2041.9;;;;;;;;;;-32.46025;63.505203;-46.09821;;;;;;;;;
2072.0;2041.9;;;;;;;0.2113712;-1.0894498;-0.09466842;;;;;;;;;;;;
2072.0;2041.9;;;;;;;;;;-31.5714;68.41105;-39.212467;;;;;;;;;
2072.0;2041.9;;;;;;;0.19306009;-1.0752891;-0.098818935;;;;;;;;;;;;
2072.0;2046.7;;;;;;;;;;;;;-4768;;;;;;;;
2072.0;2046.7;;;;;;;;;;;;;-5762;;;;;;;;
2072.0;2046.7;;;;;;;;;;;;;-6743;;;;;;;;
2072.0;2046.7;;;;;;;;;;;;;-7644;;;;;;;;
2072.0;2046.7;;;;;;;;;;;;;-8886;;;;;;;;
2187.0;2047.2;;;;-0.5153275;0.82008755;0.24385455;;;;;;;;;;;;;;;
2187.0;2047.2;;;;-0.51993567;0.82865155;0.23819354;;;;;;;;;;;;;;;
2187.0;2047.2;;;;-0.5247002;0.8336183;0.23313144;;;;;;;;;;;;;;;
2187.0;2047.2;;;;-0.52688605;0.8397752;0.22895053;;;;;;;;;;;;;;;
2187.0;2047.2;;;;-0.53397757;0.8557817;0.22924045;;;;;;;;;;;;;;;
2187.0;2051.5;;;;;;;;;;-30.209509;72.60353;-32.265694;;;;;;;;;
2187.0;2051.5;;;;;;;0.17291787;-1.056795;-0.10034486;;;;;;;;;;;;
2187.0;2051.5;;;;;;;;;;-28.469954;75.914795;-25.15488;;;;;;;;;
2187.0;2051.5;;;;;;;0.15363018;-1.0323801;-0.09808649;;;;;;;;;;;;
2187.0;2057.1;;;;-0.54059225;0.8649217;0.22414783;;;;;;;;;;;;;;;
2187.0;2057.1;;;;-0.5396195;0.87373745;0.21891788;;;;;;;;;;;;;;;
2187.0;2057.1;;;;-0.538662;0.8825151;0.21367267;;;;;;;;;;;;;;;
2187.0;2057.1;;;;-0.5405541;0.8917657;0.2094498;;;;;;;;;;;;;;;
2187.0;2057.1;;;;-0.5442963;0.90249264;0.2056618;;;;;;;;;;;;;;;
2187.0;2061.0;;;;;;;;;;-26.314585;77.929016;-18.11655;;;;;;;;;
2187.0;2061.0;;;;;;;0.13599049;-1.0055238;-0.09430219;;;;;;;;;;;;
2187.0;2061.0;;;;;;;;;;-24.17829;79.05057;-11.181218;;;;;;;;;
2187.0;2061.0;;;;;;;0.111880854;-0.9746391;-0.089236125;;;;;;;;;;;;
2187.0;2060.7;259784;262143;9652;;;;;;;;;;;;;;;;;;
2202.0;2067.2;;;;-0.54510885;0.91367733;0.20009997;;;;;;;;;;;;;;;
2202.0;2067.2;;;;-0.54793555;0.92396176;0.19191745;;;;;;;;;;;;;;;
2202.0;2067.2;;;;-0.5497437;0.9339715;0.18548585;;;;;;;;;;;;;;;
2202.0;2067.2;;;;-0.5520821;0.9515916;0.18589784;;;;;;;;;;;;;;;
2202.0;2067.2;;;;-0.5582543;0.9700891;0.18273927;;;;;;;;;;;;;;;
2202.0;2070.6;;;;;;;;;;-22.446363;79.17645;-4.325999;;;;;;;;;
2202.0;2070.6;;;;;;;0.08465835;-0.94320506;-0.081118196;;;;;;;;;;;;
2202.0;2070.6;;;;;;;;;;-20.756401;78.92849;2.601703;;;;;;;;;
2202.0;2070.6;;;;;;;0.057618946;-0.91909546;-0.07092502;;;;;;;;;;;;
2202.0;2077.4;;;;-0.56081396;0.9862062;0.18058015;;;;;;;;;;;;;;;
2202.0;2077.4;;;;-0.55925757;0.9990312;0.17966463;;;;;;;;;;;;;;;
2202.0;2077.4;;;;-0.5587159;1.0089189;0.1786728;;;;;;;;;;;;;;;
2202.0;2077.4;;;;-0.5598565;1.0225526;0.17786027;;;;;;;;;;;;;;;
2202.0;2077.4;;;;-0.5607224;1.0342332;0.1812401;;;;;;;;;;;;;;;
2202.0;2080.2;;;;;;;;;;-18.978699;78.016754;9.464553;;;;;;;;;
2202.0;2080.2;;;;;;;0.03601184;-0.90029603;-0.061708428;;;;;;;;;;;;
2202.0;2080.2;;;;;;;;;;-17.19718;76.429794;16.361736;;;;;;;;;
2202.0;2080.2;;;;;;;0.011719108;-0.89132357;-0.054200873;;;;;;;;;;;;
2202.0;2081.0;259789;262143;9654;;;;;;;;;;;;;;;;;;
2205.0;2086.1;;;;;;;;;;;;;;;;;25.288399;-57.374798;124.988556;;1965.7
2205.0;2086.1;;;;;;;;;;;;;;-0.20050661;0.63869137;-0.3382061;;;;;1965.7
2205.0;2086.1;;;;;;;;;;;;;;;;;51.847134;-32.250435;124.988556;;1965.7
2205.0;2086.1;;;;;;;;;;;;;;-0.24604023;0.7039399;-0.46601763;;;;;1965.7
2205.0;2086.1;;;;;;;;;;;;;;;;;68.048645;-8.060701;124.710075;;1975.3
2205.0;2086.1;;;;;;;;;;;;;;-0.32935575;0.86092716;-0.5360271;;;;;1975.3
2205.0;2086.1;;;;;;;;;;;;;;;;;46.792503;23.873104;117.73278;;1975.3
2205.0;2086.1;;;;;;;;;;;;;;-0.4857326;1.040498;-0.49311808;;;;;1975.3
2205.0;2086.1;;;;;;;;;;;;;;;;;9.983367;45.781578;108.046974;;1985.0
2205.0;2086.1;;;;;;;;;;;;;;-0.5714286;1.1594592;-0.54487747;;;;;1985.0
2205.0;2086.1;;;;;;;;;;;;;;;;;3.6660361;51.82043;108.12327;;1985.0
2205.0;2086.1;;;;;;;;;;;;;;-0.6208075;1.2900784;-0.5451216;;;;;1985.0
2205.0;2087.0;;;;;;;;;;;;;-10178;;;;;;;;
2205.0;2087.0;;;;;;;;;;;;;-10898;;;;;;;;
2205.0;2087.0;;;;;;;;;;;;;-11417;;;;;;;;
2205.0;2087.0;;;;;;;;;;;;;-12287;;;;;;;;
2205.0;2087.0;;;;;;;;;;;;;-12881;;;;;;;;
2205.0;2087.3;;;;-0.5615998;1.0434304;0.18068697;;;;;;;;;;;;;;;
2205.0;2087.3;;;;-0.5617104;1.0508157;0.17539598;;;;;;;;;;;;;;;
2205.0;2087.3;;;;-0.55844885;1.0570871;0.171093;;;;;;;;;;;;;;;
2205.0;2087.3;;;;-0.5524064;1.0637513;0.16825487;;;;;;;;;;;;;;;
2205.0;2087.3;;;;-0.5486031;1.0695344;0.1648369;;;;;;;;;;;;;;;
2208.0;2087.3;;;;;;;;;;;;;;;;;13.325145;31.197546;112.96045;;1994.6
2208.0;2087.3;;;;;;;;;;;;;;-0.6940519;1.4601276;-0.38776818;;;;;1994.6
2208.0;2087.3;;;;;;;;;;;;;;;;;-3.849147;-14.889218;115.17304;;1994.6
2208.0;2087.3;;;;;;;;;;;;;;-0.60646385;1.7141026;-0.20526749;;;;;1994.6
2208.0;2087.3;;;;;;;;;;;;;;;;;-64.07361;-46.09058;119.98351;;2004.1
2208.0;2087.3;;;;;;;;;;;;;;-0.47895747;1.9127781;-0.027954955;;;;;2004.1
2208.0;2087.3;;;;;;;;;;;;;;;;;-118.41945;-46.72384;120.395515;;2004.1
2208.0;2087.3;;;;;;;;;;;;;;-0.28168583;1.8314158;-0.031861324;;;;;2004.1
2208.0;2087.3;;;;;;;;;;;;;;;;;-105.2736;-24.380474;121.18518;;2013.8
2208.0;2087.3;;;;;;;;;;;;;;-0.028809473;1.4053164;-0.18414868;;;;;2013.8
2208.0;2087.3;;;;;;;;;;;;;;;;;-28.78277;8.159886;115.878784;;2013.8
2208.0;2087.3;;;;;;;;;;;;;;0.09790338;1.0329294;-0.43482772;;;;;2013.8
2208.0;2089.7;;;;;;;;;;-15.945921;73.94635;23.419142;;;;;;;;;
2208.0;2089.7;;;;;;;-0.014282662;-0.882046;-0.045350507;;;;;;;;;;;;
2208.0;2089.7;;;;;;;;;;-15.0112915;70.93265;30.652027;;;;;;;;;
2208.0;2089.7;;;;;;;-0.04181036;-0.87331766;-0.040406507;;;;;;;;;;;;
2208.0;2097.4;;;;-0.5456963;1.0738221;0.15971376;;;;;;;;;;;;;;;
2208.0;2097.4;;;;-0.5404282;1.0793;0.15006639;;;;;;;;;;;;;;;
2208.0;2097.4;;;;-0.5357705;1.0848199;0.14067079;;;;;;;;;;;;;;;
2208.0;2097.4;;;;-0.53111273;1.0890008;0.1309929;;;;;;;;;;;;;;;
2208.0;2097.4;;;;-0.52592856;1.0948297;0.121532455;;;;;;;;;;;;;;;
2208.0;2099.3;;;;;;;;;;-14.126255;67.411575;37.87347;;;;;;;;;
2208.0;2099.3;;;;;;;-0.06469924;-0.8647725;-0.026306955;;;;;;;;;;;;
2208.0;2099.3;;;;;;;;;;-13.431959;63.211464;44.854576;;;;;;;;;
2208.0;2099.3;;;;;;;-0.09063997;-0.8597064;-0.017700735;;;;;;;;;;;;
2211.0;2101.1;;;;;;;;;;;;;;;;;34.993286;44.38917;106.62405;;2023.4
2211.0;2101.1;;;;;;;;;;;;;;0.097720265;0.9159215;-0.52919096;;;;;2023.4
2211.0;2101.1;;;;;;;;;;;;;;;;;48.371838;62.826164;93.22642;;2023.4
2211.0;2101.1;;;;;;;;;;;;;;0.092837304;0.85860777;-0.44148076;;;;;2023.4
2211.0;2101.1;;;;;;;;;;;;;;;;;20.500809;49.916836;79.359566;;2033.1
2211.0;2101.1;;;;;;;;;;;;;;0.07647938;0.70619833;-0.3599353;;;;;2033.1
2211.0;2101.1;;;;;;;;;;;;;;;;;-20.157475;22.965178;58.68328;;2033.1
2211.0;2101.1;;;;;;;;;;;;;;0.07910398;0.6316721;-0.35389262;;;;;2033.1
2211.0;2101.1;;;;;;;;;;;;;;;;;-39.288765;3.055666;46.658985;;2042.7
2211.0;2101.1;;;;;;;;;;;;;;-0.007019257;0.61854917;-0.3622547;;;;;2042.7
2211.0;2101.1;;;;;;;;;;;;;;;;;-33.54366;-1.2207403;44.312874;;2042.7
2211.0;2101.1;;;;;;;;;;;;;;-0.04754784;0.6383862;-0.3274636;;;;;2042.7
2211.0;2100.9;259732;262143;9660;;;;;;;;;;;;;;;;;;
2211.0;2107.3;;;;-0.52348334;1.0999871;0.11254884;;;;;;;;;;;;;;;
2211.0;2107.3;;;;-0.5212441;1.1055871;0.103187576;;;;;;;;;;;;;;;
2211.0;2107.3;;;;-0.5189553;1.1109506;0.09529497;;;;;;;;;;;;;;;
2211.0;2107.3;;;;-0.5155373;1.1172334;0.08716584;;;;;;;;;;;;;;;
2211.0;2107.3;;;;-0.5141373;1.1231347;0.07694245;;;;;;;;;;;;;;;
2211.0;2108.7;;;;;;;;;;-12.600329;58.31706;51.77465;;;;;;;;;
2211.0;2108.7;;;;;;;-0.11548204;-0.85384685;-0.013794366;;;;;;;;;;;;
2211.0;2108.7;;;;;;;;;;-11.577959;52.6368;58.465836;;;;;;;;;
2211.0;2108.7;;;;;;;-0.14093448;-0.8512833;-0.007873775;;;;;;;;;;;;
2216.0;2117.4;;;;-0.5117875;1.1284028;0.068004616;;;;;;;;;;;;;;;
2216.0;2117.4;;;;-0.50864035;1.1350366;0.057632454;;;;;;;;;;;;;;;
2216.0;2117.4;;;;-0.5061341;1.1426202;0.04760743;;;;;;;;;;;;;;;
2216.0;2117.4;;;;-0.50207144;1.14983;0.036342625;;;;;;;;;;;;;;;
2216.0;2117.4;;;;-0.4982186;1.1569444;0.0226326;;;;;;;;;;;;;;;
2216.0;2118.4;;;;;;;;;;-10.479293;46.182133;64.882355;;;;;;;;;
2216.0;2118.4;;;;;;;-0.16187018;-0.83999145;-0.0013428144;;;;;;;;;;;;
2216.0;2118.4;;;;;;;;;;-9.300516;39.162876;70.87542;;;;;;;;;
2216.0;2118.4;;;;;;;-0.17767876;-0.8269295;0.006836146;;;;;;;;;;;;
2216.0;2121.1;259549;262143;9661;;;;;;;;;;;;;;;;;;
2216.0;2127.2;;;;;;;;;;;;;-12445;;;;;;;;
2216.0;2127.2;;;;;;;;;;;;;-11521;;;;;;;;
2216.0;2127.2;;;;;;;;;;;;;-10983;;;;;;;;
2216.0;2127.2;;;;;;;;;;;;;-10794;;;;;;;;
2216.0;2127.2;;;;;;;;;;;;;-10292;;;;;;;;
2216.0;2127.5;;;;-0.4950257;1.1638299;0.008735658;;;;;;;;;;;;;;;
2216.0;2127.5;;;;-0.49108893;1.1706125;-0.0061798105;;;;;;;;;;;;;;;
2216.0;2127.5;;;;-0.48625952;1.1786462;-0.021743776;;;;;;;;;;;;;;;
2216.0;2127.5;;;;-0.4825135;1.1864702;-0.036529545;;;;;;;;;;;;;;;
2216.0;2127.5;;;;-0.47668844;1.194832;-0.05193711;;;;;;;;;;;;;;;
2216.0;2128.0;;;;;;;;;;-8.114109;31.880398;76.44505;;;;;;;;;
2216.0;2128.0;;;;;;;-0.1864681;-0.81392866;0.015686514;;;;;;;;;;;;
2216.0;2128.0;;;;;;;;;;-6.920072;24.231697;81.65608;;;;;;;;;
2216.0;2128.0;;;;;;;-0.18854335;-0.80007327;0.029175695;;;;;;;;;;;;
2218.0;2137.6;;;;;;;;;;-5.8900723;16.159552;86.62679;;;;;;;;;
2218.0;2137.6;;;;;;;-0.18311106;-0.7907956;0.039185766;;;;;;;;;;;;
2218.0;2137.6;;;;;;;;;;-5.035554;7.8470716;91.32282;;;;;;;;;
2218.0;2137.6;;;;;;;-0.17523728;-0.7840205;0.0496231;;;;;;;;;;;;
2218.0;2137.7;;;;-0.47168356;1.2027322;-0.06698609;;;;;;;;;;;;;;;
2218.0;2137.7;;;;-0.46721274;1.212845;-0.08011628;;;;;;;;;;;;;;;
2218.0;2137.7;;;;-0.4625092;1.221943;-0.094066635;;;;;;;;;;;;;;;
2218.0;2137.7;;;;-0.4581223;1.2308236;-0.10494234;;;;;;;;;;;;;;;
2218.0;2137.7;;;;-0.45273215;1.2412606;-0.115741745;;;;;;;;;;;;;;;
2218.0;2141.4;259274;262143;9644;;;;;;;;;;;;;;;;;;
2218.0;2146.5;;;;;;;;;;;;;;;;;-23.491623;3.1701102;45.129246;;2052.3
2218.0;2146.5;;;;;;;;;;;;;;-0.038575396;0.64766383;-0.2548906;;;;;2052.3
2218.0;2146.5;;;;;;;;;;;;;;;;;-18.765068;6.6873684;44.583725;;2052.3
2218.0;2146.5;;;;;;;;;;;;;;-0.013794366;0.65614796;-0.2327952;;;;;2052.3
2218.0;2146.5;;;;;;;;;;;;;;;;;-15.587329;11.024812;41.85995;;2061.9
2218.0;2146.5;;;;;;;;;;;;;;0.008850368;0.65449995;-0.2575152;;;;;2061.9
2218.0;2146.5;;;;;;;;;;;;;;;;;-10.43733;19.684439;38.403732;;2061.9
2218.0;2146.5;;;;;;;;;;;;;;0.014648885;0.6527909;-0.31537828;;;;;2061.9
2218.0;2146.5;;;;;;;;;;;;;;;;;0.46922207;30.087435;36.099583;;2071.5
2218.0;2146.5;;;;;;;;;;;;;;0.00860622;0.6585894;-0.3942381;;;;;2071.5
2218.0;2146.5;;;;;;;;;;;;;;;;;18.066957;38.083286;37.5721;;2071.5
2218.0;2146.5;;;;;;;;;;;;;;-0.017883847;0.6728721;-0.45008698;;;;;2071.5
2220.0;2147.1;;;;;;;;;;-4.3908505;-0.43488875;95.91586;;;;;;;;;
2220.0;2147.1;;;;;;;-0.16272469;-0.78395945;0.061342206;;;;;;;;;;;;
2220.0;2147.1;;;;;;;;;;-3.7728508;-8.388776;100.44785;;;;;;;;;
2220.0;2147.1;;;;;;;-0.14532915;-0.7902463;0.07361065;;;;;;;;;;;;
2220.0;2147.6;;;;-0.44465643;1.2524644;-0.12506486;;;;;;;;;;;;;;;
2220.0;2147.6;;;;-0.43791968;1.2643434;-0.13432314;;;;;;;;;;;;;;;
2220.0;2147.6;;;;-0.4315682;1.2783166;-0.14233781;;;;;;;;;;;;;;;
2220.0;2147.6;;;;-0.4249001;1.2901765;-0.15167238;;;;;;;;;;;;;;;
2220.0;2147.6;;;;-0.41904455;1.3015596;-0.15968706;;;;;;;;;;;;;;;
2220.0;2156.7;;;;;;;;;;-3.295999;-16.201513;104.853966;;;;;;;;;
2220.0;2156.7;;;;;;;-0.12652974;-0.79964596;0.08343761;;;;;;;;;;;;
2220.0;2156.7;;;;;;;;;;-3.0098882;-23.426771;109.16471;;;;;;;;;
2220.0;2156.7;;;;;;;-0.10235908;-0.81191444;0.093264565;;;;;;;;;;;;
2220.0;2157.7;;;;-0.41133887;1.3137704;-0.16791536;;;;;;;;;;;;;;;
2220.0;2157.7;;;;-0.4052201;1.3268472;-0.17316057;;;;;;;;;;;;;;;
2220.0;2157.7;;;;-0.3998757;1.338936;-0.17821886;;;;;;;;;;;;;;;
2220.0;2157.7;;;;-0.39357;1.3530504;-0.18444444;;;;;;;;;;;;;;;
2220.0;2157.7;;;;-0.3865052;1.3656541;-0.18890002;;;;;;;;;;;;;;;
2221.0;2161.6;;;;;;;;;;;;;;;;;32.78451;40.215763;39.58632;;2081.2
2221.0;2161.6;;;;;;;;;;;;;;-0.08087405;0.73390913;-0.4685812;;;;;2081.2
2221.0;2161.6;;;;;;;;;;;;;;;;;37.339397;40.45991;42.828915;;2081.2
2221.0;2161.6;;;;;;;;;;;;;;-0.13812678;0.79244363;-0.46339306;;;;;2081.2
2221.0;2161.6;;;;;;;;;;;;;;;;;37.07236;40.29206;48.22306;;2090.8
2221.0;2161.6;;;;;;;;;;;;;;-0.1530198;0.84719384;-0.43848994;;;;;2090.8
2221.0;2161.6;;;;;;;;;;;;;;;;;36.107212;41.039764;52.369762;;2090.8
2221.0;2161.6;;;;;;;;;;;;;;-0.16693625;0.9079867;-0.38819546;;;;;2090.8
2221.0;2161.6;;;;;;;;;;;;;;;;;31.838436;40.69643;54.040653;;2100.4
2221.0;2161.6;;;;;;;;;;;;;;-0.18298899;0.96591085;-0.3607898;;;;;2100.4
2221.0;2161.6;;;;;;;;;;;;;;;;;24.601734;39.036987;54.38017;;2100.4
2221.0;2161.6;;;;;;;;;;;;;;-0.18335521;1.0047914;-0.35572374;;;;;2100.4
2221.0;2161.5;258864;262143;9620;;;;;;;;;;;;;;;;;;
2221.0;2166.2;;;;;;;;;;-2.7390363;-30.125584;113.31522;;;;;;;;;
2221.0;2166.2;;;;;;;-0.07678457;-0.826075;0.100405894;;;;;;;;;;;;
2221.0;2166.2;;;;;;;;;;-2.6207771;-36.301765;117.38182;;;;;;;;;
2221.0;2166.2;;;;;;;-0.052919097;-0.8400525;0.10858486;;;;;;;;;;;;
2221.0;2167.5;;;;;;;;;;;;;-9390;;;;;;;;
2221.0;2167.5;;;;;;;;;;;;;-9098;;;;;;;;
2221.0;2167.5;;;;;;;;;;;;;-9418;;;;;;;;
2221.0;2167.5;;;;;;;;;;;;;-8945;;;;;;;;
2221.0;2167.5;;;;;;;;;;;;;-7565;;;;;;;;
2246.0;2167.7;;;;-0.38093954;1.3766748;-0.19059756;;;;;;;;;;;;;;;
2246.0;2167.7;;;;-0.37662894;1.3881265;-0.19358829;;;;;;;;;;;;;;;
2246.0;2167.7;;;;-0.37206653;1.4000818;-0.19617465;;;;;;;;;;;;;;;
2246.0;2167.7;;;;-0.3679619;1.4130555;-0.1960564;;;;;;;;;;;;;;;
2246.0;2167.7;;;;-0.36306766;1.4238931;-0.19509509;;;;;;;;;;;;;;;
2246.0;2175.4;;;;;;;;;;-2.4491103;-41.913357;121.24622;;;;;;;;;
2246.0;2175.4;;;;;;;-0.029847102;-0.85189366;0.11810663;;;;;;;;;;;;
2246.0;2175.4;;;;;;;;;;-2.2431104;-46.89169;124.046295;;;;;;;;;
2246.0;2175.4;;;;;;;-0.009399701;-0.8611713;0.12585834;;;;;;;;;;;;
2246.0;2177.3;;;;-0.35751346;1.4343492;-0.19345096;;;;;;;;;;;;;;;
2246.0;2177.3;;;;-0.3537064;1.4444162;-0.19197085;;;;;;;;;;;;;;;
2246.0;2177.3;;;;-0.34806064;1.4513131;-0.18971255;;;;;;;;;;;;;;;
2246.0;2177.3;;;;-0.34186557;1.4596292;-0.18781665;;;;;;;;;;;;;;;
2246.0;2177.3;;;;-0.33902743;1.468937;-0.18538667;;;;;;;;;;;;;;;
2246.0;2181.0;258098;262143;9589;;;;;;;;;;;;;;;;;;
2246.0;2184.8;;;;;;;;;;-2.0561848;-51.221504;124.86266;;;;;;;;;
2246.0;2184.8;;;;;;;0.0073244423;-0.86953336;0.13110752;;;;;;;;;;;;
2246.0;2184.8;;;;;;;;;;-1.945555;-54.837944;124.881744;;;;;;;;;
2246.0;2184.8;;;;;;;0.027161473;-0.8799707;0.13361004;;;;;;;;;;;;
2248.0;2187.3;;;;-0.3339043;1.4798738;-0.1829033;;;;;;;;;;;;;;;
2248.0;2187.3;;;;-0.32878116;1.4869157;-0.1810608;;;;;;;;;;;;;;;
2248.0;2187.3;;;;-0.3218384;1.4946862;-0.17704393;;;;;;;;;;;;;;;
2248.0;2187.3;;;;-0.31805804;1.4981767;-0.17331697;;;;;;;;;;;;;;;
2248.0;2187.3;;;;-0.31237414;1.4997102;-0.16871645;;;;;;;;;;;;;;;
2248.0;2194.5;;;;;;;;;;-1.865444;-57.992798;124.881744;;;;;;;;;
2248.0;2194.5;;;;;;;0.048036136;-0.88747823;0.1342204;;;;;;;;;;;;
2248.0;2194.5;;;;;;;;;;-1.9188513;-60.281685;124.881744;;;;;;;;;
2248.0;2194.5;;;;;;;0.065858945;-0.89638966;0.13281655;;;;;;;;;;;;
2248.0;2197.4;;;;-0.30549625;1.5049555;-0.16632463;;;;;;;;;;;;;;;
2248.0;2197.4;;;;-0.30503467;1.5105517;-0.16252519;;;;;;;;;;;;;;;
2248.0;2197.4;;;;-0.30651858;1.5129702;-0.16474916;;;;;;;;;;;;;;;
2248.0;2197.4;;;;-0.30616382;1.514271;-0.16085817;;;;;;;;;;;;;;;
2248.0;2197.4;;;;-0.30229953;1.5155032;-0.15628816;;;;;;;;;;;;;;;
2248.0;2201.3;257143;262143;9555;;;;;;;;;;;;;;;;;;
2248.0;2204.1;;;;;;;;;;-2.0371106;-62.047943;124.881744;;;;;;;;;
2248.0;2204.1;;;;;;;0.087343976;-0.90755945;0.13293862;;;;;;;;;;;;
2248.0;2204.1;;;;;;;;;;-2.3308513;-63.325905;124.881744;;;;;;;;;
2248.0;2204.1;;;;;;;0.10809656;-0.91866815;0.1340373;;;;;;;;;;;;
2250.0;2206.7;;;;;;;;;;;;;;;;;15.457625;37.46147;54.773094;;2110.1
2250.0;2206.7;;;;;;;;;;;;;;-0.19989623;1.0267648;-0.37372968;;;;;2110.1
2250.0;2206.7;;;;;;;;;;;;;;;;;6.9277015;36.618397;54.81887;;2110.1
2250.0;2206.7;;;;;;;;;;;;;;-0.21320231;1.020722;-0.3965575;;;;;2110.1
2250.0;2206.7;;;;;;;;;;;;;;;;;0.7705924;35.302284;53.941467;;2119.8
2250.0;2206.7;;;;;;;;;;;;;;-0.23566394;0.9929502;-0.40449232;;;;;2119.8
2250.0;2206.7;;;;;;;;;;;;;;;;;-3.3913696;32.124546;51.84332;;2119.8
2250.0;2206.7;;;;;;;;;;;;;;-0.27246925;0.9693899;-0.39582506;;;;;2119.8
2250.0;2206.7;;;;;;;;;;;;;;;;;-5.0050354;27.25303;47.307507;;2129.5
2250.0;2206.7;;;;;;;;;;;;;;-0.29187903;1.0028993;-0.3884396;;;;;2129.5
2250.0;2206.7;;;;;;;;;;;;;;;;;-4.257332;23.86166;41.901913;;2129.5
2250.0;2206.7;;;;;;;;;;;;;;-0.3180639;1.0342113;-0.38917205;;;;;2129.5
2250.0;2207.2;;;;;;;;;;;;;-7592;;;;;;;;
2250.0;2207.2;;;;;;;;;;;;;-11955;;;;;;;;
2250.0;2207.2;;;;;;;;;;;;;-19790;;;;;;;;
2250.0;2207.2;;;;;;;;;;;;;-24936;;;;;;;;
2250.0;2207.2;;;;;;;;;;;;;-21773;;;;;;;;
2250.0;2207.4;;;;-0.29779056;1.5165637;-0.15212251;;;;;;;;;;;;;;;
2250.0;2207.4;;;;-0.29098132;1.5180972;-0.14732744;;;;;;;;;;;;;;;
2250.0;2207.4;;;;-0.28413394;1.5201724;-0.14310075;;;;;;;;;;;;;;;
2250.0;2207.4;;;;-0.2769852;1.518719;-0.1398163;;;;;;;;;;;;;;;
2250.0;2207.4;;;;-0.2680054;1.5171511;-0.13255693;;;;;;;;;;;;;;;
2250.0;2213.6;;;;;;;;;;-2.6741846;-64.00113;124.881744;;;;;;;;;
2250.0;2213.6;;;;;;;0.13086337;-0.9263588;0.13830988;;;;;;;;;;;;
2250.0;2213.6;;;;;;;;;;-3.151036;-63.840904;124.881744;;;;;;;;;
2250.0;2213.6;;;;;;;0.15369122;-0.9382;0.14404736;;;;;;;;;;;;
2251.0;2217.5;;;;-0.26207355;1.5132678;-0.1293297;;;;;;;;;;;;;;;
2251.0;2217.5;;;;-0.2573891;1.5074389;-0.12600328;;;;;;;;;;;;;;;
2251.0;2217.5;;;;-0.25457004;1.501961;-0.12309648;;;;;;;;;;;;;;;
2251.0;2217.5;;;;-0.24959186;1.4974328;-0.12117387;;;;;;;;;;;;;;;
2251.0;2217.5;;;;-0.24112323;1.4927675;-0.12044908;;;;;;;;;;;;;;;
2251.0;2221.4;;;;;;;;;;;;;;;;;-3.9788508;22.892696;37.335583;;2139.1
2251.0;2221.4;;;;;;;;;;;;;;-0.34571368;1.0935392;-0.3751335;;;;;2139.1
2251.0;2221.4;;;;;;;;;;;;;;;;;-5.53148;23.194067;34.962765;;2139.1
2251.0;2221.4;;;;;;;;;;;;;;-0.3645741;1.1236305;-0.37403485;;;;;2139.1
2251.0;2221.4;;;;;;;;;;;;;;;;;-7.255776;22.73629;36.931213;;2148.7
2251.0;2221.4;;;;;;;;;;;;;;-0.34736168;1.1343119;-0.3579211;;;;;2148.7
2251.0;2221.4;;;;;;;;;;;;;;;;;-12.607959;21.774958;44.137398;;2148.7
2251.0;2221.4;;;;;;;;;;;;;;-0.26197088;1.0723594;-0.36927396;;;;;2148.7
2251.0;2221.4;;;;;;;;;;;;;;;;;-17.956327;21.965698;47.189247;;2158.3
2251.0;2221.4;;;;;;;;;;;;;;-0.18890958;0.9997864;-0.40876493;;;;;2158.3
2251.0;2221.4;;;;;;;;;;;;;;;;;-17.487106;20.46266;46.73147;;2158.3
2251.0;2221.4;;;;;;;;;;;;;;-0.16052736;0.9927671;-0.46040222;;;;;2158.3
2251.0;2221.2;256164;262143;9520;;;;;;;;;;;;;;;;;;
2251.0;2223.0;;;;;;;;;;-3.6927397;-62.990204;124.881744;;;;;;;;;
2251.0;2223.0;;;;;;;0.17126988;-0.9519333;0.1477096;;;;;;;;;;;;
2251.0;2223.0;;;;;;;;;;-4.360332;-61.635944;124.881744;;;;;;;;;
2251.0;2223.0;;;;;;;0.18939787;-0.9670095;0.15088351;;;;;;;;;;;;
2308.0;2227.4;;;;-0.2368088;1.4881021;-0.11940767;;;;;;;;;;;;;;;
2308.0;2227.4;;;;-0.23550418;1.4862176;-0.11937334;;;;;;;;;;;;;;;
2308.0;2227.4;;;;-0.23493198;1.4835321;-0.117568985;;;;;;;;;;;;;;;
2308.0;2227.4;;;;-0.23412326;1.4762574;-0.11736299;;;;;;;;;;;;;;;
2308.0;2227.4;;;;-0.2325516;1.4689828;-0.118576065;;;;;;;;;;;;;;;
2308.0;2232.3;;;;;;;;;;-5.115665;-59.781948;124.881744;;;;;;;;;
2308.0;2232.3;;;;;;;0.2074038;-0.98171943;0.15088351;;;;;;;;;;;;
2308.0;2232.3;;;;;;;;;;-5.8442945;-57.16498;124.881744;;;;;;;;;
2308.0;2232.3;;;;;;;0.21851254;-0.9983825;0.15131077;;;;;;;;;;;;
2308.0;2237.1;;;;-0.22901157;1.4685022;-0.117446914;;;;;;;;;;;;;;;
2308.0;2237.1;;;;-0.22558597;1.4666253;-0.11634828;;;;;;;;;;;;;;;
2308.0;2237.1;;;;-0.22544101;1.462475;-0.11520387;;;;;;;;;;;;;;;
2308.0;2237.1;;;;-0.22835162;1.4568902;-0.11411287;;;;;;;;;;;;;;;
2308.0;2237.1;;;;-0.22969821;1.4552461;-0.11407854;;;;;;;;;;;;;;;
2308.0;2241.1;255291;262143;9483;;;;;;;;;;;;;;;;;;
2308.0;2241.8;;;;;;;;;;-6.5805535;-54.277172;124.881744;;;;;;;;;
2308.0;2241.8;;;;;;;0.2320017;-1.0129703;0.14923552;;;;;;;;;;;;
2308.0;2241.8;;;;;;;;;;-7.351146;-50.836205;124.881744;;;;;;;;;
2308.0;2241.8;;;;;;;0.24152349;-1.0276192;0.14801477;;;;;;;;;;;;
2308.0;2247.1;;;;;;;;;;;;;-11343;;;;;;;;
2308.0;2247.1;;;;;;;;;;;;;-858;;;;;;;;
2308.0;2247.1;;;;;;;;;;;;;3454;;;;;;;;
2308.0;2247.1;;;;;;;;;;;;;1953;;;;;;;;
2308.0;2247.1;;;;;;;;;;;;;-662;;;;;;;;
2309.0;2247.2;;;;-0.22903064;1.4578096;-0.11555101;;;;;;;;;;;;;;;
2309.0;2247.2;;;;-0.22857669;1.4604264;-0.11539079;;;;;;;;;;;;;;;
2309.0;2247.2;;;;-0.22475055;1.4623986;-0.11506273;;;;;;;;;;;;;;;
2309.0;2247.2;;;;-0.2245026;1.4607965;-0.11778261;;;;;;;;;;;;;;;
2309.0;2247.2;;;;-0.22472003;1.4629174;-0.11698915;;;;;;;;;;;;;;;
2309.0;2251.5;;;;;;;;;;-8.217109;-47.032837;124.881744;;;;;;;;;
2309.0;2251.5;;;;;;;0.24976349;-1.0448316;0.14618365;;;;;;;;;;;;
2309.0;2251.5;;;;;;;;;;-9.071627;-43.04636;124.881744;;;;;;;;;
2309.0;2251.5;;;;;;;0.25714895;-1.0591754;0.14307077;;;;;;;;;;;;
2309.0;2257.3;;;;-0.22196963;1.467476;-0.11590196;;;;;;;;;;;;;;;
2309.0;2257.3;;;;-0.22303775;1.4670526;-0.11975862;;;;;;;;;;;;;;;
2309.0;2257.3;;;;-0.2213135;1.4622537;-0.118244186;;;;;;;;;;;;;;;
2309.0;2257.3;;;;-0.22417071;1.4601518;-0.11716081;;;;;;;;;;;;;;;
2309.0;2257.3;;;;-0.22589877;1.4622461;-0.11835481;;;;;;;;;;;;;;;
2309.0;2261.1;;;;;;;;;;-9.92233;-39.052246;124.881744;;;;;;;;;
2309.0;2261.1;;;;;;;0.26392406;-1.0745567;0.14093448;;;;;;;;;;;;
2309.0;2261.1;;;;;;;;;;-10.715812;-34.619434;124.881744;;;;;;;;;
2309.0;2261.1;;;;;;;0.26947844;-1.088046;0.13745537;;;;;;;;;;;;
2309.0;2261.4;254599;262143;9457;;;;;;;;;;;;;;;;;;
2310.0;2266.4;;;;;;;;;;;;;;;;;-16.850033;20.138401;49.85961;;2167.9
2310.0;2266.4;;;;;;;;;;;;;;-0.11694693;0.99465925;-0.48951688;;;;;2167.9
2310.0;2266.4;;;;;;;;;;;;;;;;;-17.113253;19.142736;54.097874;;2167.9
2310.0;2266.4;;;;;;;;;;;;;;-0.074892424;0.997467;-0.4771264;;;;;2167.9
2310.0;2266.4;;;;;;;;;;;;;;;;;-19.577623;14.530625;56.772057;;2177.5
2310.0;2266.4;;;;;;;;;;;;;;-0.039185766;1.0172429;-0.4667501;;;;;2177.5
2310.0;2266.4;;;;;;;;;;;;;;;;;-22.015291;9.681997;58.85876;;2177.5
2310.0;2266.4;;;;;;;;;;;;;;-0.007934812;1.029023;-0.46028015;;;;;2177.5
2310.0;2266.4;;;;;;;;;;;;;;;;;-22.73629;7.6448865;60.338905;;2187.1
2310.0;2266.4;;;;;;;;;;;;;;0.009338664;1.0135196;-0.46290475;;;;;2187.1
2310.0;2266.4;;;;;;;;;;;;;;;;;-21.317179;7.721183;61.56346;;2187.1
2310.0;2266.4;;;;;;;;;;;;;;0.01617481;1.0117496;-0.4697409;;;;;2187.1
2310.0;2267.3;;;;-0.22907642;1.4663774;-0.11888124;;;;;;;;;;;;;;;
2310.0;2267.3;;;;-0.23356631;1.4644624;-0.11833574;;;;;;;;;;;;;;;
2310.0;2267.3;;;;-0.23424914;1.4634286;-0.11451723;;;;;;;;;;;;;;;
2310.0;2267.3;;;;-0.23622516;1.4632074;-0.11209871;;;;;;;;;;;;;;;
2310.0;2267.3;;;;-0.23585513;1.4638101;-0.10917665;;;;;;;;;;;;;;;
2310.0;2270.6;;;;;;;;;;-11.661885;-30.026398;124.881744;;;;;;;;;
