patientId;holterMac;flexMac;;;;;;;;;;;;;;;;;;;;
;CA:F3:0B:1E:33:78;D3:4A:5C:52:80:78;;;;;;;;;;;;;;;;;;;;
receivedTimeStamp;timeStamp;red;ir;green;adxl_accX;adxl_accY;adxl_accZ;lsm_accelX;lsm_accelY;lsm_accelZ;lsm_gyroX;lsm_gyroY;lsm_gyroZ;ecg;flex_lsm_accelX;flex_lsm_accelY;flex_lsm_accelZ;flex_lsm_gyroX;flex_lsm_gyroY;flex_lsm_gyroZ;flex_cmd;flexTimeStamp
288.0;214.0;;;;;;;;;;;;;;;;;;;;17;0.1
288.0;214.0;;;;;;;;;;;;;;;;;13.088626;0.34333324;1.0414442;;127.5
288.0;214.0;;;;;;;;;;;;;;0.93710136;0.29657888;-0.38770714;;;;;127.5
288.0;214.0;;;;;;;;;;;;;;;;;-4.3488874;-16.888182;-7.5228124;;127.5
288.0;214.0;;;;;;;;;;;;;;1.0030214;0.37916195;-0.36384168;;;;;127.5
288.0;214.0;;;;;;;;;;;;;;;;;-61.29261;-84.87961;-57.626575;;137.1
288.0;214.0;;;;;;;;;;;;;;1.0264596;0.44166386;-0.33210242;;;;;137.1
288.0;214.0;;;;;;;;;;;;;;;;;-121.67348;-124.988556;-117.47337;;137.1
288.0;214.0;;;;;;;;;;;;;;1.0232856;0.48304698;-0.2989593;;;;;137.1
352.0;214.8;;;;;;;;;;;;;;;;;-52.95343;-124.988556;-62.85668;;146.8
352.0;214.8;;;;;;;;;;;;;;1.0100406;0.537553;-0.2903531;;;;;146.8
352.0;214.8;;;;;;;;;;;;;;;;;17.883846;-124.988556;3.7575915;;146.8
352.0;214.8;;;;;;;;;;;;;;0.9531541;0.59450054;-0.28022096;;;;;146.8
352.0;214.8;;;;;;;;;;;;;;;;;8.339183;-100.62334;16.407515;;156.5
352.0;214.8;;;;;;;;;;;;;;0.9048738;0.6252632;-0.27332377;;;;;156.5
352.0;214.8;;;;;;;;;;;;;;;;;-5.611591;-21.679586;39.52147;;156.5
352.0;214.8;;;;;;;;;;;;;;0.8374279;0.60438854;-0.27997681;;;;;156.5
352.0;214.8;;;;;;;;;;;;;;;;;-13.760033;-17.365032;38.335064;;166.0
352.0;214.8;;;;;;;;;;;;;;0.8428602;0.636433;-0.22711875;;;;;166.0
352.0;214.8;;;;;;;;;;;;;;;;;-21.954254;-17.147587;35.996582;;166.0
352.0;214.8;;;;;;;;;;;;;;0.7893307;0.5844905;-0.21527757;;;;;166.0
352.0;274.8;;;;;;;;;;;;;;;;;-28.546251;-18.024994;35.05432;;175.7
352.0;274.8;;;;;;;;;;;;;;0.78615683;0.53346354;-0.22370067;;;;;175.7
352.0;274.8;;;;;;;;;;;;;;;;;-34.058655;-17.662586;34.61562;;175.7
352.0;274.8;;;;;;;;;;;;;;0.7712638;0.50935394;-0.22321238;;;;;175.7
352.0;274.8;;;;;;;;;;;;;;;;;-39.208652;-17.540512;35.04669;;185.4
352.0;274.8;;;;;;;;;;;;;;0.76827294;0.45503098;-0.22107609;;;;;185.4
352.0;274.8;;;;;;;;;;;;;;;;;-43.20658;-17.941069;35.63036;;185.4
352.0;274.8;;;;;;;;;;;;;;0.7694937;0.41834772;-0.23303933;;;;;185.4
352.0;274.8;;;;;;;;;;;;;;;;;-44.892727;-19.318218;36.530655;;195.0
352.0;274.8;;;;;;;;;;;;;;0.8006836;0.37568286;-0.24573503;;;;;195.0
352.0;274.8;;;;;;;;;;;;;;;;;-44.434948;-20.260475;38.167213;;195.0
352.0;274.8;;;;;;;;;;;;;;0.8433485;0.32093266;-0.25818658;;;;;195.0
468.0;276.0;;;;;;;;;;;;;;;;;-42.13843;-19.661549;39.906765;;204.7
468.0;276.0;;;;;;;;;;;;;;0.85482347;0.26172674;-0.26502272;;;;;204.7
468.0;276.0;;;;;;;;;;;;;;;;;-38.327435;-19.787437;41.34495;;204.7
468.0;276.0;;;;;;;;;;;;;;0.8838771;0.19580676;-0.2807703;;;;;204.7
468.0;276.0;;;;;;;;;;;;;;;;;-33.650475;-19.60814;42.97769;;214.3
468.0;276.0;;;;;;;;;;;;;;0.8973052;0.14178899;-0.28504288;;;;;214.3
468.0;276.0;;;;;;;;;;;;;;;;;-29.190954;-19.676807;45.209354;;214.3
468.0;276.0;;;;;;;;;;;;;;0.9049348;0.09729301;-0.2794885;;;;;214.3
468.0;276.0;;;;;;;;;;;;;;;;;-24.99466;-20.199438;47.50969;;224.0
468.0;276.0;;;;;;;;;;;;;;0.918363;0.06714072;-0.28058717;;;;;224.0
468.0;276.0;;;;;;;;;;;;;;;;;-20.47029;-19.85229;49.52391;;224.0
468.0;276.0;;;;;;;;;;;;;;0.9092685;0.023499252;-0.27149266;;;;;224.0
468.0;342.8;;;;;;;;;;;;;;;;;-14.923552;-19.795067;50.85528;;233.7
468.0;342.8;;;;;;;;;;;;;;0.9139073;-0.013672292;-0.28199103;;;;;233.7
468.0;342.8;;;;;;;;;;;;;;;;;-8.655812;-19.482254;51.652576;;233.7
468.0;342.8;;;;;;;;;;;;;;0.93057036;-0.04174932;-0.25086215;;;;;233.7
468.0;342.8;;;;;;;;;;;;;;;;;-2.5482955;-18.03644;51.9158;;243.2
468.0;342.8;;;;;;;;;;;;;;0.92751855;0.015930662;-0.22382274;;;;;243.2
468.0;342.8;;;;;;;;;;;;;;;;;2.212592;-16.640219;51.45421;;243.2
468.0;342.8;;;;;;;;;;;;;;0.9022492;-0.0018921476;-0.20606098;;;;;243.2
468.0;342.8;;;;;;;;;;;;;;;;;8.1827755;-16.853848;50.180058;;252.9
468.0;342.8;;;;;;;;;;;;;;0.9126865;-0.042115543;-0.21637623;;;;;252.9
468.0;342.8;;;;;;;;;;;;;;;;;14.881589;-16.613514;48.718987;;252.9
468.0;342.8;;;;;;;;;;;;;;0.92965484;-0.019104587;-0.22449416;;;;;252.9
470.0;343.6;;;;;;;;;;;;;;;;;19.547104;-15.488144;47.23884;;262.6
470.0;343.6;;;;;;;;;;;;;;0.9242225;0.02478103;-0.19122899;;;;;262.6
470.0;343.6;;;;;;;;;;;;;;;;;22.972807;-15.404218;46.040985;;262.6
470.0;343.6;;;;;;;;;;;;;;0.93081456;0.052552875;-0.18366039;;;;;262.6
470.0;343.6;;;;;;;;;;;;;;;;;26.463364;-15.36607;44.999542;;272.2
470.0;343.6;;;;;;;;;;;;;;0.93960387;0.075319685;-0.19220558;;;;;272.2
470.0;343.6;;;;;;;;;;;;;;;;;29.553362;-15.13718;43.809322;;272.2
470.0;343.6;;;;;;;;;;;;;;0.94009215;0.08087405;-0.19000824;;;;;272.2
470.0;343.6;;;;;;;;;;;;;;;;;32.16651;-15.160069;42.24906;;281.8
470.0;343.6;;;;;;;;;;;;;;0.93447673;0.10730308;-0.18469802;;;;;281.8
470.0;343.6;;;;;;;;;;;;;;;;;33.684807;-15.030366;40.555283;;281.8
470.0;343.6;;;;;;;;;;;;;;0.93343914;0.13269448;-0.18634602;;;;;281.8
470.0;410.3;;;;;;;;;;;;;;;;;34.493546;-14.690847;38.880585;;291.5
470.0;410.3;;;;;;;;;;;;;;0.9191565;0.17481002;-0.18317209;;;;;291.5
470.0;410.3;;;;;;;;;;;;;;;;;33.94421;-14.690847;37.518692;;291.5
470.0;410.3;;;;;;;;;;;;;;0.9168981;0.22351757;-0.17450483;;;;;291.5
470.0;410.3;;;;;;;;;;;;;;;;;32.395397;-14.885404;36.404766;;301.1
470.0;410.3;;;;;;;;;;;;;;0.91671497;0.26422927;-0.16357921;;;;;301.1
470.0;410.3;;;;;;;;;;;;;;;;;29.858547;-14.683218;35.45106;;301.1
470.0;410.3;;;;;;;;;;;;;;0.90231025;0.2993866;-0.16022217;;;;;301.1
470.0;410.3;;;;;;;;;;;;;;;;;26.757103;-14.557329;35.050507;;310.7
470.0;410.3;;;;;;;;;;;;;;0.896939;0.31617177;-0.15295877;;;;;310.7
470.0;410.3;;;;;;;;;;;;;;;;;23.709066;-14.519181;34.38673;;310.7
470.0;410.3;;;;;;;;;;;;;;0.8872341;0.31849116;-0.1563158;;;;;310.7
532.0;411.1;;;;;;;;;;;;;;;;;20.741142;-14.370403;33.337658;;320.3
532.0;411.1;;;;;;;;;;;;;;0.8780786;0.31122777;-0.16156499;;;;;320.3
532.0;411.1;;;;;;;;;;;;;;;;;17.876217;-14.084292;32.30003;;320.3
532.0;411.1;;;;;;;;;;;;;;0.86751914;0.31611073;-0.16980499;;;;;320.3
532.0;411.1;;;;;;;;;;;;;;;;;15.003662;-13.603626;31.373028;;330.0
532.0;411.1;;;;;;;;;;;;;;0.85714287;0.3122654;-0.1767632;;;;;330.0
532.0;411.1;;;;;;;;;;;;;;;;;12.119663;-13.023774;30.93051;;330.0
532.0;411.1;;;;;;;;;;;;;;0.8460341;0.3101291;-0.17017122;;;;;330.0
532.0;411.1;;;;;;;;;;;;;;;;;9.647664;-12.840663;30.972471;;339.7
532.0;411.1;;;;;;;;;;;;;;0.8398694;0.30445266;-0.18060854;;;;;339.7
532.0;411.1;;;;;;;;;;;;;;;;;7.5189977;-12.684256;31.11362;;339.7
532.0;411.1;;;;;;;;;;;;;;0.82326734;0.28748435;-0.18378246;;;;;339.7
532.0;455.5;;;;;;;;;;;;;;;;;6.6835537;-13.908811;31.601917;;349.4
532.0;455.5;;;;;;;;;;;;;;0.83565784;0.28778955;-0.1937315;;;;;349.4
532.0;455.5;;;;;;;;;;;;;;;;;6.4622946;-14.847256;32.155064;;349.4
532.0;455.5;;;;;;;;;;;;;;0.84163946;0.29071933;-0.21143223;;;;;349.4
532.0;455.5;;;;;;;;;;;;;;;;;5.920591;-14.767144;32.6281;;359.1
532.0;455.5;;;;;;;;;;;;;;0.8454848;0.2927946;-0.21771905;;;;;359.1
532.0;455.5;;;;;;;;;;;;;;;;;4.856258;-14.378033;32.952362;;359.1
532.0;455.5;;;;;;;;;;;;;;0.8454848;0.29450363;-0.22498246;;;;;359.1
532.0;455.5;;;;;;;;;;;;;;;;;3.6584065;-13.721885;33.059177;;368.7
532.0;455.5;;;;;;;;;;;;;;0.8487198;0.2898648;-0.23517564;;;;;368.7
532.0;455.5;;;;;;;;;;;;;;;;;2.7085178;-13.019959;33.032475;;368.7
532.0;455.5;;;;;;;;;;;;;;0.84969634;0.2766808;-0.22663045;;;;;368.7
592.0;456.3;;;;;;;;;;;;;;;;;2.2927032;-12.840663;32.811214;;378.4
592.0;456.3;;;;;;;;;;;;;;0.859035;0.2766808;-0.21851254;;;;;378.4
592.0;456.3;;;;;;;;;;;;;;;;;1.7777032;-13.000885;32.376324;;378.4
592.0;456.3;;;;;;;;;;;;;;0.86867887;0.27100438;-0.21100497;;;;;378.4
592.0;456.3;;;;;;;;;;;;;;;;;1.3542589;-13.130589;31.777397;;388.0
592.0;456.3;;;;;;;;;;;;;;0.8785058;0.27900022;-0.20929594;;;;;388.0
592.0;456.3;;;;;;;;;;;;;;;;;1.1558886;-13.439589;31.273842;;388.0
592.0;456.3;;;;;;;;;;;;;;0.8924833;0.2931608;-0.21430098;;;;;388.0
592.0;456.3;;;;;;;;;;;;;;;;;1.5259255;-13.863032;30.793177;;397.7
592.0;456.3;;;;;;;;;;;;;;0.9121372;0.30195013;-0.21924497;;;;;397.7
592.0;456.3;;;;;;;;;;;;;;;;;2.0867033;-14.076662;30.430769;;397.7
592.0;456.3;;;;;;;;;;;;;;0.9369793;0.31464583;-0.21991637;;;;;397.7
592.0;515.8;;;;;;;;;;;;;;;;;2.2965178;-13.241219;30.07599;;407.3
592.0;515.8;;;;;;;;;;;;;;0.93850523;0.32264167;-0.21387371;;;;;407.3
592.0;515.8;;;;;;;;;;;;;;;;;2.0447402;-12.424848;29.656363;;407.3
592.0;515.8;;;;;;;;;;;;;;0.9392987;0.32923368;-0.20563371;;;;;407.3
592.0;515.8;;;;;;;;;;;;;;;;;1.2703329;-11.947997;29.396955;;417.0
592.0;515.8;;;;;;;;;;;;;;0.9423505;0.33277383;-0.19745475;;;;;417.0
592.0;515.8;;;;;;;;;;;;;;;;;-0.13351847;-11.009553;29.038363;;417.0
592.0;515.8;;;;;;;;;;;;;;0.9330119;0.3455916;-0.17737357;;;;;417.0
592.0;515.8;;;;;;;;;;;;;;;;;-2.3194067;-10.44496;28.67214;;426.5
592.0;515.8;;;;;;;;;;;;;;0.9187292;0.36103398;-0.16144292;;;;;426.5
592.0;515.8;;;;;;;;;;;;;;;;;-5.962554;-10.578479;28.290659;;426.5
592.0;515.8;;;;;;;;;;;;;;0.9149449;0.3717765;-0.16302988;;;;;426.5
652.0;523.4;;;;;;;;;;;;;;;;;-10.223701;-10.498367;27.802362;;436.0
652.0;523.4;;;;;;;;;;;;;;0.90896326;0.37281412;-0.15381329;;;;;436.0
652.0;523.4;;;;;;;;;;;;;;;;;-14.042329;-10.799738;27.222511;;436.0
652.0;523.4;;;;;;;;;;;;;;0.90609455;0.39082003;-0.15417951;;;;;436.0
652.0;523.4;;;;;;;;;;;;;;;;;-18.208105;-10.837886;27.016512;;445.7
652.0;523.4;;;;;;;;;;;;;;0.90517896;0.39912108;-0.14374217;;;;;445.7
652.0;523.4;;;;;;;;;;;;;;;;;-22.690512;-11.108737;27.123325;;445.7
652.0;523.4;;;;;;;;;;;;;;0.9042024;0.39399394;-0.13757744;;;;;445.7
652.0;523.4;;;;;;;;;;;;;;;;;-27.233955;-11.810663;27.325512;;455.4
652.0;523.4;;;;;;;;;;;;;;0.91134375;0.3925901;-0.14996795;;;;;455.4
652.0;523.4;;;;;;;;;;;;;;;;;-32.20466;-11.917479;27.947325;;455.4
652.0;523.4;;;;;;;;;;;;;;0.92159796;0.380871;-0.159917;;;;;455.4
652.0;576.6;;;;;;;;;;;;;;;;;-37.48436;-11.1507;28.67214;;465.0
652.0;576.6;;;;;;;;;;;;;;0.9209266;0.35773796;-0.1645558;;;;;465.0
652.0;576.6;;;;;;;;;;;;;;;;;-41.86758;-10.887479;29.56862;;465.0
652.0;576.6;;;;;;;;;;;;;;0.9311808;0.33210242;-0.18237862;;;;;465.0
652.0;576.6;;;;;;;;;;;;;;;;;-45.583206;-10.132145;30.423138;;474.7
652.0;576.6;;;;;;;;;;;;;;0.93435466;0.3076876;-0.19605091;;;;;474.7
652.0;576.6;;;;;;;;;;;;;;;;;-48.486282;-10.055849;31.117435;;474.7
652.0;576.6;;;;;;;;;;;;;;0.9304483;0.28125858;-0.20636617;;;;;474.7
652.0;576.6;;;;;;;;;;;;;;;;;-50.653095;-10.658589;31.79647;;484.3
652.0;576.6;;;;;;;;;;;;;;0.93649095;0.25568408;-0.21948913;;;;;484.3
652.0;576.6;;;;;;;;;;;;;;;;;-52.323986;-11.555071;32.39921;;484.3
652.0;576.6;;;;;;;;;;;;;;0.951384;0.2301706;-0.229194;;;;;484.3
712.0;577.4;;;;;;;;;;;;;;;;;-53.07932;-12.226479;32.99814;;493.9
712.0;577.4;;;;;;;;;;;;;;0.9646901;0.20068972;-0.22675252;;;;;493.9
712.0;577.4;;;;;;;;;;;;;;;;;-53.3578;-13.126774;33.677177;;493.9
712.0;577.4;;;;;;;;;;;;;;0.9916074;0.16791284;-0.2238838;;;;;493.9
712.0;577.4;;;;;;;;;;;;;;;;;-53.01065;-13.420515;34.287544;;503.6
712.0;577.4;;;;;;;;;;;;;;0.9956969;0.13776055;-0.23688467;;;;;503.6
712.0;577.4;;;;;;;;;;;;;;;;;-51.87002;-14.355144;35.008545;;503.6
712.0;577.4;;;;;;;;;;;;;;1.0192572;0.11548204;-0.25696585;;;;;503.6
712.0;577.4;;;;;;;;;;;;;;;;;-49.60402;-14.694663;35.580765;;513.3
712.0;577.4;;;;;;;;;;;;;;1.0275582;0.0992462;-0.27686393;;;;;513.3
712.0;577.4;;;;;;;;;;;;;;;;;-46.47206;-15.198217;35.946987;;513.3
712.0;577.4;;;;;;;;;;;;;;1.0478835;0.091372415;-0.2954192;;;;;513.3
712.0;591.2;;;;;;;;;;;;;;;;;-42.90521;-15.114291;36.19877;;522.9
712.0;591.2;;;;;;;;;;;;;;1.0738243;0.08343761;-0.31214333;;;;;522.9
712.0;591.2;;;;;;;;;;;;;;;;;-39.170506;-14.580218;36.332287;;522.9
712.0;591.2;;;;;;;;;;;;;;1.0990936;0.090456866;-0.3137913;;;;;522.9
712.0;591.2;;;;;;;;;;;;;;;;;-35.367138;-14.473403;36.286507;;532.6
712.0;591.2;;;;;;;;;;;;;;1.12125;0.103274636;-0.32752463;;;;;532.6
712.0;591.2;;;;;;;;;;;;;;;;;-31.983398;-14.62981;35.90121;;532.6
712.0;591.2;;;;;;;;;;;;;;1.1465194;0.13385418;-0.32978302;;;;;532.6
712.0;591.2;;;;;;;;;;;;;;;;;-30.00351;-14.816737;35.847805;;542.3
712.0;591.2;;;;;;;;;;;;;;1.1832637;0.15259255;-0.3414411;;;;;542.3
712.0;591.2;;;;;;;;;;;;;;;;;-28.4814;-14.267404;35.691395;;542.3
712.0;591.2;;;;;;;;;;;;;;1.2132329;0.1854915;-0.3571276;;;;;542.3
773.0;636.5;;;;;;;;;;;;;;;;;-27.390362;-13.634145;35.370953;;551.9
773.0;636.5;;;;;;;;;;;;;;1.25486;0.21832941;-0.3729362;;;;;551.9
773.0;636.5;;;;;;;;;;;;;;;;;-27.027956;-11.806849;34.882656;;551.9
773.0;636.5;;;;;;;;;;;;;;1.2837917;0.25421917;-0.374279;;;;;551.9
773.0;636.5;;;;;;;;;;;;;;;;;-26.6274;-9.437849;34.43632;;561.5
773.0;636.5;;;;;;;;;;;;;;1.3002106;0.28510392;-0.3678091;;;;;561.5
773.0;636.5;;;;;;;;;;;;;;;;;-26.131474;-6.7445908;33.803066;;561.5
773.0;636.5;;;;;;;;;;;;;;1.3068637;0.31861323;-0.35084078;;;;;561.5
773.0;636.5;;;;;;;;;;;;;;;;;-25.688955;-4.2115545;33.074436;;571.1
773.0;636.5;;;;;;;;;;;;;;1.3071078;0.34913176;-0.32636493;;;;;571.1
773.0;636.5;;;;;;;;;;;;;;;;;-25.650806;-1.6212958;32.456436;;571.1
773.0;636.5;;;;;;;;;;;;;;1.2872097;0.3754387;-0.29920346;;;;;571.1
773.0;697.3;;;;;;;;;;;;;;;;;-26.074251;0.32425916;32.002472;;580.8
773.0;697.3;;;;;;;;;;;;;;1.2667623;0.39582506;-0.27838984;;;;;580.8
773.0;697.3;;;;;;;;;;;;;;;;;-27.081364;2.3003328;31.727806;;580.8
773.0;697.3;;;;;;;;;;;;;;1.2528459;0.39979246;-0.25995666;;;;;580.8
773.0;697.3;;;;;;;;;;;;;;;;;-28.56914;4.3832207;31.418804;;590.4
773.0;697.3;;;;;;;;;;;;;;1.2397839;0.39442122;-0.22040467;;;;;590.4
773.0;697.3;;;;;;;;;;;;;;;;;-30.17136;4.875332;30.823694;;590.4
773.0;697.3;;;;;;;;;;;;;;1.2427137;0.38355663;-0.2230903;;;;;590.4
773.0;697.3;;;;;;;;;;;;;;;;;-32.216103;4.9439983;29.934843;;600.1
773.0;697.3;;;;;;;;;;;;;;1.2550431;0.37238684;-0.229194;;;;;600.1
773.0;697.3;;;;;;;;;;;;;;;;;-34.089172;5.6955166;28.931547;;600.1
773.0;697.3;;;;;;;;;;;;;;1.2786034;0.3620716;-0.26313058;;;;;600.1
891.0;698.1;;;;;;;;;;;;;;;;;-35.878323;7.5037384;27.432323;;609.6
891.0;698.1;;;;;;;;;;;;;;1.2880032;0.34833828;-0.28614154;;;;;609.6
891.0;698.1;;;;;;;;;;;;;;;;;-38.121433;9.136478;25.200659;;609.6
891.0;698.1;;;;;;;;;;;;;;1.2994782;0.34797204;-0.31629384;;;;;609.6
891.0;698.1;;;;;;;;;;;;;;;;;-40.7918;11.577959;22.6104;;619.3
891.0;698.1;;;;;;;;;;;;;;1.2988067;0.36530656;-0.3467513;;;;;619.3
891.0;698.1;;;;;;;;;;;;;;;;;-44.583725;14.221625;19.623402;;619.3
891.0;698.1;;;;;;;;;;;;;;1.2979522;0.3745842;-0.35670033;;;;;619.3
891.0;698.1;;;;;;;;;;;;;;;;;-49.58876;17.853329;16.4037;;629.0
891.0;698.1;;;;;;;;;;;;;;1.2851955;0.3566393;-0.35676137;;;;;629.0
891.0;698.1;;;;;;;;;;;;;;;;;-55.192722;22.556993;12.993256;;629.0
891.0;698.1;;;;;;;;;;;;;;1.2370373;0.32880643;-0.32782984;;;;;629.0
891.0;704.2;;;;;;;;;;;;;;;;;-60.148167;25.837732;9.601887;;638.6
891.0;704.2;;;;;;;;;;;;;;1.1958983;0.28193;-0.28888822;;;;;638.6
891.0;704.2;;;;;;;;;;;;;;;;;-63.76461;27.775658;5.8481092;;638.6
891.0;704.2;;;;;;;;;;;;;;1.1765496;0.21613209;-0.2512894;;;;;638.6
891.0;704.2;;;;;;;;;;;;;;;;;-65.5881;29.026918;1.247444;;648.3
891.0;704.2;;;;;;;;;;;;;;1.1846675;0.120365;-0.1980041;;;;;648.3
891.0;704.2;;;;;;;;;;;;;;;;;-64.775536;30.594805;-4.360332;;648.3
891.0;704.2;;;;;;;;;;;;;;1.1758782;0.06329539;-0.14990692;;;;;648.3
891.0;704.2;;;;;;;;;;;;;;;;;-62.135685;33.43303;-9.834589;;657.9
891.0;704.2;;;;;;;;;;;;;;1.1087985;0.09418012;-0.11078219;;;;;657.9
891.0;704.2;;;;;;;;;;;;;;;;;-58.973206;34.829247;-15.118106;;657.9
891.0;704.2;;;;;;;;;;;;;;1.0826746;0.0987579;-0.07086398;;;;;657.9
893.0;817.8;;;;;;;;;;;;;;;;;-54.612873;36.568806;-21.244698;;667.3
893.0;817.8;;;;;;;;;;;;;;1.0813318;0.101260416;-0.039796136;;;;;667.3
893.0;817.8;;;;;;;;;;;;;;;;;-49.600204;39.811394;-28.176214;;667.3
893.0;817.8;;;;;;;;;;;;;;1.0685141;0.11493271;0.0023804437;;;;;667.3
893.0;817.8;;;;;;;;;;;;;;;;;-44.38917;42.77169;-35.599842;;676.9
893.0;817.8;;;;;;;;;;;;;;1.0600909;0.12842189;0.039857175;;;;;676.9
893.0;817.8;;;;;;;;;;;;;;;;;-39.540543;44.58754;-43.134098;;676.9
893.0;817.8;;;;;;;;;;;;;;1.0690634;0.14917448;0.06811731;;;;;676.9
893.0;817.8;;;;;;;;;;;;;;;;;-35.370953;45.64806;-50.41276;;686.6
893.0;817.8;;;;;;;;;;;;;;1.0834681;0.1551561;0.083803825;;;;;686.6
893.0;817.8;;;;;;;;;;;;;;;;;-31.281471;46.25843;-57.451096;;686.6
893.0;817.8;;;;;;;;;;;;;;1.0925016;0.17267373;0.087588124;;;;;686.6
893.0;818.6;;;;;;;;;;;;;;;;;-27.61162;45.499283;-64.31776;;696.3
893.0;818.6;;;;;;;;;;;;;;1.0978118;0.1980041;0.06823939;;;;;696.3
893.0;818.6;;;;;;;;;;;;;;;;;-23.976105;43.122654;-70.60838;;696.3
893.0;818.6;;;;;;;;;;;;;;1.0957977;0.2268746;0.022644734;;;;;696.3
893.0;818.6;;;;;;;;;;;;;;;;;-21.233253;39.525284;-76.33061;;705.9
893.0;818.6;;;;;;;;;;;;;;1.093173;0.2677694;-0.042542804;;;;;705.9
893.0;818.6;;;;;;;;;;;;;;;;;-20.004883;35.985138;-80.95798;;705.9
893.0;818.6;;;;;;;;;;;;;;1.0778527;0.30182806;-0.114322335;;;;;705.9
893.0;818.6;;;;;;;;;;;;;;;;;-21.397291;33.10114;-84.52101;;715.6
893.0;818.6;;;;;;;;;;;;;;1.0751671;0.33100376;-0.17908262;;;;;715.6
893.0;818.6;;;;;;;;;;;;;;;;;-25.536362;32.51747;-86.897644;;715.6
893.0;818.6;;;;;;;;;;;;;;1.0559404;0.34430984;-0.21710868;;;;;715.6
950.0;819.7;;;;;;;;;;;;;;;;;-32.04062;32.521286;-88.62575;;725.2
950.0;819.7;;;;;;;;;;;;;;1.0468459;0.34589678;-0.24604023;;;;;725.2
950.0;819.7;;;;;;;;;;;;;;;;;-39.036987;32.765434;-90.14786;;725.2
950.0;819.7;;;;;;;;;;;;;;1.0293894;0.33857235;-0.25629443;;;;;725.2
950.0;819.7;;;;;;;;;;;;;;;;;-44.835503;32.265694;-91.742455;;734.8
950.0;819.7;;;;;;;;;;;;;;1.0125431;0.32557145;-0.2679525;;;;;734.8
950.0;819.7;;;;;;;;;;;;;;;;;-48.421432;30.011139;-93.58501;;734.8
950.0;819.7;;;;;;;;;;;;;;1.009125;0.32160404;-0.2882168;;;;;734.8
950.0;819.7;;;;;;;;;;;;;;;;;-49.317913;26.886808;-96.01123;;744.4
950.0;819.7;;;;;;;;;;;;;;1.0062563;0.3353984;-0.29932556;;;;;744.4
950.0;819.7;;;;;;;;;;;;;;;;;-48.249763;23.14066;-98.658714;;744.4
950.0;819.7;;;;;;;;;;;;;;1.0055848;0.35370952;-0.3045137;;;;;744.4
950.0;825.1;;;;;;;;;;;;;;;;;-45.510727;19.54329;-101.619;;754.1
950.0;825.1;;;;;;;;;;;;;;1.0098575;0.35950804;-0.286874;;;;;754.1
950.0;825.1;;;;;;;;;;;;;;;;;-41.619617;14.84344;-103.862114;;754.1
950.0;825.1;;;;;;;;;;;;;;1.0842617;0.34730065;-0.2860805;;;;;754.1
950.0;825.1;;;;;;;;;;;;;;;;;-37.423325;12.455366;-104.48012;;763.7
950.0;825.1;;;;;;;;;;;;;;1.1399274;0.3725089;-0.34156317;;;;;763.7
950.0;825.1;;;;;;;;;;;;;;;;;-35.72573;16.724144;-105.98697;;763.7
950.0;825.1;;;;;;;;;;;;;;1.0904874;0.3546861;-0.28888822;;;;;763.7
950.0;825.1;;;;;;;;;;;;;;;;;-35.031433;15.919218;-107.425156;;773.3
950.0;825.1;;;;;;;;;;;;;;1.1101413;0.33265176;-0.25898007;;;;;773.3
950.0;825.1;;;;;;;;;;;;;;;;;-35.302284;14.33607;-108.58105;;773.3
950.0;825.1;;;;;;;;;;;;;;1.1427962;0.30976287;-0.235786;;;;;773.3
1012.0;877.9;;;;;;;;;;;;;;;;;-35.939358;14.347514;-109.31349;;782.8
1012.0;877.9;;;;;;;;;;;;;;1.1415753;0.3144017;-0.19452497;;;;;782.8
1012.0;877.9;;;;;;;;;;;;;;;;;-38.014618;13.199256;-109.63011;;782.8
1012.0;877.9;;;;;;;;;;;;;;1.1550035;0.3025605;-0.15503404;;;;;782.8
1012.0;877.9;;;;;;;;;;;;;;;;;-40.120396;11.623737;-109.69115;;792.4
1012.0;877.9;;;;;;;;;;;;;;1.1771599;0.2896817;-0.12439345;;;;;792.4
1012.0;877.9;;;;;;;;;;;;;;;;;-41.531876;10.303812;-109.340195;;792.4
1012.0;877.9;;;;;;;;;;;;;;1.2093875;0.2814417;-0.100161746;;;;;792.4
1012.0;877.9;;;;;;;;;;;;;;;;;-42.344433;10.45259;-109.01975;;802.1
1012.0;877.9;;;;;;;;;;;;;;1.2251961;0.286874;-0.08856472;;;;;802.1
1012.0;877.9;;;;;;;;;;;;;;;;;-43.2371;11.528367;-108.68023;;802.1
1012.0;877.9;;;;;;;;;;;;;;1.2117069;0.3058565;-0.06335643;;;;;802.1
1012.0;885.3;;;;;;;;;;;;;;;;;-45.209354;12.043367;-108.088936;;811.7
1012.0;885.3;;;;;;;;;;;;;;1.1835688;0.2903531;-0.046449173;;;;;811.7
1012.0;885.3;;;;;;;;;;;;;;;;;-47.727135;11.898404;-107.93634;;811.7
1012.0;885.3;;;;;;;;;;;;;;1.160863;0.3170263;-0.043336283;;;;;811.7
1012.0;885.3;;;;;;;;;;;;;;;;;-50.86291;11.413922;-106.95212;;821.4
1012.0;885.3;;;;;;;;;;;;;;1.1379131;0.31897947;-0.06103702;;;;;821.4
1012.0;885.3;;;;;;;;;;;;;;;;;-53.537098;10.254219;-105.13627;;821.4
1012.0;885.3;;;;;;;;;;;;;;1.1521958;0.30573443;-0.072328866;;;;;821.4
1012.0;885.3;;;;;;;;;;;;;;;;;-56.493576;9.853663;-102.63374;;831.0
1012.0;885.3;;;;;;;;;;;;;;1.1289407;0.28925443;-0.0992462;;;;;831.0
1012.0;885.3;;;;;;;;;;;;;;;;;-59.36613;9.834589;-100.40208;;831.0
1012.0;885.3;;;;;;;;;;;;;;1.109714;0.28333384;-0.12829982;;;;;831.0
1074.0;938.7;;;;;;;;;;;;;;;;;-62.60109;9.876553;-98.09031;;840.7
1074.0;938.7;;;;;;;;;;;;;;1.0917691;0.28974274;-0.116214484;;;;;840.7
1074.0;938.7;;;;;;;;;;;;;;;;;-65.91617;9.292887;-95.94638;;840.7
1074.0;938.7;;;;;;;;;;;;;;1.0713217;0.27014986;-0.117069006;;;;;840.7
1074.0;938.7;;;;;;;;;;;;;;;;;-68.33857;8.144628;-94.222084;;850.3
1074.0;938.7;;;;;;;;;;;;;;1.0678426;0.23651844;-0.11725211;;;;;850.3
1074.0;938.7;;;;;;;;;;;;;;;;;-69.25794;7.6525164;-92.64656;;850.3
1074.0;938.7;;;;;;;;;;;;;;1.0482497;0.19714957;-0.109073155;;;;;850.3
1074.0;938.7;;;;;;;;;;;;;;;;;-68.03339;6.5614796;-90.82308;;859.9
1074.0;938.7;;;;;;;;;;;;;;1.0501419;0.21778008;-0.09747612;;;;;859.9
1074.0;938.7;;;;;;;;;;;;;;;;;-66.39302;6.3364053;-89.01486;;859.9
1074.0;938.7;;;;;;;;;;;;;;1.0431837;0.20166631;-0.09253212;;;;;859.9
1074.0;939.5;;;;;;;;;;;;;;;;;-62.665947;6.717887;-87.88568;;869.5
1074.0;939.5;;;;;;;;;;;;;;1.0325022;0.17090365;-0.09430219;;;;;869.5
1074.0;939.5;;;;;;;;;;;;;;;;;-58.328503;7.7860346;-86.63824;;869.5
1074.0;939.5;;;;;;;;;;;;;;1.0220039;0.19928586;-0.08972442;;;;;869.5
1074.0;939.5;;;;;;;;;;;;;;;;;-54.525135;9.464553;-85.07416;;879.2
1074.0;939.5;;;;;;;;;;;;;;0.9844661;0.20209357;-0.057618946;;;;;879.2
1074.0;939.5;;;;;;;;;;;;;;;;;-50.733208;8.793145;-84.49812;;879.2
1074.0;939.5;;;;;;;;;;;;;;0.97091585;0.21106601;-0.07513657;;;;;879.2
1074.0;939.5;;;;;;;;;;;;;;;;;-47.940765;8.632923;-85.11231;;888.8
1074.0;939.5;;;;;;;;;;;;;;0.96121097;0.21326335;-0.088137455;;;;;888.8
1074.0;939.5;;;;;;;;;;;;;;;;;-46.285133;9.022035;-85.92868;;888.8
1074.0;939.5;;;;;;;;;;;;;;0.9456465;0.25116733;-0.09375286;;;;;888.8
1130.0;998.7;;;;;;;;;;;;;;;;;-45.770134;8.980071;-86.497086;;898.5
1130.0;998.7;;;;;;;;;;;;;;0.91817987;0.24555193;-0.11572619;;;;;898.5
1130.0;998.7;;;;;;;;;;;;;;;;;-45.499283;9.029664;-87.32109;;898.5
1130.0;998.7;;;;;;;;;;;;;;0.8984039;0.26062807;-0.11719108;;;;;898.5
1130.0;998.7;;;;;;;;;;;;;;;;;-46.88406;8.70159;-87.87042;;908.0
1130.0;998.7;;;;;;;;;;;;;;0.8560442;0.3228248;-0.10119938;;;;;908.0
1130.0;998.7;;;;;;;;;;;;;;;;;-50.630207;6.5614796;-88.183235;;908.0
1130.0;998.7;;;;;;;;;;;;;;0.83187354;0.3592639;-0.10876797;;;;;908.0
1130.0;998.7;;;;;;;;;;;;;;;;;-55.101166;4.9439983;-89.03775;;917.6
1130.0;998.7;;;;;;;;;;;;;;0.80764186;0.35077974;-0.114749596;;;;;917.6
1130.0;998.7;;;;;;;;;;;;;;;;;-59.682762;3.688925;-88.69823;;917.6
1130.0;998.7;;;;;;;;;;;;;;0.81014436;0.38196966;-0.10687582;;;;;917.6
1130.0;999.4;;;;;;;;;;;;;;;;;-64.74883;4.020814;-88.22138;;927.3
1130.0;999.4;;;;;;;;;;;;;;0.7907346;0.37244788;-0.10089419;;;;;927.3
1130.0;999.4;;;;;;;;;;;;;;;;;-68.36909;4.8295546;-87.63772;;927.3
1130.0;999.4;;;;;;;;;;;;;;0.7752922;0.36365855;-0.072206795;;;;;927.3
1130.0;999.4;;;;;;;;;;;;;;;;;-70.085754;4.799036;-86.48564;;937.0
1130.0;999.4;;;;;;;;;;;;;;0.7786493;0.36164433;-0.04870754;;;;;937.0
1130.0;999.4;;;;;;;;;;;;;;;;;-70.314644;4.623554;-84.75753;;937.0
1130.0;999.4;;;;;;;;;;;;;;0.77480394;0.35273293;-0.032532733;;;;;937.0
1130.0;999.4;;;;;;;;;;;;;;;;;-69.627975;5.104221;-83.14768;;946.6
1130.0;999.4;;;;;;;;;;;;;;0.7544786;0.32428968;-0.015259255;;;;;946.6
1130.0;999.4;;;;;;;;;;;;;;;;;-68.6819;6.324961;-81.68661;;946.6
1130.0;999.4;;;;;;;;;;;;;;0.7361675;0.3291116;-9.155553E-4;;;;;946.6
1194.0;1058.9;;;;;;;;;;;;;;;;;-69.02524;7.8241825;-79.40916;;956.3
1194.0;1058.9;;;;;;;;;;;;;;0.72780544;0.33625293;-0.006225776;;;;;956.3
1194.0;1058.9;;;;;;;;;;;;;;;;;-70.749535;9.82696;-76.87613;;956.3
1194.0;1058.9;;;;;;;;;;;;;;0.7058931;0.31934568;0.0045167394;;;;;956.3
1194.0;1058.9;;;;;;;;;;;;;;;;;-73.39702;10.631886;-74.606316;;965.9
1194.0;1058.9;;;;;;;;;;;;;;0.69057286;0.3053682;0.0073854793;;;;;965.9
1194.0;1058.9;;;;;;;;;;;;;;;;;-76.17039;11.028626;-72.38991;;965.9
1194.0;1058.9;;;;;;;;;;;;;;0.6756798;0.3023774;0.008239998;;;;;965.9
1194.0;1058.9;;;;;;;;;;;;;;;;;-78.53938;10.723441;-69.87975;;975.5
1194.0;1058.9;;;;;;;;;;;;;;0.6614582;0.31025118;0.008545183;;;;;975.5
1194.0;1058.9;;;;;;;;;;;;;;;;;-80.93127;9.4569235;-66.75161;;975.5
1194.0;1058.9;;;;;;;;;;;;;;0.6579791;0.30359814;0.007019257;;;;;975.5
1194.0;1060.1;;;;;;;;;;;;;;;;;-83.6665;8.362072;-63.97824;;985.2
1194.0;1060.1;;;;;;;;;;;;;;0.65547657;0.3079928;-0.0025025178;;;;;985.2
1194.0;1060.1;;;;;;;;;;;;;;;;;-85.96301;7.492294;-61.269722;;985.2
1194.0;1060.1;;;;;;;;;;;;;;0.6485183;0.28858304;-0.021790216;;;;;985.2
1194.0;1060.1;;;;;;;;;;;;;;;;;-86.96631;6.488998;-59.003723;;994.8
1194.0;1060.1;;;;;;;;;;;;;;0.6513871;0.29566333;-0.023377178;;;;;994.8
1194.0;1060.1;;;;;;;;;;;;;;;;;-87.45079;5.0660725;-56.74154;;994.8
1194.0;1060.1;;;;;;;;;;;;;;0.6530961;0.2874233;-0.019104587;;;;;994.8
1194.0;1060.1;;;;;;;;;;;;;;;;;-87.111275;3.2692955;-54.437393;;1004.5
1194.0;1060.1;;;;;;;;;;;;;;0.6408887;0.28321177;-0.011597034;;;;;1004.5
1194.0;1060.1;;;;;;;;;;;;;;;;;-86.47801;1.0223701;-52.23243;;1004.5
1194.0;1060.1;;;;;;;;;;;;;;0.6488235;0.26966155;-0.0023194067;;;;;1004.5
1196.0;1119.3;;;;;;;;;;;;;;;;;-85.32212;-1.0528886;-49.733723;;1014.0
1196.0;1119.3;;;;;;;;;;;;;;0.652974;0.2878506;0.0051271096;;;;;1014.0
1196.0;1119.3;;;;;;;;;;;;;;;;;-84.925385;-2.0409255;-46.5598;;1014.0
1196.0;1119.3;;;;;;;;;;;;;;0.64571065;0.27564317;0.009949034;;;;;1014.0
1196.0;1119.3;;;;;;;;;;;;;;;;;-83.361305;-2.8992584;-42.89758;;1023.7
1196.0;1119.3;;;;;;;;;;;;;;0.64857936;0.27594838;0.01495407;;;;;1023.7
1196.0;1119.3;;;;;;;;;;;;;;;;;-81.50731;-2.887814;-38.895844;;1023.7
1196.0;1119.3;;;;;;;;;;;;;;0.6498001;0.28595844;0.029725028;;;;;1023.7
1196.0;1119.3;;;;;;;;;;;;;;;;;-79.874565;-2.4414806;-34.47447;;1033.4
1196.0;1119.3;;;;;;;;;;;;;;0.6396069;0.285226;0.044068728;;;;;1033.4
1196.0;1119.3;;;;;;;;;;;;;;;;;-77.95953;-1.9646292;-30.037842;;1033.4
1196.0;1119.3;;;;;;;;;;;;;;0.628193;0.29914242;0.059327982;;;;;1033.4
1196.0;1120.0;;;;;;;;;;;;;;;;;-75.472275;-2.5025177;-25.3914;;1043.1
1196.0;1120.0;;;;;;;;;;;;;;0.6263619;0.29627368;0.054139838;;;;;1043.1
1196.0;1120.0;;;;;;;;;;;;;;;;;-72.70272;-2.4491103;-21.11118;;1043.1
1196.0;1120.0;;;;;;;;;;;;;;0.60817283;0.29725027;0.063417464;;;;;1043.1
1196.0;1120.0;;;;;;;;;;;;;;;;;-70.07431;-3.2540362;-17.082735;;1052.7
1196.0;1120.0;;;;;;;;;;;;;;0.6010926;0.30323192;0.062746055;;;;;1052.7
1196.0;1120.0;;;;;;;;;;;;;;;;;-67.8312;-4.2954803;-13.119144;;1052.7
1196.0;1120.0;;;;;;;;;;;;;;0.583697;0.3084811;0.0568865;;;;;1052.7
1196.0;1120.0;;;;;;;;;;;;;;;;;-65.53468;-6.469924;-9.079257;;1062.4
1196.0;1120.0;;;;;;;;;;;;;;0.56788844;0.3177587;0.052308727;;;;;1062.4
1196.0;1120.0;;;;;;;;;;;;;;;;;-63.062683;-9.727776;-4.9859614;;1062.4
1196.0;1120.0;;;;;;;;;;;;;;0.5569628;0.32105473;0.045533616;;;;;1062.4
1251.0;1128.9;;;;0.0;0.0;0.0;;;;;;;;;;;;;;;
1251.0;1128.9;;;;-0.2878876;-0.03866196;0.08335877;;;;;;;;;;;;;;;
1251.0;1128.9;;;;-0.85834134;-0.14848329;0.15935518;;;;;;;;;;;;;;;
1251.0;1128.9;;;;-0.88321316;-0.15592958;0.1503525;;;;;;;;;;;;;;;
1251.0;1128.9;;;;-0.8888055;-0.15649797;0.15108873;;;;;;;;;;;;;;;
1251.0;1138.9;;;;-0.8944894;-0.15690996;0.15147401;;;;;;;;;;;;;;;
1251.0;1138.9;;;;-0.9005548;-0.15670778;0.15192796;;;;;;;;;;;;;;;
1251.0;1138.9;;;;-0.90662014;-0.1562729;0.15336992;;;;;;;;;;;;;;;
1251.0;1138.9;;;;-0.9132081;-0.15536882;0.15340425;;;;;;;;;;;;;;;
1251.0;1138.9;;;;-0.91946805;-0.15483095;0.15358736;;;;;;;;;;;;;;;
1251.0;1140.2;57446;57483;13056;;;;;;;;;;;;;;;;;;
1251.0;1148.9;;;;-0.92544186;-0.15354921;0.15389635;;;;;;;;;;;;;;;
1251.0;1148.9;;;;-0.9303056;-0.15245439;0.1540909;;;;;;;;;;;;;;;
1251.0;1148.9;;;;-0.9342195;-0.15115358;0.1534691;;;;;;;;;;;;;;;
1251.0;1148.9;;;;-0.9374238;-0.15008546;0.15351488;;;;;;;;;;;;;;;
1251.0;1148.9;;;;-0.9405252;-0.14929582;0.15317918;;;;;;;;;;;;;;;
1252.0;1158.9;;;;-0.9434854;-0.14851;0.15285875;;;;;;;;;;;;;;;
1252.0;1158.9;;;;-0.9462091;-0.14828874;0.15216066;;;;;;;;;;;;;;;
1252.0;1158.9;;;;-0.9499322;-0.14844133;0.15212251;;;;;;;;;;;;;;;
1252.0;1158.9;;;;-0.95258725;-0.1487465;0.15208437;;;;;;;;;;;;;;;
1252.0;1158.9;;;;-0.95554745;-0.14880754;0.1513138;;;;;;;;;;;;;;;
1252.0;1160.3;73902;73837;13042;;;;;;;;;;;;;;;;;;
1252.0;1166.7;;;;;;;;;;;;;0;;;;;;;;
1252.0;1166.7;;;;;;;;;;;;;0;;;;;;;;
1252.0;1166.7;;;;;;;;;;;;;-1;;;;;;;;
1252.0;1166.7;;;;;;;;;;;;;-2;;;;;;;;
1252.0;1166.7;;;;;;;;;;;;;-3;;;;;;;;
1252.0;1169.1;;;;-0.95788586;-0.14894487;0.1509514;;;;;;;;;;;;;;;
1252.0;1169.1;;;;-0.9595605;-0.14912416;0.1507187;;;;;;;;;;;;;;;
1252.0;1169.1;;;;-0.9610177;-0.14901735;0.15093614;;;;;;;;;;;;;;;
1252.0;1169.1;;;;-0.9626466;-0.14861299;0.15019609;;;;;;;;;;;;;;;
1252.0;1169.1;;;;-0.964306;-0.14910127;0.15002061;;;;;;;;;;;;;;;
1252.0;1179.2;;;;-0.9655534;-0.14914705;0.15076067;;;;;;;;;;;;;;;
1252.0;1179.2;;;;-0.9672624;-0.14912798;0.15059282;;;;;;;;;;;;;;;
1252.0;1179.2;;;;-0.9686128;-0.14926912;0.15038683;;;;;;;;;;;;;;;
1252.0;1179.2;;;;-0.96951306;-0.14932634;0.15084077;;;;;;;;;;;;;;;
1252.0;1179.2;;;;-0.97031415;-0.14963533;0.1512375;;;;;;;;;;;;;;;
1253.0;1179.4;;;;;;;;;;;;;;;;;-60.018463;-12.359997;-0.9155553;;1072.0
1253.0;1179.4;;;;;;;;;;;;;;0.55348366;0.3364971;0.049684133;;;;;1072.0
1253.0;1179.4;;;;;;;;;;;;;;;;;-56.802574;-13.10007;3.2235177;;1072.0
1253.0;1179.4;;;;;;;;;;;;;;0.55043185;0.35163426;0.04791406;;;;;1072.0
1253.0;1179.4;;;;;;;;;;;;;;;;;-53.86517;-12.062441;7.229072;;1081.6
1253.0;1179.4;;;;;;;;;;;;;;0.5294351;0.37531662;0.06537065;;;;;1081.6
1253.0;1179.4;;;;;;;;;;;;;;;;;-51.957764;-11.604663;11.2384405;;1081.6
1253.0;1179.4;;;;;;;;;;;;;;0.50111395;0.3971679;0.08990753;;;;;1081.6
1253.0;1179.4;;;;;;;;;;;;;;;;;-50.778984;-12.9017;14.839625;;1091.3
1253.0;1179.4;;;;;;;;;;;;;;0.47480696;0.4143803;0.106387526;;;;;1091.3
1253.0;1179.4;;;;;;;;;;;;;;;;;-49.501022;-15.682699;17.914366;;1091.3
1253.0;1179.4;;;;;;;;;;;;;;0.44026002;0.43140966;0.12244026;;;;;1091.3
1253.0;1180.7;;;;;;;;;;;;;;;;;-47.933136;-20.096437;20.35203;;1100.9
1253.0;1180.7;;;;;;;;;;;;;;0.4207892;0.44752342;0.113406785;;;;;1100.9
1253.0;1180.7;;;;;;;;;;;;;;;;;-45.1178;-24.365215;22.48451;;1100.9
1253.0;1180.7;;;;;;;;;;;;;;0.40943632;0.4572283;0.092837304;;;;;1100.9
1253.0;1180.7;;;;;;;;;;;;;;;;;-40.261543;-26.764734;24.327068;;1110.5
1253.0;1180.7;;;;;;;;;;;;;;0.39008757;0.47779778;0.07983642;;;;;1110.5
1253.0;1180.7;;;;;;;;;;;;;;;;;-33.41777;-29.045992;25.887325;;1110.5
1253.0;1180.7;;;;;;;;;;;;;;0.37110507;0.5018464;0.07080294;;;;;1110.5
1253.0;1180.7;;;;;;;;;;;;;;;;;-25.738548;-32.23899;27.062288;;1120.2
1253.0;1180.7;;;;;;;;;;;;;;0.36848047;0.5398724;0.07696768;;;;;1120.2
1253.0;1180.7;;;;;;;;;;;;;;;;;-18.009735;-35.599842;28.019806;;1120.2
1253.0;1180.7;;;;;;;;;;;;;;0.37934506;0.58394116;0.06714072;;;;;1120.2
1313.0;1180.5;90236;90281;13040;;;;;;;;;;;;;;;;;;
1313.0;1188.9;;;;-0.970749;-0.15045168;0.15163042;;;;;;;;;;;;;;;
1313.0;1188.9;;;;-0.971058;-0.15057375;0.1517296;;;;;;;;;;;;;;;
1313.0;1188.9;;;;-0.97187054;-0.15139772;0.15229799;;;;;;;;;;;;;;;
1313.0;1188.9;;;;-0.9724542;-0.15173341;0.15231706;;;;;;;;;;;;;;;
1313.0;1188.9;;;;-0.9738046;-0.15232469;0.15192033;;;;;;;;;;;;;;;
1313.0;1198.9;;;;-0.9745065;-0.15272142;0.15217973;;;;;;;;;;;;;;;
1313.0;1198.9;;;;-0.97595227;-0.15274431;0.15198137;;;;;;;;;;;;;;;
1313.0;1198.9;;;;-0.97823346;-0.15305711;0.15129472;;;;;;;;;;;;;;;
1313.0;1198.9;;;;-0.9809648;-0.15325548;0.15071489;;;;;;;;;;;;;;;
1313.0;1198.9;;;;-0.98516095;-0.15386201;0.15011217;;;;;;;;;;;;;;;
1313.0;1200.4;106586;106602;13034;;;;;;;;;;;;;;;;;;
1313.0;1206.8;;;;;;;;;;;;;-6;;;;;;;;
1313.0;1206.8;;;;;;;;;;;;;-6;;;;;;;;
1313.0;1206.8;;;;;;;;;;;;;-10;;;;;;;;
1313.0;1206.8;;;;;;;;;;;;;-13;;;;;;;;
1313.0;1206.8;;;;;;;;;;;;;-12;;;;;;;;
1313.0;1208.9;;;;-0.989956;-0.1539116;0.15018846;;;;;;;;;;;;;;;
1313.0;1208.9;;;;-0.9956323;-0.15360643;0.15021135;;;;;;;;;;;;;;;
1313.0;1208.9;;;;-1.001957;-0.15360261;0.14980318;;;;;;;;;;;;;;;
1313.0;1208.9;;;;-1.009224;-0.1525612;0.15041353;;;;;;;;;;;;;;;
1313.0;1208.9;;;;-1.0159074;-0.15142442;0.15000536;;;;;;;;;;;;;;;
1314.0;1218.8;;;;-1.0224153;-0.14999391;0.14970781;;;;;;;;;;;;;;;
1314.0;1218.8;;;;-1.0282212;-0.14821626;0.14984895;;;;;;;;;;;;;;;
1314.0;1218.8;;;;-1.0327264;-0.14706041;0.14937212;;;;;;;;;;;;;;;
1314.0;1218.8;;;;-1.0359422;-0.14623262;0.14913942;;;;;;;;;;;;;;;
1314.0;1218.8;;;;-1.0376703;-0.14635088;0.14877321;;;;;;;;;;;;;;;
1314.0;1220.3;123022;123026;13048;;;;;;;;;;;;;;;;;;
1314.0;1228.9;;;;-1.0389749;-0.14754106;0.14790346;;;;;;;;;;;;;;;
1314.0;1228.9;;;;-1.039898;-0.1496811;0.14664079;;;;;;;;;;;;;;;
1314.0;1228.9;;;;-1.0401536;-0.15322496;0.14434053;;;;;;;;;;;;;;;
1314.0;1228.9;;;;-1.0406381;-0.15722276;0.14293672;;;;;;;;;;;;;;;
1314.0;1228.9;;;;-1.0417482;-0.16207506;0.14161684;;;;;;;;;;;;;;;
1314.0;1239.0;;;;-1.043934;-0.1669388;0.14121248;;;;;;;;;;;;;;;
1314.0;1239.0;;;;-1.0471689;-0.17099382;0.14027788;;;;;;;;;;;;;;;
1314.0;1239.0;;;;-1.0516816;-0.17411806;0.13922884;;;;;;;;;;;;;;;
1314.0;1239.0;;;;-1.0566522;-0.17665865;0.13764955;;;;;;;;;;;;;;;
1314.0;1239.0;;;;-1.0617944;-0.178463;0.13570024;;;;;;;;;;;;;;;
1315.0;1239.4;;;;;;;;;;;;;;;;;-10.311441;-38.682213;28.946806;;1129.8
1315.0;1239.4;;;;;;;;;;;;;;0.3733024;0.64131594;0.0474868;;;;;1129.8
1315.0;1239.4;;;;;;;;;;;;;;;;;-3.5515916;-42.741173;29.866177;;1129.8
1315.0;1239.4;;;;;;;;;;;;;;0.36744285;0.7119358;-0.018555254;;;;;1129.8
1315.0;1239.4;;;;;;;;;;;;;;;;;0.25559253;-47.23884;30.941954;;1139.5
1315.0;1239.4;;;;;;;;;;;;;;0.36829737;0.7628407;-0.07257301;;;;;1139.5
1315.0;1239.4;;;;;;;;;;;;;;;;;-0.48448133;-52.167576;33.165993;;1139.5
1315.0;1239.4;;;;;;;;;;;;;;0.35462508;0.7868282;-0.11560412;;;;;1139.5
1315.0;1239.4;;;;;;;;;;;;;;;;;-7.488479;-56.99713;36.980804;;1149.0
1315.0;1239.4;;;;;;;;;;;;;;0.34962004;0.7756584;-0.104739524;;;;;1149.0
1315.0;1239.4;;;;;;;;;;;;;;;;;-19.840845;-61.548203;42.996765;;1149.0
1315.0;1239.4;;;;;;;;;;;;;;0.38422802;0.71718496;-0.05053865;;;;;1149.0
1315.0;1240.2;;;;;;;;;;;;;;;;;-36.420025;-61.89535;50.534836;;1158.6
1315.0;1240.2;;;;;;;;;;;;;;0.4596698;0.60554826;0.075441755;;;;;1158.6
1315.0;1240.2;;;;;;;;;;;;;;;;;-54.48317;-55.34913;58.973206;;1158.6
1315.0;1240.2;;;;;;;;;;;;;;0.514481;0.4626606;0.26477858;;;;;1158.6
1315.0;1240.2;;;;;;;;;;;;;;;;;-65.16465;-49.00891;67.182686;;1168.3
1315.0;1240.2;;;;;;;;;;;;;;0.5393841;0.33845028;0.39692372;;;;;1168.3
1315.0;1240.2;;;;;;;;;;;;;;;;;-62.746056;-47.59743;74.34691;;1168.3
1315.0;1240.2;;;;;;;;;;;;;;0.5393231;0.2936491;0.2719199;;;;;1168.3
1315.0;1240.2;;;;;;;;;;;;;;;;;-54.10169;-45.396282;80.96942;;1178.0
1315.0;1240.2;;;;;;;;;;;;;;0.55372787;0.2666097;0.3937498;;;;;1178.0
1315.0;1240.2;;;;;;;;;;;;;;;;;-41.83325;-41.211433;85.32976;;1178.0
1315.0;1240.2;;;;;;;;;;;;;;0.61201817;0.22742394;0.6560259;;;;;1178.0
1372.0;1240.4;139524;139412;13055;;;;;;;;;;;;;;;;;;
1372.0;1246.6;;;;;;;;;;;;;-19;;;;;;;;
1372.0;1246.6;;;;;;;;;;;;;-12;;;;;;;;
1372.0;1246.6;;;;;;;;;;;;;-17;;;;;;;;
1372.0;1246.6;;;;;;;;;;;;;-37;;;;;;;;
1372.0;1246.6;;;;;;;;;;;;;21;;;;;;;;
1372.0;1248.8;;;;-1.0684396;-0.17930223;0.1336136;;;;;;;;;;;;;;;
1372.0;1248.8;;;;-1.0759698;-0.17913057;0.13169481;;;;;;;;;;;;;;;
1372.0;1248.8;;;;-1.0849382;-0.17813875;0.12876894;;;;;;;;;;;;;;;
1372.0;1248.8;;;;-1.0948068;-0.1764145;0.12682344;;;;;;;;;;;;;;;
1372.0;1248.8;;;;-1.1048738;-0.17478563;0.124870315;;;;;;;;;;;;;;;
1372.0;1258.8;;;;-1.1154786;-0.1724434;0.12262346;;;;;;;;;;;;;;;
1372.0;1258.8;;;;-1.1261789;-0.1700554;0.119640365;;;;;;;;;;;;;;;
1372.0;1258.8;;;;-1.1368028;-0.16812135;0.11619188;;;;;;;;;;;;;;;
1372.0;1258.8;;;;-1.1473237;-0.16607668;0.112663284;;;;;;;;;;;;;;;
1372.0;1258.8;;;;-1.1573411;-0.1650467;0.10913469;;;;;;;;;;;;;;;
1372.0;1260.4;155753;155833;13055;;;;;;;;;;;;;;;;;;
1372.0;1268.9;;;;-1.1656686;-0.16412736;0.10625459;;;;;;;;;;;;;;;
1372.0;1268.9;;;;-1.1727105;-0.16301729;0.10271455;;;;;;;;;;;;;;;
1372.0;1268.9;;;;-1.1799699;-0.16267778;0.09905626;;;;;;;;;;;;;;;
1372.0;1268.9;;;;-1.1867486;-0.1621132;0.09554292;;;;;;;;;;;;;;;
1372.0;1268.9;;;;-1.1943437;-0.16145326;0.09179688;;;;;;;;;;;;;;;
1374.0;1278.9;;;;-1.2011377;-0.1602936;0.08884431;;;;;;;;;;;;;;;
1374.0;1278.9;;;;-1.208584;-0.15874483;0.085968025;;;;;;;;;;;;;;;
1374.0;1278.9;;;;-1.216034;-0.15618135;0.083126076;;;;;;;;;;;;;;;
1374.0;1278.9;;;;-1.2243234;-0.15296938;0.08109666;;;;;;;;;;;;;;;
1374.0;1278.9;;;;-1.2318307;-0.14906313;0.0793686;;;;;;;;;;;;;;;
1374.0;1280.5;172199;172142;13064;;;;;;;;;;;;;;;;;;
1374.0;1286.9;;;;;;;;;;;;;7;;;;;;;;
1374.0;1286.9;;;;;;;;;;;;;-160;;;;;;;;
1374.0;1286.9;;;;;;;;;;;;;-97;;;;;;;;
1374.0;1286.9;;;;;;;;;;;;;330;;;;;;;;
1374.0;1286.9;;;;;;;;;;;;;464;;;;;;;;
1374.0;1289.0;;;;-1.2401353;-0.14509203;0.07779694;;;;;;;;;;;;;;;
1374.0;1289.0;;;;-1.2479516;-0.14097597;0.07683564;;;;;;;;;;;;;;;
1374.0;1289.0;;;;-1.2554322;-0.13668825;0.0760994;;;;;;;;;;;;;;;
1374.0;1289.0;;;;-1.2625505;-0.13288881;0.07441712;;;;;;;;;;;;;;;
1374.0;1289.0;;;;-1.2692415;-0.1287613;0.07390595;;;;;;;;;;;;;;;
1374.0;1299.1;;;;-1.2756158;-0.12510301;0.072875984;;;;;;;;;;;;;;;
1374.0;1299.1;;;;-1.2812616;-0.12119295;0.0716858;;;;;;;;;;;;;;;
1374.0;1299.1;;;;-1.286995;-0.11796953;0.07041169;;;;;;;;;;;;;;;
1374.0;1299.1;;;;-1.2917978;-0.11445619;0.06911469;;;;;;;;;;;;;;;
1374.0;1299.1;;;;-1.2960473;-0.1113701;0.06787873;;;;;;;;;;;;;;;
1375.0;1299.6;;;;;;;;;;;;;;;;;-17.323069;-36.839657;85.22294;;1187.6
1375.0;1299.6;;;;;;;;;;;;;;0.5944395;0.3635975;0.61610764;;;;;1187.6
1375.0;1299.6;;;;;;;;;;;;;;;;;15.049439;-42.092655;77.44072;;1187.6
1375.0;1299.6;;;;;;;;;;;;;;0.6175115;0.53859067;0.47212133;;;;;1187.6
1375.0;1299.6;;;;;;;;;;;;;;;;;43.572803;-60.884426;69.43723;;1197.3
1375.0;1299.6;;;;;;;;;;;;;;0.68697166;0.60860014;-0.15478988;;;;;1197.3
1375.0;1299.6;;;;;;;;;;;;;;;;;46.811577;-79.89364;67.346725;;1197.3
1375.0;1299.6;;;;;;;;;;;;;;0.75588244;0.52919096;-0.5465255;;;;;1197.3
1375.0;1299.6;;;;;;;;;;;;;;;;;29.274881;-93.44768;71.192055;;1206.8
1375.0;1299.6;;;;;;;;;;;;;;0.9526658;0.39643544;-0.45533615;;;;;1206.8
1375.0;1299.6;;;;;;;;;;;;;;;;;12.19596;-95.87009;79.72579;;1206.8
1375.0;1299.6;;;;;;;;;;;;;;1.2264168;0.34272286;-0.26947844;;;;;1206.8
1375.0;1300.4;;;;;;;;;;;;;;;;;8.713035;-92.963196;87.519455;;1216.3
1375.0;1300.4;;;;;;;;;;;;;;1.452498;0.30854213;-0.32410657;;;;;1216.3
1375.0;1300.4;;;;;;;;;;;;;;;;;11.352885;-81.39286;91.26179;;1216.3
1375.0;1300.4;;;;;;;;;;;;;;1.7071444;0.20386365;-0.11505478;;;;;1216.3
1375.0;1300.4;;;;;;;;;;;;;;;;;26.871548;-75.399796;90.628525;;1226.0
1375.0;1300.4;;;;;;;;;;;;;;1.9038666;0.18262276;-0.15619373;;;;;1226.0
1375.0;1300.4;;;;;;;;;;;;;;;;;44.495987;-76.96768;87.39357;;1226.0
1375.0;1300.4;;;;;;;;;;;;;;1.9970092;0.20184942;-0.48139897;;;;;1226.0
1375.0;1300.4;;;;;;;;;;;;;;;;;50.027466;-73.67931;80.175934;;1235.6
1375.0;1300.4;;;;;;;;;;;;;;1.9970092;0.27991578;-0.8511002;;;;;1235.6
1375.0;1300.4;;;;;;;;;;;;;;;;;44.46165;-54.235207;70.135345;;1235.6
1375.0;1300.4;;;;;;;;;;;;;;1.9970092;0.36011842;-0.8341319;;;;;1235.6
1376.0;1300.6;188497;188567;13054;;;;;;;;;;;;;;;;;;
1376.0;1309.0;;;;-1.2991754;-0.10797121;0.06640244;;;;;;;;;;;;;;;
1376.0;1309.0;;;;-1.3019334;-0.10348894;0.06518937;;;;;;;;;;;;;;;
1376.0;1309.0;;;;-1.3046533;-0.099403396;0.06292725;;;;;;;;;;;;;;;
1376.0;1309.0;;;;-1.3060228;-0.09483339;0.06089402;;;;;;;;;;;;;;;
1376.0;1309.0;;;;-1.3059312;-0.090068825;0.059032448;;;;;;;;;;;;;;;
1376.0;1315.0;;;;;;;;;;;;;;;;;39.84954;-32.265694;58.496353;;1245.2
1376.0;1315.0;;;;;;;;;;;;;;1.996826;0.39252907;-0.5328532;;;;;1245.2
1376.0;1315.0;;;;;;;;;;;;;;;;;41.66158;-24.716179;46.666615;;1245.2
1376.0;1315.0;;;;;;;;;;;;;;1.7750175;0.42213202;-0.38422802;;;;;1245.2
1376.0;1315.0;;;;;;;;;;;;;;;;;42.966248;-21.664328;36.98462;;1254.8
1376.0;1315.0;;;;;;;;;;;;;;1.4387646;0.4013184;-0.25171667;;;;;1254.8
1376.0;1315.0;;;;;;;;;;;;;;;;;38.92636;-11.764886;31.170843;;1254.8
1376.0;1315.0;;;;;;;;;;;;;;1.1141697;0.38337353;-0.071657464;;;;;1254.8
1376.0;1315.0;;;;;;;;;;;;;;;;;33.089695;-3.5515916;28.881954;;1264.5
1376.0;1315.0;;;;;;;;;;;;;;0.79909664;0.37372968;-6.103702E-5;;;;;1264.5
1376.0;1315.0;;;;;;;;;;;;;;;;;26.61214;-2.639851;29.122288;;1264.5
1376.0;1315.0;;;;;;;;;;;;;;0.6244087;0.35651723;0.05267495;;;;;1264.5
1376.0;1318.8;;;;-1.304207;-0.085205086;0.057373054;;;;;;;;;;;;;;;
1376.0;1318.8;;;;-1.3020936;-0.08099366;0.05451966;;;;;;;;;;;;;;;
1376.0;1318.8;;;;-1.2995073;-0.07612229;0.051891334;;;;;;;;;;;;;;;
1376.0;1318.8;;;;-1.2975732;-0.06954194;0.0494423;;;;;;;;;;;;;;;
1376.0;1318.8;;;;-1.2957879;-0.06528474;0.0469513;;;;;;;;;;;;;;;
1442.0;1320.6;204957;204982;13069;;;;;;;;;;;;;;;;;;
1442.0;1326.9;;;;;;;;;;;;;-202;;;;;;;;
1442.0;1326.9;;;;;;;;;;;;;-1080;;;;;;;;
1442.0;1326.9;;;;;;;;;;;;;-1515;;;;;;;;
1442.0;1326.9;;;;;;;;;;;;;-1600;;;;;;;;
1442.0;1326.9;;;;;;;;;;;;;-1678;;;;;;;;
1442.0;1328.9;;;;-1.2922136;-0.060737617;0.045249943;;;;;;;;;;;;;;;
1442.0;1328.9;;;;-1.2863961;-0.057022102;0.042797092;;;;;;;;;;;;;;;
1442.0;1328.9;;;;-1.2788049;-0.052738197;0.041225437;;;;;;;;;;;;;;;
1442.0;1328.9;;;;-1.2713166;-0.047977455;0.039550785;;;;;;;;;;;;;;;
1442.0;1328.9;;;;-1.2679292;-0.046443943;0.03736115;;;;;;;;;;;;;;;
1442.0;1338.9;;;;-1.2641641;-0.045341495;0.035846714;;;;;;;;;;;;;;;
1442.0;1338.9;;;;-1.2595483;-0.04492188;0.03474045;;;;;;;;;;;;;;;
1442.0;1338.9;;;;-1.2546045;-0.044918064;0.033527378;;;;;;;;;;;;;;;
1442.0;1338.9;;;;-1.2495233;-0.04420853;0.031772617;;;;;;;;;;;;;;;
1442.0;1338.9;;;;-1.2449037;-0.04230881;0.030212406;;;;;;;;;;;;;;;
1442.0;1340.7;221336;221316;13073;;;;;;;;;;;;;;;;;;
1442.0;1349.0;;;;-1.2403222;-0.039348606;0.029422764;;;;;;;;;;;;;;;
1442.0;1349.0;;;;-1.2350236;-0.035923008;0.027114872;;;;;;;;;;;;;;;
1442.0;1349.0;;;;-1.22958;-0.032955173;0.025455479;;;;;;;;;;;;;;;
1442.0;1349.0;;;;-1.2246515;-0.030471805;0.023941044;;;;;;;;;;;;;;;
1442.0;1349.0;;;;-1.2204553;-0.027626041;0.02252579;;;;;;;;;;;;;;;
1448.0;1359.1;;;;-1.2171174;-0.025169376;0.020469667;;;;;;;;;;;;;;;
1448.0;1359.1;;;;-1.2142144;-0.022933962;0.019035341;;;;;;;;;;;;;;;
1448.0;1359.1;;;;-1.2116624;-0.021160128;0.01771927;;;;;;;;;;;;;;;
1448.0;1359.1;;;;-1.2083246;-0.019897463;0.015529634;;;;;;;;;;;;;;;
1448.0;1359.1;;;;-1.2033693;-0.019081118;0.013027193;;;;;;;;;;;;;;;
1448.0;1359.8;;;;;;;;;;;;;;;;;24.071474;-5.771813;30.434584;;1274.2
1448.0;1359.8;;;;;;;;;;;;;;0.48847926;0.32770777;0.061952576;;;;;1274.2
1448.0;1359.8;;;;;;;;;;;;;;;;;25.81103;-13.183996;32.15125;;1274.2
1448.0;1359.8;;;;;;;;;;;;;;0.40186775;0.35627308;-0.003967406;;;;;1274.2
1448.0;1359.8;;;;;;;;;;;;;;;;;26.051363;-20.317698;34.707172;;1283.8
1448.0;1359.8;;;;;;;;;;;;;;0.39332256;0.3902707;-0.019531846;;;;;1283.8
1448.0;1359.8;;;;;;;;;;;;;;;;;25.761436;-24.353771;38.342693;;1283.8
1448.0;1359.8;;;;;;;;;;;;;;0.41810358;0.42542803;0.006714072;;;;;1283.8
1448.0;1359.8;;;;;;;;;;;;;;;;;27.748955;-27.1424;42.336803;;1293.5
1448.0;1359.8;;;;;;;;;;;;;;0.47401348;0.4364147;-0.012146367;;;;;1293.5
1448.0;1359.8;;;;;;;;;;;;;;;;;30.434584;-28.195288;45.678577;;1293.5
1448.0;1359.8;;;;;;;;;;;;;;0.54268014;0.42518386;-0.04669332;;;;;1293.5
1448.0;1360.9;237731;237795;13074;;;;;;;;;;;;;;;;;;
1448.0;1367.2;;;;;;;;;;;;;-1915;;;;;;;;
1448.0;1367.2;;;;;;;;;;;;;-2025;;;;;;;;
1448.0;1367.2;;;;;;;;;;;;;-1767;;;;;;;;
1448.0;1367.2;;;;;;;;;;;;;-1384;;;;;;;;
1448.0;1367.2;;;;;;;;;;;;;-1215;;;;;;;;
1489.0;1369.1;;;;-1.1972467;-0.018188478;0.010555268;;;;;;;;;;;;;;;
1489.0;1369.1;;;;-1.1909639;-0.017780306;0.00838852;;;;;;;;;;;;;;;
1489.0;1369.1;;;;-1.1847879;-0.01797104;0.0060768137;;;;;;;;;;;;;;;
1489.0;1369.1;;;;-1.1770898;-0.018486025;0.0034027104;;;;;;;;;;;;;;;
1489.0;1369.1;;;;-1.1692582;-0.019348146;0.0017890933;;;;;;;;;;;;;;;
1489.0;1379.2;;;;-1.1603624;-0.020275118;2.5939944E-4;;;;;;;;;;;;;;;
1489.0;1379.2;;;;-1.1512758;-0.02137375;-0.0018997195;;;;;;;;;;;;;;;
1489.0;1379.2;;;;-1.1417733;-0.02256775;-0.0036277776;;;;;;;;;;;;;;;
1489.0;1379.2;;;;-1.1323358;-0.02301407;-0.0054283147;;;;;;;;;;;;;;;
1489.0;1379.2;;;;-1.1240579;-0.023502354;-0.007297517;;;;;;;;;;;;;;;
1489.0;1381.1;254088;254181;13078;;;;;;;;;;;;;;;;;;
1489.0;1389.3;;;;-1.1168138;-0.024105076;-0.008918763;;;;;;;;;;;;;;;
1489.0;1389.3;;;;-1.1106569;-0.02448273;-0.010536195;;;;;;;;;;;;;;;
1489.0;1389.3;;;;-1.105282;-0.025398258;-0.011634828;;;;;;;;;;;;;;;
1489.0;1389.3;;;;-1.0990449;-0.025753025;-0.01274872;;;;;;;;;;;;;;;
1489.0;1389.3;;;;-1.0925142;-0.026283268;-0.013874056;;;;;;;;;;;;;;;
1489.0;1399.3;;;;-1.0849534;-0.027610783;-0.015056612;;;;;;;;;;;;;;;
1489.0;1399.3;;;;-1.0771219;-0.028694157;-0.016353609;;;;;;;;;;;;;;;
1489.0;1399.3;;;;-1.0697938;-0.03054047;-0.017559053;;;;;;;;;;;;;;;
1489.0;1399.3;;;;-1.0630113;-0.032520298;-0.0186615;;;;;;;;;;;;;;;
1489.0;1399.3;;;;-1.0574571;-0.034255985;-0.019001009;;;;;;;;;;;;;;;
1490.0;1401.3;262143;262143;13080;;;;;;;;;;;;;;;;;;
1490.0;1407.6;;;;;;;;;;;;;-1304;;;;;;;;
1490.0;1407.6;;;;;;;;;;;;;-1336;;;;;;;;
1490.0;1407.6;;;;;;;;;;;;;-1065;;;;;;;;
1490.0;1407.6;;;;;;;;;;;;;-427;;;;;;;;
1490.0;1407.6;;;;;;;;;;;;;357;;;;;;;;
1490.0;1409.4;;;;-1.0525666;-0.036853794;-0.019340517;;;;;;;;;;;;;;;
1490.0;1409.4;;;;-1.0474969;-0.03960419;-0.018703463;;;;;;;;;;;;;;;
1490.0;1409.4;;;;-1.0427095;-0.04228211;-0.018653871;;;;;;;;;;;;;;;
1490.0;1409.4;;;;-1.03751;-0.044349674;-0.018795015;;;;;;;;;;;;;;;
1490.0;1409.4;;;;-1.0323297;-0.046630863;-0.018730165;;;;;;;;;;;;;;;
1490.0;1419.5;;;;-1.0270883;-0.049285896;-0.01866913;;;;;;;;;;;;;;;
1490.0;1419.5;;;;-1.0221444;-0.05130387;-0.018642427;;;;;;;;;;;;;;;
1490.0;1419.5;;;;-1.017933;-0.05401612;-0.018413546;;;;;;;;;;;;;;;
1490.0;1419.5;;;;-1.0137788;-0.056423195;-0.018550875;;;;;;;;;;;;;;;
1490.0;1419.5;;;;-1.0108072;-0.059101112;-0.018398287;;;;;;;;;;;;;;;
1491.0;1420.4;;;;;;;;;;;;;;;;;32.464066;-28.992584;48.310802;;1303.1
1491.0;1420.4;;;;;;;;;;;;;;0.62331;0.41413617;-0.0733665;;;;;1303.1
1491.0;1420.4;;;;;;;;;;;;;;;;;34.47447;-29.782251;50.351723;;1303.1
1491.0;1420.4;;;;;;;;;;;;;;0.71236306;0.40156254;-0.09533983;;;;;1303.1
1491.0;1420.4;;;;;;;;;;;;;;;;;36.931213;-29.984434;52.26676;;1312.7
1491.0;1420.4;;;;;;;;;;;;;;0.8103885;0.39271218;-0.13550219;;;;;1312.7
1491.0;1420.4;;;;;;;;;;;;;;;;;38.76614;-29.057436;54.612873;;1312.7
1491.0;1420.4;;;;;;;;;;;;;;0.8923002;0.38215277;-0.18933684;;;;;1312.7
1491.0;1420.4;;;;;;;;;;;;;;;;;38.972137;-27.794731;57.500687;;1322.4
1491.0;1420.4;;;;;;;;;;;;;;0.9607227;0.3717765;-0.2379223;;;;;1322.4
1491.0;1420.4;;;;;;;;;;;;;;;;;37.69036;-26.50151;60.426647;;1322.4
1491.0;1420.4;;;;;;;;;;;;;;1.0103458;0.36909086;-0.2760094;;;;;1322.4
1491.0;1421.1;;;;;;;;;;;;;;;;;36.217842;-26.188696;62.63543;;1331.9
1491.0;1421.1;;;;;;;;;;;;;;1.0581988;0.39069796;-0.29523605;;;;;1331.9
1491.0;1421.1;;;;;;;;;;;;;;;;;35.008545;-25.967436;63.91339;;1331.9
1491.0;1421.1;;;;;;;;;;;;;;1.0873744;0.42133853;-0.28949857;;;;;1331.9
1491.0;1421.1;;;;;;;;;;;;;;;;;32.87988;-26.467178;64.23765;;1341.5
1491.0;1421.1;;;;;;;;;;;;;;1.1132542;0.4410535;-0.28699607;;;;;1341.5
1491.0;1421.1;;;;;;;;;;;;;;;;;29.744102;-26.84103;63.894318;;1341.5
1491.0;1421.1;;;;;;;;;;;;;;1.1221045;0.46052432;-0.26813564;;;;;1341.5
1491.0;1421.1;;;;;;;;;;;;;;;;;26.017029;-27.073734;62.902466;;1351.1
1491.0;1421.1;;;;;;;;;;;;;;1.111301;0.49690238;-0.23078097;;;;;1351.1
1491.0;1421.1;;;;;;;;;;;;;;;;;21.973328;-27.539139;60.731834;;1351.1
1491.0;1421.1;;;;;;;;;;;;;;1.0927458;0.5208289;-0.19129002;;;;;1351.1
1553.0;1421.3;262143;262143;13086;;;;;;;;;;;;;;;;;;
1553.0;1429.4;;;;-1.0088769;-0.06158448;-0.019126894;;;;;;;;;;;;;;;
1553.0;1429.4;;;;-1.0071985;-0.06320191;-0.018817903;;;;;;;;;;;;;;;
1553.0;1429.4;;;;-1.0064584;-0.06564332;-0.019256594;;;;;;;;;;;;;;;
1553.0;1429.4;;;;-1.0057222;-0.067565925;-0.019580843;;;;;;;;;;;;;;;
1553.0;1429.4;;;;-1.0046159;-0.069473274;-0.018989565;;;;;;;;;;;;;;;
1553.0;1439.4;;;;-1.002514;-0.07076264;-0.019847872;;;;;;;;;;;;;;;
1553.0;1439.4;;;;-0.99915326;-0.072292335;-0.020549776;;;;;;;;;;;;;;;
1553.0;1439.4;;;;-0.995453;-0.07395173;-0.021244051;;;;;;;;;;;;;;;
1553.0;1439.4;;;;-0.9916841;-0.07598115;-0.022239687;;;;;;;;;;;;;;;
1553.0;1439.4;;;;-0.9878961;-0.078212745;-0.02177048;;;;;;;;;;;;;;;
1553.0;1441.5;262143;262143;13082;;;;;;;;;;;;;;;;;;
1553.0;1447.7;;;;;;;;;;;;;915;;;;;;;;
1553.0;1447.7;;;;;;;;;;;;;1374;;;;;;;;
1553.0;1447.7;;;;;;;;;;;;;1790;;;;;;;;
1553.0;1447.7;;;;;;;;;;;;;1566;;;;;;;;
1553.0;1447.7;;;;;;;;;;;;;705;;;;;;;;
1553.0;1449.3;;;;-0.9833337;-0.07977677;-0.022033693;;;;;;;;;;;;;;;
1553.0;1449.3;;;;-0.97974026;-0.0818863;-0.021118166;;;;;;;;;;;;;;;
1553.0;1449.3;;;;-0.9766389;-0.08377839;-0.020046236;;;;;;;;;;;;;;;
1553.0;1449.3;;;;-0.97428906;-0.08537293;-0.018093111;;;;;;;;;;;;;;;
1553.0;1449.3;;;;-0.9718591;-0.086917885;-0.01704407;;;;;;;;;;;;;;;
1556.0;1459.4;;;;-0.9682008;-0.08840562;-0.015377047;;;;;;;;;;;;;;;
1556.0;1459.4;;;;-0.9639207;-0.0900879;-0.014297487;;;;;;;;;;;;;;;
1556.0;1459.4;;;;-0.96113217;-0.091644295;-0.0131721515;;;;;;;;;;;;;;;
1556.0;1459.4;;;;-0.9593965;-0.09285737;-0.012451174;;;;;;;;;;;;;;;
1556.0;1459.4;;;;-0.9593431;-0.09391023;-0.010616303;;;;;;;;;;;;;;;
1556.0;1461.6;262143;262143;13084;;;;;;;;;;;;;;;;;;
1556.0;1469.5;;;;-0.95991147;-0.09538652;-0.008033753;;;;;;;;;;;;;;;
1556.0;1469.5;;;;-0.9596406;-0.0960045;-0.00637436;;;;;;;;;;;;;;;
1556.0;1469.5;;;;-0.9594842;-0.09655382;-0.00441742;;;;;;;;;;;;;;;
1556.0;1469.5;;;;-0.95751584;-0.0973015;-0.0015602114;;;;;;;;;;;;;;;
1556.0;1469.5;;;;-0.9538232;-0.09744646;8.0108654E-4;;;;;;;;;;;;;;;
1556.0;1479.7;;;;-0.9496156;-0.098396316;0.0021781924;;;;;;;;;;;;;;;
1556.0;1479.7;;;;-0.94537747;-0.09896089;0.004077912;;;;;;;;;;;;;;;
1556.0;1479.7;;;;-0.94199383;-0.09916307;0.006019593;;;;;;;;;;;;;;;
1556.0;1479.7;;;;-0.9390336;-0.10056688;0.0061073313;;;;;;;;;;;;;;;
1556.0;1479.7;;;;-0.93595517;-0.10122301;0.0070877085;;;;;;;;;;;;;;;
1557.0;1481.1;;;;;;;;;;;;;;;;;18.23481;-27.947325;57.63039;;1360.8
1557.0;1481.1;;;;;;;;;;;;;;1.0793786;0.5056307;-0.16632588;;;;;1360.8
1557.0;1481.1;;;;;;;;;;;;;;;;;15.480514;-27.829065;54.200874;;1360.8
1557.0;1481.1;;;;;;;;;;;;;;1.0361034;0.5285196;-0.15436262;;;;;1360.8
1557.0;1481.1;;;;;;;;;;;;;;;;;12.192145;-28.183844;51.01169;;1370.5
1557.0;1481.1;;;;;;;;;;;;;;1.0175481;0.51496935;-0.15546128;;;;;1370.5
1557.0;1481.1;;;;;;;;;;;;;;;;;8.461257;-27.787102;47.89117;;1370.5
1557.0;1481.1;;;;;;;;;;;;;;0.9971008;0.50148016;-0.14996795;;;;;1370.5
1557.0;1481.1;;;;;;;;;;;;;;;;;4.9668875;-26.272621;45.5298;;1380.1
1557.0;1481.1;;;;;;;;;;;;;;0.95522934;0.47657704;-0.12738426;;;;;1380.1
1557.0;1481.1;;;;;;;;;;;;;;;;;2.2202215;-25.17014;43.877987;;1380.1
1557.0;1481.1;;;;;;;;;;;;;;0.9214759;0.45033112;-0.11877804;;;;;1380.1
1557.0;1481.9;;;;;;;;;;;;;;;;;0.24796289;-23.739586;42.90521;;1389.7
1557.0;1481.9;;;;;;;;;;;;;;0.8786279;0.4201178;-0.10925627;;;;;1389.7
1557.0;1481.9;;;;;;;;;;;;;;;;;-0.8697775;-23.316141;42.386395;;1389.7
1557.0;1481.9;;;;;;;;;;;;;;0.84774315;0.39954832;-0.110293895;;;;;1389.7
1557.0;1481.9;;;;;;;;;;;;;;;;;-1.9875181;-23.167364;42.42073;;1399.4
1557.0;1481.9;;;;;;;;;;;;;;0.8302255;0.37733084;-0.103274636;;;;;1399.4
1557.0;1481.9;;;;;;;;;;;;;;;;;-3.173925;-22.675253;42.71447;;1399.4
1557.0;1481.9;;;;;;;;;;;;;;0.8199713;0.35871455;-0.10333567;;;;;1399.4
1557.0;1481.9;;;;;;;;;;;;;;;;;-3.9178138;-22.133549;43.33247;;1409.0
1557.0;1481.9;;;;;;;;;;;;;;0.7984863;0.3426008;-0.10364086;;;;;1409.0
1557.0;1481.9;;;;;;;;;;;;;;;;;-4.0246286;-22.919401;44.17173;;1409.0
1557.0;1481.9;;;;;;;;;;;;;;0.8016602;0.32441175;-0.11877804;;;;;1409.0
1561.0;1481.7;262143;262143;13082;;;;;;;;;;;;;;;;;;
1561.0;1488.2;;;;;;;;;;;;;;;;;-3.2654805;-23.644215;45.209354;;1418.6
1561.0;1488.2;;;;;;;;;;;;;;0.80251473;0.30738243;-0.13043611;;;;;1418.6
1561.0;1488.2;;;;;;;;;;;;;;;;;-1.9302957;-24.193548;46.658985;;1418.6
1561.0;1488.2;;;;;;;;;;;;;;0.8077029;0.28022096;-0.13922544;;;;;1418.6
1561.0;1488.2;;;;;;;;;;;;;;;;;-0.14877774;-24.712364;48.57784;;1428.2
1561.0;1488.2;;;;;;;;;;;;;;0.80538344;0.26374096;-0.15686513;;;;;1428.2
1561.0;1488.2;;;;;;;;;;;;;;;;;1.6098514;-25.959806;50.984985;;1428.2
1561.0;1488.2;;;;;;;;;;;;;;0.814478;0.2582476;-0.18066958;;;;;1428.2
1561.0;1488.2;;;;;;;;;;;;;;;;;2.994629;-27.249214;53.18995;;1437.9
1561.0;1488.2;;;;;;;;;;;;;;0.8219245;0.25659963;-0.19989623;;;;;1437.9
1561.0;1488.2;;;;;;;;;;;;;;;;;3.7690358;-28.298288;55.16602;;1437.9
1561.0;1488.2;;;;;;;;;;;;;;0.8406018;0.23914304;-0.20966215;;;;;1437.9
1561.0;1488.1;;;;;;;;;;;;;577;;;;;;;;
1561.0;1488.1;;;;;;;;;;;;;2415;;;;;;;;
1561.0;1488.1;;;;;;;;;;;;;3288;;;;;;;;
1561.0;1488.1;;;;;;;;;;;;;-3757;;;;;;;;
1561.0;1488.1;;;;;;;;;;;;;-18992;;;;;;;;
1561.0;1489.5;;;;-0.93236935;-0.10224916;0.008953095;;;;;;;;;;;;;;;
1561.0;1489.5;;;;-0.9291421;-0.10283281;0.009666444;;;;;;;;;;;;;;;
1561.0;1489.5;;;;-0.92689145;-0.10322954;0.011054994;;;;;;;;;;;;;;;
1561.0;1489.5;;;;-0.9267999;-0.10387041;0.013301851;;;;;;;;;;;;;;;
1561.0;1489.5;;;;-0.9275323;-0.10424043;0.014881136;;;;;;;;;;;;;;;
1609.0;1499.5;;;;-0.92951214;-0.10401918;0.016933443;;;;;;;;;;;;;;;
1609.0;1499.5;;;;-0.9310571;-0.10406496;0.018451693;;;;;;;;;;;;;;;
1609.0;1499.5;;;;-0.9309312;-0.10351564;0.020397188;;;;;;;;;;;;;;;
1609.0;1499.5;;;;-0.9293481;-0.1029091;0.022357943;;;;;;;;;;;;;;;
1609.0;1499.5;;;;-0.92792904;-0.10261156;0.0232811;;;;;;;;;;;;;;;
1609.0;1501.8;262143;262143;13095;;;;;;;;;;;;;;;;;;
1609.0;1509.4;;;;-0.92642987;-0.10260011;0.02467728;;;;;;;;;;;;;;;
1609.0;1509.4;;;;-0.92458355;-0.10219194;0.026729587;;;;;;;;;;;;;;;
1609.0;1509.4;;;;-0.92221844;-0.10197832;0.027896885;;;;;;;;;;;;;;;
1609.0;1509.4;;;;-0.92058575;-0.10214235;0.027091984;;;;;;;;;;;;;;;
1609.0;1509.4;;;;-0.91918576;-0.102432266;0.028133396;;;;;;;;;;;;;;;
1609.0;1519.6;;;;-0.91306317;-0.09998323;0.030193333;;;;;;;;;;;;;;;
1609.0;1519.6;;;;-0.90335095;-0.093406685;0.033077244;;;;;;;;;;;;;;;
1609.0;1519.6;;;;-0.9036294;-0.09290696;0.029277805;;;;;;;;;;;;;;;
1609.0;1519.6;;;;-0.9118539;-0.099597946;0.025810245;;;;;;;;;;;;;;;
1609.0;1519.6;;;;-0.9144403;-0.104202285;0.029758457;;;;;;;;;;;;;;;
1609.0;1521.9;262143;262143;13096;;;;;;;;;;;;;;;;;;
1609.0;1528.1;;;;;;;;;;;;;-30681;;;;;;;;
1609.0;1528.1;;;;;;;;;;;;;-27423;;;;;;;;
1609.0;1528.1;;;;;;;;;;;;;-12305;;;;;;;;
1609.0;1528.1;;;;;;;;;;;;;819;;;;;;;;
1609.0;1528.1;;;;;;;;;;;;;4139;;;;;;;;
1619.0;1529.7;;;;-0.9095613;-0.10386659;0.0331955;;;;;;;;;;;;;;;
1619.0;1529.7;;;;-0.90545666;-0.10299303;0.03131104;;;;;;;;;;;;;;;
1619.0;1529.7;;;;-0.9032632;-0.103202835;0.03060532;;;;;;;;;;;;;;;
1619.0;1529.7;;;;-0.90049756;-0.10248949;0.032020573;;;;;;;;;;;;;;;
1619.0;1529.7;;;;-0.8953668;-0.10113527;0.03355408;;;;;;;;;;;;;;;
1619.0;1539.8;;;;-0.88930905;-0.09953691;0.034011845;;;;;;;;;;;;;;;
1619.0;1539.8;;;;-0.88409054;-0.09838487;0.03369141;;;;;;;;;;;;;;;
1619.0;1539.8;;;;-0.8802606;-0.09796907;0.033329014;;;;;;;;;;;;;;;
1619.0;1539.8;;;;-0.8754808;-0.099281326;0.03285599;;;;;;;;;;;;;;;
1619.0;1539.8;;;;-0.86901104;-0.100044265;0.03308106;;;;;;;;;;;;;;;
1619.0;1540.9;;;;;;;;;;;;;;;;;5.7222204;-28.859066;56.642353;;1447.5
1619.0;1540.9;;;;;;;;;;;;;;0.85842466;0.23871578;-0.21759698;;;;;1447.5
1619.0;1540.9;;;;;;;;;;;;;;;;;6.85522;-29.78988;58.65276;;1447.5
1619.0;1540.9;;;;;;;;;;;;;;0.89278847;0.23706779;-0.23371075;;;;;1447.5
1619.0;1540.9;;;;;;;;;;;;;;;;;7.6792197;-28.931547;59.76669;;1457.1
1619.0;1540.9;;;;;;;;;;;;;;0.89419234;0.2365795;-0.2240669;;;;;1457.1
1619.0;1540.9;;;;;;;;;;;;;;;;;7.8394423;-28.195288;59.93072;;1457.1
1619.0;1540.9;;;;;;;;;;;;;;0.8834498;0.23603015;-0.22003846;;;;;1457.1
1619.0;1540.9;;;;;;;;;;;;;;;;;8.369701;-28.798029;59.8735;;1466.8
1619.0;1540.9;;;;;;;;;;;;;;0.88393813;0.19965209;-0.22663045;;;;;1466.8
1619.0;1540.9;;;;;;;;;;;;;;;;;9.4073305;-29.553362;59.892574;;1466.8
1619.0;1540.9;;;;;;;;;;;;;;0.8868679;0.19312114;-0.23523667;;;;;1466.8
1619.0;1542.0;262143;262143;13098;;;;;;;;;;;;;;;;;;
1622.0;1549.8;;;;-0.86324704;-0.10087587;0.03292847;;;;;;;;;;;;;;;
1622.0;1549.8;;;;-0.85761654;-0.101043716;0.032932285;;;;;;;;;;;;;;;
1622.0;1549.8;;;;-0.8530885;-0.10110094;0.032974247;;;;;;;;;;;;;;;
1622.0;1549.8;;;;-0.8502389;-0.10263063;0.031723026;;;;;;;;;;;;;;;
1622.0;1549.8;;;;-0.8468934;-0.10461046;0.032203678;;;;;;;;;;;;;;;
1622.0;1556.0;;;;;;;;;;;;;;;;;10.357219;-29.641104;59.686577;;1476.3
1622.0;1556.0;;;;;;;;;;;;;;0.8867458;0.2038026;-0.23474838;;;;;1476.3
1622.0;1556.0;;;;;;;;;;;;;;;;;11.894589;-29.778437;59.08765;;1476.3
1622.0;1556.0;;;;;;;;;;;;;;0.8728294;0.2252266;-0.23041475;;;;;1476.3
1622.0;1556.0;;;;;;;;;;;;;;;;;12.897885;-30.476545;58.58791;;1485.9
1622.0;1556.0;;;;;;;;;;;;;;0.87051;0.23322245;-0.22894986;;;;;1485.9
1622.0;1556.0;;;;;;;;;;;;;;;;;13.157292;-30.888546;58.282722;;1485.9
1622.0;1556.0;;;;;;;;;;;;;;0.8728294;0.25141147;-0.2273629;;;;;1485.9
1622.0;1556.0;;;;;;;;;;;;;;;;;11.860256;-31.12888;58.05765;;1495.5
1622.0;1556.0;;;;;;;;;;;;;;0.8813135;0.2618488;-0.21955016;;;;;1495.5
1622.0;1556.0;;;;;;;;;;;;;;;;;9.334849;-31.029694;58.091984;;1495.5
1622.0;1556.0;;;;;;;;;;;;;;0.88753927;0.26532793;-0.19244972;;;;;1495.5
1622.0;1559.6;;;;-0.8431779;-0.1055565;0.033405308;;;;;;;;;;;;;;;
1622.0;1559.6;;;;-0.83955777;-0.10586549;0.033477787;;;;;;;;;;;;;;;
1622.0;1559.6;;;;-0.83597195;-0.10713579;0.032752994;;;;;;;;;;;;;;;
1622.0;1559.6;;;;-0.83313;-0.10840227;0.032844547;;;;;;;;;;;;;;;
1622.0;1559.6;;;;-0.8307954;-0.11067201;0.033313755;;;;;;;;;;;;;;;
1622.0;1562.0;262143;262143;13096;;;;;;;;;;;;;;;;;;
1673.0;1568.3;;;;;;;;;;;;;1907;;;;;;;;
1673.0;1568.3;;;;;;;;;;;;;846;;;;;;;;
1673.0;1568.3;;;;;;;;;;;;;1649;;;;;;;;
1673.0;1568.3;;;;;;;;;;;;;1934;;;;;;;;
1673.0;1568.3;;;;;;;;;;;;;1849;;;;;;;;
1673.0;1569.7;;;;-0.8271142;-0.111843124;0.0346489;;;;;;;;;;;;;;;
1673.0;1569.7;;;;-0.8229257;-0.11342622;0.034652714;;;;;;;;;;;;;;;
1673.0;1569.7;;;;-0.8189622;-0.114238754;0.034420017;;;;;;;;;;;;;;;
1673.0;1569.7;;;;-0.8167726;-0.11565401;0.034385685;;;;;;;;;;;;;;;
1673.0;1569.7;;;;-0.8138505;-0.11690904;0.03646088;;;;;;;;;;;;;;;
1673.0;1579.8;;;;-0.8118173;-0.11873628;0.037502293;;;;;;;;;;;;;;;
1673.0;1579.8;;;;-0.809559;-0.11969377;0.03848267;;;;;;;;;;;;;;;
1673.0;1579.8;;;;-0.8079759;-0.120510116;0.039340977;;;;;;;;;;;;;;;
1673.0;1579.8;;;;-0.8076898;-0.12170412;0.039901737;;;;;;;;;;;;;;;
1673.0;1579.8;;;;-0.8075563;-0.122653976;0.04054642;;;;;;;;;;;;;;;
1673.0;1582.3;262143;262143;13105;;;;;;;;;;;;;;;;;;
1673.0;1589.9;;;;-0.80692685;-0.123748794;0.039314274;;;;;;;;;;;;;;;
1673.0;1589.9;;;;-0.8056985;-0.12465288;0.03866196;;;;;;;;;;;;;;;
1673.0;1589.9;;;;-0.8041154;-0.12607576;0.03842545;;;;;;;;;;;;;;;
1673.0;1589.9;;;;-0.8015634;-0.12747194;0.03885651;;;;;;;;;;;;;;;
1673.0;1589.9;;;;-0.79883206;-0.12912752;0.038845066;;;;;;;;;;;;;;;
1675.0;1600.0;;;;-0.7965127;-0.13076784;0.0387497;;;;;;;;;;;;;;;
1675.0;1600.0;;;;-0.79488003;-0.1330681;0.03847504;;;;;;;;;;;;;;;
1675.0;1600.0;;;;-0.793934;-0.13542177;0.039104465;;;;;;;;;;;;;;;
1675.0;1600.0;;;;-0.7927438;-0.137558;0.040271763;;;;;;;;;;;;;;;
1675.0;1600.0;;;;-0.7921983;-0.1389618;0.04130936;;;;;;;;;;;;;;;
1675.0;1601.2;;;;;;;;;;;;;;;;;6.408887;-30.877102;58.229317;;1505.1
1675.0;1601.2;;;;;;;;;;;;;;0.9116489;0.2624592;-0.16913357;;;;;1505.1
1675.0;1601.2;;;;;;;;;;;;;;;;;3.0632956;-29.343548;58.48491;;1505.1
1675.0;1601.2;;;;;;;;;;;;;;0.91189307;0.27588734;-0.16168706;;;;;1505.1
1675.0;1601.2;;;;;;;;;;;;;;;;;-1.1329997;-28.06177;58.557392;;1514.7
1675.0;1601.2;;;;;;;;;;;;;;0.9279458;0.25861385;-0.1528367;;;;;1514.7
1675.0;1601.2;;;;;;;;;;;;;;;;;-4.7189245;-26.909697;58.58791;;1514.7
1675.0;1601.2;;;;;;;;;;;;;;0.9533372;0.2450026;-0.15308085;;;;;1514.7
1675.0;1601.2;;;;;;;;;;;;;;;;;-7.209998;-25.608845;58.622242;;1524.3
1675.0;1601.2;;;;;;;;;;;;;;0.95236063;0.2365795;-0.16083254;;;;;1524.3
1675.0;1601.2;;;;;;;;;;;;;;;;;-9.395886;-25.620289;58.31706;;1524.3
1675.0;1601.2;;;;;;;;;;;;;;0.94912565;0.20282601;-0.20252083;;;;;1524.3
1675.0;1602.3;262143;262143;13093;;;;;;;;;;;;;;;;;;
1676.0;1608.7;;;;;;;;;;;;;;;;;-11.993774;-25.204473;57.5045;;1533.9
1676.0;1608.7;;;;;;;;;;;;;;0.9552904;0.1788995;-0.21851254;;;;;1533.9
1676.0;1608.7;;;;;;;;;;;;;;;;;-14.465774;-23.94177;56.543167;;1533.9
1676.0;1608.7;;;;;;;;;;;;;;0.9432661;0.12585834;-0.21491134;;;;;1533.9
1676.0;1608.7;;;;;;;;;;;;;;;;;-15.835291;-22.61803;55.192722;;1543.6
1676.0;1608.7;;;;;;;;;;;;;;0.92934966;0.10199286;-0.19299905;;;;;1543.6
1676.0;1608.7;;;;;;;;;;;;;;;;;-15.968811;-21.72918;53.720207;;1543.6
1676.0;1608.7;;;;;;;;;;;;;;0.9122593;0.072878204;-0.16687521;;;;;1543.6
1676.0;1608.7;;;;;;;;;;;;;;;;;-14.610737;-21.172216;51.94632;;1553.2
1676.0;1608.7;;;;;;;;;;;;;;0.88930935;0.05114902;-0.146733;;;;;1553.2
1676.0;1608.7;;;;;;;;;;;;;;;;;-12.325664;-20.939512;50.23728;;1553.2
1676.0;1608.7;;;;;;;;;;;;;;0.8808252;0.037781917;-0.13037507;;;;;1553.2
1676.0;1608.5;;;;;;;;;;;;;2005;;;;;;;;
1676.0;1608.5;;;;;;;;;;;;;1897;;;;;;;;
1676.0;1608.5;;;;;;;;;;;;;1443;;;;;;;;
1676.0;1608.5;;;;;;;;;;;;;729;;;;;;;;
1676.0;1608.5;;;;;;;;;;;;;18;;;;;;;;
1676.0;1609.8;;;;-0.7911378;-0.14060976;0.042083744;;;;;;;;;;;;;;;
1676.0;1609.8;;;;-0.7891923;-0.14244463;0.043865208;;;;;;;;;;;;;;;
1676.0;1609.8;;;;-0.7862512;-0.14429094;0.045570377;;;;;;;;;;;;;;;
1676.0;1609.8;;;;-0.7844964;-0.145916;0.046398167;;;;;;;;;;;;;;;
1676.0;1609.8;;;;-0.7833291;-0.14745332;0.04674149;;;;;;;;;;;;;;;
1729.0;1619.8;;;;-0.7833291;-0.14862062;0.048057564;;;;;;;;;;;;;;;
1729.0;1619.8;;;;-0.78413785;-0.14917375;0.050071724;;;;;;;;;;;;;;;
1729.0;1619.8;;;;-0.7853395;-0.1491852;0.05230332;;;;;;;;;;;;;;;
1729.0;1619.8;;;;-0.78767407;-0.14836504;0.0536995;;;;;;;;;;;;;;;
1729.0;1619.8;;;;-0.79036725;-0.14759447;0.0540886;;;;;;;;;;;;;;;
1729.0;1622.4;262143;262143;13102;;;;;;;;;;;;;;;;;;
1729.0;1629.8;;;;-0.7923547;-0.14642717;0.05656434;;;;;;;;;;;;;;;
1729.0;1629.8;;;;-0.79447186;-0.14561082;0.05763627;;;;;;;;;;;;;;;
1729.0;1629.8;;;;-0.798874;-0.14657976;0.05636216;;;;;;;;;;;;;;;
1729.0;1629.8;;;;-0.80189145;-0.14802171;0.057357796;;;;;;;;;;;;;;;
1729.0;1629.8;;;;-0.8052331;-0.14958192;0.058086403;;;;;;;;;;;;;;;
1729.0;1639.7;;;;-0.8087503;-0.15157701;0.05679322;;;;;;;;;;;;;;;
1729.0;1639.7;;;;-0.81076825;-0.1524582;0.056667335;;;;;;;;;;;;;;;
1729.0;1639.7;;;;-0.81131375;-0.15177156;0.05918122;;;;;;;;;;;;;;;
1729.0;1639.7;;;;-0.81273663;-0.15114976;0.060581215;;;;;;;;;;;;;;;
1729.0;1639.7;;;;-0.81632245;-0.15159227;0.06064225;;;;;;;;;;;;;;;
1729.0;1642.3;262143;262143;13109;;;;;;;;;;;;;;;;;;
1729.0;1648.5;;;;;;;;;;;;;-278;;;;;;;;
1729.0;1648.5;;;;;;;;;;;;;-106;;;;;;;;
1729.0;1648.5;;;;;;;;;;;;;151;;;;;;;;
1729.0;1648.5;;;;;;;;;;;;;126;;;;;;;;
1729.0;1648.5;;;;;;;;;;;;;-170;;;;;;;;
1733.0;1649.8;;;;-0.8199922;-0.15184022;0.063732155;;;;;;;;;;;;;;;
1733.0;1649.8;;;;-0.82187283;-0.15034105;0.06722642;;;;;;;;;;;;;;;
1733.0;1649.8;;;;-0.82539;-0.1495514;0.06686021;;;;;;;;;;;;;;;
1733.0;1649.8;;;;-0.83033764;-0.14881898;0.066688545;;;;;;;;;;;;;;;
1733.0;1649.8;;;;-0.8341981;-0.14743043;0.06880952;;;;;;;;;;;;;;;
1733.0;1659.9;;;;-0.83908856;-0.14688875;0.06807328;;;;;;;;;;;;;;;
1733.0;1659.9;;;;-0.84305584;-0.14684679;0.068134315;;;;;;;;;;;;;;;
1733.0;1659.9;;;;-0.8456155;-0.14629366;0.07025529;;;;;;;;;;;;;;;
1733.0;1659.9;;;;-0.8479768;-0.14568712;0.07041169;;;;;;;;;;;;;;;
1733.0;1659.9;;;;-0.84983075;-0.14538957;0.07072831;;;;;;;;;;;;;;;
1733.0;1662.4;262143;262143;13104;;;;;;;;;;;;;;;;;;
1733.0;1668.7;;;;;;;;;;;;;;;;;-9.384442;-19.901882;48.539692;;1562.8
1733.0;1668.7;;;;;;;;;;;;;;0.8601947;0.039613027;-0.13812678;;;;;1562.8
1733.0;1668.7;;;;;;;;;;;;;;;;;-7.065035;-18.677328;47.021393;;1562.8
1733.0;1668.7;;;;;;;;;;;;;;0.84340954;0.047425766;-0.1478927;;;;;1562.8
1733.0;1668.7;;;;;;;;;;;;;;;;;-6.2448497;-18.265327;46.02954;;1572.5
1733.0;1668.7;;;;;;;;;;;;;;0.8323618;0.03814814;-0.15131077;;;;;1572.5
1733.0;1668.7;;;;;;;;;;;;;;;;;-6.0197763;-18.711662;45.602283;;1572.5
1733.0;1668.7;;;;;;;;;;;;;;0.8233284;0.016663106;-0.16394544;;;;;1572.5
1733.0;1668.7;;;;;;;;;;;;;;;;;-5.1538134;-19.627216;45.121616;;1582.0
1733.0;1668.7;;;;;;;;;;;;;;0.83474225;0.027161473;-0.17218544;;;;;1582.0
1733.0;1668.7;;;;;;;;;;;;;;;;;-4.2840357;-19.928587;44.67528;;1582.0
1733.0;1668.7;;;;;;;;;;;;;;0.85549486;0.029358806;-0.18237862;;;;;1582.0
1735.0;1669.5;;;;;;;;;;;;;;;;;-3.7995543;-18.34544;44.10306;;1591.5
1735.0;1669.5;;;;;;;;;;;;;;0.86178166;0.03442488;-0.1810358;;;;;1591.5
1735.0;1669.5;;;;;;;;;;;;;;;;;-3.4638507;-16.384624;43.65673;;1591.5
1735.0;1669.5;;;;;;;;;;;;;;0.88253427;0.03991821;-0.17371136;;;;;1591.5
1735.0;1669.5;;;;;;;;;;;;;;;;;-2.6932585;-14.217811;42.924286;;1601.2
1735.0;1669.5;;;;;;;;;;;;;;0.88912624;0.04095584;-0.18005921;;;;;1601.2
1735.0;1669.5;;;;;;;;;;;;;;;;;-0.98803675;-12.340922;42.023987;;1601.2
1735.0;1669.5;;;;;;;;;;;;;;0.89706105;0.0524308;-0.20459609;;;;;1601.2
1735.0;1669.5;;;;;;;;;;;;;;;;;0.7477035;-10.269479;40.90243;;1610.9
1735.0;1669.5;;;;;;;;;;;;;;0.89455855;0.06280709;-0.20508438;;;;;1610.9
1735.0;1669.5;;;;;;;;;;;;;;;;;2.7542956;-9.056368;39.605392;;1610.9
1735.0;1669.5;;;;;;;;;;;;;;0.8905301;0.07061983;-0.20032349;;;;;1610.9
1735.0;1669.6;;;;-0.8518487;-0.14494325;0.07214356;;;;;;;;;;;;;;;
1735.0;1669.6;;;;-0.854622;-0.14528276;0.07287217;;;;;;;;;;;;;;;
1735.0;1669.6;;;;-0.85585415;-0.1452942;0.074768074;;;;;;;;;;;;;;;
1735.0;1669.6;;;;-0.85727704;-0.14496996;0.077018745;;;;;;;;;;;;;;;
1735.0;1669.6;;;;-0.8603288;-0.14531328;0.07871247;;;;;;;;;;;;;;;
1735.0;1679.6;;;;-0.8625909;-0.14547731;0.08185197;;;;;;;;;;;;;;;
1735.0;1679.6;;;;-0.8651048;-0.14428712;0.08443452;;;;;;;;;;;;;;;
1735.0;1679.6;;;;-0.86852276;-0.14306642;0.087226875;;;;;;;;;;;;;;;
1735.0;1679.6;;;;-0.8734399;-0.14186479;0.09117509;;;;;;;;;;;;;;;
1735.0;1679.6;;;;-0.8806535;-0.14053346;0.094432846;;;;;;;;;;;;;;;
1735.0;1682.4;262143;262143;13111;;;;;;;;;;;;;;;;;;
1791.0;1688.6;;;;;;;;;;;;;-582;;;;;;;;
1791.0;1688.6;;;;;;;;;;;;;-876;;;;;;;;
1791.0;1688.6;;;;;;;;;;;;;-1046;;;;;;;;
1791.0;1688.6;;;;;;;;;;;;;-1290;;;;;;;;
1791.0;1688.6;;;;;;;;;;;;;-1604;;;;;;;;
1791.0;1689.7;;;;-0.8905908;-0.14052965;0.09709932;;;;;;;;;;;;;;;
1791.0;1689.7;;;;-0.90044796;-0.14103319;0.101943985;;;;;;;;;;;;;;;
1791.0;1689.7;;;;-0.90283215;-0.13788225;0.10583116;;;;;;;;;;;;;;;
1791.0;1689.7;;;;-0.9072648;-0.13492967;0.108814254;;;;;;;;;;;;;;;
1791.0;1689.7;;;;-0.91233456;-0.13224413;0.11155321;;;;;;;;;;;;;;;
1791.0;1699.6;;;;-0.9166032;-0.12809373;0.115036026;;;;;;;;;;;;;;;
1791.0;1699.6;;;;-0.9211122;-0.12425615;0.11849977;;;;;;;;;;;;;;;
1791.0;1699.6;;;;-0.9283334;-0.12195589;0.120388046;;;;;;;;;;;;;;;
1791.0;1699.6;;;;-0.9357835;-0.120208755;0.12308504;;;;;;;;;;;;;;;
1791.0;1699.6;;;;-0.941826;-0.11799623;0.12560655;;;;;;;;;;;;;;;
1791.0;1702.4;262143;262143;13108;;;;;;;;;;;;;;;;;;
1791.0;1709.7;;;;-0.9462205;-0.11527635;0.12839128;;;;;;;;;;;;;;;
1791.0;1709.7;;;;-0.95009243;-0.111835495;0.13093187;;;;;;;;;;;;;;;
1791.0;1709.7;;;;-0.9564477;-0.10846712;0.13232423;;;;;;;;;;;;;;;
1791.0;1709.7;;;;-0.9640466;-0.10551073;0.13340761;;;;;;;;;;;;;;;
1791.0;1709.7;;;;-0.9707109;-0.1018181;0.13637926;;;;;;;;;;;;;;;
1808.0;1719.8;;;;-0.9791337;-0.098598495;0.13739015;;;;;;;;;;;;;;;
1808.0;1719.8;;;;-0.9884683;-0.09606935;0.13998796;;;;;;;;;;;;;;;
1808.0;1719.8;;;;-0.99746335;-0.09313584;0.14335634;;;;;;;;;;;;;;;
1808.0;1719.8;;;;-1.0066072;-0.09008027;0.14594652;;;;;;;;;;;;;;;
1808.0;1719.8;;;;-1.0146295;-0.08586884;0.14855196;;;;;;;;;;;;;;;
1808.0;1721.9;;;;;;;;;;;;;;;;;5.760369;-9.147923;38.1901;;1620.6
1808.0;1721.9;;;;;;;;;;;;;;0.89419234;0.07916501;-0.21594897;;;;;1620.6
1808.0;1721.9;;;;;;;;;;;;;;;;;8.476516;-9.21659;36.870174;;1620.6
1808.0;1721.9;;;;;;;;;;;;;;0.8904691;0.09411909;-0.22278512;;;;;1620.6
1808.0;1721.9;;;;;;;;;;;;;;;;;10.731071;-9.060183;35.72573;;1630.3
1808.0;1721.9;;;;;;;;;;;;;;0.8838771;0.11316264;-0.23218483;;;;;1630.3
1808.0;1721.9;;;;;;;;;;;;;;;;;12.878811;-8.472701;34.56984;;1630.3
1808.0;1721.9;;;;;;;;;;;;;;0.8882107;0.13238929;-0.23920408;;;;;1630.3
1808.0;1721.9;;;;;;;;;;;;;;;;;14.5497;-7.6029234;33.64666;;1640.0
1808.0;1721.9;;;;;;;;;;;;;;0.8748436;0.14520706;-0.22284615;;;;;1640.0
1808.0;1721.9;;;;;;;;;;;;;;;;;15.808588;-7.629627;32.76925;;1640.0
1808.0;1721.9;;;;;;;;;;;;;;0.8650777;0.1478927;-0.2191229;;;;;1640.0
1809.0;1722.6;;;;;;;;;;;;;;;;;15.789515;-8.262887;32.227547;;1649.7
1809.0;1722.6;;;;;;;;;;;;;;0.8545183;0.15881832;-0.23047578;;;;;1649.7
1809.0;1722.6;;;;;;;;;;;;;;;;;14.301737;-8.980071;32.471695;;1649.7
1809.0;1722.6;;;;;;;;;;;;;;0.8529313;0.17102572;-0.24298838;;;;;1649.7
1809.0;1722.6;;;;;;;;;;;;;;;;;12.184515;-9.243294;32.99814;;1659.3
1809.0;1722.6;;;;;;;;;;;;;;0.85189366;0.18036439;-0.24213386;;;;;1659.3
1809.0;1722.6;;;;;;;;;;;;;;;;;10.860775;-9.678183;33.41014;;1659.3
1809.0;1722.6;;;;;;;;;;;;;;0.86434525;0.1942198;-0.22724082;;;;;1659.3
1809.0;1722.6;;;;;;;;;;;;;;;;;10.460219;-10.574664;33.635216;;1669.0
1809.0;1722.6;;;;;;;;;;;;;;0.9043855;0.21668142;-0.1953795;;;;;1669.0
1809.0;1722.6;;;;;;;;;;;;;;;;;10.731071;-10.54796;33.669548;;1669.0
1809.0;1722.6;;;;;;;;;;;;;;0.95113987;0.23487045;-0.16345714;;;;;1669.0
1809.0;1722.4;262143;262143;13111;;;;;;;;;;;;;;;;;;
1809.0;1728.6;;;;;;;;;;;;;-2138;;;;;;;;
1809.0;1728.6;;;;;;;;;;;;;-3052;;;;;;;;
1809.0;1728.6;;;;;;;;;;;;;-3822;;;;;;;;
1809.0;1728.6;;;;;;;;;;;;;-3921;;;;;;;;
1809.0;1728.6;;;;;;;;;;;;;-3653;;;;;;;;
1809.0;1729.7;;;;-1.0220758;-0.08153153;0.15102006;;;;;;;;;;;;;;;
1809.0;1729.7;;;;-1.0292856;-0.07697678;0.15329362;;;;;;;;;;;;;;;
1809.0;1729.7;;;;-1.0370523;-0.07336045;0.15485384;;;;;;;;;;;;;;;
1809.0;1729.7;;;;-1.0458909;-0.068946846;0.15641405;;;;;;;;;;;;;;;
1809.0;1729.7;;;;-1.0548517;-0.063846596;0.15845872;;;;;;;;;;;;;;;
1848.0;1738.9;;;;;;;;;;1.8120365;16.254921;-1.2588885;;;;;;;;;
1848.0;1738.9;;;;;;;0.7853633;0.1391644;0.18585773;;;;;;;;;;;;
1848.0;1738.9;;;;;;;;;;7.492294;31.926178;8.537553;;;;;;;;;
1848.0;1738.9;;;;;;;0.8900418;0.15857418;0.20868556;;;;;;;;;;;;
1848.0;1739.7;;;;-1.064686;-0.058082588;0.16022111;;;;;;;;;;;;;;;
1848.0;1739.7;;;;-1.0759622;-0.05353547;0.16144563;;;;;;;;;;;;;;;
1848.0;1739.7;;;;-1.0877992;-0.049213417;0.16422273;;;;;;;;;;;;;;;
1848.0;1739.7;;;;-1.0981218;-0.043701176;0.16685106;;;;;;;;;;;;;;;
1848.0;1739.7;;;;-1.108059;-0.03780747;0.16749574;;;;;;;;;;;;;;;
1848.0;1742.5;262143;262143;13107;;;;;;;;;;;;;;;;;;
1848.0;1748.5;;;;;;;;;;0.0076296274;3.3265176;1.9722588;;;;;;;;;
1848.0;1748.5;;;;;;;0.9032258;0.15985595;0.21002838;;;;;;;;;;;;
1848.0;1748.5;;;;;;;;;;1.2588885;13.935514;8.1331835;;;;;;;;;
1848.0;1748.5;;;;;;;0.9173864;0.1561327;0.21179846;;;;;;;;;;;;
1848.0;1749.8;;;;-1.1164972;-0.03162766;0.16927339;;;;;;;;;;;;;;;
1848.0;1749.8;;;;-1.1253129;-0.024780277;0.17054369;;;;;;;;;;;;;;;
1848.0;1749.8;;;;-1.1341325;-0.018817903;0.17165376;;;;;;;;;;;;;;;
1848.0;1749.8;;;;-1.1427156;-0.013057711;0.17232133;;;;;;;;;;;;;;;
1848.0;1749.8;;;;-1.1494828;-0.006980897;0.17388918;;;;;;;;;;;;;;;
1848.0;1757.9;;;;;;;;;;-2.784814;11.764886;9.022035;;;;;;;;;
1848.0;1757.9;;;;;;;0.9324625;0.15411848;0.21259193;;;;;;;;;;;;
1848.0;1757.9;;;;;;;;;;-12.543107;-27.569658;-11.421552;;;;;;;;;
1848.0;1757.9;;;;;;;0.9419843;0.1528367;0.2120426;;;;;;;;;;;;
1850.0;1759.7;;;;-1.1556207;-0.0013542176;0.17458345;;;;;;;;;;;;;;;
1850.0;1759.7;;;;-1.1613046;0.004894257;0.17692949;;;;;;;;;;;;;;;
1850.0;1759.7;;;;-1.168007;0.010852815;0.17910768;;;;;;;;;;;;;;;
1850.0;1759.7;;;;-1.1746904;0.016311647;0.18125154;;;;;;;;;;;;;;;
1850.0;1759.7;;;;-1.1815568;0.022468569;0.18385316;;;;;;;;;;;;;;;
1850.0;1762.6;262143;262143;13096;;;;;;;;;;;;;;;;;;
1850.0;1767.6;;;;;;;;;;-17.754143;-32.132175;-11.925108;;;;;;;;;
1850.0;1767.6;;;;;;;0.9492477;0.15210426;0.21124913;;;;;;;;;;;;
1850.0;1767.6;;;;;;;;;;-23.358105;-36.591694;-12.302774;;;;;;;;;
1850.0;1767.6;;;;;;;0.95669425;0.15192114;0.21045564;;;;;;;;;;;;
1850.0;1768.8;;;;;;;;;;;;;-3457;;;;;;;;
1850.0;1768.8;;;;;;;;;;;;;-3413;;;;;;;;
1850.0;1768.8;;;;;;;;;;;;;-3332;;;;;;;;
1850.0;1768.8;;;;;;;;;;;;;-2990;;;;;;;;
1850.0;1768.8;;;;;;;;;;;;;-2302;;;;;;;;
1850.0;1769.8;;;;-1.1890947;0.02865601;0.18623735;;;;;;;;;;;;;;;
1850.0;1769.8;;;;-1.1966974;0.03423691;0.18909457;;;;;;;;;;;;;;;
1850.0;1769.8;;;;-1.2030946;0.039844517;0.19173434;;;;;;;;;;;;;;;
1850.0;1769.8;;;;-1.2069703;0.045764927;0.19313052;;;;;;;;;;;;;;;
1850.0;1769.8;;;;-1.2109376;0.05064393;0.19513705;;;;;;;;;;;;;;;
1850.0;1777.2;;;;;;;;;;-29.045992;-33.162178;-7.0688496;;;;;;;;;
1850.0;1777.2;;;;;;;0.9627369;0.15076144;0.2106998;;;;;;;;;;;;
1850.0;1777.2;;;;;;;;;;-32.16651;-26.596882;-0.8545183;;;;;;;;;
1850.0;1777.2;;;;;;;0.9681082;0.15198217;0.21131016;;;;;;;;;;;;
1852.0;1779.9;;;;-1.2132188;0.0556717;0.19654849;;;;;;;;;;;;;;;
1852.0;1779.9;;;;-1.214821;0.06078721;0.1977959;;;;;;;;;;;;;;;
1852.0;1779.9;;;;-1.218136;0.06504441;0.19843677;;;;;;;;;;;;;;;
1852.0;1779.9;;;;-1.2229463;0.06849671;0.19996265;;;;;;;;;;;;;;;
1852.0;1779.9;;;;-1.2279207;0.07143403;0.2025452;;;;;;;;;;;;;;;
1852.0;1782.8;262143;262143;13102;;;;;;;;;;;;;;;;;;
1852.0;1786.8;;;;;;;;;;-33.9938;-27.771843;-1.3084811;;;;;;;;;
1852.0;1786.8;;;;;;;0.96841335;0.15204321;0.20960112;;;;;;;;;;;;
1852.0;1786.8;;;;;;;;;;-35.81347;-29.030733;-1.9913328;;;;;;;;;
1852.0;1786.8;;;;;;;0.97286904;0.15320292;0.2108829;;;;;;;;;;;;
1852.0;1790.0;;;;-1.2334291;0.07428742;0.20469287;;;;;;;;;;;;;;;
1852.0;1790.0;;;;-1.2392961;0.07655335;0.20857242;;;;;;;;;;;;;;;
1852.0;1790.0;;;;-1.2446557;0.07806397;0.21216968;;;;;;;;;;;;;;;
1852.0;1790.0;;;;-1.2486612;0.07920457;0.21630862;;;;;;;;;;;;;;;
1852.0;1790.0;;;;-1.2522317;0.08051682;0.22074893;;;;;;;;;;;;;;;
1852.0;1796.4;;;;;;;;;;-37.686546;-30.17899;-2.727592;;;;;;;;;
1852.0;1796.4;;;;;;;0.9731742;0.1530198;0.21198156;;;;;;;;;;;;
1852.0;1796.4;;;;;;;;;;-39.6321;-31.319622;-3.4905546;;;;;;;;;
1852.0;1796.4;;;;;;;0.97451705;0.15381329;0.21240883;;;;;;;;;;;;
1910.0;1800.1;;;;-1.2560121;0.0811081;0.22521976;;;;;;;;;;;;;;;
1910.0;1800.1;;;;-1.2601091;0.081069954;0.22920612;;;;;;;;;;;;;;;
1910.0;1800.1;;;;-1.2643968;0.08132935;0.23361972;;;;;;;;;;;;;;;
1910.0;1800.1;;;;-1.2680551;0.081802376;0.237793;;;;;;;;;;;;;;;
1910.0;1800.1;;;;-1.2717477;0.082313545;0.24214175;;;;;;;;;;;;;;;
1910.0;1803.1;262143;262143;13094;;;;;;;;;;;;;;;;;;
1910.0;1806.0;;;;;;;;;;-41.52806;-32.471695;-4.2649617;;;;;;;;;
1910.0;1806.0;;;;;;;0.97598195;0.1556444;0.21234779;;;;;;;;;;;;
1910.0;1806.0;;;;;;;;;;-43.38206;-33.36436;-5.1080356;;;;;;;;;
1910.0;1806.0;;;;;;;0.9798273;0.15723136;0.21057771;;;;;;;;;;;;
1910.0;1809.2;;;;;;;;;;;;;-1210;;;;;;;;
1910.0;1809.2;;;;;;;;;;;;;174;;;;;;;;
1910.0;1809.2;;;;;;;;;;;;;1382;;;;;;;;
1910.0;1809.2;;;;;;;;;;;;;2068;;;;;;;;
1910.0;1809.2;;;;;;;;;;;;;2540;;;;;;;;
1910.0;1810.1;;;;-1.2761308;0.082378395;0.24491504;;;;;;;;;;;;;;;
1910.0;1810.1;;;;-1.2809983;0.08242036;0.2488251;;;;;;;;;;;;;;;
1910.0;1810.1;;;;-1.2865411;0.08200074;0.25364688;;;;;;;;;;;;;;;
1910.0;1810.1;;;;-1.2934762;0.08177186;0.25846484;;;;;;;;;;;;;;;
1910.0;1810.1;;;;-1.3005449;0.081859596;0.26298907;;;;;;;;;;;;;;;
1910.0;1815.5;;;;;;;;;;-45.262764;-34.195988;-5.916776;;;;;;;;;
1910.0;1815.5;;;;;;;0.9897763;0.15765862;0.21051668;;;;;;;;;;;;
1910.0;1815.5;;;;;;;;;;-47.246468;-34.962765;-6.6759243;;;;;;;;;
1910.0;1815.5;;;;;;;1.0038148;0.15851314;0.2113712;;;;;;;;;;;;
1915.0;1820.1;;;;-1.3074685;0.08207322;0.267849;;;;;;;;;;;;;;;
1915.0;1820.1;;;;-1.3132898;0.08299256;0.2732773;;;;;;;;;;;;;;;
1915.0;1820.1;;;;-1.316826;0.08448029;0.27812198;;;;;;;;;;;;;;;
1915.0;1820.1;;;;-1.3187982;0.08678437;0.28309253;;;;;;;;;;;;;;;
1915.0;1820.1;;;;-1.3205796;0.089508064;0.28722766;;;;;;;;;;;;;;;
1915.0;1823.2;262143;262143;13095;;;;;;;;;;;;;;;;;;
1915.0;1825.1;;;;;;;;;;-49.20347;-35.523544;-7.477035;;;;;;;;;
1915.0;1825.1;;;;;;;1.0211493;0.15546128;0.21112704;;;;;;;;;;;;
1915.0;1825.1;;;;;;;;;;-51.21769;-35.992767;-8.293406;;;;;;;;;
1915.0;1825.1;;;;;;;1.0334789;0.15173803;0.20935698;;;;;;;;;;;;
1915.0;1830.2;;;;-1.3223916;0.09210206;0.29007342;;;;;;;;;;;;;;;
1915.0;1830.2;;;;-1.3241845;0.09515382;0.2945061;;;;;;;;;;;;;;;
1915.0;1830.2;;;;-1.3256227;0.09794618;0.29745105;;;;;;;;;;;;;;;
1915.0;1830.2;;;;-1.3269845;0.10065843;0.30109408;;;;;;;;;;;;;;;
1915.0;1830.2;;;;-1.3268167;0.10323335;0.30299762;;;;;;;;;;;;;;;
1915.0;1834.8;;;;;;;;;;-53.098392;-36.610767;-9.220405;;;;;;;;;
1915.0;1834.8;;;;;;;1.0424513;0.14990692;0.20905179;;;;;;;;;;;;
1915.0;1834.8;;;;;;;;;;-54.967648;-37.19062;-9.968108;;;;;;;;;
1915.0;1834.8;;;;;;;1.0456862;0.15375225;0.20545061;;;;;;;;;;;;
1916.0;1840.4;;;;-1.3262559;0.10572435;0.30489352;;;;;;;;;;;;;;;
1916.0;1840.4;;;;-1.3258592;0.107051864;0.30617145;;;;;;;;;;;;;;;
1916.0;1840.4;;;;-1.3261033;0.10713579;0.3071976;;;;;;;;;;;;;;;
1916.0;1840.4;;;;-1.322033;0.10816194;0.30898288;;;;;;;;;;;;;;;
1916.0;1840.4;;;;-1.3162347;0.10997392;0.30978778;;;;;;;;;;;;;;;
1916.0;1842.2;;;;;;;;;;;;;;;;;10.849331;-9.201331;33.581806;;1678.5
1916.0;1842.2;;;;;;;;;;;;;;0.97524947;0.26367992;-0.16992706;;;;;1678.5
1916.0;1842.2;;;;;;;;;;;;;;;;;10.357219;-7.8623314;33.753475;;1678.5
1916.0;1842.2;;;;;;;;;;;;;;0.9887997;0.30213323;-0.19739372;;;;;1678.5
1916.0;1842.2;;;;;;;;;;;;;;;;;9.762108;-7.221442;34.2761;;1688.2
1916.0;1842.2;;;;;;;;;;;;;;0.9900815;0.34009826;-0.21546067;;;;;1688.2
1916.0;1842.2;;;;;;;;;;;;;;;;;9.281442;-7.759331;34.87884;;1688.2
1916.0;1842.2;;;;;;;;;;;;;;1.0000916;0.38215277;-0.23126927;;;;;1688.2
1916.0;1842.2;;;;;;;;;;;;;;;;;8.064516;-8.850368;35.45106;;1697.8
1916.0;1842.2;;;;;;;;;;;;;;1.0199286;0.41956848;-0.24433118;;;;;1697.8
1916.0;1842.2;;;;;;;;;;;;;;;;;5.714591;-9.605701;35.74099;;1697.8
1916.0;1842.2;;;;;;;;;;;;;;1.0237129;0.43885615;-0.23987548;;;;;1697.8
1917.0;1843.8;;;;;;;;;;;;;;;;;3.1243324;-10.799738;35.771507;;1707.4
1917.0;1843.8;;;;;;;;;;;;;;1.0494705;0.4594867;-0.2548906;;;;;1707.4
1917.0;1843.8;;;;;;;;;;;;;;;;;0.33951843;-10.45259;35.67995;;1707.4
1917.0;1843.8;;;;;;;;;;;;;;1.0562456;0.4766991;-0.25794244;;;;;1707.4
1917.0;1843.8;;;;;;;;;;;;;;;;;-2.990814;-9.601887;35.489212;;1717.1
1917.0;1843.8;;;;;;;;;;;;;;1.0489823;0.48133793;-0.25745416;;;;;1717.1
1917.0;1843.8;;;;;;;;;;;;;;;;;-6.5881834;-9.376812;35.47014;;1717.1
1917.0;1843.8;;;;;;;;;;;;;;1.0546587;0.49452192;-0.24976349;;;;;1717.1
1917.0;1843.8;;;;;;;;;;;;;;;;;-10.105441;-9.31196;35.550247;;1726.7
1917.0;1843.8;;;;;;;;;;;;;;1.0694296;0.50660723;-0.24799341;;;;;1726.7
1917.0;1843.8;;;;;;;;;;;;;;;;;-13.904996;-9.170813;36.015656;;1726.7
1917.0;1843.8;;;;;;;;;;;;;;1.0818812;0.52174443;-0.25464645;;;;;1726.7
1917.0;1843.3;262143;262143;13090;;;;;;;;;;;;;;;;;;
1917.0;1844.2;;;;;;;;;;-56.840725;-37.640766;-10.505997;;;;;;;;;
1917.0;1844.2;;;;;;;1.0475783;0.1650441;0.20282601;;;;;;;;;;;;
1917.0;1844.2;;;;;;;;;;-58.767204;-37.633137;-10.719626;;;;;;;;;
1917.0;1844.2;;;;;;;1.0533769;0.17456588;0.1991638;;;;;;;;;;;;
1918.0;1849.1;;;;;;;;;;;;;;;;;-17.986847;-8.80459;36.744286;;1736.4
1918.0;1849.1;;;;;;;;;;;;;;1.0951872;0.52754295;-0.25946838;;;;;1736.4
1918.0;1849.1;;;;;;;;;;;;;;;;;-22.682882;-8.1827755;37.52632;;1736.4
1918.0;1849.1;;;;;;;;;;;;;;1.1167943;0.5106967;-0.2565386;;;;;1736.4
1918.0;1849.1;;;;;;;;;;;;;;;;;-28.187658;-7.152776;38.247322;;1746.0
1918.0;1849.1;;;;;;;;;;;;;;1.136021;0.47645497;-0.23731193;;;;;1746.0
1918.0;1849.1;;;;;;;;;;;;;;;;;-33.471176;-6.3974423;38.71273;;1746.0
1918.0;1849.1;;;;;;;;;;;;;;1.1670889;0.40443128;-0.22681357;;;;;1746.0
1918.0;1849.1;;;;;;;;;;;;;;;;;-36.912136;-5.0202947;38.907288;;1755.6
1918.0;1849.1;;;;;;;;;;;;;;1.1990112;0.3576159;-0.2379223;;;;;1755.6
1918.0;1849.1;;;;;;;;;;;;;;;;;-38.243507;-3.1281471;38.98358;;1755.6
1918.0;1849.1;;;;;;;;;;;;;;1.2302011;0.34766686;-0.24488053;;;;;1755.6
1918.0;1849.3;;;;;;;;;;;;;3061;;;;;;;;
1918.0;1849.3;;;;;;;;;;;;;3278;;;;;;;;
1918.0;1849.3;;;;;;;;;;;;;3048;;;;;;;;
1918.0;1849.3;;;;;;;;;;;;;2742;;;;;;;;
1918.0;1849.3;;;;;;;;;;;;;2757;;;;;;;;
1919.0;1849.9;;;;;;;;;;;;;;;;;-38.048954;-0.79729605;38.716545;;1765.2
1919.0;1849.9;;;;;;;;;;;;;;1.2705466;0.36237678;-0.2783288;;;;;1765.2
1919.0;1849.9;;;;;;;;;;;;;;;;;-37.923065;3.0175178;37.68273;;1765.2
1919.0;1849.9;;;;;;;;;;;;;;1.2869655;0.36530656;-0.30610064;;;;;1765.2
1919.0;1849.9;;;;;;;;;;;;;;;;;-38.19773;6.4012575;35.634174;;1774.8
1919.0;1849.9;;;;;;;;;;;;;;1.315714;0.36573383;-0.3255104;;;;;1774.8
1919.0;1849.9;;;;;;;;;;;;;;;;;-38.132877;10.177923;32.498398;;1774.8
1919.0;1849.9;;;;;;;;;;;;;;1.3406781;0.35938597;-0.34229562;;;;;1774.8
1919.0;1849.9;;;;;;;;;;;;;;;;;-38.94162;14.885404;28.519547;;1784.5
1919.0;1849.9;;;;;;;;;;;;;;1.3452559;0.3497421;-0.32325205;;;;;1784.5
1919.0;1849.9;;;;;;;;;;;;;;;;;-41.13132;18.44081;23.960846;;1784.5
1919.0;1849.9;;;;;;;;;;;;;;1.3508713;0.34400463;-0.31189916;;;;;1784.5
1919.0;1850.1;;;;-1.3116189;0.111267105;0.3099213;;;;;;;;;;;;;;;
1919.0;1850.1;;;;-1.3060342;0.11336519;0.31076434;;;;;;;;;;;;;;;
1919.0;1850.1;;;;-1.2991296;0.11468507;0.31120303;;;;;;;;;;;;;;;
1919.0;1850.1;;;;-1.2924577;0.11541368;0.31226733;;;;;;;;;;;;;;;
1919.0;1850.1;;;;-1.2859002;0.11553575;0.3128319;;;;;;;;;;;;;;;
1919.0;1853.6;;;;;;;;;;-60.598312;-37.37373;-10.727257;;;;;;;;;
1919.0;1853.6;;;;;;;1.0654012;0.18158513;0.19666128;;;;;;;;;;;;
1919.0;1853.6;;;;;;;;;;-62.406536;-37.068546;-10.525071;;;;;;;;;
1919.0;1853.6;;;;;;;1.0839564;0.18317209;0.19287698;;;;;;;;;;;;
1970.0;1860.1;;;;-1.279297;0.11659624;0.31198886;;;;;;;;;;;;;;;
1970.0;1860.1;;;;-1.2727968;0.11658861;0.3097916;;;;;;;;;;;;;;;
1970.0;1860.1;;;;-1.2660409;0.11727907;0.3082619;;;;;;;;;;;;;;;
1970.0;1860.1;;;;-1.2577249;0.11752702;0.30709842;;;;;;;;;;;;;;;
1970.0;1860.1;;;;-1.2480928;0.117958084;0.30612567;;;;;;;;;;;;;;;
1970.0;1863.1;;;;;;;;;;-64.1728;-36.62221;-10.170293;;;;;;;;;
1970.0;1863.1;;;;;;;1.1034272;0.18048647;0.18750572;;;;;;;;;;;;
1970.0;1863.1;;;;;;;;;;-65.881836;-35.992767;-9.670553;;;;;;;;;
1970.0;1863.1;;;;;;;1.1288186;0.17566454;0.18091373;;;;;;;;;;;;
1970.0;1863.2;262143;262143;13085;;;;;;;;;;;;;;;;;;
1970.0;1870.1;;;;-1.2364274;0.118137375;0.30387118;;;;;;;;;;;;;;;
1970.0;1870.1;;;;-1.2248918;0.11793901;0.30155948;;;;;;;;;;;;;;;
1970.0;1870.1;;;;-1.213051;0.117115036;0.30167392;;;;;;;;;;;;;;;
1970.0;1870.1;;;;-1.20216;0.11545183;0.30214694;;;;;;;;;;;;;;;
1970.0;1870.1;;;;-1.1922647;0.112094894;0.30207828;;;;;;;;;;;;;;;
1970.0;1872.4;;;;;;;;;;-67.45735;-35.016174;-9.0983305;;;;;;;;;
1970.0;1872.4;;;;;;;1.1555529;0.17206335;0.17285684;;;;;;;;;;;;
1970.0;1872.4;;;;;;;;;;-69.02905;-34.34858;-8.495589;;;;;;;;;
1970.0;1872.4;;;;;;;1.1764275;0.16962187;0.16528825;;;;;;;;;;;;
1972.0;1879.8;;;;-1.1775934;0.11013414;0.30140308;;;;;;;;;;;;;;;
1972.0;1879.8;;;;-1.16391;0.10871889;0.30067447;;;;;;;;;;;;;;;
1972.0;1879.8;;;;-1.1531602;0.10640718;0.3008347;;;;;;;;;;;;;;;
1972.0;1879.8;;;;-1.1425554;0.10348131;0.30077365;;;;;;;;;;;;;;;
1972.0;1879.8;;;;-1.1326371;0.100288406;0.3010178;;;;;;;;;;;;;;;
1972.0;1881.9;;;;;;;;;;-70.56261;-33.761105;-8.003479;;;;;;;;;
1972.0;1881.9;;;;;;;1.1950438;0.16846217;0.15765862;;;;;;;;;;;;
1972.0;1881.9;;;;;;;;;;-72.035126;-33.02103;-7.633442;;;;;;;;;
1972.0;1881.9;;;;;;;1.2117069;0.16644795;0.14893033;;;;;;;;;;;;
1972.0;1883.0;262143;262143;13095;;;;;;;;;;;;;;;;;;
1972.0;1889.2;;;;;;;;;;;;;2997;;;;;;;;
1972.0;1889.2;;;;;;;;;;;;;2887;;;;;;;;
1972.0;1889.2;;;;;;;;;;;;;2305;;;;;;;;
1972.0;1889.2;;;;;;;;;;;;;1734;;;;;;;;
1972.0;1889.2;;;;;;;;;;;;;1602;;;;;;;;
1972.0;1889.9;;;;-1.1243325;0.09649278;0.30238345;;;;;;;;;;;;;;;
1972.0;1889.9;;;;-1.1171838;0.092262276;0.30368426;;;;;;;;;;;;;;;
1972.0;1889.9;;;;-1.1105462;0.0877533;0.3067551;;;;;;;;;;;;;;;
1972.0;1889.9;;;;-1.1028253;0.08302689;0.31073764;;;;;;;;;;;;;;;
1972.0;1889.9;;;;-1.0953714;0.07774354;0.31412128;;;;;;;;;;;;;;;
1972.0;1891.5;;;;;;;;;;-73.53816;-32.090214;-7.5647755;;;;;;;;;
1972.0;1891.5;;;;;;;1.230018;0.1601001;0.14203314;;;;;;;;;;;;
1972.0;1891.5;;;;;;;;;;-74.92676;-31.006805;-7.641072;;;;;;;;;
1972.0;1891.5;;;;;;;1.2477187;0.15222633;0.1396527;;;;;;;;;;;;
1973.0;1900.0;;;;-1.0904657;0.07058335;0.3170624;;;;;;;;;;;;;;;
1973.0;1900.0;;;;-1.0853616;0.06381989;0.3203049;;;;;;;;;;;;;;;
1973.0;1900.0;;;;-1.0723649;0.059669502;0.32291415;;;;;;;;;;;;;;;
1973.0;1900.0;;;;-1.0628434;0.054996498;0.3248444;;;;;;;;;;;;;;;
1973.0;1900.0;;;;-1.0577585;0.04911805;0.32704166;;;;;;;;;;;;;;;
1973.0;1901.2;;;;;;;;;;-76.28864;-29.961546;-7.9996643;;;;;;;;;
1973.0;1901.2;;;;;;;1.2661519;0.14172795;0.13550219;;;;;;;;;;;;
1973.0;1901.2;;;;;;;;;;-77.68487;-28.729362;-8.529923;;;;;;;;;
1973.0;1901.2;;;;;;;1.2815332;0.12994781;0.13342692;;;;;;;;;;;;
1973.0;1902.0;;;;;;;;;;;;;;;;;-45.121616;21.206549;19.150366;;1794.1
1973.0;1902.0;;;;;;;;;;;;;;1.3728446;0.31385234;-0.28730124;;;;;1794.1
1973.0;1902.0;;;;;;;;;;;;;;;;;-49.98932;24.304178;14.088107;;1794.1
1973.0;1902.0;;;;;;;;;;;;;;1.3871883;0.2747276;-0.25592822;;;;;1794.1
1973.0;1902.0;;;;;;;;;;;;;;;;;-55.49028;27.829065;8.69396;;1803.7
1973.0;1902.0;;;;;;;;;;;;;;1.3984802;0.24677266;-0.20123905;;;;;1803.7
1973.0;1902.0;;;;;;;;;;;;;;;;;-61.384167;30.552843;3.566851;;1803.7
1973.0;1902.0;;;;;;;;;;;;;;1.4127629;0.23212378;-0.16071047;;;;;1803.7
1973.0;1902.0;;;;;;;;;;;;;;;;;-67.19413;33.680992;-1.3428144;;1813.2
1973.0;1902.0;;;;;;;;;;;;;;1.4049501;0.22980438;-0.107058935;;;;;1813.2
1973.0;1902.0;;;;;;;;;;;;;;;;;-72.57683;36.2331;-6.084628;;1813.2
1973.0;1902.0;;;;;;;;;;;;;;1.3935972;0.22223578;-0.06823939;;;;;1813.2
1975.0;1902.8;;;;;;;;;;;;;;;;;-77.18513;39.407024;-10.879849;;1822.9
1975.0;1902.8;;;;;;;;;;;;;;1.3827326;0.21893978;-0.04687643;;;;;1822.9
1975.0;1902.8;;;;;;;;;;;;;;;;;-80.2942;44.61806;-16.224403;;1822.9
1975.0;1902.8;;;;;;;;;;;;;;1.3279214;0.2042909;-0.0025025178;;;;;1822.9
1975.0;1902.8;;;;;;;;;;;;;;;;;-81.68279;49.295025;-22.148808;;1832.5
1975.0;1902.8;;;;;;;;;;;;;;1.2757958;0.19635609;0.042054508;;;;;1832.5
1975.0;1902.8;;;;;;;;;;;;;;;;;-81.1716;52.983948;-28.378399;;1832.5
1975.0;1902.8;;;;;;;;;;;;;;1.2213508;0.19452497;0.081362344;;;;;1832.5
1975.0;1902.8;;;;;;;;;;;;;;;;;-78.58516;55.08972;-34.867397;;1842.1
1975.0;1902.8;;;;;;;;;;;;;;1.1621449;0.19714957;0.11224708;;;;;1842.1
1975.0;1902.8;;;;;;;;;;;;;;;;;-73.96161;55.15076;-41.184727;;1842.1
1975.0;1902.8;;;;;;;;;;;;;;1.1154516;0.21887875;0.12549211;;;;;1842.1
1975.0;1903.2;262143;262143;13087;;;;;;;;;;;;;;;;;;
1975.0;1910.0;;;;-1.0508043;0.045673374;0.32968524;;;;;;;;;;;;;;;
1975.0;1910.0;;;;-1.0453798;0.042018894;0.33181003;;;;;;;;;;;;;;;
1975.0;1910.0;;;;-1.0412713;0.03878403;0.33487704;;;;;;;;;;;;;;;
1975.0;1910.0;;;;-1.0389596;0.035148624;0.33750156;;;;;;;;;;;;;;;
1975.0;1910.0;;;;-1.0368692;0.030933384;0.33975604;;;;;;;;;;;;;;;
1975.0;1910.7;;;;;;;;;;-78.90942;-27.272104;-9.285256;;;;;;;;;
1975.0;1910.7;;;;;;;1.295999;0.12164678;0.13019197;;;;;;;;;;;;
1975.0;1910.7;;;;;;;;;;-80.088196;-25.666067;-10.280923;;;;;;;;;
1975.0;1910.7;;;;;;;1.306009;0.1126133;0.1267739;;;;;;;;;;;;
2030.0;1920.0;;;;-1.0356332;0.027225498;0.34170154;;;;;;;;;;;;;;;
2030.0;1920.0;;;;-1.0340997;0.024795536;0.34298328;;;;;;;;;;;;;;;
2030.0;1920.0;;;;-1.0327264;0.022785189;0.34368518;;;;;;;;;;;;;;;
2030.0;1920.0;;;;-1.0316316;0.020500185;0.3437653;;;;;;;;;;;;;;;
2030.0;1920.0;;;;-1.0313646;0.018650057;0.343689;;;;;;;;;;;;;;;
2030.0;1920.2;;;;;;;;;;-81.194496;-23.628956;-11.474959;;;;;;;;;
2030.0;1920.2;;;;;;;1.3094271;0.10644856;0.12128056;;;;;;;;;;;;
2030.0;1920.2;;;;;;;;;;-82.21305;-21.286661;-12.863552;;;;;;;;;
2030.0;1920.2;;;;;;;1.3120518;0.095278785;0.11658071;;;;;;;;;;;;
2030.0;1923.3;262143;262143;13079;;;;;;;;;;;;;;;;;;
2030.0;1929.5;;;;;;;;;;;;;1706;;;;;;;;
2030.0;1929.5;;;;;;;;;;;;;1486;;;;;;;;
2030.0;1929.5;;;;;;;;;;;;;1173;;;;;;;;
2030.0;1929.5;;;;;;;;;;;;;1505;;;;;;;;
2030.0;1929.5;;;;;;;;;;;;;2461;;;;;;;;
2030.0;1929.7;;;;;;;;;;-83.16294;-18.73455;-14.5039215;;;;;;;;;
2030.0;1929.7;;;;;;;1.3093051;0.08294931;0.111636706;;;;;;;;;;;;
2030.0;1929.7;;;;;;;;;;-84.06705;-16.041292;-16.041292;;;;;;;;;
2030.0;1929.7;;;;;;;1.3033845;0.0672628;0.10577715;;;;;;;;;;;;
2030.0;1930.1;;;;-1.0310746;0.016967775;0.34359744;;;;;;;;;;;;;;;
2030.0;1930.1;;;;-1.0303918;0.0148353595;0.34328082;;;;;;;;;;;;;;;
2030.0;1930.1;;;;-1.0303613;0.012874605;0.3427582;;;;;;;;;;;;;;;
2030.0;1930.1;;;;-1.0277711;0.011611939;0.3426018;;;;;;;;;;;;;;;
2030.0;1930.1;;;;-1.0241853;0.0100479135;0.3421555;;;;;;;;;;;;;;;
2032.0;1939.3;;;;;;;;;;-84.79186;-13.515885;-18.047884;;;;;;;;;
2032.0;1939.3;;;;;;;1.2901394;0.06060976;0.10065004;;;;;;;;;;;;
2032.0;1939.3;;;;;;;;;;-85.37172;-10.75396;-20.218512;;;;;;;;;
2032.0;1939.3;;;;;;;1.2748191;0.050294504;0.09582812;;;;;;;;;;;;
2032.0;1940.0;;;;-1.0198442;0.009040833;0.3414879;;;;;;;;;;;;;;;
2032.0;1940.0;;;;-1.0141946;0.008193971;0.34066394;;;;;;;;;;;;;;;
2032.0;1940.0;;;;-1.0076028;0.008102418;0.3400536;;;;;;;;;;;;;;;
2032.0;1940.0;;;;-0.9990312;0.008625031;0.33947375;;;;;;;;;;;;;;;
2032.0;1940.0;;;;-0.9907533;0.009407044;0.3377457;;;;;;;;;;;;;;;
2032.0;1943.4;262143;262143;13077;;;;;;;;;;;;;;;;;;
2032.0;1948.9;;;;;;;;;;-85.85239;-8.121738;-22.091587;;;;;;;;;
2032.0;1948.9;;;;;;;1.2653584;0.04870754;0.09076205;;;;;;;;;;;;
2032.0;1948.9;;;;;;;;;;-86.1919;-5.508591;-24.094364;;;;;;;;;
2032.0;1948.9;;;;;;;1.253151;0.047181617;0.08874783;;;;;;;;;;;;
2032.0;1950.2;;;;-0.98347485;0.010696412;0.33589557;;;;;;;;;;;;;;;
2032.0;1950.2;;;;-0.9762689;0.011947634;0.3345795;;;;;;;;;;;;;;;
2032.0;1950.2;;;;-0.970379;0.013675692;0.3325577;;;;;;;;;;;;;;;
2032.0;1950.2;;;;-0.9664308;0.014842989;0.3302956;;;;;;;;;;;;;;;
2032.0;1950.2;;;;-0.96322644;0.01639557;0.3289452;;;;;;;;;;;;;;;
2032.0;1958.5;;;;;;;;;;-86.382645;-3.1243324;-26.08951;;;;;;;;;
2032.0;1958.5;;;;;;;1.2429578;0.03955199;0.08587909;;;;;;;;;;;;
2032.0;1958.5;;;;;;;;;;-86.45894;-0.7820368;-28.180029;;;;;;;;;
2032.0;1958.5;;;;;;;1.2281258;0.0314951;0.08050783;;;;;;;;;;;;
2033.0;1960.3;;;;-0.9611207;0.01830292;0.32825473;;;;;;;;;;;;;;;
2033.0;1960.3;;;;-0.95723736;0.020507814;0.3269196;;;;;;;;;;;;;;;
2033.0;1960.3;;;;-0.95305645;0.023048403;0.32563785;;;;;;;;;;;;;;;
2033.0;1960.3;;;;-0.9477197;0.025672916;0.32398608;;;;;;;;;;;;;;;
2033.0;1960.3;;;;-0.94272244;0.028488163;0.3231354;;;;;;;;;;;;;;;
2033.0;1962.4;;;;;;;;;;;;;;;;;-68.506424;53.61339;-47.116764;;1851.8
2033.0;1962.4;;;;;;;;;;;;;;1.0630207;0.26374096;0.14844203;;;;;1851.8
2033.0;1962.4;;;;;;;;;;;;;;;;;-62.80709;49.5735;-52.426983;;1851.8
2033.0;1962.4;;;;;;;;;;;;;;1.0284127;0.30103457;0.15338603;;;;;1851.8
2033.0;1962.4;;;;;;;;;;;;;;;;;-57.4778;44.114506;-57.54265;;1861.4
2033.0;1962.4;;;;;;;;;;;;;;1.0090029;0.3322245;0.1441084;;;;;1861.4
2033.0;1962.4;;;;;;;;;;;;;;;;;-52.777946;38.224434;-62.77276;;1861.4
2033.0;1962.4;;;;;;;;;;;;;;1.0086977;0.35608998;0.121890925;;;;;1861.4
2033.0;1962.4;;;;;;;;;;;;;;;;;-48.14295;32.944733;-68.41868;;1871.0
2033.0;1962.4;;;;;;;;;;;;;;1.0194403;0.37171546;0.08270516;;;;;1871.0
2033.0;1962.4;;;;;;;;;;;;;;;;;-42.748802;28.740807;-74.4232;;1871.0
2033.0;1962.4;;;;;;;;;;;;;;1.0331125;0.40278327;0.010864589;;;;;1871.0
2035.0;1963.5;;;;;;;;;;;;;;;;;-36.935028;27.054659;-80.8092;;1880.7
2035.0;1963.5;;;;;;;;;;;;;;1.0408642;0.43513292;-0.084475234;;;;;1880.7
2035.0;1963.5;;;;;;;;;;;;;;;;;-31.472214;27.61162;-88.04972;;1880.7
2035.0;1963.5;;;;;;;;;;;;;;1.0343333;0.47004607;-0.2080752;;;;;1880.7
2035.0;1963.5;;;;;;;;;;;;;;;;;-28.115177;30.07599;-95.007935;;1890.3
2035.0;1963.5;;;;;;;;;;;;;;1.0284127;0.50691247;-0.30988494;;;;;1890.3
2035.0;1963.5;;;;;;;;;;;;;;;;;-28.668325;33.89462;-101.34434;;1890.3
2035.0;1963.5;;;;;;;;;;;;;;1.0104679;0.52449113;-0.3688467;;;;;1890.3
2035.0;1963.5;;;;;;;;;;;;;;;;;-32.757805;37.656025;-106.62786;;1900.0
2035.0;1963.5;;;;;;;;;;;;;;1.0149846;0.5238197;-0.39118627;;;;;1900.0
2035.0;1963.5;;;;;;;;;;;;;;;;;-38.903473;41.730247;-110.755486;;1900.0
2035.0;1963.5;;;;;;;;;;;;;;1.0031434;0.5337687;-0.3818476;;;;;1900.0
2035.0;1963.5;262143;262143;13081;;;;;;;;;;;;;;;;;;
2035.0;1967.9;;;;;;;;;;-86.50853;1.617481;-30.213324;;;;;;;;;
2035.0;1967.9;;;;;;;1.2223884;0.027283547;0.07647938;;;;;;;;;;;;
2035.0;1967.9;;;;;;;;;;-86.48183;3.7995543;-32.12836;;;;;;;;;
2035.0;1967.9;;;;;;;1.2132939;0.022461623;0.07208472;;;;;;;;;;;;
2035.0;1969.6;;;;;;;;;;;;;3184;;;;;;;;
2035.0;1969.6;;;;;;;;;;;;;3000;;;;;;;;
2035.0;1969.6;;;;;;;;;;;;;2366;;;;;;;;
2035.0;1969.6;;;;;;;;;;;;;2287;;;;;;;;
2035.0;1969.6;;;;;;;;;;;;;2845;;;;;;;;
2036.0;1970.1;;;;-0.93882;0.031261448;0.32228473;;;;;;;;;;;;;;;
2036.0;1970.1;;;;-0.93530667;0.033779148;0.32192996;;;;;;;;;;;;;;;
2036.0;1970.1;;;;-0.93159115;0.03575516;0.32147983;;;;;;;;;;;;;;;
2036.0;1970.1;;;;-0.9280282;0.037075046;0.3204575;;;;;;;;;;;;;;;
2036.0;1970.1;;;;-0.92414486;0.037960056;0.32003406;;;;;;;;;;;;;;;
2036.0;1977.4;;;;;;;;;;-86.310165;5.920591;-33.93658;;;;;;;;;
2036.0;1977.4;;;;;;;1.2027345;0.021057772;0.06769005;;;;;;;;;;;;
2036.0;1977.4;;;;;;;;;;-86.161385;8.171331;-35.53499;;;;;;;;;
2036.0;1977.4;;;;;;;1.1869869;0.021423994;0.060548723;;;;;;;;;;;;
2036.0;1980.1;;;;-0.91988385;0.03909302;0.31959155;;;;;;;;;;;;;;;
2036.0;1980.1;;;;-0.91503537;0.039550785;0.31869128;;;;;;;;;;;;;;;
2036.0;1980.1;;;;-0.9088441;0.03959656;0.31829837;;;;;;;;;;;;;;;
2036.0;1980.1;;;;-0.90203106;0.03990555;0.3177376;;;;;;;;;;;;;;;
2036.0;1980.1;;;;-0.89538205;0.040096287;0.31715778;;;;;;;;;;;;;;;
2036.0;1983.6;262143;262143;13064;;;;;;;;;;;;;;;;;;
2036.0;1987.1;;;;;;;;;;-85.783714;10.277108;-36.9274;;;;;;;;;
2036.0;1987.1;;;;;;;1.1643422;0.02435377;0.057008576;;;;;;;;;;;;
2036.0;1987.1;;;;;;;;;;-85.29923;12.0052185;-38.25495;;;;;;;;;
2036.0;1987.1;;;;;;;1.1435896;0.027100436;0.05200354;;;;;;;;;;;;
2090.0;1990.2;;;;-0.8888055;0.04043198;0.31665805;;;;;;;;;;;;;;;
2090.0;1990.2;;;;-0.8822442;0.04082108;0.31633762;;;;;;;;;;;;;;;
2090.0;1990.2;;;;-0.876011;0.041320805;0.31616977;;;;;;;;;;;;;;;
2090.0;1990.2;;;;-0.87049115;0.04135895;0.31535342;;;;;;;;;;;;;;;
2090.0;1990.2;;;;-0.8660852;0.040779117;0.31440356;;;;;;;;;;;;;;;
2090.0;1996.5;;;;;;;;;;-84.78042;13.7867365;-39.49095;;;;;;;;;
2090.0;1996.5;;;;;;;1.1235695;0.026795251;0.047425766;;;;;;;;;;;;
2090.0;1996.5;;;;;;;;;;-84.189125;15.4690695;-40.57054;;;;;;;;;
2090.0;1996.5;;;;;;;1.1074557;0.028565325;0.042725913;;;;;;;;;;;;
2090.0;2000.2;;;;-0.86150753;0.039909367;0.31361392;;;;;;;;;;;;;;;
2090.0;2000.2;;;;-0.85626614;0.039138798;0.31300738;;;;;;;;;;;;;;;
2090.0;2000.2;;;;-0.85069287;0.037937168;0.3117676;;;;;;;;;;;;;;;
2090.0;2000.2;;;;-0.84510815;0.03734589;0.30989078;;;;;;;;;;;;;;;
2090.0;2000.2;;;;-0.840603;0.035530094;0.3079529;;;;;;;;;;;;;;;
2090.0;2003.7;262143;262143;13072;;;;;;;;;;;;;;;;;;
2090.0;2006.1;;;;;;;;;;-83.45668;17.063662;-41.43269;;;;;;;;;
2090.0;2006.1;;;;;;;1.0919523;0.03009125;0.04113895;;;;;;;;;;;;
2090.0;2006.1;;;;;;;;;;-82.50679;18.597218;-42.165134;;;;;;;;;
2090.0;2006.1;;;;;;;1.0761436;0.03357036;0.03851436;;;;;;;;;;;;
2090.0;2009.8;;;;;;;;;;;;;3268;;;;;;;;
2090.0;2009.8;;;;;;;;;;;;;3281;;;;;;;;
2090.0;2009.8;;;;;;;;;;;;;3420;;;;;;;;
2090.0;2009.8;;;;;;;;;;;;;3730;;;;;;;;
2090.0;2009.8;;;;;;;;;;;;;3711;;;;;;;;
2092.0;2010.3;;;;-0.8362466;0.03342438;0.30538562;;;;;;;;;;;;;;;
2092.0;2010.3;;;;-0.83184063;0.03079987;0.30430987;;;;;;;;;;;;;;;
2092.0;2010.3;;;;-0.8272592;0.027755741;0.30144122;;;;;;;;;;;;;;;
2092.0;2010.3;;;;-0.82276165;0.0239296;0.29869083;;;;;;;;;;;;;;;
2092.0;2010.3;;;;-0.8182603;0.020355226;0.2962151;;;;;;;;;;;;;;;
2092.0;2015.8;;;;;;;;;;-81.49205;19.92477;-42.538986;;;;;;;;;
2092.0;2015.8;;;;;;;1.061739;0.03869747;0.036500137;;;;;;;;;;;;
2092.0;2015.8;;;;;;;;;;-80.55742;21.07303;-42.828915;;;;;;;;;
2092.0;2015.8;;;;;;;1.048677;0.04449599;0.037171546;;;;;;;;;;;;
2092.0;2020.4;;;;-0.8125192;0.017051699;0.2936478;;;;;;;;;;;;;;;
2092.0;2020.4;;;;-0.80708706;0.01319504;0.29024127;;;;;;;;;;;;;;;
2092.0;2020.4;;;;-0.80176175;0.009738923;0.287365;;;;;;;;;;;;;;;
2092.0;2020.4;;;;-0.7965776;0.0059051523;0.28424075;;;;;;;;;;;;;;;
2092.0;2020.4;;;;-0.7919923;0.0011787416;0.2803574;;;;;;;;;;;;;;;
2093.0;2022.7;;;;;;;;;;;;;;;;;-46.246986;43.477432;-114.0553;;1909.6
2093.0;2022.7;;;;;;;;;;;;;;0.9704276;0.53083897;-0.33692434;;;;;1909.6
2093.0;2022.7;;;;;;;;;;;;;;;;;-52.32017;40.650654;-117.000336;;1909.6
2093.0;2022.7;;;;;;;;;;;;;;0.9609058;0.54615927;-0.3233131;;;;;1909.6
2093.0;2022.7;;;;;;;;;;;;;;;;;-57.309944;35.466324;-118.99167;;1919.3
2093.0;2022.7;;;;;;;;;;;;;;0.931547;0.56929225;-0.30310982;;;;;1919.3
2093.0;2022.7;;;;;;;;;;;;;;;;;-61.212498;27.535324;-120.92196;;1919.3
2093.0;2022.7;;;;;;;;;;;;;;0.92226934;0.6038392;-0.29963073;;;;;1919.3
2093.0;2022.7;;;;;;;;;;;;;;;;;-65.91998;19.76455;-121.639145;;1928.9
2093.0;2022.7;;;;;;;;;;;;;;0.92568743;0.63020724;-0.2598346;;;;;1928.9
2093.0;2022.7;;;;;;;;;;;;;;;;;-69.53642;7.3664055;-118.179115;;1928.9
2093.0;2022.7;;;;;;;;;;;;;;1.0627155;0.6036561;-0.35297707;;;;;1928.9
2093.0;2023.5;;;;;;;;;;;;;;;;;-73.83572;5.0050354;-115.26841;;1938.5
2093.0;2023.5;;;;;;;;;;;;;;1.0575885;0.5769829;-0.3533433;;;;;1938.5
2093.0;2023.5;;;;;;;;;;;;;;;;;-79.76394;3.8033693;-113.97519;;1938.5
2093.0;2023.5;;;;;;;;;;;;;;1.0315866;0.5157628;-0.2887051;;;;;1938.5
2093.0;2023.5;;;;;;;;;;;;;;;;;-85.89816;-2.3804438;-113.41823;;1948.2
2093.0;2023.5;;;;;;;;;;;;;;1.0879849;0.3945433;-0.3091525;;;;;1948.2
2093.0;2023.5;;;;;;;;;;;;;;;;;-90.178375;-2.6779993;-112.92993;;1948.2
2093.0;2023.5;;;;;;;;;;;;;;1.1188695;0.3822138;-0.30610064;;;;;1948.2
2093.0;2023.5;;;;;;;;;;;;;;;;;-95.75182;0.25940734;-111.57567;;1957.7
2093.0;2023.5;;;;;;;;;;;;;;1.1343119;0.2941374;-0.26783043;;;;;1957.7
2093.0;2023.5;;;;;;;;;;;;;;;;;-99.74975;2.5101473;-110.29771;;1957.7
2093.0;2023.5;;;;;;;;;;;;;;1.1541489;0.20490128;-0.2174749;;;;;1957.7
2094.0;2023.8;262143;262143;13073;;;;;;;;;;;;;;;;;;
2094.0;2025.3;;;;;;;;;;-79.40534;21.889402;-42.98532;;;;;;;;;
2094.0;2025.3;;;;;;;1.0369579;0.052919097;0.03607288;;;;;;;;;;;;
2094.0;2025.3;;;;;;;;;;-78.23038;22.453993;-42.973877;;;;;;;;;
2094.0;2025.3;;;;;;;1.0262154;0.0590228;0.036805324;;;;;;;;;;;;
2094.0;2030.4;;;;-0.7882081;-0.0036315923;0.27627566;;;;;;;;;;;;;;;
2094.0;2030.4;;;;-0.78390133;-0.008213044;0.27245334;;;;;;;;;;;;;;;
2094.0;2030.4;;;;-0.7802774;-0.0122528095;0.2682648;;;;;;;;;;;;;;;
2094.0;2030.4;;;;-0.7767106;-0.017494204;0.26381305;;;;;;;;;;;;;;;
2094.0;2030.4;;;;-0.7737962;-0.02258301;0.25981143;;;;;;;;;;;;;;;
2094.0;2034.9;;;;;;;;;;-77.05924;22.846918;-42.83273;;;;;;;;;
2094.0;2034.9;;;;;;;1.0171819;0.06372265;0.03601184;;;;;;;;;;;;
2094.0;2034.9;;;;;;;;;;-75.7889;23.041475;-42.626728;;;;;;;;;
2094.0;2034.9;;;;;;;1.012299;0.069887385;0.036317028;;;;;;;;;;;;
2094.0;2040.4;;;;-0.7711259;-0.02763367;0.25643924;;;;;;;;;;;;;;;
2094.0;2040.4;;;;-0.7695466;-0.03261185;0.25220874;;;;;;;;;;;;;;;
2094.0;2040.4;;;;-0.76892483;-0.03791428;0.24766162;;;;;;;;;;;;;;;
2094.0;2040.4;;;;-0.7684556;-0.04372025;0.24330524;;;;;;;;;;;;;;;
2094.0;2040.4;;;;-0.7674562;-0.049335487;0.23967746;;;;;;;;;;;;;;;
2094.0;2044.4;;;;;;;;;;-74.44609;23.083437;-42.321545;;;;;;;;;
2094.0;2044.4;;;;;;;1.0105289;0.07507554;0.03546251;;;;;;;;;;;;
2094.0;2044.4;;;;;;;;;;-72.86294;22.938475;-41.966766;;;;;;;;;
2094.0;2044.4;;;;;;;1.0060122;0.07708976;0.03485214;;;;;;;;;;;;
2151.0;2044.0;262143;262143;13069;;;;;;;;;;;;;;;;;;
2151.0;2050.1;;;;;;;;;;;;;3184;;;;;;;;
2151.0;2050.1;;;;;;;;;;;;;2593;;;;;;;;
2151.0;2050.1;;;;;;;;;;;;;2731;;;;;;;;
2151.0;2050.1;;;;;;;;;;;;;3545;;;;;;;;
2151.0;2050.1;;;;;;;;;;;;;4084;;;;;;;;
2151.0;2050.4;;;;-0.7642442;-0.054222114;0.23612979;;;;;;;;;;;;;;;
2151.0;2050.4;;;;-0.75994503;-0.05908204;0.23313144;;;;;;;;;;;;;;;
2151.0;2050.4;;;;-0.7556306;-0.062919624;0.22900012;;;;;;;;;;;;;;;
2151.0;2050.4;;;;-0.7521478;-0.06790925;0.22461703;;;;;;;;;;;;;;;
2151.0;2050.4;;;;-0.749157;-0.073177345;0.22008136;;;;;;;;;;;;;;;
2151.0;2053.8;;;;;;;;;;-71.378975;22.564623;-41.4098;;;;;;;;;
2151.0;2053.8;;;;;;;0.99563587;0.08203375;0.033753473;;;;;;;;;;;;
2151.0;2053.8;;;;;;;;;;-69.95224;22.122105;-40.818504;;;;;;;;;
2151.0;2053.8;;;;;;;0.9861751;0.08716086;0.034913175;;;;;;;;;;;;
2151.0;2060.1;;;;-0.74382025;-0.07725526;0.2172356;;;;;;;;;;;;;;;
2151.0;2060.1;;;;-0.7380906;-0.08114625;0.2144585;;;;;;;;;;;;;;;
2151.0;2060.1;;;;-0.7362862;-0.08492661;0.21107104;;;;;;;;;;;;;;;
2151.0;2060.1;;;;-0.73479086;-0.09002305;0.20764545;;;;;;;;;;;;;;;
2151.0;2060.1;;;;-0.73268515;-0.09507753;0.205246;;;;;;;;;;;;;;;
2151.0;2063.2;;;;;;;;;;-68.57509;21.675772;-40.01358;;;;;;;;;
2151.0;2063.2;;;;;;;0.9814753;0.08984649;0.03607288;;;;;;;;;;;;
2151.0;2063.2;;;;;;;;;;-67.07206;21.118809;-39.30784;;;;;;;;;
2151.0;2063.2;;;;;;;0.97158724;0.09460738;0.038209174;;;;;;;;;;;;
2151.0;2063.8;262143;262143;13070;;;;;;;;;;;;;;;;;;
2153.0;2070.2;;;;-0.7306214;-0.09973146;0.20315173;;;;;;;;;;;;;;;
2153.0;2070.2;;;;-0.7273713;-0.10325624;0.20052722;;;;;;;;;;;;;;;
2153.0;2070.2;;;;-0.7244454;-0.106159225;0.1986275;;;;;;;;;;;;;;;
2153.0;2070.2;;;;-0.7215348;-0.108562484;0.19580844;;;;;;;;;;;;;;;
2153.0;2070.2;;;;-0.7192803;-0.11074449;0.19416812;;;;;;;;;;;;;;;
2153.0;2072.8;;;;;;;;;;-65.46983;20.49318;-38.659325;;;;;;;;;
2153.0;2072.8;;;;;;;0.964568;0.09845271;0.04242073;;;;;;;;;;;;
2153.0;2072.8;;;;;;;;;;-64.05835;19.943846;-38.026066;;;;;;;;;
2153.0;2072.8;;;;;;;0.96444595;0.101260416;0.046754356;;;;;;;;;;;;
2153.0;2080.4;;;;-0.71838385;-0.11362077;0.19131091;;;;;;;;;;;;;;;
2153.0;2080.4;;;;-0.71812063;-0.117187515;0.18883517;;;;;;;;;;;;;;;
2153.0;2080.4;;;;-0.71661764;-0.11917497;0.18650438;;;;;;;;;;;;;;;
2153.0;2080.4;;;;-0.71464163;-0.121273056;0.18429567;;;;;;;;;;;;;;;
2153.0;2080.4;;;;-0.711464;-0.12294389;0.18232729;;;;;;;;;;;;;;;
2153.0;2082.4;;;;;;;;;;-62.631615;19.329662;-37.495804;;;;;;;;;
2153.0;2082.4;;;;;;;0.96365243;0.10138249;0.052491836;;;;;;;;;;;;
2153.0;2082.4;;;;;;;;;;-61.14002;18.303476;-36.91595;;;;;;;;;
2153.0;2082.4;;;;;;;0.9559007;0.103152566;0.057618946;;;;;;;;;;;;
2154.0;2082.6;;;;;;;;;;;;;;;;;-100.745415;4.4328136;-109.054085;;1967.3
2154.0;2082.6;;;;;;;;;;;;;;1.1585437;0.13843197;-0.17200232;;;;;1967.3
2154.0;2082.6;;;;;;;;;;;;;;;;;-100.31434;7.553331;-107.69219;;1967.3
2154.0;2082.6;;;;;;;;;;;;;;1.1348614;0.0872219;-0.11627552;;;;;1967.3
2154.0;2082.6;;;;;;;;;;;;;;;;;-98.09794;10.055849;-105.93356;;1976.9
2154.0;2082.6;;;;;;;;;;;;;;1.0965911;0.034913175;-0.060121465;;;;;1976.9
2154.0;2082.6;;;;;;;;;;;;;;;;;-94.12672;11.165959;-104.19401;;1976.9
2154.0;2082.6;;;;;;;;;;;;;;1.0729698;-0.003295999;-0.023621326;;;;;1976.9
2154.0;2082.6;;;;;;;;;;;;;;;;;-89.5909;10.9408865;-101.85934;;1986.5
2154.0;2082.6;;;;;;;;;;;;;;1.0571612;0.0017090365;-0.012329478;;;;;1986.5
2154.0;2082.6;;;;;;;;;;;;;;;;;-85.89816;10.887479;-99.16989;;1986.5
2154.0;2082.6;;;;;;;;;;;;;;1.0508744;0.030030213;-0.015869625;;;;;1986.5
2154.0;2083.8;;;;;;;;;;;;;;;;;-82.888275;11.780145;-96.613976;;1996.2
2154.0;2083.8;;;;;;;;;;;;;;1.0399487;0.025086215;-0.031678215;;;;;1996.2
2154.0;2083.8;;;;;;;;;;;;;;;;;-80.06149;13.439589;-94.61501;;1996.2
2154.0;2083.8;;;;;;;;;;;;;;1.0104679;0.030396435;-0.022278512;;;;;1996.2
2154.0;2083.8;;;;;;;;;;;;;;;;;-78.07016;14.351329;-92.749565;;2005.9
2154.0;2083.8;;;;;;;;;;;;;;0.9848323;0.028015992;-0.008667257;;;;;2005.9
2154.0;2083.8;;;;;;;;;;;;;;;;;-76.715904;14.370403;-91.02527;;2005.9
2154.0;2083.8;;;;;;;;;;;;;;0.9735404;0.08917508;-0.0046998505;;;;;2005.9
2154.0;2083.8;;;;;;;;;;;;;;;;;-76.66631;14.301737;-89.15982;;2015.6
2154.0;2083.8;;;;;;;;;;;;;;0.9528489;0.10449538;-0.02008118;;;;;2015.6
2154.0;2083.8;;;;;;;;;;;;;;;;;-75.61724;13.912625;-87.99631;;2015.6
2154.0;2083.8;;;;;;;;;;;;;;0.9380779;0.11224708;-0.021607105;;;;;2015.6
2155.0;2083.8;262143;262143;13075;;;;;;;;;;;;;;;;;;
2155.0;2089.9;;;;;;;;;;;;;3811;;;;;;;;
2155.0;2089.9;;;;;;;;;;;;;2853;;;;;;;;
2155.0;2089.9;;;;;;;;;;;;;1748;;;;;;;;
2155.0;2089.9;;;;;;;;;;;;;945;;;;;;;;
2155.0;2089.9;;;;;;;;;;;;;398;;;;;;;;
2155.0;2090.2;;;;-0.70802695;-0.124496475;0.18053056;;;;;;;;;;;;;;;
2155.0;2090.2;;;;-0.70548254;-0.12671663;0.17765428;;;;;;;;;;;;;;;
2155.0;2090.2;;;;-0.7039948;-0.130188;0.177269;;;;;;;;;;;;;;;
2155.0;2090.2;;;;-0.7005463;-0.13187028;0.17610933;;;;;;;;;;;;;;;
2155.0;2090.2;;;;-0.6983147;-0.13406374;0.17429735;;;;;;;;;;;;;;;
2155.0;2091.8;;;;;;;;;;-59.572132;17.193365;-36.194954;;;;;;;;;
2155.0;2091.8;;;;;;;0.94582963;0.10498367;0.06079287;;;;;;;;;;;;
2155.0;2091.8;;;;;;;;;;-58.099613;15.888699;-35.42436;;;;;;;;;
2155.0;2091.8;;;;;;;0.93887144;0.1076693;0.06335643;;;;;;;;;;;;
2156.0;2097.6;;;;;;;;;;;;;;;;;-73.1338;13.153478;-87.0922;;2025.3
2156.0;2097.6;;;;;;;;;;;;;;0.9254433;0.14319284;-0.026917325;;;;;2025.3
2156.0;2097.6;;;;;;;;;;;;;;;;;-69.9675;13.10007;-86.18427;;2025.3
2156.0;2097.6;;;;;;;;;;;;;;0.90316474;0.20538957;-0.012573626;;;;;2025.3
2156.0;2097.6;;;;;;;;;;;;;;;;;-65.92761;12.569811;-85.497604;;2035.0
2156.0;2097.6;;;;;;;;;;;;;;0.89474165;0.21814631;-0.009765923;;;;;2035.0
2156.0;2097.6;;;;;;;;;;;;;;;;;-60.308388;12.501144;-85.69598;;2035.0
2156.0;2097.6;;;;;;;;;;;;;;0.89651173;0.20337535;-0.020752586;;;;;2035.0
2156.0;2097.6;;;;;;;;;;;;;;;;;-54.303875;12.966552;-86.390274;;2044.5
2156.0;2097.6;;;;;;;;;;;;;;0.89657277;0.23273416;-0.045533616;;;;;2044.5
2156.0;2097.6;;;;;;;;;;;;;;;;;-49.851982;13.82107;-87.397385;;2044.5
2156.0;2097.6;;;;;;;;;;;;;;0.89474165;0.23731193;-0.06433302;;;;;2044.5
2156.0;2100.1;;;;-0.6954804;-0.13567735;0.17338945;;;;;;;;;;;;;;;
2156.0;2100.1;;;;-0.6943551;-0.1382332;0.17134096;;;;;;;;;;;;;;;
2156.0;2100.1;;;;-0.69435126;-0.14209749;0.16908647;;;;;;;;;;;;;;;
2156.0;2100.1;;;;-0.69356924;-0.14531328;0.16832735;;;;;;;;;;;;;;;
2156.0;2100.1;;;;-0.69079596;-0.14684679;0.16716768;;;;;;;;;;;;;;;
2156.0;2101.2;;;;;;;;;;-56.634724;14.412366;-34.661396;;;;;;;;;
2156.0;2101.2;;;;;;;0.9314249;0.1081576;0.06646931;;;;;;;;;;;;
2156.0;2101.2;;;;;;;;;;-55.26139;12.928404;-33.75729;;;;;;;;;
2156.0;2101.2;;;;;;;0.9338664;0.1098056;0.0712302;;;;;;;;;;;;
2156.0;2103.9;262143;262143;13076;;;;;;;;;;;;;;;;;;
2212.0;2110.1;;;;-0.6888924;-0.14784242;0.16604616;;;;;;;;;;;;;;;
2212.0;2110.1;;;;-0.68773276;-0.14950182;0.16482927;;;;;;;;;;;;;;;
2212.0;2110.1;;;;-0.68716437;-0.15010454;0.16406633;;;;;;;;;;;;;;;
2212.0;2110.1;;;;-0.6865273;-0.15152742;0.16284944;;;;;;;;;;;;;;;
2212.0;2110.1;;;;-0.6872788;-0.15319826;0.16217805;;;;;;;;;;;;;;;
2212.0;2110.7;;;;;;;;;;-53.846096;11.219367;-32.994324;;;;;;;;;
2212.0;2110.7;;;;;;;0.93710136;0.10882901;0.0740379;;;;;;;;;;;;
2212.0;2110.7;;;;;;;;;;-52.52617;9.277627;-32.23136;;;;;;;;;
2212.0;2110.7;;;;;;;0.9342326;0.10736412;0.077761166;;;;;;;;;;;;
2212.0;2119.9;;;;-0.6893044;-0.15512086;0.16052248;;;;;;;;;;;;;;;
2212.0;2119.9;;;;-0.690384;-0.15645982;0.1600113;;;;;;;;;;;;;;;
2212.0;2119.9;;;;-0.692112;-0.15735628;0.15936662;;;;;;;;;;;;;;;
2212.0;2119.9;;;;-0.69374853;-0.1579323;0.15700914;;;;;;;;;;;;;;;
2212.0;2119.9;;;;-0.6957627;-0.1582947;0.1548195;;;;;;;;;;;;;;;
2212.0;2120.1;;;;;;;;;;-51.22532;7.2405167;-31.464584;;;;;;;;;
2212.0;2120.1;;;;;;;0.92825097;0.107974485;0.08191168;;;;;;;;;;;;
2212.0;2120.1;;;;;;;;;;-50.01602;5.2568135;-30.716879;;;;;;;;;
2212.0;2120.1;;;;;;;0.9225135;0.106631674;0.08319346;;;;;;;;;;;;
2212.0;2123.8;262143;262143;13063;;;;;;;;;;;;;;;;;;
2212.0;2129.7;;;;;;;;;;-48.83343;3.1929991;-29.938658;;;;;;;;;
2212.0;2129.7;;;;;;;0.91091645;0.09778131;0.085695975;;;;;;;;;;;;
2212.0;2129.7;;;;;;;;;;-47.677544;1.0185553;-28.908659;;;;;;;;;
2212.0;2129.7;;;;;;;0.9160436;0.10699789;0.08386487;;;;;;;;;;;;
2214.0;2129.9;;;;;;;;;;;;;328;;;;;;;;
2214.0;2129.9;;;;;;;;;;;;;1611;;;;;;;;
2214.0;2129.9;;;;;;;;;;;;;4150;;;;;;;;
2214.0;2129.9;;;;;;;;;;;;;3313;;;;;;;;
2214.0;2129.9;;;;;;;;;;;;;-6934;;;;;;;;
2214.0;2130.1;;;;-0.6973534;-0.15975954;0.1534157;;;;;;;;;;;;;;;
2214.0;2130.1;;;;-0.69673926;-0.1604767;0.15262605;;;;;;;;;;;;;;;
2214.0;2130.1;;;;-0.6950303;-0.16078569;0.15147401;;;;;;;;;;;;;;;
2214.0;2130.1;;;;-0.69152075;-0.16083147;0.15006639;;;;;;;;;;;;;;;
2214.0;2130.1;;;;-0.68822485;-0.16028215;0.14885332;;;;;;;;;;;;;;;
2214.0;2139.4;;;;;;;;;;-46.739098;-0.8735923;-28.576769;;;;;;;;;
2214.0;2139.4;;;;;;;0.9095737;0.10626545;0.08709983;;;;;;;;;;;;
2214.0;2139.4;;;;;;;;;;-45.83117;-2.7199624;-28.218176;;;;;;;;;
2214.0;2139.4;;;;;;;0.9000519;0.10510575;0.08905301;;;;;;;;;;;;
2214.0;2140.2;;;;-0.6855851;-0.16075899;0.14683916;;;;;;;;;;;;;;;
2214.0;2140.2;;;;-0.6837998;-0.16155626;0.14568712;;;;;;;;;;;;;;;
2214.0;2140.2;;;;-0.681511;-0.16305162;0.14471437;;;;;;;;;;;;;;;
2214.0;2140.2;;;;-0.67846304;-0.16495134;0.14366151;;;;;;;;;;;;;;;
2214.0;2140.2;;;;-0.6729699;-0.16608049;0.1424904;;;;;;;;;;;;;;;
2214.0;2144.0;262143;262143;13082;;;;;;;;;;;;;;;;;;
2214.0;2149.0;;;;;;;;;;-45.068207;-4.4518876;-27.970213;;;;;;;;;
2214.0;2149.0;;;;;;;0.887051;0.10223701;0.090701014;;;;;;;;;;;;
2214.0;2149.0;;;;;;;;;;-44.473095;-6.0274057;-27.836695;;;;;;;;;
2214.0;2149.0;;;;;;;0.8761254;0.10235908;0.089602344;;;;;;;;;;;;
2215.0;2150.3;;;;-0.6663323;-0.1657982;0.14297487;;;;;;;;;;;;;;;
2215.0;2150.3;;;;-0.6618157;-0.16543962;0.14161302;;;;;;;;;;;;;;;
2215.0;2150.3;;;;-0.6585465;-0.16631319;0.14042284;;;;;;;;;;;;;;;
2215.0;2150.3;;;;-0.6554299;-0.16803361;0.1389084;;;;;;;;;;;;;;;
2215.0;2150.3;;;;-0.65217596;-0.17031862;0.13771822;;;;;;;;;;;;;;;
2215.0;2158.5;;;;;;;;;;-43.88562;-7.553331;-27.74514;;;;;;;;;
2215.0;2158.5;;;;;;;0.8616596;0.104739524;0.09021272;;;;;;;;;;;;
2215.0;2158.5;;;;;;;;;;-43.488876;-8.934294;-27.638325;;;;;;;;;
2215.0;2158.5;;;;;;;0.8511002;0.105533004;0.08948027;;;;;;;;;;;;
2215.0;2160.3;;;;-0.6487542;-0.17193605;0.13655092;;;;;;;;;;;;;;;
2215.0;2160.3;;;;-0.64583594;-0.1743889;0.13491823;;;;;;;;;;;;;;;
2215.0;2160.3;;;;-0.64415365;-0.17652513;0.13409807;;;;;;;;;;;;;;;
2215.0;2160.3;;;;-0.6434174;-0.17803575;0.13253786;;;;;;;;;;;;;;;
2215.0;2160.3;;;;-0.6429673;-0.17926408;0.13121416;;;;;;;;;;;;;;;
2215.0;2164.2;262143;262143;13080;;;;;;;;;;;;;;;;;;
2215.0;2168.1;;;;;;;;;;-43.11121;-10.235145;-27.619251;;;;;;;;;
2215.0;2168.1;;;;;;;0.84322643;0.10876797;0.08929716;;;;;;;;;;;;
2215.0;2168.1;;;;;;;;;;-42.72973;-11.440626;-27.584917;;;;;;;;;
2215.0;2168.1;;;;;;;0.83278906;0.11169775;0.0888699;;;;;;;;;;;;
2215.0;2170.2;;;;;;;;;;;;;-22927;;;;;;;;
2215.0;2170.2;;;;;;;;;;;;;-31205;;;;;;;;
2215.0;2170.2;;;;;;;;;;;;;-23792;;;;;;;;
2215.0;2170.2;;;;;;;;;;;;;-7950;;;;;;;;
2215.0;2170.2;;;;;;;;;;;;;3030;;;;;;;;
2270.0;2170.4;;;;-0.64264685;-0.18028261;0.1298485;;;;;;;;;;;;;;;
2270.0;2170.4;;;;-0.6413842;-0.18114473;0.12829973;;;;;;;;;;;;;;;
2270.0;2170.4;;;;-0.64090735;-0.18158723;0.12634279;;;;;;;;;;;;;;;
2270.0;2170.4;;;;-0.64013296;-0.18239214;0.12523653;;;;;;;;;;;;;;;
2270.0;2170.4;;;;-0.63917166;-0.18289949;0.12427141;;;;;;;;;;;;;;;
2270.0;2177.6;;;;;;;;;;-42.56188;-12.409589;-27.695547;;;;;;;;;
2270.0;2177.6;;;;;;;0.8252205;0.11645863;0.09088412;;;;;;;;;;;;
2270.0;2177.6;;;;;;;;;;-42.42836;-13.172552;-27.794731;;;;;;;;;
2270.0;2177.6;;;;;;;0.81728566;0.119083226;0.09363079;;;;;;;;;;;;
2270.0;2180.3;;;;-0.6384316;-0.18385698;0.123157516;;;;;;;;;;;;;;;
2270.0;2180.3;;;;-0.63745123;-0.1845627;0.1232834;;;;;;;;;;;;;;;
2270.0;2180.3;;;;-0.63651663;-0.18539812;0.122547165;;;;;;;;;;;;;;;
2270.0;2180.3;;;;-0.63610464;-0.18678285;0.12130739;;;;;;;;;;;;;;;
2270.0;2180.3;;;;-0.63623816;-0.18796924;0.1211815;;;;;;;;;;;;;;;
2270.0;2184.3;262143;262143;13069;;;;;;;;;;;;;;;;;;
2270.0;2187.2;;;;;;;;;;-42.405468;-13.7371435;-27.672657;;;;;;;;;
2270.0;2187.2;;;;;;;0.81209755;0.12286752;0.09613331;;;;;;;;;;;;
2270.0;2187.2;;;;;;;;;;-42.38258;-14.278848;-27.428509;;;;;;;;;
2270.0;2187.2;;;;;;;0.8091067;0.12537004;0.09686575;;;;;;;;;;;;
2274.0;2190.4;;;;-0.636715;-0.1895676;0.12129213;;;;;;;;;;;;;;;
2274.0;2190.4;;;;-0.6376038;-0.19162372;0.12086488;;;;;;;;;;;;;;;
2274.0;2190.4;;;;-0.6399613;-0.19382098;0.12031557;;;;;;;;;;;;;;;
2274.0;2190.4;;;;-0.64680105;-0.1988869;0.119503036;;;;;;;;;;;;;;;
2274.0;2190.4;;;;-0.64971167;-0.20318606;0.11911775;;;;;;;;;;;;;;;
2274.0;2196.8;;;;;;;;;;-42.394024;-14.786219;-27.077549;;;;;;;;;
2274.0;2196.8;;;;;;;0.8073366;0.12701803;0.09900205;;;;;;;;;;;;
2274.0;2196.8;;;;;;;;;;-42.519913;-15.2096615;-26.852474;;;;;;;;;
2274.0;2196.8;;;;;;;0.8037355;0.130253;0.096926786;;;;;;;;;;;;
2274.0;2200.6;;;;-0.64757544;-0.2034035;0.12157442;;;;;;;;;;;;;;;
2274.0;2200.6;;;;-0.64500815;-0.20150378;0.12250139;;;;;;;;;;;;;;;
2274.0;2200.6;;;;-0.6471558;-0.19977191;0.12159349;;;;;;;;;;;;;;;
2274.0;2200.6;;;;-0.65500265;-0.2020531;0.12140657;;;;;;;;;;;;;;;
2274.0;2200.6;;;;-0.66230017;-0.205143;0.12213518;;;;;;;;;;;;;;;
2275.0;2203.2;;;;;;;;;;;;;;;;;-46.27369;14.496292;-88.354904;;2054.1
2275.0;2203.2;;;;;;;;;;;;;;0.87624747;0.24262215;-0.09564501;;;;;2054.1
2275.0;2203.2;;;;;;;;;;;;;;;;;-43.996246;14.4047365;-89.32386;;2054.1
2275.0;2203.2;;;;;;;;;;;;;;0.8478652;0.23572497;-0.12274545;;;;;2054.1
2275.0;2203.2;;;;;;;;;;;;;;;;;-42.352062;12.462996;-90.35767;;2063.8
2275.0;2203.2;;;;;;;;;;;;;;0.83962524;0.24408704;-0.13861507;;;;;2063.8
2275.0;2203.2;;;;;;;;;;;;;;;;;-41.711174;9.907071;-91.17023;;2063.8
2275.0;2203.2;;;;;;;;;;;;;;0.83419293;0.24652852;-0.15955077;;;;;2063.8
2275.0;2203.2;;;;;;;;;;;;;;;;;-42.622913;8.1331835;-91.750084;;2073.5
2275.0;2203.2;;;;;;;;;;;;;;0.8303476;0.28296763;-0.18884854;;;;;2073.5
2275.0;2203.2;;;;;;;;;;;;;;;;;-45.52217;7.1756644;-91.92175;;2073.5
2275.0;2203.2;;;;;;;;;;;;;;0.82363355;0.31617177;-0.21655935;;;;;2073.5
2275.0;2204.0;;;;;;;;;;;;;;;;;-49.951168;7.3053684;-91.91793;;2083.1
2275.0;2204.0;;;;;;;;;;;;;;0.81606495;0.31763664;-0.21277505;;;;;2083.1
2275.0;2204.0;;;;;;;;;;;;;;;;;-53.670616;7.656331;-91.856895;;2083.1
2275.0;2204.0;;;;;;;;;;;;;;0.80703145;0.3103122;-0.20386365;;;;;2083.1
2275.0;2204.0;;;;;;;;;;;;;;;;;-56.40202;8.79696;-91.53264;;2092.8
2275.0;2204.0;;;;;;;;;;;;;;0.78774375;0.3279519;-0.18231757;;;;;2092.8
2275.0;2204.0;;;;;;;;;;;;;;;;;-58.79391;9.933775;-91.13208;;2092.8
2275.0;2204.0;;;;;;;;;;;;;;0.78359324;0.3444319;-0.1424604;;;;;2092.8
2275.0;2204.0;;;;;;;;;;;;;;;;;-60.45335;10.689108;-90.170746;;2102.4
2275.0;2204.0;;;;;;;;;;;;;;0.7802973;0.33411664;-0.10858486;;;;;2102.4
2275.0;2204.0;;;;;;;;;;;;;;;;;-61.582535;12.077701;-89.18271;;2102.4
2275.0;2204.0;;;;;;;;;;;;;;0.76723534;0.33344522;-0.06146428;;;;;2102.4
2277.0;2204.8;;;;;;;;;;;;;;;;;-62.334057;12.760551;-87.79031;;2111.9
2277.0;2204.8;;;;;;;;;;;;;;0.7541734;0.31897947;-0.01678518;;;;;2111.9
2277.0;2204.8;;;;;;;;;;;;;;;;;-62.654503;13.351849;-86.06983;;2111.9
2277.0;2204.8;;;;;;;;;;;;;;0.74019593;0.31586656;0.013550218;;;;;2111.9
2277.0;2204.8;;;;;;;;;;;;;;;;;-63.211464;14.656514;-84.11283;;2121.5
2277.0;2204.8;;;;;;;;;;;;;;0.7098605;0.31818599;0.051942505;;;;;2121.5
2277.0;2204.8;;;;;;;;;;;;;;;;;-64.26054;15.491959;-81.80868;;2121.5
2277.0;2204.8;;;;;;;;;;;;;;0.685873;0.3094577;0.07678457;;;;;2121.5
2277.0;2204.8;;;;;;;;;;;;;;;;;-66.1565;16.178625;-79.09253;;2131.1
2277.0;2204.8;;;;;;;;;;;;;;0.67738885;0.3108005;0.08911405;;;;;2131.1
2277.0;2204.8;;;;;;;;;;;;;;;;;-68.57127;17.227697;-76.1742;;2131.1
2277.0;2204.8;;;;;;;;;;;;;;0.67561877;0.3037202;0.09161656;;;;;2131.1
2277.0;2204.4;262143;262143;13065;;;;;;;;;;;;;;;;;;
2277.0;2206.2;;;;;;;;;;-42.741173;-15.591144;-26.53966;;;;;;;;;
2277.0;2206.2;;;;;;;0.79744864;0.133549;0.097720265;;;;;;;;;;;;
2277.0;2206.2;;;;;;;;;;-43.0311;-15.65218;-26.08188;;;;;;;;;
2277.0;2206.2;;;;;;;0.79317605;0.1391644;0.09796441;;;;;;;;;;;;
2277.0;2210.4;;;;;;;;;;;;;4918;;;;;;;;
2277.0;2210.4;;;;;;;;;;;;;3303;;;;;;;;
2277.0;2210.4;;;;;;;;;;;;;3226;;;;;;;;
2277.0;2210.4;;;;;;;;;;;;;3838;;;;;;;;
2277.0;2210.4;;;;;;;;;;;;;3294;;;;;;;;
2279.0;2210.4;;;;-0.6661988;-0.20834735;0.12376787;;;;;;;;;;;;;;;
2279.0;2210.4;;;;-0.6682282;-0.20986179;0.1243477;;;;;;;;;;;;;;;
2279.0;2210.4;;;;-0.669529;-0.20998767;0.1254883;;;;;;;;;;;;;;;
2279.0;2210.4;;;;-0.67282873;-0.2116814;0.12637712;;;;;;;;;;;;;;;
2279.0;2210.4;;;;-0.67729574;-0.21389773;0.1264229;;;;;;;;;;;;;;;
2279.0;2215.8;;;;;;;;;;-43.439285;-15.549181;-25.631733;;;;;;;;;
2279.0;2215.8;;;;;;;0.79384744;0.14477982;0.10119938;;;;;;;;;;;;
2279.0;2215.8;;;;;;;;;;-43.977173;-15.717033;-25.158695;;;;;;;;;
2279.0;2215.8;;;;;;;0.78633994;0.14661092;0.104373306;;;;;;;;;;;;
2279.0;2218.4;;;;;;;;;;;;;;;;;-71.470535;18.875698;-72.99646;;2140.7
2279.0;2218.4;;;;;;;;;;;;;;0.6517533;0.28498185;0.08105716;;;;;2140.7
2279.0;2218.4;;;;;;;;;;;;;;;;;-74.59487;19.940031;-69.90264;;2140.7
2279.0;2218.4;;;;;;;;;;;;;;0.64351326;0.2773522;0.06860561;;;;;2140.7
2279.0;2218.4;;;;;;;;;;;;;;;;;-77.46742;20.519882;-66.66387;;2150.4
2279.0;2218.4;;;;;;;;;;;;;;0.6237983;0.27546006;0.05224769;;;;;2150.4
2279.0;2218.4;;;;;;;;;;;;;;;;;-80.153046;21.217995;-63.531906;;2150.4
2279.0;2218.4;;;;;;;;;;;;;;0.6129948;0.25318155;0.044068728;;;;;2150.4
2279.0;2218.4;;;;;;;;;;;;;;;;;-81.701866;21.660513;-60.193943;;2160.0
2279.0;2218.4;;;;;;;;;;;;;;0.59254736;0.23688467;0.034485918;;;;;2160.0
2279.0;2218.4;;;;;;;;;;;;;;;;;-81.995605;21.11118;-56.90176;;2160.0
2279.0;2218.4;;;;;;;;;;;;;;0.59511095;0.23065889;0.034669027;;;;;2160.0
2330.0;2220.3;;;;-0.68223196;-0.21675113;0.12723161;;;;;;;;;;;;;;;
2330.0;2220.3;;;;-0.6872025;-0.21951678;0.12821199;;;;;;;;;;;;;;;
2330.0;2220.3;;;;-0.6920243;-0.2217255;0.12892534;;;;;;;;;;;;;;;
2330.0;2220.3;;;;-0.6962853;-0.2232056;0.13063432;;;;;;;;;;;;;;;
2330.0;2220.3;;;;-0.7001839;-0.22349551;0.13199617;;;;;;;;;;;;;;;
2330.0;2224.4;262143;262143;13071;;;;;;;;;;;;;;;;;;
2330.0;2225.2;;;;;;;;;;-44.473095;-15.671255;-24.719994;;;;;;;;;
2330.0;2225.2;;;;;;;0.7837153;0.15131077;0.10693686;;;;;;;;;;;;
2330.0;2225.2;;;;;;;;;;-44.999542;-15.278329;-24.300364;;;;;;;;;
2330.0;2225.2;;;;;;;0.7827998;0.15277566;0.11017182;;;;;;;;;;;;
2330.0;2230.4;;;;-0.70494086;-0.22382358;0.13372423;;;;;;;;;;;;;;;
2330.0;2230.4;;;;-0.7120095;-0.22484592;0.13488771;;;;;;;;;;;;;;;
2330.0;2230.4;;;;-0.7205544;-0.2261658;0.13668062;;;;;;;;;;;;;;;
2330.0;2230.4;;;;-0.72788626;-0.228138;0.13790895;;;;;;;;;;;;;;;
2330.0;2230.4;;;;-0.7317582;-0.22862628;0.13955308;;;;;;;;;;;;;;;
2330.0;2234.5;;;;;;;;;;-45.548874;-14.64507;-23.796808;;;;;;;;;
2330.0;2234.5;;;;;;;0.7885983;0.1530198;0.11383404;;;;;;;;;;;;
2330.0;2234.5;;;;;;;;;;-46.13254;-14.088107;-23.312326;;;;;;;;;
2330.0;2234.5;;;;;;;0.79567856;0.15002899;0.11658071;;;;;;;;;;;;
2335.0;2240.0;;;;-0.7351838;-0.22797778;0.14057924;;;;;;;;;;;;;;;
2335.0;2240.0;;;;-0.7388268;-0.22740176;0.14178468;;;;;;;;;;;;;;;
2335.0;2240.0;;;;-0.74483496;-0.22779849;0.1426468;;;;;;;;;;;;;;;
2335.0;2240.0;;;;-0.7528573;-0.22829822;0.14400484;;;;;;;;;;;;;;;
2335.0;2240.0;;;;-0.76260006;-0.22848895;0.14553834;;;;;;;;;;;;;;;
2335.0;2244.0;;;;;;;;;;-46.69332;-13.569293;-22.82403;;;;;;;;;
2335.0;2244.0;;;;;;;0.8037355;0.15338603;0.11688589;;;;;;;;;;;;
2335.0;2244.0;;;;;;;;;;-47.27317;-13.019959;-22.305214;;;;;;;;;
2335.0;2244.0;;;;;;;0.8094729;0.15649892;0.11505478;;;;;;;;;;;;
2335.0;2244.1;262143;262143;13061;;;;;;;;;;;;;;;;;;
2335.0;2250.1;;;;-0.77391064;-0.22913364;0.14699174;;;;;;;;;;;;;;;
2335.0;2250.1;;;;-0.78608716;-0.22914508;0.14793016;;;;;;;;;;;;;;;
2335.0;2250.1;;;;-0.7972146;-0.22890094;0.14946748;;;;;;;;;;;;;;;
2335.0;2250.1;;;;-0.8074304;-0.22900012;0.15111162;;;;;;;;;;;;;;;
2335.0;2250.1;;;;-0.81764996;-0.22801593;0.15215684;;;;;;;;;;;;;;;
2335.0;2250.2;;;;;;;;;;;;;2564;;;;;;;;
2335.0;2250.2;;;;;;;;;;;;;2244;;;;;;;;
2335.0;2250.2;;;;;;;;;;;;;1860;;;;;;;;
2335.0;2250.2;;;;;;;;;;;;;1471;;;;;;;;
2335.0;2250.2;;;;;;;;;;;;;1202;;;;;;;;
2335.0;2253.7;;;;;;;;;;-47.879726;-12.543107;-21.759699;;;;;;;;;
2335.0;2253.7;;;;;;;0.814478;0.15778069;0.11890011;;;;;;;;;;;;
2335.0;2253.7;;;;;;;;;;-48.44432;-11.940367;-21.240883;;;;;;;;;
2335.0;2253.7;;;;;;;0.82412183;0.15381329;0.12396619;;;;;;;;;;;;
2337.0;2260.3;;;;-0.82756436;-0.22712329;0.1539345;;;;;;;;;;;;;;;
2337.0;2260.3;;;;-0.83783734;-0.22614291;0.15519334;;;;;;;;;;;;;;;
2337.0;2260.3;;;;-0.84700024;-0.2246323;0.15687944;;;;;;;;;;;;;;;
2337.0;2260.3;;;;-0.8569375;-0.22391513;0.15861131;;;;;;;;;;;;;;;
2337.0;2260.3;;;;-0.8664781;-0.22275165;0.15987398;;;;;;;;;;;;;;;
2337.0;2263.0;;;;;;;;;;;;;;;;;-81.29749;20.630512;-53.312023;;2169.6
2337.0;2263.0;;;;;;;;;;;;;;0.5906552;0.23120824;0.029663991;;;;;2169.6
2337.0;2263.0;;;;;;;;;;;;;;;;;-79.82879;19.295328;-49.45906;;2169.6
2337.0;2263.0;;;;;;;;;;;;;;0.5934019;0.2247383;0.037110507;;;;;2169.6
2337.0;2263.0;;;;;;;;;;;;;;;;;-77.730644;17.30781;-45.590836;;2179.3
2337.0;2263.0;;;;;;;;;;;;;;0.60567033;0.21008942;0.032654807;;;;;2179.3
2337.0;2263.0;;;;;;;;;;;;;;;;;-74.94583;16.38081;-41.70736;;2179.3
2337.0;2263.0;;;;;;;;;;;;;;0.6217841;0.19904172;0.04077273;;;;;2179.3
2337.0;2263.0;;;;;;;;;;;;;;;;;-71.90924;16.392256;-38.243507;;2188.9
2337.0;2263.0;;;;;;;;;;;;;;0.62465286;0.20935698;0.04712058;;;;;2188.9
2337.0;2263.0;;;;;;;;;;;;;;;;;-68.76583;16.758478;-34.981842;;2188.9
2337.0;2263.0;;;;;;;;;;;;;;0.62172306;0.19586779;0.05719169;;;;;2188.9
2337.0;2263.2;;;;;;;;;;-49.066135;-11.432997;-20.729698;;;;;;;;;
2337.0;2263.2;;;;;;;0.83120215;0.15222633;0.12567522;;;;;;;;;;;;
2337.0;2263.2;;;;;;;;;;-49.550613;-10.66622;-20.237587;;;;;;;;;
2337.0;2263.2;;;;;;;0.8417005;0.15088351;0.12671286;;;;;;;;;;;;
2337.0;2264.3;262143;262143;13066;;;;;;;;;;;;;;;;;;
2339.0;2270.2;;;;-0.8755876;-0.22090152;0.16173173;;;;;;;;;;;;;;;
