patientId;holterMac;flexMac;;;;;;;;;;;;;;;;;;;;
;CA:F3:0B:1E:33:78;D3:4A:5C:52:80:78;;;;;;;;;;;;;;;;;;;;
receivedTimeStamp;timeStamp;red;ir;green;adxl_accX;adxl_accY;adxl_accZ;lsm_accelX;lsm_accelY;lsm_accelZ;lsm_gyroX;lsm_gyroY;lsm_gyroZ;ecg;flex_lsm_accelX;flex_lsm_accelY;flex_lsm_accelZ;flex_lsm_gyroX;flex_lsm_gyroY;flex_lsm_gyroZ;flex_cmd;flexTimeStamp
313.0;216.9;;;;;;;;;;;;;;;;;;;;17;0.1
313.0;216.9;;;;;;;;;;;;;;;;;13.782922;0.12588885;1.7357402;;127.6
313.0;216.9;;;;;;;;;;;;;;0.9241615;-0.13336588;-0.20770897;;;;;127.6
313.0;216.9;;;;;;;;;;;;;;;;;-5.050813;-19.386885;-5.9320354;;127.6
313.0;216.9;;;;;;;;;;;;;;0.96786404;-0.15375225;-0.21601;;;;;127.6
313.0;216.9;;;;;;;;;;;;;;;;;-63.303017;-84.37224;-59.835354;;137.2
313.0;216.9;;;;;;;;;;;;;;0.9750053;-0.16968292;-0.20935698;;;;;137.2
313.0;216.9;;;;;;;;;;;;;;;;;-122.245705;-124.988556;-119.1786;;137.2
313.0;216.9;;;;;;;;;;;;;;0.9769585;-0.18359935;-0.20282601;;;;;137.2
380.0;224.0;;;;;;;;;;;;;;;;;-58.805355;-124.70626;-75.579094;;146.8
380.0;224.0;;;;;;;;;;;;;;0.9754326;-0.18567461;-0.19788201;;;;;146.8
380.0;224.0;;;;;;;;;;;;;;;;;9.006775;-124.95422;-25.284584;;146.8
380.0;224.0;;;;;;;;;;;;;;0.9725028;-0.18707846;-0.20075075;;;;;146.8
380.0;224.0;;;;;;;;;;;;;;;;;8.301035;-96.907715;-17.20481;;156.5
380.0;224.0;;;;;;;;;;;;;;0.9692068;-0.18134098;-0.20453505;;;;;156.5
380.0;224.0;;;;;;;;;;;;;;;;;5.2110357;-5.916776;6.2181463;;156.5
380.0;224.0;;;;;;;;;;;;;;0.96267587;-0.1693167;-0.20178838;;;;;156.5
380.0;224.0;;;;;;;;;;;;;;;;;8.262887;3.2425916;6.4012575;;166.2
380.0;224.0;;;;;;;;;;;;;;0.9544969;-0.1490524;-0.20453505;;;;;166.2
380.0;224.0;;;;;;;;;;;;;;;;;12.199775;4.634999;4.737999;;166.2
380.0;224.0;;;;;;;;;;;;;;0.9388104;-0.1267739;-0.20654927;;;;;166.2
380.0;276.4;;;;;;;;;;;;;;;;;15.671255;5.352184;3.6545916;;175.8
380.0;276.4;;;;;;;;;;;;;;0.92178106;-0.10626545;-0.20728172;;;;;175.8
380.0;276.4;;;;;;;;;;;;;;;;;18.23481;5.5238504;2.4643695;;175.8
380.0;276.4;;;;;;;;;;;;;;0.90859705;-0.104068115;-0.20178838;;;;;175.8
380.0;276.4;;;;;;;;;;;;;;;;;19.76455;5.279702;1.6327403;;185.3
380.0;276.4;;;;;;;;;;;;;;0.90121156;-0.092837304;-0.1911069;;;;;185.3
380.0;276.4;;;;;;;;;;;;;;;;;20.516068;4.4900355;1.0299997;;185.3
380.0;276.4;;;;;;;;;;;;;;0.89767146;-0.08386487;-0.17950988;;;;;185.3
380.0;276.4;;;;;;;;;;;;;;;;;20.432142;3.5935545;0.39674062;;194.9
380.0;276.4;;;;;;;;;;;;;;0.90121156;-0.07599109;-0.17865536;;;;;194.9
380.0;276.4;;;;;;;;;;;;;;;;;20.07355;3.1624806;-0.11825922;;194.9
380.0;276.4;;;;;;;;;;;;;;0.9060335;-0.07477035;-0.18280587;;;;;194.9
437.0;277.2;;;;;;;;;;;;;;;;;19.92477;2.9793696;-0.6447035;;204.3
437.0;277.2;;;;;;;;;;;;;;0.91384625;-0.08081301;-0.18524735;;;;;204.3
437.0;277.2;;;;;;;;;;;;;;;;;19.920956;3.1853695;-1.4572588;;204.3
437.0;277.2;;;;;;;;;;;;;;0.9273965;-0.08514664;-0.18726158;;;;;204.3
437.0;277.2;;;;;;;;;;;;;;;;;20.092623;3.8377025;-2.1477401;;214.0
437.0;277.2;;;;;;;;;;;;;;0.94210637;-0.08026368;-0.18585773;;;;;214.0
437.0;277.2;;;;;;;;;;;;;;;;;20.268105;4.989776;-3.0442214;;214.0
437.0;277.2;;;;;;;;;;;;;;0.95669425;-0.06683554;-0.18018128;;;;;214.0
437.0;277.2;;;;;;;;;;;;;;;;;20.535141;6.920072;-4.1047397;;223.5
437.0;277.2;;;;;;;;;;;;;;0.97140414;-0.047975097;-0.17426069;;;;;223.5
437.0;277.2;;;;;;;;;;;;;;;;;21.19129;9.468368;-5.1614428;;223.5
437.0;277.2;;;;;;;;;;;;;;0.97976625;-0.0237434;-0.16705832;;;;;223.5
437.0;336.7;;;;;;;;;;;;;;;;;22.511215;11.917479;-6.2562943;;233.1
437.0;336.7;;;;;;;;;;;;;;0.9822077;-6.714072E-4;-0.15887935;;;;;233.1
437.0;336.7;;;;;;;;;;;;;;;;;24.304178;13.760033;-7.248146;;233.1
437.0;336.7;;;;;;;;;;;;;;0.981048;0.021607105;-0.14600055;;;;;233.1
437.0;336.7;;;;;;;;;;;;;;;;;25.61266;14.709922;-7.717368;;242.8
437.0;336.7;;;;;;;;;;;;;;0.97775203;0.038819544;-0.1347087;;;;;242.8
437.0;336.7;;;;;;;;;;;;;;;;;25.66225;14.690847;-7.869961;;242.8
437.0;336.7;;;;;;;;;;;;;;0.97524947;0.039674062;-0.13037507;;;;;242.8
437.0;336.7;;;;;;;;;;;;;;;;;24.445328;13.607441;-7.744072;;252.5
437.0;336.7;;;;;;;;;;;;;;0.97341835;0.03601184;-0.13440351;;;;;252.5
437.0;336.7;;;;;;;;;;;;;;;;;22.469252;11.860256;-7.3816648;;252.5
437.0;336.7;;;;;;;;;;;;;;0.97384566;0.04016236;-0.14435256;;;;;252.5
494.0;337.9;;;;;;;;;;;;;;;;;20.123142;9.907071;-6.714072;;262.0
494.0;337.9;;;;;;;;;;;;;;0.9775078;0.034363844;-0.15826899;;;;;262.0
494.0;337.9;;;;;;;;;;;;;;;;;17.708364;7.6525164;-5.859554;;262.0
494.0;337.9;;;;;;;;;;;;;;0.9834285;0.025086215;-0.17932676;;;;;262.0
494.0;337.9;;;;;;;;;;;;;;;;;15.44618;5.272073;-4.7227397;;271.7
494.0;337.9;;;;;;;;;;;;;;0.98910487;0.015625477;-0.2033143;;;;;271.7
494.0;337.9;;;;;;;;;;;;;;;;;13.191626;3.1281471;-3.3913696;;271.7
494.0;337.9;;;;;;;;;;;;;;0.9981994;0.006897183;-0.22467726;;;;;271.7
494.0;337.9;;;;;;;;;;;;;;;;;11.417737;1.4343699;-2.0447402;;281.3
494.0;337.9;;;;;;;;;;;;;;1.0019226;0.003906369;-0.24939726;;;;;281.3
494.0;337.9;;;;;;;;;;;;;;;;;10.23896;0.5569628;-0.7667776;;281.3
494.0;337.9;;;;;;;;;;;;;;0.9973449;0.009643849;-0.2662435;;;;;281.3
494.0;397.2;;;;;;;;;;;;;;;;;9.075441;0.068666644;0.46922207;;291.0
494.0;397.2;;;;;;;;;;;;;;0.9908139;0.02496414;-0.2771691;;;;;291.0
494.0;397.2;;;;;;;;;;;;;;;;;7.5838494;-0.14496292;1.4801477;;291.0
494.0;397.2;;;;;;;;;;;;;;0.9823298;0.04443495;-0.2840663;;;;;291.0
494.0;397.2;;;;;;;;;;;;;;;;;6.5652943;-0.6637776;2.6245918;;300.5
494.0;397.2;;;;;;;;;;;;;;0.9723197;0.06305124;-0.29023102;;;;;300.5
494.0;397.2;;;;;;;;;;;;;;;;;6.2982574;-1.1749626;3.8148136;;300.5
494.0;397.2;;;;;;;;;;;;;;0.9679251;0.08026368;-0.29511398;;;;;300.5
494.0;397.2;;;;;;;;;;;;;;;;;6.714072;-1.247444;5.184332;;310.2
494.0;397.2;;;;;;;;;;;;;;0.9668264;0.08740501;-0.30317086;;;;;310.2
494.0;397.2;;;;;;;;;;;;;;;;;7.4121833;-1.0986663;6.5843687;;310.2
494.0;397.2;;;;;;;;;;;;;;0.96658224;0.08777124;-0.310007;;;;;310.2
558.0;398.1;;;;;;;;;;;;;;;;;8.236183;-0.98422194;8.030183;;319.8
558.0;398.1;;;;;;;;;;;;;;0.96334726;0.08252205;-0.31134984;;;;;319.8
558.0;398.1;;;;;;;;;;;;;;;;;9.258553;-1.247444;9.521775;;319.8
558.0;398.1;;;;;;;;;;;;;;0.9688406;0.06982635;-0.31318095;;;;;319.8
558.0;398.1;;;;;;;;;;;;;;;;;10.967589;-1.1444441;11.074404;;329.5
558.0;398.1;;;;;;;;;;;;;;0.97701955;0.052552875;-0.30597857;;;;;329.5
558.0;398.1;;;;;;;;;;;;;;;;;13.431959;-0.7667776;12.710959;;329.5
558.0;398.1;;;;;;;;;;;;;;0.98550373;0.032227546;-0.3037202;;;;;329.5
558.0;398.1;;;;;;;;;;;;;;;;;15.999329;-0.3013703;14.290292;;339.1
558.0;398.1;;;;;;;;;;;;;;0.99252295;0.016052736;-0.30976287;;;;;339.1
558.0;398.1;;;;;;;;;;;;;;;;;18.780329;0.022888882;15.896328;;339.1
558.0;398.1;;;;;;;;;;;;;;0.99087495;0.0042115543;-0.3134251;;;;;339.1
558.0;457.6;;;;;;;;;;;;;;;;;21.805475;0.3318888;17.399364;;348.8
558.0;457.6;;;;;;;;;;;;;;0.99050874;-0.0024414808;-0.31043428;;;;;348.8
558.0;457.6;;;;;;;;;;;;;;;;;24.895473;0.7896664;18.841366;;348.8
558.0;457.6;;;;;;;;;;;;;;0.98312324;-0.0025025178;-0.30005798;;;;;348.8
558.0;457.6;;;;;;;;;;;;;;;;;27.554398;1.0109257;20.191809;;358.3
558.0;457.6;;;;;;;;;;;;;;0.9772637;2.4414808E-4;-0.29132968;;;;;358.3
558.0;457.6;;;;;;;;;;;;;;;;;29.698326;1.289407;21.549883;;358.3
558.0;457.6;;;;;;;;;;;;;;0.9670705;0.0045167394;-0.28101444;;;;;358.3
558.0;457.6;;;;;;;;;;;;;;;;;31.456955;1.9646292;22.808771;;368.0
558.0;457.6;;;;;;;;;;;;;;0.9541307;0.013489181;-0.26593828;;;;;368.0
558.0;457.6;;;;;;;;;;;;;;;;;33.143105;2.910703;23.846401;;368.0
558.0;457.6;;;;;;;;;;;;;;0.93960387;0.022339549;-0.25324258;;;;;368.0
616.0;458.5;;;;;;;;;;;;;;;;;34.813988;4.0284433;24.769585;;377.6
616.0;458.5;;;;;;;;;;;;;;0.92196417;0.03216651;-0.24219489;;;;;377.6
616.0;458.5;;;;;;;;;;;;;;;;;36.42384;4.837184;25.349436;;377.6
616.0;458.5;;;;;;;;;;;;;;0.906827;0.04504532;-0.23096408;;;;;377.6
616.0;458.5;;;;;;;;;;;;;;;;;37.87347;5.32548;25.784325;;387.3
616.0;458.5;;;;;;;;;;;;;;0.8928495;0.05633717;-0.22321238;;;;;387.3
616.0;458.5;;;;;;;;;;;;;;;;;39.185764;5.539109;26.005585;;387.3
616.0;458.5;;;;;;;;;;;;;;0.8819239;0.06964324;-0.21832941;;;;;387.3
616.0;458.5;;;;;;;;;;;;;;;;;40.017395;5.3178506;26.123844;;396.8
616.0;458.5;;;;;;;;;;;;;;0.87905514;0.08752709;-0.2158269;;;;;396.8
616.0;458.5;;;;;;;;;;;;;;;;;40.50569;5.237739;25.986511;;396.8
616.0;458.5;;;;;;;;;;;;;;0.87606436;0.105533004;-0.2102115;;;;;396.8
616.0;518.4;;;;;;;;;;;;;;;;;40.787987;5.130924;25.673697;;406.5
616.0;518.4;;;;;;;;;;;;;;0.8725242;0.12616351;-0.20630513;;;;;406.5
616.0;518.4;;;;;;;;;;;;;;;;;40.833767;4.81048;25.223547;;406.5
616.0;518.4;;;;;;;;;;;;;;0.8707541;0.14917448;-0.20514542;;;;;406.5
616.0;518.4;;;;;;;;;;;;;;;;;40.62395;4.333628;24.575031;;416.2
616.0;518.4;;;;;;;;;;;;;;0.8728294;0.17682424;-0.20587787;;;;;416.2
616.0;518.4;;;;;;;;;;;;;;;;;39.9678;3.9483323;23.823511;;416.2
616.0;518.4;;;;;;;;;;;;;;0.873928;0.20093387;-0.2074038;;;;;416.2
616.0;518.4;;;;;;;;;;;;;;;;;38.93399;3.3341472;22.8164;;425.8
616.0;518.4;;;;;;;;;;;;;;0.8709372;0.22418897;-0.2111881;;;;;425.8
616.0;518.4;;;;;;;;;;;;;;;;;37.81625;2.6970735;21.675772;;425.8
616.0;518.4;;;;;;;;;;;;;;0.86751914;0.24213386;-0.22223578;;;;;425.8
677.0;519.2;;;;;;;;;;;;;;;;;36.47725;2.3232217;20.489365;;435.4
677.0;519.2;;;;;;;;;;;;;;0.8651387;0.2620319;-0.23023164;;;;;435.4
677.0;519.2;;;;;;;;;;;;;;;;;35.13062;2.3461106;19.032106;;435.4
677.0;519.2;;;;;;;;;;;;;;0.8636128;0.29053622;-0.23895992;;;;;435.4
677.0;519.2;;;;;;;;;;;;;;;;;33.753475;2.6131475;17.399364;;445.1
677.0;519.2;;;;;;;;;;;;;;0.86214787;0.32422864;-0.25025177;;;;;445.1
677.0;519.2;;;;;;;;;;;;;;;;;32.5251;2.7962584;15.427107;;445.1
677.0;519.2;;;;;;;;;;;;;;0.86233103;0.35657826;-0.26081118;;;;;445.1
677.0;519.2;;;;;;;;;;;;;;;;;31.590473;2.5673697;13.252663;;454.7
677.0;519.2;;;;;;;;;;;;;;0.86306345;0.3864864;-0.27063814;;;;;454.7
677.0;519.2;;;;;;;;;;;;;;;;;30.751213;1.3275552;11.005738;;454.7
677.0;519.2;;;;;;;;;;;;;;0.8669088;0.4189581;-0.2870571;;;;;454.7
677.0;532.9;;;;;;;;;;;;;;;;;29.751732;-0.034333322;8.724479;;464.4
677.0;532.9;;;;;;;;;;;;;;0.8746605;0.45222327;-0.2893765;;;;;464.4
677.0;532.9;;;;;;;;;;;;;;;;;28.012177;-0.9994812;6.282998;;464.4
677.0;532.9;;;;;;;;;;;;;;0.878811;0.4773095;-0.2821131;;;;;464.4
677.0;532.9;;;;;;;;;;;;;;;;;25.749992;-1.2207403;3.6317027;;474.0
677.0;532.9;;;;;;;;;;;;;;0.8789941;0.49708548;-0.26734215;;;;;474.0
677.0;532.9;;;;;;;;;;;;;;;;;22.770622;-0.7324442;1.2359996;;474.0
677.0;532.9;;;;;;;;;;;;;;0.8678243;0.5004425;-0.24512467;;;;;474.0
677.0;532.9;;;;;;;;;;;;;;;;;19.699697;0.6179998;-1.3771478;;483.5
677.0;532.9;;;;;;;;;;;;;;0.85366374;0.50032043;-0.21539964;;;;;483.5
677.0;532.9;;;;;;;;;;;;;;;;;16.369366;2.3842587;-4.3450727;;483.5
677.0;532.9;;;;;;;;;;;;;;0.8319956;0.49360636;-0.18146306;;;;;483.5
736.0;578.2;;;;;;;;;;;;;;;;;13.187811;3.540147;-7.4808497;;493.0
736.0;578.2;;;;;;;;;;;;;;0.80813015;0.4829249;-0.16302988;;;;;493.0
736.0;578.2;;;;;;;;;;;;;;;;;10.307627;3.5554063;-10.74633;;493.0
736.0;578.2;;;;;;;;;;;;;;0.77932066;0.46424755;-0.1655324;;;;;493.0
736.0;578.2;;;;;;;;;;;;;;;;;8.41548;2.071444;-14.572589;;502.6
736.0;578.2;;;;;;;;;;;;;;0.7497177;0.45167395;-0.1853084;;;;;502.6
736.0;578.2;;;;;;;;;;;;;;;;;6.6492205;0.068666644;-18.528551;;502.6
736.0;578.2;;;;;;;;;;;;;;0.71968746;0.44294566;-0.20459609;;;;;502.6
736.0;578.2;;;;;;;;;;;;;;;;;4.6655173;-2.3804438;-22.804956;;512.2
736.0;578.2;;;;;;;;;;;;;;0.68977934;0.43946654;-0.21814631;;;;;512.2
736.0;578.2;;;;;;;;;;;;;;;;;1.6556292;-5.4437394;-26.989807;;512.2
736.0;578.2;;;;;;;;;;;;;;0.659505;0.43684193;-0.22363964;;;;;512.2
736.0;593.6;;;;;;;;;;;;;;;;;-2.5101473;-9.662924;-30.926695;;521.9
736.0;593.6;;;;;;;;;;;;;;0.6342357;0.43116552;-0.22986542;;;;;521.9
736.0;593.6;;;;;;;;;;;;;;;;;-7.6181827;-14.54207;-34.882656;;521.9
736.0;593.6;;;;;;;;;;;;;;0.6130558;0.42915127;-0.2356029;;;;;521.9
736.0;593.6;;;;;;;;;;;;;;;;;-13.294626;-18.833736;-38.95688;;531.6
736.0;593.6;;;;;;;;;;;;;;0.5998108;0.4262215;-0.2313303;;;;;531.6
736.0;593.6;;;;;;;;;;;;;;;;;-19.226662;-21.668142;-43.076878;;531.6
736.0;593.6;;;;;;;;;;;;;;0.59199804;0.42939544;-0.22791223;;;;;531.6
736.0;593.6;;;;;;;;;;;;;;;;;-24.292734;-22.350992;-47.032837;;541.2
736.0;593.6;;;;;;;;;;;;;;0.60011595;0.43024996;-0.19617298;;;;;541.2
736.0;593.6;;;;;;;;;;;;;;;;;-28.832361;-22.095402;-50.737022;;541.2
736.0;593.6;;;;;;;;;;;;;;0.62410355;0.4405652;-0.16626485;;;;;541.2
796.0;638.6;;;;;;;;;;;;;;;;;-32.322918;-20.798365;-54.21232;;550.8
796.0;638.6;;;;;;;;;;;;;;0.6706137;0.44630268;-0.13214515;;;;;550.8
796.0;638.6;;;;;;;;;;;;;;;;;-34.78347;-20.851772;-58.423874;;550.8
796.0;638.6;;;;;;;;;;;;;;0.75606555;0.4593646;-0.117984556;;;;;550.8
796.0;638.6;;;;;;;;;;;;;;;;;-36.59551;-22.644733;-63.432724;;560.4
796.0;638.6;;;;;;;;;;;;;;0.8915677;0.49330118;-0.14526811;;;;;560.4
796.0;638.6;;;;;;;;;;;;;;;;;-38.865322;-22.701956;-69.43342;;560.4
796.0;638.6;;;;;;;;;;;;;;1.0707114;0.54176456;-0.16333507;;;;;560.4
796.0;638.6;;;;;;;;;;;;;;;;;-42.573322;-21.33244;-76.36876;;570.0
796.0;638.6;;;;;;;;;;;;;;1.2853175;0.59993285;-0.17358929;;;;;570.0
796.0;638.6;;;;;;;;;;;;;;;;;-47.910244;-21.328623;-84.16624;;570.0
796.0;638.6;;;;;;;;;;;;;;1.4831996;0.6807459;-0.2414014;;;;;570.0
796.0;653.5;;;;;;;;;;;;;;;;;-53.964355;-23.071993;-92.76864;;579.6
796.0;653.5;;;;;;;;;;;;;;1.6421399;0.7976928;-0.34882656;;;;;579.6
796.0;653.5;;;;;;;;;;;;;;;;;-56.54698;-23.571733;-99.71159;;579.6
796.0;653.5;;;;;;;;;;;;;;1.7498093;0.88790554;-0.41297647;;;;;579.6
796.0;653.5;;;;;;;;;;;;;;;;;-54.273357;-16.8157;-104.159676;;589.3
796.0;653.5;;;;;;;;;;;;;;1.6923734;0.8933988;-0.3632313;;;;;589.3
796.0;653.5;;;;;;;;;;;;;;;;;-50.43565;-3.360851;-109.37453;;589.3
796.0;653.5;;;;;;;;;;;;;;1.4629353;0.8827174;-0.1812189;;;;;589.3
796.0;653.5;;;;;;;;;;;;;;;;;-50.15717;1.9150364;-117.996;;598.8
796.0;653.5;;;;;;;;;;;;;;1.2889798;0.8959624;-0.044557024;;;;;598.8
796.0;653.5;;;;;;;;;;;;;;;;;-51.198612;-4.634999;-124.53841;;598.8
796.0;653.5;;;;;;;;;;;;;;1.2506485;0.9427168;0.023987548;;;;;598.8
855.0;698.8;;;;;;;;;;;;;;;;;-54.105503;-17.91818;-124.988556;;608.4
855.0;698.8;;;;;;;;;;;;;;1.3235878;0.99148536;0.059511095;;;;;608.4
855.0;698.8;;;;;;;;;;;;;;;;;-59.75906;-30.568102;-124.988556;;608.4
855.0;698.8;;;;;;;;;;;;;;1.4661092;1.0191962;0.017456587;;;;;608.4
855.0;698.8;;;;;;;;;;;;;;;;;-68.52931;-33.009583;-124.988556;;618.1
855.0;698.8;;;;;;;;;;;;;;1.5610218;1.000885;-0.08221687;;;;;618.1
855.0;698.8;;;;;;;;;;;;;;;;;-79.84023;-21.687216;-124.988556;;618.1
855.0;698.8;;;;;;;;;;;;;;1.6326792;0.97006136;-0.11859493;;;;;618.1
855.0;698.8;;;;;;;;;;;;;;;;;-86.661125;-7.6601458;-124.988556;;627.7
855.0;698.8;;;;;;;;;;;;;;1.7459639;0.88680685;-0.12775049;;;;;627.7
855.0;698.8;;;;;;;;;;;;;;;;;-87.57668;14.461959;-124.988556;;627.7
855.0;698.8;;;;;;;;;;;;;;1.8503373;0.73043;-0.14923552;;;;;627.7
855.0;706.3;;;;;;;;;;;;;;;;;-81.88879;40.398876;-124.988556;;637.3
855.0;706.3;;;;;;;;;;;;;;1.976989;0.5604419;-0.121097445;;;;;637.3
855.0;706.3;;;;;;;;;;;;;;;;;-72.24494;54.42595;-124.988556;;637.3
855.0;706.3;;;;;;;;;;;;;;1.996704;0.47285378;0.031922363;;;;;637.3
855.0;706.3;;;;;;;;;;;;;;;;;-74.6292;47.55547;-124.988556;;646.9
855.0;706.3;;;;;;;;;;;;;;1.996704;0.27643666;0.046388134;;;;;646.9
855.0;706.3;;;;;;;;;;;;;;;;;-83.47575;32.48314;-124.988556;;646.9
855.0;706.3;;;;;;;;;;;;;;1.996704;-0.067873165;-0.27350688;;;;;646.9
855.0;706.3;;;;;;;;;;;;;;;;;-72.63787;41.280098;-124.988556;;656.5
855.0;706.3;;;;;;;;;;;;;;1.8973968;-0.117862485;-0.41212195;;;;;656.5
855.0;706.3;;;;;;;;;;;;;;;;;-58.46965;45.915096;-124.988556;;656.5
855.0;706.3;;;;;;;;;;;;;;1.777337;-0.07959227;-0.33228552;;;;;656.5
916.0;759.6;;;;;;;;;;;;;;;;;-48.196358;35.16495;-124.988556;;666.1
916.0;759.6;;;;;;;;;;;;;;1.6626484;-0.1683401;-0.28089237;;;;;666.1
916.0;759.6;;;;;;;;;;;;;;;;;-39.922024;25.58977;-124.988556;;666.1
916.0;759.6;;;;;;;;;;;;;;1.5264138;-0.22675252;-0.23712882;;;;;666.1
916.0;759.6;;;;;;;;;;;;;;;;;-33.19651;14.801477;-124.988556;;675.6
916.0;759.6;;;;;;;;;;;;;;1.452559;-0.26416823;-0.24274422;;;;;675.6
916.0;759.6;;;;;;;;;;;;;;;;;-25.215918;9.52559;-124.988556;;675.6
916.0;759.6;;;;;;;;;;;;;;1.4037904;-0.2567217;-0.26734215;;;;;675.6
916.0;759.6;;;;;;;;;;;;;;;;;-17.719809;4.016999;-124.988556;;685.1
916.0;759.6;;;;;;;;;;;;;;1.3663137;-0.19653921;-0.31611073;;;;;685.1
916.0;759.6;;;;;;;;;;;;;;;;;-15.465255;-6.851405;-124.988556;;685.1
916.0;759.6;;;;;;;;;;;;;;1.3538622;-0.1093173;-0.41785944;;;;;685.1
916.0;766.7;;;;;;;;;;;;;;;;;-15.434736;-19.787437;-124.988556;;694.8
916.0;766.7;;;;;;;;;;;;;;1.3891416;0.02948088;-0.5360271;;;;;694.8
916.0;766.7;;;;;;;;;;;;;;;;;-13.672293;-28.992584;-124.988556;;694.8
916.0;766.7;;;;;;;;;;;;;;1.4302804;0.17096469;-0.59346294;;;;;694.8
916.0;766.7;;;;;;;;;;;;;;;;;-9.205146;-33.925137;-124.988556;;704.4
916.0;766.7;;;;;;;;;;;;;;1.4528642;0.29285562;-0.5874203;;;;;704.4
916.0;766.7;;;;;;;;;;;;;;;;;-3.9864802;-37.07999;-124.988556;;704.4
916.0;766.7;;;;;;;;;;;;;;1.4680624;0.4173101;-0.55439925;;;;;704.4
916.0;766.7;;;;;;;;;;;;;;;;;0.22507401;-36.835842;-124.988556;;714.0
916.0;766.7;;;;;;;;;;;;;;1.4735557;0.51728874;-0.50904876;;;;;714.0
916.0;766.7;;;;;;;;;;;;;;;;;4.3298135;-32.68914;-124.988556;;714.0
916.0;766.7;;;;;;;;;;;;;;1.48558;0.60768455;-0.45973083;;;;;714.0
973.0;819.5;;;;;;;;;;;;;;;;;9.201331;-22.659992;-124.988556;;723.7
973.0;819.5;;;;;;;;;;;;;;1.4983978;0.6947844;-0.3704947;;;;;723.7
973.0;819.5;;;;;;;;;;;;;;;;;15.442366;-7.5418863;-124.988556;;723.7
973.0;819.5;;;;;;;;;;;;;;1.5026704;0.7693716;-0.23688467;;;;;723.7
973.0;819.5;;;;;;;;;;;;;;;;;18.43318;8.949553;-124.988556;;733.2
973.0;819.5;;;;;;;;;;;;;;1.4966277;0.8556169;-0.13397625;;;;;733.2
973.0;819.5;;;;;;;;;;;;;;;;;14.01944;30.69399;-124.988556;;733.2
973.0;819.5;;;;;;;;;;;;;;1.4601276;0.845851;-0.06372265;;;;;733.2
973.0;819.5;;;;;;;;;;;;;;;;;6.6759243;38.354137;-124.988556;;742.8
973.0;819.5;;;;;;;;;;;;;;1.2478408;0.7817011;0.12665181;;;;;742.8
973.0;819.5;;;;;;;;;;;;;;;;;-12.1807;27.062288;-124.988556;;742.8
973.0;819.5;;;;;;;;;;;;;;1.1993774;0.80739766;0.0992462;;;;;742.8
973.0;826.9;;;;;;;;;;;;;;;;;-33.29951;20.615253;-124.988556;;752.5
973.0;826.9;;;;;;;;;;;;;;1.1567736;0.78505814;-0.013428144;;;;;752.5
973.0;826.9;;;;;;;;;;;;;;;;;-53.605762;23.953215;-124.988556;;752.5
973.0;826.9;;;;;;;;;;;;;;1.0906705;0.7560045;-0.060304575;;;;;752.5
973.0;826.9;;;;;;;;;;;;;;;;;-68.105865;25.364697;-124.988556;;762.1
973.0;826.9;;;;;;;;;;;;;;0.98605305;0.6803186;-0.11322367;;;;;762.1
973.0;826.9;;;;;;;;;;;;;;;;;-76.78839;26.238289;-124.988556;;762.1
973.0;826.9;;;;;;;;;;;;;;0.9261757;0.6403394;-0.12134159;;;;;762.1
973.0;826.9;;;;;;;;;;;;;;;;;-79.37101;26.459549;-124.988556;;771.7
973.0;826.9;;;;;;;;;;;;;;0.8691061;0.57350385;-0.12237922;;;;;771.7
973.0;826.9;;;;;;;;;;;;;;;;;-78.20749;28.107548;-124.988556;;771.7
973.0;826.9;;;;;;;;;;;;;;0.8130131;0.5305338;-0.06537065;;;;;771.7
1035.0;880.2;;;;;;;;;;;;;;;;;-75.83469;22.7134;-124.988556;;781.2
1035.0;880.2;;;;;;;;;;;;;;0.7495346;0.49147007;-0.05719169;;;;;781.2
1035.0;880.2;;;;;;;;;;;;;;;;;-73.85861;19.882809;-124.97711;;781.2
1035.0;880.2;;;;;;;;;;;;;;0.6405835;0.456679;-0.039796136;;;;;781.2
1035.0;880.2;;;;;;;;;;;;;;;;;-71.74139;15.2096615;-124.40871;;790.9
1035.0;880.2;;;;;;;;;;;;;;0.5854671;0.41444135;-0.02783288;;;;;790.9
1035.0;880.2;;;;;;;;;;;;;;;;;-71.21113;11.272774;-123.039185;;790.9
1035.0;880.2;;;;;;;;;;;;;;0.5497604;0.38398388;-0.016663106;;;;;790.9
1035.0;880.2;;;;;;;;;;;;;;;;;-71.871086;8.178961;-120.81896;;800.5
1035.0;880.2;;;;;;;;;;;;;;0.509415;0.37562183;0.023010956;;;;;800.5
1035.0;880.2;;;;;;;;;;;;;;;;;-74.65591;2.0447402;-116.48534;;800.5
1035.0;880.2;;;;;;;;;;;;;;0.47004607;0.3516953;0.033753473;;;;;800.5
1035.0;881.0;;;;;;;;;;;;;;;;;-80.30564;-3.1434064;-111.13696;;810.1
1035.0;881.0;;;;;;;;;;;;;;0.4377575;0.33204138;0.032288585;;;;;810.1
1035.0;881.0;;;;;;;;;;;;;;;;;-87.21046;-6.5271463;-104.76623;;810.1
1035.0;881.0;;;;;;;;;;;;;;0.4170049;0.30933562;0.020630512;;;;;810.1
1035.0;881.0;;;;;;;;;;;;;;;;;-94.12672;-7.5418863;-99.25382;;819.6
1035.0;881.0;;;;;;;;;;;;;;0.38569292;0.27564317;0.014404736;;;;;819.6
1035.0;881.0;;;;;;;;;;;;;;;;;-99.10886;-7.37022;-95.30549;;819.6
1035.0;881.0;;;;;;;;;;;;;;0.3850215;0.2882168;0.015198218;;;;;819.6
1035.0;881.0;;;;;;;;;;;;;;;;;-101.832634;-7.065035;-89.08734;;829.3
1035.0;881.0;;;;;;;;;;;;;;0.37531662;0.27259132;6.103702E-5;;;;;829.3
1035.0;881.0;;;;;;;;;;;;;;;;;-102.95419;-6.2181463;-82.83868;;829.3
1035.0;881.0;;;;;;;;;;;;;;0.35535753;0.27869502;-0.009399701;;;;;829.3
1095.0;940.1;;;;;;;;;;;;;;;;;-103.03812;-5.649739;-77.314835;;838.9
1095.0;940.1;;;;;;;;;;;;;;0.31647694;0.2707602;-0.04119999;;;;;838.9
1095.0;940.1;;;;;;;;;;;;;;;;;-102.17597;-3.212073;-70.95935;;838.9
1095.0;940.1;;;;;;;;;;;;;;0.27411726;0.26325268;-0.0507828;;;;;838.9
1095.0;940.1;;;;;;;;;;;;;;;;;-100.5356;-4.3221836;-65.72161;;848.5
1095.0;940.1;;;;;;;;;;;;;;0.25568408;0.26746422;-0.096804716;;;;;848.5
1095.0;940.1;;;;;;;;;;;;;;;;;-97.81183;-5.2110357;-59.08002;;848.5
1095.0;940.1;;;;;;;;;;;;;;0.22479934;0.24677266;-0.12158574;;;;;848.5
1095.0;940.1;;;;;;;;;;;;;;;;;-93.272194;-8.205665;-54.63958;;858.0
1095.0;940.1;;;;;;;;;;;;;;0.22400586;0.22821741;-0.14465773;;;;;858.0
1095.0;940.1;;;;;;;;;;;;;;;;;-86.84805;-11.120181;-49.558243;;858.0
1095.0;940.1;;;;;;;;;;;;;;0.24256112;0.2628254;-0.16821803;;;;;858.0
1095.0;940.9;;;;;;;;;;;;;;;;;-81.70568;-9.346293;-41.959137;;867.7
1095.0;940.9;;;;;;;;;;;;;;0.23163548;0.22577593;-0.15356915;;;;;867.7
1095.0;940.9;;;;;;;;;;;;;;;;;-78.39823;-8.594775;-34.611805;;867.7
1095.0;940.9;;;;;;;;;;;;;;0.2245552;0.16968292;-0.16138189;;;;;867.7
1095.0;940.9;;;;;;;;;;;;;;;;;-74.79705;-6.8361464;-27.520065;;877.3
1095.0;940.9;;;;;;;;;;;;;;0.20508438;0.117069006;-0.15204321;;;;;877.3
1095.0;940.9;;;;;;;;;;;;;;;;;-71.55446;-6.069369;-21.160772;;877.3
1095.0;940.9;;;;;;;;;;;;;;0.21350749;0.099612415;-0.12573627;;;;;877.3
1095.0;940.9;;;;;;;;;;;;;;;;;-70.16968;-3.4295175;-14.362774;;886.9
1095.0;940.9;;;;;;;;;;;;;;0.18213446;0.105288856;-0.12024293;;;;;886.9
1095.0;940.9;;;;;;;;;;;;;;;;;-72.76757;0.17929624;-8.59859;;886.9
1095.0;940.9;;;;;;;;;;;;;;0.15698722;0.124332406;-0.06982635;;;;;886.9
1157.0;1000.4;;;;;;;;;;;;;;;;;-75.32732;-0.13733329;-2.0828884;;896.5
1157.0;1000.4;;;;;;;;;;;;;;0.12939848;0.1312296;-0.051332135;;;;;896.5
1157.0;1000.4;;;;;;;;;;;;;;;;;-77.68487;1.5221107;4.0246286;;896.5
1157.0;1000.4;;;;;;;;;;;;;;0.118655965;0.16229743;-0.01147496;;;;;896.5
1157.0;1000.4;;;;;;;;;;;;;;;;;-78.43256;1.8272958;10.75396;;906.0
1157.0;1000.4;;;;;;;;;;;;;;0.128605;0.20575579;0.01965392;;;;;906.0
1157.0;1000.4;;;;;;;;;;;;;;;;;-76.979126;2.1362956;15.858181;;906.0
1157.0;1000.4;;;;;;;;;;;;;;0.15112767;0.27729118;0.05780206;;;;;906.0
1157.0;1000.4;;;;;;;;;;;;;;;;;-74.56053;1.2131108;20.550402;;915.6
1157.0;1000.4;;;;;;;;;;;;;;0.18396558;0.33326212;0.07538072;;;;;915.6
1157.0;1000.4;;;;;;;;;;;;;;;;;-72.24876;0.93844414;24.605549;;915.6
1157.0;1000.4;;;;;;;;;;;;;;0.2019715;0.41804254;0.10376293;;;;;915.6
1157.0;1001.7;;;;;;;;;;;;;;;;;-71.07379;-0.48829615;28.248695;;925.2
1157.0;1001.7;;;;;;;;;;;;;;0.22949919;0.5080111;0.10669271;;;;;925.2
1157.0;1001.7;;;;;;;;;;;;;;;;;-69.6089;-0.7820368;32.227547;;925.2
1157.0;1001.7;;;;;;;;;;;;;;0.2451857;0.54713583;0.09820856;;;;;925.2
1157.0;1001.7;;;;;;;;;;;;;;;;;-66.67913;-1.8997772;35.676136;;934.8
1157.0;1001.7;;;;;;;;;;;;;;0.27985474;0.6178167;0.07879879;;;;;934.8
1157.0;1001.7;;;;;;;;;;;;;;;;;-62.45613;-3.3494065;38.865322;;934.8
1157.0;1001.7;;;;;;;;;;;;;;0.31934568;0.66353345;0.056154057;;;;;934.8
1157.0;1001.7;;;;;;;;;;;;;;;;;-57.176426;-5.0126653;41.436504;;944.5
1157.0;1001.7;;;;;;;;;;;;;;0.35755485;0.72402114;0.027466659;;;;;944.5
1157.0;1001.7;;;;;;;;;;;;;;;;;-52.076023;-8.064516;43.68725;;944.5
1157.0;1001.7;;;;;;;;;;;;;;0.38868374;0.7410504;-0.028321177;;;;;944.5
1215.0;1061.6;;;;;;;;;;;;;;;;;-46.288948;-13.5197;45.728172;;954.1
1215.0;1061.6;;;;;;;;;;;;;;0.4349498;0.7500229;-0.09533983;;;;;954.1
1215.0;1061.6;;;;;;;;;;;;;;;;;-38.384655;-19.337292;47.139652;;954.1
1215.0;1061.6;;;;;;;;;;;;;;0.47895747;0.75319684;-0.14276558;;;;;954.1
1215.0;1061.6;;;;;;;;;;;;;;;;;-28.90103;-24.430067;48.17347;;963.7
1215.0;1061.6;;;;;;;;;;;;;;0.5289468;0.7292703;-0.16315195;;;;;963.7
1215.0;1061.6;;;;;;;;;;;;;;;;;-19.020662;-27.867214;49.05469;;963.7
1215.0;1061.6;;;;;;;;;;;;;;0.55818355;0.6839198;-0.15466781;;;;;963.7
1215.0;1061.6;;;;;;;;;;;;;;;;;-10.376293;-30.407879;50.000763;;973.4
1215.0;1061.6;;;;;;;;;;;;;;0.5686819;0.651326;-0.12060915;;;;;973.4
1215.0;1061.6;;;;;;;;;;;;;;;;;-5.348369;-32.368694;52.007355;;973.4
1215.0;1061.6;;;;;;;;;;;;;;0.5611133;0.59797966;-0.06750695;;;;;973.4
1215.0;1062.4;;;;;;;;;;;;;;;;;-6.248665;-35.905025;56.257057;;983.0
1215.0;1062.4;;;;;;;;;;;;;;0.52833647;0.52394176;-0.042054508;;;;;983.0
1215.0;1062.4;;;;;;;;;;;;;;;;;-11.814478;-44.04584;62.41035;;983.0
1215.0;1062.4;;;;;;;;;;;;;;0.49977112;0.42469558;-0.052919097;;;;;983.0
1215.0;1062.4;;;;;;;;;;;;;;;;;-17.460402;-53.61339;68.5522;;992.6
1215.0;1062.4;;;;;;;;;;;;;;0.51710564;0.33515427;-0.0524308;;;;;992.6
1215.0;1062.4;;;;;;;;;;;;;;;;;-18.642994;-55.57039;74.400314;;992.6
1215.0;1062.4;;;;;;;;;;;;;;0.55604726;0.2760094;0.039063692;;;;;992.6
1215.0;1062.4;;;;;;;;;;;;;;;;;-12.9703665;-44.312874;79.218414;;1002.2
1215.0;1062.4;;;;;;;;;;;;;;0.57795954;0.23468734;0.30610064;;;;;1002.2
1215.0;1062.4;;;;;;;;;;;;;;;;;2.4796288;-33.429214;84.79186;;1002.2
1215.0;1062.4;;;;;;;;;;;;;;0.69484544;0.2151555;0.5774102;;;;;1002.2
1217.0;1121.1;;;;;;;;;;;;;;;;;34.321877;-46.185947;90.89556;;1011.9
1217.0;1121.1;;;;;;;;;;;;;;1.1025116;0.420423;0.62245554;;;;;1011.9
1217.0;1121.1;;;;;;;;;;;;;;;;;78.94375;-74.54146;86.939606;;1011.9
1217.0;1121.1;;;;;;;;;;;;;;1.4515214;0.76058227;0.39930418;;;;;1011.9
1217.0;1121.1;;;;;;;;;;;;;;;;;117.34367;-102.73293;77.88324;;1021.5
1217.0;1121.1;;;;;;;;;;;;;;1.498703;0.8822291;-0.10278634;;;;;1021.5
1217.0;1121.1;;;;;;;;;;;;;;;;;124.02341;-116.17252;71.970276;;1021.5
1217.0;1121.1;;;;;;;;;;;;;;1.4505447;1.0610676;-0.5097812;;;;;1021.5
1217.0;1121.1;;;;;;;;;;;;;;;;;107.50908;-124.988556;63.0932;;1031.2
1217.0;1121.1;;;;;;;;;;;;;;1.8761559;1.144322;-0.95999026;;;;;1031.2
1217.0;1121.1;;;;;;;;;;;;;;;;;78.34101;-124.988556;61.97165;;1031.2
1217.0;1121.1;;;;;;;;;;;;;;1.996704;1.0990936;-1.0463576;;;;;1031.2
1218.0;1122.3;;;;;;;;;;;;;;;;;48.61217;-124.988556;62.85668;;1040.8
1218.0;1122.3;;;;;;;;;;;;;;1.996704;1.0243843;-1.0240791;;;;;1040.8
1218.0;1122.3;;;;;;;;;;;;;;;;;13.367107;-121.66585;54.242836;;1040.8
1218.0;1122.3;;;;;;;;;;;;;;1.9675894;0.8247932;-0.99185157;;;;;1040.8
1218.0;1122.3;;;;;;;;;;;;;;;;;-18.089846;-69.948425;41.886654;;1050.4
1218.0;1122.3;;;;;;;;;;;;;;1.4479202;0.69093907;-0.22333445;;;;;1050.4
1218.0;1122.3;;;;;;;;;;;;;;;;;-34.51262;-57.214577;36.66036;;1050.4
1218.0;1122.3;;;;;;;;;;;;;;1.6185186;0.7199927;-0.13592944;;;;;1050.4
1218.0;1122.3;;;;;;;;;;;;;;;;;-34.558395;-30.896175;33.61614;;1060.1
1218.0;1122.3;;;;;;;;;;;;;;1.6924344;0.7599719;-0.4104129;;;;;1060.1
1218.0;1122.3;;;;;;;;;;;;;;;;;-31.987213;46.71621;31.971954;;1060.1
1218.0;1122.3;;;;;;;;;;;;;;1.1432844;0.59547716;-0.18286692;;;;;1060.1
1218.0;1128.0;;;;0.0;0.0;0.0;;;;;;;;;;;;;;;
1218.0;1128.0;;;;0.04132462;-0.17742158;0.09448625;;;;;;;;;;;;;;;
1218.0;1128.0;;;;0.30241016;-0.905552;0.370739;;;;;;;;;;;;;;;
1218.0;1128.0;;;;0.3397179;-1.0154382;0.39640433;;;;;;;;;;;;;;;
1218.0;1128.0;;;;0.32517627;-1.013115;0.38706213;;;;;;;;;;;;;;;
1218.0;1138.0;;;;0.31168368;-1.0114213;0.37725073;;;;;;;;;;;;;;;
1218.0;1138.0;;;;0.29911044;-1.0107881;0.3659859;;;;;;;;;;;;;;;
1218.0;1138.0;;;;0.28639606;-1.010029;0.35457614;;;;;;;;;;;;;;;
1218.0;1138.0;;;;0.27560428;-1.0102311;0.34238818;;;;;;;;;;;;;;;
1218.0;1138.0;;;;0.26586917;-1.010872;0.3298302;;;;;;;;;;;;;;;
1335.0;1139.3;57506;57396;14295;;;;;;;;;;;;;;;;;;
1335.0;1148.0;;;;0.25775912;-1.0128518;0.31657794;;;;;;;;;;;;;;;
1335.0;1148.0;;;;0.24979022;-1.0157892;0.30367664;;;;;;;;;;;;;;;
1335.0;1148.0;;;;0.24264148;-1.0195199;0.29086307;;;;;;;;;;;;;;;
1335.0;1148.0;;;;0.23686984;-1.0249826;0.2786713;;;;;;;;;;;;;;;
1335.0;1148.0;;;;0.23142627;-1.031006;0.26705936;;;;;;;;;;;;;;;
1335.0;1157.9;;;;0.22793964;-1.0382806;0.2558556;;;;;;;;;;;;;;;
1335.0;1157.9;;;;0.22534946;-1.0476228;0.24608234;;;;;;;;;;;;;;;
1335.0;1157.9;;;;0.22335437;-1.0580636;0.23698428;;;;;;;;;;;;;;;
1335.0;1157.9;;;;0.22277835;-1.06979;0.22919086;;;;;;;;;;;;;;;
1335.0;1157.9;;;;0.22230533;-1.0843316;0.22225192;;;;;;;;;;;;;;;
1335.0;1159.2;73839;73811;14276;;;;;;;;;;;;;;;;;;
1335.0;1165.6;;;;;;;;;;;;;0;;;;;;;;
1335.0;1165.6;;;;;;;;;;;;;0;;;;;;;;
1335.0;1165.6;;;;;;;;;;;;;-1;;;;;;;;
1335.0;1165.6;;;;;;;;;;;;;-2;;;;;;;;
1335.0;1165.6;;;;;;;;;;;;;-3;;;;;;;;
1335.0;1168.0;;;;0.22140506;-1.1002923;0.2158623;;;;;;;;;;;;;;;
1335.0;1168.0;;;;0.22215655;-1.1174623;0.21169665;;;;;;;;;;;;;;;
1335.0;1168.0;;;;0.22324374;-1.1363107;0.20918277;;;;;;;;;;;;;;;
1335.0;1168.0;;;;0.22561648;-1.1574365;0.20586017;;;;;;;;;;;;;;;
1335.0;1168.0;;;;0.2285271;-1.1816255;0.20048907;;;;;;;;;;;;;;;
1337.0;1178.1;;;;0.23051837;-1.208397;0.19570163;;;;;;;;;;;;;;;
1337.0;1178.1;;;;0.23175815;-1.2362596;0.19065478;;;;;;;;;;;;;;;
1337.0;1178.1;;;;0.2330437;-1.2651254;0.18714525;;;;;;;;;;;;;;;
1337.0;1178.1;;;;0.23503497;-1.29451;0.18486406;;;;;;;;;;;;;;;
1337.0;1178.1;;;;0.23770145;-1.3259507;0.18128969;;;;;;;;;;;;;;;
1337.0;1179.5;90253;90236;14267;;;;;;;;;;;;;;;;;;
1337.0;1181.2;;;;;;;;;;;;;;;;;-34.62325;78.711044;34.7911;;1069.7
1337.0;1181.2;;;;;;;;;;;;;;0.6860561;0.43885615;-0.056825466;;;;;1069.7
1337.0;1181.2;;;;;;;;;;;;;;;;;-40.169987;70.4825;39.510025;;1069.7
1337.0;1181.2;;;;;;;;;;;;;;0.37244788;0.2644734;-0.03357036;;;;;1069.7
1337.0;1181.2;;;;;;;;;;;;;;;;;-37.259285;46.03717;44.331947;;1079.3
1337.0;1181.2;;;;;;;;;;;;;;0.146733;0.096377455;0.040833768;;;;;1079.3
1337.0;1181.2;;;;;;;;;;;;;;;;;-29.122288;13.550219;49.710835;;1079.3
1337.0;1181.2;;;;;;;;;;;;;;0.0024414808;-0.013000885;0.16876736;;;;;1079.3
1337.0;1181.2;;;;;;;;;;;;;;;;;-22.328104;-21.954254;59.518726;;1088.8
1337.0;1181.2;;;;;;;;;;;;;;-0.08117924;-0.06964324;0.2517777;;;;;1088.8
1337.0;1181.2;;;;;;;;;;;;;;;;;-14.709922;-61.067535;72.07327;;1088.8
1337.0;1181.2;;;;;;;;;;;;;;-0.078981906;-0.09686575;0.20990631;;;;;1088.8
1338.0;1182.0;;;;;;;;;;;;;;;;;-3.0442214;-92.23838;82.789085;;1098.5
1338.0;1182.0;;;;;;;;;;;;;;0.020996734;-0.09411909;0.1060213;;;;;1098.5
1338.0;1182.0;;;;;;;;;;;;;;;;;8.968627;-107.3336;89.548935;;1098.5
1338.0;1182.0;;;;;;;;;;;;;;0.17816706;-0.062196724;-0.014343699;;;;;1098.5
1338.0;1182.0;;;;;;;;;;;;;;;;;22.473066;-112.128815;95.93494;;1108.2
1338.0;1182.0;;;;;;;;;;;;;;0.3103122;-0.036805324;-0.14038515;;;;;1108.2
1338.0;1182.0;;;;;;;;;;;;;;;;;35.042877;-115.76815;101.0773;;1108.2
1338.0;1182.0;;;;;;;;;;;;;;0.44636372;-0.0012817774;-0.34089175;;;;;1108.2
1338.0;1182.0;;;;;;;;;;;;;;;;;42.80221;-112.25471;103.05719;;1117.8
1338.0;1182.0;;;;;;;;;;;;;;0.5884579;0.04113895;-0.5137486;;;;;1117.8
1338.0;1182.0;;;;;;;;;;;;;;;;;43.652916;-93.61171;100.188446;;1117.8
1338.0;1182.0;;;;;;;;;;;;;;0.71034884;0.10345775;-0.5451216;;;;;1117.8
1338.0;1187.9;;;;0.23957446;-1.3587381;0.17836763;;;;;;;;;;;;;;;
1338.0;1187.9;;;;0.24269107;-1.3931466;0.17502214;;;;;;;;;;;;;;;
1338.0;1187.9;;;;0.24468997;-1.4289285;0.17383195;;;;;;;;;;;;;;;
1338.0;1187.9;;;;0.24614337;-1.4675637;0.1732216;;;;;;;;;;;;;;;
1338.0;1187.9;;;;0.24619296;-1.5066035;0.17295839;;;;;;;;;;;;;;;
1338.0;1197.8;;;;0.24454501;-1.5483782;0.17263414;;;;;;;;;;;;;;;
1338.0;1197.8;;;;0.24320605;-1.5921404;0.17283632;;;;;;;;;;;;;;;
1338.0;1197.8;;;;0.23851016;-1.6367648;0.17102434;;;;;;;;;;;;;;;
1338.0;1197.8;;;;0.23285297;-1.681782;0.16901018;;;;;;;;;;;;;;;
1338.0;1197.8;;;;0.22544101;-1.7268641;0.16492082;;;;;;;;;;;;;;;
1338.0;1199.3;106654;106701;14267;;;;;;;;;;;;;;;;;;
1339.0;1205.6;;;;;;;;;;;;;-6;;;;;;;;
1339.0;1205.6;;;;;;;;;;;;;-6;;;;;;;;
1339.0;1205.6;;;;;;;;;;;;;-10;;;;;;;;
1339.0;1205.6;;;;;;;;;;;;;-13;;;;;;;;
1339.0;1205.6;;;;;;;;;;;;;-11;;;;;;;;
1339.0;1207.9;;;;0.21628574;-1.7711794;0.1585808;;;;;;;;;;;;;;;
1339.0;1207.9;;;;0.20692065;-1.8145411;0.15306474;;;;;;;;;;;;;;;
1339.0;1207.9;;;;0.19672778;-1.8547213;0.1464348;;;;;;;;;;;;;;;
1339.0;1207.9;;;;0.1863022;-1.8920329;0.13806154;;;;;;;;;;;;;;;
1339.0;1207.9;;;;0.176075;-1.9254115;0.13036348;;;;;;;;;;;;;;;
1339.0;1218.0;;;;0.16393282;-1.9539721;0.12178041;;;;;;;;;;;;;;;
1339.0;1218.0;;;;0.15309145;-1.9779742;0.11223604;;;;;;;;;;;;;;;
1339.0;1218.0;;;;0.14225008;-1.9967692;0.10306169;;;;;;;;;;;;;;;
1339.0;1218.0;;;;0.13121034;-2.0000002;0.092643745;;;;;;;;;;;;;;;
1339.0;1218.0;;;;0.12117769;-2.0000002;0.083644874;;;;;;;;;;;;;;;
1339.0;1219.5;122982;123062;14262;;;;;;;;;;;;;;;;;;
1339.0;1228.1;;;;0.11068727;-2.0000002;0.074882515;;;;;;;;;;;;;;;
1339.0;1228.1;;;;0.101432815;-2.0000002;0.06611634;;;;;;;;;;;;;;;
1339.0;1228.1;;;;0.09135438;-2.0000002;0.056659706;;;;;;;;;;;;;;;
1339.0;1228.1;;;;0.08210374;-2.0000002;0.047065742;;;;;;;;;;;;;;;
1339.0;1228.1;;;;0.07326127;-2.0000002;0.038249973;;;;;;;;;;;;;;;
1341.0;1238.2;;;;0.066288;-2.0000002;0.030323032;;;;;;;;;;;;;;;
1341.0;1238.2;;;;0.058155067;-2.0000002;0.021171572;;;;;;;;;;;;;;;
1341.0;1238.2;;;;0.04985047;-2.0000002;0.010257722;;;;;;;;;;;;;;;
1341.0;1238.2;;;;0.043212894;-2.0000002;0.003170014;;;;;;;;;;;;;;;
1341.0;1238.2;;;;0.036830906;-1.995476;-0.0046386723;;;;;;;;;;;;;;;
1341.0;1239.8;139342;139399;14281;;;;;;;;;;;;;;;;;;
1341.0;1241.4;;;;;;;;;;;;;;;;;41.627247;-75.80798;95.507675;;1127.4
1341.0;1241.4;;;;;;;;;;;;;;0.8669698;0.14270455;-0.4974517;;;;;1127.4
1341.0;1241.4;;;;;;;;;;;;;;;;;39.700764;-70.38331;92.86782;;1127.4
1341.0;1241.4;;;;;;;;;;;;;;1.0356761;0.12091433;-0.54072696;;;;;1127.4
1341.0;1241.4;;;;;;;;;;;;;;;;;39.95254;-72.22205;87.26005;;1137.1
1341.0;1241.4;;;;;;;;;;;;;;1.1944945;0.11407819;-0.60426646;;;;;1137.1
1341.0;1241.4;;;;;;;;;;;;;;;;;44.11832;-79.538864;78.70723;;1137.1
1341.0;1241.4;;;;;;;;;;;;;;1.3937193;0.15936765;-0.6773278;;;;;1137.1
1341.0;1241.4;;;;;;;;;;;;;;;;;51.98065;-79.40916;69.12442;;1146.6
1341.0;1241.4;;;;;;;;;;;;;;1.6418347;0.19898069;-0.69344157;;;;;1146.6
1341.0;1241.4;;;;;;;;;;;;;;;;;58.507797;-62.562943;57.744835;;1146.6
1341.0;1241.4;;;;;;;;;;;;;;1.8530228;0.2696005;-0.5173498;;;;;1146.6
1342.0;1242.2;;;;;;;;;;;;;;;;;60.972164;-40.70406;46.231728;;1156.1
1342.0;1242.2;;;;;;;;;;;;;;1.9691153;0.3634144;-0.27240822;;;;;1156.1
1342.0;1242.2;;;;;;;;;;;;;;;;;59.694206;-21.324808;37.377544;;1156.1
1342.0;1242.2;;;;;;;;;;;;;;1.9533067;0.4909818;-0.1307413;;;;;1156.1
1342.0;1242.2;;;;;;;;;;;;;;;;;53.85754;-4.650258;32.940918;;1165.7
1342.0;1242.2;;;;;;;;;;;;;;1.8491164;0.5948058;-0.052491836;;;;;1165.7
1342.0;1242.2;;;;;;;;;;;;;;;;;46.1478;9.578998;31.327251;;1165.7
1342.0;1242.2;;;;;;;;;;;;;;1.6873074;0.62446976;-0.0015869625;;;;;1165.7
1342.0;1242.2;;;;;;;;;;;;;;;;;41.24958;18.360699;31.949066;;1175.4
1342.0;1242.2;;;;;;;;;;;;;;1.4853969;0.5823542;0.0020142216;;;;;1175.4
1342.0;1242.2;;;;;;;;;;;;;;;;;41.642506;20.409252;33.051548;;1175.4
1342.0;1242.2;;;;;;;;;;;;;;1.2699972;0.51680046;-0.03418073;;;;;1175.4
1342.0;1245.9;;;;;;;;;;;;;-20;;;;;;;;
1342.0;1245.9;;;;;;;;;;;;;-16;;;;;;;;
1342.0;1245.9;;;;;;;;;;;;;-18;;;;;;;;
1342.0;1245.9;;;;;;;;;;;;;-49;;;;;;;;
1342.0;1245.9;;;;;;;;;;;;;8;;;;;;;;
1342.0;1248.1;;;;0.032688145;-1.9896281;-0.011493684;;;;;;;;;;;;;;;
1342.0;1248.1;;;;0.02915192;-1.9851229;-0.018321993;;;;;;;;;;;;;;;
1342.0;1248.1;;;;0.025306705;-1.9827197;-0.026107792;;;;;;;;;;;;;;;
1342.0;1248.1;;;;0.021972658;-1.980057;-0.0336113;;;;;;;;;;;;;;;
1342.0;1248.1;;;;0.019069673;-1.9747698;-0.03879166;;;;;;;;;;;;;;;
1457.0;1258.0;;;;0.018272402;-1.9690974;-0.045822147;;;;;;;;;;;;;;;
1457.0;1258.0;;;;0.014900209;-1.9620097;-0.05300904;;;;;;;;;;;;;;;
1457.0;1258.0;;;;0.01293564;-1.9543536;-0.057331093;;;;;;;;;;;;;;;
1457.0;1258.0;;;;0.010383607;-1.9448931;-0.06137467;;;;;;;;;;;;;;;
1457.0;1258.0;;;;0.008743287;-1.9350283;-0.065544136;;;;;;;;;;;;;;;
1457.0;1259.6;155821;155848;14282;;;;;;;;;;;;;;;;;;
1457.0;1268.0;;;;0.007850648;-1.9263651;-0.06641007;;;;;;;;;;;;;;;
1457.0;1268.0;;;;0.0062675485;-1.9167979;-0.06804276;;;;;;;;;;;;;;;
1457.0;1268.0;;;;0.003356934;-1.9069712;-0.067810066;;;;;;;;;;;;;;;
1457.0;1268.0;;;;5.5694586E-4;-1.9007876;-0.070106514;;;;;;;;;;;;;;;
1457.0;1268.0;;;;-0.002914429;-1.8951495;-0.07453919;;;;;;;;;;;;;;;
1457.0;1278.0;;;;-0.0057182317;-1.889786;-0.0764618;;;;;;;;;;;;;;;
1457.0;1278.0;;;;-0.009361268;-1.8846552;-0.07706452;;;;;;;;;;;;;;;
1457.0;1278.0;;;;-0.012565615;-1.8797991;-0.077724464;;;;;;;;;;;;;;;
1457.0;1278.0;;;;-0.013240816;-1.8753054;-0.07834626;;;;;;;;;;;;;;;
1457.0;1278.0;;;;-0.013191225;-1.8722575;-0.077976234;;;;;;;;;;;;;;;
1457.0;1279.7;172120;172174;14297;;;;;;;;;;;;;;;;;;
1457.0;1286.0;;;;;;;;;;;;;46;;;;;;;;
1457.0;1286.0;;;;;;;;;;;;;-101;;;;;;;;
1457.0;1286.0;;;;;;;;;;;;;-172;;;;;;;;
1457.0;1286.0;;;;;;;;;;;;;187;;;;;;;;
1457.0;1286.0;;;;;;;;;;;;;917;;;;;;;;
1459.0;1288.1;;;;-0.015598299;-1.8701518;-0.07558442;;;;;;;;;;;;;;;
1459.0;1288.1;;;;-0.019264223;-1.8702662;-0.07341004;;;;;;;;;;;;;;;
1459.0;1288.1;;;;-0.020175936;-1.8713152;-0.07069779;;;;;;;;;;;;;;;
1459.0;1288.1;;;;-0.018955233;-1.873337;-0.06591035;;;;;;;;;;;;;;;
1459.0;1288.1;;;;-0.019012453;-1.876282;-0.06203843;;;;;;;;;;;;;;;
1459.0;1298.2;;;;-0.018550875;-1.8814242;-0.058330543;;;;;;;;;;;;;;;
1459.0;1298.2;;;;-0.018760683;-1.8879206;-0.055019386;;;;;;;;;;;;;;;
1459.0;1298.2;;;;-0.023368837;-1.8940775;-0.05238343;;;;;;;;;;;;;;;
1459.0;1298.2;;;;-0.026802067;-1.8983195;-0.050380714;;;;;;;;;;;;;;;
1459.0;1298.2;;;;-0.033355717;-1.9003184;-0.05010987;;;;;;;;;;;;;;;
1459.0;1299.9;188524;188535;14319;;;;;;;;;;;;;;;;;;
1459.0;1301.5;;;;;;;;;;;;;;;;;44.225136;17.49855;34.245583;;1185.1
1459.0;1301.5;;;;;;;;;;;;;;1.1049532;0.46870327;-0.047975097;;;;;1185.1
1459.0;1301.5;;;;;;;;;;;;;;;;;46.338543;12.516403;36.214027;;1185.1
1459.0;1301.5;;;;;;;;;;;;;;0.9837947;0.41114536;-0.049134802;;;;;1185.1
1459.0;1301.5;;;;;;;;;;;;;;;;;46.491135;7.656331;38.792843;;1194.7
1459.0;1301.5;;;;;;;;;;;;;;0.8862575;0.380871;-0.025513474;;;;;1194.7
1459.0;1301.5;;;;;;;;;;;;;;;;;42.901394;2.3232217;42.981506;;1194.7
1459.0;1301.5;;;;;;;;;;;;;;0.8111209;0.361095;-0.0076906644;;;;;1194.7
1459.0;1301.5;;;;;;;;;;;;;;;;;37.5721;-2.5444808;48.413803;;1204.3
1459.0;1301.5;;;;;;;;;;;;;;0.77193516;0.3490707;0.026795251;;;;;1204.3
1459.0;1301.5;;;;;;;;;;;;;;;;;31.85751;-8.564257;54.235207;;1204.3
1459.0;1301.5;;;;;;;;;;;;;;0.7578356;0.32557145;0.031678215;;;;;1204.3
1461.0;1302.4;;;;;;;;;;;;;;;;;30.755028;-14.126255;60.457165;;1213.9
1461.0;1302.4;;;;;;;;;;;;;;0.7595447;0.28925443;0.012512589;;;;;1213.9
1461.0;1302.4;;;;;;;;;;;;;;;;;35.897396;-20.588549;66.053505;;1213.9
1461.0;1302.4;;;;;;;;;;;;;;0.77517015;0.27008882;-0.042847987;;;;;1213.9
1461.0;1302.4;;;;;;;;;;;;;;;;;43.759727;-26.573992;71.51631;;1223.6
1461.0;1302.4;;;;;;;;;;;;;;0.8111209;0.26557207;-0.15051728;;;;;1223.6
1461.0;1302.4;;;;;;;;;;;;;;;;;51.33595;-29.278696;77.07069;;1223.6
1461.0;1302.4;;;;;;;;;;;;;;0.8550676;0.26288643;-0.25702688;;;;;1223.6
1461.0;1302.4;;;;;;;;;;;;;;;;;57.000946;-29.217659;81.18305;;1233.1
1461.0;1302.4;;;;;;;;;;;;;;0.901822;0.25519577;-0.3408307;;;;;1233.1
1461.0;1302.4;;;;;;;;;;;;;;;;;60.857723;-28.508102;83.819084;;1233.1
1461.0;1302.4;;;;;;;;;;;;;;0.9488205;0.25830868;-0.39399394;;;;;1233.1
1461.0;1308.1;;;;-0.04277039;-1.8999331;-0.05252839;;;;;;;;;;;;;;;
1461.0;1308.1;;;;-0.051723488;-1.8992312;-0.052940376;;;;;;;;;;;;;;;
1461.0;1308.1;;;;-0.050590523;-1.8993495;-0.050731666;;;;;;;;;;;;;;;
1461.0;1308.1;;;;-0.04567719;-1.8960459;-0.049854286;;;;;;;;;;;;;;;
1461.0;1308.1;;;;-0.042106632;-1.8910525;-0.049480446;;;;;;;;;;;;;;;
1462.0;1316.4;;;;;;;;;;;;;;;;;63.116096;-29.976805;84.696495;;1242.8
1462.0;1316.4;;;;;;;;;;;;;;1.0084536;0.26899013;-0.42976165;;;;;1242.8
1462.0;1316.4;;;;;;;;;;;;;;;;;64.45891;-31.704918;85.31068;;1242.8
1462.0;1316.4;;;;;;;;;;;;;;1.063509;0.27607045;-0.4867702;;;;;1242.8
1462.0;1316.4;;;;;;;;;;;;;;;;;64.8175;-30.354471;86.81372;;1252.4
1462.0;1316.4;;;;;;;;;;;;;;1.1084933;0.27790156;-0.5186316;;;;;1252.4
1462.0;1316.4;;;;;;;;;;;;;;;;;62.81472;-27.657398;87.28294;;1252.4
1462.0;1316.4;;;;;;;;;;;;;;1.1629994;0.29126865;-0.55244607;;;;;1252.4
1462.0;1316.4;;;;;;;;;;;;;;;;;60.377056;-22.59514;87.98486;;1262.0
1462.0;1316.4;;;;;;;;;;;;;;1.2000488;0.3079928;-0.59651476;;;;;1262.0
1462.0;1316.4;;;;;;;;;;;;;;;;;58.252205;-12.88644;89.72823;;1262.0
1462.0;1316.4;;;;;;;;;;;;;;1.2200079;0.31299785;-0.6193426;;;;;1262.0
1462.0;1317.9;;;;-0.033412937;-1.8842432;-0.048690803;;;;;;;;;;;;;;;
1462.0;1317.9;;;;-0.02454758;-1.8746989;-0.046192173;;;;;;;;;;;;;;;
1462.0;1317.9;;;;-0.01855469;-1.8635218;-0.043407444;;;;;;;;;;;;;;;
1462.0;1317.9;;;;-0.013515474;-1.8512957;-0.041412357;;;;;;;;;;;;;;;
1462.0;1317.9;;;;-0.0065422067;-1.8385966;-0.040847782;;;;;;;;;;;;;;;
1462.0;1319.6;204881;204877;14311;;;;;;;;;;;;;;;;;;
1462.0;1325.9;;;;;;;;;;;;;1479;;;;;;;;
1462.0;1325.9;;;;;;;;;;;;;1509;;;;;;;;
1462.0;1325.9;;;;;;;;;;;;;1184;;;;;;;;
1462.0;1325.9;;;;;;;;;;;;;864;;;;;;;;
1462.0;1325.9;;;;;;;;;;;;;679;;;;;;;;
1463.0;1327.9;;;;-9.4223034E-4;-1.8244898;-0.040275577;;;;;;;;;;;;;;;
1463.0;1327.9;;;;0.006450654;-1.8095438;-0.03925324;;;;;;;;;;;;;;;
1463.0;1327.9;;;;0.016365053;-1.7952082;-0.03918076;;;;;;;;;;;;;;;
1463.0;1327.9;;;;0.02569199;-1.7818606;-0.039794926;;;;;;;;;;;;;;;
1463.0;1327.9;;;;0.035335544;-1.7686732;-0.03600693;;;;;;;;;;;;;;;
1463.0;1337.9;;;;0.045471195;-1.7540858;-0.03141022;;;;;;;;;;;;;;;
1463.0;1337.9;;;;0.055442818;-1.740288;-0.029190067;;;;;;;;;;;;;;;
1463.0;1337.9;;;;0.064163215;-1.725815;-0.025901798;;;;;;;;;;;;;;;
1463.0;1337.9;;;;0.072624214;-1.7113345;-0.024475101;;;;;;;;;;;;;;;
1463.0;1337.9;;;;0.07806397;-1.6955569;-0.023166658;;;;;;;;;;;;;;;
1463.0;1339.8;221342;221267;14318;;;;;;;;;;;;;;;;;;
1463.0;1348.1;;;;0.08383561;-1.6802752;-0.020923616;;;;;;;;;;;;;;;
1463.0;1348.1;;;;0.09013749;-1.6654246;-0.018527986;;;;;;;;;;;;;;;
1463.0;1348.1;;;;0.09553911;-1.6519778;-0.016918184;;;;;;;;;;;;;;;
1463.0;1348.1;;;;0.10226442;-1.6393168;-0.015586855;;;;;;;;;;;;;;;
1463.0;1348.1;;;;0.10689928;-1.6267169;-0.014358522;;;;;;;;;;;;;;;
1463.0;1358.2;;;;0.10966112;-1.6139262;-0.016418459;;;;;;;;;;;;;;;
1463.0;1358.2;;;;0.11196901;-1.601311;-0.019241335;;;;;;;;;;;;;;;
1463.0;1358.2;;;;0.11153413;-1.5874369;-0.02309418;;;;;;;;;;;;;;;
1463.0;1358.2;;;;0.109878555;-1.5728762;-0.028606419;;;;;;;;;;;;;;;
1463.0;1358.2;;;;0.104511276;-1.5570185;-0.03421021;;;;;;;;;;;;;;;
1467.0;1360.1;237695;237664;14322;;;;;;;;;;;;;;;;;;
1467.0;1361.7;;;;;;;;;;;;;;;;;56.52791;-5.1881466;89.499344;;1271.6
1467.0;1361.7;;;;;;;;;;;;;;1.2522966;0.3128147;-0.5835139;;;;;1271.6
1467.0;1361.7;;;;;;;;;;;;;;;;;55.711536;-1.5831476;89.11023;;1271.6
1467.0;1361.7;;;;;;;;;;;;;;1.2554094;0.31598866;-0.5807062;;;;;1271.6
1467.0;1361.7;;;;;;;;;;;;;;;;;54.143654;4.650258;88.93093;;1281.3
1467.0;1361.7;;;;;;;;;;;;;;1.22837;0.308298;-0.54866177;;;;;1281.3
1467.0;1361.7;;;;;;;;;;;;;;;;;51.065094;9.140294;88.83556;;1281.3
1467.0;1361.7;;;;;;;;;;;;;;1.190344;0.29157385;-0.5007477;;;;;1281.3
1467.0;1361.7;;;;;;;;;;;;;;;;;48.154392;11.688589;89.34675;;1290.9
1467.0;1361.7;;;;;;;;;;;;;;1.1509141;0.31153294;-0.46253854;;;;;1290.9
1467.0;1361.7;;;;;;;;;;;;;;;;;43.86273;13.267922;90.8803;;1290.9
1467.0;1361.7;;;;;;;;;;;;;;1.1106906;0.30079043;-0.41376996;;;;;1290.9
1467.0;1366.2;;;;;;;;;;;;;526;;;;;;;;
1467.0;1366.2;;;;;;;;;;;;;441;;;;;;;;
1467.0;1366.2;;;;;;;;;;;;;422;;;;;;;;
1467.0;1366.2;;;;;;;;;;;;;298;;;;;;;;
1467.0;1366.2;;;;;;;;;;;;;49;;;;;;;;
1467.0;1368.1;;;;0.09933473;-1.5414622;-0.038852695;;;;;;;;;;;;;;;
1467.0;1368.1;;;;0.094505325;-1.5263827;-0.043285374;;;;;;;;;;;;;;;
1467.0;1368.1;;;;0.0894394;-1.5104945;-0.04868699;;;;;;;;;;;;;;;
1467.0;1368.1;;;;0.08498765;-1.4967424;-0.054630287;;;;;;;;;;;;;;;
1467.0;1368.1;;;;0.08099366;-1.4822046;-0.06169892;;;;;;;;;;;;;;;
1574.0;1377.1;;;;;;;;;;;;;;;;;40.54384;13.111515;92.692345;;1300.6
1574.0;1377.1;;;;;;;;;;;;;;1.0787072;0.27051607;-0.37128818;;;;;1300.6
1574.0;1377.1;;;;;;;;;;;;;;;;;39.10565;12.520218;95.065155;;1300.6
1574.0;1377.1;;;;;;;;;;;;;;1.0526444;0.2620319;-0.34846035;;;;;1300.6
1574.0;1377.1;;;;;;;;;;;;;;;;;39.162876;12.447737;99.2996;;1310.1
1574.0;1377.1;;;;;;;;;;;;;;1.0286568;0.22113712;-0.3144017;;;;;1310.1
1574.0;1377.1;;;;;;;;;;;;;;;;;40.57054;8.69396;101.05441;;1310.1
1574.0;1377.1;;;;;;;;;;;;;;1.0312204;0.2235786;-0.33588672;;;;;1310.1
1574.0;1377.1;;;;;;;;;;;;;;;;;44.282356;5.962554;104.60219;;1319.8
1574.0;1377.1;;;;;;;;;;;;;;1.0202948;0.15655996;-0.3364971;;;;;1319.8
1574.0;1377.1;;;;;;;;;;;;;;;;;49.68413;1.0719626;106.467636;;1319.8
1574.0;1377.1;;;;;;;;;;;;;;1.0372632;0.14258248;-0.35059664;;;;;1319.8
1574.0;1378.0;;;;0.07863236;-1.4679948;-0.068881996;;;;;;;;;;;;;;;
1574.0;1378.0;;;;0.07602311;-1.4528314;-0.0774994;;;;;;;;;;;;;;;
1574.0;1378.0;;;;0.0706215;-1.4371072;-0.08645249;;;;;;;;;;;;;;;
1574.0;1378.0;;;;0.06475068;-1.4209749;-0.0948372;;;;;;;;;;;;;;;
1574.0;1378.0;;;;0.05746842;-1.4040338;-0.103691116;;;;;;;;;;;;;;;
1574.0;1379.9;254032;254111;14312;;;;;;;;;;;;;;;;;;
1574.0;1388.0;;;;0.04797364;-1.386284;-0.1145363;;;;;;;;;;;;;;;
1574.0;1388.0;;;;0.03589249;-1.3674928;-0.12589265;;;;;;;;;;;;;;;
1574.0;1388.0;;;;0.024086002;-1.3491746;-0.13761903;;;;;;;;;;;;;;;
1574.0;1388.0;;;;0.007156373;-1.3304864;-0.15464021;;;;;;;;;;;;;;;
1574.0;1388.0;;;;-0.012145998;-1.3108865;-0.15982439;;;;;;;;;;;;;;;
1578.0;1397.8;;;;-0.01848984;-1.2911302;-0.16910936;;;;;;;;;;;;;;;
1578.0;1397.8;;;;-0.023719791;-1.2728616;-0.18398286;;;;;;;;;;;;;;;
1578.0;1397.8;;;;-0.029056553;-1.2570878;-0.19026187;;;;;;;;;;;;;;;
1578.0;1397.8;;;;-0.044742588;-1.2417642;-0.20077518;;;;;;;;;;;;;;;
1578.0;1397.8;;;;-0.054977424;-1.2296258;-0.20993045;;;;;;;;;;;;;;;
1578.0;1399.8;262143;262143;14312;;;;;;;;;;;;;;;;;;
1578.0;1406.0;;;;;;;;;;;;;-240;;;;;;;;
1578.0;1406.0;;;;;;;;;;;;;-491;;;;;;;;
1578.0;1406.0;;;;;;;;;;;;;-745;;;;;;;;
1578.0;1406.0;;;;;;;;;;;;;-1085;;;;;;;;
1578.0;1406.0;;;;;;;;;;;;;-1457;;;;;;;;
1578.0;1407.9;;;;-0.05599595;-1.2153474;-0.21950153;;;;;;;;;;;;;;;
1578.0;1407.9;;;;-0.052913673;-1.1983148;-0.22644809;;;;;;;;;;;;;;;
1578.0;1407.9;;;;-0.053466804;-1.182686;-0.23266605;;;;;;;;;;;;;;;
1578.0;1407.9;;;;-0.06659318;-1.1683885;-0.23359683;;;;;;;;;;;;;;;
1578.0;1407.9;;;;-0.07617951;-1.156849;-0.23320773;;;;;;;;;;;;;;;
1578.0;1418.0;;;;-0.076702125;-1.145897;-0.2355347;;;;;;;;;;;;;;;
1578.0;1418.0;;;;-0.08008958;-1.1341974;-0.23863986;;;;;;;;;;;;;;;
1578.0;1418.0;;;;-0.08172227;-1.1255533;-0.23918918;;;;;;;;;;;;;;;
1578.0;1418.0;;;;-0.07452012;-1.1158105;-0.24100497;;;;;;;;;;;;;;;
1578.0;1418.0;;;;-0.08578492;-1.1049119;-0.24012378;;;;;;;;;;;;;;;
1578.0;1420.1;262143;262143;14320;;;;;;;;;;;;;;;;;;
1579.0;1421.7;;;;;;;;;;;;;;;;;53.876614;-3.7919247;108.840454;;1329.3
1579.0;1421.7;;;;;;;;;;;;;;1.0660726;0.1495407;-0.3797113;;;;;1329.3
1579.0;1421.7;;;;;;;;;;;;;;;;;56.550797;-4.688406;110.63722;;1329.3
1579.0;1421.7;;;;;;;;;;;;;;1.1005585;0.14661092;-0.38239694;;;;;1329.3
1579.0;1421.7;;;;;;;;;;;;;;;;;59.034245;-3.1662953;112.59041;;1338.9
1579.0;1421.7;;;;;;;;;;;;;;1.1271707;0.16180913;-0.3642079;;;;;1338.9
1579.0;1421.7;;;;;;;;;;;;;;;;;61.288795;-2.5330362;113.98282;;1338.9
1579.0;1421.7;;;;;;;;;;;;;;1.1421857;0.20081179;-0.36768702;;;;;1338.9
1579.0;1421.7;;;;;;;;;;;;;;;;;65.95813;-5.7184057;116.500595;;1348.4
1579.0;1421.7;;;;;;;;;;;;;;1.1636097;0.237434;-0.39704582;;;;;1348.4
1579.0;1421.7;;;;;;;;;;;;;;;;;70.15823;-11.268959;118.13334;;1348.4
1579.0;1421.7;;;;;;;;;;;;;;1.18894;0.2860805;-0.4491104;;;;;1348.4
1579.0;1428.0;;;;-0.09367371;-1.0980531;-0.24110416;;;;;;;;;;;;;;;
1579.0;1428.0;;;;-0.09432985;-1.0933;-0.24497607;;;;;;;;;;;;;;;
1579.0;1428.0;;;;-0.09368897;-1.0869638;-0.24578479;;;;;;;;;;;;;;;
1579.0;1428.0;;;;-0.09194947;-1.0796663;-0.24539188;;;;;;;;;;;;;;;
1579.0;1428.0;;;;-0.09261704;-1.0724679;-0.24451831;;;;;;;;;;;;;;;
1579.0;1438.0;;;;-0.093009956;-1.0641671;-0.24414828;;;;;;;;;;;;;;;
1579.0;1438.0;;;;-0.0898552;-1.0564309;-0.24246982;;;;;;;;;;;;;;;
1579.0;1438.0;;;;-0.09253693;-1.0486795;-0.23699954;;;;;;;;;;;;;;;
1579.0;1438.0;;;;-0.09783937;-1.0416757;-0.23033145;;;;;;;;;;;;;;;
1579.0;1438.0;;;;-0.098678604;-1.0357667;-0.22639087;;;;;;;;;;;;;;;
1579.0;1440.1;262143;262143;14309;;;;;;;;;;;;;;;;;;
1580.0;1446.3;;;;;;;;;;;;;-1831;;;;;;;;
1580.0;1446.3;;;;;;;;;;;;;-2204;;;;;;;;
1580.0;1446.3;;;;;;;;;;;;;-2482;;;;;;;;
1580.0;1446.3;;;;;;;;;;;;;-2599;;;;;;;;
1580.0;1446.3;;;;;;;;;;;;;-2583;;;;;;;;
1580.0;1448.0;;;;-0.09604265;-1.0308381;-0.22244266;;;;;;;;;;;;;;;
1580.0;1448.0;;;;-0.089176185;-1.0250665;-0.21952441;;;;;;;;;;;;;;;
1580.0;1448.0;;;;-0.0917244;-1.0181695;-0.21548846;;;;;;;;;;;;;;;
1580.0;1448.0;;;;-0.09535982;-1.0103227;-0.21240619;;;;;;;;;;;;;;;
1580.0;1448.0;;;;-0.09923555;-1.003544;-0.20901111;;;;;;;;;;;;;;;
1580.0;1458.1;;;;-0.10466005;-0.9970552;-0.20457843;;;;;;;;;;;;;;;
1580.0;1458.1;;;;-0.10490419;-0.98991406;-0.20222095;;;;;;;;;;;;;;;
1580.0;1458.1;;;;-0.10155107;-0.98316586;-0.2006531;;;;;;;;;;;;;;;
1580.0;1458.1;;;;-0.101863876;-0.9754907;-0.19797137;;;;;;;;;;;;;;;
1580.0;1458.1;;;;-0.10253908;-0.966282;-0.19499972;;;;;;;;;;;;;;;
1580.0;1460.2;262143;262143;14302;;;;;;;;;;;;;;;;;;
1580.0;1468.2;;;;-0.102066055;-0.95650876;-0.19265369;;;;;;;;;;;;;;;
1580.0;1468.2;;;;-0.10557939;-0.9462205;-0.18885425;;;;;;;;;;;;;;;
1580.0;1468.2;;;;-0.109619156;-0.9349023;-0.18700792;;;;;;;;;;;;;;;
1580.0;1468.2;;;;-0.11515047;-0.9235574;-0.18667985;;;;;;;;;;;;;;;
1580.0;1468.2;;;;-0.12301637;-0.91178143;-0.18791965;;;;;;;;;;;;;;;
1582.0;1478.3;;;;-0.13219453;-0.89933026;-0.18947604;;;;;;;;;;;;;;;
1582.0;1478.3;;;;-0.14304353;-0.8867227;-0.19114688;;;;;;;;;;;;;;;
1582.0;1478.3;;;;-0.15419771;-0.8736001;-0.19541934;;;;;;;;;;;;;;;
1582.0;1478.3;;;;-0.16721727;-0.8611337;-0.19923404;;;;;;;;;;;;;;;
1582.0;1478.3;;;;-0.17730333;-0.8472787;-0.20342258;;;;;;;;;;;;;;;
1582.0;1480.5;262143;262143;14316;;;;;;;;;;;;;;;;;;
1582.0;1482.0;;;;;;;;;;;;;;;;;72.851494;-15.522477;119.00693;;1358.0
1582.0;1482.0;;;;;;;;;;;;;;1.2193365;0.31781974;-0.51136816;;;;;1358.0
1582.0;1482.0;;;;;;;;;;;;;;;;;75.01831;-15.202032;118.53771;;1358.0
1582.0;1482.0;;;;;;;;;;;;;;1.2539445;0.36634418;-0.51796013;;;;;1358.0
1582.0;1482.0;;;;;;;;;;;;;;;;;70.25361;-10.898923;115.75289;;1367.7
1582.0;1482.0;;;;;;;;;;;;;;1.2892239;0.42542803;-0.4937895;;;;;1367.7
1582.0;1482.0;;;;;;;;;;;;;;;;;60.781425;-2.1858883;113.55556;;1367.7
1582.0;1482.0;;;;;;;;;;;;;;1.2981963;0.4689474;-0.42744225;;;;;1367.7
1582.0;1482.0;;;;;;;;;;;;;;;;;50.057983;6.916257;108.98923;;1377.3
1582.0;1482.0;;;;;;;;;;;;;;1.2653584;0.52455217;-0.36347544;;;;;1377.3
1582.0;1482.0;;;;;;;;;;;;;;;;;39.582504;11.825923;101.62663;;1377.3
1582.0;1482.0;;;;;;;;;;;;;;1.2386242;0.6021302;-0.3272805;;;;;1377.3
1583.0;1482.8;;;;;;;;;;;;;;;;;29.5114;10.662404;94.68368;;1386.8
1583.0;1482.8;;;;;;;;;;;;;;1.2125614;0.6738487;-0.33301798;;;;;1386.8
1583.0;1482.8;;;;;;;;;;;;;;;;;19.928587;9.441664;88.347275;;1386.8
1583.0;1482.8;;;;;;;;;;;;;;1.192053;0.7373272;-0.37739187;;;;;1386.8
1583.0;1482.8;;;;;;;;;;;;;;;;;11.516922;24807;79.68001;;1396.5
1583.0;1482.8;;;;;;;;;;;;;;1.1981567;0.83187354;-0.3723258;;;;;1396.5
1583.0;1482.8;;;;;;;;;;;;;;;;;5.1118503;20.16129;72.45094;;1396.5
1583.0;1482.8;;;;;;;;;;;;;;1.1366924;0.87777334;-0.3457747;;;;;1396.5
1583.0;1482.8;;;;;;;;;;;;;;;;;-0.8735923;32.147434;65.78646;;1406.2
1583.0;1482.8;;;;;;;;;;;;;;1.06357;0.93166906;-0.27014986;;;;;1406.2
1583.0;1482.8;;;;;;;;;;;;;;;;;-8.869442;41.100803;60.602127;;1406.2
1583.0;1482.8;;;;;;;;;;;;;;0.9976501;0.95620596;-0.19739372;;;;;1406.2
1583.0;1486.5;;;;;;;;;;;;;-2476;;;;;;;;
1583.0;1486.5;;;;;;;;;;;;;-2338;;;;;;;;
1583.0;1486.5;;;;;;;;;;;;;-2115;;;;;;;;
1583.0;1486.5;;;;;;;;;;;;;-1744;;;;;;;;
1583.0;1486.5;;;;;;;;;;;;;-1333;;;;;;;;
1583.0;1488.2;;;;-0.19195941;-0.8335191;-0.20708469;;;;;;;;;;;;;;;
1583.0;1488.2;;;;-0.21297076;-0.82006085;-0.2096062;;;;;;;;;;;;;;;
1583.0;1488.2;;;;-0.23428348;-0.80749524;-0.21355441;;;;;;;;;;;;;;;
1583.0;1488.2;;;;-0.23987201;-0.7945863;-0.22042087;;;;;;;;;;;;;;;
1583.0;1488.2;;;;-0.25001147;-0.7810861;-0.22407535;;;;;;;;;;;;;;;
1636.0;1497.5;;;;;;;;;;;;;;;;;-16.956846;46.300392;58.275093;;1415.8
1636.0;1497.5;;;;;;;;;;;;;;0.92696923;0.9560839;-0.16541032;;;;;1415.8
1636.0;1497.5;;;;;;;;;;;;;;;;;-23.110142;51.110874;56.993317;;1415.8
1636.0;1497.5;;;;;;;;;;;;;;0.84145635;0.9292276;-0.119876705;;;;;1415.8
1636.0;1497.5;;;;;;;;;;;;;;;;;-27.504807;50.59587;55.11643;;1425.4
1636.0;1497.5;;;;;;;;;;;;;;0.75936157;0.8928495;-0.08398694;;;;;1425.4
1636.0;1497.5;;;;;;;;;;;;;;;;;-31.762138;47.559284;52.236244;;1425.4
1636.0;1497.5;;;;;;;;;;;;;;0.69057286;0.88119143;-0.06451613;;;;;1425.4
1636.0;1497.5;;;;;;;;;;;;;;;;;-35.889767;43.73684;50.45091;;1435.1
1636.0;1497.5;;;;;;;;;;;;;;0.633137;0.84377575;-0.041322064;;;;;1435.1
1636.0;1497.5;;;;;;;;;;;;;;;;;-39.651173;39.548172;48.490097;;1435.1
1636.0;1497.5;;;;;;;;;;;;;;0.5899838;0.8106937;-0.04364147;;;;;1435.1
1636.0;1498.1;;;;-0.2701073;-0.7670785;-0.22407916;;;;;;;;;;;;;;;
1636.0;1498.1;;;;-0.27684405;-0.75340664;-0.22500613;;;;;;;;;;;;;;;
1636.0;1498.1;;;;-0.27693942;-0.74072653;-0.22394183;;;;;;;;;;;;;;;
1636.0;1498.1;;;;-0.27164844;-0.72769934;-0.2215462;;;;;;;;;;;;;;;
1636.0;1498.1;;;;-0.27419665;-0.71269995;-0.21704486;;;;;;;;;;;;;;;
1636.0;1500.4;262143;262143;14313;;;;;;;;;;;;;;;;;;
1636.0;1508.2;;;;-0.27974704;-0.6969605;-0.21296313;;;;;;;;;;;;;;;
1636.0;1508.2;;;;-0.27707675;-0.681202;-0.2121506;;;;;;;;;;;;;;;
1636.0;1508.2;;;;-0.27048495;-0.6666985;-0.21319583;;;;;;;;;;;;;;;
1636.0;1508.2;;;;-0.26544574;-0.6522065;-0.21531299;;;;;;;;;;;;;;;
1636.0;1508.2;;;;-0.265358;-0.6372948;-0.21838;;;;;;;;;;;;;;;
1637.0;1518.0;;;;-0.26773837;-0.62375647;-0.22089389;;;;;;;;;;;;;;;
1637.0;1518.0;;;;-0.27163318;-0.61147696;-0.22101977;;;;;;;;;;;;;;;
1637.0;1518.0;;;;-0.27652743;-0.6005631;-0.22254565;;;;;;;;;;;;;;;
1637.0;1518.0;;;;-0.28203586;-0.59042746;-0.22222903;;;;;;;;;;;;;;;
1637.0;1518.0;;;;-0.28859714;-0.5806504;-0.22222903;;;;;;;;;;;;;;;
1637.0;1520.3;262143;262143;14308;;;;;;;;;;;;;;;;;;
1637.0;1526.4;;;;;;;;;;;;;-1004;;;;;;;;
1637.0;1526.4;;;;;;;;;;;;;-726;;;;;;;;
1637.0;1526.4;;;;;;;;;;;;;-483;;;;;;;;
1637.0;1526.4;;;;;;;;;;;;;-361;;;;;;;;
1637.0;1526.4;;;;;;;;;;;;;-373;;;;;;;;
1637.0;1528.1;;;;-0.29649356;-0.571415;-0.22187045;;;;;;;;;;;;;;;
1637.0;1528.1;;;;-0.30464557;-0.5631295;-0.22196582;;;;;;;;;;;;;;;
1637.0;1528.1;;;;-0.30850986;-0.55488974;-0.22417453;;;;;;;;;;;;;;;
1637.0;1528.1;;;;-0.30876544;-0.5480996;-0.22553256;;;;;;;;;;;;;;;
1637.0;1528.1;;;;-0.30676654;-0.54193884;-0.22566608;;;;;;;;;;;;;;;
1637.0;1538.2;;;;-0.30233386;-0.535965;-0.2242966;;;;;;;;;;;;;;;
1637.0;1538.2;;;;-0.29654697;-0.52935797;-0.21845248;;;;;;;;;;;;;;;
1637.0;1538.2;;;;-0.29565433;-0.5234719;-0.21114352;;;;;;;;;;;;;;;
1637.0;1538.2;;;;-0.29291156;-0.51809317;-0.20326999;;;;;;;;;;;;;;;
1637.0;1538.2;;;;-0.28947452;-0.51401526;-0.19800952;;;;;;;;;;;;;;;
1637.0;1540.5;262143;262143;14300;;;;;;;;;;;;;;;;;;
1638.0;1542.1;;;;;;;;;;;;;;;;;-43.29051;35.985138;46.09821;;1444.7
1638.0;1542.1;;;;;;;;;;;;;;0.53779715;0.776574;-0.07135227;;;;;1444.7
1638.0;1542.1;;;;;;;;;;;;;;;;;-47.086246;30.228582;42.676323;;1444.7
1638.0;1542.1;;;;;;;;;;;;;;0.4977569;0.75441754;-0.13617359;;;;;1444.7
1638.0;1542.1;;;;;;;;;;;;;;;;;-51.25202;23.976105;37.65221;;1454.2
1638.0;1542.1;;;;;;;;;;;;;;0.44251838;0.7769402;-0.20435195;;;;;1454.2
1638.0;1542.1;;;;;;;;;;;;;;;;;-54.525135;15.663626;31.102177;;1454.2
1638.0;1542.1;;;;;;;;;;;;;;0.37482834;0.8051393;-0.20862453;;;;;1454.2
1638.0;1542.1;;;;;;;;;;;;;;;;;-57.00476;3.68511;24.029512;;1463.9
1638.0;1542.1;;;;;;;;;;;;;;0.30182806;0.7968993;-0.21662039;;;;;1463.9
1638.0;1542.1;;;;;;;;;;;;;;;;;-55.646687;-5.3102207;17.857143;;1463.9
1638.0;1542.1;;;;;;;;;;;;;;0.24646749;0.7450178;-0.17529832;;;;;1463.9
1638.0;1548.2;;;;-0.27988437;-0.510315;-0.19397739;;;;;;;;;;;;;;;
1638.0;1548.2;;;;-0.27453998;-0.50739294;-0.18975833;;;;;;;;;;;;;;;
1638.0;1548.2;;;;-0.2687836;-0.505272;-0.18717577;;;;;;;;;;;;;;;
1638.0;1548.2;;;;-0.26173404;-0.5040055;-0.18589784;;;;;;;;;;;;;;;
1638.0;1548.2;;;;-0.26544192;-0.50321203;-0.18429948;;;;;;;;;;;;;;;
1639.0;1549.6;;;;;;;;;;;;;;;;;-52.198097;-13.454848;10.54796;;1473.5
1639.0;1549.6;;;;;;;;;;;;;;0.26386303;0.6532792;-0.11255226;;;;;1473.5
1639.0;1549.6;;;;;;;;;;;;;;;;;-47.71569;-16.79281;0.9537034;;1473.5
1639.0;1549.6;;;;;;;;;;;;;;0.31727043;0.53724784;-0.02252266;;;;;1473.5
1639.0;1549.6;;;;;;;;;;;;;;;;;-42.741173;-13.973662;-10.887479;;1483.1
1639.0;1549.6;;;;;;;;;;;;;;0.36896878;0.43287453;0.078676715;;;;;1483.1
1639.0;1549.6;;;;;;;;;;;;;;;;;-37.179176;-6.4737387;-23.21314;;1483.1
1639.0;1549.6;;;;;;;;;;;;;;0.42817467;0.35291603;0.18469802;;;;;1483.1
1639.0;1549.6;;;;;;;;;;;;;;;;;-31.62099;4.936369;-36.278877;;1492.8
1639.0;1549.6;;;;;;;;;;;;;;0.48091066;0.31482893;0.27546006;;;;;1492.8
1639.0;1549.6;;;;;;;;;;;;;;;;;-25.681326;16.98355;-50.32502;;1492.8
1639.0;1549.6;;;;;;;;;;;;;;0.49482712;0.31330302;0.33204138;;;;;1492.8
1639.0;1558.0;;;;-0.2711182;-0.5033379;-0.18449403;;;;;;;;;;;;;;;
1639.0;1558.0;;;;-0.27265933;-0.50433356;-0.18531801;;;;;;;;;;;;;;;
1639.0;1558.0;;;;-0.27237704;-0.5066338;-0.1888695;;;;;;;;;;;;;;;
1639.0;1558.0;;;;-0.27273563;-0.5088158;-0.19331744;;;;;;;;;;;;;;;
1639.0;1558.0;;;;-0.27563098;-0.51108176;-0.20105365;;;;;;;;;;;;;;;
1639.0;1560.4;262143;262143;14288;;;;;;;;;;;;;;;;;;
1639.0;1566.6;;;;;;;;;;;;;-394;;;;;;;;
1639.0;1566.6;;;;;;;;;;;;;-286;;;;;;;;
1639.0;1566.6;;;;;;;;;;;;;-71;;;;;;;;
1639.0;1566.6;;;;;;;;;;;;;102;;;;;;;;
1639.0;1566.6;;;;;;;;;;;;;175;;;;;;;;
1695.0;1568.1;;;;-0.27976993;-0.5133477;-0.21158984;;;;;;;;;;;;;;;
1695.0;1568.1;;;;-0.28226092;-0.5148621;-0.21802524;;;;;;;;;;;;;;;
1695.0;1568.1;;;;-0.28303912;-0.5163689;-0.21771243;;;;;;;;;;;;;;;
1695.0;1568.1;;;;-0.28387836;-0.51855093;-0.21402743;;;;;;;;;;;;;;;
1695.0;1568.1;;;;-0.28291324;-0.5202599;-0.20893863;;;;;;;;;;;;;;;
1695.0;1578.1;;;;-0.280201;-0.52053076;-0.20507434;;;;;;;;;;;;;;;
1695.0;1578.1;;;;-0.27458575;-0.5196381;-0.20302585;;;;;;;;;;;;;;;
1695.0;1578.1;;;;-0.26780322;-0.5177117;-0.20202258;;;;;;;;;;;;;;;
1695.0;1578.1;;;;-0.26279452;-0.51598364;-0.2026749;;;;;;;;;;;;;;;
1695.0;1578.1;;;;-0.25854495;-0.5151406;-0.20408633;;;;;;;;;;;;;;;
1695.0;1580.5;262143;262143;14292;;;;;;;;;;;;;;;;;;
1695.0;1588.2;;;;-0.25130084;-0.5150643;-0.20569232;;;;;;;;;;;;;;;
1695.0;1588.2;;;;-0.24349597;-0.5148545;-0.2066727;;;;;;;;;;;;;;;
1695.0;1588.2;;;;-0.23845676;-0.5147248;-0.20551684;;;;;;;;;;;;;;;
1695.0;1588.2;;;;-0.24195483;-0.5165253;-0.20434192;;;;;;;;;;;;;;;
1695.0;1588.2;;;;-0.24409106;-0.5187302;-0.20090869;;;;;;;;;;;;;;;
1695.0;1598.3;;;;-0.24468234;-0.5226937;-0.19827655;;;;;;;;;;;;;;;
1695.0;1598.3;;;;-0.24713138;-0.52872854;-0.1959;;;;;;;;;;;;;;;
1695.0;1598.3;;;;-0.24909213;-0.5365258;-0.19379428;;;;;;;;;;;;;;;
1695.0;1598.3;;;;-0.25122836;-0.547123;-0.19149783;;;;;;;;;;;;;;;
1695.0;1598.3;;;;-0.25389102;-0.5596619;-0.18952945;;;;;;;;;;;;;;;
1696.0;1600.8;262143;262143;14287;;;;;;;;;;;;;;;;;;
1696.0;1602.3;;;;;;;;;;;;;;;;;-20.142216;24.864954;-65.18372;;1502.4
1696.0;1602.3;;;;;;;;;;;;;;0.46852016;0.33320108;0.34833828;;;;;1502.4
1696.0;1602.3;;;;;;;;;;;;;;;;;-15.087587;26.6274;-78.97808;;1502.4
1696.0;1602.3;;;;;;;;;;;;;;0.4394055;0.36689353;0.33088169;;;;;1502.4
1696.0;1602.3;;;;;;;;;;;;;;;;;-10.868404;24.048586;-90.49501;;1512.0
1696.0;1602.3;;;;;;;;;;;;;;0.42231512;0.38019958;0.27246925;;;;;1512.0
1696.0;1602.3;;;;;;;;;;;;;;;;;-5.8290353;20.218512;-100.72253;;1512.0
1696.0;1602.3;;;;;;;;;;;;;;0.427076;0.39350566;0.18012024;;;;;1512.0
1696.0;1602.3;;;;;;;;;;;;;;;;;-0.24796289;18.753624;-109.397415;;1521.7
1696.0;1602.3;;;;;;;;;;;;;;0.4415418;0.39088106;0.061342206;;;;;1521.7
1696.0;1602.3;;;;;;;;;;;;;;;;;3.5744805;19.7264;-116.15345;;1521.7
1696.0;1602.3;;;;;;;;;;;;;;0.46229437;0.37867367;-0.07361065;;;;;1521.7
1696.0;1606.8;;;;;;;;;;;;;213;;;;;;;;
1696.0;1606.8;;;;;;;;;;;;;269;;;;;;;;
1696.0;1606.8;;;;;;;;;;;;;279;;;;;;;;
1696.0;1606.8;;;;;;;;;;;;;182;;;;;;;;
1696.0;1606.8;;;;;;;;;;;;;-72;;;;;;;;
1696.0;1608.3;;;;-0.25559238;-0.5752526;-0.18629076;;;;;;;;;;;;;;;
1696.0;1608.3;;;;-0.25738528;-0.59318167;-0.1813202;;;;;;;;;;;;;;;
1696.0;1608.3;;;;-0.25877765;-0.61233145;-0.17661287;;;;;;;;;;;;;;;
1696.0;1608.3;;;;-0.2596245;-0.6334458;-0.17030336;;;;;;;;;;;;;;;
1696.0;1608.3;;;;-0.2580681;-0.6565133;-0.16427614;;;;;;;;;;;;;;;
1755.0;1609.8;;;;;;;;;;;;;;;;;2.9450362;23.224586;-121.38737;;1531.4
1755.0;1609.8;;;;;;;;;;;;;;0.48335215;0.36707664;-0.20142217;;;;;1531.4
1755.0;1609.8;;;;;;;;;;;;;;;;;-1.4267403;28.75225;-124.488815;;1531.4
1755.0;1609.8;;;;;;;;;;;;;;0.48701438;0.38496047;-0.28675193;;;;;1531.4
1755.0;1609.8;;;;;;;;;;;;;;;;;-7.969146;32.441177;-124.988556;;1541.0
1755.0;1609.8;;;;;;;;;;;;;;0.4878689;0.41688284;-0.2981048;;;;;1541.0
1755.0;1609.8;;;;;;;;;;;;;;;;;-14.908293;30.209509;-124.988556;;1541.0
1755.0;1609.8;;;;;;;;;;;;;;0.52717674;0.44691306;-0.24787134;;;;;1541.0
1755.0;1609.8;;;;;;;;;;;;;;;;;-20.008698;22.3014;-124.988556;;1550.7
1755.0;1609.8;;;;;;;;;;;;;;0.61757255;0.47413558;-0.2038026;;;;;1550.7
1755.0;1609.8;;;;;;;;;;;;;;;;;-22.43492;15.297402;-124.988556;;1550.7
1755.0;1609.8;;;;;;;;;;;;;;0.7003998;0.5164952;-0.1678518;;;;;1550.7
1755.0;1618.1;;;;-0.25608447;-0.679699;-0.15798189;;;;;;;;;;;;;;;
1755.0;1618.1;;;;-0.2521744;-0.70371634;-0.15030672;;;;;;;;;;;;;;;
1755.0;1618.1;;;;-0.24795917;-0.7273446;-0.14336778;;;;;;;;;;;;;;;
1755.0;1618.1;;;;-0.24364474;-0.75115216;-0.13596727;;;;;;;;;;;;;;;
1755.0;1618.1;;;;-0.23897174;-0.77401364;-0.12814333;;;;;;;;;;;;;;;
1755.0;1620.7;262143;262143;14282;;;;;;;;;;;;;;;;;;
1755.0;1628.2;;;;-0.2325745;-0.7978822;-0.1195984;;;;;;;;;;;;;;;
1755.0;1628.2;;;;-0.2249451;-0.8211366;-0.11089708;;;;;;;;;;;;;;;
1755.0;1628.2;;;;-0.21806338;-0.84321225;-0.10198595;;;;;;;;;;;;;;;
1755.0;1628.2;;;;-0.20952609;-0.8663331;-0.09252549;;;;;;;;;;;;;;;
1755.0;1628.2;;;;-0.19900897;-0.88837063;-0.08261109;;;;;;;;;;;;;;;
1758.0;1638.1;;;;-0.18947604;-0.90954983;-0.07298661;;;;;;;;;;;;;;;
1758.0;1638.1;;;;-0.17762376;-0.93073666;-0.06222535;;;;;;;;;;;;;;;
1758.0;1638.1;;;;-0.1676407;-0.9505044;-0.05120469;;;;;;;;;;;;;;;
1758.0;1638.1;;;;-0.15470506;-0.97156155;-0.04075623;;;;;;;;;;;;;;;
1758.0;1638.1;;;;-0.14130403;-0.9916879;-0.031269077;;;;;;;;;;;;;;;
1758.0;1640.7;262143;262143;14288;;;;;;;;;;;;;;;;;;
1758.0;1646.9;;;;;;;;;;;;;-362;;;;;;;;
1758.0;1646.9;;;;;;;;;;;;;-520;;;;;;;;
1758.0;1646.9;;;;;;;;;;;;;-444;;;;;;;;
1758.0;1646.9;;;;;;;;;;;;;-214;;;;;;;;
1758.0;1646.9;;;;;;;;;;;;;-102;;;;;;;;
1758.0;1648.2;;;;-0.12888338;-1.0109903;-0.02295685;;;;;;;;;;;;;;;
1758.0;1648.2;;;;-0.11714174;-1.0303193;-0.012565615;;;;;;;;;;;;;;;
1758.0;1648.2;;;;-0.10625459;-1.049183;7.553102E-4;;;;;;;;;;;;;;;
1758.0;1648.2;;;;-0.09476854;-1.0665399;0.00870514;;;;;;;;;;;;;;;
1758.0;1648.2;;;;-0.084003456;-1.0825273;0.016994478;;;;;;;;;;;;;;;
1758.0;1658.4;;;;-0.073860176;-1.09581;0.024364475;;;;;;;;;;;;;;;
1758.0;1658.4;;;;-0.06504441;-1.1087648;0.032508854;;;;;;;;;;;;;;;
1758.0;1658.4;;;;-0.056877144;-1.1217996;0.04003525;;;;;;;;;;;;;;;
1758.0;1658.4;;;;-0.04686356;-1.1336938;0.04678345;;;;;;;;;;;;;;;
1758.0;1658.4;;;;-0.036746982;-1.1450921;0.053314216;;;;;;;;;;;;;;;
1758.0;1661.0;262143;262143;14285;;;;;;;;;;;;;;;;;;
1762.0;1662.9;;;;;;;;;;;;;;;;;-23.918882;10.219886;-124.988556;;1560.3
1762.0;1662.9;;;;;;;;;;;;;;0.760094;0.57350385;-0.122196116;;;;;1560.3
1762.0;1662.9;;;;;;;;;;;;;;;;;-27.40562;0.82018495;-124.988556;;1560.3
1762.0;1662.9;;;;;;;;;;;;;;0.85598314;0.61091954;-0.0778222;;;;;1560.3
1762.0;1662.9;;;;;;;;;;;;;;;;;-35.546432;-12.009034;-124.988556;;1569.9
1762.0;1662.9;;;;;;;;;;;;;;1.0025331;0.6532792;-0.06537065;;;;;1569.9
1762.0;1662.9;;;;;;;;;;;;;;;;;-49.61165;-23.464918;-124.988556;;1569.9
1762.0;1662.9;;;;;;;;;;;;;;1.1719718;0.6699423;-0.097598195;;;;;1569.9
1762.0;1662.9;;;;;;;;;;;;;;;;;-66.30528;-30.800806;-124.988556;;1579.4
1762.0;1662.9;;;;;;;;;;;;;;1.4204535;0.67989135;-0.14874722;;;;;1579.4
1762.0;1662.9;;;;;;;;;;;;;;;;;-80.17975;-34.882656;-124.988556;;1579.4
1762.0;1662.9;;;;;;;;;;;;;;1.6961577;0.63112277;-0.2141789;;;;;1579.4
1762.0;1668.3;;;;-0.025745396;-1.1567842;0.061595924;;;;;;;;;;;;;;;
1762.0;1668.3;;;;-0.014724733;-1.1689416;0.06868745;;;;;;;;;;;;;;;
1762.0;1668.3;;;;-0.0060272226;-1.1815301;0.07835389;;;;;;;;;;;;;;;
1762.0;1668.3;;;;0.0041008;-1.1932184;0.08744813;;;;;;;;;;;;;;;
1762.0;1668.3;;;;0.0128822345;-1.2043535;0.09855272;;;;;;;;;;;;;;;
1763.0;1670.0;;;;;;;;;;;;;;;;;-89.69008;-33.562733;-124.988556;;1589.0
1763.0;1670.0;;;;;;;;;;;;;;1.9277933;0.5319376;-0.30420852;;;;;1589.0
1763.0;1670.0;;;;;;;;;;;;;;;;;-97.7546;-26.299326;-124.988556;;1589.0
1763.0;1670.0;;;;;;;;;;;;;;1.99176;0.40003663;-0.3620716;;;;;1589.0
1763.0;1670.0;;;;;;;;;;;;;;;;;-103.59889;-17.26966;-124.988556;;1598.6
1763.0;1670.0;;;;;;;;;;;;;;1.9874874;0.26075014;-0.41608936;;;;;1598.6
1763.0;1670.0;;;;;;;;;;;;;;;;;-98.66253;-7.042146;-124.988556;;1598.6
1763.0;1670.0;;;;;;;;;;;;;;1.9746697;0.20191047;-0.40418714;;;;;1598.6
1763.0;1670.0;;;;;;;;;;;;;;;;;-84.66979;-10.54796;-124.988556;;1608.2
1763.0;1670.0;;;;;;;;;;;;;;1.996704;0.12738426;-0.48396254;;;;;1608.2
1763.0;1670.0;;;;;;;;;;;;;;;;;-67.63665;-11.715293;-124.988556;;1608.2
1763.0;1670.0;;;;;;;;;;;;;;1.9774773;0.020813623;-0.5870541;;;;;1608.2
1763.0;1678.2;;;;0.021858217;-1.2153589;0.10625841;;;;;;;;;;;;;;;
1763.0;1678.2;;;;0.030292515;-1.2271577;0.111827865;;;;;;;;;;;;;;;
1763.0;1678.2;;;;0.037380222;-1.2364198;0.120761886;;;;;;;;;;;;;;;
1763.0;1678.2;;;;0.043678287;-1.2452089;0.12823488;;;;;;;;;;;;;;;
1763.0;1678.2;;;;0.05010224;-1.2527353;0.13751985;;;;;;;;;;;;;;;
1763.0;1680.9;262143;262143;14287;;;;;;;;;;;;;;;;;;
1763.0;1687.0;;;;;;;;;;;;;-163;;;;;;;;
1763.0;1687.0;;;;;;;;;;;;;-213;;;;;;;;
1763.0;1687.0;;;;;;;;;;;;;-103;;;;;;;;
1763.0;1687.0;;;;;;;;;;;;;42;;;;;;;;
1763.0;1687.0;;;;;;;;;;;;;10;;;;;;;;
1814.0;1688.3;;;;0.05457688;-1.2602082;0.14623643;;;;;;;;;;;;;;;
1814.0;1688.3;;;;0.05786515;-1.2678796;0.15271379;;;;;;;;;;;;;;;
1814.0;1688.3;;;;0.06021119;-1.2729684;0.16518785;;;;;;;;;;;;;;;
1814.0;1688.3;;;;0.06421662;-1.2799875;0.1736374;;;;;;;;;;;;;;;
1814.0;1688.3;;;;0.06853486;-1.2866708;0.18423082;;;;;;;;;;;;;;;
1814.0;1698.1;;;;0.07301713;-1.2941438;0.19400027;;;;;;;;;;;;;;;
1814.0;1698.1;;;;0.07832719;-1.3030854;0.20305255;;;;;;;;;;;;;;;
1814.0;1698.1;;;;0.08618165;-1.3125573;0.2122536;;;;;;;;;;;;;;;
1814.0;1698.1;;;;0.094993606;-1.3241922;0.21980289;;;;;;;;;;;;;;;
1814.0;1698.1;;;;0.103275314;-1.3356019;0.22949603;;;;;;;;;;;;;;;
1814.0;1700.9;262143;262143;14285;;;;;;;;;;;;;;;;;;
1814.0;1708.3;;;;0.1089821;-1.3477517;0.23941806;;;;;;;;;;;;;;;
1814.0;1708.3;;;;0.11553194;-1.3602678;0.24992374;;;;;;;;;;;;;;;
1814.0;1708.3;;;;0.12174989;-1.3721391;0.2589722;;;;;;;;;;;;;;;
1814.0;1708.3;;;;0.12643053;-1.3846856;0.26674274;;;;;;;;;;;;;;;
1814.0;1708.3;;;;0.13281251;-1.3977815;0.2747498;;;;;;;;;;;;;;;
1814.0;1718.4;;;;0.14120485;-1.4096338;0.2841721;;;;;;;;;;;;;;;
1814.0;1718.4;;;;0.14842989;-1.4218751;0.29082873;;;;;;;;;;;;;;;
1814.0;1718.4;;;;0.15294267;-1.4344941;0.29752353;;;;;;;;;;;;;;;
1814.0;1718.4;;;;0.15911104;-1.4478189;0.30486682;;;;;;;;;;;;;;;
1814.0;1718.4;;;;0.16521455;-1.4587137;0.31351474;;;;;;;;;;;;;;;
1817.0;1721.2;262143;262143;14282;;;;;;;;;;;;;;;;;;
1817.0;1722.7;;;;;;;;;;;;;;;;;-54.86846;-11.364329;-124.988556;;1617.8
1817.0;1722.7;;;;;;;;;;;;;;1.9564196;-0.053163245;-0.6367382;;;;;1617.8
1817.0;1722.7;;;;;;;;;;;;;;;;;-50.576797;-4.932554;-124.988556;;1617.8
1817.0;1722.7;;;;;;;;;;;;;;1.887997;-0.14465773;-0.6031068;;;;;1617.8
1817.0;1722.7;;;;;;;;;;;;;;;;;-56.604206;4.1123695;-124.988556;;1627.4
1817.0;1722.7;;;;;;;;;;;;;;1.8237861;-0.21002838;-0.474868;;;;;1627.4
1817.0;1722.7;;;;;;;;;;;;;;;;;-62.47139;8.846553;-124.988556;;1627.4
1817.0;1722.7;;;;;;;;;;;;;;1.9220557;-0.22663045;-0.4782861;;;;;1627.4
1817.0;1722.7;;;;;;;;;;;;;;;;;-56.855984;23.65566;-124.988556;;1637.1
1817.0;1722.7;;;;;;;;;;;;;;1.9946288;-0.27198097;-0.54481643;;;;;1637.1
1817.0;1722.7;;;;;;;;;;;;;;;;;-48.638874;46.010468;-124.70626;;1637.1
1817.0;1722.7;;;;;;;;;;;;;;1.9962157;-0.3770867;-0.57527393;;;;;1637.1
1817.0;1723.4;;;;;;;;;;;;;;;;;-43.424026;59.625538;-124.88556;;1646.7
1817.0;1723.4;;;;;;;;;;;;;;1.9064302;-0.3552965;-0.55739003;;;;;1646.7
1817.0;1723.4;;;;;;;;;;;;;;;;;-45.82354;64.57335;-124.988556;;1646.7
1817.0;1723.4;;;;;;;;;;;;;;1.7040925;-0.08148442;-0.62202823;;;;;1646.7
1817.0;1723.4;;;;;;;;;;;;;;;;;-44.62569;67.14835;-124.988556;;1656.3
1817.0;1723.4;;;;;;;;;;;;;;1.5774407;0.2827235;-0.621601;;;;;1656.3
1817.0;1723.4;;;;;;;;;;;;;;;;;-42.172764;59.15632;-124.988556;;1656.3
1817.0;1723.4;;;;;;;;;;;;;;1.5005951;0.42005676;-0.6614582;;;;;1656.3
1817.0;1723.4;;;;;;;;;;;;;;;;;-36.172062;49.493393;-124.988556;;1665.9
1817.0;1723.4;;;;;;;;;;;;;;1.4403516;0.4977569;-0.64925075;;;;;1665.9
1817.0;1723.4;;;;;;;;;;;;;;;;;-34.527878;36.458176;-124.988556;;1665.9
1817.0;1723.4;;;;;;;;;;;;;;1.4039124;0.53065586;-0.6457717;;;;;1665.9
1817.0;1727.0;;;;;;;;;;;;;-157;;;;;;;;
1817.0;1727.0;;;;;;;;;;;;;-314;;;;;;;;
1817.0;1727.0;;;;;;;;;;;;;-392;;;;;;;;
1817.0;1727.0;;;;;;;;;;;;;-422;;;;;;;;
1817.0;1727.0;;;;;;;;;;;;;-442;;;;;;;;
1817.0;1728.2;;;;0.16984941;-1.4706308;0.32166675;;;;;;;;;;;;;;;
1817.0;1728.2;;;;0.17590334;-1.4819566;0.3284798;;;;;;;;;;;;;;;
1817.0;1728.2;;;;0.1831627;-1.4937936;0.33541492;;;;;;;;;;;;;;;
1817.0;1728.2;;;;0.18988422;-1.5041964;0.3431473;;;;;;;;;;;;;;;
1817.0;1728.2;;;;0.19631961;-1.5150378;0.34944156;;;;;;;;;;;;;;;
1874.0;1738.2;;;;0.20125583;-1.5259287;0.3565407;;;;;;;;;;;;;;;
1874.0;1738.2;;;;0.2071915;-1.53603;0.3652344;;;;;;;;;;;;;;;
1874.0;1738.2;;;;0.21310428;-1.5473483;0.3736153;;;;;;;;;;;;;;;
1874.0;1738.2;;;;0.21739581;-1.5584185;0.38332754;;;;;;;;;;;;;;;
1874.0;1738.2;;;;0.22207645;-1.5708048;0.3949433;;;;;;;;;;;;;;;
1874.0;1738.3;;;;;;;;;;-0.33951843;19.356365;-2.7199624;;;;;;;;;
1874.0;1738.3;;;;;;;-0.35541856;0.92855614;0.4151738;;;;;;;;;;;;
1874.0;1738.3;;;;;;;;;;7.4846644;30.896175;6.1380353;;;;;;;;;
1874.0;1738.3;;;;;;;-0.36872464;1.0386059;0.44740134;;;;;;;;;;;;
1874.0;1741.1;262143;262143;14283;;;;;;;;;;;;;;;;;;
1874.0;1747.9;;;;;;;;;;-0.39674062;-4.0627766;0.4463332;;;;;;;;;
1874.0;1747.9;;;;;;;-0.33777887;1.035493;0.42268136;;;;;;;;;;;;
1874.0;1747.9;;;;;;;;;;-0.9575182;-10.261848;-8.327739;;;;;;;;;
1874.0;1747.9;;;;;;;-0.31311992;1.0356151;0.39051485;;;;;;;;;;;;
1874.0;1748.2;;;;0.22650531;-1.5826342;0.40634924;;;;;;;;;;;;;;;
1874.0;1748.2;;;;0.23241046;-1.5946238;0.4171639;;;;;;;;;;;;;;;
1874.0;1748.2;;;;0.23792651;-1.6072848;0.42870718;;;;;;;;;;;;;;;
1874.0;1748.2;;;;0.24239352;-1.6186144;0.43967062;;;;;;;;;;;;;;;
1874.0;1748.2;;;;0.2458916;-1.6287959;0.45034796;;;;;;;;;;;;;;;
1874.0;1757.3;;;;;;;;;;-7.683035;-30.89999;-22.915585;;;;;;;;;
1874.0;1757.3;;;;;;;-0.29554126;1.0434889;0.3604236;;;;;;;;;;;;
1874.0;1757.3;;;;;;;;;;-20.67629;-85.882904;-59.026615;;;;;;;;;
1874.0;1757.3;;;;;;;-0.27900022;1.0555131;0.33094272;;;;;;;;;;;;
1876.0;1758.2;;;;0.24878314;-1.6380503;0.46162802;;;;;;;;;;;;;;;
1876.0;1758.2;;;;0.2502785;-1.6457827;0.4748345;;;;;;;;;;;;;;;
1876.0;1758.2;;;;0.25044635;-1.6519625;0.48676687;;;;;;;;;;;;;;;
1876.0;1758.2;;;;0.24898532;-1.6579325;0.50083166;;;;;;;;;;;;;;;
1876.0;1758.2;;;;0.24894336;-1.6632197;0.51309973;;;;;;;;;;;;;;;
1876.0;1761.1;262143;262143;14280;;;;;;;;;;;;;;;;;;
1876.0;1767.0;;;;;;;;;;-29.59914;-103.53023;-75.70498;;;;;;;;;
1876.0;1767.0;;;;;;;-0.26880702;1.0754722;0.30573443;;;;;;;;;;;;
1876.0;1767.0;;;;;;;;;;-39.273506;-118.171486;-92.59697;;;;;;;;;
1876.0;1767.0;;;;;;;-0.26599932;1.1048311;0.28797266;;;;;;;;;;;;
1876.0;1767.2;;;;;;;;;;;;;-460;;;;;;;;
1876.0;1767.2;;;;;;;;;;;;;-537;;;;;;;;
1876.0;1767.2;;;;;;;;;;;;;-687;;;;;;;;
1876.0;1767.2;;;;;;;;;;;;;-897;;;;;;;;
1876.0;1767.2;;;;;;;;;;;;;-1126;;;;;;;;
1876.0;1768.3;;;;0.24959949;-1.6687701;0.53098685;;;;;;;;;;;;;;;
1876.0;1768.3;;;;0.24484256;-1.6707613;0.54261786;;;;;;;;;;;;;;;
1876.0;1768.3;;;;0.24454501;-1.674557;0.54767615;;;;;;;;;;;;;;;
1876.0;1768.3;;;;0.24190906;-1.6773188;0.55769736;;;;;;;;;;;;;;;
1876.0;1768.3;;;;0.24226382;-1.6775172;0.5689965;;;;;;;;;;;;;;;
1876.0;1776.6;;;;;;;;;;-49.07758;-120.166626;-101.68004;;;;;;;;;
1876.0;1776.6;;;;;;;-0.26545;1.1447493;0.275338;;;;;;;;;;;;
1876.0;1776.6;;;;;;;;;;-54.620502;-113.155;-100.3563;;;;;;;;;
1876.0;1776.6;;;;;;;-0.2675863;1.1932737;0.2662435;;;;;;;;;;;;
1878.0;1778.4;;;;0.24245074;-1.6789477;0.5769463;;;;;;;;;;;;;;;
1878.0;1778.4;;;;0.23847583;-1.6812136;0.58229834;;;;;;;;;;;;;;;
1878.0;1778.4;;;;0.235405;-1.6810992;0.58632284;;;;;;;;;;;;;;;
1878.0;1778.4;;;;0.23259738;-1.6805918;0.5905991;;;;;;;;;;;;;;;
1878.0;1778.4;;;;0.22801974;-1.6805575;0.59221655;;;;;;;;;;;;;;;
1878.0;1781.4;262143;262143;14284;;;;;;;;;;;;;;;;;;
1878.0;1783.1;;;;;;;;;;;;;;;;;-34.161655;22.858364;-124.988556;;1675.6
1878.0;1783.1;;;;;;;;;;;;;;1.3436079;0.56501967;-0.6375927;;;;;1675.6
1878.0;1783.1;;;;;;;;;;;;;;;;;-33.783993;7.1184425;-124.988556;;1675.6
1878.0;1783.1;;;;;;;;;;;;;;1.3242592;0.6698813;-0.581988;;;;;1675.6
1878.0;1783.1;;;;;;;;;;;;;;;;;-36.736656;-10.048219;-124.988556;;1685.0
1878.0;1783.1;;;;;;;;;;;;;;1.3655202;0.6981414;-0.5636769;;;;;1685.0
1878.0;1783.1;;;;;;;;;;;;;;;;;-36.14536;-19.932402;-124.988556;;1685.0
1878.0;1783.1;;;;;;;;;;;;;;1.4375439;0.67067474;-0.5307169;;;;;1685.0
1878.0;1783.1;;;;;;;;;;;;;;;;;-32.906586;-22.804956;-124.988556;;1694.6
1878.0;1783.1;;;;;;;;;;;;;;1.5098118;0.6643269;-0.5033113;;;;;1694.6
1878.0;1783.1;;;;;;;;;;;;;;;;;-26.146732;-20.943327;-124.988556;;1694.6
1878.0;1783.1;;;;;;;;;;;;;;1.5423445;0.67293316;-0.46852016;;;;;1694.6
1879.0;1784.0;;;;;;;;;;;;;;;;;-17.769402;-19.009216;-124.988556;;1704.3
1879.0;1784.0;;;;;;;;;;;;;;1.5466781;0.6732994;-0.37055573;;;;;1704.3
1879.0;1784.0;;;;;;;;;;;;;;;;;-12.680441;-19.676807;-124.988556;;1704.3
1879.0;1784.0;;;;;;;;;;;;;;1.5305033;0.677694;-0.23950927;;;;;1704.3
1879.0;1784.0;;;;;;;;;;;;;;;;;-10.95996;-21.843624;-124.988556;;1714.0
1879.0;1784.0;;;;;;;;;;;;;;1.4979094;0.677694;-0.09228797;;;;;1714.0
1879.0;1784.0;;;;;;;;;;;;;;;;;-9.208961;-23.606068;-124.988556;;1714.0
1879.0;1784.0;;;;;;;;;;;;;;1.4431592;0.671041;0.056154057;;;;;1714.0
1879.0;1784.0;;;;;;;;;;;;;;;;;-6.9277015;-28.744621;-124.13785;;1723.6
1879.0;1784.0;;;;;;;;;;;;;;1.3799859;0.65742975;0.11499374;;;;;1723.6
1879.0;1784.0;;;;;;;;;;;;;;;;;-7.7326274;-32.391582;-116.40523;;1723.6
1879.0;1784.0;;;;;;;;;;;;;;1.2987456;0.63521224;0.0999176;;;;;1723.6
1879.0;1786.0;;;;;;;;;;-58.34376;-110.328224;-102.481155;;;;;;;;;
1879.0;1786.0;;;;;;;-0.27130955;1.2576678;0.2567217;;;;;;;;;;;;
1879.0;1786.0;;;;;;;;;;-62.4485;-108.211006;-104.09482;;;;;;;;;
1879.0;1786.0;;;;;;;-0.2755211;1.3281045;0.25019073;;;;;;;;;;;;
1879.0;1788.3;;;;0.22614673;-1.6797984;0.59144217;;;;;;;;;;;;;;;
1879.0;1788.3;;;;0.22371295;-1.6777422;0.589634;;;;;;;;;;;;;;;
1879.0;1788.3;;;;0.22054675;-1.6753962;0.58562857;;;;;;;;;;;;;;;
1879.0;1788.3;;;;0.21681216;-1.6720049;0.58302695;;;;;;;;;;;;;;;
1879.0;1788.3;;;;0.21345523;-1.6677058;0.5782853;;;;;;;;;;;;;;;
1879.0;1795.6;;;;;;;;;;-66.568504;-106.48671;-105.590225;;;;;;;;;
1879.0;1795.6;;;;;;;-0.27918333;1.4073305;0.24390393;;;;;;;;;;;;
1879.0;1795.6;;;;;;;;;;-70.871605;-105.16297;-106.74993;;;;;;;;;
1879.0;1795.6;;;;;;;-0.2830897;1.4949797;0.24048586;;;;;;;;;;;;
1992.0;1798.2;;;;0.21114352;-1.6619112;0.5708886;;;;;;;;;;;;;;;
1992.0;1798.2;;;;0.21015933;-1.6558993;0.5625878;;;;;;;;;;;;;;;
1992.0;1798.2;;;;0.20965579;-1.6505053;0.5536652;;;;;;;;;;;;;;;
1992.0;1798.2;;;;0.21067813;-1.643513;0.54357153;;;;;;;;;;;;;;;
1992.0;1798.2;;;;0.21031192;-1.6365244;0.5332604;;;;;;;;;;;;;;;
1992.0;1801.3;262143;262143;14271;;;;;;;;;;;;;;;;;;
1992.0;1805.1;;;;;;;;;;-75.4532;-104.38475;-107.44423;;;;;;;;;
1992.0;1805.1;;;;;;;-0.28205207;1.5945921;0.24097416;;;;;;;;;;;;
1992.0;1805.1;;;;;;;;;;-80.439156;-103.92697;-108.04316;;;;;;;;;
1992.0;1805.1;;;;;;;-0.2741783;1.7010406;0.23987548;;;;;;;;;;;;
1992.0;1807.3;;;;;;;;;;;;;-1386;;;;;;;;
1992.0;1807.3;;;;;;;;;;;;;-1603;;;;;;;;
1992.0;1807.3;;;;;;;;;;;;;-1575;;;;;;;;
1992.0;1807.3;;;;;;;;;;;;;-1291;;;;;;;;
1992.0;1807.3;;;;;;;;;;;;;-904;;;;;;;;
1992.0;1808.3;;;;0.20910266;-1.6300623;0.5216294;;;;;;;;;;;;;;;
1992.0;1808.3;;;;0.20824435;-1.6239474;0.51092535;;;;;;;;;;;;;;;
1992.0;1808.3;;;;0.20728686;-1.6184275;0.5021706;;;;;;;;;;;;;;;
1992.0;1808.3;;;;0.20484164;-1.6133502;0.4938088;;;;;;;;;;;;;;;
1992.0;1808.3;;;;0.2042351;-1.6089022;0.485344;;;;;;;;;;;;;;;
1992.0;1814.4;;;;;;;;;;-85.68072;-103.110596;-108.84808;;;;;;;;;
1992.0;1814.4;;;;;;;-0.25873592;1.8127384;0.23071994;;;;;;;;;;;;
1992.0;1814.4;;;;;;;;;;-90.678116;-101.40156;-110.07263;;;;;;;;;
1992.0;1814.4;;;;;;;-0.235786;1.9138768;0.21472824;;;;;;;;;;;;
1995.0;1818.2;;;;0.20539859;-1.6046984;0.47686774;;;;;;;;;;;;;;;
1995.0;1818.2;;;;0.20532992;-1.6012309;0.46876913;;;;;;;;;;;;;;;
1995.0;1818.2;;;;0.20340732;-1.5962794;0.46194082;;;;;;;;;;;;;;;
1995.0;1818.2;;;;0.20016482;-1.589165;0.45785147;;;;;;;;;;;;;;;
1995.0;1818.2;;;;0.19606403;-1.5826495;0.45472342;;;;;;;;;;;;;;;
1995.0;1821.3;262143;262143;14267;;;;;;;;;;;;;;;;;;
1995.0;1824.1;;;;;;;;;;-95.42757;-98.59768;-111.56804;;;;;;;;;
1995.0;1824.1;;;;;;;-0.21222572;1.9874874;0.19531846;;;;;;;;;;;;
1995.0;1824.1;;;;;;;;;;-99.90615;-94.75234;-113.42586;;;;;;;;;
1995.0;1824.1;;;;;;;-0.18677329;1.9989624;0.17285684;;;;;;;;;;;;
1995.0;1828.3;;;;0.19406131;-1.5768664;0.45218283;;;;;;;;;;;;;;;
1995.0;1828.3;;;;0.18260576;-1.570389;0.44928366;;;;;;;;;;;;;;;
1995.0;1828.3;;;;0.17792131;-1.5632708;0.44744498;;;;;;;;;;;;;;;
1995.0;1828.3;;;;0.17568971;-1.5544474;0.45088202;;;;;;;;;;;;;;;
1995.0;1828.3;;;;0.17368318;-1.5440104;0.4569016;;;;;;;;;;;;;;;
1995.0;1833.7;;;;;;;;;;-104.346596;-89.66719;-115.68041;;;;;;;;;
1995.0;1833.7;;;;;;;-0.16193122;1.9989624;0.15045625;;;;;;;;;;;;
1995.0;1833.7;;;;;;;;;;-108.546715;-83.510086;-118.202;;;;;;;;;
1995.0;1833.7;;;;;;;-0.13885921;1.9989624;0.12799463;;;;;;;;;;;;
1998.0;1838.4;;;;0.17351915;-1.5298197;0.46454626;;;;;;;;;;;;;;;
1998.0;1838.4;;;;0.1700821;-1.5125353;0.47160345;;;;;;;;;;;;;;;
1998.0;1838.4;;;;0.16567613;-1.496071;0.4788018;;;;;;;;;;;;;;;
1998.0;1838.4;;;;0.17477418;-1.4810907;0.48811728;;;;;;;;;;;;;;;
1998.0;1838.4;;;;0.19577792;-1.4652177;0.5048104;;;;;;;;;;;;;;;
1998.0;1841.6;262143;262143;14265;;;;;;;;;;;;;;;;;;
1998.0;1843.0;;;;;;;;;;;;;;;;;-17.502365;-35.008545;-104.747154;;1733.2
1998.0;1843.0;;;;;;;;;;;;;;1.2098148;0.6313669;0.051087987;;;;;1733.2
1998.0;1843.0;;;;;;;;;;;;;;;;;-38.07947;-38.319805;-93.41716;;1733.2
1998.0;1843.0;;;;;;;;;;;;;;1.1347392;0.62135684;-0.07647938;;;;;1733.2
1998.0;1843.0;;;;;;;;;;;;;;;;;-63.84854;-39.48332;-83.597824;;1742.8
1998.0;1843.0;;;;;;;;;;;;;;1.0628376;0.60084844;-0.21143223;;;;;1742.8
1998.0;1843.0;;;;;;;;;;;;;;;;;-87.99631;-41.688286;-74.67498;;1742.8
1998.0;1843.0;;;;;;;;;;;;;;1.0095522;0.5861385;-0.37897885;;;;;1742.8
1998.0;1843.0;;;;;;;;;;;;;;;;;-104.80056;-43.8818;-65.80173;;1752.3
1998.0;1843.0;;;;;;;;;;;;;;0.99484235;0.5652638;-0.50196844;;;;;1752.3
1998.0;1843.0;;;;;;;;;;;;;;;;;-113.40296;-46.456802;-60.54872;;1752.3
1998.0;1843.0;;;;;;;;;;;;;;0.9906308;0.5658132;-0.5752129;;;;;1752.3
1998.0;1843.3;;;;;;;;;;-112.52174;-76.71209;-120.79226;;;;;;;;;
1998.0;1843.3;;;;;;;-0.11700796;1.9989624;0.107058935;;;;;;;;;;;;
1998.0;1843.3;;;;;;;;;;-116.40904;-69.627975;-122.959076;;;;;;;;;
1998.0;1843.3;;;;;;;-0.100039676;1.9989624;0.08539079;;;;;;;;;;;;
2001.0;1843.7;;;;;;;;;;;;;;;;;-112.441635;-46.75054;-55.21561;;1762.0
2001.0;1843.7;;;;;;;;;;;;;;0.9985046;0.5636769;-0.5593432;;;;;1762.0
2001.0;1843.7;;;;;;;;;;;;;;;;;-107.73415;-43.60332;-50.59587;;1762.0
2001.0;1843.7;;;;;;;;;;;;;;1.0006409;0.56624043;-0.496292;;;;;1762.0
2001.0;1843.7;;;;;;;;;;;;;;;;;-102.50404;-37.965027;-42.901394;;1771.6
2001.0;1843.7;;;;;;;;;;;;;;0.9292886;0.5597095;-0.33814508;;;;;1771.6
2001.0;1843.7;;;;;;;;;;;;;;;;;-97.71645;-37.8811;-32.002472;;1771.6
2001.0;1843.7;;;;;;;;;;;;;;0.92733544;0.52449113;-0.27771842;;;;;1771.6
2001.0;1843.7;;;;;;;;;;;;;;;;;-93.30271;-33.627583;-22.358622;;1781.3
2001.0;1843.7;;;;;;;;;;;;;;0.9073153;0.48731956;-0.23212378;;;;;1781.3
2001.0;1843.7;;;;;;;;;;;;;;;;;-89.762566;-26.654104;-13.584552;;1781.3
2001.0;1843.7;;;;;;;;;;;;;;0.83700067;0.45319986;-0.20850246;;;;;1781.3
2001.0;1847.3;;;;;;;;;;;;;-506;;;;;;;;
2001.0;1847.3;;;;;;;;;;;;;-121;;;;;;;;
2001.0;1847.3;;;;;;;;;;;;;143;;;;;;;;
2001.0;1847.3;;;;;;;;;;;;;80;;;;;;;;
2001.0;1847.3;;;;;;;;;;;;;-22;;;;;;;;
2001.0;1848.3;;;;0.1745453;-1.4463273;0.51816946;;;;;;;;;;;;;;;
2001.0;1848.3;;;;0.15380861;-1.4295427;0.51770407;;;;;;;;;;;;;;;
2001.0;1848.3;;;;0.1446953;-1.414528;0.5198708;;;;;;;;;;;;;;;
2001.0;1848.3;;;;0.149498;-1.406315;0.532837;;;;;;;;;;;;;;;
2001.0;1848.3;;;;0.1546364;-1.3943712;0.5457192;;;;;;;;;;;;;;;
2001.0;1852.7;;;;;;;;;;-120.10559;-62.18909;-124.17982;;;;;;;;;
2001.0;1852.7;;;;;;;-0.08130131;1.9989624;0.06616413;;;;;;;;;;;;
2001.0;1852.7;;;;;;;;;;-123.203224;-54.399246;-124.81689;;;;;;;;;
2001.0;1852.7;;;;;;;-0.072328866;1.9989624;0.047975097;;;;;;;;;;;;
2003.0;1858.3;;;;0.15211488;-1.3743783;0.55655676;;;;;;;;;;;;;;;
2003.0;1858.3;;;;0.14670183;-1.3575479;0.5711747;;;;;;;;;;;;;;;
2003.0;1858.3;;;;0.13956453;-1.3398172;0.5869294;;;;;;;;;;;;;;;
2003.0;1858.3;;;;0.13413621;-1.3155404;0.5953179;;;;;;;;;;;;;;;
2003.0;1858.3;;;;0.12397005;-1.2905809;0.60382086;;;;;;;;;;;;;;;
2003.0;1861.5;262143;262143;14275;;;;;;;;;;;;;;;;;;
2003.0;1862.2;;;;;;;;;;-124.652855;-46.25843;-124.87792;;;;;;;;;
2003.0;1862.2;;;;;;;-0.06567583;1.9989624;0.031373028;;;;;;;;;;;;
2003.0;1862.2;;;;;;;;;;-124.87029;-38.129063;-124.881744;;;;;;;;;
2003.0;1862.2;;;;;;;-0.059938353;1.9989624;0.01495407;;;;;;;;;;;;
2003.0;1868.3;;;;0.11676027;-1.264599;0.61572653;;;;;;;;;;;;;;;
2003.0;1868.3;;;;0.11584474;-1.237259;0.6264878;;;;;;;;;;;;;;;
2003.0;1868.3;;;;0.11578371;-1.211178;0.6347237;;;;;;;;;;;;;;;
2003.0;1868.3;;;;0.112258926;-1.1862527;0.6390992;;;;;;;;;;;;;;;
2003.0;1868.3;;;;0.10658647;-1.1602784;0.63981634;;;;;;;;;;;;;;;
2003.0;1871.7;;;;;;;;;;-124.881744;-30.346842;-124.881744;;;;;;;;;
2003.0;1871.7;;;;;;;-0.05529954;1.9953612;0.0045167394;;;;;;;;;;;;
2003.0;1871.7;;;;;;;;;;-124.881744;-23.1254;-124.881744;;;;;;;;;
2003.0;1871.7;;;;;;;-0.050416578;1.9824213;-9.155553E-4;;;;;;;;;;;;
2004.0;1878.4;;;;0.102432266;-1.1334573;0.63880926;;;;;;;;;;;;;;;
2004.0;1878.4;;;;0.10261537;-1.103161;0.6414681;;;;;;;;;;;;;;;
2004.0;1878.4;;;;0.10172273;-1.068554;0.6455651;;;;;;;;;;;;;;;
2004.0;1878.4;;;;0.10160829;-1.0309907;0.6456948;;;;;;;;;;;;;;;
2004.0;1878.4;;;;0.09054185;-0.9908296;0.6395226;;;;;;;;;;;;;;;
2004.0;1881.3;;;;;;;;;;-124.881744;-16.644033;-124.881744;;;;;;;;;
2004.0;1881.3;;;;;;;-0.042786952;1.9649037;-0.0044557024;;;;;;;;;;;;
2004.0;1881.3;;;;;;;;;;-124.881744;-10.55559;-124.881744;;;;;;;;;
2004.0;1881.3;;;;;;;-0.03357036;1.9519639;-0.01147496;;;;;;;;;;;;
2004.0;1881.6;262143;262143;14273;;;;;;;;;;;;;;;;;;
2004.0;1887.6;;;;;;;;;;;;;78;;;;;;;;
2004.0;1887.6;;;;;;;;;;;;;123;;;;;;;;
2004.0;1887.6;;;;;;;;;;;;;260;;;;;;;;
2004.0;1887.6;;;;;;;;;;;;;-254;;;;;;;;
2004.0;1887.6;;;;;;;;;;;;;-2622;;;;;;;;
2004.0;1888.5;;;;0.07262803;-0.9533502;0.6308747;;;;;;;;;;;;;;;
2004.0;1888.5;;;;0.060043342;-0.9160234;0.6221886;;;;;;;;;;;;;;;
2004.0;1888.5;;;;0.052581795;-0.8767053;0.61479956;;;;;;;;;;;;;;;
2004.0;1888.5;;;;0.048229225;-0.8398248;0.61326605;;;;;;;;;;;;;;;
2004.0;1888.5;;;;0.044868473;-0.80119336;0.6063805;;;;;;;;;;;;;;;
2004.0;1891.0;;;;;;;;;;-124.881744;-4.6807766;-124.881744;;;;;;;;;
2004.0;1891.0;;;;;;;-0.023804437;1.9400617;-0.0144657735;;;;;;;;;;;;
2004.0;1891.0;;;;;;;;;;-124.881744;0.65233314;-124.881744;;;;;;;;;
2004.0;1891.0;;;;;;;-0.01800592;1.935667;-0.011658071;;;;;;;;;;;;
2173.0;1898.6;;;;0.038414005;-0.7638246;0.5964585;;;;;;;;;;;;;;;
2173.0;1898.6;;;;0.031215671;-0.7262879;0.5894738;;;;;;;;;;;;;;;
2173.0;1898.6;;;;0.03175736;-0.68954474;0.5871621;;;;;;;;;;;;;;;
2173.0;1898.6;;;;0.038391117;-0.65404135;0.58502585;;;;;;;;;;;;;;;
2173.0;1898.6;;;;0.039825443;-0.613514;0.58505255;;;;;;;;;;;;;;;
2173.0;1900.6;;;;;;;;;;-124.881744;5.451369;-124.881744;;;;;;;;;
2173.0;1900.6;;;;;;;-0.015015107;1.9403058;-0.0053102206;;;;;;;;;;;;
2173.0;1900.6;;;;;;;;;;-124.881744;10.456405;-124.881744;;;;;;;;;
2173.0;1900.6;;;;;;;-0.014160588;1.9480575;0.002929777;;;;;;;;;;;;
2173.0;1901.9;262143;262143;14290;;;;;;;;;;;;;;;;;;
2173.0;1903.2;;;;;;;;;;;;;;;;;-86.65731;-18.974884;-5.287332;;1791.0
2173.0;1903.2;;;;;;;;;;;;;;0.74172187;0.41065708;-0.16797388;;;;;1791.0
2173.0;1903.2;;;;;;;;;;;;;;;;;-83.64742;-13.611256;2.3537402;;1791.0
2173.0;1903.2;;;;;;;;;;;;;;0.6408887;0.3518784;-0.123538926;;;;;1791.0
2173.0;1903.2;;;;;;;;;;;;;;;;;-79.07727;-12.398144;10.517442;;1800.6
2173.0;1903.2;;;;;;;;;;;;;;0.56990266;0.29053622;-0.09729301;;;;;1800.6
2173.0;1903.2;;;;;;;;;;;;;;;;;-72.51579;-12.955108;18.055513;;1800.6
2173.0;1903.2;;;;;;;;;;;;;;0.5288858;0.23761712;-0.090151675;;;;;1800.6
2173.0;1903.2;;;;;;;;;;;;;;;;;-64.83276;-11.703849;25.30366;;1810.2
2173.0;1903.2;;;;;;;;;;;;;;0.48823512;0.17548142;-0.06360058;;;;;1810.2
2173.0;1903.2;;;;;;;;;;;;;;;;;-57.149723;-9.239479;31.933807;;1810.2
2173.0;1903.2;;;;;;;;;;;;;;0.44087037;0.10864589;-0.046205025;;;;;1810.2
2178.0;1904.3;;;;;;;;;;;;;;;;;-50.59969;-6.3058867;38.56777;;1819.7
2178.0;1904.3;;;;;;;;;;;;;;0.39497054;0.048036136;-0.062135685;;;;;1819.7
2178.0;1904.3;;;;;;;;;;;;;;;;;-45.335243;-2.6474807;45.575577;;1819.7
2178.0;1904.3;;;;;;;;;;;;;;0.3292947;-0.0253914;-0.080141604;;;;;1819.7
2178.0;1904.3;;;;;;;;;;;;;;;;;-40.337837;1.7128513;52.583393;;1829.4
2178.0;1904.3;;;;;;;;;;;;;;0.2562334;-0.10809656;-0.079775386;;;;;1829.4
2178.0;1904.3;;;;;;;;;;;;;;;;;-33.619953;4.1695914;60.781425;;1829.4
2178.0;1904.3;;;;;;;;;;;;;;0.18164617;-0.19873653;-0.09472945;;;;;1829.4
2178.0;1904.3;;;;;;;;;;;;;;;;;-25.88351;5.878628;69.99802;;1839.0
2178.0;1904.3;;;;;;;;;;;;;;0.10400708;-0.2616657;-0.10754723;;;;;1839.0
2178.0;1904.3;;;;;;;;;;;;;;;;;-18.555254;6.653035;79.2642;;1839.0
2178.0;1904.3;;;;;;;;;;;;;;0.031189917;-0.28186896;-0.123661004;;;;;1839.0
2178.0;1908.4;;;;0.03774262;-0.5736161;0.5851136;;;;;;;;;;;;;;;
2178.0;1908.4;;;;0.042343143;-0.5369492;0.5884171;;;;;;;;;;;;;;;
2178.0;1908.4;;;;0.046318058;-0.50051886;0.5909615;;;;;;;;;;;;;;;
2178.0;1908.4;;;;0.059028633;-0.46537024;0.59660345;;;;;;;;;;;;;;;
2178.0;1908.4;;;;0.06570054;-0.43200308;0.6042481;;;;;;;;;;;;;;;
2178.0;1909.9;;;;;;;;;;-124.881744;15.572069;-124.881744;;;;;;;;;
2178.0;1909.9;;;;;;;-0.0049439985;1.9628284;0.01043733;;;;;;;;;;;;
2178.0;1909.9;;;;;;;;;;-124.881744;19.787437;-124.881744;;;;;;;;;
2178.0;1909.9;;;;;;;0.013855403;1.9678335;0.008423109;;;;;;;;;;;;
2182.0;1918.3;;;;0.07396317;-0.39716727;0.61194235;;;;;;;;;;;;;;;
2182.0;1918.3;;;;0.08312989;-0.36447528;0.622078;;;;;;;;;;;;;;;
2182.0;1918.3;;;;0.09935762;-0.33131793;0.6340409;;;;;;;;;;;;;;;
2182.0;1918.3;;;;0.11674501;-0.29945758;0.649273;;;;;;;;;;;;;;;
2182.0;1918.3;;;;0.13131334;-0.26850894;0.6599465;;;;;;;;;;;;;;;
2182.0;1919.4;;;;;;;;;;-124.881744;22.640919;-124.881744;;;;;;;;;
2182.0;1919.4;;;;;;;0.023926511;1.9666127;0.008972442;;;;;;;;;;;;
2182.0;1919.4;;;;;;;;;;-124.881744;25.158695;-124.881744;;;;;;;;;
2182.0;1919.4;;;;;;;0.013733329;1.955382;0.012146367;;;;;;;;;;;;
2182.0;1921.7;262143;262143;14289;;;;;;;;;;;;;;;;;;
2182.0;1927.7;;;;;;;;;;;;;-5398;;;;;;;;
2182.0;1927.7;;;;;;;;;;;;;-5252;;;;;;;;
2182.0;1927.7;;;;;;;;;;;;;-1076;;;;;;;;
2182.0;1927.7;;;;;;;;;;;;;4005;;;;;;;;
2182.0;1927.7;;;;;;;;;;;;;6000;;;;;;;;
2182.0;1928.4;;;;0.1476288;-0.24110034;0.66984564;;;;;;;;;;;;;;;
2182.0;1928.4;;;;0.15778734;-0.21655658;0.6824303;;;;;;;;;;;;;;;
2182.0;1928.4;;;;0.15951921;-0.19227985;0.6918755;;;;;;;;;;;;;;;
2182.0;1928.4;;;;0.1749611;-0.17239;0.70110327;;;;;;;;;;;;;;;
2182.0;1928.4;;;;0.18613817;-0.15565492;0.71057135;;;;;;;;;;;;;;;
2182.0;1928.9;;;;;;;;;;-124.82833;27.756584;-124.881744;;;;;;;;;
2182.0;1928.9;;;;;;;-0.00286874;1.9306009;0.016541032;;;;;;;;;;;;
2182.0;1928.9;;;;;;;;;;-124.40871;29.63729;-124.881744;;;;;;;;;
2182.0;1928.9;;;;;;;-0.018799402;1.9011201;0.018677328;;;;;;;;;;;;
2184.0;1938.0;;;;0.18594362;-0.14065935;0.7175332;;;;;;;;;;;;;;;
2184.0;1938.0;;;;0.18822482;-0.12642671;0.7228127;;;;;;;;;;;;;;;
2184.0;1938.0;;;;0.18707277;-0.1136017;0.7259179;;;;;;;;;;;;;;;
2184.0;1938.0;;;;0.19074634;-0.10467531;0.7309266;;;;;;;;;;;;;;;
2184.0;1938.0;;;;0.20008472;-0.09721376;0.7338219;;;;;;;;;;;;;;;
2184.0;1938.1;;;;;;;;;;-122.87133;30.251472;-124.881744;;;;;;;;;
2184.0;1938.1;;;;;;;-0.03729362;1.8643147;0.021179846;;;;;;;;;;;;
2184.0;1938.1;;;;;;;;;;-120.681625;29.988249;-124.881744;;;;;;;;;
2184.0;1938.1;;;;;;;-0.060548723;1.831782;0.023987548;;;;;;;;;;;;
2184.0;1941.4;262143;262143;14284;;;;;;;;;;;;;;;;;;
2184.0;1947.7;;;;;;;;;;-118.44234;28.687399;-124.881744;;;;;;;;;
2184.0;1947.7;;;;;;;-0.08355968;1.7963195;0.030579546;;;;;;;;;;;;
2184.0;1947.7;;;;;;;;;;-116.03137;26.3184;-124.881744;;;;;;;;;
2184.0;1947.7;;;;;;;-0.10303049;1.7603077;0.035340436;;;;;;;;;;;;
2184.0;1948.2;;;;0.20048144;-0.09174348;0.7339402;;;;;;;;;;;;;;;
2184.0;1948.2;;;;0.19805148;-0.086269386;0.73325735;;;;;;;;;;;;;;;
2184.0;1948.2;;;;0.19662479;-0.085327156;0.73380286;;;;;;;;;;;;;;;
2184.0;1948.2;;;;0.19890216;-0.090572365;0.7316819;;;;;;;;;;;;;;;
2184.0;1948.2;;;;0.20193484;-0.0961609;0.7288361;;;;;;;;;;;;;;;
2184.0;1957.4;;;;;;;;;;-113.685265;23.033844;-124.881744;;;;;;;;;
2184.0;1957.4;;;;;;;-0.118533894;1.7218543;0.040040284;;;;;;;;;;;;
2184.0;1957.4;;;;;;;;;;-111.384926;19.405958;-124.881744;;;;;;;;;
2184.0;1957.4;;;;;;;-0.13159582;1.6907865;0.043458357;;;;;;;;;;;;
2185.0;1958.3;;;;0.20359042;-0.10103609;0.7266465;;;;;;;;;;;;;;;
2185.0;1958.3;;;;0.20536807;-0.10989;0.7225495;;;;;;;;;;;;;;;
2185.0;1958.3;;;;0.20948032;-0.11846544;0.71698004;;;;;;;;;;;;;;;
2185.0;1958.3;;;;0.213501;-0.1257477;0.70929724;;;;;;;;;;;;;;;
2185.0;1958.3;;;;0.22019961;-0.13447191;0.7033234;;;;;;;;;;;;;;;
2185.0;1961.7;262143;262143;14282;;;;;;;;;;;;;;;;;;
2185.0;1963.1;;;;;;;;;;;;;;;;;-12.249367;6.3135166;87.553795;;1848.7
2185.0;1963.1;;;;;;;;;;;;;;-0.032471694;-0.25873592;-0.12939848;;;;;1848.7
2185.0;1963.1;;;;;;;;;;;;;;;;;-6.96585;4.016999;95.46571;;1848.7
2185.0;1963.1;;;;;;;;;;;;;;-0.08386487;-0.19946899;-0.12738426;;;;;1848.7
2185.0;1963.1;;;;;;;;;;;;;;;;;-4.0475173;-0.2784814;102.96945;;1858.2
2185.0;1963.1;;;;;;;;;;;;;;-0.11157567;-0.12524797;-0.12164678;;;;;1858.2
2185.0;1963.1;;;;;;;;;;;;;;;;;-3.6202583;-5.2491837;109.54619;;1858.2
2185.0;1963.1;;;;;;;;;;;;;;-0.12787256;-0.037171546;-0.09442427;;;;;1858.2
2185.0;1963.1;;;;;;;;;;;;;;;;;-6.366924;-9.952848;115.45915;;1867.9
2185.0;1963.1;;;;;;;;;;;;;;-0.14654988;0.047059543;-0.07208472;;;;;1867.9
2185.0;1963.1;;;;;;;;;;;;;;;;;-11.318552;-13.725699;119.96444;;1867.9
2185.0;1963.1;;;;;;;;;;;;;;-0.15002899;0.09912412;-0.056215096;;;;;1867.9
2185.0;1966.9;;;;;;;;;;-109.07697;16.033663;-124.881744;;;;;;;;;
2185.0;1966.9;;;;;;;-0.13763848;1.6572161;0.039857175;;;;;;;;;;;;
2185.0;1966.9;;;;;;;;;;-106.81097;12.867367;-124.881744;;;;;;;;;
2185.0;1966.9;;;;;;;-0.13531907;1.6218756;0.027771844;;;;;;;;;;;;
2234.0;1967.6;;;;;;;;;;;;;4448;;;;;;;;
2234.0;1967.6;;;;;;;;;;;;;2194;;;;;;;;
2234.0;1967.6;;;;;;;;;;;;;1366;;;;;;;;
2234.0;1967.6;;;;;;;;;;;;;1150;;;;;;;;
2234.0;1967.6;;;;;;;;;;;;;845;;;;;;;;
2234.0;1968.2;;;;0.22775272;-0.14567186;0.6964379;;;;;;;;;;;;;;;
2234.0;1968.2;;;;0.23527911;-0.15704729;0.68993765;;;;;;;;;;;;;;;
2234.0;1968.2;;;;0.24513629;-0.17022707;0.6840134;;;;;;;;;;;;;;;
2234.0;1968.2;;;;0.2579384;-0.18371965;0.67867666;;;;;;;;;;;;;;;
2234.0;1968.2;;;;0.27167132;-0.19571689;0.67042166;;;;;;;;;;;;;;;
2234.0;1970.5;;;;;;;;;;;;;;;;;-16.41133;-16.155737;123.72967;;1877.5
2234.0;1970.5;;;;;;;;;;;;;;-0.14862514;0.10095523;-0.028138066;;;;;1877.5
2234.0;1970.5;;;;;;;;;;;;;;;;;-20.46266;-17.437513;124.95041;;1877.5
2234.0;1970.5;;;;;;;;;;;;;;-0.13940856;0.08581805;0.013489181;;;;;1877.5
2234.0;1970.5;;;;;;;;;;;;;;;;;-22.358622;-16.365551;124.988556;;1887.1
2234.0;1970.5;;;;;;;;;;;;;;-0.12335581;0.03790399;0.069093905;;;;;1887.1
2234.0;1970.5;;;;;;;;;;;;;;;;;-20.725883;-12.9017;124.988556;;1887.1
2234.0;1970.5;;;;;;;;;;;;;;-0.11957152;-0.030213324;0.13757744;;;;;1887.1
2234.0;1970.5;;;;;;;;;;;;;;;;;-17.956327;-9.784997;124.988556;;1896.6
2234.0;1970.5;;;;;;;;;;;;;;-0.12970367;-0.09320353;0.18585773;;;;;1896.6
2234.0;1970.5;;;;;;;;;;;;;;;;;-19.138922;-6.408887;124.988556;;1896.6
2234.0;1970.5;;;;;;;;;;;;;;-0.121097445;-0.14514603;0.25269327;;;;;1896.6
2234.0;1976.4;;;;;;;;;;-104.36567;10.143589;-124.881744;;;;;;;;;
2234.0;1976.4;;;;;;;-0.12292856;1.5850093;0.015015107;;;;;;;;;;;;
2234.0;1976.4;;;;;;;;;;-101.87841;7.4961085;-124.881744;;;;;;;;;
2234.0;1976.4;;;;;;;-0.112308115;1.5478377;0.003173925;;;;;;;;;;;;
2293.0;1978.1;;;;0.2863045;-0.20492557;0.6623879;;;;;;;;;;;;;;;
2293.0;1978.1;;;;0.3047295;-0.22032169;0.65458304;;;;;;;;;;;;;;;
2293.0;1978.1;;;;0.32674792;-0.23370364;0.64908224;;;;;;;;;;;;;;;
2293.0;1978.1;;;;0.34424213;-0.2445679;0.6495438;;;;;;;;;;;;;;;
2293.0;1978.1;;;;0.36286166;-0.25779346;0.65159994;;;;;;;;;;;;;;;
2293.0;1981.6;262143;262143;14274;;;;;;;;;;;;;;;;;;
2293.0;1985.9;;;;;;;;;;-99.39878;4.589221;-124.881744;;;;;;;;;
2293.0;1985.9;;;;;;;-0.10388501;1.5128025;-0.013611255;;;;;;;;;;;;
2293.0;1985.9;;;;;;;;;;-96.76275;1.7471846;-124.881744;;;;;;;;;
2293.0;1985.9;;;;;;;-0.08972442;1.4753258;-0.03485214;;;;;;;;;;;;
2293.0;1988.2;;;;0.3808213;-0.27469257;0.65261084;;;;;;;;;;;;;;;
2293.0;1988.2;;;;0.39540106;-0.29532626;0.6533814;;;;;;;;;;;;;;;
2293.0;1988.2;;;;0.4068833;-0.31927875;0.65412146;;;;;;;;;;;;;;;
2293.0;1988.2;;;;0.4163323;-0.34904101;0.65094763;;;;;;;;;;;;;;;
2293.0;1988.2;;;;0.43150717;-0.38130957;0.64552313;;;;;;;;;;;;;;;
2293.0;1995.4;;;;;;;;;;-94.02753;-1.1978515;-124.881744;;;;;;;;;
2293.0;1995.4;;;;;;;-0.0679342;1.4317454;-0.06060976;;;;;;;;;;;;
2293.0;1995.4;;;;;;;;;;-91.021454;-3.7156286;-124.881744;;;;;;;;;
2293.0;1995.4;;;;;;;-0.03625599;1.3881038;-0.091921754;;;;;;;;;;;;
2297.0;1998.2;;;;0.44496924;-0.4150048;0.6447869;;;;;;;;;;;;;;;
2297.0;1998.2;;;;0.45511252;-0.44715506;0.64697653;;;;;;;;;;;;;;;
2297.0;1998.2;;;;0.4635964;-0.4777184;0.651558;;;;;;;;;;;;;;;
2297.0;1998.2;;;;0.46879584;-0.50596625;0.6570206;;;;;;;;;;;;;;;
2297.0;1998.2;;;;0.474701;-0.53422934;0.6593209;;;;;;;;;;;;;;;
2297.0;2001.8;262143;262143;14268;;;;;;;;;;;;;;;;;;
2297.0;2005.0;;;;;;;;;;-87.7636;-4.9630723;-124.881744;;;;;;;;;
2297.0;2005.0;;;;;;;-0.0044557024;1.3398846;-0.115421005;;;;;;;;;;;;
2297.0;2005.0;;;;;;;;;;-84.204384;-6.2524796;-124.881744;;;;;;;;;
2297.0;2005.0;;;;;;;0.016113773;1.2974639;-0.13824885;;;;;;;;;;;;
2297.0;2007.7;;;;;;;;;;;;;713;;;;;;;;
2297.0;2007.7;;;;;;;;;;;;;516;;;;;;;;
2297.0;2007.7;;;;;;;;;;;;;266;;;;;;;;
2297.0;2007.7;;;;;;;;;;;;;174;;;;;;;;
2297.0;2007.7;;;;;;;;;;;;;153;;;;;;;;
2297.0;2008.3;;;;0.48572928;-0.5644379;0.6598626;;;;;;;;;;;;;;;
2297.0;2008.3;;;;0.4963532;-0.59276587;0.6637421;;;;;;;;;;;;;;;
2297.0;2008.3;;;;0.50368506;-0.61801153;0.6692048;;;;;;;;;;;;;;;
2297.0;2008.3;;;;0.5114632;-0.64509207;0.6724282;;;;;;;;;;;;;;;
2297.0;2008.3;;;;0.5207787;-0.67408377;0.67322165;;;;;;;;;;;;;;;
2297.0;2014.6;;;;;;;;;;-80.56505;-7.133702;-124.881744;;;;;;;;;
2297.0;2014.6;;;;;;;0.033082064;1.2636493;-0.1604053;;;;;;;;;;;;
2297.0;2014.6;;;;;;;;;;-76.76931;-7.2977386;-124.881744;;;;;;;;;
2297.0;2014.6;;;;;;;0.03625599;1.2257454;-0.17700736;;;;;;;;;;;;
2300.0;2018.4;;;;0.52815634;-0.70280844;0.6727639;;;;;;;;;;;;;;;
2300.0;2018.4;;;;0.5367852;-0.7310563;0.6713715;;;;;;;;;;;;;;;
2300.0;2018.4;;;;0.5462571;-0.7576028;0.66842276;;;;;;;;;;;;;;;
2300.0;2018.4;;;;0.5577622;-0.7826463;0.6639367;;;;;;;;;;;;;;;
2300.0;2018.4;;;;0.56932837;-0.80608;0.65754706;;;;;;;;;;;;;;;
2300.0;2022.0;262143;262143;14260;;;;;;;;;;;;;;;;;;
2300.0;2023.4;;;;;;;;;;;;;;;;;-24.117252;-2.2888882;124.988556;;1906.3
2300.0;2023.4;;;;;;;;;;;;;;-0.13135166;-0.20368053;0.29932556;;;;;1906.3
2300.0;2023.4;;;;;;;;;;;;;;;;;-26.3184;-1.0986663;124.988556;;1906.3
2300.0;2023.4;;;;;;;;;;;;;;-0.15344706;-0.24823755;0.2969451;;;;;1906.3
2300.0;2023.4;;;;;;;;;;;;;;;;;-21.263771;-1.7090366;124.988556;;1915.9
2300.0;2023.4;;;;;;;;;;;;;;-0.17712943;-0.2807703;0.2992645;;;;;1915.9
2300.0;2023.4;;;;;;;;;;;;;;;;;-11.352885;-6.2562943;124.988556;;1915.9
2300.0;2023.4;;;;;;;;;;;;;;-0.19104587;-0.29657888;0.2606891;;;;;1915.9
2300.0;2023.4;;;;;;;;;;;;;;;;;5.9244056;-14.988402;124.988556;;1925.5
2300.0;2023.4;;;;;;;;;;;;;;-0.17944884;-0.2565386;0.16876736;;;;;1925.5
2300.0;2023.4;;;;;;;;;;;;;;;;;29.583881;-29.339733;124.988556;;1925.5
2300.0;2023.4;;;;;;;;;;;;;;-0.14441359;-0.15936765;0.043397322;;;;;1925.5
2300.0;2024.1;;;;;;;;;;-72.63787;-7.0574055;-124.881744;;;;;;;;;
2300.0;2024.1;;;;;;;0.05267495;1.1938841;-0.18213446;;;;;;;;;;;;
2300.0;2024.1;;;;;;;;;;-68.02576;-6.389813;-124.84359;;;;;;;;;
2300.0;2024.1;;;;;;;0.057313763;1.1695913;-0.18732262;;;;;;;;;;;;
2303.0;2024.6;;;;;;;;;;;;;;;;;53.315838;-53.876614;124.988556;;1935.0
2303.0;2024.6;;;;;;;;;;;;;;-0.059266947;-0.06122013;-0.14606158;;;;;1935.0
2303.0;2024.6;;;;;;;;;;;;;;;;;68.09061;-83.83053;124.98474;;1935.0
2303.0;2024.6;;;;;;;;;;;;;;0.12506485;-0.030457472;-0.33228552;;;;;1935.0
2303.0;2024.6;;;;;;;;;;;;;;;;;66.053505;-101.41682;123.40922;;1944.7
2303.0;2024.6;;;;;;;;;;;;;;0.34992522;-0.0380871;-0.37482834;;;;;1944.7
2303.0;2024.6;;;;;;;;;;;;;;;;;53.716393;-94.91638;118.43852;;1944.7
2303.0;2024.6;;;;;;;;;;;;;;0.4839015;-0.09387494;-0.28193;;;;;1944.7
2303.0;2024.6;;;;;;;;;;;;;;;;;49.64217;-83.68557;112.643814;;1954.4
2303.0;2024.6;;;;;;;;;;;;;;0.5080111;-0.14795373;-0.20075075;;;;;1954.4
2303.0;2024.6;;;;;;;;;;;;;;;;;56.810204;-83.23542;108.71456;;1954.4
2303.0;2024.6;;;;;;;;;;;;;;0.5892514;-0.08239998;-0.17242958;;;;;1954.4
2303.0;2028.3;;;;0.5806046;-0.8278085;0.65061575;;;;;;;;;;;;;;;
2303.0;2028.3;;;;0.59273916;-0.84741986;0.6428147;;;;;;;;;;;;;;;
2303.0;2028.3;;;;0.604065;-0.8652421;0.63462836;;;;;;;;;;;;;;;
2303.0;2028.3;;;;0.6150399;-0.8817483;0.62639624;;;;;;;;;;;;;;;
2303.0;2028.3;;;;0.6259766;-0.8963777;0.6182175;;;;;;;;;;;;;;;
2303.0;2033.6;;;;;;;;;;-63.425095;-6.015961;-124.17219;;;;;;;;;
2303.0;2033.6;;;;;;;0.06573687;1.1442;-0.19031343;;;;;;;;;;;;
2303.0;2033.6;;;;;;;;;;-58.618427;-5.8061466;-122.85226;;;;;;;;;
2303.0;2033.6;;;;;;;0.07495346;1.131016;-0.19147313;;;;;;;;;;;;
2309.0;2038.3;;;;0.63618094;-0.9102708;0.6122094;;;;;;;;;;;;;;;
2309.0;2038.3;;;;0.64490515;-0.9229585;0.6070252;;;;;;;;;;;;;;;
2309.0;2038.3;;;;0.65190893;-0.9337274;0.60189825;;;;;;;;;;;;;;;
2309.0;2038.3;;;;0.657734;-0.9445344;0.5961953;;;;;;;;;;;;;;;
2309.0;2038.3;;;;0.6614838;-0.9534341;0.58953863;;;;;;;;;;;;;;;
2309.0;2041.9;262143;262143;14267;;;;;;;;;;;;;;;;;;
2309.0;2043.1;;;;;;;;;;-54.08643;-6.050295;-120.967735;;;;;;;;;
2309.0;2043.1;;;;;;;0.07647938;1.1122166;-0.19202246;;;;;;;;;;;;
2309.0;2043.1;;;;;;;;;;-49.92065;-6.599628;-118.23252;;;;;;;;;
2309.0;2043.1;;;;;;;0.07702872;1.0928068;-0.18591876;;;;;;;;;;;;
2309.0;2047.9;;;;;;;;;;;;;81;;;;;;;;
2309.0;2047.9;;;;;;;;;;;;;-76;;;;;;;;
2309.0;2047.9;;;;;;;;;;;;;-201;;;;;;;;
2309.0;2047.9;;;;;;;;;;;;;-330;;;;;;;;
2309.0;2047.9;;;;;;;;;;;;;-550;;;;;;;;
2309.0;2048.4;;;;0.6641274;-0.9620706;0.58398443;;;;;;;;;;;;;;;
2309.0;2048.4;;;;0.6643258;-0.97151196;0.57734686;;;;;;;;;;;;;;;
2309.0;2048.4;;;;0.6635285;-0.98235714;0.5682526;;;;;;;;;;;;;;;
2309.0;2048.4;;;;0.6618081;-0.99421704;0.5590134;;;;;;;;;;;;;;;
2309.0;2048.4;;;;0.6599923;-1.0097085;0.54982764;;;;;;;;;;;;;;;
2309.0;2052.6;;;;;;;;;;-45.85406;-7.477035;-115.028076;;;;;;;;;
2309.0;2052.6;;;;;;;0.08130131;1.0760826;-0.1734672;;;;;;;;;;;;
2309.0;2052.6;;;;;;;;;;-41.81799;-8.735923;-111.77404;;;;;;;;;
2309.0;2052.6;;;;;;;0.08008057;1.0616779;-0.1640675;;;;;;;;;;;;
2311.0;2058.4;;;;0.6574097;-1.0277673;0.54071814;;;;;;;;;;;;;;;
2311.0;2058.4;;;;0.6535111;-1.0481073;0.5340081;;;;;;;;;;;;;;;
2311.0;2058.4;;;;0.6464692;-1.0716249;0.52768713;;;;;;;;;;;;;;;
2311.0;2058.4;;;;0.6377869;-1.0990487;0.5226403;;;;;;;;;;;;;;;
2311.0;2058.4;;;;0.6274796;-1.1290971;0.5174065;;;;;;;;;;;;;;;
2311.0;2062.3;;;;;;;;;;-38.00699;-10.677664;-107.82953;;;;;;;;;
2311.0;2062.3;;;;;;;0.08404797;1.043794;-0.15619373;;;;;;;;;;;;
2311.0;2062.3;;;;;;;;;;-34.295174;-13.012329;-104.091;;;;;;;;;
2311.0;2062.3;;;;;;;0.091372415;1.0263375;-0.14703818;;;;;;;;;;;;
2311.0;2062.1;262143;262143;14261;;;;;;;;;;;;;;;;;;
2311.0;2068.5;;;;0.6166268;-1.1622888;0.5120354;;;;;;;;;;;;;;;
2311.0;2068.5;;;;0.60470587;-1.1973573;0.5070496;;;;;;;;;;;;;;;
2311.0;2068.5;;;;0.5920716;-1.234253;0.50264364;;;;;;;;;;;;;;;
2311.0;2068.5;;;;0.57872397;-1.2718087;0.49906546;;;;;;;;;;;;;;;
2311.0;2068.5;;;;0.5654374;-1.309681;0.4952355;;;;;;;;;;;;;;;
2311.0;2071.9;;;;;;;;;;-30.796991;-15.617847;-100.40208;;;;;;;;;
2311.0;2071.9;;;;;;;0.09143346;1.007416;-0.14258248;;;;;;;;;;;;
2311.0;2071.9;;;;;;;;;;-27.451399;-18.597218;-95.885345;;;;;;;;;
2311.0;2071.9;;;;;;;0.09643849;0.98422194;-0.13556322;;;;;;;;;;;;
2312.0;2078.6;;;;0.55286413;-1.3474847;0.49156958;;;;;;;;;;;;;;;
2312.0;2078.6;;;;0.5405999;-1.383278;0.48813254;;;;;;;;;;;;;;;
2312.0;2078.6;;;;0.52789694;-1.4184724;0.48470694;;;;;;;;;;;;;;;
2312.0;2078.6;;;;0.5145493;-1.4510843;0.47988135;;;;;;;;;;;;;;;
2312.0;2078.6;;;;0.5006028;-1.4815179;0.47560507;;;;;;;;;;;;;;;
2312.0;2081.5;;;;;;;;;;-24.193548;-21.668142;-90.7239;;;;;;;;;
2312.0;2081.5;;;;;;;0.10742515;0.95736563;-0.13165686;;;;;;;;;;;;
2312.0;2081.5;;;;;;;;;;-20.924253;-24.544512;-85.38316;;;;;;;;;
2312.0;2081.5;;;;;;;0.12970367;0.9265419;-0.1363567;;;;;;;;;;;;
2312.0;2082.3;262143;262143;14266;;;;;;;;;;;;;;;;;;
2312.0;2083.6;;;;;;;;;;;;;;;;;60.6975;-86.40172;103.49208;;1964.0
2312.0;2083.6;;;;;;;;;;;;;;0.718894;0.086794645;-0.075014494;;;;;1964.0
2312.0;2083.6;;;;;;;;;;;;;;;;;64.0202;-108.42464;98.635826;;1964.0
2312.0;2083.6;;;;;;;;;;;;;;0.8459731;0.22553179;-0.16187018;;;;;1964.0
2312.0;2083.6;;;;;;;;;;;;;;;;;74.85809;-124.59944;95.83957;;1973.6
2312.0;2083.6;;;;;;;;;;;;;;1.1425519;0.3081149;-0.66554767;;;;;1973.6
2312.0;2083.6;;;;;;;;;;;;;;;;;92.177345;-124.988556;100.47456;;1973.6
2312.0;2083.6;;;;;;;;;;;;;;1.6161993;0.3834956;-1.2607807;;;;;1973.6
2312.0;2083.6;;;;;;;;;;;;;;;;;87.469864;-122.10074;105.92212;;1983.1
2312.0;2083.6;;;;;;;;;;;;;;1.996765;0.51423687;-1.8907437;;;;;1983.1
2312.0;2083.6;;;;;;;;;;;;;;;;;53.037354;-1.1597034;80.5269;;1983.1
2312.0;2083.6;;;;;;;;;;;;;;1.996765;0.8401135;-1.9168676;;;;;1983.1
2313.0;2084.4;;;;;;;;;;;;;;;;;-29.435102;118.8963;16.98355;;1992.7
2313.0;2084.4;;;;;;;;;;;;;;1.996765;1.4563433;-0.6491287;;;;;1992.7
2313.0;2084.4;;;;;;;;;;;;;;;;;-105.098114;84.253975;-24.189734;;1992.7
2313.0;2084.4;;;;;;;;;;;;;;1.9337138;0.9360637;-0.23682363;;;;;1992.7
2313.0;2084.4;;;;;;;;;;;;;;;;;-92.34519;-7.145146;-29.622028;;2002.4
2313.0;2084.4;;;;;;;;;;;;;;0.47035128;0.516129;0.14600055;;;;;2002.4
2313.0;2084.4;;;;;;;;;;;;;;;;;-53.132725;-78.61568;-33.680992;;2002.4
2313.0;2084.4;;;;;;;;;;;;;;-0.34156317;0.22333445;-0.34028137;;;;;2002.4
2313.0;2084.4;;;;;;;;;;;;;;;;;0.7095553;-38.82336;-25.955992;;2012.0
2313.0;2084.4;;;;;;;;;;;;;;-0.76052123;0.075319685;-0.17151402;;;;;2012.0
2313.0;2084.4;;;;;;;;;;;;;;;;;3.9864802;-11.15833;-16.319773;;2012.0
2313.0;2084.4;;;;;;;;;;;;;;-0.6819666;-0.059144873;0.07129124;;;;;2012.0
2313.0;2088.1;;;;;;;;;;;;;-738;;;;;;;;
2313.0;2088.1;;;;;;;;;;;;;-937;;;;;;;;
2313.0;2088.1;;;;;;;;;;;;;-1454;;;;;;;;
2313.0;2088.1;;;;;;;;;;;;;-2025;;;;;;;;
2313.0;2088.1;;;;;;;;;;;;;-1942;;;;;;;;
2313.0;2088.5;;;;0.4852906;-1.5087626;0.47175223;;;;;;;;;;;;;;;
2313.0;2088.5;;;;0.46947485;-1.531975;0.4667626;;;;;;;;;;;;;;;
2313.0;2088.5;;;;0.4527474;-1.5516741;0.46122366;;;;;;;;;;;;;;;
2313.0;2088.5;;;;0.43595892;-1.5678866;0.45503622;;;;;;;;;;;;;;;
2313.0;2088.5;;;;0.4183312;-1.5828898;0.44776922;;;;;;;;;;;;;;;
2313.0;2090.9;;;;;;;;;;-17.780846;-26.783808;-79.72961;;;;;;;;;
2313.0;2090.9;;;;;;;0.15887935;0.89474165;-0.14349803;;;;;;;;;;;;
2313.0;2090.9;;;;;;;;;;-14.805292;-28.13425;-73.09946;;;;;;;;;
2313.0;2090.9;;;;;;;0.19507432;0.8614765;-0.15271463;;;;;;;;;;;;
2314.0;2098.7;;;;;;;;;;;;;;;;;-20.168919;-0.2784814;15.358439;;2021.6
2314.0;2098.7;;;;;;;;;;;;;;0.078127384;-0.054567095;0.34662923;;;;;2021.6
2314.0;2098.7;;;;;;;;;;;;;;;;;-17.567217;5.767998;46.674244;;2021.6
2314.0;2098.7;;;;;;;;;;;;;;0.5557421;0.031189917;-0.02356029;;;;;2021.6
2314.0;2098.7;;;;;;;;;;;;;;;;;-5.043184;58.133945;63.505203;;2031.2
2314.0;2098.7;;;;;;;;;;;;;;0.76400036;0.11084323;0.03234962;;;;;2031.2
2314.0;2098.7;;;;;;;;;;;;;;;;;-11.127811;68.342384;86.5276;;2031.2
2314.0;2098.7;;;;;;;;;;;;;;0.8556169;0.047853023;0.26557207;;;;;2031.2
2314.0;2098.7;;;;;;;;;;;;;;;;;-27.424694;31.437881;97.51427;;2040.8
2314.0;2098.7;;;;;;;;;;;;;;0.84212774;-0.11114841;0.17542039;;;;;2040.8
2314.0;2098.7;;;;;;;;;;;;;;;;;-23.079622;5.775628;86.45894;;2040.8
2314.0;2098.7;;;;;;;;;;;;;;0.65547657;-0.18353832;-0.03112888;;;;;2040.8
2314.0;2098.5;;;;0.40029532;-1.5948107;0.44084555;;;;;;;;;;;;;;;
2314.0;2098.5;;;;0.381939;-1.6053355;0.4353333;;;;;;;;;;;;;;;
2314.0;2098.5;;;;0.363987;-1.6151087;0.430893;;;;;;;;;;;;;;;
2314.0;2098.5;;;;0.34702304;-1.6247447;0.42486197;;;;;;;;;;;;;;;
2314.0;2098.5;;;;0.3303986;-1.6339343;0.41878515;;;;;;;;;;;;;;;
2314.0;2100.4;;;;;;;;;;-11.88696;-28.225805;-65.5385;;;;;;;;;
2314.0;2100.4;;;;;;;0.23767816;0.82863855;-0.16180913;;;;;;;;;;;;
2314.0;2100.4;;;;;;;;;;-9.254738;-26.753288;-57.668537;;;;;;;;;
2314.0;2100.4;;;;;;;0.26667073;0.7957396;-0.17017122;;;;;;;;;;;;
2314.0;2102.2;262143;262143;14268;;;;;;;;;;;;;;;;;;
2315.0;2108.5;;;;0.31410983;-1.6428912;0.41284186;;;;;;;;;;;;;;;
2315.0;2108.5;;;;0.2979851;-1.6537058;0.40687186;;;;;;;;;;;;;;;
2315.0;2108.5;;;;0.28268817;-1.6653445;0.40170676;;;;;;;;;;;;;;;
2315.0;2108.5;;;;0.26772693;-1.6796267;0.3961602;;;;;;;;;;;;;;;
2315.0;2108.5;;;;0.2526398;-1.6951067;0.39288336;;;;;;;;;;;;;;;
2315.0;2110.0;;;;;;;;;;-6.618702;-23.991364;-49.645985;;;;;;;;;
2315.0;2110.0;;;;;;;0.27503282;0.76400036;-0.16760765;;;;;;;;;;;;
2315.0;2110.0;;;;;;;;;;-4.20011;-21.637625;-41.59673;;;;;;;;;
2315.0;2110.0;;;;;;;0.2757042;0.7270119;-0.15912351;;;;;;;;;;;;
2315.0;2118.2;;;;0.23763278;-1.7121089;0.388588;;;;;;;;;;;;;;;
2315.0;2118.2;;;;0.22335055;-1.7305872;0.38363653;;;;;;;;;;;;;;;
2315.0;2118.2;;;;0.2092438;-1.7493708;0.3793488;;;;;;;;;;;;;;;
2315.0;2118.2;;;;0.19470218;-1.7674677;0.37612158;;;;;;;;;;;;;;;
2315.0;2118.2;;;;0.18017961;-1.7854235;0.37202075;;;;;;;;;;;;;;;
2315.0;2119.2;;;;;;;;;;-1.5602587;-20.355846;-34.53932;;;;;;;;;
2315.0;2119.2;;;;;;;0.26703694;0.68874174;-0.15906247;;;;;;;;;;;;
2315.0;2119.2;;;;;;;;;;0.9575182;-19.093143;-28.698843;;;;;;;;;
2315.0;2119.2;;;;;;;0.26178777;0.65285194;-0.16217536;;;;;;;;;;;;
2315.0;2122.1;262143;262143;14271;;;;;;;;;;;;;;;;;;
2315.0;2128.0;;;;;;;;;;;;;-1372;;;;;;;;
2315.0;2128.0;;;;;;;;;;;;;-1200;;;;;;;;
2315.0;2128.0;;;;;;;;;;;;;-1601;;;;;;;;
2315.0;2128.0;;;;;;;;;;;;;-1933;;;;;;;;
2315.0;2128.0;;;;;;;;;;;;;-1798;;;;;;;;
2316.0;2128.4;;;;0.16819002;-1.8032801;0.3679047;;;;;;;;;;;;;;;
2316.0;2128.4;;;;0.15676881;-1.8184245;0.36637118;;;;;;;;;;;;;;;
2316.0;2128.4;;;;0.14455797;-1.830971;0.36656955;;;;;;;;;;;;;;;
2316.0;2128.4;;;;0.13272478;-1.8413279;0.36597827;;;;;;;;;;;;;;;
2316.0;2128.4;;;;0.121669784;-1.8489115;0.36399463;;;;;;;;;;;;;;;
2316.0;2128.9;;;;;;;;;;3.1052582;-17.101809;-23.369549;;;;;;;;;
2316.0;2128.9;;;;;;;0.27088228;0.6242256;-0.16547136;;;;;;;;;;;;
2316.0;2128.9;;;;;;;;;;4.902035;-15.297402;-17.967772;;;;;;;;;
2316.0;2128.9;;;;;;;0.28962067;0.6000549;-0.16608173;;;;;;;;;;;;
2316.0;2138.5;;;;0.11158754;-1.8544047;0.36148074;;;;;;;;;;;;;;;
2316.0;2138.5;;;;0.10354997;-1.8564379;0.35892108;;;;;;;;;;;;;;;
2316.0;2138.5;;;;0.09798814;-1.8565257;0.3560715;;;;;;;;;;;;;;;
2316.0;2138.5;;;;0.09423448;-1.8527949;0.3536568;;;;;;;;;;;;;;;
2316.0;2138.5;;;;0.09227372;-1.8474505;0.35115054;;;;;;;;;;;;;;;
2316.0;2138.5;;;;;;;;;;6.660665;-14.458144;-12.19596;;;;;;;;;
2316.0;2138.5;;;;;;;0.30359814;0.5785699;-0.16479996;;;;;;;;;;;;
2316.0;2138.5;;;;;;;;;;8.381146;-13.8859215;-6.9353313;;;;;;;;;
2316.0;2138.5;;;;;;;0.3010956;0.56050295;-0.16583759;;;;;;;;;;;;
2316.0;2142.4;262143;262143;14284;;;;;;;;;;;;;;;;;;
2317.0;2143.7;;;;;;;;;;;;;;;;;-11.139256;-5.878628;79.64949;;2050.5
2317.0;2143.7;;;;;;;;;;;;;;0.51454204;-0.025635548;-0.09479049;;;;;2050.5
2317.0;2143.7;;;;;;;;;;;;;;;;;-0.23270364;-33.81451;94.57686;;2050.5
2317.0;2143.7;;;;;;;;;;;;;;0.5533616;-0.0949736;-0.22650838;;;;;2050.5
2317.0;2143.7;;;;;;;;;;;;;;;;;18.94055;-59.667503;103.39289;;2060.1
2317.0;2143.7;;;;;;;;;;;;;;0.6596881;-0.05566576;-0.41114536;;;;;2060.1
2317.0;2143.7;;;;;;;;;;;;;;;;;38.895844;-70.76861;107.10471;;2060.1
2317.0;2143.7;;;;;;;;;;;;;;0.75984985;0.042725913;-0.5009919;;;;;2060.1
2317.0;2143.7;;;;;;;;;;;;;;;;;53.16706;-74.671165;109.03501;;2069.7
2317.0;2143.7;;;;;;;;;;;;;;0.8449355;0.09784234;-0.55024874;;;;;2069.7
2317.0;2143.7;;;;;;;;;;;;;;;;;60.033722;-72.20298;107.6426;;2069.7
2317.0;2143.7;;;;;;;;;;;;;;0.9544969;0.15601063;-0.5617237;;;;;2069.7
2317.0;2148.0;;;;;;;;;;9.697257;-13.309885;-2.1515548;;;;;;;;;
2317.0;2148.0;;;;;;;0.29059726;0.54597616;-0.15826899;;;;;;;;;;;;
2317.0;2148.0;;;;;;;;;;11.093478;-13.157292;2.1553698;;;;;;;;;
2317.0;2148.0;;;;;;;0.2806482;0.5323649;-0.14087345;;;;;;;;;;;;
2317.0;2148.5;;;;0.089889534;-1.8398554;0.3490639;;;;;;;;;;;;;;;
2317.0;2148.5;;;;0.08978272;-1.8315432;0.3483887;;;;;;;;;;;;;;;
2317.0;2148.5;;;;0.09090043;-1.8225596;0.34533694;;;;;;;;;;;;;;;
2317.0;2148.5;;;;0.09415819;-1.8136256;0.34148028;;;;;;;;;;;;;;;
2317.0;2148.5;;;;0.09894945;-1.8051875;0.33713916;;;;;;;;;;;;;;;
2317.0;2157.6;;;;;;;;;;46722;-13.084811;5.7184057;;;;;;;;;
2317.0;2157.6;;;;;;;0.26575518;0.52449113;-0.13251136;;;;;;;;;;;;
2317.0;2157.6;;;;;;;;;;13.824884;-12.798699;9.414961;;;;;;;;;
2317.0;2157.6;;;;;;;0.2567217;0.5221717;-0.12738426;;;;;;;;;;;;
2317.0;2158.5;;;;0.104217544;-1.7950327;0.332943;;;;;;;;;;;;;;;
2317.0;2158.5;;;;0.1110573;-1.7843516;0.3284569;;;;;;;;;;;;;;;
2317.0;2158.5;;;;0.11684801;-1.7756808;0.3211899;;;;;;;;;;;;;;;
2317.0;2158.5;;;;0.12218858;-1.7681887;0.31383136;;;;;;;;;;;;;;;
2317.0;2158.5;;;;0.12675478;-1.7619288;0.30655673;;;;;;;;;;;;;;;
2317.0;2159.1;;;;;;;;;;;;;;;;;58.362835;-69.349495;108.19193;;2079.4
2317.0;2159.1;;;;;;;;;;;;;;1.1132542;0.20160528;-0.5697806;;;;;2079.4
2317.0;2159.1;;;;;;;;;;;;;;;;;46.33473;-67.9342;111.05304;;2079.4
2317.0;2159.1;;;;;;;;;;;;;;1.3155309;0.20770897;-0.6085391;;;;;2079.4
2317.0;2159.1;;;;;;;;;;;;;;;;;27.53151;-63.386948;110.40833;;2089.0
2317.0;2159.1;;;;;;;;;;;;;;1.5784173;0.15997803;-0.67433697;;;;;2089.0
2317.0;2159.1;;;;;;;;;;;;;;;;;11.963256;-47.795803;100.60426;;2089.0
2317.0;2159.1;;;;;;;;;;;;;;1.8469192;0.1528367;-0.6866665;;;;;2089.0
2317.0;2159.1;;;;;;;;;;;;;;;;;4.402295;-25.399029;82.060455;;2098.7
2317.0;2159.1;;;;;;;;;;;;;;1.7260659;0.10345775;-0.64625996;;;;;2098.7
2317.0;2159.1;;;;;;;;;;;;;;;;;7.099368;2.6169622;58.74813;;2098.7
2317.0;2159.1;;;;;;;;;;;;;;1.230018;0.22400586;-0.55110323;;;;;2098.7
2317.0;2162.3;262143;262143;14297;;;;;;;;;;;;;;;;;;
2317.0;2167.0;;;;;;;;;;14.889218;-12.428662;12.88644;;;;;;;;;
2317.0;2167.0;;;;;;;0.26111636;0.5227821;-0.12891018;;;;;;;;;;;;
2317.0;2167.0;;;;;;;;;;15.907774;-11.864071;15.545365;;;;;;;;;
2317.0;2167.0;;;;;;;0.2620319;0.52699363;-0.13696708;;;;;;;;;;;;
2318.0;2168.2;;;;;;;;;;;;;-1563;;;;;;;;
2318.0;2168.2;;;;;;;;;;;;;-1581;;;;;;;;
2318.0;2168.2;;;;;;;;;;;;;-1323;;;;;;;;
2318.0;2168.2;;;;;;;;;;;;;-452;;;;;;;;
2318.0;2168.2;;;;;;;;;;;;;331;;;;;;;;
2318.0;2168.4;;;;0.13117982;-1.7553561;0.2993851;;;;;;;;;;;;;;;
2318.0;2168.4;;;;0.13734819;-1.7476847;0.2944565;;;;;;;;;;;;;;;
2318.0;2168.4;;;;0.14448549;-1.7407801;0.28768542;;;;;;;;;;;;;;;
2318.0;2168.4;;;;0.14854433;-1.7325785;0.28021243;;;;;;;;;;;;;;;
2318.0;2168.4;;;;0.15300752;-1.7224886;0.27440265;;;;;;;;;;;;;;;
2318.0;2176.4;;;;;;;;;;16.731773;-11.135441;18.24244;;;;;;;;;
2318.0;2176.4;;;;;;;0.26935637;0.5319376;-0.15509507;;;;;;;;;;;;
2318.0;2176.4;;;;;;;;;;17.16666;-10.464034;20.725883;;;;;;;;;
2318.0;2176.4;;;;;;;0.27283546;0.53639334;-0.15192114;;;;;;;;;;;;
2318.0;2178.3;;;;0.15656663;-1.7115672;0.26731113;;;;;;;;;;;;;;;
2318.0;2178.3;;;;0.15917207;-1.7005847;0.25862125;;;;;;;;;;;;;;;
2318.0;2178.3;;;;0.16279985;-1.6897547;0.25134662;;;;;;;;;;;;;;;
2318.0;2178.3;;;;0.16754152;-1.677109;0.24439624;;;;;;;;;;;;;;;
2318.0;2178.3;;;;0.1720276;-1.6624568;0.23838428;;;;;;;;;;;;;;;
2318.0;2182.3;262143;262143;14288;;;;;;;;;;;;;;;;;;
2318.0;2186.0;;;;;;;;;;17.689291;-11.970885;22.972807;;;;;;;;;
2318.0;2186.0;;;;;;;0.26691487;0.5370037;-0.14368114;;;;;;;;;;;;
2318.0;2186.0;;;;;;;;;;18.486588;-15.884884;25.002289;;;;;;;;;
2318.0;2186.0;;;;;;;0.2531205;0.5340739;-0.14166692;;;;;;;;;;;;
2319.0;2188.4;;;;0.17629625;-1.6472857;0.23206714;;;;;;;;;;;;;;;
2319.0;2188.4;;;;0.18024828;-1.6314433;0.22565082;;;;;;;;;;;;;;;
2319.0;2188.4;;;;0.1836815;-1.6147768;0.22077563;;;;;;;;;;;;;;;
2319.0;2188.4;;;;0.18674089;-1.5984118;0.21589664;;;;;;;;;;;;;;;
2319.0;2188.4;;;;0.19018558;-1.5813181;0.2103844;;;;;;;;;;;;;;;
2319.0;2195.6;;;;;;;;;;19.379255;-20.561846;26.604511;;;;;;;;;
2319.0;2195.6;;;;;;;0.2400586;0.53169346;-0.14477982;;;;;;;;;;;;
2319.0;2195.6;;;;;;;;;;20.35203;-25.27314;28.111362;;;;;;;;;
2319.0;2195.6;;;;;;;0.22907193;0.53346354;-0.14331493;;;;;;;;;;;;
2319.0;2198.5;;;;0.19186404;-1.5638392;0.2048302;;;;;;;;;;;;;;;
2319.0;2198.5;;;;0.19257739;-1.5470126;0.1997681;;;;;;;;;;;;;;;
2319.0;2198.5;;;;0.19196323;-1.5301707;0.19573978;;;;;;;;;;;;;;;
2319.0;2198.5;;;;0.19159701;-1.513241;0.19110873;;;;;;;;;;;;;;;
2319.0;2198.5;;;;0.1901398;-1.4968606;0.1875687;;;;;;;;;;;;;;;
2319.0;2202.6;262143;262143;14301;;;;;;;;;;;;;;;;;;
2320.0;2203.9;;;;;;;;;;;;;;;;;11.036257;12.504959;54.559467;;2108.3
2320.0;2203.9;;;;;;;;;;;;;;1.0554521;0.280282;-0.3707999;;;;;2108.3
2320.0;2203.9;;;;;;;;;;;;;;;;;15.099032;5.245369;57.28324;;2108.3
2320.0;2203.9;;;;;;;;;;;;;;1.0418409;0.26850185;-0.35279396;;;;;2108.3
2320.0;2203.9;;;;;;;;;;;;;;;;;18.429365;3.2197027;60.831017;;2117.9
2320.0;2203.9;;;;;;;;;;;;;;1.0508133;0.22418897;-0.35059664;;;;;2117.9
2320.0;2203.9;;;;;;;;;;;;;;;;;19.318218;1.945555;63.41365;;2117.9
2320.0;2203.9;;;;;;;;;;;;;;1.0335399;0.19629505;-0.3469344;;;;;2117.9
2320.0;2203.9;;;;;;;;;;;;;;;;;19.524216;-2.8992584;66.896576;;2127.6
2320.0;2203.9;;;;;;;;;;;;;;1.0202948;0.19519639;-0.37391278;;;;;2127.6
2320.0;2203.9;;;;;;;;;;;;;;;;;19.005402;-9.0487385;72.24494;;2127.6
2320.0;2203.9;;;;;;;;;;;;;;1.0141912;0.18115787;-0.39814448;;;;;2127.6
2320.0;2205.1;;;;;;;;;;21.187475;-30.056915;30.030212;;;;;;;;;
2320.0;2205.1;;;;;;;0.23432112;0.5411542;-0.13788262;;;;;;;;;;;;
2320.0;2205.1;;;;;;;;;;22.019106;-34.661396;32.124546;;;;;;;;;
2320.0;2205.1;;;;;;;0.24164556;0.5603809;-0.13177893;;;;;;;;;;;;
2320.0;2208.3;;;;;;;;;;;;;534;;;;;;;;
2320.0;2208.3;;;;;;;;;;;;;613;;;;;;;;
2320.0;2208.3;;;;;;;;;;;;;939;;;;;;;;
2320.0;2208.3;;;;;;;;;;;;;1317;;;;;;;;
2320.0;2208.3;;;;;;;;;;;;;1521;;;;;;;;
2320.0;2208.5;;;;0.1877785;-1.4797975;0.18315507;;;;;;;;;;;;;;;
2320.0;2208.5;;;;0.18592073;-1.4635316;0.17847826;;;;;;;;;;;;;;;
2320.0;2208.5;;;;0.18319322;-1.4463426;0.17377092;;;;;;;;;;;;;;;
2320.0;2208.5;;;;0.18210603;-1.4293329;0.16908266;;;;;;;;;;;;;;;
2320.0;2208.5;;;;0.18023302;-1.4126664;0.1648903;;;;;;;;;;;;;;;
2321.0;2214.7;;;;;;;;;;22.93466;-38.266396;35.06195;;;;;;;;;
2321.0;2214.7;;;;;;;0.24933623;0.5907773;-0.12732323;;;;;;;;;;;;
2321.0;2214.7;;;;;;;;;;24.0524;-40.82995;38.792843;;;;;;;;;
2321.0;2214.7;;;;;;;0.25251016;0.6366161;-0.11700796;;;;;;;;;;;;
2321.0;2218.6;;;;0.17855455;-1.3950235;0.16120149;;;;;;;;;;;;;;;
2321.0;2218.6;;;;0.1752968;-1.3779184;0.15370943;;;;;;;;;;;;;;;
2321.0;2218.6;;;;0.16999055;-1.3617631;0.14925005;;;;;;;;;;;;;;;
2321.0;2218.6;;;;0.16882707;-1.3446199;0.1448517;;;;;;;;;;;;;;;
2321.0;2218.6;;;;0.16730501;-1.3280374;0.14024736;;;;;;;;;;;;;;;
2321.0;2218.9;;;;;;;;;;;;;;;;;18.177588;-13.30607;78.001495;;2137.3
2321.0;2218.9;;;;;;;;;;;;;;1.0029603;0.16284677;-0.3942381;;;;;2137.3
2321.0;2218.9;;;;;;;;;;;;;;;;;18.03644;-15.820032;83.59401;;2137.3
2321.0;2218.9;;;;;;;;;;;;;;0.99588;0.14508499;-0.38264108;;;;;2137.3
2321.0;2218.9;;;;;;;;;;;;;;;;;18.95581;-16.148108;88.77453;;2146.8
2321.0;2218.9;;;;;;;;;;;;;;0.9998474;0.11651967;-0.37452316;;;;;2146.8
2321.0;2218.9;;;;;;;;;;;;;;;;;19.344921;-13.775291;93.15775;;2146.8
2321.0;2218.9;;;;;;;;;;;;;;1.0093081;0.11505478;-0.36201057;;;;;2146.8
2321.0;2218.9;;;;;;;;;;;;;;;;;18.436995;-9.8155155;96.98782;;2156.5
2321.0;2218.9;;;;;;;;;;;;;;1.0151067;0.10742515;-0.33295694;;;;;2156.5
2321.0;2218.9;;;;;;;;;;;;;;;;;16.876738;-5.94348;99.967186;;2156.5
2321.0;2218.9;;;;;;;;;;;;;;1.0132755;0.10180975;-0.30890834;;;;;2156.5
2321.0;2222.5;262143;262143;14306;;;;;;;;;;;;;;;;;;
2353.0;2224.1;;;;;;;;;;25.37614;-42.638172;42.87469;;;;;;;;;
2353.0;2224.1;;;;;;;0.25074008;0.6925871;-0.10364086;;;;;;;;;;;;
2353.0;2224.1;;;;;;;;;;26.989807;-43.63384;47.116764;;;;;;;;;
2353.0;2224.1;;;;;;;0.24011964;0.7506943;-0.08819849;;;;;;;;;;;;
2353.0;2228.5;;;;0.16728212;-1.3114892;0.1367264;;;;;;;;;;;;;;;
2353.0;2228.5;;;;0.16773607;-1.2948152;0.13227083;;;;;;;;;;;;;;;
2353.0;2228.5;;;;0.16750719;-1.2794152;0.12791826;;;;;;;;;;;;;;;
2353.0;2228.5;;;;0.16773988;-1.2647287;0.12450029;;;;;;;;;;;;;;;
2353.0;2228.5;;;;0.1675873;-1.2505075;0.12079622;;;;;;;;;;;;;;;
2353.0;2233.4;;;;;;;;;;29.129917;-44.015324;51.44276;;;;;;;;;
2353.0;2233.4;;;;;;;0.22821741;0.8069704;-0.070314646;;;;;;;;;;;;
2353.0;2233.4;;;;;;;;;;31.46077;-43.694878;55.61617;;;;;;;;;
2353.0;2233.4;;;;;;;0.21149327;0.863979;-0.05114902;;;;;;;;;;;;
2353.0;2237.8;;;;0.1680832;-1.2369081;0.11647417;;;;;;;;;;;;;;;
2353.0;2237.8;;;;0.16820146;-1.2233697;0.11525346;;;;;;;;;;;;;;;
2353.0;2237.8;;;;0.16852571;-1.2108423;0.112445846;;;;;;;;;;;;;;;
2353.0;2237.8;;;;0.16759874;-1.1997224;0.1094742;;;;;;;;;;;;;;;
2353.0;2237.8;;;;0.16799165;-1.1898233;0.107418075;;;;;;;;;;;;;;;
2353.0;2241.6;262143;262143;14303;;;;;;;;;;;;;;;;;;
2353.0;2242.2;;;;;;;;;;34.020508;-42.878506;59.770504;;;;;;;;;
2353.0;2242.2;;;;;;;0.18909268;0.9206824;-0.028565325;;;;;;;;;;;;
2353.0;2242.2;;;;;;;;;;36.687065;-41.768394;63.87906;;;;;;;;;
2353.0;2242.2;;;;;;;0.16278572;0.9698172;-0.0045167394;;;;;;;;;;;;
2355.0;2247.2;;;;;;;;;;;;;1564;;;;;;;;
2355.0;2247.2;;;;;;;;;;;;;1555;;;;;;;;
2355.0;2247.2;;;;;;;;;;;;;1552;;;;;;;;
2355.0;2247.2;;;;;;;;;;;;;1436;;;;;;;;
2355.0;2247.2;;;;;;;;;;;;;1170;;;;;;;;
2355.0;2247.2;;;;0.1675644;-1.1809388;0.104591385;;;;;;;;;;;;;;;
2355.0;2247.2;;;;0.16439821;-1.1737214;0.098030105;;;;;;;;;;;;;;;
2355.0;2247.2;;;;0.15314867;-1.1672517;0.09869005;;;;;;;;;;;;;;;
2355.0;2247.2;;;;0.15624239;-1.1607705;0.10257341;;;;;;;;;;;;;;;
2355.0;2247.2;;;;0.1588173;-1.1569787;0.09217454;;;;;;;;;;;;;;;
2355.0;2251.2;;;;;;;;;;39.368877;-40.540024;67.78924;;;;;;;;;
2355.0;2251.2;;;;;;;0.1342204;1.0210272;0.019775994;;;;;;;;;;;;
2355.0;2251.2;;;;;;;;;;42.08884;-39.33454;71.592606;;;;;;;;;
2355.0;2251.2;;;;;;;0.10345775;1.0670491;0.042786952;;;;;;;;;;;;
2355.0;2256.9;;;;0.16630937;-1.1553041;0.09121705;;;;;;;;;;;;;;;
2355.0;2256.9;;;;0.1659775;-1.1560632;0.080997474;;;;;;;;;;;;;;;
2355.0;2256.9;;;;0.16176225;-1.1560861;0.07489396;;;;;;;;;;;;;;;
2355.0;2256.9;;;;0.15947725;-1.1528741;0.06938172;;;;;;;;;;;;;;;
2355.0;2256.9;;;;0.15929033;-1.1490785;0.060199745;;;;;;;;;;;;;;;
2355.0;2260.7;;;;;;;;;;44.9118;-38.37321;75.39598;;;;;;;;;
2355.0;2260.7;;;;;;;0.07635731;1.1116062;0.06378368;;;;;;;;;;;;
2355.0;2260.7;;;;;;;;;;47.894985;-37.503433;79.34431;;;;;;;;;
2355.0;2260.7;;;;;;;0.054933317;1.1456648;0.08319346;;;;;;;;;;;;
2355.0;2261.1;262143;262143;14294;;;;;;;;;;;;;;;;;;
2356.0;2262.3;;;;;;;;;;;;;;;;;15.167699;-3.5248878;102.546005;;2166.0
2356.0;2262.3;;;;;;;;;;;;;;1.0031434;0.08850368;-0.2989593;;;;;2166.0
2356.0;2262.3;;;;;;;;;;;;;;;;;13.229774;-2.0371106;104.13297;;2166.0
2356.0;2262.3;;;;;;;;;;;;;;0.98623616;0.07660146;-0.29572436;;;;;2166.0
2356.0;2262.3;;;;;;;;;;;;;;;;;10.196997;-0.41199988;105.07141;;2175.6
2356.0;2262.3;;;;;;;;;;;;;;0.9606006;0.06750695;-0.28894925;;;;;2175.6
2356.0;2262.3;;;;;;;;;;;;;;;;;6.550035;1.9684439;105.22401;;2175.6
2356.0;2262.3;;;;;;;;;;;;;;0.92818993;0.06280709;-0.26221505;;;;;2175.6
2356.0;2262.3;;;;;;;;;;;;;;;;;3.7385175;3.4485915;104.518265;;2185.1
2356.0;2262.3;;;;;;;;;;;;;;0.89901423;0.06616413;-0.2329783;;;;;2185.1
2356.0;2262.3;;;;;;;;;;;;;;;;;1.53737;3.055666;103.717155;;2185.1
2356.0;2262.3;;;;;;;;;;;;;;0.87777334;0.06549272;-0.21570483;;;;;2185.1
2356.0;2266.9;;;;0.16155626;-1.1460382;0.052791603;;;;;;;;;;;;;;;
2356.0;2266.9;;;;0.16368867;-1.141411;0.04435349;;;;;;;;;;;;;;;
2356.0;2266.9;;;;0.16604616;-1.1373636;0.034328464;;;;;;;;;;;;;;;
