patientId;holterMac;flexMac;;;;;;;;;;;;;;;;;;;;
;CA:F3:0B:1E:33:78;D3:4A:5C:52:80:78;;;;;;;;;;;;;;;;;;;;
receivedTimeStamp;timeStamp;red;ir;green;adxl_accX;adxl_accY;adxl_accZ;lsm_accelX;lsm_accelY;lsm_accelZ;lsm_gyroX;lsm_gyroY;lsm_gyroZ;ecg;flex_lsm_accelX;flex_lsm_accelY;flex_lsm_accelZ;flex_lsm_gyroX;flex_lsm_gyroY;flex_lsm_gyroZ;flex_cmd;flexTimeStamp
272.0;212.7;;;;;;;;;;;;;;;;;;;;17;0.1
272.0;212.7;;;;;;;;;;;;;;;;;13.1801815;1.3046663;2.1210363;;127.4
272.0;212.7;;;;;;;;;;;;;;0.8818629;-0.5519578;-0.37849057;;;;;127.4
272.0;212.7;;;;;;;;;;;;;;;;;-7.953887;-17.193365;-5.9053316;;127.4
272.0;212.7;;;;;;;;;;;;;;0.96188235;-0.50325024;-0.31452376;;;;;127.4
272.0;212.7;;;;;;;;;;;;;;;;;-64.61913;-84.9292;-57.523575;;137.0
272.0;212.7;;;;;;;;;;;;;;0.9806818;-0.56282234;-0.30896938;;;;;137.0
272.0;212.7;;;;;;;;;;;;;;;;;-122.37922;-124.988556;-117.47337;;137.0
272.0;212.7;;;;;;;;;;;;;;0.9908139;-0.47810298;-0.27423933;;;;;137.0
330.0;213.5;;;;;;;;;;;;;;;;;-52.766502;-124.923706;-56.52791;;146.7
330.0;213.5;;;;;;;;;;;;;;0.99905396;-0.366039;-0.2709433;;;;;146.7
330.0;213.5;;;;;;;;;;;;;;;;;22.419659;-124.988556;22.698141;;146.7
330.0;213.5;;;;;;;;;;;;;;0.9717094;-0.3270974;-0.26575518;;;;;146.7
330.0;213.5;;;;;;;;;;;;;;;;;24.239326;-97.39601;46.075317;;156.4
330.0;213.5;;;;;;;;;;;;;;0.96676534;-0.34290597;-0.24903104;;;;;156.4
330.0;213.5;;;;;;;;;;;;;;;;;22.194586;-7.7898498;77.54754;;156.4
330.0;213.5;;;;;;;;;;;;;;0.9605396;-0.33533737;-0.23981445;;;;;156.4
330.0;213.5;;;;;;;;;;;;;;;;;20.199438;-0.12588885;78.16553;;165.9
330.0;213.5;;;;;;;;;;;;;;0.9751274;-0.26160467;-0.2649617;;;;;165.9
330.0;213.5;;;;;;;;;;;;;;;;;10.353404;4.3908505;71.03946;;165.9
330.0;213.5;;;;;;;;;;;;;;1.0224311;-0.15710929;-0.33185828;;;;;165.9
330.0;273.5;;;;;;;;;;;;;;;;;-5.855739;16.621143;54.81887;;175.6
330.0;273.5;;;;;;;;;;;;;;1.0280465;-0.035584584;-0.34205145;;;;;175.6
330.0;273.5;;;;;;;;;;;;;;;;;-11.528367;19.173254;55.192722;;175.6
330.0;273.5;;;;;;;;;;;;;;0.97885066;0.021851253;-0.2751549;;;;;175.6
330.0;273.5;;;;;;;;;;;;;;;;;-4.1314435;17.986847;71.764275;;185.2
330.0;273.5;;;;;;;;;;;;;;1.0044862;3.662221E-4;-0.17853329;;;;;185.2
330.0;273.5;;;;;;;;;;;;;;;;;-6.85522;17.971586;83.27357;;185.2
330.0;273.5;;;;;;;;;;;;;;0.93215734;-0.116763815;-0.13458663;;;;;185.2
330.0;273.5;;;;;;;;;;;;;;;;;-8.629108;9.678183;88.51512;;194.9
330.0;273.5;;;;;;;;;;;;;;0.8085574;-0.27680287;-0.16052736;;;;;194.9
330.0;273.5;;;;;;;;;;;;;;;;;-4.459517;2.4033327;86.40172;;194.9
330.0;273.5;;;;;;;;;;;;;;0.7676626;-0.2865688;-0.14075136;;;;;194.9
453.0;274.3;;;;;;;;;;;;;;;;;0.12588885;-7.980591;90.3119;;204.6
453.0;274.3;;;;;;;;;;;;;;0.73714405;-0.36103398;-0.13989685;;;;;204.6
453.0;274.3;;;;;;;;;;;;;;;;;3.4104435;-15.3698845;91.26942;;204.6
453.0;274.3;;;;;;;;;;;;;;0.7461165;-0.41755426;-0.22943816;;;;;204.6
453.0;274.3;;;;;;;;;;;;;;;;;7.3244424;-12.80633;78.82931;;214.2
453.0;274.3;;;;;;;;;;;;;;0.82161933;-0.32245857;-0.30805382;;;;;214.2
453.0;274.3;;;;;;;;;;;;;;;;;8.69396;-0.09155553;72.49672;;214.2
453.0;274.3;;;;;;;;;;;;;;0.8957793;-0.16675314;-0.24158452;;;;;214.2
453.0;274.3;;;;;;;;;;;;;;;;;3.055666;7.4083686;72.206795;;223.8
453.0;274.3;;;;;;;;;;;;;;0.89602345;-0.146733;-0.21436201;;;;;223.8
453.0;274.3;;;;;;;;;;;;;;;;;1.4572588;5.813776;70.513016;;223.8
453.0;274.3;;;;;;;;;;;;;;0.8971831;-0.09588916;-0.24573503;;;;;223.8
453.0;341.1;;;;;;;;;;;;;;;;;-3.746147;4.5930357;69.20834;;233.4
453.0;341.1;;;;;;;;;;;;;;0.91256446;-0.049073763;-0.27747428;;;;;233.4
453.0;341.1;;;;;;;;;;;;;;;;;-10.612812;9.315775;69.44868;;233.4
453.0;341.1;;;;;;;;;;;;;;0.90646076;-0.021729179;-0.24854274;;;;;233.4
453.0;341.1;;;;;;;;;;;;;;;;;-14.793848;13.557848;69.03287;;243.0
453.0;341.1;;;;;;;;;;;;;;0.90395826;0.0038453322;-0.2075869;;;;;243.0
453.0;341.1;;;;;;;;;;;;;;;;;-15.774254;11.829738;70.99368;;243.0
453.0;341.1;;;;;;;;;;;;;;0.92080444;0.014404736;-0.22229682;;;;;243.0
453.0;341.1;;;;;;;;;;;;;;;;;-16.106144;10.193182;74.6292;;252.7
453.0;341.1;;;;;;;;;;;;;;0.921659;0.017761772;-0.23688467;;;;;252.7
453.0;341.1;;;;;;;;;;;;;;;;;-21.591846;11.604663;77.21946;;252.7
453.0;341.1;;;;;;;;;;;;;;0.9016999;0.015015107;-0.23450422;;;;;252.7
455.0;341.9;;;;;;;;;;;;;;;;;-29.984434;15.106662;77.68868;;262.3
455.0;341.9;;;;;;;;;;;;;;0.88283944;0.012878811;-0.20252083;;;;;262.3
455.0;341.9;;;;;;;;;;;;;;;;;-37.362286;16.60207;78.17697;;262.3
455.0;341.9;;;;;;;;;;;;;;0.87563705;0.009643849;-0.19287698;;;;;262.3
455.0;341.9;;;;;;;;;;;;;;;;;-43.50032;17.239141;78.19986;;271.9
455.0;341.9;;;;;;;;;;;;;;0.8642231;4.8829615E-4;-0.19989623;;;;;271.9
455.0;341.9;;;;;;;;;;;;;;;;;-46.857357;18.04407;77.822205;;271.9
455.0;341.9;;;;;;;;;;;;;;0.85659355;0.007873775;-0.20056765;;;;;271.9
455.0;341.9;;;;;;;;;;;;;;;;;-47.914062;18.63155;77.94046;;281.6
455.0;341.9;;;;;;;;;;;;;;0.847438;0.021729179;-0.18793298;;;;;281.6
455.0;341.9;;;;;;;;;;;;;;;;;-48.368023;18.177588;79.00098;;281.6
455.0;341.9;;;;;;;;;;;;;;0.83516955;0.012207404;-0.16772974;;;;;281.6
455.0;393.9;;;;;;;;;;;;;;;;;-50.03891;16.693626;79.1879;;291.2
455.0;393.9;;;;;;;;;;;;;;0.8480483;0.02008118;-0.17493209;;;;;291.2
455.0;393.9;;;;;;;;;;;;;;;;;-53.651543;15.911589;78.91323;;291.2
455.0;393.9;;;;;;;;;;;;;;0.85238194;0.017883847;-0.1993469;;;;;291.2
455.0;393.9;;;;;;;;;;;;;;;;;-55.272835;14.873959;78.7759;;300.9
455.0;393.9;;;;;;;;;;;;;;0.86239207;0.023621326;-0.2066103;;;;;300.9
455.0;393.9;;;;;;;;;;;;;;;;;-57.134464;15.694143;77.16224;;300.9
455.0;393.9;;;;;;;;;;;;;;0.885403;0.041077916;-0.1848201;;;;;300.9
455.0;393.9;;;;;;;;;;;;;;;;;-59.751427;18.34544;72.39372;;310.5
455.0;393.9;;;;;;;;;;;;;;0.8944975;0.073793754;-0.15143284;;;;;310.5
455.0;393.9;;;;;;;;;;;;;;;;;-58.038574;18.505661;68.00668;;310.5
455.0;393.9;;;;;;;;;;;;;;0.9047517;0.12756737;-0.13928647;;;;;310.5
513.0;395.1;;;;;;;;;;;;;;;;;-53.41121;18.95581;66.49983;;320.2
513.0;395.1;;;;;;;;;;;;;;0.9054842;0.16870633;-0.12781152;;;;;320.2
513.0;395.1;;;;;;;;;;;;;;;;;-50.20676;19.291513;65.7712;;320.2
513.0;395.1;;;;;;;;;;;;;;0.8846095;0.21246986;-0.10889004;;;;;320.2
513.0;395.1;;;;;;;;;;;;;;;;;-47.26554;16.216774;65.7712;;329.9
513.0;395.1;;;;;;;;;;;;;;0.8515885;0.21936704;-0.11688589;;;;;329.9
513.0;395.1;;;;;;;;;;;;;;;;;-43.923767;12.99707;68.38053;;329.9
513.0;395.1;;;;;;;;;;;;;;0.8186895;0.22504349;-0.12652974;;;;;329.9
513.0;395.1;;;;;;;;;;;;;;;;;-45.20554;9.723961;67.52221;;339.5
513.0;395.1;;;;;;;;;;;;;;0.7989746;0.24951933;-0.16638692;;;;;339.5
513.0;395.1;;;;;;;;;;;;;;;;;-47.212135;7.694479;64.06598;;339.5
513.0;395.1;;;;;;;;;;;;;;0.7917722;0.26984465;-0.22089297;;;;;339.5
513.0;454.3;;;;;;;;;;;;;;;;;-46.262245;6.6911836;63.013092;;349.2
513.0;454.3;;;;;;;;;;;;;;0.7876827;0.2690512;-0.26349682;;;;;349.2
513.0;454.3;;;;;;;;;;;;;;;;;-42.775505;4.7685175;63.451797;;349.2
513.0;454.3;;;;;;;;;;;;;;0.78652304;0.23255104;-0.29602954;;;;;349.2
513.0;454.3;;;;;;;;;;;;;;;;;-40.280617;3.456221;64.24909;;358.8
513.0;454.3;;;;;;;;;;;;;;0.78872037;0.16357921;-0.33576465;;;;;358.8
513.0;454.3;;;;;;;;;;;;;;;;;-40.2501;3.402814;63.467056;;358.8
513.0;454.3;;;;;;;;;;;;;;0.7851802;0.0888699;-0.35755485;;;;;358.8
513.0;454.3;;;;;;;;;;;;;;;;;-41.81036;3.0632956;60.598312;;368.5
513.0;454.3;;;;;;;;;;;;;;0.78505814;0.04358043;-0.38312936;;;;;368.5
513.0;454.3;;;;;;;;;;;;;;;;;-41.413616;3.6011841;57.45491;;368.5
513.0;454.3;;;;;;;;;;;;;;0.7853633;0.012817774;-0.385815;;;;;368.5
638.0;461.6;;;;;;;;;;;;;;;;;-39.52147;4.3450727;54.040653;;378.1
638.0;461.6;;;;;;;;;;;;;;0.7922605;-0.019226661;-0.37324136;;;;;378.1
638.0;461.6;;;;;;;;;;;;;;;;;-35.920284;4.100925;49.317913;;378.1
638.0;461.6;;;;;;;;;;;;;;0.8131962;-0.02496414;-0.3673818;;;;;378.1
638.0;461.6;;;;;;;;;;;;;;;;;-31.55614;4.3107395;43.45073;;387.7
638.0;461.6;;;;;;;;;;;;;;0.83040863;-0.0012817774;-0.34583575;;;;;387.7
638.0;461.6;;;;;;;;;;;;;;;;;-29.946287;5.058443;36.938843;;387.7
638.0;461.6;;;;;;;;;;;;;;0.8498184;0.04876858;-0.31366923;;;;;387.7
638.0;461.6;;;;;;;;;;;;;;;;;-31.052584;6.6072574;30.442213;;397.4
638.0;461.6;;;;;;;;;;;;;;0.8618427;0.09601123;-0.27619252;;;;;397.4
638.0;461.6;;;;;;;;;;;;;;;;;-32.273323;8.1331835;23.800623;;397.4
638.0;461.6;;;;;;;;;;;;;;0.8652608;0.13629566;-0.2494583;;;;;397.4
638.0;521.8;;;;;;;;;;;;;;;;;-30.93051;8.301035;16.7127;;406.9
638.0;521.8;;;;;;;;;;;;;;0.8691061;0.1694998;-0.24036378;;;;;406.9
638.0;521.8;;;;;;;;;;;;;;;;;-24.346142;7.534257;9.823145;;406.9
638.0;521.8;;;;;;;;;;;;;;0.8802759;0.18903165;-0.258858;;;;;406.9
638.0;521.8;;;;;;;;;;;;;;;;;-11.619923;5.94348;3.5744805;;416.6
638.0;521.8;;;;;;;;;;;;;;0.90804774;0.18317209;-0.29682302;;;;;416.6
638.0;521.8;;;;;;;;;;;;;;;;;3.0861845;5.3788877;-2.994629;;416.6
638.0;521.8;;;;;;;;;;;;;;0.9573046;0.16235848;-0.3310648;;;;;416.6
638.0;521.8;;;;;;;;;;;;;;;;;15.434736;6.55385;-9.792626;;426.2
638.0;521.8;;;;;;;;;;;;;;1.0085146;0.15839106;-0.36268196;;;;;426.2
638.0;521.8;;;;;;;;;;;;;;;;;25.81103;10.792109;-16.361736;;426.2
638.0;521.8;;;;;;;;;;;;;;1.04532;0.17407759;-0.36182746;;;;;426.2
639.0;523.0;;;;;;;;;;;;;;;;;34.74151;17.551958;-23.834957;;435.8
639.0;523.0;;;;;;;;;;;;;;1.0676595;0.2021546;-0.32563248;;;;;435.8
639.0;523.0;;;;;;;;;;;;;;;;;42.8251;25.341806;-31.876583;;435.8
639.0;523.0;;;;;;;;;;;;;;1.0778527;0.23108615;-0.24152349;;;;;435.8
639.0;523.0;;;;;;;;;;;;;;;;;51.076538;31.12125;-40.02884;;445.5
639.0;523.0;;;;;;;;;;;;;;1.0837122;0.26935637;-0.15466781;;;;;445.5
639.0;523.0;;;;;;;;;;;;;;;;;55.963314;33.074436;-48.108616;;445.5
639.0;523.0;;;;;;;;;;;;;;1.1011078;0.32032228;-0.099490345;;;;;445.5
639.0;523.0;;;;;;;;;;;;;;;;;53.773617;34.802544;-54.731133;;455.2
639.0;523.0;;;;;;;;;;;;;;1.0998261;0.34528643;-0.07586902;;;;;455.2
639.0;523.0;;;;;;;;;;;;;;;;;50.271614;36.40858;-60.525833;;455.2
639.0;523.0;;;;;;;;;;;;;;1.0849941;0.3571276;-0.051515244;;;;;455.2
639.0;529.2;;;;;;;;;;;;;;;;;45.97995;35.64562;-66.78595;;464.8
639.0;529.2;;;;;;;;;;;;;;1.0873744;0.38740197;-0.072634056;;;;;464.8
639.0;529.2;;;;;;;;;;;;;;;;;40.8681;38.03751;-73.47331;;464.8
639.0;529.2;;;;;;;;;;;;;;1.1108737;0.42323068;-0.100711085;;;;;464.8
639.0;529.2;;;;;;;;;;;;;;;;;37.408062;45.724358;-83.002716;;474.4
639.0;529.2;;;;;;;;;;;;;;1.134373;0.4707175;-0.07562487;;;;;474.4
639.0;529.2;;;;;;;;;;;;;;;;;34.53932;52.43843;-94.62264;;474.4
639.0;529.2;;;;;;;;;;;;;;1.1627553;0.5229652;-0.069093905;;;;;474.4
639.0;529.2;;;;;;;;;;;;;;;;;34.66521;56.249428;-106.34938;;484.0
639.0;529.2;;;;;;;;;;;;;;1.1775261;0.5729545;-0.057618946;;;;;484.0
639.0;529.2;;;;;;;;;;;;;;;;;37.965027;52.255318;-116.649376;;484.0
639.0;529.2;;;;;;;;;;;;;;1.2015138;0.6063417;-0.112186044;;;;;484.0
695.0;574.5;;;;;;;;;;;;;;;;;37.179176;47.143467;-123.34818;;493.5
695.0;574.5;;;;;;;;;;;;;;1.2500992;0.68422496;-0.15912351;;;;;493.5
695.0;574.5;;;;;;;;;;;;;;;;;24.6704;52.55669;-123.86318;;493.5
695.0;574.5;;;;;;;;;;;;;;1.220252;0.62947476;-0.120975375;;;;;493.5
695.0;574.5;;;;;;;;;;;;;;;;;15.671255;59.2555;-124.75204;;503.0
695.0;574.5;;;;;;;;;;;;;;1.1656849;0.59559923;0.0043336283;;;;;503.0
695.0;574.5;;;;;;;;;;;;;;;;;7.702109;56.508835;-124.988556;;503.0
695.0;574.5;;;;;;;;;;;;;;1.1561022;0.6317331;0.008545183;;;;;503.0
695.0;574.5;;;;;;;;;;;;;;;;;-0.5378887;51.90054;-124.988556;;512.7
695.0;574.5;;;;;;;;;;;;;;1.1612903;0.6547441;-0.038636435;;;;;512.7
695.0;574.5;;;;;;;;;;;;;;;;;-9.743034;48.86395;-124.988556;;512.7
695.0;574.5;;;;;;;;;;;;;;1.1891232;0.6473586;-0.076662496;;;;;512.7
695.0;589.6;;;;;;;;;;;;;;;;;-20.371105;46.910763;-124.988556;;522.4
695.0;589.6;;;;;;;;;;;;;;1.2100589;0.5251015;-0.09509568;;;;;522.4
695.0;589.6;;;;;;;;;;;;;;;;;-31.891842;46.525467;-124.988556;;522.4
695.0;589.6;;;;;;;;;;;;;;1.243263;0.39039278;-0.07727287;;;;;522.4
695.0;589.6;;;;;;;;;;;;;;;;;-43.66436;45.76632;-124.988556;;532.0
695.0;589.6;;;;;;;;;;;;;;1.2836696;0.24073;-0.06994843;;;;;532.0
695.0;589.6;;;;;;;;;;;;;;;;;-52.73217;45.247505;-124.988556;;532.0
695.0;589.6;;;;;;;;;;;;;;1.3491012;0.076235235;-0.12213507;;;;;532.0
695.0;589.6;;;;;;;;;;;;;;;;;-54.727318;50.874355;-124.988556;;541.6
695.0;589.6;;;;;;;;;;;;;;1.3688772;-0.101626635;-0.15222633;;;;;541.6
695.0;589.6;;;;;;;;;;;;;;;;;-52.762688;55.806908;-124.988556;;541.6
695.0;589.6;;;;;;;;;;;;;;1.4177679;-0.27167577;-0.15710929;;;;;541.6
757.0;634.8;;;;;;;;;;;;;;;;;-47.14728;58.481094;-124.91608;;551.3
757.0;634.8;;;;;;;;;;;;;;1.495529;-0.4194464;-0.19074069;;;;;551.3
757.0;634.8;;;;;;;;;;;;;;;;;-31.998657;64.60769;-119.19767;;551.3
757.0;634.8;;;;;;;;;;;;;;1.5978271;-0.5773492;-0.27246925;;;;;551.3
757.0;634.8;;;;;;;;;;;;;;;;;-9.11359;73.271126;-97.49519;;560.9
757.0;634.8;;;;;;;;;;;;;;1.7775811;-0.6914884;-0.2964568;;;;;560.9
757.0;634.8;;;;;;;;;;;;;;;;;17.239141;96.13331;-67.835014;;560.9
757.0;634.8;;;;;;;;;;;;;;1.886166;-0.94912565;-0.29548022;;;;;560.9
757.0;634.8;;;;;;;;;;;;;;;;;52.823727;115.22645;-43.614765;;570.6
757.0;634.8;;;;;;;;;;;;;;1.9301126;-1.1509141;-0.1114536;;;;;570.6
757.0;634.8;;;;;;;;;;;;;;;;;76.71972;111.392555;-36.793877;;570.6
757.0;634.8;;;;;;;;;;;;;;1.986633;-1.4194158;-0.028687399;;;;;570.6
757.0;649.8;;;;;;;;;;;;;;;;;115.21882;79.06201;-40.437023;;580.2
757.0;649.8;;;;;;;;;;;;;;1.853328;-1.6680807;-0.015991699;;;;;580.2
757.0;649.8;;;;;;;;;;;;;;;;;124.988556;9.372997;-69.31898;;580.2
757.0;649.8;;;;;;;;;;;;;;1.4551226;-1.6595355;-0.039796136;;;;;580.2
757.0;649.8;;;;;;;;;;;;;;;;;124.988556;-78.95901;-111.919;;589.9
757.0;649.8;;;;;;;;;;;;;;1.1731315;-1.4686117;-0.22510453;;;;;589.9
757.0;649.8;;;;;;;;;;;;;;;;;124.988556;-122.92092;-124.988556;;589.9
757.0;649.8;;;;;;;;;;;;;;1.2204962;-1.0508744;-0.4903714;;;;;589.9
757.0;649.8;;;;;;;;;;;;;;;;;124.988556;-124.988556;-124.988556;;599.5
757.0;649.8;;;;;;;;;;;;;;1.2763451;-0.7241432;-0.75515;;;;;599.5
757.0;649.8;;;;;;;;;;;;;;;;;123.695335;-124.988556;-124.988556;;599.5
757.0;649.8;;;;;;;;;;;;;;1.2156743;-0.50660723;-0.939848;;;;;599.5
875.0;695.2;;;;;;;;;;;;;;;;;110.435036;-124.988556;-124.988556;;608.9
875.0;695.2;;;;;;;;;;;;;;1.1912595;-0.27265236;-1.099704;;;;;608.9
875.0;695.2;;;;;;;;;;;;;;;;;101.43589;-120.494705;-124.988556;;608.9
875.0;695.2;;;;;;;;;;;;;;1.1983398;0.023194067;-1.0373242;;;;;608.9
875.0;695.2;;;;;;;;;;;;;;;;;91.9332;-66.053505;-124.988556;;618.5
875.0;695.2;;;;;;;;;;;;;;1.2706686;0.25153357;-0.77333903;;;;;618.5
875.0;695.2;;;;;;;;;;;;;;;;;63.71502;16.747032;-124.988556;;618.5
875.0;695.2;;;;;;;;;;;;;;1.454207;0.5206458;-0.50825524;;;;;618.5
875.0;695.2;;;;;;;;;;;;;;;;;46.838284;71.37516;-124.988556;;628.2
875.0;695.2;;;;;;;;;;;;;;1.5636463;0.6120792;-0.22138126;;;;;628.2
875.0;695.2;;;;;;;;;;;;;;;;;52.575764;80.03479;-124.988556;;628.2
875.0;695.2;;;;;;;;;;;;;;1.66039;0.7104709;0.16840114;;;;;628.2
875.0;702.7;;;;;;;;;;;;;;;;;62.95587;44.465466;-124.931335;;637.9
875.0;702.7;;;;;;;;;;;;;;1.6573992;0.63881344;0.5213782;;;;;637.9
875.0;702.7;;;;;;;;;;;;;;;;;67.30858;-22.083958;-118.236336;;637.9
875.0;702.7;;;;;;;;;;;;;;1.3699149;0.14203314;0.3886227;;;;;637.9
875.0;702.7;;;;;;;;;;;;;;;;;72.06946;-54.532764;-112.53319;;647.6
875.0;702.7;;;;;;;;;;;;;;1.3109531;-0.06079287;0.13245033;;;;;647.6
875.0;702.7;;;;;;;;;;;;;;;;;82.35038;-43.073063;-86.718346;;647.6
875.0;702.7;;;;;;;;;;;;;;1.1797845;-0.2705771;0.24213386;;;;;647.6
875.0;702.7;;;;;;;;;;;;;;;;;74.22483;-31.85751;-74.43465;;657.3
875.0;702.7;;;;;;;;;;;;;;0.943144;-0.44874418;0.33216345;;;;;657.3
875.0;702.7;;;;;;;;;;;;;;;;;76.60146;-20.638142;-86.22242;;657.3
875.0;702.7;;;;;;;;;;;;;;0.79909664;-0.4761498;0.48591572;;;;;657.3
877.0;755.5;;;;;;;;;;;;;;;;;76.94861;-63.47087;-99.181335;;666.8
877.0;755.5;;;;;;;;;;;;;;0.6778771;-0.22284615;0.47474593;;;;;666.8
877.0;755.5;;;;;;;;;;;;;;;;;25.616474;-115.199745;-124.37818;;666.8
877.0;755.5;;;;;;;;;;;;;;1.0758995;0.093935974;-0.20935698;;;;;666.8
877.0;755.5;;;;;;;;;;;;;;;;;-19.356365;-82.960754;-123.924225;;676.3
877.0;755.5;;;;;;;;;;;;;;1.022126;0.27448347;-0.39881587;;;;;676.3
877.0;755.5;;;;;;;;;;;;;;;;;-83.37275;-69.47539;-118.46904;;676.3
877.0;755.5;;;;;;;;;;;;;;1.0179144;0.32459486;-0.68617815;;;;;676.3
877.0;755.5;;;;;;;;;;;;;;;;;-119.300674;-54.81887;-98.57479;;685.9
877.0;755.5;;;;;;;;;;;;;;0.9112217;0.059694204;-0.8832667;;;;;685.9
877.0;755.5;;;;;;;;;;;;;;;;;-107.79901;-1.3351848;-84.86435;;685.9
877.0;755.5;;;;;;;;;;;;;;0.82741785;-0.041871395;-0.50379956;;;;;685.9
877.0;763.3;;;;;;;;;;;;;;;;;-105.83056;34.84069;-62.494278;;695.6
877.0;763.3;;;;;;;;;;;;;;0.9614551;-0.16119877;-0.08404797;;;;;695.6
877.0;763.3;;;;;;;;;;;;;;;;;-101.2299;32.90277;-47.109135;;695.6
877.0;763.3;;;;;;;;;;;;;;0.9675588;-0.38489944;0.010803552;;;;;695.6
877.0;763.3;;;;;;;;;;;;;;;;;-82.92261;17.796106;-51.721245;;705.2
877.0;763.3;;;;;;;;;;;;;;0.88503677;-0.4664449;0.012634663;;;;;705.2
877.0;763.3;;;;;;;;;;;;;;;;;-72.6722;-3.4142585;-62.719353;;705.2
877.0;763.3;;;;;;;;;;;;;;0.832667;-0.40730003;-0.17047639;;;;;705.2
877.0;763.3;;;;;;;;;;;;;;;;;-62.902466;-9.777367;-67.84264;;714.9
877.0;763.3;;;;;;;;;;;;;;0.79189426;-0.32660908;-0.25782037;;;;;714.9
877.0;763.3;;;;;;;;;;;;;;;;;-48.55495;-12.974181;-62.429424;;714.9
877.0;763.3;;;;;;;;;;;;;;0.72762233;-0.3607898;-0.20844142;;;;;714.9
935.0;815.8;;;;;;;;;;;;;;;;;-35.24125;-21.027254;-56.142612;;724.6
935.0;815.8;;;;;;;;;;;;;;0.67110205;-0.38129824;-0.17767876;;;;;724.6
935.0;815.8;;;;;;;;;;;;;;;;;-23.056734;-30.70925;-49.192024;;724.6
935.0;815.8;;;;;;;;;;;;;;0.6328318;-0.40522477;-0.15814692;;;;;724.6
935.0;815.8;;;;;;;;;;;;;;;;;-11.574144;-40.746025;-38.510544;;734.2
935.0;815.8;;;;;;;;;;;;;;0.6043275;-0.4459975;-0.17963195;;;;;734.2
935.0;815.8;;;;;;;;;;;;;;;;;-1.0414442;-47.360912;-28.351696;;734.2
935.0;815.8;;;;;;;;;;;;;;0.55940425;-0.48084962;-0.15558337;;;;;734.2
935.0;815.8;;;;;;;;;;;;;;;;;7.1146274;-55.810722;-18.429365;;743.8
935.0;815.8;;;;;;;;;;;;;;0.5211951;-0.5231483;-0.17029329;;;;;743.8
935.0;815.8;;;;;;;;;;;;;;;;;13.626515;-60.529648;-10.502182;;743.8
935.0;815.8;;;;;;;;;;;;;;0.48213142;-0.5532395;-0.17383343;;;;;743.8
935.0;823.2;;;;;;;;;;;;;;;;;22.11829;-63.509018;0.32425916;;753.4
935.0;823.2;;;;;;;;;;;;;;0.40485856;-0.61738944;-0.16144292;;;;;753.4
935.0;823.2;;;;;;;;;;;;;;;;;32.067326;-69.08246;6.9620347;;753.4
935.0;823.2;;;;;;;;;;;;;;0.34998626;-0.6308786;-0.15955077;;;;;753.4
935.0;823.2;;;;;;;;;;;;;;;;;41.02832;-76.01016;12.798699;;763.1
935.0;823.2;;;;;;;;;;;;;;0.29517502;-0.67268896;-0.20410779;;;;;763.1
935.0;823.2;;;;;;;;;;;;;;;;;46.609394;-73.500015;13.863032;;763.1
935.0;823.2;;;;;;;;;;;;;;0.23108615;-0.6223945;-0.21411787;;;;;763.1
935.0;823.2;;;;;;;;;;;;;;;;;36.523026;-55.639057;11.051516;;772.7
935.0;823.2;;;;;;;;;;;;;;0.20850246;-0.4054689;-0.1389813;;;;;772.7
935.0;823.2;;;;;;;;;;;;;;;;;12.215034;-40.02884;4.1734066;;772.7
935.0;823.2;;;;;;;;;;;;;;0.4300058;-0.10626545;0.012817774;;;;;772.7
994.0;876.2;;;;;;;;;;;;;;;;;-13.420515;-28.374584;6.824702;;782.3
994.0;876.2;;;;;;;;;;;;;;0.5802179;0.008239998;0.12286752;;;;;782.3
994.0;876.2;;;;;;;;;;;;;;;;;-35.96988;-7.927183;22.717215;;782.3
994.0;876.2;;;;;;;;;;;;;;0.5150304;-0.091677606;0.18732262;;;;;782.3
994.0;876.2;;;;;;;;;;;;;;;;;-60.11383;29.667807;28.393658;;792.0
994.0;876.2;;;;;;;;;;;;;;0.44178593;-0.17267373;0.26483962;;;;;792.0
994.0;876.2;;;;;;;;;;;;;;;;;-61.765648;52.255318;25.814844;;792.0
994.0;876.2;;;;;;;;;;;;;;0.36390272;-0.13440351;0.34730065;;;;;792.0
994.0;876.2;;;;;;;;;;;;;;;;;-44.49217;27.35603;20.237587;;801.7
994.0;876.2;;;;;;;;;;;;;;0.4758446;0.059144873;0.27063814;;;;;801.7
994.0;876.2;;;;;;;;;;;;;;;;;-45.09491;4.6845913;26.757103;;801.7
994.0;876.2;;;;;;;;;;;;;;0.70839566;0.17554247;0.11304056;;;;;801.7
994.0;884.1;;;;;;;;;;;;;;;;;-58.622242;26.570177;43.599506;;811.2
994.0;884.1;;;;;;;;;;;;;;0.54878384;-0.10992767;0.28547013;;;;;811.2
994.0;884.1;;;;;;;;;;;;;;;;;-44.072544;29.988249;45.628986;;811.2
994.0;884.1;;;;;;;;;;;;;;0.38966033;-0.18829921;0.4702292;;;;;811.2
994.0;884.1;;;;;;;;;;;;;;;;;-15.385143;3.0213325;47.879726;;820.9
994.0;884.1;;;;;;;;;;;;;;0.43269143;-0.1892758;0.27863398;;;;;820.9
994.0;884.1;;;;;;;;;;;;;;;;;19.062624;-19.047365;50.256355;;820.9
994.0;884.1;;;;;;;;;;;;;;0.43556017;-0.15503404;0.040833768;;;;;820.9
994.0;884.1;;;;;;;;;;;;;;;;;48.34895;-31.781212;51.652576;;830.5
994.0;884.1;;;;;;;;;;;;;;0.37983337;-0.083254494;-0.091677606;;;;;830.5
994.0;884.1;;;;;;;;;;;;;;;;;70.879234;-36.778618;52.262947;;830.5
994.0;884.1;;;;;;;;;;;;;;0.36524552;-0.029663991;-0.10834071;;;;;830.5
1057.0;936.4;;;;;;;;;;;;;;;;;84.040344;-28.809473;51.328316;;840.1
1057.0;936.4;;;;;;;;;;;;;;0.4016846;0.0679342;-0.013061922;;;;;840.1
1057.0;936.4;;;;;;;;;;;;;;;;;81.59505;-0.39674062;53.037354;;840.1
1057.0;936.4;;;;;;;;;;;;;;0.46803185;0.08020265;0.11023286;;;;;840.1
1057.0;936.4;;;;;;;;;;;;;;;;;71.035645;48.749504;61.586353;;849.6
1057.0;936.4;;;;;;;;;;;;;;0.56178474;0.050965913;0.3172094;;;;;849.6
1057.0;936.4;;;;;;;;;;;;;;;;;47.246468;100.383;72.378456;;849.6
1057.0;936.4;;;;;;;;;;;;;;0.5329142;0.056398205;0.5561083;;;;;849.6
1057.0;936.4;;;;;;;;;;;;;;;;;9.693442;111.53752;76.83417;;859.3
1057.0;936.4;;;;;;;;;;;;;;0.39008757;0.07348857;0.5701468;;;;;859.3
1057.0;936.4;;;;;;;;;;;;;;;;;-27.462843;67.411575;77.46361;;859.3
1057.0;936.4;;;;;;;;;;;;;;0.35425887;0.13544114;0.20856349;;;;;859.3
1057.0;937.2;;;;;;;;;;;;;;;;;-62.83761;10.425886;85.07034;;869.0
1057.0;937.2;;;;;;;;;;;;;;0.5055086;0.1530198;-0.4225593;;;;;869.0
1057.0;937.2;;;;;;;;;;;;;;;;;-95.99979;-7.213813;88.942375;;869.0
1057.0;937.2;;;;;;;;;;;;;;0.61378825;0.14044619;-0.8996857;;;;;869.0
1057.0;937.2;;;;;;;;;;;;;;;;;-116.8363;13.386182;87.71401;;878.6
1057.0;937.2;;;;;;;;;;;;;;0.5614185;0.14429152;-0.87380594;;;;;878.6
1057.0;937.2;;;;;;;;;;;;;;;;;-124.332405;28.328806;85.11994;;878.6
1057.0;937.2;;;;;;;;;;;;;;0.588702;0.12903225;-0.62086856;;;;;878.6
1057.0;937.2;;;;;;;;;;;;;;;;;-124.988556;22.869808;81.167786;;888.3
1057.0;937.2;;;;;;;;;;;;;;0.6882534;0.112186044;-0.600238;;;;;888.3
1057.0;937.2;;;;;;;;;;;;;;;;;-121.48274;17.635883;75.25483;;888.3
1057.0;937.2;;;;;;;;;;;;;;0.7478866;0.11243019;-0.641377;;;;;888.3
1115.0;1004.4;;;;;;;;;;;;;;;;;-93.207344;12.112034;68.72386;;898.0
1115.0;1004.4;;;;;;;;;;;;;;0.79860836;0.103946045;-0.6103091;;;;;898.0
1115.0;1004.4;;;;;;;;;;;;;;;;;-39.92584;2.8115177;64.73739;;898.0
1115.0;1004.4;;;;;;;;;;;;;;0.81752986;0.05938902;-0.51814324;;;;;898.0
1115.0;1004.4;;;;;;;;;;;;;;;;;21.355328;-6.8170724;64.79461;;907.5
1115.0;1004.4;;;;;;;;;;;;;;0.8671529;0.07000946;-0.41645557;;;;;907.5
1115.0;1004.4;;;;;;;;;;;;;;;;;72.344124;-16.773737;71.38279;;907.5
1115.0;1004.4;;;;;;;;;;;;;;0.90914637;0.06372265;-0.34949797;;;;;907.5
1115.0;1004.4;;;;;;;;;;;;;;;;;108.70693;-25.116734;81.01901;;917.3
1115.0;1004.4;;;;;;;;;;;;;;0.96530044;0.031250954;-0.2807703;;;;;917.3
1115.0;1004.4;;;;;;;;;;;;;;;;;124.103516;-25.05188;85.95157;;917.3
1115.0;1004.4;;;;;;;;;;;;;;1.0282906;-0.0016479995;-0.20075075;;;;;917.3
1115.0;1057.0;;;;;;;;;;;;;;;;;124.90845;-19.36018;83.63979;;927.0
1115.0;1057.0;;;;;;;;;;;;;;1.0738243;-0.013000885;-0.11896115;;;;;927.0
1115.0;1057.0;;;;;;;;;;;;;;;;;120.845665;-15.24781;76.708275;;927.0
1115.0;1057.0;;;;;;;;;;;;;;1.0906705;0.003051851;-0.062746055;;;;;927.0
1115.0;1057.0;;;;;;;;;;;;;;;;;109.69496;-9.73922;68.384346;;936.6
1115.0;1057.0;;;;;;;;;;;;;;1.1413922;0.11066011;-0.059144873;;;;;936.6
1115.0;1057.0;;;;;;;;;;;;;;;;;91.46016;5.2072206;68.826866;;936.6
1115.0;1057.0;;;;;;;;;;;;;;1.1384014;0.17236854;-0.05261391;;;;;936.6
1115.0;1057.0;;;;;;;;;;;;;;;;;72.786644;19.932402;71.165344;;946.3
1115.0;1057.0;;;;;;;;;;;;;;1.1362652;0.23993652;-0.0040284432;;;;;946.3
1115.0;1057.0;;;;;;;;;;;;;;;;;54.92187;26.783808;74.40413;;946.3
1115.0;1057.0;;;;;;;;;;;;;;1.1354717;0.25000763;-0.0055543687;;;;;946.3
1173.0;1058.3;;;;;;;;;;;;;;;;;40.166172;31.41499;78.27235;;955.9
1173.0;1058.3;;;;;;;;;;;;;;1.1572618;0.2626423;-0.05224769;;;;;955.9
1173.0;1058.3;;;;;;;;;;;;;;;;;29.49614;41.898098;82.6632;;955.9
1173.0;1058.3;;;;;;;;;;;;;;1.1191748;0.25287637;-0.022400586;;;;;955.9
1173.0;1058.3;;;;;;;;;;;;;;;;;25.46388;45.937984;81.331825;;965.5
1173.0;1058.3;;;;;;;;;;;;;;1.07004;0.24427015;0.02478103;;;;;965.5
1173.0;1058.3;;;;;;;;;;;;;;;;;29.564806;40.57817;75.32732;;965.5
1173.0;1058.3;;;;;;;;;;;;;;1.0776696;0.28217414;0.039429914;;;;;965.5
1173.0;1058.3;;;;;;;;;;;;;;;;;36.278877;29.732658;69.80346;;975.1
1173.0;1058.3;;;;;;;;;;;;;;1.0715048;0.30921355;-0.0020752586;;;;;975.1
1173.0;1058.3;;;;;;;;;;;;;;;;;45.136875;17.998291;63.516647;;975.1
1173.0;1058.3;;;;;;;;;;;;;;1.0588702;0.35065767;-0.06488235;;;;;975.1
1173.0;1059.1;;;;;;;;;;;;;;;;;56.340984;4.642628;58.297985;;984.7
1173.0;1059.1;;;;;;;;;;;;;;1.0270089;0.37202063;-0.12018189;;;;;984.7
1173.0;1059.1;;;;;;;;;;;;;;;;;64.85947;-11.726737;52.60628;;984.7
1173.0;1059.1;;;;;;;;;;;;;;1.0232246;0.40321055;-0.2066103;;;;;984.7
1173.0;1059.1;;;;;;;;;;;;;;;;;67.827385;-21.336254;49.108097;;994.3
1173.0;1059.1;;;;;;;;;;;;;;1.0679647;0.44227424;-0.2669759;;;;;994.3
1173.0;1059.1;;;;;;;;;;;;;;;;;71.96265;-20.165104;50.954464;;994.3
1173.0;1059.1;;;;;;;;;;;;;;1.1117893;0.39777824;-0.2527543;;;;;994.3
1173.0;1059.1;;;;;;;;;;;;;;;;;82.69372;-16.865292;50.36317;;1004.0
1173.0;1059.1;;;;;;;;;;;;;;1.1236916;0.3524888;-0.23847163;;;;;1004.0
1173.0;1059.1;;;;;;;;;;;;;;;;;95.55727;-17.864773;45.58702;;1004.0
1173.0;1059.1;;;;;;;;;;;;;;1.0853603;0.38642538;-0.32105473;;;;;1004.0
1175.0;1125.1;;;;;;;;;;;;;;;;;101.02771;-25.418102;41.501358;;1013.6
1175.0;1125.1;;;;;;;;;;;;;;1.0130314;0.45783868;-0.4659566;;;;;1013.6
1175.0;1125.1;;;;;;;;;;;;;;;;;88.05735;-49.050877;41.505173;;1013.6
1175.0;1125.1;;;;;;;;;;;;;;0.98422194;0.501175;-0.6996063;;;;;1013.6
1175.0;1125.1;;;;;;;;;;;;;;;;;60.983612;-79.38627;48.295544;;1023.3
1175.0;1125.1;;;;;;;;;;;;;;0.9225135;0.40070802;-0.964507;;;;;1023.3
1175.0;1125.1;;;;;;;;;;;;;;;;;34.588913;-95.03082;55.101166;;1023.3
1175.0;1125.1;;;;;;;;;;;;;;0.85763115;0.38496047;-1.0423292;;;;;1023.3
1175.0;1125.1;;;;;;;;;;;;;;;;;1.4458144;-84.26542;65.34395;;1032.8
1175.0;1125.1;;;;;;;;;;;;;;0.81081575;0.3291116;-0.9551683;;;;;1032.8
1175.0;1125.1;;;;;;;;;;;;;;;;;-34.22269;-37.717064;67.14454;;1032.8
1175.0;1125.1;;;;;;;;;;;;;;0.91665393;0.2946257;-0.544023;;;;;1032.8
1177.0;1125.9;;;;;;;;;;;;;;;;;-68.334755;23.609882;61.651203;;1042.4
1177.0;1125.9;;;;;;;;;;;;;;1.1414533;0.19428083;-0.13397625;;;;;1042.4
1177.0;1125.9;;;;;;;;;;;;;;;;;-80.37812;85.73412;47.933136;;1042.4
1177.0;1125.9;;;;;;;;;;;;;;1.3614308;0.09234901;0.1523484;;;;;1042.4
1177.0;1125.9;;;;;;;;;;;;;;;;;-64.447464;122.00156;29.885252;;1052.0
1177.0;1125.9;;;;;;;;;;;;;;1.478805;0.131901;0.6153142;;;;;1052.0
1177.0;1125.9;;;;;;;;;;;;;;;;;-55.04776;104.945526;22.858364;;1052.0
1177.0;1125.9;;;;;;;;;;;;;;1.5250099;0.22516556;1.0738243;;;;;1052.0
1177.0;1125.9;;;;;;;;;;;;;;;;;-52.57958;26.123844;26.989807;;1061.7
1177.0;1125.9;;;;;;;;;;;;;;1.2420423;0.22614215;0.84249395;;;;;1061.7
1177.0;1125.9;;;;;;;;;;;;;;;;;-27.455214;-26.898252;17.193365;;1061.7
1177.0;1125.9;;;;;;;;;;;;;;0.92245245;0.219306;0.36298716;;;;;1061.7
1177.0;1125.7;;;;0.0;0.0;0.0;;;;;;;;;;;;;;;
1177.0;1125.7;;;;-0.07751847;0.14696504;0.0630951;;;;;;;;;;;;;;;
1177.0;1125.7;;;;-0.36628726;0.6544457;0.2085152;;;;;;;;;;;;;;;
1177.0;1125.7;;;;-0.40066916;0.7313767;0.22130588;;;;;;;;;;;;;;;
1177.0;1125.7;;;;-0.40424734;0.7361985;0.22052386;;;;;;;;;;;;;;;
1177.0;1135.7;;;;-0.4078446;0.7413216;0.2193146;;;;;;;;;;;;;;;
1177.0;1135.7;;;;-0.41107947;0.74665457;0.22052768;;;;;;;;;;;;;;;
1177.0;1135.7;;;;-0.40956122;0.7526742;0.22524646;;;;;;;;;;;;;;;
1177.0;1135.7;;;;-0.4096642;0.7598306;0.22672656;;;;;;;;;;;;;;;
1177.0;1135.7;;;;-0.41207892;0.76496136;0.22799686;;;;;;;;;;;;;;;
1234.0;1137.2;57405;57523;12848;;;;;;;;;;;;;;;;;;
1234.0;1145.7;;;;-0.41743094;0.7710191;0.22977069;;;;;;;;;;;;;;;
1234.0;1145.7;;;;-0.42686087;0.78012097;0.23281863;;;;;;;;;;;;;;;
1234.0;1145.7;;;;-0.4351998;0.78769696;0.232708;;;;;;;;;;;;;;;
1234.0;1145.7;;;;-0.4408341;0.79254925;0.23570254;;;;;;;;;;;;;;;
1234.0;1145.7;;;;-0.45029455;0.8046533;0.24086383;;;;;;;;;;;;;;;
1234.0;1155.6;;;;-0.45973212;0.81515515;0.24276355;;;;;;;;;;;;;;;
1234.0;1155.6;;;;-0.47159582;0.8236085;0.24454501;;;;;;;;;;;;;;;
1234.0;1155.6;;;;-0.48388296;0.8313409;0.24589923;;;;;;;;;;;;;;;
1234.0;1155.6;;;;-0.49114996;0.8444902;0.2480469;;;;;;;;;;;;;;;
1234.0;1155.6;;;;-0.49859625;0.8572694;0.24707034;;;;;;;;;;;;;;;
1234.0;1157.1;73833;73916;12836;;;;;;;;;;;;;;;;;;
1234.0;1163.3;;;;;;;;;;;;;0;;;;;;;;
1234.0;1163.3;;;;;;;;;;;;;0;;;;;;;;
1234.0;1163.3;;;;;;;;;;;;;-1;;;;;;;;
1234.0;1163.3;;;;;;;;;;;;;-3;;;;;;;;
1234.0;1163.3;;;;;;;;;;;;;-4;;;;;;;;
1234.0;1165.7;;;;-0.50508505;0.8690301;0.24768451;;;;;;;;;;;;;;;
1234.0;1165.7;;;;-0.5102692;0.87931454;0.24898532;;;;;;;;;;;;;;;
1234.0;1165.7;;;;-0.5151482;0.89081585;0.248642;;;;;;;;;;;;;;;
1234.0;1165.7;;;;-0.51910025;0.9060899;0.24829105;;;;;;;;;;;;;;;
1234.0;1165.7;;;;-0.5235749;0.9224206;0.24632266;;;;;;;;;;;;;;;
1235.0;1175.8;;;;-0.5285683;0.9380456;0.24504092;;;;;;;;;;;;;;;
1235.0;1175.8;;;;-0.5337067;0.9541513;0.24569324;;;;;;;;;;;;;;;
1235.0;1175.8;;;;-0.54241186;0.9742547;0.24969867;;;;;;;;;;;;;;;
1235.0;1175.8;;;;-0.55084616;0.99279416;0.253212;;;;;;;;;;;;;;;
1235.0;1175.8;;;;-0.557602;1.0120317;0.2576752;;;;;;;;;;;;;;;
1235.0;1177.3;90186;90270;12789;;;;;;;;;;;;;;;;;;
1235.0;1178.8;;;;;;;;;;;;;;;;;-9.487442;-56.71865;-4.997406;;1071.4
1235.0;1178.8;;;;;;;;;;;;;;0.95468;0.4194464;0.049439985;;;;;1071.4
1235.0;1178.8;;;;;;;;;;;;;;;;;-23.358105;-66.339615;-13.901181;;1071.4
1235.0;1178.8;;;;;;;;;;;;;;0.9158605;0.4280526;-0.17737357;;;;;1071.4
1235.0;1178.8;;;;;;;;;;;;;;;;;-45.86932;-46.136356;-19.840845;;1081.1
1235.0;1178.8;;;;;;;;;;;;;;0.88912624;0.33234656;-0.20935698;;;;;1081.1
1235.0;1178.8;;;;;;;;;;;;;;;;;-64.939575;-21.023438;-26.41377;;1081.1
1235.0;1178.8;;;;;;;;;;;;;;0.9491867;0.18762779;-0.22070986;;;;;1081.1
1235.0;1178.8;;;;;;;;;;;;;;;;;-72.20298;-4.100925;-32.193214;;1090.7
1235.0;1178.8;;;;;;;;;;;;;;0.9275796;0.044679098;-0.2379223;;;;;1090.7
1235.0;1178.8;;;;;;;;;;;;;;;;;-69.66612;12.115849;-40.24247;;1090.7
1235.0;1178.8;;;;;;;;;;;;;;0.84957427;-0.061891537;-0.0992462;;;;;1090.7
1239.0;1184.9;;;;;;;;;;;;;;;;;-53.45317;20.981476;-42.004913;;1100.3
1239.0;1184.9;;;;;;;;;;;;;;0.7196264;-0.2146672;0.0910062;;;;;1100.3
1239.0;1184.9;;;;;;;;;;;;;;;;;-25.982697;0.12207404;-42.538986;;1100.3
1239.0;1184.9;;;;;;;;;;;;;;0.66121405;-0.31257057;-0.06646931;;;;;1100.3
1239.0;1184.9;;;;;;;;;;;;;;;;;-3.3722954;-30.724508;-45.1178;;1110.0
1239.0;1184.9;;;;;;;;;;;;;;0.72725606;-0.3439436;-0.37183753;;;;;1110.0
1239.0;1184.9;;;;;;;;;;;;;;;;;8.465072;-37.686546;-36.046173;;1110.0
1239.0;1184.9;;;;;;;;;;;;;;0.6877651;-0.44026002;-0.45039216;;;;;1110.0
1239.0;1184.9;;;;;;;;;;;;;;;;;19.714956;-10.486923;-25.139622;;1119.6
1239.0;1184.9;;;;;;;;;;;;;;0.6524247;-0.59846795;-0.23914304;;;;;1119.6
1239.0;1184.9;;;;;;;;;;;;;;;;;48.66558;23.453474;-29.618214;;1119.6
1239.0;1184.9;;;;;;;;;;;;;;0.77584153;-0.6778161;0.20203254;;;;;1119.6
1239.0;1185.5;;;;-0.56732565;1.0310174;0.26186374;;;;;;;;;;;;;;;
1239.0;1185.5;;;;-0.58300406;1.0555001;0.26716617;;;;;;;;;;;;;;;
1239.0;1185.5;;;;-0.6005288;1.078251;0.27217868;;;;;;;;;;;;;;;
1239.0;1185.5;;;;-0.6183968;1.0954591;0.27936938;;;;;;;;;;;;;;;
1239.0;1185.5;;;;-0.6381112;1.114277;0.2873192;;;;;;;;;;;;;;;
1239.0;1195.6;;;;-0.6563836;1.136551;0.2939377;;;;;;;;;;;;;;;
1239.0;1195.6;;;;-0.6718636;1.1591569;0.299881;;;;;;;;;;;;;;;
1239.0;1195.6;;;;-0.69047934;1.1814805;0.30401233;;;;;;;;;;;;;;;
1239.0;1195.6;;;;-0.7033959;tammi.15;0.3093224;;;;;;;;;;;;;;;
1239.0;1195.6;;;;-0.7136727;1.2235147;0.3130913;;;;;;;;;;;;;;;
1239.0;1197.2;106583;106592;12773;;;;;;;;;;;;;;;;;;
1292.0;1203.4;;;;;;;;;;;;;-1;;;;;;;;
1292.0;1203.4;;;;;;;;;;;;;-14;;;;;;;;
1292.0;1203.4;;;;;;;;;;;;;-21;;;;;;;;
1292.0;1203.4;;;;;;;;;;;;;19;;;;;;;;
1292.0;1203.4;;;;;;;;;;;;;-18;;;;;;;;
1292.0;1205.6;;;;-0.7229195;1.2378923;0.31379703;;;;;;;;;;;;;;;
1292.0;1205.6;;;;-0.7286225;1.2482797;0.317009;;;;;;;;;;;;;;;
1292.0;1205.6;;;;-0.7308884;1.2571565;0.31870654;;;;;;;;;;;;;;;
1292.0;1205.6;;;;-0.72972494;1.2662774;0.31748584;;;;;;;;;;;;;;;
1292.0;1205.6;;;;-0.72861105;1.2716943;0.3150368;;;;;;;;;;;;;;;
1292.0;1215.6;;;;-0.7243882;1.2826425;0.31130603;;;;;;;;;;;;;;;
1292.0;1215.6;;;;-0.7154656;1.2889901;0.30513003;;;;;;;;;;;;;;;
1292.0;1215.6;;;;-0.7040978;1.2911988;0.30096057;;;;;;;;;;;;;;;
1292.0;1215.6;;;;-0.68495184;1.2923738;0.29679492;;;;;;;;;;;;;;;
1292.0;1215.6;;;;-0.6625634;1.2917596;0.293232;;;;;;;;;;;;;;;
1292.0;1217.3;122997;123057;12736;;;;;;;;;;;;;;;;;;
1292.0;1225.7;;;;-0.64781195;1.2892724;0.2882538;;;;;;;;;;;;;;;
1292.0;1225.7;;;;-0.6368447;1.291668;0.28366473;;;;;;;;;;;;;;;
1292.0;1225.7;;;;-0.61565787;1.2905542;0.27777484;;;;;;;;;;;;;;;
1292.0;1225.7;;;;-0.59589773;1.2834855;0.27582172;;;;;;;;;;;;;;;
1292.0;1225.7;;;;-0.5825806;1.2739297;0.2765427;;;;;;;;;;;;;;;
1294.0;1235.8;;;;-0.570736;1.2629014;0.27623752;;;;;;;;;;;;;;;
1294.0;1235.8;;;;-0.5619088;1.2556611;0.27769855;;;;;;;;;;;;;;;
1294.0;1235.8;;;;-0.55723196;1.2490007;0.27279666;;;;;;;;;;;;;;;
1294.0;1235.8;;;;-0.5517655;1.2386934;0.27146152;;;;;;;;;;;;;;;
1294.0;1235.8;;;;-0.55031973;1.2296563;0.2708855;;;;;;;;;;;;;;;
1294.0;1237.5;139452;139373;12724;;;;;;;;;;;;;;;;;;
1294.0;1243.7;;;;;;;;;;;;;55;;;;;;;;
1294.0;1243.7;;;;;;;;;;;;;41;;;;;;;;
1294.0;1243.7;;;;;;;;;;;;;-82;;;;;;;;
1294.0;1243.7;;;;;;;;;;;;;387;;;;;;;;
1294.0;1243.7;;;;;;;;;;;;;-145;;;;;;;;
1294.0;1245.9;;;;-0.55022436;1.2205774;0.27160266;;;;;;;;;;;;;;;
1294.0;1245.9;;;;-0.55302054;1.2095491;0.27603915;;;;;;;;;;;;;;;
1294.0;1245.9;;;;-0.5578957;1.2063028;0.27870944;;;;;;;;;;;;;;;
1294.0;1245.9;;;;-0.55777365;1.203087;0.276413;;;;;;;;;;;;;;;
1294.0;1245.9;;;;-0.5594712;1.1972963;0.27671817;;;;;;;;;;;;;;;
1295.0;1252.9;;;;;;;;;;;;;;;;;103.88501;0.22507401;-60.96835;;1129.3
1295.0;1252.9;;;;;;;;;;;;;;1.032258;-0.24274422;0.1767632;;;;;1129.3
1295.0;1252.9;;;;;;;;;;;;;;;;;124.75585;-38.922546;-90.76205;;1129.3
1295.0;1252.9;;;;;;;;;;;;;;1.3234657;0.16724144;-0.4407483;;;;;1129.3
1295.0;1252.9;;;;;;;;;;;;;;;;;124.85122;-35.24125;-119.21293;;1138.9
1295.0;1252.9;;;;;;;;;;;;;;1.6095462;0.56178474;-0.8033692;;;;;1138.9
1295.0;1252.9;;;;;;;;;;;;;;;;;112.44545;-9.701072;-124.988556;;1138.9
1295.0;1252.9;;;;;;;;;;;;;;1.8398999;0.77748954;-0.8080081;;;;;1138.9
1295.0;1252.9;;;;;;;;;;;;;;;;;72.851494;25.444807;-124.988556;;1148.6
1295.0;1252.9;;;;;;;;;;;;;;1.9965819;0.9762261;-0.5910825;;;;;1148.6
1295.0;1252.9;;;;;;;;;;;;;;;;;24.601734;66.698204;-124.988556;;1148.6
1295.0;1252.9;;;;;;;;;;;;;;1.9974364;1.1086154;-0.2125309;;;;;1148.6
1295.0;1253.6;;;;;;;;;;;;;;;;;-15.030366;69.0939;-119.67452;;1158.0
1295.0;1253.6;;;;;;;;;;;;;;1.9974364;1.2348399;-0.010071108;;;;;1158.0
1295.0;1253.6;;;;;;;;;;;;;;;;;-18.494217;34.619434;-65.75594;;1158.0
1295.0;1253.6;;;;;;;;;;;;;;1.4589678;0.38929412;-0.1815241;;;;;1158.0
1295.0;1253.6;;;;;;;;;;;;;;;;;-11.9747;-7.488479;-43.62621;;1167.6
1295.0;1253.6;;;;;;;;;;;;;;1.1002533;-0.006225776;-0.38032165;;;;;1167.6
1295.0;1253.6;;;;;;;;;;;;;;;;;-4.3908505;-40.303505;-32.338177;;1167.6
1295.0;1253.6;;;;;;;;;;;;;;0.8348643;-0.1779229;-0.50685143;;;;;1167.6
1295.0;1253.6;;;;;;;;;;;;;;;;;1.9226661;-59.2555;-14.996032;;1177.3
1295.0;1253.6;;;;;;;;;;;;;;0.59779656;-0.33790094;-0.5767388;;;;;1177.3
1295.0;1253.6;;;;;;;;;;;;;;;;;3.1014435;-55.978577;-2.5101473;;1177.3
1295.0;1253.6;;;;;;;;;;;;;;0.45863217;-0.4176153;-0.5939512;;;;;1177.3
1355.0;1255.7;;;;-0.5669251;1.1851274;0.2774544;;;;;;;;;;;;;;;
1355.0;1255.7;;;;-0.5772286;1.1720506;0.2817612;;;;;;;;;;;;;;;
1355.0;1255.7;;;;-0.5825997;1.1619531;0.28584674;;;;;;;;;;;;;;;
1355.0;1255.7;;;;-0.59162146;1.1538736;0.2881699;;;;;;;;;;;;;;;
1355.0;1255.7;;;;-0.59410864;1.1452256;0.2906914;;;;;;;;;;;;;;;
1355.0;1257.4;155734;155810;12702;;;;;;;;;;;;;;;;;;
1355.0;1265.6;;;;-0.5941964;1.1345598;0.2944565;;;;;;;;;;;;;;;
1355.0;1265.6;;;;-0.59867865;1.1247407;0.29968646;;;;;;;;;;;;;;;
1355.0;1265.6;;;;-0.59548193;1.11018;0.30338672;;;;;;;;;;;;;;;
1355.0;1265.6;;;;-0.593586;1.0965005;0.3074799;;;;;;;;;;;;;;;
1355.0;1265.6;;;;-0.5942803;1.0853082;0.3110161;;;;;;;;;;;;;;;
1355.0;1275.6;;;;-0.5968285;1.0744096;0.31443027;;;;;;;;;;;;;;;
1355.0;1275.6;;;;-0.60280997;1.0618364;0.31544498;;;;;;;;;;;;;;;
1355.0;1275.6;;;;-0.6054383;1.0488359;0.31702808;;;;;;;;;;;;;;;
1355.0;1275.6;;;;-0.6082383;1.0358049;0.31803134;;;;;;;;;;;;;;;
1355.0;1275.6;;;;-0.6127129;1.0236207;0.31569675;;;;;;;;;;;;;;;
1355.0;1277.4;172133;172153;12699;;;;;;;;;;;;;;;;;;
1355.0;1283.6;;;;;;;;;;;;;-1350;;;;;;;;
1355.0;1283.6;;;;;;;;;;;;;393;;;;;;;;
1355.0;1283.6;;;;;;;;;;;;;2810;;;;;;;;
1355.0;1283.6;;;;;;;;;;;;;-1507;;;;;;;;
1355.0;1283.6;;;;;;;;;;;;;-14827;;;;;;;;
1357.0;1285.7;;;;-0.61663824;1.011612;0.3124428;;;;;;;;;;;;;;;
1357.0;1285.7;;;;-0.6223107;1.0007745;0.30979922;;;;;;;;;;;;;;;
1357.0;1285.7;;;;-0.6288491;0.99004376;0.30832294;;;;;;;;;;;;;;;
1357.0;1285.7;;;;-0.6386681;0.9777185;0.30310062;;;;;;;;;;;;;;;
1357.0;1285.7;;;;-0.6453591;0.9628488;0.29843524;;;;;;;;;;;;;;;
1357.0;1295.8;;;;-0.6461564;0.94684994;0.29570392;;;;;;;;;;;;;;;
1357.0;1295.8;;;;-0.64581305;0.9313928;0.29187015;;;;;;;;;;;;;;;
1357.0;1295.8;;;;-0.6432343;0.91694653;0.28825763;;;;;;;;;;;;;;;
1357.0;1295.8;;;;-0.63732916;0.9030534;0.28470233;;;;;;;;;;;;;;;
1357.0;1295.8;;;;-0.63221365;0.89097226;0.2819977;;;;;;;;;;;;;;;
1357.0;1297.9;;;;;;;;;;;;;;;;;9.006775;-42.970062;9.548479;;1187.0
1357.0;1297.9;;;;;;;;;;;;;;0.3869747;-0.51045257;-0.6140934;;;;;1187.0
1357.0;1297.9;;;;;;;;;;;;;;;;;21.473587;-32.021545;11.833552;;1187.0
1357.0;1297.9;;;;;;;;;;;;;;0.41212195;-0.56300545;-0.6969207;;;;;1187.0
1357.0;1297.9;;;;;;;;;;;;;;;;;23.083437;-19.966734;-0.43107393;;1196.7
1357.0;1297.9;;;;;;;;;;;;;;0.6551103;-0.32166508;-0.8314463;;;;;1196.7
1357.0;1297.9;;;;;;;;;;;;;;;;;-1.2703329;-0.6675924;-1.9264809;;1196.7
1357.0;1297.9;;;;;;;;;;;;;;0.8498184;-0.0827662;-0.9022492;;;;;1196.7
1357.0;1297.9;;;;;;;;;;;;;;;;;-18.993958;16.670736;-0.4730369;;1206.3
1357.0;1297.9;;;;;;;;;;;;;;0.9412519;0.012817774;-0.82216865;;;;;1206.3
1357.0;1297.9;;;;;;;;;;;;;;;;;-20.16129;25.0824;-2.906888;;1206.3
1357.0;1297.9;;;;;;;;;;;;;;1.0365306;0.06946013;-0.73378706;;;;;1206.3
1357.0;1297.7;188581;188571;12714;;;;;;;;;;;;;;;;;;
1358.0;1299.0;;;;;;;;;;;;;;;;;-12.562181;22.804956;-5.878628;;1215.8
1358.0;1299.0;;;;;;;;;;;;;;1.141087;0.13275552;-0.6610919;;;;;1215.8
1358.0;1299.0;;;;;;;;;;;;;;;;;-8.651998;16.304514;-1.575518;;1215.8
1358.0;1299.0;;;;;;;;;;;;;;1.1280252;0.08417005;-0.5542772;;;;;1215.8
1358.0;1299.0;;;;;;;;;;;;;;;;;-11.234626;10.448774;0.75914794;;1225.4
1358.0;1299.0;;;;;;;;;;;;;;1.0343333;0.01660207;-0.46534625;;;;;1225.4
1358.0;1299.0;;;;;;;;;;;;;;;;;-15.896328;10.143589;1.0376294;;1225.4
1358.0;1299.0;;;;;;;;;;;;;;1.0030214;0.006714072;-0.4222541;;;;;1225.4
1358.0;1299.0;;;;;;;;;;;;;;;;;-15.758995;10.441145;2.601703;;1235.1
1358.0;1299.0;;;;;;;;;;;;;;1.0270699;0.019165624;-0.40730003;;;;;1235.1
1358.0;1299.0;;;;;;;;;;;;;;;;;-12.768181;9.338664;3.7194436;;1235.1
1358.0;1299.0;;;;;;;;;;;;;;1.0603961;0.075319685;-0.3953978;;;;;1235.1
1358.0;1305.7;;;;-0.6257325;0.87841046;0.27867892;;;;;;;;;;;;;;;
1358.0;1305.7;;;;-0.6183434;0.8669778;0.2763405;;;;;;;;;;;;;;;
1358.0;1305.7;;;;-0.61061865;0.856434;0.27362826;;;;;;;;;;;;;;;
1358.0;1305.7;;;;-0.60179144;0.84611523;0.26946643;;;;;;;;;;;;;;;
1358.0;1305.7;;;;-0.5934296;0.8353349;0.26477054;;;;;;;;;;;;;;;
1360.0;1312.9;;;;;;;;;;;;;;;;;-14.137699;6.477554;4.3946652;;1244.8
1360.0;1312.9;;;;;;;;;;;;;;1.1150242;0.14606158;-0.4346446;;;;;1244.8
1360.0;1312.9;;;;;;;;;;;;;;;;;-20.447401;9.414961;4.448073;;1244.8
1360.0;1312.9;;;;;;;;;;;;;;1.1587268;0.2163152;-0.41315958;;;;;1244.8
1360.0;1312.9;;;;;;;;;;;;;;;;;-30.667286;13.294626;4.589221;;1254.4
1360.0;1312.9;;;;;;;;;;;;;;1.1958983;0.28632465;-0.37366864;;;;;1254.4
1360.0;1312.9;;;;;;;;;;;;;;;;;-40.684986;14.33607;4.7647023;;1254.4
1360.0;1312.9;;;;;;;;;;;;;;1.2225715;0.31287575;-0.35139012;;;;;1254.4
1360.0;1312.9;;;;;;;;;;;;;;;;;-47.299873;16.537218;5.9129615;;1263.9
1360.0;1312.9;;;;;;;;;;;;;;1.2200079;0.3023774;-0.31141087;;;;;1263.9
1360.0;1312.9;;;;;;;;;;;;;;;;;-50.408947;16.872921;7.2023683;;1263.9
1360.0;1312.9;;;;;;;;;;;;;;1.1833247;0.26294747;-0.27027193;;;;;1263.9
1360.0;1315.6;;;;-0.5855637;0.8259202;0.26126483;;;;;;;;;;;;;;;
1360.0;1315.6;;;;-0.57508475;0.81734097;0.2566643;;;;;;;;;;;;;;;
1360.0;1315.6;;;;-0.5666581;0.8099023;0.25217822;;;;;;;;;;;;;;;
1360.0;1315.6;;;;-0.56078345;0.8026544;0.2486954;;;;;;;;;;;;;;;
1360.0;1315.6;;;;-0.55790335;0.7962953;0.24798968;;;;;;;;;;;;;;;
1360.0;1317.6;204952;204930;12756;;;;;;;;;;;;;;;;;;
1360.0;1323.7;;;;;;;;;;;;;-29340;;;;;;;;
1360.0;1323.7;;;;;;;;;;;;;-35433;;;;;;;;
1360.0;1323.7;;;;;;;;;;;;;-32696;;;;;;;;
1360.0;1323.7;;;;;;;;;;;;;-28568;;;;;;;;
1360.0;1323.7;;;;;;;;;;;;;-27928;;;;;;;;
1413.0;1325.7;;;;-0.55746084;0.7927209;0.24607852;;;;;;;;;;;;;;;
1413.0;1325.7;;;;-0.5575486;0.7873994;0.24507907;;;;;;;;;;;;;;;
1413.0;1325.7;;;;-0.5617333;0.7825395;0.24493411;;;;;;;;;;;;;;;
1413.0;1325.7;;;;-0.57109076;0.7802011;0.24346164;;;;;;;;;;;;;;;
1413.0;1325.7;;;;-0.57752234;0.7751771;0.24406436;;;;;;;;;;;;;;;
1413.0;1335.6;;;;-0.5858994;0.77227414;0.24810413;;;;;;;;;;;;;;;
1413.0;1335.6;;;;-0.59641653;0.7686578;0.24870685;;;;;;;;;;;;;;;
1413.0;1335.6;;;;-0.60813147;0.7663728;0.2519417;;;;;;;;;;;;;;;
1413.0;1335.6;;;;-0.62842566;0.7647325;0.25498202;;;;;;;;;;;;;;;
1413.0;1335.6;;;;-0.64607626;0.76197064;0.25929263;;;;;;;;;;;;;;;
1413.0;1337.6;221368;221251;12760;;;;;;;;;;;;;;;;;;
1413.0;1345.7;;;;-0.66362005;0.7579156;0.26462176;;;;;;;;;;;;;;;
1413.0;1345.7;;;;-0.68658835;0.75286114;0.2660561;;;;;;;;;;;;;;;
1413.0;1345.7;;;;-0.70148855;0.7477074;0.27255633;;;;;;;;;;;;;;;
1413.0;1345.7;;;;-0.71710974;0.741581;0.28083804;;;;;;;;;;;;;;;
1413.0;1345.7;;;;-0.73408896;0.7379609;0.2848015;;;;;;;;;;;;;;;
1413.0;1355.8;;;;-0.7520257;0.73144156;0.2877541;;;;;;;;;;;;;;;
1413.0;1355.8;;;;-0.76597226;0.725174;0.2958527;;;;;;;;;;;;;;;
1413.0;1355.8;;;;-0.77847683;0.72033316;0.30448154;;;;;;;;;;;;;;;
1413.0;1355.8;;;;-0.7839433;0.7140656;0.3114548;;;;;;;;;;;;;;;
1413.0;1355.8;;;;-0.78821576;0.70533377;0.31906512;;;;;;;;;;;;;;;
1416.0;1358.0;;;;;;;;;;;;;;;;;-53.037354;11.619923;7.4694057;;1273.6
1416.0;1358.0;;;;;;;;;;;;;;1.12772;0.20398572;-0.2990814;;;;;1273.6
1416.0;1358.0;;;;;;;;;;;;;;;;;-57.679985;8.4421835;9.460738;;1273.6
1416.0;1358.0;;;;;;;;;;;;;;1.0734581;0.12878811;-0.33942688;;;;;1273.6
1416.0;1358.0;;;;;;;;;;;;;;;;;-60.93783;9.220405;12.459181;;1283.2
1416.0;1358.0;;;;;;;;;;;;;;1.0362865;0.059877317;-0.33527634;;;;;1283.2
1416.0;1358.0;;;;;;;;;;;;;;;;;-60.91876;9.884182;15.198217;;1283.2
1416.0;1358.0;;;;;;;;;;;;;;0.9771416;0.01678518;-0.32178718;;;;;1283.2
1416.0;1358.0;;;;;;;;;;;;;;;;;-59.659874;8.575701;17.536697;;1292.8
1416.0;1358.0;;;;;;;;;;;;;;0.91909546;3.662221E-4;-0.32770777;;;;;1292.8
1416.0;1358.0;;;;;;;;;;;;;;;;;-58.305614;7.9615164;20.031586;;1292.8
1416.0;1358.0;;;;;;;;;;;;;;0.86971647;-0.00860622;-0.32319102;;;;;1292.8
1416.0;1357.8;237712;237633;12782;;;;;;;;;;;;;;;;;;
1416.0;1363.8;;;;;;;;;;;;;-27822;;;;;;;;
1416.0;1363.8;;;;;;;;;;;;;-26057;;;;;;;;
1416.0;1363.8;;;;;;;;;;;;;-24391;;;;;;;;
1416.0;1363.8;;;;;;;;;;;;;-22704;;;;;;;;
1416.0;1363.8;;;;;;;;;;;;;-21039;;;;;;;;
1416.0;1365.6;;;;-0.7949716;0.6992112;0.32542804;;;;;;;;;;;;;;;
1416.0;1365.6;;;;-0.7979013;0.6928788;0.3313599;;;;;;;;;;;;;;;
1416.0;1365.6;;;;-0.8013612;0.6849175;0.33798984;;;;;;;;;;;;;;;
1416.0;1365.6;;;;-0.8049737;0.67776877;0.34484103;;;;;;;;;;;;;;;
1416.0;1365.6;;;;-0.8052751;0.67143255;0.3527718;;;;;;;;;;;;;;;
1476.0;1373.0;;;;;;;;;;;;;;;;;-54.700615;7.7745905;22.095402;;1302.4
1476.0;1373.0;;;;;;;;;;;;;;0.812891;-0.007202368;-0.29010895;;;;;1302.4
1476.0;1373.0;;;;;;;;;;;;;;;;;-46.514023;4.9630723;23.804438;;1302.4
1476.0;1373.0;;;;;;;;;;;;;;0.7673574;0.012512589;-0.26093325;;;;;1302.4
1476.0;1373.0;;;;;;;;;;;;;;;;;-38.403732;-0.4196295;25.120548;;1312.1
1476.0;1373.0;;;;;;;;;;;;;;0.74544513;0.04693747;-0.2779626;;;;;1312.1
1476.0;1373.0;;;;;;;;;;;;;;;;;-32.582325;-5.031739;25.990326;;1312.1
1476.0;1373.0;;;;;;;;;;;;;;0.7462996;0.07824946;-0.33356732;;;;;1312.1
1476.0;1373.0;;;;;;;;;;;;;;;;;-26.871548;-6.126591;25.868252;;1321.6
1476.0;1373.0;;;;;;;;;;;;;;0.7586901;0.131901;-0.36909086;;;;;1321.6
1476.0;1373.0;;;;;;;;;;;;;;;;;-20.012512;-3.1243324;25.57451;;1321.6
1476.0;1373.0;;;;;;;;;;;;;;0.771691;0.18750572;-0.34986418;;;;;1321.6
1476.0;1375.6;;;;-0.8062669;0.6633797;0.3576775;;;;;;;;;;;;;;;
1476.0;1375.6;;;;-0.8068582;0.65673834;0.36236194;;;;;;;;;;;;;;;
1476.0;1375.6;;;;-0.8050386;0.65087134;0.3667679;;;;;;;;;;;;;;;
1476.0;1375.6;;;;-0.8036233;0.64604574;0.3701897;;;;;;;;;;;;;;;
1476.0;1375.6;;;;-0.8016015;0.64013296;0.37482074;;;;;;;;;;;;;;;
1476.0;1377.7;254068;254110;12796;;;;;;;;;;;;;;;;;;
1476.0;1385.7;;;;-0.7989541;0.63592154;0.3783837;;;;;;;;;;;;;;;
1476.0;1385.7;;;;-0.79470456;0.6311951;0.3807221;;;;;;;;;;;;;;;
1476.0;1385.7;;;;-0.79065335;0.624466;0.3821488;;;;;;;;;;;;;;;
1476.0;1385.7;;;;-0.78561795;0.6200028;0.38414007;;;;;;;;;;;;;;;
1476.0;1385.7;;;;-0.7784997;0.6156083;0.38632208;;;;;;;;;;;;;;;
1478.0;1395.7;;;;-0.7716752;0.6119881;0.38857275;;;;;;;;;;;;;;;
1478.0;1395.7;;;;-0.76391613;0.6087838;0.39023215;;;;;;;;;;;;;;;
1478.0;1395.7;;;;-0.75629056;0.6063233;0.39054495;;;;;;;;;;;;;;;
1478.0;1395.7;;;;-0.7477799;0.60420614;0.39180762;;;;;;;;;;;;;;;
1478.0;1395.7;;;;-0.7404786;0.6017571;0.3917008;;;;;;;;;;;;;;;
1478.0;1397.8;262143;262143;12818;;;;;;;;;;;;;;;;;;
1478.0;1403.9;;;;;;;;;;;;;-20435;;;;;;;;
1478.0;1403.9;;;;;;;;;;;;;-21011;;;;;;;;
1478.0;1403.9;;;;;;;;;;;;;-22341;;;;;;;;
1478.0;1403.9;;;;;;;;;;;;;-23482;;;;;;;;
1478.0;1403.9;;;;;;;;;;;;;-23781;;;;;;;;
1478.0;1405.8;;;;-0.7326432;0.5994721;0.39142996;;;;;;;;;;;;;;;
1478.0;1405.8;;;;-0.7222367;0.5980874;0.39264303;;;;;;;;;;;;;;;
1478.0;1405.8;;;;-0.710476;0.5965424;0.39228445;;;;;;;;;;;;;;;
1478.0;1405.8;;;;-0.7002526;0.5950547;0.3912087;;;;;;;;;;;;;;;
1478.0;1405.8;;;;-0.6898499;0.594143;0.3891526;;;;;;;;;;;;;;;
1478.0;1415.9;;;;-0.67831427;0.5914956;0.38704306;;;;;;;;;;;;;;;
1478.0;1415.9;;;;-0.66725546;0.5887261;0.38518912;;;;;;;;;;;;;;;
1478.0;1415.9;;;;-0.65616614;0.58710486;0.3838616;;;;;;;;;;;;;;;
1478.0;1415.9;;;;-0.6447373;0.58497244;0.3810807;;;;;;;;;;;;;;;
1478.0;1415.9;;;;-0.6335259;0.5839272;0.3774758;;;;;;;;;;;;;;;
1480.0;1418.5;;;;;;;;;;;;;;;;;-13.389997;0.6256294;25.563066;;1331.3
1480.0;1418.5;;;;;;;;;;;;;;0.79696035;0.22614215;-0.2999359;;;;;1331.3
1480.0;1418.5;;;;;;;;;;;;;;;;;-8.7397375;2.7390363;26.276438;;1331.3
1480.0;1418.5;;;;;;;;;;;;;;0.8219245;0.23664053;-0.2666097;;;;;1331.3
1480.0;1418.5;;;;;;;;;;;;;;;;;-6.2982574;4.737999;27.058474;;1340.9
1480.0;1418.5;;;;;;;;;;;;;;0.8382824;0.24427015;-0.23871578;;;;;1340.9
1480.0;1418.5;;;;;;;;;;;;;;;;;-4.2115545;5.043184;27.909176;;1340.9
1480.0;1418.5;;;;;;;;;;;;;;0.8471328;0.24561296;-0.23908201;;;;;1340.9
1480.0;1418.5;;;;;;;;;;;;;;;;;-0.7705924;4.093295;28.832361;;1350.5
1480.0;1418.5;;;;;;;;;;;;;;0.8620258;0.24701682;-0.26978362;;;;;1350.5
1480.0;1418.5;;;;;;;;;;;;;;;;;1.9722588;5.062258;29.816586;;1350.5
1480.0;1418.5;;;;;;;;;;;;;;0.87203586;0.24463637;-0.275338;;;;;1350.5
1480.0;1418.1;262143;262143;12824;;;;;;;;;;;;;;;;;;
1480.0;1425.7;;;;-0.62193686;0.5812951;0.3744965;;;;;;;;;;;;;;;
1480.0;1425.7;;;;-0.60823065;0.5790673;0.37227634;;;;;;;;;;;;;;;
1480.0;1425.7;;;;-0.5969849;0.57708365;0.3671036;;;;;;;;;;;;;;;
1480.0;1425.7;;;;-0.5931092;0.57591635;0.36070636;;;;;;;;;;;;;;;
1480.0;1425.7;;;;-0.5847855;0.5743752;0.3575516;;;;;;;;;;;;;;;
1481.0;1433.1;;;;;;;;;;;;;;;;;2.0828884;7.415998;30.58336;;1360.1
1481.0;1433.1;;;;;;;;;;;;;;0.87582016;0.24359874;-0.2649617;;;;;1360.1
1481.0;1433.1;;;;;;;;;;;;;;;;;2.0638144;9.792626;31.369213;;1360.1
1481.0;1433.1;;;;;;;;;;;;;;0.88717306;0.2414014;-0.25379193;;;;;1360.1
1481.0;1433.1;;;;;;;;;;;;;;;;;4.505295;13.164922;31.74688;;1369.8
1481.0;1433.1;;;;;;;;;;;;;;0.8973662;0.24463637;-0.21497238;;;;;1369.8
1481.0;1433.1;;;;;;;;;;;;;;;;;8.40022;14.9616995;31.910915;;1369.8
1481.0;1433.1;;;;;;;;;;;;;;0.9012726;0.24640645;-0.1857967;;;;;1369.8
1481.0;1433.1;;;;;;;;;;;;;;;;;12.340922;11.783959;32.597584;;1379.5
1481.0;1433.1;;;;;;;;;;;;;;0.90426344;0.22730187;-0.2542802;;;;;1379.5
1481.0;1433.1;;;;;;;;;;;;;;;;;11.2384405;11.825923;32.219917;;1379.5
1481.0;1433.1;;;;;;;;;;;;;;0.9106113;0.26648763;-0.31183812;;;;;1379.5
1481.0;1435.6;;;;-0.5794793;0.57329565;0.35403445;;;;;;;;;;;;;;;
1481.0;1435.6;;;;-0.57427603;0.57258993;0.3493767;;;;;;;;;;;;;;;
1481.0;1435.6;;;;-0.5677796;0.5712319;0.34463504;;;;;;;;;;;;;;;
1481.0;1435.6;;;;-0.5624848;0.5689507;0.34001926;;;;;;;;;;;;;;;
1481.0;1435.6;;;;-0.55870825;0.56706244;0.33584216;;;;;;;;;;;;;;;
1481.0;1437.9;262143;262143;12847;;;;;;;;;;;;;;;;;;
1481.0;1444.0;;;;;;;;;;;;;-23342;;;;;;;;
1481.0;1444.0;;;;;;;;;;;;;-22378;;;;;;;;
1481.0;1444.0;;;;;;;;;;;;;-20681;;;;;;;;
1481.0;1444.0;;;;;;;;;;;;;-18612;;;;;;;;
1481.0;1444.0;;;;;;;;;;;;;-17210;;;;;;;;
1532.0;1445.7;;;;-0.5562821;0.5653115;0.3308144;;;;;;;;;;;;;;;
1532.0;1445.7;;;;-0.5544663;0.56387717;0.32767108;;;;;;;;;;;;;;;
1532.0;1445.7;;;;-0.55336004;0.56338507;0.32472232;;;;;;;;;;;;;;;
1532.0;1445.7;;;;-0.5535241;0.56252295;0.3198357;;;;;;;;;;;;;;;
1532.0;1445.7;;;;-0.5533982;0.56120306;0.31641772;;;;;;;;;;;;;;;
1532.0;1455.4;;;;-0.55323035;0.5605927;0.3126183;;;;;;;;;;;;;;;
1532.0;1455.4;;;;-0.5531121;0.5588837;0.30902484;;;;;;;;;;;;;;;
1532.0;1455.4;;;;-0.5544091;0.5562058;0.3041344;;;;;;;;;;;;;;;
1532.0;1455.4;;;;-0.55800635;0.55372244;0.2993317;;;;;;;;;;;;;;;
1532.0;1455.4;;;;-0.5605698;0.551014;0.29512027;;;;;;;;;;;;;;;
1532.0;1457.7;262143;262143;12858;;;;;;;;;;;;;;;;;;
1532.0;1465.5;;;;-0.5625878;0.54835516;0.29012302;;;;;;;;;;;;;;;
1532.0;1465.5;;;;-0.5637589;0.5457993;0.28590778;;;;;;;;;;;;;;;
1532.0;1465.5;;;;-0.56571203;0.541771;0.28117755;;;;;;;;;;;;;;;
1532.0;1465.5;;;;-0.56926733;0.5407372;0.27518466;;;;;;;;;;;;;;;
1532.0;1465.5;;;;-0.5696946;0.53739554;0.26876834;;;;;;;;;;;;;;;
1532.0;1475.6;;;;-0.5689164;0.5363007;0.26485065;;;;;;;;;;;;;;;
1532.0;1475.6;;;;-0.5676423;0.53381354;0.25980762;;;;;;;;;;;;;;;
1532.0;1475.6;;;;-0.5667992;0.5303269;0.254406;;;;;;;;;;;;;;;
1532.0;1475.6;;;;-0.5662423;0.5280381;0.2487717;;;;;;;;;;;;;;;
1532.0;1475.6;;;;-0.5640183;0.5257035;0.24437717;;;;;;;;;;;;;;;
1534.0;1477.9;262143;262143;12871;;;;;;;;;;;;;;;;;;
1534.0;1483.9;;;;;;;;;;;;;-16934;;;;;;;;
1534.0;1483.9;;;;;;;;;;;;;-15596;;;;;;;;
1534.0;1483.9;;;;;;;;;;;;;-10408;;;;;;;;
1534.0;1483.9;;;;;;;;;;;;;-9291;;;;;;;;
1534.0;1483.9;;;;;;;;;;;;;-24250;;;;;;;;
1534.0;1485.6;;;;;;;;;;;;;;;;;5.2568135;15.911589;30.987732;;1388.9
1534.0;1485.6;;;;;;;;;;;;;;0.920072;0.31250954;-0.2987762;;;;;1388.9
1534.0;1485.6;;;;;;;;;;;;;;;;;2.0332959;18.166143;29.862362;;1388.9
1534.0;1485.6;;;;;;;;;;;;;;0.9043855;0.3325297;-0.2680746;;;;;1388.9
1534.0;1485.6;;;;;;;;;;;;;;;;;0.2784814;17.406994;30.426954;;1398.5
1534.0;1485.6;;;;;;;;;;;;;;0.8685568;0.3177587;-0.2719199;;;;;1398.5
1534.0;1485.6;;;;;;;;;;;;;;;;;-3.6011841;17.563402;29.633474;;1398.5
1534.0;1485.6;;;;;;;;;;;;;;0.85024565;0.32129887;-0.28083134;;;;;1398.5
1534.0;1485.6;;;;;;;;;;;;;;;;;-9.250923;18.364513;27.630695;;1408.2
1534.0;1485.6;;;;;;;;;;;;;;0.8185064;0.3350322;-0.27643666;;;;;1408.2
1534.0;1485.6;;;;;;;;;;;;;;;;;-13.729514;18.372143;25.250252;;1408.2
1534.0;1485.6;;;;;;;;;;;;;;0.7823115;0.3315531;-0.2658162;;;;;1408.2
1534.0;1485.5;;;;-0.56114966;0.5220261;0.23954394;;;;;;;;;;;;;;;
1534.0;1485.5;;;;-0.556675;0.51876074;0.23432925;;;;;;;;;;;;;;;
1534.0;1485.5;;;;-0.55258185;0.51543814;0.22846606;;;;;;;;;;;;;;;
1534.0;1485.5;;;;-0.54905707;0.5121575;0.22256854;;;;;;;;;;;;;;;
1534.0;1485.5;;;;-0.54466635;0.50897986;0.21717837;;;;;;;;;;;;;;;
1594.0;1486.3;;;;;;;;;;;;;;;;;-17.128513;17.986847;21.992401;;1417.8
1594.0;1486.3;;;;;;;;;;;;;;0.7505722;0.34846035;-0.24982452;;;;;1417.8
1594.0;1486.3;;;;;;;;;;;;;;;;;-19.61577;16.312143;17.70455;;1417.8
1594.0;1486.3;;;;;;;;;;;;;;0.7069918;0.3503525;-0.24158452;;;;;1417.8
1594.0;1486.3;;;;;;;;;;;;;;;;;-21.008179;14.118626;11.455885;;1427.3
1594.0;1486.3;;;;;;;;;;;;;;0.67305523;0.38801232;-0.22998749;;;;;1427.3
1594.0;1486.3;;;;;;;;;;;;;;;;;-19.730215;8.663442;3.765221;;1427.3
1594.0;1486.3;;;;;;;;;;;;;;0.6322825;0.40632343;-0.25879696;;;;;1427.3
1594.0;1486.3;;;;;;;;;;;;;;;;;-13.9965515;3.2044435;-7.534257;;1437.0
1594.0;1486.3;;;;;;;;;;;;;;0.61854917;0.46021912;-0.28370008;;;;;1437.0
1594.0;1486.3;;;;;;;;;;;;;;;;;-7.099368;0.79729605;-22.663807;;1437.0
1594.0;1486.3;;;;;;;;;;;;;;0.6234321;0.5551927;-0.2807703;;;;;1437.0
1594.0;1495.4;;;;-0.53968436;0.50420004;0.21134189;;;;;;;;;;;;;;;
1594.0;1495.4;;;;-0.5362893;0.5008965;0.20582202;;;;;;;;;;;;;;;
1594.0;1495.4;;;;-0.5347443;0.49906927;0.1992493;;;;;;;;;;;;;;;
1594.0;1495.4;;;;-0.5303078;0.49571997;0.19415668;;;;;;;;;;;;;;;
1594.0;1495.4;;;;-0.5274392;0.49452978;0.18885806;;;;;;;;;;;;;;;
1594.0;1497.8;262143;262143;12875;;;;;;;;;;;;;;;;;;
1594.0;1505.5;;;;-0.5248795;0.49320608;0.18231203;;;;;;;;;;;;;;;
1594.0;1505.5;;;;-0.52336127;0.49353415;0.17701341;;;;;;;;;;;;;;;
1594.0;1505.5;;;;-0.52035147;0.49272925;0.17245485;;;;;;;;;;;;;;;
1594.0;1505.5;;;;-0.51715094;0.4913445;0.16665651;;;;;;;;;;;;;;;
1594.0;1505.5;;;;-0.5146447;0.48978812;0.16139986;;;;;;;;;;;;;;;
1598.0;1515.4;;;;-0.51414114;0.48919302;0.15633394;;;;;;;;;;;;;;;
1598.0;1515.4;;;;-0.51299673;0.49073035;0.15203096;;;;;;;;;;;;;;;
1598.0;1515.4;;;;-0.5133439;0.49204642;0.14850236;;;;;;;;;;;;;;;
1598.0;1515.4;;;;-0.51341635;0.49272162;0.14445116;;;;;;;;;;;;;;;
1598.0;1515.4;;;;-0.51486975;0.49623495;0.14058687;;;;;;;;;;;;;;;
1598.0;1517.9;262143;262143;12893;;;;;;;;;;;;;;;;;;
1598.0;1523.9;;;;;;;;;;;;;-47489;;;;;;;;
1598.0;1523.9;;;;;;;;;;;;;-55350;;;;;;;;
1598.0;1523.9;;;;;;;;;;;;;-37742;;;;;;;;
1598.0;1523.9;;;;;;;;;;;;;-11594;;;;;;;;
1598.0;1523.9;;;;;;;;;;;;;822;;;;;;;;
1598.0;1525.5;;;;-0.5154801;0.4987107;0.13608553;;;;;;;;;;;;;;;
1598.0;1525.5;;;;-0.5195542;0.50150305;0.13128282;;;;;;;;;;;;;;;
1598.0;1525.5;;;;-0.5202332;0.50323874;0.12913896;;;;;;;;;;;;;;;
1598.0;1525.5;;;;-0.52213293;0.5066567;0.1249695;;;;;;;;;;;;;;;
1598.0;1525.5;;;;-0.52338797;0.5114556;0.12126543;;;;;;;;;;;;;;;
1598.0;1535.7;;;;-0.52330405;0.5183602;0.11927034;;;;;;;;;;;;;;;
1598.0;1535.7;;;;-0.5227433;0.5252953;0.11503984;;;;;;;;;;;;;;;
1598.0;1535.7;;;;-0.52006155;0.52992636;0.11351015;;;;;;;;;;;;;;;
1598.0;1535.7;;;;-0.5176926;0.5381089;0.113857284;;;;;;;;;;;;;;;
1598.0;1535.7;;;;-0.5145951;0.54437643;0.11357881;;;;;;;;;;;;;;;
1601.0;1538.6;;;;;;;;;;;;;;;;;-0.23270364;4.203925;-39.10565;;1446.6
1601.0;1538.6;;;;;;;;;;;;;;0.6569414;0.6736656;-0.23303933;;;;;1446.6
1601.0;1538.6;;;;;;;;;;;;;;;;;6.0197763;17.254402;-56.222725;;1446.6
1601.0;1538.6;;;;;;;;;;;;;;0.7259133;0.7591174;-0.11279641;;;;;1446.6
1601.0;1538.6;;;;;;;;;;;;;;;;;17.77703;28.839993;-73.86243;;1456.3
1601.0;1538.6;;;;;;;;;;;;;;0.8044679;0.8167974;0.028077029;;;;;1456.3
1601.0;1538.6;;;;;;;;;;;;;;;;;27.203438;24.25077;-91.34571;;1456.3
1601.0;1538.6;;;;;;;;;;;;;;0.8997467;0.946379;0.07238991;;;;;1456.3
1601.0;1538.6;;;;;;;;;;;;;;;;;24.048586;8.011109;-103.503525;;1466.0
1601.0;1538.6;;;;;;;;;;;;;;1.0246284;1.0217597;-0.090151675;;;;;1466.0
1601.0;1538.6;;;;;;;;;;;;;;;;;17.27729;1.1902219;-104.739525;;1466.0
1601.0;1538.6;;;;;;;;;;;;;;1.086642;1.073397;-0.15411848;;;;;1466.0
1601.0;1538.1;262143;262143;12890;;;;;;;;;;;;;;;;;;
1601.0;1545.6;;;;-0.5153237;0.5536118;0.11128236;;;;;;;;;;;;;;;
1601.0;1545.6;;;;-0.51564795;0.56304556;0.109943405;;;;;;;;;;;;;;;
1601.0;1545.6;;;;-0.51489264;0.57147604;0.11223222;;;;;;;;;;;;;;;
1601.0;1545.6;;;;-0.516964;0.5798684;0.11411287;;;;;;;;;;;;;;;
1601.0;1545.6;;;;-0.51738364;0.58954626;0.11577989;;;;;;;;;;;;;;;
1602.0;1546.1;;;;;;;;;;;;;;;;;-1.1978515;9.9147005;-108.48567;;1475.6
1602.0;1546.1;;;;;;;;;;;;;;1.0790734;1.0083315;-0.08404797;;;;;1475.6
1602.0;1546.1;;;;;;;;;;;;;;;;;-9.62096;18.13181;-119.68215;;1475.6
1602.0;1546.1;;;;;;;;;;;;;;1.0892056;0.8786279;0.021179846;;;;;1475.6
1602.0;1546.1;;;;;;;;;;;;;;;;;-4.081851;15.007477;-124.86648;;1485.2
1602.0;1546.1;;;;;;;;;;;;;;1.1186864;0.7572863;0.06878872;;;;;1485.2
1602.0;1546.1;;;;;;;;;;;;;;;;;-2.1095922;7.4083686;-124.988556;;1485.2
1602.0;1546.1;;;;;;;;;;;;;;1.1172826;0.70583206;0.03180029;;;;;1485.2
1602.0;1546.1;;;;;;;;;;;;;;;;;-8.274331;6.111332;-124.988556;;1494.7
1602.0;1546.1;;;;;;;;;;;;;;1.1965086;0.63997316;0.01678518;;;;;1494.7
1602.0;1546.1;;;;;;;;;;;;;;;;;-16.933958;11.738182;-124.988556;;1494.7
1602.0;1546.1;;;;;;;;;;;;;;1.2835475;0.48750266;0.014404736;;;;;1494.7
1602.0;1555.6;;;;-0.5186539;0.5993081;0.117942825;;;;;;;;;;;;;;;
1602.0;1555.6;;;;-0.51938635;0.60973746;0.12166597;;;;;;;;;;;;;;;
1602.0;1555.6;;;;-0.5203095;0.61713797;0.12194444;;;;;;;;;;;;;;;
1602.0;1555.6;;;;-0.5216828;0.6245499;0.12523271;;;;;;;;;;;;;;;
1602.0;1555.6;;;;-0.5247498;0.63266;0.12786104;;;;;;;;;;;;;;;
1602.0;1558.1;262143;262143;12880;;;;;;;;;;;;;;;;;;
1602.0;1564.2;;;;;;;;;;;;;-2094;;;;;;;;
1602.0;1564.2;;;;;;;;;;;;;-6407;;;;;;;;
1602.0;1564.2;;;;;;;;;;;;;-5112;;;;;;;;
1602.0;1564.2;;;;;;;;;;;;;-3268;;;;;;;;
1602.0;1564.2;;;;;;;;;;;;;-3156;;;;;;;;
1652.0;1565.7;;;;-0.526661;0.64028174;0.12939836;;;;;;;;;;;;;;;
1652.0;1565.7;;;;-0.52846915;0.64973456;0.13399126;;;;;;;;;;;;;;;
1652.0;1565.7;;;;-0.5274773;0.6589547;0.13806154;;;;;;;;;;;;;;;
1652.0;1565.7;;;;-0.5293427;0.66810995;0.14100267;;;;;;;;;;;;;;;
1652.0;1565.7;;;;-0.52965933;0.6779633;0.1436577;;;;;;;;;;;;;;;
1652.0;1575.4;;;;-0.52984244;0.6869126;0.1487465;;;;;;;;;;;;;;;
1652.0;1575.4;;;;-0.5307198;0.6959458;0.15392686;;;;;;;;;;;;;;;
1652.0;1575.4;;;;-0.5315133;0.7094689;0.16106035;;;;;;;;;;;;;;;
1652.0;1575.4;;;;-0.5315743;0.72082144;0.1639824;;;;;;;;;;;;;;;
1652.0;1575.4;;;;-0.53015524;0.7349854;0.17065431;;;;;;;;;;;;;;;
1652.0;1578.0;262143;262143;12869;;;;;;;;;;;;;;;;;;
1652.0;1585.5;;;;-0.52890784;0.749939;0.17480089;;;;;;;;;;;;;;;
1652.0;1585.5;;;;-0.52844626;0.7639047;0.17754366;;;;;;;;;;;;;;;
1652.0;1585.5;;;;-0.5259972;0.7793428;0.18393327;;;;;;;;;;;;;;;
1652.0;1585.5;;;;-0.52074057;0.7982789;0.18987277;;;;;;;;;;;;;;;
1652.0;1585.5;;;;-0.5197869;0.8162881;0.19029239;;;;;;;;;;;;;;;
1652.0;1595.6;;;;-0.51907355;0.8343812;0.1920853;;;;;;;;;;;;;;;
1652.0;1595.6;;;;-0.51871496;0.8536111;0.1948624;;;;;;;;;;;;;;;
1652.0;1595.6;;;;-0.51857764;0.8739244;0.19675067;;;;;;;;;;;;;;;
1652.0;1595.6;;;;-0.5203591;0.8954164;0.19976047;;;;;;;;;;;;;;;
1652.0;1595.6;;;;-0.5235291;0.9202844;0.20387653;;;;;;;;;;;;;;;
1655.0;1598.4;;;;;;;;;;;;;;;;;-16.99881;22.621845;-124.988556;;1504.3
1655.0;1598.4;;;;;;;;;;;;;;1.3251747;0.33295694;0.032288585;;;;;1504.3
1655.0;1598.4;;;;;;;;;;;;;;;;;-11.677145;26.657919;-124.988556;;1504.3
1655.0;1598.4;;;;;;;;;;;;;;1.3859066;0.23572497;0.055360578;;;;;1504.3
1655.0;1598.4;;;;;;;;;;;;;;;;;-14.02707;20.054476;-124.988556;;1513.9
1655.0;1598.4;;;;;;;;;;;;;;1.4898525;0.10010071;-0.05053865;;;;;1513.9
1655.0;1598.4;;;;;;;;;;;;;;;;;-13.393811;15.518662;-124.988556;;1513.9
1655.0;1598.4;;;;;;;;;;;;;;1.5610828;0.027588733;-0.14868619;;;;;1513.9
1655.0;1598.4;;;;;;;;;;;;;;;;;-16.193884;17.19718;-124.988556;;1523.3
1655.0;1598.4;;;;;;;;;;;;;;1.5259866;-0.062379833;-0.18353832;;;;;1523.3
1655.0;1598.4;;;;;;;;;;;;;;;;;-20.321512;21.736809;-124.988556;;1523.3
1655.0;1598.4;;;;;;;;;;;;;;1.4769738;-0.15381329;-0.1902524;;;;;1523.3
1655.0;1598.2;262143;262143;12854;;;;;;;;;;;;;;;;;;
1655.0;1604.2;;;;;;;;;;;;;-2323;;;;;;;;
1655.0;1604.2;;;;;;;;;;;;;-1659;;;;;;;;
1655.0;1604.2;;;;;;;;;;;;;-1972;;;;;;;;
1655.0;1604.2;;;;;;;;;;;;;-2381;;;;;;;;
1655.0;1604.2;;;;;;;;;;;;;-2798;;;;;;;;
1655.0;1605.6;;;;-0.5276299;0.9422685;0.20728305;;;;;;;;;;;;;;;
1655.0;1605.6;;;;-0.5305329;0.9643289;0.2119942;;;;;;;;;;;;;;;
1655.0;1605.6;;;;-0.5360375;0.99045956;0.21768954;;;;;;;;;;;;;;;
1655.0;1605.6;;;;-0.5423394;1.0166589;0.22138599;;;;;;;;;;;;;;;
1655.0;1605.6;;;;-0.55123526;1.0440294;0.2248154;;;;;;;;;;;;;;;
1714.0;1605.7;;;;;;;;;;;;;;;;;-14.309366;20.844143;-124.988556;;1533.0
1714.0;1605.7;;;;;;;;;;;;;;1.3569139;-0.3076876;-0.17108676;;;;;1533.0
1714.0;1605.7;;;;;;;;;;;;;;;;;1.5182959;10.063478;-123.32148;;1533.0
1714.0;1605.7;;;;;;;;;;;;;;1.2289194;-0.43098238;-0.16492203;;;;;1533.0
1714.0;1605.7;;;;;;;;;;;;;;;;;20.237587;-6.8666644;-108.57723;;1542.5
1714.0;1605.7;;;;;;;;;;;;;;1.1168554;-0.50050354;-0.14490189;;;;;1542.5
1714.0;1605.7;;;;;;;;;;;;;;;;;27.161474;-22.732473;-97.24723;;1542.5
1714.0;1605.7;;;;;;;;;;;;;;1.029023;-0.5301065;-0.16034424;;;;;1542.5
1714.0;1605.7;;;;;;;;;;;;;;;;;23.754845;-28.122807;-103.01523;;1552.2
1714.0;1605.7;;;;;;;;;;;;;;1.0265206;-0.5805231;-0.2628254;;;;;1552.2
1714.0;1605.7;;;;;;;;;;;;;;;;;25.524918;-11.101108;-119.63256;;1552.2
1714.0;1605.7;;;;;;;;;;;;;;1.0605793;-0.44660786;-0.2412183;;;;;1552.2
1714.0;1615.3;;;;-0.5599404;1.0739976;0.22887805;;;;;;;;;;;;;;;
1714.0;1615.3;;;;-0.56995016;1.1046525;0.23268893;;;;;;;;;;;;;;;
1714.0;1615.3;;;;-0.5814896;1.1349412;0.23556522;;;;;;;;;;;;;;;
1714.0;1615.3;;;;-0.59065634;1.1641275;0.23886874;;;;;;;;;;;;;;;
1714.0;1615.3;;;;-0.5981217;1.1901361;0.2406502;;;;;;;;;;;;;;;
1714.0;1618.1;262143;262143;12823;;;;;;;;;;;;;;;;;;
1714.0;1625.4;;;;-0.6056405;1.2198297;0.2414284;;;;;;;;;;;;;;;
1714.0;1625.4;;;;-0.6140786;1.2494928;0.24465564;;;;;;;;;;;;;;;
1714.0;1625.4;;;;-0.6203576;1.2739297;0.24823001;;;;;;;;;;;;;;;
1714.0;1625.4;;;;-0.6228486;1.2967683;0.25015643;;;;;;;;;;;;;;;
1714.0;1625.4;;;;-0.62411886;1.3160325;0.25091174;;;;;;;;;;;;;;;
1715.0;1635.4;;;;-0.62580496;1.3333474;0.25260547;;;;;;;;;;;;;;;
1715.0;1635.4;;;;-0.62738043;1.3436815;0.25218585;;;;;;;;;;;;;;;
1715.0;1635.4;;;;-0.62572485;1.3532373;0.2521477;;;;;;;;;;;;;;;
1715.0;1635.4;;;;-0.6217957;1.3557702;0.2505341;;;;;;;;;;;;;;;
1715.0;1635.4;;;;-0.6186486;1.3527757;0.24969104;;;;;;;;;;;;;;;
1715.0;1638.2;262143;262143;12804;;;;;;;;;;;;;;;;;;
1715.0;1644.2;;;;;;;;;;;;;-3446;;;;;;;;
1715.0;1644.2;;;;;;;;;;;;;-4517;;;;;;;;
1715.0;1644.2;;;;;;;;;;;;;-5892;;;;;;;;
1715.0;1644.2;;;;;;;;;;;;;-7188;;;;;;;;
1715.0;1644.2;;;;;;;;;;;;;-8182;;;;;;;;
1715.0;1645.5;;;;-0.6122895;1.3465387;0.24871066;;;;;;;;;;;;;;;
1715.0;1645.5;;;;-0.5987969;1.3470536;0.25127032;;;;;;;;;;;;;;;
1715.0;1645.5;;;;-0.5809594;1.3508645;0.2542458;;;;;;;;;;;;;;;
1715.0;1645.5;;;;-0.57248694;1.3407441;0.25503162;;;;;;;;;;;;;;;
1715.0;1645.5;;;;-0.5681725;1.3152581;0.2565079;;;;;;;;;;;;;;;
1715.0;1655.6;;;;-0.56444174;1.2850457;0.26123813;;;;;;;;;;;;;;;
1715.0;1655.6;;;;-0.56058127;1.2539827;0.26641467;;;;;;;;;;;;;;;
1715.0;1655.6;;;;-0.55668265;1.2203866;0.27128986;;;;;;;;;;;;;;;
1715.0;1655.6;;;;-0.55040747;1.1834337;0.27561572;;;;;;;;;;;;;;;
1715.0;1655.6;;;;-0.54269034;1.1464807;0.27973178;;;;;;;;;;;;;;;
1717.0;1658.5;;;;;;;;;;;;;;;;;19.177069;-0.07248146;-124.98474;;1561.8
1717.0;1658.5;;;;;;;;;;;;;;1.1173437;-0.06927702;-0.15173803;;;;;1561.8
1717.0;1658.5;;;;;;;;;;;;;;;;;10.898923;-5.176702;-124.988556;;1561.8
1717.0;1658.5;;;;;;;;;;;;;;1.103183;0.07196265;-0.20044558;;;;;1561.8
1717.0;1658.5;;;;;;;;;;;;;;;;;16.941587;-6.2181463;-122.78359;;1571.5
1717.0;1658.5;;;;;;;;;;;;;;1.0657064;0.08600116;-0.19232765;;;;;1571.5
1717.0;1658.5;;;;;;;;;;;;;;;;;20.634327;-5.8481092;-106.66982;;1571.5
1717.0;1658.5;;;;;;;;;;;;;;1.0990936;0.020386364;-0.1805475;;;;;1571.5
1717.0;1658.5;;;;;;;;;;;;;;;;;22.217474;-8.194221;-92.699974;;1581.2
1717.0;1658.5;;;;;;;;;;;;;;1.1543322;-0.00982696;-0.1920835;;;;;1581.2
1717.0;1658.5;;;;;;;;;;;;;;;;;24.651327;-14.252144;-86.325424;;1581.2
1717.0;1658.5;;;;;;;;;;;;;;1.1758171;-0.05121006;-0.25116733;;;;;1581.2
1717.0;1658.3;262143;262143;12790;;;;;;;;;;;;;;;;;;
1717.0;1665.6;;;;-0.5344468;1.1092073;0.28344348;;;;;;;;;;;;;;;
1717.0;1665.6;;;;-0.5260468;1.0714036;0.28757098;;;;;;;;;;;;;;;
1717.0;1665.6;;;;-0.5186921;1.0391046;0.29330447;;;;;;;;;;;;;;;
1717.0;1665.6;;;;-0.51292807;1.0094186;0.2960396;;;;;;;;;;;;;;;
1717.0;1665.6;;;;-0.5071297;0.9827157;0.2987328;;;;;;;;;;;;;;;
1718.0;1666.3;;;;;;;;;;;;;;;;;29.030733;-18.765068;-75.31969;;1590.9
1718.0;1666.3;;;;;;;;;;;;;;1.1799676;-0.1920835;-0.319834;;;;;1590.9
1718.0;1666.3;;;;;;;;;;;;;;;;;35.824913;-17.654957;-65.71017;;1590.9
1718.0;1666.3;;;;;;;;;;;;;;1.1645863;-0.3144017;-0.32807398;;;;;1590.9
1718.0;1666.3;;;;;;;;;;;;;;;;;41.165653;-17.361216;-61.02176;;1600.6
1718.0;1666.3;;;;;;;;;;;;;;1.1056856;-0.38734093;-0.30512404;;;;;1600.6
1718.0;1666.3;;;;;;;;;;;;;;;;;43.66436;-20.210882;-61.899166;;1600.6
1718.0;1666.3;;;;;;;;;;;;;;1.0331125;-0.4067507;-0.29639578;;;;;1600.6
1718.0;1666.3;;;;;;;;;;;;;;;;;49.77569;-27.665028;-63.791313;;1610.2
1718.0;1666.3;;;;;;;;;;;;;;0.9901425;-0.36500138;-0.31171605;;;;;1610.2
1718.0;1666.3;;;;;;;;;;;;;;;;;55.017242;-32.422104;-62.166203;;1610.2
1718.0;1666.3;;;;;;;;;;;;;;0.9503464;-0.2789392;-0.32764673;;;;;1610.2
1718.0;1675.4;;;;-0.50243;0.9593278;0.3021126;;;;;;;;;;;;;;;
1718.0;1675.4;;;;-0.49929053;0.94194424;0.30645755;;;;;;;;;;;;;;;
1718.0;1675.4;;;;-0.49649817;0.9293481;0.30973056;;;;;;;;;;;;;;;
1718.0;1675.4;;;;-0.49106985;0.920292;0.3133202;;;;;;;;;;;;;;;
1718.0;1675.4;;;;-0.48548132;0.9143487;0.31431964;;;;;;;;;;;;;;;
1718.0;1678.3;262143;262143;12819;;;;;;;;;;;;;;;;;;
1718.0;1684.3;;;;;;;;;;;;;-8650;;;;;;;;
1718.0;1684.3;;;;;;;;;;;;;-8421;;;;;;;;
1718.0;1684.3;;;;;;;;;;;;;-7597;;;;;;;;
1718.0;1684.3;;;;;;;;;;;;;-6286;;;;;;;;
1718.0;1684.3;;;;;;;;;;;;;-4620;;;;;;;;
1771.0;1685.5;;;;-0.47817236;0.90958035;0.3184395;;;;;;;;;;;;;;;
1771.0;1685.5;;;;-0.46822363;0.9089891;0.32664874;;;;;;;;;;;;;;;
1771.0;1685.5;;;;-0.45868307;0.91416943;0.3328667;;;;;;;;;;;;;;;
1771.0;1685.5;;;;-0.4515763;0.91606534;0.33561328;;;;;;;;;;;;;;;
1771.0;1685.5;;;;-0.44767386;0.91622174;0.33719257;;;;;;;;;;;;;;;
1771.0;1695.4;;;;-0.44571692;0.9146882;0.34089664;;;;;;;;;;;;;;;
1771.0;1695.4;;;;-0.4434548;0.91093457;0.3451729;;;;;;;;;;;;;;;
1771.0;1695.4;;;;-0.4391938;0.9071733;0.35076144;;;;;;;;;;;;;;;
1771.0;1695.4;;;;-0.43616492;0.902794;0.35096744;;;;;;;;;;;;;;;
1771.0;1695.4;;;;-0.43454748;0.89844906;0.3517609;;;;;;;;;;;;;;;
1771.0;1698.3;262143;262143;12819;;;;;;;;;;;;;;;;;;
1771.0;1705.5;;;;-0.43332678;0.89424145;0.35119632;;;;;;;;;;;;;;;
1771.0;1705.5;;;;-0.43002707;0.88902295;0.3529854;;;;;;;;;;;;;;;
1771.0;1705.5;;;;-0.42688376;0.88108456;0.35475162;;;;;;;;;;;;;;;
1771.0;1705.5;;;;-0.42470556;0.87274945;0.3553696;;;;;;;;;;;;;;;
1771.0;1705.5;;;;-0.4253388;0.8639375;0.3533211;;;;;;;;;;;;;;;
1771.0;1715.6;;;;-0.42797095;0.8555337;0.35242465;;;;;;;;;;;;;;;
1771.0;1715.6;;;;-0.43186194;0.84733975;0.35112384;;;;;;;;;;;;;;;
1771.0;1715.6;;;;-0.43630606;0.8397943;0.35021213;;;;;;;;;;;;;;;
1771.0;1715.6;;;;-0.44089133;0.83283246;0.34822848;;;;;;;;;;;;;;;
1771.0;1715.6;;;;-0.44617087;0.82720196;0.3445702;;;;;;;;;;;;;;;
1781.0;1718.6;;;;;;;;;;;;;;;;;57.32902;-31.777397;-56.134983;;1619.8
1781.0;1718.6;;;;;;;;;;;;;;0.86410105;-0.23505355;-0.28797266;;;;;1619.8
1781.0;1718.6;;;;;;;;;;;;;;;;;59.549244;-32.994324;-49.096653;;1619.8
1781.0;1718.6;;;;;;;;;;;;;;0.7497177;-0.23468734;-0.2379223;;;;;1619.8
1781.0;1718.6;;;;;;;;;;;;;;;;;65.50798;-38.22825;-40.219578;;1629.4
1781.0;1718.6;;;;;;;;;;;;;;0.6243477;-0.26288643;-0.20032349;;;;;1629.4
1781.0;1718.6;;;;;;;;;;;;;;;;;75.91861;-48.15821;-30.354471;;1629.4
1781.0;1718.6;;;;;;;;;;;;;;0.5088046;-0.30835903;-0.22492142;;;;;1629.4
1781.0;1718.6;;;;;;;;;;;;;;;;;87.72164;-52.201912;-21.458328;;1639.1
1781.0;1718.6;;;;;;;;;;;;;;0.38807335;-0.33631396;-0.2618488;;;;;1639.1
1781.0;1718.6;;;;;;;;;;;;;;;;;99.57045;-52.09128;-16.239662;;1639.1
1781.0;1718.6;;;;;;;;;;;;;;0.2900479;-0.38477737;-0.27344584;;;;;1639.1
1781.0;1718.4;262143;262143;12816;;;;;;;;;;;;;;;;;;
1783.0;1719.4;;;;;;;;;;;;;;;;;113.128296;-53.7698;-13.103885;;1648.8
1783.0;1719.4;;;;;;;;;;;;;;0.24060793;-0.33295694;-0.25141147;;;;;1648.8
1783.0;1719.4;;;;;;;;;;;;;;;;;123.28333;-56.878872;-2.639851;;1648.8
1783.0;1719.4;;;;;;;;;;;;;;0.19403668;-0.28180793;-0.28138065;;;;;1648.8
1783.0;1719.4;;;;;;;;;;;;;;;;;124.31333;-45.46876;7.351146;;1658.4
1783.0;1719.4;;;;;;;;;;;;;;0.20136112;-0.22321238;-0.22797327;;;;;1658.4
1783.0;1719.4;;;;;;;;;;;;;;;;;111.81982;-21.114994;14.12244;;1658.4
1783.0;1719.4;;;;;;;;;;;;;;0.27179784;-0.1640675;-0.02990814;;;;;1658.4
1783.0;1719.4;;;;;;;;;;;;;;;;;87.66061;-5.1118503;14.717551;;1668.1
1783.0;1719.4;;;;;;;;;;;;;;0.42469558;0.05121006;0.23615223;;;;;1668.1
1783.0;1719.4;;;;;;;;;;;;;;;;;63.03598;-3.5134435;10.544146;;1668.1
1783.0;1719.4;;;;;;;;;;;;;;0.56935334;0.33912167;0.4206061;;;;;1668.1
1783.0;1724.3;;;;;;;;;;;;;-3026;;;;;;;;
1783.0;1724.3;;;;;;;;;;;;;-2115;;;;;;;;
1783.0;1724.3;;;;;;;;;;;;;-1905;;;;;;;;
1783.0;1724.3;;;;;;;;;;;;;-1525;;;;;;;;
1783.0;1724.3;;;;;;;;;;;;;-328;;;;;;;;
1783.0;1725.4;;;;-0.4506684;0.8225328;0.33980563;;;;;;;;;;;;;;;
1783.0;1725.4;;;;-0.45572668;0.81775296;0.33557132;;;;;;;;;;;;;;;
1783.0;1725.4;;;;-0.46006018;0.8140222;0.32854465;;;;;;;;;;;;;;;
1783.0;1725.4;;;;-0.4650002;0.8115541;0.3215218;;;;;;;;;;;;;;;
1783.0;1725.4;;;;-0.4675942;0.808529;0.31655124;;;;;;;;;;;;;;;
1832.0;1735.4;;;;-0.46726614;0.80637753;0.31253055;;;;;;;;;;;;;;;
1832.0;1735.4;;;;-0.46475226;0.80466855;0.30742267;;;;;;;;;;;;;;;
1832.0;1735.4;;;;-0.46082693;0.8053857;0.30223086;;;;;;;;;;;;;;;
1832.0;1735.4;;;;-0.45795828;0.8083421;0.29802707;;;;;;;;;;;;;;;
1832.0;1735.4;;;;-0.4563561;0.8077966;0.2949753;;;;;;;;;;;;;;;
1832.0;1735.5;;;;;;;;;;1.0757774;17.071291;-1.5449996;;;;;;;;;
1832.0;1735.5;;;;;;;0.354503;-0.6636555;0.23517564;;;;;;;;;;;;
1832.0;1735.5;;;;;;;;;;6.6415906;33.295696;10.13596;;;;;;;;;
1832.0;1735.5;;;;;;;0.39783928;-0.7578356;0.2630085;;;;;;;;;;;;
1832.0;1738.4;262143;262143;12831;;;;;;;;;;;;;;;;;;
1832.0;1745.2;;;;;;;;;;1.7281106;9.750664;7.312998;;;;;;;;;
1832.0;1745.2;;;;;;;0.40205085;-0.77083653;0.2656331;;;;;;;;;;;;
1832.0;1745.2;;;;;;;;;;6.984924;20.306253;11.104922;;;;;;;;;
1832.0;1745.2;;;;;;;0.40522477;-0.78670615;0.2689291;;;;;;;;;;;;
1832.0;1745.5;;;;-0.45611578;0.80611813;0.29225925;;;;;;;;;;;;;;;
1832.0;1745.5;;;;-0.45467;0.8042184;0.2894478;;;;;;;;;;;;;;;
1832.0;1745.5;;;;-0.4532128;0.8029405;0.28771976;;;;;;;;;;;;;;;
1832.0;1745.5;;;;-0.45301825;0.8022424;0.2865143;;;;;;;;;;;;;;;
1832.0;1745.5;;;;-0.45252234;0.79957974;0.28525928;;;;;;;;;;;;;;;
1832.0;1754.5;;;;;;;;;;8.651998;23.117771;13.71044;;;;;;;;;
1832.0;1754.5;;;;;;;0.42200994;-0.80361336;0.2745445;;;;;;;;;;;;
1832.0;1754.5;;;;;;;;;;5.2568135;-10.521256;-4.547258;;;;;;;;;
1832.0;1754.5;;;;;;;0.44160283;-0.82271796;0.28138065;;;;;;;;;;;;
1835.0;1755.4;;;;-0.45033652;0.7960702;0.2847443;;;;;;;;;;;;;;;
1835.0;1755.4;;;;-0.44769675;0.7946969;0.28361514;;;;;;;;;;;;;;;
1835.0;1755.4;;;;-0.4447518;0.7941476;0.28427508;;;;;;;;;;;;;;;
1835.0;1755.4;;;;-0.4428559;0.7932664;0.28192523;;;;;;;;;;;;;;;
1835.0;1755.4;;;;-0.43902975;0.7910882;0.28084186;;;;;;;;;;;;;;;
1835.0;1758.4;262143;262143;12836;;;;;;;;;;;;;;;;;;
1835.0;1764.1;;;;;;;;;;7.0535903;-9.857478;-2.2965178;;;;;;;;;
1835.0;1764.1;;;;;;;0.46620074;-0.8465834;0.28809473;;;;;;;;;;;;
1835.0;1764.1;;;;;;;;;;8.846553;-9.086886;0.29755548;;;;;;;;;
1835.0;1764.1;;;;;;;0.49165317;-0.8734397;0.29169592;;;;;;;;;;;;
1835.0;1764.4;;;;;;;;;;;;;1421;;;;;;;;
1835.0;1764.4;;;;;;;;;;;;;2895;;;;;;;;
1835.0;1764.4;;;;;;;;;;;;;3639;;;;;;;;
1835.0;1764.4;;;;;;;;;;;;;3907;;;;;;;;
1835.0;1764.4;;;;;;;;;;;;;3949;;;;;;;;
1835.0;1765.5;;;;-0.43453985;0.7893678;0.28023532;;;;;;;;;;;;;;;
1835.0;1765.5;;;;-0.42839056;0.7867967;0.27970126;;;;;;;;;;;;;;;
1835.0;1765.5;;;;-0.4215775;0.78377545;0.2790108;;;;;;;;;;;;;;;
1835.0;1765.5;;;;-0.41213995;0.7796899;0.28022388;;;;;;;;;;;;;;;
1835.0;1765.5;;;;-0.40233237;0.77629864;0.28013232;;;;;;;;;;;;;;;
1835.0;1773.8;;;;;;;;;;9.861293;-0.9804071;8.869442;;;;;;;;;
1835.0;1773.8;;;;;;;0.5098422;-0.9022492;0.2929777;;;;;;;;;;;;
1835.0;1773.8;;;;;;;;;;9.716331;6.5004425;17.571032;;;;;;;;;
1835.0;1773.8;;;;;;;0.5213782;-0.9335002;0.2921842;;;;;;;;;;;;
1837.0;1775.6;;;;-0.39155203;0.77287686;0.28184894;;;;;;;;;;;;;;;
1837.0;1775.6;;;;-0.38373572;0.770424;0.28192142;;;;;;;;;;;;;;;
1837.0;1775.6;;;;-0.37495425;0.76718915;0.28289035;;;;;;;;;;;;;;;
1837.0;1775.6;;;;-0.36663058;0.7646333;0.28253558;;;;;;;;;;;;;;;
1837.0;1775.6;;;;-0.35966495;0.76100934;0.28192142;;;;;;;;;;;;;;;
1837.0;1778.7;;;;;;;;;;;;;;;;;25.69277;-0.46540728;8.960998;;1677.7
1837.0;1778.7;;;;;;;;;;;;;;0.6798303;0.56501967;0.5404828;;;;;1677.7
1837.0;1778.7;;;;;;;;;;;;;;;;;-27.958769;6.6263313;15.15244;;1677.7
1837.0;1778.7;;;;;;;;;;;;;;0.7793817;0.6244087;0.56514174;;;;;1677.7
1837.0;1778.7;;;;;;;;;;;;;;;;;-75.857574;16.949217;23.510696;;1687.3
1837.0;1778.7;;;;;;;;;;;;;;0.82668537;0.6795862;0.45234534;;;;;1687.3
1837.0;1778.7;;;;;;;;;;;;;;;;;-89.949486;21.740623;28.241066;;1687.3
1837.0;1778.7;;;;;;;;;;;;;;0.8612934;0.7738273;0.27838984;;;;;1687.3
1837.0;1778.7;;;;;;;;;;;;;;;;;-78.5966;18.784143;33.341473;;1696.9
1837.0;1778.7;;;;;;;;;;;;;;0.9307535;0.95162815;0.1048616;;;;;1696.9
1837.0;1778.7;;;;;;;;;;;;;;;;;-76.41072;22.789696;52.785576;;1696.9
1837.0;1778.7;;;;;;;;;;;;;;0.9718925;0.93563646;-0.03381451;;;;;1696.9
1837.0;1778.6;262143;262143;12835;;;;;;;;;;;;;;;;;;
1838.0;1779.4;;;;;;;;;;;;;;;;;-76.65487;29.457993;77.01346;;1706.6
1838.0;1779.4;;;;;;;;;;;;;;0.903531;0.5081332;-0.10419019;;;;;1706.6
1838.0;1779.4;;;;;;;;;;;;;;;;;-71.72613;33.665733;83.65887;;1706.6
1838.0;1779.4;;;;;;;;;;;;;;0.8246101;0.29889828;-0.14209418;;;;;1706.6
1838.0;1779.4;;;;;;;;;;;;;;;;;-57.489243;28.95825;91.99423;;1716.3
1838.0;1779.4;;;;;;;;;;;;;;0.73934144;0.15210426;-0.173101;;;;;1716.3
1838.0;1779.4;;;;;;;;;;;;;;;;;-34.905544;10.505997;106.17771;;1716.3
1838.0;1779.4;;;;;;;;;;;;;;0.659505;-0.01574755;-0.2682577;;;;;1716.3
1838.0;1779.4;;;;;;;;;;;;;;;;;-11.818293;-6.469924;117.65267;;1725.9
1838.0;1779.4;;;;;;;;;;;;;;0.5922422;-0.15277566;-0.32605976;;;;;1725.9
1838.0;1779.4;;;;;;;;;;;;;;;;;3.78811;-15.037995;124.43541;;1725.9
1838.0;1779.4;;;;;;;;;;;;;;0.5208289;-0.26416823;-0.31464583;;;;;1725.9
1838.0;1783.2;;;;;;;;;;9.73159;5.512406;19.997253;;;;;;;;;
1838.0;1783.2;;;;;;;0.5340739;-0.97256386;0.29126865;;;;;;;;;;;;
1838.0;1783.2;;;;;;;;;;9.601887;5.512406;22.846918;;;;;;;;;
1838.0;1783.2;;;;;;;0.55275124;-1.0187079;0.29841;;;;;;;;;;;;
1838.0;1785.4;;;;-0.35226443;0.7563249;0.28271487;;;;;;;;;;;;;;;
1838.0;1785.4;;;;-0.3445702;0.7508737;0.2824135;;;;;;;;;;;;;;;
1838.0;1785.4;;;;-0.33623126;0.7460137;0.28307727;;;;;;;;;;;;;;;
1838.0;1785.4;;;;-0.33097842;0.74099356;0.28323367;;;;;;;;;;;;;;;
1838.0;1785.4;;;;-0.3261452;0.7362481;0.28405383;;;;;;;;;;;;;;;
1838.0;1792.7;;;;;;;;;;9.464553;5.500962;25.776695;;;;;;;;;
1838.0;1792.7;;;;;;;0.57850885;-1.0664998;0.3079928;;;;;;;;;;;;
1838.0;1792.7;;;;;;;;;;9.475998;5.7489243;28.935362;;;;;;;;;
1838.0;1792.7;;;;;;;0.61867124;-1.119419;0.3195288;;;;;;;;;;;;
1891.0;1795.4;;;;-0.32107165;0.731968;0.2830582;;;;;;;;;;;;;;;
1891.0;1795.4;;;;-0.31784442;0.7276345;0.28285602;;;;;;;;;;;;;;;
1891.0;1795.4;;;;-0.31634524;0.7223664;0.2828751;;;;;;;;;;;;;;;
1891.0;1795.4;;;;-0.31607822;0.7180787;0.28447726;;;;;;;;;;;;;;;
1891.0;1795.4;;;;-0.31673434;0.7138482;0.28368;;;;;;;;;;;;;;;
1891.0;1798.6;262143;262143;12837;;;;;;;;;;;;;;;;;;
1891.0;1802.3;;;;;;;;;;9.651479;6.3364053;31.235695;;;;;;;;;
1891.0;1802.3;;;;;;;0.6593219;-1.1672109;0.33722952;;;;;;;;;;;;
1891.0;1802.3;;;;;;;;;;9.647664;6.8666644;32.79977;;;;;;;;;
1891.0;1802.3;;;;;;;0.6999725;-1.2209846;0.3482162;;;;;;;;;;;;
1891.0;1804.5;;;;;;;;;;;;;3910;;;;;;;;
1891.0;1804.5;;;;;;;;;;;;;4110;;;;;;;;
1891.0;1804.5;;;;;;;;;;;;;4763;;;;;;;;
1891.0;1804.5;;;;;;;;;;;;;5738;;;;;;;;
1891.0;1804.5;;;;;;;;;;;;;6768;;;;;;;;
1891.0;1805.5;;;;-0.31874087;0.71166235;0.2832375;;;;;;;;;;;;;;;
1891.0;1805.5;;;;-0.32127383;0.7079659;0.28327945;;;;;;;;;;;;;;;
1891.0;1805.5;;;;-0.3250313;0.70367056;0.28259662;;;;;;;;;;;;;;;
1891.0;1805.5;;;;-0.32908252;0.6997147;0.28097156;;;;;;;;;;;;;;;
1891.0;1805.5;;;;-0.3313332;0.6952477;0.28087237;;;;;;;;;;;;;;;
1891.0;1811.4;;;;;;;;;;9.754478;7.641072;34.398174;;;;;;;;;
1891.0;1811.4;;;;;;;0.7281106;-1.2700583;0.3564562;;;;;;;;;;;;
1891.0;1811.4;;;;;;;;;;9.823145;8.671071;36.03473;;;;;;;;;
1891.0;1811.4;;;;;;;0.7363506;-1.2945951;0.3606067;;;;;;;;;;;;
1894.0;1815.2;;;;-0.33433154;0.691166;0.2816315;;;;;;;;;;;;;;;
1894.0;1815.2;;;;-0.3388405;0.6907311;0.28122333;;;;;;;;;;;;;;;
1894.0;1815.2;;;;-0.3413048;0.6909829;0.2810593;;;;;;;;;;;;;;;
1894.0;1815.2;;;;-0.3454285;0.69413;0.27932742;;;;;;;;;;;;;;;
1894.0;1815.2;;;;-0.3531609;0.696148;0.2754822;;;;;;;;;;;;;;;
1894.0;1818.5;262143;262143;12825;;;;;;;;;;;;;;;;;;
1894.0;1821.1;;;;;;;;;;9.678183;9.235664;36.99225;;;;;;;;;
1894.0;1821.1;;;;;;;0.72963655;-1.3143711;0.3581042;;;;;;;;;;;;
1894.0;1821.1;;;;;;;;;;8.938108;9.273812;37.38899;;;;;;;;;
1894.0;1821.1;;;;;;;0.708945;-1.3263955;0.34614092;;;;;;;;;;;;
1894.0;1825.3;;;;-0.36241916;0.6956902;0.27235797;;;;;;;;;;;;;;;
1894.0;1825.3;;;;-0.3702164;0.6946984;0.27055362;;;;;;;;;;;;;;;
1894.0;1825.3;;;;-0.37813956;0.69211584;0.26861957;;;;;;;;;;;;;;;
1894.0;1825.3;;;;-0.38422018;0.6897202;0.2660065;;;;;;;;;;;;;;;
1894.0;1825.3;;;;-0.38898093;0.6888314;0.26379398;;;;;;;;;;;;;;;
1894.0;1830.7;;;;;;;;;;8.198035;8.40022;37.63695;;;;;;;;;
1894.0;1830.7;;;;;;;0.66292304;-1.3269448;0.3370464;;;;;;;;;;;;
1894.0;1830.7;;;;;;;;;;7.648701;6.103702;37.76284;;;;;;;;;
1894.0;1830.7;;;;;;;0.6259957;-1.3270059;0.32410657;;;;;;;;;;;;
1896.0;1835.4;;;;-0.39514548;0.6869088;0.26153567;;;;;;;;;;;;;;;
1896.0;1835.4;;;;-0.3990479;0.68474585;0.26215747;;;;;;;;;;;;;;;
1896.0;1835.4;;;;-0.40115744;0.6828118;0.26217654;;;;;;;;;;;;;;;
1896.0;1835.4;;;;-0.40487295;0.6786652;0.26202014;;;;;;;;;;;;;;;
1896.0;1835.4;;;;-0.40839392;0.67615134;0.26144794;;;;;;;;;;;;;;;
1896.0;1838.7;;;;;;;;;;;;;;;;;10.433516;-17.273476;124.988556;;1735.6
1896.0;1838.7;;;;;;;;;;;;;;0.4740745;-0.3516953;-0.27784052;;;;;1735.6
1896.0;1838.7;;;;;;;;;;;;;;;;;6.9544053;-7.759331;124.988556;;1735.6
1896.0;1838.7;;;;;;;;;;;;;;0.48103276;-0.41492966;-0.2207709;;;;;1735.6
1896.0;1838.7;;;;;;;;;;;;;;;;;-2.3728142;15.739922;124.988556;;1745.2
1896.0;1838.7;;;;;;;;;;;;;;0.5299844;-0.45039216;-0.08026368;;;;;1745.2
1896.0;1838.7;;;;;;;;;;;;;;;;;-13.19544;50.27543;124.988556;;1745.2
1896.0;1838.7;;;;;;;;;;;;;;0.6906339;-0.4029664;0.14142278;;;;;1745.2
1896.0;1838.7;;;;;;;;;;;;;;;;;-11.017182;84.326454;124.988556;;1754.8
1896.0;1838.7;;;;;;;;;;;;;;0.8267464;-0.31049532;0.46790978;;;;;1754.8
1896.0;1838.7;;;;;;;;;;;;;;;;;-6.557665;87.26005;124.988556;;1754.8
1896.0;1838.7;;;;;;;;;;;;;;0.91091645;-0.18659016;0.6761681;;;;;1754.8
1896.0;1838.6;262143;262143;12813;;;;;;;;;;;;;;;;;;
1897.0;1839.4;;;;;;;;;;;;;;;;;-15.690329;52.45369;124.988556;;1764.5
1897.0;1839.4;;;;;;;;;;;;;;1.0574054;-0.09521775;0.47212133;;;;;1764.5
1897.0;1839.4;;;;;;;;;;;;;;;;;-16.83096;16.678366;124.988556;;1764.5
1897.0;1839.4;;;;;;;;;;;;;;1.159154;-6.103702E-5;0.034974214;;;;;1764.5
1897.0;1839.4;;;;;;;;;;;;;;;;;-16.434217;15.411847;124.988556;;1774.2
1897.0;1839.4;;;;;;;;;;;;;;1.2038331;0.012390515;-0.22876675;;;;;1774.2
1897.0;1839.4;;;;;;;;;;;;;;;;;-15.892513;26.661734;124.988556;;1774.2
1897.0;1839.4;;;;;;;;;;;;;;1.2130498;0.04626606;-0.3345439;;;;;1774.2
1897.0;1839.4;;;;;;;;;;;;;;;;;-15.545365;30.877102;124.95041;;1783.7
1897.0;1839.4;;;;;;;;;;;;;;1.2483902;0.13647878;-0.41694388;;;;;1783.7
1897.0;1839.4;;;;;;;;;;;;;;;;;-13.237404;26.173437;122.69204;;1783.7
1897.0;1839.4;;;;;;;;;;;;;;1.2814722;0.18958098;-0.51832634;;;;;1783.7
1897.0;1840.1;;;;;;;;;;7.4655905;3.318888;38.396103;;;;;;;;;
1897.0;1840.1;;;;;;;0.5860164;-1.3083285;0.31989503;;;;;;;;;;;;
1897.0;1840.1;;;;;;;;;;7.5189977;-0.71337014;39.319283;;;;;;;;;
1897.0;1840.1;;;;;;;0.56031984;-1.2875149;0.3183691;;;;;;;;;;;;
1897.0;1844.4;;;;;;;;;;;;;7563;;;;;;;;
1897.0;1844.4;;;;;;;;;;;;;7721;;;;;;;;
1897.0;1844.4;;;;;;;;;;;;;7160;;;;;;;;
1897.0;1844.4;;;;;;;;;;;;;6377;;;;;;;;
1897.0;1844.4;;;;;;;;;;;;;5899;;;;;;;;
1897.0;1845.2;;;;-0.40990835;0.67182165;0.2601433;;;;;;;;;;;;;;;
1897.0;1845.2;;;;-0.40846258;0.66836554;0.25898364;;;;;;;;;;;;;;;
1897.0;1845.2;;;;-0.40539557;0.6654778;0.257412;;;;;;;;;;;;;;;
1897.0;1845.2;;;;-0.40163428;0.6625977;0.25540164;;;;;;;;;;;;;;;
1897.0;1845.2;;;;-0.39834982;0.66050345;0.2523041;;;;;;;;;;;;;;;
1951.0;1849.7;;;;;;;;;;7.637257;-4.799036;39.23154;;;;;;;;;
1951.0;1849.7;;;;;;;0.5501267;-1.2652974;0.31733146;;;;;;;;;;;;
1951.0;1849.7;;;;;;;;;;7.4007387;-9.006775;38.89203;;;;;;;;;
1951.0;1849.7;;;;;;;0.55256814;-1.2436292;0.32093266;;;;;;;;;;;;
1951.0;1855.3;;;;-0.39519125;0.6581269;0.24827197;;;;;;;;;;;;;;;
1951.0;1855.3;;;;-0.3927117;0.65707785;0.24501422;;;;;;;;;;;;;;;
1951.0;1855.3;;;;-0.3910523;0.65686804;0.24264148;;;;;;;;;;;;;;;
1951.0;1855.3;;;;-0.3892365;0.6550599;0.24012378;;;;;;;;;;;;;;;
1951.0;1855.3;;;;-0.3858338;0.6539689;0.23886111;;;;;;;;;;;;;;;
1951.0;1858.6;262143;262143;12833;;;;;;;;;;;;;;;;;;
1951.0;1859.2;;;;;;;;;;7.4045534;-14.576404;38.30836;;;;;;;;;
1951.0;1859.2;;;;;;;0.558916;-1.2334971;0.32160404;;;;;;;;;;;;
1951.0;1859.2;;;;;;;;;;7.4083686;-19.94766;37.869656;;;;;;;;;
1951.0;1859.2;;;;;;;0.5774102;-1.2061526;0.33002716;;;;;;;;;;;;
1951.0;1865.4;;;;-0.38482672;0.6553574;0.2370415;;;;;;;;;;;;;;;
1951.0;1865.4;;;;-0.3854218;0.65546423;0.23492816;;;;;;;;;;;;;;;
1951.0;1865.4;;;;-0.3870545;0.65603644;0.23423389;;;;;;;;;;;;;;;
1951.0;1865.4;;;;-0.38947302;0.6572724;0.23581699;;;;;;;;;;;;;;;
1951.0;1865.4;;;;-0.39395148;0.6595383;0.2368317;;;;;;;;;;;;;;;
1951.0;1868.8;;;;;;;;;;6.7712946;-25.852993;37.507248;;;;;;;;;
1951.0;1868.8;;;;;;;0.59419537;-1.1849116;0.33777887;;;;;;;;;;;;
1951.0;1868.8;;;;;;;;;;5.9129615;-32.361065;37.045654;;;;;;;;;
1951.0;1868.8;;;;;;;0.5980407;-1.1597034;0.34705648;;;;;;;;;;;;
1954.0;1875.3;;;;-0.40088278;0.6622849;0.23796085;;;;;;;;;;;;;;;
1954.0;1875.3;;;;-0.4078446;0.66501623;0.23977283;;;;;;;;;;;;;;;
1954.0;1875.3;;;;-0.41609198;0.666195;0.2429047;;;;;;;;;;;;;;;
1954.0;1875.3;;;;-0.42657095;0.6694909;0.24534991;;;;;;;;;;;;;;;
1954.0;1875.3;;;;-0.4370919;0.6730271;0.2471886;;;;;;;;;;;;;;;
1954.0;1878.3;;;;;;;;;;4.997406;-38.82336;36.69088;;;;;;;;;
1954.0;1878.3;;;;;;;0.5957213;-1.1283303;0.3576159;;;;;;;;;;;;
1954.0;1878.3;;;;;;;;;;4.0093694;-45.18265;36.191135;;;;;;;;;
1954.0;1878.3;;;;;;;0.59974974;-1.0987273;0.3630482;;;;;;;;;;;;
1954.0;1878.7;262143;262143;12825;;;;;;;;;;;;;;;;;;
1954.0;1884.6;;;;;;;;;;;;;5939;;;;;;;;
1954.0;1884.6;;;;;;;;;;;;;6296;;;;;;;;
1954.0;1884.6;;;;;;;;;;;;;6601;;;;;;;;
1954.0;1884.6;;;;;;;;;;;;;6918;;;;;;;;
1954.0;1884.6;;;;;;;;;;;;;7596;;;;;;;;
1954.0;1885.4;;;;-0.4481774;0.67604834;0.24951175;;;;;;;;;;;;;;;
1954.0;1885.4;;;;-0.46015555;0.6794129;0.25413135;;;;;;;;;;;;;;;
1954.0;1885.4;;;;-0.4709168;0.68355566;0.25740436;;;;;;;;;;;;;;;
1954.0;1885.4;;;;-0.48017126;0.6873017;0.25977328;;;;;;;;;;;;;;;
1954.0;1885.4;;;;-0.49067312;0.69092566;0.26222613;;;;;;;;;;;;;;;
1954.0;1887.9;;;;;;;;;;3.0022585;-50.687428;35.744804;;;;;;;;;
1954.0;1887.9;;;;;;;0.61079746;-1.0690634;0.36689353;;;;;;;;;;;;
1954.0;1887.9;;;;;;;;;;1.8845179;-55.574203;35.943172;;;;;;;;;
1954.0;1887.9;;;;;;;0.6226997;-1.0393384;0.36335337;;;;;;;;;;;;
1955.0;1895.5;;;;-0.49758917;0.69557196;0.26568988;;;;;;;;;;;;;;;
1955.0;1895.5;;;;-0.5043679;0.70088965;0.26775363;;;;;;;;;;;;;;;
1955.0;1895.5;;;;-0.50931174;0.7049828;0.27170184;;;;;;;;;;;;;;;
1955.0;1895.5;;;;-0.5108033;0.7081643;0.2753258;;;;;;;;;;;;;;;
1955.0;1895.5;;;;-0.5127221;0.7117234;0.278183;;;;;;;;;;;;;;;
1955.0;1897.5;;;;;;;;;;0.4997406;-61.716057;36.46962;;;;;;;;;
1955.0;1897.5;;;;;;;0.64174324;-1.01059;0.3571276;;;;;;;;;;;;
1955.0;1897.5;;;;;;;;;;-1.1024811;-67.85409;37.442398;;;;;;;;;
1955.0;1897.5;;;;;;;0.6516923;-0.9754936;0.34876552;;;;;;;;;;;;
1955.0;1898.9;;;;;;;;;;;;;;;;;-5.4208503;17.262032;117.88919;;1793.3
1955.0;1898.9;;;;;;;;;;;;;;1.2915434;0.24854274;-0.59218115;;;;;1793.3
1955.0;1898.9;;;;;;;;;;;;;;;;;8.404035;6.8857384;113.95993;;1793.3
1955.0;1898.9;;;;;;;;;;;;;;1.2430189;0.28949857;-0.5966979;;;;;1793.3
1955.0;1898.9;;;;;;;;;;;;;;;;;29.576252;-7.2443314;108.233894;;1802.9
1955.0;1898.9;;;;;;;;;;;;;;1.1987671;0.3039033;-0.5928526;;;;;1802.9
1955.0;1898.9;;;;;;;;;;;;;;;;;60.21683;-22.583696;98.414566;;1802.9
1955.0;1898.9;;;;;;;;;;;;;;1.172277;0.32636493;-0.5990173;;;;;1802.9
1955.0;1898.9;;;;;;;;;;;;;;;;;96.33931;-34.62325;85.76464;;1812.5
1955.0;1898.9;;;;;;;;;;;;;;1.132786;0.39228493;-0.5484176;;;;;1812.5
1955.0;1898.9;;;;;;;;;;;;;;;;;122.10837;-45.289467;73.213905;;1812.5
1955.0;1898.9;;;;;;;;;;;;;;1.0870082;0.43983275;-0.48628193;;;;;1812.5
1955.0;1898.8;262143;262143;12839;;;;;;;;;;;;;;;;;;
1956.0;1899.9;;;;;;;;;;;;;;;;;124.988556;-58.458206;63.676872;;1822.2
1956.0;1899.9;;;;;;;;;;;;;;1.1127049;0.58717614;-0.5123447;;;;;1822.2
1956.0;1899.9;;;;;;;;;;;;;;;;;124.988556;-62.688835;67.66717;;1822.2
1956.0;1899.9;;;;;;;;;;;;;;1.1297342;0.7120579;-0.60011595;;;;;1822.2
1956.0;1899.9;;;;;;;;;;;;;;;;;124.988556;-48.40999;77.97479;;1831.9
1956.0;1899.9;;;;;;;;;;;;;;1.1340067;0.76345104;-0.58211005;;;;;1831.9
1956.0;1899.9;;;;;;;;;;;;;;;;;124.988556;-25.30366;86.218605;;1831.9
1956.0;1899.9;;;;;;;;;;;;;;1.1438948;0.72890407;-0.42597735;;;;;1831.9
1956.0;1899.9;;;;;;;;;;;;;;;;;124.988556;-12.80633;83.83434;;1841.6
1956.0;1899.9;;;;;;;;;;;;;;1.1729484;0.6944792;-0.32581562;;;;;1841.6
1956.0;1899.9;;;;;;;;;;;;;;;;;124.988556;-4.3107395;68.8612;;1841.6
1956.0;1899.9;;;;;;;;;;;;;;1.150731;0.7729728;-0.25763726;;;;;1841.6
1956.0;1905.3;;;;-0.5127564;0.7143517;0.2816086;;;;;;;;;;;;;;;
1956.0;1905.3;;;;-0.51276785;0.71638876;0.28564838;;;;;;;;;;;;;;;
1956.0;1905.3;;;;-0.5116616;0.72022253;0.2901688;;;;;;;;;;;;;;;
1956.0;1905.3;;;;-0.51212317;0.72346884;0.29249194;;;;;;;;;;;;;;;
1956.0;1905.3;;;;-0.5125733;0.7260743;0.2948723;;;;;;;;;;;;;;;
1956.0;1906.8;;;;;;;;;;-2.6779993;-73.79757;37.923065;;;;;;;;;
1956.0;1906.8;;;;;;;0.6421705;-0.9378338;0.33893856;;;;;;;;;;;;
1956.0;1906.8;;;;;;;;;;-3.765221;-78.9056;37.55303;;;;;;;;;
1956.0;1906.8;;;;;;;0.6272164;-0.9081698;0.33136997;;;;;;;;;;;;
2013.0;1915.2;;;;-0.5134774;0.7279816;0.29812625;;;;;;;;;;;;;;;
2013.0;1915.2;;;;-0.5149537;0.73048025;0.30043033;;;;;;;;;;;;;;;
2013.0;1915.2;;;;-0.5154229;0.7324639;0.3020554;;;;;;;;;;;;;;;
2013.0;1915.2;;;;-0.515564;0.7341462;0.30435565;;;;;;;;;;;;;;;
2013.0;1915.2;;;;-0.5151444;0.73655325;0.30429462;;;;;;;;;;;;;;;
2013.0;1916.3;;;;;;;;;;-4.970702;-83.42235;37.41951;;;;;;;;;
2013.0;1916.3;;;;;;;0.6120792;-0.8810083;0.3261208;;;;;;;;;;;;
2013.0;1916.3;;;;;;;;;;-6.511887;-87.93146;37.766655;;;;;;;;;
2013.0;1916.3;;;;;;;0.5920591;-0.8564104;0.3147679;;;;;;;;;;;;
2013.0;1918.7;262143;262143;12834;;;;;;;;;;;;;;;;;;
2013.0;1924.6;;;;;;;;;;;;;8499;;;;;;;;
2013.0;1924.6;;;;;;;;;;;;;9113;;;;;;;;
2013.0;1924.6;;;;;;;;;;;;;9167;;;;;;;;
2013.0;1924.6;;;;;;;;;;;;;8706;;;;;;;;
2013.0;1924.6;;;;;;;;;;;;;7958;;;;;;;;
2013.0;1925.3;;;;-0.5147324;0.7364655;0.30434802;;;;;;;;;;;;;;;
2013.0;1925.3;;;;-0.5135117;0.7371369;0.30450824;;;;;;;;;;;;;;;
2013.0;1925.3;;;;-0.5102425;0.7374726;0.3059807;;;;;;;;;;;;;;;
2013.0;1925.3;;;;-0.5072327;0.7371064;0.304184;;;;;;;;;;;;;;;
2013.0;1925.3;;;;-0.5028878;0.73688513;0.30300906;;;;;;;;;;;;;;;
2013.0;1925.9;;;;;;;;;;-8.228554;-91.69286;38.37321;;;;;;;;;
2013.0;1925.9;;;;;;;0.56843776;-0.8357799;0.30378124;;;;;;;;;;;;
2013.0;1925.9;;;;;;;;;;-9.434034;-94.59975;38.89203;;;;;;;;;
2013.0;1925.9;;;;;;;0.5562914;-0.8184454;0.29651785;;;;;;;;;;;;
2015.0;1935.3;;;;-0.4985848;0.73489386;0.30180743;;;;;;;;;;;;;;;
2015.0;1935.3;;;;-0.4944802;0.73335654;0.30142215;;;;;;;;;;;;;;;
2015.0;1935.3;;;;-0.48932272;0.73120505;0.29903796;;;;;;;;;;;;;;;
2015.0;1935.3;;;;-0.48463064;0.72892386;0.2980576;;;;;;;;;;;;;;;
2015.0;1935.3;;;;-0.48011404;0.72468954;0.29477313;;;;;;;;;;;;;;;
2015.0;1935.4;;;;;;;;;;-9.73159;-96.472824;38.960693;;;;;;;;;
2015.0;1935.4;;;;;;;0.55604726;-0.8060549;0.29041412;;;;;;;;;;;;
2015.0;1935.4;;;;;;;;;;-9.247108;-97.33879;38.533436;;;;;;;;;
2015.0;1935.4;;;;;;;0.57240516;-0.79732656;0.2910245;;;;;;;;;;;;
2015.0;1938.8;262143;262143;12850;;;;;;;;;;;;;;;;;;
2015.0;1945.0;;;;;;;;;;-8.793145;-97.422714;37.728508;;;;;;;;;
2015.0;1945.0;;;;;;;0.5971252;-0.7907346;0.29548022;;;;;;;;;;;;
2015.0;1945.0;;;;;;;;;;-8.053072;-96.56057;36.900692;;;;;;;;;
2015.0;1945.0;;;;;;;0.6372875;-0.78475296;0.2997528;;;;;;;;;;;;
2015.0;1945.4;;;;-0.47485358;0.72087866;0.29300693;;;;;;;;;;;;;;;
2015.0;1945.4;;;;-0.47042853;0.7173806;0.2890511;;;;;;;;;;;;;;;
2015.0;1945.4;;;;-0.4651566;0.7144585;0.28483203;;;;;;;;;;;;;;;
2015.0;1945.4;;;;-0.45935065;0.71117026;0.28034976;;;;;;;;;;;;;;;
2015.0;1945.4;;;;-0.45406348;0.7074624;0.2761269;;;;;;;;;;;;;;;
2015.0;1954.6;;;;;;;;;;-6.851405;-94.2526;36.13773;;;;;;;;;
2015.0;1954.6;;;;;;;0.6825159;-0.7740104;0.31220436;;;;;;;;;;;;
2015.0;1954.6;;;;;;;;;;-5.7985168;-91.0329;35.34425;;;;;;;;;
2015.0;1954.6;;;;;;;0.72524184;-0.76070434;0.32520524;;;;;;;;;;;;
2016.0;1955.5;;;;-0.4485665;0.70576483;0.27190402;;;;;;;;;;;;;;;
2016.0;1955.5;;;;-0.4432984;0.70335776;0.26596072;;;;;;;;;;;;;;;
2016.0;1955.5;;;;-0.43797308;0.70177084;0.26027682;;;;;;;;;;;;;;;
2016.0;1955.5;;;;-0.43227774;0.7008515;0.25527957;;;;;;;;;;;;;;;
2016.0;1955.5;;;;-0.42602545;0.70034415;0.24978259;;;;;;;;;;;;;;;
2016.0;1959.4;;;;;;;;;;;;;;;;;124.988556;-7.98822;47.753838;;1851.2
2016.0;1959.4;;;;;;;;;;;;;;1.0630207;0.80996126;-0.2821131;;;;;1851.2
2016.0;1959.4;;;;;;;;;;;;;;;;;124.988556;-24.220253;24.784843;;1851.2
2016.0;1959.4;;;;;;;;;;;;;;1.0152287;0.944731;-0.38380077;;;;;1851.2
2016.0;1959.4;;;;;;;;;;;;;;;;;123.08115;-48.25358;12.478255;;1860.9
2016.0;1959.4;;;;;;;;;;;;;;0.94302195;1.0032045;-0.52015746;;;;;1860.9
2016.0;1959.4;;;;;;;;;;;;;;;;;95.58398;-70.49013;9.109776;;1860.9
2016.0;1959.4;;;;;;;;;;;;;;0.94174016;1.0513016;-0.7179785;;;;;1860.9
2016.0;1959.4;;;;;;;;;;;;;;;;;40.429394;-66.3091;23.918882;;1870.6
2016.0;1959.4;;;;;;;;;;;;;;0.908475;1.0077212;-0.7242653;;;;;1870.6
2016.0;1959.4;;;;;;;;;;;;;;;;;-22.141178;-45.842617;50.328835;;1870.6
2016.0;1959.4;;;;;;;;;;;;;;0.8825953;0.60805076;-0.5274209;;;;;1870.6
2016.0;1959.1;262143;262143;12862;;;;;;;;;;;;;;;;;;
2017.0;1960.2;;;;;;;;;;;;;;;;;-76.994385;-18.051699;64.22239;;1880.1
2017.0;1960.2;;;;;;;;;;;;;;1.0752891;0.27753532;-0.18982513;;;;;1880.1
2017.0;1960.2;;;;;;;;;;;;;;;;;-107.52434;28.668325;76.6625;;1880.1
2017.0;1960.2;;;;;;;;;;;;;;1.1949828;0.021240883;0.16266365;;;;;1880.1
2017.0;1960.2;;;;;;;;;;;;;;;;;-93.79482;94.88968;88.83175;;1889.7
2017.0;1960.2;;;;;;;;;;;;;;1.2901394;-0.23517564;0.6829432;;;;;1889.7
2017.0;1960.2;;;;;;;;;;;;;;;;;-51.015503;124.01578;88.255714;;1889.7
2017.0;1960.2;;;;;;;;;;;;;;1.3194373;-0.4314707;1.3181554;;;;;1889.7
2017.0;1960.2;;;;;;;;;;;;;;;;;-11.741997;88.20994;82.08716;;1899.3
2017.0;1960.2;;;;;;;;;;;;;;1.2981353;-0.57124543;1.495529;;;;;1899.3
2017.0;1960.2;;;;;;;;;;;;;;;;;31.170843;-20.088808;54.857018;;1899.3
2017.0;1960.2;;;;;;;;;;;;;;1.1811883;-0.33283487;0.32868436;;;;;1899.3
2017.0;1964.0;;;;;;;;;;-4.5777764;-87.34779;34.66521;;;;;;;;;
2017.0;1964.0;;;;;;;0.7622303;-0.74764246;0.33710745;;;;;;;;;;;;
2017.0;1964.0;;;;;;;;;;-3.3303325;-82.869194;33.677177;;;;;;;;;
2017.0;1964.0;;;;;;;0.78475296;-0.7318949;0.3552965;;;;;;;;;;;;
2017.0;1964.7;;;;;;;;;;;;;7183;;;;;;;;
2017.0;1964.7;;;;;;;;;;;;;6462;;;;;;;;
2017.0;1964.7;;;;;;;;;;;;;6073;;;;;;;;
2017.0;1964.7;;;;;;;;;;;;;6194;;;;;;;;
2017.0;1964.7;;;;;;;;;;;;;6409;;;;;;;;
2017.0;1965.3;;;;-0.42158896;0.7030831;0.24496463;;;;;;;;;;;;;;;
2017.0;1965.3;;;;-0.41781622;0.7048226;0.23890689;;;;;;;;;;;;;;;
2017.0;1965.3;;;;-0.41333014;0.7078324;0.23367694;;;;;;;;;;;;;;;
2017.0;1965.3;;;;-0.40892416;0.7107087;0.22988513;;;;;;;;;;;;;;;
2017.0;1965.3;;;;-0.40550238;0.7146607;0.22718051;;;;;;;;;;;;;;;
2072.0;1973.4;;;;;;;;;;-1.7242957;-78.09686;32.616657;;;;;;;;;
2072.0;1973.4;;;;;;;0.794702;-0.7144383;0.3695181;;;;;;;;;;;;
2072.0;1973.4;;;;;;;;;;-0.1411481;-72.698906;31.834621;;;;;;;;;
2072.0;1973.4;;;;;;;0.8042848;-0.6959441;0.3846553;;;;;;;;;;;;
2072.0;1975.2;;;;-0.40116125;0.71944815;0.22410205;;;;;;;;;;;;;;;
2072.0;1975.2;;;;-0.39748007;0.72443014;0.22138599;;;;;;;;;;;;;;;
2072.0;1975.2;;;;-0.3944016;0.7305909;0.21794131;;;;;;;;;;;;;;;
2072.0;1975.2;;;;-0.39231116;0.7384682;0.21507648;;;;;;;;;;;;;;;
2072.0;1975.2;;;;-0.3894959;0.7474137;0.2149544;;;;;;;;;;;;;;;
2072.0;1978.9;262143;262143;12856;;;;;;;;;;;;;;;;;;
2072.0;1983.0;;;;;;;;;;1.4305551;-67.32384;31.189917;;;;;;;;;
2072.0;1983.0;;;;;;;0.8058718;-0.6794641;0.39924315;;;;;;;;;;;;
2072.0;1983.0;;;;;;;;;;3.0022585;-61.849575;30.446028;;;;;;;;;
2072.0;1983.0;;;;;;;0.8023316;-0.66536456;0.40864283;;;;;;;;;;;;
2072.0;1985.3;;;;-0.38700873;0.7570039;0.21528247;;;;;;;;;;;;;;;
2072.0;1985.3;;;;-0.38371283;0.76846325;0.21590045;;;;;;;;;;;;;;;
2072.0;1985.3;;;;-0.3824044;0.7812997;0.21605304;;;;;;;;;;;;;;;
2072.0;1985.3;;;;-0.38117224;0.7957002;0.21731952;;;;;;;;;;;;;;;
2072.0;1985.3;;;;-0.38089377;0.81105053;0.21935275;;;;;;;;;;;;;;;
2072.0;1992.4;;;;;;;;;;4.4976654;-56.230354;29.812769;;;;;;;;;
2072.0;1992.4;;;;;;;0.79842526;-0.6540727;0.41785944;;;;;;;;;;;;
2072.0;1992.4;;;;;;;;;;5.897702;-50.721764;29.324472;;;;;;;;;
2072.0;1992.4;;;;;;;0.78902555;-0.6407666;0.4232917;;;;;;;;;;;;
2074.0;1995.2;;;;-0.3808518;0.8295175;0.22143939;;;;;;;;;;;;;;;
2074.0;1995.2;;;;-0.38151938;0.84923947;0.22232059;;;;;;;;;;;;;;;
2074.0;1995.2;;;;-0.3825913;0.8708879;0.22361377;;;;;;;;;;;;;;;
2074.0;1995.2;;;;-0.38365942;0.8943025;0.22516254;;;;;;;;;;;;;;;
2074.0;1995.2;;;;-0.38399512;0.916607;0.22611621;;;;;;;;;;;;;;;
2074.0;1999.0;262143;262143;12878;;;;;;;;;;;;;;;;;;
2074.0;2002.1;;;;;;;;;;7.328257;-45.289467;29.042177;;;;;;;;;
2074.0;2002.1;;;;;;;0.77321696;-0.62965786;0.42738122;;;;;;;;;;;;
2074.0;2002.1;;;;;;;;;;8.686331;-40.105137;28.820917;;;;;;;;;
2074.0;2002.1;;;;;;;0.7529527;-0.6229438;0.4304941;;;;;;;;;;;;
2074.0;2004.8;;;;;;;;;;;;;6084;;;;;;;;
2074.0;2004.8;;;;;;;;;;;;;6273;;;;;;;;
2074.0;2004.8;;;;;;;;;;;;;10099;;;;;;;;
2074.0;2004.8;;;;;;;;;;;;;12088;;;;;;;;
2074.0;2004.8;;;;;;;;;;;;;-1302;;;;;;;;
2074.0;2005.3;;;;-0.38447577;0.94140637;0.22681811;;;;;;;;;;;;;;;
2074.0;2005.3;;;;-0.38431174;0.9668046;0.22630695;;;;;;;;;;;;;;;
2074.0;2005.3;;;;-0.38410574;0.9917642;0.22604373;;;;;;;;;;;;;;;
2074.0;2005.3;;;;-0.38502508;1.0176126;0.22625354;;;;;;;;;;;;;;;
2074.0;2005.3;;;;-0.38705832;1.0440332;0.22544482;;;;;;;;;;;;;;;
2074.0;2011.7;;;;;;;;;;10.174108;-35.23362;28.534807;;;;;;;;;
2074.0;2011.7;;;;;;;0.73531294;-0.61793876;0.43171483;;;;;;;;;;;;
2074.0;2011.7;;;;;;;;;;11.623737;-31.205175;28.225805;;;;;;;;;
2074.0;2011.7;;;;;;;0.7093722;-0.61342204;0.43238625;;;;;;;;;;;;
2131.0;2015.5;;;;-0.38802725;1.0711824;0.22371295;;;;;;;;;;;;;;;
2131.0;2015.5;;;;-0.38847357;1.0948755;0.2225304;;;;;;;;;;;;;;;
2131.0;2015.5;;;;-0.39015967;1.1204072;0.2201958;;;;;;;;;;;;;;;
2131.0;2015.5;;;;-0.39448172;1.1485864;0.21749118;;;;;;;;;;;;;;;
2131.0;2015.5;;;;-0.3969689;1.177128;0.2133942;;;;;;;;;;;;;;;
2131.0;2019.1;;;;;;;;;;;;;;;;;76.82654;-45.97232;14.248329;;1909.0
2131.0;2019.1;;;;;;;;;;;;;;1.0968353;0.21448408;-0.24585712;;;;;1909.0
2131.0;2019.1;;;;;;;;;;;;;;;;;104.159676;-35.775322;4.955443;;1909.0
2131.0;2019.1;;;;;;;;;;;;;;0.9360027;0.4096805;-0.19263284;;;;;1909.0
2131.0;2019.1;;;;;;;;;;;;;;;;;111.507;-38.53725;-9.929959;;1918.7
2131.0;2019.1;;;;;;;;;;;;;;0.8743553;0.67232275;-0.090029605;;;;;1918.7
2131.0;2019.1;;;;;;;;;;;;;;;;;55.68865;-59.08002;-15.621662;;1918.7
2131.0;2019.1;;;;;;;;;;;;;;0.9342936;0.896939;-0.35572374;;;;;1918.7
2131.0;2019.1;;;;;;;;;;;;;;;;;-52.331615;-78.7492;-15.736107;;1928.1
2131.0;2019.1;;;;;;;;;;;;;;0.98190254;0.9087191;-0.86208683;;;;;1928.1
2131.0;2019.1;;;;;;;;;;;;;;;;;-117.63741;-42.275764;-23.613697;;1928.1
2131.0;2019.1;;;;;;;;;;;;;;0.8249153;0.80269784;-0.9500412;;;;;1928.1
2131.0;2019.1;262143;262143;12861;;;;;;;;;;;;;;;;;;
2133.0;2019.9;;;;;;;;;;;;;;;;;-100.64241;41.947693;-36.118656;;1937.8
2133.0;2019.9;;;;;;;;;;;;;;0.6707968;0.76430553;-0.15295877;;;;;1937.8
2133.0;2019.9;;;;;;;;;;;;;;;;;-62.803276;58.423874;-11.768701;;1937.8
2133.0;2019.9;;;;;;;;;;;;;;0.64064455;0.26258126;0.5501877;;;;;1937.8
2133.0;2019.9;;;;;;;;;;;;;;;;;-52.568134;6.008332;-7.328257;;1947.5
2133.0;2019.9;;;;;;;;;;;;;;0.71626943;-0.008667257;0.11224708;;;;;1947.5
2133.0;2019.9;;;;;;;;;;;;;;;;;-44.282356;-23.689993;-8.777886;;1947.5
2133.0;2019.9;;;;;;;;;;;;;;0.8334605;-0.11896115;-0.46357617;;;;;1947.5
2133.0;2019.9;;;;;;;;;;;;;;;;;-38.39229;-18.532366;6.1151466;;1957.1
2133.0;2019.9;;;;;;;;;;;;;;0.86288035;-0.33185828;-0.59566027;;;;;1957.1
2133.0;2019.9;;;;;;;;;;;;;;;;;-29.60677;-2.990814;26.482437;;1957.1
2133.0;2019.9;;;;;;;;;;;;;;0.8398694;-0.59810174;-0.5211341;;;;;1957.1
2133.0;2021.1;;;;;;;;;;13.138219;-28.695028;27.993103;;;;;;;;;
2133.0;2021.1;;;;;;;0.68440807;-0.60963774;0.42890713;;;;;;;;;;;;
2133.0;2021.1;;;;;;;;;;14.62981;-27.153845;27.802362;;;;;;;;;
2133.0;2021.1;;;;;;;0.65651417;-0.60463274;0.4262215;;;;;;;;;;;;
2133.0;2025.3;;;;-0.3995934;1.2062227;0.20902637;;;;;;;;;;;;;;;
2133.0;2025.3;;;;-0.40089422;1.233349;0.20345691;;;;;;;;;;;;;;;
2133.0;2025.3;;;;-0.4033013;1.2597772;0.1980057;;;;;;;;;;;;;;;
2133.0;2025.3;;;;-0.40655524;1.2855874;0.19056323;;;;;;;;;;;;;;;
2133.0;2025.3;;;;-0.40923697;1.3126336;0.18484499;;;;;;;;;;;;;;;
2133.0;2030.7;;;;;;;;;;16.026033;-26.329844;27.565844;;;;;;;;;
2133.0;2030.7;;;;;;;0.62825406;-0.6013367;0.4201178;;;;;;;;;;;;
2133.0;2030.7;;;;;;;;;;17.376476;-26.131474;27.333141;;;;;;;;;
2133.0;2030.7;;;;;;;0.5995056;-0.5938902;0.41029084;;;;;;;;;;;;
2136.0;2035.3;;;;-0.41385275;1.3408357;0.17905428;;;;;;;;;;;;;;;
2136.0;2035.3;;;;-0.4176255;1.367283;0.17376329;;;;;;;;;;;;;;;
2136.0;2035.3;;;;-0.4210549;1.3911363;0.1661606;;;;;;;;;;;;;;;
2136.0;2035.3;;;;-0.42427832;1.4140779;0.15630342;;;;;;;;;;;;;;;
2136.0;2035.3;;;;-0.4263001;1.4351503;0.15006639;;;;;;;;;;;;;;;
2136.0;2039.1;262143;262143;12848;;;;;;;;;;;;;;;;;;
2136.0;2040.2;;;;;;;;;;18.688772;-26.566362;27.058474;;;;;;;;;
2136.0;2040.2;;;;;;;0.5821711;-0.5905942;0.40009767;;;;;;;;;;;;
2136.0;2040.2;;;;;;;;;;19.94766;-27.146215;26.512955;;;;;;;;;
2136.0;2040.2;;;;;;;0.5696585;-0.58876306;0.38984343;;;;;;;;;;;;
2136.0;2044.9;;;;;;;;;;;;;-27189;;;;;;;;
2136.0;2044.9;;;;;;;;;;;;;-41742;;;;;;;;
2136.0;2044.9;;;;;;;;;;;;;-28723;;;;;;;;
2136.0;2044.9;;;;;;;;;;;;;-803;;;;;;;;
2136.0;2044.9;;;;;;;;;;;;;16436;;;;;;;;
2136.0;2045.4;;;;-0.4288903;1.4537126;0.14303209;;;;;;;;;;;;;;;
2136.0;2045.4;;;;-0.43282324;1.4686395;0.13573076;;;;;;;;;;;;;;;
2136.0;2045.4;;;;-0.4369927;1.4815027;0.12819673;;;;;;;;;;;;;;;
2136.0;2045.4;;;;-0.44007117;1.4930307;0.11991502;;;;;;;;;;;;;;;
2136.0;2045.4;;;;-0.4427529;1.502125;0.11312868;;;;;;;;;;;;;;;
2136.0;2049.5;;;;;;;;;;21.18366;-28.092287;26.028473;;;;;;;;;
2136.0;2049.5;;;;;;;0.55635244;-0.5838191;0.38044375;;;;;;;;;;;;
2136.0;2049.5;;;;;;;;;;22.473066;-29.183325;25.547808;;;;;;;;;
2136.0;2049.5;;;;;;;0.5519578;-0.5799127;0.37006745;;;;;;;;;;;;
2137.0;2055.2;;;;-0.44559485;1.5063708;0.10453035;;;;;;;;;;;;;;;
2137.0;2055.2;;;;-0.44790274;1.507561;0.09591676;;;;;;;;;;;;;;;
2137.0;2055.2;;;;-0.44924933;1.5080607;0.087528236;;;;;;;;;;;;;;;
2137.0;2055.2;;;;-0.4513932;1.506325;0.07990266;;;;;;;;;;;;;;;
2137.0;2055.2;;;;-0.4523049;1.502907;0.07357026;;;;;;;;;;;;;;;
2137.0;2059.2;;;;;;;;;;23.701437;-30.491806;24.96414;;;;;;;;;
2137.0;2059.2;;;;;;;0.54860073;-0.5794855;0.3615833;;;;;;;;;;;;
2137.0;2059.2;;;;;;;;;;25.048065;-31.96051;24.17829;;;;;;;;;
2137.0;2059.2;;;;;;;0.55024874;-0.5755791;0.3524888;;;;;;;;;;;;
2137.0;2059.1;262143;262143;12835;;;;;;;;;;;;;;;;;;
2137.0;2065.3;;;;-0.45063025;1.4958154;0.06583405;;;;;;;;;;;;;;;
2137.0;2065.3;;;;-0.44759375;1.4833375;0.05799485;;;;;;;;;;;;;;;
2137.0;2065.3;;;;-0.44274908;1.4668771;0.049861915;;;;;;;;;;;;;;;
2137.0;2065.3;;;;-0.43819052;1.4465638;0.04303742;;;;;;;;;;;;;;;
2137.0;2065.3;;;;-0.43405157;1.4243547;0.036529545;;;;;;;;;;;;;;;
2137.0;2068.8;;;;;;;;;;26.093327;-33.51314;23.35429;;;;;;;;;
2137.0;2068.8;;;;;;;0.5529954;-0.5681326;0.3432722;;;;;;;;;;;;
2137.0;2068.8;;;;;;;;;;26.974548;-35.031433;22.3014;;;;;;;;;
2137.0;2068.8;;;;;;;0.5569628;-0.56300545;0.3340556;;;;;;;;;;;;
2139.0;2075.5;;;;-0.4290734;1.4003946;0.029182438;;;;;;;;;;;;;;;
2139.0;2075.5;;;;-0.4218865;1.376156;0.022190096;;;;;;;;;;;;;;;
2139.0;2075.5;;;;-0.4127007;1.3513185;0.016506197;;;;;;;;;;;;;;;
2139.0;2075.5;;;;-0.4063912;1.3292352;0.011264802;;;;;;;;;;;;;;;
2139.0;2075.5;;;;-0.40315253;1.3108331;0.0044479375;;;;;;;;;;;;;;;
2139.0;2078.4;;;;;;;;;;27.64214;-36.51921;21.046328;;;;;;;;;
2139.0;2078.4;;;;;;;0.5633106;-0.5572069;0.32142094;;;;;;;;;;;;
2139.0;2078.4;;;;;;;;;;28.080843;-37.900173;19.74929;;;;;;;;;
2139.0;2078.4;;;;;;;0.5647145;-0.54988253;0.30994597;;;;;;;;;;;;
2139.0;2079.7;;;;;;;;;;;;;;;;;3.1205175;2.8344066;27.93588;;1966.7
2139.0;2079.7;;;;;;;;;;;;;;0.79842526;-0.7882931;-0.34076968;;;;;1966.7
2139.0;2079.7;;;;;;;;;;;;;;;;;55.64287;-14.473403;-13.145848;;1966.7
2139.0;2079.7;;;;;;;;;;;;;;0.9542528;-0.575396;-0.32703635;;;;;1966.7
2139.0;2079.7;;;;;;;;;;;;;;;;;103.01523;-40.532394;-55.27665;;1976.4
2139.0;2079.7;;;;;;;;;;;;;;1.1518906;0.059755243;-0.5934019;;;;;1976.4
2139.0;2079.7;;;;;;;;;;;;;;;;;109.40886;-39.250618;-86.2949;;1976.4
2139.0;2079.7;;;;;;;;;;;;;;1.3416547;0.4380627;-0.86434525;;;;;1976.4
2139.0;2079.7;;;;;;;;;;;;;;;;;95.58779;-12.2646265;-116.794334;;1986.0
2139.0;2079.7;;;;;;;;;;;;;;1.5525376;0.86861783;-0.83584094;;;;;1986.0
2139.0;2079.7;;;;;;;;;;;;;;;;;64.76028;14.751884;-124.98093;;1986.0
2139.0;2079.7;;;;;;;;;;;;;;1.7382733;1.205237;-0.7414777;;;;;1986.0
2139.0;2079.4;262143;262143;12811;;;;;;;;;;;;;;;;;;
2141.0;2080.5;;;;;;;;;;;;;;;;;22.194586;42.085026;-124.988556;;1995.5
2141.0;2080.5;;;;;;;;;;;;;;1.9206519;1.3707694;-0.53077793;;;;;1995.5
2141.0;2080.5;;;;;;;;;;;;;;;;;-16.541033;68.498795;-123.54274;;1995.5
2141.0;2080.5;;;;;;;;;;;;;;1.9974364;1.5204931;-0.20563371;;;;;1995.5
2141.0;2080.5;;;;;;;;;;;;;;;;;-43.81695;66.91565;-81.88116;;2005.1
2141.0;2080.5;;;;;;;;;;;;;;1.7784356;0.8933988;0.0474868;;;;;2005.1
2141.0;2080.5;;;;;;;;;;;;;;;;;-34.29136;29.67925;-35.79821;;2005.1
2141.0;2080.5;;;;;;;;;;;;;;1.2132939;0.13019197;-0.13177893;;;;;2005.1
2141.0;2080.5;;;;;;;;;;;;;;;;;-24.647512;3.913999;-26.982178;;2014.8
2141.0;2080.5;;;;;;;;;;;;;;1.0557573;-0.0933256;-0.34089175;;;;;2014.8
2141.0;2080.5;;;;;;;;;;;;;;;;;-17.40318;-13.031404;-13.904996;;2014.8
2141.0;2080.5;;;;;;;;;;;;;;0.8744774;-0.26575518;-0.44874418;;;;;2014.8
2141.0;2085.1;;;;;;;;;;;;;15626;;;;;;;;
2141.0;2085.1;;;;;;;;;;;;;10003;;;;;;;;
2141.0;2085.1;;;;;;;;;;;;;10020;;;;;;;;
2141.0;2085.1;;;;;;;;;;;;;11605;;;;;;;;
2141.0;2085.1;;;;;;;;;;;;;10289;;;;;;;;
2141.0;2085.4;;;;-0.40146643;1.2905504;-0.0017471316;;;;;;;;;;;;;;;
2141.0;2085.4;;;;-0.40022665;1.2706071;-0.007854463;;;;;;;;;;;;;;;
2141.0;2085.4;;;;-0.39905173;1.2544366;-0.013221743;;;;;;;;;;;;;;;
2141.0;2085.4;;;;-0.3981362;1.2399865;-0.016933443;;;;;;;;;;;;;;;
2141.0;2085.4;;;;-0.39625937;1.2271615;-0.018817903;;;;;;;;;;;;;;;
2141.0;2087.9;;;;;;;;;;28.33262;-39.33454;19.0817;;;;;;;;;
2141.0;2087.9;;;;;;;0.56263924;-0.544023;0.2974334;;;;;;;;;;;;
2141.0;2087.9;;;;;;;;;;28.492844;-40.906246;18.406477;;;;;;;;;
2141.0;2087.9;;;;;;;0.5555589;-0.53724784;0.28699607;;;;;;;;;;;;
2144.0;2094.2;;;;;;;;;;;;;;;;;-7.423628;-26.161993;-0.21362957;;2024.4
2144.0;2094.2;;;;;;;;;;;;;;0.7367168;-0.33100376;-0.48042238;;;;;2024.4
2144.0;2094.2;;;;;;;;;;;;;;;;;-3.402814;-26.261177;22.583696;;2024.4
2144.0;2094.2;;;;;;;;;;;;;;0.6017029;-0.42432937;-0.47169408;;;;;2024.4
2144.0;2094.2;;;;;;;;;;;;;;;;;-0.9193701;-22.919401;44.442577;;2034.1
2144.0;2094.2;;;;;;;;;;;;;;0.5121006;-0.59150976;-0.4911649;;;;;2034.1
2144.0;2094.2;;;;;;;;;;;;;;;;;8.362072;-22.160252;54.456467;;2034.1
2144.0;2094.2;;;;;;;;;;;;;;0.54792935;-0.6861171;-0.57704395;;;;;2034.1
2144.0;2094.2;;;;;;;;;;;;;;;;;22.728659;-18.738365;48.913544;;2043.6
2144.0;2094.2;;;;;;;;;;;;;;0.5916318;-0.7777337;-0.70400095;;;;;2043.6
2144.0;2094.2;;;;;;;;;;;;;;;;;27.077549;-7.435072;16.552477;;2043.6
2144.0;2094.2;;;;;;;;;;;;;;0.7660756;-0.53852963;-0.7315287;;;;;2043.6
2144.0;2095.3;;;;-0.39433295;1.2147714;-0.020042421;;;;;;;;;;;;;;;
2144.0;2095.3;;;;-0.3913117;1.2035714;-0.021041872;;;;;;;;;;;;;;;
2144.0;2095.3;;;;-0.39004523;1.1947633;-0.02138901;;;;;;;;;;;;;;;
2144.0;2095.3;;;;-0.38880545;1.1856195;-0.022426607;;;;;;;;;;;;;;;
2144.0;2095.3;;;;-0.38628393;1.1766015;-0.021228792;;;;;;;;;;;;;;;
2144.0;2097.3;;;;;;;;;;28.420362;-42.569508;17.818995;;;;;;;;;
2144.0;2097.3;;;;;;;0.54701376;-0.52949613;0.275338;;;;;;;;;;;;
2144.0;2097.3;;;;;;;;;;28.25251;-44.087803;17.437513;;;;;;;;;
2144.0;2097.3;;;;;;;0.5366985;-0.5206458;0.26233712;;;;;;;;;;;;
2144.0;2099.3;262143;262143;12799;;;;;;;;;;;;;;;;;;
2194.0;2105.4;;;;-0.38231283;1.1675493;-0.018196108;;;;;;;;;;;;;;;
2194.0;2105.4;;;;-0.37514502;1.1566201;-0.015609743;;;;;;;;;;;;;;;
2194.0;2105.4;;;;-0.36724094;1.1455919;-0.012401583;;;;;;;;;;;;;;;
2194.0;2105.4;;;;-0.36662677;1.1351815;-0.014060976;;;;;;;;;;;;;;;
2194.0;2105.4;;;;-0.37412646;1.1266519;-0.018337252;;;;;;;;;;;;;;;
2194.0;2106.8;;;;;;;;;;27.958769;-45.373394;16.869106;;;;;;;;;
2194.0;2106.8;;;;;;;0.52485734;-0.5132603;0.25019073;;;;;;;;;;;;
2194.0;2106.8;;;;;;;;;;27.497177;-46.60558;16.129032;;;;;;;;;
2194.0;2106.8;;;;;;;0.51942503;-0.5088046;0.23664053;;;;;;;;;;;;
2194.0;2115.0;;;;-0.38537604;1.1190492;-0.021961214;;;;;;;;;;;;;;;
2194.0;2115.0;;;;-0.3928414;1.108677;-0.019073488;;;;;;;;;;;;;;;
2194.0;2115.0;;;;-0.39597708;1.096676;-0.013584139;;;;;;;;;;;;;;;
2194.0;2115.0;;;;-0.395279;1.0822183;-0.011016847;;;;;;;;;;;;;;;
2194.0;2115.0;;;;-0.39028174;1.0666848;-0.011775972;;;;;;;;;;;;;;;
2194.0;2115.9;;;;;;;;;;26.779993;-47.692802;15.45381;;;;;;;;;
2194.0;2115.9;;;;;;;0.5162511;-0.5070956;0.22284615;;;;;;;;;;;;
2194.0;2115.9;;;;;;;;;;26.036104;-48.463394;14.881589;;;;;;;;;
2194.0;2115.9;;;;;;;0.50758386;-0.50416577;0.21094394;;;;;;;;;;;;
2194.0;2118.9;262143;262143;12796;;;;;;;;;;;;;;;;;;
2194.0;2124.7;;;;;;;;;;;;;8922;;;;;;;;
2194.0;2124.7;;;;;;;;;;;;;8381;;;;;;;;
2194.0;2124.7;;;;;;;;;;;;;7542;;;;;;;;
2194.0;2124.7;;;;;;;;;;;;;6617;;;;;;;;
2194.0;2124.7;;;;;;;;;;;;;5625;;;;;;;;
2195.0;2125.0;;;;-0.3836556;1.0501329;-0.010166169;;;;;;;;;;;;;;;
2195.0;2125.0;;;;-0.37526327;1.0360566;-0.010257722;;;;;;;;;;;;;;;
2195.0;2125.0;;;;-0.36646274;1.0216295;-0.006061555;;;;;;;;;;;;;;;
2195.0;2125.0;;;;-0.3581963;1.0078164;-0.0041809087;;;;;;;;;;;;;;;
2195.0;2125.0;;;;-0.34858325;0.9942132;-0.0014572145;;;;;;;;;;;;;;;
2195.0;2125.5;;;;;;;;;;25.151066;-48.7991;14.709922;;;;;;;;;
2195.0;2125.5;;;;;;;0.506241;-0.5056307;0.20160528;;;;;;;;;;;;
2195.0;2125.5;;;;;;;;;;24.075289;-48.997467;14.488663;;;;;;;;;
2195.0;2125.5;;;;;;;0.5075228;-0.51203954;0.1909238;;;;;;;;;;;;
2195.0;2135.1;;;;-0.34188083;0.9815179;0.001438141;;;;;;;;;;;;;;;
2195.0;2135.1;;;;-0.3384743;0.96681607;5.264283E-4;;;;;;;;;;;;;;;
2195.0;2135.1;;;;-0.3362656;0.9551393;6.446839E-4;;;;;;;;;;;;;;;
2195.0;2135.1;;;;-0.33591083;0.9439775;0.0017852786;;;;;;;;;;;;;;;
2195.0;2135.1;;;;-0.34029773;0.9291421;0.002685547;;;;;;;;;;;;;;;
2195.0;2135.1;;;;;;;;;;22.862179;-48.66558;14.206367;;;;;;;;;
2195.0;2135.1;;;;;;;0.51240575;-0.5188147;0.18445387;;;;;;;;;;;;
2195.0;2135.1;;;;;;;;;;21.42018;-48.01706;13.843959;;;;;;;;;
2195.0;2135.1;;;;;;;0.51515245;-0.5288858;0.17639698;;;;;;;;;;;;
2196.0;2139.0;;;;;;;;;;;;;;;;;5.9739985;7.232887;-6.302072;;2053.1
2196.0;2139.0;;;;;;;;;;;;;;0.9208655;-0.118717;-0.7253029;;;;;2053.1
2196.0;2139.0;;;;;;;;;;;;;;;;;-4.875332;15.949736;-8.617663;;2053.1
2196.0;2139.0;;;;;;;;;;;;;;0.98550373;0.044984285;-0.6754967;;;;;2053.1
2196.0;2139.0;;;;;;;;;;;;;;;;;-4.20774;20.3444;-9.262368;;2062.7
2196.0;2139.0;;;;;;;;;;;;;;1.0583819;0.16736351;-0.5684988;;;;;2062.7
2196.0;2139.0;;;;;;;;;;;;;;;;;-5.6001463;15.781885;-1.33137;;2062.7
2196.0;2139.0;;;;;;;;;;;;;;1.0789514;0.21955016;-0.5211951;;;;;2062.7
2196.0;2139.0;;;;;;;;;;;;;;;;;-6.6644797;6.9696646;9.102145;;2072.3
2196.0;2139.0;;;;;;;;;;;;;;0.9920957;0.12829982;-0.5200354;;;;;2072.3
2196.0;2139.0;;;;;;;;;;;;;;;;;-9.575183;4.341258;10.837886;;2072.3
2196.0;2139.0;;;;;;;;;;;;;;0.9609668;0.10229804;-0.5033723;;;;;2072.3
2196.0;2139.0;262143;262143;12803;;;;;;;;;;;;;;;;;;
2196.0;2144.6;;;;;;;;;;19.695883;-47.196877;13.187811;;;;;;;;;
2196.0;2144.6;;;;;;;0.5134434;-0.5451216;0.17065951;;;;;;;;;;;;
2196.0;2144.6;;;;;;;;;;17.914366;-46.124912;12.4134035;;;;;;;;;
2196.0;2144.6;;;;;;;0.50691247;-0.56263924;0.16815698;;;;;;;;;;;;
2196.0;2145.0;;;;-0.3505936;0.9106599;0.0017776492;;;;;;;;;;;;;;;
2196.0;2145.0;;;;-0.35728458;0.8934213;0.0046882634;;;;;;;;;;;;;;;
2196.0;2145.0;;;;-0.36101535;0.8781625;0.007900239;;;;;;;;;;;;;;;
2196.0;2145.0;;;;-0.3597603;0.8630487;0.013370516;;;;;;;;;;;;;;;
2196.0;2145.0;;;;-0.3580933;0.8480493;0.012908937;;;;;;;;;;;;;;;
2197.0;2154.0;;;;;;;;;;;;;;;;;-16.3007;4.154332;11.06296;;2082.0
2197.0;2154.0;;;;;;;;;;;;;;0.976043;0.115848266;-0.5406049;;;;;2082.0
2197.0;2154.0;;;;;;;;;;;;;;;;;-19.436476;3.5058138;10.9408865;;2082.0
2197.0;2154.0;;;;;;;;;;;;;;0.9887997;0.16241951;-0.5659963;;;;;2082.0
2197.0;2154.0;;;;;;;;;;;;;;;;;-25.666067;4.325999;11.020997;;2091.7
2197.0;2154.0;;;;;;;;;;;;;;1.0166326;0.22425;-0.5570238;;;;;2091.7
2197.0;2154.0;;;;;;;;;;;;;;;;;-33.978542;7.4999237;11.757256;;2091.7
2197.0;2154.0;;;;;;;;;;;;;;1.0351878;0.26801354;-0.4939726;;;;;2091.7
2197.0;2154.0;;;;;;;;;;;;;;;;;-42.329174;12.215034;10.933256;;2101.3
2197.0;2154.0;;;;;;;;;;;;;;1.0642414;0.32013917;-0.40278327;;;;;2101.3
2197.0;2154.0;;;;;;;;;;;;;;;;;-49.764244;15.037995;9.479813;;2101.3
2197.0;2154.0;;;;;;;;;;;;;;1.0827357;0.39497054;-0.31733146;;;;;2101.3
2197.0;2154.0;;;;;;;;;;16.006958;-44.69054;11.867886;;;;;;;;;
2197.0;2154.0;;;;;;;0.50758386;-0.58162177;0.16559343;;;;;;;;;;;;
2197.0;2154.0;;;;;;;;;;14.103366;-42.66488;11.3986635;;;;;;;;;
2197.0;2154.0;;;;;;;0.50691247;-0.60444957;0.17035432;;;;;;;;;;;;
2197.0;2154.9;;;;-0.35429385;0.8334924;0.014724733;;;;;;;;;;;;;;;
2197.0;2154.9;;;;-0.3488579;0.81901944;0.015373232;;;;;;;;;;;;;;;
2197.0;2154.9;;;;-0.34679797;0.8067514;0.018177034;;;;;;;;;;;;;;;
2197.0;2154.9;;;;-0.34500888;0.798813;0.021873476;;;;;;;;;;;;;;;
2197.0;2154.9;;;;-0.34627154;0.7897874;0.022438051;;;;;;;;;;;;;;;
2197.0;2159.0;262143;262143;12812;;;;;;;;;;;;;;;;;;
2313.0;2163.6;;;;;;;;;;12.08533;-40.69643;10.769219;;;;;;;;;
2313.0;2163.6;;;;;;;0.5087435;-0.6267281;0.17487106;;;;;;;;;;;;
2313.0;2163.6;;;;;;;;;;10.212256;-38.53725;10.021515;;;;;;;;;
2313.0;2163.6;;;;;;;0.5121006;-0.6466872;0.17993714;;;;;;;;;;;;
2313.0;2164.8;;;;;;;;;;;;;4794;;;;;;;;
2313.0;2164.8;;;;;;;;;;;;;4245;;;;;;;;
2313.0;2164.8;;;;;;;;;;;;;3525;;;;;;;;
2313.0;2164.8;;;;;;;;;;;;;2172;;;;;;;;
2313.0;2164.8;;;;;;;;;;;;;386;;;;;;;;
2313.0;2165.0;;;;-0.35053638;0.7807504;0.022811892;;;;;;;;;;;;;;;
2313.0;2165.0;;;;-0.34918597;0.77064145;0.024028782;;;;;;;;;;;;;;;
2313.0;2165.0;;;;-0.35136798;0.7604028;0.027935032;;;;;;;;;;;;;;;
2313.0;2165.0;;;;-0.3552399;0.75177395;0.030681614;;;;;;;;;;;;;;;
2313.0;2165.0;;;;-0.35990527;0.7451096;0.032012943;;;;;;;;;;;;;;;
2313.0;2173.0;;;;;;;;;;8.331553;-36.175877;9.247108;;;;;;;;;
2313.0;2173.0;;;;;;;0.51911986;-0.6672567;0.18420972;;;;;;;;;;;;
2313.0;2173.0;;;;;;;;;;6.4394054;-33.722954;8.518478;;;;;;;;;
2313.0;2173.0;;;;;;;0.5190588;-0.68923;0.19397564;;;;;;;;;;;;
2313.0;2174.8;;;;-0.3678017;0.73966986;0.031616215;;;;;;;;;;;;;;;
2313.0;2174.8;;;;-0.37616354;0.7381287;0.036300663;;;;;;;;;;;;;;;
2313.0;2174.8;;;;-0.37994772;0.73556143;0.037185673;;;;;;;;;;;;;;;
2313.0;2174.8;;;;-0.37414935;0.7248879;0.03550339;;;;;;;;;;;;;;;
2313.0;2174.8;;;;-0.36111072;0.7193566;0.04312897;;;;;;;;;;;;;;;
2313.0;2179.0;262143;262143;12808;;;;;;;;;;;;;;;;;;
2319.0;2182.6;;;;;;;;;;4.4557023;-30.90762;7.827998;;;;;;;;;
2319.0;2182.6;;;;;;;0.5227821;-0.7121189;0.20343639;;;;;;;;;;;;
2319.0;2182.6;;;;;;;;;;2.4872584;-27.691732;7.2786646;;;;;;;;;
2319.0;2182.6;;;;;;;0.52375865;-0.74184394;0.2169866;;;;;;;;;;;;
2319.0;2184.9;;;;-0.3720322;0.71189505;0.04151154;;;;;;;;;;;;;;;
2319.0;2184.9;;;;-0.38166052;0.707058;0.03653336;;;;;;;;;;;;;;;
2319.0;2184.9;;;;-0.3733292;0.70403296;0.04208756;;;;;;;;;;;;;;;
2319.0;2184.9;;;;-0.3663979;0.70037466;0.050849922;;;;;;;;;;;;;;;
2319.0;2184.9;;;;-0.39042288;0.69871145;0.046970375;;;;;;;;;;;;;;;
2319.0;2192.2;;;;;;;;;;0.5264443;-24.746696;6.9353313;;;;;;;;;
2319.0;2192.2;;;;;;;0.5235145;-0.77571946;0.22846156;;;;;;;;;;;;
2319.0;2192.2;;;;;;;;;;-1.678518;-21.797846;6.76748;;;;;;;;;
2319.0;2192.2;;;;;;;0.5167394;-0.8147221;0.23877682;;;;;;;;;;;;
2319.0;2195.0;;;;-0.40526968;0.6955376;0.039745335;;;;;;;;;;;;;;;
2319.0;2195.0;;;;-0.405922;0.6945229;0.045764927;;;;;;;;;;;;;;;
2319.0;2195.0;;;;-0.4016152;0.6961022;0.05012513;;;;;;;;;;;;;;;
2319.0;2195.0;;;;-0.4041596;0.6954194;0.041664127;;;;;;;;;;;;;;;
2319.0;2195.0;;;;-0.45421606;0.69587713;0.027767185;;;;;;;;;;;;;;;
2320.0;2199.5;;;;;;;;;;;;;;;;;-55.79928;10.914183;9.941404;;2111.0
2320.0;2199.5;;;;;;;;;;;;;;1.0967742;0.44331187;-0.3162328;;;;;2111.0
2320.0;2199.5;;;;;;;;;;;;;;;;;-60.972164;5.2949615;10.97522;;2111.0
2320.0;2199.5;;;;;;;;;;;;;;1.1000702;0.4807886;-0.3800775;;;;;2111.0
2320.0;2199.5;;;;;;;;;;;;;;;;;-66.35106;4.932554;14.118626;;2120.7
2320.0;2199.5;;;;;;;;;;;;;;1.0791955;0.47682118;-0.39326152;;;;;2120.7
2320.0;2199.5;;;;;;;;;;;;;;;;;-70.21546;7.637257;18.108921;;2120.7
2320.0;2199.5;;;;;;;;;;;;;;1.0386059;0.40144047;-0.3317362;;;;;2120.7
2320.0;2199.5;;;;;;;;;;;;;;;;;-70.39475;8.41548;20.306253;;2130.2
2320.0;2199.5;;;;;;;;;;;;;;1.0108951;0.29352704;-0.2646565;;;;;2130.2
2320.0;2199.5;;;;;;;;;;;;;;;;;-69.235054;8.144628;21.683401;;2130.2
2320.0;2199.5;;;;;;;;;;;;;;0.96743673;0.18884854;-0.23761712;;;;;2130.2
2320.0;2199.2;262143;262143;12812;;;;;;;;;;;;;;;;;;
2320.0;2201.7;;;;;;;;;;-3.8148136;-18.74218;6.9963684;;;;;;;;;
2320.0;2201.7;;;;;;;0.5129551;-0.85927916;0.24390393;;;;;;;;;;;;
2320.0;2201.7;;;;;;;;;;-6.1189613;-15.221107;7.7135534;;;;;;;;;
2320.0;2201.7;;;;;;;0.5159459;-0.9070101;0.25006866;;;;;;;;;;;;
2320.0;2204.9;;;;;;;;;;;;;-1046;;;;;;;;
2320.0;2204.9;;;;;;;;;;;;;-1596;;;;;;;;
2320.0;2204.9;;;;;;;;;;;;;-1216;;;;;;;;
2320.0;2204.9;;;;;;;;;;;;;3;;;;;;;;
2320.0;2204.9;;;;;;;;;;;;;2076;;;;;;;;
2321.0;2205.0;;;;-0.45877463;0.69398123;0.026306156;;;;;;;;;;;;;;;
2321.0;2205.0;;;;-0.4495812;0.6887055;0.043991093;;;;;;;;;;;;;;;
2321.0;2205.0;;;;-0.45670706;0.68254095;0.046772007;;;;;;;;;;;;;;;
2321.0;2205.0;;;;-0.471695;0.6746941;0.032444004;;;;;;;;;;;;;;;
2321.0;2205.0;;;;-0.46820837;0.67153174;0.028808597;;;;;;;;;;;;;;;
2321.0;2211.2;;;;;;;;;;-8.48796;-11.818293;8.953367;;;;;;;;;
2321.0;2211.2;;;;;;;0.5238807;-0.96371347;0.25800347;;;;;;;;;;;;
2321.0;2211.2;;;;;;;;;;-10.731071;-9.11359;10.280923;;;;;;;;;
2321.0;2211.2;;;;;;;0.53547776;-1.022126;0.26813564;;;;;;;;;;;;
2321.0;2214.0;;;;;;;;;;;;;;;;;-67.90749;6.95822;22.095402;;2139.9
2321.0;2214.0;;;;;;;;;;;;;;0.9269082;0.12738426;-0.27356791;;;;;2139.9
2321.0;2214.0;;;;;;;;;;;;;;;;;-67.16743;9.5675535;22.907955;;2139.9
2321.0;2214.0;;;;;;;;;;;;;;0.8789331;0.08478042;-0.26947844;;;;;2139.9
2321.0;2214.0;;;;;;;;;;;;;;;;;-64.45509;14.267404;23.6404;;2149.6
2321.0;2214.0;;;;;;;;;;;;;;0.8311411;0.060914945;-0.19611195;;;;;2149.6
2321.0;2214.0;;;;;;;;;;;;;;;;;-57.374798;16.247292;24.0524;;2149.6
2321.0;2214.0;;;;;;;;;;;;;;0.7835322;0.045777764;-0.11322367;;;;;2149.6
2321.0;2214.0;;;;;;;;;;;;;;;;;-48.15821;15.781885;24.002808;;2159.3
2321.0;2214.0;;;;;;;;;;;;;;0.7558214;0.035950806;-0.07910398;;;;;2159.3
2321.0;2214.0;;;;;;;;;;;;;;;;;-38.22825;15.331736;23.422956;;2159.3
2321.0;2214.0;;;;;;;;;;;;;;0.7332377;0.04693747;-0.06482132;;;;;2159.3
2322.0;2214.8;;;;-0.47956854;0.6733437;0.03440476;;;;;;;;;;;;;;;
2322.0;2214.8;;;;-0.47006232;0.67405707;0.037601475;;;;;;;;;;;;;;;
2322.0;2214.8;;;;-0.46467978;0.6745797;0.042472843;;;;;;;;;;;;;;;
2322.0;2214.8;;;;-0.46373755;0.67293555;0.039081577;;;;;;;;;;;;;;;
2322.0;2214.8;;;;-0.46218497;0.6696473;0.035522465;;;;;;;;;;;;;;;
2322.0;2219.1;262143;262143;12820;;;;;;;;;;;;;;;;;;
2322.0;2220.6;;;;;;;;;;-12.897885;-6.416517;11.944181;;;;;;;;;
2322.0;2220.6;;;;;;;0.5555589;-1.0904874;0.27759635;;;;;;;;;;;;
2322.0;2220.6;;;;;;;;;;-15.228736;-3.3532214;13.779107;;;;;;;;;
2322.0;2220.6;;;;;;;0.5813166;-1.163976;0.28498185;;;;;;;;;;;;
2322.0;2224.9;;;;-0.45672995;0.6673699;0.036643986;;;;;;;;;;;;;;;
2322.0;2224.9;;;;-0.4519959;0.6642075;0.03764725;;;;;;;;;;;;;;;
2322.0;2224.9;;;;-0.4485169;0.6606789;0.036186222;;;;;;;;;;;;;;;
2322.0;2224.9;;;;-0.44450766;0.65843207;0.036228184;;;;;;;;;;;;;;;
2322.0;2224.9;;;;-0.44165045;0.65572745;0.037563328;;;;;;;;;;;;;;;
2322.0;2230.2;;;;;;;;;;-17.456587;-0.82399976;15.572069;;;;;;;;;
2322.0;2230.2;;;;;;;0.60353404;-1.233253;0.28974274;;;;;;;;;;;;
2322.0;2230.2;;;;;;;;;;-19.451736;1.3199255;17.479475;;;;;;;;;
2322.0;2230.2;;;;;;;0.62068546;-1.3021027;0.2957854;;;;;;;;;;;;
2323.0;2235.0;;;;-0.4402123;0.65242773;0.03704453;;;;;;;;;;;;;;;
2323.0;2235.0;;;;-0.439663;0.6499215;0.037147526;;;;;;;;;;;;;;;
2323.0;2235.0;;;;-0.44090658;0.64768606;0.036609653;;;;;;;;;;;;;;;
2323.0;2235.0;;;;-0.44185644;0.64731604;0.036373142;;;;;;;;;;;;;;;
2323.0;2235.0;;;;-0.4436608;0.64445883;0.035873417;;;;;;;;;;;;;;;
2323.0;2239.3;262143;262143;12816;;;;;;;;;;;;;;;;;;
2323.0;2239.8;;;;;;;;;;-21.393476;2.750481;19.028292;;;;;;;;;
2323.0;2239.8;;;;;;;0.6259957;-1.3531907;0.30005798;;;;;;;;;;;;
2323.0;2239.8;;;;;;;;;;-23.277992;3.3684807;20.298624;;;;;;;;;
2323.0;2239.8;;;;;;;0.62874234;-1.3857845;0.30115664;;;;;;;;;;;;
2323.0;2245.1;;;;;;;;;;;;;4885;;;;;;;;
2323.0;2245.1;;;;;;;;;;;;;7868;;;;;;;;
2323.0;2245.1;;;;;;;;;;;;;9989;;;;;;;;
2323.0;2245.1;;;;;;;;;;;;;10430;;;;;;;;
2323.0;2245.1;;;;;;;;;;;;;9376;;;;;;;;
2323.0;2245.1;;;;-0.4458924;0.64200217;0.035465244;;;;;;;;;;;;;;;
2323.0;2245.1;;;;-0.44764715;0.64072806;0.034351353;;;;;;;;;;;;;;;
2323.0;2245.1;;;;-0.44868857;0.6384278;0.032844547;;;;;;;;;;;;;;;
2323.0;2245.1;;;;-0.44992453;0.6348954;0.03182221;;;;;;;;;;;;;;;
2323.0;2245.1;;;;-0.45228964;0.6305619;0.03167725;;;;;;;;;;;;;;;
2323.0;2249.4;;;;;;;;;;-25.238808;3.212073;20.970032;;;;;;;;;
2323.0;2249.4;;;;;;;0.61952573;-1.3909726;0.3009125;;;;;;;;;;;;
2323.0;2249.4;;;;;;;;;;-27.188177;2.3842587;21.179846;;;;;;;;;
2323.0;2249.4;;;;;;;0.59633166;-1.3877376;0.30036318;;;;;;;;;;;;
2324.0;2255.2;;;;-0.4526444;0.6278916;0.031291965;;;;;;;;;;;;;;;
2324.0;2255.2;;;;-0.45272833;0.6241761;0.030490879;;;;;;;;;;;;;;;
2324.0;2255.2;;;;-0.4519921;0.6194764;0.028881077;;;;;;;;;;;;;;;
2324.0;2255.2;;;;-0.45143133;0.61497885;0.028472904;;;;;;;;;;;;;;;
2324.0;2255.2;;;;-0.4479447;0.61098105;0.02701569;;;;;;;;;;;;;;;
2324.0;2259.0;;;;;;;;;;-28.576769;1.5449996;21.046328;;;;;;;;;
2324.0;2259.0;;;;;;;0.56697285;-1.3627735;0.30152288;;;;;;;;;;;;
2324.0;2259.0;;;;;;;;;;-29.351177;0.9727775;20.458845;;;;;;;;;
2324.0;2259.0;;;;;;;0.5544603;-1.2912992;0.31238747;;;;;;;;;;;;
2324.0;2259.4;;;;;;;;;;;;;;;;;-29.786066;12.630848;22.808771;;2168.8
2324.0;2259.4;;;;;;;;;;;;;;0.71718496;0.06060976;-0.10223701;;;;;2168.8
2324.0;2259.4;;;;;;;;;;;;;;;;;-22.82403;10.834071;22.247993;;2168.8
2324.0;2259.4;;;;;;;;;;;;;;0.6933195;0.056154057;-0.14484085;;;;;2168.8
2324.0;2259.4;;;;;;;;;;;;;;;;;-16.247292;10.708182;20.821253;;2178.4
2324.0;2259.4;;;;;;;;;;;;;;0.685934;0.082583085;-0.14258248;;;;;2178.4
2324.0;2259.4;;;;;;;;;;;;;;;;;-10.54033;12.638477;19.0817;;2178.4
2324.0;2259.4;;;;;;;;;;;;;;0.6944792;0.096499525;-0.10400708;;;;;2178.4
2324.0;2259.4;;;;;;;;;;;;;;;;;-2.8725548;14.774774;17.998291;;2188.1
2324.0;2259.4;;;;;;;;;;;;;;0.6986908;0.070986055;-0.07147435;;;;;2188.1
2324.0;2259.4;;;;;;;;;;;;;;;;;9.0487385;11.9556265;16.239662;;2188.1
2324.0;2259.4;;;;;;;;;;;;;;0.70351267;0.06915494;-0.110415965;;;;;2188.1
2324.0;2259.4;262143;262143;12819;;;;;;;;;;;;;;;;;;
2325.0;2265.2;;;;-0.4451142;0.60602194;0.025665287;;;;;;;;;;;;;;;
2325.0;2265.2;;;;-0.4402581;0.6037331;0.02411652;;;;;;;;;;;;;;;
2325.0;2265.2;;;;-0.43474585;0.5987511;0.02164078;;;;;;;;;;;;;;;
2325.0;2265.2;;;;-0.42913824;0.59457785;0.020401003;;;;;;;;;;;;;;;
2325.0;2265.2;;;;-0.42309195;0.5899392;0.018024446;;;;;;;;;;;;;;;
2325.0;2268.5;;;;;;;;;;-30.16373;0.44251838;18.95581;;;;;;;;;
2325.0;2268.5;;;;;;;0.5415204;-1.2073122;0.32538834;;;;;;;;;;;;
2325.0;2268.5;;;;;;;;;;-31.12125;-0.18692587;17.551958;;;;;;;;;
2325.0;2268.5;;;;;;;0.52449113;-1.1167333;0.3340556;;;;;;;;;;;;
2325.0;2274.4;;;;;;;;;;;;;;;;;17.399364;8.510849;13.203071;;2197.7
2325.0;2274.4;;;;;;;;;;;;;;0.70979947;0.071779534;-0.2031312;;;;;2197.7
2325.0;2274.4;;;;;;;;;;;;;;;;;18.196661;11.375774;10.193182;;2197.7
2325.0;2274.4;;;;;;;;;;;;;;0.7118747;0.08160649;-0.23548082;;;;;2197.7
2325.0;2274.4;;;;;;;;;;;;;;;;;16.693626;19.611956;6.3402205;;2207.3
2325.0;2274.4;;;;;;;;;;;;;;0.7041231;0.128605;-0.15668203;;;;;2207.3
2325.0;2274.4;;;;;;;;;;;;;;;;;24.159216;23.304697;3.1243324;;2207.3
2325.0;2274.4;;;;;;;;;;;;;;0.7165136;0.15607166;-0.07495346;;;;;2207.3
