patientId;holterMac;flexMac;;;;;;;;;;;;;;;;;;;;
;CA:F3:0B:1E:33:78;D3:4A:5C:52:80:78;;;;;;;;;;;;;;;;;;;;
receivedTimeStamp;timeStamp;red;ir;green;adxl_accX;adxl_accY;adxl_accZ;lsm_accelX;lsm_accelY;lsm_accelZ;lsm_gyroX;lsm_gyroY;lsm_gyroZ;ecg;flex_lsm_accelX;flex_lsm_accelY;flex_lsm_accelZ;flex_lsm_gyroX;flex_lsm_gyroY;flex_lsm_gyroZ;flex_cmd;flexTimeStamp
308.0;219.6;;;;;;;;;;;;;;;;;;;;17;0.1
308.0;219.6;;;;;;;;;;;;;;;;;13.824884;0.12207404;1.0910367;;127.6
308.0;219.6;;;;;;;;;;;;;;0.840846;0.33362836;0.03155614;;;;;127.6
308.0;219.6;;;;;;;;;;;;;;;;;-5.9854426;-17.563402;-8.1827755;;127.6
308.0;219.6;;;;;;;;;;;;;;0.87380594;0.34235665;0.03503525;;;;;127.6
308.0;219.6;;;;;;;;;;;;;;;;;-63.58531;-84.30738;-62.067017;;137.3
308.0;219.6;;;;;;;;;;;;;;0.8695944;0.3388165;0.038209174;;;;;137.3
308.0;219.6;;;;;;;;;;;;;;;;;-122.138885;-124.988556;-120.28489;;137.3
308.0;219.6;;;;;;;;;;;;;;0.86556596;0.3386334;0.039490953;;;;;137.3
363.0;220.4;;;;;;;;;;;;;;;;;-56.890316;-124.347664;-79.653305;;147.0
363.0;220.4;;;;;;;;;;;;;;0.8634907;0.33277383;0.037965026;;;;;147.0
363.0;220.4;;;;;;;;;;;;;;;;;11.959441;-122.474594;-35.256508;;147.0
363.0;220.4;;;;;;;;;;;;;;0.86434525;0.31727043;0.028504288;;;;;147.0
363.0;220.4;;;;;;;;;;;;;;;;;8.968627;-88.28624;-27.802362;;156.5
363.0;220.4;;;;;;;;;;;;;;0.86269724;0.31348613;0.031617176;;;;;156.5
363.0;220.4;;;;;;;;;;;;;;;;;2.3728142;6.9544053;-2.9412215;;156.5
363.0;220.4;;;;;;;;;;;;;;0.8608051;0.32447278;0.03912473;;;;;156.5
363.0;220.4;;;;;;;;;;;;;;;;;1.9722588;14.145329;0.045777764;;166.1
363.0;220.4;;;;;;;;;;;;;;0.85549486;0.3304544;0.044984285;;;;;166.1
363.0;220.4;;;;;;;;;;;;;;;;;2.3041475;12.936033;0.9498886;;166.1
363.0;220.4;;;;;;;;;;;;;;0.8543351;0.33906063;0.044068728;;;;;166.1
363.0;279.6;;;;;;;;;;;;;;;;;2.3194067;11.616108;2.3613698;;175.8
363.0;279.6;;;;;;;;;;;;;;0.8544572;0.3373516;0.03668325;;;;;175.8
363.0;279.6;;;;;;;;;;;;;;;;;2.6093326;10.593738;3.3417768;;175.8
363.0;279.6;;;;;;;;;;;;;;0.85695976;0.33356732;0.035767693;;;;;175.8
363.0;279.6;;;;;;;;;;;;;;;;;2.723777;9.647664;4.291665;;185.4
363.0;279.6;;;;;;;;;;;;;;0.86452836;0.33295694;0.032837916;;;;;185.4
363.0;279.6;;;;;;;;;;;;;;;;;3.2616658;8.529923;5.6573687;;185.4
363.0;279.6;;;;;;;;;;;;;;0.8719138;0.33582568;0.031067843;;;;;185.4
363.0;279.6;;;;;;;;;;;;;;;;;3.5325174;7.3015537;6.504257;;195.0
363.0;279.6;;;;;;;;;;;;;;0.87746817;0.331431;0.023621326;;;;;195.0
363.0;279.6;;;;;;;;;;;;;;;;;4.135258;6.309702;7.328257;;195.0
363.0;279.6;;;;;;;;;;;;;;0.88369393;0.32819605;0.021668142;;;;;195.0
422.0;280.3;;;;;;;;;;;;;;;;;5.130924;5.203406;8.129368;;204.7
422.0;280.3;;;;;;;;;;;;;;0.8847316;0.32428968;0.022278512;;;;;204.7
422.0;280.3;;;;;;;;;;;;;;;;;6.2944427;3.8453321;8.632923;;204.7
422.0;280.3;;;;;;;;;;;;;;0.88876003;0.31861323;0.021851253;;;;;204.7
422.0;280.3;;;;;;;;;;;;;;;;;7.6105533;2.9564807;9.102145;;214.3
422.0;280.3;;;;;;;;;;;;;;0.8860134;0.3114719;0.023987548;;;;;214.3
422.0;280.3;;;;;;;;;;;;;;;;;8.484145;2.2965178;9.517961;;214.3
422.0;280.3;;;;;;;;;;;;;;0.8809473;0.3045137;0.03418073;;;;;214.3
422.0;280.3;;;;;;;;;;;;;;;;;10.021515;0.6256294;9.918515;;224.0
422.0;280.3;;;;;;;;;;;;;;0.8767968;0.30048525;0.042664878;;;;;224.0
422.0;280.3;;;;;;;;;;;;;;;;;11.131626;-0.63325906;10.284738;;224.0
422.0;280.3;;;;;;;;;;;;;;0.87423325;0.29920346;0.042176582;;;;;224.0
422.0;339.8;;;;;;;;;;;;;;;;;12.024293;-1.2779626;10.471663;;233.6
422.0;339.8;;;;;;;;;;;;;;0.87118137;0.30610064;0.042847987;;;;;233.6
422.0;339.8;;;;;;;;;;;;;;;;;11.867886;-1.1558886;10.54796;;233.6
422.0;339.8;;;;;;;;;;;;;;0.86861783;0.31531724;0.032898955;;;;;233.6
422.0;339.8;;;;;;;;;;;;;;;;;12.123478;-0.96896267;11.299478;;243.1
422.0;339.8;;;;;;;;;;;;;;0.86104923;0.3086642;0.033875547;;;;;243.1
422.0;339.8;;;;;;;;;;;;;;;;;12.58507;-1.6098514;11.444441;;243.1
422.0;339.8;;;;;;;;;;;;;;0.8543351;0.3200171;0.02661214;;;;;243.1
422.0;339.8;;;;;;;;;;;;;;;;;13.294626;-3.0442214;11.883144;;252.8
422.0;339.8;;;;;;;;;;;;;;0.8575701;0.33277383;0.012146367;;;;;252.8
422.0;339.8;;;;;;;;;;;;;;;;;13.428144;-4.0093694;12.897885;;252.8
422.0;339.8;;;;;;;;;;;;;;0.8556169;0.33606982;0.003173925;;;;;252.8
482.0;340.6;;;;;;;;;;;;;;;;;13.260293;-4.902035;13.843959;;262.5
482.0;340.6;;;;;;;;;;;;;;0.85262614;0.34498122;-0.007141331;;;;;262.5
482.0;340.6;;;;;;;;;;;;;;;;;12.817774;-6.183813;14.984588;;262.5
482.0;340.6;;;;;;;;;;;;;;0.852504;0.34650716;-0.01330607;;;;;262.5
482.0;340.6;;;;;;;;;;;;;;;;;12.211219;-7.641072;15.930662;;272.1
482.0;340.6;;;;;;;;;;;;;;0.85024565;0.35505235;-0.018738365;;;;;272.1
482.0;340.6;;;;;;;;;;;;;;;;;10.917997;-9.537035;17.429884;;272.1
482.0;340.6;;;;;;;;;;;;;;0.85097814;0.3617664;-0.026306955;;;;;272.1
482.0;340.6;;;;;;;;;;;;;;;;;9.483627;-11.265144;19.100773;;281.8
482.0;340.6;;;;;;;;;;;;;;0.8517716;0.35853145;-0.033509325;;;;;281.8
482.0;340.6;;;;;;;;;;;;;;;;;8.426924;-12.909329;20.48555;;281.8
482.0;340.6;;;;;;;;;;;;;;0.8529313;0.3564562;-0.032654807;;;;;281.8
482.0;400.0;;;;;;;;;;;;;;;;;7.5228124;-14.8625145;21.595661;;291.5
482.0;400.0;;;;;;;;;;;;;;0.85439616;0.3596301;-0.03381451;;;;;291.5
482.0;400.0;;;;;;;;;;;;;;;;;6.416517;-17.155216;23.228401;;291.5
482.0;400.0;;;;;;;;;;;;;;0.8556169;0.3538316;-0.04095584;;;;;291.5
482.0;400.0;;;;;;;;;;;;;;;;;5.451369;-19.497513;24.59792;;301.1
482.0;400.0;;;;;;;;;;;;;;0.86031675;0.35108495;-0.04571673;;;;;301.1
482.0;400.0;;;;;;;;;;;;;;;;;4.459517;-21.19892;25.643177;;301.1
482.0;400.0;;;;;;;;;;;;;;0.86355174;0.3497421;-0.036744285;;;;;301.1
482.0;400.0;;;;;;;;;;;;;;;;;3.3112583;-22.949919;26.673178;;310.7
482.0;400.0;;;;;;;;;;;;;;0.8653218;0.3455916;-0.027283547;;;;;310.7
482.0;400.0;;;;;;;;;;;;;;;;;2.2927032;-24.830622;27.520065;;310.7
482.0;400.0;;;;;;;;;;;;;;0.8714255;0.34669027;-0.020020142;;;;;310.7
543.0;400.8;;;;;;;;;;;;;;;;;1.1940367;-26.352734;28.336435;;320.3
543.0;400.8;;;;;;;;;;;;;;0.8782617;0.34742272;-0.018250069;;;;;320.3
543.0;400.8;;;;;;;;;;;;;;;;;0.15259254;-27.573473;29.034548;;320.3
543.0;400.8;;;;;;;;;;;;;;0.8872341;0.3472396;-0.016663106;;;;;320.3
543.0;400.8;;;;;;;;;;;;;;;;;-0.65614796;-28.374584;29.694511;;330.0
543.0;400.8;;;;;;;;;;;;;;0.8963286;0.34125796;-0.01391644;;;;;330.0
543.0;400.8;;;;;;;;;;;;;;;;;-1.1139256;-29.358807;30.446028;;330.0
543.0;400.8;;;;;;;;;;;;;;0.90646076;0.33478805;-0.012878811;;;;;330.0
543.0;400.8;;;;;;;;;;;;;;;;;-1.8349254;-30.964842;31.235695;;339.6
543.0;400.8;;;;;;;;;;;;;;0.91763055;0.3272805;-0.018127995;;;;;339.6
543.0;400.8;;;;;;;;;;;;;;;;;-3.151036;-32.647175;32.258064;;339.6
543.0;400.8;;;;;;;;;;;;;;0.9319132;0.31519517;-0.0237434;;;;;339.6
543.0;460.4;;;;;;;;;;;;;;;;;-4.9821467;-33.65429;33.276623;;349.3
543.0;460.4;;;;;;;;;;;;;;0.9503464;0.3007294;-0.02764977;;;;;349.3
543.0;460.4;;;;;;;;;;;;;;;;;-7.023072;-33.753475;34.081543;;349.3
543.0;460.4;;;;;;;;;;;;;;0.9609058;0.28736228;-0.025025178;;;;;349.3
543.0;460.4;;;;;;;;;;;;;;;;;-9.014404;-33.970913;34.890285;;358.8
543.0;460.4;;;;;;;;;;;;;;0.9733573;0.26966155;-0.023377178;;;;;358.8
543.0;460.4;;;;;;;;;;;;;;;;;-10.517442;-34.463024;35.493027;;358.8
543.0;460.4;;;;;;;;;;;;;;0.987579;0.25843075;-0.026917325;;;;;358.8
543.0;460.4;;;;;;;;;;;;;;;;;-11.700033;-34.382915;36.076694;;368.5
543.0;460.4;;;;;;;;;;;;;;0.9945372;0.24115726;-0.030762658;;;;;368.5
543.0;460.4;;;;;;;;;;;;;;;;;-12.207404;-34.06247;36.317028;;368.5
543.0;460.4;;;;;;;;;;;;;;1.0046693;0.23950927;-0.026490066;;;;;368.5
603.0;461.6;;;;;;;;;;;;;;;;;-11.951812;-34.169285;36.47725;;378.1
603.0;461.6;;;;;;;;;;;;;;1.0212103;0.23493148;-0.026490066;;;;;378.1
603.0;461.6;;;;;;;;;;;;;;;;;-10.708182;-34.360023;36.523026;;378.1
603.0;461.6;;;;;;;;;;;;;;1.0344554;0.23078097;-0.024231697;;;;;378.1
603.0;461.6;;;;;;;;;;;;;;;;;-9.289071;-35.035248;36.29032;;387.7
603.0;461.6;;;;;;;;;;;;;;1.0496536;0.23426008;-0.025513474;;;;;387.7
603.0;461.6;;;;;;;;;;;;;;;;;-7.9996643;-36.03473;36.065247;;387.7
603.0;461.6;;;;;;;;;;;;;;1.0687582;0.23554185;-0.029358806;;;;;387.7
603.0;461.6;;;;;;;;;;;;;;;;;-7.0535903;-36.56499;35.7181;;397.4
603.0;461.6;;;;;;;;;;;;;;1.0879239;0.2369457;-0.030457472;;;;;397.4
603.0;461.6;;;;;;;;;;;;;;;;;-6.015961;-37.045654;35.454876;;397.4
603.0;461.6;;;;;;;;;;;;;;1.104648;0.23572497;-0.028382214;;;;;397.4
603.0;520.8;;;;;;;;;;;;;;;;;-4.863888;-37.835323;34.913174;;406.9
603.0;520.8;;;;;;;;;;;;;;1.1172826;0.23706779;-0.02990814;;;;;406.9
603.0;520.8;;;;;;;;;;;;;;;;;-3.971221;-38.464767;34.314247;;406.9
603.0;520.8;;;;;;;;;;;;;;1.1263771;0.24201179;-0.029725028;;;;;406.9
603.0;520.8;;;;;;;;;;;;;;;;;-4.3908505;-37.812435;33.860287;;416.5
603.0;520.8;;;;;;;;;;;;;;1.1399884;0.24292734;-0.01660207;;;;;416.5
603.0;520.8;;;;;;;;;;;;;;;;;-6.248665;-35.214542;32.940918;;416.5
603.0;520.8;;;;;;;;;;;;;;1.1499374;0.24805444;0.01043733;;;;;416.5
603.0;520.8;;;;;;;;;;;;;;;;;-9.006775;-31.102177;31.670582;;426.2
603.0;520.8;;;;;;;;;;;;;;1.1550035;0.24835964;0.04992828;;;;;426.2
603.0;520.8;;;;;;;;;;;;;;;;;-11.654256;-26.856289;29.919584;;426.2
603.0;520.8;;;;;;;;;;;;;;1.1519517;0.25629443;0.08667257;;;;;426.2
663.0;521.6;;;;;;;;;;;;;;;;;-13.752403;-22.362436;27.91299;;435.8
663.0;521.6;;;;;;;;;;;;;;1.1399884;0.2624592;0.11572619;;;;;435.8
663.0;521.6;;;;;;;;;;;;;;;;;-15.190588;-18.12418;25.585955;;435.8
663.0;521.6;;;;;;;;;;;;;;1.1257057;0.27051607;0.13550219;;;;;435.8
663.0;521.6;;;;;;;;;;;;;;;;;-16.014587;-14.427626;23.106327;;445.4
663.0;521.6;;;;;;;;;;;;;;1.1122776;0.27936643;0.14380322;;;;;445.4
663.0;521.6;;;;;;;;;;;;;;;;;-15.858181;-10.982849;21.19892;;445.4
663.0;521.6;;;;;;;;;;;;;;1.0973846;0.27509385;0.14453566;;;;;445.4
663.0;521.6;;;;;;;;;;;;;;;;;-14.500107;-7.9615164;19.062624;;455.1
663.0;521.6;;;;;;;;;;;;;;1.0871303;0.26966155;0.12994781;;;;;455.1
663.0;521.6;;;;;;;;;;;;;;;;;-12.035737;-5.00885;16.7127;;455.1
663.0;521.6;;;;;;;;;;;;;;1.0836512;0.2644734;0.10559405;;;;;455.1
663.0;535.8;;;;;;;;;;;;;;;;;-8.869442;-1.781518;14.02707;;464.6
663.0;535.8;;;;;;;;;;;;;;1.0816981;0.26062807;0.083254494;;;;;464.6
663.0;535.8;;;;;;;;;;;;;;;;;-5.592517;0.8659627;11.226996;;464.6
663.0;535.8;;;;;;;;;;;;;;1.0821253;0.26013976;0.060914945;;;;;464.6
663.0;535.8;;;;;;;;;;;;;;;;;-2.578814;2.967925;8.507034;;474.3
663.0;535.8;;;;;;;;;;;;;;1.0806605;0.2562334;0.04156621;;;;;474.3
663.0;535.8;;;;;;;;;;;;;;;;;-0.23651844;5.0241094;5.813776;;474.3
663.0;535.8;;;;;;;;;;;;;;1.0809656;0.25305948;0.030396435;;;;;474.3
663.0;535.8;;;;;;;;;;;;;;;;;2.166814;7.019257;3.2654805;;483.9
663.0;535.8;;;;;;;;;;;;;;1.0748008;0.24524674;0.023682363;;;;;483.9
663.0;535.8;;;;;;;;;;;;;;;;;4.791406;8.30485;0.7324442;;483.9
663.0;535.8;;;;;;;;;;;;;;1.0628376;0.2360912;0.017578661;;;;;483.9
723.0;581.4;;;;;;;;;;;;;;;;;8.213294;8.342998;-1.5106663;;493.5
723.0;581.4;;;;;;;;;;;;;;1.04532;0.22510453;0.0048219245;;;;;493.5
723.0;581.4;;;;;;;;;;;;;;;;;12.138738;8.140813;-3.5172582;;493.5
723.0;581.4;;;;;;;;;;;;;;1.0261544;0.20978424;-0.0112918485;;;;;493.5
723.0;581.4;;;;;;;;;;;;;;;;;16.582996;8.098849;-5.3827024;;503.0
723.0;581.4;;;;;;;;;;;;;;1.0054628;0.20099491;-0.022583697;;;;;503.0
723.0;581.4;;;;;;;;;;;;;;;;;21.378216;7.854701;-6.8857384;;503.0
723.0;581.4;;;;;;;;;;;;;;0.98330635;0.19232765;-0.02417066;;;;;503.0
723.0;581.4;;;;;;;;;;;;;;;;;26.047548;7.3664055;-8.011109;;512.6
723.0;581.4;;;;;;;;;;;;;;0.9582812;0.18164617;-0.021973327;;;;;512.6
723.0;581.4;;;;;;;;;;;;;;;;;30.278175;6.3936276;-9.10596;;512.6
723.0;581.4;;;;;;;;;;;;;;0.93850523;0.1782281;-0.0145268105;;;;;512.6
723.0;596.0;;;;;;;;;;;;;;;;;33.387253;5.260628;-9.659109;;522.3
723.0;596.0;;;;;;;;;;;;;;0.92208624;0.17670217;-0.0126957;;;;;522.3
723.0;596.0;;;;;;;;;;;;;;;;;34.83306;4.6845913;-9.784997;;522.3
723.0;596.0;;;;;;;;;;;;;;0.9094516;0.17175817;-0.007873775;;;;;522.3
723.0;596.0;;;;;;;;;;;;;;;;;35.05432;4.2191844;-9.952848;;531.9
723.0;596.0;;;;;;;;;;;;;;0.8977325;0.17065951;2.4414808E-4;;;;;531.9
723.0;596.0;;;;;;;;;;;;;;;;;34.2761;3.8872952;-10.162663;;531.9
723.0;596.0;;;;;;;;;;;;;;0.88912624;0.173101;0.011780145;;;;;531.9
723.0;596.0;;;;;;;;;;;;;;;;;32.6281;3.1968138;-9.979552;;541.6
723.0;596.0;;;;;;;;;;;;;;0.8896145;0.18262276;0.002990814;;;;;541.6
723.0;596.0;;;;;;;;;;;;;;;;;30.07599;3.2197027;-9.304331;;541.6
723.0;596.0;;;;;;;;;;;;;;0.8904691;0.18726158;-0.009338664;;;;;541.6
783.0;641.4;;;;;;;;;;;;;;;;;26.638844;4.634999;-8.396405;;551.1
783.0;641.4;;;;;;;;;;;;;;0.8993194;0.19672231;-0.00573748;;;;;551.1
783.0;641.4;;;;;;;;;;;;;;;;;22.60277;6.6835537;-7.3931093;;551.1
783.0;641.4;;;;;;;;;;;;;;0.9142735;0.20862453;1.8311106E-4;;;;;551.1
783.0;641.4;;;;;;;;;;;;;;;;;18.784143;10.269479;-6.324961;;560.7
783.0;641.4;;;;;;;;;;;;;;0.9375286;0.2197943;0.010681478;;;;;560.7
783.0;641.4;;;;;;;;;;;;;;;;;16.136662;14.328441;-5.8061466;;560.7
783.0;641.4;;;;;;;;;;;;;;0.9485153;0.24030274;0.0081179235;;;;;560.7
783.0;641.4;;;;;;;;;;;;;;;;;14.896848;17.50618;-5.32548;;570.2
783.0;641.4;;;;;;;;;;;;;;0.9609058;0.26276436;-0.008545183;;;;;570.2
783.0;641.4;;;;;;;;;;;;;;;;;14.881589;20.142216;-4.9401836;;570.2
783.0;641.4;;;;;;;;;;;;;;0.96945095;0.2837611;-0.02478103;;;;;570.2
783.0;656.5;;;;;;;;;;;;;;;;;15.396588;21.858883;-5.01648;;579.9
783.0;656.5;;;;;;;;;;;;;;0.9713431;0.3009125;-0.041444138;;;;;579.9
783.0;656.5;;;;;;;;;;;;;;;;;16.457108;22.808771;-5.4170356;;579.9
783.0;656.5;;;;;;;;;;;;;;0.9722587;0.31617177;-0.05121006;;;;;579.9
783.0;656.5;;;;;;;;;;;;;;;;;17.662586;22.583696;-5.4818873;;589.5
783.0;656.5;;;;;;;;;;;;;;0.95852536;0.32410657;-0.052308727;;;;;589.5
783.0;656.5;;;;;;;;;;;;;;;;;17.632069;20.416883;-5.9053316;;589.5
783.0;656.5;;;;;;;;;;;;;;0.94137394;0.33680227;-0.059450056;;;;;589.5
783.0;656.5;;;;;;;;;;;;;;;;;17.07892;16.529589;-6.061739;;599.2
783.0;656.5;;;;;;;;;;;;;;0.9234291;0.34339428;-0.064760275;;;;;599.2
783.0;656.5;;;;;;;;;;;;;;;;;15.915403;12.024293;-5.9511094;;599.2
783.0;656.5;;;;;;;;;;;;;;0.9143956;0.34760582;-0.06891079;;;;;599.2
841.0;701.6;;;;;;;;;;;;;;;;;13.580737;9.132664;-5.767998;;608.8
841.0;701.6;;;;;;;;;;;;;;0.9132359;0.34760582;-0.06640828;;;;;608.8
841.0;701.6;;;;;;;;;;;;;;;;;11.925108;6.8437757;-5.42848;;608.8
841.0;701.6;;;;;;;;;;;;;;0.91579944;0.34437087;-0.06762902;;;;;608.8
841.0;701.6;;;;;;;;;;;;;;;;;12.18833;6.4355907;-5.0469985;;618.5
841.0;701.6;;;;;;;;;;;;;;0.92556536;0.34571368;-0.05774102;;;;;618.5
841.0;701.6;;;;;;;;;;;;;;;;;13.401441;7.5800347;-4.5319986;;618.5
841.0;701.6;;;;;;;;;;;;;;0.93234044;0.3382061;-0.048585467;;;;;618.5
841.0;701.6;;;;;;;;;;;;;;;;;13.714254;9.655293;-4.799036;;628.2
841.0;701.6;;;;;;;;;;;;;;0.93649095;0.3408307;-0.04199347;;;;;628.2
841.0;701.6;;;;;;;;;;;;;;;;;12.474441;10.773034;-4.8295546;;628.2
841.0;701.6;;;;;;;;;;;;;;0.9366131;0.32886747;-0.0463271;;;;;628.2
841.0;709.5;;;;;;;;;;;;;;;;;11.303292;10.155034;-4.5358133;;637.8
841.0;709.5;;;;;;;;;;;;;;0.9378948;0.3126316;-0.06439406;;;;;637.8
841.0;709.5;;;;;;;;;;;;;;;;;10.658589;8.655812;-4.2306285;;637.8
841.0;709.5;;;;;;;;;;;;;;0.9322794;0.29139072;-0.084231086;;;;;637.8
841.0;709.5;;;;;;;;;;;;;;;;;10.956145;5.516221;-4.161962;;647.4
841.0;709.5;;;;;;;;;;;;;;0.9237953;0.27008882;-0.11371197;;;;;647.4
841.0;709.5;;;;;;;;;;;;;;;;;10.85696;0.90792567;-3.807184;;647.4
841.0;709.5;;;;;;;;;;;;;;0.9335612;0.25580615;-0.13830988;;;;;647.4
841.0;709.5;;;;;;;;;;;;;;;;;7.8737755;-0.9155553;-2.5330362;;657.0
841.0;709.5;;;;;;;;;;;;;;0.9393597;0.21845149;-0.11658071;;;;;657.0
841.0;709.5;;;;;;;;;;;;;;;;;3.6736658;0.28611103;-2.4071476;;657.0
841.0;709.5;;;;;;;;;;;;;;0.9051179;0.18408765;-0.06140324;;;;;657.0
903.0;761.9;;;;;;;;;;;;;;;;;1.7319254;-4.875332;-2.4033327;;666.6
903.0;761.9;;;;;;;;;;;;;;0.8567156;0.15332499;-0.06659139;;;;;666.6
903.0;761.9;;;;;;;;;;;;;;;;;-0.16022217;-17.075106;-1.3657033;;666.6
903.0;761.9;;;;;;;;;;;;;;0.84792626;0.12018189;-0.121768855;;;;;666.6
903.0;761.9;;;;;;;;;;;;;;;;;-4.6845913;-26.043734;0.011444441;;676.1
903.0;761.9;;;;;;;;;;;;;;0.85219884;0.088137455;-0.110293895;;;;;676.1
903.0;761.9;;;;;;;;;;;;;;;;;-9.769737;-29.583881;1.1864071;;676.1
903.0;761.9;;;;;;;;;;;;;;0.83169043;0.07068087;-0.018738365;;;;;676.1
903.0;761.9;;;;;;;;;;;;;;;;;-12.096774;-34.745323;1.945555;;685.7
903.0;761.9;;;;;;;;;;;;;;0.83962524;0.054994356;0.03241066;;;;;685.7
903.0;761.9;;;;;;;;;;;;;;;;;-10.021515;-38.41136;3.0594807;;685.7
903.0;761.9;;;;;;;;;;;;;;0.86336863;0.060731836;0.06982635;;;;;685.7
903.0;769.4;;;;;;;;;;;;;;;;;-6.7293315;-38.350323;4.9783316;;695.4
903.0;769.4;;;;;;;;;;;;;;0.90249336;0.052491836;0.09411909;;;;;695.4
903.0;769.4;;;;;;;;;;;;;;;;;-6.0197763;-35.07721;6.912442;;695.4
903.0;769.4;;;;;;;;;;;;;;0.8949858;0.049012728;0.08819849;;;;;695.4
903.0;769.4;;;;;;;;;;;;;;;;;-7.831813;-34.375286;8.9991455;;705.0
903.0;769.4;;;;;;;;;;;;;;0.9015168;0.042176582;0.0041505173;;;;;705.0
903.0;769.4;;;;;;;;;;;;;;;;;-6.2562943;-31.68203;11.535996;;705.0
903.0;769.4;;;;;;;;;;;;;;0.9610889;0.01800592;-0.07367168;;;;;705.0
903.0;769.4;;;;;;;;;;;;;;;;;0.65233314;-21.069216;13.386182;;714.7
903.0;769.4;;;;;;;;;;;;;;0.98062074;-0.015320292;-0.05285806;;;;;714.7
903.0;769.4;;;;;;;;;;;;;;;;;10.845515;-13.153478;14.32081;;714.7
903.0;769.4;;;;;;;;;;;;;;0.99612415;-0.056459244;-0.032837916;;;;;714.7
964.0;822.2;;;;;;;;;;;;;;;;;23.411512;-10.345775;15.022736;;724.4
964.0;822.2;;;;;;;;;;;;;;1.0251167;-0.10425123;-0.077761166;;;;;724.4
964.0;822.2;;;;;;;;;;;;;;;;;36.103397;-6.0922575;15.659811;;724.4
964.0;822.2;;;;;;;;;;;;;;1.0357982;-0.1297647;-0.0867336;;;;;724.4
964.0;822.2;;;;;;;;;;;;;;;;;47.433395;-3.89111;16.178625;;734.0
964.0;822.2;;;;;;;;;;;;;;0.9971008;-0.101504564;-0.03302103;;;;;734.0
964.0;822.2;;;;;;;;;;;;;;;;;61.155277;-10.0138855;17.551958;;734.0
964.0;822.2;;;;;;;;;;;;;;0.9967345;-0.05206458;-0.010315256;;;;;734.0
964.0;822.2;;;;;;;;;;;;;;;;;74.106575;-17.262032;19.520401;;743.7
964.0;822.2;;;;;;;;;;;;;;1.0182806;-0.014831996;-0.048036136;;;;;743.7
964.0;822.2;;;;;;;;;;;;;;;;;81.04953;-19.745476;21.744438;;743.7
964.0;822.2;;;;;;;;;;;;;;1.0317087;0.0051271096;-0.08874783;;;;;743.7
964.0;830.0;;;;;;;;;;;;;;;;;78.92086;-19.890438;23.55266;;753.4
964.0;830.0;;;;;;;;;;;;;;1.0365916;0.03234962;-0.11236915;;;;;753.4
964.0;830.0;;;;;;;;;;;;;;;;;69.86068;-19.127476;24.254585;;753.4
964.0;830.0;;;;;;;;;;;;;;1.0548418;0.076540425;-0.109866634;;;;;753.4
964.0;830.0;;;;;;;;;;;;;;;;;63.425095;-20.142216;24.494919;;763.0
964.0;830.0;;;;;;;;;;;;;;1.0907925;0.12555315;-0.110965304;;;;;763.0
964.0;830.0;;;;;;;;;;;;;;;;;60.922573;-21.980957;24.761955;;763.0
964.0;830.0;;;;;;;;;;;;;;1.1042207;0.15149388;-0.14227729;;;;;763.0
964.0;830.0;;;;;;;;;;;;;;;;;59.46913;-23.319956;25.326548;;772.6
964.0;830.0;;;;;;;;;;;;;;1.0918913;0.14349803;-0.18207343;;;;;772.6
964.0;830.0;;;;;;;;;;;;;;;;;56.95517;-23.34666;26.638844;;772.6
964.0;830.0;;;;;;;;;;;;;;1.0788903;0.12958159;-0.20538957;;;;;772.6
1024.0;882.4;;;;;;;;;;;;;;;;;51.21769;-21.114994;27.71462;;782.3
1024.0;882.4;;;;;;;;;;;;;;1.0679036;0.12152471;-0.19153416;;;;;782.3
1024.0;882.4;;;;;;;;;;;;;;;;;45.796837;-18.604847;28.592028;;782.3
1024.0;882.4;;;;;;;;;;;;;;1.0412306;0.120303966;-0.1594287;;;;;782.3
1024.0;882.4;;;;;;;;;;;;;;;;;42.88995;-18.108921;28.935362;;791.9
1024.0;882.4;;;;;;;;;;;;;;1.0191351;0.14044619;-0.13556322;;;;;791.9
1024.0;882.4;;;;;;;;;;;;;;;;;41.96295;-18.726921;29.438917;;791.9
1024.0;882.4;;;;;;;;;;;;;;1.0046693;0.17035432;-0.12567522;;;;;791.9
1024.0;882.4;;;;;;;;;;;;;;;;;40.746025;-20.760216;29.835659;;801.6
1024.0;882.4;;;;;;;;;;;;;;0.98513746;0.20825832;-0.1539964;;;;;801.6
1024.0;882.4;;;;;;;;;;;;;;;;;36.877804;-21.702477;30.404064;;801.6
1024.0;882.4;;;;;;;;;;;;;;0.96047854;0.24439223;-0.19183935;;;;;801.6
1024.0;889.8;;;;;;;;;;;;;;;;;29.98062;-19.657734;31.567585;;811.2
1024.0;889.8;;;;;;;;;;;;;;0.94351023;0.2624592;-0.18744469;;;;;811.2
1024.0;889.8;;;;;;;;;;;;;;;;;23.266548;-19.07407;34.00525;;811.2
1024.0;889.8;;;;;;;;;;;;;;0.9191565;0.22565386;-0.17993714;;;;;811.2
1024.0;889.8;;;;;;;;;;;;;;;;;17.571032;-21.664328;34.905544;;820.8
1024.0;889.8;;;;;;;;;;;;;;0.91305274;0.23139134;-0.19507432;;;;;820.8
1024.0;889.8;;;;;;;;;;;;;;;;;11.642812;-23.113956;35.42436;;820.8
1024.0;889.8;;;;;;;;;;;;;;0.92172;0.23645741;-0.21814631;;;;;820.8
1024.0;889.8;;;;;;;;;;;;;;;;;5.794702;-21.450697;35.51973;;830.5
1024.0;889.8;;;;;;;;;;;;;;0.9339274;0.26911223;-0.22675252;;;;;830.5
1024.0;889.8;;;;;;;;;;;;;;;;;-0.17166662;-19.142736;36.01947;;830.5
1024.0;889.8;;;;;;;;;;;;;;0.92391735;0.26007873;-0.23407696;;;;;830.5
1087.0;943.6;;;;;;;;;;;;;;;;;-5.3750725;-17.662586;37.053288;;840.1
1087.0;943.6;;;;;;;;;;;;;;0.92159796;0.24219489;-0.22186956;;;;;840.1
1087.0;943.6;;;;;;;;;;;;;;;;;-10.708182;-17.494736;37.011322;;840.1
1087.0;943.6;;;;;;;;;;;;;;0.92263556;0.23633534;-0.21112704;;;;;840.1
1087.0;943.6;;;;;;;;;;;;;;;;;-13.733329;-18.395031;38.56777;;849.6
1087.0;943.6;;;;;;;;;;;;;;0.92519915;0.13379315;-0.23963134;;;;;849.6
1087.0;943.6;;;;;;;;;;;;;;;;;-16.136662;-17.208624;38.285473;;849.6
1087.0;943.6;;;;;;;;;;;;;;0.9446089;0.16254158;-0.23932615;;;;;849.6
1087.0;943.6;;;;;;;;;;;;;;;;;-20.432142;-15.064699;38.11762;;859.2
1087.0;943.6;;;;;;;;;;;;;;0.92996;0.13556322;-0.2553789;;;;;859.2
1087.0;943.6;;;;;;;;;;;;;;;;;-22.797327;-13.756218;38.36558;;859.2
1087.0;943.6;;;;;;;;;;;;;;0.9375286;0.11017182;-0.25861385;;;;;859.2
1087.0;944.4;;;;;;;;;;;;;;;;;-25.219732;-12.985626;37.892544;;868.8
1087.0;944.4;;;;;;;;;;;;;;0.93740654;0.08117924;-0.24866481;;;;;868.8
1087.0;944.4;;;;;;;;;;;;;;;;;-23.995178;-14.374218;38.55251;;868.8
1087.0;944.4;;;;;;;;;;;;;;0.9446089;-0.0047608875;-0.26953948;;;;;868.8
1087.0;944.4;;;;;;;;;;;;;;;;;-22.072514;-13.599812;37.812435;;878.4
1087.0;944.4;;;;;;;;;;;;;;0.95742667;-0.066286206;-0.28388318;;;;;878.4
1087.0;944.4;;;;;;;;;;;;;;;;;-19.882809;-10.597552;36.44673;;878.4
1087.0;944.4;;;;;;;;;;;;;;0.94985807;-0.0839259;-0.24341564;;;;;878.4
1087.0;944.4;;;;;;;;;;;;;;;;;-16.41133;-11.402478;34.9971;;888.0
1087.0;944.4;;;;;;;;;;;;;;0.94351023;-0.0883816;-0.21808527;;;;;888.0
1087.0;944.4;;;;;;;;;;;;;;;;;-12.367626;-13.828699;32.940918;;888.0
1087.0;944.4;;;;;;;;;;;;;;0.95419174;-0.060670797;-0.22791223;;;;;888.0
1146.0;1003.5;;;;;;;;;;;;;;;;;-8.369701;-14.2407;31.384472;;897.7
1146.0;1003.5;;;;;;;;;;;;;;0.9507126;-0.054383986;-0.23273416;;;;;897.7
1146.0;1003.5;;;;;;;;;;;;;;;;;-3.543962;-15.072329;30.072176;;897.7
1146.0;1003.5;;;;;;;;;;;;;;0.9544359;-0.0463271;-0.23035371;;;;;897.7
1146.0;1003.5;;;;;;;;;;;;;;;;;0.7858516;-16.933958;28.294474;;907.2
1146.0;1003.5;;;;;;;;;;;;;;0.9519333;-0.036194954;-0.24683371;;;;;907.2
1146.0;1003.5;;;;;;;;;;;;;;;;;5.4589987;-18.055513;26.932585;;907.2
1146.0;1003.5;;;;;;;;;;;;;;0.9462569;-0.048585467;-0.255562;;;;;907.2
1146.0;1003.5;;;;;;;;;;;;;;;;;8.373516;-18.032623;25.048065;;916.8
1146.0;1003.5;;;;;;;;;;;;;;0.94351023;0.0012207404;-0.22528763;;;;;916.8
1146.0;1003.5;;;;;;;;;;;;;;;;;9.899441;-18.784143;23.957031;;916.8
1146.0;1003.5;;;;;;;;;;;;;;0.92245245;-0.029602954;-0.21497238;;;;;916.8
1146.0;1004.3;;;;;;;;;;;;;;;;;12.18833;-20.115513;22.476881;;926.5
1146.0;1004.3;;;;;;;;;;;;;;0.93581957;-0.02356029;-0.19428083;;;;;926.5
1146.0;1004.3;;;;;;;;;;;;;;;;;13.8859215;-19.920956;21.07303;;926.5
1146.0;1004.3;;;;;;;;;;;;;;0.9320963;-0.04034547;-0.18567461;;;;;926.5
1146.0;1004.3;;;;;;;;;;;;;;;;;16.708885;-19.917141;19.108402;;936.2
1146.0;1004.3;;;;;;;;;;;;;;0.9306314;-0.028382214;-0.16980499;;;;;936.2
1146.0;1004.3;;;;;;;;;;;;;;;;;19.05118;-21.21418;17.231512;;936.2
1146.0;1004.3;;;;;;;;;;;;;;0.9288614;-0.018738365;-0.16595966;;;;;936.2
1146.0;1004.3;;;;;;;;;;;;;;;;;21.378216;-21.588032;15.957365;;945.7
1146.0;1004.3;;;;;;;;;;;;;;0.93313396;-0.016235847;-0.15875728;;;;;945.7
1146.0;1004.3;;;;;;;;;;;;;;;;;23.567919;-21.732994;14.6641445;;945.7
1146.0;1004.3;;;;;;;;;;;;;;0.9363689;-0.012329478;-0.15369122;;;;;945.7
1202.0;1063.4;;;;;;;;;;;;;;;;;25.30366;-22.408215;13.32133;;955.4
1202.0;1063.4;;;;;;;;;;;;;;0.9419843;-0.0056764428;-0.15320292;;;;;955.4
1202.0;1063.4;;;;;;;;;;;;;;;;;25.841547;-23.274178;12.043367;;955.4
1202.0;1063.4;;;;;;;;;;;;;;0.9477828;0.0081789605;-0.16675314;;;;;955.4
1202.0;1063.4;;;;;;;;;;;;;;;;;25.975067;-23.636585;11.104922;;964.9
1202.0;1063.4;;;;;;;;;;;;;;0.95870847;0.019165624;-0.18677329;;;;;964.9
1202.0;1063.4;;;;;;;;;;;;;;;;;26.028473;-23.21314;10.639516;;964.9
1202.0;1063.4;;;;;;;;;;;;;;0.966155;0.024414808;-0.20746483;;;;;964.9
1202.0;1063.4;;;;;;;;;;;;;;;;;26.078066;-20.878475;10.422071;;974.4
1202.0;1063.4;;;;;;;;;;;;;;0.972808;0.031250954;-0.20892972;;;;;974.4
1202.0;1063.4;;;;;;;;;;;;;;;;;25.986511;-17.178104;10.448774;;974.4
1202.0;1063.4;;;;;;;;;;;;;;0.9706717;0.026367992;-0.1894589;;;;;974.4
1202.0;1064.2;;;;;;;;;;;;;;;;;26.03229;-14.606922;9.887997;;984.1
1202.0;1064.2;;;;;;;;;;;;;;0.9655446;0.028382214;-0.17828913;;;;;984.1
1202.0;1064.2;;;;;;;;;;;;;;;;;27.287363;-14.217811;9.254738;;984.1
1202.0;1064.2;;;;;;;;;;;;;;0.96267587;0.037965026;-0.17981505;;;;;984.1
1202.0;1064.2;;;;;;;;;;;;;;;;;28.801844;-14.419996;9.033479;;993.7
1202.0;1064.2;;;;;;;;;;;;;;0.9622486;0.040284432;-0.19824824;;;;;993.7
1202.0;1064.2;;;;;;;;;;;;;;;;;29.721214;-13.19544;8.953367;;993.7
1202.0;1064.2;;;;;;;;;;;;;;0.956267;0.047853023;-0.20679343;;;;;993.7
1202.0;1064.2;;;;;;;;;;;;;;;;;29.80514;-11.406293;8.720664;;1003.4
1202.0;1064.2;;;;;;;;;;;;;;0.95223856;0.0629902;-0.20014039;;;;;1003.4
1202.0;1064.2;;;;;;;;;;;;;;;;;29.423658;-9.899441;8.552812;;1003.4
1202.0;1064.2;;;;;;;;;;;;;;0.95199436;0.08050783;-0.19513535;;;;;1003.4
1205.0;1124.3;;;;;;;;;;;;;;;;;28.584398;-8.316295;8.308664;;1013.0
1205.0;1124.3;;;;;;;;;;;;;;0.95162815;0.097170934;-0.19403668;;;;;1013.0
1205.0;1124.3;;;;;;;;;;;;;;;;;27.550583;-7.3587756;8.167517;;1013.0
1205.0;1124.3;;;;;;;;;;;;;;0.9467452;0.1159093;-0.19611195;;;;;1013.0
1205.0;1124.3;;;;;;;;;;;;;;;;;26.455732;-6.55385;8.20185;;1022.7
1205.0;1124.3;;;;;;;;;;;;;;0.9465621;0.13605152;-0.1981872;;;;;1022.7
1205.0;1124.3;;;;;;;;;;;;;;;;;24.468216;-5.348369;8.40785;;1022.7
1205.0;1124.3;;;;;;;;;;;;;;0.9531541;0.14734337;-0.19708854;;;;;1022.7
1205.0;1124.3;;;;;;;;;;;;;;;;;21.687216;-3.4676657;8.58333;;1032.4
1205.0;1124.3;;;;;;;;;;;;;;0.94985807;0.1530198;-0.1820124;;;;;1032.4
1205.0;1124.3;;;;;;;;;;;;;;;;;18.375957;-2.1973326;8.69396;;1032.4
1205.0;1124.3;;;;;;;;;;;;;;0.9446089;0.16241951;-0.16425061;;;;;1032.4
1209.0;1125.1;;;;;;;;;;;;;;;;;15.575884;-2.8611102;9.00296;;1042.0
1209.0;1125.1;;;;;;;;;;;;;;0.9386273;0.16846217;-0.1666921;;;;;1042.0
1209.0;1125.1;;;;;;;;;;;;;;;;;13.695181;-5.5734425;9.144109;;1042.0
1209.0;1125.1;;;;;;;;;;;;;;0.93581957;0.18134098;-0.20917386;;;;;1042.0
1209.0;1125.1;;;;;;;;;;;;;;;;;12.184515;-5.8175907;9.571368;;1051.7
1209.0;1125.1;;;;;;;;;;;;;;0.9416181;0.18695639;-0.2367626;;;;;1051.7
1209.0;1125.1;;;;;;;;;;;;;;;;;11.299478;-3.6355176;9.910886;;1051.7
1209.0;1125.1;;;;;;;;;;;;;;0.92538226;0.1920835;-0.2163152;;;;;1051.7
1209.0;1125.1;;;;;;;;;;;;;;;;;10.059664;-3.5706656;9.968108;;1061.3
1209.0;1125.1;;;;;;;;;;;;;;0.90932953;0.1937315;-0.19336528;;;;;1061.3
1209.0;1125.1;;;;;;;;;;;;;;;;;8.880886;-5.9244056;9.73922;;1061.3
1209.0;1125.1;;;;;;;;;;;;;;0.89370406;0.18921477;-0.19586779;;;;;1061.3
1209.0;1129.0;;;;0.0;0.0;0.0;;;;;;;;;;;;;;;
1209.0;1129.0;;;;-0.16609193;0.033531193;-0.026229862;;;;;;;;;;;;;;;
1209.0;1129.0;;;;-0.7959329;0.09001923;-0.31092075;;;;;;;;;;;;;;;
1209.0;1129.0;;;;-0.88217556;0.094074264;-0.36187366;;;;;;;;;;;;;;;
1209.0;1129.0;;;;-0.8834344;0.09424974;-0.36125186;;;;;;;;;;;;;;;
1209.0;1139.0;;;;-0.88339245;0.09428407;-0.36081317;;;;;;;;;;;;;;;
1209.0;1139.0;;;;-0.88217175;0.09395982;-0.3601227;;;;;;;;;;;;;;;
1209.0;1139.0;;;;-0.8810464;0.09408952;-0.36103824;;;;;;;;;;;;;;;
1209.0;1139.0;;;;-0.8788034;0.09384538;-0.36109164;;;;;;;;;;;;;;;
1209.0;1139.0;;;;-0.8772775;0.093593605;-0.36154178;;;;;;;;;;;;;;;
1265.0;1140.3;57491;57439;11796;;;;;;;;;;;;;;;;;;
1265.0;1149.0;;;;-0.87586224;0.09353257;-0.36162952;;;;;;;;;;;;;;;
1265.0;1149.0;;;;-0.87441266;0.093341835;-0.36082843;;;;;;;;;;;;;;;
1265.0;1149.0;;;;-0.87402356;0.09333039;-0.35972598;;;;;;;;;;;;;;;
1265.0;1149.0;;;;-0.87464535;0.09343339;-0.35974506;;;;;;;;;;;;;;;
1265.0;1149.0;;;;-0.8760148;0.093666084;-0.35984805;;;;;;;;;;;;;;;
1265.0;1159.1;;;;-0.8776666;0.09439851;-0.35966113;;;;;;;;;;;;;;;
1265.0;1159.1;;;;-0.88071454;0.09488298;-0.3597603;;;;;;;;;;;;;;;
1265.0;1159.1;;;;-0.8834573;0.09534837;-0.36026767;;;;;;;;;;;;;;;
1265.0;1159.1;;;;-0.8861009;0.095829025;-0.35982516;;;;;;;;;;;;;;;
1265.0;1159.1;;;;-0.8886758;0.09586336;-0.35966113;;;;;;;;;;;;;;;
1265.0;1160.4;73855;73812;11795;;;;;;;;;;;;;;;;;;
1265.0;1166.8;;;;;;;;;;;;;0;;;;;;;;
1265.0;1166.8;;;;;;;;;;;;;0;;;;;;;;
1265.0;1166.8;;;;;;;;;;;;;-1;;;;;;;;
1265.0;1166.8;;;;;;;;;;;;;-3;;;;;;;;
1265.0;1166.8;;;;;;;;;;;;;-4;;;;;;;;
1265.0;1169.2;;;;-0.88982785;0.095821396;-0.35909656;;;;;;;;;;;;;;;
1265.0;1169.2;;;;-0.8894731;0.09593584;-0.3585358;;;;;;;;;;;;;;;
1265.0;1169.2;;;;-0.8892404;0.09629442;-0.3579941;;;;;;;;;;;;;;;
1265.0;1169.2;;;;-0.88817227;0.09637834;-0.35795215;;;;;;;;;;;;;;;
1265.0;1169.2;;;;-0.8873025;0.0968094;-0.35713962;;;;;;;;;;;;;;;
1268.0;1179.3;;;;-0.8865968;0.09695436;-0.35702518;;;;;;;;;;;;;;;
1268.0;1179.3;;;;-0.88676846;0.09724809;-0.356926;;;;;;;;;;;;;;;
1268.0;1179.3;;;;-0.88775265;0.09748842;-0.35699084;;;;;;;;;;;;;;;
1268.0;1179.3;;;;-0.88923657;0.097965255;-0.35693362;;;;;;;;;;;;;;;
1268.0;1179.3;;;;-0.89136136;0.09817888;-0.35752872;;;;;;;;;;;;;;;
1268.0;1180.7;90211;90167;11802;;;;;;;;;;;;;;;;;;
1268.0;1184.2;;;;;;;;;;;;;;;;;6.782739;-8.659627;9.254738;;1071.0
1268.0;1184.2;;;;;;;;;;;;;;0.89260536;0.20496231;-0.21716972;;;;;1071.0
1268.0;1184.2;;;;;;;;;;;;;;;;;3.3150733;-9.769737;10.414441;;1071.0
1268.0;1184.2;;;;;;;;;;;;;;0.89095736;0.20410779;-0.2327952;;;;;1071.0
1268.0;1184.2;;;;;;;;;;;;;;;;;-0.33951843;-9.853663;11.410108;;1080.6
1268.0;1184.2;;;;;;;;;;;;;;0.89291054;0.19727165;-0.22974335;;;;;1080.6
1268.0;1184.2;;;;;;;;;;;;;;;;;-3.765221;-10.66622;11.486403;;1080.6
1268.0;1184.2;;;;;;;;;;;;;;0.9097568;0.19672231;-0.23053682;;;;;1080.6
1268.0;1184.2;;;;;;;;;;;;;;;;;-7.1985536;-10.109256;11.707664;;1090.2
1268.0;1184.2;;;;;;;;;;;;;;0.9292276;0.19055757;-0.22363964;;;;;1090.2
1268.0;1184.2;;;;;;;;;;;;;;;;;-11.001924;-8.651998;11.669515;;1090.2
1268.0;1184.2;;;;;;;;;;;;;;0.94119084;0.18243966;-0.21112704;;;;;1090.2
1272.0;1185.0;;;;;;;;;;;;;;;;;-14.679403;-8.865627;11.749626;;1099.7
1272.0;1185.0;;;;;;;;;;;;;;0.95162815;0.17590868;-0.21607105;;;;;1099.7
1272.0;1185.0;;;;;;;;;;;;;;;;;-17.567217;-9.723961;11.818293;;1099.7
1272.0;1185.0;;;;;;;;;;;;;;0.9722587;0.16626485;-0.23700674;;;;;1099.7
1272.0;1185.0;;;;;;;;;;;;;;;;;-19.234291;-8.636738;11.791589;;1109.4
1272.0;1185.0;;;;;;;;;;;;;;0.98586994;0.15741447;-0.24634542;;;;;1109.4
1272.0;1185.0;;;;;;;;;;;;;;;;;-20.371105;-6.9544053;11.391033;;1109.4
1272.0;1185.0;;;;;;;;;;;;;;0.9913633;0.14661092;-0.2461623;;;;;1109.4
1272.0;1185.0;;;;;;;;;;;;;;;;;-21.526995;-4.737999;11.074404;;1119.1
1272.0;1185.0;;;;;;;;;;;;;;0.99899286;0.13019197;-0.23249;;;;;1119.1
1272.0;1185.0;;;;;;;;;;;;;;;;;-22.057253;-2.357555;11.024812;;1119.1
1272.0;1185.0;;;;;;;;;;;;;;0.99612415;0.104739524;-0.20618305;;;;;1119.1
1272.0;1189.2;;;;-0.8932229;0.09806444;-0.35757068;;;;;;;;;;;;;;;
1272.0;1189.2;;;;-0.894745;0.09777452;-0.35702136;;;;;;;;;;;;;;;
1272.0;1189.2;;;;-0.89654934;0.09735872;-0.3569527;;;;;;;;;;;;;;;
1272.0;1189.2;;;;-0.8971101;0.09727861;-0.35694507;;;;;;;;;;;;;;;
1272.0;1189.2;;;;-0.8977891;0.096843734;-0.35712817;;;;;;;;;;;;;;;
1272.0;1199.2;;;;-0.8980943;0.09675981;-0.35728076;;;;;;;;;;;;;;;
1272.0;1199.2;;;;-0.89828503;0.096958175;-0.35776904;;;;;;;;;;;;;;;
1272.0;1199.2;;;;-0.8984796;0.09660341;-0.3580933;;;;;;;;;;;;;;;
1272.0;1199.2;;;;-0.8990861;0.09642412;-0.35826495;;;;;;;;;;;;;;;
1272.0;1199.2;;;;-0.8999177;0.096324936;-0.35863498;;;;;;;;;;;;;;;
1272.0;1200.6;106612;106700;11800;;;;;;;;;;;;;;;;;;
1321.0;1206.9;;;;;;;;;;;;;8;;;;;;;;
1321.0;1206.9;;;;;;;;;;;;;-26;;;;;;;;
1321.0;1206.9;;;;;;;;;;;;;-32;;;;;;;;
1321.0;1206.9;;;;;;;;;;;;;64;;;;;;;;
1321.0;1206.9;;;;;;;;;;;;;-38;;;;;;;;
1321.0;1209.2;;;;-0.9004251;0.09572221;-0.35880283;;;;;;;;;;;;;;;
1321.0;1209.2;;;;-0.90049374;0.09561159;-0.35872653;;;;;;;;;;;;;;;
1321.0;1209.2;;;;-0.90089047;0.09498979;-0.3596497;;;;;;;;;;;;;;;
1321.0;1209.2;;;;-0.90124905;0.09405519;-0.36000827;;;;;;;;;;;;;;;
1321.0;1209.2;;;;-0.9010545;0.09355927;-0.36045077;;;;;;;;;;;;;;;
1321.0;1219.2;;;;-0.90117276;0.09288407;-0.36217883;;;;;;;;;;;;;;;
1321.0;1219.2;;;;-0.9015924;0.09210969;-0.363205;;;;;;;;;;;;;;;
1321.0;1219.2;;;;-0.9023057;0.09189225;-0.36390308;;;;;;;;;;;;;;;
1321.0;1219.2;;;;-0.9028131;0.09140397;-0.3656197;;;;;;;;;;;;;;;
1321.0;1219.2;;;;-0.90273297;0.090499885;-0.36674884;;;;;;;;;;;;;;;
1321.0;1220.7;123036;123096;11797;;;;;;;;;;;;;;;;;;
1321.0;1229.3;;;;-0.9018251;0.090370186;-0.36833194;;;;;;;;;;;;;;;
1321.0;1229.3;;;;-0.9011041;0.08988572;-0.36927417;;;;;;;;;;;;;;;
1321.0;1229.3;;;;-0.9004785;0.088924415;-0.36957172;;;;;;;;;;;;;;;
1321.0;1229.3;;;;-0.9001161;0.08812714;-0.37049487;;;;;;;;;;;;;;;
1321.0;1229.3;;;;-0.90080655;0.087276466;-0.37139896;;;;;;;;;;;;;;;
1323.0;1239.5;;;;-0.90078366;0.08636094;-0.3709679;;;;;;;;;;;;;;;
1323.0;1239.5;;;;-0.9008447;0.0853386;-0.3710213;;;;;;;;;;;;;;;
1323.0;1239.5;;;;-0.90117276;0.08367539;-0.37180713;;;;;;;;;;;;;;;
1323.0;1239.5;;;;-0.90062344;0.08216477;-0.37277225;;;;;;;;;;;;;;;
1323.0;1239.5;;;;-0.90041745;0.08090211;-0.3729172;;;;;;;;;;;;;;;
1323.0;1240.9;139400;139371;11793;;;;;;;;;;;;;;;;;;
1323.0;1244.6;;;;;;;;;;;;;;;;;-22.576067;-0.7438887;10.76159;;1128.7
1323.0;1244.6;;;;;;;;;;;;;;0.98727375;0.07708976;-0.17944884;;;;;1128.7
1323.0;1244.6;;;;;;;;;;;;;;;;;-21.649069;-1.1978515;10.563219;;1128.7
1323.0;1244.6;;;;;;;;;;;;;;0.97524947;0.05365154;-0.16827907;;;;;1128.7
1323.0;1244.6;;;;;;;;;;;;;;;;;-19.554733;-3.173925;10.265663;;1138.4
1323.0;1244.6;;;;;;;;;;;;;;0.9651784;0.03991821;-0.1894589;;;;;1138.4
1323.0;1244.6;;;;;;;;;;;;;;;;;-16.277811;-4.078036;10.025331;;1138.4
1323.0;1244.6;;;;;;;;;;;;;;0.9584033;0.03216651;-0.21454512;;;;;1138.4
1323.0;1244.6;;;;;;;;;;;;;;;;;-12.855922;-3.318888;9.92233;;1147.9
1323.0;1244.6;;;;;;;;;;;;;;0.9406415;0.028138066;-0.21216469;;;;;1147.9
1323.0;1244.6;;;;;;;;;;;;;;;;;-9.968108;-3.6774805;9.533219;;1147.9
1323.0;1244.6;;;;;;;;;;;;;;0.9223304;0.032227546;-0.21076083;;;;;1147.9
1324.0;1245.8;;;;;;;;;;;;;;;;;-7.1642203;-5.1461835;9.399701;;1157.6
1324.0;1245.8;;;;;;;;;;;;;;0.9073153;0.037781917;-0.2120426;;;;;1157.6
1324.0;1245.8;;;;;;;;;;;;;;;;;-5.4017763;-6.6682944;9.273812;;1157.6
1324.0;1245.8;;;;;;;;;;;;;;0.9006012;0.037110507;-0.21753594;;;;;1157.6
1324.0;1245.8;;;;;;;;;;;;;;;;;-4.276406;-8.251442;9.147923;;1167.3
1324.0;1245.8;;;;;;;;;;;;;;0.8894314;0.042847987;-0.22528763;;;;;1167.3
1324.0;1245.8;;;;;;;;;;;;;;;;;-3.6431472;-10.44496;8.896146;;1167.3
1324.0;1245.8;;;;;;;;;;;;;;0.887051;0.051087987;-0.23523667;;;;;1167.3
1324.0;1245.8;;;;;;;;;;;;;;;;;-3.5744805;-11.589404;8.800775;;1176.9
1324.0;1245.8;;;;;;;;;;;;;;0.89565724;0.054628134;-0.24274422;;;;;1176.9
1324.0;1245.8;;;;;;;;;;;;;;;;;-3.6545916;-10.654775;8.4421835;;1176.9
1324.0;1245.8;;;;;;;;;;;;;;0.89748836;0.05597095;-0.23871578;;;;;1176.9
1324.0;1247.2;;;;;;;;;;;;;161;;;;;;;;
1324.0;1247.2;;;;;;;;;;;;;69;;;;;;;;
1324.0;1247.2;;;;;;;;;;;;;-162;;;;;;;;
1324.0;1247.2;;;;;;;;;;;;;978;;;;;;;;
1324.0;1247.2;;;;;;;;;;;;;-559;;;;;;;;
1324.0;1249.4;;;;-0.8992158;0.07923127;-0.37373355;;;;;;;;;;;;;;;
1324.0;1249.4;;;;-0.89904034;0.07709504;-0.3730698;;;;;;;;;;;;;;;
1324.0;1249.4;;;;-0.89904034;0.0752678;-0.37257388;;;;;;;;;;;;;;;
1324.0;1249.4;;;;-0.89891064;0.0735283;-0.37173846;;;;;;;;;;;;;;;
1324.0;1249.4;;;;-0.89922345;0.072292335;-0.36977008;;;;;;;;;;;;;;;
1383.0;1259.4;;;;-0.89989483;0.07132722;-0.3683205;;;;;;;;;;;;;;;
1383.0;1259.4;;;;-0.90047085;0.070350654;-0.36633685;;;;;;;;;;;;;;;
1383.0;1259.4;;;;-0.90119565;0.06985093;-0.36465457;;;;;;;;;;;;;;;
1383.0;1259.4;;;;-0.9014474;0.06931306;-0.36293414;;;;;;;;;;;;;;;
1383.0;1259.4;;;;-0.90184414;0.06872178;-0.36008838;;;;;;;;;;;;;;;
1383.0;1260.9;155764;155824;11793;;;;;;;;;;;;;;;;;;
1383.0;1269.2;;;;-0.90215313;0.06883622;-0.35764316;;;;;;;;;;;;;;;
1383.0;1269.2;;;;-0.9018289;0.06863404;-0.35466388;;;;;;;;;;;;;;;
1383.0;1269.2;;;;-0.90132916;0.06784058;-0.35165408;;;;;;;;;;;;;;;
1383.0;1269.2;;;;-0.9011651;0.067371376;-0.34975818;;;;;;;;;;;;;;;
1383.0;1269.2;;;;-0.90044034;0.0661583;-0.34673312;;;;;;;;;;;;;;;
1383.0;1279.3;;;;-0.9004251;0.06511689;-0.34354785;;;;;;;;;;;;;;;
1383.0;1279.3;;;;-0.9012605;0.064350136;-0.3401375;;;;;;;;;;;;;;;
1383.0;1279.3;;;;-0.9021226;0.06333161;-0.3367882;;;;;;;;;;;;;;;
1383.0;1279.3;;;;-0.9035493;0.061855324;-0.3329201;;;;;;;;;;;;;;;
1383.0;1279.3;;;;-0.904503;0.060825355;-0.32942203;;;;;;;;;;;;;;;
1383.0;1280.8;172174;172150;11803;;;;;;;;;;;;;;;;;;
1383.0;1287.2;;;;;;;;;;;;;-3043;;;;;;;;
1383.0;1287.2;;;;;;;;;;;;;1628;;;;;;;;
1383.0;1287.2;;;;;;;;;;;;;6403;;;;;;;;
1383.0;1287.2;;;;;;;;;;;;;-5059;;;;;;;;
1383.0;1287.2;;;;;;;;;;;;;-34888;;;;;;;;
1385.0;1289.4;;;;-0.9048768;0.060394295;-0.32566455;;;;;;;;;;;;;;;
1385.0;1289.4;;;;-0.9050256;0.06011582;-0.3216286;;;;;;;;;;;;;;;
1385.0;1289.4;;;;-0.90473187;0.05954743;-0.31769946;;;;;;;;;;;;;;;
1385.0;1289.4;;;;-0.9042779;0.058837898;-0.3144417;;;;;;;;;;;;;;;
1385.0;1289.4;;;;-0.9045831;0.05828858;-0.31089404;;;;;;;;;;;;;;;
1385.0;1299.5;;;;-0.90464795;0.058128364;-0.30759433;;;;;;;;;;;;;;;
1385.0;1299.5;;;;-0.9041101;0.05729676;-0.3048096;;;;;;;;;;;;;;;
1385.0;1299.5;;;;-0.9032289;0.056488045;-0.30253223;;;;;;;;;;;;;;;
1385.0;1299.5;;;;-0.9017869;0.05505372;-0.29888538;;;;;;;;;;;;;;;
1385.0;1299.5;;;;-0.89971936;0.05396653;-0.29563907;;;;;;;;;;;;;;;
1385.0;1301.1;188474;188513;11781;;;;;;;;;;;;;;;;;;
1385.0;1304.7;;;;;;;;;;;;;;;;;-4.1314435;-10.3228855;7.648701;;1186.6
1385.0;1304.7;;;;;;;;;;;;;;0.8879666;0.06616413;-0.2369457;;;;;1186.6
1385.0;1304.7;;;;;;;;;;;;;;;;;-4.8829613;-10.994293;6.7369614;;1186.6
1385.0;1304.7;;;;;;;;;;;;;;0.88375497;0.07928709;-0.24036378;;;;;1186.6
1385.0;1304.7;;;;;;;;;;;;;;;;;-5.9511094;-11.684774;6.065554;;1196.3
1385.0;1304.7;;;;;;;;;;;;;;0.8773461;0.08777124;-0.25025177;;;;;1196.3
1385.0;1304.7;;;;;;;;;;;;;;;;;-6.3554797;-11.444441;5.058443;;1196.3
1385.0;1304.7;;;;;;;;;;;;;;0.87478256;0.10614338;-0.24897;;;;;1196.3
1385.0;1304.7;;;;;;;;;;;;;;;;;-6.7026277;-10.406812;4.234443;;1205.8
1385.0;1304.7;;;;;;;;;;;;;;0.8766137;0.118655965;-0.24066897;;;;;1205.8
1385.0;1304.7;;;;;;;;;;;;;;;;;-7.2443314;-8.945738;3.5935545;;1205.8
1385.0;1304.7;;;;;;;;;;;;;;0.8888821;0.12585834;-0.22516556;;;;;1205.8
1386.0;1305.4;;;;;;;;;;;;;;;;;-8.766441;-7.0764794;3.1968138;;1215.4
1386.0;1305.4;;;;;;;;;;;;;;0.90713215;0.121890925;-0.20532854;;;;;1215.4
1386.0;1305.4;;;;;;;;;;;;;;;;;-10.219886;-5.203406;2.2850735;;1215.4
1386.0;1305.4;;;;;;;;;;;;;;0.91885126;0.11883908;-0.19006927;;;;;1215.4
1386.0;1305.4;;;;;;;;;;;;;;;;;-10.54796;-5.779443;0.9956664;;1225.1
1386.0;1305.4;;;;;;;;;;;;;;0.92568743;0.12787256;-0.19483016;;;;;1225.1
1386.0;1305.4;;;;;;;;;;;;;;;;;-10.967589;-6.8895535;0.32807398;;1225.1
1386.0;1305.4;;;;;;;;;;;;;;0.9465011;0.12952055;-0.21393475;;;;;1225.1
1386.0;1305.4;;;;;;;;;;;;;;;;;-13.523515;-2.338481;-0.3318888;;1234.8
1386.0;1305.4;;;;;;;;;;;;;;0.9655446;0.12164678;-0.1939146;;;;;1234.8
1386.0;1305.4;;;;;;;;;;;;;;;;;-16.243477;3.5782952;-1.781518;;1234.8
1386.0;1305.4;;;;;;;;;;;;;;0.95638907;0.11896115;-0.14758751;;;;;1234.8
1386.0;1309.4;;;;-0.8979379;0.05295182;-0.29306415;;;;;;;;;;;;;;;
1386.0;1309.4;;;;-0.89702237;0.05236817;-0.29057315;;;;;;;;;;;;;;;
1386.0;1309.4;;;;-0.8959085;0.05097962;-0.28881076;;;;;;;;;;;;;;;
1386.0;1309.4;;;;-0.89431393;0.050495155;-0.28667834;;;;;;;;;;;;;;;
1386.0;1309.4;;;;-0.8936349;0.04909516;-0.2856026;;;;;;;;;;;;;;;
1391.0;1319.8;;;;;;;;;;;;;;;;;-15.766624;4.482406;-2.967925;;1244.4
1391.0;1319.8;;;;;;;;;;;;;;0.9518723;0.11267434;-0.13592944;;;;;1244.4
1391.0;1319.8;;;;;;;;;;;;;;;;;-12.283701;3.3494065;-3.7423322;;1244.4
1391.0;1319.8;;;;;;;;;;;;;;0.9613941;0.0999176;-0.164861;;;;;1244.4
1391.0;1319.8;;;;;;;;;;;;;;;;;-9.506516;3.9864802;-4.5587025;;1254.0
1391.0;1319.8;;;;;;;;;;;;;;0.93276775;0.09161656;-0.20410779;;;;;1254.0
1391.0;1319.8;;;;;;;;;;;;;;;;;-8.419294;5.4399247;-4.955443;;1254.0
1391.0;1319.8;;;;;;;;;;;;;;0.9110385;0.07904294;-0.2141789;;;;;1254.0
1391.0;1319.8;;;;;;;;;;;;;;;;;-7.26722;6.740776;-4.932554;;1263.6
1391.0;1319.8;;;;;;;;;;;;;;0.90066224;0.05652028;-0.1793878;;;;;1263.6
1391.0;1319.8;;;;;;;;;;;;;;;;;-6.0121465;6.2715535;-5.1614428;;1263.6
1391.0;1319.8;;;;;;;;;;;;;;0.88845485;0.04443495;-0.14850307;;;;;1263.6
1391.0;1319.4;;;;-0.89273465;0.0482483;-0.2850838;;;;;;;;;;;;;;;
1391.0;1319.4;;;;-0.891369;0.04730607;-0.28402713;;;;;;;;;;;;;;;
1391.0;1319.4;;;;-0.8901979;0.046379093;-0.28342822;;;;;;;;;;;;;;;
1391.0;1319.4;;;;-0.88858426;0.04571915;-0.28358462;;;;;;;;;;;;;;;
1391.0;1319.4;;;;-0.88715756;0.044643406;-0.28304294;;;;;;;;;;;;;;;
1391.0;1321.0;204943;204908;11780;;;;;;;;;;;;;;;;;;
1391.0;1327.3;;;;;;;;;;;;;-63596;;;;;;;;
1391.0;1327.3;;;;;;;;;;;;;-72026;;;;;;;;
1391.0;1327.3;;;;;;;;;;;;;-63613;;;;;;;;
1391.0;1327.3;;;;;;;;;;;;;-55626;;;;;;;;
1391.0;1327.3;;;;;;;;;;;;;-55613;;;;;;;;
1442.0;1329.4;;;;-0.8858377;0.044292454;-0.2828751;;;;;;;;;;;;;;;
1442.0;1329.4;;;;-0.8842851;0.043888096;-0.2824593;;;;;;;;;;;;;;;
1442.0;1329.4;;;;-0.8830682;0.043262485;-0.28328708;;;;;;;;;;;;;;;
1442.0;1329.4;;;;-0.88229;0.04220963;-0.2836037;;;;;;;;;;;;;;;
1442.0;1329.4;;;;-0.88238156;0.04150391;-0.28418353;;;;;;;;;;;;;;;
1442.0;1339.3;;;;-0.88278973;0.040550236;-0.28509906;;;;;;;;;;;;;;;
1442.0;1339.3;;;;-0.8837434;0.040161137;-0.28561023;;;;;;;;;;;;;;;
1442.0;1339.3;;;;-0.8852502;0.039493565;-0.2863846;;;;;;;;;;;;;;;
1442.0;1339.3;;;;-0.8864175;0.03911591;-0.2873383;;;;;;;;;;;;;;;
1442.0;1339.3;;;;-0.88767254;0.03855515;-0.2883301;;;;;;;;;;;;;;;
1442.0;1341.0;221315;221272;11768;;;;;;;;;;;;;;;;;;
1442.0;1349.4;;;;-0.88868344;0.03833771;-0.28919986;;;;;;;;;;;;;;;
1442.0;1349.4;;;;-0.8884889;0.038581852;-0.28959277;;;;;;;;;;;;;;;
1442.0;1349.4;;;;-0.8879777;0.03847504;-0.2899094;;;;;;;;;;;;;;;
1442.0;1349.4;;;;-0.8874551;0.038196567;-0.2900429;;;;;;;;;;;;;;;
1442.0;1349.4;;;;-0.8863641;0.03784943;-0.28971484;;;;;;;;;;;;;;;
1442.0;1359.5;;;;-0.88465893;0.037426;-0.29019168;;;;;;;;;;;;;;;
1442.0;1359.5;;;;-0.8824159;0.036758427;-0.29059604;;;;;;;;;;;;;;;
1442.0;1359.5;;;;-0.88040555;0.03621674;-0.29161456;;;;;;;;;;;;;;;
1442.0;1359.5;;;;-0.87812054;0.03531647;-0.29230884;;;;;;;;;;;;;;;
1442.0;1359.5;;;;-0.8753854;0.034214024;-0.29296497;;;;;;;;;;;;;;;
1444.0;1361.3;237647;237738;11767;;;;;;;;;;;;;;;;;;
1444.0;1365.1;;;;;;;;;;;;;;;;;-3.6164434;3.154851;-5.447554;;1273.3
1444.0;1365.1;;;;;;;;;;;;;;0.8764306;0.040406507;-0.16858424;;;;;1273.3
1444.0;1365.1;;;;;;;;;;;;;;;;;-0.5264443;-1.1101108;-5.9053316;;1273.3
1444.0;1365.1;;;;;;;;;;;;;;0.87044895;0.052735984;-0.22534868;;;;;1273.3
1444.0;1365.1;;;;;;;;;;;;;;;;;1.8921475;-3.6202583;-6.111332;;1282.8
1444.0;1365.1;;;;;;;;;;;;;;0.8667257;0.06823939;-0.2642903;;;;;1282.8
1444.0;1365.1;;;;;;;;;;;;;;;;;3.3989992;-4.970702;-6.6911836;;1282.8
1444.0;1365.1;;;;;;;;;;;;;;0.85830253;0.07910398;-0.27680287;;;;;1282.8
1444.0;1365.1;;;;;;;;;;;;;;;;;4.333628;-7.7669606;-7.3587756;;1292.5
1444.0;1365.1;;;;;;;;;;;;;;0.83980834;0.09027375;-0.27692497;;;;;1292.5
1444.0;1365.1;;;;;;;;;;;;;;;;;5.6154056;-10.933256;-8.014924;;1292.5
1444.0;1365.1;;;;;;;;;;;;;;0.837611;0.10504471;-0.27112645;;;;;1292.5
1444.0;1367.4;;;;;;;;;;;;;-55149;;;;;;;;
1444.0;1367.4;;;;;;;;;;;;;-51429;;;;;;;;
1444.0;1367.4;;;;;;;;;;;;;-49292;;;;;;;;
1444.0;1367.4;;;;;;;;;;;;;-47504;;;;;;;;
1444.0;1367.4;;;;;;;;;;;;;-45378;;;;;;;;
1444.0;1369.4;;;;-0.8724023;0.03333283;-0.2931557;;;;;;;;;;;;;;;
1444.0;1369.4;;;;-0.869568;0.032592777;-0.29353717;;;;;;;;;;;;;;;
1444.0;1369.4;;;;-0.86677563;0.031890873;-0.29381564;;;;;;;;;;;;;;;
1444.0;1369.4;;;;-0.864174;0.031639103;-0.29373553;;;;;;;;;;;;;;;
1444.0;1369.4;;;;-0.8619386;0.03134537;-0.29320148;;;;;;;;;;;;;;;
1501.0;1379.4;;;;-0.8597566;0.031284336;-0.29288867;;;;;;;;;;;;;;;
1501.0;1379.4;;;;-0.8575288;0.031078342;-0.292141;;;;;;;;;;;;;;;
1501.0;1379.4;;;;-0.8547174;0.031501774;-0.29190448;;;;;;;;;;;;;;;
1501.0;1379.4;;;;-0.85126126;0.03163529;-0.2912598;;;;;;;;;;;;;;;
1501.0;1379.4;;;;-0.8480798;0.03103638;-0.29020694;;;;;;;;;;;;;;;
1501.0;1381.2;253976;253991;11755;;;;;;;;;;;;;;;;;;
1501.0;1389.2;;;;-0.8442689;0.0312233;-0.28925708;;;;;;;;;;;;;;;
1501.0;1389.2;;;;-0.8404008;0.03156281;-0.28765872;;;;;;;;;;;;;;;
1501.0;1389.2;;;;-0.83671963;0.031459812;-0.28652576;;;;;;;;;;;;;;;
1501.0;1389.2;;;;-0.83295834;0.031215671;-0.28507617;;;;;;;;;;;;;;;
1501.0;1389.2;;;;-0.82836545;0.031452183;-0.28383258;;;;;;;;;;;;;;;
1501.0;1399.3;;;;-0.8238832;0.03085709;-0.28237537;;;;;;;;;;;;;;;
1501.0;1399.3;;;;-0.8201066;0.030185703;-0.28157428;;;;;;;;;;;;;;;
1501.0;1399.3;;;;-0.8163949;0.029373173;-0.28029636;;;;;;;;;;;;;;;
1501.0;1399.3;;;;-0.81320965;0.028617863;-0.27864078;;;;;;;;;;;;;;;
1501.0;1399.3;;;;-0.8102914;0.028171543;-0.2775269;;;;;;;;;;;;;;;
1501.0;1401.2;262143;262143;11753;;;;;;;;;;;;;;;;;;
1501.0;1407.5;;;;;;;;;;;;;-43666;;;;;;;;
1501.0;1407.5;;;;;;;;;;;;;-41589;;;;;;;;
1501.0;1407.5;;;;;;;;;;;;;-39348;;;;;;;;
1501.0;1407.5;;;;;;;;;;;;;-37114;;;;;;;;
1501.0;1407.5;;;;;;;;;;;;;-35093;;;;;;;;
1502.0;1409.4;;;;-0.80762875;0.026550297;-0.27652362;;;;;;;;;;;;;;;
1502.0;1409.4;;;;-0.8045732;0.025901798;-0.27558902;;;;;;;;;;;;;;;
1502.0;1409.4;;;;-0.8015901;0.025173191;-0.27476504;;;;;;;;;;;;;;;
1502.0;1409.4;;;;-0.79893506;0.02437592;-0.2740021;;;;;;;;;;;;;;;
1502.0;1409.4;;;;-0.7966348;0.023296358;-0.27336505;;;;;;;;;;;;;;;
1502.0;1419.5;;;;-0.7945138;0.0227623;-0.2728081;;;;;;;;;;;;;;;
1502.0;1419.5;;;;-0.79254925;0.02213669;-0.27174;;;;;;;;;;;;;;;
1502.0;1419.5;;;;-0.79003155;0.021492006;-0.27037814;;;;;;;;;;;;;;;
1502.0;1419.5;;;;-0.78722775;0.021247866;-0.26974872;;;;;;;;;;;;;;;
1502.0;1419.5;;;;-0.7843019;0.0207634;-0.26856998;;;;;;;;;;;;;;;
1502.0;1421.5;262143;262143;11744;;;;;;;;;;;;;;;;;;
1502.0;1424.9;;;;;;;;;;;;;;;;;5.0393686;-10.448774;-8.964812;;1302.2
1502.0;1424.9;;;;;;;;;;;;;;0.84578997;0.1208533;-0.25043488;;;;;1302.2
1502.0;1424.9;;;;;;;;;;;;;;;;;0.9994812;-6.7522206;-10.124516;;1302.2
1502.0;1424.9;;;;;;;;;;;;;;0.85097814;0.13464767;-0.21906187;;;;;1302.2
1502.0;1424.9;;;;;;;;;;;;;;;;;-5.760369;-1.8730735;-11.436811;;1311.8
1502.0;1424.9;;;;;;;;;;;;;;0.8366344;0.14172795;-0.19598986;;;;;1311.8
1502.0;1424.9;;;;;;;;;;;;;;;;;-12.276071;3.646962;-12.878811;;1311.8
1502.0;1424.9;;;;;;;;;;;;;;0.8247322;0.14648885;-0.17255165;;;;;1311.8
1502.0;1424.9;;;;;;;;;;;;;;;;;-14.931181;7.976775;-14.152959;;1321.5
1502.0;1424.9;;;;;;;;;;;;;;0.79384744;0.14935759;-0.1436201;;;;;1321.5
1502.0;1424.9;;;;;;;;;;;;;;;;;-12.924589;4.932554;-15.881069;;1321.5
1502.0;1424.9;;;;;;;;;;;;;;0.7582629;0.15222633;-0.14636678;;;;;1321.5
1504.0;1425.7;;;;;;;;;;;;;;;;;-9.884182;-2.7809992;-17.796106;;1330.9
1504.0;1425.7;;;;;;;;;;;;;;0.75063324;0.1640675;-0.19190039;;;;;1330.9
1504.0;1425.7;;;;;;;;;;;;;;;;;-9.392072;-4.6197395;-18.887142;;1330.9
1504.0;1425.7;;;;;;;;;;;;;;0.7556383;0.17615284;-0.21356852;;;;;1330.9
1504.0;1425.7;;;;;;;;;;;;;;;;;-11.8717;2.3003328;-19.989624;;1340.5
1504.0;1425.7;;;;;;;;;;;;;;0.75838494;0.17926572;-0.19281594;;;;;1340.5
1504.0;1425.7;;;;;;;;;;;;;;;;;-15.083773;12.527848;-22.179325;;1340.5
1504.0;1425.7;;;;;;;;;;;;;;0.7582629;0.17072055;-0.14520706;;;;;1340.5
1504.0;1425.7;;;;;;;;;;;;;;;;;-14.7557;18.452253;-23.476364;;1350.1
1504.0;1425.7;;;;;;;;;;;;;;0.7390362;0.14471877;-0.09179968;;;;;1350.1
1504.0;1425.7;;;;;;;;;;;;;;;;;-12.661366;16.449478;-23.957031;;1350.1
1504.0;1425.7;;;;;;;;;;;;;;0.7154759;0.10681479;-0.07843257;;;;;1350.1
1504.0;1429.4;;;;-0.7809564;0.020442965;-0.26783374;;;;;;;;;;;;;;;
1504.0;1429.4;;;;-0.77824414;0.01973343;-0.26685718;;;;;;;;;;;;;;;
1504.0;1429.4;;;;-0.7755815;0.019256594;-0.26643375;;;;;;;;;;;;;;;
1504.0;1429.4;;;;-0.77328885;0.018867495;-0.26645282;;;;;;;;;;;;;;;
1504.0;1429.4;;;;-0.7710725;0.018486025;-0.26644138;;;;;;;;;;;;;;;
1504.0;1439.5;;;;-0.7690393;0.017841341;-0.26636508;;;;;;;;;;;;;;;
1504.0;1439.5;;;;-0.7678071;0.017135622;-0.26600268;;;;;;;;;;;;;;;
1504.0;1439.5;;;;-0.76602185;0.016433718;-0.26606753;;;;;;;;;;;;;;;
1504.0;1439.5;;;;-0.76448834;0.01582718;-0.265358;;;;;;;;;;;;;;;
1504.0;1439.5;;;;-0.7630464;0.015392305;-0.26430514;;;;;;;;;;;;;;;
1560.0;1440.0;;;;;;;;;;;;;;;;;-9.746849;10.475478;-24.784843;;1359.8
1560.0;1440.0;;;;;;;;;;;;;;0.74184394;0.08819849;-0.11615345;;;;;1359.8
1560.0;1440.0;;;;;;;;;;;;;;;;;-7.549516;11.020997;-25.311289;;1359.8
1560.0;1440.0;;;;;;;;;;;;;;0.7680288;0.071535386;-0.13202307;;;;;1359.8
1560.0;1440.0;;;;;;;;;;;;;;;;;-5.062258;13.229774;-26.493881;;1369.5
1560.0;1440.0;;;;;;;;;;;;;;0.76650286;0.0507828;-0.13751641;;;;;1369.5
1560.0;1440.0;;;;;;;;;;;;;;;;;-0.095370345;9.880367;-28.550066;;1369.5
1560.0;1440.0;;;;;;;;;;;;;;0.7540513;0.055482652;-0.16132084;;;;;1369.5
1560.0;1440.0;;;;;;;;;;;;;;;;;5.9587393;1.659444;-29.91577;;1379.2
1560.0;1440.0;;;;;;;;;;;;;;0.7471542;0.07428205;-0.22138126;;;;;1379.2
1560.0;1440.0;;;;;;;;;;;;;;;;;11.852626;-5.298776;-30.098879;;1379.2
1560.0;1440.0;;;;;;;;;;;;;;0.7549059;0.09179968;-0.2719199;;;;;1379.2
1560.0;1441.4;262143;262143;11744;;;;;;;;;;;;;;;;;;
1560.0;1447.6;;;;;;;;;;;;;-33550;;;;;;;;
1560.0;1447.6;;;;;;;;;;;;;-32441;;;;;;;;
1560.0;1447.6;;;;;;;;;;;;;-31706;;;;;;;;
1560.0;1447.6;;;;;;;;;;;;;-31075;;;;;;;;
1560.0;1447.6;;;;;;;;;;;;;-30010;;;;;;;;
1560.0;1449.3;;;;-0.7613183;0.014801027;-0.26335528;;;;;;;;;;;;;;;
1560.0;1449.3;;;;-0.75946057;0.014568331;-0.2620125;;;;;;;;;;;;;;;
1560.0;1449.3;;;;-0.7572175;0.013992311;-0.26129535;;;;;;;;;;;;;;;
1560.0;1449.3;;;;-0.75454724;0.013031008;-0.26040652;;;;;;;;;;;;;;;
1560.0;1449.3;;;;-0.75249875;0.012462618;-0.2592583;;;;;;;;;;;;;;;
1564.0;1459.3;;;;-0.750599;0.011535645;-0.25802997;;;;;;;;;;;;;;;
1564.0;1459.3;;;;-0.7486039;0.011260987;-0.25791553;;;;;;;;;;;;;;;
1564.0;1459.3;;;;-0.7469712;0.010299684;-0.25745395;;;;;;;;;;;;;;;
1564.0;1459.3;;;;-0.74519736;0.009475709;-0.25751498;;;;;;;;;;;;;;;
1564.0;1459.3;;;;-0.7424813;0.008762361;-0.25786594;;;;;;;;;;;;;;;
1564.0;1461.4;262143;262143;11752;;;;;;;;;;;;;;;;;;
1564.0;1469.4;;;;-0.73938376;0.007347108;-0.25812915;;;;;;;;;;;;;;;
1564.0;1469.4;;;;-0.73595434;0.0066986093;-0.2586098;;;;;;;;;;;;;;;
1564.0;1469.4;;;;-0.73281103;0.005855561;-0.25908282;;;;;;;;;;;;;;;
1564.0;1469.4;;;;-0.7301102;0.0043830876;-0.2599106;;;;;;;;;;;;;;;
1564.0;1469.4;;;;-0.72796255;0.0033607488;-0.26083758;;;;;;;;;;;;;;;
1564.0;1479.6;;;;-0.726574;0.0023536684;-0.2615128;;;;;;;;;;;;;;;
1564.0;1479.6;;;;-0.7254639;0.0012626649;-0.26176837;;;;;;;;;;;;;;;
1564.0;1479.6;;;;-0.725174;4.6539312E-4;-0.26240924;;;;;;;;;;;;;;;
1564.0;1479.6;;;;-0.7250901;-8.544923E-4;-0.2622452;;;;;;;;;;;;;;;
1564.0;1479.6;;;;-0.7248536;-0.0016708376;-0.26182178;;;;;;;;;;;;;;;
1564.0;1481.6;262143;262143;11744;;;;;;;;;;;;;;;;;;
1566.0;1485.1;;;;;;;;;;;;;;;;;13.340404;-5.527665;-29.56862;;1388.7
1566.0;1485.1;;;;;;;;;;;;;;0.76277965;0.09106723;-0.29230627;;;;;1388.7
1566.0;1485.1;;;;;;;;;;;;;;;;;9.361553;2.2469254;-28.519547;;1388.7
1566.0;1485.1;;;;;;;;;;;;;;0.7622303;0.06933805;-0.2700278;;;;;1388.7
1566.0;1485.1;;;;;;;;;;;;;;;;;1.4381847;13.599812;-28.14951;;1398.4
1566.0;1485.1;;;;;;;;;;;;;;0.75771356;0.060975984;-0.20966215;;;;;1398.4
1566.0;1485.1;;;;;;;;;;;;;;;;;-4.119999;18.326365;-28.542437;;1398.4
1566.0;1485.1;;;;;;;;;;;;;;0.72884303;0.06640828;-0.16919462;;;;;1398.4
1566.0;1485.1;;;;;;;;;;;;;;;;;-3.1853695;13.6875515;-28.344065;;1408.1
1566.0;1485.1;;;;;;;;;;;;;;0.70473343;0.08215583;-0.17810602;;;;;1408.1
1566.0;1485.1;;;;;;;;;;;;;;;;;-1.4305551;9.979552;-26.791437;;1408.1
1566.0;1485.1;;;;;;;;;;;;;;0.70296335;0.09088412;-0.1975158;;;;;1408.1
1566.0;1487.8;;;;;;;;;;;;;-28121;;;;;;;;
1566.0;1487.8;;;;;;;;;;;;;-25631;;;;;;;;
1566.0;1487.8;;;;;;;;;;;;;-23222;;;;;;;;
1566.0;1487.8;;;;;;;;;;;;;-21257;;;;;;;;
1566.0;1487.8;;;;;;;;;;;;;-19601;;;;;;;;
1566.0;1489.5;;;;-0.72502905;-0.0025405886;-0.26256946;;;;;;;;;;;;;;;
1566.0;1489.5;;;;-0.7253037;-0.0032386784;-0.26327518;;;;;;;;;;;;;;;
1566.0;1489.5;;;;-0.7262154;-0.004249573;-0.26387408;;;;;;;;;;;;;;;
1566.0;1489.5;;;;-0.7275544;-0.005271912;-0.26487735;;;;;;;;;;;;;;;
1566.0;1489.5;;;;-0.7287331;-0.0058212285;-0.26541522;;;;;;;;;;;;;;;
1622.0;1492.6;;;;;;;;;;;;;;;;;-1.2855922;12.752922;-25.269325;;1417.6
1622.0;1492.6;;;;;;;;;;;;;;0.70870084;0.09277627;-0.19611195;;;;;1417.6
1622.0;1492.6;;;;;;;;;;;;;;;;;-1.2016664;21.862698;-24.563585;;1417.6
1622.0;1492.6;;;;;;;;;;;;;;0.70186466;0.09521775;-0.13910337;;;;;1417.6
1622.0;1492.6;;;;;;;;;;;;;;;;;0.3624073;24.945066;-24.731438;;1427.3
1622.0;1492.6;;;;;;;;;;;;;;0.67183447;0.11957152;-0.07495346;;;;;1427.3
1622.0;1492.6;;;;;;;;;;;;;;;;;2.0485551;18.43318;-25.448622;;1427.3
1622.0;1492.6;;;;;;;;;;;;;;0.6841639;0.15601063;-0.080446795;;;;;1427.3
1622.0;1492.6;;;;;;;;;;;;;;;;;5.3636284;12.726218;-24.945066;;1436.9
1622.0;1492.6;;;;;;;;;;;;;;0.7213355;0.1805475;-0.1274453;;;;;1436.9
1622.0;1492.6;;;;;;;;;;;;;;;;;10.55559;8.938108;-23.7434;;1436.9
1622.0;1492.6;;;;;;;;;;;;;;0.7477645;0.19714957;-0.17749566;;;;;1436.9
1622.0;1499.4;;;;-0.73016363;-0.0063591013;-0.26659396;;;;;;;;;;;;;;;
1622.0;1499.4;;;;-0.73216635;-0.007118226;-0.26760104;;;;;;;;;;;;;;;
1622.0;1499.4;;;;-0.734314;-0.007495881;-0.2679291;;;;;;;;;;;;;;;
1622.0;1499.4;;;;-0.7365647;-0.007293702;-0.2691193;;;;;;;;;;;;;;;
1622.0;1499.4;;;;-0.73941046;-0.007183076;-0.27012637;;;;;;;;;;;;;;;
1622.0;1501.5;262143;262143;11738;;;;;;;;;;;;;;;;;;
1622.0;1509.5;;;;-0.74262244;-0.00650406;-0.2707596;;;;;;;;;;;;;;;
1622.0;1509.5;;;;-0.74581915;-0.005363465;-0.27169803;;;;;;;;;;;;;;;
1622.0;1509.5;;;;-0.7491875;-0.004505158;-0.27214053;;;;;;;;;;;;;;;
1622.0;1509.5;;;;-0.75271237;-0.003356934;-0.27157596;;;;;;;;;;;;;;;
1622.0;1509.5;;;;-0.7568284;-0.002624512;-0.27313617;;;;;;;;;;;;;;;
1624.0;1519.4;;;;-0.7610589;-0.0016975405;-0.2769585;;;;;;;;;;;;;;;
1624.0;1519.4;;;;-0.76545346;-0.0011291505;-0.2800522;;;;;;;;;;;;;;;
1624.0;1519.4;;;;-0.7701875;-1.2588502E-4;-0.28290942;;;;;;;;;;;;;;;
1624.0;1519.4;;;;-0.7740861;3.8909918E-4;-0.28431705;;;;;;;;;;;;;;;
1624.0;1519.4;;;;-0.7772676;0.0012588502;-0.28473666;;;;;;;;;;;;;;;
1624.0;1521.5;262143;262143;11735;;;;;;;;;;;;;;;;;;
1624.0;1527.8;;;;;;;;;;;;;-18067;;;;;;;;
1624.0;1527.8;;;;;;;;;;;;;-17070;;;;;;;;
1624.0;1527.8;;;;;;;;;;;;;-17125;;;;;;;;
1624.0;1527.8;;;;;;;;;;;;;-15270;;;;;;;;
1624.0;1527.8;;;;;;;;;;;;;-10899;;;;;;;;
1624.0;1529.5;;;;-0.77998364;0.001590729;-0.28554538;;;;;;;;;;;;;;;
1624.0;1529.5;;;;-0.7817346;0.0031776433;-0.28579715;;;;;;;;;;;;;;;
1624.0;1529.5;;;;-0.7834283;0.0042991643;-0.28647617;;;;;;;;;;;;;;;
1624.0;1529.5;;;;-0.7843057;0.0049285893;-0.28758243;;;;;;;;;;;;;;;
1624.0;1529.5;;;;-0.7850877;0.005779267;-0.2885857;;;;;;;;;;;;;;;
1624.0;1539.6;;;;-0.7856294;0.006473542;-0.29006198;;;;;;;;;;;;;;;
1624.0;1539.6;;;;-0.7858316;0.006538392;-0.29038242;;;;;;;;;;;;;;;
1624.0;1539.6;;;;-0.78585064;0.00656128;-0.29139712;;;;;;;;;;;;;;;
1624.0;1539.6;;;;-0.78484356;0.0061416635;-0.29272082;;;;;;;;;;;;;;;
1624.0;1539.6;;;;-0.7833291;0.0052146916;-0.29447177;;;;;;;;;;;;;;;
1624.0;1541.8;262143;262143;11754;;;;;;;;;;;;;;;;;;
1625.0;1545.3;;;;;;;;;;;;;;;;;13.157292;7.854701;-22.694326;;1446.5
1625.0;1545.3;;;;;;;;;;;;;;0.77517015;0.21442305;-0.22186956;;;;;1446.5
1625.0;1545.3;;;;;;;;;;;;;;;;;11.024812;11.219367;-21.969513;;1446.5
1625.0;1545.3;;;;;;;;;;;;;;0.7942137;0.22663045;-0.23084201;;;;;1446.5
1625.0;1545.3;;;;;;;;;;;;;;;;;6.859035;14.656514;-21.81692;;1455.9
1625.0;1545.3;;;;;;;;;;;;;;0.7942137;0.23010956;-0.22638631;;;;;1455.9
1625.0;1545.3;;;;;;;;;;;;;;;;;4.8982205;14.278848;-22.70577;;1455.9
1625.0;1545.3;;;;;;;;;;;;;;0.7939696;0.22858363;-0.22797327;;;;;1455.9
1625.0;1545.3;;;;;;;;;;;;;;;;;4.928739;14.252144;-24.47966;;1465.5
1625.0;1545.3;;;;;;;;;;;;;;0.81673634;0.24268319;-0.2351146;;;;;1465.5
1625.0;1545.3;;;;;;;;;;;;;;;;;2.094333;20.748772;-26.890623;;1465.5
1625.0;1545.3;;;;;;;;;;;;;;0.8289437;0.26294747;-0.21613209;;;;;1465.5
1625.0;1549.6;;;;-0.78193295;0.004405976;-0.29581073;;;;;;;;;;;;;;;
1625.0;1549.6;;;;-0.78014386;0.0034027104;-0.2978554;;;;;;;;;;;;;;;
1625.0;1549.6;;;;-0.7789308;0.0022239687;-0.2992058;;;;;;;;;;;;;;;
1625.0;1549.6;;;;-0.7783433;0.0013847352;-0.3011475;;;;;;;;;;;;;;;
1625.0;1549.6;;;;-0.7776338;-1.4114381E-4;-0.3022881;;;;;;;;;;;;;;;
1626.0;1552.8;;;;;;;;;;;;;;;;;-1.5526291;28.04651;-28.740807;;1475.2
1626.0;1552.8;;;;;;;;;;;;;;0.8090457;0.26270333;-0.18982513;;;;;1475.2
1626.0;1552.8;;;;;;;;;;;;;;;;;-1.0528886;28.725548;-28.75988;;1475.2
1626.0;1552.8;;;;;;;;;;;;;;0.7808466;0.27344584;-0.15759759;;;;;1475.2
1626.0;1552.8;;;;;;;;;;;;;;;;;-1.3809626;25.60503;-25.845362;;1484.8
1626.0;1552.8;;;;;;;;;;;;;;0.774865;0.27808467;-0.15546128;;;;;1484.8
1626.0;1552.8;;;;;;;;;;;;;;;;;-5.874813;29.938658;-22.072514;;1484.8
1626.0;1552.8;;;;;;;;;;;;;;0.79366434;0.2664266;-0.13019197;;;;;1484.8
1626.0;1552.8;;;;;;;;;;;;;;;;;-12.638477;42.313915;-21.279032;;1494.5
1626.0;1552.8;;;;;;;;;;;;;;0.8135014;0.24591815;-0.0756859;;;;;1494.5
1626.0;1552.8;;;;;;;;;;;;;;;;;-14.461959;52.648243;-22.679068;;1494.5
1626.0;1552.8;;;;;;;;;;;;;;0.7919553;0.22504349;0.010132145;;;;;1494.5
1626.0;1559.5;;;;-0.7776834;-0.001552582;-0.30389407;;;;;;;;;;;;;;;
1626.0;1559.5;;;;-0.77835095;-0.0027465823;-0.30562976;;;;;;;;;;;;;;;
1626.0;1559.5;;;;-0.7796136;-0.0036659245;-0.30636218;;;;;;;;;;;;;;;
1626.0;1559.5;;;;-0.7820169;-0.0048370366;-0.30696872;;;;;;;;;;;;;;;
1626.0;1559.5;;;;-0.7853509;-0.005363465;-0.30765155;;;;;;;;;;;;;;;
1626.0;1561.7;262143;262143;11768;;;;;;;;;;;;;;;;;;
1626.0;1567.9;;;;;;;;;;;;;-15328;;;;;;;;
1626.0;1567.9;;;;;;;;;;;;;-35378;;;;;;;;
1626.0;1567.9;;;;;;;;;;;;;-54858;;;;;;;;
1626.0;1567.9;;;;;;;;;;;;;-51458;;;;;;;;
1626.0;1567.9;;;;;;;;;;;;;-25932;;;;;;;;
1681.0;1569.5;;;;-0.7887956;-0.006198884;-0.30879214;;;;;;;;;;;;;;;
1681.0;1569.5;;;;-0.7926904;-0.0065422067;-0.3090134;;;;;;;;;;;;;;;
1681.0;1569.5;;;;-0.796898;-0.0071525583;-0.3091431;;;;;;;;;;;;;;;
1681.0;1569.5;;;;-0.8016435;-0.00763321;-0.3086739;;;;;;;;;;;;;;;
1681.0;1569.5;;;;-0.8065454;-0.008525849;-0.30825427;;;;;;;;;;;;;;;
1681.0;1579.5;;;;-0.8116685;-0.00882721;-0.30777743;;;;;;;;;;;;;;;
1681.0;1579.5;;;;-0.81663144;-0.008728028;-0.3081322;;;;;;;;;;;;;;;
1681.0;1579.5;;;;-0.8222505;-0.009391786;-0.30810168;;;;;;;;;;;;;;;
1681.0;1579.5;;;;-0.8274118;-0.00964737;-0.30823138;;;;;;;;;;;;;;;
1681.0;1579.5;;;;-0.8324815;-0.010238648;-0.30873874;;;;;;;;;;;;;;;
1681.0;1581.8;262143;262143;11761;;;;;;;;;;;;;;;;;;
1681.0;1589.6;;;;-0.8369447;-0.010795594;-0.30957034;;;;;;;;;;;;;;;
1681.0;1589.6;;;;-0.84186184;-0.011493684;-0.31074527;;;;;;;;;;;;;;;
1681.0;1589.6;;;;-0.8475839;-0.012413027;-0.3128548;;;;;;;;;;;;;;;
1681.0;1589.6;;;;-0.8531915;-0.013736727;-0.31491092;;;;;;;;;;;;;;;
1681.0;1589.6;;;;-0.8595735;-0.014514925;-0.3167763;;;;;;;;;;;;;;;
1681.0;1599.7;;;;-0.8662797;-0.01576996;-0.31906894;;;;;;;;;;;;;;;
1681.0;1599.7;;;;-0.8740121;-0.01710892;-0.32106784;;;;;;;;;;;;;;;
1681.0;1599.7;;;;-0.8810121;-0.018501284;-0.32283786;;;;;;;;;;;;;;;
1681.0;1599.7;;;;-0.8890077;-0.019256594;-0.32473758;;;;;;;;;;;;;;;
1681.0;1599.7;;;;-0.8968736;-0.019794466;-0.3250008;;;;;;;;;;;;;;;
1683.0;1602.1;262143;262143;11774;;;;;;;;;;;;;;;;;;
1683.0;1605.5;;;;;;;;;;;;;;;;;-4.8829613;44.049656;-23.953215;;1504.1
1683.0;1605.5;;;;;;;;;;;;;;0.75569934;0.21246986;0.036744285;;;;;1504.1
1683.0;1605.5;;;;;;;;;;;;;;;;;11.425366;18.7727;-22.160252;;1504.1
1683.0;1605.5;;;;;;;;;;;;;;0.74434644;0.18207343;-0.06250191;;;;;1504.1
1683.0;1605.5;;;;;;;;;;;;;;;;;25.37614;-5.4246655;-20.916624;;1513.6
1683.0;1605.5;;;;;;;;;;;;;;0.8094119;0.17554247;-0.21832941;;;;;1513.6
1683.0;1605.5;;;;;;;;;;;;;;;;;34.535507;-13.023774;-18.711662;;1513.6
1683.0;1605.5;;;;;;;;;;;;;;0.86031675;0.15570544;-0.33014923;;;;;1513.6
1683.0;1605.5;;;;;;;;;;;;;;;;;33.14692;1.8768883;-15.297402;;1523.3
1683.0;1605.5;;;;;;;;;;;;;;0.8580584;0.11413923;-0.32667014;;;;;1523.3
1683.0;1605.5;;;;;;;;;;;;;;;;;21.076845;21.33244;-12.947477;;1523.3
1683.0;1605.5;;;;;;;;;;;;;;0.85280925;0.07739494;-0.26422927;;;;;1523.3
1683.0;1608.2;;;;;;;;;;;;;-2122;;;;;;;;
1683.0;1608.2;;;;;;;;;;;;;3262;;;;;;;;
1683.0;1608.2;;;;;;;;;;;;;-2257;;;;;;;;
1683.0;1608.2;;;;;;;;;;;;;-3897;;;;;;;;
1683.0;1608.2;;;;;;;;;;;;;-684;;;;;;;;
1683.0;1609.7;;;;-0.90433896;-0.019958498;-0.3261185;;;;;;;;;;;;;;;
1683.0;1609.7;;;;-0.9119607;-0.019882204;-0.32712558;;;;;;;;;;;;;;;
1683.0;1609.7;;;;-0.92013943;-0.019416811;-0.3286858;;;;;;;;;;;;;;;
1683.0;1609.7;;;;-0.9290391;-0.01873398;-0.3307419;;;;;;;;;;;;;;;
1683.0;1609.7;;;;-0.9394876;-0.01734543;-0.33251956;;;;;;;;;;;;;;;
1740.0;1613.4;;;;;;;;;;;;;;;;;10.876034;28.275398;-9.31959;;1533.0
1740.0;1613.4;;;;;;;;;;;;;;0.86111027;0.054567095;-0.22437209;;;;;1533.0
1740.0;1613.4;;;;;;;;;;;;;;;;;7.6677756;29.351177;-6.469924;;1533.0
1740.0;1613.4;;;;;;;;;;;;;;0.882046;0.051515244;-0.20557268;;;;;1533.0
1740.0;1613.4;;;;;;;;;;;;;;;;;6.9963684;34.55458;-6.5881834;;1542.6
1740.0;1613.4;;;;;;;;;;;;;;0.8814356;0.07983642;-0.16888943;;;;;1542.6
1740.0;1613.4;;;;;;;;;;;;;;;;;9.453109;35.264137;-9.754478;;1542.6
1740.0;1613.4;;;;;;;;;;;;;;0.85580003;0.13763848;-0.14587848;;;;;1542.6
1740.0;1613.4;;;;;;;;;;;;;;;;;18.280588;25.917845;-14.263588;;1552.3
1740.0;1613.4;;;;;;;;;;;;;;0.80538344;0.19623402;-0.16333507;;;;;1552.3
1740.0;1613.4;;;;;;;;;;;;;;;;;28.809473;9.743034;-19.444107;;1552.3
1740.0;1613.4;;;;;;;;;;;;;;0.77895445;0.27484968;-0.21198156;;;;;1552.3
1740.0;1619.6;;;;-0.95144284;-0.015167238;-0.3345566;;;;;;;;;;;;;;;
1740.0;1619.6;;;;-0.9643785;-0.012294771;-0.33638385;;;;;;;;;;;;;;;
1740.0;1619.6;;;;-0.9784051;-0.008277894;-0.3374634;;;;;;;;;;;;;;;
1740.0;1619.6;;;;-0.9932443;-0.00403595;-0.33815005;;;;;;;;;;;;;;;
1740.0;1619.6;;;;-1.0081445;0.0011367799;-0.33980182;;;;;;;;;;;;;;;
1740.0;1622.0;262143;262143;11782;;;;;;;;;;;;;;;;;;
1740.0;1629.6;;;;-1.0228311;0.0068779;-0.34203342;;;;;;;;;;;;;;;
1740.0;1629.6;;;;-1.0365144;0.013023378;-0.34461597;;;;;;;;;;;;;;;
1740.0;1629.6;;;;-1.0502015;0.018337252;-0.34705737;;;;;;;;;;;;;;;
1740.0;1629.6;;;;-1.0640146;0.023448948;-0.35001758;;;;;;;;;;;;;;;
1740.0;1629.6;;;;-1.0771295;0.028045658;-0.352932;;;;;;;;;;;;;;;
1745.0;1639.7;;;;-1.089451;0.031894688;-0.3557854;;;;;;;;;;;;;;;
1745.0;1639.7;;;;-1.101719;0.03564072;-0.35919192;;;;;;;;;;;;;;;
1745.0;1639.7;;;;-1.1132928;0.039436344;-0.36198428;;;;;;;;;;;;;;;
1745.0;1639.7;;;;-1.1233445;0.043239597;-0.3661118;;;;;;;;;;;;;;;
1745.0;1639.7;;;;-1.1332818;0.047317512;-0.37038425;;;;;;;;;;;;;;;
1745.0;1642.2;262143;262143;11802;;;;;;;;;;;;;;;;;;
1745.0;1648.4;;;;;;;;;;;;;601;;;;;;;;
1745.0;1648.4;;;;;;;;;;;;;375;;;;;;;;
1745.0;1648.4;;;;;;;;;;;;;959;;;;;;;;
1745.0;1648.4;;;;;;;;;;;;;1296;;;;;;;;
1745.0;1648.4;;;;;;;;;;;;;1387;;;;;;;;
1745.0;1649.8;;;;-1.1429216;0.05136872;-0.37376788;;;;;;;;;;;;;;;
1745.0;1649.8;;;;-1.1507188;0.05552674;-0.37728888;;;;;;;;;;;;;;;
1745.0;1649.8;;;;-1.1582261;0.060108192;-0.37998205;;;;;;;;;;;;;;;
1745.0;1649.8;;;;-1.165249;0.064846046;-0.38245016;;;;;;;;;;;;;;;
1745.0;1649.8;;;;-1.1721841;0.07042695;-0.3854409;;;;;;;;;;;;;;;
1745.0;1659.9;;;;-1.179104;0.07695008;-0.38957602;;;;;;;;;;;;;;;
1745.0;1659.9;;;;-1.1873704;0.08406449;-0.39370352;;;;;;;;;;;;;;;
1745.0;1659.9;;;;-1.1965295;0.09201432;-0.3976975;;;;;;;;;;;;;;;
1745.0;1659.9;;;;-1.2060701;0.10084154;-0.40229422;;;;;;;;;;;;;;;
1745.0;1659.9;;;;-1.2157518;0.10941698;-0.4060784;;;;;;;;;;;;;;;
1745.0;1662.4;262143;262143;11821;;;;;;;;;;;;;;;;;;
1746.0;1665.9;;;;;;;;;;;;;;;;;34.60417;-6.0197763;-22.21366;;1562.0
1746.0;1665.9;;;;;;;;;;;;;;0.779931;0.35395366;-0.28833887;;;;;1562.0
1746.0;1665.9;;;;;;;;;;;;;;;;;33.436844;-8.7893305;-23.35429;;1562.0
1746.0;1665.9;;;;;;;;;;;;;;0.7956175;0.40919217;-0.35938597;;;;;1562.0
1746.0;1665.9;;;;;;;;;;;;;;;;;25.490585;8.167517;-23.590809;;1571.6
1746.0;1665.9;;;;;;;;;;;;;;0.78395945;0.4626606;-0.35346538;;;;;1571.6
1746.0;1665.9;;;;;;;;;;;;;;;;;11.642812;31.651508;-23.880733;;1571.6
1746.0;1665.9;;;;;;;;;;;;;;0.7597888;0.47926268;-0.30268258;;;;;1571.6
1746.0;1665.9;;;;;;;;;;;;;;;;;3.807184;44.385357;-24.712364;;1581.3
1746.0;1665.9;;;;;;;;;;;;;;0.7694937;0.48469496;-0.24274422;;;;;1581.3
1746.0;1665.9;;;;;;;;;;;;;;;;;4.425184;44.23658;-23.583178;;1581.3
1746.0;1665.9;;;;;;;;;;;;;;0.8089236;0.48316905;-0.21576586;;;;;1581.3
1746.0;1669.9;;;;-1.2260782;0.11880113;-0.40991217;;;;;;;;;;;;;;;
1746.0;1669.9;;;;-1.237652;0.1288376;-0.41263205;;;;;;;;;;;;;;;
1746.0;1669.9;;;;-1.2497064;0.13930131;-0.41588598;;;;;;;;;;;;;;;
1746.0;1669.9;;;;-1.2613221;0.14984132;-0.418274;;;;;;;;;;;;;;;
1746.0;1669.9;;;;-1.2726175;0.16077043;-0.42041785;;;;;;;;;;;;;;;
1748.0;1673.3;;;;;;;;;;;;;;;;;10.338145;37.575916;-21.656698;;1590.9
1748.0;1673.3;;;;;;;;;;;;;;0.84951323;0.4519181;-0.20538957;;;;;1590.9
1748.0;1673.3;;;;;;;;;;;;;;;;;13.096255;34.12351;-22.873623;;1590.9
1748.0;1673.3;;;;;;;;;;;;;;0.891995;0.43012786;-0.20191047;;;;;1590.9
1748.0;1673.3;;;;;;;;;;;;;;;;;11.303292;37.007507;-29.103214;;1600.6
1748.0;1673.3;;;;;;;;;;;;;;0.9330119;0.418775;-0.21161534;;;;;1600.6
1748.0;1673.3;;;;;;;;;;;;;;;;;10.891294;40.391247;-41.19617;;1600.6
1748.0;1673.3;;;;;;;;;;;;;;1.0037538;0.4453261;-0.21716972;;;;;1600.6
1748.0;1673.3;;;;;;;;;;;;;;;;;9.331035;44.53795;-56.09302;;1610.3
1748.0;1673.3;;;;;;;;;;;;;;1.1008637;0.49537644;-0.22443312;;;;;1610.3
1748.0;1673.3;;;;;;;;;;;;;;;;;2.8420362;54.109318;-72.149574;;1610.3
1748.0;1673.3;;;;;;;;;;;;;;1.1929075;0.5283975;-0.2125309;;;;;1610.3
1748.0;1679.9;;;;-1.2831002;0.172184;-0.42202765;;;;;;;;;;;;;;;
1748.0;1679.9;;;;-1.2935525;0.18384553;-0.42376333;;;;;;;;;;;;;;;
1748.0;1679.9;;;;-1.3028146;0.19604114;-0.42498404;;;;;;;;;;;;;;;
1748.0;1679.9;;;;-1.3104898;0.2078667;-0.42547232;;;;;;;;;;;;;;;
1748.0;1679.9;;;;-1.3163453;0.22002795;-0.42505652;;;;;;;;;;;;;;;
1748.0;1682.3;262143;262143;11848;;;;;;;;;;;;;;;;;;
1748.0;1688.4;;;;;;;;;;;;;1607;;;;;;;;
1748.0;1688.4;;;;;;;;;;;;;1761;;;;;;;;
1748.0;1688.4;;;;;;;;;;;;;1806;;;;;;;;
1748.0;1688.4;;;;;;;;;;;;;1690;;;;;;;;
1748.0;1688.4;;;;;;;;;;;;;1361;;;;;;;;
1810.0;1689.7;;;;-1.3183519;0.23197559;-0.42366797;;;;;;;;;;;;;;;
1810.0;1689.7;;;;-1.3165399;0.24443057;-0.42190558;;;;;;;;;;;;;;;
1810.0;1689.7;;;;-1.3128091;0.2555733;-0.4205857;;;;;;;;;;;;;;;
1810.0;1689.7;;;;-1.3073541;0.26586154;-0.41862875;;;;;;;;;;;;;;;
1810.0;1689.7;;;;-1.2995073;0.27587512;-0.4102059;;;;;;;;;;;;;;;
1810.0;1699.7;;;;-1.2890435;0.2852936;-0.40157324;;;;;;;;;;;;;;;
1810.0;1699.7;;;;-1.2756883;0.2931519;-0.39480597;;;;;;;;;;;;;;;
1810.0;1699.7;;;;-1.2599908;0.2994118;-0.38525778;;;;;;;;;;;;;;;
1810.0;1699.7;;;;-1.2424127;0.30399325;-0.37593085;;;;;;;;;;;;;;;
1810.0;1699.7;;;;-1.2237931;0.30699542;-0.3670502;;;;;;;;;;;;;;;
1810.0;1702.3;262143;262143;11881;;;;;;;;;;;;;;;;;;
1810.0;1709.8;;;;-1.2050477;0.30817416;-0.35865024;;;;;;;;;;;;;;;
1810.0;1709.8;;;;-1.1865655;0.3073044;-0.34917453;;;;;;;;;;;;;;;
1810.0;1709.8;;;;-1.1685334;0.30407336;-0.33913806;;;;;;;;;;;;;;;
1810.0;1709.8;;;;-1.1513444;0.29902652;-0.32953265;;;;;;;;;;;;;;;
1810.0;1709.8;;;;-1.1353685;0.2925072;-0.32116702;;;;;;;;;;;;;;;
1810.0;1719.9;;;;-1.1214448;0.28518298;-0.3146172;;;;;;;;;;;;;;;
1810.0;1719.9;;;;-1.1097528;0.2762337;-0.3086777;;;;;;;;;;;;;;;
1810.0;1719.9;;;;-1.1012536;0.2664719;-0.3029938;;;;;;;;;;;;;;;
1810.0;1719.9;;;;-1.0958863;0.25554278;-0.29830936;;;;;;;;;;;;;;;
1810.0;1719.9;;;;-1.0937196;0.24386218;-0.2938843;;;;;;;;;;;;;;;
1816.0;1722.6;262143;262143;11888;;;;;;;;;;;;;;;;;;
1816.0;1725.9;;;;;;;;;;;;;;;;;-7.168035;69.69664;-88.736374;;1620.0
1816.0;1725.9;;;;;;;;;;;;;;1.2864772;0.58278143;-0.1772515;;;;;1620.0
1816.0;1725.9;;;;;;;;;;;;;;;;;-21.267586;90.52171;-110.13367;;1620.0
1816.0;1725.9;;;;;;;;;;;;;;1.4159367;0.6931364;-0.13031404;;;;;1620.0
1816.0;1725.9;;;;;;;;;;;;;;;;;-35.3061;110.32441;-123.2757;;1629.5
1816.0;1725.9;;;;;;;;;;;;;;1.5243995;0.77462083;-0.028992584;;;;;1629.5
1816.0;1725.9;;;;;;;;;;;;;;;;;-42.851803;116.61504;-124.80163;;1629.5
1816.0;1725.9;;;;;;;;;;;;;;1.6176031;0.84688866;0.048524432;;;;;1629.5
1816.0;1725.9;;;;;;;;;;;;;;;;;-44.152657;114.23078;-121.25385;;1639.2
1816.0;1725.9;;;;;;;;;;;;;;1.7090366;0.8674581;0.11401715;;;;;1639.2
1816.0;1725.9;;;;;;;;;;;;;;;;;-35.74099;100.196075;-117.40852;;1639.2
1816.0;1725.9;;;;;;;;;;;;;;1.7001861;0.8133793;0.122318186;;;;;1639.2
1817.0;1727.1;;;;;;;;;;;;;;;;;-31.144138;87.97342;-112.64763;;1648.9
1817.0;1727.1;;;;;;;;;;;;;;1.6819361;0.80782497;-0.0013428144;;;;;1648.9
1817.0;1727.1;;;;;;;;;;;;;;;;;-33.92895;98.39931;-108.91675;;1648.9
1817.0;1727.1;;;;;;;;;;;;;;1.9121066;0.72127444;-0.047364727;;;;;1648.9
1817.0;1727.1;;;;;;;;;;;;;;;;;-27.092808;109.36308;-109.76363;;1658.4
1817.0;1727.1;;;;;;;;;;;;;;1.9970702;0.63979006;0.0053712577;;;;;1658.4
1817.0;1727.1;;;;;;;;;;;;;;;;;-25.173954;119.33501;-104.25123;;1658.4
1817.0;1727.1;;;;;;;;;;;;;;1.9962767;0.4560686;0.11371197;;;;;1658.4
1817.0;1727.1;;;;;;;;;;;;;;;;;-23.468735;120.967735;-102.36671;;1668.1
1817.0;1727.1;;;;;;;;;;;;;;1.7968078;0.21662039;0.1737724;;;;;1668.1
1817.0;1727.1;;;;;;;;;;;;;;;;;-11.677145;111.29719;-113.86074;;1668.1
1817.0;1727.1;;;;;;;;;;;;;;1.5546129;0.13855404;0.24854274;;;;;1668.1
1817.0;1728.5;;;;;;;;;;;;;555;;;;;;;;
1817.0;1728.5;;;;;;;;;;;;;-795;;;;;;;;
1817.0;1728.5;;;;;;;;;;;;;-2157;;;;;;;;
1817.0;1728.5;;;;;;;;;;;;;-2988;;;;;;;;
1817.0;1728.5;;;;;;;;;;;;;-3204;;;;;;;;
1817.0;1729.8;;;;-1.0953294;0.23147205;-0.29022983;;;;;;;;;;;;;;;
1817.0;1729.8;;;;-1.098816;0.21958926;-0.28639606;;;;;;;;;;;;;;;
1817.0;1729.8;;;;-1.1041642;0.20770648;-0.2834778;;;;;;;;;;;;;;;
1817.0;1729.8;;;;-1.1105767;0.19586948;-0.28104785;;;;;;;;;;;;;;;
1817.0;1729.8;;;;-1.117428;0.1852379;-0.2792168;;;;;;;;;;;;;;;
1817.0;1737.9;;;;;;;;;;0.09155553;19.196144;-3.3150733;;;;;;;;;
1817.0;1737.9;;;;;;;0.7849971;-0.08526871;-0.26996672;;;;;;;;;;;;
1817.0;1737.9;;;;;;;;;;7.229072;32.208473;8.663442;;;;;;;;;
1817.0;1737.9;;;;;;;0.8835108;-0.09607227;-0.30329296;;;;;;;;;;;;
1859.0;1739.9;;;;-1.1245652;0.17557909;-0.277504;;;;;;;;;;;;;;;
1859.0;1739.9;;;;-1.1306878;0.16706087;-0.27684024;;;;;;;;;;;;;;;
1859.0;1739.9;;;;-1.1360513;0.15959932;-0.27530292;;;;;;;;;;;;;;;
1859.0;1739.9;;;;-1.1416475;0.15325166;-0.27442935;;;;;;;;;;;;;;;
1859.0;1739.9;;;;-1.146988;0.1475754;-0.2744141;;;;;;;;;;;;;;;
1859.0;1742.5;262143;262143;11894;;;;;;;;;;;;;;;;;;
1859.0;1747.4;;;;;;;;;;1.5831476;7.930998;5.359813;;;;;;;;;
1859.0;1747.4;;;;;;;0.8818018;-0.09460738;-0.30152288;;;;;;;;;;;;
1859.0;1747.4;;;;;;;;;;5.7565536;17.60155;7.2443314;;;;;;;;;
1859.0;1747.4;;;;;;;0.8796655;-0.094363235;-0.30213323;;;;;;;;;;;;
1859.0;1749.9;;;;-1.153679;0.1434746;-0.27542117;;;;;;;;;;;;;;;
1859.0;1749.9;;;;-1.1610109;0.14055254;-0.27583316;;;;;;;;;;;;;;;
1859.0;1749.9;;;;-1.1688043;0.1377144;-0.2764397;;;;;;;;;;;;;;;
1859.0;1749.9;;;;-1.1765023;0.13588716;-0.2779732;;;;;;;;;;;;;;;
1859.0;1749.9;;;;-1.1828462;0.13476564;-0.27938464;;;;;;;;;;;;;;;
1859.0;1756.8;;;;;;;;;;6.065554;18.738365;7.1756644;;;;;;;;;
1859.0;1756.8;;;;;;;0.8783227;-0.09338664;-0.30323192;;;;;;;;;;;;
1859.0;1756.8;;;;;;;;;;1.247444;-16.323587;-13.431959;;;;;;;;;
1859.0;1756.8;;;;;;;0.8741112;-0.09350871;-0.3018891;;;;;;;;;;;;
1861.0;1759.8;;;;-1.1880533;0.13481523;-0.28075793;;;;;;;;;;;;;;;
1861.0;1759.8;;;;-1.1938401;0.1357422;-0.2830315;;;;;;;;;;;;;;;
1861.0;1759.8;;;;-1.1991235;0.13650896;-0.28566363;;;;;;;;;;;;;;;
1861.0;1759.8;;;;-1.2031595;0.13883974;-0.28951648;;;;;;;;;;;;;;;
1861.0;1759.8;;;;-1.2071534;0.14111711;-0.29321674;;;;;;;;;;;;;;;
1861.0;1762.6;262143;262143;11892;;;;;;;;;;;;;;;;;;
1861.0;1766.5;;;;;;;;;;1.5678884;-16.804255;-14.145329;;;;;;;;;
1861.0;1766.5;;;;;;;0.8786279;-0.09485153;-0.30042422;;;;;;;;;;;;
1861.0;1766.5;;;;;;;;;;2.128666;-17.07892;-14.717551;;;;;;;;;
1861.0;1766.5;;;;;;;0.88369393;-0.09607227;-0.30005798;;;;;;;;;;;;
1861.0;1768.8;;;;;;;;;;;;;-2925;;;;;;;;
1861.0;1768.8;;;;;;;;;;;;;-2137;;;;;;;;
1861.0;1768.8;;;;;;;;;;;;;-449;;;;;;;;
1861.0;1768.8;;;;;;;;;;;;;2171;;;;;;;;
1861.0;1768.8;;;;;;;;;;;;;4848;;;;;;;;
1861.0;1770.0;;;;-1.2112008;0.14431383;-0.29764178;;;;;;;;;;;;;;;
1861.0;1770.0;;;;-1.2145311;0.148407;-0.3014069;;;;;;;;;;;;;;;
1861.0;1770.0;;;;-1.2170488;0.15190126;-0.30518344;;;;;;;;;;;;;;;
1861.0;1770.0;;;;-1.2183343;0.15590288;-0.30933383;;;;;;;;;;;;;;;
1861.0;1770.0;;;;-1.2193452;0.15996934;-0.31339267;;;;;;;;;;;;;;;
1861.0;1776.1;;;;;;;;;;2.3003328;-9.529405;-9.170813;;;;;;;;;
1861.0;1776.1;;;;;;;0.8888821;-0.09729301;-0.300119;;;;;;;;;;;;
1861.0;1776.1;;;;;;;;;;2.4262216;-1.7204809;-2.517777;;;;;;;;;
1861.0;1776.1;;;;;;;0.89028597;-0.098941006;-0.29834896;;;;;;;;;;;;
1863.0;1780.1;;;;-1.2199212;0.1635399;-0.31675723;;;;;;;;;;;;;;;
1863.0;1780.1;;;;-1.2206498;0.16741945;-0.320488;;;;;;;;;;;;;;;
1863.0;1780.1;;;;-1.2213823;0.17108919;-0.32470325;;;;;;;;;;;;;;;
1863.0;1780.1;;;;-1.223137;0.17510606;-0.3285828;;;;;;;;;;;;;;;
1863.0;1780.1;;;;-1.2255822;0.17863084;-0.33173373;;;;;;;;;;;;;;;
1863.0;1782.9;262143;262143;11876;;;;;;;;;;;;;;;;;;
1863.0;1785.7;;;;;;;;;;3.0098882;-2.3270364;-2.0867033;;;;;;;;;
1863.0;1785.7;;;;;;;0.88863796;-0.098025456;-0.2979217;;;;;;;;;;;;
1863.0;1785.7;;;;;;;;;;3.5554063;-2.8000731;-1.6708884;;;;;;;;;
1863.0;1785.7;;;;;;;0.8880276;-0.098941006;-0.29767755;;;;;;;;;;;;
1863.0;1786.3;;;;;;;;;;;;;;;;;0.8049257;78.17316;-123.611404;;1677.7
1863.0;1786.3;;;;;;;;;;;;;;1.4534745;0.107181005;0.22992645;;;;;1677.7
1863.0;1786.3;;;;;;;;;;;;;;;;;9.544664;45.003357;-124.988556;;1677.7
1863.0;1786.3;;;;;;;;;;;;;;1.4998016;0.10791345;0.060304575;;;;;1677.7
1863.0;1786.3;;;;;;;;;;;;;;;;;16.308329;34.29136;-124.988556;;1687.3
1863.0;1786.3;;;;;;;;;;;;;;1.546617;0.07916501;-0.09094516;;;;;1687.3
1863.0;1786.3;;;;;;;;;;;;;;;;;21.965698;40.692616;-122.02063;;1687.3
1863.0;1786.3;;;;;;;;;;;;;;1.4990692;-0.0051271096;-0.15765862;;;;;1687.3
1863.0;1786.3;;;;;;;;;;;;;;;;;30.220953;51.351208;-105.07904;;1696.9
1863.0;1786.3;;;;;;;;;;;;;;1.3765068;-0.08832057;-0.123783074;;;;;1696.9
1863.0;1786.3;;;;;;;;;;;;;;;;;26.1124;61.128574;-89.335304;;1696.9
1863.0;1786.3;;;;;;;;;;;;;;1.2271492;-0.20374157;-0.05981628;;;;;1696.9
1864.0;1787.1;;;;;;;;;;;;;;;;;24.426252;67.03773;-86.17283;;1706.5
1864.0;1787.1;;;;;;;;;;;;;;1.1408429;-0.2684408;-0.0110477;;;;;1706.5
1864.0;1787.1;;;;;;;;;;;;;;;;;27.851954;73.70983;-93.66512;;1706.5
1864.0;1787.1;;;;;;;;;;;;;;1.0500809;-0.28107548;0.09796441;;;;;1706.5
1864.0;1787.1;;;;;;;;;;;;;;;;;27.962584;72.75994;-107.08564;;1716.2
1864.0;1787.1;;;;;;;;;;;;;;1.0025331;-0.1948912;0.17969298;;;;;1716.2
1864.0;1787.1;;;;;;;;;;;;;;;;;25.971252;66.34343;-116.84012;;1716.2
1864.0;1787.1;;;;;;;;;;;;;;1.0274972;-0.0073244423;0.22247994;;;;;1716.2
1864.0;1787.1;;;;;;;;;;;;;;;;;21.60329;57.51213;-113.65093;;1725.8
1864.0;1787.1;;;;;;;;;;;;;;1.0878627;0.11999878;0.22479934;;;;;1725.8
1864.0;1787.1;;;;;;;;;;;;;;;;;16.296885;48.76095;-106.49815;;1725.8
1864.0;1787.1;;;;;;;;;;;;;;1.1736808;0.19354838;0.18390454;;;;;1725.8
1864.0;1790.0;;;;-1.2283365;0.1822548;-0.33526614;;;;;;;;;;;;;;;
1864.0;1790.0;;;;-1.2302095;0.18608858;-0.33819202;;;;;;;;;;;;;;;
1864.0;1790.0;;;;-1.2319337;0.18973544;-0.34144595;;;;;;;;;;;;;;;
1864.0;1790.0;;;;-1.2336427;0.19337085;-0.34443286;;;;;;;;;;;;;;;
1864.0;1790.0;;;;-1.2350007;0.19739535;-0.34675983;;;;;;;;;;;;;;;
1864.0;1795.2;;;;;;;;;;4.139073;-3.2692955;-1.2016664;;;;;;;;;
1864.0;1795.2;;;;;;;0.8928495;-0.098941006;-0.2990814;;;;;;;;;;;;
1864.0;1795.2;;;;;;;;;;4.692221;-3.6812954;-0.9155553;;;;;;;;;
1864.0;1795.2;;;;;;;0.89388716;-0.09857479;-0.29755548;;;;;;;;;;;;
1921.0;1800.1;;;;-1.2360574;0.20037463;-0.34863284;;;;;;;;;;;;;;;
1921.0;1800.1;;;;-1.2367936;0.20367816;-0.35017017;;;;;;;;;;;;;;;
1921.0;1800.1;;;;-1.2370836;0.20694354;-0.35084155;;;;;;;;;;;;;;;
1921.0;1800.1;;;;-1.2368737;0.20950702;-0.35120776;;;;;;;;;;;;;;;
1921.0;1800.1;;;;-1.2357675;0.21220782;-0.3513718;;;;;;;;;;;;;;;
1921.0;1802.9;262143;262143;11883;;;;;;;;;;;;;;;;;;
1921.0;1804.7;;;;;;;;;;5.1690726;-4.215369;-0.74007386;;;;;;;;;
1921.0;1804.7;;;;;;;0.89785457;-0.09796441;-0.29786065;;;;;;;;;;;;
1921.0;1804.7;;;;;;;;;;5.6611834;-4.562517;-0.37766656;;;;;;;;;
1921.0;1804.7;;;;;;;0.89779353;-0.097598195;-0.29902035;;;;;;;;;;;;
1921.0;1808.9;;;;;;;;;;;;;6721;;;;;;;;
1921.0;1808.9;;;;;;;;;;;;;7642;;;;;;;;
1921.0;1808.9;;;;;;;;;;;;;8124;;;;;;;;
1921.0;1808.9;;;;;;;;;;;;;8572;;;;;;;;
1921.0;1808.9;;;;;;;;;;;;;8804;;;;;;;;
1921.0;1809.9;;;;-1.233864;0.21461871;-0.35180667;;;;;;;;;;;;;;;
1921.0;1809.9;;;;-1.2322618;0.21668628;-0.35162738;;;;;;;;;;;;;;;
1921.0;1809.9;;;;-1.2303354;0.21816257;-0.35206988;;;;;;;;;;;;;;;
1921.0;1809.9;;;;-1.228634;0.21920398;-0.3528557;;;;;;;;;;;;;;;
1921.0;1809.9;;;;-1.226597;0.21951297;-0.35300067;;;;;;;;;;;;;;;
1921.0;1813.9;;;;;;;;;;6.088443;-5.050813;0.011444441;;;;;;;;;
1921.0;1813.9;;;;;;;0.900235;-0.09741508;-0.2995697;;;;;;;;;;;;
1921.0;1813.9;;;;;;;;;;6.572924;-5.569628;0.37003693;;;;;;;;;
1921.0;1813.9;;;;;;;0.90145576;-0.09765923;-0.29773858;;;;;;;;;;;;
1924.0;1819.9;;;;-1.2239839;0.2197304;-0.35273746;;;;;;;;;;;;;;;
1924.0;1819.9;;;;-1.2213098;0.21937183;-0.35279086;;;;;;;;;;;;;;;
1924.0;1819.9;;;;-1.2193643;0.21833041;-0.35257342;;;;;;;;;;;;;;;
1924.0;1819.9;;;;-1.2178155;0.21725085;-0.35126498;;;;;;;;;;;;;;;
1924.0;1819.9;;;;-1.2164842;0.21660617;-0.3498955;;;;;;;;;;;;;;;
1924.0;1822.8;262143;262143;11875;;;;;;;;;;;;;;;;;;
1924.0;1823.6;;;;;;;;;;7.0497756;-6.042665;0.6904813;;;;;;;;;
1924.0;1823.6;;;;;;;0.90145576;-0.09509568;-0.2990814;;;;;;;;;;;;
1924.0;1823.6;;;;;;;;;;7.37022;-6.45085;0.92318493;;;;;;;;;
1924.0;1823.6;;;;;;;0.9020661;-0.09387494;-0.30213323;;;;;;;;;;;;
1924.0;1830.0;;;;-1.215233;0.21556476;-0.3493233;;;;;;;;;;;;;;;
1924.0;1830.0;;;;-1.213997;0.21498111;-0.3474274;;;;;;;;;;;;;;;
1924.0;1830.0;;;;-1.2125665;0.21412662;-0.3444405;;;;;;;;;;;;;;;
1924.0;1830.0;;;;-1.2103807;0.21294025;-0.34176257;;;;;;;;;;;;;;;
1924.0;1830.0;;;;-1.2072679;0.21096805;-0.33796313;;;;;;;;;;;;;;;
1924.0;1833.2;;;;;;;;;;7.637257;-6.786554;1.0910367;;;;;;;;;
1924.0;1833.2;;;;;;;0.90267646;-0.092837304;-0.30591753;;;;;;;;;;;;
1924.0;1833.2;;;;;;;;;;7.9081087;-7.133702;1.3657033;;;;;;;;;
1924.0;1833.2;;;;;;;0.9020661;-0.09295938;-0.3081149;;;;;;;;;;;;
1925.0;1840.1;;;;-1.2026826;0.20870975;-0.33424;;;;;;;;;;;;;;;
1925.0;1840.1;;;;-1.1973802;0.20730975;-0.33055118;;;;;;;;;;;;;;;
1925.0;1840.1;;;;-1.1913415;0.20508197;-0.3271027;;;;;;;;;;;;;;;
1925.0;1840.1;;;;-1.1844255;0.20333484;-0.32239154;;;;;;;;;;;;;;;
1925.0;1840.1;;;;-1.1764947;0.20154575;-0.31744006;;;;;;;;;;;;;;;
1925.0;1842.8;;;;;;;;;;8.1331835;-7.37785;1.5488143;;;;;;;;;
1925.0;1842.8;;;;;;;0.8995026;-0.08984649;-0.3086642;;;;;;;;;;;;
1925.0;1842.8;;;;;;;;;;8.262887;-7.526627;1.8349254;;;;;;;;;
1925.0;1842.8;;;;;;;0.90084535;-0.08685568;-0.3094577;;;;;;;;;;;;
1925.0;1843.0;262143;262143;11879;;;;;;;;;;;;;;;;;;
1925.0;1846.4;;;;;;;;;;;;;;;;;9.304331;43.11121;-101.10782;;1735.5
1925.0;1846.4;;;;;;;;;;;;;;1.3072299;0.27613148;0.1396527;;;;;1735.5
1925.0;1846.4;;;;;;;;;;;;;;;;;1.7700735;39.487133;-97.71264;;1735.5
1925.0;1846.4;;;;;;;;;;;;;;1.4415723;0.3373516;0.077455975;;;;;1735.5
1925.0;1846.4;;;;;;;;;;;;;;;;;-3.868221;37.671288;-95.786156;;1745.1
1925.0;1846.4;;;;;;;;;;;;;;1.5001068;0.37885678;0.020630512;;;;;1745.1
1925.0;1846.4;;;;;;;;;;;;;;;;;-8.274331;33.80688;-94.68368;;1745.1
1925.0;1846.4;;;;;;;;;;;;;;1.5257424;0.4136479;-0.044129767;;;;;1745.1
1925.0;1846.4;;;;;;;;;;;;;;;;;-12.028108;31.292915;-93.13867;;1754.5
1925.0;1846.4;;;;;;;;;;;;;;1.5325174;0.43043306;-0.08471938;;;;;1754.5
1925.0;1846.4;;;;;;;;;;;;;;;;;-14.149144;30.407879;-90.92608;;1754.5
1925.0;1846.4;;;;;;;;;;;;;;1.4897305;0.39344463;-0.092471085;;;;;1754.5
1926.0;1847.2;;;;;;;;;;;;;;;;;-14.8587;28.405102;-89.442116;;1764.2
1926.0;1847.2;;;;;;;;;;;;;;1.4303415;0.35462508;-0.08398694;;;;;1764.2
1926.0;1847.2;;;;;;;;;;;;;;;;;-17.685476;26.646475;-89.991455;;1764.2
1926.0;1847.2;;;;;;;;;;;;;;1.3528855;0.3147679;-0.07147435;;;;;1764.2
1926.0;1847.2;;;;;;;;;;;;;;;;;-19.085514;23.075808;-89.163635;;1773.8
1926.0;1847.2;;;;;;;;;;;;;;1.2700583;0.28370008;-0.042481765;;;;;1773.8
1926.0;1847.2;;;;;;;;;;;;;;;;;-20.836512;18.295847;-87.92001;;1773.8
1926.0;1847.2;;;;;;;;;;;;;;1.1955931;0.24622333;-0.021668142;;;;;1773.8
1926.0;1847.2;;;;;;;;;;;;;;;;;-22.019106;15.717033;-86.81372;;1783.5
1926.0;1847.2;;;;;;;;;;;;;;1.1142918;0.20075075;0.00286874;;;;;1783.5
1926.0;1847.2;;;;;;;;;;;;;;;;;-20.466475;15.488144;-85.940125;;1783.5
1926.0;1847.2;;;;;;;;;;;;;;1.0349437;0.17737357;0.057374798;;;;;1783.5
1926.0;1849.0;;;;;;;;;;;;;8567;;;;;;;;
1926.0;1849.0;;;;;;;;;;;;;8139;;;;;;;;
1926.0;1849.0;;;;;;;;;;;;;8226;;;;;;;;
1926.0;1849.0;;;;;;;;;;;;;8998;;;;;;;;
1926.0;1849.0;;;;;;;;;;;;;10003;;;;;;;;
1926.0;1850.1;;;;-1.1671067;0.19966891;-0.31254962;;;;;;;;;;;;;;;
1926.0;1850.1;;;;-1.1572114;0.19818118;-0.3067818;;;;;;;;;;;;;;;
1926.0;1850.1;;;;-1.1467401;0.19658282;-0.30132297;;;;;;;;;;;;;;;
1926.0;1850.1;;;;-1.1356088;0.19492725;-0.29581454;;;;;;;;;;;;;;;
1926.0;1850.1;;;;-1.124672;0.19363025;-0.2905121;;;;;;;;;;;;;;;
1926.0;1852.3;;;;;;;;;;8.198035;-7.560961;2.0523698;;;;;;;;;
1926.0;1852.3;;;;;;;0.90017396;-0.08386487;-0.3096408;;;;;;;;;;;;
1926.0;1852.3;;;;;;;;;;7.980591;-7.6525164;2.1019626;;;;;;;;;
1926.0;1852.3;;;;;;;0.89779353;-0.07983642;-0.31025118;;;;;;;;;;;;
1981.0;1860.2;;;;-1.1136934;0.1916962;-0.2856026;;;;;;;;;;;;;;;
1981.0;1860.2;;;;-1.1026231;0.18852618;-0.2813454;;;;;;;;;;;;;;;
1981.0;1860.2;;;;-1.0920564;0.1853409;-0.27674487;;;;;;;;;;;;;;;
1981.0;1860.2;;;;-1.0818635;0.18270113;-0.27248767;;;;;;;;;;;;;;;
1981.0;1860.2;;;;-1.0727426;0.18021013;-0.26798633;;;;;;;;;;;;;;;
1981.0;1861.8;;;;;;;;;;7.805109;-7.5380716;2.1210363;;;;;;;;;
1981.0;1861.8;;;;;;;0.8987701;-0.0761742;-0.31104466;;;;;;;;;;;;
1981.0;1861.8;;;;;;;;;;7.5991087;-7.4694057;2.193518;;;;;;;;;
1981.0;1861.8;;;;;;;0.8996857;-0.07318339;-0.30719933;;;;;;;;;;;;
1981.0;1863.0;262143;262143;11880;;;;;;;;;;;;;;;;;;
1981.0;1870.0;;;;-1.0643502;0.17736818;-0.26409915;;;;;;;;;;;;;;;
1981.0;1870.0;;;;-1.0572091;0.17477037;-0.26035693;;;;;;;;;;;;;;;
1981.0;1870.0;;;;-1.0504609;0.17252733;-0.25626758;;;;;;;;;;;;;;;
1981.0;1870.0;;;;-1.0452272;0.17037584;-0.2525864;;;;;;;;;;;;;;;
1981.0;1870.0;;;;-1.0408441;0.16865541;-0.24927142;;;;;;;;;;;;;;;
1981.0;1871.2;;;;;;;;;;7.316813;-7.4999237;2.3041475;;;;;;;;;
1981.0;1871.2;;;;;;;0.90047914;-0.07116917;-0.30176702;;;;;;;;;;;;
1981.0;1871.2;;;;;;;;;;7.0497756;-7.3473315;2.3842587;;;;;;;;;
1981.0;1871.2;;;;;;;0.9016999;-0.07104709;-0.29584643;;;;;;;;;;;;
1983.0;1879.7;;;;-1.0370294;0.16734697;-0.2458916;;;;;;;;;;;;;;;
1983.0;1879.7;;;;-1.0330888;0.1666298;-0.24255756;;;;;;;;;;;;;;;
1983.0;1879.7;;;;-1.0298806;0.1661339;-0.23899081;;;;;;;;;;;;;;;
1983.0;1879.7;;;;-1.02623;0.16572954;-0.23593906;;;;;;;;;;;;;;;
1983.0;1879.7;;;;-1.0225374;0.16540529;-0.23324206;;;;;;;;;;;;;;;
1983.0;1880.5;;;;;;;;;;6.7445908;-7.187109;2.5025177;;;;;;;;;
1983.0;1880.5;;;;;;;0.9000519;-0.06952117;-0.29016998;;;;;;;;;;;;
1983.0;1880.5;;;;;;;;;;6.5195165;-6.939146;2.578814;;;;;;;;;
1983.0;1880.5;;;;;;;0.8992584;-0.06591998;-0.28296763;;;;;;;;;;;;
1983.0;1882.7;262143;262143;11867;;;;;;;;;;;;;;;;;;
1983.0;1888.8;;;;;;;;;;;;;10907;;;;;;;;
1983.0;1888.8;;;;;;;;;;;;;11614;;;;;;;;
1983.0;1888.8;;;;;;;;;;;;;12097;;;;;;;;
1983.0;1888.8;;;;;;;;;;;;;12297;;;;;;;;
1983.0;1888.8;;;;;;;;;;;;;12352;;;;;;;;
1983.0;1889.8;;;;-1.0185205;0.16533662;-0.23065189;;;;;;;;;;;;;;;
1983.0;1889.8;;;;-1.0154878;0.16596605;-0.22913745;;;;;;;;;;;;;;;
1983.0;1889.8;;;;-1.0127908;0.16641618;-0.22705081;;;;;;;;;;;;;;;
1983.0;1889.8;;;;-1.0104753;0.16670229;-0.22576144;;;;;;;;;;;;;;;
1983.0;1889.8;;;;-1.0082093;0.16690065;-0.22434619;;;;;;;;;;;;;;;
1983.0;1890.1;;;;;;;;;;6.2944427;-6.431776;2.5673697;;;;;;;;;
1983.0;1890.1;;;;;;;0.9005402;-0.06366161;-0.27430037;;;;;;;;;;;;
1983.0;1890.1;;;;;;;;;;6.0388503;-5.9282207;2.494888;;;;;;;;;
1983.0;1890.1;;;;;;;0.9026154;-0.061830502;-0.26673177;;;;;;;;;;;;
1987.0;1899.7;;;;;;;;;;5.8442945;-5.5887017;2.4338512;;;;;;;;;
1987.0;1899.7;;;;;;;0.9043855;-0.060060427;-0.2583697;;;;;;;;;;;;
1987.0;1899.7;;;;;;;;;;5.6993318;-5.1881466;2.3613698;;;;;;;;;
1987.0;1899.7;;;;;;;0.9030427;-0.058534503;-0.25086215;;;;;;;;;;;;
1987.0;1899.9;;;;-1.0057222;0.16707231;-0.22369006;;;;;;;;;;;;;;;
1987.0;1899.9;;;;-1.0031358;0.16724397;-0.22257617;;;;;;;;;;;;;;;
1987.0;1899.9;;;;-1.0000573;0.16711809;-0.2207146;;;;;;;;;;;;;;;
1987.0;1899.9;;;;-0.9969255;0.16619493;-0.22084048;;;;;;;;;;;;;;;
1987.0;1899.9;;;;-0.9931718;0.16632082;-0.22056583;;;;;;;;;;;;;;;
1987.0;1903.0;262143;262143;11864;;;;;;;;;;;;;;;;;;
1987.0;1906.7;;;;;;;;;;;;;;;;;-19.24192;14.965514;-83.76568;;1793.1
1987.0;1906.7;;;;;;;;;;;;;;0.95834225;0.14978485;0.09869686;;;;;1793.1
1987.0;1906.7;;;;;;;;;;;;;;;;;-17.063662;12.417218;-80.95798;;1793.1
1987.0;1906.7;;;;;;;;;;;;;;0.8874172;0.13031404;0.12891018;;;;;1793.1
1987.0;1906.7;;;;;;;;;;;;;;;;;-15.518662;8.411665;-79.252754;;1802.7
1987.0;1906.7;;;;;;;;;;;;;;0.82680744;0.14325388;0.12103641;;;;;1802.7
1987.0;1906.7;;;;;;;;;;;;;;;;;-13.214515;4.562517;-76.17802;;1802.7
1987.0;1906.7;;;;;;;;;;;;;;0.77388835;0.15460677;0.0933256;;;;;1802.7
1987.0;1906.7;;;;;;;;;;;;;;;;;-10.795923;2.3804438;-73.25968;;1812.4
1987.0;1906.7;;;;;;;;;;;;;;0.7253029;0.19550157;0.07751702;;;;;1812.4
1987.0;1906.7;;;;;;;;;;;;;;;;;-10.998108;1.3885921;-69.03287;;1812.4
1987.0;1906.7;;;;;;;;;;;;;;0.6961882;0.22772911;0.08197272;;;;;1812.4
1989.0;1907.4;;;;;;;;;;;;;;;;;-12.1654415;1.3122959;-63.791313;;1821.8
1989.0;1907.4;;;;;;;;;;;;;;0.68184453;0.26862392;0.122989595;;;;;1821.8
1989.0;1907.4;;;;;;;;;;;;;;;;;-14.126255;-0.0038148137;-58.439133;;1821.8
1989.0;1907.4;;;;;;;;;;;;;;0.6986908;0.329722;0.17548142;;;;;1821.8
1989.0;1907.4;;;;;;;;;;;;;;;;;-16.342663;-4.325999;-52.919098;;1831.5
1989.0;1907.4;;;;;;;;;;;;;;0.72817165;0.37067783;0.20905179;;;;;1831.5
1989.0;1907.4;;;;;;;;;;;;;;;;;-19.665363;-7.9348125;-48.60454;;1831.5
1989.0;1907.4;;;;;;;;;;;;;;0.7388531;0.4132206;0.2268746;;;;;1831.5
1989.0;1907.4;;;;;;;;;;;;;;;;;-24.662771;-9.693442;-44.026768;;1841.1
1989.0;1907.4;;;;;;;;;;;;;;0.74782556;0.44257942;0.25006866;;;;;1841.1
1989.0;1907.4;;;;;;;;;;;;;;;;;-31.308174;-9.849849;-39.059875;;1841.1
1989.0;1907.4;;;;;;;;;;;;;;0.7515488;0.45960876;0.27124852;;;;;1841.1
1989.0;1909.1;;;;;;;;;;5.5810723;-4.936369;2.2278512;;;;;;;;;
1989.0;1909.1;;;;;;;0.9027375;-0.05841243;-0.24475844;;;;;;;;;;;;
1989.0;1909.1;;;;;;;;;;5.542924;-4.5968504;2.128666;;;;;;;;;
1989.0;1909.1;;;;;;;0.8992584;-0.055543687;-0.23535874;;;;;;;;;;;;
1989.0;1909.8;;;;-0.98965466;0.16578294;-0.22030643;;;;;;;;;;;;;;;
1989.0;1909.8;;;;-0.98573697;0.16566469;-0.21925738;;;;;;;;;;;;;;;
1989.0;1909.8;;;;-0.98116314;0.16550829;-0.21894076;;;;;;;;;;;;;;;
1989.0;1909.8;;;;-0.9772302;0.1650963;-0.21855548;;;;;;;;;;;;;;;
1989.0;1909.8;;;;-0.9733583;0.16503908;-0.21869662;;;;;;;;;;;;;;;
1989.0;1918.6;;;;;;;;;;5.653554;-4.3717766;2.0447402;;;;;;;;;
1989.0;1918.6;;;;;;;0.895352;-0.052797023;-0.23041475;;;;;;;;;;;;
1989.0;1918.6;;;;;;;;;;5.733665;-4.116184;2.0142217;;;;;;;;;
1989.0;1918.6;;;;;;;0.89278847;-0.05121006;-0.22608112;;;;;;;;;;;;
2039.0;1919.8;;;;-0.9693185;0.1643715;-0.2192078;;;;;;;;;;;;;;;
2039.0;1919.8;;;;-0.964882;0.16357042;-0.21950915;;;;;;;;;;;;;;;
2039.0;1919.8;;;;-0.9606172;0.16210939;-0.2190018;;;;;;;;;;;;;;;
2039.0;1919.8;;;;-0.95607007;0.16096117;-0.21892932;;;;;;;;;;;;;;;
2039.0;1919.8;;;;-0.9522859;0.15890123;-0.2191582;;;;;;;;;;;;;;;
2039.0;1922.8;262143;262143;11860;;;;;;;;;;;;;;;;;;
2039.0;1928.1;;;;;;;;;;5.706961;-3.7957397;1.8616291;;;;;;;;;
2039.0;1928.1;;;;;;;0.8908353;-0.047425766;-0.2240669;;;;;;;;;;;;
2039.0;1928.1;;;;;;;;;;5.8442945;-3.4333322;1.7128513;;;;;;;;;
2039.0;1928.1;;;;;;;0.88827175;-0.047059543;-0.22412793;;;;;;;;;;;;
2039.0;1928.9;;;;;;;;;;;;;12596;;;;;;;;
2039.0;1928.9;;;;;;;;;;;;;13127;;;;;;;;
2039.0;1928.9;;;;;;;;;;;;;13604;;;;;;;;
2039.0;1928.9;;;;;;;;;;;;;13367;;;;;;;;
2039.0;1928.9;;;;;;;;;;;;;12229;;;;;;;;
2039.0;1929.7;;;;-0.94804394;0.15709688;-0.21912387;;;;;;;;;;;;;;;
2039.0;1929.7;;;;-0.9427682;0.15475847;-0.21832278;;;;;;;;;;;;;;;
2039.0;1929.7;;;;-0.93712246;0.15227892;-0.2181969;;;;;;;;;;;;;;;
2039.0;1929.7;;;;-0.93182003;0.15005876;-0.21809772;;;;;;;;;;;;;;;
2039.0;1929.7;;;;-0.9260522;0.14785005;-0.21776584;;;;;;;;;;;;;;;
2039.0;1937.7;;;;;;;;;;6.042665;-3.238777;1.5221107;;;;;;;;;
2039.0;1937.7;;;;;;;0.8829005;-0.043519396;-0.22229682;;;;;;;;;;;;
2039.0;1937.7;;;;;;;;;;6.286813;-3.1205175;1.4343699;;;;;;;;;
2039.0;1937.7;;;;;;;0.8806421;-0.04199347;-0.22266304;;;;;;;;;;;;
2042.0;1939.8;;;;-0.9202157;0.14537813;-0.21771625;;;;;;;;;;;;;;;
2042.0;1939.8;;;;-0.91416943;0.14306642;-0.21725085;;;;;;;;;;;;;;;
2042.0;1939.8;;;;-0.9082681;0.14083482;-0.21672061;;;;;;;;;;;;;;;
2042.0;1939.8;;;;-0.9025575;0.13761522;-0.21657184;;;;;;;;;;;;;;;
2042.0;1939.8;;;;-0.8968545;0.13489152;-0.2166405;;;;;;;;;;;;;;;
2042.0;1943.0;262143;262143;11853;;;;;;;;;;;;;;;;;;
2042.0;1947.3;;;;;;;;;;6.3974423;-2.7962584;1.3962218;;;;;;;;;
2042.0;1947.3;;;;;;;0.88320565;-0.04016236;-0.22632527;;;;;;;;;;;;
2042.0;1947.3;;;;;;;;;;6.611072;-2.3651845;1.3275552;;;;;;;;;
2042.0;1947.3;;;;;;;0.88534194;-0.03851436;-0.22675252;;;;;;;;;;;;
2042.0;1949.9;;;;-0.8915101;0.13230135;-0.21679309;;;;;;;;;;;;;;;
2042.0;1949.9;;;;-0.8859788;0.12877657;-0.21650699;;;;;;;;;;;;;;;
2042.0;1949.9;;;;-0.8801309;0.12565996;-0.2165871;;;;;;;;;;;;;;;
2042.0;1949.9;;;;-0.87420666;0.12281419;-0.21631244;;;;;;;;;;;;;;;
2042.0;1949.9;;;;-0.8684045;0.11956407;-0.21600726;;;;;;;;;;;;;;;
2042.0;1956.9;;;;;;;;;;6.8742943;-1.823481;1.1902219;;;;;;;;;
2042.0;1956.9;;;;;;;0.88772243;-0.037049472;-0.22937712;;;;;;;;;;;;
2042.0;1956.9;;;;;;;;;;7.106998;-1.167333;0.98803675;;;;;;;;;
2042.0;1956.9;;;;;;;0.88650167;-0.03869747;-0.23071994;;;;;;;;;;;;
2043.0;1960.0;;;;-0.8627511;0.11677171;-0.2156792;;;;;;;;;;;;;;;
2043.0;1960.0;;;;-0.8574716;0.11370851;-0.21466449;;;;;;;;;;;;;;;
2043.0;1960.0;;;;-0.85276043;0.11114122;-0.21310428;;;;;;;;;;;;;;;
2043.0;1960.0;;;;-0.8485452;0.108936325;-0.21229938;;;;;;;;;;;;;;;
2043.0;1960.0;;;;-0.8442155;0.10677339;-0.21164325;;;;;;;;;;;;;;;
2043.0;1963.3;262143;262143;11848;;;;;;;;;;;;;;;;;;
2043.0;1966.6;;;;;;;;;;;;;;;;;-38.346508;-8.89233;-33.913692;;1850.8
2043.0;1966.6;;;;;;;;;;;;;;0.75643176;0.4646138;0.28717917;;;;;1850.8
2043.0;1966.6;;;;;;;;;;;;;;;;;-46.13254;-6.557665;-28.073214;;1850.8
2043.0;1966.6;;;;;;;;;;;;;;0.7540513;0.4439833;0.2898648;;;;;1850.8
2043.0;1966.6;;;;;;;;;;;;;;;;;-53.23191;-2.6131475;-22.778252;;1860.4
2043.0;1966.6;;;;;;;;;;;;;;0.7406842;0.41920224;0.29255044;;;;;1860.4
2043.0;1966.6;;;;;;;;;;;;;;;;;-58.1225;0.41199988;-18.261513;;1860.4
2043.0;1966.6;;;;;;;;;;;;;;0.71968746;0.38929412;0.29725027;;;;;1860.4
2043.0;1966.6;;;;;;;;;;;;;;;;;-60.129093;0.5302591;-14.007996;;1870.1
2043.0;1966.6;;;;;;;;;;;;;;0.697409;0.3568224;0.26142156;;;;;1870.1
2043.0;1966.6;;;;;;;;;;;;;;;;;-59.743797;0.15259254;-9.792626;;1870.1
2043.0;1966.6;;;;;;;;;;;;;;0.6816004;0.32044435;0.23175757;;;;;1870.1
2043.0;1966.4;;;;;;;;;;7.4121833;-0.43870357;0.82399976;;;;;;;;;
2043.0;1966.4;;;;;;;0.88320565;-0.037110507;-0.23041475;;;;;;;;;;;;
2043.0;1966.4;;;;;;;;;;7.6906643;0.3929258;0.7820368;;;;;;;;;
2043.0;1966.4;;;;;;;0.8763085;-0.036744285;-0.23224586;;;;;;;;;;;;
2044.0;1967.4;;;;;;;;;;;;;;;;;-59.034245;0.12588885;-5.897702;;1879.6
2044.0;1967.4;;;;;;;;;;;;;;0.65004426;0.2616657;0.19428083;;;;;1879.6
2044.0;1967.4;;;;;;;;;;;;;;;;;-56.74917;0.7324442;-1.6747032;;1879.6
2044.0;1967.4;;;;;;;;;;;;;;0.61610764;0.18964201;0.17285684;;;;;1879.6
2044.0;1967.4;;;;;;;;;;;;;;;;;-53.17469;1.575518;2.4109623;;1889.2
2044.0;1967.4;;;;;;;;;;;;;;0.5895566;0.13269448;0.16760765;;;;;1889.2
2044.0;1967.4;;;;;;;;;;;;;;;;;-47.925507;0.48066652;7.316813;;1889.2
2044.0;1967.4;;;;;;;;;;;;;;0.5597705;0.087466046;0.1521653;;;;;1889.2
2044.0;1967.4;;;;;;;;;;;;;;;;;-39.68932;-1.9341105;11.539811;;1898.9
2044.0;1967.4;;;;;;;;;;;;;;0.53975034;0.06549272;0.12469863;;;;;1898.9
2044.0;1967.4;;;;;;;;;;;;;;;;;-30.060732;-4.581591;16.674551;;1898.9
2044.0;1967.4;;;;;;;;;;;;;;0.52430797;0.05511643;0.11633656;;;;;1898.9
2044.0;1969.2;;;;;;;;;;;;;10876;;;;;;;;
2044.0;1969.2;;;;;;;;;;;;;10070;;;;;;;;
2044.0;1969.2;;;;;;;;;;;;;10050;;;;;;;;
2044.0;1969.2;;;;;;;;;;;;;10466;;;;;;;;
2044.0;1969.2;;;;;;;;;;;;;10881;;;;;;;;
2044.0;1970.0;;;;-0.8405076;0.104274765;-0.2104607;;;;;;;;;;;;;;;
2044.0;1970.0;;;;-0.8367692;0.10234834;-0.20933154;;;;;;;;;;;;;;;
2044.0;1970.0;;;;-0.8325387;0.100296035;-0.2080765;;;;;;;;;;;;;;;
2044.0;1970.0;;;;-0.8293382;0.09850313;-0.20660403;;;;;;;;;;;;;;;
2044.0;1970.0;;;;-0.8256608;0.09701158;-0.205349;;;;;;;;;;;;;;;
2044.0;1976.0;;;;;;;;;;7.9081087;1.1787775;0.6065554;;;;;;;;;
2044.0;1976.0;;;;;;;0.87203586;-0.033448286;-0.23218483;;;;;;;;;;;;
2044.0;1976.0;;;;;;;;;;8.136998;1.8768883;0.46922207;;;;;;;;;
2044.0;1976.0;;;;;;;0.8642842;-0.030396435;-0.23303933;;;;;;;;;;;;
2100.0;1980.1;;;;-0.82167065;0.095390335;-0.20499042;;;;;;;;;;;;;;;
2100.0;1980.1;;;;-0.8175508;0.093284614;-0.20473102;;;;;;;;;;;;;;;
2100.0;1980.1;;;;-0.8132554;0.091320045;-0.20518878;;;;;;;;;;;;;;;
2100.0;1980.1;;;;-0.80903256;0.08927537;-0.20500949;;;;;;;;;;;;;;;
2100.0;1980.1;;;;-0.8043672;0.08735276;-0.20468143;;;;;;;;;;;;;;;
2100.0;1983.3;262143;262143;11855;;;;;;;;;;;;;;;;;;
2100.0;1985.5;;;;;;;;;;8.541368;2.6512957;0.3089999;;;;;;;;;
2100.0;1985.5;;;;;;;0.8600116;-0.031311993;-0.23444319;;;;;;;;;;;;
2100.0;1985.5;;;;;;;;;;8.79696;3.2311473;0.095370345;;;;;;;;;
2100.0;1985.5;;;;;;;0.85439616;-0.030396435;-0.23157445;;;;;;;;;;;;
2100.0;1989.8;;;;-0.79924405;0.08529664;-0.20508197;;;;;;;;;;;;;;;
2100.0;1989.8;;;;-0.7939874;0.08302308;-0.20505908;;;;;;;;;;;;;;;
2100.0;1989.8;;;;-0.789425;0.08094407;-0.20536807;;;;;;;;;;;;;;;
2100.0;1989.8;;;;-0.7851182;0.079105385;-0.2054787;;;;;;;;;;;;;;;
2100.0;1989.8;;;;-0.7812768;0.07757569;-0.20503238;;;;;;;;;;;;;;;
2100.0;1994.8;;;;;;;;;;9.056368;3.7804804;-0.21744438;;;;;;;;;
2100.0;1994.8;;;;;;;0.8438978;-0.03009125;-0.22998749;;;;;;;;;;;;
2100.0;1994.8;;;;;;;;;;9.346293;4.3031096;-0.59892577;;;;;;;;;
2100.0;1994.8;;;;;;;0.83602405;-0.03173925;-0.2278512;;;;;;;;;;;;
2102.0;1999.8;;;;-0.7779962;0.07602311;-0.20527652;;;;;;;;;;;;;;;
2102.0;1999.8;;;;-0.7742578;0.07452393;-0.20492557;;;;;;;;;;;;;;;
2102.0;1999.8;;;;-0.77061856;0.073257454;-0.20449069;;;;;;;;;;;;;;;
2102.0;1999.8;;;;-0.767048;0.07151414;-0.20444873;;;;;;;;;;;;;;;
2102.0;1999.8;;;;-0.7637216;0.070213325;-0.20354083;;;;;;;;;;;;;;;
2102.0;2003.2;262143;262143;11849;;;;;;;;;;;;;;;;;;
2102.0;2004.4;;;;;;;;;;9.475998;4.7875915;-0.9498886;;;;;;;;;
2102.0;2004.4;;;;;;;0.826014;-0.030213324;-0.22376171;;;;;;;;;;;;
2102.0;2004.4;;;;;;;;;;9.781182;5.203406;-1.3122959;;;;;;;;;
2102.0;2004.4;;;;;;;0.8153935;-0.029053621;-0.21967223;;;;;;;;;;;;
2102.0;2009.2;;;;;;;;;;;;;11222;;;;;;;;
2102.0;2009.2;;;;;;;;;;;;;11562;;;;;;;;
2102.0;2009.2;;;;;;;;;;;;;11829;;;;;;;;
2102.0;2009.2;;;;;;;;;;;;;11928;;;;;;;;
2102.0;2009.2;;;;;;;;;;;;;11974;;;;;;;;
2102.0;2009.9;;;;-0.7600404;0.068500526;-0.20243457;;;;;;;;;;;;;;;
2102.0;2009.9;;;;-0.7557641;0.06716538;-0.2016373;;;;;;;;;;;;;;;
2102.0;2009.9;;;;-0.7517282;0.06546784;-0.2011185;;;;;;;;;;;;;;;
2102.0;2009.9;;;;-0.7483788;0.06409455;-0.20032504;;;;;;;;;;;;;;;
2102.0;2009.9;;;;-0.74493796;0.062374122;-0.20033267;;;;;;;;;;;;;;;
2102.0;2014.0;;;;;;;;;;10.025331;5.794702;-1.6556292;;;;;;;;;
2102.0;2014.0;;;;;;;0.8058718;-0.029114658;-0.21710868;;;;;;;;;;;;
2102.0;2014.0;;;;;;;;;;10.258034;6.107517;-2.1095922;;;;;;;;;
2102.0;2014.0;;;;;;;0.797998;-0.026795251;-0.2146672;;;;;;;;;;;;
2105.0;2020.1;;;;-0.7419892;0.061012276;-0.1998215;;;;;;;;;;;;;;;
2105.0;2020.1;;;;-0.73897177;0.05944062;-0.19988635;;;;;;;;;;;;;;;
2105.0;2020.1;;;;-0.736229;0.05762864;-0.19953921;;;;;;;;;;;;;;;
2105.0;2020.1;;;;-0.7334252;0.05539704;-0.1990166;;;;;;;;;;;;;;;
2105.0;2020.1;;;;-0.73092276;0.05358506;-0.19855884;;;;;;;;;;;;;;;
2105.0;2023.7;;;;;;;;;;10.391553;6.344035;-2.5063326;;;;;;;;;
2105.0;2023.7;;;;;;;0.7934202;-0.02417066;-0.21448408;;;;;;;;;;;;
2105.0;2023.7;;;;;;;;;;10.597552;6.714072;-2.9221473;;;;;;;;;
2105.0;2023.7;;;;;;;0.7874386;-0.022583697;-0.2120426;;;;;;;;;;;;
2105.0;2023.5;262143;262143;11854;;;;;;;;;;;;;;;;;;
2105.0;2027.1;;;;;;;;;;;;;;;;;-21.00055;-6.9963684;22.545547;;1908.6
2105.0;2027.1;;;;;;;;;;;;;;0.51008636;0.03234962;0.11181982;;;;;1908.6
2105.0;2027.1;;;;;;;;;;;;;;;;;-12.99707;-8.632923;28.603474;;1908.6
2105.0;2027.1;;;;;;;;;;;;;;0.5084994;0.006775109;0.120365;;;;;1908.6
2105.0;2027.1;;;;;;;;;;;;;;;;;-5.5887017;-10.521256;35.134434;;1918.3
2105.0;2027.1;;;;;;;;;;;;;;0.5218665;-0.02722251;0.13696708;;;;;1918.3
2105.0;2027.1;;;;;;;;;;;;;;;;;1.2512589;-13.149663;41.329693;;1918.3
2105.0;2027.1;;;;;;;;;;;;;;0.5365154;-0.04998932;0.13159582;;;;;1918.3
2105.0;2027.1;;;;;;;;;;;;;;;;;7.1832943;-14.316996;46.811577;;1927.6
2105.0;2027.1;;;;;;;;;;;;;;0.537553;-0.06573687;0.1274453;;;;;1927.6
2105.0;2027.1;;;;;;;;;;;;;;;;;12.882626;-14.927366;51.25202;;1927.6
2105.0;2027.1;;;;;;;;;;;;;;0.5386517;-0.049867246;0.13782158;;;;;1927.6
2109.0;2027.8;;;;;;;;;;;;;;;;;18.230995;-16.49907;55.53224;;1937.2
2109.0;2027.8;;;;;;;;;;;;;;0.54200876;-0.030274361;0.12720115;;;;;1937.2
2109.0;2027.8;;;;;;;;;;;;;;;;;23.621326;-18.528551;59.003723;;1937.2
2109.0;2027.8;;;;;;;;;;;;;;0.54341257;-0.005981628;0.09741508;;;;;1937.2
2109.0;2027.8;;;;;;;;;;;;;;;;;28.233437;-19.318218;61.437572;;1946.9
2109.0;2027.8;;;;;;;;;;;;;;0.55207986;0.031311993;0.06884976;;;;;1946.9
2109.0;2027.8;;;;;;;;;;;;;;;;;31.674397;-17.746513;63.425095;;1946.9
2109.0;2027.8;;;;;;;;;;;;;;0.54664755;0.06714072;0.07586902;;;;;1946.9
2109.0;2027.8;;;;;;;;;;;;;;;;;33.08588;-16.38081;63.6578;;1956.6
2109.0;2027.8;;;;;;;;;;;;;;0.5476241;0.11896115;0.09338664;;;;;1956.6
2109.0;2027.8;;;;;;;;;;;;;;;;;34.752953;-17.063662;64.996796;;1956.6
2109.0;2027.8;;;;;;;;;;;;;;0.5410932;0.15790276;0.11017182;;;;;1956.6
2109.0;2029.9;;;;-0.7284165;0.051898964;-0.19773868;;;;;;;;;;;;;;;
2109.0;2029.9;;;;-0.7268296;0.049854286;-0.1973305;;;;;;;;;;;;;;;
2109.0;2029.9;;;;-0.72523504;0.048515327;-0.19635013;;;;;;;;;;;;;;;
2109.0;2029.9;;;;-0.7244263;0.04661179;-0.19581988;;;;;;;;;;;;;;;
2109.0;2029.9;;;;-0.7239571;0.045299534;-0.1956177;;;;;;;;;;;;;;;
2109.0;2033.0;;;;;;;;;;10.795923;6.878109;-3.4638507;;;;;;;;;
2109.0;2033.0;;;;;;;0.78078556;-0.01904355;-0.20850246;;;;;;;;;;;;
2109.0;2033.0;;;;;;;;;;10.944701;7.0917387;-3.9750361;;;;;;;;;
2109.0;2033.0;;;;;;;0.7741325;-0.019470809;-0.20685446;;;;;;;;;;;;
2160.0;2040.0;;;;-0.72473913;0.043766025;-0.19538882;;;;;;;;;;;;;;;
2160.0;2040.0;;;;-0.7256318;0.04244614;-0.19553378;;;;;;;;;;;;;;;
2160.0;2040.0;;;;-0.726059;0.040802006;-0.19533542;;;;;;;;;;;;;;;
2160.0;2040.0;;;;-0.7255822;0.0399437;-0.1957703;;;;;;;;;;;;;;;
2160.0;2040.0;;;;-0.725586;0.03811646;-0.19580844;;;;;;;;;;;;;;;
2160.0;2042.5;;;;;;;;;;11.120181;7.553331;-4.3641467;;;;;;;;;
2160.0;2042.5;;;;;;;0.7685782;-0.01800592;-0.20722067;;;;;;;;;;;;
2160.0;2042.5;;;;;;;;;;11.333811;7.904294;-4.8219247;;;;;;;;;
2160.0;2042.5;;;;;;;0.7646107;-0.01495407;-0.2069155;;;;;;;;;;;;
2160.0;2043.4;262143;262143;11858;;;;;;;;;;;;;;;;;;
2160.0;2049.3;;;;;;;;;;;;;11956;;;;;;;;
2160.0;2049.3;;;;;;;;;;;;;11599;;;;;;;;
2160.0;2049.3;;;;;;;;;;;;;10858;;;;;;;;
2160.0;2049.3;;;;;;;;;;;;;10040;;;;;;;;
2160.0;2049.3;;;;;;;;;;;;;9645;;;;;;;;
2160.0;2050.0;;;;-0.72583395;0.03684235;-0.19609073;;;;;;;;;;;;;;;
2160.0;2050.0;;;;-0.72591406;0.03578568;-0.19519809;;;;;;;;;;;;;;;
2160.0;2050.0;;;;-0.7264214;0.03463364;-0.19498447;;;;;;;;;;;;;;;
2160.0;2050.0;;;;-0.7274514;0.033588413;-0.19449618;;;;;;;;;;;;;;;
2160.0;2050.0;;;;-0.7288285;0.032752994;-0.19449618;;;;;;;;;;;;;;;
2160.0;2052.0;;;;;;;;;;11.547441;8.152257;-5.203406;;;;;;;;;
2160.0;2052.0;;;;;;;0.7592395;-0.015808588;-0.20612201;;;;;;;;;;;;
2160.0;2052.0;;;;;;;;;;11.688589;8.377332;-5.6344795;;;;;;;;;
2160.0;2052.0;;;;;;;0.75551623;-0.015442366;-0.20471816;;;;;;;;;;;;
2166.0;2059.7;;;;-0.7302132;0.03188706;-0.19425204;;;;;;;;;;;;;;;
2166.0;2059.7;;;;-0.7310105;0.03172684;-0.19415286;;;;;;;;;;;;;;;
2166.0;2059.7;;;;-0.73268515;0.031471256;-0.19362643;;;;;;;;;;;;;;;
2166.0;2059.7;;;;-0.7344361;0.03117371;-0.19360355;;;;;;;;;;;;;;;
2166.0;2059.7;;;;-0.73605734;0.031219486;-0.19371799;;;;;;;;;;;;;;;
2166.0;2061.4;;;;;;;;;;11.894589;8.709219;-6.103702;;;;;;;;;
2166.0;2061.4;;;;;;;0.7493515;-0.013061922;-0.2024598;;;;;;;;;;;;
2166.0;2061.4;;;;;;;;;;12.146367;9.136478;-6.408887;;;;;;;;;
2166.0;2061.4;;;;;;;0.74349195;-0.010376293;-0.20007935;;;;;;;;;;;;
2166.0;2063.3;262143;262143;11852;;;;;;;;;;;;;;;;;;
2166.0;2069.9;;;;-0.73743445;0.031028751;-0.19429019;;;;;;;;;;;;;;;
2166.0;2069.9;;;;-0.73940665;0.03042603;-0.1948128;;;;;;;;;;;;;;;
2166.0;2069.9;;;;-0.7414513;0.030860905;-0.19503024;;;;;;;;;;;;;;;
2166.0;2069.9;;;;-0.74423605;0.03042603;-0.19518664;;;;;;;;;;;;;;;
2166.0;2069.9;;;;-0.747448;0.030933384;-0.19585422;;;;;;;;;;;;;;;
2166.0;2071.0;;;;;;;;;;12.417218;9.651479;-6.7026277;;;;;;;;;
2166.0;2071.0;;;;;;;0.7421491;-0.01043733;-0.19794305;;;;;;;;;;;;
2166.0;2071.0;;;;;;;;;;12.672811;10.139774;-6.8857384;;;;;;;;;
2166.0;2071.0;;;;;;;0.7330546;-0.007080294;-0.1984924;;;;;;;;;;;;
2168.0;2080.0;;;;-0.750229;0.03111649;-0.19693759;;;;;;;;;;;;;;;
2168.0;2080.0;;;;-0.75325024;0.031105045;-0.19741061;;;;;;;;;;;;;;;
2168.0;2080.0;;;;-0.7557527;0.030593876;-0.19809726;;;;;;;;;;;;;;;
2168.0;2080.0;;;;-0.7582208;0.030967716;-0.19895557;;;;;;;;;;;;;;;
2168.0;2080.0;;;;-0.760872;0.030437473;-0.20037463;;;;;;;;;;;;;;;
2168.0;2080.7;;;;;;;;;;12.878811;10.639516;-7.168035;;;;;;;;;
2168.0;2080.7;;;;;;;0.72725606;-0.0054933317;-0.20026246;;;;;;;;;;;;
2168.0;2080.7;;;;;;;;;;13.046663;10.944701;-7.362591;;;;;;;;;
2168.0;2080.7;;;;;;;0.72255623;-0.0018921476;-0.2014832;;;;;;;;;;;;
2168.0;2083.5;262143;262143;11851;;;;;;;;;;;;;;;;;;
2168.0;2086.8;;;;;;;;;;;;;;;;;36.099583;-19.714956;66.37013;;1966.2
2168.0;2086.8;;;;;;;;;;;;;;0.53993344;0.18781091;0.10052797;;;;;1966.2
2168.0;2086.8;;;;;;;;;;;;;;;;;38.293102;-23.0224;67.94564;;1966.2
2168.0;2086.8;;;;;;;;;;;;;;0.544084;0.20685446;0.088137455;;;;;1966.2
2168.0;2086.8;;;;;;;;;;;;;;;;;39.857174;-26.455732;69.921715;;1975.9
2168.0;2086.8;;;;;;;;;;;;;;0.55293435;0.22797327;0.07641835;;;;;1975.9
2168.0;2086.8;;;;;;;;;;;;;;;;;40.864285;-29.339733;72.66076;;1975.9
2168.0;2086.8;;;;;;;;;;;;;;0.55964845;0.22583698;0.063539535;;;;;1975.9
2168.0;2086.8;;;;;;;;;;;;;;;;;41.684467;-30.442213;74.40794;;1985.4
2168.0;2086.8;;;;;;;;;;;;;;0.5713065;0.24640645;0.058717612;;;;;1985.4
2168.0;2086.8;;;;;;;;;;;;;;;;;42.165134;-30.354471;76.05595;;1985.4
2168.0;2086.8;;;;;;;;;;;;;;0.57686085;0.25702688;0.05841243;;;;;1985.4
2170.0;2087.6;;;;;;;;;;;;;;;;;43.60332;-29.114658;76.10554;;1994.8
2170.0;2087.6;;;;;;;;;;;;;;0.57350385;0.28736228;0.05285806;;;;;1994.8
2170.0;2087.6;;;;;;;;;;;;;;;;;45.278023;-26.707512;75.58672;;1994.8
2170.0;2087.6;;;;;;;;;;;;;;0.5706351;0.33112583;0.058717612;;;;;1994.8
2170.0;2087.6;;;;;;;;;;;;;;;;;46.36906;-25.036621;75.44176;;2004.5
2170.0;2087.6;;;;;;;;;;;;;;0.590289;0.35627308;0.058534503;;;;;2004.5
2170.0;2087.6;;;;;;;;;;;;;;;;;49.45143;-22.972807;75.8385;;2004.5
2170.0;2087.6;;;;;;;;;;;;;;0.58839685;0.37800226;0.057069615;;;;;2004.5
2170.0;2087.6;;;;;;;;;;;;;;;;;53.430283;-21.473587;74.41557;;2014.1
2170.0;2087.6;;;;;;;;;;;;;;0.5874203;0.41389203;0.05426191;;;;;2014.1
2170.0;2087.6;;;;;;;;;;;;;;;;;57.496872;-22.621845;74.76272;;2014.1
2170.0;2087.6;;;;;;;;;;;;;;0.6111637;0.4276864;0.038880583;;;;;2014.1
2170.0;2089.4;;;;;;;;;;;;;9823;;;;;;;;
2170.0;2089.4;;;;;;;;;;;;;10150;;;;;;;;
2170.0;2089.4;;;;;;;;;;;;;10240;;;;;;;;
2170.0;2089.4;;;;;;;;;;;;;10153;;;;;;;;
2170.0;2089.4;;;;;;;;;;;;;10141;;;;;;;;
2170.0;2089.9;;;;-0.7638551;0.030776981;-0.20150378;;;;;;;;;;;;;;;
2170.0;2089.9;;;;-0.76692593;0.030651096;-0.20331576;;;;;;;;;;;;;;;
2170.0;2089.9;;;;-0.7703744;0.031162266;-0.20404437;;;;;;;;;;;;;;;
2170.0;2089.9;;;;-0.7742387;0.031364445;-0.20481876;;;;;;;;;;;;;;;
2170.0;2089.9;;;;-0.77827847;0.03203583;-0.20571521;;;;;;;;;;;;;;;
2170.0;2090.1;;;;;;;;;;13.241219;11.272774;-7.4541464;;;;;;;;;
2170.0;2090.1;;;;;;;0.7193823;1.8311106E-4;-0.20252083;;;;;;;;;;;;
2170.0;2090.1;;;;;;;;;;13.485367;11.474959;-7.5380716;;;;;;;;;
2170.0;2090.1;;;;;;;0.71864986;0.0023804437;-0.20117801;;;;;;;;;;;;
2172.0;2099.8;;;;;;;;;;13.676107;11.585589;-7.5838494;;;;;;;;;
2172.0;2099.8;;;;;;;0.72164065;0.003051851;-0.20337535;;;;;;;;;;;;
2172.0;2099.8;;;;;;;;;;13.897366;11.379589;-7.629627;;;;;;;;;
2172.0;2099.8;;;;;;;0.7235328;0.0076906644;-0.20520645;;;;;;;;;;;;
2172.0;2100.0;;;;-0.78283703;0.032566074;-0.20679858;;;;;;;;;;;;;;;
2172.0;2100.0;;;;-0.7875024;0.033290867;-0.20757297;;;;;;;;;;;;;;;
2172.0;2100.0;;;;-0.79151547;0.034530643;-0.20748523;;;;;;;;;;;;;;;
2172.0;2100.0;;;;-0.79514706;0.035507206;-0.20715335;;;;;;;;;;;;;;;
2172.0;2100.0;;;;-0.79839337;0.036457065;-0.20722583;;;;;;;;;;;;;;;
2172.0;2101.7;;;;;;;;;;;;;;;;;62.23487;-24.945066;77.07069;;2023.8
2172.0;2101.7;;;;;;;;;;;;;;0.631489;0.4262215;0.010376293;;;;;2023.8
2172.0;2101.7;;;;;;;;;;;;;;;;;66.29002;-26.039919;79.06201;;2023.8
2172.0;2101.7;;;;;;;;;;;;;;0.65517133;0.41474655;-0.018494217;;;;;2023.8
2172.0;2101.7;;;;;;;;;;;;;;;;;69.60509;-25.47914;81.07623;;2033.4
2172.0;2101.7;;;;;;;;;;;;;;0.6817835;0.38575396;-0.030884732;;;;;2033.4
2172.0;2101.7;;;;;;;;;;;;;;;;;71.07379;-23.998993;81.96509;;2033.4
2172.0;2101.7;;;;;;;;;;;;;;0.7091281;0.3579211;-0.044129767;;;;;2033.4
2172.0;2101.7;;;;;;;;;;;;;;;;;73.343605;-22.762993;82.52586;;2043.0
2172.0;2101.7;;;;;;;;;;;;;;0.73317665;0.32905057;-0.057008576;;;;;2043.0
2172.0;2101.7;;;;;;;;;;;;;;;;;75.66302;-21.992401;83.10571;;2043.0
2172.0;2101.7;;;;;;;;;;;;;;0.76149786;0.301706;-0.06469924;;;;;2043.0
2172.0;2103.4;262143;262143;11844;;;;;;;;;;;;;;;;;;
2220.0;2109.0;;;;;;;;;;14.152959;11.185034;-7.629627;;;;;;;;;
2220.0;2109.0;;;;;;;0.7285989;0.0074465163;-0.20777002;;;;;;;;;;;;
2220.0;2109.0;;;;;;;;;;14.416181;11.104922;-7.6029234;;;;;;;;;
2220.0;2109.0;;;;;;;0.73464155;0.007873775;-0.20880765;;;;;;;;;;;;
2220.0;2109.8;;;;-0.8003465;0.03713608;-0.2074242;;;;;;;;;;;;;;;
2220.0;2109.8;;;;-0.8026544;0.038055424;-0.20713428;;;;;;;;;;;;;;;
2220.0;2109.8;;;;-0.8040391;0.039161686;-0.20709231;;;;;;;;;;;;;;;
2220.0;2109.8;;;;-0.806183;0.04031754;-0.207737;;;;;;;;;;;;;;;
2220.0;2109.8;;;;-0.80793774;0.041110996;-0.2076073;;;;;;;;;;;;;;;
2220.0;2118.5;;;;;;;;;;14.728996;11.047701;-7.488479;;;;;;;;;
2220.0;2118.5;;;;;;;0.743553;0.0054322947;-0.21192053;;;;;;;;;;;;
2220.0;2118.5;;;;;;;;;;15.064699;11.162145;-7.328257;;;;;;;;;
2220.0;2118.5;;;;;;;0.7503891;0.0054322947;-0.2141789;;;;;;;;;;;;
2220.0;2119.7;;;;-0.8096429;0.042392734;-0.20732883;;;;;;;;;;;;;;;
2220.0;2119.7;;;;-0.8108369;0.04363251;-0.2078667;;;;;;;;;;;;;;;
2220.0;2119.7;;;;-0.8120767;0.044788364;-0.2071648;;;;;;;;;;;;;;;
2220.0;2119.7;;;;-0.81341183;0.04598618;-0.20693591;;;;;;;;;;;;;;;
2220.0;2119.7;;;;-0.8146707;0.047119148;-0.20698932;;;;;;;;;;;;;;;
2220.0;2123.4;262143;262143;11852;;;;;;;;;;;;;;;;;;
2220.0;2128.1;;;;;;;;;;15.3698845;11.291848;-7.160405;;;;;;;;;
2220.0;2128.1;;;;;;;0.76180303;0.0017700735;-0.22132023;;;;;;;;;;;;
2220.0;2128.1;;;;;;;;;;15.5796995;11.307108;-7.1184425;;;;;;;;;
2220.0;2128.1;;;;;;;0.7703482;0.0012207404;-0.22394483;;;;;;;;;;;;
2223.0;2129.4;;;;;;;;;;;;;10399;;;;;;;;
2223.0;2129.4;;;;;;;;;;;;;10890;;;;;;;;
2223.0;2129.4;;;;;;;;;;;;;11362;;;;;;;;
2223.0;2129.4;;;;;;;;;;;;;11392;;;;;;;;
2223.0;2129.4;;;;;;;;;;;;;10856;;;;;;;;
2223.0;2129.8;;;;-0.8164712;0.048641212;-0.2064896;;;;;;;;;;;;;;;
2223.0;2129.8;;;;-0.8184396;0.049957283;-0.20564273;;;;;;;;;;;;;;;
2223.0;2129.8;;;;-0.820614;0.05176545;-0.20543674;;;;;;;;;;;;;;;
2223.0;2129.8;;;;-0.8223764;0.05318833;-0.20580676;;;;;;;;;;;;;;;
2223.0;2129.8;;;;-0.8240472;0.05451203;-0.20565036;;;;;;;;;;;;;;;
2223.0;2137.7;;;;;;;;;;15.896328;11.013368;-7.148961;;;;;;;;;
2223.0;2137.7;;;;;;;0.7777947;-0.0012207404;-0.22492142;;;;;;;;;;;;
2223.0;2137.7;;;;;;;;;;16.361736;10.261848;-7.0154424;;;;;;;;;
2223.0;2137.7;;;;;;;0.7794427;-0.0049439985;-0.22614215;;;;;;;;;;;;
2223.0;2140.0;;;;-0.8255197;0.055999763;-0.20495608;;;;;;;;;;;;;;;
2223.0;2140.0;;;;-0.82701504;0.05721665;-0.20538715;;;;;;;;;;;;;;;
2223.0;2140.0;;;;-0.82795346;0.058273323;-0.20562747;;;;;;;;;;;;;;;
2223.0;2140.0;;;;-0.8292924;0.059413917;-0.20545581;;;;;;;;;;;;;;;
2223.0;2140.0;;;;-0.8307344;0.060573585;-0.20475009;;;;;;;;;;;;;;;
2223.0;2143.7;262143;262143;11850;;;;;;;;;;;;;;;;;;
2225.0;2147.2;;;;;;;;;;;;;;;;;76.39928;-22.278511;84.204384;;2052.6
2225.0;2147.2;;;;;;;;;;;;;;0.79348123;0.27362895;-0.06848354;;;;;2052.6
2225.0;2147.2;;;;;;;;;;;;;;;;;76.22761;-23.54503;85.18098;;2052.6
2225.0;2147.2;;;;;;;;;;;;;;0.8240608;0.23834956;-0.07275613;;;;;2052.6
2225.0;2147.2;;;;;;;;;;;;;;;;;75.6325;-25.68514;85.77227;;2062.3
2225.0;2147.2;;;;;;;;;;;;;;0.8496353;0.21173742;-0.07202368;;;;;2062.3
2225.0;2147.2;;;;;;;;;;;;;;;;;74.55672;-28.397472;85.49379;;2062.3
2225.0;2147.2;;;;;;;;;;;;;;0.8791772;0.20990631;-0.08069094;;;;;2062.3
2225.0;2147.2;;;;;;;;;;;;;;;;;72.9545;-29.17951;83.746605;;2071.9
2225.0;2147.2;;;;;;;;;;;;;;0.9076205;0.22168645;-0.08130131;;;;;2071.9
2225.0;2147.2;;;;;;;;;;;;;;;;;71.78335;-29.362621;81.69042;;2071.9
2225.0;2147.2;;;;;;;;;;;;;;0.92934966;0.23426008;-0.0883816;;;;;2071.9
2225.0;2147.2;;;;;;;;;;16.68981;9.54085;-6.8819237;;;;;;;;;
2225.0;2147.2;;;;;;;0.78237253;-0.003234962;-0.22937712;;;;;;;;;;;;
2225.0;2147.2;;;;;;;;;;16.994993;9.006775;-6.8933682;;;;;;;;;
2225.0;2147.2;;;;;;;0.7817011;-0.005798517;-0.2323069;;;;;;;;;;;;
2225.0;2149.9;;;;-0.8324777;0.06146241;-0.20385364;;;;;;;;;;;;;;;
2225.0;2149.9;;;;-0.8339845;0.06315232;-0.20384601;;;;;;;;;;;;;;;
2225.0;2149.9;;;;-0.8354875;0.06402589;-0.20260242;;;;;;;;;;;;;;;
2225.0;2149.9;;;;-0.8376695;0.06495667;-0.20180896;;;;;;;;;;;;;;;
2225.0;2149.9;;;;-0.83957684;0.06572724;-0.20071796;;;;;;;;;;;;;;;
2225.0;2156.8;;;;;;;;;;17.220068;8.354443;-6.8666644;;;;;;;;;
2225.0;2156.8;;;;;;;0.77987;-0.0027466659;-0.23529771;;;;;;;;;;;;
2225.0;2156.8;;;;;;;;;;17.391735;7.621998;-6.725517;;;;;;;;;
2225.0;2156.8;;;;;;;0.7770623;-6.103702E-5;-0.23993652;;;;;;;;;;;;
2228.0;2160.0;;;;-0.8412858;0.06662751;-0.19973758;;;;;;;;;;;;;;;
2228.0;2160.0;;;;-0.8433877;0.06787873;-0.19867328;;;;;;;;;;;;;;;
2228.0;2160.0;;;;-0.8448373;0.068508156;-0.19821933;;;;;;;;;;;;;;;
2228.0;2160.0;;;;-0.8465959;0.0693245;-0.19807819;;;;;;;;;;;;;;;
2228.0;2160.0;;;;-0.8480798;0.06993104;-0.19767383;;;;;;;;;;;;;;;
2228.0;2161.8;;;;;;;;;;;;;;;;;73.30546;-29.560991;78.17697;;2081.5
2228.0;2161.8;;;;;;;;;;;;;;0.9479049;0.27973264;-0.09906308;;;;;2081.5
2228.0;2161.8;;;;;;;;;;;;;;;;;75.64776;-30.140842;72.91635;;2081.5
2228.0;2161.8;;;;;;;;;;;;;;0.9548021;0.33893856;-0.10773034;;;;;2081.5
2228.0;2161.8;;;;;;;;;;;;;;;;;80.17975;-32.944733;69.5822;;2091.2
2228.0;2161.8;;;;;;;;;;;;;;0.94247264;0.3863033;-0.12921537;;;;;2091.2
2228.0;2161.8;;;;;;;;;;;;;;;;;83.97931;-34.913174;66.37395;;2091.2
2228.0;2161.8;;;;;;;;;;;;;;0.9225745;0.42713705;-0.16608173;;;;;2091.2
2228.0;2161.8;;;;;;;;;;;;;;;;;87.382126;-34.058655;61.468094;;2100.8
2228.0;2161.8;;;;;;;;;;;;;;0.9086581;0.4956206;-0.15643787;;;;;2100.8
2228.0;2161.8;;;;;;;;;;;;;;;;;87.0655;-33.61614;57.771538;;2100.8
2228.0;2161.8;;;;;;;;;;;;;;0.89455855;0.5442671;-0.15100558;;;;;2100.8
2228.0;2163.6;262143;262143;11850;;;;;;;;;;;;;;;;;;
2228.0;2166.2;;;;;;;;;;17.502365;7.0078125;-6.7293315;;;;;;;;;
2228.0;2166.2;;;;;;;0.774926;0.0028077029;-0.24311045;;;;;;;;;;;;
2228.0;2166.2;;;;;;;;;;17.517624;6.3592944;-6.6911836;;;;;;;;;
2228.0;2166.2;;;;;;;0.77645195;0.0048829615;-0.24390393;;;;;;;;;;;;
2280.0;2169.4;;;;;;;;;;;;;10111;;;;;;;;
2280.0;2169.4;;;;;;;;;;;;;9405;;;;;;;;
2280.0;2169.4;;;;;;;;;;;;;8695;;;;;;;;
2280.0;2169.4;;;;;;;;;;;;;7670;;;;;;;;
2280.0;2169.4;;;;;;;;;;;;;6128;;;;;;;;
2280.0;2169.8;;;;-0.849228;0.07016755;-0.1979256;;;;;;;;;;;;;;;
2280.0;2169.8;;;;-0.8501588;0.07072068;-0.19832233;;;;;;;;;;;;;;;
2280.0;2169.8;;;;-0.8510934;0.071212776;-0.19797519;;;;;;;;;;;;;;;
2280.0;2169.8;;;;-0.85180676;0.07144166;-0.19840243;;;;;;;;;;;;;;;
2280.0;2169.8;;;;-0.85309994;0.07179261;-0.19826129;;;;;;;;;;;;;;;
2280.0;2175.5;;;;;;;;;;17.437513;5.939665;-6.6759243;;;;;;;;;
2280.0;2175.5;;;;;;;0.7838984;0.0053102206;-0.24701682;;;;;;;;;;;;
2280.0;2175.5;;;;;;;;;;17.342142;5.882443;-6.6301465;;;;;;;;;
2280.0;2175.5;;;;;;;0.79213846;0.0072634052;-0.24671163;;;;;;;;;;;;
2280.0;2179.6;;;;-0.8535272;0.072185524;-0.19760135;;;;;;;;;;;;;;;
2280.0;2179.6;;;;-0.8548547;0.07241059;-0.19764712;;;;;;;;;;;;;;;
2280.0;2179.6;;;;-0.8552667;0.072746284;-0.19719318;;;;;;;;;;;;;;;
2280.0;2179.6;;;;-0.85645306;0.0733223;-0.19657901;;;;;;;;;;;;;;;
2280.0;2179.6;;;;-0.8574945;0.07385636;-0.19633105;;;;;;;;;;;;;;;
2280.0;2183.5;262143;262143;11846;;;;;;;;;;;;;;;;;;
2280.0;2185.1;;;;;;;;;;17.0484;5.9854426;-6.5652943;;;;;;;;;
2280.0;2185.1;;;;;;;0.8052614;0.010315256;-0.24622333;;;;;;;;;;;;
2280.0;2185.1;;;;;;;;;;16.647848;6.0579243;-6.5805535;;;;;;;;;
2280.0;2185.1;;;;;;;0.8186285;0.009704886;-0.24573503;;;;;;;;;;;;
2284.0;2189.7;;;;-0.85829556;0.07472611;-0.19660571;;;;;;;;;;;;;;;
2284.0;2189.7;;;;-0.8594247;0.07559968;-0.19700626;;;;;;;;;;;;;;;
2284.0;2189.7;;;;-0.8608209;0.076271065;-0.19716647;;;;;;;;;;;;;;;
2284.0;2189.7;;;;-0.8623773;0.07718659;-0.19740298;;;;;;;;;;;;;;;
2284.0;2189.7;;;;-0.8636743;0.0779152;-0.19890979;;;;;;;;;;;;;;;
2284.0;2194.7;;;;;;;;;;16.273996;6.1380353;-6.6301465;;;;;;;;;
2284.0;2194.7;;;;;;;0.83028656;0.012756737;-0.24585712;;;;;;;;;;;;
2284.0;2194.7;;;;;;;;;;15.896328;6.076998;-6.7445908;;;;;;;;;
2284.0;2194.7;;;;;;;0.844203;0.012512589;-0.2494583;;;;;;;;;;;;
2284.0;2199.9;;;;-0.8653451;0.07894898;-0.20004275;;;;;;;;;;;;;;;
2284.0;2199.9;;;;-0.8665124;0.080162056;-0.20098498;;;;;;;;;;;;;;;
2284.0;2199.9;;;;-0.8674699;0.080860145;-0.2017174;;;;;;;;;;;;;;;
2284.0;2199.9;;;;-0.8676492;0.0813675;-0.20218661;;;;;;;;;;;;;;;
2284.0;2199.9;;;;-0.8677865;0.08215333;-0.20283893;;;;;;;;;;;;;;;
2284.0;2203.7;262143;262143;11856;;;;;;;;;;;;;;;;;;
2284.0;2204.3;;;;;;;;;;15.4690695;5.9511094;-6.923887;;;;;;;;;
2284.0;2204.3;;;;;;;0.85726494;0.016418958;-0.25342572;;;;;;;;;;;;
2284.0;2204.3;;;;;;;;;;15.049439;5.878628;-7.0497756;;;;;;;;;
2284.0;2204.3;;;;;;;0.8730735;0.018311106;-0.25928527;;;;;;;;;;;;
2286.0;2206.9;;;;;;;;;;;;;;;;;86.26438;-32.15888;52.037872;;2110.4
2286.0;2206.9;;;;;;;;;;;;;;0.88735616;0.5761284;-0.117069006;;;;;2110.4
2286.0;2206.9;;;;;;;;;;;;;;;;;81.438644;-31.067842;44.50743;;2110.4
2286.0;2206.9;;;;;;;;;;;;;;0.89742726;0.6684774;-0.07391583;;;;;2110.4
2286.0;2206.9;;;;;;;;;;;;;;;;;72.73705;-31.098362;43.2638;;2120.1
2286.0;2206.9;;;;;;;;;;;;;;0.90212715;0.73049104;-0.04510636;;;;;2120.1
2286.0;2206.9;;;;;;;;;;;;;;;;;65.75976;-30.858028;44.488354;;2120.1
2286.0;2206.9;;;;;;;;;;;;;;0.90340894;0.755089;-0.009582812;;;;;2120.1
2286.0;2206.9;;;;;;;;;;;;;;;;;59.339428;-28.237251;44.827873;;2129.8
2286.0;2206.9;;;;;;;;;;;;;;0.898587;0.766686;0.04449599;;;;;2129.8
2286.0;2206.9;;;;;;;;;;;;;;;;;52.20954;-26.42903;45.74343;;2129.8
2286.0;2206.9;;;;;;;;;;;;;;0.88876003;0.7627186;0.08996857;;;;;2129.8
2286.0;2209.5;;;;;;;;;;;;;4697;;;;;;;;
2286.0;2209.5;;;;;;;;;;;;;4263;;;;;;;;
2286.0;2209.5;;;;;;;;;;;;;5026;;;;;;;;
2286.0;2209.5;;;;;;;;;;;;;6339;;;;;;;;
2286.0;2209.5;;;;;;;;;;;;;7298;;;;;;;;
2286.0;2209.8;;;;-0.86748135;0.082111366;-0.20365146;;;;;;;;;;;;;;;
2286.0;2209.8;;;;-0.8669816;0.082305916;-0.20452884;;;;;;;;;;;;;;;
2286.0;2209.8;;;;-0.8666383;0.082305916;-0.2059212;;;;;;;;;;;;;;;
2286.0;2209.8;;;;-0.8663789;0.082305916;-0.20758823;;;;;;;;;;;;;;;
2286.0;2209.8;;;;-0.8664247;0.08233643;-0.20849994;;;;;;;;;;;;;;;
2286.0;2213.7;;;;;;;;;;14.854885;6.076998;-7.1184425;;;;;;;;;
2286.0;2213.7;;;;;;;0.8921171;0.021607105;-0.2624592;;;;;;;;;;;;
2286.0;2213.7;;;;;;;;;;14.683218;6.5080724;-7.042146;;;;;;;;;
2286.0;2213.7;;;;;;;0.9122593;0.022217475;-0.26520586;;;;;;;;;;;;
2288.0;2219.9;;;;-0.8667985;0.08203507;-0.20997623;;;;;;;;;;;;;;;
2288.0;2219.9;;;;-0.8669549;0.081882484;-0.21099856;;;;;;;;;;;;;;;
2288.0;2219.9;;;;-0.8672639;0.082427986;-0.21197131;;;;;;;;;;;;;;;
2288.0;2219.9;;;;-0.86761487;0.08280564;-0.21226123;;;;;;;;;;;;;;;
2288.0;2219.9;;;;-0.86771786;0.08353043;-0.21276477;;;;;;;;;;;;;;;
2288.0;2221.9;;;;;;;;;;;;;;;;;49.76043;-28.76751;46.201206;;2139.4
2288.0;2221.9;;;;;;;;;;;;;;0.8924833;0.7467269;0.084475234;;;;;2139.4
2288.0;2221.9;;;;;;;;;;;;;;;;;48.146763;-29.164251;45.564133;;2139.4
2288.0;2221.9;;;;;;;;;;;;;;0.90035707;0.7295145;0.06060976;;;;;2139.4
2288.0;2221.9;;;;;;;;;;;;;;;;;44.00006;-24.48729;44.370094;;2149.1
2288.0;2221.9;;;;;;;;;;;;;;0.90267646;0.70082706;0.07318339;;;;;2149.1
2288.0;2221.9;;;;;;;;;;;;;;;;;39.551987;-18.528551;42.43599;;2149.1
2288.0;2221.9;;;;;;;;;;;;;;0.8897977;0.66689044;0.12018189;;;;;2149.1
2288.0;2221.9;;;;;;;;;;;;;;;;;35.596027;-15.511032;40.22721;;2158.7
2288.0;2221.9;;;;;;;;;;;;;;0.8789941;0.6286813;0.14496292;;;;;2158.7
2288.0;2221.9;;;;;;;;;;;;;;;;;32.79977;-14.625996;37.88873;;2158.7
2288.0;2221.9;;;;;;;;;;;;;;0.86751914;0.59828484;0.13177893;;;;;2158.7
2288.0;2223.2;;;;;;;;;;14.43144;7.0917387;-6.7293315;;;;;;;;;
2288.0;2223.2;;;;;;;0.9342936;0.02026429;-0.26953948;;;;;;;;;;;;
2288.0;2223.2;;;;;;;;;;14.133884;7.797479;-6.015961;;;;;;;;;
2288.0;2223.2;;;;;;;0.9643239;0.015320292;-0.27344584;;;;;;;;;;;;
2288.0;2223.6;262143;262143;11848;;;;;;;;;;;;;;;;;;
2339.0;2229.7;;;;-0.8679582;0.08410264;-0.213501;;;;;;;;;;;;;;;
2339.0;2229.7;;;;-0.8674737;0.08467103;-0.21314242;;;;;;;;;;;;;;;
2339.0;2229.7;;;;-0.86688244;0.08544541;-0.21322635;;;;;;;;;;;;;;;
2339.0;2229.7;;;;-0.8663064;0.08625413;-0.21314242;;;;;;;;;;;;;;;
2339.0;2229.7;;;;-0.8656007;0.087112434;-0.21292117;;;;;;;;;;;;;;;
2339.0;2232.7;;;;;;;;;;14.01944;8.50322;-5.359813;;;;;;;;;
2339.0;2232.7;;;;;;;0.999115;0.00573748;-0.27661976;;;;;;;;;;;;
2339.0;2232.7;;;;;;;;;;13.832514;9.228034;-4.791406;;;;;;;;;
2339.0;2232.7;;;;;;;1.035371;-0.008728294;-0.28015992;;;;;;;;;;;;
2339.0;2239.7;;;;-0.8644334;0.08774949;-0.21289828;;;;;;;;;;;;;;;
2339.0;2239.7;;;;-0.86381924;0.08776093;-0.21286014;;;;;;;;;;;;;;;
2339.0;2239.7;;;;-0.86330044;0.0877533;-0.21292117;;;;;;;;;;;;;;;
2339.0;2239.7;;;;-0.8633996;0.08748246;-0.21375278;;;;;;;;;;;;;;;
2339.0;2239.7;;;;-0.8639566;0.08745957;-0.21409228;;;;;;;;;;;;;;;
2339.0;2242.3;;;;;;;;;;13.695181;9.784997;-4.100925;;;;;;;;;
2339.0;2242.3;;;;;;;1.0691855;-0.021118809;-0.28852198;;;;;;;;;;;;
2339.0;2242.3;;;;;;;;;;13.7371435;10.124516;-3.1968138;;;;;;;;;
2339.0;2242.3;;;;;;;1.1021454;-0.032471694;-0.29505295;;;;;;;;;;;;
2339.0;2243.7;262143;262143;11855;;;;;;;;;;;;;;;;;;
2339.0;2249.6;;;;;;;;;;;;;7621;;;;;;;;
2339.0;2249.6;;;;;;;;;;;;;7685;;;;;;;;
2339.0;2249.6;;;;;;;;;;;;;7712;;;;;;;;
2339.0;2249.6;;;;;;;;;;;;;7467;;;;;;;;
2339.0;2249.6;;;;;;;;;;;;;6391;;;;;;;;
2344.0;2249.9;;;;-0.8652688;0.087219246;-0.21436313;;;;;;;;;;;;;;;
2344.0;2249.9;;;;-0.86651623;0.087089546;-0.21485904;;;;;;;;;;;;;;;
2344.0;2249.9;;;;-0.86825955;0.08718491;-0.21515658;;;;;;;;;;;;;;;
2344.0;2249.9;;;;-0.87022793;0.0873375;-0.21530536;;;;;;;;;;;;;;;
2344.0;2249.9;;;;-0.87254345;0.08747483;-0.21576312;;;;;;;;;;;;;;;
2344.0;2251.9;;;;;;;;;;13.878292;10.204626;-2.1324809;;;;;;;;;
2344.0;2251.9;;;;;;;1.1289407;-0.040467545;-0.30268258;;;;;;;;;;;;
2344.0;2251.9;;;;;;;;;;14.156774;9.933775;-1.0528886;;;;;;;;;
2344.0;2251.9;;;;;;;1.152562;-0.048585467;-0.31073946;;;;;;;;;;;;
2344.0;2260.0;;;;-0.87438595;0.087989815;-0.21554187;;;;;;;;;;;;;;;
2344.0;2260.0;;;;-0.87578213;0.08856202;-0.21598437;;;;;;;;;;;;;;;
2344.0;2260.0;;;;-0.87765133;0.08898545;-0.21715167;;;;;;;;;;;;;;;
2344.0;2260.0;;;;-0.88002026;0.08950425;-0.21593097;;;;;;;;;;;;;;;
2344.0;2260.0;;;;-0.8834001;0.08952714;-0.21726993;;;;;;;;;;;;;;;
2344.0;2261.5;;;;;;;;;;14.622181;9.376812;0.04196295;;;;;;;;;
2344.0;2261.5;;;;;;;1.1708121;-0.060670797;-0.32123783;;;;;;;;;;;;
2344.0;2261.5;;;;;;;;;;15.182959;8.617663;1.0986663;;;;;;;;;
2344.0;2261.5;;;;;;;1.1891842;-0.074221015;-0.3270974;;;;;;;;;;;;
2344.0;2264.0;262143;262143;11853;;;;;;;;;;;;;;;;;;
2347.0;2267.5;;;;;;;;;;;;;;;;;30.602434;-14.290292;36.049988;;2168.2
2347.0;2267.5;;;;;;;;;;;;;;0.8624531;0.5789361;0.12018189;;;;;2168.2
2347.0;2267.5;;;;;;;;;;;;;;;;;28.180029;-13.1801815;35.134434;;2168.2
2347.0;2267.5;;;;;;;;;;;;;;0.8642842;0.54249704;0.1259804;;;;;2168.2
2347.0;2267.5;;;;;;;;;;;;;;;;;26.505325;-12.230293;33.970913;;2177.8
2347.0;2267.5;;;;;;;;;;;;;;0.8551897;0.5263833;0.12506485;;;;;2177.8
2347.0;2267.5;;;;;;;;;;;;;;;;;26.287882;-13.6379595;32.948547;;2177.8
2347.0;2267.5;;;;;;;;;;;;;;0.84231085;0.51814324;0.10235908;;;;;2177.8
