patientId;holterMac;flexMac;;;;;;;;;;;;;;;;;;;;
stairsdown;CA:F3:0B:1E:33:78;D3:4A:5C:52:80:78;;;;;;;;;;;;;;;;;;;;
receivedTimeStamp;timeStamp;red;ir;green;adxl_accX;adxl_accY;adxl_accZ;lsm_accelX;lsm_accelY;lsm_accelZ;lsm_gyroX;lsm_gyroY;lsm_gyroZ;ecg;flex_lsm_accelX;flex_lsm_accelY;flex_lsm_accelZ;flex_lsm_gyroX;flex_lsm_gyroY;flex_lsm_gyroZ;flex_cmd;flexTimeStamp
279.0;217.4;;;;;;;;;;;;;;;;;;;;17;0.1
279.0;217.4;;;;;;;;;;;;;;;;;13.149663;0.8545183;0.3624073;;127.7
279.0;217.4;;;;;;;;;;;;;;0.8644063;-0.19660024;-0.061159093;;;;;127.7
279.0;217.4;;;;;;;;;;;;;;;;;-5.8519244;-18.051699;-8.136998;;127.7
279.0;217.4;;;;;;;;;;;;;;0.8916288;-0.19696645;-0.06781213;;;;;127.7
279.0;217.4;;;;;;;;;;;;;;;;;-66.72491;-84.9292;-61.208683;;137.3
279.0;217.4;;;;;;;;;;;;;;0.8885769;-0.18182927;-0.06445509;;;;;137.3
279.0;217.4;;;;;;;;;;;;;;;;;-122.825554;-124.988556;-119.75463;;137.3
279.0;217.4;;;;;;;;;;;;;;0.8932157;-0.16730247;-0.059938353;;;;;137.3
340.0;218.2;;;;;;;;;;;;;;;;;-68.63994;-124.91989;-75.46083;;147.0
340.0;218.2;;;;;;;;;;;;;;0.8960845;-0.14288767;-0.047242653;;;;;147.0
340.0;218.2;;;;;;;;;;;;;;;;;-16.685995;-124.988556;-23.945585;;147.0
340.0;218.2;;;;;;;;;;;;;;0.90395826;-0.12671286;-0.03851436;;;;;147.0
340.0;218.2;;;;;;;;;;;;;;;;;-24.735252;-101.88604;-13.721885;;156.7
340.0;218.2;;;;;;;;;;;;;;0.9152501;-0.10425123;-0.033448286;;;;;156.7
340.0;218.2;;;;;;;;;;;;;;;;;-31.155582;-24.056215;12.211219;;156.7
340.0;218.2;;;;;;;;;;;;;;0.92336804;-0.08185064;-0.028748436;;;;;156.7
340.0;218.2;;;;;;;;;;;;;;;;;-28.832361;-17.288734;14.801477;;166.3
340.0;218.2;;;;;;;;;;;;;;0.9367962;-0.056642354;-0.015442366;;;;;166.3
340.0;218.2;;;;;;;;;;;;;;;;;-25.894955;-16.525774;15.301217;;166.3
340.0;218.2;;;;;;;;;;;;;;0.9450972;-0.031373028;9.155553E-4;;;;;166.3
340.0;278.0;;;;;;;;;;;;;;;;;-23.018585;-15.167699;16.07181;;176.0
340.0;278.0;;;;;;;;;;;;;;0.95468;-0.006836146;0.014343699;;;;;176.0
340.0;278.0;;;;;;;;;;;;;;;;;-20.004883;-13.775291;16.17481;;176.0
340.0;278.0;;;;;;;;;;;;;;0.96859646;0.012512589;0.019348735;;;;;176.0
340.0;278.0;;;;;;;;;;;;;;;;;-17.155216;-12.245552;16.319773;;185.6
340.0;278.0;;;;;;;;;;;;;;0.97848445;0.031861324;0.009765923;;;;;185.6
340.0;278.0;;;;;;;;;;;;;;;;;-14.515367;-9.647664;16.113773;;185.6
340.0;278.0;;;;;;;;;;;;;;0.9816584;0.04937895;0.018799402;;;;;185.6
340.0;278.0;;;;;;;;;;;;;;;;;-11.9556265;-9.464553;15.46144;;195.1
340.0;278.0;;;;;;;;;;;;;;1.0157781;0.051515244;-0.0014038514;;;;;195.1
340.0;278.0;;;;;;;;;;;;;;;;;-10.494553;-9.548479;14.946441;;195.1
340.0;278.0;;;;;;;;;;;;;;1.0308542;0.05328532;-0.022827845;;;;;195.1
403.0;278.8;;;;;;;;;;;;;;;;;-10.963775;-10.887479;14.591662;;204.7
403.0;278.8;;;;;;;;;;;;;;1.050325;0.052369762;-0.037354656;;;;;204.7
403.0;278.8;;;;;;;;;;;;;;;;;-13.199256;-11.818293;13.9317;;204.7
403.0;278.8;;;;;;;;;;;;;;1.0726646;0.048402358;-0.05346843;;;;;204.7
403.0;278.8;;;;;;;;;;;;;;;;;-16.445662;-11.230811;13.401441;;214.3
403.0;278.8;;;;;;;;;;;;;;1.0827967;0.042725913;-0.04565569;;;;;214.3
403.0;278.8;;;;;;;;;;;;;;;;;-20.790735;-11.093478;12.947477;;214.3
403.0;278.8;;;;;;;;;;;;;;1.0887173;0.04712058;-0.012451552;;;;;214.3
403.0;278.8;;;;;;;;;;;;;;;;;-24.365215;-11.268959;12.211219;;224.0
403.0;278.8;;;;;;;;;;;;;;1.1001313;0.04321421;0.015930662;;;;;224.0
403.0;278.8;;;;;;;;;;;;;;;;;-24.922176;-10.3267;11.425366;;224.0
403.0;278.8;;;;;;;;;;;;;;1.1068453;0.03991821;0.010376293;;;;;224.0
403.0;338.3;;;;;;;;;;;;;;;;;-21.931364;-8.350628;10.3228855;;233.6
403.0;338.3;;;;;;;;;;;;;;1.0906094;0.040650655;-0.012146367;;;;;233.6
403.0;338.3;;;;;;;;;;;;;;;;;-17.460402;-7.8585167;9.006775;;233.6
403.0;338.3;;;;;;;;;;;;;;1.0643024;0.04870754;-0.053163245;;;;;233.6
403.0;338.3;;;;;;;;;;;;;;;;;-14.515367;-8.7397375;8.312479;;243.3
403.0;338.3;;;;;;;;;;;;;;1.050325;0.059450056;-0.11206397;;;;;243.3
403.0;338.3;;;;;;;;;;;;;;;;;-14.000366;-9.475998;8.239998;;243.3
403.0;338.3;;;;;;;;;;;;;;1.0364085;0.07391583;-0.15485092;;;;;243.3
403.0;338.3;;;;;;;;;;;;;;;;;-16.022219;-9.8155155;8.316295;;253.0
403.0;338.3;;;;;;;;;;;;;;1.0209051;0.076906644;-0.1820124;;;;;253.0
403.0;338.3;;;;;;;;;;;;;;;;;-18.910032;-10.494553;8.247627;;253.0
403.0;338.3;;;;;;;;;;;;;;1.0071108;0.07879879;-0.19672231;;;;;253.0
463.0;339.1;;;;;;;;;;;;;;;;;-21.629993;-11.165959;7.8089237;;262.6
463.0;339.1;;;;;;;;;;;;;;0.99050874;0.08191168;-0.1988586;;;;;262.6
463.0;339.1;;;;;;;;;;;;;;;;;-24.197363;-11.661885;6.8895535;;262.6
463.0;339.1;;;;;;;;;;;;;;0.97933894;0.08026368;-0.19678335;;;;;262.6
463.0;339.1;;;;;;;;;;;;;;;;;-27.15766;-11.276589;5.84048;;272.3
463.0;339.1;;;;;;;;;;;;;;0.9688406;0.08398694;-0.18634602;;;;;272.3
463.0;339.1;;;;;;;;;;;;;;;;;-30.552843;-9.723961;4.6845913;;272.3
463.0;339.1;;;;;;;;;;;;;;0.9651784;0.098941006;-0.16962187;;;;;272.3
463.0;339.1;;;;;;;;;;;;;;;;;-33.783993;-7.335887;3.5515916;;282.0
463.0;339.1;;;;;;;;;;;;;;0.9673757;0.11682486;-0.15607166;;;;;282.0
463.0;339.1;;;;;;;;;;;;;;;;;-36.412395;-4.627369;2.727592;;282.0
463.0;339.1;;;;;;;;;;;;;;0.9785455;0.13110752;-0.14111759;;;;;282.0
463.0;398.3;;;;;;;;;;;;;;;;;-38.346508;-1.6403699;2.193518;;291.6
463.0;398.3;;;;;;;;;;;;;;0.99179053;0.13605152;-0.130253;;;;;291.6
463.0;398.3;;;;;;;;;;;;;;;;;-39.67406;1.1749626;1.9837031;;291.6
463.0;398.3;;;;;;;;;;;;;;1.0038759;0.14300974;-0.110721156;;;;;291.6
463.0;398.3;;;;;;;;;;;;;;;;;-40.10895;2.803888;2.2431104;;301.3
463.0;398.3;;;;;;;;;;;;;;1.0144963;0.13037507;-0.0971099;;;;;301.3
463.0;398.3;;;;;;;;;;;;;;;;;-39.273506;3.154851;2.521592;;301.3
463.0;398.3;;;;;;;;;;;;;;1.0253608;0.112125;-0.09088412;;;;;301.3
463.0;398.3;;;;;;;;;;;;;;;;;-37.980286;2.750481;2.9755547;;310.9
463.0;398.3;;;;;;;;;;;;;;1.0260323;0.094485305;-0.09375286;;;;;310.9
463.0;398.3;;;;;;;;;;;;;;;;;-37.47673;1.4877774;3.6507769;;310.9
463.0;398.3;;;;;;;;;;;;;;1.0311594;0.06939909;-0.09955138;;;;;310.9
522.0;399.1;;;;;;;;;;;;;;;;;-37.961212;0.67903686;4.505295;;320.5
522.0;399.1;;;;;;;;;;;;;;1.0285958;0.046815395;-0.09363079;;;;;320.5
522.0;399.1;;;;;;;;;;;;;;;;;-39.426098;1.1101108;5.664998;;320.5
522.0;399.1;;;;;;;;;;;;;;1.0171819;0.023926511;-0.0679342;;;;;320.5
522.0;399.1;;;;;;;;;;;;;;;;;-39.979248;1.7166661;6.9086275;;330.0
522.0;399.1;;;;;;;;;;;;;;1.0099186;-0.00286874;-0.04242073;;;;;330.0
522.0;399.1;;;;;;;;;;;;;;;;;-37.591175;2.3842587;8.011109;;330.0
522.0;399.1;;;;;;;;;;;;;;1.0020448;-0.024231697;-0.035523545;;;;;330.0
522.0;399.1;;;;;;;;;;;;;;;;;-32.513657;3.1586657;9.170813;;339.7
522.0;399.1;;;;;;;;;;;;;;0.9983825;-0.041322064;-0.05206458;;;;;339.7
522.0;399.1;;;;;;;;;;;;;;;;;-27.279734;4.6617026;10.357219;;339.7
522.0;399.1;;;;;;;;;;;;;;0.97506636;-0.057985168;-0.07513657;;;;;339.7
522.0;458.8;;;;;;;;;;;;;;;;;-23.968475;4.9058504;11.406293;;349.3
522.0;458.8;;;;;;;;;;;;;;0.94912565;-0.06671346;-0.09595019;;;;;349.3
522.0;458.8;;;;;;;;;;;;;;;;;-23.4344;3.4867396;12.573626;;349.3
522.0;458.8;;;;;;;;;;;;;;0.91830194;-0.073000275;-0.12286752;;;;;349.3
522.0;458.8;;;;;;;;;;;;;;;;;-23.033844;1.575518;13.496811;;359.0
522.0;458.8;;;;;;;;;;;;;;0.9067049;-0.07574694;-0.1114536;;;;;359.0
522.0;458.8;;;;;;;;;;;;;;;;;-20.584734;2.4796288;13.798181;;359.0
522.0;458.8;;;;;;;;;;;;;;0.88467056;-0.08948027;-0.093935974;;;;;359.0
522.0;458.8;;;;;;;;;;;;;;;;;-14.84344;4.6617026;13.641774;;368.6
522.0;458.8;;;;;;;;;;;;;;0.8472549;-0.09845271;-0.093142495;;;;;368.6
522.0;458.8;;;;;;;;;;;;;;;;;-8.651998;5.8023314;13.386182;;368.6
522.0;458.8;;;;;;;;;;;;;;0.8106937;-0.12213507;-0.09521775;;;;;368.6
582.0;459.6;;;;;;;;;;;;;;;;;-2.8000731;5.218665;13.496811;;378.2
582.0;459.6;;;;;;;;;;;;;;0.77224034;-0.17371136;-0.1380047;;;;;378.2
582.0;459.6;;;;;;;;;;;;;;;;;2.5330362;2.803888;14.22544;;378.2
582.0;459.6;;;;;;;;;;;;;;0.7361675;-0.2320017;-0.18567461;;;;;378.2
582.0;459.6;;;;;;;;;;;;;;;;;4.989776;-0.9460738;15.87344;;387.9
582.0;459.6;;;;;;;;;;;;;;0.71266824;-0.29419842;-0.23468734;;;;;387.9
582.0;459.6;;;;;;;;;;;;;;;;;4.013184;-1.7548143;18.250069;;387.9
582.0;459.6;;;;;;;;;;;;;;0.72310555;-0.35261086;-0.21900083;;;;;387.9
582.0;459.6;;;;;;;;;;;;;;;;;-0.6256294;2.3804438;20.98529;;397.6
582.0;459.6;;;;;;;;;;;;;;0.730369;-0.40827662;-0.1340373;;;;;397.6
582.0;459.6;;;;;;;;;;;;;;;;;-8.224739;6.2067018;23.564104;;397.6
582.0;459.6;;;;;;;;;;;;;;0.77480394;-0.47737053;-0.076113164;;;;;397.6
582.0;518.8;;;;;;;;;;;;;;;;;-16.811884;10.383923;26.013214;;407.2
582.0;518.8;;;;;;;;;;;;;;0.8564104;-0.53132725;-0.018860439;;;;;407.2
582.0;518.8;;;;;;;;;;;;;;;;;-20.149845;12.29133;28.35551;;407.2
582.0;518.8;;;;;;;;;;;;;;0.9803766;-0.5607471;-0.002990814;;;;;407.2
582.0;518.8;;;;;;;;;;;;;;;;;-13.153478;10.261848;29.240547;;416.9
582.0;518.8;;;;;;;;;;;;;;1.1495712;-0.55854976;-0.019348735;;;;;416.9
582.0;518.8;;;;;;;;;;;;;;;;;5.607776;8.514664;28.839993;;416.9
582.0;518.8;;;;;;;;;;;;;;1.2688376;-0.51173437;-0.0046388134;;;;;416.9
582.0;518.8;;;;;;;;;;;;;;;;;29.843288;7.2405167;27.504807;;426.4
582.0;518.8;;;;;;;;;;;;;;1.2656636;-0.4060793;0.039246805;;;;;426.4
582.0;518.8;;;;;;;;;;;;;;;;;49.53154;-0.15259254;25.17014;;426.4
582.0;518.8;;;;;;;;;;;;;;1.1396222;-0.24372081;-0.027588733;;;;;426.4
643.0;519.5;;;;;;;;;;;;;;;;;60.781425;-15.408032;22.61803;;435.9
643.0;519.5;;;;;;;;;;;;;;1.0666219;-0.083254494;-0.1568041;;;;;435.9
643.0;519.5;;;;;;;;;;;;;;;;;62.288277;-27.100437;20.950956;;435.9
643.0;519.5;;;;;;;;;;;;;;1.0597247;0.006775109;-0.25659963;;;;;435.9
643.0;519.5;;;;;;;;;;;;;;;;;58.423874;-28.595844;19.348736;;445.6
643.0;519.5;;;;;;;;;;;;;;1.0695517;0.039002657;-0.21655935;;;;;445.6
643.0;519.5;;;;;;;;;;;;;;;;;54.52132;-23.094881;16.312143;;445.6
643.0;519.5;;;;;;;;;;;;;;1.0551469;0.06769005;-0.09784234;;;;;445.6
643.0;519.5;;;;;;;;;;;;;;;;;52.285835;-16.651663;13.012329;;455.3
643.0;519.5;;;;;;;;;;;;;;1.0294504;0.13135166;-0.029114658;;;;;455.3
643.0;519.5;;;;;;;;;;;;;;;;;49.38658;-12.207404;9.601887;;455.3
643.0;519.5;;;;;;;;;;;;;;1.0138249;0.21210364;-0.054322947;;;;;455.3
643.0;533.7;;;;;;;;;;;;;;;;;44.152657;-10.704368;5.8061466;;464.9
643.0;533.7;;;;;;;;;;;;;;1.0209051;0.27936643;-0.099612415;;;;;464.9
643.0;533.7;;;;;;;;;;;;;;;;;39.15906;-12.565996;2.0599995;;464.9
643.0;533.7;;;;;;;;;;;;;;1.0624104;0.31391338;-0.17011017;;;;;464.9
643.0;533.7;;;;;;;;;;;;;;;;;38.033695;-15.8772545;-1.4687033;;474.6
643.0;533.7;;;;;;;;;;;;;;1.104648;0.31672108;-0.26734215;;;;;474.6
643.0;533.7;;;;;;;;;;;;;;;;;39.609207;-19.669178;-4.1505175;;474.6
643.0;533.7;;;;;;;;;;;;;;1.1187475;0.3075045;-0.39283425;;;;;474.6
643.0;533.7;;;;;;;;;;;;;;;;;36.156803;-22.114475;-4.8257394;;484.0
643.0;533.7;;;;;;;;;;;;;;1.1253395;0.2484817;-0.50282294;;;;;484.0
643.0;533.7;;;;;;;;;;;;;;;;;23.888363;-21.591846;-3.8949249;;484.0
643.0;533.7;;;;;;;;;;;;;;1.1189916;0.12359996;-0.46565142;;;;;484.0
702.0;579.3;;;;;;;;;;;;;;;;;9.21659;-19.650105;-2.4681845;;493.5
702.0;579.3;;;;;;;;;;;;;;1.1033051;-7.9348125E-4;-0.35120702;;;;;493.5
702.0;579.3;;;;;;;;;;;;;;;;;-3.3646657;-16.18244;-0.20218512;;493.5
702.0;579.3;;;;;;;;;;;;;;1.086642;-0.13177893;-0.24146245;;;;;493.5
702.0;579.3;;;;;;;;;;;;;;;;;-8.468886;-12.653737;3.5859249;;503.1
702.0;579.3;;;;;;;;;;;;;;1.0647908;-0.24835964;-0.14819789;;;;;503.1
702.0;579.3;;;;;;;;;;;;;;;;;-5.989258;-10.395368;8.247627;;503.1
702.0;579.3;;;;;;;;;;;;;;1.0374463;-0.31513414;-0.096804716;;;;;503.1
702.0;579.3;;;;;;;;;;;;;;;;;-1.003296;-8.381146;12.916959;;512.7
702.0;579.3;;;;;;;;;;;;;;0.987579;-0.3475448;-0.05963317;;;;;512.7
702.0;579.3;;;;;;;;;;;;;;;;;3.0098882;-8.823664;16.96066;;512.7
702.0;579.3;;;;;;;;;;;;;;0.95486313;-0.35126805;-0.04754784;;;;;512.7
702.0;593.9;;;;;;;;;;;;;;;;;6.187628;-9.01059;20.798365;;522.4
702.0;593.9;;;;;;;;;;;;;;0.9220252;-0.33875546;-0.03991821;;;;;522.4
702.0;593.9;;;;;;;;;;;;;;;;;9.239479;-9.235664;24.16303;;522.4
702.0;593.9;;;;;;;;;;;;;;0.89999086;-0.30726036;-0.038270213;;;;;522.4
702.0;593.9;;;;;;;;;;;;;;;;;12.493514;-9.979552;26.757103;;532.1
702.0;593.9;;;;;;;;;;;;;;0.9038972;-0.25727102;-0.052186653;;;;;532.1
702.0;593.9;;;;;;;;;;;;;;;;;14.904477;-9.975738;28.66451;;532.1
702.0;593.9;;;;;;;;;;;;;;0.90646076;-0.21198156;-0.064760275;;;;;532.1
702.0;593.9;;;;;;;;;;;;;;;;;17.399364;-9.800256;29.404585;;541.6
702.0;593.9;;;;;;;;;;;;;;0.8991363;-0.16699728;-0.07873776;;;;;541.6
702.0;593.9;;;;;;;;;;;;;;;;;20.645771;-10.944701;29.38551;;541.6
702.0;593.9;;;;;;;;;;;;;;0.90194404;-0.1358684;-0.098941006;;;;;541.6
762.0;639.2;;;;;;;;;;;;;;;;;22.217474;-12.779626;28.927732;;551.2
762.0;639.2;;;;;;;;;;;;;;0.9022492;-0.117435224;-0.12952055;;;;;551.2
762.0;639.2;;;;;;;;;;;;;;;;;21.076845;-14.267404;28.64925;;551.2
762.0;639.2;;;;;;;;;;;;;;0.9152501;-0.1248207;-0.18420972;;;;;551.2
762.0;639.2;;;;;;;;;;;;;;;;;18.051699;-13.9965515;28.675955;;560.8
762.0;639.2;;;;;;;;;;;;;;0.918424;-0.13794367;-0.2323069;;;;;560.8
762.0;639.2;;;;;;;;;;;;;;;;;13.191626;-13.122959;29.087955;;560.8
762.0;639.2;;;;;;;;;;;;;;0.9306925;-0.15637684;-0.272042;;;;;560.8
762.0;639.2;;;;;;;;;;;;;;;;;7.2023683;-11.524552;29.728844;;570.4
762.0;639.2;;;;;;;;;;;;;;0.9479659;-0.17731254;-0.27692497;;;;;570.4
762.0;639.2;;;;;;;;;;;;;;;;;1.2741477;-9.025849;30.850397;;570.4
762.0;639.2;;;;;;;;;;;;;;0.96047854;-0.20551164;-0.25055698;;;;;570.4
762.0;654.2;;;;;;;;;;;;;;;;;-3.360851;-6.9277015;32.235176;;580.1
762.0;654.2;;;;;;;;;;;;;;0.977691;-0.22412793;-0.22907193;;;;;580.1
762.0;654.2;;;;;;;;;;;;;;;;;-6.740776;-4.936369;33.68862;;580.1
762.0;654.2;;;;;;;;;;;;;;0.98983735;-0.219306;-0.20416883;;;;;580.1
762.0;654.2;;;;;;;;;;;;;;;;;-8.6787;-2.994629;34.882656;;589.8
762.0;654.2;;;;;;;;;;;;;;1.0003967;-0.20422986;-0.18292795;;;;;589.8
762.0;654.2;;;;;;;;;;;;;;;;;-9.361553;-1.4839625;35.53499;;589.8
762.0;654.2;;;;;;;;;;;;;;0.9992981;-0.17505418;-0.1596118;;;;;589.8
762.0;654.2;;;;;;;;;;;;;;;;;-11.257515;0.19074069;35.767693;;599.4
762.0;654.2;;;;;;;;;;;;;;0.99630725;-0.1441084;-0.14062929;;;;;599.4
762.0;654.2;;;;;;;;;;;;;;;;;-13.809626;1.3847773;35.794395;;599.4
762.0;654.2;;;;;;;;;;;;;;0.9944151;-0.109622486;-0.16858424;;;;;599.4
822.0;699.8;;;;;;;;;;;;;;;;;-15.751366;2.6284068;35.817284;;608.8
822.0;699.8;;;;;;;;;;;;;;0.9956969;-0.07751702;-0.19214454;;;;;608.8
822.0;699.8;;;;;;;;;;;;;;;;;-16.3007;3.6736658;35.74099;;608.8
822.0;699.8;;;;;;;;;;;;;;0.98556477;-0.04443495;-0.19183935;;;;;608.8
822.0;699.8;;;;;;;;;;;;;;;;;-16.552477;4.3298135;35.428173;;618.4
822.0;699.8;;;;;;;;;;;;;;0.96896267;-0.012329478;-0.16736351;;;;;618.4
822.0;699.8;;;;;;;;;;;;;;;;;-17.708364;3.604999;35.09247;;618.4
822.0;699.8;;;;;;;;;;;;;;0.9515061;0.0027466659;-0.16113773;;;;;618.4
822.0;699.8;;;;;;;;;;;;;;;;;-19.75692;2.0027773;34.45158;;628.1
822.0;699.8;;;;;;;;;;;;;;0.95113987;0.0075685903;-0.17896055;;;;;628.1
822.0;699.8;;;;;;;;;;;;;;;;;-21.572771;1.5259255;33.867916;;628.1
822.0;699.8;;;;;;;;;;;;;;0.9607227;0.003051851;-0.18176824;;;;;628.1
822.0;706.9;;;;;;;;;;;;;;;;;-23.22077;3.4180732;33.333843;;637.7
822.0;706.9;;;;;;;;;;;;;;0.96169925;-0.0017090365;-0.15784173;;;;;637.7
822.0;706.9;;;;;;;;;;;;;;;;;-25.406658;5.714591;32.830288;;637.7
822.0;706.9;;;;;;;;;;;;;;0.9641408;-0.013855403;-0.12982574;;;;;637.7
822.0;706.9;;;;;;;;;;;;;;;;;-28.088472;7.255776;32.311474;;647.4
822.0;706.9;;;;;;;;;;;;;;0.96945095;-0.02600177;-0.11816767;;;;;647.4
822.0;706.9;;;;;;;;;;;;;;;;;-30.758842;8.087405;31.96051;;647.4
822.0;706.9;;;;;;;;;;;;;;0.96646017;-0.04608295;-0.12402722;;;;;647.4
822.0;706.9;;;;;;;;;;;;;;;;;-32.81503;8.102665;31.678215;;657.0
822.0;706.9;;;;;;;;;;;;;;0.9640187;-0.07586902;-0.13812678;;;;;657.0
822.0;706.9;;;;;;;;;;;;;;;;;-33.49788;7.889035;31.521805;;657.0
822.0;706.9;;;;;;;;;;;;;;0.96407974;-0.10333567;-0.15149388;;;;;657.0
886.0;759.7;;;;;;;;;;;;;;;;;-33.02866;8.213294;31.609547;;666.6
886.0;759.7;;;;;;;;;;;;;;0.959624;-0.13904233;-0.15179907;;;;;666.6
886.0;759.7;;;;;;;;;;;;;;;;;-31.712547;8.518478;31.964325;;666.6
886.0;759.7;;;;;;;;;;;;;;0.9450362;-0.1732841;-0.14734337;;;;;666.6
886.0;759.7;;;;;;;;;;;;;;;;;-30.19425;7.854701;32.654808;;676.2
886.0;759.7;;;;;;;;;;;;;;0.9439985;-0.20960112;-0.15881832;;;;;676.2
886.0;759.7;;;;;;;;;;;;;;;;;-28.576769;8.007294;33.680992;;676.2
886.0;759.7;;;;;;;;;;;;;;0.92458874;-0.2509232;-0.15686513;;;;;676.2
886.0;759.7;;;;;;;;;;;;;;;;;-27.15766;8.037812;35.153507;;685.9
886.0;759.7;;;;;;;;;;;;;;0.9212928;-0.28370008;-0.16235848;;;;;685.9
886.0;759.7;;;;;;;;;;;;;;;;;-25.467695;7.9462566;36.473434;;685.9
886.0;759.7;;;;;;;;;;;;;;0.9072543;-0.30664998;-0.17407759;;;;;685.9
886.0;767.2;;;;;;;;;;;;;;;;;-23.628956;7.37785;37.49199;;695.5
886.0;767.2;;;;;;;;;;;;;;0.9108554;-0.3185522;-0.19220558;;;;;695.5
886.0;767.2;;;;;;;;;;;;;;;;;-22.682882;7.126072;38.49147;;695.5
886.0;767.2;;;;;;;;;;;;;;0.91909546;-0.32203132;-0.19379254;;;;;695.5
886.0;767.2;;;;;;;;;;;;;;;;;-22.675253;7.168035;39.323097;;705.2
886.0;767.2;;;;;;;;;;;;;;0.9214759;-0.324778;-0.18903165;;;;;705.2
886.0;767.2;;;;;;;;;;;;;;;;;-22.579882;6.572924;39.79232;;705.2
886.0;767.2;;;;;;;;;;;;;;0.92519915;-0.32325205;-0.19476913;;;;;705.2
886.0;767.2;;;;;;;;;;;;;;;;;-21.61855;5.22248;40.169987;;714.8
886.0;767.2;;;;;;;;;;;;;;0.9418012;-0.3175756;-0.21655935;;;;;714.8
886.0;767.2;;;;;;;;;;;;;;;;;-19.871365;4.6044803;40.68117;;714.8
886.0;767.2;;;;;;;;;;;;;;0.93868834;-0.30359814;-0.24134037;;;;;714.8
941.0;819.8;;;;;;;;;;;;;;;;;-18.406477;5.359813;40.700245;;724.4
941.0;819.8;;;;;;;;;;;;;;0.9045076;-0.30249947;-0.22449416;;;;;724.4
941.0;819.8;;;;;;;;;;;;;;;;;-17.422253;4.5777764;40.94058;;724.4
941.0;819.8;;;;;;;;;;;;;;0.90694904;-0.30341503;-0.21778008;;;;;724.4
941.0;819.8;;;;;;;;;;;;;;;;;-15.919218;4.0856657;41.04358;;734.0
941.0;819.8;;;;;;;;;;;;;;0.8935209;-0.291818;-0.21112704;;;;;734.0
941.0;819.8;;;;;;;;;;;;;;;;;-14.412366;3.322703;41.230507;;734.0
941.0;819.8;;;;;;;;;;;;;;0.8899808;-0.2776574;-0.21027254;;;;;734.0
941.0;819.8;;;;;;;;;;;;;;;;;-13.061922;2.3804438;41.261024;;743.7
941.0;819.8;;;;;;;;;;;;;;0.89492476;-0.2593463;-0.21265298;;;;;743.7
941.0;819.8;;;;;;;;;;;;;;;;;-11.936552;1.3351848;41.310616;;743.7
941.0;819.8;;;;;;;;;;;;;;0.90102845;-0.24164556;-0.22095402;;;;;743.7
941.0;827.7;;;;;;;;;;;;;;;;;-10.917997;0.49211097;41.3068;;753.3
941.0;827.7;;;;;;;;;;;;;;0.90426344;-0.22022156;-0.2318186;;;;;753.3
941.0;827.7;;;;;;;;;;;;;;;;;-10.265663;-0.17929624;41.169468;;753.3
941.0;827.7;;;;;;;;;;;;;;0.9070711;-0.19177832;-0.24152349;;;;;753.3
941.0;827.7;;;;;;;;;;;;;;;;;-10.795923;-0.8049257;41.24958;;763.0
941.0;827.7;;;;;;;;;;;;;;0.9038362;-0.16071047;-0.2412183;;;;;763.0
941.0;827.7;;;;;;;;;;;;;;;;;-13.5197;-1.289407;41.333508;;763.0
941.0;827.7;;;;;;;;;;;;;;0.91866815;-0.14612262;-0.23932615;;;;;763.0
941.0;827.7;;;;;;;;;;;;;;;;;-16.548662;-0.35859248;41.016876;;772.6
941.0;827.7;;;;;;;;;;;;;;0.920072;-0.1297647;-0.23261207;;;;;772.6
941.0;827.7;;;;;;;;;;;;;;;;;-18.833736;0.40055543;40.70406;;772.6
941.0;827.7;;;;;;;;;;;;;;0.92483294;-0.10742515;-0.22315134;;;;;772.6
1002.0;880.1;;;;;;;;;;;;;;;;;-21.904661;2.2278512;40.7651;;782.2
1002.0;880.1;;;;;;;;;;;;;;0.9289224;-0.10589923;-0.17847225;;;;;782.2
1002.0;880.1;;;;;;;;;;;;;;;;;-25.837732;4.039888;40.662098;;782.2
1002.0;880.1;;;;;;;;;;;;;;0.92013305;-0.09686575;-0.14307077;;;;;782.2
1002.0;880.1;;;;;;;;;;;;;;;;;-29.274881;3.9216285;40.795616;;791.9
1002.0;880.1;;;;;;;;;;;;;;0.9261757;-0.10400708;-0.16156499;;;;;791.9
1002.0;880.1;;;;;;;;;;;;;;;;;-31.55614;4.688406;40.669727;;791.9
1002.0;880.1;;;;;;;;;;;;;;0.94210637;-0.101931825;-0.14160588;;;;;791.9
1002.0;880.1;;;;;;;;;;;;;;;;;-33.925137;5.901517;40.746025;;801.6
1002.0;880.1;;;;;;;;;;;;;;0.94369334;-0.111880854;-0.10278634;;;;;801.6
1002.0;880.1;;;;;;;;;;;;;;;;;-36.294136;6.0731835;40.551468;;801.6
1002.0;880.1;;;;;;;;;;;;;;0.94100773;-0.15472884;-0.09320353;;;;;801.6
1002.0;887.6;;;;;;;;;;;;;;;;;-36.294136;5.6344795;40.444653;;811.3
1002.0;887.6;;;;;;;;;;;;;;0.9465621;-0.16211432;-0.11926634;;;;;811.3
1002.0;887.6;;;;;;;;;;;;;;;;;-33.860287;4.7074804;41.08936;;811.3
1002.0;887.6;;;;;;;;;;;;;;0.94027525;-0.17322306;-0.16821803;;;;;811.3
1002.0;887.6;;;;;;;;;;;;;;;;;-32.147434;4.325999;42.15369;;821.0
1002.0;887.6;;;;;;;;;;;;;;0.9376507;-0.19336528;-0.18402661;;;;;821.0
1002.0;887.6;;;;;;;;;;;;;;;;;-32.5251;5.344554;43.15699;;821.0
1002.0;887.6;;;;;;;;;;;;;;0.9338664;-0.21955016;-0.16376232;;;;;821.0
1002.0;887.6;;;;;;;;;;;;;;;;;-34.646137;6.5424056;44.099247;;830.6
1002.0;887.6;;;;;;;;;;;;;;0.93380535;-0.20862453;-0.12195197;;;;;830.6
1002.0;887.6;;;;;;;;;;;;;;;;;-35.950806;6.0998874;45.453503;;830.6
1002.0;887.6;;;;;;;;;;;;;;0.9339274;-0.27405623;-0.11481063;;;;;830.6
1064.0;940.4;;;;;;;;;;;;;;;;;-34.535507;5.512406;46.09821;;840.2
1064.0;940.4;;;;;;;;;;;;;;0.95834225;-0.27973264;-0.13245033;;;;;840.2
1064.0;940.4;;;;;;;;;;;;;;;;;-33.982357;6.324961;46.67806;;840.2
1064.0;940.4;;;;;;;;;;;;;;0.96121097;-0.27863398;-0.13324381;;;;;840.2
1064.0;940.4;;;;;;;;;;;;;;;;;-34.88647;7.0917387;47.39906;;849.8
1064.0;940.4;;;;;;;;;;;;;;0.96212655;-0.27747428;-0.12683493;;;;;849.8
1064.0;940.4;;;;;;;;;;;;;;;;;-36.43147;8.060701;47.81869;;849.8
1064.0;940.4;;;;;;;;;;;;;;0.95327616;-0.27753532;-0.113406785;;;;;849.8
1064.0;940.4;;;;;;;;;;;;;;;;;-37.69036;7.9348125;47.90643;;859.3
1064.0;940.4;;;;;;;;;;;;;;0.9433271;-0.26685384;-0.10541093;;;;;859.3
1064.0;940.4;;;;;;;;;;;;;;;;;-37.7781;7.06122;47.704247;;859.3
1064.0;940.4;;;;;;;;;;;;;;0.93612474;-0.24585712;-0.122196116;;;;;859.3
1064.0;941.5;;;;;;;;;;;;;;;;;-36.435284;5.7985168;46.9718;;868.9
1064.0;941.5;;;;;;;;;;;;;;0.9221473;-0.22003846;-0.1403241;;;;;868.9
1064.0;941.5;;;;;;;;;;;;;;;;;-34.718616;3.6088138;45.86932;;868.9
1064.0;941.5;;;;;;;;;;;;;;0.91274756;-0.19568469;-0.16156499;;;;;868.9
1064.0;941.5;;;;;;;;;;;;;;;;;-32.78451;1.106296;44.549393;;878.6
1064.0;941.5;;;;;;;;;;;;;;0.9009064;-0.16821803;-0.18939787;;;;;878.6
1064.0;941.5;;;;;;;;;;;;;;;;;-31.506546;-1.7662587;43.076878;;878.6
1064.0;941.5;;;;;;;;;;;;;;0.8989532;-0.1424604;-0.23212378;;;;;878.6
1064.0;941.5;;;;;;;;;;;;;;;;;-30.957212;-3.1929991;41.74169;;888.2
1064.0;941.5;;;;;;;;;;;;;;0.90359205;-0.12848292;-0.263802;;;;;888.2
1064.0;941.5;;;;;;;;;;;;;;;;;-30.90762;-3.4485915;40.040283;;888.2
1064.0;941.5;;;;;;;;;;;;;;0.91152686;-0.107852414;-0.2789392;;;;;888.2
1123.0;1000.7;;;;;;;;;;;;;;;;;-31.044954;-3.0594807;38.357952;;897.9
1123.0;1000.7;;;;;;;;;;;;;;0.92080444;-0.092043824;-0.2757042;;;;;897.9
1123.0;1000.7;;;;;;;;;;;;;;;;;-31.40736;-2.8649251;36.389507;;897.9
1123.0;1000.7;;;;;;;;;;;;;;0.9376507;-0.07696768;-0.26441237;;;;;897.9
1123.0;1000.7;;;;;;;;;;;;;;;;;-31.651508;-1.9951477;34.375286;;907.5
1123.0;1000.7;;;;;;;;;;;;;;0.9496139;-0.0667745;-0.23902097;;;;;907.5
1123.0;1000.7;;;;;;;;;;;;;;;;;-31.514175;-1.6212958;32.170326;;907.5
1123.0;1000.7;;;;;;;;;;;;;;0.956267;-0.056398205;-0.22998749;;;;;907.5
1123.0;1000.7;;;;;;;;;;;;;;;;;-32.31529;-1.9112216;30.011139;;917.0
1123.0;1000.7;;;;;;;;;;;;;;0.95419174;-0.03668325;-0.2229072;;;;;917.0
1123.0;1000.7;;;;;;;;;;;;;;;;;-33.742027;-1.6022217;28.298288;;917.0
1123.0;1000.7;;;;;;;;;;;;;;0.96395767;-0.042725913;-0.17236854;;;;;917.0
1123.0;1001.5;;;;;;;;;;;;;;;;;-32.235176;-2.0638144;26.257362;;926.6
1123.0;1001.5;;;;;;;;;;;;;;0.9718925;-0.05450606;-0.14123966;;;;;926.6
1123.0;1001.5;;;;;;;;;;;;;;;;;-26.535845;-3.9788508;24.143957;;926.6
1123.0;1001.5;;;;;;;;;;;;;;0.98532057;-0.06500442;-0.1394696;;;;;926.6
1123.0;1001.5;;;;;;;;;;;;;;;;;-19.936216;-6.9467754;22.057253;;936.3
1123.0;1001.5;;;;;;;;;;;;;;0.9935606;-0.07843257;-0.13324381;;;;;936.3
1123.0;1001.5;;;;;;;;;;;;;;;;;-15.949736;-8.129368;20.77929;;936.3
1123.0;1001.5;;;;;;;;;;;;;;1.0227973;-0.11450545;-0.079348125;;;;;936.3
1123.0;1001.5;;;;;;;;;;;;;;;;;-13.721885;-8.510849;18.997772;;945.9
1123.0;1001.5;;;;;;;;;;;;;;1.0217597;-0.13550219;-0.072634056;;;;;945.9
1123.0;1001.5;;;;;;;;;;;;;;;;;-8.316295;-11.67333;17.70455;;945.9
1123.0;1001.5;;;;;;;;;;;;;;1.0282906;-0.15558337;-0.16144292;;;;;945.9
1182.0;1062.4;;;;;;;;;;;;;;;;;-2.3728142;-11.520738;17.132328;;955.6
1182.0;1062.4;;;;;;;;;;;;;;1.0137639;-0.17737357;-0.2268746;;;;;955.6
1182.0;1062.4;;;;;;;;;;;;;;;;;-0.0076296274;-8.045443;17.643513;;955.6
1182.0;1062.4;;;;;;;;;;;;;;0.9794;-0.19940794;-0.23023164;;;;;955.6
1182.0;1062.4;;;;;;;;;;;;;;;;;-0.69429606;-4.9783316;18.414106;;965.2
1182.0;1062.4;;;;;;;;;;;;;;0.94985807;-0.22034363;-0.21106601;;;;;965.2
1182.0;1062.4;;;;;;;;;;;;;;;;;-2.9183326;-3.7728508;18.616291;;965.2
1182.0;1062.4;;;;;;;;;;;;;;0.92641985;-0.22211371;-0.20587787;;;;;965.2
1182.0;1062.4;;;;;;;;;;;;;;;;;-5.8709984;-3.7537766;18.429365;;974.9
1182.0;1062.4;;;;;;;;;;;;;;0.91384625;-0.20551164;-0.22162542;;;;;974.9
1182.0;1062.4;;;;;;;;;;;;;;;;;-8.152257;-4.1314435;18.467514;;974.9
1182.0;1062.4;;;;;;;;;;;;;;0.90713215;-0.1984924;-0.25238806;;;;;974.9
1182.0;1063.1;;;;;;;;;;;;;;;;;-8.857997;-3.360851;18.257698;;984.5
1182.0;1063.1;;;;;;;;;;;;;;0.8937651;-0.18048647;-0.27167577;;;;;984.5
1182.0;1063.1;;;;;;;;;;;;;;;;;-7.9233685;-2.2354808;18.398846;;984.5
1182.0;1063.1;;;;;;;;;;;;;;0.88015383;-0.17554247;-0.27539903;;;;;984.5
1182.0;1063.1;;;;;;;;;;;;;;;;;-5.672628;-1.2665181;18.21192;;994.2
1182.0;1063.1;;;;;;;;;;;;;;0.8649556;-0.16187018;-0.27582628;;;;;994.2
1182.0;1063.1;;;;;;;;;;;;;;;;;-3.1472213;-0.45014802;17.937254;;994.2
1182.0;1063.1;;;;;;;;;;;;;;0.85238194;-0.1605884;-0.2669759;;;;;994.2
1182.0;1063.1;;;;;;;;;;;;;;;;;-1.5449996;-0.57222205;17.303995;;1003.8
1182.0;1063.1;;;;;;;;;;;;;;0.84939116;-0.1551561;-0.27082124;;;;;1003.8
1182.0;1063.1;;;;;;;;;;;;;;;;;-1.0376294;-0.65233314;16.464737;;1003.8
1182.0;1063.1;;;;;;;;;;;;;;0.8515885;-0.1507004;-0.27747428;;;;;1003.8
1183.0;1126.8;;;;0.0;0.0;0.0;;;;;;;;;;;;;;;
1183.0;1126.8;;;;-0.08067704;0.35019305;0.07403947;;;;;;;;;;;;;;;
1183.0;1126.8;;;;-0.20424274;1.04451;0.09653856;;;;;;;;;;;;;;;
1183.0;1126.8;;;;-0.20936206;1.0837365;0.08366776;;;;;;;;;;;;;;;
1183.0;1126.8;;;;-0.2105942;1.1014367;0.0853386;;;;;;;;;;;;;;;
1183.0;1136.8;;;;;;;;;;;;;;;;;-0.6904813;-0.5035554;15.3202915;;1013.5
1183.0;1136.8;;;;;;;;;;;;;;0.84865874;-0.14404736;-0.29419842;;;;;1013.5
1183.0;1136.8;;;;;;;;;;;;;;;;;-0.79729605;-0.8049257;14.01181;;1013.5
1183.0;1136.8;;;;;;;;;;;;;;0.852443;-0.130253;-0.32447278;;;;;1013.5
1183.0;1136.8;;;;;;;;;;;;;;;;;-1.5678884;0.11444441;12.909329;;1023.1
1183.0;1136.8;;;;;;;;;;;;;;0.85567796;-0.12402722;-0.32886747;;;;;1023.1
1183.0;1136.8;;;;;;;;;;;;;;;;;-2.9793696;2.1744437;11.715293;;1023.1
1183.0;1136.8;;;;;;;;;;;;;;0.8608661;-0.119754635;-0.3030488;;;;;1023.1
1183.0;1136.8;;;;;;;;;;;;;;;;;-4.0704064;4.8219247;10.570848;;1032.7
1183.0;1136.8;;;;;;;;;;;;;;0.8570208;-0.12604144;-0.2710654;;;;;1032.7
1183.0;1136.8;;;;;;;;;;;;;;;;;-4.9401836;6.2372203;9.491257;;1032.7
1183.0;1136.8;;;;;;;;;;;;;;0.8551897;-0.15552233;-0.21985534;;;;;1032.7
1241.0;1136.8;;;;-0.21655658;1.1210977;0.08776475;;;;;;;;;;;;;;;
1241.0;1136.8;;;;-0.21971133;1.1424943;0.09047318;;;;;;;;;;;;;;;
1241.0;1136.8;;;;-0.2215462;1.1615449;0.09465791;;;;;;;;;;;;;;;
1241.0;1136.8;;;;-0.22211078;1.179104;0.099994674;;;;;;;;;;;;;;;
1241.0;1136.8;;;;-0.22006229;1.19516;0.10448839;;;;;;;;;;;;;;;
1241.0;1137.6;;;;;;;;;;;;;;;;;-9.11359;9.643849;8.365887;;1042.4
1241.0;1137.6;;;;;;;;;;;;;;0.890347;-0.20899075;-0.10254219;;;;;1042.4
1241.0;1137.6;;;;;;;;;;;;;;;;;-9.983367;13.775291;6.5881834;;1042.4
1241.0;1137.6;;;;;;;;;;;;;;0.9046907;-0.20990631;0.003418073;;;;;1042.4
1241.0;1137.6;;;;;;;;;;;;;;;;;-5.7184057;11.791589;5.058443;;1052.0
1241.0;1137.6;;;;;;;;;;;;;;0.9307535;-0.21643727;-0.037415694;;;;;1052.0
1241.0;1137.6;;;;;;;;;;;;;;;;;-1.209296;5.760369;4.127629;;1052.0
1241.0;1137.6;;;;;;;;;;;;;;0.969573;-0.24640645;-0.18988617;;;;;1052.0
1241.0;1137.6;;;;;;;;;;;;;;;;;-2.2240365;2.66274;4.7074804;;1061.7
1241.0;1137.6;;;;;;;;;;;;;;1.0422071;-0.31305888;-0.2987762;;;;;1061.7
1241.0;1137.6;;;;;;;;;;;;;;;;;-4.4328136;4.5167394;6.1799984;;1061.7
1241.0;1137.6;;;;;;;;;;;;;;1.096408;-0.37336344;-0.31122777;;;;;1061.7
1241.0;1137.9;57416;57498;12128;;;;;;;;;;;;;;;;;;
1241.0;1146.6;;;;-0.21581653;1.2090799;0.108417526;;;;;;;;;;;;;;;
1241.0;1146.6;;;;-0.21462634;1.2224542;0.11249544;;;;;;;;;;;;;;;
1241.0;1146.6;;;;-0.21068957;1.2344095;0.1130829;;;;;;;;;;;;;;;
1241.0;1146.6;;;;-0.20610431;1.2401658;0.11458208;;;;;;;;;;;;;;;
1241.0;1146.6;;;;-0.20313266;1.2433282;0.118690506;;;;;;;;;;;;;;;
1243.0;1156.6;;;;-0.20153049;1.2466584;0.11985017;;;;;;;;;;;;;;;
1243.0;1156.6;;;;-0.198082;1.2448846;0.122165695;;;;;;;;;;;;;;;
1243.0;1156.6;;;;-0.19311908;1.2510186;0.112850204;;;;;;;;;;;;;;;
1243.0;1156.6;;;;-0.18873599;1.2435457;0.10426332;;;;;;;;;;;;;;;
1243.0;1156.6;;;;-0.18497087;1.23555;0.11227037;;;;;;;;;;;;;;;
1243.0;1158.0;73815;73843;12122;;;;;;;;;;;;;;;;;;
1243.0;1164.4;;;;;;;;;;;;;0;;;;;;;;
1243.0;1164.4;;;;;;;;;;;;;0;;;;;;;;
1243.0;1164.4;;;;;;;;;;;;;-1;;;;;;;;
1243.0;1164.4;;;;;;;;;;;;;-2;;;;;;;;
1243.0;1164.4;;;;;;;;;;;;;-3;;;;;;;;
1243.0;1166.7;;;;-0.18143083;1.2288934;0.117054;;;;;;;;;;;;;;;
1243.0;1166.7;;;;-0.1743622;1.2223359;0.11563875;;;;;;;;;;;;;;;
1243.0;1166.7;;;;-0.16641618;1.2147828;0.11344911;;;;;;;;;;;;;;;
1243.0;1166.7;;;;-0.15877916;1.2064439;0.11064531;;;;;;;;;;;;;;;
1243.0;1166.7;;;;-0.1533928;1.1989671;0.10669328;;;;;;;;;;;;;;;
1243.0;1176.8;;;;-0.14871599;1.1923524;0.10205461;;;;;;;;;;;;;;;
1243.0;1176.8;;;;-0.14493562;1.1860772;0.09899141;;;;;;;;;;;;;;;
1243.0;1176.8;;;;-0.1431656;1.1802408;0.097354904;;;;;;;;;;;;;;;
1243.0;1176.8;;;;-0.14221193;1.1748544;0.09510805;;;;;;;;;;;;;;;
1243.0;1176.8;;;;-0.14163591;1.1699411;0.09152985;;;;;;;;;;;;;;;
1243.0;1178.2;90277;90188;12115;;;;;;;;;;;;;;;;;;
1244.0;1186.9;;;;-0.14165117;1.1650125;0.08810044;;;;;;;;;;;;;;;
1244.0;1186.9;;;;-0.14169694;1.1596566;0.0857277;;;;;;;;;;;;;;;
1244.0;1186.9;;;;-0.14291002;1.1547014;0.08406449;;;;;;;;;;;;;;;
1244.0;1186.9;;;;-0.14449312;1.1495248;0.08277512;;;;;;;;;;;;;;;
1244.0;1186.9;;;;-0.14606477;1.1443292;0.08109284;;;;;;;;;;;;;;;
1244.0;1189.1;;;;;;;;;;;;;;;;;-4.055147;4.6464434;8.220923;;1071.4
1244.0;1189.1;;;;;;;;;;;;;;1.1456648;-0.41926327;-0.3200171;;;;;1071.4
1244.0;1189.1;;;;;;;;;;;;;;;;;-2.5864437;4.203925;10.2732935;;1071.4
1244.0;1189.1;;;;;;;;;;;;;;1.1883297;-0.43855098;-0.33179724;;;;;1071.4
1244.0;1189.1;;;;;;;;;;;;;;;;;-1.7700735;3.810999;12.627033;;1081.0
1244.0;1189.1;;;;;;;;;;;;;;1.1910154;-0.43116552;-0.3490707;;;;;1081.0
1244.0;1189.1;;;;;;;;;;;;;;;;;-1.7586291;2.4338512;15.385143;;1081.0
1244.0;1189.1;;;;;;;;;;;;;;1.1731925;-0.4051027;-0.37617114;;;;;1081.0
1244.0;1189.1;;;;;;;;;;;;;;;;;-2.803888;1.8501847;17.597734;;1090.7
1244.0;1189.1;;;;;;;;;;;;;;1.1681875;-0.37434003;-0.37836847;;;;;1090.7
1244.0;1189.1;;;;;;;;;;;;;;;;;-3.6736658;4.4442577;18.478958;;1090.7
1244.0;1189.1;;;;;;;;;;;;;;1.1725211;-0.34846035;-0.33216345;;;;;1090.7
1245.0;1189.9;;;;;;;;;;;;;;;;;-0.038148135;4.615925;17.326883;;1100.2
1245.0;1189.9;;;;;;;;;;;;;;1.1835688;-0.32490006;-0.3124485;;;;;1100.2
1245.0;1189.9;;;;;;;;;;;;;;;;;7.3587756;-0.15259254;15.14481;;1100.2
1245.0;1189.9;;;;;;;;;;;;;;1.1982177;-0.31434065;-0.37372968;;;;;1100.2
1245.0;1189.9;;;;;;;;;;;;;;;;;12.737662;-3.5287027;13.61507;;1109.8
1245.0;1189.9;;;;;;;;;;;;;;1.1988891;-0.30310982;-0.4540544;;;;;1109.8
1245.0;1189.9;;;;;;;;;;;;;;;;;12.691885;-0.6065554;12.913144;;1109.8
1245.0;1189.9;;;;;;;;;;;;;;1.1749626;-0.25104526;-0.44312876;;;;;1109.8
1245.0;1189.9;;;;;;;;;;;;;;;;;9.365368;4.749443;12.462996;;1119.5
1245.0;1189.9;;;;;;;;;;;;;;1.1457869;-0.15875728;-0.36121708;;;;;1119.5
1245.0;1189.9;;;;;;;;;;;;;;;;;4.1314435;10.353404;11.192663;;1119.5
1245.0;1189.9;;;;;;;;;;;;;;1.1264381;-0.04773095;-0.2598346;;;;;1119.5
1245.0;1196.8;;;;-0.14691927;1.1390458;0.07990647;;;;;;;;;;;;;;;
1245.0;1196.8;;;;-0.14827348;1.1335336;0.07892228;;;;;;;;;;;;;;;
1245.0;1196.8;;;;-0.15077592;1.1276628;0.079364784;;;;;;;;;;;;;;;
1245.0;1196.8;;;;-0.15510942;1.1213533;0.080249794;;;;;;;;;;;;;;;
1245.0;1196.8;;;;-0.15954591;1.1143037;0.07957841;;;;;;;;;;;;;;;
1245.0;1198.2;106644;106567;12115;;;;;;;;;;;;;;;;;;
1245.0;1204.6;;;;;;;;;;;;;-9;;;;;;;;
1245.0;1204.6;;;;;;;;;;;;;-4;;;;;;;;
1245.0;1204.6;;;;;;;;;;;;;-5;;;;;;;;
1245.0;1204.6;;;;;;;;;;;;;-29;;;;;;;;
1245.0;1204.6;;;;;;;;;;;;;-7;;;;;;;;
1301.0;1206.8;;;;-0.16363908;1.1069032;0.07836152;;;;;;;;;;;;;;;
1301.0;1206.8;;;;-0.16714098;1.0990716;0.079738624;;;;;;;;;;;;;;;
1301.0;1206.8;;;;-0.17099382;1.0911332;0.08169175;;;;;;;;;;;;;;;
1301.0;1206.8;;;;-0.17548372;1.083294;0.08417512;;;;;;;;;;;;;;;
1301.0;1206.8;;;;-0.18070222;1.0751573;0.086780556;;;;;;;;;;;;;;;
1301.0;1216.7;;;;-0.1865883;1.0674783;0.0892067;;;;;;;;;;;;;;;
1301.0;1216.7;;;;-0.19210437;1.059559;0.092342384;;;;;;;;;;;;;;;
1301.0;1216.7;;;;-0.19729236;1.051777;0.09597017;;;;;;;;;;;;;;;
1301.0;1216.7;;;;-0.20189288;1.0439454;0.09874345;;;;;;;;;;;;;;;
1301.0;1216.7;;;;-0.20555118;1.0368806;0.10234071;;;;;;;;;;;;;;;
1301.0;1218.2;122993;123041;12125;;;;;;;;;;;;;;;;;;
1301.0;1226.8;;;;-0.20880511;1.0291253;0.10552217;;;;;;;;;;;;;;;
1301.0;1226.8;;;;-0.21219257;1.0215417;0.109043136;;;;;;;;;;;;;;;
1301.0;1226.8;;;;-0.21532062;1.0137063;0.11381151;;;;;;;;;;;;;;;
1301.0;1226.8;;;;-0.21839908;1.0059396;0.117935196;;;;;;;;;;;;;;;
1301.0;1226.8;;;;-0.22112277;0.99863064;0.12224199;;;;;;;;;;;;;;;
1301.0;1236.9;;;;-0.224453;0.9915391;0.12646486;;;;;;;;;;;;;;;
1301.0;1236.9;;;;-0.22695926;0.9839784;0.130497;;;;;;;;;;;;;;;
1301.0;1236.9;;;;-0.2288895;0.9769212;0.1346779;;;;;;;;;;;;;;;
1301.0;1236.9;;;;-0.23030475;0.969494;0.13854982;;;;;;;;;;;;;;;
1301.0;1236.9;;;;-0.23106387;0.9619218;0.14239122;;;;;;;;;;;;;;;
1303.0;1238.5;139416;139412;12133;;;;;;;;;;;;;;;;;;
1303.0;1242.0;;;;;;;;;;;;;;;;;0.27085176;15.224921;8.434553;;1129.1
1303.0;1242.0;;;;;;;;;;;;;;1.0912198;0.06317332;-0.16217536;;;;;1129.1
1303.0;1242.0;;;;;;;;;;;;;;;;;-1.0605181;16.697441;4.2878504;;1129.1
1303.0;1242.0;;;;;;;;;;;;;;1.0383008;0.15558337;-0.10614338;;;;;1129.1
1303.0;1242.0;;;;;;;;;;;;;;;;;-1.1787775;14.202551;0.4730369;;1138.8
1303.0;1242.0;;;;;;;;;;;;;;1.004059;0.1975158;-0.12848292;;;;;1138.8
1303.0;1242.0;;;;;;;;;;;;;;;;;-1.617481;11.768701;-3.4409618;;1138.8
1303.0;1242.0;;;;;;;;;;;;;;0.99484235;0.21192053;-0.18408765;;;;;1138.8
1303.0;1242.0;;;;;;;;;;;;;;;;;-3.8033693;12.009034;-7.229072;;1148.4
1303.0;1242.0;;;;;;;;;;;;;;1.0055238;0.20587787;-0.21295816;;;;;1148.4
1303.0;1242.0;;;;;;;;;;;;;;;;;-5.493332;13.843959;-11.013368;;1148.4
1303.0;1242.0;;;;;;;;;;;;;;1.0320139;0.18256173;-0.20044558;;;;;1148.4
1305.0;1242.6;;;;;;;;;;;;;;;;;-6.14948;15.65218;-15.259254;;1157.9
1305.0;1242.6;;;;;;;;;;;;;;1.066866;0.15063937;-0.1685232;;;;;1157.9
1305.0;1242.6;;;;;;;;;;;;;;;;;-7.4083686;17.07892;-19.974363;;1157.9
1305.0;1242.6;;;;;;;;;;;;;;1.0975677;0.12115848;-0.14777063;;;;;1157.9
1305.0;1242.6;;;;;;;;;;;;;;;;;-9.651479;18.238625;-24.8764;;1167.5
1305.0;1242.6;;;;;;;;;;;;;;1.12302;0.095278785;-0.13861507;;;;;1167.5
1305.0;1242.6;;;;;;;;;;;;;;;;;-12.241737;18.753624;-29.786066;;1167.5
1305.0;1242.6;;;;;;;;;;;;;;1.1454817;0.07684561;-0.14209418;;;;;1167.5
1305.0;1242.6;;;;;;;;;;;;;;;;;-14.034699;18.990143;-34.871212;;1177.2
1305.0;1242.6;;;;;;;;;;;;;;1.1630604;0.07025361;-0.15204321;;;;;1177.2
1305.0;1242.6;;;;;;;;;;;;;;;;;-14.290292;19.863733;-40.337837;;1177.2
1305.0;1242.6;;;;;;;;;;;;;;1.1731315;0.06610309;-0.13409834;;;;;1177.2
1305.0;1244.4;;;;;;;;;;;;;-58;;;;;;;;
1305.0;1244.4;;;;;;;;;;;;;-36;;;;;;;;
1305.0;1244.4;;;;;;;;;;;;;14;;;;;;;;
1305.0;1244.4;;;;;;;;;;;;;-261;;;;;;;;
1305.0;1244.4;;;;;;;;;;;;;122;;;;;;;;
1305.0;1246.6;;;;-0.23165134;0.9544145;0.14597322;;;;;;;;;;;;;;;
1305.0;1246.6;;;;-0.23249438;0.9463731;0.14955522;;;;;;;;;;;;;;;
1305.0;1246.6;;;;-0.23360065;0.9371873;0.15325929;;;;;;;;;;;;;;;
1305.0;1246.6;;;;-0.23452762;0.9278413;0.15683748;;;;;;;;;;;;;;;
1305.0;1246.6;;;;-0.23531726;0.9182855;0.16003038;;;;;;;;;;;;;;;
1363.0;1256.6;;;;-0.23634723;0.9080621;0.16308214;;;;;;;;;;;;;;;
1363.0;1256.6;;;;-0.23747256;0.8973924;0.16578294;;;;;;;;;;;;;;;
1363.0;1256.6;;;;-0.23838809;0.88617337;0.16852953;;;;;;;;;;;;;;;
1363.0;1256.6;;;;-0.23912051;0.8750993;0.17218019;;;;;;;;;;;;;;;
1363.0;1256.6;;;;-0.24011996;0.8637582;0.17591478;;;;;;;;;;;;;;;
1363.0;1258.2;155634;155776;12129;;;;;;;;;;;;;;;;;;
1363.0;1266.6;;;;-0.24071506;0.85195935;0.1784897;;;;;;;;;;;;;;;
1363.0;1266.6;;;;-0.24106601;0.8403703;0.18013002;;;;;;;;;;;;;;;
1363.0;1266.6;;;;-0.24187472;0.82831967;0.18172838;;;;;;;;;;;;;;;
1363.0;1266.6;;;;-0.24255374;0.8163148;0.18318559;;;;;;;;;;;;;;;
1363.0;1266.6;;;;-0.2434273;0.8046838;0.18423845;;;;;;;;;;;;;;;
1363.0;1276.6;;;;-0.24469379;0.7932893;0.18544008;;;;;;;;;;;;;;;
1363.0;1276.6;;;;-0.2457619;0.7825166;0.18613817;;;;;;;;;;;;;;;
1363.0;1276.6;;;;-0.24765399;0.771515;0.1851082;;;;;;;;;;;;;;;
1363.0;1276.6;;;;-0.24923709;0.760811;0.18397142;;;;;;;;;;;;;;;
1363.0;1276.6;;;;-0.25040057;0.75084317;0.1834488;;;;;;;;;;;;;;;
1363.0;1278.3;172122;172221;12142;;;;;;;;;;;;;;;;;;
1363.0;1284.7;;;;;;;;;;;;;682;;;;;;;;
1363.0;1284.7;;;;;;;;;;;;;-466;;;;;;;;
1363.0;1284.7;;;;;;;;;;;;;-1516;;;;;;;;
1363.0;1284.7;;;;;;;;;;;;;1257;;;;;;;;
1363.0;1284.7;;;;;;;;;;;;;8190;;;;;;;;
1364.0;1286.7;;;;-0.25094607;0.7412606;0.18197633;;;;;;;;;;;;;;;
1364.0;1286.7;;;;-0.2508469;0.7323113;0.17959215;;;;;;;;;;;;;;;
1364.0;1286.7;;;;-0.24892047;0.7245484;0.177372;;;;;;;;;;;;;;;
1364.0;1286.7;;;;-0.24799731;0.71640784;0.17499162;;;;;;;;;;;;;;;
1364.0;1286.7;;;;-0.2456856;0.708458;0.17245866;;;;;;;;;;;;;;;
1364.0;1296.8;;;;-0.24241641;0.7014542;0.16862871;;;;;;;;;;;;;;;
1364.0;1296.8;;;;-0.23819354;0.6959267;0.16572954;;;;;;;;;;;;;;;
1364.0;1296.8;;;;-0.23534778;0.6902352;0.16334154;;;;;;;;;;;;;;;
1364.0;1296.8;;;;-0.23223117;0.6857682;0.16068651;;;;;;;;;;;;;;;
1364.0;1296.8;;;;-0.22919849;0.68160635;0.1580124;;;;;;;;;;;;;;;
1364.0;1298.5;188593;188632;12144;;;;;;;;;;;;;;;;;;
1364.0;1301.8;;;;;;;;;;;;;;;;;-11.539811;21.008179;-46.365246;;1186.9
1364.0;1301.8;;;;;;;;;;;;;;1.1813104;0.07129124;-0.11169775;;;;;1186.9
1364.0;1301.8;;;;;;;;;;;;;;;;;-6.2448497;22.968992;-52.90002;;1186.9
1364.0;1301.8;;;;;;;;;;;;;;1.1861324;0.07879879;-0.082583085;;;;;1186.9
1364.0;1301.8;;;;;;;;;;;;;;;;;0.85833305;26.047548;-59.965054;;1196.6
1364.0;1301.8;;;;;;;;;;;;;;1.1756951;0.08697775;-0.043702506;;;;;1196.6
1364.0;1301.8;;;;;;;;;;;;;;;;;8.373516;28.668325;-67.04917;;1196.6
1364.0;1301.8;;;;;;;;;;;;;;1.1476791;0.093264565;-0.031983398;;;;;1196.6
1364.0;1301.8;;;;;;;;;;;;;;;;;14.610737;30.323954;-73.91583;;1206.2
1364.0;1301.8;;;;;;;;;;;;;;1.1113621;0.08825953;-0.037659843;;;;;1206.2
1364.0;1301.8;;;;;;;;;;;;;;;;;17.994476;31.491287;-80.595566;;1206.2
1364.0;1301.8;;;;;;;;;;;;;;1.0644245;0.07843257;-0.054933317;;;;;1206.2
1366.0;1302.6;;;;;;;;;;;;;;;;;19.810328;32.826473;-86.86713;;1215.8
1366.0;1302.6;;;;;;;;;;;;;;1.0060732;0.074221015;-0.06146428;;;;;1215.8
1366.0;1302.6;;;;;;;;;;;;;;;;;22.52266;33.516956;-92.9899;;1215.8
1366.0;1302.6;;;;;;;;;;;;;;0.9306925;0.08777124;-0.06921598;;;;;1215.8
1366.0;1302.6;;;;;;;;;;;;;;;;;26.2154;33.547474;-98.68542;;1225.5
1366.0;1302.6;;;;;;;;;;;;;;0.8996857;0.09595019;-0.04992828;;;;;1225.5
1366.0;1302.6;;;;;;;;;;;;;;;;;27.851954;30.50325;-103.64468;;1225.5
1366.0;1302.6;;;;;;;;;;;;;;0.8872341;0.09790338;-0.07928709;;;;;1225.5
1366.0;1302.6;;;;;;;;;;;;;;;;;26.123844;29.919584;-108.48949;;1235.2
1366.0;1302.6;;;;;;;;;;;;;;0.8438978;0.098391674;-0.07940916;;;;;1235.2
1366.0;1302.6;;;;;;;;;;;;;;;;;22.785881;29.065065;-112.1517;;1235.2
1366.0;1302.6;;;;;;;;;;;;;;0.8299814;0.07061983;-0.046449173;;;;;1235.2
1366.0;1306.8;;;;-0.22576144;0.67812735;0.15396501;;;;;;;;;;;;;;;
1366.0;1306.8;;;;-0.22160342;0.6762772;0.1511078;;;;;;;;;;;;;;;
1366.0;1306.8;;;;-0.21744159;0.6750794;0.14828493;;;;;;;;;;;;;;;
1366.0;1306.8;;;;-0.2131348;0.6747704;0.14548494;;;;;;;;;;;;;;;
1366.0;1306.8;;;;-0.2093201;0.6749421;0.14345552;;;;;;;;;;;;;;;
1367.0;1316.8;;;;;;;;;;;;;;;;;19.95529;27.474287;-116.515854;;1244.8
1367.0;1316.8;;;;;;;;;;;;;;0.83712274;0.026367992;-0.039002657;;;;;1244.8
1367.0;1316.8;;;;;;;;;;;;;;;;;16.693626;28.000732;-122.04733;;1244.8
1367.0;1316.8;;;;;;;;;;;;;;0.8096561;0.012512589;-0.0413831;;;;;1244.8
1367.0;1316.8;;;;;;;;;;;;;;;;;11.314737;25.715658;-124.74441;;1254.5
1367.0;1316.8;;;;;;;;;;;;;;0.76277965;0.003234962;-0.07519761;;;;;1254.5
1367.0;1316.8;;;;;;;;;;;;;;;;;5.4437394;19.0817;-124.988556;;1254.5
1367.0;1316.8;;;;;;;;;;;;;;0.72060305;0.0043946654;-0.1594287;;;;;1254.5
1367.0;1316.8;;;;;;;;;;;;;;;;;1.8196661;9.258553;-124.988556;;1264.1
1367.0;1316.8;;;;;;;;;;;;;;0.6509598;-0.0027466659;-0.28510392;;;;;1264.1
1367.0;1316.8;;;;;;;;;;;;;;;;;1.1368145;-3.7347028;-124.988556;;1264.1
1367.0;1316.8;;;;;;;;;;;;;;0.58571124;0.03051851;-0.41358685;;;;;1264.1
1367.0;1316.7;;;;-0.20547107;0.6760827;0.14075471;;;;;;;;;;;;;;;
1367.0;1316.7;;;;-0.20177844;0.677887;0.13921358;;;;;;;;;;;;;;;
1367.0;1316.7;;;;-0.19825366;0.680523;0.13724901;;;;;;;;;;;;;;;
1367.0;1316.7;;;;-0.19490054;0.68378836;0.13584901;;;;;;;;;;;;;;;
1367.0;1316.7;;;;-0.19174197;0.6862946;0.13455583;;;;;;;;;;;;;;;
1367.0;1318.4;204895;204967;12147;;;;;;;;;;;;;;;;;;
1367.0;1324.8;;;;;;;;;;;;;14832;;;;;;;;
1367.0;1324.8;;;;;;;;;;;;;16667;;;;;;;;
1367.0;1324.8;;;;;;;;;;;;;14462;;;;;;;;
1367.0;1324.8;;;;;;;;;;;;;12415;;;;;;;;
1367.0;1324.8;;;;;;;;;;;;;12540;;;;;;;;
1420.0;1326.7;;;;-0.18883517;0.689766;0.13340761;;;;;;;;;;;;;;;
1420.0;1326.7;;;;-0.18667604;0.6936112;0.13191225;;;;;;;;;;;;;;;
1420.0;1326.7;;;;-0.18494798;0.6972771;0.13133623;;;;;;;;;;;;;;;
1420.0;1326.7;;;;-0.18275835;0.7007294;0.13050462;;;;;;;;;;;;;;;
1420.0;1326.7;;;;-0.18166353;0.7042237;0.12897111;;;;;;;;;;;;;;;
1420.0;1336.6;;;;-0.17992021;0.7082482;0.12698747;;;;;;;;;;;;;;;
1420.0;1336.6;;;;-0.17723848;0.71221167;0.12557985;;;;;;;;;;;;;;;
1420.0;1336.6;;;;-0.17528535;0.7160836;0.1246071;;;;;;;;;;;;;;;
1420.0;1336.6;;;;-0.17270662;0.72079474;0.12298204;;;;;;;;;;;;;;;
1420.0;1336.6;;;;-0.17041399;0.7255059;0.12152101;;;;;;;;;;;;;;;
1420.0;1338.4;221440;221308;12137;;;;;;;;;;;;;;;;;;
1420.0;1346.7;;;;-0.16835405;0.7304192;0.12049104;;;;;;;;;;;;;;;
1420.0;1346.7;;;;-0.16652681;0.7358971;0.119964615;;;;;;;;;;;;;;;
1420.0;1346.7;;;;-0.1645775;0.7420731;0.11989595;;;;;;;;;;;;;;;
1420.0;1346.7;;;;-0.16233446;0.7490197;0.11858751;;;;;;;;;;;;;;;
1420.0;1346.7;;;;-0.16027834;0.75644314;0.11932756;;;;;;;;;;;;;;;
1420.0;1356.8;;;;-0.15863039;0.764351;0.119144455;;;;;;;;;;;;;;;
1420.0;1356.8;;;;-0.15745927;0.77264416;0.11985017;;;;;;;;;;;;;;;
1420.0;1356.8;;;;-0.15662767;0.78159344;0.120517746;;;;;;;;;;;;;;;
1420.0;1356.8;;;;-0.15585329;0.79112256;0.12206651;;;;;;;;;;;;;;;
1420.0;1356.8;;;;-0.1549759;0.8011819;0.123172775;;;;;;;;;;;;;;;
1422.0;1358.7;237711;237631;12135;;;;;;;;;;;;;;;;;;
1422.0;1362.2;;;;;;;;;;;;;;;;;3.711814;-19.379255;-124.988556;;1273.6
1422.0;1362.2;;;;;;;;;;;;;;0.5685598;0.04571673;-0.5157628;;;;;1273.6
1422.0;1362.2;;;;;;;;;;;;;;;;;10.23133;-34.649952;-124.988556;;1273.6
1422.0;1362.2;;;;;;;;;;;;;;0.57747126;0.0369274;-0.55110323;;;;;1273.6
1422.0;1362.2;;;;;;;;;;;;;;;;;17.567217;-45.07202;-124.988556;;1283.2
1422.0;1362.2;;;;;;;;;;;;;;0.63686025;0.021240883;-0.51258886;;;;;1283.2
1422.0;1362.2;;;;;;;;;;;;;;;;;23.720512;-48.993652;-124.988556;;1283.2
1422.0;1362.2;;;;;;;;;;;;;;0.79592276;-0.0046998505;-0.38770714;;;;;1283.2
1422.0;1362.2;;;;;;;;;;;;;;;;;28.157139;-44.75158;-124.69482;;1292.8
1422.0;1362.2;;;;;;;;;;;;;;1.0146794;-0.03338725;-0.23224586;;;;;1292.8
1422.0;1362.2;;;;;;;;;;;;;;;;;32.837917;-33.303326;-117.70226;;1292.8
1422.0;1362.2;;;;;;;;;;;;;;1.2631611;-0.12622456;-0.056642354;;;;;1292.8
1422.0;1364.9;;;;;;;;;;;;;12854;;;;;;;;
1422.0;1364.9;;;;;;;;;;;;;12171;;;;;;;;
1422.0;1364.9;;;;;;;;;;;;;11301;;;;;;;;
1422.0;1364.9;;;;;;;;;;;;;10412;;;;;;;;
1422.0;1364.9;;;;;;;;;;;;;9904;;;;;;;;
1422.0;1366.8;;;;-0.1533928;0.8108293;0.12457277;;;;;;;;;;;;;;;
1422.0;1366.8;;;;-0.15119936;0.820778;0.12600328;;;;;;;;;;;;;;;
1422.0;1366.8;;;;-0.14956667;0.8300096;0.12688066;;;;;;;;;;;;;;;
1422.0;1366.8;;;;-0.14771654;0.8393632;0.12844087;;;;;;;;;;;;;;;
1422.0;1366.8;;;;-0.14601137;0.8480226;0.12993242;;;;;;;;;;;;;;;
1483.0;1376.9;;;;;;;;;;;;;;;;;39.456615;-25.276955;-110.63722;;1302.4
1483.0;1376.9;;;;;;;;;;;;;;1.5319681;-0.2707602;0.08789331;;;;;1302.4
1483.0;1376.9;;;;;;;;;;;;;;;;;47.74621;-29.934843;-114.72289;;1302.4
1483.0;1376.9;;;;;;;;;;;;;;1.7655568;-0.33149204;0.096499525;;;;;1302.4
1483.0;1376.9;;;;;;;;;;;;;;;;;53.582874;-44.82406;-119.99496;;1312.1
1483.0;1376.9;;;;;;;;;;;;;;1.9507431;-0.24726096;-0.11316264;;;;;1312.1
1483.0;1376.9;;;;;;;;;;;;;;;;;54.54421;-51.770836;-116.62267;;1312.1
1483.0;1376.9;;;;;;;;;;;;;;1.9972533;-0.24414808;-0.3370464;;;;;1312.1
1483.0;1376.9;;;;;;;;;;;;;;;;;45.25895;-45.297096;-113.448746;;1321.6
1483.0;1376.9;;;;;;;;;;;;;;1.9765007;-0.28876615;-0.47688222;;;;;1321.6
1483.0;1376.9;;;;;;;;;;;;;;;;;23.373363;-25.704214;-115.63082;;1321.6
1483.0;1376.9;;;;;;;;;;;;;;1.8579669;-0.31171605;-0.48536637;;;;;1321.6
1483.0;1376.7;;;;-0.14541627;0.8575059;0.13066103;;;;;;;;;;;;;;;
1483.0;1376.7;;;;-0.14413072;0.8671533;0.13236238;;;;;;;;;;;;;;;
1483.0;1376.7;;;;-0.14421846;0.87625897;0.13478471;;;;;;;;;;;;;;;
1483.0;1376.7;;;;-0.14533235;0.8852807;0.13676454;;;;;;;;;;;;;;;
1483.0;1376.7;;;;-0.14639665;0.8944055;0.1391945;;;;;;;;;;;;;;;
1483.0;1378.6;254116;254079;12144;;;;;;;;;;;;;;;;;;
1483.0;1386.7;;;;-0.1472664;0.9042512;0.14196016;;;;;;;;;;;;;;;
1483.0;1386.7;;;;-0.14797975;0.9141351;0.14494707;;;;;;;;;;;;;;;
1483.0;1386.7;;;;-0.14984132;0.923607;0.14783098;;;;;;;;;;;;;;;
1483.0;1386.7;;;;-0.15193178;0.93233883;0.15013506;;;;;;;;;;;;;;;
1483.0;1386.7;;;;-0.15393831;0.94106305;0.15312196;;;;;;;;;;;;;;;
1486.0;1396.9;;;;-0.15612794;0.94921124;0.15678789;;;;;;;;;;;;;;;
1486.0;1396.9;;;;-0.15869905;0.9569169;0.16045381;;;;;;;;;;;;;;;
1486.0;1396.9;;;;-0.16058733;0.9638978;0.16510393;;;;;;;;;;;;;;;
1486.0;1396.9;;;;-0.16284944;0.96995175;0.16984941;;;;;;;;;;;;;;;
1486.0;1396.9;;;;-0.16533281;0.97491467;0.17455293;;;;;;;;;;;;;;;
1486.0;1398.8;262143;262143;12136;;;;;;;;;;;;;;;;;;
1486.0;1405.1;;;;;;;;;;;;;9887;;;;;;;;
1486.0;1405.1;;;;;;;;;;;;;9743;;;;;;;;
1486.0;1405.1;;;;;;;;;;;;;9477;;;;;;;;
1486.0;1405.1;;;;;;;;;;;;;9060;;;;;;;;
1486.0;1405.1;;;;;;;;;;;;;8384;;;;;;;;
1486.0;1407.0;;;;-0.16733934;0.97924435;0.17852403;;;;;;;;;;;;;;;
1486.0;1407.0;;;;-0.16911699;0.98178494;0.18214418;;;;;;;;;;;;;;;
1486.0;1407.0;;;;-0.1705475;0.9834329;0.18587495;;;;;;;;;;;;;;;
1486.0;1407.0;;;;-0.17201997;0.9839555;0.19032672;;;;;;;;;;;;;;;
1486.0;1407.0;;;;-0.17365266;0.98331463;0.1945267;;;;;;;;;;;;;;;
1486.0;1417.1;;;;-0.17615892;0.9809686;0.197876;;;;;;;;;;;;;;;
1486.0;1417.1;;;;-0.17865755;0.97742856;0.2010422;;;;;;;;;;;;;;;
1486.0;1417.1;;;;-0.18169023;0.9730493;0.20433429;;;;;;;;;;;;;;;
1486.0;1417.1;;;;-0.1846924;0.9671899;0.20706943;;;;;;;;;;;;;;;
1486.0;1417.1;;;;-0.18737032;0.96079266;0.20999911;;;;;;;;;;;;;;;
1486.0;1419.1;262143;262143;12141;;;;;;;;;;;;;;;;;;
1487.0;1422.1;;;;;;;;;;;;;;;;;1.003296;-0.54933316;-122.48604;;1331.1
1487.0;1422.1;;;;;;;;;;;;;;1.6117436;-0.26929533;-0.39411604;;;;;1331.1
1487.0;1422.1;;;;;;;;;;;;;;;;;-12.665181;21.114994;-124.90845;;1331.1
1487.0;1422.1;;;;;;;;;;;;;;1.3067416;-0.23401593;-0.21375164;;;;;1331.1
1487.0;1422.1;;;;;;;;;;;;;;;;;-18.04407;26.997437;-124.988556;;1340.7
1487.0;1422.1;;;;;;;;;;;;;;1.1465194;-0.18042544;-0.06567583;;;;;1340.7
1487.0;1422.1;;;;;;;;;;;;;;;;;-15.949736;20.397808;-124.988556;;1340.7
1487.0;1422.1;;;;;;;;;;;;;;1.0976897;-0.20819727;-0.058107242;;;;;1340.7
1487.0;1422.1;;;;;;;;;;;;;;;;;-12.215034;15.743736;-124.98474;;1350.3
1487.0;1422.1;;;;;;;;;;;;;;1.0660115;-0.19476913;-0.086489454;;;;;1350.3
1487.0;1422.1;;;;;;;;;;;;;;;;;-10.170293;12.432477;-124.10733;;1350.3
1487.0;1422.1;;;;;;;;;;;;;;1.0860927;-0.22486039;-0.119449444;;;;;1350.3
1487.0;1427.0;;;;-0.19005588;0.95399106;0.21246722;;;;;;;;;;;;;;;
1487.0;1427.0;;;;-0.19276813;0.9466287;0.21501163;;;;;;;;;;;;;;;
1487.0;1427.0;;;;-0.19557193;0.93841183;0.21667102;;;;;;;;;;;;;;;
1487.0;1427.0;;;;-0.19821551;0.9296762;0.218586;;;;;;;;;;;;;;;
1487.0;1427.0;;;;-0.20058444;0.9213067;0.21946338;;;;;;;;;;;;;;;
1489.0;1437.1;;;;;;;;;;;;;;;;;-7.778405;10.677664;-121.48274;;1360.0
1489.0;1437.1;;;;;;;;;;;;;;1.116184;-0.28241828;-0.17950988;;;;;1360.0
1489.0;1437.1;;;;;;;;;;;;;;;;;-6.9963684;15.434736;-119.121376;;1360.0
1489.0;1437.1;;;;;;;;;;;;;;1.0806605;-0.3419904;-0.18951994;;;;;1360.0
1489.0;1437.1;;;;;;;;;;;;;;;;;-9.258553;20.867031;-115.3447;;1369.7
1489.0;1437.1;;;;;;;;;;;;;;1.0328074;-0.3919187;-0.13702811;;;;;1369.7
1489.0;1437.1;;;;;;;;;;;;;;;;;-10.643331;21.881773;-111.899925;;1369.7
1489.0;1437.1;;;;;;;;;;;;;;1.0252998;-0.3867916;-0.15009002;;;;;1369.7
1489.0;1437.1;;;;;;;;;;;;;;;;;-11.581775;25.646992;-108.34071;;1379.3
1489.0;1437.1;;;;;;;;;;;;;;0.97219765;-0.4098636;-0.15533921;;;;;1379.3
1489.0;1437.1;;;;;;;;;;;;;;;;;-13.641774;28.36314;-104.575485;;1379.3
1489.0;1437.1;;;;;;;;;;;;;;0.8921781;-0.4295175;-0.11444441;;;;;1379.3
1489.0;1437.0;;;;-0.20373157;0.91341794;0.21970752;;;;;;;;;;;;;;;
1489.0;1437.0;;;;-0.20717242;0.905079;0.21955112;;;;;;;;;;;;;;;
1489.0;1437.0;;;;-0.21039584;0.8975984;0.22041324;;;;;;;;;;;;;;;
1489.0;1437.0;;;;-0.21402743;0.8905679;0.22060016;;;;;;;;;;;;;;;
1489.0;1437.0;;;;-0.21801761;0.8840333;0.2202492;;;;;;;;;;;;;;;
1489.0;1438.9;262143;262143;12132;;;;;;;;;;;;;;;;;;
1489.0;1445.2;;;;;;;;;;;;;7647;;;;;;;;
1489.0;1445.2;;;;;;;;;;;;;7118;;;;;;;;
1489.0;1445.2;;;;;;;;;;;;;6955;;;;;;;;
1489.0;1445.2;;;;;;;;;;;;;6891;;;;;;;;
1489.0;1445.2;;;;;;;;;;;;;6638;;;;;;;;
1541.0;1446.8;;;;-0.22185138;0.87817013;0.21945956;;;;;;;;;;;;;;;
1541.0;1446.8;;;;-0.22583774;0.87303174;0.218586;;;;;;;;;;;;;;;
1541.0;1446.8;;;;-0.22964099;0.8678819;0.21694186;;;;;;;;;;;;;;;
1541.0;1446.8;;;;-0.233902;0.8630029;0.2158623;;;;;;;;;;;;;;;
1541.0;1446.8;;;;-0.23827747;0.8581201;0.21459582;;;;;;;;;;;;;;;
1541.0;1456.8;;;;-0.24241641;0.8537103;0.21339801;;;;;;;;;;;;;;;
1541.0;1456.8;;;;-0.24710086;0.8488885;0.21318057;;;;;;;;;;;;;;;
1541.0;1456.8;;;;-0.25230792;0.8439981;0.21234515;;;;;;;;;;;;;;;
1541.0;1456.8;;;;-0.25716403;0.83898556;0.21171954;;;;;;;;;;;;;;;
1541.0;1456.8;;;;-0.26183704;0.8340684;0.21101382;;;;;;;;;;;;;;;
1541.0;1458.9;262143;262143;12139;;;;;;;;;;;;;;;;;;
1541.0;1466.9;;;;-0.2672234;0.8289834;0.210228;;;;;;;;;;;;;;;
1541.0;1466.9;;;;-0.2709885;0.8237535;0.21006015;;;;;;;;;;;;;;;
1541.0;1466.9;;;;-0.27497867;0.8185388;0.20884326;;;;;;;;;;;;;;;
1541.0;1466.9;;;;-0.27888492;0.8137361;0.2082558;;;;;;;;;;;;;;;
1541.0;1466.9;;;;-0.28200534;0.80895245;0.2070351;;;;;;;;;;;;;;;
1541.0;1477.0;;;;-0.2853394;0.80461895;0.20688632;;;;;;;;;;;;;;;
1541.0;1477.0;;;;-0.2883835;0.8001329;0.20713428;;;;;;;;;;;;;;;
1541.0;1477.0;;;;-0.2907906;0.7965051;0.20862201;;;;;;;;;;;;;;;
1541.0;1477.0;;;;-0.2926102;0.7930871;0.20956805;;;;;;;;;;;;;;;
1541.0;1477.0;;;;-0.29394153;0.790558;0.21136478;;;;;;;;;;;;;;;
1543.0;1479.1;262143;262143;12139;;;;;;;;;;;;;;;;;;
1543.0;1482.6;;;;;;;;;;;;;;;;;-14.980773;24.018068;-99.93667;;1388.6
1543.0;1482.6;;;;;;;;;;;;;;0.8587909;-0.43324077;-0.1081576;;;;;1388.6
1543.0;1482.6;;;;;;;;;;;;;;;;;-14.072847;17.77703;-94.67223;;1388.6
1543.0;1482.6;;;;;;;;;;;;;;0.8256478;-0.4215827;-0.123416856;;;;;1388.6
1543.0;1482.6;;;;;;;;;;;;;;;;;-13.119144;12.337108;-89.20178;;1398.2
1543.0;1482.6;;;;;;;;;;;;;;0.79250467;-0.3863033;-0.14600055;;;;;1398.2
1543.0;1482.6;;;;;;;;;;;;;;;;;-12.310404;7.9119234;-82.95694;;1398.2
1543.0;1482.6;;;;;;;;;;;;;;0.7673574;-0.34864345;-0.15112767;;;;;1398.2
1543.0;1482.6;;;;;;;;;;;;;;;;;-11.207922;4.039888;-77.01727;;1407.9
1543.0;1482.6;;;;;;;;;;;;;;0.7385479;-0.32355723;-0.1445967;;;;;1407.9
1543.0;1482.6;;;;;;;;;;;;;;;;;-9.578998;-0.4158147;-70.23072;;1407.9
1543.0;1482.6;;;;;;;;;;;;;;0.7543565;-0.27863398;-0.13098544;;;;;1407.9
1543.0;1485.3;;;;;;;;;;;;;6103;;;;;;;;
1543.0;1485.3;;;;;;;;;;;;;5765;;;;;;;;
1543.0;1485.3;;;;;;;;;;;;;6644;;;;;;;;
1543.0;1485.3;;;;;;;;;;;;;7927;;;;;;;;
1543.0;1485.3;;;;;;;;;;;;;5974;;;;;;;;
1543.0;1487.0;;;;-0.29467776;0.7882043;0.21266177;;;;;;;;;;;;;;;
1543.0;1487.0;;;;-0.29417422;0.786728;0.21418002;;;;;;;;;;;;;;;
1543.0;1487.0;;;;-0.29304507;0.7858316;0.21550754;;;;;;;;;;;;;;;
1543.0;1487.0;;;;-0.29225925;0.785431;0.21738055;;;;;;;;;;;;;;;
1543.0;1487.0;;;;-0.29121783;0.7855073;0.21989825;;;;;;;;;;;;;;;
1600.0;1489.7;;;;;;;;;;;;;;;;;-8.594775;-3.89111;-63.734093;;1417.5
1600.0;1489.7;;;;;;;;;;;;;;0.7218238;-0.2636189;-0.13037507;;;;;1417.5
1600.0;1489.7;;;;;;;;;;;;;;;;;-9.163182;-5.512406;-57.664722;;1417.5
1600.0;1489.7;;;;;;;;;;;;;;0.7025361;-0.22809534;-0.08764916;;;;;1417.5
1600.0;1489.7;;;;;;;;;;;;;;;;;-11.757256;-9.750664;-50.622578;;1427.2
1600.0;1489.7;;;;;;;;;;;;;;0.71486557;-0.21027254;-0.09161656;;;;;1427.2
1600.0;1489.7;;;;;;;;;;;;;;;;;-16.056551;-7.7669606;-45.010986;;1427.2
1600.0;1489.7;;;;;;;;;;;;;;0.64674824;-0.17493209;-0.061525315;;;;;1427.2
1600.0;1489.7;;;;;;;;;;;;;;;;;-21.607105;-6.9544053;-38.796658;;1436.8
1600.0;1489.7;;;;;;;;;;;;;;0.6553545;-0.13922544;-0.002990814;;;;;1436.8
1600.0;1489.7;;;;;;;;;;;;;;;;;-28.427992;-8.735923;-32.46025;;1436.8
1600.0;1489.7;;;;;;;;;;;;;;0.66982025;-0.1032136;0.006408887;;;;;1436.8
1600.0;1496.8;;;;-0.29016498;0.78595746;0.22319415;;;;;;;;;;;;;;;
1600.0;1496.8;;;;-0.28953937;0.7866365;0.22640613;;;;;;;;;;;;;;;
1600.0;1496.8;;;;-0.28810123;0.78803647;0.2293854;;;;;;;;;;;;;;;
1600.0;1496.8;;;;-0.28670505;0.7894021;0.23306277;;;;;;;;;;;;;;;
1600.0;1496.8;;;;-0.2854233;0.791134;0.23677447;;;;;;;;;;;;;;;
1600.0;1499.0;262143;262143;12130;;;;;;;;;;;;;;;;;;
1600.0;1506.9;;;;-0.28364566;0.79288876;0.24048236;;;;;;;;;;;;;;;
1600.0;1506.9;;;;-0.28144076;0.79537594;0.24514773;;;;;;;;;;;;;;;
1600.0;1506.9;;;;-0.27919772;0.7972566;0.25071338;;;;;;;;;;;;;;;
1600.0;1506.9;;;;-0.27652362;0.7996217;0.25555804;;;;;;;;;;;;;;;
1600.0;1506.9;;;;-0.2731438;0.80209744;0.2608147;;;;;;;;;;;;;;;
1603.0;1516.9;;;;-0.2698517;0.8038484;0.2662163;;;;;;;;;;;;;;;
1603.0;1516.9;;;;-0.26708606;0.8059274;0.27104953;;;;;;;;;;;;;;;
1603.0;1516.9;;;;-0.26568225;0.8075181;0.27622607;;;;;;;;;;;;;;;
1603.0;1516.9;;;;-0.26534656;0.8093301;0.28302386;;;;;;;;;;;;;;;
1603.0;1516.9;;;;-0.26642612;0.81121457;0.2879639;;;;;;;;;;;;;;;
1603.0;1519.1;262143;262143;12138;;;;;;;;;;;;;;;;;;
1603.0;1525.4;;;;;;;;;;;;;-1266;;;;;;;;
1603.0;1525.4;;;;;;;;;;;;;-8831;;;;;;;;
1603.0;1525.4;;;;;;;;;;;;;-8818;;;;;;;;
1603.0;1525.4;;;;;;;;;;;;;-264;;;;;;;;
1603.0;1525.4;;;;;;;;;;;;;9270;;;;;;;;
1603.0;1527.0;;;;-0.26765445;0.81276333;0.29095843;;;;;;;;;;;;;;;
1603.0;1527.0;;;;-0.26806644;0.8149835;0.29418185;;;;;;;;;;;;;;;
1603.0;1527.0;;;;-0.26757053;0.8162919;0.29628757;;;;;;;;;;;;;;;
1603.0;1527.0;;;;-0.2672234;0.8179971;0.2973633;;;;;;;;;;;;;;;
1603.0;1527.0;;;;-0.26729968;0.8192369;0.29823306;;;;;;;;;;;;;;;
1603.0;1537.1;;;;-0.2671204;0.82011425;0.29901126;;;;;;;;;;;;;;;
1603.0;1537.1;;;;-0.26648334;0.8210794;0.30051807;;;;;;;;;;;;;;;
1603.0;1537.1;;;;-0.26632693;0.82187283;0.30118564;;;;;;;;;;;;;;;
1603.0;1537.1;;;;-0.26589587;0.82198346;0.30105975;;;;;;;;;;;;;;;
1603.0;1537.1;;;;-0.26523212;0.82195294;0.30065158;;;;;;;;;;;;;;;
1603.0;1539.4;262143;262143;12146;;;;;;;;;;;;;;;;;;
1605.0;1542.5;;;;;;;;;;;;;;;;;-37.289803;-7.57622;-26.661734;;1446.4
1605.0;1542.5;;;;;;;;;;;;;;0.67506945;-0.06439406;0.035340436;;;;;1446.4
1605.0;1542.5;;;;;;;;;;;;;;;;;-46.666615;-5.752739;-21.431623;;1446.4
1605.0;1542.5;;;;;;;;;;;;;;0.69374675;-0.0145268105;0.04998932;;;;;1446.4
1605.0;1542.5;;;;;;;;;;;;;;;;;-55.101166;-3.0404067;-16.708885;;1456.1
1605.0;1542.5;;;;;;;;;;;;;;0.68831444;0.013794366;0.049684133;;;;;1456.1
1605.0;1542.5;;;;;;;;;;;;;;;;;-61.342205;-2.7352216;-12.138738;;1456.1
1605.0;1542.5;;;;;;;;;;;;;;0.6895352;0.044007692;0.03320414;;;;;1456.1
1605.0;1542.5;;;;;;;;;;;;;;;;;-65.52324;-4.554888;-7.5838494;;1465.8
1605.0;1542.5;;;;;;;;;;;;;;0.68453014;0.05383465;-0.0018921476;;;;;1465.8
1605.0;1542.5;;;;;;;;;;;;;;;;;-67.22083;-6.0960727;-3.0404067;;1465.8
1605.0;1542.5;;;;;;;;;;;;;;0.6575518;0.052491836;-0.030457472;;;;;1465.8
1605.0;1547.1;;;;-0.2642403;0.82153714;0.2994347;;;;;;;;;;;;;;;
1605.0;1547.1;;;;-0.26379398;0.8208543;0.29917148;;;;;;;;;;;;;;;
1605.0;1547.1;;;;-0.2636452;0.8203279;0.2996216;;;;;;;;;;;;;;;
1605.0;1547.1;;;;-0.26415637;0.8206521;0.29926303;;;;;;;;;;;;;;;
1605.0;1547.1;;;;-0.2606888;0.81909955;0.29980853;;;;;;;;;;;;;;;
1606.0;1550.0;;;;;;;;;;;;;;;;;-65.84369;-9.582812;1.8311106;;1475.4
1606.0;1550.0;;;;;;;;;;;;;;0.60841703;-0.016052736;-0.073549606;;;;;1475.4
1606.0;1550.0;;;;;;;;;;;;;;;;;-60.819572;-16.907255;7.477035;;1475.4
1606.0;1550.0;;;;;;;;;;;;;;0.5901059;0.01617481;-0.13507493;;;;;1475.4
1606.0;1550.0;;;;;;;;;;;;;;;;;-55.09735;-24.395735;13.012329;;1485.1
1606.0;1550.0;;;;;;;;;;;;;;0.5840022;7.9348125E-4;-0.20563371;;;;;1485.1
1606.0;1550.0;;;;;;;;;;;;;;;;;-51.034576;-28.321177;18.250069;;1485.1
1606.0;1550.0;;;;;;;;;;;;;;0.55726796;-0.007873775;-0.23871578;;;;;1485.1
1606.0;1550.0;;;;;;;;;;;;;;;;;-48.795284;-31.23188;23.094881;;1494.7
1606.0;1550.0;;;;;;;;;;;;;;0.5341349;-0.04052858;-0.2552568;;;;;1494.7
1606.0;1550.0;;;;;;;;;;;;;;;;;-49.134804;-31.674397;27.23014;;1494.7
1606.0;1550.0;;;;;;;;;;;;;;0.52558976;-0.04712058;-0.24506363;;;;;1494.7
1606.0;1557.0;;;;-0.25727847;0.81644833;0.3002167;;;;;;;;;;;;;;;
1606.0;1557.0;;;;-0.25597385;0.8154603;0.30000308;;;;;;;;;;;;;;;
1606.0;1557.0;;;;-0.25595477;0.8159486;0.30241016;;;;;;;;;;;;;;;
1606.0;1557.0;;;;-0.25608447;0.81564724;0.30543903;;;;;;;;;;;;;;;
1606.0;1557.0;;;;-0.25619128;0.814438;0.30813983;;;;;;;;;;;;;;;
1606.0;1559.3;262143;262143;12141;;;;;;;;;;;;;;;;;;
1606.0;1565.6;;;;;;;;;;;;;12386;;;;;;;;
1606.0;1565.6;;;;;;;;;;;;;9391;;;;;;;;
1606.0;1565.6;;;;;;;;;;;;;5502;;;;;;;;
1606.0;1565.6;;;;;;;;;;;;;3838;;;;;;;;
1606.0;1565.6;;;;;;;;;;;;;3810;;;;;;;;
1662.0;1567.0;;;;-0.25592044;0.8135568;0.31066135;;;;;;;;;;;;;;;
1662.0;1567.0;;;;-0.2544327;0.81354916;0.31364444;;;;;;;;;;;;;;;
1662.0;1567.0;;;;-0.25190356;0.81338894;0.31635287;;;;;;;;;;;;;;;
1662.0;1567.0;;;;-0.24931338;0.8133775;0.3189583;;;;;;;;;;;;;;;
1662.0;1567.0;;;;-0.2471123;0.81305325;0.32148746;;;;;;;;;;;;;;;
1662.0;1576.9;;;;-0.24523547;0.81268704;0.32397845;;;;;;;;;;;;;;;
1662.0;1576.9;;;;-0.24386981;0.8116113;0.32654193;;;;;;;;;;;;;;;
1662.0;1576.9;;;;-0.24198917;0.8103448;0.32866672;;;;;;;;;;;;;;;
1662.0;1576.9;;;;-0.24092105;0.8087884;0.33103946;;;;;;;;;;;;;;;
1662.0;1576.9;;;;-0.24004748;0.80710614;0.33253482;;;;;;;;;;;;;;;
1662.0;1579.3;262143;262143;12142;;;;;;;;;;;;;;;;;;
1662.0;1587.0;;;;-0.2384682;0.80474865;0.33376697;;;;;;;;;;;;;;;
1662.0;1587.0;;;;-0.2387009;0.8025018;0.33519366;;;;;;;;;;;;;;;
1662.0;1587.0;;;;-0.23857883;0.8005105;0.33620837;;;;;;;;;;;;;;;
1662.0;1587.0;;;;-0.23518375;0.79685605;0.33781818;;;;;;;;;;;;;;;
1662.0;1587.0;;;;-0.2334061;0.79382336;0.3390427;;;;;;;;;;;;;;;
1662.0;1597.1;;;;-0.23325732;0.792534;0.33946994;;;;;;;;;;;;;;;
1662.0;1597.1;;;;-0.23350528;0.79236233;0.34059146;;;;;;;;;;;;;;;
1662.0;1597.1;;;;-0.23508075;0.7919656;0.3417206;;;;;;;;;;;;;;;
1662.0;1597.1;;;;-0.23743442;0.7915994;0.34276584;;;;;;;;;;;;;;;
1662.0;1597.1;;;;-0.23982242;0.79223263;0.3442879;;;;;;;;;;;;;;;
1664.0;1599.6;262143;262143;12139;;;;;;;;;;;;;;;;;;
1664.0;1602.6;;;;;;;;;;;;;;;;;-51.458023;-27.504807;30.438398;;1504.3
1664.0;1602.6;;;;;;;;;;;;;;0.53364664;-0.044007692;-0.18659016;;;;;1504.3
1664.0;1602.6;;;;;;;;;;;;;;;;;-54.170357;-20.836512;33.257545;;1504.3
1664.0;1602.6;;;;;;;;;;;;;;0.5587939;-0.06524857;-0.13757744;;;;;1504.3
1664.0;1602.6;;;;;;;;;;;;;;;;;-54.860832;-10.849331;35.35951;;1514.0
1664.0;1602.6;;;;;;;;;;;;;;0.5632496;-0.112857446;-0.06860561;;;;;1514.0
1664.0;1602.6;;;;;;;;;;;;;;;;;-53.559986;-1.4915922;37.08762;;1514.0
1664.0;1602.6;;;;;;;;;;;;;;0.57387006;-0.15973388;-0.016113773;;;;;1514.0
1664.0;1602.6;;;;;;;;;;;;;;;;;-51.152836;5.2758875;38.67077;;1523.7
1664.0;1602.6;;;;;;;;;;;;;;0.59944457;-0.16028321;0.0075075533;;;;;1523.7
1664.0;1602.6;;;;;;;;;;;;;;;;;-47.593616;8.556626;40.92532;;1523.7
1664.0;1602.6;;;;;;;;;;;;;;0.6327708;-0.16156499;-7.324442E-4;;;;;1523.7
1664.0;1605.7;;;;;;;;;;;;;4008;;;;;;;;
1664.0;1605.7;;;;;;;;;;;;;3818;;;;;;;;
1664.0;1605.7;;;;;;;;;;;;;2994;;;;;;;;
1664.0;1605.7;;;;;;;;;;;;;1950;;;;;;;;
1664.0;1605.7;;;;;;;;;;;;;1156;;;;;;;;
1664.0;1607.1;;;;-0.2418442;0.7936555;0.34575656;;;;;;;;;;;;;;;
1664.0;1607.1;;;;-0.24394992;0.79641736;0.3482094;;;;;;;;;;;;;;;
1664.0;1607.1;;;;-0.24608615;0.7998582;0.35012057;;;;;;;;;;;;;;;
1664.0;1607.1;;;;-0.24784473;0.8040124;0.35250857;;;;;;;;;;;;;;;
1664.0;1607.1;;;;-0.2504578;0.8092233;0.35396197;;;;;;;;;;;;;;;
1720.0;1610.0;;;;;;;;;;;;;;;;;-42.42836;10.727257;42.687767;;1533.3
1720.0;1610.0;;;;;;;;;;;;;;0.6698813;-0.14502396;0.02069155;;;;;1533.3
1720.0;1610.0;;;;;;;;;;;;;;;;;-37.259285;13.760033;43.55373;;1533.3
1720.0;1610.0;;;;;;;;;;;;;;0.7381207;-0.09741508;0.09021272;;;;;1533.3
1720.0;1610.0;;;;;;;;;;;;;;;;;-32.34199;20.645771;42.88995;;1543.0
1720.0;1610.0;;;;;;;;;;;;;;0.78164005;-0.03173925;0.18488114;;;;;1543.0
1720.0;1610.0;;;;;;;;;;;;;;;;;-26.360363;24.689476;41.379284;;1543.0
1720.0;1610.0;;;;;;;;;;;;;;0.8240608;0.043153174;0.23249;;;;;1543.0
1720.0;1610.0;;;;;;;;;;;;;;;;;-18.94055;23.63277;39.61684;;1552.6
1720.0;1610.0;;;;;;;;;;;;;;0.8741112;0.11566515;0.23114718;;;;;1552.6
1720.0;1610.0;;;;;;;;;;;;;;;;;-12.157811;16.945402;37.85821;;1552.6
1720.0;1610.0;;;;;;;;;;;;;;0.96114993;0.19049653;0.17914365;;;;;1552.6
1720.0;1616.9;;;;-0.25341418;0.8141252;0.35551456;;;;;;;;;;;;;;;
1720.0;1616.9;;;;-0.2558098;0.8201448;0.35694125;;;;;;;;;;;;;;;
1720.0;1616.9;;;;-0.25814822;0.82611096;0.3583565;;;;;;;;;;;;;;;
1720.0;1616.9;;;;-0.26129535;0.8316461;0.35937122;;;;;;;;;;;;;;;
1720.0;1616.9;;;;-0.26425937;0.8382684;0.3605385;;;;;;;;;;;;;;;
1720.0;1619.4;262143;262143;12131;;;;;;;;;;;;;;;;;;
1720.0;1626.9;;;;-0.26663592;0.844555;0.36205295;;;;;;;;;;;;;;;
1720.0;1626.9;;;;-0.2685471;0.85076916;0.36450198;;;;;;;;;;;;;;;
1720.0;1626.9;;;;-0.2700005;0.85679257;0.36676028;;;;;;;;;;;;;;;
1720.0;1626.9;;;;-0.2707291;0.86335003;0.3685532;;;;;;;;;;;;;;;
1720.0;1626.9;;;;-0.27165988;0.86994183;0.36985782;;;;;;;;;;;;;;;
1723.0;1636.8;;;;-0.27189258;0.8766862;0.37031558;;;;;;;;;;;;;;;
1723.0;1636.8;;;;-0.27233508;0.8830148;0.37142947;;;;;;;;;;;;;;;
1723.0;1636.8;;;;-0.2729111;0.8895799;0.37185672;;;;;;;;;;;;;;;
1723.0;1636.8;;;;-0.27343372;0.8964616;0.3724518;;;;;;;;;;;;;;;
1723.0;1636.8;;;;-0.27417758;0.90358365;0.37300876;;;;;;;;;;;;;;;
1723.0;1639.4;262143;262143;12140;;;;;;;;;;;;;;;;;;
1723.0;1645.6;;;;;;;;;;;;;435;;;;;;;;
1723.0;1645.6;;;;;;;;;;;;;-279;;;;;;;;
1723.0;1645.6;;;;;;;;;;;;;-773;;;;;;;;
1723.0;1645.6;;;;;;;;;;;;;-1054;;;;;;;;
1723.0;1645.6;;;;;;;;;;;;;-1467;;;;;;;;
1723.0;1647.0;;;;-0.2751923;0.9106904;0.37382892;;;;;;;;;;;;;;;
1723.0;1647.0;;;;-0.27649692;0.9183427;0.37521368;;;;;;;;;;;;;;;
1723.0;1647.0;;;;-0.2784615;0.9262582;0.37681586;;;;;;;;;;;;;;;
1723.0;1647.0;;;;-0.27985004;0.9342309;0.3783036;;;;;;;;;;;;;;;
1723.0;1647.0;;;;-0.28139117;0.9432641;0.37899786;;;;;;;;;;;;;;;
1723.0;1657.1;;;;-0.2814522;0.9521867;0.37826544;;;;;;;;;;;;;;;
1723.0;1657.1;;;;-0.2813988;0.9595033;0.37836844;;;;;;;;;;;;;;;
1723.0;1657.1;;;;-0.2818146;0.9675828;0.37826544;;;;;;;;;;;;;;;
1723.0;1657.1;;;;-0.28234866;0.97555554;0.37673575;;;;;;;;;;;;;;;
1723.0;1657.1;;;;-0.28250507;0.9823953;0.37577063;;;;;;;;;;;;;;;
1723.0;1659.6;262143;262143;12134;;;;;;;;;;;;;;;;;;
1725.0;1662.7;;;;;;;;;;;;;;;;;-13.10007;8.831293;35.63799;;1562.2
1725.0;1662.7;;;;;;;;;;;;;;1.0728477;0.25202185;0.11236915;;;;;1562.2
1725.0;1662.7;;;;;;;;;;;;;;;;;-23.724327;1.9875181;33.143105;;1562.2
1725.0;1662.7;;;;;;;;;;;;;;1.1882687;0.34388256;0.067445904;;;;;1562.2
1725.0;1662.7;;;;;;;;;;;;;;;;;-45.216984;0.8049257;30.568102;;1571.9
1725.0;1662.7;;;;;;;;;;;;;;1.3248695;0.43574327;0.072634056;;;;;1571.9
1725.0;1662.7;;;;;;;;;;;;;;;;;-71.61168;8.846553;28.557695;;1571.9
1725.0;1662.7;;;;;;;;;;;;;;1.5250709;0.4816431;0.0672628;;;;;1571.9
1725.0;1662.7;;;;;;;;;;;;;;;;;-90.69719;30.81988;24.227882;;1581.6
1725.0;1662.7;;;;;;;;;;;;;;1.6214484;0.529252;0.09906308;;;;;1581.6
1725.0;1662.7;;;;;;;;;;;;;;;;;-92.16208;41.36021;15.911589;;1581.6
1725.0;1662.7;;;;;;;;;;;;;;1.6390882;0.60066533;-0.006897183;;;;;1581.6
1725.0;1667.1;;;;-0.2829323;0.9889833;0.3742409;;;;;;;;;;;;;;;
1725.0;1667.1;;;;-0.28339007;0.9949876;0.37328723;;;;;;;;;;;;;;;
1725.0;1667.1;;;;-0.28328708;1.0001718;0.37191775;;;;;;;;;;;;;;;
1725.0;1667.1;;;;-0.2828026;1.005356;0.368763;;;;;;;;;;;;;;;
1725.0;1667.1;;;;-0.28099826;1.0094682;0.3656464;;;;;;;;;;;;;;;
1726.0;1670.2;;;;;;;;;;;;;;;;;-79.34812;32.551807;7.78222;;1591.2
1726.0;1670.2;;;;;;;;;;;;;;1.6277963;0.6720786;-0.2496414;;;;;1591.2
1726.0;1670.2;;;;;;;;;;;;;;;;;-58.111057;19.898067;3.3913696;;1591.2
1726.0;1670.2;;;;;;;;;;;;;;1.574694;0.71034884;-0.5130772;;;;;1591.2
1726.0;1670.2;;;;;;;;;;;;;;;;;-41.76458;10.345775;-0.8545183;;1600.9
1726.0;1670.2;;;;;;;;;;;;;;1.4058657;0.7169408;-0.6648762;;;;;1600.9
1726.0;1670.2;;;;;;;;;;;;;;;;;-30.014954;-4.0894804;-3.0861845;;1600.9
1726.0;1670.2;;;;;;;;;;;;;;1.213538;0.6599933;-0.6772668;;;;;1600.9
1726.0;1670.2;;;;;;;;;;;;;;;;;-12.115849;-23.422956;-4.4518876;;1610.6
1726.0;1670.2;;;;;;;;;;;;;;1.099643;0.5680105;-0.5957213;;;;;1610.6
1726.0;1670.2;;;;;;;;;;;;;;;;;14.786219;-38.319805;-5.2415543;;1610.6
1726.0;1670.2;;;;;;;;;;;;;;1.0085146;0.47083956;-0.48908964;;;;;1610.6
1726.0;1677.0;;;;-0.279583;1.0129892;0.36242297;;;;;;;;;;;;;;;
1726.0;1677.0;;;;-0.27819064;1.0160714;0.35847858;;;;;;;;;;;;;;;
1726.0;1677.0;;;;-0.27632526;1.0188676;0.35416415;;;;;;;;;;;;;;;
1726.0;1677.0;;;;-0.27516177;1.0213739;0.34974673;;;;;;;;;;;;;;;
1726.0;1677.0;;;;-0.27354816;1.023678;0.34554294;;;;;;;;;;;;;;;
1726.0;1679.6;262143;262143;12143;;;;;;;;;;;;;;;;;;
1726.0;1685.8;;;;;;;;;;;;;-2205;;;;;;;;
1726.0;1685.8;;;;;;;;;;;;;-3030;;;;;;;;
1726.0;1685.8;;;;;;;;;;;;;-3757;;;;;;;;
1726.0;1685.8;;;;;;;;;;;;;-4583;;;;;;;;
1726.0;1685.8;;;;;;;;;;;;;-5585;;;;;;;;
1782.0;1686.9;;;;-0.27253345;1.0256997;0.3411446;;;;;;;;;;;;;;;
1782.0;1686.9;;;;-0.27095798;1.0283891;0.33642963;;;;;;;;;;;;;;;
1782.0;1686.9;;;;-0.27024844;1.0314561;0.33131412;;;;;;;;;;;;;;;
1782.0;1686.9;;;;-0.27006915;1.0349122;0.32529834;;;;;;;;;;;;;;;
1782.0;1686.9;;;;-0.2697716;1.0396005;0.31730273;;;;;;;;;;;;;;;
1782.0;1696.8;;;;-0.27020267;1.0446702;0.30674747;;;;;;;;;;;;;;;
1782.0;1696.8;;;;-0.27069476;1.0518762;0.29462817;;;;;;;;;;;;;;;
1782.0;1696.8;;;;-0.2713814;1.0613366;0.2818413;;;;;;;;;;;;;;;
1782.0;1696.8;;;;-0.2713013;1.0737954;0.27063754;;;;;;;;;;;;;;;
1782.0;1696.8;;;;-0.27072147;1.0901338;0.26290897;;;;;;;;;;;;;;;
1782.0;1699.4;262143;262143;12142;;;;;;;;;;;;;;;;;;
1782.0;1706.9;;;;-0.2706795;1.1099969;0.2588921;;;;;;;;;;;;;;;
1782.0;1706.9;;;;-0.2709389;1.1331712;0.2580147;;;;;;;;;;;;;;;
1782.0;1706.9;;;;-0.272316;1.1587526;0.25817493;;;;;;;;;;;;;;;
1782.0;1706.9;;;;-0.27448276;1.1853296;0.26020434;;;;;;;;;;;;;;;
1782.0;1706.9;;;;-0.2776337;1.2124673;0.2629433;;;;;;;;;;;;;;;
1782.0;1717.0;;;;-0.28037265;1.2396356;0.2663956;;;;;;;;;;;;;;;
1782.0;1717.0;;;;-0.2829323;1.2645265;0.2702103;;;;;;;;;;;;;;;
1782.0;1717.0;;;;-0.2848511;1.2873307;0.275013;;;;;;;;;;;;;;;
1782.0;1717.0;;;;-0.2860184;1.3071748;0.27890018;;;;;;;;;;;;;;;
1782.0;1717.0;;;;-0.28604892;1.3227731;0.28343585;;;;;;;;;;;;;;;
1786.0;1719.7;262143;262143;12133;;;;;;;;;;;;;;;;;;
1786.0;1722.8;;;;;;;;;;;;;;;;;44.61806;-45.274208;-7.438887;;1620.2
1786.0;1722.8;;;;;;;;;;;;;;0.9795221;0.35804316;-0.38691366;;;;;1620.2
1786.0;1722.8;;;;;;;;;;;;;;;;;71.94739;-43.019653;-9.830774;;1620.2
1786.0;1722.8;;;;;;;;;;;;;;0.91549426;0.23841059;-0.260506;;;;;1620.2
1786.0;1722.8;;;;;;;;;;;;;;;;;91.128265;-38.174843;-11.581775;;1629.8
1786.0;1722.8;;;;;;;;;;;;;;0.83767205;0.12634663;-0.12842189;;;;;1629.8
1786.0;1722.8;;;;;;;;;;;;;;;;;101.16885;-36.790062;-11.429182;;1629.8
1786.0;1722.8;;;;;;;;;;;;;;0.7780999;0.0047608875;-0.10632649;;;;;1629.8
1786.0;1722.8;;;;;;;;;;;;;;;;;103.98801;-35.935543;-9.063997;;1639.3
1786.0;1722.8;;;;;;;;;;;;;;0.6712241;-0.10187078;-0.19458602;;;;;1639.3
1786.0;1722.8;;;;;;;;;;;;;;;;;100.41352;-39.250618;-5.981628;;1639.3
1786.0;1722.8;;;;;;;;;;;;;;0.5924253;-0.1984924;-0.2667928;;;;;1639.3
1805.0;1724.0;;;;;;;;;;;;;;;;;85.4442;-41.63869;-4.6388135;;1648.9
1805.0;1724.0;;;;;;;;;;;;;;0.64589375;-0.29303873;-0.16693625;;;;;1648.9
1805.0;1724.0;;;;;;;;;;;;;;;;;67.9342;-26.463364;-3.0289621;;1648.9
1805.0;1724.0;;;;;;;;;;;;;;0.7033906;-0.34900966;0.324778;;;;;1648.9
1805.0;1724.0;;;;;;;;;;;;;;;;;55.185093;-23.64803;1.8082217;;1658.6
1805.0;1724.0;;;;;;;;;;;;;;0.8638569;-0.6236152;0.7141942;;;;;1658.6
1805.0;1724.0;;;;;;;;;;;;;;;;;55.009613;-34.875027;9.071627;;1658.6
1805.0;1724.0;;;;;;;;;;;;;;1.3300576;-1.0060732;0.8948027;;;;;1658.6
1805.0;1724.0;;;;;;;;;;;;;;;;;62.509537;-37.327953;19.684439;;1668.2
1805.0;1724.0;;;;;;;;;;;;;;1.8883022;-1.2673116;0.79134494;;;;;1668.2
1805.0;1724.0;;;;;;;;;;;;;;;;;77.34535;-33.31477;22.43492;;1668.2
1805.0;1724.0;;;;;;;;;;;;;;1.8626667;-1.0065005;0.099185154;;;;;1668.2
1805.0;1725.8;;;;;;;;;;;;;-6205;;;;;;;;
1805.0;1725.8;;;;;;;;;;;;;-6166;;;;;;;;
1805.0;1725.8;;;;;;;;;;;;;-5840;;;;;;;;
1805.0;1725.8;;;;;;;;;;;;;-5288;;;;;;;;
1805.0;1725.8;;;;;;;;;;;;;-4413;;;;;;;;
1805.0;1727.0;;;;-0.28502658;1.3338052;0.2872925;;;;;;;;;;;;;;;
1805.0;1727.0;;;;-0.28392795;1.3401681;0.2921143;;;;;;;;;;;;;;;
1805.0;1727.0;;;;-0.28236392;1.3420259;0.29684833;;;;;;;;;;;;;;;
1805.0;1727.0;;;;-0.28022006;1.3394128;0.30185702;;;;;;;;;;;;;;;
1805.0;1727.0;;;;-0.27825168;1.332306;0.3063126;;;;;;;;;;;;;;;
1837.0;1737.0;;;;-0.27649692;1.3219339;0.3100777;;;;;;;;;;;;;;;
1837.0;1737.0;;;;-0.27508166;1.3087274;0.3135796;;;;;;;;;;;;;;;
1837.0;1737.0;;;;-0.2732735;1.293274;0.31650165;;;;;;;;;;;;;;;
1837.0;1737.0;;;;-0.27173236;1.2765275;0.3185158;;;;;;;;;;;;;;;
1837.0;1737.0;;;;-0.2711754;1.2591249;0.31925204;;;;;;;;;;;;;;;
1837.0;1737.1;;;;;;;;;;0.011444441;18.444624;-1.3046663;;;;;;;;;
1837.0;1737.1;;;;;;;0.17023225;-0.97524947;0.11859493;;;;;;;;;;;;
1837.0;1737.1;;;;;;;;;;7.953887;31.991028;10.43733;;;;;;;;;
1837.0;1737.1;;;;;;;0.19788201;-1.1354107;0.13434248;;;;;;;;;;;;
1837.0;1739.8;262143;262143;12132;;;;;;;;;;;;;;;;;;
1837.0;1746.7;;;;;;;;;;2.1439252;7.702109;7.389294;;;;;;;;;
1837.0;1746.7;;;;;;;0.20703757;-1.1841792;0.14093448;;;;;;;;;;;;
1837.0;1746.7;;;;;;;;;;7.4808497;12.8215885;10.418256;;;;;;;;;
1837.0;1746.7;;;;;;;0.20789209;-1.2280648;0.15155491;;;;;;;;;;;;
1837.0;1747.1;;;;-0.27084735;1.241665;0.3206177;;;;;;;;;;;;;;;
1837.0;1747.1;;;;-0.27085498;1.2249299;0.321682;;;;;;;;;;;;;;;
1837.0;1747.1;;;;-0.2712517;1.2091218;0.32171252;;;;;;;;;;;;;;;
1837.0;1747.1;;;;-0.27222827;1.1937257;0.32114413;;;;;;;;;;;;;;;
1837.0;1747.1;;;;-0.2732239;1.1792833;0.31878284;;;;;;;;;;;;;;;
1837.0;1756.1;;;;;;;;;;8.777886;9.685812;13.439589;;;;;;;;;
1837.0;1756.1;;;;;;;0.20349742;-1.2585223;0.1604053;;;;;;;;;;;;
1837.0;1756.1;;;;;;;;;;4.5510726;-29.782251;-3.4218879;;;;;;;;;
1837.0;1756.1;;;;;;;0.19483016;-1.27781;0.16498306;;;;;;;;;;;;
1842.0;1757.0;;;;-0.2751961;1.1658441;0.31600192;;;;;;;;;;;;;;;
1842.0;1757.0;;;;-0.27795795;1.1545907;0.31247714;;;;;;;;;;;;;;;
1842.0;1757.0;;;;-0.28120044;1.1455766;0.30727008;;;;;;;;;;;;;;;
1842.0;1757.0;;;;-0.28501895;1.139023;0.30210117;;;;;;;;;;;;;;;
1842.0;1757.0;;;;-0.28952792;1.1357461;0.29586032;;;;;;;;;;;;;;;
1842.0;1759.8;262143;262143;12125;;;;;;;;;;;;;;;;;;
1842.0;1765.7;;;;;;;;;;5.0469985;-34.752953;0.56840724;;;;;;;;;
1842.0;1765.7;;;;;;;0.19147313;-1.2821436;0.16748558;;;;;;;;;;;;
1842.0;1765.7;;;;;;;;;;5.7298503;-40.23484;5.2682576;;;;;;;;;
1842.0;1765.7;;;;;;;0.17493209;-1.2759789;0.15759759;;;;;;;;;;;;
1842.0;1766.0;;;;;;;;;;;;;-3380;;;;;;;;
1842.0;1766.0;;;;;;;;;;;;;-2526;;;;;;;;
1842.0;1766.0;;;;;;;;;;;;;-1903;;;;;;;;
1842.0;1766.0;;;;;;;;;;;;;-1045;;;;;;;;
1842.0;1766.0;;;;;;;;;;;;;86;;;;;;;;
1842.0;1767.1;;;;-0.29453662;1.1362153;0.29016498;;;;;;;;;;;;;;;
1842.0;1767.1;;;;-0.30038074;1.14003;0.28567126;;;;;;;;;;;;;;;
1842.0;1767.1;;;;-0.30687335;1.1474725;0.28239062;;;;;;;;;;;;;;;
1842.0;1767.1;;;;-0.31271747;1.158085;0.28030017;;;;;;;;;;;;;;;
1842.0;1767.1;;;;-0.31927875;1.1717073;0.2782059;;;;;;;;;;;;;;;
1842.0;1775.3;;;;;;;;;;4.8333693;-37.369915;15.614033;;;;;;;;;
1842.0;1775.3;;;;;;;0.16315195;-1.2587664;0.16492203;;;;;;;;;;;;
1842.0;1775.3;;;;;;;;;;3.746147;-31.346325;24.39192;;;;;;;;;
1842.0;1775.3;;;;;;;0.14563432;-1.240089;0.16016114;;;;;;;;;;;;
1845.0;1777.2;;;;-0.3246651;1.1870385;0.2767754;;;;;;;;;;;;;;;
1845.0;1777.2;;;;-0.32987598;1.2037355;0.27743152;;;;;;;;;;;;;;;
1845.0;1777.2;;;;-0.33418658;1.2212373;0.28024295;;;;;;;;;;;;;;;
1845.0;1777.2;;;;-0.33757403;1.2375146;0.2827492;;;;;;;;;;;;;;;
1845.0;1777.2;;;;-0.3409386;1.2531968;0.28527835;;;;;;;;;;;;;;;
1845.0;1780.1;262143;262143;12131;;;;;;;;;;;;;;;;;;
1845.0;1783.1;;;;;;;;;;;;;;;;;99.31867;-29.82803;23.22077;;1677.9
1845.0;1783.1;;;;;;;;;;;;;;1.292642;-0.5921201;-0.5106967;;;;;1677.9
1845.0;1783.1;;;;;;;;;;;;;;;;;99.47889;-38.861507;28.511917;;1677.9
1845.0;1783.1;;;;;;;;;;;;;;1.249855;-0.22467726;-0.8245491;;;;;1677.9
1845.0;1783.1;;;;;;;;;;;;;;;;;65.96576;-23.674734;30.323954;;1687.4
1845.0;1783.1;;;;;;;;;;;;;;1.1500595;-0.08203375;-0.47376934;;;;;1687.4
1845.0;1783.1;;;;;;;;;;;;;;;;;36.729027;-14.8587;26.249733;;1687.4
1845.0;1783.1;;;;;;;;;;;;;;0.96908474;0.10852382;-0.040223397;;;;;1687.4
1845.0;1783.1;;;;;;;;;;;;;;;;;23.274178;-27.020327;20.558031;;1697.0
1845.0;1783.1;;;;;;;;;;;;;;0.95620596;0.2575152;-0.1347087;;;;;1697.0
1845.0;1783.1;;;;;;;;;;;;;;;;;27.459028;-33.581806;15.549181;;1697.0
1845.0;1783.1;;;;;;;;;;;;;;0.9903256;0.41291544;-0.29071933;;;;;1697.0
1846.0;1783.8;;;;;;;;;;;;;;;;;22.63329;-28.508102;10.860775;;1706.6
1846.0;1783.8;;;;;;;;;;;;;;0.9757378;0.5609302;-0.35914183;;;;;1706.6
1846.0;1783.8;;;;;;;;;;;;;;;;;-7.927183;-16.876738;5.245369;;1706.6
1846.0;1783.8;;;;;;;;;;;;;;0.9439375;0.6352733;-0.20172735;;;;;1706.6
1846.0;1783.8;;;;;;;;;;;;;;;;;-43.53847;-6.1342206;-0.12207404;;1716.3
1846.0;1783.8;;;;;;;;;;;;;;1.0426344;0.6079287;0.032288585;;;;;1716.3
1846.0;1783.8;;;;;;;;;;;;;;;;;-56.745354;4.4099245;-4.9172945;;1716.3
1846.0;1783.8;;;;;;;;;;;;;;1.2041993;0.52845854;0.18774988;;;;;1716.3
1846.0;1783.8;;;;;;;;;;;;;;;;;-53.052616;16.52196;-7.866146;;1725.9
1846.0;1783.8;;;;;;;;;;;;;;1.3610034;0.31861323;0.25989562;;;;;1725.9
1846.0;1783.8;;;;;;;;;;;;;;;;;-30.247658;20.37492;-7.637257;;1725.9
1846.0;1783.8;;;;;;;;;;;;;;1.38493;0.06915494;0.028015992;;;;;1725.9
1846.0;1784.7;;;;;;;;;;2.7924435;-33.33003;26.451918;;;;;;;;;
1846.0;1784.7;;;;;;;0.13385418;-1.2244636;0.15173803;;;;;;;;;;;;
1846.0;1784.7;;;;;;;;;;1.781518;-36.19877;28.389843;;;;;;;;;
1846.0;1784.7;;;;;;;0.12921537;-1.210181;0.14636678;;;;;;;;;;;;
1846.0;1787.1;;;;-0.3432007;1.2664758;0.28852847;;;;;;;;;;;;;;;
1846.0;1787.1;;;;-0.3445244;1.277691;0.29212955;;;;;;;;;;;;;;;
1846.0;1787.1;;;;-0.3465195;1.285164;0.29561237;;;;;;;;;;;;;;;
1846.0;1787.1;;;;-0.34814838;1.2897722;0.29925922;;;;;;;;;;;;;;;
1846.0;1787.1;;;;-0.34939578;1.2908899;0.30293277;;;;;;;;;;;;;;;
1846.0;1794.3;;;;;;;;;;0.8278146;-39.700764;29.747917;;;;;;;;;
1846.0;1794.3;;;;;;;0.12640767;-1.1972411;0.13922544;;;;;;;;;;;;
1846.0;1794.3;;;;;;;;;;-0.29374066;-43.248543;30.587175;;;;;;;;;
1846.0;1794.3;;;;;;;0.12799463;-1.1872921;0.13580737;;;;;;;;;;;;
1903.0;1797.1;;;;-0.3510361;1.289528;0.306263;;;;;;;;;;;;;;;
1903.0;1797.1;;;;-0.35208514;1.2854921;0.30986026;;;;;;;;;;;;;;;
1903.0;1797.1;;;;-0.35265735;1.2790414;0.31266025;;;;;;;;;;;;;;;
1903.0;1797.1;;;;-0.3530312;1.2713052;0.31409076;;;;;;;;;;;;;;;
1903.0;1797.1;;;;-0.3525925;1.262642;0.3152962;;;;;;;;;;;;;;;
1903.0;1800.0;262143;262143;12133;;;;;;;;;;;;;;;;;;
1903.0;1803.8;;;;;;;;;;-1.4687033;-46.735283;31.212805;;;;;;;;;
1903.0;1803.8;;;;;;;0.13245033;-1.1738029;0.13306071;;;;;;;;;;;;
1903.0;1803.8;;;;;;;;;;-2.5559251;-50.290688;32.05588;;;;;;;;;
1903.0;1803.8;;;;;;;0.13721122;-1.1573229;0.13251136;;;;;;;;;;;;
1903.0;1806.1;;;;;;;;;;;;;769;;;;;;;;
1903.0;1806.1;;;;;;;;;;;;;852;;;;;;;;
1903.0;1806.1;;;;;;;;;;;;;784;;;;;;;;
1903.0;1806.1;;;;;;;;;;;;;597;;;;;;;;
1903.0;1806.1;;;;;;;;;;;;;167;;;;;;;;
1903.0;1807.0;;;;-0.35149387;1.2536241;0.31432346;;;;;;;;;;;;;;;
1903.0;1807.0;;;;-0.34925082;1.2439615;0.31287006;;;;;;;;;;;;;;;
1903.0;1807.0;;;;-0.3465157;1.2351037;0.31012347;;;;;;;;;;;;;;;
1903.0;1807.0;;;;-0.3432732;1.2263948;0.30583957;;;;;;;;;;;;;;;
1903.0;1807.0;;;;-0.3390961;1.2180711;0.30086902;;;;;;;;;;;;;;;
1903.0;1813.0;;;;;;;;;;-3.7270732;-53.380688;33.124027;;;;;;;;;
1903.0;1813.0;;;;;;;0.14911343;-1.1425519;0.13171789;;;;;;;;;;;;
1903.0;1813.0;;;;;;;;;;-5.0889616;-56.41728;34.306618;;;;;;;;;
1903.0;1813.0;;;;;;;0.15839106;-1.1232033;0.13562426;;;;;;;;;;;;
1906.0;1816.9;;;;-0.33570483;1.2106057;0.294426;;;;;;;;;;;;;;;
1906.0;1816.9;;;;-0.3318024;1.203766;0.28768924;;;;;;;;;;;;;;;
1906.0;1816.9;;;;-0.32807925;1.1984788;0.28105167;;;;;;;;;;;;;;;
1906.0;1816.9;;;;-0.32464984;1.1942979;0.27448657;;;;;;;;;;;;;;;
1906.0;1816.9;;;;-0.32085803;1.1910669;0.2674637;;;;;;;;;;;;;;;
1906.0;1819.8;262143;262143;12130;;;;;;;;;;;;;;;;;;
1906.0;1822.7;;;;;;;;;;-6.4355907;-58.774834;35.45869;;;;;;;;;
1906.0;1822.7;;;;;;;0.16791284;-1.1026947;0.14050722;;;;;;;;;;;;
1906.0;1822.7;;;;;;;;;;-7.827998;-60.3885;36.481064;;;;;;;;;
1906.0;1822.7;;;;;;;0.18231757;-1.0843227;0.14929655;;;;;;;;;;;;
1906.0;1827.0;;;;-0.3168793;1.1884347;0.26132968;;;;;;;;;;;;;;;
1906.0;1827.0;;;;-0.31233218;1.1861993;0.2555695;;;;;;;;;;;;;;;
1906.0;1827.0;;;;-0.30801776;1.1841928;0.2502289;;;;;;;;;;;;;;;
1906.0;1827.0;;;;-0.3040047;1.1824571;0.24509051;;;;;;;;;;;;;;;
1906.0;1827.0;;;;-0.29957965;1.1804239;0.24036792;;;;;;;;;;;;;;;
1906.0;1832.3;;;;;;;;;;-9.1975155;-61.700794;37.282173;;;;;;;;;
1906.0;1832.3;;;;;;;0.1909238;-1.0640583;0.15637684;;;;;;;;;;;;
1906.0;1832.3;;;;;;;;;;-10.502182;-62.597275;38.136692;;;;;;;;;
1906.0;1832.3;;;;;;;0.1980041;-1.0466018;0.16309091;;;;;;;;;;;;
1910.0;1837.1;;;;-0.29555514;1.178795;0.23640063;;;;;;;;;;;;;;;
1910.0;1837.1;;;;-0.2924042;1.1772882;0.23274997;;;;;;;;;;;;;;;
1910.0;1837.1;;;;-0.2895241;1.1753503;0.22954562;;;;;;;;;;;;;;;
1910.0;1837.1;;;;-0.2865105;1.1733094;0.22644046;;;;;;;;;;;;;;;
1910.0;1837.1;;;;-0.2832146;1.1713945;0.22339633;;;;;;;;;;;;;;;
1910.0;1840.1;262143;262143;12123;;;;;;;;;;;;;;;;;;
1910.0;1841.9;;;;;;;;;;-11.604663;-62.738426;39.00647;;;;;;;;;
1910.0;1841.9;;;;;;;0.2070986;-1.0287179;0.17523728;;;;;;;;;;;;
1910.0;1841.9;;;;;;;;;;-12.714774;-62.35313;39.7351;;;;;;;;;
1910.0;1841.9;;;;;;;0.21100497;-1.0115665;0.18347728;;;;;;;;;;;;
1910.0;1843.0;;;;;;;;;;;;;;;;;0.65233314;4.4709616;-3.688925;;1735.6
1910.0;1843.0;;;;;;;;;;;;;;1.3831599;-0.12933744;-0.43043306;;;;;1735.6
1910.0;1843.0;;;;;;;;;;;;;;;;;5.9778132;-7.9233685;6.7026277;;1735.6
1910.0;1843.0;;;;;;;;;;;;;;1.4117252;-0.39613026;-0.53956723;;;;;1735.6
1910.0;1843.0;;;;;;;;;;;;;;;;;-13.271737;-3.5134435;21.687216;;1745.2
1910.0;1843.0;;;;;;;;;;;;;;1.3543504;-0.6575518;-0.24903104;;;;;1745.2
1910.0;1843.0;;;;;;;;;;;;;;;;;-36.44673;8.358257;36.74047;;1745.2
1910.0;1843.0;;;;;;;;;;;;;;1.2282479;-0.9222083;0.0047608875;;;;;1745.2
1910.0;1843.0;;;;;;;;;;;;;;;;;-42.70684;16.926329;45.89221;;1754.8
1910.0;1843.0;;;;;;;;;;;;;;1.0655233;-1.0936003;0.20667134;;;;;1754.8
1910.0;1843.0;;;;;;;;;;;;;;;;;-26.493881;12.047182;46.411022;;1754.8
1910.0;1843.0;;;;;;;;;;;;;;0.94009215;-0.9717094;0.12451552;;;;;1754.8
1911.0;1844.2;;;;;;;;;;;;;;;;;-3.1434064;4.081851;46.754356;;1764.3
1911.0;1844.2;;;;;;;;;;;;;;0.8102054;-0.7754143;-0.09418012;;;;;1764.3
1911.0;1844.2;;;;;;;;;;;;;;;;;15.060884;-3.460036;44.782097;;1764.3
1911.0;1844.2;;;;;;;;;;;;;;0.70839566;-0.5775323;-0.25702688;;;;;1764.3
1911.0;1844.2;;;;;;;;;;;;;;;;;27.397991;-9.979552;40.906246;;1774.0
1911.0;1844.2;;;;;;;;;;;;;;0.6648152;-0.37537766;-0.28156376;;;;;1774.0
1911.0;1844.2;;;;;;;;;;;;;;;;;32.92566;-13.111515;37.20588;;1774.0
1911.0;1844.2;;;;;;;;;;;;;;0.6841639;-0.22174749;-0.19598986;;;;;1774.0
1911.0;1844.2;;;;;;;;;;;;;;;;;34.82543;-12.520218;35.24125;;1783.7
1911.0;1844.2;;;;;;;;;;;;;;0.74922943;-0.14233834;-0.11127049;;;;;1783.7
1911.0;1844.2;;;;;;;;;;;;;;;;;36.759544;-9.140294;34.12351;;1783.7
1911.0;1844.2;;;;;;;;;;;;;;0.7680288;-0.10229804;-0.05774102;;;;;1783.7
1911.0;1846.1;;;;;;;;;;;;;-204;;;;;;;;
1911.0;1846.1;;;;;;;;;;;;;-174;;;;;;;;
1911.0;1846.1;;;;;;;;;;;;;-85;;;;;;;;
1911.0;1846.1;;;;;;;;;;;;;-328;;;;;;;;
1911.0;1846.1;;;;;;;;;;;;;-688;;;;;;;;
1911.0;1847.0;;;;-0.28027728;1.1694604;0.22093967;;;;;;;;;;;;;;;
1911.0;1847.0;;;;-0.27747348;1.1682245;0.2182732;;;;;;;;;;;;;;;
1911.0;1847.0;;;;-0.27492526;1.1667558;0.21584705;;;;;;;;;;;;;;;
1911.0;1847.0;;;;-0.27262118;1.1655275;0.21361545;;;;;;;;;;;;;;;
1911.0;1847.0;;;;-0.27087787;1.1643106;0.21201327;;;;;;;;;;;;;;;
1911.0;1851.2;;;;;;;;;;-13.714254;-61.613056;40.318764;;;;;;;;;
1911.0;1851.2;;;;;;;0.21350749;-0.99185157;0.19220558;;;;;;;;;;;;
1911.0;1851.2;;;;;;;;;;-14.591662;-60.30076;40.79943;;;;;;;;;
1911.0;1851.2;;;;;;;0.21643727;-0.9714652;0.20014039;;;;;;;;;;;;
1960.0;1856.9;;;;-0.2680855;1.1637269;0.20965198;;;;;;;;;;;;;;;
1960.0;1856.9;;;;-0.2655411;1.1640054;0.20806888;;;;;;;;;;;;;;;
1960.0;1856.9;;;;-0.26269534;1.164467;0.2066231;;;;;;;;;;;;;;;
1960.0;1856.9;;;;-0.2593079;1.1658784;0.2048836;;;;;;;;;;;;;;;
1960.0;1856.9;;;;-0.2553101;1.1680299;0.20410922;;;;;;;;;;;;;;;
1960.0;1859.9;262143;262143;12131;;;;;;;;;;;;;;;;;;
1960.0;1860.7;;;;;;;;;;-15.308847;-58.439133;41.32588;;;;;;;;;
1960.0;1860.7;;;;;;;0.21839045;-0.94949186;0.20636617;;;;;;;;;;;;
1960.0;1860.7;;;;;;;;;;-15.869625;-56.146427;41.63106;;;;;;;;;
1960.0;1860.7;;;;;;;0.2191229;-0.9251381;0.21448408;;;;;;;;;;;;
1960.0;1866.8;;;;-0.25060275;1.1714746;0.20281985;;;;;;;;;;;;;;;
1960.0;1866.8;;;;-0.24592593;1.1756021;0.20120242;;;;;;;;;;;;;;;
1960.0;1866.8;;;;-0.2408562;1.180523;0.19960788;;;;;;;;;;;;;;;
1960.0;1866.8;;;;-0.23588946;1.1859704;0.1980286;;;;;;;;;;;;;;;
1960.0;1866.8;;;;-0.2310982;1.191517;0.19534305;;;;;;;;;;;;;;;
1960.0;1870.0;;;;;;;;;;-16.312143;-53.495132;41.791283;;;;;;;;;
1960.0;1870.0;;;;;;;0.22211371;-0.8964507;0.22162542;;;;;;;;;;;;
1960.0;1870.0;;;;;;;;;;-16.563921;-50.584427;41.940063;;;;;;;;;
1960.0;1870.0;;;;;;;0.22284615;-0.8694723;0.22632527;;;;;;;;;;;;
1962.0;1876.7;;;;-0.22468188;1.1981927;0.19300845;;;;;;;;;;;;;;;
1962.0;1876.7;;;;-0.21964648;1.2056733;0.19113544;;;;;;;;;;;;;;;
1962.0;1876.7;;;;-0.21501926;1.2122155;0.18947604;;;;;;;;;;;;;;;
1962.0;1876.7;;;;-0.21044162;1.218918;0.1882973;;;;;;;;;;;;;;;
1962.0;1876.7;;;;-0.20563129;1.2250444;0.18651582;;;;;;;;;;;;;;;
1962.0;1879.6;;;;;;;;;;-16.613514;-47.25791;41.9248;;;;;;;;;
1962.0;1879.6;;;;;;;0.22321238;-0.8402356;0.23084201;;;;;;;;;;;;
1962.0;1879.6;;;;;;;;;;-16.68218;-43.42784;41.77984;;;;;;;;;
1962.0;1879.6;;;;;;;0.22705771;-0.8136235;0.2323069;;;;;;;;;;;;
1962.0;1879.8;262143;262143;12121;;;;;;;;;;;;;;;;;;
1962.0;1886.0;;;;;;;;;;;;;-748;;;;;;;;
1962.0;1886.0;;;;;;;;;;;;;-419;;;;;;;;
1962.0;1886.0;;;;;;;;;;;;;-366;;;;;;;;
1962.0;1886.0;;;;;;;;;;;;;-799;;;;;;;;
1962.0;1886.0;;;;;;;;;;;;;-891;;;;;;;;
1962.0;1886.8;;;;-0.20105365;1.230816;0.18453981;;;;;;;;;;;;;;;
1962.0;1886.8;;;;-0.19606403;1.2355729;0.1817856;;;;;;;;;;;;;;;
1962.0;1886.8;;;;-0.1916695;1.239792;0.17844774;;;;;;;;;;;;;;;
1962.0;1886.8;;;;-0.18658067;1.2430688;0.1754532;;;;;;;;;;;;;;;
1962.0;1886.8;;;;-0.18180086;1.2454835;0.1730652;;;;;;;;;;;;;;;
1962.0;1889.2;;;;;;;;;;-16.63259;-39.128544;41.356396;;;;;;;;;
1962.0;1889.2;;;;;;;0.23035371;-0.78621787;0.23126927;;;;;;;;;;;;
1962.0;1889.2;;;;;;;;;;-16.60207;-34.810173;40.719322;;;;;;;;;
1962.0;1889.2;;;;;;;0.23071994;-0.7625965;0.22840053;;;;;;;;;;;;
1964.0;1896.9;;;;-0.17626955;1.2467614;0.17036821;;;;;;;;;;;;;;;
1964.0;1896.9;;;;-0.17133714;1.2474672;0.16666795;;;;;;;;;;;;;;;
1964.0;1896.9;;;;-0.16658022;1.247429;0.16300966;;;;;;;;;;;;;;;
1964.0;1896.9;;;;-0.16133882;1.2456666;0.15877153;;;;;;;;;;;;;;;
1964.0;1896.9;;;;-0.15558626;1.2430001;0.1546097;;;;;;;;;;;;;;;
1964.0;1898.8;;;;;;;;;;-16.541033;-30.941954;40.02884;;;;;;;;;
1964.0;1898.8;;;;;;;0.22809534;-0.7424543;0.22193061;;;;;;;;;;;;
1964.0;1898.8;;;;;;;;;;-16.457108;-27.386547;39.23154;;;;;;;;;
1964.0;1898.8;;;;;;;0.22186956;-0.723777;0.21753594;;;;;;;;;;;;
1964.0;1900.1;262143;262143;12131;;;;;;;;;;;;;;;;;;
1964.0;1903.1;;;;;;;;;;;;;;;;;38.8081;-9.945219;33.48262;;1793.3
1964.0;1903.1;;;;;;;;;;;;;;0.7991577;-0.05053865;-0.09656057;;;;;1793.3
1964.0;1903.1;;;;;;;;;;;;;;;;;37.781918;-12.173071;33.69625;;1793.3
1964.0;1903.1;;;;;;;;;;;;;;0.86342967;-0.017700735;-0.2014832;;;;;1793.3
1964.0;1903.1;;;;;;;;;;;;;;;;;33.40251;-10.12833;34.10443;;1802.9
1964.0;1903.1;;;;;;;;;;;;;;0.90444654;0.0;-0.25074008;;;;;1802.9
1964.0;1903.1;;;;;;;;;;;;;;;;;28.256325;-6.7636647;34.020508;;1802.9
1964.0;1903.1;;;;;;;;;;;;;;0.92818993;0.010742515;-0.2669759;;;;;1802.9
1964.0;1903.1;;;;;;;;;;;;;;;;;23.510696;-5.4780726;33.177437;;1812.6
1964.0;1903.1;;;;;;;;;;;;;;0.98013246;0.03418073;-0.29572436;;;;;1812.6
1964.0;1903.1;;;;;;;;;;;;;;;;;19.245735;-4.314554;31.735435;;1812.6
1964.0;1903.1;;;;;;;;;;;;;;1.0111393;0.07397687;-0.31037325;;;;;1812.6
1965.0;1903.9;;;;;;;;;;;;;;;;;16.090885;-3.9750361;30.102694;;1822.2
1965.0;1903.9;;;;;;;;;;;;;;1.007416;0.11175878;-0.30707723;;;;;1822.2
1965.0;1903.9;;;;;;;;;;;;;;;;;13.752403;-6.0960727;28.508102;;1822.2
1965.0;1903.9;;;;;;;;;;;;;;1.0243232;0.14441359;-0.3202002;;;;;1822.2
1965.0;1903.9;;;;;;;;;;;;;;;;;9.342479;-3.9483323;26.806696;;1831.9
1965.0;1903.9;;;;;;;;;;;;;;1.0261544;0.15997803;-0.2680746;;;;;1831.9
1965.0;1903.9;;;;;;;;;;;;;;;;;3.8758507;0.3128147;25.704214;;1831.9
1965.0;1903.9;;;;;;;;;;;;;;0.9938658;0.1662038;-0.26215398;;;;;1831.9
1965.0;1903.9;;;;;;;;;;;;;;;;;-1.2436292;3.173925;25.105288;;1841.6
1965.0;1903.9;;;;;;;;;;;;;;0.9527879;0.17303994;-0.29755548;;;;;1841.6
1965.0;1903.9;;;;;;;;;;;;;;;;;-6.6644797;4.6540728;24.277475;;1841.6
1965.0;1903.9;;;;;;;;;;;;;;0.90786463;0.16193122;-0.324778;;;;;1841.6
1965.0;1906.9;;;;-0.15095522;1.2394677;0.14977266;;;;;;;;;;;;;;;
1965.0;1906.9;;;;-0.14600374;1.2354852;0.14517213;;;;;;;;;;;;;;;
1965.0;1906.9;;;;-0.14143373;1.23061;0.14095308;;;;;;;;;;;;;;;
1965.0;1906.9;;;;-0.13643266;1.225689;0.13642885;;;;;;;;;;;;;;;
1965.0;1906.9;;;;-0.13268663;1.2200166;0.13147356;;;;;;;;;;;;;;;
1965.0;1908.3;;;;;;;;;;-16.495255;-24.208809;38.19773;;;;;;;;;
1965.0;1908.3;;;;;;;0.21405682;-0.71156955;0.2102115;;;;;;;;;;;;
1965.0;1908.3;;;;;;;;;;-16.544847;-21.336254;37.03421;;;;;;;;;
1965.0;1908.3;;;;;;;0.20441298;-0.70101017;0.20398572;;;;;;;;;;;;
2019.0;1916.9;;;;-0.1290436;1.2143747;0.12659456;;;;;;;;;;;;;;;
2019.0;1916.9;;;;-0.1256714;1.2080575;0.121295944;;;;;;;;;;;;;;;
2019.0;1916.9;;;;-0.12231828;1.2010347;0.11684419;;;;;;;;;;;;;;;
2019.0;1916.9;;;;-0.119194046;1.1937867;0.111339584;;;;;;;;;;;;;;;
2019.0;1916.9;;;;-0.11657335;1.1862947;0.10744859;;;;;;;;;;;;;;;
2019.0;1917.8;;;;;;;;;;-16.579182;-18.768885;35.676136;;;;;;;;;
2019.0;1917.8;;;;;;;0.19495223;-0.69606614;0.19611195;;;;;;;;;;;;
2019.0;1917.8;;;;;;;;;;-16.655478;-16.552477;34.264656;;;;;;;;;
2019.0;1917.8;;;;;;;0.1854915;-0.6967986;0.19147313;;;;;;;;;;;;
2019.0;1920.0;262143;262143;12125;;;;;;;;;;;;;;;;;;
2019.0;1926.2;;;;;;;;;;;;;-391;;;;;;;;
2019.0;1926.2;;;;;;;;;;;;;225;;;;;;;;
2019.0;1926.2;;;;;;;;;;;;;362;;;;;;;;
2019.0;1926.2;;;;;;;;;;;;;-82;;;;;;;;
2019.0;1926.2;;;;;;;;;;;;;-496;;;;;;;;
2019.0;1926.8;;;;-0.11429216;1.1785661;0.10366441;;;;;;;;;;;;;;;
2019.0;1926.8;;;;-0.112663284;1.1704446;0.10000612;;;;;;;;;;;;;;;
2019.0;1926.8;;;;-0.11185838;1.1621133;0.09634401;;;;;;;;;;;;;;;
2019.0;1926.8;;;;-0.111259475;1.1535188;0.09316636;;;;;;;;;;;;;;;
2019.0;1926.8;;;;-0.110073105;1.14423;0.08925248;;;;;;;;;;;;;;;
2019.0;1927.3;;;;;;;;;;-16.781366;-14.908293;32.90277;;;;;;;;;
2019.0;1927.3;;;;;;;0.17688528;-0.70186466;0.18805505;;;;;;;;;;;;
2019.0;1927.3;;;;;;;;;;-16.945402;-13.660849;31.62862;;;;;;;;;
2019.0;1927.3;;;;;;;0.16986603;-0.70802945;0.18396558;;;;;;;;;;;;
2023.0;1936.7;;;;;;;;;;-17.109438;-12.779626;30.537582;;;;;;;;;
2023.0;1936.7;;;;;;;0.1638844;-0.7192602;0.18243966;;;;;;;;;;;;
2023.0;1936.7;;;;;;;;;;-17.220068;-12.272256;29.492325;;;;;;;;;
2023.0;1936.7;;;;;;;0.1594287;-0.72707295;0.17859432;;;;;;;;;;;;
2023.0;1936.7;;;;-0.10947038;1.1344987;0.08646012;;;;;;;;;;;;;;;
2023.0;1936.7;;;;-0.10908128;1.1257669;0.08292771;;;;;;;;;;;;;;;
2023.0;1936.7;;;;-0.108696;1.116356;0.07857514;;;;;;;;;;;;;;;
2023.0;1936.7;;;;-0.10858537;1.1059381;0.07598496;;;;;;;;;;;;;;;
2023.0;1936.7;;;;-0.109943405;1.0967294;0.074615486;;;;;;;;;;;;;;;
2023.0;1940.0;262143;262143;12128;;;;;;;;;;;;;;;;;;
2023.0;1946.4;;;;;;;;;;-17.326883;-12.276071;28.668325;;;;;;;;;
2023.0;1946.4;;;;;;;0.15637684;-0.7368999;0.17487106;;;;;;;;;;;;
2023.0;1946.4;;;;;;;;;;-17.536697;-12.916959;28.073214;;;;;;;;;
2023.0;1946.4;;;;;;;0.15204321;-0.74636066;0.17236854;;;;;;;;;;;;
2023.0;1946.9;;;;-0.10923387;1.0884172;0.072349556;;;;;;;;;;;;;;;
2023.0;1946.9;;;;-0.109928146;1.0790292;0.070293434;;;;;;;;;;;;;;;
2023.0;1946.9;;;;-0.11101152;1.0688974;0.06708909;;;;;;;;;;;;;;;
2023.0;1946.9;;;;-0.11193086;1.05888;0.06507493;;;;;;;;;;;;;;;
2023.0;1946.9;;;;-0.11296083;1.0499917;0.062587745;;;;;;;;;;;;;;;
2023.0;1956.0;;;;;;;;;;-17.830439;-13.752403;27.71462;;;;;;;;;
2023.0;1956.0;;;;;;;0.14654988;-0.7602771;0.1723075;;;;;;;;;;;;
2023.0;1956.0;;;;;;;;;;-18.089846;-14.992217;27.409435;;;;;;;;;
2023.0;1956.0;;;;;;;0.14282663;-0.77767265;0.16840114;;;;;;;;;;;;
2024.0;1957.0;;;;-0.11390306;1.0413896;0.060768135;;;;;;;;;;;;;;;
2024.0;1957.0;;;;-0.11567308;1.03331;0.05944825;;;;;;;;;;;;;;;
2024.0;1957.0;;;;-0.11738588;1.0255433;0.05900193;;;;;;;;;;;;;;;
2024.0;1957.0;;;;-0.1183777;1.0182687;0.05843354;;;;;;;;;;;;;;;
2024.0;1957.0;;;;-0.11960603;1.0115281;0.057601936;;;;;;;;;;;;;;;
2024.0;1960.3;262143;262143;12124;;;;;;;;;;;;;;;;;;
2024.0;1963.3;;;;;;;;;;;;;;;;;-10.9904785;5.821406;23.228401;;1851.2
2024.0;1963.3;;;;;;;;;;;;;;0.8925443;0.1474044;-0.31897947;;;;;1851.2
2024.0;1963.3;;;;;;;;;;;;;;;;;-11.391033;9.273812;21.946625;;1851.2
2024.0;1963.3;;;;;;;;;;;;;;0.8715476;0.113956116;-0.27265236;;;;;1851.2
2024.0;1963.3;;;;;;;;;;;;;;;;;-10.105441;12.558367;20.48555;;1860.9
2024.0;1963.3;;;;;;;;;;;;;;0.8575701;0.10577715;-0.20789209;;;;;1860.9
2024.0;1963.3;;;;;;;;;;;;;;;;;-10.196997;14.183477;19.581438;;1860.9
2024.0;1963.3;;;;;;;;;;;;;;0.84951323;0.07324442;-0.1894589;;;;;1860.9
2024.0;1963.3;;;;;;;;;;;;;;;;;-11.299478;14.759515;18.635365;;1870.5
2024.0;1963.3;;;;;;;;;;;;;;0.8521378;0.058717612;-0.18738365;;;;;1870.5
2024.0;1963.3;;;;;;;;;;;;;;;;;-11.482589;15.568254;17.571032;;1870.5
2024.0;1963.3;;;;;;;;;;;;;;0.8318125;0.01617481;-0.14899136;;;;;1870.5
2025.0;1964.1;;;;;;;;;;;;;;;;;-9.437849;14.126255;15.907774;;1880.1
2025.0;1964.1;;;;;;;;;;;;;;0.8167974;0.016663106;-0.11816767;;;;;1880.1
2025.0;1964.1;;;;;;;;;;;;;;;;;-5.996887;10.612812;14.477218;;1880.1
2025.0;1964.1;;;;;;;;;;;;;;0.8281503;0.010376293;-0.10187078;;;;;1880.1
2025.0;1964.1;;;;;;;;;;;;;;;;;-2.822962;8.526108;13.367107;;1889.7
2025.0;1964.1;;;;;;;;;;;;;;0.83156836;0.0081789605;-0.08600116;;;;;1889.7
2025.0;1964.1;;;;;;;;;;;;;;;;;-2.5978882;7.0764794;12.783441;;1889.7
2025.0;1964.1;;;;;;;;;;;;;;0.83657336;-0.015198218;-0.10541093;;;;;1889.7
2025.0;1964.1;;;;;;;;;;;;;;;;;-3.4867396;5.6840725;12.878811;;1899.4
2025.0;1964.1;;;;;;;;;;;;;;0.8402966;-0.03302103;-0.16559343;;;;;1899.4
2025.0;1964.1;;;;;;;;;;;;;;;;;-3.6164434;3.3341472;13.5197;;1899.4
2025.0;1964.1;;;;;;;;;;;;;;0.82845545;-0.023194067;-0.2029481;;;;;1899.4
2025.0;1965.5;;;;;;;;;;-18.23481;-16.872921;27.26829;;;;;;;;;
2025.0;1965.5;;;;;;;0.14105655;-0.7961669;0.17078158;;;;;;;;;;;;
2025.0;1965.5;;;;;;;;;;-18.421736;-19.184698;27.15003;;;;;;;;;
2025.0;1965.5;;;;;;;0.13660085;-0.81893367;0.17474899;;;;;;;;;;;;
2025.0;1966.3;;;;;;;;;;;;;-461;;;;;;;;
2025.0;1966.3;;;;;;;;;;;;;-157;;;;;;;;
2025.0;1966.3;;;;;;;;;;;;;-50;;;;;;;;
2025.0;1966.3;;;;;;;;;;;;;-229;;;;;;;;
2025.0;1966.3;;;;;;;;;;;;;-480;;;;;;;;
2025.0;1966.9;;;;-0.120956436;1.0050393;0.05617524;;;;;;;;;;;;;;;
2025.0;1966.9;;;;-0.12085725;0.9986764;0.05495835;;;;;;;;;;;;;;;
2025.0;1966.9;;;;-0.12035371;0.9928056;0.053298958;;;;;;;;;;;;;;;
2025.0;1966.9;;;;-0.11981203;0.9874345;0.05232621;;;;;;;;;;;;;;;
2025.0;1966.9;;;;-0.118957534;0.9825975;0.051410682;;;;;;;;;;;;;;;
2081.0;1975.1;;;;;;;;;;-18.585773;-21.748253;27.111881;;;;;;;;;
2081.0;1975.1;;;;;;;0.13361004;-0.8429823;0.17700736;;;;;;;;;;;;
2081.0;1975.1;;;;;;;;;;-18.73455;-24.750511;27.302622;;;;;;;;;
2081.0;1975.1;;;;;;;0.13104647;-0.8650777;0.17963195;;;;;;;;;;;;
2081.0;1977.0;;;;-0.118690506;0.9776422;0.05062867;;;;;;;;;;;;;;;
2081.0;1977.0;;;;-0.118835464;0.9733888;0.0497284;;;;;;;;;;;;;;;
2081.0;1977.0;;;;-0.11887361;0.9695054;0.04979325;;;;;;;;;;;;;;;
2081.0;1977.0;;;;-0.11948015;0.96632016;0.049842842;;;;;;;;;;;;;;;
2081.0;1977.0;;;;-0.12016298;0.9632913;0.049781807;;;;;;;;;;;;;;;
2081.0;1980.3;262143;262143;12132;;;;;;;;;;;;;;;;;;
2081.0;1984.6;;;;;;;;;;-18.997772;-27.901546;27.75277;;;;;;;;;
2081.0;1984.6;;;;;;;0.12817775;-0.88753927;0.18292795;;;;;;;;;;;;
2081.0;1984.6;;;;;;;;;;-19.318218;-30.995361;28.344065;;;;;;;;;
2081.0;1984.6;;;;;;;0.12836085;-0.91036713;0.18744469;;;;;;;;;;;;
2081.0;1987.0;;;;-0.12073137;0.9598237;0.04915238;;;;;;;;;;;;;;;
2081.0;1987.0;;;;-0.12150957;0.95663464;0.04841233;;;;;;;;;;;;;;;
2081.0;1987.0;;;;-0.122547165;0.9541322;0.04815293;;;;;;;;;;;;;;;
2081.0;1987.0;;;;-0.1239319;0.9508363;0.04741288;;;;;;;;;;;;;;;
2081.0;1987.0;;;;-0.12678911;0.9475175;0.047660835;;;;;;;;;;;;;;;
2081.0;1993.9;;;;;;;;;;-19.634846;-33.841213;28.95825;;;;;;;;;
2081.0;1993.9;;;;;;;0.13275552;-0.93313396;0.19232765;;;;;;;;;;;;
2081.0;1993.9;;;;;;;;;;-19.96292;-36.553543;29.751732;;;;;;;;;
2081.0;1993.9;;;;;;;0.13507493;-0.95541245;0.20020142;;;;;;;;;;;;
2084.0;1996.8;;;;-0.1298485;0.9455949;0.047172554;;;;;;;;;;;;;;;
2084.0;1996.8;;;;-0.13262178;0.94306195;0.047191627;;;;;;;;;;;;;;;
2084.0;1996.8;;;;-0.13588716;0.9392625;0.04757691;;;;;;;;;;;;;;;
2084.0;1996.8;;;;-0.13888551;0.93504345;0.04862214;;;;;;;;;;;;;;;
2084.0;1996.8;;;;-0.1407242;0.9308435;0.049896248;;;;;;;;;;;;;;;
2084.0;2000.3;262143;262143;12125;;;;;;;;;;;;;;;;;;
2084.0;2003.6;;;;;;;;;;-20.310068;-39.12473;30.594805;;;;;;;;;
2084.0;2003.6;;;;;;;0.14007996;-0.97848445;0.20612201;;;;;;;;;;;;
2084.0;2003.6;;;;;;;;;;-20.611439;-41.585285;31.5714;;;;;;;;;
2084.0;2003.6;;;;;;;0.1462447;-0.9945372;0.2148503;;;;;;;;;;;;
2084.0;2006.4;;;;;;;;;;;;;-617;;;;;;;;
2084.0;2006.4;;;;;;;;;;;;;-577;;;;;;;;
2084.0;2006.4;;;;;;;;;;;;;-461;;;;;;;;
2084.0;2006.4;;;;;;;;;;;;;-234;;;;;;;;
2084.0;2006.4;;;;;;;;;;;;;135;;;;;;;;
2084.0;2007.0;;;;-0.14228822;0.9269296;0.05112458;;;;;;;;;;;;;;;
2084.0;2007.0;;;;-0.14373781;0.92281353;0.05244065;;;;;;;;;;;;;;;
2084.0;2007.0;;;;-0.14678957;0.91853726;0.054897316;;;;;;;;;;;;;;;
2084.0;2007.0;;;;-0.14976884;0.91383374;0.055976875;;;;;;;;;;;;;;;
2084.0;2007.0;;;;-0.15303041;0.9086915;0.057964332;;;;;;;;;;;;;;;
2084.0;2013.2;;;;;;;;;;-20.79455;-43.9581;32.620472;;;;;;;;;
2084.0;2013.2;;;;;;;0.15173803;-1.0082705;0.22626422;;;;;;;;;;;;
2084.0;2013.2;;;;;;;;;;-20.9624;-46.05243;33.650475;;;;;;;;;
2084.0;2013.2;;;;;;;0.15558337;-1.0143132;0.23590808;;;;;;;;;;;;
2085.0;2017.1;;;;-0.15627672;0.9033052;0.060428627;;;;;;;;;;;;;;;
2085.0;2017.1;;;;-0.15984727;0.8980104;0.06326676;;;;;;;;;;;;;;;
2085.0;2017.1;;;;-0.1632805;0.89237607;0.06579209;;;;;;;;;;;;;;;
2085.0;2017.1;;;;-0.1664734;0.88673794;0.067947395;;;;;;;;;;;;;;;
2085.0;2017.1;;;;-0.17006685;0.8803445;0.07021714;;;;;;;;;;;;;;;
2085.0;2020.5;262143;262143;12115;;;;;;;;;;;;;;;;;;
2085.0;2022.8;;;;;;;;;;-21.038698;-47.94458;34.79873;;;;;;;;;
2085.0;2022.8;;;;;;;0.1610767;-1.01059;0.24372081;;;;;;;;;;;;
2085.0;2022.8;;;;;;;;;;-21.084475;-49.645985;35.84399;;;;;;;;;
2085.0;2022.8;;;;;;;0.16614276;-1.0017395;0.2529374;;;;;;;;;;;;
2085.0;2023.9;;;;;;;;;;;;;;;;;-5.0660725;2.1744437;14.694663;;1909.0
2085.0;2023.9;;;;;;;;;;;;;;0.8650777;-0.020142216;-0.1439253;;;;;1909.0
2085.0;2023.9;;;;;;;;;;;;;;;;;-6.2372203;1.8845179;16.640219;;1909.0
2085.0;2023.9;;;;;;;;;;;;;;0.9145787;-0.022888882;-0.11963256;;;;;1909.0
2085.0;2023.9;;;;;;;;;;;;;;;;;-5.367443;1.3008515;18.494217;;1918.7
2085.0;2023.9;;;;;;;;;;;;;;0.9292886;-0.02294992;-0.13843197;;;;;1918.7
2085.0;2023.9;;;;;;;;;;;;;;;;;-3.784295;-1.453444;20.435957;;1918.7
2085.0;2023.9;;;;;;;;;;;;;;0.9679251;-9.765923E-4;-0.17712943;;;;;1918.7
2085.0;2023.9;;;;;;;;;;;;;;;;;-3.7003694;-3.1968138;22.476881;;1928.3
2085.0;2023.9;;;;;;;;;;;;;;1.0102237;0.026734214;-0.19226661;;;;;1928.3
2085.0;2023.9;;;;;;;;;;;;;;;;;-3.7575915;-3.1968138;24.395735;;1928.3
2085.0;2023.9;;;;;;;;;;;;;;1.0290841;0.06640828;-0.17566454;;;;;1928.3
2086.0;2024.6;;;;;;;;;;;;;;;;;-4.634999;-3.2044435;26.226845;;1937.9
2086.0;2024.6;;;;;;;;;;;;;;1.0317698;0.1032136;-0.16425061;;;;;1937.9
2086.0;2024.6;;;;;;;;;;;;;;;;;-5.6993318;-4.226814;28.050325;;1937.9
2086.0;2024.6;;;;;;;;;;;;;;1.0357372;0.15460677;-0.173101;;;;;1937.9
2086.0;2024.6;;;;;;;;;;;;;;;;;-7.6067386;-3.5935545;29.011658;;1947.5
2086.0;2024.6;;;;;;;;;;;;;;1.0180975;0.2066103;-0.18543047;;;;;1947.5
2086.0;2024.6;;;;;;;;;;;;;;;;;-10.44496;-2.8077028;29.206215;;1947.5
2086.0;2024.6;;;;;;;;;;;;;;0.99905396;0.25830868;-0.19501327;;;;;1947.5
2086.0;2024.6;;;;;;;;;;;;;;;;;-14.984588;0.23651844;28.7904;;1957.2
2086.0;2024.6;;;;;;;;;;;;;;0.96639913;0.30152288;-0.18079165;;;;;1957.2
2086.0;2024.6;;;;;;;;;;;;;;;;;-20.386364;3.9063692;27.817621;;1957.2
2086.0;2024.6;;;;;;;;;;;;;;0.91616565;0.34125796;-0.16260262;;;;;1957.2
2086.0;2026.9;;;;-0.1729889;0.87352;0.07233811;;;;;;;;;;;;;;;
2086.0;2026.9;;;;-0.1759453;0.8663751;0.074817665;;;;;;;;;;;;;;;
2086.0;2026.9;;;;-0.17816545;0.8586427;0.076328285;;;;;;;;;;;;;;;
2086.0;2026.9;;;;-0.18032075;0.85084546;0.07792664;;;;;;;;;;;;;;;
2086.0;2026.9;;;;-0.1817093;0.8423959;0.07984925;;;;;;;;;;;;;;;
2086.0;2032.2;;;;;;;;;;-21.126438;-51.137577;36.603138;;;;;;;;;
2086.0;2032.2;;;;;;;0.1727958;-0.98709065;0.2586749;;;;;;;;;;;;
2086.0;2032.2;;;;;;;;;;-21.145512;-52.38502;37.07236;;;;;;;;;
2086.0;2032.2;;;;;;;0.17920469;-0.96963406;0.26410717;;;;;;;;;;;;
2143.0;2037.0;;;;-0.18355943;0.8334695;0.081062324;;;;;;;;;;;;;;;
2143.0;2037.0;;;;-0.18476869;0.82478726;0.081874855;;;;;;;;;;;;;;;
2143.0;2037.0;;;;-0.18527605;0.81552136;0.082809456;;;;;;;;;;;;;;;
2143.0;2037.0;;;;-0.18558122;0.8063661;0.08290864;;;;;;;;;;;;;;;
2143.0;2037.0;;;;-0.18585207;0.79719174;0.08339692;;;;;;;;;;;;;;;
2143.0;2040.4;262143;262143;12129;;;;;;;;;;;;;;;;;;
2143.0;2041.7;;;;;;;;;;-21.168402;-53.33491;37.320324;;;;;;;;;
2143.0;2041.7;;;;;;;0.18451491;-0.948149;0.26685384;;;;;;;;;;;;
2143.0;2041.7;;;;;;;;;;-21.252327;-53.86517;37.32414;;;;;;;;;
2143.0;2041.7;;;;;;;0.19098483;-0.92880034;0.26850185;;;;;;;;;;;;
2143.0;2046.5;;;;;;;;;;;;;475;;;;;;;;
2143.0;2046.5;;;;;;;;;;;;;609;;;;;;;;
2143.0;2046.5;;;;;;;;;;;;;416;;;;;;;;
2143.0;2046.5;;;;;;;;;;;;;92;;;;;;;;
2143.0;2046.5;;;;;;;;;;;;;-22;;;;;;;;
2143.0;2047.0;;;;-0.18588258;0.78829205;0.083393104;;;;;;;;;;;;;;;
2143.0;2047.0;;;;-0.18623354;0.77983487;0.08291627;;;;;;;;;;;;;;;
2143.0;2047.0;;;;-0.18600847;0.77172863;0.08218003;;;;;;;;;;;;;;;
2143.0;2047.0;;;;-0.18596269;0.76392376;0.08090974;;;;;;;;;;;;;;;
2143.0;2047.0;;;;-0.18675233;0.7564889;0.07912064;;;;;;;;;;;;;;;
2143.0;2051.1;;;;;;;;;;-21.41255;-54.067356;37.07236;;;;;;;;;
2143.0;2051.1;;;;;;;0.19788201;-0.9132359;0.26862392;;;;;;;;;;;;
2143.0;2051.1;;;;;;;;;;-21.679586;-53.949097;36.62984;;;;;;;;;
2143.0;2051.1;;;;;;;0.20715964;-0.89919734;0.26722008;;;;;;;;;;;;
2145.0;2056.8;;;;-0.18686296;0.74989706;0.07703019;;;;;;;;;;;;;;;
2145.0;2056.8;;;;-0.1873398;0.743805;0.07422639;;;;;;;;;;;;;;;
2145.0;2056.8;;;;-0.18743898;0.73792654;0.07074357;;;;;;;;;;;;;;;
2145.0;2056.8;;;;-0.18791202;0.73302466;0.067710884;;;;;;;;;;;;;;;
2145.0;2056.8;;;;-0.18753055;0.7280999;0.064113624;;;;;;;;;;;;;;;
2145.0;2060.7;;;;;;;;;;-21.984772;-53.55617;36.03473;;;;;;;;;
2145.0;2060.7;;;;;;;0.21613209;-0.887051;0.26392406;;;;;;;;;;;;
2145.0;2060.7;;;;;;;;;;-22.465437;-52.55669;35.397655;;;;;;;;;
2145.0;2060.7;;;;;;;0.22748497;-0.8745384;0.2628254;;;;;;;;;;;;
2145.0;2060.4;262143;262143;12130;;;;;;;;;;;;;;;;;;
2145.0;2067.0;;;;-0.18778232;0.72344595;0.060596474;;;;;;;;;;;;;;;
2145.0;2067.0;;;;-0.18817142;0.719883;0.057285316;;;;;;;;;;;;;;;
2145.0;2067.0;;;;-0.18807223;0.7165223;0.05345536;;;;;;;;;;;;;;;
2145.0;2067.0;;;;-0.18811801;0.71303946;0.049652107;;;;;;;;;;;;;;;
2145.0;2067.0;;;;-0.18910983;0.7104569;0.046306614;;;;;;;;;;;;;;;
2145.0;2070.3;;;;;;;;;;-22.888882;-51.236763;34.60417;;;;;;;;;
2145.0;2070.3;;;;;;;0.23871578;-0.8642231;0.2595294;;;;;;;;;;;;
2145.0;2070.3;;;;;;;;;;-23.232216;-49.535355;33.700066;;;;;;;;;
2145.0;2070.3;;;;;;;0.24939726;-0.85152745;0.2583697;;;;;;;;;;;;
2148.0;2077.1;;;;-0.19068912;0.7081414;0.042400364;;;;;;;;;;;;;;;
2148.0;2077.1;;;;-0.18888095;0.7062722;0.038642887;;;;;;;;;;;;;;;
2148.0;2077.1;;;;-0.18838504;0.7044373;0.035232548;;;;;;;;;;;;;;;
2148.0;2077.1;;;;-0.18830493;0.70330054;0.032398228;;;;;;;;;;;;;;;
2148.0;2077.1;;;;-0.1878548;0.7027665;0.029376987;;;;;;;;;;;;;;;
2148.0;2079.9;;;;;;;;;;-23.724327;-47.47917;32.63573;;;;;;;;;
2148.0;2079.9;;;;;;;0.25855282;-0.83962524;0.2567217;;;;;;;;;;;;
2148.0;2079.9;;;;;;;;;;-24.254585;-45.10254;31.594288;;;;;;;;;
2148.0;2079.9;;;;;;;0.26715904;-0.8275399;0.2557451;;;;;;;;;;;;
2148.0;2080.7;262143;262143;12124;;;;;;;;;;;;;;;;;;
2148.0;2083.5;;;;;;;;;;;;;;;;;-26.589252;7.6181827;25.742363;;1966.8
2148.0;2083.5;;;;;;;;;;;;;;0.8702048;0.36829737;-0.14123966;;;;;1966.8
2148.0;2083.5;;;;;;;;;;;;;;;;;-31.903286;10.643331;22.32429;;1966.8
2148.0;2083.5;;;;;;;;;;;;;;0.8148442;0.4118778;-0.12823878;;;;;1966.8
2148.0;2083.5;;;;;;;;;;;;;;;;;-36.06143;12.131108;18.501846;;1976.5
2148.0;2083.5;;;;;;;;;;;;;;0.75160986;0.45295572;-0.09906308;;;;;1976.5
2148.0;2083.5;;;;;;;;;;;;;;;;;-40.295876;13.103885;13.893551;;1976.5
2148.0;2083.5;;;;;;;;;;;;;;0.70363474;0.50666827;0.013245033;;;;;1976.5
2148.0;2083.5;;;;;;;;;;;;;;;;;-44.85076;12.760551;12.253182;;1986.0
2148.0;2083.5;;;;;;;;;;;;;;0.6637776;0.48829615;0.10058901;;;;;1986.0
2148.0;2083.5;;;;;;;;;;;;;;;;;-44.01151;10.071108;11.215552;;1986.0
2148.0;2083.5;;;;;;;;;;;;;;0.65120393;0.41975158;0.04773095;;;;;1986.0
2150.0;2084.3;;;;;;;;;;;;;;;;;-43.725395;10.921812;9.151738;;1995.6
2150.0;2084.3;;;;;;;;;;;;;;0.62727743;0.35554063;-0.030274361;;;;;1995.6
2150.0;2084.3;;;;;;;;;;;;;;;;;-44.576096;12.951292;6.3364053;;1995.6
2150.0;2084.3;;;;;;;;;;;;;;0.5948668;0.29621264;-0.09997864;;;;;1995.6
2150.0;2084.3;;;;;;;;;;;;;;;;;-45.47258;13.256477;4.337443;;2005.2
2150.0;2084.3;;;;;;;;;;;;;;0.6046938;0.24085207;-0.16473891;;;;;2005.2
2150.0;2084.3;;;;;;;;;;;;;;;;;-43.412582;12.947477;2.750481;;2005.2
2150.0;2084.3;;;;;;;;;;;;;;0.6371654;0.19306009;-0.20715964;;;;;2005.2
2150.0;2084.3;;;;;;;;;;;;;;;;;-39.143803;14.210181;1.2131108;;2014.9
2150.0;2084.3;;;;;;;;;;;;;;0.67000335;0.14703818;-0.18622394;;;;;2014.9
2150.0;2084.3;;;;;;;;;;;;;;;;;-36.126286;14.866329;-0.35859248;;2014.9
2150.0;2084.3;;;;;;;;;;;;;;0.7253639;0.07391583;-0.15619373;;;;;2014.9
2150.0;2086.6;;;;;;;;;;;;;54;;;;;;;;
2150.0;2086.6;;;;;;;;;;;;;-34;;;;;;;;
2150.0;2086.6;;;;;;;;;;;;;-308;;;;;;;;
2150.0;2086.6;;;;;;;;;;;;;-527;;;;;;;;
2150.0;2086.6;;;;;;;;;;;;;-687;;;;;;;;
2150.0;2086.9;;;;-0.18707277;0.70211416;0.026653294;;;;;;;;;;;;;;;
2150.0;2086.9;;;;-0.18636324;0.7015076;0.024055485;;;;;;;;;;;;;;;
2150.0;2086.9;;;;-0.18559267;0.7013512;0.021133425;;;;;;;;;;;;;;;
2150.0;2086.9;;;;-0.18476106;0.7008248;0.018394472;;;;;;;;;;;;;;;
2150.0;2086.9;;;;-0.18370058;0.70052344;0.016254427;;;;;;;;;;;;;;;
2150.0;2089.3;;;;;;;;;;-24.792473;-42.38258;30.48036;;;;;;;;;
2150.0;2089.3;;;;;;;0.2728965;-0.819422;0.25696585;;;;;;;;;;;;
2150.0;2089.3;;;;;;;;;;-25.337992;-39.35743;29.40077;;;;;;;;;
2150.0;2089.3;;;;;;;0.2747276;-0.81356245;0.26197088;;;;;;;;;;;;
2152.0;2096.9;;;;-0.18265916;0.69967276;0.013450624;;;;;;;;;;;;;;;
2152.0;2096.9;;;;-0.18099977;0.69878393;0.011047364;;;;;;;;;;;;;;;
2152.0;2096.9;;;;-0.17941667;0.6979409;0.00895691;;;;;;;;;;;;;;;
2152.0;2096.9;;;;-0.17782213;0.69702536;0.0070648203;;;;;;;;;;;;;;;
2152.0;2096.9;;;;-0.1754265;0.6960564;0.0047874455;;;;;;;;;;;;;;;
2152.0;2098.9;;;;;;;;;;;;;;;;;-32.42592;14.618366;-1.6747032;;2024.6
2152.0;2098.9;;;;;;;;;;;;;;0.7727287;0.002990814;-0.14319284;;;;;2024.6
2152.0;2098.9;;;;;;;;;;;;;;;;;-28.87051;12.470626;-2.0790737;;2024.6
2152.0;2098.9;;;;;;;;;;;;;;0.8338267;-0.042481765;-0.14117862;;;;;2024.6
2152.0;2098.9;;;;;;;;;;;;;;;;;-27.336956;10.597552;-1.2436292;;2034.3
2152.0;2098.9;;;;;;;;;;;;;;0.893643;-0.06622516;-0.15686513;;;;;2034.3
2152.0;2098.9;;;;;;;;;;;;;;;;;-25.757622;9.54085;0.35859248;;2034.3
2152.0;2098.9;;;;;;;;;;;;;;0.9250771;-0.07318339;-0.1812189;;;;;2034.3
2152.0;2098.9;;;;;;;;;;;;;;;;;-23.44966;7.6029234;2.2278512;;2043.9
2152.0;2098.9;;;;;;;;;;;;;;0.92837304;-0.06378368;-0.21558276;;;;;2043.9
2152.0;2098.9;;;;;;;;;;;;;;;;;-20.222326;5.405591;4.0665917;;2043.9
2152.0;2098.9;;;;;;;;;;;;;;0.89345986;-0.034730066;-0.2563555;;;;;2043.9
2152.0;2098.7;;;;;;;;;;-25.906399;-36.183506;28.290659;;;;;;;;;
2152.0;2098.7;;;;;;;0.27460554;-0.8107547;0.2649617;;;;;;;;;;;;
2152.0;2098.7;;;;;;;;;;-26.448103;-32.811214;27.153845;;;;;;;;;
2152.0;2098.7;;;;;;;0.27143162;-0.8106937;0.27045503;;;;;;;;;;;;
2152.0;2100.5;262143;262143;12124;;;;;;;;;;;;;;;;;;
2201.0;2106.9;;;;-0.17310335;0.6945191;0.0032157903;;;;;;;;;;;;;;;
2201.0;2106.9;;;;-0.17058946;0.6930657;0.0018959048;;;;;;;;;;;;;;;
2201.0;2106.9;;;;-0.16807939;0.69174963;8.430482E-4;;;;;;;;;;;;;;;
2201.0;2106.9;;;;-0.16539384;0.69040304;-1.9836429E-4;;;;;;;;;;;;;;;
2201.0;2106.9;;;;-0.1622925;0.68868643;-0.0019111636;;;;;;;;;;;;;;;
2201.0;2108.1;;;;;;;;;;-26.944029;-29.133732;25.856808;;;;;;;;;
2201.0;2108.1;;;;;;;0.26783043;-0.814478;0.27784052;;;;;;;;;;;;
2201.0;2108.1;;;;;;;;;;-27.272104;-25.360882;24.430067;;;;;;;;;
2201.0;2108.1;;;;;;;0.2630085;-0.8191168;0.28693503;;;;;;;;;;;;
2201.0;2116.7;;;;-0.15938951;0.6872521;-0.0024757388;;;;;;;;;;;;;;;
2201.0;2116.7;;;;-0.15615083;0.6857644;-0.0038719182;;;;;;;;;;;;;;;
2201.0;2116.7;;;;-0.15273286;0.6845551;-0.004226685;;;;;;;;;;;;;;;
2201.0;2116.7;;;;-0.14957811;0.6825486;-0.0051879887;;;;;;;;;;;;;;;
2201.0;2116.7;;;;-0.1460724;0.6805993;-0.0067977915;;;;;;;;;;;;;;;
2201.0;2117.6;;;;;;;;;;-27.596361;-22.064884;23.060549;;;;;;;;;
2201.0;2117.6;;;;;;;0.25812554;-0.82216865;0.2974334;;;;;;;;;;;;
2201.0;2117.6;;;;;;;;;;-27.775658;-19.180883;21.584217;;;;;;;;;
2201.0;2117.6;;;;;;;0.2525712;-0.82863855;0.30933562;;;;;;;;;;;;
2201.0;2120.4;262143;262143;12128;;;;;;;;;;;;;;;;;;
2201.0;2126.5;;;;;;;;;;;;;-923;;;;;;;;
2201.0;2126.5;;;;;;;;;;;;;-1189;;;;;;;;
2201.0;2126.5;;;;;;;;;;;;;-1193;;;;;;;;
2201.0;2126.5;;;;;;;;;;;;;-887;;;;;;;;
2201.0;2126.5;;;;;;;;;;;;;-710;;;;;;;;
2202.0;2126.8;;;;-0.14323045;0.678135;-0.0078811655;;;;;;;;;;;;;;;
2202.0;2126.8;;;;-0.13996126;0.6759911;-0.008617402;;;;;;;;;;;;;;;
2202.0;2126.8;;;;-0.13671495;0.67322165;-0.00889206;;;;;;;;;;;;;;;
2202.0;2126.8;;;;-0.13390352;0.6707955;-0.0097084055;;;;;;;;;;;;;;;
2202.0;2126.8;;;;-0.13106157;0.66844565;-0.0108299265;;;;;;;;;;;;;;;
2202.0;2127.2;;;;;;;;;;-27.699362;-16.327404;20.279549;;;;;;;;;
2202.0;2127.2;;;;;;;0.24854274;-0.83291113;0.32074952;;;;;;;;;;;;
2202.0;2127.2;;;;;;;;;;-27.60399;-13.294626;18.993958;;;;;;;;;
2202.0;2127.2;;;;;;;0.24652852;-0.8373669;0.33301798;;;;;;;;;;;;
2202.0;2136.9;;;;;;;;;;-27.310251;-10.578479;17.574846;;;;;;;;;
2202.0;2136.9;;;;;;;0.24762718;-0.8417615;0.33936584;;;;;;;;;;;;
2202.0;2136.9;;;;;;;;;;-27.020327;-8.587145;16.167181;;;;;;;;;
2202.0;2136.9;;;;;;;0.24933623;-0.84664446;0.34363842;;;;;;;;;;;;
2202.0;2136.9;;;;-0.12830736;0.6659623;-0.011379243;;;;;;;;;;;;;;;
2202.0;2136.9;;;;-0.12581636;0.66335684;-0.012016298;;;;;;;;;;;;;;;
2202.0;2136.9;;;;-0.124057785;0.6614266;-0.012603762;;;;;;;;;;;;;;;
2202.0;2136.9;;;;-0.121475235;0.6596337;-0.012538912;;;;;;;;;;;;;;;
2202.0;2136.9;;;;-0.119079605;0.65876776;-0.012996675;;;;;;;;;;;;;;;
2202.0;2140.7;262143;262143;12133;;;;;;;;;;;;;;;;;;
2202.0;2146.5;;;;;;;;;;-26.654104;-6.7102575;15.018921;;;;;;;;;
2202.0;2146.5;;;;;;;0.2491531;-0.84737694;0.34485915;;;;;;;;;;;;
2202.0;2146.5;;;;;;;;;;-26.280252;-4.856258;13.977477;;;;;;;;;
2202.0;2146.5;;;;;;;0.24756615;-0.8481704;0.34473708;;;;;;;;;;;;
2204.0;2147.0;;;;-0.11732103;0.6581002;-0.013393404;;;;;;;;;;;;;;;
2204.0;2147.0;;;;-0.11529924;0.65787894;-0.013683321;;;;;;;;;;;;;;;
2204.0;2147.0;;;;-0.113597885;0.6572762;-0.014392855;;;;;;;;;;;;;;;
2204.0;2147.0;;;;-0.11222841;0.6575051;-0.013973238;;;;;;;;;;;;;;;
2204.0;2147.0;;;;-0.11105348;0.6579209;-0.014049532;;;;;;;;;;;;;;;
2204.0;2151.2;;;;;;;;;;;;;;;;;-18.173773;5.9472947;5.9244056;;2053.6
2204.0;2151.2;;;;;;;;;;;;;;0.84182256;-0.009765923;-0.2230903;;;;;2053.6
2204.0;2151.2;;;;;;;;;;;;;;;;;-23.159733;11.093478;6.9505906;;2053.6
2204.0;2151.2;;;;;;;;;;;;;;0.7806635;0.009582812;-0.1015656;;;;;2053.6
2204.0;2151.2;;;;;;;;;;;;;;;;;-32.326733;20.123142;7.328257;;2063.3
2204.0;2151.2;;;;;;;;;;;;;;0.7162084;-0.0081789605;0.08911405;;;;;2063.3
2204.0;2151.2;;;;;;;;;;;;;;;;;-35.653248;23.865475;6.851405;;2063.3
2204.0;2151.2;;;;;;;;;;;;;;0.6407056;-0.050050355;0.18262276;;;;;2063.3
2204.0;2151.2;;;;;;;;;;;;;;;;;-26.142918;15.076143;4.440443;;2073.0
2204.0;2151.2;;;;;;;;;;;;;;0.5751518;-0.019470809;0.038392287;;;;;2073.0
2204.0;2151.2;;;;;;;;;;;;;;;;;-16.0947;4.4785914;2.0599995;;2073.0
2204.0;2151.2;;;;;;;;;;;;;;0.58162177;0.030579546;-0.16577655;;;;;2073.0
2204.0;2156.0;;;;;;;;;;-25.875881;-3.215888;13.016145;;;;;;;;;
2204.0;2156.0;;;;;;;0.24835964;-0.84774315;0.34449294;;;;;;;;;;;;
2204.0;2156.0;;;;;;;;;;-25.570696;-1.617481;12.1807;;;;;;;;;
2204.0;2156.0;;;;;;;0.24420911;-0.8460341;0.3437605;;;;;;;;;;;;
2206.0;2157.0;;;;-0.109863296;0.6580277;-0.01356888;;;;;;;;;;;;;;;
2206.0;2157.0;;;;-0.10947801;0.65790945;-0.013557436;;;;;;;;;;;;;;;
2206.0;2157.0;;;;-0.108497635;0.65736777;-0.014560701;;;;;;;;;;;;;;;
2206.0;2157.0;;;;-0.10805513;0.65654;-0.014667513;;;;;;;;;;;;;;;
2206.0;2157.0;;;;-0.107498184;0.6554871;-0.015361788;;;;;;;;;;;;;;;
2206.0;2159.5;;;;;;;;;;;;;;;;;-13.40907;4.6617026;0.5417035;;2082.7
2206.0;2159.5;;;;;;;;;;;;;;0.6059755;0.03234962;-0.1861629;;;;;2082.7
2206.0;2159.5;;;;;;;;;;;;;;;;;-11.131626;7.0345163;-0.92318493;;2082.7
2206.0;2159.5;;;;;;;;;;;;;;0.6046938;-0.01843318;-0.1662038;;;;;2082.7
2206.0;2159.5;;;;;;;;;;;;;;;;;-4.9630723;5.2758875;-2.4109623;;2092.3
2206.0;2159.5;;;;;;;;;;;;;;0.60371715;-0.057679985;-0.1904355;;;;;2092.3
2206.0;2159.5;;;;;;;;;;;;;;;;;0.3662221;3.7156286;-3.8377025;;2092.3
2206.0;2159.5;;;;;;;;;;;;;;0.6092715;-0.089236125;-0.2115543;;;;;2092.3
2206.0;2159.5;;;;;;;;;;;;;;;;;1.6556292;4.566332;-5.359813;;2101.9
2206.0;2159.5;;;;;;;;;;;;;;0.6102481;-0.094058044;-0.22620319;;;;;2101.9
2206.0;2159.5;;;;;;;;;;;;;;;;;-1.045259;6.878109;-6.5080724;;2101.9
2206.0;2159.5;;;;;;;;;;;;;;0.6419874;-0.08728294;-0.23322245;;;;;2101.9
2206.0;2160.6;262143;262143;12138;;;;;;;;;;;;;;;;;;
2206.0;2165.4;;;;;;;;;;-25.166325;-0.0038148137;11.394848;;;;;;;;;
2206.0;2165.4;;;;;;;0.23908201;-0.8431654;0.3452254;;;;;;;;;;;;
2206.0;2165.4;;;;;;;;;;-24.929806;1.6365551;10.773034;;;;;;;;;
2206.0;2165.4;;;;;;;0.23645741;-0.8407849;0.35108495;;;;;;;;;;;;
2262.0;2166.6;;;;;;;;;;;;;-777;;;;;;;;
2262.0;2166.6;;;;;;;;;;;;;-763;;;;;;;;
2262.0;2166.6;;;;;;;;;;;;;-585;;;;;;;;
2262.0;2166.6;;;;;;;;;;;;;-684;;;;;;;;
2262.0;2166.6;;;;;;;;;;;;;-1455;;;;;;;;
2262.0;2166.9;;;;-0.10777284;0.65411764;-0.016162874;;;;;;;;;;;;;;;
2262.0;2166.9;;;;-0.1076584;0.6529427;-0.016658785;;;;;;;;;;;;;;;
2262.0;2166.9;;;;-0.10783769;0.65201956;-0.0164032;;;;;;;;;;;;;;;
2262.0;2166.9;;;;-0.10896684;0.6505547;-0.015727999;;;;;;;;;;;;;;;
2262.0;2166.9;;;;-0.10986711;0.6492463;-0.01595688;;;;;;;;;;;;;;;
2262.0;2174.8;;;;;;;;;;-24.628439;3.151036;9.956663;;;;;;;;;
2262.0;2174.8;;;;;;;0.23889889;-0.8384655;0.35816523;;;;;;;;;;;;
2262.0;2174.8;;;;;;;;;;-24.262217;4.0437026;9.102145;;;;;;;;;
2262.0;2174.8;;;;;;;0.23444319;-0.839259;0.3635975;;;;;;;;;;;;
2262.0;2176.8;;;;-0.11080171;0.64802176;-0.016193392;;;;;;;;;;;;;;;
2262.0;2176.8;;;;-0.1117325;0.64706045;-0.017269136;;;;;;;;;;;;;;;
2262.0;2176.8;;;;-0.11328508;0.6459771;-0.017368319;;;;;;;;;;;;;;;
2262.0;2176.8;;;;-0.11460115;0.64542776;-0.017898561;;;;;;;;;;;;;;;
2262.0;2176.8;;;;-0.11646654;0.64477545;-0.017574312;;;;;;;;;;;;;;;
2262.0;2180.7;262143;262143;12143;;;;;;;;;;;;;;;;;;
2262.0;2184.4;;;;;;;;;;-23.85403;4.753258;8.476516;;;;;;;;;
2262.0;2184.4;;;;;;;0.2287057;-0.83797723;0.37141025;;;;;;;;;;;;
2262.0;2184.4;;;;;;;;;;-23.403881;5.287332;7.927183;;;;;;;;;
2262.0;2184.4;;;;;;;0.22449416;-0.8365123;0.37598804;;;;;;;;;;;;
2264.0;2186.9;;;;-0.118835464;0.64409643;-0.016902925;;;;;;;;;;;;;;;
2264.0;2186.9;;;;-0.12131883;0.64337164;-0.016212465;;;;;;;;;;;;;;;
2264.0;2186.9;;;;-0.12375261;0.64324194;-0.014522554;;;;;;;;;;;;;;;
2264.0;2186.9;;;;-0.12562181;0.64280707;-0.013412477;;;;;;;;;;;;;;;
2264.0;2186.9;;;;-0.12773897;0.64223486;-0.011844637;;;;;;;;;;;;;;;
2264.0;2194.1;;;;;;;;;;-23.0224;5.5887017;7.4655905;;;;;;;;;
2264.0;2194.1;;;;;;;0.22425;-0.8289437;0.3789178;;;;;;;;;;;;
2264.0;2194.1;;;;;;;;;;-22.598955;5.4361095;6.870479;;;;;;;;;
2264.0;2194.1;;;;;;;0.22058779;-0.8239387;0.38142034;;;;;;;;;;;;
2264.0;2197.0;;;;-0.12916185;0.6413384;-0.010566712;;;;;;;;;;;;;;;
2264.0;2197.0;;;;-0.13061525;0.64023215;-0.009193421;;;;;;;;;;;;;;;
2264.0;2197.0;;;;-0.13182832;0.639103;-0.0072784433;;;;;;;;;;;;;;;
2264.0;2197.0;;;;-0.132473;0.6381112;-0.0054664616;;;;;;;;;;;;;;;
2264.0;2197.0;;;;-0.1331711;0.6363564;-0.004478455;;;;;;;;;;;;;;;
2264.0;2200.9;262143;262143;12138;;;;;;;;;;;;;;;;;;
2264.0;2203.7;;;;;;;;;;-22.148808;5.218665;6.2944427;;;;;;;;;
2264.0;2203.7;;;;;;;0.21613209;-0.81948304;0.3842891;;;;;;;;;;;;
2264.0;2203.7;;;;;;;;;;-21.671957;5.115665;5.8290353;;;;;;;;;
2264.0;2203.7;;;;;;;0.21857357;-0.8174078;0.38666952;;;;;;;;;;;;
2264.0;2206.9;;;;;;;;;;;;;-2280;;;;;;;;
2264.0;2206.9;;;;;;;;;;;;;-1612;;;;;;;;
2264.0;2206.9;;;;;;;;;;;;;520;;;;;;;;
2264.0;2206.9;;;;;;;;;;;;;-284;;;;;;;;
2264.0;2206.9;;;;;;;;;;;;;-8136;;;;;;;;
2265.0;2207.0;;;;-0.13354875;0.63423544;-0.0034065251;;;;;;;;;;;;;;;
2265.0;2207.0;;;;-0.13420106;0.63220984;-0.0016860964;;;;;;;;;;;;;;;
2265.0;2207.0;;;;-0.1345978;0.6302033;-2.7465823E-4;;;;;;;;;;;;;;;
2265.0;2207.0;;;;-0.1350937;0.62808996;4.959107E-4;;;;;;;;;;;;;;;
2265.0;2207.0;;;;-0.13557817;0.62707525;0.0022354128;;;;;;;;;;;;;;;
2265.0;2213.2;;;;;;;;;;-21.22181;5.0050354;5.287332;;;;;;;;;
2265.0;2213.2;;;;;;;0.22528763;-0.8192999;0.38947722;;;;;;;;;;;;
2265.0;2213.2;;;;;;;;;;-20.760216;5.157628;4.505295;;;;;;;;;
2265.0;2213.2;;;;;;;0.22943816;-0.8258309;0.39436018;;;;;;;;;;;;
2265.0;2217.1;;;;-0.13616182;0.6261483;0.0036163335;;;;;;;;;;;;;;;
2265.0;2217.1;;;;-0.13665773;0.6258202;0.0050125127;;;;;;;;;;;;;;;
2265.0;2217.1;;;;-0.13715364;0.62650305;0.0060768137;;;;;;;;;;;;;;;
2265.0;2217.1;;;;-0.13778307;0.6280251;0.00813675;;;;;;;;;;;;;;;
2265.0;2217.1;;;;-0.13910677;0.6301423;0.009075166;;;;;;;;;;;;;;;
2265.0;2220.9;262143;262143;12137;;;;;;;;;;;;;;;;;;
2265.0;2222.6;;;;;;;;;;-20.268105;5.584887;3.8605914;;;;;;;;;
2265.0;2222.6;;;;;;;0.23529771;-0.8371838;0.39844966;;;;;;;;;;;;
2265.0;2222.6;;;;;;;;;;-19.745476;6.1342206;3.322703;;;;;;;;;
2265.0;2222.6;;;;;;;0.24134037;-0.8516495;0.40058595;;;;;;;;;;;;
2319.0;2227.1;;;;-0.1402321;0.63252264;0.011253358;;;;;;;;;;;;;;;
2319.0;2227.1;;;;-0.1415024;0.63504034;0.013912203;;;;;;;;;;;;;;;
2319.0;2227.1;;;;-0.14260866;0.63880545;0.016441347;;;;;;;;;;;;;;;
2319.0;2227.1;;;;-0.144516;0.64228064;0.018875124;;;;;;;;;;;;;;;
2319.0;2227.1;;;;-0.14625932;0.645382;0.020847322;;;;;;;;;;;;;;;
2319.0;2232.0;;;;;;;;;;-19.173254;6.8628497;2.8725548;;;;;;;;;
2319.0;2232.0;;;;;;;0.25055698;-0.8666036;0.40314952;;;;;;;;;;;;
2319.0;2232.0;;;;;;;;;;-18.65444;7.656331;2.418592;;;;;;;;;
2319.0;2232.0;;;;;;;0.25330362;-0.8822291;0.40913114;;;;;;;;;;;;
2319.0;2236.9;;;;-0.1485367;0.64812475;0.022026064;;;;;;;;;;;;;;;
2319.0;2236.9;;;;-0.15082933;0.65082175;0.024456028;;;;;;;;;;;;;;;
2319.0;2236.9;;;;-0.15307619;0.65320593;0.026855472;;;;;;;;;;;;;;;
2319.0;2236.9;;;;-0.1558571;0.65557104;0.030017857;;;;;;;;;;;;;;;
2319.0;2236.9;;;;-0.15865327;0.657383;0.03354645;;;;;;;;;;;;;;;
2319.0;2240.9;262143;262143;12150;;;;;;;;;;;;;;;;;;
2319.0;2241.6;;;;;;;;;;-17.80755;8.29722;1.9493698;;;;;;;;;
2319.0;2241.6;;;;;;;0.25586718;-0.8957183;0.41273233;;;;;;;;;;;;
2319.0;2241.6;;;;;;;;;;-16.926329;9.01822;1.617481;;;;;;;;;
2319.0;2241.6;;;;;;;0.2557451;-0.91384625;0.4130375;;;;;;;;;;;;
2319.0;2247.0;;;;;;;;;;;;;-18180;;;;;;;;
2319.0;2247.0;;;;;;;;;;;;;-20031;;;;;;;;
2319.0;2247.0;;;;;;;;;;;;;-10566;;;;;;;;
2319.0;2247.0;;;;;;;;;;;;;1936;;;;;;;;
2319.0;2247.0;;;;;;;;;;;;;7515;;;;;;;;
2322.0;2247.0;;;;-0.16221239;0.65959173;0.036960606;;;;;;;;;;;;;;;
2322.0;2247.0;;;;-0.1661873;0.66206366;0.041587833;;;;;;;;;;;;;;;
2322.0;2247.0;;;;-0.1705742;0.66447836;0.04548264;;;;;;;;;;;;;;;
2322.0;2247.0;;;;-0.17540742;0.66691595;0.049465187;;;;;;;;;;;;;;;
2322.0;2247.0;;;;-0.18018724;0.6692353;0.053424843;;;;;;;;;;;;;;;
2322.0;2251.2;;;;;;;;;;-16.08707;9.952848;1.1749626;;;;;;;;;
2322.0;2251.2;;;;;;;0.2592242;-0.9294107;0.4140141;;;;;;;;;;;;
2322.0;2251.2;;;;;;;;;;-15.236365;11.120181;0.65233314;;;;;;;;;
2322.0;2251.2;;;;;;;0.26190984;-0.948149;0.41712698;;;;;;;;;;;;
2322.0;2257.1;;;;-0.18496706;0.67200094;0.057315834;;;;;;;;;;;;;;;
2322.0;2257.1;;;;-0.18956378;0.6745568;0.060607918;;;;;;;;;;;;;;;
2322.0;2257.1;;;;-0.19400027;0.6763764;0.06421281;;;;;;;;;;;;;;;
2322.0;2257.1;;;;-0.19849399;0.6775513;0.06717683;;;;;;;;;;;;;;;
2322.0;2257.1;;;;-0.20206454;0.6783295;0.07005311;;;;;;;;;;;;;;;
2322.0;2260.9;;;;;;;;;;-14.202551;12.634663;0.026703697;;;;;;;;;
2322.0;2260.9;;;;;;;0.26520586;-0.9693289;0.42048404;;;;;;;;;;;;
2322.0;2260.9;;;;;;;;;;-13.0809965;13.80581;-0.61037016;;;;;;;;;
2322.0;2260.9;;;;;;;0.26569414;-0.9881283;0.41950744;;;;;;;;;;;;
2322.0;2261.2;262143;262143;12148;;;;;;;;;;;;;;;;;;
2323.0;2267.2;;;;-0.20603183;0.6789971;0.07223893;;;;;;;;;;;;;;;
2323.0;2267.2;;;;-0.20949557;0.6792031;0.07520295;;;;;;;;;;;;;;;
2323.0;2267.2;;;;-0.21241382;0.6794358;0.07836152;;;;;;;;;;;;;;;
2323.0;2267.2;;;;-0.21545795;0.679226;0.08166886;;;;;;;;;;;;;;;
2323.0;2267.2;;;;-0.2185593;0.67967993;0.08524705;;;;;;;;;;;;;;;
2323.0;2270.5;;;;;;;;;;-11.98996;14.835811;-1.2779626;;;;;;;;;
2323.0;2270.5;;;;;;;0.2677694;-1.007355;0.4166387;;;;;;;;;;;;
2323.0;2270.5;;;;;;;;;;-10.723441;15.926847;-1.9188513;;;;;;;;;
2323.0;2270.5;;;;;;;0.26764733;-1.0219429;0.41407514;;;;;;;;;;;;
2323.0;2277.3;;;;-0.22173694;0.68041235;0.089134224;;;;;;;;;;;;;;;
2323.0;2277.3;;;;-0.22470096;0.68196875;0.092788704;;;;;;;;;;;;;;;
2323.0;2277.3;;;;-0.22790149;0.684002;0.09686662;;;;;;;;;;;;;;;
2323.0;2277.3;;;;-0.23021701;0.68687063;0.09975816;;;;;;;;;;;;;;;
2323.0;2277.3;;;;-0.2326012;0.69027716;0.102642074;;;;;;;;;;;;;;;
2325.0;2279.1;;;;;;;;;;;;;;;;;-3.707999;12.020478;-7.2252574;;2111.5
2325.0;2279.1;;;;;;;;;;;;;;0.6835536;-0.07757805;-0.19684438;;;;;2111.5
2325.0;2279.1;;;;;;;;;;;;;;;;;-0.74007386;14.400922;-8.049257;;2111.5
2325.0;2279.1;;;;;;;;;;;;;;0.68910795;-0.0590228;-0.17340617;;;;;2111.5
2325.0;2279.1;;;;;;;;;;;;;;;;;8.121738;10.406812;-8.6405525;;2121.1
2325.0;2279.1;;;;;;;;;;;;;;0.6944792;-0.04181036;-0.21222572;;;;;2121.1
2325.0;2279.1;;;;;;;;;;;;;;;;;17.605364;3.604999;-9.4073305;;2121.1
2325.0;2279.1;;;;;;;;;;;;;;0.6822718;-0.020142216;-0.27991578;;;;;2121.1
2325.0;2279.1;;;;;;;;;;;;;;;;;23.178808;-1.9150364;-9.300516;;2130.8
2325.0;2279.1;;;;;;;;;;;;;;0.6773278;0.013855403;-0.29700613;;;;;2130.8
2325.0;2279.1;;;;;;;;;;;;;;;;;22.076328;0.22125919;-8.602405;;2130.8
2325.0;2279.1;;;;;;;;;;;;;;0.67824334;0.056398205;-0.21192053;;;;;2130.8
2325.0;2280.0;;;;;;;;;;;;;;;;;19.550919;2.4529252;-8.114109;;2140.5
2325.0;2280.0;;;;;;;;;;;;;;0.63399154;0.076662496;-0.16034424;;;;;2140.5
2325.0;2280.0;;;;;;;;;;;;;;;;;22.289955;-3.566851;-8.262887;;2140.5
2325.0;2280.0;;;;;;;;;;;;;;0.6289865;0.07391583;-0.23993652;;;;;2140.5
2325.0;2280.0;;;;;;;;;;;;;;;;;24.498734;-2.5368512;-8.964812;;2150.1
2325.0;2280.0;;;;;;;;;;;;;;0.6686605;0.05322428;-0.20545061;;;;;2150.1
2325.0;2280.0;;;;;;;;;;;;;;;;;21.290476;6.614887;-9.895626;;2150.1
2325.0;2280.0;;;;;;;;;;;;;;0.6900845;0.016296884;-0.012268441;;;;;2150.1
2325.0;2280.0;;;;;;;;;;;;;;;;;23.075808;6.286813;-10.784478;;2159.8
2325.0;2280.0;;;;;;;;;;;;;;0.6692099;-0.0023804437;0.017334513;;;;;2159.8
2325.0;2280.0;;;;;;;;;;;;;;;;;31.548508;-8.194221;-10.708182;;2159.8
2325.0;2280.0;;;;;;;;;;;;;;0.7223731;-0.0042725913;-0.27326274;;;;;2159.8
2326.0;2279.9;;;;;;;;;;-9.498886;16.861477;-2.7008882;;;;;;;;;
2326.0;2279.9;;;;;;;0.2682577;-1.035554;0.4090701;;;;;;;;;;;;
2326.0;2279.9;;;;;;;;;;-8.30485;17.418438;-3.6393323;;;;;;;;;
2326.0;2279.9;;;;;;;0.2616657;-1.0444654;0.4026612;;;;;;;;;;;;
2326.0;2281.1;;;;;;;;;;;;;;;;;30.659657;-11.14307;-10.086368;;2169.3
