patientId;holterMac;flexMac;;;;;;;;;;;;;;;;;;;;
;CA:F3:0B:1E:33:78;D3:4A:5C:52:80:78;;;;;;;;;;;;;;;;;;;;
receivedTimeStamp;timeStamp;red;ir;green;adxl_accX;adxl_accY;adxl_accZ;lsm_accelX;lsm_accelY;lsm_accelZ;lsm_gyroX;lsm_gyroY;lsm_gyroZ;ecg;flex_lsm_accelX;flex_lsm_accelY;flex_lsm_accelZ;flex_lsm_gyroX;flex_lsm_gyroY;flex_lsm_gyroZ;flex_cmd;flexTimeStamp
270.0;216.1;;;;;;;;;;;;;;;;;;;;17;0.1
270.0;216.1;;;;;;;;;;;;;;;;;8.980071;1.5488143;-4.0475173;;127.5
270.0;216.1;;;;;;;;;;;;;;0.8451796;-0.09302042;0.18774988;;;;;127.5
270.0;216.1;;;;;;;;;;;;;;;;;-34.855953;-39.201023;-33.295696;;127.5
270.0;216.1;;;;;;;;;;;;;;0.91683704;-0.09625538;0.19006927;;;;;127.5
270.0;216.1;;;;;;;;;;;;;;;;;-121.8337;-121.77648;-107.29163;;137.1
270.0;216.1;;;;;;;;;;;;;;0.95364237;-0.09039582;0.19104587;;;;;137.1
270.0;216.1;;;;;;;;;;;;;;;;;-124.26374;-124.988556;-110.164185;;137.1
270.0;216.1;;;;;;;;;;;;;;0.98892176;-0.090823084;0.18951994;;;;;137.1
332.0;216.9;;;;;;;;;;;;;;;;;-15.575884;-118.14097;-63.009277;;146.7
332.0;216.9;;;;;;;;;;;;;;1.0183417;-0.08349864;0.18463698;;;;;146.7
332.0;216.9;;;;;;;;;;;;;;;;;81.00375;-47.013763;-25.643177;;146.7
332.0;216.9;;;;;;;;;;;;;;1.0497147;-0.06884976;0.19214454;;;;;146.7
332.0;216.9;;;;;;;;;;;;;;;;;82.731865;-21.675772;-25.776695;;156.4
332.0;216.9;;;;;;;;;;;;;;1.0893887;-0.04364147;0.18518631;;;;;156.4
332.0;216.9;;;;;;;;;;;;;;;;;86.25675;-20.168919;-30.137028;;156.4
332.0;216.9;;;;;;;;;;;;;;1.126194;0.01678518;0.17017122;;;;;156.4
332.0;216.9;;;;;;;;;;;;;;;;;89.2323;-19.062624;-35.584583;;165.9
332.0;216.9;;;;;;;;;;;;;;1.147557;0.07000946;0.16144292;;;;;165.9
332.0;216.9;;;;;;;;;;;;;;;;;91.5746;-18.02118;-38.769955;;165.9
332.0;216.9;;;;;;;;;;;;;;1.1842402;0.11694693;0.15478988;;;;;165.9
332.0;275.8;;;;;;;;;;;;;;;;;93.85967;-18.208105;-40.208134;;175.6
332.0;275.8;;;;;;;;;;;;;;1.2231818;0.14911343;0.13751641;;;;;175.6
332.0;275.8;;;;;;;;;;;;;;;;;95.03464;-19.184698;-41.467026;;175.6
332.0;275.8;;;;;;;;;;;;;;1.2437513;0.21051668;0.1126133;;;;;175.6
332.0;275.8;;;;;;;;;;;;;;;;;92.192604;-17.376476;-42.7221;;185.2
332.0;275.8;;;;;;;;;;;;;;1.1642811;0.26789147;0.106387526;;;;;185.2
332.0;275.8;;;;;;;;;;;;;;;;;88.34346;-17.300179;-44.183174;;185.2
332.0;275.8;;;;;;;;;;;;;;1.1099582;0.29932556;0.086916715;;;;;185.2
332.0;275.8;;;;;;;;;;;;;;;;;85.14283;-17.605364;-46.227913;;194.8
332.0;275.8;;;;;;;;;;;;;;1.0901212;0.3251442;0.08636738;;;;;194.8
332.0;275.8;;;;;;;;;;;;;;;;;79.06964;-17.414623;-48.314617;;194.8
332.0;275.8;;;;;;;;;;;;;;1.0563676;0.34076968;0.096804716;;;;;194.8
513.0;276.6;;;;;;;;;;;;;;;;;72.88202;-18.417921;-50.763725;;204.5
513.0;276.6;;;;;;;;;;;;;;1.0170598;0.35554063;0.096499525;;;;;204.5
513.0;276.6;;;;;;;;;;;;;;;;;66.09928;-20.390179;-53.96054;;204.5
513.0;276.6;;;;;;;;;;;;;;1.0000916;0.37067783;0.09466842;;;;;204.5
513.0;276.6;;;;;;;;;;;;;;;;;59.03043;-22.503586;-56.073944;;214.2
513.0;276.6;;;;;;;;;;;;;;0.9987487;0.37025055;0.09625538;;;;;214.2
513.0;276.6;;;;;;;;;;;;;;;;;52.0188;-24.742882;-57.370983;;214.2
513.0;276.6;;;;;;;;;;;;;;1.0155339;0.38172552;0.0971099;;;;;214.2
513.0;276.6;;;;;;;;;;;;;;;;;43.820766;-25.708029;-58.0958;;223.9
513.0;276.6;;;;;;;;;;;;;;1.0209662;0.37818536;0.09533983;;;;;223.9
513.0;276.6;;;;;;;;;;;;;;;;;35.035248;-26.551104;-57.260353;;223.9
513.0;276.6;;;;;;;;;;;;;;1.0292062;0.36976227;0.090578936;;;;;223.9
513.0;335.8;;;;;;;;;;;;;;;;;27.310251;-26.631214;-56.1655;;233.4
513.0;335.8;;;;;;;;;;;;;;1.0332347;0.35743278;0.09698782;;;;;233.4
513.0;335.8;;;;;;;;;;;;;;;;;19.371624;-25.227362;-54.89517;;233.4
513.0;335.8;;;;;;;;;;;;;;1.0407422;0.34504226;0.10852382;;;;;233.4
513.0;335.8;;;;;;;;;;;;;;;;;11.822107;-23.709066;-53.08695;;243.0
513.0;335.8;;;;;;;;;;;;;;1.0281686;0.344615;0.13959166;;;;;243.0
513.0;335.8;;;;;;;;;;;;;;;;;4.8295546;-23.533587;-50.527206;;243.0
513.0;335.8;;;;;;;;;;;;;;1.0003357;0.34186834;0.14758751;;;;;243.0
513.0;335.8;;;;;;;;;;;;;;;;;-3.2425916;-22.263252;-48.56258;;252.7
513.0;335.8;;;;;;;;;;;;;;0.9792169;0.3170263;0.16797388;;;;;252.7
513.0;335.8;;;;;;;;;;;;;;;;;-9.63622;-22.450178;-47.364727;;252.7
513.0;335.8;;;;;;;;;;;;;;1.004181;0.29267251;0.17926572;;;;;252.7
514.0;336.6;;;;;;;;;;;;;;;;;-14.999847;-19.74166;-45.548874;;262.4
514.0;336.6;;;;;;;;;;;;;;1.0133976;0.25891903;0.20911282;;;;;262.4
514.0;336.6;;;;;;;;;;;;;;;;;-20.60381;-15.591144;-44.434948;;262.4
514.0;336.6;;;;;;;;;;;;;;1.0176092;0.24347667;0.2197943;;;;;262.4
514.0;336.6;;;;;;;;;;;;;;;;;-25.79577;-11.200293;-41.821804;;272.0
514.0;336.6;;;;;;;;;;;;;;1.0093691;0.21985534;0.22382274;;;;;272.0
514.0;336.6;;;;;;;;;;;;;;;;;-29.465622;-7.1108127;-39.235355;;272.0
514.0;336.6;;;;;;;;;;;;;;0.98965424;0.18524735;0.22070986;;;;;272.0
514.0;336.6;;;;;;;;;;;;;;;;;-30.617695;-3.3761103;-37.923065;;281.7
514.0;336.6;;;;;;;;;;;;;;0.9613941;0.17566454;0.2238838;;;;;281.7
514.0;336.6;;;;;;;;;;;;;;;;;-28.935362;-1.8921475;-34.91699;;281.7
514.0;336.6;;;;;;;;;;;;;;0.9510178;0.16730247;0.20978424;;;;;281.7
514.0;396.2;;;;;;;;;;;;;;;;;-26.604511;-1.2627033;-31.62099;;291.3
514.0;396.2;;;;;;;;;;;;;;0.9362468;0.15100558;0.20569475;;;;;291.3
514.0;396.2;;;;;;;;;;;;;;;;;-23.281807;-0.5417035;-28.721733;;291.3
514.0;396.2;;;;;;;;;;;;;;0.91976684;0.12396619;0.20001832;;;;;291.3
514.0;396.2;;;;;;;;;;;;;;;;;-19.886623;0.20599994;-26.81051;;301.0
514.0;396.2;;;;;;;;;;;;;;0.92318493;0.115848266;0.20172735;;;;;301.0
514.0;396.2;;;;;;;;;;;;;;;;;-16.563921;0.3089999;-24.010437;;301.0
514.0;396.2;;;;;;;;;;;;;;0.91286963;0.11859493;0.19550157;;;;;301.0
514.0;396.2;;;;;;;;;;;;;;;;;-12.9703665;0.25940734;-21.50029;;310.6
514.0;396.2;;;;;;;;;;;;;;0.9083529;0.117313154;0.19379254;;;;;310.6
514.0;396.2;;;;;;;;;;;;;;;;;-9.224219;0.12207404;-19.882809;;310.6
514.0;396.2;;;;;;;;;;;;;;0.9180578;0.120975375;0.19214454;;;;;310.6
516.0;397.0;;;;;;;;;;;;;;;;;-4.589221;0.48066652;-18.833736;;320.2
516.0;397.0;;;;;;;;;;;;;;0.92947173;0.12567522;0.19122899;;;;;320.2
516.0;397.0;;;;;;;;;;;;;;;;;0.44251838;1.3084811;-17.582476;;320.2
516.0;397.0;;;;;;;;;;;;;;0.9223304;0.1353801;0.1897641;;;;;320.2
516.0;397.0;;;;;;;;;;;;;;;;;5.115665;2.0638144;-16.819515;;329.9
516.0;397.0;;;;;;;;;;;;;;0.9142735;0.13782158;0.17627491;;;;;329.9
516.0;397.0;;;;;;;;;;;;;;;;;9.269998;2.9412215;-16.155737;;329.9
516.0;397.0;;;;;;;;;;;;;;0.9022492;0.15228736;0.16650899;;;;;329.9
516.0;397.0;;;;;;;;;;;;;;;;;joulu.67;2.601703;-16.006958;;339.5
516.0;397.0;;;;;;;;;;;;;;0.8929716;0.16840114;0.15588854;;;;;339.5
516.0;397.0;;;;;;;;;;;;;;;;;14.904477;1.3084811;-15.701773;;339.5
516.0;397.0;;;;;;;;;;;;;;0.90426344;0.18817712;0.14038515;;;;;339.5
516.0;456.7;;;;;;;;;;;;;;;;;16.716515;0.011444441;-15.614033;;349.2
516.0;456.7;;;;;;;;;;;;;;0.9104892;0.21198156;0.12561418;;;;;349.2
516.0;456.7;;;;;;;;;;;;;;;;;17.765587;-1.3542589;-15.549181;;349.2
516.0;456.7;;;;;;;;;;;;;;0.9297159;0.23377179;0.11011078;;;;;349.2
516.0;456.7;;;;;;;;;;;;;;;;;18.09366;-1.9989624;-15.25544;;358.8
516.0;456.7;;;;;;;;;;;;;;0.9449141;0.25135043;0.101931825;;;;;358.8
516.0;456.7;;;;;;;;;;;;;;;;;18.372143;-2.4796288;-15.297402;;358.8
516.0;456.7;;;;;;;;;;;;;;0.94979703;0.26880702;0.09033479;;;;;358.8
516.0;456.7;;;;;;;;;;;;;;;;;17.90292;-2.2888882;-15.263069;;368.4
516.0;456.7;;;;;;;;;;;;;;0.941496;0.2847377;0.1163976;;;;;368.4
516.0;456.7;;;;;;;;;;;;;;;;;28.107548;-46.19739;1.0910367;;368.4
516.0;456.7;;;;;;;;;;;;;;0.47358623;0.04113895;0.43092135;;;;;368.4
573.0;457.5;;;;;;;;;;;;;;;;;57.538834;-122.54707;60.79287;;378.0
573.0;457.5;;;;;;;;;;;;;;1.1624501;0.2461623;-0.4128544;;;;;378.0
573.0;457.5;;;;;;;;;;;;;;;;;55.39491;-124.88556;41.184727;;378.0
573.0;457.5;;;;;;;;;;;;;;0.7813349;0.31769767;0.37653738;;;;;378.0
573.0;457.5;;;;;;;;;;;;;;;;;73.41991;-124.74441;-0.50737023;;387.6
573.0;457.5;;;;;;;;;;;;;;0.8249763;0.2882168;0.30378124;;;;;387.6
573.0;457.5;;;;;;;;;;;;;;;;;41.634876;-120.55574;-15.385143;;387.6
573.0;457.5;;;;;;;;;;;;;;1.205237;0.3342387;-0.35358745;;;;;387.6
573.0;457.5;;;;;;;;;;;;;;;;;28.653065;-73.500015;-13.401441;;397.2
573.0;457.5;;;;;;;;;;;;;;1.1105685;0.18243966;-0.34778893;;;;;397.2
573.0;457.5;;;;;;;;;;;;;;;;;33.459732;-25.551622;-14.110995;;397.2
573.0;457.5;;;;;;;;;;;;;;0.94949186;0.22986542;-0.058046207;;;;;397.2
573.0;516.8;;;;;;;;;;;;;;;;;33.200325;-9.857478;-15.621662;;406.9
573.0;516.8;;;;;;;;;;;;;;1.0119327;0.25580615;-0.056154057;;;;;406.9
573.0;516.8;;;;;;;;;;;;;;;;;38.651695;20.588549;-12.909329;;406.9
573.0;516.8;;;;;;;;;;;;;;1.2555314;0.28382215;-0.36787012;;;;;406.9
573.0;516.8;;;;;;;;;;;;;;;;;59.453873;88.48079;0.82399976;;416.5
573.0;516.8;;;;;;;;;;;;;;0.99380475;0.09277627;-0.060121465;;;;;416.5
573.0;516.8;;;;;;;;;;;;;;;;;67.89605;71.905426;1.2169256;;416.5
573.0;516.8;;;;;;;;;;;;;;0.6153752;0.2964568;0.42170477;;;;;416.5
573.0;516.8;;;;;;;;;;;;;;;;;21.09592;18.017365;-1.7052218;;426.2
573.0;516.8;;;;;;;;;;;;;;0.9967345;0.19306009;-0.05713065;;;;;426.2
573.0;516.8;;;;;;;;;;;;;;;;;5.7222204;36.107212;-1.7319254;;426.2
573.0;516.8;;;;;;;;;;;;;;0.9729301;0.16986603;0.0080568865;;;;;426.2
695.0;518.0;;;;;;;;;;;;;;;;;0.71337014;45.312355;-1.9112216;;435.7
695.0;518.0;;;;;;;;;;;;;;0.97811824;0.21692556;-0.021240883;;;;;435.7
695.0;518.0;;;;;;;;;;;;;;;;;-3.1929991;53.91095;2.1095922;;435.7
695.0;518.0;;;;;;;;;;;;;;0.96194345;0.18585773;-0.00573748;;;;;435.7
695.0;518.0;;;;;;;;;;;;;;;;;-7.9844055;57.85928;1.2932218;;445.4
695.0;518.0;;;;;;;;;;;;;;0.9218421;0.14471877;0.059694204;;;;;445.4
695.0;518.0;;;;;;;;;;;;;;;;;-8.251442;51.728874;-0.24414808;;445.4
695.0;518.0;;;;;;;;;;;;;;0.93234044;0.1617481;0.11609241;;;;;445.4
695.0;518.0;;;;;;;;;;;;;;;;;-13.584552;46.796318;-1.0681478;;455.0
695.0;518.0;;;;;;;;;;;;;;0.9495529;0.13953063;0.07605213;;;;;455.0
695.0;518.0;;;;;;;;;;;;;;;;;-18.593403;45.10254;-0.8316294;;455.0
695.0;518.0;;;;;;;;;;;;;;0.9455855;0.17798395;0.13214515;;;;;455.0
695.0;531.8;;;;;;;;;;;;;;;;;-40.105137;48.13532;-3.9063692;;464.7
695.0;531.8;;;;;;;;;;;;;;0.9418012;0.16071047;0.08899198;;;;;464.7
695.0;531.8;;;;;;;;;;;;;;;;;-51.00406;54.792168;-6.004517;;464.7
695.0;531.8;;;;;;;;;;;;;;0.9259316;0.10199286;0.126957;;;;;464.7
695.0;531.8;;;;;;;;;;;;;;;;;-43.919952;52.880947;-3.8262582;;474.3
695.0;531.8;;;;;;;;;;;;;;0.8966338;-0.06439406;0.041322064;;;;;474.3
695.0;531.8;;;;;;;;;;;;;;;;;5.7222204;29.469437;-5.9739985;;474.3
695.0;531.8;;;;;;;;;;;;;;0.96426284;0.082888275;-0.0081179235;;;;;474.3
695.0;531.8;;;;;;;;;;;;;;;;;48.33369;10.399182;-6.8475904;;483.8
695.0;531.8;;;;;;;;;;;;;;0.97256386;0.09820856;-0.067873165;;;;;483.8
695.0;531.8;;;;;;;;;;;;;;;;;55.829796;12.020478;-9.323405;;483.8
695.0;531.8;;;;;;;;;;;;;;0.98751795;0.11456648;0.040223397;;;;;483.8
698.0;576.9;;;;;;;;;;;;;;;;;45.922726;19.207588;-10.5822935;;493.3
698.0;576.9;;;;;;;;;;;;;;0.9524827;0.11859493;0.20471816;;;;;493.3
698.0;576.9;;;;;;;;;;;;;;;;;36.194954;16.392256;-10.265663;;493.3
698.0;576.9;;;;;;;;;;;;;;0.9488205;0.09271523;0.1535081;;;;;493.3
698.0;576.9;;;;;;;;;;;;;;;;;33.223213;13.939329;-9.3577385;;502.8
698.0;576.9;;;;;;;;;;;;;;0.9989318;0.090456866;0.053163245;;;;;502.8
698.0;576.9;;;;;;;;;;;;;;;;;37.312695;14.866329;-7.866146;;502.8
698.0;576.9;;;;;;;;;;;;;;1.0116886;0.12012085;0.022766808;;;;;502.8
698.0;576.9;;;;;;;;;;;;;;;;;44.41206;14.416181;-6.061739;;512.5
698.0;576.9;;;;;;;;;;;;;;1.0080264;0.123538926;0.022156438;;;;;512.5
698.0;576.9;;;;;;;;;;;;;;;;;47.79199;13.954588;-5.4246655;;512.5
698.0;576.9;;;;;;;;;;;;;;0.98818934;0.13177893;0.037781917;;;;;512.5
698.0;592.0;;;;;;;;;;;;;;;;;48.77621;13.611256;-5.264443;;522.1
698.0;592.0;;;;;;;;;;;;;;0.9941099;0.13409834;0.04174932;;;;;522.1
698.0;592.0;;;;;;;;;;;;;;;;;49.59639;14.057589;-5.245369;;522.1
698.0;592.0;;;;;;;;;;;;;;0.99130225;0.15173803;0.03686636;;;;;522.1
698.0;592.0;;;;;;;;;;;;;;;;;50.218204;15.549181;-4.8829613;;531.8
698.0;592.0;;;;;;;;;;;;;;0.98373365;0.16064943;0.02557451;;;;;531.8
698.0;592.0;;;;;;;;;;;;;;;;;50.187687;17.212439;-4.7189245;;531.8
698.0;592.0;;;;;;;;;;;;;;0.97323525;0.17145298;0.02026429;;;;;531.8
698.0;592.0;;;;;;;;;;;;;;;;;49.134804;18.276772;-4.4557023;;541.4
698.0;592.0;;;;;;;;;;;;;;0.9609058;0.17084262;0.025330363;;;;;541.4
698.0;592.0;;;;;;;;;;;;;;;;;48.306988;18.459883;-4.0856657;;541.4
698.0;592.0;;;;;;;;;;;;;;0.9501022;0.16565447;0.023621326;;;;;541.4
755.0;637.6;;;;;;;;;;;;;;;;;48.95169;18.189032;-3.6164434;;550.9
755.0;637.6;;;;;;;;;;;;;;0.9505295;0.15948974;0.016418958;;;;;550.9
755.0;637.6;;;;;;;;;;;;;;;;;51.557205;17.780846;-2.55974;;550.9
755.0;637.6;;;;;;;;;;;;;;0.95309305;0.15710929;0.0076296274;;;;;550.9
755.0;637.6;;;;;;;;;;;;;;;;;54.105503;18.642994;-1.6136662;;560.5
755.0;637.6;;;;;;;;;;;;;;0.95162815;0.15869625;0.016052736;;;;;560.5
755.0;637.6;;;;;;;;;;;;;;;;;56.447796;19.669178;-0.8049257;;560.5
755.0;637.6;;;;;;;;;;;;;;0.94698936;0.16516617;0.02844325;;;;;560.5
755.0;637.6;;;;;;;;;;;;;;;;;58.557392;20.596178;-0.16022217;;570.1
755.0;637.6;;;;;;;;;;;;;;0.9504685;0.17639698;0.0336314;;;;;570.1
755.0;637.6;;;;;;;;;;;;;;;;;59.77432;22.423473;0.21362957;;570.1
755.0;637.6;;;;;;;;;;;;;;0.9427168;0.18720053;0.06732383;;;;;570.1
755.0;652.2;;;;;;;;;;;;;;;;;60.62502;22.144993;0.42725915;;579.8
755.0;652.2;;;;;;;;;;;;;;0.94589067;0.18866542;0.087466046;;;;;579.8
755.0;652.2;;;;;;;;;;;;;;;;;62.67739;21.885588;0.8087405;;579.8
755.0;652.2;;;;;;;;;;;;;;0.957976;0.20062868;0.07159642;;;;;579.8
755.0;652.2;;;;;;;;;;;;;;;;;64.02783;24.16303;1.064333;;589.4
755.0;652.2;;;;;;;;;;;;;;0.96694845;0.21845149;0.07751702;;;;;589.4
755.0;652.2;;;;;;;;;;;;;;;;;64.3788;25.89114;1.8883327;;589.4
755.0;652.2;;;;;;;;;;;;;;0.9681692;0.22730187;0.08856472;;;;;589.4
755.0;652.2;;;;;;;;;;;;;;;;;61.998352;28.504288;1.678518;;599.1
755.0;652.2;;;;;;;;;;;;;;0.9670095;0.24481948;0.09778131;;;;;599.1
755.0;652.2;;;;;;;;;;;;;;;;;60.46098;30.037842;2.254555;;599.1
755.0;652.2;;;;;;;;;;;;;;0.9717094;0.26410717;0.0783105;;;;;599.1
815.0;697.4;;;;;;;;;;;;;;;;;58.320873;31.105991;2.639851;;608.4
815.0;697.4;;;;;;;;;;;;;;0.9642018;0.29303873;0.06439406;;;;;608.4
815.0;697.4;;;;;;;;;;;;;;;;;54.08643;33.349102;3.4066288;;608.4
815.0;697.4;;;;;;;;;;;;;;0.9388104;0.30262154;0.09033479;;;;;608.4
815.0;697.4;;;;;;;;;;;;;;;;;51.39317;32.444992;4.421369;;618.0
815.0;697.4;;;;;;;;;;;;;;0.9317301;0.31055635;0.068666644;;;;;618.0
815.0;697.4;;;;;;;;;;;;;;;;;48.25358;32.544178;4.7837768;;618.0
815.0;697.4;;;;;;;;;;;;;;0.9212928;0.3086642;0.06225776;;;;;618.0
815.0;697.4;;;;;;;;;;;;;;;;;46.16306;32.609028;4.8028507;;627.7
815.0;697.4;;;;;;;;;;;;;;0.9139073;0.30555132;0.056642354;;;;;627.7
815.0;697.4;;;;;;;;;;;;;;;;;46.063873;32.74636;4.997406;;627.7
815.0;697.4;;;;;;;;;;;;;;0.90755945;0.30787072;0.034302805;;;;;627.7
815.0;704.8;;;;;;;;;;;;;;;;;46.964172;34.5851;5.760369;;637.4
815.0;704.8;;;;;;;;;;;;;;0.90462965;0.3048799;0.045228433;;;;;637.4
815.0;704.8;;;;;;;;;;;;;;;;;47.65465;36.023285;6.2715535;;637.4
815.0;704.8;;;;;;;;;;;;;;0.8868679;0.29883724;0.06408887;;;;;637.4
815.0;704.8;;;;;;;;;;;;;;;;;49.329357;36.18732;6.8819237;;647.0
815.0;704.8;;;;;;;;;;;;;;0.878811;0.27771842;0.062440872;;;;;647.0
815.0;704.8;;;;;;;;;;;;;;;;;53.567616;37.430954;8.308664;;647.0
815.0;704.8;;;;;;;;;;;;;;0.87228006;0.27497178;0.048890654;;;;;647.0
815.0;704.8;;;;;;;;;;;;;;;;;58.305614;39.029358;9.743034;;656.7
815.0;704.8;;;;;;;;;;;;;;0.87423325;0.2751549;0.0601825;;;;;656.7
815.0;704.8;;;;;;;;;;;;;;;;;62.261574;39.922024;11.421552;;656.7
815.0;704.8;;;;;;;;;;;;;;0.88070315;0.27906126;0.029358806;;;;;656.7
873.0;757.7;;;;;;;;;;;;;;;;;66.30147;42.794582;13.698996;;666.3
873.0;757.7;;;;;;;;;;;;;;0.88247323;0.2870571;0.018311106;;;;;666.3
873.0;757.7;;;;;;;;;;;;;;;;;70.421455;45.297096;15.55681;;666.3
873.0;757.7;;;;;;;;;;;;;;0.8896145;0.3035371;0.027161473;;;;;666.3
873.0;757.7;;;;;;;;;;;;;;;;;69.88738;43.481247;17.227697;;675.8
873.0;757.7;;;;;;;;;;;;;;0.8604389;0.29523605;0.09765923;;;;;675.8
873.0;757.7;;;;;;;;;;;;;;;;;66.58758;36.332287;15.388958;;675.8
873.0;757.7;;;;;;;;;;;;;;0.86666465;0.2993866;0.05920591;;;;;675.8
873.0;757.7;;;;;;;;;;;;;;;;;66.86987;31.346325;13.168737;;685.5
873.0;757.7;;;;;;;;;;;;;;0.863979;0.26575518;0.04998932;;;;;685.5
873.0;757.7;;;;;;;;;;;;;;;;;63.955353;25.246437;6.923887;;685.5
873.0;757.7;;;;;;;;;;;;;;0.87099826;0.30744347;0.010132145;;;;;685.5
873.0;765.5;;;;;;;;;;;;;;;;;59.644615;21.946625;3.9025545;;695.2
873.0;765.5;;;;;;;;;;;;;;0.9036531;0.32624286;-0.0076296274;;;;;695.2
873.0;765.5;;;;;;;;;;;;;;;;;56.421093;21.160772;2.887814;;695.2
873.0;765.5;;;;;;;;;;;;;;0.9206824;0.34473708;-0.0314951;;;;;695.2
873.0;765.5;;;;;;;;;;;;;;;;;54.273357;22.835474;2.0828884;;704.7
873.0;765.5;;;;;;;;;;;;;;0.9190344;0.35065767;-0.019775994;;;;;704.7
873.0;765.5;;;;;;;;;;;;;;;;;52.80084;22.061068;1.7548143;;704.7
873.0;765.5;;;;;;;;;;;;;;0.9238563;0.35932493;0.006103702;;;;;704.7
873.0;765.5;;;;;;;;;;;;;;;;;52.877132;17.265846;2.25074;;714.4
873.0;765.5;;;;;;;;;;;;;;0.90359205;0.37769708;9.765923E-4;;;;;714.4
873.0;765.5;;;;;;;;;;;;;;;;;53.567616;18.585773;2.4109623;;714.4
873.0;765.5;;;;;;;;;;;;;;0.9300821;0.3850215;-0.05206458;;;;;714.4
934.0;817.9;;;;;;;;;;;;;;;;;52.785576;23.976105;3.540147;;724.1
934.0;817.9;;;;;;;;;;;;;;0.92196417;0.3810541;-0.012268441;;;;;724.1
934.0;817.9;;;;;;;;;;;;;;;;;50.466167;23.575548;2.8611102;;724.1
934.0;817.9;;;;;;;;;;;;;;0.85836357;0.38666952;0.074221015;;;;;724.1
934.0;817.9;;;;;;;;;;;;;;;;;51.248207;16.624958;1.9722588;;733.8
934.0;817.9;;;;;;;;;;;;;;0.8641621;0.40070802;0.067751095;;;;;733.8
934.0;817.9;;;;;;;;;;;;;;;;;49.35606;12.161627;1.392407;;733.8
934.0;817.9;;;;;;;;;;;;;;0.9000519;0.41065708;0.06860561;;;;;733.8
934.0;817.9;;;;;;;;;;;;;;;;;46.36143;11.635181;0.43107393;;743.5
934.0;817.9;;;;;;;;;;;;;;0.9153722;0.4194464;0.062440872;;;;;743.5
934.0;817.9;;;;;;;;;;;;;;;;;45.785393;14.2407;1.1558886;;743.5
934.0;817.9;;;;;;;;;;;;;;0.9427778;0.41395307;0.031311993;;;;;743.5
934.0;825.3;;;;;;;;;;;;;;;;;44.17936;18.070772;1.289407;;753.1
934.0;825.3;;;;;;;;;;;;;;0.92788476;0.43269143;0.06939909;;;;;753.1
934.0;825.3;;;;;;;;;;;;;;;;;40.11658;17.845697;1.2436292;;753.1
934.0;825.3;;;;;;;;;;;;;;0.9403363;0.41840875;0.09289835;;;;;753.1
934.0;825.3;;;;;;;;;;;;;;;;;37.27836;16.865292;0.63325906;;762.8
934.0;825.3;;;;;;;;;;;;;;0.93990904;0.4321421;0.093142495;;;;;762.8
934.0;825.3;;;;;;;;;;;;;;;;;33.10877;17.212439;0.12970367;;762.8
934.0;825.3;;;;;;;;;;;;;;0.9408246;0.43018892;0.09765923;;;;;762.8
934.0;825.3;;;;;;;;;;;;;;;;;27.134771;19.070253;-0.3318888;;772.4
934.0;825.3;;;;;;;;;;;;;;0.9657887;0.4443495;0.05590991;;;;;772.4
934.0;825.3;;;;;;;;;;;;;;;;;19.013033;27.546768;1.4839625;;772.4
934.0;825.3;;;;;;;;;;;;;;0.9792169;0.4191412;0.0634785;;;;;772.4
995.0;878.0;;;;;;;;;;;;;;;;;11.051516;36.221657;2.887814;;782.1
995.0;878.0;;;;;;;;;;;;;;0.9731742;0.32697532;0.049867246;;;;;782.1
995.0;878.0;;;;;;;;;;;;;;;;;14.797663;41.158024;1.5907773;;782.1
995.0;878.0;;;;;;;;;;;;;;0.8794824;0.3449202;0.114200264;;;;;782.1
995.0;878.0;;;;;;;;;;;;;;;;;15.831476;30.293434;0.8964812;;791.7
995.0;878.0;;;;;;;;;;;;;;0.89437544;0.34998626;0.10364086;;;;;791.7
995.0;878.0;;;;;;;;;;;;;;;;;7.221442;21.427809;0.14877774;;791.7
995.0;878.0;;;;;;;;;;;;;;0.90481275;0.3173925;0.15442365;;;;;791.7
995.0;878.0;;;;;;;;;;;;;;;;;-0.24414808;16.392256;-0.77822196;;801.3
995.0;878.0;;;;;;;;;;;;;;0.8979156;0.27369;0.14563432;;;;;801.3
995.0;878.0;;;;;;;;;;;;;;;;;-3.051851;12.226479;-0.7820368;;801.3
995.0;878.0;;;;;;;;;;;;;;0.9009674;0.25647756;0.14795373;;;;;801.3
995.0;885.9;;;;;;;;;;;;;;;;;-4.036073;8.655812;-0.14496292;;811.0
995.0;885.9;;;;;;;;;;;;;;0.9263588;0.22315134;0.1262856;;;;;811.0
995.0;885.9;;;;;;;;;;;;;;;;;1.0185553;7.4045534;0.49211097;;811.0
995.0;885.9;;;;;;;;;;;;;;0.9208655;0.2318186;0.124881744;;;;;811.0
995.0;885.9;;;;;;;;;;;;;;;;;4.9172945;6.0731835;1.7204809;;820.7
995.0;885.9;;;;;;;;;;;;;;0.91848505;0.20209357;0.12665181;;;;;820.7
995.0;885.9;;;;;;;;;;;;;;;;;10.589923;4.50911;2.8916287;;820.7
995.0;885.9;;;;;;;;;;;;;;0.89785457;0.2229072;0.14893033;;;;;820.7
995.0;885.9;;;;;;;;;;;;;;;;;14.511552;2.639851;4.039888;;830.3
995.0;885.9;;;;;;;;;;;;;;0.9013947;0.21063875;0.16296884;;;;;830.3
995.0;885.9;;;;;;;;;;;;;;;;;15.915403;1.0986663;4.8333693;;830.3
995.0;885.9;;;;;;;;;;;;;;0.8905301;0.21594897;0.17731254;;;;;830.3
1055.0;938.3;;;;;;;;;;;;;;;;;16.567736;-0.21744438;5.855739;;840.0
1055.0;938.3;;;;;;;;;;;;;;0.8818629;0.21448408;0.16956083;;;;;840.0
1055.0;938.3;;;;;;;;;;;;;;;;;17.941069;-1.7738883;6.7102575;;840.0
1055.0;938.3;;;;;;;;;;;;;;0.87777334;0.23664053;0.16241951;;;;;840.0
1055.0;938.3;;;;;;;;;;;;;;;;;18.562883;-3.151036;7.797479;;849.6
1055.0;938.3;;;;;;;;;;;;;;0.88265634;0.23584704;0.15887935;;;;;849.6
1055.0;938.3;;;;;;;;;;;;;;;;;19.802696;-3.5821102;8.48033;;849.6
1055.0;938.3;;;;;;;;;;;;;;0.877224;0.23474838;0.14801477;;;;;849.6
1055.0;938.3;;;;;;;;;;;;;;;;;21.114994;-4.570147;9.460738;;859.3
1055.0;938.3;;;;;;;;;;;;;;0.8756981;0.25141147;0.14966278;;;;;859.3
1055.0;938.3;;;;;;;;;;;;;;;;;21.923735;-5.539109;10.319071;;859.3
1055.0;938.3;;;;;;;;;;;;;;0.87496567;0.26239815;0.14996795;;;;;859.3
1055.0;939.1;;;;;;;;;;;;;;;;;22.953733;-5.878628;11.215552;;869.0
1055.0;939.1;;;;;;;;;;;;;;0.87728506;0.29114658;0.143437;;;;;869.0
1055.0;939.1;;;;;;;;;;;;;;;;;22.892696;-6.0197763;11.970885;;869.0
1055.0;939.1;;;;;;;;;;;;;;0.8680074;0.291818;0.1259804;;;;;869.0
1055.0;939.1;;;;;;;;;;;;;;;;;22.690512;-7.0078125;12.630848;;878.7
1055.0;939.1;;;;;;;;;;;;;;0.87240213;0.291818;0.116641745;;;;;878.7
1055.0;939.1;;;;;;;;;;;;;;;;;23.358105;-7.8089237;13.546404;;878.7
1055.0;939.1;;;;;;;;;;;;;;0.87459946;0.31678212;0.09906308;;;;;878.7
1055.0;939.1;;;;;;;;;;;;;;;;;24.08292;-8.18659;14.305552;;888.3
1055.0;939.1;;;;;;;;;;;;;;0.88033694;0.3284402;0.09845271;;;;;888.3
1055.0;939.1;;;;;;;;;;;;;;;;;22.663807;-8.823664;15.217292;;888.3
1055.0;939.1;;;;;;;;;;;;;;0.8694113;0.32886747;0.11255226;;;;;888.3
1114.0;998.7;;;;;;;;;;;;;;;;;21.351513;-10.731071;15.923033;;897.9
1114.0;998.7;;;;;;;;;;;;;;0.8756981;0.33680227;0.09985656;;;;;897.9
1114.0;998.7;;;;;;;;;;;;;;;;;20.500809;-11.402478;16.430403;;897.9
1114.0;998.7;;;;;;;;;;;;;;0.88265634;0.35767692;0.089602344;;;;;897.9
1114.0;998.7;;;;;;;;;;;;;;;;;18.31492;-11.383404;17.254402;;907.4
1114.0;998.7;;;;;;;;;;;;;;0.86983854;0.34669027;0.08905301;;;;;907.4
1114.0;998.7;;;;;;;;;;;;;;;;;16.647848;-11.917479;17.571032;;907.4
1114.0;998.7;;;;;;;;;;;;;;0.8661763;0.3501694;0.07763909;;;;;907.4
1114.0;998.7;;;;;;;;;;;;;;;;;15.270699;-12.031922;18.173773;;917.1
1114.0;998.7;;;;;;;;;;;;;;0.8564104;0.34797204;0.06799524;;;;;917.1
1114.0;998.7;;;;;;;;;;;;;;;;;13.721885;-12.676625;18.887142;;917.1
1114.0;998.7;;;;;;;;;;;;;;0.84701073;0.3602405;0.06555376;;;;;917.1
1114.0;999.5;;;;;;;;;;;;;;;;;12.123478;-13.336589;19.398329;;926.8
1114.0;999.5;;;;;;;;;;;;;;0.83657336;0.3449202;0.0684225;;;;;926.8
1114.0;999.5;;;;;;;;;;;;;;;;;11.154515;-14.156774;19.795067;;926.8
1114.0;999.5;;;;;;;;;;;;;;0.84194463;0.32673118;0.04589984;;;;;926.8
1114.0;999.5;;;;;;;;;;;;;;;;;11.925108;-13.050478;20.37492;;936.5
1114.0;999.5;;;;;;;;;;;;;;0.8245491;0.34339428;0.057008576;;;;;936.5
1114.0;999.5;;;;;;;;;;;;;;;;;12.287516;-12.573626;20.695364;;936.5
1114.0;999.5;;;;;;;;;;;;;;0.8311411;0.35254982;0.061891537;;;;;936.5
1114.0;999.5;;;;;;;;;;;;;;;;;11.902219;-12.4134035;21.18366;;946.0
1114.0;999.5;;;;;;;;;;;;;;0.8420667;0.3465682;0.07129124;;;;;946.0
1114.0;999.5;;;;;;;;;;;;;;;;;12.245552;-12.432477;21.790216;;946.0
1114.0;999.5;;;;;;;;;;;;;;0.860683;0.35139012;0.073549606;;;;;946.0
1172.0;1059.3;;;;;;;;;;;;;;;;;12.1807;-12.230293;22.659992;;955.7
1172.0;1059.3;;;;;;;;;;;;;;0.8885769;0.36384168;0.07678457;;;;;955.7
1172.0;1059.3;;;;;;;;;;;;;;;;;12.1807;-11.68096;23.464918;;955.7
1172.0;1059.3;;;;;;;;;;;;;;0.91329694;0.36432996;0.09155553;;;;;955.7
1172.0;1059.3;;;;;;;;;;;;;;;;;11.265144;-11.757256;24.06003;;965.3
1172.0;1059.3;;;;;;;;;;;;;;0.931608;0.36677146;0.1307413;;;;;965.3
1172.0;1059.3;;;;;;;;;;;;;;;;;8.518478;-12.142552;24.826807;;965.3
1172.0;1059.3;;;;;;;;;;;;;;0.9598071;0.34778893;0.15826899;;;;;965.3
1172.0;1059.3;;;;;;;;;;;;;;;;;5.0927763;-11.928923;25.917845;;974.8
1172.0;1059.3;;;;;;;;;;;;;;0.99429303;0.34034243;0.17023225;;;;;974.8
1172.0;1059.3;;;;;;;;;;;;;;;;;0.7858516;-11.623737;27.066103;;974.8
1172.0;1059.3;;;;;;;;;;;;;;1.0393994;0.32923368;0.16968292;;;;;974.8
1172.0;1060.1;;;;;;;;;;;;;;;;;-2.906888;-10.567034;27.954954;;984.5
1172.0;1060.1;;;;;;;;;;;;;;1.0914639;0.31794184;0.164861;;;;;984.5
1172.0;1060.1;;;;;;;;;;;;;;;;;-5.344554;-10.559404;28.504288;;984.5
1172.0;1060.1;;;;;;;;;;;;;;1.1368755;0.30036318;0.15814692;;;;;984.5
1172.0;1060.1;;;;;;;;;;;;;;;;;-6.9734793;-10.631886;28.794214;;994.1
1172.0;1060.1;;;;;;;;;;;;;;1.1831416;0.2796716;0.1431318;;;;;994.1
1172.0;1060.1;;;;;;;;;;;;;;;;;-7.683035;-9.170813;28.778955;;994.1
1172.0;1060.1;;;;;;;;;;;;;;1.2156743;0.26899013;0.113528855;;;;;994.1
1172.0;1060.1;;;;;;;;;;;;;;;;;-7.641072;-7.026887;28.305918;;1003.7
1172.0;1060.1;;;;;;;;;;;;;;1.223548;0.2573321;0.08807642;;;;;1003.7
1172.0;1060.1;;;;;;;;;;;;;;;;;-6.9086275;-5.893887;27.771843;;1003.7
1172.0;1060.1;;;;;;;;;;;;;;1.2220222;0.2535478;0.07397687;;;;;1003.7
1175.0;1119.3;;;;;;;;;;;;;;;;;-6.248665;-5.6764426;27.062288;;1013.3
1175.0;1119.3;;;;;;;;;;;;;;1.2292246;0.24604023;0.08587909;;;;;1013.3
1175.0;1119.3;;;;;;;;;;;;;;;;;-5.6840725;-5.8023314;26.474808;;1013.3
1175.0;1119.3;;;;;;;;;;;;;;1.2522355;0.23737296;0.11249123;;;;;1013.3
1175.0;1119.3;;;;;;;;;;;;;;;;;-4.947813;-5.6993318;26.291697;;1022.9
1175.0;1119.3;;;;;;;;;;;;;;1.2927641;0.22418897;0.13953063;;;;;1022.9
1175.0;1119.3;;;;;;;;;;;;;;;;;-3.99411;-4.3221836;25.631733;;1022.9
1175.0;1119.3;;;;;;;;;;;;;;1.340495;0.20838039;0.16333507;;;;;1022.9
1175.0;1119.3;;;;;;;;;;;;;;;;;-3.1281471;-1.7624439;24.449142;;1032.6
1175.0;1119.3;;;;;;;;;;;;;;1.3876156;0.19714957;0.17694631;;;;;1032.6
1175.0;1119.3;;;;;;;;;;;;;;;;;-3.2273324;0.45777765;22.568438;;1032.6
1175.0;1119.3;;;;;;;;;;;;;;1.408185;0.17481002;0.21423994;;;;;1032.6
1175.0;1120.1;;;;;;;;;;;;;;;;;-3.7614062;-1.4496292;19.474625;;1042.3
1175.0;1120.1;;;;;;;;;;;;;;1.3827326;0.15997803;0.23383282;;;;;1042.3
1175.0;1120.1;;;;;;;;;;;;;;;;;-3.8186285;1.7128513;15.598773;;1042.3
1175.0;1120.1;;;;;;;;;;;;;;1.3787652;0.14154485;0.19660024;;;;;1042.3
1175.0;1120.1;;;;;;;;;;;;;;;;;-3.9368877;2.76574;11.612293;;1051.8
1175.0;1120.1;;;;;;;;;;;;;;1.3010651;0.12439345;0.245674;;;;;1051.8
1175.0;1120.1;;;;;;;;;;;;;;;;;-2.7428513;1.7090366;7.3244424;;1051.8
1175.0;1120.1;;;;;;;;;;;;;;1.2720726;0.09985656;0.20831935;;;;;1051.8
1175.0;1120.1;;;;;;;;;;;;;;;;;0.74007386;2.2011476;3.1929991;;1061.5
1175.0;1120.1;;;;;;;;;;;;;;1.1796014;0.07629628;0.19855343;;;;;1061.5
1175.0;1120.1;;;;;;;;;;;;;;;;;4.974517;1.2627033;-0.37385175;;1061.5
1175.0;1120.1;;;;;;;;;;;;;;1.1227759;0.0474868;0.16418958;;;;;1061.5
1232.0;1128.5;;;;0.0;0.0;0.0;;;;;;;;;;;;;;;
1232.0;1128.5;;;;-0.12724687;0.38839346;0.09368897;;;;;;;;;;;;;;;
1232.0;1128.5;;;;-0.38680655;1.1074525;0.18485643;;;;;;;;;;;;;;;
1232.0;1128.5;;;;-0.39758307;1.1192781;0.1681328;;;;;;;;;;;;;;;
1232.0;1128.5;;;;-0.39754492;1.1098787;0.15956499;;;;;;;;;;;;;;;
1232.0;1138.5;;;;-0.39954;1.1008607;0.15161897;;;;;;;;;;;;;;;
1232.0;1138.5;;;;-0.40430838;1.092846;0.14571382;;;;;;;;;;;;;;;
1232.0;1138.5;;;;-0.40948492;1.084263;0.14370729;;;;;;;;;;;;;;;
1232.0;1138.5;;;;-0.41292197;1.0754663;0.14196779;;;;;;;;;;;;;;;
1232.0;1138.5;;;;-0.4130326;1.0677301;0.13925935;;;;;;;;;;;;;;;
1232.0;1139.8;57488;57501;11140;;;;;;;;;;;;;;;;;;
1232.0;1148.4;;;;-0.4112473;1.0593339;0.13311006;;;;;;;;;;;;;;;
1232.0;1148.4;;;;-0.407425;1.0510942;0.1300316;;;;;;;;;;;;;;;
1232.0;1148.4;;;;-0.40549093;1.0437165;0.1278763;;;;;;;;;;;;;;;
1232.0;1148.4;;;;-0.4009896;1.0371438;0.1280327;;;;;;;;;;;;;;;
1232.0;1148.4;;;;-0.39694983;1.0316621;0.1278763;;;;;;;;;;;;;;;
1233.0;1158.5;;;;-0.38956076;1.0267373;0.12828447;;;;;;;;;;;;;;;
1233.0;1158.5;;;;-0.37918097;1.022442;0.12666322;;;;;;;;;;;;;;;
1233.0;1158.5;;;;-0.36695865;1.0183755;0.12549211;;;;;;;;;;;;;;;
1233.0;1158.5;;;;-0.3515549;1.0154115;0.123661056;;;;;;;;;;;;;;;
1233.0;1158.5;;;;-0.33604053;1.0107652;0.11592485;;;;;;;;;;;;;;;
1233.0;1159.8;73927;73842;11113;;;;;;;;;;;;;;;;;;
1233.0;1166.0;;;;;;;;;;;;;0;;;;;;;;
1233.0;1166.0;;;;;;;;;;;;;0;;;;;;;;
1233.0;1166.0;;;;;;;;;;;;;-1;;;;;;;;
1233.0;1166.0;;;;;;;;;;;;;-3;;;;;;;;
1233.0;1166.0;;;;;;;;;;;;;-2;;;;;;;;
1233.0;1168.6;;;;-0.3227463;1.0050508;0.10832216;;;;;;;;;;;;;;;
1233.0;1168.6;;;;-0.31134036;0.9987718;0.100482956;;;;;;;;;;;;;;;
1233.0;1168.6;;;;-0.30458835;0.99229825;0.096153274;;;;;;;;;;;;;;;
1233.0;1168.6;;;;-0.3019562;0.98656476;0.093643196;;;;;;;;;;;;;;;
1233.0;1168.6;;;;-0.3016205;0.9797021;0.09278489;;;;;;;;;;;;;;;
1233.0;1178.7;;;;-0.30358508;0.97262967;0.087169655;;;;;;;;;;;;;;;
1233.0;1178.7;;;;-0.30573657;0.966961;0.07937241;;;;;;;;;;;;;;;
1233.0;1178.7;;;;-0.30422595;0.96219647;0.06592179;;;;;;;;;;;;;;;
1233.0;1178.7;;;;-0.29864123;0.95845807;0.05774308;;;;;;;;;;;;;;;
1233.0;1178.7;;;;-0.292141;0.95684826;0.045097355;;;;;;;;;;;;;;;
1234.0;1180.0;;;;;;;;;;;;;;;;;7.953887;1.8539995;-0.8697775;;1071.2
1234.0;1180.0;;;;;;;;;;;;;;0.7638783;0.18176824;-0.026062807;;;;;1071.2
1234.0;1180.0;;;;;;;;;;;;;;;;;2.8420362;32.567066;24.16303;;1071.2
1234.0;1180.0;;;;;;;;;;;;;;0.18756676;0.25879696;-0.30048525;;;;;1071.2
1234.0;1180.0;;;;;;;;;;;;;;;;;5.542924;97.1099;54.01013;;1080.8
1234.0;1180.0;;;;;;;;;;;;;;0.78957486;-0.03338725;0.14551225;;;;;1080.8
1234.0;1180.0;;;;;;;;;;;;;;;;;7.099368;112.36533;57.245094;;1080.8
1234.0;1180.0;;;;;;;;;;;;;;1.2125003;-0.10211493;0.16138189;;;;;1080.8
1234.0;1180.0;;;;;;;;;;;;;;;;;-5.058443;106.00986;65.94287;;1090.5
1234.0;1180.0;;;;;;;;;;;;;;0.9330729;-0.08374279;0.125309;;;;;1090.5
1234.0;1180.0;;;;;;;;;;;;;;;;;-5.6840725;102.717674;71.157715;;1090.5
1234.0;1180.0;;;;;;;;;;;;;;0.89419234;-0.18585773;0.19617298;;;;;1090.5
1234.0;1180.0;90281;90198;11097;;;;;;;;;;;;;;;;;;
1235.0;1180.8;;;;;;;;;;;;;;;;;-0.43870357;103.01141;62.696465;;1100.1
1235.0;1180.8;;;;;;;;;;;;;;0.93203527;-0.19598986;0.26178777;;;;;1100.1
1235.0;1180.8;;;;;;;;;;;;;;;;;5.405591;91.185486;62.150944;;1100.1
1235.0;1180.8;;;;;;;;;;;;;;0.8370617;-0.20496231;0.27161473;;;;;1100.1
1235.0;1180.8;;;;;;;;;;;;;;;;;14.774774;76.83035;56.127354;;1109.7
1235.0;1180.8;;;;;;;;;;;;;;0.8758812;-0.19721061;0.27991578;;;;;1109.7
1235.0;1180.8;;;;;;;;;;;;;;;;;23.430586;62.452316;51.969208;;1109.7
1235.0;1180.8;;;;;;;;;;;;;;0.8465834;-0.16254158;0.28760645;;;;;1109.7
1235.0;1180.8;;;;;;;;;;;;;;;;;31.22425;45.89221;52.59865;;1119.3
1235.0;1180.8;;;;;;;;;;;;;;0.85384685;-0.16589862;0.28254035;;;;;1119.3
1235.0;1180.8;;;;;;;;;;;;;;;;;39.944912;29.419844;52.331615;;1119.3
1235.0;1180.8;;;;;;;;;;;;;;0.8841823;-0.13080233;0.26715904;;;;;1119.3
1235.0;1188.6;;;;-0.2841721;0.9554292;0.028762821;;;;;;;;;;;;;;;
1235.0;1188.6;;;;-0.27391818;0.95474255;0.015487673;;;;;;;;;;;;;;;
1235.0;1188.6;;;;-0.26155856;0.9571191;0.013679506;;;;;;;;;;;;;;;
1235.0;1188.6;;;;-0.24699405;0.96022046;0.004276276;;;;;;;;;;;;;;;
1235.0;1188.6;;;;-0.23448947;0.9654275;0.0032272344;;;;;;;;;;;;;;;
1235.0;1198.6;;;;-0.24247363;0.95209515;-0.0016822817;;;;;;;;;;;;;;;
1235.0;1198.6;;;;-0.24982074;0.94093716;-0.002410889;;;;;;;;;;;;;;;
1235.0;1198.6;;;;-0.25024417;0.9296609;-0.0049743657;;;;;;;;;;;;;;;
1235.0;1198.6;;;;-0.24940494;0.9188043;-0.009166718;;;;;;;;;;;;;;;
1235.0;1198.6;;;;-0.25006106;0.9089166;-0.013946535;;;;;;;;;;;;;;;
1235.0;1200.0;106713;106599;11083;;;;;;;;;;;;;;;;;;
1293.0;1206.1;;;;;;;;;;;;;-6;;;;;;;;
1293.0;1206.1;;;;;;;;;;;;;-11;;;;;;;;
1293.0;1206.1;;;;;;;;;;;;;0;;;;;;;;
1293.0;1206.1;;;;;;;;;;;;;-15;;;;;;;;
1293.0;1206.1;;;;;;;;;;;;;-19;;;;;;;;
1293.0;1208.4;;;;-0.2503853;0.90187466;-0.015853884;;;;;;;;;;;;;;;
1293.0;1208.4;;;;-0.24919513;0.89717877;-0.01747513;;;;;;;;;;;;;;;
1293.0;1208.4;;;;-0.24748614;0.89493954;-0.01766968;;;;;;;;;;;;;;;
1293.0;1208.4;;;;-0.24523166;0.89660275;-0.0117988605;;;;;;;;;;;;;;;
1293.0;1208.4;;;;-0.24621204;0.90018857;-0.011699677;;;;;;;;;;;;;;;
1293.0;1218.5;;;;-0.24850467;0.9025613;-0.01115799;;;;;;;;;;;;;;;
1293.0;1218.5;;;;-0.25259402;0.9038621;-0.007907868;;;;;;;;;;;;;;;
1293.0;1218.5;;;;-0.25601962;0.90602124;-0.006816865;;;;;;;;;;;;;;;
1293.0;1218.5;;;;-0.25719455;0.90750134;-0.0027465823;;;;;;;;;;;;;;;
1293.0;1218.5;;;;-0.2593613;0.9092103;0.00769806;;;;;;;;;;;;;;;
1293.0;1219.9;123085;123133;11061;;;;;;;;;;;;;;;;;;
1293.0;1228.6;;;;-0.2611771;0.91059124;0.011703492;;;;;;;;;;;;;;;
1293.0;1228.6;;;;-0.26147845;0.91302884;0.019908907;;;;;;;;;;;;;;;
1293.0;1228.6;;;;-0.26221088;0.9129144;0.024036411;;;;;;;;;;;;;;;
1293.0;1228.6;;;;-0.2640114;0.91077435;0.03143311;;;;;;;;;;;;;;;
1293.0;1228.6;;;;-0.26466373;0.9068414;0.03754807;;;;;;;;;;;;;;;
1295.0;1238.7;;;;-0.2633858;0.9060823;0.046203617;;;;;;;;;;;;;;;
1295.0;1238.7;;;;-0.25973514;0.90667355;0.056652077;;;;;;;;;;;;;;;
1295.0;1238.7;;;;-0.2568703;0.90797055;0.06033326;;;;;;;;;;;;;;;
1295.0;1238.7;;;;-0.25348666;0.90753186;0.06501389;;;;;;;;;;;;;;;
1295.0;1238.7;;;;-0.24990085;0.9084741;0.07543946;;;;;;;;;;;;;;;
1295.0;1239.7;;;;;;;;;;;;;;;;;47.669914;14.22544;55.87176;;1129.0
1295.0;1239.7;;;;;;;;;;;;;;0.92123175;-0.15637684;0.21893978;;;;;1129.0
1295.0;1239.7;;;;;;;;;;;;;;;;;58.721428;1.9760735;54.452652;;1129.0
1295.0;1239.7;;;;;;;;;;;;;;0.9000519;-0.14258248;0.18378246;;;;;1129.0
1295.0;1239.7;;;;;;;;;;;;;;;;;67.09495;-9.632405;51.23295;;1138.6
1295.0;1239.7;;;;;;;;;;;;;;0.99020356;-0.173101;0.15240943;;;;;1138.6
1295.0;1239.7;;;;;;;;;;;;;;;;;73.47331;-19.157995;51.53813;;1138.6
1295.0;1239.7;;;;;;;;;;;;;;1.0243232;-0.16736351;0.11517686;;;;;1138.6
1295.0;1239.7;;;;;;;;;;;;;;;;;73.2902;-25.791956;51.950134;;1148.1
1295.0;1239.7;;;;;;;;;;;;;;1.0672323;-0.16638692;0.095156714;;;;;1148.1
1295.0;1239.7;;;;;;;;;;;;;;;;;73.56105;-26.142918;50.41276;;1148.1
1295.0;1239.7;;;;;;;;;;;;;;1.025422;-0.14716025;0.080446795;;;;;1148.1
1296.0;1240.4;;;;;;;;;;;;;;;;;78.287605;-26.551104;47.45247;;1157.7
1296.0;1240.4;;;;;;;;;;;;;;1.0066226;-0.06225776;0.12274545;;;;;1157.7
1296.0;1240.4;;;;;;;;;;;;;;;;;70.67705;-31.182287;45.850246;;1157.7
1296.0;1240.4;;;;;;;;;;;;;;0.9945372;-0.06311228;0.15222633;;;;;1157.7
1296.0;1240.4;;;;;;;;;;;;;;;;;61.73513;-31.685844;42.92047;;1167.4
1296.0;1240.4;;;;;;;;;;;;;;1.0063174;-0.037049472;0.12622456;;;;;1167.4
1296.0;1240.4;;;;;;;;;;;;;;;;;57.11539;-28.675955;40.82995;;1167.4
1296.0;1240.4;;;;;;;;;;;;;;1.017487;-0.019775994;0.09173864;;;;;1167.4
1296.0;1240.4;;;;;;;;;;;;;;;;;56.592762;-25.234991;40.261543;;1177.1
1296.0;1240.4;;;;;;;;;;;;;;1.0102237;0.003906369;0.088930935;;;;;1177.1
1296.0;1240.4;;;;;;;;;;;;;;;;;57.10776;-23.415327;39.368877;;1177.1
1296.0;1240.4;;;;;;;;;;;;;;1.0235298;0.04510636;0.08386487;;;;;1177.1
1296.0;1240.1;139393;139416;11054;;;;;;;;;;;;;;;;;;
1296.0;1246.1;;;;;;;;;;;;;-12;;;;;;;;
1296.0;1246.1;;;;;;;;;;;;;-71;;;;;;;;
1296.0;1246.1;;;;;;;;;;;;;40;;;;;;;;
1296.0;1246.1;;;;;;;;;;;;;-31;;;;;;;;
1296.0;1246.1;;;;;;;;;;;;;-248;;;;;;;;
1296.0;1248.5;;;;-0.24496081;0.91072094;0.08228684;;;;;;;;;;;;;;;
1296.0;1248.5;;;;-0.24151996;0.91220486;0.08253098;;;;;;;;;;;;;;;
1296.0;1248.5;;;;-0.23952869;0.9139558;0.09194184;;;;;;;;;;;;;;;
1296.0;1248.5;;;;-0.23836139;0.9177438;0.10009004;;;;;;;;;;;;;;;
1296.0;1248.5;;;;-0.23791507;0.9215089;0.09729387;;;;;;;;;;;;;;;
1353.0;1258.5;;;;-0.23775485;0.92481244;0.105411544;;;;;;;;;;;;;;;
1353.0;1258.5;;;;-0.23419955;0.9257356;0.09747316;;;;;;;;;;;;;;;
1353.0;1258.5;;;;-0.22664264;0.927189;0.09653093;;;;;;;;;;;;;;;
1353.0;1258.5;;;;-0.21774295;0.9285394;0.093658455;;;;;;;;;;;;;;;
1353.0;1258.5;;;;-0.20809177;0.9304048;0.091499336;;;;;;;;;;;;;;;
1353.0;1260.1;155835;155834;11051;;;;;;;;;;;;;;;;;;
1353.0;1268.6;;;;-0.19839099;0.9326936;0.09802629;;;;;;;;;;;;;;;
1353.0;1268.6;;;;-0.18957904;0.9357263;0.10522844;;;;;;;;;;;;;;;
1353.0;1268.6;;;;-0.18224336;0.93919003;0.10253526;;;;;;;;;;;;;;;
1353.0;1268.6;;;;-0.17591478;0.9420854;0.09643175;;;;;;;;;;;;;;;
1353.0;1268.6;;;;-0.16954423;0.94496167;0.09614946;;;;;;;;;;;;;;;
1353.0;1278.6;;;;-0.16316988;0.9487916;0.10228731;;;;;;;;;;;;;;;
1353.0;1278.6;;;;-0.15833665;0.95253384;0.10212709;;;;;;;;;;;;;;;
1353.0;1278.6;;;;-0.15512086;0.95479596;0.100555435;;;;;;;;;;;;;;;
1353.0;1278.6;;;;-0.15564348;0.9563829;0.102050796;;;;;;;;;;;;;;;
1353.0;1278.6;;;;-0.15947343;0.95598996;0.09510805;;;;;;;;;;;;;;;
1353.0;1280.2;172185;172157;11051;;;;;;;;;;;;;;;;;;
1353.0;1286.4;;;;;;;;;;;;;304;;;;;;;;
1353.0;1286.4;;;;;;;;;;;;;581;;;;;;;;
1353.0;1286.4;;;;;;;;;;;;;-740;;;;;;;;
1353.0;1286.4;;;;;;;;;;;;;-1887;;;;;;;;
1353.0;1286.4;;;;;;;;;;;;;733;;;;;;;;
1355.0;1288.7;;;;-0.16813661;0.9537164;0.09279633;;;;;;;;;;;;;;;
1355.0;1288.7;;;;-0.1806717;0.9509088;0.089077;;;;;;;;;;;;;;;
1355.0;1288.7;;;;-0.19585422;0.94814694;0.08457566;;;;;;;;;;;;;;;
1355.0;1288.7;;;;-0.2125893;0.94560254;0.08132935;;;;;;;;;;;;;;;
1355.0;1288.7;;;;-0.22965243;0.94308484;0.07276536;;;;;;;;;;;;;;;
1355.0;1298.8;;;;-0.24687198;0.9403573;0.06406022;;;;;;;;;;;;;;;
1355.0;1298.8;;;;-0.2619858;0.9386102;0.058494575;;;;;;;;;;;;;;;
1355.0;1298.8;;;;-0.27494434;0.93732464;0.05142594;;;;;;;;;;;;;;;
1355.0;1298.8;;;;-0.28450778;0.93748105;0.042118076;;;;;;;;;;;;;;;
1355.0;1298.8;;;;-0.2920113;0.9379312;0.037643436;;;;;;;;;;;;;;;
1355.0;1300.0;;;;;;;;;;;;;;;;;55.814537;-23.899809;37.96884;;1186.7
1355.0;1300.0;;;;;;;;;;;;;;0.9704276;0.054383986;0.097598195;;;;;1186.7
1355.0;1300.0;;;;;;;;;;;;;;;;;53.48369;-25.254066;34.417248;;1186.7
1355.0;1300.0;;;;;;;;;;;;;;0.97634816;0.05059969;0.11334574;;;;;1186.7
1355.0;1300.0;;;;;;;;;;;;;;;;;50.424206;-24.735252;31.758324;;1196.3
1355.0;1300.0;;;;;;;;;;;;;;0.9981994;0.05145421;0.12280648;;;;;1196.3
1355.0;1300.0;;;;;;;;;;;;;;;;;46.967987;-25.07477;30.755028;;1196.3
1355.0;1300.0;;;;;;;;;;;;;;0.9391766;0.005981628;0.1267739;;;;;1196.3
1355.0;1300.0;;;;;;;;;;;;;;;;;45.232246;-22.598955;28.4814;;1205.9
1355.0;1300.0;;;;;;;;;;;;;;0.9632862;-0.011535997;0.15717033;;;;;1205.9
1355.0;1300.0;;;;;;;;;;;;;;;;;43.57662;-22.225103;27.569658;;1205.9
1355.0;1300.0;;;;;;;;;;;;;;0.9209266;-0.048890654;0.20416883;;;;;1205.9
1355.0;1300.5;188537;188591;11045;;;;;;;;;;;;;;;;;;
1356.0;1301.2;;;;;;;;;;;;;;;;;43.954285;-23.987549;26.406141;;1215.5
1356.0;1301.2;;;;;;;;;;;;;;0.9443037;-0.04388562;0.17188025;;;;;1215.5
1356.0;1301.2;;;;;;;;;;;;;;;;;40.349285;-22.312845;25.624104;;1215.5
1356.0;1301.2;;;;;;;;;;;;;;0.97848445;-0.09631642;0.13806574;;;;;1215.5
1356.0;1301.2;;;;;;;;;;;;;;;;;37.110508;-15.495773;22.755363;;1225.1
1356.0;1301.2;;;;;;;;;;;;;;0.9750053;-0.0672628;0.11224708;;;;;1225.1
1356.0;1301.2;;;;;;;;;;;;;;;;;32.845547;-12.863552;22.320475;;1225.1
1356.0;1301.2;;;;;;;;;;;;;;0.9290445;-0.11835078;0.16431166;;;;;1225.1
1356.0;1301.2;;;;;;;;;;;;;;;;;29.889067;-19.260996;23.918882;;1234.8
1356.0;1301.2;;;;;;;;;;;;;;0.8794824;-0.2229072;0.27393416;;;;;1234.8
1356.0;1301.2;;;;;;;;;;;;;;;;;33.35673;-38.43425;24.0524;;1234.8
1356.0;1301.2;;;;;;;;;;;;;;0.997467;-0.12317271;0.069093905;;;;;1234.8
1356.0;1308.8;;;;-0.2976685;0.9386903;0.032962803;;;;;;;;;;;;;;;
1356.0;1308.8;;;;-0.30157092;0.93960583;0.028884891;;;;;;;;;;;;;;;
1356.0;1308.8;;;;-0.30494693;0.94127667;0.027984623;;;;;;;;;;;;;;;
1356.0;1308.8;;;;-0.307251;0.94200146;0.020584108;;;;;;;;;;;;;;;
1356.0;1308.8;;;;-0.30952075;0.94264233;0.007431031;;;;;;;;;;;;;;;
1413.0;1314.9;;;;;;;;;;;;;;;;;35.657063;-41.627247;22.209845;;1244.4
1413.0;1314.9;;;;;;;;;;;;;;0.99649036;-0.19190039;0.13281655;;;;;1244.4
1413.0;1314.9;;;;;;;;;;;;;;;;;42.355877;-53.51802;20.302439;;1244.4
1413.0;1314.9;;;;;;;;;;;;;;1.0204169;-0.16425061;0.09729301;;;;;1244.4
1413.0;1314.9;;;;;;;;;;;;;;;;;40.94058;-63.19239;21.893217;;1253.9
1413.0;1314.9;;;;;;;;;;;;;;0.9786065;-0.33417767;0.14972381;;;;;1253.9
1413.0;1314.9;;;;;;;;;;;;;;;;;59.858242;-74.13328;20.027771;;1253.9
1413.0;1314.9;;;;;;;;;;;;;;1.0484328;-0.22888882;-0.18536943;;;;;1253.9
1413.0;1314.9;;;;;;;;;;;;;;;;;67.354355;-44.198433;29.351177;;1263.5
1413.0;1314.9;;;;;;;;;;;;;;0.8105716;-0.1782281;-0.16461684;;;;;1263.5
1413.0;1314.9;;;;;;;;;;;;;;;;;53.23954;-22.385326;41.390728;;1263.5
1413.0;1314.9;;;;;;;;;;;;;;0.84859765;-0.27185887;-0.058229316;;;;;1263.5
1413.0;1318.6;;;;-0.3120537;0.94348156;-0.0027580264;;;;;;;;;;;;;;;
1413.0;1318.6;;;;-0.31268314;0.94457257;-0.0038948064;;;;;;;;;;;;;;;
1413.0;1318.6;;;;-0.308548;0.9467851;-0.0016098025;;;;;;;;;;;;;;;
1413.0;1318.6;;;;-0.30058292;0.950451;0.0030479436;;;;;;;;;;;;;;;
1413.0;1318.6;;;;-0.2893944;0.95497143;0.0072402963;;;;;;;;;;;;;;;
1413.0;1320.4;204837;204962;11062;;;;;;;;;;;;;;;;;;
1413.0;1326.4;;;;;;;;;;;;;7508;;;;;;;;
1413.0;1326.4;;;;;;;;;;;;;11818;;;;;;;;
1413.0;1326.4;;;;;;;;;;;;;6383;;;;;;;;
1413.0;1326.4;;;;;;;;;;;;;-5339;;;;;;;;
1413.0;1326.4;;;;;;;;;;;;;-10243;;;;;;;;
1415.0;1328.6;;;;-0.27752307;0.9597665;0.0093803415;;;;;;;;;;;;;;;
1415.0;1328.6;;;;-0.26706317;0.96359265;0.011859896;;;;;;;;;;;;;;;
1415.0;1328.6;;;;-0.26010135;0.967518;0.013866426;;;;;;;;;;;;;;;
1415.0;1328.6;;;;-0.25583652;0.9701692;0.014904024;;;;;;;;;;;;;;;
1415.0;1328.6;;;;-0.2552376;0.97171795;0.013980867;;;;;;;;;;;;;;;
1415.0;1338.6;;;;-0.25740436;0.9711114;0.013454439;;;;;;;;;;;;;;;
1415.0;1338.6;;;;-0.26088718;0.96953976;0.017910006;;;;;;;;;;;;;;;
1415.0;1338.6;;;;-0.26479724;0.96914303;0.028556827;;;;;;;;;;;;;;;
1415.0;1338.6;;;;-0.2665482;0.9686433;0.03861237;;;;;;;;;;;;;;;
1415.0;1338.6;;;;-0.26651004;0.96849835;0.047222145;;;;;;;;;;;;;;;
1415.0;1340.4;221354;221348;11086;;;;;;;;;;;;;;;;;;
1415.0;1348.7;;;;-0.2658005;0.96769726;0.050975807;;;;;;;;;;;;;;;
1415.0;1348.7;;;;-0.26601413;0.9668542;0.049835213;;;;;;;;;;;;;;;
1415.0;1348.7;;;;-0.26942828;0.9651414;0.050315864;;;;;;;;;;;;;;;
1415.0;1348.7;;;;-0.2759209;0.96346295;0.05313111;;;;;;;;;;;;;;;
1415.0;1348.7;;;;-0.28357318;0.96198666;0.05716706;;;;;;;;;;;;;;;
1415.0;1358.8;;;;-0.2908974;0.9613954;0.061660774;;;;;;;;;;;;;;;
1415.0;1358.8;;;;-0.29646304;0.9615785;0.064868934;;;;;;;;;;;;;;;
1415.0;1358.8;;;;-0.3004227;0.96335614;0.070732124;;;;;;;;;;;;;;;
1415.0;1358.8;;;;-0.3041573;0.9664041;0.074119575;;;;;;;;;;;;;;;
1415.0;1358.8;;;;-0.30780414;0.97060025;0.07669068;;;;;;;;;;;;;;;
1416.0;1360.1;;;;;;;;;;;;;;;;;51.103245;-15.140995;45.58702;;1273.2
1416.0;1360.1;;;;;;;;;;;;;;0.93832207;-0.21491134;-0.05053865;;;;;1273.2
1416.0;1360.1;;;;;;;;;;;;;;;;;45.564133;-10.448774;51.14902;;1273.2
1416.0;1360.1;;;;;;;;;;;;;;0.8757591;-0.34699544;-0.083010346;;;;;1273.2
1416.0;1360.1;;;;;;;;;;;;;;;;;49.92828;-15.942106;42.08121;;1282.8
1416.0;1360.1;;;;;;;;;;;;;;0.97128206;-0.52687156;0.37037262;;;;;1282.8
1416.0;1360.1;;;;;;;;;;;;;;;;;40.98636;-45.186466;35.9241;;1282.8
1416.0;1360.1;;;;;;;;;;;;;;1.0044252;-0.27008882;0.0072634052;;;;;1282.8
1416.0;1360.1;;;;;;;;;;;;;;;;;35.588398;-44.610428;37.598804;;1292.5
1416.0;1360.1;;;;;;;;;;;;;;0.92818993;-0.27448347;0.003112888;;;;;1292.5
1416.0;1360.1;;;;;;;;;;;;;;;;;29.896696;-48.96695;39.983063;;1292.5
1416.0;1360.1;;;;;;;;;;;;;;0.92428356;-0.29493088;0.09009064;;;;;1292.5
1416.0;1360.5;237777;237623;11112;;;;;;;;;;;;;;;;;;
1416.0;1366.6;;;;;;;;;;;;;-1897;;;;;;;;
1416.0;1366.6;;;;;;;;;;;;;11449;;;;;;;;
1416.0;1366.6;;;;;;;;;;;;;18171;;;;;;;;
1416.0;1366.6;;;;;;;;;;;;;15413;;;;;;;;
1416.0;1366.6;;;;;;;;;;;;;9531;;;;;;;;
1416.0;1368.8;;;;-0.31170276;0.97436917;0.08482743;;;;;;;;;;;;;;;
1416.0;1368.8;;;;-0.31431964;0.97799695;0.09451677;;;;;;;;;;;;;;;
1416.0;1368.8;;;;-0.31642535;0.9812814;0.10278703;;;;;;;;;;;;;;;
1416.0;1368.8;;;;-0.31801608;0.98329556;0.10920335;;;;;;;;;;;;;;;
1416.0;1368.8;;;;-0.32027438;0.98412716;0.11422731;;;;;;;;;;;;;;;
1470.0;1375.1;;;;;;;;;;;;;;;;;26.158178;-71.67272;32.757805;;1302.1
1470.0;1375.1;;;;;;;;;;;;;;0.88778347;-0.4725486;0.4112064;;;;;1302.1
1470.0;1375.1;;;;;;;;;;;;;;;;;11.844996;-114.22315;9.796441;;1302.1
1470.0;1375.1;;;;;;;;;;;;;;1.2107913;-0.39991456;0.33448288;;;;;1302.1
1470.0;1375.1;;;;;;;;;;;;;;;;;7.354961;-115.279854;1.2855922;;1311.7
1470.0;1375.1;;;;;;;;;;;;;;1.076632;0.058534503;-1.1270486;;;;;1311.7
1470.0;1375.1;;;;;;;;;;;;;;;;;39.143803;-28.78277;31.022064;;1311.7
1470.0;1375.1;;;;;;;;;;;;;;0.987579;0.0077517014;-0.11999878;;;;;1311.7
1470.0;1375.1;;;;;;;;;;;;;;;;;38.64788;-19.928587;47.616505;;1321.2
1470.0;1375.1;;;;;;;;;;;;;;1.0697958;-0.13135166;-0.0629902;;;;;1321.2
1470.0;1375.1;;;;;;;;;;;;;;;;;35.85162;-22.312845;45.983765;;1321.2
1470.0;1375.1;;;;;;;;;;;;;;1.0080264;-0.117435224;0.003357036;;;;;1321.2
1470.0;1378.7;;;;-0.32336047;0.98531735;0.11745836;;;;;;;;;;;;;;;
1470.0;1378.7;;;;-0.3275185;0.985428;0.11836244;;;;;;;;;;;;;;;
1470.0;1378.7;;;;-0.33131412;0.985531;0.1186104;;;;;;;;;;;;;;;
1470.0;1378.7;;;;-0.3360863;0.9848596;0.117958084;;;;;;;;;;;;;;;
1470.0;1378.7;;;;-0.34195712;0.98371136;0.11663057;;;;;;;;;;;;;;;
1470.0;1380.5;254140;254069;11150;;;;;;;;;;;;;;;;;;
1470.0;1388.6;;;;-0.34743503;0.9819566;0.115287796;;;;;;;;;;;;;;;
1470.0;1388.6;;;;-0.35315707;0.9803544;0.11475755;;;;;;;;;;;;;;;
1470.0;1388.6;;;;-0.35982898;0.97843945;0.11637117;;;;;;;;;;;;;;;
1470.0;1388.6;;;;-0.36573413;0.97708905;0.11961748;;;;;;;;;;;;;;;
1470.0;1388.6;;;;-0.3700638;0.9763452;0.12334062;;;;;;;;;;;;;;;
1473.0;1398.7;;;;-0.37405398;0.9759027;0.1283951;;;;;;;;;;;;;;;
1473.0;1398.7;;;;-0.37798315;0.97569287;0.13452913;;;;;;;;;;;;;;;
1473.0;1398.7;;;;-0.38101584;0.97532666;0.13910677;;;;;;;;;;;;;;;
1473.0;1398.7;;;;-0.38457114;0.9753419;0.14257051;;;;;;;;;;;;;;;
1473.0;1398.7;;;;-0.38805014;0.97459424;0.14427568;;;;;;;;;;;;;;;
1473.0;1400.6;262143;262143;11169;;;;;;;;;;;;;;;;;;
1473.0;1406.7;;;;;;;;;;;;;6799;;;;;;;;
1473.0;1406.7;;;;;;;;;;;;;6750;;;;;;;;
1473.0;1406.7;;;;;;;;;;;;;6584;;;;;;;;
1473.0;1406.7;;;;;;;;;;;;;5975;;;;;;;;
1473.0;1406.7;;;;;;;;;;;;;5461;;;;;;;;
1473.0;1408.8;;;;-0.39170843;0.97257245;0.14549257;;;;;;;;;;;;;;;
1473.0;1408.8;;;;-0.39500433;0.9702302;0.14760973;;;;;;;;;;;;;;;
1473.0;1408.8;;;;-0.39775854;0.9667741;0.15063097;;;;;;;;;;;;;;;
1473.0;1408.8;;;;-0.3987351;0.96284497;0.15280534;;;;;;;;;;;;;;;
1473.0;1408.8;;;;-0.4000588;0.9592439;0.15493776;;;;;;;;;;;;;;;
1473.0;1418.9;;;;-0.40216833;0.954548;0.15739824;;;;;;;;;;;;;;;
1473.0;1418.9;;;;-0.40441138;0.94908154;0.15949251;;;;;;;;;;;;;;;
1473.0;1418.9;;;;-0.407013;0.94371426;0.16323854;;;;;;;;;;;;;;;
1473.0;1418.9;;;;-0.40972143;0.93857586;0.16683961;;;;;;;;;;;;;;;
1473.0;1418.9;;;;-0.41318518;0.9337579;0.16956712;;;;;;;;;;;;;;;
1475.0;1420.7;;;;;;;;;;;;;;;;;34.2761;-33.30714;42.893764;;1330.9
1475.0;1420.7;;;;;;;;;;;;;;0.9785455;-0.25202185;0.19904172;;;;;1330.9
1475.0;1420.7;;;;;;;;;;;;;;;;;54.09406;-79.22223;36.73284;;1330.9
1475.0;1420.7;;;;;;;;;;;;;;1.0744957;-0.14307077;-0.11578722;;;;;1330.9
1475.0;1420.7;;;;;;;;;;;;;;;;;42.94336;-72.4662;32.383953;;1340.5
1475.0;1420.7;;;;;;;;;;;;;;1.0018616;-0.029236732;-0.30066836;;;;;1340.5
1475.0;1420.7;;;;;;;;;;;;;;;;;46.239357;-45.71291;38.861507;;1340.5
1475.0;1420.7;;;;;;;;;;;;;;0.895352;-0.050477616;-0.26654866;;;;;1340.5
1475.0;1420.7;;;;;;;;;;;;;;;;;51.366467;-22.90414;43.17988;;1350.1
1475.0;1420.7;;;;;;;;;;;;;;0.8852809;-0.07330546;-0.1495407;;;;;1350.1
1475.0;1420.7;;;;;;;;;;;;;;;;;52.86569;-15.617847;43.034916;;1350.1
1475.0;1420.7;;;;;;;;;;;;;;0.9542528;-0.088015385;-0.12958159;;;;;1350.1
1475.0;1420.7;262143;262143;11184;;;;;;;;;;;;;;;;;;
1475.0;1428.9;;;;-0.41647345;0.92905056;0.17329027;;;;;;;;;;;;;;;
1475.0;1428.9;;;;-0.4196816;0.9246255;0.17686845;;;;;;;;;;;;;;;
1475.0;1428.9;;;;-0.4237557;0.92004025;0.1796074;;;;;;;;;;;;;;;
1475.0;1428.9;;;;-0.4280854;0.9157373;0.18230821;;;;;;;;;;;;;;;
1475.0;1428.9;;;;-0.43202978;0.9119836;0.18494035;;;;;;;;;;;;;;;
1475.0;1438.9;;;;-0.43523794;0.9082414;0.18648149;;;;;;;;;;;;;;;
1475.0;1438.9;;;;-0.43928152;0.9042779;0.18834308;;;;;;;;;;;;;;;
1475.0;1438.9;;;;-0.44315344;0.9001733;0.18968204;;;;;;;;;;;;;;;
1475.0;1438.9;;;;-0.44583517;0.8958131;0.19015506;;;;;;;;;;;;;;;
1475.0;1438.9;;;;-0.44786078;0.8918878;0.1903725;;;;;;;;;;;;;;;
1532.0;1441.0;262143;262143;11212;;;;;;;;;;;;;;;;;;
1532.0;1446.9;;;;;;;;;;;;;5040;;;;;;;;
1532.0;1446.9;;;;;;;;;;;;;4848;;;;;;;;
1532.0;1446.9;;;;;;;;;;;;;4811;;;;;;;;
1532.0;1446.9;;;;;;;;;;;;;4677;;;;;;;;
1532.0;1446.9;;;;;;;;;;;;;4400;;;;;;;;
1532.0;1448.9;;;;-0.44962698;0.88749325;0.18935016;;;;;;;;;;;;;;;
1532.0;1448.9;;;;-0.4505921;0.88326275;0.18940356;;;;;;;;;;;;;;;
1532.0;1448.9;;;;-0.45187002;0.8791009;0.18904117;;;;;;;;;;;;;;;
1532.0;1448.9;;;;-0.45242316;0.87508786;0.18843082;;;;;;;;;;;;;;;
1532.0;1448.9;;;;-0.4537316;0.8715974;0.18766025;;;;;;;;;;;;;;;
1532.0;1458.9;;;;-0.4547997;0.86823666;0.1866379;;;;;;;;;;;;;;;
1532.0;1458.9;;;;-0.4556504;0.86480725;0.18619539;;;;;;;;;;;;;;;
1532.0;1458.9;;;;-0.4557305;0.8619653;0.18473054;;;;;;;;;;;;;;;
1532.0;1458.9;;;;-0.45667273;0.859501;0.18360902;;;;;;;;;;;;;;;
1532.0;1458.9;;;;-0.45730597;0.8571855;0.18164827;;;;;;;;;;;;;;;
1532.0;1461.0;262143;262143;11232;;;;;;;;;;;;;;;;;;
1532.0;1469.0;;;;-0.45826346;0.85546124;0.17934419;;;;;;;;;;;;;;;
1532.0;1469.0;;;;-0.45875937;0.8538743;0.17779924;;;;;;;;;;;;;;;
1532.0;1469.0;;;;-0.4582711;0.851925;0.17585374;;;;;;;;;;;;;;;
1532.0;1469.0;;;;-0.45828253;0.8512994;0.1739197;;;;;;;;;;;;;;;
1532.0;1469.0;;;;-0.4577332;0.8503915;0.17178346;;;;;;;;;;;;;;;
1535.0;1479.1;;;;-0.45730978;0.849743;0.16903688;;;;;;;;;;;;;;;
1535.0;1479.1;;;;-0.45618826;0.8491708;0.16685869;;;;;;;;;;;;;;;
1535.0;1479.1;;;;-0.45565802;0.84928524;0.16526033;;;;;;;;;;;;;;;
1535.0;1479.1;;;;-0.45508963;0.8488885;0.16267015;;;;;;;;;;;;;;;
1535.0;1479.1;;;;-0.45466238;0.8488046;0.16045381;;;;;;;;;;;;;;;
1535.0;1480.5;;;;;;;;;;;;;;;;;54.013947;-13.2793665;41.52043;;1359.6
1535.0;1480.5;;;;;;;;;;;;;;0.95040745;-0.09796441;-0.13531907;;;;;1359.6
1535.0;1480.5;;;;;;;;;;;;;;;;;54.35728;-13.492996;39.456615;;1359.6
1535.0;1480.5;;;;;;;;;;;;;;0.9490646;-0.083681755;-0.1474044;;;;;1359.6
1535.0;1480.5;;;;;;;;;;;;;;;;;54.940945;-13.515885;37.48436;;1369.3
1535.0;1480.5;;;;;;;;;;;;;;0.9555345;-0.07043672;-0.1678518;;;;;1369.3
1535.0;1480.5;;;;;;;;;;;;;;;;;55.772575;-12.9207735;35.82873;;1369.3
1535.0;1480.5;;;;;;;;;;;;;;0.94302195;-0.07318339;-0.18225653;;;;;1369.3
1535.0;1480.5;;;;;;;;;;;;;;;;;56.772057;-12.440107;34.32569;;1378.9
1535.0;1480.5;;;;;;;;;;;;;;0.92306286;-0.06317332;-0.17883846;;;;;1378.9
1535.0;1480.5;;;;;;;;;;;;;;;;;56.33717;-12.897885;32.311474;;1378.9
1535.0;1480.5;;;;;;;;;;;;;;0.9207434;-0.050355542;-0.18182927;;;;;1378.9
1536.0;1481.4;;;;;;;;;;;;;;;;;55.085907;-13.176367;30.114138;;1388.5
1536.0;1481.4;;;;;;;;;;;;;;0.91170996;-0.048280284;-0.17169714;;;;;1388.5
1536.0;1481.4;;;;;;;;;;;;;;;;;54.36491;-14.435255;28.302103;;1388.5
1536.0;1481.4;;;;;;;;;;;;;;0.9107944;-0.053163245;-0.164861;;;;;1388.5
1536.0;1481.4;;;;;;;;;;;;;;;;;54.055912;-16.014587;25.791956;;1398.1
1536.0;1481.4;;;;;;;;;;;;;;0.8921781;-0.06329539;-0.1605884;;;;;1398.1
1536.0;1481.4;;;;;;;;;;;;;;;;;54.780724;-17.750328;23.682364;;1398.1
1536.0;1481.4;;;;;;;;;;;;;;0.9176916;-0.04956206;-0.15607166;;;;;1398.1
1536.0;1481.4;;;;;;;;;;;;;;;;;55.53987;-18.34544;21.538439;;1407.6
1536.0;1481.4;;;;;;;;;;;;;;0.9393597;-0.052919097;-0.14026307;;;;;1407.6
1536.0;1481.4;;;;;;;;;;;;;;;;;55.242317;-18.951996;19.138922;;1407.6
1536.0;1481.4;;;;;;;;;;;;;;0.9456465;-0.065981016;-0.124881744;;;;;1407.6
1536.0;1481.1;262143;262143;11229;;;;;;;;;;;;;;;;;;
1536.0;1487.1;;;;;;;;;;;;;4037;;;;;;;;
1536.0;1487.1;;;;;;;;;;;;;3652;;;;;;;;
1536.0;1487.1;;;;;;;;;;;;;3289;;;;;;;;
1536.0;1487.1;;;;;;;;;;;;;2824;;;;;;;;
1536.0;1487.1;;;;;;;;;;;;;2108;;;;;;;;
1540.0;1488.0;;;;;;;;;;;;;;;;;55.970947;-18.707848;16.937773;;1417.3
1540.0;1488.0;;;;;;;;;;;;;;0.9666433;-0.06414991;-0.10260323;;;;;1417.3
1540.0;1488.0;;;;;;;;;;;;;;;;;56.501205;-18.070772;15.15244;;1417.3
1540.0;1488.0;;;;;;;;;;;;;;0.97897273;-0.06488235;-0.08117924;;;;;1417.3
1540.0;1488.0;;;;;;;;;;;;;;;;;56.913204;-16.289255;13.779107;;1427.0
1540.0;1488.0;;;;;;;;;;;;;;0.9914243;-0.048524432;-0.05322428;;;;;1427.0
1540.0;1488.0;;;;;;;;;;;;;;;;;57.44728;-14.43907;12.661366;;1427.0
1540.0;1488.0;;;;;;;;;;;;;;1.0026551;-0.046205025;-0.04937895;;;;;1427.0
1540.0;1488.0;;;;;;;;;;;;;;;;;57.451096;-13.157292;11.444441;;1436.7
1540.0;1488.0;;;;;;;;;;;;;;1.0137639;-0.031434067;-0.062135685;;;;;1436.7
1540.0;1488.0;;;;;;;;;;;;;;;;;56.699574;-12.295145;10.196997;;1436.7
1540.0;1488.0;;;;;;;;;;;;;;1.0031434;-0.019165624;-0.07586902;;;;;1436.7
1540.0;1488.8;;;;-0.4538651;0.84869015;0.15856554;;;;;;;;;;;;;;;
1540.0;1488.8;;;;-0.45327383;0.8491632;0.1569748;;;;;;;;;;;;;;;
1540.0;1488.8;;;;-0.45347983;0.84943783;0.15405275;;;;;;;;;;;;;;;
1540.0;1488.8;;;;-0.4528275;0.8506433;0.15117647;;;;;;;;;;;;;;;
1540.0;1488.8;;;;-0.4527436;0.85120785;0.14633943;;;;;;;;;;;;;;;
1540.0;1498.8;;;;-0.4521256;0.8520204;0.14308931;;;;;;;;;;;;;;;
1540.0;1498.8;;;;-0.45306402;0.8522798;0.13910677;;;;;;;;;;;;;;;
1540.0;1498.8;;;;-0.45502478;0.85326016;0.1354828;;;;;;;;;;;;;;;
1540.0;1498.8;;;;-0.45649344;0.8546258;0.13254167;;;;;;;;;;;;;;;
1540.0;1498.8;;;;-0.45849615;0.8551141;0.12966539;;;;;;;;;;;;;;;
1540.0;1501.0;262143;262143;11250;;;;;;;;;;;;;;;;;;
1589.0;1508.7;;;;-0.45912558;0.8558885;0.12779619;;;;;;;;;;;;;;;
1589.0;1508.7;;;;-0.45978552;0.8565904;0.12547304;;;;;;;;;;;;;;;
1589.0;1508.7;;;;-0.46064;0.85728467;0.12277223;;;;;;;;;;;;;;;
1589.0;1508.7;;;;-0.46220022;0.8576051;0.11955263;;;;;;;;;;;;;;;
1589.0;1508.7;;;;-0.46316916;0.85749066;0.11759569;;;;;;;;;;;;;;;
1589.0;1518.7;;;;-0.4642678;0.8574029;0.115921035;;;;;;;;;;;;;;;
1589.0;1518.7;;;;-0.46472174;0.8567506;0.11607362;;;;;;;;;;;;;;;
1589.0;1518.7;;;;-0.46426016;0.85598385;0.114799514;;;;;;;;;;;;;;;
1589.0;1518.7;;;;-0.46459204;0.8553201;0.11260225;;;;;;;;;;;;;;;
1589.0;1518.7;;;;-0.46409613;0.8540422;0.11193086;;;;;;;;;;;;;;;
1589.0;1520.9;262143;262143;11253;;;;;;;;;;;;;;;;;;
1589.0;1526.9;;;;;;;;;;;;;1378;;;;;;;;
1589.0;1526.9;;;;;;;;;;;;;1044;;;;;;;;
1589.0;1526.9;;;;;;;;;;;;;1116;;;;;;;;
1589.0;1526.9;;;;;;;;;;;;;1332;;;;;;;;
1589.0;1526.9;;;;;;;;;;;;;1507;;;;;;;;
1589.0;1528.8;;;;-0.46441656;0.85287106;0.11063005;;;;;;;;;;;;;;;
1589.0;1528.8;;;;-0.4648896;0.8518144;0.10984422;;;;;;;;;;;;;;;
1589.0;1528.8;;;;-0.46562582;0.85006726;0.11008455;;;;;;;;;;;;;;;
1589.0;1528.8;;;;-0.46632773;0.8484689;0.11009218;;;;;;;;;;;;;;;
1589.0;1528.8;;;;-0.46677405;0.8465539;0.109806076;;;;;;;;;;;;;;;
1591.0;1538.9;;;;-0.4669724;0.8445283;0.11010744;;;;;;;;;;;;;;;
1591.0;1538.9;;;;-0.46828467;0.84256375;0.109764114;;;;;;;;;;;;;;;
1591.0;1538.9;;;;-0.46942526;0.84071743;0.10982515;;;;;;;;;;;;;;;
1591.0;1538.9;;;;-0.47066122;0.8393556;0.109813705;;;;;;;;;;;;;;;
1591.0;1538.9;;;;-0.47233588;0.8382951;0.109107986;;;;;;;;;;;;;;;
1591.0;1540.4;;;;;;;;;;;;;;;;;56.009094;-12.302774;9.228034;;1446.3
1591.0;1540.4;;;;;;;;;;;;;;0.9886166;-0.010742515;-0.09442427;;;;;1446.3
1591.0;1540.4;;;;;;;;;;;;;;;;;55.345314;-12.775811;8.316295;;1446.3
1591.0;1540.4;;;;;;;;;;;;;;0.9801935;0.012024293;-0.10724204;;;;;1446.3
1591.0;1540.4;;;;;;;;;;;;;;;;;53.930023;-12.8711815;7.4045534;;1455.9
1591.0;1540.4;;;;;;;;;;;;;;0.9595019;0.010376293;-0.11090426;;;;;1455.9
1591.0;1540.4;;;;;;;;;;;;;;;;;52.23243;-13.603626;6.4622946;;1455.9
1591.0;1540.4;;;;;;;;;;;;;;0.9479049;0.0076296274;-0.101626635;;;;;1455.9
1591.0;1540.4;;;;;;;;;;;;;;;;;50.466167;-15.396588;5.8862576;;1465.5
1591.0;1540.4;;;;;;;;;;;;;;0.94320506;0.011535997;-0.10608234;;;;;1465.5
1591.0;1540.4;;;;;;;;;;;;;;;;;47.978912;-16.033663;5.760369;;1465.5
1591.0;1540.4;;;;;;;;;;;;;;0.94155705;0.006530961;-0.10864589;;;;;1465.5
1591.0;1541.0;262143;262143;11261;;;;;;;;;;;;;;;;;;
1592.0;1547.9;;;;;;;;;;;;;;;;;45.556503;-16.327404;6.164739;;1475.2
1592.0;1547.9;;;;;;;;;;;;;;0.94485307;-0.006897183;-0.089602344;;;;;1475.2
1592.0;1547.9;;;;;;;;;;;;;;;;;43.84747;-17.162846;6.5271463;;1475.2
1592.0;1547.9;;;;;;;;;;;;;;0.9471114;-0.008972442;-0.09582812;;;;;1475.2
1592.0;1547.9;;;;;;;;;;;;;;;;;41.333508;-16.136662;7.27485;;1484.8
1592.0;1547.9;;;;;;;;;;;;;;0.9518723;-0.022705771;-0.09186071;;;;;1484.8
1592.0;1547.9;;;;;;;;;;;;;;;;;39.551987;-14.725182;8.320109;;1484.8
1592.0;1547.9;;;;;;;;;;;;;;0.9544969;-0.022705771;-0.08215583;;;;;1484.8
1592.0;1547.9;;;;;;;;;;;;;;;;;37.179176;-13.569293;9.510331;;1494.4
1592.0;1547.9;;;;;;;;;;;;;;0.98178047;-0.03234962;-0.073427536;;;;;1494.4
1592.0;1547.9;;;;;;;;;;;;;;;;;34.67284;-12.485885;10.849331;;1494.4
1592.0;1547.9;;;;;;;;;;;;;;0.97158724;-0.043946654;-0.06311228;;;;;1494.4
1592.0;1548.6;;;;-0.4735108;0.8357049;0.11009218;;;;;;;;;;;;;;;
1592.0;1548.6;;;;-0.47256857;0.8337709;0.11134721;;;;;;;;;;;;;;;
1592.0;1548.6;;;;-0.4729691;0.8325311;0.11142351;;;;;;;;;;;;;;;
1592.0;1548.6;;;;-0.47298437;0.8311578;0.11163713;;;;;;;;;;;;;;;
1592.0;1548.6;;;;-0.47380072;0.82987607;0.11165239;;;;;;;;;;;;;;;
1592.0;1558.6;;;;-0.4739266;0.8285562;0.11268617;;;;;;;;;;;;;;;
1592.0;1558.6;;;;-0.47281653;0.8265687;0.11391832;;;;;;;;;;;;;;;
1592.0;1558.6;;;;-0.4721108;0.8248025;0.11352159;;;;;;;;;;;;;;;
1592.0;1558.6;;;;-0.47061926;0.82354367;0.113979355;;;;;;;;;;;;;;;
1592.0;1558.6;;;;-0.4700585;0.8218843;0.11436464;;;;;;;;;;;;;;;
1592.0;1561.0;262143;262143;11288;;;;;;;;;;;;;;;;;;
1664.0;1567.0;;;;;;;;;;;;;1696;;;;;;;;
1664.0;1567.0;;;;;;;;;;;;;2065;;;;;;;;
1664.0;1567.0;;;;;;;;;;;;;2645;;;;;;;;
1664.0;1567.0;;;;;;;;;;;;;3337;;;;;;;;
1664.0;1567.0;;;;;;;;;;;;;4019;;;;;;;;
1664.0;1568.7;;;;-0.4684258;0.81977475;0.11545946;;;;;;;;;;;;;;;
1664.0;1568.7;;;;-0.46765143;0.8185617;0.11565782;;;;;;;;;;;;;;;
1664.0;1568.7;;;;-0.464943;0.816002;0.11682893;;;;;;;;;;;;;;;
1664.0;1568.7;;;;-0.46303564;0.81344235;0.116172805;;;;;;;;;;;;;;;
1664.0;1568.7;;;;-0.46075064;0.8118249;0.11613466;;;;;;;;;;;;;;;
1664.0;1578.7;;;;-0.45900732;0.8102647;0.11537935;;;;;;;;;;;;;;;
1664.0;1578.7;;;;-0.4567147;0.8089944;0.11506654;;;;;;;;;;;;;;;
1664.0;1578.7;;;;-0.45544058;0.8073503;0.113266006;;;;;;;;;;;;;;;
1664.0;1578.7;;;;-0.4542275;0.80591595;0.111942306;;;;;;;;;;;;;;;
1664.0;1578.7;;;;-0.45119864;0.8042489;0.11250688;;;;;;;;;;;;;;;
1664.0;1581.1;262143;262143;11294;;;;;;;;;;;;;;;;;;
1664.0;1588.8;;;;-0.44919974;0.80275357;0.11115648;;;;;;;;;;;;;;;
1664.0;1588.8;;;;-0.44616705;0.80121243;0.1101494;;;;;;;;;;;;;;;
1664.0;1588.8;;;;-0.44365317;0.79997647;0.109325424;;;;;;;;;;;;;;;
1664.0;1588.8;;;;-0.44123846;0.79872906;0.1078148;;;;;;;;;;;;;;;
1664.0;1588.8;;;;-0.43895727;0.797413;0.106929794;;;;;;;;;;;;;;;
1666.0;1598.9;;;;-0.43650824;0.79636395;0.10658266;;;;;;;;;;;;;;;
1666.0;1598.9;;;;-0.43179327;0.79452145;0.10807039;;;;;;;;;;;;;;;
1666.0;1598.9;;;;-0.42789847;0.79319394;0.10846712;;;;;;;;;;;;;;;
1666.0;1598.9;;;;-0.42405325;0.792843;0.10770418;;;;;;;;;;;;;;;
1666.0;1598.9;;;;-0.42070395;0.7923776;0.10764314;;;;;;;;;;;;;;;
1666.0;1600.6;;;;;;;;;;;;;;;;;32.914215;-11.37196;12.081515;;1503.9
1666.0;1600.6;;;;;;;;;;;;;;0.9614551;-0.04895169;-0.060121465;;;;;1503.9
1666.0;1600.6;;;;;;;;;;;;;;;;;31.262398;-10.296182;13.504441;;1503.9
1666.0;1600.6;;;;;;;;;;;;;;0.9670095;-0.0590228;-0.05322428;;;;;1503.9
1666.0;1600.6;;;;;;;;;;;;;;;;;30.217138;-9.056368;15.171514;;1513.6
1666.0;1600.6;;;;;;;;;;;;;;0.97524947;-0.054811243;-0.036988433;;;;;1513.6
1666.0;1600.6;;;;;;;;;;;;;;;;;29.263435;-8.8999605;16.460922;;1513.6
1666.0;1600.6;;;;;;;;;;;;;;0.98355055;-0.055421613;-0.04242073;;;;;1513.6
1666.0;1600.6;;;;;;;;;;;;;;;;;28.004547;-7.271035;18.02118;;1523.0
1666.0;1600.6;;;;;;;;;;;;;;0.9804987;-0.05322428;-0.032898955;;;;;1523.0
1666.0;1600.6;;;;;;;;;;;;;;;;;27.264475;-5.916776;19.493698;;1523.0
1666.0;1600.6;;;;;;;;;;;;;;0.9746391;-0.04712058;-0.025757622;;;;;1523.0
1666.0;1601.2;262143;262143;11300;;;;;;;;;;;;;;;;;;
1666.0;1607.2;;;;;;;;;;;;;4679;;;;;;;;
1666.0;1607.2;;;;;;;;;;;;;5220;;;;;;;;
1666.0;1607.2;;;;;;;;;;;;;5510;;;;;;;;
1666.0;1607.2;;;;;;;;;;;;;5654;;;;;;;;
1666.0;1607.2;;;;;;;;;;;;;5675;;;;;;;;
1711.0;1608.1;;;;;;;;;;;;;;;;;26.047548;-4.875332;20.702993;;1532.7
1711.0;1608.1;;;;;;;;;;;;;;0.99197364;-0.048829615;-0.025879696;;;;;1532.7
1711.0;1608.1;;;;;;;;;;;;;;;;;25.063326;-3.5859249;21.671957;;1532.7
1711.0;1608.1;;;;;;;;;;;;;;0.98556477;-0.048890654;-0.023255104;;;;;1532.7
1711.0;1608.1;;;;;;;;;;;;;;;;;23.998993;-2.475814;22.808771;;1542.2
1711.0;1608.1;;;;;;;;;;;;;;0.984344;-0.05285806;-0.022827845;;;;;1542.2
1711.0;1608.1;;;;;;;;;;;;;;;;;22.74392;-1.4496292;23.537401;;1542.2
1711.0;1608.1;;;;;;;;;;;;;;0.9986877;-0.035828732;-0.02008118;;;;;1542.2
1711.0;1608.1;;;;;;;;;;;;;;;;;20.695364;0.08774071;24.899288;;1551.8
1711.0;1608.1;;;;;;;;;;;;;;0.99215674;-0.042298656;-0.0051881466;;;;;1551.8
1711.0;1608.1;;;;;;;;;;;;;;;;;17.891476;-0.24796289;26.242104;;1551.8
1711.0;1608.1;;;;;;;;;;;;;;0.9795221;-0.051698357;-0.0012817774;;;;;1551.8
1711.0;1608.7;;;;-0.4175759;0.7911035;0.10799791;;;;;;;;;;;;;;;
1711.0;1608.7;;;;-0.4132195;0.79005826;0.108791366;;;;;;;;;;;;;;;
1711.0;1608.7;;;;-0.4094544;0.78863156;0.108798996;;;;;;;;;;;;;;;
1711.0;1608.7;;;;-0.4051705;0.7876092;0.10889818;;;;;;;;;;;;;;;
1711.0;1608.7;;;;-0.4017182;0.786049;0.10786058;;;;;;;;;;;;;;;
1711.0;1618.7;;;;-0.3987046;0.784794;0.10725404;;;;;;;;;;;;;;;
1711.0;1618.7;;;;-0.39495474;0.7828599;0.10725023;;;;;;;;;;;;;;;
1711.0;1618.7;;;;-0.39103323;0.78104794;0.108043686;;;;;;;;;;;;;;;
1711.0;1618.7;;;;-0.38801962;0.7794267;0.10712434;;;;;;;;;;;;;;;
1711.0;1618.7;;;;-0.38594824;0.7774049;0.10670473;;;;;;;;;;;;;;;
1711.0;1621.3;262143;262143;11323;;;;;;;;;;;;;;;;;;
1714.0;1628.5;;;;-0.3836251;0.77577984;0.10661699;;;;;;;;;;;;;;;
1714.0;1628.5;;;;-0.380951;0.77419674;0.106784835;;;;;;;;;;;;;;;
1714.0;1628.5;;;;-0.3787995;0.7723123;0.107662216;;;;;;;;;;;;;;;
1714.0;1628.5;;;;-0.37691122;0.77147686;0.10901643;;;;;;;;;;;;;;;
1714.0;1628.5;;;;-0.37543112;0.77097714;0.11092378;;;;;;;;;;;;;;;
1714.0;1638.6;;;;-0.37372592;0.770363;0.11251451;;;;;;;;;;;;;;;
1714.0;1638.6;;;;-0.3722916;0.76944745;0.11450197;;;;;;;;;;;;;;;
1714.0;1638.6;;;;-0.3705826;0.7693292;0.11641313;;;;;;;;;;;;;;;
1714.0;1638.6;;;;-0.3694153;0.76940167;0.11747362;;;;;;;;;;;;;;;
1714.0;1638.6;;;;-0.36711887;0.7700845;0.1182747;;;;;;;;;;;;;;;
1714.0;1641.2;262143;262143;11319;;;;;;;;;;;;;;;;;;
1714.0;1647.1;;;;;;;;;;;;;5452;;;;;;;;
1714.0;1647.1;;;;;;;;;;;;;5045;;;;;;;;
1714.0;1647.1;;;;;;;;;;;;;4724;;;;;;;;
1714.0;1647.1;;;;;;;;;;;;;4667;;;;;;;;
1714.0;1647.1;;;;;;;;;;;;;4665;;;;;;;;
1714.0;1648.7;;;;-0.3650513;0.7710725;0.11798097;;;;;;;;;;;;;;;
1714.0;1648.7;;;;-0.3622513;0.7723695;0.11835481;;;;;;;;;;;;;;;
1714.0;1648.7;;;;-0.3603783;0.7739068;0.118194595;;;;;;;;;;;;;;;
1714.0;1648.7;;;;-0.35875323;0.7756387;0.11829759;;;;;;;;;;;;;;;
1714.0;1648.7;;;;-0.35730746;0.7771112;0.11804201;;;;;;;;;;;;;;;
1715.0;1658.8;;;;-0.35667804;0.778267;0.11763002;;;;;;;;;;;;;;;
1715.0;1658.8;;;;-0.35550693;0.7800065;0.117820755;;;;;;;;;;;;;;;
1715.0;1658.8;;;;-0.35413364;0.7815515;0.11820604;;;;;;;;;;;;;;;
1715.0;1658.8;;;;-0.35242847;0.7834817;0.11795427;;;;;;;;;;;;;;;
1715.0;1658.8;;;;-0.35018542;0.7851068;0.11633302;;;;;;;;;;;;;;;
1715.0;1661.4;262143;262143;11319;;;;;;;;;;;;;;;;;;
1715.0;1668.2;;;;;;;;;;;;;;;;;15.781885;0.3013703;27.359844;;1561.4
1715.0;1668.2;;;;;;;;;;;;;;0.96676534;-0.04589984;-0.003906369;;;;;1561.4
1715.0;1668.2;;;;;;;;;;;;;;;;;13.855403;2.4796288;29.053621;;1561.4
1715.0;1668.2;;;;;;;;;;;;;;0.9732963;-0.07257301;-0.0051881466;;;;;1561.4
1715.0;1668.2;;;;;;;;;;;;;;;;;12.092959;3.5744805;30.552843;;1571.1
1715.0;1668.2;;;;;;;;;;;;;;0.9796442;-0.06060976;0.0045167394;;;;;1571.1
1715.0;1668.2;;;;;;;;;;;;;;;;;9.292887;4.40611;32.250435;;1571.1
1715.0;1668.2;;;;;;;;;;;;;;0.96609396;-0.0949736;0.009094516;;;;;1571.1
1715.0;1668.2;;;;;;;;;;;;;;;;;7.8127384;5.054628;33.92132;;1580.6
1715.0;1668.2;;;;;;;;;;;;;;0.96945095;-0.096499525;0.01147496;;;;;1580.6
1715.0;1668.2;;;;;;;;;;;;;;;;;7.080294;5.6611834;35.34425;;1580.6
1715.0;1668.2;;;;;;;;;;;;;;0.9714652;-0.09674367;0.0051271096;;;;;1580.6
1715.0;1668.8;;;;-0.34801105;0.7868959;0.11306764;;;;;;;;;;;;;;;
1715.0;1668.8;;;;-0.34440616;0.7891351;0.111843124;;;;;;;;;;;;;;;
1715.0;1668.8;;;;-0.34230044;0.7912408;0.10964967;;;;;;;;;;;;;;;
1715.0;1668.8;;;;-0.33965304;0.7929498;0.107303634;;;;;;;;;;;;;;;
1715.0;1668.8;;;;-0.33706668;0.795643;0.105144516;;;;;;;;;;;;;;;
1716.0;1669.4;;;;;;;;;;;;;;;;;6.4546647;6.7979984;36.96173;;1590.2
1716.0;1669.4;;;;;;;;;;;;;;0.9762261;-0.1037019;-0.016724143;;;;;1590.2
1716.0;1669.4;;;;;;;;;;;;;;;;;6.5195165;7.992035;38.09473;;1590.2
1716.0;1669.4;;;;;;;;;;;;;;0.9585864;-0.10425123;-0.02087466;;;;;1590.2
1716.0;1669.4;;;;;;;;;;;;;;;;;6.103702;7.1031833;39.891506;;1599.7
1716.0;1669.4;;;;;;;;;;;;;;0.9471114;-0.11883908;-0.03320414;;;;;1599.7
1716.0;1669.4;;;;;;;;;;;;;;;;;6.2181463;7.4999237;41.119877;;1599.7
1716.0;1669.4;;;;;;;;;;;;;;0.95956296;-0.12121952;-0.030579546;;;;;1599.7
1716.0;1669.4;;;;;;;;;;;;;;;;;8.655812;5.7832575;41.901913;;1609.4
1716.0;1669.4;;;;;;;;;;;;;;0.9486984;-0.12512589;-0.057679985;;;;;1609.4
1716.0;1669.4;;;;;;;;;;;;;;;;;10.879849;4.0475173;42.157505;;1609.4
1716.0;1669.4;;;;;;;;;;;;;;0.96591085;-0.11468856;-0.07586902;;;;;1609.4
1716.0;1678.6;;;;-0.33532336;0.7981225;0.1031151;;;;;;;;;;;;;;;
1716.0;1678.6;;;;-0.33332446;0.80082333;0.10183336;;;;;;;;;;;;;;;
1716.0;1678.6;;;;-0.33062747;0.80373776;0.101951614;;;;;;;;;;;;;;;
1716.0;1678.6;;;;-0.32734683;0.8069955;0.103015915;;;;;;;;;;;;;;;
1716.0;1678.6;;;;-0.3242722;0.81097806;0.10248567;;;;;;;;;;;;;;;
1716.0;1681.3;262143;262143;11324;;;;;;;;;;;;;;;;;;
1716.0;1687.3;;;;;;;;;;;;;4366;;;;;;;;
1716.0;1687.3;;;;;;;;;;;;;3743;;;;;;;;
1716.0;1687.3;;;;;;;;;;;;;3231;;;;;;;;
1716.0;1687.3;;;;;;;;;;;;;3155;;;;;;;;
1716.0;1687.3;;;;;;;;;;;;;3175;;;;;;;;
1771.0;1688.6;;;;-0.32154468;0.81464016;0.10110475;;;;;;;;;;;;;;;
1771.0;1688.6;;;;-0.31914523;0.8183137;0.10081865;;;;;;;;;;;;;;;
1771.0;1688.6;;;;-0.31763843;0.8219682;0.09972383;;;;;;;;;;;;;;;
1771.0;1688.6;;;;-0.31600574;0.8254777;0.09740831;;;;;;;;;;;;;;;
1771.0;1688.6;;;;-0.31465152;0.82847226;0.095886245;;;;;;;;;;;;;;;
1771.0;1698.5;;;;-0.3128052;0.8315126;0.094318405;;;;;;;;;;;;;;;
1771.0;1698.5;;;;-0.3125191;0.8374063;0.09318925;;;;;;;;;;;;;;;
1771.0;1698.5;;;;-0.31462863;0.84326947;0.092399605;;;;;;;;;;;;;;;
1771.0;1698.5;;;;-0.31647113;0.848858;0.09246064;;;;;;;;;;;;;;;
1771.0;1698.5;;;;-0.31770328;0.8545953;0.09392168;;;;;;;;;;;;;;;
1771.0;1701.2;262143;262143;11317;;;;;;;;;;;;;;;;;;
1771.0;1708.6;;;;-0.3196564;0.8600236;0.09473802;;;;;;;;;;;;;;;
1771.0;1708.6;;;;-0.32098392;0.86553967;0.09787752;;;;;;;;;;;;;;;
1771.0;1708.6;;;;-0.32223895;0.8708993;0.10064699;;;;;;;;;;;;;;;
1771.0;1708.6;;;;-0.32249072;0.87697995;0.103633896;;;;;;;;;;;;;;;
1771.0;1708.6;;;;-0.32146457;0.88295376;0.107181564;;;;;;;;;;;;;;;
1771.0;1718.7;;;;-0.32109073;0.8899728;0.10915376;;;;;;;;;;;;;;;
1771.0;1718.7;;;;-0.3196831;0.89605343;0.111511245;;;;;;;;;;;;;;;
1771.0;1718.7;;;;-0.31694034;0.9019395;0.11475755;;;;;;;;;;;;;;;
1771.0;1718.7;;;;-0.31445697;0.9081651;0.117675796;;;;;;;;;;;;;;;
1771.0;1718.7;;;;-0.31335452;0.9146234;0.12019731;;;;;;;;;;;;;;;
1780.0;1720.8;;;;;;;;;;;;;;;;;13.626515;2.9564807;41.402172;;1619.0
1780.0;1720.8;;;;;;;;;;;;;;0.94930875;-0.115543075;-0.10870693;;;;;1619.0
1780.0;1720.8;;;;;;;;;;;;;;;;;16.029848;2.4262216;40.879543;;1619.0
1780.0;1720.8;;;;;;;;;;;;;;0.92477185;-0.10681479;-0.1142613;;;;;1619.0
1780.0;1720.8;;;;;;;;;;;;;;;;;19.318218;0.3662221;40.391247;;1628.5
1780.0;1720.8;;;;;;;;;;;;;;0.92062134;-0.105533004;-0.1358684;;;;;1628.5
1780.0;1720.8;;;;;;;;;;;;;;;;;20.393993;-0.8087405;39.727467;;1628.5
1780.0;1720.8;;;;;;;;;;;;;;0.9038972;-0.11438338;-0.14441359;;;;;1628.5
1780.0;1720.8;;;;;;;;;;;;;;;;;22.148808;-3.501999;37.804806;;1637.9
1780.0;1720.8;;;;;;;;;;;;;;0.9187902;-0.10455641;-0.1732841;;;;;1637.9
1780.0;1720.8;;;;;;;;;;;;;;;;;23.537401;-3.4752953;35.447247;;1637.9
1780.0;1720.8;;;;;;;;;;;;;;0.9274575;-0.095706046;-0.19812617;;;;;1637.9
1780.0;1721.6;;;;;;;;;;;;;;;;;25.601213;-3.563036;33.627583;;1647.5
1780.0;1721.6;;;;;;;;;;;;;;0.910184;-0.10345775;-0.22180852;;;;;1647.5
1780.0;1721.6;;;;;;;;;;;;;;;;;27.569658;-4.299295;31.361584;;1647.5
1780.0;1721.6;;;;;;;;;;;;;;0.9190344;-0.08917508;-0.23889889;;;;;1647.5
1780.0;1721.6;;;;;;;;;;;;;;;;;29.08414;-4.3908505;30.045471;;1657.1
1780.0;1721.6;;;;;;;;;;;;;;0.93057036;-0.10412916;-0.26630452;;;;;1657.1
1780.0;1721.6;;;;;;;;;;;;;;;;;30.62151;-3.9597769;28.271584;;1657.1
1780.0;1721.6;;;;;;;;;;;;;;0.9247108;-0.10711997;-0.28125858;;;;;1657.1
1780.0;1721.6;;;;;;;;;;;;;;;;;32.036804;-3.7804804;26.715141;;1666.8
1780.0;1721.6;;;;;;;;;;;;;;0.93673515;-0.10895108;-0.2981048;;;;;1666.8
1780.0;1721.6;;;;;;;;;;;;;;;;;33.509327;-2.8077028;25.15488;;1666.8
1780.0;1721.6;;;;;;;;;;;;;;0.9377117;-0.12329478;-0.31153294;;;;;1666.8
1831.0;1721.4;262143;262143;11318;;;;;;;;;;;;;;;;;;
1831.0;1727.3;;;;;;;;;;;;;2929;;;;;;;;
1831.0;1727.3;;;;;;;;;;;;;2420;;;;;;;;
1831.0;1727.3;;;;;;;;;;;;;1816;;;;;;;;
1831.0;1727.3;;;;;;;;;;;;;1366;;;;;;;;
1831.0;1727.3;;;;;;;;;;;;;1268;;;;;;;;
1831.0;1728.6;;;;-0.3136864;0.9207841;0.122783676;;;;;;;;;;;;;;;
1831.0;1728.6;;;;-0.31382373;0.926262;0.12648775;;;;;;;;;;;;;;;
1831.0;1728.6;;;;-0.3141289;0.9304162;0.13019945;;;;;;;;;;;;;;;
1831.0;1728.6;;;;-0.31587985;0.93540204;0.13314821;;;;;;;;;;;;;;;
1831.0;1728.6;;;;-0.31657794;0.93852246;0.13751985;;;;;;;;;;;;;;;
1831.0;1737.5;;;;;;;;;;0.65233314;18.925291;-2.9869993;;;;;;;;;
1831.0;1737.5;;;;;;;0.3463851;-1.0411085;0.20160528;;;;;;;;;;;;
1831.0;1737.5;;;;;;;;;;8.7893305;32.26188;7.621998;;;;;;;;;
1831.0;1737.5;;;;;;;0.38673055;-1.1500595;0.21082187;;;;;;;;;;;;
1831.0;1738.6;;;;-0.31738284;0.94119656;0.14040376;;;;;;;;;;;;;;;
1831.0;1738.6;;;;-0.31775287;0.94392407;0.14317323;;;;;;;;;;;;;;;
1831.0;1738.6;;;;-0.31917575;0.9467927;0.14513017;;;;;;;;;;;;;;;
1831.0;1738.6;;;;-0.32002643;0.94931805;0.1472664;;;;;;;;;;;;;;;
1831.0;1738.6;;;;-0.32032016;0.9516717;0.14957048;;;;;;;;;;;;;;;
1831.0;1741.5;262143;262143;11329;;;;;;;;;;;;;;;;;;
1831.0;1747.1;;;;;;;;;;1.5182959;10.597552;-1.003296;;;;;;;;;
1831.0;1747.1;;;;;;;0.3916135;-1.1269876;0.19275491;;;;;;;;;;;;
1831.0;1747.1;;;;;;;;;;4.6845913;27.558214;7.57622;;;;;;;;;
1831.0;1747.1;;;;;;;0.3977172;-1.1070894;0.1871395;;;;;;;;;;;;
1833.0;1748.7;;;;-0.31872943;0.952942;0.1520424;;;;;;;;;;;;;;;
1833.0;1748.7;;;;-0.31690982;0.9540254;0.1539612;;;;;;;;;;;;;;;
1833.0;1748.7;;;;-0.31504062;0.95456326;0.15516283;;;;;;;;;;;;;;;
1833.0;1748.7;;;;-0.31359103;0.95476544;0.15690614;;;;;;;;;;;;;;;
1833.0;1748.7;;;;-0.31267932;0.9552957;0.15768434;;;;;;;;;;;;;;;
1833.0;1756.6;;;;;;;;;;3.482925;39.922024;8.514664;;;;;;;;;
1833.0;1756.6;;;;;;;0.39991456;-1.088046;0.17737357;;;;;;;;;;;;
1833.0;1756.6;;;;;;;;;;-3.322703;18.555254;-11.631367;;;;;;;;;
1833.0;1756.6;;;;;;;0.38911098;-1.0683309;0.1739555;;;;;;;;;;;;
1833.0;1758.7;;;;-0.31182483;0.9561082;0.15874101;;;;;;;;;;;;;;;
1833.0;1758.7;;;;-0.31144336;0.9566995;0.1600609;;;;;;;;;;;;;;;
1833.0;1758.7;;;;-0.3113022;0.9574472;0.1602707;;;;;;;;;;;;;;;
1833.0;1758.7;;;;-0.31224445;0.9594308;0.15875627;;;;;;;;;;;;;;;
1833.0;1758.7;;;;-0.31209186;0.9615327;0.15721513;;;;;;;;;;;;;;;
1833.0;1761.6;262143;262143;11340;;;;;;;;;;;;;;;;;;
1833.0;1766.2;;;;;;;;;;-5.3369246;33.509327;-11.429182;;;;;;;;;
1833.0;1766.2;;;;;;;0.37635425;-1.0574054;0.17621388;;;;;;;;;;;;
1833.0;1766.2;;;;;;;;;;-7.4007387;47.31895;-10.776849;;;;;;;;;
1833.0;1766.2;;;;;;;0.34730065;-1.0472121;0.17181921;;;;;;;;;;;;
1833.0;1767.5;;;;;;;;;;;;;1653;;;;;;;;
1833.0;1767.5;;;;;;;;;;;;;2366;;;;;;;;
1833.0;1767.5;;;;;;;;;;;;;2922;;;;;;;;
1833.0;1767.5;;;;;;;;;;;;;2980;;;;;;;;
1833.0;1767.5;;;;;;;;;;;;;2731;;;;;;;;
1835.0;1768.8;;;;-0.31118014;0.9639665;0.15627672;;;;;;;;;;;;;;;
1835.0;1768.8;;;;-0.3088036;0.96681607;0.15521623;;;;;;;;;;;;;;;
1835.0;1768.8;;;;-0.30773166;0.97101605;0.15253069;;;;;;;;;;;;;;;
1835.0;1768.8;;;;-0.30687335;0.97581494;0.14945604;;;;;;;;;;;;;;;
1835.0;1768.8;;;;-0.3065453;0.98160183;0.14738847;;;;;;;;;;;;;;;
1835.0;1775.8;;;;;;;;;;-10.086368;64.63058;-4.2458873;;;;;;;;;
1835.0;1775.8;;;;;;;0.31067842;-1.0358592;0.15765862;;;;;;;;;;;;
1835.0;1775.8;;;;;;;;;;-12.096774;74.98016;2.6551104;;;;;;;;;
1835.0;1775.8;;;;;;;0.2880337;-1.0196234;0.14593951;;;;;;;;;;;;
1835.0;1778.9;;;;-0.30655292;0.9878465;0.1452675;;;;;;;;;;;;;;;
1835.0;1778.9;;;;-0.30607608;0.99442685;0.14443971;;;;;;;;;;;;;;;
1835.0;1778.9;;;;-0.30733112;1.0027086;0.14266588;;;;;;;;;;;;;;;
1835.0;1778.9;;;;-0.30976108;1.0120813;0.14121248;;;;;;;;;;;;;;;
1835.0;1778.9;;;;-0.3097115;1.0208703;0.14093782;;;;;;;;;;;;;;;
1835.0;1781.8;262143;262143;11330;;;;;;;;;;;;;;;;;;
1835.0;1785.3;;;;;;;;;;-13.096255;75.42268;1.8997772;;;;;;;;;
1835.0;1785.3;;;;;;;0.2840663;-1.0059512;0.1394696;;;;;;;;;;;;
1835.0;1785.3;;;;;;;;;;-14.473403;76.864685;0.07248146;;;;;;;;;
1835.0;1785.3;;;;;;;0.28449354;-0.9931333;0.11926634;;;;;;;;;;;;
1836.0;1788.6;;;;;;;;;;;;;;;;;34.51262;-2.3003328;23.709066;;1676.4
1836.0;1788.6;;;;;;;;;;;;;;0.9475387;-0.13037507;-0.3300882;;;;;1676.4
1836.0;1788.6;;;;;;;;;;;;;;;;;35.157322;-0.63325906;22.7134;;1676.4
1836.0;1788.6;;;;;;;;;;;;;;0.9335612;-0.15045625;-0.33234656;;;;;1676.4
1836.0;1788.6;;;;;;;;;;;;;;;;;36.68325;0.12970367;21.481216;;1686.0
1836.0;1788.6;;;;;;;;;;;;;;0.9369793;-0.14990692;-0.32129887;;;;;1686.0
1836.0;1788.6;;;;;;;;;;;;;;;;;37.724693;0.0076296274;20.619068;;1686.0
1836.0;1788.6;;;;;;;;;;;;;;0.9322184;-0.14880826;-0.3065279;;;;;1686.0
1836.0;1788.6;;;;;;;;;;;;;;;;;37.751396;0.16022217;19.909512;;1695.6
1836.0;1788.6;;;;;;;;;;;;;;0.92696923;-0.16479996;-0.2809534;;;;;1695.6
1836.0;1788.6;;;;;;;;;;;;;;;;;38.296917;-0.19455549;18.993958;;1695.6
1836.0;1788.6;;;;;;;;;;;;;;0.93923765;-0.1805475;-0.2626423;;;;;1695.6
1836.0;1788.9;;;;-0.30939487;1.0296212;0.1398697;;;;;;;;;;;;;;;
1836.0;1788.9;;;;-0.31117633;1.0402375;0.13832475;;;;;;;;;;;;;;;
1836.0;1788.9;;;;-0.31279376;1.0514909;0.13644792;;;;;;;;;;;;;;;
1836.0;1788.9;;;;-0.31481174;1.0626527;0.13439943;;;;;;;;;;;;;;;
1836.0;1788.9;;;;-0.31588367;1.0727426;0.13337328;;;;;;;;;;;;;;;
1837.0;1789.8;;;;;;;;;;;;;;;;;39.838097;-0.10299997;18.230995;;1705.2
1837.0;1789.8;;;;;;;;;;;;;;0.95986813;-0.19019136;-0.2515946;;;;;1705.2
1837.0;1789.8;;;;;;;;;;;;;;;;;42.24906;1.2436292;17.80755;;1705.2
1837.0;1789.8;;;;;;;;;;;;;;0.98550373;-0.19226661;-0.23291726;;;;;1705.2
1837.0;1789.8;;;;;;;;;;;;;;;;;45.422985;1.823481;17.742699;;1714.9
1837.0;1789.8;;;;;;;;;;;;;;1.0099186;-0.20227668;-0.22418897;;;;;1714.9
1837.0;1789.8;;;;;;;;;;;;;;;;;48.200172;1.7433698;17.288734;;1714.9
1837.0;1789.8;;;;;;;;;;;;;;1.0360423;-0.20404676;-0.22779016;;;;;1714.9
1837.0;1789.8;;;;;;;;;;;;;;;;;50.931576;2.1591845;16.552477;;1724.6
1837.0;1789.8;;;;;;;;;;;;;;1.0613728;-0.19385357;-0.22705771;;;;;1724.6
1837.0;1789.8;;;;;;;;;;;;;;;;;53.30821;2.4681845;16.49907;;1724.6
1837.0;1789.8;;;;;;;;;;;;;;1.0839564;-0.18164617;-0.2318186;;;;;1724.6
1837.0;1794.8;;;;;;;;;;-16.312143;78.1846;-1.6327403;;;;;;;;;
1837.0;1794.8;;;;;;;0.27240822;-0.9866634;0.09039582;;;;;;;;;;;;
1837.0;1794.8;;;;;;;;;;-17.944883;77.8985;-2.3651845;;;;;;;;;
1837.0;1794.8;;;;;;;0.24762718;-0.9877621;0.06317332;;;;;;;;;;;;
1837.0;1798.7;;;;-0.31522372;1.0821878;0.13307191;;;;;;;;;;;;;;;
1837.0;1798.7;;;;-0.31466296;1.0906526;0.13239671;;;;;;;;;;;;;;;
1837.0;1798.7;;;;-0.31494907;1.0988885;0.13161089;;;;;;;;;;;;;;;
1837.0;1798.7;;;;-0.31526187;1.1058046;0.13190462;;;;;;;;;;;;;;;
1837.0;1798.7;;;;-0.31533054;1.1123239;0.13193895;;;;;;;;;;;;;;;
1837.0;1801.8;262143;262143;11342;;;;;;;;;;;;;;;;;;
1891.0;1804.3;;;;;;;;;;-18.456068;76.8952;-2.338481;;;;;;;;;
1891.0;1804.3;;;;;;;0.2233955;-0.9889828;0.047975097;;;;;;;;;;;;
1891.0;1804.3;;;;;;;;;;-17.91818;76.693016;-2.4071476;;;;;;;;;
1891.0;1804.3;;;;;;;0.23035371;-0.9617603;0.044312876;;;;;;;;;;;;
1891.0;1807.5;;;;;;;;;;;;;2714;;;;;;;;
1891.0;1807.5;;;;;;;;;;;;;2905;;;;;;;;
1891.0;1807.5;;;;;;;;;;;;;2685;;;;;;;;
1891.0;1807.5;;;;;;;;;;;;;2075;;;;;;;;
1891.0;1807.5;;;;;;;;;;;;;2468;;;;;;;;
1891.0;1808.7;;;;-0.31590274;1.1188203;0.13243486;;;;;;;;;;;;;;;
1891.0;1808.7;;;;-0.31610873;1.1240541;0.1322632;;;;;;;;;;;;;;;
1891.0;1808.7;;;;-0.3171158;1.1294328;0.13103105;;;;;;;;;;;;;;;
1891.0;1808.7;;;;-0.31684116;1.1344148;0.1299782;;;;;;;;;;;;;;;
1891.0;1808.7;;;;-0.31678393;1.1393243;0.12790681;;;;;;;;;;;;;;;
1891.0;1813.7;;;;;;;;;;-17.605364;77.24616;-4.0513325;;;;;;;;;
1891.0;1813.7;;;;;;;0.22974335;-0.93655205;0.038575396;;;;;;;;;;;;
1891.0;1813.7;;;;;;;;;;-18.417921;78.53938;-5.603961;;;;;;;;;
1891.0;1813.7;;;;;;;0.2301706;-0.9234901;0.03546251;;;;;;;;;;;;
1891.0;1818.8;;;;-0.31713107;1.1438905;0.12558748;;;;;;;;;;;;;;;
1891.0;1818.8;;;;-0.3170853;1.1480409;0.122741714;;;;;;;;;;;;;;;
1891.0;1818.8;;;;-0.31827167;1.1525003;0.12017824;;;;;;;;;;;;;;;
1891.0;1818.8;;;;-0.31907275;1.1563035;0.11734773;;;;;;;;;;;;;;;
1891.0;1818.8;;;;-0.32031253;1.1602212;0.11407091;;;;;;;;;;;;;;;
1891.0;1821.8;262143;262143;11346;;;;;;;;;;;;;;;;;;
1893.0;1823.3;;;;;;;;;;-19.409773;80.85116;-6.3783684;;;;;;;;;
1893.0;1823.3;;;;;;;0.22937712;-0.9267861;0.03814814;;;;;;;;;;;;
1893.0;1823.3;;;;;;;;;;-19.65392;83.6665;-6.5271463;;;;;;;;;
1893.0;1823.3;;;;;;;0.23407696;-0.9305093;0.042725913;;;;;;;;;;;;
1893.0;1828.9;;;;-0.32119372;1.1640779;0.11155702;;;;;;;;;;;;;;;
1893.0;1828.9;;;;-0.32216266;1.1675187;0.10910417;;;;;;;;;;;;;;;
1893.0;1828.9;;;;-0.32382205;1.1702768;0.105216995;;;;;;;;;;;;;;;
1893.0;1828.9;;;;-0.3257256;1.1725045;0.10132219;;;;;;;;;;;;;;;
1893.0;1828.9;;;;-0.327652;1.1749612;0.09827806;;;;;;;;;;;;;;;
1893.0;1832.9;;;;;;;;;;-19.909512;86.7069;-6.6225166;;;;;;;;;
1893.0;1832.9;;;;;;;0.24066897;-0.9360027;0.051271096;;;;;;;;;;;;
1893.0;1832.9;;;;;;;;;;-19.802696;90.07919;-6.7369614;;;;;;;;;
1893.0;1832.9;;;;;;;0.245674;-0.9400311;0.065858945;;;;;;;;;;;;
1893.0;1839.0;;;;-0.33023074;1.1782457;0.095001236;;;;;;;;;;;;;;;
1893.0;1839.0;;;;-0.33284;1.1815873;0.09209443;;;;;;;;;;;;;;;
1893.0;1839.0;;;;-0.33514026;1.1846238;0.08977128;;;;;;;;;;;;;;;
1893.0;1839.0;;;;-0.33676532;1.1881257;0.08847428;;;;;;;;;;;;;;;
1893.0;1839.0;;;;-0.3383713;1.1921045;0.08792878;;;;;;;;;;;;;;;
1894.0;1841.3;;;;;;;;;;;;;;;;;55.59709;3.0365918;16.571552;;1734.3
1894.0;1841.3;;;;;;;;;;;;;;1.1163671;-0.15826899;-0.22223578;;;;;1734.3
1894.0;1841.3;;;;;;;;;;;;;;;;;57.260353;2.5673697;16.449478;;1734.3
1894.0;1841.3;;;;;;;;;;;;;;1.1305276;-0.14600055;-0.2080752;;;;;1734.3
1894.0;1841.3;;;;;;;;;;;;;;;;;57.97754;0.24033326;16.52196;;1743.9
1894.0;1841.3;;;;;;;;;;;;;;1.1709342;-0.13257241;-0.20459609;;;;;1743.9
1894.0;1841.3;;;;;;;;;;;;;;;;;58.099613;-0.86214787;16.624958;;1743.9
1894.0;1841.3;;;;;;;;;;;;;;1.1961424;-0.13769951;-0.19837031;;;;;1743.9
1894.0;1841.3;;;;;;;;;;;;;;;;;58.141575;-1.003296;16.788996;;1753.3
1894.0;1841.3;;;;;;;;;;;;;;1.1961424;-0.13464767;-0.15900144;;;;;1753.3
1894.0;1841.3;;;;;;;;;;;;;;;;;58.252205;-1.5259255;16.445662;;1753.3
1894.0;1841.3;;;;;;;;;;;;;;1.1998657;-0.11719108;-0.133549;;;;;1753.3
1894.0;1842.1;;;;;;;;;;;;;;;;;58.05765;-1.1978515;15.961182;;1762.9
1894.0;1842.1;;;;;;;;;;;;;;1.2040772;-0.1225013;-0.114322335;;;;;1762.9
1894.0;1842.1;;;;;;;;;;;;;;;;;58.515427;0.5798517;14.671774;;1762.9
1894.0;1842.1;;;;;;;;;;;;;;1.2121341;-0.10889004;-0.105960265;;;;;1762.9
1894.0;1842.1;;;;;;;;;;;;;;;;;58.96939;2.8420362;12.810144;;1772.6
1894.0;1842.1;;;;;;;;;;;;;;1.2056643;-0.08270516;-0.10138249;;;;;1772.6
1894.0;1842.1;;;;;;;;;;;;;;;;;59.66369;4.6388135;10.631886;;1772.6
1894.0;1842.1;;;;;;;;;;;;;;1.1869869;-0.05652028;-0.09753716;;;;;1772.6
1894.0;1842.1;;;;;;;;;;;;;;;;;59.541615;5.1728873;7.629627;;1782.3
1894.0;1842.1;;;;;;;;;;;;;;1.1659901;-0.030823695;-0.09540086;;;;;1782.3
1894.0;1842.1;;;;;;;;;;;;;;;;;58.68328;4.135258;4.1772213;;1782.3
1894.0;1842.1;;;;;;;;;;;;;;1.1347392;-6.103702E-5;-0.08966338;;;;;1782.3
1900.0;1842.3;;;;;;;;;;-19.24955;93.76812;-6.595813;;;;;;;;;
1900.0;1842.3;;;;;;;0.24689475;-0.93655205;0.08197272;;;;;;;;;;;;
1900.0;1842.3;;;;;;;;;;-18.810846;97.201454;-6.282998;;;;;;;;;
1900.0;1842.3;;;;;;;0.24481948;-0.9326457;0.09912412;;;;;;;;;;;;
1900.0;1841.9;262143;262143;11346;;;;;;;;;;;;;;;;;;
1900.0;1847.7;;;;;;;;;;;;;4246;;;;;;;;
1900.0;1847.7;;;;;;;;;;;;;3498;;;;;;;;
1900.0;1847.7;;;;;;;;;;;;;-3806;;;;;;;;
1900.0;1847.7;;;;;;;;;;;;;-13233;;;;;;;;
1900.0;1847.7;;;;;;;;;;;;;-14364;;;;;;;;
1900.0;1848.8;;;;-0.33975223;1.196251;0.087219246;;;;;;;;;;;;;;;
1900.0;1848.8;;;;-0.3404465;1.2007867;0.08712388;;;;;;;;;;;;;;;
1900.0;1848.8;;;;-0.34115604;1.2055131;0.08735276;;;;;;;;;;;;;;;
1900.0;1848.8;;;;-0.34246066;1.2105905;0.087665565;;;;;;;;;;;;;;;
1900.0;1848.8;;;;-0.34405902;1.2159158;0.08676911;;;;;;;;;;;;;;;
1900.0;1852.0;;;;;;;;;;-18.158514;100.302895;-5.8099613;;;;;;;;;
1900.0;1852.0;;;;;;;0.23615223;-0.93545336;0.11334574;;;;;;;;;;;;
1900.0;1852.0;;;;;;;;;;-17.26966;103.16401;-5.2339244;;;;;;;;;
1900.0;1852.0;;;;;;;0.227546;-0.9402142;0.12909329;;;;;;;;;;;;
1900.0;1858.8;;;;-0.3465958;1.2212907;0.086406715;;;;;;;;;;;;;;;
1900.0;1858.8;;;;-0.34939578;1.2261316;0.08665467;;;;;;;;;;;;;;;
1900.0;1858.8;;;;-0.3518944;1.2311479;0.08638764;;;;;;;;;;;;;;;
1900.0;1858.8;;;;-0.35466388;1.2354089;0.086990364;;;;;;;;;;;;;;;
1900.0;1858.8;;;;-0.357132;1.2397043;0.08819199;;;;;;;;;;;;;;;
1953.0;1861.5;;;;;;;;;;-16.49144;105.1973;-4.627369;;;;;;;;;
1953.0;1861.5;;;;;;;0.2247383;-0.9454024;0.14148381;;;;;;;;;;;;
1953.0;1861.5;;;;;;;;;;-15.3698845;106.20823;-4.463332;;;;;;;;;
1953.0;1861.5;;;;;;;0.22107609;-0.9540086;0.14539018;;;;;;;;;;;;
1953.0;1862.0;262143;262143;11354;;;;;;;;;;;;;;;;;;
1953.0;1868.7;;;;-0.35940936;1.2430574;0.08986283;;;;;;;;;;;;;;;
1953.0;1868.7;;;;-0.3623505;1.2452966;0.091083534;;;;;;;;;;;;;;;
1953.0;1868.7;;;;-0.36409;1.2458535;0.09322358;;;;;;;;;;;;;;;
1953.0;1868.7;;;;-0.36695483;1.248005;0.095634475;;;;;;;;;;;;;;;
1953.0;1868.7;;;;-0.37194064;1.2506295;0.09762193;;;;;;;;;;;;;;;
1953.0;1870.8;;;;;;;;;;-14.023255;106.26545;-4.795221;;;;;;;;;
1953.0;1870.8;;;;;;;0.20685446;-0.9557176;0.14044619;;;;;;;;;;;;
1953.0;1870.8;;;;;;;;;;-12.48207;104.37712;-4.7265544;;;;;;;;;
1953.0;1870.8;;;;;;;0.18720053;-0.9587695;0.143437;;;;;;;;;;;;
1953.0;1878.6;;;;-0.37453845;1.2505075;0.10082246;;;;;;;;;;;;;;;
1953.0;1878.6;;;;-0.37642294;1.2486154;0.103439346;;;;;;;;;;;;;;;
1953.0;1878.6;;;;-0.37770087;1.2452241;0.10632326;;;;;;;;;;;;;;;
1953.0;1878.6;;;;-0.3787728;1.240532;0.10894777;;;;;;;;;;;;;;;
1953.0;1878.6;;;;-0.3799935;1.2349244;0.11065294;;;;;;;;;;;;;;;
1953.0;1880.3;;;;;;;;;;-10.074923;99.74593;-4.0971103;;;;;;;;;
1953.0;1880.3;;;;;;;0.16724144;-0.9681082;0.14166692;;;;;;;;;;;;
1953.0;1880.3;;;;;;;;;;-7.1642203;93.07764;-3.5782952;;;;;;;;;
1953.0;1880.3;;;;;;;0.15277566;-0.97561574;0.14252144;;;;;;;;;;;;
2011.0;1881.9;262143;262143;11354;;;;;;;;;;;;;;;;;;
2011.0;1887.7;;;;;;;;;;;;;-3855;;;;;;;;
2011.0;1887.7;;;;;;;;;;;;;9185;;;;;;;;
2011.0;1887.7;;;;;;;;;;;;;13792;;;;;;;;
2011.0;1887.7;;;;;;;;;;;;;9379;;;;;;;;
2011.0;1887.7;;;;;;;;;;;;;3507;;;;;;;;
2011.0;1888.8;;;;-0.3812409;1.2287141;0.11257173;;;;;;;;;;;;;;;
2011.0;1888.8;;;;-0.38260657;1.2212335;0.1148224;;;;;;;;;;;;;;;
2011.0;1888.8;;;;-0.38358694;1.2125818;0.116180435;;;;;;;;;;;;;;;
2011.0;1888.8;;;;-0.38550574;1.2024499;0.11735918;;;;;;;;;;;;;;;
2011.0;1888.8;;;;-0.38750845;1.191105;0.118373886;;;;;;;;;;;;;;;
2011.0;1889.9;;;;;;;;;;-3.7766654;84.63546;-3.4447768;;;;;;;;;
2011.0;1889.9;;;;;;;0.14105655;-0.98330635;0.1436201;;;;;;;;;;;;
2011.0;1889.9;;;;;;;;;;-0.24033326;76.30391;-3.8529618;;;;;;;;;
2011.0;1889.9;;;;;;;0.14795373;-0.9818415;0.13592944;;;;;;;;;;;;
2011.0;1898.9;;;;-0.38965613;1.1796571;0.119251266;;;;;;;;;;;;;;;
2011.0;1898.9;;;;-0.39205176;1.1673089;0.12131502;;;;;;;;;;;;;;;
2011.0;1898.9;;;;-0.39384848;1.1553956;0.12381746;;;;;;;;;;;;;;;
2011.0;1898.9;;;;-0.39618307;1.1434518;0.12563707;;;;;;;;;;;;;;;
2011.0;1898.9;;;;-0.39841086;1.131836;0.12687303;;;;;;;;;;;;;;;
2011.0;1899.6;;;;;;;;;;2.6741846;69.643234;-4.932554;;;;;;;;;
2011.0;1899.6;;;;;;;0.1767632;-0.97811824;0.12897122;;;;;;;;;;;;
2011.0;1899.6;;;;;;;;;;4.951628;64.26054;-6.538591;;;;;;;;;
2011.0;1899.6;;;;;;;0.21613209;-0.9709769;0.11572619;;;;;;;;;;;;
2011.0;1902.1;262143;262143;11350;;;;;;;;;;;;;;;;;;
2071.0;1909.0;;;;;;;;;;;;;;;;;55.99765;1.678518;0.30518508;;1791.9
2071.0;1909.0;;;;;;;;;;;;;;1.1028779;0.021973327;-0.07147435;;;;;1791.9
2071.0;1909.0;;;;;;;;;;;;;;;;;52.102726;-1.0490738;-3.9025545;;1791.9
2071.0;1909.0;;;;;;;;;;;;;;1.0870082;0.035157323;-0.04815821;;;;;1791.9
2071.0;1909.0;;;;;;;;;;;;;;;;;47.536392;-3.707999;-8.484145;;1801.5
2071.0;1909.0;;;;;;;;;;;;;;1.0732139;0.046571247;-0.03277688;;;;;1801.5
2071.0;1909.0;;;;;;;;;;;;;;;;;42.43599;-6.7445908;-13.863032;;1801.5
2071.0;1909.0;;;;;;;;;;;;;;1.0594805;0.057252724;-0.015381329;;;;;1801.5
2071.0;1909.0;;;;;;;;;;;;;;;;;37.29362;-9.235664;-19.173254;;1811.2
2071.0;1909.0;;;;;;;;;;;;;;1.0741295;0.04626606;-0.012634663;;;;;1811.2
2071.0;1909.0;;;;;;;;;;;;;;;;;32.40684;-11.223182;-24.815363;;1811.2
2071.0;1909.0;;;;;;;;;;;;;;1.0796838;0.030945769;-0.019898068;;;;;1811.2
2071.0;1908.9;;;;-0.40039068;1.1200715;0.12826158;;;;;;;;;;;;;;;
2071.0;1908.9;;;;-0.4025193;1.109253;0.12986757;;;;;;;;;;;;;;;
2071.0;1908.9;;;;-0.40406042;1.0984079;0.13141252;;;;;;;;;;;;;;;
2071.0;1908.9;;;;-0.40627676;1.0867425;0.13236238;;;;;;;;;;;;;;;
2071.0;1908.9;;;;-0.4068871;1.0750734;0.13334657;;;;;;;;;;;;;;;
2071.0;1909.1;;;;;;;;;;6.939146;60.289314;-8.144628;;;;;;;;;
2071.0;1909.1;;;;;;;0.25421917;-0.9660329;0.0999176;;;;;;;;;;;;
2071.0;1909.1;;;;;;;;;;8.644367;57.63802;-9.285256;;;;;;;;;
2071.0;1909.1;;;;;;;0.27918333;-0.9663381;0.08294931;;;;;;;;;;;;
2078.0;1909.7;;;;;;;;;;;;;;;;;27.806177;-12.749107;-30.877102;;1820.8
2078.0;1909.7;;;;;;;;;;;;;;1.0816981;0.017273476;-0.017578661;;;;;1820.8
2078.0;1909.7;;;;;;;;;;;;;;;;;23.003326;-14.698478;-37.224953;;1820.8
2078.0;1909.7;;;;;;;;;;;;;;1.0703452;0.007202368;-0.012329478;;;;;1820.8
2078.0;1909.7;;;;;;;;;;;;;;;;;18.257698;-16.685995;-43.60332;;1830.5
2078.0;1909.7;;;;;;;;;;;;;;1.0612507;-8.5451826E-4;-0.007873775;;;;;1830.5
2078.0;1909.7;;;;;;;;;;;;;;;;;13.664663;-18.635365;-49.798576;;1830.5
2078.0;1909.7;;;;;;;;;;;;;;1.0497757;-0.010132145;-0.018189032;;;;;1830.5
2078.0;1909.7;;;;;;;;;;;;;;;;;9.563738;-20.100252;-56.104465;;1840.0
2078.0;1909.7;;;;;;;;;;;;;;1.0402539;-0.01556444;-0.04119999;;;;;1840.0
2078.0;1909.7;;;;;;;;;;;;;;;;;6.172369;-21.084475;-62.475204;;1840.0
2078.0;1909.7;;;;;;;;;;;;;;1.0252998;-0.018127995;-0.07806635;;;;;1840.0
2078.0;1918.4;;;;;;;;;;10.307627;55.536057;-9.495071;;;;;;;;;
2078.0;1918.4;;;;;;;0.29322183;-0.9670705;0.074098945;;;;;;;;;;;;
2078.0;1918.4;;;;;;;;;;12.1654415;53.876614;-9.01059;;;;;;;;;
2078.0;1918.4;;;;;;;0.29749444;-0.9704276;0.057008576;;;;;;;;;;;;
2078.0;1918.7;;;;-0.40692908;1.0633699;0.13502122;;;;;;;;;;;;;;;
2078.0;1918.7;;;;-0.40682226;1.0515481;0.13637544;;;;;;;;;;;;;;;
2078.0;1918.7;;;;-0.40611273;1.0389024;0.13726427;;;;;;;;;;;;;;;
2078.0;1918.7;;;;-0.40443045;1.0259134;0.13826753;;;;;;;;;;;;;;;
2078.0;1918.7;;;;-0.40279013;1.0126992;0.13999178;;;;;;;;;;;;;;;
2078.0;1922.0;262143;262143;11346;;;;;;;;;;;;;;;;;;
2079.0;1927.7;;;;;;;;;;;;;1098;;;;;;;;
2079.0;1927.7;;;;;;;;;;;;;901;;;;;;;;
2079.0;1927.7;;;;;;;;;;;;;675;;;;;;;;
2079.0;1927.7;;;;;;;;;;;;;193;;;;;;;;
2079.0;1927.7;;;;;;;;;;;;;-272;;;;;;;;
2079.0;1927.9;;;;;;;;;;13.53496;52.285835;-8.457442;;;;;;;;;
2079.0;1927.9;;;;;;;0.29865414;-0.9720756;0.04504532;;;;;;;;;;;;
2079.0;1927.9;;;;;;;;;;14.816737;50.073242;-8.224739;;;;;;;;;
2079.0;1927.9;;;;;;;0.28217414;-0.9812921;0.050904874;;;;;;;;;;;;
2079.0;1928.7;;;;-0.401352;0.99842083;0.13998415;;;;;;;;;;;;;;;
2079.0;1928.7;;;;-0.39805228;0.9839822;0.14265062;;;;;;;;;;;;;;;
2079.0;1928.7;;;;-0.3938294;0.97013104;0.14424135;;;;;;;;;;;;;;;
2079.0;1928.7;;;;-0.3908425;0.9564973;0.14529802;;;;;;;;;;;;;;;
2079.0;1928.7;;;;-0.387909;0.9422761;0.14653017;;;;;;;;;;;;;;;
2079.0;1937.4;;;;;;;;;;16.953032;47.19306;-7.7936645;;;;;;;;;
2079.0;1937.4;;;;;;;0.25611132;-0.9912412;0.05774102;;;;;;;;;;;;
2079.0;1937.4;;;;;;;;;;18.944365;43.755913;-7.374035;;;;;;;;;
2079.0;1937.4;;;;;;;0.23987548;-0.9988708;0.062135685;;;;;;;;;;;;
2079.0;1938.7;;;;-0.38336188;0.92811215;0.1477051;;;;;;;;;;;;;;;
2079.0;1938.7;;;;-0.37797934;0.91443646;0.1481743;;;;;;;;;;;;;;;
2079.0;1938.7;;;;-0.37098315;0.9015428;0.14941026;;;;;;;;;;;;;;;
2079.0;1938.7;;;;-0.36563495;0.88949215;0.14885332;;;;;;;;;;;;;;;
2079.0;1938.7;;;;-0.36100772;0.8774568;0.14772798;;;;;;;;;;;;;;;
2079.0;1942.1;262143;262143;11325;;;;;;;;;;;;;;;;;;
2081.0;1947.0;;;;;;;;;;20.275734;39.853355;-7.969146;;;;;;;;;
2081.0;1947.0;;;;;;;0.244026;-1.0000916;0.06640828;;;;;;;;;;;;
2081.0;1947.0;;;;;;;;;;21.30955;35.06195;-9.701072;;;;;;;;;
2081.0;1947.0;;;;;;;0.25055698;-0.99667346;0.08716086;;;;;;;;;;;;
2081.0;1948.8;;;;-0.3564873;0.8645326;0.14631654;;;;;;;;;;;;;;;
2081.0;1948.8;;;;-0.35131457;0.8519975;0.1443596;;;;;;;;;;;;;;;
2081.0;1948.8;;;;-0.34578326;0.8411447;0.14270784;;;;;;;;;;;;;;;
2081.0;1948.8;;;;-0.3406296;0.8302728;0.1410637;;;;;;;;;;;;;;;
2081.0;1948.8;;;;-0.33459476;0.82172024;0.13943101;;;;;;;;;;;;;;;
2081.0;1956.7;;;;;;;;;;22.808771;29.007843;-11.780145;;;;;;;;;
2081.0;1956.7;;;;;;;0.2512894;-0.9953307;0.09747612;;;;;;;;;;;;
2081.0;1956.7;;;;;;;;;;23.97229;22.953733;-13.149663;;;;;;;;;
2081.0;1956.7;;;;;;;0.26276436;-0.99215674;0.10467849;;;;;;;;;;;;
2081.0;1958.9;;;;-0.33179095;0.8126718;0.13658144;;;;;;;;;;;;;;;
2081.0;1958.9;;;;-0.32743838;0.8039323;0.13502504;;;;;;;;;;;;;;;
2081.0;1958.9;;;;-0.32295993;0.7981378;0.13394548;;;;;;;;;;;;;;;
2081.0;1958.9;;;;-0.3195038;0.7919198;0.1322899;;;;;;;;;;;;;;;
2081.0;1958.9;;;;-0.3143883;0.7858354;0.13017274;;;;;;;;;;;;;;;
2082.0;1961.9;;;;;;;;;;;;;;;;;3.1014435;-21.469772;-68.82305;;1849.7
2082.0;1961.9;;;;;;;;;;;;;;1.0097353;-0.021973327;-0.11951049;;;;;1849.7
2082.0;1961.9;;;;;;;;;;;;;;;;;0.6065554;-21.80166;-75.29298;;1849.7
2082.0;1961.9;;;;;;;;;;;;;;0.9897763;-0.031250954;-0.14416943;;;;;1849.7
2082.0;1961.9;;;;;;;;;;;;;;;;;-1.1291848;-23.117771;-81.68661;;1859.4
2082.0;1961.9;;;;;;;;;;;;;;0.96017337;-0.038819544;-0.15967284;;;;;1859.4
2082.0;1961.9;;;;;;;;;;;;;;;;;-2.1744437;-25.1854;-87.32109;;1859.4
2082.0;1961.9;;;;;;;;;;;;;;0.9311808;-0.038026065;-0.15533921;;;;;1859.4
2082.0;1961.9;;;;;;;;;;;;;;;;;-4.1123695;-27.26829;-92.50923;;1869.0
2082.0;1961.9;;;;;;;;;;;;;;0.9023713;-0.035340436;-0.14172795;;;;;1869.0
2082.0;1961.9;;;;;;;;;;;;;;;;;-5.413221;-28.073214;-97.09083;;1869.0
2082.0;1961.9;;;;;;;;;;;;;;0.87166965;-0.034669027;-0.09668264;;;;;1869.0
2082.0;1962.3;262143;262143;11318;;;;;;;;;;;;;;;;;;
2082.0;1966.3;;;;;;;;;;24.452957;17.220068;-13.901181;;;;;;;;;
2082.0;1966.3;;;;;;;0.2806482;-0.99038666;0.111636706;;;;;;;;;;;;
2082.0;1966.3;;;;;;;;;;25.090029;11.337626;-14.671774;;;;;;;;;
2082.0;1966.3;;;;;;;0.29090244;-0.9950865;0.12225715;;;;;;;;;;;;
2082.0;1968.1;;;;;;;;;;;;;-553;;;;;;;;
2082.0;1968.1;;;;;;;;;;;;;-585;;;;;;;;
2082.0;1968.1;;;;;;;;;;;;;-674;;;;;;;;
2082.0;1968.1;;;;;;;;;;;;;-1094;;;;;;;;
2082.0;1968.1;;;;;;;;;;;;;-1745;;;;;;;;
2083.0;1968.9;;;;;;;;;;;;;;;;;-5.874813;-28.015991;-101.77541;;1878.4
2083.0;1968.9;;;;;;;;;;;;;;0.8535417;-0.023316141;-0.049745172;;;;;1878.4
2083.0;1968.9;;;;;;;;;;;;;;;;;-5.409406;-27.2454;-106.532486;;1878.4
2083.0;1968.9;;;;;;;;;;;;;;0.82778406;-0.013550218;0.013489181;;;;;1878.4
2083.0;1968.9;;;;;;;;;;;;;;;;;-4.3298135;-27.294992;-111.15222;;1888.0
2083.0;1968.9;;;;;;;;;;;;;;0.81356245;-0.030213324;0.05084384;;;;;1888.0
2083.0;1968.9;;;;;;;;;;;;;;;;;-1.0376294;-26.135288;-115.69186;;1888.0
2083.0;1968.9;;;;;;;;;;;;;;0.81295204;-0.042237617;0.08496353;;;;;1888.0
2083.0;1968.9;;;;;;;;;;;;;;;;;3.4257026;-25.028992;-119.73556;;1897.6
2083.0;1968.9;;;;;;;;;;;;;;0.8148442;-0.048402358;0.121768855;;;;;1897.6
2083.0;1968.9;;;;;;;;;;;;;;;;;5.6192203;-24.143957;-123.996704;;1897.6
2083.0;1968.9;;;;;;;;;;;;;;0.839198;-0.05450606;0.1363567;;;;;1897.6
2083.0;1968.8;;;;-0.30941394;0.7824708;0.12822725;;;;;;;;;;;;;;;
2083.0;1968.8;;;;-0.3033791;0.77980816;0.12766267;;;;;;;;;;;;;;;
2083.0;1968.8;;;;-0.29671863;0.7790109;0.12615205;;;;;;;;;;;;;;;
2083.0;1968.8;;;;-0.29086688;0.7793771;0.12437059;;;;;;;;;;;;;;;
2083.0;1968.8;;;;-0.28488544;0.78115857;0.12217714;;;;;;;;;;;;;;;
2083.0;1975.6;;;;;;;;;;26.066622;5.94348;-15.217292;;;;;;;;;
2083.0;1975.6;;;;;;;0.29963073;-1.0036927;0.13177893;;;;;;;;;;;;
2083.0;1975.6;;;;;;;;;;27.508621;0.12970367;-15.694143;;;;;;;;;
2083.0;1975.6;;;;;;;0.30774865;-1.0097353;0.15002899;;;;;;;;;;;;
2084.0;1978.7;;;;-0.27864078;0.7845231;0.120037094;;;;;;;;;;;;;;;
2084.0;1978.7;;;;-0.27282718;0.7880746;0.11801912;;;;;;;;;;;;;;;
2084.0;1978.7;;;;-0.26596072;0.7914163;0.11589815;;;;;;;;;;;;;;;
2084.0;1978.7;;;;-0.25959018;0.7965852;0.11420442;;;;;;;;;;;;;;;
2084.0;1978.7;;;;-0.25324252;0.80199826;0.112590805;;;;;;;;;;;;;;;
2084.0;1982.2;262143;262143;11321;;;;;;;;;;;;;;;;;;
2084.0;1985.2;;;;;;;;;;29.236732;-6.427961;-16.037477;;;;;;;;;
2084.0;1985.2;;;;;;;0.31464583;-1.0148625;0.16266365;;;;;;;;;;;;
2084.0;1985.2;;;;;;;;;;30.846582;-13.142034;-16.453293;;;;;;;;;
2084.0;1985.2;;;;;;;0.32190925;-1.0141301;0.16595966;;;;;;;;;;;;
2084.0;1988.7;;;;-0.24769214;0.80688107;0.11065294;;;;;;;;;;;;;;;
2084.0;1988.7;;;;-0.24222186;0.8121339;0.10928346;;;;;;;;;;;;;;;
2084.0;1988.7;;;;-0.23659518;0.8178674;0.10762407;;;;;;;;;;;;;;;
2084.0;1988.7;;;;-0.23184589;0.8227464;0.106540695;;;;;;;;;;;;;;;
2084.0;1988.7;;;;-0.22635272;0.82714474;0.10481645;;;;;;;;;;;;;;;
2084.0;1994.7;;;;;;;;;;32.021545;-18.986328;-17.17429;;;;;;;;;
2084.0;1994.7;;;;;;;0.33399457;-1.01236;0.16394544;;;;;;;;;;;;
2084.0;1994.7;;;;;;;;;;32.891323;-23.731956;-17.986847;;;;;;;;;
2084.0;1994.7;;;;;;;0.34797204;-1.0077212;0.16229743;;;;;;;;;;;;
2085.0;1998.8;;;;-0.2218323;0.83197796;0.1035309;;;;;;;;;;;;;;;
2085.0;1998.8;;;;-0.21766666;0.8361894;0.10196306;;;;;;;;;;;;;;;
2085.0;1998.8;;;;-0.21360782;0.84032834;0.10028078;;;;;;;;;;;;;;;
2085.0;1998.8;;;;-0.21027759;0.8442384;0.09931947;;;;;;;;;;;;;;;
2085.0;1998.8;;;;-0.2077103;0.84749615;0.09806825;;;;;;;;;;;;;;;
2085.0;2002.3;262143;262143;11314;;;;;;;;;;;;;;;;;;
2085.0;2004.3;;;;;;;;;;33.917507;-27.703176;-18.723106;;;;;;;;;
2085.0;2004.3;;;;;;;0.36152226;-1.0038759;0.17120884;;;;;;;;;;;;
2085.0;2004.3;;;;;;;;;;35.321358;-31.487473;-19.35255;;;;;;;;;
2085.0;2004.3;;;;;;;0.37202063;-1.0048524;0.18298899;;;;;;;;;;;;
2085.0;2008.1;;;;;;;;;;;;;-2393;;;;;;;;
2085.0;2008.1;;;;;;;;;;;;;-3030;;;;;;;;
2085.0;2008.1;;;;;;;;;;;;;-3721;;;;;;;;
2085.0;2008.1;;;;;;;;;;;;;-4369;;;;;;;;
2085.0;2008.1;;;;;;;;;;;;;-4844;;;;;;;;
2085.0;2008.9;;;;-0.20538333;0.85141766;0.09725191;;;;;;;;;;;;;;;
2085.0;2008.9;;;;-0.2032471;0.8544313;0.09655;;;;;;;;;;;;;;;
2085.0;2008.9;;;;-0.20149234;0.8579217;0.0954323;;;;;;;;;;;;;;;
2085.0;2008.9;;;;-0.20022205;0.86112607;0.09477998;;;;;;;;;;;;;;;
2085.0;2008.9;;;;-0.19903186;0.86478055;0.095958725;;;;;;;;;;;;;;;
2085.0;2013.9;;;;;;;;;;37.038025;-35.126804;-19.909512;;;;;;;;;
2085.0;2013.9;;;;;;;0.38026062;-1.002472;0.18860438;;;;;;;;;;;;
2085.0;2013.9;;;;;;;;;;38.598286;-38.44188;-20.516068;;;;;;;;;
2085.0;2013.9;;;;;;;0.3861812;-0.9967345;0.19293801;;;;;;;;;;;;
2087.0;2019.0;;;;-0.19796756;0.86851895;0.09711458;;;;;;;;;;;;;;;
2087.0;2019.0;;;;-0.19641879;0.87259686;0.09727098;;;;;;;;;;;;;;;
2087.0;2019.0;;;;-0.19552234;0.87649167;0.09717561;;;;;;;;;;;;;;;
2087.0;2019.0;;;;-0.1948624;0.8801271;0.09683229;;;;;;;;;;;;;;;
2087.0;2019.0;;;;-0.19446948;0.8837396;0.09674074;;;;;;;;;;;;;;;
2087.0;2021.7;;;;;;;;;;;;;;;;;8.9991455;-22.244177;-124.988556;;1907.3
2087.0;2021.7;;;;;;;;;;;;;;0.88265634;-0.06860561;0.16565447;;;;;1907.3
2087.0;2021.7;;;;;;;;;;;;;;;;;13.4167;-20.321512;-124.988556;;1907.3
2087.0;2021.7;;;;;;;;;;;;;;0.9272134;-0.07861568;0.18018128;;;;;1907.3
2087.0;2021.7;;;;;;;;;;;;;;;;;17.845697;-18.486588;-124.988556;;1916.9
2087.0;2021.7;;;;;;;;;;;;;;1.0031434;-0.07660146;0.18842128;;;;;1916.9
2087.0;2021.7;;;;;;;;;;;;;;;;;22.495956;-16.296885;-124.988556;;1916.9
2087.0;2021.7;;;;;;;;;;;;;;1.0962249;-0.12707907;0.19367047;;;;;1916.9
2087.0;2021.7;;;;;;;;;;;;;;;;;27.218697;-12.466811;-124.988556;;1926.5
2087.0;2021.7;;;;;;;;;;;;;;1.1879025;-0.15570544;0.19733268;;;;;1926.5
2087.0;2021.7;;;;;;;;;;;;;;;;;35.27558;-7.187109;-124.988556;;1926.5
2087.0;2021.7;;;;;;;;;;;;;;1.2800684;-0.17511521;0.18659016;;;;;1926.5
2088.0;2022.5;;;;;;;;;;;;;;;;;45.850246;1.12537;-124.988556;;1936.0
2088.0;2022.5;;;;;;;;;;;;;;1.3399457;-0.18274483;0.19928586;;;;;1936.0
2088.0;2022.5;;;;;;;;;;;;;;;;;54.261913;9.708701;-124.988556;;1936.0
2088.0;2022.5;;;;;;;;;;;;;;1.3952452;-0.17914365;0.23950927;;;;;1936.0
2088.0;2022.5;;;;;;;;;;;;;;;;;61.376537;15.14481;-124.988556;;1945.6
2088.0;2022.5;;;;;;;;;;;;;;1.4224677;-0.1612598;0.30719933;;;;;1945.6
2088.0;2022.5;;;;;;;;;;;;;;;;;63.98587;9.613331;-124.988556;;1945.6
2088.0;2022.5;;;;;;;;;;;;;;1.4433423;-0.22461623;0.29584643;;;;;1945.6
2088.0;2022.5;;;;;;;;;;;;;;;;;64.20713;2.601703;-124.93515;;1955.3
2088.0;2022.5;;;;;;;;;;;;;;1.4122746;-0.21851254;0.2766808;;;;;1955.3
2088.0;2022.5;;;;;;;;;;;;;;;;;56.905575;-0.6065554;-123.54274;;1955.3
2088.0;2022.5;;;;;;;;;;;;;;1.3357952;-0.20239876;0.2684408;;;;;1955.3
2088.0;2022.4;262143;262143;11313;;;;;;;;;;;;;;;;;;
2088.0;2023.3;;;;;;;;;;40.025024;-41.886654;-21.385845;;;;;;;;;
2088.0;2023.3;;;;;;;0.3897824;-0.9884945;0.1993469;;;;;;;;;;;;
2088.0;2023.3;;;;;;;;;;41.394543;-45.018616;-22.339548;;;;;;;;;
2088.0;2023.3;;;;;;;0.39466536;-0.9748222;0.20587787;;;;;;;;;;;;
2088.0;2028.7;;;;-0.19390109;0.8867265;0.09635927;;;;;;;;;;;;;;;
2088.0;2028.7;;;;-0.19347766;0.8897706;0.09632875;;;;;;;;;;;;;;;
2088.0;2028.7;;;;-0.19356158;0.8926736;0.09671022;;;;;;;;;;;;;;;
2088.0;2028.7;;;;-0.19426349;0.89558804;0.0966797;;;;;;;;;;;;;;;
2088.0;2028.7;;;;-0.19474795;0.89764416;0.0978203;;;;;;;;;;;;;;;
2089.0;2032.8;;;;;;;;;;42.668694;-48.028503;-23.403881;;;;;;;;;
2089.0;2032.8;;;;;;;0.40205085;-0.9637745;0.21240883;;;;;;;;;;;;
2089.0;2032.8;;;;;;;;;;43.82458;-51.25202;-24.842066;;;;;;;;;
2089.0;2032.8;;;;;;;0.40778834;-0.9519333;0.22125919;;;;;;;;;;;;
2089.0;2038.7;;;;-0.19498828;0.89930737;0.09916307;;;;;;;;;;;;;;;
2089.0;2038.7;;;;-0.1952019;0.9007188;0.10053636;;;;;;;;;;;;;;;
2089.0;2038.7;;;;-0.19531634;0.902218;0.10122682;;;;;;;;;;;;;;;
2089.0;2038.7;;;;-0.19596484;0.90329754;0.10172273;;;;;;;;;;;;;;;
2089.0;2038.7;;;;-0.1976929;0.9045564;0.1010399;;;;;;;;;;;;;;;
2089.0;2042.3;;;;;;;;;;44.774467;-54.361095;-26.570177;;;;;;;;;
2089.0;2042.3;;;;;;;0.4185919;-0.94424266;0.22779016;;;;;;;;;;;;
2089.0;2042.3;;;;;;;;;;45.62517;-56.932278;-28.56151;;;;;;;;;
2089.0;2042.3;;;;;;;0.42713705;-0.9335612;0.2327952;;;;;;;;;;;;
2089.0;2042.4;262143;262143;11312;;;;;;;;;;;;;;;;;;
2089.0;2048.2;;;;;;;;;;;;;-5209;;;;;;;;
2089.0;2048.2;;;;;;;;;;;;;-5533;;;;;;;;
2089.0;2048.2;;;;;;;;;;;;;-5705;;;;;;;;
2089.0;2048.2;;;;;;;;;;;;;-5653;;;;;;;;
2089.0;2048.2;;;;;;;;;;;;;-5472;;;;;;;;
2089.0;2048.8;;;;-0.19921878;0.90529263;0.101051345;;;;;;;;;;;;;;;
2089.0;2048.8;;;;-0.20073321;0.9062196;0.10074617;;;;;;;;;;;;;;;
2089.0;2048.8;;;;-0.20285419;0.9077188;0.10063173;;;;;;;;;;;;;;;
2089.0;2048.8;;;;-0.20583728;0.90862286;0.100540176;;;;;;;;;;;;;;;
2089.0;2048.8;;;;-0.20787051;0.9087335;0.10002138;;;;;;;;;;;;;;;
2131.0;2051.9;;;;;;;;;;46.42628;-59.118168;-30.541397;;;;;;;;;
2131.0;2051.9;;;;;;;0.4350719;-0.92287976;0.23566394;;;;;;;;;;;;
2131.0;2051.9;;;;;;;;;;46.918392;-61.02939;-32.498398;;;;;;;;;
2131.0;2051.9;;;;;;;0.4390393;-0.91433454;0.23688467;;;;;;;;;;;;
2131.0;2058.3;;;;-0.20967487;0.90955746;0.10001756;;;;;;;;;;;;;;;
2131.0;2058.3;;;;-0.21103671;0.9100114;0.099483505;;;;;;;;;;;;;;;
2131.0;2058.3;;;;-0.21253589;0.9100877;0.098087326;;;;;;;;;;;;;;;
2131.0;2058.3;;;;-0.21448901;0.9100076;0.09791185;;;;;;;;;;;;;;;
2131.0;2058.3;;;;-0.21683124;0.9100419;0.09637834;;;;;;;;;;;;;;;
2131.0;2060.9;;;;;;;;;;47.05191;-62.6278;-34.199802;;;;;;;;;
2131.0;2060.9;;;;;;;0.44392225;-0.901883;0.2365795;;;;;;;;;;;;
2131.0;2060.9;;;;;;;;;;47.04428;-63.997314;-35.744804;;;;;;;;;
2131.0;2060.9;;;;;;;0.44349498;-0.895352;0.23444319;;;;;;;;;;;;
2131.0;2061.9;262143;262143;11317;;;;;;;;;;;;;;;;;;
2131.0;2068.3;;;;-0.21868137;0.9098016;0.095016494;;;;;;;;;;;;;;;
2131.0;2068.3;;;;-0.22109225;0.9086343;0.09390642;;;;;;;;;;;;;;;
2131.0;2068.3;;;;-0.22264102;0.9072534;0.093456276;;;;;;;;;;;;;;;
2131.0;2068.3;;;;-0.22353366;0.90498364;0.09207917;;;;;;;;;;;;;;;
2131.0;2068.3;;;;-0.22244647;0.90264523;0.09134675;;;;;;;;;;;;;;;
2131.0;2070.4;;;;;;;;;;46.803947;-65.103615;-37.244026;;;;;;;;;
2131.0;2070.4;;;;;;;0.4448378;-0.8881497;0.23285623;;;;;;;;;;;;
2131.0;2070.4;;;;;;;;;;46.346172;-66.07258;-38.785213;;;;;;;;;
2131.0;2070.4;;;;;;;0.4450209;-0.8827784;0.22821741;;;;;;;;;;;;
2191.0;2078.4;;;;-0.22218707;0.8998643;0.088981636;;;;;;;;;;;;;;;
2191.0;2078.4;;;;-0.22213367;0.896103;0.08723832;;;;;;;;;;;;;;;
2191.0;2078.4;;;;-0.22150043;0.89221203;0.0846901;;;;;;;;;;;;;;;
2191.0;2078.4;;;;-0.2218323;0.8881303;0.08228303;;;;;;;;;;;;;;;
2191.0;2078.4;;;;-0.2230263;0.88401043;0.08034516;;;;;;;;;;;;;;;
2191.0;2080.0;;;;;;;;;;45.83117;-66.76687;-40.40269;;;;;;;;;
2191.0;2080.0;;;;;;;0.44691306;-0.8791772;0.22321238;;;;;;;;;;;;
2191.0;2080.0;;;;;;;;;;45.110172;-67.32002;-41.94388;;;;;;;;;
2191.0;2080.0;;;;;;;0.44721824;-0.87710196;0.21802424;;;;;;;;;;;;
2191.0;2081.5;;;;;;;;;;;;;;;;;48.83343;-1.289407;-119.81185;;1964.9
2191.0;2081.5;;;;;;;;;;;;;;1.2562029;-0.19330424;0.2837611;;;;;1964.9
2191.0;2081.5;;;;;;;;;;;;;;;;;43.988617;-9.331035;-115.920746;;1964.9
2191.0;2081.5;;;;;;;;;;;;;;1.2123783;-0.15369122;0.24292734;;;;;1964.9
2191.0;2081.5;;;;;;;;;;;;;;;;;36.473434;-18.658255;-112.456894;;1974.4
2191.0;2081.5;;;;;;;;;;;;;;1.1807001;-0.13556322;0.17334513;;;;;1974.4
2191.0;2081.5;;;;;;;;;;;;;;;;;28.321177;-24.502548;-109.27153;;1974.4
2191.0;2081.5;;;;;;;;;;;;;;1.1176488;-0.14734337;0.13629566;;;;;1974.4
2191.0;2081.5;;;;;;;;;;;;;;;;;22.381512;-30.648212;-106.23493;;1984.1
2191.0;2081.5;;;;;;;;;;;;;;1.084811;-0.17908262;0.07605213;;;;;1984.1
2191.0;2081.5;;;;;;;;;;;;;;;;;22.179325;-33.92132;-102.54219;;1984.1
2191.0;2081.5;;;;;;;;;;;;;;1.0901212;-0.16357921;0.043336283;;;;;1984.1
2193.0;2082.4;;;;;;;;;;;;;;;;;17.975403;-29.911955;-103.64849;;1993.7
2193.0;2082.4;;;;;;;;;;;;;;1.0868862;-0.05963317;0.059450056;;;;;1993.7
2193.0;2082.4;;;;;;;;;;;;;;;;;12.844478;-28.786585;-103.20597;;1993.7
2193.0;2082.4;;;;;;;;;;;;;;1.121189;-0.032288585;0.060487688;;;;;1993.7
2193.0;2082.4;;;;;;;;;;;;;;;;;14.778588;-31.014435;-100.79119;;2003.3
2193.0;2082.4;;;;;;;;;;;;;;1.1592761;0.005981628;0.035157323;;;;;2003.3
2193.0;2082.4;;;;;;;;;;;;;;;;;16.49907;-28.798029;-98.593864;;2003.3
2193.0;2082.4;;;;;;;;;;;;;;1.180517;0.014831996;0.009155553;;;;;2003.3
2193.0;2082.4;;;;;;;;;;;;;;;;;19.76455;-24.571217;-95.301674;;2013.0
2193.0;2082.4;;;;;;;;;;;;;;1.1962035;0.07550279;0.01617481;;;;;2013.0
2193.0;2082.4;;;;;;;;;;;;;;;;;21.416365;-19.27244;-94.46242;;2013.0
2193.0;2082.4;;;;;;;;;;;;;;1.1315653;0.1010773;0.047791988;;;;;2013.0
2193.0;2082.0;262143;262143;11321;;;;;;;;;;;;;;;;;;
2193.0;2087.6;;;;;;;;;;;;;-5253;;;;;;;;
2193.0;2087.6;;;;;;;;;;;;;-4929;;;;;;;;
2193.0;2087.6;;;;;;;;;;;;;-4507;;;;;;;;
2193.0;2087.6;;;;;;;;;;;;;-4093;;;;;;;;
2193.0;2087.6;;;;;;;;;;;;;-3599;;;;;;;;
2193.0;2088.1;;;;-0.22360232;0.8792535;0.078716286;;;;;;;;;;;;;;;
2193.0;2088.1;;;;-0.22299579;0.87436306;0.07662202;;;;;;;;;;;;;;;
2193.0;2088.1;;;;-0.22352222;0.8701669;0.07423783;;;;;;;;;;;;;;;
2193.0;2088.1;;;;-0.22416309;0.8656999;0.0726204;;;;;;;;;;;;;;;
2193.0;2088.1;;;;-0.22451022;0.8609201;0.07080079;;;;;;;;;;;;;;;
2194.0;2089.3;;;;;;;;;;44.23658;-67.82357;-43.408768;;;;;;;;;
2194.0;2089.3;;;;;;;0.443556;-0.87655264;0.21460617;;;;;;;;;;;;
2194.0;2089.3;;;;;;;;;;43.27525;-68.20505;-44.778282;;;;;;;;;
2194.0;2089.3;;;;;;;0.44190803;-0.87545395;0.21045564;;;;;;;;;;;;
2194.0;2096.0;;;;;;;;;;;;;;;;;23.800623;-12.215034;-96.37746;;2022.5
2194.0;2096.0;;;;;;;;;;;;;;0.962859;0.15454574;0.10065004;;;;;2022.5
2194.0;2096.0;;;;;;;;;;;;;;;;;23.247475;-12.001404;-96.301155;;2022.5
2194.0;2096.0;;;;;;;;;;;;;;0.95504624;0.23474838;0.11249123;;;;;2022.5
2194.0;2096.0;;;;;;;;;;;;;;;;;18.398846;-12.7719965;-92.82967;;2032.1
2194.0;2096.0;;;;;;;;;;;;;;1.0917081;0.18073061;0.12323374;;;;;2032.1
2194.0;2096.0;;;;;;;;;;;;;;;;;11.135441;-8.274331;-93.96268;;2032.1
2194.0;2096.0;;;;;;;;;;;;;;1.0830408;0.17303994;0.14880826;;;;;2032.1
2194.0;2096.0;;;;;;;;;;;;;;;;;1.8616291;-4.2840357;-95.27497;;2041.8
2194.0;2096.0;;;;;;;;;;;;;;1.0118107;0.15411848;0.16199225;;;;;2041.8
2194.0;2096.0;;;;;;;;;;;;;;;;;-4.4328136;-7.248146;-92.913605;;2041.8
2194.0;2096.0;;;;;;;;;;;;;;1.0372021;0.122562334;0.090151675;;;;;2041.8
2194.0;2098.0;;;;-0.22413638;0.85598767;0.06904984;;;;;;;;;;;;;;;
2194.0;2098.0;;;;-0.22517398;0.85157406;0.06726075;;;;;;;;;;;;;;;
2194.0;2098.0;;;;-0.22570041;0.84806836;0.06661988;;;;;;;;;;;;;;;
2194.0;2098.0;;;;-0.22677997;0.84417355;0.06581498;;;;;;;;;;;;;;;
2194.0;2098.0;;;;-0.22558978;0.8394586;0.06510926;;;;;;;;;;;;;;;
2194.0;2098.7;;;;;;;;;;42.268135;-68.41486;-46.174503;;;;;;;;;
2194.0;2098.7;;;;;;;0.44373912;-0.87606436;0.20471816;;;;;;;;;;;;
2194.0;2098.7;;;;;;;;;;41.253395;-68.20505;-47.532578;;;;;;;;;
2194.0;2098.7;;;;;;;0.44190803;-0.877163;0.19592883;;;;;;;;;;;;
2198.0;2101.8;262143;262143;11325;;;;;;;;;;;;;;;;;;
2198.0;2108.0;;;;-0.2248421;0.8347131;0.06457139;;;;;;;;;;;;;;;
2198.0;2108.0;;;;-0.2247658;0.83013546;0.063163765;;;;;;;;;;;;;;;
2198.0;2108.0;;;;-0.22489169;0.8252374;0.062435158;;;;;;;;;;;;;;;
2198.0;2108.0;;;;-0.2261124;0.8208009;0.061279304;;;;;;;;;;;;;;;
2198.0;2108.0;;;;-0.22797397;0.8160974;0.059795387;;;;;;;;;;;;;;;
2198.0;2108.1;;;;;;;;;;40.269173;-67.419205;-48.74569;;;;;;;;;
2198.0;2108.1;;;;;;;0.44160283;-0.880398;0.18640706;;;;;;;;;;;;
2198.0;2108.1;;;;;;;;;;39.128544;-66.4922;-49.81002;;;;;;;;;
2198.0;2108.1;;;;;;;0.4485;-0.88119143;0.18036439;;;;;;;;;;;;
2198.0;2117.8;;;;;;;;;;37.90399;-65.4088;-50.721764;;;;;;;;;
2198.0;2117.8;;;;;;;0.44941556;-0.88515884;0.17511521;;;;;;;;;;;;
2198.0;2117.8;;;;;;;;;;36.774803;-64.19187;-51.55339;;;;;;;;;
2198.0;2117.8;;;;;;;0.45118564;-0.8840602;0.16730247;;;;;;;;;;;;
2198.0;2118.1;;;;-0.22901538;0.811165;0.059410103;;;;;;;;;;;;;;;
2198.0;2118.1;;;;-0.23036578;0.8056413;0.05887986;;;;;;;;;;;;;;;
2198.0;2118.1;;;;-0.231823;0.80088055;0.05851365;;;;;;;;;;;;;;;
2198.0;2118.1;;;;-0.23306659;0.796425;0.058322914;;;;;;;;;;;;;;;
2198.0;2118.1;;;;-0.23505405;0.79252636;0.057659157;;;;;;;;;;;;;;;
2198.0;2122.0;262143;262143;11317;;;;;;;;;;;;;;;;;;
2200.0;2127.4;;;;;;;;;;35.64562;-62.70791;-52.34306;;;;;;;;;
2200.0;2127.4;;;;;;;0.45503098;-0.8822901;0.16510513;;;;;;;;;;;;
2200.0;2127.4;;;;;;;;;;34.600357;-60.949276;-52.903835;;;;;;;;;
2200.0;2127.4;;;;;;;0.45619068;-0.8816187;0.16235848;;;;;;;;;;;;
2200.0;2127.7;;;;;;;;;;;;;-2897;;;;;;;;
2200.0;2127.7;;;;;;;;;;;;;-2142;;;;;;;;
2200.0;2127.7;;;;;;;;;;;;;-1622;;;;;;;;
2200.0;2127.7;;;;;;;;;;;;;-1442;;;;;;;;
2200.0;2127.7;;;;;;;;;;;;;-1484;;;;;;;;
2200.0;2128.2;;;;-0.23559192;0.7883378;0.05768586;;;;;;;;;;;;;;;
2200.0;2128.2;;;;-0.23627475;0.78426754;0.057739265;;;;;;;;;;;;;;;
2200.0;2128.2;;;;-0.23677066;0.7805635;0.056888588;;;;;;;;;;;;;;;
2200.0;2128.2;;;;-0.23717502;0.7773782;0.056068428;;;;;;;;;;;;;;;
2200.0;2128.2;;;;-0.23767093;0.7737733;0.054515846;;;;;;;;;;;;;;;
2200.0;2137.0;;;;;;;;;;33.635216;-58.973206;-53.0488;;;;;;;;;
2200.0;2137.0;;;;;;;0.45478684;-0.8784448;0.16064943;;;;;;;;;;;;
2200.0;2137.0;;;;;;;;;;32.547993;-56.81402;-53.060246;;;;;;;;;
2200.0;2137.0;;;;;;;0.45600757;-0.87362283;0.16052736;;;;;;;;;;;;
2200.0;2138.3;;;;-0.23989871;0.77020276;0.053371437;;;;;;;;;;;;;;;
2200.0;2138.3;;;;-0.24367908;0.76746;0.052719124;;;;;;;;;;;;;;;
2200.0;2138.3;;;;-0.24888995;0.76536953;0.052730568;;;;;;;;;;;;;;;
2200.0;2138.3;;;;-0.25429538;0.76353085;0.052997597;;;;;;;;;;;;;;;
2200.0;2138.3;;;;-0.2612839;0.76277554;0.052940376;;;;;;;;;;;;;;;
2201.0;2141.3;;;;;;;;;;;;;;;;;-12.283701;-5.760369;-89.31623;;2051.5
2201.0;2141.3;;;;;;;;;;;;;;1.0384228;0.11322367;0.07135227;;;;;2051.5
2201.0;2141.3;;;;;;;;;;;;;;;;;-21.465958;-3.299814;-85.31449;;2051.5
2201.0;2141.3;;;;;;;;;;;;;;1.0140691;0.08270516;0.06488235;;;;;2051.5
2201.0;2141.3;;;;;;;;;;;;;;;;;-28.725548;-2.2659993;-82.22831;;2061.0
2201.0;2141.3;;;;;;;;;;;;;;0.97897273;0.07477035;0.048463393;;;;;2061.0
2201.0;2141.3;;;;;;;;;;;;;;;;;-34.043396;-1.6098514;-78.39823;;2061.0
2201.0;2141.3;;;;;;;;;;;;;;0.9569994;0.06378368;0.013733329;;;;;2061.0
2201.0;2141.3;;;;;;;;;;;;;;;;;-36.008026;0.064851835;-73.58775;;2070.7
2201.0;2141.3;;;;;;;;;;;;;;0.9721366;0.061586354;-0.015686514;;;;;2070.7
2201.0;2141.3;;;;;;;;;;;;;;;;;-35.634174;3.1395917;-72.0275;;2070.7
2201.0;2141.3;;;;;;;;;;;;;;0.97109896;0.0507828;0.0055543687;;;;;2070.7
2201.0;2142.1;262143;262143;11308;;;;;;;;;;;;;;;;;;
2201.0;2146.5;;;;;;;;;;31.46077;-54.52132;-53.109837;;;;;;;;;
2201.0;2146.5;;;;;;;0.45832697;-0.8687399;0.15930662;;;;;;;;;;;;
2201.0;2146.5;;;;;;;;;;30.465101;-51.84332;-53.147984;;;;;;;;;
2201.0;2146.5;;;;;;;0.45973083;-0.86593217;0.15930662;;;;;;;;;;;;
2201.0;2148.3;;;;-0.26852039;0.7622796;0.051292427;;;;;;;;;;;;;;;
2201.0;2148.3;;;;-0.277298;0.76135266;0.04810334;;;;;;;;;;;;;;;
2201.0;2148.3;;;;-0.28642276;0.76062787;0.045700077;;;;;;;;;;;;;;;
2201.0;2148.3;;;;-0.29592136;0.7603494;0.045066837;;;;;;;;;;;;;;;
2201.0;2148.3;;;;-0.30440143;0.76026165;0.04508591;;;;;;;;;;;;;;;
2202.0;2156.3;;;;;;;;;;;;;;;;;-33.352917;3.1434064;-73.870056;;2080.3
2202.0;2156.3;;;;;;;;;;;;;;0.94351023;0.05426191;0.012024293;;;;;2080.3
2202.0;2156.3;;;;;;;;;;;;;;;;;-29.633474;3.99411;-74.55672;;2080.3
2202.0;2156.3;;;;;;;;;;;;;;0.94088566;0.049501024;-0.0113528855;;;;;2080.3
2202.0;2156.3;;;;;;;;;;;;;;;;;-24.998474;5.882443;-72.80953;;2090.0
2202.0;2156.3;;;;;;;;;;;;;;0.9327067;0.0672628;-0.003173925;;;;;2090.0
2202.0;2156.3;;;;;;;;;;;;;;;;;-22.217474;6.7445908;-71.7185;;2090.0
2202.0;2156.3;;;;;;;;;;;;;;0.906827;0.08514664;0.025513474;;;;;2090.0
2202.0;2156.3;;;;;;;;;;;;;;;;;-20.504623;7.0764794;-70.72283;;2099.6
2202.0;2156.3;;;;;;;;;;;;;;0.89999086;0.08862575;0.024292734;;;;;2099.6
2202.0;2156.3;;;;;;;;;;;;;;;;;-18.017365;9.117405;-68.91842;;2099.6
2202.0;2156.3;;;;;;;;;;;;;;0.893582;0.099612415;0.028687399;;;;;2099.6
2202.0;2156.1;;;;;;;;;;29.347363;-48.711357;-53.30821;;;;;;;;;
2202.0;2156.1;;;;;;;0.4631489;-0.8612934;0.159917;;;;;;;;;;;;
2202.0;2156.1;;;;;;;;;;28.309732;-45.201725;-53.376873;;;;;;;;;
2202.0;2156.1;;;;;;;0.46424755;-0.8575091;0.16034424;;;;;;;;;;;;
2202.0;2158.1;;;;-0.3119965;0.76007473;0.045803074;;;;;;;;;;;;;;;
2202.0;2158.1;;;;-0.31796268;0.75958645;0.045307163;;;;;;;;;;;;;;;
2202.0;2158.1;;;;-0.32301334;0.7577821;0.045803074;;;;;;;;;;;;;;;
2202.0;2158.1;;;;-0.32698062;0.7561761;0.04667664;;;;;;;;;;;;;;;
2202.0;2158.1;;;;-0.3322411;0.7547113;0.047237404;;;;;;;;;;;;;;;
2202.0;2162.2;262143;262143;11311;;;;;;;;;;;;;;;;;;
2372.0;2165.5;;;;;;;;;;27.283548;-41.436504;-53.23954;;;;;;;;;
2372.0;2165.5;;;;;;;0.4640034;-0.8552507;0.16321298;;;;;;;;;;;;
2372.0;2165.5;;;;;;;;;;26.242104;-37.568287;-52.957245;;;;;;;;;
2372.0;2165.5;;;;;;;0.46327096;-0.84969634;0.16443373;;;;;;;;;;;;
2372.0;2167.8;;;;;;;;;;;;;-1561;;;;;;;;
2372.0;2167.8;;;;;;;;;;;;;-1671;;;;;;;;
2372.0;2167.8;;;;;;;;;;;;;-1964;;;;;;;;
2372.0;2167.8;;;;;;;;;;;;;-2257;;;;;;;;
2372.0;2167.8;;;;;;;;;;;;;-2307;;;;;;;;
2372.0;2168.2;;;;-0.33893207;0.7530633;0.046821598;;;;;;;;;;;;;;;
2372.0;2168.2;;;;-0.3450394;0.7503587;0.048191078;;;;;;;;;;;;;;;
2372.0;2168.2;;;;-0.35125735;0.7474213;0.049163826;;;;;;;;;;;;;;;
2372.0;2168.2;;;;-0.35704425;0.74345785;0.050472267;;;;;;;;;;;;;;;
2372.0;2168.2;;;;-0.36217883;0.7395249;0.05334855;;;;;;;;;;;;;;;
2372.0;2174.8;;;;;;;;;;25.231176;-33.597065;-52.480392;;;;;;;;;
2372.0;2174.8;;;;;;;0.4598529;-0.84578997;0.16541032;;;;;;;;;;;;
2372.0;2174.8;;;;;;;;;;24.323254;-29.786066;-51.89291;;;;;;;;;
2372.0;2174.8;;;;;;;0.45466477;-0.8398694;0.16559343;;;;;;;;;;;;
2372.0;2177.9;;;;-0.36579135;0.7369881;0.056861885;;;;;;;;;;;;;;;
2372.0;2177.9;;;;-0.36706164;0.7349282;0.061489113;;;;;;;;;;;;;;;
2372.0;2177.9;;;;-0.36647418;0.7322121;0.06450272;;;;;;;;;;;;;;;
2372.0;2177.9;;;;-0.36459735;0.7295876;0.067199714;;;;;;;;;;;;;;;
2372.0;2177.9;;;;-0.3615761;0.72821814;0.07108689;;;;;;;;;;;;;;;
2372.0;2182.0;262143;262143;11297;;;;;;;;;;;;;;;;;;
2374.0;2184.4;;;;;;;;;;23.480179;-26.043734;-51.22532;;;;;;;;;
2374.0;2184.4;;;;;;;0.4507584;-0.8350475;0.1652272;;;;;;;;;;;;
2374.0;2184.4;;;;;;;;;;22.591326;-22.598955;-50.41276;;;;;;;;;
2374.0;2184.4;;;;;;;0.44727927;-0.8323008;0.16284677;;;;;;;;;;;;
2374.0;2188.0;;;;-0.35762027;0.726986;0.07584763;;;;;;;;;;;;;;;
2374.0;2188.0;;;;-0.3526154;0.7264405;0.08121491;;;;;;;;;;;;;;;
2374.0;2188.0;;;;-0.34668353;0.72710806;0.08659745;;;;;;;;;;;;;;;
2374.0;2188.0;;;;-0.33920673;0.7279778;0.09135056;;;;;;;;;;;;;;;
2374.0;2188.0;;;;-0.330555;0.728859;0.095317855;;;;;;;;;;;;;;;
2374.0;2194.0;;;;;;;;;;21.60329;-19.135107;-49.645985;;;;;;;;;
2374.0;2194.0;;;;;;;0.44044313;-0.8283334;0.16119877;;;;;;;;;;;;
2374.0;2194.0;;;;;;;;;;20.535141;-15.747551;-48.802914;;;;;;;;;
2374.0;2194.0;;;;;;;0.43501082;-0.8237556;0.15839106;;;;;;;;;;;;
2374.0;2198.1;;;;-0.32269672;0.7304879;0.099403396;;;;;;;;;;;;;;;
2374.0;2198.1;;;;-0.31506732;0.7320557;0.10334398;;;;;;;;;;;;;;;
2374.0;2198.1;;;;-0.308342;0.7343636;0.10678865;;;;;;;;;;;;;;;
2374.0;2198.1;;;;-0.30178836;0.73693854;0.10958101;;;;;;;;;;;;;;;
2374.0;2198.1;;;;-0.29478076;0.73940665;0.11324312;;;;;;;;;;;;;;;
2375.0;2201.6;;;;;;;;;;;;;;;;;-16.991179;11.688589;-66.31291;;2109.2
2375.0;2201.6;;;;;;;;;;;;;;0.8901639;0.10187078;0.016296884;;;;;2109.2
2375.0;2201.6;;;;;;;;;;;;;;;;;-15.961182;14.202551;-64.77172;;2109.2
2375.0;2201.6;;;;;;;;;;;;;;0.8564104;0.121097445;0.024536882;;;;;2109.2
2375.0;2201.6;;;;;;;;;;;;;;;;;-15.591144;14.969329;-62.63543;;2118.8
2375.0;2201.6;;;;;;;;;;;;;;0.8406018;0.11468856;0.020203253;;;;;2118.8
2375.0;2201.6;;;;;;;;;;;;;;;;;-14.904477;15.87344;-59.736168;;2118.8
2375.0;2201.6;;;;;;;;;;;;;;0.8233894;0.10858486;-0.003357036;;;;;2118.8
2375.0;2201.6;;;;;;;;;;;;;;;;;-14.351329;18.238625;-57.46254;;2128.4
2375.0;2201.6;;;;;;;;;;;;;;0.79732656;0.11651967;0.02783288;;;;;2128.4
2375.0;2201.6;;;;;;;;;;;;;;;;;-13.992737;15.068514;-54.42595;;2128.4
2375.0;2201.6;;;;;;;;;;;;;;0.7894528;0.12121952;0.03869747;;;;;2128.4
2375.0;2202.1;262143;262143;11303;;;;;;;;;;;;;;;;;;
2375.0;2203.5;;;;;;;;;;19.585253;-12.634663;-47.803432;;;;;;;;;
2375.0;2203.5;;;;;;;0.42963958;-0.82149726;0.15704826;;;;;;;;;;;;
2375.0;2203.5;;;;;;;;;;18.585773;-9.563738;-46.70095;;;;;;;;;
2375.0;2203.5;;;;;;;0.4219489;-0.8179571;0.15808588;;;;;;;;;;;;
2375.0;2207.8;;;;;;;;;;;;;-2238;;;;;;;;
2375.0;2207.8;;;;;;;;;;;;;-2178;;;;;;;;
2375.0;2207.8;;;;;;;;;;;;;-2192;;;;;;;;
2375.0;2207.8;;;;;;;;;;;;;-2412;;;;;;;;
2375.0;2207.8;;;;;;;;;;;;;-2754;;;;;;;;
2376.0;2208.1;;;;-0.28932574;0.74161536;0.11465837;;;;;;;;;;;;;;;
2376.0;2208.1;;;;-0.28374484;0.74456793;0.116561905;;;;;;;;;;;;;;;
2376.0;2208.1;;;;-0.27912524;0.746975;0.118072525;;;;;;;;;;;;;;;
2376.0;2208.1;;;;-0.27406695;0.74942404;0.12038423;;;;;;;;;;;;;;;
2376.0;2208.1;;;;-0.26972583;0.75192654;0.122150436;;;;;;;;;;;;;;;
2376.0;2213.1;;;;;;;;;;17.685476;-6.7751093;-45.31617;;;;;;;;;
2376.0;2213.1;;;;;;;0.41261026;-0.81752986;0.15881832;;;;;;;;;;;;
2376.0;2213.1;;;;;;;;;;16.796625;-4.2191844;-43.870358;;;;;;;;;
2376.0;2213.1;;;;;;;0.40473646;-0.81313515;0.16028321;;;;;;;;;;;;
2376.0;2216.2;;;;;;;;;;;;;;;;;-13.5883665;13.565478;-50.49669;;2138.1
2376.0;2216.2;;;;;;;;;;;;;;0.77785575;0.09106723;0.031922363;;;;;2138.1
2376.0;2216.2;;;;;;;;;;;;;;;;;-14.74807;15.869625;-48.177284;;2138.1
2376.0;2216.2;;;;;;;;;;;;;;0.76815087;0.073000275;0.046205025;;;;;2138.1
2376.0;2216.2;;;;;;;;;;;;;;;;;-12.409589;15.804773;-45.289467;;2147.7
2376.0;2216.2;;;;;;;;;;;;;;0.7563707;0.06805628;0.031983398;;;;;2147.7
2376.0;2216.2;;;;;;;;;;;;;;;;;-8.29722;16.655478;-42.3101;;2147.7
2376.0;2216.2;;;;;;;;;;;;;;0.72981966;0.07000946;0.03936888;;;;;2147.7
2376.0;2216.2;;;;;;;;;;;;;;;;;-5.104221;16.07944;-39.822838;;2157.4
2376.0;2216.2;;;;;;;;;;;;;;0.7054048;0.07708976;0.04834132;;;;;2157.4
2376.0;2216.2;;;;;;;;;;;;;;;;;-1.1482589;14.709922;-35.927914;;2157.4
2376.0;2216.2;;;;;;;;;;;;;;0.7118137;0.086245306;0.037720878;;;;;2157.4
2377.0;2218.0;;;;-0.26508334;0.7543565;0.12306978;;;;;;;;;;;;;;;
2377.0;2218.0;;;;-0.2600403;0.7571565;0.123611465;;;;;;;;;;;;;;;
2377.0;2218.0;;;;-0.2549744;0.7596208;0.12480165;;;;;;;;;;;;;;;
2377.0;2218.0;;;;-0.24888232;0.76194394;0.12654115;;;;;;;;;;;;;;;
2377.0;2218.0;;;;-0.24285129;0.76456845;0.12816621;;;;;;;;;;;;;;;
2377.0;2222.5;;;;;;;;;;15.98407;-1.945555;-42.33299;;;;;;;;;
2377.0;2222.5;;;;;;;0.39558092;-0.8099002;0.15918455;;;;;;;;;;;;
2377.0;2222.5;;;;;;;;;;15.140995;0.07248146;-40.7918;;;;;;;;;
2377.0;2222.5;;;;;;;0.38673055;-0.8065432;0.15839106;;;;;;;;;;;;
2377.0;2222.1;262143;262143;11306;;;;;;;;;;;;;;;;;;
2377.0;2228.0;;;;-0.23629764;0.7670709;0.13134767;;;;;;;;;;;;;;;
2377.0;2228.0;;;;-0.23106387;0.77030194;0.13209917;;;;;;;;;;;;;;;
2377.0;2228.0;;;;-0.22502902;0.7731019;0.13280107;;;;;;;;;;;;;;;
2377.0;2228.0;;;;-0.21981433;0.7755586;0.13290788;;;;;;;;;;;;;;;
2377.0;2228.0;;;;-0.21443942;0.7783357;0.13320543;;;;;;;;;;;;;;;
2377.0;2232.0;;;;;;;;;;14.198736;1.7433698;-39.227726;;;;;;;;;
2377.0;2232.0;;;;;;;0.3780633;-0.80361336;0.15698722;;;;;;;;;;;;
2377.0;2232.0;;;;;;;;;;13.336589;3.1662953;-37.728508;;;;;;;;;
2377.0;2232.0;;;;;;;0.37269205;-0.7981811;0.15808588;;;;;;;;;;;;
2381.0;2238.1;;;;-0.21058276;0.78141034;0.1344681;;;;;;;;;;;;;;;
2381.0;2238.1;;;;-0.2072716;0.78447735;0.13422395;;;;;;;;;;;;;;;
2381.0;2238.1;;;;-0.20385745;0.7876588;0.13452913;;;;;;;;;;;;;;;
2381.0;2238.1;;;;-0.20081714;0.7905694;0.13502504;;;;;;;;;;;;;;;
2381.0;2238.1;;;;-0.19879916;0.79345334;0.1345978;;;;;;;;;;;;;;;
2381.0;2241.6;;;;;;;;;;12.478255;4.50911;-36.19877;;;;;;;;;
2381.0;2241.6;;;;;;;0.36805323;-0.79641104;0.16180913;;;;;;;;;;;;
2381.0;2241.6;;;;;;;;;;11.703849;5.569628;-34.611805;;;;;;;;;
2381.0;2241.6;;;;;;;0.3651845;-0.7957396;0.16492203;;;;;;;;;;;;
2381.0;2242.3;262143;262143;11289;;;;;;;;;;;;;;;;;;
2381.0;2248.0;;;;;;;;;;;;;-3045;;;;;;;;
2381.0;2248.0;;;;;;;;;;;;;-3400;;;;;;;;
2381.0;2248.0;;;;;;;;;;;;;-3848;;;;;;;;
2381.0;2248.0;;;;;;;;;;;;;-4171;;;;;;;;
2381.0;2248.0;;;;;;;;;;;;;-4243;;;;;;;;
2381.0;2248.2;;;;-0.1977463;0.7958871;0.13419344;;;;;;;;;;;;;;;
2381.0;2248.2;;;;-0.19721988;0.7987634;0.13463213;;;;;;;;;;;;;;;
2381.0;2248.2;;;;-0.19729999;0.8011552;0.13560487;;;;;;;;;;;;;;;
2381.0;2248.2;;;;-0.19833377;0.80420697;0.1363373;;;;;;;;;;;;;;;
2381.0;2248.2;;;;-0.1992226;0.80698025;0.13892747;;;;;;;;;;;;;;;
2381.0;2251.2;;;;;;;;;;10.9904785;6.309702;-32.940918;;;;;;;;;
2381.0;2251.2;;;;;;;0.36170536;-0.79512924;0.16943876;;;;;;;;;;;;
2381.0;2251.2;;;;;;;;;;10.265663;6.6682944;-31.159399;;;;;;;;;
2381.0;2251.2;;;;;;;0.35621205;-0.7976928;0.16943876;;;;;;;;;;;;
2383.0;2258.3;;;;-0.20100406;0.81022274;0.14255525;;;;;;;;;;;;;;;
2383.0;2258.3;;;;-0.20240024;0.81419384;0.1473694;;;;;;;;;;;;;;;
2383.0;2258.3;;;;-0.2041817;0.8179132;0.1524048;;;;;;;;;;;;;;;
2383.0;2258.3;;;;-0.20588306;0.8222734;0.15667726;;;;;;;;;;;;;;;
2383.0;2258.3;;;;-0.20768741;0.8271867;0.16099168;;;;;;;;;;;;;;;
2383.0;2260.8;;;;;;;;;;9.544664;7.1184425;-29.232918;;;;;;;;;
2383.0;2260.8;;;;;;;0.35114598;-0.7991577;0.16858424;;;;;;;;;;;;
2383.0;2260.8;;;;;;;;;;8.827478;7.6029234;-27.23777;;;;;;;;;
2383.0;2260.8;;;;;;;0.34784997;-0.8033692;0.16760765;;;;;;;;;;;;
2383.0;2261.5;;;;;;;;;;;;;;;;;3.3494065;14.580218;-32.18177;;2167.0
2383.0;2261.5;;;;;;;;;;;;;;0.69649345;0.098941006;0.050294504;;;;;2167.0
2383.0;2261.5;;;;;;;;;;;;;;;;;8.011109;12.768181;-29.339733;;2167.0
2383.0;2261.5;;;;;;;;;;;;;;0.6801965;0.11456648;0.05328532;;;;;2167.0
2383.0;2261.5;;;;;;;;;;;;;;;;;11.131626;10.902738;-26.745659;;2176.7
2383.0;2261.5;;;;;;;;;;;;;;0.65382856;0.12427137;0.0623188;;;;;2176.7
2383.0;2261.5;;;;;;;;;;;;;;;;;13.695181;8.491775;-24.277475;;2176.7
2383.0;2261.5;;;;;;;;;;;;;;0.6701254;0.13617359;0.0430311;;;;;2176.7
2383.0;2261.5;;;;;;;;;;;;;;;;;16.48381;7.889035;-21.717735;;2186.4
2383.0;2261.5;;;;;;;;;;;;;;0.67561877;0.15649892;0.028077029;;;;;2186.4
2383.0;2261.5;;;;;;;;;;;;;;;;;19.184698;7.335887;-18.696402;;2186.4
2383.0;2261.5;;;;;;;;;;;;;;0.6795862;0.1472213;0.028077029;;;;;2186.4
2383.0;2262.4;262143;262143;11292;;;;;;;;;;;;;;;;;;
2384.0;2268.3;;;;-0.2091904;0.8327638;0.16466142;;;;;;;;;;;;;;;
2384.0;2268.3;;;;-0.21131137;0.8380891;0.16728975;;;;;;;;;;;;;;;
2384.0;2268.3;;;;-0.21392444;0.842991;0.16986467;;;;;;;;;;;;;;;
2384.0;2268.3;;;;-0.21698764;0.847149;0.17161943;;;;;;;;;;;;;;;
2384.0;2268.3;;;;-0.22099689;0.8505708;0.17460252;;;;;;;;;;;;;;;
2384.0;2270.3;;;;;;;;;;8.220923;8.110294;-25.246437;;;;;;;;;
2384.0;2270.3;;;;;;;0.3467513;-0.807886;0.1683401;;;;;;;;;;;;
2384.0;2270.3;;;;;;;;;;7.5800347;8.468886;-23.171179;;;;;;;;;
2384.0;2270.3;;;;;;;0.34003723;-0.811243;0.16547136;;;;;;;;;;;;
2384.0;2276.5;;;;;;;;;;;;;;;;;22.007662;4.2687764;-15.568254;;2195.9
