patientId;holterMac;flexMac;;;;;;;;;;;;;;;;;;;;
;CA:F3:0B:1E:33:78;D3:4A:5C:52:80:78;;;;;;;;;;;;;;;;;;;;
receivedTimeStamp;timeStamp;red;ir;green;adxl_accX;adxl_accY;adxl_accZ;lsm_accelX;lsm_accelY;lsm_accelZ;lsm_gyroX;lsm_gyroY;lsm_gyroZ;ecg;flex_lsm_accelX;flex_lsm_accelY;flex_lsm_accelZ;flex_lsm_gyroX;flex_lsm_gyroY;flex_lsm_gyroZ;flex_cmd;flexTimeStamp
285.0;213.9;;;;;;;;;;;;;;;;;;;;17;0.1
285.0;213.9;;;;;;;;;;;;;;;;;13.8363285;1.4267403;0.77440715;;127.8
285.0;213.9;;;;;;;;;;;;;;-0.7973876;0.063539535;-0.023865474;;;;;127.8
285.0;213.9;;;;;;;;;;;;;;;;;-6.7369614;-16.621143;-8.575701;;127.8
285.0;213.9;;;;;;;;;;;;;;-0.6516923;0.19629505;-0.31830806;;;;;127.8
285.0;213.9;;;;;;;;;;;;;;;;;-68.83068;-84.089935;-62.311165;;137.4
285.0;213.9;;;;;;;;;;;;;;-0.57686085;0.35438094;-0.63435775;;;;;137.4
285.0;213.9;;;;;;;;;;;;;;;;;-123.21085;-124.988556;-120.166626;;137.4
285.0;213.9;;;;;;;;;;;;;;-0.57618946;0.44941556;-0.6803186;;;;;137.4
348.0;214.6;;;;;;;;;;;;;;;;;-70.57024;-123.596146;-70.94409;;147.0
348.0;214.6;;;;;;;;;;;;;;-0.5343181;0.5166784;-0.63954586;;;;;147.0
348.0;214.6;;;;;;;;;;;;;;;;;-18.856625;-116.515854;-5.539109;;147.0
348.0;214.6;;;;;;;;;;;;;;-0.47932371;0.4606464;-0.73281044;;;;;147.0
348.0;214.6;;;;;;;;;;;;;;;;;-23.121586;-72.73324;21.889402;;156.7
348.0;214.6;;;;;;;;;;;;;;-0.5456099;0.3640248;-0.8189947;;;;;156.7
348.0;214.6;;;;;;;;;;;;;;;;;-25.620289;29.538103;59.850613;;156.7
348.0;214.6;;;;;;;;;;;;;;-0.70149845;0.31434065;-0.6933195;;;;;156.7
348.0;214.6;;;;;;;;;;;;;;;;;-26.898252;41.13895;69.18927;;166.3
348.0;214.6;;;;;;;;;;;;;;-0.9151891;0.2379223;-0.56300545;;;;;166.3
348.0;214.6;;;;;;;;;;;;;;;;;-33.730583;39.819023;72.66457;;166.3
348.0;214.6;;;;;;;;;;;;;;-1.070162;0.07025361;-0.4100467;;;;;166.3
348.0;273.9;;;;;;;;;;;;;;;;;-44.843132;37.88873;73.09183;;176.0
348.0;273.9;;;;;;;;;;;;;;-1.1644642;-0.18732262;-0.37586597;;;;;176.0
348.0;273.9;;;;;;;;;;;;;;;;;-52.396465;36.999878;71.56209;;176.0
348.0;273.9;;;;;;;;;;;;;;-1.2518692;-0.42219305;-0.41114536;;;;;176.0
348.0;273.9;;;;;;;;;;;;;;;;;-53.781246;35.06958;69.31135;;185.6
348.0;273.9;;;;;;;;;;;;;;-1.31254;-0.6502884;-0.43452254;;;;;185.6
348.0;273.9;;;;;;;;;;;;;;;;;-50.50432;33.570362;66.26713;;185.6
348.0;273.9;;;;;;;;;;;;;;-1.376812;-0.8471328;-0.45155185;;;;;185.6
348.0;273.9;;;;;;;;;;;;;;;;;-47.292244;28.893398;60.186314;;195.3
348.0;273.9;;;;;;;;;;;;;;-1.3060701;-0.89767146;-0.49903867;;;;;195.3
348.0;273.9;;;;;;;;;;;;;;;;;-41.13132;23.678549;53.819393;;195.3
348.0;273.9;;;;;;;;;;;;;;-1.165868;-0.9305093;-0.5002594;;;;;195.3
413.0;274.7;;;;;;;;;;;;;;;;;-28.778955;20.592363;50.52339;;204.9
413.0;274.7;;;;;;;;;;;;;;-1.0497147;-0.95181125;-0.4677877;;;;;204.9
413.0;274.7;;;;;;;;;;;;;;;;;-12.802515;18.09366;49.680317;;204.9
413.0;274.7;;;;;;;;;;;;;;-0.92281866;-0.9609058;-0.44166386;;;;;204.9
413.0;274.7;;;;;;;;;;;;;;;;;4.3641467;17.82281;49.81765;;214.5
413.0;274.7;;;;;;;;;;;;;;-0.83388776;-0.9145787;-0.39173558;;;;;214.5
413.0;274.7;;;;;;;;;;;;;;;;;18.951996;19.753105;48.9021;;214.5
413.0;274.7;;;;;;;;;;;;;;-0.7691885;-0.86953336;-0.38807335;;;;;214.5
413.0;274.7;;;;;;;;;;;;;;;;;31.586658;23.422956;48.55495;;224.2
413.0;274.7;;;;;;;;;;;;;;-0.92410046;-0.7414167;-0.32697532;;;;;224.2
413.0;274.7;;;;;;;;;;;;;;;;;40.555283;20.008698;47.925507;;224.2
413.0;274.7;;;;;;;;;;;;;;-0.9584033;-0.6081118;-0.29841;;;;;224.2
413.0;334.3;;;;;;;;;;;;;;;;;48.60454;17.20481;49.470505;;233.8
413.0;334.3;;;;;;;;;;;;;;-0.96279794;-0.48811305;-0.32288584;;;;;233.8
413.0;334.3;;;;;;;;;;;;;;;;;55.486465;18.162329;52.545242;;233.8
413.0;334.3;;;;;;;;;;;;;;-0.96102786;-0.36512345;-0.38459426;;;;;233.8
413.0;334.3;;;;;;;;;;;;;;;;;59.224983;20.954771;57.54265;;243.5
413.0;334.3;;;;;;;;;;;;;;-0.99233985;-0.24146245;-0.40815455;;;;;243.5
413.0;334.3;;;;;;;;;;;;;;;;;58.58791;21.351513;62.620163;;243.5
413.0;334.3;;;;;;;;;;;;;;-0.97848445;-0.14764854;-0.40931424;;;;;243.5
413.0;334.3;;;;;;;;;;;;;;;;;55.46739;21.42018;67.46498;;253.2
413.0;334.3;;;;;;;;;;;;;;-0.9886776;-0.10803553;-0.3731193;;;;;253.2
413.0;334.3;;;;;;;;;;;;;;;;;50.984985;20.744957;71.893974;;253.2
413.0;334.3;;;;;;;;;;;;;;-0.9945982;-0.086489454;-0.3355205;;;;;253.2
468.0;335.2;;;;;;;;;;;;;;;;;44.080173;19.825586;74.163795;;262.8
468.0;335.2;;;;;;;;;;;;;;-0.9632252;0.069765314;-0.32209235;;;;;262.8
468.0;335.2;;;;;;;;;;;;;;;;;34.16547;20.401623;74.64065;;262.8
468.0;335.2;;;;;;;;;;;;;;-0.9655446;0.099612415;-0.28730124;;;;;262.8
468.0;335.2;;;;;;;;;;;;;;;;;23.796808;20.130772;74.66735;;272.4
468.0;335.2;;;;;;;;;;;;;;-0.95242167;0.18451491;-0.30310982;;;;;272.4
468.0;335.2;;;;;;;;;;;;;;;;;12.073886;19.341106;72.23731;;272.4
468.0;335.2;;;;;;;;;;;;;;-0.9569994;0.2611774;-0.29016998;;;;;272.4
468.0;335.2;;;;;;;;;;;;;;;;;0.27466658;17.29255;70.75335;;282.1
468.0;335.2;;;;;;;;;;;;;;-0.9634693;0.27509385;-0.2785119;;;;;282.1
468.0;335.2;;;;;;;;;;;;;;;;;-11.745811;13.962218;69.505905;;282.1
468.0;335.2;;;;;;;;;;;;;;-0.95162815;0.25641653;-0.26972258;;;;;282.1
468.0;394.7;;;;;;;;;;;;;;;;;-23.396252;11.425366;68.08298;;291.7
468.0;394.7;;;;;;;;;;;;;;-0.92934966;0.24658956;-0.26288643;;;;;291.7
468.0;394.7;;;;;;;;;;;;;;;;;-35.653248;9.380627;65.603355;;291.7
468.0;394.7;;;;;;;;;;;;;;-0.8973662;0.20667134;-0.2656331;;;;;291.7
468.0;394.7;;;;;;;;;;;;;;;;;-46.7658;8.491775;63.10083;;301.3
468.0;394.7;;;;;;;;;;;;;;-0.8735618;0.11682486;-0.26355785;;;;;301.3
468.0;394.7;;;;;;;;;;;;;;;;;-55.852688;8.236183;61.525314;;301.3
468.0;394.7;;;;;;;;;;;;;;-0.8659932;0.014221625;-0.2702109;;;;;301.3
468.0;394.7;;;;;;;;;;;;;;;;;-62.73461;7.992035;60.472424;;311.0
468.0;394.7;;;;;;;;;;;;;;-0.86867887;-0.06317332;-0.29108554;;;;;311.0
468.0;394.7;;;;;;;;;;;;;;;;;-66.59139;8.110294;59.27458;;311.0
468.0;394.7;;;;;;;;;;;;;;-0.8766137;-0.1314127;-0.2957854;;;;;311.0
532.0;395.5;;;;;;;;;;;;;;;;;-67.81594;8.911405;58.210243;;320.6
532.0;395.5;;;;;;;;;;;;;;-0.8898587;-0.18768883;-0.29987487;;;;;320.6
532.0;395.5;;;;;;;;;;;;;;;;;-66.48457;10.067293;56.72628;;320.6
532.0;395.5;;;;;;;;;;;;;;-0.9165929;-0.24414808;-0.29126865;;;;;320.6
532.0;395.5;;;;;;;;;;;;;;;;;-63.26487;10.979034;55.219425;;330.2
532.0;395.5;;;;;;;;;;;;;;-0.9470504;-0.2952971;-0.2854091;;;;;330.2
532.0;395.5;;;;;;;;;;;;;;;;;-58.8168;11.486403;53.441727;;330.2
532.0;395.5;;;;;;;;;;;;;;-0.9653615;-0.34437087;-0.29126865;;;;;330.2
532.0;395.5;;;;;;;;;;;;;;;;;-53.498947;11.463515;51.652576;;339.9
532.0;395.5;;;;;;;;;;;;;;-0.9879452;-0.3933836;-0.30201116;;;;;339.9
532.0;395.5;;;;;;;;;;;;;;;;;-47.55547;10.43733;49.600204;;339.9
532.0;395.5;;;;;;;;;;;;;;-1.0015564;-0.42463455;-0.30646688;;;;;339.9
532.0;462.6;;;;;;;;;;;;;;;;;-40.871914;7.87759;47.647022;;349.5
532.0;462.6;;;;;;;;;;;;;;-0.98904383;-0.46186712;-0.3188574;;;;;349.5
532.0;462.6;;;;;;;;;;;;;;;;;-33.734398;5.096591;45.76632;;349.5
532.0;462.6;;;;;;;;;;;;;;-0.9465011;-0.4720603;-0.31977293;;;;;349.5
532.0;462.6;;;;;;;;;;;;;;;;;-27.058474;4.50148;44.923244;;359.2
532.0;462.6;;;;;;;;;;;;;;-0.908475;-0.44990388;-0.30555132;;;;;359.2
532.0;462.6;;;;;;;;;;;;;;;;;-21.740623;4.9058504;45.777763;;359.2
532.0;462.6;;;;;;;;;;;;;;-0.87228006;-0.42542803;-0.28614154;;;;;359.2
532.0;462.6;;;;;;;;;;;;;;;;;-17.376476;4.6044803;47.360912;;368.8
532.0;462.6;;;;;;;;;;;;;;-0.82039857;-0.41212195;-0.2842494;;;;;368.8
532.0;462.6;;;;;;;;;;;;;;;;;-12.6117735;4.505295;48.829617;;368.8
532.0;462.6;;;;;;;;;;;;;;-0.78579056;-0.39924315;-0.28485978;;;;;368.8
589.0;463.7;;;;;;;;;;;;;;;;;-7.1794796;4.0284433;50.042725;;378.4
589.0;463.7;;;;;;;;;;;;;;-0.75441754;-0.37403485;-0.27820674;;;;;378.4
589.0;463.7;;;;;;;;;;;;;;;;;-1.3542589;2.723777;51.18717;;378.4
589.0;463.7;;;;;;;;;;;;;;-0.7187109;-0.34833828;-0.27027193;;;;;378.4
589.0;463.7;;;;;;;;;;;;;;;;;4.226814;2.1401105;52.549057;;388.0
589.0;463.7;;;;;;;;;;;;;;-0.6929533;-0.31910154;-0.2771691;;;;;388.0
589.0;463.7;;;;;;;;;;;;;;;;;9.102145;2.9450362;54.12839;;388.0
589.0;463.7;;;;;;;;;;;;;;-0.6933195;-0.2982879;-0.27723014;;;;;388.0
589.0;463.7;;;;;;;;;;;;;;;;;13.1077;3.9864802;55.272835;;397.7
589.0;463.7;;;;;;;;;;;;;;-0.6985687;-0.26667073;-0.27924436;;;;;397.7
589.0;463.7;;;;;;;;;;;;;;;;;16.541033;5.130924;56.21891;;397.7
589.0;463.7;;;;;;;;;;;;;;-0.71633047;-0.23358867;-0.28052613;;;;;397.7
589.0;515.4;;;;;;;;;;;;;;;;;19.234291;6.382183;56.89413;;407.4
589.0;515.4;;;;;;;;;;;;;;-0.7482528;-0.20752586;-0.28833887;;;;;407.4
589.0;515.4;;;;;;;;;;;;;;;;;20.916624;7.396924;57.46254;;407.4
589.0;515.4;;;;;;;;;;;;;;-0.7779168;-0.18720053;-0.30878627;;;;;407.4
589.0;515.4;;;;;;;;;;;;;;;;;21.835995;8.030183;58.278908;;417.0
589.0;515.4;;;;;;;;;;;;;;-0.82699054;-0.17719047;-0.3345439;;;;;417.0
589.0;515.4;;;;;;;;;;;;;;;;;21.94281;7.736442;58.99228;;417.0
589.0;515.4;;;;;;;;;;;;;;-0.8614765;-0.14984588;-0.34534746;;;;;417.0
589.0;515.4;;;;;;;;;;;;;;;;;20.970032;7.7326274;59.26313;;426.7
589.0;515.4;;;;;;;;;;;;;;-0.8984039;-0.14148381;-0.36249885;;;;;426.7
589.0;515.4;;;;;;;;;;;;;;;;;19.60814;7.721183;59.24787;;426.7
589.0;515.4;;;;;;;;;;;;;;-0.93252355;-0.1363567;-0.3733024;;;;;426.7
652.0;516.2;;;;;;;;;;;;;;;;;18.459883;7.560961;58.78628;;436.2
652.0;516.2;;;;;;;;;;;;;;-0.95742667;-0.12964264;-0.37067783;;;;;436.2
652.0;516.2;;;;;;;;;;;;;;;;;16.907255;7.7745905;57.618946;;436.2
652.0;516.2;;;;;;;;;;;;;;-0.97958314;-0.14001893;-0.37763605;;;;;436.2
652.0;516.2;;;;;;;;;;;;;;;;;15.232551;8.617663;55.970947;;445.8
652.0;516.2;;;;;;;;;;;;;;-0.9947813;-0.14679404;-0.36671042;;;;;445.8
652.0;516.2;;;;;;;;;;;;;;;;;13.214515;9.365368;54.166542;;445.8
652.0;516.2;;;;;;;;;;;;;;-1.0046693;-0.16595966;-0.35145116;;;;;445.8
652.0;516.2;;;;;;;;;;;;;;;;;11.2880335;9.754478;52.339245;;455.5
652.0;516.2;;;;;;;;;;;;;;-1.0049745;-0.20569475;-0.34546953;;;;;455.5
652.0;516.2;;;;;;;;;;;;;;;;;10.357219;9.777367;50.847652;;455.5
652.0;516.2;;;;;;;;;;;;;;-1.0095522;-0.2552568;-0.3457747;;;;;455.5
652.0;530.4;;;;;;;;;;;;;;;;;10.24659;9.788812;49.783318;;465.2
652.0;530.4;;;;;;;;;;;;;;-1.0133976;-0.29584643;-0.34571368;;;;;465.2
652.0;530.4;;;;;;;;;;;;;;;;;10.76159;9.701072;49.13862;;465.2
652.0;530.4;;;;;;;;;;;;;;-1.0179144;-0.3490707;-0.34308907;;;;;465.2
652.0;530.4;;;;;;;;;;;;;;;;;12.741478;9.079257;49.031803;;474.8
652.0;530.4;;;;;;;;;;;;;;-1.0186468;-0.41981262;-0.34473708;;;;;474.8
652.0;530.4;;;;;;;;;;;;;;;;;16.052736;8.823664;49.23017;;474.8
652.0;530.4;;;;;;;;;;;;;;-1.0204779;-0.4713889;-0.3328959;;;;;474.8
652.0;530.4;;;;;;;;;;;;;;;;;20.111698;8.6405525;49.726093;;484.5
652.0;530.4;;;;;;;;;;;;;;-1.0163884;-0.50886565;-0.3211768;;;;;484.5
652.0;530.4;;;;;;;;;;;;;;;;;24.807732;8.346813;50.305946;;484.5
652.0;530.4;;;;;;;;;;;;;;-1.0061343;-0.5425581;-0.30414745;;;;;484.5
710.0;576.1;;;;;;;;;;;;;;;;;30.056915;8.671071;50.94302;;494.2
710.0;576.1;;;;;;;;;;;;;;-0.99722284;-0.5493942;-0.27997681;;;;;494.2
710.0;576.1;;;;;;;;;;;;;;;;;35.16495;9.80407;51.477097;;494.2
710.0;576.1;;;;;;;;;;;;;;-1.0063784;-0.5477462;-0.26471755;;;;;494.2
710.0;576.1;;;;;;;;;;;;;;;;;40.379803;10.166478;51.911983;;503.8
710.0;576.1;;;;;;;;;;;;;;-1.0165715;-0.547441;-0.2547075;;;;;503.8
710.0;576.1;;;;;;;;;;;;;;;;;45.274208;10.490738;51.98828;;503.8
710.0;576.1;;;;;;;;;;;;;;-1.0180365;-0.55653554;-0.25794244;;;;;503.8
710.0;576.1;;;;;;;;;;;;;;;;;50.05417;10.853146;52.06076;;513.5
710.0;576.1;;;;;;;;;;;;;;-1.0295115;-0.5564135;-0.25568408;;;;;513.5
710.0;576.1;;;;;;;;;;;;;;;;;54.54421;10.589923;52.40791;;513.5
710.0;576.1;;;;;;;;;;;;;;-1.0338451;-0.560625;-0.26703694;;;;;513.5
710.0;590.9;;;;;;;;;;;;;;;;;59.11054;10.345775;52.99539;;523.2
710.0;590.9;;;;;;;;;;;;;;-1.0458694;-0.5587939;-0.27771842;;;;;523.2
710.0;590.9;;;;;;;;;;;;;;;;;63.753166;9.846034;53.50276;;523.2
710.0;590.9;;;;;;;;;;;;;;-1.0560625;-0.5542772;-0.28193;;;;;523.2
710.0;590.9;;;;;;;;;;;;;;;;;68.20886;9.506516;53.933838;;532.8
710.0;590.9;;;;;;;;;;;;;;-1.0661336;-0.5463424;-0.29059726;;;;;532.8
710.0;590.9;;;;;;;;;;;;;;;;;72.641685;9.132664;54.2848;;532.8
710.0;590.9;;;;;;;;;;;;;;-1.0711386;-0.52772605;-0.2908414;;;;;532.8
710.0;590.9;;;;;;;;;;;;;;;;;76.44124;9.292887;54.51369;;542.4
710.0;590.9;;;;;;;;;;;;;;-1.0789514;-0.4875637;-0.28449354;;;;;542.4
710.0;590.9;;;;;;;;;;;;;;;;;79.474014;9.43022;54.353466;;542.4
710.0;590.9;;;;;;;;;;;;;;-1.0962249;-0.44874418;-0.2710654;;;;;542.4
770.0;636.2;;;;;;;;;;;;;;;;;81.9422;9.517961;53.70495;;552.1
770.0;636.2;;;;;;;;;;;;;;-1.1108127;-0.40388197;-0.2664266;;;;;552.1
770.0;636.2;;;;;;;;;;;;;;;;;83.10571;9.517961;52.43843;;552.1
770.0;636.2;;;;;;;;;;;;;;-1.1307718;-0.36347544;-0.28058717;;;;;552.1
770.0;636.2;;;;;;;;;;;;;;;;;83.04086;9.716331;50.82476;;561.8
770.0;636.2;;;;;;;;;;;;;;-1.1613513;-0.3526719;-0.3246559;;;;;561.8
770.0;636.2;;;;;;;;;;;;;;;;;82.89209;9.685812;49.36369;;561.8
770.0;636.2;;;;;;;;;;;;;;-1.2030396;-0.31592762;-0.34107485;;;;;561.8
770.0;636.2;;;;;;;;;;;;;;;;;80.4239;8.259072;47.52495;;571.4
770.0;636.2;;;;;;;;;;;;;;-1.2487564;-0.29670095;-0.39088106;;;;;571.4
770.0;636.2;;;;;;;;;;;;;;;;;77.52465;5.6955166;45.068207;;571.4
770.0;636.2;;;;;;;;;;;;;;-1.2961211;-0.28534806;-0.43885615;;;;;571.4
770.0;696.6;;;;;;;;;;;;;;;;;74.892426;1.1444441;42.08884;;581.1
770.0;696.6;;;;;;;;;;;;;;-1.3155309;-0.2710654;-0.4712058;;;;;581.1
770.0;696.6;;;;;;;;;;;;;;;;;72.67602;-3.4638507;38.312176;;581.1
770.0;696.6;;;;;;;;;;;;;;-1.3327433;-0.2598346;-0.48579362;;;;;581.1
770.0;696.6;;;;;;;;;;;;;;;;;70.463425;-7.3664055;33.18125;;590.8
770.0;696.6;;;;;;;;;;;;;;-1.353618;-0.22278512;-0.49311808;;;;;590.8
770.0;696.6;;;;;;;;;;;;;;;;;68.235565;-10.361034;27.371288;;590.8
770.0;696.6;;;;;;;;;;;;;;-1.3788263;-0.16443373;-0.4885403;;;;;590.8
770.0;696.6;;;;;;;;;;;;;;;;;65.44313;-12.958922;21.313364;;600.4
770.0;696.6;;;;;;;;;;;;;;-1.4250313;-0.13922544;-0.49012727;;;;;600.4
770.0;696.6;;;;;;;;;;;;;;;;;62.0632;-16.335033;15.099032;;600.4
770.0;696.6;;;;;;;;;;;;;;-1.4396802;-0.15088351;-0.50086975;;;;;600.4
831.0;697.5;;;;;;;;;;;;;;;;;58.458206;-19.631031;8.991516;;609.8
831.0;697.5;;;;;;;;;;;;;;-1.4366283;-0.16254158;-0.49482712;;;;;609.8
831.0;697.5;;;;;;;;;;;;;;;;;54.48317;-23.44203;2.5749993;;609.8
831.0;697.5;;;;;;;;;;;;;;-1.4166692;-0.17090365;-0.47212133;;;;;609.8
831.0;697.5;;;;;;;;;;;;;;;;;50.15717;-26.802881;-4.280221;;619.4
831.0;697.5;;;;;;;;;;;;;;-1.3805963;-0.1812189;-0.42420727;;;;;619.4
831.0;697.5;;;;;;;;;;;;;;;;;45.12543;-29.744102;-11.276589;;619.4
831.0;697.5;;;;;;;;;;;;;;-1.3383588;-0.1821955;-0.36823633;;;;;619.4
831.0;697.5;;;;;;;;;;;;;;;;;39.75036;-32.284767;-18.417921;;629.1
831.0;697.5;;;;;;;;;;;;;;-1.2942289;-0.1861629;-0.30097353;;;;;629.1
831.0;697.5;;;;;;;;;;;;;;;;;34.211246;-34.57747;-25.284584;;629.1
831.0;697.5;;;;;;;;;;;;;;-1.2598652;-0.20624408;-0.2540971;;;;;629.1
831.0;704.5;;;;;;;;;;;;;;;;;29.152807;-36.53447;-31.983398;;638.6
831.0;704.5;;;;;;;;;;;;;;-1.2423475;-0.21112704;-0.18243966;;;;;638.6
831.0;704.5;;;;;;;;;;;;;;;;;24.925991;-38.71273;-38.468582;;638.6
831.0;704.5;;;;;;;;;;;;;;-1.236549;-0.24195075;-0.11291849;;;;;638.6
831.0;704.5;;;;;;;;;;;;;;;;;22.644733;-41.142765;-44.385357;;648.3
831.0;704.5;;;;;;;;;;;;;;-1.2386242;-0.3043306;-0.048463393;;;;;648.3
831.0;704.5;;;;;;;;;;;;;;;;;22.896511;-43.88562;-49.607834;;648.3
831.0;704.5;;;;;;;;;;;;;;-1.2281868;-0.38990447;-0.007080294;;;;;648.3
831.0;704.5;;;;;;;;;;;;;;;;;26.284067;-45.915096;-53.914764;;658.0
831.0;704.5;;;;;;;;;;;;;;-1.213538;-0.4786523;0.012939848;;;;;658.0
831.0;704.5;;;;;;;;;;;;;;;;;32.16651;-45.19791;-58.31706;;658.0
831.0;704.5;;;;;;;;;;;;;;-1.1560411;-0.56971955;-0.0112308115;;;;;658.0
891.0;757.0;;;;;;;;;;;;;;;;;39.136173;-37.820065;-63.34498;;667.5
891.0;757.0;;;;;;;;;;;;;;-1.1139256;-0.64656514;-0.06555376;;;;;667.5
891.0;757.0;;;;;;;;;;;;;;;;;45.255135;-24.6704;-69.16638;;667.5
891.0;757.0;;;;;;;;;;;;;;-1.0819422;-0.6921598;-0.15527818;;;;;667.5
891.0;757.0;;;;;;;;;;;;;;;;;49.874874;-9.659109;-75.41887;;677.1
891.0;757.0;;;;;;;;;;;;;;-1.1097751;-0.71663564;-0.23053682;;;;;677.1
891.0;757.0;;;;;;;;;;;;;;;;;52.831356;-0.34714803;-81.40049;;677.1
891.0;757.0;;;;;;;;;;;;;;-1.1617175;-0.7182226;-0.3370464;;;;;677.1
891.0;757.0;;;;;;;;;;;;;;;;;57.16498;-0.8087405;-86.84424;;686.8
891.0;757.0;;;;;;;;;;;;;;-1.2215339;-0.68062377;-0.39204076;;;;;686.8
891.0;757.0;;;;;;;;;;;;;;;;;66.44261;-11.230811;-90.60945;;686.8
891.0;757.0;;;;;;;;;;;;;;-1.2582171;-0.6405225;-0.36689353;;;;;686.8
891.0;764.4;;;;;;;;;;;;;;;;;77.14698;-22.278511;-93.15775;;696.5
891.0;764.4;;;;;;;;;;;;;;-1.2396008;-0.5990173;-0.394055;;;;;696.5
891.0;764.4;;;;;;;;;;;;;;;;;84.85672;-26.268806;-96.04175;;696.5
891.0;764.4;;;;;;;;;;;;;;-1.1791131;-0.6207465;-0.4547258;;;;;696.5
891.0;764.4;;;;;;;;;;;;;;;;;88.60286;-24.70855;-99.76119;;706.1
891.0;764.4;;;;;;;;;;;;;;-1.1000092;-0.65218055;-0.5289468;;;;;706.1
891.0;764.4;;;;;;;;;;;;;;;;;90.685745;-20.046844;-103.22123;;706.1
891.0;764.4;;;;;;;;;;;;;;-1.0545366;-0.680929;-0.549089;;;;;706.1
891.0;764.4;;;;;;;;;;;;;;;;;90.46449;-14.511552;-106.9216;;715.8
891.0;764.4;;;;;;;;;;;;;;-1.0308542;-0.6748253;-0.5460372;;;;;715.8
891.0;764.4;;;;;;;;;;;;;;;;;85.947754;-9.029664;-112.048706;;715.8
891.0;764.4;;;;;;;;;;;;;;-1.0062563;-0.6292306;-0.59309673;;;;;715.8
951.0;817.1;;;;;;;;;;;;;;;;;79.90127;-3.9750361;-117.27119;;725.5
951.0;817.1;;;;;;;;;;;;;;-0.96371347;-0.55769527;-0.61128575;;;;;725.5
951.0;817.1;;;;;;;;;;;;;;;;;72.87057;2.475814;-120.12085;;725.5
951.0;817.1;;;;;;;;;;;;;;-0.9717704;-0.47816402;-0.61439866;;;;;725.5
951.0;817.1;;;;;;;;;;;;;;;;;68.92223;8.426924;-120.22003;;735.1
951.0;817.1;;;;;;;;;;;;;;-1.0237129;-0.34736168;-0.57686085;;;;;735.1
951.0;817.1;;;;;;;;;;;;;;;;;68.18979;9.4073305;-117.385635;;735.1
951.0;817.1;;;;;;;;;;;;;;-1.0945768;-0.23871578;-0.5168615;;;;;735.1
951.0;817.1;;;;;;;;;;;;;;;;;69.700455;7.087924;-113.071075;;744.7
951.0;817.1;;;;;;;;;;;;;;-1.1270486;-0.16003907;-0.45356607;;;;;744.7
951.0;817.1;;;;;;;;;;;;;;;;;75.35402;2.4147773;-109.36308;;744.7
951.0;817.1;;;;;;;;;;;;;;-1.1643422;-0.09790338;-0.3467513;;;;;744.7
951.0;825.0;;;;;;;;;;;;;;;;;80.57649;-2.1591845;-104.63271;;754.4
951.0;825.0;;;;;;;;;;;;;;-1.1465194;-0.08032472;-0.28247932;;;;;754.4
951.0;825.0;;;;;;;;;;;;;;;;;81.48442;-1.373333;-98.151344;;754.4
951.0;825.0;;;;;;;;;;;;;;-1.1933347;0.0046388134;-0.19336528;;;;;754.4
951.0;825.0;;;;;;;;;;;;;;;;;79.19171;-1.9493698;-96.03412;;764.1
951.0;825.0;;;;;;;;;;;;;;-1.1732535;0.052735984;-0.08697775;;;;;764.1
951.0;825.0;;;;;;;;;;;;;;;;;73.67931;-1.5068514;-95.942566;;764.1
951.0;825.0;;;;;;;;;;;;;;-1.1390119;0.0524308;-0.02294992;;;;;764.1
951.0;825.0;;;;;;;;;;;;;;;;;67.52984;-1.4458144;-95.61831;;773.6
951.0;825.0;;;;;;;;;;;;;;-1.0970184;0.020020142;-0.0012817774;;;;;773.6
951.0;825.0;;;;;;;;;;;;;;;;;63.283943;-2.1477401;-93.634605;;773.6
951.0;825.0;;;;;;;;;;;;;;-1.068392;-0.058534503;-0.0021973327;;;;;773.6
1009.0;877.6;;;;;;;;;;;;;;;;;61.170536;-3.646962;-91.364784;;783.4
1009.0;877.6;;;;;;;;;;;;;;-1.0290841;-0.08349864;0.003357036;;;;;783.4
1009.0;877.6;;;;;;;;;;;;;;;;;60.804314;-5.043184;-89.098785;;783.4
1009.0;877.6;;;;;;;;;;;;;;-0.990997;-0.107974485;-0.019226661;;;;;783.4
1009.0;877.6;;;;;;;;;;;;;;;;;62.253944;-5.878628;-86.23005;;793.0
1009.0;877.6;;;;;;;;;;;;;;-0.9654225;-0.13110752;-0.07324442;;;;;793.0
1009.0;877.6;;;;;;;;;;;;;;;;;66.67913;-7.4846644;-82.716606;;793.0
1009.0;877.6;;;;;;;;;;;;;;-0.943144;-0.14862514;-0.12701803;;;;;793.0
1009.0;877.6;;;;;;;;;;;;;;;;;71.82531;-9.3577385;-79.7792;;802.5
1009.0;877.6;;;;;;;;;;;;;;-0.9126865;-0.19837031;-0.20960112;;;;;802.5
1009.0;877.6;;;;;;;;;;;;;;;;;78.60423;-11.444441;-77.543724;;802.5
1009.0;877.6;;;;;;;;;;;;;;-0.8896145;-0.23523667;-0.26062807;;;;;802.5
1009.0;885.1;;;;;;;;;;;;;;;;;83.88776;-12.768181;-76.49083;;812.1
1009.0;885.1;;;;;;;;;;;;;;-0.8786279;-0.30677205;-0.2773522;;;;;812.1
1009.0;885.1;;;;;;;;;;;;;;;;;87.3745;-14.347514;-76.68157;;812.1
1009.0;885.1;;;;;;;;;;;;;;-0.86226994;-0.37940612;-0.28180793;;;;;812.1
1009.0;885.1;;;;;;;;;;;;;;;;;88.37398;-15.587329;-77.593315;;821.8
1009.0;885.1;;;;;;;;;;;;;;-0.8666036;-0.41035187;-0.26514482;;;;;821.8
1009.0;885.1;;;;;;;;;;;;;;;;;85.28397;-14.786219;-80.25605;;821.8
1009.0;885.1;;;;;;;;;;;;;;-0.90163887;-0.41395307;-0.24762718;;;;;821.8
1009.0;885.1;;;;;;;;;;;;;;;;;78.95519;-14.927366;-83.92209;;831.4
1009.0;885.1;;;;;;;;;;;;;;-0.91866815;-0.4008301;-0.24457534;;;;;831.4
1009.0;885.1;;;;;;;;;;;;;;;;;70.135345;-13.80581;-87.36687;;831.4
1009.0;885.1;;;;;;;;;;;;;;-0.92965484;-0.35010836;-0.25714895;;;;;831.4
1069.0;938.0;;;;;;;;;;;;;;;;;59.591206;-10.891294;-89.97238;;841.0
1069.0;938.0;;;;;;;;;;;;;;-0.9717094;-0.32654804;-0.27869502;;;;;841.0
1069.0;938.0;;;;;;;;;;;;;;;;;49.916836;-11.085848;-92.741936;;841.0
1069.0;938.0;;;;;;;;;;;;;;-0.9786065;-0.316599;-0.27887815;;;;;841.0
1069.0;938.0;;;;;;;;;;;;;;;;;43.195137;-12.150182;-94.75997;;850.6
1069.0;938.0;;;;;;;;;;;;;;-0.95376444;-0.35950804;-0.29047516;;;;;850.6
1069.0;938.0;;;;;;;;;;;;;;;;;41.97821;-12.745293;-96.07227;;850.6
1069.0;938.0;;;;;;;;;;;;;;-0.92556536;-0.3302713;-0.24897;;;;;850.6
1069.0;938.0;;;;;;;;;;;;;;;;;43.225655;-13.054293;-96.71697;;860.1
1069.0;938.0;;;;;;;;;;;;;;-0.9098178;-0.3289285;-0.23157445;;;;;860.1
1069.0;938.0;;;;;;;;;;;;;;;;;48.059025;-13.81344;-97.17475;;860.1
1069.0;938.0;;;;;;;;;;;;;;-0.85830253;-0.24481948;-0.20764793;;;;;860.1
1069.0;938.8;;;;;;;;;;;;;;;;;49.55443;-14.751884;-98.06742;;869.9
1069.0;938.8;;;;;;;;;;;;;;-0.8159429;-0.18335521;-0.23157445;;;;;869.9
1069.0;938.8;;;;;;;;;;;;;;;;;53.323467;-15.2096615;-97.78131;;869.9
1069.0;938.8;;;;;;;;;;;;;;-0.7838984;-0.20081179;-0.1998352;;;;;869.9
1069.0;938.8;;;;;;;;;;;;;;;;;55.93661;-14.172032;-96.63686;;879.5
1069.0;938.8;;;;;;;;;;;;;;-0.7453841;-0.2038026;-0.19598986;;;;;879.5
1069.0;938.8;;;;;;;;;;;;;;;;;58.416245;-12.9017;-95.08423;;879.5
1069.0;938.8;;;;;;;;;;;;;;-0.73519087;-0.22327341;-0.17847225;;;;;879.5
1069.0;938.8;;;;;;;;;;;;;;;;;60.670795;-12.29896;-93.67275;;889.3
1069.0;938.8;;;;;;;;;;;;;;-0.7109592;-0.22540972;-0.1485641;;;;;889.3
1069.0;938.8;;;;;;;;;;;;;;;;;61.475723;-11.589404;-92.62749;;889.3
1069.0;938.8;;;;;;;;;;;;;;-0.68929106;-0.22547075;-0.12567522;;;;;889.3
1133.0;998.7;;;;;;;;;;;;;;;;;60.766167;-10.44496;-92.28416;;898.9
1133.0;998.7;;;;;;;;;;;;;;-0.68080693;-0.20062868;-0.09613331;;;;;898.9
1133.0;998.7;;;;;;;;;;;;;;;;;57.718132;-9.132664;-92.48253;;898.9
1133.0;998.7;;;;;;;;;;;;;;-0.6762291;-0.16583759;-0.062135685;;;;;898.9
1133.0;998.7;;;;;;;;;;;;;;;;;54.37254;-8.522293;-91.67378;;908.5
1133.0;998.7;;;;;;;;;;;;;;-0.6672567;-0.25055698;-0.0474868;;;;;908.5
1133.0;998.7;;;;;;;;;;;;;;;;;53.930023;-8.419294;-89.14838;;908.5
1133.0;998.7;;;;;;;;;;;;;;-0.66750085;-0.31452376;-0.027344584;;;;;908.5
1133.0;998.7;;;;;;;;;;;;;;;;;54.151283;-8.404035;-87.30965;;918.1
1133.0;998.7;;;;;;;;;;;;;;-0.6652425;-0.32959992;-0.012390515;;;;;918.1
1133.0;998.7;;;;;;;;;;;;;;;;;54.891354;-8.896146;-86.081276;;918.1
1133.0;998.7;;;;;;;;;;;;;;-0.6563921;-0.35914183;-0.017639698;;;;;918.1
1133.0;999.5;;;;;;;;;;;;;;;;;56.99713;-8.808405;-84.639275;;927.8
1133.0;999.5;;;;;;;;;;;;;;-0.65504926;-0.38044375;-0.033936583;;;;;927.8
1133.0;999.5;;;;;;;;;;;;;;;;;60.148167;-8.449813;-83.09427;;927.8
1133.0;999.5;;;;;;;;;;;;;;-0.6615192;-0.39478743;-0.04504532;;;;;927.8
1133.0;999.5;;;;;;;;;;;;;;;;;63.92102;-8.972442;-81.18687;;937.4
1133.0;999.5;;;;;;;;;;;;;;-0.65895563;-0.40900907;-0.07324442;;;;;937.4
1133.0;999.5;;;;;;;;;;;;;;;;;67.92275;-8.861812;-79.00098;;937.4
1133.0;999.5;;;;;;;;;;;;;;-0.6729942;-0.39881587;-0.0872219;;;;;937.4
1133.0;999.5;;;;;;;;;;;;;;;;;71.00131;-9.269998;-77.08976;;947.1
1133.0;999.5;;;;;;;;;;;;;;-0.66798913;-0.38325143;-0.103946045;;;;;947.1
1133.0;999.5;;;;;;;;;;;;;;;;;73.67931;-9.170813;-75.02594;;947.1
1133.0;999.5;;;;;;;;;;;;;;-0.6619465;-0.3787347;-0.11847285;;;;;947.1
1189.0;1058.7;;;;;;;;;;;;;;;;;76.01779;-8.087405;-72.51961;;956.7
1189.0;1058.7;;;;;;;;;;;;;;-0.67323834;-0.35029146;-0.11249123;;;;;956.7
1189.0;1058.7;;;;;;;;;;;;;;;;;77.43309;-7.3320723;-69.92553;;956.7
1189.0;1058.7;;;;;;;;;;;;;;-0.6865444;-0.33051544;-0.10620441;;;;;956.7
1189.0;1058.7;;;;;;;;;;;;;;;;;79.35575;-6.9963684;-67.01102;;966.4
1189.0;1058.7;;;;;;;;;;;;;;-0.68910795;-0.32673118;-0.09674367;;;;;966.4
1189.0;1058.7;;;;;;;;;;;;;;;;;81.23646;-6.984924;-63.676872;;966.4
1189.0;1058.7;;;;;;;;;;;;;;-0.69191563;-0.29834896;-0.085329756;;;;;966.4
1189.0;1058.7;;;;;;;;;;;;;;;;;82.567825;-6.916257;-59.957424;;976.0
1189.0;1058.7;;;;;;;;;;;;;;-0.69502854;-0.2816248;-0.062440872;;;;;976.0
1189.0;1058.7;;;;;;;;;;;;;;;;;82.49153;-7.087924;-56.19602;;976.0
1189.0;1058.7;;;;;;;;;;;;;;-0.6839198;-0.26789147;-0.04992828;;;;;976.0
1189.0;1059.5;;;;;;;;;;;;;;;;;81.74383;-6.5233316;-52.24006;;985.7
1189.0;1059.5;;;;;;;;;;;;;;-0.6742149;-0.25135043;-0.02496414;;;;;985.7
1189.0;1059.5;;;;;;;;;;;;;;;;;80.111084;-5.5810723;-48.726616;;985.7
1189.0;1059.5;;;;;;;;;;;;;;-0.64876246;-0.2575152;-0.0112308115;;;;;985.7
1189.0;1059.5;;;;;;;;;;;;;;;;;77.67724;-3.9178138;-44.480724;;995.3
1189.0;1059.5;;;;;;;;;;;;;;-0.6432691;-0.24365978;0.005859554;;;;;995.3
1189.0;1059.5;;;;;;;;;;;;;;;;;73.34742;-2.8763695;-40.555283;;995.3
1189.0;1059.5;;;;;;;;;;;;;;-0.6197699;-0.23804438;0.010742515;;;;;995.3
1189.0;1059.5;;;;;;;;;;;;;;;;;68.3462;-1.5640736;-36.51921;;1005.0
1189.0;1059.5;;;;;;;;;;;;;;-0.60823387;-0.24897;0.011597034;;;;;1005.0
1189.0;1059.5;;;;;;;;;;;;;;;;;63.825645;-0.7019257;-32.2924;;1005.0
1189.0;1059.5;;;;;;;;;;;;;;-0.5946226;-0.2318186;0.015625477;;;;;1005.0
1191.0;1119.3;;;;;;;;;;;;;;;;;59.13724;0.39674062;-28.359325;;1014.7
1191.0;1119.3;;;;;;;;;;;;;;-0.5769829;-0.23371075;0.018799402;;;;;1014.7
1191.0;1119.3;;;;;;;;;;;;;;;;;55.600906;1.2436292;-24.338512;;1014.7
1191.0;1119.3;;;;;;;;;;;;;;-0.55421615;-0.21430098;0.032288585;;;;;1014.7
1191.0;1119.3;;;;;;;;;;;;;;;;;52.251503;2.3079624;-20.481735;;1024.3
1191.0;1119.3;;;;;;;;;;;;;;-0.5281533;-0.20764793;0.049867246;;;;;1024.3
1191.0;1119.3;;;;;;;;;;;;;;;;;49.295025;4.058962;-16.68981;;1024.3
1191.0;1119.3;;;;;;;;;;;;;;-0.49147007;-0.19653921;0.0756859;;;;;1024.3
1191.0;1119.3;;;;;;;;;;;;;;;;;45.674763;6.4012575;-13.012329;;1033.8
1191.0;1119.3;;;;;;;;;;;;;;-0.4577166;-0.1864681;0.10357982;;;;;1033.8
1191.0;1119.3;;;;;;;;;;;;;;;;;41.592915;9.079257;-9.102145;;1033.8
1191.0;1119.3;;;;;;;;;;;;;;-0.4173101;-0.20398572;0.12787256;;;;;1033.8
1191.0;1120.2;;;;;;;;;;;;;;;;;36.75573;12.398144;-4.7685175;;1043.5
1191.0;1120.2;;;;;;;;;;;;;;-0.37391278;-0.2290109;0.14746544;;;;;1043.5
1191.0;1120.2;;;;;;;;;;;;;;;;;30.17136;16.075624;-0.40818506;;1043.5
1191.0;1120.2;;;;;;;;;;;;;;-0.3449202;-0.2705771;0.15405744;;;;;1043.5
1191.0;1120.2;;;;;;;;;;;;;;;;;22.057253;19.024477;3.6393323;;1053.2
1191.0;1120.2;;;;;;;;;;;;;;-0.3109836;-0.30860317;0.14026307;;;;;1053.2
1191.0;1120.2;;;;;;;;;;;;;;;;;12.314219;22.90414;7.8470716;;1053.2
1191.0;1120.2;;;;;;;;;;;;;;-0.2949919;-0.37403485;0.10779138;;;;;1053.2
1191.0;1120.2;;;;;;;;;;;;;;;;;2.25074;26.448103;12.325664;;1062.8
1191.0;1120.2;;;;;;;;;;;;;;-0.3060396;-0.45197913;0.07770012;;;;;1062.8
1191.0;1120.2;;;;;;;;;;;;;;;;;-8.381146;28.67214;16.151922;;1062.8
1191.0;1120.2;;;;;;;;;;;;;;-0.31562242;-0.5371868;0.04754784;;;;;1062.8
1249.0;1130.9;;;;0.0;0.0;0.0;;;;;;;;;;;;;;;
1249.0;1130.9;;;;-0.34824374;-0.03367615;-0.09304429;;;;;;;;;;;;;;;
1249.0;1130.9;;;;-1.0460664;-0.14493562;-0.3510628;;;;;;;;;;;;;;;
1249.0;1130.9;;;;-1.0726091;-0.15233232;-0.37123874;;;;;;;;;;;;;;;
1249.0;1130.9;;;;-1.0745355;-0.15236284;-0.37368396;;;;;;;;;;;;;;;
1249.0;1140.9;;;;-1.0768319;-0.15238954;-0.37597662;;;;;;;;;;;;;;;
1249.0;1140.9;;;;-1.0795366;-0.15216829;-0.37808996;;;;;;;;;;;;;;;
1249.0;1140.9;;;;-1.0814363;-0.1522217;-0.37974554;;;;;;;;;;;;;;;
1249.0;1140.9;;;;-1.0829355;-0.15206148;-0.3820153;;;;;;;;;;;;;;;
1249.0;1140.9;;;;-1.0860559;-0.15158464;-0.38363272;;;;;;;;;;;;;;;
1249.0;1142.2;57517;57503;13213;;;;;;;;;;;;;;;;;;
1249.0;1150.8;;;;-1.0885545;-0.15201189;-0.38560873;;;;;;;;;;;;;;;
1249.0;1150.8;;;;-1.0907327;-0.15258028;-0.38792044;;;;;;;;;;;;;;;
1249.0;1150.8;;;;-1.0921746;-0.15358736;-0.39127737;;;;;;;;;;;;;;;
1249.0;1150.8;;;;-1.0938607;-0.1548691;-0.3929215;;;;;;;;;;;;;;;
1249.0;1150.8;;;;-1.0960351;-0.15574266;-0.3948174;;;;;;;;;;;;;;;
1251.0;1160.9;;;;-1.0985337;-0.15699007;-0.39693838;;;;;;;;;;;;;;;
1251.0;1160.9;;;;-1.1001359;-0.15843584;-0.399746;;;;;;;;;;;;;;;
1251.0;1160.9;;;;-1.101185;-0.15971757;-0.4028321;;;;;;;;;;;;;;;
1251.0;1160.9;;;;-1.1022111;-0.16072084;-0.40552908;;;;;;;;;;;;;;;
1251.0;1160.9;;;;-1.103489;-0.16223909;-0.4091187;;;;;;;;;;;;;;;
1251.0;1162.3;73834;73817;13215;;;;;;;;;;;;;;;;;;
1251.0;1168.6;;;;;;;;;;;;;0;;;;;;;;
1251.0;1168.6;;;;;;;;;;;;;0;;;;;;;;
1251.0;1168.6;;;;;;;;;;;;;-1;;;;;;;;
1251.0;1168.6;;;;;;;;;;;;;-2;;;;;;;;
1251.0;1168.6;;;;;;;;;;;;;-3;;;;;;;;
1251.0;1171.0;;;;-1.1038514;-0.16504289;-0.41273886;;;;;;;;;;;;;;;
1251.0;1171.0;;;;-1.1054078;-0.16818239;-0.416359;;;;;;;;;;;;;;;
1251.0;1171.0;;;;-1.1076127;-0.17206956;-0.42098624;;;;;;;;;;;;;;;
1251.0;1171.0;;;;-1.1102067;-0.17656328;-0.42687613;;;;;;;;;;;;;;;
1251.0;1171.0;;;;-1.1138078;-0.18091585;-0.43288046;;;;;;;;;;;;;;;
1254.0;1179.3;;;;;;;;;;;;;;;;;-19.95529;29.946287;19.692068;;1072.5
1254.0;1179.3;;;;;;;;;;;;;;-0.31629384;-0.62660605;-0.0126957;;;;;1072.5
1254.0;1179.3;;;;;;;;;;;;;;;;;-30.972471;30.411694;23.674734;;1072.5
1254.0;1179.3;;;;;;;;;;;;;;-0.31781974;-0.71614736;-0.07556383;;;;;1072.5
1254.0;1179.3;;;;;;;;;;;;;;;;;-41.093174;31.514175;27.760399;;1082.2
1254.0;1179.3;;;;;;;;;;;;;;-0.2956023;-0.78920865;-0.15833002;;;;;1082.2
1254.0;1179.3;;;;;;;;;;;;;;;;;-49.218727;35.168766;31.521805;;1082.2
1254.0;1179.3;;;;;;;;;;;;;;-0.28760645;-0.83834344;-0.24555193;;;;;1082.2
1254.0;1179.3;;;;;;;;;;;;;;;;;-51.62206;40.1471;35.67232;;1091.5
1254.0;1179.3;;;;;;;;;;;;;;-0.31958982;-0.84841454;-0.25995666;;;;;1091.5
1254.0;1179.3;;;;;;;;;;;;;;;;;-47.79199;43.218025;40.555283;;1091.5
1254.0;1179.3;;;;;;;;;;;;;;-0.37171546;-0.8282113;-0.23633534;;;;;1091.5
1254.0;1180.1;;;;;;;;;;;;;;;;;-39.170506;43.286694;47.04428;;1101.2
1254.0;1180.1;;;;;;;;;;;;;;-0.4130375;-0.7456893;-0.1779229;;;;;1101.2
1254.0;1180.1;;;;;;;;;;;;;;;;;-28.405102;41.837063;55.085907;;1101.2
1254.0;1180.1;;;;;;;;;;;;;;-0.40882596;-0.67464215;-0.12427137;;;;;1101.2
1254.0;1180.1;;;;;;;;;;;;;;;;;-7.442702;43.31721;64.03546;;1110.9
1254.0;1180.1;;;;;;;;;;;;;;-0.4629658;-0.6107364;0.24622333;;;;;1110.9
1254.0;1180.1;;;;;;;;;;;;;;;;;7.2824793;44.114506;70.5092;;1110.9
1254.0;1180.1;;;;;;;;;;;;;;-0.6707358;-0.75551623;0.56337166;;;;;1110.9
1254.0;1180.1;;;;;;;;;;;;;;;;;4.5968504;40.784172;68.59798;;1120.6
1254.0;1180.1;;;;;;;;;;;;;;-0.7780999;-1.0707114;0.47169408;;;;;1120.6
1254.0;1180.1;;;;;;;;;;;;;;;;;-2.643666;45.449688;61.010315;;1120.6
1254.0;1180.1;;;;;;;;;;;;;;-0.903531;-1.2439344;0.46571246;;;;;1120.6
1309.0;1181.0;;;;-1.1187822;-0.18469621;-0.4389153;;;;;;;;;;;;;;;
1309.0;1181.0;;;;-1.1251985;-0.18753818;-0.4451943;;;;;;;;;;;;;;;
1309.0;1181.0;;;;-1.1326066;-0.19007495;-0.45096213;;;;;;;;;;;;;;;
1309.0;1181.0;;;;-1.140175;-0.19114307;-0.45618445;;;;;;;;;;;;;;;
1309.0;1181.0;;;;-1.1463853;-0.1919556;-0.46166235;;;;;;;;;;;;;;;
1309.0;1182.4;90297;90295;13200;;;;;;;;;;;;;;;;;;
1309.0;1191.1;;;;-1.1527139;-0.19233707;-0.46836096;;;;;;;;;;;;;;;
1309.0;1191.1;;;;-1.1587602;-0.19263461;-0.473404;;;;;;;;;;;;;;;
1309.0;1191.1;;;;-1.1653711;-0.1938248;-0.47932822;;;;;;;;;;;;;;;
1309.0;1191.1;;;;-1.1716233;-0.19490817;-0.48472983;;;;;;;;;;;;;;;
1309.0;1191.1;;;;-1.1774522;-0.19575503;-0.48979574;;;;;;;;;;;;;;;
1309.0;1201.1;;;;-1.1833802;-0.1963425;-0.4968148;;;;;;;;;;;;;;;
1309.0;1201.1;;;;-1.1908647;-0.19663242;-0.50431067;;;;;;;;;;;;;;;
1309.0;1201.1;;;;-1.200615;-0.19670871;-0.5119439;;;;;;;;;;;;;;;
1309.0;1201.1;;;;-1.2125283;-0.19637302;-0.51939017;;;;;;;;;;;;;;;
1309.0;1201.1;;;;-1.2257615;-0.19555667;-0.5264893;;;;;;;;;;;;;;;
1309.0;1202.6;106629;106595;13194;;;;;;;;;;;;;;;;;;
1309.0;1208.7;;;;;;;;;;;;;-7;;;;;;;;
1309.0;1208.7;;;;;;;;;;;;;-6;;;;;;;;
1309.0;1208.7;;;;;;;;;;;;;-8;;;;;;;;
1309.0;1208.7;;;;;;;;;;;;;-18;;;;;;;;
1309.0;1208.7;;;;;;;;;;;;;-11;;;;;;;;
1313.0;1210.8;;;;-1.240883;-0.19428256;-0.5336152;;;;;;;;;;;;;;;
1313.0;1210.8;;;;-1.2571794;-0.19197848;-0.5410653;;;;;;;;;;;;;;;
1313.0;1210.8;;;;-1.2746164;-0.18906406;-0.54983526;;;;;;;;;;;;;;;
1313.0;1210.8;;;;-1.2920305;-0.18651201;-0.5564652;;;;;;;;;;;;;;;
1313.0;1210.8;;;;-1.3096696;-0.18245699;-0.5615235;;;;;;;;;;;;;;;
1313.0;1221.0;;;;-1.3277322;-0.17756654;-0.5670548;;;;;;;;;;;;;;;
1313.0;1221.0;;;;-1.3455011;-0.17184831;-0.57246786;;;;;;;;;;;;;;;
1313.0;1221.0;;;;-1.3603059;-0.1669655;-0.5763779;;;;;;;;;;;;;;;
1313.0;1221.0;;;;-1.3732339;-0.16178133;-0.5792199;;;;;;;;;;;;;;;
1313.0;1221.0;;;;-1.3843652;-0.1565056;-0.5813027;;;;;;;;;;;;;;;
1313.0;1222.5;123053;123095;13195;;;;;;;;;;;;;;;;;;
1313.0;1231.1;;;;-1.3924066;-0.15041353;-0.58258444;;;;;;;;;;;;;;;
1313.0;1231.1;;;;-1.398533;-0.14447786;-0.5830155;;;;;;;;;;;;;;;
1313.0;1231.1;;;;-1.4019433;-0.13826753;-0.58365256;;;;;;;;;;;;;;;
1313.0;1231.1;;;;-1.402691;-0.13198473;-0.5833283;;;;;;;;;;;;;;;
1313.0;1231.1;;;;-1.4006463;-0.12605287;-0.5820237;;;;;;;;;;;;;;;
1315.0;1239.5;;;;;;;;;;;;;;;;;-17.029327;55.322426;55.764946;;1130.2
1315.0;1239.5;;;;;;;;;;;;;;-0.9517502;-1.2784814;0.18030335;;;;;1130.2
1315.0;1239.5;;;;;;;;;;;;;;;;;-19.253365;65.60717;53.19758;;1130.2
1315.0;1239.5;;;;;;;;;;;;;;-1.0774865;-1.1619617;0.04956206;;;;;1130.2
1315.0;1239.5;;;;;;;;;;;;;;;;;-15.04181;73.12998;53.380688;;1139.9
1315.0;1239.5;;;;;;;;;;;;;;-1.2522355;-0.9696951;-0.18250069;;;;;1139.9
1315.0;1239.5;;;;;;;;;;;;;;;;;-6.187628;83.6169;60.52202;;1139.9
1315.0;1239.5;;;;;;;;;;;;;;-1.5072482;-0.80831325;-0.44062623;;;;;1139.9
1315.0;1239.5;;;;;;;;;;;;;;;;;-5.0660725;86.8595;72.107605;;1149.5
1315.0;1239.5;;;;;;;;;;;;;;-1.8755455;-0.68086797;-0.4557024;;;;;1149.5
1315.0;1239.5;;;;;;;;;;;;;;;;;-14.908293;73.736534;81.77816;;1149.5
1315.0;1239.5;;;;;;;;;;;;;;-1.9998169;-0.50795007;-0.31629384;;;;;1149.5
1315.0;1240.6;;;;;;;;;;;;;;;;;-24.899288;52.838985;87.13035;;1159.1
1315.0;1240.6;;;;;;;;;;;;;;-1.9998169;-0.3382061;-0.0010376293;;;;;1159.1
1315.0;1240.6;;;;;;;;;;;;;;;;;-40.2501;41.21525;88.267166;;1159.1
1315.0;1240.6;;;;;;;;;;;;;;-1.934019;-0.23053682;-0.14038515;;;;;1159.1
1315.0;1240.6;;;;;;;;;;;;;;;;;-56.611835;41.577656;83.903015;;1168.7
1315.0;1240.6;;;;;;;;;;;;;;-1.6338389;-0.17572558;-0.5404218;;;;;1168.7
1315.0;1240.6;;;;;;;;;;;;;;;;;-65.54231;42.455063;77.26142;;1168.7
1315.0;1240.6;;;;;;;;;;;;;;-1.4144719;-0.13055818;-0.56050295;;;;;1168.7
1315.0;1240.6;;;;;;;;;;;;;;;;;-67.86553;39.700764;71.45146;;1178.4
1315.0;1240.6;;;;;;;;;;;;;;-1.2656026;-0.14007996;-0.3673818;;;;;1178.4
1315.0;1240.6;;;;;;;;;;;;;;;;;-67.99142;35.161137;66.68676;;1178.4
1315.0;1240.6;;;;;;;;;;;;;;-1.182165;-0.14368114;-0.12359996;;;;;1178.4
1370.0;1241.0;;;;-1.3961335;-0.12068941;-0.5808678;;;;;;;;;;;;;;;
1370.0;1241.0;;;;-1.3898851;-0.114986435;-0.5786515;;;;;;;;;;;;;;;
1370.0;1241.0;;;;-1.3810197;-0.11025621;-0.5762635;;;;;;;;;;;;;;;
1370.0;1241.0;;;;-1.3694879;-0.10586549;-0.5729981;;;;;;;;;;;;;;;
1370.0;1241.0;;;;-1.356373;-0.10237123;-0.5696259;;;;;;;;;;;;;;;
1370.0;1242.6;139392;139460;13200;;;;;;;;;;;;;;;;;;
1370.0;1248.8;;;;;;;;;;;;;-29;;;;;;;;
1370.0;1248.8;;;;;;;;;;;;;-24;;;;;;;;
1370.0;1248.8;;;;;;;;;;;;;-7;;;;;;;;
1370.0;1248.8;;;;;;;;;;;;;-103;;;;;;;;
1370.0;1248.8;;;;;;;;;;;;;29;;;;;;;;
1370.0;1251.0;;;;-1.3412133;-0.09969331;-0.56646734;;;;;;;;;;;;;;;
1370.0;1251.0;;;;-1.3258134;-0.09694292;-0.562851;;;;;;;;;;;;;;;
1370.0;1251.0;;;;-1.3098794;-0.09511949;-0.5593377;;;;;;;;;;;;;;;
1370.0;1251.0;;;;-1.2924424;-0.094181076;-0.55626684;;;;;;;;;;;;;;;
1370.0;1251.0;;;;-1.2730638;-0.09350205;-0.55250174;;;;;;;;;;;;;;;
1370.0;1261.0;;;;-1.2523729;-0.093212135;-0.5493775;;;;;;;;;;;;;;;
1370.0;1261.0;;;;-1.2320672;-0.09329987;-0.5454293;;;;;;;;;;;;;;;
1370.0;1261.0;;;;-1.212555;-0.093936935;-0.54211813;;;;;;;;;;;;;;;
1370.0;1261.0;;;;-1.1940194;-0.09460069;-0.5396386;;;;;;;;;;;;;;;
1370.0;1261.0;;;;-1.1765977;-0.09544374;-0.5380402;;;;;;;;;;;;;;;
1370.0;1262.6;155780;155845;13203;;;;;;;;;;;;;;;;;;
1374.0;1271.0;;;;-1.1600038;-0.09706499;-0.53672796;;;;;;;;;;;;;;;
1374.0;1271.0;;;;-1.1447526;-0.09888078;-0.535389;;;;;;;;;;;;;;;
1374.0;1271.0;;;;-1.1305543;-0.10120775;-0.5351792;;;;;;;;;;;;;;;
1374.0;1271.0;;;;-1.1182367;-0.103504196;-0.53498465;;;;;;;;;;;;;;;
1374.0;1271.0;;;;-1.1077653;-0.10586168;-0.5347443;;;;;;;;;;;;;;;
1374.0;1281.0;;;;-1.09964;-0.10807802;-0.5358315;;;;;;;;;;;;;;;
1374.0;1281.0;;;;-1.0929834;-0.10986711;-0.53739554;;;;;;;;;;;;;;;
1374.0;1281.0;;;;-1.0873796;-0.11156465;-0.5394173;;;;;;;;;;;;;;;
1374.0;1281.0;;;;-1.0835153;-0.11338426;-0.5422898;;;;;;;;;;;;;;;
1374.0;1281.0;;;;-1.080887;-0.115051284;-0.5433007;;;;;;;;;;;;;;;
1374.0;1282.7;172268;172221;13189;;;;;;;;;;;;;;;;;;
1374.0;1289.0;;;;;;;;;;;;;246;;;;;;;;
1374.0;1289.0;;;;;;;;;;;;;-220;;;;;;;;
1374.0;1289.0;;;;;;;;;;;;;-639;;;;;;;;
1374.0;1289.0;;;;;;;;;;;;;571;;;;;;;;
1374.0;1289.0;;;;;;;;;;;;;3112;;;;;;;;
1374.0;1291.1;;;;-1.078663;-0.11701204;-0.54441077;;;;;;;;;;;;;;;
1374.0;1291.1;;;;-1.076069;-0.11842729;-0.54581076;;;;;;;;;;;;;;;
1374.0;1291.1;;;;-1.0731889;-0.11915971;-0.5475922;;;;;;;;;;;;;;;
1374.0;1291.1;;;;-1.068535;-0.11974718;-0.54840475;;;;;;;;;;;;;;;
1374.0;1291.1;;;;-1.0635644;-0.120510116;-0.5499497;;;;;;;;;;;;;;;
1377.0;1299.6;;;;;;;;;;;;;;;;;-71.11575;29.625843;61.86865;;1188.0
1377.0;1299.6;;;;;;;;;;;;;;-1.0319529;-0.11603137;0.037659843;;;;;1188.0
1377.0;1299.6;;;;;;;;;;;;;;;;;-81.61412;30.20188;58.404797;;1188.0
1377.0;1299.6;;;;;;;;;;;;;;-0.90462965;-0.17578661;-0.0314951;;;;;1188.0
1377.0;1299.6;;;;;;;;;;;;;;;;;-94.74471;32.258064;56.588947;;1197.7
1377.0;1299.6;;;;;;;;;;;;;;-0.80758077;-0.27619252;-0.11963256;;;;;1197.7
1377.0;1299.6;;;;;;;;;;;;;;;;;-101.928;34.127323;57.52739;;1197.7
1377.0;1299.6;;;;;;;;;;;;;;-0.7851192;-0.3953978;-0.10754723;;;;;1197.7
1377.0;1299.6;;;;;;;;;;;;;;;;;-104.18638;34.82543;60.018463;;1207.3
1377.0;1299.6;;;;;;;;;;;;;;-0.7803583;-0.50489825;-0.1225013;;;;;1207.3
1377.0;1299.6;;;;;;;;;;;;;;;;;-106.040375;34.508804;61.414684;;1207.3
1377.0;1299.6;;;;;;;;;;;;;;-0.7490463;-0.59022796;-0.2606891;;;;;1207.3
1377.0;1300.5;;;;;;;;;;;;;;;;;-103.10297;35.56169;62.093723;;1216.9
1377.0;1300.5;;;;;;;;;;;;;;-0.74404126;-0.6641438;-0.3427839;;;;;1216.9
1377.0;1300.5;;;;;;;;;;;;;;;;;-95.656456;37.266914;62.990204;;1216.9
1377.0;1300.5;;;;;;;;;;;;;;-0.77840513;-0.7392804;-0.34882656;;;;;1216.9
1377.0;1300.5;;;;;;;;;;;;;;;;;-86.939606;37.5721;63.77987;;1226.5
1377.0;1300.5;;;;;;;;;;;;;;-0.8300424;-0.80556655;-0.31635487;;;;;1226.5
1377.0;1300.5;;;;;;;;;;;;;;;;;-78.54701;36.1301;63.310646;;1226.5
1377.0;1300.5;;;;;;;;;;;;;;-0.8719748;-0.84035766;-0.32422864;;;;;1226.5
1377.0;1300.5;;;;;;;;;;;;;;;;;-70.83727;35.317543;62.196724;;1236.2
1377.0;1300.5;;;;;;;;;;;;;;-0.94174016;-0.8564104;-0.3137913;;;;;1236.2
1377.0;1300.5;;;;;;;;;;;;;;;;;-64.20713;33.127842;60.58687;;1236.2
1377.0;1300.5;;;;;;;;;;;;;;-0.9935606;-0.8518326;-0.35816523;;;;;1236.2
1378.0;1301.1;;;;-1.0581895;-0.12181856;-0.5510331;;;;;;;;;;;;;;;
1378.0;1301.1;;;;-1.0535737;-0.123024;-0.55224234;;;;;;;;;;;;;;;
1378.0;1301.1;;;;-1.0487977;-0.12379457;-0.55310446;;;;;;;;;;;;;;;
1378.0;1301.1;;;;-1.0444452;-0.124446884;-0.55339056;;;;;;;;;;;;;;;
1378.0;1301.1;;;;-1.0389215;-0.12483217;-0.5545159;;;;;;;;;;;;;;;
1378.0;1302.8;188635;188540;13194;;;;;;;;;;;;;;;;;;
1378.0;1311.2;;;;-1.0343324;-0.1249695;-0.5564576;;;;;;;;;;;;;;;
1378.0;1311.2;;;;-1.0288545;-0.12471773;-0.55686957;;;;;;;;;;;;;;;
1378.0;1311.2;;;;-1.023182;-0.12382509;-0.5570794;;;;;;;;;;;;;;;
1378.0;1311.2;;;;-1.0166589;-0.12296678;-0.5571709;;;;;;;;;;;;;;;
1378.0;1311.2;;;;-1.0097123;-0.12108995;-0.55681616;;;;;;;;;;;;;;;
1378.0;1314.6;;;;;;;;;;;;;;;;;-57.260353;30.808435;59.286022;;1245.9
1378.0;1314.6;;;;;;;;;;;;;;-1.0429395;-0.82418287;-0.39088106;;;;;1245.9
1378.0;1314.6;;;;;;;;;;;;;;;;;-50.889614;28.546251;57.973724;;1245.9
1378.0;1314.6;;;;;;;;;;;;;;-1.0752891;-0.79067355;-0.42353588;;;;;1245.9
1378.0;1314.6;;;;;;;;;;;;;;;;;-46.02954;26.261177;56.882687;;1255.5
1378.0;1314.6;;;;;;;;;;;;;;-1.0767541;-0.73592335;-0.4727317;;;;;1255.5
1378.0;1314.6;;;;;;;;;;;;;;;;;-40.707874;25.269325;56.272316;;1255.5
1378.0;1314.6;;;;;;;;;;;;;;-1.0679036;-0.67952514;-0.5009308;;;;;1255.5
1378.0;1314.6;;;;;;;;;;;;;;;;;-34.836876;25.337992;56.466873;;1265.2
1378.0;1314.6;;;;;;;;;;;;;;-1.0548418;-0.6103091;-0.48841822;;;;;1265.2
1378.0;1314.6;;;;;;;;;;;;;;;;;-30.316324;25.116734;57.008575;;1265.2
1378.0;1314.6;;;;;;;;;;;;;;-1.0260323;-0.5580615;-0.43403423;;;;;1265.2
1427.0;1321.1;;;;-1.0032884;-0.12003328;-0.5561982;;;;;;;;;;;;;;;
1427.0;1321.1;;;;-0.99863446;-0.11901094;-0.5566216;;;;;;;;;;;;;;;
1427.0;1321.1;;;;-0.9948541;-0.1174698;-0.55641943;;;;;;;;;;;;;;;
1427.0;1321.1;;;;-0.99038327;-0.116245285;-0.55628973;;;;;;;;;;;;;;;
1427.0;1321.1;;;;-0.9850923;-0.11454393;-0.5562859;;;;;;;;;;;;;;;
1427.0;1322.9;204984;205024;13183;;;;;;;;;;;;;;;;;;
1427.0;1329.0;;;;;;;;;;;;;4932;;;;;;;;
1427.0;1329.0;;;;;;;;;;;;;4763;;;;;;;;
1427.0;1329.0;;;;;;;;;;;;;3501;;;;;;;;
1427.0;1329.0;;;;;;;;;;;;;3057;;;;;;;;
1427.0;1329.0;;;;;;;;;;;;;3763;;;;;;;;
1427.0;1331.1;;;;-0.9787599;-0.11222841;-0.55544287;;;;;;;;;;;;;;;
1427.0;1331.1;;;;-0.9728395;-0.109611526;-0.5531083;;;;;;;;;;;;;;;
1427.0;1331.1;;;;-0.96626675;-0.1066208;-0.55064017;;;;;;;;;;;;;;;
1427.0;1331.1;;;;-0.9606515;-0.10273744;-0.5484696;;;;;;;;;;;;;;;
1427.0;1331.1;;;;-0.9543916;-0.09959413;-0.54648596;;;;;;;;;;;;;;;
1427.0;1341.0;;;;-0.94807446;-0.097038284;-0.5443116;;;;;;;;;;;;;;;
1427.0;1341.0;;;;-0.9414102;-0.094367996;-0.54196936;;;;;;;;;;;;;;;
1427.0;1341.0;;;;-0.93537533;-0.0919304;-0.5391312;;;;;;;;;;;;;;;
1427.0;1341.0;;;;-0.92912304;-0.0902176;-0.5366402;;;;;;;;;;;;;;;
1427.0;1341.0;;;;-0.9226953;-0.08921815;-0.53428274;;;;;;;;;;;;;;;
1427.0;1342.9;221279;221390;13195;;;;;;;;;;;;;;;;;;
1431.0;1351.2;;;;-0.9163133;-0.08808518;-0.53197867;;;;;;;;;;;;;;;
1431.0;1351.2;;;;-0.9094125;-0.08730317;-0.5287209;;;;;;;;;;;;;;;
1431.0;1351.2;;;;-0.9022752;-0.08656312;-0.5253411;;;;;;;;;;;;;;;
1431.0;1351.2;;;;-0.8949472;-0.08607484;-0.5222588;;;;;;;;;;;;;;;
1431.0;1351.2;;;;-0.8879701;-0.08558274;-0.51943594;;;;;;;;;;;;;;;
1431.0;1360.2;;;;;;;;;;;;;;;;;-28.653065;24.834436;57.657093;;1274.9
1431.0;1360.2;;;;;;;;;;;;;;-0.9819636;-0.5133824;-0.4116947;;;;;1274.9
1431.0;1360.2;;;;;;;;;;;;;;;;;-29.038363;25.06714;58.06528;;1274.9
1431.0;1360.2;;;;;;;;;;;;;;-0.92373425;-0.46943572;-0.3927732;;;;;1274.9
1431.0;1360.2;;;;;;;;;;;;;;;;;-29.78988;26.272621;58.946503;;1284.5
1431.0;1360.2;;;;;;;;;;;;;;-0.8888821;-0.43647572;-0.36481827;;;;;1284.5
1431.0;1360.2;;;;;;;;;;;;;;;;;-30.247658;27.504807;60.033722;;1284.5
1431.0;1360.2;;;;;;;;;;;;;;-0.8644063;-0.41572315;-0.31818599;;;;;1284.5
1431.0;1360.2;;;;;;;;;;;;;;;;;-31.68966;28.103731;60.922573;;1294.2
1431.0;1360.2;;;;;;;;;;;;;;-0.8385876;-0.4074221;-0.29841;;;;;1294.2
1431.0;1360.2;;;;;;;;;;;;;;;;;-33.104954;29.110844;61.85339;;1294.2
1431.0;1360.2;;;;;;;;;;;;;;-0.8236946;-0.41010773;-0.2766808;;;;;1294.2
1431.0;1361.2;;;;-0.8816911;-0.08467484;-0.5163384;;;;;;;;;;;;;;;
1431.0;1361.2;;;;-0.8756906;-0.083507545;-0.5132943;;;;;;;;;;;;;;;
1431.0;1361.2;;;;-0.8710748;-0.08280564;-0.5098954;;;;;;;;;;;;;;;
1431.0;1361.2;;;;-0.8671609;-0.08208466;-0.5080376;;;;;;;;;;;;;;;
1431.0;1361.2;;;;-0.8637239;-0.081485756;-0.5052491;;;;;;;;;;;;;;;
1431.0;1363.1;237749;237719;13192;;;;;;;;;;;;;;;;;;
1433.0;1369.3;;;;;;;;;;;;;4192;;;;;;;;
1433.0;1369.3;;;;;;;;;;;;;3738;;;;;;;;
1433.0;1369.3;;;;;;;;;;;;;3033;;;;;;;;
1433.0;1369.3;;;;;;;;;;;;;2475;;;;;;;;
1433.0;1369.3;;;;;;;;;;;;;2054;;;;;;;;
1433.0;1371.3;;;;-0.85974514;-0.080932625;-0.50176245;;;;;;;;;;;;;;;
1433.0;1371.3;;;;-0.8550836;-0.08039475;-0.49833304;;;;;;;;;;;;;;;
1433.0;1371.3;;;;-0.85123456;-0.08008576;-0.49576956;;;;;;;;;;;;;;;
1433.0;1371.3;;;;-0.8470727;-0.07971955;-0.4926415;;;;;;;;;;;;;;;
1433.0;1371.3;;;;-0.84378827;-0.07968903;-0.48981863;;;;;;;;;;;;;;;
1433.0;1374.8;;;;;;;;;;;;;;;;;-34.2761;30.014954;62.52861;;1303.9
1433.0;1374.8;;;;;;;;;;;;;;-0.81728566;-0.40778834;-0.26606035;;;;;1303.9
1433.0;1374.8;;;;;;;;;;;;;;;;;-35.103916;30.18662;63.066498;;1303.9
1433.0;1374.8;;;;;;;;;;;;;;-0.81508833;-0.4173101;-0.26209295;;;;;1303.9
1433.0;1374.8;;;;;;;;;;;;;;;;;-35.17258;29.67925;63.318275;;1313.4
1433.0;1374.8;;;;;;;;;;;;;;-0.8143559;-0.43385112;-0.25513473;;;;;1313.4
1433.0;1374.8;;;;;;;;;;;;;;;;;-35.06195;29.07651;63.234352;;1313.4
1433.0;1374.8;;;;;;;;;;;;;;-0.81044954;-0.4497818;-0.26416823;;;;;1313.4
1433.0;1374.8;;;;;;;;;;;;;;;;;-34.447765;28.630177;63.07794;;1323.0
1433.0;1374.8;;;;;;;;;;;;;;-0.81606495;-0.47285378;-0.25434124;;;;;1323.0
1433.0;1374.8;;;;;;;;;;;;;;;;;-33.44066;27.668842;62.948242;;1323.0
1433.0;1374.8;;;;;;;;;;;;;;-0.81948304;-0.49501023;-0.2580645;;;;;1323.0
1486.0;1381.1;;;;-0.8410188;-0.079673775;-0.4860726;;;;;;;;;;;;;;;
1486.0;1381.1;;;;-0.838276;-0.07960511;-0.48249823;;;;;;;;;;;;;;;
1486.0;1381.1;;;;-0.83565915;-0.079868324;-0.47951132;;;;;;;;;;;;;;;
1486.0;1381.1;;;;-0.83389294;-0.079349525;-0.47562796;;;;;;;;;;;;;;;
1486.0;1381.1;;;;-0.83293927;-0.07983018;-0.47167593;;;;;;;;;;;;;;;
1486.0;1383.1;254092;254114;13195;;;;;;;;;;;;;;;;;;
1486.0;1391.1;;;;-0.832451;-0.08082963;-0.46905524;;;;;;;;;;;;;;;
1486.0;1391.1;;;;-0.83171093;-0.081607826;-0.46632773;;;;;;;;;;;;;;;
1486.0;1391.1;;;;-0.83129895;-0.08277131;-0.463646;;;;;;;;;;;;;;;
1486.0;1391.1;;;;-0.83026135;-0.08405686;-0.46157843;;;;;;;;;;;;;;;
1486.0;1391.1;;;;-0.8291093;-0.08536912;-0.45949942;;;;;;;;;;;;;;;
1486.0;1401.1;;;;-0.82792675;-0.086658485;-0.4577294;;;;;;;;;;;;;;;
1486.0;1401.1;;;;-0.82722485;-0.08700562;-0.4517365;;;;;;;;;;;;;;;
1486.0;1401.1;;;;-0.8252183;-0.0864296;-0.44847876;;;;;;;;;;;;;;;
1486.0;1401.1;;;;-0.82036984;-0.086170204;-0.44308096;;;;;;;;;;;;;;;
1486.0;1401.1;;;;-0.81684124;-0.08612824;-0.43995672;;;;;;;;;;;;;;;
1486.0;1403.1;262143;262143;13196;;;;;;;;;;;;;;;;;;
1486.0;1409.4;;;;;;;;;;;;;1657;;;;;;;;
1486.0;1409.4;;;;;;;;;;;;;1258;;;;;;;;
1486.0;1409.4;;;;;;;;;;;;;1160;;;;;;;;
1486.0;1409.4;;;;;;;;;;;;;1495;;;;;;;;
1486.0;1409.4;;;;;;;;;;;;;1799;;;;;;;;
1489.0;1411.2;;;;-0.8167001;-0.086586006;-0.44018942;;;;;;;;;;;;;;;
1489.0;1411.2;;;;-0.819172;-0.0881424;-0.4392777;;;;;;;;;;;;;;;
1489.0;1411.2;;;;-0.82242215;-0.091377266;-0.4369927;;;;;;;;;;;;;;;
1489.0;1411.2;;;;-0.8237001;-0.09536745;-0.43308264;;;;;;;;;;;;;;;
1489.0;1411.2;;;;-0.82109463;-0.09855653;-0.42948538;;;;;;;;;;;;;;;
1489.0;1420.0;;;;;;;;;;;;;;;;;-32.19703;26.61977;62.547684;;1332.7
1489.0;1420.0;;;;;;;;;;;;;;-0.817774;-0.5175939;-0.26490065;;;;;1332.7
1489.0;1420.0;;;;;;;;;;;;;;;;;-30.533768;25.368511;62.4485;;1332.7
1489.0;1420.0;;;;;;;;;;;;;;-0.81923884;-0.5378582;-0.26502272;;;;;1332.7
1489.0;1420.0;;;;;;;;;;;;;;;;;-28.309732;24.09055;62.37602;;1342.4
1489.0;1420.0;;;;;;;;;;;;;;-0.8214362;-0.56196785;-0.25617236;;;;;1342.4
1489.0;1420.0;;;;;;;;;;;;;;;;;-25.223547;22.812586;62.658318;;1342.4
1489.0;1420.0;;;;;;;;;;;;;;-0.8263802;-0.57502973;-0.2418897;;;;;1342.4
1489.0;1420.0;;;;;;;;;;;;;;;;;-21.80166;21.954254;63.081757;;1352.0
1489.0;1420.0;;;;;;;;;;;;;;-0.8418836;-0.5680105;-0.23035371;;;;;1352.0
1489.0;1420.0;;;;;;;;;;;;;;;;;-18.532366;20.870846;63.676872;;1352.0
1489.0;1420.0;;;;;;;;;;;;;;-0.8552507;-0.549089;-0.2283395;;;;;1352.0
1489.0;1421.2;;;;-0.8157083;-0.10108186;-0.42836386;;;;;;;;;;;;;;;
1489.0;1421.2;;;;-0.8080598;-0.10254671;-0.42584616;;;;;;;;;;;;;;;
1489.0;1421.2;;;;-0.79960644;-0.10317232;-0.42271048;;;;;;;;;;;;;;;
1489.0;1421.2;;;;-0.79197705;-0.10305406;-0.41976553;;;;;;;;;;;;;;;
1489.0;1421.2;;;;-0.78662884;-0.102577224;-0.4178658;;;;;;;;;;;;;;;
1489.0;1423.3;262143;262143;13198;;;;;;;;;;;;;;;;;;
1493.0;1431.3;;;;-0.7835351;-0.102554336;-0.41556937;;;;;;;;;;;;;;;
1493.0;1431.3;;;;-0.78115475;-0.102726;-0.41288382;;;;;;;;;;;;;;;
1493.0;1431.3;;;;-0.7787858;-0.103023544;-0.41001135;;;;;;;;;;;;;;;
1493.0;1431.3;;;;-0.7754518;-0.10303499;-0.40668875;;;;;;;;;;;;;;;
1493.0;1431.3;;;;-0.7716447;-0.10354616;-0.40614706;;;;;;;;;;;;;;;
1493.0;1435.0;;;;;;;;;;;;;;;;;-15.530107;19.83703;64.61532;;1361.7
1493.0;1435.0;;;;;;;;;;;;;;-0.8633076;-0.5268105;-0.22827846;;;;;1361.7
1493.0;1435.0;;;;;;;;;;;;;;;;;-12.573626;19.24192;65.675835;;1361.7
1493.0;1435.0;;;;;;;;;;;;;;-0.8824122;-0.47956786;-0.23670156;;;;;1361.7
1493.0;1435.0;;;;;;;;;;;;;;;;;-9.9147005;18.585773;66.763054;;1371.3
1493.0;1435.0;;;;;;;;;;;;;;-0.9043245;-0.46021912;-0.23731193;;;;;1371.3
1493.0;1435.0;;;;;;;;;;;;;;;;;-6.916257;17.071291;67.964714;;1371.3
1493.0;1435.0;;;;;;;;;;;;;;-0.9098178;-0.41468552;-0.22882779;;;;;1371.3
1493.0;1435.0;;;;;;;;;;;;;;;;;-4.970702;16.117588;69.341866;;1381.0
1493.0;1435.0;;;;;;;;;;;;;;-0.9197058;-0.3848384;-0.23224586;;;;;1381.0
1493.0;1435.0;;;;;;;;;;;;;;;;;-4.039888;15.465255;71.05853;;1381.0
1493.0;1435.0;;;;;;;;;;;;;;-0.9209876;-0.33698538;-0.23187964;;;;;1381.0
1493.0;1441.2;;;;-0.76729596;-0.103504196;-0.39934546;;;;;;;;;;;;;;;
1493.0;1441.2;;;;-0.76235974;-0.103843704;-0.39311224;;;;;;;;;;;;;;;
1493.0;1441.2;;;;-0.758114;-0.104526535;-0.3895684;;;;;;;;;;;;;;;
1493.0;1441.2;;;;-0.75449765;-0.105461136;-0.38589102;;;;;;;;;;;;;;;
1493.0;1441.2;;;;-0.74960715;-0.10713579;-0.3819428;;;;;;;;;;;;;;;
1493.0;1443.4;262143;262143;13190;;;;;;;;;;;;;;;;;;
1547.0;1449.5;;;;;;;;;;;;;1875;;;;;;;;
1547.0;1449.5;;;;;;;;;;;;;1979;;;;;;;;
1547.0;1449.5;;;;;;;;;;;;;2235;;;;;;;;
1547.0;1449.5;;;;;;;;;;;;;2427;;;;;;;;
1547.0;1449.5;;;;;;;;;;;;;2298;;;;;;;;
1547.0;1451.3;;;;-0.7445565;-0.10912706;-0.38084418;;;;;;;;;;;;;;;
1547.0;1451.3;;;;-0.73990256;-0.110820785;-0.38014227;;;;;;;;;;;;;;;
1547.0;1451.3;;;;-0.73479086;-0.11156084;-0.3752404;;;;;;;;;;;;;;;
1547.0;1451.3;;;;-0.72995;-0.11244203;-0.3680611;;;;;;;;;;;;;;;
1547.0;1451.3;;;;-0.725998;-0.11268236;-0.36310962;;;;;;;;;;;;;;;
1547.0;1461.2;;;;-0.72222143;-0.11268617;-0.3583527;;;;;;;;;;;;;;;
1547.0;1461.2;;;;-0.71988684;-0.112388626;-0.35201266;;;;;;;;;;;;;;;
1547.0;1461.2;;;;-0.7195397;-0.112461105;-0.34687045;;;;;;;;;;;;;;;
1547.0;1461.2;;;;-0.7164231;-0.112834945;-0.34631732;;;;;;;;;;;;;;;
1547.0;1461.2;;;;-0.7104264;-0.11402513;-0.34607318;;;;;;;;;;;;;;;
1547.0;1463.4;262143;262143;13178;;;;;;;;;;;;;;;;;;
1547.0;1471.3;;;;-0.7027436;-0.11513139;-0.34542468;;;;;;;;;;;;;;;
1547.0;1471.3;;;;-0.6953698;-0.116374984;-0.3451195;;;;;;;;;;;;;;;
1547.0;1471.3;;;;-0.68848807;-0.116813675;-0.3398972;;;;;;;;;;;;;;;
1547.0;1471.3;;;;-0.68093497;-0.11704637;-0.32971194;;;;;;;;;;;;;;;
1547.0;1471.3;;;;-0.67402273;-0.117107406;-0.3258362;;;;;;;;;;;;;;;
1549.0;1480.2;;;;;;;;;;;;;;;;;-4.8829613;14.507736;72.29835;;1390.6
1549.0;1480.2;;;;;;;;;;;;;;-0.8968169;-0.2719199;-0.25141147;;;;;1390.6
1549.0;1480.2;;;;;;;;;;;;;;;;;-7.4732203;14.584033;72.89346;;1390.6
1549.0;1480.2;;;;;;;;;;;;;;-0.88882107;-0.16028321;-0.28119755;;;;;1390.6
1549.0;1480.2;;;;;;;;;;;;;;;;;-11.825923;14.023255;72.98883;;1400.3
1549.0;1480.2;;;;;;;;;;;;;;-0.87874997;-0.13299966;-0.25995666;;;;;1400.3
1549.0;1480.2;;;;;;;;;;;;;;;;;-15.911589;12.836848;74.228645;;1400.3
1549.0;1480.2;;;;;;;;;;;;;;-0.8713645;-0.14111759;-0.2684408;;;;;1400.3
1549.0;1480.2;;;;;;;;;;;;;;;;;-19.707327;11.448256;75.90335;;1409.9
1549.0;1480.2;;;;;;;;;;;;;;-0.86355174;-0.16266365;-0.2582476;;;;;1409.9
1549.0;1480.2;;;;;;;;;;;;;;;;;-24.098179;11.329996;76.715904;;1409.9
1549.0;1480.2;;;;;;;;;;;;;;-0.8625752;-0.14117862;-0.26612142;;;;;1409.9
1549.0;1481.3;;;;-0.670662;-0.117576614;-0.32776263;;;;;;;;;;;;;;;
1549.0;1481.3;;;;-0.6709519;-0.11912157;-0.32948306;;;;;;;;;;;;;;;
1549.0;1481.3;;;;-0.671238;-0.12236406;-0.33119968;;;;;;;;;;;;;;;
1549.0;1481.3;;;;-0.6723214;-0.12542726;-0.33004764;;;;;;;;;;;;;;;
1549.0;1481.3;;;;-0.6708756;-0.12815477;-0.33031467;;;;;;;;;;;;;;;
1549.0;1483.6;262143;262143;13187;;;;;;;;;;;;;;;;;;
1550.0;1487.7;;;;;;;;;;;;;;;;;-27.790916;10.95996;77.70394;;1419.6
1550.0;1487.7;;;;;;;;;;;;;;-0.8545793;-0.20563371;-0.27509385;;;;;1419.6
1550.0;1487.7;;;;;;;;;;;;;;;;;-29.015472;10.025331;79.138306;;1419.6
1550.0;1487.7;;;;;;;;;;;;;;-0.8330943;-0.24201179;-0.28675193;;;;;1419.6
1550.0;1487.7;;;;;;;;;;;;;;;;;-28.75225;9.689628;79.9356;;1429.2
1550.0;1487.7;;;;;;;;;;;;;;-0.8173467;-0.25794244;-0.2811365;;;;;1429.2
1550.0;1487.7;;;;;;;;;;;;;;;;;-28.218176;10.486923;80.49257;;1429.2
1550.0;1487.7;;;;;;;;;;;;;;-0.8346812;-0.1685232;-0.2690512;;;;;1429.2
1550.0;1487.7;;;;;;;;;;;;;;;;;-30.346842;10.006256;80.44297;;1438.9
1550.0;1487.7;;;;;;;;;;;;;;-0.8517716;-0.11719108;-0.25116733;;;;;1438.9
1550.0;1487.7;;;;;;;;;;;;;;;;;-32.81503;8.079776;80.252235;;1438.9
1550.0;1487.7;;;;;;;;;;;;;;-0.8321787;-0.17920469;-0.24359874;;;;;1438.9
1550.0;1489.6;;;;;;;;;;;;;1931;;;;;;;;
1550.0;1489.6;;;;;;;;;;;;;1562;;;;;;;;
1550.0;1489.6;;;;;;;;;;;;;1365;;;;;;;;
1550.0;1489.6;;;;;;;;;;;;;1344;;;;;;;;
1550.0;1489.6;;;;;;;;;;;;;1286;;;;;;;;
1550.0;1491.3;;;;-0.66725546;-0.13052751;-0.33157733;;;;;;;;;;;;;;;
1550.0;1491.3;;;;-0.66197973;-0.13052751;-0.33316043;;;;;;;;;;;;;;;
1550.0;1491.3;;;;-0.6548081;-0.12910081;-0.335537;;;;;;;;;;;;;;;
1550.0;1491.3;;;;-0.6455422;-0.12588884;-0.33772662;;;;;;;;;;;;;;;
1550.0;1491.3;;;;-0.6380463;-0.1201935;-0.33873752;;;;;;;;;;;;;;;
1607.0;1501.3;;;;-0.6310273;-0.114994064;-0.33941653;;;;;;;;;;;;;;;
1607.0;1501.3;;;;-0.62567526;-0.11062242;-0.34064487;;;;;;;;;;;;;;;
1607.0;1501.3;;;;-0.6223412;-0.10708238;-0.34264377;;;;;;;;;;;;;;;
1607.0;1501.3;;;;-0.6202393;-0.10516359;-0.34452823;;;;;;;;;;;;;;;
1607.0;1501.3;;;;-0.62019354;-0.10435106;-0.34516147;;;;;;;;;;;;;;;
1607.0;1503.6;262143;262143;13186;;;;;;;;;;;;;;;;;;
1607.0;1511.1;;;;-0.6227189;-0.10491182;-0.34375766;;;;;;;;;;;;;;;
1607.0;1511.1;;;;-0.6273232;-0.10580446;-0.3415604;;;;;;;;;;;;;;;
1607.0;1511.1;;;;-0.6336251;-0.10634996;-0.34110644;;;;;;;;;;;;;;;
1607.0;1511.1;;;;-0.6400338;-0.10624315;-0.3408127;;;;;;;;;;;;;;;
1607.0;1511.1;;;;-0.64659506;-0.106109634;-0.3381386;;;;;;;;;;;;;;;
1607.0;1521.2;;;;-0.65191656;-0.10489656;-0.33583835;;;;;;;;;;;;;;;
1607.0;1521.2;;;;-0.6558915;-0.103309646;-0.3301392;;;;;;;;;;;;;;;
1607.0;1521.2;;;;-0.65943533;-0.101326;-0.3259087;;;;;;;;;;;;;;;
1607.0;1521.2;;;;-0.6612702;-0.09999086;-0.32500842;;;;;;;;;;;;;;;
1607.0;1521.2;;;;-0.66221243;-0.09920122;-0.32341388;;;;;;;;;;;;;;;
1607.0;1523.6;262143;262143;13194;;;;;;;;;;;;;;;;;;
1607.0;1529.7;;;;;;;;;;;;;907;;;;;;;;
1607.0;1529.7;;;;;;;;;;;;;383;;;;;;;;
1607.0;1529.7;;;;;;;;;;;;;247;;;;;;;;
1607.0;1529.7;;;;;;;;;;;;;569;;;;;;;;
1607.0;1529.7;;;;;;;;;;;;;1075;;;;;;;;
1609.0;1531.3;;;;-0.6634789;-0.098102584;-0.3171654;;;;;;;;;;;;;;;
1609.0;1531.3;;;;-0.6631928;-0.09794237;-0.31616595;;;;;;;;;;;;;;;
1609.0;1531.3;;;;-0.6612931;-0.09754945;-0.3142052;;;;;;;;;;;;;;;
1609.0;1531.3;;;;-0.6574479;-0.09659578;-0.3106995;;;;;;;;;;;;;;;
1609.0;1531.3;;;;-0.6535302;-0.0957184;-0.3055916;;;;;;;;;;;;;;;
1609.0;1541.4;;;;-0.6502648;-0.09410478;-0.30071262;;;;;;;;;;;;;;;
1609.0;1541.4;;;;-0.64791113;-0.092189796;-0.2968674;;;;;;;;;;;;;;;
1609.0;1541.4;;;;-0.64661413;-0.090694435;-0.29262927;;;;;;;;;;;;;;;
1609.0;1541.4;;;;-0.6479569;-0.08964539;-0.2888184;;;;;;;;;;;;;;;
1609.0;1541.4;;;;-0.6509362;-0.0887909;-0.28618243;;;;;;;;;;;;;;;
1609.0;1543.8;262143;262143;13189;;;;;;;;;;;;;;;;;;
1609.0;1551.5;;;;-0.65541846;-0.089363106;-0.2846718;;;;;;;;;;;;;;;
1609.0;1551.5;;;;-0.6600304;-0.090629585;-0.28196338;;;;;;;;;;;;;;;
1609.0;1551.5;;;;-0.66390234;-0.091838844;-0.27877048;;;;;;;;;;;;;;;
1609.0;1551.5;;;;-0.6670266;-0.09267045;-0.27563098;;;;;;;;;;;;;;;
1609.0;1551.5;;;;-0.67031866;-0.093227394;-0.27323917;;;;;;;;;;;;;;;
1612.0;1555.6;;;;;;;;;;;;;;;;;-34.218876;6.923887;77.520836;;1448.6
1612.0;1555.6;;;;;;;;;;;;;;-0.78200626;-0.15790276;-0.26111636;;;;;1448.6
1612.0;1555.6;;;;;;;;;;;;;;;;;-35.79821;7.2252574;74.400314;;1448.6
1612.0;1555.6;;;;;;;;;;;;;;-0.7989746;-0.15485092;-0.26673177;;;;;1448.6
1612.0;1555.6;;;;;;;;;;;;;;;;;-36.370434;6.725517;72.058014;;1458.2
1612.0;1555.6;;;;;;;;;;;;;;-0.8057497;-0.15442365;-0.25232702;;;;;1458.2
1612.0;1555.6;;;;;;;;;;;;;;;;;-36.149174;6.328776;70.39857;;1458.2
1612.0;1555.6;;;;;;;;;;;;;;-0.7892697;-0.18420972;-0.2351146;;;;;1458.2
1612.0;1555.6;;;;;;;;;;;;;;;;;-35.760063;6.931516;68.59798;;1467.9
1612.0;1555.6;;;;;;;;;;;;;;-0.78756064;-0.19000824;-0.23438215;;;;;1467.9
1612.0;1555.6;;;;;;;;;;;;;;;;;-34.77584;8.243813;66.72491;;1467.9
1612.0;1555.6;;;;;;;;;;;;;;-0.81118196;-0.17896055;-0.22400586;;;;;1467.9
1612.0;1556.3;;;;;;;;;;;;;;;;;-33.017212;8.1827755;65.176094;;1477.6
1612.0;1556.3;;;;;;;;;;;;;;-0.8252205;-0.17590868;-0.22498246;;;;;1477.6
1612.0;1556.3;;;;;;;;;;;;;;;;;-31.193731;7.6525164;63.547165;;1477.6
1612.0;1556.3;;;;;;;;;;;;;;-0.8186285;-0.17633595;-0.2451857;;;;;1477.6
1612.0;1556.3;;;;;;;;;;;;;;;;;-28.78277;7.3397017;61.73513;;1487.2
1612.0;1556.3;;;;;;;;;;;;;;-0.8096561;-0.18317209;-0.22559282;;;;;1487.2
1612.0;1556.3;;;;;;;;;;;;;;;;;-25.997955;7.1298866;60.163425;;1487.2
1612.0;1556.3;;;;;;;;;;;;;;-0.80007327;-0.19385357;-0.22144231;;;;;1487.2
1612.0;1556.3;;;;;;;;;;;;;;;;;-23.518326;5.7489243;58.40098;;1496.9
1612.0;1556.3;;;;;;;;;;;;;;-0.7869503;-0.19745475;-0.23035371;;;;;1496.9
1612.0;1556.3;;;;;;;;;;;;;;;;;-21.179846;5.0889616;56.264687;;1496.9
1612.0;1556.3;;;;;;;;;;;;;;-0.78792685;-0.17358929;-0.23236793;;;;;1496.9
1666.0;1561.4;;;;-0.6732064;-0.0929184;-0.27054217;;;;;;;;;;;;;;;
1666.0;1561.4;;;;-0.67529684;-0.09241486;-0.26752856;;;;;;;;;;;;;;;
1666.0;1561.4;;;;-0.6760102;-0.0918007;-0.26492313;;;;;;;;;;;;;;;
1666.0;1561.4;;;;-0.6762238;-0.09133912;-0.26275256;;;;;;;;;;;;;;;
1666.0;1561.4;;;;-0.675953;-0.09105302;-0.2633858;;;;;;;;;;;;;;;
1666.0;1563.9;262143;262143;13195;;;;;;;;;;;;;;;;;;
1666.0;1569.9;;;;;;;;;;;;;1589;;;;;;;;
1666.0;1569.9;;;;;;;;;;;;;1933;;;;;;;;
1666.0;1569.9;;;;;;;;;;;;;1869;;;;;;;;
1666.0;1569.9;;;;;;;;;;;;;1372;;;;;;;;
1666.0;1569.9;;;;;;;;;;;;;1599;;;;;;;;
1666.0;1571.2;;;;-0.67794424;-0.09059907;-0.2629433;;;;;;;;;;;;;;;
1666.0;1571.2;;;;-0.6812859;-0.090141304;-0.26282886;;;;;;;;;;;;;;;
1666.0;1571.2;;;;-0.6854935;-0.08918763;-0.26335147;;;;;;;;;;;;;;;
1666.0;1571.2;;;;-0.68942267;-0.08740235;-0.26375964;;;;;;;;;;;;;;;
1666.0;1571.2;;;;-0.6930581;-0.08555222;-0.2636414;;;;;;;;;;;;;;;
1666.0;1581.1;;;;-0.696724;-0.08366013;-0.26249698;;;;;;;;;;;;;;;
1666.0;1581.1;;;;-0.6991883;-0.0817833;-0.2606621;;;;;;;;;;;;;;;
1666.0;1581.1;;;;-0.700779;-0.08076478;-0.26013187;;;;;;;;;;;;;;;
1666.0;1581.1;;;;-0.7030526;-0.07982255;-0.25958636;;;;;;;;;;;;;;;
1666.0;1581.1;;;;-0.70691687;-0.079486854;-0.25928882;;;;;;;;;;;;;;;
1666.0;1583.7;262143;262143;13192;;;;;;;;;;;;;;;;;;
1674.0;1591.3;;;;-0.71189123;-0.07880784;-0.25828937;;;;;;;;;;;;;;;
1674.0;1591.3;;;;-0.71802145;-0.07826234;-0.25799182;;;;;;;;;;;;;;;
1674.0;1591.3;;;;-0.7242699;-0.07716752;-0.25796512;;;;;;;;;;;;;;;
1674.0;1591.3;;;;-0.73024374;-0.07535172;-0.25641254;;;;;;;;;;;;;;;
1674.0;1591.3;;;;-0.7358323;-0.073234566;-0.25467303;;;;;;;;;;;;;;;
1674.0;1600.5;;;;;;;;;;;;;;;;;-18.967255;4.2306285;54.311504;;1506.5
1674.0;1600.5;;;;;;;;;;;;;;-0.7677236;-0.24585712;-0.25379193;;;;;1506.5
1674.0;1600.5;;;;;;;;;;;;;;;;;-14.839625;3.2197027;54.025394;;1506.5
1674.0;1600.5;;;;;;;;;;;;;;-0.7672964;-0.2450026;-0.23352763;;;;;1506.5
1674.0;1600.5;;;;;;;;;;;;;;;;;-10.559404;2.1362956;53.559986;;1516.1
1674.0;1600.5;;;;;;;;;;;;;;-0.7668691;-0.2548906;-0.21362957;;;;;1516.1
1674.0;1600.5;;;;;;;;;;;;;;;;;-6.672109;1.1291848;53.472244;;1516.1
1674.0;1600.5;;;;;;;;;;;;;;-0.76326793;-0.2662435;-0.20587787;;;;;1516.1
1674.0;1600.5;;;;;;;;;;;;;;;;;-2.2202215;0.057222206;53.582874;;1525.7
1674.0;1600.5;;;;;;;;;;;;;;-0.75685906;-0.27307963;-0.20203254;;;;;1525.7
1674.0;1600.5;;;;;;;;;;;;;;;;;1.1406293;-0.8049257;53.949097;;1525.7
1674.0;1600.5;;;;;;;;;;;;;;-0.7540513;-0.25757623;-0.20441298;;;;;1525.7
1674.0;1601.3;;;;-0.74155813;-0.071422584;-0.25250247;;;;;;;;;;;;;;;
1674.0;1601.3;;;;-0.7471543;-0.069831856;-0.25064853;;;;;;;;;;;;;;;
1674.0;1601.3;;;;-0.75387585;-0.068817146;-0.24919131;;;;;;;;;;;;;;;
1674.0;1601.3;;;;-0.7614442;-0.06830979;-0.25008395;;;;;;;;;;;;;;;
1674.0;1601.3;;;;-0.76936734;-0.068645485;-0.25116733;;;;;;;;;;;;;;;
1674.0;1603.9;262143;262143;13205;;;;;;;;;;;;;;;;;;
1677.0;1608.3;;;;;;;;;;;;;;;;;3.1815546;-1.4725181;54.788353;;1535.4
1677.0;1608.3;;;;;;;;;;;;;;-0.76168096;-0.25403607;-0.21423994;;;;;1535.4
1677.0;1608.3;;;;;;;;;;;;;;;;;4.890591;-2.2392957;55.40254;;1535.4
1677.0;1608.3;;;;;;;;;;;;;;-0.76595354;-0.25452438;-0.22382274;;;;;1535.4
1677.0;1608.3;;;;;;;;;;;;;;;;;5.920591;-2.750481;55.6238;;1545.0
1677.0;1608.3;;;;;;;;;;;;;;-0.7794427;-0.2593463;-0.23316142;;;;;1545.0
1677.0;1608.3;;;;;;;;;;;;;;;;;7.2252574;-3.6774805;55.383465;;1545.0
1677.0;1608.3;;;;;;;;;;;;;;-0.7820673;-0.2503128;-0.23780023;;;;;1545.0
1677.0;1608.3;;;;;;;;;;;;;;;;;8.7397375;-4.2878504;55.127872;;1554.7
1677.0;1608.3;;;;;;;;;;;;;;-0.7889645;-0.24921414;-0.2334666;;;;;1554.7
1677.0;1608.3;;;;;;;;;;;;;;;;;9.895626;-4.566332;54.70443;;1554.7
1677.0;1608.3;;;;;;;;;;;;;;-0.7917722;-0.23718986;-0.23944822;;;;;1554.7
1677.0;1609.9;;;;;;;;;;;;;3631;;;;;;;;
1677.0;1609.9;;;;;;;;;;;;;3737;;;;;;;;
1677.0;1609.9;;;;;;;;;;;;;-4993;;;;;;;;
1677.0;1609.9;;;;;;;;;;;;;-20650;;;;;;;;
1677.0;1609.9;;;;;;;;;;;;;-29859;;;;;;;;
1677.0;1611.2;;;;-0.77580655;-0.069385536;-0.25083545;;;;;;;;;;;;;;;
1677.0;1611.2;;;;-0.78097165;-0.069976814;-0.25055316;;;;;;;;;;;;;;;
1677.0;1611.2;;;;-0.78790295;-0.070228584;-0.25223163;;;;;;;;;;;;;;;
1677.0;1611.2;;;;-0.7966882;-0.07019044;-0.25371936;;;;;;;;;;;;;;;
1677.0;1611.2;;;;-0.80446637;-0.06935502;-0.25363162;;;;;;;;;;;;;;;
1726.0;1621.2;;;;-0.8105012;-0.0676117;-0.2518845;;;;;;;;;;;;;;;
1726.0;1621.2;;;;-0.8156091;-0.064853676;-0.25106052;;;;;;;;;;;;;;;
1726.0;1621.2;;;;-0.8205415;-0.06113053;-0.24958804;;;;;;;;;;;;;;;
1726.0;1621.2;;;;-0.82564175;-0.05688096;-0.24857715;;;;;;;;;;;;;;;
1726.0;1621.2;;;;-0.8333169;-0.052459724;-0.24891284;;;;;;;;;;;;;;;
1726.0;1623.9;262143;262143;13203;;;;;;;;;;;;;;;;;;
1726.0;1631.2;;;;-0.8449327;-0.04816056;-0.24729922;;;;;;;;;;;;;;;
1726.0;1631.2;;;;-0.8589021;-0.044219974;-0.24272159;;;;;;;;;;;;;;;
1726.0;1631.2;;;;-0.87422574;-0.041160587;-0.24111179;;;;;;;;;;;;;;;
1726.0;1631.2;;;;-0.88801205;-0.03853989;-0.24108508;;;;;;;;;;;;;;;
1726.0;1631.2;;;;-0.8965951;-0.03697205;-0.24144748;;;;;;;;;;;;;;;
1726.0;1641.2;;;;-0.90145504;-0.035133366;-0.24024966;;;;;;;;;;;;;;;
1726.0;1641.2;;;;-0.90397656;-0.032527927;-0.23989108;;;;;;;;;;;;;;;
1726.0;1641.2;;;;-0.9046136;-0.029010776;-0.24024966;;;;;;;;;;;;;;;
1726.0;1641.2;;;;-0.9053422;-0.024585728;-0.23973468;;;;;;;;;;;;;;;
1726.0;1641.2;;;;-0.90810025;-0.019573214;-0.2392731;;;;;;;;;;;;;;;
1726.0;1643.9;262143;262143;13206;;;;;;;;;;;;;;;;;;
1726.0;1650.1;;;;;;;;;;;;;-23217;;;;;;;;
1726.0;1650.1;;;;;;;;;;;;;-7068;;;;;;;;
1726.0;1650.1;;;;;;;;;;;;;4404;;;;;;;;
1726.0;1650.1;;;;;;;;;;;;;5740;;;;;;;;
1726.0;1650.1;;;;;;;;;;;;;3117;;;;;;;;
1728.0;1651.3;;;;-0.91267025;-0.013786318;-0.23948291;;;;;;;;;;;;;;;
1728.0;1651.3;;;;-0.9195901;-0.007858277;-0.24112704;;;;;;;;;;;;;;;
1728.0;1651.3;;;;-0.9272462;-0.0012016298;-0.24229816;;;;;;;;;;;;;;;
1728.0;1651.3;;;;-0.93507016;0.0050048833;-0.24353793;;;;;;;;;;;;;;;
1728.0;1651.3;;;;-0.940796;0.0109176645;-0.24480823;;;;;;;;;;;;;;;
1728.0;1660.7;;;;;;;;;;;;;;;;;10.818812;-4.425184;53.827023;;1564.4
1728.0;1660.7;;;;;;;;;;;;;;-0.8143559;-0.22174749;-0.22797327;;;;;1564.4
1728.0;1660.7;;;;;;;;;;;;;;;;;10.937071;-4.318369;52.720726;;1564.4
1728.0;1660.7;;;;;;;;;;;;;;-0.8307138;-0.22119816;-0.24555193;;;;;1564.4
1728.0;1660.7;;;;;;;;;;;;;;;;;11.307108;-3.7690358;51.76702;;1574.0
1728.0;1660.7;;;;;;;;;;;;;;-0.85818046;-0.21411787;-0.23975341;;;;;1574.0
1728.0;1660.7;;;;;;;;;;;;;;;;;11.753441;-3.4981842;50.95828;;1574.0
1728.0;1660.7;;;;;;;;;;;;;;-0.88772243;-0.21222572;-0.23242897;;;;;1574.0
1728.0;1660.7;;;;;;;;;;;;;;;;;12.699514;-3.7537766;50.382244;;1583.7
1728.0;1660.7;;;;;;;;;;;;;;-0.9048738;-0.21454512;-0.23310037;;;;;1583.7
1728.0;1660.7;;;;;;;;;;;;;;;;;14.118626;-5.0927763;50.389874;;1583.7
1728.0;1660.7;;;;;;;;;;;;;;-0.9239784;-0.21680349;-0.24579607;;;;;1583.7
1728.0;1661.3;;;;-0.947075;0.016490938;-0.24613956;;;;;;;;;;;;;;;
1728.0;1661.3;;;;-0.95393765;0.021339418;-0.24971011;;;;;;;;;;;;;;;
1728.0;1661.3;;;;-0.9620744;0.0267067;-0.25381854;;;;;;;;;;;;;;;
1728.0;1661.3;;;;-0.9723321;0.03197098;-0.26006702;;;;;;;;;;;;;;;
1728.0;1661.3;;;;-0.98316205;0.03730393;-0.26565173;;;;;;;;;;;;;;;
1728.0;1664.1;262143;262143;13192;;;;;;;;;;;;;;;;;;
1787.0;1671.4;;;;-0.99489224;0.043117527;-0.27207568;;;;;;;;;;;;;;;
1787.0;1671.4;;;;-1.0072938;0.049469;-0.2803574;;;;;;;;;;;;;;;
1787.0;1671.4;;;;-1.0207635;0.056018837;-0.28806308;;;;;;;;;;;;;;;
1787.0;1671.4;;;;-1.0354959;0.06291581;-0.29581836;;;;;;;;;;;;;;;
1787.0;1671.4;;;;-1.0517732;0.07079316;-0.30345157;;;;;;;;;;;;;;;
1787.0;1681.4;;;;-1.0681955;0.07867051;-0.31140903;;;;;;;;;;;;;;;
1787.0;1681.4;;;;-1.0850755;0.08621598;-0.31875995;;;;;;;;;;;;;;;
1787.0;1681.4;;;;-1.1017;0.09376146;-0.32618335;;;;;;;;;;;;;;;
1787.0;1681.4;;;;-1.1180116;0.09960176;-0.33436206;;;;;;;;;;;;;;;
1787.0;1681.4;;;;-1.1340638;0.105793014;-0.3416138;;;;;;;;;;;;;;;
1787.0;1684.3;262143;262143;13197;;;;;;;;;;;;;;;;;;
1787.0;1690.3;;;;;;;;;;;;;2760;;;;;;;;
1787.0;1690.3;;;;;;;;;;;;;4092;;;;;;;;
1787.0;1690.3;;;;;;;;;;;;;4560;;;;;;;;
1787.0;1690.3;;;;;;;;;;;;;4268;;;;;;;;
1787.0;1690.3;;;;;;;;;;;;;3819;;;;;;;;
1787.0;1691.5;;;;-1.1497537;0.11187364;-0.34902576;;;;;;;;;;;;;;;
1787.0;1691.5;;;;-1.1637155;0.11699678;-0.3561974;;;;;;;;;;;;;;;
1787.0;1691.5;;;;-1.1757127;0.12186052;-0.36244968;;;;;;;;;;;;;;;
1787.0;1691.5;;;;-1.1870729;0.12638856;-0.37030795;;;;;;;;;;;;;;;
1787.0;1691.5;;;;-1.1968766;0.13064958;-0.37813193;;;;;;;;;;;;;;;
1788.0;1701.5;;;;-1.2047273;0.13397218;-0.38478857;;;;;;;;;;;;;;;
1788.0;1701.5;;;;-1.2108232;0.13610078;-0.39160162;;;;;;;;;;;;;;;
1788.0;1701.5;;;;-1.2155877;0.13792802;-0.3978234;;;;;;;;;;;;;;;
1788.0;1701.5;;;;-1.2209207;0.13856126;-0.40510184;;;;;;;;;;;;;;;
1788.0;1701.5;;;;-1.2266618;0.13819124;-0.41219717;;;;;;;;;;;;;;;
1788.0;1704.4;262143;262143;13206;;;;;;;;;;;;;;;;;;
1788.0;1711.6;;;;-1.2327386;0.13700487;-0.4196511;;;;;;;;;;;;;;;
1788.0;1711.6;;;;-1.238907;0.13559343;-0.42688757;;;;;;;;;;;;;;;
1788.0;1711.6;;;;-1.2451898;0.13404085;-0.4335137;;;;;;;;;;;;;;;
1788.0;1711.6;;;;-1.2509652;0.13213731;-0.4415627;;;;;;;;;;;;;;;
1788.0;1711.6;;;;-1.2566987;0.13038255;-0.44826514;;;;;;;;;;;;;;;
1788.0;1721.2;;;;;;;;;;;;;;;;;15.022736;-6.614887;50.48143;;1593.4
1788.0;1721.2;;;;;;;;;;;;;;-0.93972594;-0.22681357;-0.2563555;;;;;1593.4
1788.0;1721.2;;;;;;;;;;;;;;;;;15.66744;-7.831813;50.294502;;1593.4
1788.0;1721.2;;;;;;;;;;;;;;-0.9590747;-0.23151341;-0.26026186;;;;;1593.4
1788.0;1721.2;;;;;;;;;;;;;;;;;15.747551;-8.758812;50.130466;;1603.1
1788.0;1721.2;;;;;;;;;;;;;;-0.9798883;-0.24323252;-0.2626423;;;;;1603.1
1788.0;1721.2;;;;;;;;;;;;;;;;;15.167699;-9.502701;49.70702;;1603.1
1788.0;1721.2;;;;;;;;;;;;;;-0.99282813;-0.27527696;-0.2690512;;;;;1603.1
1788.0;1721.2;;;;;;;;;;;;;;;;;15.232551;-9.945219;49.478134;;1612.7
1788.0;1721.2;;;;;;;;;;;;;;-0.99148536;-0.29737237;-0.27777946;;;;;1612.7
1788.0;1721.2;;;;;;;;;;;;;;;;;16.327404;-9.926145;49.321728;;1612.7
1788.0;1721.2;;;;;;;;;;;;;;-1.0013123;-0.32221442;-0.28681296;;;;;1612.7
1791.0;1721.7;;;;-1.26252;0.12893297;-0.45242316;;;;;;;;;;;;;;;
1791.0;1721.7;;;;-1.2681085;0.12760164;-0.4581452;;;;;;;;;;;;;;;
1791.0;1721.7;;;;-1.27557;0.12659456;-0.46456534;;;;;;;;;;;;;;;
1791.0;1721.7;;;;-1.282776;0.12602998;-0.46999365;;;;;;;;;;;;;;;
1791.0;1721.7;;;;-1.2898141;0.12564088;-0.47443396;;;;;;;;;;;;;;;
1791.0;1722.0;;;;;;;;;;;;;;;;;18.391216;-10.086368;49.462875;;1622.4
1791.0;1722.0;;;;;;;;;;;;;;-1.0013733;-0.3328959;-0.2992645;;;;;1622.4
1791.0;1722.0;;;;;;;;;;;;;;;;;21.637625;-10.296182;50.084686;;1622.4
1791.0;1722.0;;;;;;;;;;;;;;-1.000946;-0.35096285;-0.3128147;;;;;1622.4
1791.0;1722.0;;;;;;;;;;;;;;;;;25.830103;-10.395368;51.026947;;1632.0
1791.0;1722.0;;;;;;;;;;;;;;-1.0110782;-0.3602405;-0.31653798;;;;;1632.0
1791.0;1722.0;;;;;;;;;;;;;;;;;30.159916;-11.013368;51.74032;;1632.0
1791.0;1722.0;;;;;;;;;;;;;;-1.012421;-0.3566393;-0.32264167;;;;;1632.0
1791.0;1722.0;;;;;;;;;;;;;;;;;34.653767;-11.196478;52.465134;;1641.7
1791.0;1722.0;;;;;;;;;;;;;;-1.0202948;-0.3604236;-0.32624286;;;;;1641.7
1791.0;1722.0;;;;;;;;;;;;;;;;;39.212467;-10.742516;53.006836;;1641.7
1791.0;1722.0;;;;;;;;;;;;;;-1.0488602;-0.36353648;-0.33527634;;;;;1641.7
1799.0;1723.0;;;;;;;;;;;;;;;;;43.359173;-10.479293;53.220467;;1651.3
1799.0;1723.0;;;;;;;;;;;;;;-1.0676595;-0.35389262;-0.33606982;;;;;1651.3
1799.0;1723.0;;;;;;;;;;;;;;;;;46.628468;-10.074923;53.209023;;1651.3
1799.0;1723.0;;;;;;;;;;;;;;-1.0985442;-0.34418774;-0.33906063;;;;;1651.3
1799.0;1723.0;;;;;;;;;;;;;;;;;48.524433;-9.857478;53.178505;;1661.0
1799.0;1723.0;;;;;;;;;;;;;;-1.1279031;-0.34717858;-0.3401593;;;;;1661.0
1799.0;1723.0;;;;;;;;;;;;;;;;;49.428543;-9.140294;53.0488;;1661.0
1799.0;1723.0;;;;;;;;;;;;;;-1.1581774;-0.36262092;-0.36072877;;;;;1661.0
1799.0;1723.0;;;;;;;;;;;;;;;;;50.397503;-8.934294;52.655872;;1670.6
1799.0;1723.0;;;;;;;;;;;;;;-1.1764885;-0.37946716;-0.3685415;;;;;1670.6
1799.0;1723.0;;;;;;;;;;;;;;;;;51.198612;-8.236183;52.186653;;1670.6
1799.0;1723.0;;;;;;;;;;;;;;-1.2225715;-0.4076052;-0.3852046;;;;;1670.6
1799.0;1724.4;262143;262143;13194;;;;;;;;;;;;;;;;;;
1799.0;1730.4;;;;;;;;;;;;;3366;;;;;;;;
1799.0;1730.4;;;;;;;;;;;;;3422;;;;;;;;
1799.0;1730.4;;;;;;;;;;;;;3643;;;;;;;;
1799.0;1730.4;;;;;;;;;;;;;3333;;;;;;;;
1799.0;1730.4;;;;;;;;;;;;;2482;;;;;;;;
1799.0;1731.5;;;;-1.2980233;0.12517168;-0.47883993;;;;;;;;;;;;;;;
1799.0;1731.5;;;;-1.3080484;0.12476732;-0.48369986;;;;;;;;;;;;;;;
1799.0;1731.5;;;;-1.3191682;0.12365724;-0.48790747;;;;;;;;;;;;;;;
1799.0;1731.5;;;;-1.3311883;0.12268068;-0.49207312;;;;;;;;;;;;;;;
1799.0;1731.5;;;;-1.3429452;0.12187959;-0.49660116;;;;;;;;;;;;;;;
1847.0;1741.3;;;;;;;;;;0.51499987;18.524736;-1.865444;;;;;;;;;
1847.0;1741.3;;;;;;;0.95864743;0.14111759;-0.26862392;;;;;;;;;;;;
1847.0;1741.3;;;;;;;;;;6.061739;29.786066;9.304331;;;;;;;;;
1847.0;1741.3;;;;;;;1.0793176;0.15814692;-0.3070162;;;;;;;;;;;;
1847.0;1741.5;;;;-1.3542863;0.12147142;-0.5003014;;;;;;;;;;;;;;;
1847.0;1741.5;;;;-1.3648111;0.12143327;-0.5034142;;;;;;;;;;;;;;;
1847.0;1741.5;;;;-1.3751451;0.122116104;-0.50653464;;;;;;;;;;;;;;;
1847.0;1741.5;;;;-1.38472;0.12365343;-0.5087357;;;;;;;;;;;;;;;
1847.0;1741.5;;;;-1.39423;0.12569429;-0.51191336;;;;;;;;;;;;;;;
1847.0;1744.5;262143;262143;13190;;;;;;;;;;;;;;;;;;
1847.0;1750.8;;;;;;;;;;-2.5254066;6.0350356;4.9249244;;;;;;;;;
1847.0;1750.8;;;;;;;1.0850551;0.15692617;-0.31049532;;;;;;;;;;;;
1847.0;1750.8;;;;;;;;;;3.0060732;14.126255;8.404035;;;;;;;;;
1847.0;1750.8;;;;;;;1.0904874;0.15710929;-0.31434065;;;;;;;;;;;;
1847.0;1751.5;;;;-1.4040033;0.12768556;-0.5138436;;;;;;;;;;;;;;;
1847.0;1751.5;;;;-1.413025;0.12960435;-0.51564795;;;;;;;;;;;;;;;
1847.0;1751.5;;;;-1.4215165;0.13116838;-0.51639944;;;;;;;;;;;;;;;
1847.0;1751.5;;;;-1.430504;0.13317873;-0.517582;;;;;;;;;;;;;;;
1847.0;1751.5;;;;-1.4394342;0.13443758;-0.5191193;;;;;;;;;;;;;;;
1847.0;1760.3;;;;;;;;;;0.92699975;11.291848;9.239479;;;;;;;;;
1847.0;1760.3;;;;;;;1.0951872;0.15771966;-0.32013917;;;;;;;;;;;;
1847.0;1760.3;;;;;;;;;;-7.168035;-28.805658;-11.14307;;;;;;;;;
1847.0;1760.3;;;;;;;1.1001313;0.16095462;-0.32459486;;;;;;;;;;;;
1849.0;1761.5;;;;-1.4488412;0.13569643;-0.5210801;;;;;;;;;;;;;;;
1849.0;1761.5;;;;-1.4585916;0.13726808;-0.52190405;;;;;;;;;;;;;;;
1849.0;1761.5;;;;-1.467991;0.13880159;-0.522728;;;;;;;;;;;;;;;
1849.0;1761.5;;;;-1.4759828;0.1402588;-0.5224305;;;;;;;;;;;;;;;
1849.0;1761.5;;;;-1.4832116;0.14246751;-0.52159506;;;;;;;;;;;;;;;
1849.0;1764.5;262143;262143;13185;;;;;;;;;;;;;;;;;;
1849.0;1769.9;;;;;;;;;;-10.567034;-33.88699;-11.272774;;;;;;;;;
1849.0;1769.9;;;;;;;1.106296;0.16418958;-0.33185828;;;;;;;;;;;;
1849.0;1769.9;;;;;;;;;;-14.233069;-38.731804;-11.070589;;;;;;;;;
1849.0;1769.9;;;;;;;1.1093478;0.16638692;-0.33832818;;;;;;;;;;;;
1849.0;1770.6;;;;;;;;;;;;;1642;;;;;;;;
1849.0;1770.6;;;;;;;;;;;;;1346;;;;;;;;
1849.0;1770.6;;;;;;;;;;;;;1430;;;;;;;;
1849.0;1770.6;;;;;;;;;;;;;1491;;;;;;;;
1849.0;1770.6;;;;;;;;;;;;;1376;;;;;;;;
1849.0;1771.6;;;;-1.4881021;0.14577486;-0.52080923;;;;;;;;;;;;;;;
1849.0;1771.6;;;;-1.4904672;0.14907075;-0.51912314;;;;;;;;;;;;;;;
1849.0;1771.6;;;;-1.4915696;0.15283968;-0.5168801;;;;;;;;;;;;;;;
1849.0;1771.6;;;;-1.491192;0.15603258;-0.51474386;;;;;;;;;;;;;;;
1849.0;1771.6;;;;-1.4900094;0.15970995;-0.5122948;;;;;;;;;;;;;;;
1849.0;1779.6;;;;;;;;;;-18.253883;-35.721916;-4.856258;;;;;;;;;
1849.0;1779.6;;;;;;;1.1100192;0.17169714;-0.34553057;;;;;;;;;;;;
1849.0;1779.6;;;;;;;;;;-20.569475;-28.927732;2.4452956;;;;;;;;;
1849.0;1779.6;;;;;;;1.1185033;0.18225653;-0.3559679;;;;;;;;;;;;
1855.0;1781.2;;;;;;;;;;;;;;;;;52.396465;-7.9348125;51.27491;;1680.2
1855.0;1781.2;;;;;;;;;;;;;;-1.2523576;-0.43879512;-0.38410595;;;;;1680.2
1855.0;1781.2;;;;;;;;;;;;;;;;;53.95291;-8.461257;50.2678;;1680.2
1855.0;1781.2;;;;;;;;;;;;;;-1.2779931;-0.46607867;-0.38245797;;;;;1680.2
1855.0;1781.2;;;;;;;;;;;;;;;;;55.57039;-9.498886;49.12717;;1689.8
1855.0;1781.2;;;;;;;;;;;;;;-1.300821;-0.48438978;-0.3729362;;;;;1689.8
1855.0;1781.2;;;;;;;;;;;;;;;;;56.15024;-10.242775;47.19306;;1689.8
1855.0;1781.2;;;;;;;;;;;;;;-1.3117466;-0.47816402;-0.34846035;;;;;1689.8
1855.0;1781.2;;;;;;;;;;;;;;;;;54.883724;-10.330516;44.656208;;1699.4
1855.0;1781.2;;;;;;;;;;;;;;-1.3069857;-0.46620074;-0.33845028;;;;;1699.4
1855.0;1781.2;;;;;;;;;;;;;;;;;53.277687;-9.208961;42.004913;;1699.4
1855.0;1781.2;;;;;;;;;;;;;;-1.3024689;-0.4751732;-0.33118686;;;;;1699.4
1855.0;1781.6;;;;-1.4878312;0.1626816;-0.5096322;;;;;;;;;;;;;;;
1855.0;1781.6;;;;-1.4856225;0.16429903;-0.50698096;;;;;;;;;;;;;;;
1855.0;1781.6;;;;-1.4825784;0.16594316;-0.5040284;;;;;;;;;;;;;;;
1855.0;1781.6;;;;-1.478367;0.16649629;-0.5013123;;;;;;;;;;;;;;;
1855.0;1781.6;;;;-1.4734918;0.16648866;-0.49903876;;;;;;;;;;;;;;;
1856.0;1782.0;;;;;;;;;;;;;;;;;51.530502;-8.465072;39.822838;;1709.0
1856.0;1782.0;;;;;;;;;;;;;;-1.3146764;-0.48725852;-0.3424177;;;;;1709.0
1856.0;1782.0;;;;;;;;;;;;;;;;;50.153355;-9.361553;37.987915;;1709.0
1856.0;1782.0;;;;;;;;;;;;;;-1.328959;-0.4989166;-0.3723258;;;;;1709.0
1856.0;1782.0;;;;;;;;;;;;;;;;;49.630726;-11.57033;35.97751;;1718.7
1856.0;1782.0;;;;;;;;;;;;;;-1.3367717;-0.4956206;-0.39167455;;;;;1718.7
1856.0;1782.0;;;;;;;;;;;;;;;;;49.741352;-14.133884;33.642845;;1718.7
1856.0;1782.0;;;;;;;;;;;;;;-1.3376262;-0.48750266;-0.41199988;;;;;1718.7
1856.0;1782.0;;;;;;;;;;;;;;;;;50.424206;-16.468552;30.926695;;1728.3
1856.0;1782.0;;;;;;;;;;;;;;-1.3399457;-0.47608876;-0.42365795;;;;;1728.3
1856.0;1782.0;;;;;;;;;;;;;;;;;51.431316;-18.745995;27.901546;;1728.3
1856.0;1782.0;;;;;;;;;;;;;;-1.3577685;-0.43037203;-0.43714714;;;;;1728.3
1856.0;1784.6;262143;262143;13192;;;;;;;;;;;;;;;;;;
1856.0;1788.9;;;;;;;;;;-21.980957;-29.515215;3.151036;;;;;;;;;
1856.0;1788.9;;;;;;;1.1291848;0.19244972;-0.37128818;;;;;;;;;;;;
1856.0;1788.9;;;;;;;;;;-23.35429;-30.159916;4.1962953;;;;;;;;;
1856.0;1788.9;;;;;;;1.1466415;0.19745475;-0.38441116;;;;;;;;;;;;
1856.0;1791.6;;;;-1.468094;0.16642381;-0.49758917;;;;;;;;;;;;;;;
1856.0;1791.6;;;;-1.4627649;0.16625978;-0.49558264;;;;;;;;;;;;;;;
1856.0;1791.6;;;;-1.456482;0.16588975;-0.49404532;;;;;;;;;;;;;;;
1856.0;1791.6;;;;-1.4488488;0.16564943;-0.49258047;;;;;;;;;;;;;;;
1856.0;1791.6;;;;-1.4396478;0.16513444;-0.49086767;;;;;;;;;;;;;;;
1906.0;1798.5;;;;;;;;;;-24.70092;-30.720694;5.512406;;;;;;;;;
1906.0;1798.5;;;;;;;1.1622059;0.20007935;-0.39844966;;;;;;;;;;;;
1906.0;1798.5;;;;;;;;;;-25.986511;-30.972471;7.0955534;;;;;;;;;
1906.0;1798.5;;;;;;;1.1783807;0.20123905;-0.41199988;;;;;;;;;;;;
1906.0;1801.6;;;;-1.4293252;0.16453554;-0.48820502;;;;;;;;;;;;;;;
1906.0;1801.6;;;;-1.4189531;0.16331102;-0.4861489;;;;;;;;;;;;;;;
1906.0;1801.6;;;;-1.4082795;0.16222383;-0.48411566;;;;;;;;;;;;;;;
1906.0;1801.6;;;;-1.397297;0.15965272;-0.4816323;;;;;;;;;;;;;;;
1906.0;1801.6;;;;-1.3861352;0.15612413;-0.47840887;;;;;;;;;;;;;;;
1906.0;1804.8;262143;262143;13184;;;;;;;;;;;;;;;;;;
1906.0;1808.1;;;;;;;;;;-27.195808;-31.117435;8.808405;;;;;;;;;
1906.0;1808.1;;;;;;;1.192175;0.20422986;-0.42493972;;;;;;;;;;;;
1906.0;1808.1;;;;;;;;;;-28.359325;-31.315807;10.635701;;;;;;;;;
1906.0;1808.1;;;;;;;1.2131108;0.20514542;-0.44148076;;;;;;;;;;;;
1906.0;1810.7;;;;;;;;;;;;;1251;;;;;;;;
1906.0;1810.7;;;;;;;;;;;;;1193;;;;;;;;
1906.0;1810.7;;;;;;;;;;;;;972;;;;;;;;
1906.0;1810.7;;;;;;;;;;;;;496;;;;;;;;
1906.0;1810.7;;;;;;;;;;;;;11;;;;;;;;
1906.0;1811.4;;;;-1.3747674;0.15267183;-0.47576147;;;;;;;;;;;;;;;
1906.0;1811.4;;;;-1.3634607;0.14875413;-0.47323614;;;;;;;;;;;;;;;
1906.0;1811.4;;;;-1.352131;0.14433672;-0.4703446;;;;;;;;;;;;;;;
1906.0;1811.4;;;;-1.3407174;0.14016344;-0.46676642;;;;;;;;;;;;;;;
1906.0;1811.4;;;;-1.3284074;0.13584901;-0.4618073;;;;;;;;;;;;;;;
1911.0;1817.3;;;;;;;;;;-29.530474;-31.743065;12.176886;;;;;;;;;
1911.0;1817.3;;;;;;;1.244728;0.20404676;-0.4596698;;;;;;;;;;;;
1911.0;1817.3;;;;;;;;;;-30.713064;-32.162693;13.603626;;;;;;;;;
1911.0;1817.3;;;;;;;1.281167;0.19666128;-0.47724846;;;;;;;;;;;;
1911.0;1821.4;;;;-1.3149797;0.13159944;-0.45553976;;;;;;;;;;;;;;;
1911.0;1821.4;;;;-1.3008233;0.12752534;-0.44892508;;;;;;;;;;;;;;;
1911.0;1821.4;;;;-1.286934;0.12317659;-0.44234473;;;;;;;;;;;;;;;
1911.0;1821.4;;;;-1.2727624;0.11941148;-0.4350739;;;;;;;;;;;;;;;
1911.0;1821.4;;;;-1.2580339;0.11541368;-0.42747122;;;;;;;;;;;;;;;
1911.0;1824.7;262143;262143;13183;;;;;;;;;;;;;;;;;;
1911.0;1827.0;;;;;;;;;;-32.01773;-32.322918;14.622181;;;;;;;;;
1911.0;1827.0;;;;;;;1.3263955;0.19086276;-0.49092075;;;;;;;;;;;;
1911.0;1827.0;;;;;;;;;;-33.46736;-31.929993;15.526292;;;;;;;;;
1911.0;1827.0;;;;;;;1.3664968;0.1770684;-0.5020295;;;;;;;;;;;;
1911.0;1831.5;;;;-1.2429353;0.111267105;-0.4194718;;;;;;;;;;;;;;;
1911.0;1831.5;;;;-1.2280313;0.106670395;-0.4110642;;;;;;;;;;;;;;;
1911.0;1831.5;;;;-1.2133104;0.102726;-0.40277869;;;;;;;;;;;;;;;
1911.0;1831.5;;;;-1.1987077;0.098339096;-0.39384085;;;;;;;;;;;;;;;
1911.0;1831.5;;;;-1.1839181;0.09440614;-0.38610846;;;;;;;;;;;;;;;
1911.0;1836.6;;;;;;;;;;-35.04669;-30.808435;16.266367;;;;;;;;;
1911.0;1836.6;;;;;;;1.3947569;0.16302988;-0.5084994;;;;;;;;;;;;
1911.0;1836.6;;;;;;;;;;-36.603138;-29.026918;16.846218;;;;;;;;;
1911.0;1836.6;;;;;;;1.411359;0.14862514;-0.5113071;;;;;;;;;;;;
1913.0;1841.2;;;;;;;;;;;;;;;;;51.96158;-20.481735;23.575548;;1738.0
1913.0;1841.2;;;;;;;;;;;;;;-1.3798639;-0.3831904;-0.4448378;;;;;1738.0
1913.0;1841.2;;;;;;;;;;;;;;;;;51.73269;-21.526995;18.524736;;1738.0
1913.0;1841.2;;;;;;;;;;;;;;-1.4160589;-0.33631396;-0.45558032;;;;;1738.0
1913.0;1841.2;;;;;;;;;;;;;;;;;50.675983;-22.564623;13.214515;;1747.6
1913.0;1841.2;;;;;;;;;;;;;;-1.4534745;-0.28620258;-0.4624775;;;;;1747.6
1913.0;1841.2;;;;;;;;;;;;;;;;;49.024174;-23.945585;7.9577017;;1747.6
1913.0;1841.2;;;;;;;;;;;;;;-1.4813684;-0.24762718;-0.47358623;;;;;1747.6
1913.0;1841.2;;;;;;;;;;;;;;;;;46.761986;-25.48677;2.6093326;;1757.3
1913.0;1841.2;;;;;;;;;;;;;;-1.5132297;-0.22595905;-0.4721824;;;;;1757.3
1913.0;1841.2;;;;;;;;;;;;;;;;;43.637653;-27.890102;-3.1891842;;1757.3
1913.0;1841.2;;;;;;;;;;;;;;-1.5103;-0.19757684;-0.443556;;;;;1757.3
1913.0;1841.5;;;;-1.16951;0.09015275;-0.37938315;;;;;;;;;;;;;;;
1913.0;1841.5;;;;-1.1549455;0.08602906;-0.37254336;;;;;;;;;;;;;;;
1913.0;1841.5;;;;-1.1399537;0.08246613;-0.3652077;;;;;;;;;;;;;;;
1913.0;1841.5;;;;-1.1238939;0.078422554;-0.35947803;;;;;;;;;;;;;;;
1913.0;1841.5;;;;-1.1078492;0.07403184;-0.35063937;;;;;;;;;;;;;;;
1914.0;1842.1;;;;;;;;;;;;;;;;;39.769432;-30.93051;-9.342479;;1766.8
1914.0;1842.1;;;;;;;;;;;;;;-1.4645833;-0.1853084;-0.4110233;;;;;1766.8
1914.0;1842.1;;;;;;;;;;;;;;;;;35.56932;-33.9938;-15.97644;;1766.8
1914.0;1842.1;;;;;;;;;;;;;;-1.3954283;-0.146733;-0.34736168;;;;;1766.8
1914.0;1842.1;;;;;;;;;;;;;;;;;30.045471;-36.713768;-23.255104;;1776.5
1914.0;1842.1;;;;;;;;;;;;;;-1.309183;-0.118655965;-0.27838984;;;;;1776.5
1914.0;1842.1;;;;;;;;;;;;;;;;;23.186438;-38.36558;-30.564287;;1776.5
1914.0;1842.1;;;;;;;;;;;;;;-1.2342296;-0.12359996;-0.22986542;;;;;1776.5
1914.0;1842.1;;;;;;;;;;;;;;;;;16.537218;-38.861507;-37.503433;;1786.2
1914.0;1842.1;;;;;;;;;;;;;;-1.1859493;-0.13910337;-0.17975402;;;;;1786.2
1914.0;1842.1;;;;;;;;;;;;;;;;;10.3228855;-38.857693;-44.21369;;1786.2
1914.0;1842.1;;;;;;;;;;;;;;-1.13596;-0.16229743;-0.120670184;;;;;1786.2
1914.0;1844.7;262143;262143;13181;;;;;;;;;;;;;;;;;;
1914.0;1846.0;;;;;;;;;;-38.357952;-26.711327;17.151402;;;;;;;;;
1914.0;1846.0;;;;;;;1.4098331;0.13397625;-0.50990325;;;;;;;;;;;;
1914.0;1846.0;;;;;;;;;;-40.3531;-24.117252;16.922514;;;;;;;;;
1914.0;1846.0;;;;;;;1.3946959;0.119876705;-0.50618;;;;;;;;;;;;
1914.0;1850.7;;;;;;;;;;;;;-129;;;;;;;;
1914.0;1850.7;;;;;;;;;;;;;97;;;;;;;;
1914.0;1850.7;;;;;;;;;;;;;488;;;;;;;;
1914.0;1850.7;;;;;;;;;;;;;765;;;;;;;;
1914.0;1850.7;;;;;;;;;;;;;714;;;;;;;;
1915.0;1851.5;;;;-1.0922929;0.07018662;-0.3437157;;;;;;;;;;;;;;;
1915.0;1851.5;;;;-1.0789872;0.06634522;-0.33788303;;;;;;;;;;;;;;;
1915.0;1851.5;;;;-1.0671998;0.06162644;-0.33256915;;;;;;;;;;;;;;;
1915.0;1851.5;;;;-1.0564729;0.057689674;-0.32773593;;;;;;;;;;;;;;;
1915.0;1851.5;;;;-1.0456392;0.054374702;-0.3221741;;;;;;;;;;;;;;;
1915.0;1855.6;;;;;;;;;;-42.241432;-21.53081;16.289255;;;;;;;;;
1915.0;1855.6;;;;;;;1.3697318;0.10925627;-0.4981231;;;;;;;;;;;;
1915.0;1855.6;;;;;;;;;;-44.152657;-19.295328;15.625477;;;;;;;;;
1915.0;1855.6;;;;;;;1.332316;0.10333567;-0.49073765;;;;;;;;;;;;
1915.0;1861.5;;;;-1.0352136;0.05088044;-0.31725696;;;;;;;;;;;;;;;
1915.0;1861.5;;;;-1.0255128;0.047359474;-0.3133469;;;;;;;;;;;;;;;
1915.0;1861.5;;;;-1.0171701;0.04408646;-0.30936435;;;;;;;;;;;;;;;
1915.0;1861.5;;;;-1.0097505;0.040901188;-0.3057709;;;;;;;;;;;;;;;
1915.0;1861.5;;;;-1.0032617;0.03810883;-0.3017731;;;;;;;;;;;;;;;
1915.0;1865.2;;;;;;;;;;-46.124912;-17.28492;14.721366;;;;;;;;;
1915.0;1865.2;;;;;;;1.2903836;0.097598195;-0.48286384;;;;;;;;;;;;
1915.0;1865.2;;;;;;;;;;-47.975098;-16.003143;13.603626;;;;;;;;;
1915.0;1865.2;;;;;;;1.2426527;0.100283824;-0.47456282;;;;;;;;;;;;
1915.0;1864.9;262143;262143;13183;;;;;;;;;;;;;;;;;;
1967.0;1871.6;;;;-0.9971124;0.035701755;-0.29827884;;;;;;;;;;;;;;;
1967.0;1871.6;;;;-0.9905931;0.032707218;-0.29475787;;;;;;;;;;;;;;;
1967.0;1871.6;;;;-0.9836618;0.029983524;-0.29257968;;;;;;;;;;;;;;;
1967.0;1871.6;;;;-0.9759332;0.027664188;-0.28919223;;;;;;;;;;;;;;;
1967.0;1871.6;;;;-0.96885693;0.02531815;-0.28682712;;;;;;;;;;;;;;;
1967.0;1874.6;;;;;;;;;;-49.867245;-15.4690695;12.478255;;;;;;;;;
1967.0;1874.6;;;;;;;1.1952269;0.100833155;-0.4667501;;;;;;;;;;;;
1967.0;1874.6;;;;;;;;;;-51.62969;-15.316477;11.455885;;;;;;;;;
1967.0;1874.6;;;;;;;1.1551867;0.10400708;-0.46375927;;;;;;;;;;;;
1967.0;1881.4;;;;-0.96270764;0.023040773;-0.28535846;;;;;;;;;;;;;;;
1967.0;1881.4;;;;-0.9581834;0.020801546;-0.28468707;;;;;;;;;;;;;;;
1967.0;1881.4;;;;-0.95640194;0.019313814;-0.28512195;;;;;;;;;;;;;;;
1967.0;1881.4;;;;-0.95624936;0.018016817;-0.284771;;;;;;;;;;;;;;;
1967.0;1881.4;;;;-0.95663464;0.0175972;-0.2847214;;;;;;;;;;;;;;;
1967.0;1884.1;;;;;;;;;;-53.437912;-15.125736;10.467849;;;;;;;;;
1967.0;1884.1;;;;;;;1.121189;0.10937834;-0.463332;;;;;;;;;;;;
1967.0;1884.1;;;;;;;;;;-55.23087;-15.030366;9.590442;;;;;;;;;
1967.0;1884.1;;;;;;;1.0993987;0.11468856;-0.46473587;;;;;;;;;;;;
1967.0;1884.9;262143;262143;13177;;;;;;;;;;;;;;;;;;
1967.0;1890.9;;;;;;;;;;;;;535;;;;;;;;
1967.0;1890.9;;;;;;;;;;;;;600;;;;;;;;
1967.0;1890.9;;;;;;;;;;;;;1065;;;;;;;;
1967.0;1890.9;;;;;;;;;;;;;1540;;;;;;;;
1967.0;1890.9;;;;;;;;;;;;;1682;;;;;;;;
1973.0;1891.6;;;;-0.9567529;0.017890932;-0.28514102;;;;;;;;;;;;;;;
1973.0;1891.6;;;;-0.95614254;0.01886368;-0.28561023;;;;;;;;;;;;;;;
1973.0;1891.6;;;;-0.9547998;0.020286562;-0.2859116;;;;;;;;;;;;;;;
1973.0;1891.6;;;;-0.95238507;0.022041323;-0.28604892;;;;;;;;;;;;;;;
1973.0;1891.6;;;;-0.9497186;0.024463657;-0.28569415;;;;;;;;;;;;;;;
1973.0;1893.8;;;;;;;;;;-56.89413;-14.725182;8.800775;;;;;;;;;
1973.0;1893.8;;;;;;;1.0876186;0.11749626;-0.46888638;;;;;;;;;;;;
1973.0;1893.8;;;;;;;;;;-58.397167;-13.893551;8.266702;;;;;;;;;
1973.0;1893.8;;;;;;;1.081576;0.1225013;-0.47340313;;;;;;;;;;;;
1973.0;1901.7;;;;-0.94705594;0.027442936;-0.28442386;;;;;;;;;;;;;;;
1973.0;1901.7;;;;-0.94454205;0.030887607;-0.28278354;;;;;;;;;;;;;;;
1973.0;1901.7;;;;-0.9422265;0.034103397;-0.28099063;;;;;;;;;;;;;;;
1973.0;1901.7;;;;-0.9393922;0.036804203;-0.27912143;;;;;;;;;;;;;;;
1973.0;1901.7;;;;-0.9363786;0.039016727;-0.2776833;;;;;;;;;;;;;;;
1974.0;1901.9;;;;;;;;;;;;;;;;;5.4170356;-37.92688;-50.721764;;1795.8
1974.0;1901.9;;;;;;;;;;;;;;-1.1088595;-0.1947081;-0.054811243;;;;;1795.8
1974.0;1901.9;;;;;;;;;;;;;;;;;2.475814;-36.412395;-56.756798;;1795.8
1974.0;1901.9;;;;;;;;;;;;;;-1.0921965;-0.2412183;0.00347911;;;;;1795.8
1974.0;1901.9;;;;;;;;;;;;;;;;;2.6474807;-34.76821;-62.341686;;1805.4
1974.0;1901.9;;;;;;;;;;;;;;-1.0863369;-0.2863857;0.06402783;;;;;1805.4
1974.0;1901.9;;;;;;;;;;;;;;;;;5.84048;-33.46736;-67.52221;;1805.4
1974.0;1901.9;;;;;;;;;;;;;;-1.0862758;-0.33130893;0.13061923;;;;;1805.4
1974.0;1901.9;;;;;;;;;;;;;;;;;marras.17;-32.75399;-71.88253;;1815.1
1974.0;1901.9;;;;;;;;;;;;;;-1.1022065;-0.38258004;0.18341625;;;;;1815.1
1974.0;1901.9;;;;;;;;;;;;;;;;;21.305735;-32.53655;-75.479904;;1815.1
1974.0;1901.9;;;;;;;;;;;;;;-1.1238747;-0.43061617;0.22400586;;;;;1815.1
1974.0;1902.6;;;;;;;;;;;;;;;;;33.478806;-31.964325;-78.61568;;1824.7
1974.0;1902.6;;;;;;;;;;;;;;-1.1454207;-0.4756615;0.25098422;;;;;1824.7
1974.0;1902.6;;;;;;;;;;;;;;;;;48.154392;-30.041656;-82.12149;;1824.7
1974.0;1902.6;;;;;;;;;;;;;;-1.1263161;-0.52504045;0.25135043;;;;;1824.7
1974.0;1902.6;;;;;;;;;;;;;;;;;62.681206;-23.709066;-86.51997;;1834.3
1974.0;1902.6;;;;;;;;;;;;;;-1.0735191;-0.5711844;0.1894589;;;;;1834.3
1974.0;1902.6;;;;;;;;;;;;;;;;;73.23298;-13.576922;-92.38334;;1834.3
1974.0;1902.6;;;;;;;;;;;;;;-1.0364696;-0.6032899;0.03814814;;;;;1834.3
1974.0;1902.6;;;;;;;;;;;;;;;;;78.68053;-4.6388135;-99.81841;;1844.0
1974.0;1902.6;;;;;;;;;;;;;;-1.0425733;-0.6361278;-0.08142339;;;;;1844.0
1974.0;1902.6;;;;;;;;;;;;;;;;;76.82272;2.5025177;-107.57775;;1844.0
1974.0;1902.6;;;;;;;;;;;;;;-1.109592;-0.6299631;-0.19562365;;;;;1844.0
1976.0;1903.2;;;;;;;;;;-59.842983;-12.241737;8.056887;;;;;;;;;
1976.0;1903.2;;;;;;;1.07181;0.12573627;-0.47779778;;;;;;;;;;;;
1976.0;1903.2;;;;;;;;;;-61.258278;-9.80407;8.095035;;;;;;;;;
1976.0;1903.2;;;;;;;1.0599688;0.12805566;-0.4803003;;;;;;;;;;;;
1976.0;1905.0;262143;262143;13174;;;;;;;;;;;;;;;;;;
1976.0;1911.4;;;;-0.9339715;0.0416832;-0.27561954;;;;;;;;;;;;;;;
1976.0;1911.4;;;;-0.9311601;0.043537144;-0.2742844;;;;;;;;;;;;;;;
1976.0;1911.4;;;;-0.92829525;0.045829777;-0.27090076;;;;;;;;;;;;;;;
1976.0;1911.4;;;;-0.925686;0.04829026;-0.267849;;;;;;;;;;;;;;;
1976.0;1911.4;;;;-0.9226686;0.05036164;-0.26432803;;;;;;;;;;;;;;;
1976.0;1912.7;;;;;;;;;;-62.7575;-6.76748;8.312479;;;;;;;;;
1976.0;1912.7;;;;;;;1.0492264;0.13061923;-0.48231453;;;;;;;;;;;;
1976.0;1912.7;;;;;;;;;;-64.18424;-3.482925;8.48033;;;;;;;;;
1976.0;1912.7;;;;;;;1.0361644;0.1312296;-0.48353526;;;;;;;;;;;;
1976.0;1921.4;;;;-0.9191438;0.05192948;-0.26026157;;;;;;;;;;;;;;;
1976.0;1921.4;;;;-0.9157945;0.05360032;-0.25650027;;;;;;;;;;;;;;;
1976.0;1921.4;;;;-0.91175854;0.056156166;-0.2519913;;;;;;;;;;;;;;;
1976.0;1921.4;;;;-0.9069177;0.058162697;-0.24625781;;;;;;;;;;;;;;;
1976.0;1921.4;;;;-0.90158856;0.060112007;-0.24189761;;;;;;;;;;;;;;;
1976.0;1922.2;;;;;;;;;;-65.57665;-0.29374066;8.610034;;;;;;;;;
1976.0;1922.2;;;;;;;1.0223701;0.13214515;-0.48701438;;;;;;;;;;;;
1976.0;1922.2;;;;;;;;;;-66.919464;2.578814;8.754997;;;;;;;;;
1976.0;1922.2;;;;;;;1.0086977;0.1267739;-0.48481703;;;;;;;;;;;;
2025.0;1925.0;262143;262143;13172;;;;;;;;;;;;;;;;;;
2025.0;1930.9;;;;;;;;;;;;;1616;;;;;;;;
2025.0;1930.9;;;;;;;;;;;;;1473;;;;;;;;
2025.0;1930.9;;;;;;;;;;;;;1397;;;;;;;;
2025.0;1930.9;;;;;;;;;;;;;1358;;;;;;;;
2025.0;1930.9;;;;;;;;;;;;;1300;;;;;;;;
2025.0;1931.5;;;;-0.89595044;0.06242753;-0.23850635;;;;;;;;;;;;;;;
2025.0;1931.5;;;;-0.89003384;0.06508637;-0.23498538;;;;;;;;;;;;;;;
2025.0;1931.5;;;;-0.88378537;0.0674286;-0.23175052;;;;;;;;;;;;;;;
2025.0;1931.5;;;;-0.8774644;0.06995011;-0.22778323;;;;;;;;;;;;;;;
2025.0;1931.5;;;;-0.8723947;0.072219856;-0.22418979;;;;;;;;;;;;;;;
2025.0;1931.8;;;;;;;;;;-68.178345;5.3178506;9.060183;;;;;;;;;
2025.0;1931.8;;;;;;;0.99697864;0.12384411;-0.48725852;;;;;;;;;;;;
2025.0;1931.8;;;;;;;;;;-69.35331;7.694479;9.517961;;;;;;;;;
2025.0;1931.8;;;;;;;0.98568684;0.12237922;-0.48518327;;;;;;;;;;;;
2025.0;1941.1;;;;;;;;;;-70.56642;9.582812;10.090182;;;;;;;;;
2025.0;1941.1;;;;;;;0.9698172;0.11401715;-0.48298594;;;;;;;;;;;;
2025.0;1941.1;;;;;;;;;;-71.62694;11.047701;10.696738;;;;;;;;;
2025.0;1941.1;;;;;;;0.95504624;0.10620441;-0.4776757;;;;;;;;;;;;
2025.0;1941.3;;;;-0.86729443;0.074127205;-0.22463611;;;;;;;;;;;;;;;
2025.0;1941.3;;;;-0.8623582;0.07519532;-0.22072604;;;;;;;;;;;;;;;
2025.0;1941.3;;;;-0.85704434;0.075832374;-0.20909122;;;;;;;;;;;;;;;
2025.0;1941.3;;;;-0.85042584;0.077724464;-0.20045093;;;;;;;;;;;;;;;
2025.0;1941.3;;;;-0.8435899;0.079723366;-0.19923022;;;;;;;;;;;;;;;
2025.0;1944.9;262143;262143;13168;;;;;;;;;;;;;;;;;;
2027.0;1950.7;;;;;;;;;;-72.57301;12.173071;11.314737;;;;;;;;;
2027.0;1950.7;;;;;;;0.9403363;0.0999176;-0.4718772;;;;;;;;;;;;
2027.0;1950.7;;;;;;;;;;-73.37413;13.191626;marras.47;;;;;;;;;
2027.0;1950.7;;;;;;;0.9262978;0.09613331;-0.46681112;;;;;;;;;;;;
2027.0;1951.4;;;;-0.8395387;0.08060456;-0.2010155;;;;;;;;;;;;;;;
2027.0;1951.4;;;;-0.837906;0.079933174;-0.20163348;;;;;;;;;;;;;;;
2027.0;1951.4;;;;-0.83683026;0.07824326;-0.20141223;;;;;;;;;;;;;;;
2027.0;1951.4;;;;-0.83454144;0.07647706;-0.2010422;;;;;;;;;;;;;;;
2027.0;1951.4;;;;-0.83031857;0.0751648;-0.19854358;;;;;;;;;;;;;;;
2027.0;1960.4;;;;;;;;;;-74.10276;13.939329;12.516403;;;;;;;;;
2027.0;1960.4;;;;;;;0.9098178;0.09308145;-0.4610126;;;;;;;;;;;;
2027.0;1960.4;;;;;;;;;;-74.71313;14.526811;12.863552;;;;;;;;;
2027.0;1960.4;;;;;;;0.8910794;0.092837304;-0.45222327;;;;;;;;;;;;
2027.0;1961.5;;;;;;;;;;;;;;;;;65.41643;5.344554;-116.47008;;1853.6
2027.0;1961.5;;;;;;;;;;;;;;-1.1674551;-0.611713;-0.39332256;;;;;1853.6
2027.0;1961.5;;;;;;;;;;;;;;;;;49.61165;0.92318493;-123.96237;;1853.6
2027.0;1961.5;;;;;;;;;;;;;;-1.159154;-0.55671865;-0.58296454;;;;;1853.6
2027.0;1961.5;;;;;;;;;;;;;;;;;39.38032;-5.7451096;-124.988556;;1863.3
2027.0;1961.5;;;;;;;;;;;;;;-1.1850337;-0.47816402;-0.5955382;;;;;1863.3
2027.0;1961.5;;;;;;;;;;;;;;;;;36.96173;-13.32133;-124.988556;;1863.3
2027.0;1961.5;;;;;;;;;;;;;;-1.201941;-0.40699485;-0.5431684;;;;;1863.3
2027.0;1961.5;;;;;;;;;;;;;;;;;40.532394;-18.974884;-124.988556;;1872.9
2027.0;1961.5;;;;;;;;;;;;;;-1.1666616;-0.32209235;-0.4985504;;;;;1872.9
2027.0;1961.5;;;;;;;;;;;;;;;;;44.190804;-17.017883;-124.988556;;1872.9
2027.0;1961.5;;;;;;;;;;;;;;-1.1396222;-0.2618488;-0.4937895;;;;;1872.9
2029.0;1961.4;;;;-0.8233644;0.07421494;-0.19422153;;;;;;;;;;;;;;;
2029.0;1961.4;;;;-0.81497586;0.07391358;-0.18812945;;;;;;;;;;;;;;;
2029.0;1961.4;;;;-0.8069154;0.07456208;-0.18347551;;;;;;;;;;;;;;;
2029.0;1961.4;;;;-0.7989694;0.074760444;-0.17927171;;;;;;;;;;;;;;;
2029.0;1961.4;;;;-0.7931558;0.07521821;-0.17609788;;;;;;;;;;;;;;;
2029.0;1962.2;;;;;;;;;;;;;;;;;45.983765;-9.517961;-124.988556;;1882.5
2029.0;1962.2;;;;;;;;;;;;;;-1.152562;-0.20203254;-0.47779778;;;;;1882.5
2029.0;1962.2;;;;;;;;;;;;;;;;;44.85839;-2.1591845;-124.988556;;1882.5
2029.0;1962.2;;;;;;;;;;;;;;-1.1625721;-0.19507432;-0.46302682;;;;;1882.5
2029.0;1962.2;;;;;;;;;;;;;;;;;40.913876;4.696036;-124.988556;;1892.1
2029.0;1962.2;;;;;;;;;;;;;;-1.1829585;-0.19739372;-0.47193822;;;;;1892.1
2029.0;1962.2;;;;;;;;;;;;;;;;;32.85699;8.938108;-124.988556;;1892.1
2029.0;1962.2;;;;;;;;;;;;;;-1.1669668;-0.21503341;-0.50215155;;;;;1892.1
2029.0;1962.2;;;;;;;;;;;;;;;;;25.250252;11.4978485;-124.988556;;1901.8
2029.0;1962.2;;;;;;;;;;;;;;-1.1436507;-0.19013031;-0.51728874;;;;;1901.8
2029.0;1962.2;;;;;;;;;;;;;;;;;17.597734;16.026033;-124.988556;;1901.8
2029.0;1962.2;;;;;;;;;;;;;;-1.2037721;-0.20667134;-0.47047335;;;;;1901.8
2029.0;1965.0;262143;262143;13172;;;;;;;;;;;;;;;;;;
2029.0;1969.7;;;;;;;;;;-75.27009;14.946441;13.203071;;;;;;;;;
2029.0;1969.7;;;;;;;0.87459946;0.09131138;-0.44538713;;;;;;;;;;;;
2029.0;1969.7;;;;;;;;;;-75.76983;15.156255;13.454848;;;;;;;;;
2029.0;1969.7;;;;;;;0.86452836;0.089236125;-0.43885615;;;;;;;;;;;;
2030.0;1970.8;;;;;;;;;;;;;1295;;;;;;;;
2030.0;1970.8;;;;;;;;;;;;;1336;;;;;;;;
2030.0;1970.8;;;;;;;;;;;;;1509;;;;;;;;
2030.0;1970.8;;;;;;;;;;;;;1729;;;;;;;;
2030.0;1970.8;;;;;;;;;;;;;1568;;;;;;;;
2030.0;1971.3;;;;-0.7884294;0.07485581;-0.1739731;;;;;;;;;;;;;;;
2030.0;1971.3;;;;-0.78476727;0.07362748;-0.17104723;;;;;;;;;;;;;;;
2030.0;1971.3;;;;-0.7806245;0.07212449;-0.16953279;;;;;;;;;;;;;;;
2030.0;1971.3;;;;-0.7769891;0.070293434;-0.16776277;;;;;;;;;;;;;;;
2030.0;1971.3;;;;-0.7720605;0.06868363;-0.16567995;;;;;;;;;;;;;;;
2030.0;1979.2;;;;;;;;;;-76.078835;15.25544;13.557848;;;;;;;;;
2030.0;1979.2;;;;;;;0.85464036;0.08716086;-0.43244728;;;;;;;;;;;;
2030.0;1979.2;;;;;;;;;;-76.31154;15.25544;13.71044;;;;;;;;;
2030.0;1979.2;;;;;;;0.8459731;0.085695975;-0.42542803;;;;;;;;;;;;
2030.0;1981.3;;;;-0.76612484;0.06733323;-0.1647873;;;;;;;;;;;;;;;
2030.0;1981.3;;;;-0.75930035;0.06575776;-0.16174318;;;;;;;;;;;;;;;
2030.0;1981.3;;;;-0.7523614;0.064487465;-0.15819933;;;;;;;;;;;;;;;
2030.0;1981.3;;;;-0.7444115;0.063034065;-0.15565492;;;;;;;;;;;;;;;
2030.0;1981.3;;;;-0.7365151;0.061111458;-0.15428926;;;;;;;;;;;;;;;
2030.0;1985.0;262143;262143;13181;;;;;;;;;;;;;;;;;;
2030.0;1988.8;;;;;;;;;;-76.39546;15.282144;14.015625;;;;;;;;;
2030.0;1988.8;;;;;;;0.8377941;0.085024565;-0.4189581;;;;;;;;;;;;
2030.0;1988.8;;;;;;;;;;-76.28483;15.377514;14.290292;;;;;;;;;
2030.0;1988.8;;;;;;;0.83120215;0.08453627;-0.41096225;;;;;;;;;;;;
2086.0;1991.4;;;;-0.7290574;0.058975227;-0.15374757;;;;;;;;;;;;;;;
2086.0;1991.4;;;;-0.7212983;0.055774696;-0.15298463;;;;;;;;;;;;;;;
2086.0;1991.4;;;;-0.71426016;0.05199433;-0.15118791;;;;;;;;;;;;;;;
2086.0;1991.4;;;;-0.70769507;0.04858399;-0.14809419;;;;;;;;;;;;;;;
2086.0;1991.4;;;;-0.7017899;0.045429233;-0.14585496;;;;;;;;;;;;;;;
2086.0;1998.3;;;;;;;;;;-76.18946;15.541551;14.465774;;;;;;;;;
2086.0;1998.3;;;;;;;0.8286996;0.086245306;-0.40321055;;;;;;;;;;;;
2086.0;1998.3;;;;;;;;;;-76.00253;15.930662;14.526811;;;;;;;;;
2086.0;1998.3;;;;;;;0.82778406;0.08832057;-0.39777824;;;;;;;;;;;;
2086.0;2001.3;;;;-0.69604117;0.0426178;-0.14416505;;;;;;;;;;;;;;;
2086.0;2001.3;;;;-0.69136435;0.03923798;-0.14193346;;;;;;;;;;;;;;;
2086.0;2001.3;;;;-0.687645;0.03654862;-0.14013292;;;;;;;;;;;;;;;
2086.0;2001.3;;;;-0.6845589;0.033718113;-0.13957979;;;;;;;;;;;;;;;
2086.0;2001.3;;;;-0.68305975;0.03092194;-0.13998415;;;;;;;;;;;;;;;
2086.0;2005.1;262143;262143;13183;;;;;;;;;;;;;;;;;;
2086.0;2007.9;;;;;;;;;;-75.7622;16.636404;14.580218;;;;;;;;;
2086.0;2007.9;;;;;;;0.82430494;0.09241005;-0.39185765;;;;;;;;;;;;
2086.0;2007.9;;;;;;;;;;-75.43413;17.525253;14.526811;;;;;;;;;
2086.0;2007.9;;;;;;;0.8209479;0.09198279;-0.3831904;;;;;;;;;;;;
2086.0;2011.1;;;;;;;;;;;;;939;;;;;;;;
2086.0;2011.1;;;;;;;;;;;;;367;;;;;;;;
2086.0;2011.1;;;;;;;;;;;;;367;;;;;;;;
2086.0;2011.1;;;;;;;;;;;;;880;;;;;;;;
2086.0;2011.1;;;;;;;;;;;;;1504;;;;;;;;
2089.0;2011.5;;;;-0.68272024;0.028381351;-0.13705827;;;;;;;;;;;;;;;
2089.0;2011.5;;;;-0.6783982;0.025794987;-0.13533403;;;;;;;;;;;;;;;
2089.0;2011.5;;;;-0.6709214;0.023365023;-0.13282396;;;;;;;;;;;;;;;
2089.0;2011.5;;;;-0.6625748;0.020946505;-0.12960817;;;;;;;;;;;;;;;
2089.0;2011.5;;;;-0.6554604;0.018795015;-0.12758638;;;;;;;;;;;;;;;
2089.0;2017.5;;;;;;;;;;-75.014496;18.391216;14.450515;;;;;;;;;
2089.0;2017.5;;;;;;;0.8117924;0.091372415;-0.37665945;;;;;;;;;;;;
2089.0;2017.5;;;;;;;;;;-74.671165;19.661549;14.1949215;;;;;;;;;
2089.0;2017.5;;;;;;;0.8163091;0.09796441;-0.37324136;;;;;;;;;;;;
2089.0;2021.6;;;;-0.64958197;0.016212465;-0.12469484;;;;;;;;;;;;;;;
2089.0;2021.6;;;;-0.6436272;0.013816835;-0.12013246;;;;;;;;;;;;;;;
2089.0;2021.6;;;;-0.63826376;0.011268617;-0.11626054;;;;;;;;;;;;;;;
2089.0;2021.6;;;;-0.6330071;0.008686067;-0.112899795;;;;;;;;;;;;;;;
2089.0;2021.6;;;;-0.62918097;0.0059547434;-0.11065675;;;;;;;;;;;;;;;
2090.0;2022.2;;;;;;;;;;;;;;;;;12.565996;13.401441;-124.988556;;1911.4
2090.0;2022.2;;;;;;;;;;;;;;-1.1851557;-0.19959106;-0.4140141;;;;;1911.4
2090.0;2022.2;;;;;;;;;;;;;;;;;10.414441;9.11359;-124.988556;;1911.4
2090.0;2022.2;;;;;;;;;;;;;;-1.1562243;-0.1948912;-0.33320108;;;;;1911.4
2090.0;2022.2;;;;;;;;;;;;;;;;;marras.57;4.3450727;-124.988556;;1921.1
2090.0;2022.2;;;;;;;;;;;;;;-1.1148411;-0.2542802;-0.22717978;;;;;1921.1
2090.0;2022.2;;;;;;;;;;;;;;;;;16.502884;0.3929258;-124.97711;;1921.1
2090.0;2022.2;;;;;;;;;;;;;;-1.0713217;-0.25220495;-0.1342204;;;;;1921.1
2090.0;2022.2;;;;;;;;;;;;;;;;;21.931364;-0.40055543;-123.83648;;1930.6
2090.0;2022.2;;;;;;;;;;;;;;-1.0976287;-0.29053622;-0.064210944;;;;;1930.6
2090.0;2022.2;;;;;;;;;;;;;;;;;27.272104;-1.4725181;-121.738335;;1930.6
2090.0;2022.2;;;;;;;;;;;;;;-1.0682088;-0.2669759;-0.0015869625;;;;;1930.6
2090.0;2022.9;;;;;;;;;;;;;;;;;32.776882;-1.659444;-121.074554;;1940.3
2090.0;2022.9;;;;;;;;;;;;;;-1.0130924;-0.26837978;0.08160649;;;;;1940.3
2090.0;2022.9;;;;;;;;;;;;;;;;;36.935028;0.057222206;-120.11322;;1940.3
2090.0;2022.9;;;;;;;;;;;;;;-0.9963683;-0.29047516;0.13159582;;;;;1940.3
2090.0;2022.9;;;;;;;;;;;;;;;;;40.74221;0.48829615;-119.85;;1950.0
2090.0;2022.9;;;;;;;;;;;;;;-0.9717704;-0.23865475;0.15784173;;;;;1950.0
2090.0;2022.9;;;;;;;;;;;;;;;;;42.744987;1.2855922;-119.59823;;1950.0
2090.0;2022.9;;;;;;;;;;;;;;-0.9516892;-0.20941801;0.15619373;;;;;1950.0
2090.0;2022.9;;;;;;;;;;;;;;;;;44.79354;1.0490738;-117.27882;;1959.7
2090.0;2022.9;;;;;;;;;;;;;;-0.9145787;-0.24774925;0.1363567;;;;;1959.7
2090.0;2022.9;;;;;;;;;;;;;;;;;48.43669;0.9994812;-113.84548;;1959.7
2090.0;2022.9;;;;;;;;;;;;;;-0.87496567;-0.27576524;0.082888275;;;;;1959.7
2092.0;2025.3;262143;262143;13187;;;;;;;;;;;;;;;;;;
2092.0;2027.0;;;;;;;;;;-74.3202;21.187475;13.733329;;;;;;;;;
2092.0;2027.0;;;;;;;0.81551564;0.105288856;-0.36628315;;;;;;;;;;;;
2092.0;2027.0;;;;;;;;;;-73.8548;22.419659;13.473923;;;;;;;;;
2092.0;2027.0;;;;;;;0.79842526;0.111636706;-0.36005738;;;;;;;;;;;;
2092.0;2031.5;;;;-0.62689596;0.0035934453;-0.10863496;;;;;;;;;;;;;;;
2092.0;2031.5;;;;-0.6250954;9.1934216E-4;-0.107280746;;;;;;;;;;;;;;;
2092.0;2031.5;;;;-0.6219788;-0.001842499;-0.105979934;;;;;;;;;;;;;;;
2092.0;2031.5;;;;-0.61749274;-0.004405976;-0.10574342;;;;;;;;;;;;;;;
2092.0;2031.5;;;;-0.61389166;-0.0070381174;-0.10531999;;;;;;;;;;;;;;;
2092.0;2036.5;;;;;;;;;;-73.343605;22.766808;13.4891815;;;;;;;;;
2092.0;2036.5;;;;;;;0.78164005;0.10834071;-0.3535264;;;;;;;;;;;;
2092.0;2036.5;;;;;;;;;;-72.843864;22.968992;13.336589;;;;;;;;;
2092.0;2036.5;;;;;;;0.7727897;0.10852382;-0.34803307;;;;;;;;;;;;
2092.0;2041.5;;;;-0.61197287;-0.009799958;-0.10489656;;;;;;;;;;;;;;;
2092.0;2041.5;;;;-0.6114846;-0.012027742;-0.10472871;;;;;;;;;;;;;;;
2092.0;2041.5;;;;-0.6120301;-0.014335634;-0.10490419;;;;;;;;;;;;;;;
2092.0;2041.5;;;;-0.61201864;-0.016307833;-0.10467531;;;;;;;;;;;;;;;
2092.0;2041.5;;;;-0.6119042;-0.017936708;-0.10393907;;;;;;;;;;;;;;;
2092.0;2045.5;262143;262143;13179;;;;;;;;;;;;;;;;;;
2151.0;2046.2;;;;;;;;;;-72.344124;23.14066;12.802515;;;;;;;;;
2151.0;2046.2;;;;;;;0.766625;0.110415965;-0.34284493;;;;;;;;;;;;
2151.0;2046.2;;;;;;;;;;-71.749016;23.388622;12.443922;;;;;;;;;
2151.0;2046.2;;;;;;;0.75673693;0.11053804;-0.3305765;;;;;;;;;;;;
2151.0;2051.3;;;;;;;;;;;;;1848;;;;;;;;
2151.0;2051.3;;;;;;;;;;;;;1723;;;;;;;;
2151.0;2051.3;;;;;;;;;;;;;1197;;;;;;;;
2151.0;2051.3;;;;;;;;;;;;;936;;;;;;;;
2151.0;2051.3;;;;;;;;;;;;;2261;;;;;;;;
2151.0;2051.5;;;;-0.61129385;-0.0189209;-0.10299303;;;;;;;;;;;;;;;
2151.0;2051.5;;;;-0.6107369;-0.01986313;-0.10174562;;;;;;;;;;;;;;;
2151.0;2051.5;;;;-0.6094361;-0.021354677;-0.10020448;;;;;;;;;;;;;;;
2151.0;2051.5;;;;-0.6080857;-0.022243502;-0.09869386;;;;;;;;;;;;;;;
2151.0;2051.5;;;;-0.60747534;-0.02424622;-0.09790422;;;;;;;;;;;;;;;
2151.0;2055.5;;;;;;;;;;-70.963165;23.689993;12.394329;;;;;;;;;
2151.0;2055.5;;;;;;;0.74599445;0.112186044;-0.32013917;;;;;;;;;;;;
2151.0;2055.5;;;;;;;;;;-70.3032;24.025698;12.485885;;;;;;;;;
2151.0;2055.5;;;;;;;0.73500776;0.11578722;-0.31617177;;;;;;;;;;;;
2151.0;2061.5;;;;-0.6076661;-0.026710514;-0.0970421;;;;;;;;;;;;;;;
2151.0;2061.5;;;;-0.60796744;-0.029510502;-0.0966263;;;;;;;;;;;;;;;
2151.0;2061.5;;;;-0.60908896;-0.032150272;-0.09660722;;;;;;;;;;;;;;;
2151.0;2061.5;;;;-0.61132056;-0.03495026;-0.09667589;;;;;;;;;;;;;;;
2151.0;2061.5;;;;-0.61412436;-0.037197117;-0.09704973;;;;;;;;;;;;;;;
2151.0;2065.2;;;;;;;;;;-69.70428;24.807732;12.558367;;;;;;;;;
2151.0;2065.2;;;;;;;0.72359383;0.118717;-0.30475783;;;;;;;;;;;;
2151.0;2065.2;;;;;;;;;;-68.81161;25.341806;12.474441;;;;;;;;;
2151.0;2065.2;;;;;;;0.7147435;0.11877804;-0.29126865;;;;;;;;;;;;
2154.0;2065.5;262143;262143;13181;;;;;;;;;;;;;;;;;;
2154.0;2071.6;;;;-0.61591345;-0.03924561;-0.09650041;;;;;;;;;;;;;;;
2154.0;2071.6;;;;-0.6164399;-0.040973667;-0.09535219;;;;;;;;;;;;;;;
2154.0;2071.6;;;;-0.61562735;-0.041938785;-0.0940323;;;;;;;;;;;;;;;
2154.0;2071.6;;;;-0.616211;-0.043113712;-0.09466173;;;;;;;;;;;;;;;
2154.0;2071.6;;;;-0.6178437;-0.04426575;-0.09484483;;;;;;;;;;;;;;;
2154.0;2074.8;;;;;;;;;;-68.02194;25.547808;12.520218;;;;;;;;;
2154.0;2074.8;;;;;;;0.7118747;0.11896115;-0.28315073;;;;;;;;;;;;
2154.0;2074.8;;;;;;;;;;-67.47261;25.746178;13.065737;;;;;;;;;
2154.0;2074.8;;;;;;;0.6952727;0.12079226;-0.28205207;;;;;;;;;;;;
2154.0;2081.7;;;;-0.6207085;-0.045501713;-0.09576799;;;;;;;;;;;;;;;
2154.0;2081.7;;;;-0.6240578;-0.04695893;-0.09604646;;;;;;;;;;;;;;;
2154.0;2081.7;;;;-0.6262513;-0.048934944;-0.09616472;;;;;;;;;;;;;;;
2154.0;2081.7;;;;-0.6266976;-0.050766;-0.09714128;;;;;;;;;;;;;;;
2154.0;2081.7;;;;-0.62725073;-0.052604683;-0.0988083;;;;;;;;;;;;;;;
2154.0;2082.0;;;;;;;;;;;;;;;;;53.37306;2.8687398;-110.64867;;1969.3
2154.0;2082.0;;;;;;;;;;;;;;-0.85586107;-0.245674;0.049012728;;;;;1969.3
2154.0;2082.0;;;;;;;;;;;;;;;;;58.26365;4.3450727;-107.39082;;1969.3
2154.0;2082.0;;;;;;;;;;;;;;-0.8453627;-0.28247932;-0.0072634052;;;;;1969.3
2154.0;2082.0;;;;;;;;;;;;;;;;;65.9238;2.2812586;-103.633224;;1979.0
2154.0;2082.0;;;;;;;;;;;;;;-0.81527144;-0.36475724;-0.059694204;;;;;1979.0
2154.0;2082.0;;;;;;;;;;;;;;;;;75.41887;0.28992584;-100.66911;;1979.0
2154.0;2082.0;;;;;;;;;;;;;;-0.7775506;-0.40314952;-0.1297647;;;;;1979.0
2154.0;2082.0;;;;;;;;;;;;;;;;;85.73031;-1.2932218;-98.19712;;1988.7
2154.0;2082.0;;;;;;;;;;;;;;-0.75881225;-0.41871396;-0.18787195;;;;;1988.7
2154.0;2082.0;;;;;;;;;;;;;;;;;94.44716;-2.3842587;-96.629234;;1988.7
2154.0;2082.0;;;;;;;;;;;;;;-0.7622913;-0.39411604;-0.22632527;;;;;1988.7
2154.0;2082.7;;;;;;;;;;;;;;;;;100.04349;-4.871517;-97.06794;;1998.3
2154.0;2082.7;;;;;;;;;;;;;;-0.73842585;-0.37635425;-0.25977355;;;;;1998.3
2154.0;2082.7;;;;;;;;;;;;;;;;;102.52312;-6.408887;-98.193306;;1998.3
2154.0;2082.7;;;;;;;;;;;;;;-0.7525254;-0.33722952;-0.2557451;;;;;1998.3
2154.0;2082.7;;;;;;;;;;;;;;;;;100.31434;-8.411665;-98.89142;;2008.0
2154.0;2082.7;;;;;;;;;;;;;;-0.7760857;-0.3160497;-0.2428663;;;;;2008.0
2154.0;2082.7;;;;;;;;;;;;;;;;;94.22971;-11.204107;-99.345375;;2008.0
2154.0;2082.7;;;;;;;;;;;;;;-0.79348123;-0.33088169;-0.22467726;;;;;2008.0
2154.0;2082.7;;;;;;;;;;;;;;;;;86.96631;-14.519181;-100.745415;;2017.6
2154.0;2082.7;;;;;;;;;;;;;;-0.7682119;-0.3770867;-0.22235785;;;;;2017.6
2154.0;2082.7;;;;;;;;;;;;;;;;;80.473495;-15.583514;-101.96997;;2017.6
2154.0;2082.7;;;;;;;;;;;;;;-0.7645497;-0.34205145;-0.2323069;;;;;2017.6
2156.0;2084.2;;;;;;;;;;-66.72491;25.158695;13.908811;;;;;;;;;
2156.0;2084.2;;;;;;;0.67592394;0.12494278;-0.27149266;;;;;;;;;;;;
2156.0;2084.2;;;;;;;;;;-65.48509;24.296549;14.374218;;;;;;;;;
2156.0;2084.2;;;;;;;0.6657918;0.12244026;-0.26410717;;;;;;;;;;;;
2156.0;2085.5;262143;262143;13171;;;;;;;;;;;;;;;;;;
2156.0;2091.4;;;;;;;;;;;;;4725;;;;;;;;
2156.0;2091.4;;;;;;;;;;;;;2788;;;;;;;;
2156.0;2091.4;;;;;;;;;;;;;-8788;;;;;;;;
2156.0;2091.4;;;;;;;;;;;;;-24094;;;;;;;;
2156.0;2091.4;;;;;;;;;;;;;-29461;;;;;;;;
2156.0;2091.6;;;;-0.6286393;-0.05427552;-0.1001053;;;;;;;;;;;;;;;
2156.0;2091.6;;;;-0.6294175;-0.056755073;-0.1019211;;;;;;;;;;;;;;;
2156.0;2091.6;;;;-0.6296235;-0.058372505;-0.103885666;;;;;;;;;;;;;;;
2156.0;2091.6;;;;-0.63008505;-0.05949784;-0.10540773;;;;;;;;;;;;;;;
2156.0;2091.6;;;;-0.63058096;-0.06045533;-0.10714342;;;;;;;;;;;;;;;
2156.0;2093.8;;;;;;;;;;-64.91669;23.159733;15.015106;;;;;;;;;
2156.0;2093.8;;;;;;;0.6662801;0.12970367;-0.26636556;;;;;;;;;;;;
2156.0;2093.8;;;;;;;;;;-64.46272;20.916624;15.266884;;;;;;;;;
2156.0;2093.8;;;;;;;0.6623737;0.13611256;-0.26831874;;;;;;;;;;;;
2159.0;2097.0;;;;;;;;;;;;;;;;;75.13276;-16.19007;-103.3166;;2027.3
2159.0;2097.0;;;;;;;;;;;;;;-0.7589343;-0.3366802;-0.21448408;;;;;2027.3
2159.0;2097.0;;;;;;;;;;;;;;;;;71.60405;-16.6097;-104.56023;;2027.3
2159.0;2097.0;;;;;;;;;;;;;;-0.73213905;-0.2916349;-0.22101505;;;;;2027.3
2159.0;2097.0;;;;;;;;;;;;;;;;;68.74676;-14.633626;-105.12101;;2036.9
2159.0;2097.0;;;;;;;;;;;;;;-0.7213965;-0.25727102;-0.21405682;;;;;2036.9
2159.0;2097.0;;;;;;;;;;;;;;;;;66.72109;-11.87933;-104.88449;;2036.9
2159.0;2097.0;;;;;;;;;;;;;;-0.7198706;-0.23218483;-0.19684438;;;;;2036.9
2159.0;2097.0;;;;;;;;;;;;;;;;;65.824615;-9.933775;-103.67138;;2046.5
2159.0;2097.0;;;;;;;;;;;;;;-0.72292244;-0.19977416;-0.16577655;;;;;2046.5
2159.0;2097.0;;;;;;;;;;;;;;;;;64.90524;-9.689628;-102.35145;;2046.5
2159.0;2097.0;;;;;;;;;;;;;;-0.70961636;-0.16858424;-0.14484085;;;;;2046.5
2159.0;2101.6;;;;-0.63221747;-0.061035164;-0.10793306;;;;;;;;;;;;;;;
2159.0;2101.6;;;;-0.6359711;-0.061855324;-0.10891344;;;;;;;;;;;;;;;
2159.0;2101.6;;;;-0.64151007;-0.06332017;-0.111770645;;;;;;;;;;;;;;;
2159.0;2101.6;;;;-0.64915854;-0.064926155;-0.114978805;;;;;;;;;;;;;;;
2159.0;2101.6;;;;-0.65733725;-0.06741334;-0.117431656;;;;;;;;;;;;;;;
2159.0;2103.3;;;;;;;;;;-63.806572;17.578661;15.86581;;;;;;;;;
2159.0;2103.3;;;;;;;0.65034944;0.13373211;-0.27088228;;;;;;;;;;;;
2159.0;2103.3;;;;;;;;;;-63.573868;13.443404;16.769922;;;;;;;;;
2159.0;2103.3;;;;;;;0.628132;0.12280648;-0.27369;;;;;;;;;;;;
2159.0;2105.7;262143;262143;13179;;;;;;;;;;;;;;;;;;
2205.0;2111.5;;;;-0.6643792;-0.06952668;-0.12000276;;;;;;;;;;;;;;;
2205.0;2111.5;;;;-0.66934973;-0.07151795;-0.123367324;;;;;;;;;;;;;;;
2205.0;2111.5;;;;-0.67319494;-0.07321168;-0.12584688;;;;;;;;;;;;;;;
2205.0;2111.5;;;;-0.6782952;-0.07454301;-0.12955858;;;;;;;;;;;;;;;
2205.0;2111.5;;;;-0.68328863;-0.075206764;-0.1333809;;;;;;;;;;;;;;;
2205.0;2112.7;;;;;;;;;;-63.325905;8.808405;16.96066;;;;;;;;;
2205.0;2112.7;;;;;;;0.61580247;0.110721156;-0.27869502;;;;;;;;;;;;
2205.0;2112.7;;;;;;;;;;-63.116096;4.1505175;16.834774;;;;;;;;;
2205.0;2112.7;;;;;;;0.6135441;0.10943937;-0.27906126;;;;;;;;;;;;
2205.0;2121.3;;;;-0.6887284;-0.07555009;-0.1369858;;;;;;;;;;;;;;;
2205.0;2121.3;;;;-0.69530874;-0.07603837;-0.14013292;;;;;;;;;;;;;;;
2205.0;2121.3;;;;-0.7026635;-0.07629014;-0.14320375;;;;;;;;;;;;;;;
2205.0;2121.3;;;;-0.7113152;-0.07691956;-0.14719011;;;;;;;;;;;;;;;
2205.0;2121.3;;;;-0.72030646;-0.07703782;-0.149704;;;;;;;;;;;;;;;
2205.0;2122.1;;;;;;;;;;-62.7575;-0.21362957;16.674551;;;;;;;;;
2205.0;2122.1;;;;;;;0.62355417;0.11236915;-0.27509385;;;;;;;;;;;;
2205.0;2122.1;;;;;;;;;;-62.517166;-3.5821102;16.384624;;;;;;;;;
2205.0;2122.1;;;;;;;0.6404004;0.10956145;-0.27295756;;;;;;;;;;;;
2205.0;2125.5;262143;262143;13177;;;;;;;;;;;;;;;;;;
2205.0;2131.3;;;;;;;;;;;;;-19562;;;;;;;;
2205.0;2131.3;;;;;;;;;;;;;-3958;;;;;;;;
2205.0;2131.3;;;;;;;;;;;;;4814;;;;;;;;
2205.0;2131.3;;;;;;;;;;;;;4953;;;;;;;;
2205.0;2131.3;;;;;;;;;;;;;3143;;;;;;;;
2207.0;2131.4;;;;-0.73044974;-0.077968605;-0.15268709;;;;;;;;;;;;;;;
2207.0;2131.4;;;;-0.7397309;-0.07865525;-0.15628816;;;;;;;;;;;;;;;
2207.0;2131.4;;;;-0.7486039;-0.07979203;-0.1613846;;;;;;;;;;;;;;;
2207.0;2131.4;;;;-0.7573205;-0.08018876;-0.16620637;;;;;;;;;;;;;;;
2207.0;2131.4;;;;-0.7656213;-0.0798874;-0.17003252;;;;;;;;;;;;;;;
2207.0;2131.7;;;;;;;;;;-62.475204;-5.962554;16.224403;;;;;;;;;
2207.0;2131.7;;;;;;;0.6511429;0.10626545;-0.26325268;;;;;;;;;;;;
2207.0;2131.7;;;;;;;;;;-62.45613;-7.0764794;16.472366;;;;;;;;;
2207.0;2131.7;;;;;;;0.65663624;0.10296945;-0.2582476;;;;;;;;;;;;
2207.0;2141.4;;;;;;;;;;-62.61635;-7.6105533;17.040771;;;;;;;;;
2207.0;2141.4;;;;;;;0.65321815;0.10211493;-0.2515946;;;;;;;;;;;;
2207.0;2141.4;;;;;;;;;;-62.696465;-7.656331;17.155216;;;;;;;;;
2207.0;2141.4;;;;;;;0.6453444;0.10235908;-0.24372081;;;;;;;;;;;;
2207.0;2141.5;;;;-0.77154934;-0.0787468;-0.17329027;;;;;;;;;;;;;;;
2207.0;2141.5;;;;-0.7769815;-0.076889046;-0.17547609;;;;;;;;;;;;;;;
2207.0;2141.5;;;;-0.78224194;-0.074817665;-0.17766191;;;;;;;;;;;;;;;
2207.0;2141.5;;;;-0.787861;-0.07278062;-0.17899705;;;;;;;;;;;;;;;
2207.0;2141.5;;;;-0.79457104;-0.07141877;-0.1814232;;;;;;;;;;;;;;;
2207.0;2145.7;262143;262143;13180;;;;;;;;;;;;;;;;;;
2211.0;2149.4;;;;;;;;;;;;;;;;;64.668724;-10.765405;-101.14215;;2056.2
2211.0;2149.4;;;;;;;;;;;;;;-0.6737266;-0.14453566;-0.12891018;;;;;2056.2
2211.0;2149.4;;;;;;;;;;;;;;;;;65.69872;-11.486403;-99.44074;;2056.2
2211.0;2149.4;;;;;;;;;;;;;;-0.6460158;-0.164861;-0.12280648;;;;;2056.2
2211.0;2149.4;;;;;;;;;;;;;;;;;68.45301;-11.051516;-97.00308;;2065.8
2211.0;2149.4;;;;;;;;;;;;;;-0.6558428;-0.16937773;-0.09112827;;;;;2065.8
2211.0;2149.4;;;;;;;;;;;;;;;;;70.299385;-11.772515;-95.728935;;2065.8
2211.0;2149.4;;;;;;;;;;;;;;-0.6432691;-0.1843318;-0.061159093;;;;;2065.8
2211.0;2149.4;;;;;;;;;;;;;;;;;71.38279;-13.1801815;-95.286415;;2075.5
2211.0;2149.4;;;;;;;;;;;;;;-0.61079746;-0.19641712;-0.046205025;;;;;2075.5
2211.0;2149.4;;;;;;;;;;;;;;;;;72.79427;-12.966552;-94.52727;;2075.5
2211.0;2149.4;;;;;;;;;;;;;;-0.60390025;-0.21173742;-0.0253914;;;;;2075.5
2211.0;2150.9;;;;;;;;;;-62.5515;-7.8508863;16.994993;;;;;;;;;
2211.0;2150.9;;;;;;;0.63777584;0.09619434;-0.23285623;;;;;;;;;;;;
2211.0;2150.9;;;;;;;;;;-62.36076;-8.20185;16.872921;;;;;;;;;
2211.0;2150.9;;;;;;;0.64046144;0.09277627;-0.22449416;;;;;;;;;;;;
2211.0;2151.5;;;;-0.80181897;-0.07071305;-0.1818123;;;;;;;;;;;;;;;
2211.0;2151.5;;;;-0.8088685;-0.0696106;-0.18146135;;;;;;;;;;;;;;;
2211.0;2151.5;;;;-0.8148004;-0.06861878;-0.18236162;;;;;;;;;;;;;;;
2211.0;2151.5;;;;-0.8210603;-0.06729508;-0.18320848;;;;;;;;;;;;;;;
2211.0;2151.5;;;;-0.8280717;-0.06655503;-0.18251802;;;;;;;;;;;;;;;
2212.0;2157.0;;;;;;;;;;;;;;;;;73.35505;-12.8711815;-93.81008;;2085.2
2212.0;2157.0;;;;;;;;;;;;;;-0.6016419;-0.23987548;-0.00286874;;;;;2085.2
2212.0;2157.0;;;;;;;;;;;;;;;;;72.70272;-12.840663;-92.89452;;2085.2
2212.0;2157.0;;;;;;;;;;;;;;-0.59706414;-0.28583637;0.005981628;;;;;2085.2
2212.0;2157.0;;;;;;;;;;;;;;;;;71.413315;-12.234108;-92.22694;;2094.8
2212.0;2157.0;;;;;;;;;;;;;;-0.59682;-0.293466;0.02130192;;;;;2094.8
2212.0;2157.0;;;;;;;;;;;;;;;;;69.00235;-10.963775;-91.51738;;2094.8
2212.0;2157.0;;;;;;;;;;;;;;-0.6063417;-0.31488997;0.025452437;;;;;2094.8
2212.0;2157.0;;;;;;;;;;;;;;;;;66.8775;-9.727776;-90.128784;;2104.5
2212.0;2157.0;;;;;;;;;;;;;;-0.6107364;-0.32374036;0.024597919;;;;;2104.5
2212.0;2157.0;;;;;;;;;;;;;;;;;65.088356;-8.465072;-88.04209;;2104.5
2212.0;2157.0;;;;;;;;;;;;;;-0.61775565;-0.3355205;0.01904355;;;;;2104.5
2212.0;2160.3;;;;;;;;;;-62.158573;-8.20185;16.70507;;;;;;;;;
2212.0;2160.3;;;;;;;0.65034944;0.09350871;-0.2200995;;;;;;;;;;;;
2212.0;2160.3;;;;;;;;;;-61.906796;-8.121738;16.384624;;;;;;;;;
2212.0;2160.3;;;;;;;0.65901667;0.09765923;-0.21399578;;;;;;;;;;;;
2212.0;2161.4;;;;-0.83648694;-0.06610871;-0.18156435;;;;;;;;;;;;;;;
2212.0;2161.4;;;;-0.84578335;-0.06560136;-0.18044282;;;;;;;;;;;;;;;
2212.0;2161.4;;;;-0.8548509;-0.06557847;-0.18140031;;;;;;;;;;;;;;;
2212.0;2161.4;;;;-0.86307156;-0.06525803;-0.1802292;;;;;;;;;;;;;;;
2212.0;2161.4;;;;-0.8709413;-0.06517411;-0.18384935;;;;;;;;;;;;;;;
2212.0;2165.7;262143;262143;13167;;;;;;;;;;;;;;;;;;
2268.0;2169.9;;;;;;;;;;-61.525314;-8.194221;16.266367;;;;;;;;;
2268.0;2169.9;;;;;;;0.6697592;0.097048864;-0.2075869;;;;;;;;;;;;
2268.0;2169.9;;;;;;;;;;-61.02176;-8.522293;16.613514;;;;;;;;;
2268.0;2169.9;;;;;;;0.66805017;0.09533983;-0.20184942;;;;;;;;;;;;
2268.0;2171.4;;;;;;;;;;;;;3387;;;;;;;;
2268.0;2171.4;;;;;;;;;;;;;4028;;;;;;;;
2268.0;2171.4;;;;;;;;;;;;;3795;;;;;;;;
2268.0;2171.4;;;;;;;;;;;;;3692;;;;;;;;
2268.0;2171.4;;;;;;;;;;;;;3634;;;;;;;;
2268.0;2171.4;;;;-0.8783685;-0.06377412;-0.18545534;;;;;;;;;;;;;;;
2268.0;2171.4;;;;-0.8848306;-0.061988838;-0.19002536;;;;;;;;;;;;;;;
2268.0;2171.4;;;;-0.8896638;-0.059932716;-0.19134524;;;;;;;;;;;;;;;
2268.0;2171.4;;;;-0.8919374;-0.05706025;-0.19189456;;;;;;;;;;;;;;;
2268.0;2171.4;;;;-0.8940698;-0.055141456;-0.19332507;;;;;;;;;;;;;;;
2268.0;2179.1;;;;;;;;;;-60.44572;-8.941923;17.178104;;;;;;;;;
2268.0;2179.1;;;;;;;0.674398;0.095156714;-0.20142217;;;;;;;;;;;;
2268.0;2179.1;;;;;;;;;;-59.926907;-9.537035;17.50618;;;;;;;;;
2268.0;2179.1;;;;;;;0.68172246;0.09210486;-0.20337535;;;;;;;;;;;;
2268.0;2181.2;;;;-0.89717877;-0.053215034;-0.19376376;;;;;;;;;;;;;;;
2268.0;2181.2;;;;-0.90137875;-0.05158616;-0.19575885;;;;;;;;;;;;;;;
2268.0;2181.2;;;;-0.905697;-0.05075074;-0.19837955;;;;;;;;;;;;;;;
2268.0;2181.2;;;;-0.90984356;-0.05067826;-0.20003513;;;;;;;;;;;;;;;
2268.0;2181.2;;;;-0.9133378;-0.05036164;-0.2015343;;;;;;;;;;;;;;;
2268.0;2185.5;262143;262143;13167;;;;;;;;;;;;;;;;;;
2271.0;2188.7;;;;;;;;;;-59.194466;-10.45259;17.597734;;;;;;;;;
2271.0;2188.7;;;;;;;0.69197667;0.08783227;-0.20178838;;;;;;;;;;;;
2271.0;2188.7;;;;;;;;;;-58.355206;-11.37196;17.719809;;;;;;;;;
2271.0;2188.7;;;;;;;0.69771415;0.0827662;-0.19879757;;;;;;;;;;;;
2271.0;2191.3;;;;-0.9176065;-0.050399788;-0.20494464;;;;;;;;;;;;;;;
2271.0;2191.3;;;;-0.92409146;-0.05152131;-0.20724109;;;;;;;;;;;;;;;
2271.0;2191.3;;;;-0.9315759;-0.051834114;-0.20989993;;;;;;;;;;;;;;;
2271.0;2191.3;;;;-0.93995297;-0.05232621;-0.21227649;;;;;;;;;;;;;;;
2271.0;2191.3;;;;-0.94853604;-0.052738197;-0.21450427;;;;;;;;;;;;;;;
2271.0;2198.3;;;;;;;;;;-57.584614;-11.997589;17.872402;;;;;;;;;
2271.0;2198.3;;;;;;;0.7071749;0.08362072;-0.19757684;;;;;;;;;;;;
2271.0;2198.3;;;;;;;;;;-56.80639;-12.279885;17.857143;;;;;;;;;
2271.0;2198.3;;;;;;;0.72170174;0.081118196;-0.19757684;;;;;;;;;;;;
2271.0;2201.4;;;;-0.9561273;-0.053672798;-0.21893314;;;;;;;;;;;;;;;
2271.0;2201.4;;;;-0.96226895;-0.05359269;-0.22180942;;;;;;;;;;;;;;;
2271.0;2201.4;;;;-0.96769726;-0.053573616;-0.22172168;;;;;;;;;;;;;;;
2271.0;2201.4;;;;-0.974434;-0.053493507;-0.22211841;;;;;;;;;;;;;;;
2271.0;2201.4;;;;-0.98316586;-0.054199226;-0.22519687;;;;;;;;;;;;;;;
2272.0;2201.9;;;;;;;;;;;;;;;;;63.962982;-7.980591;-85.0589;;2114.2
2272.0;2201.9;;;;;;;;;;;;;;-0.62031925;-0.36475724;0.0075685903;;;;;2114.2
2272.0;2201.9;;;;;;;;;;;;;;;;;63.901947;-8.037812;-81.5569;;2114.2
2272.0;2201.9;;;;;;;;;;;;;;-0.6295968;-0.36445203;0.011658071;;;;;2114.2
2272.0;2201.9;;;;;;;;;;;;;;;;;64.35591;-8.758812;-77.57806;;2123.9
2272.0;2201.9;;;;;;;;;;;;;;-0.62855923;-0.3630482;0.010925626;;;;;2123.9
2272.0;2201.9;;;;;;;;;;;;;;;;;65.27909;-9.392072;-73.24824;;2123.9
2272.0;2201.9;;;;;;;;;;;;;;-0.62642294;-0.35999635;0.01147496;;;;;2123.9
2272.0;2201.9;;;;;;;;;;;;;;;;;66.84317;-9.746849;-68.51787;;2133.5
2272.0;2201.9;;;;;;;;;;;;;;-0.62318796;-0.35224465;0.013122959;;;;;2133.5
2272.0;2201.9;;;;;;;;;;;;;;;;;68.57509;-10.200811;-63.0932;;2133.5
2272.0;2201.9;;;;;;;;;;;;;;-0.6140324;-0.33698538;0.024719993;;;;;2133.5
2272.0;2205.7;262143;262143;13165;;;;;;;;;;;;;;;;;;
2272.0;2207.9;;;;;;;;;;-55.845055;-12.119663;17.750328;;;;;;;;;
2272.0;2207.9;;;;;;;0.7362285;0.076906644;-0.19428083;;;;;;;;;;;;
2272.0;2207.9;;;;;;;;;;-54.765465;-11.787774;17.78466;;;;;;;;;
2272.0;2207.9;;;;;;;0.7514878;0.074098945;-0.1906186;;;;;;;;;;;;
2272.0;2211.4;;;;-0.9914857;-0.0546341;-0.22808841;;;;;;;;;;;;;;;
2272.0;2211.4;;;;-0.9985925;-0.05546189;-0.23217013;;;;;;;;;;;;;;;
2272.0;2211.4;;;;-1.0033647;-0.055927284;-0.2371979;;;;;;;;;;;;;;;
2272.0;2211.4;;;;-1.0079919;-0.056091316;-0.24218753;;;;;;;;;;;;;;;
2272.0;2211.4;;;;-1.0133287;-0.05539704;-0.24725345;;;;;;;;;;;;;;;
2273.0;2211.5;;;;;;;;;;;;;3137;;;;;;;;
2273.0;2211.5;;;;;;;;;;;;;2762;;;;;;;;
2273.0;2211.5;;;;;;;;;;;;;2769;;;;;;;;
2273.0;2211.5;;;;;;;;;;;;;2612;;;;;;;;
2273.0;2211.5;;;;;;;;;;;;;2141;;;;;;;;
2273.0;2217.0;;;;;;;;;;;;;;;;;69.36475;-10.1130705;-57.496872;;2143.1
2273.0;2217.0;;;;;;;;;;;;;;-0.6115909;-0.319834;0.0220954;;;;;2143.1
2273.0;2217.0;;;;;;;;;;;;;;;;;69.00998;-9.342479;-52.28965;;2143.1
2273.0;2217.0;;;;;;;;;;;;;;-0.59413433;-0.31141087;0.027588733;;;;;2143.1
2273.0;2217.0;;;;;;;;;;;;;;;;;67.03391;-7.98822;-46.98706;;2152.8
2273.0;2217.0;;;;;;;;;;;;;;-0.57502973;-0.30103457;0.02026429;;;;;2152.8
2273.0;2217.0;;;;;;;;;;;;;;;;;63.8638;-5.466628;-41.718803;;2152.8
2273.0;2217.0;;;;;;;;;;;;;;-0.57997376;-0.29554126;0.030396435;;;;;2152.8
2273.0;2217.0;;;;;;;;;;;;;;;;;59.282207;-3.6812954;-36.492508;;2162.4
2273.0;2217.0;;;;;;;;;;;;;;-0.5620899;-0.2936491;0.03155614;;;;;2162.4
2273.0;2217.0;;;;;;;;;;;;;;;;;54.574726;-1.8082217;-31.098362;;2162.4
2273.0;2217.0;;;;;;;;;;;;;;-0.5404218;-0.29468673;0.034485918;;;;;2162.4
2273.0;2217.3;;;;;;;;;;-53.632465;-11.436811;18.066957;;;;;;;;;
2273.0;2217.3;;;;;;;0.7685782;0.07318339;-0.19287698;;;;;;;;;;;;
2273.0;2217.3;;;;;;;;;;-52.24006;-11.14307;18.471329;;;;;;;;;
2273.0;2217.3;;;;;;;0.7837153;0.07470931;-0.19403668;;;;;;;;;;;;
2273.0;2221.3;;;;-1.0208932;-0.054931648;-0.25325397;;;;;;;;;;;;;;;
2273.0;2221.3;;;;-1.0308152;-0.054588325;-0.26049045;;;;;;;;;;;;;;;
2273.0;2221.3;;;;-1.0424997;-0.054439552;-0.2662926;;;;;;;;;;;;;;;
2273.0;2221.3;;;;-1.0535775;-0.05402375;-0.27101138;;;;;;;;;;;;;;;
2273.0;2221.3;;;;-1.0635263;-0.05294419;-0.27505496;;;;;;;;;;;;;;;
2325.0;2225.7;262143;262143;13167;;;;;;;;;;;;;;;;;;
2325.0;2226.9;;;;;;;;;;-50.8095;-11.032442;18.677328;;;;;;;;;
2325.0;2226.9;;;;;;;0.8024537;0.07330546;-0.19641712;;;;;;;;;;;;
2325.0;2226.9;;;;;;;;;;-49.295025;-11.2384405;18.784143;;;;;;;;;
2325.0;2226.9;;;;;;;0.81691945;0.06659139;-0.19348735;;;;;;;;;;;;
2325.0;2231.2;;;;-1.0715524;-0.05123902;-0.28019717;;;;;;;;;;;;;;;
2325.0;2231.2;;;;-1.0787202;-0.04906083;-0.28604892;;;;;;;;;;;;;;;
2325.0;2231.2;;;;-1.0855905;-0.04685593;-0.2902222;;;;;;;;;;;;;;;
2325.0;2231.2;;;;-1.0924073;-0.044673923;-0.29476932;;;;;;;;;;;;;;;
2325.0;2231.2;;;;-1.0996248;-0.041919712;-0.298214;;;;;;;;;;;;;;;
2325.0;2236.0;;;;;;;;;;-47.532578;-11.436811;19.127476;;;;;;;;;
2325.0;2236.0;;;;;;;0.83303326;0.056642354;-0.19214454;;;;;;;;;;;;
2325.0;2236.0;;;;;;;;;;-45.575577;-11.257515;19.47081;;;;;;;;;
2325.0;2236.0;;;;;;;0.8646504;0.047181617;-0.18695639;;;;;;;;;;;;
2325.0;2241.0;;;;-1.1066095;-0.039176945;-0.3038521;;;;;;;;;;;;;;;
2325.0;2241.0;;;;-1.1134301;-0.036743168;-0.30889896;;;;;;;;;;;;;;;
2325.0;2241.0;;;;-1.1198312;-0.034118656;-0.3116913;;;;;;;;;;;;;;;
2325.0;2241.0;;;;-1.125889;-0.031143192;-0.3144112;;;;;;;;;;;;;;;
2325.0;2241.0;;;;-1.1309282;-0.02865601;-0.3180237;;;;;;;;;;;;;;;
2325.0;2245.7;;;;;;;;;;-43.38969;-10.475478;19.47844;;;;;;;;;
2325.0;2245.7;;;;;;;0.8944975;0.040101323;-0.18396558;;;;;;;;;;;;
2325.0;2245.7;;;;;;;;;;-41.14658;-9.876553;19.634846;;;;;;;;;
2325.0;2245.7;;;;;;;0.9040193;0.034546953;-0.18488114;;;;;;;;;;;;
2327.0;2245.5;262143;262143;13163;;;;;;;;;;;;;;;;;;
2327.0;2251.2;;;;-1.1357766;-0.02613068;-0.3221474;;;;;;;;;;;;;;;
2327.0;2251.2;;;;-1.1421319;-0.023494724;-0.32622913;;;;;;;;;;;;;;;
2327.0;2251.2;;;;-1.1502;-0.02012253;-0.33150485;;;;;;;;;;;;;;;
2327.0;2251.2;;;;-1.157673;-0.016620638;-0.33651355;;;;;;;;;;;;;;;
2327.0;2251.2;;;;-1.1634179;-0.012855532;-0.3399773;;;;;;;;;;;;;;;
2327.0;2251.3;;;;;;;;;;;;;1838;;;;;;;;
2327.0;2251.3;;;;;;;;;;;;;1802;;;;;;;;
2327.0;2251.3;;;;;;;;;;;;;1800;;;;;;;;
2327.0;2251.3;;;;;;;;;;;;;1472;;;;;;;;
2327.0;2251.3;;;;;;;;;;;;;844;;;;;;;;
2327.0;2255.3;;;;;;;;;;-38.50673;-9.544664;20.134586;;;;;;;;;
2327.0;2255.3;;;;;;;0.90804774;0.025025178;-0.18543047;;;;;;;;;;;;
2327.0;2255.3;;;;;;;;;;-35.721916;-9.529405;20.775475;;;;;;;;;
2327.0;2255.3;;;;;;;0.9202551;0.010498367;-0.1853084;;;;;;;;;;;;
2327.0;2261.3;;;;-1.1673166;-0.008525849;-0.34243777;;;;;;;;;;;;;;;
2327.0;2261.3;;;;-1.1692163;-0.0038032536;-0.3457184;;;;;;;;;;;;;;;
2327.0;2261.3;;;;-1.1707498;9.1171276E-4;-0.34907916;;;;;;;;;;;;;;;
2327.0;2261.3;;;;-1.1726762;0.005275727;-0.35185626;;;;;;;;;;;;;;;
2327.0;2261.3;;;;-1.1752435;0.009750367;-0.35579303;;;;;;;;;;;;;;;
2328.0;2262.3;;;;;;;;;;;;;;;;;49.76043;-0.11825922;-25.601213;;2171.8
2328.0;2262.3;;;;;;;;;;;;;;-0.5103305;-0.28992584;0.050050355;;;;;2171.8
2328.0;2262.3;;;;;;;;;;;;;;;;;45.14069;1.5907773;-19.802696;;2171.8
2328.0;2262.3;;;;;;;;;;;;;;-0.47621083;-0.2891934;0.058107242;;;;;2171.8
2328.0;2262.3;;;;;;;;;;;;;;;;;41.474655;4.0475173;-13.80581;;2181.4
2328.0;2262.3;;;;;;;;;;;;;;-0.440199;-0.28241828;0.075319685;;;;;2181.4
2328.0;2262.3;;;;;;;;;;;;;;;;;38.56777;6.6759243;-7.2862945;;2181.4
2328.0;2262.3;;;;;;;;;;;;;;-0.4113895;-0.30085146;0.09509568;;;;;2181.4
