patientId;holterMac;flexMac;;;;;;;;;;;;;;;;;;;;
;CA:F3:0B:1E:33:78;D3:4A:5C:52:80:78;;;;;;;;;;;;;;;;;;;;
receivedTimeStamp;timeStamp;red;ir;green;adxl_accX;adxl_accY;adxl_accZ;lsm_accelX;lsm_accelY;lsm_accelZ;lsm_gyroX;lsm_gyroY;lsm_gyroZ;ecg;flex_lsm_accelX;flex_lsm_accelY;flex_lsm_accelZ;flex_lsm_gyroX;flex_lsm_gyroY;flex_lsm_gyroZ;flex_cmd;flexTimeStamp
294.0;215.0;;;;;;;;;;;;;;;;;;;;17;0.1
294.0;215.0;;;;;;;;;;;;;;;;;13.428144;1.53737;0.84307384;;127.7
294.0;215.0;;;;;;;;;;;;;;0.90340894;-0.061586354;-0.27918333;;;;;127.7
294.0;215.0;;;;;;;;;;;;;;;;;-4.91348;-16.857662;-7.0917387;;127.7
294.0;215.0;;;;;;;;;;;;;;0.9378338;-0.081667535;-0.2880337;;;;;127.7
294.0;215.0;;;;;;;;;;;;;;;;;-62.559128;-84.97116;-61.67409;;137.3
294.0;215.0;;;;;;;;;;;;;;0.93942076;-0.08209479;-0.27961057;;;;;137.3
294.0;215.0;;;;;;;;;;;;;;;;;-121.96341;-124.988556;-120.19333;;137.3
294.0;215.0;;;;;;;;;;;;;;0.9450972;-0.08661153;-0.27973264;;;;;137.3
356.0;215.8;;;;;;;;;;;;;;;;;-49.37132;-124.95804;-77.42546;;147.0
356.0;215.8;;;;;;;;;;;;;;0.95059055;-0.084109016;-0.28931546;;;;;147.0
356.0;215.8;;;;;;;;;;;;;;;;;31.785027;-124.988556;-29.622028;;147.0
356.0;215.8;;;;;;;;;;;;;;0.94802696;-0.10589923;-0.28534806;;;;;147.0
356.0;215.8;;;;;;;;;;;;;;;;;35.760063;-100.287636;-21.72918;;156.7
356.0;215.8;;;;;;;;;;;;;;0.95736563;-0.10455641;-0.28949857;;;;;156.7
356.0;215.8;;;;;;;;;;;;;;;;;33.47499;-17.765587;2.8801844;;156.7
356.0;215.8;;;;;;;;;;;;;;0.97140414;-0.09900205;-0.29871517;;;;;156.7
356.0;215.8;;;;;;;;;;;;;;;;;34.8941;-10.105441;4.139073;;166.3
356.0;215.8;;;;;;;;;;;;;;0.9783624;-0.095278785;-0.31025118;;;;;166.3
356.0;215.8;;;;;;;;;;;;;;;;;36.950287;-9.437849;3.711814;;166.3
356.0;215.8;;;;;;;;;;;;;;0.97402877;-0.097720265;-0.32026124;;;;;166.3
356.0;275.4;;;;;;;;;;;;;;;;;38.377026;-9.380627;3.8262582;;175.9
356.0;275.4;;;;;;;;;;;;;;0.9640187;-0.106631674;-0.33118686;;;;;175.9
356.0;275.4;;;;;;;;;;;;;;;;;39.193394;-8.835109;3.6164434;;175.9
356.0;275.4;;;;;;;;;;;;;;0.9496139;-0.102053896;-0.32258064;;;;;175.9
356.0;275.4;;;;;;;;;;;;;;;;;40.0708;-8.709219;3.9292583;;185.6
356.0;275.4;;;;;;;;;;;;;;0.9346599;-0.12994781;-0.31183812;;;;;185.6
356.0;275.4;;;;;;;;;;;;;;;;;40.669727;-8.373516;4.2306285;;185.6
356.0;275.4;;;;;;;;;;;;;;0.92574847;-0.13531907;-0.30042422;;;;;185.6
356.0;275.4;;;;;;;;;;;;;;;;;40.944393;-7.0154424;4.4442577;;195.2
356.0;275.4;;;;;;;;;;;;;;0.91885126;-0.14069033;-0.27674183;;;;;195.2
356.0;275.4;;;;;;;;;;;;;;;;;41.219063;-6.431776;4.711295;;195.2
356.0;275.4;;;;;;;;;;;;;;0.9185461;-0.14606158;-0.2732017;;;;;195.2
418.0;276.2;;;;;;;;;;;;;;;;;41.768394;-5.9320354;4.8295546;;204.8
418.0;276.2;;;;;;;;;;;;;;0.924955;-0.14734337;-0.26606035;;;;;204.8
418.0;276.2;;;;;;;;;;;;;;;;;42.283394;-5.451369;5.104221;;204.8
418.0;276.2;;;;;;;;;;;;;;0.93856627;-0.15106662;-0.26252022;;;;;204.8
418.0;276.2;;;;;;;;;;;;;;;;;42.489395;-4.5777764;5.352184;;214.5
418.0;276.2;;;;;;;;;;;;;;0.9522996;-0.15692617;-0.26606035;;;;;214.5
418.0;276.2;;;;;;;;;;;;;;;;;43.49269;-3.276925;5.2148504;;214.5
418.0;276.2;;;;;;;;;;;;;;0.95852536;-0.15625477;-0.26612142;;;;;214.5
418.0;276.2;;;;;;;;;;;;;;;;;44.0611;-2.5559251;4.6197395;;224.2
418.0;276.2;;;;;;;;;;;;;;0.9652394;-0.14062929;-0.26349682;;;;;224.2
418.0;276.2;;;;;;;;;;;;;;;;;44.446392;-2.3651845;4.40611;;224.2
418.0;276.2;;;;;;;;;;;;;;0.9722587;-0.12927641;-0.26435134;;;;;224.2
418.0;343.1;;;;;;;;;;;;;;;;;45.400097;-2.5521104;4.3755913;;233.8
418.0;343.1;;;;;;;;;;;;;;0.9825739;-0.13373211;-0.26557207;;;;;233.8
418.0;343.1;;;;;;;;;;;;;;;;;46.548355;-2.231666;3.4485915;;233.8
418.0;343.1;;;;;;;;;;;;;;0.9820246;-0.12823878;-0.2690512;;;;;233.8
418.0;343.1;;;;;;;;;;;;;;;;;47.45247;-0.9994812;1.8578143;;243.4
418.0;343.1;;;;;;;;;;;;;;0.9787286;-0.1037019;-0.26404613;;;;;243.4
418.0;343.1;;;;;;;;;;;;;;;;;48.31843;-0.22507401;1.1139256;;243.4
418.0;343.1;;;;;;;;;;;;;;0.9717094;-0.0921659;-0.25763726;;;;;243.4
418.0;343.1;;;;;;;;;;;;;;;;;49.22254;-0.064851835;0.5569628;;253.1
418.0;343.1;;;;;;;;;;;;;;0.96353036;-0.080141604;-0.2609943;;;;;253.1
418.0;343.1;;;;;;;;;;;;;;;;;49.90539;0.6981109;0.09155553;;253.1
418.0;343.1;;;;;;;;;;;;;;0.95272684;-0.06549272;-0.26435134;;;;;253.1
537.0;344.0;;;;;;;;;;;;;;;;;50.160984;0.90029603;0.034333322;;262.7
537.0;344.0;;;;;;;;;;;;;;0.94534135;-0.065431684;-0.26154363;;;;;262.7
537.0;344.0;;;;;;;;;;;;;;;;;49.501022;1.2970366;0.12588885;;262.7
537.0;344.0;;;;;;;;;;;;;;0.94192326;-0.058229316;-0.25116733;;;;;262.7
537.0;344.0;;;;;;;;;;;;;;;;;48.02469;1.7242957;0.38148138;;272.4
537.0;344.0;;;;;;;;;;;;;;0.941496;-0.059511095;-0.24823755;;;;;272.4
537.0;344.0;;;;;;;;;;;;;;;;;46.586506;2.6932585;0.79348123;;272.4
537.0;344.0;;;;;;;;;;;;;;0.9378338;-0.062440872;-0.24158452;;;;;272.4
537.0;344.0;;;;;;;;;;;;;;;;;45.091095;2.9984436;1.453444;;282.0
537.0;344.0;;;;;;;;;;;;;;0.92947173;-0.0684225;-0.25263223;;;;;282.0
537.0;344.0;;;;;;;;;;;;;;;;;44.057285;3.4409618;2.193518;;282.0
537.0;344.0;;;;;;;;;;;;;;0.92263556;-0.072878204;-0.24823755;;;;;282.0
537.0;456.7;;;;;;;;;;;;;;;;;42.916656;2.9030733;3.1586657;;291.7
537.0;456.7;;;;;;;;;;;;;;0.9250771;-0.08545183;-0.2537309;;;;;291.7
537.0;456.7;;;;;;;;;;;;;;;;;42.134617;3.0098882;3.9025545;;291.7
537.0;456.7;;;;;;;;;;;;;;0.92641985;-0.08978546;-0.26209295;;;;;291.7
537.0;456.7;;;;;;;;;;;;;;;;;41.608173;3.6507769;4.734184;;301.3
537.0;456.7;;;;;;;;;;;;;;0.92281866;-0.09418012;-0.25586718;;;;;301.3
537.0;456.7;;;;;;;;;;;;;;;;;40.45991;2.9564807;5.691702;;301.3
537.0;456.7;;;;;;;;;;;;;;0.9312418;-0.105533004;-0.25019073;;;;;301.3
537.0;456.7;;;;;;;;;;;;;;;;;39.57869;2.6131475;6.2524796;;310.9
537.0;456.7;;;;;;;;;;;;;;0.94570756;-0.110721156;-0.25189978;;;;;310.9
537.0;456.7;;;;;;;;;;;;;;;;;39.15906;3.093814;6.538591;;310.9
537.0;456.7;;;;;;;;;;;;;;0.95077366;-0.102847375;-0.25086215;;;;;310.9
539.0;457.9;;;;;;;;;;;;;;;;;38.548695;3.5287027;6.977294;;320.6
539.0;457.9;;;;;;;;;;;;;;0.9595019;-0.11066011;-0.25324258;;;;;320.6
539.0;457.9;;;;;;;;;;;;;;;;;38.64025;3.849147;7.801294;;320.6
539.0;457.9;;;;;;;;;;;;;;0.9606006;-0.1259804;-0.25055698;;;;;320.6
539.0;457.9;;;;;;;;;;;;;;;;;39.67406;4.4328136;8.301035;;330.3
539.0;457.9;;;;;;;;;;;;;;0.9615772;-0.12555315;-0.24652852;;;;;330.3
539.0;457.9;;;;;;;;;;;;;;;;;40.85284;5.0050354;8.911405;;330.3
539.0;457.9;;;;;;;;;;;;;;0.9625538;-0.12445448;-0.23950927;;;;;330.3
539.0;457.9;;;;;;;;;;;;;;;;;42.28721;4.837184;9.437849;;339.8
539.0;457.9;;;;;;;;;;;;;;0.96804714;-0.1259804;-0.23944822;;;;;339.8
539.0;457.9;;;;;;;;;;;;;;;;;43.404953;5.0851464;9.746849;;339.8
539.0;457.9;;;;;;;;;;;;;;0.9693289;-0.11981567;-0.24817652;;;;;339.8
539.0;458.7;;;;;;;;;;;;;;;;;44.68291;5.8633685;10.307627;;349.5
539.0;458.7;;;;;;;;;;;;;;0.9708548;-0.12237922;-0.24384288;;;;;349.5
539.0;458.7;;;;;;;;;;;;;;;;;45.621357;5.7451096;10.883664;;349.5
539.0;458.7;;;;;;;;;;;;;;0.9757378;-0.12408826;-0.24793237;;;;;349.5
539.0;458.7;;;;;;;;;;;;;;;;;46.78106;6.0731835;11.68096;;359.1
539.0;458.7;;;;;;;;;;;;;;0.9715262;-0.13489181;-0.24897;;;;;359.1
539.0;458.7;;;;;;;;;;;;;;;;;48.203987;6.65685;12.260812;;359.1
539.0;458.7;;;;;;;;;;;;;;0.9670095;-0.13934751;-0.25171667;;;;;359.1
539.0;458.7;;;;;;;;;;;;;;;;;49.20347;7.000183;12.932219;;368.8
539.0;458.7;;;;;;;;;;;;;;0.9696951;-0.13238929;-0.2553789;;;;;368.8
539.0;458.7;;;;;;;;;;;;;;;;;49.7528;7.1718497;13.657034;;368.8
539.0;458.7;;;;;;;;;;;;;;0.96743673;-0.13293862;-0.26514482;;;;;368.8
599.0;459.4;;;;;;;;;;;;;;;;;50.50432;7.9081087;14.2407;;378.4
599.0;459.4;;;;;;;;;;;;;;0.96804714;-0.12768945;-0.26770836;;;;;378.4
599.0;459.4;;;;;;;;;;;;;;;;;51.263466;7.9462566;15.053254;;378.4
599.0;459.4;;;;;;;;;;;;;;0.9707938;-0.120365;-0.27692497;;;;;378.4
599.0;459.4;;;;;;;;;;;;;;;;;51.48091;7.915738;15.545365;;388.0
599.0;459.4;;;;;;;;;;;;;;0.97762996;-0.10791345;-0.29474777;;;;;388.0
599.0;459.4;;;;;;;;;;;;;;;;;51.721245;8.785516;16.163366;;388.0
599.0;459.4;;;;;;;;;;;;;;0.9754326;-0.093935974;-0.2908414;;;;;388.0
599.0;459.4;;;;;;;;;;;;;;;;;51.633503;8.560442;17.063662;;397.6
599.0;459.4;;;;;;;;;;;;;;0.9769585;-0.087466046;-0.2842494;;;;;397.6
599.0;459.4;;;;;;;;;;;;;;;;;51.11469;8.087405;17.963957;;397.6
599.0;459.4;;;;;;;;;;;;;;0.9838557;-0.073793754;-0.28357798;;;;;397.6
599.0;516.4;;;;;;;;;;;;;;;;;50.34028;8.823664;18.868069;;407.3
599.0;516.4;;;;;;;;;;;;;;0.9782403;-0.06225776;-0.27521592;;;;;407.3
599.0;516.4;;;;;;;;;;;;;;;;;49.97787;10.349589;19.524216;;407.3
599.0;516.4;;;;;;;;;;;;;;0.96548355;-0.04773095;-0.2454909;;;;;407.3
599.0;516.4;;;;;;;;;;;;;;;;;49.645985;10.23896;20.115513;;416.9
599.0;516.4;;;;;;;;;;;;;;0.95992917;-0.03607288;-0.23236793;;;;;416.9
599.0;516.4;;;;;;;;;;;;;;;;;50.035095;10.418256;20.523697;;416.9
599.0;516.4;;;;;;;;;;;;;;0.9569994;-0.01660207;-0.22528763;;;;;416.9
599.0;516.4;;;;;;;;;;;;;;;;;49.932095;11.028626;20.88229;;426.5
599.0;516.4;;;;;;;;;;;;;;0.9571215;0.0048219245;-0.22205268;;;;;426.5
599.0;516.4;;;;;;;;;;;;;;;;;49.94354;11.047701;21.015808;;426.5
599.0;516.4;;;;;;;;;;;;;;0.97360146;0.038392287;-0.2207709;;;;;426.5
659.0;517.5;;;;;;;;;;;;;;;;;48.955505;11.013368;21.126438;;436.1
659.0;517.5;;;;;;;;;;;;;;0.9944151;0.05468917;-0.22797327;;;;;436.1
659.0;517.5;;;;;;;;;;;;;;;;;47.68136;11.482589;21.08066;;436.1
659.0;517.5;;;;;;;;;;;;;;1.0069277;0.0740379;-0.23535874;;;;;436.1
659.0;517.5;;;;;;;;;;;;;;;;;45.953243;11.463515;21.465958;;445.8
659.0;517.5;;;;;;;;;;;;;;1.0087588;0.07257301;-0.2454909;;;;;445.8
659.0;517.5;;;;;;;;;;;;;;;;;44.473095;11.459701;22.00003;;445.8
659.0;517.5;;;;;;;;;;;;;;0.99380475;0.07318339;-0.25080112;;;;;445.8
659.0;517.5;;;;;;;;;;;;;;;;;43.22947;11.9556265;22.350992;;455.4
659.0;517.5;;;;;;;;;;;;;;0.9632252;0.07086398;-0.25232702;;;;;455.4
659.0;517.5;;;;;;;;;;;;;;;;;42.22999;11.631367;22.331919;;455.4
659.0;517.5;;;;;;;;;;;;;;0.92855614;0.06549272;-0.24475844;;;;;455.4
659.0;584.0;;;;;;;;;;;;;;;;;41.12369;9.994812;21.881773;;465.1
659.0;584.0;;;;;;;;;;;;;;0.9116489;0.061830502;-0.25434124;;;;;465.1
659.0;584.0;;;;;;;;;;;;;;;;;40.448467;8.7397375;21.092106;;465.1
659.0;584.0;;;;;;;;;;;;;;0.89419234;0.0651265;-0.26862392;;;;;465.1
659.0;584.0;;;;;;;;;;;;;;;;;39.941097;7.290109;20.592363;;474.7
659.0;584.0;;;;;;;;;;;;;;0.882046;0.073000275;-0.2800989;;;;;474.7
659.0;584.0;;;;;;;;;;;;;;;;;38.403732;4.2191844;20.084993;;474.7
659.0;584.0;;;;;;;;;;;;;;0.88698995;0.06323435;-0.31092256;;;;;474.7
659.0;584.0;;;;;;;;;;;;;;;;;35.809654;1.6479995;18.85281;;484.3
659.0;584.0;;;;;;;;;;;;;;0.906827;0.05426191;-0.3374737;;;;;484.3
659.0;584.0;;;;;;;;;;;;;;;;;33.455917;0.6408887;17.81518;;484.3
659.0;584.0;;;;;;;;;;;;;;0.9284341;0.04327525;-0.34455398;;;;;484.3
717.0;584.9;;;;;;;;;;;;;;;;;31.41499;0.4196295;16.48381;;494.0
717.0;584.9;;;;;;;;;;;;;;0.9465621;0.027527696;-0.34516433;;;;;494.0
717.0;584.9;;;;;;;;;;;;;;;;;30.224768;0.23270364;15.030366;;494.0
717.0;584.9;;;;;;;;;;;;;;0.9584643;0.010742515;-0.33857235;;;;;494.0
717.0;584.9;;;;;;;;;;;;;;;;;29.808954;0.16403699;13.698996;;503.7
717.0;584.9;;;;;;;;;;;;;;0.9703055;-0.00860622;-0.31672108;;;;;503.7
717.0;584.9;;;;;;;;;;;;;;;;;30.217138;0.26322216;11.959441;;503.7
717.0;584.9;;;;;;;;;;;;;;0.98025453;-0.030152287;-0.28962067;;;;;503.7
717.0;584.9;;;;;;;;;;;;;;;;;31.331066;0.46159247;10.063478;;513.3
717.0;584.9;;;;;;;;;;;;;;0.99233985;-0.036561176;-0.2677694;;;;;513.3
717.0;584.9;;;;;;;;;;;;;;;;;32.13599;0.2517777;7.7936645;;513.3
717.0;584.9;;;;;;;;;;;;;;1.010712;-0.04815821;-0.24817652;;;;;513.3
717.0;591.4;;;;;;;;;;;;;;;;;33.471176;0.24033326;5.527665;;522.9
717.0;591.4;;;;;;;;;;;;;;1.0237129;-0.049439985;-0.22498246;;;;;522.9
717.0;591.4;;;;;;;;;;;;;;;;;34.756767;0.16403699;3.1357768;;522.9
717.0;591.4;;;;;;;;;;;;;;1.0438551;-0.053407393;-0.21832941;;;;;522.9
717.0;591.4;;;;;;;;;;;;;;;;;36.2331;1.3618885;1.0719626;;532.5
717.0;591.4;;;;;;;;;;;;;;1.0473342;-0.054139838;-0.20288706;;;;;532.5
717.0;591.4;;;;;;;;;;;;;;;;;37.91925;2.6093326;-0.71337014;;532.5
717.0;591.4;;;;;;;;;;;;;;1.041902;-0.052369762;-0.19568469;;;;;532.5
717.0;591.4;;;;;;;;;;;;;;;;;40.07843;3.0404067;-2.4491103;;542.1
717.0;591.4;;;;;;;;;;;;;;1.0331125;-0.047791988;-0.19586779;;;;;542.1
717.0;591.4;;;;;;;;;;;;;;;;;42.558064;3.0289621;-4.139073;;542.1
717.0;591.4;;;;;;;;;;;;;;1.0191962;-0.0413831;-0.20416883;;;;;542.1
837.0;636.6;;;;;;;;;;;;;;;;;45.194096;2.601703;-5.8862576;;551.7
837.0;636.6;;;;;;;;;;;;;;1.0050355;-0.031861324;-0.21686453;;;;;551.7
837.0;636.6;;;;;;;;;;;;;;;;;47.982727;1.8005921;-7.553331;;551.7
837.0;636.6;;;;;;;;;;;;;;0.9952086;-0.019226661;-0.23108615;;;;;551.7
837.0;636.6;;;;;;;;;;;;;;;;;50.717945;0.92699975;-9.4569235;;561.2
837.0;636.6;;;;;;;;;;;;;;0.99185157;-0.0045777764;-0.25208288;;;;;561.2
837.0;636.6;;;;;;;;;;;;;;;;;53.380688;0.4997406;-11.463515;;561.2
837.0;636.6;;;;;;;;;;;;;;0.9861751;0.019531846;-0.27069917;;;;;561.2
837.0;636.6;;;;;;;;;;;;;;;;;55.009613;0.034333322;-13.447219;;570.8
837.0;636.6;;;;;;;;;;;;;;0.98245186;0.03875851;-0.28736228;;;;;570.8
837.0;636.6;;;;;;;;;;;;;;;;;55.78402;-0.6408887;-15.316477;;570.8
837.0;636.6;;;;;;;;;;;;;;0.9825129;0.061708428;-0.30036318;;;;;570.8
837.0;651.9;;;;;;;;;;;;;;;;;55.471203;-1.2054812;-17.021698;;580.5
837.0;651.9;;;;;;;;;;;;;;0.9812921;0.08508561;-0.29987487;;;;;580.5
837.0;651.9;;;;;;;;;;;;;;;;;54.277172;-2.2659993;-18.66207;;580.5
837.0;651.9;;;;;;;;;;;;;;0.98409986;0.107852414;-0.2987762;;;;;580.5
837.0;651.9;;;;;;;;;;;;;;;;;52.472763;-3.2731102;-20.241402;;590.1
837.0;651.9;;;;;;;;;;;;;;0.98495436;0.1267739;-0.29224524;;;;;590.1
837.0;651.9;;;;;;;;;;;;;;;;;50.469982;-4.341258;-21.794031;;590.1
837.0;651.9;;;;;;;;;;;;;;0.97915584;0.13476974;-0.2817469;;;;;590.1
837.0;651.9;;;;;;;;;;;;;;;;;48.787655;-4.9668875;-23.579363;;599.8
837.0;651.9;;;;;;;;;;;;;;0.9720756;0.14831996;-0.26880702;;;;;599.8
837.0;651.9;;;;;;;;;;;;;;;;;47.34947;-5.0202947;-25.769066;;599.8
837.0;651.9;;;;;;;;;;;;;;0.95455796;0.1678518;-0.25708792;;;;;599.8
838.0;696.9;;;;;;;;;;;;;;;;;46.071503;-5.22248;-28.34025;;609.4
838.0;696.9;;;;;;;;;;;;;;0.9432661;0.18897061;-0.2537309;;;;;609.4
838.0;696.9;;;;;;;;;;;;;;;;;44.202248;-5.5200357;-31.014435;;609.4
838.0;696.9;;;;;;;;;;;;;;0.93655205;0.2106998;-0.25592822;;;;;609.4
838.0;696.9;;;;;;;;;;;;;;;;;41.177097;-6.1914425;-33.761105;;619.1
838.0;696.9;;;;;;;;;;;;;;0.93954283;0.23242897;-0.26190984;;;;;619.1
838.0;696.9;;;;;;;;;;;;;;;;;36.709953;-7.3206277;-36.553543;;619.1
838.0;696.9;;;;;;;;;;;;;;0.9475997;0.25043488;-0.2705771;;;;;619.1
838.0;696.9;;;;;;;;;;;;;;;;;30.980103;-8.735923;-39.16669;;628.8
838.0;696.9;;;;;;;;;;;;;;0.9576098;0.2679525;-0.27875605;;;;;628.8
838.0;696.9;;;;;;;;;;;;;;;;;24.208809;-10.414441;-41.768394;;628.8
838.0;696.9;;;;;;;;;;;;;;0.96743673;0.28382215;-0.28864408;;;;;628.8
838.0;704.3;;;;;;;;;;;;;;;;;17.323069;-12.028108;-44.526505;;638.4
838.0;704.3;;;;;;;;;;;;;;0.97470015;0.30097353;-0.29242834;;;;;638.4
838.0;704.3;;;;;;;;;;;;;;;;;10.101626;-13.832514;-47.235023;;638.4
838.0;704.3;;;;;;;;;;;;;;0.97915584;0.3086642;-0.29322183;;;;;638.4
838.0;704.3;;;;;;;;;;;;;;;;;3.4142585;-15.736107;-50.248726;;648.1
838.0;704.3;;;;;;;;;;;;;;0.9784234;0.31879634;-0.2985931;;;;;648.1
838.0;704.3;;;;;;;;;;;;;;;;;-3.482925;-17.529068;-53.201393;;648.1
838.0;704.3;;;;;;;;;;;;;;0.9751274;0.3209937;-0.29920346;;;;;648.1
838.0;704.3;;;;;;;;;;;;;;;;;-10.368664;-19.95529;-56.56224;;657.7
838.0;704.3;;;;;;;;;;;;;;0.98208565;0.3147679;-0.31073946;;;;;657.7
838.0;704.3;;;;;;;;;;;;;;;;;-16.502884;-21.954254;-60.308388;;657.7
838.0;704.3;;;;;;;;;;;;;;0.9798883;0.31049532;-0.32404554;;;;;657.7
898.0;757.2;;;;;;;;;;;;;;;;;-21.900846;-23.701437;-64.38643;;667.3
898.0;757.2;;;;;;;;;;;;;;0.9707938;0.29822686;-0.33527634;;;;;667.3
898.0;757.2;;;;;;;;;;;;;;;;;-25.841547;-25.559252;-68.784904;;667.3
898.0;757.2;;;;;;;;;;;;;;0.96383554;0.28717917;-0.33796197;;;;;667.3
898.0;757.2;;;;;;;;;;;;;;;;;-27.321697;-27.344585;-73.91965;;677.0
898.0;757.2;;;;;;;;;;;;;;0.959685;0.27674183;-0.34302804;;;;;677.0
898.0;757.2;;;;;;;;;;;;;;;;;-26.322214;-28.122807;-79.54649;;677.0
898.0;757.2;;;;;;;;;;;;;;0.9584033;0.26978362;-0.33753473;;;;;677.0
898.0;757.2;;;;;;;;;;;;;;;;;-24.403364;-27.333141;-85.14283;;686.5
898.0;757.2;;;;;;;;;;;;;;0.94863737;0.25385296;-0.3230079;;;;;686.5
898.0;757.2;;;;;;;;;;;;;;;;;-21.664328;-25.212103;-90.31571;;686.5
898.0;757.2;;;;;;;;;;;;;;0.92788476;0.22186956;-0.28650776;;;;;686.5
898.0;764.9;;;;;;;;;;;;;;;;;-16.6097;-22.240362;-96.05701;;696.2
898.0;764.9;;;;;;;;;;;;;;0.9049348;0.2174749;-0.22492142;;;;;696.2
898.0;764.9;;;;;;;;;;;;;;;;;-10.3228855;-19.341106;-102.13782;;696.2
898.0;764.9;;;;;;;;;;;;;;0.88894314;0.22620319;-0.14636678;;;;;696.2
898.0;764.9;;;;;;;;;;;;;;;;;-2.3918884;-18.74981;-108.554344;;705.8
898.0;764.9;;;;;;;;;;;;;;0.8906522;0.21741386;-0.08264413;;;;;705.8
898.0;764.9;;;;;;;;;;;;;;;;;6.5805535;-18.09366;-115.26841;;705.8
898.0;764.9;;;;;;;;;;;;;;0.91799676;0.19074069;-0.036500137;;;;;705.8
898.0;764.9;;;;;;;;;;;;;;;;;13.962218;-15.575884;-122.40974;;715.5
898.0;764.9;;;;;;;;;;;;;;0.9589526;0.17108676;-0.018066958;;;;;715.5
898.0;764.9;;;;;;;;;;;;;;;;;20.298624;-9.43022;-124.946594;;715.5
898.0;764.9;;;;;;;;;;;;;;0.9895322;0.1241493;0.0072634052;;;;;715.5
958.0;817.5;;;;;;;;;;;;;;;;;26.448103;-1.2359996;-124.988556;;725.2
958.0;817.5;;;;;;;;;;;;;;1.0223091;0.09442427;0.049867246;;;;;725.2
958.0;817.5;;;;;;;;;;;;;;;;;31.704918;6.7941833;-124.988556;;725.2
958.0;817.5;;;;;;;;;;;;;;1.0514237;0.054322947;0.086245306;;;;;725.2
958.0;817.5;;;;;;;;;;;;;;;;;37.514877;13.950773;-124.988556;;734.8
958.0;817.5;;;;;;;;;;;;;;1.0804163;0.016357921;0.13049714;;;;;734.8
958.0;817.5;;;;;;;;;;;;;;;;;41.65395;20.054476;-124.988556;;734.8
958.0;817.5;;;;;;;;;;;;;;1.1213111;-0.018677328;0.16516617;;;;;734.8
958.0;817.5;;;;;;;;;;;;;;;;;45.55269;24.117252;-124.988556;;744.5
958.0;817.5;;;;;;;;;;;;;;1.1654408;-0.040040284;0.18042544;;;;;744.5
958.0;817.5;;;;;;;;;;;;;;;;;46.78869;25.532547;-124.988556;;744.5
958.0;817.5;;;;;;;;;;;;;;1.2282479;-0.07147435;0.15704826;;;;;744.5
958.0;832.5;;;;;;;;;;;;;;;;;48.482468;27.161474;-124.988556;;754.1
958.0;832.5;;;;;;;;;;;;;;1.2964263;-0.12128056;0.12384411;;;;;754.1
958.0;832.5;;;;;;;;;;;;;;;;;52.49565;29.564806;-124.988556;;754.1
958.0;832.5;;;;;;;;;;;;;;1.3516648;-0.17389446;0.09399701;;;;;754.1
958.0;832.5;;;;;;;;;;;;;;;;;56.169315;28.927732;-124.988556;;763.6
958.0;832.5;;;;;;;;;;;;;;1.3871273;-0.23474838;0.054567095;;;;;763.6
958.0;832.5;;;;;;;;;;;;;;;;;57.554092;23.9494;-124.988556;;763.6
958.0;832.5;;;;;;;;;;;;;;1.391705;-0.30500197;-0.028077029;;;;;763.6
958.0;832.5;;;;;;;;;;;;;;;;;57.302315;22.606585;-124.40489;;773.2
958.0;832.5;;;;;;;;;;;;;;1.3588061;-0.37812433;-0.10864589;;;;;773.2
958.0;832.5;;;;;;;;;;;;;;;;;56.77587;24.857325;-122.92092;;773.2
958.0;832.5;;;;;;;;;;;;;;1.2870265;-0.41053498;-0.12927641;;;;;773.2
1018.0;877.8;;;;;;;;;;;;;;;;;55.87176;21.156958;-122.56615;;782.8
1018.0;877.8;;;;;;;;;;;;;;1.206824;-0.4128544;-0.1535081;;;;;782.8
1018.0;877.8;;;;;;;;;;;;;;;;;53.62102;12.272256;-121.60481;;782.8
1018.0;877.8;;;;;;;;;;;;;;1.152623;-0.37318033;-0.1770684;;;;;782.8
1018.0;877.8;;;;;;;;;;;;;;;;;46.20884;4.119999;-116.714226;;792.5
1018.0;877.8;;;;;;;;;;;;;;1.1124607;-0.34418774;-0.21619312;;;;;792.5
1018.0;877.8;;;;;;;;;;;;;;;;;36.702324;-0.61037016;-114.70382;;792.5
1018.0;877.8;;;;;;;;;;;;;;1.0975677;-0.3162328;-0.2542802;;;;;792.5
1018.0;877.8;;;;;;;;;;;;;;;;;31.46077;-1.7471846;-117.164375;;802.1
1018.0;877.8;;;;;;;;;;;;;;1.1285745;-0.2666097;-0.26416823;;;;;802.1
1018.0;877.8;;;;;;;;;;;;;;;;;30.919065;1.7433698;-117.19871;;802.1
1018.0;877.8;;;;;;;;;;;;;;1.1315043;-0.19483016;-0.24903104;;;;;802.1
1018.0;885.3;;;;;;;;;;;;;;;;;32.57088;2.376629;-118.38893;;811.7
1018.0;885.3;;;;;;;;;;;;;;1.1170385;-0.1037019;-0.24048586;;;;;811.7
1018.0;885.3;;;;;;;;;;;;;;;;;35.039062;-2.7886288;-119.69741;;811.7
1018.0;885.3;;;;;;;;;;;;;;1.1227759;-0.03729362;-0.26508376;;;;;811.7
1018.0;885.3;;;;;;;;;;;;;;;;;40.952023;-5.9587393;-118.480484;;821.4
1018.0;885.3;;;;;;;;;;;;;;1.1325419;7.324442E-4;-0.29023102;;;;;821.4
1018.0;885.3;;;;;;;;;;;;;;;;;46.983246;-1.1482589;-119.68978;;821.4
1018.0;885.3;;;;;;;;;;;;;;1.141026;0.10144353;-0.2612995;;;;;821.4
1018.0;885.3;;;;;;;;;;;;;;;;;53.876614;5.352184;-119.28923;;831.0
1018.0;885.3;;;;;;;;;;;;;;1.1628163;0.20087282;-0.19214454;;;;;831.0
1018.0;885.3;;;;;;;;;;;;;;;;;65.48891;7.698294;-113.357185;;831.0
1018.0;885.3;;;;;;;;;;;;;;1.1602527;0.18036439;-0.1685232;;;;;831.0
1079.0;938.5;;;;;;;;;;;;;;;;;79.245125;11.154515;-108.12708;;840.6
1079.0;938.5;;;;;;;;;;;;;;1.1402326;0.1737724;-0.13098544;;;;;840.6
1079.0;938.5;;;;;;;;;;;;;;;;;82.09479;14.770959;-108.096565;;840.6
1079.0;938.5;;;;;;;;;;;;;;1.1561632;0.25238806;-0.122318186;;;;;840.6
1079.0;938.5;;;;;;;;;;;;;;;;;78.131195;16.083256;-105.56352;;850.2
1079.0;938.5;;;;;;;;;;;;;;1.1605579;0.29981384;-0.14960173;;;;;850.2
1079.0;938.5;;;;;;;;;;;;;;;;;72.38991;20.87466;-100.3563;;850.2
1079.0;938.5;;;;;;;;;;;;;;1.1306497;0.3317362;-0.12671286;;;;;850.2
1079.0;938.5;;;;;;;;;;;;;;;;;62.74987;23.86166;-96.24775;;859.9
1079.0;938.5;;;;;;;;;;;;;;1.0986053;0.37659842;-0.10870693;;;;;859.9
1079.0;938.5;;;;;;;;;;;;;;;;;53.163246;21.61855;-90.01434;;859.9
1079.0;938.5;;;;;;;;;;;;;;1.0625324;0.35456404;-0.12274545;;;;;859.9
1079.0;939.2;;;;;;;;;;;;;;;;;43.912323;21.267586;-82.716606;;869.6
1079.0;939.2;;;;;;;;;;;;;;1.0176703;0.31708732;-0.08630635;;;;;869.6
1079.0;939.2;;;;;;;;;;;;;;;;;34.56984;18.101292;-79.56557;;869.6
1079.0;939.2;;;;;;;;;;;;;;1.0043641;0.30060732;-0.069765314;;;;;869.6
1079.0;939.2;;;;;;;;;;;;;;;;;26.680807;12.99707;-76.071205;;879.2
1079.0;939.2;;;;;;;;;;;;;;1.000885;0.25318155;-0.07837153;;;;;879.2
1079.0;939.2;;;;;;;;;;;;;;;;;18.570513;8.423109;-72.97357;;879.2
1079.0;939.2;;;;;;;;;;;;;;0.98709065;0.22553179;-0.10113834;;;;;879.2
1079.0;939.2;;;;;;;;;;;;;;;;;10.635701;8.419294;-71.420944;;888.9
1079.0;939.2;;;;;;;;;;;;;;0.9568163;0.1859798;-0.10095523;;;;;888.9
1079.0;939.2;;;;;;;;;;;;;;;;;4.6845913;8.114109;-69.185455;;888.9
1079.0;939.2;;;;;;;;;;;;;;0.9265419;0.19672231;-0.08417005;;;;;888.9
1140.0;998.4;;;;;;;;;;;;;;;;;0.27466658;4.570147;-67.6748;;898.5
1140.0;998.4;;;;;;;;;;;;;;0.9353923;0.22772911;-0.07586902;;;;;898.5
1140.0;998.4;;;;;;;;;;;;;;;;;-0.8659627;1.9150364;-65.57665;;898.5
1140.0;998.4;;;;;;;;;;;;;;0.92355114;0.1991638;-0.100833155;;;;;898.5
1140.0;998.4;;;;;;;;;;;;;;;;;-2.8954437;4.058962;-63.46324;;908.1
1140.0;998.4;;;;;;;;;;;;;;0.88650167;0.16333507;-0.12237922;;;;;908.1
1140.0;998.4;;;;;;;;;;;;;;;;;-5.607776;8.537553;-61.323128;;908.1
1140.0;998.4;;;;;;;;;;;;;;0.8529313;0.15179907;-0.10699789;;;;;908.1
1140.0;998.4;;;;;;;;;;;;;;;;;-8.236183;12.909329;-58.053837;;917.7
1140.0;998.4;;;;;;;;;;;;;;0.82741785;0.14819789;-0.07983642;;;;;917.7
1140.0;998.4;;;;;;;;;;;;;;;;;-9.685812;16.258736;-54.048283;;917.7
1140.0;998.4;;;;;;;;;;;;;;0.8069704;0.14239937;-0.05084384;;;;;917.7
1140.0;999.2;;;;;;;;;;;;;;;;;-10.54033;18.757439;-50.22965;;927.3
1140.0;999.2;;;;;;;;;;;;;;0.7901853;0.1391644;-0.041505173;;;;;927.3
1140.0;999.2;;;;;;;;;;;;;;;;;-12.485885;21.706291;-46.52928;;927.3
1140.0;999.2;;;;;;;;;;;;;;0.7800531;0.14282663;-0.02435377;;;;;927.3
1140.0;999.2;;;;;;;;;;;;;;;;;-14.419996;23.686178;-42.863247;;937.0
1140.0;999.2;;;;;;;;;;;;;;0.7660756;0.14233834;-0.011169774;;;;;937.0
1140.0;999.2;;;;;;;;;;;;;;;;;-15.858181;24.319437;-39.510025;;937.0
1140.0;999.2;;;;;;;;;;;;;;0.7519761;0.13476974;-0.009338664;;;;;937.0
1140.0;999.2;;;;;;;;;;;;;;;;;-17.429884;23.55266;-35.8211;;946.6
1140.0;999.2;;;;;;;;;;;;;;0.7349467;0.13428144;-0.021973327;;;;;946.6
1140.0;999.2;;;;;;;;;;;;;;;;;-18.32255;21.08066;-31.521805;;946.6
1140.0;999.2;;;;;;;;;;;;;;0.720542;0.12286752;-0.035889767;;;;;946.6
1194.0;1058.9;;;;;;;;;;;;;;;;;-18.23481;16.495255;-27.581102;;956.3
1194.0;1058.9;;;;;;;;;;;;;;0.71480453;0.11883908;-0.06280709;;;;;956.3
1194.0;1058.9;;;;;;;;;;;;;;;;;-18.276772;11.585589;-23.087252;;956.3
1194.0;1058.9;;;;;;;;;;;;;;0.7182226;0.10846278;-0.09820856;;;;;956.3
1194.0;1058.9;;;;;;;;;;;;;;;;;-18.452253;7.9386272;-18.257698;;965.9
1194.0;1058.9;;;;;;;;;;;;;;0.7194433;0.105166785;-0.11957152;;;;;965.9
1194.0;1058.9;;;;;;;;;;;;;;;;;-18.436995;4.7456284;-13.63033;;965.9
1194.0;1058.9;;;;;;;;;;;;;;0.7282937;0.10357982;-0.14514603;;;;;965.9
1194.0;1058.9;;;;;;;;;;;;;;;;;-17.597734;4.1848507;-9.350108;;975.4
1194.0;1058.9;;;;;;;;;;;;;;0.7367168;0.10449538;-0.14972381;;;;;975.4
1194.0;1058.9;;;;;;;;;;;;;;;;;-16.838589;4.3069243;-5.279702;;975.4
1194.0;1058.9;;;;;;;;;;;;;;0.7538072;0.10046694;-0.14703818;;;;;975.4
1194.0;1059.8;;;;;;;;;;;;;;;;;-15.55681;5.83285;-0.9765923;;985.0
1194.0;1059.8;;;;;;;;;;;;;;0.7610706;0.10022279;-0.14490189;;;;;985.0
1194.0;1059.8;;;;;;;;;;;;;;;;;-15.118106;8.522293;2.6169622;;985.0
1194.0;1059.8;;;;;;;;;;;;;;0.7483749;0.094058044;-0.14093448;;;;;985.0
1194.0;1059.8;;;;;;;;;;;;;;;;;-13.954588;9.239479;5.3369246;;994.6
1194.0;1059.8;;;;;;;;;;;;;;0.72743917;0.10235908;-0.14447463;;;;;994.6
1194.0;1059.8;;;;;;;;;;;;;;;;;-12.192145;7.9195538;8.327739;;994.6
1194.0;1059.8;;;;;;;;;;;;;;0.71303445;0.10730308;-0.14569536;;;;;994.6
1194.0;1059.8;;;;;;;;;;;;;;;;;-9.12122;4.570147;10.906552;;1004.2
1194.0;1059.8;;;;;;;;;;;;;;0.7163915;0.118228704;-0.1777398;;;;;1004.2
1194.0;1059.8;;;;;;;;;;;;;;;;;-4.902035;3.4752953;12.913144;;1004.2
1194.0;1059.8;;;;;;;;;;;;;;0.72060305;0.13660085;-0.20258187;;;;;1004.2
1196.0;1118.8;;;;;;;;;;;;;;;;;-0.45777765;4.50148;14.809107;;1013.8
1196.0;1118.8;;;;;;;;;;;;;;0.71156955;0.1530198;-0.2118595;;;;;1013.8
1196.0;1118.8;;;;;;;;;;;;;;;;;4.837184;6.008332;15.629292;;1013.8
1196.0;1118.8;;;;;;;;;;;;;;0.6969817;0.16266365;-0.21454512;;;;;1013.8
1196.0;1118.8;;;;;;;;;;;;;;;;;10.464034;6.405072;16.441847;;1023.5
1196.0;1118.8;;;;;;;;;;;;;;0.67592394;0.18005921;-0.2238838;;;;;1023.5
1196.0;1118.8;;;;;;;;;;;;;;;;;14.782403;6.195257;16.663107;;1023.5
1196.0;1118.8;;;;;;;;;;;;;;0.6682333;0.1939146;-0.22229682;;;;;1023.5
1196.0;1118.8;;;;;;;;;;;;;;;;;18.475143;5.4437394;17.60918;;1033.2
1196.0;1118.8;;;;;;;;;;;;;;0.6540727;0.18402661;-0.22022156;;;;;1033.2
1196.0;1118.8;;;;;;;;;;;;;;;;;21.710106;5.0012207;18.585773;;1033.2
1196.0;1118.8;;;;;;;;;;;;;;0.6432691;0.20276497;-0.2026429;;;;;1033.2
1197.0;1119.6;;;;;;;;;;;;;;;;;22.919401;2.4109623;19.665363;;1042.7
1197.0;1119.6;;;;;;;;;;;;;;0.6520585;0.2141789;-0.19940794;;;;;1042.7
1197.0;1119.6;;;;;;;;;;;;;;;;;22.274696;0.88503677;20.836512;;1042.7
1197.0;1119.6;;;;;;;;;;;;;;0.6676229;0.23273416;-0.19580676;;;;;1042.7
1197.0;1119.6;;;;;;;;;;;;;;;;;21.015808;0.63325906;22.083958;;1052.4
1197.0;1119.6;;;;;;;;;;;;;;0.68581194;0.26081118;-0.1723075;;;;;1052.4
1197.0;1119.6;;;;;;;;;;;;;;;;;18.181402;-0.18311106;23.777735;;1052.4
1197.0;1119.6;;;;;;;;;;;;;;0.70656455;0.27918333;-0.15533921;;;;;1052.4
1197.0;1119.6;;;;;;;;;;;;;;;;;15.015106;-0.48829615;25.036621;;1062.1
1197.0;1119.6;;;;;;;;;;;;;;0.73335975;0.29999694;-0.13342692;;;;;1062.1
1197.0;1119.6;;;;;;;;;;;;;;;;;11.413922;-0.18692587;26.226845;;1062.1
1197.0;1119.6;;;;;;;;;;;;;;0.7536851;0.31812495;-0.11035493;;;;;1062.1
1197.0;1125.9;;;;0.0;0.0;0.0;;;;;;;;;;;;;;;
1197.0;1125.9;;;;-0.112022415;0.16011812;0.06146241;;;;;;;;;;;;;;;
1197.0;1125.9;;;;-0.4675179;0.7386437;0.1790848;;;;;;;;;;;;;;;
1197.0;1125.9;;;;-0.50859076;0.8227807;0.1904526;;;;;;;;;;;;;;;
1197.0;1125.9;;;;-0.50936896;0.8235017;0.19179538;;;;;;;;;;;;;;;
1197.0;1135.8;;;;-0.507454;0.8243867;0.19329074;;;;;;;;;;;;;;;
1197.0;1135.8;;;;-0.5053902;0.82485974;0.19299701;;;;;;;;;;;;;;;
1197.0;1135.8;;;;-0.502945;0.826275;0.19167712;;;;;;;;;;;;;;;
1197.0;1135.8;;;;-0.5003205;0.8269807;0.19001392;;;;;;;;;;;;;;;
1197.0;1135.8;;;;-0.49620062;0.827263;0.18826297;;;;;;;;;;;;;;;
1256.0;1138.4;57466;57425;11504;;;;;;;;;;;;;;;;;;
1256.0;1145.9;;;;-0.4917336;0.82745755;0.18606187;;;;;;;;;;;;;;;
1256.0;1145.9;;;;-0.48798376;0.8274499;0.18290712;;;;;;;;;;;;;;;
1256.0;1145.9;;;;-0.48369223;0.82719433;0.18058015;;;;;;;;;;;;;;;
1256.0;1145.9;;;;-0.4806443;0.82740414;0.17870332;;;;;;;;;;;;;;;
1256.0;1145.9;;;;-0.4777642;0.826584;0.17643358;;;;;;;;;;;;;;;
1256.0;1155.9;;;;-0.4752007;0.82590497;0.17505647;;;;;;;;;;;;;;;
1256.0;1155.9;;;;-0.47311407;0.8252717;0.17398836;;;;;;;;;;;;;;;
1256.0;1155.9;;;;-0.47277075;0.8253213;0.1736374;;;;;;;;;;;;;;;
1256.0;1155.9;;;;-0.4726258;0.8252412;0.17428972;;;;;;;;;;;;;;;
1256.0;1155.9;;;;-0.47230154;0.825596;0.17533876;;;;;;;;;;;;;;;
1256.0;1158.5;73846;73844;11489;;;;;;;;;;;;;;;;;;
1256.0;1164.6;;;;;;;;;;;;;0;;;;;;;;
1256.0;1164.6;;;;;;;;;;;;;0;;;;;;;;
1256.0;1164.6;;;;;;;;;;;;;-1;;;;;;;;
1256.0;1164.6;;;;;;;;;;;;;-2;;;;;;;;
1256.0;1164.6;;;;;;;;;;;;;-4;;;;;;;;
1256.0;1166.0;;;;-0.47200018;0.8265306;0.17652513;;;;;;;;;;;;;;;
1256.0;1166.0;;;;-0.4725266;0.82735455;0.17783739;;;;;;;;;;;;;;;
1256.0;1166.0;;;;-0.47305685;0.8293077;0.17985536;;;;;;;;;;;;;;;
1256.0;1166.0;;;;-0.47282797;0.83145916;0.18194963;;;;;;;;;;;;;;;
1256.0;1166.0;;;;-0.47347265;0.8340303;0.18351747;;;;;;;;;;;;;;;
1256.0;1176.1;;;;-0.47375113;0.8372041;0.18489458;;;;;;;;;;;;;;;
1256.0;1176.1;;;;-0.47418982;0.84007275;0.18669893;;;;;;;;;;;;;;;
1256.0;1176.1;;;;-0.4744988;0.8431817;0.18924716;;;;;;;;;;;;;;;
1256.0;1176.1;;;;-0.47577673;0.8464509;0.19118503;;;;;;;;;;;;;;;
1256.0;1176.1;;;;-0.47687536;0.8496057;0.1945267;;;;;;;;;;;;;;;
1256.0;1179.2;;;;;;;;;;;;;;;;;8.800775;-0.35096285;27.138586;;1071.6
1256.0;1179.2;;;;;;;;;;;;;;0.76796776;0.3317362;-0.093691826;;;;;1071.6
1256.0;1179.2;;;;;;;;;;;;;;;;;7.492294;-1.6670736;27.939695;;1071.6
1256.0;1179.2;;;;;;;;;;;;;;0.7843257;0.3507187;-0.09198279;;;;;1071.6
1256.0;1179.2;;;;;;;;;;;;;;;;;8.175146;-3.0213325;28.710287;;1081.3
1256.0;1179.2;;;;;;;;;;;;;;0.78884244;0.37842953;-0.09625538;;;;;1081.3
1256.0;1179.2;;;;;;;;;;;;;;;;;11.379589;-4.9630723;28.889584;;1081.3
1256.0;1179.2;;;;;;;;;;;;;;0.7965331;0.40064698;-0.097720265;;;;;1081.3
1256.0;1179.2;;;;;;;;;;;;;;;;;16.453293;-6.6873684;28.733177;;1090.9
1256.0;1179.2;;;;;;;;;;;;;;0.80703145;0.42823574;-0.11523789;;;;;1090.9
1256.0;1179.2;;;;;;;;;;;;;;;;;21.30955;-7.8356276;28.885769;;1090.9
1256.0;1179.2;;;;;;;;;;;;;;0.8100833;0.45619068;-0.12427137;;;;;1090.9
1256.0;1178.7;90321;90272;11489;;;;;;;;;;;;;;;;;;
1258.0;1180.4;;;;;;;;;;;;;;;;;25.837732;-9.399701;29.343548;;1100.6
1258.0;1180.4;;;;;;;;;;;;;;0.80751973;0.47364727;-0.1345256;;;;;1100.6
1258.0;1180.4;;;;;;;;;;;;;;;;;30.014954;-12.096774;29.67925;;1100.6
1258.0;1180.4;;;;;;;;;;;;;;0.8146611;0.50611895;-0.16022217;;;;;1100.6
1258.0;1180.4;;;;;;;;;;;;;;;;;33.66192;-13.657034;30.697805;;1110.2
1258.0;1180.4;;;;;;;;;;;;;;0.83315533;0.5195471;-0.17371136;;;;;1110.2
1258.0;1180.4;;;;;;;;;;;;;;;;;36.42384;-13.5883665;31.403545;;1110.2
1258.0;1180.4;;;;;;;;;;;;;;0.84127325;0.54017764;-0.20404676;;;;;1110.2
1258.0;1180.4;;;;;;;;;;;;;;;;;39.178135;-13.412886;31.68203;;1119.9
1258.0;1180.4;;;;;;;;;;;;;;0.85964537;0.55043185;-0.2296823;;;;;1119.9
1258.0;1180.4;;;;;;;;;;;;;;;;;40.574356;-12.1654415;31.5714;;1119.9
1258.0;1180.4;;;;;;;;;;;;;;0.8659932;0.595233;-0.25385296;;;;;1119.9
1258.0;1186.0;;;;-0.47817618;0.8526193;0.19790652;;;;;;;;;;;;;;;
1258.0;1186.0;;;;-0.4794045;0.855652;0.20103839;;;;;;;;;;;;;;;
1258.0;1186.0;;;;-0.48000342;0.85876477;0.20495608;;;;;;;;;;;;;;;
1258.0;1186.0;;;;-0.4814492;0.8624917;0.20784;;;;;;;;;;;;;;;
1258.0;1186.0;;;;-0.48282248;0.8659135;0.2117081;;;;;;;;;;;;;;;
1258.0;1196.1;;;;-0.4836083;0.8698083;0.21655658;;;;;;;;;;;;;;;
1258.0;1196.1;;;;-0.48395926;0.8734628;0.22069934;;;;;;;;;;;;;;;
1258.0;1196.1;;;;-0.48445135;0.8775369;0.22432712;;;;;;;;;;;;;;;
1258.0;1196.1;;;;-0.48439413;0.8813859;0.22591022;;;;;;;;;;;;;;;
1258.0;1196.1;;;;-0.48508078;0.8851625;0.22808078;;;;;;;;;;;;;;;
1258.0;1198.7;106669;106665;11496;;;;;;;;;;;;;;;;;;
1315.0;1204.8;;;;;;;;;;;;;-5;;;;;;;;
1315.0;1204.8;;;;;;;;;;;;;-7;;;;;;;;
1315.0;1204.8;;;;;;;;;;;;;-12;;;;;;;;
1315.0;1204.8;;;;;;;;;;;;;-9;;;;;;;;
1315.0;1204.8;;;;;;;;;;;;;-11;;;;;;;;
1315.0;1206.0;;;;-0.48567587;0.8890382;0.22986606;;;;;;;;;;;;;;;
1315.0;1206.0;;;;-0.48593527;0.89312375;0.23175433;;;;;;;;;;;;;;;
1315.0;1206.0;;;;-0.48608786;0.89670193;0.23374179;;;;;;;;;;;;;;;
1315.0;1206.0;;;;-0.4862557;0.899994;0.2351723;;;;;;;;;;;;;;;
1315.0;1206.0;;;;-0.48608023;0.90368664;0.23712161;;;;;;;;;;;;;;;
1315.0;1216.0;;;;-0.48561865;0.9072;0.2382851;;;;;;;;;;;;;;;
1315.0;1216.0;;;;-0.48468786;0.91056836;0.23936084;;;;;;;;;;;;;;;
1315.0;1216.0;;;;-0.48377615;0.91358197;0.24008945;;;;;;;;;;;;;;;
1315.0;1216.0;;;;-0.4826737;0.91614544;0.23977283;;;;;;;;;;;;;;;
1315.0;1216.0;;;;-0.4819222;0.91858685;0.2406731;;;;;;;;;;;;;;;
1315.0;1218.7;122958;123073;11486;;;;;;;;;;;;;;;;;;
1315.0;1226.1;;;;-0.48016745;0.92097104;0.2416344;;;;;;;;;;;;;;;
1315.0;1226.1;;;;-0.47861868;0.92309964;0.24167636;;;;;;;;;;;;;;;
1315.0;1226.1;;;;-0.47633368;0.9254495;0.24159244;;;;;;;;;;;;;;;
1315.0;1226.1;;;;-0.47486883;0.927868;0.24046329;;;;;;;;;;;;;;;
1315.0;1226.1;;;;-0.4742661;0.9303361;0.23891452;;;;;;;;;;;;;;;
1316.0;1236.2;;;;-0.4734841;0.9330903;0.2373772;;;;;;;;;;;;;;;
1316.0;1236.2;;;;-0.47225195;0.93577206;0.23552325;;;;;;;;;;;;;;;
1316.0;1236.2;;;;-0.47006994;0.93888867;0.23402789;;;;;;;;;;;;;;;
1316.0;1236.2;;;;-0.46902853;0.9420434;0.23120502;;;;;;;;;;;;;;;
1316.0;1236.2;;;;-0.4676171;0.9460527;0.22849658;;;;;;;;;;;;;;;
1316.0;1239.4;;;;;;;;;;;;;;;;;39.872433;-10.177923;30.903805;;1129.6
1316.0;1239.4;;;;;;;;;;;;;;0.8793603;0.63234353;-0.2709433;;;;;1129.6
1316.0;1239.4;;;;;;;;;;;;;;;;;36.26362;-9.147923;30.17136;;1129.6
1316.0;1239.4;;;;;;;;;;;;;;0.91293067;0.6728721;-0.29029205;;;;;1129.6
1316.0;1239.4;;;;;;;;;;;;;;;;;31.68203;-8.007294;29.595325;;1139.2
1316.0;1239.4;;;;;;;;;;;;;;0.9255043;0.7129124;-0.29725027;;;;;1139.2
1316.0;1239.4;;;;;;;;;;;;;;;;;23.827326;-6.0960727;27.829065;;1139.2
1316.0;1239.4;;;;;;;;;;;;;;0.9508347;0.77285075;-0.310007;;;;;1139.2
1316.0;1239.4;;;;;;;;;;;;;;;;;13.492996;-2.8344066;26.287882;;1148.8
1316.0;1239.4;;;;;;;;;;;;;;0.96890163;0.8061159;-0.30048525;;;;;1148.8
1316.0;1239.4;;;;;;;;;;;;;;;;;2.9602954;0.5378887;22.431105;;1148.8
1316.0;1239.4;;;;;;;;;;;;;;0.9933165;0.8577532;-0.2732017;;;;;1148.8
1316.0;1239.0;139457;139429;11486;;;;;;;;;;;;;;;;;;
1319.0;1240.1;;;;;;;;;;;;;;;;;-6.6492205;1.9264809;18.494217;;1158.4
1319.0;1240.1;;;;;;;;;;;;;;1.0234077;0.87594223;-0.27918333;;;;;1158.4
1319.0;1240.1;;;;;;;;;;;;;;;;;-13.145848;4.7647023;13.527329;;1158.4
1319.0;1240.1;;;;;;;;;;;;;;1.0014343;0.8818629;-0.29212317;;;;;1158.4
1319.0;1240.1;;;;;;;;;;;;;;;;;-18.082216;4.440443;8.217109;;1168.0
1319.0;1240.1;;;;;;;;;;;;;;0.99038666;0.87594223;-0.28693503;;;;;1168.0
1319.0;1240.1;;;;;;;;;;;;;;;;;-21.22181;1.1635182;2.76574;;1168.0
1319.0;1240.1;;;;;;;;;;;;;;0.99380475;0.8731956;-0.33399457;;;;;1168.0
1319.0;1240.1;;;;;;;;;;;;;;;;;-22.427288;0.18311106;-2.2049623;;1177.7
1319.0;1240.1;;;;;;;;;;;;;;0.99069184;0.84670556;-0.3418073;;;;;1177.7
1319.0;1240.1;;;;;;;;;;;;;;;;;-22.885067;-1.1635182;-5.874813;;1177.7
1319.0;1240.1;;;;;;;;;;;;;;0.99435407;0.7906125;-0.3406476;;;;;1177.7
1319.0;1244.8;;;;;;;;;;;;;-14;;;;;;;;
1319.0;1244.8;;;;;;;;;;;;;-7;;;;;;;;
1319.0;1244.8;;;;;;;;;;;;;-23;;;;;;;;
1319.0;1244.8;;;;;;;;;;;;;-11;;;;;;;;
1319.0;1244.8;;;;;;;;;;;;;25;;;;;;;;
1319.0;1246.1;;;;-0.46692663;0.9502374;0.2262192;;;;;;;;;;;;;;;
1319.0;1246.1;;;;-0.46610647;0.9542161;0.22379687;;;;;;;;;;;;;;;
1319.0;1246.1;;;;-0.4660836;0.9589044;0.22220233;;;;;;;;;;;;;;;
1319.0;1246.1;;;;-0.46531683;0.96440136;0.21999362;;;;;;;;;;;;;;;
1319.0;1246.1;;;;-0.4653359;0.97026074;0.21711734;;;;;;;;;;;;;;;
1375.0;1256.1;;;;-0.46477133;0.97760403;0.21448901;;;;;;;;;;;;;;;
1375.0;1256.1;;;;-0.4642716;0.98518765;0.21272281;;;;;;;;;;;;;;;
1375.0;1256.1;;;;-0.46358496;0.9936143;0.21133807;;;;;;;;;;;;;;;
1375.0;1256.1;;;;-0.4640389;1.001999;0.210228;;;;;;;;;;;;;;;
1375.0;1256.1;;;;-0.46508414;1.011345;0.20929721;;;;;;;;;;;;;;;
1375.0;1258.9;155826;155836;11491;;;;;;;;;;;;;;;;;;
1375.0;1266.1;;;;-0.4664727;1.0209504;0.20877078;;;;;;;;;;;;;;;
1375.0;1266.1;;;;-0.467125;1.0310289;0.20948413;;;;;;;;;;;;;;;
1375.0;1266.1;;;;-0.46893317;1.0411378;0.21030429;;;;;;;;;;;;;;;
1375.0;1266.1;;;;-0.47048193;1.0512544;0.2115021;;;;;;;;;;;;;;;
1375.0;1266.1;;;;-0.4724999;1.0612375;0.2119675;;;;;;;;;;;;;;;
1375.0;1276.0;;;;-0.47373205;1.0708848;0.2122002;;;;;;;;;;;;;;;
1375.0;1276.0;;;;-0.4755097;1.079899;0.21210101;;;;;;;;;;;;;;;
1375.0;1276.0;;;;-0.47739035;1.0886003;0.21201709;;;;;;;;;;;;;;;
1375.0;1276.0;;;;-0.47874457;1.096409;0.21226886;;;;;;;;;;;;;;;
1375.0;1276.0;;;;-0.48019797;1.1033937;0.21204379;;;;;;;;;;;;;;;
1375.0;1278.9;172234;172091;11487;;;;;;;;;;;;;;;;;;
1375.0;1285.0;;;;;;;;;;;;;-99;;;;;;;;
1375.0;1285.0;;;;;;;;;;;;;-149;;;;;;;;
1375.0;1285.0;;;;;;;;;;;;;156;;;;;;;;
1375.0;1285.0;;;;;;;;;;;;;239;;;;;;;;
1375.0;1285.0;;;;;;;;;;;;;-628;;;;;;;;
1376.0;1286.1;;;;-0.48009115;1.1096002;0.21247485;;;;;;;;;;;;;;;
1376.0;1286.1;;;;-0.4805985;1.1154748;0.21136859;;;;;;;;;;;;;;;
1376.0;1286.1;;;;-0.48133856;1.120041;0.2103081;;;;;;;;;;;;;;;
1376.0;1286.1;;;;-0.48234183;1.1233026;0.20972827;;;;;;;;;;;;;;;
1376.0;1286.1;;;;-0.48291785;1.1261598;0.2077637;;;;;;;;;;;;;;;
1376.0;1296.2;;;;-0.48375326;1.1285859;0.20593265;;;;;;;;;;;;;;;
1376.0;1296.2;;;;-0.48447043;1.1298219;0.20440295;;;;;;;;;;;;;;;
1376.0;1296.2;;;;-0.48514563;1.1308709;0.20307925;;;;;;;;;;;;;;;
1376.0;1296.2;;;;-0.48657995;1.1321832;0.20288089;;;;;;;;;;;;;;;
1376.0;1296.2;;;;-0.48826224;1.1335832;0.20181659;;;;;;;;;;;;;;;
1376.0;1299.5;;;;;;;;;;;;;;;;;-23.056734;-1.9798884;-7.9958496;;1187.4
1376.0;1299.5;;;;;;;;;;;;;;0.97897273;0.71810055;-0.33069858;;;;;1187.4
1376.0;1299.5;;;;;;;;;;;;;;;;;-23.23603;-2.193518;-8.934294;;1187.4
1376.0;1299.5;;;;;;;;;;;;;;0.9635914;0.6419874;-0.28833887;;;;;1187.4
1376.0;1299.5;;;;;;;;;;;;;;;;;-24.830622;-2.3079624;-8.617663;;1197.1
1376.0;1299.5;;;;;;;;;;;;;;0.94582963;0.5653859;-0.24231696;;;;;1197.1
1376.0;1299.5;;;;;;;;;;;;;;;;;-27.42088;-2.3461106;-7.5457015;;1197.1
1376.0;1299.5;;;;;;;;;;;;;;0.9240394;0.49372846;-0.19550157;;;;;1197.1
1376.0;1299.5;;;;;;;;;;;;;;;;;-29.560991;-3.4333322;-5.813776;;1206.6
1376.0;1299.5;;;;;;;;;;;;;;0.91567737;0.43391216;-0.14465773;;;;;1206.6
1376.0;1299.5;;;;;;;;;;;;;;;;;-30.663471;-4.749443;-3.8834803;;1206.6
1376.0;1299.5;;;;;;;;;;;;;;0.91170996;0.385815;-0.072328866;;;;;1206.6
1376.0;1299.2;188585;188557;11501;;;;;;;;;;;;;;;;;;
1377.0;1300.6;;;;;;;;;;;;;;;;;-31.956696;-7.6677756;-1.5068514;;1216.0
1377.0;1300.6;;;;;;;;;;;;;;0.9253212;0.3418073;-0.015625477;;;;;1216.0
1377.0;1300.6;;;;;;;;;;;;;;;;;-34.920803;-10.845515;1.1825923;;1216.0
1377.0;1300.6;;;;;;;;;;;;;;0.9604175;0.3112888;0.022339549;;;;;1216.0
1377.0;1300.6;;;;;;;;;;;;;;;;;-40.06317;-13.397626;4.547258;;1225.7
1377.0;1300.6;;;;;;;;;;;;;;1.0134586;0.31348613;0.045960877;;;;;1225.7
1377.0;1300.6;;;;;;;;;;;;;;;;;-46.571247;-17.78466;9.01822;;1225.7
1377.0;1300.6;;;;;;;;;;;;;;1.1056856;0.32441175;0.022461623;;;;;1225.7
1377.0;1300.6;;;;;;;;;;;;;;;;;-52.373577;-21.851254;14.835811;;1235.3
1377.0;1300.6;;;;;;;;;;;;;;1.1932737;0.32660908;-0.03875851;;;;;1235.3
1377.0;1300.6;;;;;;;;;;;;;;;;;-55.14313;-24.933622;20.931883;;1235.3
1377.0;1300.6;;;;;;;;;;;;;;1.2607197;0.31830806;-0.093691826;;;;;1235.3
1377.0;1306.0;;;;-0.48982626;1.1351053;0.20103839;;;;;;;;;;;;;;;
1377.0;1306.0;;;;-0.4917069;1.1376497;0.20019916;;;;;;;;;;;;;;;
1377.0;1306.0;;;;-0.49412924;1.1408693;0.2005463;;;;;;;;;;;;;;;
1377.0;1306.0;;;;-0.49655157;1.1443673;0.20038608;;;;;;;;;;;;;;;
1377.0;1306.0;;;;-0.49912268;1.1487924;0.20034793;;;;;;;;;;;;;;;
1378.0;1314.3;;;;;;;;;;;;;;;;;-52.59865;-26.047548;25.429548;;1245.0
1378.0;1314.3;;;;;;;;;;;;;;1.2838527;0.2989593;-0.15875728;;;;;1245.0
1378.0;1314.3;;;;;;;;;;;;;;;;;-45.75869;-23.483994;27.916805;;1245.0
1378.0;1314.3;;;;;;;;;;;;;;1.2552873;0.25153357;-0.17432173;;;;;1245.0
1378.0;1314.3;;;;;;;;;;;;;;;;;-38.266396;-20.67629;28.035065;;1254.6
1378.0;1314.3;;;;;;;;;;;;;;1.228431;0.2320017;-0.15094455;;;;;1254.6
1378.0;1314.3;;;;;;;;;;;;;;;;;-34.363842;-16.388441;28.95062;;1254.6
1378.0;1314.3;;;;;;;;;;;;;;1.1993164;0.17987609;-0.11926634;;;;;1254.6
1378.0;1314.3;;;;;;;;;;;;;;;;;-34.760582;-14.286477;29.988249;;1264.3
1378.0;1314.3;;;;;;;;;;;;;;1.2197638;0.13690603;-0.038270213;;;;;1264.3
1378.0;1314.3;;;;;;;;;;;;;;;;;-37.32414;-15.770439;30.39262;;1264.3
1378.0;1314.3;;;;;;;;;;;;;;1.2982574;0.11957152;-0.05389569;;;;;1264.3
1378.0;1315.9;;;;-0.5014878;1.1537744;0.2004166;;;;;;;;;;;;;;;
1378.0;1315.9;;;;-0.50430304;1.1592942;0.20058444;;;;;;;;;;;;;;;
1378.0;1315.9;;;;-0.50747305;1.1657296;0.20100787;;;;;;;;;;;;;;;
1378.0;1315.9;;;;-0.51087195;1.172577;0.20242313;;;;;;;;;;;;;;;
1378.0;1315.9;;;;-0.51370627;1.1798478;0.20411685;;;;;;;;;;;;;;;
1378.0;1318.9;204857;204905;11506;;;;;;;;;;;;;;;;;;
1378.0;1324.9;;;;;;;;;;;;;-2204;;;;;;;;
1378.0;1324.9;;;;;;;;;;;;;-3485;;;;;;;;
1378.0;1324.9;;;;;;;;;;;;;-3840;;;;;;;;
1378.0;1324.9;;;;;;;;;;;;;-3587;;;;;;;;
1378.0;1324.9;;;;;;;;;;;;;-3432;;;;;;;;
1439.0;1325.8;;;;-0.5169526;1.187668;0.20505527;;;;;;;;;;;;;;;
1439.0;1325.8;;;;-0.5209504;1.1957284;0.20661929;;;;;;;;;;;;;;;
1439.0;1325.8;;;;-0.5247498;1.2036477;0.20904544;;;;;;;;;;;;;;;
1439.0;1325.8;;;;-0.5290261;1.2116586;0.2120209;;;;;;;;;;;;;;;
1439.0;1325.8;;;;-0.5330468;1.2191736;0.21427539;;;;;;;;;;;;;;;
1439.0;1335.6;;;;-0.53716666;1.2263299;0.21709445;;;;;;;;;;;;;;;
1439.0;1335.6;;;;-0.5417176;1.2329713;0.2204018;;;;;;;;;;;;;;;
1439.0;1335.6;;;;-0.54615027;1.2389795;0.22409824;;;;;;;;;;;;;;;
1439.0;1335.6;;;;-0.5499154;1.244053;0.22741702;;;;;;;;;;;;;;;
1439.0;1335.6;;;;-0.5526467;1.2486802;0.23045734;;;;;;;;;;;;;;;
1439.0;1338.7;221355;221282;11500;;;;;;;;;;;;;;;;;;
1439.0;1345.7;;;;-0.5556336;1.2529947;0.23266223;;;;;;;;;;;;;;;
1439.0;1345.7;;;;-0.5589257;1.2569238;0.23475268;;;;;;;;;;;;;;;
1439.0;1345.7;;;;-0.5605889;1.2588464;0.23644641;;;;;;;;;;;;;;;
1439.0;1345.7;;;;-0.5615044;1.2595788;0.23865512;;;;;;;;;;;;;;;
1439.0;1345.7;;;;-0.56176;1.2588121;0.23970798;;;;;;;;;;;;;;;
1439.0;1355.8;;;;-0.56164557;1.2562486;0.24055102;;;;;;;;;;;;;;;
1439.0;1355.8;;;;-0.56093603;1.2526742;0.24118808;;;;;;;;;;;;;;;
1439.0;1355.8;;;;-0.56070715;1.2475435;0.2409592;;;;;;;;;;;;;;;
1439.0;1355.8;;;;-0.5603753;1.2410165;0.23974612;;;;;;;;;;;;;;;
1439.0;1355.8;;;;-0.5592156;1.2328683;0.23799136;;;;;;;;;;;;;;;
1441.0;1359.3;;;;;;;;;;;;;;;;;-33.650475;-13.840144;29.934843;;1274.0
1441.0;1359.3;;;;;;;;;;;;;;1.3925595;0.13873714;-0.06659139;;;;;1274.0
1441.0;1359.3;;;;;;;;;;;;;;;;;-17.857143;-13.428144;28.160954;;1274.0
1441.0;1359.3;;;;;;;;;;;;;;1.4589678;0.16962187;-0.11035493;;;;;1274.0
1441.0;1359.3;;;;;;;;;;;;;;;;;5.5772576;-11.947997;22.991882;;1283.6
1441.0;1359.3;;;;;;;;;;;;;;1.4599445;0.21668142;-0.15900144;;;;;1283.6
1441.0;1359.3;;;;;;;;;;;;;;;;;28.763695;-10.708182;16.26255;;1283.6
1441.0;1359.3;;;;;;;;;;;;;;1.4302804;0.3065279;-0.16492203;;;;;1283.6
1441.0;1359.3;;;;;;;;;;;;;;;;;42.88232;-12.455366;11.432997;;1293.3
1441.0;1359.3;;;;;;;;;;;;;;1.3786432;0.3925901;-0.16626485;;;;;1293.3
1441.0;1359.3;;;;;;;;;;;;;;;;;42.916656;-14.614552;10.132145;;1293.3
1441.0;1359.3;;;;;;;;;;;;;;1.3110752;0.44538713;-0.22101505;;;;;1293.3
1441.0;1358.9;237676;237699;11508;;;;;;;;;;;;;;;;;;
1441.0;1364.8;;;;;;;;;;;;;-3433;;;;;;;;
1441.0;1364.8;;;;;;;;;;;;;-3116;;;;;;;;
1441.0;1364.8;;;;;;;;;;;;;-2499;;;;;;;;
1441.0;1364.8;;;;;;;;;;;;;-1933;;;;;;;;
1441.0;1364.8;;;;;;;;;;;;;-1579;;;;;;;;
1441.0;1365.8;;;;-0.55748373;1.223137;0.23579791;;;;;;;;;;;;;;;
1441.0;1365.8;;;;-0.55450064;1.212372;0.23423389;;;;;;;;;;;;;;;
1441.0;1365.8;;;;-0.55089575;1.2007943;0.23185733;;;;;;;;;;;;;;;
1441.0;1365.8;;;;-0.5482407;1.1885339;0.2280846;;;;;;;;;;;;;;;
1441.0;1365.8;;;;-0.5456925;1.1759797;0.22544101;;;;;;;;;;;;;;;
1497.0;1374.2;;;;;;;;;;;;;;;;;29.396955;-15.102847;12.390514;;1302.9
1497.0;1374.2;;;;;;;;;;;;;;1.183813;0.4096805;-0.24842067;;;;;1302.9
1497.0;1374.2;;;;;;;;;;;;;;;;;11.291848;-18.009735;15.091403;;1302.9
1497.0;1374.2;;;;;;;;;;;;;;1.0294504;0.34302804;-0.2301706;;;;;1302.9
1497.0;1374.2;;;;;;;;;;;;;;;;;-6.9467754;-21.935179;15.377514;;1312.5
1497.0;1374.2;;;;;;;;;;;;;;0.9253212;0.26410717;-0.1864681;;;;;1312.5
1497.0;1374.2;;;;;;;;;;;;;;;;;-22.892696;-24.28129;15.488144;;1312.5
1497.0;1374.2;;;;;;;;;;;;;;0.8620258;0.17688528;-0.16071047;;;;;1312.5
1497.0;1374.2;;;;;;;;;;;;;;;;;-34.88647;-24.16303;16.937773;;1322.2
1497.0;1374.2;;;;;;;;;;;;;;0.80239266;0.06390576;-0.14935759;;;;;1322.2
1497.0;1374.2;;;;;;;;;;;;;;;;;-41.657764;-20.756401;18.475143;;1322.2
1497.0;1374.2;;;;;;;;;;;;;;0.75679797;-0.033753473;-0.12903225;;;;;1322.2
1497.0;1375.7;;;;-0.54196554;1.1628724;0.22281268;;;;;;;;;;;;;;;
1497.0;1375.7;;;;-0.53880316;1.1500665;0.2192879;;;;;;;;;;;;;;;
1497.0;1375.7;;;;-0.5357018;1.1370889;0.21531299;;;;;;;;;;;;;;;
1497.0;1375.7;;;;-0.5319596;1.1243135;0.21263507;;;;;;;;;;;;;;;
1497.0;1375.7;;;;-0.52831274;1.1118623;0.2096062;;;;;;;;;;;;;;;
1497.0;1378.8;254035;254171;11514;;;;;;;;;;;;;;;;;;
1497.0;1385.7;;;;-0.5245324;1.1001626;0.2062302;;;;;;;;;;;;;;;
1497.0;1385.7;;;;-0.52151114;1.088646;0.202652;;;;;;;;;;;;;;;
1497.0;1385.7;;;;-0.51881033;1.0772363;0.19980624;;;;;;;;;;;;;;;
1497.0;1385.7;;;;-0.51585776;1.0658113;0.19770816;;;;;;;;;;;;;;;
1497.0;1385.7;;;;-0.5131188;1.0551301;0.19623187;;;;;;;;;;;;;;;
1500.0;1395.7;;;;-0.5111504;1.0443689;0.19490436;;;;;;;;;;;;;;;
1500.0;1395.7;;;;-0.5093842;1.034115;0.19423297;;;;;;;;;;;;;;;
1500.0;1395.7;;;;-0.50744253;1.0232049;0.19363406;;;;;;;;;;;;;;;
1500.0;1395.7;;;;-0.50601584;1.012539;0.19267276;;;;;;;;;;;;;;;
1500.0;1395.7;;;;-0.5048142;1.0010034;0.19221881;;;;;;;;;;;;;;;
1500.0;1399.0;262143;262143;11491;;;;;;;;;;;;;;;;;;
1500.0;1404.9;;;;;;;;;;;;;-1581;;;;;;;;
1500.0;1404.9;;;;;;;;;;;;;-1947;;;;;;;;
1500.0;1404.9;;;;;;;;;;;;;-2487;;;;;;;;
1500.0;1404.9;;;;;;;;;;;;;-2993;;;;;;;;
1500.0;1404.9;;;;;;;;;;;;;-3267;;;;;;;;
1500.0;1405.8;;;;-0.50311285;0.9900018;0.19161227;;;;;;;;;;;;;;;
1500.0;1405.8;;;;-0.50181586;0.97895825;0.19145206;;;;;;;;;;;;;;;
1500.0;1405.8;;;;-0.49957663;0.9679681;0.19079211;;;;;;;;;;;;;;;
1500.0;1405.8;;;;-0.4990006;0.95655453;0.18999484;;;;;;;;;;;;;;;
1500.0;1405.8;;;;-0.49729162;0.94552624;0.19034961;;;;;;;;;;;;;;;
1500.0;1416.0;;;;-0.49517447;0.93489087;0.19053271;;;;;;;;;;;;;;;
1500.0;1416.0;;;;-0.4929505;0.924122;0.19122317;;;;;;;;;;;;;;;
1500.0;1416.0;;;;-0.49131018;0.91440594;0.19142535;;;;;;;;;;;;;;;
1500.0;1416.0;;;;-0.4888764;0.9054681;0.19235232;;;;;;;;;;;;;;;
1500.0;1416.0;;;;-0.4858132;0.89750683;0.19289401;;;;;;;;;;;;;;;
1501.0;1419.5;;;;;;;;;;;;;;;;;-43.0311;-11.631367;18.993958;;1331.9
1501.0;1419.5;;;;;;;;;;;;;;0.7151097;-0.11249123;-0.07434309;;;;;1331.9
1501.0;1419.5;;;;;;;;;;;;;;;;;-38.7051;-5.4780726;20.508438;;1331.9
1501.0;1419.5;;;;;;;;;;;;;;0.6828822;-0.19013031;-0.035950806;;;;;1331.9
1501.0;1419.5;;;;;;;;;;;;;;;;;-31.109806;-5.569628;23.754845;;1341.6
1501.0;1419.5;;;;;;;;;;;;;;0.6618244;-0.2837611;-0.053773616;;;;;1341.6
1501.0;1419.5;;;;;;;;;;;;;;;;;-17.391735;-9.506516;26.764734;;1341.6
1501.0;1419.5;;;;;;;;;;;;;;0.64247566;-0.38288522;-0.12591937;;;;;1341.6
1501.0;1419.5;;;;;;;;;;;;;;;;;-0.96896267;-14.568773;28.710287;;1351.2
1501.0;1419.5;;;;;;;;;;;;;;0.6353343;-0.42530596;-0.19879757;;;;;1351.2
1501.0;1419.5;;;;;;;;;;;;;;;;;14.599292;-24.075289;33.72677;;1351.2
1501.0;1419.5;;;;;;;;;;;;;;0.6468703;-0.4664449;-0.27576524;;;;;1351.2
1501.0;1419.2;262143;262143;11485;;;;;;;;;;;;;;;;;;
1501.0;1425.9;;;;-0.48280722;0.890648;0.19342425;;;;;;;;;;;;;;;
1501.0;1425.9;;;;-0.4789887;0.88489544;0.19417575;;;;;;;;;;;;;;;
1501.0;1425.9;;;;-0.47522742;0.88053143;0.19381717;;;;;;;;;;;;;;;
1501.0;1425.9;;;;-0.47183233;0.87755215;0.19414905;;;;;;;;;;;;;;;
1501.0;1425.9;;;;-0.46839148;0.8755151;0.19300082;;;;;;;;;;;;;;;
1503.0;1434.4;;;;;;;;;;;;;;;;;31.22425;-33.669548;38.48384;;1360.9
1503.0;1434.4;;;;;;;;;;;;;;0.6985687;-0.48963895;-0.30018005;;;;;1360.9
1503.0;1434.4;;;;;;;;;;;;;;;;;48.71517;-38.125248;41.85232;;1360.9
1503.0;1434.4;;;;;;;;;;;;;;0.77010405;-0.4786523;-0.26520586;;;;;1360.9
1503.0;1434.4;;;;;;;;;;;;;;;;;62.9635;-35.11536;44.732502;;1370.6
1503.0;1434.4;;;;;;;;;;;;;;0.83730584;-0.4547258;-0.19354838;;;;;1370.6
1503.0;1434.4;;;;;;;;;;;;;;;;;72.1572;-31.273842;47.50969;;1370.6
1503.0;1434.4;;;;;;;;;;;;;;0.9067049;-0.43110445;-0.12170782;;;;;1370.6
1503.0;1434.4;;;;;;;;;;;;;;;;;74.243904;-28.801844;48.631245;;1380.1
1503.0;1434.4;;;;;;;;;;;;;;0.98171943;-0.37372968;-0.110721156;;;;;1380.1
1503.0;1434.4;;;;;;;;;;;;;;;;;75.258644;-25.50203;49.18058;;1380.1
1503.0;1434.4;;;;;;;;;;;;;;1.0462966;-0.29493088;-0.1474044;;;;;1380.1
1503.0;1435.7;;;;-0.465416;0.87438214;0.19257739;;;;;;;;;;;;;;;
1503.0;1435.7;;;;-0.46202475;0.87485135;0.1927109;;;;;;;;;;;;;;;
1503.0;1435.7;;;;-0.4595452;0.87617886;0.19288257;;;;;;;;;;;;;;;
1503.0;1435.7;;;;-0.45676428;0.87897885;0.19290164;;;;;;;;;;;;;;;
1503.0;1435.7;;;;-0.4532891;0.8826219;0.19218066;;;;;;;;;;;;;;;
1503.0;1439.0;262143;262143;11480;;;;;;;;;;;;;;;;;;
1503.0;1445.0;;;;;;;;;;;;;-3109;;;;;;;;
1503.0;1445.0;;;;;;;;;;;;;-2499;;;;;;;;
1503.0;1445.0;;;;;;;;;;;;;-1674;;;;;;;;
1503.0;1445.0;;;;;;;;;;;;;-900;;;;;;;;
1503.0;1445.0;;;;;;;;;;;;;-461;;;;;;;;
1555.0;1445.7;;;;-0.4496804;0.88715374;0.19093326;;;;;;;;;;;;;;;
1555.0;1445.7;;;;-0.4461556;0.89252865;0.18881992;;;;;;;;;;;;;;;
1555.0;1445.7;;;;-0.4418679;0.898636;0.18648149;;;;;;;;;;;;;;;
1555.0;1445.7;;;;-0.43851095;0.90570843;0.18318559;;;;;;;;;;;;;;;
1555.0;1445.7;;;;-0.4347039;0.9134294;0.18056108;;;;;;;;;;;;;;;
1555.0;1455.5;;;;-0.43096548;0.92211926;0.17699052;;;;;;;;;;;;;;;
1555.0;1455.5;;;;-0.42737204;0.93130887;0.17350389;;;;;;;;;;;;;;;
1555.0;1455.5;;;;-0.42335516;0.9403192;0.17102052;;;;;;;;;;;;;;;
1555.0;1455.5;;;;-0.41989905;0.9499475;0.1679764;;;;;;;;;;;;;;;
1555.0;1455.5;;;;-0.41577536;0.95928967;0.1649666;;;;;;;;;;;;;;;
1555.0;1458.9;262143;262143;11486;;;;;;;;;;;;;;;;;;
1555.0;1465.6;;;;-0.41180426;0.96784604;0.16234209;;;;;;;;;;;;;;;
1555.0;1465.6;;;;-0.40840536;0.97646344;0.15892793;;;;;;;;;;;;;;;
1555.0;1465.6;;;;-0.4044686;0.9842073;0.15533067;;;;;;;;;;;;;;;
1555.0;1465.6;;;;-0.4002419;0.9918443;0.15254213;;;;;;;;;;;;;;;
1555.0;1465.6;;;;-0.39617163;0.99858105;0.14909746;;;;;;;;;;;;;;;
1555.0;1475.8;;;;-0.39229208;1.0044976;0.14539339;;;;;;;;;;;;;;;
1555.0;1475.8;;;;-0.38831717;1.009926;0.1419716;;;;;;;;;;;;;;;
1555.0;1475.8;;;;-0.38445288;1.0145837;0.13808443;;;;;;;;;;;;;;;
1555.0;1475.8;;;;-0.38114554;1.0184633;0.13366319;;;;;;;;;;;;;;;
1555.0;1475.8;;;;-0.37816244;1.0222627;0.12953188;;;;;;;;;;;;;;;
1560.0;1479.5;;;;;;;;;;;;;;;;;75.743126;-19.56618;48.993652;;1389.7
1560.0;1479.5;;;;;;;;;;;;;;1.1026947;-0.19782098;-0.17578661;;;;;1389.7
1560.0;1479.5;;;;;;;;;;;;;;;;;75.8118;-13.4167;47.742393;;1389.7
1560.0;1479.5;;;;;;;;;;;;;;1.1528062;-0.089602344;-0.20178838;;;;;1389.7
1560.0;1479.5;;;;;;;;;;;;;;;;;76.95242;-6.5424056;45.003357;;1399.4
1560.0;1479.5;;;;;;;;;;;;;;1.1918088;0.045289468;-0.20258187;;;;;1399.4
1560.0;1479.5;;;;;;;;;;;;;;;;;76.20472;-0.3929258;42.806026;;1399.4
1560.0;1479.5;;;;;;;;;;;;;;1.2009643;0.19458602;-0.20172735;;;;;1399.4
1560.0;1479.5;;;;;;;;;;;;;;;;;72.96594;3.8377025;43.050175;;1409.0
1560.0;1479.5;;;;;;;;;;;;;;1.1822261;0.2971282;-0.20618305;;;;;1409.0
1560.0;1479.5;;;;;;;;;;;;;;;;;67.92657;5.4971466;43.828396;;1409.0
1560.0;1479.5;;;;;;;;;;;;;;1.1512803;0.34998626;-0.21741386;;;;;1409.0
1560.0;1479.2;262143;262143;11487;;;;;;;;;;;;;;;;;;
1560.0;1485.0;;;;;;;;;;;;;-405;;;;;;;;
1560.0;1485.0;;;;;;;;;;;;;-445;;;;;;;;
1560.0;1485.0;;;;;;;;;;;;;-532;;;;;;;;
1560.0;1485.0;;;;;;;;;;;;;-883;;;;;;;;
1560.0;1485.0;;;;;;;;;;;;;-892;;;;;;;;
1560.0;1485.7;;;;-0.37493518;1.0256234;0.12622072;;;;;;;;;;;;;;;
1560.0;1485.7;;;;-0.37165835;1.0287057;0.12300493;;;;;;;;;;;;;;;
1560.0;1485.7;;;;-0.36879733;1.0313035;0.119785324;;;;;;;;;;;;;;;
1560.0;1485.7;;;;-0.3658562;1.0336686;0.11700441;;;;;;;;;;;;;;;
1560.0;1485.7;;;;-0.3636017;1.0357972;0.11387254;;;;;;;;;;;;;;;
1678.0;1494.5;;;;;;;;;;;;;;;;;61.002686;5.279702;43.06162;;1418.7
1678.0;1494.5;;;;;;;;;;;;;;1.1363262;0.39344463;-0.21839045;;;;;1418.7
1678.0;1494.5;;;;;;;;;;;;;;;;;50.763725;6.8819237;43.057804;;1418.7
1678.0;1494.5;;;;;;;;;;;;;;1.1103854;0.42249826;-0.19995728;;;;;1418.7
1678.0;1494.5;;;;;;;;;;;;;;;;;39.979248;9.773552;43.408768;;1428.3
1678.0;1494.5;;;;;;;;;;;;;;1.056856;0.4334849;-0.16510513;;;;;1428.3
1678.0;1494.5;;;;;;;;;;;;;;;;;29.587696;11.787774;43.462173;;1428.3
1678.0;1494.5;;;;;;;;;;;;;;1.0013733;0.42207098;-0.13922544;;;;;1428.3
1678.0;1494.5;;;;;;;;;;;;;;;;;20.104067;12.623219;44.080173;;1438.0
1678.0;1494.5;;;;;;;;;;;;;;0.9477828;0.3723258;-0.12689596;;;;;1438.0
1678.0;1494.5;;;;;;;;;;;;;;;;;11.932737;12.909329;43.62621;;1438.0
1678.0;1494.5;;;;;;;;;;;;;;0.92446667;0.3427839;-0.12524797;;;;;1438.0
1678.0;1495.6;;;;-0.3617058;1.0374795;0.1109543;;;;;;;;;;;;;;;
1678.0;1495.6;;;;-0.36072543;1.0389825;0.1077614;;;;;;;;;;;;;;;
1678.0;1495.6;;;;-0.3599663;1.040188;0.105037704;;;;;;;;;;;;;;;
1678.0;1495.6;;;;-0.35937503;1.0412446;0.10254671;;;;;;;;;;;;;;;
1678.0;1495.6;;;;-0.35824206;1.0424615;0.09947206;;;;;;;;;;;;;;;
1678.0;1499.1;262143;262143;11491;;;;;;;;;;;;;;;;;;
1678.0;1505.7;;;;-0.3580704;1.0436746;0.096763626;;;;;;;;;;;;;;;
1678.0;1505.7;;;;-0.3581772;1.0451089;0.09288407;;;;;;;;;;;;;;;
1678.0;1505.7;;;;-0.35756305;1.0464021;0.09096528;;;;;;;;;;;;;;;
1678.0;1505.7;;;;-0.35734943;1.0474397;0.08912278;;;;;;;;;;;;;;;
1678.0;1505.7;;;;-0.35825732;1.0489732;0.08725358;;;;;;;;;;;;;;;
1683.0;1515.8;;;;-0.35899356;1.050377;0.085285194;;;;;;;;;;;;;;;
1683.0;1515.8;;;;-0.3598328;1.0513536;0.083889015;;;;;;;;;;;;;;;
1683.0;1515.8;;;;-0.36151126;1.0518953;0.08212281;;;;;;;;;;;;;;;
1683.0;1515.8;;;;-0.36283115;1.0524598;0.080543526;;;;;;;;;;;;;;;
1683.0;1515.8;;;;-0.36314395;1.0535318;0.078990944;;;;;;;;;;;;;;;
1683.0;1519.3;262143;262143;11497;;;;;;;;;;;;;;;;;;
1683.0;1525.3;;;;;;;;;;;;;511;;;;;;;;
1683.0;1525.3;;;;;;;;;;;;;1028;;;;;;;;
1683.0;1525.3;;;;;;;;;;;;;-4820;;;;;;;;
1683.0;1525.3;;;;;;;;;;;;;-15960;;;;;;;;
1683.0;1525.3;;;;;;;;;;;;;-21413;;;;;;;;
1683.0;1525.9;;;;-0.36469272;1.0544931;0.07689286;;;;;;;;;;;;;;;
1683.0;1525.9;;;;-0.36573032;1.0553018;0.07453919;;;;;;;;;;;;;;;
1683.0;1525.9;;;;-0.3662949;1.0557519;0.07361985;;;;;;;;;;;;;;;
1683.0;1525.9;;;;-0.36802676;1.0566522;0.07172013;;;;;;;;;;;;;;;
1683.0;1525.9;;;;-0.36883166;1.0577546;0.06968308;;;;;;;;;;;;;;;
1683.0;1536.0;;;;-0.36972812;1.0592729;0.06646348;;;;;;;;;;;;;;;
1683.0;1536.0;;;;-0.37069705;1.0611459;0.063587196;;;;;;;;;;;;;;;
1683.0;1536.0;;;;-0.37126926;1.0627595;0.06126023;;;;;;;;;;;;;;;
1683.0;1536.0;;;;-0.37237933;1.0648919;0.058673866;;;;;;;;;;;;;;;
1683.0;1536.0;;;;-0.37384036;1.0679322;0.055747993;;;;;;;;;;;;;;;
1684.0;1539.9;;;;;;;;;;;;;;;;;5.771813;14.313181;43.71395;;1447.7
1684.0;1539.9;;;;;;;;;;;;;;0.88534194;0.28449354;-0.12079226;;;;;1447.7
1684.0;1539.9;;;;;;;;;;;;;;;;;1.5717032;14.622181;43.62621;;1447.7
1684.0;1539.9;;;;;;;;;;;;;;0.8622089;0.22638631;-0.1340373;;;;;1447.7
1684.0;1539.9;;;;;;;;;;;;;;;;;-0.59129614;13.985106;43.557545;;1457.0
1684.0;1539.9;;;;;;;;;;;;;;0.8504898;0.15546128;-0.15497299;;;;;1457.0
1684.0;1539.9;;;;;;;;;;;;;;;;;-1.5602587;13.019959;42.558064;;1457.0
1684.0;1539.9;;;;;;;;;;;;;;0.87313455;0.10449538;-0.17682424;;;;;1457.0
1684.0;1539.9;;;;;;;;;;;;;;;;;-1.9188513;12.18833;42.538986;;1466.7
1684.0;1539.9;;;;;;;;;;;;;;0.88698995;0.028626362;-0.20923491;;;;;1466.7
1684.0;1539.9;;;;;;;;;;;;;;;;;-1.4648885;12.405774;42.55425;;1466.7
1684.0;1539.9;;;;;;;;;;;;;;0.88320565;-0.03662221;-0.2369457;;;;;1466.7
1684.0;1539.6;262143;262143;11501;;;;;;;;;;;;;;;;;;
1684.0;1546.0;;;;-0.37535483;1.0708352;0.053005226;;;;;;;;;;;;;;;
1684.0;1546.0;;;;-0.3775826;1.0735589;0.049537666;;;;;;;;;;;;;;;
1684.0;1546.0;;;;-0.3799706;1.0757982;0.047725685;;;;;;;;;;;;;;;
1684.0;1546.0;;;;-0.38211447;1.078087;0.04476929;;;;;;;;;;;;;;;
1684.0;1546.0;;;;-0.38491064;1.0800325;0.04144669;;;;;;;;;;;;;;;
1686.0;1555.3;;;;;;;;;;;;;;;;;-0.17166662;12.024293;42.409283;;1476.3
1686.0;1555.3;;;;;;;;;;;;;;0.87240213;-0.08636738;-0.2614826;;;;;1476.3
1686.0;1555.3;;;;;;;;;;;;;;;;;1.7853328;10.177923;42.92047;;1476.3
1686.0;1555.3;;;;;;;;;;;;;;0.8559221;-0.1267739;-0.2800989;;;;;1476.3
1686.0;1555.3;;;;;;;;;;;;;;;;;3.8186285;7.0497756;43.72921;;1486.0
1686.0;1555.3;;;;;;;;;;;;;;0.8468276;-0.15637684;-0.3090304;;;;;1486.0
1686.0;1555.3;;;;;;;;;;;;;;;;;6.000702;4.791406;45.167393;;1486.0
1686.0;1555.3;;;;;;;;;;;;;;0.83913696;-0.18726158;-0.3223365;;;;;1486.0
1686.0;1555.3;;;;;;;;;;;;;;;;;8.404035;2.967925;46.124912;;1495.6
1686.0;1555.3;;;;;;;;;;;;;;0.83492535;-0.19696645;-0.32471696;;;;;1495.6
1686.0;1555.3;;;;;;;;;;;;;;;;;9.926145;0.50737023;46.174503;;1495.6
1686.0;1555.3;;;;;;;;;;;;;;0.8523209;-0.1726127;-0.3324076;;;;;1495.6
1686.0;1555.9;;;;-0.38729864;1.0817567;0.038623814;;;;;;;;;;;;;;;
1686.0;1555.9;;;;-0.39044577;1.0830957;0.035831455;;;;;;;;;;;;;;;
1686.0;1555.9;;;;-0.39264685;1.0842859;0.033370975;;;;;;;;;;;;;;;
1686.0;1555.9;;;;-0.3943482;1.0847512;0.032283787;;;;;;;;;;;;;;;
1686.0;1555.9;;;;-0.3955155;1.0847093;0.029895786;;;;;;;;;;;;;;;
1686.0;1559.5;262143;262143;11512;;;;;;;;;;;;;;;;;;
1686.0;1565.4;;;;;;;;;;;;;-12987;;;;;;;;
1686.0;1565.4;;;;;;;;;;;;;3100;;;;;;;;
1686.0;1565.4;;;;;;;;;;;;;12755;;;;;;;;
1686.0;1565.4;;;;;;;;;;;;;10564;;;;;;;;
1686.0;1565.4;;;;;;;;;;;;;3637;;;;;;;;
1687.0;1566.0;;;;-0.39639288;1.0849;0.028053287;;;;;;;;;;;;;;;
1687.0;1566.0;;;;-0.3959847;1.0840875;0.026577;;;;;;;;;;;;;;;
1687.0;1566.0;;;;-0.39431006;1.0832711;0.0249939;;;;;;;;;;;;;;;
1687.0;1566.0;;;;-0.39313895;1.082348;0.024528507;;;;;;;;;;;;;;;
1687.0;1566.0;;;;-0.39238364;1.0804063;0.02314377;;;;;;;;;;;;;;;
1687.0;1576.0;;;;-0.39196402;1.0781175;0.022224428;;;;;;;;;;;;;;;
1687.0;1576.0;;;;-0.39069372;1.0761148;0.022918703;;;;;;;;;;;;;;;
1687.0;1576.0;;;;-0.38981253;1.0741464;0.023509983;;;;;;;;;;;;;;;
1687.0;1576.0;;;;-0.38865668;1.0725404;0.02362061;;;;;;;;;;;;;;;
1687.0;1576.0;;;;-0.38756567;1.0712434;0.023841862;;;;;;;;;;;;;;;
1687.0;1579.7;262143;262143;11510;;;;;;;;;;;;;;;;;;
1687.0;1586.1;;;;-0.38696676;1.0695115;0.023319246;;;;;;;;;;;;;;;
1687.0;1586.1;;;;-0.3865853;1.0682069;0.022060396;;;;;;;;;;;;;;;
1687.0;1586.1;;;;-0.38730627;1.06699;0.020629885;;;;;;;;;;;;;;;
1687.0;1586.1;;;;-0.38787466;1.0648652;0.01974106;;;;;;;;;;;;;;;
1687.0;1586.1;;;;-0.38846594;1.062996;0.019191744;;;;;;;;;;;;;;;
1687.0;1596.2;;;;-0.38932043;1.061123;0.01760483;;;;;;;;;;;;;;;
1687.0;1596.2;;;;-0.3916245;1.0586892;0.015346529;;;;;;;;;;;;;;;
1687.0;1596.2;;;;-0.3933602;1.0555154;0.012790682;;;;;;;;;;;;;;;
1687.0;1596.2;;;;-0.39611822;1.0523225;0.009918214;;;;;;;;;;;;;;;
1687.0;1596.2;;;;-0.39848715;1.0484201;0.008277894;;;;;;;;;;;;;;;
1688.0;1600.2;;;;;;;;;;;;;;;;;10.891294;-1.7090366;47.471542;;1505.2
1688.0;1600.2;;;;;;;;;;;;;;0.8650777;-0.16766869;-0.3361919;;;;;1505.2
1688.0;1600.2;;;;;;;;;;;;;;;;;11.1507;-2.6703696;48.242134;;1505.2
1688.0;1600.2;;;;;;;;;;;;;;0.8845485;-0.13824885;-0.32782984;;;;;1505.2
1688.0;1600.2;;;;;;;;;;;;;;;;;10.395368;-2.3918884;48.39091;;1514.9
1688.0;1600.2;;;;;;;;;;;;;;0.9059725;-0.10846278;-0.31446272;;;;;1514.9
1688.0;1600.2;;;;;;;;;;;;;;;;;9.712516;-1.2817774;47.910244;;1514.9
1688.0;1600.2;;;;;;;;;;;;;;0.9226966;-0.06329539;-0.301706;;;;;1514.9
1688.0;1600.2;;;;;;;;;;;;;;;;;9.1975155;0.7057405;47.315136;;1524.5
1688.0;1600.2;;;;;;;;;;;;;;0.9360637;-0.011902219;-0.2806482;;;;;1524.5
1688.0;1600.2;;;;;;;;;;;;;;;;;8.816034;2.0752587;47.15491;;1524.5
1688.0;1600.2;;;;;;;;;;;;;;0.9424116;0.023438215;-0.26886806;;;;;1524.5
1688.0;1599.9;262143;262143;11505;;;;;;;;;;;;;;;;;;
1688.0;1605.7;;;;;;;;;;;;;-10;;;;;;;;
1688.0;1605.7;;;;;;;;;;;;;-22;;;;;;;;
1688.0;1605.7;;;;;;;;;;;;;283;;;;;;;;
1688.0;1605.7;;;;;;;;;;;;;23;;;;;;;;
1688.0;1605.7;;;;;;;;;;;;;-307;;;;;;;;
1688.0;1606.2;;;;-0.40061575;1.043831;0.0051651006;;;;;;;;;;;;;;;
1688.0;1606.2;;;;-0.40267187;1.0388833;0.0019607546;;;;;;;;;;;;;;;
1688.0;1606.2;;;;-0.40355688;1.0337487;-0.0014305116;;;;;;;;;;;;;;;
1688.0;1606.2;;;;-0.4044152;1.0274011;-0.005020142;;;;;;;;;;;;;;;
1688.0;1606.2;;;;-0.40489203;1.0213548;-0.008205415;;;;;;;;;;;;;;;
1739.0;1615.2;;;;;;;;;;;;;;;;;9.136478;3.360851;46.81921;;1534.2
1739.0;1615.2;;;;;;;;;;;;;;0.93923765;0.05877865;-0.2582476;;;;;1534.2
1739.0;1615.2;;;;;;;;;;;;;;;;;9.659109;3.8796656;46.185947;;1534.2
1739.0;1615.2;;;;;;;;;;;;;;0.934843;0.09363079;-0.24939726;;;;;1534.2
1739.0;1615.2;;;;;;;;;;;;;;;;;7.9081087;4.291665;45.613728;;1543.8
1739.0;1615.2;;;;;;;;;;;;;;0.9349651;0.113956116;-0.24353771;;;;;1543.8
1739.0;1615.2;;;;;;;;;;;;;;;;;4.5510726;5.726035;44.820244;;1543.8
1739.0;1615.2;;;;;;;;;;;;;;0.9281289;0.14404736;-0.2372509;;;;;1543.8
1739.0;1615.2;;;;;;;;;;;;;;;;;2.5864437;6.2105165;45.19791;;1553.5
1739.0;1615.2;;;;;;;;;;;;;;0.91549426;0.12781152;-0.23352763;;;;;1553.5
1739.0;1615.2;;;;;;;;;;;;;;;;;2.0790737;5.1881466;45.08728;;1553.5
1739.0;1615.2;;;;;;;;;;;;;;0.9114658;0.12024293;-0.23688467;;;;;1553.5
1739.0;1616.1;;;;-0.40515524;1.0147096;-0.011646272;;;;;;;;;;;;;;;
1739.0;1616.1;;;;-0.4046746;1.0074769;-0.014900209;;;;;;;;;;;;;;;
1739.0;1616.1;;;;-0.40389258;1.0006028;-0.018444063;;;;;;;;;;;;;;;
1739.0;1616.1;;;;-0.40276343;0.9935838;-0.021850588;;;;;;;;;;;;;;;
1739.0;1616.1;;;;-0.40256506;0.98669064;-0.02568436;;;;;;;;;;;;;;;
1739.0;1619.9;262143;262143;11511;;;;;;;;;;;;;;;;;;
1739.0;1626.2;;;;-0.4007836;0.97901547;-0.028053287;;;;;;;;;;;;;;;
1739.0;1626.2;;;;-0.39952093;0.9713594;-0.03047562;;;;;;;;;;;;;;;
1739.0;1626.2;;;;-0.39648443;0.96343625;-0.031940464;;;;;;;;;;;;;;;
1739.0;1626.2;;;;-0.39441305;0.955948;-0.03374863;;;;;;;;;;;;;;;
1739.0;1626.2;;;;-0.3924523;0.94838727;-0.036090855;;;;;;;;;;;;;;;
1741.0;1635.9;;;;-0.39026648;0.9403764;-0.03696442;;;;;;;;;;;;;;;
1741.0;1635.9;;;;-0.38903815;0.93298733;-0.03796387;;;;;;;;;;;;;;;
1741.0;1635.9;;;;-0.38776022;0.92489254;-0.037960056;;;;;;;;;;;;;;;
1741.0;1635.9;;;;-0.38673025;0.91692364;-0.03770447;;;;;;;;;;;;;;;
1741.0;1635.9;;;;-0.38558584;0.90908825;-0.038421635;;;;;;;;;;;;;;;
1741.0;1639.7;262143;262143;11507;;;;;;;;;;;;;;;;;;
1741.0;1645.6;;;;;;;;;;;;;-666;;;;;;;;
1741.0;1645.6;;;;;;;;;;;;;-891;;;;;;;;
1741.0;1645.6;;;;;;;;;;;;;-1012;;;;;;;;
1741.0;1645.6;;;;;;;;;;;;;-1127;;;;;;;;
1741.0;1645.6;;;;;;;;;;;;;-1287;;;;;;;;
1741.0;1646.0;;;;-0.38502508;0.90123;-0.038890842;;;;;;;;;;;;;;;
1741.0;1646.0;;;;-0.3845368;0.89356244;-0.038177494;;;;;;;;;;;;;;;
1741.0;1646.0;;;;-0.38402945;0.88639843;-0.03752518;;;;;;;;;;;;;;;
1741.0;1646.0;;;;-0.38416678;0.87939084;-0.036994938;;;;;;;;;;;;;;;
1741.0;1646.0;;;;-0.3849755;0.8731996;-0.036083225;;;;;;;;;;;;;;;
1741.0;1656.1;;;;-0.38550955;0.86737835;-0.035018925;;;;;;;;;;;;;;;
1741.0;1656.1;;;;-0.3863564;0.8625833;-0.033412937;;;;;;;;;;;;;;;
1741.0;1656.1;;;;-0.38663107;0.857731;-0.032241825;;;;;;;;;;;;;;;
1741.0;1656.1;;;;-0.3872872;0.85325634;-0.030582432;;;;;;;;;;;;;;;
1741.0;1656.1;;;;-0.38750464;0.84921277;-0.029018406;;;;;;;;;;;;;;;
1741.0;1660.0;262143;262143;11503;;;;;;;;;;;;;;;;;;
1742.0;1666.2;;;;-0.3881417;0.8458978;-0.027530674;;;;;;;;;;;;;;;
1742.0;1666.2;;;;-0.3900414;0.8430215;-0.02663422;;;;;;;;;;;;;;;
1742.0;1666.2;;;;-0.39190298;0.84064114;-0.025524143;;;;;;;;;;;;;;;
1742.0;1666.2;;;;-0.39368826;0.8385812;-0.023006441;;;;;;;;;;;;;;;
1742.0;1666.2;;;;-0.39508826;0.8367349;-0.02113724;;;;;;;;;;;;;;;
1742.0;1675.4;;;;;;;;;;;;;;;;;2.094333;4.615925;44.423504;;1563.2
1742.0;1675.4;;;;;;;;;;;;;;0.9122593;0.12317271;-0.2446974;;;;;1563.2
1742.0;1675.4;;;;;;;;;;;;;;;;;1.8578143;5.2911468;44.137398;;1563.2
1742.0;1675.4;;;;;;;;;;;;;;0.9063387;0.12237922;-0.23822749;;;;;1563.2
1742.0;1675.4;;;;;;;;;;;;;;;;;1.5602587;5.2339244;44.362465;;1572.8
1742.0;1675.4;;;;;;;;;;;;;;0.9033479;0.11493271;-0.23426008;;;;;1572.8
1742.0;1675.4;;;;;;;;;;;;;;;;;1.0223701;5.176702;44.206062;;1572.8
1742.0;1675.4;;;;;;;;;;;;;;0.911771;0.097048864;-0.23004852;;;;;1572.8
1742.0;1675.4;;;;;;;;;;;;;;;;;0.35477766;5.611591;44.21369;;1582.4
1742.0;1675.4;;;;;;;;;;;;;;0.91848505;0.0740379;-0.23316142;;;;;1582.4
1742.0;1675.4;;;;;;;;;;;;;;;;;-0.5340739;7.477035;43.88562;;1582.4
1742.0;1675.4;;;;;;;;;;;;;;0.91598254;0.055787835;-0.2252266;;;;;1582.4
1742.0;1676.2;;;;-0.39584357;0.8343278;-0.018196108;;;;;;;;;;;;;;;
1742.0;1676.2;;;;-0.39719397;0.832657;-0.016139986;;;;;;;;;;;;;;;
1742.0;1676.2;;;;-0.39722067;0.83148587;-0.013393404;;;;;;;;;;;;;;;
1742.0;1676.2;;;;-0.39714438;0.83016217;-0.011177064;;;;;;;;;;;;;;;
1742.0;1676.2;;;;-0.39713675;0.8291589;-0.01015091;;;;;;;;;;;;;;;
1797.0;1676.5;;;;;;;;;;;;;;;;;-1.7738883;9.083072;43.542286;;1592.0
1797.0;1676.5;;;;;;;;;;;;;;0.9079867;0.045411542;-0.21808527;;;;;1592.0
1797.0;1676.5;;;;;;;;;;;;;;;;;-3.2425916;9.811701;42.996765;;1592.0
1797.0;1676.5;;;;;;;;;;;;;;0.9027375;0.035279397;-0.20587787;;;;;1592.0
1797.0;1676.5;;;;;;;;;;;;;;;;;-4.5968504;9.659109;42.909027;;1601.6
1797.0;1676.5;;;;;;;;;;;;;;0.89327675;0.017883847;-0.20355846;;;;;1601.6
1797.0;1676.5;;;;;;;;;;;;;;;;;-6.214331;8.991516;42.65343;;1601.6
1797.0;1676.5;;;;;;;;;;;;;;0.8832667;0.0046388134;-0.20795313;;;;;1601.6
1797.0;1676.5;;;;;;;;;;;;;;;;;-7.461776;8.426924;42.22999;;1611.2
1797.0;1676.5;;;;;;;;;;;;;;0.87820065;-0.014038514;-0.2029481;;;;;1611.2
1797.0;1676.5;;;;;;;;;;;;;;;;;-8.358257;7.507553;41.74932;;1611.2
1797.0;1676.5;;;;;;;;;;;;;;0.87624747;-0.033143103;-0.20368053;;;;;1611.2
1797.0;1680.0;262143;262143;11499;;;;;;;;;;;;;;;;;;
1797.0;1685.9;;;;;;;;;;;;;-1676;;;;;;;;
1797.0;1685.9;;;;;;;;;;;;;-2395;;;;;;;;
1797.0;1685.9;;;;;;;;;;;;;-3271;;;;;;;;
1797.0;1685.9;;;;;;;;;;;;;-3950;;;;;;;;
1797.0;1685.9;;;;;;;;;;;;;-4405;;;;;;;;
1797.0;1686.1;;;;-0.39739615;0.82831585;-0.009471894;;;;;;;;;;;;;;;
1797.0;1686.1;;;;-0.39807516;0.8275415;-0.008068086;;;;;;;;;;;;;;;
1797.0;1686.1;;;;-0.39867407;0.8265954;-0.0070343027;;;;;;;;;;;;;;;
1797.0;1686.1;;;;-0.39876944;0.82566464;-0.005386353;;;;;;;;;;;;;;;
1797.0;1686.1;;;;-0.39895636;0.8254243;-0.0034980779;;;;;;;;;;;;;;;
1803.0;1696.0;;;;-0.39838415;0.8255006;-0.0021781924;;;;;;;;;;;;;;;
1803.0;1696.0;;;;-0.3983155;0.82548535;-0.0016746523;;;;;;;;;;;;;;;
1803.0;1696.0;;;;-0.39670187;0.82623684;-0.0010490419;;;;;;;;;;;;;;;
1803.0;1696.0;;;;-0.39501196;0.82699215;-3.166199E-4;;;;;;;;;;;;;;;
1803.0;1696.0;;;;-0.39334112;0.8273965;-4.7683722E-4;;;;;;;;;;;;;;;
1803.0;1700.0;262143;262143;11504;;;;;;;;;;;;;;;;;;
1803.0;1706.1;;;;-0.39144903;0.8280755;-7.629395E-5;;;;;;;;;;;;;;;
1803.0;1706.1;;;;-0.38952643;0.8283807;-5.035401E-4;;;;;;;;;;;;;;;
1803.0;1706.1;;;;-0.38728338;0.8291017;-8.0871594E-4;;;;;;;;;;;;;;;
1803.0;1706.1;;;;-0.38496786;0.82956326;-0.0021934512;;;;;;;;;;;;;;;
1803.0;1706.1;;;;-0.3830796;0.82958615;-0.0038719182;;;;;;;;;;;;;;;
1803.0;1716.2;;;;-0.38101202;0.82945263;-0.005210877;;;;;;;;;;;;;;;
1803.0;1716.2;;;;-0.37844473;0.8293954;-0.006767274;;;;;;;;;;;;;;;
1803.0;1716.2;;;;-0.37631613;0.82860196;-0.009220124;;;;;;;;;;;;;;;
1803.0;1716.2;;;;-0.37376025;0.8277284;-0.011486054;;;;;;;;;;;;;;;
1803.0;1716.2;;;;-0.37063602;0.82633984;-0.012886049;;;;;;;;;;;;;;;
1803.0;1720.3;262143;262143;11507;;;;;;;;;;;;;;;;;;
1803.0;1726.1;;;;;;;;;;;;;-4873;;;;;;;;
1803.0;1726.1;;;;;;;;;;;;;-5306;;;;;;;;
1803.0;1726.1;;;;;;;;;;;;;-5403;;;;;;;;
1803.0;1726.1;;;;;;;;;;;;;-5175;;;;;;;;
1803.0;1726.1;;;;;;;;;;;;;-4904;;;;;;;;
1816.0;1726.3;;;;-0.3678551;0.82460415;-0.015213015;;;;;;;;;;;;;;;
1816.0;1726.3;;;;-0.36483386;0.82278836;-0.017833712;;;;;;;;;;;;;;;
1816.0;1726.3;;;;-0.3614159;0.82081616;-0.019790651;;;;;;;;;;;;;;;
1816.0;1726.3;;;;-0.35823062;0.81855786;-0.020912172;;;;;;;;;;;;;;;
1816.0;1726.3;;;;-0.3547707;0.8161088;-0.021621706;;;;;;;;;;;;;;;
1816.0;1736.3;;;;-0.3510094;0.8132707;-0.021823885;;;;;;;;;;;;;;;
1816.0;1736.3;;;;-0.34755328;0.8104135;-0.022727968;;;;;;;;;;;;;;;
1816.0;1736.3;;;;-0.34443668;0.8068658;-0.023258211;;;;;;;;;;;;;;;
1816.0;1736.3;;;;-0.34117892;0.8037263;-0.02308655;;;;;;;;;;;;;;;
1816.0;1736.3;;;;-0.33838657;0.7999841;-0.023498539;;;;;;;;;;;;;;;
1816.0;1736.4;;;;;;;;;;1.5144811;18.490402;-2.6932585;;;;;;;;;
1816.0;1736.4;;;;;;;0.44538713;-0.75539416;0.20679343;;;;;;;;;;;;
1816.0;1736.4;;;;;;;;;;6.416517;30.983917;8.003479;;;;;;;;;
1816.0;1736.4;;;;;;;0.49732962;-0.8499405;0.23541978;;;;;;;;;;;;
1816.0;1740.4;262143;262143;11508;;;;;;;;;;;;;;;;;;
1816.0;1746.0;;;;;;;;;;-2.746666;2.4033327;6.2334056;;;;;;;;;
1816.0;1746.0;;;;;;;0.49159214;-0.85262614;0.2379223;;;;;;;;;;;;
1816.0;1746.0;;;;;;;;;;3.1434064;9.857478;9.163182;;;;;;;;;
1816.0;1746.0;;;;;;;0.48609883;-0.8544572;0.23493148;;;;;;;;;;;;
1855.0;1746.4;;;;-0.3351021;0.7958299;-0.022895815;;;;;;;;;;;;;;;
1855.0;1746.4;;;;-0.33216098;0.7916604;-0.021587374;;;;;;;;;;;;;;;
1855.0;1746.4;;;;-0.32954028;0.78691494;-0.020042421;;;;;;;;;;;;;;;
1855.0;1746.4;;;;-0.32709888;0.7822648;-0.019039156;;;;;;;;;;;;;;;
1855.0;1746.4;;;;-0.32455066;0.77742016;-0.018718721;;;;;;;;;;;;;;;
1855.0;1755.4;;;;;;;;;;1.5678884;5.672628;9.994812;;;;;;;;;
1855.0;1755.4;;;;;;;0.47596666;-0.8539079;0.22827846;;;;;;;;;;;;
1855.0;1755.4;;;;;;;;;;-5.611591;-34.508804;-10.410626;;;;;;;;;
1855.0;1755.4;;;;;;;0.4687643;-0.8544572;0.22278512;;;;;;;;;;;;
1855.0;1756.2;;;;-0.32310107;0.7727548;-0.018280031;;;;;;;;;;;;;;;
1855.0;1756.2;;;;-0.3215485;0.7680093;-0.016944887;;;;;;;;;;;;;;;
1855.0;1756.2;;;;-0.31985095;0.7637216;-0.015243532;;;;;;;;;;;;;;;
1855.0;1756.2;;;;-0.31855014;0.7596704;-0.014347078;;;;;;;;;;;;;;;
1855.0;1756.2;;;;-0.31702808;0.7549287;-0.013271334;;;;;;;;;;;;;;;
1855.0;1760.4;262143;262143;11508;;;;;;;;;;;;;;;;;;
1855.0;1765.0;;;;;;;;;;-7.7898498;-38.94925;-11.051516;;;;;;;;;
1855.0;1765.0;;;;;;;0.46095157;-0.8545793;0.22089297;;;;;;;;;;;;
1855.0;1765.0;;;;;;;;;;-9.975738;-42.44362;-11.909848;;;;;;;;;
1855.0;1765.0;;;;;;;0.46143988;-0.8522599;0.22070986;;;;;;;;;;;;
1855.0;1766.2;;;;;;;;;;;;;-4636;;;;;;;;
1855.0;1766.2;;;;;;;;;;;;;-4158;;;;;;;;
1855.0;1766.2;;;;;;;;;;;;;-3293;;;;;;;;
1855.0;1766.2;;;;;;;;;;;;;-2049;;;;;;;;
1855.0;1766.2;;;;;;;;;;;;;-713;;;;;;;;
1859.0;1766.3;;;;-0.31539539;0.7507707;-0.012344362;;;;;;;;;;;;;;;
1859.0;1766.3;;;;-0.31338504;0.7471886;-0.010765077;;;;;;;;;;;;;;;
1859.0;1766.3;;;;-0.31145862;0.74363333;-0.009349824;;;;;;;;;;;;;;;
1859.0;1766.3;;;;-0.31077197;0.7400208;-0.007774354;;;;;;;;;;;;;;;
1859.0;1766.3;;;;-0.3091927;0.7371064;-0.0051918034;;;;;;;;;;;;;;;
1859.0;1774.6;;;;;;;;;;-12.428662;-36.97699;-7.2405167;;;;;;;;;
1859.0;1774.6;;;;;;;0.46156195;-0.8545793;0.22394483;;;;;;;;;;;;
1859.0;1774.6;;;;;;;;;;-13.70281;-27.699362;-1.5144811;;;;;;;;;
1859.0;1774.6;;;;;;;0.4634541;-0.85976744;0.22815637;;;;;;;;;;;;
1859.0;1776.4;;;;-0.30824664;0.7350083;-0.0028800967;;;;;;;;;;;;;;;
1859.0;1776.4;;;;-0.3071213;0.7329789;-2.8991702E-4;;;;;;;;;;;;;;;
1859.0;1776.4;;;;-0.305275;0.73120886;0.002082825;;;;;;;;;;;;;;;
1859.0;1776.4;;;;-0.3044739;0.72983557;0.004089356;;;;;;;;;;;;;;;
1859.0;1776.4;;;;-0.3036156;0.7289544;0.006214143;;;;;;;;;;;;;;;
1860.0;1780.8;;;;;;;;;;;;;;;;;-8.320109;6.65685;41.322063;;1620.8
1860.0;1780.8;;;;;;;;;;;;;;0.8827784;-0.034669027;-0.20880765;;;;;1620.8
1860.0;1780.8;;;;;;;;;;;;;;;;;-7.621998;6.7560353;41.119877;;1620.8
1860.0;1780.8;;;;;;;;;;;;;;0.8827174;-0.022339549;-0.21222572;;;;;1620.8
1860.0;1780.8;;;;;;;;;;;;;;;;;-6.778924;6.7979984;41.238136;;1630.3
1860.0;1780.8;;;;;;;;;;;;;;0.87887204;-0.048402358;-0.21393475;;;;;1630.3
1860.0;1780.8;;;;;;;;;;;;;;;;;-5.3216653;5.1538134;41.69973;;1630.3
1860.0;1780.8;;;;;;;;;;;;;;0.88503677;-0.04260384;-0.21326335;;;;;1630.3
1860.0;1780.8;;;;;;;;;;;;;;;;;-4.5396285;4.482406;41.65395;;1639.9
1860.0;1780.8;;;;;;;;;;;;;;0.88662374;-0.030945769;-0.2186346;;;;;1639.9
1860.0;1780.8;;;;;;;;;;;;;;;;;-2.9602954;4.314554;42.863247;;1639.9
1860.0;1780.8;;;;;;;;;;;;;;0.88021487;-0.052491836;-0.2042909;;;;;1639.9
1860.0;1780.6;262143;262143;11505;;;;;;;;;;;;;;;;;;
1866.0;1781.6;;;;;;;;;;;;;;;;;-1.678518;2.6322215;44.034397;;1649.6
1866.0;1781.6;;;;;;;;;;;;;;0.89474165;-0.084231086;-0.20441298;;;;;1649.6
1866.0;1781.6;;;;;;;;;;;;;;;;;-0.99185157;1.9608142;44.442577;;1649.6
1866.0;1781.6;;;;;;;;;;;;;;0.91946167;-0.082583085;-0.1976989;;;;;1649.6
1866.0;1781.6;;;;;;;;;;;;;;;;;-0.8659627;2.948851;44.999542;;1659.2
1866.0;1781.6;;;;;;;;;;;;;;0.93581957;-0.06915494;-0.19641712;;;;;1659.2
1866.0;1781.6;;;;;;;;;;;;;;;;;-0.6828517;3.9902954;45.857876;;1659.2
1866.0;1781.6;;;;;;;;;;;;;;0.93777275;-0.07043672;-0.19647816;;;;;1659.2
1866.0;1781.6;;;;;;;;;;;;;;;;;0.110629596;4.2191844;46.6628;;1668.8
1866.0;1781.6;;;;;;;;;;;;;;0.9402142;-0.06616413;-0.20624408;;;;;1668.8
1866.0;1781.6;;;;;;;;;;;;;;;;;1.3389996;4.570147;47.5898;;1668.8
1866.0;1781.6;;;;;;;;;;;;;;0.94515824;-0.08520768;-0.20447402;;;;;1668.8
1866.0;1782.3;;;;;;;;;;;;;;;;;3.3761103;5.218665;47.84921;;1678.5
1866.0;1782.3;;;;;;;;;;;;;;0.948149;-0.10858486;-0.2074038;;;;;1678.5
1866.0;1782.3;;;;;;;;;;;;;;;;;5.6382947;6.859035;47.505875;;1678.5
1866.0;1782.3;;;;;;;;;;;;;;0.94717246;-0.09363079;-0.19898069;;;;;1678.5
1866.0;1782.3;;;;;;;;;;;;;;;;;6.7560353;8.068331;47.06336;;1688.1
1866.0;1782.3;;;;;;;;;;;;;;0.94735557;-0.074892424;-0.19403668;;;;;1688.1
1866.0;1782.3;;;;;;;;;;;;;;;;;7.4694057;7.78222;47.025208;;1688.1
1866.0;1782.3;;;;;;;;;;;;;;0.9494308;-0.06915494;-0.1937315;;;;;1688.1
1866.0;1782.3;;;;;;;;;;;;;;;;;6.939146;7.1718497;46.61321;;1697.8
1866.0;1782.3;;;;;;;;;;;;;;0.95974606;-0.06414991;-0.2021546;;;;;1697.8
1866.0;1782.3;;;;;;;;;;;;;;;;;6.088443;8.484145;46.189762;;1697.8
1866.0;1782.3;;;;;;;;;;;;;;0.9617603;-0.032715842;-0.19415876;;;;;1697.8
1870.0;1784.0;;;;;;;;;;-14.137699;-26.142918;-2.1172216;;;;;;;;;
1870.0;1784.0;;;;;;;0.4644307;-0.86538285;0.23218483;;;;;;;;;;;;
1870.0;1784.0;;;;;;;;;;-14.522996;-24.548326;-2.5063326;;;;;;;;;
1870.0;1784.0;;;;;;;0.4667501;-0.8726463;0.23731193;;;;;;;;;;;;
1870.0;1786.3;;;;-0.30315402;0.7281762;0.008235932;;;;;;;;;;;;;;;
1870.0;1786.3;;;;-0.30316547;0.7278176;0.010154725;;;;;;;;;;;;;;;
1870.0;1786.3;;;;-0.30359653;0.72738653;0.01187134;;;;;;;;;;;;;;;
1870.0;1786.3;;;;-0.30440524;0.72796637;0.014099123;;;;;;;;;;;;;;;
1870.0;1786.3;;;;-0.30552676;0.7290078;0.0153274555;;;;;;;;;;;;;;;
1870.0;1793.6;;;;;;;;;;-14.900662;-22.854548;-2.6932585;;;;;;;;;
1870.0;1793.6;;;;;;;0.4702292;-0.8800928;0.24457534;;;;;;;;;;;;
1870.0;1793.6;;;;;;;;;;-15.289773;-21.267586;-2.723777;;;;;;;;;
1870.0;1793.6;;;;;;;0.47175512;-0.88882107;0.25287637;;;;;;;;;;;;
1870.0;1796.3;;;;-0.30661777;0.7299424;0.01696396;;;;;;;;;;;;;;;
1870.0;1796.3;;;;-0.30788806;0.7319451;0.019130709;;;;;;;;;;;;;;;
1870.0;1796.3;;;;-0.30913547;0.7342263;0.020729067;;;;;;;;;;;;;;;
1870.0;1796.3;;;;-0.3096619;0.7375832;0.02220154;;;;;;;;;;;;;;;
1870.0;1796.3;;;;-0.3104935;0.7416344;0.023212435;;;;;;;;;;;;;;;
1870.0;1800.5;262143;262143;11504;;;;;;;;;;;;;;;;;;
1870.0;1803.1;;;;;;;;;;-15.507217;-19.619585;-2.7695546;;;;;;;;;
1870.0;1803.1;;;;;;;0.4760277;-0.89785457;0.2616657;;;;;;;;;;;;
1870.0;1803.1;;;;;;;;;;-15.64455;-18.055513;-2.8572955;;;;;;;;;
1870.0;1803.1;;;;;;;0.47724846;-0.9071932;0.2699057;;;;;;;;;;;;
1918.0;1806.3;;;;;;;;;;;;;382;;;;;;;;
1918.0;1806.3;;;;;;;;;;;;;1033;;;;;;;;
1918.0;1806.3;;;;;;;;;;;;;1223;;;;;;;;
1918.0;1806.3;;;;;;;;;;;;;1139;;;;;;;;
1918.0;1806.3;;;;;;;;;;;;;1039;;;;;;;;
1918.0;1806.4;;;;-0.31106952;0.74568564;0.024959568;;;;;;;;;;;;;;;
1918.0;1806.4;;;;-0.31152728;0.7499886;0.026031498;;;;;;;;;;;;;;;
1918.0;1806.4;;;;-0.31211093;0.75463116;0.026752476;;;;;;;;;;;;;;;
1918.0;1806.4;;;;-0.31284717;0.75901425;0.027099613;;;;;;;;;;;;;;;
1918.0;1806.4;;;;-0.31306842;0.7630273;0.028400425;;;;;;;;;;;;;;;
1918.0;1812.4;;;;;;;;;;-15.812403;-16.659292;-2.9183326;;;;;;;;;
1918.0;1812.4;;;;;;;0.47853023;-0.9164098;0.27423933;;;;;;;;;;;;
1918.0;1812.4;;;;;;;;;;-15.957365;-15.24781;-3.0289621;;;;;;;;;
1918.0;1812.4;;;;;;;0.47663808;-0.9250771;0.27826777;;;;;;;;;;;;
1918.0;1816.2;;;;-0.313427;0.7668725;0.029319767;;;;;;;;;;;;;;;
1918.0;1816.2;;;;-0.3134003;0.7703439;0.029865269;;;;;;;;;;;;;;;
1918.0;1816.2;;;;-0.31307986;0.7730676;0.030883793;;;;;;;;;;;;;;;
1918.0;1816.2;;;;-0.31226352;0.7753869;0.031608585;;;;;;;;;;;;;;;
1918.0;1816.2;;;;-0.31115344;0.77713406;0.03223038;;;;;;;;;;;;;;;
1918.0;1820.5;262143;262143;11503;;;;;;;;;;;;;;;;;;
1918.0;1822.1;;;;;;;;;;-15.926847;-13.794366;-3.154851;;;;;;;;;
1918.0;1822.1;;;;;;;0.47895747;-0.9346599;0.28040406;;;;;;;;;;;;
1918.0;1822.1;;;;;;;;;;-15.903959;-12.535478;-3.3951843;;;;;;;;;
1918.0;1822.1;;;;;;;0.47724846;-0.9427168;0.28437147;;;;;;;;;;;;
1920.0;1826.3;;;;-0.31105426;0.7784997;0.033718113;;;;;;;;;;;;;;;
1920.0;1826.3;;;;-0.31016544;0.77993405;0.035198215;;;;;;;;;;;;;;;
1920.0;1826.3;;;;-0.30907443;0.7811357;0.03654099;;;;;;;;;;;;;;;
1920.0;1826.3;;;;-0.30811694;0.7824594;0.038066868;;;;;;;;;;;;;;;
1920.0;1826.3;;;;-0.30662158;0.78387463;0.039348606;;;;;;;;;;;;;;;
1920.0;1831.7;;;;;;;;;;-15.812403;-11.345256;-3.5897398;;;;;;;;;
1920.0;1831.7;;;;;;;0.473159;-0.9486984;0.28418836;;;;;;;;;;;;
1920.0;1831.7;;;;;;;;;;-15.820032;-10.212256;-3.807184;;;;;;;;;
1920.0;1831.7;;;;;;;0.46882534;-0.9528489;0.2865688;;;;;;;;;;;;
1920.0;1836.4;;;;-0.30455783;0.7852975;0.040493015;;;;;;;;;;;;;;;
1920.0;1836.4;;;;-0.30204776;0.78704846;0.040912632;;;;;;;;;;;;;;;
1920.0;1836.4;;;;-0.298996;0.78935635;0.041118626;;;;;;;;;;;;;;;
1920.0;1836.4;;;;-0.29541782;0.7916032;0.03974152;;;;;;;;;;;;;;;
1920.0;1836.4;;;;-0.2917824;0.7939836;0.038478855;;;;;;;;;;;;;;;
1923.0;1840.9;;;;;;;;;;;;;;;;;5.054628;10.44496;46.048615;;1707.5
1923.0;1840.9;;;;;;;;;;;;;;0.9561449;-0.045167394;-0.18701743;;;;;1707.5
1923.0;1840.9;;;;;;;;;;;;;;;;;5.6955166;11.425366;46.11347;;1707.5
1923.0;1840.9;;;;;;;;;;;;;;0.95687735;-0.047608875;-0.18335521;;;;;1707.5
1923.0;1840.9;;;;;;;;;;;;;;;;;7.328257;13.389997;46.31565;;1717.1
1923.0;1840.9;;;;;;;;;;;;;;0.95144504;-0.0695822;-0.16919462;;;;;1717.1
1923.0;1840.9;;;;;;;;;;;;;;;;;9.762108;15.465255;45.960876;;1717.1
1923.0;1840.9;;;;;;;;;;;;;;0.9454634;-0.041261025;-0.15686513;;;;;1717.1
1923.0;1840.9;;;;;;;;;;;;;;;;;11.368145;17.052216;45.365765;;1726.8
1923.0;1840.9;;;;;;;;;;;;;;0.93099767;-0.038880583;-0.1572924;;;;;1726.8
1923.0;1840.9;;;;;;;;;;;;;;;;;13.168737;17.559587;45.567947;;1726.8
1923.0;1840.9;;;;;;;;;;;;;;0.90896326;-0.045350507;-0.16815698;;;;;1726.8
1923.0;1841.2;;;;;;;;;;-15.75518;-9.23185;-4.078036;;;;;;;;;
1923.0;1841.2;;;;;;;0.4651631;-0.9595019;0.28431043;;;;;;;;;;;;
1923.0;1841.2;;;;;;;;;;-15.686514;-8.430738;-4.4900355;;;;;;;;;
1923.0;1841.2;;;;;;;0.46308786;-0.9670705;0.27991578;;;;;;;;;;;;
1923.0;1840.7;262143;262143;11504;;;;;;;;;;;;;;;;;;
1923.0;1846.4;;;;-0.28824618;0.7968713;0.037651066;;;;;;;;;;;;;;;
1923.0;1846.4;;;;-0.28519824;0.799862;0.037040714;;;;;;;;;;;;;;;
1923.0;1846.4;;;;-0.2819672;0.802971;0.03616715;;;;;;;;;;;;;;;
1923.0;1846.4;;;;-0.27959064;0.80578625;0.03591538;;;;;;;;;;;;;;;
1923.0;1846.4;;;;-0.2769051;0.8083116;0.035240177;;;;;;;;;;;;;;;
1926.0;1846.4;;;;;;;;;;;;;1016;;;;;;;;
1926.0;1846.4;;;;;;;;;;;;;991;;;;;;;;
1926.0;1846.4;;;;;;;;;;;;;942;;;;;;;;
1926.0;1846.4;;;;;;;;;;;;;1000;;;;;;;;
1926.0;1846.4;;;;;;;;;;;;;1265;;;;;;;;
1926.0;1850.8;;;;;;;;;;-15.690329;-7.8356276;-4.951628;;;;;;;;;
1926.0;1850.8;;;;;;;0.46162298;-0.9753105;0.275338;;;;;;;;;;;;
1926.0;1850.8;;;;;;;;;;-15.697958;-7.396924;-5.3827024;;;;;;;;;
1926.0;1850.8;;;;;;;0.45808282;-0.984283;0.26935637;;;;;;;;;;;;
1926.0;1855.8;;;;;;;;;;;;;;;;;16.197699;16.552477;45.682392;;1736.5
1926.0;1855.8;;;;;;;;;;;;;;0.90084535;-0.034363844;-0.17535935;;;;;1736.5
1926.0;1855.8;;;;;;;;;;;;;;;;;17.796106;14.53444;45.049133;;1736.5
1926.0;1855.8;;;;;;;;;;;;;;0.9083529;-0.013428144;-0.20130008;;;;;1736.5
1926.0;1855.8;;;;;;;;;;;;;;;;;19.016848;13.874477;45.121616;;1745.9
1926.0;1855.8;;;;;;;;;;;;;;0.9076815;3.662221E-4;-0.21210364;;;;;1745.9
1926.0;1855.8;;;;;;;;;;;;;;;;;18.902403;12.634663;45.14832;;1745.9
1926.0;1855.8;;;;;;;;;;;;;;0.90896326;0.013550218;-0.23590808;;;;;1745.9
1926.0;1855.8;;;;;;;;;;;;;;;;;18.74218;11.413922;45.781578;;1755.5
1926.0;1855.8;;;;;;;;;;;;;;0.9050569;0.009338664;-0.25067905;;;;;1755.5
1926.0;1855.8;;;;;;;;;;;;;;;;;18.574327;9.735405;45.838802;;1755.5
1926.0;1855.8;;;;;;;;;;;;;;0.9038972;0.024292734;-0.26062807;;;;;1755.5
1929.0;1856.6;;;;;;;;;;;;;;;;;17.891476;8.434553;45.449688;;1765.2
1929.0;1856.6;;;;;;;;;;;;;;0.91219825;0.040406507;-0.27234718;;;;;1765.2
1929.0;1856.6;;;;;;;;;;;;;;;;;17.136143;7.9348125;44.74395;;1765.2
1929.0;1856.6;;;;;;;;;;;;;;0.918363;0.054017764;-0.27314067;;;;;1765.2
1929.0;1856.6;;;;;;;;;;;;;;;;;16.582996;7.2977386;43.874172;;1774.8
1929.0;1856.6;;;;;;;;;;;;;;0.92696923;0.063966796;-0.2715537;;;;;1774.8
1929.0;1856.6;;;;;;;;;;;;;;;;;15.079958;6.4470353;42.676323;;1774.8
1929.0;1856.6;;;;;;;;;;;;;;0.946379;0.063966796;-0.27680287;;;;;1774.8
1929.0;1856.6;;;;;;;;;;;;;;;;;13.695181;7.438887;41.44032;;1784.5
1929.0;1856.6;;;;;;;;;;;;;;0.9496139;0.05365154;-0.27277443;;;;;1784.5
1929.0;1856.6;;;;;;;;;;;;;;;;;13.027589;9.949034;40.120396;;1784.5
1929.0;1856.6;;;;;;;;;;;;;;0.9424116;0.049684133;-0.2674032;;;;;1784.5
1929.0;1856.4;;;;-0.27532962;0.81115353;0.035110477;;;;;;;;;;;;;;;
1929.0;1856.4;;;;-0.27365115;0.81321347;0.036293034;;;;;;;;;;;;;;;
1929.0;1856.4;;;;-0.27240756;0.81546795;0.03714371;;;;;;;;;;;;;;;
1929.0;1856.4;;;;-0.2711487;0.81723034;0.038192753;;;;;;;;;;;;;;;
1929.0;1856.4;;;;-0.27049258;0.81879056;0.040363315;;;;;;;;;;;;;;;
1929.0;1860.2;;;;;;;;;;-15.831476;-7.0726647;-5.83285;;;;;;;;;
1929.0;1860.2;;;;;;;0.45582446;-0.997528;0.26276436;;;;;;;;;;;;
1929.0;1860.2;;;;;;;;;;-15.858181;-6.8933682;-6.3058867;;;;;;;;;
1929.0;1860.2;;;;;;;0.4557024;-1.017304;0.25818658;;;;;;;;;;;;
1929.0;1860.7;262143;262143;11503;;;;;;;;;;;;;;;;;;
1976.0;1866.3;;;;-0.27025226;0.82032406;0.04288483;;;;;;;;;;;;;;;
1976.0;1866.3;;;;-0.27007297;0.8218385;0.045024876;;;;;;;;;;;;;;;
1976.0;1866.3;;;;-0.27086642;0.8240739;0.048561104;;;;;;;;;;;;;;;
1976.0;1866.3;;;;-0.2726021;0.8257257;0.05290986;;;;;;;;;;;;;;;
1976.0;1866.3;;;;-0.27505115;0.8277284;0.057456978;;;;;;;;;;;;;;;
1976.0;1869.7;;;;;;;;;;-15.835291;-6.839961;-6.6301465;;;;;;;;;
1976.0;1869.7;;;;;;;0.45594653;-1.0372021;0.2548906;;;;;;;;;;;;
1976.0;1869.7;;;;;;;;;;-15.95355;-6.6034427;-6.8361464;;;;;;;;;
1976.0;1869.7;;;;;;;0.45893735;-1.0601519;0.25446334;;;;;;;;;;;;
1976.0;1875.9;;;;-0.27785495;0.8302804;0.06215287;;;;;;;;;;;;;;;
1976.0;1875.9;;;;-0.28091052;0.8334657;0.06777955;;;;;;;;;;;;;;;
1976.0;1875.9;;;;-0.28463367;0.8367349;0.07337571;;;;;;;;;;;;;;;
1976.0;1875.9;;;;-0.28825763;0.8411752;0.078659065;;;;;;;;;;;;;;;
1976.0;1875.9;;;;-0.29155734;0.84531415;0.08321763;;;;;;;;;;;;;;;
1976.0;1878.9;;;;;;;;;;-15.957365;-6.1799984;-7.045961;;;;;;;;;
1976.0;1878.9;;;;;;;0.46388134;-1.083285;0.25721;;;;;;;;;;;;
1976.0;1878.9;;;;;;;;;;-15.980255;-5.8061466;-7.1031833;;;;;;;;;
1976.0;1878.9;;;;;;;0.46705526;-1.1072115;0.25818658;;;;;;;;;;;;
1976.0;1880.5;262143;262143;11504;;;;;;;;;;;;;;;;;;
1981.0;1886.1;;;;-0.29527667;0.84990704;0.0875702;;;;;;;;;;;;;;;
1981.0;1886.1;;;;-0.29794696;0.8552667;0.09172059;;;;;;;;;;;;;;;
1981.0;1886.1;;;;-0.30017856;0.8608476;0.0952263;;;;;;;;;;;;;;;
1981.0;1886.1;;;;-0.30207828;0.86599743;0.09801103;;;;;;;;;;;;;;;
1981.0;1886.1;;;;-0.30321124;0.87116253;0.1014557;;;;;;;;;;;;;;;
1981.0;1886.2;;;;;;;;;;;;;1763;;;;;;;;
1981.0;1886.2;;;;;;;;;;;;;2222;;;;;;;;
1981.0;1886.2;;;;;;;;;;;;;2210;;;;;;;;
1981.0;1886.2;;;;;;;;;;;;;1961;;;;;;;;
1981.0;1886.2;;;;;;;;;;;;;1956;;;;;;;;
1981.0;1888.6;;;;;;;;;;-15.972626;-5.371258;-7.0154424;;;;;;;;;
1981.0;1888.6;;;;;;;0.4713889;-1.1281472;0.25647756;;;;;;;;;;;;
1981.0;1888.6;;;;;;;;;;-15.934477;-4.776147;-6.981109;;;;;;;;;
1981.0;1888.6;;;;;;;0.47364727;-1.1440169;0.25617236;;;;;;;;;;;;
1981.0;1896.2;;;;-0.30502704;0.87578976;0.10492326;;;;;;;;;;;;;;;
1981.0;1896.2;;;;-0.3065224;0.87963116;0.10979463;;;;;;;;;;;;;;;
1981.0;1896.2;;;;-0.30821994;0.8833543;0.11476137;;;;;;;;;;;;;;;
1981.0;1896.2;;;;-0.3092499;0.8865167;0.11957933;;;;;;;;;;;;;;;
1981.0;1896.2;;;;-0.31029132;0.88891613;0.1251793;;;;;;;;;;;;;;;
1981.0;1898.2;;;;;;;;;;-15.869625;-4.1047397;-6.8361464;;;;;;;;;
1981.0;1898.2;;;;;;;0.476516;-1.1561022;0.25324258;;;;;;;;;;;;
1981.0;1898.2;;;;;;;;;;-15.823847;-3.3150733;-6.721702;;;;;;;;;
1981.0;1898.2;;;;;;;0.4760277;-1.1622059;0.25074008;;;;;;;;;;;;
1983.0;1900.8;;;;;;;;;;;;;;;;;13.0809965;12.062441;38.659325;;1794.1
1983.0;1900.8;;;;;;;;;;;;;;0.93215734;0.0441908;-0.27430037;;;;;1794.1
1983.0;1900.8;;;;;;;;;;;;;;;;;14.275033;13.63033;37.617878;;1794.1
1983.0;1900.8;;;;;;;;;;;;;;0.91598254;0.04077273;-0.28052613;;;;;1794.1
1983.0;1900.8;;;;;;;;;;;;;;;;;16.10233;13.664663;36.01184;;1803.6
1983.0;1900.8;;;;;;;;;;;;;;0.9089022;0.056764428;-0.29602954;;;;;1803.6
1983.0;1900.8;;;;;;;;;;;;;;;;;17.27729;12.737662;34.550766;;1803.6
1983.0;1900.8;;;;;;;;;;;;;;0.91421247;0.06579791;-0.32319102;;;;;1803.6
1983.0;1900.8;;;;;;;;;;;;;;;;;17.578661;10.708182;32.63573;;1813.2
1983.0;1900.8;;;;;;;;;;;;;;0.93527025;0.06933805;-0.3698233;;;;;1813.2
1983.0;1900.8;;;;;;;;;;;;;;;;;18.673513;8.816034;31.212805;;1813.2
1983.0;1900.8;;;;;;;;;;;;;;0.9439985;0.07477035;-0.40351573;;;;;1813.2
1983.0;1900.6;262143;262143;11487;;;;;;;;;;;;;;;;;;
1986.0;1901.6;;;;;;;;;;;;;;;;;18.818476;6.591998;29.782251;;1822.8
1986.0;1901.6;;;;;;;;;;;;;;0.95919675;0.087343976;-0.42170477;;;;;1822.8
1986.0;1901.6;;;;;;;;;;;;;;;;;17.788475;4.215369;28.435621;;1822.8
1986.0;1901.6;;;;;;;;;;;;;;0.9794;0.09063997;-0.42909023;;;;;1822.8
1986.0;1901.6;;;;;;;;;;;;;;;;;15.751366;2.189703;27.04703;;1832.5
1986.0;1901.6;;;;;;;;;;;;;;0.9912412;0.082461014;-0.41883603;;;;;1832.5
1986.0;1901.6;;;;;;;;;;;;;;;;;13.4891815;1.3885921;25.509659;;1832.5
1986.0;1901.6;;;;;;;;;;;;;;0.99050874;0.06378368;-0.38288522;;;;;1832.5
1986.0;1901.6;;;;;;;;;;;;;;;;;11.387218;0.84688866;23.926512;;1842.1
1986.0;1901.6;;;;;;;;;;;;;;0.9907529;0.05285806;-0.3364971;;;;;1842.1
1986.0;1901.6;;;;;;;;;;;;;;;;;9.548479;0.3624073;21.958069;;1842.1
1986.0;1901.6;;;;;;;;;;;;;;0.9900815;0.04119999;-0.2963347;;;;;1842.1
1986.0;1906.1;;;;-0.3107262;0.89014447;0.13118364;;;;;;;;;;;;;;;
1986.0;1906.1;;;;-0.31093982;0.891533;0.1365471;;;;;;;;;;;;;;;
1986.0;1906.1;;;;-0.31059268;0.8920938;0.14283372;;;;;;;;;;;;;;;
1986.0;1906.1;;;;-0.31056216;0.8920213;0.14761354;;;;;;;;;;;;;;;
1986.0;1906.1;;;;-0.3125725;0.8930856;0.15121843;;;;;;;;;;;;;;;
1986.0;1907.5;;;;;;;;;;-15.888699;-2.399518;-6.6759243;;;;;;;;;
1986.0;1907.5;;;;;;;0.4794458;-1.1661733;0.24799341;;;;;;;;;;;;
1986.0;1907.5;;;;;;;;;;-15.9878845;-1.247444;-6.740776;;;;;;;;;
1986.0;1907.5;;;;;;;0.4812769;-1.1697134;0.24536882;;;;;;;;;;;;
2037.0;1915.9;;;;-0.31520465;0.8950273;0.1552353;;;;;;;;;;;;;;;
2037.0;1915.9;;;;-0.31604388;0.8966142;0.15977861;;;;;;;;;;;;;;;
2037.0;1915.9;;;;-0.31414416;0.8978654;0.16436388;;;;;;;;;;;;;;;
2037.0;1915.9;;;;-0.31446078;0.90148175;0.16568758;;;;;;;;;;;;;;;
2037.0;1915.9;;;;-0.31743625;0.9066125;0.16651537;;;;;;;;;;;;;;;
2037.0;1917.0;;;;;;;;;;-16.193884;0.26322216;-6.8819237;;;;;;;;;
2037.0;1917.0;;;;;;;0.48707542;-1.1782587;0.24542986;;;;;;;;;;;;
2037.0;1917.0;;;;;;;;;;-16.575367;2.0256662;-6.9887385;;;;;;;;;
2037.0;1917.0;;;;;;;0.49159214;-1.1857662;0.24463637;;;;;;;;;;;;
2037.0;1920.5;262143;262143;11490;;;;;;;;;;;;;;;;;;
2037.0;1926.0;;;;-0.31727985;0.9121667;0.16752626;;;;;;;;;;;;;;;
2037.0;1926.0;;;;-0.319809;0.91988003;0.16633226;;;;;;;;;;;;;;;
2037.0;1926.0;;;;-0.32133105;0.92873394;0.16497423;;;;;;;;;;;;;;;
2037.0;1926.0;;;;-0.32237628;0.93875515;0.1630974;;;;;;;;;;;;;;;
2037.0;1926.0;;;;-0.32354358;0.95009625;0.16064455;;;;;;;;;;;;;;;
2037.0;1926.3;;;;;;;;;;;;;1960;;;;;;;;
2037.0;1926.3;;;;;;;;;;;;;1623;;;;;;;;
2037.0;1926.3;;;;;;;;;;;;;1170;;;;;;;;
2037.0;1926.3;;;;;;;;;;;;;1210;;;;;;;;
2037.0;1926.3;;;;;;;;;;;;;1968;;;;;;;;
2037.0;1926.6;;;;;;;;;;-16.941587;4.1123695;-7.0574055;;;;;;;;;
2037.0;1926.6;;;;;;;0.50160223;-1.200476;0.24604023;;;;;;;;;;;;
2037.0;1926.6;;;;;;;;;;-17.281105;6.4737387;-7.0726647;;;;;;;;;
2037.0;1926.6;;;;;;;0.5075228;-1.2178106;0.2491531;;;;;;;;;;;;
2042.0;1935.9;;;;-0.32501224;0.9621011;0.15705492;;;;;;;;;;;;;;;
2042.0;1935.9;;;;-0.3256493;0.97431195;0.15422441;;;;;;;;;;;;;;;
2042.0;1935.9;;;;-0.32703784;0.98624814;0.15197755;;;;;;;;;;;;;;;
2042.0;1935.9;;;;-0.32870868;0.9978448;0.1500931;;;;;;;;;;;;;;;
2042.0;1935.9;;;;-0.33122256;1.0092355;0.14921571;;;;;;;;;;;;;;;
2042.0;1935.9;;;;;;;;;;-17.529068;9.029664;-7.026887;;;;;;;;;
2042.0;1935.9;;;;;;;0.51802117;-1.2384411;0.25189978;;;;;;;;;;;;
2042.0;1935.9;;;;;;;;;;-17.647327;12.123478;-6.95822;;;;;;;;;
2042.0;1935.9;;;;;;;0.525956;-1.2551652;0.25775933;;;;;;;;;;;;
2042.0;1940.5;262143;262143;11487;;;;;;;;;;;;;;;;;;
2042.0;1945.6;;;;;;;;;;-17.796106;15.65218;-7.0764794;;;;;;;;;
2042.0;1945.6;;;;;;;0.5373089;-1.2742088;0.26416823;;;;;;;;;;;;
2042.0;1945.6;;;;;;;;;;-17.868587;19.63866;-7.4198127;;;;;;;;;
2042.0;1945.6;;;;;;;0.545793;-1.2845851;0.2728965;;;;;;;;;;;;
2042.0;1946.0;;;;-0.33203128;1.0184022;0.15015794;;;;;;;;;;;;;;;
2042.0;1946.0;;;;-0.33322147;1.0264627;0.15145876;;;;;;;;;;;;;;;
2042.0;1946.0;;;;-0.3345032;1.0329171;0.15277483;;;;;;;;;;;;;;;
2042.0;1946.0;;;;-0.3346825;1.0368272;0.15446092;;;;;;;;;;;;;;;
2042.0;1946.0;;;;-0.33477786;1.0387079;0.15589143;;;;;;;;;;;;;;;
2042.0;1955.2;;;;;;;;;;-17.799921;23.66329;-7.8089237;;;;;;;;;
2042.0;1955.2;;;;;;;0.552324;-1.2949003;0.276986;;;;;;;;;;;;
2042.0;1955.2;;;;;;;;;;-17.654957;27.897732;-8.434553;;;;;;;;;
2042.0;1955.2;;;;;;;0.55525374;-1.2964873;0.27961057;;;;;;;;;;;;
2045.0;1956.1;;;;-0.33292392;1.0384599;0.15702058;;;;;;;;;;;;;;;
2045.0;1956.1;;;;-0.3310776;1.0358087;0.15911867;;;;;;;;;;;;;;;
2045.0;1956.1;;;;-0.32825473;1.0306436;0.16238405;;;;;;;;;;;;;;;
2045.0;1956.1;;;;-0.325882;1.0233308;0.16439058;;;;;;;;;;;;;;;
2045.0;1956.1;;;;-0.32295993;1.01569;0.16535951;;;;;;;;;;;;;;;
2045.0;1960.8;262143;262143;11491;;;;;;;;;;;;;;;;;;
2045.0;1964.8;;;;;;;;;;-17.376476;31.937622;-9.155553;;;;;;;;;
2045.0;1964.8;;;;;;;0.55476546;-1.2897732;0.28247932;;;;;;;;;;;;
2045.0;1964.8;;;;;;;;;;-17.021698;36.091953;-10.010071;;;;;;;;;
2045.0;1964.8;;;;;;;0.54933316;-1.2757348;0.28150272;;;;;;;;;;;;
2045.0;1966.2;;;;-0.3204842;1.0067827;0.16632845;;;;;;;;;;;;;;;
2045.0;1966.2;;;;-0.31782153;0.9985925;0.16681673;;;;;;;;;;;;;;;
2045.0;1966.2;;;;-0.31484607;0.9905664;0.16684724;;;;;;;;;;;;;;;
2045.0;1966.2;;;;-0.3117104;0.9844552;0.16640474;;;;;;;;;;;;;;;
2045.0;1966.2;;;;-0.30781177;0.98033154;0.1653824;;;;;;;;;;;;;;;
2045.0;1966.5;;;;;;;;;;;;;2869;;;;;;;;
2045.0;1966.5;;;;;;;;;;;;;3168;;;;;;;;
2045.0;1966.5;;;;;;;;;;;;;2904;;;;;;;;
2045.0;1966.5;;;;;;;;;;;;;2717;;;;;;;;
2045.0;1966.5;;;;;;;;;;;;;2601;;;;;;;;
2045.0;1974.4;;;;;;;;;;-16.651663;40.00595;-11.1888485;;;;;;;;;
2045.0;1974.4;;;;;;;0.5467086;-1.2525407;0.27674183;;;;;;;;;;;;
2045.0;1974.4;;;;;;;;;;-16.28544;43.81695;-12.676625;;;;;;;;;
2045.0;1974.4;;;;;;;0.5377361;-1.2237312;0.27088228;;;;;;;;;;;;
2096.0;1976.2;;;;-0.30453113;0.97893536;0.16419603;;;;;;;;;;;;;;;
2096.0;1976.2;;;;-0.3017998;0.9807435;0.16493608;;;;;;;;;;;;;;;
2096.0;1976.2;;;;-0.29906848;0.9848672;0.16731264;;;;;;;;;;;;;;;
2096.0;1976.2;;;;-0.29547885;0.991665;0.17105867;;;;;;;;;;;;;;;
2096.0;1976.2;;;;-0.2921715;1.0004503;0.17541505;;;;;;;;;;;;;;;
2096.0;1980.9;262143;262143;11482;;;;;;;;;;;;;;;;;;
2096.0;1983.9;;;;;;;;;;-15.911589;47.566914;-14.393292;;;;;;;;;
2096.0;1983.9;;;;;;;0.5301675;-1.1916257;0.26404613;;;;;;;;;;;;
2096.0;1983.9;;;;;;;;;;-15.480514;51.29017;-16.399885;;;;;;;;;
2096.0;1983.9;;;;;;;0.52143925;-1.1609851;0.25647756;;;;;;;;;;;;
2096.0;1986.2;;;;-0.28926852;1.0115472;0.17962648;;;;;;;;;;;;;;;
2096.0;1986.2;;;;-0.28580478;1.023327;0.18463136;;;;;;;;;;;;;;;
2096.0;1986.2;;;;-0.28319553;1.036461;0.1880646;;;;;;;;;;;;;;;
2096.0;1986.2;;;;-0.2803841;1.0492326;0.19166186;;;;;;;;;;;;;;;
2096.0;1986.2;;;;-0.27783206;1.0618593;0.19436648;;;;;;;;;;;;;;;
2096.0;1993.1;;;;;;;;;;-15.190588;55.001984;-18.64681;;;;;;;;;
2096.0;1993.1;;;;;;;0.51118505;-1.1314433;0.2501297;;;;;;;;;;;;
2096.0;1993.1;;;;;;;;;;-14.893033;58.507797;-20.939512;;;;;;;;;
2096.0;1993.1;;;;;;;0.50343335;-1.1041597;0.24231696;;;;;;;;;;;;
2097.0;1995.9;;;;-0.27692416;1.075226;0.19624332;;;;;;;;;;;;;;;
2097.0;1995.9;;;;-0.27705005;1.0878259;0.19772342;;;;;;;;;;;;;;;
2097.0;1995.9;;;;-0.27783206;1.100258;0.19838336;;;;;;;;;;;;;;;
2097.0;1995.9;;;;-0.27857593;1.1109544;0.19869617;;;;;;;;;;;;;;;
2097.0;1995.9;;;;-0.27896503;1.1212693;0.19842914;;;;;;;;;;;;;;;
2097.0;2000.8;262143;262143;11485;;;;;;;;;;;;;;;;;;
2097.0;2002.8;;;;;;;;;;-14.530625;62.093723;-23.384808;;;;;;;;;
2097.0;2002.8;;;;;;;0.49671927;-1.0785851;0.23926511;;;;;;;;;;;;
2097.0;2002.8;;;;;;;;;;-14.13007;65.81317;-25.959806;;;;;;;;;
2097.0;2002.8;;;;;;;0.49128696;-1.051912;0.23718986;;;;;;;;;;;;
2097.0;2006.1;;;;-0.2801247;1.1311799;0.19664386;;;;;;;;;;;;;;;
2097.0;2006.1;;;;-0.2810097;1.1398431;0.19454196;;;;;;;;;;;;;;;
2097.0;2006.1;;;;-0.28229907;1.1469423;0.19190219;;;;;;;;;;;;;;;
2097.0;2006.1;;;;-0.2837067;1.1531869;0.18965533;;;;;;;;;;;;;;;
2097.0;2006.1;;;;-0.28455737;1.1579705;0.18742372;;;;;;;;;;;;;;;
2097.0;2006.5;;;;;;;;;;;;;2173;;;;;;;;
2097.0;2006.5;;;;;;;;;;;;;1893;;;;;;;;
2097.0;2006.5;;;;;;;;;;;;;3035;;;;;;;;
2097.0;2006.5;;;;;;;;;;;;;4388;;;;;;;;
2097.0;2006.5;;;;;;;;;;;;;309;;;;;;;;
2097.0;2012.4;;;;;;;;;;-13.603626;69.45249;-28.706472;;;;;;;;;
2097.0;2012.4;;;;;;;0.4892117;-1.0235298;0.23633534;;;;;;;;;;;;
2097.0;2012.4;;;;;;;;;;-13.046663;72.87438;-31.498917;;;;;;;;;
2097.0;2012.4;;;;;;;0.48438978;-0.9964293;0.23615223;;;;;;;;;;;;
2099.0;2016.2;;;;-0.28499225;1.1613313;0.18537904;;;;;;;;;;;;;;;
2099.0;2016.2;;;;-0.28652957;1.1636659;0.18328477;;;;;;;;;;;;;;;
2099.0;2016.2;;;;-0.28792575;1.1641961;0.18096544;;;;;;;;;;;;;;;
2099.0;2016.2;;;;-0.28904727;1.1633607;0.17902376;;;;;;;;;;;;;;;
2099.0;2016.2;;;;-0.2896233;1.1608697;0.1779442;;;;;;;;;;;;;;;
2099.0;2021.0;262143;262143;11481;;;;;;;;;;;;;;;;;;
2099.0;2022.0;;;;;;;;;;-12.504959;76.13987;-34.363842;;;;;;;;;
2099.0;2022.0;;;;;;;0.48005617;-0.97006136;0.23499252;;;;;;;;;;;;
2099.0;2022.0;;;;;;;;;;-11.925108;79.3939;-37.453842;;;;;;;;;
2099.0;2022.0;;;;;;;0.47511217;-0.94534135;0.23615223;;;;;;;;;;;;
2099.0;2026.2;;;;-0.29026034;1.1566736;0.17699434;;;;;;;;;;;;;;;
2099.0;2026.2;;;;-0.29014972;1.1504327;0.17562486;;;;;;;;;;;;;;;
2099.0;2026.2;;;;-0.28791812;1.142563;0.17565538;;;;;;;;;;;;;;;
2099.0;2026.2;;;;-0.28577808;1.133545;0.17577745;;;;;;;;;;;;;;;
2099.0;2026.2;;;;-0.2834206;1.1233674;0.17617036;;;;;;;;;;;;;;;
2099.0;2031.6;;;;;;;;;;-11.268959;82.38471;-40.673542;;;;;;;;;
2099.0;2031.6;;;;;;;0.46723837;-0.92477185;0.23749503;;;;;;;;;;;;
2099.0;2031.6;;;;;;;;;;-10.601367;85.253456;-43.897064;;;;;;;;;
2099.0;2031.6;;;;;;;0.45924252;-0.91042817;0.23902097;;;;;;;;;;;;
2172.0;2036.2;;;;-0.28011706;1.111519;0.17639543;;;;;;;;;;;;;;;
2172.0;2036.2;;;;-0.2747307;1.0990373;0.17701723;;;;;;;;;;;;;;;
2172.0;2036.2;;;;-0.26992038;1.0854608;0.17707063;;;;;;;;;;;;;;;
2172.0;2036.2;;;;-0.2645569;1.0713578;0.17716981;;;;;;;;;;;;;;;
2172.0;2036.2;;;;-0.2590752;1.0575715;0.17771532;;;;;;;;;;;;;;;
2172.0;2041.1;;;;;;;;;;-9.830774;87.904755;-47.204506;;;;;;;;;
2172.0;2041.1;;;;;;;0.45118564;-0.903531;0.23963134;;;;;;;;;;;;
2172.0;2041.1;;;;;;;;;;-8.987701;90.57512;-50.508133;;;;;;;;;
2172.0;2041.1;;;;;;;0.44166386;-0.90121156;0.23804438;;;;;;;;;;;;
2172.0;2041.2;262143;262143;11479;;;;;;;;;;;;;;;;;;
2172.0;2046.3;;;;-0.25214007;1.0448266;0.17822649;;;;;;;;;;;;;;;
2172.0;2046.3;;;;-0.24702457;1.032425;0.17750551;;;;;;;;;;;;;;;
2172.0;2046.3;;;;-0.24124148;1.0208513;0.17702486;;;;;;;;;;;;;;;
2172.0;2046.3;;;;-0.23683551;1.0098497;0.17541124;;;;;;;;;;;;;;;
2172.0;2046.3;;;;-0.23090747;0.99992;0.17576982;;;;;;;;;;;;;;;
2172.0;2046.8;;;;;;;;;;;;;-10683;;;;;;;;
2172.0;2046.8;;;;;;;;;;;;;-18847;;;;;;;;
2172.0;2046.8;;;;;;;;;;;;;-13600;;;;;;;;
2172.0;2046.8;;;;;;;;;;;;;2190;;;;;;;;
2172.0;2046.8;;;;;;;;;;;;;14665;;;;;;;;
2172.0;2050.4;;;;;;;;;;-8.056887;92.97464;-53.765984;;;;;;;;;
2172.0;2050.4;;;;;;;0.43665883;-0.9090243;0.23780023;;;;;;;;;;;;
2172.0;2050.4;;;;;;;;;;-6.9544053;95.03845;-56.83691;;;;;;;;;
2172.0;2050.4;;;;;;;0.42799157;-0.9197058;0.23303933;;;;;;;;;;;;
2173.0;2056.0;;;;-0.2267113;0.99074566;0.17404176;;;;;;;;;;;;;;;
2173.0;2056.0;;;;-0.22283176;0.98285687;0.17252351;;;;;;;;;;;;;;;
2173.0;2056.0;;;;-0.21849826;0.9765779;0.172184;;;;;;;;;;;;;;;
2173.0;2056.0;;;;-0.21455768;0.97212994;0.17214204;;;;;;;;;;;;;;;
2173.0;2056.0;;;;-0.21216586;0.9678422;0.17177202;;;;;;;;;;;;;;;
2173.0;2059.9;;;;;;;;;;-5.7298503;96.80853;-59.72854;;;;;;;;;
2173.0;2059.9;;;;;;;0.41975158;-0.93868834;0.22663045;;;;;;;;;;;;
2173.0;2059.9;;;;;;;;;;-4.318369;98.34972;-62.303535;;;;;;;;;
2173.0;2059.9;;;;;;;0.41181678;-0.95815915;0.22016053;;;;;;;;;;;;
2173.0;2061.0;262143;262143;11465;;;;;;;;;;;;;;;;;;
2173.0;2066.1;;;;-0.21063235;0.9653665;0.1710396;;;;;;;;;;;;;;;
2173.0;2066.1;;;;-0.20990375;0.96302044;0.1709633;;;;;;;;;;;;;;;
2173.0;2066.1;;;;-0.21095279;0.96172345;0.17089082;;;;;;;;;;;;;;;
2173.0;2066.1;;;;-0.21207812;0.96136487;0.17190172;;;;;;;;;;;;;;;
2173.0;2066.1;;;;-0.2142258;0.9618646;0.17298509;;;;;;;;;;;;;;;
2173.0;2069.5;;;;;;;;;;-2.7695546;99.574265;-64.64202;;;;;;;;;
2173.0;2069.5;;;;;;;0.4032716;-0.9800104;0.21094394;;;;;;;;;;;;
2173.0;2069.5;;;;;;;;;;-1.0299997;100.90182;-66.70583;;;;;;;;;
2173.0;2069.5;;;;;;;0.39234596;-1.0015564;0.20349742;;;;;;;;;;;;
2174.0;2076.2;;;;-0.21546939;0.9628869;0.17499162;;;;;;;;;;;;;;;
2174.0;2076.2;;;;-0.21766666;0.9649316;0.17782976;;;;;;;;;;;;;;;
2174.0;2076.2;;;;-0.22049335;0.96675885;0.17952348;;;;;;;;;;;;;;;
2174.0;2076.2;;;;-0.22391132;0.96881497;0.18028261;;;;;;;;;;;;;;;
2174.0;2076.2;;;;-0.22768024;0.9710504;0.18141557;;;;;;;;;;;;;;;
2174.0;2079.1;;;;;;;;;;0.92318493;101.92037;-68.60179;;;;;;;;;
2174.0;2079.1;;;;;;;0.38544878;-1.0199286;0.19660024;;;;;;;;;;;;
2174.0;2079.1;;;;;;;;;;2.9831843;102.42012;-70.2002;;;;;;;;;
2174.0;2079.1;;;;;;;0.37678152;-1.0360423;0.18805505;;;;;;;;;;;;
2174.0;2081.2;262143;262143;11460;;;;;;;;;;;;;;;;;;
2174.0;2086.3;;;;-0.23154452;0.9737016;0.18372346;;;;;;;;;;;;;;;
2174.0;2086.3;;;;-0.23575976;0.9764482;0.18579866;;;;;;;;;;;;;;;
2174.0;2086.3;;;;-0.24015811;0.9797822;0.18690874;;;;;;;;;;;;;;;
2174.0;2086.3;;;;-0.24468616;0.9827119;0.18828586;;;;;;;;;;;;;;;
2174.0;2086.3;;;;-0.2496567;0.9855386;0.1897774;;;;;;;;;;;;;;;
2174.0;2086.9;;;;;;;;;;;;;15284;;;;;;;;
2174.0;2086.9;;;;;;;;;;;;;8732;;;;;;;;
2174.0;2086.9;;;;;;;;;;;;;3755;;;;;;;;
2174.0;2086.9;;;;;;;;;;;;;2467;;;;;;;;
2174.0;2086.9;;;;;;;;;;;;;2120;;;;;;;;
2174.0;2088.7;;;;;;;;;;5.0393686;102.710045;-71.48198;;;;;;;;;
2174.0;2088.7;;;;;;;0.36793116;-1.0464187;0.17920469;;;;;;;;;;;;
2174.0;2088.7;;;;;;;;;;7.0078125;102.89315;-72.58827;;;;;;;;;
2174.0;2088.7;;;;;;;0.3604236;-1.0547197;0.17011017;;;;;;;;;;;;
2176.0;2089.3;;;;;;;;;;;;;;;;;7.843257;-0.011444441;19.623402;;1851.8
2176.0;2089.3;;;;;;;;;;;;;;1.0000916;0.02661214;-0.26728112;;;;;1851.8
2176.0;2089.3;;;;;;;;;;;;;;;;;6.3402205;0.20218512;16.861477;;1851.8
2176.0;2089.3;;;;;;;;;;;;;;1.012482;0.009460738;-0.2446974;;;;;1851.8
2176.0;2089.3;;;;;;;;;;;;;;;;;5.466628;0.46922207;14.034699;;1861.4
2176.0;2089.3;;;;;;;;;;;;;;1.0235298;-0.0077517014;-0.23969238;;;;;1861.4
2176.0;2089.3;;;;;;;;;;;;;;;;;5.3369246;0.6828517;11.234626;;1861.4
2176.0;2089.3;;;;;;;;;;;;;;1.0298777;-0.018921476;-0.24903104;;;;;1861.4
2176.0;2089.3;;;;;;;;;;;;;;;;;5.954924;0.6866665;8.476516;;1870.9
2176.0;2089.3;;;;;;;;;;;;;;1.0296335;-0.025940733;-0.2639851;;;;;1870.9
2176.0;2089.3;;;;;;;;;;;;;;;;;7.4198127;0.5645924;5.6230354;;1870.9
2176.0;2089.3;;;;;;;;;;;;;;1.0216987;-0.029663991;-0.2855922;;;;;1870.9
2176.0;2089.9;;;;;;;;;;;;;;;;;9.708701;0.5035554;2.6894438;;1880.6
2176.0;2089.9;;;;;;;;;;;;;;1.0132755;-0.017639698;-0.31421858;;;;;1880.6
2176.0;2089.9;;;;;;;;;;;;;;;;;12.642292;0.6828517;-0.49211097;;1880.6
2176.0;2089.9;;;;;;;;;;;;;;1.0094302;0.0114139225;-0.34003723;;;;;1880.6
2176.0;2089.9;;;;;;;;;;;;;;;;;15.392773;0.92318493;-3.9559617;;1890.3
2176.0;2089.9;;;;;;;;;;;;;;1.0092471;0.039490953;-0.3617664;;;;;1890.3
2176.0;2089.9;;;;;;;;;;;;;;;;;17.071291;0.7286294;-7.6868496;;1890.3
2176.0;2089.9;;;;;;;;;;;;;;1.0155339;0.07367168;-0.3795282;;;;;1890.3
2176.0;2089.9;;;;;;;;;;;;;;;;;17.58629;0.35477766;-11.722922;;1900.0
2176.0;2089.9;;;;;;;;;;;;;;1.0199896;0.10803553;-0.3787347;;;;;1900.0
2176.0;2089.9;;;;;;;;;;;;;;;;;17.029327;-0.9727775;-15.800959;;1900.0
2176.0;2089.9;;;;;;;;;;;;;;1.0303049;0.13934751;-0.3679922;;;;;1900.0
2177.0;2090.8;;;;;;;;;;;;;;;;;16.193884;-3.1624806;-19.825586;;1909.6
2177.0;2090.8;;;;;;;;;;;;;;1.0331125;0.15314189;-0.35370952;;;;;1909.6
2177.0;2090.8;;;;;;;;;;;;;;;;;15.343181;-5.94348;-23.689993;;1909.6
2177.0;2090.8;;;;;;;;;;;;;;1.0119327;0.16345714;-0.32074952;;;;;1909.6
2177.0;2090.8;;;;;;;;;;;;;;;;;14.305552;-9.54085;-27.60399;;1919.3
2177.0;2090.8;;;;;;;;;;;;;;0.9722587;0.17505418;-0.28382215;;;;;1919.3
2177.0;2090.8;;;;;;;;;;;;;;;;;13.580737;-12.596515;-32.07877;;1919.3
2177.0;2090.8;;;;;;;;;;;;;;0.9161046;0.19879757;-0.24787134;;;;;1919.3
2177.0;2090.8;;;;;;;;;;;;;;;;;14.133884;-14.885404;-37.27073;;1928.9
2177.0;2090.8;;;;;;;;;;;;;;0.8568987;0.2318186;-0.22479934;;;;;1928.9
2177.0;2090.8;;;;;;;;;;;;;;;;;16.163366;-17.265846;-43.5461;;1928.9
2177.0;2090.8;;;;;;;;;;;;;;0.80953395;0.26734215;-0.23902097;;;;;1928.9
2177.0;2091.5;;;;;;;;;;;;;;;;;19.100773;-19.482254;-50.717945;;1938.6
2177.0;2091.5;;;;;;;;;;;;;;0.7812128;0.29670095;-0.28760645;;;;;1938.6
2177.0;2091.5;;;;;;;;;;;;;;;;;23.216955;-21.11118;-59.026615;;1938.6
2177.0;2091.5;;;;;;;;;;;;;;0.7752312;0.33698538;-0.34583575;;;;;1938.6
2177.0;2091.5;;;;;;;;;;;;;;;;;31.52562;-22.480696;-68.36909;;1948.3
2177.0;2091.5;;;;;;;;;;;;;;0.7676626;0.36249885;-0.42017883;;;;;1948.3
2177.0;2091.5;;;;;;;;;;;;;;;;;45.12543;-27.546768;-77.6162;;1948.3
2177.0;2091.5;;;;;;;;;;;;;;0.7557604;0.38013855;-0.4965972;;;;;1948.3
2177.0;2091.5;;;;;;;;;;;;;;;;;50.65691;-31.903286;-86.39409;;1958.0
2177.0;2091.5;;;;;;;;;;;;;;0.7783441;0.4041261;-0.5058138;;;;;1958.0
2177.0;2091.5;;;;;;;;;;;;;;;;;46.040985;-26.715141;-93.977936;;1958.0
2177.0;2091.5;;;;;;;;;;;;;;0.7867672;0.4295175;-0.43440047;;;;;1958.0
2179.0;2092.3;;;;;;;;;;;;;;;;;41.83325;-19.787437;-101.35197;;1967.6
2179.0;2092.3;;;;;;;;;;;;;;0.76577044;0.4848781;-0.30115664;;;;;1967.6
2179.0;2092.3;;;;;;;;;;;;;;;;;37.995544;-21.542253;-107.69982;;1967.6
2179.0;2092.3;;;;;;;;;;;;;;0.7619251;0.5355998;-0.20679343;;;;;1967.6
2179.0;2092.3;;;;;;;;;;;;;;;;;32.01773;-26.181067;-113.80352;;1977.3
2179.0;2092.3;;;;;;;;;;;;;;0.81258583;0.5879696;-0.12988678;;;;;1977.3
2179.0;2092.3;;;;;;;;;;;;;;;;;21.652884;-28.775139;-118.89249;;1977.3
2179.0;2092.3;;;;;;;;;;;;;;0.89028597;0.5874813;-0.10278634;;;;;1977.3
2179.0;2092.3;;;;;;;;;;;;;;;;;9.758293;-24.254585;-122.79504;;1986.8
2179.0;2092.3;;;;;;;;;;;;;;0.96188235;0.5758843;-0.08239998;;;;;1986.8
2179.0;2092.3;;;;;;;;;;;;;;;;;-3.6317027;-15.045625;-124.38581;;1986.8
2179.0;2092.3;;;;;;;;;;;;;;1.0209662;0.4867702;-0.043092135;;;;;1986.8
2179.0;2096.0;;;;-0.2545357;0.988556;0.19118503;;;;;;;;;;;;;;;
2179.0;2096.0;;;;-0.25973514;0.99162686;0.19183734;;;;;;;;;;;;;;;
2179.0;2096.0;;;;-0.26422504;0.9941865;0.19258884;;;;;;;;;;;;;;;
2179.0;2096.0;;;;-0.2682877;0.99733746;0.1931763;;;;;;;;;;;;;;;
2179.0;2096.0;;;;-0.2717133;1.0005418;0.19379047;;;;;;;;;;;;;;;
2181.0;2096.4;;;;;;;;;;;;;;;;;-14.358959;-6.45085;-124.95041;;1996.4
2181.0;2096.4;;;;;;;;;;;;;;1.091586;0.38392285;-0.0014038514;;;;;1996.4
2181.0;2096.4;;;;;;;;;;;;;;;;;-22.148808;2.1172216;-124.988556;;1996.4
2181.0;2096.4;;;;;;;;;;;;;;1.1661733;0.285226;0.030457472;;;;;1996.4
2181.0;2096.4;;;;;;;;;;;;;;;;;-25.498215;12.99707;-124.988556;;2006.0
2181.0;2096.4;;;;;;;;;;;;;;1.2315439;0.17505418;0.07721183;;;;;2006.0
2181.0;2096.4;;;;;;;;;;;;;;;;;-23.895994;24.197363;-124.988556;;2006.0
2181.0;2096.4;;;;;;;;;;;;;;1.2604145;0.04754784;0.1276284;;;;;2006.0
2181.0;2096.4;;;;;;;;;;;;;;;;;-17.075106;32.326733;-124.988556;;2015.7
2181.0;2096.4;;;;;;;;;;;;;;1.2905667;-0.05658132;0.17206335;;;;;2015.7
2181.0;2096.4;;;;;;;;;;;;;;;;;-6.382183;35.485397;-124.988556;;2015.7
2181.0;2096.4;;;;;;;;;;;;;;1.3308512;-0.15540025;0.1984924;;;;;2015.7
2181.0;2097.8;;;;;;;;;;8.991516;102.717674;-73.47331;;;;;;;;;
2181.0;2097.8;;;;;;;0.35419783;-1.0608234;0.16272469;;;;;;;;;;;;
2181.0;2097.8;;;;;;;;;;10.998108;102.28278;-74.10276;;;;;;;;;
2181.0;2097.8;;;;;;;0.34876552;-1.0661336;0.15655996;;;;;;;;;;;;
2181.0;2101.0;262143;262143;11460;;;;;;;;;;;;;;;;;;
2181.0;2106.0;;;;-0.2747498;1.0037957;0.19353107;;;;;;;;;;;;;;;
2181.0;2106.0;;;;-0.27676013;1.0066453;0.1945267;;;;;;;;;;;;;;;
2181.0;2106.0;;;;-0.27817157;1.0096055;0.19484332;;;;;;;;;;;;;;;
2181.0;2106.0;;;;-0.27977374;1.0124208;0.19398502;;;;;;;;;;;;;;;
2181.0;2106.0;;;;-0.28140643;1.015175;0.19306949;;;;;;;;;;;;;;;
2230.0;2107.4;;;;;;;;;;12.905515;101.2833;-74.53383;;;;;;;;;
2230.0;2107.4;;;;;;;0.34846035;-1.0677205;0.15039521;;;;;;;;;;;;
2230.0;2107.4;;;;;;;;;;14.74044;100.10452;-74.73983;;;;;;;;;
2230.0;2107.4;;;;;;;0.34748375;-1.0729088;0.14368114;;;;;;;;;;;;
2230.0;2115.5;;;;-0.28276065;1.0181924;0.19287494;;;;;;;;;;;;;;;
2230.0;2115.5;;;;-0.2837601;1.0211831;0.19200519;;;;;;;;;;;;;;;
2230.0;2115.5;;;;-0.2849312;1.0244523;0.19012836;;;;;;;;;;;;;;;
2230.0;2115.5;;;;-0.2853966;1.02697;0.18795398;;;;;;;;;;;;;;;
2230.0;2115.5;;;;-0.28634647;1.0302469;0.1863556;;;;;;;;;;;;;;;
2230.0;2116.4;;;;;;;;;;16.51433;98.54046;-74.86954;;;;;;;;;
2230.0;2116.4;;;;;;;0.34833828;-1.0752281;0.13690603;;;;;;;;;;;;
2230.0;2116.4;;;;;;;;;;18.150883;96.915344;-74.835205;;;;;;;;;
2230.0;2116.4;;;;;;;0.34778893;-1.0799279;0.13348795;;;;;;;;;;;;
2230.0;2120.5;262143;262143;11466;;;;;;;;;;;;;;;;;;
2230.0;2125.5;;;;-0.28776172;1.033127;0.18453218;;;;;;;;;;;;;;;
2230.0;2125.5;;;;-0.28899387;1.0353891;0.18306734;;;;;;;;;;;;;;;
2230.0;2125.5;;;;-0.2901688;1.0378572;0.18171693;;;;;;;;;;;;;;;
2230.0;2125.5;;;;-0.29073718;1.0394479;0.18042375;;;;;;;;;;;;;;;
2230.0;2125.5;;;;-0.29085162;1.0404702;0.17921449;;;;;;;;;;;;;;;
2230.0;2126.0;;;;;;;;;;19.661549;95.10331;-74.65209;;;;;;;;;
2230.0;2126.0;;;;;;;0.34986418;-1.0809046;0.130253;;;;;;;;;;;;
2230.0;2126.0;;;;;;;;;;21.069216;93.15394;-74.54527;;;;;;;;;
2230.0;2126.0;;;;;;;0.35273293;-1.0816981;0.12683493;;;;;;;;;;;;
2235.0;2126.2;;;;;;;;;;;;;1738;;;;;;;;
2235.0;2126.2;;;;;;;;;;;;;1621;;;;;;;;
2235.0;2126.2;;;;;;;;;;;;;1379;;;;;;;;
2235.0;2126.2;;;;;;;;;;;;;924;;;;;;;;
2235.0;2126.2;;;;;;;;;;;;;421;;;;;;;;
2235.0;2135.6;;;;-0.2902756;1.0409166;0.1792679;;;;;;;;;;;;;;;
2235.0;2135.6;;;;-0.28953555;1.0410386;0.17948534;;;;;;;;;;;;;;;
2235.0;2135.6;;;;-0.28899387;1.0397187;0.17967226;;;;;;;;;;;;;;;
2235.0;2135.6;;;;-0.28870013;1.0375825;0.18032838;;;;;;;;;;;;;;;
2235.0;2135.6;;;;-0.28852084;1.0346757;0.18188097;;;;;;;;;;;;;;;
2235.0;2135.6;;;;;;;;;;22.461622;91.09775;-74.49187;;;;;;;;;
2235.0;2135.6;;;;;;;0.3564562;-1.0843837;0.120975375;;;;;;;;;;;;
2235.0;2135.6;;;;;;;;;;23.594624;89.1293;-74.25153;;;;;;;;;
2235.0;2135.6;;;;;;;0.35920286;-1.0868862;0.11792352;;;;;;;;;;;;
2235.0;2140.8;262143;262143;11471;;;;;;;;;;;;;;;;;;
2235.0;2145.2;;;;;;;;;;24.658957;87.168495;-73.98068;;;;;;;;;
2235.0;2145.2;;;;;;;0.36164433;-1.0904874;0.111514635;;;;;;;;;;;;
2235.0;2145.2;;;;;;;;;;25.4944;85.24583;-73.648796;;;;;;;;;
2235.0;2145.2;;;;;;;0.364391;-1.0962859;0.10449538;;;;;;;;;;;;
2235.0;2145.7;;;;-0.28921893;1.0313226;0.1825638;;;;;;;;;;;;;;;
2235.0;2145.7;;;;-0.29063037;1.0274202;0.18335725;;;;;;;;;;;;;;;
2235.0;2145.7;;;;-0.29233554;1.0233117;0.18501665;;;;;;;;;;;;;;;
2235.0;2145.7;;;;-0.29444507;1.0197526;0.18681337;;;;;;;;;;;;;;;
2235.0;2145.7;;;;-0.29730228;1.0162965;0.1870537;;;;;;;;;;;;;;;
2236.0;2148.2;;;;;;;;;;;;;;;;;4.6998506;33.242287;-124.988556;;2025.3
2236.0;2148.2;;;;;;;;;;;;;;1.3791314;-0.20398572;0.15356915;;;;;2025.3
2236.0;2148.2;;;;;;;;;;;;;;;;;14.141514;29.889067;-124.988556;;2025.3
2236.0;2148.2;;;;;;;;;;;;;;1.4540849;-0.25360882;0.05053865;;;;;2025.3
2236.0;2148.2;;;;;;;;;;;;;;;;;25.276955;28.687399;-124.988556;;2035.0
2236.0;2148.2;;;;;;;;;;;;;;1.523484;-0.29395428;-0.043153174;;;;;2035.0
2236.0;2148.2;;;;;;;;;;;;;;;;;30.224768;20.313883;-124.988556;;2035.0
2236.0;2148.2;;;;;;;;;;;;;;1.5815302;-0.372631;-0.17090365;;;;;2035.0
2236.0;2148.2;;;;;;;;;;;;;;;;;26.741844;13.454848;-124.13403;;2044.7
2236.0;2148.2;;;;;;;;;;;;;;1.6169317;-0.50379956;-0.32355723;;;;;2044.7
2236.0;2148.2;;;;;;;;;;;;;;;;;17.937254;22.854548;-120.838036;;2044.7
2236.0;2148.2;;;;;;;;;;;;;;1.5673085;-0.5948058;-0.35834834;;;;;2044.7
2236.0;2149.0;;;;;;;;;;;;;;;;;6.241035;27.317883;-121.37974;;2054.1
2236.0;2149.0;;;;;;;;;;;;;;1.4372387;-0.56660664;-0.3582873;;;;;2054.1
2236.0;2149.0;;;;;;;;;;;;;;;;;-9.926145;15.896328;-120.46418;;2054.1
2236.0;2149.0;;;;;;;;;;;;;;1.3517258;-0.504593;-0.41053498;;;;;2054.1
2236.0;2149.0;;;;;;;;;;;;;;;;;-23.194067;3.0404067;-119.89959;;2063.6
2236.0;2149.0;;;;;;;;;;;;;;1.3293252;-0.3822138;-0.46845913;;;;;2063.6
2236.0;2149.0;;;;;;;;;;;;;;;;;-31.380657;-3.9216285;-119.079414;;2063.6
2236.0;2149.0;;;;;;;;;;;;;;1.3020416;-0.2849208;-0.47199926;;;;;2063.6
2236.0;2149.0;;;;;;;;;;;;;;;;;-35.74099;-8.098849;-115.77578;;2073.3
2236.0;2149.0;;;;;;;;;;;;;;1.2864772;-0.20612201;-0.41431928;;;;;2073.3
2236.0;2149.0;;;;;;;;;;;;;;;;;-36.34373;-8.632923;-117.79;;2073.3
2236.0;2149.0;;;;;;;;;;;;;;1.3577075;-0.07415998;-0.316599;;;;;2073.3
2241.0;2154.6;;;;;;;;;;26.463364;83.246864;-73.30164;;;;;;;;;
2241.0;2154.6;;;;;;;0.369335;-1.1042207;0.09869686;;;;;;;;;;;;
2241.0;2154.6;;;;;;;;;;27.249214;81.396675;-73.08801;;;;;;;;;
2241.0;2154.6;;;;;;;0.37488937;-1.1085544;0.09186071;;;;;;;;;;;;
2241.0;2155.7;;;;;;;;;;;;;;;;;-31.891842;-12.337108;-119.24345;;2082.9
2241.0;2155.7;;;;;;;;;;;;;;1.3937193;0.01965392;-0.30677205;;;;;2082.9
2241.0;2155.7;;;;;;;;;;;;;;;;;-19.928587;-12.752922;-116.77145;;2082.9
2241.0;2155.7;;;;;;;;;;;;;;1.3628346;0.047791988;-0.28138065;;;;;2082.9
2241.0;2155.7;;;;;;;;;;;;;;;;;-8.007294;-13.863032;-116.86301;;2092.4
2241.0;2155.7;;;;;;;;;;;;;;1.3288369;0.07708976;-0.26081118;;;;;2092.4
2241.0;2155.7;;;;;;;;;;;;;;;;;4.7456284;-11.585589;-118.923004;;2092.4
2241.0;2155.7;;;;;;;;;;;;;;1.3216956;0.09564501;-0.22107609;;;;;2092.4
2241.0;2155.7;;;;;;;;;;;;;;;;;21.267586;-1.2970366;-113.22367;;2102.0
2241.0;2155.7;;;;;;;;;;;;;;1.3086947;-0.0054322947;-0.12213507;;;;;2102.0
2241.0;2155.7;;;;;;;;;;;;;;;;;34.566025;7.915738;-108.161415;;2102.0
2241.0;2155.7;;;;;;;;;;;;;;1.2707907;-0.098025456;-0.057313763;;;;;2102.0
2241.0;2155.5;;;;-0.30085757;1.0127488;0.1872902;;;;;;;;;;;;;;;
2241.0;2155.5;;;;-0.30407718;1.0095521;0.18746568;;;;;;;;;;;;;;;
2241.0;2155.5;;;;-0.30752185;1.0060693;0.1881409;;;;;;;;;;;;;;;
2241.0;2155.5;;;;-0.3116379;1.0026056;0.18859485;;;;;;;;;;;;;;;
2241.0;2155.5;;;;-0.31601718;0.999302;0.1882706;;;;;;;;;;;;;;;
2241.0;2160.6;262143;262143;11467;;;;;;;;;;;;;;;;;;
2285.0;2164.0;;;;;;;;;;27.974028;79.67619;-72.84768;;;;;;;;;
2285.0;2164.0;;;;;;;0.3787347;-1.114597;0.08551286;;;;;;;;;;;;
2285.0;2164.0;;;;;;;;;;28.588213;77.70013;-72.63023;;;;;;;;;
2285.0;2164.0;;;;;;;0.38575396;-1.1149021;0.081667535;;;;;;;;;;;;
2285.0;2165.4;;;;-0.31982425;0.995556;0.18809512;;;;;;;;;;;;;;;
2285.0;2165.4;;;;-0.32320789;0.9912759;0.18745424;;;;;;;;;;;;;;;
2285.0;2165.4;;;;-0.32640842;0.98656476;0.186718;;;;;;;;;;;;;;;
2285.0;2165.4;;;;-0.32938388;0.9816133;0.18580247;;;;;;;;;;;;;;;
2285.0;2165.4;;;;-0.33183292;0.9762193;0.18429185;;;;;;;;;;;;;;;
2285.0;2166.2;;;;;;;;;;;;;-39;;;;;;;;
2285.0;2166.2;;;;;;;;;;;;;-373;;;;;;;;
2285.0;2166.2;;;;;;;;;;;;;-628;;;;;;;;
2285.0;2166.2;;;;;;;;;;;;;-950;;;;;;;;
2285.0;2166.2;;;;;;;;;;;;;-1517;;;;;;;;
2285.0;2173.3;;;;;;;;;;29.141361;75.31969;-72.53487;;;;;;;;;
2285.0;2173.3;;;;;;;0.3864864;-1.1143528;0.078554645;;;;;;;;;;;;
2285.0;2173.3;;;;;;;;;;29.610584;72.65313;-72.37464;;;;;;;;;
2285.0;2173.3;;;;;;;0.3834956;-1.1122166;0.075319685;;;;;;;;;;;;
2285.0;2175.1;;;;-0.33418277;0.9698678;0.18280031;;;;;;;;;;;;;;;
2285.0;2175.1;;;;-0.33661655;0.9632417;0.18126298;;;;;;;;;;;;;;;
2285.0;2175.1;;;;-0.3378754;0.95619214;0.18020631;;;;;;;;;;;;;;;
2285.0;2175.1;;;;-0.33894733;0.9487001;0.17853166;;;;;;;;;;;;;;;
2285.0;2175.1;;;;-0.33944324;0.9408227;0.17569353;;;;;;;;;;;;;;;
2285.0;2180.5;262143;262143;11470;;;;;;;;;;;;;;;;;;
2287.0;2182.9;;;;;;;;;;30.041656;70.127716;-72.35557;;;;;;;;;
2287.0;2182.9;;;;;;;0.38239694;-1.1072725;0.07312235;;;;;;;;;;;;
2287.0;2182.9;;;;;;;;;;30.373547;67.690056;-72.420425;;;;;;;;;
2287.0;2182.9;;;;;;;0.3782464;-1.1044649;0.07415998;;;;;;;;;;;;
2287.0;2185.3;;;;-0.3403435;0.9323884;0.17365266;;;;;;;;;;;;;;;
2287.0;2185.3;;;;-0.34037784;0.92432034;0.17226411;;;;;;;;;;;;;;;
2287.0;2185.3;;;;-0.34006885;0.9153253;0.17058946;;;;;;;;;;;;;;;
2287.0;2185.3;;;;-0.3399811;0.9068452;0.16827013;;;;;;;;;;;;;;;
2287.0;2185.3;;;;-0.33979037;0.89821637;0.16615678;;;;;;;;;;;;;;;
2287.0;2192.5;;;;;;;;;;30.728323;65.22187;-72.542496;;;;;;;;;
2287.0;2192.5;;;;;;;0.37568286;-1.0995208;0.07367168;;;;;;;;;;;;
2287.0;2192.5;;;;;;;;;;31.01825;63.066498;-72.84768;;;;;;;;;
2287.0;2192.5;;;;;;;0.37562183;-1.0967742;0.07025361;;;;;;;;;;;;
2287.0;2195.4;;;;-0.340004;0.88988125;0.16388704;;;;;;;;;;;;;;;
2287.0;2195.4;;;;-0.34046176;0.8814012;0.16191103;;;;;;;;;;;;;;;
2287.0;2195.4;;;;-0.34032062;0.87355435;0.16049959;;;;;;;;;;;;;;;
2287.0;2195.4;;;;-0.34043124;0.8653337;0.15825655;;;;;;;;;;;;;;;
2287.0;2195.4;;;;-0.3404694;0.85800564;0.15651323;;;;;;;;;;;;;;;
2288.0;2201.1;;;;;;;;;;;;;;;;;39.040802;9.685812;-107.13142;;2111.6
2288.0;2201.1;;;;;;;;;;;;;;1.2247689;-0.11047701;-0.062196724;;;;;2111.6
2288.0;2201.1;;;;;;;;;;;;;;;;;36.824398;7.9500723;-102.78634;;2111.6
2288.0;2201.1;;;;;;;;;;;;;;1.1850337;-0.106631674;-0.07318339;;;;;2111.6
2288.0;2201.1;;;;;;;;;;;;;;;;;29.80514;3.707999;-94.13816;;2121.2
2288.0;2201.1;;;;;;;;;;;;;;1.1501205;-0.12921537;-0.08850368;;;;;2121.2
2288.0;2201.1;;;;;;;;;;;;;;;;;23.762474;-0.27466658;-88.713486;;2121.2
2288.0;2201.1;;;;;;;;;;;;;;1.0895718;-0.14154485;-0.06769005;;;;;2121.2
2288.0;2201.1;;;;;;;;;;;;;;;;;21.72918;-2.7924435;-87.66442;;2130.8
2288.0;2201.1;;;;;;;;;;;;;;1.0234077;-0.020813623;-0.009155553;;;;;2130.8
2288.0;2201.1;;;;;;;;;;;;;;;;;18.669699;-9.811701;-82.953125;;2130.8
2288.0;2201.1;;;;;;;;;;;;;;0.9696951;-0.016846217;-0.003418073;;;;;2130.8
2288.0;2200.7;262143;262143;11471;;;;;;;;;;;;;;;;;;
2288.0;2202.0;;;;;;;;;;31.281471;61.208683;-73.30927;;;;;;;;;
2288.0;2202.0;;;;;;;0.37879574;-1.0923796;0.067445904;;;;;;;;;;;;
2288.0;2202.0;;;;;;;;;;31.655323;59.232613;-73.778496;;;;;;;;;
2288.0;2202.0;;;;;;;0.3836787;-1.0830408;0.06250191;;;;;;;;;;;;
2288.0;2205.4;;;;-0.3402405;0.8502618;0.15418245;;;;;;;;;;;;;;;
2288.0;2205.4;;;;-0.34079364;0.84342206;0.1522751;;;;;;;;;;;;;;;
2288.0;2205.4;;;;-0.3407593;0.83693707;0.15019228;;;;;;;;;;;;;;;
2288.0;2205.4;;;;-0.34093097;0.830639;0.14822008;;;;;;;;;;;;;;;
2288.0;2205.4;;;;-0.34074405;0.82473767;0.14631273;;;;;;;;;;;;;;;
2291.0;2206.2;;;;;;;;;;;;;-2372;;;;;;;;
2291.0;2206.2;;;;;;;;;;;;;-3269;;;;;;;;
2291.0;2206.2;;;;;;;;;;;;;-3781;;;;;;;;
2291.0;2206.2;;;;;;;;;;;;;-3724;;;;;;;;
2291.0;2206.2;;;;;;;;;;;;;-3206;;;;;;;;
2291.0;2211.6;;;;;;;;;;32.067326;57.317577;-74.19813;;;;;;;;;
2291.0;2211.6;;;;;;;0.3881344;-1.0737633;0.056642354;;;;;;;;;;;;
2291.0;2211.6;;;;;;;;;;32.540363;55.425426;-74.68261;;;;;;;;;
2291.0;2211.6;;;;;;;0.39210182;-1.0614338;0.049256876;;;;;;;;;;;;
2291.0;2215.4;;;;-0.3408585;0.81917584;0.14481737;;;;;;;;;;;;;;;
2291.0;2215.4;;;;-0.34127048;0.81367886;0.14351274;;;;;;;;;;;;;;;
2291.0;2215.4;;;;-0.34172443;0.8089181;0.14194109;;;;;;;;;;;;;;;
2291.0;2215.4;;;;-0.34165195;0.8047372;0.14105989;;;;;;;;;;;;;;;
2291.0;2215.4;;;;-0.3420258;0.80064785;0.1393242;;;;;;;;;;;;;;;
2291.0;2215.7;;;;;;;;;;;;;;;;;13.061922;-16.548662;-76.6625;;2140.5
2291.0;2215.7;;;;;;;;;;;;;;0.9783624;-0.011108737;-0.02929777;;;;;2140.5
2291.0;2215.7;;;;;;;;;;;;;;;;;5.664998;-16.907255;-72.985016;;2140.5
2291.0;2215.7;;;;;;;;;;;;;;0.9935606;0.022034364;-0.036133915;;;;;2140.5
2291.0;2215.7;;;;;;;;;;;;;;;;;0.0;-11.894589;-71.27216;;2150.1
2291.0;2215.7;;;;;;;;;;;;;;0.98422194;0.09582812;-0.034913175;;;;;2150.1
2291.0;2215.7;;;;;;;;;;;;;;;;;-5.2949615;-6.0312204;-69.620346;;2150.1
2291.0;2215.7;;;;;;;;;;;;;;0.93472093;0.18543047;-0.024231697;;;;;2150.1
2291.0;2215.7;;;;;;;;;;;;;;;;;-11.463515;-7.477035;-67.53747;;2159.7
2291.0;2215.7;;;;;;;;;;;;;;0.8942534;0.23865475;-0.06146428;;;;;2159.7
2291.0;2215.7;;;;;;;;;;;;;;;;;-15.076143;-10.025331;-64.424576;;2159.7
2291.0;2215.7;;;;;;;;;;;;;;0.87063205;0.24317148;-0.09228797;;;;;2159.7
2341.0;2221.0;;;;;;;;;;32.97525;53.338726;-75.178535;;;;;;;;;
2341.0;2221.0;;;;;;;0.39350566;-1.0459914;0.040040284;;;;;;;;;;;;
2341.0;2221.0;;;;;;;;;;33.471176;51.168095;-75.66302;;;;;;;;;
2341.0;2221.0;;;;;;;0.39149144;-1.0282906;0.03295999;;;;;;;;;;;;
2341.0;2220.7;262143;262143;11465;;;;;;;;;;;;;;;;;;
2341.0;2225.3;;;;-0.34249118;0.79682934;0.13704301;;;;;;;;;;;;;;;
2341.0;2225.3;;;;-0.34274676;0.7937013;0.1347275;;;;;;;;;;;;;;;
2341.0;2225.3;;;;-0.34287265;0.7910806;0.13194658;;;;;;;;;;;;;;;
2341.0;2225.3;;;;-0.34328082;0.78933346;0.12954332;;;;;;;;;;;;;;;
2341.0;2225.3;;;;-0.34403995;0.7874032;0.12683488;;;;;;;;;;;;;;;
2341.0;2230.4;;;;;;;;;;33.92132;49.06995;-76.22379;;;;;;;;;
2341.0;2230.4;;;;;;;0.3894162;-1.0112003;0.025208289;;;;;;;;;;;;
2341.0;2230.4;;;;;;;;;;34.26847;46.93747;-76.76931;;;;;;;;;
2341.0;2230.4;;;;;;;0.38666952;-0.99362165;0.02008118;;;;;;;;;;;;
2341.0;2235.1;;;;-0.345192;0.78601086;0.12506105;;;;;;;;;;;;;;;
2341.0;2235.1;;;;-0.34667972;0.7850152;0.123229995;;;;;;;;;;;;;;;
2341.0;2235.1;;;;-0.34808734;0.7842561;0.12220003;;;;;;;;;;;;;;;
2341.0;2235.1;;;;-0.3499489;0.7839204;0.121933;;;;;;;;;;;;;;;
2341.0;2235.1;;;;-0.351841;0.78426373;0.12100984;;;;;;;;;;;;;;;
2341.0;2239.9;;;;;;;;;;34.531693;44.61806;-77.429276;;;;;;;;;
2341.0;2239.9;;;;;;;0.380871;-0.97579885;0.017700735;;;;;;;;;;;;
2341.0;2239.9;;;;;;;;;;34.703358;42.37495;-78.01294;;;;;;;;;
2341.0;2239.9;;;;;;;0.37586597;-0.9560839;0.014893033;;;;;;;;;;;;
2344.0;2240.6;262143;262143;11474;;;;;;;;;;;;;;;;;;
2344.0;2245.2;;;;-0.35369876;0.7844659;0.12114717;;;;;;;;;;;;;;;
2344.0;2245.2;;;;-0.35566333;0.78471386;0.12114717;;;;;;;;;;;;;;;
2344.0;2245.2;;;;-0.3570557;0.7856828;0.12109758;;;;;;;;;;;;;;;
2344.0;2245.2;;;;-0.3581772;0.7870408;0.121711746;;;;;;;;;;;;;;;
2344.0;2245.2;;;;-0.3599625;0.7888986;0.12175371;;;;;;;;;;;;;;;
2344.0;2246.1;;;;;;;;;;;;;-2446;;;;;;;;
2344.0;2246.1;;;;;;;;;;;;;-1608;;;;;;;;
2344.0;2246.1;;;;;;;;;;;;;-798;;;;;;;;
2344.0;2246.1;;;;;;;;;;;;;-127;;;;;;;;
2344.0;2246.1;;;;;;;;;;;;;577;;;;;;;;
2344.0;2249.5;;;;;;;;;;34.653767;40.101322;-78.711044;;;;;;;;;
2344.0;2249.5;;;;;;;0.3733024;-0.9350261;0.014893033;;;;;;;;;;;;
2344.0;2249.5;;;;;;;;;;34.455395;38.04514;-79.45112;;;;;;;;;
2344.0;2249.5;;;;;;;0.37202063;-0.9185461;0.015686514;;;;;;;;;;;;
2344.0;2255.3;;;;-0.36153033;0.79159176;0.12157442;;;;;;;;;;;;;;;
2344.0;2255.3;;;;-0.36346057;0.79478467;0.12239839;;;;;;;;;;;;;;;
2344.0;2255.3;;;;-0.36485675;0.7985536;0.12321092;;;;;;;;;;;;;;;
2344.0;2255.3;;;;-0.36667255;0.802662;0.122589126;;;;;;;;;;;;;;;
2344.0;2255.3;;;;-0.36835864;0.8074838;0.12117006;;;;;;;;;;;;;;;
2344.0;2259.1;;;;;;;;;;34.043396;36.332287;-80.24842;;;;;;;;;
2344.0;2259.1;;;;;;;0.36988434;-0.9005402;0.016846217;;;;;;;;;;;;
2344.0;2259.1;;;;;;;;;;33.57799;35.000916;-80.91601;;;;;;;;;
2344.0;2259.1;;;;;;;0.37238684;-0.887051;0.02069155;;;;;;;;;;;;
2345.0;2260.7;;;;;;;;;;;;;;;;;-20.428328;-10.193182;-61.048462;;2169.3
2345.0;2260.7;;;;;;;;;;;;;;0.8554338;0.24597919;-0.08429212;;;;;2169.3
2345.0;2260.7;;;;;;;;;;;;;;;;;-26.249733;-10.719626;-58.076725;;2169.3
2345.0;2260.7;;;;;;;;;;;;;;0.8469497;0.21875668;-0.07129124;;;;;2169.3
2345.0;2260.7;;;;;;;;;;;;;;;;;-28.95825;-9.632405;-56.26087;;2179.0
2345.0;2260.7;;;;;;;;;;;;;;0.84200567;0.21802424;-0.05023347;;;;;2179.0
2345.0;2260.7;;;;;;;;;;;;;;;;;-29.358807;-8.152257;-54.479355;;2179.0
2345.0;2260.7;;;;;;;;;;;;;;0.8026368;0.18323313;-0.044557024;;;;;2179.0
2345.0;2260.7;;;;;;;;;;;;;;;;;-28.67977;-7.694479;-54.853203;;2188.7
2345.0;2260.7;;;;;;;;;;;;;;0.8110599;0.24134037;0.015320292;;;;;2188.7
2345.0;2260.7;;;;;;;;;;;;;;;;;-29.168066;-7.8852196;-52.079838;;2188.7
2345.0;2260.7;;;;;;;;;;;;;;0.8089236;0.20307016;0.009033479;;;;;2188.7
2345.0;2260.7;262143;262143;11471;;;;;;;;;;;;;;;;;;
2345.0;2265.3;;;;-0.37017825;0.81188595;0.11911775;;;;;;;;;;;;;;;
2345.0;2265.3;;;;-0.37171176;0.8164636;0.11678316;;;;;;;;;;;;;;;
2345.0;2265.3;;;;-0.37313464;0.82097256;0.115749374;;;;;;;;;;;;;;;
2345.0;2265.3;;;;-0.37466052;0.8253671;0.114677444;;;;;;;;;;;;;;;
2345.0;2265.3;;;;-0.376175;0.82919323;0.113647476;;;;;;;;;;;;;;;
2345.0;2268.6;;;;;;;;;;33.02866;33.803066;-81.49968;;;;;;;;;
2345.0;2268.6;;;;;;;0.37604907;-0.8752098;0.024048585;;;;;;;;;;;;
2345.0;2268.6;;;;;;;;;;32.559437;32.868435;-81.87734;;;;;;;;;
2345.0;2268.6;;;;;;;0.37861264;-0.867275;0.026062807;;;;;;;;;;;;
2347.0;2275.3;;;;-0.37759405;0.8327066;0.11305238;;;;;;;;;;;;;;;
