patientId;holterMac;flexMac;;;;;;;;;;;;;;;;;;;;
;CA:F3:0B:1E:33:78;D3:4A:5C:52:80:78;;;;;;;;;;;;;;;;;;;;
receivedTimeStamp;timeStamp;red;ir;green;adxl_accX;adxl_accY;adxl_accZ;lsm_accelX;lsm_accelY;lsm_accelZ;lsm_gyroX;lsm_gyroY;lsm_gyroZ;ecg;flex_lsm_accelX;flex_lsm_accelY;flex_lsm_accelZ;flex_lsm_gyroX;flex_lsm_gyroY;flex_lsm_gyroZ;flex_cmd;flexTimeStamp
275.0;218.2;;;;;;;;;;;;;;;;;;;;17;0.1
275.0;218.2;;;;;;;;;;;;;;;;;13.336589;0.3318888;0.84688866;;127.4
275.0;218.2;;;;;;;;;;;;;;0.9173254;-0.030945769;-0.16583759;;;;;127.4
275.0;218.2;;;;;;;;;;;;;;;;;-5.4971466;-16.83096;-7.003998;;127.4
275.0;218.2;;;;;;;;;;;;;;0.9485153;-0.024842067;-0.16632588;;;;;127.4
275.0;218.2;;;;;;;;;;;;;;;;;-65.68728;-84.52864;-60.914944;;137.0
275.0;218.2;;;;;;;;;;;;;;0.94466996;-0.017578661;-0.17267373;;;;;137.0
275.0;218.2;;;;;;;;;;;;;;;;;-122.54326;-124.988556;-119.62112;;137.0
275.0;218.2;;;;;;;;;;;;;;0.9425337;-0.0114139225;-0.17456588;;;;;137.0
340.0;218.9;;;;;;;;;;;;;;;;;-65.46983;-124.87411;-75.21668;;146.7
340.0;218.9;;;;;;;;;;;;;;0.9443648;-0.0126957;-0.16895047;;;;;146.7
340.0;218.9;;;;;;;;;;;;;;;;;-9.483627;-124.90845;-23.85403;;146.7
340.0;218.9;;;;;;;;;;;;;;0.9418012;-0.013367107;-0.16016114;;;;;146.7
340.0;218.9;;;;;;;;;;;;;;;;;-18.444624;-97.86905;-14.076662;;156.4
340.0;218.9;;;;;;;;;;;;;;0.9400311;-0.0074465163;-0.15527818;;;;;156.4
340.0;218.9;;;;;;;;;;;;;;;;;-27.298807;-9.796441;11.417737;;156.4
340.0;218.9;;;;;;;;;;;;;;0.9470504;-0.0044557024;-0.15314189;;;;;156.4
340.0;218.9;;;;;;;;;;;;;;;;;-27.367474;-1.9951477;13.5883665;;165.9
340.0;218.9;;;;;;;;;;;;;;0.9515061;-0.003051851;-0.15295877;;;;;165.9
340.0;218.9;;;;;;;;;;;;;;;;;-26.242104;-1.4915922;13.706625;;165.9
340.0;218.9;;;;;;;;;;;;;;0.95364237;-0.0051271096;-0.15503404;;;;;165.9
340.0;278.5;;;;;;;;;;;;;;;;;-25.66225;-1.3885921;14.259773;;175.6
340.0;278.5;;;;;;;;;;;;;;0.96047854;-0.010742515;-0.16083254;;;;;175.6
340.0;278.5;;;;;;;;;;;;;;;;;-25.944548;-0.57222205;14.347514;;175.6
340.0;278.5;;;;;;;;;;;;;;0.9697562;-0.01678518;-0.15863521;;;;;175.6
340.0;278.5;;;;;;;;;;;;;;;;;-26.406141;0.7896664;14.484848;;185.2
340.0;278.5;;;;;;;;;;;;;;0.974395;-0.019714957;-0.14960173;;;;;185.2
340.0;278.5;;;;;;;;;;;;;;;;;-26.234474;1.4687033;14.522996;;185.2
340.0;278.5;;;;;;;;;;;;;;0.9745781;-0.021057772;-0.1518601;;;;;185.2
340.0;278.5;;;;;;;;;;;;;;;;;-25.414288;0.9537034;14.305552;;194.9
340.0;278.5;;;;;;;;;;;;;;0.9847102;-0.02252266;-0.18604083;;;;;194.9
340.0;278.5;;;;;;;;;;;;;;;;;-23.579363;1.9302957;14.347514;;194.9
340.0;278.5;;;;;;;;;;;;;;0.9861141;-0.021607105;-0.20526749;;;;;194.9
400.0;279.3;;;;;;;;;;;;;;;;;-21.18366;3.0899992;14.545885;;204.6
400.0;279.3;;;;;;;;;;;;;;0.98690754;-0.023438215;-0.19409773;;;;;204.6
400.0;279.3;;;;;;;;;;;;;;;;;-19.04355;3.4333322;14.469588;;204.6
400.0;279.3;;;;;;;;;;;;;;0.99069184;-0.03485214;-0.17859432;;;;;204.6
400.0;279.3;;;;;;;;;;;;;;;;;-17.010254;3.1815546;14.366589;;214.2
400.0;279.3;;;;;;;;;;;;;;0.98532057;-0.040467545;-0.17761773;;;;;214.2
400.0;279.3;;;;;;;;;;;;;;;;;-15.022736;2.189703;14.5497;;214.2
400.0;279.3;;;;;;;;;;;;;;0.98080385;-0.042847987;-0.20532854;;;;;214.2
400.0;279.3;;;;;;;;;;;;;;;;;-13.557848;2.582629;14.702292;;223.8
400.0;279.3;;;;;;;;;;;;;;0.97018343;-0.041444138;-0.20581684;;;;;223.8
400.0;279.3;;;;;;;;;;;;;;;;;-12.714774;2.5635548;14.896848;;223.8
400.0;279.3;;;;;;;;;;;;;;0.9650563;-0.037720878;-0.19409773;;;;;223.8
400.0;338.6;;;;;;;;;;;;;;;;;-12.241737;2.0447402;15.087587;;233.3
400.0;338.6;;;;;;;;;;;;;;0.96267587;-0.028138066;-0.18671224;;;;;233.3
400.0;338.6;;;;;;;;;;;;;;;;;-12.10059;0.9346294;15.186773;;233.3
400.0;338.6;;;;;;;;;;;;;;0.9558397;-0.018555254;-0.19055757;;;;;233.3
400.0;338.6;;;;;;;;;;;;;;;;;-12.031922;0.049592577;15.633106;;243.0
400.0;338.6;;;;;;;;;;;;;;0.9569994;-0.009399701;-0.20209357;;;;;243.0
400.0;338.6;;;;;;;;;;;;;;;;;-11.951812;0.32044435;15.995514;;243.0
400.0;338.6;;;;;;;;;;;;;;0.9515671;7.324442E-4;-0.19806513;;;;;243.0
400.0;338.6;;;;;;;;;;;;;;;;;-11.860256;0.48829615;16.487625;;252.7
400.0;338.6;;;;;;;;;;;;;;0.9508347;0.011841182;-0.19214454;;;;;252.7
400.0;338.6;;;;;;;;;;;;;;;;;-11.98996;1.167333;17.082735;;252.7
400.0;338.6;;;;;;;;;;;;;;0.9470504;0.02069155;-0.17413862;;;;;252.7
459.0;339.8;;;;;;;;;;;;;;;;;-12.779626;1.0490738;17.49855;;262.3
459.0;339.8;;;;;;;;;;;;;;0.9391156;0.029725028;-0.16241951;;;;;262.3
459.0;339.8;;;;;;;;;;;;;;;;;-12.760551;-0.7095553;18.047884;;262.3
459.0;339.8;;;;;;;;;;;;;;0.9353923;0.036378063;-0.18164617;;;;;262.3
459.0;339.8;;;;;;;;;;;;;;;;;-12.2646265;-2.2888882;18.73455;;271.9
459.0;339.8;;;;;;;;;;;;;;0.93295085;0.044923246;-0.20728172;;;;;271.9
459.0;339.8;;;;;;;;;;;;;;;;;-12.161627;-2.66274;19.333477;;271.9
459.0;339.8;;;;;;;;;;;;;;0.93447673;0.049867246;-0.21857357;;;;;271.9
459.0;339.8;;;;;;;;;;;;;;;;;-12.237923;-2.1019626;19.707327;;281.6
459.0;339.8;;;;;;;;;;;;;;0.9306314;0.055604726;-0.2038026;;;;;281.6
459.0;339.8;;;;;;;;;;;;;;;;;-12.138738;-3.4485915;20.14603;;281.6
459.0;339.8;;;;;;;;;;;;;;0.93276775;0.065187536;-0.20770897;;;;;281.6
459.0;399.0;;;;;;;;;;;;;;;;;-12.028108;-4.8028507;20.825068;;291.2
459.0;399.0;;;;;;;;;;;;;;0.923307;0.06060976;-0.22864467;;;;;291.2
459.0;399.0;;;;;;;;;;;;;;;;;-12.646107;-4.894406;21.099735;;291.2
459.0;399.0;;;;;;;;;;;;;;0.93868834;0.07885983;-0.22876675;;;;;291.2
459.0;399.0;;;;;;;;;;;;;;;;;-14.450515;-4.093295;21.347698;;300.9
459.0;399.0;;;;;;;;;;;;;;0.95541245;0.08563494;-0.22937712;;;;;300.9
459.0;399.0;;;;;;;;;;;;;;;;;-15.533921;-3.3455918;21.30955;;300.9
459.0;399.0;;;;;;;;;;;;;;0.95974606;0.10052797;-0.2369457;;;;;300.9
459.0;399.0;;;;;;;;;;;;;;;;;-16.129032;-2.3003328;21.629993;;310.2
459.0;399.0;;;;;;;;;;;;;;0.9588916;0.1076693;-0.23841059;;;;;310.2
459.0;399.0;;;;;;;;;;;;;;;;;-16.850033;-1.3771478;21.988586;;310.2
459.0;399.0;;;;;;;;;;;;;;0.957976;0.114749596;-0.23981445;;;;;310.2
519.0;399.8;;;;;;;;;;;;;;;;;-17.93344;-1.0986663;22.43492;;319.9
519.0;399.8;;;;;;;;;;;;;;0.9609668;0.111880854;-0.24011964;;;;;319.9
519.0;399.8;;;;;;;;;;;;;;;;;-18.745995;-0.98803675;22.63329;;319.9
519.0;399.8;;;;;;;;;;;;;;0.96084476;0.1126133;-0.24475844;;;;;319.9
519.0;399.8;;;;;;;;;;;;;;;;;-19.737844;-0.88503677;22.766808;;329.6
519.0;399.8;;;;;;;;;;;;;;0.9565722;0.11047701;-0.25067905;;;;;329.6
519.0;399.8;;;;;;;;;;;;;;;;;-20.790735;-1.2016664;23.060549;;329.6
519.0;399.8;;;;;;;;;;;;;;0.96029544;0.103518784;-0.2567217;;;;;329.6
519.0;399.8;;;;;;;;;;;;;;;;;-21.614735;-1.9531846;23.304697;;339.2
519.0;399.8;;;;;;;;;;;;;;0.9567553;0.09869686;-0.27558213;;;;;339.2
519.0;399.8;;;;;;;;;;;;;;;;;-22.02292;-1.7509995;22.637104;;339.2
519.0;399.8;;;;;;;;;;;;;;0.9355754;0.11255226;-0.27857295;;;;;339.2
519.0;459.1;;;;;;;;;;;;;;;;;-23.22077;-1.5221107;21.320993;;348.9
519.0;459.1;;;;;;;;;;;;;;0.92287976;0.13507493;-0.26917326;;;;;348.9
519.0;459.1;;;;;;;;;;;;;;;;;-25.078585;-3.5058138;20.870846;;348.9
519.0;459.1;;;;;;;;;;;;;;0.9151891;0.15063937;-0.27167577;;;;;348.9
519.0;459.1;;;;;;;;;;;;;;;;;-26.646475;-5.5238504;20.390179;;358.5
519.0;459.1;;;;;;;;;;;;;;0.9139073;0.14612262;-0.2891934;;;;;358.5
519.0;459.1;;;;;;;;;;;;;;;;;-24.903103;-6.6873684;19.020662;;358.5
519.0;459.1;;;;;;;;;;;;;;0.91036713;0.16492203;-0.27564317;;;;;358.5
519.0;459.1;;;;;;;;;;;;;;;;;-26.03229;-8.365887;17.239141;;368.2
519.0;459.1;;;;;;;;;;;;;;0.9065218;0.18231757;-0.2666097;;;;;368.2
519.0;459.1;;;;;;;;;;;;;;;;;-26.799067;-9.887997;15.522477;;368.2
519.0;459.1;;;;;;;;;;;;;;0.90499586;0.19129002;-0.2580645;;;;;368.2
577.0;460.3;;;;;;;;;;;;;;;;;-28.122807;-11.577959;13.283181;;377.7
577.0;460.3;;;;;;;;;;;;;;0.9119541;0.20404676;-0.24719992;;;;;377.7
577.0;460.3;;;;;;;;;;;;;;;;;-30.049286;-13.256477;10.776849;;377.7
577.0;460.3;;;;;;;;;;;;;;0.9252602;0.22254097;-0.25049594;;;;;377.7
577.0;460.3;;;;;;;;;;;;;;;;;-31.594288;-13.565478;8.6405525;;387.3
577.0;460.3;;;;;;;;;;;;;;0.9361858;0.245674;-0.24085207;;;;;387.3
577.0;460.3;;;;;;;;;;;;;;;;;-34.329506;-13.134403;6.7102575;;387.3
577.0;460.3;;;;;;;;;;;;;;0.95016325;0.260506;-0.24323252;;;;;387.3
577.0;460.3;;;;;;;;;;;;;;;;;-36.35136;-11.406293;3.78811;;397.0
577.0;460.3;;;;;;;;;;;;;;0.9614551;0.26435134;-0.23419905;;;;;397.0
577.0;460.3;;;;;;;;;;;;;;;;;-38.777584;-8.762627;-1.6632588;;397.0
577.0;460.3;;;;;;;;;;;;;;0.976104;0.2959685;-0.22113712;;;;;397.0
577.0;519.4;;;;;;;;;;;;;;;;;-41.600544;-5.855739;-3.151036;;406.6
577.0;519.4;;;;;;;;;;;;;;0.9672536;0.30597857;-0.1915952;;;;;406.6
577.0;519.4;;;;;;;;;;;;;;;;;-45.567947;-4.749443;-5.2415543;;406.6
577.0;519.4;;;;;;;;;;;;;;0.9814142;0.32197028;-0.18689536;;;;;406.6
577.0;519.4;;;;;;;;;;;;;;;;;-50.321205;-2.0561848;-5.94348;;416.3
577.0;519.4;;;;;;;;;;;;;;0.9939268;0.32898954;-0.18506424;;;;;416.3
577.0;519.4;;;;;;;;;;;;;;;;;-55.05539;1.8539995;-5.272073;;416.3
577.0;519.4;;;;;;;;;;;;;;1.0045472;0.32996613;-0.16797388;;;;;416.3
577.0;519.4;;;;;;;;;;;;;;;;;-59.682762;5.279702;-4.154332;;425.9
577.0;519.4;;;;;;;;;;;;;;0.9963683;0.2954192;-0.15454574;;;;;425.9
577.0;519.4;;;;;;;;;;;;;;;;;-62.753685;7.7097383;-5.3102207;;425.9
577.0;519.4;;;;;;;;;;;;;;0.98660237;0.26154363;-0.15149388;;;;;425.9
640.0;520.2;;;;;;;;;;;;;;;;;-65.897095;10.380108;-8.09122;;435.6
640.0;520.2;;;;;;;;;;;;;;0.9812311;0.24652852;-0.156621;;;;;435.6
640.0;520.2;;;;;;;;;;;;;;;;;-69.54787;13.843959;-10.887479;;435.6
640.0;520.2;;;;;;;;;;;;;;0.9745781;0.22632527;-0.16211432;;;;;435.6
640.0;520.2;;;;;;;;;;;;;;;;;-72.56157;17.548143;-13.817255;;445.3
640.0;520.2;;;;;;;;;;;;;;0.9729911;0.21057771;-0.16034424;;;;;445.3
640.0;520.2;;;;;;;;;;;;;;;;;-74.88098;21.29429;-17.021698;;445.3
640.0;520.2;;;;;;;;;;;;;;0.97006136;0.20032349;-0.15881832;;;;;445.3
640.0;520.2;;;;;;;;;;;;;;;;;-76.265755;25.3914;-20.523697;;454.9
640.0;520.2;;;;;;;;;;;;;;0.96609396;0.19965209;-0.1535081;;;;;454.9
640.0;520.2;;;;;;;;;;;;;;;;;-77.085945;30.17136;-24.536882;;454.9
640.0;520.2;;;;;;;;;;;;;;0.9671926;0.20093387;-0.14514603;;;;;454.9
640.0;534.4;;;;;;;;;;;;;;;;;-76.33824;35.927914;-28.111362;;464.5
640.0;534.4;;;;;;;;;;;;;;0.9686575;0.21149327;-0.11816767;;;;;464.5
640.0;534.4;;;;;;;;;;;;;;;;;-74.47661;39.944912;-31.430248;;464.5
640.0;534.4;;;;;;;;;;;;;;0.97323525;0.20978424;-0.10180975;;;;;464.5
640.0;534.4;;;;;;;;;;;;;;;;;-71.70324;42.72973;-34.8941;;474.0
640.0;534.4;;;;;;;;;;;;;;0.9765923;0.21723075;-0.09985656;;;;;474.0
640.0;534.4;;;;;;;;;;;;;;;;;-68.628494;43.05399;-38.495285;;474.0
640.0;534.4;;;;;;;;;;;;;;0.98458815;0.2273629;-0.11938841;;;;;474.0
640.0;534.4;;;;;;;;;;;;;;;;;-64.74502;41.611988;-41.88284;;483.7
640.0;534.4;;;;;;;;;;;;;;0.99575794;0.25171667;-0.14764854;;;;;483.7
640.0;534.4;;;;;;;;;;;;;;;;;-61.368908;39.551987;-44.721058;;483.7
640.0;534.4;;;;;;;;;;;;;;1.0039979;0.2652669;-0.17358929;;;;;483.7
701.0;579.6;;;;;;;;;;;;;;;;;-57.397686;36.385693;-48.310802;;493.4
701.0;579.6;;;;;;;;;;;;;;1.0049745;0.27393416;-0.19287698;;;;;493.4
701.0;579.6;;;;;;;;;;;;;;;;;-53.495132;31.105991;-53.914764;;493.4
701.0;579.6;;;;;;;;;;;;;;1.0113834;0.29468673;-0.20960112;;;;;493.4
701.0;579.6;;;;;;;;;;;;;;;;;-48.699913;22.991882;-60.304573;;502.9
701.0;579.6;;;;;;;;;;;;;;1.0258492;0.3202002;-0.23932615;;;;;502.9
701.0;579.6;;;;;;;;;;;;;;;;;-45.53743;13.859218;-66.167946;;502.9
701.0;579.6;;;;;;;;;;;;;;1.0476394;0.34449294;-0.27344584;;;;;502.9
701.0;579.6;;;;;;;;;;;;;;;;;-42.046875;3.7728508;-71.62312;;512.6
701.0;579.6;;;;;;;;;;;;;;1.0648519;0.31537828;-0.33527634;;;;;512.6
701.0;579.6;;;;;;;;;;;;;;;;;-34.756767;-3.9368877;-81.404305;;512.6
701.0;579.6;;;;;;;;;;;;;;1.089877;0.32453382;-0.34858242;;;;;512.6
701.0;595.0;;;;;;;;;;;;;;;;;-35.63799;-9.647664;-92.249825;;522.3
701.0;595.0;;;;;;;;;;;;;;1.1296121;0.37202063;-0.37153232;;;;;522.3
701.0;595.0;;;;;;;;;;;;;;;;;-40.547653;-13.260293;-99.147;;522.3
701.0;595.0;;;;;;;;;;;;;;1.1645253;0.3968627;-0.38984343;;;;;522.3
701.0;595.0;;;;;;;;;;;;;;;;;-46.491135;-13.889736;-103.14874;;531.9
701.0;595.0;;;;;;;;;;;;;;1.1955931;0.41749322;-0.3965575;;;;;531.9
701.0;595.0;;;;;;;;;;;;;;;;;-54.06354;-10.792109;-103.47301;;531.9
701.0;595.0;;;;;;;;;;;;;;1.2259896;0.43848994;-0.39796138;;;;;531.9
701.0;595.0;;;;;;;;;;;;;;;;;-60.811943;-3.1586657;-99.494156;;541.5
701.0;595.0;;;;;;;;;;;;;;1.2507706;0.43836787;-0.39863276;;;;;541.5
701.0;595.0;;;;;;;;;;;;;;;;;-62.48665;4.3298135;-91.956085;;541.5
701.0;595.0;;;;;;;;;;;;;;1.2627949;0.3998535;-0.36255988;;;;;541.5
760.0;640.0;;;;;;;;;;;;;;;;;-62.639244;8.247627;-84.79568;;551.2
760.0;640.0;;;;;;;;;;;;;;1.2623066;0.31586656;-0.34205145;;;;;551.2
760.0;640.0;;;;;;;;;;;;;;;;;-63.070312;14.152959;-81.282234;;551.2
760.0;640.0;;;;;;;;;;;;;;1.2775658;0.24726096;-0.3263039;;;;;551.2
760.0;640.0;;;;;;;;;;;;;;;;;-63.268684;21.778772;-78.16553;;560.8
760.0;640.0;;;;;;;;;;;;;;1.2858058;0.2059389;-0.2862636;;;;;560.8
760.0;640.0;;;;;;;;;;;;;;;;;-68.80016;29.667807;-75.849945;;560.8
760.0;640.0;;;;;;;;;;;;;;1.274514;0.18115787;-0.20947905;;;;;560.8
760.0;640.0;;;;;;;;;;;;;;;;;-77.48268;28.778955;-74.12946;;570.4
760.0;640.0;;;;;;;;;;;;;;1.2397839;0.13690603;-0.17249061;;;;;570.4
760.0;640.0;;;;;;;;;;;;;;;;;-80.09201;21.393476;-74.72457;;570.4
760.0;640.0;;;;;;;;;;;;;;1.2176275;0.097720265;-0.15271463;;;;;570.4
760.0;655.0;;;;;;;;;;;;;;;;;-77.91376;12.596515;-76.17802;;580.0
760.0;655.0;;;;;;;;;;;;;;1.19364;0.0629902;-0.13238929;;;;;580.0
760.0;655.0;;;;;;;;;;;;;;;;;-73.54961;2.254555;-78.55083;;580.0
760.0;655.0;;;;;;;;;;;;;;1.1819819;0.03442488;-0.15497299;;;;;580.0
760.0;655.0;;;;;;;;;;;;;;;;;-65.969574;-6.061739;-83.95261;;589.7
760.0;655.0;;;;;;;;;;;;;;1.1823481;0.030945769;-0.19367047;;;;;589.7
760.0;655.0;;;;;;;;;;;;;;;;;-55.970947;-12.722404;-87.63772;;589.7
760.0;655.0;;;;;;;;;;;;;;1.1605579;0.020386364;-0.23920408;;;;;589.7
760.0;655.0;;;;;;;;;;;;;;;;;-46.87643;-17.391735;-92.99371;;599.3
760.0;655.0;;;;;;;;;;;;;;1.1397443;0.030152287;-0.28254035;;;;;599.3
760.0;655.0;;;;;;;;;;;;;;;;;-40.85284;-18.032623;-100.638596;;599.3
760.0;655.0;;;;;;;;;;;;;;1.1333964;0.061159093;-0.32825708;;;;;599.3
820.0;700.2;;;;;;;;;;;;;;;;;-37.850582;-15.892513;-104.525894;;608.9
820.0;700.2;;;;;;;;;;;;;;1.096347;0.08978546;-0.33246863;;;;;608.9
820.0;700.2;;;;;;;;;;;;;;;;;-38.6021;-19.062624;-106.40279;;608.9
820.0;700.2;;;;;;;;;;;;;;1.0625935;0.1098056;-0.34864345;;;;;608.9
820.0;700.2;;;;;;;;;;;;;;;;;-39.75036;-25.006104;-106.73467;;618.5
820.0;700.2;;;;;;;;;;;;;;1.0292672;0.1271401;-0.3632313;;;;;618.5
820.0;700.2;;;;;;;;;;;;;;;;;-40.967285;-35.3061;-107.91727;;618.5
820.0;700.2;;;;;;;;;;;;;;1.0044862;0.16742454;-0.38868374;;;;;618.5
820.0;700.2;;;;;;;;;;;;;;;;;-46.83447;-49.272137;-110.36256;;628.1
820.0;700.2;;;;;;;;;;;;;;0.99807733;0.25342572;-0.4219489;;;;;628.1
820.0;700.2;;;;;;;;;;;;;;;;;-60.67461;-59.80865;-114.6237;;628.1
820.0;700.2;;;;;;;;;;;;;;1.0077822;0.32721946;-0.48841822;;;;;628.1
820.0;715.7;;;;;;;;;;;;;;;;;-72.03894;-64.62295;-117.23304;;637.8
820.0;715.7;;;;;;;;;;;;;;1.0058901;0.37696463;-0.550676;;;;;637.8
820.0;715.7;;;;;;;;;;;;;;;;;-76.64724;-68.31187;-117.7633;;637.8
820.0;715.7;;;;;;;;;;;;;;1.0157781;0.44563127;-0.61323893;;;;;637.8
820.0;715.7;;;;;;;;;;;;;;;;;-80.04242;-66.01535;-115.29893;;647.4
820.0;715.7;;;;;;;;;;;;;;0.9998474;0.49488816;-0.6609088;;;;;647.4
820.0;715.7;;;;;;;;;;;;;;;;;-81.15634;-56.43635;-109.53093;;647.4
820.0;715.7;;;;;;;;;;;;;;0.97116;0.53279215;-0.66060364;;;;;647.4
820.0;715.7;;;;;;;;;;;;;;;;;-82.296974;-44.949947;-99.3263;;657.1
820.0;715.7;;;;;;;;;;;;;;0.9515061;0.52571183;-0.6335032;;;;;657.1
820.0;715.7;;;;;;;;;;;;;;;;;-86.65731;-32.09403;-89.457375;;657.1
820.0;715.7;;;;;;;;;;;;;;0.9506516;0.44672993;-0.60304576;;;;;657.1
880.0;760.5;;;;;;;;;;;;;;;;;-94.30982;-16.235847;-85.50523;;666.8
880.0;760.5;;;;;;;;;;;;;;0.98355055;0.4354381;-0.560564;;;;;666.8
880.0;760.5;;;;;;;;;;;;;;;;;-108.84808;2.0447402;-82.33131;;666.8
880.0;760.5;;;;;;;;;;;;;;1.0193793;0.45912045;-0.4822535;;;;;666.8
880.0;760.5;;;;;;;;;;;;;;;;;-122.966705;19.38307;-78.84457;;676.1
880.0;760.5;;;;;;;;;;;;;;1.0825526;0.47248757;-0.3965575;;;;;676.1
880.0;760.5;;;;;;;;;;;;;;;;;-124.988556;36.56499;-75.58291;;676.1
880.0;760.5;;;;;;;;;;;;;;1.1307718;0.4603412;-0.31189916;;;;;676.1
880.0;760.5;;;;;;;;;;;;;;;;;-124.988556;41.974396;-68.87264;;685.8
880.0;760.5;;;;;;;;;;;;;;1.1472518;0.45765558;-0.2491531;;;;;685.8
880.0;760.5;;;;;;;;;;;;;;;;;-124.988556;38.743248;-58.35902;;685.8
880.0;760.5;;;;;;;;;;;;;;1.1199683;0.45142978;-0.18524735;;;;;685.8
880.0;768.0;;;;;;;;;;;;;;;;;-124.988556;34.195988;-51.06128;;695.4
880.0;768.0;;;;;;;;;;;;;;1.130894;0.42231512;-0.14661092;;;;;695.4
880.0;768.0;;;;;;;;;;;;;;;;;-124.988556;28.614918;-45.144505;;695.4
880.0;768.0;;;;;;;;;;;;;;1.1288186;0.3651845;-0.118228704;;;;;695.4
880.0;768.0;;;;;;;;;;;;;;;;;-124.988556;22.049623;-42.69158;;705.1
880.0;768.0;;;;;;;;;;;;;;1.118015;0.31366923;-0.102053896;;;;;705.1
880.0;768.0;;;;;;;;;;;;;;;;;-124.988556;18.665884;-47.14728;;705.1
880.0;768.0;;;;;;;;;;;;;;1.106357;0.2102115;-0.14801477;;;;;705.1
880.0;768.0;;;;;;;;;;;;;;;;;-124.988556;21.076845;-60.76998;;714.7
880.0;768.0;;;;;;;;;;;;;;1.064974;0.17987609;-0.10309152;;;;;714.7
880.0;768.0;;;;;;;;;;;;;;;;;-124.988556;16.407515;-75.82706;;714.7
880.0;768.0;;;;;;;;;;;;;;1.0522782;0.23493148;-0.07440413;;;;;714.7
941.0;820.7;;;;;;;;;;;;;;;;;-124.988556;13.91644;-82.68609;;724.2
941.0;820.7;;;;;;;;;;;;;;1.0422071;0.27332377;-0.106387526;;;;;724.2
941.0;820.7;;;;;;;;;;;;;;;;;-124.988556;17.612995;-83.082825;;724.2
941.0;820.7;;;;;;;;;;;;;;1.0245063;0.2857143;-0.13068026;;;;;724.2
941.0;820.7;;;;;;;;;;;;;;;;;-124.988556;21.328623;-80.35905;;733.8
941.0;820.7;;;;;;;;;;;;;;1.0129093;0.2700278;-0.15955077;;;;;733.8
941.0;820.7;;;;;;;;;;;;;;;;;-124.988556;27.111881;-79.153564;;733.8
941.0;820.7;;;;;;;;;;;;;;1.0110782;0.2519608;-0.19507432;;;;;733.8
941.0;820.7;;;;;;;;;;;;;;;;;-124.988556;35.39384;-79.97757;;743.2
941.0;820.7;;;;;;;;;;;;;;1.0011902;0.26984465;-0.18262276;;;;;743.2
941.0;820.7;;;;;;;;;;;;;;;;;-124.988556;40.13947;-82.274086;;743.2
941.0;820.7;;;;;;;;;;;;;;0.97073275;0.28040406;-0.14984588;;;;;743.2
941.0;828.2;;;;;;;;;;;;;;;;;-124.988556;39.128544;-84.303566;;752.9
941.0;828.2;;;;;;;;;;;;;;0.9528489;0.30286568;-0.10669271;;;;;752.9
941.0;828.2;;;;;;;;;;;;;;;;;-124.988556;36.046173;-86.97012;;752.9
941.0;828.2;;;;;;;;;;;;;;0.9516892;0.3352153;-0.077455975;;;;;752.9
941.0;828.2;;;;;;;;;;;;;;;;;-124.988556;33.032475;-89.29334;;762.6
941.0;828.2;;;;;;;;;;;;;;0.94698936;0.34369946;-0.065187536;;;;;762.6
941.0;828.2;;;;;;;;;;;;;;;;;-124.988556;29.633474;-90.212715;;762.6
941.0;828.2;;;;;;;;;;;;;;0.9468673;0.31684315;-0.06738487;;;;;762.6
941.0;828.2;;;;;;;;;;;;;;;;;-124.988556;28.771324;-90.392006;;772.2
941.0;828.2;;;;;;;;;;;;;;0.9580371;0.30262154;-0.056093022;;;;;772.2
941.0;828.2;;;;;;;;;;;;;;;;;-124.95422;31.014435;-91.80349;;772.2
941.0;828.2;;;;;;;;;;;;;;0.9465011;0.3014008;-0.020508438;;;;;772.2
999.0;881.4;;;;;;;;;;;;;;;;;-122.154144;32.162693;-94.93927;;781.9
999.0;881.4;;;;;;;;;;;;;;0.92373425;0.30158392;0.019531846;;;;;781.9
999.0;881.4;;;;;;;;;;;;;;;;;-113.61278;28.798029;-96.980194;;781.9
999.0;881.4;;;;;;;;;;;;;;0.90878016;0.31653798;0.042298656;;;;;781.9
999.0;881.4;;;;;;;;;;;;;;;;;-107.34505;23.792994;-97.979675;;791.5
999.0;881.4;;;;;;;;;;;;;;0.9011505;0.32483903;0.032471694;;;;;791.5
999.0;881.4;;;;;;;;;;;;;;;;;-101.94708;20.126957;-97.68975;;791.5
999.0;881.4;;;;;;;;;;;;;;0.898648;0.31690422;0.015259255;;;;;791.5
999.0;881.4;;;;;;;;;;;;;;;;;-96.8772;17.212439;-96.964935;;801.2
999.0;881.4;;;;;;;;;;;;;;0.8959014;0.30561236;0.0054322947;;;;;801.2
999.0;881.4;;;;;;;;;;;;;;;;;-93.03949;12.050997;-96.121864;;801.2
999.0;881.4;;;;;;;;;;;;;;0.9007233;0.2990814;-0.01721244;;;;;801.2
999.0;888.4;;;;;;;;;;;;;;;;;-91.60512;8.568071;-95.58398;;810.8
999.0;888.4;;;;;;;;;;;;;;0.9191565;0.29505295;-0.047364727;;;;;810.8
999.0;888.4;;;;;;;;;;;;;;;;;-91.48686;10.86459;-95.06134;;810.8
999.0;888.4;;;;;;;;;;;;;;0.92623675;0.32227546;-0.03607288;;;;;810.8
999.0;888.4;;;;;;;;;;;;;;;;;-93.22642;16.697441;-94.41283;;820.5
999.0;888.4;;;;;;;;;;;;;;0.92898345;0.3602405;0.0076906644;;;;;820.5
999.0;888.4;;;;;;;;;;;;;;;;;-95.37416;21.847439;-92.96701;;820.5
999.0;888.4;;;;;;;;;;;;;;0.9346599;0.38282418;0.05389569;;;;;820.5
999.0;888.4;;;;;;;;;;;;;;;;;-97.59057;26.409956;-91.30756;;830.2
999.0;888.4;;;;;;;;;;;;;;0.9344157;0.38892788;0.08917508;;;;;830.2
999.0;888.4;;;;;;;;;;;;;;;;;-99.65437;29.618214;-91.08249;;830.2
999.0;888.4;;;;;;;;;;;;;;0.93295085;0.40711692;0.11334574;;;;;830.2
1060.0;941.3;;;;;;;;;;;;;;;;;-101.874596;32.319103;-91.03671;;839.8
1060.0;941.3;;;;;;;;;;;;;;0.92605364;0.41804254;0.12079226;;;;;839.8
1060.0;941.3;;;;;;;;;;;;;;;;;-102.81304;34.51262;-91.006195;;839.8
1060.0;941.3;;;;;;;;;;;;;;0.9119541;0.43354595;0.12604144;;;;;839.8
1060.0;941.3;;;;;;;;;;;;;;;;;-104.04904;36.435284;-91.02527;;849.4
1060.0;941.3;;;;;;;;;;;;;;0.89059114;0.43964964;0.13458663;;;;;849.4
1060.0;941.3;;;;;;;;;;;;;;;;;-105.77715;36.919765;-91.59367;;849.4
1060.0;941.3;;;;;;;;;;;;;;0.868862;0.44874418;0.13061923;;;;;849.4
1060.0;941.3;;;;;;;;;;;;;;;;;-106.582085;38.056583;-92.1163;;859.0
1060.0;941.3;;;;;;;;;;;;;;0.83278906;0.44752342;0.14136174;;;;;859.0
1060.0;941.3;;;;;;;;;;;;;;;;;-106.05945;37.58736;-91.4716;;859.0
1060.0;941.3;;;;;;;;;;;;;;0.7862789;0.45240638;0.16193122;;;;;859.0
1060.0;942.1;;;;;;;;;;;;;;;;;-105.296486;33.131657;-90.1326;;868.7
1060.0;942.1;;;;;;;;;;;;;;0.7536851;0.4753563;0.16266365;;;;;868.7
1060.0;942.1;;;;;;;;;;;;;;;;;-105.58641;23.857845;-87.85516;;868.7
1060.0;942.1;;;;;;;;;;;;;;0.7187109;0.4740745;0.121768855;;;;;868.7
1060.0;942.1;;;;;;;;;;;;;;;;;-105.05997;17.91055;-85.90579;;878.4
1060.0;942.1;;;;;;;;;;;;;;0.6883755;0.46589556;0.08899198;;;;;878.4
1060.0;942.1;;;;;;;;;;;;;;;;;-104.667046;17.998291;-83.1019;;878.4
1060.0;942.1;;;;;;;;;;;;;;0.6781823;0.46290475;0.10559405;;;;;878.4
1060.0;942.1;;;;;;;;;;;;;;;;;-101.03534;21.91992;-79.8326;;888.0
1060.0;942.1;;;;;;;;;;;;;;0.6670126;0.46308786;0.18066958;;;;;888.0
1060.0;942.1;;;;;;;;;;;;;;;;;-95.55727;23.55266;-78.11594;;888.0
1060.0;942.1;;;;;;;;;;;;;;0.6726279;0.469924;0.23639637;;;;;888.0
1121.0;1002.0;;;;;;;;;;;;;;;;;-91.55934;23.846401;-76.75405;;897.7
1121.0;1002.0;;;;;;;;;;;;;;0.6899014;0.4746849;0.26209295;;;;;897.7
1121.0;1002.0;;;;;;;;;;;;;;;;;-88.00394;24.304178;-75.50661;;897.7
1121.0;1002.0;;;;;;;;;;;;;;0.68678856;0.46412548;0.27887815;;;;;897.7
1121.0;1002.0;;;;;;;;;;;;;;;;;-84.810936;23.85403;-75.014496;;907.3
1121.0;1002.0;;;;;;;;;;;;;;0.6863002;0.46253854;0.2664266;;;;;907.3
1121.0;1002.0;;;;;;;;;;;;;;;;;-82.39234;24.124882;-74.63302;;907.3
1121.0;1002.0;;;;;;;;;;;;;;0.6753136;0.4669332;0.24591815;;;;;907.3
1121.0;1002.0;;;;;;;;;;;;;;;;;-81.038086;24.502548;-74.20194;;916.9
1121.0;1002.0;;;;;;;;;;;;;;0.6643269;0.45875424;0.2372509;;;;;916.9
1121.0;1002.0;;;;;;;;;;;;;;;;;-79.138306;23.85403;-74.00357;;916.9
1121.0;1002.0;;;;;;;;;;;;;;0.644673;0.4558855;0.25074008;;;;;916.9
1121.0;1002.7;;;;;;;;;;;;;;;;;-78.646194;21.496475;-73.48094;;926.6
1121.0;1002.7;;;;;;;;;;;;;;0.61653495;0.46668905;0.26618245;;;;;926.6
1121.0;1002.7;;;;;;;;;;;;;;;;;-79.210785;18.280588;-72.48909;;926.6
1121.0;1002.7;;;;;;;;;;;;;;0.58772546;0.49848932;0.2565386;;;;;926.6
1121.0;1002.7;;;;;;;;;;;;;;;;;-82.11005;17.212439;-68.81924;;936.2
1121.0;1002.7;;;;;;;;;;;;;;0.56300545;0.48866236;0.24201179;;;;;936.2
1121.0;1002.7;;;;;;;;;;;;;;;;;-84.07468;18.22718;-65.62243;;936.2
1121.0;1002.7;;;;;;;;;;;;;;0.539201;0.48591572;0.25562304;;;;;936.2
1121.0;1002.7;;;;;;;;;;;;;;;;;-85.997345;18.120365;-63.07794;;945.7
1121.0;1002.7;;;;;;;;;;;;;;0.5255287;0.511124;0.26313058;;;;;945.7
1121.0;1002.7;;;;;;;;;;;;;;;;;-87.45079;18.452253;-59.057133;;945.7
1121.0;1002.7;;;;;;;;;;;;;;0.5015412;0.5128941;0.27484968;;;;;945.7
1180.0;1061.9;;;;;;;;;;;;;;;;;-88.31294;19.631031;-56.066315;;955.3
1180.0;1061.9;;;;;;;;;;;;;;0.48554948;0.5252846;0.30249947;;;;;955.3
1180.0;1061.9;;;;;;;;;;;;;;;;;-88.85845;18.532366;-52.85806;;955.3
1180.0;1061.9;;;;;;;;;;;;;;0.47358623;0.52809227;0.31427962;;;;;955.3
1180.0;1061.9;;;;;;;;;;;;;;;;;-88.08405;17.788475;-50.580612;;965.0
1180.0;1061.9;;;;;;;;;;;;;;0.45582446;0.56086916;0.33228552;;;;;965.0
1180.0;1061.9;;;;;;;;;;;;;;;;;-87.17231;17.361216;-48.42906;;965.0
1180.0;1061.9;;;;;;;;;;;;;;0.4417249;0.5467696;0.3449202;;;;;965.0
1180.0;1061.9;;;;;;;;;;;;;;;;;-86.39409;17.250587;-46.277504;;974.7
1180.0;1061.9;;;;;;;;;;;;;;0.44758445;0.54451126;0.34614092;;;;;974.7
1180.0;1061.9;;;;;;;;;;;;;;;;;-83.88013;18.52092;-44.89654;;974.7
1180.0;1061.9;;;;;;;;;;;;;;0.44184697;0.5590991;0.36988434;;;;;974.7
1180.0;1062.7;;;;;;;;;;;;;;;;;-81.553085;17.780846;-43.92758;;984.3
1180.0;1062.7;;;;;;;;;;;;;;0.43287453;0.56788844;0.38239694;;;;;984.3
1180.0;1062.7;;;;;;;;;;;;;;;;;-78.13501;16.129032;-42.077396;;984.3
1180.0;1062.7;;;;;;;;;;;;;;0.4212775;0.56611836;0.38117617;;;;;984.3
1180.0;1062.7;;;;;;;;;;;;;;;;;-75.54094;15.270699;-40.42558;;994.0
1180.0;1062.7;;;;;;;;;;;;;;0.43006682;0.5595263;0.37946716;;;;;994.0
1180.0;1062.7;;;;;;;;;;;;;;;;;-71.34846;14.992217;-38.792843;;994.0
1180.0;1062.7;;;;;;;;;;;;;;0.4181646;0.5592822;0.39020967;;;;;994.0
1180.0;1062.7;;;;;;;;;;;;;;;;;-66.95761;joulu.27;-37.236397;;1003.7
1180.0;1062.7;;;;;;;;;;;;;;0.402295;0.53956723;0.3834956;;;;;1003.7
1180.0;1062.7;;;;;;;;;;;;;;;;;-62.150944;9.014404;-35.081024;;1003.7
1180.0;1062.7;;;;;;;;;;;;;;0.39204076;0.5373699;0.33753473;;;;;1003.7
1182.0;1122.1;;;;;;;;;;;;;;;;;-58.370464;5.527665;-33.268993;;1013.3
1182.0;1122.1;;;;;;;;;;;;;;0.3867916;0.54103214;0.2806482;;;;;1013.3
1182.0;1122.1;;;;;;;;;;;;;;;;;-55.475018;1.903592;-30.59099;;1013.3
1182.0;1122.1;;;;;;;;;;;;;;0.3668325;0.5567797;0.26044497;;;;;1013.3
1182.0;1122.1;;;;;;;;;;;;;;;;;-54.643394;-2.9526658;-27.84051;;1022.9
1182.0;1122.1;;;;;;;;;;;;;;0.3592639;0.56733906;0.25067905;;;;;1022.9
1182.0;1122.1;;;;;;;;;;;;;;;;;-55.433056;-8.049257;-25.055696;;1022.9
1182.0;1122.1;;;;;;;;;;;;;;0.3634144;0.5763115;0.24628437;;;;;1022.9
1182.0;1122.1;;;;;;;;;;;;;;;;;-56.21891;-11.406293;-22.007662;;1032.5
1182.0;1122.1;;;;;;;;;;;;;;0.36664936;0.58479565;0.26313058;;;;;1032.5
1182.0;1122.1;;;;;;;;;;;;;;;;;-57.607502;-13.943144;-18.986328;;1032.5
1182.0;1122.1;;;;;;;;;;;;;;0.3592639;0.59810174;0.29804376;;;;;1032.5
1183.0;1123.3;;;;;;;;;;;;;;;;;-58.496353;-17.105623;-15.24781;;1042.1
1183.0;1123.3;;;;;;;;;;;;;;0.35364848;0.6130558;0.3389996;;;;;1042.1
1183.0;1123.3;;;;;;;;;;;;;;;;;-59.41191;-20.512253;-11.589404;;1042.1
1183.0;1123.3;;;;;;;;;;;;;;0.34833828;0.62190616;0.37012848;;;;;1042.1
1183.0;1123.3;;;;;;;;;;;;;;;;;-59.49965;-22.251808;-7.8966646;;1051.8
1183.0;1123.3;;;;;;;;;;;;;;0.33832818;0.6456496;0.4156621;;;;;1051.8
1183.0;1123.3;;;;;;;;;;;;;;;;;-58.385723;-23.205511;-4.6197395;;1051.8
1183.0;1123.3;;;;;;;;;;;;;;0.30628377;0.66335034;0.44685203;;;;;1051.8
1183.0;1123.3;;;;;;;;;;;;;;;;;-55.67339;-26.19251;-2.66274;;1061.5
1183.0;1123.3;;;;;;;;;;;;;;0.3023774;0.6927702;0.45271158;;;;;1061.5
1183.0;1123.3;;;;;;;;;;;;;;;;;-52.678764;-29.885252;-1.5640736;;1061.5
1183.0;1123.3;;;;;;;;;;;;;;0.3345439;0.7345195;0.46424755;;;;;1061.5
1183.0;1127.4;;;;0.0;0.0;0.0;;;;;;;;;;;;;;;
1183.0;1127.4;;;;-0.19306186;0.034118656;-0.02099991;;;;;;;;;;;;;;;
1183.0;1127.4;;;;-1.0107766;0.06485749;-0.25086215;;;;;;;;;;;;;;;
1183.0;1127.4;;;;-1.132229;0.06527329;-0.29665378;;;;;;;;;;;;;;;
1183.0;1127.4;;;;-1.1401101;0.066421516;-0.29996112;;;;;;;;;;;;;;;
1183.0;1137.3;;;;-1.1484796;0.06783677;-0.30263904;;;;;;;;;;;;;;;
1183.0;1137.3;;;;-1.1570169;0.06973649;-0.3053818;;;;;;;;;;;;;;;
1183.0;1137.3;;;;-1.1650392;0.07098771;-0.30768588;;;;;;;;;;;;;;;
1183.0;1137.3;;;;-1.1728631;0.072479255;-0.30998614;;;;;;;;;;;;;;;
1183.0;1137.3;;;;-1.1805154;0.07416917;-0.31190112;;;;;;;;;;;;;;;
1241.0;1138.7;57507;57535;11857;;;;;;;;;;;;;;;;;;
1241.0;1147.3;;;;-1.1872827;0.07653428;-0.3134041;;;;;;;;;;;;;;;
1241.0;1147.3;;;;-1.1940843;0.0788231;-0.31505206;;;;;;;;;;;;;;;
1241.0;1147.3;;;;-1.2008859;0.081104286;-0.31632236;;;;;;;;;;;;;;;
1241.0;1147.3;;;;-1.2075311;0.08358384;-0.31769565;;;;;;;;;;;;;;;
1241.0;1147.3;;;;-1.2146608;0.08633042;-0.31942752;;;;;;;;;;;;;;;
1241.0;1157.3;;;;-1.2213212;0.08877183;-0.32067874;;;;;;;;;;;;;;;
1241.0;1157.3;;;;-1.228592;0.091514595;-0.32210925;;;;;;;;;;;;;;;
1241.0;1157.3;;;;-1.2362214;0.094367996;-0.32363895;;;;;;;;;;;;;;;
1241.0;1157.3;;;;-1.2440263;0.096771255;-0.32545093;;;;;;;;;;;;;;;
1241.0;1157.3;;;;-1.2520486;0.09899904;-0.32693484;;;;;;;;;;;;;;;
1241.0;1158.7;73880;73813;11859;;;;;;;;;;;;;;;;;;
1241.0;1165.1;;;;;;;;;;;;;0;;;;;;;;
1241.0;1165.1;;;;;;;;;;;;;0;;;;;;;;
1241.0;1165.1;;;;;;;;;;;;;-1;;;;;;;;
1241.0;1165.1;;;;;;;;;;;;;-3;;;;;;;;
1241.0;1165.1;;;;;;;;;;;;;-3;;;;;;;;
1241.0;1167.4;;;;-1.2595712;0.102252975;-0.32908252;;;;;;;;;;;;;;;
1241.0;1167.4;;;;-1.2667581;0.10490419;-0.3313065;;;;;;;;;;;;;;;
1241.0;1167.4;;;;-1.2739679;0.10780336;-0.3335686;;;;;;;;;;;;;;;
1241.0;1167.4;;;;-1.2809144;0.110893264;-0.33570483;;;;;;;;;;;;;;;
1241.0;1167.4;;;;-1.287407;0.113582626;-0.3384972;;;;;;;;;;;;;;;
1245.0;1177.5;;;;-1.2937051;0.11704637;-0.34111026;;;;;;;;;;;;;;;
1245.0;1177.5;;;;-1.2995263;0.12030031;-0.3440285;;;;;;;;;;;;;;;
1245.0;1177.5;;;;-1.3053132;0.12284471;-0.34754947;;;;;;;;;;;;;;;
1245.0;1177.5;;;;-1.310875;0.12511827;-0.35076144;;;;;;;;;;;;;;;
1245.0;1177.5;;;;-1.3172799;0.12729646;-0.35488895;;;;;;;;;;;;;;;
1245.0;1179.0;90331;90236;11863;;;;;;;;;;;;;;;;;;
1245.0;1182.4;;;;;;;;;;;;;;;;;-51.37791;-35.103916;-0.65614796;;1071.2
1245.0;1182.4;;;;;;;;;;;;;;0.37958923;0.79103976;0.4513077;;;;;1071.2
1245.0;1182.4;;;;;;;;;;;;;;;;;-51.831875;-41.665394;-0.5226295;;1071.2
1245.0;1182.4;;;;;;;;;;;;;;0.44331187;0.86452836;0.403943;;;;;1071.2
1245.0;1182.4;;;;;;;;;;;;;;;;;-53.559986;-45.461132;-0.28611103;;1080.9
1245.0;1182.4;;;;;;;;;;;;;;0.5640431;0.9459517;0.35578477;;;;;1080.9
1245.0;1182.4;;;;;;;;;;;;;;;;;-56.764427;-42.947174;-0.15259254;;1080.9
1245.0;1182.4;;;;;;;;;;;;;;0.66176337;1.0382397;0.34986418;;;;;1080.9
1245.0;1182.4;;;;;;;;;;;;;;;;;-59.141056;-40.52858;-1.0223701;;1090.4
1245.0;1182.4;;;;;;;;;;;;;;0.7295755;1.106296;0.32288584;;;;;1090.4
1245.0;1182.4;;;;;;;;;;;;;;;;;-54.70443;-41.76458;-1.5678884;;1090.4
1245.0;1182.4;;;;;;;;;;;;;;0.7651601;1.1264381;0.27393416;;;;;1090.4
1246.0;1183.2;;;;;;;;;;;;;;;;;-45.564133;-47.50969;-0.5836665;;1100.1
1246.0;1183.2;;;;;;;;;;;;;;0.794702;1.0896329;0.20130008;;;;;1100.1
1246.0;1183.2;;;;;;;;;;;;;;;;;-38.09473;-53.44554;1.3084811;;1100.1
1246.0;1183.2;;;;;;;;;;;;;;0.8116703;1.0011902;0.17255165;;;;;1100.1
1246.0;1183.2;;;;;;;;;;;;;;;;;-35.588398;-59.106724;2.094333;;1109.8
1246.0;1183.2;;;;;;;;;;;;;;0.8173467;0.87459946;0.20575579;;;;;1109.8
1246.0;1183.2;;;;;;;;;;;;;;;;;-37.045654;-65.35158;1.9875181;;1109.8
1246.0;1183.2;;;;;;;;;;;;;;0.81856745;0.6753746;0.3335063;;;;;1109.8
1246.0;1183.2;;;;;;;;;;;;;;;;;-40.154728;-72.24494;1.7891476;;1119.4
1246.0;1183.2;;;;;;;;;;;;;;0.82290107;0.4367809;0.52949613;;;;;1119.4
1246.0;1183.2;;;;;;;;;;;;;;;;;-42.744987;-75.04883;4.0055547;;1119.4
1246.0;1183.2;;;;;;;;;;;;;;0.91116065;0.21344645;0.7540513;;;;;1119.4
1246.0;1187.5;;;;-1.3228303;0.12921144;-0.35828403;;;;;;;;;;;;;;;
1246.0;1187.5;;;;-1.3282892;0.13065721;-0.3614922;;;;;;;;;;;;;;;
1246.0;1187.5;;;;-1.3335649;0.13233186;-0.3657227;;;;;;;;;;;;;;;
1246.0;1187.5;;;;-1.3388406;0.13389207;-0.36874774;;;;;;;;;;;;;;;
1246.0;1187.5;;;;-1.3437082;0.13533022;-0.37263873;;;;;;;;;;;;;;;
1246.0;1197.4;;;;-1.3491861;0.13726045;-0.37606055;;;;;;;;;;;;;;;
1246.0;1197.4;;;;-1.3541185;0.13849641;-0.37923437;;;;;;;;;;;;;;;
1246.0;1197.4;;;;-1.3588868;0.13990785;-0.38265234;;;;;;;;;;;;;;;
1246.0;1197.4;;;;-1.3634073;0.1411934;-0.38574606;;;;;;;;;;;;;;;
1246.0;1197.4;;;;-1.3686601;0.14279939;-0.3882981;;;;;;;;;;;;;;;
1246.0;1198.9;106617;106537;11869;;;;;;;;;;;;;;;;;;
1299.0;1205.2;;;;;;;;;;;;;-4;;;;;;;;
1299.0;1205.2;;;;;;;;;;;;;-10;;;;;;;;
1299.0;1205.2;;;;;;;;;;;;;-10;;;;;;;;
1299.0;1205.2;;;;;;;;;;;;;-6;;;;;;;;
1299.0;1205.2;;;;;;;;;;;;;-14;;;;;;;;
1299.0;1207.5;;;;-1.3736688;0.14464189;-0.3910752;;;;;;;;;;;;;;;
1299.0;1207.5;;;;-1.37846;0.14654543;-0.3943444;;;;;;;;;;;;;;;
1299.0;1207.5;;;;-1.3836061;0.14825822;-0.3968926;;;;;;;;;;;;;;;
1299.0;1207.5;;;;-1.3881456;0.15014268;-0.39897925;;;;;;;;;;;;;;;
1299.0;1207.5;;;;-1.3932687;0.15191652;-0.4016152;;;;;;;;;;;;;;;
1299.0;1217.5;;;;-1.3976785;0.15402605;-0.4036675;;;;;;;;;;;;;;;
1299.0;1217.5;;;;-1.4024469;0.1565819;-0.4051934;;;;;;;;;;;;;;;
1299.0;1217.5;;;;-1.4065095;0.15936662;-0.4069062;;;;;;;;;;;;;;;
1299.0;1217.5;;;;-1.4099275;0.16235353;-0.4078141;;;;;;;;;;;;;;;
1299.0;1217.5;;;;-1.413273;0.16544344;-0.40846258;;;;;;;;;;;;;;;
1299.0;1219.0;123007;123046;11863;;;;;;;;;;;;;;;;;;
1299.0;1227.6;;;;-1.4158517;0.1688881;-0.40917212;;;;;;;;;;;;;;;
1299.0;1227.6;;;;-1.4181939;0.17284395;-0.4094239;;;;;;;;;;;;;;;
1299.0;1227.6;;;;-1.4204446;0.17661287;-0.4100991;;;;;;;;;;;;;;;
1299.0;1227.6;;;;-1.4216005;0.18070604;-0.4096871;;;;;;;;;;;;;;;
1299.0;1227.6;;;;-1.4209901;0.18524934;-0.4101296;;;;;;;;;;;;;;;
1301.0;1237.7;;;;-1.4181482;0.18939593;-0.40962607;;;;;;;;;;;;;;;
1301.0;1237.7;;;;-1.4140817;0.19359592;-0.4086495;;;;;;;;;;;;;;;
1301.0;1237.7;;;;-1.4090959;0.19808581;-0.40821463;;;;;;;;;;;;;;;
1301.0;1237.7;;;;-1.4033967;0.20256808;-0.40663153;;;;;;;;;;;;;;;
1301.0;1237.7;;;;-1.3973008;0.20687106;-0.40488058;;;;;;;;;;;;;;;
1301.0;1239.3;139429;139457;11872;;;;;;;;;;;;;;;;;;
1301.0;1242.8;;;;;;;;;;;;;;;;;-46.08295;-65.111244;8.857997;;1129.0
1301.0;1242.8;;;;;;;;;;;;;;0.8982208;6.103702E-5;1.0000916;;;;;1129.0
1301.0;1242.8;;;;;;;;;;;;;;;;;-47.540207;-59.49202;15.591144;;1129.0
1301.0;1242.8;;;;;;;;;;;;;;0.791406;-0.11328471;1.1170995;;;;;1129.0
1301.0;1242.8;;;;;;;;;;;;;;;;;-42.538986;-72.485275;25.139622;;1138.6
1301.0;1242.8;;;;;;;;;;;;;;0.74813074;-0.08972442;0.94155705;;;;;1138.6
1301.0;1242.8;;;;;;;;;;;;;;;;;-28.080843;-81.62938;35.390026;;1138.6
1301.0;1242.8;;;;;;;;;;;;;;0.822779;0.09320353;0.7497177;;;;;1138.6
1301.0;1242.8;;;;;;;;;;;;;;;;;4.2687764;-76.50609;41.024506;;1148.3
1301.0;1242.8;;;;;;;;;;;;;;0.85708183;0.41584522;0.68959624;;;;;1148.3
1301.0;1242.8;;;;;;;;;;;;;;;;;46.03717;-76.94861;42.996765;;1148.3
1301.0;1242.8;;;;;;;;;;;;;;0.93905455;0.720542;0.6356395;;;;;1148.3
1304.0;1243.9;;;;;;;;;;;;;;;;;81.33564;-77.04398;45.350506;;1157.9
1304.0;1243.9;;;;;;;;;;;;;;1.0370189;0.8022706;0.6206244;;;;;1157.9
1304.0;1243.9;;;;;;;;;;;;;;;;;96.81616;-79.008606;47.784355;;1157.9
1304.0;1243.9;;;;;;;;;;;;;;1.0937834;0.7632069;0.49653614;;;;;1157.9
1304.0;1243.9;;;;;;;;;;;;;;;;;93.87494;-90.57512;48.890656;;1167.5
1304.0;1243.9;;;;;;;;;;;;;;1.1275369;0.7210303;0.2511063;;;;;1167.5
1304.0;1243.9;;;;;;;;;;;;;;;;;88.62575;-114.17356;47.60506;;1167.5
1304.0;1243.9;;;;;;;;;;;;;;1.1530503;0.7691885;-0.10565508;;;;;1167.5
1304.0;1243.9;;;;;;;;;;;;;;;;;76.265755;-124.38581;51.625874;;1177.2
1304.0;1243.9;;;;;;;;;;;;;;1.2502823;0.6382641;-0.26862392;;;;;1177.2
1304.0;1243.9;;;;;;;;;;;;;;;;;54.471725;-111.12933;61.010315;;1177.2
1304.0;1243.9;;;;;;;;;;;;;;1.2551042;0.3251442;0.045289468;;;;;1177.2
1304.0;1245.5;;;;;;;;;;;;;-1;;;;;;;;
1304.0;1245.5;;;;;;;;;;;;;1;;;;;;;;
1304.0;1245.5;;;;;;;;;;;;;-29;;;;;;;;
1304.0;1245.5;;;;;;;;;;;;;61;;;;;;;;
1304.0;1245.5;;;;;;;;;;;;;-22;;;;;;;;
1304.0;1247.7;;;;-1.3901292;0.21080402;-0.4025994;;;;;;;;;;;;;;;
1304.0;1247.7;;;;-1.3820001;0.21479037;-0.4007874;;;;;;;;;;;;;;;
1304.0;1247.7;;;;-1.3732835;0.21814731;-0.39901358;;;;;;;;;;;;;;;
1304.0;1247.7;;;;-1.363434;0.22188953;-0.39726263;;;;;;;;;;;;;;;
1304.0;1247.7;;;;-1.3530961;0.22480014;-0.3955422;;;;;;;;;;;;;;;
1363.0;1257.7;;;;-1.3415529;0.22760776;-0.39309317;;;;;;;;;;;;;;;
1363.0;1257.7;;;;-1.3287469;0.22949603;-0.3911286;;;;;;;;;;;;;;;
1363.0;1257.7;;;;-1.3146478;0.23163989;-0.38890463;;;;;;;;;;;;;;;
1363.0;1257.7;;;;-1.2994004;0.23235705;-0.3865319;;;;;;;;;;;;;;;
1363.0;1257.7;;;;-1.2835542;0.23308948;-0.38452154;;;;;;;;;;;;;;;
1363.0;1259.3;155738;155744;11878;;;;;;;;;;;;;;;;;;
1363.0;1267.7;;;;-1.2682573;0.23310855;-0.3817597;;;;;;;;;;;;;;;
1363.0;1267.7;;;;-1.2529069;0.23250201;-0.37863547;;;;;;;;;;;;;;;
1363.0;1267.7;;;;-1.2382318;0.23154071;-0.37520224;;;;;;;;;;;;;;;
1363.0;1267.7;;;;-1.2233316;0.22964862;-0.37207034;;;;;;;;;;;;;;;
1363.0;1267.7;;;;-1.2088777;0.22773746;-0.36864474;;;;;;;;;;;;;;;
1363.0;1277.7;;;;-1.1946298;0.22488788;-0.36402515;;;;;;;;;;;;;;;
1363.0;1277.7;;;;-1.1801683;0.22049335;-0.36066058;;;;;;;;;;;;;;;
1363.0;1277.7;;;;-1.1665651;0.21594241;-0.35766986;;;;;;;;;;;;;;;
1363.0;1277.7;;;;-1.1542512;0.2104645;-0.35346988;;;;;;;;;;;;;;;
1363.0;1277.7;;;;-1.1427461;0.20318225;-0.35052493;;;;;;;;;;;;;;;
1363.0;1279.4;172165;172123;11881;;;;;;;;;;;;;;;;;;
1363.0;1285.7;;;;;;;;;;;;;-300;;;;;;;;
1363.0;1285.7;;;;;;;;;;;;;-9;;;;;;;;
1363.0;1285.7;;;;;;;;;;;;;534;;;;;;;;
1363.0;1285.7;;;;;;;;;;;;;-174;;;;;;;;
1363.0;1285.7;;;;;;;;;;;;;-2973;;;;;;;;
1367.0;1287.8;;;;-1.1317827;0.19604114;-0.3475304;;;;;;;;;;;;;;;
1367.0;1287.8;;;;-1.1219331;0.18861774;-0.34458163;;;;;;;;;;;;;;;
1367.0;1287.8;;;;-1.1127702;0.18053438;-0.34217456;;;;;;;;;;;;;;;
1367.0;1287.8;;;;-1.1044198;0.17176439;-0.33911517;;;;;;;;;;;;;;;
1367.0;1287.8;;;;-1.0967065;0.16337587;-0.33695224;;;;;;;;;;;;;;;
1367.0;1297.9;;;;-1.089409;0.1544304;-0.33552936;;;;;;;;;;;;;;;
1367.0;1297.9;;;;-1.082985;0.14649202;-0.33347705;;;;;;;;;;;;;;;
1367.0;1297.9;;;;-1.0765725;0.13859941;-0.33223727;;;;;;;;;;;;;;;
1367.0;1297.9;;;;-1.0711099;0.13066866;-0.33126453;;;;;;;;;;;;;;;
1367.0;1297.9;;;;-1.0658303;0.12306978;-0.3303986;;;;;;;;;;;;;;;
1367.0;1299.7;188559;188553;11877;;;;;;;;;;;;;;;;;;
1367.0;1302.9;;;;;;;;;;;;;;;;;33.58562;-95.59542;69.227425;;1186.8
1367.0;1302.9;;;;;;;;;;;;;;1.1774651;0.13281655;0.3617664;;;;;1186.8
1367.0;1302.9;;;;;;;;;;;;;;;;;24.525438;-93.07001;74.621574;;1186.8
1367.0;1302.9;;;;;;;;;;;;;;1.1035494;0.06964324;0.491348;;;;;1186.8
1367.0;1302.9;;;;;;;;;;;;;;;;;35.966064;-105.20875;74.14091;;1196.5
1367.0;1302.9;;;;;;;;;;;;;;1.0181586;0.13599049;0.35822627;;;;;1196.5
1367.0;1302.9;;;;;;;;;;;;;;;;;57.30613;-120.04074;74.10276;;1196.5
1367.0;1302.9;;;;;;;;;;;;;;1.0218208;0.21668142;0.041261025;;;;;1196.5
1367.0;1302.9;;;;;;;;;;;;;;;;;72.00842;-107.58538;75.121315;;1206.1
1367.0;1302.9;;;;;;;;;;;;;;1.0696127;0.2450026;-0.0745262;;;;;1206.1
1367.0;1302.9;;;;;;;;;;;;;;;;;77.01346;-80.43534;72.54631;;1206.1
1367.0;1302.9;;;;;;;;;;;;;;1.0679647;0.28644672;0.07184057;;;;;1206.1
1368.0;1303.7;;;;;;;;;;;;;;;;;79.70671;-71.62694;69.98276;;1215.7
1368.0;1303.7;;;;;;;;;;;;;;1.0260934;0.2870571;0.16547136;;;;;1215.7
1368.0;1303.7;;;;;;;;;;;;;;;;;83.57875;-77.58187;71.00894;;1215.7
1368.0;1303.7;;;;;;;;;;;;;;1.0234077;0.26752526;0.1601001;;;;;1215.7
1368.0;1303.7;;;;;;;;;;;;;;;;;88.469345;-88.32057;72.935425;;1225.4
1368.0;1303.7;;;;;;;;;;;;;;1.0358592;0.28156376;0.059938353;;;;;1225.4
1368.0;1303.7;;;;;;;;;;;;;;;;;93.72616;-95.36653;76.86087;;1225.4
1368.0;1303.7;;;;;;;;;;;;;;1.065157;0.30561236;-0.039185766;;;;;1225.4
1368.0;1303.7;;;;;;;;;;;;;;;;;91.29612;-90.19745;81.709496;;1235.1
1368.0;1303.7;;;;;;;;;;;;;;1.0903043;0.30439162;-0.07061983;;;;;1235.1
1368.0;1303.7;;;;;;;;;;;;;;;;;85.9592;-78.93612;85.0589;;1235.1
1368.0;1303.7;;;;;;;;;;;;;;1.0823694;0.3112888;-0.03564562;;;;;1235.1
1368.0;1307.8;;;;-1.0603753;0.11571886;-0.33040622;;;;;;;;;;;;;;;
1368.0;1307.8;;;;-1.0553972;0.10889818;-0.33066943;;;;;;;;;;;;;;;
1368.0;1307.8;;;;-1.0502778;0.10199739;-0.33113483;;;;;;;;;;;;;;;
1368.0;1307.8;;;;-1.0446473;0.09534456;-0.33029178;;;;;;;;;;;;;;;
1368.0;1307.8;;;;-1.0403329;0.0896988;-0.32982257;;;;;;;;;;;;;;;
1369.0;1318.0;;;;;;;;;;;;;;;;;82.17109;-72.17628;87.09983;;1244.7
1369.0;1318.0;;;;;;;;;;;;;;1.0620441;0.32361826;0.010986663;;;;;1244.7
1369.0;1318.0;;;;;;;;;;;;;;;;;80.6299;-72.264015;88.240456;;1244.7
1369.0;1318.0;;;;;;;;;;;;;;1.0325632;0.35254982;0.016418958;;;;;1244.7
1369.0;1318.0;;;;;;;;;;;;;;;;;80.595566;-75.85376;87.70257;;1254.3
1369.0;1318.0;;;;;;;;;;;;;;1.0334178;0.392407;-0.050294504;;;;;1254.3
1369.0;1318.0;;;;;;;;;;;;;;;;;81.431015;-75.48372;86.56576;;1254.3
1369.0;1318.0;;;;;;;;;;;;;;1.073397;0.45332193;-0.13019197;;;;;1254.3
1369.0;1318.0;;;;;;;;;;;;;;;;;80.9389;-67.060616;86.23005;;1263.9
1369.0;1318.0;;;;;;;;;;;;;;1.1187475;0.48988312;-0.1525315;;;;;1263.9
1369.0;1318.0;;;;;;;;;;;;;;;;;78.14264;-56.867428;85.29542;;1263.9
1369.0;1318.0;;;;;;;;;;;;;;1.1456648;0.4839015;-0.13660085;;;;;1263.9
1369.0;1317.8;;;;-1.0358125;0.08415986;-0.3303261;;;;;;;;;;;;;;;
1369.0;1317.8;;;;-1.0320855;0.079227455;-0.33222583;;;;;;;;;;;;;;;
1369.0;1317.8;;;;-1.0300905;0.0752678;-0.33487323;;;;;;;;;;;;;;;
1369.0;1317.8;;;;-1.0302583;0.07120133;-0.33843616;;;;;;;;;;;;;;;
1369.0;1317.8;;;;-1.0313874;0.06774903;-0.34160236;;;;;;;;;;;;;;;
1369.0;1319.5;204860;205027;11842;;;;;;;;;;;;;;;;;;
1369.0;1325.8;;;;;;;;;;;;;-6775;;;;;;;;
1369.0;1325.8;;;;;;;;;;;;;-9353;;;;;;;;
1369.0;1325.8;;;;;;;;;;;;;-9680;;;;;;;;
1369.0;1325.8;;;;;;;;;;;;;-8696;;;;;;;;
1369.0;1325.8;;;;;;;;;;;;;-7911;;;;;;;;
1420.0;1327.7;;;;-1.0331002;0.06544877;-0.34442905;;;;;;;;;;;;;;;
1420.0;1327.7;;;;-1.034958;0.06294633;-0.3471909;;;;;;;;;;;;;;;
1420.0;1327.7;;;;-1.0361024;0.06064225;-0.35006717;;;;;;;;;;;;;;;
1420.0;1327.7;;;;-1.0372239;0.05874253;-0.3531876;;;;;;;;;;;;;;;
1420.0;1327.7;;;;-1.0378686;0.05717469;-0.35589603;;;;;;;;;;;;;;;
1420.0;1337.7;;;;-1.0380975;0.05627442;-0.35885242;;;;;;;;;;;;;;;
1420.0;1337.7;;;;-1.0387613;0.055896766;-0.3630791;;;;;;;;;;;;;;;
1420.0;1337.7;;;;-1.0394212;0.055522926;-0.3667679;;;;;;;;;;;;;;;
1420.0;1337.7;;;;-1.0394365;0.055343635;-0.36986926;;;;;;;;;;;;;;;
1420.0;1337.7;;;;-1.0398599;0.055252083;-0.3734856;;;;;;;;;;;;;;;
1420.0;1339.5;221309;221316;11837;;;;;;;;;;;;;;;;;;
1420.0;1347.8;;;;-1.0393945;0.055812843;-0.37652975;;;;;;;;;;;;;;;
1420.0;1347.8;;;;-1.0390702;0.056324013;-0.38028723;;;;;;;;;;;;;;;
1420.0;1347.8;;;;-1.0444947;0.05750657;-0.38750082;;;;;;;;;;;;;;;
1420.0;1347.8;;;;-1.0317651;0.058559425;-0.37678915;;;;;;;;;;;;;;;
1420.0;1347.8;;;;-1.021267;0.059120186;-0.38919455;;;;;;;;;;;;;;;
1420.0;1357.9;;;;-1.018284;0.060287483;-0.3920098;;;;;;;;;;;;;;;
1420.0;1357.9;;;;-1.0143586;0.06258393;-0.39183813;;;;;;;;;;;;;;;
1420.0;1357.9;;;;-1.0114175;0.06471253;-0.3952523;;;;;;;;;;;;;;;
1420.0;1357.9;;;;-1.0075113;0.06547547;-0.39719015;;;;;;;;;;;;;;;
1420.0;1357.9;;;;-1.0040323;0.06657029;-0.39993292;;;;;;;;;;;;;;;
1421.0;1359.8;237668;237669;11826;;;;;;;;;;;;;;;;;;
1421.0;1363.1;;;;;;;;;;;;;;;;;76.078835;-51.76702;83.25831;;1273.5
1421.0;1363.1;;;;;;;;;;;;;;1.162389;0.4898221;-0.13147373;;;;;1273.5
1421.0;1363.1;;;;;;;;;;;;;;;;;73.20246;-50.05417;81.5836;;1273.5
1421.0;1363.1;;;;;;;;;;;;;;1.1651967;0.47853023;-0.13013093;;;;;1273.5
1421.0;1363.1;;;;;;;;;;;;;;;;;69.98276;-50.79043;80.99231;;1283.1
1421.0;1363.1;;;;;;;;;;;;;;1.1517075;0.4704123;-0.13794367;;;;;1283.1
1421.0;1363.1;;;;;;;;;;;;;;;;;66.412094;-53.052616;79.302345;;1283.1
1421.0;1363.1;;;;;;;;;;;;;;1.1354107;0.46369824;-0.15082248;;;;;1283.1
1421.0;1363.1;;;;;;;;;;;;;;;;;63.25724;-55.059204;78.42875;;1292.8
1421.0;1363.1;;;;;;;;;;;;;;1.1175878;0.4610126;-0.15131077;;;;;1292.8
1421.0;1363.1;;;;;;;;;;;;;;;;;60.323647;-55.772575;78.287605;;1292.8
1421.0;1363.1;;;;;;;;;;;;;;1.0743736;0.4445326;-0.13959166;;;;;1292.8
1421.0;1366.0;;;;;;;;;;;;;-7814;;;;;;;;
1421.0;1366.0;;;;;;;;;;;;;-8288;;;;;;;;
1421.0;1366.0;;;;;;;;;;;;;-9033;;;;;;;;
1421.0;1366.0;;;;;;;;;;;;;-9368;;;;;;;;
1421.0;1366.0;;;;;;;;;;;;;-9326;;;;;;;;
1421.0;1367.9;;;;-1.0008355;0.067558296;-0.4027291;;;;;;;;;;;;;;;
1421.0;1367.9;;;;-0.9978868;0.068580635;-0.40440375;;;;;;;;;;;;;;;
1421.0;1367.9;;;;-0.99507153;0.069515236;-0.40756613;;;;;;;;;;;;;;;
1421.0;1367.9;;;;-0.991974;0.07081223;-0.40980536;;;;;;;;;;;;;;;
1421.0;1367.9;;;;-0.98993695;0.07234193;-0.41245276;;;;;;;;;;;;;;;
1479.0;1378.1;;;;;;;;;;;;;;;;;58.82443;-57.72576;77.47124;;1302.5
1479.0;1378.1;;;;;;;;;;;;;;1.0240791;0.42567217;-0.14282663;;;;;1302.5
1479.0;1378.1;;;;;;;;;;;;;;;;;59.61791;-60.83483;76.872314;;1302.5
1479.0;1378.1;;;;;;;;;;;;;;0.97433394;0.4367809;-0.16028321;;;;;1302.5
1479.0;1378.1;;;;;;;;;;;;;;;;;58.8168;-62.48665;75.96057;;1312.1
1479.0;1378.1;;;;;;;;;;;;;;0.9312418;0.44740134;-0.18439284;;;;;1312.1
1479.0;1378.1;;;;;;;;;;;;;;;;;57.321392;-60.846275;75.25483;;1312.1
1479.0;1378.1;;;;;;;;;;;;;;0.8850978;0.45478684;-0.19708854;;;;;1312.1
1479.0;1378.1;;;;;;;;;;;;;;;;;54.910427;-58.179726;75.05646;;1321.7
1479.0;1378.1;;;;;;;;;;;;;;0.859035;0.46900845;-0.19336528;;;;;1321.7
1479.0;1378.1;;;;;;;;;;;;;;;;;51.618244;-56.367687;76.307724;;1321.7
1479.0;1378.1;;;;;;;;;;;;;;0.8324839;0.47492903;-0.1942198;;;;;1321.7
1479.0;1377.9;;;;-0.98757184;0.073184974;-0.41518408;;;;;;;;;;;;;;;
1479.0;1377.9;;;;-0.98596203;0.074451454;-0.41840369;;;;;;;;;;;;;;;
1479.0;1377.9;;;;-0.98409665;0.076084144;-0.42073447;;;;;;;;;;;;;;;
1479.0;1377.9;;;;-0.9826089;0.07717515;-0.42311865;;;;;;;;;;;;;;;
1479.0;1377.9;;;;-0.9813043;0.07828141;-0.42551047;;;;;;;;;;;;;;;
1479.0;1379.7;254057;254062;11823;;;;;;;;;;;;;;;;;;
1479.0;1387.8;;;;-0.9801103;0.07917405;-0.42825323;;;;;;;;;;;;;;;
1479.0;1387.8;;;;-0.97801983;0.08007432;-0.43016058;;;;;;;;;;;;;;;
1479.0;1387.8;;;;-0.9755708;0.080738075;-0.43269736;;;;;;;;;;;;;;;
1479.0;1387.8;;;;-0.97234356;0.081420906;-0.43508154;;;;;;;;;;;;;;;
1479.0;1387.8;;;;-0.96826565;0.081825264;-0.43755728;;;;;;;;;;;;;;;
1480.0;1397.9;;;;-0.96343625;0.08223344;-0.43938833;;;;;;;;;;;;;;;
1480.0;1397.9;;;;-0.95816815;0.08205033;-0.44167715;;;;;;;;;;;;;;;
1480.0;1397.9;;;;-0.95258725;0.08179093;-0.4434548;;;;;;;;;;;;;;;
1480.0;1397.9;;;;-0.946705;0.08161164;-0.44388205;;;;;;;;;;;;;;;
1480.0;1397.9;;;;-0.9411737;0.08214951;-0.44375235;;;;;;;;;;;;;;;
1480.0;1399.9;262143;262143;11822;;;;;;;;;;;;;;;;;;
1480.0;1406.2;;;;;;;;;;;;;-9377;;;;;;;;
1480.0;1406.2;;;;;;;;;;;;;-9446;;;;;;;;
1480.0;1406.2;;;;;;;;;;;;;-9286;;;;;;;;
1480.0;1406.2;;;;;;;;;;;;;-8687;;;;;;;;
1480.0;1406.2;;;;;;;;;;;;;-7713;;;;;;;;
1480.0;1408.0;;;;-0.93637097;0.08291627;-0.44284827;;;;;;;;;;;;;;;
1480.0;1408.0;;;;-0.93104565;0.08381272;-0.44151694;;;;;;;;;;;;;;;
1480.0;1408.0;;;;-0.92535794;0.08472825;-0.43958288;;;;;;;;;;;;;;;
1480.0;1408.0;;;;-0.9194528;0.085918434;-0.43795782;;;;;;;;;;;;;;;
1480.0;1408.0;;;;-0.91246426;0.08721162;-0.43547446;;;;;;;;;;;;;;;
1480.0;1418.1;;;;-0.9050523;0.088500984;-0.43280417;;;;;;;;;;;;;;;
1480.0;1418.1;;;;-0.89655316;0.08958054;-0.4300576;;;;;;;;;;;;;;;
1480.0;1418.1;;;;-0.8877908;0.09065247;-0.42705542;;;;;;;;;;;;;;;
1480.0;1418.1;;;;-0.8790132;0.09201432;-0.4234429;;;;;;;;;;;;;;;
1480.0;1418.1;;;;-0.87028515;0.09332276;-0.41963202;;;;;;;;;;;;;;;
1480.0;1420.1;262143;262143;11831;;;;;;;;;;;;;;;;;;
1484.0;1423.3;;;;;;;;;;;;;;;;;47.864468;-55.177464;76.83035;;1331.4
1484.0;1423.3;;;;;;;;;;;;;;0.82345045;0.4856105;-0.1948912;;;;;1331.4
1484.0;1423.3;;;;;;;;;;;;;;;;;44.64095;-54.5938;77.86798;;1331.4
1484.0;1423.3;;;;;;;;;;;;;;0.80977815;0.49592578;-0.20532854;;;;;1331.4
1484.0;1423.3;;;;;;;;;;;;;;;;;41.505173;-53.02591;77.99005;;1341.1
1484.0;1423.3;;;;;;;;;;;;;;0.821131;0.5262001;-0.20545061;;;;;1341.1
1484.0;1423.3;;;;;;;;;;;;;;;;;37.789547;-49.047062;80.08057;;1341.1
1484.0;1423.3;;;;;;;;;;;;;;0.8415784;0.49861142;-0.21399578;;;;;1341.1
1484.0;1423.3;;;;;;;;;;;;;;;;;34.53932;-41.379284;82.90735;;1350.7
1484.0;1423.3;;;;;;;;;;;;;;0.8518326;0.47364727;-0.17804499;;;;;1350.7
1484.0;1423.3;;;;;;;;;;;;;;;;;29.549547;-34.573654;83.39946;;1350.7
1484.0;1423.3;;;;;;;;;;;;;;0.860683;0.45533615;-0.13721122;;;;;1350.7
1484.0;1428.0;;;;-0.8614007;0.094116226;-0.41584402;;;;;;;;;;;;;;;
1484.0;1428.0;;;;-0.851555;0.09526445;-0.4118119;;;;;;;;;;;;;;;
1484.0;1428.0;;;;-0.8422586;0.095520034;-0.40756613;;;;;;;;;;;;;;;
1484.0;1428.0;;;;-0.83205426;0.09581758;-0.40293127;;;;;;;;;;;;;;;
1484.0;1428.0;;;;-0.8222085;0.09657289;-0.39836127;;;;;;;;;;;;;;;
1484.0;1438.0;;;;-0.81266415;0.09654619;-0.39324957;;;;;;;;;;;;;;;
1484.0;1438.0;;;;-0.8030549;0.09599687;-0.38860327;;;;;;;;;;;;;;;
1484.0;1438.0;;;;-0.79431546;0.09610368;-0.38402563;;;;;;;;;;;;;;;
1484.0;1438.0;;;;-0.7863275;0.0961075;-0.37847143;;;;;;;;;;;;;;;
1484.0;1438.0;;;;-0.77907956;0.09566881;-0.37440494;;;;;;;;;;;;;;;
1540.0;1438.2;;;;;;;;;;;;;;;;;26.974548;-32.414474;84.0022;;1360.3
1540.0;1438.2;;;;;;;;;;;;;;0.87636954;0.43781853;-0.12268441;;;;;1360.3
1540.0;1438.2;;;;;;;;;;;;;;;;;27.52388;-32.940918;85.37935;;1360.3
1540.0;1438.2;;;;;;;;;;;;;;0.8840602;0.41627246;-0.12128056;;;;;1360.3
1540.0;1438.2;;;;;;;;;;;;;;;;;25.475325;-33.71914;85.989716;;1370.0
1540.0;1438.2;;;;;;;;;;;;;;0.8944975;0.40223396;-0.13348795;;;;;1370.0
1540.0;1438.2;;;;;;;;;;;;;;;;;21.595661;-32.59377;86.84805;;1370.0
1540.0;1438.2;;;;;;;;;;;;;;0.89541304;0.3618885;-0.14142278;;;;;1370.0
1540.0;1438.2;;;;;;;;;;;;;;;;;18.501846;-30.365917;88.1222;;1379.7
1540.0;1438.2;;;;;;;;;;;;;;0.8878445;0.31067842;-0.12683493;;;;;1379.7
1540.0;1438.2;;;;;;;;;;;;;;;;;14.427626;-28.24488;88.36253;;1379.7
1540.0;1438.2;;;;;;;;;;;;;;0.8910794;0.2938322;-0.09973449;;;;;1379.7
1540.0;1439.8;262143;262143;11835;;;;;;;;;;;;;;;;;;
1540.0;1446.0;;;;;;;;;;;;;-6616;;;;;;;;
1540.0;1446.0;;;;;;;;;;;;;-5635;;;;;;;;
1540.0;1446.0;;;;;;;;;;;;;-5008;;;;;;;;
1540.0;1446.0;;;;;;;;;;;;;-4610;;;;;;;;
1540.0;1446.0;;;;;;;;;;;;;-3927;;;;;;;;
1540.0;1447.7;;;;-0.77038205;0.095016494;-0.36936572;;;;;;;;;;;;;;;
1540.0;1447.7;;;;-0.7620851;0.09436418;-0.36456302;;;;;;;;;;;;;;;
1540.0;1447.7;;;;-0.7545701;0.09344102;-0.3599396;;;;;;;;;;;;;;;
1540.0;1447.7;;;;-0.74830633;0.09218217;-0.35564426;;;;;;;;;;;;;;;
1540.0;1447.7;;;;-0.74259573;0.09134675;-0.35210422;;;;;;;;;;;;;;;
1541.0;1457.6;;;;-0.73696905;0.090370186;-0.34770206;;;;;;;;;;;;;;;
1541.0;1457.6;;;;-0.7319794;0.089492805;-0.34297183;;;;;;;;;;;;;;;
1541.0;1457.6;;;;-0.72728735;0.088478096;-0.33964923;;;;;;;;;;;;;;;
1541.0;1457.6;;;;-0.7222939;0.08717347;-0.33576205;;;;;;;;;;;;;;;
1541.0;1457.6;;;;-0.7174035;0.08586503;-0.3325043;;;;;;;;;;;;;;;
1541.0;1459.7;262143;262143;11832;;;;;;;;;;;;;;;;;;
1541.0;1467.7;;;;-0.7122689;0.08425904;-0.32938007;;;;;;;;;;;;;;;
1541.0;1467.7;;;;-0.70698935;0.08312226;-0.32647708;;;;;;;;;;;;;;;
1541.0;1467.7;;;;-0.7019196;0.081607826;-0.32389453;;;;;;;;;;;;;;;
1541.0;1467.7;;;;-0.6963578;0.080356605;-0.321106;;;;;;;;;;;;;;;
1541.0;1467.7;;;;-0.69086844;0.0790825;-0.3189316;;;;;;;;;;;;;;;
1541.0;1477.8;;;;-0.68575674;0.077831276;-0.3172188;;;;;;;;;;;;;;;
1541.0;1477.8;;;;-0.6807557;0.076450355;-0.31590274;;;;;;;;;;;;;;;
1541.0;1477.8;;;;-0.6757851;0.075271614;-0.31495288;;;;;;;;;;;;;;;
1541.0;1477.8;;;;-0.67132574;0.07414246;-0.3147507;;;;;;;;;;;;;;;
1541.0;1477.8;;;;-0.66763693;0.07271195;-0.3142853;;;;;;;;;;;;;;;
1541.0;1480.0;262143;262143;11835;;;;;;;;;;;;;;;;;;
1543.0;1483.2;;;;;;;;;;;;;;;;;11.616108;-26.8334;88.78216;;1389.1
1543.0;1483.2;;;;;;;;;;;;;;0.8858303;0.2542802;-0.092837304;;;;;1389.1
1543.0;1483.2;;;;;;;;;;;;;;;;;12.115849;-25.460066;89.84649;;1389.1
1543.0;1483.2;;;;;;;;;;;;;;0.87044895;0.20068972;-0.0844142;;;;;1389.1
1543.0;1483.2;;;;;;;;;;;;;;;;;13.824884;-23.892178;89.835045;;1398.7
1543.0;1483.2;;;;;;;;;;;;;;0.8515885;0.16357921;-0.065858945;;;;;1398.7
1543.0;1483.2;;;;;;;;;;;;;;;;;15.1104765;-23.350475;88.35109;;1398.7
1543.0;1483.2;;;;;;;;;;;;;;0.8305307;0.16315195;-0.051881466;;;;;1398.7
1543.0;1483.2;;;;;;;;;;;;;;;;;17.227697;-25.406658;87.30583;;1408.4
1543.0;1483.2;;;;;;;;;;;;;;0.8059328;0.1915952;-0.06537065;;;;;1408.4
1543.0;1483.2;;;;;;;;;;;;;;;;;20.393993;-28.550066;87.57668;;1408.4
1543.0;1483.2;;;;;;;;;;;;;;0.7824946;0.17004913;-0.11090426;;;;;1408.4
1543.0;1486.1;;;;;;;;;;;;;-2751;;;;;;;;
1543.0;1486.1;;;;;;;;;;;;;-1736;;;;;;;;
1543.0;1486.1;;;;;;;;;;;;;-1844;;;;;;;;
1543.0;1486.1;;;;;;;;;;;;;-3017;;;;;;;;
1543.0;1486.1;;;;;;;;;;;;;-4177;;;;;;;;
1543.0;1487.8;;;;-0.6641465;0.07144547;-0.3141556;;;;;;;;;;;;;;;
1543.0;1487.8;;;;-0.66138464;0.07012177;-0.3138695;;;;;;;;;;;;;;;
1543.0;1487.8;;;;-0.6590958;0.06869889;-0.31434634;;;;;;;;;;;;;;;
1543.0;1487.8;;;;-0.65686804;0.06731034;-0.314415;;;;;;;;;;;;;;;
1543.0;1487.8;;;;-0.6551438;0.06550599;-0.31530002;;;;;;;;;;;;;;;
1598.0;1491.1;;;;;;;;;;;;;;;;;25.872066;-29.244362;88.10313;;1418.0
1598.0;1491.1;;;;;;;;;;;;;;0.7752922;0.11139256;-0.14185004;;;;;1418.0
1598.0;1491.1;;;;;;;;;;;;;;;;;30.785545;-26.894438;88.20994;;1418.0
1598.0;1491.1;;;;;;;;;;;;;;0.77370524;0.11279641;-0.13019197;;;;;1418.0
1598.0;1491.1;;;;;;;;;;;;;;;;;31.380657;-22.762993;86.62298;;1427.7
1598.0;1491.1;;;;;;;;;;;;;;0.76168096;0.07696768;-0.103152566;;;;;1427.7
1598.0;1491.1;;;;;;;;;;;;;;;;;35.885952;-19.310587;86.55431;;1427.7
1598.0;1491.1;;;;;;;;;;;;;;0.7505722;0.03381451;-0.024597919;;;;;1427.7
1598.0;1491.1;;;;;;;;;;;;;;;;;42.75643;-22.770622;85.63113;;1437.3
1598.0;1491.1;;;;;;;;;;;;;;0.76168096;0.0474868;-0.0253914;;;;;1437.3
1598.0;1491.1;;;;;;;;;;;;;;;;;48.86395;-25.860622;83.40709;;1437.3
1598.0;1491.1;;;;;;;;;;;;;;0.78109074;0.12140263;-0.08850368;;;;;1437.3
1598.0;1497.6;;;;-0.65333563;0.06383515;-0.31526187;;;;;;;;;;;;;;;
1598.0;1497.6;;;;-0.6505242;0.061988838;-0.3153992;;;;;;;;;;;;;;;
1598.0;1497.6;;;;-0.6480866;0.060508735;-0.3159714;;;;;;;;;;;;;;;
1598.0;1497.6;;;;-0.6454621;0.058715828;-0.31600955;;;;;;;;;;;;;;;
1598.0;1497.6;;;;-0.6421853;0.057155617;-0.31657413;;;;;;;;;;;;;;;
1598.0;1499.8;262143;262143;11829;;;;;;;;;;;;;;;;;;
1598.0;1507.6;;;;-0.63932043;0.055740364;-0.3172417;;;;;;;;;;;;;;;
1598.0;1507.6;;;;-0.6364899;0.054214485;-0.31756976;;;;;;;;;;;;;;;
1598.0;1507.6;;;;-0.63374335;0.052833565;-0.31790164;;;;;;;;;;;;;;;
1598.0;1507.6;;;;-0.6307259;0.051479347;-0.31759647;;;;;;;;;;;;;;;
1598.0;1507.6;;;;-0.62808996;0.049755104;-0.31772998;;;;;;;;;;;;;;;
1602.0;1517.5;;;;-0.62546927;0.048889168;-0.31892017;;;;;;;;;;;;;;;
1602.0;1517.5;;;;-0.62268835;0.047183998;-0.3194771;;;;;;;;;;;;;;;
1602.0;1517.5;;;;-0.62136847;0.04592133;-0.32010272;;;;;;;;;;;;;;;
1602.0;1517.5;;;;-0.6198998;0.044845585;-0.32015613;;;;;;;;;;;;;;;
1602.0;1517.5;;;;-0.6188622;0.04420853;-0.31992725;;;;;;;;;;;;;;;
1602.0;1519.7;262143;262143;11823;;;;;;;;;;;;;;;;;;
1602.0;1526.0;;;;;;;;;;;;;-4230;;;;;;;;
1602.0;1526.0;;;;;;;;;;;;;-3046;;;;;;;;
1602.0;1526.0;;;;;;;;;;;;;-1359;;;;;;;;
1602.0;1526.0;;;;;;;;;;;;;31;;;;;;;;
1602.0;1526.0;;;;;;;;;;;;;701;;;;;;;;
1602.0;1527.6;;;;-0.6186715;0.043693546;-0.3165894;;;;;;;;;;;;;;;
1602.0;1527.6;;;;-0.6185723;0.04335404;-0.313839;;;;;;;;;;;;;;;
1602.0;1527.6;;;;-0.6189652;0.042774204;-0.31354144;;;;;;;;;;;;;;;
1602.0;1527.6;;;;-0.6195641;0.041843418;-0.3174515;;;;;;;;;;;;;;;
1602.0;1527.6;;;;-0.620472;0.041557316;-0.32262424;;;;;;;;;;;;;;;
1602.0;1537.7;;;;-0.62123114;0.040973667;-0.32530978;;;;;;;;;;;;;;;
1602.0;1537.7;;;;-0.6192818;0.04049683;-0.32708362;;;;;;;;;;;;;;;
1602.0;1537.7;;;;-0.61456686;0.039695743;-0.32786182;;;;;;;;;;;;;;;
1602.0;1537.7;;;;-0.60786444;0.03909302;-0.32897952;;;;;;;;;;;;;;;
1602.0;1537.7;;;;-0.6007386;0.038738254;-0.3302994;;;;;;;;;;;;;;;
1602.0;1540.0;262143;262143;11807;;;;;;;;;;;;;;;;;;
1605.0;1543.2;;;;;;;;;;;;;;;;;53.76217;-22.690512;83.532974;;1446.9
1605.0;1543.2;;;;;;;;;;;;;;0.7959838;0.15356915;-0.11413923;;;;;1446.9
1605.0;1543.2;;;;;;;;;;;;;;;;;56.989502;-15.381329;83.74279;;1446.9
1605.0;1543.2;;;;;;;;;;;;;;0.8040407;0.16657002;-0.084353164;;;;;1446.9
1605.0;1543.2;;;;;;;;;;;;;;;;;60.773796;-10.3724785;84.18531;;1456.3
1605.0;1543.2;;;;;;;;;;;;;;0.7968993;0.118717;-0.07226783;;;;;1456.3
1605.0;1543.2;;;;;;;;;;;;;;;;;64.63439;-8.377332;84.42183;;1456.3
1605.0;1543.2;;;;;;;;;;;;;;0.7957396;0.13605152;-0.054750208;;;;;1456.3
1605.0;1543.2;;;;;;;;;;;;;;;;;62.349316;-5.3903317;82.98364;;1465.9
1605.0;1543.2;;;;;;;;;;;;;;0.7882931;0.20471816;-0.03662221;;;;;1465.9
1605.0;1543.2;;;;;;;;;;;;;;;;;63.833275;-2.8649251;84.01364;;1465.9
1605.0;1543.2;;;;;;;;;;;;;;0.7641224;0.14453566;-0.021668142;;;;;1465.9
1605.0;1547.7;;;;-0.5955811;0.039012913;-0.3317223;;;;;;;;;;;;;;;
1605.0;1547.7;;;;-0.59299856;0.03892136;-0.3333092;;;;;;;;;;;;;;;
1605.0;1547.7;;;;-0.5934792;0.038692478;-0.3342667;;;;;;;;;;;;;;;
1605.0;1547.7;;;;-0.5962258;0.03804398;-0.33471683;;;;;;;;;;;;;;;
1605.0;1547.7;;;;-0.600956;0.0369072;-0.3346558;;;;;;;;;;;;;;;
1606.0;1550.7;;;;;;;;;;;;;;;;;69.33042;-4.2611465;84.95209;;1475.5
1606.0;1550.7;;;;;;;;;;;;;;0.78182316;0.14551225;-0.037354656;;;;;1475.5
1606.0;1550.7;;;;;;;;;;;;;;;;;73.58775;-4.20774;83.47575;;1475.5
1606.0;1550.7;;;;;;;;;;;;;;0.78652304;0.20026246;-0.063966796;;;;;1475.5
1606.0;1550.7;;;;;;;;;;;;;;;;;76.33061;-2.7352216;83.78857;;1485.2
1606.0;1550.7;;;;;;;;;;;;;;0.789819;0.21301919;-0.086245306;;;;;1485.2
1606.0;1550.7;;;;;;;;;;;;;;;;;76.26957;1.4915922;83.12479;;1485.2
1606.0;1550.7;;;;;;;;;;;;;;0.8027589;0.2537309;-0.068300426;;;;;1485.2
1606.0;1550.7;;;;;;;;;;;;;;;;;75.65539;4.970702;82.32368;;1494.8
1606.0;1550.7;;;;;;;;;;;;;;0.79567856;0.27692497;-0.04095584;;;;;1494.8
1606.0;1550.7;;;;;;;;;;;;;;;;;75.36165;3.0365918;82.174904;;1494.8
1606.0;1550.7;;;;;;;;;;;;;;0.79116184;0.29395428;-0.043092135;;;;;1494.8
1606.0;1557.6;;;;-0.60693365;0.035701755;-0.33535388;;;;;;;;;;;;;;;
1606.0;1557.6;;;;-0.61399466;0.034809116;-0.3364754;;;;;;;;;;;;;;;
1606.0;1557.6;;;;-0.6215516;0.03443909;-0.33744815;;;;;;;;;;;;;;;
1606.0;1557.6;;;;-0.6294518;0.0342598;-0.33918384;;;;;;;;;;;;;;;
1606.0;1557.6;;;;-0.63694006;0.034313206;-0.34019473;;;;;;;;;;;;;;;
1606.0;1559.9;262143;262143;11799;;;;;;;;;;;;;;;;;;
1606.0;1566.1;;;;;;;;;;;;;756;;;;;;;;
1606.0;1566.1;;;;;;;;;;;;;531;;;;;;;;
1606.0;1566.1;;;;;;;;;;;;;398;;;;;;;;
1606.0;1566.1;;;;;;;;;;;;;570;;;;;;;;
1606.0;1566.1;;;;;;;;;;;;;784;;;;;;;;
1659.0;1567.6;;;;-0.64516073;0.034271244;-0.34134677;;;;;;;;;;;;;;;
1659.0;1567.6;;;;-0.6528283;0.034824375;-0.34339526;;;;;;;;;;;;;;;
1659.0;1567.6;;;;-0.66024786;0.03554154;-0.34463122;;;;;;;;;;;;;;;
1659.0;1567.6;;;;-0.66699606;0.03596497;-0.34618762;;;;;;;;;;;;;;;
1659.0;1567.6;;;;-0.67337424;0.036365513;-0.3477669;;;;;;;;;;;;;;;
1659.0;1577.7;;;;-0.6790505;0.037326816;-0.34904101;;;;;;;;;;;;;;;
1659.0;1577.7;;;;-0.68389136;0.0382309;-0.35029605;;;;;;;;;;;;;;;
1659.0;1577.7;;;;-0.68905264;0.03899384;-0.35192493;;;;;;;;;;;;;;;
1659.0;1577.7;;;;-0.6933556;0.03972626;-0.35390475;;;;;;;;;;;;;;;
1659.0;1577.7;;;;-0.6979256;0.040477756;-0.35668185;;;;;;;;;;;;;;;
1659.0;1580.1;262143;262143;11802;;;;;;;;;;;;;;;;;;
1659.0;1587.8;;;;-0.7026215;0.041458134;-0.35989764;;;;;;;;;;;;;;;
1659.0;1587.8;;;;-0.70737463;0.042480472;-0.36265567;;;;;;;;;;;;;;;
1659.0;1587.8;;;;-0.7122727;0.043140415;-0.36553577;;;;;;;;;;;;;;;
1659.0;1587.8;;;;-0.7177201;0.043766025;-0.36865237;;;;;;;;;;;;;;;
1659.0;1587.8;;;;-0.7225762;0.044818882;-0.37253574;;;;;;;;;;;;;;;
1659.0;1597.9;;;;-0.728859;0.046291355;-0.3758698;;;;;;;;;;;;;;;
1659.0;1597.9;;;;-0.7362557;0.047935493;-0.37945563;;;;;;;;;;;;;;;
1659.0;1597.9;;;;-0.7449036;0.04998017;-0.38337332;;;;;;;;;;;;;;;
1659.0;1597.9;;;;-0.7548562;0.051975258;-0.38778692;;;;;;;;;;;;;;;
1659.0;1597.9;;;;-0.7646562;0.05416871;-0.39213568;;;;;;;;;;;;;;;
1661.0;1600.4;262143;262143;11797;;;;;;;;;;;;;;;;;;
1661.0;1603.6;;;;;;;;;;;;;;;;;75.59435;-2.113407;81.43483;;1504.5
1661.0;1603.6;;;;;;;;;;;;;;0.8009888;0.32209235;-0.08600116;;;;;1504.5
1661.0;1603.6;;;;;;;;;;;;;;;;;76.47557;-6.6263313;80.904564;;1504.5
1661.0;1603.6;;;;;;;;;;;;;;0.82515943;0.33356732;-0.1342204;;;;;1504.5
1661.0;1603.6;;;;;;;;;;;;;;;;;77.05161;-8.560442;80.85116;;1514.1
1661.0;1603.6;;;;;;;;;;;;;;0.8600726;0.3831904;-0.14178899;;;;;1514.1
1661.0;1603.6;;;;;;;;;;;;;;;;;76.078835;-10.734886;78.82549;;1514.1
1661.0;1603.6;;;;;;;;;;;;;;0.89901423;0.40998566;-0.16693625;;;;;1514.1
1661.0;1603.6;;;;;;;;;;;;;;;;;73.92346;-9.716331;79.81353;;1523.8
1661.0;1603.6;;;;;;;;;;;;;;0.86324656;0.369335;-0.15869625;;;;;1523.8
1661.0;1603.6;;;;;;;;;;;;;;;;;71.08905;-12.203589;75.571465;;1523.8
1661.0;1603.6;;;;;;;;;;;;;;0.8551897;0.455092;-0.16797388;;;;;1523.8
1661.0;1606.5;;;;;;;;;;;;;698;;;;;;;;
1661.0;1606.5;;;;;;;;;;;;;339;;;;;;;;
1661.0;1606.5;;;;;;;;;;;;;81;;;;;;;;
1661.0;1606.5;;;;;;;;;;;;;256;;;;;;;;
1661.0;1606.5;;;;;;;;;;;;;990;;;;;;;;
1661.0;1607.9;;;;-0.77544415;0.056861885;-0.39711386;;;;;;;;;;;;;;;
1661.0;1607.9;;;;-0.78595746;0.060371406;-0.40169913;;;;;;;;;;;;;;;
1661.0;1607.9;;;;-0.79675686;0.06362153;-0.40738302;;;;;;;;;;;;;;;
1661.0;1607.9;;;;-0.8074304;0.06775666;-0.41296393;;;;;;;;;;;;;;;
1661.0;1607.9;;;;-0.8174287;0.072227485;-0.41810614;;;;;;;;;;;;;;;
1718.0;1611.4;;;;;;;;;;;;;;;;;62.944427;-13.863032;72.2869;;1533.5
1718.0;1611.4;;;;;;;;;;;;;;0.86074406;0.5307169;-0.14239937;;;;;1533.5
1718.0;1611.4;;;;;;;;;;;;;;;;;50.778984;-15.598773;72.7752;;1533.5
1718.0;1611.4;;;;;;;;;;;;;;0.8798486;0.49787897;-0.120365;;;;;1533.5
1718.0;1611.4;;;;;;;;;;;;;;;;;40.387432;-17.040771;71.95502;;1543.1
1718.0;1611.4;;;;;;;;;;;;;;0.895352;0.47956786;-0.109073155;;;;;1543.1
1718.0;1611.4;;;;;;;;;;;;;;;;;32.074955;-18.4637;69.97894;;1543.1
1718.0;1611.4;;;;;;;;;;;;;;0.8980377;0.47822505;-0.10834071;;;;;1543.1
1718.0;1611.4;;;;;;;;;;;;;;;;;23.377178;-18.95581;69.719536;;1552.8
1718.0;1611.4;;;;;;;;;;;;;;0.9153722;0.45051423;-0.113406785;;;;;1552.8
1718.0;1611.4;;;;;;;;;;;;;;;;;15.3202915;-17.178104;70.23835;;1552.8
1718.0;1611.4;;;;;;;;;;;;;;0.92880034;0.41828668;-0.104617454;;;;;1552.8
1718.0;1617.9;;;;-0.82639325;0.07618333;-0.42371374;;;;;;;;;;;;;;;
1718.0;1617.9;;;;-0.83446896;0.08079148;-0.42906576;;;;;;;;;;;;;;;
1718.0;1617.9;;;;-0.8423768;0.08462525;-0.4352036;;;;;;;;;;;;;;;
1718.0;1617.9;;;;-0.85001004;0.08795548;-0.44196326;;;;;;;;;;;;;;;
1718.0;1617.9;;;;-0.8580247;0.09135438;-0.44886786;;;;;;;;;;;;;;;
1718.0;1620.2;262143;262143;11802;;;;;;;;;;;;;;;;;;
1718.0;1627.8;;;;-0.8665353;0.09438707;-0.45608908;;;;;;;;;;;;;;;
1718.0;1627.8;;;;-0.87593853;0.09760286;-0.4626313;;;;;;;;;;;;;;;
1718.0;1627.8;;;;-0.8853494;0.10121919;-0.46837622;;;;;;;;;;;;;;;
1718.0;1627.8;;;;-0.8959123;0.10525514;-0.4744721;;;;;;;;;;;;;;;
1718.0;1627.8;;;;-0.9070207;0.11018373;-0.4810143;;;;;;;;;;;;;;;
1722.0;1637.9;;;;-0.9169923;0.11493303;-0.48647696;;;;;;;;;;;;;;;
1722.0;1637.9;;;;-0.92694104;0.120006576;-0.49299628;;;;;;;;;;;;;;;
1722.0;1637.9;;;;-0.93644726;0.12506105;-0.4998017;;;;;;;;;;;;;;;
1722.0;1637.9;;;;-0.94418347;0.13003542;-0.50575644;;;;;;;;;;;;;;;
1722.0;1637.9;;;;-0.9507333;0.13501741;-0.5123368;;;;;;;;;;;;;;;
1722.0;1640.5;262143;262143;11806;;;;;;;;;;;;;;;;;;
1722.0;1646.7;;;;;;;;;;;;;2119;;;;;;;;
1722.0;1646.7;;;;;;;;;;;;;2805;;;;;;;;
1722.0;1646.7;;;;;;;;;;;;;2365;;;;;;;;
1722.0;1646.7;;;;;;;;;;;;;1227;;;;;;;;
1722.0;1646.7;;;;;;;;;;;;;404;;;;;;;;
1722.0;1648.0;;;;-0.9578973;0.14013292;-0.5187722;;;;;;;;;;;;;;;
1722.0;1648.0;;;;-0.9646112;0.14566423;-0.52302176;;;;;;;;;;;;;;;
1722.0;1648.0;;;;-0.9711839;0.15095522;-0.52847296;;;;;;;;;;;;;;;
1722.0;1648.0;;;;-0.97830594;0.1561699;-0.5321122;;;;;;;;;;;;;;;
1722.0;1648.0;;;;-0.98560727;0.16097261;-0.53599554;;;;;;;;;;;;;;;
1722.0;1658.1;;;;-0.9927827;0.1659546;-0.53875357;;;;;;;;;;;;;;;
1722.0;1658.1;;;;-1.0004121;0.17094041;-0.54129416;;;;;;;;;;;;;;;
1722.0;1658.1;;;;-1.0090753;0.1756363;-0.5435944;;;;;;;;;;;;;;;
1722.0;1658.1;;;;-1.0183412;0.1810074;-0.5460282;;;;;;;;;;;;;;;
1722.0;1658.1;;;;-1.0277635;0.18621065;-0.5478402;;;;;;;;;;;;;;;
1722.0;1660.7;262143;262143;11816;;;;;;;;;;;;;;;;;;
1723.0;1663.8;;;;;;;;;;;;;;;;;9.891811;-15.629292;69.41053;;1562.5
1723.0;1663.8;;;;;;;;;;;;;;0.94552445;0.40278327;-0.115543075;;;;;1562.5
1723.0;1663.8;;;;;;;;;;;;;;;;;6.382183;-12.829218;69.135864;;1562.5
1723.0;1663.8;;;;;;;;;;;;;;0.95394754;0.38514358;-0.13019197;;;;;1562.5
1723.0;1663.8;;;;;;;;;;;;;;;;;3.6736658;-9.704886;68.6819;;1572.2
1723.0;1663.8;;;;;;;;;;;;;;0.9718925;0.35950804;-0.12689596;;;;;1572.2
1723.0;1663.8;;;;;;;;;;;;;;;;;1.7357402;-7.26722;67.64428;;1572.2
1723.0;1663.8;;;;;;;;;;;;;;0.98586994;0.3322245;-0.11896115;;;;;1572.2
1723.0;1663.8;;;;;;;;;;;;;;;;;0.03051851;-7.141331;65.04639;;1581.9
1723.0;1663.8;;;;;;;;;;;;;;0.9773247;0.36164433;-0.12604144;;;;;1581.9
1723.0;1663.8;;;;;;;;;;;;;;;;;-2.9526658;-9.060183;62.017426;;1581.9
1723.0;1663.8;;;;;;;;;;;;;;0.9747612;0.3614002;-0.16974396;;;;;1581.9
1723.0;1668.0;;;;-1.0371934;0.1911774;-0.5498772;;;;;;;;;;;;;;;
1723.0;1668.0;;;;-1.0476152;0.19612888;-0.5511475;;;;;;;;;;;;;;;
1723.0;1668.0;;;;-1.0578805;0.2009888;-0.55232245;;;;;;;;;;;;;;;
1723.0;1668.0;;;;-1.0682832;0.20616534;-0.55354315;;;;;;;;;;;;;;;
1723.0;1668.0;;;;-1.0773431;0.21075824;-0.55305105;;;;;;;;;;;;;;;
1724.0;1671.3;;;;;;;;;;;;;;;;;-4.7189245;-10.174108;62.723167;;1591.5
1724.0;1671.3;;;;;;;;;;;;;;0.9754326;0.2865688;-0.22022156;;;;;1591.5
1724.0;1671.3;;;;;;;;;;;;;;;;;-6.912442;-8.552812;60.96072;;1591.5
1724.0;1671.3;;;;;;;;;;;;;;0.9922178;0.28321177;-0.22693564;;;;;1591.5
1724.0;1671.3;;;;;;;;;;;;;;;;;-8.861812;-6.34785;58.835873;;1601.1
1724.0;1671.3;;;;;;;;;;;;;;0.9825129;0.27863398;-0.21472824;;;;;1601.1
1724.0;1671.3;;;;;;;;;;;;;;;;;-9.857478;-7.1756644;57.260353;;1601.1
1724.0;1671.3;;;;;;;;;;;;;;0.9773247;0.25745416;-0.2120426;;;;;1601.1
1724.0;1671.3;;;;;;;;;;;;;;;;;-10.250404;-9.880367;55.913723;;1610.8
1724.0;1671.3;;;;;;;;;;;;;;0.9679251;0.23603015;-0.19696645;;;;;1610.8
1724.0;1671.3;;;;;;;;;;;;;;;;;-11.127811;-12.958922;53.44554;;1610.8
1724.0;1671.3;;;;;;;;;;;;;;1.0177923;0.23548082;-0.26087222;;;;;1610.8
1724.0;1678.0;;;;-1.0845681;0.21473697;-0.55263907;;;;;;;;;;;;;;;
1724.0;1678.0;;;;-1.0904161;0.21900943;-0.5515061;;;;;;;;;;;;;;;
1724.0;1678.0;;;;-1.0951616;0.22314456;-0.54959494;;;;;;;;;;;;;;;
1724.0;1678.0;;;;-1.0995446;0.2274361;-0.5477906;;;;;;;;;;;;;;;
1724.0;1678.0;;;;-1.1033136;0.23099521;-0.54572684;;;;;;;;;;;;;;;
1724.0;1680.5;262143;262143;11814;;;;;;;;;;;;;;;;;;
1724.0;1686.7;;;;;;;;;;;;;348;;;;;;;;
1724.0;1686.7;;;;;;;;;;;;;581;;;;;;;;
1724.0;1686.7;;;;;;;;;;;;;728;;;;;;;;
1724.0;1686.7;;;;;;;;;;;;;893;;;;;;;;
1724.0;1686.7;;;;;;;;;;;;;1137;;;;;;;;
1778.0;1687.9;;;;-1.1072618;0.23477939;-0.54277426;;;;;;;;;;;;;;;
1778.0;1687.9;;;;-1.1112748;0.23830417;-0.53916174;;;;;;;;;;;;;;;
1778.0;1687.9;;;;-1.1159211;0.24156573;-0.5355912;;;;;;;;;;;;;;;
1778.0;1687.9;;;;-1.1215287;0.24461749;-0.53129584;;;;;;;;;;;;;;;
1778.0;1687.9;;;;-1.1271249;0.24747089;-0.5269967;;;;;;;;;;;;;;;
1778.0;1697.9;;;;-1.1336709;0.25016406;-0.52190405;;;;;;;;;;;;;;;
1778.0;1697.9;;;;-1.1402627;0.25264362;-0.51658255;;;;;;;;;;;;;;;
1778.0;1697.9;;;;-1.1479417;0.25487903;-0.511612;;;;;;;;;;;;;;;
1778.0;1697.9;;;;-1.1546365;0.25673297;-0.5073815;;;;;;;;;;;;;;;
1778.0;1697.9;;;;-1.1624337;0.2589493;-0.5022355;;;;;;;;;;;;;;;
1778.0;1700.6;262143;262143;11827;;;;;;;;;;;;;;;;;;
1778.0;1708.0;;;;-1.1713258;0.2615662;-0.49753958;;;;;;;;;;;;;;;
1778.0;1708.0;;;;-1.1788713;0.26329425;-0.49363333;;;;;;;;;;;;;;;
1778.0;1708.0;;;;-1.1858598;0.26515964;-0.48922735;;;;;;;;;;;;;;;
1778.0;1708.0;;;;-1.1927034;0.26718524;-0.48548514;;;;;;;;;;;;;;;
1778.0;1708.0;;;;-1.1988183;0.26851276;-0.4818383;;;;;;;;;;;;;;;
1778.0;1718.1;;;;-1.2040292;0.27007297;-0.4781533;;;;;;;;;;;;;;;
1778.0;1718.1;;;;-1.2096368;0.27095416;-0.47497183;;;;;;;;;;;;;;;
1778.0;1718.1;;;;-1.2160722;0.2721596;-0.47162253;;;;;;;;;;;;;;;
1778.0;1718.1;;;;-1.2218972;0.27341083;-0.4694901;;;;;;;;;;;;;;;
1778.0;1718.1;;;;-1.2283899;0.2747765;-0.46733862;;;;;;;;;;;;;;;
1793.0;1720.9;262143;262143;11823;;;;;;;;;;;;;;;;;;
1793.0;1724.0;;;;;;;;;;;;;;;;;-12.29896;-8.384961;51.847134;;1620.4
1793.0;1724.0;;;;;;;;;;;;;;1.0060732;0.20581684;-0.21875668;;;;;1620.4
1793.0;1724.0;;;;;;;;;;;;;;;;;-13.492996;-7.5571456;50.344093;;1620.4
1793.0;1724.0;;;;;;;;;;;;;;1.01883;0.20325327;-0.17999817;;;;;1620.4
1793.0;1724.0;;;;;;;;;;;;;;;;;-15.415662;-8.659627;49.52391;;1630.0
1793.0;1724.0;;;;;;;;;;;;;;1.0528886;0.20014039;-0.16730247;;;;;1630.0
1793.0;1724.0;;;;;;;;;;;;;;;;;-17.883846;-8.358257;48.39854;;1630.0
1793.0;1724.0;;;;;;;;;;;;;;1.0845668;0.21210364;-0.15143284;;;;;1630.0
1793.0;1724.0;;;;;;;;;;;;;;;;;-20.496994;-8.411665;46.99469;;1639.7
1793.0;1724.0;;;;;;;;;;;;;;1.1139866;0.22260201;-0.13690603;;;;;1639.7
1793.0;1724.0;;;;;;;;;;;;;;;;;-22.999512;-9.929959;45.335243;;1639.7
1793.0;1724.0;;;;;;;;;;;;;;1.1363262;0.2313303;-0.14563432;;;;;1639.7
1795.0;1724.8;;;;;;;;;;;;;;;;;-24.952696;-11.2880335;43.86273;;1649.4
1795.0;1724.8;;;;;;;;;;;;;;1.1570177;0.23639637;-0.16162603;;;;;1649.4
1795.0;1724.8;;;;;;;;;;;;;;;;;-26.314585;-12.779626;42.432175;;1649.4
1795.0;1724.8;;;;;;;;;;;;;;1.1713004;0.24897;-0.18115787;;;;;1649.4
1795.0;1724.8;;;;;;;;;;;;;;;;;-27.768028;-14.458144;41.180912;;1659.0
1795.0;1724.8;;;;;;;;;;;;;;1.177282;0.25006866;-0.1942198;;;;;1659.0
1795.0;1724.8;;;;;;;;;;;;;;;;;-28.683584;-16.37318;39.757988;;1659.0
1795.0;1724.8;;;;;;;;;;;;;;1.1931516;0.24176763;-0.19757684;;;;;1659.0
1795.0;1724.8;;;;;;;;;;;;;;;;;-28.771324;-18.555254;38.270214;;1668.7
1795.0;1724.8;;;;;;;;;;;;;;1.2132939;0.24011964;-0.1812189;;;;;1668.7
1795.0;1724.8;;;;;;;;;;;;;;;;;-29.675436;-21.282846;36.610767;;1668.7
1795.0;1724.8;;;;;;;;;;;;;;1.2431409;0.23303933;-0.15924558;;;;;1668.7
1795.0;1726.8;;;;;;;;;;;;;1336;;;;;;;;
1795.0;1726.8;;;;;;;;;;;;;1508;;;;;;;;
1795.0;1726.8;;;;;;;;;;;;;2101;;;;;;;;
1795.0;1726.8;;;;;;;;;;;;;3138;;;;;;;;
1795.0;1726.8;;;;;;;;;;;;;3941;;;;;;;;
1795.0;1728.0;;;;-1.2347986;0.2762032;-0.465416;;;;;;;;;;;;;;;
1795.0;1728.0;;;;-1.2413789;0.27775195;-0.46355826;;;;;;;;;;;;;;;
1795.0;1728.0;;;;-1.2481462;0.27961734;-0.4620362;;;;;;;;;;;;;;;
1795.0;1728.0;;;;-1.2545091;0.28152087;-0.4608422;;;;;;;;;;;;;;;
1795.0;1728.0;;;;-1.2614709;0.28324512;-0.4604302;;;;;;;;;;;;;;;
1795.0;1737.9;;;;;;;;;;-0.4730369;17.46803;-1.6060365;;;;;;;;;
1795.0;1737.9;;;;;;;1.0093081;-0.057313763;-0.2080752;;;;;;;;;;;;
1795.0;1737.9;;;;;;;;;;6.645406;33.37199;8.1827755;;;;;;;;;
1795.0;1737.9;;;;;;;1.1496933;-0.06799524;-0.24036378;;;;;;;;;;;;
1836.0;1738.0;;;;-1.2692186;0.28499225;-0.45945364;;;;;;;;;;;;;;;
1836.0;1738.0;;;;-1.2759401;0.287159;-0.45872122;;;;;;;;;;;;;;;
1836.0;1738.0;;;;-1.2811548;0.28927615;-0.45803457;;;;;;;;;;;;;;;
1836.0;1738.0;;;;-1.2857248;0.2912064;-0.4579621;;;;;;;;;;;;;;;
1836.0;1738.0;;;;-1.2899743;0.2928963;-0.45834357;;;;;;;;;;;;;;;
1836.0;1740.6;262143;262143;11807;;;;;;;;;;;;;;;;;;
1836.0;1747.3;;;;;;;;;;-0.053407393;4.4938507;3.456221;;;;;;;;;
1836.0;1747.3;;;;;;;1.170629;-0.069093905;-0.24665059;;;;;;;;;;;;
1836.0;1747.3;;;;;;;;;;0.13733329;14.992217;11.482589;;;;;;;;;
1836.0;1747.3;;;;;;;1.1895505;-0.07483139;-0.25080112;;;;;;;;;;;;
1836.0;1747.8;;;;-1.2934457;0.29425052;-0.4583779;;;;;;;;;;;;;;;
1836.0;1747.8;;;;-1.2981149;0.2953377;-0.4590035;;;;;;;;;;;;;;;
1836.0;1747.8;;;;-1.3036653;0.29704288;-0.46028906;;;;;;;;;;;;;;;
1836.0;1747.8;;;;-1.3095437;0.2991219;-0.46097952;;;;;;;;;;;;;;;
1836.0;1747.8;;;;-1.3152887;0.30102542;-0.463234;;;;;;;;;;;;;;;
1836.0;1756.7;;;;;;;;;;-4.4099245;14.522996;15.659811;;;;;;;;;
1836.0;1756.7;;;;;;;1.2065798;-0.08050783;-0.25458542;;;;;;;;;;;;
1836.0;1756.7;;;;;;;;;;-14.2407;-22.679068;-1.0567034;;;;;;;;;
1836.0;1756.7;;;;;;;1.2244025;-0.08587909;-0.25794244;;;;;;;;;;;;
1838.0;1757.7;;;;-1.3195268;0.30365756;-0.4656945;;;;;;;;;;;;;;;
1838.0;1757.7;;;;-1.3226434;0.3055344;-0.46787268;;;;;;;;;;;;;;;
1838.0;1757.7;;;;-1.3256799;0.30762103;-0.47167593;;;;;;;;;;;;;;;
1838.0;1757.7;;;;-1.3281137;0.3098183;-0.4762116;;;;;;;;;;;;;;;
1838.0;1757.7;;;;-1.3298341;0.3120537;-0.48057562;;;;;;;;;;;;;;;
1838.0;1760.5;262143;262143;11800;;;;;;;;;;;;;;;;;;
1838.0;1766.3;;;;;;;;;;-19.039736;-25.143436;2.3270364;;;;;;;;;
1838.0;1766.3;;;;;;;1.2398449;-0.09356975;-0.26081118;;;;;;;;;;;;
1838.0;1766.3;;;;;;;;;;-23.819696;-27.447584;6.0312204;;;;;;;;;
1838.0;1766.3;;;;;;;1.2588274;-0.098391674;-0.26483962;;;;;;;;;;;;
1838.0;1766.7;;;;;;;;;;;;;4261;;;;;;;;
1838.0;1766.7;;;;;;;;;;;;;4489;;;;;;;;
1838.0;1766.7;;;;;;;;;;;;;4686;;;;;;;;
1838.0;1766.7;;;;;;;;;;;;;4453;;;;;;;;
1838.0;1766.7;;;;;;;;;;;;;3297;;;;;;;;
1838.0;1767.8;;;;-1.3314782;0.31471637;-0.48576742;;;;;;;;;;;;;;;
1838.0;1767.8;;;;-1.3322717;0.31760028;-0.49123007;;;;;;;;;;;;;;;
1838.0;1767.8;;;;-1.3317796;0.32027057;-0.4960137;;;;;;;;;;;;;;;
1838.0;1767.8;;;;-1.3303949;0.32310107;-0.5018044;;;;;;;;;;;;;;;
1838.0;1767.8;;;;-1.3288461;0.32610705;-0.50671774;;;;;;;;;;;;;;;
1838.0;1775.9;;;;;;;;;;-28.25251;-22.11066;15.316477;;;;;;;;;
1838.0;1775.9;;;;;;;1.2775658;-0.106631674;-0.26880702;;;;;;;;;;;;
1838.0;1775.9;;;;;;;;;;-29.812769;-15.343181;23.400066;;;;;;;;;
1838.0;1775.9;;;;;;;1.2935575;-0.11346782;-0.27375102;;;;;;;;;;;;
1840.0;1777.9;;;;-1.3258592;0.32936862;-0.5106965;;;;;;;;;;;;;;;
1840.0;1777.9;;;;-1.3229028;0.33262256;-0.5147973;;;;;;;;;;;;;;;
1840.0;1777.9;;;;-1.319523;0.33596805;-0.5177956;;;;;;;;;;;;;;;
1840.0;1777.9;;;;-1.3153001;0.3390961;-0.5202485;;;;;;;;;;;;;;;
1840.0;1777.9;;;;-1.310486;0.34177402;-0.5221444;;;;;;;;;;;;;;;
1840.0;1780.8;262143;262143;11792;;;;;;;;;;;;;;;;;;
1840.0;1784.4;;;;;;;;;;;;;;;;;-30.983917;-23.97992;35.149693;;1678.3
1840.0;1784.4;;;;;;;;;;;;;;1.2833644;0.23816645;-0.13068026;;;;;1678.3
1840.0;1784.4;;;;;;;;;;;;;;;;;-33.833584;-25.528732;33.673363;;1678.3
1840.0;1784.4;;;;;;;;;;;;;;1.3307902;0.25238806;-0.104373306;;;;;1678.3
1840.0;1784.4;;;;;;;;;;;;;;;;;-37.892544;-26.696066;31.777397;;1687.9
1840.0;1784.4;;;;;;;;;;;;;;1.3722953;0.28394422;-0.0783105;;;;;1687.9
1840.0;1784.4;;;;;;;;;;;;;;;;;-41.24958;-28.660696;29.137547;;1687.9
1840.0;1784.4;;;;;;;;;;;;;;1.3951842;0.31812495;-0.0700705;;;;;1687.9
1840.0;1784.4;;;;;;;;;;;;;;;;;-41.642506;-31.197546;26.688437;;1697.6
1840.0;1784.4;;;;;;;;;;;;;;1.4118472;0.34742272;-0.08996857;;;;;1697.6
1840.0;1784.4;;;;;;;;;;;;;;;;;-39.796135;-31.40736;23.86166;;1697.6
1840.0;1784.4;;;;;;;;;;;;;;1.4268624;0.37879574;-0.108401746;;;;;1697.6
1844.0;1785.2;;;;;;;;;;;;;;;;;-39.30784;-27.481916;21.07303;;1707.2
1844.0;1785.2;;;;;;;;;;;;;;1.4354075;0.39808345;-0.11450545;;;;;1707.2
1844.0;1785.2;;;;;;;;;;;;;;;;;-40.8681;-17.845697;17.677847;;1707.2
1844.0;1785.2;;;;;;;;;;;;;;1.4564043;0.40900907;-0.11505478;;;;;1707.2
1844.0;1785.2;;;;;;;;;;;;;;;;;-41.745506;-4.8486285;12.802515;;1716.9
1844.0;1785.2;;;;;;;;;;;;;;1.4865566;0.40687278;-0.10174871;;;;;1716.9
1844.0;1785.2;;;;;;;;;;;;;;;;;-40.448467;7.854701;3.6393323;;1716.9
1844.0;1785.2;;;;;;;;;;;;;;1.5385602;0.42384106;-0.07556383;;;;;1716.9
1844.0;1785.2;;;;;;;;;;;;;;;;;-39.62447;18.757439;-7.6029234;;1726.4
1844.0;1785.2;;;;;;;;;;;;;;1.5687735;0.46845913;-0.061891537;;;;;1726.4
1844.0;1785.2;;;;;;;;;;;;;;;;;-36.919765;25.517288;-17.662586;;1726.4
1844.0;1785.2;;;;;;;;;;;;;;1.5955076;0.5366375;-0.05835139;;;;;1726.4
1844.0;1785.4;;;;;;;;;;-30.182806;-16.731773;24.380474;;;;;;;;;
1844.0;1785.4;;;;;;;1.3093051;-0.11999878;-0.2800989;;;;;;;;;;;;
1844.0;1785.4;;;;;;;;;;-30.69399;-18.360699;25.090029;;;;;;;;;
1844.0;1785.4;;;;;;;1.3250526;-0.126957;-0.28614154;;;;;;;;;;;;
1844.0;1787.9;;;;-1.3046571;0.34388736;-0.5232201;;;;;;;;;;;;;;;
1844.0;1787.9;;;;-1.2980043;0.34539798;-0.52286917;;;;;;;;;;;;;;;
1844.0;1787.9;;;;-1.2900583;0.34709552;-0.5214234;;;;;;;;;;;;;;;
1844.0;1787.9;;;;-1.2804796;0.34759143;-0.52035147;;;;;;;;;;;;;;;
1844.0;1787.9;;;;-1.2696916;0.34755328;-0.51884085;;;;;;;;;;;;;;;
1844.0;1795.0;;;;;;;;;;-31.281471;-20.039215;25.784325;;;;;;;;;
1844.0;1795.0;;;;;;;1.338847;-0.13257241;-0.29609057;;;;;;;;;;;;
1844.0;1795.0;;;;;;;;;;-31.95288;-21.664328;26.371807;;;;;;;;;
1844.0;1795.0;;;;;;;1.3522141;-0.1363567;-0.30384228;;;;;;;;;;;;
1899.0;1798.0;;;;-1.2576753;0.3469582;-0.516964;;;;;;;;;;;;;;;
1899.0;1798.0;;;;-1.2444154;0.34561923;-0.5134583;;;;;;;;;;;;;;;
1899.0;1798.0;;;;-1.2306558;0.34390643;-0.5093346;;;;;;;;;;;;;;;
1899.0;1798.0;;;;-1.215851;0.34132388;-0.5028458;;;;;;;;;;;;;;;
1899.0;1798.0;;;;-1.1997834;0.33801654;-0.49601752;;;;;;;;;;;;;;;
1899.0;1800.8;262143;262143;11797;;;;;;;;;;;;;;;;;;
1899.0;1804.5;;;;;;;;;;-32.574696;-23.365734;26.917326;;;;;;;;;
1899.0;1804.5;;;;;;;1.3639332;-0.13959166;-0.31275368;;;;;;;;;;;;
1899.0;1804.5;;;;;;;;;;-33.387253;-25.059511;27.3484;;;;;;;;;
1899.0;1804.5;;;;;;;1.3753471;-0.14307077;-0.31928465;;;;;;;;;;;;
1899.0;1806.8;;;;;;;;;;;;;1932;;;;;;;;
1899.0;1806.8;;;;;;;;;;;;;4143;;;;;;;;
1899.0;1806.8;;;;;;;;;;;;;6169;;;;;;;;
1899.0;1806.8;;;;;;;;;;;;;-6678;;;;;;;;
1899.0;1806.8;;;;;;;;;;;;;-34227;;;;;;;;
1899.0;1807.8;;;;-1.1831514;0.33445743;-0.48745352;;;;;;;;;;;;;;;
1899.0;1807.8;;;;-1.1656076;0.33090976;-0.47713095;;;;;;;;;;;;;;;
1899.0;1807.8;;;;-1.1469384;0.3267403;-0.46664053;;;;;;;;;;;;;;;
1899.0;1807.8;;;;-1.1274263;0.3215256;-0.45529944;;;;;;;;;;;;;;;
1899.0;1807.8;;;;-1.1077348;0.31569293;-0.44355398;;;;;;;;;;;;;;;
1899.0;1813.9;;;;;;;;;;-34.192173;-26.623585;27.649769;;;;;;;;;
1899.0;1813.9;;;;;;;1.388287;-0.14606158;-0.32667014;;;;;;;;;;;;
1899.0;1813.9;;;;;;;;;;-35.05432;-28.092287;27.916805;;;;;;;;;
1899.0;1813.9;;;;;;;1.3994567;-0.14966278;-0.33265176;;;;;;;;;;;;
1902.0;1817.8;;;;-1.0882913;0.30991748;-0.43119437;;;;;;;;;;;;;;;
1902.0;1817.8;;;;-1.0699388;0.30352405;-0.4188729;;;;;;;;;;;;;;;
1902.0;1817.8;;;;-1.0523874;0.29646304;-0.4065705;;;;;;;;;;;;;;;
1902.0;1817.8;;;;-1.0362436;0.28934863;-0.3942414;;;;;;;;;;;;;;;
1902.0;1817.8;;;;-1.0197603;0.2816582;-0.38242346;;;;;;;;;;;;;;;
1902.0;1820.8;262143;262143;11809;;;;;;;;;;;;;;;;;;
1902.0;1823.5;;;;;;;;;;-35.96988;-29.419844;28.214361;;;;;;;;;
1902.0;1823.5;;;;;;;1.4098941;-0.15619373;-0.33851132;;;;;;;;;;;;
1902.0;1823.5;;;;;;;;;;-36.862545;-30.552843;28.427992;;;;;;;;;
1902.0;1823.5;;;;;;;1.4215522;-0.16290781;-0.34119692;;;;;;;;;;;;
1902.0;1827.9;;;;-1.0038186;0.27342227;-0.37030795;;;;;;;;;;;;;;;
1902.0;1827.9;;;;-0.98833096;0.26518252;-0.35812;;;;;;;;;;;;;;;
1902.0;1827.9;;;;-0.97275555;0.25649264;-0.34673312;;;;;;;;;;;;;;;
1902.0;1827.9;;;;-0.95806515;0.24765018;-0.33547214;;;;;;;;;;;;;;;
1902.0;1827.9;;;;-0.9444696;0.23842242;-0.32364276;;;;;;;;;;;;;;;
1902.0;1833.1;;;;;;;;;;-37.75521;-31.228065;28.599659;;;;;;;;;
1902.0;1833.1;;;;;;;1.429487;-0.1690115;-0.34400463;;;;;;;;;;;;
1902.0;1833.1;;;;;;;;;;-38.563953;-31.33488;28.771324;;;;;;;;;
1902.0;1833.1;;;;;;;1.4335765;-0.17749566;-0.34430984;;;;;;;;;;;;
1903.0;1838.0;;;;-0.930935;0.22884753;-0.3128014;;;;;;;;;;;;;;;
1903.0;1838.0;;;;-0.9181634;0.21919253;-0.3026009;;;;;;;;;;;;;;;
1903.0;1838.0;;;;-0.9064828;0.2096596;-0.2933121;;;;;;;;;;;;;;;
1903.0;1838.0;;;;-0.89590085;0.20032886;-0.2854233;;;;;;;;;;;;;;;
1903.0;1838.0;;;;-0.8874856;0.19105533;-0.27896503;;;;;;;;;;;;;;;
1903.0;1841.0;262143;262143;11809;;;;;;;;;;;;;;;;;;
1903.0;1842.7;;;;;;;;;;-39.44517;-31.067842;28.828547;;;;;;;;;
1903.0;1842.7;;;;;;;1.4343089;-0.18842128;-0.34479812;;;;;;;;;;;;
1903.0;1842.7;;;;;;;;;;-40.318764;-30.507065;28.748436;;;;;;;;;
1903.0;1842.7;;;;;;;1.4249092;-0.19946899;-0.3452254;;;;;;;;;;;;
1903.0;1844.2;;;;;;;;;;;;;;;;;-29.831844;25.936918;-22.614216;;1736.1
1903.0;1844.2;;;;;;;;;;;;;;1.5786004;0.56135744;-0.095156714;;;;;1736.1
1903.0;1844.2;;;;;;;;;;;;;;;;;-21.591846;22.991882;-25.58214;;1736.1
1903.0;1844.2;;;;;;;;;;;;;;1.5276955;0.5377361;-0.19922483;;;;;1736.1
1903.0;1844.2;;;;;;;;;;;;;;;;;-15.46144;23.060549;-31.945251;;1745.7
1903.0;1844.2;;;;;;;;;;;;;;1.4615314;0.49983215;-0.3291116;;;;;1745.7
1903.0;1844.2;;;;;;;;;;;;;;;;;-11.284219;25.906399;-43.752098;;1745.7
1903.0;1844.2;;;;;;;;;;;;;;1.4277169;0.53889585;-0.41969055;;;;;1745.7
1903.0;1844.2;;;;;;;;;;;;;;;;;-10.677664;31.273842;-54.75402;;1755.4
1903.0;1844.2;;;;;;;;;;;;;;1.3721732;0.56770533;-0.4674215;;;;;1755.4
1903.0;1844.2;;;;;;;;;;;;;;;;;-12.390514;37.495804;-64.283424;;1755.4
1903.0;1844.2;;;;;;;;;;;;;;1.3086947;0.5846736;-0.44508195;;;;;1755.4
1906.0;1845.0;;;;;;;;;;;;;;;;;-14.572589;41.45558;-73.23679;;1765.1
1906.0;1845.0;;;;;;;;;;;;;;1.2609638;0.5855892;-0.37739187;;;;;1765.1
1906.0;1845.0;;;;;;;;;;;;;;;;;-17.414623;42.615284;-81.53783;;1765.1
1906.0;1845.0;;;;;;;;;;;;;;1.218543;0.5872372;-0.29523605;;;;;1765.1
1906.0;1845.0;;;;;;;;;;;;;;;;;-22.431105;40.13184;-87.79794;;1774.8
1906.0;1845.0;;;;;;;;;;;;;;1.1496322;0.5449385;-0.22400586;;;;;1774.8
1906.0;1845.0;;;;;;;;;;;;;;;;;-27.314068;31.792656;-93.12723;;1774.8
1906.0;1845.0;;;;;;;;;;;;;;1.0633259;0.48945585;-0.1507004;;;;;1774.8
1906.0;1845.0;;;;;;;;;;;;;;;;;-31.678215;16.453293;-97.73553;;1784.4
1906.0;1845.0;;;;;;;;;;;;;;0.9931333;0.43140966;-0.120548114;;;;;1784.4
1906.0;1845.0;;;;;;;;;;;;;;;;;-35.531174;5.42848;-102.5956;;1784.4
1906.0;1845.0;;;;;;;;;;;;;;0.95596176;0.40504166;-0.08740501;;;;;1784.4
1906.0;1847.0;;;;;;;;;;;;;-51992;;;;;;;;
1906.0;1847.0;;;;;;;;;;;;;-40247;;;;;;;;
1906.0;1847.0;;;;;;;;;;;;;-9730;;;;;;;;
1906.0;1847.0;;;;;;;;;;;;;11543;;;;;;;;
1906.0;1847.0;;;;;;;;;;;;;12515;;;;;;;;
1906.0;1848.0;;;;-0.8804208;0.1817589;-0.27242664;;;;;;;;;;;;;;;
1906.0;1848.0;;;;-0.8741571;0.17306902;-0.2670479;;;;;;;;;;;;;;;
1906.0;1848.0;;;;-0.8693963;0.16450883;-0.26160434;;;;;;;;;;;;;;;
1906.0;1848.0;;;;-0.8654481;0.15638734;-0.25688937;;;;;;;;;;;;;;;
1906.0;1848.0;;;;-0.86199963;0.14875795;-0.25360873;;;;;;;;;;;;;;;
1906.0;1852.2;;;;;;;;;;-41.01306;-29.580067;28.695028;;;;;;;;;
1906.0;1852.2;;;;;;;1.4086734;-0.21143223;-0.34272286;;;;;;;;;;;;
1906.0;1852.2;;;;;;;;;;-41.75695;-28.157139;28.359325;;;;;;;;;
1906.0;1852.2;;;;;;;1.389813;-0.22144231;-0.33716848;;;;;;;;;;;;
1958.0;1858.1;;;;-0.8593751;0.14161302;-0.25059512;;;;;;;;;;;;;;;
1958.0;1858.1;;;;-0.85834897;0.13473512;-0.24904254;;;;;;;;;;;;;;;
1958.0;1858.1;;;;-0.85783017;0.1285515;-0.24858859;;;;;;;;;;;;;;;
1958.0;1858.1;;;;-0.85793316;0.12320329;-0.24871448;;;;;;;;;;;;;;;
1958.0;1858.1;;;;-0.8583833;0.11840059;-0.24887088;;;;;;;;;;;;;;;
1958.0;1861.1;262143;262143;11797;;;;;;;;;;;;;;;;;;
1958.0;1861.8;;;;;;;;;;-42.504654;-26.467178;27.600176;;;;;;;;;
1958.0;1861.8;;;;;;;1.3661306;-0.22888882;-0.3333842;;;;;;;;;;;;
1958.0;1861.8;;;;;;;;;;-43.256172;-24.552141;26.432844;;;;;;;;;
1958.0;1861.8;;;;;;;1.3356731;-0.23615223;-0.32898954;;;;;;;;;;;;
1958.0;1868.0;;;;-0.8595964;0.113800064;-0.250042;;;;;;;;;;;;;;;
1958.0;1868.0;;;;-0.8609544;0.110130325;-0.25111392;;;;;;;;;;;;;;;
1958.0;1868.0;;;;-0.86301816;0.10745241;-0.25131992;;;;;;;;;;;;;;;
1958.0;1868.0;;;;-0.8647424;0.10531999;-0.25264362;;;;;;;;;;;;;;;
1958.0;1868.0;;;;-0.86595166;0.103950515;-0.25376895;;;;;;;;;;;;;;;
1958.0;1871.1;;;;;;;;;;-44.049656;-22.446363;24.899288;;;;;;;;;
1958.0;1871.1;;;;;;;1.300882;-0.23804438;-0.32453382;;;;;;;;;;;;
1958.0;1871.1;;;;;;;;;;-44.747765;-20.119328;23.129215;;;;;;;;;
1958.0;1871.1;;;;;;;1.2625507;-0.23767816;-0.31684315;;;;;;;;;;;;
1961.0;1878.0;;;;-0.8661729;0.10296251;-0.25509265;;;;;;;;;;;;;;;
1961.0;1878.0;;;;-0.86641705;0.10276033;-0.25670627;;;;;;;;;;;;;;;
1961.0;1878.0;;;;-0.8660356;0.10313417;-0.25862888;;;;;;;;;;;;;;;
1961.0;1878.0;;;;-0.86522686;0.103462234;-0.26057056;;;;;;;;;;;;;;;
1961.0;1878.0;;;;-0.864483;0.10443117;-0.2626343;;;;;;;;;;;;;;;
1961.0;1880.7;;;;;;;;;;-45.533615;-17.49855;21.347698;;;;;;;;;
1961.0;1880.7;;;;;;;1.2237312;-0.23682363;-0.31019014;;;;;;;;;;;;
1961.0;1880.7;;;;;;;;;;-46.3271;-14.496292;19.455551;;;;;;;;;
1961.0;1880.7;;;;;;;1.18717;-0.22821741;-0.30164495;;;;;;;;;;;;
1961.0;1881.1;262143;262143;11795;;;;;;;;;;;;;;;;;;
1961.0;1887.2;;;;;;;;;;;;;6322;;;;;;;;
1961.0;1887.2;;;;;;;;;;;;;6092;;;;;;;;
1961.0;1887.2;;;;;;;;;;;;;8874;;;;;;;;
1961.0;1887.2;;;;;;;;;;;;;9047;;;;;;;;
1961.0;1887.2;;;;;;;;;;;;;8730;;;;;;;;
1961.0;1888.1;;;;-0.8635522;0.10564043;-0.26568225;;;;;;;;;;;;;;;
1961.0;1888.1;;;;-0.8629724;0.107101455;-0.26805118;;;;;;;;;;;;;;;
1961.0;1888.1;;;;-0.8616258;0.10905458;-0.27108768;;;;;;;;;;;;;;;
1961.0;1888.1;;;;-0.86055005;0.11054231;-0.2740822;;;;;;;;;;;;;;;
1961.0;1888.1;;;;-0.85905087;0.11206819;-0.27624133;;;;;;;;;;;;;;;
1961.0;1890.4;;;;;;;;;;-47.124393;-11.078218;17.574846;;;;;;;;;
1961.0;1890.4;;;;;;;1.1568346;-0.21601;-0.2924894;;;;;;;;;;;;
1961.0;1890.4;;;;;;;;;;-47.92932;-7.354961;15.793329;;;;;;;;;
1961.0;1890.4;;;;;;;1.131077;-0.1991638;-0.28528702;;;;;;;;;;;;
1964.0;1898.2;;;;-0.8573228;0.11368562;-0.2782822;;;;;;;;;;;;;;;
1964.0;1898.2;;;;-0.8552476;0.114856735;-0.28057483;;;;;;;;;;;;;;;
1964.0;1898.2;;;;-0.852913;0.11656572;-0.2824097;;;;;;;;;;;;;;;
1964.0;1898.2;;;;-0.85060894;0.11801149;-0.28439334;;;;;;;;;;;;;;;
1964.0;1898.2;;;;-0.8486825;0.119518295;-0.28564456;;;;;;;;;;;;;;;
1964.0;1900.0;;;;;;;;;;-48.684654;-3.1586657;14.191107;;;;;;;;;
1964.0;1900.0;;;;;;;1.1072115;-0.18060854;-0.27924436;;;;;;;;;;;;
1964.0;1900.0;;;;;;;;;;-49.3408;1.1749626;12.668996;;;;;;;;;
1964.0;1900.0;;;;;;;1.0905484;-0.15771966;-0.275338;;;;;;;;;;;;
1964.0;1901.4;262143;262143;11797;;;;;;;;;;;;;;;;;;
1964.0;1904.9;;;;;;;;;;;;;;;;;-41.009247;-0.35096285;-106.23493;;1794.1
1964.0;1904.9;;;;;;;;;;;;;;0.9255043;0.4118778;-0.027954955;;;;;1794.1
1964.0;1904.9;;;;;;;;;;;;;;;;;-45.678577;-11.06296;-111.5833;;1794.1
1964.0;1904.9;;;;;;;;;;;;;;0.95937985;0.4379406;-0.008301035;;;;;1794.1
1964.0;1904.9;;;;;;;;;;;;;;;;;-49.096653;-19.039736;-115.74908;;1803.6
1964.0;1904.9;;;;;;;;;;;;;;0.98373365;0.463332;-0.007141331;;;;;1803.6
1964.0;1904.9;;;;;;;;;;;;;;;;;-51.023132;-21.298105;-120.7007;;1803.6
1964.0;1904.9;;;;;;;;;;;;;;0.9985656;0.47572252;-0.010254219;;;;;1803.6
1964.0;1904.9;;;;;;;;;;;;;;;;;-49.241615;-22.034365;-124.217964;;1813.3
1964.0;1904.9;;;;;;;;;;;;;;1.0352489;0.50038147;-4.8829615E-4;;;;;1813.3
1964.0;1904.9;;;;;;;;;;;;;;;;;-48.581654;-22.251808;-124.988556;;1813.3
1964.0;1904.9;;;;;;;;;;;;;;1.1026337;0.522599;-0.031006806;;;;;1813.3
1965.0;1905.7;;;;;;;;;;;;;;;;;-46.55217;-20.050661;-124.988556;;1823.0
1965.0;1905.7;;;;;;;;;;;;;;1.1836299;0.5083163;-0.08587909;;;;;1823.0
1965.0;1905.7;;;;;;;;;;;;;;;;;-37.27836;-17.281105;-124.95041;;1823.0
1965.0;1905.7;;;;;;;;;;;;;;1.2752464;0.4407483;-0.13837092;;;;;1823.0
1965.0;1905.7;;;;;;;;;;;;;;;;;-23.724327;-19.146551;-121.67729;;1832.6
1965.0;1905.7;;;;;;;;;;;;;;1.2995392;0.34833828;-0.17236854;;;;;1832.6
1965.0;1905.7;;;;;;;;;;;;;;;;;-9.548479;-38.201546;-115.485855;;1832.6
1965.0;1905.7;;;;;;;;;;;;;;1.2824488;0.25116733;-0.20996734;;;;;1832.6
1965.0;1905.7;;;;;;;;;;;;;;;;;-2.0485551;-66.125984;-115.436264;;1842.3
1965.0;1905.7;;;;;;;;;;;;;;1.2392956;0.17481002;-0.26483962;;;;;1842.3
1965.0;1905.7;;;;;;;;;;;;;;;;;1.2588885;-99.066895;-116.554;;1842.3
1965.0;1905.7;;;;;;;;;;;;;;1.1976074;0.12018189;-0.3243507;;;;;1842.3
1965.0;1908.2;;;;-0.8463975;0.12085725;-0.28798297;;;;;;;;;;;;;;;
1965.0;1908.2;;;;-0.8447877;0.12189104;-0.29005435;;;;;;;;;;;;;;;
1965.0;1908.2;;;;-0.8432237;0.123497024;-0.29128268;;;;;;;;;;;;;;;
1965.0;1908.2;;;;-0.84230053;0.12501909;-0.29324725;;;;;;;;;;;;;;;
1965.0;1908.2;;;;-0.8418313;0.12665178;-0.29412082;;;;;;;;;;;;;;;
1965.0;1909.5;;;;;;;;;;-49.87869;5.451369;11.413922;;;;;;;;;
1965.0;1909.5;;;;;;;1.0760826;-0.13940856;-0.2722251;;;;;;;;;;;;
1965.0;1909.5;;;;;;;;;;-50.286873;9.659109;10.254219;;;;;;;;;
1965.0;1909.5;;;;;;;1.0630817;-0.121097445;-0.27008882;;;;;;;;;;;;
2017.0;1918.3;;;;-0.8417512;0.12729265;-0.29487994;;;;;;;;;;;;;;;
2017.0;1918.3;;;;-0.8420869;0.12826921;-0.2955971;;;;;;;;;;;;;;;
2017.0;1918.3;;;;-0.84269726;0.12944414;-0.29560474;;;;;;;;;;;;;;;
2017.0;1918.3;;;;-0.8436433;0.13071825;-0.29527286;;;;;;;;;;;;;;;
2017.0;1918.3;;;;-0.84450924;0.1319771;-0.29524615;;;;;;;;;;;;;;;
2017.0;1919.1;;;;;;;;;;-50.572983;13.790551;9.285256;;;;;;;;;
2017.0;1919.1;;;;;;;1.0496536;-0.10400708;-0.2700278;;;;;;;;;;;;
2017.0;1919.1;;;;;;;;;;-50.771355;17.738884;8.59859;;;;;;;;;
2017.0;1919.1;;;;;;;1.0364696;-0.08948027;-0.27014986;;;;;;;;;;;;
2017.0;1921.4;262143;262143;11800;;;;;;;;;;;;;;;;;;
2017.0;1927.4;;;;;;;;;;;;;8625;;;;;;;;
2017.0;1927.4;;;;;;;;;;;;;7704;;;;;;;;
2017.0;1927.4;;;;;;;;;;;;;6800;;;;;;;;
2017.0;1927.4;;;;;;;;;;;;;5931;;;;;;;;
2017.0;1927.4;;;;;;;;;;;;;4919;;;;;;;;
2017.0;1928.2;;;;-0.8457185;0.13366319;-0.2945023;;;;;;;;;;;;;;;
2017.0;1928.2;;;;-0.84710324;0.13543321;-0.29422382;;;;;;;;;;;;;;;
2017.0;1928.2;;;;-0.84917843;0.1372986;-0.29347995;;;;;;;;;;;;;;;
2017.0;1928.2;;;;-0.8524858;0.13943483;-0.2925301;;;;;;;;;;;;;;;
2017.0;1928.2;;;;-0.85528576;0.14174654;-0.2905884;;;;;;;;;;;;;;;
2017.0;1928.4;;;;;;;;;;-50.851467;21.50792;7.980591;;;;;;;;;
2017.0;1928.4;;;;;;;1.0310984;-0.07605213;-0.2743614;;;;;;;;;;;;
2017.0;1928.4;;;;;;;;;;-50.82476;24.895473;7.3816648;;;;;;;;;
2017.0;1928.4;;;;;;;1.0327463;-0.06781213;-0.2827235;;;;;;;;;;;;
2022.0;1938.0;;;;;;;;;;-50.59587;27.93588;6.6301465;;;;;;;;;
2022.0;1938.0;;;;;;;1.0349437;-0.060487688;-0.29023102;;;;;;;;;;;;
2022.0;1938.0;;;;;;;;;;-50.218204;30.476545;5.8709984;;;;;;;;;
2022.0;1938.0;;;;;;;1.0383618;-0.05755791;-0.2964568;;;;;;;;;;;;
2022.0;1938.2;;;;-0.8574792;0.14426424;-0.28925708;;;;;;;;;;;;;;;
2022.0;1938.2;;;;-0.8597604;0.14654543;-0.2882767;;;;;;;;;;;;;;;
2022.0;1938.2;;;;-0.8617631;0.14847185;-0.28621677;;;;;;;;;;;;;;;
2022.0;1938.2;;;;-0.8632127;0.14996721;-0.28486636;;;;;;;;;;;;;;;
2022.0;1938.2;;;;-0.86468136;0.15166093;-0.28335193;;;;;;;;;;;;;;;
2022.0;1941.4;262143;262143;11817;;;;;;;;;;;;;;;;;;
2022.0;1947.6;;;;;;;;;;-49.748985;32.765434;5.2529984;;;;;;;;;
2022.0;1947.6;;;;;;;1.0411085;-0.05383465;-0.3043306;;;;;;;;;;;;
2022.0;1947.6;;;;;;;;;;-49.058506;34.730064;4.692221;;;;;;;;;
2022.0;1947.6;;;;;;;1.0412306;-0.05590991;-0.31318095;;;;;;;;;;;;
2022.0;1948.3;;;;-0.8652879;0.15308763;-0.28056338;;;;;;;;;;;;;;;
2022.0;1948.3;;;;-0.86668026;0.15485384;-0.27780917;;;;;;;;;;;;;;;
2022.0;1948.3;;;;-0.86828244;0.15620424;-0.27466968;;;;;;;;;;;;;;;
2022.0;1948.3;;;;-0.8689958;0.1575966;-0.27135852;;;;;;;;;;;;;;;
2022.0;1948.3;;;;-0.86874783;0.15878679;-0.26784518;;;;;;;;;;;;;;;
2022.0;1957.3;;;;;;;;;;-48.44432;36.545914;4.0246286;;;;;;;;;
2022.0;1957.3;;;;;;;1.040498;-0.058473464;-0.32245857;;;;;;;;;;;;
2022.0;1957.3;;;;;;;;;;-47.814877;38.54488;3.1052582;;;;;;;;;
2022.0;1957.3;;;;;;;1.028901;-0.058046207;-0.3239845;;;;;;;;;;;;
2024.0;1958.4;;;;-0.86771023;0.16014482;-0.26493075;;;;;;;;;;;;;;;
2024.0;1958.4;;;;-0.86553586;0.16071321;-0.2621689;;;;;;;;;;;;;;;
2024.0;1958.4;;;;-0.86337674;0.16119005;-0.25841525;;;;;;;;;;;;;;;
2024.0;1958.4;;;;-0.8609811;0.1612549;-0.25462344;;;;;;;;;;;;;;;
2024.0;1958.4;;;;-0.85873425;0.16137315;-0.25124362;;;;;;;;;;;;;;;
2024.0;1961.7;262143;262143;11821;;;;;;;;;;;;;;;;;;
2024.0;1964.8;;;;;;;;;;;;;;;;;2.5406659;-122.974335;-117.60308;;1852.0
2024.0;1964.8;;;;;;;;;;;;;;1.1796014;0.06408887;-0.41792047;;;;;1852.0
2024.0;1964.8;;;;;;;;;;;;;;;;;-0.8888516;-124.988556;-117.015594;;1852.0
2024.0;1964.8;;;;;;;;;;;;;;1.2187262;-0.01965392;-0.62215036;;;;;1852.0
2024.0;1964.8;;;;;;;;;;;;;;;;;-7.6525164;-124.988556;-105.76952;;1861.6
2024.0;1964.8;;;;;;;;;;;;;;1.2496109;-0.11114841;-0.8265633;;;;;1861.6
2024.0;1964.8;;;;;;;;;;;;;;;;;-29.122288;-122.04352;-98.21238;;1861.6
2024.0;1964.8;;;;;;;;;;;;;;1.2248299;-0.20227668;-0.9533372;;;;;1861.6
2024.0;1964.8;;;;;;;;;;;;;;;;;-60.12528;-85.96301;-103.06482;;1871.2
2024.0;1964.8;;;;;;;;;;;;;;1.1500595;-0.27405623;-0.931547;;;;;1871.2
2024.0;1964.8;;;;;;;;;;;;;;;;;-90.86504;-24.880215;-112.39585;;1871.2
2024.0;1964.8;;;;;;;;;;;;;;1.0998871;-0.22632527;-0.72292244;;;;;1871.2
2025.0;1965.6;;;;;;;;;;;;;;;;;-119.04508;27.989288;-112.18222;;1880.8
2025.0;1965.6;;;;;;;;;;;;;;1.0808436;-0.14331493;-0.49439985;;;;;1880.8
2025.0;1965.6;;;;;;;;;;;;;;;;;-124.988556;64.783165;-113.66238;;1880.8
2025.0;1965.6;;;;;;;;;;;;;;1.1562853;-0.0018921476;-0.3497421;;;;;1880.8
2025.0;1965.6;;;;;;;;;;;;;;;;;-124.988556;95.164345;-108.64971;;1890.4
2025.0;1965.6;;;;;;;;;;;;;;1.2026734;0.10449538;-0.21369061;;;;;1890.4
2025.0;1965.6;;;;;;;;;;;;;;;;;-124.988556;115.52782;-98.60912;;1890.4
2025.0;1965.6;;;;;;;;;;;;;;1.238258;0.13080233;-0.13171789;;;;;1890.4
2025.0;1965.6;;;;;;;;;;;;;;;;;-124.988556;121.360664;-92.871635;;1899.9
2025.0;1965.6;;;;;;;;;;;;;;1.2538224;0.16711935;-0.071657464;;;;;1899.9
2025.0;1965.6;;;;;;;;;;;;;;;;;-124.988556;123.55037;-90.59038;;1899.9
2025.0;1965.6;;;;;;;;;;;;;;1.2373425;0.16266365;0.0047608875;;;;;1899.9
2025.0;1966.7;;;;;;;;;;-46.864986;39.67406;2.7924435;;;;;;;;;
2025.0;1966.7;;;;;;;1.0179754;-0.06164739;-0.33234656;;;;;;;;;;;;
2025.0;1966.7;;;;;;;;;;-45.857876;40.547653;2.5330362;;;;;;;;;
2025.0;1966.7;;;;;;;1.0048524;-0.06622516;-0.3382061;;;;;;;;;;;;
2025.0;1967.6;;;;;;;;;;;;;3942;;;;;;;;
2025.0;1967.6;;;;;;;;;;;;;3207;;;;;;;;
2025.0;1967.6;;;;;;;;;;;;;3086;;;;;;;;
2025.0;1967.6;;;;;;;;;;;;;3301;;;;;;;;
2025.0;1967.6;;;;;;;;;;;;;3123;;;;;;;;
2025.0;1968.4;;;;-0.8564836;0.16133119;-0.24758151;;;;;;;;;;;;;;;
2025.0;1968.4;;;;-0.8534776;0.16116716;-0.24472049;;;;;;;;;;;;;;;
2025.0;1968.4;;;;-0.85061276;0.16093065;-0.24073794;;;;;;;;;;;;;;;
2025.0;1968.4;;;;-0.84788144;0.16007997;-0.23677066;;;;;;;;;;;;;;;
2025.0;1968.4;;;;-0.84404767;0.15895082;-0.23274997;;;;;;;;;;;;;;;
2079.0;1976.3;;;;;;;;;;-44.820244;41.165653;1.9722588;;;;;;;;;
2079.0;1976.3;;;;;;;0.999176;-0.06640828;-0.34363842;;;;;;;;;;;;
2079.0;1976.3;;;;;;;;;;-43.694878;41.428875;1.2779626;;;;;;;;;
2079.0;1976.3;;;;;;;0.9933775;-0.07025361;-0.34992522;;;;;;;;;;;;
2079.0;1978.4;;;;-0.8397714;0.15755083;-0.22926334;;;;;;;;;;;;;;;
2079.0;1978.4;;;;-0.835518;0.15562822;-0.22568896;;;;;;;;;;;;;;;
2079.0;1978.4;;;;-0.83078015;0.15374376;-0.22195819;;;;;;;;;;;;;;;
2079.0;1978.4;;;;-0.8260919;0.15155412;-0.21870425;;;;;;;;;;;;;;;
2079.0;1978.4;;;;-0.8220483;0.14906313;-0.21554568;;;;;;;;;;;;;;;
2079.0;1981.7;262143;262143;11837;;;;;;;;;;;;;;;;;;
2079.0;1985.8;;;;;;;;;;-42.512283;41.52043;0.6637776;;;;;;;;;
2079.0;1985.8;;;;;;;0.98751795;-0.074221015;-0.35517442;;;;;;;;;;;;
2079.0;1985.8;;;;;;;;;;-41.31443;41.405987;0.095370345;;;;;;;;;
2079.0;1985.8;;;;;;;0.98477125;-0.0756859;-0.36115605;;;;;;;;;;;;
2079.0;1988.3;;;;-0.8176156;0.14623262;-0.21242526;;;;;;;;;;;;;;;
2079.0;1988.3;;;;-0.81328213;0.14270402;-0.20947269;;;;;;;;;;;;;;;
2079.0;1988.3;;;;-0.80817044;0.13946916;-0.20633319;;;;;;;;;;;;;;;
2079.0;1988.3;;;;-0.80410016;0.13571931;-0.20325854;;;;;;;;;;;;;;;
2079.0;1988.3;;;;-0.79945385;0.13196184;-0.20013812;;;;;;;;;;;;;;;
2079.0;1995.2;;;;;;;;;;-40.208134;41.09699;-0.51118505;;;;;;;;;
2079.0;1995.2;;;;;;;0.97976625;-0.078127384;-0.3670156;;;;;;;;;;;;
2079.0;1995.2;;;;;;;;;;-39.036987;40.658283;-1.0185553;;;;;;;;;
2079.0;1995.2;;;;;;;0.97537154;-0.0806299;-0.37354657;;;;;;;;;;;;
2083.0;1998.3;;;;-0.7942964;0.12870027;-0.19704822;;;;;;;;;;;;;;;
2083.0;1998.3;;;;-0.78870404;0.12484361;-0.19396594;;;;;;;;;;;;;;;
2083.0;1998.3;;;;-0.78307354;0.12116243;-0.19126132;;;;;;;;;;;;;;;
2083.0;1998.3;;;;-0.7776948;0.11695482;-0.18838885;;;;;;;;;;;;;;;
2083.0;1998.3;;;;-0.7728158;0.1129265;-0.1857071;;;;;;;;;;;;;;;
2083.0;2001.6;262143;262143;11847;;;;;;;;;;;;;;;;;;
2083.0;2004.8;;;;;;;;;;-37.87347;40.18143;-1.373333;;;;;;;;;
2083.0;2004.8;;;;;;;0.9650563;-0.08191168;-0.37836847;;;;;;;;;;;;
2083.0;2004.8;;;;;;;;;;-36.778618;39.658802;-1.5526291;;;;;;;;;
2083.0;2004.8;;;;;;;0.9522996;-0.080996126;-0.38190863;;;;;;;;;;;;
2083.0;2007.7;;;;;;;;;;;;;2203;;;;;;;;
2083.0;2007.7;;;;;;;;;;;;;857;;;;;;;;
2083.0;2007.7;;;;;;;;;;;;;-206;;;;;;;;
2083.0;2007.7;;;;;;;;;;;;;-446;;;;;;;;
2083.0;2007.7;;;;;;;;;;;;;82;;;;;;;;
2083.0;2008.4;;;;-0.76773465;0.10914995;-0.18371202;;;;;;;;;;;;;;;
2083.0;2008.4;;;;-0.7628747;0.10466005;-0.18138506;;;;;;;;;;;;;;;
2083.0;2008.4;;;;-0.7584039;0.100612655;-0.1789322;;;;;;;;;;;;;;;
2083.0;2008.4;;;;-0.7539331;0.09628679;-0.17717744;;;;;;;;;;;;;;;
2083.0;2008.4;;;;-0.74849707;0.09201432;-0.17585374;;;;;;;;;;;;;;;
2083.0;2014.4;;;;;;;;;;-35.653248;39.059875;-1.7052218;;;;;;;;;
2083.0;2014.4;;;;;;;0.9368572;-0.0839259;-0.38245797;;;;;;;;;;;;
2083.0;2014.4;;;;;;;;;;-34.485916;38.31599;-1.8387402;;;;;;;;;
2083.0;2014.4;;;;;;;0.9238563;-0.084902495;-0.37849057;;;;;;;;;;;;
2085.0;2018.5;;;;-0.7427712;0.08794785;-0.17455293;;;;;;;;;;;;;;;
2085.0;2018.5;;;;-0.7365456;0.08428956;-0.17321397;;;;;;;;;;;;;;;
2085.0;2018.5;;;;-0.7303887;0.08059693;-0.17238237;;;;;;;;;;;;;;;
2085.0;2018.5;;;;-0.72513586;0.07712174;-0.17164232;;;;;;;;;;;;;;;
2085.0;2018.5;;;;-0.72040945;0.073566444;-0.16968538;;;;;;;;;;;;;;;
2085.0;2021.9;262143;262143;11847;;;;;;;;;;;;;;;;;;
2085.0;2024.0;;;;;;;;;;-33.41014;37.495804;-2.0523698;;;;;;;;;
2085.0;2024.0;;;;;;;0.90676594;-0.08844264;-0.3731193;;;;;;;;;;;;
2085.0;2024.0;;;;;;;;;;-32.34962;36.591694;-2.2583697;;;;;;;;;
2085.0;2024.0;;;;;;;0.88808864;-0.09063997;-0.36768702;;;;;;;;;;;;
2085.0;2025.0;;;;;;;;;;;;;;;;;-124.988556;118.392746;-94.6112;;1909.6
2085.0;2025.0;;;;;;;;;;;;;;1.1717887;0.1734672;0.10943937;;;;;1909.6
2085.0;2025.0;;;;;;;;;;;;;;;;;-124.89319;101.36341;-104.37712;;1909.6
2085.0;2025.0;;;;;;;;;;;;;;1.0734581;0.16681418;0.18256173;;;;;1909.6
2085.0;2025.0;;;;;;;;;;;;;;;;;-112.6133;66.72872;-115.215004;;1919.3
2085.0;2025.0;;;;;;;;;;;;;;1.0092471;0.15869625;0.18604083;;;;;1919.3
2085.0;2025.0;;;;;;;;;;;;;;;;;-86.35594;29.67925;-124.29807;;1919.3
2085.0;2025.0;;;;;;;;;;;;;;1.0642414;0.252266;0.080141604;;;;;1919.3
2085.0;2025.0;;;;;;;;;;;;;;;;;-79.973755;11.368145;-124.988556;;1928.7
2085.0;2025.0;;;;;;;;;;;;;;1.1306497;0.2883999;-0.14654988;;;;;1928.7
2085.0;2025.0;;;;;;;;;;;;;;;;;-84.44472;20.893734;-124.988556;;1928.7
2085.0;2025.0;;;;;;;;;;;;;;1.1572618;0.3305765;-0.28278452;;;;;1928.7
2086.0;2026.2;;;;;;;;;;;;;;;;;-94.85916;42.119358;-124.988556;;1938.4
2086.0;2026.2;;;;;;;;;;;;;;1.1114231;0.2809534;-0.32837915;;;;;1938.4
2086.0;2026.2;;;;;;;;;;;;;;;;;-101.81356;61.033203;-124.855034;;1938.4
2086.0;2026.2;;;;;;;;;;;;;;1.0442823;0.2026429;-0.27723014;;;;;1938.4
2086.0;2026.2;;;;;;;;;;;;;;;;;-104.79293;71.157715;-124.54222;;1948.0
2086.0;2026.2;;;;;;;;;;;;;;0.9899594;0.15771966;-0.18012024;;;;;1948.0
2086.0;2026.2;;;;;;;;;;;;;;;;;-101.11545;67.140724;-124.74441;;1948.0
2086.0;2026.2;;;;;;;;;;;;;;0.99807733;0.20453505;-0.14386426;;;;;1948.0
2086.0;2026.2;;;;;;;;;;;;;;;;;-92.67327;61.449017;-123.80596;;1957.7
2086.0;2026.2;;;;;;;;;;;;;;1.022187;0.17194128;-0.14844203;;;;;1957.7
2086.0;2026.2;;;;;;;;;;;;;;;;;-83.05231;66.35487;-118.049416;;1957.7
2086.0;2026.2;;;;;;;;;;;;;;1.0036317;0.07397687;-0.10229804;;;;;1957.7
2086.0;2028.4;;;;-0.7162743;0.06987382;-0.16819383;;;;;;;;;;;;;;;
2086.0;2028.4;;;;-0.71314627;0.066509254;-0.16605379;;;;;;;;;;;;;;;
2086.0;2028.4;;;;-0.71075827;0.06351472;-0.16427232;;;;;;;;;;;;;;;
2086.0;2028.4;;;;-0.7092324;0.06082917;-0.16313936;;;;;;;;;;;;;;;
2086.0;2028.4;;;;-0.7083283;0.057315834;-0.161438;;;;;;;;;;;;;;;
2086.0;2033.5;;;;;;;;;;-31.266212;35.641804;-2.3499253;;;;;;;;;
2086.0;2033.5;;;;;;;0.8670919;-0.093142495;-0.35749382;;;;;;;;;;;;
2086.0;2033.5;;;;;;;;;;-30.129398;34.588913;-2.5025177;;;;;;;;;
2086.0;2033.5;;;;;;;0.8438978;-0.09601123;-0.3472396;;;;;;;;;;;;
2138.0;2038.5;;;;-0.7082711;0.054237373;-0.16075517;;;;;;;;;;;;;;;
2138.0;2038.5;;;;-0.7087861;0.051364906;-0.15991975;;;;;;;;;;;;;;;
2138.0;2038.5;;;;-0.7094613;0.04828263;-0.15880968;;;;;;;;;;;;;;;
2138.0;2038.5;;;;-0.70948416;0.045875553;-0.15763475;;;;;;;;;;;;;;;
2138.0;2038.5;;;;-0.70952994;0.043731693;-0.15631105;;;;;;;;;;;;;;;
2138.0;2041.9;262143;262143;11854;;;;;;;;;;;;;;;;;;
2138.0;2043.0;;;;;;;;;;-29.095585;33.33003;-2.601703;;;;;;;;;
2138.0;2043.0;;;;;;;0.8200934;-0.09765923;-0.33796197;;;;;;;;;;;;
2138.0;2043.0;;;;;;;;;;-28.103731;32.074955;-2.666555;;;;;;;;;
2138.0;2043.0;;;;;;;0.7970214;-0.09613331;-0.32764673;;;;;;;;;;;;
2138.0;2047.9;;;;;;;;;;;;;844;;;;;;;;
2138.0;2047.9;;;;;;;;;;;;;1311;;;;;;;;
2138.0;2047.9;;;;;;;;;;;;;1298;;;;;;;;
2138.0;2047.9;;;;;;;;;;;;;896;;;;;;;;
2138.0;2047.9;;;;;;;;;;;;;392;;;;;;;;
2138.0;2048.5;;;;-0.70896536;0.041717533;-0.15511324;;;;;;;;;;;;;;;
2138.0;2048.5;;;;-0.7077866;0.039276127;-0.15332796;;;;;;;;;;;;;;;
2138.0;2048.5;;;;-0.7057114;0.037055973;-0.1520691;;;;;;;;;;;;;;;
2138.0;2048.5;;;;-0.7038384;0.034751896;-0.15157701;;;;;;;;;;;;;;;
2138.0;2048.5;;;;-0.70219046;0.032104496;-0.15091707;;;;;;;;;;;;;;;
2138.0;2052.6;;;;;;;;;;-27.100437;30.659657;-2.8191473;;;;;;;;;
2138.0;2052.6;;;;;;;0.776574;-0.09656057;-0.31629384;;;;;;;;;;;;
2138.0;2052.6;;;;;;;;;;-26.08951;28.916288;-3.0251474;;;;;;;;;
2138.0;2052.6;;;;;;;0.7574694;-0.09668264;-0.305063;;;;;;;;;;;;
2140.0;2058.5;;;;-0.7007447;0.03017426;-0.15020372;;;;;;;;;;;;;;;
2140.0;2058.5;;;;-0.6991425;0.028221134;-0.14992525;;;;;;;;;;;;;;;
2140.0;2058.5;;;;-0.69827276;0.025817875;-0.1503029;;;;;;;;;;;;;;;
2140.0;2058.5;;;;-0.69783026;0.023357393;-0.15095522;;;;;;;;;;;;;;;
2140.0;2058.5;;;;-0.69811636;0.020900728;-0.15228273;;;;;;;;;;;;;;;
2140.0;2062.1;;;;;;;;;;-25.109102;27.195808;-3.3036287;;;;;;;;;
2140.0;2062.1;;;;;;;0.74092835;-0.09271523;-0.2944426;;;;;;;;;;;;
2140.0;2062.1;;;;;;;;;;-24.227882;25.284584;-3.6011841;;;;;;;;;
2140.0;2062.1;;;;;;;0.7269509;-0.090578936;-0.28235725;;;;;;;;;;;;
2140.0;2062.0;262143;262143;11861;;;;;;;;;;;;;;;;;;
2140.0;2068.6;;;;-0.699112;0.018520357;-0.15332414;;;;;;;;;;;;;;;
2140.0;2068.6;;;;-0.7009812;0.016307833;-0.1540413;;;;;;;;;;;;;;;
2140.0;2068.6;;;;-0.7033768;0.014404299;-0.15557481;;;;;;;;;;;;;;;
2140.0;2068.6;;;;-0.7061272;0.011989595;-0.15747835;;;;;;;;;;;;;;;
2140.0;2068.6;;;;-0.70924765;0.010009767;-0.15811159;;;;;;;;;;;;;;;
2140.0;2071.7;;;;;;;;;;-23.358105;23.300882;-3.8644063;;;;;;;;;
2140.0;2071.7;;;;;;;0.7165746;-0.087466046;-0.2755211;;;;;;;;;;;;
2140.0;2071.7;;;;;;;;;;-22.52266;21.156958;-4.1657767;;;;;;;;;
2140.0;2071.7;;;;;;;0.70363474;-0.08459731;-0.26673177;;;;;;;;;;;;
2142.0;2078.7;;;;-0.71243674;0.008251191;-0.15920259;;;;;;;;;;;;;;;
2142.0;2078.7;;;;-0.71490866;0.006336213;-0.16077043;;;;;;;;;;;;;;;
2142.0;2078.7;;;;-0.71794134;0.0050773625;-0.16252138;;;;;;;;;;;;;;;
2142.0;2078.7;;;;-0.7206841;0.0040969853;-0.16511156;;;;;;;;;;;;;;;
2142.0;2078.7;;;;-0.7248345;0.0026283266;-0.16732027;;;;;;;;;;;;;;;
2142.0;2081.3;;;;;;;;;;-21.748253;19.054995;-4.4328136;;;;;;;;;
2142.0;2081.3;;;;;;;0.6903897;-0.082583085;-0.2611774;;;;;;;;;;;;
2142.0;2081.3;;;;;;;;;;-21.034883;16.907255;-4.554888;;;;;;;;;
2142.0;2081.3;;;;;;;0.6783654;-0.07702872;-0.2573321;;;;;;;;;;;;
2142.0;2082.3;262143;262143;11852;;;;;;;;;;;;;;;;;;
2142.0;2085.3;;;;;;;;;;;;;;;;;-78.360085;72.67983;-114.520706;;1967.4
2142.0;2085.3;;;;;;;;;;;;;;0.9723197;-0.0020142216;-0.027893918;;;;;1967.4
2142.0;2085.3;;;;;;;;;;;;;;;;;-75.21668;75.49898;-113.55937;;1967.4
2142.0;2085.3;;;;;;;;;;;;;;0.9423505;-0.052186653;0.016724143;;;;;1967.4
2142.0;2085.3;;;;;;;;;;;;;;;;;-65.48128;74.15235;-113.30378;;1977.0
2142.0;2085.3;;;;;;;;;;;;;;0.9060335;-0.05694754;0.069093905;;;;;1977.0
2142.0;2085.3;;;;;;;;;;;;;;;;;-58.378094;70.47487;-113.2313;;1977.0
2142.0;2085.3;;;;;;;;;;;;;;0.87405014;-0.05920591;0.08087405;;;;;1977.0
2142.0;2085.3;;;;;;;;;;;;;;;;;-52.560505;65.511795;-112.85363;;1986.6
2142.0;2085.3;;;;;;;;;;;;;;0.84707177;-0.04626606;0.058473464;;;;;1986.6
2142.0;2085.3;;;;;;;;;;;;;;;;;-48.01706;62.437054;-113.86074;;1986.6
2142.0;2085.3;;;;;;;;;;;;;;0.816187;0.057374798;0.037965026;;;;;1986.6
2143.0;2086.1;;;;;;;;;;;;;;;;;-47.71569;59.533985;-114.66567;;1996.2
2143.0;2086.1;;;;;;;;;;;;;;0.81014436;0.17011017;0.0049439985;;;;;1996.2
2143.0;2086.1;;;;;;;;;;;;;;;;;-49.134804;58.0958;-111.23615;;1996.2
2143.0;2086.1;;;;;;;;;;;;;;0.81130403;0.20624408;-0.04425184;;;;;1996.2
2143.0;2086.1;;;;;;;;;;;;;;;;;-50.347908;57.641834;-106.925415;;2005.9
2143.0;2086.1;;;;;;;;;;;;;;0.79116184;0.20929594;-0.05658132;;;;;2005.9
2143.0;2086.1;;;;;;;;;;;;;;;;;-53.51039;56.764427;-104.617455;;2005.9
2143.0;2086.1;;;;;;;;;;;;;;0.7919553;0.26337475;-0.049134802;;;;;2005.9
2143.0;2086.1;;;;;;;;;;;;;;;;;-59.438614;54.74639;-101.302376;;2015.6
2143.0;2086.1;;;;;;;;;;;;;;0.8110599;0.3467513;-0.035767693;;;;;2015.6
2143.0;2086.1;;;;;;;;;;;;;;;;;-64.41695;52.449875;-95.51149;;2015.6
2143.0;2086.1;;;;;;;;;;;;;;0.80935085;0.3635975;-0.033265177;;;;;2015.6
2143.0;2088.1;;;;;;;;;;;;;47;;;;;;;;
2143.0;2088.1;;;;;;;;;;;;;180;;;;;;;;
2143.0;2088.1;;;;;;;;;;;;;1138;;;;;;;;
2143.0;2088.1;;;;;;;;;;;;;2338;;;;;;;;
2143.0;2088.1;;;;;;;;;;;;;2701;;;;;;;;
2143.0;2088.6;;;;-0.7301026;0.0020294192;-0.17005922;;;;;;;;;;;;;;;
2143.0;2088.6;;;;-0.73582083;8.811952E-4;-0.1728058;;;;;;;;;;;;;;;
2143.0;2088.6;;;;-0.74221045;4.1961676E-4;-0.17502595;;;;;;;;;;;;;;;
2143.0;2088.6;;;;-0.74932486;-1.1825563E-4;-0.1775551;;;;;;;;;;;;;;;
2143.0;2088.6;;;;-0.75639737;-3.738404E-4;-0.17886354;;;;;;;;;;;;;;;
2143.0;2090.8;;;;;;;;;;-20.29481;14.984588;-4.631184;;;;;;;;;
2143.0;2090.8;;;;;;;0.667806;-0.07348857;-0.25568408;;;;;;;;;;;;
2143.0;2090.8;;;;;;;;;;-19.63866;13.332774;-4.7608876;;;;;;;;;
2143.0;2090.8;;;;;;;0.6570635;-0.07293924;-0.2535478;;;;;;;;;;;;
2145.0;2098.7;;;;-0.7630578;-7.553102E-4;-0.18050386;;;;;;;;;;;;;;;
2145.0;2098.7;;;;-0.76908886;-4.5394903E-4;-0.18242265;;;;;;;;;;;;;;;
2145.0;2098.7;;;;-0.77429974;2.4795535E-4;-0.18428041;;;;;;;;;;;;;;;
2145.0;2098.7;;;;-0.77944577;4.997254E-4;-0.18593217;;;;;;;;;;;;;;;
2145.0;2098.7;;;;-0.78454983;5.9509283E-4;-0.18781283;;;;;;;;;;;;;;;
2145.0;2100.3;;;;;;;;;;;;;;;;;-69.4792;52.491837;-90.7506;;2025.2
2145.0;2100.3;;;;;;;;;;;;;;0.7802362;0.3988769;-0.006775109;;;;;2025.2
2145.0;2100.3;;;;;;;;;;;;;;;;;-77.26905;52.39265;-88.110756;;2025.2
2145.0;2100.3;;;;;;;;;;;;;;0.7563097;0.40711692;0.008423109;;;;;2025.2
2145.0;2100.3;;;;;;;;;;;;;;;;;-84.80712;54.303875;-82.09479;;2034.9
2145.0;2100.3;;;;;;;;;;;;;;0.720481;0.3780633;0.02661214;;;;;2034.9
2145.0;2100.3;;;;;;;;;;;;;;;;;-90.65904;56.5775;-78.58516;;2034.9
2145.0;2100.3;;;;;;;;;;;;;;0.69502854;0.3820307;0.051637318;;;;;2034.9
2145.0;2100.3;;;;;;;;;;;;;;;;;-96.70934;57.828762;-74.96872;;2044.4
2145.0;2100.3;;;;;;;;;;;;;;0.70711386;0.39313945;0.070558794;;;;;2044.4
2145.0;2100.3;;;;;;;;;;;;;;;;;-103.446304;56.60802;-68.8879;;2044.4
2145.0;2100.3;;;;;;;;;;;;;;0.7458724;0.3665273;0.05658132;;;;;2044.4
2145.0;2100.1;;;;;;;;;;-19.207588;11.76107;-4.894406;;;;;;;;;
2145.0;2100.1;;;;;;;0.65163124;-0.06891079;-0.25330362;;;;;;;;;;;;
2145.0;2100.1;;;;;;;;;;-18.704031;10.212256;-5.01648;;;;;;;;;
2145.0;2100.1;;;;;;;0.6456496;-0.06445509;-0.2547075;;;;;;;;;;;;
2145.0;2102.1;262143;262143;11852;;;;;;;;;;;;;;;;;;
2197.0;2108.5;;;;-0.78951657;0.0010986329;-0.19042972;;;;;;;;;;;;;;;
2197.0;2108.5;;;;-0.79558957;0.0013198854;-0.19306949;;;;;;;;;;;;;;;
2197.0;2108.5;;;;-0.8020059;0.0017280581;-0.19689563;;;;;;;;;;;;;;;
2197.0;2108.5;;;;-0.81009305;0.0027046206;-0.20058444;;;;;;;;;;;;;;;
2197.0;2108.5;;;;-0.8184701;0.0040969853;-0.20468524;;;;;;;;;;;;;;;
2197.0;2109.6;;;;;;;;;;-18.364513;8.7893305;-5.1080356;;;;;;;;;
2197.0;2109.6;;;;;;;0.6392407;-0.06103702;-0.25568408;;;;;;;;;;;;
2197.0;2109.6;;;;;;;;;;-18.11655;7.526627;-5.123295;;;;;;;;;
2197.0;2109.6;;;;;;;0.6328318;-0.057069615;-0.25550097;;;;;;;;;;;;
2197.0;2118.1;;;;-0.82772076;0.0054435735;-0.20795062;;;;;;;;;;;;;;;
2197.0;2118.1;;;;-0.83665097;0.007003785;-0.21014026;;;;;;;;;;;;;;;
2197.0;2118.1;;;;-0.8454362;0.009120942;-0.21323779;;;;;;;;;;;;;;;
2197.0;2118.1;;;;-0.8530847;0.012096407;-0.21590808;;;;;;;;;;;;;;;
2197.0;2118.1;;;;-0.8604127;0.014488222;-0.21881488;;;;;;;;;;;;;;;
2197.0;2118.8;;;;;;;;;;-17.956327;6.3135166;-5.0927763;;;;;;;;;
2197.0;2118.8;;;;;;;0.6263619;-0.0540788;-0.25519577;;;;;;;;;;;;
2197.0;2118.8;;;;;;;;;;-17.92581;5.11948;-5.0889616;;;;;;;;;
2197.0;2118.8;;;;;;;0.6189764;-0.0507828;-0.25647756;;;;;;;;;;;;
2197.0;2121.8;262143;262143;11845;;;;;;;;;;;;;;;;;;
2197.0;2127.8;;;;;;;;;;;;;2047;;;;;;;;
2197.0;2127.8;;;;;;;;;;;;;1184;;;;;;;;
2197.0;2127.8;;;;;;;;;;;;;1086;;;;;;;;
2197.0;2127.8;;;;;;;;;;;;;1807;;;;;;;;
2197.0;2127.8;;;;;;;;;;;;;2724;;;;;;;;
2199.0;2128.2;;;;-0.8663827;0.017509462;-0.22188571;;;;;;;;;;;;;;;
2199.0;2128.2;;;;-0.872635;0.020709993;-0.22649005;;;;;;;;;;;;;;;
2199.0;2128.2;;;;-0.8790666;0.023250582;-0.23067096;;;;;;;;;;;;;;;
2199.0;2128.2;;;;-0.88718426;0.025985721;-0.23412326;;;;;;;;;;;;;;;
2199.0;2128.2;;;;-0.8949739;0.02833176;-0.23770145;;;;;;;;;;;;;;;
2199.0;2128.5;;;;;;;;;;-17.887661;3.9025545;-5.0469985;;;;;;;;;
2199.0;2128.5;;;;;;;0.61275065;-0.04693747;-0.25702688;;;;;;;;;;;;
2199.0;2128.5;;;;;;;;;;-18.01355;2.7314067;-5.0469985;;;;;;;;;
2199.0;2128.5;;;;;;;0.6103702;-0.045960877;-0.25666067;;;;;;;;;;;;
2199.0;2138.1;;;;;;;;;;-18.017365;1.4687033;-5.1461835;;;;;;;;;
2199.0;2138.1;;;;;;;0.61018705;-0.042847987;-0.25281534;;;;;;;;;;;;
2199.0;2138.1;;;;;;;;;;-18.127995;0.59511095;-5.226295;;;;;;;;;
2199.0;2138.1;;;;;;;0.61201817;-0.04260384;-0.26026186;;;;;;;;;;;;
2199.0;2138.3;;;;-0.9029542;0.031234745;-0.24124911;;;;;;;;;;;;;;;
2199.0;2138.3;;;;-0.9106332;0.033905033;-0.24496844;;;;;;;;;;;;;;;
2199.0;2138.3;;;;-0.9170953;0.036552433;-0.24854663;;;;;;;;;;;;;;;
2199.0;2138.3;;;;-0.9226266;0.03944016;-0.25312808;;;;;;;;;;;;;;;
2199.0;2138.3;;;;-0.9273683;0.04217911;-0.25789264;;;;;;;;;;;;;;;
2199.0;2142.1;262143;262143;11857;;;;;;;;;;;;;;;;;;
2200.0;2145.4;;;;;;;;;;;;;;;;;-110.92333;57.737206;-64.74502;;2054.0
2200.0;2145.4;;;;;;;;;;;;;;0.78347117;0.3364971;0.05121006;;;;;2054.0
2200.0;2145.4;;;;;;;;;;;;;;;;;-118.785675;59.20591;-61.349834;;2054.0
2200.0;2145.4;;;;;;;;;;;;;;0.77803886;0.30719933;0.051087987;;;;;2054.0
2200.0;2145.4;;;;;;;;;;;;;;;;;-124.275185;59.08002;-58.465836;;2063.6
2200.0;2145.4;;;;;;;;;;;;;;0.74898523;0.26996672;0.035157323;;;;;2063.6
2200.0;2145.4;;;;;;;;;;;;;;;;;-124.988556;56.543167;-54.448837;;2063.6
2200.0;2145.4;;;;;;;;;;;;;;0.7049776;0.21790215;0.02478103;;;;;2063.6
2200.0;2145.4;;;;;;;;;;;;;;;;;-124.988556;53.827023;-50.183872;;2073.3
2200.0;2145.4;;;;;;;;;;;;;;0.6601764;0.19190039;0.020935697;;;;;2073.3
2200.0;2145.4;;;;;;;;;;;;;;;;;-124.988556;53.407394;-46.025726;;2073.3
2200.0;2145.4;;;;;;;;;;;;;;0.5959044;0.16046633;0.01965392;;;;;2073.3
2200.0;2147.6;;;;;;;;;;-18.601032;-0.03051851;-5.2911468;;;;;;;;;
2200.0;2147.6;;;;;;;0.6102481;-0.040040284;-0.2644734;;;;;;;;;;;;
2200.0;2147.6;;;;;;;;;;-18.997772;-1.3161107;-5.3102207;;;;;;;;;
2200.0;2147.6;;;;;;;0.5955382;-0.039857175;-0.26575518;;;;;;;;;;;;
2200.0;2148.3;;;;-0.9329759;0.044521336;-0.26254657;;;;;;;;;;;;;;;
2200.0;2148.3;;;;-0.93860257;0.04704667;-0.26731113;;;;;;;;;;;;;;;
2200.0;2148.3;;;;-0.9455377;0.049827583;-0.27200702;;;;;;;;;;;;;;;
2200.0;2148.3;;;;-0.953251;0.052394874;-0.27640155;;;;;;;;;;;;;;;
2200.0;2148.3;;;;-0.96044934;0.05572892;-0.28024676;;;;;;;;;;;;;;;
2200.0;2157.2;;;;;;;;;;-19.196144;-2.9145176;-4.9249244;;;;;;;;;
2200.0;2157.2;;;;;;;0.58534503;-0.03936888;-0.26972258;;;;;;;;;;;;
2200.0;2157.2;;;;;;;;;;-19.554733;-4.543443;-4.6121097;;;;;;;;;
2200.0;2157.2;;;;;;;0.588702;-0.0369274;-0.27118748;;;;;;;;;;;;
2202.0;2158.4;;;;-0.96870434;0.05895997;-0.28498462;;;;;;;;;;;;;;;
2202.0;2158.4;;;;-0.97610486;0.06256486;-0.2892342;;;;;;;;;;;;;;;
2202.0;2158.4;;;;-0.98363507;0.066249855;-0.2936211;;;;;;;;;;;;;;;
2202.0;2158.4;;;;-0.99006665;0.06977845;-0.29848865;;;;;;;;;;;;;;;
2202.0;2158.4;;;;-0.9961549;0.0732956;-0.3023148;;;;;;;;;;;;;;;
2202.0;2160.0;;;;;;;;;;;;;;;;;-124.988556;54.052097;-42.21473;;2083.0
2202.0;2160.0;;;;;;;;;;;;;;0.535905;0.12512589;0.044984285;;;;;2083.0
2202.0;2160.0;;;;;;;;;;;;;;;;;-124.988556;52.46895;-38.724174;;2083.0
2202.0;2160.0;;;;;;;;;;;;;;0.48213142;0.09076205;0.068544574;;;;;2083.0
2202.0;2160.0;;;;;;;;;;;;;;;;;-123.51604;48.84869;-36.06906;;2092.6
2202.0;2160.0;;;;;;;;;;;;;;0.44251838;0.06286813;0.08233894;;;;;2092.6
2202.0;2160.0;;;;;;;;;;;;;;;;;-114.74197;44.560837;-33.818325;;2092.6
2202.0;2160.0;;;;;;;;;;;;;;0.39661855;0.07080294;0.08966338;;;;;2092.6
2202.0;2160.0;;;;;;;;;;;;;;;;;-100.60045;37.79336;-31.315807;;2102.2
2202.0;2160.0;;;;;;;;;;;;;;0.35932493;0.08008057;0.09027375;;;;;2102.2
2202.0;2160.0;;;;;;;;;;;;;;;;;-86.00116;29.82803;-29.118473;;2102.2
2202.0;2160.0;;;;;;;;;;;;;;0.3287454;0.11346782;0.050050355;;;;;2102.2
2202.0;2161.9;262143;262143;11861;;;;;;;;;;;;;;;;;;
2202.0;2166.6;;;;;;;;;;-19.94766;-6.1799984;-4.6617026;;;;;;;;;
2202.0;2166.6;;;;;;;0.60438854;-0.035096288;-0.27185887;;;;;;;;;;;;
2202.0;2166.6;;;;;;;;;;-20.458845;-7.6639605;-4.860073;;;;;;;;;
2202.0;2166.6;;;;;;;0.6218451;-0.03546251;-0.27539903;;;;;;;;;;;;
2259.0;2167.8;;;;;;;;;;;;;3650;;;;;;;;
2259.0;2167.8;;;;;;;;;;;;;4294;;;;;;;;
2259.0;2167.8;;;;;;;;;;;;;4170;;;;;;;;
2259.0;2167.8;;;;;;;;;;;;;4272;;;;;;;;
2259.0;2167.8;;;;;;;;;;;;;6207;;;;;;;;
2259.0;2168.2;;;;-1.0021325;0.0760994;-0.30633548;;;;;;;;;;;;;;;
2259.0;2168.2;;;;-1.0081178;0.07889939;-0.31058505;;;;;;;;;;;;;;;
2259.0;2168.2;;;;-1.0148813;0.0815239;-0.31414035;;;;;;;;;;;;;;;
2259.0;2168.2;;;;-1.0219499;0.0839119;-0.31828693;;;;;;;;;;;;;;;
2259.0;2168.2;;;;-1.0293313;0.085643776;-0.32244495;;;;;;;;;;;;;;;
2259.0;2175.7;;;;;;;;;;-20.863216;-8.80459;-4.932554;;;;;;;;;
2259.0;2175.7;;;;;;;0.64333016;-0.035340436;-0.2789392;;;;;;;;;;;;
2259.0;2175.7;;;;;;;;;;-21.328623;-9.743034;-4.6845913;;;;;;;;;
2259.0;2175.7;;;;;;;0.6593219;-0.03668325;-0.28180793;;;;;;;;;;;;
2259.0;2177.9;;;;-1.0373803;0.08748246;-0.32587817;;;;;;;;;;;;;;;
2259.0;2177.9;;;;-1.0439416;0.08904267;-0.32852176;;;;;;;;;;;;;;;
2259.0;2177.9;;;;-1.0498849;0.08978272;-0.33137897;;;;;;;;;;;;;;;
2259.0;2177.9;;;;-1.0546266;0.091011055;-0.33311084;;;;;;;;;;;;;;;
2259.0;2177.9;;;;-1.0586587;0.09138871;-0.3347893;;;;;;;;;;;;;;;
2259.0;2181.7;262143;262143;11869;;;;;;;;;;;;;;;;;;
2259.0;2185.3;;;;;;;;;;-21.782587;-10.605183;-4.280221;;;;;;;;;
2259.0;2185.3;;;;;;;0.6745811;-0.038270213;-0.28528702;;;;;;;;;;;;
2259.0;2185.3;;;;;;;;;;-22.232733;-11.249886;-3.910184;;;;;;;;;
2259.0;2185.3;;;;;;;0.6866665;-0.039674062;-0.28998688;;;;;;;;;;;;
2263.0;2188.0;;;;-1.0614167;0.091709144;-0.3359833;;;;;;;;;;;;;;;
2263.0;2188.0;;;;-1.0635072;0.09256745;-0.33721927;;;;;;;;;;;;;;;
2263.0;2188.0;;;;-1.0662347;0.09342576;-0.3377228;;;;;;;;;;;;;;;
2263.0;2188.0;;;;-1.0692598;0.09471513;-0.33864215;;;;;;;;;;;;;;;
2263.0;2188.0;;;;-1.0725175;0.09589006;-0.3392258;;;;;;;;;;;;;;;
2263.0;2194.9;;;;;;;;;;-22.709585;-11.535996;-3.460036;;;;;;;;;
2263.0;2194.9;;;;;;;0.69771415;-0.04199347;-0.2973113;;;;;;;;;;;;
2263.0;2194.9;;;;;;;;;;-23.148289;-11.646626;-2.8420362;;;;;;;;;
2263.0;2194.9;;;;;;;0.71108127;-0.044007692;-0.30286568;;;;;;;;;;;;
2263.0;2198.1;;;;-1.0764619;0.0968094;-0.33963397;;;;;;;;;;;;;;;
2263.0;2198.1;;;;-1.0814553;0.09780885;-0.34022143;;;;;;;;;;;;;;;
2263.0;2198.1;;;;-1.0869371;0.09882738;-0.34148028;;;;;;;;;;;;;;;
2263.0;2198.1;;;;-1.0939561;0.09983446;-0.34289554;;;;;;;;;;;;;;;
2263.0;2198.1;;;;-1.1019098;0.10025026;-0.34407046;;;;;;;;;;;;;;;
2263.0;2202.0;262143;262143;11879;;;;;;;;;;;;;;;;;;
2263.0;2204.5;;;;;;;;;;-23.529772;-11.902219;-2.0561848;;;;;;;;;
2263.0;2204.5;;;;;;;0.7240822;-0.046205025;-0.31159398;;;;;;;;;;;;
2263.0;2204.5;;;;;;;;;;-23.728142;-12.115849;-1.1711478;;;;;;;;;
2263.0;2204.5;;;;;;;0.7439192;-0.049684133;-0.3208106;;;;;;;;;;;;
2264.0;2205.0;;;;;;;;;;;;;;;;;-72.38991;24.628439;-24.723808;;2111.9
2264.0;2205.0;;;;;;;;;;;;;;0.31330302;0.15692617;0.04016236;;;;;2111.9
2264.0;2205.0;;;;;;;;;;;;;;;;;-61.983093;20.668661;-18.807032;;2111.9
2264.0;2205.0;;;;;;;;;;;;;;0.31043428;0.21387371;0.07129124;;;;;2111.9
2264.0;2205.0;;;;;;;;;;;;;;;;;-56.94754;14.820552;-12.844478;;2121.5
2264.0;2205.0;;;;;;;;;;;;;;0.33973205;0.2830897;0.122013;;;;;2121.5
2264.0;2205.0;;;;;;;;;;;;;;;;;-56.478317;8.987701;-6.4813685;;2121.5
2264.0;2205.0;;;;;;;;;;;;;;0.3609119;0.3187353;0.18518631;;;;;2121.5
2264.0;2205.0;;;;;;;;;;;;;;;;;-57.752464;1.9074068;-1.495407;;2131.2
2264.0;2205.0;;;;;;;;;;;;;;0.3471175;0.37165442;0.23938718;;;;;2131.2
2264.0;2205.0;;;;;;;;;;;;;;;;;-59.63317;-8.81222;2.9869993;;2131.2
2264.0;2205.0;;;;;;;;;;;;;;0.33277383;0.4358043;0.23206274;;;;;2131.2
2264.0;2207.8;;;;;;;;;;;;;9319;;;;;;;;
2264.0;2207.8;;;;;;;;;;;;;10950;;;;;;;;
2264.0;2207.8;;;;;;;;;;;;;9441;;;;;;;;
2264.0;2207.8;;;;;;;;;;;;;5953;;;;;;;;
2264.0;2207.8;;;;;;;;;;;;;2983;;;;;;;;
2264.0;2208.1;;;;-1.1108018;0.10045244;-0.3450394;;;;;;;;;;;;;;;
2264.0;2208.1;;;;-1.1207925;0.10134889;-0.34596637;;;;;;;;;;;;;;;
2264.0;2208.1;;;;-1.1308748;0.102073684;-0.34772494;;;;;;;;;;;;;;;
2264.0;2208.1;;;;-1.1418496;0.10280992;-0.3488007;;;;;;;;;;;;;;;
2264.0;2208.1;;;;-1.1532708;0.10383226;-0.34972385;;;;;;;;;;;;;;;
2264.0;2214.0;;;;;;;;;;-23.880733;-12.440107;-0.37766656;;;;;;;;;
2264.0;2214.0;;;;;;;0.7698599;-0.05633717;-0.33228552;;;;;;;;;;;;
2264.0;2214.0;;;;;;;;;;-23.937956;-12.855922;0.42725915;;;;;;;;;
2264.0;2214.0;;;;;;;0.7945799;-0.06408887;-0.3439436;;;;;;;;;;;;
2266.0;2218.2;;;;-1.164486;0.10557558;-0.3517647;;;;;;;;;;;;;;;
2266.0;2218.2;;;;-1.1749841;0.107677475;-0.3528252;;;;;;;;;;;;;;;
2266.0;2218.2;;;;-1.1852113;0.10943605;-0.35403445;;;;;;;;;;;;;;;
2266.0;2218.2;;;;-1.1945115;0.11110689;-0.35572818;;;;;;;;;;;;;;;
2266.0;2218.2;;;;-1.2035257;0.113517776;-0.35768893;;;;;;;;;;;;;;;
2266.0;2220.0;;;;;;;;;;;;;;;;;-62.612534;-19.718771;8.70159;;2140.8
2266.0;2220.0;;;;;;;;;;;;;;0.33838925;0.491348;0.1937315;;;;;2140.8
2266.0;2220.0;;;;;;;;;;;;;;;;;-68.98328;-23.724327;14.187292;;2140.8
2266.0;2220.0;;;;;;;;;;;;;;0.32734153;0.54353464;0.21405682;;;;;2140.8
2266.0;2220.0;;;;;;;;;;;;;;;;;-74.4232;-28.45851;18.62392;;2150.5
2266.0;2220.0;;;;;;;;;;;;;;0.29486984;0.60444957;0.1899472;;;;;2150.5
2266.0;2220.0;;;;;;;;;;;;;;;;;-76.94479;-33.51314;23.56029;;2150.5
2266.0;2220.0;;;;;;;;;;;;;;0.2993866;0.6819666;0.12384411;;;;;2150.5
2266.0;2220.0;;;;;;;;;;;;;;;;;-77.25379;-36.275063;27.829065;;2160.2
2266.0;2220.0;;;;;;;;;;;;;;0.2870571;0.7414167;0.0684225;;;;;2160.2
2266.0;2220.0;;;;;;;;;;;;;;;;;-71.03183;-48.71517;31.292915;;2160.2
2266.0;2220.0;;;;;;;;;;;;;;0.22052675;0.7546617;-0.050721765;;;;;2160.2
2266.0;2221.9;262143;262143;11880;;;;;;;;;;;;;;;;;;
2266.0;2223.4;;;;;;;;;;-23.873104;-13.229774;1.2741477;;;;;;;;;
2266.0;2223.4;;;;;;;0.82052064;-0.07318339;-0.3576159;;;;;;;;;;;;
2266.0;2223.4;;;;;;;;;;-23.731956;-13.485367;2.2812586;;;;;;;;;
2266.0;2223.4;;;;;;;0.84200567;-0.08478042;-0.37110507;;;;;;;;;;;;
2318.0;2228.0;;;;-1.2117616;0.11542894;-0.36010364;;;;;;;;;;;;;;;
2318.0;2228.0;;;;-1.2182199;0.117179886;-0.36269763;;;;;;;;;;;;;;;
2318.0;2228.0;;;;-1.2242662;0.11867906;-0.3656197;;;;;;;;;;;;;;;
2318.0;2228.0;;;;-1.2296525;0.12029268;-0.3681412;;;;;;;;;;;;;;;
2318.0;2228.0;;;;-1.2347871;0.12171556;-0.37149432;;;;;;;;;;;;;;;
2318.0;2232.9;;;;;;;;;;-23.720512;-13.6379595;3.4905546;;;;;;;;;
2318.0;2232.9;;;;;;;0.8609882;-0.091372415;-0.38489944;;;;;;;;;;;;
2318.0;2232.9;;;;;;;;;;-23.796808;-13.908811;4.936369;;;;;;;;;
2318.0;2232.9;;;;;;;0.8836329;-0.10095523;-0.4009522;;;;;;;;;;;;
2318.0;2237.9;;;;-1.239937;0.12322618;-0.37500006;;;;;;;;;;;;;;;
2318.0;2237.9;;;;-1.2449533;0.12516023;-0.37866598;;;;;;;;;;;;;;;
2318.0;2237.9;;;;-1.2497674;0.12648012;-0.38260275;;;;;;;;;;;;;;;
2318.0;2237.9;;;;-1.2550546;0.12782289;-0.38597494;;;;;;;;;;;;;;;
2318.0;2237.9;;;;-1.2606355;0.12918474;-0.38966376;;;;;;;;;;;;;;;
2318.0;2241.8;262143;262143;11878;;;;;;;;;;;;;;;;;;
2318.0;2242.4;;;;;;;;;;-23.903624;-14.069033;6.321146;;;;;;;;;
2318.0;2242.4;;;;;;;0.906827;-0.11157567;-0.41511276;;;;;;;;;;;;
2318.0;2242.4;;;;;;;;;;-23.918882;-13.992737;7.5380716;;;;;;;;;
2318.0;2242.4;;;;;;;0.9325846;-0.12048708;-0.4300058;;;;;;;;;;;;
2318.0;2247.8;;;;;;;;;;;;;1514;;;;;;;;
2318.0;2247.8;;;;;;;;;;;;;815;;;;;;;;
2318.0;2247.8;;;;;;;;;;;;;477;;;;;;;;
2318.0;2247.8;;;;;;;;;;;;;614;;;;;;;;
2318.0;2247.8;;;;;;;;;;;;;821;;;;;;;;
2319.0;2248.0;;;;-1.2665406;0.12981798;-0.3937989;;;;;;;;;;;;;;;
2319.0;2248.0;;;;-1.2739297;0.13060762;-0.39823157;;;;;;;;;;;;;;;
2319.0;2248.0;;;;-1.2822915;0.13170244;-0.4021569;;;;;;;;;;;;;;;
2319.0;2248.0;;;;-1.2914277;0.13230135;-0.40655905;;;;;;;;;;;;;;;
2319.0;2248.0;;;;-1.3020288;0.1327324;-0.4112702;;;;;;;;;;;;;;;
2319.0;2252.0;;;;;;;;;;-24.040956;-13.809626;8.770256;;;;;;;;;
2319.0;2252.0;;;;;;;0.95290995;-0.13476974;-0.4445326;;;;;;;;;;;;
2319.0;2252.0;;;;;;;;;;-24.239326;-13.595997;10.242775;;;;;;;;;
2319.0;2252.0;;;;;;;0.97018343;-0.1480758;-0.45796075;;;;;;;;;;;;
2319.0;2258.1;;;;-1.312359;0.13312532;-0.41590506;;;;;;;;;;;;;;;
2319.0;2258.1;;;;-1.3228685;0.13415147;-0.42096335;;;;;;;;;;;;;;;
2319.0;2258.1;;;;-1.3331491;0.13582994;-0.42493063;;;;;;;;;;;;;;;
2319.0;2258.1;;;;-1.3426286;0.1367798;-0.42852026;;;;;;;;;;;;;;;
2319.0;2258.1;;;;-1.3511163;0.13873293;-0.4323426;;;;;;;;;;;;;;;
2319.0;2261.6;;;;;;;;;;-24.327068;-13.168737;11.825923;;;;;;;;;
2319.0;2261.6;;;;;;;0.9861751;-0.1594287;-0.4680929;;;;;;;;;;;;
2319.0;2261.6;;;;;;;;;;-24.418623;-12.760551;13.397626;;;;;;;;;
2319.0;2261.6;;;;;;;1.0050355;-0.17139195;-0.47383037;;;;;;;;;;;;
2319.0;2262.1;262143;262143;11877;;;;;;;;;;;;;;;;;;
2321.0;2265.1;;;;;;;;;;;;;;;;;-59.297466;-70.6656;31.922363;;2169.6
2321.0;2265.1;;;;;;;;;;;;;;0.22095402;0.78872037;-0.21985534;;;;;2169.6
2321.0;2265.1;;;;;;;;;;;;;;;;;-50.75991;-79.58464;33.635216;;2169.6
2321.0;2265.1;;;;;;;;;;;;;;0.23523667;0.7553331;-0.24359874;;;;;2169.6
2321.0;2265.1;;;;;;;;;;;;;;;;;-50.04654;-82.68609;34.718616;;2179.2
2321.0;2265.1;;;;;;;;;;;;;;0.29999694;0.6765343;-0.12726219;;;;;2179.2
2321.0;2265.1;;;;;;;;;;;;;;;;;-53.10602;-77.61239;34.241768;;2179.2
2321.0;2265.1;;;;;;;;;;;;;;0.41376996;0.5575121;0.14606158;;;;;2179.2
2321.0;2265.1;;;;;;;;;;;;;;;;;-49.829094;-63.489944;34.03958;;2188.9
2321.0;2265.1;;;;;;;;;;;;;;0.54249704;0.4502701;0.49897763;;;;;2188.9
2321.0;2265.1;;;;;;;;;;;;;;;;;-39.582504;-45.827354;34.18073;;2188.9
2321.0;2265.1;;;;;;;;;;;;;;0.5980407;0.27521592;0.8537858;;;;;2188.9
