patientId;holterMac;flexMac;;;;;;;;;;;;;;;;;;;;
;CA:F3:0B:1E:33:78;D3:4A:5C:52:80:78;;;;;;;;;;;;;;;;;;;;
receivedTimeStamp;timeStamp;red;ir;green;adxl_accX;adxl_accY;adxl_accZ;lsm_accelX;lsm_accelY;lsm_accelZ;lsm_gyroX;lsm_gyroY;lsm_gyroZ;ecg;flex_lsm_accelX;flex_lsm_accelY;flex_lsm_accelZ;flex_lsm_gyroX;flex_lsm_gyroY;flex_lsm_gyroZ;flex_cmd;flexTimeStamp
283.0;221.9;;;;;;;;;;;;;;;;;;;;17;0.1
283.0;221.9;;;;;;;;;;;;;;;;;13.649404;0.18692587;0.96896267;;127.6
283.0;221.9;;;;;;;;;;;;;;-0.5736259;-0.7853633;-0.17120884;;;;;127.6
283.0;221.9;;;;;;;;;;;;;;;;;-4.875332;-17.227697;-7.3587756;;127.6
283.0;221.9;;;;;;;;;;;;;;-0.595233;-0.8098392;-0.17749566;;;;;127.6
283.0;221.9;;;;;;;;;;;;;;;;;-63.768425;-84.73464;-60.995056;;137.3
283.0;221.9;;;;;;;;;;;;;;-0.5962096;-0.81130403;-0.1765801;;;;;137.3
283.0;221.9;;;;;;;;;;;;;;;;;-122.28767;-124.988556;-119.79659;;137.3
283.0;221.9;;;;;;;;;;;;;;-0.59633166;-0.8094729;-0.17731254;;;;;137.3
345.0;223.1;;;;;;;;;;;;;;;;;-58.805355;-124.774925;-78.55846;;146.9
345.0;223.1;;;;;;;;;;;;;;-0.59871215;-0.8061159;-0.17810602;;;;;146.9
345.0;223.1;;;;;;;;;;;;;;;;;7.168035;-124.98474;-32.57851;;146.9
345.0;223.1;;;;;;;;;;;;;;-0.6023743;-0.80538344;-0.17957091;;;;;146.9
345.0;223.1;;;;;;;;;;;;;;;;;3.0442214;-98.651085;-25.50203;;156.6
345.0;223.1;;;;;;;;;;;;;;-0.6054262;-0.8059328;-0.17987609;;;;;156.6
345.0;223.1;;;;;;;;;;;;;;;;;-3.8033693;-11.093478;-1.3275552;;156.6
345.0;223.1;;;;;;;;;;;;;;-0.60786766;-0.8033082;-0.17950988;;;;;156.6
345.0;223.1;;;;;;;;;;;;;;;;;-4.1581473;-3.5134435;0.5417035;;166.2
345.0;223.1;;;;;;;;;;;;;;-0.61091954;-0.8023316;-0.17957091;;;;;166.2
345.0;223.1;;;;;;;;;;;;;;;;;-3.8605914;-3.151036;0.3357036;;166.2
345.0;223.1;;;;;;;;;;;;;;-0.6138493;-0.80019534;-0.1772515;;;;;166.2
345.0;274.6;;;;;;;;;;;;;;;;;-3.6164434;-2.9412215;0.5188147;;175.9
345.0;274.6;;;;;;;;;;;;;;-0.6168401;-0.7991577;-0.17523728;;;;;175.9
345.0;274.6;;;;;;;;;;;;;;;;;-3.295999;-2.8725548;0.22507401;;175.9
345.0;274.6;;;;;;;;;;;;;;-0.6187933;-0.7977538;-0.17169714;;;;;175.9
345.0;274.6;;;;;;;;;;;;;;;;;-3.032777;-2.910703;0.015259255;;185.5
345.0;274.6;;;;;;;;;;;;;;-0.6207465;-0.79763174;-0.16895047;;;;;185.5
345.0;274.6;;;;;;;;;;;;;;;;;-2.7428513;-2.9869993;0.026703697;;185.5
345.0;274.6;;;;;;;;;;;;;;-0.6207465;-0.7968383;-0.1662038;;;;;185.5
345.0;274.6;;;;;;;;;;;;;;;;;-2.5902586;-3.1777399;-0.3089999;;195.0
345.0;274.6;;;;;;;;;;;;;;-0.62190616;-0.7988525;-0.16241951;;;;;195.0
345.0;274.6;;;;;;;;;;;;;;;;;-2.376629;-3.2807398;-0.46540728;;195.0
345.0;274.6;;;;;;;;;;;;;;-0.6241646;-0.80001223;-0.16132084;;;;;195.0
467.0;275.5;;;;;;;;;;;;;;;;;-2.1858883;-3.3265176;-0.48066652;;204.6
467.0;275.5;;;;;;;;;;;;;;-0.6227607;-0.8031861;-0.16089359;;;;;204.6
467.0;275.5;;;;;;;;;;;;;;;;;-1.9531846;-3.4447768;-0.77440715;;204.6
467.0;275.5;;;;;;;;;;;;;;-0.623249;-0.8037965;-0.15900144;;;;;204.6
467.0;275.5;;;;;;;;;;;;;;;;;-1.5831476;-3.563036;-0.9155553;;214.3
467.0;275.5;;;;;;;;;;;;;;-0.6218451;-0.80599385;-0.15594958;;;;;214.3
467.0;275.5;;;;;;;;;;;;;;;;;-1.1940367;-3.6660361;-0.93081456;;214.3
467.0;275.5;;;;;;;;;;;;;;-0.6187933;-0.80520034;-0.15411848;;;;;214.3
467.0;275.5;;;;;;;;;;;;;;;;;-0.8125553;-3.913999;-1.2321848;;223.9
467.0;275.5;;;;;;;;;;;;;;-0.616596;-0.8049562;-0.15161596;;;;;223.9
467.0;275.5;;;;;;;;;;;;;;;;;-0.4997406;-4.0246286;-1.3809626;;223.9
467.0;275.5;;;;;;;;;;;;;;-0.6140324;-0.8040407;-0.14996795;;;;;223.9
467.0;342.7;;;;;;;;;;;;;;;;;-0.32044435;-3.9788508;-1.5259255;;233.4
467.0;342.7;;;;;;;;;;;;;;-0.6115299;-0.8019654;-0.1530198;;;;;233.4
467.0;342.7;;;;;;;;;;;;;;;;;-0.17166662;-3.9635916;-1.6441847;;233.4
467.0;342.7;;;;;;;;;;;;;;-0.606769;-0.8002564;-0.15619373;;;;;233.4
467.0;342.7;;;;;;;;;;;;;;;;;-0.15259254;-3.9559617;-1.7204809;;243.1
467.0;342.7;;;;;;;;;;;;;;-0.6045717;-0.79891354;-0.15887935;;;;;243.1
467.0;342.7;;;;;;;;;;;;;;;;;-0.15259254;-3.8415174;-1.7700735;;243.1
467.0;342.7;;;;;;;;;;;;;;-0.603473;-0.7975097;-0.16205329;;;;;243.1
467.0;342.7;;;;;;;;;;;;;;;;;-0.110629596;-3.746147;-1.8005921;;252.8
467.0;342.7;;;;;;;;;;;;;;-0.60408336;-0.7984863;-0.16321298;;;;;252.8
467.0;342.7;;;;;;;;;;;;;;;;;-0.0076296274;-3.482925;-1.823481;;252.8
467.0;342.7;;;;;;;;;;;;;;-0.6021302;-0.797998;-0.16425061;;;;;252.8
588.0;343.5;;;;;;;;;;;;;;;;;0.29755548;-3.0442214;-1.7891476;;262.4
588.0;343.5;;;;;;;;;;;;;;-0.6007874;-0.80092776;-0.16425061;;;;;262.4
588.0;343.5;;;;;;;;;;;;;;;;;0.8316294;-2.6512957;-1.7700735;;262.4
588.0;343.5;;;;;;;;;;;;;;-0.59944457;-0.80257577;-0.1638844;;;;;262.4
588.0;343.5;;;;;;;;;;;;;;;;;1.4381847;-2.3270364;-1.8005921;;271.9
588.0;343.5;;;;;;;;;;;;;;-0.59761345;-0.8044069;-0.16211432;;;;;271.9
588.0;343.5;;;;;;;;;;;;;;;;;2.3003328;-2.0638144;-1.8120365;;271.9
588.0;343.5;;;;;;;;;;;;;;-0.59596545;-0.80751973;-0.16046633;;;;;271.9
588.0;343.5;;;;;;;;;;;;;;;;;3.1205175;-1.7853328;-1.8921475;;281.5
588.0;343.5;;;;;;;;;;;;;;-0.593524;-0.8071535;-0.15778069;;;;;281.5
588.0;343.5;;;;;;;;;;;;;;;;;3.8567767;-1.5640736;-2.0256662;;281.5
588.0;343.5;;;;;;;;;;;;;;-0.5894345;-0.8074587;-0.15448469;;;;;281.5
588.0;402.9;;;;;;;;;;;;;;;;;4.39848;-1.3046663;-2.128666;;291.2
588.0;402.9;;;;;;;;;;;;;;-0.58442944;-0.80758077;-0.15314189;;;;;291.2
588.0;402.9;;;;;;;;;;;;;;;;;4.7189245;-0.96133304;-2.45674;;291.2
588.0;402.9;;;;;;;;;;;;;;-0.5793024;-0.8059328;-0.1523484;;;;;291.2
588.0;402.9;;;;;;;;;;;;;;;;;4.8409986;-0.57222205;-2.685629;;300.7
588.0;402.9;;;;;;;;;;;;;;-0.5751518;-0.8067873;-0.15222633;;;;;300.7
588.0;402.9;;;;;;;;;;;;;;;;;4.974517;-0.2517777;-2.994629;;300.7
588.0;402.9;;;;;;;;;;;;;;-0.57185584;-0.8071535;-0.15228736;;;;;300.7
588.0;402.9;;;;;;;;;;;;;;;;;5.054628;-0.10681479;-3.3532214;;310.2
588.0;402.9;;;;;;;;;;;;;;-0.57148963;-0.80776393;-0.15240943;;;;;310.2
588.0;402.9;;;;;;;;;;;;;;;;;5.1881466;-0.06103702;-3.6393323;;310.2
588.0;402.9;;;;;;;;;;;;;;-0.5708792;-0.8091067;-0.15143284;;;;;310.2
590.0;455.8;;;;;;;;;;;;;;;;;5.3216653;-0.06103702;-3.9178138;;319.8
590.0;455.8;;;;;;;;;;;;;;-0.570452;-0.8108768;-0.14935759;;;;;319.8
590.0;455.8;;;;;;;;;;;;;;;;;5.367443;0.03051851;-4.1695914;;319.8
590.0;455.8;;;;;;;;;;;;;;-0.5713065;-0.81478316;-0.15131077;;;;;319.8
590.0;455.8;;;;;;;;;;;;;;;;;5.5887017;0.21744438;-4.440443;;329.5
590.0;455.8;;;;;;;;;;;;;;-0.57417524;-0.81783503;-0.15179907;;;;;329.5
590.0;455.8;;;;;;;;;;;;;;;;;5.878628;0.34333324;-4.734184;;329.5
590.0;455.8;;;;;;;;;;;;;;-0.5760674;-0.82149726;-0.15057832;;;;;329.5
590.0;455.8;;;;;;;;;;;;;;;;;6.3936276;0.45777765;-4.947813;;339.1
590.0;455.8;;;;;;;;;;;;;;-0.57777643;-0.826014;-0.15015107;;;;;339.1
590.0;455.8;;;;;;;;;;;;;;;;;6.8933682;0.5607776;-5.1919613;;339.1
590.0;455.8;;;;;;;;;;;;;;-0.5789361;-0.82931;-0.14831996;;;;;339.1
590.0;463.2;;;;;;;;;;;;;;;;;7.3664055;0.5226295;-5.4971466;;348.8
590.0;463.2;;;;;;;;;;;;;;-0.5794855;-0.8332774;-0.14899136;;;;;348.8
590.0;463.2;;;;;;;;;;;;;;;;;7.7135534;0.7057405;-5.8099613;;348.8
590.0;463.2;;;;;;;;;;;;;;-0.5777154;-0.83767205;-0.15149388;;;;;348.8
590.0;463.2;;;;;;;;;;;;;;;;;7.8470716;0.9117405;-6.145665;;358.4
590.0;463.2;;;;;;;;;;;;;;-0.57667774;-0.8451796;-0.1539964;;;;;358.4
590.0;463.2;;;;;;;;;;;;;;;;;7.942442;1.2245551;-6.6682944;;358.4
590.0;463.2;;;;;;;;;;;;;;-0.57435834;-0.85317546;-0.15784173;;;;;358.4
590.0;463.2;;;;;;;;;;;;;;;;;8.236183;1.411481;-7.328257;;368.0
590.0;463.2;;;;;;;;;;;;;;-0.5724662;-0.8612934;-0.15887935;;;;;368.0
590.0;463.2;;;;;;;;;;;;;;;;;8.507034;1.495407;-8.011109;;368.0
590.0;463.2;;;;;;;;;;;;;;-0.5692312;-0.8653218;-0.1594287;;;;;368.0
591.0;464.0;;;;;;;;;;;;;;;;;8.80459;1.373333;-8.823664;;377.6
591.0;464.0;;;;;;;;;;;;;;-0.565447;-0.868923;-0.15863521;;;;;377.6
591.0;464.0;;;;;;;;;;;;;;;;;9.025849;1.1444441;-9.701072;;377.6
591.0;464.0;;;;;;;;;;;;;;-0.5627003;-0.8717307;-0.15814692;;;;;377.6
591.0;464.0;;;;;;;;;;;;;;;;;9.212775;0.7705924;-10.567034;;387.3
591.0;464.0;;;;;;;;;;;;;;-0.55885494;-0.87258524;-0.1556444;;;;;387.3
591.0;464.0;;;;;;;;;;;;;;;;;9.399701;0.44251838;-11.474959;;387.3
591.0;464.0;;;;;;;;;;;;;;-0.55653554;-0.8716086;-0.15411848;;;;;387.3
591.0;464.0;;;;;;;;;;;;;;;;;9.655293;-0.08011109;-12.356182;;396.9
591.0;464.0;;;;;;;;;;;;;;-0.5525071;-0.868862;-0.15143284;;;;;396.9
591.0;464.0;;;;;;;;;;;;;;;;;9.899441;-0.67522204;-13.248848;;396.9
591.0;464.0;;;;;;;;;;;;;;-0.5509201;-0.8669088;-0.14709921;;;;;396.9
591.0;516.5;;;;;;;;;;;;;;;;;10.219886;-0.9994812;-14.072847;;406.5
591.0;516.5;;;;;;;;;;;;;;-0.54829556;-0.8655049;-0.14398633;;;;;406.5
591.0;516.5;;;;;;;;;;;;;;;;;10.620441;-1.1978515;-14.931181;;406.5
591.0;516.5;;;;;;;;;;;;;;-0.54585403;-0.86605424;-0.14154485;;;;;406.5
591.0;516.5;;;;;;;;;;;;;;;;;11.116366;-1.22837;-15.552996;;416.2
591.0;516.5;;;;;;;;;;;;;;-0.5438398;-0.86587113;-0.13763848;;;;;416.2
591.0;516.5;;;;;;;;;;;;;;;;;11.6962185;-1.1635182;-16.224403;;416.2
591.0;516.5;;;;;;;;;;;;;;-0.5434736;-0.867275;-0.13574633;;;;;416.2
591.0;516.5;;;;;;;;;;;;;;;;;12.409589;-1.1177404;-16.758478;;425.9
591.0;516.5;;;;;;;;;;;;;;-0.54353464;-0.8678243;-0.13263345;;;;;425.9
591.0;516.5;;;;;;;;;;;;;;;;;13.225959;-1.1329997;-17.18955;;425.9
591.0;516.5;;;;;;;;;;;;;;-0.5451216;-0.8681295;-0.13263345;;;;;425.9
648.0;517.1;;;;;;;;;;;;;;;;;13.878292;-1.1711478;-17.628254;;435.4
648.0;517.1;;;;;;;;;;;;;;-0.54536575;-0.86849576;-0.12933744;;;;;435.4
648.0;517.1;;;;;;;;;;;;;;;;;14.557329;-1.3466293;-18.03644;;435.4
648.0;517.1;;;;;;;;;;;;;;-0.54554886;-0.86806846;-0.13013093;;;;;435.4
648.0;517.1;;;;;;;;;;;;;;;;;15.171514;-1.2703329;-18.299662;;445.1
648.0;517.1;;;;;;;;;;;;;;-0.5447554;-0.86751914;-0.12903225;;;;;445.1
648.0;517.1;;;;;;;;;;;;;;;;;15.5796995;-1.0719626;-18.593403;;445.1
648.0;517.1;;;;;;;;;;;;;;-0.5462203;-0.8667867;-0.12707907;;;;;445.1
648.0;517.1;;;;;;;;;;;;;;;;;15.930662;-1.0299997;-18.84518;;454.7
648.0;517.1;;;;;;;;;;;;;;-0.5451216;-0.8664205;-0.1267739;;;;;454.7
648.0;517.1;;;;;;;;;;;;;;;;;16.075624;-0.8316294;-19.104588;;454.7
648.0;517.1;;;;;;;;;;;;;;-0.542436;-0.8664205;-0.12665181;;;;;454.7
648.0;530.9;;;;;;;;;;;;;;;;;16.144293;-0.48066652;-19.348736;;464.4
648.0;530.9;;;;;;;;;;;;;;-0.54322946;-0.86648154;-0.124881744;;;;;464.4
648.0;530.9;;;;;;;;;;;;;;;;;16.270182;-0.17929624;-19.47844;;464.4
648.0;530.9;;;;;;;;;;;;;;-0.54371774;-0.8646504;-0.1257973;;;;;464.4
648.0;530.9;;;;;;;;;;;;;;;;;16.331219;0.17548142;-19.74166;;474.0
648.0;530.9;;;;;;;;;;;;;;-0.5420698;-0.8650777;-0.12585834;;;;;474.0
648.0;530.9;;;;;;;;;;;;;;;;;16.51433;0.49211097;-19.92477;;474.0
648.0;530.9;;;;;;;;;;;;;;-0.5429243;-0.8644673;-0.12457655;;;;;474.0
648.0;530.9;;;;;;;;;;;;;;;;;16.834774;0.9460738;-20.0354;;483.5
648.0;530.9;;;;;;;;;;;;;;-0.5400556;-0.8636738;-0.12543108;;;;;483.5
648.0;530.9;;;;;;;;;;;;;;;;;17.296364;1.4610736;-20.14603;;483.5
648.0;530.9;;;;;;;;;;;;;;-0.54054385;-0.8630024;-0.124332406;;;;;483.5
708.0;575.9;;;;;;;;;;;;;;;;;17.849512;1.8730735;-20.207067;;493.0
708.0;575.9;;;;;;;;;;;;;;-0.5409711;-0.86159855;-0.12329478;;;;;493.0
708.0;575.9;;;;;;;;;;;;;;;;;18.337809;2.5368512;-20.111698;;493.0
708.0;575.9;;;;;;;;;;;;;;-0.53779715;-0.86056095;-0.12640767;;;;;493.0
708.0;575.9;;;;;;;;;;;;;;;;;18.7727;3.2044435;-19.997253;;502.6
708.0;575.9;;;;;;;;;;;;;;-0.53779715;-0.8616596;-0.1297647;;;;;502.6
708.0;575.9;;;;;;;;;;;;;;;;;18.97107;4.119999;-19.74166;;502.6
708.0;575.9;;;;;;;;;;;;;;-0.5406049;-0.86092716;-0.13379315;;;;;502.6
708.0;575.9;;;;;;;;;;;;;;;;;19.108402;4.9211097;-19.642475;;512.3
708.0;575.9;;;;;;;;;;;;;;-0.5404218;-0.85927916;-0.13953063;;;;;512.3
708.0;575.9;;;;;;;;;;;;;;;;;19.230476;5.4857025;-19.558548;;512.3
708.0;575.9;;;;;;;;;;;;;;-0.54219186;-0.8567156;-0.14551225;;;;;512.3
708.0;591.3;;;;;;;;;;;;;;;;;19.474625;5.9320354;-19.318218;;521.9
708.0;591.3;;;;;;;;;;;;;;-0.5446333;-0.8534196;-0.1521653;;;;;521.9
708.0;591.3;;;;;;;;;;;;;;;;;19.798882;6.424146;-18.978699;;521.9
708.0;591.3;;;;;;;;;;;;;;-0.5489059;-0.84920806;-0.15131077;;;;;521.9
708.0;591.3;;;;;;;;;;;;;;;;;19.821772;7.042146;-18.574327;;531.5
708.0;591.3;;;;;;;;;;;;;;-0.5495773;-0.84426403;-0.15112767;;;;;531.5
708.0;591.3;;;;;;;;;;;;;;;;;19.577623;7.9119234;-18.192846;;531.5
708.0;591.3;;;;;;;;;;;;;;-0.550737;-0.83797723;-0.15210426;;;;;531.5
708.0;591.3;;;;;;;;;;;;;;;;;19.402143;8.865627;-17.723623;;541.2
708.0;591.3;;;;;;;;;;;;;;-0.5559862;-0.83516955;-0.14880826;;;;;541.2
708.0;591.3;;;;;;;;;;;;;;;;;19.199959;9.838404;-17.281105;;541.2
708.0;591.3;;;;;;;;;;;;;;-0.55885494;-0.8318125;-0.14453566;;;;;541.2
768.0;643.8;;;;;;;;;;;;;;;;;19.119846;10.673849;-16.90344;;550.7
768.0;643.8;;;;;;;;;;;;;;-0.5642262;-0.82827234;-0.13922544;;;;;550.7
768.0;643.8;;;;;;;;;;;;;;;;;19.24955;11.14307;-16.533403;;550.7
768.0;643.8;;;;;;;;;;;;;;-0.5656911;-0.8268685;-0.13165686;;;;;550.7
768.0;643.8;;;;;;;;;;;;;;;;;19.505142;11.486403;-16.247292;;560.3
768.0;643.8;;;;;;;;;;;;;;-0.5681936;-0.8233894;-0.123538926;;;;;560.3
768.0;643.8;;;;;;;;;;;;;;;;;19.432661;11.631367;-16.098515;;560.3
768.0;643.8;;;;;;;;;;;;;;-0.56788844;-0.82320625;-0.11999878;;;;;560.3
768.0;643.8;;;;;;;;;;;;;;;;;19.417402;11.848811;-16.022219;;569.8
768.0;643.8;;;;;;;;;;;;;;-0.567217;-0.824366;-0.11883908;;;;;569.8
768.0;643.8;;;;;;;;;;;;;;;;;19.314402;12.047182;-15.999329;;569.8
768.0;643.8;;;;;;;;;;;;;;-0.5681326;-0.82558674;-0.11456648;;;;;569.8
768.0;696.6;;;;;;;;;;;;;;;;;19.211403;12.070071;-16.083256;;579.5
768.0;696.6;;;;;;;;;;;;;;-0.5667287;-0.8257088;-0.11035493;;;;;579.5
768.0;696.6;;;;;;;;;;;;;;;;;19.04355;12.096774;-16.28544;;579.5
768.0;696.6;;;;;;;;;;;;;;-0.56495863;-0.82595295;-0.107181005;;;;;579.5
768.0;696.6;;;;;;;;;;;;;;;;;18.807032;12.047182;-16.617329;;589.2
768.0;696.6;;;;;;;;;;;;;;-0.55995363;-0.82576984;-0.10492264;;;;;589.2
768.0;696.6;;;;;;;;;;;;;;;;;18.34544;12.119663;-17.071291;;589.2
768.0;696.6;;;;;;;;;;;;;;-0.5615406;-0.8256478;-0.10058901;;;;;589.2
768.0;696.6;;;;;;;;;;;;;;;;;17.796106;11.959441;-17.571032;;598.9
768.0;696.6;;;;;;;;;;;;;;-0.5611133;-0.8285775;-0.100283824;;;;;598.9
768.0;696.6;;;;;;;;;;;;;;;;;17.19718;11.8564415;-18.002106;;598.9
768.0;696.6;;;;;;;;;;;;;;-0.55739003;-0.8308359;-0.099612415;;;;;598.9
887.0;697.5;;;;;;;;;;;;;;;;;16.68981;11.589404;-18.627735;;608.4
887.0;697.5;;;;;;;;;;;;;;-0.5565966;-0.8307138;-0.0987579;;;;;608.4
887.0;697.5;;;;;;;;;;;;;;;;;15.964996;11.551256;-19.253365;;608.4
887.0;697.5;;;;;;;;;;;;;;-0.55653554;-0.8323008;-0.09979553;;;;;608.4
887.0;697.5;;;;;;;;;;;;;;;;;15.076143;11.627552;-19.878994;;618.1
887.0;697.5;;;;;;;;;;;;;;-0.5601978;-0.83565784;-0.10400708;;;;;618.1
887.0;697.5;;;;;;;;;;;;;;;;;14.290292;11.726737;-20.489365;;618.1
887.0;697.5;;;;;;;;;;;;;;-0.56447035;-0.8364513;-0.11322367;;;;;618.1
887.0;697.5;;;;;;;;;;;;;;;;;14.000366;11.490219;-21.122623;;627.6
887.0;697.5;;;;;;;;;;;;;;-0.567217;-0.83571887;-0.11450545;;;;;627.6
887.0;697.5;;;;;;;;;;;;;;;;;13.9965515;10.708182;-21.61092;;627.6
887.0;697.5;;;;;;;;;;;;;;-0.5685598;-0.8364513;-0.11517686;;;;;627.6
887.0;704.1;;;;;;;;;;;;;;;;;13.672293;9.9642935;-22.080143;;637.4
887.0;704.1;;;;;;;;;;;;;;-0.56788844;-0.8341319;-0.11316264;;;;;637.4
887.0;704.1;;;;;;;;;;;;;;;;;12.825403;8.823664;-22.423473;;637.4
887.0;704.1;;;;;;;;;;;;;;-0.5703299;-0.83120215;-0.11511582;;;;;637.4
887.0;704.1;;;;;;;;;;;;;;;;;11.612293;7.717368;-22.751549;;647.0
887.0;704.1;;;;;;;;;;;;;;-0.57148963;-0.82931;-0.12103641;;;;;647.0
887.0;704.1;;;;;;;;;;;;;;;;;10.601367;6.679739;-23.079622;;647.0
887.0;704.1;;;;;;;;;;;;;;-0.5797296;-0.8263802;-0.1241493;;;;;647.0
887.0;704.1;;;;;;;;;;;;;;;;;10.03296;5.466628;-23.34666;;656.6
887.0;704.1;;;;;;;;;;;;;;-0.5859554;-0.81496626;-0.12683493;;;;;656.6
887.0;704.1;;;;;;;;;;;;;;;;;10.071108;4.3450727;-23.571733;;656.6
887.0;704.1;;;;;;;;;;;;;;-0.58919036;-0.8042238;-0.12317271;;;;;656.6
889.0;757.3;;;;;;;;;;;;;;;;;10.834071;3.1815546;-23.613697;;666.3
889.0;757.3;;;;;;;;;;;;;;-0.58656573;-0.7891476;-0.10773034;;;;;666.3
889.0;757.3;;;;;;;;;;;;;;;;;11.387218;2.3804438;-23.77392;;666.3
889.0;757.3;;;;;;;;;;;;;;-0.58229315;-0.7763298;-0.08874783;;;;;666.3
889.0;757.3;;;;;;;;;;;;;;;;;11.753441;2.1782587;-23.770103;;675.8
889.0;757.3;;;;;;;;;;;;;;-0.5689871;-0.7691275;-0.07147435;;;;;675.8
889.0;757.3;;;;;;;;;;;;;;;;;11.722922;2.7619252;-23.487808;;675.8
889.0;757.3;;;;;;;;;;;;;;-0.5647145;-0.7665639;-0.0540788;;;;;675.8
889.0;757.3;;;;;;;;;;;;;;;;;11.387218;3.5477767;-23.01477;;685.5
889.0;757.3;;;;;;;;;;;;;;-0.5614185;-0.76906645;-0.044373915;;;;;685.5
889.0;757.3;;;;;;;;;;;;;;;;;11.425366;4.1772213;-22.03818;;685.5
889.0;757.3;;;;;;;;;;;;;;-0.56611836;-0.7790155;-0.035706658;;;;;685.5
889.0;764.4;;;;;;;;;;;;;;;;;11.98996;4.3717766;-20.817438;;695.1
889.0;764.4;;;;;;;;;;;;;;-0.57039094;-0.7892697;-0.031006806;;;;;695.1
889.0;764.4;;;;;;;;;;;;;;;;;12.867367;4.1047397;-19.36018;;695.1
889.0;764.4;;;;;;;;;;;;;;-0.57667774;-0.80184335;-0.024414808;;;;;695.1
889.0;764.4;;;;;;;;;;;;;;;;;13.6227;3.173925;-17.597734;;704.7
889.0;764.4;;;;;;;;;;;;;;-0.5771661;-0.81154823;-0.024231697;;;;;704.7
889.0;764.4;;;;;;;;;;;;;;;;;13.763847;1.9760735;-15.896328;;704.7
889.0;764.4;;;;;;;;;;;;;;-0.5800348;-0.8210089;-0.02191229;;;;;704.7
889.0;764.4;;;;;;;;;;;;;;;;;13.2107;0.42344433;-14.103366;;714.3
889.0;764.4;;;;;;;;;;;;;;-0.5807672;-0.8285775;-0.026734214;;;;;714.3
889.0;764.4;;;;;;;;;;;;;;;;;11.959441;-1.2855922;-12.493514;;714.3
889.0;764.4;;;;;;;;;;;;;;-0.5789361;-0.83370465;-0.03302103;;;;;714.3
948.0;824.9;;;;;;;;;;;;;;;;;10.155034;-3.0175178;-10.860775;;724.0
948.0;824.9;;;;;;;;;;;;;;-0.5789361;-0.83498645;-0.044740137;;;;;724.0
948.0;824.9;;;;;;;;;;;;;;;;;8.011109;-4.676962;-9.31196;;724.0
948.0;824.9;;;;;;;;;;;;;;-0.57869196;-0.8318125;-0.05841243;;;;;724.0
948.0;824.9;;;;;;;;;;;;;;;;;5.920591;-6.1342206;-7.8508863;;733.5
948.0;824.9;;;;;;;;;;;;;;-0.57704395;-0.8273568;-0.07251198;;;;;733.5
948.0;824.9;;;;;;;;;;;;;;;;;4.1657767;-6.977294;-6.4546647;;733.5
948.0;824.9;;;;;;;;;;;;;;-0.57509077;-0.82253486;-0.08685568;;;;;733.5
948.0;824.9;;;;;;;;;;;;;;;;;2.8191473;-7.354961;-5.2682576;;743.2
948.0;824.9;;;;;;;;;;;;;;-0.56874293;-0.8197882;-0.0992462;;;;;743.2
948.0;824.9;;;;;;;;;;;;;;;;;1.8272958;-6.9467754;-4.3488874;;743.2
948.0;824.9;;;;;;;;;;;;;;-0.56660664;-0.8142949;-0.10510575;;;;;743.2
948.0;825.7;;;;;;;;;;;;;;;;;1.1978515;-5.897702;-3.5744805;;752.8
948.0;825.7;;;;;;;;;;;;;;-0.5612964;-0.8142949;-0.104739524;;;;;752.8
948.0;825.7;;;;;;;;;;;;;;;;;0.9727775;-4.650258;-2.9526658;;752.8
948.0;825.7;;;;;;;;;;;;;;-0.55476546;-0.8173467;-0.10382397;;;;;752.8
948.0;825.7;;;;;;;;;;;;;;;;;0.8278146;-3.5782952;-2.4529252;;762.5
948.0;825.7;;;;;;;;;;;;;;-0.55384994;-0.8175909;-0.10034486;;;;;762.5
948.0;825.7;;;;;;;;;;;;;;;;;0.3929258;-2.9564807;-1.739555;;762.5
948.0;825.7;;;;;;;;;;;;;;-0.55507064;-0.81887263;-0.099612415;;;;;762.5
948.0;825.7;;;;;;;;;;;;;;;;;-0.23270364;-3.0442214;-0.94225895;;772.1
948.0;825.7;;;;;;;;;;;;;;-0.5555589;-0.82253486;-0.10174871;;;;;772.1
948.0;825.7;;;;;;;;;;;;;;;;;-0.77440715;-3.6660361;0.068666644;;772.1
948.0;825.7;;;;;;;;;;;;;;-0.5541551;-0.8256478;-0.105288856;;;;;772.1
1009.0;878.0;;;;;;;;;;;;;;;;;-1.2627033;-4.5777764;1.1558886;;781.8
1009.0;878.0;;;;;;;;;;;;;;-0.5564745;-0.82650226;-0.10773034;;;;;781.8
1009.0;878.0;;;;;;;;;;;;;;;;;-1.5831476;-5.6611834;2.2583697;;781.8
1009.0;878.0;;;;;;;;;;;;;;-0.5578784;-0.8273568;-0.11358989;;;;;781.8
1009.0;878.0;;;;;;;;;;;;;;;;;-1.7853328;-6.4851832;3.2921844;;791.5
1009.0;878.0;;;;;;;;;;;;;;-0.5561083;-0.8294931;-0.11896115;;;;;791.5
1009.0;878.0;;;;;;;;;;;;;;;;;-1.9493698;-7.0307016;4.276406;;791.5
1009.0;878.0;;;;;;;;;;;;;;-0.55507064;-0.83040863;-0.12292856;;;;;791.5
1009.0;878.0;;;;;;;;;;;;;;;;;-2.212592;-7.145146;5.0469985;;801.2
1009.0;878.0;;;;;;;;;;;;;;-0.55818355;-0.83156836;-0.12634663;;;;;801.2
1009.0;878.0;;;;;;;;;;;;;;;;;-2.6589253;-6.977294;5.6993318;;801.2
1009.0;878.0;;;;;;;;;;;;;;-0.5627613;-0.8311411;-0.12823878;;;;;801.2
1009.0;878.9;;;;;;;;;;;;;;;;;-3.1662953;-6.6682944;6.2295904;;810.8
1009.0;878.9;;;;;;;;;;;;;;-0.5663625;-0.8333995;-0.1276284;;;;;810.8
1009.0;878.9;;;;;;;;;;;;;;;;;-3.9216285;-6.1189613;6.725517;;810.8
1009.0;878.9;;;;;;;;;;;;;;-0.56740016;-0.8377331;-0.12390515;;;;;810.8
1009.0;878.9;;;;;;;;;;;;;;;;;-5.0813317;-5.4170356;7.194739;;820.5
1009.0;878.9;;;;;;;;;;;;;;-0.5683767;-0.8437147;-0.12103641;;;;;820.5
1009.0;878.9;;;;;;;;;;;;;;;;;-6.2791834;-4.6464434;7.511368;;820.5
1009.0;878.9;;;;;;;;;;;;;;-0.5694754;-0.8530534;-0.115421005;;;;;820.5
1009.0;878.9;;;;;;;;;;;;;;;;;-7.374035;-3.971221;7.9195538;;830.1
1009.0;878.9;;;;;;;;;;;;;;-0.5684988;-0.86373484;-0.11120945;;;;;830.1
1009.0;878.9;;;;;;;;;;;;;;;;;-8.163702;-3.402814;8.167517;;830.1
1009.0;878.9;;;;;;;;;;;;;;-0.56575215;-0.8742943;-0.10492264;;;;;830.1
1068.0;937.9;;;;;;;;;;;;;;;;;-8.476516;-2.7886288;8.396405;;839.8
1068.0;937.9;;;;;;;;;;;;;;-0.56263924;-0.88467056;-0.10034486;;;;;839.8
1068.0;937.9;;;;;;;;;;;;;;;;;-8.533738;-2.189703;8.564257;;839.8
1068.0;937.9;;;;;;;;;;;;;;-0.55763423;-0.89242226;-0.095583975;;;;;839.8
1068.0;937.9;;;;;;;;;;;;;;;;;-8.10648;-1.6441847;8.70159;;849.4
1068.0;937.9;;;;;;;;;;;;;;-0.55311745;-0.8979156;-0.09088412;;;;;849.4
1068.0;937.9;;;;;;;;;;;;;;;;;-7.5991087;-1.2588885;8.785516;;849.4
1068.0;937.9;;;;;;;;;;;;;;-0.54646444;-0.90194404;-0.086489454;;;;;849.4
1068.0;937.9;;;;;;;;;;;;;;;;;-7.023072;-1.1978515;8.823664;;859.1
1068.0;937.9;;;;;;;;;;;;;;-0.54158145;-0.9026154;-0.07916501;;;;;859.1
1068.0;937.9;;;;;;;;;;;;;;;;;-6.4355907;-1.3885921;8.838923;;859.1
1068.0;937.9;;;;;;;;;;;;;;-0.53401285;-0.901822;-0.075014494;;;;;859.1
1068.0;938.7;;;;;;;;;;;;;;;;;-5.878628;-1.6747032;8.880886;;868.7
1068.0;938.7;;;;;;;;;;;;;;-0.5281533;-0.8987701;-0.068971835;;;;;868.7
1068.0;938.7;;;;;;;;;;;;;;;;;-5.546739;-1.9951477;8.919034;;868.7
1068.0;938.7;;;;;;;;;;;;;;-0.52449113;-0.8946806;-0.06579791;;;;;868.7
1068.0;938.7;;;;;;;;;;;;;;;;;-5.489517;-2.4109623;9.025849;;878.4
1068.0;938.7;;;;;;;;;;;;;;-0.5224769;-0.8907132;-0.063966796;;;;;878.4
1068.0;938.7;;;;;;;;;;;;;;;;;-5.7451096;-2.6703696;9.155553;;878.4
1068.0;938.7;;;;;;;;;;;;;;-0.5224769;-0.88680685;-0.06445509;;;;;878.4
1068.0;938.7;;;;;;;;;;;;;;;;;-6.214331;-2.9221473;9.235664;;888.1
1068.0;938.7;;;;;;;;;;;;;;-0.52571183;-0.8844264;-0.064760275;;;;;888.1
1068.0;938.7;;;;;;;;;;;;;;;;;-6.637776;-3.1281471;9.4569235;;888.1
1068.0;938.7;;;;;;;;;;;;;;-0.5301675;-0.8824122;-0.06445509;;;;;888.1
1128.0;998.1;;;;;;;;;;;;;;;;;-6.96585;-3.3036287;9.689628;;897.7
1128.0;998.1;;;;;;;;;;;;;;-0.53529465;-0.88033694;-0.06360058;;;;;897.7
1128.0;998.1;;;;;;;;;;;;;;;;;-7.4083686;-3.4257026;9.9147005;;897.7
1128.0;998.1;;;;;;;;;;;;;;-0.5389569;-0.8802759;-0.06305124;;;;;897.7
1128.0;998.1;;;;;;;;;;;;;;;;;-7.831813;-3.627888;10.139774;;907.3
1128.0;998.1;;;;;;;;;;;;;;-0.54536575;-0.8805811;-0.06207465;;;;;907.3
1128.0;998.1;;;;;;;;;;;;;;;;;-8.1827755;-3.810999;10.254219;;907.3
1128.0;998.1;;;;;;;;;;;;;;-0.5526902;-0.88003176;-0.060731836;;;;;907.3
1128.0;998.1;;;;;;;;;;;;;;;;;-8.384961;-3.8987396;10.364849;;916.9
1128.0;998.1;;;;;;;;;;;;;;-0.5611133;-0.8791162;-0.06079287;;;;;916.9
1128.0;998.1;;;;;;;;;;;;;;;;;-8.350628;-3.99411;10.467849;;916.9
1128.0;998.1;;;;;;;;;;;;;;-0.5658742;-0.8773461;-0.05841243;;;;;916.9
1128.0;999.3;;;;;;;;;;;;;;;;;-8.224739;-4.203925;10.498367;;926.5
1128.0;999.3;;;;;;;;;;;;;;-0.572161;-0.87331766;-0.058717612;;;;;926.5
1128.0;999.3;;;;;;;;;;;;;;;;;-8.064516;-4.4709616;10.399182;;926.5
1128.0;999.3;;;;;;;;;;;;;;-0.57472456;-0.87051;-0.059327982;;;;;926.5
1128.0;999.3;;;;;;;;;;;;;;;;;-7.866146;-4.730369;10.319071;;936.1
1128.0;999.3;;;;;;;;;;;;;;-0.5764336;-0.86739707;-0.06085391;;;;;936.1
1128.0;999.3;;;;;;;;;;;;;;;;;-7.7135534;-5.130924;10.124516;;936.1
1128.0;999.3;;;;;;;;;;;;;;-0.5769219;-0.86336863;-0.063844725;;;;;936.1
1128.0;999.3;;;;;;;;;;;;;;;;;-7.629627;-5.4361095;9.945219;;945.7
1128.0;999.3;;;;;;;;;;;;;;-0.57667774;-0.8600726;-0.066652425;;;;;945.7
1128.0;999.3;;;;;;;;;;;;;;;;;-7.507553;-5.733665;9.689628;;945.7
1128.0;999.3;;;;;;;;;;;;;;-0.5749687;-0.85586107;-0.06860561;;;;;945.7
1187.0;1058.3;;;;;;;;;;;;;;;;;-7.3587756;-6.0579243;9.479813;;955.3
1187.0;1058.3;;;;;;;;;;;;;;-0.5741142;-0.8526872;-0.07068087;;;;;955.3
1187.0;1058.3;;;;;;;;;;;;;;;;;-7.374035;-6.382183;9.269998;;955.3
1187.0;1058.3;;;;;;;;;;;;;;-0.5695975;-0.8522599;-0.07367168;;;;;955.3
1187.0;1058.3;;;;;;;;;;;;;;;;;-7.362591;-6.660665;9.117405;;965.0
1187.0;1058.3;;;;;;;;;;;;;;-0.5666677;-0.8539079;-0.07660146;;;;;965.0
1187.0;1058.3;;;;;;;;;;;;;;;;;-7.3664055;-6.939146;8.911405;;965.0
1187.0;1058.3;;;;;;;;;;;;;;-0.56105226;-0.85494554;-0.080568865;;;;;965.0
1187.0;1058.3;;;;;;;;;;;;;;;;;-7.4312572;-7.3320723;8.751183;;974.6
1187.0;1058.3;;;;;;;;;;;;;;-0.5543382;-0.85860777;-0.084109016;;;;;974.6
1187.0;1058.3;;;;;;;;;;;;;;;;;-7.37022;-7.7097383;8.613849;;974.6
1187.0;1058.3;;;;;;;;;;;;;;-0.54994357;-0.85946226;-0.0867336;;;;;974.6
1187.0;1059.1;;;;;;;;;;;;;;;;;-7.2977386;-7.953887;8.472701;;984.2
1187.0;1059.1;;;;;;;;;;;;;;-0.5465255;-0.86226994;-0.087343976;;;;;984.2
1187.0;1059.1;;;;;;;;;;;;;;;;;-7.2367015;-8.320109;8.381146;;984.2
1187.0;1059.1;;;;;;;;;;;;;;-0.5429243;-0.86269724;-0.08929716;;;;;984.2
1187.0;1059.1;;;;;;;;;;;;;;;;;-7.3206277;-8.655812;8.342998;;993.8
1187.0;1059.1;;;;;;;;;;;;;;-0.54054385;-0.8680074;-0.09094516;;;;;993.8
1187.0;1059.1;;;;;;;;;;;;;;;;;-7.507553;-8.877071;8.358257;;993.8
1187.0;1059.1;;;;;;;;;;;;;;-0.5383465;-0.8692282;-0.093691826;;;;;993.8
1187.0;1059.1;;;;;;;;;;;;;;;;;-7.683035;-9.075441;8.411665;;1003.5
1187.0;1059.1;;;;;;;;;;;;;;-0.5379192;-0.87026584;-0.09363079;;;;;1003.5
1187.0;1059.1;;;;;;;;;;;;;;;;;-7.736442;-9.266183;8.40785;;1003.5
1187.0;1059.1;;;;;;;;;;;;;;-0.53859067;-0.8706931;-0.09234901;;;;;1003.5
1189.0;1118.6;;;;;;;;;;;;;;;;;-7.6181827;-9.250923;8.476516;;1013.1
1189.0;1118.6;;;;;;;;;;;;;;-0.5364544;-0.870571;-0.0910062;;;;;1013.1
1189.0;1118.6;;;;;;;;;;;;;;;;;-7.4732203;-9.060183;8.560442;;1013.1
1189.0;1118.6;;;;;;;;;;;;;;-0.5346843;-0.86916715;-0.0888699;;;;;1013.1
1189.0;1118.6;;;;;;;;;;;;;;;;;-7.438887;-8.762627;8.632923;;1022.7
1189.0;1118.6;;;;;;;;;;;;;;-0.5343181;-0.86666465;-0.089236125;;;;;1022.7
1189.0;1118.6;;;;;;;;;;;;;;;;;-7.442702;-8.209479;8.663442;;1022.7
1189.0;1118.6;;;;;;;;;;;;;;-0.5334025;-0.8644063;-0.08832057;;;;;1022.7
1189.0;1118.6;;;;;;;;;;;;;;;;;-7.2367015;-7.6448865;8.682516;;1032.4
1189.0;1118.6;;;;;;;;;;;;;;-0.5338908;-0.8629414;-0.08709983;;;;;1032.4
1189.0;1118.6;;;;;;;;;;;;;;;;;-6.984924;-7.160405;8.709219;;1032.4
1189.0;1118.6;;;;;;;;;;;;;;-0.5326701;-0.8604999;-0.08526871;;;;;1032.4
1190.0;1119.7;;;;;;;;;;;;;;;;;-6.6949983;-6.5652943;8.697775;;1042.1
1190.0;1119.7;;;;;;;;;;;;;;-0.5330363;-0.85842466;-0.085695975;;;;;1042.1
1190.0;1119.7;;;;;;;;;;;;;;;;;-6.4470353;-6.015961;8.70159;;1042.1
1190.0;1119.7;;;;;;;;;;;;;;-0.5338908;-0.85482347;-0.08197272;;;;;1042.1
1190.0;1119.7;;;;;;;;;;;;;;;;;-6.168554;-5.5543685;8.655812;;1051.6
1190.0;1119.7;;;;;;;;;;;;;;-0.5355388;-0.85421306;-0.08069094;;;;;1051.6
1190.0;1119.7;;;;;;;;;;;;;;;;;-5.771813;-4.9172945;8.625294;;1051.6
1190.0;1119.7;;;;;;;;;;;;;;-0.53566086;-0.85280925;-0.07770012;;;;;1051.6
1190.0;1119.7;;;;;;;;;;;;;;;;;-5.4704432;-4.566332;8.552812;;1061.3
1190.0;1119.7;;;;;;;;;;;;;;-0.53621024;-0.8525651;-0.07293924;;;;;1061.3
1190.0;1119.7;;;;;;;;;;;;;;;;;-5.1728873;-4.3107395;8.453628;;1061.3
1190.0;1119.7;;;;;;;;;;;;;;-0.5370037;-0.8506119;-0.06878872;;;;;1061.3
1190.0;1126.9;;;;0.0;0.0;0.0;;;;;;;;;;;;;;;
1190.0;1126.9;;;;-0.05119706;0.1998978;0.049270637;;;;;;;;;;;;;;;
1190.0;1126.9;;;;-0.16979219;0.8295213;0.13689043;;;;;;;;;;;;;;;
1190.0;1126.9;;;;-0.17671205;0.9176103;0.14229585;;;;;;;;;;;;;;;
1190.0;1126.9;;;;-0.17655946;0.9171258;0.14184572;;;;;;;;;;;;;;;
1190.0;1136.9;;;;-0.17633821;0.9166261;0.14207079;;;;;;;;;;;;;;;
1190.0;1136.9;;;;-0.17577745;0.9158784;0.14185335;;;;;;;;;;;;;;;
1190.0;1136.9;;;;-0.17501451;0.91549695;0.14132692;;;;;;;;;;;;;;;
1190.0;1136.9;;;;-0.17481233;0.91508496;0.14066698;;;;;;;;;;;;;;;
1190.0;1136.9;;;;-0.17406465;0.9142686;0.14063646;;;;;;;;;;;;;;;
1248.0;1138.2;57507;57548;13290;;;;;;;;;;;;;;;;;;
1248.0;1146.8;;;;-0.17347719;0.9136125;0.14089967;;;;;;;;;;;;;;;
1248.0;1146.8;;;;-0.17293932;0.9132196;0.1405182;;;;;;;;;;;;;;;
1248.0;1146.8;;;;-0.17247774;0.91288006;0.1404381;;;;;;;;;;;;;;;
1248.0;1146.8;;;;-0.17242433;0.91222394;0.13992311;;;;;;;;;;;;;;;
1248.0;1146.8;;;;-0.17154314;0.91167843;0.14013673;;;;;;;;;;;;;;;
1248.0;1156.8;;;;-0.17115022;0.91165173;0.14033891;;;;;;;;;;;;;;;
1248.0;1156.8;;;;-0.17055131;0.91170514;0.14112855;;;;;;;;;;;;;;;
1248.0;1156.8;;;;-0.17008592;0.91201794;0.14127733;;;;;;;;;;;;;;;
1248.0;1156.8;;;;-0.16972734;0.9117967;0.14195253;;;;;;;;;;;;;;;
1248.0;1156.8;;;;-0.16947939;0.9124223;0.14196779;;;;;;;;;;;;;;;
1248.0;1158.2;73814;73849;13281;;;;;;;;;;;;;;;;;;
1248.0;1164.4;;;;;;;;;;;;;0;;;;;;;;
1248.0;1164.4;;;;;;;;;;;;;0;;;;;;;;
1248.0;1164.4;;;;;;;;;;;;;-1;;;;;;;;
1248.0;1164.4;;;;;;;;;;;;;-2;;;;;;;;
1248.0;1164.4;;;;;;;;;;;;;-2;;;;;;;;
1248.0;1166.9;;;;-0.16902162;0.912922;0.14266206;;;;;;;;;;;;;;;
1248.0;1166.9;;;;-0.16906358;0.91386044;0.1435013;;;;;;;;;;;;;;;
1248.0;1166.9;;;;-0.16900636;0.914631;0.14410783;;;;;;;;;;;;;;;
1248.0;1166.9;;;;-0.16856767;0.9150163;0.14432527;;;;;;;;;;;;;;;
1248.0;1166.9;;;;-0.16856004;0.91551983;0.14458467;;;;;;;;;;;;;;;
1250.0;1177.0;;;;-0.16898347;0.9161302;0.14442064;;;;;;;;;;;;;;;
1250.0;1177.0;;;;-0.16937257;0.91645443;0.14415361;;;;;;;;;;;;;;;
1250.0;1177.0;;;;-0.16952898;0.9168626;0.14431001;;;;;;;;;;;;;;;
1250.0;1177.0;;;;-0.16957857;0.9167329;0.14490129;;;;;;;;;;;;;;;
1250.0;1177.0;;;;-0.16949846;0.91682446;0.14513017;;;;;;;;;;;;;;;
1250.0;1178.8;;;;;;;;;;;;;;;;;-4.9401836;-4.0093694;8.308664;;1070.9
1250.0;1178.8;;;;;;;;;;;;;;-0.5406049;-0.8496353;-0.069093905;;;;;1070.9
1250.0;1178.8;;;;;;;;;;;;;;;;;-4.795221;-3.6736658;8.156072;;1070.9
1250.0;1178.8;;;;;;;;;;;;;;-0.5417035;-0.8478652;-0.06689657;;;;;1070.9
1250.0;1178.8;;;;;;;;;;;;;;;;;-4.81811;-3.2807398;8.121738;;1080.6
1250.0;1178.8;;;;;;;;;;;;;;-0.5431684;-0.84987944;-0.06811731;;;;;1080.6
1250.0;1178.8;;;;;;;;;;;;;;;;;-4.844814;-2.994629;7.8852196;;1080.6
1250.0;1178.8;;;;;;;;;;;;;;-0.54628134;-0.8489639;-0.07184057;;;;;1080.6
1250.0;1178.8;;;;;;;;;;;;;;;;;-4.890591;-2.8572955;7.7288127;;1090.2
1250.0;1178.8;;;;;;;;;;;;;;-0.54341257;-0.8512223;-0.07556383;;;;;1090.2
1250.0;1178.8;;;;;;;;;;;;;;;;;-4.799036;-2.750481;7.553331;;1090.2
1250.0;1178.8;;;;;;;;;;;;;;-0.5435957;-0.8517716;-0.07824946;;;;;1090.2
1250.0;1178.5;90270;90299;13274;;;;;;;;;;;;;;;;;;
1251.0;1186.3;;;;;;;;;;;;;;;;;-4.711295;-2.5902586;7.354961;;1099.9
1251.0;1186.3;;;;;;;;;;;;;;-0.54054385;-0.8518326;-0.08239998;;;;;1099.9
1251.0;1186.3;;;;;;;;;;;;;;;;;-4.4099245;-2.418592;7.145146;;1099.9
1251.0;1186.3;;;;;;;;;;;;;;-0.5389569;-0.85055083;-0.08313242;;;;;1099.9
1251.0;1186.3;;;;;;;;;;;;;;;;;-4.100925;-2.3461106;6.7979984;;1109.6
1251.0;1186.3;;;;;;;;;;;;;;-0.5362713;-0.84707177;-0.08362072;;;;;1109.6
1251.0;1186.3;;;;;;;;;;;;;;;;;-3.9483323;-2.311777;6.576739;;1109.6
1251.0;1186.3;;;;;;;;;;;;;;-0.53584397;-0.84322643;-0.084353164;;;;;1109.6
1251.0;1186.3;;;;;;;;;;;;;;;;;-4.1848507;-2.25074;6.366924;;1119.3
1251.0;1186.3;;;;;;;;;;;;;;-0.53492844;-0.8401135;-0.08777124;;;;;1119.3
1251.0;1186.3;;;;;;;;;;;;;;;;;-4.6121097;-2.3880734;6.183813;;1119.3
1251.0;1186.3;;;;;;;;;;;;;;-0.5335246;-0.8390149;-0.0905179;;;;;1119.3
1251.0;1187.0;;;;-0.16998674;0.9169084;0.14519121;;;;;;;;;;;;;;;
1251.0;1187.0;;;;-0.17002107;0.9164201;0.14622499;;;;;;;;;;;;;;;
1251.0;1187.0;;;;-0.1700554;0.9159814;0.14693071;;;;;;;;;;;;;;;
1251.0;1187.0;;;;-0.17055894;0.9154321;0.14754106;;;;;;;;;;;;;;;
1251.0;1187.0;;;;-0.17063905;0.9144975;0.148098;;;;;;;;;;;;;;;
1251.0;1197.0;;;;-0.1708069;0.9136392;0.14892961;;;;;;;;;;;;;;;
1251.0;1197.0;;;;-0.17069627;0.9128305;0.14907457;;;;;;;;;;;;;;;
1251.0;1197.0;;;;-0.17116167;0.91206753;0.15003969;;;;;;;;;;;;;;;
1251.0;1197.0;;;;-0.17162706;0.9110414;0.14993288;;;;;;;;;;;;;;;
1251.0;1197.0;;;;-0.17177965;0.9103204;0.15034105;;;;;;;;;;;;;;;
1251.0;1198.5;106639;106679;13286;;;;;;;;;;;;;;;;;;
1308.0;1204.6;;;;;;;;;;;;;-18;;;;;;;;
1308.0;1204.6;;;;;;;;;;;;;7;;;;;;;;
1308.0;1204.6;;;;;;;;;;;;;12;;;;;;;;
1308.0;1204.6;;;;;;;;;;;;;-86;;;;;;;;
1308.0;1204.6;;;;;;;;;;;;;0;;;;;;;;
1308.0;1207.0;;;;-0.17169954;0.9098321;0.15029909;;;;;;;;;;;;;;;
1308.0;1207.0;;;;-0.17201997;0.90955365;0.1510277;;;;;;;;;;;;;;;
1308.0;1207.0;;;;-0.17266084;0.9093934;0.15068437;;;;;;;;;;;;;;;
1308.0;1207.0;;;;-0.17326356;0.9092866;0.15025331;;;;;;;;;;;;;;;
1308.0;1207.0;;;;-0.17390443;0.9094316;0.15081789;;;;;;;;;;;;;;;
1308.0;1216.9;;;;-0.17422487;0.90931714;0.15113069;;;;;;;;;;;;;;;
1308.0;1216.9;;;;-0.1750107;0.9100534;0.15171053;;;;;;;;;;;;;;;
1308.0;1216.9;;;;-0.17598726;0.9109155;0.15180208;;;;;;;;;;;;;;;
1308.0;1216.9;;;;-0.1770363;0.91181195;0.15168382;;;;;;;;;;;;;;;
1308.0;1216.9;;;;-0.17792512;0.9129487;0.15225984;;;;;;;;;;;;;;;
1308.0;1218.5;123045;123020;13296;;;;;;;;;;;;;;;;;;
1308.0;1227.1;;;;-0.1785431;0.9143411;0.15267183;;;;;;;;;;;;;;;
1308.0;1227.1;;;;-0.17959215;0.9157678;0.15392686;;;;;;;;;;;;;;;
1308.0;1227.1;;;;-0.18054964;0.91751873;0.15422441;;;;;;;;;;;;;;;
1308.0;1227.1;;;;-0.18148424;0.91921246;0.15421297;;;;;;;;;;;;;;;
1308.0;1227.1;;;;-0.18225862;0.9207307;0.15487291;;;;;;;;;;;;;;;
1310.0;1237.2;;;;-0.18330766;0.9224473;0.1551056;;;;;;;;;;;;;;;
1310.0;1237.2;;;;-0.18386842;0.9246141;0.15554048;;;;;;;;;;;;;;;
1310.0;1237.2;;;;-0.18458177;0.92593396;0.1559334;;;;;;;;;;;;;;;
1310.0;1237.2;;;;-0.18561937;0.9272653;0.15628053;;;;;;;;;;;;;;;
1310.0;1237.2;;;;-0.1863289;0.92844784;0.15671922;;;;;;;;;;;;;;;
1310.0;1238.7;139391;139413;13293;;;;;;;;;;;;;;;;;;
1310.0;1244.9;;;;;;;;;;;;;-172;;;;;;;;
1310.0;1244.9;;;;;;;;;;;;;-110;;;;;;;;
1310.0;1244.9;;;;;;;;;;;;;146;;;;;;;;
1310.0;1244.9;;;;;;;;;;;;;-919;;;;;;;;
1310.0;1244.9;;;;;;;;;;;;;434;;;;;;;;
1310.0;1246.6;;;;;;;;;;;;;;;;;-5.22248;-2.76574;6.1151466;;1128.9
1310.0;1246.6;;;;;;;;;;;;;;-0.5321207;-0.83870965;-0.09540086;;;;;1128.9
1310.0;1246.6;;;;;;;;;;;;;;;;;-5.649739;-3.2616658;6.069369;;1128.9
1310.0;1246.6;;;;;;;;;;;;;;-0.5305338;-0.8388928;-0.09820856;;;;;1128.9
1310.0;1246.6;;;;;;;;;;;;;;;;;-5.962554;-3.6965547;6.1151466;;1138.5
1310.0;1246.6;;;;;;;;;;;;;;-0.53077793;-0.8387707;-0.09674367;;;;;1138.5
1310.0;1246.6;;;;;;;;;;;;;;;;;-6.0121465;-4.0513325;6.126591;;1138.5
1310.0;1246.6;;;;;;;;;;;;;;-0.52986234;-0.83950317;-0.09350871;;;;;1138.5
1310.0;1246.6;;;;;;;;;;;;;;;;;-5.8290353;-4.119999;6.004517;;1148.0
1310.0;1246.6;;;;;;;;;;;;;;-0.53047276;-0.8409681;-0.08819849;;;;;1148.0
1310.0;1246.6;;;;;;;;;;;;;;;;;-5.3636284;-3.9445176;5.920591;;1148.0
1310.0;1246.6;;;;;;;;;;;;;;-0.5314493;-0.842555;-0.08282723;;;;;1148.0
1371.0;1247.4;;;;;;;;;;;;;;;;;-4.711295;-3.4066288;5.775628;;1157.7
1371.0;1247.4;;;;;;;;;;;;;;-0.5334025;-0.8468276;-0.07660146;;;;;1157.7
1371.0;1247.4;;;;;;;;;;;;;;;;;-3.8377025;-2.7085178;5.6230354;;1157.7
1371.0;1247.4;;;;;;;;;;;;;;-0.53822446;-0.849086;-0.07281716;;;;;1157.7
1371.0;1247.4;;;;;;;;;;;;;;;;;-3.1167028;-1.7967772;5.3216653;;1167.4
1371.0;1247.4;;;;;;;;;;;;;;-0.54371774;-0.84987944;-0.06769005;;;;;1167.4
1371.0;1247.4;;;;;;;;;;;;;;;;;-2.3689995;-0.92699975;5.0202947;;1167.4
1371.0;1247.4;;;;;;;;;;;;;;-0.5470748;-0.85219884;-0.065309614;;;;;1167.4
1371.0;1247.4;;;;;;;;;;;;;;;;;-1.4877774;-0.2784814;4.6617026;;1177.0
1371.0;1247.4;;;;;;;;;;;;;;-0.5492721;-0.8521378;-0.06268502;;;;;1177.0
1371.0;1247.4;;;;;;;;;;;;;;;;;-0.8316294;0.12207404;4.299295;;1177.0
1371.0;1247.4;;;;;;;;;;;;;;-0.5492111;-0.85097814;-0.063539535;;;;;1177.0
1371.0;1247.2;;;;-0.1872635;0.9297029;0.15734102;;;;;;;;;;;;;;;
1371.0;1247.2;;;;-0.18778232;0.93060315;0.15798952;;;;;;;;;;;;;;;
1371.0;1247.2;;;;-0.18836215;0.93107235;0.1582184;;;;;;;;;;;;;;;
1371.0;1247.2;;;;-0.18894961;0.93208325;0.15889741;;;;;;;;;;;;;;;
1371.0;1247.2;;;;-0.18961719;0.9326211;0.15903856;;;;;;;;;;;;;;;
1371.0;1257.2;;;;-0.18989184;0.93330777;0.15954973;;;;;;;;;;;;;;;
1371.0;1257.2;;;;-0.19051364;0.93366635;0.15966798;;;;;;;;;;;;;;;
1371.0;1257.2;;;;-0.19088748;0.93403256;0.16051485;;;;;;;;;;;;;;;
1371.0;1257.2;;;;-0.19094089;0.93450177;0.16098787;;;;;;;;;;;;;;;
1371.0;1257.2;;;;-0.19147113;0.9354249;0.16117097;;;;;;;;;;;;;;;
1371.0;1258.8;155807;155807;13303;;;;;;;;;;;;;;;;;;
1427.0;1267.3;;;;-0.19189456;0.93592083;0.16156007;;;;;;;;;;;;;;;
1427.0;1267.3;;;;-0.19187167;0.93639004;0.1619301;;;;;;;;;;;;;;;
1427.0;1267.3;;;;-0.19221881;0.9370576;0.16240312;;;;;;;;;;;;;;;
1427.0;1267.3;;;;-0.19222644;0.93776333;0.16257097;;;;;;;;;;;;;;;
1427.0;1267.3;;;;-0.19284442;0.93833935;0.162941;;;;;;;;;;;;;;;
1427.0;1277.4;;;;-0.19297794;0.9388658;0.1634369;;;;;;;;;;;;;;;
1427.0;1277.4;;;;-0.19296268;0.9398614;0.1640587;;;;;;;;;;;;;;;
1427.0;1277.4;;;;-0.19321445;0.940693;0.16469957;;;;;;;;;;;;;;;
1427.0;1277.4;;;;-0.19343188;0.94225323;0.16584016;;;;;;;;;;;;;;;
1427.0;1277.4;;;;-0.1937752;0.9436532;0.16633226;;;;;;;;;;;;;;;
1427.0;1279.1;172153;172204;13296;;;;;;;;;;;;;;;;;;
1427.0;1285.2;;;;;;;;;;;;;2968;;;;;;;;
1427.0;1285.2;;;;;;;;;;;;;-1437;;;;;;;;
1427.0;1285.2;;;;;;;;;;;;;-6458;;;;;;;;
1427.0;1285.2;;;;;;;;;;;;;4369;;;;;;;;
1427.0;1285.2;;;;;;;;;;;;;33209;;;;;;;;
1427.0;1287.5;;;;-0.19424823;0.94516766;0.16727449;;;;;;;;;;;;;;;
1427.0;1287.5;;;;-0.19462588;0.9465753;0.16730501;;;;;;;;;;;;;;;
1427.0;1287.5;;;;-0.1950722;0.94771206;0.16835786;;;;;;;;;;;;;;;
1427.0;1287.5;;;;-0.19508746;0.94947827;0.16901018;;;;;;;;;;;;;;;
1427.0;1287.5;;;;-0.19556811;0.9506227;0.16907503;;;;;;;;;;;;;;;
1429.0;1297.6;;;;-0.19566348;0.9519807;0.16951753;;;;;;;;;;;;;;;
1429.0;1297.6;;;;-0.19610217;0.95341504;0.16992952;;;;;;;;;;;;;;;
1429.0;1297.6;;;;-0.19647983;0.95445263;0.17014314;;;;;;;;;;;;;;;
1429.0;1297.6;;;;-0.19685748;0.9552423;0.17102052;;;;;;;;;;;;;;;
1429.0;1297.6;;;;-0.19683841;0.9559785;0.17133333;;;;;;;;;;;;;;;
1429.0;1299.3;188561;188621;13297;;;;;;;;;;;;;;;;;;
1429.0;1307.5;;;;;;;;;;;;;;;;;-0.94225895;0.5874813;3.9483323;;1186.6
1429.0;1307.5;;;;;;;;;;;;;;-0.5467086;-0.8529313;-0.06921598;;;;;1186.6
1429.0;1307.5;;;;;;;;;;;;;;;;;-1.6289254;1.1711478;3.6202583;;1186.6
1429.0;1307.5;;;;;;;;;;;;;;-0.5462203;-0.85830253;-0.07739494;;;;;1186.6
1429.0;1307.5;;;;;;;;;;;;;;;;;-2.3880734;1.678518;3.3417768;;1196.3
1429.0;1307.5;;;;;;;;;;;;;;-0.5478683;-0.8630024;-0.08874783;;;;;1196.3
1429.0;1307.5;;;;;;;;;;;;;;;;;-2.7809992;2.0523698;3.1281471;;1196.3
1429.0;1307.5;;;;;;;;;;;;;;-0.5484176;-0.86751914;-0.0954619;;;;;1196.3
1429.0;1307.5;;;;;;;;;;;;;;;;;-2.8916287;2.254555;2.887814;;1205.9
1429.0;1307.5;;;;;;;;;;;;;;-0.54988253;-0.87185276;-0.10034486;;;;;1205.9
1429.0;1307.5;;;;;;;;;;;;;;;;;-2.7085178;2.1820734;2.6589253;;1205.9
1429.0;1307.5;;;;;;;;;;;;;;-0.55079806;-0.8716086;-0.10187078;;;;;1205.9
1429.0;1307.6;;;;-0.1972504;0.95632184;0.1716652;;;;;;;;;;;;;;;
1429.0;1307.6;;;;-0.19707873;0.95697415;0.1723633;;;;;;;;;;;;;;;
1429.0;1307.6;;;;-0.19742206;0.9571878;0.17284013;;;;;;;;;;;;;;;
1429.0;1307.6;;;;-0.19748309;0.9571649;0.17369844;;;;;;;;;;;;;;;
1429.0;1307.6;;;;-0.19768909;0.9566957;0.17494203;;;;;;;;;;;;;;;
1430.0;1308.3;;;;;;;;;;;;;;;;;-2.5711844;2.029481;2.517777;;1215.5
1430.0;1308.3;;;;;;;;;;;;;;-0.54933316;-0.8709372;-0.09747612;;;;;1215.5
1430.0;1308.3;;;;;;;;;;;;;;;;;-2.4681845;1.7700735;2.1744437;;1215.5
1430.0;1308.3;;;;;;;;;;;;;;-0.54915005;-0.86867887;-0.09149449;;;;;1215.5
1430.0;1308.3;;;;;;;;;;;;;;;;;-2.4338512;1.2588885;1.8959624;;1225.0
1430.0;1308.3;;;;;;;;;;;;;;-0.54738;-0.8690451;-0.08398694;;;;;1225.0
1430.0;1308.3;;;;;;;;;;;;;;;;;-2.357555;0.6447035;1.6327403;;1225.0
1430.0;1308.3;;;;;;;;;;;;;;-0.5453047;-0.8669698;-0.07770012;;;;;1225.0
1430.0;1308.3;;;;;;;;;;;;;;;;;-2.3728142;0.045777764;1.4305551;;1234.7
1430.0;1308.3;;;;;;;;;;;;;;-0.5429853;-0.8678243;-0.07446516;;;;;1234.7
1430.0;1308.3;;;;;;;;;;;;;;;;;-2.2354808;-0.4768517;1.2703329;;1234.7
1430.0;1308.3;;;;;;;;;;;;;;-0.54268014;-0.8692892;-0.07275613;;;;;1234.7
1430.0;1314.4;;;;;;;;;;;;;;;;;-1.9531846;-0.92318493;1.1558886;;1244.4
1430.0;1314.4;;;;;;;;;;;;;;-0.54322946;-0.8683737;-0.07190161;;;;;1244.4
1430.0;1314.4;;;;;;;;;;;;;;;;;-1.6136662;-1.4267403;1.0872219;;1244.4
1430.0;1314.4;;;;;;;;;;;;;;-0.544023;-0.8697775;-0.06964324;;;;;1244.4
1430.0;1314.4;;;;;;;;;;;;;;;;;-1.1978515;-1.7357402;0.99185157;;1254.0
1430.0;1314.4;;;;;;;;;;;;;;-0.5456099;-0.8691061;-0.06836146;;;;;1254.0
1430.0;1314.4;;;;;;;;;;;;;;;;;-0.92318493;-1.903592;0.90029603;;1254.0
1430.0;1314.4;;;;;;;;;;;;;;-0.54597616;-0.8690451;-0.06872769;;;;;1254.0
1430.0;1314.4;;;;;;;;;;;;;;;;;-0.6828517;-1.9493698;0.77440715;;1263.6
1430.0;1314.4;;;;;;;;;;;;;;-0.54609823;-0.8699606;-0.06573687;;;;;1263.6
1430.0;1314.4;;;;;;;;;;;;;;;;;-0.4196295;-2.0409255;0.59892577;;1263.6
1430.0;1314.4;;;;;;;;;;;;;;-0.5462203;-0.87063205;-0.06537065;;;;;1263.6
1431.0;1317.3;;;;-0.19745257;0.9563409;0.17556764;;;;;;;;;;;;;;;
1431.0;1317.3;;;;-0.1973305;0.9558259;0.17660524;;;;;;;;;;;;;;;
1431.0;1317.3;;;;-0.19732669;0.9554597;0.17741014;;;;;;;;;;;;;;;
1431.0;1317.3;;;;-0.19747546;0.9552537;0.178154;;;;;;;;;;;;;;;
1431.0;1317.3;;;;-0.19700244;0.95476544;0.17890932;;;;;;;;;;;;;;;
1431.0;1319.1;204952;204927;13290;;;;;;;;;;;;;;;;;;
1431.0;1325.2;;;;;;;;;;;;;59718;;;;;;;;
1431.0;1325.2;;;;;;;;;;;;;63548;;;;;;;;
1431.0;1325.2;;;;;;;;;;;;;48459;;;;;;;;
1431.0;1325.2;;;;;;;;;;;;;33774;;;;;;;;
1431.0;1325.2;;;;;;;;;;;;;28806;;;;;;;;
1431.0;1327.3;;;;-0.19693378;0.9546548;0.17943956;;;;;;;;;;;;;;;
1431.0;1327.3;;;;-0.19687274;0.9540025;0.17993166;;;;;;;;;;;;;;;
1431.0;1327.3;;;;-0.19689563;0.95432675;0.18008424;;;;;;;;;;;;;;;
1431.0;1327.3;;;;-0.19683078;0.95432675;0.18087007;;;;;;;;;;;;;;;
1431.0;1327.3;;;;-0.19698718;0.9545747;0.18145372;;;;;;;;;;;;;;;
1431.0;1337.3;;;;-0.19677737;0.95484173;0.18154527;;;;;;;;;;;;;;;
1431.0;1337.3;;;;-0.19710162;0.9555932;0.18168642;;;;;;;;;;;;;;;
1431.0;1337.3;;;;-0.19742587;0.9559518;0.18200685;;;;;;;;;;;;;;;
1431.0;1337.3;;;;-0.19756702;0.9569932;0.18293001;;;;;;;;;;;;;;;
1431.0;1337.3;;;;-0.19753268;0.9577218;0.18343736;;;;;;;;;;;;;;;
1431.0;1339.1;221305;221341;13296;;;;;;;;;;;;;;;;;;
1432.0;1347.4;;;;-0.1975899;0.9583665;0.18313219;;;;;;;;;;;;;;;
1432.0;1347.4;;;;-0.196991;0.95946133;0.18391038;;;;;;;;;;;;;;;
1432.0;1347.4;;;;-0.19702914;0.960251;0.18485643;;;;;;;;;;;;;;;
1432.0;1347.4;;;;-0.19709781;0.9612161;0.18525697;;;;;;;;;;;;;;;
1432.0;1347.4;;;;-0.19689944;0.9621011;0.18616487;;;;;;;;;;;;;;;
1432.0;1357.5;;;;-0.19664386;0.96242154;0.18683626;;;;;;;;;;;;;;;
1432.0;1357.5;;;;-0.19612506;0.9633447;0.18727876;;;;;;;;;;;;;;;
1432.0;1357.5;;;;-0.19573596;0.96411526;0.18787768;;;;;;;;;;;;;;;
1432.0;1357.5;;;;-0.19538501;0.96437085;0.18846896;;;;;;;;;;;;;;;
1432.0;1357.5;;;;-0.19493487;0.96467984;0.1894913;;;;;;;;;;;;;;;
1432.0;1359.6;;;;;;;;;;;;;;;;;-0.24414808;-2.0638144;0.39674062;;1273.0
1432.0;1359.6;;;;;;;;;;;;;;-0.54554886;-0.87081516;-0.06427198;;;;;1273.0
1432.0;1359.6;;;;;;;;;;;;;;;;;-0.12207404;-2.2659993;0.110629596;;1273.0
1432.0;1359.6;;;;;;;;;;;;;;-0.5426191;-0.8708762;-0.065309614;;;;;1273.0
1432.0;1359.6;;;;;;;;;;;;;;;;;0.10299997;-2.4262216;-0.13351847;;1282.5
1432.0;1359.6;;;;;;;;;;;;;;-0.54121524;-0.872158;-0.066652425;;;;;1282.5
1432.0;1359.6;;;;;;;;;;;;;;;;;0.30518508;-2.4338512;-0.54933316;;1282.5
1432.0;1359.6;;;;;;;;;;;;;;-0.5371868;-0.8706931;-0.06701865;;;;;1282.5
1432.0;1359.6;;;;;;;;;;;;;;;;;0.6408887;-2.3422956;-0.9498886;;1292.2
1432.0;1359.6;;;;;;;;;;;;;;-0.53584397;-0.8687399;-0.06750695;;;;;1292.2
1432.0;1359.6;;;;;;;;;;;;;;;;;1.12537;-2.166814;-1.3389996;;1292.2
1432.0;1359.6;;;;;;;;;;;;;;-0.5370037;-0.8659932;-0.06616413;;;;;1292.2
1432.0;1359.4;237779;237668;13291;;;;;;;;;;;;;;;;;;
1433.0;1365.4;;;;;;;;;;;;;24973;;;;;;;;
1433.0;1365.4;;;;;;;;;;;;;18003;;;;;;;;
1433.0;1365.4;;;;;;;;;;;;;12755;;;;;;;;
1433.0;1365.4;;;;;;;;;;;;;8643;;;;;;;;
1433.0;1365.4;;;;;;;;;;;;;4550;;;;;;;;
1433.0;1367.5;;;;-0.19436648;0.9650308;0.19033054;;;;;;;;;;;;;;;
1433.0;1367.5;;;;-0.19347766;0.9653207;0.19084552;;;;;;;;;;;;;;;
1433.0;1367.5;;;;-0.19287112;0.96517193;0.19171908;;;;;;;;;;;;;;;
1433.0;1367.5;;;;-0.19238666;0.964985;0.19215396;;;;;;;;;;;;;;;
1433.0;1367.5;;;;-0.19204715;0.96445096;0.19268802;;;;;;;;;;;;;;;
1433.0;1375.0;;;;;;;;;;;;;;;;;1.6747032;-2.0599995;-1.6747032;;1301.8
1433.0;1375.0;;;;;;;;;;;;;;-0.5353557;-0.8629414;-0.064210944;;;;;1301.8
1433.0;1375.0;;;;;;;;;;;;;;;;;2.1744437;-1.8196661;-1.9608142;;1301.8
1433.0;1375.0;;;;;;;;;;;;;;-0.5354167;-0.85854673;-0.06366161;;;;;1301.8
1433.0;1375.0;;;;;;;;;;;;;;;;;2.517777;-1.5869625;-2.311777;;1311.4
1433.0;1375.0;;;;;;;;;;;;;;-0.53511155;-0.8552507;-0.06433302;;;;;1311.4
1433.0;1375.0;;;;;;;;;;;;;;;;;2.746666;-1.2970366;-2.5940733;;1311.4
1433.0;1375.0;;;;;;;;;;;;;;-0.53492844;-0.85280925;-0.06451613;;;;;1311.4
1433.0;1375.0;;;;;;;;;;;;;;;;;2.9526658;-1.0376294;-2.7390363;;1320.9
1433.0;1375.0;;;;;;;;;;;;;;-0.5346843;-0.8497574;-0.06317332;;;;;1320.9
1433.0;1375.0;;;;;;;;;;;;;;;;;3.0709252;-0.77440715;-2.9221473;;1320.9
1433.0;1375.0;;;;;;;;;;;;;;-0.53578293;-0.85116124;-0.06414991;;;;;1320.9
1490.0;1377.4;;;;-0.19145587;0.9644357;0.1931229;;;;;;;;;;;;;;;
1490.0;1377.4;;;;-0.19057086;0.9642335;0.19366077;;;;;;;;;;;;;;;
1490.0;1377.4;;;;-0.19044498;0.96403134;0.19375613;;;;;;;;;;;;;;;
1490.0;1377.4;;;;-0.18956378;0.9637681;0.19388202;;;;;;;;;;;;;;;
1490.0;1377.4;;;;-0.1888161;0.9631921;0.19345477;;;;;;;;;;;;;;;
1490.0;1379.3;254111;254062;13280;;;;;;;;;;;;;;;;;;
1490.0;1387.4;;;;-0.18838122;0.9626199;0.193203;;;;;;;;;;;;;;;
1490.0;1387.4;;;;-0.18755344;0.9625932;0.193409;;;;;;;;;;;;;;;
1490.0;1387.4;;;;-0.18774417;0.9620706;0.19358829;;;;;;;;;;;;;;;
1490.0;1387.4;;;;-0.18681337;0.9618989;0.19334415;;;;;;;;;;;;;;;
1490.0;1387.4;;;;-0.18621065;0.96149075;0.19348148;;;;;;;;;;;;;;;
1490.0;1397.2;;;;-0.18573381;0.96177304;0.19357303;;;;;;;;;;;;;;;
1490.0;1397.2;;;;-0.1850319;0.96191037;0.19344333;;;;;;;;;;;;;;;
1490.0;1397.2;;;;-0.18453218;0.96162426;0.19305423;;;;;;;;;;;;;;;
1490.0;1397.2;;;;-0.18405916;0.9618684;0.1932297;;;;;;;;;;;;;;;
1490.0;1397.2;;;;-0.18431856;0.96193326;0.1934891;;;;;;;;;;;;;;;
1490.0;1399.1;262143;262143;13288;;;;;;;;;;;;;;;;;;
1490.0;1405.2;;;;;;;;;;;;;1254;;;;;;;;
1490.0;1405.2;;;;;;;;;;;;;-1599;;;;;;;;
1490.0;1405.2;;;;;;;;;;;;;-3803;;;;;;;;
1490.0;1405.2;;;;;;;;;;;;;-5606;;;;;;;;
1490.0;1405.2;;;;;;;;;;;;;-7340;;;;;;;;
1495.0;1407.3;;;;-0.1838112;0.9622079;0.19406131;;;;;;;;;;;;;;;
1495.0;1407.3;;;;-0.183136;0.9623109;0.19435123;;;;;;;;;;;;;;;
1495.0;1407.3;;;;-0.18299104;0.9623071;0.19412234;;;;;;;;;;;;;;;
1495.0;1407.3;;;;-0.18272783;0.96296704;0.19493106;;;;;;;;;;;;;;;
1495.0;1407.3;;;;-0.18252183;0.9628793;0.19577411;;;;;;;;;;;;;;;
1495.0;1417.4;;;;-0.1824074;0.962803;0.19625476;;;;;;;;;;;;;;;
1495.0;1417.4;;;;-0.18200304;0.9631082;0.19684222;;;;;;;;;;;;;;;
1495.0;1417.4;;;;-0.18146898;0.9630662;0.19762042;;;;;;;;;;;;;;;
1495.0;1417.4;;;;-0.18096925;0.9630395;0.19887546;;;;;;;;;;;;;;;
1495.0;1417.4;;;;-0.18088152;0.96276104;0.19885257;;;;;;;;;;;;;;;
1495.0;1419.6;;;;;;;;;;;;;;;;;3.1281471;-0.43870357;-2.967925;;1330.6
1495.0;1419.6;;;;;;;;;;;;;;-0.5352336;-0.8525651;-0.06646931;;;;;1330.6
1495.0;1419.6;;;;;;;;;;;;;;;;;3.154851;-0.19074069;-3.032777;;1330.6
1495.0;1419.6;;;;;;;;;;;;;;-0.5387738;-0.8529313;-0.06732383;;;;;1330.6
1495.0;1419.6;;;;;;;;;;;;;;;;;3.2883694;-0.08774071;-3.1434064;;1340.3
1495.0;1419.6;;;;;;;;;;;;;;-0.5406659;-0.8551897;-0.06659139;;;;;1340.3
1495.0;1419.6;;;;;;;;;;;;;;;;;3.5248878;-0.0839259;-3.1624806;;1340.3
1495.0;1419.6;;;;;;;;;;;;;;-0.54121524;-0.85616624;-0.066530354;;;;;1340.3
1495.0;1419.6;;;;;;;;;;;;;;;;;3.807184;-0.18311106;-3.2311473;;1349.9
1495.0;1419.6;;;;;;;;;;;;;;-0.54219186;-0.85586107;-0.0634785;;;;;1349.9
1495.0;1419.6;;;;;;;;;;;;;;;;;4.116184;-0.3089999;-3.2654805;;1349.9
1495.0;1419.6;;;;;;;;;;;;;;-0.5420698;-0.85421306;-0.059450056;;;;;1349.9
1495.0;1419.4;262143;262143;13287;;;;;;;;;;;;;;;;;;
1544.0;1427.3;;;;-0.1802025;0.9629518;0.20031741;;;;;;;;;;;;;;;
1544.0;1427.3;;;;-0.18007661;0.9625741;0.20133212;;;;;;;;;;;;;;;
1544.0;1427.3;;;;-0.1802292;0.96204007;0.2017403;;;;;;;;;;;;;;;
1544.0;1427.3;;;;-0.18024065;0.9616548;0.20187762;;;;;;;;;;;;;;;
1544.0;1427.3;;;;-0.18017198;0.9606439;0.20156863;;;;;;;;;;;;;;;
1544.0;1434.6;;;;;;;;;;;;;;;;;4.467147;-0.3089999;-3.3455918;;1359.4
1544.0;1434.6;;;;;;;;;;;;;;-0.5431684;-0.8519547;-0.055177465;;;;;1359.4
1544.0;1434.6;;;;;;;;;;;;;;;;;4.7647023;-0.1678518;-3.4180732;;1359.4
1544.0;1434.6;;;;;;;;;;;;;;-0.5413373;-0.85152745;-0.05468917;;;;;1359.4
1544.0;1434.6;;;;;;;;;;;;;;;;;4.951628;-0.026703697;-3.521073;;1369.1
1544.0;1434.6;;;;;;;;;;;;;;-0.53962827;-0.8501236;-0.051698357;;;;;1369.1
1544.0;1434.6;;;;;;;;;;;;;;;;;5.1538134;0.28611103;-3.5744805;;1369.1
1544.0;1434.6;;;;;;;;;;;;;;-0.5418256;-0.8494522;-0.051637318;;;;;1369.1
1544.0;1434.6;;;;;;;;;;;;;;;;;5.603961;0.6179998;-3.627888;;1378.7
1544.0;1434.6;;;;;;;;;;;;;;-0.54084903;-0.8503677;-0.052186653;;;;;1378.7
1544.0;1434.6;;;;;;;;;;;;;;;;;6.004517;0.8735923;-3.7499619;;1378.7
1544.0;1434.6;;;;;;;;;;;;;;-0.5411542;-0.84951323;-0.054200873;;;;;1378.7
1544.0;1437.2;;;;-0.17904283;0.9594995;0.20185855;;;;;;;;;;;;;;;
1544.0;1437.2;;;;-0.17939378;0.9587823;0.20194247;;;;;;;;;;;;;;;
1544.0;1437.2;;;;-0.17979814;0.9573442;0.2011948;;;;;;;;;;;;;;;
1544.0;1437.2;;;;-0.18027498;0.95604336;0.2008324;;;;;;;;;;;;;;;
1544.0;1437.2;;;;-0.18069841;0.9542314;0.20002368;;;;;;;;;;;;;;;
1544.0;1439.3;262143;262143;13293;;;;;;;;;;;;;;;;;;
1548.0;1445.4;;;;;;;;;;;;;-8872;;;;;;;;
1548.0;1445.4;;;;;;;;;;;;;-10128;;;;;;;;
1548.0;1445.4;;;;;;;;;;;;;-11132;;;;;;;;
1548.0;1445.4;;;;;;;;;;;;;-12120;;;;;;;;
1548.0;1445.4;;;;;;;;;;;;;-13105;;;;;;;;
1548.0;1447.3;;;;-0.18104555;0.952736;0.19946674;;;;;;;;;;;;;;;
1548.0;1447.3;;;;-0.180851;0.95123684;0.19854358;;;;;;;;;;;;;;;
1548.0;1447.3;;;;-0.18179323;0.94983685;0.19829562;;;;;;;;;;;;;;;
1548.0;1447.3;;;;-0.18205644;0.9480287;0.19801715;;;;;;;;;;;;;;;
1548.0;1447.3;;;;-0.18232729;0.9473115;0.19746783;;;;;;;;;;;;;;;
1548.0;1457.3;;;;-0.18217088;0.9465295;0.1972008;;;;;;;;;;;;;;;
1548.0;1457.3;;;;-0.18249132;0.9449464;0.19750217;;;;;;;;;;;;;;;
1548.0;1457.3;;;;-0.18217088;0.94459164;0.19693759;;;;;;;;;;;;;;;
1548.0;1457.3;;;;-0.18201067;0.9438821;0.19776157;;;;;;;;;;;;;;;
1548.0;1457.3;;;;-0.18259431;0.9435922;0.19765094;;;;;;;;;;;;;;;
1548.0;1459.4;262143;262143;13277;;;;;;;;;;;;;;;;;;
1548.0;1467.4;;;;-0.1825905;0.9429208;0.19778064;;;;;;;;;;;;;;;
1548.0;1467.4;;;;-0.18291093;0.94285977;0.19812396;;;;;;;;;;;;;;;
1548.0;1467.4;;;;-0.18307115;0.9424592;0.19876865;;;;;;;;;;;;;;;
1548.0;1467.4;;;;-0.1834488;0.9421884;0.199482;;;;;;;;;;;;;;;
1548.0;1467.4;;;;-0.18331529;0.9421197;0.20000842;;;;;;;;;;;;;;;
1552.0;1477.5;;;;-0.18358614;0.9422456;0.20098498;;;;;;;;;;;;;;;
1552.0;1477.5;;;;-0.1837082;0.9423524;0.20200351;;;;;;;;;;;;;;;
1552.0;1477.5;;;;-0.18402864;0.9421655;0.20315555;;;;;;;;;;;;;;;
1552.0;1477.5;;;;-0.18461992;0.9419519;0.20393375;;;;;;;;;;;;;;;
1552.0;1477.5;;;;-0.18502046;0.94197476;0.2044144;;;;;;;;;;;;;;;
1552.0;1479.8;;;;;;;;;;;;;;;;;6.2944427;1.1520737;-3.7728508;;1388.3
1552.0;1479.8;;;;;;;;;;;;;;-0.5425581;-0.8483535;-0.05633717;;;;;1388.3
1552.0;1479.8;;;;;;;;;;;;;;;;;6.405072;1.4419996;-3.7614062;;1388.3
1552.0;1479.8;;;;;;;;;;;;;;-0.5434736;-0.8497574;-0.060060427;;;;;1388.3
1552.0;1479.8;;;;;;;;;;;;;;;;;6.286813;1.8158513;-3.7766654;;1397.9
1552.0;1479.8;;;;;;;;;;;;;;-0.5442671;-0.84756005;-0.06390576;;;;;1397.9
1552.0;1479.8;;;;;;;;;;;;;;;;;6.1761837;2.0638144;-3.7499619;;1397.9
1552.0;1479.8;;;;;;;;;;;;;;-0.5464034;-0.8503677;-0.06646931;;;;;1397.9
1552.0;1479.8;;;;;;;;;;;;;;;;;6.015961;2.1172216;-3.7232583;;1407.6
1552.0;1479.8;;;;;;;;;;;;;;-0.54829556;-0.84920806;-0.06750695;;;;;1407.6
1552.0;1479.8;;;;;;;;;;;;;;;;;5.901517;2.1095922;-3.5554063;;1407.6
1552.0;1479.8;;;;;;;;;;;;;;-0.5476241;-0.8483535;-0.067751095;;;;;1407.6
1552.0;1479.6;262143;262143;13285;;;;;;;;;;;;;;;;;;
1552.0;1485.6;;;;;;;;;;;;;-13902;;;;;;;;
1552.0;1485.6;;;;;;;;;;;;;-13650;;;;;;;;
1552.0;1485.6;;;;;;;;;;;;;-12451;;;;;;;;
1552.0;1485.6;;;;;;;;;;;;;-14763;;;;;;;;
1552.0;1485.6;;;;;;;;;;;;;-23706;;;;;;;;
1554.0;1487.5;;;;-0.18518831;0.9415742;0.20460513;;;;;;;;;;;;;;;
1554.0;1487.5;;;;-0.18603899;0.9405595;0.20502475;;;;;;;;;;;;;;;
1554.0;1487.5;;;;-0.18684389;0.9396745;0.2057648;;;;;;;;;;;;;;;
1554.0;1487.5;;;;-0.18719865;0.93867886;0.206337;;;;;;;;;;;;;;;
1554.0;1487.5;;;;-0.18839648;0.9377061;0.20655063;;;;;;;;;;;;;;;
1554.0;1494.9;;;;;;;;;;;;;;;;;5.7412944;1.8768883;-3.4524064;;1417.2
1554.0;1494.9;;;;;;;;;;;;;;-0.54847866;-0.8453017;-0.06610309;;;;;1417.2
1554.0;1494.9;;;;;;;;;;;;;;;;;5.3216653;1.7357402;-3.3455918;;1417.2
1554.0;1494.9;;;;;;;;;;;;;;-0.5467696;-0.8412122;-0.06591998;;;;;1417.2
1554.0;1494.9;;;;;;;;;;;;;;;;;4.696036;1.6136662;-3.2044435;;1426.9
1554.0;1494.9;;;;;;;;;;;;;;-0.54719687;-0.8398694;-0.06567583;;;;;1426.9
1554.0;1494.9;;;;;;;;;;;;;;;;;3.9864802;1.5030366;-3.0213325;;1426.9
1554.0;1494.9;;;;;;;;;;;;;;-0.5508591;-0.8390149;-0.06823939;;;;;1426.9
1554.0;1494.9;;;;;;;;;;;;;;;;;3.2883694;1.5106663;-2.8611102;;1436.5
1554.0;1494.9;;;;;;;;;;;;;;-0.54988253;-0.8407239;-0.0695822;;;;;1436.5
1554.0;1494.9;;;;;;;;;;;;;;;;;2.6131475;1.5717032;-2.6589253;;1436.5
1554.0;1494.9;;;;;;;;;;;;;;-0.55006564;-0.8409681;-0.07135227;;;;;1436.5
1554.0;1497.4;;;;-0.1888161;0.9368745;0.20706561;;;;;;;;;;;;;;;
1554.0;1497.4;;;;-0.18958667;0.9357568;0.20681003;;;;;;;;;;;;;;;
1554.0;1497.4;;;;-0.19015124;0.93538296;0.2067757;;;;;;;;;;;;;;;
1554.0;1497.4;;;;-0.1907349;0.9344636;0.20673755;;;;;;;;;;;;;;;
1554.0;1497.4;;;;-0.19132999;0.9338151;0.20695117;;;;;;;;;;;;;;;
1554.0;1499.6;262143;262143;13288;;;;;;;;;;;;;;;;;;
1603.0;1507.5;;;;-0.19187167;0.9333116;0.20672229;;;;;;;;;;;;;;;
1603.0;1507.5;;;;-0.19213107;0.93307126;0.20679858;;;;;;;;;;;;;;;
1603.0;1507.5;;;;-0.19306567;0.9325944;0.20691684;;;;;;;;;;;;;;;
1603.0;1507.5;;;;-0.19402316;0.9317857;0.20666888;;;;;;;;;;;;;;;
1603.0;1507.5;;;;-0.19476321;0.9318353;0.20603564;;;;;;;;;;;;;;;
1603.0;1517.5;;;;-0.19517902;0.9318048;0.20594409;;;;;;;;;;;;;;;
1603.0;1517.5;;;;-0.1958771;0.9314767;0.20610812;;;;;;;;;;;;;;;
1603.0;1517.5;;;;-0.19571689;0.9317895;0.20590213;;;;;;;;;;;;;;;
1603.0;1517.5;;;;-0.19659808;0.9317666;0.20612338;;;;;;;;;;;;;;;
1603.0;1517.5;;;;-0.19674686;0.9322854;0.20561603;;;;;;;;;;;;;;;
1603.0;1519.7;262143;262143;13280;;;;;;;;;;;;;;;;;;
1603.0;1525.8;;;;;;;;;;;;;-33393;;;;;;;;
1603.0;1525.8;;;;;;;;;;;;;-34514;;;;;;;;
1603.0;1525.8;;;;;;;;;;;;;-25874;;;;;;;;
1603.0;1525.8;;;;;;;;;;;;;-15917;;;;;;;;
1603.0;1525.8;;;;;;;;;;;;;-11993;;;;;;;;
1603.0;1527.6;;;;-0.19739154;0.93224347;0.20583346;;;;;;;;;;;;;;;
1603.0;1527.6;;;;-0.1973305;0.9323884;0.20607379;;;;;;;;;;;;;;;
1603.0;1527.6;;;;-0.19724277;0.93260586;0.20608905;;;;;;;;;;;;;;;
1603.0;1527.6;;;;-0.19757083;0.93215954;0.20569614;;;;;;;;;;;;;;;
1603.0;1527.6;;;;-0.19706348;0.9325868;0.20604709;;;;;;;;;;;;;;;
1605.0;1537.7;;;;-0.1968613;0.9325143;0.20627216;;;;;;;;;;;;;;;
1605.0;1537.7;;;;-0.1964722;0.9325906;0.20687106;;;;;;;;;;;;;;;
1605.0;1537.7;;;;-0.19650653;0.93244183;0.20753482;;;;;;;;;;;;;;;
1605.0;1537.7;;;;-0.19617465;0.93270886;0.20744327;;;;;;;;;;;;;;;
1605.0;1537.7;;;;-0.1956673;0.9332124;0.20753863;;;;;;;;;;;;;;;
1605.0;1539.9;262143;262143;13283;;;;;;;;;;;;;;;;;;
1605.0;1547.5;;;;;;;;;;;;;;;;;2.170629;1.5945921;-2.498703;;1446.0
1605.0;1547.5;;;;;;;;;;;;;;-0.54951626;-0.84310436;-0.07348857;;;;;1446.0
1605.0;1547.5;;;;;;;;;;;;;;;;;2.0142217;1.5449996;-2.3194067;;1446.0
1605.0;1547.5;;;;;;;;;;;;;;-0.5470748;-0.8451796;-0.07629628;;;;;1446.0
1605.0;1547.5;;;;;;;;;;;;;;;;;1.9493698;1.5984069;-2.1095922;;1455.7
1605.0;1547.5;;;;;;;;;;;;;;-0.5470748;-0.84432507;-0.075014494;;;;;1455.7
1605.0;1547.5;;;;;;;;;;;;;;;;;1.7662587;1.7471846;-1.9684439;;1455.7
1605.0;1547.5;;;;;;;;;;;;;;-0.54750204;-0.8445082;-0.07470931;;;;;1455.7
1605.0;1547.5;;;;;;;;;;;;;;;;;1.5907773;1.865444;-1.8158513;;1465.3
1605.0;1547.5;;;;;;;;;;;;;;-0.54701376;-0.8445082;-0.07312235;;;;;1465.3
1605.0;1547.5;;;;;;;;;;;;;;;;;1.4229255;1.9493698;-1.6518143;;1465.3
1605.0;1547.5;;;;;;;;;;;;;;-0.54396194;-0.84865874;-0.071108125;;;;;1465.3
1605.0;1547.5;;;;-0.19555667;0.93328106;0.20743945;;;;;;;;;;;;;;;
1605.0;1547.5;;;;-0.19505313;0.9338418;0.20804217;;;;;;;;;;;;;;;
1605.0;1547.5;;;;-0.19482043;0.93428814;0.20805362;;;;;;;;;;;;;;;
1605.0;1547.5;;;;-0.19422916;0.9348718;0.20782474;;;;;;;;;;;;;;;
1605.0;1547.5;;;;-0.19409183;0.9349061;0.2078934;;;;;;;;;;;;;;;
1608.0;1548.3;;;;;;;;;;;;;;;;;1.4496292;1.9493698;-1.5945921;;1475.0
1608.0;1548.3;;;;;;;;;;;;;;-0.5411542;-0.8526872;-0.068666644;;;;;1475.0
1608.0;1548.3;;;;;;;;;;;;;;;;;1.5449996;1.9341105;-1.575518;;1475.0
1608.0;1548.3;;;;;;;;;;;;;;-0.54268014;-0.85384685;-0.06451613;;;;;1475.0
1608.0;1548.3;;;;;;;;;;;;;;;;;1.5488143;1.8501847;-1.6022217;;1484.6
1608.0;1548.3;;;;;;;;;;;;;;-0.53889585;-0.85799736;-0.06286813;;;;;1484.6
1608.0;1548.3;;;;;;;;;;;;;;;;;1.6937773;1.6212958;-1.8082217;;1484.6
1608.0;1548.3;;;;;;;;;;;;;;-0.540788;-0.8598285;-0.05713065;;;;;1484.6
1608.0;1548.3;;;;;;;;;;;;;;;;;1.8196661;1.53737;-1.9341105;;1494.1
1608.0;1548.3;;;;;;;;;;;;;;-0.5420698;-0.85964537;-0.05200354;;;;;1494.1
1608.0;1548.3;;;;;;;;;;;;;;;;;1.8883327;1.373333;-2.128666;;1494.1
1608.0;1548.3;;;;;;;;;;;;;;-0.5404218;-0.8619037;-0.047853023;;;;;1494.1
1608.0;1557.4;;;;-0.19343951;0.9356309;0.20861438;;;;;;;;;;;;;;;
1608.0;1557.4;;;;-0.19311526;0.9361688;0.2087746;;;;;;;;;;;;;;;
1608.0;1557.4;;;;-0.19267657;0.9370729;0.2087746;;;;;;;;;;;;;;;
1608.0;1557.4;;;;-0.19244006;0.93790066;0.20911029;;;;;;;;;;;;;;;
1608.0;1557.4;;;;-0.19193652;0.9384881;0.20980838;;;;;;;;;;;;;;;
1608.0;1559.7;262143;262143;13282;;;;;;;;;;;;;;;;;;
1608.0;1565.8;;;;;;;;;;;;;-12837;;;;;;;;
1608.0;1565.8;;;;;;;;;;;;;-13352;;;;;;;;
1608.0;1565.8;;;;;;;;;;;;;-12424;;;;;;;;
1608.0;1565.8;;;;;;;;;;;;;-12112;;;;;;;;
1608.0;1565.8;;;;;;;;;;;;;-12319;;;;;;;;
1667.0;1567.5;;;;-0.19200519;0.93906033;0.20997241;;;;;;;;;;;;;;;
1667.0;1567.5;;;;-0.19184878;0.9398118;0.20973971;;;;;;;;;;;;;;;
1667.0;1567.5;;;;-0.19132617;0.94054043;0.20975879;;;;;;;;;;;;;;;
1667.0;1567.5;;;;-0.19090274;0.9410783;0.2096596;;;;;;;;;;;;;;;
1667.0;1567.5;;;;-0.19093707;0.94184506;0.20986179;;;;;;;;;;;;;;;
1667.0;1577.4;;;;-0.19086841;0.94238293;0.20969775;;;;;;;;;;;;;;;
1667.0;1577.4;;;;-0.19048694;0.94314206;0.2098923;;;;;;;;;;;;;;;
1667.0;1577.4;;;;-0.19048312;0.94410336;0.20959094;;;;;;;;;;;;;;;
1667.0;1577.4;;;;-0.19012836;0.944996;0.20951846;;;;;;;;;;;;;;;
1667.0;1577.4;;;;-0.19018939;0.9454881;0.20971683;;;;;;;;;;;;;;;
1667.0;1579.7;262143;262143;13279;;;;;;;;;;;;;;;;;;
1667.0;1587.5;;;;-0.18978122;0.9462129;0.20944598;;;;;;;;;;;;;;;
1667.0;1587.5;;;;-0.18956378;0.94715893;0.20941165;;;;;;;;;;;;;;;
1667.0;1587.5;;;;-0.18935779;0.94789517;0.20934299;;;;;;;;;;;;;;;
1667.0;1587.5;;;;-0.18909457;0.94864666;0.20933917;;;;;;;;;;;;;;;
1667.0;1587.5;;;;-0.18944171;0.94900906;0.2096062;;;;;;;;;;;;;;;
1667.0;1597.6;;;;-0.18905261;0.94991314;0.20962527;;;;;;;;;;;;;;;
1667.0;1597.6;;;;-0.1890488;0.9508058;0.2098923;;;;;;;;;;;;;;;
1667.0;1597.6;;;;-0.18869784;0.95146954;0.21009067;;;;;;;;;;;;;;;
1667.0;1597.6;;;;-0.18869022;0.9520074;0.20998386;;;;;;;;;;;;;;;
1667.0;1597.6;;;;-0.18874362;0.952633;0.21028522;;;;;;;;;;;;;;;
1670.0;1600.2;;;;;;;;;;;;;;;;;1.9569995;1.3466293;-2.4872584;;1503.7
1670.0;1600.2;;;;;;;;;;;;;;-0.54091007;-0.8633076;-0.044984285;;;;;1503.7
1670.0;1600.2;;;;;;;;;;;;;;;;;1.8768883;1.2359996;-2.6818142;;1503.7
1670.0;1600.2;;;;;;;;;;;;;;-0.5446333;-0.86196476;-0.041261025;;;;;1503.7
1670.0;1600.2;;;;;;;;;;;;;;;;;1.8349254;1.0757774;-2.9755547;;1513.3
1670.0;1600.2;;;;;;;;;;;;;;-0.54335153;-0.86239207;-0.037965026;;;;;1513.3
1670.0;1600.2;;;;;;;;;;;;;;;;;1.7891476;0.84688866;-3.154851;;1513.3
1670.0;1600.2;;;;;;;;;;;;;;-0.5412763;-0.8636128;-0.03564562;;;;;1513.3
1670.0;1600.2;;;;;;;;;;;;;;;;;1.7166661;0.7896664;-3.318888;;1522.9
1670.0;1600.2;;;;;;;;;;;;;;-0.5442061;-0.86123234;-0.035157323;;;;;1522.9
1670.0;1600.2;;;;;;;;;;;;;;;;;1.6212958;0.8545183;-3.379925;;1522.9
1670.0;1600.2;;;;;;;;;;;;;;-0.54304636;-0.8601947;-0.036133915;;;;;1522.9
1670.0;1600.0;262143;262143;13275;;;;;;;;;;;;;;;;;;
1670.0;1605.9;;;;;;;;;;;;;-12162;;;;;;;;
1670.0;1605.9;;;;;;;;;;;;;-12102;;;;;;;;
1670.0;1605.9;;;;;;;;;;;;;-12153;;;;;;;;
1670.0;1605.9;;;;;;;;;;;;;-12032;;;;;;;;
1670.0;1605.9;;;;;;;;;;;;;-11865;;;;;;;;
1672.0;1607.6;;;;;;;;;;;;;;;;;1.739555;0.86214787;-3.456221;;1532.4
1672.0;1607.6;;;;;;;;;;;;;;-0.5442061;-0.857387;-0.03607288;;;;;1532.4
1672.0;1607.6;;;;;;;;;;;;;;;;;1.7891476;0.96896267;-3.4142585;;1532.4
1672.0;1607.6;;;;;;;;;;;;;;-0.5438398;-0.8562273;-0.03607288;;;;;1532.4
1672.0;1607.6;;;;;;;;;;;;;;;;;1.9646292;1.0986663;-3.299814;;1542.1
1672.0;1607.6;;;;;;;;;;;;;;-0.5443892;-0.8535417;-0.03875851;;;;;1542.1
1672.0;1607.6;;;;;;;;;;;;;;;;;1.9837031;1.2741477;-3.131962;;1542.1
1672.0;1607.6;;;;;;;;;;;;;;-0.54628134;-0.85116124;-0.04174932;;;;;1542.1
1672.0;1607.6;;;;;;;;;;;;;;;;;2.1210363;1.2855922;-2.9755547;;1551.8
1672.0;1607.6;;;;;;;;;;;;;;-0.54750204;-0.8476211;-0.04510636;;;;;1551.8
1672.0;1607.6;;;;;;;;;;;;;;;;;2.2583697;1.4038514;-2.784814;;1551.8
1672.0;1607.6;;;;;;;;;;;;;;-0.5513474;-0.8455458;-0.04815821;;;;;1551.8
1672.0;1607.4;;;;-0.18875888;0.9531404;0.21039584;;;;;;;;;;;;;;;
1672.0;1607.4;;;;-0.18906787;0.9540063;0.21105579;;;;;;;;;;;;;;;
1672.0;1607.4;;;;-0.18877032;0.95476544;0.211319;;;;;;;;;;;;;;;
1672.0;1607.4;;;;-0.18898395;0.9554292;0.21097568;;;;;;;;;;;;;;;
1672.0;1607.4;;;;-0.18928531;0.95624554;0.21086505;;;;;;;;;;;;;;;
1672.0;1617.3;;;;-0.1892319;0.9568635;0.21139148;;;;;;;;;;;;;;;
1672.0;1617.3;;;;-0.1895409;0.9577447;0.21157077;;;;;;;;;;;;;;;
1672.0;1617.3;;;;-0.18982318;0.95861065;0.21149448;;;;;;;;;;;;;;;
1672.0;1617.3;;;;-0.19007114;0.95920193;0.21180728;;;;;;;;;;;;;;;
1672.0;1617.3;;;;-0.19035342;0.9600564;0.21221927;;;;;;;;;;;;;;;
1672.0;1619.8;262143;262143;13286;;;;;;;;;;;;;;;;;;
1726.0;1627.3;;;;-0.19100955;0.9607278;0.21213153;;;;;;;;;;;;;;;
1726.0;1627.3;;;;-0.19093707;0.9616357;0.21284488;;;;;;;;;;;;;;;
1726.0;1627.3;;;;-0.1916695;0.9625741;0.21242145;;;;;;;;;;;;;;;
1726.0;1627.3;;;;-0.19206622;0.9631082;0.21222308;;;;;;;;;;;;;;;
1726.0;1627.3;;;;-0.19258884;0.96398175;0.21277621;;;;;;;;;;;;;;;
1726.0;1637.3;;;;-0.19306186;0.96455395;0.2124367;;;;;;;;;;;;;;;
1726.0;1637.3;;;;-0.19309238;0.96499646;0.21255115;;;;;;;;;;;;;;;
1726.0;1637.3;;;;-0.19390872;0.9655191;0.21252826;;;;;;;;;;;;;;;
1726.0;1637.3;;;;-0.19411853;0.9662553;0.21245196;;;;;;;;;;;;;;;
1726.0;1637.3;;;;-0.19430164;0.96652997;0.21301654;;;;;;;;;;;;;;;
1726.0;1639.8;262143;262143;13285;;;;;;;;;;;;;;;;;;
1726.0;1645.9;;;;;;;;;;;;;-11787;;;;;;;;
1726.0;1645.9;;;;;;;;;;;;;-11890;;;;;;;;
1726.0;1645.9;;;;;;;;;;;;;-12001;;;;;;;;
1726.0;1645.9;;;;;;;;;;;;;-11906;;;;;;;;
1726.0;1645.9;;;;;;;;;;;;;-11677;;;;;;;;
1726.0;1647.4;;;;-0.19469836;0.9670335;0.21298984;;;;;;;;;;;;;;;
1726.0;1647.4;;;;-0.19526294;0.9675752;0.21274951;;;;;;;;;;;;;;;
1726.0;1647.4;;;;-0.19563678;0.96792614;0.21312335;;;;;;;;;;;;;;;
1726.0;1647.4;;;;-0.19601062;0.9681207;0.21347812;;;;;;;;;;;;;;;
1726.0;1647.4;;;;-0.1961098;0.9680482;0.21332934;;;;;;;;;;;;;;;
1730.0;1657.5;;;;-0.19609836;0.9678041;0.21320346;;;;;;;;;;;;;;;
1730.0;1657.5;;;;-0.19577792;0.9675714;0.21358493;;;;;;;;;;;;;;;
1730.0;1657.5;;;;-0.19622424;0.96754086;0.21362308;;;;;;;;;;;;;;;
1730.0;1657.5;;;;-0.19607547;0.96743023;0.21418002;;;;;;;;;;;;;;;
1730.0;1657.5;;;;-0.19638827;0.9670335;0.21470264;;;;;;;;;;;;;;;
1730.0;1660.6;;;;;;;;;;;;;;;;;2.3270364;1.617481;-2.6779993;;1561.5
1730.0;1660.6;;;;;;;;;;;;;;-0.5519578;-0.84444714;-0.053163245;;;;;1561.5
1730.0;1660.6;;;;;;;;;;;;;;;;;2.2049623;1.8158513;-2.517777;;1561.5
1730.0;1660.6;;;;;;;;;;;;;;-0.5541551;-0.8427992;-0.05652028;;;;;1561.5
1730.0;1660.6;;;;;;;;;;;;;;;;;2.2240365;1.9226661;-2.3918884;;1571.0
1730.0;1660.6;;;;;;;;;;;;;;-0.5583056;-0.84359264;-0.059144873;;;;;1571.0
1730.0;1660.6;;;;;;;;;;;;;;;;;2.1324809;2.0867033;-2.277444;;1571.0
1730.0;1660.6;;;;;;;;;;;;;;-0.55964845;-0.84627825;-0.06146428;;;;;1571.0
1730.0;1660.6;;;;;;;;;;;;;;;;;2.0256662;2.3041475;-2.1095922;;1580.7
1730.0;1660.6;;;;;;;;;;;;;;-0.56501967;-0.8465834;-0.06848354;;;;;1580.7
1730.0;1660.6;;;;;;;;;;;;;;;;;1.9264809;2.6322215;-1.9684439;;1580.7
1730.0;1660.6;;;;;;;;;;;;;;-0.5658132;-0.8484756;-0.07104709;;;;;1580.7
1730.0;1660.1;262143;262143;13279;;;;;;;;;;;;;;;;;;
1733.0;1667.7;;;;;;;;;;;;;;;;;1.8311106;2.7352216;-1.8921475;;1590.4
1733.0;1667.7;;;;;;;;;;;;;;-0.56825465;-0.8498184;-0.07061983;;;;;1590.4
1733.0;1667.7;;;;;;;;;;;;;;;;;1.7433698;2.6093326;-1.8845179;;1590.4
1733.0;1667.7;;;;;;;;;;;;;;-0.57094026;-0.8503067;-0.06714072;;;;;1590.4
1733.0;1667.7;;;;;;;;;;;;;;;;;1.5678884;2.3499253;-1.8349254;;1600.1
1733.0;1667.7;;;;;;;;;;;;;;-0.5717948;-0.85006255;-0.06524857;;;;;1600.1
1733.0;1667.7;;;;;;;;;;;;;;;;;1.392407;1.9150364;-1.7548143;;1600.1
1733.0;1667.7;;;;;;;;;;;;;;-0.56575215;-0.85189366;-0.06311228;;;;;1600.1
1733.0;1667.7;;;;;;;;;;;;;;;;;1.1482589;1.4458144;-1.739555;;1609.6
1733.0;1667.7;;;;;;;;;;;;;;-0.5670339;-0.8509171;-0.059877317;;;;;1609.6
1733.0;1667.7;;;;;;;;;;;;;;;;;0.7438887;0.84688866;-1.6823329;;1609.6
1733.0;1667.7;;;;;;;;;;;;;;-0.5670339;-0.8510392;-0.056459244;;;;;1609.6
1733.0;1667.5;;;;-0.19661334;0.9669839;0.21485904;;;;;;;;;;;;;;;
1733.0;1667.5;;;;-0.19657138;0.96717846;0.21504977;;;;;;;;;;;;;;;
1733.0;1667.5;;;;-0.19667438;0.9669229;0.21511081;;;;;;;;;;;;;;;
1733.0;1667.5;;;;-0.19633868;0.9669267;0.21530154;;;;;;;;;;;;;;;
1733.0;1667.5;;;;-0.19601443;0.9668695;0.21546176;;;;;;;;;;;;;;;
1733.0;1677.3;;;;-0.19609073;0.9663011;0.21519092;;;;;;;;;;;;;;;
1733.0;1677.3;;;;-0.19609836;0.96629727;0.21493533;;;;;;;;;;;;;;;
1733.0;1677.3;;;;-0.19614795;0.9661714;0.2148247;;;;;;;;;;;;;;;
1733.0;1677.3;;;;-0.19567111;0.96575177;0.21428302;;;;;;;;;;;;;;;
1733.0;1677.3;;;;-0.19576266;0.9651605;0.21377948;;;;;;;;;;;;;;;
1733.0;1680.0;262143;262143;13282;;;;;;;;;;;;;;;;;;
1786.0;1686.0;;;;;;;;;;;;;-11433;;;;;;;;
1786.0;1686.0;;;;;;;;;;;;;-11258;;;;;;;;
1786.0;1686.0;;;;;;;;;;;;;-11135;;;;;;;;
1786.0;1686.0;;;;;;;;;;;;;-10968;;;;;;;;
1786.0;1686.0;;;;;;;;;;;;;-10704;;;;;;;;
1786.0;1687.4;;;;-0.1959;0.9649011;0.21358493;;;;;;;;;;;;;;;
1786.0;1687.4;;;;-0.19597629;0.96431744;0.21311954;;;;;;;;;;;;;;;
1786.0;1687.4;;;;-0.19548419;0.9636766;0.21254352;;;;;;;;;;;;;;;
1786.0;1687.4;;;;-0.1958504;0.96307385;0.21170428;;;;;;;;;;;;;;;
1786.0;1687.4;;;;-0.19586948;0.96201336;0.2110863;;;;;;;;;;;;;;;
1786.0;1697.4;;;;-0.19598773;0.9610826;0.2106171;;;;;;;;;;;;;;;
1786.0;1697.4;;;;-0.19646457;0.96027386;0.21032336;;;;;;;;;;;;;;;
1786.0;1697.4;;;;-0.1961861;0.9595758;0.21006778;;;;;;;;;;;;;;;
1786.0;1697.4;;;;-0.19619754;0.9585763;0.20929721;;;;;;;;;;;;;;;
1786.0;1697.4;;;;-0.19633868;0.95759976;0.2084122;;;;;;;;;;;;;;;
1786.0;1700.1;262143;262143;13282;;;;;;;;;;;;;;;;;;
1786.0;1707.5;;;;-0.1962395;0.95697033;0.20782474;;;;;;;;;;;;;;;
1786.0;1707.5;;;;-0.19625476;0.95658505;0.20775226;;;;;;;;;;;;;;;
1786.0;1707.5;;;;-0.19590381;0.9560472;0.20696643;;;;;;;;;;;;;;;
1786.0;1707.5;;;;-0.19591144;0.9552995;0.20653155;;;;;;;;;;;;;;;
1786.0;1707.5;;;;-0.19614032;0.9548112;0.20646289;;;;;;;;;;;;;;;
1789.0;1717.6;;;;-0.19602588;0.9538995;0.20595935;;;;;;;;;;;;;;;
1789.0;1717.6;;;;-0.19623569;0.9535676;0.2059212;;;;;;;;;;;;;;;
1789.0;1717.6;;;;-0.19636157;0.95261395;0.20556644;;;;;;;;;;;;;;;
1789.0;1717.6;;;;-0.19627765;0.9521142;0.20479205;;;;;;;;;;;;;;;
1789.0;1717.6;;;;-0.19617465;0.9515687;0.2051163;;;;;;;;;;;;;;;
1789.0;1720.3;262143;262143;13280;;;;;;;;;;;;;;;;;;
1789.0;1726.3;;;;;;;;;;;;;-10219;;;;;;;;
1789.0;1726.3;;;;;;;;;;;;;-9439;;;;;;;;
1789.0;1726.3;;;;;;;;;;;;;-8405;;;;;;;;
1789.0;1726.3;;;;;;;;;;;;;-7264;;;;;;;;
1789.0;1726.3;;;;;;;;;;;;;-6207;;;;;;;;
1789.0;1727.7;;;;-0.19611362;0.9505769;0.2043114;;;;;;;;;;;;;;;
1789.0;1727.7;;;;-0.19602206;0.95009243;0.20449832;;;;;;;;;;;;;;;
1789.0;1727.7;;;;-0.19617084;0.94919217;0.20454028;;;;;;;;;;;;;;;
1789.0;1727.7;;;;-0.1956177;0.94833386;0.20449069;;;;;;;;;;;;;;;
1789.0;1727.7;;;;-0.19523242;0.94755566;0.20378116;;;;;;;;;;;;;;;
1793.0;1735.6;;;;;;;;;;;;;;;;;0.3929258;0.27466658;-1.7281106;;1619.3
1793.0;1735.6;;;;;;;;;;;;;;-0.56428725;-0.85152745;-0.05633717;;;;;1619.3
1793.0;1735.6;;;;;;;;;;;;;;;;;-0.034333322;-0.28992584;-1.6975921;;1619.3
1793.0;1735.6;;;;;;;;;;;;;;-0.565447;-0.8516495;-0.05468917;;;;;1619.3
1793.0;1735.6;;;;;;;;;;;;;;;;;-0.44251838;-0.7667776;-1.6022217;;1628.9
1793.0;1735.6;;;;;;;;;;;;;;-0.5632496;-0.85280925;-0.054811243;;;;;1628.9
1793.0;1735.6;;;;;;;;;;;;;;;;;-0.75914794;-1.1215552;-1.5297403;;1628.9
1793.0;1735.6;;;;;;;;;;;;;;-0.56386;-0.8517716;-0.05346843;;;;;1628.9
1793.0;1735.6;;;;;;;;;;;;;;;;;-1.0071108;-1.3657033;-1.4000366;;1638.6
1793.0;1735.6;;;;;;;;;;;;;;-0.5607471;-0.85421306;-0.051942505;;;;;1638.6
1793.0;1735.6;;;;;;;;;;;;;;;;;-1.1635182;-1.5106663;-1.3046663;;1638.6
1793.0;1735.6;;;;;;;;;;;;;;-0.5583056;-0.85439616;-0.052369762;;;;;1638.6
1793.0;1736.3;;;;;;;;;;;;;;;;;-1.4038514;-1.6556292;-1.2054812;;1648.3
1793.0;1736.3;;;;;;;;;;;;;;-0.55800045;-0.8544572;-0.05182043;;;;;1648.3
1793.0;1736.3;;;;;;;;;;;;;;;;;-1.6556292;-1.6365551;-1.0261849;;1648.3
1793.0;1736.3;;;;;;;;;;;;;;-0.5597095;-0.85439616;-0.051881466;;;;;1648.3
1793.0;1736.3;;;;;;;;;;;;;;;;;-1.8539995;-1.6899625;-0.8659627;;1657.9
1793.0;1736.3;;;;;;;;;;;;;;-0.5582446;-0.85531175;-0.0524308;;;;;1657.9
1793.0;1736.3;;;;;;;;;;;;;;;;;-1.9569995;-1.8005921;-0.7286294;;1657.9
1793.0;1736.3;;;;;;;;;;;;;;-0.55586416;-0.855739;-0.05224769;;;;;1657.9
1793.0;1736.3;;;;;;;;;;;;;;;;;-1.9417402;-1.9188513;-0.614185;;1667.5
1793.0;1736.3;;;;;;;;;;;;;;-0.5544603;-0.85586107;-0.05224769;;;;;1667.5
1793.0;1736.3;;;;;;;;;;;;;;;;;-1.8845179;-2.0447402;-0.51118505;;1667.5
1793.0;1736.3;;;;;;;;;;;;;;-0.5532395;-0.8559221;-0.050965913;;;;;1667.5
1845.0;1737.4;;;;;;;;;;0.3662221;17.521439;-2.3308513;;;;;;;;;
1845.0;1737.4;;;;;;;0.14496292;-0.84200567;0.16937773;;;;;;;;;;;;
1845.0;1737.4;;;;;;;;;;8.869442;34.779655;11.589404;;;;;;;;;
1845.0;1737.4;;;;;;;0.16223639;-0.94479203;0.18823817;;;;;;;;;;;;
1845.0;1737.4;;;;-0.19500735;0.9468118;0.20403674;;;;;;;;;;;;;;;
1845.0;1737.4;;;;-0.19480518;0.9460336;0.204052;;;;;;;;;;;;;;;
1845.0;1737.4;;;;-0.19449618;0.9448892;0.20412067;;;;;;;;;;;;;;;
1845.0;1737.4;;;;-0.19445041;0.94423306;0.20381168;;;;;;;;;;;;;;;
1845.0;1737.4;;;;-0.19445041;0.94366086;0.20328906;;;;;;;;;;;;;;;
1845.0;1740.2;262143;262143;13277;;;;;;;;;;;;;;;;;;
1845.0;1747.0;;;;;;;;;;1.9226661;6.4203315;6.195257;;;;;;;;;
1845.0;1747.0;;;;;;;0.16083254;-0.943144;0.18805505;;;;;;;;;;;;
1845.0;1747.0;;;;;;;;;;6.7026277;20.35203;6.653035;;;;;;;;;
1845.0;1747.0;;;;;;;0.15796381;-0.941496;0.18817712;;;;;;;;;;;;
1845.0;1747.4;;;;-0.19459537;0.94331753;0.20296481;;;;;;;;;;;;;;;
1845.0;1747.4;;;;-0.19466022;0.9428903;0.20217898;;;;;;;;;;;;;;;
1845.0;1747.4;;;;-0.19456866;0.9423028;0.2022362;;;;;;;;;;;;;;;
1845.0;1747.4;;;;-0.19500354;0.94179165;0.20211414;;;;;;;;;;;;;;;
1845.0;1747.4;;;;-0.19505313;0.9413682;0.20175174;;;;;;;;;;;;;;;
1845.0;1756.2;;;;;;;;;;7.5571456;23.613697;5.649739;;;;;;;;;
1845.0;1756.2;;;;;;;0.15790276;-0.94088566;0.18762779;;;;;;;;;;;;
1845.0;1756.2;;;;;;;;;;3.0785549;-9.632405;-15.945921;;;;;;;;;
1845.0;1756.2;;;;;;;0.15778069;-0.93905455;0.18884854;;;;;;;;;;;;
1847.0;1757.2;;;;-0.19572452;0.94087994;0.20168689;;;;;;;;;;;;;;;
1847.0;1757.2;;;;-0.19560626;0.9408952;0.20153812;;;;;;;;;;;;;;;
1847.0;1757.2;;;;-0.19567874;0.9403688;0.20092395;;;;;;;;;;;;;;;
1847.0;1757.2;;;;-0.19594958;0.9399797;0.20048907;;;;;;;;;;;;;;;
1847.0;1757.2;;;;-0.19592288;0.93991864;0.20049289;;;;;;;;;;;;;;;
1847.0;1760.0;262143;262143;13281;;;;;;;;;;;;;;;;;;
1847.0;1765.8;;;;;;;;;;3.3303325;-8.404035;-17.311625;;;;;;;;;
1847.0;1765.8;;;;;;;0.15637684;-0.93722343;0.18964201;;;;;;;;;;;;
1847.0;1765.8;;;;;;;;;;3.5782952;-7.065035;-18.387402;;;;;;;;;
1847.0;1765.8;;;;;;;0.1556444;-0.9391766;0.18982513;;;;;;;;;;;;
1847.0;1766.0;;;;;;;;;;;;;-5382;;;;;;;;
1847.0;1766.0;;;;;;;;;;;;;-4879;;;;;;;;
1847.0;1766.0;;;;;;;;;;;;;-4626;;;;;;;;
1847.0;1766.0;;;;;;;;;;;;;-4484;;;;;;;;
1847.0;1766.0;;;;;;;;;;;;;-4290;;;;;;;;
1847.0;1767.3;;;;-0.1958504;0.9397546;0.2002373;;;;;;;;;;;;;;;
1847.0;1767.3;;;;-0.19539264;0.9391595;0.19924548;;;;;;;;;;;;;;;
1847.0;1767.3;;;;-0.19504169;0.9389688;0.19884494;;;;;;;;;;;;;;;
1847.0;1767.3;;;;-0.19453815;0.9386636;0.19883731;;;;;;;;;;;;;;;
1847.0;1767.3;;;;-0.19473651;0.9380609;0.19881824;;;;;;;;;;;;;;;
1847.0;1775.5;;;;;;;;;;3.1472213;1.6212958;-13.233589;;;;;;;;;
1847.0;1775.5;;;;;;;0.15478988;-0.93990904;0.19122899;;;;;;;;;;;;
1847.0;1775.5;;;;;;;;;;2.498703;9.632405;-6.4622946;;;;;;;;;
1847.0;1775.5;;;;;;;0.15375225;-0.9422895;0.19165625;;;;;;;;;;;;
1850.0;1777.4;;;;-0.19375232;0.9376451;0.19845203;;;;;;;;;;;;;;;
1850.0;1777.4;;;;-0.193203;0.9370462;0.19763568;;;;;;;;;;;;;;;
1850.0;1777.4;;;;-0.19250873;0.9364282;0.19765857;;;;;;;;;;;;;;;
1850.0;1777.4;;;;-0.1917496;0.9360086;0.19719318;;;;;;;;;;;;;;;
1850.0;1777.4;;;;-0.19117358;0.9356195;0.19702151;;;;;;;;;;;;;;;
1850.0;1780.9;;;;;;;;;;;;;;;;;-1.7738883;-2.0485551;-0.45396283;;1677.2
1850.0;1780.9;;;;;;;;;;;;;;-0.5543382;-0.8539079;-0.04998932;;;;;1677.2
1850.0;1780.9;;;;;;;;;;;;;;;;;-1.7509995;-2.090518;-0.45396283;;1677.2
1850.0;1780.9;;;;;;;;;;;;;;-0.5521409;-0.85402995;-0.047975097;;;;;1677.2
1850.0;1780.9;;;;;;;;;;;;;;;;;-1.8005921;-1.945555;-0.40055543;;1686.8
1850.0;1780.9;;;;;;;;;;;;;;-0.55024874;-0.85335857;-0.049684133;;;;;1686.8
1850.0;1780.9;;;;;;;;;;;;;;;;;-1.8349254;-1.8044069;-0.35477766;;1686.8
1850.0;1780.9;;;;;;;;;;;;;;-0.54731894;-0.8550066;-0.049684133;;;;;1686.8
1850.0;1780.9;;;;;;;;;;;;;;;;;-1.8158513;-1.495407;-0.3318888;;1696.4
1850.0;1780.9;;;;;;;;;;;;;;-0.54683065;-0.855739;-0.049745172;;;;;1696.4
1850.0;1780.9;;;;;;;;;;;;;;;;;-1.7738883;-1.2398144;-0.31662953;;1696.4
1850.0;1780.9;;;;;;;;;;;;;;-0.5487228;-0.8562883;-0.050294504;;;;;1696.4
1850.0;1780.3;262143;262143;13275;;;;;;;;;;;;;;;;;;
1853.0;1781.6;;;;;;;;;;;;;;;;;-1.7090366;-1.0109257;-0.3089999;;1706.0
1853.0;1781.6;;;;;;;;;;;;;;-0.54738;-0.85580003;-0.05017243;;;;;1706.0
1853.0;1781.6;;;;;;;;;;;;;;;;;-1.6327403;-0.87740713;-0.22888882;;1706.0
1853.0;1781.6;;;;;;;;;;;;;;-0.54731894;-0.85616624;-0.04998932;;;;;1706.0
1853.0;1781.6;;;;;;;;;;;;;;;;;-1.5984069;-0.79348123;-0.18311106;;1715.7
1853.0;1781.6;;;;;;;;;;;;;;-0.54628134;-0.8551897;-0.0474868;;;;;1715.7
1853.0;1781.6;;;;;;;;;;;;;;;;;-1.6136662;-0.6179998;-0.12207404;;1715.7
1853.0;1781.6;;;;;;;;;;;;;;-0.5463424;-0.854152;-0.049867246;;;;;1715.7
1853.0;1781.6;;;;;;;;;;;;;;;;;-1.8044069;-0.42725915;-0.095370345;;1725.4
1853.0;1781.6;;;;;;;;;;;;;;-0.5451216;-0.85402995;-0.048890654;;;;;1725.4
1853.0;1781.6;;;;;;;;;;;;;;;;;-2.006592;-0.25559253;0.019074067;;1725.4
1853.0;1781.6;;;;;;;;;;;;;;-0.54487747;-0.854091;-0.05145421;;;;;1725.4
1853.0;1784.9;;;;;;;;;;2.1629994;9.102145;-5.916776;;;;;;;;;
1853.0;1784.9;;;;;;;0.15411848;-0.9443648;0.19269387;;;;;;;;;;;;
1853.0;1784.9;;;;;;;;;;1.7586291;8.529923;-5.4246655;;;;;;;;;
1853.0;1784.9;;;;;;;0.15289773;-0.94497514;0.1944029;;;;;;;;;;;;
1853.0;1787.4;;;;-0.19033435;0.93502057;0.19696811;;;;;;;;;;;;;;;
1853.0;1787.4;;;;-0.18979648;0.9344293;0.19604877;;;;;;;;;;;;;;;
1853.0;1787.4;;;;-0.18909076;0.9340097;0.19583896;;;;;;;;;;;;;;;
1853.0;1787.4;;;;-0.1885033;0.9337388;0.19565585;;;;;;;;;;;;;;;
1853.0;1787.4;;;;-0.18776706;0.9333955;0.19522479;;;;;;;;;;;;;;;
1853.0;1794.5;;;;;;;;;;1.4877774;7.9081087;-4.951628;;;;;;;;;
1853.0;1794.5;;;;;;;0.1539964;-0.9432661;0.19495223;;;;;;;;;;;;
1853.0;1794.5;;;;;;;;;;1.1406293;7.3435163;-4.5854063;;;;;;;;;
1853.0;1794.5;;;;;;;0.15436262;-0.9418012;0.19476913;;;;;;;;;;;;
1908.0;1797.4;;;;-0.18732454;0.9332315;0.19449237;;;;;;;;;;;;;;;
1908.0;1797.4;;;;-0.18684389;0.9330865;0.19365314;;;;;;;;;;;;;;;
1908.0;1797.4;;;;-0.18626024;0.9325639;0.19286731;;;;;;;;;;;;;;;
1908.0;1797.4;;;;-0.18543626;0.93197644;0.19272998;;;;;;;;;;;;;;;
1908.0;1797.4;;;;-0.18530656;0.93182003;0.19210818;;;;;;;;;;;;;;;
1908.0;1800.3;262143;262143;13280;;;;;;;;;;;;;;;;;;
1908.0;1804.1;;;;;;;;;;0.82018495;6.672109;-4.093295;;;;;;;;;
1908.0;1804.1;;;;;;;0.15558337;-0.941496;0.1980041;;;;;;;;;;;;
1908.0;1804.1;;;;;;;;;;0.4463332;6.069369;-3.6202583;;;;;;;;;
1908.0;1804.1;;;;;;;0.15607166;-0.93990904;0.19733268;;;;;;;;;;;;
1908.0;1806.4;;;;;;;;;;;;;-4007;;;;;;;;
1908.0;1806.4;;;;;;;;;;;;;-3790;;;;;;;;
1908.0;1806.4;;;;;;;;;;;;;-3718;;;;;;;;
1908.0;1806.4;;;;;;;;;;;;;-3730;;;;;;;;
1908.0;1806.4;;;;;;;;;;;;;-3813;;;;;;;;
1908.0;1807.4;;;;-0.18509676;0.931286;0.1913338;;;;;;;;;;;;;;;
1908.0;1807.4;;;;-0.18476488;0.93085873;0.1909714;;;;;;;;;;;;;;;
1908.0;1807.4;;;;-0.18439867;0.9306146;0.19054034;;;;;;;;;;;;;;;
1908.0;1807.4;;;;-0.18429185;0.9304429;0.18979648;;;;;;;;;;;;;;;
1908.0;1807.4;;;;-0.18427278;0.93039334;0.18878177;;;;;;;;;;;;;;;
1908.0;1813.5;;;;;;;;;;0.064851835;5.607776;-3.1357768;;;;;;;;;
1908.0;1813.5;;;;;;;0.15509507;-0.93728447;0.1981872;;;;;;;;;;;;
1908.0;1813.5;;;;;;;;;;-0.39674062;5.2072206;-2.7771842;;;;;;;;;
1908.0;1813.5;;;;;;;0.15588854;-0.93710136;0.19946899;;;;;;;;;;;;
1910.0;1817.4;;;;-0.18400575;0.93005383;0.18835834;;;;;;;;;;;;;;;
1910.0;1817.4;;;;-0.1836014;0.92992413;0.18862918;;;;;;;;;;;;;;;
1910.0;1817.4;;;;-0.18350221;0.929989;0.1881409;;;;;;;;;;;;;;;
1910.0;1817.4;;;;-0.18360902;0.9297334;0.1875458;;;;;;;;;;;;;;;
1910.0;1817.4;;;;-0.18321992;0.92998135;0.18719484;;;;;;;;;;;;;;;
1910.0;1820.3;262143;262143;13281;;;;;;;;;;;;;;;;;;
1910.0;1823.1;;;;;;;;;;-0.84688866;4.8409986;-2.395703;;;;;;;;;
1910.0;1823.1;;;;;;;0.15771966;-0.93594164;0.20014039;;;;;;;;;;;;
1910.0;1823.1;;;;;;;;;;-1.3275552;4.5396285;-1.9760735;;;;;;;;;
1910.0;1823.1;;;;;;;0.15900144;-0.9388104;0.20117801;;;;;;;;;;;;
1910.0;1827.5;;;;-0.18354799;0.9303247;0.18652345;;;;;;;;;;;;;;;
1910.0;1827.5;;;;-0.18323137;0.9303323;0.18612291;;;;;;;;;;;;;;;
1910.0;1827.5;;;;-0.18334581;0.9306947;0.18602754;;;;;;;;;;;;;;;
1910.0;1827.5;;;;-0.18340684;0.9308435;0.18561937;;;;;;;;;;;;;;;
1910.0;1827.5;;;;-0.1834488;0.9308015;0.18502046;;;;;;;;;;;;;;;
1910.0;1832.7;;;;;;;;;;-1.8082217;4.2840357;-1.575518;;;;;;;;;
1910.0;1832.7;;;;;;;0.16431166;-0.9421674;0.20203254;;;;;;;;;;;;
1910.0;1832.7;;;;;;;;;;-2.273629;4.0665917;-1.2207403;;;;;;;;;
1910.0;1832.7;;;;;;;0.16742454;-0.9441206;0.20288706;;;;;;;;;;;;
1911.0;1837.6;;;;-0.18325807;0.9311334;0.18519212;;;;;;;;;;;;;;;
1911.0;1837.6;;;;-0.18373872;0.93148816;0.18469621;;;;;;;;;;;;;;;
1911.0;1837.6;;;;-0.18378831;0.9319154;0.18459322;;;;;;;;;;;;;;;
1911.0;1837.6;;;;-0.18406679;0.93219006;0.18422319;;;;;;;;;;;;;;;
1911.0;1837.6;;;;-0.18399812;0.9324342;0.18394472;;;;;;;;;;;;;;;
1911.0;1840.8;;;;;;;;;;;;;;;;;-2.2659993;-0.019074067;0.13733329;;1735.1
1911.0;1840.8;;;;;;;;;;;;;;-0.54573196;-0.85348064;-0.05206458;;;;;1735.1
1911.0;1840.8;;;;;;;;;;;;;;;;;-2.4300365;0.022888882;0.19074069;;1735.1
1911.0;1840.8;;;;;;;;;;;;;;-0.54664755;-0.8526872;-0.051942505;;;;;1735.1
1911.0;1840.8;;;;;;;;;;;;;;;;;-2.5749993;0.045777764;0.22507401;;1744.7
1911.0;1840.8;;;;;;;;;;;;;;-0.54536575;-0.8523209;-0.051942505;;;;;1744.7
1911.0;1840.8;;;;;;;;;;;;;;;;;-2.601703;0.04196295;0.27085176;;1744.7
1911.0;1840.8;;;;;;;;;;;;;;-0.54432815;-0.8501236;-0.052797023;;;;;1744.7
1911.0;1840.8;;;;;;;;;;;;;;;;;-2.8077028;-0.026703697;0.37003693;;1754.3
1911.0;1840.8;;;;;;;;;;;;;;-0.5456099;-0.8499405;-0.054811243;;;;;1754.3
1911.0;1840.8;;;;;;;;;;;;;;;;;-2.887814;-0.19837031;0.3318888;;1754.3
1911.0;1840.8;;;;;;;;;;;;;;-0.54585403;-0.84939116;-0.053529467;;;;;1754.3
1911.0;1840.5;262143;262143;13278;;;;;;;;;;;;;;;;;;
1914.0;1841.5;;;;;;;;;;;;;;;;;-3.0060732;-0.40055543;0.34714803;;1763.9
1914.0;1841.5;;;;;;;;;;;;;;-0.5454268;-0.8485366;-0.052186653;;;;;1763.9
1914.0;1841.5;;;;;;;;;;;;;;;;;-3.0976286;-0.59511095;0.4158147;;1763.9
1914.0;1841.5;;;;;;;;;;;;;;-0.54499954;-0.8469497;-0.052186653;;;;;1763.9
1914.0;1841.5;;;;;;;;;;;;;;;;;-3.3684807;-0.79348123;0.37766656;;1773.6
1914.0;1841.5;;;;;;;;;;;;;;-0.54481643;-0.84719384;-0.05023347;;;;;1773.6
1914.0;1841.5;;;;;;;;;;;;;;;;;-3.6622212;-1.1139256;0.3128147;;1773.6
1914.0;1841.5;;;;;;;;;;;;;;-0.5442671;-0.84884185;-0.05267495;;;;;1773.6
1914.0;1841.5;;;;;;;;;;;;;;;;;-3.8567767;-1.4496292;0.29374066;;1783.1
1914.0;1841.5;;;;;;;;;;;;;;-0.5454878;-0.84902495;-0.052980132;;;;;1783.1
1914.0;1841.5;;;;;;;;;;;;;;;;;-4.093295;-1.842555;0.28611103;;1783.1
1914.0;1841.5;;;;;;;;;;;;;;-0.54554886;-0.8503067;-0.053102206;;;;;1783.1
1914.0;1842.2;;;;;;;;;;-2.727592;3.9254432;-0.8049257;;;;;;;;;
1914.0;1842.2;;;;;;;0.16687521;-0.94912565;0.2036195;;;;;;;;;;;;
1914.0;1842.2;;;;;;;;;;-3.1624806;3.8224432;-0.32425916;;;;;;;;;
1914.0;1842.2;;;;;;;0.1690115;-0.9531541;0.20453505;;;;;;;;;;;;
1914.0;1846.4;;;;;;;;;;;;;-4026;;;;;;;;
1914.0;1846.4;;;;;;;;;;;;;-4306;;;;;;;;
1914.0;1846.4;;;;;;;;;;;;;-4481;;;;;;;;
1914.0;1846.4;;;;;;;;;;;;;-4484;;;;;;;;
1914.0;1846.4;;;;;;;;;;;;;-4429;;;;;;;;
1914.0;1847.5;;;;-0.18434907;0.9326631;0.1831894;;;;;;;;;;;;;;;
1914.0;1847.5;;;;-0.18485643;0.9327127;0.18404008;;;;;;;;;;;;;;;
1914.0;1847.5;;;;-0.18515016;0.9328729;0.18416597;;;;;;;;;;;;;;;
1914.0;1847.5;;;;-0.18544771;0.9329034;0.18402101;;;;;;;;;;;;;;;
1914.0;1847.5;;;;-0.18556596;0.93293774;0.18391038;;;;;;;;;;;;;;;
1964.0;1851.8;;;;;;;;;;-3.563036;3.746147;0.17166662;;;;;;;;;
1964.0;1851.8;;;;;;;0.17273477;-0.9540086;0.20587787;;;;;;;;;;;;
1964.0;1851.8;;;;;;;;;;-3.9483323;3.7156286;0.6179998;;;;;;;;;
1964.0;1851.8;;;;;;;0.17389446;-0.95919675;0.20563371;;;;;;;;;;;;
1964.0;1857.5;;;;-0.1858597;0.9328233;0.18371965;;;;;;;;;;;;;;;
1964.0;1857.5;;;;-0.18637086;0.9328309;0.18334581;;;;;;;;;;;;;;;
1964.0;1857.5;;;;-0.18687059;0.93319714;0.18381883;;;;;;;;;;;;;;;
1964.0;1857.5;;;;-0.18740846;0.93315136;0.18387987;;;;;;;;;;;;;;;
1964.0;1857.5;;;;-0.18771365;0.9331056;0.1836815;;;;;;;;;;;;;;;
1964.0;1860.6;262143;262143;13282;;;;;;;;;;;;;;;;;;
1964.0;1861.3;;;;;;;;;;-4.341258;3.7728508;1.0414442;;;;;;;;;
1964.0;1861.3;;;;;;;0.17621388;-0.9613941;0.20886868;;;;;;;;;;;;
1964.0;1861.3;;;;;;;;;;-4.623554;3.8377025;1.4648885;;;;;;;;;
1964.0;1861.3;;;;;;;0.17438276;-0.96121097;0.2097232;;;;;;;;;;;;
1964.0;1867.5;;;;-0.18861392;0.93307126;0.1835518;;;;;;;;;;;;;;;
1964.0;1867.5;;;;-0.18895724;0.9329988;0.18330003;;;;;;;;;;;;;;;
1964.0;1867.5;;;;-0.18907931;0.9330751;0.1832657;;;;;;;;;;;;;;;
1964.0;1867.5;;;;-0.1896973;0.93333447;0.18259813;;;;;;;;;;;;;;;
1964.0;1867.5;;;;-0.19019702;0.93330395;0.18268968;;;;;;;;;;;;;;;
1964.0;1870.6;;;;;;;;;;-4.9592576;3.9864802;1.8730735;;;;;;;;;
1964.0;1870.6;;;;;;;0.17554247;-0.9617603;0.21002838;;;;;;;;;;;;
1964.0;1870.6;;;;;;;;;;-5.2911468;4.0665917;2.193518;;;;;;;;;
1964.0;1870.6;;;;;;;0.17511521;-0.964507;0.21076083;;;;;;;;;;;;
1966.0;1877.2;;;;-0.190918;0.9337121;0.1830063;;;;;;;;;;;;;;;
1966.0;1877.2;;;;-0.19144061;0.9339906;0.18250658;;;;;;;;;;;;;;;
1966.0;1877.2;;;;-0.1922951;0.9342271;0.18284227;;;;;;;;;;;;;;;
1966.0;1877.2;;;;-0.1929932;0.9345666;0.18251039;;;;;;;;;;;;;;;
1966.0;1877.2;;;;-0.19308093;0.9348756;0.18224718;;;;;;;;;;;;;;;
1966.0;1880.1;;;;;;;;;;-5.5810723;4.280221;2.5902586;;;;;;;;;
1966.0;1880.1;;;;;;;0.17719047;-0.9663381;0.21027254;;;;;;;;;;;;
1966.0;1880.1;;;;;;;;;;-5.981628;4.486221;2.994629;;;;;;;;;
1966.0;1880.1;;;;;;;0.17828913;-0.9668874;0.21216469;;;;;;;;;;;;
1966.0;1880.3;262143;262143;13276;;;;;;;;;;;;;;;;;;
1966.0;1886.3;;;;;;;;;;;;;-4467;;;;;;;;
1966.0;1886.3;;;;;;;;;;;;;-4598;;;;;;;;
1966.0;1886.3;;;;;;;;;;;;;-4582;;;;;;;;
1966.0;1886.3;;;;;;;;;;;;;-4325;;;;;;;;
1966.0;1886.3;;;;;;;;;;;;;-3998;;;;;;;;
1966.0;1887.4;;;;-0.19328311;0.935341;0.18231584;;;;;;;;;;;;;;;
1966.0;1887.4;;;;-0.19373325;0.9354478;0.1816025;;;;;;;;;;;;;;;
1966.0;1887.4;;;;-0.19417194;0.93581784;0.18162157;;;;;;;;;;;;;;;
1966.0;1887.4;;;;-0.19472888;0.9361192;0.18107225;;;;;;;;;;;;;;;
1966.0;1887.4;;;;-0.19510272;0.9361497;0.18143083;;;;;;;;;;;;;;;
1966.0;1889.7;;;;;;;;;;-6.275368;4.7608876;3.3532214;;;;;;;;;
1966.0;1889.7;;;;;;;0.1788995;-0.97183144;0.21369061;;;;;;;;;;;;
1966.0;1889.7;;;;;;;;;;-6.5347757;5.0126653;3.6927397;;;;;;;;;
1966.0;1889.7;;;;;;;0.17957091;-0.97323525;0.21472824;;;;;;;;;;;;
1969.0;1897.5;;;;-0.1952782;0.93665326;0.1811905;;;;;;;;;;;;;;;
1969.0;1897.5;;;;-0.19573596;0.937462;0.18122102;;;;;;;;;;;;;;;
1969.0;1897.5;;;;-0.19635394;0.9381143;0.18162538;;;;;;;;;;;;;;;
1969.0;1897.5;;;;-0.1966286;0.9387628;0.18180467;;;;;;;;;;;;;;;
1969.0;1897.5;;;;-0.1967316;0.9395486;0.18166353;;;;;;;;;;;;;;;
1969.0;1899.3;;;;;;;;;;-6.778924;5.218665;4.0284433;;;;;;;;;
1969.0;1899.3;;;;;;;0.18012024;-0.9774468;0.21723075;;;;;;;;;;;;
1969.0;1899.3;;;;;;;;;;-7.0154424;5.4818873;4.3488874;;;;;;;;;
1969.0;1899.3;;;;;;;0.18073061;-0.9808649;0.21729179;;;;;;;;;;;;
1969.0;1900.8;;;;;;;;;;;;;;;;;-4.4785914;-2.1744437;0.25559253;;1792.8
1969.0;1900.8;;;;;;;;;;;;;;-0.5456709;-0.8518326;-0.053346355;;;;;1792.8
1969.0;1900.8;;;;;;;;;;;;;;;;;-4.634999;-2.3842587;0.23270364;;1792.8
1969.0;1900.8;;;;;;;;;;;;;;-0.545793;-0.85421306;-0.05322428;;;;;1792.8
1969.0;1900.8;;;;;;;;;;;;;;;;;-4.890591;-2.5711844;0.12207404;;1802.5
1969.0;1900.8;;;;;;;;;;;;;;-0.54750204;-0.85708183;-0.050965913;;;;;1802.5
1969.0;1900.8;;;;;;;;;;;;;;;;;-5.01648;-2.7352216;0.068666644;;1802.5
1969.0;1900.8;;;;;;;;;;;;;;-0.5468917;-0.8577532;-0.050111394;;;;;1802.5
1969.0;1900.8;;;;;;;;;;;;;;;;;-5.1118503;-2.9450362;-0.038148135;;1812.2
1969.0;1900.8;;;;;;;;;;;;;;-0.5465255;-0.86092716;-0.04773095;;;;;1812.2
1969.0;1900.8;;;;;;;;;;;;;;;;;-5.123295;-3.0671103;-0.14496292;;1812.2
1969.0;1900.8;;;;;;;;;;;;;;-0.54615927;-0.86013365;-0.04693747;;;;;1812.2
1969.0;1900.5;262143;262143;13281;;;;;;;;;;;;;;;;;;
1976.0;1901.9;;;;;;;;;;;;;;;;;-5.0889616;-3.1052582;-0.3357036;;1821.6
1976.0;1901.9;;;;;;;;;;;;;;-0.5456099;-0.8615375;-0.045350507;;;;;1821.6
1976.0;1901.9;;;;;;;;;;;;;;;;;-4.974517;-3.131962;-0.43870357;;1821.6
1976.0;1901.9;;;;;;;;;;;;;;-0.54554886;-0.8614765;-0.044312876;;;;;1821.6
1976.0;1901.9;;;;;;;;;;;;;;;;;-4.8982205;-3.0976286;-0.6218146;;1831.3
1976.0;1901.9;;;;;;;;;;;;;;-0.5442671;-0.8608661;-0.044801172;;;;;1831.3
1976.0;1901.9;;;;;;;;;;;;;;;;;-4.734184;-2.9602954;-0.77822196;;1831.3
1976.0;1901.9;;;;;;;;;;;;;;-0.5435957;-0.8612934;-0.046205025;;;;;1831.3
1976.0;1901.9;;;;;;;;;;;;;;;;;-4.566332;-2.8763695;-0.9346294;;1840.9
1976.0;1901.9;;;;;;;;;;;;;;-0.5420698;-0.8619037;-0.047791988;;;;;1840.9
1976.0;1901.9;;;;;;;;;;;;;;;;;-4.257332;-2.7619252;-1.0490738;;1840.9
1976.0;1901.9;;;;;;;;;;;;;;-0.54176456;-0.86269724;-0.047608875;;;;;1840.9
1976.0;1907.4;;;;-0.19697955;0.9405633;0.18122484;;;;;;;;;;;;;;;
1976.0;1907.4;;;;-0.1973801;0.9413034;0.18149568;;;;;;;;;;;;;;;
1976.0;1907.4;;;;-0.1976662;0.94215786;0.18158723;;;;;;;;;;;;;;;
1976.0;1907.4;;;;-0.19778827;0.94277203;0.18129732;;;;;;;;;;;;;;;
1976.0;1907.4;;;;-0.19809726;0.9435617;0.18159868;;;;;;;;;;;;;;;
1976.0;1908.8;;;;;;;;;;-7.213813;5.668813;4.6617026;;;;;;;;;
1976.0;1908.8;;;;;;;0.18182927;-0.9834285;0.2186346;;;;;;;;;;;;
1976.0;1908.8;;;;;;;;;;-7.3397017;5.8633685;4.8829613;;;;;;;;;
1976.0;1908.8;;;;;;;0.18353832;-0.9838557;0.21936704;;;;;;;;;;;;
2086.0;1917.4;;;;-0.19794849;0.9446145;0.18185045;;;;;;;;;;;;;;;
2086.0;1917.4;;;;-0.19776157;0.9446908;0.18164064;;;;;;;;;;;;;;;
2086.0;1917.4;;;;-0.19768527;0.9454919;0.18148042;;;;;;;;;;;;;;;
2086.0;1917.4;;;;-0.19798282;0.94623196;0.18146898;;;;;;;;;;;;;;;
2086.0;1917.4;;;;-0.197876;0.94680035;0.18143846;;;;;;;;;;;;;;;
2086.0;1918.3;;;;;;;;;;-7.3816648;6.0464797;5.077517;;;;;;;;;
2086.0;1918.3;;;;;;;0.18359935;-0.9844661;0.2200995;;;;;;;;;;;;
2086.0;1918.3;;;;;;;;;;-7.477035;6.103702;5.32548;;;;;;;;;
2086.0;1918.3;;;;;;;0.18237862;-0.9847102;0.22266304;;;;;;;;;;;;
2086.0;1920.6;262143;262143;13268;;;;;;;;;;;;;;;;;;
2086.0;1926.5;;;;;;;;;;;;;-3711;;;;;;;;
2086.0;1926.5;;;;;;;;;;;;;-3436;;;;;;;;
2086.0;1926.5;;;;;;;;;;;;;-3087;;;;;;;;
2086.0;1926.5;;;;;;;;;;;;;-2640;;;;;;;;
2086.0;1926.5;;;;;;;;;;;;;-2273;;;;;;;;
2086.0;1927.3;;;;-0.19780353;0.94728863;0.18164064;;;;;;;;;;;;;;;
2086.0;1927.3;;;;-0.19758227;0.94768536;0.1822014;;;;;;;;;;;;;;;
2086.0;1927.3;;;;-0.19789508;0.9481088;0.18260194;;;;;;;;;;;;;;;
2086.0;1927.3;;;;-0.19770816;0.94799817;0.18298341;;;;;;;;;;;;;;;
2086.0;1927.3;;;;-0.19768146;0.94869626;0.18270876;;;;;;;;;;;;;;;
2086.0;1927.8;;;;;;;;;;-7.5418863;6.275368;5.455184;;;;;;;;;
2086.0;1927.8;;;;;;;0.18359935;-0.9848933;0.22656941;;;;;;;;;;;;
2086.0;1927.8;;;;;;;;;;-7.5647755;6.427961;5.6192203;;;;;;;;;
2086.0;1927.8;;;;;;;0.18243966;-0.9836726;0.22620319;;;;;;;;;;;;
2092.0;1937.1;;;;;;;;;;-7.5647755;6.672109;5.726035;;;;;;;;;
2092.0;1937.1;;;;;;;0.18134098;-0.98245186;0.22675252;;;;;;;;;;;;
2092.0;1937.1;;;;;;;;;;-7.6258125;6.897183;5.8442945;;;;;;;;;
2092.0;1937.1;;;;;;;0.18262276;-0.9825739;0.22846156;;;;;;;;;;;;
2092.0;1937.2;;;;-0.19740298;0.949154;0.18314363;;;;;;;;;;;;;;;
2092.0;1937.2;;;;-0.19704822;0.9493562;0.18325044;;;;;;;;;;;;;;;
2092.0;1937.2;;;;-0.19695285;0.94939053;0.18352129;;;;;;;;;;;;;;;
2092.0;1937.2;;;;-0.19655612;0.95015347;0.18413545;;;;;;;;;;;;;;;
2092.0;1937.2;;;;-0.19675067;0.9499322;0.18434907;;;;;;;;;;;;;;;
2092.0;1940.5;262143;262143;13276;;;;;;;;;;;;;;;;;;
2092.0;1946.8;;;;;;;;;;-7.6601458;7.1756644;5.916776;;;;;;;;;
2092.0;1946.8;;;;;;;0.18176824;-0.98330635;0.229194;;;;;;;;;;;;
2092.0;1946.8;;;;;;;;;;-7.7059236;7.37785;5.9129615;;;;;;;;;
2092.0;1946.8;;;;;;;0.18311106;-0.9858089;0.22986542;;;;;;;;;;;;
2092.0;1947.3;;;;-0.19683841;0.9499475;0.1838875;;;;;;;;;;;;;;;
2092.0;1947.3;;;;-0.19649509;0.9499589;0.18405534;;;;;;;;;;;;;;;
2092.0;1947.3;;;;-0.19543079;0.95113385;0.18460847;;;;;;;;;;;;;;;
2092.0;1947.3;;;;-0.19548038;0.951069;0.18495943;;;;;;;;;;;;;;;
2092.0;1947.3;;;;-0.19565585;0.95098126;0.18489076;;;;;;;;;;;;;;;
2092.0;1956.4;;;;;;;;;;-7.702109;7.5991087;5.9930725;;;;;;;;;
2092.0;1956.4;;;;;;;0.18280587;-0.98788416;0.23096408;;;;;;;;;;;;
2092.0;1956.4;;;;;;;;;;-7.648701;7.7326274;5.989258;;;;;;;;;
2092.0;1956.4;;;;;;;0.17896055;-0.9897763;0.23255104;;;;;;;;;;;;
2097.0;1957.4;;;;-0.19514468;0.95113766;0.18496324;;;;;;;;;;;;;;;
2097.0;1957.4;;;;-0.19482806;0.9512025;0.18540575;;;;;;;;;;;;;;;
2097.0;1957.4;;;;-0.19443515;0.9512521;0.18593217;;;;;;;;;;;;;;;
2097.0;1957.4;;;;-0.19412997;0.9512178;0.1862488;;;;;;;;;;;;;;;
2097.0;1957.4;;;;-0.19355777;0.9515573;0.18646242;;;;;;;;;;;;;;;
2097.0;1960.9;;;;;;;;;;;;;;;;;-3.9407024;-2.685629;-1.1635182;;1850.6
2097.0;1960.9;;;;;;;;;;;;;;-0.54158145;-0.86159855;-0.048829615;;;;;1850.6
2097.0;1960.9;;;;;;;;;;;;;;;;;-3.6355176;-2.5864437;-1.3008515;;1850.6
2097.0;1960.9;;;;;;;;;;;;;;-0.5398114;-0.8625752;-0.0507828;;;;;1850.6
2097.0;1960.9;;;;;;;;;;;;;;;;;-3.5744805;-2.4147773;-1.4038514;;1860.3
2097.0;1960.9;;;;;;;;;;;;;;-0.53840756;-0.8631245;-0.04998932;;;;;1860.3
2097.0;1960.9;;;;;;;;;;;;;;;;;-3.5096285;-2.2049623;-1.4877774;;1860.3
2097.0;1960.9;;;;;;;;;;;;;;-0.5377361;-0.8642842;-0.052125614;;;;;1860.3
2097.0;1960.9;;;;;;;;;;;;;;;;;-3.456221;-2.1362956;-1.5449996;;1870.0
2097.0;1960.9;;;;;;;;;;;;;;-0.53798026;-0.8646504;-0.05322428;;;;;1870.0
2097.0;1960.9;;;;;;;;;;;;;;;;;-3.4638507;-2.1095922;-1.575518;;1870.0
2097.0;1960.9;;;;;;;;;;;;;;-0.5388348;-0.8659932;-0.053712577;;;;;1870.0
2097.0;1960.6;262143;262143;13279;;;;;;;;;;;;;;;;;;
2100.0;1961.6;;;;;;;;;;;;;;;;;-3.5096285;-2.2278512;-1.6365551;;1879.5
2100.0;1961.6;;;;;;;;;;;;;;-0.53779715;-0.8669698;-0.05566576;;;;;1879.5
2100.0;1961.6;;;;;;;;;;;;;;;;;-3.6431472;-2.25074;-1.6060365;;1879.5
2100.0;1961.6;;;;;;;;;;;;;;-0.5386517;-0.8665426;-0.056154057;;;;;1879.5
2100.0;1961.6;;;;;;;;;;;;;;;;;-3.5935545;-2.338481;-1.5984069;;1889.1
2100.0;1961.6;;;;;;;;;;;;;;-0.53852963;-0.86587113;-0.056215096;;;;;1889.1
2100.0;1961.6;;;;;;;;;;;;;;;;;-3.543962;-2.3003328;-1.6098514;;1889.1
2100.0;1961.6;;;;;;;;;;;;;;-0.5387738;-0.86452836;-0.056093022;;;;;1889.1
2100.0;1961.6;;;;;;;;;;;;;;;;;-3.563036;-2.395703;-1.6289254;;1898.7
2100.0;1961.6;;;;;;;;;;;;;;-0.53962827;-0.86141545;-0.058717612;;;;;1898.7
2100.0;1961.6;;;;;;;;;;;;;;;;;-3.5287027;-2.3842587;-1.6251106;;1898.7
2100.0;1961.6;;;;;;;;;;;;;;-0.5390179;-0.86233103;-0.05627613;;;;;1898.7
2100.0;1965.9;;;;;;;;;;-7.57622;7.915738;6.0197763;;;;;;;;;
2100.0;1965.9;;;;;;;0.18048647;-0.99069184;0.23462631;;;;;;;;;;;;
2100.0;1965.9;;;;;;;;;;-7.488479;8.018739;6.069369;;;;;;;;;
2100.0;1965.9;;;;;;;0.1793878;-0.9945372;0.23517564;;;;;;;;;;;;
2100.0;1966.6;;;;;;;;;;;;;-2060;;;;;;;;
2100.0;1966.6;;;;;;;;;;;;;-1787;;;;;;;;
2100.0;1966.6;;;;;;;;;;;;;-1332;;;;;;;;
2100.0;1966.6;;;;;;;;;;;;;-953;;;;;;;;
2100.0;1966.6;;;;;;;;;;;;;-926;;;;;;;;
2100.0;1967.4;;;;-0.19319156;0.9514009;0.18701936;;;;;;;;;;;;;;;
2100.0;1967.4;;;;-0.19292453;0.95139325;0.18771365;;;;;;;;;;;;;;;
2100.0;1967.4;;;;-0.19198611;0.95204556;0.18811038;;;;;;;;;;;;;;;
2100.0;1967.4;;;;-0.19158176;0.95224774;0.18843845;;;;;;;;;;;;;;;
2100.0;1967.4;;;;-0.1908646;0.9524919;0.18895343;;;;;;;;;;;;;;;
2103.0;1975.4;;;;;;;;;;-7.3244424;8.014924;6.0998874;;;;;;;;;
2103.0;1975.4;;;;;;;0.1777398;-0.9940489;0.23767816;;;;;;;;;;;;
2103.0;1975.4;;;;;;;;;;-7.106998;7.843257;6.0808134;;;;;;;;;
2103.0;1975.4;;;;;;;0.17712943;-0.9934996;0.23963134;;;;;;;;;;;;
2103.0;1977.4;;;;-0.19042209;0.95318615;0.1894646;;;;;;;;;;;;;;;
2103.0;1977.4;;;;-0.1893883;0.95367825;0.18925098;;;;;;;;;;;;;;;
2103.0;1977.4;;;;-0.18849567;0.9533273;0.19005588;;;;;;;;;;;;;;;
2103.0;1977.4;;;;-0.18809512;0.95359814;0.19010928;;;;;;;;;;;;;;;
2103.0;1977.4;;;;-0.18758014;0.95393384;0.19018558;;;;;;;;;;;;;;;
2103.0;1980.7;262143;262143;13271;;;;;;;;;;;;;;;;;;
2103.0;1985.0;;;;;;;;;;-6.786554;7.7898498;6.0960727;;;;;;;;;
2103.0;1985.0;;;;;;;0.17432173;-0.9920347;0.23950927;;;;;;;;;;;;
2103.0;1985.0;;;;;;;;;;-6.5424056;7.6639605;6.042665;;;;;;;;;
2103.0;1985.0;;;;;;;0.17236854;-0.99148536;0.24115726;;;;;;;;;;;;
2103.0;1987.5;;;;-0.18701555;0.95365155;0.19050983;;;;;;;;;;;;;;;
2103.0;1987.5;;;;-0.18621828;0.95375836;0.19047168;;;;;;;;;;;;;;;
2103.0;1987.5;;;;-0.18522264;0.95294964;0.19064334;;;;;;;;;;;;;;;
2103.0;1987.5;;;;-0.18474962;0.9521867;0.19123462;;;;;;;;;;;;;;;
2103.0;1987.5;;;;-0.18409349;0.95157254;0.1913071;;;;;;;;;;;;;;;
2103.0;1994.5;;;;;;;;;;-6.2982574;7.4732203;6.023591;;;;;;;;;
2103.0;1994.5;;;;;;;0.173101;-0.99185157;0.23908201;;;;;;;;;;;;
2103.0;1994.5;;;;;;;;;;-6.0579243;7.2519608;6.0121465;;;;;;;;;
2103.0;1994.5;;;;;;;0.17194128;-0.9905698;0.2395703;;;;;;;;;;;;
2105.0;1997.5;;;;-0.1837082;0.9508821;0.19175723;;;;;;;;;;;;;;;
2105.0;1997.5;;;;-0.18350221;0.9502145;0.1915665;;;;;;;;;;;;;;;
2105.0;1997.5;;;;-0.1826172;0.94957364;0.19152072;;;;;;;;;;;;;;;
2105.0;1997.5;;;;-0.18231966;0.9491159;0.19192508;;;;;;;;;;;;;;;
2105.0;1997.5;;;;-0.18189241;0.9488565;0.19157413;;;;;;;;;;;;;;;
2105.0;2000.9;262143;262143;13276;;;;;;;;;;;;;;;;;;
2105.0;2004.1;;;;;;;;;;-5.920591;6.96585;5.878628;;;;;;;;;
2105.0;2004.1;;;;;;;0.17004913;-0.99050874;0.23950927;;;;;;;;;;;;
2105.0;2004.1;;;;;;;;;;-5.6611834;6.6835537;5.855739;;;;;;;;;
2105.0;2004.1;;;;;;;0.16907254;-0.9894101;0.24030274;;;;;;;;;;;;
2105.0;2006.8;;;;;;;;;;;;;-1143;;;;;;;;
2105.0;2006.8;;;;;;;;;;;;;-1332;;;;;;;;
2105.0;2006.8;;;;;;;;;;;;;-1322;;;;;;;;
2105.0;2006.8;;;;;;;;;;;;;-1137;;;;;;;;
2105.0;2006.8;;;;;;;;;;;;;-873;;;;;;;;
2105.0;2007.6;;;;-0.18120195;0.9484521;0.19168475;;;;;;;;;;;;;;;
2105.0;2007.6;;;;-0.18040086;0.94864666;0.1916199;;;;;;;;;;;;;;;
2105.0;2007.6;;;;-0.17997362;0.9486886;0.19145969;;;;;;;;;;;;;;;
2105.0;2007.6;;;;-0.17946245;0.94889843;0.1912308;;;;;;;;;;;;;;;
2105.0;2007.6;;;;-0.17929079;0.9495393;0.19096377;;;;;;;;;;;;;;;
2105.0;2013.7;;;;;;;;;;-5.344554;6.344035;5.8900723;;;;;;;;;
2105.0;2013.7;;;;;;;0.1688284;-0.9905698;0.24127933;;;;;;;;;;;;
2105.0;2013.7;;;;;;;;;;-5.031739;5.8862576;5.7565536;;;;;;;;;
2105.0;2013.7;;;;;;;0.16748558;-0.99130225;0.24097416;;;;;;;;;;;;
2106.0;2017.7;;;;-0.17848589;0.950039;0.19095233;;;;;;;;;;;;;;;
2106.0;2017.7;;;;-0.17810442;0.9511033;0.19147113;;;;;;;;;;;;;;;
2106.0;2017.7;;;;-0.17802812;0.9518167;0.19192508;;;;;;;;;;;;;;;
2106.0;2017.7;;;;-0.17803194;0.9526559;0.1926842;;;;;;;;;;;;;;;
2106.0;2017.7;;;;-0.17803575;0.95393;0.19361117;;;;;;;;;;;;;;;
2106.0;2021.2;;;;;;;;;;;;;;;;;-3.6088138;-2.399518;-1.5678884;;1908.4
2106.0;2021.2;;;;;;;;;;;;;;-0.53956723;-0.8600726;-0.058107242;;;;;1908.4
2106.0;2021.2;;;;;;;;;;;;;;;;;-3.7041843;-2.475814;-1.5335552;;1908.4
2106.0;2021.2;;;;;;;;;;;;;;-0.5413373;-0.85842466;-0.058656577;;;;;1908.4
2106.0;2021.2;;;;;;;;;;;;;;;;;-3.7995543;-2.6055179;-1.5564439;;1918.0
2106.0;2021.2;;;;;;;;;;;;;;-0.5420698;-0.857387;-0.05774102;;;;;1918.0
2106.0;2021.2;;;;;;;;;;;;;;;;;-3.8605914;-2.685629;-1.5449996;;1918.0
2106.0;2021.2;;;;;;;;;;;;;;-0.54091007;-0.85830253;-0.05981628;;;;;1918.0
2106.0;2021.2;;;;;;;;;;;;;;;;;-4.0475173;-2.6360364;-1.5221107;;1927.6
2106.0;2021.2;;;;;;;;;;;;;;-0.5417035;-0.85677665;-0.06103702;;;;;1927.6
2106.0;2021.2;;;;;;;;;;;;;;;;;-4.0627766;-2.601703;-1.4839625;;1927.6
2106.0;2021.2;;;;;;;;;;;;;;-0.5406659;-0.8561052;-0.05963317;;;;;1927.6
2106.0;2021.0;262143;262143;13267;;;;;;;;;;;;;;;;;;
2107.0;2023.2;;;;;;;;;;;;;;;;;-4.100925;-2.6703696;-1.4343699;;1937.2
2107.0;2023.2;;;;;;;;;;;;;;-0.54139835;-0.8588519;-0.06079287;;;;;1937.2
2107.0;2023.2;;;;;;;;;;;;;;;;;-4.119999;-2.639851;-1.4458144;;1937.2
2107.0;2023.2;;;;;;;;;;;;;;-0.5388348;-0.8576922;-0.061098058;;;;;1937.2
2107.0;2023.2;;;;;;;;;;;;;;;;;-4.146703;-2.5559251;-1.4267403;;1946.8
2107.0;2023.2;;;;;;;;;;;;;;-0.5398114;-0.85958433;-0.061281167;;;;;1946.8
2107.0;2023.2;;;;;;;;;;;;;;;;;-4.234443;-2.494888;-1.2817774;;1946.8
2107.0;2023.2;;;;;;;;;;;;;;-0.53889585;-0.85976744;-0.06164739;;;;;1946.8
2107.0;2023.2;;;;;;;;;;;;;;;;;-4.226814;-2.3842587;-1.2512589;;1956.5
2107.0;2023.2;;;;;;;;;;;;;;-0.5382855;-0.86226994;-0.06122013;;;;;1956.5
2107.0;2023.2;;;;;;;;;;;;;;;;;-4.2497025;-2.2049623;-1.1101108;;1956.5
2107.0;2023.2;;;;;;;;;;;;;;-0.53871274;-0.86288035;-0.059877317;;;;;1956.5
2107.0;2023.2;;;;;;;;;;-4.749443;5.3979616;5.668813;;;;;;;;;
2107.0;2023.2;;;;;;;0.16766869;-0.99148536;0.24201179;;;;;;;;;;;;
2107.0;2023.2;;;;;;;;;;-4.4442577;4.8028507;5.6001463;;;;;;;;;
2107.0;2023.2;;;;;;;0.16608173;-0.9920347;0.24353771;;;;;;;;;;;;
2107.0;2027.6;;;;-0.17779924;0.95515454;0.19416812;;;;;;;;;;;;;;;
2107.0;2027.6;;;;-0.1776848;0.956524;0.19528583;;;;;;;;;;;;;;;
2107.0;2027.6;;;;-0.17749025;0.95803463;0.19591144;;;;;;;;;;;;;;;
2107.0;2027.6;;;;-0.17713167;0.95938504;0.19729999;;;;;;;;;;;;;;;
2107.0;2027.6;;;;-0.1769829;0.9607202;0.19861224;;;;;;;;;;;;;;;
2107.0;2032.8;;;;;;;;;;-4.1314435;4.1962953;5.516221;;;;;;;;;
2107.0;2032.8;;;;;;;0.16595966;-0.9912412;0.24591815;;;;;;;;;;;;
2107.0;2032.8;;;;;;;;;;-3.711814;3.543962;5.3292947;;;;;;;;;
2107.0;2032.8;;;;;;;0.16418958;-0.9906308;0.24732201;;;;;;;;;;;;
2146.0;2037.6;;;;-0.17665102;0.96201336;0.19894794;;;;;;;;;;;;;;;
2146.0;2037.6;;;;-0.17642213;0.9630281;0.19936374;;;;;;;;;;;;;;;
2146.0;2037.6;;;;-0.17627718;0.96369183;0.20013812;;;;;;;;;;;;;;;
2146.0;2037.6;;;;-0.17590715;0.9641267;0.20045474;;;;;;;;;;;;;;;
2146.0;2037.6;;;;-0.17595293;0.9645387;0.20075229;;;;;;;;;;;;;;;
2146.0;2041.1;262143;262143;13275;;;;;;;;;;;;;;;;;;
2146.0;2042.3;;;;;;;;;;-3.2845547;2.9221473;5.218665;;;;;;;;;
2146.0;2042.3;;;;;;;0.16382337;-0.98904383;0.24793237;;;;;;;;;;;;
2146.0;2042.3;;;;;;;;;;-2.887814;2.2812586;5.058443;;;;;;;;;
2146.0;2042.3;;;;;;;0.16357921;-0.9867855;0.24774925;;;;;;;;;;;;
2146.0;2047.0;;;;;;;;;;;;;-519;;;;;;;;
2146.0;2047.0;;;;;;;;;;;;;-183;;;;;;;;
2146.0;2047.0;;;;;;;;;;;;;-17;;;;;;;;
2146.0;2047.0;;;;;;;;;;;;;115;;;;;;;;
2146.0;2047.0;;;;;;;;;;;;;413;;;;;;;;
2146.0;2047.7;;;;-0.17587282;0.96408856;0.2013512;;;;;;;;;;;;;;;
2146.0;2047.7;;;;-0.17583086;0.9636766;0.20146182;;;;;;;;;;;;;;;
2146.0;2047.7;;;;-0.17560197;0.9636384;0.20142749;;;;;;;;;;;;;;;
2146.0;2047.7;;;;-0.17570879;0.963276;0.20177844;;;;;;;;;;;;;;;
2146.0;2047.7;;;;-0.17628099;0.9631578;0.20107272;;;;;;;;;;;;;;;
2146.0;2051.6;;;;;;;;;;-2.4796288;1.6861477;4.894406;;;;;;;;;
2146.0;2051.6;;;;;;;0.16351818;-0.98391676;0.24762718;;;;;;;;;;;;
2146.0;2051.6;;;;;;;;;;-2.1553698;0.9460738;4.5854063;;;;;;;;;
2146.0;2051.6;;;;;;;0.16760765;-0.9798883;0.24658956;;;;;;;;;;;;
2147.0;2057.1;;;;-0.1766739;0.9629594;0.20131686;;;;;;;;;;;;;;;
2147.0;2057.1;;;;-0.17717744;0.96276104;0.20167163;;;;;;;;;;;;;;;
2147.0;2057.1;;;;-0.17735292;0.9626504;0.20151904;;;;;;;;;;;;;;;
2147.0;2057.1;;;;-0.17727663;0.9634706;0.20088199;;;;;;;;;;;;;;;
2147.0;2057.1;;;;-0.17762376;0.963936;0.20035556;;;;;;;;;;;;;;;
2147.0;2060.7;;;;;;;;;;-1.9837031;0.2784814;4.280221;;;;;;;;;
2147.0;2060.7;;;;;;;0.16650899;-0.9769585;0.2461623;;;;;;;;;;;;
2147.0;2060.7;;;;;;;;;;-1.8807031;-0.40055543;3.9292583;;;;;;;;;
2147.0;2060.7;;;;;;;0.1666921;-0.97415084;0.2445143;;;;;;;;;;;;
2147.0;2060.5;262143;262143;13271;;;;;;;;;;;;;;;;;;
2147.0;2067.1;;;;-0.17818071;0.9645463;0.20001987;;;;;;;;;;;;;;;
2147.0;2067.1;;;;-0.17847826;0.9660264;0.19986346;;;;;;;;;;;;;;;
2147.0;2067.1;;;;-0.17826845;0.96678555;0.19944766;;;;;;;;;;;;;;;
2147.0;2067.1;;;;-0.17813875;0.96768963;0.19890979;;;;;;;;;;;;;;;
2147.0;2067.1;;;;-0.17803194;0.96855175;0.19866565;;;;;;;;;;;;;;;
2147.0;2070.3;;;;;;;;;;-1.8501847;-1.0299997;3.6088138;;;;;;;;;
2147.0;2070.3;;;;;;;0.16626485;-0.97360146;0.24573503;;;;;;;;;;;;
2147.0;2070.3;;;;;;;;;;-1.8501847;-1.5488143;3.3417768;;;;;;;;;
2147.0;2070.3;;;;;;;0.16528825;-0.97109896;0.24573503;;;;;;;;;;;;
2149.0;2077.2;;;;-0.17789842;0.9694749;0.19888309;;;;;;;;;;;;;;;
2149.0;2077.2;;;;-0.17752458;0.9702722;0.19908527;;;;;;;;;;;;;;;
2149.0;2077.2;;;;-0.17766191;0.97070324;0.19973758;;;;;;;;;;;;;;;
2149.0;2077.2;;;;-0.1775284;0.97133267;0.20042804;;;;;;;;;;;;;;;
2149.0;2077.2;;;;-0.17721178;0.97169125;0.20119098;;;;;;;;;;;;;;;
2149.0;2079.9;;;;;;;;;;-1.8272958;-2.1820734;3.0785549;;;;;;;;;
2149.0;2079.9;;;;;;;0.16663106;-0.9696951;0.24591815;;;;;;;;;;;;
2149.0;2079.9;;;;;;;;;;-1.7891476;-2.5749993;2.845851;;;;;;;;;
2149.0;2079.9;;;;;;;0.16791284;-0.97036654;0.24762718;;;;;;;;;;;;
2149.0;2080.9;;;;;;;;;;;;;;;;;-4.222999;-1.9646292;-1.045259;;1966.2
2149.0;2080.9;;;;;;;;;;;;;;-0.53852963;-0.8637959;-0.059877317;;;;;1966.2
2149.0;2080.9;;;;;;;;;;;;;;;;;-4.100925;-1.7090366;-0.93844414;;1966.2
2149.0;2080.9;;;;;;;;;;;;;;-0.53859067;-0.86288035;-0.059266947;;;;;1966.2
2149.0;2080.9;;;;;;;;;;;;;;;;;-3.9826655;-1.5831476;-0.8545183;;1975.8
2149.0;2080.9;;;;;;;;;;;;;;-0.5364544;-0.8644673;-0.059083834;;;;;1975.8
2149.0;2080.9;;;;;;;;;;;;;;;;;-3.8758507;-1.3657033;-0.7705924;;1975.8
2149.0;2080.9;;;;;;;;;;;;;;-0.5355388;-0.86684775;-0.058046207;;;;;1975.8
2149.0;2080.9;;;;;;;;;;;;;;;;;-3.784295;-1.0567034;-0.67903686;;1985.4
2149.0;2080.9;;;;;;;;;;;;;;-0.53187656;-0.8661763;-0.057924133;;;;;1985.4
2149.0;2080.9;;;;;;;;;;;;;;;;;-3.8148136;-0.71337014;-0.5760369;;1985.4
2149.0;2080.9;;;;;;;;;;;;;;-0.53077793;-0.86770225;-0.055360578;;;;;1985.4
2149.0;2080.8;262143;262143;13266;;;;;;;;;;;;;;;;;;
2150.0;2081.5;;;;;;;;;;;;;;;;;-3.7194436;-0.37003693;-0.5302591;;1995.0
2150.0;2081.5;;;;;;;;;;;;;;-0.5271157;-0.8698996;-0.057008576;;;;;1995.0
2150.0;2081.5;;;;;;;;;;;;;;;;;-3.501999;-0.08011109;-0.48829615;;1995.0
2150.0;2081.5;;;;;;;;;;;;;;-0.5228431;-0.8746605;-0.056459244;;;;;1995.0
2150.0;2081.5;;;;;;;;;;;;;;;;;-3.5325174;0.3089999;-0.45396283;;2004.6
2150.0;2081.5;;;;;;;;;;;;;;-0.5188147;-0.878811;-0.05627613;;;;;2004.6
2150.0;2081.5;;;;;;;;;;;;;;;;;-3.627888;0.6447035;-0.51499987;;2004.6
2150.0;2081.5;;;;;;;;;;;;;;-0.5133824;-0.88503677;-0.056459244;;;;;2004.6
2150.0;2081.5;;;;;;;;;;;;;;;;;-3.7919247;1.045259;-0.6027406;;2014.3
2150.0;2081.5;;;;;;;;;;;;;;-0.50886565;-0.89327675;-0.05755791;;;;;2014.3
2150.0;2081.5;;;;;;;;;;;;;;;;;-3.7232583;1.4458144;-0.84688866;;2014.3
2150.0;2081.5;;;;;;;;;;;;;;-0.50618;-0.90279853;-0.05365154;;;;;2014.3
2150.0;2086.5;;;;;;;;;;;;;675;;;;;;;;
2150.0;2086.5;;;;;;;;;;;;;630;;;;;;;;
2150.0;2086.5;;;;;;;;;;;;;444;;;;;;;;
2150.0;2086.5;;;;;;;;;;;;;1284;;;;;;;;
2150.0;2086.5;;;;;;;;;;;;;3334;;;;;;;;
2150.0;2087.1;;;;-0.17678453;0.97182477;0.20219424;;;;;;;;;;;;;;;
2150.0;2087.1;;;;-0.17687608;0.97176754;0.20322421;;;;;;;;;;;;;;;
2150.0;2087.1;;;;-0.17650987;0.9720727;0.20526507;;;;;;;;;;;;;;;
2150.0;2087.1;;;;-0.1759987;0.97181714;0.20656589;;;;;;;;;;;;;;;
2150.0;2087.1;;;;-0.17571642;0.9716989;0.20800021;;;;;;;;;;;;;;;
2150.0;2089.3;;;;;;;;;;-1.7052218;-2.990814;2.5749993;;;;;;;;;
2150.0;2089.3;;;;;;;0.16876736;-0.9700003;0.25165564;;;;;;;;;;;;
2150.0;2089.3;;;;;;;;;;-1.5907773;-3.276925;2.4147773;;;;;;;;;
2150.0;2089.3;;;;;;;0.17011017;-0.9701224;0.2509232;;;;;;;;;;;;
2207.0;2097.1;;;;-0.17547227;0.97117627;0.20927814;;;;;;;;;;;;;;;
2207.0;2097.1;;;;-0.17513658;0.97085965;0.21038058;;;;;;;;;;;;;;;
2207.0;2097.1;;;;-0.17461397;0.9701692;0.21120456;;;;;;;;;;;;;;;
2207.0;2097.1;;;;-0.17393877;0.9692956;0.21167377;;;;;;;;;;;;;;;
2207.0;2097.1;;;;-0.1731949;0.96813214;0.21188739;;;;;;;;;;;;;;;
2207.0;2098.9;;;;;;;;;;-1.4877774;-3.4752953;2.193518;;;;;;;;;
2207.0;2098.9;;;;;;;0.17151402;-0.9660329;0.25299844;;;;;;;;;;;;
2207.0;2098.9;;;;;;;;;;-1.392407;-3.5782952;2.006592;;;;;;;;;
2207.0;2098.9;;;;;;;0.17218544;-0.9630421;0.2542802;;;;;;;;;;;;
2207.0;2100.8;262143;262143;13275;;;;;;;;;;;;;;;;;;
2207.0;2107.2;;;;-0.17296602;0.9663354;0.2124596;;;;;;;;;;;;;;;
2207.0;2107.2;;;;-0.1724434;0.9642602;0.21220401;;;;;;;;;;;;;;;
2207.0;2107.2;;;;-0.17166139;0.96190655;0.21220782;;;;;;;;;;;;;;;
2207.0;2107.2;;;;-0.17098238;0.9599649;0.2116814;;;;;;;;;;;;;;;
2207.0;2107.2;;;;-0.1703148;0.95754254;0.211113;;;;;;;;;;;;;;;
2207.0;2108.5;;;;;;;;;;-1.247444;-3.4638507;1.8311106;;;;;;;;;
2207.0;2108.5;;;;;;;0.17493209;-0.9627369;0.25342572;;;;;;;;;;;;
2207.0;2108.5;;;;;;;;;;-1.2245551;-3.1891842;1.7242957;;;;;;;;;
2207.0;2108.5;;;;;;;0.17633595;-0.96194345;0.25348675;;;;;;;;;;;;
2211.0;2116.9;;;;-0.16942598;0.9550134;0.21000293;;;;;;;;;;;;;;;
2211.0;2116.9;;;;-0.16861726;0.9530183;0.20912555;;;;;;;;;;;;;;;
2211.0;2116.9;;;;-0.1682625;0.950966;0.20771411;;;;;;;;;;;;;;;
2211.0;2116.9;;;;-0.16698457;0.95012677;0.20608523;;;;;;;;;;;;;;;
2211.0;2116.9;;;;-0.16633607;0.94950116;0.20451358;;;;;;;;;;;;;;;
2211.0;2117.7;;;;;;;;;;-1.2627033;-2.9221473;1.7433698;;;;;;;;;
2211.0;2117.7;;;;;;;0.17615284;-0.9604175;0.25305948;;;;;;;;;;;;
2211.0;2117.7;;;;;;;;;;-1.3199255;-2.5368512;1.7891476;;;;;;;;;
2211.0;2117.7;;;;;;;0.17981505;-0.95883054;0.2544023;;;;;;;;;;;;
2211.0;2120.5;262143;262143;13271;;;;;;;;;;;;;;;;;;
2211.0;2126.5;;;;;;;;;;;;;2059;;;;;;;;
2211.0;2126.5;;;;;;;;;;;;;-6369;;;;;;;;
2211.0;2126.5;;;;;;;;;;;;;-16599;;;;;;;;
2211.0;2126.5;;;;;;;;;;;;;-18838;;;;;;;;
2211.0;2126.5;;;;;;;;;;;;;-10815;;;;;;;;
2211.0;2127.0;;;;-0.16570665;0.9495698;0.20287707;;;;;;;;;;;;;;;
2211.0;2127.0;;;;-0.16542818;0.9504434;0.20126727;;;;;;;;;;;;;;;
2211.0;2127.0;;;;-0.16504289;0.9512063;0.20019534;;;;;;;;;;;;;;;
2211.0;2127.0;;;;-0.16472246;0.9537355;0.19777301;;;;;;;;;;;;;;;
2211.0;2127.0;;;;-0.16480257;0.95621884;0.19655994;;;;;;;;;;;;;;;
2211.0;2127.3;;;;;;;;;;-1.4687033;-2.0638144;1.8807031;;;;;;;;;
2211.0;2127.3;;;;;;;0.17987609;-0.9589526;0.25397503;;;;;;;;;;;;
2211.0;2127.3;;;;;;;;;;-1.6441847;-1.701407;2.0027773;;;;;;;;;
2211.0;2127.3;;;;;;;0.17999817;-0.9600513;0.25305948;;;;;;;;;;;;
2212.0;2136.9;;;;;;;;;;-1.7967772;-1.1864071;2.2011476;;;;;;;;;
2212.0;2136.9;;;;;;;0.18274483;-0.9595019;0.25287637;;;;;;;;;;;;
2212.0;2136.9;;;;;;;;;;-1.9302957;-0.7095553;2.3651845;;;;;;;;;
2212.0;2136.9;;;;;;;0.18189032;-0.9609668;0.25385296;;;;;;;;;;;;
2212.0;2137.1;;;;-0.16488649;0.9592782;0.19544223;;;;;;;;;;;;;;;
2212.0;2137.1;;;;-0.16514589;0.9629365;0.19386676;;;;;;;;;;;;;;;
2212.0;2137.1;;;;-0.16523744;0.96717846;0.19253543;;;;;;;;;;;;;;;
2212.0;2137.1;;;;-0.1656151;0.97104275;0.19126895;;;;;;;;;;;;;;;
2212.0;2137.1;;;;-0.16635515;0.97509015;0.19049457;;;;;;;;;;;;;;;
2212.0;2140.8;;;;;;;;;;;;;;;;;-3.154851;1.7242957;-1.1558886;;2023.8
2212.0;2140.8;;;;;;;;;;;;;;-0.5019074;-0.9124424;-0.046998505;;;;;2023.8
2212.0;2140.8;;;;;;;;;;;;;;;;;-2.4452956;1.842555;-1.6212958;;2023.8
2212.0;2140.8;;;;;;;;;;;;;;-0.49464402;-0.92123175;-0.038453322;;;;;2023.8
2212.0;2140.8;;;;;;;;;;;;;;;;;-1.7967772;1.6861477;-2.3308513;;2033.4
2212.0;2140.8;;;;;;;;;;;;;;-0.4862209;-0.9302652;-0.02764977;;;;;2033.4
2212.0;2140.8;;;;;;;;;;;;;;;;;-1.3084811;1.5488143;-3.238777;;2033.4
2212.0;2140.8;;;;;;;;;;;;;;-0.47889644;-0.9416791;-0.020996734;;;;;2033.4
2212.0;2140.8;;;;;;;;;;;;;;;;;-0.4730369;1.2512589;-4.3031096;;2043.1
2212.0;2140.8;;;;;;;;;;;;;;-0.4725486;-0.95437485;-0.010132145;;;;;2043.1
2212.0;2140.8;;;;;;;;;;;;;;;;;1.0567034;0.8507035;-5.7031465;;2043.1
2212.0;2140.8;;;;;;;;;;;;;;-0.46290475;-0.9696951;0.0023194067;;;;;2043.1
2212.0;2140.7;262143;262143;13278;;;;;;;;;;;;;;;;;;
2213.0;2141.5;;;;;;;;;;;;;;;;;3.2540362;0.5378887;-7.396924;;2052.8
2213.0;2141.5;;;;;;;;;;;;;;-0.4502701;-0.97994936;0.013000885;;;;;2052.8
2213.0;2141.5;;;;;;;;;;;;;;;;;5.7184057;0.3128147;-9.43022;;2052.8
2213.0;2141.5;;;;;;;;;;;;;;-0.43623158;-0.99301124;0.01861629;;;;;2052.8
2213.0;2141.5;;;;;;;;;;;;;;;;;8.033998;0.1678518;-11.844996;;2062.3
2213.0;2141.5;;;;;;;;;;;;;;-0.41724905;-1.0093081;0.01782281;;;;;2062.3
2213.0;2141.5;;;;;;;;;;;;;;;;;9.93759;0.29374066;-14.64507;;2062.3
2213.0;2141.5;;;;;;;;;;;;;;-0.3996704;-1.0250556;0.0113528855;;;;;2062.3
2213.0;2141.5;;;;;;;;;;;;;;;;;11.745811;0.6904813;-17.70455;;2072.0
2213.0;2141.5;;;;;;;;;;;;;;-0.37769708;-1.0427564;0.0051271096;;;;;2072.0
2213.0;2141.5;;;;;;;;;;;;;;;;;14.004181;1.3351848;-21.07303;;2072.0
2213.0;2141.5;;;;;;;;;;;;;;-0.35767692;-1.0583819;0.003967406;;;;;2072.0
2213.0;2146.3;;;;;;;;;;-2.0790737;-0.24414808;2.5521104;;;;;;;;;
2213.0;2146.3;;;;;;;0.18164617;-0.95883054;0.25421917;;;;;;;;;;;;
2213.0;2146.3;;;;;;;;;;-2.1973326;0.19837031;2.7962584;;;;;;;;;
2213.0;2146.3;;;;;;;0.18097477;-0.95919675;0.25464645;;;;;;;;;;;;
2213.0;2146.9;;;;-0.1669655;0.9791032;0.18924716;;;;;;;;;;;;;;;
2213.0;2146.9;;;;-0.1676674;0.98282635;0.18796924;;;;;;;;;;;;;;;
2213.0;2146.9;;;;-0.16875459;0.9861795;0.18690874;;;;;;;;;;;;;;;
2213.0;2146.9;;;;-0.16963197;0.9894029;0.18684389;;;;;;;;;;;;;;;
2213.0;2146.9;;;;-0.17070009;0.9926721;0.1865883;;;;;;;;;;;;;;;
2213.0;2155.9;;;;;;;;;;-2.2927032;0.6981109;3.0289621;;;;;;;;;
2213.0;2155.9;;;;;;;0.18073061;-0.9620045;0.25403607;;;;;;;;;;;;
2213.0;2155.9;;;;;;;;;;-2.4262216;1.1902219;3.276925;;;;;;;;;
2213.0;2155.9;;;;;;;0.17975402;-0.9624317;0.25550097;;;;;;;;;;;;
2265.0;2157.0;;;;-0.17145921;0.9955636;0.18622209;;;;;;;;;;;;;;;
2265.0;2157.0;;;;-0.17251207;0.9984323;0.18584444;;;;;;;;;;;;;;;
2265.0;2157.0;;;;-0.17342378;1.0014879;0.18582918;;;;;;;;;;;;;;;
2265.0;2157.0;;;;-0.17427446;1.0044786;0.18603899;;;;;;;;;;;;;;;
2265.0;2157.0;;;;-0.17567064;1.007229;0.18599321;;;;;;;;;;;;;;;
2265.0;2160.8;262143;262143;13275;;;;;;;;;;;;;;;;;;
2265.0;2165.5;;;;;;;;;;-2.601703;1.6556292;3.5058138;;;;;;;;;
2265.0;2165.5;;;;;;;0.17719047;-0.9634083;0.25629443;;;;;;;;;;;;
2265.0;2165.5;;;;;;;;;;-2.6818142;2.1248512;3.7766654;;;;;;;;;
2265.0;2165.5;;;;;;;0.1770684;-0.96676534;0.25666067;;;;;;;;;;;;
2265.0;2166.7;;;;;;;;;;;;;-515;;;;;;;;
2265.0;2166.7;;;;;;;;;;;;;4030;;;;;;;;
2265.0;2166.7;;;;;;;;;;;;;3318;;;;;;;;
2265.0;2166.7;;;;;;;;;;;;;2503;;;;;;;;
2265.0;2166.7;;;;;;;;;;;;;3209;;;;;;;;
2265.0;2167.1;;;;-0.17631532;1.0099107;0.18598558;;;;;;;;;;;;;;;
2265.0;2167.1;;;;-0.17675783;1.0123559;0.1854706;;;;;;;;;;;;;;;
2265.0;2167.1;;;;-0.17771913;1.0150033;0.18575288;;;;;;;;;;;;;;;
2265.0;2167.1;;;;-0.17866518;1.0178071;0.18521883;;;;;;;;;;;;;;;
2265.0;2167.1;;;;-0.1795273;1.0204927;0.18507005;;;;;;;;;;;;;;;
2265.0;2175.0;;;;;;;;;;-2.7390363;2.422407;4.039888;;;;;;;;;
2265.0;2175.0;;;;;;;0.17633595;-0.9682913;0.25666067;;;;;;;;;;;;
2265.0;2175.0;;;;;;;;;;-2.8000731;2.7581105;4.276406;;;;;;;;;
2265.0;2175.0;;;;;;;0.1777398;-0.96908474;0.25714895;;;;;;;;;;;;
2267.0;2177.0;;;;-0.18015672;1.023388;0.18490602;;;;;;;;;;;;;;;
2267.0;2177.0;;;;-0.180645;1.0265657;0.18512346;;;;;;;;;;;;;;;
2267.0;2177.0;;;;-0.18082048;1.0298387;0.1856003;;;;;;;;;;;;;;;
2267.0;2177.0;;;;-0.18099214;1.0325319;0.18631364;;;;;;;;;;;;;;;
2267.0;2177.0;;;;-0.18131639;1.0354425;0.186615;;;;;;;;;;;;;;;
2267.0;2180.9;262143;262143;13274;;;;;;;;;;;;;;;;;;
2267.0;2184.6;;;;;;;;;;-2.784814;2.9030733;4.448073;;;;;;;;;
2267.0;2184.6;;;;;;;0.17615284;-0.97268593;0.25763726;;;;;;;;;;;;
2267.0;2184.6;;;;;;;;;;-2.7962584;3.051851;4.631184;;;;;;;;;
2267.0;2184.6;;;;;;;0.17450483;-0.97219765;0.25702688;;;;;;;;;;;;
2267.0;2187.2;;;;-0.18132402;1.0383912;0.18695833;;;;;;;;;;;;;;;
2267.0;2187.2;;;;-0.18102647;1.0414315;0.18833163;;;;;;;;;;;;;;;
2267.0;2187.2;;;;-0.18077089;1.04414;0.19020465;;;;;;;;;;;;;;;
2267.0;2187.2;;;;-0.1804123;1.047062;0.19116214;;;;;;;;;;;;;;;
2267.0;2187.2;;;;-0.17918397;1.0508081;0.19191745;;;;;;;;;;;;;;;
2267.0;2194.2;;;;;;;;;;-2.7428513;3.1052582;4.8028507;;;;;;;;;
2267.0;2194.2;;;;;;;0.17596972;-0.9751274;0.25684378;;;;;;;;;;;;
2267.0;2194.2;;;;;;;;;;-2.7542956;3.0213325;4.974517;;;;;;;;;
2267.0;2194.2;;;;;;;0.17572558;-0.97665334;0.2563555;;;;;;;;;;;;
2269.0;2197.3;;;;-0.17839433;1.0538408;0.19292834;;;;;;;;;;;;;;;
2269.0;2197.3;;;;-0.17701341;1.0574609;0.1923218;;;;;;;;;;;;;;;
2269.0;2197.3;;;;-0.17482759;1.0607339;0.19188312;;;;;;;;;;;;;;;
2269.0;2197.3;;;;-0.17253114;1.0637895;0.19136813;;;;;;;;;;;;;;;
2269.0;2197.3;;;;-0.16973497;1.0666429;0.19066623;;;;;;;;;;;;;;;
2269.0;2201.6;;;;;;;;;;;;;;;;;16.762293;2.2812586;-24.750511;;2081.6
2269.0;2201.6;;;;;;;;;;;;;;-0.3322245;-1.0737633;0.0047608875;;;;;2081.6
2269.0;2201.6;;;;;;;;;;;;;;;;;19.428846;3.6927397;-28.736992;;2081.6
2269.0;2201.6;;;;;;;;;;;;;;-0.3075045;-1.0885342;0.0050050355;;;;;2081.6
2269.0;2201.6;;;;;;;;;;;;;;;;;21.568956;5.7832575;-33.150734;;2091.3
2269.0;2201.6;;;;;;;;;;;;;;-0.2817469;-1.1075778;0.0023194067;;;;;2091.3
2269.0;2201.6;;;;;;;;;;;;;;;;;22.984253;8.369701;-37.83151;;2091.3
2269.0;2201.6;;;;;;;;;;;;;;-0.2612995;-1.1291848;-0.0051881466;;;;;2091.3
2269.0;2201.6;;;;;;;;;;;;;;;;;24.086735;10.9904785;-42.703026;;2101.0
2269.0;2201.6;;;;;;;;;;;;;;-0.2446974;-1.1583606;-0.012512589;;;;;2101.0
2269.0;2201.6;;;;;;;;;;;;;;;;;25.109102;13.439589;-47.74621;;2101.0
2269.0;2201.6;;;;;;;;;;;;;;-0.23102511;-1.190466;-0.018066958;;;;;2101.0
2269.0;2201.1;262143;262143;13268;;;;;;;;;;;;;;;;;;
2272.0;2202.3;;;;;;;;;;;;;;;;;26.268806;15.457625;-52.735985;;2110.6
2272.0;2202.3;;;;;;;;;;;;;;-0.21955016;-1.2179327;-0.023438215;;;;;2110.6
2272.0;2202.3;;;;;;;;;;;;;;;;;27.893917;16.964476;-57.603687;;2110.6
2272.0;2202.3;;;;;;;;;;;;;;-0.21509446;-1.241615;-0.014831996;;;;;2110.6
2272.0;2202.3;;;;;;;;;;;;;;;;;30.16373;17.582476;-62.238686;;2120.3
2272.0;2202.3;;;;;;;;;;;;;;-0.21326335;-1.2584002;0.008789331;;;;;2120.3
2272.0;2202.3;;;;;;;;;;;;;;;;;32.994324;17.460402;-66.625725;;2120.3
2272.0;2202.3;;;;;;;;;;;;;;-0.21784112;-1.2701803;0.03399762;;;;;2120.3
2272.0;2202.3;;;;;;;;;;;;;;;;;35.714287;17.208624;-70.33753;;2129.9
2272.0;2202.3;;;;;;;;;;;;;;-0.25055698;-1.2625507;0.061830502;;;;;2129.9
2272.0;2202.3;;;;;;;;;;;;;;;;;37.99173;16.68981;-73.61065;;2129.9
2272.0;2202.3;;;;;;;;;;;;;;-0.27594838;-1.2703635;0.081240274;;;;;2129.9
2272.0;2203.7;;;;;;;;;;-2.6894438;2.906888;5.077517;;;;;;;;;
2272.0;2203.7;;;;;;;0.17389446;-0.97830135;0.25721;;;;;;;;;;;;
2272.0;2203.7;;;;;;;;;;-2.5673697;2.7771842;5.138554;;;;;;;;;
2272.0;2203.7;;;;;;;0.17468795;-0.97848445;0.25873592;;;;;;;;;;;;
2272.0;2206.9;;;;;;;;;;;;;3421;;;;;;;;
2272.0;2206.9;;;;;;;;;;;;;2944;;;;;;;;
2272.0;2206.9;;;;;;;;;;;;;2809;;;;;;;;
2272.0;2206.9;;;;;;;;;;;;;2829;;;;;;;;
2272.0;2206.9;;;;;;;;;;;;;2935;;;;;;;;
2272.0;2207.2;;;;-0.16674806;1.0697137;0.18922427;;;;;;;;;;;;;;;
2272.0;2207.2;;;;-0.16285707;1.0724031;0.18810657;;;;;;;;;;;;;;;
2272.0;2207.2;;;;-0.1595688;1.0737725;0.1855507;;;;;;;;;;;;;;;
2272.0;2207.2;;;;-0.15639497;1.0744783;0.18329622;;;;;;;;;;;;;;;
2272.0;2207.2;;;;-0.15336992;1.0740205;0.18061067;;;;;;;;;;;;;;;
2273.0;2213.3;;;;;;;;;;-2.4872584;2.4491103;5.3025913;;;;;;;;;
2273.0;2213.3;;;;;;;0.17389446;-0.9807428;0.25739312;;;;;;;;;;;;
2273.0;2213.3;;;;;;;;;;-2.399518;2.189703;5.3178506;;;;;;;;;
2273.0;2213.3;;;;;;;0.17590868;-0.9832453;0.2567217;;;;;;;;;;;;
2273.0;2216.1;;;;;;;;;;;;;;;;;40.47899;16.434217;-76.6625;;2139.5
2273.0;2216.1;;;;;;;;;;;;;;-0.23773919;-1.3231605;0.08355968;;;;;2139.5
2273.0;2216.1;;;;;;;;;;;;;;;;;43.919952;18.486588;-79.33668;;2139.5
2273.0;2216.1;;;;;;;;;;;;;;-0.24463637;-1.335612;0.10687582;;;;;2139.5
2273.0;2216.1;;;;;;;;;;;;;;;;;47.181618;20.3444;-81.347084;;2149.2
2273.0;2216.1;;;;;;;;;;;;;;-0.2809534;-1.3361614;0.11413923;;;;;2149.2
2273.0;2216.1;;;;;;;;;;;;;;;;;50.847652;20.989105;-83.2049;;2149.2
2273.0;2216.1;;;;;;;;;;;;;;-0.34028137;-1.3159581;0.13055818;;;;;2149.2
2273.0;2216.1;;;;;;;;;;;;;;;;;53.693504;19.886623;-85.20005;;2158.7
2273.0;2216.1;;;;;;;;;;;;;;-0.37391278;-1.3117466;0.12781152;;;;;2158.7
2273.0;2216.1;;;;;;;;;;;;;;;;;55.79165;18.921476;-86.783195;;2158.7
2273.0;2216.1;;;;;;;;;;;;;;-0.42353588;-1.2898343;0.12091433;;;;;2158.7
2273.0;2217.1;;;;-0.15034105;1.0728952;0.17803575;;;;;;;;;;;;;;;
2273.0;2217.1;;;;-0.1474457;1.0711671;0.1754532;;;;;;;;;;;;;;;
2273.0;2217.1;;;;-0.14411546;1.0689012;0.17235185;;;;;;;;;;;;;;;
2273.0;2217.1;;;;-0.1408806;1.0663949;0.1695862;;;;;;;;;;;;;;;
2273.0;2217.1;;;;-0.1380005;1.0632936;0.16677095;;;;;;;;;;;;;;;
2273.0;2221.0;262143;262143;13276;;;;;;;;;;;;;;;;;;
2326.0;2222.7;;;;;;;;;;-2.2812586;1.9264809;5.287332;;;;;;;;;
2326.0;2222.7;;;;;;;0.17456588;-0.98556477;0.25879696;;;;;;;;;;;;
2326.0;2222.7;;;;;;;;;;-2.193518;1.5717032;5.245369;;;;;;;;;
2326.0;2222.7;;;;;;;0.17456588;-0.98568684;0.25898007;;;;;;;;;;;;
2326.0;2227.2;;;;-0.13468553;1.0606042;0.16477586;;;;;;;;;;;;;;;
2326.0;2227.2;;;;-0.13152315;1.0577966;0.16238405;;;;;;;;;;;;;;;
2326.0;2227.2;;;;-0.12829591;1.0555764;0.16084291;;;;;;;;;;;;;;;
2326.0;2227.2;;;;-0.12480165;1.0528527;0.15825655;;;;;;;;;;;;;;;
2326.0;2227.2;;;;-0.12155153;1.0507509;0.15461732;;;;;;;;;;;;;;;
2326.0;2231.9;;;;;;;;;;-2.0371106;1.2550737;5.1957765;;;;;;;;;
2326.0;2231.9;;;;;;;0.17554247;-0.98837245;0.25794244;;;;;;;;;;;;
2326.0;2231.9;;;;;;;;;;-1.8997772;0.93844414;5.0851464;;;;;;;;;
2326.0;2231.9;;;;;;;0.1732841;-0.990997;0.25959045;;;;;;;;;;;;
2326.0;2236.8;;;;-0.11807634;1.0483819;0.15190889;;;;;;;;;;;;;;;
2326.0;2236.8;;;;-0.11445619;1.0466806;0.1496277;;;;;;;;;;;;;;;
2326.0;2236.8;;;;-0.110496536;1.0455362;0.14638521;;;;;;;;;;;;;;;
2326.0;2236.8;;;;-0.10644151;1.0438653;0.14351274;;;;;;;;;;;;;;;
2326.0;2236.8;;;;-0.10183717;1.0427629;0.140934;;;;;;;;;;;;;;;
2326.0;2240.7;262143;262143;13272;;;;;;;;;;;;;;;;;;
2326.0;2241.4;;;;;;;;;;-1.7586291;0.6714072;4.9668875;;;;;;;;;
2326.0;2241.4;;;;;;;0.17603077;-0.99197364;0.2603229;;;;;;;;;;;;
2326.0;2241.4;;;;;;;;;;-1.5602587;0.48066652;4.8142953;;;;;;;;;
2326.0;2241.4;;;;;;;0.17712943;-0.9945982;0.25916317;;;;;;;;;;;;
2328.0;2246.6;;;;;;;;;;;;;3160;;;;;;;;
2328.0;2246.6;;;;;;;;;;;;;3178;;;;;;;;
2328.0;2246.6;;;;;;;;;;;;;2925;;;;;;;;
2328.0;2246.6;;;;;;;;;;;;;2675;;;;;;;;
2328.0;2246.6;;;;;;;;;;;;;2671;;;;;;;;
2328.0;2246.9;;;;-0.09650041;1.041443;0.13842393;;;;;;;;;;;;;;;
2328.0;2246.9;;;;-0.09073258;1.0399324;0.13499452;;;;;;;;;;;;;;;
2328.0;2246.9;;;;-0.08493806;1.0380975;0.1319008;;;;;;;;;;;;;;;
2328.0;2246.9;;;;-0.078990944;1.0354196;0.12891771;;;;;;;;;;;;;;;
2328.0;2246.9;;;;-0.07292939;1.0313646;0.12542726;;;;;;;;;;;;;;;
2328.0;2251.0;;;;;;;;;;-1.4725181;0.19837031;4.6121097;;;;;;;;;
2328.0;2251.0;;;;;;;0.17950988;-0.9936827;0.2592242;;;;;;;;;;;;
2328.0;2251.0;;;;;;;;;;-1.3008515;0.0038148137;4.3946652;;;;;;;;;
2328.0;2251.0;;;;;;;0.1788995;-0.9962462;0.26081118;;;;;;;;;;;;
2328.0;2257.0;;;;-0.06721116;1.0264436;0.12218858;;;;;;;;;;;;;;;
2328.0;2257.0;;;;-0.062732704;1.0205766;0.11870958;;;;;;;;;;;;;;;
2328.0;2257.0;;;;-0.058403023;1.0145761;0.11550142;;;;;;;;;;;;;;;
2328.0;2257.0;;;;-0.054588325;1.0077592;0.11343767;;;;;;;;;;;;;;;
2328.0;2257.0;;;;-0.05125428;1.0010072;0.11062242;;;;;;;;;;;;;;;
2328.0;2260.6;;;;;;;;;;-1.1101108;-0.17929624;4.119999;;;;;;;;;
2328.0;2260.6;;;;;;;0.17865536;-0.99557483;0.25946838;;;;;;;;;;;;
2328.0;2260.6;;;;;;;;;;-0.86214787;-0.34333324;3.910184;;;;;;;;;
2328.0;2260.6;;;;;;;0.18079165;-0.9966124;0.26123846;;;;;;;;;;;;
2331.0;2261.0;;;;;;;;;;;;;;;;;56.44398;17.445143;-88.26335;;2168.4
2331.0;2261.0;;;;;;;;;;;;;;-0.4611957;-1.2753074;0.096926786;;;;;2168.4
2331.0;2261.0;;;;;;;;;;;;;;;;;56.60039;15.243996;-90.10971;;2168.4
2331.0;2261.0;;;;;;;;;;;;;;-0.5213782;-1.2496719;0.08355968;;;;;2168.4
2331.0;2261.0;;;;;;;;;;;;;;;;;56.478317;9.281442;-92.56645;;2178.1
2331.0;2261.0;;;;;;;;;;;;;;-0.5577563;-1.2138432;0.081240274;;;;;2178.1
2331.0;2261.0;;;;;;;;;;;;;;;;;56.524094;3.0899992;-95.63357;;2178.1
