patientId;holterMac;flexMac;;;;;;;;;;;;;;;;;;;;
;CA:F3:0B:1E:33:78;D3:4A:5C:52:80:78;;;;;;;;;;;;;;;;;;;;
receivedTimeStamp;timeStamp;red;ir;green;adxl_accX;adxl_accY;adxl_accZ;lsm_accelX;lsm_accelY;lsm_accelZ;lsm_gyroX;lsm_gyroY;lsm_gyroZ;ecg;flex_lsm_accelX;flex_lsm_accelY;flex_lsm_accelZ;flex_lsm_gyroX;flex_lsm_gyroY;flex_lsm_gyroZ;flex_cmd;flexTimeStamp
319.0;279.7;;;;;;;;;;;;;;;;;;;;17;0.1
319.0;279.7;;;;;;;;;;;;;;;;;13.203071;-0.45014802;1.6670736;;127.2
319.0;279.7;;;;;;;;;;;;;;0.8692282;-0.2542802;-0.31891844;;;;;127.2
319.0;279.7;;;;;;;;;;;;;;;;;-5.645924;-19.066439;-7.045961;;127.2
319.0;279.7;;;;;;;;;;;;;;0.9049348;-0.25721;-0.32520524;;;;;127.2
319.0;279.7;;;;;;;;;;;;;;;;;-64.24909;-84.68505;-61.941128;;136.8
319.0;279.7;;;;;;;;;;;;;;0.90517896;-0.2529374;-0.3209937;;;;;136.8
319.0;279.7;;;;;;;;;;;;;;;;;-122.34107;-124.988556;-120.04837;;136.8
319.0;279.7;;;;;;;;;;;;;;0.9074374;-0.2478103;-0.3175756;;;;;136.8
323.0;280.4;;;;;;;;;;;;;;;;;-58.46965;-124.82452;-76.60528;;146.5
323.0;280.4;;;;;;;;;;;;;;0.9067049;-0.24225593;-0.3124485;;;;;146.5
323.0;280.4;;;;;;;;;;;;;;;;;7.8356276;-124.80163;-27.2454;;146.5
323.0;280.4;;;;;;;;;;;;;;0.9053621;-0.23731193;-0.31391338;;;;;146.5
323.0;280.4;;;;;;;;;;;;;;;;;3.627888;-95.591606;-18.135624;;156.2
323.0;280.4;;;;;;;;;;;;;;0.90426344;-0.23340556;-0.3120823;;;;;156.2
323.0;280.4;;;;;;;;;;;;;;;;;-3.6736658;-4.753258;7.0535903;;156.2
323.0;280.4;;;;;;;;;;;;;;0.8998688;-0.23065889;-0.31446272;;;;;156.2
323.0;280.4;;;;;;;;;;;;;;;;;-4.6540728;2.010407;8.949553;;165.8
323.0;280.4;;;;;;;;;;;;;;0.89602345;-0.22553179;-0.31849116;;;;;165.8
323.0;280.4;;;;;;;;;;;;;;;;;-4.6807766;1.2779626;9.12122;;165.8
323.0;280.4;;;;;;;;;;;;;;0.89400923;-0.22486039;-0.3233131;;;;;165.8
323.0;281.3;;;;;;;;;;;;;;;;;-4.467147;0.18692587;9.559923;;175.5
323.0;281.3;;;;;;;;;;;;;;0.8946806;-0.22620319;-0.33246863;;;;;175.5
323.0;281.3;;;;;;;;;;;;;;;;;-4.032258;-1.167333;9.63622;;175.5
323.0;281.3;;;;;;;;;;;;;;0.8987701;-0.22760704;-0.33893856;;;;;175.5
323.0;281.3;;;;;;;;;;;;;;;;;-3.5592213;-2.2164068;9.9642935;;185.2
323.0;281.3;;;;;;;;;;;;;;0.9007843;-0.2367626;-0.33930477;;;;;185.2
323.0;281.3;;;;;;;;;;;;;;;;;-3.0137029;-2.7581105;10.242775;;185.2
323.0;281.3;;;;;;;;;;;;;;0.9051179;-0.23847163;-0.33515427;;;;;185.2
323.0;281.3;;;;;;;;;;;;;;;;;-2.1973326;-2.5521104;10.040589;;194.8
323.0;281.3;;;;;;;;;;;;;;0.9049348;-0.2414014;-0.32996613;;;;;194.8
323.0;281.3;;;;;;;;;;;;;;;;;-1.2550737;-2.010407;9.876553;;194.8
323.0;281.3;;;;;;;;;;;;;;0.9015168;-0.24719992;-0.32880643;;;;;194.8
495.0;282.1;;;;;;;;;;;;;;;;;0.022888882;-1.209296;9.460738;;204.5
495.0;282.1;;;;;;;;;;;;;;0.89474165;-0.2418897;-0.33161414;;;;;204.5
495.0;282.1;;;;;;;;;;;;;;;;;1.0910367;-0.39674062;9.056368;;204.5
495.0;282.1;;;;;;;;;;;;;;0.8844264;-0.23377179;-0.33216345;;;;;204.5
495.0;282.1;;;;;;;;;;;;;;;;;1.8730735;0.2784814;8.903775;;214.2
495.0;282.1;;;;;;;;;;;;;;0.87838376;-0.23487045;-0.3345439;;;;;214.2
495.0;282.1;;;;;;;;;;;;;;;;;2.395703;0.7324442;8.682516;;214.2
495.0;282.1;;;;;;;;;;;;;;0.87496567;-0.23523667;-0.33497116;;;;;214.2
495.0;282.1;;;;;;;;;;;;;;;;;2.6741846;1.083407;8.564257;;223.8
495.0;282.1;;;;;;;;;;;;;;0.8743553;-0.23541978;-0.3317362;;;;;223.8
495.0;282.1;;;;;;;;;;;;;;;;;2.6284068;1.0757774;8.491775;;223.8
495.0;282.1;;;;;;;;;;;;;;0.8726463;-0.23419905;-0.3345439;;;;;223.8
495.0;460.5;;;;;;;;;;;;;;;;;2.3422956;1.0071108;8.48033;;233.4
495.0;460.5;;;;;;;;;;;;;;0.87618643;-0.23645741;-0.33936584;;;;;233.4
495.0;460.5;;;;;;;;;;;;;;;;;1.6975921;1.0147405;8.571886;;233.4
495.0;460.5;;;;;;;;;;;;;;0.8863796;-0.23438215;-0.33930477;;;;;233.4
495.0;460.5;;;;;;;;;;;;;;;;;0.9498886;1.1329997;8.697775;;242.9
495.0;460.5;;;;;;;;;;;;;;0.8879666;-0.23364972;-0.34235665;;;;;242.9
495.0;460.5;;;;;;;;;;;;;;;;;0.16022217;1.1406293;8.903775;;242.9
495.0;460.5;;;;;;;;;;;;;;0.8897977;-0.23285623;-0.347911;;;;;242.9
495.0;460.5;;;;;;;;;;;;;;;;;-0.5645924;0.5874813;9.029664;;252.5
495.0;460.5;;;;;;;;;;;;;;0.8895535;-0.23645741;-0.35657826;;;;;252.5
495.0;460.5;;;;;;;;;;;;;;;;;-1.2207403;0.16022217;9.258553;;252.5
495.0;460.5;;;;;;;;;;;;;;0.8910794;-0.23865475;-0.3609119;;;;;252.5
497.0;461.6;;;;;;;;;;;;;;;;;-1.7700735;-0.6218146;9.376812;;262.2
497.0;461.6;;;;;;;;;;;;;;0.89223915;-0.23828852;-0.36646625;;;;;262.2
497.0;461.6;;;;;;;;;;;;;;;;;-2.1362956;-1.1902219;9.262368;;262.2
497.0;461.6;;;;;;;;;;;;;;0.8916288;-0.23883785;-0.37055573;;;;;262.2
497.0;461.6;;;;;;;;;;;;;;;;;-2.395703;-1.3504441;9.170813;;271.9
497.0;461.6;;;;;;;;;;;;;;0.88827175;-0.24726096;-0.36805323;;;;;271.9
497.0;461.6;;;;;;;;;;;;;;;;;-2.4033327;-1.5869625;8.960998;;271.9
497.0;461.6;;;;;;;;;;;;;;0.88808864;-0.2405469;-0.3653676;;;;;271.9
497.0;461.6;;;;;;;;;;;;;;;;;-2.5025177;-1.495407;8.560442;;281.5
497.0;461.6;;;;;;;;;;;;;;0.8844264;-0.22608112;-0.3615833;;;;;281.5
497.0;461.6;;;;;;;;;;;;;;;;;-2.5978882;-1.4000366;8.266702;;281.5
497.0;461.6;;;;;;;;;;;;;;0.87856686;-0.22931609;-0.36127812;;;;;281.5
497.0;462.5;;;;;;;;;;;;;;;;;-2.5063326;-1.2665181;7.9195538;;291.2
497.0;462.5;;;;;;;;;;;;;;0.88125247;-0.23267312;-0.35987428;;;;;291.2
497.0;462.5;;;;;;;;;;;;;;;;;-2.128666;-0.8278146;7.6029234;;291.2
497.0;462.5;;;;;;;;;;;;;;0.880459;-0.23816645;-0.3518784;;;;;291.2
497.0;462.5;;;;;;;;;;;;;;;;;-1.6479995;-0.73625904;7.248146;;300.8
497.0;462.5;;;;;;;;;;;;;;0.8843654;-0.23157445;-0.34662923;;;;;300.8
497.0;462.5;;;;;;;;;;;;;;;;;-1.1024811;-0.73625904;6.8742943;;300.8
497.0;462.5;;;;;;;;;;;;;;0.88753927;-0.2247383;-0.342967;;;;;300.8
497.0;462.5;;;;;;;;;;;;;;;;;-0.9193701;-0.8735923;6.492813;;310.5
497.0;462.5;;;;;;;;;;;;;;0.8880276;-0.23584704;-0.34089175;;;;;310.5
497.0;462.5;;;;;;;;;;;;;;;;;-0.6447035;-0.7477035;6.1418505;;310.5
497.0;462.5;;;;;;;;;;;;;;0.88753927;-0.24658956;-0.3424177;;;;;310.5
499.0;463.3;;;;;;;;;;;;;;;;;-0.35096285;-0.5340739;5.5887017;;320.1
499.0;463.3;;;;;;;;;;;;;;0.887112;-0.24561296;-0.33942688;;;;;320.1
499.0;463.3;;;;;;;;;;;;;;;;;0.26322216;-0.5302591;4.871517;;320.1
499.0;463.3;;;;;;;;;;;;;;0.87398905;-0.23639637;-0.34107485;;;;;320.1
499.0;463.3;;;;;;;;;;;;;;;;;0.79729605;-1.2512589;4.4328136;;329.8
499.0;463.3;;;;;;;;;;;;;;0.8661153;-0.24036378;-0.342967;;;;;329.8
499.0;463.3;;;;;;;;;;;;;;;;;1.3008515;-2.639851;4.1123695;;329.8
499.0;463.3;;;;;;;;;;;;;;0.85891294;-0.26410717;-0.3538316;;;;;329.8
499.0;463.3;;;;;;;;;;;;;;;;;1.8387402;-3.9216285;3.6545916;;339.3
499.0;463.3;;;;;;;;;;;;;;0.86178166;-0.22510453;-0.35639516;;;;;339.3
499.0;463.3;;;;;;;;;;;;;;;;;2.2164068;-4.863888;3.5515916;;339.3
499.0;463.3;;;;;;;;;;;;;;0.84163946;-0.2482986;-0.35273293;;;;;339.3
499.0;464.0;;;;;;;;;;;;;;;;;2.4491103;-6.550035;3.379925;;349.0
499.0;464.0;;;;;;;;;;;;;;0.8481704;-0.27069917;-0.35700554;;;;;349.0
499.0;464.0;;;;;;;;;;;;;;;;;3.2540362;-7.2824793;2.7771842;;349.0
499.0;464.0;;;;;;;;;;;;;;0.8535417;-0.24329355;-0.35047457;;;;;349.0
499.0;464.0;;;;;;;;;;;;;;;;;4.1924806;-7.457961;2.3270364;;358.6
499.0;464.0;;;;;;;;;;;;;;0.84090704;-0.2547075;-0.34473708;;;;;358.6
499.0;464.0;;;;;;;;;;;;;;;;;4.9439983;-8.152257;1.9608142;;358.6
499.0;464.0;;;;;;;;;;;;;;0.8435316;-0.28125858;-0.35273293;;;;;358.6
499.0;464.0;;;;;;;;;;;;;;;;;6.2715535;-8.18659;1.3046663;;368.3
499.0;464.0;;;;;;;;;;;;;;0.8545183;-0.25611132;-0.35175633;;;;;368.3
499.0;464.0;;;;;;;;;;;;;;;;;7.351146;-7.637257;0.8697775;;368.3
499.0;464.0;;;;;;;;;;;;;;0.84542376;-0.270394;-0.3477279;;;;;368.3
558.0;475.5;;;;;;;;;;;;;;;;;8.10648;-7.8394423;0.6485183;;377.9
558.0;475.5;;;;;;;;;;;;;;0.8498184;-0.29865414;-0.35499132;;;;;377.9
558.0;475.5;;;;;;;;;;;;;;;;;8.865627;-7.4274426;0.32425916;;377.9
558.0;475.5;;;;;;;;;;;;;;0.86355174;-0.27112645;-0.3564562;;;;;377.9
558.0;475.5;;;;;;;;;;;;;;;;;9.193701;-6.653035;0.35477766;;387.6
558.0;475.5;;;;;;;;;;;;;;0.8534196;-0.28974274;-0.3518784;;;;;387.6
558.0;475.5;;;;;;;;;;;;;;;;;9.094516;-6.530961;0.4730369;;387.6
558.0;475.5;;;;;;;;;;;;;;0.858974;-0.29786065;-0.35602894;;;;;387.6
558.0;475.5;;;;;;;;;;;;;;;;;9.01822;-6.008332;0.48448133;;397.3
558.0;475.5;;;;;;;;;;;;;;0.8636128;-0.28254035;-0.35499132;;;;;397.3
558.0;475.5;;;;;;;;;;;;;;;;;8.785516;-5.6573687;0.6904813;;397.3
558.0;475.5;;;;;;;;;;;;;;0.85781425;-0.29883724;-0.35291603;;;;;397.3
558.0;520.4;;;;;;;;;;;;;;;;;8.674886;-5.981628;0.92699975;;406.8
558.0;520.4;;;;;;;;;;;;;;0.86355174;-0.30762658;-0.35834834;;;;;406.8
558.0;520.4;;;;;;;;;;;;;;;;;8.945738;-5.9244056;1.045259;;406.8
558.0;520.4;;;;;;;;;;;;;;0.8601947;-0.29169592;-0.3620716;;;;;406.8
558.0;520.4;;;;;;;;;;;;;;;;;9.109776;-5.996887;1.3847773;;416.3
558.0;520.4;;;;;;;;;;;;;;0.85842466;-0.29981384;-0.35230568;;;;;416.3
558.0;520.4;;;;;;;;;;;;;;;;;9.533219;-6.672109;1.4000366;;416.3
558.0;520.4;;;;;;;;;;;;;;0.8593402;-0.28711814;-0.34803307;;;;;416.3
558.0;520.4;;;;;;;;;;;;;;;;;9.983367;-6.7293315;1.53737;;425.9
558.0;520.4;;;;;;;;;;;;;;0.8598895;-0.2979217;-0.33344522;;;;;425.9
558.0;520.4;;;;;;;;;;;;;;;;;10.406812;-6.8170724;1.4038514;;425.9
558.0;520.4;;;;;;;;;;;;;;0.868923;-0.2840663;-0.3230079;;;;;425.9
618.0;521.1;;;;;;;;;;;;;;;;;10.879849;-5.8709984;1.3885921;;435.4
618.0;521.1;;;;;;;;;;;;;;0.8745384;-0.2741783;-0.30646688;;;;;435.4
618.0;521.1;;;;;;;;;;;;;;;;;10.979034;-4.886776;1.4152958;;435.4
618.0;521.1;;;;;;;;;;;;;;0.875515;-0.26606035;-0.29242834;;;;;435.4
618.0;521.1;;;;;;;;;;;;;;;;;10.628071;-3.8377025;1.6098514;;445.1
618.0;521.1;;;;;;;;;;;;;;0.8743553;-0.26691487;-0.28693503;;;;;445.1
618.0;521.1;;;;;;;;;;;;;;;;;9.842219;-3.154851;2.0218513;;445.1
618.0;521.1;;;;;;;;;;;;;;0.8872951;-0.24634542;-0.28040406;;;;;445.1
618.0;521.1;;;;;;;;;;;;;;;;;8.571886;-2.582629;2.8382213;;454.7
618.0;521.1;;;;;;;;;;;;;;0.8901639;-0.24750511;-0.27326274;;;;;454.7
618.0;521.1;;;;;;;;;;;;;;;;;6.6759243;-2.395703;3.6774805;;454.7
618.0;521.1;;;;;;;;;;;;;;0.9009064;-0.24225593;-0.27381206;;;;;454.7
618.0;580.9;;;;;;;;;;;;;;;;;4.4938507;-1.781518;4.627369;;464.4
618.0;580.9;;;;;;;;;;;;;;0.9067049;-0.24390393;-0.2725303;;;;;464.4
618.0;580.9;;;;;;;;;;;;;;;;;2.166814;-0.87740713;5.6802573;;464.4
618.0;580.9;;;;;;;;;;;;;;0.908475;-0.23651844;-0.2679525;;;;;464.4
618.0;580.9;;;;;;;;;;;;;;;;;-0.4730369;-0.42344433;6.725517;;474.1
618.0;580.9;;;;;;;;;;;;;;0.90499586;-0.227546;-0.2642903;;;;;474.1
618.0;580.9;;;;;;;;;;;;;;;;;-3.2502213;-0.38148138;7.8127384;;474.1
618.0;580.9;;;;;;;;;;;;;;0.9012726;-0.24854274;-0.26471755;;;;;474.1
618.0;580.9;;;;;;;;;;;;;;;;;-5.687887;-0.08011109;8.587145;;483.5
618.0;580.9;;;;;;;;;;;;;;0.8964507;-0.24597919;-0.26367992;;;;;483.5
618.0;580.9;;;;;;;;;;;;;;;;;-7.4541464;0.20599994;9.483627;;483.5
618.0;580.9;;;;;;;;;;;;;;0.88576925;-0.23541978;-0.26258126;;;;;483.5
676.0;581.7;;;;;;;;;;;;;;;;;-9.281442;0.30518508;10.448774;;493.2
676.0;581.7;;;;;;;;;;;;;;0.87362283;-0.23615223;-0.26746422;;;;;493.2
676.0;581.7;;;;;;;;;;;;;;;;;-10.799738;0.12207404;11.616108;;493.2
676.0;581.7;;;;;;;;;;;;;;0.86587113;-0.24365978;-0.2783288;;;;;493.2
676.0;581.7;;;;;;;;;;;;;;;;;-11.764886;-0.27466658;12.802515;;502.8
676.0;581.7;;;;;;;;;;;;;;0.86733603;-0.24854274;-0.29041412;;;;;502.8
676.0;581.7;;;;;;;;;;;;;;;;;-12.569811;-0.6179998;14.023255;;502.8
676.0;581.7;;;;;;;;;;;;;;0.87527084;-0.23944822;-0.3043306;;;;;502.8
676.0;581.7;;;;;;;;;;;;;;;;;-13.4891815;-0.7705924;15.312662;;512.5
676.0;581.7;;;;;;;;;;;;;;0.88735616;-0.24634542;-0.32312998;;;;;512.5
676.0;581.7;;;;;;;;;;;;;;;;;-14.381847;-0.38911098;16.506699;;512.5
676.0;581.7;;;;;;;;;;;;;;0.9049348;-0.24890897;-0.3426008;;;;;512.5
676.0;641.4;;;;;;;;;;;;;;;;;-15.02655;0.45777765;17.30781;;522.2
676.0;641.4;;;;;;;;;;;;;;0.9186071;-0.2496414;-0.36072877;;;;;522.2
676.0;641.4;;;;;;;;;;;;;;;;;-15.808588;1.8578143;17.59392;;522.2
676.0;641.4;;;;;;;;;;;;;;0.92587054;-0.2603229;-0.37769708;;;;;522.2
676.0;641.4;;;;;;;;;;;;;;;;;-16.834774;3.5058138;17.998291;;531.8
676.0;641.4;;;;;;;;;;;;;;0.9324015;-0.2796716;-0.38575396;;;;;531.8
676.0;641.4;;;;;;;;;;;;;;;;;-17.391735;4.81048;18.02118;;531.8
676.0;641.4;;;;;;;;;;;;;;0.9353313;-0.2929777;-0.39228493;;;;;531.8
676.0;641.4;;;;;;;;;;;;;;;;;-17.58629;5.672628;17.990662;;541.4
676.0;641.4;;;;;;;;;;;;;;0.92947173;-0.2989593;-0.40076905;;;;;541.4
676.0;641.4;;;;;;;;;;;;;;;;;-17.990662;6.126591;17.90292;;541.4
676.0;641.4;;;;;;;;;;;;;;0.92104864;-0.30268258;-0.40473646;;;;;541.4
737.0;642.1;;;;;;;;;;;;;;;;;-18.23481;6.0960727;17.975403;;551.0
737.0;642.1;;;;;;;;;;;;;;0.9151891;-0.34369946;-0.40321055;;;;;551.0
737.0;642.1;;;;;;;;;;;;;;;;;-17.429884;6.1418505;17.73507;;551.0
737.0;642.1;;;;;;;;;;;;;;0.9132359;-0.36017945;-0.40522477;;;;;551.0
737.0;642.1;;;;;;;;;;;;;;;;;-15.003662;6.4203315;17.082735;;560.7
737.0;642.1;;;;;;;;;;;;;;0.908536;-0.36103398;-0.40418714;;;;;560.7
737.0;642.1;;;;;;;;;;;;;;;;;-12.318034;6.8895535;16.273996;;560.7
737.0;642.1;;;;;;;;;;;;;;0.8973052;-0.36201057;-0.39667958;;;;;560.7
737.0;642.1;;;;;;;;;;;;;;;;;-9.846034;6.9620347;15.457625;;570.3
737.0;642.1;;;;;;;;;;;;;;0.88991976;-0.34864345;-0.39466536;;;;;570.3
737.0;642.1;;;;;;;;;;;;;;;;;-7.2252574;7.4846644;14.728996;;570.3
737.0;642.1;;;;;;;;;;;;;;0.88003176;-0.3480941;-0.38904995;;;;;570.3
737.0;701.3;;;;;;;;;;;;;;;;;-4.4785914;8.335368;14.316996;;580.0
737.0;701.3;;;;;;;;;;;;;;0.880398;-0.36744285;-0.37696463;;;;;580.0
737.0;701.3;;;;;;;;;;;;;;;;;-1.1749626;8.735923;13.328959;;580.0
737.0;701.3;;;;;;;;;;;;;;0.8763085;-0.33967102;-0.37800226;;;;;580.0
737.0;701.3;;;;;;;;;;;;;;;;;1.7548143;9.300516;12.462996;;589.5
737.0;701.3;;;;;;;;;;;;;;0.86013365;-0.31434065;-0.3780633;;;;;589.5
737.0;701.3;;;;;;;;;;;;;;;;;4.0513325;8.930479;12.150182;;589.5
737.0;701.3;;;;;;;;;;;;;;0.858974;-0.30414745;-0.38380077;;;;;589.5
737.0;701.3;;;;;;;;;;;;;;;;;6.2067018;8.171331;11.837367;;599.2
737.0;701.3;;;;;;;;;;;;;;0.8598285;-0.29663992;-0.40021974;;;;;599.2
737.0;701.3;;;;;;;;;;;;;;;;;8.331553;7.820368;11.459701;;599.2
737.0;701.3;;;;;;;;;;;;;;0.8548845;-0.3053682;-0.41639453;;;;;599.2
796.0;702.0;;;;;;;;;;;;;;;;;10.860775;7.526627;10.902738;;608.9
796.0;702.0;;;;;;;;;;;;;;0.85085607;-0.32673118;-0.42780846;;;;;608.9
796.0;702.0;;;;;;;;;;;;;;;;;14.217811;8.033998;9.983367;;608.9
796.0;702.0;;;;;;;;;;;;;;0.84591204;-0.35224465;-0.43305764;;;;;608.9
796.0;702.0;;;;;;;;;;;;;;;;;18.101292;9.681997;8.617663;;618.5
796.0;702.0;;;;;;;;;;;;;;0.83980834;-0.37849057;-0.4267098;;;;;618.5
796.0;702.0;;;;;;;;;;;;;;;;;21.893217;11.547441;7.2023683;;618.5
796.0;702.0;;;;;;;;;;;;;;0.82790613;-0.40253913;-0.40406507;;;;;618.5
796.0;702.0;;;;;;;;;;;;;;;;;24.88403;12.504959;5.5810723;;628.2
796.0;702.0;;;;;;;;;;;;;;0.8301645;-0.4074221;-0.38080996;;;;;628.2
796.0;702.0;;;;;;;;;;;;;;;;;28.092287;13.142034;4.482406;;628.2
796.0;702.0;;;;;;;;;;;;;;0.85207677;-0.42762536;-0.37336344;;;;;628.2
796.0;716.6;;;;;;;;;;;;;;;;;33.31477;14.183477;3.4066288;;637.8
796.0;716.6;;;;;;;;;;;;;;0.8855861;-0.44514298;-0.40174565;;;;;637.8
796.0;716.6;;;;;;;;;;;;;;;;;40.959656;17.109438;1.823481;;637.8
796.0;716.6;;;;;;;;;;;;;;0.8880276;-0.44141972;-0.42896816;;;;;637.8
796.0;716.6;;;;;;;;;;;;;;;;;48.276466;20.569475;-0.19455549;;647.5
796.0;716.6;;;;;;;;;;;;;;0.8742943;-0.4090701;-0.42530596;;;;;647.5
796.0;716.6;;;;;;;;;;;;;;;;;54.177986;22.667622;-1.8539995;;647.5
796.0;716.6;;;;;;;;;;;;;;0.8636128;-0.37440106;-0.39533678;;;;;647.5
796.0;716.6;;;;;;;;;;;;;;;;;59.07239;22.244177;-3.234962;;657.0
796.0;716.6;;;;;;;;;;;;;;0.8565325;-0.3488876;-0.37220374;;;;;657.0
796.0;716.6;;;;;;;;;;;;;;;;;63.24961;20.6534;-4.81811;;657.0
796.0;716.6;;;;;;;;;;;;;;0.84432507;-0.30030215;-0.35108495;;;;;657.0
856.0;761.4;;;;;;;;;;;;;;;;;65.153206;18.230995;-5.565813;;666.7
856.0;761.4;;;;;;;;;;;;;;0.8334605;-0.24768822;-0.3203833;;;;;666.7
856.0;761.4;;;;;;;;;;;;;;;;;64.588615;14.912107;-5.527665;;666.7
856.0;761.4;;;;;;;;;;;;;;0.83712274;-0.22095402;-0.285226;;;;;666.7
856.0;761.4;;;;;;;;;;;;;;;;;62.658318;10.982849;-4.8142953;;676.3
856.0;761.4;;;;;;;;;;;;;;0.8572039;-0.19153416;-0.26471755;;;;;676.3
856.0;761.4;;;;;;;;;;;;;;;;;59.900204;7.820368;-3.7385175;;676.3
856.0;761.4;;;;;;;;;;;;;;0.87362283;-0.15930662;-0.260506;;;;;676.3
856.0;761.4;;;;;;;;;;;;;;;;;56.356243;6.023591;-2.4872584;;685.9
856.0;761.4;;;;;;;;;;;;;;0.8730125;-0.14734337;-0.2662435;;;;;685.9
856.0;761.4;;;;;;;;;;;;;;;;;51.62969;4.650258;-1.0261849;;685.9
856.0;761.4;;;;;;;;;;;;;;0.8751488;-0.13275552;-0.27564317;;;;;685.9
856.0;776.3;;;;;;;;;;;;;;;;;46.395763;3.6431472;0.6904813;;695.6
856.0;776.3;;;;;;;;;;;;;;0.87130344;-0.13293862;-0.29151282;;;;;695.6
856.0;776.3;;;;;;;;;;;;;;;;;41.158024;2.6894438;2.7542956;;695.6
856.0;776.3;;;;;;;;;;;;;;0.865627;-0.12945952;-0.3124485;;;;;695.6
856.0;776.3;;;;;;;;;;;;;;;;;36.24073;1.3504441;4.676962;;705.3
856.0;776.3;;;;;;;;;;;;;;0.86031675;-0.13086337;-0.3342387;;;;;705.3
856.0;776.3;;;;;;;;;;;;;;;;;30.785545;0.3013703;6.6225166;;705.3
856.0;776.3;;;;;;;;;;;;;;0.85763115;-0.13476974;-0.35261086;;;;;705.3
856.0;776.3;;;;;;;;;;;;;;;;;25.559252;0.12588885;8.793145;;714.8
856.0;776.3;;;;;;;;;;;;;;0.86178166;-0.1469161;-0.3521836;;;;;714.8
856.0;776.3;;;;;;;;;;;;;;;;;21.038698;0.7667776;10.376293;;714.8
856.0;776.3;;;;;;;;;;;;;;0.8659932;-0.15741447;-0.3487045;;;;;714.8
916.0;821.5;;;;;;;;;;;;;;;;;17.632069;1.8807031;11.482589;;724.5
916.0;821.5;;;;;;;;;;;;;;0.8732566;-0.17157505;-0.3419904;;;;;724.5
916.0;821.5;;;;;;;;;;;;;;;;;15.362254;3.4257026;12.08533;;724.5
916.0;821.5;;;;;;;;;;;;;;0.8824122;-0.1939146;-0.33655813;;;;;724.5
916.0;821.5;;;;;;;;;;;;;;;;;13.683737;5.348369;12.371441;;734.2
916.0;821.5;;;;;;;;;;;;;;0.88735616;-0.2191229;-0.32789087;;;;;734.2
916.0;821.5;;;;;;;;;;;;;;;;;12.306589;6.851405;12.5125885;;734.2
916.0;821.5;;;;;;;;;;;;;;0.8928495;-0.2365795;-0.321543;;;;;734.2
916.0;821.5;;;;;;;;;;;;;;;;;11.108737;8.220923;12.710959;;743.8
916.0;821.5;;;;;;;;;;;;;;0.8966338;-0.2630085;-0.30878627;;;;;743.8
916.0;821.5;;;;;;;;;;;;;;;;;10.433516;8.880886;12.79107;;743.8
916.0;821.5;;;;;;;;;;;;;;0.9020051;-0.27564317;-0.30201116;;;;;743.8
916.0;836.5;;;;;;;;;;;;;;;;;10.357219;9.392072;13.050478;;753.4
916.0;836.5;;;;;;;;;;;;;;0.9059725;-0.29627368;-0.2956023;;;;;753.4
916.0;836.5;;;;;;;;;;;;;;;;;10.769219;9.735405;13.222144;;753.4
916.0;836.5;;;;;;;;;;;;;;0.9089022;-0.3009125;-0.2846156;;;;;753.4
916.0;836.5;;;;;;;;;;;;;;;;;11.711478;10.097812;13.470107;;763.1
916.0;836.5;;;;;;;;;;;;;;0.9088412;-0.3065279;-0.27369;;;;;763.1
916.0;836.5;;;;;;;;;;;;;;;;;13.595997;10.418256;13.668478;;763.1
916.0;836.5;;;;;;;;;;;;;;0.90517896;-0.30774865;-0.26935637;;;;;763.1
916.0;836.5;;;;;;;;;;;;;;;;;15.995514;10.570848;13.756218;;772.6
916.0;836.5;;;;;;;;;;;;;;0.90102845;-0.30890834;-0.26673177;;;;;772.6
916.0;836.5;;;;;;;;;;;;;;;;;18.894773;10.7806635;13.611256;;772.6
916.0;836.5;;;;;;;;;;;;;;0.89474165;-0.3058565;-0.2646565;;;;;772.6
979.0;882.1;;;;;;;;;;;;;;;;;21.83981;10.837886;13.256477;;782.2
979.0;882.1;;;;;;;;;;;;;;0.8818018;-0.30744347;-0.26508376;;;;;782.2
979.0;882.1;;;;;;;;;;;;;;;;;24.68566;10.54033;12.951292;;782.2
979.0;882.1;;;;;;;;;;;;;;0.8733787;-0.30249947;-0.2709433;;;;;782.2
979.0;882.1;;;;;;;;;;;;;;;;;26.924955;9.990996;12.668996;;791.9
979.0;882.1;;;;;;;;;;;;;;0.8699606;-0.30561236;-0.27869502;;;;;791.9
979.0;882.1;;;;;;;;;;;;;;;;;28.935362;9.289071;12.607959;;791.9
979.0;882.1;;;;;;;;;;;;;;0.8708762;-0.3035371;-0.28583637;;;;;791.9
979.0;882.1;;;;;;;;;;;;;;;;;30.831324;8.674886;12.882626;;801.5
979.0;882.1;;;;;;;;;;;;;;0.87478256;-0.3065279;-0.28907132;;;;;801.5
979.0;882.1;;;;;;;;;;;;;;;;;32.170326;8.514664;12.752922;;801.5
979.0;882.1;;;;;;;;;;;;;;0.88662374;-0.31019014;-0.28846094;;;;;801.5
979.0;896.7;;;;;;;;;;;;;;;;;33.57799;8.751183;12.58507;;811.1
979.0;896.7;;;;;;;;;;;;;;0.8946196;-0.31159398;-0.2874233;;;;;811.1
979.0;896.7;;;;;;;;;;;;;;;;;34.501175;9.346293;12.562181;;811.1
979.0;896.7;;;;;;;;;;;;;;0.9062166;-0.30005798;-0.28382215;;;;;811.1
979.0;896.7;;;;;;;;;;;;;;;;;33.99762;10.254219;12.581255;;820.8
979.0;896.7;;;;;;;;;;;;;;0.910184;-0.300119;-0.2872402;;;;;820.8
979.0;896.7;;;;;;;;;;;;;;;;;33.749657;10.85696;12.977996;;820.8
979.0;896.7;;;;;;;;;;;;;;0.9072543;-0.29902035;-0.28907132;;;;;820.8
979.0;896.7;;;;;;;;;;;;;;;;;33.413956;10.876034;13.63033;;830.4
979.0;896.7;;;;;;;;;;;;;;0.9060335;-0.29486984;-0.2924894;;;;;830.4
979.0;896.7;;;;;;;;;;;;;;;;;32.826473;10.296182;14.400922;;830.4
979.0;896.7;;;;;;;;;;;;;;0.90792567;-0.29309976;-0.30066836;;;;;830.4
1037.0;957.2;;;;;;;;;;;;;;;;;31.697289;9.887997;15.24018;;840.0
1037.0;957.2;;;;;;;;;;;;;;0.9027375;-0.29407635;-0.29969177;;;;;840.0
1037.0;957.2;;;;;;;;;;;;;;;;;30.762657;9.170813;15.961182;;840.0
1037.0;957.2;;;;;;;;;;;;;;0.8946806;-0.29194006;-0.29847103;;;;;840.0
1037.0;957.2;;;;;;;;;;;;;;;;;30.255287;8.247627;16.460922;;849.5
1037.0;957.2;;;;;;;;;;;;;;0.8926664;-0.2827235;-0.3063448;;;;;849.5
1037.0;957.2;;;;;;;;;;;;;;;;;29.740288;7.8852196;16.628773;;849.5
1037.0;957.2;;;;;;;;;;;;;;0.88576925;-0.27369;-0.3007294;;;;;849.5
1037.0;957.2;;;;;;;;;;;;;;;;;29.683065;7.160405;16.964476;;859.2
1037.0;957.2;;;;;;;;;;;;;;0.88467056;-0.26783043;-0.2954192;;;;;859.2
1037.0;957.2;;;;;;;;;;;;;;;;;30.632954;6.1799984;17.26966;;859.2
1037.0;957.2;;;;;;;;;;;;;;0.89742726;-0.25513473;-0.29963073;;;;;859.2
1037.0;957.9;;;;;;;;;;;;;;;;;31.601917;5.413221;17.639698;;868.9
1037.0;957.9;;;;;;;;;;;;;;0.91109955;-0.24695578;-0.30024108;;;;;868.9
1037.0;957.9;;;;;;;;;;;;;;;;;32.30766;4.570147;18.13181;;868.9
1037.0;957.9;;;;;;;;;;;;;;0.9292276;-0.24372081;-0.3075045;;;;;868.9
1037.0;957.9;;;;;;;;;;;;;;;;;32.63573;4.3298135;18.4637;;878.5
1037.0;957.9;;;;;;;;;;;;;;0.94265574;-0.2509232;-0.31122777;;;;;878.5
1037.0;957.9;;;;;;;;;;;;;;;;;33.143105;3.711814;18.791773;;878.5
1037.0;957.9;;;;;;;;;;;;;;0.9449141;-0.25006866;-0.3103122;;;;;878.5
1037.0;957.9;;;;;;;;;;;;;;;;;33.09351;3.5096285;19.066439;;888.2
1037.0;957.9;;;;;;;;;;;;;;0.93166906;-0.26654866;-0.31275368;;;;;888.2
1037.0;957.9;;;;;;;;;;;;;;;;;33.803066;3.0899992;19.196144;;888.2
1037.0;957.9;;;;;;;;;;;;;;0.913419;-0.27228615;-0.31488997;;;;;888.2
1096.0;1002.7;;;;;;;;;;;;;;;;;34.527878;2.4033327;18.681143;;897.7
1096.0;1002.7;;;;;;;;;;;;;;0.8918119;-0.28040406;-0.3185522;;;;;897.7
1096.0;1002.7;;;;;;;;;;;;;;;;;35.40147;1.5030366;18.341625;;897.7
1096.0;1002.7;;;;;;;;;;;;;;0.8725242;-0.28974274;-0.3233131;;;;;897.7
1096.0;1002.7;;;;;;;;;;;;;;;;;35.55406;0.43870357;17.700735;;907.4
1096.0;1002.7;;;;;;;;;;;;;;0.8537858;-0.29700613;-0.3411359;;;;;907.4
1096.0;1002.7;;;;;;;;;;;;;;;;;35.321358;-0.026703697;17.18955;;907.4
1096.0;1002.7;;;;;;;;;;;;;;0.8379162;-0.30695516;-0.35084078;;;;;907.4
1096.0;1002.7;;;;;;;;;;;;;;;;;34.699543;-1.0948515;16.819515;;917.0
1096.0;1002.7;;;;;;;;;;;;;;0.827723;-0.31611073;-0.36872464;;;;;917.0
1096.0;1002.7;;;;;;;;;;;;;;;;;33.71914;-1.9989624;16.388441;;917.0
1096.0;1002.7;;;;;;;;;;;;;;0.8213752;-0.3307596;-0.38795128;;;;;917.0
1096.0;1070.5;;;;;;;;;;;;;;;;;32.559437;-2.4605548;15.625477;;926.6
1096.0;1070.5;;;;;;;;;;;;;;0.82430494;-0.34736168;-0.39942625;;;;;926.6
1096.0;1070.5;;;;;;;;;;;;;;;;;31.56377;-2.399518;14.706107;;926.6
1096.0;1070.5;;;;;;;;;;;;;;0.83278906;-0.35956907;-0.40766624;;;;;926.6
1096.0;1070.5;;;;;;;;;;;;;;;;;30.449842;-1.7548143;13.840144;;936.3
1096.0;1070.5;;;;;;;;;;;;;;0.8384045;-0.3622547;-0.40919217;;;;;936.3
1096.0;1070.5;;;;;;;;;;;;;;;;;29.29014;-1.0948515;13.145848;;936.3
1096.0;1070.5;;;;;;;;;;;;;;0.8445692;-0.3740959;-0.4013184;;;;;936.3
1096.0;1070.5;;;;;;;;;;;;;;;;;28.576769;-0.17166662;12.470626;;945.9
1096.0;1070.5;;;;;;;;;;;;;;0.8551897;-0.38294625;-0.39509264;;;;;945.9
1096.0;1070.5;;;;;;;;;;;;;;;;;28.447065;0.9346294;11.490219;;945.9
1096.0;1070.5;;;;;;;;;;;;;;0.8642842;-0.38422802;-0.3810541;;;;;945.9
1157.0;1071.2;;;;;;;;;;;;;;;;;29.751732;2.0409255;10.3228855;;955.5
1157.0;1071.2;;;;;;;;;;;;;;0.8770409;-0.37714773;-0.36463514;;;;;955.5
1157.0;1071.2;;;;;;;;;;;;;;;;;31.708733;3.1586657;8.808405;;955.5
1157.0;1071.2;;;;;;;;;;;;;;0.89327675;-0.37128818;-0.35059664;;;;;955.5
1157.0;1071.2;;;;;;;;;;;;;;;;;34.34095;3.9407024;7.148961;;965.1
1157.0;1071.2;;;;;;;;;;;;;;0.920072;-0.35700554;-0.33954895;;;;;965.1
1157.0;1071.2;;;;;;;;;;;;;;;;;36.492508;3.8567767;5.489517;;965.1
1157.0;1071.2;;;;;;;;;;;;;;0.9576708;-0.3408307;-0.3391827;;;;;965.1
1157.0;1071.2;;;;;;;;;;;;;;;;;38.22062;2.7733696;4.058962;;974.8
1157.0;1071.2;;;;;;;;;;;;;;0.9956969;-0.34669027;-0.34150213;;;;;974.8
1157.0;1071.2;;;;;;;;;;;;;;;;;40.07843;1.6975921;2.9259622;;974.8
1157.0;1071.2;;;;;;;;;;;;;;1.0256661;-0.35834834;-0.3460799;;;;;974.8
1157.0;1077.8;;;;;;;;;;;;;;;;;42.458878;1.0185553;1.8997772;;984.4
1157.0;1077.8;;;;;;;;;;;;;;1.0376904;-0.36384168;-0.34730065;;;;;984.4
1157.0;1077.8;;;;;;;;;;;;;;;;;45.37721;-0.08774071;1.3657033;;984.4
1157.0;1077.8;;;;;;;;;;;;;;1.0383618;-0.35700554;-0.3543199;;;;;984.4
1157.0;1077.8;;;;;;;;;;;;;;;;;48.49391;-1.2321848;0.82399976;;994.1
1157.0;1077.8;;;;;;;;;;;;;;1.0369579;-0.34009826;-0.3640248;;;;;994.1
1157.0;1077.8;;;;;;;;;;;;;;;;;51.61443;-2.0561848;0.2784814;;994.1
1157.0;1077.8;;;;;;;;;;;;;;1.0313425;-0.31611073;-0.36707664;;;;;994.1
1157.0;1077.8;;;;;;;;;;;;;;;;;53.907135;-2.685629;-0.29374066;;1003.8
1157.0;1077.8;;;;;;;;;;;;;;1.0260323;-0.291818;-0.3770867;;;;;1003.8
1157.0;1077.8;;;;;;;;;;;;;;;;;54.99817;-2.5711844;-0.8354442;;1003.8
1157.0;1077.8;;;;;;;;;;;;;;1.0137639;-0.27082124;-0.38721886;;;;;1003.8
1215.0;1128.4;;;;0.0;0.0;0.0;;;;;;;;;;;;;;;
1215.0;1128.4;;;;-0.10210039;0.3824578;0.029502872;;;;;;;;;;;;;;;
1215.0;1128.4;;;;-0.3394623;1.0436097;-0.009010316;;;;;;;;;;;;;;;
1215.0;1128.4;;;;-0.3524628;1.0612565;-0.02537537;;;;;;;;;;;;;;;
1215.0;1128.4;;;;-0.35103992;1.0634576;-0.027050022;;;;;;;;;;;;;;;
1215.0;1138.4;;;;-0.3496857;1.0649301;-0.029766086;;;;;;;;;;;;;;;
1215.0;1138.4;;;;-0.34878162;1.0670244;-0.032600407;;;;;;;;;;;;;;;
1215.0;1138.4;;;;-0.3479996;1.0688249;-0.03437424;;;;;;;;;;;;;;;
1215.0;1138.4;;;;-0.34637836;1.0692636;-0.036499027;;;;;;;;;;;;;;;
1215.0;1138.4;;;;-0.34619144;1.069462;-0.039672855;;;;;;;;;;;;;;;
1215.0;1139.7;57438;57515;11217;;;;;;;;;;;;;;;;;;
1215.0;1148.3;;;;-0.34557346;1.0696794;-0.043067936;;;;;;;;;;;;;;;
1215.0;1148.3;;;;-0.34616092;1.0694124;-0.04653168;;;;;;;;;;;;;;;
1215.0;1148.3;;;;-0.34793094;1.0698091;-0.048717506;;;;;;;;;;;;;;;
1215.0;1148.3;;;;-0.3509865;1.0704004;-0.051357277;;;;;;;;;;;;;;;
1215.0;1148.3;;;;-0.35166553;1.0687753;-0.053207405;;;;;;;;;;;;;;;
1216.0;1158.5;;;;-0.35044864;1.0651323;-0.05477143;;;;;;;;;;;;;;;
1216.0;1158.5;;;;-0.34980395;1.0616647;-0.056068428;;;;;;;;;;;;;;;
1216.0;1158.5;;;;-0.34910205;1.0563165;-0.057579048;;;;;;;;;;;;;;;
1216.0;1158.5;;;;-0.34899524;1.0509492;-0.059257515;;;;;;;;;;;;;;;
1216.0;1158.5;;;;-0.349865;1.0454141;-0.061027534;;;;;;;;;;;;;;;
1216.0;1159.8;73867;73863;11217;;;;;;;;;;;;;;;;;;
1216.0;1166.2;;;;;;;;;;;;;0;;;;;;;;
1216.0;1166.2;;;;;;;;;;;;;0;;;;;;;;
1216.0;1166.2;;;;;;;;;;;;;-1;;;;;;;;
1216.0;1166.2;;;;;;;;;;;;;-2;;;;;;;;
1216.0;1166.2;;;;;;;;;;;;;-3;;;;;;;;
1216.0;1168.6;;;;-0.35112384;1.0392762;-0.062416084;;;;;;;;;;;;;;;
1216.0;1168.6;;;;-0.35183337;1.0322953;-0.063732155;;;;;;;;;;;;;;;
1216.0;1168.6;;;;-0.3518677;1.0242692;-0.0648079;;;;;;;;;;;;;;;
1216.0;1168.6;;;;-0.35224536;1.0161783;-0.0668335;;;;;;;;;;;;;;;
1216.0;1168.6;;;;-0.3519707;1.0071069;-0.06877137;;;;;;;;;;;;;;;
1216.0;1178.7;;;;-0.35133365;0.9981843;-0.07004929;;;;;;;;;;;;;;;
1216.0;1178.7;;;;-0.35076907;0.98871243;-0.0711937;;;;;;;;;;;;;;;
1216.0;1178.7;;;;-0.3503571;0.9780885;-0.071716316;;;;;;;;;;;;;;;
1216.0;1178.7;;;;-0.35086063;0.967476;-0.0712967;;;;;;;;;;;;;;;
1216.0;1178.7;;;;-0.3520241;0.9572755;-0.069515236;;;;;;;;;;;;;;;
1216.0;1180.1;90280;90183;11230;;;;;;;;;;;;;;;;;;
1218.0;1183.6;;;;;;;;;;;;;;;;;55.635242;-2.189703;-1.4572588;;1013.4
1218.0;1183.6;;;;;;;;;;;;;;0.99612415;-0.2547075;-0.39875484;;;;;1013.4
1218.0;1183.6;;;;;;;;;;;;;;;;;56.146427;-2.0599995;-2.1477401;;1013.4
1218.0;1183.6;;;;;;;;;;;;;;0.98294014;-0.2372509;-0.41328165;;;;;1013.4
1218.0;1183.6;;;;;;;;;;;;;;;;;56.18839;-2.6360364;-2.7390363;;1022.8
1218.0;1183.6;;;;;;;;;;;;;;0.9783624;-0.22070986;-0.4248787;;;;;1022.8
1218.0;1183.6;;;;;;;;;;;;;;;;;54.80361;-3.5897398;-3.1662953;;1022.8
1218.0;1183.6;;;;;;;;;;;;;;0.98190254;-0.20838039;-0.4316538;;;;;1022.8
1218.0;1183.6;;;;;;;;;;;;;;;;;52.270576;-4.234443;-3.5477767;;1032.5
1218.0;1183.6;;;;;;;;;;;;;;0.979461;-0.1981872;-0.42872402;;;;;1032.5
1218.0;1183.6;;;;;;;;;;;;;;;;;49.016544;-4.608295;-3.765221;;1032.5
1218.0;1183.6;;;;;;;;;;;;;;0.9732963;-0.18634602;-0.41999573;;;;;1032.5
1218.0;1184.9;;;;;;;;;;;;;;;;;46.079132;-4.81811;-4.20011;;1042.2
1218.0;1184.9;;;;;;;;;;;;;;0.9606006;-0.173101;-0.4126713;;;;;1042.2
1218.0;1184.9;;;;;;;;;;;;;;;;;43.923767;-4.890591;-4.886776;;1042.2
1218.0;1184.9;;;;;;;;;;;;;;0.9444258;-0.15826899;-0.4092532;;;;;1042.2
1218.0;1184.9;;;;;;;;;;;;;;;;;42.30247;-5.1881466;-5.893887;;1051.7
1218.0;1184.9;;;;;;;;;;;;;;0.93447673;-0.13574633;-0.41309854;;;;;1051.7
1218.0;1184.9;;;;;;;;;;;;;;;;;41.192356;-5.7298503;-7.045961;;1051.7
1218.0;1184.9;;;;;;;;;;;;;;0.9245277;-0.11633656;-0.4203009;;;;;1051.7
1218.0;1184.9;;;;;;;;;;;;;;;;;40.18906;-6.904813;-8.2819605;;1061.4
1218.0;1184.9;;;;;;;;;;;;;;0.9234291;-0.096926786;-0.4268929;;;;;1061.4
1218.0;1184.9;;;;;;;;;;;;;;;;;39.0141;-8.369701;-9.571368;;1061.4
1218.0;1184.9;;;;;;;;;;;;;;0.92043823;-0.08093509;-0.4268929;;;;;1061.4
1219.0;1185.7;;;;;;;;;;;;;;;;;37.171547;-10.319071;-10.757775;;1071.0
1219.0;1185.7;;;;;;;;;;;;;;0.92355114;-0.06604206;-0.43256935;;;;;1071.0
1219.0;1185.7;;;;;;;;;;;;;;;;;34.417248;-12.19596;-12.043367;;1071.0
1219.0;1185.7;;;;;;;;;;;;;;0.9290445;-0.0540788;-0.43751335;;;;;1071.0
1219.0;1185.7;;;;;;;;;;;;;;;;;30.774101;-13.901181;-13.458663;;1080.7
1219.0;1185.7;;;;;;;;;;;;;;0.9335002;-0.04058962;-0.44654682;;;;;1080.7
1219.0;1185.7;;;;;;;;;;;;;;;;;26.161993;-15.701773;-14.931181;;1080.7
1219.0;1185.7;;;;;;;;;;;;;;0.9369793;-0.023255104;-0.463332;;;;;1080.7
1219.0;1185.7;;;;;;;;;;;;;;;;;20.550402;-17.91818;-16.407515;;1090.4
1219.0;1185.7;;;;;;;;;;;;;;0.94155705;-0.006714072;-0.48121586;;;;;1090.4
1219.0;1185.7;;;;;;;;;;;;;;;;;14.057589;-20.004883;-18.00592;;1090.4
1219.0;1185.7;;;;;;;;;;;;;;0.9351482;0.023316141;-0.49684134;;;;;1090.4
1219.0;1186.4;;;;;;;;;;;;;;;;;6.824702;-22.133549;-19.577623;;1100.1
1219.0;1186.4;;;;;;;;;;;;;;0.9238563;0.0413831;-0.5070956;;;;;1100.1
1219.0;1186.4;;;;;;;;;;;;;;;;;-0.71337014;-24.002808;-21.401106;;1100.1
1219.0;1186.4;;;;;;;;;;;;;;0.90896326;0.07879879;-0.519364;;;;;1100.1
1219.0;1186.4;;;;;;;;;;;;;;;;;-9.136478;-25.704214;-23.529772;;1109.6
1219.0;1186.4;;;;;;;;;;;;;;0.8858913;0.102053896;-0.5252846;;;;;1109.6
1219.0;1186.4;;;;;;;;;;;;;;;;;-17.880032;-27.916805;-26.100956;;1109.6
1219.0;1186.4;;;;;;;;;;;;;;0.8750267;0.1262856;-0.535905;;;;;1109.6
1219.0;1186.4;;;;;;;;;;;;;;;;;-27.062288;-30.079805;-29.122288;;1119.2
1219.0;1186.4;;;;;;;;;;;;;;0.8600726;0.13751641;-0.5393231;;;;;1119.2
1219.0;1186.4;;;;;;;;;;;;;;;;;-35.668507;-32.06351;-32.6281;;1119.2
1219.0;1186.4;;;;;;;;;;;;;;0.8440199;0.14514603;-0.5381634;;;;;1119.2
1275.0;1188.5;;;;-0.3536568;0.94706357;-0.067249306;;;;;;;;;;;;;;;
1275.0;1188.5;;;;-0.35398105;0.93724453;-0.063034065;;;;;;;;;;;;;;;
1275.0;1188.5;;;;-0.35490802;0.92670834;-0.058284767;;;;;;;;;;;;;;;
1275.0;1188.5;;;;-0.35546878;0.9155618;-0.05356217;;;;;;;;;;;;;;;
1275.0;1188.5;;;;-0.3571892;0.9052011;-0.049072273;;;;;;;;;;;;;;;
1275.0;1198.5;;;;-0.35891727;0.89395535;-0.044990543;;;;;;;;;;;;;;;
1275.0;1198.5;;;;-0.3603554;0.8830224;-0.03927994;;;;;;;;;;;;;;;
1275.0;1198.5;;;;-0.3630295;0.87220395;-0.03370667;;;;;;;;;;;;;;;
1275.0;1198.5;;;;-0.36779788;0.8628007;-0.027668003;;;;;;;;;;;;;;;
1275.0;1198.5;;;;-0.37203982;0.85260403;-0.021541597;;;;;;;;;;;;;;;
1275.0;1200.0;106722;106605;11228;;;;;;;;;;;;;;;;;;
1275.0;1206.2;;;;;;;;;;;;;-6;;;;;;;;
1275.0;1206.2;;;;;;;;;;;;;-6;;;;;;;;
1275.0;1206.2;;;;;;;;;;;;;-9;;;;;;;;
1275.0;1206.2;;;;;;;;;;;;;-17;;;;;;;;
1275.0;1206.2;;;;;;;;;;;;;-11;;;;;;;;
1275.0;1208.4;;;;-0.3757859;0.8420526;-0.014785768;;;;;;;;;;;;;;;
1275.0;1208.4;;;;-0.37942892;0.8319398;-0.008373261;;;;;;;;;;;;;;;
1275.0;1208.4;;;;-0.38355643;0.8214303;-0.0020980837;;;;;;;;;;;;;;;
1275.0;1208.4;;;;-0.38763434;0.81092083;0.0056228642;;;;;;;;;;;;;;;
1275.0;1208.4;;;;-0.39214712;0.8011018;0.012603762;;;;;;;;;;;;;;;
1276.0;1218.3;;;;-0.3971215;0.7916337;0.018692018;;;;;;;;;;;;;;;
1276.0;1218.3;;;;-0.40145117;0.78107464;0.024589542;;;;;;;;;;;;;;;
1276.0;1218.3;;;;-0.40477377;0.7702867;0.031147007;;;;;;;;;;;;;;;
1276.0;1218.3;;;;-0.40793997;0.7594224;0.036937717;;;;;;;;;;;;;;;
1276.0;1218.3;;;;-0.41230017;0.74975973;0.04275513;;;;;;;;;;;;;;;
1276.0;1219.8;122985;123023;11239;;;;;;;;;;;;;;;;;;
1276.0;1228.4;;;;-0.415577;0.74060446;0.04916001;;;;;;;;;;;;;;;
1276.0;1228.4;;;;-0.4170876;0.73092276;0.05505372;;;;;;;;;;;;;;;
1276.0;1228.4;;;;-0.41717917;0.7213631;0.061241157;;;;;;;;;;;;;;;
1276.0;1228.4;;;;-0.41587836;0.7120705;0.06736375;;;;;;;;;;;;;;;
1276.0;1228.4;;;;-0.41379935;0.7029;0.07238389;;;;;;;;;;;;;;;
1276.0;1238.5;;;;-0.41133124;0.69494635;0.07736207;;;;;;;;;;;;;;;
1276.0;1238.5;;;;-0.40744787;0.68757254;0.08072663;;;;;;;;;;;;;;;
1276.0;1238.5;;;;-0.40348822;0.6813775;0.08433915;;;;;;;;;;;;;;;
1276.0;1238.5;;;;-0.3986283;0.67633826;0.08749772;;;;;;;;;;;;;;;
1276.0;1238.5;;;;-0.3931504;0.6731034;0.090271;;;;;;;;;;;;;;;
1276.0;1240.1;139429;139331;11228;;;;;;;;;;;;;;;;;;
1277.0;1243.7;;;;;;;;;;;;;;;;;-43.748283;-33.738213;-36.79769;;1128.9
1277.0;1243.7;;;;;;;;;;;;;;0.83352154;0.14917448;-0.52485734;;;;;1128.9
1277.0;1243.7;;;;;;;;;;;;;;;;;-50.778984;-34.962765;-41.72262;;1128.9
1277.0;1243.7;;;;;;;;;;;;;;0.82650226;0.14325388;-0.5088046;;;;;1128.9
1277.0;1243.7;;;;;;;;;;;;;;;;;-56.699574;-35.45869;-47.39143;;1138.3
1277.0;1243.7;;;;;;;;;;;;;;0.82284003;0.14252144;-0.48994416;;;;;1138.3
1277.0;1243.7;;;;;;;;;;;;;;;;;-61.75802;-34.69573;-53.884243;;1138.3
1277.0;1243.7;;;;;;;;;;;;;;0.8246101;0.14307077;-0.45020905;;;;;1138.3
1277.0;1243.7;;;;;;;;;;;;;;;;;-66.29002;-33.883175;-60.583054;;1147.9
1277.0;1243.7;;;;;;;;;;;;;;0.8479873;0.12720115;-0.4034547;;;;;1147.9
1277.0;1243.7;;;;;;;;;;;;;;;;;-69.26176;-34.0701;-67.58706;;1147.9
1277.0;1243.7;;;;;;;;;;;;;;0.85708183;0.112125;-0.37818536;;;;;1147.9
1277.0;1244.9;;;;;;;;;;;;;;;;;-69.73098;-33.669548;-75.529495;;1157.6
1277.0;1244.9;;;;;;;;;;;;;;0.8528703;0.11401715;-0.33643606;;;;;1157.6
1277.0;1244.9;;;;;;;;;;;;;;;;;-68.43012;-33.173622;-83.37275;;1157.6
1277.0;1244.9;;;;;;;;;;;;;;0.8564104;0.09778131;-0.2866909;;;;;1157.6
1277.0;1244.9;;;;;;;;;;;;;;;;;-65.47746;-33.448288;-90.79638;;1167.1
1277.0;1244.9;;;;;;;;;;;;;;0.8694723;0.08154546;-0.25116733;;;;;1167.1
1277.0;1244.9;;;;;;;;;;;;;;;;;-61.85339;-32.223732;-98.10175;;1167.1
1277.0;1244.9;;;;;;;;;;;;;;0.8766747;0.060731836;-0.20697653;;;;;1167.1
1277.0;1244.9;;;;;;;;;;;;;;;;;-58.48491;-30.38499;-104.8616;;1176.8
1277.0;1244.9;;;;;;;;;;;;;;0.88216805;0.0524308;-0.16937773;;;;;1176.8
1277.0;1244.9;;;;;;;;;;;;;;;;;-55.516983;-28.138065;-110.957664;;1176.8
1277.0;1244.9;;;;;;;;;;;;;;0.8843654;0.045960877;-0.130253;;;;;1176.8
1336.0;1246.3;;;;;;;;;;;;;-29;;;;;;;;
1336.0;1246.3;;;;;;;;;;;;;-17;;;;;;;;
1336.0;1246.3;;;;;;;;;;;;;-11;;;;;;;;
1336.0;1246.3;;;;;;;;;;;;;-89;;;;;;;;
1336.0;1246.3;;;;;;;;;;;;;45;;;;;;;;
1336.0;1248.5;;;;-0.38760763;0.67068106;0.09201432;;;;;;;;;;;;;;;
1336.0;1248.5;;;;-0.38050848;0.66940314;0.09294511;;;;;;;;;;;;;;;
1336.0;1248.5;;;;-0.37309268;0.66906744;0.0935669;;;;;;;;;;;;;;;
1336.0;1248.5;;;;-0.36526492;0.67003256;0.09389497;;;;;;;;;;;;;;;
1336.0;1248.5;;;;-0.36038592;0.6730996;0.09151841;;;;;;;;;;;;;;;
1336.0;1258.5;;;;-0.35423282;0.67659765;0.08977509;;;;;;;;;;;;;;;
1336.0;1258.5;;;;-0.3477631;0.6808167;0.08737565;;;;;;;;;;;;;;;
1336.0;1258.5;;;;-0.34364703;0.68658453;0.08443452;;;;;;;;;;;;;;;
1336.0;1258.5;;;;-0.33769992;0.6918221;0.08167649;;;;;;;;;;;;;;;
1336.0;1258.5;;;;-0.33100513;0.69821936;0.078990944;;;;;;;;;;;;;;;
1336.0;1260.1;155780;155882;11228;;;;;;;;;;;;;;;;;;
1336.0;1268.5;;;;-0.32493976;0.7048226;0.07508851;;;;;;;;;;;;;;;
1336.0;1268.5;;;;-0.3188744;0.71155936;0.071781166;;;;;;;;;;;;;;;
1336.0;1268.5;;;;-0.31388858;0.7186356;0.067558296;;;;;;;;;;;;;;;
1336.0;1268.5;;;;-0.30941013;0.7264405;0.06357575;;;;;;;;;;;;;;;
1336.0;1268.5;;;;-0.30614093;0.7348519;0.06026841;;;;;;;;;;;;;;;
1337.0;1278.5;;;;-0.3006554;0.7423821;0.056976326;;;;;;;;;;;;;;;
1337.0;1278.5;;;;-0.29373935;0.7491265;0.053337105;;;;;;;;;;;;;;;
1337.0;1278.5;;;;-0.29337695;0.75771725;0.048374183;;;;;;;;;;;;;;;
1337.0;1278.5;;;;-0.29565433;0.7674371;0.04422379;;;;;;;;;;;;;;;
1337.0;1278.5;;;;-0.29300693;0.7752496;0.04174805;;;;;;;;;;;;;;;
1337.0;1280.2;172241;172192;11227;;;;;;;;;;;;;;;;;;
1337.0;1286.5;;;;;;;;;;;;;166;;;;;;;;
1337.0;1286.5;;;;;;;;;;;;;-215;;;;;;;;
1337.0;1286.5;;;;;;;;;;;;;-429;;;;;;;;
1337.0;1286.5;;;;;;;;;;;;;495;;;;;;;;
1337.0;1286.5;;;;;;;;;;;;;2296;;;;;;;;
1337.0;1288.6;;;;-0.29042056;0.78255475;0.039196018;;;;;;;;;;;;;;;
1337.0;1288.6;;;;-0.28876498;0.7901727;0.03619385;;;;;;;;;;;;;;;
1337.0;1288.6;;;;-0.28669742;0.79778683;0.033241276;;;;;;;;;;;;;;;
1337.0;1288.6;;;;-0.28466418;0.8051759;0.030185703;;;;;;;;;;;;;;;
1337.0;1288.6;;;;-0.28284457;0.81183255;0.0273819;;;;;;;;;;;;;;;
1337.0;1298.8;;;;-0.28062442;0.81850827;0.024898533;;;;;;;;;;;;;;;
1337.0;1298.8;;;;-0.27733615;0.82389843;0.023292543;;;;;;;;;;;;;;;
1337.0;1298.8;;;;-0.2760239;0.8303453;0.020889284;;;;;;;;;;;;;;;
1337.0;1298.8;;;;-0.27606967;0.8363725;0.018650057;;;;;;;;;;;;;;;
1337.0;1298.8;;;;-0.27356723;0.84175503;0.017833712;;;;;;;;;;;;;;;
1337.0;1300.5;188554;188608;11213;;;;;;;;;;;;;;;;;;
1338.0;1308.9;;;;-0.26995853;0.84572995;0.017169954;;;;;;;;;;;;;;;
1338.0;1308.9;;;;-0.2656975;0.84921277;0.017936708;;;;;;;;;;;;;;;
1338.0;1308.9;;;;-0.26202396;0.8524629;0.017147066;;;;;;;;;;;;;;;
1338.0;1308.9;;;;-0.25878528;0.8550836;0.01741791;;;;;;;;;;;;;;;
1338.0;1308.9;;;;-0.2566338;0.85792935;0.017471315;;;;;;;;;;;;;;;
1338.0;1312.3;;;;;;;;;;;;;;;;;-53.609577;-26.085695;-116.48534;;1186.4
1338.0;1312.3;;;;;;;;;;;;;;0.8917509;0.038636435;-0.09869686;;;;;1186.4
1338.0;1312.3;;;;;;;;;;;;;;;;;-52.11417;-24.20118;-121.43696;;1186.4
1338.0;1312.3;;;;;;;;;;;;;;0.9090243;0.027161473;-0.06079287;;;;;1186.4
1338.0;1312.3;;;;;;;;;;;;;;;;;-50.61495;-23.194067;-124.40108;;1196.1
1338.0;1312.3;;;;;;;;;;;;;;0.9369793;-0.02008118;-0.0496231;;;;;1196.1
1338.0;1312.3;;;;;;;;;;;;;;;;;-48.532063;-22.17551;-124.96567;;1196.1
1338.0;1312.3;;;;;;;;;;;;;;0.9631031;-0.04547258;-0.06427198;;;;;1196.1
1338.0;1312.3;;;;;;;;;;;;;;;;;-46.372875;-21.225624;-124.988556;;1205.7
1338.0;1312.3;;;;;;;;;;;;;;0.99288917;-0.08313242;-0.10852382;;;;;1205.7
1338.0;1312.3;;;;;;;;;;;;;;;;;-45.70528;-18.673513;-124.988556;;1205.7
1338.0;1312.3;;;;;;;;;;;;;;1.0652791;-0.12091433;-0.12701803;;;;;1205.7
1339.0;1313.2;;;;;;;;;;;;;;;;;-47.196877;-13.531144;-124.988556;;1215.3
1339.0;1313.2;;;;;;;;;;;;;;1.1318095;-0.16095462;-0.13910337;;;;;1215.3
1339.0;1313.2;;;;;;;;;;;;;;;;;-50.82476;-8.934294;-124.988556;;1215.3
1339.0;1313.2;;;;;;;;;;;;;;1.1980957;-0.22925505;-0.18359935;;;;;1215.3
1339.0;1313.2;;;;;;;;;;;;;;;;;-55.265205;-6.706443;-124.923706;;1225.0
1339.0;1313.2;;;;;;;;;;;;;;1.2688986;-0.27777946;-0.27118748;;;;;1225.0
1339.0;1313.2;;;;;;;;;;;;;;;;;-59.884945;-5.3903317;-123.35581;;1225.0
1339.0;1313.2;;;;;;;;;;;;;;1.3199255;-0.3175756;-0.36408582;;;;;1225.0
1339.0;1313.2;;;;;;;;;;;;;;;;;-62.810905;-4.9668875;-118.70937;;1234.7
1339.0;1313.2;;;;;;;;;;;;;;1.3390912;-0.34485915;-0.44160283;;;;;1234.7
1339.0;1313.2;;;;;;;;;;;;;;;;;-65.90091;-7.1146274;-110.72115;;1234.7
1339.0;1313.2;;;;;;;;;;;;;;1.3393964;-0.43470564;-0.51893675;;;;;1234.7
1339.0;1318.6;;;;-0.25434116;0.85977566;0.017765047;;;;;;;;;;;;;;;
1339.0;1318.6;;;;-0.25146106;0.86176693;0.0177269;;;;;;;;;;;;;;;
1339.0;1318.6;;;;-0.25008014;0.86340725;0.018104555;;;;;;;;;;;;;;;
1339.0;1318.6;;;;-0.24746326;0.86493313;0.018478395;;;;;;;;;;;;;;;
1339.0;1318.6;;;;-0.24608997;0.8664781;0.017879488;;;;;;;;;;;;;;;
1339.0;1320.3;204969;204988;11215;;;;;;;;;;;;;;;;;;
1339.0;1326.5;;;;;;;;;;;;;3444;;;;;;;;
1339.0;1326.5;;;;;;;;;;;;;3023;;;;;;;;
1339.0;1326.5;;;;;;;;;;;;;1856;;;;;;;;
1339.0;1326.5;;;;;;;;;;;;;1166;;;;;;;;
1339.0;1326.5;;;;;;;;;;;;;1029;;;;;;;;
1398.0;1328.5;;;;-0.24489978;0.8682252;0.017284395;;;;;;;;;;;;;;;
1398.0;1328.5;;;;-0.24360278;0.86976254;0.017272951;;;;;;;;;;;;;;;
1398.0;1328.5;;;;-0.24219897;0.87213147;0.017520906;;;;;;;;;;;;;;;
1398.0;1328.5;;;;-0.24213031;0.87422574;0.016754152;;;;;;;;;;;;;;;
1398.0;1328.5;;;;-0.24271014;0.8760377;0.016567232;;;;;;;;;;;;;;;
1398.0;1338.5;;;;-0.24265674;0.87828076;0.016349794;;;;;;;;;;;;;;;
1398.0;1338.5;;;;-0.24353412;0.87993634;0.015716555;;;;;;;;;;;;;;;
1398.0;1338.5;;;;-0.24454501;0.88160336;0.014881136;;;;;;;;;;;;;;;
1398.0;1338.5;;;;-0.24599841;0.8828279;0.013710024;;;;;;;;;;;;;;;
1398.0;1338.5;;;;-0.24725726;0.88326657;0.013668062;;;;;;;;;;;;;;;
1398.0;1340.3;221389;221324;11199;;;;;;;;;;;;;;;;;;
1398.0;1348.7;;;;-0.2487221;0.88388455;0.012657167;;;;;;;;;;;;;;;
1398.0;1348.7;;;;-0.24982837;0.88401425;0.012649538;;;;;;;;;;;;;;;
1398.0;1348.7;;;;-0.25145724;0.8838235;0.012329103;;;;;;;;;;;;;;;
1398.0;1348.7;;;;-0.25288394;0.8829423;0.011398316;;;;;;;;;;;;;;;
1398.0;1348.7;;;;-0.25442126;0.88177884;0.011051179;;;;;;;;;;;;;;;
1398.0;1358.8;;;;-0.25617984;0.88019955;0.011325837;;;;;;;;;;;;;;;
1398.0;1358.8;;;;-0.2579842;0.8787004;0.010604859;;;;;;;;;;;;;;;
1398.0;1358.8;;;;-0.26020053;0.8770753;0.00990677;;;;;;;;;;;;;;;
1398.0;1358.8;;;;-0.26187518;0.8751756;0.009456635;;;;;;;;;;;;;;;
1398.0;1358.8;;;;-0.26373675;0.87352383;0.0097084055;;;;;;;;;;;;;;;
1456.0;1360.6;237720;237682;11207;;;;;;;;;;;;;;;;;;
1456.0;1366.9;;;;;;;;;;;;;623;;;;;;;;
1456.0;1366.9;;;;;;;;;;;;;-74;;;;;;;;
1456.0;1366.9;;;;;;;;;;;;;-621;;;;;;;;
1456.0;1366.9;;;;;;;;;;;;;-1112;;;;;;;;
1456.0;1366.9;;;;;;;;;;;;;-1489;;;;;;;;
1456.0;1368.9;;;;-0.26577762;0.87194455;0.009059907;;;;;;;;;;;;;;;
1456.0;1368.9;;;;-0.26757815;0.8705789;0.008659364;;;;;;;;;;;;;;;
1456.0;1368.9;;;;-0.2692261;0.86919415;0.009475709;;;;;;;;;;;;;;;
1456.0;1368.9;;;;-0.27118686;0.86800015;0.008754731;;;;;;;;;;;;;;;
1456.0;1368.9;;;;-0.27247623;0.8668901;0.009231568;;;;;;;;;;;;;;;
1456.0;1378.8;;;;-0.27408603;0.8658906;0.009288789;;;;;;;;;;;;;;;
1456.0;1378.8;;;;-0.27555087;0.86540616;0.0096702585;;;;;;;;;;;;;;;
1456.0;1378.8;;;;-0.27746204;0.86470044;0.008911134;;;;;;;;;;;;;;;
1456.0;1378.8;;;;-0.2795525;0.86408246;0.008113862;;;;;;;;;;;;;;;
1456.0;1378.8;;;;-0.28160098;0.8630067;0.007408143;;;;;;;;;;;;;;;
1456.0;1380.7;254060;254262;11208;;;;;;;;;;;;;;;;;;
1456.0;1388.8;;;;-0.2840195;0.86210644;0.0069351206;;;;;;;;;;;;;;;
1456.0;1388.8;;;;-0.2854996;0.86063015;0.0071220407;;;;;;;;;;;;;;;
1456.0;1388.8;;;;-0.28773883;0.85909283;0.006614686;;;;;;;;;;;;;;;
1456.0;1388.8;;;;-0.29046252;0.8570405;0.0064468393;;;;;;;;;;;;;;;
1456.0;1388.8;;;;-0.29324725;0.8545114;0.006351472;;;;;;;;;;;;;;;
1457.0;1398.9;;;;-0.29493716;0.8519174;0.0063591013;;;;;;;;;;;;;;;
1457.0;1398.9;;;;-0.297123;0.8484117;0.0070838938;;;;;;;;;;;;;;;
1457.0;1398.9;;;;-0.29924396;0.8453294;0.0069351206;;;;;;;;;;;;;;;
1457.0;1398.9;;;;-0.3024216;0.8427621;0.0068969736;;;;;;;;;;;;;;;
1457.0;1398.9;;;;-0.306675;0.8400575;0.006477357;;;;;;;;;;;;;;;
1457.0;1400.9;262143;262143;11208;;;;;;;;;;;;;;;;;;
1457.0;1407.2;;;;;;;;;;;;;-1558;;;;;;;;
1457.0;1407.2;;;;;;;;;;;;;-1308;;;;;;;;
1457.0;1407.2;;;;;;;;;;;;;-908;;;;;;;;
1457.0;1407.2;;;;;;;;;;;;;-610;;;;;;;;
1457.0;1407.2;;;;;;;;;;;;;-367;;;;;;;;
1457.0;1409.1;;;;-0.3101082;0.8371812;0.007900239;;;;;;;;;;;;;;;
1457.0;1409.1;;;;-0.31354526;0.8345033;0.0087127695;;;;;;;;;;;;;;;
1457.0;1409.1;;;;-0.3171921;0.832348;0.00902176;;;;;;;;;;;;;;;
1457.0;1409.1;;;;-0.32021716;0.83018124;0.009174348;;;;;;;;;;;;;;;
1457.0;1409.1;;;;-0.3244057;0.8287698;0.008560182;;;;;;;;;;;;;;;
1457.0;1419.2;;;;-0.32786563;0.8273431;0.008605958;;;;;;;;;;;;;;;
1457.0;1419.2;;;;-0.33140567;0.8259088;0.008419038;;;;;;;;;;;;;;;
1457.0;1419.2;;;;-0.33496097;0.8243867;0.0076522836;;;;;;;;;;;;;;;
1457.0;1419.2;;;;-0.33796313;0.8231317;0.006702424;;;;;;;;;;;;;;;
1457.0;1419.2;;;;-0.34045413;0.8211976;0.005764008;;;;;;;;;;;;;;;
1457.0;1421.2;262143;262143;11202;;;;;;;;;;;;;;;;;;
1458.0;1424.8;;;;;;;;;;;;;;;;;-66.774506;-12.104404;-102.42775;;1244.4
1458.0;1424.8;;;;;;;;;;;;;;1.3145543;-0.47425765;-0.5617237;;;;;1244.4
1458.0;1424.8;;;;;;;;;;;;;;;;;-67.33528;-17.063662;-94.0466;;1244.4
1458.0;1424.8;;;;;;;;;;;;;;1.2468642;-0.52449113;-0.55922115;;;;;1244.4
1458.0;1424.8;;;;;;;;;;;;;;;;;-68.29661;-20.699179;-87.00827;;1253.9
1458.0;1424.8;;;;;;;;;;;;;;1.1703238;-0.5764336;-0.5102084;;;;;1253.9
1458.0;1424.8;;;;;;;;;;;;;;;;;-69.87975;-22.999512;-83.017975;;1253.9
1458.0;1424.8;;;;;;;;;;;;;;1.1122166;-0.58064514;-0.4380627;;;;;1253.9
1458.0;1424.8;;;;;;;;;;;;;;;;;-73.3932;-25.669882;-82.42668;;1263.4
1458.0;1424.8;;;;;;;;;;;;;;1.061861;-0.5343181;-0.38080996;;;;;1263.4
1458.0;1424.8;;;;;;;;;;;;;;;;;-77.95953;-30.251472;-84.753716;;1263.4
1458.0;1424.8;;;;;;;;;;;;;;1.0243843;-0.44410536;-0.37696463;;;;;1263.4
1458.0;1426.4;;;;;;;;;;;;;;;;;-82.796715;-35.41673;-85.69598;;1273.1
1458.0;1426.4;;;;;;;;;;;;;;0.982696;-0.38459426;-0.40144047;;;;;1273.1
1458.0;1426.4;;;;;;;;;;;;;;;;;-87.14942;-40.673542;-85.68453;;1273.1
1458.0;1426.4;;;;;;;;;;;;;;0.96279794;-0.33606982;-0.428663;;;;;1273.1
1458.0;1426.4;;;;;;;;;;;;;;;;;-88.950005;-45.819725;-84.94446;;1282.7
1458.0;1426.4;;;;;;;;;;;;;;0.9460738;-0.25965148;-0.42298654;;;;;1282.7
1458.0;1426.4;;;;;;;;;;;;;;;;;-89.491714;-54.326763;-84.78423;;1282.7
1458.0;1426.4;;;;;;;;;;;;;;0.9370403;-0.23316142;-0.44587544;;;;;1282.7
1458.0;1426.4;;;;;;;;;;;;;;;;;-86.725975;-63.02072;-85.9859;;1292.4
1458.0;1426.4;;;;;;;;;;;;;;0.99233985;-0.24414808;-0.49269083;;;;;1292.4
1458.0;1426.4;;;;;;;;;;;;;;;;;-82.438126;-64.580986;-85.87146;;1292.4
1458.0;1426.4;;;;;;;;;;;;;;1.0397656;-0.16162603;-0.48823512;;;;;1292.4
1460.0;1427.1;;;;;;;;;;;;;;;;;-82.99509;-59.312725;-88.6143;;1302.0
1460.0;1427.1;;;;;;;;;;;;;;1.048799;-0.03790399;-0.42023987;;;;;1302.0
1460.0;1427.1;;;;;;;;;;;;;;;;;-83.04086;-60.41139;-93.50871;;1302.0
1460.0;1427.1;;;;;;;;;;;;;;1.0580157;0.003967406;-0.36432996;;;;;1302.0
1460.0;1427.1;;;;;;;;;;;;;;;;;-79.39008;-69.341866;-98.994415;;1311.7
1460.0;1427.1;;;;;;;;;;;;;;1.1210669;-0.031922363;-0.35804316;;;;;1311.7
1460.0;1427.1;;;;;;;;;;;;;;;;;-73.98831;-78.12738;-99.99008;;1311.7
1460.0;1427.1;;;;;;;;;;;;;;1.2604145;-0.14056826;-0.37336344;;;;;1311.7
1460.0;1427.1;;;;;;;;;;;;;;;;;-68.20505;-82.14438;-96.5682;;1321.3
1460.0;1427.1;;;;;;;;;;;;;;1.2970977;-0.17914365;-0.4052858;;;;;1321.3
1460.0;1427.1;;;;;;;;;;;;;;;;;-61.643574;-79.34812;-99.08215;;1321.3
1460.0;1427.1;;;;;;;;;;;;;;1.149327;-0.055421613;-0.41694388;;;;;1321.3
1460.0;1427.9;;;;;;;;;;;;;;;;;-65.92761;-75.85376;-97.037415;;1330.9
1460.0;1427.9;;;;;;;;;;;;;;1.0557573;-0.045838803;-0.5122837;;;;;1330.9
1460.0;1427.9;;;;;;;;;;;;;;;;;-69.81872;-67.52984;-91.0596;;1330.9
1460.0;1427.9;;;;;;;;;;;;;;1.1048311;-0.1076693;-0.56825465;;;;;1330.9
1460.0;1427.9;;;;;;;;;;;;;;;;;-65.23713;-55.829796;-83.68557;;1340.6
1460.0;1427.9;;;;;;;;;;;;;;1.1709952;-0.16144292;-0.5150304;;;;;1340.6
1460.0;1427.9;;;;;;;;;;;;;;;;;-59.30128;-50.79043;-76.74642;;1340.6
1460.0;1427.9;;;;;;;;;;;;;;1.1449934;-0.2069155;-0.44422743;;;;;1340.6
1460.0;1427.9;;;;;;;;;;;;;;;;;-54.155098;-51.98065;-72.01987;;1350.2
1460.0;1427.9;;;;;;;;;;;;;;1.0614338;-0.20184942;-0.41340372;;;;;1350.2
1460.0;1427.9;;;;;;;;;;;;;;;;;-54.670097;-51.74032;-70.97461;;1350.2
1460.0;1427.9;;;;;;;;;;;;;;0.9935606;-0.14203314;-0.36036256;;;;;1350.2
1576.0;1429.0;;;;-0.34186175;0.81907284;0.004116059;;;;;;;;;;;;;;;
1576.0;1429.0;;;;-0.34292987;0.8175508;0.0027542117;;;;;;;;;;;;;;;
1576.0;1429.0;;;;-0.34380344;0.81591046;4.2343145E-4;;;;;;;;;;;;;;;
1576.0;1429.0;;;;-0.34429935;0.8138162;-7.9727184E-4;;;;;;;;;;;;;;;
1576.0;1429.0;;;;-0.34476855;0.8116952;-0.0025329592;;;;;;;;;;;;;;;
1576.0;1438.9;;;;-0.34575656;0.80978024;-0.0040969853;;;;;;;;;;;;;;;
1576.0;1438.9;;;;-0.34730533;0.80788815;-0.005058289;;;;;;;;;;;;;;;
1576.0;1438.9;;;;-0.34961703;0.8057214;-0.0058479314;;;;;;;;;;;;;;;
1576.0;1438.9;;;;-0.35248187;0.8044168;-0.0059013376;;;;;;;;;;;;;;;
1576.0;1438.9;;;;-0.35667422;0.8024255;-0.0064926157;;;;;;;;;;;;;;;
1576.0;1441.0;262143;262143;11203;;;;;;;;;;;;;;;;;;
1576.0;1447.2;;;;;;;;;;;;;115;;;;;;;;
1576.0;1447.2;;;;;;;;;;;;;948;;;;;;;;
1576.0;1447.2;;;;;;;;;;;;;1957;;;;;;;;
1576.0;1447.2;;;;;;;;;;;;;2828;;;;;;;;
1576.0;1447.2;;;;;;;;;;;;;3346;;;;;;;;
1576.0;1449.0;;;;-0.36030582;0.8005563;-0.006855012;;;;;;;;;;;;;;;
1576.0;1449.0;;;;-0.36456302;0.79929364;-0.0066108713;;;;;;;;;;;;;;;
1576.0;1449.0;;;;-0.3685036;0.79796994;-0.006904603;;;;;;;;;;;;;;;
1576.0;1449.0;;;;-0.37269214;0.79677975;-0.0063705454;;;;;;;;;;;;;;;
1576.0;1449.0;;;;-0.3770104;0.79574597;-0.004981995;;;;;;;;;;;;;;;
1578.0;1458.9;;;;-0.380745;0.79480374;-0.0028686526;;;;;;;;;;;;;;;
1578.0;1458.9;;;;-0.38507468;0.79397595;-4.0817267E-4;;;;;;;;;;;;;;;
1578.0;1458.9;;;;-0.38919836;0.79228604;0.0018119814;;;;;;;;;;;;;;;
1578.0;1458.9;;;;-0.39329916;0.790455;0.004467011;;;;;;;;;;;;;;;
1578.0;1458.9;;;;-0.39757925;0.78912747;0.0072288522;;;;;;;;;;;;;;;
1578.0;1461.0;262143;262143;11201;;;;;;;;;;;;;;;;;;
1578.0;1469.0;;;;-0.40110403;0.78779995;0.009048463;;;;;;;;;;;;;;;
1578.0;1469.0;;;;-0.40341192;0.78641903;0.010643006;;;;;;;;;;;;;;;
1578.0;1469.0;;;;-0.40509802;0.78520596;0.0117988605;;;;;;;;;;;;;;;
1578.0;1469.0;;;;-0.40500265;0.78445065;0.01350403;;;;;;;;;;;;;;;
1578.0;1469.0;;;;-0.4039727;0.7840234;0.0143318195;;;;;;;;;;;;;;;
1578.0;1479.1;;;;-0.40300375;0.78346646;0.016067507;;;;;;;;;;;;;;;
1578.0;1479.1;;;;-0.40268713;0.78330624;0.019325258;;;;;;;;;;;;;;;
1578.0;1479.1;;;;-0.4033242;0.78320706;0.021800997;;;;;;;;;;;;;;;
1578.0;1479.1;;;;-0.40552145;0.7827836;0.025119785;;;;;;;;;;;;;;;
1578.0;1479.1;;;;-0.40790182;0.78244793;0.028869633;;;;;;;;;;;;;;;
1578.0;1481.3;262143;262143;11184;;;;;;;;;;;;;;;;;;
1580.0;1484.8;;;;;;;;;;;;;;;;;-57.184055;-50.10376;-66.59139;;1359.9
1580.0;1484.8;;;;;;;;;;;;;;0.95852536;-0.15521714;-0.3144017;;;;;1359.9
1580.0;1484.8;;;;;;;;;;;;;;;;;-57.74102;-49.462875;-59.869686;;1359.9
1580.0;1484.8;;;;;;;;;;;;;;0.95437485;-0.19714957;-0.29126865;;;;;1359.9
1580.0;1484.8;;;;;;;;;;;;;;;;;-57.840206;-48.57784;-55.280464;;1369.5
1580.0;1484.8;;;;;;;;;;;;;;0.9592578;-0.227546;-0.27332377;;;;;1369.5
1580.0;1484.8;;;;;;;;;;;;;;;;;-59.03043;-45.38484;-53.945282;;1369.5
1580.0;1484.8;;;;;;;;;;;;;;0.94949186;-0.22504349;-0.2512894;;;;;1369.5
1580.0;1484.8;;;;;;;;;;;;;;;;;-60.422832;-42.71447;-52.823727;;1379.0
1580.0;1484.8;;;;;;;;;;;;;;0.9340495;-0.19775994;-0.22809534;;;;;1379.0
1580.0;1484.8;;;;;;;;;;;;;;;;;-61.97165;-41.158024;-50.7065;;1379.0
1580.0;1484.8;;;;;;;;;;;;;;0.92806786;-0.1612598;-0.22589801;;;;;1379.0
1580.0;1485.5;;;;;;;;;;;;;;;;;-62.162388;-38.842434;-48.34895;;1388.6
1580.0;1485.5;;;;;;;;;;;;;;0.9320963;-0.11963256;-0.23407696;;;;;1388.6
1580.0;1485.5;;;;;;;;;;;;;;;;;-61.796165;-35.405285;-45.548874;;1388.6
1580.0;1485.5;;;;;;;;;;;;;;0.93276775;-0.10852382;-0.23987548;;;;;1388.6
1580.0;1485.5;;;;;;;;;;;;;;;;;-61.590168;-30.571917;-43.233284;;1398.3
1580.0;1485.5;;;;;;;;;;;;;;0.9218421;-0.09387494;-0.22986542;;;;;1398.3
1580.0;1485.5;;;;;;;;;;;;;;;;;-62.280647;-26.165808;-41.03595;;1398.3
1580.0;1485.5;;;;;;;;;;;;;;0.8991363;-0.06469924;-0.20209357;;;;;1398.3
1580.0;1485.5;;;;;;;;;;;;;;;;;-64.054535;-24.37666;-38.60973;;1408.0
1580.0;1485.5;;;;;;;;;;;;;;0.87905514;-0.045228433;-0.1866512;;;;;1408.0
1580.0;1485.5;;;;;;;;;;;;;;;;;-65.96576;-23.667105;-36.324657;;1408.0
1580.0;1485.5;;;;;;;;;;;;;;0.86324656;-0.035279397;-0.18408765;;;;;1408.0
1581.0;1487.3;;;;;;;;;;;;;3641;;;;;;;;
1581.0;1487.3;;;;;;;;;;;;;3951;;;;;;;;
1581.0;1487.3;;;;;;;;;;;;;4243;;;;;;;;
1581.0;1487.3;;;;;;;;;;;;;4263;;;;;;;;
1581.0;1487.3;;;;;;;;;;;;;3951;;;;;;;;
1581.0;1489.0;;;;-0.41043097;0.7819749;0.032775883;;;;;;;;;;;;;;;
1581.0;1489.0;;;;-0.4127999;0.7812997;0.036708836;;;;;;;;;;;;;;;
1581.0;1489.0;;;;-0.41534048;0.7812692;0.040184025;;;;;;;;;;;;;;;
1581.0;1489.0;;;;-0.41802222;0.78081524;0.04423142;;;;;;;;;;;;;;;
1581.0;1489.0;;;;-0.42042166;0.7806169;0.046825413;;;;;;;;;;;;;;;
1581.0;1499.1;;;;-0.4226151;0.7806932;0.049896248;;;;;;;;;;;;;;;
1581.0;1499.1;;;;-0.42368704;0.7808305;0.05287934;;;;;;;;;;;;;;;
1581.0;1499.1;;;;-0.4235192;0.7807962;0.054996498;;;;;;;;;;;;;;;
1581.0;1499.1;;;;-0.42226416;0.7805215;0.057975776;;;;;;;;;;;;;;;
1581.0;1499.1;;;;-0.4222451;0.78175366;0.060352333;;;;;;;;;;;;;;;
1582.0;1500.1;;;;;;;;;;;;;;;;;-67.98379;-23.369549;-34.32569;;1417.6
1582.0;1500.1;;;;;;;;;;;;;;0.847499;-0.025147252;-0.19183935;;;;;1417.6
1582.0;1500.1;;;;;;;;;;;;;;;;;-70.005646;-23.968475;-32.03299;;1417.6
1582.0;1500.1;;;;;;;;;;;;;;0.82778406;-0.029786065;-0.20783105;;;;;1417.6
1582.0;1500.1;;;;;;;;;;;;;;;;;-71.699425;-26.177252;-29.095585;;1427.2
1582.0;1500.1;;;;;;;;;;;;;;0.8003174;-0.03686636;-0.23059785;;;;;1427.2
1582.0;1500.1;;;;;;;;;;;;;;;;;-74.007385;-29.549547;-26.478622;;1427.2
1582.0;1500.1;;;;;;;;;;;;;;0.78243357;-0.02826014;-0.27216408;;;;;1427.2
1582.0;1500.1;;;;;;;;;;;;;;;;;-75.15183;-32.666252;-23.44203;;1436.8
1582.0;1500.1;;;;;;;;;;;;;;0.75875115;-0.042237617;-0.31189916;;;;;1436.8
1582.0;1500.1;;;;;;;;;;;;;;;;;-73.73272;-35.363323;-20.359661;;1436.8
1582.0;1500.1;;;;;;;;;;;;;;0.73860896;-0.05774102;-0.33851132;;;;;1436.8
1582.0;1501.1;262143;262143;11182;;;;;;;;;;;;;;;;;;
1582.0;1508.8;;;;-0.42138296;0.7827531;0.063034065;;;;;;;;;;;;;;;
1582.0;1508.8;;;;-0.4206391;0.7840425;0.06656266;;;;;;;;;;;;;;;
1582.0;1508.8;;;;-0.41916662;0.78548825;0.07049943;;;;;;;;;;;;;;;
1582.0;1508.8;;;;-0.41639334;0.7868539;0.07366181;;;;;;;;;;;;;;;
1582.0;1508.8;;;;-0.4132462;0.78797543;0.076580055;;;;;;;;;;;;;;;
1582.0;1518.9;;;;-0.41039664;0.78974164;0.08064652;;;;;;;;;;;;;;;
1582.0;1518.9;;;;-0.4086762;0.79184353;0.084301;;;;;;;;;;;;;;;
1582.0;1518.9;;;;-0.4062882;0.79343045;0.087615974;;;;;;;;;;;;;;;
1582.0;1518.9;;;;-0.4044991;0.794613;0.09180833;;;;;;;;;;;;;;;
1582.0;1518.9;;;;-0.40409094;0.7959291;0.096653;;;;;;;;;;;;;;;
1583.0;1521.1;262143;262143;11180;;;;;;;;;;;;;;;;;;
1583.0;1527.4;;;;;;;;;;;;;3669;;;;;;;;
1583.0;1527.4;;;;;;;;;;;;;3818;;;;;;;;
1583.0;1527.4;;;;;;;;;;;;;4377;;;;;;;;
1583.0;1527.4;;;;;;;;;;;;;4913;;;;;;;;
1583.0;1527.4;;;;;;;;;;;;;4842;;;;;;;;
1583.0;1529.0;;;;-0.40362936;0.79688656;0.10171892;;;;;;;;;;;;;;;
1583.0;1529.0;;;;-0.4022141;0.79761136;0.10692598;;;;;;;;;;;;;;;
1583.0;1529.0;;;;-0.40304953;0.79916775;0.112510696;;;;;;;;;;;;;;;
1583.0;1529.0;;;;-0.403225;0.8000947;0.11725618;;;;;;;;;;;;;;;
1583.0;1529.0;;;;-0.40300375;0.80067074;0.12195589;;;;;;;;;;;;;;;
1583.0;1539.1;;;;-0.4049073;0.8023759;0.12555315;;;;;;;;;;;;;;;
1583.0;1539.1;;;;-0.40609747;0.8048593;0.12923433;;;;;;;;;;;;;;;
1583.0;1539.1;;;;-0.40808493;0.8071023;0.13279344;;;;;;;;;;;;;;;
1583.0;1539.1;;;;-0.41009146;0.8097993;0.13623811;;;;;;;;;;;;;;;
1583.0;1539.1;;;;-0.41304785;0.8126718;0.14020158;;;;;;;;;;;;;;;
1583.0;1541.4;262143;262143;11148;;;;;;;;;;;;;;;;;;
1584.0;1544.9;;;;;;;;;;;;;;;;;-70.242165;-36.687065;-17.376476;;1446.5
1584.0;1544.9;;;;;;;;;;;;;;0.7066256;-0.08117924;-0.34308907;;;;;1446.5
1584.0;1544.9;;;;;;;;;;;;;;;;;-65.2295;-41.516617;-14.656514;;1446.5
1584.0;1544.9;;;;;;;;;;;;;;0.6725669;-0.092043824;-0.36481827;;;;;1446.5
1584.0;1544.9;;;;;;;;;;;;;;;;;-60.331276;-48.177284;-11.730552;;1456.2
1584.0;1544.9;;;;;;;;;;;;;;0.64491713;-0.100833155;-0.41743216;;;;;1456.2
1584.0;1544.9;;;;;;;;;;;;;;;;;-57.23365;-50.786613;-8.754997;;1456.2
1584.0;1544.9;;;;;;;;;;;;;;0.6292306;-0.108401746;-0.43006682;;;;;1456.2
1584.0;1544.9;;;;;;;;;;;;;;;;;-55.169834;-49.756615;-6.7522206;;1465.7
1584.0;1544.9;;;;;;;;;;;;;;0.6176946;-0.114322335;-0.4104129;;;;;1465.7
1584.0;1544.9;;;;;;;;;;;;;;;;;-50.466167;-46.887875;-5.8900723;;1465.7
1584.0;1544.9;;;;;;;;;;;;;;0.60841703;-0.12891018;-0.39497054;;;;;1465.7
1584.0;1549.1;;;;-0.4153672;0.8155366;0.14386751;;;;;;;;;;;;;;;
1584.0;1549.1;;;;-0.41636282;0.8186723;0.14774324;;;;;;;;;;;;;;;
1584.0;1549.1;;;;-0.41715246;0.82119;0.15111925;;;;;;;;;;;;;;;
1584.0;1549.1;;;;-0.41732413;0.8234445;0.15373994;;;;;;;;;;;;;;;
1584.0;1549.1;;;;-0.41711813;0.82564557;0.1559601;;;;;;;;;;;;;;;
1584.0;1559.2;;;;-0.41592032;0.8277856;0.15876772;;;;;;;;;;;;;;;
1584.0;1559.2;;;;-0.4162255;0.8302194;0.16072084;;;;;;;;;;;;;;;
1584.0;1559.2;;;;-0.41676718;0.83265316;0.16380693;;;;;;;;;;;;;;;
1584.0;1559.2;;;;-0.4158936;0.83441556;0.16673662;;;;;;;;;;;;;;;
1584.0;1559.2;;;;-0.41715628;0.8372804;0.16928102;;;;;;;;;;;;;;;
1637.0;1560.0;;;;;;;;;;;;;;;;;-41.310616;-42.466507;-5.298776;;1475.4
1637.0;1560.0;;;;;;;;;;;;;;0.5965758;-0.15643787;-0.37354657;;;;;1475.4
1637.0;1560.0;;;;;;;;;;;;;;;;;-29.446547;-38.628803;-6.0731835;;1475.4
1637.0;1560.0;;;;;;;;;;;;;;0.56892604;-0.17859432;-0.36805323;;;;;1475.4
1637.0;1560.0;;;;;;;;;;;;;;;;;-17.612995;-34.970394;-8.777886;;1485.0
1637.0;1560.0;;;;;;;;;;;;;;0.5460372;-0.16956083;-0.35541856;;;;;1485.0
1637.0;1560.0;;;;;;;;;;;;;;;;;-7.4694057;-33.227028;-10.212256;;1485.0
1637.0;1560.0;;;;;;;;;;;;;;0.5328532;-0.17029329;-0.35084078;;;;;1485.0
1637.0;1560.0;;;;;;;;;;;;;;;;;1.1329997;-30.78936;-10.925627;;1494.5
1637.0;1560.0;;;;;;;;;;;;;;0.53279215;-0.17218544;-0.32917264;;;;;1494.5
1637.0;1560.0;;;;;;;;;;;;;;;;;8.140813;-26.5244;-11.265144;;1494.5
1637.0;1560.0;;;;;;;;;;;;;;0.5528123;-0.16699728;-0.2997528;;;;;1494.5
1637.0;1561.4;262143;262143;11121;;;;;;;;;;;;;;;;;;
1637.0;1567.6;;;;;;;;;;;;;4151;;;;;;;;
1637.0;1567.6;;;;;;;;;;;;;3368;;;;;;;;
1637.0;1567.6;;;;;;;;;;;;;2799;;;;;;;;
1637.0;1567.6;;;;;;;;;;;;;2515;;;;;;;;
1637.0;1567.6;;;;;;;;;;;;;2607;;;;;;;;
1637.0;1569.0;;;;-0.41789633;0.84061444;0.17269136;;;;;;;;;;;;;;;
1637.0;1569.0;;;;-0.41685873;0.8431703;0.17643358;;;;;;;;;;;;;;;
1637.0;1569.0;;;;-0.4164353;0.8459779;0.17974092;;;;;;;;;;;;;;;
1637.0;1569.0;;;;-0.4164315;0.84928906;0.18314363;;;;;;;;;;;;;;;
1637.0;1569.0;;;;-0.41592413;0.8531114;0.18704607;;;;;;;;;;;;;;;
1640.0;1578.7;;;;-0.41574484;0.8577806;0.18902972;;;;;;;;;;;;;;;
1640.0;1578.7;;;;-0.41690832;0.86283123;0.19202045;;;;;;;;;;;;;;;
1640.0;1578.7;;;;-0.4173661;0.8686677;0.19472125;;;;;;;;;;;;;;;
1640.0;1578.7;;;;-0.4166718;0.8737794;0.19784167;;;;;;;;;;;;;;;
1640.0;1578.7;;;;-0.415474;0.8785821;0.20038989;;;;;;;;;;;;;;;
1640.0;1581.1;262143;262143;11105;;;;;;;;;;;;;;;;;;
1640.0;1588.8;;;;-0.41614538;0.88373196;0.20333484;;;;;;;;;;;;;;;
1640.0;1588.8;;;;-0.41714102;0.88798916;0.2068291;;;;;;;;;;;;;;;
1640.0;1588.8;;;;-0.4199143;0.89273846;0.20982364;;;;;;;;;;;;;;;
1640.0;1588.8;;;;-0.42070776;0.89598095;0.21294788;;;;;;;;;;;;;;;
1640.0;1588.8;;;;-0.4220391;0.89865124;0.21602252;;;;;;;;;;;;;;;
1640.0;1598.9;;;;-0.42237478;0.9010354;0.21930698;;;;;;;;;;;;;;;
1640.0;1598.9;;;;-0.4244004;0.90361035;0.22077563;;;;;;;;;;;;;;;
1640.0;1598.9;;;;-0.42812353;0.9066392;0.22199252;;;;;;;;;;;;;;;
1640.0;1598.9;;;;-0.4321671;0.9105302;0.22412112;;;;;;;;;;;;;;;
1640.0;1598.9;;;;-0.43576437;0.9135324;0.22606662;;;;;;;;;;;;;;;
1640.0;1601.4;262143;262143;11095;;;;;;;;;;;;;;;;;;
1642.0;1604.8;;;;;;;;;;;;;;;;;14.725182;-19.539474;-12.173071;;1504.2
1642.0;1604.8;;;;;;;;;;;;;;0.5652638;-0.1678518;-0.25202185;;;;;1504.2
1642.0;1604.8;;;;;;;;;;;;;;;;;21.41255;-12.49733;-14.408551;;1504.2
1642.0;1604.8;;;;;;;;;;;;;;0.5843684;-0.15320292;-0.22235785;;;;;1504.2
1642.0;1604.8;;;;;;;;;;;;;;;;;28.748436;-5.5352945;-16.338848;;1513.9
1642.0;1604.8;;;;;;;;;;;;;;0.61079746;-0.14111759;-0.21393475;;;;;1513.9
1642.0;1604.8;;;;;;;;;;;;;;;;;34.737694;3.566851;-17.792292;;1513.9
1642.0;1604.8;;;;;;;;;;;;;;0.641377;-0.10504471;-0.1942198;;;;;1513.9
1642.0;1604.8;;;;;;;;;;;;;;;;;38.804287;12.546922;-19.146551;;1523.5
1642.0;1604.8;;;;;;;;;;;;;;0.6807459;-0.045533616;-0.18457595;;;;;1523.5
1642.0;1604.8;;;;;;;;;;;;;;;;;42.42836;19.497513;-20.702993;;1523.5
1642.0;1604.8;;;;;;;;;;;;;;0.72005373;0.034363844;-0.17621388;;;;;1523.5
1642.0;1607.4;;;;;;;;;;;;;3106;;;;;;;;
1642.0;1607.4;;;;;;;;;;;;;3823;;;;;;;;
1642.0;1607.4;;;;;;;;;;;;;4415;;;;;;;;
1642.0;1607.4;;;;;;;;;;;;;4555;;;;;;;;
1642.0;1607.4;;;;;;;;;;;;;4355;;;;;;;;
1642.0;1608.9;;;;-0.43695074;0.9154054;0.22842029;;;;;;;;;;;;;;;
1642.0;1608.9;;;;-0.43762213;0.91770947;0.22900394;;;;;;;;;;;;;;;
1642.0;1608.9;;;;-0.43814856;0.9195596;0.23027423;;;;;;;;;;;;;;;
1642.0;1608.9;;;;-0.44032675;0.9223863;0.23014453;;;;;;;;;;;;;;;
1642.0;1608.9;;;;-0.44348913;0.9255067;0.23007587;;;;;;;;;;;;;;;
1696.0;1619.0;;;;-0.4444924;0.9285394;0.22996524;;;;;;;;;;;;;;;
1696.0;1619.0;;;;-0.44438177;0.93120587;0.23032382;;;;;;;;;;;;;;;
1696.0;1619.0;;;;-0.44372565;0.9336511;0.2296181;;;;;;;;;;;;;;;
1696.0;1619.0;;;;-0.44417197;0.9365655;0.22959521;;;;;;;;;;;;;;;
1696.0;1619.0;;;;-0.44525152;0.93971264;0.22984698;;;;;;;;;;;;;;;
1696.0;1621.4;262143;262143;11085;;;;;;;;;;;;;;;;;;
1696.0;1628.8;;;;-0.4470063;0.943226;0.23020938;;;;;;;;;;;;;;;
1696.0;1628.8;;;;-0.44886023;0.94734585;0.23134997;;;;;;;;;;;;;;;
1696.0;1628.8;;;;-0.44928366;0.9501115;0.23381427;;;;;;;;;;;;;;;
1696.0;1628.8;;;;-0.4498101;0.9525224;0.23590091;;;;;;;;;;;;;;;
1696.0;1628.8;;;;-0.45229727;0.95591366;0.23741534;;;;;;;;;;;;;;;
1696.0;1638.9;;;;-0.45539862;0.9587556;0.23959354;;;;;;;;;;;;;;;
1696.0;1638.9;;;;-0.45616537;0.96107113;0.24245837;;;;;;;;;;;;;;;
1696.0;1638.9;;;;-0.45701987;0.96270764;0.24496081;;;;;;;;;;;;;;;
1696.0;1638.9;;;;-0.45533758;0.96377957;0.24868777;;;;;;;;;;;;;;;
1696.0;1638.9;;;;-0.45470816;0.9636613;0.2512093;;;;;;;;;;;;;;;
1696.0;1641.5;262143;262143;11075;;;;;;;;;;;;;;;;;;
1696.0;1647.7;;;;;;;;;;;;;4314;;;;;;;;
1696.0;1647.7;;;;;;;;;;;;;4263;;;;;;;;
1696.0;1647.7;;;;;;;;;;;;;3573;;;;;;;;
1696.0;1647.7;;;;;;;;;;;;;2812;;;;;;;;
1696.0;1647.7;;;;;;;;;;;;;3709;;;;;;;;
1699.0;1649.0;;;;-0.45532614;0.9634057;0.25311664;;;;;;;;;;;;;;;
1699.0;1649.0;;;;-0.4566117;0.96286404;0.25446323;;;;;;;;;;;;;;;
1699.0;1649.0;;;;-0.4570046;0.96187985;0.2570038;;;;;;;;;;;;;;;
1699.0;1649.0;;;;-0.45681387;0.9597093;0.25851443;;;;;;;;;;;;;;;
1699.0;1649.0;;;;-0.4560929;0.95679486;0.2598572;;;;;;;;;;;;;;;
1699.0;1659.2;;;;-0.45548636;0.95429623;0.2611008;;;;;;;;;;;;;;;
1699.0;1659.2;;;;-0.45507818;0.9516641;0.26135257;;;;;;;;;;;;;;;
1699.0;1659.2;;;;-0.45292288;0.94880307;0.26285556;;;;;;;;;;;;;;;
1699.0;1659.2;;;;-0.45105368;0.94635403;0.2631264;;;;;;;;;;;;;;;
1699.0;1659.2;;;;-0.44888693;0.9447099;0.2634392;;;;;;;;;;;;;;;
1699.0;1661.8;262143;262143;11078;;;;;;;;;;;;;;;;;;
1699.0;1665.6;;;;;;;;;;;;;;;;;45.628986;25.368511;-20.775475;;1533.1
1699.0;1665.6;;;;;;;;;;;;;;0.74898523;0.08343761;-0.17413862;;;;;1533.1
1699.0;1665.6;;;;;;;;;;;;;;;;;47.98654;30.159916;-21.19129;;1533.1
1699.0;1665.6;;;;;;;;;;;;;;0.7731559;0.15674306;-0.16144292;;;;;1533.1
1699.0;1665.6;;;;;;;;;;;;;;;;;48.76095;33.207954;-19.96292;;1542.8
1699.0;1665.6;;;;;;;;;;;;;;0.78872037;0.20874661;-0.1683401;;;;;1542.8
1699.0;1665.6;;;;;;;;;;;;;;;;;49.25306;35.8211;-17.853329;;1542.8
1699.0;1665.6;;;;;;;;;;;;;;0.79494613;0.25025177;-0.17981505;;;;;1542.8
1699.0;1665.6;;;;;;;;;;;;;;;;;48.242134;38.548695;-17.132328;;1552.3
1699.0;1665.6;;;;;;;;;;;;;;0.7919553;0.2779626;-0.19501327;;;;;1552.3
1699.0;1665.6;;;;;;;;;;;;;;;;;46.845913;37.995544;-17.113253;;1552.3
1699.0;1665.6;;;;;;;;;;;;;;0.8028199;0.3126316;-0.22302927;;;;;1552.3
1700.0;1666.4;;;;;;;;;;;;;;;;;42.176582;34.169285;-16.228218;;1561.9
1700.0;1666.4;;;;;;;;;;;;;;0.8106937;0.35804316;-0.28833887;;;;;1561.9
1700.0;1666.4;;;;;;;;;;;;;;;;;36.66036;29.40077;-15.358439;;1561.9
1700.0;1666.4;;;;;;;;;;;;;;0.8136235;0.387463;-0.34626302;;;;;1561.9
1700.0;1666.4;;;;;;;;;;;;;;;;;31.167028;22.801142;-15.404218;;1571.6
1700.0;1666.4;;;;;;;;;;;;;;0.83584094;0.4234138;-0.42469558;;;;;1571.6
1700.0;1666.4;;;;;;;;;;;;;;;;;28.1724;16.125217;-14.244514;;1571.6
1700.0;1666.4;;;;;;;;;;;;;;0.842616;0.44935453;-0.5042268;;;;;1571.6
1700.0;1666.4;;;;;;;;;;;;;;;;;26.39088;8.747368;-12.9703665;;1581.2
1700.0;1666.4;;;;;;;;;;;;;;0.8575091;0.49067658;-0.58308667;;;;;1581.2
1700.0;1666.4;;;;;;;;;;;;;;;;;22.957548;6.7941833;-11.57033;;1581.2
1700.0;1666.4;;;;;;;;;;;;;;0.8888821;0.5310831;-0.62202823;;;;;1581.2
1700.0;1669.1;;;;-0.44721228;0.9427568;0.26303104;;;;;;;;;;;;;;;
1700.0;1669.1;;;;-0.44575125;0.94204724;0.26233295;;;;;;;;;;;;;;;
1700.0;1669.1;;;;-0.44548804;0.9411622;0.26233295;;;;;;;;;;;;;;;
1700.0;1669.1;;;;-0.44483572;0.94080746;0.26251605;;;;;;;;;;;;;;;
1700.0;1669.1;;;;-0.44432837;0.94134533;0.26235965;;;;;;;;;;;;;;;
1700.0;1679.2;;;;-0.4449349;0.9425241;0.26191333;;;;;;;;;;;;;;;
1700.0;1679.2;;;;-0.44614416;0.9438783;0.26141742;;;;;;;;;;;;;;;
1700.0;1679.2;;;;-0.44762045;0.9451219;0.26132587;;;;;;;;;;;;;;;
1700.0;1679.2;;;;-0.44962317;0.9470216;0.2613106;;;;;;;;;;;;;;;
1700.0;1679.2;;;;-0.45161444;0.9489213;0.26128772;;;;;;;;;;;;;;;
1817.0;1680.2;;;;;;;;;;;;;;;;;19.0817;8.983886;-9.895626;;1590.8
1817.0;1680.2;;;;;;;;;;;;;;0.8957183;0.51857054;-0.62263864;;;;;1590.8
1817.0;1680.2;;;;;;;;;;;;;;;;;16.338848;11.864071;-10.124516;;1590.8
1817.0;1680.2;;;;;;;;;;;;;;0.88357186;0.5173498;-0.6204413;;;;;1590.8
1817.0;1680.2;;;;;;;;;;;;;;;;;13.370922;13.168737;-10.963775;;1600.4
1817.0;1680.2;;;;;;;;;;;;;;0.86770225;0.5393231;-0.62855923;;;;;1600.4
1817.0;1680.2;;;;;;;;;;;;;;;;;11.085848;11.028626;-11.093478;;1600.4
1817.0;1680.2;;;;;;;;;;;;;;0.8565325;0.5402997;-0.67067474;;;;;1600.4
1817.0;1680.2;;;;;;;;;;;;;;;;;10.124516;5.0660725;-9.4073305;;1610.1
1817.0;1680.2;;;;;;;;;;;;;;0.8506119;0.5411542;-0.7307962;;;;;1610.1
1817.0;1680.2;;;;;;;;;;;;;;;;;9.289071;-2.643666;-7.5457015;;1610.1
1817.0;1680.2;;;;;;;;;;;;;;0.8532365;0.54951626;-0.77602464;;;;;1610.1
1817.0;1681.7;262143;262143;11083;;;;;;;;;;;;;;;;;;
1817.0;1687.7;;;;;;;;;;;;;6059;;;;;;;;
1817.0;1687.7;;;;;;;;;;;;;4673;;;;;;;;
1817.0;1687.7;;;;;;;;;;;;;-4398;;;;;;;;
1817.0;1687.7;;;;;;;;;;;;;-14333;;;;;;;;
1817.0;1687.7;;;;;;;;;;;;;-13438;;;;;;;;
1817.0;1688.9;;;;-0.4528275;0.9510118;0.26163104;;;;;;;;;;;;;;;
1817.0;1688.9;;;;-0.4548264;0.9530755;0.26187137;;;;;;;;;;;;;;;
1817.0;1688.9;;;;-0.45646673;0.95536435;0.26118472;;;;;;;;;;;;;;;
1817.0;1688.9;;;;-0.45755774;0.95743954;0.26040652;;;;;;;;;;;;;;;
1817.0;1688.9;;;;-0.45966727;0.95948803;0.25984958;;;;;;;;;;;;;;;
1819.0;1699.0;;;;-0.46043402;0.9617425;0.2598534;;;;;;;;;;;;;;;
1819.0;1699.0;;;;-0.46115118;0.96398175;0.25909427;;;;;;;;;;;;;;;
1819.0;1699.0;;;;-0.46130377;0.9662019;0.25857165;;;;;;;;;;;;;;;
1819.0;1699.0;;;;-0.46158606;0.9684831;0.2574387;;;;;;;;;;;;;;;
1819.0;1699.0;;;;-0.46166617;0.9707376;0.25608447;;;;;;;;;;;;;;;
1819.0;1701.7;262143;262143;11076;;;;;;;;;;;;;;;;;;
1819.0;1709.1;;;;-0.46195608;0.9727441;0.25496295;;;;;;;;;;;;;;;
1819.0;1709.1;;;;-0.46179587;0.97472775;0.25399783;;;;;;;;;;;;;;;
1819.0;1709.1;;;;-0.4612847;0.97682965;0.25263217;;;;;;;;;;;;;;;
1819.0;1709.1;;;;-0.46013266;0.97854626;0.251133;;;;;;;;;;;;;;;
1819.0;1709.1;;;;-0.4597016;0.98059094;0.24908069;;;;;;;;;;;;;;;
1819.0;1719.2;;;;-0.45911795;0.9823457;0.24709705;;;;;;;;;;;;;;;
1819.0;1719.2;;;;-0.45854956;0.9837419;0.2450333;;;;;;;;;;;;;;;
1819.0;1719.2;;;;-0.45837027;0.9857789;0.24214175;;;;;;;;;;;;;;;
1819.0;1719.2;;;;-0.45833594;0.9878961;0.23994449;;;;;;;;;;;;;;;
1819.0;1719.2;;;;-0.45845038;0.98931134;0.2374039;;;;;;;;;;;;;;;
1819.0;1722.0;262143;262143;11076;;;;;;;;;;;;;;;;;;
1828.0;1725.3;;;;;;;;;;;;;;;;;8.682516;-9.594256;-6.1609244;;1619.6
1828.0;1725.3;;;;;;;;;;;;;;0.832728;0.5350505;-0.8153325;;;;;1619.6
1828.0;1725.3;;;;;;;;;;;;;;;;;9.498886;-14.446699;-5.3216653;;1619.6
1828.0;1725.3;;;;;;;;;;;;;;0.82381666;0.5377361;-0.8233894;;;;;1619.6
1828.0;1725.3;;;;;;;;;;;;;;;;;11.87933;-19.753105;-5.42848;;1629.0
1828.0;1725.3;;;;;;;;;;;;;;0.8020875;0.5429853;-0.82699054;;;;;1629.0
1828.0;1725.3;;;;;;;;;;;;;;;;;13.855403;-26.970734;-5.1499987;;1629.0
1828.0;1725.3;;;;;;;;;;;;;;0.78096867;0.53132725;-0.8301645;;;;;1629.0
1828.0;1725.3;;;;;;;;;;;;;;;;;14.385662;-35.039062;-4.5129247;;1638.7
1828.0;1725.3;;;;;;;;;;;;;;0.7791986;0.5437788;-0.81783503;;;;;1638.7
1828.0;1725.3;;;;;;;;;;;;;;;;;12.802515;-41.619617;-3.5515916;;1638.7
1828.0;1725.3;;;;;;;;;;;;;;0.77980894;0.53675956;-0.7932371;;;;;1638.7
1828.0;1728.0;;;;;;;;;;;;;-732;;;;;;;;
1828.0;1728.0;;;;;;;;;;;;;11806;;;;;;;;
1828.0;1728.0;;;;;;;;;;;;;13888;;;;;;;;
1828.0;1728.0;;;;;;;;;;;;;7963;;;;;;;;
1828.0;1728.0;;;;;;;;;;;;;2808;;;;;;;;
1828.0;1729.2;;;;-0.45873648;0.991398;0.23340991;;;;;;;;;;;;;;;
1828.0;1729.2;;;;-0.45901877;0.9932977;0.23025516;;;;;;;;;;;;;;;
1828.0;1729.2;;;;-0.45981604;0.99570096;0.22694781;;;;;;;;;;;;;;;
1828.0;1729.2;;;;-0.46123892;0.9980508;0.22370532;;;;;;;;;;;;;;;
1828.0;1729.2;;;;-0.46364218;1.0010034;0.22059253;;;;;;;;;;;;;;;
1834.0;1732.8;;;;;;;;;;;;;;;;;8.465072;-44.610428;-2.5254066;;1648.4
1834.0;1732.8;;;;;;;;;;;;;;0.7882931;0.5445723;-0.7493515;;;;;1648.4
1834.0;1732.8;;;;;;;;;;;;;;;;;1.4992218;-42.87469;0.10681479;;1648.4
1834.0;1732.8;;;;;;;;;;;;;;0.7967162;0.5272378;-0.7179785;;;;;1648.4
1834.0;1732.8;;;;;;;;;;;;;;;;;-2.639851;-37.472916;4.0665917;;1658.0
1834.0;1732.8;;;;;;;;;;;;;;0.7981811;0.49208045;-0.6666463;;;;;1658.0
1834.0;1732.8;;;;;;;;;;;;;;;;;-7.820368;-30.987732;7.778405;;1658.0
1834.0;1732.8;;;;;;;;;;;;;;0.7876217;0.44123662;-0.6202582;;;;;1658.0
1834.0;1732.8;;;;;;;;;;;;;;;;;-11.2384405;-25.284584;10.105441;;1667.7
1834.0;1732.8;;;;;;;;;;;;;;0.77822196;0.38850063;-0.57795954;;;;;1667.7
1834.0;1732.8;;;;;;;;;;;;;;;;;-13.401441;-20.554216;11.364329;;1667.7
1834.0;1732.8;;;;;;;;;;;;;;0.7775506;0.3598132;-0.5247963;;;;;1667.7
1834.0;1739.2;;;;-0.46558005;1.0040666;0.21807864;;;;;;;;;;;;;;;
1834.0;1739.2;;;;-0.4679833;1.0072938;0.21556857;;;;;;;;;;;;;;;
1834.0;1739.2;;;;-0.4706307;1.0105973;0.21306995;;;;;;;;;;;;;;;
1834.0;1739.2;;;;-0.47222525;1.01503;0.21055987;;;;;;;;;;;;;;;
1834.0;1739.2;;;;-0.47410208;1.0190393;0.20755008;;;;;;;;;;;;;;;
1834.0;1739.2;;;;;;;;;;0.4158147;17.80755;-1.1329997;;;;;;;;;
1834.0;1739.2;;;;;;;0.31287575;-0.9683523;0.02435377;;;;;;;;;;;;
1834.0;1739.2;;;;;;;;;;7.488479;29.232918;8.896146;;;;;;;;;
1834.0;1739.2;;;;;;;0.3501694;-1.0937223;0.021668142;;;;;;;;;;;;
1834.0;1741.9;262143;262143;11082;;;;;;;;;;;;;;;;;;
1835.0;1748.7;;;;;;;;;;2.994629;8.919034;2.7581105;;;;;;;;;
1835.0;1748.7;;;;;;;0.3455916;-1.098117;0.015625477;;;;;;;;;;;;
1835.0;1748.7;;;;;;;;;;10.692923;19.650105;8.674886;;;;;;;;;
1835.0;1748.7;;;;;;;0.34498122;-1.0995208;0.009643849;;;;;;;;;;;;
1835.0;1749.0;;;;-0.47572714;1.0229799;0.20601657;;;;;;;;;;;;;;;
1835.0;1749.0;;;;-0.47630316;1.0280839;0.20460513;;;;;;;;;;;;;;;
1835.0;1749.0;;;;-0.47715384;1.033127;0.2030411;;;;;;;;;;;;;;;
1835.0;1749.0;;;;-0.47773367;1.0391694;0.20106128;;;;;;;;;;;;;;;
1835.0;1749.0;;;;-0.47803122;1.0455705;0.20020297;;;;;;;;;;;;;;;
1835.0;1758.2;;;;;;;;;;14.969329;21.252327;11.432997;;;;;;;;;
1835.0;1758.2;;;;;;;0.3449202;-1.1006196;0.0038453322;;;;;;;;;;;;
1835.0;1758.2;;;;;;;;;;13.634145;-14.389478;-5.8442945;;;;;;;;;
1835.0;1758.2;;;;;;;0.3480941;-1.101474;-0.0013428144;;;;;;;;;;;;
1835.0;1759.1;;;;-0.47869498;1.0529786;0.19956592;;;;;;;;;;;;;;;
1835.0;1759.1;;;;-0.4787789;1.0605623;0.20023349;;;;;;;;;;;;;;;
1835.0;1759.1;;;;-0.47837073;1.0685693;0.20068362;;;;;;;;;;;;;;;
1835.0;1759.1;;;;-0.47774512;1.0771981;0.20085147;;;;;;;;;;;;;;;
1835.0;1759.1;;;;-0.47702032;1.0864297;0.20073321;;;;;;;;;;;;;;;
1835.0;1762.0;262143;262143;11076;;;;;;;;;;;;;;;;;;
1835.0;1767.8;;;;;;;;;;16.933958;-15.686514;-2.399518;;;;;;;;;
1835.0;1767.8;;;;;;;0.34760582;-1.0929899;-0.0042115543;;;;;;;;;;;;
1835.0;1767.8;;;;;;;;;;19.96292;-16.941587;2.2087772;;;;;;;;;
1835.0;1767.8;;;;;;;0.3457747;-1.0794396;-0.0076906644;;;;;;;;;;;;
1836.0;1768.1;;;;;;;;;;;;;1724;;;;;;;;
1836.0;1768.1;;;;;;;;;;;;;1814;;;;;;;;
1836.0;1768.1;;;;;;;;;;;;;1328;;;;;;;;
1836.0;1768.1;;;;;;;;;;;;;987;;;;;;;;
1836.0;1768.1;;;;;;;;;;;;;652;;;;;;;;
1836.0;1769.3;;;;-0.47674185;1.0957566;0.20132068;;;;;;;;;;;;;;;
1836.0;1769.3;;;;-0.47668082;1.104664;0.20238498;;;;;;;;;;;;;;;
1836.0;1769.3;;;;-0.47677237;1.1139718;0.20299152;;;;;;;;;;;;;;;
1836.0;1769.3;;;;-0.47788626;1.1225435;0.20409396;;;;;;;;;;;;;;;
1836.0;1769.3;;;;-0.4797135;1.1308633;0.20520023;;;;;;;;;;;;;;;
1836.0;1777.5;;;;;;;;;;21.568956;-10.471663;13.328959;;;;;;;;;
1836.0;1777.5;;;;;;;0.34662923;-1.0643635;-0.010864589;;;;;;;;;;;;
1836.0;1777.5;;;;;;;;;;20.714437;-3.2006288;23.529772;;;;;;;;;
1836.0;1777.5;;;;;;;0.3469344;-1.0451369;-0.01330607;;;;;;;;;;;;
1836.0;1779.4;;;;-0.4813767;1.1391145;0.20648196;;;;;;;;;;;;;;;
1836.0;1779.4;;;;-0.4841233;1.1461908;0.20817187;;;;;;;;;;;;;;;
1836.0;1779.4;;;;-0.4867745;1.1529962;0.20927814;;;;;;;;;;;;;;;
1836.0;1779.4;;;;-0.48976523;1.1592141;0.21008685;;;;;;;;;;;;;;;
1836.0;1779.4;;;;-0.49306875;1.164158;0.21049884;;;;;;;;;;;;;;;
1836.0;1782.3;262143;262143;11065;;;;;;;;;;;;;;;;;;
1837.0;1786.0;;;;;;;;;;;;;;;;;-15.442366;-16.899626;12.943663;;1677.4
1837.0;1786.0;;;;;;;;;;;;;;0.7838984;0.3378399;-0.45637378;;;;;1677.4
1837.0;1786.0;;;;;;;;;;;;;;;;;-17.708364;-15.7284775;14.625996;;1677.4
1837.0;1786.0;;;;;;;;;;;;;;0.7901853;0.30249947;-0.40711692;;;;;1677.4
1837.0;1786.0;;;;;;;;;;;;;;;;;-19.928587;-16.525774;16.63259;;1687.0
1837.0;1786.0;;;;;;;;;;;;;;0.8066042;0.26966155;-0.3848384;;;;;1687.0
1837.0;1786.0;;;;;;;;;;;;;;;;;-22.133549;-18.070772;18.276772;;1687.0
1837.0;1786.0;;;;;;;;;;;;;;0.8103275;0.22876675;-0.3772698;;;;;1687.0
1837.0;1786.0;;;;;;;;;;;;;;;;;-22.885067;-23.224586;20.237587;;1696.6
1837.0;1786.0;;;;;;;;;;;;;;0.8090457;0.17914365;-0.4433729;;;;;1696.6
1837.0;1786.0;;;;;;;;;;;;;;;;;-22.106846;-28.389843;22.808771;;1696.6
1837.0;1786.0;;;;;;;;;;;;;;0.8189947;0.13232826;-0.52424693;;;;;1696.6
1837.0;1787.0;;;;;;;;;;19.619585;-3.9826655;26.474808;;;;;;;;;
1837.0;1787.0;;;;;;;0.34498122;-1.0242622;-0.017456587;;;;;;;;;;;;
1837.0;1787.0;;;;;;;;;;18.490402;-4.1772213;29.026918;;;;;;;;;
1837.0;1787.0;;;;;;;0.34272286;-0.9983215;-0.018127995;;;;;;;;;;;;
1837.0;1789.4;;;;-0.49682623;1.1681558;0.21145251;;;;;;;;;;;;;;;
1837.0;1789.4;;;;-0.5008164;1.1718866;0.21181491;;;;;;;;;;;;;;;
1837.0;1789.4;;;;-0.504757;1.1743699;0.21164325;;;;;;;;;;;;;;;
1837.0;1789.4;;;;-0.5084458;1.1769029;0.2124596;;;;;;;;;;;;;;;
1837.0;1789.4;;;;-0.51204306;1.1786462;0.21360782;;;;;;;;;;;;;;;
1838.0;1793.1;;;;;;;;;;;;;;;;;-21.622364;-31.308174;26.547289;;1706.2
1838.0;1793.1;;;;;;;;;;;;;;0.86538285;0.0761742;-0.5755791;;;;;1706.2
1838.0;1793.1;;;;;;;;;;;;;;;;;-23.94177;-30.148472;31.426434;;1706.2
1838.0;1793.1;;;;;;;;;;;;;;0.966216;0.028077029;-0.6059755;;;;;1706.2
1838.0;1793.1;;;;;;;;;;;;;;;;;-30.606249;-24.674215;35.64562;;1715.9
1838.0;1793.1;;;;;;;;;;;;;;1.096469;0.0027466659;-0.6339305;;;;;1715.9
1838.0;1793.1;;;;;;;;;;;;;;;;;-40.24247;-20.424513;38.407547;;1715.9
1838.0;1793.1;;;;;;;;;;;;;;1.2218391;-0.003540147;-0.6955168;;;;;1715.9
1838.0;1793.1;;;;;;;;;;;;;;;;;-49.569687;-19.486069;40.166172;;1725.5
1838.0;1793.1;;;;;;;;;;;;;;1.3050935;0.0073854793;-0.78542435;;;;;1725.5
1838.0;1793.1;;;;;;;;;;;;;;;;;-56.05487;-16.716515;41.608173;;1725.5
1838.0;1793.1;;;;;;;;;;;;;;1.3102816;0.035889767;-0.86233103;;;;;1725.5
1838.0;1796.5;;;;;;;;;;17.40318;-4.0055547;31.243324;;;;;;;;;
1838.0;1796.5;;;;;;;0.34351635;-0.97451705;-0.01208533;;;;;;;;;;;;
1838.0;1796.5;;;;;;;;;;16.28544;-3.360851;32.79214;;;;;;;;;
1838.0;1796.5;;;;;;;0.34290597;-0.94845426;-0.00286874;;;;;;;;;;;;
1838.0;1799.3;;;;-0.5146561;1.180874;0.21463397;;;;;;;;;;;;;;;
1838.0;1799.3;;;;-0.5169602;1.1833497;0.21540454;;;;;;;;;;;;;;;
1838.0;1799.3;;;;-0.51837164;1.1861764;0.2165604;;;;;;;;;;;;;;;
1838.0;1799.3;;;;-0.5197907;1.1891557;0.21794131;;;;;;;;;;;;;;;
1838.0;1799.3;;;;-0.5208588;1.1918908;0.21940616;;;;;;;;;;;;;;;
1838.0;1802.2;262143;262143;11072;;;;;;;;;;;;;;;;;;
1876.0;1806.0;;;;;;;;;;15.224921;-2.0371106;33.70388;;;;;;;;;
1876.0;1806.0;;;;;;;0.34455398;-0.9223304;0.007934812;;;;;;;;;;;;
1876.0;1806.0;;;;;;;;;;14.378033;0.0076296274;34.31806;;;;;;;;;
1876.0;1806.0;;;;;;;0.34998626;-0.89620656;0.018799402;;;;;;;;;;;;
1876.0;1808.3;;;;;;;;;;;;;17;;;;;;;;
1876.0;1808.3;;;;;;;;;;;;;-515;;;;;;;;
1876.0;1808.3;;;;;;;;;;;;;-859;;;;;;;;
1876.0;1808.3;;;;;;;;;;;;;-1174;;;;;;;;
1876.0;1808.3;;;;;;;;;;;;;-1509;;;;;;;;
1876.0;1809.3;;;;-0.52239233;1.195305;0.21987537;;;;;;;;;;;;;;;
1876.0;1809.3;;;;-0.5231629;1.1982919;0.22113422;;;;;;;;;;;;;;;
1876.0;1809.3;;;;-0.5239182;1.2018052;0.22273257;;;;;;;;;;;;;;;
1876.0;1809.3;;;;-0.5254746;1.2049981;0.22353366;;;;;;;;;;;;;;;
1876.0;1809.3;;;;-0.5277253;1.2079927;0.22455218;;;;;;;;;;;;;;;
1876.0;1815.2;;;;;;;;;;13.5387745;2.5673697;34.47447;;;;;;;;;
1876.0;1815.2;;;;;;;0.36066774;-0.8707541;0.034974214;;;;;;;;;;;;
1876.0;1815.2;;;;;;;;;;12.676625;5.489517;34.253212;;;;;;;;;
1876.0;1815.2;;;;;;;0.36945707;-0.84646136;0.0496231;;;;;;;;;;;;
1876.0;1818.9;;;;-0.53031546;1.2105409;0.22508624;;;;;;;;;;;;;;;
1876.0;1818.9;;;;-0.5329781;1.2122728;0.22705844;;;;;;;;;;;;;;;
1876.0;1818.9;;;;-0.53547674;1.213318;0.2292786;;;;;;;;;;;;;;;
1876.0;1818.9;;;;-0.5376931;1.2142297;0.2319031;;;;;;;;;;;;;;;
1876.0;1818.9;;;;-0.5381585;1.2140046;0.23494723;;;;;;;;;;;;;;;
1876.0;1822.0;262143;262143;11061;;;;;;;;;;;;;;;;;;
1878.0;1824.7;;;;;;;;;;12.009034;8.827478;33.974728;;;;;;;;;
1878.0;1824.7;;;;;;;0.3795282;-0.822779;0.06579791;;;;;;;;;;;;
1878.0;1824.7;;;;;;;;;;11.413922;12.455366;33.58562;;;;;;;;;
1878.0;1824.7;;;;;;;0.3897824;-0.79641104;0.079897456;;;;;;;;;;;;
1878.0;1829.0;;;;-0.541977;1.2129403;0.23760608;;;;;;;;;;;;;;;
1878.0;1829.0;;;;-0.5445519;1.2112695;0.24106982;;;;;;;;;;;;;;;
1878.0;1829.0;;;;-0.5477219;1.2078515;0.24440005;;;;;;;;;;;;;;;
1878.0;1829.0;;;;-0.54949576;1.203827;0.24792483;;;;;;;;;;;;;;;
1878.0;1829.0;;;;-0.55055624;1.1990281;0.25264362;;;;;;;;;;;;;;;
1878.0;1834.3;;;;;;;;;;10.75396;16.075624;33.185066;;;;;;;;;
1878.0;1834.3;;;;;;;0.39936522;-0.7712638;0.09466842;;;;;;;;;;;;
1878.0;1834.3;;;;;;;;;;9.990996;19.47844;32.68914;;;;;;;;;
1878.0;1834.3;;;;;;;0.40180668;-0.7490463;0.10876797;;;;;;;;;;;;
1878.0;1839.1;;;;-0.5505524;1.1926881;0.25756076;;;;;;;;;;;;;;;
1878.0;1839.1;;;;-0.55517966;1.1855661;0.2611237;;;;;;;;;;;;;;;
1878.0;1839.1;;;;-0.55764014;1.1764222;0.2665024;;;;;;;;;;;;;;;
1878.0;1839.1;;;;-0.560402;1.1667291;0.27144244;;;;;;;;;;;;;;;
1878.0;1839.1;;;;-0.56330115;1.1560861;0.2749596;;;;;;;;;;;;;;;
1878.0;1842.2;262143;262143;11064;;;;;;;;;;;;;;;;;;
1878.0;1843.9;;;;;;;;;;9.296701;22.801142;32.0101;;;;;;;;;
1878.0;1843.9;;;;;;;0.39863276;-0.7266457;0.12237922;;;;;;;;;;;;
1878.0;1843.9;;;;;;;;;;8.754997;26.024658;31.395916;;;;;;;;;
1878.0;1843.9;;;;;;;0.39100313;-0.7081515;0.13171789;;;;;;;;;;;;
1880.0;1845.5;;;;;;;;;;;;;;;;;-61.35365;-8.941923;44.789726;;1735.2
1880.0;1845.5;;;;;;;;;;;;;;1.2495499;0.0712302;-0.86733603;;;;;1735.2
1880.0;1845.5;;;;;;;;;;;;;;;;;-76.09409;7.9958496;44.770653;;1735.2
1880.0;1845.5;;;;;;;;;;;;;;1.1677603;0.14038515;-0.77120274;;;;;1735.2
1880.0;1845.5;;;;;;;;;;;;;;;;;-100.95523;26.947845;43.359173;;1744.8
1880.0;1845.5;;;;;;;;;;;;;;1.1142918;0.19464706;-0.62117374;;;;;1744.8
1880.0;1845.5;;;;;;;;;;;;;;;;;-122.352516;40.082245;41.32588;;1744.8
1880.0;1845.5;;;;;;;;;;;;;;1.131016;0.21051668;-0.49244666;;;;;1744.8
1880.0;1845.5;;;;;;;;;;;;;;;;;-124.988556;40.21195;36.488693;;1754.3
1880.0;1845.5;;;;;;;;;;;;;;1.2239143;0.23474838;-0.41181678;;;;;1754.3
1880.0;1845.5;;;;;;;;;;;;;;;;;-124.6147;35.80584;30.217138;;1754.3
1880.0;1845.5;;;;;;;;;;;;;;1.3116245;0.24744408;-0.40028077;;;;;1754.3
1880.0;1848.1;;;;;;;;;;;;;-1862;;;;;;;;
1880.0;1848.1;;;;;;;;;;;;;-2241;;;;;;;;
1880.0;1848.1;;;;;;;;;;;;;-2765;;;;;;;;
1880.0;1848.1;;;;;;;;;;;;;-3444;;;;;;;;
1880.0;1848.1;;;;;;;;;;;;;-3971;;;;;;;;
1880.0;1849.1;;;;-0.56841666;1.1446077;0.2785454;;;;;;;;;;;;;;;
1880.0;1849.1;;;;-0.5689965;1.1318856;0.2827187;;;;;;;;;;;;;;;
1880.0;1849.1;;;;-0.56631094;1.1182367;0.2866898;;;;;;;;;;;;;;;
1880.0;1849.1;;;;-0.5530625;1.1023904;0.29354098;;;;;;;;;;;;;;;
1880.0;1849.1;;;;-0.5636216;1.090767;0.28886035;;;;;;;;;;;;;;;
2006.0;1853.0;;;;;;;;;;;;;;;;;-117.05374;36.267433;22.461622;;1763.9
2006.0;1853.0;;;;;;;;;;;;;;1.356975;0.27307963;-0.38038272;;;;;1763.9
2006.0;1853.0;;;;;;;;;;;;;;;;;-102.57652;40.09369;11.551256;;1763.9
2006.0;1853.0;;;;;;;;;;;;;;1.3474532;0.3483993;-0.33149204;;;;;1763.9
2006.0;1853.0;;;;;;;;;;;;;;;;;-83.99075;37.827694;2.2392957;;1773.5
2006.0;1853.0;;;;;;;;;;;;;;1.266396;0.403943;-0.2766808;;;;;1773.5
2006.0;1853.0;;;;;;;;;;;;;;;;;-61.555832;24.70855;-2.475814;;1773.5
2006.0;1853.0;;;;;;;;;;;;;;1.1645863;0.4476455;-0.23407696;;;;;1773.5
2006.0;1853.0;;;;;;;;;;;;;;;;;-40.581985;5.7985168;4.730369;;1783.2
2006.0;1853.0;;;;;;;;;;;;;;1.0448927;0.28278452;-0.24225593;;;;;1783.2
2006.0;1853.0;;;;;;;;;;;;;;;;;-28.534807;-1.453444;15.961182;;1783.2
2006.0;1853.0;;;;;;;;;;;;;;1.0104069;0.07556383;-0.20343639;;;;;1783.2
2006.0;1853.3;;;;;;;;;;8.064516;29.343548;30.835138;;;;;;;;;
2006.0;1853.3;;;;;;;0.379223;-0.6967376;0.13733329;;;;;;;;;;;;
2006.0;1853.3;;;;;;;;;;7.5418863;32.296215;30.140842;;;;;;;;;
2006.0;1853.3;;;;;;;0.36310923;-0.690817;0.14062929;;;;;;;;;;;;
2006.0;1859.1;;;;-0.5730935;1.0788842;0.28863528;;;;;;;;;;;;;;;
2006.0;1859.1;;;;-0.57228094;1.0638124;0.29230884;;;;;;;;;;;;;;;
2006.0;1859.1;;;;-0.5697022;1.0475198;0.29221347;;;;;;;;;;;;;;;
2006.0;1859.1;;;;-0.56620413;1.0315515;0.29171374;;;;;;;;;;;;;;;
2006.0;1859.1;;;;-0.5618172;1.0158998;0.28989032;;;;;;;;;;;;;;;
2006.0;1862.1;262143;262143;11062;;;;;;;;;;;;;;;;;;
2011.0;1862.8;;;;;;;;;;7.3435163;34.85214;29.59914;;;;;;;;;
2011.0;1862.8;;;;;;;0.34846035;-0.69466233;0.1389813;;;;;;;;;;;;
2011.0;1862.8;;;;;;;;;;7.1909237;37.038025;29.202398;;;;;;;;;
2011.0;1862.8;;;;;;;0.3340556;-0.70296335;0.13556322;;;;;;;;;;;;
2011.0;1869.1;;;;-0.5583878;1.0006524;0.2872086;;;;;;;;;;;;;;;
2011.0;1869.1;;;;-0.55480963;0.98593533;0.28397754;;;;;;;;;;;;;;;
2011.0;1869.1;;;;-0.5500489;0.9710084;0.2800484;;;;;;;;;;;;;;;
2011.0;1869.1;;;;-0.544529;0.957245;0.2776604;;;;;;;;;;;;;;;
2011.0;1869.1;;;;-0.54059607;0.9443437;0.27414706;;;;;;;;;;;;;;;
2011.0;1872.3;;;;;;;;;;7.0307016;38.75851;28.778955;;;;;;;;;
2011.0;1872.3;;;;;;;0.32276377;-0.71517074;0.12933744;;;;;;;;;;;;
2011.0;1872.3;;;;;;;;;;7.042146;40.097504;28.34788;;;;;;;;;
2011.0;1872.3;;;;;;;0.3076876;-0.73146766;0.12207404;;;;;;;;;;;;
2011.0;1878.9;;;;-0.53617865;0.9318887;0.26998523;;;;;;;;;;;;;;;
2011.0;1878.9;;;;-0.53352743;0.91934216;0.26591876;;;;;;;;;;;;;;;
2011.0;1878.9;;;;-0.5317345;0.9081918;0.26210788;;;;;;;;;;;;;;;
2011.0;1878.9;;;;-0.53143317;0.89860547;0.2575455;;;;;;;;;;;;;;;
2011.0;1878.9;;;;-0.5299073;0.89110196;0.2541428;;;;;;;;;;;;;;;
2011.0;1881.8;;;;;;;;;;7.1985536;40.90243;28.286842;;;;;;;;;
2011.0;1881.8;;;;;;;0.2959685;-0.748558;0.11224708;;;;;;;;;;;;
2011.0;1881.8;;;;;;;;;;7.492294;41.348766;28.515732;;;;;;;;;
2011.0;1881.8;;;;;;;0.28412732;-0.77071446;0.10467849;;;;;;;;;;;;
2011.0;1882.1;262143;262143;11063;;;;;;;;;;;;;;;;;;
2013.0;1888.2;;;;;;;;;;;;;-4105;;;;;;;;
2013.0;1888.2;;;;;;;;;;;;;-3845;;;;;;;;
2013.0;1888.2;;;;;;;;;;;;;-3429;;;;;;;;
2013.0;1888.2;;;;;;;;;;;;;-3153;;;;;;;;
2013.0;1888.2;;;;;;;;;;;;;-2949;;;;;;;;
2013.0;1889.0;;;;-0.5284501;0.88424313;0.2504883;;;;;;;;;;;;;;;
2013.0;1889.0;;;;-0.525055;0.87952816;0.24803928;;;;;;;;;;;;;;;
2013.0;1889.0;;;;-0.5226899;0.87632;0.24474338;;;;;;;;;;;;;;;
2013.0;1889.0;;;;-0.5211373;0.87560284;0.24204639;;;;;;;;;;;;;;;
2013.0;1889.0;;;;-0.5198708;0.8766023;0.23920825;;;;;;;;;;;;;;;
2013.0;1891.4;;;;;;;;;;7.8737755;41.52043;29.324472;;;;;;;;;
2013.0;1891.4;;;;;;;0.28235725;-0.7889645;0.093264565;;;;;;;;;;;;
2013.0;1891.4;;;;;;;;;;8.369701;41.261024;30.152287;;;;;;;;;
2013.0;1891.4;;;;;;;0.27784052;-0.8084353;0.08618427;;;;;;;;;;;;
2013.0;1899.2;;;;-0.5189286;0.8802682;0.2367821;;;;;;;;;;;;;;;
2013.0;1899.2;;;;-0.5175286;0.8857919;0.23583224;;;;;;;;;;;;;;;
2013.0;1899.2;;;;-0.51660925;0.8926927;0.23500827;;;;;;;;;;;;;;;
2013.0;1899.2;;;;-0.51681143;0.9018251;0.23427585;;;;;;;;;;;;;;;
2013.0;1899.2;;;;-0.5167237;0.9128877;0.2337685;;;;;;;;;;;;;;;
2013.0;1901.1;;;;;;;;;;8.991516;40.921505;31.220436;;;;;;;;;
2013.0;1901.1;;;;;;;0.27503282;-0.82650226;0.0806299;;;;;;;;;;;;
2013.0;1901.1;;;;;;;;;;9.464553;40.169987;32.76162;;;;;;;;;
2013.0;1901.1;;;;;;;0.2710654;-0.84212774;0.073427536;;;;;;;;;;;;
2013.0;1902.4;262143;262143;11060;;;;;;;;;;;;;;;;;;
2014.0;1906.1;;;;;;;;;;;;;;;;;-31.067842;7.0688496;30.491806;;1792.7
2014.0;1906.1;;;;;;;;;;;;;;0.97561574;-0.09234901;-0.12616351;;;;;1792.7
2014.0;1906.1;;;;;;;;;;;;;;;;;-32.437363;14.580218;49.016544;;1792.7
2014.0;1906.1;;;;;;;;;;;;;;0.8213752;-0.24982452;-0.028199103;;;;;1792.7
2014.0;1906.1;;;;;;;;;;;;;;;;;-22.392956;1.1940367;68.777275;;1802.4
2014.0;1906.1;;;;;;;;;;;;;;0.65559864;-0.40070802;-0.09900205;;;;;1802.4
2014.0;1906.1;;;;;;;;;;;;;;;;;2.0752587;-18.684958;83.1286;;1802.4
2014.0;1906.1;;;;;;;;;;;;;;0.52485734;-0.58717614;-0.27161473;;;;;1802.4
2014.0;1906.1;;;;;;;;;;;;;;;;;35.939358;-36.107212;87.70257;;1812.1
2014.0;1906.1;;;;;;;;;;;;;;0.45747244;-0.6612751;-0.32917264;;;;;1812.1
2014.0;1906.1;;;;;;;;;;;;;;;;;46.948914;-54.589985;89.93804;;1812.1
2014.0;1906.1;;;;;;;;;;;;;;0.4090701;-0.70113224;-0.4191412;;;;;1812.1
2014.0;1906.9;;;;;;;;;;;;;;;;;53.708763;-66.37395;97.907196;;1821.7
2014.0;1906.9;;;;;;;;;;;;;;0.35517442;-0.8646504;-0.56862086;;;;;1821.7
2014.0;1906.9;;;;;;;;;;;;;;;;;70.46724;-67.86935;109.47752;;1821.7
2014.0;1906.9;;;;;;;;;;;;;;0.32917264;-0.91671497;-0.6361278;;;;;1821.7
2014.0;1906.9;;;;;;;;;;;;;;;;;73.500015;-53.014465;111.033966;;1831.4
2014.0;1906.9;;;;;;;;;;;;;;0.32056642;-1.0538652;-0.6485183;;;;;1831.4
2014.0;1906.9;;;;;;;;;;;;;;;;;84.39513;-32.898956;99.57808;;1831.4
2014.0;1906.9;;;;;;;;;;;;;;0.3424177;-1.1742302;-0.5468917;;;;;1831.4
2014.0;1906.9;;;;;;;;;;;;;;;;;94.24879;-20.840326;66.94998;;1841.0
2014.0;1906.9;;;;;;;;;;;;;;0.50935394;-1.1592151;-0.45649585;;;;;1841.0
2014.0;1906.9;;;;;;;;;;;;;;;;;79.74868;-3.4752953;23.583178;;1841.0
2014.0;1906.9;;;;;;;;;;;;;;0.831019;-0.81655324;-0.39381084;;;;;1841.0
2015.0;1909.1;;;;-0.5174256;0.92507946;0.23318484;;;;;;;;;;;;;;;
2015.0;1909.1;;;;-0.51914984;0.9383279;0.23300174;;;;;;;;;;;;;;;
2015.0;1909.1;;;;-0.52080923;0.95167553;0.23293307;;;;;;;;;;;;;;;
2015.0;1909.1;;;;-0.5225602;0.96575177;0.23303607;;;;;;;;;;;;;;;
2015.0;1909.1;;;;-0.52395636;0.9792291;0.23329929;;;;;;;;;;;;;;;
2015.0;1910.6;;;;;;;;;;10.090182;39.04843;34.76821;;;;;;;;;
2015.0;1910.6;;;;;;;0.26783043;-0.85836357;0.067873165;;;;;;;;;;;;
2015.0;1910.6;;;;;;;;;;10.589923;37.47673;36.736656;;;;;;;;;
2015.0;1910.6;;;;;;;0.26233712;-0.87099826;0.065431684;;;;;;;;;;;;
2015.0;1919.2;;;;-0.52507025;0.9926568;0.23357776;;;;;;;;;;;;;;;
2015.0;1919.2;;;;-0.5251618;1.005375;0.23507693;;;;;;;;;;;;;;;
2015.0;1919.2;;;;-0.52579886;1.0177613;0.23633578;;;;;;;;;;;;;;;
2015.0;1919.2;;;;-0.5263024;1.0301172;0.23812106;;;;;;;;;;;;;;;
2015.0;1919.2;;;;-0.5270501;1.0423127;0.239975;;;;;;;;;;;;;;;
2015.0;1920.1;;;;;;;;;;11.032442;35.710472;38.81573;;;;;;;;;
2015.0;1920.1;;;;;;;0.25232702;-0.8783227;0.06591998;;;;;;;;;;;;
2015.0;1920.1;;;;;;;;;;11.402478;33.406326;41.09699;;;;;;;;;
2015.0;1920.1;;;;;;;0.24695578;-0.88393813;0.066530354;;;;;;;;;;;;
2015.0;1922.4;262143;262143;11066;;;;;;;;;;;;;;;;;;
2015.0;1928.4;;;;;;;;;;;;;-2508;;;;;;;;
2015.0;1928.4;;;;;;;;;;;;;-1595;;;;;;;;
2015.0;1928.4;;;;;;;;;;;;;-511;;;;;;;;
2015.0;1928.4;;;;;;;;;;;;;242;;;;;;;;
2015.0;1928.4;;;;;;;;;;;;;633;;;;;;;;
2019.0;1929.2;;;;-0.526413;1.0549852;0.24149707;;;;;;;;;;;;;;;
2019.0;1929.2;;;;-0.5256501;1.067196;0.24238971;;;;;;;;;;;;;;;
2019.0;1929.2;;;;-0.5243111;1.080433;0.2430611;;;;;;;;;;;;;;;
2019.0;1929.2;;;;-0.52203757;1.0944597;0.24359134;;;;;;;;;;;;;;;
2019.0;1929.2;;;;-0.51964957;1.1087571;0.24351504;;;;;;;;;;;;;;;
2019.0;1929.5;;;;;;;;;;11.711478;30.320139;43.259987;;;;;;;;;
2019.0;1929.5;;;;;;;0.24158452;-0.8890042;0.06817835;;;;;;;;;;;;
2019.0;1929.5;;;;;;;;;;11.947997;26.596882;45.335243;;;;;;;;;
2019.0;1929.5;;;;;;;0.23682363;-0.8917509;0.06811731;;;;;;;;;;;;
2019.0;1939.2;;;;;;;;;;12.089145;22.6104;47.32658;;;;;;;;;
2019.0;1939.2;;;;;;;0.23419905;-0.8975494;0.06884976;;;;;;;;;;;;
2019.0;1939.2;;;;;;;;;;12.18833;18.307291;49.23017;;;;;;;;;
2019.0;1939.2;;;;;;;0.23352763;-0.90157783;0.06823939;;;;;;;;;;;;
2019.0;1939.2;;;;-0.5161019;1.1236192;0.24276355;;;;;;;;;;;;;;;
2019.0;1939.2;;;;-0.5134354;1.1392404;0.24176791;;;;;;;;;;;;;;;
2019.0;1939.2;;;;-0.5101624;1.1551591;0.24035648;;;;;;;;;;;;;;;
2019.0;1939.2;;;;-0.50664145;1.1716043;0.23951724;;;;;;;;;;;;;;;
2019.0;1939.2;;;;-0.5039063;1.1886712;0.23799899;;;;;;;;;;;;;;;
2019.0;1942.6;262143;262143;11058;;;;;;;;;;;;;;;;;;
2019.0;1948.8;;;;;;;;;;12.222664;13.740958;51.152836;;;;;;;;;
2019.0;1948.8;;;;;;;0.23468734;-0.906888;0.06573687;;;;;;;;;;;;
2019.0;1948.8;;;;;;;;;;12.203589;8.888515;53.03354;;;;;;;;;
2019.0;1948.8;;;;;;;0.23914304;-0.9089022;0.06646931;;;;;;;;;;;;
2022.0;1949.3;;;;-0.50077444;1.2057344;0.2364693;;;;;;;;;;;;;;;
2022.0;1949.3;;;;-0.4978562;1.2225572;0.23464587;;;;;;;;;;;;;;;
2022.0;1949.3;;;;-0.49485022;1.2395326;0.23325351;;;;;;;;;;;;;;;
2022.0;1949.3;;;;-0.49200827;1.256054;0.23192981;;;;;;;;;;;;;;;
2022.0;1949.3;;;;-0.4883538;1.2723695;0.22925189;;;;;;;;;;;;;;;
2022.0;1958.4;;;;;;;;;;12.146367;3.7919247;54.864647;;;;;;;;;
2022.0;1958.4;;;;;;;0.24225593;-0.90969574;0.06414991;;;;;;;;;;;;
2022.0;1958.4;;;;;;;;;;12.0548115;-1.7204809;56.69576;;;;;;;;;
2022.0;1958.4;;;;;;;0.24542986;-0.9072543;0.0634785;;;;;;;;;;;;
2022.0;1959.4;;;;-0.48549658;1.2882615;0.22624591;;;;;;;;;;;;;;;
2022.0;1959.4;;;;-0.48347098;1.3039743;0.22199252;;;;;;;;;;;;;;;
2022.0;1959.4;;;;-0.48102576;1.3186151;0.21756366;;;;;;;;;;;;;;;
2022.0;1959.4;;;;-0.478653;1.3328248;0.2113457;;;;;;;;;;;;;;;
2022.0;1959.4;;;;-0.47603613;1.3464776;0.20436862;;;;;;;;;;;;;;;
2022.0;1962.9;262143;262143;11052;;;;;;;;;;;;;;;;;;
2023.0;1966.1;;;;;;;;;;;;;;;;;51.278725;16.747032;-23.709066;;1850.7
2023.0;1966.1;;;;;;;;;;;;;;0.99588;-0.6541948;-0.42023987;;;;;1850.7
2023.0;1966.1;;;;;;;;;;;;;;;;;47.72332;22.686697;-76.05595;;1850.7
2023.0;1966.1;;;;;;;;;;;;;;1.0780969;-0.5274819;-0.45728934;;;;;1850.7
2023.0;1966.1;;;;;;;;;;;;;;;;;55.21561;16.972105;-118.63308;;1860.1
2023.0;1966.1;;;;;;;;;;;;;;1.2353282;-0.328135;-0.57490766;;;;;1860.1
2023.0;1966.1;;;;;;;;;;;;;;;;;79.11542;13.863032;-124.988556;;1860.1
2023.0;1966.1;;;;;;;;;;;;;;1.4415723;-0.039674062;-0.6162908;;;;;1860.1
2023.0;1966.1;;;;;;;;;;;;;;;;;101.86697;13.607441;-124.988556;;1869.7
2023.0;1966.1;;;;;;;;;;;;;;1.6107669;0.41743216;-0.6038392;;;;;1869.7
2023.0;1966.1;;;;;;;;;;;;;;;;;103.99945;18.62392;-124.988556;;1869.7
2023.0;1966.1;;;;;;;;;;;;;;1.5458236;0.6697592;-0.62446976;;;;;1869.7
2023.0;1966.8;;;;;;;;;;;;;;;;;97.8042;23.327585;-114.67712;;1879.4
2023.0;1966.8;;;;;;;;;;;;;;1.4508499;1.0010681;-0.568865;;;;;1879.4
2023.0;1966.8;;;;;;;;;;;;;;;;;80.19119;32.670067;-58.41243;;1879.4
2023.0;1966.8;;;;;;;;;;;;;;1.2660298;0.96194345;-0.6598102;;;;;1879.4
2023.0;1966.8;;;;;;;;;;;;;;;;;75.20905;53.201393;1.2779626;;1889.1
2023.0;1966.8;;;;;;;;;;;;;;1.0392773;0.8423719;-0.41712698;;;;;1889.1
2023.0;1966.8;;;;;;;;;;;;;;;;;51.70217;51.522873;38.750877;;1889.1
2023.0;1966.8;;;;;;;;;;;;;;0.87887204;0.65236366;-0.18543047;;;;;1889.1
2023.0;1966.8;;;;;;;;;;;;;;;;;17.471846;36.427654;46.864986;;1898.7
2023.0;1966.8;;;;;;;;;;;;;;0.9142735;0.3590808;-0.24433118;;;;;1898.7
2023.0;1966.8;;;;;;;;;;;;;;;;;13.332774;28.199102;57.996613;;1898.7
2023.0;1966.8;;;;;;;;;;;;;;1.00412;0.22479934;-0.20911282;;;;;1898.7
2025.0;1967.8;;;;;;;;;;11.902219;-7.0688496;58.42006;;;;;;;;;
2025.0;1967.8;;;;;;;0.2492752;-0.9036531;0.0629902;;;;;;;;;;;;
2025.0;1967.8;;;;;;;;;;11.810663;-12.680441;60.037537;;;;;;;;;
2025.0;1967.8;;;;;;;0.2547075;-0.9009064;0.06146428;;;;;;;;;;;;
2025.0;1968.6;;;;;;;;;;;;;899;;;;;;;;
2025.0;1968.6;;;;;;;;;;;;;1200;;;;;;;;
2025.0;1968.6;;;;;;;;;;;;;1443;;;;;;;;
2025.0;1968.6;;;;;;;;;;;;;1536;;;;;;;;
2025.0;1968.6;;;;;;;;;;;;;1644;;;;;;;;
2025.0;1969.3;;;;-0.4740563;1.3586923;0.1975899;;;;;;;;;;;;;;;
2025.0;1969.3;;;;-0.47106177;1.3706933;0.1894913;;;;;;;;;;;;;;;
2025.0;1969.3;;;;-0.46818167;1.3823091;0.18139268;;;;;;;;;;;;;;;
2025.0;1969.3;;;;-0.46455008;1.392624;0.17245485;;;;;;;;;;;;;;;
2025.0;1969.3;;;;-0.46021277;1.4016191;0.16445543;;;;;;;;;;;;;;;
2025.0;1977.4;;;;;;;;;;11.749626;-18.368328;61.510056;;;;;;;;;
2025.0;1977.4;;;;;;;0.25818658;-0.89706105;0.061830502;;;;;;;;;;;;
2025.0;1977.4;;;;;;;;;;11.612293;-24.174475;62.841423;;;;;;;;;
2025.0;1977.4;;;;;;;0.25971252;-0.8923002;0.062196724;;;;;;;;;;;;
2025.0;1979.4;;;;-0.45569235;1.41037;0.15526582;;;;;;;;;;;;;;;
2025.0;1979.4;;;;-0.44897467;1.4176751;0.1458626;;;;;;;;;;;;;;;
2025.0;1979.4;;;;-0.44205862;1.4231454;0.13609315;;;;;;;;;;;;;;;
2025.0;1979.4;;;;-0.4344979;1.4281312;0.12728883;;;;;;;;;;;;;;;
2025.0;1979.4;;;;-0.42641073;1.4312402;0.117828384;;;;;;;;;;;;;;;
2025.0;1982.8;262143;262143;11051;;;;;;;;;;;;;;;;;;
2056.0;1986.9;;;;;;;;;;11.3986635;-29.763178;64.054535;;;;;;;;;
2056.0;1986.9;;;;;;;0.26587725;-0.891934;0.061708428;;;;;;;;;;;;
2056.0;1986.9;;;;;;;;;;11.265144;-35.252693;65.2295;;;;;;;;;
2056.0;1986.9;;;;;;;0.2690512;-0.890347;0.062440872;;;;;;;;;;;;
2056.0;1989.4;;;;-0.4178849;1.4324342;0.10812761;;;;;;;;;;;;;;;
2056.0;1989.4;;;;-0.4086724;1.4324685;0.098938;;;;;;;;;;;;;;;
2056.0;1989.4;;;;-0.39945608;1.4306604;0.09033585;;;;;;;;;;;;;;;
2056.0;1989.4;;;;-0.3916245;1.4273721;0.081615455;;;;;;;;;;;;;;;
2056.0;1989.4;;;;-0.38422018;1.4224206;0.07341386;;;;;;;;;;;;;;;
2056.0;1996.1;;;;;;;;;;10.95996;-40.650654;66.13743;;;;;;;;;
2056.0;1996.1;;;;;;;0.27466658;-0.88766134;0.060304575;;;;;;;;;;;;
2056.0;1996.1;;;;;;;;;;10.612812;-45.62517;66.99576;;;;;;;;;
2056.0;1996.1;;;;;;;0.27838984;-0.88338876;0.059877317;;;;;;;;;;;;
2056.0;1998.8;;;;-0.37730795;1.4163743;0.06515122;;;;;;;;;;;;;;;
2056.0;1998.8;;;;-0.37119678;1.409012;0.05779267;;;;;;;;;;;;;;;
2056.0;1998.8;;;;-0.36521533;1.4004937;0.051078804;;;;;;;;;;;;;;;
2056.0;1998.8;;;;-0.35989764;1.3910066;0.045299534;;;;;;;;;;;;;;;
2056.0;1998.8;;;;-0.3552132;1.3805543;0.038642887;;;;;;;;;;;;;;;
2056.0;2002.4;262143;262143;11049;;;;;;;;;;;;;;;;;;
2056.0;2005.5;;;;;;;;;;loka.67;-50.294502;67.68243;;;;;;;;;
2056.0;2005.5;;;;;;;0.28449354;-0.8784448;0.060670797;;;;;;;;;;;;
2056.0;2005.5;;;;;;;;;;9.956663;-54.57854;68.178345;;;;;;;;;
2056.0;2005.5;;;;;;;0.2893765;-0.8699606;0.061098058;;;;;;;;;;;;
2057.0;2008.3;;;;;;;;;;;;;1772;;;;;;;;
2057.0;2008.3;;;;;;;;;;;;;1914;;;;;;;;
2057.0;2008.3;;;;;;;;;;;;;2109;;;;;;;;
2057.0;2008.3;;;;;;;;;;;;;2259;;;;;;;;
2057.0;2008.3;;;;;;;;;;;;;2247;;;;;;;;
2057.0;2008.9;;;;-0.35068896;1.3692247;0.033580784;;;;;;;;;;;;;;;
2057.0;2008.9;;;;-0.3470383;1.3575326;0.028926853;;;;;;;;;;;;;;;
2057.0;2008.9;;;;-0.34355167;1.3452379;0.02461243;;;;;;;;;;;;;;;
2057.0;2008.9;;;;-0.34029773;1.3328592;0.01992798;;;;;;;;;;;;;;;
2057.0;2008.9;;;;-0.33775714;1.3202516;0.017456057;;;;;;;;;;;;;;;
2057.0;2015.1;;;;;;;;;;9.533219;-58.56502;68.66283;;;;;;;;;
2057.0;2015.1;;;;;;;0.29657888;-0.86251414;0.061830502;;;;;;;;;;;;
2057.0;2015.1;;;;;;;;;;9.00296;-61.78472;68.88027;;;;;;;;;
2057.0;2015.1;;;;;;;0.30378124;-0.8564104;0.06305124;;;;;;;;;;;;
2057.0;2019.1;;;;-0.33519366;1.3069993;0.014865877;;;;;;;;;;;;;;;
2057.0;2019.1;;;;-0.33310702;1.2933389;0.0122528095;;;;;;;;;;;;;;;
2057.0;2019.1;;;;-0.3318024;1.280243;0.010013581;;;;;;;;;;;;;;;
2057.0;2019.1;;;;-0.33013538;1.2670137;0.007934571;;;;;;;;;;;;;;;
2057.0;2019.1;;;;-0.32929614;1.2538568;0.006237031;;;;;;;;;;;;;;;
2057.0;2022.7;262143;262143;11059;;;;;;;;;;;;;;;;;;
2057.0;2024.8;;;;;;;;;;8.438369;-64.24146;68.97183;;;;;;;;;
2057.0;2024.8;;;;;;;0.31434065;-0.85134435;0.06323435;;;;;;;;;;;;
2057.0;2024.8;;;;;;;;;;7.8089237;-66.22898;69.02142;;;;;;;;;
2057.0;2024.8;;;;;;;0.3218482;-0.84902495;0.06360058;;;;;;;;;;;;
2060.0;2025.8;;;;;;;;;;;;;;;;;4.81811;22.068699;65.05783;;1908.4
2060.0;2025.8;;;;;;;;;;;;;;1.0348827;0.08789331;-0.27881712;;;;;1908.4
2060.0;2025.8;;;;;;;;;;;;;;;;;1.5640736;19.631031;71.035645;;1908.4
2060.0;2025.8;;;;;;;;;;;;;;1.0115665;0.010010071;-0.3239845;;;;;1908.4
2060.0;2025.8;;;;;;;;;;;;;;;;;0.6447035;15.804773;81.0152;;1918.0
2060.0;2025.8;;;;;;;;;;;;;;0.9717704;-0.074098945;-0.37946716;;;;;1918.0
2060.0;2025.8;;;;;;;;;;;;;;;;;1.3542589;12.787255;87.55761;;1918.0
2060.0;2025.8;;;;;;;;;;;;;;0.9190344;-0.18060854;-0.45222327;;;;;1918.0
2060.0;2025.8;;;;;;;;;;;;;;;;;3.0289621;13.668478;89.2323;;1927.4
2060.0;2025.8;;;;;;;;;;;;;;0.9076205;-0.18903165;-0.48664814;;;;;1927.4
2060.0;2025.8;;;;;;;;;;;;;;;;;0.9537034;16.678366;94.35178;;1927.4
2060.0;2025.8;;;;;;;;;;;;;;0.8799707;-0.26142156;-0.5305338;;;;;1927.4
2060.0;2026.9;;;;;;;;;;;;;;;;;2.5444808;21.866512;93.76049;;1937.1
2060.0;2026.9;;;;;;;;;;;;;;0.8518326;-0.3505356;-0.525956;;;;;1937.1
2060.0;2026.9;;;;;;;;;;;;;;;;;5.7489243;25.364697;90.07156;;1937.1
2060.0;2026.9;;;;;;;;;;;;;;0.8440199;-0.38172552;-0.50483716;;;;;1937.1
2060.0;2026.9;;;;;;;;;;;;;;;;;9.723961;25.917845;87.72164;;1946.7
2060.0;2026.9;;;;;;;;;;;;;;0.8325449;-0.44392225;-0.5263833;;;;;1946.7
2060.0;2026.9;;;;;;;;;;;;;;;;;20.039215;26.989807;82.05664;;1946.7
2060.0;2026.9;;;;;;;;;;;;;;0.8139897;-0.4816431;-0.5307169;;;;;1946.7
2060.0;2026.9;;;;;;;;;;;;;;;;;28.786585;27.53151;72.279274;;1956.4
2060.0;2026.9;;;;;;;;;;;;;;0.7653432;-0.4796289;-0.54103214;;;;;1956.4
2060.0;2026.9;;;;;;;;;;;;;;;;;37.518692;27.600176;58.648945;;1956.4
2060.0;2026.9;;;;;;;;;;;;;;0.7466048;-0.39680165;-0.5437788;;;;;1956.4
2066.0;2028.9;;;;-0.3290749;1.241028;0.0046997075;;;;;;;;;;;;;;;
2066.0;2028.9;;;;-0.32890704;1.2280122;0.0031394963;;;;;;;;;;;;;;;
2066.0;2028.9;;;;-0.3300133;1.2155153;0.0017127993;;;;;;;;;;;;;;;
2066.0;2028.9;;;;-0.33163837;1.203354;8.621217E-4;;;;;;;;;;;;;;;
2066.0;2028.9;;;;-0.33251956;1.1913301;4.4250494E-4;;;;;;;;;;;;;;;
2066.0;2034.1;;;;;;;;;;7.0535903;-67.8045;69.11679;;;;;;;;;
2066.0;2034.1;;;;;;;0.32947782;-0.84432507;0.06140324;;;;;;;;;;;;
2066.0;2034.1;;;;;;;;;;6.1532946;-69.349495;69.39527;;;;;;;;;
2066.0;2034.1;;;;;;;0.33204138;-0.84194463;0.05755791;;;;;;;;;;;;
2066.0;2038.9;;;;-0.33368686;1.1800576;-4.6157843E-4;;;;;;;;;;;;;;;
2066.0;2038.9;;;;-0.3349953;1.168377;-0.0011291505;;;;;;;;;;;;;;;
2066.0;2038.9;;;;-0.33529666;1.1566125;-6.408692E-4;;;;;;;;;;;;;;;
2066.0;2038.9;;;;-0.33647922;1.1458894;5.035401E-4;;;;;;;;;;;;;;;
2066.0;2038.9;;;;-0.33755115;1.1352922;4.6157843E-4;;;;;;;;;;;;;;;
2066.0;2042.5;262143;262143;11056;;;;;;;;;;;;;;;;;;
2066.0;2043.6;;;;;;;;;;5.264443;-70.46724;69.87212;;;;;;;;;
2066.0;2043.6;;;;;;;0.33314005;-0.83687854;0.05206458;;;;;;;;;;;;
2066.0;2043.6;;;;;;;;;;4.421369;-70.72283;70.2002;;;;;;;;;
2066.0;2043.6;;;;;;;0.33381146;-0.8307138;0.04834132;;;;;;;;;;;;
2066.0;2048.3;;;;;;;;;;;;;2004;;;;;;;;
2066.0;2048.3;;;;;;;;;;;;;1651;;;;;;;;
2066.0;2048.3;;;;;;;;;;;;;1402;;;;;;;;
2066.0;2048.3;;;;;;;;;;;;;1371;;;;;;;;
2066.0;2048.3;;;;;;;;;;;;;1565;;;;;;;;
2117.0;2048.9;;;;-0.33887866;1.1252595;-0.0024147036;;;;;;;;;;;;;;;
2117.0;2048.9;;;;-0.34009555;1.1152192;-0.004680634;;;;;;;;;;;;;;;
2117.0;2048.9;;;;-0.34152606;1.1055909;-0.0073242197;;;;;;;;;;;;;;;
2117.0;2048.9;;;;-0.34308627;1.0962793;-0.010723115;;;;;;;;;;;;;;;
2117.0;2048.9;;;;-0.3447304;1.0872766;-0.014141085;;;;;;;;;;;;;;;
2117.0;2053.1;;;;;;;;;;3.7537766;-69.89501;70.33372;;;;;;;;;
2117.0;2053.1;;;;;;;0.34107485;-0.8265633;0.047669914;;;;;;;;;;;;
2117.0;2053.1;;;;;;;;;;3.0785549;-68.07535;70.142975;;;;;;;;;
2117.0;2053.1;;;;;;;0.34876552;-0.82326734;0.048219245;;;;;;;;;;;;
2117.0;2058.8;;;;-0.34632495;1.0790368;-0.017780306;;;;;;;;;;;;;;;
2117.0;2058.8;;;;-0.34818652;1.0708276;-0.020984652;;;;;;;;;;;;;;;
2117.0;2058.8;;;;-0.35021213;1.0631143;-0.023624424;;;;;;;;;;;;;;;
2117.0;2058.8;;;;-0.3539391;1.0554582;-0.025852207;;;;;;;;;;;;;;;
2117.0;2058.8;;;;-0.3574486;1.0473024;-0.02833939;;;;;;;;;;;;;;;
2117.0;2062.6;;;;;;;;;;2.3079624;-65.69872;69.65849;;;;;;;;;
2117.0;2062.6;;;;;;;0.3596301;-0.8199103;0.04712058;;;;;;;;;;;;
2117.0;2062.6;;;;;;;;;;1.6212958;-62.482834;69.128235;;;;;;;;;
2117.0;2062.6;;;;;;;0.36848047;-0.8166143;0.05084384;;;;;;;;;;;;
2117.0;2062.5;262143;262143;11058;;;;;;;;;;;;;;;;;;
2118.0;2069.0;;;;-0.3617783;1.0392991;-0.030128483;;;;;;;;;;;;;;;
2118.0;2069.0;;;;-0.36643222;1.031582;-0.03248215;;;;;;;;;;;;;;;
2118.0;2069.0;;;;-0.3707085;1.0238763;-0.03505707;;;;;;;;;;;;;;;
2118.0;2069.0;;;;-0.37466434;1.0165521;-0.037536625;;;;;;;;;;;;;;;
2118.0;2069.0;;;;-0.37723166;1.0091668;-0.038917545;;;;;;;;;;;;;;;
2118.0;2072.3;;;;;;;;;;1.0223701;-58.347576;68.65901;;;;;;;;;
2118.0;2072.3;;;;;;;0.37965026;-0.81374556;0.057313763;;;;;;;;;;;;
2118.0;2072.3;;;;;;;;;;0.21744438;-53.96817;68.19742;;;;;;;;;
2118.0;2072.3;;;;;;;0.3871578;-0.81148714;0.06390576;;;;;;;;;;;;
2118.0;2079.1;;;;-0.37982565;1.0019037;-0.041011814;;;;;;;;;;;;;;;
2118.0;2079.1;;;;-0.383236;0.99458325;-0.043991093;;;;;;;;;;;;;;;
2118.0;2079.1;;;;-0.38786322;0.987198;-0.047515877;;;;;;;;;;;;;;;
2118.0;2079.1;;;;-0.39350134;0.97960675;-0.05045701;;;;;;;;;;;;;;;
2118.0;2079.1;;;;-0.40038687;0.97228634;-0.053611763;;;;;;;;;;;;;;;
2118.0;2081.9;;;;;;;;;;-0.614185;-49.798576;67.777794;;;;;;;;;
2118.0;2081.9;;;;;;;0.39082003;-0.8097171;0.06482132;;;;;;;;;;;;
2118.0;2081.9;;;;;;;;;;-1.0910367;-45.781578;67.491684;;;;;;;;;
2118.0;2081.9;;;;;;;0.38666952;-0.80764186;0.06878872;;;;;;;;;;;;
2118.0;2082.8;262143;262143;11061;;;;;;;;;;;;;;;;;;
2120.0;2086.1;;;;;;;;;;;;;;;;;43.019653;27.901546;53.273872;;1966.0
2120.0;2086.1;;;;;;;;;;;;;;0.76314586;-0.32471696;-0.5627613;;;;;1966.0
2120.0;2086.1;;;;;;;;;;;;;;;;;47.132023;29.244362;52.655872;;1966.0
2120.0;2086.1;;;;;;;;;;;;;;0.79696035;-0.31556138;-0.56642354;;;;;1966.0
2120.0;2086.1;;;;;;;;;;;;;;;;;50.8095;31.155582;50.916317;;1975.5
2120.0;2086.1;;;;;;;;;;;;;;0.82149726;-0.30310982;-0.5590991;;;;;1975.5
2120.0;2086.1;;;;;;;;;;;;;;;;;54.42595;33.783993;49.146248;;1975.5
2120.0;2086.1;;;;;;;;;;;;;;0.8388928;-0.2689291;-0.53077793;;;;;1975.5
2120.0;2086.1;;;;;;;;;;;;;;;;;58.01187;35.90884;47.84158;;1985.0
2120.0;2086.1;;;;;;;;;;;;;;0.8618427;-0.22571489;-0.50306714;;;;;1985.0
2120.0;2086.1;;;;;;;;;;;;;;;;;61.017944;37.13721;46.880245;;1985.0
2120.0;2086.1;;;;;;;;;;;;;;0.88253427;-0.17474899;-0.4934843;;;;;1985.0
2120.0;2086.7;;;;;;;;;;;;;;;;;63.1428;39.12091;46.910763;;1994.7
2120.0;2086.7;;;;;;;;;;;;;;0.8816187;-0.14453566;-0.4852443;;;;;1994.7
2120.0;2086.7;;;;;;;;;;;;;;;;;63.9935;40.730766;47.677544;;1994.7
2120.0;2086.7;;;;;;;;;;;;;;0.8802759;-0.12585834;-0.46662802;;;;;1994.7
2120.0;2086.7;;;;;;;;;;;;;;;;;63.573868;42.126987;47.85684;;2004.4
2120.0;2086.7;;;;;;;;;;;;;;0.8782617;-0.07843257;-0.43665883;;;;;2004.4
2120.0;2086.7;;;;;;;;;;;;;;;;;61.586353;43.393505;47.95984;;2004.4
2120.0;2086.7;;;;;;;;;;;;;;0.857326;-0.03540147;-0.4046144;;;;;2004.4
2120.0;2086.7;;;;;;;;;;;;;;;;;59.31654;43.599506;48.059025;;2014.1
2120.0;2086.7;;;;;;;;;;;;;;0.83785516;0.007202368;-0.37812433;;;;;2014.1
2120.0;2086.7;;;;;;;;;;;;;;;;;56.40965;42.039246;49.24543;;2014.1
2120.0;2086.7;;;;;;;;;;;;;;0.81710255;0.003112888;-0.37501144;;;;;2014.1
2122.0;2088.5;;;;;;;;;;;;;2001;;;;;;;;
2122.0;2088.5;;;;;;;;;;;;;2717;;;;;;;;
2122.0;2088.5;;;;;;;;;;;;;3491;;;;;;;;
2122.0;2088.5;;;;;;;;;;;;;3925;;;;;;;;
2122.0;2088.5;;;;;;;;;;;;;3833;;;;;;;;
2122.0;2089.0;;;;-0.40765005;0.9646455;-0.05615998;;;;;;;;;;;;;;;
2122.0;2089.0;;;;-0.4160462;0.9580461;-0.05900193;;;;;;;;;;;;;;;
2122.0;2089.0;;;;-0.4241143;0.9522706;-0.059688576;;;;;;;;;;;;;;;
2122.0;2089.0;;;;-0.43204123;0.94623196;-0.060077675;;;;;;;;;;;;;;;
2122.0;2089.0;;;;-0.43850332;0.94043744;-0.06044007;;;;;;;;;;;;;;;
2122.0;2091.3;;;;;;;;;;-1.3046663;-41.08936;67.17124;;;;;;;;;
2122.0;2091.3;;;;;;;0.38837856;-0.80751973;0.07446516;;;;;;;;;;;;
2122.0;2091.3;;;;;;;;;;-1.3771478;-36.15299;66.45024;;;;;;;;;
2122.0;2091.3;;;;;;;0.39332256;-0.80684835;0.083803825;;;;;;;;;;;;
2122.0;2099.0;;;;-0.4443398;0.93532956;-0.061115272;;;;;;;;;;;;;;;
2122.0;2099.0;;;;-0.4506417;0.929947;-0.062091835;;;;;;;;;;;;;;;
2122.0;2099.0;;;;-0.45745856;0.9245912;-0.061946876;;;;;;;;;;;;;;;
2122.0;2099.0;;;;-0.4613915;0.91925824;-0.0612526;;;;;;;;;;;;;;;
2122.0;2099.0;;;;-0.465046;0.9141122;-0.06087113;;;;;;;;;;;;;;;
2122.0;2100.8;;;;;;;;;;-1.4877774;-31.22425;65.374466;;;;;;;;;
2122.0;2100.8;;;;;;;0.40144047;-0.8054445;0.09155553;;;;;;;;;;;;
2122.0;2100.8;;;;;;;;;;-1.6632588;-26.467178;64.12702;;;;;;;;;
2122.0;2100.8;;;;;;;0.40583515;-0.8044679;0.09851375;;;;;;;;;;;;
2122.0;2102.7;262143;262143;11060;;;;;;;;;;;;;;;;;;
2173.0;2108.9;;;;-0.4685822;0.9091798;-0.061058052;;;;;;;;;;;;;;;
2173.0;2108.9;;;;-0.4707566;0.903988;-0.061115272;;;;;;;;;;;;;;;
2173.0;2108.9;;;;-0.47253424;0.89925015;-0.060424812;;;;;;;;;;;;;;;
2173.0;2108.9;;;;-0.4747582;0.89421856;-0.061351784;;;;;;;;;;;;;;;
2173.0;2108.9;;;;-0.47666174;0.8890916;-0.06188584;;;;;;;;;;;;;;;
2173.0;2110.2;;;;;;;;;;-1.8768883;-22.408215;62.959686;;;;;;;;;
2173.0;2110.2;;;;;;;0.4090701;-0.80306405;0.10577715;;;;;;;;;;;;
2173.0;2110.2;;;;;;;;;;-1.9684439;-18.74981;61.990723;;;;;;;;;
2173.0;2110.2;;;;;;;0.40668964;-0.8056276;0.11017182;;;;;;;;;;;;
2173.0;2118.7;;;;-0.4766732;0.88465893;-0.06272889;;;;;;;;;;;;;;;
2173.0;2118.7;;;;-0.47671515;0.88009655;-0.06388474;;;;;;;;;;;;;;;
2173.0;2118.7;;;;-0.4772454;0.87638867;-0.06494904;;;;;;;;;;;;;;;
2173.0;2118.7;;;;-0.47716528;0.8721849;-0.06682206;;;;;;;;;;;;;;;
2173.0;2118.7;;;;-0.4782563;0.8689157;-0.06859971;;;;;;;;;;;;;;;
2173.0;2119.6;;;;;;;;;;-1.8921475;-15.514847;61.22776;;;;;;;;;
2173.0;2119.6;;;;;;;0.4060793;-0.80953395;0.119449444;;;;;;;;;;;;
2173.0;2119.6;;;;;;;;;;-1.6365551;-12.955108;60.773796;;;;;;;;;
2173.0;2119.6;;;;;;;0.4005249;-0.8124027;0.12720115;;;;;;;;;;;;
2173.0;2122.5;262143;262143;11066;;;;;;;;;;;;;;;;;;
2173.0;2128.4;;;;;;;;;;;;;3421;;;;;;;;
2173.0;2128.4;;;;;;;;;;;;;3165;;;;;;;;
2173.0;2128.4;;;;;;;;;;;;;3183;;;;;;;;
2173.0;2128.4;;;;;;;;;;;;;2974;;;;;;;;
2173.0;2128.4;;;;;;;;;;;;;2713;;;;;;;;
2176.0;2128.8;;;;-0.4791718;0.8656808;-0.06925202;;;;;;;;;;;;;;;
2176.0;2128.8;;;;-0.4793473;0.8615266;-0.07011796;;;;;;;;;;;;;;;
2176.0;2128.8;;;;-0.4793778;0.85847104;-0.07049943;;;;;;;;;;;;;;;
2176.0;2128.8;;;;-0.47822577;0.8556367;-0.070602424;;;;;;;;;;;;;;;
2176.0;2128.8;;;;-0.47601706;0.85279095;-0.070465095;;;;;;;;;;;;;;;
2176.0;2129.2;;;;;;;;;;-1.3466293;-11.131626;60.583054;;;;;;;;;
2176.0;2129.2;;;;;;;0.394055;-0.81783503;0.13599049;;;;;;;;;;;;
2176.0;2129.2;;;;;;;;;;-1.1902219;-9.830774;60.583054;;;;;;;;;
2176.0;2129.2;;;;;;;0.39344463;-0.8206427;0.146733;;;;;;;;;;;;
2176.0;2138.8;;;;;;;;;;-1.3847773;-8.781701;60.51439;;;;;;;;;
2176.0;2138.8;;;;;;;0.39063692;-0.8229621;0.16016114;;;;;;;;;;;;
2176.0;2138.8;;;;;;;;;;-1.7624439;-8.022553;60.17487;;;;;;;;;
2176.0;2138.8;;;;;;;0.39069796;-0.82631916;0.17133091;;;;;;;;;;;;
2176.0;2138.9;;;;-0.4725495;0.8496629;-0.06975938;;;;;;;;;;;;;;;
2176.0;2138.9;;;;-0.4681893;0.8461915;-0.07009507;;;;;;;;;;;;;;;
2176.0;2138.9;;;;-0.46360403;0.84230816;-0.07035447;;;;;;;;;;;;;;;
2176.0;2138.9;;;;-0.45872504;0.838276;-0.07127;;;;;;;;;;;;;;;
2176.0;2138.9;;;;-0.4540215;0.8331109;-0.07194901;;;;;;;;;;;;;;;
2176.0;2142.8;262143;262143;11057;;;;;;;;;;;;;;;;;;
2176.0;2148.4;;;;;;;;;;-2.3918884;-7.312998;59.644615;;;;;;;;;
2176.0;2148.4;;;;;;;0.39429915;-0.8321787;0.18097477;;;;;;;;;;;;
2176.0;2148.4;;;;;;;;;;-3.2197027;-6.637776;58.885464;;;;;;;;;
2176.0;2148.4;;;;;;;0.39820552;-0.8370617;0.19067965;;;;;;;;;;;;
2187.0;2149.0;;;;-0.4502831;0.8277322;-0.07334901;;;;;;;;;;;;;;;
2187.0;2149.0;;;;-0.44676214;0.8225366;-0.07507325;;;;;;;;;;;;;;;
2187.0;2149.0;;;;-0.44458777;0.8178636;-0.07730866;;;;;;;;;;;;;;;
2187.0;2149.0;;;;-0.44247442;0.8131105;-0.07812119;;;;;;;;;;;;;;;
2187.0;2149.0;;;;-0.44060522;0.8093873;-0.07928849;;;;;;;;;;;;;;;
2187.0;2158.0;;;;;;;;;;-4.135258;-6.538591;58.05765;;;;;;;;;
2187.0;2158.0;;;;;;;0.40534684;-0.84524065;0.1998352;;;;;;;;;;;;
2187.0;2158.0;;;;;;;;;;-5.1118503;-6.9353313;57.35954;;;;;;;;;
2187.0;2158.0;;;;;;;0.40650654;-0.85085607;0.20685446;;;;;;;;;;;;
2187.0;2159.1;;;;-0.43905264;0.8063623;-0.080680855;;;;;;;;;;;;;;;
2187.0;2159.1;;;;-0.4377442;0.8035661;-0.08259202;;;;;;;;;;;;;;;
2187.0;2159.1;;;;-0.43663412;0.80118954;-0.08365632;;;;;;;;;;;;;;;
2187.0;2159.1;;;;-0.4356156;0.79934704;-0.0848198;;;;;;;;;;;;;;;
2187.0;2159.1;;;;-0.43537527;0.79748166;-0.08576203;;;;;;;;;;;;;;;
2187.0;2162.9;262143;262143;11055;;;;;;;;;;;;;;;;;;
2187.0;2167.5;;;;;;;;;;-6.1571097;-7.293924;57.008575;;;;;;;;;
2187.0;2167.5;;;;;;;0.4062624;-0.85634935;0.20984527;;;;;;;;;;;;
2187.0;2167.5;;;;;;;;;;-7.0955534;-7.6601458;56.974243;;;;;;;;;
2187.0;2167.5;;;;;;;0.4069338;-0.86178166;0.21753594;;;;;;;;;;;;
2187.0;2168.7;;;;;;;;;;;;;3612;;;;;;;;
2187.0;2168.7;;;;;;;;;;;;;4975;;;;;;;;
2187.0;2168.7;;;;;;;;;;;;;2368;;;;;;;;
2187.0;2168.7;;;;;;;;;;;;;-6248;;;;;;;;
2187.0;2168.7;;;;;;;;;;;;;-13799;;;;;;;;
2235.0;2169.1;;;;-0.43471915;0.79586804;-0.08626557;;;;;;;;;;;;;;;
2235.0;2169.1;;;;-0.4346009;0.7948533;-0.08736039;;;;;;;;;;;;;;;
2235.0;2169.1;;;;-0.4341126;0.79426205;-0.08690644;;;;;;;;;;;;;;;
2235.0;2169.1;;;;-0.433384;0.7937852;-0.08756257;;;;;;;;;;;;;;;
2235.0;2169.1;;;;-0.4325257;0.7930871;-0.088882454;;;;;;;;;;;;;;;
2235.0;2177.0;;;;;;;;;;-8.037812;-8.236183;56.80639;;;;;;;;;
2235.0;2177.0;;;;;;;0.40711692;-0.8684347;0.22528763;;;;;;;;;;;;
2235.0;2177.0;;;;;;;;;;-8.877071;-8.880886;56.363873;;;;;;;;;
2235.0;2177.0;;;;;;;0.4051027;-0.87777334;0.23322245;;;;;;;;;;;;
2235.0;2179.0;;;;-0.43181998;0.7925073;-0.08977509;;;;;;;;;;;;;;;
2235.0;2179.0;;;;-0.4315148;0.79223263;-0.091205604;;;;;;;;;;;;;;;
2235.0;2179.0;;;;-0.4310227;0.79231656;-0.09206391;;;;;;;;;;;;;;;
2235.0;2179.0;;;;-0.43105704;0.79301846;-0.093227394;;;;;;;;;;;;;;;
2235.0;2179.0;;;;-0.43080527;0.7935945;-0.09395601;;;;;;;;;;;;;;;
2235.0;2183.0;262143;262143;11050;;;;;;;;;;;;;;;;;;
2235.0;2186.6;;;;;;;;;;-9.624775;-9.735405;55.852688;;;;;;;;;
2235.0;2186.6;;;;;;;0.40632343;-0.8866848;0.2402417;;;;;;;;;;;;
2235.0;2186.6;;;;;;;;;;-10.368664;-10.654775;55.11643;;;;;;;;;
2235.0;2186.6;;;;;;;0.4062624;-0.90066224;0.245674;;;;;;;;;;;;
2239.0;2189.1;;;;-0.43091208;0.79447186;-0.0940056;;;;;;;;;;;;;;;
2239.0;2189.1;;;;-0.43080908;0.79550946;-0.09486009;;;;;;;;;;;;;;;
2239.0;2189.1;;;;-0.42994314;0.79677594;-0.09550096;;;;;;;;;;;;;;;
2239.0;2189.1;;;;-0.4296456;0.79774106;-0.09738161;;;;;;;;;;;;;;;
2239.0;2189.1;;;;-0.4290009;0.7990953;-0.09859468;;;;;;;;;;;;;;;
2239.0;2196.3;;;;;;;;;;-11.162145;-11.635181;54.32295;;;;;;;;;
2239.0;2196.3;;;;;;;0.40571305;-0.91286963;0.2535478;;;;;;;;;;;;
2239.0;2196.3;;;;;;;;;;-11.829738;-12.115849;53.552357;;;;;;;;;
2239.0;2196.3;;;;;;;0.40961942;-0.92355114;0.26056704;;;;;;;;;;;;
2239.0;2199.3;;;;-0.42876822;0.8003961;-0.099922195;;;;;;;;;;;;;;;
2239.0;2199.3;;;;-0.42729193;0.80158246;-0.10084917;;;;;;;;;;;;;;;
2239.0;2199.3;;;;-0.42675406;0.8025018;-0.10082246;;;;;;;;;;;;;;;
2239.0;2199.3;;;;-0.42641455;0.8029901;-0.10079576;;;;;;;;;;;;;;;
2239.0;2199.3;;;;-0.42592627;0.80319226;-0.10084535;;;;;;;;;;;;;;;
2239.0;2203.3;262143;262143;11042;;;;;;;;;;;;;;;;;;
2239.0;2205.9;;;;;;;;;;-12.485885;-12.375256;52.728355;;;;;;;;;
2239.0;2205.9;;;;;;;0.4115726;-0.9292276;0.26673177;;;;;;;;;;;;
2239.0;2205.9;;;;;;;;;;-13.054293;-12.848292;52.0455;;;;;;;;;
2239.0;2205.9;;;;;;;0.41853085;-0.93453777;0.26996672;;;;;;;;;;;;
2240.0;2206.3;;;;;;;;;;;;;;;;;53.102207;41.402172;49.737537;;2023.6
2240.0;2206.3;;;;;;;;;;;;;;0.8157598;0.0056154057;-0.37885678;;;;;2023.6
2240.0;2206.3;;;;;;;;;;;;;;;;;49.863426;41.421246;49.569687;;2023.6
2240.0;2206.3;;;;;;;;;;;;;;0.7948851;0.0051881466;-0.36365855;;;;;2023.6
2240.0;2206.3;;;;;;;;;;;;;;;;;47.54402;40.044098;49.157692;;2033.2
2240.0;2206.3;;;;;;;;;;;;;;0.7788324;0.013245033;-0.34949797;;;;;2033.2
2240.0;2206.3;;;;;;;;;;;;;;;;;46.040985;36.835842;49.527725;;2033.2
2240.0;2206.3;;;;;;;;;;;;;;0.766686;0.010864589;-0.35822627;;;;;2033.2
2240.0;2206.3;;;;;;;;;;;;;;;;;43.70632;33.066807;48.94406;;2042.9
2240.0;2206.3;;;;;;;;;;;;;;0.7704092;-0.007934812;-0.38526568;;;;;2042.9
2240.0;2206.3;;;;;;;;;;;;;;;;;41.665394;31.086916;49.64217;;2042.9
2240.0;2206.3;;;;;;;;;;;;;;0.77163;-0.08069094;-0.39680165;;;;;2042.9
2240.0;2207.6;;;;;;;;;;;;;;;;;41.104618;29.320658;48.32606;;2052.6
2240.0;2207.6;;;;;;;;;;;;;;0.7878658;-0.10834071;-0.41889706;;;;;2052.6
2240.0;2207.6;;;;;;;;;;;;;;;;;40.94058;28.698843;45.915096;;2052.6
2240.0;2207.6;;;;;;;;;;;;;;0.7912839;-0.14612262;-0.45252845;;;;;2052.6
2240.0;2207.6;;;;;;;;;;;;;;;;;41.634876;30.125584;42.66488;;2062.2
2240.0;2207.6;;;;;;;;;;;;;;0.7912839;-0.1775567;-0.47248757;;;;;2062.2
2240.0;2207.6;;;;;;;;;;;;;;;;;45.03006;31.865139;39.147617;;2062.2
2240.0;2207.6;;;;;;;;;;;;;;0.8034913;-0.23004852;-0.4941557;;;;;2062.2
2240.0;2207.6;;;;;;;;;;;;;;;;;51.229134;35.13062;35.29847;;2071.9
2240.0;2207.6;;;;;;;;;;;;;;0.8275399;-0.27582628;-0.5202795;;;;;2071.9
2240.0;2207.6;;;;;;;;;;;;;;;;;59.842983;40.36836;32.15125;;2071.9
2240.0;2207.6;;;;;;;;;;;;;;0.8600116;-0.31977293;-0.53401285;;;;;2071.9
2242.0;2208.3;;;;;;;;;;;;;;;;;70.47868;45.91128;30.320139;;2081.5
2242.0;2208.3;;;;;;;;;;;;;;0.897;-0.3507187;-0.527665;;;;;2081.5
2242.0;2208.3;;;;;;;;;;;;;;;;;79.56557;51.56102;28.698843;;2081.5
2242.0;2208.3;;;;;;;;;;;;;;0.9335002;-0.34858242;-0.50032043;;;;;2081.5
2242.0;2208.3;;;;;;;;;;;;;;;;;86.233864;57.443466;28.02362;;2091.2
2242.0;2208.3;;;;;;;;;;;;;;0.9604175;-0.32203132;-0.45728934;;;;;2091.2
2242.0;2208.3;;;;;;;;;;;;;;;;;92.10104;62.810905;27.966398;;2091.2
2242.0;2208.3;;;;;;;;;;;;;;0.97305214;-0.27686393;-0.40198982;;;;;2091.2
2242.0;2208.3;;;;;;;;;;;;;;;;;97.20527;67.23991;28.263954;;2100.9
2242.0;2208.3;;;;;;;;;;;;;;0.9679861;-0.20966215;-0.34333324;;;;;2100.9
2242.0;2208.3;;;;;;;;;;;;;;;;;98.529015;70.757164;28.67214;;2100.9
2242.0;2208.3;;;;;;;;;;;;;;0.96444595;-0.13434248;-0.28370008;;;;;2100.9
2242.0;2208.9;;;;;;;;;;;;;-10768;;;;;;;;
2242.0;2208.9;;;;;;;;;;;;;2015;;;;;;;;
2242.0;2208.9;;;;;;;;;;;;;13200;;;;;;;;
2242.0;2208.9;;;;;;;;;;;;;14269;;;;;;;;
2242.0;2208.9;;;;;;;;;;;;;8318;;;;;;;;
2242.0;2209.1;;;;-0.4257508;0.80373776;-0.100360885;;;;;;;;;;;;;;;
2242.0;2209.1;;;;-0.42588812;0.80397046;-0.10029985;;;;;;;;;;;;;;;
2242.0;2209.1;;;;-0.42522818;0.8039895;-0.09925462;;;;;;;;;;;;;;;
2242.0;2209.1;;;;-0.4251328;0.80420315;-0.09809877;;;;;;;;;;;;;;;
2242.0;2209.1;;;;-0.4246636;0.80445874;-0.09683992;;;;;;;;;;;;;;;
2247.0;2213.7;;;;;;;;;;;;;;;;;95.95401;72.47383;29.950102;;2110.5
2247.0;2213.7;;;;;;;;;;;;;;0.9496139;-0.06286813;-0.21314128;;;;;2110.5
2247.0;2213.7;;;;;;;;;;;;;;;;;89.43067;70.92883;31.57903;;2110.5
2247.0;2213.7;;;;;;;;;;;;;;0.9469283;0.033143103;-0.1596118;;;;;2110.5
2247.0;2213.7;;;;;;;;;;;;;;;;;80.89312;67.79687;34.279915;;2120.1
2247.0;2213.7;;;;;;;;;;;;;;0.9423505;0.09350871;-0.1175573;;;;;2120.1
2247.0;2213.7;;;;;;;;;;;;;;;;;70.10101;63.776054;36.805325;;2120.1
2247.0;2213.7;;;;;;;;;;;;;;0.9419843;0.16980499;-0.0971099;;;;;2120.1
2247.0;2213.7;;;;;;;;;;;;;;;;;58.214058;60.247353;39.38032;;2129.7
2247.0;2213.7;;;;;;;;;;;;;;0.9374676;0.23450422;-0.09155553;;;;;2129.7
2247.0;2213.7;;;;;;;;;;;;;;;;;45.594654;58.389538;42.75643;;2129.7
2247.0;2213.7;;;;;;;;;;;;;;0.9119541;0.27143162;-0.096926786;;;;;2129.7
2247.0;2215.1;;;;;;;;;;-13.634145;-13.1801815;51.16428;;;;;;;;;
2247.0;2215.1;;;;;;;0.42585528;-0.9437544;0.2760094;;;;;;;;;;;;
2247.0;2215.1;;;;;;;;;;-14.213996;-13.4891815;50.02365;;;;;;;;;
2247.0;2215.1;;;;;;;0.42799157;-0.9486984;0.2791223;;;;;;;;;;;;
2247.0;2219.1;;;;-0.42454535;0.8047372;-0.095066085;;;;;;;;;;;;;;;
2247.0;2219.1;;;;-0.42449194;0.80464184;-0.09336091;;;;;;;;;;;;;;;
2247.0;2219.1;;;;-0.42446905;0.8048173;-0.092018135;;;;;;;;;;;;;;;
2247.0;2219.1;;;;-0.4241944;0.8046266;-0.08927155;;;;;;;;;;;;;;;
2247.0;2219.1;;;;-0.4235688;0.80464184;-0.087291725;;;;;;;;;;;;;;;
2247.0;2223.1;262143;262143;11045;;;;;;;;;;;;;;;;;;
2294.0;2224.6;;;;;;;;;;-14.618366;-13.91644;49.024174;;;;;;;;;
2294.0;2224.6;;;;;;;0.43372905;-0.9548021;0.27777946;;;;;;;;;;;;
2294.0;2224.6;;;;;;;;;;-14.973144;-14.5535145;47.902615;;;;;;;;;
2294.0;2224.6;;;;;;;0.4339732;-0.96279794;0.27771842;;;;;;;;;;;;
2294.0;2229.0;;;;-0.42296988;0.8037454;-0.08489991;;;;;;;;;;;;;;;
2294.0;2229.0;;;;-0.4227448;0.80272305;-0.0821457;;;;;;;;;;;;;;;
2294.0;2229.0;;;;-0.42205435;0.8012544;-0.07821656;;;;;;;;;;;;;;;
2294.0;2229.0;;;;-0.42181784;0.7991334;-0.073623665;;;;;;;;;;;;;;;
2294.0;2229.0;;;;-0.42105108;0.7971841;-0.06868363;;;;;;;;;;;;;;;
2294.0;2234.0;;;;;;;;;;-15.198217;-15.217292;47.059544;;;;;;;;;
2294.0;2234.0;;;;;;;0.4367809;-0.97036654;0.276986;;;;;;;;;;;;
2294.0;2234.0;;;;;;;;;;-15.335551;-15.602588;46.269875;;;;;;;;;
2294.0;2234.0;;;;;;;0.4405652;-0.97848445;0.27973264;;;;;;;;;;;;
2294.0;2238.9;;;;-0.4190064;0.7944299;-0.06406022;;;;;;;;;;;;;;;
2294.0;2238.9;;;;-0.41743094;0.7924501;-0.058712013;;;;;;;;;;;;;;;
2294.0;2238.9;;;;-0.4150849;0.7899705;-0.052978523;;;;;;;;;;;;;;;
2294.0;2238.9;;;;-0.41226584;0.7875825;-0.046649937;;;;;;;;;;;;;;;
2294.0;2238.9;;;;-0.40925223;0.7847482;-0.040962223;;;;;;;;;;;;;;;
2294.0;2243.1;262143;262143;11033;;;;;;;;;;;;;;;;;;
2294.0;2243.6;;;;;;;;;;-15.415662;-15.709402;45.2208;;;;;;;;;
2294.0;2243.6;;;;;;;0.4413587;-0.9862972;0.28431043;;;;;;;;;;;;
2294.0;2243.6;;;;;;;;;;-15.552996;-15.621662;44.091618;;;;;;;;;
2294.0;2243.6;;;;;;;0.4453261;-0.9914243;0.2906583;;;;;;;;;;;;
2297.0;2248.9;;;;;;;;;;;;;3368;;;;;;;;
2297.0;2248.9;;;;;;;;;;;;;2026;;;;;;;;
2297.0;2248.9;;;;;;;;;;;;;1822;;;;;;;;
2297.0;2248.9;;;;;;;;;;;;;1258;;;;;;;;
2297.0;2248.9;;;;;;;;;;;;;641;;;;;;;;
2297.0;2249.0;;;;-0.40679175;0.7818452;-0.03587723;;;;;;;;;;;;;;;
2297.0;2249.0;;;;-0.40456778;0.779503;-0.03111649;;;;;;;;;;;;;;;
2297.0;2249.0;;;;-0.40241247;0.77759564;-0.026084904;;;;;;;;;;;;;;;
2297.0;2249.0;;;;-0.4006806;0.776188;-0.02176285;;;;;;;;;;;;;;;
2297.0;2249.0;;;;-0.3993035;0.77541363;-0.018306734;;;;;;;;;;;;;;;
2297.0;2253.2;;;;;;;;;;-15.7284775;-15.598773;42.80984;;;;;;;;;
2297.0;2253.2;;;;;;;0.44587544;-0.9938658;0.29767755;;;;;;;;;;;;
2297.0;2253.2;;;;;;;;;;-15.774254;-15.583514;41.77984;;;;;;;;;
2297.0;2253.2;;;;;;;0.44526505;-0.992645;0.30042422;;;;;;;;;;;;
2297.0;2259.1;;;;-0.39825445;0.77435315;-0.014480593;;;;;;;;;;;;;;;
2297.0;2259.1;;;;-0.3970452;0.77352154;-0.010593415;;;;;;;;;;;;;;;
2297.0;2259.1;;;;-0.39594656;0.77280056;-0.006916047;;;;;;;;;;;;;;;
2297.0;2259.1;;;;-0.39443213;0.77188885;-0.003055573;;;;;;;;;;;;;;;
2297.0;2259.1;;;;-0.39344794;0.7708436;0.0012817384;;;;;;;;;;;;;;;
2297.0;2262.9;;;;;;;;;;-15.816217;-15.7284775;40.581985;;;;;;;;;
2297.0;2262.9;;;;;;;0.44630268;-0.98922694;0.30420852;;;;;;;;;;;;
2297.0;2262.9;;;;;;;;;;-15.911589;-16.10233;39.338356;;;;;;;;;
2297.0;2262.9;;;;;;;0.44245735;-0.9823908;0.3076876;;;;;;;;;;;;
2297.0;2263.4;262143;262143;11040;;;;;;;;;;;;;;;;;;
2299.0;2269.2;;;;-0.39205176;0.76950467;0.0064849863;;;;;;;;;;;;;;;
2299.0;2269.2;;;;-0.39043432;0.76760876;0.012737276;;;;;;;;;;;;;;;
2299.0;2269.2;;;;-0.38834006;0.76556027;0.019504549;;;;;;;;;;;;;;;
2299.0;2269.2;;;;-0.38636786;0.76342785;0.0261879;;;;;;;;;;;;;;;
2299.0;2269.2;;;;-0.3846436;0.7611505;0.033851627;;;;;;;;;;;;;;;
2299.0;2272.5;;;;;;;;;;-15.896328;-16.575367;38.04514;;;;;;;;;
2299.0;2272.5;;;;;;;0.43830684;-0.97647023;0.30854213;;;;;;;;;;;;
2299.0;2272.5;;;;;;;;;;-15.705587;-17.29255;36.828213;;;;;;;;;
2299.0;2272.5;;;;;;;0.4356212;-0.9717094;0.30957976;;;;;;;;;;;;
2299.0;2279.3;;;;-0.38286597;0.75948346;0.04069901;;;;;;;;;;;;;;;
2299.0;2279.3;;;;-0.38150412;0.7579156;0.046932228;;;;;;;;;;;;;;;
2299.0;2279.3;;;;-0.38047796;0.75704205;0.05383683;;;;;;;;;;;;;;;
2299.0;2279.3;;;;-0.37971503;0.7567941;0.0600586;;;;;;;;;;;;;;;
2299.0;2279.3;;;;-0.37920767;0.75647366;0.06669236;;;;;;;;;;;;;;;
2299.0;2282.0;;;;;;;;;;-15.549181;-17.77703;35.56169;;;;;;;;;
2299.0;2282.0;;;;;;;0.4331187;-0.9698172;0.30835903;;;;;;;;;;;;
2299.0;2282.0;;;;;;;;;;-15.297402;-17.986847;34.18836;;;;;;;;;
2299.0;2282.0;;;;;;;0.43238625;-0.9726249;0.3065279;;;;;;;;;;;;
2299.0;2283.5;262143;262143;11039;;;;;;;;;;;;;;;;;;
2299.0;2289.3;;;;;;;;;;;;;-110;;;;;;;;
2299.0;2289.3;;;;;;;;;;;;;-967;;;;;;;;
2299.0;2289.3;;;;;;;;;;;;;-1531;;;;;;;;
2299.0;2289.3;;;;;;;;;;;;;-1831;;;;;;;;
2299.0;2289.3;;;;;;;;;;;;;-2221;;;;;;;;
2356.0;2289.3;;;;-0.37917334;0.7566911;0.07158662;;;;;;;;;;;;;;;
2356.0;2289.3;;;;-0.3794518;0.7569467;0.075874336;;;;;;;;;;;;;;;
2356.0;2289.3;;;;-0.38000876;0.75820553;0.08076096;;;;;;;;;;;;;;;
2356.0;2289.3;;;;-0.38088614;0.7595445;0.08515931;;;;;;;;;;;;;;;
2356.0;2289.3;;;;-0.3820153;0.7614137;0.08815766;;;;;;;;;;;;;;;
2356.0;2291.5;;;;;;;;;;-15.015106;-17.990662;32.742546;;;;;;;;;
2356.0;2291.5;;;;;;;0.4365978;-0.9772637;0.30555132;;;;;;;;;;;;
2356.0;2291.5;;;;;;;;;;-14.709922;-17.979218;31.155582;;;;;;;;;
2356.0;2291.5;;;;;;;0.44245735;-0.9819636;0.30738243;;;;;;;;;;;;
2356.0;2299.3;;;;-0.3833199;0.7636224;0.09121705;;;;;;;;;;;;;;;
2356.0;2299.3;;;;-0.3841172;0.76573956;0.09368897;;;;;;;;;;;;;;;
2356.0;2299.3;;;;-0.38559347;0.7684976;0.09563829;;;;;;;;;;;;;;;
