patientId;holterMac;flexMac;;;;;;;;;;;;;;;;;;;;
;CA:F3:0B:1E:33:78;D3:4A:5C:52:80:78;;;;;;;;;;;;;;;;;;;;
receivedTimeStamp;timeStamp;red;ir;green;adxl_accX;adxl_accY;adxl_accZ;lsm_accelX;lsm_accelY;lsm_accelZ;lsm_gyroX;lsm_gyroY;lsm_gyroZ;ecg;flex_lsm_accelX;flex_lsm_accelY;flex_lsm_accelZ;flex_lsm_gyroX;flex_lsm_gyroY;flex_lsm_gyroZ;flex_cmd;flexTimeStamp
265.0;216.1;;;;;;;;;;;;;;;;;;;;17;0.1
265.0;216.1;;;;;;;;;;;;;;;;;12.993256;1.7624439;0.7248146;;127.5
265.0;216.1;;;;;;;;;;;;;;1.045259;0.0867336;-0.19312114;;;;;127.5
265.0;216.1;;;;;;;;;;;;;;;;;-5.996887;-15.316477;-7.457961;;127.5
265.0;216.1;;;;;;;;;;;;;;1.0769982;0.16821803;-0.20520645;;;;;127.5
265.0;216.1;;;;;;;;;;;;;;;;;-61.330757;-83.460495;-69.227425;;137.1
265.0;216.1;;;;;;;;;;;;;;1.0747398;0.23078097;-0.19080172;;;;;137.1
265.0;216.1;;;;;;;;;;;;;;;;;-121.81463;-124.988556;-123.13074;;137.1
265.0;216.1;;;;;;;;;;;;;;1.0954313;0.2938322;-0.17761773;;;;;137.1
326.0;216.7;;;;;;;;;;;;;;;;;-50.19913;-123.34437;-114.421524;;146.8
326.0;216.7;;;;;;;;;;;;;;1.1241188;0.35200047;-0.14935759;;;;;146.8
326.0;216.7;;;;;;;;;;;;;;;;;29.17951;-118.78186;-115.878784;;146.8
326.0;216.7;;;;;;;;;;;;;;1.1500595;0.39082003;-0.14416943;;;;;146.8
326.0;216.7;;;;;;;;;;;;;;;;;29.969175;-86.12705;-121.57811;;156.4
326.0;216.7;;;;;;;;;;;;;;1.1808221;0.42829677;-0.17011017;;;;;156.4
326.0;216.7;;;;;;;;;;;;;;;;;24.002808;3.913999;-114.177376;;156.4
326.0;216.7;;;;;;;;;;;;;;1.210242;0.47224343;-0.1944029;;;;;156.4
326.0;216.7;;;;;;;;;;;;;;;;;20.893734;6.679739;-113.47926;;166.0
326.0;216.7;;;;;;;;;;;;;;1.2393566;0.48847926;-0.21503341;;;;;166.0
326.0;216.7;;;;;;;;;;;;;;;;;17.971586;4.6197395;-113.18934;;166.0
326.0;216.7;;;;;;;;;;;;;;1.2499771;0.47322002;-0.21570483;;;;;166.0
326.0;276.0;;;;;;;;;;;;;;;;;13.889736;4.5777764;-112.57515;;175.7
326.0;276.0;;;;;;;;;;;;;;1.2523576;0.45350504;-0.19342631;;;;;175.7
326.0;276.0;;;;;;;;;;;;;;;;;8.384961;5.142369;-111.73971;;175.7
326.0;276.0;;;;;;;;;;;;;;1.2347789;0.41645557;-0.1810358;;;;;175.7
326.0;276.0;;;;;;;;;;;;;;;;;2.2164068;6.4470353;-110.30152;;185.2
326.0;276.0;;;;;;;;;;;;;;1.2210456;0.38819546;-0.16730247;;;;;185.2
326.0;276.0;;;;;;;;;;;;;;;;;-3.6965547;7.5914793;-108.04316;;185.2
326.0;276.0;;;;;;;;;;;;;;1.2084719;0.36671042;-0.17548142;;;;;185.2
326.0;276.0;;;;;;;;;;;;;;;;;-9.384442;7.89285;-104.66323;;194.7
326.0;276.0;;;;;;;;;;;;;;1.2022462;0.35047457;-0.20111698;;;;;194.7
326.0;276.0;;;;;;;;;;;;;;;;;-15.102847;7.530442;-99.67345;;194.7
326.0;276.0;;;;;;;;;;;;;;1.1909543;0.32868436;-0.2412183;;;;;194.7
449.0;276.7;;;;;;;;;;;;;;;;;-21.076845;6.4813685;-93.72616;;204.4
449.0;276.7;;;;;;;;;;;;;;1.1733146;0.31287575;-0.28907132;;;;;204.4
449.0;276.7;;;;;;;;;;;;;;;;;-26.844845;5.5352945;-88.2252;;204.4
449.0;276.7;;;;;;;;;;;;;;1.158971;0.31214333;-0.3310648;;;;;204.4
449.0;276.7;;;;;;;;;;;;;;;;;-32.433548;5.138554;-82.10242;;214.1
449.0;276.7;;;;;;;;;;;;;;1.1290017;0.28992584;-0.35895872;;;;;214.1
449.0;276.7;;;;;;;;;;;;;;;;;-36.957916;4.753258;-77.150795;;214.1
449.0;276.7;;;;;;;;;;;;;;1.1015351;0.2779626;-0.36872464;;;;;214.1
449.0;276.7;;;;;;;;;;;;;;;;;-41.58147;4.0246286;-72.53868;;223.7
449.0;276.7;;;;;;;;;;;;;;1.0754722;0.26154363;-0.36475724;;;;;223.7
449.0;276.7;;;;;;;;;;;;;;;;;-45.392467;3.3417768;-68.21268;;223.7
449.0;276.7;;;;;;;;;;;;;;1.0597857;0.25611132;-0.35242775;;;;;223.7
449.0;336.7;;;;;;;;;;;;;;;;;-48.692284;2.826777;-64.24146;;233.4
449.0;336.7;;;;;;;;;;;;;;1.0503861;0.25055698;-0.3274636;;;;;233.4
449.0;336.7;;;;;;;;;;;;;;;;;-51.95395;1.3695182;-61.35365;;233.4
449.0;336.7;;;;;;;;;;;;;;1.0406201;0.23859371;-0.29566333;;;;;233.4
449.0;336.7;;;;;;;;;;;;;;;;;-54.612873;-0.6256294;-59.503464;;243.0
449.0;336.7;;;;;;;;;;;;;;1.042085;0.23419905;-0.26606035;;;;;243.0
449.0;336.7;;;;;;;;;;;;;;;;;-56.566055;-1.6212958;-58.179726;;243.0
449.0;336.7;;;;;;;;;;;;;;1.0356151;0.22827846;-0.23114718;;;;;243.0
449.0;336.7;;;;;;;;;;;;;;;;;-58.29417;-2.6741846;-56.676685;;252.7
449.0;336.7;;;;;;;;;;;;;;1.0311594;0.22540972;-0.20001832;;;;;252.7
449.0;336.7;;;;;;;;;;;;;;;;;-58.893093;-3.4867396;-54.597614;;252.7
449.0;336.7;;;;;;;;;;;;;;1.0197455;0.21332438;-0.16657002;;;;;252.7
510.0;337.5;;;;;;;;;;;;;;;;;-58.503983;-4.627369;-52.999207;;262.2
510.0;337.5;;;;;;;;;;;;;;1.0082705;0.20667134;-0.14038515;;;;;262.2
510.0;337.5;;;;;;;;;;;;;;;;;-57.744835;-5.9854426;-51.56102;;262.2
510.0;337.5;;;;;;;;;;;;;;0.9985046;0.20484024;-0.11529893;;;;;262.2
510.0;337.5;;;;;;;;;;;;;;;;;-58.0195;-6.9467754;-49.558243;;271.8
510.0;337.5;;;;;;;;;;;;;;0.995819;0.20612201;-0.09625538;;;;;271.8
510.0;337.5;;;;;;;;;;;;;;;;;-57.199318;-6.2715535;-45.770134;;271.8
510.0;337.5;;;;;;;;;;;;;;0.9607227;0.18683432;-0.0679342;;;;;271.8
510.0;337.5;;;;;;;;;;;;;;;;;-56.772057;-6.0350356;-41.238136;;281.4
510.0;337.5;;;;;;;;;;;;;;0.93130285;0.16309091;-0.028931547;;;;;281.4
510.0;337.5;;;;;;;;;;;;;;;;;-57.348095;-7.9081087;-36.790062;;281.4
510.0;337.5;;;;;;;;;;;;;;0.9287393;0.13245033;-0.0017090365;;;;;281.4
510.0;396.7;;;;;;;;;;;;;;;;;-59.236427;-8.430738;-33.71914;;291.1
510.0;396.7;;;;;;;;;;;;;;0.91183203;0.10260323;0.0014648885;;;;;291.1
510.0;396.7;;;;;;;;;;;;;;;;;-59.6408;-5.0241094;-30.129398;;291.1
510.0;396.7;;;;;;;;;;;;;;0.84145635;0.12683493;0.037598804;;;;;291.1
510.0;396.7;;;;;;;;;;;;;;;;;-60.312202;-3.4257026;-25.269325;;300.6
510.0;396.7;;;;;;;;;;;;;;0.8059328;0.08783227;0.090029605;;;;;300.6
510.0;396.7;;;;;;;;;;;;;;;;;-59.877316;-8.339183;-22.377697;;300.6
510.0;396.7;;;;;;;;;;;;;;0.83059174;0.039246805;0.03729362;;;;;300.6
510.0;396.7;;;;;;;;;;;;;;;;;-52.1218;-2.601703;-20.405437;;310.3
510.0;396.7;;;;;;;;;;;;;;0.85189366;0.09552293;0.0987579;;;;;310.3
510.0;396.7;;;;;;;;;;;;;;;;;-50.691242;10.982849;-14.259773;;310.3
510.0;396.7;;;;;;;;;;;;;;0.71498764;0.15009002;0.1784112;;;;;310.3
512.0;397.4;;;;;;;;;;;;;;;;;-62.105167;5.493332;-7.290109;;319.9
512.0;397.4;;;;;;;;;;;;;;0.65266883;0.1297647;0.02356029;;;;;319.9
512.0;397.4;;;;;;;;;;;;;;;;;-69.51735;-4.1238136;-2.376629;;319.9
512.0;397.4;;;;;;;;;;;;;;0.6690268;0.10180975;-0.056093022;;;;;319.9
512.0;397.4;;;;;;;;;;;;;;;;;-64.10795;-6.591998;2.685629;;329.5
512.0;397.4;;;;;;;;;;;;;;0.66451;0.110721156;0.013855403;;;;;329.5
512.0;397.4;;;;;;;;;;;;;;;;;-59.556873;-10.464034;7.8852196;;329.5
512.0;397.4;;;;;;;;;;;;;;0.6333811;0.121890925;-0.009338664;;;;;329.5
512.0;397.4;;;;;;;;;;;;;;;;;-59.63317;-17.418438;12.089145;;339.1
512.0;397.4;;;;;;;;;;;;;;0.6090274;0.13287759;-0.10065004;;;;;339.1
512.0;397.4;;;;;;;;;;;;;;;;;-57.386242;-24.88403;14.84344;;339.1
512.0;397.4;;;;;;;;;;;;;;0.6273995;0.1241493;-0.1693167;;;;;339.1
512.0;456.9;;;;;;;;;;;;;;;;;-46.349987;-26.043734;16.827145;;348.8
512.0;456.9;;;;;;;;;;;;;;0.6731773;0.14233834;-0.14368114;;;;;348.8
512.0;456.9;;;;;;;;;;;;;;;;;-32.39921;-20.15366;18.711662;;348.8
512.0;456.9;;;;;;;;;;;;;;0.6833705;0.13690603;-0.061159093;;;;;348.8
512.0;456.9;;;;;;;;;;;;;;;;;-21.820736;-13.1077;21.187475;;358.5
512.0;456.9;;;;;;;;;;;;;;0.67488635;0.16327402;-0.018677328;;;;;358.5
512.0;456.9;;;;;;;;;;;;;;;;;-16.29307;-7.1146274;24.014252;;358.5
512.0;456.9;;;;;;;;;;;;;;0.65810114;0.16614276;-0.013855403;;;;;358.5
512.0;456.9;;;;;;;;;;;;;;;;;-13.142034;-1.9188513;27.001251;;368.0
512.0;456.9;;;;;;;;;;;;;;0.64064455;0.1563158;-0.006653035;;;;;368.0
512.0;456.9;;;;;;;;;;;;;;;;;-10.479293;2.5978882;30.499435;;368.0
512.0;456.9;;;;;;;;;;;;;;0.6263619;0.15369122;9.765923E-4;;;;;368.0
568.0;458.1;;;;;;;;;;;;;;;;;-8.953367;6.389813;34.146397;;377.7
568.0;458.1;;;;;;;;;;;;;;0.61653495;0.1462447;-0.012939848;;;;;377.7
568.0;458.1;;;;;;;;;;;;;;;;;-7.8127384;9.933775;37.667473;;377.7
568.0;458.1;;;;;;;;;;;;;;0.60847807;0.13330485;-0.028931547;;;;;377.7
568.0;458.1;;;;;;;;;;;;;;;;;-6.416517;13.760033;41.066467;;387.4
568.0;458.1;;;;;;;;;;;;;;0.6049379;0.12872708;-0.030274361;;;;;387.4
568.0;458.1;;;;;;;;;;;;;;;;;-5.0889616;17.868587;44.209877;;387.4
568.0;458.1;;;;;;;;;;;;;;0.5971252;0.13336588;-0.017578661;;;;;387.4
568.0;458.1;;;;;;;;;;;;;;;;;-4.40611;20.371105;47.109135;;397.1
568.0;458.1;;;;;;;;;;;;;;0.5840022;0.15063937;6.103702E-4;;;;;397.1
568.0;458.1;;;;;;;;;;;;;;;;;-5.0279245;19.840845;49.90539;;397.1
568.0;458.1;;;;;;;;;;;;;;0.57655567;0.17065951;0.015930662;;;;;397.1
568.0;517.3;;;;;;;;;;;;;;;;;-6.591998;16.857662;52.388836;;406.6
568.0;517.3;;;;;;;;;;;;;;0.5835139;0.1986755;0.02642903;;;;;406.6
568.0;517.3;;;;;;;;;;;;;;;;;-8.255258;13.763847;54.620502;;406.6
568.0;517.3;;;;;;;;;;;;;;0.60768455;0.23108615;0.03814814;;;;;406.6
568.0;517.3;;;;;;;;;;;;;;;;;-9.8155155;12.138738;56.211277;;416.3
568.0;517.3;;;;;;;;;;;;;;0.6400342;0.27277443;0.05206458;;;;;416.3
568.0;517.3;;;;;;;;;;;;;;;;;-10.639516;12.432477;57.084873;;416.3
568.0;517.3;;;;;;;;;;;;;;0.68202764;0.32764673;0.06817835;;;;;416.3
568.0;517.3;;;;;;;;;;;;;;;;;-10.567034;13.603626;57.43965;;426.0
568.0;517.3;;;;;;;;;;;;;;0.71718496;0.3686636;0.078005314;;;;;426.0
568.0;517.3;;;;;;;;;;;;;;;;;-9.205146;14.572589;56.779686;;426.0
568.0;517.3;;;;;;;;;;;;;;0.7417829;0.42945647;0.076113164;;;;;426.0
631.0;518.0;;;;;;;;;;;;;;;;;-7.026887;14.191107;55.612354;;435.6
631.0;518.0;;;;;;;;;;;;;;0.7614368;0.4835963;0.055238504;;;;;435.6
631.0;518.0;;;;;;;;;;;;;;;;;-3.3036287;12.691885;53.567616;;435.6
631.0;518.0;;;;;;;;;;;;;;0.7770623;0.5583056;0.026367992;;;;;435.6
631.0;518.0;;;;;;;;;;;;;;;;;0.94225895;9.918515;51.309242;;445.1
631.0;518.0;;;;;;;;;;;;;;0.80471206;0.63386947;-0.013550218;;;;;445.1
631.0;518.0;;;;;;;;;;;;;;;;;5.01648;6.717887;49.218727;;445.1
631.0;518.0;;;;;;;;;;;;;;0.8361461;0.6997894;-0.06042665;;;;;445.1
631.0;518.0;;;;;;;;;;;;;;;;;8.79696;4.562517;47.189247;;454.8
631.0;518.0;;;;;;;;;;;;;;0.86013365;0.7577746;-0.09076205;;;;;454.8
631.0;518.0;;;;;;;;;;;;;;;;;12.115849;2.0828884;45.21317;;454.8
631.0;518.0;;;;;;;;;;;;;;0.88070315;0.80648214;-0.12073123;;;;;454.8
631.0;532.2;;;;;;;;;;;;;;;;;13.576922;-0.2784814;43.294323;;464.5
631.0;532.2;;;;;;;;;;;;;;0.9004181;0.84066284;-0.13562426;;;;;464.5
631.0;532.2;;;;;;;;;;;;;;;;;12.665181;-3.1662953;41.650135;;464.5
631.0;532.2;;;;;;;;;;;;;;0.9185461;0.8429823;-0.16657002;;;;;464.5
631.0;532.2;;;;;;;;;;;;;;;;;11.474959;-4.8333693;39.5558;;474.1
631.0;532.2;;;;;;;;;;;;;;0.9330729;0.8420667;-0.1975158;;;;;474.1
631.0;532.2;;;;;;;;;;;;;;;;;9.376812;-5.874813;37.598804;;474.1
631.0;532.2;;;;;;;;;;;;;;0.9378338;0.8374279;-0.23242897;;;;;474.1
631.0;532.2;;;;;;;;;;;;;;;;;6.492813;-6.122776;34.813988;;483.7
631.0;532.2;;;;;;;;;;;;;;0.9387494;0.8247932;-0.25141147;;;;;483.7
631.0;532.2;;;;;;;;;;;;;;;;;3.2006288;-5.3788877;31.144138;;483.7
631.0;532.2;;;;;;;;;;;;;;0.9314249;0.79946285;-0.23920408;;;;;483.7
691.0;578.0;;;;;;;;;;;;;;;;;-0.12207404;-3.2502213;26.066622;;493.4
691.0;578.0;;;;;;;;;;;;;;0.933195;0.7794427;-0.19428083;;;;;493.4
691.0;578.0;;;;;;;;;;;;;;;;;-3.215888;-0.12207404;20.05829;;493.4
691.0;578.0;;;;;;;;;;;;;;0.93612474;0.7721183;-0.15289773;;;;;493.4
691.0;578.0;;;;;;;;;;;;;;;;;-5.00885;3.540147;13.962218;;503.1
691.0;578.0;;;;;;;;;;;;;;0.9363689;0.77535325;-0.12555315;;;;;503.1
691.0;578.0;;;;;;;;;;;;;;;;;-4.081851;8.117924;7.065035;;503.1
691.0;578.0;;;;;;;;;;;;;;0.9408246;0.76723534;-0.10364086;;;;;503.1
691.0;578.0;;;;;;;;;;;;;;;;;0.49592578;12.836848;-0.10681479;;512.8
691.0;578.0;;;;;;;;;;;;;;0.9389325;0.7790765;-0.077455975;;;;;512.8
691.0;578.0;;;;;;;;;;;;;;;;;6.530961;16.834774;-5.8252206;;512.8
691.0;578.0;;;;;;;;;;;;;;0.94100773;0.7754143;-0.044068728;;;;;512.8
691.0;592.7;;;;;;;;;;;;;;;;;10.6814785;18.169958;-8.602405;;522.3
691.0;592.7;;;;;;;;;;;;;;0.91811883;0.73824275;-0.0048219245;;;;;522.3
691.0;592.7;;;;;;;;;;;;;;;;;13.523515;15.022736;-9.044923;;522.3
691.0;592.7;;;;;;;;;;;;;;0.88155764;0.6638386;0.0051881466;;;;;522.3
691.0;592.7;;;;;;;;;;;;;;;;;13.775291;9.807885;-7.698294;;532.0
691.0;592.7;;;;;;;;;;;;;;0.80629903;0.5652028;-0.01391644;;;;;532.0
691.0;592.7;;;;;;;;;;;;;;;;;12.237923;2.4414806;-6.004517;;532.0
691.0;592.7;;;;;;;;;;;;;;0.712302;0.48518327;-0.05121006;;;;;532.0
691.0;592.7;;;;;;;;;;;;;;;;;9.979552;-7.255776;-5.287332;;541.5
691.0;592.7;;;;;;;;;;;;;;0.6565752;0.4427015;-0.07971435;;;;;541.5
691.0;592.7;;;;;;;;;;;;;;;;;5.0469985;-18.147068;-3.784295;;541.5
691.0;592.7;;;;;;;;;;;;;;0.6267281;0.40424818;-0.09350871;;;;;541.5
747.0;638.0;;;;;;;;;;;;;;;;;-3.5515916;-30.301064;-1.1215552;;551.2
747.0;638.0;;;;;;;;;;;;;;0.6114078;0.3651845;-0.09796441;;;;;551.2
747.0;638.0;;;;;;;;;;;;;;;;;-13.988921;-43.38969;3.4180732;;551.2
747.0;638.0;;;;;;;;;;;;;;0.6369213;0.3144017;-0.09271523;;;;;551.2
747.0;638.0;;;;;;;;;;;;;;;;;-23.998993;-57.000946;9.624775;;560.8
747.0;638.0;;;;;;;;;;;;;;0.6837367;0.275338;-0.10834071;;;;;560.8
747.0;638.0;;;;;;;;;;;;;;;;;-32.441177;-69.08246;17.418438;;560.8
747.0;638.0;;;;;;;;;;;;;;0.75124365;0.24225593;-0.11737419;;;;;560.8
747.0;638.0;;;;;;;;;;;;;;;;;-38.89966;-74.835205;26.5244;;570.4
747.0;638.0;;;;;;;;;;;;;;0.81948304;0.21198156;-0.06683554;;;;;570.4
747.0;638.0;;;;;;;;;;;;;;;;;-43.912323;-72.4662;36.694695;;570.4
747.0;638.0;;;;;;;;;;;;;;0.90121156;0.16888943;0.079775386;;;;;570.4
747.0;653.5;;;;;;;;;;;;;;;;;-48.089542;-64.19569;47.608875;;580.1
747.0;653.5;;;;;;;;;;;;;;0.99935913;0.122989595;0.2595294;;;;;580.1
747.0;653.5;;;;;;;;;;;;;;;;;-51.057465;-53.220467;59.034245;;580.1
747.0;653.5;;;;;;;;;;;;;;1.1702018;0.08020265;0.43415633;;;;;580.1
747.0;653.5;;;;;;;;;;;;;;;;;-51.49617;-36.618397;70.82964;;589.7
747.0;653.5;;;;;;;;;;;;;;1.40141;0.05938902;0.64644307;;;;;589.7
747.0;653.5;;;;;;;;;;;;;;;;;-52.484207;-22.21366;82.64794;;589.7
747.0;653.5;;;;;;;;;;;;;;1.7248452;0.086489454;0.69032866;;;;;589.7
747.0;653.5;;;;;;;;;;;;;;;;;-45.720543;-11.078218;92.35282;;599.3
747.0;653.5;;;;;;;;;;;;;;1.9887692;0.19006927;0.44642475;;;;;599.3
747.0;653.5;;;;;;;;;;;;;;;;;-18.795588;-1.8082217;93.94742;;599.3
747.0;653.5;;;;;;;;;;;;;;1.996704;0.43989378;0.026856288;;;;;599.3
808.0;698.4;;;;;;;;;;;;;;;;;16.357922;16.365551;82.41142;;608.8
808.0;698.4;;;;;;;;;;;;;;1.996704;0.66914886;-0.19086276;;;;;608.8
808.0;698.4;;;;;;;;;;;;;;;;;51.4275;51.16428;49.432358;;608.8
808.0;698.4;;;;;;;;;;;;;;1.996704;1.0445265;-0.016052736;;;;;608.8
808.0;698.4;;;;;;;;;;;;;;;;;65.52324;64.91287;20.68392;;618.4
808.0;698.4;;;;;;;;;;;;;;1.7875302;1.3202307;-0.39796138;;;;;618.4
808.0;698.4;;;;;;;;;;;;;;;;;55.646687;66.84317;5.5963316;;618.4
808.0;698.4;;;;;;;;;;;;;;1.1570787;1.2126224;-0.20221564;;;;;618.4
808.0;698.4;;;;;;;;;;;;;;;;;33.570362;2.643666;-17.685476;;627.9
808.0;698.4;;;;;;;;;;;;;;1.1422467;1.145909;-0.4181646;;;;;627.9
808.0;698.4;;;;;;;;;;;;;;;;;-5.878628;-32.216103;-14.042329;;627.9
808.0;698.4;;;;;;;;;;;;;;1.0609455;0.967803;-0.48121586;;;;;627.9
808.0;706.2;;;;;;;;;;;;;;;;;-43.786434;-59.44243;0.6179998;;637.6
808.0;706.2;;;;;;;;;;;;;;0.7776116;0.6124455;-0.44898832;;;;;637.6
808.0;706.2;;;;;;;;;;;;;;;;;-77.60476;-91.807304;0.6981109;;637.6
808.0;706.2;;;;;;;;;;;;;;0.61635184;0.41431928;-0.4839015;;;;;637.6
808.0;706.2;;;;;;;;;;;;;;;;;-112.33863;-100.82552;13.103885;;647.3
808.0;706.2;;;;;;;;;;;;;;0.5309;0.121097445;-0.5129551;;;;;647.3
808.0;706.2;;;;;;;;;;;;;;;;;-124.47356;-89.671005;33.173622;;647.3
808.0;706.2;;;;;;;;;;;;;;0.51600695;-0.11609241;-0.40058595;;;;;647.3
808.0;706.2;;;;;;;;;;;;;;;;;-124.988556;-83.02179;58.187355;;657.0
808.0;706.2;;;;;;;;;;;;;;0.623249;-0.31751457;-0.3122654;;;;;657.0
808.0;706.2;;;;;;;;;;;;;;;;;-124.988556;-77.26142;82.12149;;657.0
808.0;706.2;;;;;;;;;;;;;;0.72603536;-0.4613788;-0.3327128;;;;;657.0
871.0;758.6;;;;;;;;;;;;;;;;;-122.97815;-55.322426;103.40816;;666.6
871.0;758.6;;;;;;;;;;;;;;0.7154759;-0.63399154;-0.28736228;;;;;666.6
871.0;758.6;;;;;;;;;;;;;;;;;-107.39082;-28.351696;113.79589;;666.6
871.0;758.6;;;;;;;;;;;;;;0.6530961;-0.712302;-0.13806574;;;;;666.6
871.0;758.6;;;;;;;;;;;;;;;;;-84.45616;-3.360851;111.02252;;676.0
871.0;758.6;;;;;;;;;;;;;;0.6003601;-0.7943358;-0.019470809;;;;;676.0
871.0;758.6;;;;;;;;;;;;;;;;;-56.1655;18.383587;94.03897;;676.0
871.0;758.6;;;;;;;;;;;;;;0.62660605;-0.63917965;0.13440351;;;;;676.0
871.0;758.6;;;;;;;;;;;;;;;;;-37.2631;34.18073;84.14716;;685.6
871.0;758.6;;;;;;;;;;;;;;0.62947476;-0.5196692;0.2141789;;;;;685.6
871.0;758.6;;;;;;;;;;;;;;;;;-20.88229;43.778805;79.02768;;685.6
871.0;758.6;;;;;;;;;;;;;;0.6236152;-0.45863217;0.23187964;;;;;685.6
871.0;766.1;;;;;;;;;;;;;;;;;-4.139073;46.388134;73.86243;;695.3
871.0;766.1;;;;;;;;;;;;;;0.6038392;-0.4141972;0.19452497;;;;;695.3
871.0;766.1;;;;;;;;;;;;;;;;;14.866329;40.803246;67.76635;;695.3
871.0;766.1;;;;;;;;;;;;;;0.5380413;-0.35773796;0.15637684;;;;;695.3
871.0;766.1;;;;;;;;;;;;;;;;;30.117952;23.667105;58.820614;;704.9
871.0;766.1;;;;;;;;;;;;;;0.49464402;-0.24439223;0.1037019;;;;;704.9
871.0;766.1;;;;;;;;;;;;;;;;;34.821617;-2.1210363;50.81713;;704.9
871.0;766.1;;;;;;;;;;;;;;0.52125615;-0.14453566;-0.0019531846;;;;;704.9
871.0;766.1;;;;;;;;;;;;;;;;;30.468916;-26.696066;45.1178;;714.4
871.0;766.1;;;;;;;;;;;;;;0.59926146;-0.048402358;-0.13592944;;;;;714.4
871.0;766.1;;;;;;;;;;;;;;;;;21.206549;-44.01151;41.53569;;714.4
871.0;766.1;;;;;;;;;;;;;;0.6848964;0.050355542;-0.24646749;;;;;714.4
931.0;818.9;;;;;;;;;;;;;;;;;10.467849;-55.78402;40.31495;;724.0
931.0;818.9;;;;;;;;;;;;;;0.7767571;0.11938841;-0.3241676;;;;;724.0
931.0;818.9;;;;;;;;;;;;;;;;;0.053407393;-63.097015;41.070282;;724.0
931.0;818.9;;;;;;;;;;;;;;0.8850978;0.15204321;-0.36634418;;;;;724.0
931.0;818.9;;;;;;;;;;;;;;;;;-8.1331835;-67.24372;43.301952;;733.6
931.0;818.9;;;;;;;;;;;;;;0.9836116;0.14416943;-0.38801232;;;;;733.6
931.0;818.9;;;;;;;;;;;;;;;;;-13.882107;-67.97616;45.701466;;733.6
931.0;818.9;;;;;;;;;;;;;;1.0676595;0.13306071;-0.4126713;;;;;733.6
931.0;818.9;;;;;;;;;;;;;;;;;-18.547625;-63.482315;47.246468;;743.2
931.0;818.9;;;;;;;;;;;;;;1.13773;0.15033418;-0.41651663;;;;;743.2
931.0;818.9;;;;;;;;;;;;;;;;;-21.91229;-54.837944;48.116245;;743.2
931.0;818.9;;;;;;;;;;;;;;1.1790521;0.18024231;-0.3850215;;;;;743.2
931.0;834.3;;;;;;;;;;;;;;;;;-23.44203;-43.710136;47.933136;;752.7
931.0;834.3;;;;;;;;;;;;;;1.1960814;0.20502335;-0.33185828;;;;;752.7
931.0;834.3;;;;;;;;;;;;;;;;;-24.338512;-30.129398;45.930355;;752.7
931.0;834.3;;;;;;;;;;;;;;1.1984009;0.23285623;-0.25666067;;;;;752.7
931.0;834.3;;;;;;;;;;;;;;;;;-25.406658;-14.511552;42.75643;;762.4
931.0;834.3;;;;;;;;;;;;;;1.1594592;0.26483962;-0.1817072;;;;;762.4
931.0;834.3;;;;;;;;;;;;;;;;;-25.624104;1.1406293;38.041325;;762.4
931.0;834.3;;;;;;;;;;;;;;1.1003144;0.3217261;-0.07525864;;;;;762.4
931.0;834.3;;;;;;;;;;;;;;;;;-28.984955;11.089663;35.439617;;772.0
931.0;834.3;;;;;;;;;;;;;;1.0127262;0.33710745;-0.006775109;;;;;772.0
931.0;834.3;;;;;;;;;;;;;;;;;-32.13599;13.122959;32.51747;;772.0
931.0;834.3;;;;;;;;;;;;;;0.9510178;0.3620716;0.0110477;;;;;772.0
987.0;879.3;;;;;;;;;;;;;;;;;-33.53603;9.983367;29.59151;;781.7
987.0;879.3;;;;;;;;;;;;;;0.92440563;0.3719596;-0.018127995;;;;;781.7
987.0;879.3;;;;;;;;;;;;;;;;;-32.15125;5.4208503;27.298807;;781.7
987.0;879.3;;;;;;;;;;;;;;0.9032868;0.36707664;-0.062379833;;;;;781.7
987.0;879.3;;;;;;;;;;;;;;;;;-29.416029;0.7667776;26.234474;;791.4
987.0;879.3;;;;;;;;;;;;;;0.8928495;0.313242;-0.08825953;;;;;791.4
987.0;879.3;;;;;;;;;;;;;;;;;-26.322214;-3.4752953;25.009918;;791.4
987.0;879.3;;;;;;;;;;;;;;0.90609455;0.24158452;-0.12952055;;;;;791.4
987.0;879.3;;;;;;;;;;;;;;;;;-24.006622;-4.3450727;23.873104;;801.0
987.0;879.3;;;;;;;;;;;;;;0.88735616;0.18921477;-0.13617359;;;;;801.0
987.0;879.3;;;;;;;;;;;;;;;;;-23.86929;-6.4737387;23.377178;;801.0
987.0;879.3;;;;;;;;;;;;;;0.88662374;0.1429487;-0.1568041;;;;;801.0
987.0;886.7;;;;;;;;;;;;;;;;;-25.410473;-8.613849;23.617512;;810.6
987.0;886.7;;;;;;;;;;;;;;0.8883938;0.10174871;-0.20575579;;;;;810.6
987.0;886.7;;;;;;;;;;;;;;;;;-27.424694;-9.834589;24.254585;;810.6
987.0;886.7;;;;;;;;;;;;;;0.8822901;0.06872769;-0.24274422;;;;;810.6
987.0;886.7;;;;;;;;;;;;;;;;;-29.622028;-12.318034;25.078585;;820.3
987.0;886.7;;;;;;;;;;;;;;0.87618643;0.05121006;-0.27607045;;;;;820.3
987.0;886.7;;;;;;;;;;;;;;;;;-31.144138;-15.8276615;25.967436;;820.3
987.0;886.7;;;;;;;;;;;;;;0.877163;0.051515244;-0.30225533;;;;;820.3
987.0;886.7;;;;;;;;;;;;;;;;;-31.678215;-19.562365;26.974548;;830.0
987.0;886.7;;;;;;;;;;;;;;0.8806421;0.062379833;-0.3233131;;;;;830.0
987.0;886.7;;;;;;;;;;;;;;;;;-31.228065;-23.239845;27.691732;;830.0
987.0;886.7;;;;;;;;;;;;;;0.8869289;0.0872219;-0.33283487;;;;;830.0
1050.0;939.6;;;;;;;;;;;;;;;;;-30.011139;-26.760918;28.44325;;839.5
1050.0;939.6;;;;;;;;;;;;;;0.89834285;0.123661004;-0.34705648;;;;;839.5
1050.0;939.6;;;;;;;;;;;;;;;;;-29.049807;-28.298288;28.603474;;839.5
1050.0;939.6;;;;;;;;;;;;;;0.91055024;0.16864528;-0.35602894;;;;;839.5
1050.0;939.6;;;;;;;;;;;;;;;;;-28.824732;-27.890102;28.523361;;849.1
1050.0;939.6;;;;;;;;;;;;;;0.92306286;0.19898069;-0.3521836;;;;;849.1
1050.0;939.6;;;;;;;;;;;;;;;;;-29.40077;-24.826807;27.794731;;849.1
1050.0;939.6;;;;;;;;;;;;;;0.92501605;0.24298838;-0.316599;;;;;849.1
1050.0;939.6;;;;;;;;;;;;;;;;;-31.640064;-20.04303;27.916805;;858.8
1050.0;939.6;;;;;;;;;;;;;;0.9135411;0.2557451;-0.25629443;;;;;858.8
1050.0;939.6;;;;;;;;;;;;;;;;;-34.871212;-15.373699;27.93588;;858.8
1050.0;939.6;;;;;;;;;;;;;;0.8932157;0.25189978;-0.18256173;;;;;858.8
1050.0;940.4;;;;;;;;;;;;;;;;;-38.342693;-11.825923;27.684103;;868.5
1050.0;940.4;;;;;;;;;;;;;;0.8683737;0.22107609;-0.13464767;;;;;868.5
1050.0;940.4;;;;;;;;;;;;;;;;;-41.104618;-11.043886;26.764734;;868.5
1050.0;940.4;;;;;;;;;;;;;;0.8733787;0.19177832;-0.16614276;;;;;868.5
1050.0;940.4;;;;;;;;;;;;;;;;;-42.275764;-10.677664;25.395214;;878.1
1050.0;940.4;;;;;;;;;;;;;;0.8971221;0.16211432;-0.23670156;;;;;878.1
1050.0;940.4;;;;;;;;;;;;;;;;;-39.963985;-11.223182;23.674734;;878.1
1050.0;940.4;;;;;;;;;;;;;;0.92568743;0.14319284;-0.31037325;;;;;878.1
1050.0;940.4;;;;;;;;;;;;;;;;;-33.852657;-13.626515;22.453993;;887.7
1050.0;940.4;;;;;;;;;;;;;;0.94247264;0.11548204;-0.36103398;;;;;887.7
1050.0;940.4;;;;;;;;;;;;;;;;;-26.356548;-18.127995;21.614735;;887.7
1050.0;940.4;;;;;;;;;;;;;;0.95669425;0.07696768;-0.40449232;;;;;887.7
1110.0;1000.2;;;;;;;;;;;;;;;;;-19.577623;-21.263771;20.970032;;897.4
1110.0;1000.2;;;;;;;;;;;;;;0.9740898;0.033265177;-0.43098238;;;;;897.4
1110.0;1000.2;;;;;;;;;;;;;;;;;-14.442884;-22.52266;20.06592;;897.4
1110.0;1000.2;;;;;;;;;;;;;;0.9742119;0.013855403;-0.43556017;;;;;897.4
1110.0;1000.2;;;;;;;;;;;;;;;;;-11.936552;-21.958069;19.096958;;907.0
1110.0;1000.2;;;;;;;;;;;;;;0.95736563;0.014343699;-0.4140141;;;;;907.0
1110.0;1000.2;;;;;;;;;;;;;;;;;-12.10059;-20.57329;18.097477;;907.0
1110.0;1000.2;;;;;;;;;;;;;;0.9209876;0.0253914;-0.37794122;;;;;907.0
1110.0;1000.2;;;;;;;;;;;;;;;;;-14.347514;-19.440292;16.556292;;916.7
1110.0;1000.2;;;;;;;;;;;;;;0.8960845;0.051759392;-0.3352153;;;;;916.7
1110.0;1000.2;;;;;;;;;;;;;;;;;-16.762293;-18.841366;14.625996;;916.7
1110.0;1000.2;;;;;;;;;;;;;;0.887051;0.09118931;-0.29865414;;;;;916.7
1110.0;1001.0;;;;;;;;;;;;;;;;;-18.253883;-18.162329;46722;;926.4
1110.0;1001.0;;;;;;;;;;;;;;0.8834498;0.12591937;-0.27314067;;;;;926.4
1110.0;1001.0;;;;;;;;;;;;;;;;;-18.601032;-16.342663;10.284738;;926.4
1110.0;1001.0;;;;;;;;;;;;;;0.8818629;0.15784173;-0.24903104;;;;;926.4
1110.0;1001.0;;;;;;;;;;;;;;;;;-18.421736;-13.756218;7.9958496;;935.9
1110.0;1001.0;;;;;;;;;;;;;;0.8816187;0.16663106;-0.23041475;;;;;935.9
1110.0;1001.0;;;;;;;;;;;;;;;;;-18.524736;-9.81933;5.4437394;;935.9
1110.0;1001.0;;;;;;;;;;;;;;0.89657277;0.17664114;-0.20557268;;;;;935.9
1110.0;1001.0;;;;;;;;;;;;;;;;;-19.829401;-3.1662953;3.0632956;;945.6
1110.0;1001.0;;;;;;;;;;;;;;0.8830836;0.1485641;-0.13269448;;;;;945.6
1110.0;1001.0;;;;;;;;;;;;;;;;;-22.148808;-0.09155553;0.84307384;;945.6
1110.0;1001.0;;;;;;;;;;;;;;0.84163946;0.12787256;-0.13739432;;;;;945.6
1230.0;1060.1;;;;;;;;;;;;;;;;;-24.857325;-0.9155553;-1.0071108;;955.3
1230.0;1060.1;;;;;;;;;;;;;;0.81099886;0.12964264;-0.23187964;;;;;955.3
1230.0;1060.1;;;;;;;;;;;;;;;;;-25.238808;0.54551834;-2.685629;;955.3
1230.0;1060.1;;;;;;;;;;;;;;0.77877134;0.17139195;-0.2535478;;;;;955.3
1230.0;1060.1;;;;;;;;;;;;;;;;;-24.006622;0.07629627;-3.8148136;;964.9
1230.0;1060.1;;;;;;;;;;;;;;0.74544513;0.2141789;-0.22693564;;;;;964.9
1230.0;1060.1;;;;;;;;;;;;;;;;;-23.47255;-7.740257;-3.9445176;;964.9
1230.0;1060.1;;;;;;;;;;;;;;0.743614;0.21893978;-0.27167577;;;;;964.9
1230.0;1060.1;;;;;;;;;;;;;;;;;-24.304178;-16.644033;-2.643666;;974.5
1230.0;1060.1;;;;;;;;;;;;;;0.7900021;0.18970306;-0.30951872;;;;;974.5
1230.0;1060.1;;;;;;;;;;;;;;;;;-25.856808;-21.485031;-0.4158147;;974.5
1230.0;1060.1;;;;;;;;;;;;;;0.8335826;0.15765862;-0.28235725;;;;;974.5
1230.0;1067.7;;;;;;;;;;;;;;;;;-28.836176;-25.231176;1.9837031;;984.2
1230.0;1067.7;;;;;;;;;;;;;;0.8747215;0.1530198;-0.25244913;;;;;984.2
1230.0;1067.7;;;;;;;;;;;;;;;;;-31.426434;-27.25303;4.1657767;;984.2
1230.0;1067.7;;;;;;;;;;;;;;0.91451764;0.17487106;-0.24420911;;;;;984.2
1230.0;1067.7;;;;;;;;;;;;;;;;;-32.12836;-27.43614;6.2715535;;993.8
1230.0;1067.7;;;;;;;;;;;;;;0.9368572;0.21619312;-0.2496414;;;;;993.8
1230.0;1067.7;;;;;;;;;;;;;;;;;-32.07114;-26.749474;8.793145;;993.8
1230.0;1067.7;;;;;;;;;;;;;;0.96444595;0.2414014;-0.24182867;;;;;993.8
1230.0;1067.7;;;;;;;;;;;;;;;;;-31.979584;-25.788141;11.864071;;1003.5
1230.0;1067.7;;;;;;;;;;;;;;0.9934996;0.2405469;-0.20905179;;;;;1003.5
1230.0;1067.7;;;;;;;;;;;;;;;;;-31.830807;-24.426252;15.568254;;1003.5
1230.0;1067.7;;;;;;;;;;;;;;1.0215766;0.21167639;-0.14441359;;;;;1003.5
1232.0;1120.7;;;;;;;;;;;;;;;;;-31.540878;-23.464918;19.83703;;1013.2
1232.0;1120.7;;;;;;;;;;;;;;1.0491654;0.14697714;-0.08709983;;;;;1013.2
1232.0;1120.7;;;;;;;;;;;;;;;;;-31.071657;-22.31666;24.39955;;1013.2
1232.0;1120.7;;;;;;;;;;;;;;1.065096;0.06024354;-0.055787835;;;;;1013.2
1232.0;1120.7;;;;;;;;;;;;;;;;;-30.014954;-20.68392;27.84051;;1022.7
1232.0;1120.7;;;;;;;;;;;;;;1.0713217;-0.0270394;-0.039857175;;;;;1022.7
1232.0;1120.7;;;;;;;;;;;;;;;;;-28.145695;-19.791252;30.060732;;1022.7
1232.0;1120.7;;;;;;;;;;;;;;1.0581988;-0.10211493;-0.06060976;;;;;1022.7
1232.0;1120.7;;;;;;;;;;;;;;;;;-25.070955;-20.187994;31.20136;;1032.3
1232.0;1120.7;;;;;;;;;;;;;;1.0275582;-0.17169714;-0.13379315;;;;;1032.3
1232.0;1120.7;;;;;;;;;;;;;;;;;-20.687735;-19.745476;31.983398;;1032.3
1232.0;1120.7;;;;;;;;;;;;;;0.98965424;-0.24146245;-0.20502335;;;;;1032.3
1233.0;1121.6;;;;;;;;;;;;;;;;;-15.198217;-15.888699;32.059696;;1042.0
1233.0;1121.6;;;;;;;;;;;;;;0.9668874;-0.26850185;-0.15039521;;;;;1042.0
1233.0;1121.6;;;;;;;;;;;;;;;;;-9.487442;-11.825923;31.697289;;1042.0
1233.0;1121.6;;;;;;;;;;;;;;0.9668874;-0.22614215;0.018738365;;;;;1042.0
1233.0;1121.6;;;;;;;;;;;;;;;;;-4.3069243;-13.832514;31.33488;;1051.7
1233.0;1121.6;;;;;;;;;;;;;;1.0278634;-0.16736351;0.009033479;;;;;1051.7
1233.0;1121.6;;;;;;;;;;;;;;;;;0.57222205;-16.170996;31.281471;;1051.7
1233.0;1121.6;;;;;;;;;;;;;;1.1123387;-0.14386426;-0.15240943;;;;;1051.7
1233.0;1121.6;;;;;;;;;;;;;;;;;3.4905546;-12.123478;31.52562;;1061.3
1233.0;1121.6;;;;;;;;;;;;;;1.1529282;-0.1525315;-0.23920408;;;;;1061.3
1233.0;1121.6;;;;;;;;;;;;;;;;;5.352184;-1.9226661;31.777397;;1061.3
1233.0;1121.6;;;;;;;;;;;;;;1.129368;-0.13861507;-0.22363964;;;;;1061.3
1233.0;1127.3;;;;0.0;0.0;0.0;;;;;;;;;;;;;;;
1233.0;1127.3;;;;0.057991035;-0.2803116;0.13440324;;;;;;;;;;;;;;;
1233.0;1127.3;;;;0.08864594;-0.81917584;0.2300606;;;;;;;;;;;;;;;
1233.0;1127.3;;;;0.087615974;-0.84155667;0.20858005;;;;;;;;;;;;;;;
1233.0;1127.3;;;;0.09093476;-0.84785473;0.20364764;;;;;;;;;;;;;;;
1233.0;1137.3;;;;0.08986283;-0.85468304;0.20061877;;;;;;;;;;;;;;;
1233.0;1137.3;;;;0.086925514;-0.8627893;0.19597247;;;;;;;;;;;;;;;
1233.0;1137.3;;;;0.085075386;-0.87235653;0.19055179;;;;;;;;;;;;;;;
1233.0;1137.3;;;;0.08373643;-0.88235104;0.18567659;;;;;;;;;;;;;;;
1233.0;1137.3;;;;0.083751686;-0.8915254;0.1810341;;;;;;;;;;;;;;;
1234.0;1138.6;57516;57400;14613;;;;;;;;;;;;;;;;;;
1234.0;1147.3;;;;0.07982255;-0.8990823;0.17821886;;;;;;;;;;;;;;;
1234.0;1147.3;;;;0.08085633;-0.90597546;0.1754532;;;;;;;;;;;;;;;
1234.0;1147.3;;;;0.087055214;-0.91215146;0.1727791;;;;;;;;;;;;;;;
1234.0;1147.3;;;;0.097274795;-0.91634;0.17096712;;;;;;;;;;;;;;;
1234.0;1147.3;;;;0.098735824;-0.9177934;0.17092516;;;;;;;;;;;;;;;
1234.0;1157.4;;;;0.09750749;-0.91677105;0.17142488;;;;;;;;;;;;;;;
1234.0;1157.4;;;;0.10318376;-0.9160577;0.16810228;;;;;;;;;;;;;;;
1234.0;1157.4;;;;0.103591934;-0.913273;0.16844942;;;;;;;;;;;;;;;
1234.0;1157.4;;;;0.101570144;-0.9089509;0.16861345;;;;;;;;;;;;;;;
1234.0;1157.4;;;;0.10196306;-0.9042779;0.16635515;;;;;;;;;;;;;;;
1234.0;1158.7;73814;73821;14607;;;;;;;;;;;;;;;;;;
1234.0;1165.1;;;;;;;;;;;;;0;;;;;;;;
1234.0;1165.1;;;;;;;;;;;;;0;;;;;;;;
1234.0;1165.1;;;;;;;;;;;;;-1;;;;;;;;
1234.0;1165.1;;;;;;;;;;;;;-2;;;;;;;;
1234.0;1165.1;;;;;;;;;;;;;-3;;;;;;;;
1234.0;1167.5;;;;0.10515596;-0.9003297;0.1637993;;;;;;;;;;;;;;;
1234.0;1167.5;;;;0.10689928;-0.8943025;0.16324998;;;;;;;;;;;;;;;
1234.0;1167.5;;;;0.10683824;-0.88788617;0.1624756;;;;;;;;;;;;;;;
1234.0;1167.5;;;;0.10691835;-0.88201153;0.16116716;;;;;;;;;;;;;;;
1234.0;1167.5;;;;0.109577194;-0.8773614;0.15929414;;;;;;;;;;;;;;;
1240.0;1177.6;;;;0.11550905;-0.8745767;0.15563966;;;;;;;;;;;;;;;
1240.0;1177.6;;;;0.1171837;-0.8716241;0.15479662;;;;;;;;;;;;;;;
1240.0;1177.6;;;;0.11690141;-0.8694192;0.1539345;;;;;;;;;;;;;;;
1240.0;1177.6;;;;0.114353195;-0.8679887;0.1529999;;;;;;;;;;;;;;;
1240.0;1177.6;;;;0.113899246;-0.86831295;0.15136339;;;;;;;;;;;;;;;
1240.0;1179.0;90194;90213;14616;;;;;;;;;;;;;;;;;;
1240.0;1180.8;;;;;;;;;;;;;;;;;7.209998;8.491775;31.594288;;1070.9
1240.0;1180.8;;;;;;;;;;;;;;1.0463576;-0.09613331;-0.1734672;;;;;1070.9
1240.0;1180.8;;;;;;;;;;;;;;;;;7.4694057;12.813959;31.23188;;1070.9
1240.0;1180.8;;;;;;;;;;;;;;0.95181125;-0.040711693;-0.16235848;;;;;1070.9
1240.0;1180.8;;;;;;;;;;;;;;;;;4.6731467;12.543107;30.659657;;1080.5
1240.0;1180.8;;;;;;;;;;;;;;0.88106936;0.013611255;-0.1398358;;;;;1080.5
1240.0;1180.8;;;;;;;;;;;;;;;;;-1.3351848;9.968108;30.121769;;1080.5
1240.0;1180.8;;;;;;;;;;;;;;0.8641621;0.058900725;-0.0971099;;;;;1080.5
1240.0;1180.8;;;;;;;;;;;;;;;;;-8.079776;7.2862945;29.812769;;1090.1
1240.0;1180.8;;;;;;;;;;;;;;0.8753319;0.09253212;-0.09399701;;;;;1090.1
1240.0;1180.8;;;;;;;;;;;;;;;;;-12.657552;5.996887;29.473251;;1090.1
1240.0;1180.8;;;;;;;;;;;;;;0.8966338;0.12408826;-0.12317271;;;;;1090.1
1242.0;1181.6;;;;;;;;;;;;;;;;;-15.053254;4.676962;29.152807;;1099.7
1242.0;1181.6;;;;;;;;;;;;;;0.92641985;0.14606158;-0.18213446;;;;;1099.7
1242.0;1181.6;;;;;;;;;;;;;;;;;-15.46144;3.0098882;29.087955;;1099.7
1242.0;1181.6;;;;;;;;;;;;;;0.9526658;0.14477982;-0.2580645;;;;;1099.7
1242.0;1181.6;;;;;;;;;;;;;;;;;-14.557329;1.8349254;29.59151;;1109.3
1242.0;1181.6;;;;;;;;;;;;;;0.9613941;0.12195197;-0.3218482;;;;;1109.3
1242.0;1181.6;;;;;;;;;;;;;;;;;-12.943663;1.4687033;30.396435;;1109.3
1242.0;1181.6;;;;;;;;;;;;;;0.9468673;0.10095523;-0.35163426;;;;;1109.3
1242.0;1181.6;;;;;;;;;;;;;;;;;-11.215552;-0.32044435;31.384472;;1118.9
1242.0;1181.6;;;;;;;;;;;;;;0.9310587;0.10834071;-0.37141025;;;;;1118.9
1242.0;1181.6;;;;;;;;;;;;;;;;;-9.472182;-3.1090732;32.540363;;1118.9
1242.0;1181.6;;;;;;;;;;;;;;0.9053621;0.10113834;-0.38026062;;;;;1118.9
1242.0;1187.6;;;;0.114799514;-0.86867917;0.1480713;;;;;;;;;;;;;;;
1242.0;1187.6;;;;0.1156273;-0.87041867;0.14768983;;;;;;;;;;;;;;;
1242.0;1187.6;;;;0.11581804;-0.87070096;0.14751054;;;;;;;;;;;;;;;
1242.0;1187.6;;;;0.1170273;-0.87041485;0.14612581;;;;;;;;;;;;;;;
1242.0;1187.6;;;;0.11646654;-0.87113965;0.14448167;;;;;;;;;;;;;;;
1242.0;1197.7;;;;0.113483444;-0.87140286;0.14422227;;;;;;;;;;;;;;;
1242.0;1197.7;;;;0.11116029;-0.87163174;0.14276887;;;;;;;;;;;;;;;
1242.0;1197.7;;;;0.11433412;-0.87249005;0.14063264;;;;;;;;;;;;;;;
1242.0;1197.7;;;;0.11653139;-0.87254727;0.14106752;;;;;;;;;;;;;;;
1242.0;1197.7;;;;0.12281801;-0.87306225;0.13771822;;;;;;;;;;;;;;;
1242.0;1199.1;106751;106558;14617;;;;;;;;;;;;;;;;;;
1465.0;1205.5;;;;;;;;;;;;;-8;;;;;;;;
1465.0;1205.5;;;;;;;;;;;;;-5;;;;;;;;
1465.0;1205.5;;;;;;;;;;;;;-7;;;;;;;;
1465.0;1205.5;;;;;;;;;;;;;-23;;;;;;;;
1465.0;1205.5;;;;;;;;;;;;;-13;;;;;;;;
1465.0;1207.7;;;;0.12714006;-0.8716508;0.13980104;;;;;;;;;;;;;;;
1465.0;1207.7;;;;0.12965395;-0.869465;0.1406746;;;;;;;;;;;;;;;
1465.0;1207.7;;;;0.12504579;-0.868435;0.13891603;;;;;;;;;;;;;;;
1465.0;1207.7;;;;0.12614824;-0.86545956;0.1438141;;;;;;;;;;;;;;;
1465.0;1207.7;;;;0.1307335;-0.8616601;0.14409639;;;;;;;;;;;;;;;
1465.0;1217.4;;;;0.13706209;-0.8576776;0.14470293;;;;;;;;;;;;;;;
1465.0;1217.4;;;;0.14359666;-0.8537141;0.14137651;;;;;;;;;;;;;;;
1465.0;1217.4;;;;0.14925767;-0.84970486;0.13848878;;;;;;;;;;;;;;;
1465.0;1217.4;;;;0.151989;-0.8443948;0.13967516;;;;;;;;;;;;;;;
1465.0;1217.4;;;;0.1553116;-0.8390695;0.14061357;;;;;;;;;;;;;;;
1465.0;1218.9;123085;123039;14617;;;;;;;;;;;;;;;;;;
1465.0;1227.5;;;;0.15752794;-0.83306134;0.14140321;;;;;;;;;;;;;;;
1465.0;1227.5;;;;0.16045381;-0.827469;0.14208223;;;;;;;;;;;;;;;
1465.0;1227.5;;;;0.16409303;-0.82112515;0.14294054;;;;;;;;;;;;;;;
1465.0;1227.5;;;;0.16651537;-0.8138505;0.14286806;;;;;;;;;;;;;;;
1465.0;1227.5;;;;0.1689911;-0.8068162;0.14236452;;;;;;;;;;;;;;;
1467.0;1237.6;;;;0.17113878;-0.79991543;0.14281084;;;;;;;;;;;;;;;
1467.0;1237.6;;;;0.1737671;-0.79270566;0.1430626;;;;;;;;;;;;;;;
1467.0;1237.6;;;;0.17621233;-0.7858926;0.1428261;;;;;;;;;;;;;;;
1467.0;1237.6;;;;0.17923738;-0.7780725;0.14355089;;;;;;;;;;;;;;;
1467.0;1237.6;;;;0.18156435;-0.7707635;0.14421083;;;;;;;;;;;;;;;
1467.0;1239.1;139419;139379;14628;;;;;;;;;;;;;;;;;;
1467.0;1240.9;;;;;;;;;;;;;;;;;-7.736442;-6.0350356;33.40251;;1128.6
1467.0;1240.9;;;;;;;;;;;;;;0.8735618;0.08777124;-0.3615833;;;;;1128.6
1467.0;1240.9;;;;;;;;;;;;;;;;;-6.088443;-9.4073305;33.955654;;1128.6
1467.0;1240.9;;;;;;;;;;;;;;0.8578753;0.07428205;-0.34467605;;;;;1128.6
1467.0;1240.9;;;;;;;;;;;;;;;;;-4.791406;-11.6657;34.218876;;1138.1
1467.0;1240.9;;;;;;;;;;;;;;0.8678243;0.075014494;-0.34681234;;;;;1138.1
1467.0;1240.9;;;;;;;;;;;;;;;;;-4.222999;-11.246071;34.56984;;1138.1
1467.0;1240.9;;;;;;;;;;;;;;0.88283944;0.08856472;-0.34736168;;;;;1138.1
1467.0;1240.9;;;;;;;;;;;;;;;;;-5.3407393;-9.929959;35.096287;;1147.8
1467.0;1240.9;;;;;;;;;;;;;;0.9033479;0.08539079;-0.33167517;;;;;1147.8
1467.0;1240.9;;;;;;;;;;;;;;;;;-8.079776;-9.609516;35.763878;;1147.8
1467.0;1240.9;;;;;;;;;;;;;;0.93331707;0.069765314;-0.31354716;;;;;1147.8
1469.0;1242.1;;;;;;;;;;;;;;;;;-11.082033;-9.903256;36.202583;;1157.4
1469.0;1242.1;;;;;;;;;;;;;;0.96114993;0.038941618;-0.2908414;;;;;1157.4
1469.0;1242.1;;;;;;;;;;;;;;;;;-12.8711815;-9.92233;36.08051;;1157.4
1469.0;1242.1;;;;;;;;;;;;;;0.97933894;0.010193182;-0.2649617;;;;;1157.4
1469.0;1242.1;;;;;;;;;;;;;;;;;-12.524033;-9.132664;35.145878;;1167.0
1469.0;1242.1;;;;;;;;;;;;;;0.9867855;-0.016663106;-0.24225593;;;;;1167.0
1469.0;1242.1;;;;;;;;;;;;;;;;;-10.052033;-8.072146;33.5284;;1167.0
1469.0;1242.1;;;;;;;;;;;;;;0.9805597;-0.03875851;-0.24475844;;;;;1167.0
1469.0;1242.1;;;;;;;;;;;;;;;;;-5.874813;-7.1108127;31.613361;;1176.6
1469.0;1242.1;;;;;;;;;;;;;;0.9796442;-0.052552875;-0.2592242;;;;;1176.6
1469.0;1242.1;;;;;;;;;;;;;;;;;-0.4997406;-5.7298503;29.450363;;1176.6
1469.0;1242.1;;;;;;;;;;;;;;0.97579885;-0.054994356;-0.27228615;;;;;1176.6
1469.0;1245.3;;;;;;;;;;;;;-41;;;;;;;;
1469.0;1245.3;;;;;;;;;;;;;-26;;;;;;;;
1469.0;1245.3;;;;;;;;;;;;;-6;;;;;;;;
1469.0;1245.3;;;;;;;;;;;;;-171;;;;;;;;
1469.0;1245.3;;;;;;;;;;;;;44;;;;;;;;
1469.0;1247.5;;;;0.18276598;-0.76389706;0.14422227;;;;;;;;;;;;;;;
1469.0;1247.5;;;;0.18533327;-0.7567979;0.14484788;;;;;;;;;;;;;;;
1469.0;1247.5;;;;0.18709566;-0.74919134;0.14485551;;;;;;;;;;;;;;;
1469.0;1247.5;;;;0.1870537;-0.74119574;0.14556123;;;;;;;;;;;;;;;
1469.0;1247.5;;;;0.189621;-0.7343789;0.14650728;;;;;;;;;;;;;;;
1480.0;1257.5;;;;0.1923714;-0.7268258;0.14720918;;;;;;;;;;;;;;;
1480.0;1257.5;;;;0.19385913;-0.7184258;0.14748766;;;;;;;;;;;;;;;
1480.0;1257.5;;;;0.19508746;-0.7109757;0.1480713;;;;;;;;;;;;;;;
1480.0;1257.5;;;;0.19826129;-0.7032624;0.14910509;;;;;;;;;;;;;;;
1480.0;1257.5;;;;0.20121387;-0.69553;0.14953233;;;;;;;;;;;;;;;
1480.0;1259.1;155815;155829;14627;;;;;;;;;;;;;;;;;;
1480.0;1267.6;;;;0.2043877;-0.6879731;0.14958574;;;;;;;;;;;;;;;
1480.0;1267.6;;;;0.20650867;-0.67988974;0.1498604;;;;;;;;;;;;;;;
1480.0;1267.6;;;;0.20788577;-0.6724625;0.15101244;;;;;;;;;;;;;;;
1480.0;1267.6;;;;0.20910648;-0.66541296;0.15247346;;;;;;;;;;;;;;;
1480.0;1267.6;;;;0.21237949;-0.6590386;0.15385439;;;;;;;;;;;;;;;
1480.0;1277.7;;;;0.21519855;-0.6522179;0.15615465;;;;;;;;;;;;;;;
1480.0;1277.7;;;;0.21711352;-0.6463128;0.15786363;;;;;;;;;;;;;;;
1480.0;1277.7;;;;0.21856311;-0.6403542;0.15978624;;;;;;;;;;;;;;;
1480.0;1277.7;;;;0.21905902;-0.6346436;0.16318895;;;;;;;;;;;;;;;
1480.0;1277.7;;;;0.21899036;-0.6289559;0.16798402;;;;;;;;;;;;;;;
1480.0;1279.4;172180;172225;14642;;;;;;;;;;;;;;;;;;
1480.0;1285.7;;;;;;;;;;;;;454;;;;;;;;
1480.0;1285.7;;;;;;;;;;;;;-307;;;;;;;;
1480.0;1285.7;;;;;;;;;;;;;-1226;;;;;;;;
1480.0;1285.7;;;;;;;;;;;;;935;;;;;;;;
1480.0;1285.7;;;;;;;;;;;;;6027;;;;;;;;
1484.0;1287.8;;;;0.21920016;-0.6242524;0.17184831;;;;;;;;;;;;;;;
1484.0;1287.8;;;;0.22008899;-0.619896;0.17498781;;;;;;;;;;;;;;;
1484.0;1287.8;;;;0.22002032;-0.61585623;0.1775818;;;;;;;;;;;;;;;
1484.0;1287.8;;;;0.21997836;-0.61142737;0.18099977;;;;;;;;;;;;;;;
1484.0;1287.8;;;;0.22071078;-0.60729986;0.1836815;;;;;;;;;;;;;;;
1484.0;1297.9;;;;0.22145084;-0.6037789;0.18579866;;;;;;;;;;;;;;;
1484.0;1297.9;;;;0.22287372;-0.60065466;0.18881229;;;;;;;;;;;;;;;
1484.0;1297.9;;;;0.22462848;-0.5985642;0.19257358;;;;;;;;;;;;;;;
1484.0;1297.9;;;;0.22496417;-0.596798;0.19588855;;;;;;;;;;;;;;;
1484.0;1297.9;;;;0.22609714;-0.59621435;0.20016482;;;;;;;;;;;;;;;
1484.0;1299.7;188549;188550;14652;;;;;;;;;;;;;;;;;;
1484.0;1301.4;;;;;;;;;;;;;;;;;5.413221;-4.226814;27.432323;;1186.2
1484.0;1301.4;;;;;;;;;;;;;;0.9737236;-0.043946654;-0.28125858;;;;;1186.2
1484.0;1301.4;;;;;;;;;;;;;;;;;11.15833;-3.0671103;25.822474;;1186.2
1484.0;1301.4;;;;;;;;;;;;;;0.9721366;-0.02435377;-0.2923673;;;;;1186.2
1484.0;1301.4;;;;;;;;;;;;;;;;;15.289773;-1.9226661;24.498734;;1195.8
1484.0;1301.4;;;;;;;;;;;;;;0.96609396;9.765923E-4;-0.28107548;;;;;1195.8
1484.0;1301.4;;;;;;;;;;;;;;;;;17.746513;-1.6098514;23.255104;;1195.8
1484.0;1301.4;;;;;;;;;;;;;;0.9564501;0.027588733;-0.2682577;;;;;1195.8
1484.0;1301.4;;;;;;;;;;;;;;;;;18.532366;-1.8578143;22.041994;;1205.4
1484.0;1301.4;;;;;;;;;;;;;;0.9512009;0.056031983;-0.250618;;;;;1205.4
1484.0;1301.4;;;;;;;;;;;;;;;;;17.868587;-2.231666;20.939512;;1205.4
1484.0;1301.4;;;;;;;;;;;;;;0.9472335;0.076113164;-0.24164556;;;;;1205.4
1486.0;1302.2;;;;;;;;;;;;;;;;;16.277811;-2.170629;19.997253;;1214.9
1486.0;1302.2;;;;;;;;;;;;;;0.9383831;0.08520768;-0.22632527;;;;;1214.9
1486.0;1302.2;;;;;;;;;;;;;;;;;13.6875515;-1.9760735;19.096958;;1214.9
1486.0;1302.2;;;;;;;;;;;;;;0.9265419;0.08740501;-0.21179846;;;;;1214.9
1486.0;1302.2;;;;;;;;;;;;;;;;;10.101626;-1.6022217;18.341625;;1224.6
1486.0;1302.2;;;;;;;;;;;;;;0.9137852;0.08087405;-0.21326335;;;;;1224.6
1486.0;1302.2;;;;;;;;;;;;;;;;;6.733146;-1.2512589;17.69692;;1224.6
1486.0;1302.2;;;;;;;;;;;;;;0.90029603;0.068666644;-0.22650838;;;;;1224.6
1486.0;1302.2;;;;;;;;;;;;;;;;;4.2649617;-0.9727775;17.139957;;1234.2
1486.0;1302.2;;;;;;;;;;;;;;0.88399917;0.05389569;-0.24323252;;;;;1234.2
1486.0;1302.2;;;;;;;;;;;;;;;;;2.494888;-1.4267403;16.846218;;1234.2
1486.0;1302.2;;;;;;;;;;;;;;0.87295145;0.037598804;-0.2562334;;;;;1234.2
1486.0;1307.9;;;;0.22744754;-0.59621435;0.20442584;;;;;;;;;;;;;;;
1486.0;1307.9;;;;0.22659686;-0.5970803;0.20801547;;;;;;;;;;;;;;;
1486.0;1307.9;;;;0.22671893;-0.5990601;0.21166614;;;;;;;;;;;;;;;
1486.0;1307.9;;;;0.23121646;-0.6031609;0.21440509;;;;;;;;;;;;;;;
1486.0;1307.9;;;;0.23277286;-0.6075211;0.21695712;;;;;;;;;;;;;;;
1490.0;1316.3;;;;;;;;;;;;;;;;;1.6136662;-2.4643695;17.010254;;1243.9
1490.0;1316.3;;;;;;;;;;;;;;0.86721396;0.016113773;-0.26404613;;;;;1243.9
1490.0;1316.3;;;;;;;;;;;;;;;;;1.5488143;-3.624073;17.433699;;1243.9
1490.0;1316.3;;;;;;;;;;;;;;0.8682516;-0.005981628;-0.26508376;;;;;1243.9
1490.0;1316.3;;;;;;;;;;;;;;;;;2.3079624;-4.9401836;18.086031;;1253.6
1490.0;1316.3;;;;;;;;;;;;;;0.86983854;-0.022217475;-0.25818658;;;;;1253.6
1490.0;1316.3;;;;;;;;;;;;;;;;;3.5554063;-6.576739;18.875698;;1253.6
1490.0;1316.3;;;;;;;;;;;;;;0.87874997;-0.034546953;-0.25379193;;;;;1253.6
1490.0;1316.3;;;;;;;;;;;;;;;;;4.696036;-8.20185;19.798882;;1263.1
1490.0;1316.3;;;;;;;;;;;;;;0.89309365;-0.04956206;-0.25684378;;;;;1263.1
1490.0;1316.3;;;;;;;;;;;;;;;;;5.7985168;-9.395886;20.725883;;1263.1
1490.0;1316.3;;;;;;;;;;;;;;0.906888;-0.0601825;-0.26221505;;;;;1263.1
1490.0;1317.8;;;;0.2305527;-0.6121903;0.2201195;;;;;;;;;;;;;;;
1490.0;1317.8;;;;0.23118213;-0.6179696;0.22312167;;;;;;;;;;;;;;;
1490.0;1317.8;;;;0.24032596;-0.6244431;0.22518924;;;;;;;;;;;;;;;
1490.0;1317.8;;;;0.24736407;-0.63092047;0.22703555;;;;;;;;;;;;;;;
1490.0;1317.8;;;;0.24704745;-0.6378022;0.23075488;;;;;;;;;;;;;;;
1490.0;1319.6;204955;204968;14641;;;;;;;;;;;;;;;;;;
1490.0;1325.9;;;;;;;;;;;;;9497;;;;;;;;
1490.0;1325.9;;;;;;;;;;;;;9131;;;;;;;;
1490.0;1325.9;;;;;;;;;;;;;8306;;;;;;;;
1490.0;1325.9;;;;;;;;;;;;;10963;;;;;;;;
1490.0;1325.9;;;;;;;;;;;;;15620;;;;;;;;
1492.0;1327.8;;;;0.24654391;-0.64402777;0.23413089;;;;;;;;;;;;;;;
1492.0;1327.8;;;;0.24650577;-0.65123755;0.23840716;;;;;;;;;;;;;;;
1492.0;1327.8;;;;0.24731448;-0.65873724;0.24203494;;;;;;;;;;;;;;;
1492.0;1327.8;;;;0.24852756;-0.6660424;0.24542621;;;;;;;;;;;;;;;
1492.0;1327.8;;;;0.25003436;-0.67356116;0.24793628;;;;;;;;;;;;;;;
1492.0;1337.9;;;;0.2506905;-0.6809502;0.24945834;;;;;;;;;;;;;;;
1492.0;1337.9;;;;0.2518082;-0.6883431;0.25097278;;;;;;;;;;;;;;;
1492.0;1337.9;;;;0.25354388;-0.695633;0.25377658;;;;;;;;;;;;;;;
1492.0;1337.9;;;;0.25592807;-0.70291907;0.2580109;;;;;;;;;;;;;;;
1492.0;1337.9;;;;0.25733188;-0.7100106;0.2615166;;;;;;;;;;;;;;;
1492.0;1339.7;221290;221373;14634;;;;;;;;;;;;;;;;;;
1492.0;1348.0;;;;0.25854877;-0.7170945;0.26445773;;;;;;;;;;;;;;;
1492.0;1348.0;;;;0.2596703;-0.72331625;0.26747516;;;;;;;;;;;;;;;
1492.0;1348.0;;;;0.26004413;-0.7295342;0.27072147;;;;;;;;;;;;;;;
1492.0;1348.0;;;;0.25979617;-0.7357865;0.27372745;;;;;;;;;;;;;;;
1492.0;1348.0;;;;0.2594147;-0.7417336;0.27644733;;;;;;;;;;;;;;;
1492.0;1358.1;;;;0.25836185;-0.7478371;0.27966312;;;;;;;;;;;;;;;
1492.0;1358.1;;;;0.25690463;-0.75307095;0.28389362;;;;;;;;;;;;;;;
1492.0;1358.1;;;;0.25494388;-0.7585794;0.28797916;;;;;;;;;;;;;;;
1492.0;1358.1;;;;0.25260547;-0.76402676;0.29286578;;;;;;;;;;;;;;;
1492.0;1358.1;;;;0.249733;-0.7694856;0.29822543;;;;;;;;;;;;;;;
1494.0;1360.0;237790;237770;14635;;;;;;;;;;;;;;;;;;
1494.0;1362.0;;;;;;;;;;;;;;;;;6.7445908;-9.926145;21.820736;;1272.8
1494.0;1362.0;;;;;;;;;;;;;;0.91994995;-0.073549606;-0.26075014;;;;;1272.8
1494.0;1362.0;;;;;;;;;;;;;;;;;7.3816648;-10.059664;22.694326;;1272.8
1494.0;1362.0;;;;;;;;;;;;;;0.9341105;-0.08233894;-0.2535478;;;;;1272.8
1494.0;1362.0;;;;;;;;;;;;;;;;;8.1331835;-9.659109;23.430586;;1282.5
1494.0;1362.0;;;;;;;;;;;;;;0.9486984;-0.08862575;-0.2482986;;;;;1282.5
1494.0;1362.0;;;;;;;;;;;;;;;;;9.224219;-8.552812;23.911253;;1282.5
1494.0;1362.0;;;;;;;;;;;;;;0.9648732;-0.08966338;-0.24134037;;;;;1282.5
1494.0;1362.0;;;;;;;;;;;;;;;;;10.948516;-6.9277015;24.056215;;1292.1
1494.0;1362.0;;;;;;;;;;;;;;0.9784234;-0.087710194;-0.23932615;;;;;1292.1
1494.0;1362.0;;;;;;;;;;;;;;;;;13.531144;-5.0660725;23.998993;;1292.1
1494.0;1362.0;;;;;;;;;;;;;;0.9869686;-0.08362072;-0.24073;;;;;1292.1
1494.0;1366.2;;;;;;;;;;;;;17255;;;;;;;;
1494.0;1366.2;;;;;;;;;;;;;14957;;;;;;;;
1494.0;1366.2;;;;;;;;;;;;;12121;;;;;;;;
1494.0;1366.2;;;;;;;;;;;;;10608;;;;;;;;
1494.0;1366.2;;;;;;;;;;;;;9825;;;;;;;;
1494.0;1368.1;;;;0.24622348;-0.7749635;0.30349734;;;;;;;;;;;;;;;
1494.0;1368.1;;;;0.24348453;-0.7797586;0.3083878;;;;;;;;;;;;;;;
1494.0;1368.1;;;;0.2408829;-0.7845384;0.31367877;;;;;;;;;;;;;;;
1494.0;1368.1;;;;0.23751071;-0.789734;0.31862643;;;;;;;;;;;;;;;
1494.0;1368.1;;;;0.23489764;-0.79428875;0.3238869;;;;;;;;;;;;;;;
1495.0;1376.7;;;;;;;;;;;;;;;;;16.96829;-3.0404067;23.625141;;1301.7
1495.0;1376.7;;;;;;;;;;;;;;0.9871517;-0.07397687;-0.24085207;;;;;1301.7
1495.0;1376.7;;;;;;;;;;;;;;;;;20.718252;-1.0338145;23.087252;;1301.7
1495.0;1376.7;;;;;;;;;;;;;;0.98226875;-0.05999939;-0.23041475;;;;;1301.7
1495.0;1376.7;;;;;;;;;;;;;;;;;24.285105;0.6904813;22.415844;;1311.3
1495.0;1376.7;;;;;;;;;;;;;;0.9745781;-0.03875851;-0.2153386;;;;;1311.3
1495.0;1376.7;;;;;;;;;;;;;;;;;27.26829;1.6098514;21.71392;;1311.3
1495.0;1376.7;;;;;;;;;;;;;;0.9642018;-0.014282662;-0.20899075;;;;;1311.3
1495.0;1376.7;;;;;;;;;;;;;;;;;29.70977;1.5030366;21.107365;;1320.9
1495.0;1376.7;;;;;;;;;;;;;;0.96279794;0.012329478;-0.21472824;;;;;1320.9
1495.0;1376.7;;;;;;;;;;;;;;;;;31.735435;1.2359996;20.523697;;1320.9
1495.0;1376.7;;;;;;;;;;;;;;0.96353036;0.036805324;-0.22693564;;;;;1320.9
1495.0;1378.0;;;;0.23276141;-0.79870236;0.3283806;;;;;;;;;;;;;;;
1495.0;1378.0;;;;0.23079684;-0.80313504;0.33378604;;;;;;;;;;;;;;;
1495.0;1378.0;;;;0.22927478;-0.80762494;0.33923724;;;;;;;;;;;;;;;
1495.0;1378.0;;;;0.22750476;-0.81201565;0.34442905;;;;;;;;;;;;;;;
1495.0;1378.0;;;;0.22558978;-0.81645596;0.34928516;;;;;;;;;;;;;;;
1495.0;1379.9;254046;254157;14634;;;;;;;;;;;;;;;;;;
1495.0;1388.1;;;;0.2239838;-0.8202325;0.35305408;;;;;;;;;;;;;;;
1495.0;1388.1;;;;0.22229388;-0.8236848;0.35680392;;;;;;;;;;;;;;;
1495.0;1388.1;;;;0.22063068;-0.8274995;0.35896304;;;;;;;;;;;;;;;
1495.0;1388.1;;;;0.21879962;-0.83145916;0.36246875;;;;;;;;;;;;;;;
1495.0;1388.1;;;;0.21579364;-0.8352815;0.36501315;;;;;;;;;;;;;;;
1497.0;1398.1;;;;0.21290973;-0.83916104;0.36622623;;;;;;;;;;;;;;;
1497.0;1398.1;;;;0.2097893;-0.84352124;0.36732486;;;;;;;;;;;;;;;
1497.0;1398.1;;;;0.2069321;-0.8481637;0.36765292;;;;;;;;;;;;;;;
1497.0;1398.1;;;;0.20296481;-0.8524629;0.3690758;;;;;;;;;;;;;;;
1497.0;1398.1;;;;0.1997948;-0.85694516;0.36960986;;;;;;;;;;;;;;;
1497.0;1400.1;262143;262143;14620;;;;;;;;;;;;;;;;;;
1497.0;1406.3;;;;;;;;;;;;;9156;;;;;;;;
1497.0;1406.3;;;;;;;;;;;;;8587;;;;;;;;
1497.0;1406.3;;;;;;;;;;;;;8102;;;;;;;;
1497.0;1406.3;;;;;;;;;;;;;7575;;;;;;;;
1497.0;1406.3;;;;;;;;;;;;;6559;;;;;;;;
1497.0;1408.2;;;;0.19575885;-0.861725;0.37100986;;;;;;;;;;;;;;;
1497.0;1408.2;;;;0.19086841;-0.8666116;0.37329486;;;;;;;;;;;;;;;
1497.0;1408.2;;;;0.18532182;-0.87144864;0.37495425;;;;;;;;;;;;;;;
1497.0;1408.2;;;;0.1822281;-0.8767053;0.37517554;;;;;;;;;;;;;;;
1497.0;1408.2;;;;0.17742921;-0.88235104;0.37678152;;;;;;;;;;;;;;;
1497.0;1418.3;;;;0.17121507;-0.8875238;0.37945944;;;;;;;;;;;;;;;
1497.0;1418.3;;;;0.16453554;-0.8926698;0.3824578;;;;;;;;;;;;;;;
1497.0;1418.3;;;;0.15932085;-0.89810956;0.38582236;;;;;;;;;;;;;;;
1497.0;1418.3;;;;0.15660097;-0.9030725;0.38756186;;;;;;;;;;;;;;;
1497.0;1418.3;;;;0.15134813;-0.90765774;0.39028937;;;;;;;;;;;;;;;
1497.0;1420.3;262143;262143;14619;;;;;;;;;;;;;;;;;;
1497.0;1422.0;;;;;;;;;;;;;;;;;33.36436;1.0910367;20.0354;;1330.6
1497.0;1422.0;;;;;;;;;;;;;;0.9617603;0.056642354;-0.23731193;;;;;1330.6
1497.0;1422.0;;;;;;;;;;;;;;;;;34.46684;1.4076662;19.722586;;1330.6
1497.0;1422.0;;;;;;;;;;;;;;0.9549852;0.07525864;-0.24585712;;;;;1330.6
1497.0;1422.0;;;;;;;;;;;;;;;;;34.981842;1.7662587;19.505142;;1340.3
1497.0;1422.0;;;;;;;;;;;;;;0.9477218;0.09210486;-0.24768822;;;;;1340.3
1497.0;1422.0;;;;;;;;;;;;;;;;;34.890285;2.0027773;19.16181;;1340.3
1497.0;1422.0;;;;;;;;;;;;;;0.9355144;0.10870693;-0.24988556;;;;;1340.3
1497.0;1422.0;;;;;;;;;;;;;;;;;34.337135;1.9875181;18.761253;;1349.8
1497.0;1422.0;;;;;;;;;;;;;;0.9256264;0.12707907;-0.25080112;;;;;1349.8
1497.0;1422.0;;;;;;;;;;;;;;;;;33.562733;1.7319254;18.356884;;1349.8
1497.0;1422.0;;;;;;;;;;;;;;0.91512805;0.1441084;-0.25959045;;;;;1349.8
1497.0;1428.3;;;;0.14431001;-0.9121591;0.39319617;;;;;;;;;;;;;;;
1497.0;1428.3;;;;0.13500597;-0.9161378;0.39134985;;;;;;;;;;;;;;;
1497.0;1428.3;;;;0.11167528;-0.9219781;0.39424902;;;;;;;;;;;;;;;
1497.0;1428.3;;;;0.11899568;-0.9259645;0.40086752;;;;;;;;;;;;;;;
1497.0;1428.3;;;;0.12064363;-0.9296342;0.39901358;;;;;;;;;;;;;;;
1498.0;1437.1;;;;;;;;;;;;;;;;;32.845547;1.3389996;18.009735;;1359.5
1498.0;1437.1;;;;;;;;;;;;;;0.90121156;0.16028321;-0.26703694;;;;;1359.5
1498.0;1437.1;;;;;;;;;;;;;;;;;32.437363;1.1711478;17.719809;;1359.5
1498.0;1437.1;;;;;;;;;;;;;;0.88845485;0.17242958;-0.27179784;;;;;1359.5
1498.0;1437.1;;;;;;;;;;;;;;;;;32.49077;0.96133304;17.494736;;1369.1
1498.0;1437.1;;;;;;;;;;;;;;0.8700827;0.18317209;-0.26435134;;;;;1369.1
1498.0;1437.1;;;;;;;;;;;;;;;;;32.708214;0.30518508;17.361216;;1369.1
1498.0;1437.1;;;;;;;;;;;;;;0.8594012;0.18860438;-0.26044497;;;;;1369.1
1498.0;1437.1;;;;;;;;;;;;;;;;;32.944733;-0.5188147;17.139957;;1378.8
1498.0;1437.1;;;;;;;;;;;;;;0.850734;0.19550157;-0.25397503;;;;;1378.8
1498.0;1437.1;;;;;;;;;;;;;;;;;33.03629;-1.6365551;16.98355;;1378.8
1498.0;1437.1;;;;;;;;;;;;;;0.85116124;0.20178838;-0.24988556;;;;;1378.8
1498.0;1438.3;;;;0.10479356;-0.9365274;0.39531714;;;;;;;;;;;;;;;
1498.0;1438.3;;;;0.08287049;-0.94064724;0.39482504;;;;;;;;;;;;;;;
1498.0;1438.3;;;;0.07898713;-0.94413006;0.39530188;;;;;;;;;;;;;;;
1498.0;1438.3;;;;0.08449555;-0.9470521;0.39822394;;;;;;;;;;;;;;;
1498.0;1438.3;;;;0.0854416;-0.94853604;0.39731604;;;;;;;;;;;;;;;
1498.0;1440.4;262143;262143;14610;;;;;;;;;;;;;;;;;;
1498.0;1446.6;;;;;;;;;;;;;5326;;;;;;;;
1498.0;1446.6;;;;;;;;;;;;;5166;;;;;;;;
1498.0;1446.6;;;;;;;;;;;;;5746;;;;;;;;
1498.0;1446.6;;;;;;;;;;;;;5241;;;;;;;;
1498.0;1446.6;;;;;;;;;;;;;3455;;;;;;;;
1647.0;1448.3;;;;0.0950432;-0.94884884;0.39344794;;;;;;;;;;;;;;;
1647.0;1448.3;;;;0.110267654;-0.9471971;0.39381033;;;;;;;;;;;;;;;
1647.0;1448.3;;;;0.09798814;-0.9468881;0.39011008;;;;;;;;;;;;;;;
1647.0;1448.3;;;;0.07769395;-0.94924176;0.38257986;;;;;;;;;;;;;;;
1647.0;1448.3;;;;0.06246949;-0.95393765;0.3772202;;;;;;;;;;;;;;;
1647.0;1458.1;;;;0.049739845;-0.9592172;0.374836;;;;;;;;;;;;;;;
1647.0;1458.1;;;;0.04015732;-0.9652215;0.37295917;;;;;;;;;;;;;;;
1647.0;1458.1;;;;0.031024937;-0.97088635;0.37104037;;;;;;;;;;;;;;;
1647.0;1458.1;;;;0.020843508;-0.97703564;0.36864856;;;;;;;;;;;;;;;
1647.0;1458.1;;;;0.014526369;-0.9831964;0.36548617;;;;;;;;;;;;;;;
1647.0;1460.0;262143;262143;14604;;;;;;;;;;;;;;;;;;
1647.0;1467.8;;;;-0.0014152528;-0.9882852;0.36595538;;;;;;;;;;;;;;;
1647.0;1467.8;;;;-0.008380891;-0.9942132;0.36187366;;;;;;;;;;;;;;;
1647.0;1467.8;;;;-0.008373261;-0.9999391;0.36127475;;;;;;;;;;;;;;;
1647.0;1467.8;;;;-0.021270754;-1.0025102;0.3622208;;;;;;;;;;;;;;;
1647.0;1467.8;;;;-0.030120853;-1.0070459;0.35922626;;;;;;;;;;;;;;;
1647.0;1477.9;;;;-0.035831455;-1.0118219;0.35902408;;;;;;;;;;;;;;;
1647.0;1477.9;;;;-0.04351044;-1.0171167;0.36114886;;;;;;;;;;;;;;;
1647.0;1477.9;;;;-0.056026466;-1.0221444;0.3638039;;;;;;;;;;;;;;;
1647.0;1477.9;;;;-0.06626893;-1.0275804;0.3649445;;;;;;;;;;;;;;;
1647.0;1477.9;;;;-0.07263947;-1.033825;0.36866763;;;;;;;;;;;;;;;
1650.0;1480.1;262143;262143;14607;;;;;;;;;;;;;;;;;;
1650.0;1481.7;;;;;;;;;;;;;;;;;32.837917;-2.7695546;16.922514;;1388.4
1650.0;1481.7;;;;;;;;;;;;;;0.85695976;0.2075869;-0.24665059;;;;;1388.4
1650.0;1481.7;;;;;;;;;;;;;;;;;32.208473;-3.540147;16.762293;;1388.4
1650.0;1481.7;;;;;;;;;;;;;;0.86342967;0.21314128;-0.2484817;;;;;1388.4
1650.0;1481.7;;;;;;;;;;;;;;;;;31.235695;-4.0246286;16.6097;;1398.0
1650.0;1481.7;;;;;;;;;;;;;;0.86898404;0.21704765;-0.24811548;;;;;1398.0
1650.0;1481.7;;;;;;;;;;;;;;;;;30.323954;-4.139073;16.388441;;1398.0
1650.0;1481.7;;;;;;;;;;;;;;0.8719748;0.22534868;-0.24683371;;;;;1398.0
1650.0;1481.7;;;;;;;;;;;;;;;;;29.431288;-4.0704064;16.06418;;1407.7
1650.0;1481.7;;;;;;;;;;;;;;0.87313455;0.23401593;-0.24665059;;;;;1407.7
1650.0;1481.7;;;;;;;;;;;;;;;;;28.44325;-4.4747763;15.831476;;1407.7
1650.0;1481.7;;;;;;;;;;;;;;0.87527084;0.23993652;-0.25055698;;;;;1407.7
1650.0;1486.2;;;;;;;;;;;;;2247;;;;;;;;
1650.0;1486.2;;;;;;;;;;;;;2841;;;;;;;;
1650.0;1486.2;;;;;;;;;;;;;3821;;;;;;;;
1650.0;1486.2;;;;;;;;;;;;;3304;;;;;;;;
1650.0;1486.2;;;;;;;;;;;;;1755;;;;;;;;
1650.0;1487.9;;;;-0.07830048;-1.0402108;0.37252048;;;;;;;;;;;;;;;
1650.0;1487.9;;;;-0.086212166;-1.0461046;0.37590033;;;;;;;;;;;;;;;
1650.0;1487.9;;;;-0.09747316;-1.0516855;0.37793356;;;;;;;;;;;;;;;
1650.0;1487.9;;;;-0.11012651;-1.0562173;0.38220602;;;;;;;;;;;;;;;
1650.0;1487.9;;;;-0.11827852;-1.061802;0.38348013;;;;;;;;;;;;;;;
1706.0;1489.1;;;;;;;;;;;;;;;;;27.512436;-5.3827024;15.530107;;1417.3
1706.0;1489.1;;;;;;;;;;;;;;0.88088626;0.2509232;-0.2560503;;;;;1417.3
1706.0;1489.1;;;;;;;;;;;;;;;;;26.604511;-6.2982574;15.064699;;1417.3
1706.0;1489.1;;;;;;;;;;;;;;0.88302255;0.25928527;-0.26441237;;;;;1417.3
1706.0;1489.1;;;;;;;;;;;;;;;;;26.017029;-6.6415906;14.62981;;1426.9
1706.0;1489.1;;;;;;;;;;;;;;0.8852809;0.2677694;-0.26789147;;;;;1426.9
1706.0;1489.1;;;;;;;;;;;;;;;;;25.616474;-6.5805535;13.966033;;1426.9
1706.0;1489.1;;;;;;;;;;;;;;0.8845485;0.28254035;-0.27277443;;;;;1426.9
1706.0;1489.1;;;;;;;;;;;;;;;;;25.30366;-6.6911836;13.126774;;1436.5
1706.0;1489.1;;;;;;;;;;;;;;0.88253427;0.29798272;-0.27961057;;;;;1436.5
1706.0;1489.1;;;;;;;;;;;;;;;;;24.403364;-7.805109;11.852626;;1436.5
1706.0;1489.1;;;;;;;;;;;;;;0.88399917;0.32166508;-0.2927946;;;;;1436.5
1706.0;1497.8;;;;-0.12586977;-1.0658532;0.3860436;;;;;;;;;;;;;;;
1706.0;1497.8;;;;-0.13363649;-1.0682222;0.38810736;;;;;;;;;;;;;;;
1706.0;1497.8;;;;-0.145813;-1.0698053;0.3892632;;;;;;;;;;;;;;;
1706.0;1497.8;;;;-0.15212251;-1.0721895;0.3882981;;;;;;;;;;;;;;;
1706.0;1497.8;;;;-0.16094972;-1.0738603;0.38744742;;;;;;;;;;;;;;;
1706.0;1500.0;262143;262143;14599;;;;;;;;;;;;;;;;;;
1706.0;1507.8;;;;-0.17069246;-1.0745355;0.38494498;;;;;;;;;;;;;;;
1706.0;1507.8;;;;-0.17917635;-1.0749017;0.3835793;;;;;;;;;;;;;;;
1706.0;1507.8;;;;-0.19118121;-1.0747262;0.38355643;;;;;;;;;;;;;;;
1706.0;1507.8;;;;-0.2010155;-1.0703775;0.3883515;;;;;;;;;;;;;;;
1706.0;1507.8;;;;-0.21042636;-1.0723497;0.3801461;;;;;;;;;;;;;;;
1769.0;1517.9;;;;-0.2076073;-1.0737115;0.37520605;;;;;;;;;;;;;;;
1769.0;1517.9;;;;-0.2147446;-1.0722009;0.37271884;;;;;;;;;;;;;;;
1769.0;1517.9;;;;-0.22687533;-1.0694085;0.37091067;;;;;;;;;;;;;;;
1769.0;1517.9;;;;-0.23152927;-1.0680505;0.3668976;;;;;;;;;;;;;;;
1769.0;1517.9;;;;-0.23725894;-1.0646135;0.36389163;;;;;;;;;;;;;;;
1769.0;1520.1;262143;262143;14600;;;;;;;;;;;;;;;;;;
1769.0;1526.4;;;;;;;;;;;;;900;;;;;;;;
1769.0;1526.4;;;;;;;;;;;;;1032;;;;;;;;
1769.0;1526.4;;;;;;;;;;;;;1170;;;;;;;;
1769.0;1526.4;;;;;;;;;;;;;1152;;;;;;;;
1769.0;1526.4;;;;;;;;;;;;;1348;;;;;;;;
1769.0;1528.0;;;;-0.2439957;-1.0605813;0.36233142;;;;;;;;;;;;;;;
1769.0;1528.0;;;;-0.24497607;-1.0569879;0.35842898;;;;;;;;;;;;;;;
1769.0;1528.0;;;;-0.24936298;-1.0515481;0.35533145;;;;;;;;;;;;;;;
1769.0;1528.0;;;;-0.25355533;-1.046261;0.35091022;;;;;;;;;;;;;;;
1769.0;1528.0;;;;-0.25337985;-1.0421563;0.34656528;;;;;;;;;;;;;;;
1769.0;1538.1;;;;-0.2546349;-1.037697;0.3436356;;;;;;;;;;;;;;;
1769.0;1538.1;;;;-0.25124744;-1.034527;0.33906558;;;;;;;;;;;;;;;
1769.0;1538.1;;;;-0.24420932;-1.0322839;0.33555987;;;;;;;;;;;;;;;
1769.0;1538.1;;;;-0.24014285;-1.0316354;0.33160022;;;;;;;;;;;;;;;
1769.0;1538.1;;;;-0.23658755;-1.033394;0.32725146;;;;;;;;;;;;;;;
1769.0;1540.4;262143;262143;14607;;;;;;;;;;;;;;;;;;
1772.0;1542.0;;;;;;;;;;;;;;;;;23.018585;-9.945219;10.376293;;1446.2
1772.0;1542.0;;;;;;;;;;;;;;0.89077425;0.34223455;-0.31861323;;;;;1446.2
1772.0;1542.0;;;;;;;;;;;;;;;;;21.340069;-12.466811;8.720664;;1446.2
1772.0;1542.0;;;;;;;;;;;;;;0.8931547;0.3559679;-0.34003723;;;;;1446.2
1772.0;1542.0;;;;;;;;;;;;;;;;;20.046844;-14.202551;6.65685;;1455.8
1772.0;1542.0;;;;;;;;;;;;;;0.88369393;0.37617114;-0.35340434;;;;;1455.8
1772.0;1542.0;;;;;;;;;;;;;;;;;18.837551;-15.045625;4.871517;;1455.8
1772.0;1542.0;;;;;;;;;;;;;;0.8575701;0.387463;-0.35895872;;;;;1455.8
1772.0;1542.0;;;;;;;;;;;;;;;;;18.070772;-16.21296;2.6741846;;1465.5
1772.0;1542.0;;;;;;;;;;;;;;0.82467115;0.40540788;-0.35230568;;;;;1465.5
1772.0;1542.0;;;;;;;;;;;;;;;;;17.391735;-18.42555;0.5645924;;1465.5
1772.0;1542.0;;;;;;;;;;;;;;0.791467;0.40443128;-0.3442488;;;;;1465.5
1772.0;1548.1;;;;-0.22814181;-1.037449;0.32256702;;;;;;;;;;;;;;;
1772.0;1548.1;;;;-0.21964648;-1.0422899;0.32062915;;;;;;;;;;;;;;;
1772.0;1548.1;;;;-0.22314456;-1.0476495;0.3193169;;;;;;;;;;;;;;;
1772.0;1548.1;;;;-0.22083285;-1.0568467;0.3135338;;;;;;;;;;;;;;;
1772.0;1548.1;;;;-0.21900943;-1.0660859;0.311348;;;;;;;;;;;;;;;
1773.0;1549.5;;;;;;;;;;;;;;;;;17.288734;-21.431623;-1.9302957;;1475.1
1773.0;1549.5;;;;;;;;;;;;;;0.7637562;0.40028077;-0.34076968;;;;;1475.1
1773.0;1549.5;;;;;;;;;;;;;;;;;17.62444;-24.388105;-4.692221;;1475.1
1773.0;1549.5;;;;;;;;;;;;;;0.74513996;0.38703573;-0.3376568;;;;;1475.1
1773.0;1549.5;;;;;;;;;;;;;;;;;18.467514;-26.570177;-8.041628;;1484.6
1773.0;1549.5;;;;;;;;;;;;;;0.72872096;0.3653676;-0.3338725;;;;;1484.6
1773.0;1549.5;;;;;;;;;;;;;;;;;19.344921;-28.229622;-12.2646265;;1484.6
1773.0;1549.5;;;;;;;;;;;;;;0.708945;0.35834834;-0.3253273;;;;;1484.6
1773.0;1549.5;;;;;;;;;;;;;;;;;19.943846;-29.206215;-16.537218;;1494.3
1773.0;1549.5;;;;;;;;;;;;;;0.6902676;0.347911;-0.30671102;;;;;1494.3
1773.0;1549.5;;;;;;;;;;;;;;;;;19.75692;-29.39314;-21.210365;;1494.3
1773.0;1549.5;;;;;;;;;;;;;;0.6786706;0.33906063;-0.27906126;;;;;1494.3
1773.0;1557.9;;;;-0.21496204;-1.0753022;0.31110385;;;;;;;;;;;;;;;
1773.0;1557.9;;;;-0.21132663;-1.0840226;0.30983356;;;;;;;;;;;;;;;
1773.0;1557.9;;;;-0.2098122;-1.0913392;0.30842975;;;;;;;;;;;;;;;
1773.0;1557.9;;;;-0.20434955;-1.0975457;0.30604556;;;;;;;;;;;;;;;
1773.0;1557.9;;;;-0.19929507;-1.1017152;0.30406573;;;;;;;;;;;;;;;
1773.0;1560.3;262143;262143;14611;;;;;;;;;;;;;;;;;;
1773.0;1566.5;;;;;;;;;;;;;1642;;;;;;;;
1773.0;1566.5;;;;;;;;;;;;;1917;;;;;;;;
1773.0;1566.5;;;;;;;;;;;;;2092;;;;;;;;
1773.0;1566.5;;;;;;;;;;;;;2102;;;;;;;;
1773.0;1566.5;;;;;;;;;;;;;2034;;;;;;;;
1775.0;1568.0;;;;-0.1930733;-1.1049081;0.30251315;;;;;;;;;;;;;;;
1775.0;1568.0;;;;-0.1858864;-1.1062852;0.30054095;;;;;;;;;;;;;;;
1775.0;1568.0;;;;-0.17731859;-1.1065255;0.3004723;;;;;;;;;;;;;;;
1775.0;1568.0;;;;-0.16777422;-1.1057092;0.30113223;;;;;;;;;;;;;;;
1775.0;1568.0;;;;-0.15803911;-1.1045533;0.302578;;;;;;;;;;;;;;;
1775.0;1578.1;;;;-0.14887239;-1.1037179;0.30406192;;;;;;;;;;;;;;;
1775.0;1578.1;;;;-0.1392708;-1.1044351;0.30382922;;;;;;;;;;;;;;;
1775.0;1578.1;;;;-0.12963869;-1.1061403;0.30336002;;;;;;;;;;;;;;;
1775.0;1578.1;;;;-0.120151535;-1.1103517;0.30310062;;;;;;;;;;;;;;;
1775.0;1578.1;;;;-0.11168672;-1.1167794;0.30274203;;;;;;;;;;;;;;;
1775.0;1580.6;262143;262143;14602;;;;;;;;;;;;;;;;;;
1775.0;1588.3;;;;-0.104007736;-1.1263353;0.30208972;;;;;;;;;;;;;;;
1775.0;1588.3;;;;-0.096145645;-1.1381189;0.3014374;;;;;;;;;;;;;;;
1775.0;1588.3;;;;-0.088542946;-1.1526185;0.30207065;;;;;;;;;;;;;;;
1775.0;1588.3;;;;-0.08164597;-1.1686364;0.30266955;;;;;;;;;;;;;;;
1775.0;1588.3;;;;-0.07559586;-1.1858484;0.30349353;;;;;;;;;;;;;;;
1775.0;1598.4;;;;-0.07095719;-1.2044984;0.3051987;;;;;;;;;;;;;;;
1775.0;1598.4;;;;-0.066947944;-1.2233812;0.30692676;;;;;;;;;;;;;;;
1775.0;1598.4;;;;-0.061126716;-1.2415315;0.30970004;;;;;;;;;;;;;;;
1775.0;1598.4;;;;-0.054710396;-1.2584955;0.3151665;;;;;;;;;;;;;;;
1775.0;1598.4;;;;-0.05087281;-1.2739068;0.3195229;;;;;;;;;;;;;;;
1778.0;1600.8;262143;262143;14600;;;;;;;;;;;;;;;;;;
1778.0;1602.4;;;;;;;;;;;;;;;;;18.55144;-27.768028;-26.64266;;1504.0
1778.0;1602.4;;;;;;;;;;;;;;0.6718955;0.33344522;-0.2496414;;;;;1504.0
1778.0;1602.4;;;;;;;;;;;;;;;;;16.10233;-25.288399;-32.429733;;1504.0
1778.0;1602.4;;;;;;;;;;;;;;0.67775506;0.32953885;-0.21161534;;;;;1504.0
1778.0;1602.4;;;;;;;;;;;;;;;;;12.905515;-23.300882;-38.457138;;1513.6
1778.0;1602.4;;;;;;;;;;;;;;0.699118;0.32660908;-0.18408765;;;;;1513.6
1778.0;1602.4;;;;;;;;;;;;;;;;;9.624775;-20.77166;-44.89654;;1513.6
1778.0;1602.4;;;;;;;;;;;;;;0.7392804;0.3270974;-0.13885921;;;;;1513.6
1778.0;1602.4;;;;;;;;;;;;;;;;;6.2791834;-18.959625;-51.21769;;1523.2
1778.0;1602.4;;;;;;;;;;;;;;0.80758077;0.32392347;-0.102725305;;;;;1523.2
1778.0;1602.4;;;;;;;;;;;;;;;;;3.4981842;-16.724144;-57.74865;;1523.2
1778.0;1602.4;;;;;;;;;;;;;;0.90157783;0.33179724;-0.08148442;;;;;1523.2
1778.0;1606.9;;;;;;;;;;;;;1987;;;;;;;;
1778.0;1606.9;;;;;;;;;;;;;1895;;;;;;;;
1778.0;1606.9;;;;;;;;;;;;;1691;;;;;;;;
1778.0;1606.9;;;;;;;;;;;;;1416;;;;;;;;
1778.0;1606.9;;;;;;;;;;;;;1182;;;;;;;;
1778.0;1608.4;;;;-0.046413425;-1.2878343;0.32349017;;;;;;;;;;;;;;;
1778.0;1608.4;;;;-0.042335514;-1.2998735;0.3280678;;;;;;;;;;;;;;;
1778.0;1608.4;;;;-0.038494114;-1.3097459;0.3327141;;;;;;;;;;;;;;;
1778.0;1608.4;;;;-0.031867985;-1.3171083;0.3390732;;;;;;;;;;;;;;;
1778.0;1608.4;;;;-0.025630955;-1.3220865;0.34557346;;;;;;;;;;;;;;;
1782.0;1610.3;;;;;;;;;;;;;;;;;1.2932218;-14.339885;-64.73739;;1532.9
1782.0;1610.3;;;;;;;;;;;;;;1.0203558;0.3679922;-0.084353164;;;;;1532.9
1782.0;1610.3;;;;;;;;;;;;;;;;;-1.4839625;-12.752922;-72.35557;;1532.9
1782.0;1610.3;;;;;;;;;;;;;;1.1750237;0.41938534;-0.09485153;;;;;1532.9
1782.0;1610.3;;;;;;;;;;;;;;;;;-4.032258;-14.389478;-80.973236;;1542.6
1782.0;1610.3;;;;;;;;;;;;;;1.3652761;0.4763329;-0.15997803;;;;;1542.6
1782.0;1610.3;;;;;;;;;;;;;;;;;-5.359813;-16.68981;-89.52223;;1542.6
1782.0;1610.3;;;;;;;;;;;;;;1.5551012;0.49977112;-0.26538897;;;;;1542.6
1782.0;1610.3;;;;;;;;;;;;;;;;;-4.642628;-12.699514;-96.57964;;1552.2
1782.0;1610.3;;;;;;;;;;;;;;1.6766258;0.4758446;-0.27863398;;;;;1552.2
1782.0;1610.3;;;;;;;;;;;;;;;;;-2.422407;-2.5254066;-102.923676;;1552.2
1782.0;1610.3;;;;;;;;;;;;;;1.6745507;0.4331187;-0.2074038;;;;;1552.2
1782.0;1618.2;;;;-0.020229341;-1.3252603;0.35114673;;;;;;;;;;;;;;;
1782.0;1618.2;;;;-0.015388491;-1.3262216;0.356514;;;;;;;;;;;;;;;
1782.0;1618.2;;;;-0.011650086;-1.3249437;0.3629265;;;;;;;;;;;;;;;
1782.0;1618.2;;;;-0.009422303;-1.3215944;0.3681145;;;;;;;;;;;;;;;
1782.0;1618.2;;;;-0.00712967;-1.3166963;0.37417224;;;;;;;;;;;;;;;
1782.0;1620.7;262143;262143;14604;;;;;;;;;;;;;;;;;;
1782.0;1628.3;;;;-0.0039711003;-1.3098298;0.37944037;;;;;;;;;;;;;;;
1782.0;1628.3;;;;-8.621217E-4;-1.3011438;0.3836518;;;;;;;;;;;;;;;
1782.0;1628.3;;;;0.0019645693;-1.2903482;0.38727957;;;;;;;;;;;;;;;
1782.0;1628.3;;;;0.0041313176;-1.277794;0.38968283;;;;;;;;;;;;;;;
1782.0;1628.3;;;;0.0068740854;-1.2633516;0.39217;;;;;;;;;;;;;;;
1784.0;1638.2;;;;0.009136201;-1.2470208;0.3935166;;;;;;;;;;;;;;;
1784.0;1638.2;;;;0.0097084055;-1.2296869;0.3940888;;;;;;;;;;;;;;;
1784.0;1638.2;;;;0.007232667;-1.2118341;0.3927613;;;;;;;;;;;;;;;
1784.0;1638.2;;;;0.005588532;-1.1934472;0.3908654;;;;;;;;;;;;;;;
1784.0;1638.2;;;;0.00548935;-1.173977;0.38958365;;;;;;;;;;;;;;;
1784.0;1640.8;262143;262143;14607;;;;;;;;;;;;;;;;;;
1784.0;1646.9;;;;;;;;;;;;;1022;;;;;;;;
1784.0;1646.9;;;;;;;;;;;;;804;;;;;;;;
1784.0;1646.9;;;;;;;;;;;;;434;;;;;;;;
1784.0;1646.9;;;;;;;;;;;;;-67;;;;;;;;
1784.0;1646.9;;;;;;;;;;;;;-615;;;;;;;;
1784.0;1648.3;;;;0.0032386784;-1.1547776;0.38528448;;;;;;;;;;;;;;;
1784.0;1648.3;;;;8.392335E-5;-1.134945;0.38041312;;;;;;;;;;;;;;;
1784.0;1648.3;;;;-0.0024909975;-1.1164933;0.3748093;;;;;;;;;;;;;;;
1784.0;1648.3;;;;-0.0033035283;-1.1000367;0.37188342;;;;;;;;;;;;;;;
1784.0;1648.3;;;;-0.005222321;-1.0800439;0.36777118;;;;;;;;;;;;;;;
1784.0;1658.4;;;;-0.007297517;-1.062832;0.36143878;;;;;;;;;;;;;;;
1784.0;1658.4;;;;-0.009860993;-1.0465547;0.3540192;;;;;;;;;;;;;;;
1784.0;1658.4;;;;-0.011402131;-1.0310594;0.34694675;;;;;;;;;;;;;;;
1784.0;1658.4;;;;-0.011978151;-1.0168039;0.33994678;;;;;;;;;;;;;;;
1784.0;1658.4;;;;-0.012344362;-1.0031167;0.33223346;;;;;;;;;;;;;;;
1784.0;1661.0;262143;262143;14596;;;;;;;;;;;;;;;;;;
1785.0;1668.5;;;;-0.012546541;-0.99041;0.32467654;;;;;;;;;;;;;;;
1785.0;1668.5;;;;-0.012569429;-0.9787675;0.31800845;;;;;;;;;;;;;;;
1785.0;1668.5;;;;-0.013034822;-0.96899426;0.31168368;;;;;;;;;;;;;;;
1785.0;1668.5;;;;-0.013900759;-0.960106;0.30524448;;;;;;;;;;;;;;;
1785.0;1668.5;;;;-0.013320925;-0.9525529;0.29941562;;;;;;;;;;;;;;;
1785.0;1670.2;;;;;;;;;;;;;;;;;0.6828517;9.140294;-109.79415;;1561.7
1785.0;1670.2;;;;;;;;;;;;;;1.5446028;0.41309854;-0.11963256;;;;;1561.7
1785.0;1670.2;;;;;;;;;;;;;;;;;3.6164434;15.25544;-117.98837;;1561.7
1785.0;1670.2;;;;;;;;;;;;;;1.4120914;0.4229255;-0.019470809;;;;;1561.7
1785.0;1670.2;;;;;;;;;;;;;;;;;5.184332;10.456405;-124.2523;;1571.4
1785.0;1670.2;;;;;;;;;;;;;;1.3636891;0.42628255;0.019104587;;;;;1571.4
1785.0;1670.2;;;;;;;;;;;;;;;;;5.283517;2.6703696;-124.988556;;1571.4
1785.0;1670.2;;;;;;;;;;;;;;1.350261;0.4300058;0.07330546;;;;;1571.4
1785.0;1670.2;;;;;;;;;;;;;;;;;5.058443;-5.371258;-124.988556;;1581.1
1785.0;1670.2;;;;;;;;;;;;;;1.3980529;0.40748313;0.11224708;;;;;1581.1
1785.0;1670.2;;;;;;;;;;;;;;;;;4.581591;-9.254738;-124.988556;;1581.1
1785.0;1670.2;;;;;;;;;;;;;;1.4634846;0.3516953;0.09753716;;;;;1581.1
1786.0;1671.0;;;;;;;;;;;;;;;;;4.3717766;-5.7451096;-124.988556;;1590.7
1786.0;1671.0;;;;;;;;;;;;;;1.5091403;0.25543994;0.08667257;;;;;1590.7
1786.0;1671.0;;;;;;;;;;;;;;;;;5.7489243;5.2148504;-124.988556;;1590.7
1786.0;1671.0;;;;;;;;;;;;;;1.5500351;0.17767876;0.08862575;;;;;1590.7
1786.0;1671.0;;;;;;;;;;;;;;;;;8.686331;22.160252;-124.988556;;1600.2
1786.0;1671.0;;;;;;;;;;;;;;1.5568103;0.0987579;0.05304117;;;;;1600.2
1786.0;1671.0;;;;;;;;;;;;;;;;;10.292367;42.630543;-124.988556;;1600.2
1786.0;1671.0;;;;;;;;;;;;;;1.5608997;0.052552875;0.03155614;;;;;1600.2
1786.0;1671.0;;;;;;;;;;;;;;;;;9.777367;55.192722;-124.988556;;1609.9
1786.0;1671.0;;;;;;;;;;;;;;1.5762811;-0.019409772;-0.005859554;;;;;1609.9
1786.0;1671.0;;;;;;;;;;;;;;;;;9.144109;60.087128;-124.988556;;1609.9
1786.0;1671.0;;;;;;;;;;;;;;1.5979491;-0.107058935;-0.08154546;;;;;1609.9
1786.0;1678.4;;;;-0.012680056;-0.9461366;0.29310992;;;;;;;;;;;;;;;
1786.0;1678.4;;;;-0.01180649;-0.94121563;0.28677753;;;;;;;;;;;;;;;
1786.0;1678.4;;;;-0.01065445;-0.9379045;0.28014377;;;;;;;;;;;;;;;
1786.0;1678.4;;;;-0.008895875;-0.93535626;0.2745705;;;;;;;;;;;;;;;
1786.0;1678.4;;;;-0.009174348;-0.9337503;0.26903918;;;;;;;;;;;;;;;
1786.0;1681.0;262143;262143;14618;;;;;;;;;;;;;;;;;;
1786.0;1687.2;;;;;;;;;;;;;-1081;;;;;;;;
1786.0;1687.2;;;;;;;;;;;;;-1385;;;;;;;;
1786.0;1687.2;;;;;;;;;;;;;-1548;;;;;;;;
1786.0;1687.2;;;;;;;;;;;;;-1640;;;;;;;;
1786.0;1687.2;;;;;;;;;;;;;-1651;;;;;;;;
1788.0;1688.5;;;;-0.009201051;-0.93390286;0.26330188;;;;;;;;;;;;;;;
1788.0;1688.5;;;;-0.006740571;-0.93457425;0.2580681;;;;;;;;;;;;;;;
1788.0;1688.5;;;;-0.0050926213;-0.935917;0.25437167;;;;;;;;;;;;;;;
1788.0;1688.5;;;;-0.004516602;-0.9376489;0.24972919;;;;;;;;;;;;;;;
1788.0;1688.5;;;;-0.0051269536;-0.94049084;0.24544147;;;;;;;;;;;;;;;
1788.0;1698.6;;;;-0.0071220407;-0.94376385;0.2414513;;;;;;;;;;;;;;;
1788.0;1698.6;;;;-0.008766175;-0.9476968;0.23752597;;;;;;;;;;;;;;;
1788.0;1698.6;;;;-0.007343293;-0.95212185;0.23375705;;;;;;;;;;;;;;;
1788.0;1698.6;;;;-0.0032920842;-0.95637906;0.23114398;;;;;;;;;;;;;;;
1788.0;1698.6;;;;2.4032596E-4;-0.96057904;0.23023608;;;;;;;;;;;;;;;
1788.0;1701.3;262143;262143;14607;;;;;;;;;;;;;;;;;;
1788.0;1708.7;;;;0.0010757447;-0.9645425;0.22761539;;;;;;;;;;;;;;;
1788.0;1708.7;;;;-7.629395E-6;-0.9690782;0.22457126;;;;;;;;;;;;;;;
1788.0;1708.7;;;;-0.0022506716;-0.9734918;0.22251895;;;;;;;;;;;;;;;
1788.0;1708.7;;;;-0.0010185243;-0.97822964;0.22103885;;;;;;;;;;;;;;;
1788.0;1708.7;;;;0.0026130679;-0.98204434;0.22057346;;;;;;;;;;;;;;;
1788.0;1718.8;;;;0.006149293;-0.9852487;0.22057727;;;;;;;;;;;;;;;
1788.0;1718.8;;;;0.008113862;-0.9881555;0.22164157;;;;;;;;;;;;;;;
1788.0;1718.8;;;;0.008338929;-0.9913217;0.22253421;;;;;;;;;;;;;;;
1788.0;1718.8;;;;0.011428834;-0.99419796;0.22262958;;;;;;;;;;;;;;;
1788.0;1718.8;;;;0.014945986;-0.9960481;0.22428134;;;;;;;;;;;;;;;
1790.0;1721.5;262143;262143;14618;;;;;;;;;;;;;;;;;;
1790.0;1723.0;;;;;;;;;;;;;;;;;7.3053684;62.280647;-124.988556;;1619.5
1790.0;1723.0;;;;;;;;;;;;;;1.624012;-0.18445387;-0.15015107;;;;;1619.5
1790.0;1723.0;;;;;;;;;;;;;;;;;4.0894804;59.869686;-124.988556;;1619.5
1790.0;1723.0;;;;;;;;;;;;;;1.6252937;-0.22766808;-0.22125919;;;;;1619.5
1790.0;1723.0;;;;;;;;;;;;;;;;;1.4496292;52.095097;-124.988556;;1629.0
1790.0;1723.0;;;;;;;;;;;;;;1.5948973;-0.19214454;-0.37617114;;;;;1629.0
1790.0;1723.0;;;;;;;;;;;;;;;;;-0.064851835;51.049835;-124.988556;;1629.0
1790.0;1723.0;;;;;;;;;;;;;;1.531846;-0.11505478;-0.49763483;;;;;1629.0
1790.0;1723.0;;;;;;;;;;;;;;;;;0.71337014;55.22324;-124.988556;;1638.4
1790.0;1723.0;;;;;;;;;;;;;;1.4664754;-0.12652974;-0.50990325;;;;;1638.4
1790.0;1723.0;;;;;;;;;;;;;;;;;5.1271095;58.503983;-124.988556;;1638.4
1790.0;1723.0;;;;;;;;;;;;;;1.4202704;-0.14319284;-0.45435956;;;;;1638.4
1811.0;1724.2;;;;;;;;;;;;;;;;;11.848811;57.863094;-124.988556;;1648.0
1811.0;1724.2;;;;;;;;;;;;;;1.3775445;-0.16644795;-0.41261026;;;;;1648.0
1811.0;1724.2;;;;;;;;;;;;;;;;;22.354807;52.816097;-124.546036;;1648.0
1811.0;1724.2;;;;;;;;;;;;;;1.3428144;-0.18073061;-0.38801232;;;;;1648.0
1811.0;1724.2;;;;;;;;;;;;;;;;;31.85751;48.71517;-123.21085;;1657.6
1811.0;1724.2;;;;;;;;;;;;;;1.3078402;-0.15424055;-0.35541856;;;;;1657.6
1811.0;1724.2;;;;;;;;;;;;;;;;;41.840878;48.18873;-121.10507;;1657.6
1811.0;1724.2;;;;;;;;;;;;;;1.2715843;-0.1474044;-0.3058565;;;;;1657.6
1811.0;1724.2;;;;;;;;;;;;;;;;;56.932278;48.368023;-121.48274;;1667.3
1811.0;1724.2;;;;;;;;;;;;;;1.2444228;-0.11444441;-0.23816645;;;;;1667.3
1811.0;1724.2;;;;;;;;;;;;;;;;;71.49342;48.425247;-123.56563;;1667.3
1811.0;1724.2;;;;;;;;;;;;;;1.2107303;-0.03173925;-0.17743461;;;;;1667.3
1811.0;1727.5;;;;;;;;;;;;;-1540;;;;;;;;
1811.0;1727.5;;;;;;;;;;;;;-1370;;;;;;;;
1811.0;1727.5;;;;;;;;;;;;;-1222;;;;;;;;
1811.0;1727.5;;;;;;;;;;;;;-1146;;;;;;;;
1811.0;1727.5;;;;;;;;;;;;;-983;;;;;;;;
1811.0;1728.7;;;;0.017326357;-0.9970895;0.22666553;;;;;;;;;;;;;;;
1811.0;1728.7;;;;0.02119446;-0.99712;0.22843173;;;;;;;;;;;;;;;
1811.0;1728.7;;;;0.023956303;-0.99596035;0.23086932;;;;;;;;;;;;;;;
1811.0;1728.7;;;;0.024509434;-0.9934999;0.23365405;;;;;;;;;;;;;;;
1811.0;1728.7;;;;0.027759556;-0.9912263;0.23585132;;;;;;;;;;;;;;;
1813.0;1738.6;;;;0.031593326;-0.9879266;0.23926166;;;;;;;;;;;;;;;
1813.0;1738.6;;;;0.03562546;-0.9834863;0.24216846;;;;;;;;;;;;;;;
1813.0;1738.6;;;;0.036754612;-0.9784051;0.24484637;;;;;;;;;;;;;;;
1813.0;1738.6;;;;0.039787296;-0.9728128;0.24543765;;;;;;;;;;;;;;;
1813.0;1738.6;;;;0.04690934;-0.96633923;0.24584964;;;;;;;;;;;;;;;
1813.0;1738.7;;;;;;;;;;1.2550737;18.723106;-2.5978882;;;;;;;;;
1813.0;1738.7;;;;;;;-0.094485305;0.76888335;0.23572497;;;;;;;;;;;;
1813.0;1738.7;;;;;;;;;;5.7832575;30.220953;9.071627;;;;;;;;;
1813.0;1738.7;;;;;;;-0.112308115;0.87746817;0.25232702;;;;;;;;;;;;
1813.0;1741.4;262143;262143;14605;;;;;;;;;;;;;;;;;;
1813.0;1748.3;;;;;;;;;;-7.3664055;7.126072;-0.88503677;;;;;;;;;
1813.0;1748.3;;;;;;;-0.10992767;0.89602345;0.2405469;;;;;;;;;;;;
1813.0;1748.3;;;;;;;;;;-11.455885;25.07477;-3.4447768;;;;;;;;;
1813.0;1748.3;;;;;;;-0.10943937;0.91909546;0.23187964;;;;;;;;;;;;
1813.0;1748.7;;;;0.051155098;-0.9586755;0.24899295;;;;;;;;;;;;;;;
1813.0;1748.7;;;;0.053127296;-0.949299;0.2512932;;;;;;;;;;;;;;;
1813.0;1748.7;;;;0.05509568;-0.9406892;0.25242618;;;;;;;;;;;;;;;
1813.0;1748.7;;;;0.058914192;-0.9312707;0.2532883;;;;;;;;;;;;;;;
1813.0;1748.7;;;;0.060436256;-0.92146695;0.2547951;;;;;;;;;;;;;;;
1813.0;1757.6;;;;;;;;;;-24.105808;33.07825;-11.837367;;;;;;;;;
1813.0;1757.6;;;;;;;-0.1093173;0.9374676;0.22443312;;;;;;;;;;;;
1813.0;1757.6;;;;;;;;;;-41.177097;4.8409986;-40.787987;;;;;;;;;
1813.0;1757.6;;;;;;;-0.11951049;0.94747764;0.22003846;;;;;;;;;;;;
1829.0;1758.4;;;;0.060085304;-0.9113046;0.25597766;;;;;;;;;;;;;;;
1829.0;1758.4;;;;0.060939796;-0.90145886;0.25628284;;;;;;;;;;;;;;;
1829.0;1758.4;;;;0.06262971;-0.8917619;0.25662234;;;;;;;;;;;;;;;
1829.0;1758.4;;;;0.065731056;-0.88159573;0.25646976;;;;;;;;;;;;;;;
1829.0;1758.4;;;;0.068199165;-0.8710977;0.25768664;;;;;;;;;;;;;;;
1829.0;1761.0;262143;262143;14606;;;;;;;;;;;;;;;;;;
1829.0;1766.7;;;;;;;;;;-52.144688;11.986145;-48.47484;;;;;;;;;
1829.0;1766.7;;;;;;;-0.12317271;0.94479203;0.21820734;;;;;;;;;;;;
1829.0;1766.7;;;;;;;;;;-62.00598;19.3907;-55.05539;;;;;;;;;
1829.0;1766.7;;;;;;;-0.124881744;0.93795586;0.21704765;;;;;;;;;;;;
1829.0;1766.9;;;;;;;;;;;;;-743;;;;;;;;
1829.0;1766.9;;;;;;;;;;;;;-703;;;;;;;;
1829.0;1766.9;;;;;;;;;;;;;-740;;;;;;;;
1829.0;1766.9;;;;;;;;;;;;;-887;;;;;;;;
1829.0;1766.9;;;;;;;;;;;;;-1067;;;;;;;;
1829.0;1768.0;;;;0.069343574;-0.86044705;0.25728992;;;;;;;;;;;;;;;
1829.0;1768.0;;;;0.07036973;-0.84959805;0.25659183;;;;;;;;;;;;;;;
1829.0;1768.0;;;;0.07032395;-0.83836377;0.2563248;;;;;;;;;;;;;;;
1829.0;1768.0;;;;0.06944276;-0.8274156;0.2561417;;;;;;;;;;;;;;;
1829.0;1768.0;;;;0.07131959;-0.8168565;0.25383;;;;;;;;;;;;;;;
1829.0;1776.3;;;;;;;;;;-69.52498;33.284252;-54.03684;;;;;;;;;
1829.0;1776.3;;;;;;;-0.12817775;0.92660296;0.21259193;;;;;;;;;;;;
1829.0;1776.3;;;;;;;;;;-69.66994;43.141727;-47.109135;;;;;;;;;
1829.0;1776.3;;;;;;;-0.12805566;0.9112217;0.20929594;;;;;;;;;;;;
1831.0;1778.2;;;;0.07393647;-0.8067056;0.25168613;;;;;;;;;;;;;;;
1831.0;1778.2;;;;0.07319642;-0.7956315;0.25070193;;;;;;;;;;;;;;;
1831.0;1778.2;;;;0.07133103;-0.7850381;0.24983218;;;;;;;;;;;;;;;
1831.0;1778.2;;;;0.06828309;-0.774624;0.24740222;;;;;;;;;;;;;;;
1831.0;1778.2;;;;0.068141945;-0.7649995;0.2440987;;;;;;;;;;;;;;;
1831.0;1781.1;262143;262143;14601;;;;;;;;;;;;;;;;;;
1831.0;1782.5;;;;;;;;;;;;;;;;;79.081085;48.29936;-123.84792;;1676.9
1831.0;1782.5;;;;;;;;;;;;;;1.1860104;0.04754784;-0.1309244;;;;;1676.9
1831.0;1782.5;;;;;;;;;;;;;;;;;80.530716;47.39906;-121.852776;;1676.9
1831.0;1782.5;;;;;;;;;;;;;;1.1643422;0.10559405;-0.109866634;;;;;1676.9
1831.0;1782.5;;;;;;;;;;;;;;;;;78.77209;44.610428;-118.09519;;1686.4
1831.0;1782.5;;;;;;;;;;;;;;1.1351055;0.15393536;-0.12012085;;;;;1686.4
1831.0;1782.5;;;;;;;;;;;;;;;;;73.427536;39.719837;-114.06293;;1686.4
1831.0;1782.5;;;;;;;;;;;;;;1.1084933;0.19458602;-0.15143284;;;;;1686.4
1831.0;1782.5;;;;;;;;;;;;;;;;;65.324875;33.63903;-109.48897;;1696.0
1831.0;1782.5;;;;;;;;;;;;;;1.0763879;0.21588793;-0.17987609;;;;;1696.0
1831.0;1782.5;;;;;;;;;;;;;;;;;56.932278;27.71462;-104.510635;;1696.0
1831.0;1782.5;;;;;;;;;;;;;;1.0393994;0.22779016;-0.1953795;;;;;1696.0
1832.0;1783.3;;;;;;;;;;;;;;;;;49.36369;22.03818;-98.82657;;1705.7
1832.0;1783.3;;;;;;;;;;;;;;0.9983825;0.22498246;-0.19232765;;;;;1705.7
1832.0;1783.3;;;;;;;;;;;;;;;;;43.01584;16.552477;-92.97464;;1705.7
1832.0;1783.3;;;;;;;;;;;;;;0.956267;0.22595905;-0.1782281;;;;;1705.7
1832.0;1783.3;;;;;;;;;;;;;;;;;38.22062;12.405774;-86.92053;;1715.3
1832.0;1783.3;;;;;;;;;;;;;;0.9289224;0.22962126;-0.15552233;;;;;1715.3
1832.0;1783.3;;;;;;;;;;;;;;;;;34.867397;10.24659;-81.29749;;1715.3
1832.0;1783.3;;;;;;;;;;;;;;0.9037141;0.2446974;-0.133549;;;;;1715.3
1832.0;1783.3;;;;;;;;;;;;;;;;;32.498398;10.66622;-75.701164;;1724.8
1832.0;1783.3;;;;;;;;;;;;;;0.87203586;0.25666067;-0.10773034;;;;;1724.8
1832.0;1783.3;;;;;;;;;;;;;;;;;30.339212;12.581255;-70.513016;;1724.8
1832.0;1783.3;;;;;;;;;;;;;;0.8497574;0.27332377;-0.091372415;;;;;1724.8
1832.0;1785.7;;;;;;;;;;-67.10258;43.614765;-45.29328;;;;;;;;;
1832.0;1785.7;;;;;;;-0.13806574;0.9010895;0.20282601;;;;;;;;;;;;
1832.0;1785.7;;;;;;;;;;-64.42839;44.198433;-43.202766;;;;;;;;;
1832.0;1785.7;;;;;;;-0.1391644;0.8971831;0.20007935;;;;;;;;;;;;
1832.0;1788.0;;;;0.071552284;-0.75663006;0.23855594;;;;;;;;;;;;;;;
1832.0;1788.0;;;;0.075630195;-0.74779516;0.23389438;;;;;;;;;;;;;;;
1832.0;1788.0;;;;0.07725526;-0.73733145;0.23231891;;;;;;;;;;;;;;;
1832.0;1788.0;;;;0.07706834;-0.72697455;0.23097613;;;;;;;;;;;;;;;
1832.0;1788.0;;;;0.07630921;-0.71739966;0.22777942;;;;;;;;;;;;;;;
1832.0;1795.3;;;;;;;;;;-61.555832;45.506912;-41.13895;;;;;;;;;
1832.0;1795.3;;;;;;;-0.13550219;0.89779353;0.19483016;;;;;;;;;;;;
1832.0;1795.3;;;;;;;;;;-58.53832;47.31895;-38.73562;;;;;;;;;
1832.0;1795.3;;;;;;;-0.13721122;0.9007233;0.19238868;;;;;;;;;;;;
1887.0;1798.0;;;;0.07488633;-0.70870596;0.22301105;;;;;;;;;;;;;;;
1887.0;1798.0;;;;0.07439805;-0.70059973;0.21770099;;;;;;;;;;;;;;;
1887.0;1798.0;;;;0.07384873;-0.6926499;0.21323398;;;;;;;;;;;;;;;
1887.0;1798.0;;;;0.074176796;-0.6851693;0.20891955;;;;;;;;;;;;;;;
1887.0;1798.0;;;;0.074199684;-0.67711645;0.20500568;;;;;;;;;;;;;;;
1887.0;1801.0;262143;262143;14606;;;;;;;;;;;;;;;;;;
1887.0;1804.8;;;;;;;;;;-55.238503;49.260693;-35.81347;;;;;;;;;
1887.0;1804.8;;;;;;;-0.13476974;0.8999298;0.18854335;;;;;;;;;;;;
1887.0;1804.8;;;;;;;;;;-51.78228;51.683094;-32.98288;;;;;;;;;
1887.0;1804.8;;;;;;;-0.13574633;0.9009674;0.18640706;;;;;;;;;;;;
1887.0;1807.1;;;;;;;;;;;;;-1331;;;;;;;;
1887.0;1807.1;;;;;;;;;;;;;-3069;;;;;;;;
1887.0;1807.1;;;;;;;;;;;;;-6256;;;;;;;;
1887.0;1807.1;;;;;;;;;;;;;-7820;;;;;;;;
1887.0;1807.1;;;;;;;;;;;;;-5087;;;;;;;;
1887.0;1808.0;;;;0.07418824;-0.66873556;0.20100024;;;;;;;;;;;;;;;
1887.0;1808.0;;;;0.07387925;-0.6602097;0.19716647;;;;;;;;;;;;;;;
1887.0;1808.0;;;;0.07340623;-0.65190893;0.19375232;;;;;;;;;;;;;;;
1887.0;1808.0;;;;0.07405091;-0.64410025;0.18974689;;;;;;;;;;;;;;;
1887.0;1808.0;;;;0.07469941;-0.6360436;0.1865349;;;;;;;;;;;;;;;
1887.0;1814.3;;;;;;;;;;-48.265022;54.353466;-30.182806;;;;;;;;;
1887.0;1814.3;;;;;;;-0.14716025;0.8992584;0.18445387;;;;;;;;;;;;
1887.0;1814.3;;;;;;;;;;-44.770653;57.119205;-27.104252;;;;;;;;;
1887.0;1814.3;;;;;;;-0.14844203;0.89767146;0.18512528;;;;;;;;;;;;
1889.0;1818.1;;;;0.076343544;-0.6276589;0.18395998;;;;;;;;;;;;;;;
1889.0;1818.1;;;;0.077449806;-0.6185494;0.18178178;;;;;;;;;;;;;;;
1889.0;1818.1;;;;0.07819367;-0.61010367;0.17979814;;;;;;;;;;;;;;;
1889.0;1818.1;;;;0.07911683;-0.60247046;0.17804338;;;;;;;;;;;;;;;
1889.0;1818.1;;;;0.08035279;-0.59424216;0.17665102;;;;;;;;;;;;;;;
1889.0;1821.1;262143;262143;14606;;;;;;;;;;;;;;;;;;
1889.0;1823.9;;;;;;;;;;-41.009247;59.5378;-24.750511;;;;;;;;;
1889.0;1823.9;;;;;;;-0.1568041;0.88876003;0.18744469;;;;;;;;;;;;
1889.0;1823.9;;;;;;;;;;-37.18299;61.994537;-22.526474;;;;;;;;;
1889.0;1823.9;;;;;;;-0.17053743;0.87618643;0.18463698;;;;;;;;;;;;
1889.0;1828.2;;;;0.081298836;-0.5867844;0.17544176;;;;;;;;;;;;;;;
1889.0;1828.2;;;;0.08241273;-0.57869726;0.17509462;;;;;;;;;;;;;;;
1889.0;1828.2;;;;0.0836258;-0.5709992;0.17468645;;;;;;;;;;;;;;;
1889.0;1828.2;;;;0.084774025;-0.56425864;0.17414857;;;;;;;;;;;;;;;
1889.0;1828.2;;;;0.08525468;-0.55712134;0.17335512;;;;;;;;;;;;;;;
1889.0;1833.6;;;;;;;;;;-33.509327;64.39406;-19.928587;;;;;;;;;
1889.0;1833.6;;;;;;;-0.17804499;0.86391795;0.18555254;;;;;;;;;;;;
1889.0;1833.6;;;;;;;;;;-29.839474;66.30528;-17.597734;;;;;;;;;
1889.0;1833.6;;;;;;;-0.18732262;0.84859765;0.18750572;;;;;;;;;;;;
1891.0;1838.3;;;;0.08604432;-0.55009466;0.17350008;;;;;;;;;;;;;;;
1891.0;1838.3;;;;0.08741761;-0.54337317;0.17287065;;;;;;;;;;;;;;;
1891.0;1838.3;;;;0.088607796;-0.5367966;0.17329408;;;;;;;;;;;;;;;
1891.0;1838.3;;;;0.09003831;-0.53114325;0.173378;;;;;;;;;;;;;;;
1891.0;1838.3;;;;0.09133912;-0.5251923;0.17377092;;;;;;;;;;;;;;;
1891.0;1841.4;262143;262143;14621;;;;;;;;;;;;;;;;;;
1891.0;1842.9;;;;;;;;;;;;;;;;;27.703176;15.732292;-64.775536;;1734.5
1891.0;1842.9;;;;;;;;;;;;;;0.82052064;0.28681296;-0.069765314;;;;;1734.5
1891.0;1842.9;;;;;;;;;;;;;;;;;23.728142;18.871883;-58.854946;;1734.5
1891.0;1842.9;;;;;;;;;;;;;;0.78475296;0.2944426;-0.048585467;;;;;1734.5
1891.0;1842.9;;;;;;;;;;;;;;;;;18.059328;20.390179;-52.62917;;1744.1
1891.0;1842.9;;;;;;;;;;;;;;0.751854;0.29773858;-0.03686636;;;;;1744.1
1891.0;1842.9;;;;;;;;;;;;;;;;;11.291848;20.386364;-46.15543;;1744.1
1891.0;1842.9;;;;;;;;;;;;;;0.71517074;0.29639578;-0.031922363;;;;;1744.1
1891.0;1842.9;;;;;;;;;;;;;;;;;3.9979248;19.096958;-39.880062;;1753.5
1891.0;1842.9;;;;;;;;;;;;;;0.6785485;0.28388318;-0.027344584;;;;;1753.5
1891.0;1842.9;;;;;;;;;;;;;;;;;-3.3494065;16.537218;-34.131138;;1753.5
1891.0;1842.9;;;;;;;;;;;;;;0.63740957;0.26899013;-0.02087466;;;;;1753.5
1891.0;1843.1;;;;;;;;;;-26.10477;67.83883;-15.511032;;;;;;;;;
1891.0;1843.1;;;;;;;-0.19244972;0.8328501;0.18756676;;;;;;;;;;;;
1891.0;1843.1;;;;;;;;;;-22.305214;68.891716;-13.698996;;;;;;;;;
1891.0;1843.1;;;;;;;-0.20014039;0.8152104;0.18842128;;;;;;;;;;;;
1897.0;1843.5;;;;;;;;;;;;;;;;;-10.181738;13.691366;-28.56151;;1763.2
1897.0;1843.5;;;;;;;;;;;;;;0.6074404;0.25641653;-0.015137181;;;;;1763.2
1897.0;1843.5;;;;;;;;;;;;;;;;;-15.499588;11.349071;-23.297068;;1763.2
1897.0;1843.5;;;;;;;;;;;;;;0.5802179;0.2428663;-0.008972442;;;;;1763.2
1897.0;1843.5;;;;;;;;;;;;;;;;;-19.039736;9.224219;-18.230995;;1772.9
1897.0;1843.5;;;;;;;;;;;;;;0.55726796;0.22614215;-0.006286813;;;;;1772.9
1897.0;1843.5;;;;;;;;;;;;;;;;;-20.687735;7.9195538;-13.260293;;1772.9
1897.0;1843.5;;;;;;;;;;;;;;0.5299844;0.21149327;-0.011841182;;;;;1772.9
1897.0;1843.5;;;;;;;;;;;;;;;;;-21.008179;7.106998;-8.2819605;;1782.6
1897.0;1843.5;;;;;;;;;;;;;;0.496292;0.18909268;-0.024903104;;;;;1782.6
1897.0;1843.5;;;;;;;;;;;;;;;;;-20.233772;6.859035;-3.1167028;;1782.6
1897.0;1843.5;;;;;;;;;;;;;;0.46229437;0.1662038;-0.040101323;;;;;1782.6
1897.0;1847.2;;;;;;;;;;;;;581;;;;;;;;
1897.0;1847.2;;;;;;;;;;;;;4693;;;;;;;;
1897.0;1847.2;;;;;;;;;;;;;4641;;;;;;;;
1897.0;1847.2;;;;;;;;;;;;;2025;;;;;;;;
1897.0;1847.2;;;;;;;;;;;;;26;;;;;;;;
1897.0;1848.1;;;;0.09285355;-0.5194321;0.1742058;;;;;;;;;;;;;;;
1897.0;1848.1;;;;0.094692245;-0.5142861;0.17523958;;;;;;;;;;;;;;;
1897.0;1848.1;;;;0.09616472;-0.50912863;0.17649843;;;;;;;;;;;;;;;
1897.0;1848.1;;;;0.097915664;-0.5041657;0.17788698;;;;;;;;;;;;;;;
1897.0;1848.1;;;;0.100368515;-0.5000115;0.17862703;;;;;;;;;;;;;;;
1897.0;1852.5;;;;;;;;;;-18.54381;69.63942;-12.031922;;;;;;;;;
1897.0;1852.5;;;;;;;-0.2080752;0.79641104;0.18884854;;;;;;;;;;;;
1897.0;1852.5;;;;;;;;;;-14.74807;70.08957;-10.254219;;;;;;;;;
1897.0;1852.5;;;;;;;-0.21027254;0.7785272;0.18890958;;;;;;;;;;;;
1948.0;1858.1;;;;0.10185625;-0.49631888;0.17984392;;;;;;;;;;;;;;;
1948.0;1858.1;;;;0.10356523;-0.49232107;0.18176271;;;;;;;;;;;;;;;
1948.0;1858.1;;;;0.10499574;-0.4884835;0.18366243;;;;;;;;;;;;;;;
1948.0;1858.1;;;;0.10608293;-0.48567587;0.18538667;;;;;;;;;;;;;;;
1948.0;1858.1;;;;0.10787965;-0.4823342;0.18694688;;;;;;;;;;;;;;;
1948.0;1861.2;262143;262143;14606;;;;;;;;;;;;;;;;;;
1948.0;1862.0;;;;;;;;;;-11.139256;70.013275;-8.59859;;;;;;;;;
1948.0;1862.0;;;;;;;-0.21344645;0.7599719;0.19031343;;;;;;;;;;;;
1948.0;1862.0;;;;;;;;;;-7.6029234;69.31516;-6.916257;;;;;;;;;
1948.0;1862.0;;;;;;;-0.21924497;0.741966;0.19312114;;;;;;;;;;;;
1948.0;1868.1;;;;0.10964967;-0.4794808;0.19017032;;;;;;;;;;;;;;;
1948.0;1868.1;;;;0.11073305;-0.47705847;0.19273761;;;;;;;;;;;;;;;
1948.0;1868.1;;;;0.11178209;-0.47528464;0.19531634;;;;;;;;;;;;;;;
1948.0;1868.1;;;;0.11273958;-0.47357565;0.199173;;;;;;;;;;;;;;;
1948.0;1868.1;;;;0.11407091;-0.4719544;0.20247272;;;;;;;;;;;;;;;
1948.0;1871.4;;;;;;;;;;-4.116184;68.07916;-5.352184;;;;;;;;;
1948.0;1871.4;;;;;;;-0.2235786;0.7232276;0.19397564;;;;;;;;;;;;
1948.0;1871.4;;;;;;;;;;-0.5569628;66.45024;-3.7041843;;;;;;;;;
1948.0;1871.4;;;;;;;-0.23139134;0.70363474;0.19568469;;;;;;;;;;;;
1953.0;1877.9;;;;0.11499788;-0.4705277;0.20513156;;;;;;;;;;;;;;;
1953.0;1877.9;;;;0.11683275;-0.4687348;0.20787051;;;;;;;;;;;;;;;
1953.0;1877.9;;;;0.11790086;-0.4667855;0.21091846;;;;;;;;;;;;;;;
1953.0;1877.9;;;;0.119545;-0.46460348;0.21312717;;;;;;;;;;;;;;;
1953.0;1877.9;;;;0.12018205;-0.46327597;0.21576312;;;;;;;;;;;;;;;
1953.0;1880.9;;;;;;;;;;2.9793696;64.268166;-2.0447402;;;;;;;;;
1953.0;1880.9;;;;;;;-0.23505355;0.6860561;0.19727165;;;;;;;;;;;;
1953.0;1880.9;;;;;;;;;;6.5080724;61.407055;-0.37766656;;;;;;;;;
1953.0;1880.9;;;;;;;-0.24091311;0.67049164;0.2026429;;;;;;;;;;;;
1953.0;1881.1;262143;262143;14607;;;;;;;;;;;;;;;;;;
1953.0;1887.2;;;;;;;;;;;;;-589;;;;;;;;
1953.0;1887.2;;;;;;;;;;;;;-940;;;;;;;;
1953.0;1887.2;;;;;;;;;;;;;-1150;;;;;;;;
1953.0;1887.2;;;;;;;;;;;;;-1223;;;;;;;;
1953.0;1887.2;;;;;;;;;;;;;-1407;;;;;;;;
1953.0;1888.0;;;;0.12387468;-0.46191412;0.21755603;;;;;;;;;;;;;;;
1953.0;1888.0;;;;0.12770464;-0.46044928;0.21969226;;;;;;;;;;;;;;;
1953.0;1888.0;;;;0.13093568;-0.45878607;0.22219089;;;;;;;;;;;;;;;
1953.0;1888.0;;;;0.1350136;-0.45733267;0.22317508;;;;;;;;;;;;;;;
1953.0;1888.0;;;;0.13854219;-0.45569998;0.22460178;;;;;;;;;;;;;;;
1953.0;1890.5;;;;;;;;;;10.055849;57.924133;1.2665181;;;;;;;;;
1953.0;1890.5;;;;;;;-0.24158452;0.65547657;0.2069155;;;;;;;;;;;;
1953.0;1890.5;;;;;;;;;;13.565478;53.941467;2.8572955;;;;;;;;;
1953.0;1890.5;;;;;;;-0.24365978;0.6441847;0.21802424;;;;;;;;;;;;
1955.0;1898.2;;;;0.14196397;-0.45449454;0.22566989;;;;;;;;;;;;;;;
1955.0;1898.2;;;;0.14515306;-0.45369726;0.22633365;;;;;;;;;;;;;;;
1955.0;1898.2;;;;0.14688875;-0.4530335;0.22651294;;;;;;;;;;;;;;;
1955.0;1898.2;;;;0.14639665;-0.45263678;0.2281647;;;;;;;;;;;;;;;
1955.0;1898.2;;;;0.14554979;-0.45211035;0.22961429;;;;;;;;;;;;;;;
1955.0;1900.1;;;;;;;;;;17.193365;49.562057;4.3755913;;;;;;;;;
1955.0;1900.1;;;;;;;-0.24384288;0.6311838;0.22608112;;;;;;;;;;;;
1955.0;1900.1;;;;;;;;;;20.664846;45.25895;5.9739985;;;;;;;;;
1955.0;1900.1;;;;;;;-0.24524674;0.6227607;0.23145238;;;;;;;;;;;;
1955.0;1901.4;262143;262143;14616;;;;;;;;;;;;;;;;;;
1955.0;1903.3;;;;;;;;;;;;;;;;;-18.826105;7.2786646;2.067629;;1792.2
1955.0;1903.3;;;;;;;;;;;;;;0.42872402;0.14178899;-0.052919097;;;;;1792.2
1955.0;1903.3;;;;;;;;;;;;;;;;;-17.00644;8.541368;7.187109;;1792.2
1955.0;1903.3;;;;;;;;;;;;;;0.3958861;0.116641745;-0.06329539;;;;;1792.2
1955.0;1903.3;;;;;;;;;;;;;;;;;-15.083773;10.45259;12.203589;;1801.9
1955.0;1903.3;;;;;;;;;;;;;;0.36646625;0.08990753;-0.064210944;;;;;1801.9
1955.0;1903.3;;;;;;;;;;;;;;;;;-12.627033;12.310404;17.433699;;1801.9
1955.0;1903.3;;;;;;;;;;;;;;0.33655813;0.056642354;-0.060060427;;;;;1801.9
1955.0;1903.3;;;;;;;;;;;;;;;;;-9.926145;13.111515;22.366251;;1811.6
1955.0;1903.3;;;;;;;;;;;;;;0.30591753;0.031373028;-0.06103702;;;;;1811.6
1955.0;1903.3;;;;;;;;;;;;;;;;;-6.7445908;12.863552;27.134771;;1811.6
1955.0;1903.3;;;;;;;;;;;;;;0.28070924;0.0112918485;-0.060487688;;;;;1811.6
1957.0;1904.1;;;;;;;;;;;;;;;;;-3.47911;11.551256;32.059696;;1821.1
1957.0;1904.1;;;;;;;;;;;;;;0.26789147;-0.003112888;-0.068971835;;;;;1821.1
1957.0;1904.1;;;;;;;;;;;;;;;;;0.3624073;10.200811;36.946472;;1821.1
1957.0;1904.1;;;;;;;;;;;;;;0.25849178;-0.015686514;-0.073793754;;;;;1821.1
1957.0;1904.1;;;;;;;;;;;;;;;;;3.9445176;8.716849;41.562393;;1830.7
1957.0;1904.1;;;;;;;;;;;;;;0.26007873;-0.022705771;-0.07470931;;;;;1830.7
1957.0;1904.1;;;;;;;;;;;;;;;;;7.6067386;7.0535903;46.2508;;1830.7
1957.0;1904.1;;;;;;;;;;;;;;0.26343578;-0.03790399;-0.07434309;;;;;1830.7
1957.0;1904.1;;;;;;;;;;;;;;;;;11.1888485;5.3025913;50.668354;;1840.3
1957.0;1904.1;;;;;;;;;;;;;;0.27350688;-0.055177465;-0.07495346;;;;;1840.3
1957.0;1904.1;;;;;;;;;;;;;;;;;14.885404;3.47911;54.81887;;1840.3
1957.0;1904.1;;;;;;;;;;;;;;0.28620258;-0.073427536;-0.07940916;;;;;1840.3
1957.0;1908.2;;;;0.14429094;-0.45285803;0.2308121;;;;;;;;;;;;;;;
1957.0;1908.2;;;;0.1437874;-0.45327002;0.23123935;;;;;;;;;;;;;;;
1957.0;1908.2;;;;0.1425667;-0.45439917;0.23213962;;;;;;;;;;;;;;;
1957.0;1908.2;;;;0.1415291;-0.45550925;0.2337456;;;;;;;;;;;;;;;
1957.0;1908.2;;;;0.14099123;-0.45750815;0.23549655;;;;;;;;;;;;;;;
1957.0;1909.6;;;;;;;;;;24.151587;40.94058;7.656331;;;;;;;;;
1957.0;1909.6;;;;;;;-0.24744408;0.616657;0.23834956;;;;;;;;;;;;
1957.0;1909.6;;;;;;;;;;27.619251;36.835842;9.384442;;;;;;;;;
1957.0;1909.6;;;;;;;-0.25074008;0.61507004;0.24890897;;;;;;;;;;;;
2008.0;1918.1;;;;0.14007188;-0.45883185;0.23674396;;;;;;;;;;;;;;;
2008.0;1918.1;;;;0.14001085;-0.46023184;0.23844913;;;;;;;;;;;;;;;
2008.0;1918.1;;;;0.13939287;-0.4615212;0.23957446;;;;;;;;;;;;;;;
2008.0;1918.1;;;;0.13930131;-0.46283346;0.24142078;;;;;;;;;;;;;;;
2008.0;1918.1;;;;0.13842012;-0.46406943;0.24291995;;;;;;;;;;;;;;;
2008.0;1919.1;;;;;;;;;;31.228065;32.69677;11.06296;;;;;;;;;
2008.0;1919.1;;;;;;;-0.25244913;0.61922055;0.2565386;;;;;;;;;;;;
2008.0;1919.1;;;;;;;;;;34.920803;28.084658;12.699514;;;;;;;;;
2008.0;1919.1;;;;;;;-0.25403607;0.6292306;0.26343578;;;;;;;;;;;;
2008.0;1921.4;262143;262143;14610;;;;;;;;;;;;;;;;;;
2008.0;1927.5;;;;;;;;;;;;;-1558;;;;;;;;
2008.0;1927.5;;;;;;;;;;;;;-1736;;;;;;;;
2008.0;1927.5;;;;;;;;;;;;;-1951;;;;;;;;
2008.0;1927.5;;;;;;;;;;;;;-2099;;;;;;;;
2008.0;1927.5;;;;;;;;;;;;;-2256;;;;;;;;
2008.0;1928.2;;;;0.13681032;-0.46436697;0.24425128;;;;;;;;;;;;;;;
2008.0;1928.2;;;;0.13544847;-0.46483618;0.24637988;;;;;;;;;;;;;;;
2008.0;1928.2;;;;0.13375475;-0.46490103;0.24849704;;;;;;;;;;;;;;;
2008.0;1928.2;;;;0.13224413;-0.46503836;0.24971393;;;;;;;;;;;;;;;
2008.0;1928.2;;;;0.13055803;-0.4645539;0.25177005;;;;;;;;;;;;;;;
2008.0;1928.8;;;;;;;;;;38.731804;22.90414;14.461959;;;;;;;;;
2008.0;1928.8;;;;;;;-0.2609943;0.64394057;0.2690512;;;;;;;;;;;;
2008.0;1928.8;;;;;;;;;;42.44362;17.29255;16.556292;;;;;;;;;
2008.0;1928.8;;;;;;;-0.26764733;0.66078675;0.27637562;;;;;;;;;;;;
2012.0;1938.2;;;;0.12914659;-0.46464926;0.25350955;;;;;;;;;;;;;;;
2012.0;1938.2;;;;0.12717058;-0.46441656;0.2552643;;;;;;;;;;;;;;;
2012.0;1938.2;;;;0.12557222;-0.4642678;0.256794;;;;;;;;;;;;;;;
2012.0;1938.2;;;;0.12406923;-0.4642411;0.25891116;;;;;;;;;;;;;;;
2012.0;1938.2;;;;0.122482315;-0.46498877;0.26014712;;;;;;;;;;;;;;;
2012.0;1938.2;;;;;;;;;;46.09821;11.036257;18.894773;;;;;;;;;
2012.0;1938.2;;;;;;;-0.26837978;0.6774499;0.28547013;;;;;;;;;;;;
2012.0;1938.2;;;;;;;;;;49.748985;4.3908505;20.947142;;;;;;;;;
2012.0;1938.2;;;;;;;-0.27045503;0.69539475;0.29303873;;;;;;;;;;;;
2012.0;1941.5;262143;262143;14612;;;;;;;;;;;;;;;;;;
2012.0;1947.9;;;;;;;;;;53.201393;-2.7809992;23.05292;;;;;;;;;
2012.0;1947.9;;;;;;;-0.27283546;0.7137669;0.29816583;;;;;;;;;;;;
2012.0;1947.9;;;;;;;;;;56.60802;-10.54033;25.28077;;;;;;;;;
2012.0;1947.9;;;;;;;-0.27771842;0.73140657;0.3079928;;;;;;;;;;;;
2012.0;1948.3;;;;0.120525375;-0.46503073;0.26067355;;;;;;;;;;;;;;;
2012.0;1948.3;;;;0.1187935;-0.46454245;0.26220325;;;;;;;;;;;;;;;
2012.0;1948.3;;;;0.1173401;-0.46420676;0.26363376;;;;;;;;;;;;;;;
2012.0;1948.3;;;;0.116100326;-0.4637261;0.264576;;;;;;;;;;;;;;;
2012.0;1948.3;;;;0.1146393;-0.46272284;0.2654648;;;;;;;;;;;;;;;
2012.0;1957.5;;;;;;;;;;59.778133;-18.65444;27.386547;;;;;;;;;
2012.0;1957.5;;;;;;;-0.27997681;0.746971;0.31629384;;;;;;;;;;;;
2012.0;1957.5;;;;;;;;;;62.66976;-27.176733;29.313028;;;;;;;;;
2012.0;1957.5;;;;;;;-0.28083134;0.7616199;0.32374036;;;;;;;;;;;;
2014.0;1958.4;;;;0.1126671;-0.46155936;0.2676926;;;;;;;;;;;;;;;
2014.0;1958.4;;;;0.11042406;-0.46067053;0.26968005;;;;;;;;;;;;;;;
2014.0;1958.4;;;;0.108791366;-0.45986944;0.27133945;;;;;;;;;;;;;;;
2014.0;1958.4;;;;0.106784835;-0.4594956;0.27300647;;;;;;;;;;;;;;;
2014.0;1958.4;;;;0.10542299;-0.4588471;0.27485278;;;;;;;;;;;;;;;
2014.0;1961.8;262143;262143;14608;;;;;;;;;;;;;;;;;;
2014.0;1964.2;;;;;;;;;;;;;;;;;18.364513;2.5940733;58.339947;;1850.0
2014.0;1964.2;;;;;;;;;;;;;;0.30066836;-0.085329756;-0.07739494;;;;;1850.0
2014.0;1964.2;;;;;;;;;;;;;;;;;21.694845;1.6975921;61.414684;;1850.0
2014.0;1964.2;;;;;;;;;;;;;;0.31647694;-0.088808864;-0.06781213;;;;;1850.0
2014.0;1964.2;;;;;;;;;;;;;;;;;25.070955;0.553148;64.11558;;1859.6
2014.0;1964.2;;;;;;;;;;;;;;0.33228552;-0.08948027;-0.06335643;;;;;1859.6
2014.0;1964.2;;;;;;;;;;;;;;;;;28.401287;-0.6828517;65.65295;;1859.6
2014.0;1964.2;;;;;;;;;;;;;;0.3618885;-0.078554645;-0.05346843;;;;;1859.6
2014.0;1964.2;;;;;;;;;;;;;;;;;32.23136;-1.1177404;66.911835;;1869.1
2014.0;1964.2;;;;;;;;;;;;;;0.40064698;-0.06042665;-0.04242073;;;;;1869.1
2014.0;1964.2;;;;;;;;;;;;;;;;;36.9274;-0.6904813;68.170715;;1869.1
2014.0;1964.2;;;;;;;;;;;;;;0.43006682;-0.05224769;-0.027710807;;;;;1869.1
2016.0;1964.8;;;;;;;;;;;;;;;;;42.107914;0.15259254;68.42249;;1878.8
2016.0;1964.8;;;;;;;;;;;;;;0.463332;-0.029236732;-0.0145878475;;;;;1878.8
2016.0;1964.8;;;;;;;;;;;;;;;;;47.322765;0.5760369;68.86501;;1878.8
2016.0;1964.8;;;;;;;;;;;;;;0.49446088;-0.013061922;-0.0018921476;;;;;1878.8
2016.0;1964.8;;;;;;;;;;;;;;;;;52.61391;0.35477766;68.71242;;1888.4
2016.0;1964.8;;;;;;;;;;;;;;0.52803123;0.021973327;-0.003112888;;;;;1888.4
2016.0;1964.8;;;;;;;;;;;;;;;;;57.702873;-0.71718496;68.0105;;1888.4
2016.0;1964.8;;;;;;;;;;;;;;0.55616933;0.060487688;-0.0077517014;;;;;1888.4
2016.0;1964.8;;;;;;;;;;;;;;;;;62.845238;-4.013184;66.66387;;1898.0
2016.0;1964.8;;;;;;;;;;;;;;0.5910825;0.10303049;-0.036133915;;;;;1898.0
2016.0;1964.8;;;;;;;;;;;;;;;;;67.99524;-7.866146;64.90143;;1898.0
2016.0;1964.8;;;;;;;;;;;;;;0.63252664;0.146733;-0.084902495;;;;;1898.0
2016.0;1966.9;;;;;;;;;;65.218056;-36.00421;30.89236;;;;;;;;;
2016.0;1966.9;;;;;;;-0.27741325;0.7768792;0.33314005;;;;;;;;;;;;
2016.0;1966.9;;;;;;;;;;67.58706;-45.018616;32.30766;;;;;;;;;
2016.0;1966.9;;;;;;;-0.27369;0.79085666;0.346202;;;;;;;;;;;;
2016.0;1967.6;;;;;;;;;;;;;-2488;;;;;;;;
2016.0;1967.6;;;;;;;;;;;;;-2766;;;;;;;;
2016.0;1967.6;;;;;;;;;;;;;-3059;;;;;;;;
2016.0;1967.6;;;;;;;;;;;;;-3381;;;;;;;;
2016.0;1967.6;;;;;;;;;;;;;-3728;;;;;;;;
2016.0;1968.3;;;;0.1045685;-0.45857626;0.2767487;;;;;;;;;;;;;;;
2016.0;1968.3;;;;0.10448076;-0.45837408;0.27954867;;;;;;;;;;;;;;;
2016.0;1968.3;;;;0.10427095;-0.457573;0.28102496;;;;;;;;;;;;;;;
2016.0;1968.3;;;;0.10374834;-0.45644766;0.28398517;;;;;;;;;;;;;;;
2016.0;1968.3;;;;0.10320665;-0.4556046;0.28571323;;;;;;;;;;;;;;;
2071.0;1976.5;;;;;;;;;;69.67757;-53.949097;33.60851;;;;;;;;;
2071.0;1976.5;;;;;;;-0.26508376;0.8022706;0.35950804;;;;;;;;;;;;
2071.0;1976.5;;;;;;;;;;71.34846;-62.719353;34.91699;;;;;;;;;
2071.0;1976.5;;;;;;;-0.2575152;0.81405073;0.3715934;;;;;;;;;;;;
2071.0;1978.3;;;;0.10280992;-0.45569998;0.28756717;;;;;;;;;;;;;;;
2071.0;1978.3;;;;0.10270311;-0.45569617;0.28945926;;;;;;;;;;;;;;;
2071.0;1978.3;;;;0.10284807;-0.4562989;0.29055408;;;;;;;;;;;;;;;
2071.0;1978.3;;;;0.1035576;-0.45665365;0.29195789;;;;;;;;;;;;;;;
2071.0;1978.3;;;;0.105606094;-0.4579125;0.29370883;;;;;;;;;;;;;;;
2071.0;1981.7;262143;262143;14609;;;;;;;;;;;;;;;;;;
2071.0;1986.0;;;;;;;;;;72.721794;-71.24546;36.22547;;;;;;;;;
2071.0;1986.0;;;;;;;-0.2517777;0.8257088;0.3842891;;;;;;;;;;;;
2071.0;1986.0;;;;;;;;;;73.7022;-79.45112;37.457657;;;;;;;;;
2071.0;1986.0;;;;;;;-0.24890897;0.83700067;0.39704582;;;;;;;;;;;;
2071.0;1988.4;;;;0.10903932;-0.45849997;0.2959557;;;;;;;;;;;;;;;
2071.0;1988.4;;;;0.11013414;-0.4601975;0.29744723;;;;;;;;;;;;;;;
2071.0;1988.4;;;;0.1056595;-0.46314627;0.29731372;;;;;;;;;;;;;;;
2071.0;1988.4;;;;0.10180284;-0.4675904;0.29695514;;;;;;;;;;;;;;;
2071.0;1988.4;;;;0.10176088;-0.47225195;0.29845813;;;;;;;;;;;;;;;
2071.0;1995.3;;;;;;;;;;74.50331;-87.13798;38.73562;;;;;;;;;
2071.0;1995.3;;;;;;;-0.2446974;0.84572893;0.4077273;;;;;;;;;;;;
2071.0;1995.3;;;;;;;;;;75.14039;-94.43953;40.055542;;;;;;;;;
2071.0;1995.3;;;;;;;-0.24115726;0.8545793;0.41511276;;;;;;;;;;;;
2074.0;1998.2;;;;0.10257341;-0.47738653;0.2996483;;;;;;;;;;;;;;;
2074.0;1998.2;;;;0.104072586;-0.48193747;0.30092624;;;;;;;;;;;;;;;
2074.0;1998.2;;;;0.10549928;-0.4865113;0.30200198;;;;;;;;;;;;;;;
2074.0;1998.2;;;;0.107353225;-0.4911881;0.3028336;;;;;;;;;;;;;;;
2074.0;1998.2;;;;0.108539596;-0.49530798;0.3035927;;;;;;;;;;;;;;;
2074.0;2001.7;262143;262143;14607;;;;;;;;;;;;;;;;;;
2074.0;2005.0;;;;;;;;;;75.750755;-101.546524;41.13132;;;;;;;;;
2074.0;2005.0;;;;;;;-0.23523667;0.8646504;0.4203009;;;;;;;;;;;;
2074.0;2005.0;;;;;;;;;;76.136055;-108.088936;41.94388;;;;;;;;;
2074.0;2005.0;;;;;;;-0.22815637;0.87380594;0.4242683;;;;;;;;;;;;
2074.0;2007.7;;;;;;;;;;;;;-3987;;;;;;;;
2074.0;2007.7;;;;;;;;;;;;;-4021;;;;;;;;
2074.0;2007.7;;;;;;;;;;;;;-3871;;;;;;;;
2074.0;2007.7;;;;;;;;;;;;;-3646;;;;;;;;
2074.0;2007.7;;;;;;;;;;;;;-3394;;;;;;;;
2074.0;2008.3;;;;0.108100906;-0.49968725;0.30391696;;;;;;;;;;;;;;;
2074.0;2008.3;;;;0.10755159;-0.5040551;0.30462268;;;;;;;;;;;;;;;
2074.0;2008.3;;;;0.10727693;-0.50879294;0.3054619;;;;;;;;;;;;;;;
2074.0;2008.3;;;;0.10871889;-0.5136185;0.30642703;;;;;;;;;;;;;;;
2074.0;2008.3;;;;0.111396804;-0.518303;0.3074837;;;;;;;;;;;;;;;
2074.0;2014.6;;;;;;;;;;76.349686;-114.00189;42.49321;;;;;;;;;
2074.0;2014.6;;;;;;;-0.2186346;0.885464;0.42616045;;;;;;;;;;;;
2074.0;2014.6;;;;;;;;;;76.429794;-119.31212;42.931915;;;;;;;;;
2074.0;2014.6;;;;;;;-0.20868556;0.89706105;0.4314707;;;;;;;;;;;;
2078.0;2018.5;;;;0.11381532;-0.5236779;0.3085442;;;;;;;;;;;;;;;
2078.0;2018.5;;;;0.11555101;-0.5298844;0.30876163;;;;;;;;;;;;;;;
2078.0;2018.5;;;;0.1159897;-0.53672034;0.30997851;;;;;;;;;;;;;;;
2078.0;2018.5;;;;0.1172867;-0.5440369;0.31078723;;;;;;;;;;;;;;;
2078.0;2018.5;;;;0.11973192;-0.5516091;0.31144717;;;;;;;;;;;;;;;
2078.0;2022.0;262143;262143;14602;;;;;;;;;;;;;;;;;;
2078.0;2023.8;;;;;;;;;;;;;;;;;73.072754;-9.52559;63.08557;;1907.6
2078.0;2023.8;;;;;;;;;;;;;;0.659505;0.19837031;-0.13080233;;;;;1907.6
2078.0;2023.8;;;;;;;;;;;;;;;;;75.9415;-11.169774;61.170536;;1907.6
2078.0;2023.8;;;;;;;;;;;;;;0.67970824;0.23438215;-0.17450483;;;;;1907.6
2078.0;2023.8;;;;;;;;;;;;;;;;;77.299576;-13.058107;58.53832;;1917.3
2078.0;2023.8;;;;;;;;;;;;;;0.69667655;0.285226;-0.21942808;;;;;1917.3
2078.0;2023.8;;;;;;;;;;;;;;;;;76.5099;-14.698478;56.237984;;1917.3
2078.0;2023.8;;;;;;;;;;;;;;0.69881284;0.3255104;-0.25843075;;;;;1917.3
2078.0;2023.8;;;;;;;;;;;;;;;;;73.850975;-16.930143;53.735466;;1926.9
2078.0;2023.8;;;;;;;;;;;;;;0.700705;0.36298716;-0.28614154;;;;;1926.9
2078.0;2023.8;;;;;;;;;;;;;;;;;69.76913;-18.982513;50.771355;;1926.9
2078.0;2023.8;;;;;;;;;;;;;;0.71108127;0.410596;-0.3039033;;;;;1926.9
2078.0;2024.2;;;;;;;;;;76.31535;-123.611404;43.351543;;;;;;;;;
2078.0;2024.2;;;;;;;-0.19568469;0.9132359;0.43531603;;;;;;;;;;;;
2078.0;2024.2;;;;;;;;;;75.91861;-124.86266;43.70632;;;;;;;;;
2078.0;2024.2;;;;;;;-0.18213446;0.9250771;0.44190803;;;;;;;;;;;;
2080.0;2024.6;;;;;;;;;;;;;;;;;62.704094;-19.108402;48.12769;;1936.5
2080.0;2024.6;;;;;;;;;;;;;;0.71053195;0.44026002;-0.30927458;;;;;1936.5
2080.0;2024.6;;;;;;;;;;;;;;;;;54.81124;-17.517624;45.346687;;1936.5
2080.0;2024.6;;;;;;;;;;;;;;0.70204777;0.46681112;-0.29682302;;;;;1936.5
2080.0;2024.6;;;;;;;;;;;;;;;;;46.895504;-14.290292;41.77984;;1946.1
2080.0;2024.6;;;;;;;;;;;;;;0.6930143;0.48829615;-0.27014986;;;;;1946.1
2080.0;2024.6;;;;;;;;;;;;;;;;;39.654987;-9.3577385;37.850582;;1946.1
2080.0;2024.6;;;;;;;;;;;;;;0.6787317;0.50361645;-0.23291726;;;;;1946.1
2080.0;2024.6;;;;;;;;;;;;;;;;;34.859768;-4.6617026;33.5284;;1955.8
2080.0;2024.6;;;;;;;;;;;;;;0.656209;0.52424693;-0.19452497;;;;;1955.8
2080.0;2024.6;;;;;;;;;;;;;;;;;31.434067;-1.9760735;29.610584;;1955.8
2080.0;2024.6;;;;;;;;;;;;;;0.6267281;0.53083897;-0.17126988;;;;;1955.8
2080.0;2028.4;;;;0.12118532;-0.55953604;0.31245044;;;;;;;;;;;;;;;
2080.0;2028.4;;;;0.12316133;-0.56781393;0.3136864;;;;;;;;;;;;;;;
2080.0;2028.4;;;;0.1250725;-0.5758973;0.31437305;;;;;;;;;;;;;;;
2080.0;2028.4;;;;0.12726976;-0.5848656;0.31544116;;;;;;;;;;;;;;;
2080.0;2028.4;;;;0.12783433;-0.59408194;0.31699756;;;;;;;;;;;;;;;
2080.0;2033.7;;;;;;;;;;75.43794;-124.881744;44.049656;;;;;;;;;
2080.0;2033.7;;;;;;;-0.17236854;0.9352092;0.44874418;;;;;;;;;;;;
2080.0;2033.7;;;;;;;;;;74.6025;-124.881744;44.446392;;;;;;;;;
2080.0;2033.7;;;;;;;-0.1469161;0.9454024;0.45216224;;;;;;;;;;;;
2126.0;2038.4;;;;0.12754442;-0.60342413;0.31834796;;;;;;;;;;;;;;;
2126.0;2038.4;;;;0.12674333;-0.6128426;0.32112506;;;;;;;;;;;;;;;
2126.0;2038.4;;;;0.1254616;-0.62221533;0.32321933;;;;;;;;;;;;;;;
2126.0;2038.4;;;;0.12422182;-0.631939;0.32529452;;;;;;;;;;;;;;;
2126.0;2038.4;;;;0.12255861;-0.64131933;0.3277016;;;;;;;;;;;;;;;
2126.0;2042.0;262143;262143;14603;;;;;;;;;;;;;;;;;;
2126.0;2043.2;;;;;;;;;;73.53816;-124.881744;44.133583;;;;;;;;;
2126.0;2043.2;;;;;;;-0.13989685;0.9582202;0.45710623;;;;;;;;;;;;
2126.0;2043.2;;;;;;;;;;72.53868;-124.881744;44.057285;;;;;;;;;
2126.0;2043.2;;;;;;;-0.10913419;0.96896267;0.45142978;;;;;;;;;;;;
2126.0;2048.0;;;;;;;;;;;;;-3066;;;;;;;;
2126.0;2048.0;;;;;;;;;;;;;-2613;;;;;;;;
2126.0;2048.0;;;;;;;;;;;;;-2114;;;;;;;;
2126.0;2048.0;;;;;;;;;;;;;-1657;;;;;;;;
2126.0;2048.0;;;;;;;;;;;;;-1297;;;;;;;;
2126.0;2048.5;;;;0.12064363;-0.6501656;0.32898334;;;;;;;;;;;;;;;
2126.0;2048.5;;;;0.11887361;-0.65889364;0.3307152;;;;;;;;;;;;;;;
2126.0;2048.5;;;;0.11791994;-0.6674538;0.33264926;;;;;;;;;;;;;;;
2126.0;2048.5;;;;0.11676408;-0.6760178;0.3350449;;;;;;;;;;;;;;;
2126.0;2048.5;;;;0.11544038;-0.68503577;0.336216;;;;;;;;;;;;;;;
2126.0;2052.7;;;;;;;;;;71.43239;-124.881744;43.248543;;;;;;;;;
2126.0;2052.7;;;;;;;-0.10858486;0.9770806;0.45118564;;;;;;;;;;;;
2126.0;2052.7;;;;;;;;;;70.71139;-124.881744;43.89325;;;;;;;;;
2126.0;2052.7;;;;;;;-0.12121952;0.97653127;0.44782862;;;;;;;;;;;;
2128.0;2058.2;;;;0.11502458;-0.6941796;0.3375664;;;;;;;;;;;;;;;
2128.0;2058.2;;;;0.114109054;-0.7025719;0.33967975;;;;;;;;;;;;;;;
2128.0;2058.2;;;;0.11323549;-0.7111626;0.34069446;;;;;;;;;;;;;;;
2128.0;2058.2;;;;0.11313249;-0.7203484;0.3415909;;;;;;;;;;;;;;;
2128.0;2058.2;;;;0.11242677;-0.7292481;0.34196475;;;;;;;;;;;;;;;
2128.0;2062.1;;;;;;;;;;70.11246;-124.881744;46.6628;;;;;;;;;
2128.0;2062.1;;;;;;;-0.09088412;0.981048;0.43702507;;;;;;;;;;;;
2128.0;2062.1;;;;;;;;;;69.26176;-124.77874;47.864468;;;;;;;;;
2128.0;2062.1;;;;;;;-0.06555376;0.99288917;0.430311;;;;;;;;;;;;
2128.0;2061.9;262143;262143;14607;;;;;;;;;;;;;;;;;;
2128.0;2068.4;;;;0.10958482;-0.73821265;0.34212878;;;;;;;;;;;;;;;
2128.0;2068.4;;;;0.10517885;-0.7470208;0.34158328;;;;;;;;;;;;;;;
2128.0;2068.4;;;;0.10177614;-0.7564508;0.3418236;;;;;;;;;;;;;;;
2128.0;2068.4;;;;0.100540176;-0.7654687;0.34258655;;;;;;;;;;;;;;;
2128.0;2068.4;;;;0.09832002;-0.774048;0.3433266;;;;;;;;;;;;;;;
2128.0;2071.7;;;;;;;;;;68.23175;-122.760704;47.803432;;;;;;;;;
2128.0;2071.7;;;;;;;-0.04608295;1.0071108;0.42262033;;;;;;;;;;;;
2128.0;2071.7;;;;;;;;;;67.190315;-117.60308;47.624134;;;;;;;;;
2128.0;2071.7;;;;;;;-0.020386364;1.0212713;0.41987365;;;;;;;;;;;;
2130.0;2078.5;;;;0.09522249;-0.7826692;0.3433533;;;;;;;;;;;;;;;
2130.0;2078.5;;;;0.09140397;-0.7904092;0.34356692;;;;;;;;;;;;;;;
2130.0;2078.5;;;;0.08939744;-0.79833615;0.3443947;;;;;;;;;;;;;;;
2130.0;2078.5;;;;0.08766938;-0.80611813;0.34442523;;;;;;;;;;;;;;;
2130.0;2078.5;;;;0.08723069;-0.8128129;0.34455112;;;;;;;;;;;;;;;
2130.0;2081.4;;;;;;;;;;65.99628;-111.31626;47.677544;;;;;;;;;
2130.0;2081.4;;;;;;;-0.0038453322;1.0317087;0.41627246;;;;;;;;;;;;
2130.0;2081.4;;;;;;;;;;64.61532;-104.26649;48.268837;;;;;;;;;
2130.0;2081.4;;;;;;;0.01617481;1.0433668;0.41706595;;;;;;;;;;;;
2130.0;2082.1;262143;262143;14610;;;;;;;;;;;;;;;;;;
2130.0;2083.6;;;;;;;;;;;;;;;;;28.809473;-0.96133304;25.231176;;1965.4
2130.0;2083.6;;;;;;;;;;;;;;0.605121;0.5393841;-0.14380322;;;;;1965.4
2130.0;2083.6;;;;;;;;;;;;;;;;;25.669882;-0.839259;21.481216;;1965.4
2130.0;2083.6;;;;;;;;;;;;;;0.5908994;0.53675956;-0.10895108;;;;;1965.4
2130.0;2083.6;;;;;;;;;;;;;;;;;21.71392;0.44251838;18.776514;;1974.9
2130.0;2083.6;;;;;;;;;;;;;;0.58821374;0.5233314;-0.05200354;;;;;1974.9
2130.0;2083.6;;;;;;;;;;;;;;;;;18.139439;1.167333;16.464737;;1974.9
2130.0;2083.6;;;;;;;;;;;;;;0.6103702;0.4921415;-0.006408887;;;;;1974.9
2130.0;2083.6;;;;;;;;;;;;;;;;;16.727959;2.8077028;14.641255;;1984.6
2130.0;2083.6;;;;;;;;;;;;;;0.64888453;0.44557023;0.028321177;;;;;1984.6
2130.0;2083.6;;;;;;;;;;;;;;;;;17.738884;5.130924;13.084811;;1984.6
2130.0;2083.6;;;;;;;;;;;;;;0.6873379;0.40522477;0.05719169;;;;;1984.6
2131.0;2084.4;;;;;;;;;;;;;;;;;19.802696;6.992553;11.608478;;1994.2
2131.0;2084.4;;;;;;;;;;;;;;0.7264626;0.380871;0.0695822;;;;;1994.2
2131.0;2084.4;;;;;;;;;;;;;;;;;22.057253;7.6677756;10.601367;;1994.2
2131.0;2084.4;;;;;;;;;;;;;;0.76558733;0.3658559;0.06903287;;;;;1994.2
2131.0;2084.4;;;;;;;;;;;;;;;;;25.06714;7.572405;10.040589;;2003.8
2131.0;2084.4;;;;;;;;;;;;;;0.7961669;0.338023;0.05896176;;;;;2003.8
2131.0;2084.4;;;;;;;;;;;;;;;;;28.798029;7.2367015;9.254738;;2003.8
2131.0;2084.4;;;;;;;;;;;;;;0.81081575;0.3164159;0.03277688;;;;;2003.8
2131.0;2084.4;;;;;;;;;;;;;;;;;32.624287;8.098849;8.545182;;2013.4
2131.0;2084.4;;;;;;;;;;;;;;0.82070374;0.2971282;0.010864589;;;;;2013.4
2131.0;2084.4;;;;;;;;;;;;;;;;;35.935543;9.640035;7.37022;;2013.4
2131.0;2084.4;;;;;;;;;;;;;;0.8175909;0.2931608;-0.009155553;;;;;2013.4
2131.0;2088.0;;;;;;;;;;;;;-1091;;;;;;;;
2131.0;2088.0;;;;;;;;;;;;;-1011;;;;;;;;
2131.0;2088.0;;;;;;;;;;;;;-1007;;;;;;;;
2131.0;2088.0;;;;;;;;;;;;;-1048;;;;;;;;
2131.0;2088.0;;;;;;;;;;;;;-1124;;;;;;;;
2131.0;2088.5;;;;0.08555604;-0.81858456;0.34497073;;;;;;;;;;;;;;;
2131.0;2088.5;;;;0.07982636;-0.8239633;0.34477618;;;;;;;;;;;;;;;
2131.0;2088.5;;;;0.0723877;-0.8294984;0.34364322;;;;;;;;;;;;;;;
2131.0;2088.5;;;;0.06885529;-0.8350488;0.34232333;;;;;;;;;;;;;;;
2131.0;2088.5;;;;0.07047654;-0.84079754;0.34102252;;;;;;;;;;;;;;;
2131.0;2090.8;;;;;;;;;;62.77276;-96.94586;49.00128;;;;;;;;;
2131.0;2090.8;;;;;;;0.04199347;1.0558183;0.4223762;;;;;;;;;;;;
2131.0;2090.8;;;;;;;;;;60.51439;-89.65193;49.504837;;;;;;;;;
2131.0;2090.8;;;;;;;0.059144873;1.071749;0.4314707;;;;;;;;;;;;
2188.0;2098.4;;;;0.07141114;-0.84565747;0.34016803;;;;;;;;;;;;;;;
2188.0;2098.4;;;;0.06704331;-0.85102856;0.33914188;;;;;;;;;;;;;;;
2188.0;2098.4;;;;0.060409553;-0.85815823;0.33687213;;;;;;;;;;;;;;;
2188.0;2098.4;;;;0.057071693;-0.8659822;0.33461764;;;;;;;;;;;;;;;
2188.0;2098.4;;;;0.055774696;-0.8749925;0.33405688;;;;;;;;;;;;;;;
2188.0;2100.3;;;;;;;;;;58.04239;-82.27027;50.180058;;;;;;;;;
2188.0;2100.3;;;;;;;0.08154546;1.084933;0.43873408;;;;;;;;;;;;
2188.0;2100.3;;;;;;;;;;55.471203;-74.606316;50.683613;;;;;;;;;
2188.0;2100.3;;;;;;;0.104739524;1.0950651;0.4443495;;;;;;;;;;;;
2188.0;2102.2;262143;262143;14595;;;;;;;;;;;;;;;;;;
2188.0;2108.5;;;;0.053379066;-0.8850671;0.33396915;;;;;;;;;;;;;;;
2188.0;2108.5;;;;0.051063545;-0.8961412;0.33290103;;;;;;;;;;;;;;;
2188.0;2108.5;;;;0.04695893;-0.9088441;0.33293155;;;;;;;;;;;;;;;
2188.0;2108.5;;;;0.043498997;-0.92364895;0.33316424;;;;;;;;;;;;;;;
2188.0;2108.5;;;;0.040889744;-0.9393922;0.33370975;;;;;;;;;;;;;;;
2188.0;2109.9;;;;;;;;;;52.812283;-66.71728;51.18717;;;;;;;;;
2188.0;2109.9;;;;;;;0.12671286;1.1004364;0.44636372;;;;;;;;;;;;
2188.0;2109.9;;;;;;;;;;50.176243;-57.905056;51.889095;;;;;;;;;
2188.0;2109.9;;;;;;;0.14648885;1.1039156;0.44392225;;;;;;;;;;;;
2189.0;2118.2;;;;0.039314274;-0.95647824;0.33544925;;;;;;;;;;;;;;;
2189.0;2118.2;;;;0.03579331;-0.9722787;0.3388138;;;;;;;;;;;;;;;
2189.0;2118.2;;;;0.032306675;-0.98931515;0.34025958;;;;;;;;;;;;;;;
2189.0;2118.2;;;;0.034465794;-1.0091897;0.34193805;;;;;;;;;;;;;;;
2189.0;2118.2;;;;0.03660584;-1.0284044;0.34534457;;;;;;;;;;;;;;;
2189.0;2119.1;;;;;;;;;;47.608875;-48.200172;52.73217;;;;;;;;;
2189.0;2119.1;;;;;;;0.1690115;1.1040376;0.44123662;;;;;;;;;;;;
2189.0;2119.1;;;;;;;;;;45.20554;-37.667473;53.16706;;;;;;;;;
2189.0;2119.1;;;;;;;0.18817712;1.1032441;0.43372905;;;;;;;;;;;;
2189.0;2121.9;262143;262143;14603;;;;;;;;;;;;;;;;;;
2189.0;2128.0;;;;;;;;;;;;;-1203;;;;;;;;
2189.0;2128.0;;;;;;;;;;;;;-1310;;;;;;;;
2189.0;2128.0;;;;;;;;;;;;;-1494;;;;;;;;
2189.0;2128.0;;;;;;;;;;;;;-1704;;;;;;;;
2189.0;2128.0;;;;;;;;;;;;;-1922;;;;;;;;
2189.0;2128.3;;;;0.03507233;-1.0474511;0.34852985;;;;;;;;;;;;;;;
2189.0;2128.3;;;;0.02612305;-1.0677263;0.35318378;;;;;;;;;;;;;;;
2189.0;2128.3;;;;0.016212465;-1.090088;0.35626605;;;;;;;;;;;;;;;
2189.0;2128.3;;;;0.0081329355;-1.115841;0.35907367;;;;;;;;;;;;;;;
2189.0;2128.3;;;;0.0016098025;-1.143818;0.36098865;;;;;;;;;;;;;;;
2189.0;2128.8;;;;;;;;;;42.69921;-26.394695;53.827023;;;;;;;;;
2189.0;2128.8;;;;;;;0.2019715;1.1007416;0.42744225;;;;;;;;;;;;
2189.0;2128.8;;;;;;;;;;39.990692;-14.889218;54.708244;;;;;;;;;
2189.0;2128.8;;;;;;;0.21839045;1.0937834;0.42023987;;;;;;;;;;;;
2192.0;2138.4;;;;;;;;;;37.457657;-2.948851;55.18128;;;;;;;;;
2192.0;2138.4;;;;;;;0.22553179;1.0845058;0.41096225;;;;;;;;;;;;
2192.0;2138.4;;;;;;;;;;35.000916;9.205146;55.27665;;;;;;;;;
2192.0;2138.4;;;;;;;0.23249;1.0706503;0.4015015;;;;;;;;;;;;
2192.0;2138.4;;;;-0.002750397;-1.1736299;0.36467746;;;;;;;;;;;;;;;
2192.0;2138.4;;;;-0.0032348637;-1.2036477;0.3687134;;;;;;;;;;;;;;;
2192.0;2138.4;;;;-0.0044364934;-1.2341424;0.3752213;;;;;;;;;;;;;;;
2192.0;2138.4;;;;-0.0043449407;-1.2658349;0.3803597;;;;;;;;;;;;;;;
2192.0;2138.4;;;;-0.009738923;-1.298958;0.38455206;;;;;;;;;;;;;;;
2192.0;2142.2;262143;262143;14589;;;;;;;;;;;;;;;;;;
2192.0;2143.5;;;;;;;;;;;;;;;;;37.400433;11.749626;5.9930725;;2023.1
2192.0;2143.5;;;;;;;;;;;;;;0.8010498;0.28058717;-0.026978362;;;;;2023.1
2192.0;2143.5;;;;;;;;;;;;;;;;;36.648914;12.504959;4.333628;;2023.1
2192.0;2143.5;;;;;;;;;;;;;;0.773278;0.27198097;-0.047059543;;;;;2023.1
2192.0;2143.5;;;;;;;;;;;;;;;;;34.10443;11.089663;3.0098882;;2032.8
2192.0;2143.5;;;;;;;;;;;;;;0.7481918;0.26453444;-0.065858945;;;;;2032.8
2192.0;2143.5;;;;;;;;;;;;;;;;;31.422619;9.640035;2.0256662;;2032.8
2192.0;2143.5;;;;;;;;;;;;;;0.73104036;0.2616657;-0.06103702;;;;;2032.8
2192.0;2143.5;;;;;;;;;;;;;;;;;28.992584;10.765405;1.7166661;;2042.3
2192.0;2143.5;;;;;;;;;;;;;;0.7338481;0.25318155;0.026123844;;;;;2042.3
2192.0;2143.5;;;;;;;;;;;;;;;;;25.868252;11.482589;2.0790737;;2042.3
2192.0;2143.5;;;;;;;;;;;;;;0.7366558;0.26569414;0.109622486;;;;;2042.3
2193.0;2144.7;;;;;;;;;;;;;;;;;22.019106;4.4328136;2.9145176;;2051.8
2193.0;2144.7;;;;;;;;;;;;;;0.7779168;0.2992645;0.100711085;;;;;2051.8
2193.0;2144.7;;;;;;;;;;;;;;;;;19.981993;-9.067812;4.119999;;2051.8
2193.0;2144.7;;;;;;;;;;;;;;0.88949245;0.35200047;0.05084384;;;;;2051.8
2193.0;2144.7;;;;;;;;;;;;;;;;;22.141178;-22.164066;5.3750725;;2061.4
2193.0;2144.7;;;;;;;;;;;;;;1.0461745;0.40632343;-0.010254219;;;;;2061.4
2193.0;2144.7;;;;;;;;;;;;;;;;;28.14188;-36.404766;5.9663687;;2061.4
2193.0;2144.7;;;;;;;;;;;;;;1.2029176;0.49360636;-0.09582812;;;;;2061.4
2193.0;2144.7;;;;;;;;;;;;;;;;;36.481064;-52.987762;6.6301465;;2071.1
2193.0;2144.7;;;;;;;;;;;;;;1.3888364;0.5519578;-0.18836024;;;;;2071.1
2193.0;2144.7;;;;;;;;;;;;;;;;;42.195656;-64.653465;7.507553;;2071.1
2193.0;2144.7;;;;;;;;;;;;;;1.5601062;0.5656911;-0.2652669;;;;;2071.1
2193.0;2147.8;;;;;;;;;;32.67388;21.18366;55.021057;;;;;;;;;
2193.0;2147.8;;;;;;;0.22620319;1.0637531;0.39185765;;;;;;;;;;;;
2193.0;2147.8;;;;;;;;;;30.697805;32.921844;55.08972;;;;;;;;;
2193.0;2147.8;;;;;;;0.2153386;1.0616779;0.3806879;;;;;;;;;;;;
2193.0;2148.3;;;;-0.015953066;-1.3319856;0.38711554;;;;;;;;;;;;;;;
2193.0;2148.3;;;;-0.015335085;-1.3639299;0.3901177;;;;;;;;;;;;;;;
2193.0;2148.3;;;;-0.009624482;-1.393715;0.3964272;;;;;;;;;;;;;;;
2193.0;2148.3;;;;-0.0015640261;-1.4209253;0.4036637;;;;;;;;;;;;;;;
2193.0;2148.3;;;;0.004379273;-1.4456674;0.41120535;;;;;;;;;;;;;;;
2193.0;2157.4;;;;;;;;;;28.97351;44.270912;55.806908;;;;;;;;;
2193.0;2157.4;;;;;;;0.20209357;1.0741905;0.37470627;;;;;;;;;;;;
2193.0;2157.4;;;;;;;;;;27.3484;54.559467;56.573685;;;;;;;;;
2193.0;2157.4;;;;;;;0.19794305;1.0926237;0.36725974;;;;;;;;;;;;
2195.0;2158.5;;;;;;;;;;;;;;;;;38.159584;-70.80294;8.423109;;2080.7
2195.0;2158.5;;;;;;;;;;;;;;1.6978668;0.56233406;-0.33051544;;;;;2080.7
2195.0;2158.5;;;;;;;;;;;;;;;;;21.114994;-75.84613;10.879849;;2080.7
2195.0;2158.5;;;;;;;;;;;;;;1.8637043;0.5960875;-0.39289528;;;;;2080.7
2195.0;2158.5;;;;;;;;;;;;;;;;;-6.572924;-70.020905;20.729698;;2090.3
2195.0;2158.5;;;;;;;;;;;;;;1.9919431;0.54719687;-0.31427962;;;;;2090.3
2195.0;2158.5;;;;;;;;;;;;;;;;;-35.21836;-45.97995;33.6314;;2090.3
2195.0;2158.5;;;;;;;;;;;;;;1.9956053;0.40406507;-0.12207404;;;;;2090.3
2195.0;2158.5;;;;;;;;;;;;;;;;;-59.965054;-16.48381;43.49269;;2099.8
2195.0;2158.5;;;;;;;;;;;;;;1.886105;0.21613209;-0.05139317;;;;;2099.8
2195.0;2158.5;;;;;;;;;;;;;;;;;-78.43638;0.11825922;48.997467;;2099.8
2195.0;2158.5;;;;;;;;;;;;;;1.6566057;0.12817775;-0.17126988;;;;;2099.8
2195.0;2158.3;;;;0.011318208;-1.4690133;0.4199944;;;;;;;;;;;;;;;
2195.0;2158.3;;;;0.020767214;-1.4929086;0.42909628;;;;;;;;;;;;;;;
2195.0;2158.3;;;;0.027946476;-1.5154498;0.43885428;;;;;;;;;;;;;;;
2195.0;2158.3;;;;0.03157044;-1.5353014;0.44722372;;;;;;;;;;;;;;;
2195.0;2158.3;;;;0.03291321;-1.5557215;0.45418936;;;;;;;;;;;;;;;
2195.0;2162.0;262143;262143;14590;;;;;;;;;;;;;;;;;;
2195.0;2166.8;;;;;;;;;;25.585955;63.512833;56.39439;;;;;;;;;
2195.0;2166.8;;;;;;;0.18872647;1.1134373;0.3655507;;;;;;;;;;;;
2195.0;2166.8;;;;;;;;;;23.777735;71.66891;55.77639;;;;;;;;;
2195.0;2166.8;;;;;;;0.18024231;1.129429;0.36103398;;;;;;;;;;;;
2247.0;2168.0;;;;;;;;;;;;;-2183;;;;;;;;
2247.0;2168.0;;;;;;;;;;;;;-2505;;;;;;;;
2247.0;2168.0;;;;;;;;;;;;;-2797;;;;;;;;
2247.0;2168.0;;;;;;;;;;;;;-2910;;;;;;;;
2247.0;2168.0;;;;;;;;;;;;;-2882;;;;;;;;
2247.0;2168.2;;;;0.035945896;-1.5775683;0.45899588;;;;;;;;;;;;;;;
2247.0;2168.2;;;;0.038974766;-1.5986598;0.46443564;;;;;;;;;;;;;;;
2247.0;2168.2;;;;0.041969303;-1.6204417;0.4696198;;;;;;;;;;;;;;;
2247.0;2168.2;;;;0.051574714;-1.6358073;0.4732018;;;;;;;;;;;;;;;
2247.0;2168.2;;;;0.06255723;-1.6445963;0.4760285;;;;;;;;;;;;;;;
2247.0;2176.0;;;;;;;;;;21.946625;78.94375;54.830315;;;;;;;;;
2247.0;2176.0;;;;;;;0.16382337;1.1371197;0.3587756;;;;;;;;;;;;
2247.0;2176.0;;;;;;;;;;20.023956;85.18479;53.788876;;;;;;;;;
2247.0;2176.0;;;;;;;0.14148381;1.1380352;0.35883662;;;;;;;;;;;;
2247.0;2178.0;;;;0.062221535;-1.6554682;0.474701;;;;;;;;;;;;;;;
2247.0;2178.0;;;;0.068214424;-1.6623995;0.47715765;;;;;;;;;;;;;;;
2247.0;2178.0;;;;0.07564927;-1.6658938;0.4763642;;;;;;;;;;;;;;;
2247.0;2178.0;;;;0.08542252;-1.6681368;0.4731179;;;;;;;;;;;;;;;
2247.0;2178.0;;;;0.094181076;-1.668217;0.46842963;;;;;;;;;;;;;;;
2247.0;2181.9;262143;262143;14588;;;;;;;;;;;;;;;;;;
2247.0;2185.6;;;;;;;;;;18.284403;90.76968;52.594837;;;;;;;;;
2247.0;2185.6;;;;;;;0.117984556;1.1353496;0.35883662;;;;;;;;;;;;
2247.0;2185.6;;;;;;;;;;16.888182;95.9769;51.213875;;;;;;;;;
2247.0;2185.6;;;;;;;0.09643849;1.1401105;0.35859248;;;;;;;;;;;;
2251.0;2188.1;;;;0.097152725;-1.6642649;0.46189505;;;;;;;;;;;;;;;
2251.0;2188.1;;;;0.09209443;-1.6557581;0.45485693;;;;;;;;;;;;;;;
2251.0;2188.1;;;;0.08158494;-1.645302;0.44649893;;;;;;;;;;;;;;;
2251.0;2188.1;;;;0.07137681;-1.6374629;0.43689734;;;;;;;;;;;;;;;
2251.0;2188.1;;;;0.06349183;-1.6304705;0.4291039;;;;;;;;;;;;;;;
2251.0;2195.3;;;;;;;;;;15.766624;100.222786;49.733723;;;;;;;;;
2251.0;2195.3;;;;;;;0.07684561;1.1598254;0.35670033;;;;;;;;;;;;
2251.0;2195.3;;;;;;;;;;14.847256;103.3433;48.417618;;;;;;;;;
2251.0;2195.3;;;;;;;0.0601825;1.1930906;0.35871455;;;;;;;;;;;;
2251.0;2198.2;;;;0.069824226;-1.6302683;0.4209519;;;;;;;;;;;;;;;
2251.0;2198.2;;;;0.06653977;-1.63464;0.41527182;;;;;;;;;;;;;;;
2251.0;2198.2;;;;0.04137421;-1.6423838;0.4044991;;;;;;;;;;;;;;;
2251.0;2198.2;;;;0.020305635;-1.6549685;0.38838202;;;;;;;;;;;;;;;
2251.0;2198.2;;;;0.0028610232;-1.6688349;0.37327197;;;;;;;;;;;;;;;
2251.0;2202.2;262143;262143;14582;;;;;;;;;;;;;;;;;;
2255.0;2203.5;;;;;;;;;;;;;;;;;-91.97897;1.6403699;55.257576;;2109.5
2255.0;2203.5;;;;;;;;;;;;;;1.2279427;0.01495407;-0.3327128;;;;;2109.5
2255.0;2203.5;;;;;;;;;;;;;;;;;-97.66305;-24.292734;57.981354;;2109.5
2255.0;2203.5;;;;;;;;;;;;;;0.9242225;-0.045350507;-0.47309792;;;;;2109.5
2255.0;2203.5;;;;;;;;;;;;;;;;;-99.6086;-50.748466;47.132023;;2119.1
2255.0;2203.5;;;;;;;;;;;;;;0.8576922;0.0011597034;-0.59199804;;;;;2119.1
2255.0;2203.5;;;;;;;;;;;;;;;;;-93.779564;-51.065094;27.298807;;2119.1
2255.0;2203.5;;;;;;;;;;;;;;0.842616;0.057985168;-0.5051424;;;;;2119.1
2255.0;2203.5;;;;;;;;;;;;;;;;;-83.53679;-50.092316;6.1914425;;2128.7
2255.0;2203.5;;;;;;;;;;;;;;0.8539689;0.16193122;-0.43482772;;;;;2128.7
2255.0;2203.5;;;;;;;;;;;;;;;;;-75.44176;-55.021057;-8.1827755;;2128.7
2255.0;2203.5;;;;;;;;;;;;;;0.9179357;0.17029329;-0.50807214;;;;;2128.7
2255.0;2204.8;;;;;;;;;;13.904996;105.15153;47.448654;;;;;;;;;
2255.0;2204.8;;;;;;;0.047181617;1.236488;0.36164433;;;;;;;;;;;;
2255.0;2204.8;;;;;;;;;;12.619404;105.63601;46.395763;;;;;;;;;
2255.0;2204.8;;;;;;;0.035828732;1.281167;0.3695181;;;;;;;;;;;;
2255.0;2208.0;;;;;;;;;;;;;-2829;;;;;;;;
2255.0;2208.0;;;;;;;;;;;;;-2741;;;;;;;;
2255.0;2208.0;;;;;;;;;;;;;-2496;;;;;;;;
2255.0;2208.0;;;;;;;;;;;;;-2102;;;;;;;;
2255.0;2208.0;;;;;;;;;;;;;-1764;;;;;;;;
2255.0;2208.2;;;;-0.0058479314;-1.6832507;0.36104205;;;;;;;;;;;;;;;
2255.0;2208.2;;;;-0.011596681;-1.6983302;0.35041812;;;;;;;;;;;;;;;
2255.0;2208.2;;;;-0.017528536;-1.7135355;0.34001926;;;;;;;;;;;;;;;
2255.0;2208.2;;;;-0.019378664;-1.7277567;0.33290103;;;;;;;;;;;;;;;
2255.0;2208.2;;;;-0.020324709;-1.7408831;0.32813647;;;;;;;;;;;;;;;
2307.0;2214.3;;;;;;;;;;10.979034;104.97986;45.35432;;;;;;;;;
2307.0;2214.3;;;;;;;0.02356029;1.3183997;0.38178656;;;;;;;;;;;;
2307.0;2214.3;;;;;;;;;;9.094516;103.52641;44.431133;;;;;;;;;
2307.0;2214.3;;;;;;;0.014221625;1.3453779;0.3952147;;;;;;;;;;;;
2307.0;2218.0;;;;-0.016937258;-1.7530024;0.3258858;;;;;;;;;;;;;;;
2307.0;2218.0;;;;-0.012130739;-1.7631876;0.32485965;;;;;;;;;;;;;;;
2307.0;2218.0;;;;-0.009925843;-1.7747996;0.32294467;;;;;;;;;;;;;;;
2307.0;2218.0;;;;-0.009651185;-1.7883646;0.3228493;;;;;;;;;;;;;;;
2307.0;2218.0;;;;-0.011257173;-1.8057444;0.323082;;;;;;;;;;;;;;;
2307.0;2222.1;262143;262143;14577;;;;;;;;;;;;;;;;;;
2307.0;2223.8;;;;;;;;;;6.8170724;101.523636;43.469803;;;;;;;;;
2307.0;2223.8;;;;;;;-0.0012207404;1.3607593;0.40900907;;;;;;;;;;;;
2307.0;2223.8;;;;;;;;;;4.360332;99.02493;42.61147;;;;;;;;;
2307.0;2223.8;;;;;;;-0.010254219;1.3596606;0.42365795;;;;;;;;;;;;
2307.0;2228.1;;;;-0.013229372;-1.8253634;0.32322314;;;;;;;;;;;;;;;
2307.0;2228.1;;;;-0.025836948;-1.8427088;0.31520084;;;;;;;;;;;;;;;
2307.0;2228.1;;;;-0.034290317;-1.85553;0.33881763;;;;;;;;;;;;;;;
2307.0;2228.1;;;;-0.026500706;-1.8638766;0.334816;;;;;;;;;;;;;;;
2307.0;2228.1;;;;-0.027721409;-1.8707583;0.32462695;;;;;;;;;;;;;;;
2307.0;2233.1;;;;;;;;;;1.739555;96.098976;41.54332;;;;;;;;;
2307.0;2233.1;;;;;;;-0.018494217;1.3498948;0.43745232;;;;;;;;;;;;
2307.0;2233.1;;;;;;;;;;-1.1520737;93.05856;40.002136;;;;;;;;;
2307.0;2233.1;;;;;;;-0.026673177;1.328959;0.44819483;;;;;;;;;;;;
2312.0;2238.0;;;;-0.033973698;-1.8746569;0.3235779;;;;;;;;;;;;;;;
2312.0;2238.0;;;;-0.046146397;-1.8725665;0.31575397;;;;;;;;;;;;;;;
2312.0;2238.0;;;;-0.056900032;-1.8668749;0.31434253;;;;;;;;;;;;;;;
2312.0;2238.0;;;;-0.06518937;-1.8599436;0.31152728;;;;;;;;;;;;;;;
2312.0;2238.0;;;;-0.07313538;-1.8525355;0.30834964;;;;;;;;;;;;;;;
2312.0;2242.1;262143;262143;14574;;;;;;;;;;;;;;;;;;
2312.0;2242.8;;;;;;;;;;-4.127629;90.25086;38.350323;;;;;;;;;
2312.0;2242.8;;;;;;;-0.031922363;1.295877;0.45387128;;;;;;;;;;;;
2312.0;2242.8;;;;;;;;;;-7.0764794;87.87805;36.74047;;;;;;;;;
2312.0;2242.8;;;;;;;-0.035340436;1.2550431;0.45460373;;;;;;;;;;;;
2312.0;2248.0;;;;;;;;;;;;;-1483;;;;;;;;
2312.0;2248.0;;;;;;;;;;;;;-1308;;;;;;;;
2312.0;2248.0;;;;;;;;;;;;;-1316;;;;;;;;
2312.0;2248.0;;;;;;;;;;;;;-1255;;;;;;;;
2312.0;2248.0;;;;;;;;;;;;;-1231;;;;;;;;
2312.0;2248.1;;;;-0.07976533;-1.8472788;0.3018532;;;;;;;;;;;;;;;
2312.0;2248.1;;;;-0.08574677;-1.8429224;0.294117;;;;;;;;;;;;;;;
2312.0;2248.1;;;;-0.0919304;-1.8391993;0.28758243;;;;;;;;;;;;;;;
2312.0;2248.1;;;;-0.09806825;-1.8340418;0.28139117;;;;;;;;;;;;;;;
2312.0;2248.1;;;;-0.1014023;-1.8276255;0.27741244;;;;;;;;;;;;;;;
2312.0;2252.4;;;;;;;;;;-9.971923;86.33305;35.096287;;;;;;;;;
2312.0;2252.4;;;;;;;-0.030884732;1.2091434;0.44959867;;;;;;;;;;;;
2312.0;2252.4;;;;;;;;;;-12.714774;85.71505;33.280437;;;;;;;;;
2312.0;2252.4;;;;;;;-0.027588733;1.1624501;0.4389172;;;;;;;;;;;;
2313.0;2258.2;;;;-0.103843704;-1.8182032;0.27342227;;;;;;;;;;;;;;;
2313.0;2258.2;;;;-0.10545732;-1.804146;0.26833346;;;;;;;;;;;;;;;
2313.0;2258.2;;;;-0.1060753;-1.7854884;0.26331332;;;;;;;;;;;;;;;
2313.0;2258.2;;;;-0.1063347;-1.7623293;0.25870135;;;;;;;;;;;;;;;
2313.0;2258.2;;;;-0.10718538;-1.7351954;0.25418857;;;;;;;;;;;;;;;
2313.0;2262.0;;;;;;;;;;-15.411847;85.95157;31.308174;;;;;;;;;
2313.0;2262.0;;;;;;;-0.023194067;1.1173437;0.43012786;;;;;;;;;;;;
2313.0;2262.0;;;;;;;;;;-17.880032;87.14561;29.358807;;;;;;;;;
2313.0;2262.0;;;;;;;-0.020020142;1.0757164;0.4141972;;;;;;;;;;;;
2313.0;2262.3;262143;262143;14588;;;;;;;;;;;;;;;;;;
2313.0;2263.7;;;;;;;;;;;;;;;;;-68.45301;-50.408947;-15.980255;;2138.3
2313.0;2263.7;;;;;;;;;;;;;;1.0152898;0.12903225;-0.558916;;;;;2138.3
2313.0;2263.7;;;;;;;;;;;;;;;;;-60.04898;-34.0701;-20.706808;;2138.3
2313.0;2263.7;;;;;;;;;;;;;;1.1155126;0.026978362;-0.5014191;;;;;2138.3
2313.0;2263.7;;;;;;;;;;;;;;;;;-47.456284;-16.586811;-24.38429;;2147.9
2313.0;2263.7;;;;;;;;;;;;;;1.2271492;-0.06659139;-0.42939544;;;;;2147.9
2313.0;2263.7;;;;;;;;;;;;;;;;;-34.108246;1.5182959;-28.67214;;2147.9
2313.0;2263.7;;;;;;;;;;;;;;1.3285928;-0.07367168;-0.4619892;;;;;2147.9
2313.0;2263.7;;;;;;;;;;;;;;;;;-22.129734;20.29481;-31.792656;;2157.5
2313.0;2263.7;;;;;;;;;;;;;;1.3829768;-0.0270394;-0.5619068;;;;;2157.5
2313.0;2263.7;;;;;;;;;;;;;;;;;-12.588885;32.88751;-33.486435;;2157.5
2313.0;2263.7;;;;;;;;;;;;;;1.4285104;0.07446516;-0.67702264;;;;;2157.5
2315.0;2264.9;;;;;;;;;;;;;;;;;-2.0790737;42.35969;-34.68047;;2167.1
2315.0;2264.9;;;;;;;;;;;;;;1.4238716;0.22644734;-0.70857877;;;;;2167.1
2315.0;2264.9;;;;;;;;;;;;;;;;;8.1331835;46.739098;-34.295174;;2167.1
2315.0;2264.9;;;;;;;;;;;;;;1.4007386;0.37781915;-0.6174505;;;;;2167.1
2315.0;2264.9;;;;;;;;;;;;;;;;;12.722404;37.327953;-34.154026;;2176.8
2315.0;2264.9;;;;;;;;;;;;;;1.4486526;0.49208045;-0.54963833;;;;;2176.8
2315.0;2264.9;;;;;;;;;;;;;;;;;11.547441;21.534624;-35.382397;;2176.8
2315.0;2264.9;;;;;;;;;;;;;;1.5104221;0.5799127;-0.5432905;;;;;2176.8
2315.0;2264.9;;;;;;;;;;;;;;;;;7.965331;10.750145;-36.08814;;2186.4
2315.0;2264.9;;;;;;;;;;;;;;1.5017548;0.5908384;-0.49507126;;;;;2186.4
2315.0;2264.9;;;;;;;;;;;;;;;;;4.669332;3.730888;-34.985657;;2186.4
2315.0;2264.9;;;;;;;;;;;;;;1.4544511;0.5724662;-0.37897885;;;;;2186.4
2315.0;2268.2;;;;-0.110935226;-1.7054865;0.25031283;;;;;;;;;;;;;;;
2315.0;2268.2;;;;-0.11621858;-1.6726305;0.24633029;;;;;;;;;;;;;;;
2315.0;2268.2;;;;-0.12178804;-1.6381724;0.24234775;;;;;;;;;;;;;;;
2315.0;2268.2;;;;-0.12884142;-1.6043513;0.23943713;;;;;;;;;;;;;;;
2315.0;2268.2;;;;-0.13603212;-1.5710299;0.23579791;;;;;;;;;;;;;;;
2315.0;2271.5;;;;;;;;;;-20.104067;89.34293;27.211067;;;;;;;;;
2315.0;2271.5;;;;;;;-0.01800592;1.0406811;0.39442122;;;;;;;;;;;;
2315.0;2271.5;;;;;;;;;;-22.103031;92.192604;24.826807;;;;;;;;;
