patientId;holterMac;flexMac;;;;;;;;;;;;;;;;;;;;
;CA:F3:0B:1E:33:78;D3:4A:5C:52:80:78;;;;;;;;;;;;;;;;;;;;
receivedTimeStamp;timeStamp;red;ir;green;adxl_accX;adxl_accY;adxl_accZ;lsm_accelX;lsm_accelY;lsm_accelZ;lsm_gyroX;lsm_gyroY;lsm_gyroZ;ecg;flex_lsm_accelX;flex_lsm_accelY;flex_lsm_accelZ;flex_lsm_gyroX;flex_lsm_gyroY;flex_lsm_gyroZ;flex_cmd;flexTimeStamp
285.0;219.4;;;;;;;;;;;;;;;;;;;;17;0.1
285.0;219.4;;;;;;;;;;;;;;;;;13.557848;1.5869625;1.0567034;;127.6
285.0;219.4;;;;;;;;;;;;;;0.7448347;-0.49409467;0.10626545;;;;;127.6
285.0;219.4;;;;;;;;;;;;;;;;;-6.382183;-16.430403;-7.5037384;;127.6
285.0;219.4;;;;;;;;;;;;;;0.7349467;-0.6832484;0.082461014;;;;;127.6
285.0;219.4;;;;;;;;;;;;;;;;;-65.46983;-83.35749;-59.114353;;137.2
285.0;219.4;;;;;;;;;;;;;;0.7368999;-0.7937864;-0.03997925;;;;;137.2
285.0;219.4;;;;;;;;;;;;;;;;;-122.38685;-124.988556;-117.687004;;137.2
285.0;219.4;;;;;;;;;;;;;;0.7800531;-0.8511002;-0.25232702;;;;;137.2
346.0;220.6;;;;;;;;;;;;;;;;;-40.154728;-124.988556;-54.91424;;146.9
346.0;220.6;;;;;;;;;;;;;;0.82937104;-0.943083;-0.5899838;;;;;146.9
346.0;220.6;;;;;;;;;;;;;;;;;67.42302;-124.988556;33.352917;;146.9
346.0;220.6;;;;;;;;;;;;;;0.92660296;-0.93148595;-0.8901639;;;;;146.9
346.0;220.6;;;;;;;;;;;;;;;;;88.06498;-118.22871;73.377945;;156.4
346.0;220.6;;;;;;;;;;;;;;0.99325544;-0.98873866;-1.0142522;;;;;156.4
346.0;220.6;;;;;;;;;;;;;;;;;70.45198;-68.79635;112.727745;;156.4
346.0;220.6;;;;;;;;;;;;;;1.081637;-1.073336;-0.96084476;;;;;156.4
346.0;220.6;;;;;;;;;;;;;;;;;42.08884;-11.387218;121.72689;;166.0
346.0;220.6;;;;;;;;;;;;;;1.1832637;-1.0505692;-0.6415601;;;;;166.0
346.0;220.6;;;;;;;;;;;;;;;;;21.038698;27.218697;117.973114;;166.0
346.0;220.6;;;;;;;;;;;;;;1.3070468;-1.0320139;-0.33564258;;;;;166.0
346.0;279.9;;;;;;;;;;;;;;;;;29.236732;44.503616;100.089264;;175.6
346.0;279.9;;;;;;;;;;;;;;1.3176061;-0.8255257;-0.03521836;;;;;175.6
346.0;279.9;;;;;;;;;;;;;;;;;39.353615;41.112247;80.98468;;175.6
346.0;279.9;;;;;;;;;;;;;;1.2660298;-0.5071566;0.076906644;;;;;175.6
346.0;279.9;;;;;;;;;;;;;;;;;37.541584;20.378735;80.244606;;185.2
346.0;279.9;;;;;;;;;;;;;;1.2109745;-0.39960936;-0.070314646;;;;;185.2
346.0;279.9;;;;;;;;;;;;;;;;;43.31721;-4.5777764;77.806946;;185.2
346.0;279.9;;;;;;;;;;;;;;1.175634;-0.31299785;-0.29474777;;;;;185.2
346.0;279.9;;;;;;;;;;;;;;;;;60.590683;-17.91055;69.49065;;194.9
346.0;279.9;;;;;;;;;;;;;;1.1337016;-0.2120426;-0.4608295;;;;;194.9
346.0;279.9;;;;;;;;;;;;;;;;;80.660416;-13.355663;63.516647;;194.9
346.0;279.9;;;;;;;;;;;;;;1.0870082;-0.11841182;-0.54414505;;;;;194.9
467.0;280.7;;;;;;;;;;;;;;;;;90.23942;2.803888;62.91391;;204.4
467.0;280.7;;;;;;;;;;;;;;1.0294504;-0.09912412;-0.5456099;;;;;204.4
467.0;280.7;;;;;;;;;;;;;;;;;92.35282;17.326883;64.08124;;204.4
467.0;280.7;;;;;;;;;;;;;;0.9682913;-0.12756737;-0.48249763;;;;;204.4
467.0;280.7;;;;;;;;;;;;;;;;;95.58398;19.226662;61.685535;;214.0
467.0;280.7;;;;;;;;;;;;;;0.9541307;-0.09442427;-0.41389203;;;;;214.0
467.0;280.7;;;;;;;;;;;;;;;;;96.17527;13.904996;59.812466;;214.0
467.0;280.7;;;;;;;;;;;;;;0.95211643;-0.035096288;-0.38624227;;;;;214.0
467.0;280.7;;;;;;;;;;;;;;;;;91.27705;6.1151466;63.409836;;223.6
467.0;280.7;;;;;;;;;;;;;;0.97579885;-0.018799402;-0.38459426;;;;;223.6
467.0;280.7;;;;;;;;;;;;;;;;;82.20161;-0.7286294;69.98657;;223.6
467.0;280.7;;;;;;;;;;;;;;1.0196234;-0.02764977;-0.3590808;;;;;223.6
467.0;340.4;;;;;;;;;;;;;;;;;67.44591;-9.697257;76.75405;;233.2
467.0;340.4;;;;;;;;;;;;;;1.0010681;-0.03009125;-0.35230568;;;;;233.2
467.0;340.4;;;;;;;;;;;;;;;;;50.008392;-14.179663;82.08334;;233.2
467.0;340.4;;;;;;;;;;;;;;0.95492417;-0.043336283;-0.32386243;;;;;233.2
467.0;340.4;;;;;;;;;;;;;;;;;32.07114;-8.941923;87.382126;;242.9
467.0;340.4;;;;;;;;;;;;;;0.9229408;-0.07837153;-0.23053682;;;;;242.9
467.0;340.4;;;;;;;;;;;;;;;;;16.956846;-2.2164068;91.078674;;242.9
467.0;340.4;;;;;;;;;;;;;;0.9255043;-0.14215522;-0.2151555;;;;;242.9
467.0;340.4;;;;;;;;;;;;;;;;;12.237923;8.266702;91.76534;;252.5
467.0;340.4;;;;;;;;;;;;;;0.92141485;-0.19507432;-0.24536882;;;;;252.5
467.0;340.4;;;;;;;;;;;;;;;;;19.07407;18.803217;89.56419;;252.5
467.0;340.4;;;;;;;;;;;;;;0.895291;-0.19183935;-0.30787072;;;;;252.5
470.0;341.5;;;;;;;;;;;;;;;;;32.26188;28.294474;86.79465;;262.1
470.0;341.5;;;;;;;;;;;;;;0.8340098;-0.20441298;-0.3986938;;;;;262.1
470.0;341.5;;;;;;;;;;;;;;;;;46.548355;38.033695;84.20057;;262.1
470.0;341.5;;;;;;;;;;;;;;0.7727897;-0.2042909;-0.4177984;;;;;262.1
470.0;341.5;;;;;;;;;;;;;;;;;58.046207;41.47084;82.853935;;271.7
470.0;341.5;;;;;;;;;;;;;;0.7381207;-0.2158269;-0.41407514;;;;;271.7
470.0;341.5;;;;;;;;;;;;;;;;;66.110725;39.57106;81.560715;;271.7
470.0;341.5;;;;;;;;;;;;;;0.7293313;-0.20947905;-0.40339366;;;;;271.7
470.0;341.5;;;;;;;;;;;;;;;;;71.90161;34.234135;80.42771;;281.3
470.0;341.5;;;;;;;;;;;;;;0.72359383;-0.1981872;-0.39216286;;;;;281.3
470.0;341.5;;;;;;;;;;;;;;;;;76.765495;28.382214;80.05386;;281.3
470.0;341.5;;;;;;;;;;;;;;0.7195654;-0.20526749;-0.39185765;;;;;281.3
470.0;400.7;;;;;;;;;;;;;;;;;79.43586;24.143957;79.67238;;291.0
470.0;400.7;;;;;;;;;;;;;;0.7215796;-0.16742454;-0.3797113;;;;;291.0
470.0;400.7;;;;;;;;;;;;;;;;;80.29038;20.413067;79.596085;;291.0
470.0;400.7;;;;;;;;;;;;;;0.7215186;-0.1342204;-0.37452316;;;;;291.0
470.0;400.7;;;;;;;;;;;;;;;;;78.94756;17.647327;80.71764;;300.5
470.0;400.7;;;;;;;;;;;;;;0.7358623;-0.11737419;-0.37769708;;;;;300.5
470.0;400.7;;;;;;;;;;;;;;;;;75.27772;17.223883;81.91931;;300.5
470.0;400.7;;;;;;;;;;;;;;0.74898523;-0.107608266;-0.36133915;;;;;300.5
470.0;400.7;;;;;;;;;;;;;;;;;71.21113;18.597218;84.017456;;310.0
470.0;400.7;;;;;;;;;;;;;;0.7516709;-0.11774041;-0.34089175;;;;;310.0
470.0;400.7;;;;;;;;;;;;;;;;;68.21268;21.259956;84.3875;;310.0
470.0;400.7;;;;;;;;;;;;;;0.75051117;-0.10882901;-0.3192236;;;;;310.0
532.0;401.5;;;;;;;;;;;;;;;;;67.289505;23.754845;84.29975;;319.5
532.0;401.5;;;;;;;;;;;;;;0.745201;-0.107608266;-0.29914242;;;;;319.5
532.0;401.5;;;;;;;;;;;;;;;;;68.82305;25.101473;83.182014;;319.5
532.0;401.5;;;;;;;;;;;;;;0.7487411;-0.08709983;-0.27961057;;;;;319.5
532.0;401.5;;;;;;;;;;;;;;;;;70.70757;25.017548;81.53401;;329.1
532.0;401.5;;;;;;;;;;;;;;0.760094;-0.07971435;-0.27594838;;;;;329.1
532.0;401.5;;;;;;;;;;;;;;;;;71.95883;26.306955;78.88271;;329.1
532.0;401.5;;;;;;;;;;;;;;0.7715079;-0.05389569;-0.2656331;;;;;329.1
532.0;401.5;;;;;;;;;;;;;;;;;72.03894;28.572954;75.193794;;338.7
532.0;401.5;;;;;;;;;;;;;;0.77193516;-0.039857175;-0.2586749;;;;;338.7
532.0;401.5;;;;;;;;;;;;;;;;;73.13761;30.453657;72.607346;;338.7
532.0;401.5;;;;;;;;;;;;;;0.7685782;-0.053407393;-0.25580615;;;;;338.7
532.0;461.1;;;;;;;;;;;;;;;;;75.10224;32.2924;69.25794;;348.4
532.0;461.1;;;;;;;;;;;;;;0.75539416;-0.04388562;-0.24042481;;;;;348.4
532.0;461.1;;;;;;;;;;;;;;;;;76.128426;31.96814;65.58047;;348.4
532.0;461.1;;;;;;;;;;;;;;0.75698113;-0.029053621;-0.23902097;;;;;348.4
532.0;461.1;;;;;;;;;;;;;;;;;75.85376;30.487991;62.334057;;358.1
532.0;461.1;;;;;;;;;;;;;;0.7682119;-0.024536882;-0.26313058;;;;;358.1
532.0;461.1;;;;;;;;;;;;;;;;;73.92728;30.61388;59.480576;;358.1
532.0;461.1;;;;;;;;;;;;;;0.7741935;-0.02990814;-0.2800989;;;;;358.1
532.0;461.1;;;;;;;;;;;;;;;;;70.91357;30.415508;56.985687;;367.5
532.0;461.1;;;;;;;;;;;;;;0.77932066;-0.04443495;-0.29511398;;;;;367.5
532.0;461.1;;;;;;;;;;;;;;;;;66.71346;30.369732;55.322426;;367.5
532.0;461.1;;;;;;;;;;;;;;0.78438675;-0.04077273;-0.29621264;;;;;367.5
650.0;461.9;;;;;;;;;;;;;;;;;61.422314;30.625324;54.635765;;377.2
650.0;461.9;;;;;;;;;;;;;;0.79152805;-0.052125614;-0.28467667;;;;;377.2
650.0;461.9;;;;;;;;;;;;;;;;;57.39387;31.033508;54.033024;;377.2
650.0;461.9;;;;;;;;;;;;;;0.8019654;-0.05145421;-0.27594838;;;;;377.2
650.0;461.9;;;;;;;;;;;;;;;;;55.21561;32.391582;53.647724;;386.9
650.0;461.9;;;;;;;;;;;;;;0.79714346;-0.052369762;-0.2644734;;;;;386.9
650.0;461.9;;;;;;;;;;;;;;;;;55.883205;32.582325;53.395947;;386.9
650.0;461.9;;;;;;;;;;;;;;0.791467;-0.06256294;-0.25043488;;;;;386.9
650.0;461.9;;;;;;;;;;;;;;;;;57.332836;30.964842;53.266243;;396.5
650.0;461.9;;;;;;;;;;;;;;0.797998;-0.08294931;-0.2527543;;;;;396.5
650.0;461.9;;;;;;;;;;;;;;;;;59.919277;29.045992;53.464615;;396.5
650.0;461.9;;;;;;;;;;;;;;0.79531235;-0.10260323;-0.25562304;;;;;396.5
650.0;528.9;;;;;;;;;;;;;;;;;62.574387;27.092808;53.632465;;406.1
650.0;528.9;;;;;;;;;;;;;;0.7920774;-0.10296945;-0.2618488;;;;;406.1
650.0;528.9;;;;;;;;;;;;;;;;;64.07742;25.15488;53.521835;;406.1
650.0;528.9;;;;;;;;;;;;;;0.7985473;-0.13098544;-0.2732017;;;;;406.1
650.0;528.9;;;;;;;;;;;;;;;;;66.183205;23.86166;53.327282;;415.7
650.0;528.9;;;;;;;;;;;;;;0.8114261;-0.16211432;-0.29328287;;;;;415.7
650.0;528.9;;;;;;;;;;;;;;;;;70.03616;24.105808;52.591022;;415.7
650.0;528.9;;;;;;;;;;;;;;0.81136507;-0.18127994;-0.31354716;;;;;415.7
650.0;528.9;;;;;;;;;;;;;;;;;74.92294;25.364697;51.78228;;425.3
650.0;528.9;;;;;;;;;;;;;;0.8001343;-0.18451491;-0.31916258;;;;;425.3
650.0;528.9;;;;;;;;;;;;;;;;;80.82827;25.200659;51.431316;;425.3
650.0;528.9;;;;;;;;;;;;;;0.8019044;-0.2019715;-0.31653798;;;;;425.3
653.0;529.8;;;;;;;;;;;;;;;;;88.43501;24.47203;50.874355;;434.8
653.0;529.8;;;;;;;;;;;;;;0.8199103;-0.18836024;-0.32160404;;;;;434.8
653.0;529.8;;;;;;;;;;;;;;;;;96.71316;23.880733;50.069427;;434.8
653.0;529.8;;;;;;;;;;;;;;0.8497574;-0.16138189;-0.33094272;;;;;434.8
653.0;529.8;;;;;;;;;;;;;;;;;104.304634;23.457289;49.916836;;444.5
653.0;529.8;;;;;;;;;;;;;;0.87258524;-0.14703818;-0.33082065;;;;;444.5
653.0;529.8;;;;;;;;;;;;;;;;;109.599594;22.606585;49.829094;;444.5
653.0;529.8;;;;;;;;;;;;;;0.87777334;-0.13306071;-0.33722952;;;;;444.5
653.0;529.8;;;;;;;;;;;;;;;;;112.29667;21.210365;48.924988;;454.2
653.0;529.8;;;;;;;;;;;;;;0.870571;-0.118717;-0.34748375;;;;;454.2
653.0;529.8;;;;;;;;;;;;;;;;;114.463486;18.833736;48.12769;;454.2
653.0;529.8;;;;;;;;;;;;;;0.84969634;-0.10211493;-0.35914183;;;;;454.2
653.0;536.5;;;;;;;;;;;;;;;;;115.28748;16.502884;47.03665;;463.9
653.0;536.5;;;;;;;;;;;;;;0.814539;-0.068666644;-0.37434003;;;;;463.9
653.0;536.5;;;;;;;;;;;;;;;;;112.25089;13.6875515;45.5298;;463.9
653.0;536.5;;;;;;;;;;;;;;0.7788934;-0.048036136;-0.38496047;;;;;463.9
653.0;536.5;;;;;;;;;;;;;;;;;107.32979;11.593219;43.851284;;473.4
653.0;536.5;;;;;;;;;;;;;;0.74135566;-0.030152287;-0.37885678;;;;;473.4
653.0;536.5;;;;;;;;;;;;;;;;;101.51219;10.387737;41.531876;;473.4
653.0;536.5;;;;;;;;;;;;;;0.7144383;-0.011169774;-0.36036256;;;;;473.4
653.0;536.5;;;;;;;;;;;;;;;;;96.007416;9.80407;38.666954;;483.0
653.0;536.5;;;;;;;;;;;;;;0.69716483;-0.0075685903;-0.34858242;;;;;483.0
653.0;536.5;;;;;;;;;;;;;;;;;91.18931;9.460738;35.45869;;483.0
653.0;536.5;;;;;;;;;;;;;;0.7066256;-0.009094516;-0.34028137;;;;;483.0
709.0;589.3;;;;;;;;;;;;;;;;;86.55431;8.854182;32.567066;;492.6
709.0;589.3;;;;;;;;;;;;;;0.7408063;-0.027466659;-0.35395366;;;;;492.6
709.0;589.3;;;;;;;;;;;;;;;;;82.31223;8.220923;29.423658;;492.6
709.0;589.3;;;;;;;;;;;;;;0.793115;-0.051026948;-0.3942381;;;;;492.6
709.0;589.3;;;;;;;;;;;;;;;;;78.11594;8.369701;26.4214;;502.2
709.0;589.3;;;;;;;;;;;;;;0.8390759;-0.059266947;-0.43934447;;;;;502.2
709.0;589.3;;;;;;;;;;;;;;;;;73.32835;8.594775;23.24366;;502.2
709.0;589.3;;;;;;;;;;;;;;0.86483353;-0.05920591;-0.47889644;;;;;502.2
709.0;589.3;;;;;;;;;;;;;;;;;69.59746;8.308664;20.245216;;511.8
709.0;589.3;;;;;;;;;;;;;;0.8906522;-0.054628134;-0.5023957;;;;;511.8
709.0;589.3;;;;;;;;;;;;;;;;;66.560875;8.430738;17.342142;;511.8
709.0;589.3;;;;;;;;;;;;;;0.9330729;-0.042786952;-0.50795007;;;;;511.8
709.0;597.2;;;;;;;;;;;;;;;;;62.52861;8.575701;14.538255;;521.4
709.0;597.2;;;;;;;;;;;;;;0.976043;-0.06201361;-0.5150914;;;;;521.4
709.0;597.2;;;;;;;;;;;;;;;;;58.23313;8.384961;12.745293;;521.4
709.0;597.2;;;;;;;;;;;;;;1.0037538;-0.10614338;-0.52522355;;;;;521.4
709.0;597.2;;;;;;;;;;;;;;;;;54.25428;8.239998;11.635181;;531.0
709.0;597.2;;;;;;;;;;;;;;1.0066836;-0.15192114;-0.5309;;;;;531.0
709.0;597.2;;;;;;;;;;;;;;;;;50.241096;7.0917387;11.501663;;531.0
709.0;597.2;;;;;;;;;;;;;;0.9945982;-0.18146306;-0.5337077;;;;;531.0
709.0;597.2;;;;;;;;;;;;;;;;;45.842617;4.291665;11.806849;;540.7
709.0;597.2;;;;;;;;;;;;;;0.98208565;-0.20777002;-0.53151035;;;;;540.7
709.0;597.2;;;;;;;;;;;;;;;;;41.13132;0.20599994;11.87933;;540.7
709.0;597.2;;;;;;;;;;;;;;0.98098695;-0.22046572;-0.5314493;;;;;540.7
770.0;649.5;;;;;;;;;;;;;;;;;36.832027;-3.402814;11.112552;;550.3
770.0;649.5;;;;;;;;;;;;;;0.9838557;-0.21723075;-0.5402997;;;;;550.3
770.0;649.5;;;;;;;;;;;;;;;;;33.982357;-5.8633685;9.445479;;550.3
770.0;649.5;;;;;;;;;;;;;;0.98855555;-0.20142217;-0.5526902;;;;;550.3
770.0;649.5;;;;;;;;;;;;;;;;;32.944733;-7.5189977;6.977294;;559.8
770.0;649.5;;;;;;;;;;;;;;0.994232;-0.15668203;-0.56740016;;;;;559.8
770.0;649.5;;;;;;;;;;;;;;;;;32.994324;-8.919034;3.9483323;;559.8
770.0;649.5;;;;;;;;;;;;;;1.0055238;-0.09418012;-0.5782647;;;;;559.8
770.0;649.5;;;;;;;;;;;;;;;;;32.818844;-9.823145;0.26703694;;569.4
770.0;649.5;;;;;;;;;;;;;;1.0200506;-0.025696585;-0.583697;;;;;569.4
770.0;649.5;;;;;;;;;;;;;;;;;31.598103;-10.982849;-3.8148136;;569.4
770.0;649.5;;;;;;;;;;;;;;1.0314035;0.035584584;-0.5851009;;;;;569.4
770.0;657.1;;;;;;;;;;;;;;;;;28.992584;-12.2646265;-7.9844055;;579.1
770.0;657.1;;;;;;;;;;;;;;1.035493;0.097598195;-0.5890683;;;;;579.1
770.0;657.1;;;;;;;;;;;;;;;;;24.6704;-13.222144;-11.757256;;579.1
770.0;657.1;;;;;;;;;;;;;;1.0118717;0.15521714;-0.58784753;;;;;579.1
770.0;657.1;;;;;;;;;;;;;;;;;18.265327;-14.831996;-15.25544;;588.7
770.0;657.1;;;;;;;;;;;;;;0.96694845;0.19666128;-0.57533497;;;;;588.7
770.0;657.1;;;;;;;;;;;;;;;;;11.265144;-18.787958;-19.203773;;588.7
770.0;657.1;;;;;;;;;;;;;;0.9153722;0.21637623;-0.56660664;;;;;588.7
770.0;657.1;;;;;;;;;;;;;;;;;5.603961;-24.754326;-24.174475;;598.4
770.0;657.1;;;;;;;;;;;;;;0.8564104;0.2191229;-0.55488753;;;;;598.4
770.0;657.1;;;;;;;;;;;;;;;;;2.1210363;-32.670067;-30.50325;;598.4
770.0;657.1;;;;;;;;;;;;;;0.8153325;0.21991637;-0.5470748;;;;;598.4
891.0;710.2;;;;;;;;;;;;;;;;;0.5760369;-40.79943;-38.33888;;608.0
891.0;710.2;;;;;;;;;;;;;;0.7701651;0.23438215;-0.54469436;;;;;608.0
891.0;710.2;;;;;;;;;;;;;;;;;-0.93081456;-48.455765;-47.261726;;608.0
891.0;710.2;;;;;;;;;;;;;;0.7480697;0.24134037;-0.53022856;;;;;608.0
891.0;710.2;;;;;;;;;;;;;;;;;-4.0246286;-55.177464;-57.084873;;617.6
891.0;710.2;;;;;;;;;;;;;;0.7599109;0.2369457;-0.5305338;;;;;617.6
891.0;710.2;;;;;;;;;;;;;;;;;-8.716849;-57.317577;-67.70913;;617.6
891.0;710.2;;;;;;;;;;;;;;0.73531294;0.27314067;-0.5083773;;;;;617.6
891.0;710.2;;;;;;;;;;;;;;;;;-15.030366;-57.611317;-78.94756;;627.3
891.0;710.2;;;;;;;;;;;;;;0.70351267;0.32410657;-0.46833706;;;;;627.3
891.0;710.2;;;;;;;;;;;;;;;;;-21.565142;-60.78524;-89.57182;;627.3
891.0;710.2;;;;;;;;;;;;;;0.6834315;0.32862332;-0.4697409;;;;;627.3
891.0;710.8;;;;;;;;;;;;;;;;;-25.723288;-66.86987;-101.01245;;636.9
891.0;710.8;;;;;;;;;;;;;;0.6585894;0.36634418;-0.5039216;;;;;636.9
891.0;710.8;;;;;;;;;;;;;;;;;-28.565325;-74.05698;-113.79589;;636.9
891.0;710.8;;;;;;;;;;;;;;0.62031925;0.4257332;-0.51008636;;;;;636.9
891.0;710.8;;;;;;;;;;;;;;;;;-30.877102;-85.72268;-123.52748;;646.6
891.0;710.8;;;;;;;;;;;;;;0.6690268;0.47859126;-0.49555954;;;;;646.6
891.0;710.8;;;;;;;;;;;;;;;;;-34.44395;-97.24723;-124.988556;;646.6
891.0;710.8;;;;;;;;;;;;;;0.74184394;0.5119175;-0.4367809;;;;;646.6
891.0;710.8;;;;;;;;;;;;;;;;;-38.502914;-103.55693;-124.988556;;656.3
891.0;710.8;;;;;;;;;;;;;;0.8430433;0.4852443;-0.2963347;;;;;656.3
891.0;710.8;;;;;;;;;;;;;;;;;-40.219578;-103.225044;-124.988556;;656.3
891.0;710.8;;;;;;;;;;;;;;0.9981994;0.46125674;-0.10345775;;;;;656.3
894.0;824.0;;;;;;;;;;;;;;;;;-39.78469;-91.83019;-124.988556;;665.8
894.0;824.0;;;;;;;;;;;;;;1.1824702;0.37434003;0.10889004;;;;;665.8
894.0;824.0;;;;;;;;;;;;;;;;;-33.272808;-72.89728;-124.988556;;665.8
894.0;824.0;;;;;;;;;;;;;;1.2696921;0.26093325;0.24665059;;;;;665.8
894.0;824.0;;;;;;;;;;;;;;;;;-18.04407;-53.79269;-124.988556;;675.5
894.0;824.0;;;;;;;;;;;;;;1.3918881;0.20654927;0.34925383;;;;;675.5
894.0;824.0;;;;;;;;;;;;;;;;;-7.744072;-34.993286;-124.988556;;675.5
894.0;824.0;;;;;;;;;;;;;;1.5879391;0.096377455;0.4011353;;;;;675.5
894.0;824.0;;;;;;;;;;;;;;;;;-8.068331;-23.834957;-124.988556;;685.2
894.0;824.0;;;;;;;;;;;;;;1.8108463;-0.1015656;0.2890103;;;;;685.2
894.0;824.0;;;;;;;;;;;;;;;;;-11.806849;-13.069551;-124.988556;;685.2
894.0;824.0;;;;;;;;;;;;;;1.9948729;-0.33558154;0.15442365;;;;;685.2
894.0;824.9;;;;;;;;;;;;;;;;;-16.556292;1.6060365;-124.988556;;694.8
894.0;824.9;;;;;;;;;;;;;;1.9970092;-0.6225166;0.0733665;;;;;694.8
894.0;824.9;;;;;;;;;;;;;;;;;-22.034365;8.6901455;-124.988556;;694.8
894.0;824.9;;;;;;;;;;;;;;1.9970092;-0.9902646;-0.094912566;;;;;694.8
894.0;824.9;;;;;;;;;;;;;;;;;-21.938993;8.205665;-124.988556;;704.3
894.0;824.9;;;;;;;;;;;;;;1.9970092;-1.3408002;-0.23029268;;;;;704.3
894.0;824.9;;;;;;;;;;;;;;;;;-24.643698;-11.085848;-124.98093;;704.3
894.0;824.9;;;;;;;;;;;;;;1.9793695;-1.5254983;-0.4553972;;;;;704.3
894.0;824.9;;;;;;;;;;;;;;;;;-29.18714;-35.23362;-124.988556;;714.0
894.0;824.9;;;;;;;;;;;;;;1.7649465;-1.4314401;-0.6902066;;;;;714.0
894.0;824.9;;;;;;;;;;;;;;;;;-36.687065;-49.584946;-124.660484;;714.0
894.0;824.9;;;;;;;;;;;;;;1.609241;-1.1724601;-0.7884152;;;;;714.0
954.0;825.7;;;;;;;;;;;;;;;;;-42.98532;-57.78298;-121.25767;;723.6
954.0;825.7;;;;;;;;;;;;;;1.4842372;-1.0344554;-0.7985473;;;;;723.6
954.0;825.7;;;;;;;;;;;;;;;;;-44.56465;-61.147648;-117.67556;;723.6
954.0;825.7;;;;;;;;;;;;;;1.4138615;-0.9643849;-0.69539475;;;;;723.6
954.0;825.7;;;;;;;;;;;;;;;;;-42.981506;-63.97061;-120.02167;;733.3
954.0;825.7;;;;;;;;;;;;;;1.4628131;-0.74257636;-0.52211064;;;;;733.3
954.0;825.7;;;;;;;;;;;;;;;;;-41.386913;-69.83016;-124.29426;;733.3
954.0;825.7;;;;;;;;;;;;;;1.6013672;-0.52735984;-0.42335278;;;;;733.3
954.0;825.7;;;;;;;;;;;;;;;;;-41.94388;-72.18009;-124.988556;;743.0
954.0;825.7;;;;;;;;;;;;;;1.6505021;-0.2700278;-0.37391278;;;;;743.0
954.0;825.7;;;;;;;;;;;;;;;;;-48.268837;-74.35835;-124.988556;;743.0
954.0;825.7;;;;;;;;;;;;;;1.6168096;-0.060304575;-0.3366802;;;;;743.0
954.0;830.6;;;;;;;;;;;;;;;;;-47.688988;-82.068085;-124.988556;;752.7
954.0;830.6;;;;;;;;;;;;;;1.5979491;-0.005981628;-0.3253273;;;;;752.7
954.0;830.6;;;;;;;;;;;;;;;;;-25.627918;-83.41472;-124.988556;;752.7
954.0;830.6;;;;;;;;;;;;;;1.5229957;0.052980132;-0.24231696;;;;;752.7
954.0;830.6;;;;;;;;;;;;;;;;;-9.590442;-84.69268;-124.988556;;762.3
954.0;830.6;;;;;;;;;;;;;;1.4891201;0.043702506;-0.12933744;;;;;762.3
954.0;830.6;;;;;;;;;;;;;;;;;-0.63325906;-89.34293;-124.988556;;762.3
954.0;830.6;;;;;;;;;;;;;;1.4647053;0.04571673;-0.072634056;;;;;762.3
954.0;830.6;;;;;;;;;;;;;;;;;2.9374065;-89.33912;-124.9733;;771.8
954.0;830.6;;;;;;;;;;;;;;1.4619586;0.06201361;-0.06604206;;;;;771.8
954.0;830.6;;;;;;;;;;;;;;;;;1.0490738;-85.75701;-123.546555;;771.8
954.0;830.6;;;;;;;;;;;;;;1.4016541;-0.010193182;-0.06689657;;;;;771.8
1010.0;883.8;;;;;;;;;;;;;;;;;-4.135258;-77.66198;-120.00641;;781.5
1010.0;883.8;;;;;;;;;;;;;;1.3180944;0.01678518;-0.017578661;;;;;781.5
1010.0;883.8;;;;;;;;;;;;;;;;;-13.447219;-68.2432;-117.728966;;781.5
1010.0;883.8;;;;;;;;;;;;;;1.2396618;0.06817835;0.021973327;;;;;781.5
1010.0;883.8;;;;;;;;;;;;;;;;;-19.760735;-63.40602;-109.82467;;791.1
1010.0;883.8;;;;;;;;;;;;;;1.1572618;0.06439406;0.063966796;;;;;791.1
1010.0;883.8;;;;;;;;;;;;;;;;;-27.985474;-62.784203;-102.07297;;791.1
1010.0;883.8;;;;;;;;;;;;;;1.0589312;0.06573687;0.10541093;;;;;791.1
1010.0;883.8;;;;;;;;;;;;;;;;;-44.873653;-62.673576;-96.186714;;800.8
1010.0;883.8;;;;;;;;;;;;;;0.9798883;0.06146428;0.13763848;;;;;800.8
1010.0;883.8;;;;;;;;;;;;;;;;;-64.439835;-61.51387;-90.849785;;800.8
1010.0;883.8;;;;;;;;;;;;;;0.95638907;0.058656577;0.11578722;;;;;800.8
1010.0;884.5;;;;;;;;;;;;;;;;;-80.7329;-54.37254;-83.87631;;810.4
1010.0;884.5;;;;;;;;;;;;;;0.9401532;0.071657464;0.111514635;;;;;810.4
1010.0;884.5;;;;;;;;;;;;;;;;;-95.69842;-44.946133;-77.70394;;810.4
1010.0;884.5;;;;;;;;;;;;;;0.908475;0.0999176;0.11548204;;;;;810.4
1010.0;884.5;;;;;;;;;;;;;;;;;-110.33967;-35.035248;-72.95068;;819.9
1010.0;884.5;;;;;;;;;;;;;;0.87002164;0.103518784;0.12738426;;;;;819.9
1010.0;884.5;;;;;;;;;;;;;;;;;-120.58244;-26.135288;-67.84264;;819.9
1010.0;884.5;;;;;;;;;;;;;;0.8155767;0.0778222;0.14349803;;;;;819.9
1010.0;884.5;;;;;;;;;;;;;;;;;-124.53459;-20.027771;-63.062683;;829.6
1010.0;884.5;;;;;;;;;;;;;;0.77242345;0.06537065;0.13086337;;;;;829.6
1010.0;884.5;;;;;;;;;;;;;;;;;-124.988556;-15.358439;-58.832058;;829.6
1010.0;884.5;;;;;;;;;;;;;;0.7340312;0.043092135;0.083681755;;;;;829.6
1070.0;943.6;;;;;;;;;;;;;;;;;-124.988556;-12.756737;-55.23087;;839.2
1070.0;943.6;;;;;;;;;;;;;;0.7052217;0.045594655;0.03424177;;;;;839.2
1070.0;943.6;;;;;;;;;;;;;;;;;-124.988556;-12.733848;-51.198612;;839.2
1070.0;943.6;;;;;;;;;;;;;;0.685873;0.03784295;-0.04358043;;;;;839.2
1070.0;943.6;;;;;;;;;;;;;;;;;-124.988556;-11.535996;-46.895504;;848.8
1070.0;943.6;;;;;;;;;;;;;;0.65919983;0.02191229;-0.09936827;;;;;848.8
1070.0;943.6;;;;;;;;;;;;;;;;;-124.988556;-8.69396;-42.25669;;848.8
1070.0;943.6;;;;;;;;;;;;;;0.62947476;-8.5451826E-4;-0.123661004;;;;;848.8
1070.0;943.6;;;;;;;;;;;;;;;;;-124.988556;-5.7412944;-37.659843;;858.4
1070.0;943.6;;;;;;;;;;;;;;0.6074404;-0.02356029;-0.13855404;;;;;858.4
1070.0;943.6;;;;;;;;;;;;;;;;;-124.96948;-2.2431104;-34.302803;;858.4
1070.0;943.6;;;;;;;;;;;;;;0.56892604;-0.059877317;-0.1363567;;;;;858.4
1070.0;944.4;;;;;;;;;;;;;;;;;-123.35963;-0.22888882;-31.220436;;868.0
1070.0;944.4;;;;;;;;;;;;;;0.5238807;-0.089602344;-0.13873714;;;;;868.0
1070.0;944.4;;;;;;;;;;;;;;;;;-117.19108;0.7858516;-28.485214;;868.0
1070.0;944.4;;;;;;;;;;;;;;0.4888455;-0.111087374;-0.1485641;;;;;868.0
1070.0;944.4;;;;;;;;;;;;;;;;;-109.462265;1.2932218;-25.646992;;877.5
1070.0;944.4;;;;;;;;;;;;;;0.4553972;-0.14368114;-0.16028321;;;;;877.5
1070.0;944.4;;;;;;;;;;;;;;;;;-101.42063;1.0528886;-22.408215;;877.5
1070.0;944.4;;;;;;;;;;;;;;0.43220314;-0.17407759;-0.17688528;;;;;877.5
1070.0;944.4;;;;;;;;;;;;;;;;;-91.76153;0.40437025;-19.375439;;887.2
1070.0;944.4;;;;;;;;;;;;;;0.408887;-0.20184942;-0.19275491;;;;;887.2
1070.0;944.4;;;;;;;;;;;;;;;;;-80.816826;-0.10299997;-16.186255;;887.2
1070.0;944.4;;;;;;;;;;;;;;0.38904995;-0.22913297;-0.19837031;;;;;887.2
1131.0;1004.4;;;;;;;;;;;;;;;;;-69.856865;0.24033326;-11.944181;;896.9
1131.0;1004.4;;;;;;;;;;;;;;0.3721427;-0.27069917;-0.20001832;;;;;896.9
1131.0;1004.4;;;;;;;;;;;;;;;;;-57.363354;1.0071108;-8.7397375;;896.9
1131.0;1004.4;;;;;;;;;;;;;;0.35456404;-0.29242834;-0.1998352;;;;;896.9
1131.0;1004.4;;;;;;;;;;;;;;;;;-42.634357;-0.4463332;-5.550554;;906.4
1131.0;1004.4;;;;;;;;;;;;;;0.32886747;-0.31733146;-0.23035371;;;;;906.4
1131.0;1004.4;;;;;;;;;;;;;;;;;-26.768549;-3.78811;-2.338481;;906.4
1131.0;1004.4;;;;;;;;;;;;;;0.31141087;-0.32502213;-0.28797266;;;;;906.4
1131.0;1004.4;;;;;;;;;;;;;;;;;-11.8717;-5.5963316;1.5030366;;916.0
1131.0;1004.4;;;;;;;;;;;;;;0.2971282;-0.35389262;-0.34595782;;;;;916.0
1131.0;1004.4;;;;;;;;;;;;;;;;;3.5287027;-6.599628;5.550554;;916.0
1131.0;1004.4;;;;;;;;;;;;;;0.2862636;-0.38142034;-0.38636434;;;;;916.0
1131.0;1005.2;;;;;;;;;;;;;;;;;18.868069;-6.7979984;8.983886;;925.7
1131.0;1005.2;;;;;;;;;;;;;;0.29047516;-0.39765617;-0.4118778;;;;;925.7
1131.0;1005.2;;;;;;;;;;;;;;;;;33.124027;-5.386517;11.638996;;925.7
1131.0;1005.2;;;;;;;;;;;;;;0.2964568;-0.39765617;-0.4051027;;;;;925.7
1131.0;1005.2;;;;;;;;;;;;;;;;;46.704765;-4.81048;14.706107;;935.4
1131.0;1005.2;;;;;;;;;;;;;;0.29853207;-0.3980224;-0.37946716;;;;;935.4
1131.0;1005.2;;;;;;;;;;;;;;;;;59.163948;-3.89111;17.571032;;935.4
1131.0;1005.2;;;;;;;;;;;;;;0.30842006;-0.3770867;-0.3236793;;;;;935.4
1131.0;1005.2;;;;;;;;;;;;;;;;;67.197945;-1.392407;20.859402;;944.9
1131.0;1005.2;;;;;;;;;;;;;;0.32697532;-0.3679922;-0.26831874;;;;;944.9
1131.0;1005.2;;;;;;;;;;;;;;;;;70.741905;4.20774;25.307474;;944.9
1131.0;1005.2;;;;;;;;;;;;;;0.3630482;-0.3551134;-0.1848201;;;;;944.9
1191.0;1064.4;;;;;;;;;;;;;;;;;69.15875;11.642812;30.259102;;954.6
1191.0;1064.4;;;;;;;;;;;;;;0.41987365;-0.35749382;-0.1159093;;;;;954.6
1191.0;1064.4;;;;;;;;;;;;;;;;;64.603874;22.51503;34.218876;;954.6
1191.0;1064.4;;;;;;;;;;;;;;0.455092;-0.3424177;-0.023377178;;;;;954.6
1191.0;1064.4;;;;;;;;;;;;;;;;;58.431503;32.155064;38.27403;;964.2
1191.0;1064.4;;;;;;;;;;;;;;0.48170415;-0.30677205;0.041444138;;;;;964.2
1191.0;1064.4;;;;;;;;;;;;;;;;;56.56224;36.576435;43.89325;;964.2
1191.0;1064.4;;;;;;;;;;;;;;0.5152745;-0.2684408;0.04956206;;;;;964.2
1191.0;1064.4;;;;;;;;;;;;;;;;;57.561726;36.2331;48.76095;;973.9
1191.0;1064.4;;;;;;;;;;;;;;0.57203895;-0.21936704;-0.012756737;;;;;973.9
1191.0;1064.4;;;;;;;;;;;;;;;;;57.5808;37.686546;52.705467;;973.9
1191.0;1064.4;;;;;;;;;;;;;;0.633137;-0.1683401;-0.055482652;;;;;973.9
1191.0;1065.2;;;;;;;;;;;;;;;;;54.651024;44.24421;54.582355;;983.6
1191.0;1065.2;;;;;;;;;;;;;;0.7540513;-0.056703392;-0.04565569;;;;;983.6
1191.0;1065.2;;;;;;;;;;;;;;;;;53.05643;57.25654;54.95239;;983.6
1191.0;1065.2;;;;;;;;;;;;;;0.8587909;0.068300426;0.028138066;;;;;983.6
1191.0;1065.2;;;;;;;;;;;;;;;;;55.085907;64.603874;52.411724;;993.2
1191.0;1065.2;;;;;;;;;;;;;;0.9029206;0.22400586;0.067445904;;;;;993.2
1191.0;1065.2;;;;;;;;;;;;;;;;;63.623466;58.38191;44.38917;;993.2
1191.0;1065.2;;;;;;;;;;;;;;0.96731466;0.41987365;-2.4414808E-4;;;;;993.2
1191.0;1065.2;;;;;;;;;;;;;;;;;73.04224;40.128025;33.288067;;1002.8
1191.0;1065.2;;;;;;;;;;;;;;1.051912;0.6638386;-0.19910276;;;;;1002.8
1191.0;1065.2;;;;;;;;;;;;;;;;;74.007385;16.312143;22.179325;;1002.8
1191.0;1065.2;;;;;;;;;;;;;;1.1957152;0.91036713;-0.4727317;;;;;1002.8
1193.0;1124.9;;;;;;;;;;;;;;;;;62.70028;4.291665;9.189886;;1012.4
1193.0;1124.9;;;;;;;;;;;;;;1.4056826;1.0904263;-0.722129;;;;;1012.4
1193.0;1124.9;;;;;;;;;;;;;;;;;51.3245;4.3107395;-3.9864802;;1012.4
1193.0;1124.9;;;;;;;;;;;;;;1.5871456;1.3472091;-0.7459334;;;;;1012.4
1193.0;1124.9;;;;;;;;;;;;;;;;;43.336285;-6.469924;-7.827998;;1022.0
1193.0;1124.9;;;;;;;;;;;;;;1.655324;1.5052339;-0.8834498;;;;;1022.0
1193.0;1124.9;;;;;;;;;;;;;;;;;41.96295;-15.018921;-11.909848;;1022.0
1193.0;1124.9;;;;;;;;;;;;;;1.6150395;1.5278786;-1.0373242;;;;;1022.0
1193.0;1124.9;;;;;;;;;;;;;;;;;34.18836;-25.894955;-11.600848;;1031.7
1193.0;1124.9;;;;;;;;;;;;;;1.6255989;1.6047243;-1.175512;;;;;1031.7
1193.0;1124.9;;;;;;;;;;;;;;;;;6.8933682;-27.306437;0.18692587;;1031.7
1193.0;1124.9;;;;;;;;;;;;;;1.5809809;1.3960997;-1.1804559;;;;;1031.7
1194.0;1126.0;;;;;;;;;;;;;;;;;-27.607805;-25.757622;4.909665;;1041.3
1194.0;1126.0;;;;;;;;;;;;;;1.5142064;1.0741905;-1.0411085;;;;;1041.3
1194.0;1126.0;;;;;;;;;;;;;;;;;-53.277687;-25.7004;-3.6507769;;1041.3
1194.0;1126.0;;;;;;;;;;;;;;1.4433423;1.0129703;-0.8753929;;;;;1041.3
1194.0;1126.0;;;;;;;;;;;;;;;;;-71.58879;-22.209845;-15.305033;;1051.0
1194.0;1126.0;;;;;;;;;;;;;;1.307352;0.9461348;-0.7177343;;;;;1051.0
1194.0;1126.0;;;;;;;;;;;;;;;;;-77.17368;-22.045809;-22.858364;;1051.0
1194.0;1126.0;;;;;;;;;;;;;;1.1567736;0.7444685;-0.65218055;;;;;1051.0
1194.0;1126.0;;;;;;;;;;;;;;;;;-70.585495;-26.291697;-27.169104;;1060.5
1194.0;1126.0;;;;;;;;;;;;;;1.0441602;0.56892604;-0.7179785;;;;;1060.5
1194.0;1126.0;;;;;;;;;;;;;;;;;-59.636986;-31.250954;-29.049807;;1060.5
1194.0;1126.0;;;;;;;;;;;;;;0.918363;0.42396313;-0.7515488;;;;;1060.5
1194.0;1128.8;;;;0.0;0.0;0.0;;;;;;;;;;;;;;;
1194.0;1128.8;;;;-0.13712312;0.2052727;0.059459694;;;;;;;;;;;;;;;
1194.0;1128.8;;;;-0.64651114;0.9547502;0.17320253;;;;;;;;;;;;;;;
1194.0;1128.8;;;;-0.71597296;1.0644723;0.17800142;;;;;;;;;;;;;;;
1194.0;1128.8;;;;-0.71978384;1.0677949;0.17591478;;;;;;;;;;;;;;;
1194.0;1138.9;;;;-0.72390753;1.0735742;0.17370988;;;;;;;;;;;;;;;
1194.0;1138.9;;;;-0.72715;1.0812265;0.17200471;;;;;;;;;;;;;;;
1194.0;1138.9;;;;-0.7294312;1.0909082;0.17086793;;;;;;;;;;;;;;;
1194.0;1138.9;;;;-0.73188025;1.1031762;0.17073824;;;;;;;;;;;;;;;
1194.0;1138.9;;;;-0.733223;1.1175691;0.17102815;;;;;;;;;;;;;;;
1250.0;1140.1;57475;57472;11493;;;;;;;;;;;;;;;;;;
1250.0;1148.7;;;;-0.73401266;1.1336786;0.17353822;;;;;;;;;;;;;;;
1250.0;1148.7;;;;-0.7348862;1.1506082;0.17736818;;;;;;;;;;;;;;;
1250.0;1148.7;;;;-0.73538977;1.1681672;0.18251802;;;;;;;;;;;;;;;
1250.0;1148.7;;;;-0.73605734;1.1871377;0.18878558;;;;;;;;;;;;;;;
1250.0;1148.7;;;;-0.7370339;1.2066232;0.19586948;;;;;;;;;;;;;;;
1250.0;1158.7;;;;-0.7380524;1.2254831;0.20496371;;;;;;;;;;;;;;;
1250.0;1158.7;;;;-0.7391053;1.2435724;0.21689227;;;;;;;;;;;;;;;
1250.0;1158.7;;;;-0.7393113;1.2598459;0.2294083;;;;;;;;;;;;;;;
1250.0;1158.7;;;;-0.7402192;1.2747957;0.24092105;;;;;;;;;;;;;;;
1250.0;1158.7;;;;-0.7403298;tammi.78;0.25165942;;;;;;;;;;;;;;;
1250.0;1160.1;73961;73815;11490;;;;;;;;;;;;;;;;;;
1250.0;1166.5;;;;;;;;;;;;;0;;;;;;;;
1250.0;1166.5;;;;;;;;;;;;;0;;;;;;;;
1250.0;1166.5;;;;;;;;;;;;;-1;;;;;;;;
1250.0;1166.5;;;;;;;;;;;;;-2;;;;;;;;
1250.0;1166.5;;;;;;;;;;;;;-3;;;;;;;;
1250.0;1168.8;;;;-0.7402573;1.2996789;0.2627335;;;;;;;;;;;;;;;
1250.0;1168.8;;;;-0.74111944;1.3090135;0.27321628;;;;;;;;;;;;;;;
1250.0;1168.8;;;;-0.74145895;1.316372;0.28377917;;;;;;;;;;;;;;;
1250.0;1168.8;;;;-0.74161154;1.3225785;0.29371265;;;;;;;;;;;;;;;
1250.0;1168.8;;;;-0.74159247;1.3264161;0.30240634;;;;;;;;;;;;;;;
1252.0;1178.9;;;;-0.7402726;1.3283311;0.30960086;;;;;;;;;;;;;;;
1252.0;1178.9;;;;-0.7385941;1.3291894;0.3154526;;;;;;;;;;;;;;;
1252.0;1178.9;;;;-0.73653036;1.3283998;0.32036975;;;;;;;;;;;;;;;
1252.0;1178.9;;;;-0.7337838;1.3268701;0.32613376;;;;;;;;;;;;;;;
1252.0;1178.9;;;;-0.7323037;1.3248788;0.33119968;;;;;;;;;;;;;;;
1252.0;1180.4;90202;90300;11502;;;;;;;;;;;;;;;;;;
1252.0;1185.1;;;;;;;;;;;;;;;;;-46.73147;-40.219578;-27.665028;;1070.2
1252.0;1185.1;;;;;;;;;;;;;;0.7912229;0.2842494;-0.7394635;;;;;1070.2
1252.0;1185.1;;;;;;;;;;;;;;;;;-40.21195;-47.254097;-23.602253;;1070.2
1252.0;1185.1;;;;;;;;;;;;;;0.6646321;0.12683493;-0.6965545;;;;;1070.2
1252.0;1185.1;;;;;;;;;;;;;;;;;-40.238655;-44.679096;-19.882809;;1079.7
1252.0;1185.1;;;;;;;;;;;;;;0.5999939;0.009643849;-0.53474534;;;;;1079.7
1252.0;1185.1;;;;;;;;;;;;;;;;;-41.974396;-33.974728;-14.996032;;1079.7
1252.0;1185.1;;;;;;;;;;;;;;0.58571124;-0.07470931;-0.26075014;;;;;1079.7
1252.0;1185.1;;;;;;;;;;;;;;;;;-36.442917;-27.165289;-9.022035;;1089.5
1252.0;1185.1;;;;;;;;;;;;;;0.62245554;-0.16229743;-0.009582812;;;;;1089.5
1252.0;1185.1;;;;;;;;;;;;;;;;;-28.065584;-24.27366;-0.34714803;;1089.5
1252.0;1185.1;;;;;;;;;;;;;;0.7401349;-0.27411726;0.14178899;;;;;1089.5
1253.0;1185.9;;;;;;;;;;;;;;;;;-23.926512;-17.544327;11.074404;;1099.1
1253.0;1185.9;;;;;;;;;;;;;;0.9225745;-0.36463514;0.22882779;;;;;1099.1
1253.0;1185.9;;;;;;;;;;;;;;;;;-27.15766;-13.336589;21.240883;;1099.1
1253.0;1185.9;;;;;;;;;;;;;;1.1452986;-0.34290597;0.1474044;;;;;1099.1
1253.0;1185.9;;;;;;;;;;;;;;;;;-32.353436;-23.67092;29.744102;;1108.7
1253.0;1185.9;;;;;;;;;;;;;;1.4119083;-0.2582476;-0.09289835;;;;;1108.7
1253.0;1185.9;;;;;;;;;;;;;;;;;-39.97543;-42.18421;43.698692;;1108.7
1253.0;1185.9;;;;;;;;;;;;;;1.5901364;-0.3073214;-0.31989503;;;;;1108.7
1253.0;1185.9;;;;;;;;;;;;;;;;;-50.14191;-47.88354;57.199318;;1118.4
1253.0;1185.9;;;;;;;;;;;;;;1.6478775;-0.40180668;-0.4079104;;;;;1118.4
1253.0;1185.9;;;;;;;;;;;;;;;;;-56.199833;-35.771507;64.569534;;1118.4
1253.0;1185.9;;;;;;;;;;;;;;1.5254983;-0.47627187;-0.40931424;;;;;1118.4
1253.0;1188.9;;;;-0.73154837;1.3211709;0.33493045;;;;;;;;;;;;;;;
1253.0;1188.9;;;;-0.7325211;1.3167421;0.33747485;;;;;;;;;;;;;;;
1253.0;1188.9;;;;-0.73465735;1.3124696;0.339592;;;;;;;;;;;;;;;
1253.0;1188.9;;;;-0.7364655;1.3085977;0.34121326;;;;;;;;;;;;;;;
1253.0;1188.9;;;;-0.73717505;1.3057138;0.34159854;;;;;;;;;;;;;;;
1253.0;1199.0;;;;-0.73678976;1.3038179;0.34204486;;;;;;;;;;;;;;;
1253.0;1199.0;;;;-0.73447424;1.3034784;0.34333804;;;;;;;;;;;;;;;
1253.0;1199.0;;;;-0.7297707;1.3050157;0.34461597;;;;;;;;;;;;;;;
1253.0;1199.0;;;;-0.7230759;1.3069116;0.3458672;;;;;;;;;;;;;;;
1253.0;1199.0;;;;-0.71535116;1.3097192;0.34751132;;;;;;;;;;;;;;;
1253.0;1200.4;106609;106680;11501;;;;;;;;;;;;;;;;;;
1309.0;1206.7;;;;;;;;;;;;;-3;;;;;;;;
1309.0;1206.7;;;;;;;;;;;;;-7;;;;;;;;
1309.0;1206.7;;;;;;;;;;;;;-10;;;;;;;;
1309.0;1206.7;;;;;;;;;;;;;-4;;;;;;;;
1309.0;1206.7;;;;;;;;;;;;;-13;;;;;;;;
1309.0;1208.8;;;;-0.7067376;1.3124963;0.34861758;;;;;;;;;;;;;;;
1309.0;1208.8;;;;-0.69671255;1.316002;0.34973148;;;;;;;;;;;;;;;
1309.0;1208.8;;;;-0.6864663;1.3187753;0.35095218;;;;;;;;;;;;;;;
1309.0;1208.8;;;;-0.67636496;1.3212587;0.3522072;;;;;;;;;;;;;;;
1309.0;1208.8;;;;-0.6663323;1.3232919;0.3548775;;;;;;;;;;;;;;;
1309.0;1218.8;;;;-0.65717703;1.3249513;0.35902408;;;;;;;;;;;;;;;
1309.0;1218.8;;;;-0.6487275;1.3251115;0.36340716;;;;;;;;;;;;;;;
1309.0;1218.8;;;;-0.64098364;1.3242723;0.36822894;;;;;;;;;;;;;;;
1309.0;1218.8;;;;-0.6334649;1.3212587;0.37445834;;;;;;;;;;;;;;;
1309.0;1218.8;;;;-0.6246453;1.3165284;0.3804055;;;;;;;;;;;;;;;
1309.0;1220.4;123005;123036;11497;;;;;;;;;;;;;;;;;;
1309.0;1229.0;;;;-0.6143685;1.3099519;0.38694006;;;;;;;;;;;;;;;
1309.0;1229.0;;;;-0.6031609;1.301674;0.39324576;;;;;;;;;;;;;;;
1309.0;1229.0;;;;-0.59035116;1.2921449;0.40002066;;;;;;;;;;;;;;;
1309.0;1229.0;;;;-0.57672125;1.2814981;0.40511328;;;;;;;;;;;;;;;
1309.0;1229.0;;;;-0.562542;1.2696267;0.40840918;;;;;;;;;;;;;;;
1311.0;1239.1;;;;-0.54832464;1.2575761;0.41164023;;;;;;;;;;;;;;;
1311.0;1239.1;;;;-0.5340424;1.2456552;0.41289526;;;;;;;;;;;;;;;
1311.0;1239.1;;;;-0.5197297;1.2334329;0.41432577;;;;;;;;;;;;;;;
1311.0;1239.1;;;;-0.50674444;1.2220727;0.4147721;;;;;;;;;;;;;;;
1311.0;1239.1;;;;-0.49493033;1.2126771;0.41345984;;;;;;;;;;;;;;;
1311.0;1240.7;139437;139482;11507;;;;;;;;;;;;;;;;;;
1311.0;1245.2;;;;;;;;;;;;;;;;;-51.84332;-17.986847;61.391796;;1127.9
1311.0;1245.2;;;;;;;;;;;;;;1.3349407;-0.4054689;-0.36921293;;;;;1127.9
1311.0;1245.2;;;;;;;;;;;;;;;;;-41.798912;-4.970702;57.229836;;1127.9
1311.0;1245.2;;;;;;;;;;;;;;1.2104862;-0.28119755;-0.3206885;;;;;1127.9
1311.0;1245.2;;;;;;;;;;;;;;;;;-26.882992;-2.2087772;49.695576;;1137.6
1311.0;1245.2;;;;;;;;;;;;;;1.2146367;-0.09063997;-0.27411726;;;;;1137.6
1311.0;1245.2;;;;;;;;;;;;;;;;;-6.0350356;-12.417218;37.37373;;1137.6
1311.0;1245.2;;;;;;;;;;;;;;1.261391;0.1363567;-0.3096408;;;;;1137.6
1311.0;1245.2;;;;;;;;;;;;;;;;;11.074404;-19.547104;27.699362;;1147.2
1311.0;1245.2;;;;;;;;;;;;;;1.2812281;0.28321177;-0.2804651;;;;;1147.2
1311.0;1245.2;;;;;;;;;;;;;;;;;10.891294;-16.170996;16.415144;;1147.2
1311.0;1245.2;;;;;;;;;;;;;;1.3486129;0.40784937;-0.118533894;;;;;1147.2
1313.0;1246.4;;;;;;;;;;;;;;;;;1.1024811;-15.076143;4.459517;;1156.9
1313.0;1246.4;;;;;;;;;;;;;;1.485641;0.5216834;-0.010742515;;;;;1156.9
1313.0;1246.4;;;;;;;;;;;;;;;;;-9.670553;-12.237923;-5.405591;;1156.9
1313.0;1246.4;;;;;;;;;;;;;;1.5859859;0.5522019;0.047059543;;;;;1156.9
1313.0;1246.4;;;;;;;;;;;;;;;;;-19.066439;-1.6518143;-14.370403;;1166.6
1313.0;1246.4;;;;;;;;;;;;;;1.5834833;0.4464858;0.07806635;;;;;1166.6
1313.0;1246.4;;;;;;;;;;;;;;;;;-20.390179;11.547441;-21.164587;;1166.6
1313.0;1246.4;;;;;;;;;;;;;;1.4615924;0.2313303;0.030335398;;;;;1166.6
1313.0;1246.4;;;;;;;;;;;;;;;;;-23.136845;26.905882;-24.70855;;1176.2
1313.0;1246.4;;;;;;;;;;;;;;1.3094271;0.011963256;0.013245033;;;;;1176.2
1313.0;1246.4;;;;;;;;;;;;;;;;;-22.835474;34.65758;-21.336254;;1176.2
1313.0;1246.4;;;;;;;;;;;;;;1.1878414;-0.19000824;0.01843318;;;;;1176.2
1313.0;1246.7;;;;;;;;;;;;;-4;;;;;;;;
1313.0;1246.7;;;;;;;;;;;;;2;;;;;;;;
1313.0;1246.7;;;;;;;;;;;;;-31;;;;;;;;
1313.0;1246.7;;;;;;;;;;;;;55;;;;;;;;
1313.0;1246.7;;;;;;;;;;;;;-14;;;;;;;;
1313.0;1248.9;;;;-0.48371893;1.2048608;0.41253287;;;;;;;;;;;;;;;
1313.0;1248.9;;;;-0.47318274;1.1985666;0.41081625;;;;;;;;;;;;;;;
1313.0;1248.9;;;;-0.46315008;1.1953889;0.40864187;;;;;;;;;;;;;;;
1313.0;1248.9;;;;-0.45387274;1.1945802;0.40385062;;;;;;;;;;;;;;;
1313.0;1248.9;;;;-0.44578558;1.1967393;0.3993836;;;;;;;;;;;;;;;
1370.0;1259.0;;;;-0.43827826;1.2021104;0.39561468;;;;;;;;;;;;;;;
1370.0;1259.0;;;;-0.43220145;1.2104989;0.3914643;;;;;;;;;;;;;;;
1370.0;1259.0;;;;-0.42703635;1.2223436;0.3868943;;;;;;;;;;;;;;;
1370.0;1259.0;;;;-0.42202383;1.2368509;0.38215262;;;;;;;;;;;;;;;
1370.0;1259.0;;;;-0.4183579;1.2534486;0.37788397;;;;;;;;;;;;;;;
1370.0;1260.6;155737;155826;11494;;;;;;;;;;;;;;;;;;
1370.0;1268.9;;;;-0.41556174;1.2720834;0.37388995;;;;;;;;;;;;;;;
1370.0;1268.9;;;;-0.4130364;1.2921983;0.36981204;;;;;;;;;;;;;;;
1370.0;1268.9;;;;-0.41071326;1.3138086;0.36549762;;;;;;;;;;;;;;;
1370.0;1268.9;;;;-0.40909582;1.3359033;0.36199954;;;;;;;;;;;;;;;
1370.0;1268.9;;;;-0.40738684;1.3580171;0.3585358;;;;;;;;;;;;;;;
1370.0;1278.9;;;;-0.4059258;1.3796731;0.3550606;;;;;;;;;;;;;;;
1370.0;1278.9;;;;-0.404213;1.40123;0.3522072;;;;;;;;;;;;;;;
1370.0;1278.9;;;;-0.40259558;1.4221612;0.3504372;;;;;;;;;;;;;;;
1370.0;1278.9;;;;-0.40105063;1.4415513;0.34738162;;;;;;;;;;;;;;;
1370.0;1278.9;;;;-0.39941412;1.4600183;0.3449364;;;;;;;;;;;;;;;
1370.0;1280.6;172258;172144;11507;;;;;;;;;;;;;;;;;;
1370.0;1286.9;;;;;;;;;;;;;-286;;;;;;;;
1370.0;1286.9;;;;;;;;;;;;;-31;;;;;;;;
1370.0;1286.9;;;;;;;;;;;;;561;;;;;;;;
1370.0;1286.9;;;;;;;;;;;;;-98;;;;;;;;
1370.0;1286.9;;;;;;;;;;;;;-2871;;;;;;;;
1371.0;1289.0;;;;-0.39784247;1.4775163;0.34338763;;;;;;;;;;;;;;;
1371.0;1289.0;;;;-0.39614874;1.4931489;0.34180453;;;;;;;;;;;;;;;
1371.0;1289.0;;;;-0.3945275;1.5076792;0.34092334;;;;;;;;;;;;;;;
1371.0;1289.0;;;;-0.3940087;1.5217097;0.33999637;;;;;;;;;;;;;;;
1371.0;1289.0;;;;-0.39402395;1.5344927;0.33910373;;;;;;;;;;;;;;;
1371.0;1299.1;;;;-0.3947068;1.5472834;0.33758548;;;;;;;;;;;;;;;
1371.0;1299.1;;;;-0.39552695;1.5597918;0.3365288;;;;;;;;;;;;;;;
1371.0;1299.1;;;;-0.39661032;1.5722086;0.33549884;;;;;;;;;;;;;;;
1371.0;1299.1;;;;-0.39789206;1.5843699;0.33384326;;;;;;;;;;;;;;;
1371.0;1299.1;;;;-0.39900213;1.5966418;0.330761;;;;;;;;;;;;;;;
1371.0;1300.9;188624;188497;11513;;;;;;;;;;;;;;;;;;
1371.0;1305.5;;;;;;;;;;;;;;;;;-14.85107;37.19062;-15.221107;;1185.8
1371.0;1305.5;;;;;;;;;;;;;;1.0362865;-0.32264167;0.03009125;;;;;1185.8
1371.0;1305.5;;;;;;;;;;;;;;;;;-7.9729605;40.261543;-10.456405;;1185.8
1371.0;1305.5;;;;;;;;;;;;;;0.9000519;-0.3983276;0.05633717;;;;;1185.8
1371.0;1305.5;;;;;;;;;;;;;;;;;-2.8344066;40.482803;-4.0894804;;1195.4
1371.0;1305.5;;;;;;;;;;;;;;0.8186285;-0.4647969;0.052491836;;;;;1195.4
1371.0;1305.5;;;;;;;;;;;;;;;;;2.5063326;35.294655;10.505997;;1195.4
1371.0;1305.5;;;;;;;;;;;;;;0.7499008;-0.5698416;0.013122959;;;;;1195.4
1371.0;1305.5;;;;;;;;;;;;;;;;;12.909329;22.408215;28.176214;;1205.0
1371.0;1305.5;;;;;;;;;;;;;;0.6388745;-0.74727625;-0.09607227;;;;;1205.0
1371.0;1305.5;;;;;;;;;;;;;;;;;38.48384;-7.778405;36.488693;;1205.0
1371.0;1305.5;;;;;;;;;;;;;;0.5733818;-0.8968169;-0.27167577;;;;;1205.0
1373.0;1306.2;;;;;;;;;;;;;;;;;72.57683;-56.287575;41.268654;;1214.6
1373.0;1306.2;;;;;;;;;;;;;;0.57368696;-0.9749443;-0.58540606;;;;;1214.6
1373.0;1306.2;;;;;;;;;;;;;;;;;105.15153;-100.50127;49.70702;;1214.6
1373.0;1306.2;;;;;;;;;;;;;;0.6204413;-0.985931;-0.86483353;;;;;1214.6
1373.0;1306.2;;;;;;;;;;;;;;;;;114.73815;-111.14078;55.16602;;1224.2
1373.0;1306.2;;;;;;;;;;;;;;0.6720176;-1.040376;-1.1017182;;;;;1224.2
1373.0;1306.2;;;;;;;;;;;;;;;;;102.24464;-71.84438;60.220646;;1224.2
1373.0;1306.2;;;;;;;;;;;;;;0.8009888;-1.0054017;-1.0377514;;;;;1224.2
1373.0;1306.2;;;;;;;;;;;;;;;;;71.67272;-8.713035;81.09149;;1233.9
1373.0;1306.2;;;;;;;;;;;;;;0.9708548;-0.8647725;-0.67018646;;;;;1233.9
1373.0;1306.2;;;;;;;;;;;;;;;;;39.414654;31.84225;84.49431;;1233.9
1373.0;1306.2;;;;;;;;;;;;;;1.193701;-0.67018646;-0.35572374;;;;;1233.9
1373.0;1309.0;;;;-0.4002419;1.6087344;0.32782748;;;;;;;;;;;;;;;
1373.0;1309.0;;;;-0.4008599;1.6207888;0.3252373;;;;;;;;;;;;;;;
1373.0;1309.0;;;;-0.4015656;1.6331179;0.321888;;;;;;;;;;;;;;;
1373.0;1309.0;;;;-0.40214545;1.6448939;0.31787112;;;;;;;;;;;;;;;
1373.0;1309.0;;;;-0.40272528;1.6557429;0.31333163;;;;;;;;;;;;;;;
1373.0;1319.1;;;;-0.4026566;1.6657183;0.3084717;;;;;;;;;;;;;;;
1373.0;1319.1;;;;-0.40223318;1.6746638;0.30278018;;;;;;;;;;;;;;;
1373.0;1319.1;;;;-0.40124136;1.6827929;0.29865268;;;;;;;;;;;;;;;
1373.0;1319.1;;;;-0.39926535;1.6903956;0.29532626;;;;;;;;;;;;;;;
1373.0;1319.1;;;;-0.3959046;1.696564;0.291626;;;;;;;;;;;;;;;
1430.0;1320.4;;;;;;;;;;;;;;;;;28.839993;49.565872;75.14039;;1243.6
1430.0;1320.4;;;;;;;;;;;;;;1.3320719;-0.56575215;-0.10504471;;;;;1243.6
1430.0;1320.4;;;;;;;;;;;;;;;;;33.013397;42.47032;65.47746;;1243.6
1430.0;1320.4;;;;;;;;;;;;;;1.381634;-0.39429915;-0.036133915;;;;;1243.6
1430.0;1320.4;;;;;;;;;;;;;;;;;43.61095;18.4637;56.142612;;1253.2
1430.0;1320.4;;;;;;;;;;;;;;1.3335978;-0.2592242;-0.21588793;;;;;1253.2
1430.0;1320.4;;;;;;;;;;;;;;;;;65.17991;0.034333322;47.807247;;1253.2
1430.0;1320.4;;;;;;;;;;;;;;1.2092655;-0.15778069;-0.41090122;;;;;1253.2
1430.0;1320.4;;;;;;;;;;;;;;;;;85.28397;-6.897183;41.71499;;1262.8
1430.0;1320.4;;;;;;;;;;;;;;1.1221656;-0.03216651;-0.5272378;;;;;1262.8
1430.0;1320.4;;;;;;;;;;;;;;;;;92.21931;-3.1853695;38.869137;;1262.8
1430.0;1320.4;;;;;;;;;;;;;;1.0961639;0.07061983;-0.5922422;;;;;1262.8
1430.0;1320.7;204944;204870;11517;;;;;;;;;;;;;;;;;;
1430.0;1326.9;;;;;;;;;;;;;-6275;;;;;;;;
1430.0;1326.9;;;;;;;;;;;;;-7995;;;;;;;;
1430.0;1326.9;;;;;;;;;;;;;-7645;;;;;;;;
1430.0;1326.9;;;;;;;;;;;;;-6712;;;;;;;;
1430.0;1326.9;;;;;;;;;;;;;-6389;;;;;;;;
1430.0;1328.9;;;;-0.39251715;1.7015612;0.28795245;;;;;;;;;;;;;;;
1430.0;1328.9;;;;-0.38782507;1.7053874;0.2849007;;;;;;;;;;;;;;;
1430.0;1328.9;;;;-0.38333136;1.7081301;0.28114322;;;;;;;;;;;;;;;
1430.0;1328.9;;;;-0.3793183;1.7098086;0.27537158;;;;;;;;;;;;;;;
1430.0;1328.9;;;;-0.37454608;1.7103808;0.2711487;;;;;;;;;;;;;;;
1434.0;1338.9;;;;-0.3704796;1.7089617;0.2633324;;;;;;;;;;;;;;;
1434.0;1338.9;;;;-0.36545184;1.7064402;0.2589722;;;;;;;;;;;;;;;
1434.0;1338.9;;;;-0.3610268;1.7022669;0.25239947;;;;;;;;;;;;;;;
1434.0;1338.9;;;;-0.3568459;1.6954386;0.24581149;;;;;;;;;;;;;;;
1434.0;1338.9;;;;-0.35389712;1.687321;0.23935321;;;;;;;;;;;;;;;
1434.0;1340.8;221322;221328;11523;;;;;;;;;;;;;;;;;;
1434.0;1349.0;;;;-0.34880832;1.6775019;0.23278049;;;;;;;;;;;;;;;
1434.0;1349.0;;;;-0.34373477;1.6663249;0.22679523;;;;;;;;;;;;;;;
1434.0;1349.0;;;;-0.3409157;1.6523211;0.21805194;;;;;;;;;;;;;;;
1434.0;1349.0;;;;-0.33671954;1.6368372;0.21021274;;;;;;;;;;;;;;;
1434.0;1349.0;;;;-0.3326569;1.6202471;0.20507815;;;;;;;;;;;;;;;
1434.0;1359.2;;;;-0.3293114;1.6021769;0.1986542;;;;;;;;;;;;;;;
1434.0;1359.2;;;;-0.32607272;1.5831263;0.19247058;;;;;;;;;;;;;;;
1434.0;1359.2;;;;-0.32486728;1.5631526;0.18732072;;;;;;;;;;;;;;;
1434.0;1359.2;;;;-0.32398608;1.5428202;0.18140413;;;;;;;;;;;;;;;
1434.0;1359.2;;;;-0.32297137;1.521435;0.17669298;;;;;;;;;;;;;;;
1434.0;1361.1;237849;237771;11533;;;;;;;;;;;;;;;;;;
1436.0;1365.6;;;;;;;;;;;;;;;;;90.52934;8.434553;39.84954;;1272.2
1436.0;1365.6;;;;;;;;;;;;;;1.038667;0.13043611;-0.56386;;;;;1272.2
1436.0;1365.6;;;;;;;;;;;;;;;;;90.18982;15.488144;48.650322;;1272.2
1436.0;1365.6;;;;;;;;;;;;;;0.956267;0.07513657;-0.4509415;;;;;1272.2
1436.0;1365.6;;;;;;;;;;;;;;;;;90.3386;9.12122;51.969208;;1281.8
1436.0;1365.6;;;;;;;;;;;;;;1.0025331;0.04834132;-0.41645557;;;;;1281.8
1436.0;1365.6;;;;;;;;;;;;;;;;;84.845276;1.6632588;51.461838;;1281.8
1436.0;1365.6;;;;;;;;;;;;;;1.0417188;0.06469924;-0.43647572;;;;;1281.8
1436.0;1365.6;;;;;;;;;;;;;;;;;72.51961;0.7477035;52.972504;;1291.4
1436.0;1365.6;;;;;;;;;;;;;;1.0641193;0.09118931;-0.39643544;;;;;1291.4
1436.0;1365.6;;;;;;;;;;;;;;;;;57.744835;1.3046663;58.664207;;1291.4
1436.0;1365.6;;;;;;;;;;;;;;1.043672;0.053102206;-0.31867427;;;;;1291.4
1436.0;1367.2;;;;;;;;;;;;;-6418;;;;;;;;
1436.0;1367.2;;;;;;;;;;;;;-6276;;;;;;;;
1436.0;1367.2;;;;;;;;;;;;;-6060;;;;;;;;
1436.0;1367.2;;;;;;;;;;;;;-5898;;;;;;;;
1436.0;1367.2;;;;;;;;;;;;;-5800;;;;;;;;
1436.0;1369.1;;;;-0.31958392;1.5002902;0.17327501;;;;;;;;;;;;;;;
1436.0;1369.1;;;;-0.31845477;1.4782373;0.167511;;;;;;;;;;;;;;;
1436.0;1369.1;;;;-0.31657794;1.4567147;0.16349031;;;;;;;;;;;;;;;
1436.0;1369.1;;;;-0.31512454;1.4347917;0.15851976;;;;;;;;;;;;;;;
1436.0;1369.1;;;;-0.31120303;1.4134637;0.15574647;;;;;;;;;;;;;;;
1487.0;1379.2;;;;-0.3131142;1.3921853;0.14954759;;;;;;;;;;;;;;;
1487.0;1379.2;;;;-0.31147388;1.3703729;0.14688112;;;;;;;;;;;;;;;
1487.0;1379.2;;;;-0.30682376;1.3498498;0.14545442;;;;;;;;;;;;;;;
1487.0;1379.2;;;;-0.30329135;1.3299867;0.14141084;;;;;;;;;;;;;;;
1487.0;1379.2;;;;-0.30146793;1.3102647;0.1367798;;;;;;;;;;;;;;;
1487.0;1381.1;;;;;;;;;;;;;;;;;42.565693;-2.3270364;65.40117;;1301.1
1487.0;1381.1;;;;;;;;;;;;;;1.0101017;-0.0045167394;-0.27686393;;;;;1301.1
1487.0;1381.1;;;;;;;;;;;;;;;;;30.079805;-5.8442945;67.67098;;1301.1
1487.0;1381.1;;;;;;;;;;;;;;0.97903377;-0.018189032;-0.31891844;;;;;1301.1
1487.0;1381.1;;;;;;;;;;;;;;;;;24.70855;2.5063326;68.15164;;1310.8
1487.0;1381.1;;;;;;;;;;;;;;0.924894;-0.070986055;-0.352855;;;;;1310.8
1487.0;1381.1;;;;;;;;;;;;;;;;;27.787102;15.77807;67.75872;;1310.8
1487.0;1381.1;;;;;;;;;;;;;;0.8702048;-0.119327374;-0.37128818;;;;;1310.8
1487.0;1381.1;;;;;;;;;;;;;;;;;36.149174;25.528732;67.45735;;1320.4
1487.0;1381.1;;;;;;;;;;;;;;0.8316294;-0.17242958;-0.4161504;;;;;1320.4
1487.0;1381.1;;;;;;;;;;;;;;;;;45.83117;33.665733;66.34343;;1320.4
1487.0;1381.1;;;;;;;;;;;;;;0.79592276;-0.18573564;-0.42799157;;;;;1320.4
1487.0;1380.9;254190;254141;11543;;;;;;;;;;;;;;;;;;
1487.0;1389.0;;;;-0.2992287;1.2908899;0.13284685;;;;;;;;;;;;;;;
1487.0;1389.0;;;;-0.29690555;1.2716867;0.12988664;;;;;;;;;;;;;;;
1487.0;1389.0;;;;-0.29486087;1.2530862;0.12690355;;;;;;;;;;;;;;;
1487.0;1389.0;;;;-0.29270938;1.2358896;0.124481216;;;;;;;;;;;;;;;
1487.0;1389.0;;;;-0.29253772;1.2185899;0.12016679;;;;;;;;;;;;;;;
1490.0;1399.0;;;;-0.29109195;1.2009088;0.117252365;;;;;;;;;;;;;;;
1490.0;1399.0;;;;-0.28837588;1.1841165;0.1150551;;;;;;;;;;;;;;;
1490.0;1399.0;;;;-0.2866707;1.1679345;0.11286546;;;;;;;;;;;;;;;
1490.0;1399.0;;;;-0.28312686;1.1524125;0.111202255;;;;;;;;;;;;;;;
1490.0;1399.0;;;;-0.28060916;1.1368982;0.10767366;;;;;;;;;;;;;;;
1490.0;1401.0;262143;262143;11564;;;;;;;;;;;;;;;;;;
1490.0;1407.2;;;;;;;;;;;;;-5897;;;;;;;;
1490.0;1407.2;;;;;;;;;;;;;-5982;;;;;;;;
1490.0;1407.2;;;;;;;;;;;;;-5543;;;;;;;;
1490.0;1407.2;;;;;;;;;;;;;-4609;;;;;;;;
1490.0;1407.2;;;;;;;;;;;;;-3727;;;;;;;;
1490.0;1409.1;;;;-0.2809296;1.1222688;0.10355379;;;;;;;;;;;;;;;
1490.0;1409.1;;;;-0.27850345;1.1080285;0.10132219;;;;;;;;;;;;;;;
1490.0;1409.1;;;;-0.2770119;1.0938531;0.09891893;;;;;;;;;;;;;;;
1490.0;1409.1;;;;-0.27513507;1.0806543;0.09576036;;;;;;;;;;;;;;;
1490.0;1409.1;;;;-0.27446368;1.0681611;0.091903694;;;;;;;;;;;;;;;
1490.0;1419.2;;;;-0.27303317;1.0562364;0.08807755;;;;;;;;;;;;;;;
1490.0;1419.2;;;;-0.27059558;1.044407;0.08491898;;;;;;;;;;;;;;;
1490.0;1419.2;;;;-0.26807788;1.0331956;0.08152009;;;;;;;;;;;;;;;
1490.0;1419.2;;;;-0.26667026;1.0227243;0.07698441;;;;;;;;;;;;;;;
1490.0;1419.2;;;;-0.26638034;1.0124475;0.07219697;;;;;;;;;;;;;;;
1490.0;1421.3;262143;262143;11563;;;;;;;;;;;;;;;;;;
1491.0;1429.2;;;;-0.26105502;1.0029069;0.071064;;;;;;;;;;;;;;;
1491.0;1429.2;;;;-0.25999072;0.9936944;0.06653214;;;;;;;;;;;;;;;
1491.0;1429.2;;;;-0.25932696;0.9846498;0.06252671;;;;;;;;;;;;;;;
1491.0;1429.2;;;;-0.25724414;0.9756814;0.059471138;;;;;;;;;;;;;;;
1491.0;1429.2;;;;-0.2593613;0.96738446;0.055187233;;;;;;;;;;;;;;;
1491.0;1433.3;;;;;;;;;;;;;;;;;52.59865;38.090916;65.790276;;1330.1
1491.0;1433.3;;;;;;;;;;;;;;0.765038;-0.20728172;-0.4113895;;;;;1330.1
1491.0;1433.3;;;;;;;;;;;;;;;;;55.639057;37.568287;66.18702;;1330.1
1491.0;1433.3;;;;;;;;;;;;;;0.7507553;-0.24884793;-0.3884396;;;;;1330.1
1491.0;1433.3;;;;;;;;;;;;;;;;;56.29902;33.69625;66.42354;;1339.7
1491.0;1433.3;;;;;;;;;;;;;;0.7693106;-0.27747428;-0.37366864;;;;;1339.7
1491.0;1433.3;;;;;;;;;;;;;;;;;56.56987;29.354992;67.44591;;1339.7
1491.0;1433.3;;;;;;;;;;;;;;0.77449876;-0.2938322;-0.35999635;;;;;1339.7
1491.0;1433.3;;;;;;;;;;;;;;;;;56.89413;25.509659;68.73913;;1349.4
1491.0;1433.3;;;;;;;;;;;;;;0.7807245;-0.28833887;-0.3604236;;;;;1349.4
1491.0;1433.3;;;;;;;;;;;;;;;;;57.584614;22.255623;70.47868;;1349.4
1491.0;1433.3;;;;;;;;;;;;;;0.7879879;-0.27887815;-0.37299722;;;;;1349.4
1491.0;1439.2;;;;-0.25650027;0.9591638;0.053287514;;;;;;;;;;;;;;;
1491.0;1439.2;;;;-0.24945453;0.95090115;0.051696785;;;;;;;;;;;;;;;
1491.0;1439.2;;;;-0.24768451;0.9431726;0.04701615;;;;;;;;;;;;;;;
1491.0;1439.2;;;;-0.24683002;0.9349557;0.04371262;;;;;;;;;;;;;;;
1491.0;1439.2;;;;-0.24737933;0.92642987;0.04143906;;;;;;;;;;;;;;;
1491.0;1441.2;262143;262143;11569;;;;;;;;;;;;;;;;;;
1547.0;1447.4;;;;;;;;;;;;;-3260;;;;;;;;
1547.0;1447.4;;;;;;;;;;;;;-2961;;;;;;;;
1547.0;1447.4;;;;;;;;;;;;;-2525;;;;;;;;
1547.0;1447.4;;;;;;;;;;;;;-1997;;;;;;;;
1547.0;1447.4;;;;;;;;;;;;;-1571;;;;;;;;
1547.0;1449.0;;;;-0.24436572;0.9179956;0.039760593;;;;;;;;;;;;;;;
1547.0;1449.0;;;;-0.24076465;0.9100801;0.03728867;;;;;;;;;;;;;;;
1547.0;1449.0;;;;-0.23982623;0.90221035;0.03456879;;;;;;;;;;;;;;;
1547.0;1449.0;;;;-0.23749927;0.8942987;0.03216553;;;;;;;;;;;;;;;
1547.0;1449.0;;;;-0.23654559;0.8863908;0.029872898;;;;;;;;;;;;;;;
1547.0;1459.0;;;;-0.23347476;0.8786622;0.028114323;;;;;;;;;;;;;;;
1547.0;1459.0;;;;-0.2306557;0.87126935;0.026725773;;;;;;;;;;;;;;;
1547.0;1459.0;;;;-0.22964099;0.86438763;0.02379227;;;;;;;;;;;;;;;
1547.0;1459.0;;;;-0.22974399;0.85740674;0.02106476;;;;;;;;;;;;;;;
1547.0;1459.0;;;;-0.22882465;0.8507577;0.019508364;;;;;;;;;;;;;;;
1547.0;1461.2;262143;262143;11575;;;;;;;;;;;;;;;;;;
1547.0;1469.1;;;;-0.22649005;0.84425366;0.017807009;;;;;;;;;;;;;;;
1547.0;1469.1;;;;-0.2253609;0.83802044;0.015876772;;;;;;;;;;;;;;;
1547.0;1469.1;;;;-0.22474292;0.83229077;0.013378145;;;;;;;;;;;;;;;
1547.0;1469.1;;;;-0.2252579;0.8268243;0.011886599;;;;;;;;;;;;;;;
1547.0;1469.1;;;;-0.22370914;0.82128155;0.010807038;;;;;;;;;;;;;;;
1549.0;1479.3;;;;-0.22094348;0.81608975;0.010299684;;;;;;;;;;;;;;;
1549.0;1479.3;;;;-0.22165683;0.81105816;0.008335114;;;;;;;;;;;;;;;
1549.0;1479.3;;;;-0.22130588;0.80591214;0.0085868845;;;;;;;;;;;;;;;
1549.0;1479.3;;;;-0.22204211;0.8010522;0.008270265;;;;;;;;;;;;;;;
1549.0;1479.3;;;;-0.2247658;0.79626477;0.0062789926;;;;;;;;;;;;;;;
1549.0;1481.5;262143;262143;11583;;;;;;;;;;;;;;;;;;
1549.0;1486.9;;;;;;;;;;;;;;;;;59.77432;20.435957;71.65364;;1359.0
1549.0;1486.9;;;;;;;;;;;;;;0.797998;-0.24427015;-0.3632313;;;;;1359.0
1549.0;1486.9;;;;;;;;;;;;;;;;;61.83813;18.238625;72.66076;;1359.0
1549.0;1486.9;;;;;;;;;;;;;;0.8143559;-0.1894589;-0.36237678;;;;;1359.0
1549.0;1486.9;;;;;;;;;;;;;;;;;62.30735;17.342142;74.27442;;1368.7
1549.0;1486.9;;;;;;;;;;;;;;0.82070374;-0.16614276;-0.37043366;;;;;1368.7
1549.0;1486.9;;;;;;;;;;;;;;;;;62.01361;19.001587;75.51424;;1368.7
1549.0;1486.9;;;;;;;;;;;;;;0.82613605;-0.1389813;-0.35767692;;;;;1368.7
1549.0;1486.9;;;;;;;;;;;;;;;;;62.612534;21.33244;76.46031;;1378.3
1549.0;1486.9;;;;;;;;;;;;;;0.804651;-0.17126988;-0.34852138;;;;;1378.3
1549.0;1486.9;;;;;;;;;;;;;;;;;64.775536;23.087252;75.5562;;1378.3
1549.0;1486.9;;;;;;;;;;;;;;0.7916501;-0.12469863;-0.34223455;;;;;1378.3
1549.0;1487.6;;;;;;;;;;;;;-1391;;;;;;;;
1549.0;1487.6;;;;;;;;;;;;;-1255;;;;;;;;
1549.0;1487.6;;;;;;;;;;;;;-1235;;;;;;;;
1549.0;1487.6;;;;;;;;;;;;;-1752;;;;;;;;
1549.0;1487.6;;;;;;;;;;;;;-2591;;;;;;;;
1550.0;1489.3;;;;-0.23009112;0.7914468;0.004455567;;;;;;;;;;;;;;;
1550.0;1489.3;;;;-0.23175815;0.7870027;0.004467011;;;;;;;;;;;;;;;
1550.0;1489.3;;;;-0.2319794;0.78242123;0.004932404;;;;;;;;;;;;;;;
1550.0;1489.3;;;;-0.22760394;0.77770245;0.0067443857;;;;;;;;;;;;;;;
1550.0;1489.3;;;;-0.22690967;0.7733995;0.005764008;;;;;;;;;;;;;;;
1550.0;1493.6;;;;;;;;;;;;;;;;;65.60717;25.315104;72.95831;;1387.9
1550.0;1493.6;;;;;;;;;;;;;;0.7719962;-0.061830502;-0.3263039;;;;;1387.9
1550.0;1493.6;;;;;;;;;;;;;;;;;65.58428;26.299326;72.03131;;1387.9
1550.0;1493.6;;;;;;;;;;;;;;0.7564928;-0.061281167;-0.29224524;;;;;1387.9
1550.0;1493.6;;;;;;;;;;;;;;;;;66.09547;25.013733;70.35279;;1397.5
1550.0;1493.6;;;;;;;;;;;;;;0.7619251;-0.059266947;-0.26404613;;;;;1397.5
1550.0;1493.6;;;;;;;;;;;;;;;;;67.39632;23.628956;68.227936;;1397.5
1550.0;1493.6;;;;;;;;;;;;;;0.7793817;-0.05468917;-0.27179784;;;;;1397.5
1550.0;1493.6;;;;;;;;;;;;;;;;;69.91027;24.098179;65.733055;;1407.2
1550.0;1493.6;;;;;;;;;;;;;;0.78835416;-0.06488235;-0.29151282;;;;;1407.2
1550.0;1493.6;;;;;;;;;;;;;;;;;73.31309;25.292213;64.10795;;1407.2
1550.0;1493.6;;;;;;;;;;;;;;0.7890866;-0.07080294;-0.27820674;;;;;1407.2
1550.0;1499.4;;;;-0.22857288;0.7701875;0.0037879949;;;;;;;;;;;;;;;
1550.0;1499.4;;;;-0.23030093;0.7663957;0.0027694704;;;;;;;;;;;;;;;
1550.0;1499.4;;;;-0.23099521;0.7628366;0.0036506657;;;;;;;;;;;;;;;
1550.0;1499.4;;;;-0.23106769;0.7593652;0.0053901677;;;;;;;;;;;;;;;
1550.0;1499.4;;;;-0.23228839;0.7569009;0.0062561044;;;;;;;;;;;;;;;
1607.0;1501.5;;;;;;;;;;;;;;;;;72.56157;26.329844;62.665947;;1416.8
1607.0;1501.5;;;;;;;;;;;;;;0.7932371;-0.09533983;-0.25171667;;;;;1416.8
1607.0;1501.5;;;;;;;;;;;;;;;;;69.16257;27.63451;60.525833;;1416.8
1607.0;1501.5;;;;;;;;;;;;;;0.79464096;-0.13098544;-0.23322245;;;;;1416.8
1607.0;1501.5;;;;;;;;;;;;;;;;;67.90368;29.057436;58.496353;;1426.4
1607.0;1501.5;;;;;;;;;;;;;;0.7907346;-0.1523484;-0.21436201;;;;;1426.4
1607.0;1501.5;;;;;;;;;;;;;;;;;69.13968;29.194769;55.692463;;1426.4
1607.0;1501.5;;;;;;;;;;;;;;0.7817011;-0.17041536;-0.22644734;;;;;1426.4
1607.0;1501.5;;;;;;;;;;;;;;;;;72.82098;29.087955;52.465134;;1436.1
1607.0;1501.5;;;;;;;;;;;;;;0.77028716;-0.1820124;-0.23889889;;;;;1436.1
1607.0;1501.5;;;;;;;;;;;;;;;;;76.18183;29.4084;48.883022;;1436.1
1607.0;1501.5;;;;;;;;;;;;;;0.76339;-0.18408765;-0.24732201;;;;;1436.1
1607.0;1501.4;262143;262143;11571;;;;;;;;;;;;;;;;;;
1607.0;1509.2;;;;-0.2294617;0.75454724;0.009056092;;;;;;;;;;;;;;;
1607.0;1509.2;;;;-0.22758868;0.75262845;0.010391236;;;;;;;;;;;;;;;
1607.0;1509.2;;;;-0.2271271;0.7509347;0.01115799;;;;;;;;;;;;;;;
1607.0;1509.2;;;;-0.22781375;0.7495499;0.011631013;;;;;;;;;;;;;;;
1607.0;1509.2;;;;-0.2278023;0.7481919;0.012767794;;;;;;;;;;;;;;;
1607.0;1519.2;;;;-0.22881702;0.7467347;0.013031008;;;;;;;;;;;;;;;
1607.0;1519.2;;;;-0.22949603;0.7462235;0.014232637;;;;;;;;;;;;;;;
1607.0;1519.2;;;;-0.2245293;0.74607855;0.016735079;;;;;;;;;;;;;;;
1607.0;1519.2;;;;-0.21892169;0.7463761;0.018348696;;;;;;;;;;;;;;;
1607.0;1519.2;;;;-0.21842197;0.74628454;0.016490938;;;;;;;;;;;;;;;
1611.0;1521.5;262143;262143;11578;;;;;;;;;;;;;;;;;;
1611.0;1527.7;;;;;;;;;;;;;-2381;;;;;;;;
1611.0;1527.7;;;;;;;;;;;;;-912;;;;;;;;
1611.0;1527.7;;;;;;;;;;;;;-3027;;;;;;;;
1611.0;1527.7;;;;;;;;;;;;;-12904;;;;;;;;
1611.0;1527.7;;;;;;;;;;;;;-23662;;;;;;;;
1611.0;1529.3;;;;-0.21787265;0.74636084;0.015281679;;;;;;;;;;;;;;;
1611.0;1529.3;;;;-0.21731952;0.7462464;0.014507296;;;;;;;;;;;;;;;
1611.0;1529.3;;;;-0.21615222;0.7454644;0.014175417;;;;;;;;;;;;;;;
1611.0;1529.3;;;;-0.21386722;0.7448388;0.013526918;;;;;;;;;;;;;;;
1611.0;1529.3;;;;-0.21226123;0.743763;0.012298586;;;;;;;;;;;;;;;
1611.0;1539.4;;;;-0.2097893;0.7420121;0.010757447;;;;;;;;;;;;;;;
1611.0;1539.4;;;;-0.20753863;0.74010855;0.009548188;;;;;;;;;;;;;;;
1611.0;1539.4;;;;-0.205452;0.73785025;0.007972718;;;;;;;;;;;;;;;
1611.0;1539.4;;;;-0.20217898;0.73546225;0.006603242;;;;;;;;;;;;;;;
1611.0;1539.4;;;;-0.19977191;0.7332764;0.005638123;;;;;;;;;;;;;;;
1611.0;1541.8;262143;262143;11573;;;;;;;;;;;;;;;;;;
1612.0;1546.3;;;;;;;;;;;;;;;;;79.28709;29.137547;46.49495;;1445.8
1612.0;1546.3;;;;;;;;;;;;;;0.7498398;-0.18195136;-0.24463637;;;;;1445.8
1612.0;1546.3;;;;;;;;;;;;;;;;;81.31657;28.729362;44.812614;;1445.8
1612.0;1546.3;;;;;;;;;;;;;;0.7563707;-0.17401654;-0.24073;;;;;1445.8
1612.0;1546.3;;;;;;;;;;;;;;;;;82.0719;29.000214;42.641987;;1455.3
1612.0;1546.3;;;;;;;;;;;;;;0.76082647;-0.17236854;-0.24311045;;;;;1455.3
1612.0;1546.3;;;;;;;;;;;;;;;;;83.174385;28.622547;40.662098;;1455.3
1612.0;1546.3;;;;;;;;;;;;;;0.76082647;-0.16602069;-0.2544023;;;;;1455.3
1612.0;1546.3;;;;;;;;;;;;;;;;;83.72753;27.668842;38.55251;;1464.9
1612.0;1546.3;;;;;;;;;;;;;;0.76131475;-0.15442365;-0.26868495;;;;;1464.9
1612.0;1546.3;;;;;;;;;;;;;;;;;83.11716;26.158178;36.9541;;1464.9
1612.0;1546.3;;;;;;;;;;;;;;0.7487411;-0.15417951;-0.2964568;;;;;1464.9
1612.0;1549.4;;;;-0.19567493;0.7308083;0.0044975285;;;;;;;;;;;;;;;
1612.0;1549.4;;;;-0.193203;0.7282372;0.0028953555;;;;;;;;;;;;;;;
1612.0;1549.4;;;;-0.19563678;0.72560126;2.6321414E-4;;;;;;;;;;;;;;;
1612.0;1549.4;;;;-0.19726184;0.7230683;-0.0010070802;;;;;;;;;;;;;;;
1612.0;1549.4;;;;-0.186615;0.7215348;0.0038032536;;;;;;;;;;;;;;;
1613.0;1553.8;;;;;;;;;;;;;;;;;83.42235;25.360882;35.45106;;1474.6
1613.0;1553.8;;;;;;;;;;;;;;0.7324442;-0.14148381;-0.31269264;;;;;1474.6
1613.0;1553.8;;;;;;;;;;;;;;;;;84.10902;23.186438;34.527878;;1474.6
1613.0;1553.8;;;;;;;;;;;;;;0.7280496;-0.13019197;-0.33741266;;;;;1474.6
1613.0;1553.8;;;;;;;;;;;;;;;;;85.154274;21.252327;33.547474;;1484.2
1613.0;1553.8;;;;;;;;;;;;;;0.73250526;-0.13580737;-0.359447;;;;;1484.2
1613.0;1553.8;;;;;;;;;;;;;;;;;86.42461;19.75692;32.666252;;1484.2
1613.0;1553.8;;;;;;;;;;;;;;0.74056214;-0.14221625;-0.37336344;;;;;1484.2
1613.0;1553.8;;;;;;;;;;;;;;;;;87.897125;19.631031;31.281471;;1493.9
1613.0;1553.8;;;;;;;;;;;;;;0.75142676;-0.14117862;-0.3813593;;;;;1493.9
1613.0;1553.8;;;;;;;;;;;;;;;;;89.91897;19.53566;30.125584;;1493.9
1613.0;1553.8;;;;;;;;;;;;;;0.75606555;-0.12634663;-0.38227484;;;;;1493.9
1613.0;1559.4;;;;-0.18045045;0.7209397;0.003005982;;;;;;;;;;;;;;;
1613.0;1559.4;;;;-0.17892458;0.72097784;-3.700257E-4;;;;;;;;;;;;;;;
1613.0;1559.4;;;;-0.17731096;0.7201806;-0.0019721987;;;;;;;;;;;;;;;
1613.0;1559.4;;;;-0.17597963;0.71967703;-0.004112244;;;;;;;;;;;;;;;
1613.0;1559.4;;;;-0.17398454;0.71994406;-0.005775452;;;;;;;;;;;;;;;
1613.0;1561.7;262143;262143;11577;;;;;;;;;;;;;;;;;;
1613.0;1567.9;;;;;;;;;;;;;-22542;;;;;;;;
1613.0;1567.9;;;;;;;;;;;;;-7508;;;;;;;;
1613.0;1567.9;;;;;;;;;;;;;8709;;;;;;;;
1613.0;1567.9;;;;;;;;;;;;;13481;;;;;;;;
1613.0;1567.9;;;;;;;;;;;;;7830;;;;;;;;
1668.0;1569.3;;;;-0.17179109;0.71971136;-0.0075798044;;;;;;;;;;;;;;;
1668.0;1569.3;;;;-0.16929246;0.7195588;-0.009040833;;;;;;;;;;;;;;;
1668.0;1569.3;;;;-0.16671373;0.7197228;-0.011428834;;;;;;;;;;;;;;;
1668.0;1569.3;;;;-0.16510011;0.71929175;-0.012779238;;;;;;;;;;;;;;;
1668.0;1569.3;;;;-0.16349413;0.71883017;-0.014656069;;;;;;;;;;;;;;;
1668.0;1579.1;;;;-0.16212465;0.71817786;-0.015132906;;;;;;;;;;;;;;;
1668.0;1579.1;;;;-0.1600342;0.717434;-0.01476288;;;;;;;;;;;;;;;
1668.0;1579.1;;;;-0.15950014;0.71742636;-0.0132102985;;;;;;;;;;;;;;;
1668.0;1579.1;;;;-0.15888216;0.71710974;-0.011783602;;;;;;;;;;;;;;;
1668.0;1579.1;;;;-0.15829088;0.71724325;-0.009323121;;;;;;;;;;;;;;;
1668.0;1581.6;262143;262143;11577;;;;;;;;;;;;;;;;;;
1668.0;1589.3;;;;-0.15796281;0.718319;-0.0069847116;;;;;;;;;;;;;;;
1668.0;1589.3;;;;-0.1573639;0.7199479;-0.0053825383;;;;;;;;;;;;;;;
1668.0;1589.3;;;;-0.15663148;0.7219811;-0.003860474;;;;;;;;;;;;;;;
1668.0;1589.3;;;;-0.15494539;0.72499853;-0.0028648379;;;;;;;;;;;;;;;
1668.0;1589.3;;;;-0.15325548;0.7284089;-0.002498627;;;;;;;;;;;;;;;
1668.0;1599.4;;;;-0.15153505;0.7322579;-0.002548218;;;;;;;;;;;;;;;
1668.0;1599.4;;;;-0.1490822;0.73603445;-0.0028572085;;;;;;;;;;;;;;;
1668.0;1599.4;;;;-0.14659883;0.73987204;-0.0033264165;;;;;;;;;;;;;;;
1668.0;1599.4;;;;-0.14456178;0.74353033;-0.0033760075;;;;;;;;;;;;;;;
1668.0;1599.4;;;;-0.1425171;0.7466813;-0.0031013493;;;;;;;;;;;;;;;
1670.0;1601.9;262143;262143;11578;;;;;;;;;;;;;;;;;;
1670.0;1606.4;;;;;;;;;;;;;;;;;91.65852;19.001587;29.431288;;1503.6
1670.0;1606.4;;;;;;;;;;;;;;0.7755974;-0.11828975;-0.38172552;;;;;1503.6
1670.0;1606.4;;;;;;;;;;;;;;;;;93.66894;18.047884;28.603474;;1503.6
1670.0;1606.4;;;;;;;;;;;;;;0.80599385;-0.10254219;-0.3867916;;;;;1503.6
1670.0;1606.4;;;;;;;;;;;;;;;;;95.8472;17.250587;27.809992;;1513.0
1670.0;1606.4;;;;;;;;;;;;;;0.8226569;-0.082461014;-0.39631337;;;;;1513.0
1670.0;1606.4;;;;;;;;;;;;;;;;;97.5982;16.041292;26.886808;;1513.0
1670.0;1606.4;;;;;;;;;;;;;;0.8281503;-0.07190161;-0.4092532;;;;;1513.0
1670.0;1606.4;;;;;;;;;;;;;;;;;99.41404;15.404218;26.520586;;1522.7
1670.0;1606.4;;;;;;;;;;;;;;0.83095795;-0.055177465;-0.4069338;;;;;1522.7
1670.0;1606.4;;;;;;;;;;;;;;;;;100.82552;15.198217;25.986511;;1522.7
1670.0;1606.4;;;;;;;;;;;;;;0.8428602;-0.023987548;-0.39466536;;;;;1522.7
1670.0;1607.9;;;;;;;;;;;;;1789;;;;;;;;
1670.0;1607.9;;;;;;;;;;;;;303;;;;;;;;
1670.0;1607.9;;;;;;;;;;;;;360;;;;;;;;
1670.0;1607.9;;;;;;;;;;;;;-346;;;;;;;;
1670.0;1607.9;;;;;;;;;;;;;-1014;;;;;;;;
1670.0;1609.4;;;;-0.14105226;0.7495957;-0.0029830937;;;;;;;;;;;;;;;
1670.0;1609.4;;;;-0.1393242;0.75219357;-0.0030326848;;;;;;;;;;;;;;;
1670.0;1609.4;;;;-0.13778688;0.75374997;-0.0022888186;;;;;;;;;;;;;;;
1670.0;1609.4;;;;-0.13606645;0.75504696;-0.0013465883;;;;;;;;;;;;;;;
1670.0;1609.4;;;;-0.13498308;0.7563211;-0.0016670229;;;;;;;;;;;;;;;
1728.0;1619.4;;;;-0.1334839;0.7568933;-7.9727184E-4;;;;;;;;;;;;;;;
1728.0;1619.4;;;;-0.13205339;0.75691235;1.1444093E-4;;;;;;;;;;;;;;;
1728.0;1619.4;;;;-0.13095094;0.75717556;4.1961674E-5;;;;;;;;;;;;;;;
1728.0;1619.4;;;;-0.12987138;0.7570802;4.5776373E-4;;;;;;;;;;;;;;;
1728.0;1619.4;;;;-0.12949754;0.7564355;3.318787E-4;;;;;;;;;;;;;;;
1728.0;1621.5;;;;;;;;;;;;;;;;;100.65767;14.397107;25.616474;;1532.3
1728.0;1621.5;;;;;;;;;;;;;;0.85860777;-0.006591998;-0.39606923;;;;;1532.3
1728.0;1621.5;;;;;;;;;;;;;;;;;99.61623;13.367107;25.990326;;1532.3
1728.0;1621.5;;;;;;;;;;;;;;0.86092716;0.0019531846;-0.39210182;;;;;1532.3
1728.0;1621.5;;;;;;;;;;;;;;;;;97.51045;13.019959;26.188696;;1542.0
1728.0;1621.5;;;;;;;;;;;;;;0.8460341;0.009704886;-0.39228493;;;;;1542.0
1728.0;1621.5;;;;;;;;;;;;;;;;;95.18723;13.576922;25.990326;;1542.0
1728.0;1621.5;;;;;;;;;;;;;;0.8141728;0.020447401;-0.37372968;;;;;1542.0
1728.0;1621.5;;;;;;;;;;;;;;;;;92.27653;13.199256;25.92166;;1551.7
1728.0;1621.5;;;;;;;;;;;;;;0.79189426;0.020203253;-0.35444197;;;;;1551.7
1728.0;1621.5;;;;;;;;;;;;;;;;;89.41923;12.57744;25.872066;;1551.7
1728.0;1621.5;;;;;;;;;;;;;;0.79171115;0.018799402;-0.3477279;;;;;1551.7
1728.0;1621.9;262143;262143;11567;;;;;;;;;;;;;;;;;;
1728.0;1629.4;;;;-0.12871172;0.75647366;-6.866456E-5;;;;;;;;;;;;;;;
1728.0;1629.4;;;;-0.12786104;0.75699246;4.959107E-5;;;;;;;;;;;;;;;
1728.0;1629.4;;;;-0.12789918;0.7571336;-8.468629E-4;;;;;;;;;;;;;;;
1728.0;1629.4;;;;-0.12776186;0.7573663;-7.2479254E-4;;;;;;;;;;;;;;;
1728.0;1629.4;;;;-0.12702943;0.75812924;-8.239747E-4;;;;;;;;;;;;;;;
1731.0;1639.3;;;;-0.12718965;0.75926983;-0.0021095278;;;;;;;;;;;;;;;
1731.0;1639.3;;;;-0.12758256;0.7601472;-0.0021743777;;;;;;;;;;;;;;;
1731.0;1639.3;;;;-0.1278;0.76191723;-0.002422333;;;;;;;;;;;;;;;
1731.0;1639.3;;;;-0.12810518;0.76363385;-0.002925873;;;;;;;;;;;;;;;
1731.0;1639.3;;;;-0.12942125;0.7658082;-0.002914429;;;;;;;;;;;;;;;
1731.0;1641.9;262143;262143;11568;;;;;;;;;;;;;;;;;;
1731.0;1648.1;;;;;;;;;;;;;-1314;;;;;;;;
1731.0;1648.1;;;;;;;;;;;;;-1465;;;;;;;;
1731.0;1648.1;;;;;;;;;;;;;-1600;;;;;;;;
1731.0;1648.1;;;;;;;;;;;;;-1908;;;;;;;;
1731.0;1648.1;;;;;;;;;;;;;-2299;;;;;;;;
1731.0;1649.4;;;;-0.13045122;0.76796734;-0.0041046147;;;;;;;;;;;;;;;
1731.0;1649.4;;;;-0.1319504;0.7705995;-0.003925324;;;;;;;;;;;;;;;
1731.0;1649.4;;;;-0.13375093;0.7730714;-0.0037765508;;;;;;;;;;;;;;;
1731.0;1649.4;;;;-0.1354027;0.77567685;-0.0035781865;;;;;;;;;;;;;;;
1731.0;1649.4;;;;-0.13726045;0.7780076;-0.0028533938;;;;;;;;;;;;;;;
1731.0;1659.6;;;;-0.1391945;0.7803117;-0.0028724673;;;;;;;;;;;;;;;
1731.0;1659.6;;;;-0.14034654;0.782303;-0.0017509463;;;;;;;;;;;;;;;
1731.0;1659.6;;;;-0.14148332;0.7839433;-6.217957E-4;;;;;;;;;;;;;;;
1731.0;1659.6;;;;-0.14260103;0.7852975;0.0010452272;;;;;;;;;;;;;;;
1731.0;1659.6;;;;-0.14453508;0.78658307;0.0033340459;;;;;;;;;;;;;;;
1731.0;1662.2;262143;262143;11564;;;;;;;;;;;;;;;;;;
1732.0;1669.6;;;;-0.14656831;0.78790677;0.005817414;;;;;;;;;;;;;;;
1732.0;1669.6;;;;-0.14890672;0.78855145;0.008743287;;;;;;;;;;;;;;;
1732.0;1669.6;;;;-0.15203096;0.7883645;0.011268617;;;;;;;;;;;;;;;
1732.0;1669.6;;;;-0.15511705;0.7887536;0.014530184;;;;;;;;;;;;;;;
1732.0;1669.6;;;;-0.1581154;0.78878415;0.017509462;;;;;;;;;;;;;;;
1732.0;1674.7;;;;;;;;;;;;;;;;;85.66927;joulu.17;25.673697;;1561.3
1732.0;1674.7;;;;;;;;;;;;;;0.7991577;0.011108737;-0.33509323;;;;;1561.3
1732.0;1674.7;;;;;;;;;;;;;;;;;81.423386;12.810144;25.47914;;1561.3
1732.0;1674.7;;;;;;;;;;;;;;0.81820124;-0.011597034;-0.336375;;;;;1561.3
1732.0;1674.7;;;;;;;;;;;;;;;;;76.56332;12.485885;25.26551;;1570.9
1732.0;1674.7;;;;;;;;;;;;;;0.84322643;-0.03686636;-0.33936584;;;;;1570.9
1732.0;1674.7;;;;;;;;;;;;;;;;;71.49342;11.803034;24.85351;;1570.9
1732.0;1674.7;;;;;;;;;;;;;;0.86178166;-0.06878872;-0.34589678;;;;;1570.9
1732.0;1674.7;;;;;;;;;;;;;;;;;67.63665;10.414441;24.018068;;1580.6
1732.0;1674.7;;;;;;;;;;;;;;0.8767968;-0.10644856;-0.36640522;;;;;1580.6
1732.0;1674.7;;;;;;;;;;;;;;;;;65.54613;8.301035;22.953733;;1580.6
1732.0;1674.7;;;;;;;;;;;;;;0.8846095;-0.14380322;-0.39814448;;;;;1580.6
1733.0;1675.5;;;;;;;;;;;;;;;;;65.10743;6.1380353;21.774958;;1590.2
1733.0;1675.5;;;;;;;;;;;;;;0.8908353;-0.16827907;-0.43421736;;;;;1590.2
1733.0;1675.5;;;;;;;;;;;;;;;;;65.16465;4.280221;20.142216;;1590.2
1733.0;1675.5;;;;;;;;;;;;;;0.91238135;-0.1734672;-0.4596698;;;;;1590.2
1733.0;1675.5;;;;;;;;;;;;;;;;;63.909576;1.4877774;18.562883;;1599.8
1733.0;1675.5;;;;;;;;;;;;;;0.95437485;-0.1772515;-0.49293497;;;;;1599.8
1733.0;1675.5;;;;;;;;;;;;;;;;;60.33509;-2.2392957;17.563402;;1599.8
1733.0;1675.5;;;;;;;;;;;;;;0.9881283;-0.19379254;-0.5380413;;;;;1599.8
1733.0;1675.5;;;;;;;;;;;;;;;;;55.066833;-4.7875915;16.956846;;1609.5
1733.0;1675.5;;;;;;;;;;;;;;0.9894101;-0.20044558;-0.5550096;;;;;1609.5
1733.0;1675.5;;;;;;;;;;;;;;;;;49.69176;-6.1532946;16.38081;;1609.5
1733.0;1675.5;;;;;;;;;;;;;;0.9720756;-0.18286692;-0.55525374;;;;;1609.5
1733.0;1679.6;;;;-0.16082765;0.78932965;0.020240786;;;;;;;;;;;;;;;
1733.0;1679.6;;;;-0.16282274;0.7901727;0.022491457;;;;;;;;;;;;;;;
1733.0;1679.6;;;;-0.16412355;0.7923547;0.024250034;;;;;;;;;;;;;;;
1733.0;1679.6;;;;-0.16514207;0.7949487;0.025104526;;;;;;;;;;;;;;;
1733.0;1679.6;;;;-0.16588975;0.7979585;0.026100162;;;;;;;;;;;;;;;
1733.0;1682.2;262143;262143;11566;;;;;;;;;;;;;;;;;;
1733.0;1688.4;;;;;;;;;;;;;-2609;;;;;;;;
1733.0;1688.4;;;;;;;;;;;;;-3035;;;;;;;;
1733.0;1688.4;;;;;;;;;;;;;-3545;;;;;;;;
1733.0;1688.4;;;;;;;;;;;;;-3964;;;;;;;;
1733.0;1688.4;;;;;;;;;;;;;-4467;;;;;;;;
1787.0;1689.6;;;;-0.16687013;0.8018838;0.026115421;;;;;;;;;;;;;;;
1787.0;1689.6;;;;-0.16792299;0.80736554;0.0263176;;;;;;;;;;;;;;;
1787.0;1689.6;;;;-0.16944505;0.81388104;0.026020054;;;;;;;;;;;;;;;
1787.0;1689.6;;;;-0.17145921;0.82099164;0.026832584;;;;;;;;;;;;;;;
1787.0;1689.6;;;;-0.17391588;0.8295022;0.027122501;;;;;;;;;;;;;;;
1787.0;1699.3;;;;-0.17696;0.83852017;0.027938846;;;;;;;;;;;;;;;
1787.0;1699.3;;;;-0.18078996;0.84827816;0.028663639;;;;;;;;;;;;;;;
1787.0;1699.3;;;;-0.18459703;0.8589288;0.029071812;;;;;;;;;;;;;;;
1787.0;1699.3;;;;-0.18891528;0.8695756;0.02966309;;;;;;;;;;;;;;;
1787.0;1699.3;;;;-0.19285586;0.88074505;0.030502323;;;;;;;;;;;;;;;
1787.0;1702.1;262143;262143;11560;;;;;;;;;;;;;;;;;;
1787.0;1709.4;;;;-0.19657901;0.8916322;0.030925754;;;;;;;;;;;;;;;
1787.0;1709.4;;;;-0.20045856;0.9020425;0.0318718;;;;;;;;;;;;;;;
1787.0;1709.4;;;;-0.2039223;0.91118634;0.032558445;;;;;;;;;;;;;;;
1787.0;1709.4;;;;-0.20729068;0.919304;0.033523563;;;;;;;;;;;;;;;
1787.0;1709.4;;;;-0.21031573;0.9265214;0.034652714;;;;;;;;;;;;;;;
1787.0;1719.6;;;;-0.21250919;0.9317399;0.035743717;;;;;;;;;;;;;;;
1787.0;1719.6;;;;-0.21430972;0.93538296;0.037189487;;;;;;;;;;;;;;;
1787.0;1719.6;;;;-0.21517947;0.93714535;0.0379715;;;;;;;;;;;;;;;
1787.0;1719.6;;;;-0.21612933;0.93734753;0.040012363;;;;;;;;;;;;;;;
1787.0;1719.6;;;;-0.21615222;0.93636715;0.04151154;;;;;;;;;;;;;;;
1792.0;1722.4;262143;262143;11553;;;;;;;;;;;;;;;;;;
1792.0;1728.5;;;;;;;;;;;;;-5012;;;;;;;;
1792.0;1728.5;;;;;;;;;;;;;-5338;;;;;;;;
1792.0;1728.5;;;;;;;;;;;;;-5292;;;;;;;;
1792.0;1728.5;;;;;;;;;;;;;-4883;;;;;;;;
1792.0;1728.5;;;;;;;;;;;;;-4282;;;;;;;;
1792.0;1729.7;;;;-0.21586993;0.9349824;0.041759495;;;;;;;;;;;;;;;
1792.0;1729.7;;;;-0.21633533;0.9334184;0.04240418;;;;;;;;;;;;;;;
1792.0;1729.7;;;;-0.21630481;0.93159115;0.043212894;;;;;;;;;;;;;;;
1792.0;1729.7;;;;-0.21656421;0.9300233;0.04345322;;;;;;;;;;;;;;;
1792.0;1729.7;;;;-0.21710971;0.93000805;0.044448856;;;;;;;;;;;;;;;
1792.0;1739.7;;;;-0.21758273;0.93081295;0.044944767;;;;;;;;;;;;;;;
1792.0;1739.7;;;;-0.21851352;0.9334146;0.045059208;;;;;;;;;;;;;;;
1792.0;1739.7;;;;-0.21977618;0.938038;0.045185093;;;;;;;;;;;;;;;
1792.0;1739.7;;;;-0.22095874;0.9440423;0.04592896;;;;;;;;;;;;;;;
1792.0;1739.7;;;;-0.2223244;0.9510499;0.045932774;;;;;;;;;;;;;;;
1792.0;1739.8;;;;;;;;;;-0.69429606;18.612476;-1.9951477;;;;;;;;;
1792.0;1739.8;;;;;;;0.6223945;-0.97561574;0.20227668;;;;;;;;;;;;
1792.0;1739.8;;;;;;;;;;5.0393686;33.249916;10.063478;;;;;;;;;
1792.0;1739.8;;;;;;;0.7037568;-1.103122;0.22217475;;;;;;;;;;;;
1846.0;1742.0;;;;;;;;;;;;;;;;;45.026245;-7.1375165;15.64455;;1619.0
1846.0;1742.0;;;;;;;;;;;;;;0.9450972;-0.14880826;-0.5611133;;;;;1619.0
1846.0;1742.0;;;;;;;;;;;;;;;;;41.718803;-8.842738;14.378033;;1619.0
1846.0;1742.0;;;;;;;;;;;;;;0.913419;-0.11523789;-0.58308667;;;;;1619.0
1846.0;1742.0;;;;;;;;;;;;;;;;;39.963985;-11.574144;12.081515;;1628.7
1846.0;1742.0;;;;;;;;;;;;;;0.89242226;-0.092471085;-0.618305;;;;;1628.7
1846.0;1742.0;;;;;;;;;;;;;;;;;39.429913;-15.24018;8.922849;;1628.7
1846.0;1742.0;;;;;;;;;;;;;;0.88052005;-0.06482132;-0.651326;;;;;1628.7
1846.0;1742.0;;;;;;;;;;;;;;;;;39.819023;-19.432661;5.5238504;;1638.4
1846.0;1742.0;;;;;;;;;;;;;;0.877224;-0.04589984;-0.6751915;;;;;1638.4
1846.0;1742.0;;;;;;;;;;;;;;;;;40.601063;-23.850216;1.8616291;;1638.4
1846.0;1742.0;;;;;;;;;;;;;;0.86739707;-0.033875547;-0.67464215;;;;;1638.4
1846.0;1742.5;262143;262143;11552;;;;;;;;;;;;;;;;;;
1846.0;1749.2;;;;;;;;;;-3.8186285;2.9221473;8.827478;;;;;;;;;
1846.0;1749.2;;;;;;;0.7116306;-1.1201514;0.21771905;;;;;;;;;;;;
1846.0;1749.2;;;;;;;;;;-0.8049257;10.376293;14.233069;;;;;;;;;
1846.0;1749.2;;;;;;;0.7150487;-1.1504258;0.21607105;;;;;;;;;;;;
1846.0;1749.6;;;;-0.22400668;0.95972455;0.046024326;;;;;;;;;;;;;;;
1846.0;1749.6;;;;-0.22591022;0.96994793;0.045269016;;;;;;;;;;;;;;;
1846.0;1749.6;;;;-0.22794726;0.9807397;0.04502106;;;;;;;;;;;;;;;
1846.0;1749.6;;;;-0.23054889;0.99255383;0.043746952;;;;;;;;;;;;;;;
1846.0;1749.6;;;;-0.2332497;1.004532;0.043083195;;;;;;;;;;;;;;;
1850.0;1758.7;;;;;;;;;;-5.6573687;7.5380716;17.51381;;;;;;;;;
1850.0;1758.7;;;;;;;0.7195654;-1.1916257;0.22144231;;;;;;;;;;;;
1850.0;1758.7;;;;;;;;;;-16.10233;-29.835659;-1.8349254;;;;;;;;;
1850.0;1758.7;;;;;;;0.720542;-1.2361217;0.23413801;;;;;;;;;;;;
1850.0;1759.6;;;;-0.23600009;1.016739;0.042320255;;;;;;;;;;;;;;;
1850.0;1759.6;;;;-0.23937991;1.0289804;0.04208756;;;;;;;;;;;;;;;
1850.0;1759.6;;;;-0.24266437;1.0407411;0.042083744;;;;;;;;;;;;;;;
1850.0;1759.6;;;;-0.24600986;1.0524293;0.042312626;;;;;;;;;;;;;;;
1850.0;1759.6;;;;-0.24943545;1.0638467;0.042926792;;;;;;;;;;;;;;;
1850.0;1762.5;262143;262143;11545;;;;;;;;;;;;;;;;;;
1850.0;1768.3;;;;;;;;;;-21.07303;-29.988249;-3.0823696;;;;;;;;;
1850.0;1768.3;;;;;;;0.72359383;-1.2806177;0.25458542;;;;;;;;;;;;
1850.0;1768.3;;;;;;;;;;-25.482956;-27.527695;-6.000702;;;;;;;;;
1850.0;1768.3;;;;;;;0.72475356;-1.3168737;0.28186896;;;;;;;;;;;;
1850.0;1768.6;;;;;;;;;;;;;-3691;;;;;;;;
1850.0;1768.6;;;;;;;;;;;;;-3122;;;;;;;;
1850.0;1768.6;;;;;;;;;;;;;-2303;;;;;;;;
1850.0;1768.6;;;;;;;;;;;;;-1168;;;;;;;;
1850.0;1768.6;;;;;;;;;;;;;21;;;;;;;;
1850.0;1769.7;;;;-0.25241855;1.07436;0.043304447;;;;;;;;;;;;;;;
1850.0;1769.7;;;;-0.25569156;1.0847665;0.04489136;;;;;;;;;;;;;;;
1850.0;1769.7;;;;-0.25960925;1.0941621;0.046760563;;;;;;;;;;;;;;;
1850.0;1769.7;;;;-0.26334003;1.1030656;0.049034126;;;;;;;;;;;;;;;
1850.0;1769.7;;;;-0.2671509;1.1115113;0.050868995;;;;;;;;;;;;;;;
1852.0;1778.0;;;;;;;;;;-29.049807;-14.988402;-4.9668875;;;;;;;;;
1852.0;1778.0;;;;;;;0.72438735;-1.3464156;0.3075045;;;;;;;;;;;;
1852.0;1778.0;;;;;;;;;;-29.530474;-0.1678518;-4.413739;;;;;;;;;
1852.0;1778.0;;;;;;;0.72383803;-1.3630177;0.3307596;;;;;;;;;;;;
1852.0;1779.8;;;;-0.27126697;1.1186525;0.05421067;;;;;;;;;;;;;;;
1852.0;1779.8;;;;-0.27596286;1.1253167;0.057838447;;;;;;;;;;;;;;;
1852.0;1779.8;;;;-0.2810059;1.1310617;0.061962135;;;;;;;;;;;;;;;
1852.0;1779.8;;;;-0.2860413;1.1360856;0.066486366;;;;;;;;;;;;;;;
1852.0;1779.8;;;;-0.29132083;1.1408883;0.07100297;;;;;;;;;;;;;;;
1852.0;1782.8;262143;262143;11548;;;;;;;;;;;;;;;;;;
1852.0;1787.6;;;;;;;;;;-28.55388;5.9587393;-10.97522;;;;;;;;;
1852.0;1787.6;;;;;;;0.7193823;-1.3692435;0.34827724;;;;;;;;;;;;
1852.0;1787.6;;;;;;;;;;-27.428509;11.444441;-17.93344;;;;;;;;;
1852.0;1787.6;;;;;;;0.7160253;-1.3670461;0.35987428;;;;;;;;;;;;
1852.0;1789.9;;;;-0.29664615;1.1446725;0.076126106;;;;;;;;;;;;;;;
1852.0;1789.9;;;;-0.30172732;1.1481172;0.08250428;;;;;;;;;;;;;;;
1852.0;1789.9;;;;-0.30695346;1.1511003;0.088485725;;;;;;;;;;;;;;;
1852.0;1789.9;;;;-0.31240848;1.1538545;0.094375625;;;;;;;;;;;;;;;
1852.0;1789.9;;;;-0.31694797;1.1568109;0.10027315;;;;;;;;;;;;;;;
1853.0;1794.8;;;;;;;;;;;;;;;;;40.94058;-29.217659;-2.1591845;;1648.1
1853.0;1794.8;;;;;;;;;;;;;;0.86324656;-0.006714072;-0.65926087;;;;;1648.1
1853.0;1794.8;;;;;;;;;;;;;;;;;40.051727;-34.321877;-5.9320354;;1648.1
1853.0;1794.8;;;;;;;;;;;;;;0.87350076;0.021240883;-0.626545;;;;;1648.1
1853.0;1794.8;;;;;;;;;;;;;;;;;37.503433;-38.52962;-9.754478;;1657.6
1853.0;1794.8;;;;;;;;;;;;;;0.8960845;0.0463271;-0.5818659;;;;;1657.6
1853.0;1794.8;;;;;;;;;;;;;;;;;32.929474;-42.210915;-13.592181;;1657.6
1853.0;1794.8;;;;;;;;;;;;;;0.9445479;0.0651265;-0.53621024;;;;;1657.6
1853.0;1794.8;;;;;;;;;;;;;;;;;27.363659;-43.153175;-17.517624;;1667.2
1853.0;1794.8;;;;;;;;;;;;;;0.99105805;0.07806635;-0.48799098;;;;;1667.2
1853.0;1794.8;;;;;;;;;;;;;;;;;22.373882;-42.09647;-22.3014;;1667.2
1853.0;1794.8;;;;;;;;;;;;;;1.0150456;0.09808649;-0.44660786;;;;;1667.2
1853.0;1796.0;;;;;;;;;;;;;;;;;19.798882;-41.329693;-28.431807;;1676.8
1853.0;1796.0;;;;;;;;;;;;;;1.0246894;0.119327374;-0.4163335;;;;;1676.8
1853.0;1796.0;;;;;;;;;;;;;;;;;20.588549;-41.08173;-35.79058;;1676.8
1853.0;1796.0;;;;;;;;;;;;;;1.0146794;0.13318278;-0.38801232;;;;;1676.8
1853.0;1796.0;;;;;;;;;;;;;;;;;24.20118;-41.14658;-44.12595;;1686.5
1853.0;1796.0;;;;;;;;;;;;;;1.002472;0.15393536;-0.37208167;;;;;1686.5
1853.0;1796.0;;;;;;;;;;;;;;;;;27.748955;-39.99832;-52.777946;;1686.5
1853.0;1796.0;;;;;;;;;;;;;;0.98922694;0.17053743;-0.37342447;;;;;1686.5
1853.0;1796.0;;;;;;;;;;;;;;;;;29.683065;-36.626026;-61.4452;;1696.1
1853.0;1796.0;;;;;;;;;;;;;;0.9568163;0.19592883;-0.3827021;;;;;1696.1
1853.0;1796.0;;;;;;;;;;;;;;;;;28.86288;-33.200325;-70.21928;;1696.1
1853.0;1796.0;;;;;;;;;;;;;;0.9237953;0.21588793;-0.39551988;;;;;1696.1
1854.0;1796.8;;;;;;;;;;;;;;;;;25.269325;-30.682547;-79.02768;;1705.8
1854.0;1796.8;;;;;;;;;;;;;;0.87380594;0.235786;-0.39381084;;;;;1705.8
1854.0;1796.8;;;;;;;;;;;;;;;;;18.936735;-29.59914;-87.80176;;1705.8
1854.0;1796.8;;;;;;;;;;;;;;0.8385876;0.24982452;-0.37519455;;;;;1705.8
1854.0;1796.8;;;;;;;;;;;;;;;;;10.189367;-30.560472;-96.678825;;1715.5
1854.0;1796.8;;;;;;;;;;;;;;0.8249763;0.253914;-0.34553057;;;;;1715.5
1854.0;1796.8;;;;;;;;;;;;;;;;;0.5302591;-32.929474;-105.43382;;1715.5
1854.0;1796.8;;;;;;;;;;;;;;0.8188116;0.24933623;-0.30530718;;;;;1715.5
1854.0;1796.8;;;;;;;;;;;;;;;;;-8.156072;-36.332287;-114.45967;;1725.0
1854.0;1796.8;;;;;;;;;;;;;;0.8231452;0.23712882;-0.25592822;;;;;1725.0
1854.0;1796.8;;;;;;;;;;;;;;;;;-14.469588;-39.597763;-122.45552;;1725.0
1854.0;1796.8;;;;;;;;;;;;;;0.8332774;0.2080752;-0.19171728;;;;;1725.0
1854.0;1796.9;;;;;;;;;;-25.925474;17.265846;-25.151066;;;;;;;;;
1854.0;1796.9;;;;;;;0.712241;-1.360393;0.36811426;;;;;;;;;;;;
1854.0;1796.9;;;;;;;;;;-24.311808;23.884548;-32.479324;;;;;;;;;
1854.0;1796.9;;;;;;;0.7159032;-1.3497117;0.37391278;;;;;;;;;;;;
1854.0;1799.8;;;;-0.3216019;1.1592294;0.105712906;;;;;;;;;;;;;;;
1854.0;1799.8;;;;-0.32592776;1.162285;0.11047746;;;;;;;;;;;;;;;
1854.0;1799.8;;;;-0.3292351;1.1656305;0.113800064;;;;;;;;;;;;;;;
1854.0;1799.8;;;;-0.33240893;1.1695787;0.11791231;;;;;;;;;;;;;;;
1854.0;1799.8;;;;-0.33547214;1.174862;0.1208954;;;;;;;;;;;;;;;
1854.0;1802.7;262143;262143;11546;;;;;;;;;;;;;;;;;;
1906.0;1806.4;;;;;;;;;;-22.881252;30.785545;-39.864803;;;;;;;;;
1906.0;1806.4;;;;;;;0.71749014;-1.3444014;0.37794122;;;;;;;;;;;;
1906.0;1806.4;;;;;;;;;;-21.359142;37.63695;-47.093876;;;;;;;;;
1906.0;1806.4;;;;;;;0.70992154;-1.3444624;0.37800226;;;;;;;;;;;;
1906.0;1808.8;;;;;;;;;;;;;951;;;;;;;;
1906.0;1808.8;;;;;;;;;;;;;1505;;;;;;;;
1906.0;1808.8;;;;;;;;;;;;;1859;;;;;;;;
1906.0;1808.8;;;;;;;;;;;;;2184;;;;;;;;
1906.0;1808.8;;;;;;;;;;;;;2513;;;;;;;;
1906.0;1809.6;;;;-0.33776096;1.1812745;0.123035446;;;;;;;;;;;;;;;
1906.0;1809.6;;;;-0.3403397;1.188553;0.12630083;;;;;;;;;;;;;;;
1906.0;1809.6;;;;-0.34238818;1.1975518;0.12834932;;;;;;;;;;;;;;;
1906.0;1809.6;;;;-0.34464267;1.2077867;0.1297722;;;;;;;;;;;;;;;
1906.0;1809.6;;;;-0.3465958;1.2190057;0.13094331;;;;;;;;;;;;;;;
1906.0;1815.7;;;;;;;;;;-19.466995;44.385357;-53.75454;;;;;;;;;
1906.0;1815.7;;;;;;;0.69289225;-1.350322;0.38062686;;;;;;;;;;;;
1906.0;1815.7;;;;;;;;;;-17.101809;50.82476;-59.965054;;;;;;;;;
1906.0;1815.7;;;;;;;0.6688436;-1.3572801;0.3823359;;;;;;;;;;;;
1906.0;1819.3;;;;-0.3489075;1.232258;0.13176729;;;;;;;;;;;;;;;
1906.0;1819.3;;;;-0.3517609;1.2466089;0.13196947;;;;;;;;;;;;;;;
1906.0;1819.3;;;;-0.3545113;1.2616464;0.13230897;;;;;;;;;;;;;;;
1906.0;1819.3;;;;-0.35759357;1.2774583;0.13267137;;;;;;;;;;;;;;;
1906.0;1819.3;;;;-0.36083987;1.2937165;0.13298036;;;;;;;;;;;;;;;
1906.0;1822.4;262143;262143;11531;;;;;;;;;;;;;;;;;;
1908.0;1825.1;;;;;;;;;;-14.419996;57.065796;-66.09928;;;;;;;;;
1908.0;1825.1;;;;;;;0.6427198;-1.3607593;0.38752404;;;;;;;;;;;;
1908.0;1825.1;;;;;;;;;;-11.280404;62.841423;-72.43187;;;;;;;;;
1908.0;1825.1;;;;;;;0.6225166;-1.3622853;0.39814448;;;;;;;;;;;;
1908.0;1829.4;;;;-0.36532596;1.3109437;0.13271333;;;;;;;;;;;;;;;
1908.0;1829.4;;;;-0.36820224;1.3284875;0.13372041;;;;;;;;;;;;;;;
1908.0;1829.4;;;;-0.37213138;1.3460809;0.1346779;;;;;;;;;;;;;;;
1908.0;1829.4;;;;-0.3756829;1.3635522;0.13731386;;;;;;;;;;;;;;;
1908.0;1829.4;;;;-0.3786698;1.3813745;0.13790514;;;;;;;;;;;;;;;
1908.0;1834.7;;;;;;;;;;-7.553331;68.07535;-79.36338;;;;;;;;;
1908.0;1834.7;;;;;;;0.60158086;-1.3506882;0.41035187;;;;;;;;;;;;
1908.0;1834.7;;;;;;;;;;-3.3379622;72.14576;-86.68401;;;;;;;;;
1908.0;1834.7;;;;;;;0.5742973;-1.3330485;0.42695394;;;;;;;;;;;;
1908.0;1839.5;;;;-0.38070685;1.3989717;0.13793947;;;;;;;;;;;;;;;
1908.0;1839.5;;;;-0.38486868;1.4170114;0.13553621;;;;;;;;;;;;;;;
1908.0;1839.5;;;;-0.38850027;1.4351274;0.1336136;;;;;;;;;;;;;;;
1908.0;1839.5;;;;-0.39202124;1.4515535;0.13153078;;;;;;;;;;;;;;;
1908.0;1839.5;;;;-0.39511114;1.4676667;0.13042451;;;;;;;;;;;;;;;
1908.0;1842.7;262143;262143;11535;;;;;;;;;;;;;;;;;;
1908.0;1844.4;;;;;;;;;;1.1711478;74.816124;-94.24116;;;;;;;;;
1908.0;1844.4;;;;;;;0.54103214;-1.3034456;0.4370861;;;;;;;;;;;;
1908.0;1844.4;;;;;;;;;;5.8023314;75.922424;-101.71819;;;;;;;;;
1908.0;1844.4;;;;;;;0.50618;-1.2733543;0.44367808;;;;;;;;;;;;
1912.0;1848.7;;;;;;;;;;;;;2767;;;;;;;;
1912.0;1848.7;;;;;;;;;;;;;2924;;;;;;;;
1912.0;1848.7;;;;;;;;;;;;;3044;;;;;;;;
1912.0;1848.7;;;;;;;;;;;;;3166;;;;;;;;
1912.0;1848.7;;;;;;;;;;;;;3298;;;;;;;;
1912.0;1849.6;;;;-0.39884955;1.4839555;0.13027193;;;;;;;;;;;;;;;
1912.0;1849.6;;;;-0.40227896;1.4995118;0.12991716;;;;;;;;;;;;;;;
1912.0;1849.6;;;;-0.4069634;1.5149271;0.12939073;;;;;;;;;;;;;;;
1912.0;1849.6;;;;-0.41323477;1.529484;0.1286812;;;;;;;;;;;;;;;
1912.0;1849.6;;;;-0.417965;1.5432742;0.12983324;;;;;;;;;;;;;;;
1912.0;1854.0;;;;;;;;;;10.479293;75.350204;-109.20667;;;;;;;;;
1912.0;1854.0;;;;;;;0.4753563;-1.2471694;0.4455092;;;;;;;;;;;;
1912.0;1854.0;;;;;;;;;;15.030366;73.16813;-116.714226;;;;;;;;;
1912.0;1854.0;;;;;;;0.45069736;-1.2303232;0.44166386;;;;;;;;;;;;
1912.0;1854.5;;;;;;;;;;;;;;;;;-18.101292;-41.982025;-124.98093;;1734.6
1912.0;1854.5;;;;;;;;;;;;;;0.8764306;0.17291787;-0.113101594;;;;;1734.6
1912.0;1854.5;;;;;;;;;;;;;;;;;-19.669178;-42.77169;-124.988556;;1734.6
1912.0;1854.5;;;;;;;;;;;;;;0.9337443;0.11365093;-0.02826014;;;;;1734.6
1912.0;1854.5;;;;;;;;;;;;;;;;;-20.26429;-41.444138;-124.988556;;1744.3
1912.0;1854.5;;;;;;;;;;;;;;0.9706717;0.052735984;0.020020142;;;;;1744.3
1912.0;1854.5;;;;;;;;;;;;;;;;;-19.63866;-37.18299;-124.988556;;1744.3
1912.0;1854.5;;;;;;;;;;;;;;0.95919675;0.029847102;2.4414808E-4;;;;;1744.3
1912.0;1854.5;;;;;;;;;;;;;;;;;-16.926329;-32.338177;-124.988556;;1753.9
1912.0;1854.5;;;;;;;;;;;;;;1.0099796;0.019959105;-0.0017700735;;;;;1753.9
1912.0;1854.5;;;;;;;;;;;;;;;;;-15.736107;-28.138065;-124.988556;;1753.9
1912.0;1854.5;;;;;;;;;;;;;;1.1429793;0.0027466659;0.029847102;;;;;1753.9
1966.0;1859.6;;;;-0.42008597;1.5559886;0.13193895;;;;;;;;;;;;;;;
1966.0;1859.6;;;;-0.4231301;1.5682604;0.13385774;;;;;;;;;;;;;;;
1966.0;1859.6;;;;-0.42882162;1.5801737;0.13456728;;;;;;;;;;;;;;;
1966.0;1859.6;;;;-0.43423086;1.5913088;0.13516237;;;;;;;;;;;;;;;
1966.0;1859.6;;;;-0.4388352;1.6005213;0.1364937;;;;;;;;;;;;;;;
1966.0;1862.7;262143;262143;11519;;;;;;;;;;;;;;;;;;
1966.0;1863.4;;;;;;;;;;19.516586;69.85305;-123.187965;;;;;;;;;
1966.0;1863.4;;;;;;;0.4259163;-1.2280037;0.43336284;;;;;;;;;;;;
1966.0;1863.4;;;;;;;;;;23.85403;65.725426;-124.87029;;;;;;;;;
1966.0;1863.4;;;;;;;0.41077915;-1.2421644;0.4267098;;;;;;;;;;;;
1966.0;1869.6;;;;-0.4424172;1.6086657;0.13910677;;;;;;;;;;;;;;;
1966.0;1869.6;;;;-0.44225317;1.614609;0.1436844;;;;;;;;;;;;;;;
1966.0;1869.6;;;;-0.44417578;1.619839;0.14559175;;;;;;;;;;;;;;;
1966.0;1869.6;;;;-0.4509049;1.6260073;0.144722;;;;;;;;;;;;;;;
1966.0;1869.6;;;;-0.45428854;1.6300166;0.14525606;;;;;;;;;;;;;;;
1966.0;1872.8;;;;;;;;;;28.118992;61.29261;-124.881744;;;;;;;;;
1966.0;1872.8;;;;;;;0.39838862;-1.2724998;0.4151738;;;;;;;;;;;;
1966.0;1872.8;;;;;;;;;;32.37251;56.77587;-124.881744;;;;;;;;;
1966.0;1872.8;;;;;;;0.39301735;-1.317423;0.40540788;;;;;;;;;;;;
2027.0;1879.4;;;;-0.45556647;1.6320193;0.14686967;;;;;;;;;;;;;;;
2027.0;1879.4;;;;-0.4598351;1.632931;0.14746858;;;;;;;;;;;;;;;
2027.0;1879.4;;;;-0.45800406;1.6307642;0.15059282;;;;;;;;;;;;;;;
2027.0;1879.4;;;;-0.45636374;1.6274226;0.15332033;;;;;;;;;;;;;;;
2027.0;1879.4;;;;-0.45531088;1.6226656;0.15583803;;;;;;;;;;;;;;;
2027.0;1882.3;;;;;;;;;;36.664173;52.11417;-124.881744;;;;;;;;;
2027.0;1882.3;;;;;;;0.38917205;-1.3704032;0.3945433;;;;;;;;;;;;
2027.0;1882.3;;;;;;;;;;41.085545;47.395245;-124.881744;;;;;;;;;
2027.0;1882.3;;;;;;;0.38691366;-1.4199653;0.3863033;;;;;;;;;;;;
2027.0;1882.7;262143;262143;11519;;;;;;;;;;;;;;;;;;
2027.0;1888.7;;;;;;;;;;;;;3390;;;;;;;;
2027.0;1888.7;;;;;;;;;;;;;3337;;;;;;;;
2027.0;1888.7;;;;;;;;;;;;;3072;;;;;;;;
2027.0;1888.7;;;;;;;;;;;;;2747;;;;;;;;
2027.0;1888.7;;;;;;;;;;;;;2517;;;;;;;;
2027.0;1889.5;;;;-0.45384604;1.61607;0.15868379;;;;;;;;;;;;;;;
2027.0;1889.5;;;;-0.45024878;1.6080668;0.16132356;;;;;;;;;;;;;;;
2027.0;1889.5;;;;-0.44871145;1.5986598;0.16392137;;;;;;;;;;;;;;;
2027.0;1889.5;;;;-0.4467736;1.5879977;0.16787721;;;;;;;;;;;;;;;
2027.0;1889.5;;;;-0.44448858;1.5759509;0.17138673;;;;;;;;;;;;;;;
2027.0;1892.0;;;;;;;;;;45.464947;42.80984;-124.881744;;;;;;;;;
2027.0;1892.0;;;;;;;0.38294625;-1.4703207;0.38142034;;;;;;;;;;;;
2027.0;1892.0;;;;;;;;;;49.836723;38.525806;-124.881744;;;;;;;;;
2027.0;1892.0;;;;;;;0.37928402;-1.5126194;0.37531662;;;;;;;;;;;;
2029.0;1899.7;;;;-0.4420548;1.5622447;0.17353822;;;;;;;;;;;;;;;
2029.0;1899.7;;;;-0.44091803;1.5478747;0.17666246;;;;;;;;;;;;;;;
2029.0;1899.7;;;;-0.4418717;1.5325243;0.17788698;;;;;;;;;;;;;;;
2029.0;1899.7;;;;-0.43685156;1.5162013;0.18347932;;;;;;;;;;;;;;;
2029.0;1899.7;;;;-0.43562704;1.4984399;0.18467332;;;;;;;;;;;;;;;
2029.0;1901.6;;;;;;;;;;53.933838;35.008545;-124.881744;;;;;;;;;
2029.0;1901.6;;;;;;;0.37739187;-1.5491806;0.37269205;;;;;;;;;;;;
2029.0;1901.6;;;;;;;;;;57.760094;32.433548;-124.881744;;;;;;;;;
2029.0;1901.6;;;;;;;0.37836847;-1.5808588;0.37202063;;;;;;;;;;;;
2029.0;1903.0;262143;262143;11519;;;;;;;;;;;;;;;;;;
2029.0;1907.2;;;;;;;;;;;;;;;;;-17.517624;-25.959806;-124.988556;;1763.5
2029.0;1907.2;;;;;;;;;;;;;;1.3249916;-0.05017243;0.03540147;;;;;1763.5
2029.0;1907.2;;;;;;;;;;;;;;;;;-19.447922;-21.961884;-124.988556;;1763.5
2029.0;1907.2;;;;;;;;;;;;;;1.5362407;-0.082888275;-0.0010986663;;;;;1763.5
2029.0;1907.2;;;;;;;;;;;;;;;;;-24.731438;-18.787958;-124.988556;;1773.1
2029.0;1907.2;;;;;;;;;;;;;;1.7725761;-0.1685232;-0.049073763;;;;;1773.1
2029.0;1907.2;;;;;;;;;;;;;;;;;-31.449326;-22.389141;-124.988556;;1773.1
2029.0;1907.2;;;;;;;;;;;;;;1.9781487;-0.34748375;-0.16449477;;;;;1773.1
2029.0;1907.2;;;;;;;;;;;;;;;;;-35.729546;-28.45088;-124.988556;;1782.8
2029.0;1907.2;;;;;;;;;;;;;;1.9970092;-0.5723441;-0.2826014;;;;;1782.8
2029.0;1907.2;;;;;;;;;;;;;;;;;-39.914394;-35.85162;-124.988556;;1782.8
2029.0;1907.2;;;;;;;;;;;;;;1.9907835;-0.75307477;-0.40516374;;;;;1782.8
2088.0;1908.1;;;;;;;;;;;;;;;;;-40.784172;-42.34062;-124.988556;;1792.4
2088.0;1908.1;;;;;;;;;;;;;;1.8677328;-0.7444685;-0.5006256;;;;;1792.4
2088.0;1908.1;;;;;;;;;;;;;;;;;-37.724693;-46.44154;-124.98093;;1792.4
2088.0;1908.1;;;;;;;;;;;;;;1.7513962;-0.6623127;-0.51692253;;;;;1792.4
2088.0;1908.1;;;;;;;;;;;;;;;;;-33.692436;-50.439465;-123.35581;;1802.0
2088.0;1908.1;;;;;;;;;;;;;;1.6960356;-0.6252632;-0.51313823;;;;;1802.0
2088.0;1908.1;;;;;;;;;;;;;;;;;-29.183325;-51.461838;-118.350784;;1802.0
2088.0;1908.1;;;;;;;;;;;;;;1.6461684;-0.6115909;-0.46943572;;;;;1802.0
2088.0;1908.1;;;;;;;;;;;;;;;;;-26.779993;-50.76754;-114.9556;;1811.5
2088.0;1908.1;;;;;;;;;;;;;;1.5826899;-0.6142155;-0.3986938;;;;;1811.5
2088.0;1908.1;;;;;;;;;;;;;;;;;-25.77288;-52.24769;-115.84827;;1811.5
2088.0;1908.1;;;;;;;;;;;;;;1.554918;-0.50196844;-0.32428968;;;;;1811.5
2088.0;1908.9;;;;;;;;;;;;;;;;;-26.360363;-55.883205;-118.80475;;1821.0
2088.0;1908.9;;;;;;;;;;;;;;1.5720084;-0.3243507;-0.27820674;;;;;1821.0
2088.0;1908.9;;;;;;;;;;;;;;;;;-31.426434;-58.18354;-121.33015;;1821.0
2088.0;1908.9;;;;;;;;;;;;;;1.5931883;-0.1662038;-0.26459548;;;;;1821.0
2088.0;1908.9;;;;;;;;;;;;;;;;;-37.621693;-58.782467;-121.524704;;1830.7
2088.0;1908.9;;;;;;;;;;;;;;1.5148168;-0.09039582;-0.23621327;;;;;1830.7
2088.0;1908.9;;;;;;;;;;;;;;;;;-36.835842;-62.887207;-118.186745;;1830.7
2088.0;1908.9;;;;;;;;;;;;;;1.3918271;-0.050477616;-0.16119877;;;;;1830.7
2088.0;1908.9;;;;;;;;;;;;;;;;;-30.61388;-74.23246;-113.91034;;1840.3
2088.0;1908.9;;;;;;;;;;;;;;1.3704032;-0.15851314;-0.13818781;;;;;1840.3
2088.0;1908.9;;;;;;;;;;;;;;;;;-23.258919;-79.531235;-118.22108;;1840.3
2088.0;1908.9;;;;;;;;;;;;;;1.3176671;-0.038636435;-0.11700796;;;;;1840.3
2091.0;1909.5;;;;-0.43498617;1.4807321;0.18627168;;;;;;;;;;;;;;;
2091.0;1909.5;;;;-0.43658835;1.4615442;0.1857567;;;;;;;;;;;;;;;
2091.0;1909.5;;;;-0.4333039;1.44236;0.18955615;;;;;;;;;;;;;;;
2091.0;1909.5;;;;-0.4327355;1.4224855;0.1896973;;;;;;;;;;;;;;;
2091.0;1909.5;;;;-0.43147665;1.4022218;0.19048694;;;;;;;;;;;;;;;
2091.0;1911.0;;;;;;;;;;61.304054;30.644398;-124.881744;;;;;;;;;
2091.0;1911.0;;;;;;;0.38129824;-1.6088748;0.36713767;;;;;;;;;;;;
2091.0;1911.0;;;;;;;;;;64.59243;29.660177;-124.881744;;;;;;;;;
2091.0;1911.0;;;;;;;0.38239694;-1.638722;0.36335337;;;;;;;;;;;;
2091.0;1919.5;;;;-0.4309426;1.3816072;0.1907349;;;;;;;;;;;;;;;
2091.0;1919.5;;;;-0.43056113;1.3595849;0.19042209;;;;;;;;;;;;;;;
2091.0;1919.5;;;;-0.4273072;1.3376886;0.19133762;;;;;;;;;;;;;;;
2091.0;1919.5;;;;-0.42597967;1.3155671;0.19063953;;;;;;;;;;;;;;;
2091.0;1919.5;;;;-0.42717367;1.2925798;0.18928912;;;;;;;;;;;;;;;
2091.0;1920.5;;;;;;;;;;67.62139;29.229103;-124.881744;;;;;;;;;
2091.0;1920.5;;;;;;;0.38673055;-1.666982;0.35474715;;;;;;;;;;;;
2091.0;1920.5;;;;;;;;;;70.36042;29.454178;-124.881744;;;;;;;;;
2091.0;1920.5;;;;;;;0.38990447;-1.6940215;0.34614092;;;;;;;;;;;;
2091.0;1922.8;262143;262143;11514;;;;;;;;;;;;;;;;;;
2091.0;1928.8;;;;;;;;;;;;;2365;;;;;;;;
2091.0;1928.8;;;;;;;;;;;;;2398;;;;;;;;
2091.0;1928.8;;;;;;;;;;;;;2703;;;;;;;;
2091.0;1928.8;;;;;;;;;;;;;3083;;;;;;;;
2091.0;1928.8;;;;;;;;;;;;;3351;;;;;;;;
2092.0;1929.4;;;;-0.4276467;1.2704431;0.18784335;;;;;;;;;;;;;;;
2092.0;1929.4;;;;-0.42895132;1.2472802;0.18595506;;;;;;;;;;;;;;;
2092.0;1929.4;;;;-0.42885214;1.2249871;0.1854973;;;;;;;;;;;;;;;
2092.0;1929.4;;;;-0.42879874;1.2029458;0.18367769;;;;;;;;;;;;;;;
2092.0;1929.4;;;;-0.4289742;1.1796609;0.18267442;;;;;;;;;;;;;;;
2092.0;1929.8;;;;;;;;;;72.771385;29.90814;-124.881744;;;;;;;;;
2092.0;1929.8;;;;;;;0.38972136;-1.7153844;0.3353984;;;;;;;;;;;;
2092.0;1929.8;;;;;;;;;;74.95346;29.862362;-124.881744;;;;;;;;;
2092.0;1929.8;;;;;;;0.38587603;-1.7310709;0.3279519;;;;;;;;;;;;
2092.0;1939.2;;;;-0.4274369;1.1579782;0.18231966;;;;;;;;;;;;;;;
2092.0;1939.2;;;;-0.42810827;1.1371423;0.18078996;;;;;;;;;;;;;;;
2092.0;1939.2;;;;-0.42705542;1.1165773;0.17989732;;;;;;;;;;;;;;;
2092.0;1939.2;;;;-0.42513663;1.0963327;0.17877962;;;;;;;;;;;;;;;
2092.0;1939.2;;;;-0.42288214;1.0752336;0.17775346;;;;;;;;;;;;;;;
2092.0;1939.2;;;;;;;;;;76.96005;29.625843;-124.881744;;;;;;;;;
2092.0;1939.2;;;;;;;0.37617114;-1.7416303;0.32074952;;;;;;;;;;;;
2092.0;1939.2;;;;;;;;;;78.630936;29.530474;-124.881744;;;;;;;;;
2092.0;1939.2;;;;;;;0.36664936;-1.7452315;0.30823696;;;;;;;;;;;;
2092.0;1942.6;262143;262143;11513;;;;;;;;;;;;;;;;;;
2092.0;1948.8;;;;;;;;;;79.931786;29.412214;-124.881744;;;;;;;;;
2092.0;1948.8;;;;;;;0.35535753;-1.7381512;0.29602954;;;;;;;;;;;;
2092.0;1948.8;;;;;;;;;;80.93509;29.183325;-124.881744;;;;;;;;;
2092.0;1948.8;;;;;;;0.3451033;-1.721244;0.28217414;;;;;;;;;;;;
2096.0;1949.3;;;;-0.42090613;1.0560228;0.1765709;;;;;;;;;;;;;;;
2096.0;1949.3;;;;-0.41823965;1.0372354;0.17660142;;;;;;;;;;;;;;;
2096.0;1949.3;;;;-0.415783;1.0196344;0.1762848;;;;;;;;;;;;;;;
2096.0;1949.3;;;;-0.4133721;1.0030786;0.17560579;;;;;;;;;;;;;;;
2096.0;1949.3;;;;-0.4097367;0.9865724;0.17482378;;;;;;;;;;;;;;;
2096.0;1958.5;;;;;;;;;;81.46535;29.06125;-124.881744;;;;;;;;;
2096.0;1958.5;;;;;;;0.3353984;-1.6964018;0.2677694;;;;;;;;;;;;
2096.0;1958.5;;;;;;;;;;81.59505;29.446547;-124.881744;;;;;;;;;
2096.0;1958.5;;;;;;;0.32624286;-1.6600848;0.25104526;;;;;;;;;;;;
2096.0;1959.4;;;;-0.40598685;0.97137845;0.1739998;;;;;;;;;;;;;;;
2096.0;1959.4;;;;-0.40222555;0.9574281;0.17330553;;;;;;;;;;;;;;;
2096.0;1959.4;;;;-0.39833456;0.9440347;0.17239381;;;;;;;;;;;;;;;
2096.0;1959.4;;;;-0.39498907;0.9317552;0.17095186;;;;;;;;;;;;;;;
2096.0;1959.4;;;;-0.39062506;0.92011654;0.17040254;;;;;;;;;;;;;;;
2096.0;1962.9;262143;262143;11500;;;;;;;;;;;;;;;;;;
2097.0;1967.5;;;;;;;;;;;;;;;;;-26.264992;-84.238716;-119.50667;;1850.0
2097.0;1967.5;;;;;;;;;;;;;;1.3330485;-0.011169774;-0.084902495;;;;;1850.0
2097.0;1967.5;;;;;;;;;;;;;;;;;-27.371288;-88.68297;-115.89786;;1850.0
2097.0;1967.5;;;;;;;;;;;;;;1.3992126;-0.034119695;-0.07763909;;;;;1850.0
2097.0;1967.5;;;;;;;;;;;;;;;;;-22.114475;-85.654015;-112.7163;;1859.7
2097.0;1967.5;;;;;;;;;;;;;;1.4321727;-0.08337657;-0.09674367;;;;;1859.7
2097.0;1967.5;;;;;;;;;;;;;;;;;-16.28544;-72.45094;-113.18934;;1859.7
2097.0;1967.5;;;;;;;;;;;;;;1.4144719;-0.0463271;-0.048219245;;;;;1859.7
2097.0;1967.5;;;;;;;;;;;;;;;;;-16.346478;-56.272316;-112.14026;;1869.3
2097.0;1967.5;;;;;;;;;;;;;;1.3083895;-0.06549272;0.02826014;;;;;1869.3
2097.0;1967.5;;;;;;;;;;;;;;;;;-19.398329;-46.11347;-107.31453;;1869.3
2097.0;1967.5;;;;;;;;;;;;;;1.190466;-0.07391583;0.06207465;;;;;1869.3
2097.0;1968.0;;;;;;;;;;81.44627;30.114138;-124.881744;;;;;;;;;
2097.0;1968.0;;;;;;;0.31910154;-1.6160772;0.23859371;;;;;;;;;;;;
2097.0;1968.0;;;;;;;;;;81.167786;31.094545;-124.881744;;;;;;;;;
2097.0;1968.0;;;;;;;0.3154393;-1.566332;0.2252266;;;;;;;;;;;;
2100.0;1968.4;;;;;;;;;;;;;;;;;-25.730919;-42.195656;-103.54549;;1878.9
2100.0;1968.4;;;;;;;;;;;;;;1.1324198;-0.010498367;0.08093509;;;;;1878.9
2100.0;1968.4;;;;;;;;;;;;;;;;;-36.774803;-40.52095;-99.77645;;1878.9
2100.0;1968.4;;;;;;;;;;;;;;1.1131932;0.02600177;0.07593005;;;;;1878.9
2100.0;1968.4;;;;;;;;;;;;;;;;;-49.45143;-36.84347;-93.17683;;1888.5
2100.0;1968.4;;;;;;;;;;;;;;1.0801111;0.03930784;0.09741508;;;;;1888.5
2100.0;1968.4;;;;;;;;;;;;;;;;;-66.034424;-31.151768;-87.0159;;1888.5
2100.0;1968.4;;;;;;;;;;;;;;1.0388501;0.03869747;0.11383404;;;;;1888.5
2100.0;1968.4;;;;;;;;;;;;;;;;;-83.36512;-21.408735;-81.48442;;1898.1
2100.0;1968.4;;;;;;;;;;;;;;1.0162053;0.049867246;0.1441084;;;;;1898.1
2100.0;1968.4;;;;;;;;;;;;;;;;;-99.238556;-11.047701;-75.72787;;1898.1
2100.0;1968.4;;;;;;;;;;;;;;0.9749443;0.05053865;0.159917;;;;;1898.1
2100.0;1968.7;;;;;;;;;;;;;3663;;;;;;;;
2100.0;1968.7;;;;;;;;;;;;;4068;;;;;;;;
2100.0;1968.7;;;;;;;;;;;;;4222;;;;;;;;
2100.0;1968.7;;;;;;;;;;;;;4052;;;;;;;;
2100.0;1968.7;;;;;;;;;;;;;4464;;;;;;;;
2100.0;1969.3;;;;-0.3865853;0.90919125;0.16983415;;;;;;;;;;;;;;;
2100.0;1969.3;;;;-0.38265234;0.8985635;0.16787721;;;;;;;;;;;;;;;
2100.0;1969.3;;;;-0.37820822;0.8891336;0.16708376;;;;;;;;;;;;;;;
2100.0;1969.3;;;;-0.37451556;0.88037884;0.16586687;;;;;;;;;;;;;;;
2100.0;1969.3;;;;-0.37053683;0.87249005;0.16503908;;;;;;;;;;;;;;;
2100.0;1977.4;;;;;;;;;;80.69857;32.273323;-124.881744;;;;;;;;;
2100.0;1977.4;;;;;;;0.30951872;-1.513657;0.21680349;;;;;;;;;;;;
2100.0;1977.4;;;;;;;;;;80.21409;33.48262;-124.881744;;;;;;;;;
2100.0;1977.4;;;;;;;0.30664998;-1.4623859;0.20587787;;;;;;;;;;;;
2102.0;1979.3;;;;-0.36672977;0.86483395;0.1632271;;;;;;;;;;;;;;;
2102.0;1979.3;;;;-0.3634186;0.8576547;0.16123964;;;;;;;;;;;;;;;
2102.0;1979.3;;;;-0.36100772;0.8507234;0.15857317;;;;;;;;;;;;;;;
2102.0;1979.3;;;;-0.35847095;0.84442914;0.15618898;;;;;;;;;;;;;;;
2102.0;1979.3;;;;-0.35737994;0.8382188;0.15415956;;;;;;;;;;;;;;;
2102.0;1982.7;262143;262143;11495;;;;;;;;;;;;;;;;;;
2102.0;1986.9;;;;;;;;;;79.56938;34.588913;-124.881744;;;;;;;;;
2102.0;1986.9;;;;;;;0.3025605;-1.411359;0.19721061;;;;;;;;;;;;
2102.0;1986.9;;;;;;;;;;78.76064;35.634174;-124.881744;;;;;;;;;
2102.0;1986.9;;;;;;;0.29493088;-1.3589892;0.19153416;;;;;;;;;;;;
2102.0;1989.3;;;;-0.35610965;0.83234036;0.15138628;;;;;;;;;;;;;;;
2102.0;1989.3;;;;-0.35563663;0.82683575;0.14852144;;;;;;;;;;;;;;;
2102.0;1989.3;;;;-0.35569385;0.8220483;0.14653017;;;;;;;;;;;;;;;
2102.0;1989.3;;;;-0.35623172;0.8176881;0.14380266;;;;;;;;;;;;;;;
2102.0;1989.3;;;;-0.35713962;0.81325924;0.14164354;;;;;;;;;;;;;;;
2102.0;1996.3;;;;;;;;;;78.058716;36.488693;-124.881744;;;;;;;;;
2102.0;1996.3;;;;;;;0.2893765;-1.3117466;0.18176824;;;;;;;;;;;;
2102.0;1996.3;;;;;;;;;;77.19276;37.148655;-124.881744;;;;;;;;;
2102.0;1996.3;;;;;;;0.2844325;-1.2687765;0.17517625;;;;;;;;;;;;
2103.0;1999.2;;;;-0.35862353;0.80905926;0.13920976;;;;;;;;;;;;;;;
2103.0;1999.2;;;;-0.36032107;0.80544674;0.13848116;;;;;;;;;;;;;;;
2103.0;1999.2;;;;-0.36220172;0.8017045;0.13798906;;;;;;;;;;;;;;;
2103.0;1999.2;;;;-0.36390308;0.79810727;0.13602068;;;;;;;;;;;;;;;
2103.0;1999.2;;;;-0.36632922;0.79468167;0.13489152;;;;;;;;;;;;;;;
2103.0;2002.8;262143;262143;11498;;;;;;;;;;;;;;;;;;
2103.0;2006.0;;;;;;;;;;76.406906;37.8811;-124.881744;;;;;;;;;
2103.0;2006.0;;;;;;;0.28040406;-1.2271492;0.16754662;;;;;;;;;;;;
2103.0;2006.0;;;;;;;;;;75.521866;38.43425;-124.881744;;;;;;;;;
2103.0;2006.0;;;;;;;0.27546006;-1.1859493;0.16351818;;;;;;;;;;;;
2103.0;2008.8;;;;;;;;;;;;;6012;;;;;;;;
2103.0;2008.8;;;;;;;;;;;;;4935;;;;;;;;
2103.0;2008.8;;;;;;;;;;;;;-3798;;;;;;;;
2103.0;2008.8;;;;;;;;;;;;;-15536;;;;;;;;
2103.0;2008.8;;;;;;;;;;;;;-17493;;;;;;;;
2103.0;2009.3;;;;-0.3689995;0.791855;0.13449098;;;;;;;;;;;;;;;
2103.0;2009.3;;;;-0.37157443;0.7892915;0.1333809;;;;;;;;;;;;;;;
2103.0;2009.3;;;;-0.37419894;0.7864343;0.13272478;;;;;;;;;;;;;;;
2103.0;2009.3;;;;-0.37735754;0.784485;0.13302995;;;;;;;;;;;;;;;
2103.0;2009.3;;;;-0.3815232;0.7826501;0.13326646;;;;;;;;;;;;;;;
2103.0;2015.6;;;;;;;;;;74.736015;38.861507;-124.881744;;;;;;;;;
2103.0;2015.6;;;;;;;0.26880702;-1.1493881;0.1561327;;;;;;;;;;;;
2103.0;2015.6;;;;;;;;;;73.92346;39.0141;-124.881744;;;;;;;;;
2103.0;2015.6;;;;;;;0.26520586;-1.1151463;0.14947966;;;;;;;;;;;;
2104.0;2019.5;;;;-0.38594824;0.781849;0.13268663;;;;;;;;;;;;;;;
2104.0;2019.5;;;;-0.3901177;0.7816354;0.13272859;;;;;;;;;;;;;;;
2104.0;2019.5;;;;-0.39471823;0.7819215;0.13262941;;;;;;;;;;;;;;;
2104.0;2019.5;;;;-0.39944082;0.7833444;0.13201143;;;;;;;;;;;;;;;
2104.0;2019.5;;;;-0.40396506;0.7848741;0.1306038;;;;;;;;;;;;;;;
2104.0;2023.1;262143;262143;11494;;;;;;;;;;;;;;;;;;
2104.0;2025.2;;;;;;;;;;73.05368;39.22391;-124.881744;;;;;;;;;
2104.0;2025.2;;;;;;;0.2626423;-1.083285;0.13989685;;;;;;;;;;;;
2104.0;2025.2;;;;;;;;;;72.149574;39.34217;-124.881744;;;;;;;;;
2104.0;2025.2;;;;;;;0.25659963;-1.0566729;0.13361004;;;;;;;;;;;;
2104.0;2027.4;;;;;;;;;;;;;;;;;-109.046455;-5.7641835;-70.6122;;1907.8
2104.0;2027.4;;;;;;;;;;;;;;0.91451764;0.039063692;0.16766869;;;;;1907.8
2104.0;2027.4;;;;;;;;;;;;;;;;;-115.26078;-6.0464797;-66.14887;;1907.8
2104.0;2027.4;;;;;;;;;;;;;;0.8598285;0.016052736;0.15619373;;;;;1907.8
2104.0;2027.4;;;;;;;;;;;;;;;;;-120.49089;-8.274331;-62.612534;;1917.3
2104.0;2027.4;;;;;;;;;;;;;;0.83120215;-0.012268441;0.11139256;;;;;1917.3
2104.0;2027.4;;;;;;;;;;;;;;;;;-120.61296;-11.46733;-59.167763;;1917.3
2104.0;2027.4;;;;;;;;;;;;;;0.82699054;-0.03625599;0.05719169;;;;;1917.3
2104.0;2027.4;;;;;;;;;;;;;;;;;-118.18293;-15.392773;-55.463573;;1927.0
2104.0;2027.4;;;;;;;;;;;;;;0.8205817;-0.06579791;-0.018189032;;;;;1927.0
2104.0;2027.4;;;;;;;;;;;;;;;;;-115.87497;-17.097994;-52.21717;;1927.0
2104.0;2027.4;;;;;;;;;;;;;;0.8037965;-0.07678457;-0.09253212;;;;;1927.0
2105.0;2028.4;;;;;;;;;;;;;;;;;-112.46834;-16.68218;-49.5735;;1936.6
2105.0;2028.4;;;;;;;;;;;;;;0.7707755;-0.08685568;-0.15997803;;;;;1936.6
2105.0;2028.4;;;;;;;;;;;;;;;;;-107.01697;-16.781366;-46.6628;;1936.6
2105.0;2028.4;;;;;;;;;;;;;;0.7420881;-0.10858486;-0.20392469;;;;;1936.6
2105.0;2028.4;;;;;;;;;;;;;;;;;-99.08597;-17.368847;-44.473095;;1946.2
2105.0;2028.4;;;;;;;;;;;;;;0.69576097;-0.12988678;-0.25171667;;;;;1946.2
2105.0;2028.4;;;;;;;;;;;;;;;;;-88.66771;-15.476699;-43.439285;;1946.2
2105.0;2028.4;;;;;;;;;;;;;;0.6458327;-0.12701803;-0.25727102;;;;;1946.2
2105.0;2028.4;;;;;;;;;;;;;;;;;-77.49031;-17.021698;-41.623432;;1955.9
2105.0;2028.4;;;;;;;;;;;;;;0.61592454;-0.125309;-0.27234718;;;;;1955.9
2105.0;2028.4;;;;;;;;;;;;;;;;;-65.610985;-19.569994;-39.15906;;1955.9
2105.0;2028.4;;;;;;;;;;;;;;0.58033997;-0.14600055;-0.29841;;;;;1955.9
2105.0;2029.2;;;;-0.40885168;0.78715146;0.12942888;;;;;;;;;;;;;;;
2105.0;2029.2;;;;-0.4140702;0.7906381;0.12793352;;;;;;;;;;;;;;;
2105.0;2029.2;;;;-0.41860968;0.79420865;0.12578966;;;;;;;;;;;;;;;
2105.0;2029.2;;;;-0.42288214;0.7976304;0.12198259;;;;;;;;;;;;;;;
2105.0;2029.2;;;;-0.42704016;0.80137646;0.11941911;;;;;;;;;;;;;;;
2105.0;2034.5;;;;;;;;;;71.22257;39.281136;-124.881744;;;;;;;;;
2105.0;2034.5;;;;;;;0.2511063;-1.030427;0.12555315;;;;;;;;;;;;
2105.0;2034.5;;;;;;;;;;70.38712;39.338356;-124.881744;;;;;;;;;
2105.0;2034.5;;;;;;;0.24561296;-1.0093081;0.11700796;;;;;;;;;;;;
2106.0;2039.3;;;;-0.4315949;0.8046533;0.11608888;;;;;;;;;;;;;;;
2106.0;2039.3;;;;-0.4356156;0.80832684;0.11372377;;;;;;;;;;;;;;;
2106.0;2039.3;;;;-0.44044882;0.81279385;0.11106111;;;;;;;;;;;;;;;
2106.0;2039.3;;;;-0.44437033;0.8162347;0.10903169;;;;;;;;;;;;;;;
2106.0;2039.3;;;;-0.4471436;0.8184434;0.1057625;;;;;;;;;;;;;;;
2106.0;2042.9;262143;262143;11503;;;;;;;;;;;;;;;;;;
2106.0;2044.0;;;;;;;;;;69.44105;39.399395;-124.881744;;;;;;;;;
2106.0;2044.0;;;;;;;0.24579607;-0.98733485;0.10803553;;;;;;;;;;;;
2106.0;2044.0;;;;;;;;;;68.35383;39.5558;-124.881744;;;;;;;;;
2106.0;2044.0;;;;;;;0.23645741;-0.96804714;0.10357982;;;;;;;;;;;;
2106.0;2048.9;;;;;;;;;;;;;-4910;;;;;;;;
2106.0;2048.9;;;;;;;;;;;;;11512;;;;;;;;
2106.0;2048.9;;;;;;;;;;;;;17983;;;;;;;;
2106.0;2048.9;;;;;;;;;;;;;13180;;;;;;;;
2106.0;2048.9;;;;;;;;;;;;;6363;;;;;;;;
2106.0;2049.3;;;;-0.45013434;0.82058346;0.10310747;;;;;;;;;;;;;;;
2106.0;2049.3;;;;-0.45335394;0.82319653;0.10188295;;;;;;;;;;;;;;;
2106.0;2049.3;;;;-0.4559365;0.8257028;0.10177995;;;;;;;;;;;;;;;
2106.0;2049.3;;;;-0.45828635;0.82852566;0.10061647;;;;;;;;;;;;;;;
2106.0;2049.3;;;;-0.45988852;0.83078015;0.09907533;;;;;;;;;;;;;;;
2106.0;2053.4;;;;;;;;;;67.44209;39.677876;-124.881744;;;;;;;;;
2106.0;2053.4;;;;;;;0.23303933;-0.9477218;0.095278785;;;;;;;;;;;;
2106.0;2053.4;;;;;;;;;;66.412094;39.876247;-124.881744;;;;;;;;;
2106.0;2053.4;;;;;;;0.22791223;-0.928312;0.09234901;;;;;;;;;;;;
2149.0;2058.8;;;;-0.46171576;0.8327905;0.098354355;;;;;;;;;;;;;;;
2149.0;2058.8;;;;-0.46350104;0.8347169;0.09891893;;;;;;;;;;;;;;;
2149.0;2058.8;;;;-0.4658547;0.83623517;0.099159256;;;;;;;;;;;;;;;
2149.0;2058.8;;;;-0.46767431;0.8376733;0.10157777;;;;;;;;;;;;;;;
2149.0;2058.8;;;;-0.47009665;0.84007657;0.10401918;;;;;;;;;;;;;;;
2149.0;2062.4;;;;;;;;;;65.34013;40.154728;-124.881744;;;;;;;;;
2149.0;2062.4;;;;;;;0.22510453;-0.90737635;0.08563494;;;;;;;;;;;;
2149.0;2062.4;;;;;;;;;;64.27198;40.627766;-124.881744;;;;;;;;;
2149.0;2062.4;;;;;;;0.22058779;-0.89022493;0.07983642;;;;;;;;;;;;
2149.0;2062.3;262143;262143;11498;;;;;;;;;;;;;;;;;;
2149.0;2068.5;;;;-0.4719773;0.8418695;0.10564043;;;;;;;;;;;;;;;
2149.0;2068.5;;;;-0.47306448;0.84357846;0.106044784;;;;;;;;;;;;;;;
2149.0;2068.5;;;;-0.47539145;0.84666073;0.107669845;;;;;;;;;;;;;;;
2149.0;2068.5;;;;-0.4776612;0.8492471;0.10790636;;;;;;;;;;;;;;;
2149.0;2068.5;;;;-0.4797669;0.8517381;0.11008455;;;;;;;;;;;;;;;
2149.0;2071.9;;;;;;;;;;63.245796;41.12369;-124.881744;;;;;;;;;
2149.0;2071.9;;;;;;;0.21869564;-0.87209696;0.07556383;;;;;;;;;;;;
2149.0;2071.9;;;;;;;;;;62.192905;41.59673;-124.881744;;;;;;;;;
2149.0;2071.9;;;;;;;0.21478927;-0.8581194;0.071779534;;;;;;;;;;;;
2150.0;2078.7;;;;-0.4805718;0.85318005;0.11242296;;;;;;;;;;;;;;;
2150.0;2078.7;;;;-0.4817925;0.8547441;0.1141205;;;;;;;;;;;;;;;
2150.0;2078.7;;;;-0.4833489;0.8560449;0.11555101;;;;;;;;;;;;;;;
2150.0;2078.7;;;;-0.4840508;0.8564874;0.11729051;;;;;;;;;;;;;;;
2150.0;2078.7;;;;-0.48582083;0.85598004;0.11909868;;;;;;;;;;;;;;;
2150.0;2081.5;;;;;;;;;;61.07135;42.306286;-124.881744;;;;;;;;;
2150.0;2081.5;;;;;;;0.21552171;-0.8445692;0.06756798;;;;;;;;;;;;
2150.0;2081.5;;;;;;;;;;59.892574;43.06162;-124.881744;;;;;;;;;
2150.0;2081.5;;;;;;;0.20984527;-0.83187354;0.06579791;;;;;;;;;;;;
2150.0;2082.5;262143;262143;11504;;;;;;;;;;;;;;;;;;
2150.0;2086.7;;;;;;;;;;;;;;;;;-54.208504;-18.265327;-36.870174;;1965.5
2150.0;2086.7;;;;;;;;;;;;;;0.517716;-0.18860438;-0.30310982;;;;;1965.5
2150.0;2086.7;;;;;;;;;;;;;;;;;-42.3101;-16.651663;-35.050507;;1965.5
2150.0;2086.7;;;;;;;;;;;;;;0.45612964;-0.20081179;-0.27033296;;;;;1965.5
2150.0;2086.7;;;;;;;;;;;;;;;;;-34.810173;-18.337809;-33.66192;;1975.2
2150.0;2086.7;;;;;;;;;;;;;;0.46852016;-0.1739555;-0.2816248;;;;;1975.2
2150.0;2086.7;;;;;;;;;;;;;;;;;-27.878658;-16.582996;-31.41499;;1975.2
2150.0;2086.7;;;;;;;;;;;;;;0.47077852;-0.19910276;-0.30292672;;;;;1975.2
2150.0;2086.7;;;;;;;;;;;;;;;;;-18.147068;-10.956145;-29.660177;;1984.7
2150.0;2086.7;;;;;;;;;;;;;;0.43848994;-0.22186956;-0.28846094;;;;;1984.7
2150.0;2086.7;;;;;;;;;;;;;;;;;-8.548997;-7.37785;-28.309732;;1984.7
2150.0;2086.7;;;;;;;;;;;;;;0.41804254;-0.21955016;-0.29639578;;;;;1984.7
2152.0;2087.5;;;;;;;;;;;;;;;;;2.4414806;-5.893887;-25.986511;;1994.4
2152.0;2087.5;;;;;;;;;;;;;;0.40894803;-0.22858363;-0.32642597;;;;;1994.4
2152.0;2087.5;;;;;;;;;;;;;;;;;13.91644;-4.1772213;-23.97992;;1994.4
2152.0;2087.5;;;;;;;;;;;;;;0.41724905;-0.2164983;-0.3493759;;;;;1994.4
2152.0;2087.5;;;;;;;;;;;;;;;;;23.873104;-1.781518;-21.084475;;2004.1
2152.0;2087.5;;;;;;;;;;;;;;0.41938534;-0.21900083;-0.352855;;;;;2004.1
2152.0;2087.5;;;;;;;;;;;;;;;;;32.338177;1.5640736;-17.92581;;2004.1
2152.0;2087.5;;;;;;;;;;;;;;0.43287453;-0.21271402;-0.3315531;;;;;2004.1
2152.0;2087.5;;;;;;;;;;;;;;;;;38.827175;7.2443314;-14.389478;;2013.7
2152.0;2087.5;;;;;;;;;;;;;;0.43391216;-0.22498246;-0.28766748;;;;;2013.7
2152.0;2087.5;;;;;;;;;;;;;;;;;44.96139;11.211737;-12.390514;;2013.7
2152.0;2087.5;;;;;;;;;;;;;;0.41608936;-0.21942808;-0.23322245;;;;;2013.7
2152.0;2088.2;;;;;;;;;;;;;3772;;;;;;;;
2152.0;2088.2;;;;;;;;;;;;;3666;;;;;;;;
2152.0;2088.2;;;;;;;;;;;;;3233;;;;;;;;
2152.0;2088.2;;;;;;;;;;;;;2699;;;;;;;;
2152.0;2088.2;;;;;;;;;;;;;2311;;;;;;;;
2152.0;2088.6;;;;-0.48771673;0.8539697;0.12186815;;;;;;;;;;;;;;;
2152.0;2088.6;;;;-0.489502;0.8518754;0.12520982;;;;;;;;;;;;;;;
2152.0;2088.6;;;;-0.49121863;0.84850323;0.12768175;;;;;;;;;;;;;;;
2152.0;2088.6;;;;-0.4928437;0.84513104;0.13050081;;;;;;;;;;;;;;;
2152.0;2088.6;;;;-0.49565512;0.8411447;0.13368227;;;;;;;;;;;;;;;
2152.0;2090.9;;;;;;;;;;58.835873;44.14884;-124.881744;;;;;;;;;
2152.0;2090.9;;;;;;;0.2106998;-0.8179571;0.062623985;;;;;;;;;;;;
2152.0;2090.9;;;;;;;;;;57.72576;45.476395;-124.881744;;;;;;;;;
2152.0;2090.9;;;;;;;0.21784112;-0.8074587;0.061159093;;;;;;;;;;;;
2153.0;2098.6;;;;-0.49670416;0.8367425;0.13817216;;;;;;;;;;;;;;;
2153.0;2098.6;;;;-0.49945456;0.83189404;0.14177324;;;;;;;;;;;;;;;
2153.0;2098.6;;;;-0.5027543;0.8275758;0.14514162;;;;;;;;;;;;;;;
2153.0;2098.6;;;;-0.5069085;0.8232728;0.14804842;;;;;;;;;;;;;;;
2153.0;2098.6;;;;-0.50894934;0.8189355;0.15187074;;;;;;;;;;;;;;;
2153.0;2100.5;;;;;;;;;;56.37913;47.204506;-124.881744;;;;;;;;;
2153.0;2100.5;;;;;;;0.21936704;-0.79714346;0.0601825;;;;;;;;;;;;
2153.0;2100.5;;;;;;;;;;55.234684;49.12717;-124.881744;;;;;;;;;
2153.0;2100.5;;;;;;;0.21802424;-0.7876217;0.058900725;;;;;;;;;;;;
2153.0;2101.6;;;;;;;;;;;;;;;;;50.580612;10.479293;-10.162663;;2023.3
2153.0;2101.6;;;;;;;;;;;;;;0.41846982;-0.1986755;-0.22956023;;;;;2023.3
2153.0;2101.6;;;;;;;;;;;;;;;;;57.5045;8.930479;-6.248665;;2023.3
2153.0;2101.6;;;;;;;;;;;;;;0.44404432;-0.18384351;-0.22614215;;;;;2023.3
2153.0;2101.6;;;;;;;;;;;;;;;;;62.547684;8.663442;-2.6703696;;2032.9
2153.0;2101.6;;;;;;;;;;;;;;0.46797082;-0.16510513;-0.2151555;;;;;2032.9
2153.0;2101.6;;;;;;;;;;;;;;;;;65.13032;10.826442;0.26703694;;2032.9
2153.0;2101.6;;;;;;;;;;;;;;0.4925077;-0.13489181;-0.19476913;;;;;2032.9
2153.0;2101.6;;;;;;;;;;;;;;;;;68.25083;12.543107;2.8725548;;2042.6
2153.0;2101.6;;;;;;;;;;;;;;0.5206458;-0.09619434;-0.18189032;;;;;2042.6
2153.0;2101.6;;;;;;;;;;;;;;;;;71.99698;13.241219;5.272073;;2042.6
2153.0;2101.6;;;;;;;;;;;;;;0.53028965;-0.08233894;-0.18628499;;;;;2042.6
2153.0;2102.3;262143;262143;11507;;;;;;;;;;;;;;;;;;
2210.0;2108.5;;;;-0.50983053;0.81411755;0.15603639;;;;;;;;;;;;;;;
2210.0;2108.5;;;;-0.51045996;0.8097154;0.15924455;;;;;;;;;;;;;;;
2210.0;2108.5;;;;-0.5093613;0.8058053;0.16226579;;;;;;;;;;;;;;;
2210.0;2108.5;;;;-0.5079308;0.8009378;0.16492464;;;;;;;;;;;;;;;
2210.0;2108.5;;;;-0.50804144;0.79669964;0.16666414;;;;;;;;;;;;;;;
2210.0;2109.8;;;;;;;;;;53.994873;51.007874;-124.881744;;;;;;;;;
2210.0;2109.8;;;;;;;0.21918394;-0.7792596;0.060121465;;;;;;;;;;;;
2210.0;2109.8;;;;;;;;;;52.56432;53.235725;-124.881744;;;;;;;;;
2210.0;2109.8;;;;;;;0.21906187;-0.7721183;0.06372265;;;;;;;;;;;;
2210.0;2118.3;;;;-0.5064011;0.7920152;0.16917802;;;;;;;;;;;;;;;
2210.0;2118.3;;;;-0.5072976;0.7883035;0.16987611;;;;;;;;;;;;;;;
2210.0;2118.3;;;;-0.5081902;0.78444684;0.17126848;;;;;;;;;;;;;;;
2210.0;2118.3;;;;-0.5071297;0.77957165;0.17210008;;;;;;;;;;;;;;;
2210.0;2118.3;;;;-0.50830466;0.77502835;0.17144014;;;;;;;;;;;;;;;
2210.0;2119.2;;;;;;;;;;51.305428;55.40254;-124.881744;;;;;;;;;
2210.0;2119.2;;;;;;;0.21784112;-0.7685782;0.06604206;;;;;;;;;;;;
2210.0;2119.2;;;;;;;;;;50.03891;57.55791;-124.86266;;;;;;;;;
2210.0;2119.2;;;;;;;0.21893978;-0.7647939;0.06891079;;;;;;;;;;;;
2210.0;2122.2;262143;262143;11505;;;;;;;;;;;;;;;;;;
2210.0;2128.1;;;;;;;;;;;;;1774;;;;;;;;
2210.0;2128.1;;;;;;;;;;;;;1407;;;;;;;;
2210.0;2128.1;;;;;;;;;;;;;1190;;;;;;;;
2210.0;2128.1;;;;;;;;;;;;;743;;;;;;;;
2210.0;2128.1;;;;;;;;;;;;;-22;;;;;;;;
2211.0;2128.4;;;;-0.5078965;0.7712709;0.1717949;;;;;;;;;;;;;;;
2211.0;2128.4;;;;-0.5075188;0.7669984;0.1711693;;;;;;;;;;;;;;;
2211.0;2128.4;;;;-0.5087815;0.76423275;0.17061235;;;;;;;;;;;;;;;
2211.0;2128.4;;;;-0.51084906;0.7614213;0.17121507;;;;;;;;;;;;;;;
2211.0;2128.4;;;;-0.5113984;0.758587;0.17227174;;;;;;;;;;;;;;;
2211.0;2128.8;;;;;;;;;;48.73043;59.850613;-124.30189;;;;;;;;;
2211.0;2128.8;;;;;;;0.21588793;-0.7632069;0.071535386;;;;;;;;;;;;
2211.0;2128.8;;;;;;;;;;47.47917;62.02124;-121.60863;;;;;;;;;
2211.0;2128.8;;;;;;;0.21057771;-0.7640614;0.070558794;;;;;;;;;;;;
2211.0;2138.5;;;;;;;;;;46.36906;63.62728;-117.49626;;;;;;;;;
2211.0;2138.5;;;;;;;0.2075869;-0.7658925;0.06927702;;;;;;;;;;;;
2211.0;2138.5;;;;;;;;;;45.175022;65.06547;-113.37626;;;;;;;;;
2211.0;2138.5;;;;;;;0.2026429;-0.76296276;0.06750695;;;;;;;;;;;;
2211.0;2138.5;;;;-0.5120507;0.75672543;0.17313768;;;;;;;;;;;;;;;
2211.0;2138.5;;;;-0.5111695;0.7551385;0.17526628;;;;;;;;;;;;;;;
2211.0;2138.5;;;;-0.5119706;0.7554704;0.17628099;;;;;;;;;;;;;;;
2211.0;2138.5;;;;-0.5114632;0.7565576;0.17682649;;;;;;;;;;;;;;;
2211.0;2138.5;;;;-0.51136786;0.75873196;0.17725374;;;;;;;;;;;;;;;
2211.0;2142.5;262143;262143;11506;;;;;;;;;;;;;;;;;;
2212.0;2147.1;;;;;;;;;;;;;;;;;77.265236;12.485885;6.870479;;2052.3
2212.0;2147.1;;;;;;;;;;;;;;0.5251015;-0.06695761;-0.19824824;;;;;2052.3
2212.0;2147.1;;;;;;;;;;;;;;;;;80.85879;9.281442;9.758293;;2052.3
2212.0;2147.1;;;;;;;;;;;;;;0.5297403;-0.049684133;-0.22150335;;;;;2052.3
2212.0;2147.1;;;;;;;;;;;;;;;;;80.33616;6.897183;13.901181;;2061.7
2212.0;2147.1;;;;;;;;;;;;;;0.56770533;-0.023804437;-0.25202185;;;;;2061.7
2212.0;2147.1;;;;;;;;;;;;;;;;;76.50227;8.049257;17.559587;;2061.7
2212.0;2147.1;;;;;;;;;;;;;;0.6155583;0.01782281;-0.25318155;;;;;2061.7
2212.0;2147.1;;;;;;;;;;;;;;;;;70.242165;12.844478;20.451216;;2071.4
2212.0;2147.1;;;;;;;;;;;;;;0.6580401;0.06799524;-0.21625416;;;;;2071.4
2212.0;2147.1;;;;;;;;;;;;;;;;;64.359726;18.112736;23.438215;;2071.4
2212.0;2147.1;;;;;;;;;;;;;;0.7184057;0.12494278;-0.17419966;;;;;2071.4
2212.0;2148.0;;;;;;;;;;44.11832;66.23661;-109.332565;;;;;;;;;
2212.0;2148.0;;;;;;;0.19855343;-0.7588733;0.06439406;;;;;;;;;;;;
2212.0;2148.0;;;;;;;;;;43.191322;67.00339;-105.02945;;;;;;;;;
2212.0;2148.0;;;;;;;0.1906186;-0.75179297;0.061525315;;;;;;;;;;;;
2212.0;2148.5;;;;-0.5109368;0.76143277;0.17709734;;;;;;;;;;;;;;;
2212.0;2148.5;;;;-0.509224;0.7639657;0.17840196;;;;;;;;;;;;;;;
2212.0;2148.5;;;;-0.50703436;0.7674333;0.17861558;;;;;;;;;;;;;;;
2212.0;2148.5;;;;-0.50563437;0.7718202;0.17858888;;;;;;;;;;;;;;;
2212.0;2148.5;;;;-0.50542074;0.7772409;0.17875673;;;;;;;;;;;;;;;
2212.0;2157.5;;;;;;;;;;42.30247;67.60613;-100.653854;;;;;;;;;
2212.0;2157.5;;;;;;;0.18677329;-0.74581134;0.058534503;;;;;;;;;;;;
2212.0;2157.5;;;;;;;;;;41.302986;68.10968;-96.26301;;;;;;;;;
2212.0;2157.5;;;;;;;0.18347728;-0.7412336;0.056703392;;;;;;;;;;;;
2214.0;2158.5;;;;-0.5061112;0.7834512;0.17958452;;;;;;;;;;;;;;;
2214.0;2158.5;;;;-0.5069962;0.7900659;0.18093492;;;;;;;;;;;;;;;
2214.0;2158.5;;;;-0.50732046;0.7974092;0.18269731;;;;;;;;;;;;;;;
2214.0;2158.5;;;;-0.50825125;0.8051797;0.18427278;;;;;;;;;;;;;;;
2214.0;2158.5;;;;-0.5088387;0.81388104;0.18696596;;;;;;;;;;;;;;;
2214.0;2161.7;;;;;;;;;;;;;;;;;58.347576;24.658957;25.902584;;2081.1
2214.0;2161.7;;;;;;;;;;;;;;0.78420365;0.17566454;-0.16614276;;;;;2081.1
2214.0;2161.7;;;;;;;;;;;;;;;;;52.90002;34.146397;28.111362;;2081.1
2214.0;2161.7;;;;;;;;;;;;;;0.8307138;0.19299905;-0.17749566;;;;;2081.1
2214.0;2161.7;;;;;;;;;;;;;;;;;51.80517;41.13895;28.508102;;2090.7
2214.0;2161.7;;;;;;;;;;;;;;0.80880153;0.22882779;-0.21839045;;;;;2090.7
2214.0;2161.7;;;;;;;;;;;;;;;;;53.811764;37.556843;25.92166;;2090.7
2214.0;2161.7;;;;;;;;;;;;;;0.8182623;0.3020722;-0.32026124;;;;;2090.7
2214.0;2161.7;;;;;;;;;;;;;;;;;60.274055;30.514694;23.728142;;2100.3
2214.0;2161.7;;;;;;;;;;;;;;0.82302314;0.39710686;-0.4710837;;;;;2100.3
2214.0;2161.7;;;;;;;;;;;;;;;;;68.2432;27.630695;20.729698;;2100.3
2214.0;2161.7;;;;;;;;;;;;;;0.8570208;0.48402357;-0.57869196;;;;;2100.3
2214.0;2162.4;262143;262143;11490;;;;;;;;;;;;;;;;;;
2214.0;2167.0;;;;;;;;;;40.494247;68.11731;-91.81112;;;;;;;;;
2214.0;2167.0;;;;;;;0.17426069;-0.738731;0.054933317;;;;;;;;;;;;
2214.0;2167.0;;;;;;;;;;39.803764;67.15598;-86.91672;;;;;;;;;
2214.0;2167.0;;;;;;;0.16815698;-0.74019593;0.051087987;;;;;;;;;;;;
2268.0;2168.3;;;;;;;;;;;;;-744;;;;;;;;
2268.0;2168.3;;;;;;;;;;;;;-1142;;;;;;;;
2268.0;2168.3;;;;;;;;;;;;;-1552;;;;;;;;
2268.0;2168.3;;;;;;;;;;;;;-2237;;;;;;;;
2268.0;2168.3;;;;;;;;;;;;;-2964;;;;;;;;
2268.0;2168.4;;;;-0.5099488;0.8235513;0.18915942;;;;;;;;;;;;;;;
2268.0;2168.4;;;;-0.511612;0.83339703;0.19130328;;;;;;;;;;;;;;;
2268.0;2168.4;;;;-0.5113221;0.8431436;0.19435504;;;;;;;;;;;;;;;
2268.0;2168.4;;;;-0.51147085;0.85338986;0.1964989;;;;;;;;;;;;;;;
2268.0;2168.4;;;;-0.5118943;0.8640443;0.19832233;;;;;;;;;;;;;;;
2268.0;2176.4;;;;;;;;;;38.83862;65.99628;-82.10623;;;;;;;;;
2268.0;2176.4;;;;;;;0.1650441;-0.7396466;0.046143986;;;;;;;;;;;;
2268.0;2176.4;;;;;;;;;;37.907806;64.78698;-77.379684;;;;;;;;;
2268.0;2176.4;;;;;;;0.15796381;-0.7398297;0.043946654;;;;;;;;;;;;
2268.0;2178.4;;;;-0.5131913;0.8738862;0.19955829;;;;;;;;;;;;;;;
2268.0;2178.4;;;;-0.51352316;0.8835794;0.20071414;;;;;;;;;;;;;;;
2268.0;2178.4;;;;-0.5135003;0.8927804;0.20235065;;;;;;;;;;;;;;;
2268.0;2178.4;;;;-0.5149041;0.9016725;0.20308307;;;;;;;;;;;;;;;
2268.0;2178.4;;;;-0.516182;0.90919507;0.20331576;;;;;;;;;;;;;;;
2268.0;2182.5;262143;262143;11484;;;;;;;;;;;;;;;;;;
2268.0;2186.1;;;;;;;;;;36.812954;63.451797;-72.61879;;;;;;;;;
2268.0;2186.1;;;;;;;0.15546128;-0.7381207;0.040650655;;;;;;;;;;;;
2268.0;2186.1;;;;;;;;;;35.79058;62.02887;-67.81594;;;;;;;;;
2268.0;2186.1;;;;;;;0.15454574;-0.7376324;0.045228433;;;;;;;;;;;;
2326.0;2188.5;;;;-0.5173302;0.91591656;0.20438007;;;;;;;;;;;;;;;
2326.0;2188.5;;;;-0.51826483;0.9222108;0.20475772;;;;;;;;;;;;;;;
2326.0;2188.5;;;;-0.519455;0.9272462;0.20509723;;;;;;;;;;;;;;;
2326.0;2188.5;;;;-0.5212403;0.9316293;0.20478061;;;;;;;;;;;;;;;
2326.0;2188.5;;;;-0.5220948;0.93534863;0.20492938;;;;;;;;;;;;;;;
2326.0;2195.7;;;;;;;;;;34.7911;60.510574;-63.02072;;;;;;;;;
2326.0;2195.7;;;;;;;0.15088351;-0.7396466;0.048463393;;;;;;;;;;;;
2326.0;2195.7;;;;;;;;;;33.715324;58.820614;-58.297985;;;;;;;;;
2326.0;2195.7;;;;;;;0.14813684;-0.7447737;0.052797023;;;;;;;;;;;;
2326.0;2198.6;;;;-0.5234986;0.93792355;0.20453647;;;;;;;;;;;;;;;
2326.0;2198.6;;;;-0.5249253;0.94012463;0.20396426;;;;;;;;;;;;;;;
2326.0;2198.6;;;;-0.52668005;0.9419595;0.20299914;;;;;;;;;;;;;;;
2326.0;2198.6;;;;-0.5279313;0.94321454;0.20127872;;;;;;;;;;;;;;;
2326.0;2198.6;;;;-0.52985007;0.94396603;0.19964984;;;;;;;;;;;;;;;
2326.0;2202.8;262143;262143;11488;;;;;;;;;;;;;;;;;;
2326.0;2205.3;;;;;;;;;;32.658623;56.619465;-53.61339;;;;;;;;;
2326.0;2205.3;;;;;;;0.14642781;-0.75209814;0.05285806;;;;;;;;;;;;
2326.0;2205.3;;;;;;;;;;31.476028;54.090244;-48.86395;;;;;;;;;
2326.0;2205.3;;;;;;;0.14026307;-0.7635121;0.05206458;;;;;;;;;;;;
2388.0;2207.0;;;;;;;;;;;;;;;;;74.48805;23.812067;18.097477;;2110.0
2388.0;2207.0;;;;;;;;;;;;;;0.8310801;0.5744194;-0.5914487;;;;;2110.0
2388.0;2207.0;;;;;;;;;;;;;;;;;74.64828;6.084628;14.965514;;2110.0
2388.0;2207.0;;;;;;;;;;;;;;0.9223914;0.71535385;-0.6728721;;;;;2110.0
2388.0;2207.0;;;;;;;;;;;;;;;;;67.80068;-15.114291;14.103366;;2119.7
2388.0;2207.0;;;;;;;;;;;;;;1.0357372;0.7721183;-0.8537248;;;;;2119.7
2388.0;2207.0;;;;;;;;;;;;;;;;;54.80361;-26.718956;12.356182;;2119.7
2388.0;2207.0;;;;;;;;;;;;;;1.0807825;0.8501236;-0.9011505;;;;;2119.7
2388.0;2207.0;;;;;;;;;;;;;;;;;38.10236;-38.87295;13.229774;;2129.4
2388.0;2207.0;;;;;;;;;;;;;;1.1048921;0.8385876;-0.94857633;;;;;2129.4
2388.0;2207.0;;;;;;;;;;;;;;;;;22.29377;-46.78106;10.353404;;2129.4
2388.0;2207.0;;;;;;;;;;;;;;1.1389508;0.87887204;-0.92428356;;;;;2129.4
2388.0;2208.5;;;;;;;;;;;;;-3383;;;;;;;;
2388.0;2208.5;;;;;;;;;;;;;-3459;;;;;;;;
2388.0;2208.5;;;;;;;;;;;;;-3449;;;;;;;;
2388.0;2208.5;;;;;;;;;;;;;-3337;;;;;;;;
2388.0;2208.5;;;;;;;;;;;;;-2931;;;;;;;;
2388.0;2208.6;;;;-0.53261954;0.94392407;0.19808581;;;;;;;;;;;;;;;
2388.0;2208.6;;;;-0.5353051;0.94331753;0.19578174;;;;;;;;;;;;;;;
2388.0;2208.6;;;;-0.53770834;0.94269574;0.19448856;;;;;;;;;;;;;;;
2388.0;2208.6;;;;-0.5407525;0.94142926;0.19223025;;;;;;;;;;;;;;;
2388.0;2208.6;;;;-0.5438767;0.94012845;0.19106677;;;;;;;;;;;;;;;
2388.0;2214.8;;;;;;;;;;30.323954;51.33595;-43.89325;;;;;;;;;
2388.0;2214.8;;;;;;;0.13763848;-0.76973784;0.054567095;;;;;;;;;;;;
2388.0;2214.8;;;;;;;;;;29.255806;48.39854;-38.83099;;;;;;;;;
2388.0;2214.8;;;;;;;0.13208412;-0.7760857;0.053529467;;;;;;;;;;;;
2390.0;2218.7;;;;-0.54744726;0.9389421;0.18971637;;;;;;;;;;;;;;;
2390.0;2218.7;;;;-0.5507813;0.9375268;0.18764117;;;;;;;;;;;;;;;
2390.0;2218.7;;;;-0.5546532;0.93602;0.18582918;;;;;;;;;;;;;;;
2390.0;2218.7;;;;-0.55818564;0.9353715;0.18372728;;;;;;;;;;;;;;;
2390.0;2218.7;;;;-0.5610848;0.9353334;0.18228914;;;;;;;;;;;;;;;
2390.0;2222.1;;;;;;;;;;;;;;;;;6.050295;-51.595356;5.9320354;;2139.0
2390.0;2222.1;;;;;;;;;;;;;;1.1713614;0.8810083;-0.9094516;;;;;2139.0
2390.0;2222.1;;;;;;;;;;;;;;;;;-8.522293;-48.50154;-1.1520737;;2139.0
2390.0;2222.1;;;;;;;;;;;;;;1.1740471;0.89077425;-0.7988525;;;;;2139.0
2390.0;2222.1;;;;;;;;;;;;;;;;;-23.152103;-41.287727;-8.430738;;2148.6
2390.0;2222.1;;;;;;;;;;;;;;1.1365703;0.8923002;-0.6796472;;;;;2148.6
2390.0;2222.1;;;;;;;;;;;;;;;;;-38.350323;-30.369732;-13.565478;;2148.6
2390.0;2222.1;;;;;;;;;;;;;;1.08652;0.8881497;-0.54860073;;;;;2148.6
2390.0;2222.1;;;;;;;;;;;;;;;;;-54.876095;-18.33018;-12.115849;;2158.2
2390.0;2222.1;;;;;;;;;;;;;;1.048738;0.8325449;-0.47810298;;;;;2158.2
2390.0;2222.1;;;;;;;;;;;;;;;;;-64.783165;-6.717887;-5.8175907;;2158.2
2390.0;2222.1;;;;;;;;;;;;;;0.9720756;0.60713524;-0.44294566;;;;;2158.2
2390.0;2222.8;262143;262143;11480;;;;;;;;;;;;;;;;;;
2390.0;2224.3;;;;;;;;;;28.214361;45.20554;-33.940395;;;;;;;;;
2390.0;2224.3;;;;;;;0.1276284;-0.77932066;0.055787835;;;;;;;;;;;;
2390.0;2224.3;;;;;;;;;;27.15766;41.829433;-28.95825;;;;;;;;;
2390.0;2224.3;;;;;;;0.12634663;-0.7795648;0.055482652;;;;;;;;;;;;
2396.0;2228.7;;;;-0.5657769;0.9353639;0.1791649;;;;;;;;;;;;;;;
2396.0;2228.7;;;;-0.569603;0.9366151;0.17692949;;;;;;;;;;;;;;;
2396.0;2228.7;;;;-0.5738602;0.93875897;0.1743889;;;;;;;;;;;;;;;
2396.0;2228.7;;;;-0.5773049;0.9406396;0.17179109;;;;;;;;;;;;;;;
2396.0;2228.7;;;;-0.58100134;0.94466794;0.17074205;;;;;;;;;;;;;;;
2396.0;2233.7;;;;;;;;;;26.066622;38.296917;-23.823511;;;;;;;;;
2396.0;2233.7;;;;;;;0.12396619;-0.7786493;0.057069615;;;;;;;;;;;;
2396.0;2233.7;;;;;;;;;;24.925991;34.524063;-18.74981;;;;;;;;;
2396.0;2233.7;;;;;;;0.123783074;-0.77968687;0.055482652;;;;;;;;;;;;
2396.0;2238.6;;;;-0.5844689;0.9508859;0.16887285;;;;;;;;;;;;;;;
2396.0;2238.6;;;;-0.5872994;0.95928967;0.1669388;;;;;;;;;;;;;;;
2396.0;2238.6;;;;-0.5903588;0.9686967;0.16486742;;;;;;;;;;;;;;;
2396.0;2238.6;;;;-0.5931664;0.97921765;0.1644478;;;;;;;;;;;;;;;
2396.0;2238.6;;;;-0.5953141;0.99097836;0.16472246;;;;;;;;;;;;;;;
2396.0;2242.9;262143;262143;11496;;;;;;;;;;;;;;;;;;
2396.0;2243.4;;;;;;;;;;23.709066;30.533768;-13.595997;;;;;;;;;
2396.0;2243.4;;;;;;;0.12427137;-0.7826777;0.056154057;;;;;;;;;;;;
2396.0;2243.4;;;;;;;;;;22.465437;26.367992;-8.3925905;;;;;;;;;
2396.0;2243.4;;;;;;;0.123538926;-0.7836543;0.052797023;;;;;;;;;;;;
2396.0;2248.7;;;;;;;;;;;;;-2253;;;;;;;;
2396.0;2248.7;;;;;;;;;;;;;-1543;;;;;;;;
2396.0;2248.7;;;;;;;;;;;;;-847;;;;;;;;
2396.0;2248.7;;;;;;;;;;;;;-22;;;;;;;;
2396.0;2248.7;;;;;;;;;;;;;852;;;;;;;;
2398.0;2248.7;;;;-0.5970307;1.0037385;0.16493608;;;;;;;;;;;;;;;
2398.0;2248.7;;;;-0.5997086;1.0170366;0.16651918;;;;;;;;;;;;;;;
2398.0;2248.7;;;;-0.6031304;1.0309755;0.17013933;;;;;;;;;;;;;;;
2398.0;2248.7;;;;-0.6070252;1.0456048;0.17556764;;;;;;;;;;;;;;;
2398.0;2248.7;;;;-0.61183554;1.0603677;0.1832123;;;;;;;;;;;;;;;
2398.0;2253.0;;;;;;;;;;21.22181;22.011477;-3.173925;;;;;;;;;
2398.0;2253.0;;;;;;;0.1248207;-0.7889645;0.052369762;;;;;;;;;;;;
2398.0;2253.0;;;;;;;;;;19.878994;17.548143;2.0409255;;;;;;;;;
2398.0;2253.0;;;;;;;0.12726219;-0.7936033;0.052369762;;;;;;;;;;;;
2398.0;2258.8;;;;-0.6160851;1.075142;0.19279101;;;;;;;;;;;;;;;
2398.0;2258.8;;;;-0.62063986;1.0905839;0.20400241;;;;;;;;;;;;;;;
2398.0;2258.8;;;;-0.62452704;1.1055604;0.21668246;;;;;;;;;;;;;;;
2398.0;2258.8;;;;-0.62733847;1.1197473;0.22950366;;;;;;;;;;;;;;;
2398.0;2258.8;;;;-0.6288262;1.1333696;0.24292758;;;;;;;;;;;;;;;
2398.0;2262.7;;;;;;;;;;18.391216;13.096255;7.221442;;;;;;;;;
2398.0;2262.7;;;;;;;0.13238929;-0.79989016;0.054383986;;;;;;;;;;;;
2398.0;2262.7;;;;;;;;;;16.876738;8.571886;12.466811;;;;;;;;;
2398.0;2262.7;;;;;;;0.13562426;-0.80721456;0.055421613;;;;;;;;;;;;
2398.0;2263.1;262143;262143;11518;;;;;;;;;;;;;;;;;;
2399.0;2267.3;;;;;;;;;;;;;;;;;-65.86276;4.2306285;-7.7288127;;2167.8
2399.0;2267.3;;;;;;;;;;;;;;0.91091645;0.51118505;-0.4032716;;;;;2167.8
2399.0;2267.3;;;;;;;;;;;;;;;;;-61.7275;12.287516;-8.545182;;2167.8
2399.0;2267.3;;;;;;;;;;;;;;0.82931;0.44178593;-0.34900966;;;;;2167.8
2399.0;2267.3;;;;;;;;;;;;;;;;;-52.27439;14.709922;-7.065035;;2177.4
2399.0;2267.3;;;;;;;;;;;;;;0.76198614;0.34223455;-0.30396435;;;;;2177.4
2399.0;2267.3;;;;;;;;;;;;;;;;;-38.777584;12.348553;-4.4900355;;2177.4
2399.0;2267.3;;;;;;;;;;;;;;0.72457045;0.24719992;-0.26111636;;;;;2177.4
2399.0;2267.3;;;;;;;;;;;;;;;;;-28.660696;7.4694057;-0.90792567;;2187.0
2399.0;2267.3;;;;;;;;;;;;;;0.69228184;0.16541032;-0.21320231;;;;;2187.0
2399.0;2267.3;;;;;;;;;;;;;;;;;-28.996399;-0.27466658;4.9592576;;2187.0
2399.0;2267.3;;;;;;;;;;;;;;0.69881284;0.083010346;-0.14423047;;;;;2187.0
2399.0;2268.8;;;;-0.6292115;1.1461564;0.2561188;;;;;;;;;;;;;;;
2399.0;2268.8;;;;-0.6280251;1.158024;0.26753238;;;;;;;;;;;;;;;
2399.0;2268.8;;;;-0.62551886;1.1688768;0.27569965;;;;;;;;;;;;;;;
2399.0;2268.8;;;;-0.6226197;1.1781427;0.28242496;;;;;;;;;;;;;;;
2399.0;2268.8;;;;-0.61920935;1.1864167;0.2873917;;;;;;;;;;;;;;;
2399.0;2272.2;;;;;;;;;;15.167699;4.135258;17.838068;;;;;;;;;
2399.0;2272.2;;;;;;;0.13928647;-0.8096561;0.057435837;;;;;;;;;;;;
2399.0;2272.2;;;;;;;;;;13.504441;-0.25940734;23.174994;;;;;;;;;
2399.0;2272.2;;;;;;;0.14539018;-0.81331825;0.0656148;;;;;;;;;;;;
