patientId;holterMac;flexMac;;;;;;;;;;;;;;;;;;;;
stairsdown;CA:F3:0B:1E:33:78;D3:4A:5C:52:80:78;;;;;;;;;;;;;;;;;;;;
receivedTimeStamp;timeStamp;red;ir;green;adxl_accX;adxl_accY;adxl_accZ;lsm_accelX;lsm_accelY;lsm_accelZ;lsm_gyroX;lsm_gyroY;lsm_gyroZ;ecg;flex_lsm_accelX;flex_lsm_accelY;flex_lsm_accelZ;flex_lsm_gyroX;flex_lsm_gyroY;flex_lsm_gyroZ;flex_cmd;flexTimeStamp
255.0;217.5;;;;;;;;;;;;;;;;;;;;17;0.1
255.0;217.5;;;;;;;;;;;;;;;;;13.363293;1.9379253;0.839259;;127.5
255.0;217.5;;;;;;;;;;;;;;0.8697775;-0.050355542;-0.23505355;;;;;127.5
255.0;217.5;;;;;;;;;;;;;;;;;-7.396924;-16.727959;-7.3320723;;127.5
255.0;217.5;;;;;;;;;;;;;;0.9057894;-0.04651021;-0.2369457;;;;;127.5
255.0;217.5;;;;;;;;;;;;;;;;;-66.52272;-84.83764;-58.68328;;137.2
255.0;217.5;;;;;;;;;;;;;;0.91256446;-0.044801172;-0.23169653;;;;;137.2
255.0;217.5;;;;;;;;;;;;;;;;;-122.68059;-124.988556;-118.11808;;137.2
255.0;217.5;;;;;;;;;;;;;;0.9304483;-0.050355542;-0.21082187;;;;;137.2
316.0;218.3;;;;;;;;;;;;;;;;;-67.346725;-124.767296;-63.75698;;146.9
316.0;218.3;;;;;;;;;;;;;;0.9312418;-0.064638205;-0.15540025;;;;;146.9
316.0;218.3;;;;;;;;;;;;;;;;;-17.864773;-124.17982;4.1848507;;146.9
316.0;218.3;;;;;;;;;;;;;;0.9305093;-0.08252205;-0.040711693;;;;;146.9
316.0;218.3;;;;;;;;;;;;;;;;;-35.19547;-93.829155;20.283363;;156.6
316.0;218.3;;;;;;;;;;;;;;0.93630785;-0.11249123;0.06946013;;;;;156.6
316.0;218.3;;;;;;;;;;;;;;;;;-46.19739;-7.816553;46.246986;;156.6
316.0;218.3;;;;;;;;;;;;;;0.9290445;-0.118533894;0.003906369;;;;;156.6
316.0;218.3;;;;;;;;;;;;;;;;;-42.085026;-7.7898498;46.63991;;166.3
316.0;218.3;;;;;;;;;;;;;;0.969573;-0.15112767;-0.123111665;;;;;166.3
316.0;218.3;;;;;;;;;;;;;;;;;-36.206398;-9.4569235;45.899837;;166.3
316.0;218.3;;;;;;;;;;;;;;1.0082705;-0.18512528;-0.2026429;;;;;166.3
316.0;293.2;;;;;;;;;;;;;;;;;-33.833584;-6.591998;45.888393;;175.9
316.0;293.2;;;;;;;;;;;;;;1.0120548;-0.22083193;-0.22229682;;;;;175.9
316.0;293.2;;;;;;;;;;;;;;;;;-33.173622;-4.5968504;45.594654;;175.9
316.0;293.2;;;;;;;;;;;;;;0.9937437;-0.24347667;-0.2200995;;;;;175.9
316.0;293.2;;;;;;;;;;;;;;;;;-32.551807;-5.184332;45.728172;;185.6
316.0;293.2;;;;;;;;;;;;;;0.97738576;-0.23914304;-0.23102511;;;;;185.6
316.0;293.2;;;;;;;;;;;;;;;;;-32.597584;-5.878628;46.39958;;185.6
316.0;293.2;;;;;;;;;;;;;;0.9613941;-0.25263223;-0.23651844;;;;;185.6
316.0;293.2;;;;;;;;;;;;;;;;;-31.9071;-6.488998;46.380505;;195.3
316.0;293.2;;;;;;;;;;;;;;0.9469283;-0.25342572;-0.23566394;;;;;195.3
316.0;293.2;;;;;;;;;;;;;;;;;-30.442213;-7.0078125;46.72384;;195.3
316.0;293.2;;;;;;;;;;;;;;0.9229408;-0.24146245;-0.23004852;;;;;195.3
378.0;293.9;;;;;;;;;;;;;;;;;-27.985474;-9.140294;46.727654;;205.0
378.0;293.9;;;;;;;;;;;;;;0.9136021;-0.21881771;-0.24622333;;;;;205.0
378.0;293.9;;;;;;;;;;;;;;;;;-24.235512;-10.55559;45.97995;;205.0
378.0;293.9;;;;;;;;;;;;;;0.90377516;-0.1981872;-0.24628437;;;;;205.0
378.0;293.9;;;;;;;;;;;;;;;;;-19.428846;-10.837886;45.13306;;214.6
378.0;293.9;;;;;;;;;;;;;;0.8885159;-0.1944029;-0.22113712;;;;;214.6
378.0;293.9;;;;;;;;;;;;;;;;;-14.13007;-11.814478;43.939026;;214.6
378.0;293.9;;;;;;;;;;;;;;0.87801754;-0.1904355;-0.20038453;;;;;214.6
378.0;293.9;;;;;;;;;;;;;;;;;-9.483627;-12.142552;41.711174;;224.3
378.0;293.9;;;;;;;;;;;;;;0.8550676;-0.1726127;-0.17413862;;;;;224.3
378.0;293.9;;;;;;;;;;;;;;;;;-6.199072;-13.451034;39.433727;;224.3
378.0;293.9;;;;;;;;;;;;;;0.8534196;-0.156621;-0.17645802;;;;;224.3
378.0;353.5;;;;;;;;;;;;;;;;;-2.8992584;-14.736626;36.5421;;233.9
378.0;353.5;;;;;;;;;;;;;;0.85421306;-0.12909329;-0.20606098;;;;;233.9
378.0;353.5;;;;;;;;;;;;;;;;;-0.5340739;-14.942626;33.63903;;233.9
378.0;353.5;;;;;;;;;;;;;;0.8659932;-0.097170934;-0.23987548;;;;;233.9
378.0;353.5;;;;;;;;;;;;;;;;;0.7057405;-13.794366;30.800806;;243.4
378.0;353.5;;;;;;;;;;;;;;0.89400923;-0.06482132;-0.2598346;;;;;243.4
378.0;353.5;;;;;;;;;;;;;;;;;0.35096285;-10.536515;28.118992;;243.4
378.0;353.5;;;;;;;;;;;;;;0.92410046;-0.03723258;-0.25141147;;;;;243.4
378.0;353.5;;;;;;;;;;;;;;;;;-1.1864071;-6.6682944;25.650806;;253.0
378.0;353.5;;;;;;;;;;;;;;0.95394754;-0.008911405;-0.22742394;;;;;253.0
378.0;353.5;;;;;;;;;;;;;;;;;-3.4180732;-3.299814;23.491623;;253.0
378.0;353.5;;;;;;;;;;;;;;0.98391676;0.022583697;-0.20056765;;;;;253.0
439.0;354.6;;;;;;;;;;;;;;;;;-6.260109;-1.2207403;21.546068;;262.6
439.0;354.6;;;;;;;;;;;;;;1.0212713;0.054994356;-0.18744469;;;;;262.6
439.0;354.6;;;;;;;;;;;;;;;;;-9.315775;0.84307384;20.218512;;262.6
439.0;354.6;;;;;;;;;;;;;;1.0526444;0.084902495;-0.16846217;;;;;262.6
439.0;354.6;;;;;;;;;;;;;;;;;-11.223182;2.0828884;19.753105;;272.2
439.0;354.6;;;;;;;;;;;;;;1.0762048;0.08819849;-0.14661092;;;;;272.2
439.0;354.6;;;;;;;;;;;;;;;;;-12.798699;1.3161107;19.386885;;272.2
439.0;354.6;;;;;;;;;;;;;;1.0956755;0.08948027;-0.16235848;;;;;272.2
439.0;354.6;;;;;;;;;;;;;;;;;-15.049439;0.67903686;19.623402;;281.9
439.0;354.6;;;;;;;;;;;;;;1.1091647;0.08270516;-0.19269387;;;;;281.9
439.0;354.6;;;;;;;;;;;;;;;;;-18.162329;0.43107393;20.546587;;281.9
439.0;354.6;;;;;;;;;;;;;;1.1116673;0.061525315;-0.2191229;;;;;281.9
439.0;413.6;;;;;;;;;;;;;;;;;-21.408735;-0.022888882;21.870327;;291.5
439.0;413.6;;;;;;;;;;;;;;1.1069673;0.041627247;-0.24359874;;;;;291.5
439.0;413.6;;;;;;;;;;;;;;;;;-24.784843;-0.22888882;23.384808;;291.5
439.0;413.6;;;;;;;;;;;;;;1.1019623;0.021423994;-0.2603229;;;;;291.5
439.0;413.6;;;;;;;;;;;;;;;;;-28.229622;0.053407393;24.639883;;301.1
439.0;413.6;;;;;;;;;;;;;;1.0851772;0.017151402;-0.27405623;;;;;301.1
439.0;413.6;;;;;;;;;;;;;;;;;-31.109806;0.25559253;26.08951;;301.1
439.0;413.6;;;;;;;;;;;;;;1.0615559;0.013367107;-0.2870571;;;;;301.1
439.0;413.6;;;;;;;;;;;;;;;;;-33.40251;-0.39674062;26.993622;;310.7
439.0;413.6;;;;;;;;;;;;;;1.0396435;0.019714957;-0.30774865;;;;;310.7
439.0;413.6;;;;;;;;;;;;;;;;;-35.222176;-1.5564439;27.249214;;310.7
439.0;413.6;;;;;;;;;;;;;;1.0148015;0.030396435;-0.33960998;;;;;310.7
500.0;414.4;;;;;;;;;;;;;;;;;-37.827694;-3.0480363;26.81814;;320.3
500.0;414.4;;;;;;;;;;;;;;1.002472;0.050721765;-0.38209173;;;;;320.3
500.0;414.4;;;;;;;;;;;;;;;;;-42.878506;-1.7891476;26.184881;;320.3
500.0;414.4;;;;;;;;;;;;;;1.0079653;0.062379833;-0.37751397;;;;;320.3
500.0;414.4;;;;;;;;;;;;;;;;;-47.54784;-0.45777765;24.719994;;330.0
500.0;414.4;;;;;;;;;;;;;;1.0351268;0.0778222;-0.3645741;;;;;330.0
500.0;414.4;;;;;;;;;;;;;;;;;-47.42958;-4.203925;22.141178;;330.0
500.0;414.4;;;;;;;;;;;;;;1.101291;0.08587909;-0.4242683;;;;;330.0
500.0;414.4;;;;;;;;;;;;;;;;;-44.46928;-7.065035;19.16944;;339.7
500.0;414.4;;;;;;;;;;;;;;1.1770378;0.051026948;-0.5073397;;;;;339.7
500.0;414.4;;;;;;;;;;;;;;;;;-42.573322;-3.4714804;16.018402;;339.7
500.0;414.4;;;;;;;;;;;;;;1.2115238;0.022644734;-0.5196692;;;;;339.7
500.0;458.9;;;;;;;;;;;;;;;;;-41.47847;2.9602954;13.016145;;349.3
500.0;458.9;;;;;;;;;;;;;;1.2255623;0.039796136;-0.42365795;;;;;349.3
500.0;458.9;;;;;;;;;;;;;;;;;-40.746025;7.7517014;9.918515;;349.3
500.0;458.9;;;;;;;;;;;;;;1.2305673;0.08587909;-0.2669759;;;;;349.3
500.0;458.9;;;;;;;;;;;;;;;;;-39.41847;10.029145;5.432295;;359.0
500.0;458.9;;;;;;;;;;;;;;1.22013;0.13312174;-0.12164678;;;;;359.0
500.0;458.9;;;;;;;;;;;;;;;;;-34.875027;8.777886;-0.7705924;;359.0
500.0;458.9;;;;;;;;;;;;;;1.187048;0.17896055;-0.06927702;;;;;359.0
500.0;458.9;;;;;;;;;;;;;;;;;-28.485214;5.893887;-7.1146274;;368.5
500.0;458.9;;;;;;;;;;;;;;1.1534165;0.18982513;-0.14630574;;;;;368.5
500.0;458.9;;;;;;;;;;;;;;;;;-25.048065;7.869961;-13.30607;;368.5
500.0;458.9;;;;;;;;;;;;;;1.1287576;0.18451491;-0.21002838;;;;;368.5
560.0;460.1;;;;;;;;;;;;;;;;;-22.724844;12.447737;-19.604326;;378.1
560.0;460.1;;;;;;;;;;;;;;1.121189;0.18134098;-0.20014039;;;;;378.1
560.0;460.1;;;;;;;;;;;;;;;;;-17.399364;17.143772;-25.940733;;378.1
560.0;460.1;;;;;;;;;;;;;;1.1346171;0.18561357;-0.14386426;;;;;378.1
560.0;460.1;;;;;;;;;;;;;;;;;-10.311441;22.694326;-32.837917;;387.8
560.0;460.1;;;;;;;;;;;;;;1.1466415;0.19519639;-0.07940916;;;;;387.8
560.0;460.1;;;;;;;;;;;;;;;;;-3.2616658;29.37788;-39.91058;;387.8
560.0;460.1;;;;;;;;;;;;;;1.1275369;0.18866542;-0.02148503;;;;;387.8
560.0;460.1;;;;;;;;;;;;;;;;;2.9526658;33.516956;-46.983246;;397.5
560.0;460.1;;;;;;;;;;;;;;1.1302224;0.1688284;-0.008239998;;;;;397.5
560.0;460.1;;;;;;;;;;;;;;;;;8.941923;37.27073;-54.795982;;397.5
560.0;460.1;;;;;;;;;;;;;;1.1457258;0.16016114;-0.032471694;;;;;397.5
560.0;519.3;;;;;;;;;;;;;;;;;15.411847;40.871914;-63.459427;;407.1
560.0;519.3;;;;;;;;;;;;;;1.1501205;0.13476974;-0.074221015;;;;;407.1
560.0;519.3;;;;;;;;;;;;;;;;;20.428328;45.033875;-72.5959;;407.1
560.0;519.3;;;;;;;;;;;;;;1.1412091;0.0966216;-0.10058901;;;;;407.1
560.0;519.3;;;;;;;;;;;;;;;;;25.35325;53.01828;-81.41956;;416.8
560.0;519.3;;;;;;;;;;;;;;1.1123997;0.056459244;-0.06103702;;;;;416.8
560.0;519.3;;;;;;;;;;;;;;;;;30.758842;61.723686;-88.77834;;416.8
560.0;519.3;;;;;;;;;;;;;;1.0698569;-0.01208533;0.016541032;;;;;416.8
560.0;519.3;;;;;;;;;;;;;;;;;30.594805;65.87802;-95.30549;;426.5
560.0;519.3;;;;;;;;;;;;;;0.9765923;-0.06982635;-0.0081789605;;;;;426.5
560.0;519.3;;;;;;;;;;;;;;;;;27.52388;66.16413;-101.439705;;426.5
560.0;519.3;;;;;;;;;;;;;;0.8982208;-0.08948027;-0.066530354;;;;;426.5
619.0;520.1;;;;;;;;;;;;;;;;;26.51677;59.70565;-105.37279;;436.2
619.0;520.1;;;;;;;;;;;;;;0.8954741;-0.120365;-0.19086276;;;;;436.2
619.0;520.1;;;;;;;;;;;;;;;;;23.499252;55.635242;-110.58763;;436.2
619.0;520.1;;;;;;;;;;;;;;0.85744804;-0.10644856;-0.2694174;;;;;436.2
619.0;520.1;;;;;;;;;;;;;;;;;19.028292;51.85095;-116.058075;;445.9
619.0;520.1;;;;;;;;;;;;;;0.8154546;-0.106509596;-0.2679525;;;;;445.9
619.0;520.1;;;;;;;;;;;;;;;;;16.315958;44.671467;-121.116516;;445.9
619.0;520.1;;;;;;;;;;;;;;0.78872037;-0.09479049;-0.25946838;;;;;445.9
619.0;520.1;;;;;;;;;;;;;;;;;11.88696;37.163914;-124.35529;;455.5
619.0;520.1;;;;;;;;;;;;;;0.7837153;-0.10010071;-0.29377118;;;;;455.5
619.0;520.1;;;;;;;;;;;;;;;;;7.374035;33.41777;-124.98474;;455.5
619.0;520.1;;;;;;;;;;;;;;0.7577746;-0.105288856;-0.31580552;;;;;455.5
619.0;534.3;;;;;;;;;;;;;;;;;2.8077028;28.687399;-124.988556;;465.1
619.0;534.3;;;;;;;;;;;;;;0.7259133;-0.09765923;-0.32947782;;;;;465.1
619.0;534.3;;;;;;;;;;;;;;;;;-0.24796289;21.885588;-124.988556;;465.1
619.0;534.3;;;;;;;;;;;;;;0.72383803;-0.11938841;-0.33277383;;;;;465.1
619.0;534.3;;;;;;;;;;;;;;;;;0.92318493;14.584033;-124.988556;;474.7
619.0;534.3;;;;;;;;;;;;;;0.7473373;-0.16821803;-0.31928465;;;;;474.7
619.0;534.3;;;;;;;;;;;;;;;;;7.8356276;5.1728873;-124.988556;;474.7
619.0;534.3;;;;;;;;;;;;;;0.81948304;-0.2141789;-0.28058717;;;;;474.7
619.0;534.3;;;;;;;;;;;;;;;;;21.263771;-6.267739;-124.217964;;484.3
619.0;534.3;;;;;;;;;;;;;;0.9158605;-0.29566333;-0.26239815;;;;;484.3
619.0;534.3;;;;;;;;;;;;;;;;;38.232063;-15.171514;-121.76122;;484.3
619.0;534.3;;;;;;;;;;;;;;1.0462356;-0.33448288;-0.24933623;;;;;484.3
680.0;579.6;;;;;;;;;;;;;;;;;50.847652;-18.738365;-116.81341;;493.8
680.0;579.6;;;;;;;;;;;;;;1.2056032;-0.39008757;-0.25611132;;;;;493.8
680.0;579.6;;;;;;;;;;;;;;;;;57.29087;-12.49733;-114.41008;;493.8
680.0;579.6;;;;;;;;;;;;;;1.3977478;-0.4469741;-0.22772911;;;;;493.8
680.0;579.6;;;;;;;;;;;;;;;;;62.715538;-3.8338878;-116.74093;;503.4
680.0;579.6;;;;;;;;;;;;;;1.5674306;-0.41486862;-0.1607715;;;;;503.4
680.0;579.6;;;;;;;;;;;;;;;;;66.91565;-2.6474807;-118.202;;503.4
680.0;579.6;;;;;;;;;;;;;;1.7047639;-0.326487;-0.18427075;;;;;503.4
680.0;579.6;;;;;;;;;;;;;;;;;72.80953;-2.2049623;-117.58401;;513.1
680.0;579.6;;;;;;;;;;;;;;1.7812433;-0.24756615;-0.2814417;;;;;513.1
680.0;579.6;;;;;;;;;;;;;;;;;77.43309;0.43488875;-117.00415;;513.1
680.0;579.6;;;;;;;;;;;;;;1.7574999;-0.19190039;-0.3754387;;;;;513.1
680.0;595.1;;;;;;;;;;;;;;;;;73.21009;2.4033327;-117.20634;;522.8
680.0;595.1;;;;;;;;;;;;;;1.6621602;-0.21509446;-0.46772668;;;;;522.8
680.0;595.1;;;;;;;;;;;;;;;;;60.57924;5.733665;-120.76556;;522.8
680.0;595.1;;;;;;;;;;;;;;1.5165257;-0.16577655;-0.49324015;;;;;522.8
680.0;595.1;;;;;;;;;;;;;;;;;43.481247;8.610034;-123.12311;;532.4
680.0;595.1;;;;;;;;;;;;;;1.3712577;-0.09668264;-0.46510208;;;;;532.4
680.0;595.1;;;;;;;;;;;;;;;;;31.311993;9.0983305;-122.34107;;532.4
680.0;595.1;;;;;;;;;;;;;;1.2385021;-0.06799524;-0.38148138;;;;;532.4
680.0;595.1;;;;;;;;;;;;;;;;;23.716698;10.605183;-121.14703;;542.0
680.0;595.1;;;;;;;;;;;;;;1.1034882;-0.07635731;-0.27954954;;;;;542.0
680.0;595.1;;;;;;;;;;;;;;;;;20.260475;8.754997;-118.06849;;542.0
680.0;595.1;;;;;;;;;;;;;;1.0685141;-0.12317271;-0.19299905;;;;;542.0
739.0;640.0;;;;;;;;;;;;;;;;;19.585253;5.1538134;-115.256966;;551.7
739.0;640.0;;;;;;;;;;;;;;1.0541704;-0.17603077;-0.1605884;;;;;551.7
739.0;640.0;;;;;;;;;;;;;;;;;18.162329;4.333628;-112.846;;551.7
739.0;640.0;;;;;;;;;;;;;;1.0403149;-0.20862453;-0.14496292;;;;;551.7
739.0;640.0;;;;;;;;;;;;;;;;;15.76281;5.2415543;-110.164185;;561.4
739.0;640.0;;;;;;;;;;;;;;1.017365;-0.22638631;-0.13098544;;;;;561.4
739.0;640.0;;;;;;;;;;;;;;;;;13.161107;6.7979984;-107.20008;;561.4
739.0;640.0;;;;;;;;;;;;;;0.9746391;-0.26490065;-0.11957152;;;;;561.4
739.0;640.0;;;;;;;;;;;;;;;;;10.517442;7.904294;-104.19401;;571.0
739.0;640.0;;;;;;;;;;;;;;0.95345926;-0.2491531;-0.11291849;;;;;571.0
739.0;640.0;;;;;;;;;;;;;;;;;8.266702;8.484145;-100.939964;;571.0
739.0;640.0;;;;;;;;;;;;;;0.9173254;-0.2855922;-0.12079226;;;;;571.0
739.0;655.0;;;;;;;;;;;;;;;;;6.000702;9.220405;-97.96442;;580.7
739.0;655.0;;;;;;;;;;;;;;0.86867887;-0.29407635;-0.10626545;;;;;580.7
739.0;655.0;;;;;;;;;;;;;;;;;2.66274;5.7565536;-94.336525;;580.7
739.0;655.0;;;;;;;;;;;;;;0.85781425;-0.29206213;-0.11890011;;;;;580.7
739.0;655.0;;;;;;;;;;;;;;;;;-1.7624439;1.2550737;-89.5909;;590.4
739.0;655.0;;;;;;;;;;;;;;0.93234044;-0.2700278;-0.14258248;;;;;590.4
739.0;655.0;;;;;;;;;;;;;;;;;-6.370739;-1.4915922;-82.83105;;590.4
739.0;655.0;;;;;;;;;;;;;;1.0758384;-0.33838925;-0.20239876;;;;;590.4
739.0;655.0;;;;;;;;;;;;;;;;;-8.255258;4.058962;-77.87561;;600.1
739.0;655.0;;;;;;;;;;;;;;1.0334178;-0.3622547;-0.19806513;;;;;600.1
739.0;655.0;;;;;;;;;;;;;;;;;-11.944181;7.3053684;-74.86954;;600.1
739.0;655.0;;;;;;;;;;;;;;0.93362224;-0.33283487;-0.114322335;;;;;600.1
801.0;700.3;;;;;;;;;;;;;;;;;-14.728996;1.0261849;-70.879234;;609.5
801.0;700.3;;;;;;;;;;;;;;0.98043764;-0.3227027;-0.14484085;;;;;609.5
801.0;700.3;;;;;;;;;;;;;;;;;-16.819515;0.15259254;-67.133095;;609.5
801.0;700.3;;;;;;;;;;;;;;0.9697562;-0.28949857;-0.17566454;;;;;609.5
801.0;700.3;;;;;;;;;;;;;;;;;-22.518845;3.4485915;-63.840904;;619.2
801.0;700.3;;;;;;;;;;;;;;0.931608;-0.23535874;-0.13061923;;;;;619.2
801.0;700.3;;;;;;;;;;;;;;;;;-28.626362;4.4747763;-58.847317;;619.2
801.0;700.3;;;;;;;;;;;;;;0.89724416;-0.21375164;-0.07293924;;;;;619.2
801.0;700.3;;;;;;;;;;;;;;;;;-35.493027;2.517777;-52.709282;;628.9
801.0;700.3;;;;;;;;;;;;;;0.88576925;-0.18469802;-0.05957213;;;;;628.9
801.0;700.3;;;;;;;;;;;;;;;;;-43.2638;3.3341472;-46.239357;;628.9
801.0;700.3;;;;;;;;;;;;;;0.8717917;-0.15057832;-0.028321177;;;;;628.9
801.0;708.1;;;;;;;;;;;;;;;;;-52.087467;5.344554;-39.574875;;638.4
801.0;708.1;;;;;;;;;;;;;;0.86953336;-0.12359996;0.015381329;;;;;638.4
801.0;708.1;;;;;;;;;;;;;;;;;-62.60872;8.217109;-34.06247;;638.4
801.0;708.1;;;;;;;;;;;;;;0.81606495;-0.09277627;0.041871395;;;;;638.4
801.0;708.1;;;;;;;;;;;;;;;;;-73.721275;14.210181;-28.889584;;648.1
801.0;708.1;;;;;;;;;;;;;;0.7553331;-0.078676715;0.121890925;;;;;648.1
801.0;708.1;;;;;;;;;;;;;;;;;-82.35038;13.7867365;-24.220253;;648.1
801.0;708.1;;;;;;;;;;;;;;0.75502795;-0.051637318;0.096377455;;;;;648.1
801.0;708.1;;;;;;;;;;;;;;;;;-89.15219;17.62444;-20.516068;;657.7
801.0;708.1;;;;;;;;;;;;;;0.6979583;-0.015381329;0.10657064;;;;;657.7
801.0;708.1;;;;;;;;;;;;;;;;;-95.24445;17.532883;-15.816217;;657.7
801.0;708.1;;;;;;;;;;;;;;0.6731773;0.012024293;0.103946045;;;;;657.7
860.0;760.5;;;;;;;;;;;;;;;;;-100.97049;14.072847;-10.811182;;667.3
860.0;760.5;;;;;;;;;;;;;;0.6457717;0.0023804437;0.06372265;;;;;667.3
860.0;760.5;;;;;;;;;;;;;;;;;-105.853455;10.586108;-5.855739;;667.3
860.0;760.5;;;;;;;;;;;;;;0.63472396;-0.0145268105;0.024842067;;;;;667.3
860.0;760.5;;;;;;;;;;;;;;;;;-109.332565;8.682516;-0.6981109;;677.0
860.0;760.5;;;;;;;;;;;;;;0.62233347;-0.044923246;-0.021607105;;;;;677.0
860.0;760.5;;;;;;;;;;;;;;;;;-110.19852;8.831293;4.3908505;;677.0
860.0;760.5;;;;;;;;;;;;;;0.58229315;-0.08185064;-0.055543687;;;;;677.0
860.0;760.5;;;;;;;;;;;;;;;;;-109.3669;6.9887385;9.285256;;686.7
860.0;760.5;;;;;;;;;;;;;;0.55543685;-0.12128056;-0.09179968;;;;;686.7
860.0;760.5;;;;;;;;;;;;;;;;;-106.72323;4.3908505;14.236885;;686.7
860.0;760.5;;;;;;;;;;;;;;0.53242594;-0.19342631;-0.13245033;;;;;686.7
860.0;768.0;;;;;;;;;;;;;;;;;-101.21845;3.2845547;18.066957;;696.4
860.0;768.0;;;;;;;;;;;;;;0.49195838;-0.24695578;-0.14996795;;;;;696.4
860.0;768.0;;;;;;;;;;;;;;;;;-93.44386;2.1401105;20.863216;;696.4
860.0;768.0;;;;;;;;;;;;;;0.44801173;-0.2829066;-0.16858424;;;;;696.4
860.0;768.0;;;;;;;;;;;;;;;;;-84.116646;1.3466293;23.659475;;705.9
860.0;768.0;;;;;;;;;;;;;;0.4240852;-0.31318095;-0.1777398;;;;;705.9
860.0;768.0;;;;;;;;;;;;;;;;;-75.865204;1.2932218;26.272621;;705.9
860.0;768.0;;;;;;;;;;;;;;0.4304941;-0.3203833;-0.16101566;;;;;705.9
860.0;768.0;;;;;;;;;;;;;;;;;-69.22361;0.4463332;28.7904;;715.6
860.0;768.0;;;;;;;;;;;;;;0.45527512;-0.3500473;-0.16034424;;;;;715.6
860.0;768.0;;;;;;;;;;;;;;;;;-61.120945;1.1024811;31.186102;;715.6
860.0;768.0;;;;;;;;;;;;;;0.4801172;-0.39326152;-0.14606158;;;;;715.6
919.0;820.9;;;;;;;;;;;;;;;;;-49.073765;0.5607776;33.51314;;725.3
919.0;820.9;;;;;;;;;;;;;;0.5033723;-0.42744225;-0.16064943;;;;;725.3
919.0;820.9;;;;;;;;;;;;;;;;;-32.494583;-3.9750361;36.523026;;725.3
919.0;820.9;;;;;;;;;;;;;;0.5592822;-0.4288461;-0.19690542;;;;;725.3
919.0;820.9;;;;;;;;;;;;;;;;;-15.831476;-8.877071;39.944912;;734.9
919.0;820.9;;;;;;;;;;;;;;0.6559038;-0.4064455;-0.20667134;;;;;734.9
919.0;820.9;;;;;;;;;;;;;;;;;-6.1609244;-7.736442;42.7221;;734.9
919.0;820.9;;;;;;;;;;;;;;0.7245094;-0.3859981;-0.14166692;;;;;734.9
919.0;820.9;;;;;;;;;;;;;;;;;-5.9778132;-1.2550737;43.748283;;744.3
919.0;820.9;;;;;;;;;;;;;;0.79152805;-0.35193944;-0.024597919;;;;;744.3
919.0;820.9;;;;;;;;;;;;;;;;;-12.157811;6.7484055;42.84799;;744.3
919.0;820.9;;;;;;;;;;;;;;0.8916288;-0.31299785;0.06805628;;;;;744.3
919.0;828.3;;;;;;;;;;;;;;;;;-19.547104;15.526292;40.948208;;754.0
919.0;828.3;;;;;;;;;;;;;;0.96530044;-0.26538897;0.10211493;;;;;754.0
919.0;828.3;;;;;;;;;;;;;;;;;-23.67092;21.698662;39.04843;;754.0
919.0;828.3;;;;;;;;;;;;;;1.0115055;-0.20783105;0.07672353;;;;;754.0
919.0;828.3;;;;;;;;;;;;;;;;;-24.895473;23.678549;37.12958;;763.7
919.0;828.3;;;;;;;;;;;;;;1.050203;-0.11774041;0.06860561;;;;;763.7
919.0;828.3;;;;;;;;;;;;;;;;;-28.435621;21.629993;35.63036;;763.7
919.0;828.3;;;;;;;;;;;;;;1.0917081;-0.0112918485;0.110965304;;;;;763.7
919.0;828.3;;;;;;;;;;;;;;;;;-36.48488;17.89529;34.043396;;773.2
919.0;828.3;;;;;;;;;;;;;;1.1412091;0.092837304;0.17877743;;;;;773.2
919.0;828.3;;;;;;;;;;;;;;;;;-47.799618;17.540512;31.388287;;773.2
919.0;828.3;;;;;;;;;;;;;;1.228431;0.19476913;0.2567217;;;;;773.2
979.0;881.7;;;;;;;;;;;;;;;;;-59.739983;21.874142;27.207253;;783.0
979.0;881.7;;;;;;;;;;;;;;1.3397626;0.31220436;0.2989593;;;;;783.0
979.0;881.7;;;;;;;;;;;;;;;;;-68.41486;28.698843;22.274696;;783.0
979.0;881.7;;;;;;;;;;;;;;1.4175848;0.4397717;0.23004852;;;;;783.0
979.0;881.7;;;;;;;;;;;;;;;;;-67.57943;31.388287;15.991699;;792.6
979.0;881.7;;;;;;;;;;;;;;1.4700155;0.55763423;0.013855403;;;;;792.6
979.0;881.7;;;;;;;;;;;;;;;;;-56.001465;27.94351;6.214331;;792.6
979.0;881.7;;;;;;;;;;;;;;1.4835048;0.6963714;-0.27375102;;;;;792.6
979.0;881.7;;;;;;;;;;;;;;;;;-39.017914;22.968992;-1.9531846;;802.1
979.0;881.7;;;;;;;;;;;;;;1.4584795;0.8122196;-0.44520402;;;;;802.1
979.0;881.7;;;;;;;;;;;;;;;;;-26.497696;9.876553;-7.492294;;802.1
979.0;881.7;;;;;;;;;;;;;;1.4830165;0.8773461;-0.53022856;;;;;802.1
979.0;882.5;;;;;;;;;;;;;;;;;-16.651663;-6.672109;-10.917997;;811.7
979.0;882.5;;;;;;;;;;;;;;1.3920102;0.8750267;-0.47004607;;;;;811.7
979.0;882.5;;;;;;;;;;;;;;;;;-6.431776;-21.519365;-11.970885;;811.7
979.0;882.5;;;;;;;;;;;;;;1.3053377;0.7903684;-0.29157385;;;;;811.7
979.0;882.5;;;;;;;;;;;;;;;;;4.081851;-31.575214;-13.576922;;821.4
979.0;882.5;;;;;;;;;;;;;;1.225074;0.70583206;-0.14545122;;;;;821.4
979.0;882.5;;;;;;;;;;;;;;;;;14.286477;-38.888214;-15.228736;;821.4
979.0;882.5;;;;;;;;;;;;;;1.1738029;0.60353404;-0.13910337;;;;;821.4
979.0;882.5;;;;;;;;;;;;;;;;;27.653584;-38.78903;-16.888182;;831.0
979.0;882.5;;;;;;;;;;;;;;1.1156347;0.4676046;-0.10937834;;;;;831.0
979.0;882.5;;;;;;;;;;;;;;;;;41.02832;-35.191654;-18.807032;;831.0
979.0;882.5;;;;;;;;;;;;;;1.04709;0.3444319;-0.08191168;;;;;831.0
1038.0;941.5;;;;;;;;;;;;;;;;;49.36369;-30.846582;-19.94766;;840.7
1038.0;941.5;;;;;;;;;;;;;;0.98117006;0.1843318;-0.07538072;;;;;840.7
1038.0;941.5;;;;;;;;;;;;;;;;;57.569355;-24.864954;-20.47029;;840.7
1038.0;941.5;;;;;;;;;;;;;;0.9047517;0.029053621;-0.051026948;;;;;840.7
1038.0;941.5;;;;;;;;;;;;;;;;;66.53799;-22.11066;-19.009216;;850.2
1038.0;941.5;;;;;;;;;;;;;;0.8235725;-0.11243019;-0.048280284;;;;;850.2
1038.0;941.5;;;;;;;;;;;;;;;;;74.81231;-24.998474;-16.281626;;850.2
1038.0;941.5;;;;;;;;;;;;;;0.7939085;-0.2412183;-0.083010346;;;;;850.2
1038.0;941.5;;;;;;;;;;;;;;;;;78.74157;-30.423138;-12.207404;;859.8
1038.0;941.5;;;;;;;;;;;;;;0.8261971;-0.36542863;-0.09588916;;;;;859.8
1038.0;941.5;;;;;;;;;;;;;;;;;74.064606;-38.750877;-7.969146;;859.8
1038.0;941.5;;;;;;;;;;;;;;0.9920957;-0.5230262;-0.06952117;;;;;859.8
1038.0;942.4;;;;;;;;;;;;;;;;;59.884945;-41.505173;-4.5930357;;869.5
1038.0;942.4;;;;;;;;;;;;;;1.2508316;-0.687582;0.0463271;;;;;869.5
1038.0;942.4;;;;;;;;;;;;;;;;;47.50206;-28.992584;-1.3046663;;869.5
1038.0;942.4;;;;;;;;;;;;;;1.4352244;-0.7596057;0.32642597;;;;;869.5
1038.0;942.4;;;;;;;;;;;;;;;;;43.294323;-18.982513;1.3351848;;879.1
1038.0;942.4;;;;;;;;;;;;;;1.4200873;-0.6517533;0.43476668;;;;;879.1
1038.0;942.4;;;;;;;;;;;;;;;;;46.697136;-19.661549;2.6284068;;879.1
1038.0;942.4;;;;;;;;;;;;;;1.2912382;-0.42701498;0.28223518;;;;;879.1
1038.0;942.4;;;;;;;;;;;;;;;;;56.63091;-31.23188;4.0856657;;888.8
1038.0;942.4;;;;;;;;;;;;;;1.2441175;-0.17560351;-0.0017700735;;;;;888.8
1038.0;942.4;;;;;;;;;;;;;;;;;55.932796;-42.33299;5.4246655;;888.8
1038.0;942.4;;;;;;;;;;;;;;1.2750022;0.07806635;-0.2492752;;;;;888.8
1096.0;1002.1;;;;;;;;;;;;;;;;;39.99832;-42.592396;7.0116277;;898.5
1096.0;1002.1;;;;;;;;;;;;;;1.2331309;0.21802424;-0.36848047;;;;;898.5
1096.0;1002.1;;;;;;;;;;;;;;;;;23.880733;-37.179176;8.995331;;898.5
1096.0;1002.1;;;;;;;;;;;;;;1.1553087;0.2573321;-0.31153294;;;;;898.5
1096.0;1002.1;;;;;;;;;;;;;;;;;9.517961;-32.7044;10.162663;;908.2
1096.0;1002.1;;;;;;;;;;;;;;1.086642;0.28357798;-0.32227546;;;;;908.2
1096.0;1002.1;;;;;;;;;;;;;;;;;-2.498703;-26.829586;11.917479;;908.2
1096.0;1002.1;;;;;;;;;;;;;;1.0639973;0.25379193;-0.2898648;;;;;908.2
1096.0;1002.1;;;;;;;;;;;;;;;;;-10.486923;-12.665181;13.336589;;917.8
1096.0;1002.1;;;;;;;;;;;;;;0.9747612;0.24524674;-0.120670184;;;;;917.8
1096.0;1002.1;;;;;;;;;;;;;;;;;-21.130253;2.1973326;13.969848;;917.8
1096.0;1002.1;;;;;;;;;;;;;;0.8872341;0.23963134;0.052919097;;;;;917.8
1096.0;1002.9;;;;;;;;;;;;;;;;;-39.384136;12.192145;14.866329;;927.5
1096.0;1002.9;;;;;;;;;;;;;;0.873928;0.17267373;0.2031312;;;;;927.5
1096.0;1002.9;;;;;;;;;;;;;;;;;-51.313057;19.35255;16.28544;;927.5
1096.0;1002.9;;;;;;;;;;;;;;0.9317911;0.0336314;0.3302713;;;;;927.5
1096.0;1002.9;;;;;;;;;;;;;;;;;-44.240395;20.672476;18.55144;;937.2
1096.0;1002.9;;;;;;;;;;;;;;1.0373242;-0.11560412;0.29651785;;;;;937.2
1096.0;1002.9;;;;;;;;;;;;;;;;;-20.950956;17.780846;21.61092;;937.2
1096.0;1002.9;;;;;;;;;;;;;;1.1278421;-0.21808527;0.07556383;;;;;937.2
1096.0;1002.9;;;;;;;;;;;;;;;;;4.989776;9.651479;26.203955;;946.8
1096.0;1002.9;;;;;;;;;;;;;;1.1288186;-0.2793054;-0.19855343;;;;;946.8
1096.0;1002.9;;;;;;;;;;;;;;;;;19.150366;-5.1347394;32.97525;;946.8
1096.0;1002.9;;;;;;;;;;;;;;1.1343119;-0.37562183;-0.41773736;;;;;946.8
1157.0;1061.9;;;;;;;;;;;;;;;;;20.413067;-17.91055;41.100803;;956.5
1157.0;1061.9;;;;;;;;;;;;;;1.1057466;-0.4977569;-0.44141972;;;;;956.5
1157.0;1061.9;;;;;;;;;;;;;;;;;16.026033;-23.754845;49.504837;;956.5
1157.0;1061.9;;;;;;;;;;;;;;1.0329294;-0.62190616;-0.36103398;;;;;956.5
1157.0;1061.9;;;;;;;;;;;;;;;;;6.000702;-20.615253;58.530685;;966.2
1157.0;1061.9;;;;;;;;;;;;;;0.9717704;-0.7569201;-0.23285623;;;;;966.2
1157.0;1061.9;;;;;;;;;;;;;;;;;-3.9826655;-12.57744;65.71017;;966.2
1157.0;1061.9;;;;;;;;;;;;;;0.9089022;-0.816126;-0.11963256;;;;;966.2
1157.0;1061.9;;;;;;;;;;;;;;;;;-7.4312572;-6.168554;69.120605;;975.8
1157.0;1061.9;;;;;;;;;;;;;;0.8153325;-0.7920164;-0.08203375;;;;;975.8
1157.0;1061.9;;;;;;;;;;;;;;;;;-1.3809626;-6.618702;69.84542;;975.8
1157.0;1061.9;;;;;;;;;;;;;;0.74416333;-0.68977934;-0.13043611;;;;;975.8
1157.0;1062.7;;;;;;;;;;;;;;;;;9.887997;-9.521775;68.51787;;985.4
1157.0;1062.7;;;;;;;;;;;;;;0.69411296;-0.5587939;-0.17798395;;;;;985.4
1157.0;1062.7;;;;;;;;;;;;;;;;;21.81692;-13.592181;65.17991;;985.4
1157.0;1062.7;;;;;;;;;;;;;;0.6803186;-0.40021974;-0.19556262;;;;;985.4
1157.0;1062.7;;;;;;;;;;;;;;;;;29.526659;-19.150366;61.449017;;995.0
1157.0;1062.7;;;;;;;;;;;;;;0.7177954;-0.28333384;-0.1909238;;;;;995.0
1157.0;1062.7;;;;;;;;;;;;;;;;;31.712547;-22.545547;58.35139;;995.0
1157.0;1062.7;;;;;;;;;;;;;;0.7932371;-0.23322245;-0.15845211;;;;;995.0
1157.0;1062.7;;;;;;;;;;;;;;;;;31.048769;-22.812586;55.494095;;1004.7
1157.0;1062.7;;;;;;;;;;;;;;0.8793603;-0.2287057;-0.14105655;;;;;1004.7
1157.0;1062.7;;;;;;;;;;;;;;;;;31.483658;-21.19892;52.17139;;1004.7
1157.0;1062.7;;;;;;;;;;;;;;0.97665334;-0.23053682;-0.11035493;;;;;1004.7
1159.0;1122.2;;;;;;;;;;;;;;;;;33.60851;-19.207588;49.043247;;1014.3
1159.0;1122.2;;;;;;;;;;;;;;1.0396435;-0.21893978;-0.105960265;;;;;1014.3
1159.0;1122.2;;;;;;;;;;;;;;;;;35.309914;-16.415144;46.777245;;1014.3
1159.0;1122.2;;;;;;;;;;;;;;1.0975066;-0.17639698;-0.074098945;;;;;1014.3
1159.0;1122.2;;;;;;;;;;;;;;;;;34.398174;-12.680441;45.556503;;1024.0
1159.0;1122.2;;;;;;;;;;;;;;1.0953093;-0.13116856;-0.044984285;;;;;1024.0
1159.0;1122.2;;;;;;;;;;;;;;;;;31.20136;-11.448256;45.628986;;1024.0
1159.0;1122.2;;;;;;;;;;;;;;1.1049532;-0.10541093;-0.08594012;;;;;1024.0
1159.0;1122.2;;;;;;;;;;;;;;;;;27.649769;-10.402997;46.292763;;1033.7
1159.0;1122.2;;;;;;;;;;;;;;1.1243019;-0.09356975;-0.13238929;;;;;1033.7
1159.0;1122.2;;;;;;;;;;;;;;;;;23.991364;-7.450331;46.83447;;1033.7
1159.0;1122.2;;;;;;;;;;;;;;1.0943937;-0.06549272;-0.15393536;;;;;1033.7
1160.0;1123.4;;;;;;;;;;;;;;;;;19.96292;-5.00885;47.688988;;1043.4
1160.0;1123.4;;;;;;;;;;;;;;1.0874965;-0.053712577;-0.15295877;;;;;1043.4
1160.0;1123.4;;;;;;;;;;;;;;;;;16.29307;-3.7232583;48.43669;;1043.4
1160.0;1123.4;;;;;;;;;;;;;;1.0407422;-0.025208289;-0.17041536;;;;;1043.4
1160.0;1123.4;;;;;;;;;;;;;;;;;10.998108;-3.9483323;49.398026;;1053.1
1160.0;1123.4;;;;;;;;;;;;;;0.9950865;-0.013855403;-0.18738365;;;;;1053.1
1160.0;1123.4;;;;;;;;;;;;;;;;;5.11948;-5.5543685;50.59587;;1053.1
1160.0;1123.4;;;;;;;;;;;;;;0.9754326;-0.014404736;-0.23078097;;;;;1053.1
1160.0;1123.4;;;;;;;;;;;;;;;;;-0.35096285;-4.215369;51.824245;;1062.8
1160.0;1123.4;;;;;;;;;;;;;;0.94405955;-0.035767693;-0.24396497;;;;;1062.8
1160.0;1123.4;;;;;;;;;;;;;;;;;-4.951628;-1.4305551;52.62154;;1062.8
1160.0;1123.4;;;;;;;;;;;;;;0.9128086;-0.05658132;-0.2360912;;;;;1062.8
1160.0;1127.2;;;;0.0;0.0;0.0;;;;;;;;;;;;;;;
1160.0;1127.2;;;;-0.08615876;0.19443133;0.075687416;;;;;;;;;;;;;;;
1160.0;1127.2;;;;-0.2672539;0.9991838;0.17646028;;;;;;;;;;;;;;;
1160.0;1127.2;;;;-0.27961734;1.1243631;0.17935945;;;;;;;;;;;;;;;
1160.0;1127.2;;;;-0.27930072;1.1300737;0.17702867;;;;;;;;;;;;;;;
1160.0;1137.2;;;;-0.27662662;1.1358415;0.17430498;;;;;;;;;;;;;;;
1160.0;1137.2;;;;-0.27354816;1.1411096;0.17214586;;;;;;;;;;;;;;;
1160.0;1137.2;;;;-0.27046207;1.1457521;0.16995241;;;;;;;;;;;;;;;
1160.0;1137.2;;;;-0.26651767;1.1500207;0.16836168;;;;;;;;;;;;;;;
1160.0;1137.2;;;;-0.26205066;1.1534845;0.16626741;;;;;;;;;;;;;;;
1218.0;1138.6;57495;57474;13438;;;;;;;;;;;;;;;;;;
1218.0;1147.3;;;;-0.25781634;1.156376;0.16516115;;;;;;;;;;;;;;;
1218.0;1147.3;;;;-0.25234225;1.1595308;0.16423418;;;;;;;;;;;;;;;
1218.0;1147.3;;;;-0.24530414;1.1619569;0.1619301;;;;;;;;;;;;;;;
1218.0;1147.3;;;;-0.23865893;1.1634408;0.16113664;;;;;;;;;;;;;;;
1218.0;1147.3;;;;-0.23183826;1.1651613;0.15961076;;;;;;;;;;;;;;;
1218.0;1157.3;;;;-0.22575381;1.1661416;0.157959;;;;;;;;;;;;;;;
1218.0;1157.3;;;;-0.21905902;1.1673051;0.1557274;;;;;;;;;;;;;;;
1218.0;1157.3;;;;-0.21294406;1.167782;0.15292741;;;;;;;;;;;;;;;
1218.0;1157.3;;;;-0.2083092;1.1680528;0.15106203;;;;;;;;;;;;;;;
1218.0;1157.3;;;;-0.20526126;1.1680986;0.14879991;;;;;;;;;;;;;;;
1218.0;1158.7;73894;73860;13433;;;;;;;;;;;;;;;;;;
1218.0;1165.1;;;;;;;;;;;;;0;;;;;;;;
1218.0;1165.1;;;;;;;;;;;;;0;;;;;;;;
1218.0;1165.1;;;;;;;;;;;;;-1;;;;;;;;
1218.0;1165.1;;;;;;;;;;;;;-2;;;;;;;;
1218.0;1165.1;;;;;;;;;;;;;-3;;;;;;;;
1218.0;1167.4;;;;-0.20224765;1.168274;0.1464882;;;;;;;;;;;;;;;
1218.0;1167.4;;;;-0.20030978;1.1678315;0.14387132;;;;;;;;;;;;;;;
1218.0;1167.4;;;;-0.19913104;1.16737;0.14130785;;;;;;;;;;;;;;;
1218.0;1167.4;;;;-0.19785693;1.1666948;0.1393509;;;;;;;;;;;;;;;
1218.0;1167.4;;;;-0.19644168;1.165764;0.13714601;;;;;;;;;;;;;;;
1220.0;1177.5;;;;-0.19503406;1.1648332;0.1354561;;;;;;;;;;;;;;;
1220.0;1177.5;;;;-0.1934624;1.1634675;0.13325502;;;;;;;;;;;;;;;
1220.0;1177.5;;;;-0.19259265;1.1617776;0.1315613;;;;;;;;;;;;;;;
1220.0;1177.5;;;;-0.19129184;1.1599656;0.12984468;;;;;;;;;;;;;;;
1220.0;1177.5;;;;-0.18999866;1.1580812;0.127697;;;;;;;;;;;;;;;
1220.0;1179.0;90237;90181;13434;;;;;;;;;;;;;;;;;;
1220.0;1182.6;;;;;;;;;;;;;;;;;-8.751183;1.5717032;53.29295;;1072.5
1220.0;1182.6;;;;;;;;;;;;;;0.8923612;-0.082461014;-0.2103946;;;;;1072.5
1220.0;1182.6;;;;;;;;;;;;;;;;;-11.921293;2.7161474;53.819393;;1072.5
1220.0;1182.6;;;;;;;;;;;;;;0.8779565;-0.12182989;-0.2097232;;;;;1072.5
1220.0;1182.6;;;;;;;;;;;;;;;;;-14.427626;4.0437026;54.19706;;1082.0
1220.0;1182.6;;;;;;;;;;;;;;0.82595295;-0.12854396;-0.20819727;;;;;1082.0
1220.0;1182.6;;;;;;;;;;;;;;;;;-16.884367;2.7352216;54.723503;;1082.0
1220.0;1182.6;;;;;;;;;;;;;;0.8565325;-0.17175817;-0.21277505;;;;;1082.0
1220.0;1182.6;;;;;;;;;;;;;;;;;-18.105106;1.1749626;55.524612;;1091.7
1220.0;1182.6;;;;;;;;;;;;;;0.89260536;-0.19739372;-0.24048586;;;;;1091.7
1220.0;1182.6;;;;;;;;;;;;;;;;;-18.03644;2.517777;56.081573;;1091.7
1220.0;1182.6;;;;;;;;;;;;;;0.90017396;-0.21906187;-0.23047578;;;;;1091.7
1221.0;1183.4;;;;;;;;;;;;;;;;;-17.689291;2.498703;56.356243;;1101.3
1221.0;1183.4;;;;;;;;;;;;;;0.90426344;-0.23950927;-0.22894986;;;;;1101.3
1221.0;1183.4;;;;;;;;;;;;;;;;;-16.235847;2.2888882;56.314278;;1101.3
1221.0;1183.4;;;;;;;;;;;;;;0.8982208;-0.25586718;-0.2245552;;;;;1101.3
1221.0;1183.4;;;;;;;;;;;;;;;;;-14.709922;1.1787775;56.028168;;1110.9
1221.0;1183.4;;;;;;;;;;;;;;0.89889216;-0.25366986;-0.1976989;;;;;1110.9
1221.0;1183.4;;;;;;;;;;;;;;;;;-14.62981;-0.9727775;55.99002;;1110.9
1221.0;1183.4;;;;;;;;;;;;;;0.9129917;-0.2557451;-0.18573564;;;;;1110.9
1221.0;1183.4;;;;;;;;;;;;;;;;;-14.919737;-2.5254066;55.93661;;1120.6
1221.0;1183.4;;;;;;;;;;;;;;0.9221473;-0.2646565;-0.18543047;;;;;1120.6
1221.0;1183.4;;;;;;;;;;;;;;;;;-15.346995;-3.3913696;56.081573;;1120.6
1221.0;1183.4;;;;;;;;;;;;;;0.93020415;-0.26612142;-0.16748558;;;;;1120.6
1221.0;1187.5;;;;-0.18851092;1.1559564;0.12609865;;;;;;;;;;;;;;;
1221.0;1187.5;;;;-0.18612291;1.1531869;0.12411882;;;;;;;;;;;;;;;
1221.0;1187.5;;;;-0.183033;1.1502687;0.12125398;;;;;;;;;;;;;;;
1221.0;1187.5;;;;-0.1809044;1.1476251;0.11926271;;;;;;;;;;;;;;;
1221.0;1187.5;;;;-0.17865755;1.1444093;0.116058365;;;;;;;;;;;;;;;
1221.0;1197.5;;;;-0.17528154;1.1408235;0.1131096;;;;;;;;;;;;;;;
1221.0;1197.5;;;;-0.17211916;1.1372682;0.11064531;;;;;;;;;;;;;;;
1221.0;1197.5;;;;-0.16857912;1.1330873;0.10733034;;;;;;;;;;;;;;;
1221.0;1197.5;;;;-0.16584016;1.1292115;0.10396196;;;;;;;;;;;;;;;
1221.0;1197.5;;;;-0.16316225;1.124775;0.10105516;;;;;;;;;;;;;;;
1221.0;1199.0;106610;106632;13424;;;;;;;;;;;;;;;;;;
1277.0;1205.3;;;;;;;;;;;;;-9;;;;;;;;
1277.0;1205.3;;;;;;;;;;;;;-4;;;;;;;;
1277.0;1205.3;;;;;;;;;;;;;-4;;;;;;;;
1277.0;1205.3;;;;;;;;;;;;;-26;;;;;;;;
1277.0;1205.3;;;;;;;;;;;;;-8;;;;;;;;
1277.0;1207.4;;;;-0.1603203;1.1198198;0.09769441;;;;;;;;;;;;;;;
1277.0;1207.4;;;;-0.15724565;1.115326;0.094505325;;;;;;;;;;;;;;;
1277.0;1207.4;;;;-0.1548691;1.110386;0.09048081;;;;;;;;;;;;;;;
1277.0;1207.4;;;;-0.15225221;1.1057359;0.08683015;;;;;;;;;;;;;;;
1277.0;1207.4;;;;-0.14970781;1.1011125;0.083457954;;;;;;;;;;;;;;;
1277.0;1217.4;;;;-0.1476555;1.0958291;0.08037568;;;;;;;;;;;;;;;
1277.0;1217.4;;;;-0.14515306;1.0912744;0.07666016;;;;;;;;;;;;;;;
1277.0;1217.4;;;;-0.14363863;1.0863839;0.072723396;;;;;;;;;;;;;;;
1277.0;1217.4;;;;-0.142128;1.0814782;0.06885148;;;;;;;;;;;;;;;
1277.0;1217.4;;;;-0.14056398;1.0767823;0.06445695;;;;;;;;;;;;;;;
1277.0;1219.0;122968;123012;13432;;;;;;;;;;;;;;;;;;
1277.0;1227.5;;;;-0.13909532;1.0720826;0.06050492;;;;;;;;;;;;;;;
1277.0;1227.5;;;;-0.13831331;1.0672075;0.05687333;;;;;;;;;;;;;;;
1277.0;1227.5;;;;-0.13767244;1.0623018;0.052738197;;;;;;;;;;;;;;;
1277.0;1227.5;;;;-0.13819505;1.0583001;0.04791642;;;;;;;;;;;;;;;
1277.0;1227.5;;;;-0.13930894;1.0539666;0.044067387;;;;;;;;;;;;;;;
1279.0;1237.7;;;;-0.14013673;1.0493966;0.040843967;;;;;;;;;;;;;;;
1279.0;1237.7;;;;-0.14212038;1.0456048;0.037326816;;;;;;;;;;;;;;;
1279.0;1237.7;;;;-0.14356996;1.0414811;0.03392792;;;;;;;;;;;;;;;
1279.0;1237.7;;;;-0.14621736;1.0378495;0.030776981;;;;;;;;;;;;;;;
1279.0;1237.7;;;;-0.14927293;1.0338441;0.027538303;;;;;;;;;;;;;;;
1279.0;1239.2;139414;139411;13435;;;;;;;;;;;;;;;;;;
1279.0;1242.7;;;;;;;;;;;;;;;;;-15.911589;-4.226814;56.653797;;1130.1
1279.0;1242.7;;;;;;;;;;;;;;0.9358806;-0.26789147;-0.15790276;;;;;1130.1
1279.0;1242.7;;;;;;;;;;;;;;;;;-15.415662;-5.279702;57.222206;;1130.1
1279.0;1242.7;;;;;;;;;;;;;;0.93649095;-0.27014986;-0.16315195;;;;;1130.1
1279.0;1242.7;;;;;;;;;;;;;;;;;-14.679403;-6.3554797;57.84402;;1139.8
1279.0;1242.7;;;;;;;;;;;;;;0.95211643;-0.26514482;-0.16711935;;;;;1139.8
1279.0;1242.7;;;;;;;;;;;;;;;;;-15.037995;-6.2372203;58.606983;;1139.8
1279.0;1242.7;;;;;;;;;;;;;;0.96511734;-0.25727102;-0.1662038;;;;;1139.8
1279.0;1242.7;;;;;;;;;;;;;;;;;-15.907774;-5.1728873;59.480576;;1149.4
1279.0;1242.7;;;;;;;;;;;;;;0.97036654;-0.24768822;-0.14630574;;;;;1149.4
1279.0;1242.7;;;;;;;;;;;;;;;;;-16.834774;-4.9172945;60.575424;;1149.4
1279.0;1242.7;;;;;;;;;;;;;;0.9815363;-0.23999757;-0.13330485;;;;;1149.4
1282.0;1243.9;;;;;;;;;;;;;;;;;-17.887661;-3.910184;61.922054;;1159.0
1282.0;1243.9;;;;;;;;;;;;;;0.9887997;-0.23126927;-0.12305063;;;;;1159.0
1282.0;1243.9;;;;;;;;;;;;;;;;;-18.776514;-2.3308513;63.009277;;1159.0
1282.0;1243.9;;;;;;;;;;;;;;0.99435407;-0.22632527;-0.11206397;;;;;1159.0
1282.0;1243.9;;;;;;;;;;;;;;;;;-19.341106;-1.9684439;63.69213;;1168.6
1282.0;1243.9;;;;;;;;;;;;;;1.0025331;-0.22510453;-0.12280648;;;;;1168.6
1282.0;1243.9;;;;;;;;;;;;;;;;;-19.825586;-0.8735923;63.646355;;1168.6
1282.0;1243.9;;;;;;;;;;;;;;0.971221;-0.1975158;-0.13824885;;;;;1168.6
1282.0;1243.9;;;;;;;;;;;;;;;;;-19.943846;0.24414808;64.062164;;1178.3
1282.0;1243.9;;;;;;;;;;;;;;0.94351023;-0.15948974;-0.12494278;;;;;1178.3
1282.0;1243.9;;;;;;;;;;;;;;;;;-21.82455;-1.2550737;65.08454;;1178.3
1282.0;1243.9;;;;;;;;;;;;;;0.9383831;-0.12079226;-0.14239937;;;;;1178.3
1282.0;1245.4;;;;;;;;;;;;;-51;;;;;;;;
1282.0;1245.4;;;;;;;;;;;;;-37;;;;;;;;
1282.0;1245.4;;;;;;;;;;;;;10;;;;;;;;
1282.0;1245.4;;;;;;;;;;;;;-234;;;;;;;;
1282.0;1245.4;;;;;;;;;;;;;88;;;;;;;;
1282.0;1247.5;;;;-0.15156557;1.0304071;0.026031498;;;;;;;;;;;;;;;
1282.0;1247.5;;;;-0.15425493;1.0273553;0.024963383;;;;;;;;;;;;;;;
1282.0;1247.5;;;;-0.15713884;1.0243036;0.024387363;;;;;;;;;;;;;;;
1282.0;1247.5;;;;-0.15950014;1.0217515;0.024566654;;;;;;;;;;;;;;;
1282.0;1247.5;;;;-0.16144563;1.0193254;0.024681095;;;;;;;;;;;;;;;
1340.0;1257.4;;;;-0.16308977;1.0175477;0.025035862;;;;;;;;;;;;;;;
1340.0;1257.4;;;;-0.16380312;1.0157586;0.025081638;;;;;;;;;;;;;;;
1340.0;1257.4;;;;-0.16423036;1.0140382;0.025775913;;;;;;;;;;;;;;;
1340.0;1257.4;;;;-0.16488649;1.0125695;0.026531223;;;;;;;;;;;;;;;
1340.0;1257.4;;;;-0.16535951;1.0111696;0.026424412;;;;;;;;;;;;;;;
1340.0;1259.1;155823;155786;13440;;;;;;;;;;;;;;;;;;
1340.0;1267.5;;;;-0.16600801;1.0100328;0.027561191;;;;;;;;;;;;;;;
1340.0;1267.5;;;;-0.16724397;1.0084916;0.029121403;;;;;;;;;;;;;;;
1340.0;1267.5;;;;-0.1690674;1.0071222;0.030159;;;;;;;;;;;;;;;
1340.0;1267.5;;;;-0.17045976;1.0060655;0.031940464;;;;;;;;;;;;;;;
1340.0;1267.5;;;;-0.17240144;1.0051004;0.03325272;;;;;;;;;;;;;;;
1340.0;1277.4;;;;-0.17395784;1.0037194;0.034523014;;;;;;;;;;;;;;;
1340.0;1277.4;;;;-0.17564394;1.0019685;0.03570557;;;;;;;;;;;;;;;
1340.0;1277.4;;;;-0.17798997;1.000763;0.036422733;;;;;;;;;;;;;;;
1340.0;1277.4;;;;-0.1805916;0.9987756;0.036457065;;;;;;;;;;;;;;;
1340.0;1277.4;;;;-0.18312074;0.9968835;0.03641129;;;;;;;;;;;;;;;
1340.0;1279.1;172178;172168;13461;;;;;;;;;;;;;;;;;;
1340.0;1285.4;;;;;;;;;;;;;616;;;;;;;;
1340.0;1285.4;;;;;;;;;;;;;-358;;;;;;;;
1340.0;1285.4;;;;;;;;;;;;;-1373;;;;;;;;
1340.0;1285.4;;;;;;;;;;;;;1008;;;;;;;;
1340.0;1285.4;;;;;;;;;;;;;7345;;;;;;;;
1342.0;1287.5;;;;-0.18485643;0.994053;0.035732273;;;;;;;;;;;;;;;
1342.0;1287.5;;;;-0.18700029;0.9912454;0.03509522;;;;;;;;;;;;;;;
1342.0;1287.5;;;;-0.18917468;0.9882165;0.035156254;;;;;;;;;;;;;;;
1342.0;1287.5;;;;-0.19100192;0.985386;0.034225468;;;;;;;;;;;;;;;
1342.0;1287.5;;;;-0.1928139;0.9823762;0.033954624;;;;;;;;;;;;;;;
1342.0;1297.6;;;;-0.19517902;0.9797441;0.03377152;;;;;;;;;;;;;;;
1342.0;1297.6;;;;-0.19702151;0.97742856;0.033946995;;;;;;;;;;;;;;;
1342.0;1297.6;;;;-0.19816592;0.975319;0.033779148;;;;;;;;;;;;;;;
1342.0;1297.6;;;;-0.19992068;0.97343075;0.034046177;;;;;;;;;;;;;;;
1342.0;1297.6;;;;-0.20075229;0.9714204;0.034946445;;;;;;;;;;;;;;;
1342.0;1299.3;188463;188554;13440;;;;;;;;;;;;;;;;;;
1342.0;1302.8;;;;;;;;;;;;;;;;;-24.807732;-0.67903686;65.68728;;1187.9
1342.0;1302.8;;;;;;;;;;;;;;0.91653186;-0.14947966;-0.14874722;;;;;1187.9
1342.0;1302.8;;;;;;;;;;;;;;;;;-27.272104;-0.045777764;65.24476;;1187.9
1342.0;1302.8;;;;;;;;;;;;;;0.9189123;-0.15906247;-0.15344706;;;;;1187.9
1342.0;1302.8;;;;;;;;;;;;;;;;;-29.236732;1.1902219;64.59243;;1197.6
1342.0;1302.8;;;;;;;;;;;;;;0.9062166;-0.13928647;-0.14612262;;;;;1197.6
1342.0;1302.8;;;;;;;;;;;;;;;;;-32.12836;2.5864437;63.833275;;1197.6
1342.0;1302.8;;;;;;;;;;;;;;0.89767146;-0.12262337;-0.13116856;;;;;1197.6
1342.0;1302.8;;;;;;;;;;;;;;;;;-35.668507;2.193518;63.37169;;1207.2
1342.0;1302.8;;;;;;;;;;;;;;0.90554523;-0.10455641;-0.13977477;;;;;1207.2
1342.0;1302.8;;;;;;;;;;;;;;;;;-38.32362;2.7771842;62.852867;;1207.2
1342.0;1302.8;;;;;;;;;;;;;;0.8885159;-0.108401746;-0.14600055;;;;;1207.2
1343.0;1303.6;;;;;;;;;;;;;;;;;-40.612507;2.0409255;62.08228;;1216.8
1343.0;1303.6;;;;;;;;;;;;;;0.88467056;-0.10419019;-0.14825892;;;;;1216.8
1343.0;1303.6;;;;;;;;;;;;;;;;;-41.608173;-0.12207404;61.414684;;1216.8
1343.0;1303.6;;;;;;;;;;;;;;0.8915067;-0.091250345;-0.1777398;;;;;1216.8
1343.0;1303.6;;;;;;;;;;;;;;;;;-42.77169;-0.46159247;60.934017;;1226.5
1343.0;1303.6;;;;;;;;;;;;;;0.89455855;-0.08545183;-0.21478927;;;;;1226.5
1343.0;1303.6;;;;;;;;;;;;;;;;;-44.495987;0.25559253;60.796684;;1226.5
1343.0;1303.6;;;;;;;;;;;;;;0.89010286;-0.0761742;-0.23853268;;;;;1226.5
1343.0;1303.6;;;;;;;;;;;;;;;;;-46.47206;0.3929258;60.926388;;1236.2
1343.0;1303.6;;;;;;;;;;;;;;0.8795434;-0.06555376;-0.2616657;;;;;1236.2
1343.0;1303.6;;;;;;;;;;;;;;;;;-48.646507;-0.24414808;61.223946;;1236.2
1343.0;1303.6;;;;;;;;;;;;;;0.87746817;-0.06872769;-0.27692497;;;;;1236.2
1343.0;1307.5;;;;-0.20199206;0.9706956;0.03465653;;;;;;;;;;;;;;;
1343.0;1307.5;;;;-0.20283893;0.9703332;0.03456116;;;;;;;;;;;;;;;
1343.0;1307.5;;;;-0.20354846;0.9700624;0.034053806;;;;;;;;;;;;;;;
1343.0;1307.5;;;;-0.2035599;0.96989834;0.033988956;;;;;;;;;;;;;;;
1343.0;1307.5;;;;-0.2043381;0.96878445;0.033615116;;;;;;;;;;;;;;;
1343.0;1317.5;;;;-0.20463184;0.9691621;0.03311539;;;;;;;;;;;;;;;
1343.0;1317.5;;;;-0.20497516;0.9687005;0.03231812;;;;;;;;;;;;;;;
1343.0;1317.5;;;;-0.20607379;0.968403;0.03210068;;;;;;;;;;;;;;;
1343.0;1317.5;;;;-0.20730594;0.9680215;0.030757908;;;;;;;;;;;;;;;
1343.0;1317.5;;;;-0.20839694;0.967518;0.029609684;;;;;;;;;;;;;;;
1398.0;1317.9;;;;;;;;;;;;;;;;;-50.58824;0.13733329;61.323128;;1245.9
1398.0;1317.9;;;;;;;;;;;;;;0.8733787;-0.07470931;-0.2702109;;;;;1245.9
1398.0;1317.9;;;;;;;;;;;;;;;;;-53.945282;1.2627033;61.365093;;1245.9
1398.0;1317.9;;;;;;;;;;;;;;0.8726463;-0.08667257;-0.22846156;;;;;1245.9
1398.0;1317.9;;;;;;;;;;;;;;;;;-57.03528;1.6136662;60.99887;;1255.5
1398.0;1317.9;;;;;;;;;;;;;;0.8770409;-0.086123236;-0.1850032;;;;;1255.5
1398.0;1317.9;;;;;;;;;;;;;;;;;-58.77102;0.049592577;60.3885;;1255.5
1398.0;1317.9;;;;;;;;;;;;;;0.89187294;-0.093813896;-0.15601063;;;;;1255.5
1398.0;1317.9;;;;;;;;;;;;;;;;;-60.930202;-1.6747032;59.32417;;1265.1
1398.0;1317.9;;;;;;;;;;;;;;0.9137242;-0.09198279;-0.14368114;;;;;1265.1
1398.0;1317.9;;;;;;;;;;;;;;;;;-62.76513;-2.3041475;58.126316;;1265.1
1398.0;1317.9;;;;;;;;;;;;;;0.9319132;-0.09027375;-0.12891018;;;;;1265.1
1398.0;1319.2;205026;204883;13455;;;;;;;;;;;;;;;;;;
1398.0;1325.6;;;;;;;;;;;;;13736;;;;;;;;
1398.0;1325.6;;;;;;;;;;;;;15985;;;;;;;;
1398.0;1325.6;;;;;;;;;;;;;14519;;;;;;;;
1398.0;1325.6;;;;;;;;;;;;;12867;;;;;;;;
1398.0;1325.6;;;;;;;;;;;;;12659;;;;;;;;
1398.0;1327.4;;;;-0.20982745;0.9671403;0.029014591;;;;;;;;;;;;;;;
1398.0;1327.4;;;;-0.21154025;0.9671556;0.028568272;;;;;;;;;;;;;;;
1398.0;1327.4;;;;-0.21338275;0.96766675;0.02769852;;;;;;;;;;;;;;;
1398.0;1327.4;;;;-0.21522143;0.96857846;0.026451115;;;;;;;;;;;;;;;
1398.0;1327.4;;;;-0.21669772;0.9697076;0.02561951;;;;;;;;;;;;;;;
1401.0;1337.4;;;;-0.21784213;0.97111523;0.024791721;;;;;;;;;;;;;;;
1401.0;1337.4;;;;-0.21947101;0.9729692;0.022304537;;;;;;;;;;;;;;;
1401.0;1337.4;;;;-0.22052386;0.9752809;0.020019533;;;;;;;;;;;;;;;
1401.0;1337.4;;;;-0.2213631;0.9777795;0.018283846;;;;;;;;;;;;;;;
1401.0;1337.4;;;;-0.22143176;0.9798547;0.016136171;;;;;;;;;;;;;;;
1401.0;1339.2;221300;221317;13449;;;;;;;;;;;;;;;;;;
1401.0;1347.5;;;;-0.22187808;0.98067486;0.015872957;;;;;;;;;;;;;;;
1401.0;1347.5;;;;-0.22582248;0.98624814;0.015102388;;;;;;;;;;;;;;;
1401.0;1347.5;;;;-0.22715;0.99055874;0.008708955;;;;;;;;;;;;;;;
1401.0;1347.5;;;;-0.22783282;0.99195874;0.007095338;;;;;;;;;;;;;;;
1401.0;1347.5;;;;-0.22887805;0.994732;0.008487702;;;;;;;;;;;;;;;
1401.0;1357.6;;;;-0.23032382;0.99735653;0.008010865;;;;;;;;;;;;;;;
1401.0;1357.6;;;;-0.23036578;0.9998895;0.0069084177;;;;;;;;;;;;;;;
1401.0;1357.6;;;;-0.22911838;1.0030442;0.0069465647;;;;;;;;;;;;;;;
1401.0;1357.6;;;;-0.22718433;1.00552;0.006927491;;;;;;;;;;;;;;;
1401.0;1357.6;;;;-0.22768405;1.0051347;0.011436463;;;;;;;;;;;;;;;
1401.0;1359.5;237726;237625;13450;;;;;;;;;;;;;;;;;;
1401.0;1365.8;;;;;;;;;;;;;12147;;;;;;;;
1401.0;1365.8;;;;;;;;;;;;;10641;;;;;;;;
1401.0;1365.8;;;;;;;;;;;;;9593;;;;;;;;
1401.0;1365.8;;;;;;;;;;;;;9725;;;;;;;;
1401.0;1365.8;;;;;;;;;;;;;11403;;;;;;;;
1402.0;1367.7;;;;-0.22805408;1.0135957;0.009365083;;;;;;;;;;;;;;;
1402.0;1367.7;;;;-0.2255669;1.0150796;0.0028839114;;;;;;;;;;;;;;;
1402.0;1367.7;;;;-0.2230759;1.0154115;0.0062713632;;;;;;;;;;;;;;;
1402.0;1367.7;;;;-0.22308734;1.0166742;0.011436463;;;;;;;;;;;;;;;
1402.0;1367.7;;;;-0.2237778;1.0185586;0.013618471;;;;;;;;;;;;;;;
1402.0;1370.6;;;;;;;;;;;;;;;;;-63.08557;-3.379925;56.573685;;1274.8
1402.0;1370.6;;;;;;;;;;;;;;0.9452803;-0.08868679;-0.13989685;;;;;1274.8
1402.0;1370.6;;;;;;;;;;;;;;;;;-61.39561;-4.4518876;54.597614;;1274.8
1402.0;1370.6;;;;;;;;;;;;;;0.9477828;-0.06878872;-0.15478988;;;;;1274.8
1402.0;1370.6;;;;;;;;;;;;;;;;;-58.896908;-5.1080356;52.373577;;1284.5
1402.0;1370.6;;;;;;;;;;;;;;0.9475387;-0.06683554;-0.1690115;;;;;1284.5
1402.0;1370.6;;;;;;;;;;;;;;;;;-54.219948;-4.7647023;50.12665;;1284.5
1402.0;1370.6;;;;;;;;;;;;;;0.9418012;-0.08075198;-0.15570544;;;;;1284.5
1402.0;1370.6;;;;;;;;;;;;;;;;;-49.35606;-6.2295904;47.761467;;1294.2
1402.0;1370.6;;;;;;;;;;;;;;0.94497514;-0.08496353;-0.17242958;;;;;1294.2
1402.0;1370.6;;;;;;;;;;;;;;;;;-45.335243;-7.969146;45.62517;;1294.2
1402.0;1370.6;;;;;;;;;;;;;;0.9483932;-0.09625538;-0.20734276;;;;;1294.2
1402.0;1377.7;;;;-0.22277072;1.019848;0.012702944;;;;;;;;;;;;;;;
1402.0;1377.7;;;;-0.22034839;1.0204049;0.013179781;;;;;;;;;;;;;;;
1402.0;1377.7;;;;-0.21873477;1.0202523;0.015106203;;;;;;;;;;;;;;;
1402.0;1377.7;;;;-0.21956256;1.0200616;0.017650606;;;;;;;;;;;;;;;
1402.0;1377.7;;;;-0.219677;1.0202752;0.019077303;;;;;;;;;;;;;;;
1402.0;1379.5;254144;254151;13443;;;;;;;;;;;;;;;;;;
1460.0;1387.6;;;;-0.2191849;1.0195581;0.020866396;;;;;;;;;;;;;;;
1460.0;1387.6;;;;-0.21961597;1.018818;0.023796085;;;;;;;;;;;;;;;
1460.0;1387.6;;;;-0.21919253;1.0192872;0.023235323;;;;;;;;;;;;;;;
1460.0;1387.6;;;;-0.21863559;1.0180551;0.021797182;;;;;;;;;;;;;;;
1460.0;1387.6;;;;-0.21800616;1.0164491;0.024158482;;;;;;;;;;;;;;;
1460.0;1397.6;;;;-0.21748355;1.0151025;0.026977543;;;;;;;;;;;;;;;
1460.0;1397.6;;;;-0.21724322;1.0129663;0.028133396;;;;;;;;;;;;;;;
1460.0;1397.6;;;;-0.21614459;1.0111047;0.028930668;;;;;;;;;;;;;;;
1460.0;1397.6;;;;-0.21416476;1.009205;0.028671268;;;;;;;;;;;;;;;
1460.0;1397.6;;;;-0.21253207;1.006962;0.028965;;;;;;;;;;;;;;;
1460.0;1399.6;262143;262143;13445;;;;;;;;;;;;;;;;;;
1460.0;1405.9;;;;;;;;;;;;;13557;;;;;;;;
1460.0;1405.9;;;;;;;;;;;;;11796;;;;;;;;
1460.0;1405.9;;;;;;;;;;;;;3052;;;;;;;;
1460.0;1405.9;;;;;;;;;;;;;-7711;;;;;;;;
1460.0;1405.9;;;;;;;;;;;;;-10508;;;;;;;;
1460.0;1407.7;;;;-0.21118167;1.0047151;0.029190067;;;;;;;;;;;;;;;
1460.0;1407.7;;;;-0.20918277;1.0021249;0.02997208;;;;;;;;;;;;;;;
1460.0;1407.7;;;;-0.20805743;0.99971783;0.030437473;;;;;;;;;;;;;;;
1460.0;1407.7;;;;-0.20617297;0.9973489;0.030807499;;;;;;;;;;;;;;;
1460.0;1407.7;;;;-0.20474628;0.99450696;0.03179169;;;;;;;;;;;;;;;
1519.0;1417.9;;;;-0.20367053;0.9926683;0.031761173;;;;;;;;;;;;;;;
1519.0;1417.9;;;;-0.20167544;0.9903146;0.030860905;;;;;;;;;;;;;;;
1519.0;1417.9;;;;-0.19914249;0.9881326;0.031162266;;;;;;;;;;;;;;;
1519.0;1417.9;;;;-0.19650272;0.9858743;0.031028751;;;;;;;;;;;;;;;
1519.0;1417.9;;;;-0.19409946;0.9839822;0.031200413;;;;;;;;;;;;;;;
1519.0;1419.9;262143;262143;13455;;;;;;;;;;;;;;;;;;
1519.0;1427.9;;;;-0.19124606;0.9823495;0.03160477;;;;;;;;;;;;;;;
1519.0;1427.9;;;;-0.1876488;0.98020566;0.03147507;;;;;;;;;;;;;;;
1519.0;1427.9;;;;-0.18428804;0.9784471;0.031528477;;;;;;;;;;;;;;;
1519.0;1427.9;;;;-0.18154909;0.97597134;0.031852726;;;;;;;;;;;;;;;
1519.0;1427.9;;;;-0.17848589;0.9733468;0.031776432;;;;;;;;;;;;;;;
1519.0;1437.9;;;;-0.17549135;0.970955;0.031772617;;;;;;;;;;;;;;;
1519.0;1437.9;;;;-0.1728325;0.96800625;0.032451633;;;;;;;;;;;;;;;
1519.0;1437.9;;;;-0.16985704;0.96519864;0.033096317;;;;;;;;;;;;;;;
1519.0;1437.9;;;;-0.16731645;0.9620935;0.03262711;;;;;;;;;;;;;;;
1519.0;1437.9;;;;-0.16441347;0.95876324;0.033004764;;;;;;;;;;;;;;;
1519.0;1440.0;262143;262143;13447;;;;;;;;;;;;;;;;;;
1519.0;1446.3;;;;;;;;;;;;;-2024;;;;;;;;
1519.0;1446.3;;;;;;;;;;;;;9703;;;;;;;;
1519.0;1446.3;;;;;;;;;;;;;14623;;;;;;;;
1519.0;1446.3;;;;;;;;;;;;;11721;;;;;;;;
1519.0;1446.3;;;;;;;;;;;;;7507;;;;;;;;
1522.0;1447.9;;;;-0.16168596;0.9550859;0.03386307;;;;;;;;;;;;;;;
1522.0;1447.9;;;;-0.15913774;0.9514657;0.034328464;;;;;;;;;;;;;;;
1522.0;1447.9;;;;-0.15663148;0.9475595;0.03438187;;;;;;;;;;;;;;;
1522.0;1447.9;;;;-0.1546097;0.942917;0.034988407;;;;;;;;;;;;;;;
1522.0;1447.9;;;;-0.15309526;0.9385568;0.034889225;;;;;;;;;;;;;;;
1522.0;1458.0;;;;-0.15224458;0.9343263;0.035579685;;;;;;;;;;;;;;;
1522.0;1458.0;;;;-0.15116502;0.9297601;0.03633118;;;;;;;;;;;;;;;
1522.0;1458.0;;;;-0.15047075;0.9251481;0.036994938;;;;;;;;;;;;;;;
1522.0;1458.0;;;;-0.14967729;0.9202806;0.037883762;;;;;;;;;;;;;;;
1522.0;1458.0;;;;-0.14878084;0.9158708;0.03944779;;;;;;;;;;;;;;;
1522.0;1460.2;262143;262143;13450;;;;;;;;;;;;;;;;;;
1522.0;1468.1;;;;-0.14779283;0.91131604;0.041088108;;;;;;;;;;;;;;;
1522.0;1468.1;;;;-0.14706041;0.90695965;0.04264832;;;;;;;;;;;;;;;
1522.0;1468.1;;;;-0.1459923;0.9027444;0.044807438;;;;;;;;;;;;;;;
1522.0;1468.1;;;;-0.14522554;0.89873517;0.04661179;;;;;;;;;;;;;;;
1522.0;1468.1;;;;-0.14435197;0.8952409;0.048130043;;;;;;;;;;;;;;;
1522.0;1478.2;;;;-0.14324571;0.8920022;0.050163276;;;;;;;;;;;;;;;
1522.0;1478.2;;;;-0.14222337;0.88925564;0.051712044;;;;;;;;;;;;;;;
1522.0;1478.2;;;;-0.14063646;0.88720334;0.05334855;;;;;;;;;;;;;;;
1522.0;1478.2;;;;-0.13876726;0.8855134;0.054565437;;;;;;;;;;;;;;;
1522.0;1478.2;;;;-0.1364937;0.8846437;0.05533219;;;;;;;;;;;;;;;
1578.0;1480.4;262143;262143;13441;;;;;;;;;;;;;;;;;;
1578.0;1486.7;;;;;;;;;;;;;6031;;;;;;;;
1578.0;1486.7;;;;;;;;;;;;;5613;;;;;;;;
1578.0;1486.7;;;;;;;;;;;;;4467;;;;;;;;
1578.0;1486.7;;;;;;;;;;;;;3319;;;;;;;;
1578.0;1486.7;;;;;;;;;;;;;2693;;;;;;;;
1578.0;1488.3;;;;-0.13453294;0.8850442;0.054443367;;;;;;;;;;;;;;;
1578.0;1488.3;;;;-0.13222887;0.886902;0.051849373;;;;;;;;;;;;;;;
1578.0;1488.3;;;;-0.13096239;0.8898431;0.04867173;;;;;;;;;;;;;;;
1578.0;1488.3;;;;-0.13025285;0.89403546;0.04563904;;;;;;;;;;;;;;;
1578.0;1488.3;;;;-0.12982942;0.89933026;0.04257584;;;;;;;;;;;;;;;
1578.0;1498.4;;;;-0.13037111;0.90656674;0.040508274;;;;;;;;;;;;;;;
1578.0;1498.4;;;;-0.13097002;0.91502774;0.039623264;;;;;;;;;;;;;;;
1578.0;1498.4;;;;-0.13215257;0.92422116;0.038997654;;;;;;;;;;;;;;;
1578.0;1498.4;;;;-0.1348343;0.9335252;0.039875034;;;;;;;;;;;;;;;
1578.0;1498.4;;;;-0.1367798;0.9420167;0.038440708;;;;;;;;;;;;;;;
1578.0;1500.6;262143;262143;13449;;;;;;;;;;;;;;;;;;
1578.0;1508.4;;;;-0.13640977;0.94796;0.039272312;;;;;;;;;;;;;;;
1578.0;1508.4;;;;-0.1340561;0.9493753;0.043975834;;;;;;;;;;;;;;;
1578.0;1508.4;;;;-0.1379471;0.954548;0.049350746;;;;;;;;;;;;;;;
1578.0;1508.4;;;;-0.13842775;0.9578744;0.04133225;;;;;;;;;;;;;;;
1578.0;1508.4;;;;-0.1368065;0.9544221;0.04328156;;;;;;;;;;;;;;;
1579.0;1518.4;;;;-0.13479616;0.9504167;0.050029762;;;;;;;;;;;;;;;
1579.0;1518.4;;;;-0.13349916;0.9447442;0.05465699;;;;;;;;;;;;;;;
1579.0;1518.4;;;;-0.13251115;0.9374963;0.05756379;;;;;;;;;;;;;;;
1579.0;1518.4;;;;-0.13015367;0.92910016;0.059856422;;;;;;;;;;;;;;;
1579.0;1518.4;;;;-0.12692644;0.91913617;0.06225968;;;;;;;;;;;;;;;
1579.0;1520.7;262143;262143;13440;;;;;;;;;;;;;;;;;;
1579.0;1526.9;;;;;;;;;;;;;2386;;;;;;;;
1579.0;1526.9;;;;;;;;;;;;;2214;;;;;;;;
1579.0;1526.9;;;;;;;;;;;;;1893;;;;;;;;
1579.0;1526.9;;;;;;;;;;;;;1269;;;;;;;;
1579.0;1526.9;;;;;;;;;;;;;206;;;;;;;;
1579.0;1528.5;;;;-0.12549593;0.90916836;0.06494904;;;;;;;;;;;;;;;
1579.0;1528.5;;;;-0.124561325;0.8991586;0.06842805;;;;;;;;;;;;;;;
1579.0;1528.5;;;;-0.12368013;0.88917935;0.072227485;;;;;;;;;;;;;;;
1579.0;1528.5;;;;-0.123127;0.87976086;0.075515755;;;;;;;;;;;;;;;
1579.0;1528.5;;;;-0.12282564;0.8709489;0.07862473;;;;;;;;;;;;;;;
1579.0;1538.6;;;;-0.12268831;0.86270535;0.08214188;;;;;;;;;;;;;;;
1579.0;1538.6;;;;-0.122417465;0.8555795;0.08506776;;;;;;;;;;;;;;;
1579.0;1538.6;;;;-0.12236406;0.84925854;0.087615974;;;;;;;;;;;;;;;
1579.0;1538.6;;;;-0.12251665;0.84443295;0.09075547;;;;;;;;;;;;;;;
1579.0;1538.6;;;;-0.12307741;0.8399583;0.09424974;;;;;;;;;;;;;;;
1579.0;1541.0;262143;262143;13452;;;;;;;;;;;;;;;;;;
1638.0;1548.7;;;;-0.12446214;0.8360292;0.09754945;;;;;;;;;;;;;;;
1638.0;1548.7;;;;-0.1258278;0.83272946;0.10150911;;;;;;;;;;;;;;;
1638.0;1548.7;;;;-0.12705995;0.83088315;0.10473253;;;;;;;;;;;;;;;
1638.0;1548.7;;;;-0.12874986;0.8289758;0.10790636;;;;;;;;;;;;;;;
1638.0;1548.7;;;;-0.13024141;0.827263;0.11021043;;;;;;;;;;;;;;;
1638.0;1558.8;;;;-0.13150407;0.82584774;0.112892166;;;;;;;;;;;;;;;
1638.0;1558.8;;;;-0.13312913;0.8239099;0.114555374;;;;;;;;;;;;;;;
1638.0;1558.8;;;;-0.13465501;0.82325375;0.11706926;;;;;;;;;;;;;;;
1638.0;1558.8;;;;-0.13644029;0.8216859;0.11904146;;;;;;;;;;;;;;;
1638.0;1558.8;;;;-0.13826372;0.8199769;0.121143356;;;;;;;;;;;;;;;
1638.0;1561.1;262143;262143;13442;;;;;;;;;;;;;;;;;;
1638.0;1567.3;;;;;;;;;;;;;-1168;;;;;;;;
1638.0;1567.3;;;;;;;;;;;;;-2169;;;;;;;;
1638.0;1567.3;;;;;;;;;;;;;-2626;;;;;;;;
1638.0;1567.3;;;;;;;;;;;;;-3099;;;;;;;;
1638.0;1567.3;;;;;;;;;;;;;-3917;;;;;;;;
1638.0;1568.7;;;;-0.14075853;0.8181344;0.12420656;;;;;;;;;;;;;;;
1638.0;1568.7;;;;-0.14248659;0.81629956;0.12741853;;;;;;;;;;;;;;;
1638.0;1568.7;;;;-0.14487459;0.81398404;0.1303444;;;;;;;;;;;;;;;
1638.0;1568.7;;;;-0.14724351;0.8114778;0.1332245;;;;;;;;;;;;;;;
1638.0;1568.7;;;;-0.14988329;0.8083612;0.13620378;;;;;;;;;;;;;;;
1640.0;1578.6;;;;-0.15209962;0.8046571;0.13912584;;;;;;;;;;;;;;;
1640.0;1578.6;;;;-0.15421297;0.8008157;0.14178087;;;;;;;;;;;;;;;
1640.0;1578.6;;;;-0.15657045;0.7969209;0.1443329;;;;;;;;;;;;;;;
1640.0;1578.6;;;;-0.15886308;0.79272854;0.14691545;;;;;;;;;;;;;;;
1640.0;1578.6;;;;-0.16142274;0.7882463;0.14958192;;;;;;;;;;;;;;;
1640.0;1581.1;262143;262143;13441;;;;;;;;;;;;;;;;;;
1640.0;1588.7;;;;-0.16388322;0.78326046;0.15335847;;;;;;;;;;;;;;;
1640.0;1588.7;;;;-0.16639711;0.7789308;0.15678026;;;;;;;;;;;;;;;
1640.0;1588.7;;;;-0.16933443;0.7746469;0.1601906;;;;;;;;;;;;;;;
1640.0;1588.7;;;;-0.17213441;0.77026;0.16381074;;;;;;;;;;;;;;;
1640.0;1588.7;;;;-0.17536546;0.7658349;0.16737749;;;;;;;;;;;;;;;
1640.0;1598.8;;;;-0.17783739;0.7610856;0.17070772;;;;;;;;;;;;;;;
1640.0;1598.8;;;;-0.17964555;0.7564508;0.17400743;;;;;;;;;;;;;;;
1640.0;1598.8;;;;-0.18074037;0.7515069;0.17801668;;;;;;;;;;;;;;;
1640.0;1598.8;;;;-0.18150331;0.7465897;0.18224336;;;;;;;;;;;;;;;
1640.0;1598.8;;;;-0.1820183;0.7416993;0.18701936;;;;;;;;;;;;;;;
1640.0;1601.3;262143;262143;13433;;;;;;;;;;;;;;;;;;
1641.0;1604.7;;;;;;;;;;;;;;;;;-42.996765;-8.156072;43.565174;;1303.9
1641.0;1604.7;;;;;;;;;;;;;;0.95199436;-0.105166785;-0.21173742;;;;;1303.9
1641.0;1604.7;;;;;;;;;;;;;;;;;-40.849026;-8.8999605;42.268135;;1303.9
1641.0;1604.7;;;;;;;;;;;;;;0.96029544;-0.118533894;-0.23096408;;;;;1303.9
1641.0;1604.7;;;;;;;;;;;;;;;;;-38.285473;-9.144109;41.43269;;1313.5
1641.0;1604.7;;;;;;;;;;;;;;0.9630421;-0.14093448;-0.2512894;;;;;1313.5
1641.0;1604.7;;;;;;;;;;;;;;;;;-35.580765;-9.323405;40.509506;;1313.5
1641.0;1604.7;;;;;;;;;;;;;;0.97091585;-0.15826899;-0.25611132;;;;;1313.5
1641.0;1604.7;;;;;;;;;;;;;;;;;-32.78451;-9.586627;39.536728;;1323.1
1641.0;1604.7;;;;;;;;;;;;;;0.98806727;-0.16962187;-0.24085207;;;;;1323.1
1641.0;1604.7;;;;;;;;;;;;;;;;;-29.831844;-10.280923;39.212467;;1323.1
1641.0;1604.7;;;;;;;;;;;;;;0.9911801;-0.19129002;-0.2360912;;;;;1323.1
1641.0;1605.6;;;;;;;;;;;;;;;;;-25.688955;-9.174627;38.05277;;1332.7
1641.0;1605.6;;;;;;;;;;;;;;0.9917295;-0.1906186;-0.19806513;;;;;1332.7
1641.0;1605.6;;;;;;;;;;;;;;;;;-21.671957;-10.040589;37.81625;;1332.7
1641.0;1605.6;;;;;;;;;;;;;;1.0015564;-0.20911282;-0.18872647;;;;;1332.7
1641.0;1605.6;;;;;;;;;;;;;;;;;-17.448957;-9.338664;36.68325;;1342.3
1641.0;1605.6;;;;;;;;;;;;;;0.9940489;-0.21289712;-0.18408765;;;;;1342.3
1641.0;1605.6;;;;;;;;;;;;;;;;;-12.394329;-8.827478;35.016174;;1342.3
1641.0;1605.6;;;;;;;;;;;;;;0.9834285;-0.20130008;-0.18347728;;;;;1342.3
1641.0;1605.6;;;;;;;;;;;;;;;;;-6.740776;-10.105441;33.242287;;1351.9
1641.0;1605.6;;;;;;;;;;;;;;0.9807428;-0.18494217;-0.19757684;;;;;1351.9
1641.0;1605.6;;;;;;;;;;;;;;;;;-2.1858883;-10.929441;31.384472;;1351.9
1641.0;1605.6;;;;;;;;;;;;;;0.9714652;-0.16638692;-0.22302927;;;;;1351.9
1645.0;1606.3;;;;;;;;;;;;;;;;;0.10299997;-9.361553;29.492325;;1361.6
1645.0;1606.3;;;;;;;;;;;;;;0.95327616;-0.15576647;-0.21759698;;;;;1361.6
1645.0;1606.3;;;;;;;;;;;;;;;;;1.7204809;-7.904294;27.3484;;1361.6
1645.0;1606.3;;;;;;;;;;;;;;0.9272744;-0.17181921;-0.20422986;;;;;1361.6
1645.0;1606.3;;;;;;;;;;;;;;;;;3.0632956;-7.9958496;24.811548;;1371.2
1645.0;1606.3;;;;;;;;;;;;;;0.9192175;-0.13721122;-0.21594897;;;;;1371.2
1645.0;1606.3;;;;;;;;;;;;;;;;;3.5897398;-7.6715903;22.553179;;1371.2
1645.0;1606.3;;;;;;;;;;;;;;0.9225745;-0.10821863;-0.23603015;;;;;1371.2
1645.0;1606.3;;;;;;;;;;;;;;;;;3.8567767;-5.897702;20.27192;;1380.9
1645.0;1606.3;;;;;;;;;;;;;;0.931547;-0.06689657;-0.23590808;;;;;1380.9
1645.0;1606.3;;;;;;;;;;;;;;;;;3.3265176;-3.456221;17.700735;;1380.9
1645.0;1606.3;;;;;;;;;;;;;;0.92605364;-0.02130192;-0.23554185;;;;;1380.9
1645.0;1607.3;;;;;;;;;;;;;-4713;;;;;;;;
1645.0;1607.3;;;;;;;;;;;;;-4881;;;;;;;;
1645.0;1607.3;;;;;;;;;;;;;-4469;;;;;;;;
1645.0;1607.3;;;;;;;;;;;;;-4117;;;;;;;;
1645.0;1607.3;;;;;;;;;;;;;-3861;;;;;;;;
1647.0;1608.1;;;;;;;;;;;;;;;;;3.563036;-1.3580737;15.457625;;1390.6
1647.0;1608.1;;;;;;;;;;;;;;0.91433454;0.010498367;-0.23096408;;;;;1390.6
1647.0;1608.1;;;;;;;;;;;;;;;;;3.2807398;-0.7858516;13.664663;;1390.6
1647.0;1608.1;;;;;;;;;;;;;;0.91683704;0.033692434;-0.2402417;;;;;1390.6
1647.0;1608.1;;;;;;;;;;;;;;;;;1.9989624;-0.21362957;12.173071;;1400.3
1647.0;1608.1;;;;;;;;;;;;;;0.92196417;0.039857175;-0.24524674;;;;;1400.3
1647.0;1608.1;;;;;;;;;;;;;;;;;0.41199988;0.39674062;11.265144;;1400.3
1647.0;1608.1;;;;;;;;;;;;;;0.9374676;0.034119695;-0.24579607;;;;;1400.3
1647.0;1608.1;;;;;;;;;;;;;;;;;-1.4610736;1.6937773;10.647145;;1409.9
1647.0;1608.1;;;;;;;;;;;;;;0.9495529;0.01208533;-0.22650838;;;;;1409.9
1647.0;1608.1;;;;;;;;;;;;;;;;;-3.3913696;2.0981476;10.132145;;1409.9
1647.0;1608.1;;;;;;;;;;;;;;0.96279794;-0.009094516;-0.22608112;;;;;1409.9
1647.0;1608.7;;;;-0.18238832;0.7366181;0.19214252;;;;;;;;;;;;;;;
1647.0;1608.7;;;;-0.18262102;0.73115927;0.19814685;;;;;;;;;;;;;;;
1647.0;1608.7;;;;-0.1828499;0.7260209;0.20275119;;;;;;;;;;;;;;;
1647.0;1608.7;;;;-0.18282701;0.7200585;0.20735934;;;;;;;;;;;;;;;
1647.0;1608.7;;;;-0.18293001;0.71495825;0.21298221;;;;;;;;;;;;;;;
1647.0;1618.7;;;;-0.18283845;0.708973;0.21742633;;;;;;;;;;;;;;;
1647.0;1618.7;;;;-0.18216325;0.7030259;0.22183612;;;;;;;;;;;;;;;
1647.0;1618.7;;;;-0.18137743;0.6969376;0.22725299;;;;;;;;;;;;;;;
1647.0;1618.7;;;;-0.1807213;0.6914788;0.23303226;;;;;;;;;;;;;;;
1647.0;1618.7;;;;-0.18001176;0.6858521;0.23807529;;;;;;;;;;;;;;;
1648.0;1619.5;;;;;;;;;;;;;;;;;-4.627369;1.6136662;10.162663;;1419.6
1648.0;1619.5;;;;;;;;;;;;;;0.9808649;-0.035889767;-0.24213386;;;;;1419.6
1648.0;1619.5;;;;;;;;;;;;;;;;;-6.7026277;0.65614796;10.719626;;1419.6
1648.0;1619.5;;;;;;;;;;;;;;0.99502546;-0.076540425;-0.25501266;;;;;1419.6
1648.0;1619.5;;;;;;;;;;;;;;;;;-9.643849;-0.87740713;11.619923;;1429.2
1648.0;1619.5;;;;;;;;;;;;;;1.0143743;-0.12274545;-0.2606891;;;;;1429.2
1648.0;1619.5;;;;;;;;;;;;;;;;;-13.0809965;-2.4491103;13.054293;;1429.2
1648.0;1619.5;;;;;;;;;;;;;;1.0442213;-0.16736351;-0.27161473;;;;;1429.2
1648.0;1619.5;;;;;;;;;;;;;;;;;-16.155737;-2.723777;14.587848;;1438.9
1648.0;1619.5;;;;;;;;;;;;;;1.0597247;-0.20587787;-0.27216408;;;;;1438.9
1648.0;1619.5;;;;;;;;;;;;;;;;;-18.475143;-4.352702;16.060366;;1438.9
1648.0;1619.5;;;;;;;;;;;;;;1.0722984;-0.22211371;-0.30036318;;;;;1438.9
1648.0;1620.2;;;;;;;;;;;;;;;;;-21.591846;-6.405072;17.139957;;1448.6
1648.0;1620.2;;;;;;;;;;;;;;1.0820032;-0.21149327;-0.3345439;;;;;1448.6
1648.0;1620.2;;;;;;;;;;;;;;;;;-29.065065;-5.6840725;18.11655;;1448.6
1648.0;1620.2;;;;;;;;;;;;;;1.1039156;-0.20667134;-0.32819605;;;;;1448.6
1648.0;1620.2;;;;;;;;;;;;;;;;;-34.68047;-3.604999;18.055513;;1458.2
1648.0;1620.2;;;;;;;;;;;;;;1.124424;-0.18958098;-0.31946775;;;;;1458.2
1648.0;1620.2;;;;;;;;;;;;;;;;;-31.45314;-7.0535903;15.720848;;1458.2
1648.0;1620.2;;;;;;;;;;;;;;1.1758782;-0.14160588;-0.39295632;;;;;1458.2
1648.0;1620.2;;;;;;;;;;;;;;;;;-25.128178;-10.03296;13.779107;;1467.9
1648.0;1620.2;;;;;;;;;;;;;;1.2190924;-0.114200264;-0.49452192;;;;;1467.9
1648.0;1620.2;;;;;;;;;;;;;;;;;-20.897549;-5.512406;12.230293;;1467.9
1648.0;1620.2;;;;;;;;;;;;;;1.2107913;-0.0954619;-0.49110386;;;;;1467.9
1650.0;1621.1;;;;;;;;;;;;;;;;;-19.547104;1.9722588;10.872219;;1477.5
1650.0;1621.1;;;;;;;;;;;;;;1.1614124;-0.03546251;-0.36976227;;;;;1477.5
1650.0;1621.1;;;;;;;;;;;;;;;;;-20.645771;7.038331;9.189886;;1477.5
1650.0;1621.1;;;;;;;;;;;;;;1.126194;0.03112888;-0.2287057;;;;;1477.5
1650.0;1621.1;;;;;;;;;;;;;;;;;-20.592363;10.280923;6.065554;;1487.2
1650.0;1621.1;;;;;;;;;;;;;;1.0884122;0.09869686;-0.10614338;;;;;1487.2
1650.0;1621.1;;;;;;;;;;;;;;;;;-16.308329;9.193701;1.4000366;;1487.2
1650.0;1621.1;;;;;;;;;;;;;;1.0422682;0.15503404;-0.09595019;;;;;1487.2
1650.0;1621.1;;;;;;;;;;;;;;;;;-10.9904785;6.164739;-3.47911;;1496.9
1650.0;1621.1;;;;;;;;;;;;;;1.0079653;0.17639698;-0.19592883;;;;;1496.9
1650.0;1621.1;;;;;;;;;;;;;;;;;-11.902219;6.782739;-8.358257;;1496.9
1650.0;1621.1;;;;;;;;;;;;;;0.99447614;0.19129002;-0.26508376;;;;;1496.9
1650.0;1621.2;262143;262143;13437;;;;;;;;;;;;;;;;;;
1696.0;1621.9;;;;;;;;;;;;;;;;;-15.9878845;9.502701;-13.0047;;1506.5
1696.0;1621.9;;;;;;;;;;;;;;1.0065005;0.19727165;-0.25080112;;;;;1506.5
1696.0;1621.9;;;;;;;;;;;;;;;;;-17.956327;12.607959;-17.799921;;1506.5
1696.0;1621.9;;;;;;;;;;;;;;1.0414137;0.20288706;-0.18860438;;;;;1506.5
1696.0;1621.9;;;;;;;;;;;;;;;;;-16.331219;16.68981;-23.728142;;1516.1
1696.0;1621.9;;;;;;;;;;;;;;1.078402;0.21509446;-0.116641745;;;;;1516.1
1696.0;1621.9;;;;;;;;;;;;;;;;;-12.604144;21.156958;-30.629139;;1516.1
1696.0;1621.9;;;;;;;;;;;;;;1.0962249;0.23108615;-0.07312235;;;;;1516.1
1696.0;1621.9;;;;;;;;;;;;;;;;;-7.8241825;25.292213;-38.048954;;1525.7
1696.0;1621.9;;;;;;;;;;;;;;1.0950041;0.23987548;-0.06146428;;;;;1525.7
1696.0;1621.9;;;;;;;;;;;;;;;;;-3.9788508;28.294474;-45.71673;;1525.7
1696.0;1621.9;;;;;;;;;;;;;;1.0945158;0.23944822;-0.07916501;;;;;1525.7
1696.0;1628.4;;;;-0.17886735;0.68033606;0.24400333;;;;;;;;;;;;;;;
1696.0;1628.4;;;;-0.17800905;0.67558676;0.24966815;;;;;;;;;;;;;;;
1696.0;1628.4;;;;-0.1771126;0.67068106;0.2546349;;;;;;;;;;;;;;;
1696.0;1628.4;;;;-0.175972;0.6665192;0.25888065;;;;;;;;;;;;;;;
1696.0;1628.4;;;;-0.1746216;0.66297156;0.2628174;;;;;;;;;;;;;;;
1696.0;1637.9;;;;-0.17298128;0.66014487;0.26692584;;;;;;;;;;;;;;;
1696.0;1637.9;;;;-0.17206956;0.6581231;0.2708893;;;;;;;;;;;;;;;
1696.0;1637.9;;;;-0.17076875;0.656601;0.27402118;;;;;;;;;;;;;;;
1696.0;1637.9;;;;-0.16999055;0.6563645;0.2758446;;;;;;;;;;;;;;;
1696.0;1637.9;;;;-0.16912843;0.657322;0.27790835;;;;;;;;;;;;;;;
1696.0;1640.5;262143;262143;13443;;;;;;;;;;;;;;;;;;
1698.0;1646.7;;;;;;;;;;;;;-3209;;;;;;;;
1698.0;1646.7;;;;;;;;;;;;;-2080;;;;;;;;
1698.0;1646.7;;;;;;;;;;;;;-1018;;;;;;;;
1698.0;1646.7;;;;;;;;;;;;;-493;;;;;;;;
1698.0;1646.7;;;;;;;;;;;;;-377;;;;;;;;
1698.0;1648.0;;;;-0.16947557;0.6584702;0.27960208;;;;;;;;;;;;;;;
1698.0;1648.0;;;;-0.17037202;0.66021353;0.28112796;;;;;;;;;;;;;;;
1698.0;1648.0;;;;-0.17221834;0.66284186;0.28273013;;;;;;;;;;;;;;;
1698.0;1648.0;;;;-0.17414095;0.66590124;0.28418735;;;;;;;;;;;;;;;
1698.0;1648.0;;;;-0.17495729;0.6697007;0.28508;;;;;;;;;;;;;;;
1698.0;1658.1;;;;-0.17569734;0.6739045;0.28639606;;;;;;;;;;;;;;;
1698.0;1658.1;;;;-0.17617418;0.6781922;0.28776172;;;;;;;;;;;;;;;
1698.0;1658.1;;;;-0.1763077;0.68267447;0.28781512;;;;;;;;;;;;;;;
1698.0;1658.1;;;;-0.17546846;0.6877404;0.28761294;;;;;;;;;;;;;;;
1698.0;1658.1;;;;-0.17289354;0.69284827;0.28797916;;;;;;;;;;;;;;;
1698.0;1660.7;262143;262143;13444;;;;;;;;;;;;;;;;;;
1698.0;1668.1;;;;-0.17076875;0.69707495;0.2886658;;;;;;;;;;;;;;;
1698.0;1668.1;;;;-0.16848375;0.70252615;0.28858188;;;;;;;;;;;;;;;
1698.0;1668.1;;;;-0.16586305;0.7081681;0.2865372;;;;;;;;;;;;;;;
1698.0;1668.1;;;;-0.16298296;0.7140046;0.28550342;;;;;;;;;;;;;;;
1698.0;1668.1;;;;-0.16036226;0.7200509;0.28464893;;;;;;;;;;;;;;;
1757.0;1678.2;;;;-0.1584778;0.7268868;0.28348544;;;;;;;;;;;;;;;
1757.0;1678.2;;;;-0.15706255;0.7336808;0.2826195;;;;;;;;;;;;;;;
1757.0;1678.2;;;;-0.15491869;0.7414399;0.28107455;;;;;;;;;;;;;;;
1757.0;1678.2;;;;-0.15307619;0.7500154;0.27985004;;;;;;;;;;;;;;;
1757.0;1678.2;;;;-0.15177538;0.759266;0.27774814;;;;;;;;;;;;;;;
1757.0;1680.8;262143;262143;13452;;;;;;;;;;;;;;;;;;
1757.0;1687.0;;;;;;;;;;;;;-284;;;;;;;;
1757.0;1687.0;;;;;;;;;;;;;-84;;;;;;;;
1757.0;1687.0;;;;;;;;;;;;;110;;;;;;;;
1757.0;1687.0;;;;;;;;;;;;;149;;;;;;;;
1757.0;1687.0;;;;;;;;;;;;;-33;;;;;;;;
1757.0;1688.1;;;;-0.1509781;0.7698785;0.2757149;;;;;;;;;;;;;;;
1757.0;1688.1;;;;-0.14920427;0.78118527;0.27342227;;;;;;;;;;;;;;;
1757.0;1688.1;;;;-0.14763643;0.79296124;0.2709923;;;;;;;;;;;;;;;
1757.0;1688.1;;;;-0.14697649;0.80539334;0.26830676;;;;;;;;;;;;;;;
1757.0;1688.1;;;;-0.1460457;0.81847394;0.26456454;;;;;;;;;;;;;;;
1757.0;1698.1;;;;-0.14530946;0.8315698;0.2600899;;;;;;;;;;;;;;;
1757.0;1698.1;;;;-0.14401628;0.8451921;0.25678638;;;;;;;;;;;;;;;
1757.0;1698.1;;;;-0.14344408;0.85899746;0.2529221;;;;;;;;;;;;;;;
1757.0;1698.1;;;;-0.1426964;0.87280667;0.24940112;;;;;;;;;;;;;;;
1757.0;1698.1;;;;-0.14183427;0.8864099;0.24633029;;;;;;;;;;;;;;;
1757.0;1700.9;262143;262143;13445;;;;;;;;;;;;;;;;;;
1759.0;1708.2;;;;-0.14094545;0.90047085;0.24374011;;;;;;;;;;;;;;;
1759.0;1708.2;;;;-0.14032747;0.9145204;0.2412186;;;;;;;;;;;;;;;
1759.0;1708.2;;;;-0.13956453;0.9284326;0.23930743;;;;;;;;;;;;;;;
1759.0;1708.2;;;;-0.13831331;0.94227993;0.23710254;;;;;;;;;;;;;;;
1759.0;1708.2;;;;-0.13642122;0.955948;0.23454288;;;;;;;;;;;;;;;
1759.0;1718.4;;;;-0.13529207;0.9692079;0.23291782;;;;;;;;;;;;;;;
1759.0;1718.4;;;;-0.13324739;0.9823495;0.23105243;;;;;;;;;;;;;;;
1759.0;1718.4;;;;-0.13111497;0.994671;0.22877124;;;;;;;;;;;;;;;
1759.0;1718.4;;;;-0.12871553;1.0070993;0.22737125;;;;;;;;;;;;;;;
1759.0;1718.4;;;;-0.12688829;1.0184518;0.22610095;;;;;;;;;;;;;;;
1759.0;1721.2;262143;262143;13452;;;;;;;;;;;;;;;;;;
1759.0;1727.2;;;;;;;;;;;;;-309;;;;;;;;
1759.0;1727.2;;;;;;;;;;;;;-411;;;;;;;;
1759.0;1727.2;;;;;;;;;;;;;-356;;;;;;;;
1759.0;1727.2;;;;;;;;;;;;;-422;;;;;;;;
1759.0;1727.2;;;;;;;;;;;;;-626;;;;;;;;
1759.0;1728.4;;;;-0.12442781;1.0296556;0.22509006;;;;;;;;;;;;;;;
1759.0;1728.4;;;;-0.12193681;1.0404245;0.22472766;;;;;;;;;;;;;;;
1759.0;1728.4;;;;-0.11947252;1.0505944;0.22348788;;;;;;;;;;;;;;;
1759.0;1728.4;;;;-0.11697389;1.0606195;0.22301868;;;;;;;;;;;;;;;
1759.0;1728.4;;;;-0.11498262;1.0692636;0.22286609;;;;;;;;;;;;;;;
1818.0;1738.4;;;;-0.111827865;1.0771486;0.223156;;;;;;;;;;;;;;;
1818.0;1738.4;;;;-0.10921861;1.0847932;0.22321323;;;;;;;;;;;;;;;
1818.0;1738.4;;;;-0.10710527;1.0913736;0.22303393;;;;;;;;;;;;;;;
1818.0;1738.4;;;;-0.10445024;1.0966684;0.22303775;;;;;;;;;;;;;;;
1818.0;1738.4;;;;-0.10195543;1.1012956;0.22341159;;;;;;;;;;;;;;;
1818.0;1738.5;;;;;;;;;;1.22837;16.766108;-3.322703;;;;;;;;;
1818.0;1738.5;;;;;;;0.24091311;-1.0209051;0.19824824;;;;;;;;;;;;
1818.0;1738.5;;;;;;;;;;7.141331;31.21662;7.9195538;;;;;;;;;
1818.0;1738.5;;;;;;;0.26703694;-1.1611072;0.21955016;;;;;;;;;;;;
1818.0;1741.2;262143;262143;13446;;;;;;;;;;;;;;;;;;
1818.0;1748.0;;;;;;;;;;5.0813317;10.914183;-0.19455549;;;;;;;;;
1818.0;1748.0;;;;;;;0.26160467;-1.1748406;0.21295816;;;;;;;;;;;;
1818.0;1748.0;;;;;;;;;;17.391735;37.24784;0.14877774;;;;;;;;;
1818.0;1748.0;;;;;;;0.25263223;-1.1842402;0.20990631;;;;;;;;;;;;
1818.0;1748.4;;;;-0.0999756;1.1048013;0.22389606;;;;;;;;;;;;;;;
1818.0;1748.4;;;;-0.09850313;1.1072656;0.22412112;;;;;;;;;;;;;;;
1818.0;1748.4;;;;-0.09616853;1.1090852;0.2250252;;;;;;;;;;;;;;;
1818.0;1748.4;;;;-0.093723305;1.1095773;0.22694781;;;;;;;;;;;;;;;
1818.0;1748.4;;;;-0.09175492;1.1087953;0.22904971;;;;;;;;;;;;;;;
1818.0;1757.5;;;;;;;;;;27.287363;55.25376;-4.749443;;;;;;;;;
1818.0;1757.5;;;;;;;0.23999757;-1.1908323;0.20599994;;;;;;;;;;;;
1818.0;1757.5;;;;;;;;;;31.964325;36.11484;-29.786066;;;;;;;;;
1818.0;1757.5;;;;;;;0.22333445;-1.1955321;0.20392469;;;;;;;;;;;;
1840.0;1758.4;;;;-0.09087754;1.1084214;0.23203662;;;;;;;;;;;;;;;
1840.0;1758.4;;;;-0.08876801;1.1074067;0.23442844;;;;;;;;;;;;;;;
1840.0;1758.4;;;;-0.08687211;1.1048967;0.23723605;;;;;;;;;;;;;;;
1840.0;1758.4;;;;-0.08530808;1.1021348;0.24067691;;;;;;;;;;;;;;;
1840.0;1758.4;;;;-0.08431245;1.0987092;0.24389651;;;;;;;;;;;;;;;
1840.0;1761.3;262143;262143;13449;;;;;;;;;;;;;;;;;;
1840.0;1767.2;;;;;;;;;;41.63869;50.939205;-34.131138;;;;;;;;;
1840.0;1767.2;;;;;;;0.20648824;-1.2008423;0.20044558;;;;;;;;;;;;
1840.0;1767.2;;;;;;;;;;51.446575;65.11506;-37.797176;;;;;;;;;
1840.0;1767.2;;;;;;;0.19226661;-1.1991943;0.19525743;;;;;;;;;;;;
1840.0;1767.5;;;;;;;;;;;;;-711;;;;;;;;
1840.0;1767.5;;;;;;;;;;;;;-596;;;;;;;;
1840.0;1767.5;;;;;;;;;;;;;-448;;;;;;;;
1840.0;1767.5;;;;;;;;;;;;;-353;;;;;;;;
1840.0;1767.5;;;;;;;;;;;;;-246;;;;;;;;
1840.0;1768.5;;;;-0.08391572;1.0952073;0.24751666;;;;;;;;;;;;;;;
1840.0;1768.5;;;;-0.08240891;1.0913774;0.2524605;;;;;;;;;;;;;;;
1840.0;1768.5;;;;-0.081233986;1.08733;0.25812533;;;;;;;;;;;;;;;
1840.0;1768.5;;;;-0.08041001;1.0833322;0.262764;;;;;;;;;;;;;;;
1840.0;1768.5;;;;-0.08015824;1.079178;0.2675667;;;;;;;;;;;;;;;
1840.0;1776.8;;;;;;;;;;59.396652;83.94498;-34.588913;;;;;;;;;
1840.0;1776.8;;;;;;;0.18622394;-1.1999267;0.18848231;;;;;;;;;;;;
1840.0;1776.8;;;;;;;;;;61.69698;93.68038;-27.924437;;;;;;;;;
1840.0;1776.8;;;;;;;0.18091373;-1.1982177;0.18274483;;;;;;;;;;;;
1842.0;1778.6;;;;-0.07889939;1.0756837;0.27307513;;;;;;;;;;;;;;;
1842.0;1778.6;;;;-0.07781983;1.0718538;0.27790073;;;;;;;;;;;;;;;
1842.0;1778.6;;;;-0.07672501;1.0674745;0.28346637;;;;;;;;;;;;;;;
1842.0;1778.6;;;;-0.07497407;1.0629579;0.289341;;;;;;;;;;;;;;;
1842.0;1778.6;;;;-0.07328797;1.0583917;0.29555896;;;;;;;;;;;;;;;
1842.0;1781.6;262143;262143;13435;;;;;;;;;;;;;;;;;;
1842.0;1786.3;;;;;;;;;;63.001648;91.963715;-27.184362;;;;;;;;;
1842.0;1786.3;;;;;;;0.17670217;-1.1946166;0.17798395;;;;;;;;;;;;
1842.0;1786.3;;;;;;;;;;64.23765;89.70152;-26.635029;;;;;;;;;
1842.0;1786.3;;;;;;;0.17560351;-1.1929075;0.17352824;;;;;;;;;;;;
1842.0;1788.6;;;;-0.07083512;1.054413;0.30134967;;;;;;;;;;;;;;;
1842.0;1788.6;;;;-0.06811906;1.04974;0.30716327;;;;;;;;;;;;;;;
1842.0;1788.6;;;;-0.06713868;1.0449144;0.31354907;;;;;;;;;;;;;;;
1842.0;1788.6;;;;-0.06713105;1.0398866;0.31951907;;;;;;;;;;;;;;;
1842.0;1788.6;;;;-0.06733323;1.0351297;0.32492068;;;;;;;;;;;;;;;
1842.0;1795.8;;;;;;;;;;65.57284;86.90527;-26.257362;;;;;;;;;
1842.0;1795.8;;;;;;;0.17242958;-1.1862545;0.17035432;;;;;;;;;;;;
1842.0;1795.8;;;;;;;;;;66.90802;83.73516;-26.078066;;;;;;;;;
1842.0;1795.8;;;;;;;0.16595966;-1.180639;0.16632588;;;;;;;;;;;;
1876.0;1798.6;;;;-0.06711198;1.0294954;0.33047107;;;;;;;;;;;;;;;
1876.0;1798.6;;;;-0.06885529;1.0239259;0.33579257;;;;;;;;;;;;;;;
1876.0;1798.6;;;;-0.07194138;1.0181772;0.34131625;;;;;;;;;;;;;;;
1876.0;1798.6;;;;-0.07344819;1.0137559;0.34564593;;;;;;;;;;;;;;;
1876.0;1798.6;;;;-0.07418061;1.0092202;0.34989932;;;;;;;;;;;;;;;
1876.0;1801.5;262143;262143;13438;;;;;;;;;;;;;;;;;;
1876.0;1805.3;;;;;;;;;;68.27372;80.046234;-26.08188;;;;;;;;;
1876.0;1805.3;;;;;;;0.15936765;-1.1733146;0.15955077;;;;;;;;;;;;
1876.0;1805.3;;;;;;;;;;69.5822;75.987274;-26.360363;;;;;;;;;
1876.0;1805.3;;;;;;;0.14996795;-1.1628773;0.15265359;;;;;;;;;;;;
1876.0;1807.7;;;;;;;;;;;;;-136;;;;;;;;
1876.0;1807.7;;;;;;;;;;;;;-135;;;;;;;;
1876.0;1807.7;;;;;;;;;;;;;-201;;;;;;;;
1876.0;1807.7;;;;;;;;;;;;;-98;;;;;;;;
1876.0;1807.7;;;;;;;;;;;;;245;;;;;;;;
1876.0;1808.6;;;;-0.07513047;1.0036966;0.35422137;;;;;;;;;;;;;;;
1876.0;1808.6;;;;-0.07818604;0.99842083;0.3595772;;;;;;;;;;;;;;;
1876.0;1808.6;;;;-0.07759095;0.9932748;0.36323932;;;;;;;;;;;;;;;
1876.0;1808.6;;;;-0.080421455;0.9890634;0.3673096;;;;;;;;;;;;;;;
1876.0;1808.6;;;;-0.08912278;0.9839021;0.37419894;;;;;;;;;;;;;;;
1876.0;1814.7;;;;;;;;;;70.799126;71.550644;-26.821955;;;;;;;;;
1876.0;1814.7;;;;;;;0.14166692;-1.1518906;0.14441359;;;;;;;;;;;;
1876.0;1814.7;;;;;;;;;;71.97409;66.81647;-27.596361;;;;;;;;;
1876.0;1814.7;;;;;;;0.13458663;-1.1388288;0.13806574;;;;;;;;;;;;
1880.0;1818.5;;;;-0.09220887;0.9797708;0.37813193;;;;;;;;;;;;;;;
1880.0;1818.5;;;;-0.097324386;0.9753305;0.3809319;;;;;;;;;;;;;;;
1880.0;1818.5;;;;-0.100685135;0.97140896;0.38323218;;;;;;;;;;;;;;;
1880.0;1818.5;;;;-0.10606767;0.96767056;0.38582236;;;;;;;;;;;;;;;
1880.0;1818.5;;;;-0.11091997;0.9646951;0.38787466;;;;;;;;;;;;;;;
1880.0;1821.5;262143;262143;13425;;;;;;;;;;;;;;;;;;
1880.0;1824.3;;;;;;;;;;73.05368;61.872463;-28.595844;;;;;;;;;
1880.0;1824.3;;;;;;;0.12903225;-1.1279031;0.12872708;;;;;;;;;;;;
1880.0;1824.3;;;;;;;;;;74.09131;56.72628;-29.770807;;;;;;;;;
1880.0;1824.3;;;;;;;0.12469863;-1.1166112;0.121890925;;;;;;;;;;;;
1880.0;1828.6;;;;-0.117820755;0.9603311;0.39082342;;;;;;;;;;;;;;;
1880.0;1828.6;;;;-0.12573244;0.9560319;0.3934899;;;;;;;;;;;;;;;
1880.0;1828.6;;;;-0.13337328;0.95266736;0.39632422;;;;;;;;;;;;;;;
1880.0;1828.6;;;;-0.14191057;0.949402;0.39955908;;;;;;;;;;;;;;;
1880.0;1828.6;;;;-0.14935686;0.9466287;0.40203482;;;;;;;;;;;;;;;
1880.0;1834.0;;;;;;;;;;75.07172;51.507614;-31.147953;;;;;;;;;
1880.0;1834.0;;;;;;;0.119083226;-1.1033051;0.113528855;;;;;;;;;;;;
1880.0;1834.0;;;;;;;;;;75.82324;46.357616;-32.670067;;;;;;;;;
1880.0;1834.0;;;;;;;0.116763815;-1.0952482;0.10333567;;;;;;;;;;;;
1881.0;1838.7;;;;-0.15588762;0.94431317;0.4049378;;;;;;;;;;;;;;;
1881.0;1838.7;;;;-0.16125108;0.94233334;0.4075318;;;;;;;;;;;;;;;
1881.0;1838.7;;;;-0.16725542;0.9400979;0.41070944;;;;;;;;;;;;;;;
1881.0;1838.7;;;;-0.17130281;0.9378625;0.41411978;;;;;;;;;;;;;;;
1881.0;1838.7;;;;-0.17588808;0.93660367;0.4170571;;;;;;;;;;;;;;;
1881.0;1841.8;262143;262143;13442;;;;;;;;;;;;;;;;;;
1881.0;1843.6;;;;;;;;;;76.42598;41.5891;-34.272285;;;;;;;;;
1881.0;1843.6;;;;;;;0.116214484;-1.0821863;0.09424116;;;;;;;;;;;;
1881.0;1843.6;;;;;;;;;;76.91809;37.141026;-35.996582;;;;;;;;;
1881.0;1843.6;;;;;;;0.12073123;-1.0716879;0.08575701;;;;;;;;;;;;
1881.0;1845.6;;;;;;;;;;;;;;;;;-23.621326;17.029327;-85.09324;;1737.3
1881.0;1845.6;;;;;;;;;;;;;;0.8537858;-0.41822565;-0.15344706;;;;;1737.3
1881.0;1845.6;;;;;;;;;;;;;;;;;-25.982697;13.668478;-80.767235;;1737.3
1881.0;1845.6;;;;;;;;;;;;;;0.8581194;-0.41456345;-0.16052736;;;;;1737.3
1881.0;1845.6;;;;;;;;;;;;;;;;;-27.352215;10.620441;-76.422165;;1746.9
1881.0;1845.6;;;;;;;;;;;;;;0.83388776;-0.34943694;-0.18250069;;;;;1746.9
1881.0;1845.6;;;;;;;;;;;;;;;;;-28.935362;7.148961;-71.50487;;1746.9
1881.0;1845.6;;;;;;;;;;;;;;0.80361336;-0.29309976;-0.17627491;;;;;1746.9
1881.0;1845.6;;;;;;;;;;;;;;;;;-31.933807;3.2845547;-66.08402;;1756.6
1881.0;1845.6;;;;;;;;;;;;;;0.7779778;-0.25324258;-0.18390454;;;;;1756.6
1881.0;1845.6;;;;;;;;;;;;;;;;;-36.397137;3.8262582;-60.50676;;1756.6
1881.0;1845.6;;;;;;;;;;;;;;0.76400036;-0.20606098;-0.11645863;;;;;1756.6
1883.0;1846.4;;;;;;;;;;;;;;;;;-41.14658;0.41199988;-53.632465;;1766.3
1883.0;1846.4;;;;;;;;;;;;;;0.7786493;-0.16766869;-0.109073155;;;;;1766.3
1883.0;1846.4;;;;;;;;;;;;;;;;;-46.430096;-0.6256294;-47.81869;;1766.3
1883.0;1846.4;;;;;;;;;;;;;;0.7581408;-0.1727958;-0.08337657;;;;;1766.3
1883.0;1846.4;;;;;;;;;;;;;;;;;-51.98828;-1.4191107;-42.523727;;1776.0
1883.0;1846.4;;;;;;;;;;;;;;0.7484359;-0.10998871;-0.037354656;;;;;1776.0
1883.0;1846.4;;;;;;;;;;;;;;;;;-58.149204;-1.4381847;-36.744286;;1776.0
1883.0;1846.4;;;;;;;;;;;;;;0.7262795;-0.109073155;-0.009765923;;;;;1776.0
1883.0;1846.4;;;;;;;;;;;;;;;;;-64.02783;-1.7777032;-31.23188;;1785.7
1883.0;1846.4;;;;;;;;;;;;;;0.72853786;-0.081240274;0.013611255;;;;;1785.7
1883.0;1846.4;;;;;;;;;;;;;;;;;-69.727165;-2.2011476;-25.563066;;1785.7
1883.0;1846.4;;;;;;;;;;;;;;0.73897517;-0.06408887;0.0020752586;;;;;1785.7
1883.0;1847.8;;;;;;;;;;;;;691;;;;;;;;
1883.0;1847.8;;;;;;;;;;;;;1102;;;;;;;;
1883.0;1847.8;;;;;;;;;;;;;1377;;;;;;;;
1883.0;1847.8;;;;;;;;;;;;;1502;;;;;;;;
1883.0;1847.8;;;;;;;;;;;;;1564;;;;;;;;
1883.0;1848.7;;;;-0.18119814;0.9348031;0.42034155;;;;;;;;;;;;;;;
1883.0;1848.7;;;;-0.18502046;0.93306744;0.42265707;;;;;;;;;;;;;;;
1883.0;1848.7;;;;-0.18894199;0.9316026;0.424614;;;;;;;;;;;;;;;
1883.0;1848.7;;;;-0.19250873;0.93053067;0.42594916;;;;;;;;;;;;;;;
1883.0;1848.7;;;;-0.1929703;0.9299623;0.42763144;;;;;;;;;;;;;;;
1884.0;1852.5;;;;;;;;;;;;;;;;;20.16129;51.89291;-98.4756;;1564.2
1884.0;1852.5;;;;;;;;;;;;;;0.93093663;0.02557451;-0.098269604;;;;;1564.2
1884.0;1852.5;;;;;;;;;;;;;;;;;20.35203;54.559467;-104.64034;;1564.2
1884.0;1852.5;;;;;;;;;;;;;;0.86233103;-0.0017090365;-0.098025456;;;;;1564.2
1884.0;1852.5;;;;;;;;;;;;;;;;;22.808771;52.457504;-110.984375;;1573.7
1884.0;1852.5;;;;;;;;;;;;;;0.83138525;-0.026734214;-0.07904294;;;;;1573.7
1884.0;1852.5;;;;;;;;;;;;;;;;;25.475325;44.79354;-116.76382;;1573.7
1884.0;1852.5;;;;;;;;;;;;;;0.8581194;-0.07318339;-0.105166785;;;;;1573.7
1884.0;1852.5;;;;;;;;;;;;;;;;;25.79577;37.331768;-122.78359;;1583.4
1884.0;1852.5;;;;;;;;;;;;;;0.8576922;-0.063844725;-0.15790276;;;;;1583.4
1884.0;1852.5;;;;;;;;;;;;;;;;;22.244177;29.541918;-124.95041;;1583.4
1884.0;1852.5;;;;;;;;;;;;;;0.86342967;-0.064638205;-0.21051668;;;;;1583.4
1884.0;1852.8;;;;;;;;;;77.16605;33.18125;-37.617878;;;;;;;;;
1884.0;1852.8;;;;;;;0.12671286;-1.0633869;0.079897456;;;;;;;;;;;;
1884.0;1852.8;;;;;;;;;;77.35298;29.477066;-39.258247;;;;;;;;;
1884.0;1852.8;;;;;;;0.13342692;-1.0559404;0.076662496;;;;;;;;;;;;
1884.0;1858.5;;;;-0.19606403;0.92671216;0.42926413;;;;;;;;;;;;;;;
1884.0;1858.5;;;;-0.1992493;0.9251672;0.43085104;;;;;;;;;;;;;;;
1884.0;1858.5;;;;-0.2010422;0.9246446;0.43254858;;;;;;;;;;;;;;;
1884.0;1858.5;;;;-0.20377353;0.92471707;0.43463904;;;;;;;;;;;;;;;
1884.0;1858.5;;;;-0.20762256;0.92582333;0.43474585;;;;;;;;;;;;;;;
1885.0;1860.0;;;;;;;;;;;;;;;;;17.71218;21.462143;-124.988556;;1592.9
1885.0;1860.0;;;;;;;;;;;;;;0.8939482;-0.074098945;-0.26569414;;;;;1592.9
1885.0;1860.0;;;;;;;;;;;;;;;;;14.244514;13.767662;-124.988556;;1592.9
1885.0;1860.0;;;;;;;;;;;;;;0.90554523;-0.07275613;-0.29914242;;;;;1592.9
1885.0;1860.0;;;;;;;;;;;;;;;;;12.668996;2.7771842;-124.988556;;1602.6
1885.0;1860.0;;;;;;;;;;;;;;0.9004181;-0.07727287;-0.3602405;;;;;1602.6
1885.0;1860.0;;;;;;;;;;;;;;;;;14.683218;-5.493332;-124.988556;;1602.6
1885.0;1860.0;;;;;;;;;;;;;;0.90426344;-0.09533983;-0.3673818;;;;;1602.6
1885.0;1860.0;;;;;;;;;;;;;;;;;19.898067;-11.455885;-124.988556;;1612.2
1885.0;1860.0;;;;;;;;;;;;;;0.92501605;-0.13611256;-0.34186834;;;;;1612.2
1885.0;1860.0;;;;;;;;;;;;;;;;;29.51903;-18.257698;-124.73678;;1612.2
1885.0;1860.0;;;;;;;;;;;;;;0.9450972;-0.19879757;-0.3211768;;;;;1612.2
1885.0;1861.5;262143;262143;13441;;;;;;;;;;;;;;;;;;
1885.0;1862.2;;;;;;;;;;77.520836;25.978882;-40.768913;;;;;;;;;
1885.0;1862.2;;;;;;;0.13940856;-1.0493485;0.075441755;;;;;;;;;;;;
1885.0;1862.2;;;;;;;;;;77.585686;22.312845;-42.226173;;;;;;;;;
1885.0;1862.2;;;;;;;0.14355907;-1.0445875;0.07593005;;;;;;;;;;;;
1885.0;1868.3;;;;-0.21270755;0.9266969;0.43501288;;;;;;;;;;;;;;;
1885.0;1868.3;;;;-0.21903995;0.92714703;0.4364472;;;;;;;;;;;;;;;
1885.0;1868.3;;;;-0.22583392;0.92836773;0.4375878;;;;;;;;;;;;;;;
1885.0;1868.3;;;;-0.23224643;0.9314996;0.43719107;;;;;;;;;;;;;;;
1885.0;1868.3;;;;-0.23868182;0.93548596;0.43664557;;;;;;;;;;;;;;;
1936.0;1871.6;;;;;;;;;;77.68105;18.887142;-43.630024;;;;;;;;;
1936.0;1871.6;;;;;;;0.14423047;-1.0395215;0.076906644;;;;;;;;;;;;
1936.0;1871.6;;;;;;;;;;77.6925;15.854366;-44.995728;;;;;;;;;
1936.0;1871.6;;;;;;;0.14746544;-1.0373852;0.079775386;;;;;;;;;;;;
1936.0;1878.1;;;;-0.2445946;0.9397546;0.43736273;;;;;;;;;;;;;;;
1936.0;1878.1;;;;-0.24928287;0.9438859;0.43790823;;;;;;;;;;;;;;;
1936.0;1878.1;;;;-0.2534981;0.9474946;0.43812186;;;;;;;;;;;;;;;
1936.0;1878.1;;;;-0.2597237;0.95271695;0.4396096;;;;;;;;;;;;;;;
1936.0;1878.1;;;;-0.26567844;0.9596864;0.43955237;;;;;;;;;;;;;;;
1936.0;1881.1;;;;;;;;;;77.57806;13.225959;-46.395763;;;;;;;;;
1936.0;1881.1;;;;;;;0.14960173;-1.0326853;0.08343761;;;;;;;;;;;;
1936.0;1881.1;;;;;;;;;;77.53228;10.971405;-47.837765;;;;;;;;;
1936.0;1881.1;;;;;;;0.1525315;-1.0307932;0.08697775;;;;;;;;;;;;
1936.0;1881.3;262143;262143;13432;;;;;;;;;;;;;;;;;;
1936.0;1887.5;;;;;;;;;;;;;1518;;;;;;;;
1936.0;1887.5;;;;;;;;;;;;;1126;;;;;;;;
1936.0;1887.5;;;;;;;;;;;;;279;;;;;;;;
1936.0;1887.5;;;;;;;;;;;;;-715;;;;;;;;
1936.0;1887.5;;;;;;;;;;;;;-887;;;;;;;;
1936.0;1888.2;;;;-0.27241138;0.96556485;0.4400788;;;;;;;;;;;;;;;
1936.0;1888.2;;;;-0.2804871;0.97076046;0.44218832;;;;;;;;;;;;;;;
1936.0;1888.2;;;;-0.2856522;0.97568524;0.4444695;;;;;;;;;;;;;;;
1936.0;1888.2;;;;-0.29048923;0.97911847;0.44637686;;;;;;;;;;;;;;;
1936.0;1888.2;;;;-0.2949715;0.9822427;0.45051962;;;;;;;;;;;;;;;
1941.0;1890.7;;;;;;;;;;77.47124;9.071627;-49.27595;;;;;;;;;
1941.0;1890.7;;;;;;;0.15930662;-1.0273751;0.08752709;;;;;;;;;;;;
1941.0;1890.7;;;;;;;;;;77.26905;7.4045534;-50.59969;;;;;;;;;
1941.0;1890.7;;;;;;;0.16418958;-1.0205389;0.08783227;;;;;;;;;;;;
1941.0;1898.4;;;;-0.30049518;0.98667157;0.45317084;;;;;;;;;;;;;;;
1941.0;1898.4;;;;-0.3014069;0.9881898;0.4546166;;;;;;;;;;;;;;;
1941.0;1898.4;;;;-0.30341342;0.98835766;0.45753866;;;;;;;;;;;;;;;
1941.0;1898.4;;;;-0.30633166;0.98832333;0.4602738;;;;;;;;;;;;;;;
1941.0;1898.4;;;;-0.3070908;0.9874574;0.46253592;;;;;;;;;;;;;;;
1941.0;1900.3;;;;;;;;;;77.08213;5.897702;-51.78991;;;;;;;;;
1941.0;1900.3;;;;;;;0.16974396;-1.0141301;0.08484146;;;;;;;;;;;;
1941.0;1900.3;;;;;;;;;;76.700645;4.581591;-52.896206;;;;;;;;;
1941.0;1900.3;;;;;;;0.17511521;-1.0062563;0.085695975;;;;;;;;;;;;
1941.0;1901.6;262143;262143;13436;;;;;;;;;;;;;;;;;;
1996.0;1905.0;;;;;;;;;;;;;;;;;43.63384;-27.024141;-122.032074;;1621.7
1996.0;1905.0;;;;;;;;;;;;;;1.0031434;-0.24597919;-0.3035371;;;;;1621.7
1996.0;1905.0;;;;;;;;;;;;;;;;;54.757835;-34.955135;-116.584526;;1621.7
1996.0;1905.0;;;;;;;;;;;;;;1.0663778;-0.29328287;-0.30066836;;;;;1621.7
1996.0;1905.0;;;;;;;;;;;;;;;;;59.63317;-39.384136;-112.25089;;1631.4
1996.0;1905.0;;;;;;;;;;;;;;1.1562853;-0.32673118;-0.31397444;;;;;1631.4
1996.0;1905.0;;;;;;;;;;;;;;;;;55.234684;-36.271248;-112.39585;;1631.4
1996.0;1905.0;;;;;;;;;;;;;;1.272805;-0.31653798;-0.32880643;;;;;1631.4
1996.0;1905.0;;;;;;;;;;;;;;;;;44.644764;-24.006622;-114.47493;;1641.0
1996.0;1905.0;;;;;;;;;;;;;;1.4043398;-0.28760645;-0.35364848;;;;;1641.0
1996.0;1905.0;;;;;;;;;;;;;;;;;36.164433;-6.6263313;-116.70278;;1641.0
1996.0;1905.0;;;;;;;;;;;;;;1.5154881;-0.23517564;-0.35749382;;;;;1641.0
1996.0;1906.1;;;;;;;;;;;;;;;;;32.219917;5.7641835;-118.194374;;1650.6
1996.0;1906.1;;;;;;;;;;;;;;1.5991088;-0.19074069;-0.3653676;;;;;1650.6
1996.0;1906.1;;;;;;;;;;;;;;;;;29.572437;13.245033;-118.3546;;1650.6
1996.0;1906.1;;;;;;;;;;;;;;1.6048464;-0.14825892;-0.37464523;;;;;1650.6
1996.0;1906.1;;;;;;;;;;;;;;;;;21.202734;14.999847;-121.10889;;1660.3
1996.0;1906.1;;;;;;;;;;;;;;1.5678579;-0.048036136;-0.4521012;;;;;1660.3
1996.0;1906.1;;;;;;;;;;;;;;;;;13.084811;14.275033;-122.05115;;1660.3
1996.0;1906.1;;;;;;;;;;;;;;1.4957122;-0.026062807;-0.547441;;;;;1660.3
1996.0;1906.1;;;;;;;;;;;;;;;;;1.5449996;17.78466;-123.74874;;1669.9
1996.0;1906.1;;;;;;;;;;;;;;1.4040345;0.05084384;-0.5988342;;;;;1669.9
1996.0;1906.1;;;;;;;;;;;;;;;;;-10.849331;27.432323;-122.81411;;1669.9
1996.0;1906.1;;;;;;;;;;;;;;1.2940458;0.056215096;-0.54518265;;;;;1669.9
1998.0;1907.0;;;;;;;;;;;;;;;;;-17.376476;34.60799;-119.10993;;1679.6
1998.0;1907.0;;;;;;;;;;;;;;1.2306284;-0.0075685903;-0.35578477;;;;;1679.6
1998.0;1907.0;;;;;;;;;;;;;;;;;-18.417921;30.320139;-115.928375;;1679.6
1998.0;1907.0;;;;;;;;;;;;;;1.2281868;-0.06408887;-0.2733848;;;;;1679.6
1998.0;1907.0;;;;;;;;;;;;;;;;;-16.155737;29.213844;-114.89456;;1689.2
1998.0;1907.0;;;;;;;;;;;;;;1.1937621;-0.101931825;-0.21192053;;;;;1689.2
1998.0;1907.0;;;;;;;;;;;;;;;;;-12.760551;24.75814;-112.40348;;1689.2
1998.0;1907.0;;;;;;;;;;;;;;1.1890011;-0.18182927;-0.21778008;;;;;1689.2
1998.0;1907.0;;;;;;;;;;;;;;;;;-9.006775;23.003326;-110.72878;;1698.8
1998.0;1907.0;;;;;;;;;;;;;;1.121189;-0.23645741;-0.24353771;;;;;1698.8
1998.0;1907.0;;;;;;;;;;;;;;;;;-8.178961;23.255104;-108.50856;;1698.8
1998.0;1907.0;;;;;;;;;;;;;;1.0694907;-0.25482956;-0.21845149;;;;;1698.8
1998.0;1907.8;;;;;;;;;;;;;;;;;-8.949553;20.302439;-103.80489;;1708.4
1998.0;1907.8;;;;;;;;;;;;;;1.053499;-0.3128147;-0.23236793;;;;;1708.4
1998.0;1907.8;;;;;;;;;;;;;;;;;-9.243294;19.932402;-100.29908;;1708.4
1998.0;1907.8;;;;;;;;;;;;;;1.0132145;-0.36988434;-0.2313303;;;;;1708.4
1998.0;1907.8;;;;;;;;;;;;;;;;;-11.207922;21.11118;-97.987305;;1718.1
1998.0;1907.8;;;;;;;;;;;;;;0.95474106;-0.38740197;-0.20990631;;;;;1718.1
1998.0;1907.8;;;;;;;;;;;;;;;;;-13.878292;21.145512;-95.14527;;1718.1
1998.0;1907.8;;;;;;;;;;;;;;0.92141485;-0.37995544;-0.17285684;;;;;1718.1
1998.0;1907.8;;;;;;;;;;;;;;;;;-17.185736;19.077885;-91.63945;;1727.7
1998.0;1907.8;;;;;;;;;;;;;;0.8961455;-0.37995544;-0.17749566;;;;;1727.7
1998.0;1907.8;;;;;;;;;;;;;;;;;-20.645771;19.093143;-88.85845;;1727.7
1998.0;1907.8;;;;;;;;;;;;;;0.86336863;-0.39173558;-0.1561327;;;;;1727.7
2000.0;1908.2;;;;-0.3082886;0.98537076;0.46435934;;;;;;;;;;;;;;;
2000.0;1908.2;;;;-0.31140903;0.9834024;0.46635443;;;;;;;;;;;;;;;
2000.0;1908.2;;;;-0.3126755;0.9801713;0.46724325;;;;;;;;;;;;;;;
2000.0;1908.2;;;;-0.31188968;0.97563565;0.46787268;;;;;;;;;;;;;;;
2000.0;1908.2;;;;-0.3138695;0.97137463;0.46945196;;;;;;;;;;;;;;;
2000.0;1909.7;;;;;;;;;;76.28483;3.4180732;-53.922394;;;;;;;;;
2000.0;1909.7;;;;;;;0.17816706;-1.0002747;0.085024565;;;;;;;;;;;;
2000.0;1909.7;;;;;;;;;;75.81943;2.6207771;-54.98672;;;;;;;;;
2000.0;1909.7;;;;;;;0.17987609;-0.99807733;0.086123236;;;;;;;;;;;;
2000.0;1918.3;;;;-0.3117676;0.96618664;0.4700089;;;;;;;;;;;;;;;
2000.0;1918.3;;;;-0.31016544;0.9609834;0.47063833;;;;;;;;;;;;;;;
2000.0;1918.3;;;;-0.31100085;0.9562646;0.46986014;;;;;;;;;;;;;;;
2000.0;1918.3;;;;-0.31161502;0.95193493;0.4693337;;;;;;;;;;;;;;;
2000.0;1918.3;;;;-0.31271365;0.9474412;0.4701119;;;;;;;;;;;;;;;
2000.0;1919.3;;;;;;;;;;75.2739;2.1057773;-55.921352;;;;;;;;;
2000.0;1919.3;;;;;;;0.18292795;-0.99667346;0.0867336;;;;;;;;;;;;
2000.0;1919.3;;;;;;;;;;74.76653;1.7967772;-56.79876;;;;;;;;;
2000.0;1919.3;;;;;;;0.18414868;-0.9960021;0.08575701;;;;;;;;;;;;
2000.0;1921.5;262143;262143;13437;;;;;;;;;;;;;;;;;;
2000.0;1927.6;;;;;;;;;;;;;783;;;;;;;;
2000.0;1927.6;;;;;;;;;;;;;3590;;;;;;;;
2000.0;1927.6;;;;;;;;;;;;;3526;;;;;;;;
2000.0;1927.6;;;;;;;;;;;;;-4005;;;;;;;;
2000.0;1927.6;;;;;;;;;;;;;-16039;;;;;;;;
2001.0;1928.2;;;;-0.31103137;0.9413415;0.4707566;;;;;;;;;;;;;;;
2001.0;1928.2;;;;-0.3095322;0.9361459;0.47234732;;;;;;;;;;;;;;;
2001.0;1928.2;;;;-0.30657962;0.93315136;0.47279364;;;;;;;;;;;;;;;
2001.0;1928.2;;;;-0.3056412;0.9305955;0.47368628;;;;;;;;;;;;;;;
2001.0;1928.2;;;;-0.30476382;0.92906964;0.47369772;;;;;;;;;;;;;;;
2001.0;1928.7;;;;;;;;;;74.10276;1.8883327;-57.561726;;;;;;;;;
2001.0;1928.7;;;;;;;0.18634602;-0.9945982;0.08313242;;;;;;;;;;;;
2001.0;1928.7;;;;;;;;;;73.43135;2.1744437;-58.149204;;;;;;;;;
2001.0;1928.7;;;;;;;0.18964201;-0.99447614;0.08239998;;;;;;;;;;;;
2001.0;1938.1;;;;-0.30191043;0.9266969;0.47305685;;;;;;;;;;;;;;;
2001.0;1938.1;;;;-0.29838184;0.924698;0.47328573;;;;;;;;;;;;;;;
2001.0;1938.1;;;;-0.2966042;0.9247972;0.47365957;;;;;;;;;;;;;;;
2001.0;1938.1;;;;-0.2945061;0.9264909;0.47466284;;;;;;;;;;;;;;;
2001.0;1938.1;;;;-0.28911594;0.92858136;0.4750672;;;;;;;;;;;;;;;
2001.0;1938.2;;;;;;;;;;72.721794;2.8077028;-58.679466;;;;;;;;;
2001.0;1938.2;;;;;;;0.19409773;-0.9955138;0.080141604;;;;;;;;;;;;
2001.0;1938.2;;;;;;;;;;71.85201;3.6088138;-59.228798;;;;;;;;;
2001.0;1938.2;;;;;;;0.19739372;-0.9972839;0.078981906;;;;;;;;;;;;
2001.0;1941.5;262143;262143;13436;;;;;;;;;;;;;;;;;;
2001.0;1947.8;;;;;;;;;;70.84872;4.7456284;-59.675133;;;;;;;;;
2001.0;1947.8;;;;;;;0.20093387;-1.002472;0.07434309;;;;;;;;;;;;
2001.0;1947.8;;;;;;;;;;69.77294;5.989258;-59.854427;;;;;;;;;
2001.0;1947.8;;;;;;;0.20532854;-1.0065615;0.06921598;;;;;;;;;;;;
2005.0;1948.3;;;;-0.2877045;0.93153775;0.4756356;;;;;;;;;;;;;;;
2005.0;1948.3;;;;-0.289135;0.9361726;0.4761849;;;;;;;;;;;;;;;
2005.0;1948.3;;;;-0.28600314;0.94057477;0.4750939;;;;;;;;;;;;;;;
2005.0;1948.3;;;;-0.28521731;0.9449769;0.474701;;;;;;;;;;;;;;;
2005.0;1948.3;;;;-0.28685382;0.95066845;0.47547537;;;;;;;;;;;;;;;
2005.0;1957.5;;;;;;;;;;68.53313;7.316813;-59.644615;;;;;;;;;
2005.0;1957.5;;;;;;;0.20673238;-1.0150456;0.06732383;;;;;;;;;;;;
2005.0;1957.5;;;;;;;;;;67.27425;8.770256;-59.2555;;;;;;;;;
2005.0;1957.5;;;;;;;0.2115543;-1.0201117;0.06256294;;;;;;;;;;;;
2005.0;1958.4;;;;-0.28796008;0.9574853;0.4749604;;;;;;;;;;;;;;;
2005.0;1958.4;;;;-0.29041675;0.9638673;0.47557837;;;;;;;;;;;;;;;
2005.0;1958.4;;;;-0.29067615;0.9697534;0.47660834;;;;;;;;;;;;;;;
2005.0;1958.4;;;;-0.29153445;0.97539914;0.47782522;;;;;;;;;;;;;;;
2005.0;1958.4;;;;-0.29340366;0.9807359;0.4792176;;;;;;;;;;;;;;;
2005.0;1961.8;262143;262143;13432;;;;;;;;;;;;;;;;;;
2006.0;1965.0;;;;;;;;;;;;;;;;;-43.38206;-14.282662;26.284067;;1853.4
2006.0;1965.0;;;;;;;;;;;;;;0.4379406;-0.30121768;-0.33869442;;;;;1853.4
2006.0;1965.0;;;;;;;;;;;;;;;;;-22.537918;-24.880215;30.674917;;1853.4
2006.0;1965.0;;;;;;;;;;;;;;0.46113467;-0.3071383;-0.39838862;;;;;1853.4
2006.0;1965.0;;;;;;;;;;;;;;;;;-10.082552;-29.122288;35.657063;;1862.8
2006.0;1965.0;;;;;;;;;;;;;;0.48634297;-0.31745353;-0.3501694;;;;;1862.8
2006.0;1965.0;;;;;;;;;;;;;;;;;-3.0175178;-32.383953;41.230507;;1862.8
2006.0;1965.0;;;;;;;;;;;;;;0.5081332;-0.31800288;-0.28711814;;;;;1862.8
2006.0;1965.0;;;;;;;;;;;;;;;;;-0.79729605;-36.08051;46.960358;;1872.5
2006.0;1965.0;;;;;;;;;;;;;;0.55745107;-0.2976165;-0.2356029;;;;;1872.5
2006.0;1965.0;;;;;;;;;;;;;;;;;-4.737999;-34.154026;51.309242;;1872.5
2006.0;1965.0;;;;;;;;;;;;;;0.6178777;-0.25916317;-0.11578722;;;;;1872.5
2006.0;1966.2;;;;;;;;;;;;;;;;;-13.3785515;-25.334177;52.90002;;1882.2
2006.0;1966.2;;;;;;;;;;;;;;0.67793816;-0.21808527;0.044557024;;;;;1882.2
2006.0;1966.2;;;;;;;;;;;;;;;;;-23.262733;-14.568773;52.743614;;1882.2
2006.0;1966.2;;;;;;;;;;;;;;0.74257636;-0.1699881;0.1716361;;;;;1882.2
2006.0;1966.2;;;;;;;;;;;;;;;;;-32.567066;-3.38374;51.3245;;1891.8
2006.0;1966.2;;;;;;;;;;;;;;0.8090457;-0.11957152;0.23084201;;;;;1891.8
2006.0;1966.2;;;;;;;;;;;;;;;;;-42.924286;8.40785;49.23017;;1891.8
2006.0;1966.2;;;;;;;;;;;;;;0.9048738;-0.06286813;0.2595294;;;;;1891.8
2006.0;1966.2;;;;;;;;;;;;;;;;;-56.30665;19.791252;46.430096;;1901.4
2006.0;1966.2;;;;;;;;;;;;;;1.0446485;-8.5451826E-4;0.29779962;;;;;1901.4
2006.0;1966.2;;;;;;;;;;;;;;;;;-70.06668;32.486954;42.71447;;1901.4
2006.0;1966.2;;;;;;;;;;;;;;1.1555529;0.083010346;0.3820307;;;;;1901.4
2008.0;1966.9;;;;;;;;;;65.824615;10.189367;-58.88928;;;;;;;;;
2008.0;1966.9;;;;;;;0.21405682;-1.0284127;0.060914945;;;;;;;;;;;;
2008.0;1966.9;;;;;;;;;;64.36354;11.867886;-58.416245;;;;;;;;;
2008.0;1966.9;;;;;;;0.21240883;-1.0341502;0.0629902;;;;;;;;;;;;
2008.0;1967.7;;;;;;;;;;;;;-21597;;;;;;;;
2008.0;1967.7;;;;;;;;;;;;;-14119;;;;;;;;
2008.0;1967.7;;;;;;;;;;;;;-204;;;;;;;;
2008.0;1967.7;;;;;;;;;;;;;7908;;;;;;;;
2008.0;1967.7;;;;;;;;;;;;;6613;;;;;;;;
2008.0;1968.3;;;;-0.29331973;0.98583615;0.48059088;;;;;;;;;;;;;;;
2008.0;1968.3;;;;-0.2911568;0.9882127;0.48221976;;;;;;;;;;;;;;;
2008.0;1968.3;;;;-0.288662;0.9910737;0.48413092;;;;;;;;;;;;;;;
2008.0;1968.3;;;;-0.28511432;0.99338925;0.48600394;;;;;;;;;;;;;;;
2008.0;1968.3;;;;-0.28175738;0.995659;0.4892884;;;;;;;;;;;;;;;
2008.0;1976.4;;;;;;;;;;63.032166;13.439589;-57.546463;;;;;;;;;
2008.0;1976.4;;;;;;;0.20984527;-1.0433668;0.060548723;;;;;;;;;;;;
2008.0;1976.4;;;;;;;;;;61.4452;14.95407;-56.482132;;;;;;;;;
2008.0;1976.4;;;;;;;0.20801416;-1.0458694;0.06408887;;;;;;;;;;;;
2008.0;1978.2;;;;-0.2783127;0.9970361;0.49054724;;;;;;;;;;;;;;;
2008.0;1978.2;;;;-0.2744904;0.997059;0.49270636;;;;;;;;;;;;;;;
2008.0;1978.2;;;;-0.26968387;0.99536526;0.49397284;;;;;;;;;;;;;;;
2008.0;1978.2;;;;-0.2680016;0.99468243;0.49518973;;;;;;;;;;;;;;;
2008.0;1978.2;;;;-0.26533893;0.9934617;0.4963532;;;;;;;;;;;;;;;
2008.0;1981.6;262143;262143;13448;;;;;;;;;;;;;;;;;;
2058.0;1985.9;;;;;;;;;;59.919277;16.529589;-55.4445;;;;;;;;;
2058.0;1985.9;;;;;;;0.2059389;-1.0480056;0.067445904;;;;;;;;;;;;
2058.0;1985.9;;;;;;;;;;58.46202;18.33018;-54.330578;;;;;;;;;
2058.0;1985.9;;;;;;;0.20447402;-1.0501419;0.071779534;;;;;;;;;;;;
2058.0;1988.2;;;;-0.26317218;0.99188244;0.49663168;;;;;;;;;;;;;;;
2058.0;1988.2;;;;-0.26066592;0.99003994;0.4964028;;;;;;;;;;;;;;;
2058.0;1988.2;;;;-0.25971225;0.9880258;0.4965859;;;;;;;;;;;;;;;
2058.0;1988.2;;;;-0.25913242;0.98661816;0.49556738;;;;;;;;;;;;;;;
2058.0;1988.2;;;;-0.25644687;0.9847528;0.4931069;;;;;;;;;;;;;;;
2058.0;1995.2;;;;;;;;;;56.978058;19.989624;-53.06406;;;;;;;;;
2058.0;1995.2;;;;;;;0.20502335;-1.0477004;0.07519761;;;;;;;;;;;;
2058.0;1995.2;;;;;;;;;;55.631428;21.431623;-51.84332;;;;;;;;;
2058.0;1995.2;;;;;;;0.20355846;-1.047029;0.078005314;;;;;;;;;;;;
2058.0;1998.0;;;;-0.25440982;0.98254025;0.49174124;;;;;;;;;;;;;;;
2058.0;1998.0;;;;-0.2516556;0.98165905;0.49026114;;;;;;;;;;;;;;;
2058.0;1998.0;;;;-0.24849704;0.98129284;0.4876061;;;;;;;;;;;;;;;
2058.0;1998.0;;;;-0.24588016;0.98022854;0.48471457;;;;;;;;;;;;;;;
2058.0;1998.0;;;;-0.24470523;0.9810296;0.48221213;;;;;;;;;;;;;;;
2058.0;2001.5;262143;262143;13436;;;;;;;;;;;;;;;;;;
2058.0;2004.8;;;;;;;;;;54.12076;22.667622;-50.630207;;;;;;;;;
2058.0;2004.8;;;;;;;0.20239876;-1.0450759;0.08185064;;;;;;;;;;;;
2058.0;2004.8;;;;;;;;;;52.617725;23.78155;-49.501022;;;;;;;;;
2058.0;2004.8;;;;;;;0.20062868;-1.0401318;0.08331553;;;;;;;;;;;;
2065.0;2007.6;;;;;;;;;;;;;2336;;;;;;;;
2065.0;2007.6;;;;;;;;;;;;;848;;;;;;;;
2065.0;2007.6;;;;;;;;;;;;;1267;;;;;;;;
2065.0;2007.6;;;;;;;;;;;;;776;;;;;;;;
2065.0;2007.6;;;;;;;;;;;;;-59;;;;;;;;
2065.0;2008.1;;;;-0.24332431;0.9815942;0.47901922;;;;;;;;;;;;;;;
2065.0;2008.1;;;;-0.24143985;0.9812356;0.47500998;;;;;;;;;;;;;;;
2065.0;2008.1;;;;-0.24144748;0.9826776;0.4711762;;;;;;;;;;;;;;;
2065.0;2008.1;;;;-0.24212268;0.98502743;0.46751028;;;;;;;;;;;;;;;
2065.0;2008.1;;;;-0.23757938;0.9860116;0.46231085;;;;;;;;;;;;;;;
2065.0;2014.4;;;;;;;;;;51.026947;24.857325;-48.345135;;;;;;;;;
2065.0;2014.4;;;;;;;0.19714957;-1.0346385;0.083681755;;;;;;;;;;;;
2065.0;2014.4;;;;;;;;;;49.405655;25.715658;-47.00995;;;;;;;;;
2065.0;2014.4;;;;;;;0.19202246;-1.0298777;0.08563494;;;;;;;;;;;;
2065.0;2018.2;;;;-0.23539355;0.98752224;0.45716864;;;;;;;;;;;;;;;
2065.0;2018.2;;;;-0.23271182;0.9915544;0.45146567;;;;;;;;;;;;;;;
2065.0;2018.2;;;;-0.23003009;0.99535763;0.44377905;;;;;;;;;;;;;;;
2065.0;2018.2;;;;-0.22904971;0.999859;0.43417364;;;;;;;;;;;;;;;
2065.0;2018.2;;;;-0.2296677;1.0059015;0.42228705;;;;;;;;;;;;;;;
2065.0;2021.8;262143;262143;13426;;;;;;;;;;;;;;;;;;
2065.0;2024.0;;;;;;;;;;47.769096;26.238289;-45.75869;;;;;;;;;
2065.0;2024.0;;;;;;;0.1892758;-1.0214545;0.08709983;;;;;;;;;;;;
2065.0;2024.0;;;;;;;;;;46.159245;26.398512;-44.679096;;;;;;;;;
2065.0;2024.0;;;;;;;0.18378246;-1.017304;0.0872219;;;;;;;;;;;;
2067.0;2025.0;;;;;;;;;;;;;;;;;-80.64134;40.501877;39.155247;;1911.2
2067.0;2025.0;;;;;;;;;;;;;;1.2884305;0.17566454;0.37183753;;;;;1911.2
2067.0;2025.0;;;;;;;;;;;;;;;;;-84.860535;47.761467;35.176395;;1911.2
2067.0;2025.0;;;;;;;;;;;;;;1.429548;0.27777946;0.28504288;;;;;1911.2
2067.0;2025.0;;;;;;;;;;;;;;;;;-72.37083;47.593616;29.072695;;1920.8
2067.0;2025.0;;;;;;;;;;;;;;1.5255593;0.36121708;0.09479049;;;;;1920.8
2067.0;2025.0;;;;;;;;;;;;;;;;;-36.164433;34.794914;19.35255;;1920.8
2067.0;2025.0;;;;;;;;;;;;;;1.5566882;0.46162298;-0.23902097;;;;;1920.8
2067.0;2025.0;;;;;;;;;;;;;;;;;9.697257;8.148442;9.998627;;1930.4
2067.0;2025.0;;;;;;;;;;;;;;1.5739006;0.5926084;-0.6598712;;;;;1930.4
2067.0;2025.0;;;;;;;;;;;;;;;;;40.09369;-15.362254;3.8567767;;1930.4
2067.0;2025.0;;;;;;;;;;;;;;1.5668203;0.64333016;-0.99105805;;;;;1930.4
2067.0;2025.8;;;;;;;;;;;;;;;;;51.366467;-25.372326;0.39674062;;1940.1
2067.0;2025.8;;;;;;;;;;;;;;1.4398633;0.610065;-1.020722;;;;;1940.1
2067.0;2025.8;;;;;;;;;;;;;;;;;53.24717;-33.856472;-2.0867033;;1940.1
2067.0;2025.8;;;;;;;;;;;;;;1.2490616;0.5480514;-0.8737449;;;;;1940.1
2067.0;2025.8;;;;;;;;;;;;;;;;;57.702873;-44.621876;-3.1929991;;1949.8
2067.0;2025.8;;;;;;;;;;;;;;1.1023285;0.45905942;-0.7093112;;;;;1949.8
2067.0;2025.8;;;;;;;;;;;;;;;;;64.35591;-52.652058;-4.9630723;;1949.8
2067.0;2025.8;;;;;;;;;;;;;;0.97958314;0.38398388;-0.5497604;;;;;1949.8
2067.0;2025.8;;;;;;;;;;;;;;;;;68.041016;-56.318092;-5.9091463;;1959.4
2067.0;2025.8;;;;;;;;;;;;;;0.890347;0.31501207;-0.37269205;;;;;1959.4
2067.0;2025.8;;;;;;;;;;;;;;;;;69.93697;-59.236427;-6.5004425;;1959.4
2067.0;2025.8;;;;;;;;;;;;;;0.76760155;0.26142156;-0.2410352;;;;;1959.4
2068.0;2028.1;;;;-0.23150638;1.0131799;0.40911108;;;;;;;;;;;;;;;
2068.0;2028.1;;;;-0.2331734;1.022545;0.39820105;;;;;;;;;;;;;;;
2068.0;2028.1;;;;-0.23412326;1.0354844;0.39031225;;;;;;;;;;;;;;;
2068.0;2028.1;;;;-0.23438647;1.0527154;0.38580328;;;;;;;;;;;;;;;
2068.0;2028.1;;;;-0.23451617;1.0745012;0.38356787;;;;;;;;;;;;;;;
2068.0;2033.4;;;;;;;;;;44.3968;26.036104;-43.70632;;;;;;;;;
2068.0;2033.4;;;;;;;0.17767876;-1.0119938;0.08728294;;;;;;;;;;;;
2068.0;2033.4;;;;;;;;;;42.6458;25.402843;-42.76406;;;;;;;;;
2068.0;2033.4;;;;;;;0.17011017;-1.0075381;0.08868679;;;;;;;;;;;;
2068.0;2038.2;;;;-0.23502734;1.0996858;0.3831864;;;;;;;;;;;;;;;
2068.0;2038.2;;;;-0.23538211;1.1283494;0.38421637;;;;;;;;;;;;;;;
2068.0;2038.2;;;;-0.23658755;1.1593171;0.3853913;;;;;;;;;;;;;;;
2068.0;2038.2;;;;-0.23907855;1.1914674;0.38657004;;;;;;;;;;;;;;;
2068.0;2038.2;;;;-0.24117664;1.225113;0.38885504;;;;;;;;;;;;;;;
2068.0;2041.7;262143;262143;13422;;;;;;;;;;;;;;;;;;
2068.0;2042.9;;;;;;;;;;40.82995;24.353771;-41.69973;;;;;;;;;
2068.0;2042.9;;;;;;;0.16425061;-1.0005798;0.088015385;;;;;;;;;;;;
2068.0;2042.9;;;;;;;;;;38.99884;23.083437;-40.64684;;;;;;;;;
2068.0;2042.9;;;;;;;0.15692617;-0.9961852;0.089236125;;;;;;;;;;;;
2068.0;2047.8;;;;;;;;;;;;;81;;;;;;;;
2068.0;2047.8;;;;;;;;;;;;;574;;;;;;;;
2068.0;2047.8;;;;;;;;;;;;;390;;;;;;;;
2068.0;2047.8;;;;;;;;;;;;;-596;;;;;;;;
2068.0;2047.8;;;;;;;;;;;;;-1523;;;;;;;;
2118.0;2048.2;;;;-0.24218753;1.2576448;0.39074713;;;;;;;;;;;;;;;
2118.0;2048.2;;;;-0.24283603;1.2886201;0.3924294;;;;;;;;;;;;;;;
2118.0;2048.2;;;;-0.24245074;1.3170053;0.39329535;;;;;;;;;;;;;;;
2118.0;2048.2;;;;-0.2416077;1.3422624;0.39414984;;;;;;;;;;;;;;;
2118.0;2048.2;;;;-0.23982242;1.3644296;0.3957978;;;;;;;;;;;;;;;
2118.0;2052.5;;;;;;;;;;37.068546;21.50792;-39.643543;;;;;;;;;
2118.0;2052.5;;;;;;;0.15082248;-0.9887997;0.08978546;;;;;;;;;;;;
2118.0;2052.5;;;;;;;;;;35.016174;19.688253;-38.686028;;;;;;;;;
2118.0;2052.5;;;;;;;0.14209418;-0.97885066;0.09173864;;;;;;;;;;;;
2118.0;2058.1;;;;-0.23756793;1.3823587;0.3975907;;;;;;;;;;;;;;;
2118.0;2058.1;;;;-0.23566058;1.3955156;0.39910895;;;;;;;;;;;;;;;
2118.0;2058.1;;;;-0.23378375;1.4047929;0.40073782;;;;;;;;;;;;;;;
2118.0;2058.1;;;;-0.23226169;1.4101907;0.40307623;;;;;;;;;;;;;;;
2118.0;2058.1;;;;-0.2310982;1.4115297;0.40396124;;;;;;;;;;;;;;;
2118.0;2062.0;;;;;;;;;;32.971436;17.994476;-37.751396;;;;;;;;;
2118.0;2062.0;;;;;;;0.13769951;-0.9679861;0.092471085;;;;;;;;;;;;
2118.0;2062.0;;;;;;;;;;30.735954;16.232033;-36.790062;;;;;;;;;
2118.0;2062.0;;;;;;;0.13550219;-0.9589526;0.093691826;;;;;;;;;;;;
2118.0;2061.8;262143;262143;13424;;;;;;;;;;;;;;;;;;
2119.0;2068.2;;;;-0.23102573;1.4089776;0.40528494;;;;;;;;;;;;;;;
2119.0;2068.2;;;;-0.23103717;1.4031068;0.40655142;;;;;;;;;;;;;;;
2119.0;2068.2;;;;-0.23137286;1.3955194;0.4089089;;;;;;;;;;;;;;;
2119.0;2068.2;;;;-0.23221973;1.3864785;0.4103585;;;;;;;;;;;;;;;
2119.0;2068.2;;;;-0.23279193;1.3759958;0.41130072;;;;;;;;;;;;;;;
2119.0;2071.6;;;;;;;;;;28.427992;14.271218;-35.86688;;;;;;;;;
2119.0;2071.6;;;;;;;0.13318278;-0.9465011;0.09735405;;;;;;;;;;;;
2119.0;2071.6;;;;;;;;;;26.005585;12.142552;-34.810173;;;;;;;;;
2119.0;2071.6;;;;;;;0.13226722;-0.9369793;0.1010773;;;;;;;;;;;;
2119.0;2078.3;;;;-0.23336795;1.3648759;0.41170126;;;;;;;;;;;;;;;
2119.0;2078.3;;;;-0.23400119;1.3540498;0.41255575;;;;;;;;;;;;;;;
2119.0;2078.3;;;;-0.2351189;1.3434182;0.41309363;;;;;;;;;;;;;;;
2119.0;2078.3;;;;-0.23653415;1.3344346;0.41387182;;;;;;;;;;;;;;;
2119.0;2078.3;;;;-0.23767093;1.3265306;0.41343695;;;;;;;;;;;;;;;
2119.0;2081.3;;;;;;;;;;23.529772;10.097812;-33.707695;;;;;;;;;
2119.0;2081.3;;;;;;;0.12945952;-0.9252602;0.10510575;;;;;;;;;;;;
2119.0;2081.3;;;;;;;;;;21.031069;8.053072;-32.567066;;;;;;;;;
2119.0;2081.3;;;;;;;0.12768945;-0.9186071;0.11004975;;;;;;;;;;;;
2119.0;2082.1;262143;262143;13413;;;;;;;;;;;;;;;;;;
2120.0;2085.4;;;;;;;;;;;;;;;;;71.69561;-63.84854;-5.5047765;;1969.1
2120.0;2085.4;;;;;;;;;;;;;;0.67232275;0.18414868;-0.21955016;;;;;1969.1
2120.0;2085.4;;;;;;;;;;;;;;;;;72.2869;-64.83658;-1.823481;;1969.1
2120.0;2085.4;;;;;;;;;;;;;;0.56068605;0.1032136;-0.18787195;;;;;1969.1
2120.0;2085.4;;;;;;;;;;;;;;;;;65.088356;-69.75387;3.3532214;;1978.7
2120.0;2085.4;;;;;;;;;;;;;;0.53065586;0.027466659;-0.16412854;;;;;1978.7
2120.0;2085.4;;;;;;;;;;;;;;;;;38.457138;-65.69872;9.73922;;1978.7
2120.0;2085.4;;;;;;;;;;;;;;0.6521195;-0.08911405;0.039490953;;;;;1978.7
2120.0;2085.4;;;;;;;;;;;;;;;;;-5.5810723;-41.13132;16.312143;;1988.4
2120.0;2085.4;;;;;;;;;;;;;;0.93234044;-0.26520586;0.4624775;;;;;1988.4
2120.0;2085.4;;;;;;;;;;;;;;;;;-45.262764;-5.0202947;26.886808;;1988.4
2120.0;2085.4;;;;;;;;;;;;;;1.4531693;-0.6783654;1.1671499;;;;;1988.4
2120.0;2086.2;;;;;;;;;;;;;;;;;-50.389874;19.379255;42.687767;;1998.0
2120.0;2086.2;;;;;;;;;;;;;;1.9386578;-1.1186254;1.6291391;;;;;1998.0
2120.0;2086.2;;;;;;;;;;;;;;;;;-5.226295;11.017182;44.01914;;1998.0
2120.0;2086.2;;;;;;;;;;;;;;1.9971923;-1.0035096;0.98525953;;;;;1998.0
2120.0;2086.2;;;;;;;;;;;;;;;;;74.92676;-8.255258;34.61562;;2007.7
2120.0;2086.2;;;;;;;;;;;;;;1.8931853;-0.45411542;-0.29474777;;;;;2007.7
2120.0;2086.2;;;;;;;;;;;;;;;;;101.252785;-16.18244;28.271584;;2007.7
2120.0;2086.2;;;;;;;;;;;;;;1.6293222;0.106387526;-0.7660756;;;;;2007.7
2120.0;2086.2;;;;;;;;;;;;;;;;;59.160133;-15.163884;27.909176;;2017.3
2120.0;2086.2;;;;;;;;;;;;;;1.40965;0.13904233;-0.5095981;;;;;2017.3
2120.0;2086.2;;;;;;;;;;;;;;;;;31.785027;-24.010437;19.100773;;2017.3
2120.0;2086.2;;;;;;;;;;;;;;1.1843623;0.27234718;-0.34095278;;;;;2017.3
2121.0;2088.0;;;;;;;;;;;;;-1613;;;;;;;;
2121.0;2088.0;;;;;;;;;;;;;-1418;;;;;;;;
2121.0;2088.0;;;;;;;;;;;;;-2009;;;;;;;;
2121.0;2088.0;;;;;;;;;;;;;-3254;;;;;;;;
2121.0;2088.0;;;;;;;;;;;;;-4056;;;;;;;;
2121.0;2088.3;;;;-0.23961261;1.319542;0.4125138;;;;;;;;;;;;;;;
2121.0;2088.3;;;;-0.24139026;1.3137971;0.41091543;;;;;;;;;;;;;;;
2121.0;2088.3;;;;-0.2424927;1.3095323;0.40937048;;;;;;;;;;;;;;;
2121.0;2088.3;;;;-0.24322894;1.3059083;0.40753943;;;;;;;;;;;;;;;
2121.0;2088.3;;;;-0.2435303;1.3030244;0.405304;;;;;;;;;;;;;;;
2121.0;2090.7;;;;;;;;;;18.448439;5.83285;-31.266212;;;;;;;;;
2121.0;2090.7;;;;;;;0.123538926;-0.9136021;0.112979524;;;;;;;;;;;;
2121.0;2090.7;;;;;;;;;;15.663626;3.5325174;-29.774622;;;;;;;;;
2121.0;2090.7;;;;;;;0.12012085;-0.91317487;0.11365093;;;;;;;;;;;;
2121.0;2098.4;;;;-0.24431995;1.3003007;0.40235525;;;;;;;;;;;;;;;
2121.0;2098.4;;;;-0.24452594;1.297741;0.39945608;;;;;;;;;;;;;;;
2121.0;2098.4;;;;-0.24400714;1.2952348;0.39550406;;;;;;;;;;;;;;;
2121.0;2098.4;;;;-0.24280551;1.2925073;0.39226156;;;;;;;;;;;;;;;
2121.0;2098.4;;;;-0.24240878;1.2890588;0.3886643;;;;;;;;;;;;;;;
2121.0;2100.3;;;;;;;;;;12.726218;0.8049257;-28.080843;;;;;;;;;
2121.0;2100.3;;;;;;;0.117435224;-0.92141485;0.10711997;;;;;;;;;;;;
2121.0;2100.3;;;;;;;;;;9.487442;-2.1095922;-26.0094;;;;;;;;;
2121.0;2100.3;;;;;;;0.11749626;-0.93417156;0.10138249;;;;;;;;;;;;
2176.0;2100.7;;;;;;;;;;;;;;;;;29.572437;-40.143284;10.155034;;2027.0
2176.0;2100.7;;;;;;;;;;;;;;1.152623;0.35535753;-0.4234138;;;;;2027.0
2176.0;2100.7;;;;;;;;;;;;;;;;;33.200325;-37.77047;1.0795922;;2027.0
2176.0;2100.7;;;;;;;;;;;;;;1.2017579;0.48554948;-0.29816583;;;;;2027.0
2176.0;2100.7;;;;;;;;;;;;;;;;;13.752403;-16.17481;-7.6639605;;2036.6
2176.0;2100.7;;;;;;;;;;;;;;1.1919309;0.5312662;-0.007873775;;;;;2036.6
2176.0;2100.7;;;;;;;;;;;;;;;;;-17.342142;2.8496659;-14.889218;;2036.6
2176.0;2100.7;;;;;;;;;;;;;;1.0965911;0.44489884;0.1650441;;;;;2036.6
2176.0;2100.7;;;;;;;;;;;;;;;;;-27.512436;5.2491837;-17.567217;;2046.3
2176.0;2100.7;;;;;;;;;;;;;;1.0743736;0.34095278;0.011169774;;;;;2046.3
2176.0;2100.7;;;;;;;;;;;;;;;;;-23.808252;5.489517;-16.029848;;2046.3
2176.0;2100.7;;;;;;;;;;;;;;1.0104069;0.173101;-0.20355846;;;;;2046.3
2176.0;2101.9;262143;262143;13415;;;;;;;;;;;;;;;;;;
2176.0;2108.3;;;;-0.241581;1.2848436;0.38496023;;;;;;;;;;;;;;;
2176.0;2108.3;;;;-0.24118426;1.2802659;0.38149267;;;;;;;;;;;;;;;
2176.0;2108.3;;;;-0.24076083;1.2751809;0.37800986;;;;;;;;;;;;;;;
2176.0;2108.3;;;;-0.24123767;1.2692529;0.37396625;;;;;;;;;;;;;;;
2176.0;2108.3;;;;-0.2415581;1.262932;0.36998752;;;;;;;;;;;;;;;
2176.0;2109.7;;;;;;;;;;6.2295904;-4.6731467;-23.86166;;;;;;;;;
2176.0;2109.7;;;;;;;0.12121952;-0.95651114;0.09863582;;;;;;;;;;;;
2176.0;2109.7;;;;;;;;;;3.2197027;-6.8742943;-21.469772;;;;;;;;;
2176.0;2109.7;;;;;;;0.12280648;-0.97598195;0.099612415;;;;;;;;;;;;
2177.0;2118.2;;;;-0.24221805;1.2558595;0.36536792;;;;;;;;;;;;;;;
2177.0;2118.2;;;;-0.24237064;1.2488519;0.36122897;;;;;;;;;;;;;;;
2177.0;2118.2;;;;-0.24219516;1.2417413;0.35743335;;;;;;;;;;;;;;;
2177.0;2118.2;;;;-0.24154285;1.2340852;0.35317233;;;;;;;;;;;;;;;
2177.0;2118.2;;;;-0.24001697;1.2265435;0.34817508;;;;;;;;;;;;;;;
2177.0;2119.2;;;;;;;;;;0.10681479;-8.922849;-18.768885;;;;;;;;;
2177.0;2119.2;;;;;;;0.125309;-0.9831843;0.10425123;;;;;;;;;;;;
2177.0;2119.2;;;;;;;;;;-2.8992584;-10.921812;-15.621662;;;;;;;;;
2177.0;2119.2;;;;;;;0.12549211;-0.9816584;0.10644856;;;;;;;;;;;;
2177.0;2122.0;262143;262143;13398;;;;;;;;;;;;;;;;;;
2177.0;2128.1;;;;;;;;;;;;;-3981;;;;;;;;
2177.0;2128.1;;;;;;;;;;;;;-3812;;;;;;;;
2177.0;2128.1;;;;;;;;;;;;;-4309;;;;;;;;
2177.0;2128.1;;;;;;;;;;;;;-5081;;;;;;;;
2177.0;2128.1;;;;;;;;;;;;;-5310;;;;;;;;
2177.0;2128.3;;;;-0.23953632;1.21904;0.34334567;;;;;;;;;;;;;;;
2177.0;2128.3;;;;-0.23877338;1.2109071;0.3375397;;;;;;;;;;;;;;;
2177.0;2128.3;;;;-0.23589328;1.2032892;0.33295062;;;;;;;;;;;;;;;
2177.0;2128.3;;;;-0.23471072;1.1959306;0.32809833;;;;;;;;;;;;;;;
2177.0;2128.3;;;;-0.23352435;1.1877023;0.322876;;;;;;;;;;;;;;;
2177.0;2128.8;;;;;;;;;;-6.2181463;-12.722404;-12.295145;;;;;;;;;
2177.0;2128.8;;;;;;;0.12152471;-0.9666433;0.11566515;;;;;;;;;;;;
2177.0;2128.8;;;;;;;;;;-9.32722;-14.43907;-8.823664;;;;;;;;;
2177.0;2128.8;;;;;;;0.11633656;-0.94515824;0.12305063;;;;;;;;;;;;
2179.0;2138.4;;;;-0.23256305;1.1799966;0.31806186;;;;;;;;;;;;;;;
2179.0;2138.4;;;;-0.23152545;1.1725007;0.31177905;;;;;;;;;;;;;;;
2179.0;2138.4;;;;-0.23107532;1.1645776;0.30569842;;;;;;;;;;;;;;;
2179.0;2138.4;;;;-0.230629;1.1570207;0.30054477;;;;;;;;;;;;;;;
2179.0;2138.4;;;;-0.23108676;1.1501352;0.2949448;;;;;;;;;;;;;;;
2179.0;2138.4;;;;;;;;;;-12.451551;-16.170996;-5.0851464;;;;;;;;;
2179.0;2138.4;;;;;;;0.11523789;-0.92159796;0.130253;;;;;;;;;;;;
2179.0;2138.4;;;;;;;;;;-15.671255;-18.196661;-1.6479995;;;;;;;;;
2179.0;2138.4;;;;;;;0.112735376;-0.898587;0.13855404;;;;;;;;;;;;
2179.0;2142.3;262143;262143;13401;;;;;;;;;;;;;;;;;;
2179.0;2148.1;;;;;;;;;;-18.868069;-20.397808;1.5144811;;;;;;;;;
2179.0;2148.1;;;;;;;0.1098056;-0.8795434;0.14557329;;;;;;;;;;;;
2179.0;2148.1;;;;;;;;;;-22.217474;-22.568438;4.5739617;;;;;;;;;
2179.0;2148.1;;;;;;;0.111087374;-0.8687399;0.15338603;;;;;;;;;;;;
2179.0;2148.5;;;;-0.23073962;1.1432573;0.2900696;;;;;;;;;;;;;;;
2179.0;2148.5;;;;-0.23057178;1.1370546;0.28536227;;;;;;;;;;;;;;;
2179.0;2148.5;;;;-0.23181537;1.1319009;0.28082278;;;;;;;;;;;;;;;
2179.0;2148.5;;;;-0.23378375;1.1288835;0.27634814;;;;;;;;;;;;;;;
2179.0;2148.5;;;;-0.23321536;1.1259843;0.27170566;;;;;;;;;;;;;;;
2180.0;2153.1;;;;;;;;;;;;;;;;;-21.33244;9.750664;-9.659109;;2056.0
2180.0;2153.1;;;;;;;;;;;;;;0.9042024;-0.0733665;-0.1887875;;;;;2056.0
2180.0;2153.1;;;;;;;;;;;;;;;;;-23.590809;15.125736;1.0719626;;2056.0
2180.0;2153.1;;;;;;;;;;;;;;0.8006836;-0.33576465;-0.070986055;;;;;2056.0
2180.0;2153.1;;;;;;;;;;;;;;;;;-24.086735;16.384624;13.676107;;2065.5
2180.0;2153.1;;;;;;;;;;;;;;0.6993011;-0.5841853;0.014709922;;;;;2065.5
2180.0;2153.1;;;;;;;;;;;;;;;;;-17.002625;10.395368;25.788141;;2065.5
2180.0;2153.1;;;;;;;;;;;;;;0.64784694;-0.76345104;0.049195837;;;;;2065.5
2180.0;2153.1;;;;;;;;;;;;;;;;;-7.2023683;1.8616291;35.786766;;2075.2
2180.0;2153.1;;;;;;;;;;;;;;0.631489;-0.8235115;-0.0043946654;;;;;2075.2
2180.0;2153.1;;;;;;;;;;;;;;;;;2.006592;-7.213813;43.21421;;2075.2
2180.0;2153.1;;;;;;;;;;;;;;0.60945463;-0.7827998;-0.15826899;;;;;2075.2
2180.0;2157.6;;;;;;;;;;-25.482956;-24.536882;7.560961;;;;;;;;;
2180.0;2157.6;;;;;;;0.115421005;-0.85964537;0.16199225;;;;;;;;;;;;
2180.0;2157.6;;;;;;;;;;-28.721733;-26.253548;10.574664;;;;;;;;;
2180.0;2157.6;;;;;;;0.118533894;-0.85531175;0.16742454;;;;;;;;;;;;
2180.0;2158.5;;;;-0.23516849;1.1246301;0.2679558;;;;;;;;;;;;;;;
2180.0;2158.5;;;;-0.23625568;1.12529;0.26342013;;;;;;;;;;;;;;;
2180.0;2158.5;;;;-0.23711398;1.1260301;0.259697;;;;;;;;;;;;;;;
2180.0;2158.5;;;;-0.23697665;1.1285173;0.25589755;;;;;;;;;;;;;;;
2180.0;2158.5;;;;-0.23723987;1.1323892;0.25244907;;;;;;;;;;;;;;;
2183.0;2160.6;;;;;;;;;;;;;;;;;12.646107;-14.778588;46.658985;;2084.9
2183.0;2160.6;;;;;;;;;;;;;;0.57887506;-0.6378369;-0.27356791;;;;;2084.9
2183.0;2160.6;;;;;;;;;;;;;;;;;21.488846;-25.116734;47.71569;;2084.9
2183.0;2160.6;;;;;;;;;;;;;;0.61543626;-0.48500016;-0.3881344;;;;;2084.9
2183.0;2160.6;;;;;;;;;;;;;;;;;23.953215;-32.757805;47.22358;;2094.5
2183.0;2160.6;;;;;;;;;;;;;;0.70424515;-0.35560167;-0.44563127;;;;;2094.5
2183.0;2160.6;;;;;;;;;;;;;;;;;19.07407;-34.821617;46.124912;;2094.5
2183.0;2160.6;;;;;;;;;;;;;;0.8222297;-0.24030274;-0.38557085;;;;;2094.5
2183.0;2160.6;;;;;;;;;;;;;;;;;10.303812;-31.888027;45.175022;;2104.1
2183.0;2160.6;;;;;;;;;;;;;;0.9548021;-0.17896055;-0.2400586;;;;;2104.1
2183.0;2160.6;;;;;;;;;;;;;;;;;5.272073;-26.093327;43.343914;;2104.1
2183.0;2160.6;;;;;;;;;;;;;;1.053499;-0.15332499;-0.093813896;;;;;2104.1
2183.0;2162.2;262143;262143;13404;;;;;;;;;;;;;;;;;;
2183.0;2167.0;;;;;;;;;;-32.044437;-27.83288;13.6379595;;;;;;;;;
2183.0;2167.0;;;;;;;0.12280648;-0.85152745;0.17432173;;;;;;;;;;;;
2183.0;2167.0;;;;;;;;;;-35.317543;-29.28251;16.842403;;;;;;;;;
2183.0;2167.0;;;;;;;0.1267739;-0.8462172;0.17737357;;;;;;;;;;;;
2183.0;2168.2;;;;;;;;;;;;;-4716;;;;;;;;
2183.0;2168.2;;;;;;;;;;;;;-3677;;;;;;;;
2183.0;2168.2;;;;;;;;;;;;;-2562;;;;;;;;
2183.0;2168.2;;;;;;;;;;;;;-1442;;;;;;;;
2183.0;2168.2;;;;;;;;;;;;;-591;;;;;;;;
2237.0;2168.4;;;;-0.23770526;1.1371347;0.24883655;;;;;;;;;;;;;;;
2237.0;2168.4;;;;-0.23705676;1.1427652;0.24609378;;;;;;;;;;;;;;;
2237.0;2168.4;;;;-0.2372742;1.1494561;0.24362567;;;;;;;;;;;;;;;
2237.0;2168.4;;;;-0.23649982;1.1564065;0.24070743;;;;;;;;;;;;;;;
2237.0;2168.4;;;;-0.23542789;1.1639405;0.23778155;;;;;;;;;;;;;;;
2237.0;2176.0;;;;;;;;;;-38.48384;-30.3621;19.997253;;;;;;;;;
2237.0;2176.0;;;;;;;0.13183996;-0.842555;0.18445387;;;;;;;;;;;;
2237.0;2176.0;;;;;;;;;;-41.547134;-31.144138;23.098696;;;;;;;;;
2237.0;2176.0;;;;;;;0.13556322;-0.8372448;0.19214454;;;;;;;;;;;;
2237.0;2177.9;;;;-0.23373798;1.1722642;0.23564532;;;;;;;;;;;;;;;
2237.0;2177.9;;;;-0.23279193;1.1811258;0.23329929;;;;;;;;;;;;;;;
2237.0;2177.9;;;;-0.23118976;1.1900026;0.23038104;;;;;;;;;;;;;;;
2237.0;2177.9;;;;-0.22903827;1.1988527;0.22755435;;;;;;;;;;;;;;;
2237.0;2177.9;;;;-0.2286568;1.2072793;0.22552112;;;;;;;;;;;;;;;
2237.0;2181.9;262143;262143;13398;;;;;;;;;;;;;;;;;;
2237.0;2185.6;;;;;;;;;;-44.511246;-31.712547;26.062807;;;;;;;;;
2237.0;2185.6;;;;;;;0.14007996;-0.8291269;0.1976989;;;;;;;;;;;;
2237.0;2185.6;;;;;;;;;;-47.42958;-31.945251;28.98114;;;;;;;;;
2237.0;2185.6;;;;;;;0.14654988;-0.817774;0.2029481;;;;;;;;;;;;
2238.0;2188.0;;;;-0.23005298;1.2198488;0.22218326;;;;;;;;;;;;;;;
2238.0;2188.0;;;;-0.23050311;1.2314073;0.21996692;;;;;;;;;;;;;;;
2238.0;2188.0;;;;-0.23035815;1.242611;0.21786502;;;;;;;;;;;;;;;
2238.0;2188.0;;;;-0.23004153;1.2539331;0.21593097;;;;;;;;;;;;;;;
2238.0;2188.0;;;;-0.23059085;1.2672807;0.21496204;;;;;;;;;;;;;;;
2238.0;2195.3;;;;;;;;;;-50.286873;-31.788841;31.788841;;;;;;;;;
2238.0;2195.3;;;;;;;0.15192114;-0.80648214;0.21045564;;;;;;;;;;;;
2238.0;2195.3;;;;;;;;;;-53.052616;-31.243324;34.48973;;;;;;;;;
2238.0;2195.3;;;;;;;0.15875728;-0.79628897;0.21881771;;;;;;;;;;;;
2238.0;2198.1;;;;-0.2308617;1.2816545;0.2144356;;;;;;;;;;;;;;;
2238.0;2198.1;;;;-0.22927478;1.2966081;0.2136536;;;;;;;;;;;;;;;
2238.0;2198.1;;;;-0.22940066;1.3126222;0.21296313;;;;;;;;;;;;;;;
2238.0;2198.1;;;;-0.23002246;1.3277742;0.21239093;;;;;;;;;;;;;;;
2238.0;2198.1;;;;-0.23005679;1.3434335;0.21136859;;;;;;;;;;;;;;;
2238.0;2202.2;262143;262143;13406;;;;;;;;;;;;;;;;;;
2238.0;2204.9;;;;;;;;;;-55.536057;-30.293434;37.022766;;;;;;;;;
2238.0;2204.9;;;;;;;0.16272469;-0.7840205;0.22632527;;;;;;;;;;;;
2238.0;2204.9;;;;;;;;;;-58.046207;-29.0994;39.212467;;;;;;;;;
2238.0;2204.9;;;;;;;0.16791284;-0.7725456;0.23456526;;;;;;;;;;;;
2239.0;2205.4;;;;;;;;;;;;;;;;;7.316813;-23.892178;41.444138;;2113.7
2239.0;2205.4;;;;;;;;;;;;;;1.1061739;-0.1246376;-0.05224769;;;;;2113.7
2239.0;2205.4;;;;;;;;;;;;;;;;;10.307627;-25.200659;40.3531;;2113.7
2239.0;2205.4;;;;;;;;;;;;;;1.1324809;-0.08545183;-0.12329478;;;;;2113.7
2239.0;2205.4;;;;;;;;;;;;;;;;;9.73159;-25.452436;40.593433;;2123.4
2239.0;2205.4;;;;;;;;;;;;;;1.1628773;-0.047853023;-0.19556262;;;;;2123.4
2239.0;2205.4;;;;;;;;;;;;;;;;;3.8758507;-20.58092;41.592915;;2123.4
2239.0;2205.4;;;;;;;;;;;;;;1.1981567;-0.019165624;-0.17078158;;;;;2123.4
2239.0;2205.4;;;;;;;;;;;;;;;;;-5.1690726;-13.153478;43.01584;;2133.0
2239.0;2205.4;;;;;;;;;;;;;;1.1883297;-0.018738365;-0.13666189;;;;;2133.0
2239.0;2205.4;;;;;;;;;;;;;;;;;-11.581775;-5.939665;43.652916;;2133.0
2239.0;2205.4;;;;;;;;;;;;;;1.1628163;-0.036133915;-0.10852382;;;;;2133.0
2239.0;2208.1;;;;;;;;;;;;;-442;;;;;;;;
2239.0;2208.1;;;;;;;;;;;;;-873;;;;;;;;
2239.0;2208.1;;;;;;;;;;;;;-1205;;;;;;;;
2239.0;2208.1;;;;;;;;;;;;;-1120;;;;;;;;
2239.0;2208.1;;;;;;;;;;;;;-885;;;;;;;;
2239.0;2208.1;;;;-0.23114398;1.3588868;0.21042255;;;;;;;;;;;;;;;
2239.0;2208.1;;;;-0.23070148;1.3737336;0.20830157;;;;;;;;;;;;;;;
2239.0;2208.1;;;;-0.22916797;1.3882371;0.20499423;;;;;;;;;;;;;;;
2239.0;2208.1;;;;-0.22896579;1.4007341;0.20201495;;;;;;;;;;;;;;;
2239.0;2208.1;;;;-0.2272797;1.4135743;0.19818118;;;;;;;;;;;;;;;
2239.0;2214.4;;;;;;;;;;-60.32746;-27.600176;41.329693;;;;;;;;;
2239.0;2214.4;;;;;;;0.16736351;-0.76021606;0.24445327;;;;;;;;;;;;
2239.0;2214.4;;;;;;;;;;-62.40272;-25.57451;43.210396;;;;;;;;;
2239.0;2214.4;;;;;;;0.16479996;-0.7475204;0.2557451;;;;;;;;;;;;
2241.0;2218.2;;;;-0.22588733;1.4234239;0.19367984;;;;;;;;;;;;;;;
2241.0;2218.2;;;;-0.22432712;1.4319574;0.18934634;;;;;;;;;;;;;;;
2241.0;2218.2;;;;-0.22212985;1.4391633;0.18427278;;;;;;;;;;;;;;;
2241.0;2218.2;;;;-0.21961597;1.443432;0.17972566;;;;;;;;;;;;;;;
2241.0;2218.2;;;;-0.21654132;1.446499;0.17430116;;;;;;;;;;;;;;;
2241.0;2220.8;;;;;;;;;;;;;;;;;-13.027589;-2.8344066;44.087803;;2142.7
2241.0;2220.8;;;;;;;;;;;;;;1.1402936;-0.059327982;-0.13928647;;;;;2142.7
2241.0;2220.8;;;;;;;;;;;;;;;;;-13.046663;-0.5378887;44.434948;;2142.7
2241.0;2220.8;;;;;;;;;;;;;;1.1101413;-0.08563494;-0.16595966;;;;;2142.7
2241.0;2220.8;;;;;;;;;;;;;;;;;-13.328959;1.842555;44.46165;;2152.3
2241.0;2220.8;;;;;;;;;;;;;;1.0591754;-0.1267739;-0.15906247;;;;;2152.3
2241.0;2220.8;;;;;;;;;;;;;;;;;-14.213996;3.7194436;44.21369;;2152.3
2241.0;2220.8;;;;;;;;;;;;;;1.0213934;-0.17554247;-0.13666189;;;;;2152.3
2241.0;2220.8;;;;;;;;;;;;;;;;;-13.592181;4.234443;44.05347;;2162.0
2241.0;2220.8;;;;;;;;;;;;;;0.9985656;-0.20813623;-0.12573627;;;;;2162.0
2241.0;2220.8;;;;;;;;;;;;;;;;;-10.6814785;3.7499619;43.851284;;2162.0
2241.0;2220.8;;;;;;;;;;;;;;0.96859646;-0.23645741;-0.1264687;;;;;2162.0
2241.0;2222.1;262143;262143;13405;;;;;;;;;;;;;;;;;;
2241.0;2223.8;;;;;;;;;;-64.15754;-23.091066;44.770653;;;;;;;;;
2241.0;2223.8;;;;;;;0.16449477;-0.7340312;0.26819667;;;;;;;;;;;;
2241.0;2223.8;;;;;;;;;;-65.99628;-20.672476;45.888393;;;;;;;;;
2241.0;2223.8;;;;;;;0.16364025;-0.7202979;0.27808467;;;;;;;;;;;;
2300.0;2228.1;;;;-0.21395496;1.4476663;0.16819383;;;;;;;;;;;;;;;
2300.0;2228.1;;;;-0.21020511;1.4464074;0.16201784;;;;;;;;;;;;;;;
2300.0;2228.1;;;;-0.20595935;1.442711;0.15544511;;;;;;;;;;;;;;;
2300.0;2228.1;;;;-0.2024155;1.4372712;0.14951326;;;;;;;;;;;;;;;
2300.0;2228.1;;;;-0.19829181;1.4303132;0.14575578;;;;;;;;;;;;;;;
2300.0;2233.3;;;;;;;;;;-67.53365;-18.147068;46.64754;;;;;;;;;
2300.0;2233.3;;;;;;;0.16016114;-0.7065035;0.29059726;;;;;;;;;;;;
2300.0;2233.3;;;;;;;;;;-68.849754;-15.549181;46.998505;;;;;;;;;
2300.0;2233.3;;;;;;;0.15808588;-0.6931974;0.30396435;;;;;;;;;;;;
2300.0;2238.0;;;;-0.19363406;1.422638;0.14351274;;;;;;;;;;;;;;;
2300.0;2238.0;;;;-0.18753818;1.4144822;0.14077379;;;;;;;;;;;;;;;
2300.0;2238.0;;;;-0.18390276;1.4050637;0.1363907;;;;;;;;;;;;;;;
2300.0;2238.0;;;;-0.18052675;1.3940126;0.13149644;;;;;;;;;;;;;;;
2300.0;2238.0;;;;-0.18046571;1.3813173;0.12524797;;;;;;;;;;;;;;;
2300.0;2242.2;262143;262143;13395;;;;;;;;;;;;;;;;;;
2300.0;2242.8;;;;;;;;;;-69.929344;-12.993256;47.006134;;;;;;;;;
2300.0;2242.8;;;;;;;0.15448469;-0.68282115;0.31238747;;;;;;;;;;;;
2300.0;2242.8;;;;;;;;;;-71.10431;-10.662404;46.75817;;;;;;;;;
2300.0;2242.8;;;;;;;0.14923552;-0.6767174;0.3208106;;;;;;;;;;;;
2301.0;2248.1;;;;-0.18008043;1.3690492;0.11827852;;;;;;;;;;;;;;;
2301.0;2248.1;;;;-0.17910387;1.3556825;0.111949936;;;;;;;;;;;;;;;
2301.0;2248.1;;;;-0.17804338;1.3423845;0.10725023;;;;;;;;;;;;;;;
2301.0;2248.1;;;;-0.17824174;1.3303033;0.101886764;;;;;;;;;;;;;;;
2301.0;2248.1;;;;-0.17674638;1.3190423;0.096828476;;;;;;;;;;;;;;;
2301.0;2248.2;;;;;;;;;;;;;-694;;;;;;;;
2301.0;2248.2;;;;;;;;;;;;;-443;;;;;;;;
2301.0;2248.2;;;;;;;;;;;;;-137;;;;;;;;
2301.0;2248.2;;;;;;;;;;;;;67;;;;;;;;
2301.0;2248.2;;;;;;;;;;;;;-117;;;;;;;;
2301.0;2252.5;;;;;;;;;;-72.17246;-8.136998;46.27369;;;;;;;;;
2301.0;2252.5;;;;;;;0.14850307;-0.67812127;0.32654804;;;;;;;;;;;;
2301.0;2252.5;;;;;;;;;;-73.141426;-5.0393686;45.724358;;;;;;;;;
2301.0;2252.5;;;;;;;0.14923552;-0.6821497;0.33161414;;;;;;;;;;;;
2301.0;2258.3;;;;-0.17517854;1.3064233;0.09211732;;;;;;;;;;;;;;;
2301.0;2258.3;;;;-0.17366411;1.2941362;0.08782197;;;;;;;;;;;;;;;
2301.0;2258.3;;;;-0.17215349;1.2814256;0.08431626;;;;;;;;;;;;;;;
2301.0;2258.3;;;;-0.17006303;1.2692987;0.08047486;;;;;;;;;;;;;;;
2301.0;2258.3;;;;-0.16529848;1.2565957;0.07651139;;;;;;;;;;;;;;;
2301.0;2262.1;;;;;;;;;;-74.11039;-1.5717032;45.14069;;;;;;;;;
2301.0;2262.1;;;;;;;0.15369122;-0.6900845;0.33411664;;;;;;;;;;;;
2301.0;2262.1;;;;;;;;;;-74.957275;1.7471846;44.774467;;;;;;;;;
2301.0;2262.1;;;;;;;0.15704826;-0.69771415;0.33576465;;;;;;;;;;;;
2301.0;2262.5;262143;262143;13393;;;;;;;;;;;;;;;;;;
2303.0;2265.6;;;;;;;;;;;;;;;;;-6.1380353;2.2621846;43.416397;;2171.6
2303.0;2265.6;;;;;;;;;;;;;;0.94998014;-0.2494583;-0.14355907;;;;;2171.6
2303.0;2265.6;;;;;;;;;;;;;;;;;-0.7820368;1.4381847;42.752617;;2171.6
2303.0;2265.6;;;;;;;;;;;;;;0.92684716;-0.23480941;-0.17218544;;;;;2171.6
2303.0;2265.6;;;;;;;;;;;;;;;;;3.6584065;1.209296;42.039246;;2181.3
2303.0;2265.6;;;;;;;;;;;;;;0.8997467;-0.20435195;-0.20014039;;;;;2181.3
2303.0;2265.6;;;;;;;;;;;;;;;;;6.4012575;1.6441847;41.310616;;2181.3
2303.0;2265.6;;;;;;;;;;;;;;0.87203586;-0.17291787;-0.21033357;;;;;2181.3
2303.0;2265.6;;;;;;;;;;;;;;;;;7.423628;2.906888;40.200504;;2191.0
2303.0;2265.6;;;;;;;;;;;;;;0.8561052;-0.13318278;-0.20136112;;;;;2191.0
2303.0;2265.6;;;;;;;;;;;;;;;;;8.087405;3.8567767;38.754692;;2191.0
2303.0;2265.6;;;;;;;;;;;;;;0.82778406;-0.09277627;-0.19647816;;;;;2191.0
2303.0;2268.3;;;;-0.16638567;1.2455407;0.07254029;;;;;;;;;;;;;;;
2303.0;2268.3;;;;-0.16690065;1.2351304;0.06821061;;;;;;;;;;;;;;;
2303.0;2268.3;;;;-0.16689683;1.2243615;0.06451798;;;;;;;;;;;;;;;
2303.0;2268.3;;;;-0.16687013;1.2133294;0.060363777;;;;;;;;;;;;;;;
2303.0;2268.3;;;;-0.1681328;1.2030298;0.056789406;;;;;;;;;;;;;;;
2303.0;2271.6;;;;;;;;;;-75.75457;4.486221;44.64095;;;;;;;;;
2303.0;2271.6;;;;;;;0.15655996;-0.7104099;0.3364971;;;;;;;;;;;;
2303.0;2271.6;;;;;;;;;;-76.52135;6.828517;44.831688;;;;;;;;;
2303.0;2271.6;;;;;;;0.1530198;-0.7224952;0.33625293;;;;;;;;;;;;
2304.0;2273.1;;;;;;;;;;;;;;;;;7.438887;3.9597769;36.912136;;2200.7
2304.0;2273.1;;;;;;;;;;;;;;0.8008667;-0.06817835;-0.22107609;;;;;2200.7
2304.0;2273.1;;;;;;;;;;;;;;;;;4.9668875;3.032777;35.264137;;2200.7
2304.0;2273.1;;;;;;;;;;;;;;0.80001223;-0.070192575;-0.24591815;;;;;2200.7
2304.0;2273.1;;;;;;;;;;;;;;;;;1.9608142;2.6512957;33.92132;;2210.4
2304.0;2273.1;;;;;;;;;;;;;;0.81752986;-0.057008576;-0.2624592;;;;;2210.4
2304.0;2273.1;;;;;;;;;;;;;;;;;0.25940734;3.7423322;32.63573;;2210.4
2304.0;2273.1;;;;;;;;;;;;;;0.8346202;-0.053773616;-0.2478103;;;;;2210.4
2304.0;2273.1;;;;;;;;;;;;;;;;;1.3237404;3.0213325;31.21662;;2220.1
2304.0;2273.1;;;;;;;;;;;;;;0.8300424;-0.052308727;-0.24866481;;;;;2220.1
2304.0;2273.1;;;;;;;;;;;;;;;;;3.0899992;0.11444441;30.20188;;2220.1
2304.0;2273.1;;;;;;;;;;;;;;0.84340954;-0.05597095;-0.2620319;;;;;2220.1
2304.0;2278.2;;;;-0.16900636;1.1930276;0.053363807;;;;;;;;;;;;;;;
2304.0;2278.2;;;;-0.16962816;1.1842614;0.050838478;;;;;;;;;;;;;;;
2304.0;2278.2;;;;-0.17099382;1.1767312;0.047489174;;;;;;;;;;;;;;;
2304.0;2278.2;;;;-0.17187501;1.1694566;0.04541016;;;;;;;;;;;;;;;
2304.0;2278.2;;;;-0.17251588;1.1621324;0.04328919;;;;;;;;;;;;;;;
2304.0;2281.0;;;;;;;;;;-77.06687;9.022035;45.30854;;;;;;;;;
2304.0;2281.0;;;;;;;0.14563432;-0.73641163;0.33362836;;;;;;;;;;;;
2304.0;2281.0;;;;;;;;;;-77.730644;11.020997;45.93417;;;;;;;;;
2304.0;2281.0;;;;;;;0.1398358;-0.7513657;0.33149204;;;;;;;;;;;;
2304.0;2282.4;262143;262143;13391;;;;;;;;;;;;;;;;;;
2355.0;2288.2;;;;-0.17390062;1.1551515;0.0412941;;;;;;;;;;;;;;;
2355.0;2288.2;;;;-0.1738968;1.14843;0.039600376;;;;;;;;;;;;;;;
2355.0;2288.2;;;;-0.17301561;1.1419793;0.037765507;;;;;;;;;;;;;;;
2355.0;2288.2;;;;-0.17205049;1.1358835;0.03654099;;;;;;;;;;;;;;;
2355.0;2288.2;;;;-0.17129518;1.1300088;0.03462601;;;;;;;;;;;;;;;
2355.0;2288.3;;;;;;;;;;;;;-534;;;;;;;;
2355.0;2288.3;;;;;;;;;;;;;-595;;;;;;;;
2355.0;2288.3;;;;;;;;;;;;;-368;;;;;;;;
2355.0;2288.3;;;;;;;;;;;;;-308;;;;;;;;
2355.0;2288.3;;;;;;;;;;;;;-423;;;;;;;;
2355.0;2290.4;;;;;;;;;;-78.409676;12.882626;46.55217;;;;;;;;;
2355.0;2290.4;;;;;;;0.13769951;-0.7693716;0.328135;;;;;;;;;;;;
2355.0;2290.4;;;;;;;;;;-79.00479;14.744255;47.185432;;;;;;;;;
2355.0;2290.4;;;;;;;0.13361004;-0.79366434;0.32471696;;;;;;;;;;;;
2355.0;2297.8;;;;-0.16961671;1.1232377;0.033206943;;;;;;;;;;;;;;;
2355.0;2297.8;;;;-0.16645814;1.117138;0.032421116;;;;;;;;;;;;;;;
