patientId;holterMac;flexMac;;;;;;;;;;;;;;;;;;;;
;CA:F3:0B:1E:33:78;D3:4A:5C:52:80:78;;;;;;;;;;;;;;;;;;;;
receivedTimeStamp;timeStamp;red;ir;green;adxl_accX;adxl_accY;adxl_accZ;lsm_accelX;lsm_accelY;lsm_accelZ;lsm_gyroX;lsm_gyroY;lsm_gyroZ;ecg;flex_lsm_accelX;flex_lsm_accelY;flex_lsm_accelZ;flex_lsm_gyroX;flex_lsm_gyroY;flex_lsm_gyroZ;flex_cmd;flexTimeStamp
313.0;213.7;;;;;;;;;;;;;;;;;;;;17;0.1
313.0;213.7;;;;;;;;;;;;;;;;;13.843959;0.29374066;1.0185553;;127.7
313.0;213.7;;;;;;;;;;;;;;-0.911771;-0.08783227;-0.45356607;;;;;127.7
313.0;213.7;;;;;;;;;;;;;;;;;-5.794702;-16.678366;-6.195257;;127.7
313.0;213.7;;;;;;;;;;;;;;-0.9610889;-0.09302042;-0.4544206;;;;;127.7
313.0;213.7;;;;;;;;;;;;;;;;;-65.088356;-84.196754;-58.000427;;137.3
313.0;213.7;;;;;;;;;;;;;;-0.97683644;-0.07458724;-0.4262215;;;;;137.3
313.0;213.7;;;;;;;;;;;;;;;;;-122.459335;-124.988556;-117.82434;;137.3
313.0;213.7;;;;;;;;;;;;;;-0.97091585;-0.05597095;-0.40357676;;;;;137.3
377.0;214.6;;;;;;;;;;;;;;;;;-66.25187;-124.62996;-63.97824;;147.0
377.0;214.6;;;;;;;;;;;;;;-0.95956296;-0.026978362;-0.38013855;;;;;147.0
377.0;214.6;;;;;;;;;;;;;;;;;-14.805292;-124.176;2.5368512;;147.0
377.0;214.6;;;;;;;;;;;;;;-0.9589526;-0.010620441;-0.3416242;;;;;147.0
377.0;214.6;;;;;;;;;;;;;;;;;-31.048769;-94.51582;16.659292;;156.7
377.0;214.6;;;;;;;;;;;;;;-0.94119084;0.010071108;-0.30628377;;;;;156.7
377.0;214.6;;;;;;;;;;;;;;;;;-48.417618;-3.2044435;41.97058;;156.7
377.0;214.6;;;;;;;;;;;;;;-0.91219825;0.019837031;-0.28797266;;;;;156.7
377.0;214.6;;;;;;;;;;;;;;;;;-56.627094;4.032258;41.53569;;166.3
377.0;214.6;;;;;;;;;;;;;;-0.8955352;-0.011658071;-0.28186896;;;;;166.3
377.0;214.6;;;;;;;;;;;;;;;;;-62.70028;3.357036;39.96017;;166.3
377.0;214.6;;;;;;;;;;;;;;-0.89028597;-0.045167394;-0.2826014;;;;;166.3
377.0;273.7;;;;;;;;;;;;;;;;;-67.79687;2.189703;38.785213;;176.0
377.0;273.7;;;;;;;;;;;;;;-0.873928;-0.060304575;-0.2893765;;;;;176.0
377.0;273.7;;;;;;;;;;;;;;;;;-71.977905;1.106296;36.942657;;176.0
377.0;273.7;;;;;;;;;;;;;;-0.86013365;-0.04992828;-0.2943205;;;;;176.0
377.0;273.7;;;;;;;;;;;;;;;;;-75.40361;0.46159247;34.84832;;185.6
377.0;273.7;;;;;;;;;;;;;;-0.8679464;-0.068666644;-0.28412732;;;;;185.6
377.0;273.7;;;;;;;;;;;;;;;;;-78.37916;-0.3357036;32.883694;;185.6
377.0;273.7;;;;;;;;;;;;;;-0.87868893;-0.11279641;-0.28925443;;;;;185.6
377.0;273.7;;;;;;;;;;;;;;;;;-80.439156;-1.1329997;31.273842;;195.3
377.0;273.7;;;;;;;;;;;;;;-0.89742726;-0.16840114;-0.29981384;;;;;195.3
377.0;273.7;;;;;;;;;;;;;;;;;-81.08005;-2.1553698;30.098879;;195.3
377.0;273.7;;;;;;;;;;;;;;-0.90987885;-0.20154424;-0.30610064;;;;;195.3
436.0;274.5;;;;;;;;;;;;;;;;;-81.3776;-2.6589253;28.47377;;204.8
436.0;274.5;;;;;;;;;;;;;;-0.9211097;-0.17505418;-0.31092256;;;;;204.8
436.0;274.5;;;;;;;;;;;;;;;;;-81.995605;-2.723777;26.814325;;204.8
436.0;274.5;;;;;;;;;;;;;;-0.95541245;-0.21369061;-0.32203132;;;;;204.8
436.0;274.5;;;;;;;;;;;;;;;;;-81.69805;-4.9211097;25.711843;;214.5
436.0;274.5;;;;;;;;;;;;;;-0.94119084;-0.26691487;-0.34980315;;;;;214.5
436.0;274.5;;;;;;;;;;;;;;;;;-79.72961;-7.5228124;24.468216;;214.5
436.0;274.5;;;;;;;;;;;;;;-0.89907527;-0.29322183;-0.35517442;;;;;214.5
436.0;274.5;;;;;;;;;;;;;;;;;-77.429276;-8.869442;23.190252;;224.2
436.0;274.5;;;;;;;;;;;;;;-0.872219;-0.31696525;-0.35041353;;;;;224.2
436.0;274.5;;;;;;;;;;;;;;;;;-74.66735;-10.193182;21.835995;;224.2
436.0;274.5;;;;;;;;;;;;;;-0.8388317;-0.33973205;-0.3471175;;;;;224.2
436.0;334.4;;;;;;;;;;;;;;;;;-71.07761;-11.444441;20.88229;;233.8
436.0;334.4;;;;;;;;;;;;;;-0.81331825;-0.3552965;-0.34565264;;;;;233.8
436.0;334.4;;;;;;;;;;;;;;;;;-67.25898;-12.539292;20.157475;;233.8
436.0;334.4;;;;;;;;;;;;;;-0.783166;-0.38032165;-0.35047457;;;;;233.8
436.0;334.4;;;;;;;;;;;;;;;;;-63.32209;-13.611256;19.573809;;243.4
436.0;334.4;;;;;;;;;;;;;;-0.7437971;-0.39960936;-0.35676137;;;;;243.4
436.0;334.4;;;;;;;;;;;;;;;;;-59.186836;-13.908811;19.173254;;243.4
436.0;334.4;;;;;;;;;;;;;;-0.71846676;-0.40101323;-0.34717858;;;;;243.4
436.0;334.4;;;;;;;;;;;;;;;;;-55.589462;-13.458663;18.841366;;253.1
436.0;334.4;;;;;;;;;;;;;;-0.6965545;-0.39411604;-0.33002716;;;;;253.1
436.0;334.4;;;;;;;;;;;;;;;;;-52.27439;-12.817774;18.43318;;253.1
436.0;334.4;;;;;;;;;;;;;;-0.6774499;-0.3863033;-0.31556138;;;;;253.1
497.0;335.2;;;;;;;;;;;;;;;;;-48.532063;-11.841182;17.990662;;262.7
497.0;335.2;;;;;;;;;;;;;;-0.671041;-0.3798944;-0.29902035;;;;;262.7
497.0;335.2;;;;;;;;;;;;;;;;;-44.145027;-10.299997;17.365032;;262.7
497.0;335.2;;;;;;;;;;;;;;-0.67049164;-0.37189856;-0.27576524;;;;;262.7
497.0;335.2;;;;;;;;;;;;;;;;;-38.686028;-8.465072;17.010254;;272.4
497.0;335.2;;;;;;;;;;;;;;-0.68434703;-0.3757439;-0.2548906;;;;;272.4
497.0;335.2;;;;;;;;;;;;;;;;;-32.242805;-7.2634053;16.930143;;272.4
497.0;335.2;;;;;;;;;;;;;;-0.7168798;-0.38837856;-0.24610126;;;;;272.4
497.0;335.2;;;;;;;;;;;;;;;;;-25.872066;-7.4274426;16.827145;;282.1
497.0;335.2;;;;;;;;;;;;;;-0.7368389;-0.40504166;-0.23786126;;;;;282.1
497.0;335.2;;;;;;;;;;;;;;;;;-21.122623;-8.239998;16.422773;;282.1
497.0;335.2;;;;;;;;;;;;;;-0.75051117;-0.4280526;-0.23407696;;;;;282.1
497.0;394.5;;;;;;;;;;;;;;;;;-17.830439;-9.605701;15.770439;;291.7
497.0;394.5;;;;;;;;;;;;;;-0.75588244;-0.4582049;-0.2280343;;;;;291.7
497.0;394.5;;;;;;;;;;;;;;;;;-16.209145;-11.539811;14.564959;;291.7
497.0;394.5;;;;;;;;;;;;;;-0.73500776;-0.49781793;-0.22864467;;;;;291.7
497.0;394.5;;;;;;;;;;;;;;;;;-15.789515;-12.909329;13.328959;;301.3
497.0;394.5;;;;;;;;;;;;;;-0.71053195;-0.5480514;-0.25238806;;;;;301.3
497.0;394.5;;;;;;;;;;;;;;;;;-15.964996;-14.725182;11.734367;;301.3
497.0;394.5;;;;;;;;;;;;;;-0.67128515;-0.60353404;-0.29450363;;;;;301.3
497.0;394.5;;;;;;;;;;;;;;;;;-14.873959;-15.808588;9.773552;;310.9
497.0;394.5;;;;;;;;;;;;;;-0.6453444;-0.6476028;-0.25659963;;;;;310.9
497.0;394.5;;;;;;;;;;;;;;;;;-14.980773;-14.915922;7.7326274;;310.9
497.0;394.5;;;;;;;;;;;;;;-0.6336863;-0.6772668;-0.23828852;;;;;310.9
559.0;395.3;;;;;;;;;;;;;;;;;-15.140995;-14.4047365;5.3788877;;320.6
559.0;395.3;;;;;;;;;;;;;;-0.6222114;-0.7044893;-0.22931609;;;;;320.6
559.0;395.3;;;;;;;;;;;;;;;;;-14.500107;-14.248329;2.8763695;;320.6
559.0;395.3;;;;;;;;;;;;;;-0.62233347;-0.7170629;-0.22974335;;;;;320.6
559.0;395.3;;;;;;;;;;;;;;;;;-11.818293;-14.458144;1.1787775;;330.3
559.0;395.3;;;;;;;;;;;;;;-0.6294137;-0.7223121;-0.22760704;;;;;330.3
559.0;395.3;;;;;;;;;;;;;;;;;-8.564257;-15.13718;-0.24033326;;330.3
559.0;395.3;;;;;;;;;;;;;;-0.6454054;-0.70839566;-0.24274422;;;;;330.3
559.0;395.3;;;;;;;;;;;;;;;;;-5.8252206;-15.46144;-1.6403699;;339.9
559.0;395.3;;;;;;;;;;;;;;-0.66096985;-0.66176337;-0.2692343;;;;;339.9
559.0;395.3;;;;;;;;;;;;;;;;;-2.2392957;-15.514847;-3.1434064;;339.9
559.0;395.3;;;;;;;;;;;;;;-0.6999115;-0.5970031;-0.2908414;;;;;339.9
559.0;454.9;;;;;;;;;;;;;;;;;1.8501847;-15.457625;-4.0856657;;349.6
559.0;454.9;;;;;;;;;;;;;;-0.75588244;-0.5313883;-0.2981048;;;;;349.6
559.0;454.9;;;;;;;;;;;;;;;;;4.50911;-15.186773;-4.8333693;;349.6
559.0;454.9;;;;;;;;;;;;;;-0.8179571;-0.47968993;-0.29059726;;;;;349.6
559.0;454.9;;;;;;;;;;;;;;;;;6.0998874;-15.400403;-5.4017763;;359.3
559.0;454.9;;;;;;;;;;;;;;-0.87051;-0.44575334;-0.29206213;;;;;359.3
559.0;454.9;;;;;;;;;;;;;;;;;7.641072;-16.59444;-5.7374797;;359.3
559.0;454.9;;;;;;;;;;;;;;-0.90316474;-0.41175574;-0.29010895;;;;;359.3
559.0;454.9;;;;;;;;;;;;;;;;;8.495589;-17.521439;-5.8099613;;368.9
559.0;454.9;;;;;;;;;;;;;;-0.91811883;-0.37189856;-0.29230627;;;;;368.9
559.0;454.9;;;;;;;;;;;;;;;;;9.475998;-18.177588;-5.33311;;368.9
559.0;454.9;;;;;;;;;;;;;;-0.9252602;-0.33130893;-0.2891934;;;;;368.9
633.0;456.1;;;;;;;;;;;;;;;;;9.594256;-18.719292;-4.9249244;;378.6
633.0;456.1;;;;;;;;;;;;;;-0.9259926;-0.31037325;-0.27356791;;;;;378.6
633.0;456.1;;;;;;;;;;;;;;;;;7.9996643;-18.990143;-4.5930357;;378.6
633.0;456.1;;;;;;;;;;;;;;-0.9306314;-0.29804376;-0.25666067;;;;;378.6
633.0;456.1;;;;;;;;;;;;;;;;;4.0017395;-19.978178;-5.176702;;388.3
633.0;456.1;;;;;;;;;;;;;;-0.933195;-0.29517502;-0.24396497;;;;;388.3
633.0;456.1;;;;;;;;;;;;;;;;;-0.7019257;-21.202734;-6.3364053;;388.3
633.0;456.1;;;;;;;;;;;;;;-0.94320506;-0.29999694;-0.20819727;;;;;388.3
633.0;456.1;;;;;;;;;;;;;;;;;-6.2181463;-23.194067;-8.548997;;398.0
633.0;456.1;;;;;;;;;;;;;;-0.944731;-0.32422864;-0.16028321;;;;;398.0
633.0;456.1;;;;;;;;;;;;;;;;;-12.066256;-26.604511;-11.764886;;398.0
633.0;456.1;;;;;;;;;;;;;;-0.9327067;-0.3754387;-0.12384411;;;;;398.0
633.0;515.3;;;;;;;;;;;;;;;;;-18.02118;-30.671103;-16.59444;;407.6
633.0;515.3;;;;;;;;;;;;;;-0.92953277;-0.4176153;-0.09668264;;;;;407.6
633.0;515.3;;;;;;;;;;;;;;;;;-23.953215;-36.053802;-23.316141;;407.6
633.0;515.3;;;;;;;;;;;;;;-0.928312;-0.47297585;-0.07684561;;;;;407.6
633.0;515.3;;;;;;;;;;;;;;;;;-27.974028;-41.791283;-31.292915;;417.3
633.0;515.3;;;;;;;;;;;;;;-0.92281866;-0.53456223;-0.08130131;;;;;417.3
633.0;515.3;;;;;;;;;;;;;;;;;-28.313547;-46.922207;-39.746544;;417.3
633.0;515.3;;;;;;;;;;;;;;-0.9247108;-0.5989563;-0.09088412;;;;;417.3
633.0;515.3;;;;;;;;;;;;;;;;;-25.017548;-50.874355;-49.108097;;426.9
633.0;515.3;;;;;;;;;;;;;;-0.9658498;-0.65578175;-0.05816828;;;;;426.9
633.0;515.3;;;;;;;;;;;;;;;;;-20.130772;-54.666283;-60.235905;;426.9
633.0;515.3;;;;;;;;;;;;;;-1.0223701;-0.6955168;-0.007202368;;;;;426.9
676.0;516.1;;;;;;;;;;;;;;;;;-14.942626;-57.397686;-73.89676;;436.5
676.0;516.1;;;;;;;;;;;;;;-1.0697348;-0.70906705;0.031067843;;;;;436.5
676.0;516.1;;;;;;;;;;;;;;;;;-11.539811;-56.28376;-89.03012;;436.5
676.0;516.1;;;;;;;;;;;;;;-1.1556139;-0.6911832;0.04382458;;;;;436.5
676.0;516.1;;;;;;;;;;;;;;;;;-8.926664;-53.73165;-104.65179;;446.2
676.0;516.1;;;;;;;;;;;;;;-1.2656026;-0.6904508;0.046449173;;;;;446.2
676.0;516.1;;;;;;;;;;;;;;;;;-7.759331;-53.33491;-119.37697;;446.2
676.0;516.1;;;;;;;;;;;;;;-1.3798028;-0.67305523;0.012207404;;;;;446.2
676.0;516.1;;;;;;;;;;;;;;;;;-7.930998;-57.29087;-124.91226;;455.9
676.0;516.1;;;;;;;;;;;;;;-1.4597614;-0.6023133;-0.046754356;;;;;455.9
676.0;516.1;;;;;;;;;;;;;;;;;-9.586627;-65.14939;-124.988556;;455.9
676.0;516.1;;;;;;;;;;;;;;-1.4876553;-0.49641407;-0.110415965;;;;;455.9
676.0;530.2;;;;;;;;;;;;;;;;;-11.410108;-75.563835;-124.988556;;465.5
676.0;530.2;;;;;;;;;;;;;;-1.4834437;-0.3685415;-0.15814692;;;;;465.5
676.0;530.2;;;;;;;;;;;;;;;;;-12.936033;-86.69164;-124.988556;;465.5
676.0;530.2;;;;;;;;;;;;;;-1.4629964;-0.21240883;-0.18109684;;;;;465.5
676.0;530.2;;;;;;;;;;;;;;;;;-14.774774;-97.85379;-124.988556;;475.2
676.0;530.2;;;;;;;;;;;;;;-1.4073305;-0.06549272;-0.21503341;;;;;475.2
676.0;530.2;;;;;;;;;;;;;;;;;-16.331219;-105.84201;-124.988556;;475.2
676.0;530.2;;;;;;;;;;;;;;-1.3539842;0.056459244;-0.2866909;;;;;475.2
676.0;530.2;;;;;;;;;;;;;;;;;-16.327404;-110.484634;-124.988556;;484.6
676.0;530.2;;;;;;;;;;;;;;-1.3500779;0.13879818;-0.30909148;;;;;484.6
676.0;530.2;;;;;;;;;;;;;;;;;-17.28492;-114.028595;-124.988556;;484.6
676.0;530.2;;;;;;;;;;;;;;-1.3423262;0.14355907;-0.30152288;;;;;484.6
737.0;576.0;;;;;;;;;;;;;;;;;-20.561846;-112.85363;-124.988556;;494.1
737.0;576.0;;;;;;;;;;;;;;-1.358562;0.068971835;-0.3328959;;;;;494.1
737.0;576.0;;;;;;;;;;;;;;;;;-23.960846;-107.54723;-124.988556;;494.1
737.0;576.0;;;;;;;;;;;;;;-1.4246651;0.024719993;-0.36182746;;;;;494.1
737.0;576.0;;;;;;;;;;;;;;;;;-29.190954;-101.966156;-124.74822;;503.7
737.0;576.0;;;;;;;;;;;;;;-1.5298319;0.06164739;-0.42359692;;;;;503.7
737.0;576.0;;;;;;;;;;;;;;;;;-38.30073;-99.64293;-121.15466;;503.7
737.0;576.0;;;;;;;;;;;;;;-1.5970947;0.040650655;-0.49439985;;;;;503.7
737.0;576.0;;;;;;;;;;;;;;;;;-49.829094;-98.23908;-115.26078;;513.3
737.0;576.0;;;;;;;;;;;;;;-1.568102;-0.045777764;-0.54499954;;;;;513.3
737.0;576.0;;;;;;;;;;;;;;;;;-61.620686;-92.18116;-110.63722;;513.3
737.0;576.0;;;;;;;;;;;;;;-1.5742058;-0.10974456;-0.55635244;;;;;513.3
737.0;590.8;;;;;;;;;;;;;;;;;-73.08801;-85.7532;-108.38649;;522.9
737.0;590.8;;;;;;;;;;;;;;-1.5933714;-0.15240943;-0.53279215;;;;;522.9
737.0;590.8;;;;;;;;;;;;;;;;;-84.78805;-80.4239;-108.75271;;522.9
737.0;590.8;;;;;;;;;;;;;;-1.5823847;-0.19202246;-0.47956786;;;;;522.9
737.0;590.8;;;;;;;;;;;;;;;;;-97.69738;-73.66024;-111.23615;;532.6
737.0;590.8;;;;;;;;;;;;;;-1.564684;-0.2652669;-0.4321421;;;;;532.6
737.0;590.8;;;;;;;;;;;;;;;;;-108.596306;-66.21754;-114.44823;;532.6
737.0;590.8;;;;;;;;;;;;;;-1.543199;-0.37220374;-0.3688467;;;;;532.6
737.0;590.8;;;;;;;;;;;;;;;;;-116.75237;-59.751427;-117.229225;;542.2
737.0;590.8;;;;;;;;;;;;;;-1.4801477;-0.4640034;-0.32386243;;;;;542.2
737.0;590.8;;;;;;;;;;;;;;;;;-122.04352;-52.541428;-119.90722;;542.2
737.0;590.8;;;;;;;;;;;;;;-1.4373608;-0.5449385;-0.27674183;;;;;542.2
795.0;636.1;;;;;;;;;;;;;;;;;-123.840294;-47.269356;-121.71926;;551.7
795.0;636.1;;;;;;;;;;;;;;-1.3584399;-0.58540606;-0.25452438;;;;;551.7
795.0;636.1;;;;;;;;;;;;;;;;;-122.89422;-42.50847;-123.03537;;551.7
795.0;636.1;;;;;;;;;;;;;;-1.2856227;-0.60444957;-0.2224189;;;;;551.7
795.0;636.1;;;;;;;;;;;;;;;;;-118.778046;-38.682213;-123.489334;;561.3
795.0;636.1;;;;;;;;;;;;;;-1.190283;-0.5937681;-0.19953002;;;;;561.3
795.0;636.1;;;;;;;;;;;;;;;;;-112.52937;-34.95132;-123.05826;;561.3
795.0;636.1;;;;;;;;;;;;;;-1.1019623;-0.57148963;-0.16602069;;;;;561.3
795.0;636.1;;;;;;;;;;;;;;;;;-104.33515;-31.701103;-121.45222;;570.9
795.0;636.1;;;;;;;;;;;;;;-1.0135196;-0.6021302;-0.1490524;;;;;570.9
795.0;636.1;;;;;;;;;;;;;;;;;-92.84493;-29.007843;-118.106636;;570.9
795.0;636.1;;;;;;;;;;;;;;-0.93038726;-0.59596545;-0.120365;;;;;570.9
795.0;651.2;;;;;;;;;;;;;;;;;-79.77538;-26.703697;-113.60133;;580.6
795.0;651.2;;;;;;;;;;;;;;-0.8768578;-0.56123537;-0.09430219;;;;;580.6
795.0;651.2;;;;;;;;;;;;;;;;;-66.73254;-25.440992;-107.83716;;580.6
795.0;651.2;;;;;;;;;;;;;;-0.8443861;-0.52919096;-0.08020265;;;;;580.6
795.0;651.2;;;;;;;;;;;;;;;;;-54.43358;-25.509659;-101.16504;;590.3
795.0;651.2;;;;;;;;;;;;;;-0.80703145;-0.50270087;-0.072328866;;;;;590.3
795.0;651.2;;;;;;;;;;;;;;;;;-42.14606;-25.822474;-94.00464;;590.3
795.0;651.2;;;;;;;;;;;;;;-0.7730949;-0.4758446;-0.0557268;;;;;590.3
795.0;651.2;;;;;;;;;;;;;;;;;-30.751213;-26.264992;-86.5276;;599.9
795.0;651.2;;;;;;;;;;;;;;-0.7434309;-0.43421736;-0.0507828;;;;;599.9
795.0;651.2;;;;;;;;;;;;;;;;;-21.263771;-26.898252;-79.367195;;599.9
795.0;651.2;;;;;;;;;;;;;;-0.7150487;-0.3872799;-0.043946654;;;;;599.9
857.0;696.5;;;;;;;;;;;;;;;;;-13.962218;-28.153324;-72.6722;;609.4
857.0;696.5;;;;;;;;;;;;;;-0.6773278;-0.36573383;-0.04242073;;;;;609.4
857.0;696.5;;;;;;;;;;;;;;;;;-8.461257;-30.045471;-66.347244;;609.4
857.0;696.5;;;;;;;;;;;;;;-0.6299631;-0.35755485;-0.043946654;;;;;609.4
857.0;696.5;;;;;;;;;;;;;;;;;-4.3107395;-31.136509;-60.026093;;619.0
857.0;696.5;;;;;;;;;;;;;;-0.59614855;-0.33545947;-0.04321421;;;;;619.0
857.0;696.5;;;;;;;;;;;;;;;;;-1.0872219;-32.319103;-54.14747;;619.0
857.0;696.5;;;;;;;;;;;;;;-0.5681326;-0.31385234;-0.042909026;;;;;619.0
857.0;696.5;;;;;;;;;;;;;;;;;1.4229255;-33.43303;-48.29936;;628.7
857.0;696.5;;;;;;;;;;;;;;-0.5431684;-0.30341503;-0.049806207;;;;;628.7
857.0;696.5;;;;;;;;;;;;;;;;;3.688925;-33.955654;-42.378765;;628.7
857.0;696.5;;;;;;;;;;;;;;-0.53022856;-0.30286568;-0.060365614;;;;;628.7
857.0;704.0;;;;;;;;;;;;;;;;;6.1151466;-34.15021;-36.30558;;638.3
857.0;704.0;;;;;;;;;;;;;;-0.5317545;-0.2837611;-0.0651265;;;;;638.3
857.0;704.0;;;;;;;;;;;;;;;;;8.144628;-35.00473;-30.434584;;638.3
857.0;704.0;;;;;;;;;;;;;;-0.54103214;-0.2727134;-0.0756859;;;;;638.3
857.0;704.0;;;;;;;;;;;;;;;;;9.788812;-36.507767;-24.941252;;648.0
857.0;704.0;;;;;;;;;;;;;;-0.54713583;-0.27008882;-0.08874783;;;;;648.0
857.0;704.0;;;;;;;;;;;;;;;;;11.14307;-38.472397;-19.848475;;648.0
857.0;704.0;;;;;;;;;;;;;;-0.55006564;-0.27588734;-0.10889004;;;;;648.0
857.0;704.0;;;;;;;;;;;;;;;;;13.187811;-40.448467;-14.931181;;657.6
857.0;704.0;;;;;;;;;;;;;;-0.5449385;-0.28644672;-0.1175573;;;;;657.6
857.0;704.0;;;;;;;;;;;;;;;;;15.732292;-41.524246;-10.227515;;657.6
857.0;704.0;;;;;;;;;;;;;;-0.5384686;-0.27314067;-0.109195225;;;;;657.6
916.0;756.7;;;;;;;;;;;;;;;;;17.70455;-41.135136;-5.836665;;667.2
916.0;756.7;;;;;;;;;;;;;;-0.54091007;-0.25629443;-0.08856472;;;;;667.2
916.0;756.7;;;;;;;;;;;;;;;;;18.436995;-39.84191;-1.8768883;;667.2
916.0;756.7;;;;;;;;;;;;;;-0.55568105;-0.21802424;-0.050721765;;;;;667.2
916.0;756.7;;;;;;;;;;;;;;;;;17.563402;-38.6021;1.3084811;;676.8
916.0;756.7;;;;;;;;;;;;;;-0.560564;-0.18762779;-0.00634785;;;;;676.8
916.0;756.7;;;;;;;;;;;;;;;;;15.499588;-37.877285;4.448073;;676.8
916.0;756.7;;;;;;;;;;;;;;-0.567278;-0.19544053;0.01330607;;;;;676.8
916.0;756.7;;;;;;;;;;;;;;;;;13.061922;-37.69799;7.6067386;;686.5
916.0;756.7;;;;;;;;;;;;;;-0.58607745;-0.16461684;0.048036136;;;;;686.5
916.0;756.7;;;;;;;;;;;;;;;;;9.285256;-38.05277;10.170293;;686.5
916.0;756.7;;;;;;;;;;;;;;-0.5999939;-0.12146367;0.08050783;;;;;686.5
916.0;764.2;;;;;;;;;;;;;;;;;4.20011;-38.377026;12.440107;;696.1
916.0;764.2;;;;;;;;;;;;;;-0.60805076;-0.09857479;0.095156714;;;;;696.1
916.0;764.2;;;;;;;;;;;;;;;;;-1.1329997;-38.651695;14.393292;;696.1
916.0;764.2;;;;;;;;;;;;;;-0.60243535;-0.10089419;0.10254219;;;;;696.1
916.0;764.2;;;;;;;;;;;;;;;;;-6.5271463;-38.26258;15.896328;;705.8
916.0;764.2;;;;;;;;;;;;;;-0.5818659;-0.12402722;0.10296945;;;;;705.8
916.0;764.2;;;;;;;;;;;;;;;;;-11.841182;-36.194954;17.101809;;705.8
916.0;764.2;;;;;;;;;;;;;;-0.54731894;-0.17249061;0.092043824;;;;;705.8
916.0;764.2;;;;;;;;;;;;;;;;;-16.117588;-31.57903;18.406477;;715.4
916.0;764.2;;;;;;;;;;;;;;-0.5254677;-0.22858363;0.07159642;;;;;715.4
916.0;764.2;;;;;;;;;;;;;;;;;-18.73455;-25.88351;19.760735;;715.4
916.0;764.2;;;;;;;;;;;;;;-0.5077059;-0.26654866;0.039002657;;;;;715.4
979.0;817.1;;;;;;;;;;;;;;;;;-19.829401;-21.275217;20.939512;;725.0
979.0;817.1;;;;;;;;;;;;;;-0.48579362;-0.29261148;0.0015259255;;;;;725.0
979.0;817.1;;;;;;;;;;;;;;;;;-19.745476;-18.704031;22.171696;;725.0
979.0;817.1;;;;;;;;;;;;;;-0.4657735;-0.29883724;-0.039613027;;;;;725.0
979.0;817.1;;;;;;;;;;;;;;;;;-18.459883;-18.4637;23.476364;;734.7
979.0;817.1;;;;;;;;;;;;;;-0.43238625;-0.2903531;-0.078554645;;;;;734.7
979.0;817.1;;;;;;;;;;;;;;;;;-16.853848;-18.810846;25.349436;;734.7
979.0;817.1;;;;;;;;;;;;;;-0.39820552;-0.2537309;-0.107058935;;;;;734.7
979.0;817.1;;;;;;;;;;;;;;;;;-16.857662;-18.929106;27.726065;;744.4
979.0;817.1;;;;;;;;;;;;;;-0.3717765;-0.19232765;-0.12237922;;;;;744.4
979.0;817.1;;;;;;;;;;;;;;;;;-19.245735;-18.608662;30.30488;;744.4
979.0;817.1;;;;;;;;;;;;;;-0.35578477;-0.14404736;-0.13385418;;;;;744.4
979.0;824.9;;;;;;;;;;;;;;;;;-23.171179;-17.48329;33.52077;;754.1
979.0;824.9;;;;;;;;;;;;;;-0.35212258;-0.10870693;-0.1391644;;;;;754.1
979.0;824.9;;;;;;;;;;;;;;;;;-28.550066;-14.831996;37.29362;;754.1
979.0;824.9;;;;;;;;;;;;;;-0.3491928;-0.08130131;-0.15979491;;;;;754.1
979.0;824.9;;;;;;;;;;;;;;;;;-34.535507;-9.990996;41.66921;;763.8
979.0;824.9;;;;;;;;;;;;;;-0.37037262;-0.06799524;-0.16565447;;;;;763.8
979.0;824.9;;;;;;;;;;;;;;;;;-41.066467;-4.1123695;46.235542;;763.8
979.0;824.9;;;;;;;;;;;;;;-0.3952147;-0.07190161;-0.16791284;;;;;763.8
979.0;824.9;;;;;;;;;;;;;;;;;-47.45247;1.7319254;50.97354;;773.4
979.0;824.9;;;;;;;;;;;;;;-0.43873408;-0.08484146;-0.15851314;;;;;773.4
979.0;824.9;;;;;;;;;;;;;;;;;-53.74691;6.0922575;55.67339;;773.4
979.0;824.9;;;;;;;;;;;;;;-0.47456282;-0.10266427;-0.15771966;;;;;773.4
1037.0;877.4;;;;;;;;;;;;;;;;;-59.4348;9.42259;60.644093;;783.0
1037.0;877.4;;;;;;;;;;;;;;-0.5191809;-0.12939848;-0.16992706;;;;;783.0
1037.0;877.4;;;;;;;;;;;;;;;;;-64.11176;10.486923;65.53468;;783.0
1037.0;877.4;;;;;;;;;;;;;;-0.5843074;-0.1770684;-0.15759759;;;;;783.0
1037.0;877.4;;;;;;;;;;;;;;;;;-68.11731;8.968627;69.94079;;792.6
1037.0;877.4;;;;;;;;;;;;;;-0.6206244;-0.23798333;-0.14221625;;;;;792.6
1037.0;877.4;;;;;;;;;;;;;;;;;-71.142456;6.55385;73.58775;;792.6
1037.0;877.4;;;;;;;;;;;;;;-0.6487014;-0.3233131;-0.12543108;;;;;792.6
1037.0;877.4;;;;;;;;;;;;;;;;;-72.94687;3.154851;76.349686;;802.1
1037.0;877.4;;;;;;;;;;;;;;-0.67812127;-0.41230506;-0.12793359;;;;;802.1
1037.0;877.4;;;;;;;;;;;;;;;;;-73.8319;-0.92699975;78.23419;;802.1
1037.0;877.4;;;;;;;;;;;;;;-0.7058931;-0.52107304;-0.12292856;;;;;802.1
1037.0;884.9;;;;;;;;;;;;;;;;;-74.54909;-4.8028507;78.58516;;811.7
1037.0;884.9;;;;;;;;;;;;;;-0.74507886;-0.61342204;-0.14526811;;;;;811.7
1037.0;884.9;;;;;;;;;;;;;;;;;-75.06027;-8.053072;77.77643;;811.7
1037.0;884.9;;;;;;;;;;;;;;-0.79250467;-0.7140721;-0.16266365;;;;;811.7
1037.0;884.9;;;;;;;;;;;;;;;;;-74.58342;-10.685293;75.27772;;821.4
1037.0;884.9;;;;;;;;;;;;;;-0.8157598;-0.7956175;-0.1993469;;;;;821.4
1037.0;884.9;;;;;;;;;;;;;;;;;-72.85531;-10.639516;72.90109;;821.4
1037.0;884.9;;;;;;;;;;;;;;-0.8429823;-0.8652608;-0.2268746;;;;;821.4
1037.0;884.9;;;;;;;;;;;;;;;;;-70.08957;-9.014404;71.607864;;831.0
1037.0;884.9;;;;;;;;;;;;;;-0.8514664;-0.91293067;-0.2273629;;;;;831.0
1037.0;884.9;;;;;;;;;;;;;;;;;-65.839874;-7.2595906;69.44868;;831.0
1037.0;884.9;;;;;;;;;;;;;;-0.81527144;-0.91421247;-0.23731193;;;;;831.0
1097.0;937.8;;;;;;;;;;;;;;;;;-60.57161;-3.154851;67.24372;;840.7
1097.0;937.8;;;;;;;;;;;;;;-0.7901853;-0.89504683;-0.23206274;;;;;840.7
1097.0;937.8;;;;;;;;;;;;;;;;;-53.228096;0.9460738;65.20661;;840.7
1097.0;937.8;;;;;;;;;;;;;;-0.7442854;-0.8712424;-0.21149327;;;;;840.7
1097.0;937.8;;;;;;;;;;;;;;;;;-44.431133;5.176702;64.14228;;850.3
1097.0;937.8;;;;;;;;;;;;;;-0.7021088;-0.84145635;-0.19971313;;;;;850.3
1097.0;937.8;;;;;;;;;;;;;;;;;-34.691914;10.23133;63.97061;;850.3
1097.0;937.8;;;;;;;;;;;;;;-0.67543566;-0.81820124;-0.16791284;;;;;850.3
1097.0;937.8;;;;;;;;;;;;;;;;;-24.3614;15.049439;64.889984;;859.8
1097.0;937.8;;;;;;;;;;;;;;-0.6448561;-0.7977538;-0.13611256;;;;;859.8
1097.0;937.8;;;;;;;;;;;;;;;;;-13.573108;20.187994;66.45024;;859.8
1097.0;937.8;;;;;;;;;;;;;;-0.6410718;-0.77877134;-0.10119938;;;;;859.8
1097.0;938.8;;;;;;;;;;;;;;;;;-2.9831843;24.575031;68.41868;;869.4
1097.0;938.8;;;;;;;;;;;;;;-0.6278878;-0.7513047;-0.06146428;;;;;869.4
1097.0;938.8;;;;;;;;;;;;;;;;;6.6034427;29.141361;70.36042;;869.4
1097.0;938.8;;;;;;;;;;;;;;-0.64375746;-0.7236549;-0.01147496;;;;;869.4
1097.0;938.8;;;;;;;;;;;;;;;;;14.702292;32.53655;71.829124;;879.0
1097.0;938.8;;;;;;;;;;;;;;-0.6499832;-0.6753136;0.029114658;;;;;879.0
1097.0;938.8;;;;;;;;;;;;;;;;;20.584734;35.4091;72.763756;;879.0
1097.0;938.8;;;;;;;;;;;;;;-0.669393;-0.6134831;0.06964324;;;;;879.0
1097.0;938.8;;;;;;;;;;;;;;;;;24.441511;38.525806;73.442795;;888.7
1097.0;938.8;;;;;;;;;;;;;;-0.72524184;-0.5721;0.1163976;;;;;888.7
1097.0;938.8;;;;;;;;;;;;;;;;;26.043734;39.79995;73.492386;;888.7
1097.0;938.8;;;;;;;;;;;;;;-0.7636952;-0.54139835;0.13214515;;;;;888.7
1152.0;998.1;;;;;;;;;;;;;;;;;26.20014;40.051727;72.9812;;898.4
1152.0;998.1;;;;;;;;;;;;;;-0.82546467;-0.4994659;0.13019197;;;;;898.4
1152.0;998.1;;;;;;;;;;;;;;;;;24.575031;38.350323;71.21494;;898.4
1152.0;998.1;;;;;;;;;;;;;;-0.87331766;-0.46089053;0.13110752;;;;;898.4
1152.0;998.1;;;;;;;;;;;;;;;;;21.282846;35.119175;68.36527;;908.0
1152.0;998.1;;;;;;;;;;;;;;-0.92049927;-0.42249826;0.11841182;;;;;908.0
1152.0;998.1;;;;;;;;;;;;;;;;;17.05603;31.35014;64.561905;;908.0
1152.0;998.1;;;;;;;;;;;;;;-0.9506516;-0.39558092;0.111880854;;;;;908.0
1152.0;998.1;;;;;;;;;;;;;;;;;12.287516;28.305918;60.193943;;917.5
1152.0;998.1;;;;;;;;;;;;;;-0.9675588;-0.37818536;0.12005982;;;;;917.5
1152.0;998.1;;;;;;;;;;;;;;;;;7.374035;26.455732;55.589462;;917.5
1152.0;998.1;;;;;;;;;;;;;;-0.9848933;-0.36768702;0.12915434;;;;;917.5
1152.0;998.9;;;;;;;;;;;;;;;;;2.639851;25.28077;50.836205;;927.1
1152.0;998.9;;;;;;;;;;;;;;-0.9862972;-0.36298716;0.1394696;;;;;927.1
1152.0;998.9;;;;;;;;;;;;;;;;;-1.7242957;24.769585;46.39195;;927.1
1152.0;998.9;;;;;;;;;;;;;;-0.9934996;-0.36384168;0.14520706;;;;;927.1
1152.0;998.9;;;;;;;;;;;;;;;;;-5.043184;23.602253;41.913357;;936.8
1152.0;998.9;;;;;;;;;;;;;;-0.99557483;-0.3831904;0.12958159;;;;;936.8
1152.0;998.9;;;;;;;;;;;;;;;;;-6.977294;21.759699;36.84347;;936.8
1152.0;998.9;;;;;;;;;;;;;;-0.98409986;-0.39313945;0.12457655;;;;;936.8
1152.0;998.9;;;;;;;;;;;;;;;;;-8.7397375;19.413588;31.697289;;946.4
1152.0;998.9;;;;;;;;;;;;;;-0.96462905;-0.4066286;0.12970367;;;;;946.4
1152.0;998.9;;;;;;;;;;;;;;;;;-9.086886;17.151402;27.04703;;946.4
1152.0;998.9;;;;;;;;;;;;;;-0.95095676;-0.41444135;0.13336588;;;;;946.4
1214.0;1058.3;;;;;;;;;;;;;;;;;-11.947997;15.663626;21.938993;;956.1
1214.0;1058.3;;;;;;;;;;;;;;-0.91708124;-0.4364147;0.070192575;;;;;956.1
1214.0;1058.3;;;;;;;;;;;;;;;;;-15.743736;15.095218;16.79281;;956.1
1214.0;1058.3;;;;;;;;;;;;;;-0.88717306;-0.43787956;0.016541032;;;;;956.1
1214.0;1058.3;;;;;;;;;;;;;;;;;-17.490921;16.685995;13.084811;;965.8
1214.0;1058.3;;;;;;;;;;;;;;-0.9483932;-0.40876493;0.10357982;;;;;965.8
1214.0;1058.3;;;;;;;;;;;;;;;;;-21.141697;18.715477;11.1888485;;965.8
1214.0;1058.3;;;;;;;;;;;;;;-1.1238747;-0.37110507;0.23212378;;;;;965.8
1214.0;1058.3;;;;;;;;;;;;;;;;;-31.220436;21.271402;9.571368;;975.5
1214.0;1058.3;;;;;;;;;;;;;;-1.2797022;-0.32850122;0.090823084;;;;;975.5
1214.0;1058.3;;;;;;;;;;;;;;;;;-41.657764;31.094545;9.784997;;975.5
1214.0;1058.3;;;;;;;;;;;;;;-1.3890195;-0.3507187;-0.366039;;;;;975.5
1214.0;1059.2;;;;;;;;;;;;;;;;;-39.13236;43.45836;15.034181;;985.0
1214.0;1059.2;;;;;;;;;;;;;;-1.7270424;-0.39606923;-0.641438;;;;;985.0
1214.0;1059.2;;;;;;;;;;;;;;;;;-33.673363;34.199802;18.436995;;985.0
1214.0;1059.2;;;;;;;;;;;;;;-1.9074068;-0.45088047;-0.60267955;;;;;985.0
1214.0;1059.2;;;;;;;;;;;;;;;;;-36.648914;10.769219;12.691885;;994.7
1214.0;1059.2;;;;;;;;;;;;;;-1.8500931;-0.43971068;-0.44209114;;;;;994.7
1214.0;1059.2;;;;;;;;;;;;;;;;;-48.15821;-9.086886;1.6937773;;994.7
1214.0;1059.2;;;;;;;;;;;;;;-1.5815912;-0.36848047;-0.40260017;;;;;994.7
1214.0;1059.2;;;;;;;;;;;;;;;;;-52.5338;-5.4208503;-5.7908874;;1004.4
1214.0;1059.2;;;;;;;;;;;;;;-1.3715628;-0.19959106;-0.26404613;;;;;1004.4
1214.0;1059.2;;;;;;;;;;;;;;;;;-46.8688;9.487442;-7.9386272;;1004.4
1214.0;1059.2;;;;;;;;;;;;;;-1.3117466;-0.0430311;-0.11615345;;;;;1004.4
1218.0;1126.8;;;;;;;;;;;;;;;;;-41.75695;16.663107;-11.345256;;1014.0
1218.0;1126.8;;;;;;;;;;;;;;-1.078341;0.12732323;-0.2796716;;;;;1014.0
1218.0;1126.8;;;;;;;;;;;;;;;;;-32.30003;20.99292;-11.207922;;1014.0
1218.0;1126.8;;;;;;;;;;;;;;-0.9153722;0.27344584;-0.5503708;;;;;1014.0
1218.0;1126.8;;;;;;;;;;;;;;;;;-7.316813;19.833216;-5.077517;;1023.7
1218.0;1126.8;;;;;;;;;;;;;;-0.9196448;0.37183753;-0.51045257;;;;;1023.7
1218.0;1126.8;;;;;;;;;;;;;;;;;20.626698;9.483627;3.1281471;;1023.7
1218.0;1126.8;;;;;;;;;;;;;;-1.0232856;0.38636434;-0.03912473;;;;;1023.7
1218.0;1126.8;;;;;;;;;;;;;;;;;21.160772;-7.122257;2.6703696;;1033.4
1218.0;1126.8;;;;;;;;;;;;;;-1.060213;0.35798213;0.37226477;;;;;1033.4
1218.0;1126.8;;;;;;;;;;;;;;;;;-16.525774;-16.869106;-10.303812;;1033.4
1218.0;1126.8;;;;;;;;;;;;;;-0.9062166;0.2669759;0.22760704;;;;;1033.4
1219.0;1127.6;;;;;;;;;;;;;;;;;-62.23487;-12.993256;-29.835659;;1043.1
1219.0;1127.6;;;;;;;;;;;;;;-0.6508377;0.15668203;-0.17053743;;;;;1043.1
1219.0;1127.6;;;;;;;;;;;;;;;;;-95.44664;2.7123327;-45.525986;;1043.1
1219.0;1127.6;;;;;;;;;;;;;;-0.6223945;0.14069033;-0.5630665;;;;;1043.1
1219.0;1127.6;;;;;;;;;;;;;;;;;-101.50456;10.223701;-47.92932;;1052.7
1219.0;1127.6;;;;;;;;;;;;;;-0.89510787;0.09784234;-0.7091891;;;;;1052.7
1219.0;1127.6;;;;;;;;;;;;;;;;;-81.36616;6.015961;-41.901913;;1052.7
1219.0;1127.6;;;;;;;;;;;;;;-1.1632435;0.018982513;-0.67049164;;;;;1052.7
1219.0;1127.6;;;;;;;;;;;;;;;;;-57.626575;4.119999;-34.264656;;1062.4
1219.0;1127.6;;;;;;;;;;;;;;-1.3979309;-0.30359814;-0.51564074;;;;;1062.4
1219.0;1127.6;;;;;;;;;;;;;;;;;-48.535877;8.194221;-30.144657;;1062.4
1219.0;1127.6;;;;;;;;;;;;;;-1.5639515;-0.6443678;-0.44917142;;;;;1062.4
1219.0;1128.5;;;;0.0;0.0;0.0;;;;;;;;;;;;;;;
1219.0;1128.5;;;;-0.22892001;0.010070802;-0.044090275;;;;;;;;;;;;;;;
1219.0;1128.5;;;;-1.2743226;-0.06935502;-0.42260367;;;;;;;;;;;;;;;
1219.0;1128.5;;;;-1.4327012;-0.082515724;-0.49493796;;;;;;;;;;;;;;;
1219.0;1128.5;;;;-1.4389573;-0.07754899;-0.5002175;;;;;;;;;;;;;;;
1219.0;1138.5;;;;-1.4429284;-0.071716316;-0.5035172;;;;;;;;;;;;;;;
1219.0;1138.5;;;;-1.4445039;-0.06616593;-0.50620276;;;;;;;;;;;;;;;
1219.0;1138.5;;;;-1.4416047;-0.060680397;-0.5091248;;;;;;;;;;;;;;;
1219.0;1138.5;;;;-1.4366494;-0.05579377;-0.51157385;;;;;;;;;;;;;;;
1219.0;1138.5;;;;-1.4303972;-0.050781257;-0.5127221;;;;;;;;;;;;;;;
1275.0;1140.8;57481;57515;13066;;;;;;;;;;;;;;;;;;
1275.0;1148.5;;;;-1.4196779;-0.045867924;-0.513424;;;;;;;;;;;;;;;
1275.0;1148.5;;;;-1.4046556;-0.041103367;-0.5132523;;;;;;;;;;;;;;;
1275.0;1148.5;;;;-1.3867761;-0.03632355;-0.51012045;;;;;;;;;;;;;;;
1275.0;1148.5;;;;-1.3663293;-0.03197098;-0.5076447;;;;;;;;;;;;;;;
1275.0;1148.5;;;;-1.3448793;-0.028381351;-0.5089875;;;;;;;;;;;;;;;
1275.0;1158.5;;;;-1.3225404;-0.025939945;-0.5098;;;;;;;;;;;;;;;
1275.0;1158.5;;;;-1.2992975;-0.024063114;-0.50466925;;;;;;;;;;;;;;;
1275.0;1158.5;;;;-1.2751962;-0.023429872;-0.49884802;;;;;;;;;;;;;;;
1275.0;1158.5;;;;-1.2514688;-0.022663118;-0.4946099;;;;;;;;;;;;;;;
1275.0;1158.5;;;;-1.2287904;-0.021976473;-0.49107748;;;;;;;;;;;;;;;
1275.0;1160.8;73860;73853;13058;;;;;;;;;;;;;;;;;;
1275.0;1167.2;;;;;;;;;;;;;0;;;;;;;;
1275.0;1167.2;;;;;;;;;;;;;0;;;;;;;;
1275.0;1167.2;;;;;;;;;;;;;-1;;;;;;;;
1275.0;1167.2;;;;;;;;;;;;;-2;;;;;;;;
1275.0;1167.2;;;;;;;;;;;;;-3;;;;;;;;
1275.0;1168.7;;;;-1.2071458;-0.021980288;-0.48933035;;;;;;;;;;;;;;;
1275.0;1168.7;;;;-1.1868249;-0.023017885;-0.48701864;;;;;;;;;;;;;;;
1275.0;1168.7;;;;-1.1664277;-0.02487183;-0.4823647;;;;;;;;;;;;;;;
1275.0;1168.7;;;;-1.1464235;-0.026916508;-0.47658926;;;;;;;;;;;;;;;
1275.0;1168.7;;;;-1.1266595;-0.0288353;-0.47131354;;;;;;;;;;;;;;;
1277.0;1178.7;;;;-1.107319;-0.031002048;-0.46644598;;;;;;;;;;;;;;;
1277.0;1178.7;;;;-1.0900003;-0.032459263;-0.46156698;;;;;;;;;;;;;;;
1277.0;1178.7;;;;-1.0741616;-0.03374863;-0.45644766;;;;;;;;;;;;;;;
1277.0;1178.7;;;;-1.0595552;-0.03524399;-0.45071417;;;;;;;;;;;;;;;
1277.0;1178.7;;;;-1.0440713;-0.03653336;-0.4454537;;;;;;;;;;;;;;;
1277.0;1181.1;90297;90335;13050;;;;;;;;;;;;;;;;;;
1277.0;1186.7;;;;;;;;;;;;;;;;;-54.540394;14.0957365;-29.286325;;1072.1
1277.0;1186.7;;;;;;;;;;;;;;-1.7766656;-1.0398266;-0.51698357;;;;;1072.1
1277.0;1186.7;;;;;;;;;;;;;;;;;-62.654503;8.873257;-31.155582;;1072.1
1277.0;1186.7;;;;;;;;;;;;;;-1.8332468;-1.3971984;-0.64296395;;;;;1072.1
1277.0;1186.7;;;;;;;;;;;;;;;;;-59.129612;-4.8829613;-33.46736;;1081.6
1277.0;1186.7;;;;;;;;;;;;;;-1.6498306;-1.5603503;-0.7311014;;;;;1081.6
1277.0;1186.7;;;;;;;;;;;;;;;;;-40.69643;-11.509293;-32.986694;;1081.6
1277.0;1186.7;;;;;;;;;;;;;;-1.4133122;-1.5853145;-0.7292703;;;;;1081.6
1277.0;1186.7;;;;;;;;;;;;;;;;;-13.496811;-13.393811;-32.006287;;1091.2
1277.0;1186.7;;;;;;;;;;;;;;-1.1988281;-1.429426;-0.6273995;;;;;1091.2
1277.0;1186.7;;;;;;;;;;;;;;;;;14.938811;-15.205847;-31.880398;;1091.2
1277.0;1186.7;;;;;;;;;;;;;;-1.065096;-1.1583606;-0.44801173;;;;;1091.2
1278.0;1187.4;;;;;;;;;;;;;;;;;37.04184;-17.658772;-33.677177;;1100.9
1278.0;1187.4;;;;;;;;;;;;;;-0.8692892;-0.8964507;-0.35041353;;;;;1100.9
1278.0;1187.4;;;;;;;;;;;;;;;;;51.133762;-15.774254;-35.653248;;1100.9
1278.0;1187.4;;;;;;;;;;;;;;-0.73738825;-0.6172674;-0.35718864;;;;;1100.9
1278.0;1187.4;;;;;;;;;;;;;;;;;59.377575;-11.967071;-34.955135;;1110.6
1278.0;1187.4;;;;;;;;;;;;;;-0.7425153;-0.3227027;-0.3927732;;;;;1110.6
1278.0;1187.4;;;;;;;;;;;;;;;;;63.02072;-9.842219;-30.964842;;1110.6
1278.0;1187.4;;;;;;;;;;;;;;-0.7622303;-0.08081301;-0.46919155;;;;;1110.6
1278.0;1187.4;;;;;;;;;;;;;;;;;63.753166;-6.023591;-24.609364;;1120.2
1278.0;1187.4;;;;;;;;;;;;;;-0.81392866;0.05841243;-0.51332134;;;;;1120.2
1278.0;1187.4;;;;;;;;;;;;;;;;;61.11713;-2.3461106;-17.662586;;1120.2
1278.0;1187.4;;;;;;;;;;;;;;-0.82613605;0.114627525;-0.5620899;;;;;1120.2
1278.0;1188.6;;;;-1.028637;-0.03741074;-0.44035345;;;;;;;;;;;;;;;
1278.0;1188.6;;;;-1.0129396;-0.038261417;-0.4316178;;;;;;;;;;;;;;;
1278.0;1188.6;;;;-0.99998105;-0.039169315;-0.42434317;;;;;;;;;;;;;;;
1278.0;1188.6;;;;-0.98858273;-0.04087067;-0.41665655;;;;;;;;;;;;;;;
1278.0;1188.6;;;;-0.97716534;-0.043090824;-0.4082108;;;;;;;;;;;;;;;
1278.0;1198.6;;;;-0.966694;-0.04640198;-0.4021111;;;;;;;;;;;;;;;
1278.0;1198.6;;;;-0.9564706;-0.050144203;-0.396267;;;;;;;;;;;;;;;
1278.0;1198.6;;;;-0.9465562;-0.05451966;-0.389679;;;;;;;;;;;;;;;
1278.0;1198.6;;;;-0.9367715;-0.058769234;-0.3815537;;;;;;;;;;;;;;;
1278.0;1198.6;;;;-0.9271318;-0.06389237;-0.3718796;;;;;;;;;;;;;;;
1278.0;1201.0;106657;106572;13039;;;;;;;;;;;;;;;;;;
1332.0;1207.4;;;;;;;;;;;;;-8;;;;;;;;
1332.0;1207.4;;;;;;;;;;;;;-6;;;;;;;;
1332.0;1207.4;;;;;;;;;;;;;-7;;;;;;;;
1332.0;1207.4;;;;;;;;;;;;;-23;;;;;;;;
1332.0;1207.4;;;;;;;;;;;;;-10;;;;;;;;
1332.0;1208.7;;;;-0.9171716;-0.0685463;-0.36394122;;;;;;;;;;;;;;;
1332.0;1208.7;;;;-0.90760815;-0.07209016;-0.35655978;;;;;;;;;;;;;;;
1332.0;1208.7;;;;-0.8979379;-0.07540131;-0.35105518;;;;;;;;;;;;;;;
1332.0;1208.7;;;;-0.8882295;-0.079048164;-0.34439853;;;;;;;;;;;;;;;
1332.0;1208.7;;;;-0.87765515;-0.08258439;-0.33825687;;;;;;;;;;;;;;;
1332.0;1218.7;;;;-0.8667489;-0.086349495;-0.33220294;;;;;;;;;;;;;;;
1332.0;1218.7;;;;-0.8561441;-0.08989335;-0.32699206;;;;;;;;;;;;;;;
1332.0;1218.7;;;;-0.8452188;-0.0932541;-0.3212128;;;;;;;;;;;;;;;
1332.0;1218.7;;;;-0.8345643;-0.09696199;-0.3162804;;;;;;;;;;;;;;;
1332.0;1218.7;;;;-0.82437146;-0.10087587;-0.3120003;;;;;;;;;;;;;;;
1332.0;1221.2;122986;123027;13043;;;;;;;;;;;;;;;;;;
1332.0;1228.8;;;;-0.8147546;-0.104469314;-0.30793002;;;;;;;;;;;;;;;
1332.0;1228.8;;;;-0.8058206;-0.10813905;-0.3033829;;;;;;;;;;;;;;;
1332.0;1228.8;;;;-0.7978021;-0.1120186;-0.2987328;;;;;;;;;;;;;;;
1332.0;1228.8;;;;-0.79070294;-0.115604416;-0.2962723;;;;;;;;;;;;;;;
1332.0;1228.8;;;;-0.78590786;-0.118820205;-0.2952614;;;;;;;;;;;;;;;
1336.0;1238.9;;;;-0.7828218;-0.12264253;-0.29368213;;;;;;;;;;;;;;;
1336.0;1238.9;;;;-0.78078854;-0.12628557;-0.29405597;;;;;;;;;;;;;;;
1336.0;1238.9;;;;-0.77939236;-0.12942506;-0.29477695;;;;;;;;;;;;;;;
1336.0;1238.9;;;;-0.777382;-0.13312913;-0.2962685;;;;;;;;;;;;;;;
1336.0;1238.9;;;;-0.77454007;-0.13588335;-0.2966042;;;;;;;;;;;;;;;
1336.0;1239.8;;;;;;;;;;;;;;;;;57.00476;2.8000731;-9.834589;;1129.9
1336.0;1239.8;;;;;;;;;;;;;;-0.8890652;0.14355907;-0.57240516;;;;;1129.9
1336.0;1239.8;;;;;;;;;;;;;;;;;52.640614;6.000702;-0.51499987;;1129.9
1336.0;1239.8;;;;;;;;;;;;;;-1.0051576;0.17749566;-0.517716;;;;;1129.9
1336.0;1239.8;;;;;;;;;;;;;;;;;45.819725;6.4661093;8.735923;;1139.5
1336.0;1239.8;;;;;;;;;;;;;;-1.1016572;0.19196142;-0.48072755;;;;;1139.5
1336.0;1239.8;;;;;;;;;;;;;;;;;37.221138;6.8933682;16.884367;;1139.5
1336.0;1239.8;;;;;;;;;;;;;;-1.1340067;0.14734337;-0.47425765;;;;;1139.5
1336.0;1239.8;;;;;;;;;;;;;;;;;27.382732;8.613849;23.094881;;1149.1
1336.0;1239.8;;;;;;;;;;;;;;-1.158971;0.07715079;-0.45631275;;;;;1149.1
1336.0;1239.8;;;;;;;;;;;;;;;;;16.63259;10.986664;27.668842;;1149.1
1336.0;1239.8;;;;;;;;;;;;;;-1.2186651;0.011841182;-0.412183;;;;;1149.1
1338.0;1240.5;;;;;;;;;;;;;;;;;5.104221;11.986145;30.941954;;1158.6
1338.0;1240.5;;;;;;;;;;;;;;-1.2670674;-0.065309614;-0.3905759;;;;;1158.6
1338.0;1240.5;;;;;;;;;;;;;;;;;-5.1957765;11.642812;33.50551;;1158.6
1338.0;1240.5;;;;;;;;;;;;;;-1.3020416;-0.1342204;-0.3853267;;;;;1158.6
1338.0;1240.5;;;;;;;;;;;;;;;;;-13.447219;9.987182;35.412914;;1168.4
1338.0;1240.5;;;;;;;;;;;;;;-1.3003327;-0.17987609;-0.37275308;;;;;1168.4
1338.0;1240.5;;;;;;;;;;;;;;;;;-20.119328;8.40785;36.584064;;1168.4
1338.0;1240.5;;;;;;;;;;;;;;-1.2768945;-0.2033143;-0.35261086;;;;;1168.4
1338.0;1240.5;;;;;;;;;;;;;;;;;-25.742363;7.1832943;37.14484;;1177.9
1338.0;1240.5;;;;;;;;;;;;;;-1.2408826;-0.22058779;-0.3277688;;;;;1177.9
1338.0;1240.5;;;;;;;;;;;;;;;;;-30.549028;6.6492205;36.950287;;1177.9
1338.0;1240.5;;;;;;;;;;;;;;-1.1882687;-0.23700674;-0.2936491;;;;;1177.9
1338.0;1241.2;139389;139364;13036;;;;;;;;;;;;;;;;;;
1338.0;1247.5;;;;;;;;;;;;;-42;;;;;;;;
1338.0;1247.5;;;;;;;;;;;;;-32;;;;;;;;
1338.0;1247.5;;;;;;;;;;;;;4;;;;;;;;
1338.0;1247.5;;;;;;;;;;;;;-174;;;;;;;;
1338.0;1247.5;;;;;;;;;;;;;49;;;;;;;;
1338.0;1248.8;;;;-0.7719041;-0.13650514;-0.29470447;;;;;;;;;;;;;;;
1338.0;1248.8;;;;-0.76932156;-0.13524248;-0.29285052;;;;;;;;;;;;;;;
1338.0;1248.8;;;;-0.76898587;-0.13376237;-0.2928734;;;;;;;;;;;;;;;
1338.0;1248.8;;;;-0.7698556;-0.13159563;-0.2925873;;;;;;;;;;;;;;;
1338.0;1248.8;;;;-0.773018;-0.12998582;-0.29222873;;;;;;;;;;;;;;;
1392.0;1258.8;;;;-0.77581036;-0.12845613;-0.29098514;;;;;;;;;;;;;;;
1392.0;1258.8;;;;-0.7787553;-0.1269684;-0.28973392;;;;;;;;;;;;;;;
1392.0;1258.8;;;;-0.78149045;-0.12648393;-0.28882983;;;;;;;;;;;;;;;
1392.0;1258.8;;;;-0.78400815;-0.12782289;-0.2867203;;;;;;;;;;;;;;;
1392.0;1258.8;;;;-0.78733456;-0.13059236;-0.28704074;;;;;;;;;;;;;;;
1392.0;1261.4;155774;155815;13041;;;;;;;;;;;;;;;;;;
1392.0;1268.9;;;;-0.79114926;-0.13471223;-0.2872887;;;;;;;;;;;;;;;
1392.0;1268.9;;;;-0.7941896;-0.13902666;-0.28712848;;;;;;;;;;;;;;;
1392.0;1268.9;;;;-0.79636776;-0.14306642;-0.28783038;;;;;;;;;;;;;;;
1392.0;1268.9;;;;-0.79913723;-0.14601518;-0.28719714;;;;;;;;;;;;;;;
1392.0;1268.9;;;;-0.80284894;-0.14788057;-0.2863846;;;;;;;;;;;;;;;
1392.0;1278.9;;;;-0.80733883;-0.1488991;-0.28606036;;;;;;;;;;;;;;;
1392.0;1278.9;;;;-0.81081784;-0.14912035;-0.2845116;;;;;;;;;;;;;;;
1392.0;1278.9;;;;-0.81365216;-0.14881136;-0.28189853;;;;;;;;;;;;;;;
1392.0;1278.9;;;;-0.81658185;-0.14816667;-0.2785416;;;;;;;;;;;;;;;
1392.0;1278.9;;;;-0.8181268;-0.14862825;-0.27473834;;;;;;;;;;;;;;;
1392.0;1281.5;172188;172258;13040;;;;;;;;;;;;;;;;;;
1392.0;1287.8;;;;;;;;;;;;;451;;;;;;;;
1392.0;1287.8;;;;;;;;;;;;;-249;;;;;;;;
1392.0;1287.8;;;;;;;;;;;;;-1048;;;;;;;;
1392.0;1287.8;;;;;;;;;;;;;664;;;;;;;;
1392.0;1287.8;;;;;;;;;;;;;5437;;;;;;;;
1397.0;1289.0;;;;-0.8189508;-0.14916994;-0.26931766;;;;;;;;;;;;;;;
1397.0;1289.0;;;;-0.8205377;-0.14993288;-0.2654076;;;;;;;;;;;;;;;
1397.0;1289.0;;;;-0.8214723;-0.15074159;-0.26008227;;;;;;;;;;;;;;;
1397.0;1289.0;;;;-0.8226396;-0.15235902;-0.25489047;;;;;;;;;;;;;;;
1397.0;1289.0;;;;-0.824505;-0.15346147;-0.24943927;;;;;;;;;;;;;;;
1397.0;1299.1;;;;-0.8269311;-0.15426256;-0.24317935;;;;;;;;;;;;;;;
1397.0;1299.1;;;;-0.83082974;-0.155365;-0.23791125;;;;;;;;;;;;;;;
1397.0;1299.1;;;;-0.83436596;-0.1567116;-0.23392871;;;;;;;;;;;;;;;
1397.0;1299.1;;;;-0.8373414;-0.15761186;-0.23048785;;;;;;;;;;;;;;;
1397.0;1299.1;;;;-0.83945096;-0.15861513;-0.22756961;;;;;;;;;;;;;;;
1397.0;1299.6;;;;;;;;;;;;;;;;;-34.897915;6.477554;36.30558;;1187.6
1397.0;1299.6;;;;;;;;;;;;;;-1.139317;-0.25818658;-0.27161473;;;;;1187.6
1397.0;1299.6;;;;;;;;;;;;;;;;;-38.621174;5.954924;35.103916;;1187.6
1397.0;1299.6;;;;;;;;;;;;;;-1.0710776;-0.29425946;-0.25318155;;;;;1187.6
1397.0;1299.6;;;;;;;;;;;;;;;;;-41.169468;5.603961;33.677177;;1197.2
1397.0;1299.6;;;;;;;;;;;;;;-1.012299;-0.33429974;-0.23865475;;;;;1197.2
1397.0;1299.6;;;;;;;;;;;;;;;;;-42.291023;5.432295;32.155064;;1197.2
1397.0;1299.6;;;;;;;;;;;;;;-0.95919675;-0.37714773;-0.22644734;;;;;1197.2
1397.0;1299.6;;;;;;;;;;;;;;;;;-41.989655;5.1881466;30.640583;;1206.9
1397.0;1299.6;;;;;;;;;;;;;;-0.916776;-0.41987365;-0.21198156;;;;;1206.9
1397.0;1299.6;;;;;;;;;;;;;;;;;-41.337322;5.077517;28.965881;;1206.9
1397.0;1299.6;;;;;;;;;;;;;;-0.88253427;-0.4519181;-0.19806513;;;;;1206.9
1399.0;1300.4;;;;;;;;;;;;;;;;;-40.215763;4.9172945;27.222511;;1216.6
1399.0;1300.4;;;;;;;;;;;;;;-0.852443;-0.48121586;-0.19104587;;;;;1216.6
1399.0;1300.4;;;;;;;;;;;;;;;;;-38.36558;4.734184;25.608845;;1216.6
1399.0;1300.4;;;;;;;;;;;;;;-0.82168037;-0.50758386;-0.18182927;;;;;1216.6
1399.0;1300.4;;;;;;;;;;;;;;;;;-35.8211;4.7227397;24.414808;;1226.3
1399.0;1300.4;;;;;;;;;;;;;;-0.8024537;-0.5251015;-0.17126988;;;;;1226.3
1399.0;1300.4;;;;;;;;;;;;;;;;;-32.36488;4.6540728;23.529772;;1226.3
1399.0;1300.4;;;;;;;;;;;;;;-0.78872037;-0.5315714;-0.1721244;;;;;1226.3
1399.0;1300.4;;;;;;;;;;;;;;;;;-28.214361;4.50148;23.060549;;1236.0
1399.0;1300.4;;;;;;;;;;;;;;-0.79586166;-0.5223548;-0.17401654;;;;;1236.0
1399.0;1300.4;;;;;;;;;;;;;;;;;-24.388105;3.5554063;22.690512;;1236.0
1399.0;1300.4;;;;;;;;;;;;;;-0.7819452;-0.49525437;-0.18744469;;;;;1236.0
1399.0;1301.6;188551;188651;13035;;;;;;;;;;;;;;;;;;
1399.0;1308.9;;;;-0.840912;-0.15943147;-0.2242699;;;;;;;;;;;;;;;
1399.0;1308.9;;;;-0.8415376;-0.16023637;-0.22170642;;;;;;;;;;;;;;;
1399.0;1308.9;;;;-0.8404466;-0.16186906;-0.21948627;;;;;;;;;;;;;;;
1399.0;1308.9;;;;-0.8380662;-0.16416551;-0.21721652;;;;;;;;;;;;;;;
1399.0;1308.9;;;;-0.8346025;-0.16588594;-0.21377185;;;;;;;;;;;;;;;
1403.0;1314.5;;;;;;;;;;;;;;;;;-20.821253;3.1701102;22.694326;;1245.7
1403.0;1314.5;;;;;;;;;;;;;;-0.7884152;-0.4655904;-0.19757684;;;;;1245.7
1403.0;1314.5;;;;;;;;;;;;;;;;;-17.567217;1.3580737;22.896511;;1245.7
1403.0;1314.5;;;;;;;;;;;;;;-0.7768792;-0.44032106;-0.20209357;;;;;1245.7
1403.0;1314.5;;;;;;;;;;;;;;;;;-14.801477;-0.1678518;23.117771;;1255.3
1403.0;1314.5;;;;;;;;;;;;;;-0.77468187;-0.42518386;-0.19525743;;;;;1255.3
1403.0;1314.5;;;;;;;;;;;;;;;;;-12.516403;-1.167333;23.224586;;1255.3
1403.0;1314.5;;;;;;;;;;;;;;-0.7654042;-0.4115726;-0.17847225;;;;;1255.3
1403.0;1314.5;;;;;;;;;;;;;;;;;-10.616627;-1.5793328;22.892696;;1265.0
1403.0;1314.5;;;;;;;;;;;;;;-0.7361675;-0.41328165;-0.16772974;;;;;1265.0
1403.0;1314.5;;;;;;;;;;;;;;;;;-8.770256;-1.0299997;22.350992;;1265.0
1403.0;1314.5;;;;;;;;;;;;;;-0.7309793;-0.41834772;-0.16797388;;;;;1265.0
1403.0;1318.8;;;;-0.83044064;-0.1676407;-0.21050265;;;;;;;;;;;;;;;
1403.0;1318.8;;;;-0.827839;-0.16920473;-0.20723346;;;;;;;;;;;;;;;
1403.0;1318.8;;;;-0.82654583;-0.17087175;-0.20429614;;;;;;;;;;;;;;;
1403.0;1318.8;;;;-0.82561123;-0.17214204;-0.20084003;;;;;;;;;;;;;;;
1403.0;1318.8;;;;-0.8262521;-0.17348482;-0.19733813;;;;;;;;;;;;;;;
1403.0;1321.5;204913;204992;13036;;;;;;;;;;;;;;;;;;
1403.0;1327.8;;;;;;;;;;;;;10212;;;;;;;;
1403.0;1327.8;;;;;;;;;;;;;11661;;;;;;;;
1403.0;1327.8;;;;;;;;;;;;;10235;;;;;;;;
1403.0;1327.8;;;;;;;;;;;;;8815;;;;;;;;
1403.0;1327.8;;;;;;;;;;;;;8683;;;;;;;;
1455.0;1328.8;;;;-0.8286668;-0.17528535;-0.19368747;;;;;;;;;;;;;;;
1455.0;1328.8;;;;-0.8301393;-0.17640306;-0.19031909;;;;;;;;;;;;;;;
1455.0;1328.8;;;;-0.8322183;-0.17730333;-0.18742754;;;;;;;;;;;;;;;
1455.0;1328.8;;;;-0.8336717;-0.17861558;-0.18449785;;;;;;;;;;;;;;;
1455.0;1328.8;;;;-0.8356401;-0.17972566;-0.1808777;;;;;;;;;;;;;;;
1455.0;1338.8;;;;-0.8372079;-0.18078233;-0.17722704;;;;;;;;;;;;;;;
1455.0;1338.8;;;;-0.8385736;-0.18193056;-0.1740532;;;;;;;;;;;;;;;
1455.0;1338.8;;;;-0.84017575;-0.18273927;-0.17091371;;;;;;;;;;;;;;;
1455.0;1338.8;;;;-0.84207165;-0.18359376;-0.16780092;;;;;;;;;;;;;;;
1455.0;1338.8;;;;-0.8435708;-0.18339922;-0.16419603;;;;;;;;;;;;;;;
1455.0;1341.6;221332;221305;13037;;;;;;;;;;;;;;;;;;
1455.0;1348.9;;;;-0.843197;-0.18341829;-0.16051103;;;;;;;;;;;;;;;
1455.0;1348.9;;;;-0.8413774;-0.18283845;-0.1577759;;;;;;;;;;;;;;;
1455.0;1348.9;;;;-0.83926404;-0.18260194;-0.15558244;;;;;;;;;;;;;;;
1455.0;1348.9;;;;-0.83789074;-0.18197252;-0.15358736;;;;;;;;;;;;;;;
1455.0;1348.9;;;;-0.8376161;-0.18125154;-0.15187837;;;;;;;;;;;;;;;
1455.0;1359.0;;;;-0.8364793;-0.18080904;-0.15090944;;;;;;;;;;;;;;;
1455.0;1359.0;;;;-0.83500683;-0.17967607;-0.14995576;;;;;;;;;;;;;;;
1455.0;1359.0;;;;-0.8328134;-0.17928316;-0.14827348;;;;;;;;;;;;;;;
1455.0;1359.0;;;;-0.82979596;-0.17882921;-0.14751817;;;;;;;;;;;;;;;
1455.0;1359.0;;;;-0.82722104;-0.17915346;-0.14694597;;;;;;;;;;;;;;;
1457.0;1360.2;;;;;;;;;;;;;;;;;-6.5347757;-1.0528886;21.805475;;1274.7
1457.0;1360.2;;;;;;;;;;;;;;-0.7187109;-0.41810358;-0.17401654;;;;;1274.7
1457.0;1360.2;;;;;;;;;;;;;;;;;-4.928739;-1.3199255;21.30192;;1274.7
1457.0;1360.2;;;;;;;;;;;;;;-0.70003355;-0.41578418;-0.17944884;;;;;1274.7
1457.0;1360.2;;;;;;;;;;;;;;;;;-4.1123695;-1.4725181;20.825068;;1284.2
1457.0;1360.2;;;;;;;;;;;;;;-0.68813133;-0.41639453;-0.18378246;;;;;1284.2
1457.0;1360.2;;;;;;;;;;;;;;;;;-2.948851;-1.7700735;20.60381;;1284.2
1457.0;1360.2;;;;;;;;;;;;;;-0.67812127;-0.41828668;-0.18018128;;;;;1284.2
1457.0;1360.2;;;;;;;;;;;;;;;;;-1.9150364;-1.9226661;20.29481;;1293.9
1457.0;1360.2;;;;;;;;;;;;;;-0.66963714;-0.42023987;-0.17664114;;;;;1293.9
1457.0;1360.2;;;;;;;;;;;;;;;;;-0.8163701;-1.4305551;19.856104;;1293.9
1457.0;1360.2;;;;;;;;;;;;;;-0.6643269;-0.42982268;-0.17523728;;;;;1293.9
1457.0;1361.8;237661;237793;13035;;;;;;;;;;;;;;;;;;
1457.0;1368.0;;;;;;;;;;;;;8368;;;;;;;;
1457.0;1368.0;;;;;;;;;;;;;7377;;;;;;;;
1457.0;1368.0;;;;;;;;;;;;;6740;;;;;;;;
1457.0;1368.0;;;;;;;;;;;;;6397;;;;;;;;
1457.0;1368.0;;;;;;;;;;;;;6062;;;;;;;;
1457.0;1368.9;;;;-0.8246995;-0.17899705;-0.14656068;;;;;;;;;;;;;;;
1457.0;1368.9;;;;-0.82185376;-0.17855074;-0.14593507;;;;;;;;;;;;;;;
1457.0;1368.9;;;;-0.81834805;-0.178463;-0.14489366;;;;;;;;;;;;;;;
1457.0;1368.9;;;;-0.81339276;-0.17789842;-0.14428712;;;;;;;;;;;;;;;
1457.0;1368.9;;;;-0.8078233;-0.17703249;-0.14340593;;;;;;;;;;;;;;;
1515.0;1374.7;;;;;;;;;;;;;;;;;1.3046663;-0.65614796;19.379255;;1303.6
1515.0;1374.7;;;;;;;;;;;;;;-0.6687826;-0.4365978;-0.15607166;;;;;1303.6
1515.0;1374.7;;;;;;;;;;;;;;;;;3.7347028;-0.32807398;19.013033;;1303.6
1515.0;1374.7;;;;;;;;;;;;;;-0.68282115;-0.4384289;-0.13269448;;;;;1303.6
1515.0;1374.7;;;;;;;;;;;;;;;;;6.8437757;-0.38911098;18.848995;;1313.2
1515.0;1374.7;;;;;;;;;;;;;;-0.69753104;-0.44233528;-0.12286752;;;;;1313.2
1515.0;1374.7;;;;;;;;;;;;;;;;;10.593738;-1.1368145;18.719292;;1313.2
1515.0;1374.7;;;;;;;;;;;;;;-0.70168155;-0.43897825;-0.117435224;;;;;1313.2
1515.0;1374.7;;;;;;;;;;;;;;;;;13.546404;-1.9188513;18.272957;;1322.7
1515.0;1374.7;;;;;;;;;;;;;;-0.71535385;-0.42738122;-0.109866634;;;;;1322.7
1515.0;1374.7;;;;;;;;;;;;;;;;;14.877774;-3.3303325;17.361216;;1322.7
1515.0;1374.7;;;;;;;;;;;;;;-0.7217628;-0.4234138;-0.115848266;;;;;1322.7
1515.0;1378.8;;;;-0.8022615;-0.17612459;-0.14170076;;;;;;;;;;;;;;;
1515.0;1378.8;;;;-0.79608166;-0.17486574;-0.1406746;;;;;;;;;;;;;;;
1515.0;1378.8;;;;-0.7898294;-0.1738434;-0.1406746;;;;;;;;;;;;;;;
1515.0;1378.8;;;;-0.78309643;-0.1730919;-0.14100648;;;;;;;;;;;;;;;
1515.0;1378.8;;;;-0.7766;-0.17290498;-0.14143373;;;;;;;;;;;;;;;
1515.0;1381.7;254042;254115;13050;;;;;;;;;;;;;;;;;;
1515.0;1388.9;;;;-0.77054226;-0.17315675;-0.14189531;;;;;;;;;;;;;;;
1515.0;1388.9;;;;-0.7642671;-0.17319871;-0.1418686;;;;;;;;;;;;;;;
1515.0;1388.9;;;;-0.758587;-0.17317201;-0.14180757;;;;;;;;;;;;;;;
1515.0;1388.9;;;;-0.75371563;-0.17333986;-0.14215852;;;;;;;;;;;;;;;
1515.0;1388.9;;;;-0.7496758;-0.1734009;-0.14138414;;;;;;;;;;;;;;;
1521.0;1399.0;;;;-0.7462998;-0.17311098;-0.1408043;;;;;;;;;;;;;;;
1521.0;1399.0;;;;-0.7441903;-0.17284013;-0.14125444;;;;;;;;;;;;;;;
1521.0;1399.0;;;;-0.7433968;-0.17271806;-0.1415291;;;;;;;;;;;;;;;
1521.0;1399.0;;;;-0.74239737;-0.17291643;-0.14180757;;;;;;;;;;;;;;;
1521.0;1399.0;;;;-0.74161536;-0.17383958;-0.14263536;;;;;;;;;;;;;;;
1521.0;1402.0;262143;262143;13051;;;;;;;;;;;;;;;;;;
1521.0;1408.3;;;;;;;;;;;;;5747;;;;;;;;
1521.0;1408.3;;;;;;;;;;;;;5427;;;;;;;;
1521.0;1408.3;;;;;;;;;;;;;5309;;;;;;;;
1521.0;1408.3;;;;;;;;;;;;;5275;;;;;;;;
1521.0;1408.3;;;;;;;;;;;;;5122;;;;;;;;
1521.0;1409.1;;;;-0.7406617;-0.17479326;-0.14405443;;;;;;;;;;;;;;;
1521.0;1409.1;;;;-0.7398568;-0.17508699;-0.14562227;;;;;;;;;;;;;;;
1521.0;1409.1;;;;-0.7393914;-0.17556764;-0.1479416;;;;;;;;;;;;;;;
1521.0;1409.1;;;;-0.7390786;-0.17568971;-0.15098192;;;;;;;;;;;;;;;
1521.0;1409.1;;;;-0.7386208;-0.17562868;-0.15318681;;;;;;;;;;;;;;;
1521.0;1419.2;;;;-0.73847204;-0.17546846;-0.15493776;;;;;;;;;;;;;;;
1521.0;1419.2;;;;-0.7385445;-0.17507555;-0.15744402;;;;;;;;;;;;;;;
1521.0;1419.2;;;;-0.7397042;-0.17456819;-0.15924837;;;;;;;;;;;;;;;
1521.0;1419.2;;;;-0.74278265;-0.17391588;-0.16098024;;;;;;;;;;;;;;;
1521.0;1419.2;;;;-0.7469216;-0.17319109;-0.16331483;;;;;;;;;;;;;;;
1523.0;1420.1;;;;;;;;;;;;;;;;;15.160069;-4.9172945;16.254921;;1332.4
1523.0;1420.1;;;;;;;;;;;;;;-0.71883297;-0.4194464;-0.1264687;;;;;1332.4
1523.0;1420.1;;;;;;;;;;;;;;;;;14.915922;-6.0464797;15.213477;;1332.4
1523.0;1420.1;;;;;;;;;;;;;;-0.7193823;-0.41828668;-0.13196203;;;;;1332.4
1523.0;1420.1;;;;;;;;;;;;;;;;;15.182959;-6.6759243;14.305552;;1342.1
1523.0;1420.1;;;;;;;;;;;;;;-0.715598;-0.40656757;-0.14270455;;;;;1342.1
1523.0;1420.1;;;;;;;;;;;;;;;;;15.625477;-6.878109;13.256477;;1342.1
1523.0;1420.1;;;;;;;;;;;;;;-0.7098605;-0.38062686;-0.1445967;;;;;1342.1
1523.0;1420.1;;;;;;;;;;;;;;;;;16.010773;-7.045961;12.024293;;1351.7
1523.0;1420.1;;;;;;;;;;;;;;-0.7035737;-0.35419783;-0.1386761;;;;;1351.7
1523.0;1420.1;;;;;;;;;;;;;;;;;15.217292;-7.816553;10.319071;;1351.7
1523.0;1420.1;;;;;;;;;;;;;;-0.69435716;-0.3213599;-0.14123966;;;;;1351.7
1523.0;1422.2;262143;262143;13046;;;;;;;;;;;;;;;;;;
1523.0;1429.2;;;;-0.7518121;-0.17263795;-0.16515352;;;;;;;;;;;;;;;
1523.0;1429.2;;;;-0.756817;-0.17228319;-0.16687013;;;;;;;;;;;;;;;
1523.0;1429.2;;;;-0.7615243;-0.1720009;-0.16919328;;;;;;;;;;;;;;;
1523.0;1429.2;;;;-0.76532376;-0.17169191;-0.17121126;;;;;;;;;;;;;;;
1523.0;1429.2;;;;-0.7681848;-0.17134477;-0.17301561;;;;;;;;;;;;;;;
1525.0;1435.2;;;;;;;;;;;;;;;;;12.684256;-9.067812;8.560442;;1361.4
1525.0;1435.2;;;;;;;;;;;;;;-0.67232275;-0.29755548;-0.16193122;;;;;1361.4
1525.0;1435.2;;;;;;;;;;;;;;;;;9.254738;-10.376293;7.0078125;;1361.4
1525.0;1435.2;;;;;;;;;;;;;;-0.6459548;-0.2832728;-0.1947081;;;;;1361.4
1525.0;1435.2;;;;;;;;;;;;;;;;;6.9009976;-10.544146;5.767998;;1371.0
1525.0;1435.2;;;;;;;;;;;;;;-0.62245554;-0.27900022;-0.17969298;;;;;1371.0
1525.0;1435.2;;;;;;;;;;;;;;;;;4.7036653;-9.838404;5.11948;;1371.0
1525.0;1435.2;;;;;;;;;;;;;;-0.616596;-0.27521592;-0.18774988;;;;;1371.0
1525.0;1435.2;;;;;;;;;;;;;;;;;3.4333322;-10.116886;4.799036;;1380.7
1525.0;1435.2;;;;;;;;;;;;;;-0.60573137;-0.2807703;-0.23603015;;;;;1380.7
1525.0;1435.2;;;;;;;;;;;;;;;;;3.5287027;-11.268959;4.6388135;;1380.7
1525.0;1435.2;;;;;;;;;;;;;;-0.58937347;-0.29963073;-0.26483962;;;;;1380.7
1525.0;1439.1;;;;-0.7704469;-0.17094804;-0.1749077;;;;;;;;;;;;;;;
1525.0;1439.1;;;;-0.7732011;-0.16963197;-0.17632295;;;;;;;;;;;;;;;
1525.0;1439.1;;;;-0.7756463;-0.16835786;-0.17803194;;;;;;;;;;;;;;;
1525.0;1439.1;;;;-0.77853787;-0.16699983;-0.17950822;;;;;;;;;;;;;;;
1525.0;1439.1;;;;-0.781376;-0.16567613;-0.18109514;;;;;;;;;;;;;;;
1525.0;1442.2;262143;262143;13037;;;;;;;;;;;;;;;;;;
1525.0;1448.4;;;;;;;;;;;;;4913;;;;;;;;
1525.0;1448.4;;;;;;;;;;;;;4684;;;;;;;;
1525.0;1448.4;;;;;;;;;;;;;4360;;;;;;;;
1525.0;1448.4;;;;;;;;;;;;;3998;;;;;;;;
1525.0;1448.4;;;;;;;;;;;;;3735;;;;;;;;
1571.0;1449.1;;;;-0.7832986;-0.16419984;-0.18199159;;;;;;;;;;;;;;;
1571.0;1449.1;;;;-0.7862779;-0.16232301;-0.18265535;;;;;;;;;;;;;;;
1571.0;1449.1;;;;-0.78891385;-0.1605797;-0.18341829;;;;;;;;;;;;;;;
1571.0;1449.1;;;;-0.7908975;-0.15893556;-0.18477632;;;;;;;;;;;;;;;
1571.0;1449.1;;;;-0.79225934;-0.15804674;-0.18646623;;;;;;;;;;;;;;;
1571.0;1459.0;;;;-0.79330456;-0.15757371;-0.18792346;;;;;;;;;;;;;;;
1571.0;1459.0;;;;-0.7940484;-0.15695573;-0.18861774;;;;;;;;;;;;;;;
1571.0;1459.0;;;;-0.79412854;-0.15605547;-0.18984607;;;;;;;;;;;;;;;
1571.0;1459.0;;;;-0.79332364;-0.15506364;-0.19218448;;;;;;;;;;;;;;;
1571.0;1459.0;;;;-0.79233944;-0.15375902;-0.1935158;;;;;;;;;;;;;;;
1571.0;1462.2;262143;262143;13045;;;;;;;;;;;;;;;;;;
1571.0;1469.1;;;;-0.7909738;-0.15198137;-0.19493869;;;;;;;;;;;;;;;
1571.0;1469.1;;;;-0.7900239;-0.15000917;-0.19642642;;;;;;;;;;;;;;;
1571.0;1469.1;;;;-0.78855145;-0.1478119;-0.19737247;;;;;;;;;;;;;;;
1571.0;1469.1;;;;-0.7876321;-0.14570238;-0.19776157;;;;;;;;;;;;;;;
1571.0;1469.1;;;;-0.78670895;-0.14265825;-0.19861987;;;;;;;;;;;;;;;
1571.0;1479.2;;;;-0.7858621;-0.13973619;-0.19992068;;;;;;;;;;;;;;;
1571.0;1479.2;;;;-0.7851831;-0.13721849;-0.20045856;;;;;;;;;;;;;;;
1571.0;1479.2;;;;-0.7849847;-0.13479997;-0.2000809;;;;;;;;;;;;;;;
1571.0;1479.2;;;;-0.7838136;-0.13194658;-0.20089725;;;;;;;;;;;;;;;
1571.0;1479.2;;;;-0.78296673;-0.12903978;-0.2009888;;;;;;;;;;;;;;;
1581.0;1480.6;;;;;;;;;;;;;;;;;2.517777;-12.092959;4.3679614;;1390.3
1581.0;1480.6;;;;;;;;;;;;;;-0.581988;-0.31653798;-0.27704704;;;;;1390.3
1581.0;1480.6;;;;;;;;;;;;;;;;;0.049592577;-11.9747;3.8834803;;1390.3
1581.0;1480.6;;;;;;;;;;;;;;-0.5865047;-0.3225196;-0.2725303;;;;;1390.3
1581.0;1480.6;;;;;;;;;;;;;;;;;-2.25074;-11.360515;3.0251474;;1400.0
1581.0;1480.6;;;;;;;;;;;;;;-0.6012757;-0.33875546;-0.26850185;;;;;1400.0
1581.0;1480.6;;;;;;;;;;;;;;;;;-3.784295;-10.364849;2.0447402;;1400.0
1581.0;1480.6;;;;;;;;;;;;;;-0.6159856;-0.3408307;-0.26221505;;;;;1400.0
1581.0;1480.6;;;;;;;;;;;;;;;;;-5.5887017;-9.434034;0.71718496;;1409.6
1581.0;1480.6;;;;;;;;;;;;;;-0.6319773;-0.35261086;-0.2700278;;;;;1409.6
1581.0;1480.6;;;;;;;;;;;;;;;;;-6.7979984;-8.915219;-0.5836665;;1409.6
1581.0;1480.6;;;;;;;;;;;;;;-0.6472365;-0.36957914;-0.2563555;;;;;1409.6
1581.0;1482.3;262143;262143;13044;;;;;;;;;;;;;;;;;;
1581.0;1487.7;;;;;;;;;;;;;;;;;-7.435072;-8.484145;-2.2392957;;1419.3
1581.0;1487.7;;;;;;;;;;;;;;-0.6621296;-0.37391278;-0.20984527;;;;;1419.3
1581.0;1487.7;;;;;;;;;;;;;;;;;-9.403516;-7.351146;-4.1924806;;1419.3
1581.0;1487.7;;;;;;;;;;;;;;-0.6938078;-0.37720877;-0.18811609;;;;;1419.3
1581.0;1487.7;;;;;;;;;;;;;;;;;-11.539811;-7.209998;-6.302072;;1428.9
1581.0;1487.7;;;;;;;;;;;;;;-0.7116916;-0.38013855;-0.17468795;;;;;1428.9
1581.0;1487.7;;;;;;;;;;;;;;;;;-12.573626;-7.5228124;-8.388776;;1428.9
1581.0;1487.7;;;;;;;;;;;;;;-0.73482466;-0.37318033;-0.14703818;;;;;1428.9
1581.0;1487.7;;;;;;;;;;;;;;;;;-12.993256;-8.430738;-10.639516;;1438.6
1581.0;1487.7;;;;;;;;;;;;;;-0.74416333;-0.37928402;-0.15106662;;;;;1438.6
1581.0;1487.7;;;;;;;;;;;;;;;;;-13.481552;-9.823145;-12.939848;;1438.6
1581.0;1487.7;;;;;;;;;;;;;;-0.73519087;-0.3979003;-0.17322306;;;;;1438.6
1581.0;1488.4;;;;;;;;;;;;;3505;;;;;;;;
1581.0;1488.4;;;;;;;;;;;;;3158;;;;;;;;
1581.0;1488.4;;;;;;;;;;;;;2804;;;;;;;;
1581.0;1488.4;;;;;;;;;;;;;2805;;;;;;;;
1581.0;1488.4;;;;;;;;;;;;;3378;;;;;;;;
1581.0;1489.1;;;;-0.78224194;-0.1258774;-0.20115665;;;;;;;;;;;;;;;
1581.0;1489.1;;;;-0.78179944;-0.1233864;-0.20122531;;;;;;;;;;;;;;;
1581.0;1489.1;;;;-0.7813989;-0.120777145;-0.20137027;;;;;;;;;;;;;;;
1581.0;1489.1;;;;-0.7805177;-0.11814882;-0.20107654;;;;;;;;;;;;;;;
1581.0;1489.1;;;;-0.77734387;-0.11539461;-0.19997028;;;;;;;;;;;;;;;
1635.0;1499.1;;;;-0.77415097;-0.112712875;-0.19796374;;;;;;;;;;;;;;;
1635.0;1499.1;;;;-0.77040493;-0.11057283;-0.19724277;;;;;;;;;;;;;;;
1635.0;1499.1;;;;-0.7670709;-0.10852434;-0.19625095;;;;;;;;;;;;;;;
1635.0;1499.1;;;;-0.76459515;-0.106361404;-0.19487002;;;;;;;;;;;;;;;
1635.0;1499.1;;;;-0.7623292;-0.10499574;-0.19246295;;;;;;;;;;;;;;;
1635.0;1502.4;262143;262143;13052;;;;;;;;;;;;;;;;;;
1635.0;1509.2;;;;-0.760399;-0.10363771;-0.18963245;;;;;;;;;;;;;;;
1635.0;1509.2;;;;-0.75893414;-0.10216905;-0.18514635;;;;;;;;;;;;;;;
1635.0;1509.2;;;;-0.75811017;-0.100807205;-0.18066026;;;;;;;;;;;;;;;
1635.0;1509.2;;;;-0.7566072;-0.09889604;-0.17656709;;;;;;;;;;;;;;;
1635.0;1509.2;;;;-0.7546693;-0.09730531;-0.17395021;;;;;;;;;;;;;;;
1635.0;1519.1;;;;-0.7518693;-0.09529497;-0.17214967;;;;;;;;;;;;;;;
1635.0;1519.1;;;;-0.7498017;-0.093097694;-0.17033388;;;;;;;;;;;;;;;
1635.0;1519.1;;;;-0.7475777;-0.09090806;-0.1677437;;;;;;;;;;;;;;;
1635.0;1519.1;;;;-0.7474862;-0.08869935;-0.16606142;;;;;;;;;;;;;;;
1635.0;1519.1;;;;-0.7474862;-0.087299354;-0.16349031;;;;;;;;;;;;;;;
1635.0;1522.4;262143;262143;13049;;;;;;;;;;;;;;;;;;
1635.0;1528.6;;;;;;;;;;;;;4098;;;;;;;;
1635.0;1528.6;;;;;;;;;;;;;4356;;;;;;;;
1635.0;1528.6;;;;;;;;;;;;;4164;;;;;;;;
1635.0;1528.6;;;;;;;;;;;;;3603;;;;;;;;
1635.0;1528.6;;;;;;;;;;;;;2826;;;;;;;;
1638.0;1529.2;;;;-0.74563223;-0.08547593;-0.15876772;;;;;;;;;;;;;;;
1638.0;1529.2;;;;-0.74329;-0.0837555;-0.15790941;;;;;;;;;;;;;;;
1638.0;1529.2;;;;-0.7406617;-0.0824318;-0.1595154;;;;;;;;;;;;;;;
1638.0;1529.2;;;;-0.73914725;-0.08200074;-0.15903474;;;;;;;;;;;;;;;
1638.0;1529.2;;;;-0.73977286;-0.082305916;-0.15563966;;;;;;;;;;;;;;;
1638.0;1539.3;;;;-0.7437478;-0.08278275;-0.15312959;;;;;;;;;;;;;;;
1638.0;1539.3;;;;-0.74844366;-0.08231736;-0.15005495;;;;;;;;;;;;;;;
1638.0;1539.3;;;;-0.7528535;-0.082378395;-0.14873888;;;;;;;;;;;;;;;
1638.0;1539.3;;;;-0.75608456;-0.08197022;-0.14792253;;;;;;;;;;;;;;;
1638.0;1539.3;;;;-0.75946057;-0.08090211;-0.1460457;;;;;;;;;;;;;;;
1638.0;1540.5;;;;;;;;;;;;;;;;;-14.683218;-10.54796;-15.331736;;1448.3
1638.0;1540.5;;;;;;;;;;;;;;-0.7235328;-0.40479752;-0.17334513;;;;;1448.3
1638.0;1540.5;;;;;;;;;;;;;;;;;-15.648365;-10.345775;-17.979218;;1448.3
1638.0;1540.5;;;;;;;;;;;;;;-0.7340312;-0.4177984;-0.1462447;;;;;1448.3
1638.0;1540.5;;;;;;;;;;;;;;;;;-15.560625;-11.013368;-20.542772;;1457.9
1638.0;1540.5;;;;;;;;;;;;;;-0.74019593;-0.42603838;-0.11517686;;;;;1457.9
1638.0;1540.5;;;;;;;;;;;;;;;;;-14.675589;-12.714774;-23.068178;;1457.9
1638.0;1540.5;;;;;;;;;;;;;;-0.7376934;-0.43195897;-0.10290842;;;;;1457.9
1638.0;1540.5;;;;;;;;;;;;;;;;;-14.023255;-14.271218;-25.696585;;1467.6
1638.0;1540.5;;;;;;;;;;;;;;-0.73146766;-0.44428846;-0.11548204;;;;;1467.6
1638.0;1540.5;;;;;;;;;;;;;;;;;-13.157292;-15.957365;-28.202917;;1467.6
1638.0;1540.5;;;;;;;;;;;;;;-0.7195654;-0.46168402;-0.13660085;;;;;1467.6
1638.0;1542.6;262143;262143;13046;;;;;;;;;;;;;;;;;;
1640.0;1548.0;;;;;;;;;;;;;;;;;-11.089663;-17.818995;-30.713064;;1477.3
1640.0;1548.0;;;;;;;;;;;;;;-0.71199685;-0.47285378;-0.10699789;;;;;1477.3
1640.0;1548.0;;;;;;;;;;;;;;;;;-8.270516;-19.581438;-33.341473;;1477.3
1640.0;1548.0;;;;;;;;;;;;;;-0.7168798;-0.4801172;-0.042909026;;;;;1477.3
1640.0;1548.0;;;;;;;;;;;;;;;;;-6.496628;-21.72155;-36.13773;;1486.9
1640.0;1548.0;;;;;;;;;;;;;;-0.7207251;-0.5022736;-0.0052491836;;;;;1486.9
1640.0;1548.0;;;;;;;;;;;;;;;;;-5.9129615;-24.59029;-39.368877;;1486.9
1640.0;1548.0;;;;;;;;;;;;;;-0.70979947;-0.5234535;-0.0026245918;;;;;1486.9
1640.0;1548.0;;;;;;;;;;;;;;;;;-5.7985168;-28.225805;-42.996765;;1496.6
1640.0;1548.0;;;;;;;;;;;;;;-0.69820243;-0.54268014;-0.03912473;;;;;1496.6
1640.0;1548.0;;;;;;;;;;;;;;;;;-5.920591;-33.31477;-47.185432;;1496.6
1640.0;1548.0;;;;;;;;;;;;;;-0.66585284;-0.54341257;-0.0623188;;;;;1496.6
1640.0;1549.2;;;;-0.76378644;-0.079628;-0.14556123;;;;;;;;;;;;;;;
1640.0;1549.2;;;;-0.7699472;-0.077789314;-0.14589693;;;;;;;;;;;;;;;
1640.0;1549.2;;;;-0.775509;-0.076564796;-0.14804842;;;;;;;;;;;;;;;
1640.0;1549.2;;;;-0.77876675;-0.075508125;-0.14777757;;;;;;;;;;;;;;;
1640.0;1549.2;;;;-0.7808839;-0.07482911;-0.14801408;;;;;;;;;;;;;;;
1640.0;1559.2;;;;-0.7830125;-0.076255806;-0.14811708;;;;;;;;;;;;;;;
1640.0;1559.2;;;;-0.78603756;-0.080810554;-0.15019228;;;;;;;;;;;;;;;
1640.0;1559.2;;;;-0.78870404;-0.08782578;-0.15334322;;;;;;;;;;;;;;;
1640.0;1559.2;;;;-0.7926408;-0.09699632;-0.15672304;;;;;;;;;;;;;;;
1640.0;1559.2;;;;-0.7973138;-0.1076317;-0.16212846;;;;;;;;;;;;;;;
1640.0;1562.7;262143;262143;13050;;;;;;;;;;;;;;;;;;
1694.0;1568.8;;;;;;;;;;;;;2913;;;;;;;;
1694.0;1568.8;;;;;;;;;;;;;4822;;;;;;;;
1694.0;1568.8;;;;;;;;;;;;;5360;;;;;;;;
1694.0;1568.8;;;;;;;;;;;;;-2019;;;;;;;;
1694.0;1568.8;;;;;;;;;;;;;-16457;;;;;;;;
1694.0;1569.3;;;;-0.80469525;-0.11972429;-0.168911;;;;;;;;;;;;;;;
1694.0;1569.3;;;;-0.81414044;-0.13258745;-0.17447282;;;;;;;;;;;;;;;
1694.0;1569.3;;;;-0.8283349;-0.14471056;-0.18051149;;;;;;;;;;;;;;;
1694.0;1569.3;;;;-0.8475076;-0.15557481;-0.18714143;;;;;;;;;;;;;;;
1694.0;1569.3;;;;-0.86994565;-0.16396715;-0.1938248;;;;;;;;;;;;;;;
1694.0;1579.2;;;;-0.89398587;-0.16967775;-0.20116809;;;;;;;;;;;;;;;
1694.0;1579.2;;;;-0.91980755;-0.17137147;-0.20510486;;;;;;;;;;;;;;;
1694.0;1579.2;;;;-0.9447137;-0.16889192;-0.2066994;;;;;;;;;;;;;;;
1694.0;1579.2;;;;-0.9661561;-0.16321947;-0.21032336;;;;;;;;;;;;;;;
1694.0;1579.2;;;;-0.9870645;-0.15530397;-0.21409991;;;;;;;;;;;;;;;
1694.0;1582.7;262143;262143;13042;;;;;;;;;;;;;;;;;;
1694.0;1589.3;;;;-1.0097123;-0.14551546;-0.2193642;;;;;;;;;;;;;;;
1694.0;1589.3;;;;-1.0363084;-0.13538362;-0.22467044;;;;;;;;;;;;;;;
1694.0;1589.3;;;;-1.0654298;-0.12641908;-0.22889331;;;;;;;;;;;;;;;
1694.0;1589.3;;;;-1.0948373;-0.119956985;-0.2338486;;;;;;;;;;;;;;;
1694.0;1589.3;;;;-1.1220628;-0.11604692;-0.24035648;;;;;;;;;;;;;;;
1696.0;1599.4;;;;-1.1472474;-0.11411287;-0.24997714;;;;;;;;;;;;;;;
1696.0;1599.4;;;;-1.172844;-0.11273195;-0.25861362;;;;;;;;;;;;;;;
1696.0;1599.4;;;;-1.1978303;-0.111274734;-0.26343158;;;;;;;;;;;;;;;
1696.0;1599.4;;;;-1.2193033;-0.10964586;-0.26916507;;;;;;;;;;;;;;;
1696.0;1599.4;;;;-1.2369081;-0.10821153;-0.27407077;;;;;;;;;;;;;;;
1696.0;1600.7;;;;;;;;;;;;;;;;;-4.188666;-36.709953;-51.67928;;1506.3
1696.0;1600.7;;;;;;;;;;;;;;-0.66982025;-0.52821434;0.0048829615;;;;;1506.3
1696.0;1600.7;;;;;;;;;;;;;;;;;-4.5510726;-40.040283;-57.199318;;1506.3
1696.0;1600.7;;;;;;;;;;;;;;-0.6872158;-0.51496935;0.028199103;;;;;1506.3
1696.0;1600.7;;;;;;;;;;;;;;;;;-5.4017763;-45.19791;-64.22239;;1515.8
1696.0;1600.7;;;;;;;;;;;;;;-0.6820887;-0.4967803;0.031311993;;;;;1515.8
1696.0;1600.7;;;;;;;;;;;;;;;;;-4.8829613;-49.974056;-71.756645;;1515.8
1696.0;1600.7;;;;;;;;;;;;;;-0.69252604;-0.47755364;0.08581805;;;;;1515.8
1696.0;1600.7;;;;;;;;;;;;;;;;;-4.100925;-55.43687;-79.660934;;1525.3
1696.0;1600.7;;;;;;;;;;;;;;-0.7230445;-0.4481338;0.1048616;;;;;1525.3
1696.0;1600.7;;;;;;;;;;;;;;;;;-4.2954803;-62.681206;-87.56524;;1525.3
1696.0;1600.7;;;;;;;;;;;;;;-0.74684894;-0.43073824;0.026306955;;;;;1525.3
1696.0;1602.9;262143;262143;13046;;;;;;;;;;;;;;;;;;
1698.0;1608.6;;;;;;;;;;;;;;;;;-4.203925;-71.05472;-95.55727;;1535.1
1698.0;1608.6;;;;;;;;;;;;;;-0.7620472;-0.41431928;-0.022034364;;;;;1535.1
1698.0;1608.6;;;;;;;;;;;;;;;;;-3.38374;-76.9982;-103.57982;;1535.1
1698.0;1608.6;;;;;;;;;;;;;;-0.8136235;-0.3985107;0.046571247;;;;;1535.1
1698.0;1608.6;;;;;;;;;;;;;;;;;-3.4867396;-80.85116;-111.30482;;1544.8
1698.0;1608.6;;;;;;;;;;;;;;-0.91134375;-0.4123661;0.11456648;;;;;1544.8
1698.0;1608.6;;;;;;;;;;;;;;;;;-5.5810723;-84.36842;-118.70556;;1544.8
1698.0;1608.6;;;;;;;;;;;;;;-1.0015564;-0.47151098;0.07293924;;;;;1544.8
1698.0;1608.6;;;;;;;;;;;;;;;;;-6.5462203;-85.39461;-123.95856;;1554.3
1698.0;1608.6;;;;;;;;;;;;;;-1.1203955;-0.520951;0.0017700735;;;;;1554.3
1698.0;1608.6;;;;;;;;;;;;;;;;;-5.897702;-84.83001;-124.988556;;1554.3
1698.0;1608.6;;;;;;;;;;;;;;-1.2859889;-0.55616933;-0.044801172;;;;;1554.3
1698.0;1608.9;;;;;;;;;;;;;-26082;;;;;;;;
1698.0;1608.9;;;;;;;;;;;;;-21330;;;;;;;;
1698.0;1608.9;;;;;;;;;;;;;-6927;;;;;;;;
1698.0;1608.9;;;;;;;;;;;;;4164;;;;;;;;
1698.0;1608.9;;;;;;;;;;;;;6147;;;;;;;;
1698.0;1609.3;;;;-1.2519609;-0.10539247;-0.27812198;;;;;;;;;;;;;;;
1698.0;1609.3;;;;-1.2662622;-0.10051347;-0.28331378;;;;;;;;;;;;;;;
1698.0;1609.3;;;;-1.2802202;-0.0942917;-0.28819278;;;;;;;;;;;;;;;
1698.0;1609.3;;;;-1.2935029;-0.086536415;-0.28984454;;;;;;;;;;;;;;;
1698.0;1609.3;;;;-1.3048135;-0.07849503;-0.29225543;;;;;;;;;;;;;;;
1754.0;1619.4;;;;-1.3114282;-0.07057572;-0.2920914;;;;;;;;;;;;;;;
1754.0;1619.4;;;;-1.3140832;-0.06369401;-0.29122165;;;;;;;;;;;;;;;
1754.0;1619.4;;;;-1.3154413;-0.057342537;-0.29196933;;;;;;;;;;;;;;;
1754.0;1619.4;;;;-1.313778;-0.051673897;-0.29246524;;;;;;;;;;;;;;;
1754.0;1619.4;;;;-1.3109628;-0.047050484;-0.29105;;;;;;;;;;;;;;;
1754.0;1623.0;262143;262143;13036;;;;;;;;;;;;;;;;;;
1754.0;1629.4;;;;-1.3075563;-0.043930057;-0.2897034;;;;;;;;;;;;;;;
1754.0;1629.4;;;;-1.303837;-0.042652134;-0.28792575;;;;;;;;;;;;;;;
1754.0;1629.4;;;;-1.3007547;-0.042732242;-0.28574374;;;;;;;;;;;;;;;
1754.0;1629.4;;;;-1.299492;-0.044441227;-0.2833214;;;;;;;;;;;;;;;
1754.0;1629.4;;;;-1.2985231;-0.04674149;-0.28170398;;;;;;;;;;;;;;;
1754.0;1639.4;;;;-1.2976724;-0.049983986;-0.28039935;;;;;;;;;;;;;;;
1754.0;1639.4;;;;-1.295807;-0.054931648;-0.27899554;;;;;;;;;;;;;;;
1754.0;1639.4;;;;-1.2942506;-0.058227547;-0.27743915;;;;;;;;;;;;;;;
1754.0;1639.4;;;;-1.2917215;-0.06089402;-0.27863315;;;;;;;;;;;;;;;
1754.0;1639.4;;;;-1.2876703;-0.06352616;-0.28164676;;;;;;;;;;;;;;;
1754.0;1643.0;262143;262143;13031;;;;;;;;;;;;;;;;;;
1754.0;1649.2;;;;;;;;;;;;;3930;;;;;;;;
1754.0;1649.2;;;;;;;;;;;;;3353;;;;;;;;
1754.0;1649.2;;;;;;;;;;;;;4233;;;;;;;;
1754.0;1649.2;;;;;;;;;;;;;4081;;;;;;;;
1754.0;1649.2;;;;;;;;;;;;;3008;;;;;;;;
1756.0;1649.5;;;;-1.2832872;-0.06568528;-0.2839928;;;;;;;;;;;;;;;
1756.0;1649.5;;;;-1.2818147;-0.0685463;-0.28652957;;;;;;;;;;;;;;;
1756.0;1649.5;;;;-1.2842447;-0.07418824;-0.29164127;;;;;;;;;;;;;;;
1756.0;1649.5;;;;-1.2908784;-0.080616005;-0.29536822;;;;;;;;;;;;;;;
1756.0;1649.5;;;;-1.3017045;-0.08573914;-0.2961426;;;;;;;;;;;;;;;
1756.0;1659.6;;;;-1.3110849;-0.09072495;-0.2994614;;;;;;;;;;;;;;;
1756.0;1659.6;;;;-1.3244668;-0.09416582;-0.30910495;;;;;;;;;;;;;;;
1756.0;1659.6;;;;-1.3448488;-0.09605028;-0.31793216;;;;;;;;;;;;;;;
1756.0;1659.6;;;;-1.370247;-0.09648897;-0.32442477;;;;;;;;;;;;;;;
1756.0;1659.6;;;;-1.3979875;-0.094188705;-0.33366778;;;;;;;;;;;;;;;
1756.0;1661.0;;;;;;;;;;;;;;;;;-4.734184;-83.56731;-124.988556;;1564.0
1756.0;1661.0;;;;;;;;;;;;;;-1.4653157;-0.57686085;-0.09820856;;;;;1564.0
1756.0;1661.0;;;;;;;;;;;;;;;;;-3.8453321;-81.95746;-124.988556;;1564.0
1756.0;1661.0;;;;;;;;;;;;;;-1.6232185;-0.5879696;-0.1871395;;;;;1564.0
1756.0;1661.0;;;;;;;;;;;;;;;;;-2.0638144;-80.29801;-124.988556;;1573.6
1756.0;1661.0;;;;;;;;;;;;;;-1.7719047;-0.59218115;-0.25757623;;;;;1573.6
1756.0;1661.0;;;;;;;;;;;;;;;;;-0.6065554;-79.59227;-124.988556;;1573.6
1756.0;1661.0;;;;;;;;;;;;;;-1.8845179;-0.5330363;-0.31635487;;;;;1573.6
1756.0;1661.0;;;;;;;;;;;;;;;;;-0.96133304;-80.96561;-124.988556;;1583.2
1756.0;1661.0;;;;;;;;;;;;;;-1.8920255;-0.42072818;-0.38373974;;;;;1583.2
1756.0;1661.0;;;;;;;;;;;;;;;;;-3.0137029;-81.701866;-124.988556;;1583.2
1756.0;1661.0;;;;;;;;;;;;;;-1.8560747;-0.31482893;-0.42365795;;;;;1583.2
1756.0;1663.2;262143;262143;13027;;;;;;;;;;;;;;;;;;
1757.0;1668.5;;;;;;;;;;;;;;;;;-6.5347757;-81.88879;-124.78637;;1592.8
1757.0;1668.5;;;;;;;;;;;;;;-1.7893612;-0.3185522;-0.446791;;;;;1592.8
1757.0;1668.5;;;;;;;;;;;;;;;;;-10.364849;-82.83105;-122.49367;;1592.8
1757.0;1668.5;;;;;;;;;;;;;;-1.6524552;-0.29865414;-0.4450209;;;;;1592.8
1757.0;1668.5;;;;;;;;;;;;;;;;;-14.999847;-82.0719;-117.73278;;1602.5
1757.0;1668.5;;;;;;;;;;;;;;-1.5287331;-0.3584704;-0.3988769;;;;;1602.5
1757.0;1668.5;;;;;;;;;;;;;;;;;-20.554216;-80.324715;-112.25089;;1602.5
1757.0;1668.5;;;;;;;;;;;;;;-1.4092227;-0.42384106;-0.38190863;;;;;1602.5
1757.0;1668.5;;;;;;;;;;;;;;;;;-25.547808;-76.89902;-106.582085;;1612.1
1757.0;1668.5;;;;;;;;;;;;;;-1.3256019;-0.45179603;-0.35224465;;;;;1612.1
1757.0;1668.5;;;;;;;;;;;;;;;;;-28.87814;-71.970276;-101.65715;;1612.1
1757.0;1668.5;;;;;;;;;;;;;;-1.262978;-0.4975738;-0.3035371;;;;;1612.1
1757.0;1669.5;;;;-1.4271013;-0.08939362;-0.3451729;;;;;;;;;;;;;;;
1757.0;1669.5;;;;-1.4594232;-0.082134254;-0.35710528;;;;;;;;;;;;;;;
1757.0;1669.5;;;;-1.4937669;-0.07289124;-0.37067798;;;;;;;;;;;;;;;
1757.0;1669.5;;;;-1.5272791;-0.062084205;-0.38456732;;;;;;;;;;;;;;;
1757.0;1669.5;;;;-1.5577357;-0.050178535;-0.39765555;;;;;;;;;;;;;;;
1757.0;1679.5;;;;-1.583607;-0.037853245;-0.41035467;;;;;;;;;;;;;;;
1757.0;1679.5;;;;-1.6013796;-0.025779728;-0.41794974;;;;;;;;;;;;;;;
1757.0;1679.5;;;;-1.6143534;-0.014442446;-0.42464453;;;;;;;;;;;;;;;
1757.0;1679.5;;;;-1.6233218;-0.0041008;-0.42874914;;;;;;;;;;;;;;;
1757.0;1679.5;;;;-1.6289408;0.0052680974;-0.43132406;;;;;;;;;;;;;;;
1757.0;1683.3;262143;262143;13032;;;;;;;;;;;;;;;;;;
1814.0;1689.4;;;;;;;;;;;;;2003;;;;;;;;
1814.0;1689.4;;;;;;;;;;;;;1384;;;;;;;;
1814.0;1689.4;;;;;;;;;;;;;1127;;;;;;;;
1814.0;1689.4;;;;;;;;;;;;;754;;;;;;;;
1814.0;1689.4;;;;;;;;;;;;;49;;;;;;;;
1814.0;1689.6;;;;-1.628876;0.012020113;-0.43204504;;;;;;;;;;;;;;;
1814.0;1689.6;;;;-1.6243327;0.015888216;-0.43084723;;;;;;;;;;;;;;;
1814.0;1689.6;;;;-1.6167452;0.018245699;-0.4271279;;;;;;;;;;;;;;;
1814.0;1689.6;;;;-1.6063654;0.01867676;-0.4230004;;;;;;;;;;;;;;;
1814.0;1689.6;;;;-1.5952952;0.018333437;-0.4168511;;;;;;;;;;;;;;;
1814.0;1699.4;;;;-1.5821688;0.017620089;-0.41097265;;;;;;;;;;;;;;;
1814.0;1699.4;;;;-1.5622523;0.017623903;-0.39910513;;;;;;;;;;;;;;;
1814.0;1699.4;;;;-1.5344317;0.018943788;-0.3800469;;;;;;;;;;;;;;;
1814.0;1699.4;;;;-1.5018923;0.02137375;-0.3661423;;;;;;;;;;;;;;;
1814.0;1699.4;;;;-1.4696809;0.024715427;-0.35472873;;;;;;;;;;;;;;;
1814.0;1703.3;262143;262143;13026;;;;;;;;;;;;;;;;;;
1814.0;1709.6;;;;-1.4415361;0.027290348;-0.3440781;;;;;;;;;;;;;;;
1814.0;1709.6;;;;-1.4142038;0.027095798;-0.3303261;;;;;;;;;;;;;;;
1814.0;1709.6;;;;-1.3863031;0.024330143;-0.31689456;;;;;;;;;;;;;;;
1814.0;1709.6;;;;-1.3606836;0.019016268;-0.3051491;;;;;;;;;;;;;;;
1814.0;1709.6;;;;-1.3369409;0.014118196;-0.2937241;;;;;;;;;;;;;;;
1816.0;1719.7;;;;-1.314274;0.009765626;-0.283062;;;;;;;;;;;;;;;
1816.0;1719.7;;;;-1.2926141;0.0057678227;-0.27289203;;;;;;;;;;;;;;;
1816.0;1719.7;;;;-1.2725984;0.0027351382;-0.262764;;;;;;;;;;;;;;;
1816.0;1719.7;;;;-1.2542268;3.051758E-5;-0.25125888;;;;;;;;;;;;;;;
1816.0;1719.7;;;;-1.2386438;-0.0027313235;-0.23830798;;;;;;;;;;;;;;;
1816.0;1721.2;;;;;;;;;;;;;;;;;-29.194769;-64.668724;-96.098976;;1621.8
1816.0;1721.2;;;;;;;;;;;;;;-1.2607197;-0.580401;-0.26007873;;;;;1621.8
1816.0;1721.2;;;;;;;;;;;;;;;;;-27.287363;-55.574203;-90.350044;;1621.8
1816.0;1721.2;;;;;;;;;;;;;;-1.3019196;-0.6103702;-0.22174749;;;;;1621.8
1816.0;1721.2;;;;;;;;;;;;;;;;;-25.452436;-45.21317;-85.23057;;1631.4
1816.0;1721.2;;;;;;;;;;;;;;-1.3863338;-0.6367382;-0.1788995;;;;;1631.4
1816.0;1721.2;;;;;;;;;;;;;;;;;-23.602253;-34.566025;-80.39338;;1631.4
1816.0;1721.2;;;;;;;;;;;;;;-1.5239112;-0.6784875;-0.1403241;;;;;1631.4
1816.0;1721.2;;;;;;;;;;;;;;;;;-22.28614;-25.318918;-76.70446;;1640.9
1816.0;1721.2;;;;;;;;;;;;;;-1.6424451;-0.7289651;-0.14801477;;;;;1640.9
1816.0;1721.2;;;;;;;;;;;;;;;;;-20.706808;-18.12418;-73.057495;;1640.9
1816.0;1721.2;;;;;;;;;;;;;;-1.7160558;-0.80617696;-0.17078158;;;;;1640.9
1832.0;1722.3;;;;;;;;;;;;;;;;;-18.448439;-13.000885;-70.54353;;1650.5
1832.0;1722.3;;;;;;;;;;;;;;-1.7245399;-0.86074406;-0.20850246;;;;;1650.5
1832.0;1722.3;;;;;;;;;;;;;;;;;-15.503403;-9.32722;-69.98657;;1650.5
1832.0;1722.3;;;;;;;;;;;;;;-1.6756493;-0.8861965;-0.2400586;;;;;1650.5
1832.0;1722.3;;;;;;;;;;;;;;;;;-12.924589;-8.121738;-69.90264;;1660.2
1832.0;1722.3;;;;;;;;;;;;;;-1.5699942;-0.8615375;-0.23352763;;;;;1660.2
1832.0;1722.3;;;;;;;;;;;;;;;;;-11.76107;-8.888515;-68.914604;;1660.2
1832.0;1722.3;;;;;;;;;;;;;;-1.4238105;-0.7972655;-0.20874661;;;;;1660.2
1832.0;1722.3;;;;;;;;;;;;;;;;;-12.470626;-7.221442;-66.48839;;1669.8
1832.0;1722.3;;;;;;;;;;;;;;-1.3047273;-0.65468305;-0.17102572;;;;;1669.8
1832.0;1722.3;;;;;;;;;;;;;;;;;-15.140995;-5.031739;-63.760796;;1669.8
1832.0;1722.3;;;;;;;;;;;;;;-1.1984009;-0.54609823;-0.14398633;;;;;1669.8
1832.0;1723.3;262143;262143;13015;;;;;;;;;;;;;;;;;;
1832.0;1729.3;;;;;;;;;;;;;-533;;;;;;;;
1832.0;1729.3;;;;;;;;;;;;;-539;;;;;;;;
1832.0;1729.3;;;;;;;;;;;;;-409;;;;;;;;
1832.0;1729.3;;;;;;;;;;;;;-753;;;;;;;;
1832.0;1729.3;;;;;;;;;;;;;-1288;;;;;;;;
1832.0;1729.4;;;;-1.225609;-0.005985261;-0.22454074;;;;;;;;;;;;;;;
1832.0;1729.4;;;;-1.2142984;-0.008934022;-0.21154407;;;;;;;;;;;;;;;
1832.0;1729.4;;;;-1.2040063;-0.012729647;-0.20069888;;;;;;;;;;;;;;;
1832.0;1729.4;;;;-1.1956788;-0.01729584;-0.19121936;;;;;;;;;;;;;;;
1832.0;1729.4;;;;-1.1900522;-0.021938326;-0.18208314;;;;;;;;;;;;;;;
1875.0;1739.5;;;;-1.1855966;-0.027339939;-0.17330171;;;;;;;;;;;;;;;
1875.0;1739.5;;;;-1.1814691;-0.03311539;-0.16559602;;;;;;;;;;;;;;;
1875.0;1739.5;;;;-1.1751748;-0.03982163;-0.1565819;;;;;;;;;;;;;;;
1875.0;1739.5;;;;-1.1692888;-0.045234684;-0.1482506;;;;;;;;;;;;;;;
1875.0;1739.5;;;;-1.1635286;-0.051200874;-0.1394272;;;;;;;;;;;;;;;
1875.0;1739.7;;;;;;;;;;-0.43488875;18.215734;-1.1329997;;;;;;;;;
1875.0;1739.7;;;;;;;1.2787865;0.08496353;-0.37934506;;;;;;;;;;;;
1875.0;1739.7;;;;;;;;;;5.569628;28.34025;7.530442;;;;;;;;;
1875.0;1739.7;;;;;;;1.4523149;0.082888275;-0.43855098;;;;;;;;;;;;
1875.0;1743.4;262143;262143;13005;;;;;;;;;;;;;;;;;;
1875.0;1749.3;;;;;;;;;;1.7090366;4.989776;1.9188513;;;;;;;;;
1875.0;1749.3;;;;;;;1.4564043;0.06921598;-0.44691306;;;;;;;;;;;;
1875.0;1749.3;;;;;;;;;;7.7707753;22.30903;8.533738;;;;;;;;;
1875.0;1749.3;;;;;;;1.4448073;0.056215096;-0.45081943;;;;;;;;;;;;
1875.0;1749.5;;;;-1.1570855;-0.055976875;-0.13170625;;;;;;;;;;;;;;;
1875.0;1749.5;;;;-1.152218;-0.059452064;-0.12344743;;;;;;;;;;;;;;;
1875.0;1749.5;;;;-1.146557;-0.0630951;-0.115367904;;;;;;;;;;;;;;;
1875.0;1749.5;;;;-1.1393319;-0.06565476;-0.10578157;;;;;;;;;;;;;;;
1875.0;1749.5;;;;-1.1311609;-0.067264564;-0.09437944;;;;;;;;;;;;;;;
1875.0;1758.8;;;;;;;;;;9.918515;27.63451;9.643849;;;;;;;;;
1875.0;1758.8;;;;;;;1.412885;0.0441908;-0.44990388;;;;;;;;;;;;
1875.0;1758.8;;;;;;;;;;7.000183;-3.8033693;-10.685293;;;;;;;;;
1875.0;1758.8;;;;;;;1.3619801;0.03338725;-0.4464858;;;;;;;;;;;;
1877.0;1759.5;;;;-1.1220437;-0.06909943;-0.083938606;;;;;;;;;;;;;;;
1877.0;1759.5;;;;-1.1148454;-0.07004548;-0.073696144;;;;;;;;;;;;;;;
1877.0;1759.5;;;;-1.1091272;-0.07131577;-0.063667305;;;;;;;;;;;;;;;
1877.0;1759.5;;;;-1.105488;-0.073623665;-0.055007942;;;;;;;;;;;;;;;
1877.0;1759.5;;;;-1.10281;-0.07559968;-0.046707157;;;;;;;;;;;;;;;
1877.0;1763.5;262143;262143;13017;;;;;;;;;;;;;;;;;;
1877.0;1768.4;;;;;;;;;;9.125034;-0.46159247;-11.505478;;;;;;;;;
1877.0;1768.4;;;;;;;1.3083895;0.028687399;-0.4420301;;;;;;;;;;;;
1877.0;1768.4;;;;;;;;;;11.528367;2.2011476;-12.916959;;;;;;;;;
1877.0;1768.4;;;;;;;1.2500381;0.025452437;-0.42957854;;;;;;;;;;;;
1877.0;1769.6;;;;;;;;;;;;;-1624;;;;;;;;
1877.0;1769.6;;;;;;;;;;;;;-2049;;;;;;;;
1877.0;1769.6;;;;;;;;;;;;;-2854;;;;;;;;
1877.0;1769.6;;;;;;;;;;;;;-3492;;;;;;;;
1877.0;1769.6;;;;;;;;;;;;;-3226;;;;;;;;
1877.0;1769.6;;;;-1.0984651;-0.07864381;-0.03912354;;;;;;;;;;;;;;;
1877.0;1769.6;;;;-1.094391;-0.08132935;-0.03174973;;;;;;;;;;;;;;;
1877.0;1769.6;;;;-1.0896035;-0.083824165;-0.02361298;;;;;;;;;;;;;;;
1877.0;1769.6;;;;-1.0843545;-0.08512498;-0.016708376;;;;;;;;;;;;;;;
1877.0;1769.6;;;;-1.0766183;-0.08663941;-0.0107193;;;;;;;;;;;;;;;
1877.0;1778.1;;;;;;;;;;13.2793665;10.792109;-8.793145;;;;;;;;;
1877.0;1778.1;;;;;;;1.1979736;0.023926511;-0.42200994;;;;;;;;;;;;
1877.0;1778.1;;;;;;;;;;13.584552;17.723623;-3.0785549;;;;;;;;;
1877.0;1778.1;;;;;;;1.1505479;0.031922363;-0.4126713;;;;;;;;;;;;
1883.0;1779.8;;;;-1.0674058;-0.088413246;-0.004199982;;;;;;;;;;;;;;;
1883.0;1779.8;;;;-1.056904;-0.08987046;0.0017051699;;;;;;;;;;;;;;;
1883.0;1779.8;;;;-1.0447923;-0.09170533;0.0057106023;;;;;;;;;;;;;;;
1883.0;1779.8;;;;-1.0323411;-0.09368134;0.008106233;;;;;;;;;;;;;;;
1883.0;1779.8;;;;-1.0199662;-0.095821396;0.0104637155;;;;;;;;;;;;;;;
1883.0;1781.5;;;;;;;;;;;;;;;;;-17.376476;-4.566332;-60.037537;;1679.5
1883.0;1781.5;;;;;;;;;;;;;;-1.0908536;-0.47999513;-0.13544114;;;;;1679.5
1883.0;1781.5;;;;;;;;;;;;;;;;;-17.727438;-3.9750361;-54.89517;;1679.5
1883.0;1781.5;;;;;;;;;;;;;;-1.0107731;-0.42347485;-0.11560412;;;;;1679.5
1883.0;1781.5;;;;;;;;;;;;;;;;;-17.521439;-4.1314435;-48.684654;;1689.1
1883.0;1781.5;;;;;;;;;;;;;;-0.9327067;-0.39515367;-0.10742515;;;;;1689.1
1883.0;1781.5;;;;;;;;;;;;;;;;;-17.010254;-4.1581473;-41.619617;;1689.1
1883.0;1781.5;;;;;;;;;;;;;;-0.8791772;-0.36774805;-0.08978546;;;;;1689.1
1883.0;1781.5;;;;;;;;;;;;;;;;;-16.636404;-4.608295;-34.0701;;1698.7
1883.0;1781.5;;;;;;;;;;;;;;-0.839198;-0.33960998;-0.07910398;;;;;1698.7
1883.0;1781.5;;;;;;;;;;;;;;;;;-16.376995;-5.0241094;-26.31077;;1698.7
1883.0;1781.5;;;;;;;;;;;;;;-0.8154546;-0.32258064;-0.06366161;;;;;1698.7
1885.0;1782.2;;;;;;;;;;;;;;;;;-16.68218;-5.6344795;-18.879513;;1708.3
1885.0;1782.2;;;;;;;;;;;;;;-0.78957486;-0.30610064;-0.047364727;;;;;1708.3
1885.0;1782.2;;;;;;;;;;;;;;;;;-17.70455;-5.645924;-12.295145;;1708.3
1885.0;1782.2;;;;;;;;;;;;;;-0.7807245;-0.2872402;-0.029175695;;;;;1708.3
1885.0;1782.2;;;;;;;;;;;;;;;;;-18.97107;-5.6230354;-6.4813685;;1718.0
1885.0;1782.2;;;;;;;;;;;;;;-0.7743156;-0.2652669;-0.006530961;;;;;1718.0
1885.0;1782.2;;;;;;;;;;;;;;;;;-20.245216;-5.7832575;-1.3809626;;1718.0
1885.0;1782.2;;;;;;;;;;;;;;-0.7710807;-0.23877682;0.019531846;;;;;1718.0
1885.0;1782.2;;;;;;;;;;;;;;;;;-21.813105;-6.1761837;3.2845547;;1727.6
1885.0;1782.2;;;;;;;;;;;;;;-0.76760155;-0.22180852;0.03955199;;;;;1727.6
1885.0;1782.2;;;;;;;;;;;;;;;;;-23.392437;-6.389813;7.7135534;;1727.6
1885.0;1782.2;;;;;;;;;;;;;;-0.7635731;-0.22247994;0.055604726;;;;;1727.6
1885.0;1783.6;262143;262143;13001;;;;;;;;;;;;;;;;;;
1885.0;1787.5;;;;;;;;;;14.202551;15.125736;-3.6545916;;;;;;;;;
1885.0;1787.5;;;;;;;1.1053804;0.034485918;-0.40028077;;;;;;;;;;;;
1885.0;1787.5;;;;;;;;;;14.809107;12.596515;-4.078036;;;;;;;;;
1885.0;1787.5;;;;;;;1.0666219;0.03814814;-0.3861812;;;;;;;;;;;;
1885.0;1789.6;;;;-1.0074159;-0.09804155;0.013793947;;;;;;;;;;;;;;;
1885.0;1789.6;;;;-0.9937936;-0.099540725;0.017112734;;;;;;;;;;;;;;;
1885.0;1789.6;;;;-0.98056805;-0.10029222;0.019226076;;;;;;;;;;;;;;;
1885.0;1789.6;;;;-0.96699154;-0.100669876;0.02296448;;;;;;;;;;;;;;;
1885.0;1789.6;;;;-0.9544145;-0.10084535;0.026084904;;;;;;;;;;;;;;;
1933.0;1797.0;;;;;;;;;;15.274514;10.265663;-4.3298135;;;;;;;;;
1933.0;1797.0;;;;;;;1.0291451;0.040101323;-0.37562183;;;;;;;;;;;;
1933.0;1797.0;;;;;;;;;;15.968811;8.209479;-4.2649617;;;;;;;;;
1933.0;1797.0;;;;;;;0.9964293;0.04449599;-0.35688344;;;;;;;;;;;;
1933.0;1799.6;;;;-0.9431306;-0.10077669;0.029293064;;;;;;;;;;;;;;;
1933.0;1799.6;;;;-0.9344522;-0.10042192;0.031459812;;;;;;;;;;;;;;;
1933.0;1799.6;;;;-0.92572415;-0.09973146;0.032211307;;;;;;;;;;;;;;;
1933.0;1799.6;;;;-0.91640866;-0.09901048;0.031932835;;;;;;;;;;;;;;;
1933.0;1799.6;;;;-0.9070016;-0.098598495;0.031364445;;;;;;;;;;;;;;;
1933.0;1803.8;262143;262143;13002;;;;;;;;;;;;;;;;;;
1933.0;1806.6;;;;;;;;;;16.6097;6.5347757;-4.154332;;;;;;;;;
1933.0;1806.6;;;;;;;0.9707938;0.049806207;-0.34003723;;;;;;;;;;;;
1933.0;1806.6;;;;;;;;;;17.235327;5.199591;-3.8529618;;;;;;;;;
1933.0;1806.6;;;;;;;0.94369334;0.05835139;-0.32386243;;;;;;;;;;;;
1933.0;1809.7;;;;-0.8968774;-0.09812166;0.03209305;;;;;;;;;;;;;;;
1933.0;1809.7;;;;-0.8878709;-0.0976906;0.033508305;;;;;;;;;;;;;;;
1933.0;1809.7;;;;-0.87838376;-0.09825899;0.033077244;;;;;;;;;;;;;;;
1933.0;1809.7;;;;-0.8697511;-0.09860231;0.03373337;;;;;;;;;;;;;;;
1933.0;1809.7;;;;-0.8631135;-0.09867479;0.03206635;;;;;;;;;;;;;;;
1933.0;1809.8;;;;;;;;;;;;;-2220;;;;;;;;
1933.0;1809.8;;;;;;;;;;;;;-1363;;;;;;;;
1933.0;1809.8;;;;;;;;;;;;;-1218;;;;;;;;
1933.0;1809.8;;;;;;;;;;;;;-1263;;;;;;;;
1933.0;1809.8;;;;;;;;;;;;;-876;;;;;;;;
1943.0;1816.0;;;;;;;;;;17.941069;4.2611465;-3.4104435;;;;;;;;;
1943.0;1816.0;;;;;;;0.9223304;0.07086398;-0.30463576;;;;;;;;;;;;
1943.0;1816.0;;;;;;;;;;18.681143;3.4333322;-2.5940733;;;;;;;;;
1943.0;1816.0;;;;;;;0.89785457;0.0794702;-0.28809473;;;;;;;;;;;;
1943.0;1819.6;;;;-0.85798275;-0.098361984;0.029705051;;;;;;;;;;;;;;;
1943.0;1819.6;;;;-0.85419095;-0.098022476;0.026832584;;;;;;;;;;;;;;;
1943.0;1819.6;;;;-0.8513795;-0.09814073;0.023399355;;;;;;;;;;;;;;;
1943.0;1819.6;;;;-0.84904873;-0.09765245;0.021728517;;;;;;;;;;;;;;;
1943.0;1819.6;;;;-0.8457986;-0.098339096;0.020393373;;;;;;;;;;;;;;;
1943.0;1823.8;262143;262143;13000;;;;;;;;;;;;;;;;;;
1943.0;1825.6;;;;;;;;;;19.287699;2.8916287;-1.5564439;;;;;;;;;
1943.0;1825.6;;;;;;;0.87380594;0.08941923;-0.27277443;;;;;;;;;;;;
1943.0;1825.6;;;;;;;;;;19.978178;2.3689995;-0.29374066;;;;;;;;;
1943.0;1825.6;;;;;;;0.84701073;0.098391674;-0.2612995;;;;;;;;;;;;
1943.0;1829.7;;;;-0.84157956;-0.09895708;0.018775942;;;;;;;;;;;;;;;
1943.0;1829.7;;;;-0.83776486;-0.09782411;0.01691437;;;;;;;;;;;;;;;
1943.0;1829.7;;;;-0.8324853;-0.096591964;0.015308382;;;;;;;;;;;;;;;
1943.0;1829.7;;;;-0.8261148;-0.095520034;0.014240267;;;;;;;;;;;;;;;
1943.0;1829.7;;;;-0.81837857;-0.09507753;0.013271334;;;;;;;;;;;;;;;
1943.0;1835.3;;;;;;;;;;20.626698;1.9760735;0.92699975;;;;;;;;;
1943.0;1835.3;;;;;;;0.82271796;0.10565508;-0.25080112;;;;;;;;;;;;
1943.0;1835.3;;;;;;;;;;21.225624;1.453444;2.2812586;;;;;;;;;
1943.0;1835.3;;;;;;;0.80111086;0.11645863;-0.2402417;;;;;;;;;;;;
1944.0;1839.8;;;;-0.8111497;-0.094390884;0.011363984;;;;;;;;;;;;;;;
1944.0;1839.8;;;;-0.8055955;-0.0939026;0.007846833;;;;;;;;;;;;;;;
1944.0;1839.8;;;;-0.8005105;-0.09344865;0.0025520327;;;;;;;;;;;;;;;
1944.0;1839.8;;;;-0.7951356;-0.093349464;-0.0019760134;;;;;;;;;;;;;;;
1944.0;1839.8;;;;-0.79013836;-0.093479164;-0.006427766;;;;;;;;;;;;;;;
1944.0;1841.6;;;;;;;;;;;;;;;;;-23.796808;-6.5195165;12.207404;;1737.3
1944.0;1841.6;;;;;;;;;;;;;;-0.7574694;-0.22528763;0.07562487;;;;;1737.3
1944.0;1841.6;;;;;;;;;;;;;;;;;-22.73629;-6.4127016;17.044586;;1737.3
1944.0;1841.6;;;;;;;;;;;;;;-0.75588244;-0.21436201;0.09076205;;;;;1737.3
1944.0;1841.6;;;;;;;;;;;;;;;;;-20.546587;-6.7751093;22.17551;;1746.9
1944.0;1841.6;;;;;;;;;;;;;;-0.74691;-0.21948913;0.10730308;;;;;1746.9
1944.0;1841.6;;;;;;;;;;;;;;;;;-18.326365;-7.614368;27.0394;;1746.9
1944.0;1841.6;;;;;;;;;;;;;;-0.717246;-0.18555254;0.1076693;;;;;1746.9
1944.0;1841.6;;;;;;;;;;;;;;;;;-18.387402;-7.8508863;31.033508;;1756.6
1944.0;1841.6;;;;;;;;;;;;;;-0.69191563;-0.15094455;0.09564501;;;;;1756.6
1944.0;1841.6;;;;;;;;;;;;;;;;;-19.810328;-7.736442;34.482098;;1756.6
1944.0;1841.6;;;;;;;;;;;;;;-0.68532366;-0.1772515;0.09790338;;;;;1756.6
1945.0;1842.4;;;;;;;;;;;;;;;;;-21.233253;-7.927183;38.464767;;1766.1
1945.0;1842.4;;;;;;;;;;;;;;-0.6747642;-0.19330424;0.092043824;;;;;1766.1
1945.0;1842.4;;;;;;;;;;;;;;;;;-22.701956;-8.457442;42.432175;;1766.1
1945.0;1842.4;;;;;;;;;;;;;;-0.6471755;-0.20850246;0.09173864;;;;;1766.1
1945.0;1842.4;;;;;;;;;;;;;;;;;-23.846401;-8.3925905;46.349987;;1775.8
1945.0;1842.4;;;;;;;;;;;;;;-0.6169622;-0.2268746;0.0910062;;;;;1775.8
1945.0;1842.4;;;;;;;;;;;;;;;;;-24.716179;-7.7707753;49.821465;;1775.8
1945.0;1842.4;;;;;;;;;;;;;;-0.58644366;-0.23273416;0.08636738;;;;;1775.8
1945.0;1842.4;;;;;;;;;;;;;;;;;-25.799585;-6.611072;52.903835;;1785.5
1945.0;1842.4;;;;;;;;;;;;;;-0.5543382;-0.24335459;0.08130131;;;;;1785.5
1945.0;1842.4;;;;;;;;;;;;;;;;;-27.588732;-4.81811;55.77639;;1785.5
1945.0;1842.4;;;;;;;;;;;;;;-0.51875365;-0.23371075;0.05999939;;;;;1785.5
1945.0;1843.8;262143;262143;12993;;;;;;;;;;;;;;;;;;
1945.0;1844.7;;;;;;;;;;22.076328;0.63325906;3.6736658;;;;;;;;;
1945.0;1844.7;;;;;;;0.7851192;0.123661004;-0.23517564;;;;;;;;;;;;
1945.0;1844.7;;;;;;;;;;22.812586;-0.5188147;4.951628;;;;;;;;;
1945.0;1844.7;;;;;;;0.7802362;0.13342692;-0.23364972;;;;;;;;;;;;
1945.0;1849.6;;;;-0.7847978;-0.0935669;-0.011810305;;;;;;;;;;;;;;;
1945.0;1849.6;;;;-0.77959836;-0.09465028;-0.016864778;;;;;;;;;;;;;;;
1945.0;1849.6;;;;-0.7740785;-0.09615709;-0.021472933;;;;;;;;;;;;;;;
1945.0;1849.6;;;;-0.768139;-0.09755708;-0.02695847;;;;;;;;;;;;;;;
1945.0;1849.6;;;;-0.7632028;-0.09924318;-0.03249741;;;;;;;;;;;;;;;
1946.0;1849.8;;;;;;;;;;;;;-327;;;;;;;;
1946.0;1849.8;;;;;;;;;;;;;25;;;;;;;;
1946.0;1849.8;;;;;;;;;;;;;161;;;;;;;;
1946.0;1849.8;;;;;;;;;;;;;307;;;;;;;;
1946.0;1849.8;;;;;;;;;;;;;597;;;;;;;;
1946.0;1854.2;;;;;;;;;;23.464918;-2.0523698;6.122776;;;;;;;;;
1946.0;1854.2;;;;;;;0.7757805;0.14160588;-0.23438215;;;;;;;;;;;;
1946.0;1854.2;;;;;;;;;;24.182104;-4.0475173;7.4541464;;;;;;;;;
1946.0;1854.2;;;;;;;0.7702261;0.14026307;-0.23328349;;;;;;;;;;;;
1946.0;1859.6;;;;-0.7585908;-0.10000993;-0.037250523;;;;;;;;;;;;;;;
1946.0;1859.6;;;;-0.7531663;-0.10110094;-0.04183579;;;;;;;;;;;;;;;
1946.0;1859.6;;;;-0.74699026;-0.10255815;-0.045558933;;;;;;;;;;;;;;;
1946.0;1859.6;;;;-0.73961645;-0.10418321;-0.049274452;;;;;;;;;;;;;;;
1946.0;1859.6;;;;-0.7333756;-0.105770126;-0.053604133;;;;;;;;;;;;;;;
1946.0;1863.7;;;;;;;;;;24.887844;-5.691702;8.606219;;;;;;;;;
1946.0;1863.7;;;;;;;0.77028716;0.13507493;-0.23175757;;;;;;;;;;;;
1946.0;1863.7;;;;;;;;;;25.387585;-7.213813;9.495071;;;;;;;;;
1946.0;1863.7;;;;;;;0.77571946;0.13367108;-0.22858363;;;;;;;;;;;;
1946.0;1863.9;262143;262143;12994;;;;;;;;;;;;;;;;;;
1946.0;1869.7;;;;-0.7282601;-0.107399;-0.05869294;;;;;;;;;;;;;;;
1946.0;1869.7;;;;-0.7247887;-0.10855104;-0.06262971;;;;;;;;;;;;;;;
1946.0;1869.7;;;;-0.72199255;-0.1094742;-0.063106544;;;;;;;;;;;;;;;
1946.0;1869.7;;;;-0.7200318;-0.110431686;-0.06840516;;;;;;;;;;;;;;;
1946.0;1869.7;;;;-0.71931463;-0.11116029;-0.07127381;;;;;;;;;;;;;;;
1994.0;1873.3;;;;;;;;;;25.967436;-8.972442;10.124516;;;;;;;;;
1994.0;1873.3;;;;;;;0.7838374;0.13336588;-0.22656941;;;;;;;;;;;;
1994.0;1873.3;;;;;;;;;;26.482437;-10.830256;10.670034;;;;;;;;;
1994.0;1873.3;;;;;;;0.7929319;0.14142278;-0.22553179;;;;;;;;;;;;
1994.0;1879.6;;;;-0.7173615;-0.111064926;-0.06942368;;;;;;;;;;;;;;;
1994.0;1879.6;;;;-0.7133141;-0.11046983;-0.07305909;;;;;;;;;;;;;;;
1994.0;1879.6;;;;-0.7100945;-0.11019136;-0.07826615;;;;;;;;;;;;;;;
1994.0;1879.6;;;;-0.7094956;-0.11025621;-0.08323289;;;;;;;;;;;;;;;
1994.0;1879.6;;;;-0.71012884;-0.11135484;-0.08629609;;;;;;;;;;;;;;;
1994.0;1882.8;;;;;;;;;;26.497696;-12.295145;11.043886;;;;;;;;;
1994.0;1882.8;;;;;;;0.79641104;0.15247047;-0.22534868;;;;;;;;;;;;
1994.0;1882.8;;;;;;;;;;26.558733;-13.645589;11.070589;;;;;;;;;
1994.0;1882.8;;;;;;;0.80629903;0.15405744;-0.22089297;;;;;;;;;;;;
1994.0;1884.0;262143;262143;12995;;;;;;;;;;;;;;;;;;
1994.0;1889.8;;;;-0.7087861;-0.11379625;-0.087608345;;;;;;;;;;;;;;;
1994.0;1889.8;;;;-0.70400244;-0.11626817;-0.08820725;;;;;;;;;;;;;;;
1994.0;1889.8;;;;-0.695694;-0.1184044;-0.08711625;;;;;;;;;;;;;;;
1994.0;1889.8;;;;-0.685566;-0.12058641;-0.0865326;;;;;;;;;;;;;;;
1994.0;1889.8;;;;-0.67485815;-0.12218858;-0.08766938;;;;;;;;;;;;;;;
1994.0;1890.0;;;;;;;;;;;;;819;;;;;;;;
1994.0;1890.0;;;;;;;;;;;;;921;;;;;;;;
1994.0;1890.0;;;;;;;;;;;;;984;;;;;;;;
1994.0;1890.0;;;;;;;;;;;;;961;;;;;;;;
1994.0;1890.0;;;;;;;;;;;;;849;;;;;;;;
1995.0;1892.4;;;;;;;;;;26.680807;-15.305033;10.944701;;;;;;;;;
1995.0;1892.4;;;;;;;0.814539;0.1530198;-0.21753594;;;;;;;;;;;;
1995.0;1892.4;;;;;;;;;;26.81814;-17.262032;10.910368;;;;;;;;;
1995.0;1892.4;;;;;;;0.81771296;0.15497299;-0.20673238;;;;;;;;;;;;
1995.0;1899.9;;;;-0.6675988;-0.12294008;-0.09035874;;;;;;;;;;;;;;;
1995.0;1899.9;;;;-0.66414267;-0.12342836;-0.09475328;;;;;;;;;;;;;;;
1995.0;1899.9;;;;-0.6631203;-0.123985305;-0.09979631;;;;;;;;;;;;;;;
1995.0;1899.9;;;;-0.66353613;-0.12431337;-0.1045685;;;;;;;;;;;;;;;
1995.0;1899.9;;;;-0.6636811;-0.12459184;-0.10909273;;;;;;;;;;;;;;;
1995.0;1901.8;;;;;;;;;;;;;;;;;-31.487473;-2.6932585;57.702873;;1795.1
1995.0;1901.8;;;;;;;;;;;;;;-0.48188725;-0.19586779;0.029114658;;;;;1795.1
1995.0;1901.8;;;;;;;;;;;;;;;;;-38.55251;-0.18311106;58.57265;;1795.1
1995.0;1901.8;;;;;;;;;;;;;;-0.44245735;-0.13824885;0.00921659;;;;;1795.1
1995.0;1901.8;;;;;;;;;;;;;;;;;-48.375652;2.8496659;59.22117;;1804.7
1995.0;1901.8;;;;;;;;;;;;;;-0.4239021;-0.08929716;-0.043397322;;;;;1804.7
1995.0;1901.8;;;;;;;;;;;;;;;;;-59.362316;5.1881466;59.40428;;1804.7
1995.0;1901.8;;;;;;;;;;;;;;-0.420423;-0.030579546;-0.06738487;;;;;1804.7
1995.0;1901.8;;;;;;;;;;;;;;;;;-71.85964;6.878109;59.007538;;1814.4
1995.0;1901.8;;;;;;;;;;;;;;-0.41950744;0.020203253;-0.08465835;;;;;1814.4
1995.0;1901.8;;;;;;;;;;;;;;;;;-85.11231;7.9348125;58.900726;;1814.4
1995.0;1901.8;;;;;;;;;;;;;;-0.42188787;0.04815821;-0.09643849;;;;;1814.4
1995.0;1901.9;;;;;;;;;;26.913511;-19.093143;10.799738;;;;;;;;;
1995.0;1901.9;;;;;;;0.8214362;0.15674306;-0.19519639;;;;;;;;;;;;
1995.0;1901.9;;;;;;;;;;26.875362;-20.855587;10.559404;;;;;;;;;
1995.0;1901.9;;;;;;;0.8247322;0.16028321;-0.18176824;;;;;;;;;;;;
2000.0;1902.6;;;;;;;;;;;;;;;;;-98.67779;9.067812;59.518726;;1824.0
2000.0;1902.6;;;;;;;;;;;;;;-0.4215827;0.039613027;-0.12237922;;;;;1824.0
2000.0;1902.6;;;;;;;;;;;;;;;;;-111.25904;11.543626;62.051758;;1824.0
2000.0;1902.6;;;;;;;;;;;;;;-0.4448378;-0.003906369;-0.1477096;;;;;1824.0
2000.0;1902.6;;;;;;;;;;;;;;;;;-120.92577;13.576922;66.77068;;1833.6
2000.0;1902.6;;;;;;;;;;;;;;-0.46143988;-0.07550279;-0.1793878;;;;;1833.6
2000.0;1902.6;;;;;;;;;;;;;;;;;-124.717705;14.1949215;73.23298;;1833.6
2000.0;1902.6;;;;;;;;;;;;;;-0.50050354;-0.17133091;-0.19763787;;;;;1833.6
2000.0;1902.6;;;;;;;;;;;;;;;;;-124.485;12.306589;80.702385;;1843.3
2000.0;1902.6;;;;;;;;;;;;;;-0.54963833;-0.26569414;-0.2102115;;;;;1843.3
2000.0;1902.6;;;;;;;;;;;;;;;;;-119.438;7.980591;88.66008;;1843.3
2000.0;1902.6;;;;;;;;;;;;;;-0.58839685;-0.3634144;-0.21478927;;;;;1843.3
2000.0;1904.0;262143;262143;12993;;;;;;;;;;;;;;;;;;
2000.0;1909.7;;;;-0.66315085;-0.1235428;-0.11294176;;;;;;;;;;;;;;;
2000.0;1909.7;;;;-0.6623383;-0.12231828;-0.11659242;;;;;;;;;;;;;;;
2000.0;1909.7;;;;-0.6617432;-0.1205063;-0.11946489;;;;;;;;;;;;;;;
2000.0;1909.7;;;;-0.6614838;-0.11920549;-0.12327959;;;;;;;;;;;;;;;
2000.0;1909.7;;;;-0.6612473;-0.11895372;-0.12747575;;;;;;;;;;;;;;;
2000.0;1911.4;;;;;;;;;;26.791437;-22.427288;10.158849;;;;;;;;;
2000.0;1911.4;;;;;;;0.8341319;0.16113773;-0.17133091;;;;;;;;;;;;
2000.0;1911.4;;;;;;;;;;26.669363;-23.514511;9.392072;;;;;;;;;
2000.0;1911.4;;;;;;;0.83785516;0.1640675;-0.16272469;;;;;;;;;;;;
2054.0;1919.7;;;;-0.6606217;-0.11916734;-0.13233949;;;;;;;;;;;;;;;
2054.0;1919.7;;;;-0.6581345;-0.120288864;-0.13623048;;;;;;;;;;;;;;;
2054.0;1919.7;;;;-0.6543465;-0.12207796;-0.1390381;;;;;;;;;;;;;;;
2054.0;1919.7;;;;-0.65009314;-0.124919906;-0.1431389;;;;;;;;;;;;;;;
2054.0;1919.7;;;;-0.6466866;-0.12771608;-0.1475754;;;;;;;;;;;;;;;
2054.0;1921.0;;;;;;;;;;26.53966;-24.704735;8.342998;;;;;;;;;
2054.0;1921.0;;;;;;;0.83553576;0.16864528;-0.15802485;;;;;;;;;;;;
2054.0;1921.0;;;;;;;;;;26.459549;-25.460066;7.1184425;;;;;;;;;
2054.0;1921.0;;;;;;;0.8280282;0.17297891;-0.14923552;;;;;;;;;;;;
2054.0;1924.2;262143;262143;12998;;;;;;;;;;;;;;;;;;
2054.0;1929.9;;;;-0.6448899;-0.13140108;-0.15181352;;;;;;;;;;;;;;;
2054.0;1929.9;;;;-0.6449891;-0.13479616;-0.15620042;;;;;;;;;;;;;;;
2054.0;1929.9;;;;-0.64526373;-0.13783647;-0.16048814;;;;;;;;;;;;;;;
2054.0;1929.9;;;;-0.6450234;-0.13943864;-0.16510011;;;;;;;;;;;;;;;
2054.0;1929.9;;;;-0.64557654;-0.14067079;-0.17014696;;;;;;;;;;;;;;;
2054.0;1930.2;;;;;;;;;;;;;697;;;;;;;;
2054.0;1930.2;;;;;;;;;;;;;683;;;;;;;;
2054.0;1930.2;;;;;;;;;;;;;890;;;;;;;;
2054.0;1930.2;;;;;;;;;;;;;1090;;;;;;;;
2054.0;1930.2;;;;;;;;;;;;;1036;;;;;;;;
2054.0;1930.6;;;;;;;;;;26.337475;-25.8034;5.8175907;;;;;;;;;
2054.0;1930.6;;;;;;;0.8201544;0.17572558;-0.14191107;;;;;;;;;;;;
2054.0;1930.6;;;;;;;;;;26.329844;-25.624104;4.5319986;;;;;;;;;
2054.0;1930.6;;;;;;;0.8215583;0.1788995;-0.13531907;;;;;;;;;;;;
2056.0;1939.6;;;;-0.6470986;-0.14083101;-0.17388918;;;;;;;;;;;;;;;
2056.0;1939.6;;;;-0.64887625;-0.14051439;-0.17612459;;;;;;;;;;;;;;;
2056.0;1939.6;;;;-0.65154654;-0.1395836;-0.17842866;;;;;;;;;;;;;;;
2056.0;1939.6;;;;-0.6537705;-0.13892747;-0.18043138;;;;;;;;;;;;;;;
2056.0;1939.6;;;;-0.6571618;-0.13853838;-0.18233491;;;;;;;;;;;;;;;
2056.0;1939.9;;;;;;;;;;26.30314;-24.632254;3.3265176;;;;;;;;;
2056.0;1939.9;;;;;;;0.82699054;0.1821955;-0.12866604;;;;;;;;;;;;
2056.0;1939.9;;;;;;;;;;26.30314;-23.060549;2.2812586;;;;;;;;;
2056.0;1939.9;;;;;;;0.83010346;0.18652913;-0.12042604;;;;;;;;;;;;
2056.0;1944.1;262143;262143;12989;;;;;;;;;;;;;;;;;;
2056.0;1949.5;;;;;;;;;;26.402327;-20.901363;1.2779626;;;;;;;;;
2056.0;1949.5;;;;;;;0.83492535;0.18774988;-0.1142613;;;;;;;;;;;;
2056.0;1949.5;;;;;;;;;;26.345104;-17.963957;0.16022217;;;;;;;;;
2056.0;1949.5;;;;;;;0.837611;0.18829921;-0.10748619;;;;;;;;;;;;
2056.0;1949.7;;;;-0.6619721;-0.13874437;-0.18444444;;;;;;;;;;;;;;;
2056.0;1949.7;;;;-0.6684876;-0.1391411;-0.18622209;;;;;;;;;;;;;;;
2056.0;1949.7;;;;-0.6759072;-0.13937761;-0.18782046;;;;;;;;;;;;;;;
2056.0;1949.7;;;;-0.6824456;-0.13962556;-0.18838504;;;;;;;;;;;;;;;
2056.0;1949.7;;;;-0.68838125;-0.13933946;-0.18869022;;;;;;;;;;;;;;;
2056.0;1959.1;;;;;;;;;;26.50151;-14.698478;-0.90411085;;;;;;;;;
2056.0;1959.1;;;;;;;0.8352916;0.18872647;-0.10034486;;;;;;;;;;;;
2056.0;1959.1;;;;;;;;;;26.753288;-10.97522;-1.8272958;;;;;;;;;
2056.0;1959.1;;;;;;;0.83095795;0.18732262;-0.09387494;;;;;;;;;;;;
2057.0;1959.9;;;;-0.6927758;-0.13856126;-0.18777087;;;;;;;;;;;;;;;
2057.0;1959.9;;;;-0.6963311;-0.13761522;-0.18741609;;;;;;;;;;;;;;;
2057.0;1959.9;;;;-0.69860464;-0.1365738;-0.18548204;;;;;;;;;;;;;;;
2057.0;1959.9;;;;-0.6999245;-0.13602068;-0.18309022;;;;;;;;;;;;;;;
2057.0;1959.9;;;;-0.70192343;-0.13619997;-0.18182756;;;;;;;;;;;;;;;
2057.0;1962.0;;;;;;;;;;;;;;;;;-107.96304;2.1362956;96.13712;;1852.9
2057.0;1962.0;;;;;;;;;;;;;;-0.6081118;-0.460036;-0.18756676;;;;;1852.9
2057.0;1962.0;;;;;;;;;;;;;;;;;-92.5016;-3.2921844;102.496414;;1852.9
2057.0;1962.0;;;;;;;;;;;;;;-0.62355417;-0.53675956;-0.15930662;;;;;1852.9
2057.0;1962.0;;;;;;;;;;;;;;;;;-73.8052;-7.656331;107.38701;;1862.6
2057.0;1962.0;;;;;;;;;;;;;;-0.6583453;-0.60371715;-0.12854396;;;;;1862.6
2057.0;1962.0;;;;;;;;;;;;;;;;;-52.655872;-11.543626;110.442665;;1862.6
2057.0;1962.0;;;;;;;;;;;;;;-0.6870327;-0.6497391;-0.080568865;;;;;1862.6
2057.0;1962.0;;;;;;;;;;;;;;;;;-31.00299;-14.580218;111.98386;;1872.3
2057.0;1962.0;;;;;;;;;;;;;;-0.7051607;-0.69631034;-0.037354656;;;;;1872.3
2057.0;1962.0;;;;;;;;;;;;;;;;;-10.841701;-17.334513;111.61763;;1872.3
2057.0;1962.0;;;;;;;;;;;;;;-0.72438735;-0.74092835;0.0012207404;;;;;1872.3
2063.0;1962.7;;;;;;;;;;;;;;;;;5.493332;-20.584734;109.176155;;1881.9
2063.0;1962.7;;;;;;;;;;;;;;-0.71321756;-0.7906125;-0.0018921476;;;;;1881.9
2063.0;1962.7;;;;;;;;;;;;;;;;;17.796106;-20.886105;105.5063;;1881.9
2063.0;1962.7;;;;;;;;;;;;;;-0.7028413;-0.8271737;-0.02783288;;;;;1881.9
2063.0;1962.7;;;;;;;;;;;;;;;;;27.26829;-18.21192;101.24897;;1891.5
2063.0;1962.7;;;;;;;;;;;;;;-0.6748253;-0.8747215;-0.029236732;;;;;1891.5
2063.0;1962.7;;;;;;;;;;;;;;;;;31.51036;-12.039553;97.56768;;1891.5
2063.0;1962.7;;;;;;;;;;;;;;-0.66652423;-0.8723411;-0.028687399;;;;;1891.5
2063.0;1962.7;;;;;;;;;;;;;;;;;29.919584;-5.794702;93.37519;;1901.2
2063.0;1962.7;;;;;;;;;;;;;;-0.6738487;-0.8453627;-0.028992584;;;;;1901.2
2063.0;1962.7;;;;;;;;;;;;;;;;;23.548845;-1.2550737;87.58813;;1901.2
2063.0;1962.7;;;;;;;;;;;;;;-0.6632283;-0.8283334;-0.055482652;;;;;1901.2
2063.0;1964.2;262143;262143;13003;;;;;;;;;;;;;;;;;;
2063.0;1968.5;;;;;;;;;;26.886808;-7.099368;-2.5330362;;;;;;;;;
2063.0;1968.5;;;;;;;0.8289437;0.18506424;-0.09149449;;;;;;;;;;;;
2063.0;1968.5;;;;;;;;;;27.138586;-3.2921844;-3.4218879;;;;;;;;;
2063.0;1968.5;;;;;;;0.82168037;0.18524735;-0.08819849;;;;;;;;;;;;
2063.0;1969.6;;;;-0.70605093;-0.13603212;-0.1809311;;;;;;;;;;;;;;;
2063.0;1969.6;;;;-0.7125092;-0.13689043;-0.17992403;;;;;;;;;;;;;;;
2063.0;1969.6;;;;-0.72138983;-0.13759615;-0.17919923;;;;;;;;;;;;;;;
2063.0;1969.6;;;;-0.73035055;-0.13844682;-0.17977907;;;;;;;;;;;;;;;
2063.0;1969.6;;;;-0.73899084;-0.1392975;-0.18051912;;;;;;;;;;;;;;;
2131.0;1970.1;;;;;;;;;;;;;869;;;;;;;;
2131.0;1970.1;;;;;;;;;;;;;826;;;;;;;;
2131.0;1970.1;;;;;;;;;;;;;841;;;;;;;;
2131.0;1970.1;;;;;;;;;;;;;807;;;;;;;;
2131.0;1970.1;;;;;;;;;;;;;720;;;;;;;;
2131.0;1977.9;;;;;;;;;;27.41325;0.29374066;-4.4328136;;;;;;;;;
2131.0;1977.9;;;;;;;0.81551564;0.18366039;-0.08856472;;;;;;;;;;;;
2131.0;1977.9;;;;;;;;;;27.768028;3.5287027;-5.367443;;;;;;;;;
2131.0;1977.9;;;;;;;0.80739766;0.18274483;-0.086245306;;;;;;;;;;;;
2131.0;1979.6;;;;-0.74672705;-0.14022447;-0.18218614;;;;;;;;;;;;;;;
2131.0;1979.6;;;;-0.75348294;-0.14134218;-0.18334581;;;;;;;;;;;;;;;
2131.0;1979.6;;;;-0.75934994;-0.14293672;-0.18424226;;;;;;;;;;;;;;;
2131.0;1979.6;;;;-0.7642175;-0.14427187;-0.18476106;;;;;;;;;;;;;;;
2131.0;1979.6;;;;-0.7696992;-0.14514162;-0.18460084;;;;;;;;;;;;;;;
2131.0;1984.3;262143;262143;12999;;;;;;;;;;;;;;;;;;
2131.0;1987.6;;;;;;;;;;28.180029;6.050295;-6.1380353;;;;;;;;;
2131.0;1987.6;;;;;;;0.79250467;0.18091373;-0.08386487;;;;;;;;;;;;
2131.0;1987.6;;;;;;;;;;28.592028;8.1827755;-6.8933682;;;;;;;;;
2131.0;1987.6;;;;;;;0.7797479;0.17908262;-0.08191168;;;;;;;;;;;;
2131.0;1989.7;;;;-0.7763635;-0.14575578;-0.18457033;;;;;;;;;;;;;;;
2131.0;1989.7;;;;-0.7851144;-0.1463318;-0.18476106;;;;;;;;;;;;;;;
2131.0;1989.7;;;;-0.7945329;-0.14624025;-0.185421;;;;;;;;;;;;;;;
2131.0;1989.7;;;;-0.8048173;-0.14579393;-0.18539049;;;;;;;;;;;;;;;
2131.0;1989.7;;;;-0.8153802;-0.14492036;-0.18340684;;;;;;;;;;;;;;;
2135.0;1997.0;;;;;;;;;;28.912474;9.720146;-7.5380716;;;;;;;;;
2135.0;1997.0;;;;;;;0.7630238;0.1782281;-0.084109016;;;;;;;;;;;;
2135.0;1997.0;;;;;;;;;;29.396955;10.97522;-8.003479;;;;;;;;;
2135.0;1997.0;;;;;;;0.74886316;0.17969298;-0.084231086;;;;;;;;;;;;
2135.0;1999.7;;;;-0.82506955;-0.14387514;-0.18112184;;;;;;;;;;;;;;;
2135.0;1999.7;;;;-0.8335458;-0.14201738;-0.1789818;;;;;;;;;;;;;;;
2135.0;1999.7;;;;-0.8410951;-0.1405449;-0.17708589;;;;;;;;;;;;;;;
2135.0;1999.7;;;;-0.84770215;-0.13899614;-0.17359926;;;;;;;;;;;;;;;
2135.0;1999.7;;;;-0.853058;-0.13745119;-0.17105104;;;;;;;;;;;;;;;
2135.0;2004.4;262143;262143;13000;;;;;;;;;;;;;;;;;;
2135.0;2006.7;;;;;;;;;;29.812769;11.9060335;-8.457442;;;;;;;;;
2135.0;2006.7;;;;;;;0.74166083;0.17828913;-0.08239998;;;;;;;;;;;;
2135.0;2006.7;;;;;;;;;;30.224768;12.684256;-8.911405;;;;;;;;;
2135.0;2006.7;;;;;;;0.737022;0.17645802;-0.08343761;;;;;;;;;;;;
2135.0;2009.8;;;;-0.8568803;-0.13589479;-0.16822053;;;;;;;;;;;;;;;
2135.0;2009.8;;;;-0.8600198;-0.1356621;-0.16611482;;;;;;;;;;;;;;;
2135.0;2009.8;;;;-0.8622247;-0.13567735;-0.16323473;;;;;;;;;;;;;;;
2135.0;2009.8;;;;-0.8640443;-0.13598634;-0.1599579;;;;;;;;;;;;;;;
2135.0;2009.8;;;;-0.86605465;-0.13718797;-0.15706636;;;;;;;;;;;;;;;
2135.0;2010.3;;;;;;;;;;;;;504;;;;;;;;
2135.0;2010.3;;;;;;;;;;;;;108;;;;;;;;
2135.0;2010.3;;;;;;;;;;;;;-181;;;;;;;;
2135.0;2010.3;;;;;;;;;;;;;80;;;;;;;;
2135.0;2010.3;;;;;;;;;;;;;763;;;;;;;;
2137.0;2016.3;;;;;;;;;;30.610065;13.420515;-9.441664;;;;;;;;;
2137.0;2016.3;;;;;;;0.73647267;0.18048647;-0.08581805;;;;;;;;;;;;
2137.0;2016.3;;;;;;;;;;31.025879;14.065218;-9.830774;;;;;;;;;
2137.0;2016.3;;;;;;;0.73262733;0.18115787;-0.089358196;;;;;;;;;;;;
2137.0;2019.9;;;;-0.8690225;-0.1386986;-0.15433504;;;;;;;;;;;;;;;
2137.0;2019.9;;;;-0.8724252;-0.14071275;-0.15211488;;;;;;;;;;;;;;;
2137.0;2019.9;;;;-0.87557995;-0.14241411;-0.14958574;;;;;;;;;;;;;;;
2137.0;2019.9;;;;-0.87739193;-0.1440468;-0.14809419;;;;;;;;;;;;;;;
2137.0;2019.9;;;;-0.8774415;-0.14627077;-0.14695741;;;;;;;;;;;;;;;
2137.0;2022.5;;;;;;;;;;;;;;;;;13.779107;2.8000731;80.24079;;1910.9
2137.0;2022.5;;;;;;;;;;;;;;-0.65401167;-0.82021546;-0.07818842;;;;;1910.9
2137.0;2022.5;;;;;;;;;;;;;;;;;2.727592;7.637257;72.35557;;1910.9
2137.0;2022.5;;;;;;;;;;;;;;-0.63380843;-0.8201544;-0.11767937;;;;;1910.9
2137.0;2022.5;;;;;;;;;;;;;;;;;-8.579515;14.7557;64.3025;;1920.5
2137.0;2022.5;;;;;;;;;;;;;;-0.6375927;-0.8229621;-0.1826838;;;;;1920.5
2137.0;2022.5;;;;;;;;;;;;;;;;;-16.666922;22.659992;55.745872;;1920.5
2137.0;2022.5;;;;;;;;;;;;;;-0.6372875;-0.8125248;-0.22449416;;;;;1920.5
2137.0;2022.5;;;;;;;;;;;;;;;;;-21.649069;31.079287;48.490097;;1930.2
2137.0;2022.5;;;;;;;;;;;;;;-0.6537675;-0.7803583;-0.24250008;;;;;1930.2
2137.0;2022.5;;;;;;;;;;;;;;;;;-24.334698;37.82388;41.909542;;1930.2
2137.0;2022.5;;;;;;;;;;;;;;-0.67128515;-0.7365337;-0.21399578;;;;;1930.2
2138.0;2023.3;;;;;;;;;;;;;;;;;-25.986511;42.43599;36.675617;;1939.9
2138.0;2023.3;;;;;;;;;;;;;;-0.67311627;-0.69356364;-0.1690115;;;;;1939.9
2138.0;2023.3;;;;;;;;;;;;;;;;;-28.199102;46.063873;32.69677;;1939.9
2138.0;2023.3;;;;;;;;;;;;;;-0.66316724;-0.6482742;-0.11487167;;;;;1939.9
2138.0;2023.3;;;;;;;;;;;;;;;;;-31.540878;49.199654;29.339733;;1949.6
2138.0;2023.3;;;;;;;;;;;;;;-0.67281103;-0.61183506;-0.055482652;;;;;1949.6
2138.0;2023.3;;;;;;;;;;;;;;;;;-35.56169;50.115208;26.554918;;1949.6
2138.0;2023.3;;;;;;;;;;;;;;-0.6913663;-0.5825373;0.0037232582;;;;;1949.6
2138.0;2023.3;;;;;;;;;;;;;;;;;-38.903473;48.56258;24.349957;;1959.2
2138.0;2023.3;;;;;;;;;;;;;;-0.68947417;-0.55098116;0.06524857;;;;;1959.2
2138.0;2023.3;;;;;;;;;;;;;;;;;-40.723137;46.54454;22.846918;;1959.2
2138.0;2023.3;;;;;;;;;;;;;;-0.70711386;-0.50618;0.10754723;;;;;1959.2
2138.0;2024.4;262143;262143;13008;;;;;;;;;;;;;;;;;;
2138.0;2025.7;;;;;;;;;;31.376842;14.618366;-10.250404;;;;;;;;;
2138.0;2025.7;;;;;;;0.732017;0.18176824;-0.093813896;;;;;;;;;;;;
2138.0;2025.7;;;;;;;;;;31.678215;15.179143;-10.74633;;;;;;;;;
2138.0;2025.7;;;;;;;0.7349467;0.1805475;-0.09955138;;;;;;;;;;;;
2138.0;2029.8;;;;-0.87705624;-0.14908601;-0.14710237;;;;;;;;;;;;;;;
2138.0;2029.8;;;;-0.8777162;-0.15192415;-0.14787294;;;;;;;;;;;;;;;
2138.0;2029.8;;;;-0.8784028;-0.1561928;-0.15137483;;;;;;;;;;;;;;;
2138.0;2029.8;;;;-0.8795587;-0.16158296;-0.15565874;;;;;;;;;;;;;;;
2138.0;2029.8;;;;-0.88196194;-0.16741182;-0.16099931;;;;;;;;;;;;;;;
2140.0;2035.3;;;;;;;;;;32.013916;15.835291;-11.200293;;;;;;;;;
2140.0;2035.3;;;;;;;0.74202704;0.17920469;-0.10376293;;;;;;;;;;;;
2140.0;2035.3;;;;;;;;;;32.376324;16.59444;-11.700033;;;;;;;;;
2140.0;2035.3;;;;;;;0.7525864;0.17731254;-0.10992767;;;;;;;;;;;;
2140.0;2039.8;;;;-0.8850328;-0.17450334;-0.16704561;;;;;;;;;;;;;;;
2140.0;2039.8;;;;-0.8881341;-0.18165971;-0.1729355;;;;;;;;;;;;;;;
2140.0;2039.8;;;;-0.8918611;-0.18950275;-0.17605211;;;;;;;;;;;;;;;
2140.0;2039.8;;;;-0.8983079;-0.1975899;-0.17914964;;;;;;;;;;;;;;;
2140.0;2039.8;;;;-0.9093896;-0.20476535;-0.18561555;;;;;;;;;;;;;;;
2140.0;2044.8;;;;;;;;;;32.776882;17.563402;-12.230293;;;;;;;;;
2140.0;2044.8;;;;;;;0.7624744;0.1770684;-0.114200264;;;;;;;;;;;;
2140.0;2044.8;;;;;;;;;;33.192696;18.642994;-12.550736;;;;;;;;;
2140.0;2044.8;;;;;;;0.76973784;0.17468795;-0.11767937;;;;;;;;;;;;
2140.0;2044.6;262143;262143;13019;;;;;;;;;;;;;;;;;;
2140.0;2049.9;;;;-0.9241029;-0.2121506;-0.18957141;;;;;;;;;;;;;;;
2140.0;2049.9;;;;-0.9408151;-0.21838;-0.19367602;;;;;;;;;;;;;;;
2140.0;2049.9;;;;-0.9584924;-0.22244647;-0.1979523;;;;;;;;;;;;;;;
2140.0;2049.9;;;;-0.9769937;-0.22506717;-0.20281604;;;;;;;;;;;;;;;
2140.0;2049.9;;;;-0.99456036;-0.22652057;-0.2058945;;;;;;;;;;;;;;;
2140.0;2050.5;;;;;;;;;;;;;1331;;;;;;;;
2140.0;2050.5;;;;;;;;;;;;;1485;;;;;;;;
2140.0;2050.5;;;;;;;;;;;;;1060;;;;;;;;
2140.0;2050.5;;;;;;;;;;;;;258;;;;;;;;
2140.0;2050.5;;;;;;;;;;;;;-41;;;;;;;;
2177.0;2054.2;;;;;;;;;;33.680992;19.981993;-12.730033;;;;;;;;;
2177.0;2054.2;;;;;;;0.776513;0.17157505;-0.12060915;;;;;;;;;;;;
2177.0;2054.2;;;;;;;;;;34.1731;21.33244;-12.882626;;;;;;;;;
2177.0;2054.2;;;;;;;0.7817621;0.16858424;-0.123416856;;;;;;;;;;;;
2177.0;2059.7;;;;-1.0106622;-0.22665027;-0.2082825;;;;;;;;;;;;;;;
2177.0;2059.7;;;;-1.0253183;-0.22513965;-0.208931;;;;;;;;;;;;;;;
2177.0;2059.7;;;;-1.0400316;-0.2233887;-0.21136478;;;;;;;;;;;;;;;
2177.0;2059.7;;;;-1.0561754;-0.22121051;-0.21345523;;;;;;;;;;;;;;;
2177.0;2059.7;;;;-1.0724679;-0.21888736;-0.21497348;;;;;;;;;;;;;;;
2177.0;2063.8;;;;;;;;;;34.72243;22.701956;-13.065737;;;;;;;;;
2177.0;2063.8;;;;;;;0.78652304;0.16449477;-0.1259804;;;;;;;;;;;;
2177.0;2063.8;;;;;;;;;;35.31373;24.044771;-13.245033;;;;;;;;;
2177.0;2063.8;;;;;;;0.7917722;0.16302988;-0.12878811;;;;;;;;;;;;
2177.0;2064.5;262143;262143;13025;;;;;;;;;;;;;;;;;;
2177.0;2069.8;;;;-1.0879976;-0.21729282;-0.2164078;;;;;;;;;;;;;;;
2177.0;2069.8;;;;-1.1031419;-0.21599582;-0.21981433;;;;;;;;;;;;;;;
2177.0;2069.8;;;;-1.118229;-0.21500018;-0.22449496;;;;;;;;;;;;;;;
2177.0;2069.8;;;;-1.1334916;-0.21476749;-0.23166278;;;;;;;;;;;;;;;
2177.0;2069.8;;;;-1.1525384;-0.21433261;-0.23975757;;;;;;;;;;;;;;;
2177.0;2073.4;;;;;;;;;;35.985138;25.315104;-13.351849;;;;;;;;;
2177.0;2073.4;;;;;;;0.78817105;0.16083254;-0.13275552;;;;;;;;;;;;
2177.0;2073.4;;;;;;;;;;36.633656;26.3184;-13.389997;;;;;;;;;
2177.0;2073.4;;;;;;;0.78756064;0.15637684;-0.13745537;;;;;;;;;;;;
2179.0;2079.9;;;;-1.1760103;-0.21241382;-0.24795154;;;;;;;;;;;;;;;
2179.0;2079.9;;;;-1.2000962;-0.20867923;-0.25499728;;;;;;;;;;;;;;;
2179.0;2079.9;;;;-1.2192575;-0.20207217;-0.26101688;;;;;;;;;;;;;;;
2179.0;2079.9;;;;-1.2309304;-0.19313815;-0.26669696;;;;;;;;;;;;;;;
2179.0;2079.9;;;;-1.2370111;-0.18318178;-0.27286914;;;;;;;;;;;;;;;
2179.0;2082.4;;;;;;;;;;;;;;;;;-39.69695;42.821285;21.725365;;1968.9
2179.0;2082.4;;;;;;;;;;;;;;-0.72707295;-0.45759454;0.19251075;;;;;1968.9
2179.0;2082.4;;;;;;;;;;;;;;;;;-39.204838;39.69695;20.310068;;1968.9
2179.0;2082.4;;;;;;;;;;;;;;-0.7481918;-0.41969055;0.25208288;;;;;1968.9
2179.0;2082.4;;;;;;;;;;;;;;;;;-40.341652;37.686546;18.566698;;1978.6
2179.0;2082.4;;;;;;;;;;;;;;-0.7718131;-0.41987365;0.23450422;;;;;1978.6
2179.0;2082.4;;;;;;;;;;;;;;;;;-42.176582;37.118137;15.858181;;1978.6
2179.0;2082.4;;;;;;;;;;;;;;-0.7900632;-0.4009522;0.19287698;;;;;1978.6
2179.0;2082.4;;;;;;;;;;;;;;;;;-41.676838;37.17536;12.5125885;;1988.2
2179.0;2082.4;;;;;;;;;;;;;;-0.83602405;-0.37531662;0.24256112;;;;;1988.2
2179.0;2082.4;;;;;;;;;;;;;;;;;-39.38032;36.046173;8.518478;;1988.2
2179.0;2082.4;;;;;;;;;;;;;;-0.92880034;-0.33887753;0.39173558;;;;;1988.2
2180.0;2083.2;;;;;;;;;;;;;;;;;-38.819546;34.00525;5.0660725;;1997.7
2180.0;2083.2;;;;;;;;;;;;;;-1.035371;-0.26276436;0.4905545;;;;;1997.7
2180.0;2083.2;;;;;;;;;;;;;;;;;-40.421764;35.508286;2.6932585;;1997.7
2180.0;2083.2;;;;;;;;;;;;;;-1.1852168;-0.16492203;0.28717917;;;;;1997.7
2180.0;2083.2;;;;;;;;;;;;;;;;;-40.349285;42.916656;2.3842587;;2007.4
2180.0;2083.2;;;;;;;;;;;;;;-1.475692;-0.10937834;-0.1561327;;;;;2007.4
2180.0;2083.2;;;;;;;;;;;;;;;;;-32.36488;49.157692;3.5172582;;2007.4
2180.0;2083.2;;;;;;;;;;;;;;-1.9461653;-0.0794702;-0.23993652;;;;;2007.4
2180.0;2083.2;;;;;;;;;;;;;;;;;-30.968657;42.863247;2.883999;;2017.0
2180.0;2083.2;;;;;;;;;;;;;;-1.9998169;-0.093264565;-0.11157567;;;;;2017.0
2180.0;2083.2;;;;;;;;;;;;;;;;;-38.56777;29.492325;-4.7418137;;2017.0
2180.0;2083.2;;;;;;;;;;;;;;-1.9998169;-0.08764916;0.03930784;;;;;2017.0
2180.0;2083.0;;;;;;;;;;37.37373;27.146215;-13.325145;;;;;;;;;
2180.0;2083.0;;;;;;;0.7835322;0.15094455;-0.13940856;;;;;;;;;;;;
2180.0;2083.0;;;;;;;;;;38.125248;27.836695;-13.245033;;;;;;;;;
2180.0;2083.0;;;;;;;0.7817011;0.14496292;-0.14050722;;;;;;;;;;;;
2180.0;2084.7;262143;262143;13024;;;;;;;;;;;;;;;;;;
2180.0;2089.9;;;;-1.2392923;-0.17250063;-0.27838138;;;;;;;;;;;;;;;
2180.0;2089.9;;;;-1.2410966;-0.16066362;-0.28112414;;;;;;;;;;;;;;;
2180.0;2089.9;;;;-1.2410127;-0.15075685;-0.28411487;;;;;;;;;;;;;;;
2180.0;2089.9;;;;-1.2391702;-0.14179613;-0.28688434;;;;;;;;;;;;;;;
2180.0;2089.9;;;;-1.2378656;-0.13500978;-0.28937915;;;;;;;;;;;;;;;
2182.0;2090.6;;;;;;;;;;;;;1222;;;;;;;;
2182.0;2090.6;;;;;;;;;;;;;3183;;;;;;;;
2182.0;2090.6;;;;;;;;;;;;;199;;;;;;;;
2182.0;2090.6;;;;;;;;;;;;;-11768;;;;;;;;
2182.0;2090.6;;;;;;;;;;;;;-25471;;;;;;;;
2182.0;2092.5;;;;;;;;;;38.93399;28.35551;-13.153478;;;;;;;;;
2182.0;2092.5;;;;;;;0.7812128;0.1386761;-0.14178899;;;;;;;;;;;;
2182.0;2092.5;;;;;;;;;;39.78469;28.756065;-13.050478;;;;;;;;;
2182.0;2092.5;;;;;;;0.77846617;0.13061923;-0.14227729;;;;;;;;;;;;
2182.0;2097.7;;;;;;;;;;;;;;;;;-40.00595;19.684439;-7.9233685;;2026.6
2182.0;2097.7;;;;;;;;;;;;;;-1.9126561;-0.08270516;0.22315134;;;;;2026.6
2182.0;2097.7;;;;;;;;;;;;;;;;;-35.779137;14.64507;-5.4971466;;2026.6
2182.0;2097.7;;;;;;;;;;;;;;-1.5364238;-0.14972381;0.025452437;;;;;2026.6
2182.0;2097.7;;;;;;;;;;;;;;;;;-33.95947;13.81344;-4.871517;;2036.3
2182.0;2097.7;;;;;;;;;;;;;;-1.035554;-0.2832728;-0.6354564;;;;;2036.3
2182.0;2097.7;;;;;;;;;;;;;;;;;-26.470993;14.435255;-2.6551104;;2036.3
2182.0;2097.7;;;;;;;;;;;;;;-0.9351482;-0.36811426;-0.83297217;;;;;2036.3
2182.0;2097.7;;;;;;;;;;;;;;;;;-18.055513;6.8628497;1.6899625;;2045.9
2182.0;2097.7;;;;;;;;;;;;;;-0.90841395;-0.37958923;-0.65504926;;;;;2045.9
2182.0;2097.7;;;;;;;;;;;;;;;;;-0.88122195;0.42725915;7.98822;;2045.9
2182.0;2097.7;;;;;;;;;;;;;;-0.9246498;-0.3122654;-0.25482956;;;;;2045.9
2182.0;2099.8;;;;-1.2373735;-0.12963487;-0.290741;;;;;;;;;;;;;;;
2182.0;2099.8;;;;-1.2370378;-0.12596513;-0.29375842;;;;;;;;;;;;;;;
2182.0;2099.8;;;;-1.2357904;-0.12220003;-0.29794696;;;;;;;;;;;;;;;
2182.0;2099.8;;;;-1.2316133;-0.118438736;-0.29999545;;;;;;;;;;;;;;;
2182.0;2099.8;;;;-1.2242166;-0.1152115;-0.30188373;;;;;;;;;;;;;;;
2237.0;2101.9;;;;;;;;;;40.64684;29.183325;-13.077182;;;;;;;;;
2237.0;2101.9;;;;;;;0.7772454;0.12292856;-0.14239937;;;;;;;;;;;;
2237.0;2101.9;;;;;;;;;;41.447952;29.465622;-13.061922;;;;;;;;;
2237.0;2101.9;;;;;;;0.7707755;0.117069006;-0.13885921;;;;;;;;;;;;
2237.0;2104.7;262143;262143;13030;;;;;;;;;;;;;;;;;;
2237.0;2109.9;;;;-1.2164384;-0.112648025;-0.3055382;;;;;;;;;;;;;;;
2237.0;2109.9;;;;-1.2099992;-0.10983278;-0.31093982;;;;;;;;;;;;;;;
2237.0;2109.9;;;;-1.20747;-0.10740663;-0.31643298;;;;;;;;;;;;;;;
2237.0;2109.9;;;;-1.2089387;-0.105606094;-0.32387546;;;;;;;;;;;;;;;
2237.0;2109.9;;;;-1.2120172;-0.103763595;-0.33163074;;;;;;;;;;;;;;;
2237.0;2111.4;;;;;;;;;;42.38258;29.59151;-12.955108;;;;;;;;;
2237.0;2111.4;;;;;;;0.7615589;0.113101594;-0.13715018;;;;;;;;;;;;
2237.0;2111.4;;;;;;;;;;43.27143;29.530474;-12.825403;;;;;;;;;
2237.0;2111.4;;;;;;;0.75624865;0.1076693;-0.13202307;;;;;;;;;;;;
2237.0;2119.5;;;;-1.2150003;-0.10256578;-0.3391991;;;;;;;;;;;;;;;
2237.0;2119.5;;;;-1.2164003;-0.10137178;-0.34744266;;;;;;;;;;;;;;;
2237.0;2119.5;;;;-1.2191621;-0.10040666;-0.3562508;;;;;;;;;;;;;;;
2237.0;2119.5;;;;-1.2206956;-0.099239364;-0.36672977;;;;;;;;;;;;;;;
2237.0;2119.5;;;;-1.2231942;-0.09889223;-0.37631613;;;;;;;;;;;;;;;
2237.0;2120.7;;;;;;;;;;44.10306;29.446547;-12.722404;;;;;;;;;
2237.0;2120.7;;;;;;;0.75356305;0.10309152;-0.12207404;;;;;;;;;;;;
2237.0;2120.7;;;;;;;;;;45.04532;29.454178;-12.516403;;;;;;;;;
2237.0;2120.7;;;;;;;0.7488021;0.0992462;-0.11438338;;;;;;;;;;;;
2238.0;2124.5;262143;262143;13026;;;;;;;;;;;;;;;;;;
2238.0;2129.6;;;;-1.2290841;-0.09907533;-0.3847962;;;;;;;;;;;;;;;
2238.0;2129.6;;;;-1.2376748;-0.10076524;-0.39809042;;;;;;;;;;;;;;;
2238.0;2129.6;;;;-1.2492524;-0.102382675;-0.4094239;;;;;;;;;;;;;;;
2238.0;2129.6;;;;-1.2637941;-0.10396196;-0.42067343;;;;;;;;;;;;;;;
2238.0;2129.6;;;;-1.2802736;-0.10541536;-0.43301016;;;;;;;;;;;;;;;
2238.0;2130.4;;;;;;;;;;45.777763;29.354992;-12.2646265;;;;;;;;;
2238.0;2130.4;;;;;;;0.74513996;0.095278785;-0.109195225;;;;;;;;;;;;
2238.0;2130.4;;;;;;;;;;46.651356;29.374065;-12.020478;;;;;;;;;
2238.0;2130.4;;;;;;;0.7421491;0.09143346;-0.101931825;;;;;;;;;;;;
2238.0;2130.5;;;;;;;;;;;;;-28541;;;;;;;;
2238.0;2130.5;;;;;;;;;;;;;-18139;;;;;;;;
2238.0;2130.5;;;;;;;;;;;;;-4104;;;;;;;;
2238.0;2130.5;;;;;;;;;;;;;3174;;;;;;;;
2238.0;2130.5;;;;;;;;;;;;;3230;;;;;;;;
2238.0;2139.8;;;;-1.2987825;-0.10650255;-0.44518286;;;;;;;;;;;;;;;
2238.0;2139.8;;;;-1.3185617;-0.106792465;-0.45880896;;;;;;;;;;;;;;;
2238.0;2139.8;;;;-1.3409005;-0.10596086;-0.4710427;;;;;;;;;;;;;;;
2238.0;2139.8;;;;-1.3658258;-0.10370256;-0.48208624;;;;;;;;;;;;;;;
2238.0;2139.8;;;;-1.3915673;-0.100288406;-0.4924088;;;;;;;;;;;;;;;
2238.0;2140.0;;;;;;;;;;47.410503;29.5114;-11.818293;;;;;;;;;
2238.0;2140.0;;;;;;;0.7381817;0.0860622;-0.099490345;;;;;;;;;;;;
2238.0;2140.0;;;;;;;;;;48.192543;29.595325;-11.703849;;;;;;;;;
2238.0;2140.0;;;;;;;0.7367168;0.086123236;-0.09790338;;;;;;;;;;;;
2238.0;2144.8;262143;262143;13024;;;;;;;;;;;;;;;;;;
2240.0;2149.6;;;;;;;;;;49.06232;29.412214;-11.715293;;;;;;;;;
2240.0;2149.6;;;;;;;0.7437971;0.08575701;-0.09228797;;;;;;;;;;;;
2240.0;2149.6;;;;;;;;;;49.737537;29.152807;-11.898404;;;;;;;;;
2240.0;2149.6;;;;;;;0.7552721;0.08526871;-0.08795434;;;;;;;;;;;;
2240.0;2149.9;;;;;;;;;;;;;;;;;7.930998;0.75914794;8.579515;;2055.6
2240.0;2149.9;;;;;;;;;;;;;;-0.99795526;-0.3322245;0.21546067;;;;;2055.6
2240.0;2149.9;;;;;;;;;;;;;;;;;-11.844996;0.90029603;-0.6485183;;2055.6
2240.0;2149.9;;;;;;;;;;;;;;-0.85763115;-0.32673118;0.08417005;;;;;2055.6
2240.0;2149.9;;;;;;;;;;;;;;;;;-30.339212;5.584887;-10.105441;;2065.3
2240.0;2149.9;;;;;;;;;;;;;;-0.64656514;-0.30591753;-0.4848781;;;;;2065.3
2240.0;2149.9;;;;;;;;;;;;;;;;;-30.972471;16.529589;-12.699514;;2065.3
2240.0;2149.9;;;;;;;;;;;;;;-0.7234107;-0.25995666;-0.88235116;;;;;2065.3
2240.0;2149.9;;;;;;;;;;;;;;;;;-11.036257;17.60918;-10.097812;;2075.0
2240.0;2149.9;;;;;;;;;;;;;;-0.9110385;-0.1899472;-0.8646504;;;;;2075.0
2240.0;2149.9;;;;;;;;;;;;;;;;;18.677328;12.451551;-7.633442;;2075.0
2240.0;2149.9;;;;;;;;;;;;;;-0.98690754;-0.10278634;-0.626545;;;;;2075.0
2240.0;2149.7;;;;-1.4162904;-0.095382705;-0.50220877;;;;;;;;;;;;;;;
2240.0;2149.7;;;;-1.4396974;-0.0897255;-0.5110703;;;;;;;;;;;;;;;
2240.0;2149.7;;;;-1.4597017;-0.08369828;-0.51840216;;;;;;;;;;;;;;;
2240.0;2149.7;;;;-1.475609;-0.07706071;-0.52387244;;;;;;;;;;;;;;;
2240.0;2149.7;;;;-1.4873277;-0.07026292;-0.52826697;;;;;;;;;;;;;;;
2241.0;2157.3;;;;;;;;;;;;;;;;;39.288765;15.091403;-6.2295904;;2084.6
2241.0;2157.3;;;;;;;;;;;;;;-1.0442823;-0.020935697;-0.47932371;;;;;2084.6
2241.0;2157.3;;;;;;;;;;;;;;;;;42.54662;23.152103;-5.6573687;;2084.6
2241.0;2157.3;;;;;;;;;;;;;;-1.1861324;-0.07593005;-0.46827602;;;;;2084.6
2241.0;2157.3;;;;;;;;;;;;;;;;;36.01947;29.946287;-4.5243692;;2094.3
2241.0;2157.3;;;;;;;;;;;;;;-1.3996398;-0.21967223;-0.43946654;;;;;2094.3
2241.0;2157.3;;;;;;;;;;;;;;;;;23.499252;33.25373;-3.540147;;2094.3
2241.0;2157.3;;;;;;;;;;;;;;-1.6023438;-0.4778588;-0.4989166;;;;;2094.3
2241.0;2157.3;;;;;;;;;;;;;;;;;13.027589;32.059696;-0.84688866;;2103.9
2241.0;2157.3;;;;;;;;;;;;;;-1.8525345;-0.74056214;-0.58717614;;;;;2103.9
2241.0;2157.3;;;;;;;;;;;;;;;;;7.8966646;23.77392;1.083407;;2103.9
2241.0;2157.3;;;;;;;;;;;;;;-1.9981079;-1.0661336;-0.65956604;;;;;2103.9
2241.0;2158.9;;;;;;;;;;50.286873;28.626362;-12.08533;;;;;;;;;
2241.0;2158.9;;;;;;;0.7658315;0.08001953;-0.086489454;;;;;;;;;;;;
2241.0;2158.9;;;;;;;;;;50.618763;28.366955;-12.3638115;;;;;;;;;
2241.0;2158.9;;;;;;;0.77468187;0.07861568;-0.0888699;;;;;;;;;;;;
2241.0;2159.6;;;;-1.4937631;-0.06288148;-0.531704;;;;;;;;;;;;;;;
2241.0;2159.6;;;;-1.4963418;-0.055610664;-0.53101736;;;;;;;;;;;;;;;
2241.0;2159.6;;;;-1.4948884;-0.048770912;-0.5276223;;;;;;;;;;;;;;;
2241.0;2159.6;;;;-1.4920045;-0.041839603;-0.5243836;;;;;;;;;;;;;;;
2241.0;2159.6;;;;-1.4859315;-0.03590775;-0.5220147;;;;;;;;;;;;;;;
2241.0;2164.8;262143;262143;13019;;;;;;;;;;;;;;;;;;
2297.0;2168.5;;;;;;;;;;51.04602;28.02362;-12.80633;;;;;;;;;
2297.0;2168.5;;;;;;;0.7840815;0.08478042;-0.0926542;;;;;;;;;;;;
2297.0;2168.5;;;;;;;;;;51.602985;27.04703;-13.058107;;;;;;;;;
2297.0;2168.5;;;;;;;0.7932371;0.105960265;-0.09851375;;;;;;;;;;;;
2297.0;2169.7;;;;-1.4773141;-0.030197147;-0.5267945;;;;;;;;;;;;;;;
2297.0;2169.7;;;;-1.4653894;-0.024902347;-0.52369314;;;;;;;;;;;;;;;
2297.0;2169.7;;;;-1.4514543;-0.019752504;-0.5212899;;;;;;;;;;;;;;;
2297.0;2169.7;;;;-1.4400636;-0.014598848;-0.524067;;;;;;;;;;;;;;;
2297.0;2169.7;;;;-1.430626;-0.009067536;-0.5274201;;;;;;;;;;;;;;;
2297.0;2170.6;;;;;;;;;;;;;1842;;;;;;;;
2297.0;2170.6;;;;;;;;;;;;;1998;;;;;;;;
2297.0;2170.6;;;;;;;;;;;;;2249;;;;;;;;
2297.0;2170.6;;;;;;;;;;;;;2008;;;;;;;;
2297.0;2170.6;;;;;;;;;;;;;1965;;;;;;;;
2297.0;2177.7;;;;;;;;;;52.175205;25.387585;-12.844478;;;;;;;;;
2297.0;2177.7;;;;;;;0.8107547;0.1353801;-0.11139256;;;;;;;;;;;;
2297.0;2177.7;;;;;;;;;;52.62917;23.77392;-12.459181;;;;;;;;;
2297.0;2177.7;;;;;;;0.8499405;0.16296884;-0.12543108;;;;;;;;;;;;
2297.0;2179.4;;;;-1.4235955;-0.0039405827;-0.53010565;;;;;;;;;;;;;;;
2297.0;2179.4;;;;-1.4169885;0.002685547;-0.53330237;;;;;;;;;;;;;;;
2297.0;2179.4;;;;-1.4080964;0.00933075;-0.5374184;;;;;;;;;;;;;;;
2297.0;2179.4;;;;-1.3965341;0.017536165;-0.541565;;;;;;;;;;;;;;;
2297.0;2179.4;;;;-1.383854;0.025882725;-0.5455132;;;;;;;;;;;;;;;
2297.0;2184.6;262143;262143;13023;;;;;;;;;;;;;;;;;;
2298.0;2187.3;;;;;;;;;;52.713097;22.762993;-12.081515;;;;;;;;;
2298.0;2187.3;;;;;;;0.90774256;0.17700736;-0.14038515;;;;;;;;;;;;
2298.0;2187.3;;;;;;;;;;52.697838;22.057253;-11.574144;;;;;;;;;
2298.0;2187.3;;;;;;;0.96761984;0.17133091;-0.1469161;;;;;;;;;;;;
2298.0;2189.5;;;;-1.3704759;0.03516007;-0.5468026;;;;;;;;;;;;;;;
2298.0;2189.5;;;;-1.3564607;0.04357529;-0.5478173;;;;;;;;;;;;;;;
2298.0;2189.5;;;;-1.3418657;0.050804146;-0.54808813;;;;;;;;;;;;;;;
2298.0;2189.5;;;;-1.3280793;0.056457527;-0.5473595;;;;;;;;;;;;;;;
2298.0;2189.5;;;;-1.3159753;0.060379036;-0.54687124;;;;;;;;;;;;;;;
2298.0;2197.0;;;;;;;;;;52.632984;21.778772;-10.467849;;;;;;;;;
2298.0;2197.0;;;;;;;1.0224922;0.14941862;-0.15814692;;;;;;;;;;;;
2298.0;2197.0;;;;;;;;;;52.480392;21.114994;-9.1975155;;;;;;;;;
2298.0;2197.0;;;;;;;1.0925016;0.12836085;-0.16962187;;;;;;;;;;;;
2298.0;2199.6;;;;-1.3050462;0.06286622;-0.54424673;;;;;;;;;;;;;;;
2298.0;2199.6;;;;-1.2952043;0.06371308;-0.5412293;;;;;;;;;;;;;;;
2298.0;2199.6;;;;-1.2865297;0.0629387;-0.54111487;;;;;;;;;;;;;;;
2298.0;2199.6;;;;-1.278534;0.060997017;-0.5404015;;;;;;;;;;;;;;;
2298.0;2199.6;;;;-1.2666322;0.05842591;-0.53448874;;;;;;;;;;;;;;;
2303.0;2202.3;;;;;;;;;;;;;;;;;11.028626;10.280923;0.7438887;;2113.5
2303.0;2202.3;;;;;;;;;;;;;;-1.879635;-1.3443403;-0.72475356;;;;;2113.5
2303.0;2202.3;;;;;;;;;;;;;;;;;24.723808;-2.1477401;0.33951843;;2113.5
2303.0;2202.3;;;;;;;;;;;;;;-1.5403912;-1.4527421;-0.7471542;;;;;2113.5
2303.0;2202.3;;;;;;;;;;;;;;;;;42.020172;-6.5233316;-2.498703;;2123.2
2303.0;2202.3;;;;;;;;;;;;;;-1.3221838;-1.3688161;-0.63734853;;;;;2123.2
2303.0;2202.3;;;;;;;;;;;;;;;;;54.02158;-6.2295904;-10.853146;;2123.2
2303.0;2202.3;;;;;;;;;;;;;;-1.1675161;-1.0743736;-0.5530564;;;;;2123.2
2303.0;2202.3;;;;;;;;;;;;;;;;;63.703575;-6.6682944;-22.4044;;2132.8
2303.0;2202.3;;;;;;;;;;;;;;-0.89742726;-0.709006;-0.51710564;;;;;2132.8
2303.0;2202.3;;;;;;;;;;;;;;;;;70.71139;-0.48448133;-30.09125;;2132.8
2303.0;2202.3;;;;;;;;;;;;;;-0.8921781;-0.28547013;-0.50862145;;;;;2132.8
2303.0;2204.7;262143;262143;13012;;;;;;;;;;;;;;;;;;
2303.0;2206.5;;;;;;;;;;52.594837;20.252846;-8.228554;;;;;;;;;
2303.0;2206.5;;;;;;;1.1571398;0.119876705;-0.18701743;;;;;;;;;;;;
2303.0;2206.5;;;;;;;;;;52.44606;19.768364;-7.457961;;;;;;;;;
2303.0;2206.5;;;;;;;1.211951;0.11529893;-0.20209357;;;;;;;;;;;;
2303.0;2209.6;;;;-1.2499162;0.056221016;-0.5292817;;;;;;;;;;;;;;;
2303.0;2209.6;;;;-1.2306939;0.052860267;-0.52563864;;;;;;;;;;;;;;;
2303.0;2209.6;;;;-1.2103807;0.04861451;-0.52221686;;;;;;;;;;;;;;;
2303.0;2209.6;;;;-1.1922494;0.043296818;-0.5185471;;;;;;;;;;;;;;;
2303.0;2209.6;;;;-1.1739045;0.038349155;-0.51570517;;;;;;;;;;;;;;;
2305.0;2210.6;;;;;;;;;;;;;1856;;;;;;;;
2305.0;2210.6;;;;;;;;;;;;;1879;;;;;;;;
2305.0;2210.6;;;;;;;;;;;;;2197;;;;;;;;
2305.0;2210.6;;;;;;;;;;;;;2295;;;;;;;;
2305.0;2210.6;;;;;;;;;;;;;1939;;;;;;;;
2305.0;2216.1;;;;;;;;;;52.16376;19.516586;-7.1909237;;;;;;;;;
2305.0;2216.1;;;;;;;1.2585223;0.10998871;-0.21381268;;;;;;;;;;;;
2305.0;2216.1;;;;;;;;;;51.64876;19.592882;-7.080294;;;;;;;;;
2305.0;2216.1;;;;;;;1.2900784;0.096804716;-0.22125919;;;;;;;;;;;;
2305.0;2217.3;;;;;;;;;;;;;;;;;72.779015;5.1919613;-31.971954;;2142.5
2305.0;2217.3;;;;;;;;;;;;;;-1.027131;0.005859554;-0.5182653;;;;;2142.5
2305.0;2217.3;;;;;;;;;;;;;;;;;70.47868;4.5968504;-30.030212;;2142.5
2305.0;2217.3;;;;;;;;;;;;;;-1.0760826;0.21057771;-0.5460372;;;;;2142.5
2305.0;2217.3;;;;;;;;;;;;;;;;;65.14558;2.0409255;-26.757103;;2152.1
2305.0;2217.3;;;;;;;;;;;;;;-1.0488602;0.31513414;-0.52449113;;;;;2152.1
2305.0;2217.3;;;;;;;;;;;;;;;;;53.804134;2.8725548;-23.846401;;2152.1
2305.0;2217.3;;;;;;;;;;;;;;-1.0616169;0.3714713;-0.5514084;;;;;2152.1
2305.0;2217.3;;;;;;;;;;;;;;;;;40.51332;4.936369;-18.74218;;2161.8
2305.0;2217.3;;;;;;;;;;;;;;-1.172399;0.4314707;-0.62202823;;;;;2161.8
2305.0;2217.3;;;;;;;;;;;;;;;;;28.180029;1.8730735;-12.306589;;2161.8
2305.0;2217.3;;;;;;;;;;;;;;-1.2206793;0.47492903;-0.6967986;;;;;2161.8
2305.0;2219.5;;;;-1.1564409;0.031772617;-0.51146704;;;;;;;;;;;;;;;
2305.0;2219.5;;;;-1.1404649;0.02444077;-0.50822073;;;;;;;;;;;;;;;
2305.0;2219.5;;;;-1.1265146;0.017829897;-0.5037728;;;;;;;;;;;;;;;
2305.0;2219.5;;;;-1.1143609;0.011512757;-0.49992377;;;;;;;;;;;;;;;
2305.0;2219.5;;;;-1.1025888;0.0063209543;-0.49584204;;;;;;;;;;;;;;;
2354.0;2224.8;262143;262143;13009;;;;;;;;;;;;;;;;;;
2354.0;2225.5;;;;;;;;;;50.798058;19.3907;-7.5037384;;;;;;;;;
2354.0;2225.5;;;;;;;1.3176671;0.07818842;-0.22681357;;;;;;;;;;;;
2354.0;2225.5;;;;;;;;;;50.012207;18.253883;-8.285776;;;;;;;;;
2354.0;2225.5;;;;;;;1.3261513;0.06256294;-0.22663045;;;;;;;;;;;;
2354.0;2229.6;;;;-1.0906259;0.001792908;-0.49428564;;;;;;;;;;;;;;;
2354.0;2229.6;;;;-1.0795976;-0.0032005315;-0.49138266;;;;;;;;;;;;;;;
2354.0;2229.6;;;;-1.0711251;-0.007682801;-0.48806006;;;;;;;;;;;;;;;
2354.0;2229.6;;;;-1.063263;-0.014011385;-0.48502356;;;;;;;;;;;;;;;
2354.0;2229.6;;;;-1.0561448;-0.019916536;-0.4819985;;;;;;;;;;;;;;;
2354.0;2235.1;;;;;;;;;;49.367504;16.354107;-8.774072;;;;;;;;;
2354.0;2235.1;;;;;;;1.3227333;0.051698357;-0.2252266;;;;;;;;;;;;
2354.0;2235.1;;;;;;;;;;48.593098;13.939329;-9.071627;;;;;;;;;
2354.0;2235.1;;;;;;;1.3152868;0.04589984;-0.22016053;;;;;;;;;;;;
2354.0;2239.5;;;;-1.0486299;-0.02524567;-0.47744375;;;;;;;;;;;;;;;
2354.0;2239.5;;;;-1.0396577;-0.030887607;-0.47473532;;;;;;;;;;;;;;;
2354.0;2239.5;;;;-1.03154;-0.03672791;-0.47208792;;;;;;;;;;;;;;;
2354.0;2239.5;;;;-1.0225793;-0.043220524;-0.46794134;;;;;;;;;;;;;;;
2354.0;2239.5;;;;-1.0136529;-0.05000306;-0.46309668;;;;;;;;;;;;;;;
2354.0;2244.6;;;;;;;;;;47.84158;10.887479;-9.277627;;;;;;;;;
2354.0;2244.6;;;;;;;1.312479;0.05053865;-0.21594897;;;;;;;;;;;;
2354.0;2244.6;;;;;;;;;;47.00995;7.3931093;-9.220405;;;;;;;;;
2354.0;2244.6;;;;;;;1.3113804;0.059083834;-0.21265298;;;;;;;;;;;;
2356.0;2244.9;262143;262143;13008;;;;;;;;;;;;;;;;;;
2356.0;2249.7;;;;-1.0039445;-0.056709297;-0.4556237;;;;;;;;;;;;;;;
2356.0;2249.7;;;;-0.99468625;-0.06356431;-0.4474488;;;;;;;;;;;;;;;
2356.0;2249.7;;;;-0.9859582;-0.070472725;-0.43910223;;;;;;;;;;;;;;;
2356.0;2249.7;;;;-0.9781915;-0.076766975;-0.4307595;;;;;;;;;;;;;;;
2356.0;2249.7;;;;-0.97044003;-0.08304215;-0.42127615;;;;;;;;;;;;;;;
2356.0;2250.7;;;;;;;;;;;;;1344;;;;;;;;
2356.0;2250.7;;;;;;;;;;;;;1073;;;;;;;;
2356.0;2250.7;;;;;;;;;;;;;1250;;;;;;;;
2356.0;2250.7;;;;;;;;;;;;;1313;;;;;;;;
2356.0;2250.7;;;;;;;;;;;;;925;;;;;;;;
2356.0;2254.2;;;;;;;;;;46.3538;3.8796656;-8.461257;;;;;;;;;
2356.0;2254.2;;;;;;;1.3061922;0.06750695;-0.21655935;;;;;;;;;;;;
2356.0;2254.2;;;;;;;;;;45.86169;0.4463332;-7.0764794;;;;;;;;;
2356.0;2254.2;;;;;;;1.3016754;0.07428205;-0.22363964;;;;;;;;;;;;
2356.0;2259.8;;;;-0.96271527;-0.088882454;-0.41006476;;;;;;;;;;;;;;;
2356.0;2259.8;;;;-0.95629513;-0.09415056;-0.40025336;;;;;;;;;;;;;;;
2356.0;2259.8;;;;-0.9488908;-0.100166336;-0.39072043;;;;;;;;;;;;;;;
2356.0;2259.8;;;;-0.94308484;-0.10512544;-0.38161474;;;;;;;;;;;;;;;
2356.0;2259.8;;;;-0.9397279;-0.109554306;-0.37324145;;;;;;;;;;;;;;;
