patientId;holterMac;flexMac;;;;;;;;;;;;;;;;;;;;
stairsup;CA:F3:0B:1E:33:78;D3:4A:5C:52:80:78;;;;;;;;;;;;;;;;;;;;
receivedTimeStamp;timeStamp;red;ir;green;adxl_accX;adxl_accY;adxl_accZ;lsm_accelX;lsm_accelY;lsm_accelZ;lsm_gyroX;lsm_gyroY;lsm_gyroZ;ecg;flex_lsm_accelX;flex_lsm_accelY;flex_lsm_accelZ;flex_lsm_gyroX;flex_lsm_gyroY;flex_lsm_gyroZ;flex_cmd;flexTimeStamp
259.0;215.3;;;;;;;;;;;;;;;;;;;;17;0.1
259.0;215.3;;;;;;;;;;;;;;;;;12.985626;1.5640736;1.3618885;;127.5
259.0;215.3;;;;;;;;;;;;;;0.7705924;0.32819605;-0.16797388;;;;;127.5
259.0;215.3;;;;;;;;;;;;;;;;;-4.6578875;-17.273476;-8.033998;;127.5
259.0;215.3;;;;;;;;;;;;;;0.7956175;0.35096285;-0.16956083;;;;;127.5
259.0;215.3;;;;;;;;;;;;;;;;;-61.193424;-83.88013;-63.440353;;137.1
259.0;215.3;;;;;;;;;;;;;;0.79805905;0.356151;-0.16351818;;;;;137.1
259.0;215.3;;;;;;;;;;;;;;;;;-121.696365;-124.988556;-121.066925;;137.1
259.0;215.3;;;;;;;;;;;;;;0.8453017;0.37714773;-0.17023225;;;;;137.1
319.0;216.2;;;;;;;;;;;;;;;;;-42.66488;-123.4283;-87.72927;;146.7
319.0;216.2;;;;;;;;;;;;;;0.8060549;0.3755608;-0.14587848;;;;;146.7
319.0;216.2;;;;;;;;;;;;;;;;;49.558243;-117.38182;-55.764946;;146.7
319.0;216.2;;;;;;;;;;;;;;0.7744377;0.40632343;-0.10144353;;;;;146.7
319.0;216.2;;;;;;;;;;;;;;;;;56.318092;-79.91271;-53.338726;;156.4
319.0;216.2;;;;;;;;;;;;;;0.79103976;0.39478743;-0.10565508;;;;;156.4
319.0;216.2;;;;;;;;;;;;;;;;;51.145206;17.097994;-29.919584;;156.4
319.0;216.2;;;;;;;;;;;;;;0.80184335;0.38605914;-0.1163976;;;;;156.4
319.0;216.2;;;;;;;;;;;;;;;;;48.196358;24.903103;-26.905882;;166.0
319.0;216.2;;;;;;;;;;;;;;0.8003174;0.3805048;-0.11535997;;;;;166.0
319.0;216.2;;;;;;;;;;;;;;;;;46.57506;24.08292;-25.79577;;166.0
319.0;216.2;;;;;;;;;;;;;;0.8003174;0.37287515;-0.11157567;;;;;166.0
319.0;276.1;;;;;;;;;;;;;;;;;45.74343;23.22077;-24.17066;;175.7
319.0;276.1;;;;;;;;;;;;;;0.8217414;0.30689412;-0.12427137;;;;;175.7
319.0;276.1;;;;;;;;;;;;;;;;;46.39958;23.34666;-23.44966;;175.7
319.0;276.1;;;;;;;;;;;;;;0.8067873;0.4181646;-0.14099552;;;;;175.7
319.0;276.1;;;;;;;;;;;;;;;;;46.46443;22.282326;-22.537918;;185.2
319.0;276.1;;;;;;;;;;;;;;0.81496626;0.329722;-0.13006988;;;;;185.2
319.0;276.1;;;;;;;;;;;;;;;;;48.490097;20.619068;-21.782587;;185.2
319.0;276.1;;;;;;;;;;;;;;0.8022706;0.4334849;-0.12427137;;;;;185.2
319.0;276.1;;;;;;;;;;;;;;;;;49.710835;18.341625;-20.558031;;194.9
319.0;276.1;;;;;;;;;;;;;;0.80764186;0.4199347;-0.10870693;;;;;194.9
319.0;276.1;;;;;;;;;;;;;;;;;51.667835;15.491959;-19.936216;;194.9
319.0;276.1;;;;;;;;;;;;;;0.8003174;0.39283425;-0.095583975;;;;;194.9
381.0;276.9;;;;;;;;;;;;;;;;;54.2848;12.08533;-19.547104;;204.6
381.0;276.9;;;;;;;;;;;;;;0.8011719;0.4316538;-0.08899198;;;;;204.6
381.0;276.9;;;;;;;;;;;;;;;;;55.955685;8.308664;-19.062624;;204.6
381.0;276.9;;;;;;;;;;;;;;0.8191168;0.43269143;-0.08130131;;;;;204.6
381.0;276.9;;;;;;;;;;;;;;;;;57.210762;5.2415543;-18.42555;;214.2
381.0;276.9;;;;;;;;;;;;;;0.8220466;0.438612;-0.07043672;;;;;214.2
381.0;276.9;;;;;;;;;;;;;;;;;57.56554;2.8115177;-17.750328;;214.2
381.0;276.9;;;;;;;;;;;;;;0.8361461;0.4553972;-0.066652425;;;;;214.2
381.0;276.9;;;;;;;;;;;;;;;;;55.795464;0.7477035;-16.407515;;223.8
381.0;276.9;;;;;;;;;;;;;;0.8336436;0.44001588;-0.076235235;;;;;223.8
381.0;276.9;;;;;;;;;;;;;;;;;52.713097;-0.4730369;-15.182959;;223.8
381.0;276.9;;;;;;;;;;;;;;0.83657336;0.43531603;-0.068300426;;;;;223.8
381.0;335.9;;;;;;;;;;;;;;;;;49.974056;-1.1329997;-13.683737;;233.4
381.0;335.9;;;;;;;;;;;;;;0.8449965;0.4339732;-0.07916501;;;;;233.4
381.0;335.9;;;;;;;;;;;;;;;;;47.917877;-1.6899625;-12.009034;;233.4
381.0;335.9;;;;;;;;;;;;;;0.8324839;0.4415418;-0.09869686;;;;;233.4
381.0;335.9;;;;;;;;;;;;;;;;;46.48732;-3.4142585;-10.734886;;243.1
381.0;335.9;;;;;;;;;;;;;;0.8280282;0.44380015;-0.11407819;;;;;243.1
381.0;335.9;;;;;;;;;;;;;;;;;46.685688;-5.4857025;-9.42259;;243.1
381.0;335.9;;;;;;;;;;;;;;0.82546467;0.44288462;-0.13080233;;;;;243.1
381.0;335.9;;;;;;;;;;;;;;;;;48.749504;-6.912442;-8.3925905;;252.7
381.0;335.9;;;;;;;;;;;;;;0.8148442;0.44843897;-0.15259255;;;;;252.7
381.0;335.9;;;;;;;;;;;;;;;;;51.59917;-8.228554;-7.526627;;252.7
381.0;335.9;;;;;;;;;;;;;;0.7610096;0.4395886;-0.19202246;;;;;252.7
458.0;336.6;;;;;;;;;;;;;;;;;56.28376;-11.444441;-6.6492205;;262.4
458.0;336.6;;;;;;;;;;;;;;0.71864986;0.42597735;-0.2542802;;;;;262.4
458.0;336.6;;;;;;;;;;;;;;;;;61.23539;-16.571552;-5.539109;;262.4
458.0;336.6;;;;;;;;;;;;;;0.6775109;0.38984343;-0.33039337;;;;;262.4
458.0;336.6;;;;;;;;;;;;;;;;;63.669243;-21.80929;-3.5821102;;272.0
458.0;336.6;;;;;;;;;;;;;;0.67213964;0.35505235;-0.36500138;;;;;272.0
458.0;336.6;;;;;;;;;;;;;;;;;63.92102;-26.23066;-1.083407;;272.0
458.0;336.6;;;;;;;;;;;;;;0.6772668;0.30573443;-0.36030152;;;;;272.0
458.0;336.6;;;;;;;;;;;;;;;;;64.85947;-29.515215;1.0605181;;281.7
458.0;336.6;;;;;;;;;;;;;;0.69954526;0.25562304;-0.32959992;;;;;281.7
458.0;336.6;;;;;;;;;;;;;;;;;67.77398;-32.567066;3.0060732;;281.7
458.0;336.6;;;;;;;;;;;;;;0.73409224;0.22467726;-0.31562242;;;;;281.7
458.0;403.6;;;;;;;;;;;;;;;;;68.62468;-36.221657;5.1957765;;291.4
458.0;403.6;;;;;;;;;;;;;;0.77840513;0.22821741;-0.30384228;;;;;291.4
458.0;403.6;;;;;;;;;;;;;;;;;64.874725;-40.761284;8.033998;;291.4
458.0;403.6;;;;;;;;;;;;;;0.85097814;0.2492752;-0.30561236;;;;;291.4
458.0;403.6;;;;;;;;;;;;;;;;;59.80865;-44.61806;12.089145;;300.9
458.0;403.6;;;;;;;;;;;;;;0.92825097;0.2829066;-0.32441175;;;;;300.9
458.0;403.6;;;;;;;;;;;;;;;;;54.319134;-47.52495;16.96829;;300.9
458.0;403.6;;;;;;;;;;;;;;1.0253608;0.3419904;-0.30787072;;;;;300.9
458.0;403.6;;;;;;;;;;;;;;;;;43.496506;-47.330395;22.061068;;310.6
458.0;403.6;;;;;;;;;;;;;;1.1456038;0.3994873;-0.25482956;;;;;310.6
458.0;403.6;;;;;;;;;;;;;;;;;27.584917;-41.554764;27.1424;;310.6
458.0;403.6;;;;;;;;;;;;;;1.2380749;0.46699423;-0.15259255;;;;;310.6
501.0;404.4;;;;;;;;;;;;;;;;;11.67333;-32.986694;31.006805;;320.2
501.0;404.4;;;;;;;;;;;;;;1.3182164;0.52864164;-0.05963317;;;;;320.2
501.0;404.4;;;;;;;;;;;;;;;;;1.3237404;-22.83166;31.998657;;320.2
501.0;404.4;;;;;;;;;;;;;;1.350261;0.60713524;-0.028748436;;;;;320.2
501.0;404.4;;;;;;;;;;;;;;;;;-3.360851;-14.435255;29.705956;;329.8
501.0;404.4;;;;;;;;;;;;;;1.3197424;0.6930143;-0.11890011;;;;;329.8
501.0;404.4;;;;;;;;;;;;;;;;;-5.7641835;-12.310404;24.27366;;329.8
501.0;404.4;;;;;;;;;;;;;;1.2357554;0.78164005;-0.29700613;;;;;329.8
501.0;404.4;;;;;;;;;;;;;;;;;-10.944701;-18.704031;18.723106;;339.5
501.0;404.4;;;;;;;;;;;;;;1.1864986;0.7882321;-0.473159;;;;;339.5
501.0;404.4;;;;;;;;;;;;;;;;;-21.557512;-28.042694;15.182959;;339.5
501.0;404.4;;;;;;;;;;;;;;1.1822261;0.6499222;-0.526017;;;;;339.5
501.0;456.4;;;;;;;;;;;;;;;;;-35.31373;-34.44395;14.877774;;349.1
501.0;456.4;;;;;;;;;;;;;;1.2240363;0.4016846;-0.47840816;;;;;349.1
501.0;456.4;;;;;;;;;;;;;;;;;-47.79199;-35.145878;16.972105;;349.1
501.0;456.4;;;;;;;;;;;;;;1.2643819;0.10229804;-0.3587756;;;;;349.1
501.0;456.4;;;;;;;;;;;;;;;;;-57.466354;-33.8374;17.51381;;358.8
501.0;456.4;;;;;;;;;;;;;;1.2228767;-0.110721156;-0.2313303;;;;;358.8
501.0;456.4;;;;;;;;;;;;;;;;;-61.849575;-33.43303;17.414623;;358.8
501.0;456.4;;;;;;;;;;;;;;1.1750847;-0.30512404;-0.13061923;;;;;358.8
501.0;456.4;;;;;;;;;;;;;;;;;-57.73339;-31.57903;16.621143;;368.4
501.0;456.4;;;;;;;;;;;;;;1.1278421;-0.48414564;-0.0050050355;;;;;368.4
501.0;456.4;;;;;;;;;;;;;;;;;-42.66488;-27.043215;16.060366;;368.4
501.0;456.4;;;;;;;;;;;;;;1.1173437;-0.66335034;0.12335581;;;;;368.4
561.0;457.1;;;;;;;;;;;;;;;;;-18.501846;-19.676807;15.102847;;378.1
561.0;457.1;;;;;;;;;;;;;;1.079989;-0.75557727;0.17554247;;;;;378.1
561.0;457.1;;;;;;;;;;;;;;;;;7.805109;-12.539292;14.584033;;378.1
561.0;457.1;;;;;;;;;;;;;;0.9971008;-0.79622793;0.118533894;;;;;378.1
561.0;457.1;;;;;;;;;;;;;;;;;33.71151;-8.461257;14.069033;;387.8
561.0;457.1;;;;;;;;;;;;;;0.90591145;-0.7500229;-0.02191229;;;;;387.8
561.0;457.1;;;;;;;;;;;;;;;;;57.94702;-7.869961;12.798699;;387.8
561.0;457.1;;;;;;;;;;;;;;0.8287606;-0.64925075;-0.18207343;;;;;387.8
561.0;457.1;;;;;;;;;;;;;;;;;80.33997;-9.537035;11.37196;;397.5
561.0;457.1;;;;;;;;;;;;;;0.77175206;-0.51850945;-0.31598866;;;;;397.5
561.0;457.1;;;;;;;;;;;;;;;;;99.967186;-12.852107;10.54033;;397.5
561.0;457.1;;;;;;;;;;;;;;0.7608875;-0.39362773;-0.41114536;;;;;397.5
561.0;516.6;;;;;;;;;;;;;;;;;117.10334;-16.926329;10.097812;;407.0
561.0;516.6;;;;;;;;;;;;;;0.7895138;-0.27381206;-0.46168402;;;;;407.0
561.0;516.6;;;;;;;;;;;;;;;;;124.72152;-20.893734;9.571368;;407.0
561.0;516.6;;;;;;;;;;;;;;0.85976744;-0.14795373;-0.4839015;;;;;407.0
561.0;516.6;;;;;;;;;;;;;;;;;124.988556;-23.556475;9.220405;;416.7
561.0;516.6;;;;;;;;;;;;;;0.9370403;-0.04693747;-0.507828;;;;;416.7
561.0;516.6;;;;;;;;;;;;;;;;;124.988556;-24.307993;9.01822;;416.7
561.0;516.6;;;;;;;;;;;;;;0.9983215;0.035950806;-0.51783806;;;;;416.7
561.0;516.6;;;;;;;;;;;;;;;;;124.90845;-23.056734;8.926664;;426.2
561.0;516.6;;;;;;;;;;;;;;1.0361644;0.10382397;-0.5024567;;;;;426.2
561.0;516.6;;;;;;;;;;;;;;;;;120.99826;-20.409252;9.037293;;426.2
561.0;516.6;;;;;;;;;;;;;;1.0524002;0.16559343;-0.48750266;;;;;426.2
623.0;517.7;;;;;;;;;;;;;;;;;109.87426;-17.132328;9.823145;;435.7
623.0;517.7;;;;;;;;;;;;;;1.0329905;0.21320231;-0.49287394;;;;;435.7
623.0;517.7;;;;;;;;;;;;;;;;;98.872345;-14.358959;10.830256;;435.7
623.0;517.7;;;;;;;;;;;;;;0.9879452;0.23487045;-0.51423687;;;;;435.7
623.0;517.7;;;;;;;;;;;;;;;;;90.12497;-12.7719965;11.707664;;445.4
623.0;517.7;;;;;;;;;;;;;;0.9335612;0.2529374;-0.53297526;;;;;445.4
623.0;517.7;;;;;;;;;;;;;;;;;81.84301;-12.955108;12.638477;;445.4
623.0;517.7;;;;;;;;;;;;;;0.8967559;0.24872585;-0.5427412;;;;;445.4
623.0;517.7;;;;;;;;;;;;;;;;;73.8319;-13.134403;13.420515;;455.0
623.0;517.7;;;;;;;;;;;;;;0.86880094;0.23731193;-0.5468917;;;;;455.0
623.0;517.7;;;;;;;;;;;;;;;;;67.205574;-13.3137;14.004181;;455.0
623.0;517.7;;;;;;;;;;;;;;0.8542741;0.22669148;-0.55525374;;;;;455.0
623.0;531.5;;;;;;;;;;;;;;;;;62.795647;-13.573108;14.339885;;464.6
623.0;531.5;;;;;;;;;;;;;;0.8434706;0.2280343;-0.562212;;;;;464.6
623.0;531.5;;;;;;;;;;;;;;;;;59.55306;-13.882107;14.305552;;464.6
623.0;531.5;;;;;;;;;;;;;;0.832667;0.24744408;-0.5614185;;;;;464.6
623.0;531.5;;;;;;;;;;;;;;;;;56.539352;-14.584033;14.007996;;474.3
623.0;531.5;;;;;;;;;;;;;;0.84035766;0.2229072;-0.5620289;;;;;474.3
623.0;531.5;;;;;;;;;;;;;;;;;54.25428;-14.43907;13.927884;;474.3
623.0;531.5;;;;;;;;;;;;;;0.8417005;0.23944822;-0.54963833;;;;;474.3
623.0;531.5;;;;;;;;;;;;;;;;;51.824245;-14.641255;14.980773;;483.9
623.0;531.5;;;;;;;;;;;;;;0.8361461;0.22779016;-0.55330056;;;;;483.9
623.0;531.5;;;;;;;;;;;;;;;;;49.279766;-14.175848;15.583514;;483.9
623.0;531.5;;;;;;;;;;;;;;0.8415784;0.23224586;-0.55818355;;;;;483.9
683.0;576.7;;;;;;;;;;;;;;;;;46.407207;-13.641774;16.636404;;493.3
683.0;576.7;;;;;;;;;;;;;;0.8417615;0.22894986;-0.55854976;;;;;493.3
683.0;576.7;;;;;;;;;;;;;;;;;43.771175;-13.569293;17.715994;;493.3
683.0;576.7;;;;;;;;;;;;;;0.8568377;0.21460617;-0.55940425;;;;;493.3
683.0;576.7;;;;;;;;;;;;;;;;;41.909542;-13.11533;18.719292;;503.0
683.0;576.7;;;;;;;;;;;;;;0.8758812;0.20325327;-0.54896694;;;;;503.0
683.0;576.7;;;;;;;;;;;;;;;;;41.039764;-12.050997;19.825586;;503.0
683.0;576.7;;;;;;;;;;;;;;0.88106936;0.17542039;-0.54615927;;;;;503.0
683.0;576.7;;;;;;;;;;;;;;;;;41.024506;-10.75396;21.053957;;512.6
683.0;576.7;;;;;;;;;;;;;;0.8742943;0.19129002;-0.52449113;;;;;512.6
683.0;576.7;;;;;;;;;;;;;;;;;39.605392;-10.132145;22.808771;;512.6
683.0;576.7;;;;;;;;;;;;;;0.8829615;0.20130008;-0.49922177;;;;;512.6
683.0;591.7;;;;;;;;;;;;;;;;;38.403732;-9.0487385;23.876919;;522.3
683.0;591.7;;;;;;;;;;;;;;0.8814966;0.019837031;-0.5073397;;;;;522.3
683.0;591.7;;;;;;;;;;;;;;;;;41.077915;-7.019257;23.709066;;522.3
683.0;591.7;;;;;;;;;;;;;;0.90017396;-0.048890654;-0.48908964;;;;;522.3
683.0;591.7;;;;;;;;;;;;;;;;;43.012024;-4.1657767;24.330883;;532.0
683.0;591.7;;;;;;;;;;;;;;0.8313242;-0.06201361;-0.43110445;;;;;532.0
683.0;591.7;;;;;;;;;;;;;;;;;44.133583;-3.7728508;25.250252;;532.0
683.0;591.7;;;;;;;;;;;;;;0.8270516;0.027954955;-0.37928402;;;;;532.0
683.0;591.7;;;;;;;;;;;;;;;;;43.523212;-5.104221;27.1424;;541.5
683.0;591.7;;;;;;;;;;;;;;0.90066224;-0.019959105;-0.40064698;;;;;541.5
683.0;591.7;;;;;;;;;;;;;;;;;46.178318;-2.3804438;27.054659;;541.5
683.0;591.7;;;;;;;;;;;;;;0.8769799;-0.013794366;-0.38227484;;;;;541.5
800.0;637.3;;;;;;;;;;;;;;;;;49.52391;-0.48066652;26.985992;;551.1
800.0;637.3;;;;;;;;;;;;;;0.8916288;-0.009155553;-0.36494035;;;;;551.1
800.0;637.3;;;;;;;;;;;;;;;;;52.259132;0.75914794;27.096622;;551.1
800.0;637.3;;;;;;;;;;;;;;0.8984649;0.018127995;-0.36561173;;;;;551.1
800.0;637.3;;;;;;;;;;;;;;;;;54.368725;1.9341105;27.169104;;560.7
800.0;637.3;;;;;;;;;;;;;;0.8929716;0.044312876;-0.36762595;;;;;560.7
800.0;637.3;;;;;;;;;;;;;;;;;55.635242;3.521073;27.111881;;560.7
800.0;637.3;;;;;;;;;;;;;;0.9020661;0.06616413;-0.36390272;;;;;560.7
800.0;637.3;;;;;;;;;;;;;;;;;56.566055;5.405591;26.665548;;570.2
800.0;637.3;;;;;;;;;;;;;;0.90157783;0.08142339;-0.35175633;;;;;570.2
800.0;637.3;;;;;;;;;;;;;;;;;57.634205;7.290109;25.837732;;570.2
800.0;637.3;;;;;;;;;;;;;;0.8896145;0.10425123;-0.34107485;;;;;570.2
800.0;652.0;;;;;;;;;;;;;;;;;59.327984;8.476516;24.826807;;579.9
800.0;652.0;;;;;;;;;;;;;;0.88070315;0.12842189;-0.33845028;;;;;579.9
800.0;652.0;;;;;;;;;;;;;;;;;60.693684;9.247108;23.621326;;579.9
800.0;652.0;;;;;;;;;;;;;;0.8768578;0.15045625;-0.34571368;;;;;579.9
800.0;652.0;;;;;;;;;;;;;;;;;61.483353;9.880367;22.335733;;589.6
800.0;652.0;;;;;;;;;;;;;;0.8775292;0.16510513;-0.35242775;;;;;589.6
800.0;652.0;;;;;;;;;;;;;;;;;61.449017;10.467849;20.977661;;589.6
800.0;652.0;;;;;;;;;;;;;;0.8687399;0.17926572;-0.3556627;;;;;589.6
800.0;652.0;;;;;;;;;;;;;;;;;60.57161;10.601367;19.718771;;599.2
800.0;652.0;;;;;;;;;;;;;;0.86355174;0.1871395;-0.36646625;;;;;599.2
800.0;652.0;;;;;;;;;;;;;;;;;58.812984;10.616627;18.745995;;599.2
800.0;652.0;;;;;;;;;;;;;;0.857326;0.19678335;-0.377575;;;;;599.2
803.0;697.3;;;;;;;;;;;;;;;;;56.371502;10.807367;18.078402;;608.7
803.0;697.3;;;;;;;;;;;;;;0.8547014;0.18012024;-0.38038272;;;;;608.7
803.0;697.3;;;;;;;;;;;;;;;;;54.620502;10.708182;17.20481;;608.7
803.0;697.3;;;;;;;;;;;;;;0.84200567;0.16254158;-0.38306832;;;;;608.7
803.0;697.3;;;;;;;;;;;;;;;;;53.598133;10.395368;16.422773;;618.3
803.0;697.3;;;;;;;;;;;;;;0.83712274;0.15948974;-0.39106417;;;;;618.3
803.0;697.3;;;;;;;;;;;;;;;;;52.632984;10.254219;15.930662;;618.3
803.0;697.3;;;;;;;;;;;;;;0.82662433;0.15741447;-0.39118627;;;;;618.3
803.0;697.3;;;;;;;;;;;;;;;;;51.55339;9.971923;15.717033;;628.0
803.0;697.3;;;;;;;;;;;;;;0.81875056;0.16180913;-0.3952147;;;;;628.0
803.0;697.3;;;;;;;;;;;;;;;;;50.626392;9.323405;15.789515;;628.0
803.0;697.3;;;;;;;;;;;;;;0.81264687;0.17114781;-0.40681174;;;;;628.0
803.0;712.4;;;;;;;;;;;;;;;;;49.947353;9.037293;16.075624;;637.6
803.0;712.4;;;;;;;;;;;;;;0.81783503;0.16089359;-0.4024781;;;;;637.6
803.0;712.4;;;;;;;;;;;;;;;;;50.073242;8.362072;16.247292;;637.6
803.0;712.4;;;;;;;;;;;;;;0.82052064;0.17084262;-0.412183;;;;;637.6
803.0;712.4;;;;;;;;;;;;;;;;;50.000763;7.6067386;16.365551;;647.3
803.0;712.4;;;;;;;;;;;;;;0.821192;0.18958098;-0.41431928;;;;;647.3
803.0;712.4;;;;;;;;;;;;;;;;;49.405655;7.3015537;16.6097;;647.3
803.0;712.4;;;;;;;;;;;;;;0.8281503;0.19464706;-0.39960936;;;;;647.3
803.0;712.4;;;;;;;;;;;;;;;;;48.50917;6.984924;16.644033;;656.9
803.0;712.4;;;;;;;;;;;;;;0.82882166;0.20838039;-0.38923308;;;;;656.9
803.0;712.4;;;;;;;;;;;;;;;;;46.86117;6.408887;16.754663;;656.9
803.0;712.4;;;;;;;;;;;;;;0.82320625;0.21283609;-0.3889889;;;;;656.9
860.0;757.7;;;;;;;;;;;;;;;;;44.69054;5.7908874;16.876738;;666.5
860.0;757.7;;;;;;;;;;;;;;0.8237556;0.2233955;-0.3916135;;;;;666.5
860.0;757.7;;;;;;;;;;;;;;;;;42.25669;5.474258;16.781366;;666.5
860.0;757.7;;;;;;;;;;;;;;0.8296762;0.22363964;-0.38343456;;;;;666.5
860.0;757.7;;;;;;;;;;;;;;;;;39.822838;4.8409986;16.842403;;676.1
860.0;757.7;;;;;;;;;;;;;;0.8535417;0.21973327;-0.38239694;;;;;676.1
860.0;757.7;;;;;;;;;;;;;;;;;37.083805;4.6044803;17.536697;;676.1
860.0;757.7;;;;;;;;;;;;;;0.868862;0.21002838;-0.390759;;;;;676.1
860.0;757.7;;;;;;;;;;;;;;;;;34.627064;4.7685175;18.303476;;685.8
860.0;757.7;;;;;;;;;;;;;;0.87545395;0.1944029;-0.39295632;;;;;685.8
860.0;757.7;;;;;;;;;;;;;;;;;33.452103;4.730369;18.868069;;685.8
860.0;757.7;;;;;;;;;;;;;;0.872158;0.17950988;-0.37714773;;;;;685.8
860.0;766.1;;;;;;;;;;;;;;;;;32.8074;4.2840357;19.287699;;695.5
860.0;766.1;;;;;;;;;;;;;;0.8700827;0.1732841;-0.36097294;;;;;695.5
860.0;766.1;;;;;;;;;;;;;;;;;31.84988;3.624073;19.489883;;695.5
860.0;766.1;;;;;;;;;;;;;;0.8661153;0.16870633;-0.34528643;;;;;695.5
860.0;766.1;;;;;;;;;;;;;;;;;30.491806;3.318888;19.692068;;705.2
860.0;766.1;;;;;;;;;;;;;;0.86556596;0.15887935;-0.342967;;;;;705.2
860.0;766.1;;;;;;;;;;;;;;;;;29.450363;2.9641104;19.779808;;705.2
860.0;766.1;;;;;;;;;;;;;;0.86288035;0.1521653;-0.3487045;;;;;705.2
860.0;766.1;;;;;;;;;;;;;;;;;28.588213;2.45674;19.585253;;714.8
860.0;766.1;;;;;;;;;;;;;;0.8653218;0.159917;-0.35224465;;;;;714.8
860.0;766.1;;;;;;;;;;;;;;;;;27.497177;1.9760735;19.589067;;714.8
860.0;766.1;;;;;;;;;;;;;;0.86983854;0.15802485;-0.35419783;;;;;714.8
921.0;818.1;;;;;;;;;;;;;;;;;25.856808;1.4000366;19.409773;;724.4
921.0;818.1;;;;;;;;;;;;;;0.8796655;0.15027314;-0.36298716;;;;;724.4
921.0;818.1;;;;;;;;;;;;;;;;;23.876919;1.064333;19.032106;;724.4
921.0;818.1;;;;;;;;;;;;;;0.8912015;0.15192114;-0.37287515;;;;;724.4
921.0;818.1;;;;;;;;;;;;;;;;;22.30903;1.1787775;19.016848;;734.0
921.0;818.1;;;;;;;;;;;;;;0.89907527;0.15021211;-0.3755608;;;;;734.0
921.0;818.1;;;;;;;;;;;;;;;;;20.844143;0.7095553;19.112217;;734.0
921.0;818.1;;;;;;;;;;;;;;0.8955352;0.15655996;-0.375927;;;;;734.0
921.0;818.1;;;;;;;;;;;;;;;;;18.7727;0.20981476;19.04355;;743.6
921.0;818.1;;;;;;;;;;;;;;0.8984039;0.15771966;-0.38215277;;;;;743.6
921.0;818.1;;;;;;;;;;;;;;;;;17.017883;0.5035554;19.13129;;743.6
921.0;818.1;;;;;;;;;;;;;;0.8938261;0.15881832;-0.38019958;;;;;743.6
921.0;825.5;;;;;;;;;;;;;;;;;15.724663;0.27085176;19.230476;;753.3
921.0;825.5;;;;;;;;;;;;;;0.8865627;0.16754662;-0.37720877;;;;;753.3
921.0;825.5;;;;;;;;;;;;;;;;;14.168218;-0.5226295;19.569994;;753.3
921.0;825.5;;;;;;;;;;;;;;0.8818018;0.17200232;-0.37372968;;;;;753.3
921.0;825.5;;;;;;;;;;;;;;;;;12.218848;-1.5297403;19.707327;;763.0
921.0;825.5;;;;;;;;;;;;;;0.8751488;0.17194128;-0.36280406;;;;;763.0
921.0;825.5;;;;;;;;;;;;;;;;;10.578479;-2.4681845;20.001068;;763.0
921.0;825.5;;;;;;;;;;;;;;0.8717917;0.17102572;-0.34235665;;;;;763.0
921.0;825.5;;;;;;;;;;;;;;;;;8.911405;-3.6736658;20.390179;;772.6
921.0;825.5;;;;;;;;;;;;;;0.8598285;0.15839106;-0.32996613;;;;;772.6
921.0;825.5;;;;;;;;;;;;;;;;;7.293924;-4.799036;20.664846;;772.6
921.0;825.5;;;;;;;;;;;;;;0.8587909;0.15155491;-0.3342387;;;;;772.6
981.0;878.4;;;;;;;;;;;;;;;;;5.6192203;-5.474258;20.695364;;782.2
981.0;878.4;;;;;;;;;;;;;;0.8515885;0.13727225;-0.33838925;;;;;782.2
981.0;878.4;;;;;;;;;;;;;;;;;3.8262582;-6.214331;20.88229;;782.2
981.0;878.4;;;;;;;;;;;;;;0.84969634;0.12720115;-0.34034243;;;;;782.2
981.0;878.4;;;;;;;;;;;;;;;;;2.1439252;-6.637776;21.076845;;791.9
981.0;878.4;;;;;;;;;;;;;;0.8535417;0.10876797;-0.33924374;;;;;791.9
981.0;878.4;;;;;;;;;;;;;;;;;1.2016664;-6.6034427;21.385845;;791.9
981.0;878.4;;;;;;;;;;;;;;0.8527482;0.095706046;-0.33362836;;;;;791.9
981.0;878.4;;;;;;;;;;;;;;;;;0.21744438;-6.282998;21.656698;;801.6
981.0;878.4;;;;;;;;;;;;;;0.8492691;0.08587909;-0.33246863;;;;;801.6
981.0;878.4;;;;;;;;;;;;;;;;;-0.45014802;-5.9053316;22.312845;;801.6
981.0;878.4;;;;;;;;;;;;;;0.849147;0.07190161;-0.34388256;;;;;801.6
981.0;886.2;;;;;;;;;;;;;;;;;-1.0528886;-5.123295;22.976622;;811.3
981.0;886.2;;;;;;;;;;;;;;0.84145635;0.060060427;-0.35627308;;;;;811.3
981.0;886.2;;;;;;;;;;;;;;;;;-1.865444;-4.6617026;23.468735;;811.3
981.0;886.2;;;;;;;;;;;;;;0.8384655;0.05505539;-0.35950804;;;;;811.3
981.0;886.2;;;;;;;;;;;;;;;;;-3.0976286;-4.837184;23.991364;;821.0
981.0;886.2;;;;;;;;;;;;;;0.84646136;0.04815821;-0.36097294;;;;;821.0
981.0;886.2;;;;;;;;;;;;;;;;;-4.39848;-4.562517;24.925991;;821.0
981.0;886.2;;;;;;;;;;;;;;0.8567156;0.034730066;-0.3679922;;;;;821.0
981.0;886.2;;;;;;;;;;;;;;;;;-5.996887;-4.459517;25.646992;;830.7
981.0;886.2;;;;;;;;;;;;;;0.87362283;0.022400586;-0.3658559;;;;;830.7
981.0;886.2;;;;;;;;;;;;;;;;;-7.080294;-4.8409986;26.146732;;830.7
981.0;886.2;;;;;;;;;;;;;;0.8860744;0.015930662;-0.36634418;;;;;830.7
1041.0;946.2;;;;;;;;;;;;;;;;;-7.755516;-4.844814;26.81051;;840.3
1041.0;946.2;;;;;;;;;;;;;;0.8998688;0.014282662;-0.3688467;;;;;840.3
1041.0;946.2;;;;;;;;;;;;;;;;;-8.960998;-4.139073;27.51625;;840.3
1041.0;946.2;;;;;;;;;;;;;;0.9011505;-0.0048219245;-0.379223;;;;;840.3
1041.0;946.2;;;;;;;;;;;;;;;;;-10.196997;-3.7270732;28.206732;;849.9
1041.0;946.2;;;;;;;;;;;;;;0.9048738;-0.012024293;-0.38917205;;;;;849.9
1041.0;946.2;;;;;;;;;;;;;;;;;-11.98233;-2.9831843;29.21003;;849.9
1041.0;946.2;;;;;;;;;;;;;;0.91006196;-0.021607105;-0.38435012;;;;;849.9
1041.0;946.2;;;;;;;;;;;;;;;;;-13.6227;-3.1815546;30.072176;;859.6
1041.0;946.2;;;;;;;;;;;;;;0.91744745;-0.02948088;-0.3889889;;;;;859.6
1041.0;946.2;;;;;;;;;;;;;;;;;-15.400403;-3.0594807;31.140324;;859.6
1041.0;946.2;;;;;;;;;;;;;;0.93923765;-0.019287698;-0.38013855;;;;;859.6
1041.0;947.0;;;;;;;;;;;;;;;;;-16.556292;-2.9412215;32.57851;;869.3
1041.0;947.0;;;;;;;;;;;;;;0.95242167;-0.02929777;-0.377575;;;;;869.3
1041.0;947.0;;;;;;;;;;;;;;;;;-16.666922;-3.6088138;33.566547;;869.3
1041.0;947.0;;;;;;;;;;;;;;0.9656056;-0.026978362;-0.4046144;;;;;869.3
1041.0;947.0;;;;;;;;;;;;;;;;;-16.430403;-3.6927397;34.85214;;878.9
1041.0;947.0;;;;;;;;;;;;;;0.96694845;0.003601184;-0.4194464;;;;;878.9
1041.0;947.0;;;;;;;;;;;;;;;;;-16.006958;-3.4524064;35.84399;;878.9
1041.0;947.0;;;;;;;;;;;;;;0.9748222;0.013855403;-0.41804254;;;;;878.9
1041.0;947.0;;;;;;;;;;;;;;;;;-13.80581;-2.9793696;35.523544;;888.6
1041.0;947.0;;;;;;;;;;;;;;0.9822077;0.018372143;-0.4222541;;;;;888.6
1041.0;947.0;;;;;;;;;;;;;;;;;-10.937071;-3.1014435;34.337135;;888.6
1041.0;947.0;;;;;;;;;;;;;;1.0043641;0.0634785;-0.4499649;;;;;888.6
1103.0;999.2;;;;;;;;;;;;;;;;;-9.624775;-1.6556292;33.642845;;898.2
1103.0;999.2;;;;;;;;;;;;;;1.022248;0.0926542;-0.45600757;;;;;898.2
1103.0;999.2;;;;;;;;;;;;;;;;;-7.9500723;-0.0038148137;32.860806;;898.2
1103.0;999.2;;;;;;;;;;;;;;1.0378735;0.130253;-0.44611958;;;;;898.2
1103.0;999.2;;;;;;;;;;;;;;;;;-4.757073;1.0185553;32.09403;;907.8
1103.0;999.2;;;;;;;;;;;;;;1.0394604;0.15668203;-0.4417249;;;;;907.8
1103.0;999.2;;;;;;;;;;;;;;;;;-2.7695546;1.8959624;31.441696;;907.8
1103.0;999.2;;;;;;;;;;;;;;1.0528886;0.1723075;-0.44160283;;;;;907.8
1103.0;999.2;;;;;;;;;;;;;;;;;-1.5678884;3.0671103;30.838953;;917.5
1103.0;999.2;;;;;;;;;;;;;;1.0549028;0.19641712;-0.42994475;;;;;917.5
1103.0;999.2;;;;;;;;;;;;;;;;;0.49592578;4.4557023;30.014954;;917.5
1103.0;999.2;;;;;;;;;;;;;;1.0494095;0.2191229;-0.41413617;;;;;917.5
1103.0;999.8;;;;;;;;;;;;;;;;;4.505295;5.2148504;29.522844;;927.2
1103.0;999.8;;;;;;;;;;;;;;1.0365916;0.2360912;-0.40241706;;;;;927.2
1103.0;999.8;;;;;;;;;;;;;;;;;5.954924;6.0274057;28.550066;;927.2
1103.0;999.8;;;;;;;;;;;;;;1.0227363;0.27820674;-0.39777824;;;;;927.2
1103.0;999.8;;;;;;;;;;;;;;;;;7.7707753;6.782739;27.970213;;936.8
1103.0;999.8;;;;;;;;;;;;;;1.0130314;0.30512404;-0.38441116;;;;;936.8
1103.0;999.8;;;;;;;;;;;;;;;;;9.861293;7.56859;27.470472;;936.8
1103.0;999.8;;;;;;;;;;;;;;0.9969176;0.34992522;-0.37122715;;;;;936.8
1103.0;999.8;;;;;;;;;;;;;;;;;10.967589;8.327739;27.909176;;946.5
1103.0;999.8;;;;;;;;;;;;;;1.0118107;0.35535753;-0.36732078;;;;;946.5
1103.0;999.8;;;;;;;;;;;;;;;;;11.661885;9.659109;27.790916;;946.5
1103.0;999.8;;;;;;;;;;;;;;1.0132755;0.35602894;-0.36970124;;;;;946.5
1161.0;1059.7;;;;;;;;;;;;;;;;;11.764886;10.361034;28.099916;;956.1
1161.0;1059.7;;;;;;;;;;;;;;1.0176703;0.3482162;-0.38325143;;;;;956.1
1161.0;1059.7;;;;;;;;;;;;;;;;;11.2384405;11.513107;27.977842;;956.1
1161.0;1059.7;;;;;;;;;;;;;;0.99880975;0.34833828;-0.37226477;;;;;956.1
1161.0;1059.7;;;;;;;;;;;;;;;;;10.574664;11.471145;27.287363;;965.7
1161.0;1059.7;;;;;;;;;;;;;;0.99722284;0.34778893;-0.3711661;;;;;965.7
1161.0;1059.7;;;;;;;;;;;;;;;;;10.979034;11.715293;25.769066;;965.7
1161.0;1059.7;;;;;;;;;;;;;;0.98031557;0.35200047;-0.38441116;;;;;965.7
1161.0;1059.7;;;;;;;;;;;;;;;;;11.898404;11.913663;24.033327;;975.4
1161.0;1059.7;;;;;;;;;;;;;;0.98178047;0.36371958;-0.40058595;;;;;975.4
1161.0;1059.7;;;;;;;;;;;;;;;;;13.008514;12.764366;22.099216;;975.4
1161.0;1059.7;;;;;;;;;;;;;;0.98751795;0.38605914;-0.430311;;;;;975.4
1161.0;1060.5;;;;;;;;;;;;;;;;;13.626515;14.385662;19.539474;;984.8
1161.0;1060.5;;;;;;;;;;;;;;0.99594104;0.39246804;-0.451735;;;;;984.8
1161.0;1060.5;;;;;;;;;;;;;;;;;13.992737;15.46144;16.113773;;984.8
1161.0;1060.5;;;;;;;;;;;;;;1.0137639;0.37470627;-0.48396254;;;;;984.8
1161.0;1060.5;;;;;;;;;;;;;;;;;13.302256;17.151402;12.237923;;994.5
1161.0;1060.5;;;;;;;;;;;;;;1.0090029;0.40400404;-0.5196692;;;;;994.5
1161.0;1060.5;;;;;;;;;;;;;;;;;11.280404;18.871883;7.8852196;;994.5
1161.0;1060.5;;;;;;;;;;;;;;0.99588;0.39930418;-0.5314493;;;;;994.5
1161.0;1060.5;;;;;;;;;;;;;;;;;8.228554;20.622883;2.5673697;;1004.2
1161.0;1060.5;;;;;;;;;;;;;;0.9847102;0.40040284;-0.5261391;;;;;1004.2
1161.0;1060.5;;;;;;;;;;;;;;;;;5.0851464;21.538439;-3.521073;;1004.2
1161.0;1060.5;;;;;;;;;;;;;;0.974395;0.40913114;-0.4956206;;;;;1004.2
1217.0;1119.8;;;;;;;;;;;;;;;;;3.807184;22.083958;-9.624775;;1013.8
1217.0;1119.8;;;;;;;;;;;;;;1.0082705;0.4372692;-0.44935453;;;;;1013.8
1217.0;1119.8;;;;;;;;;;;;;;;;;4.013184;23.602253;-16.479996;;1013.8
1217.0;1119.8;;;;;;;;;;;;;;1.0426344;0.47859126;-0.38953826;;;;;1013.8
1217.0;1119.8;;;;;;;;;;;;;;;;;3.9674063;25.79577;-23.155918;;1023.4
1217.0;1119.8;;;;;;;;;;;;;;1.0549028;0.5124668;-0.34998626;;;;;1023.4
1217.0;1119.8;;;;;;;;;;;;;;;;;3.1014435;27.11951;-29.705956;;1023.4
1217.0;1119.8;;;;;;;;;;;;;;1.096408;0.55690175;-0.32642597;;;;;1023.4
1217.0;1119.8;;;;;;;;;;;;;;;;;1.2169256;29.656363;-37.60262;;1033.1
1217.0;1119.8;;;;;;;;;;;;;;1.1406598;0.59779656;-0.29767755;;;;;1033.1
1217.0;1119.8;;;;;;;;;;;;;;;;;-2.3194067;34.0968;-46.235542;;1033.1
1217.0;1119.8;;;;;;;;;;;;;;1.1498153;0.6257515;-0.27497178;;;;;1033.1
1217.0;1120.6;;;;;;;;;;;;;;;;;-7.9004793;39.464245;-55.028687;;1042.7
1217.0;1120.6;;;;;;;;;;;;;;1.1617175;0.6415601;-0.2662435;;;;;1042.7
1217.0;1120.6;;;;;;;;;;;;;;;;;-15.060884;46.063873;-63.802757;;1042.7
1217.0;1120.6;;;;;;;;;;;;;;1.141087;0.6242256;-0.2454909;;;;;1042.7
1217.0;1120.6;;;;;;;;;;;;;;;;;-20.928068;53.68969;-71.58879;;1052.3
1217.0;1120.6;;;;;;;;;;;;;;1.1061128;0.6071963;-0.22840053;;;;;1052.3
1217.0;1120.6;;;;;;;;;;;;;;;;;-23.617512;60.399944;-78.76064;;1052.3
1217.0;1120.6;;;;;;;;;;;;;;1.0440382;0.58424634;-0.2158269;;;;;1052.3
1217.0;1120.6;;;;;;;;;;;;;;;;;-24.952696;63.615837;-85.20005;;1062.0
1217.0;1120.6;;;;;;;;;;;;;;0.982696;0.5380413;-0.20557268;;;;;1062.0
1217.0;1120.6;;;;;;;;;;;;;;;;;-27.298807;62.108982;-90.30427;;1062.0
1217.0;1120.6;;;;;;;;;;;;;;0.9679251;0.4709006;-0.20441298;;;;;1062.0
1219.0;1128.9;;;;0.0;0.0;0.0;;;;;;;;;;;;;;;
1219.0;1128.9;;;;-0.08285523;0.17119981;0.107727066;;;;;;;;;;;;;;;
1219.0;1128.9;;;;-0.41601568;0.8352548;0.45462805;;;;;;;;;;;;;;;
1219.0;1128.9;;;;-0.45201117;0.9250833;0.49761206;;;;;;;;;;;;;;;
1219.0;1128.9;;;;-0.44551474;0.91827786;0.49602896;;;;;;;;;;;;;;;
1219.0;1139.0;;;;-0.43703085;0.91429913;0.49376303;;;;;;;;;;;;;;;
1219.0;1139.0;;;;-0.427311;0.9129487;0.4912377;;;;;;;;;;;;;;;
1219.0;1139.0;;;;-0.41687018;0.9132234;0.48762518;;;;;;;;;;;;;;;
1219.0;1139.0;;;;-0.40501028;0.91617596;0.48352057;;;;;;;;;;;;;;;
1219.0;1139.0;;;;-0.39238364;0.919819;0.47926718;;;;;;;;;;;;;;;
1219.0;1139.8;57439;57430;14629;;;;;;;;;;;;;;;;;;
1219.0;1148.9;;;;-0.37879568;0.9258195;0.47352606;;;;;;;;;;;;;;;
1219.0;1148.9;;;;-0.36542895;0.9338304;0.4678231;;;;;;;;;;;;;;;
1219.0;1148.9;;;;-0.35239413;0.9424745;0.46158224;;;;;;;;;;;;;;;
1219.0;1148.9;;;;-0.34012988;0.9522859;0.4547692;;;;;;;;;;;;;;;
1219.0;1148.9;;;;-0.32758334;0.96346676;0.44856268;;;;;;;;;;;;;;;
1283.0;1159.0;;;;-0.3157349;0.974949;0.44235235;;;;;;;;;;;;;;;
1283.0;1159.0;;;;-0.3048363;0.9865533;0.43706518;;;;;;;;;;;;;;;
1283.0;1159.0;;;;-0.29402545;0.99769986;0.43116766;;;;;;;;;;;;;;;
1283.0;1159.0;;;;-0.2841225;1.0084192;0.424614;;;;;;;;;;;;;;;
1283.0;1159.0;;;;-0.27474597;1.0181199;0.41852576;;;;;;;;;;;;;;;
1283.0;1159.9;73854;73780;14623;;;;;;;;;;;;;;;;;;
1283.0;1166.1;;;;;;;;;;;;;0;;;;;;;;
1283.0;1166.1;;;;;;;;;;;;;0;;;;;;;;
1283.0;1166.1;;;;;;;;;;;;;-1;;;;;;;;
1283.0;1166.1;;;;;;;;;;;;;-2;;;;;;;;
1283.0;1166.1;;;;;;;;;;;;;-3;;;;;;;;
1283.0;1169.1;;;;-0.2659302;1.0273706;0.4128495;;;;;;;;;;;;;;;
1283.0;1169.1;;;;-0.25828555;1.0352098;0.407013;;;;;;;;;;;;;;;
1283.0;1169.1;;;;-0.25073627;1.0418702;0.40066153;;;;;;;;;;;;;;;
1283.0;1169.1;;;;-0.24408725;1.0477525;0.39422613;;;;;;;;;;;;;;;
1283.0;1169.1;;;;-0.23788837;1.0518152;0.38685995;;;;;;;;;;;;;;;
1283.0;1179.2;;;;-0.23202136;1.0545121;0.37937933;;;;;;;;;;;;;;;
1283.0;1179.2;;;;-0.22592548;1.0566827;0.37142947;;;;;;;;;;;;;;;
1283.0;1179.2;;;;-0.21955493;1.0576974;0.3638306;;;;;;;;;;;;;;;
1283.0;1179.2;;;;-0.21317676;1.0580293;0.35572436;;;;;;;;;;;;;;;
1283.0;1179.2;;;;-0.20558551;1.0579149;0.3472748;;;;;;;;;;;;;;;
1286.0;1180.5;;;;;;;;;;;;;;;;;-31.311993;60.750908;-94.75234;;1071.7
1286.0;1180.5;;;;;;;;;;;;;;0.9568163;0.3755608;-0.1765801;;;;;1071.7
1286.0;1180.5;;;;;;;;;;;;;;;;;-33.58562;63.783684;-99.00586;;1071.7
1286.0;1180.5;;;;;;;;;;;;;;0.91830194;0.29493088;-0.15240943;;;;;1071.7
1286.0;1180.5;;;;;;;;;;;;;;;;;-35.412914;65.65676;-102.03482;;1081.2
1286.0;1180.5;;;;;;;;;;;;;;0.86538285;0.2197943;-0.15906247;;;;;1081.2
1286.0;1180.5;;;;;;;;;;;;;;;;;-38.30073;62.25776;-103.58745;;1081.2
1286.0;1180.5;;;;;;;;;;;;;;0.8402966;0.14819789;-0.21301919;;;;;1081.2
1286.0;1180.5;;;;;;;;;;;;;;;;;-40.776543;56.38676;-104.43053;;1091.0
1286.0;1180.5;;;;;;;;;;;;;;0.89400923;0.076662496;-0.25562304;;;;;1091.0
1286.0;1180.5;;;;;;;;;;;;;;;;;-42.790768;54.013947;-104.5793;;1091.0
1286.0;1180.5;;;;;;;;;;;;;;0.95901364;0.0054322947;-0.27704704;;;;;1091.0
1286.0;1180.2;90286;90193;14625;;;;;;;;;;;;;;;;;;
1287.0;1181.3;;;;;;;;;;;;;;;;;-43.20658;52.186653;-104.37712;;1100.6
1287.0;1181.3;;;;;;;;;;;;;;1.0340892;-0.093935974;-0.28583637;;;;;1100.6
1287.0;1181.3;;;;;;;;;;;;;;;;;-39.58632;48.32606;-104.80056;;1100.6
1287.0;1181.3;;;;;;;;;;;;;;1.093112;-0.17505418;-0.33314005;;;;;1100.6
1287.0;1181.3;;;;;;;;;;;;;;;;;-33.9671;43.96573;-105.98697;;1110.2
1287.0;1181.3;;;;;;;;;;;;;;1.1631215;-0.22321238;-0.3714713;;;;;1110.2
1287.0;1181.3;;;;;;;;;;;;;;;;;-26.64266;37.015137;-107.04367;;1110.2
1287.0;1181.3;;;;;;;;;;;;;;1.317545;-0.24213386;-0.43586534;;;;;1110.2
1287.0;1181.3;;;;;;;;;;;;;;;;;-17.422253;33.391068;-107.40608;;1119.9
1287.0;1181.3;;;;;;;;;;;;;;1.4635457;-0.2679525;-0.49256873;;;;;1119.9
1287.0;1181.3;;;;;;;;;;;;;;;;;-8.869442;32.6014;-109.01975;;1119.9
1287.0;1181.3;;;;;;;;;;;;;;1.5546739;-0.2616657;-0.50526446;;;;;1119.9
1287.0;1189.0;;;;-0.19807819;1.0573388;0.33879474;;;;;;;;;;;;;;;
1287.0;1189.0;;;;-0.19018939;1.0570909;0.33093265;;;;;;;;;;;;;;;
1287.0;1189.0;;;;-0.18208696;1.0565454;0.32350162;;;;;;;;;;;;;;;
1287.0;1189.0;;;;-0.17345811;1.0568658;0.3167992;;;;;;;;;;;;;;;
1287.0;1189.0;;;;-0.16460039;1.0576593;0.309742;;;;;;;;;;;;;;;
1287.0;1199.0;;;;-0.15526201;1.0584337;0.30425647;;;;;;;;;;;;;;;
1287.0;1199.0;;;;-0.1457329;1.0603753;0.29849628;;;;;;;;;;;;;;;
1287.0;1199.0;;;;-0.13556673;1.0625726;0.29317096;;;;;;;;;;;;;;;
1287.0;1199.0;;;;-0.12500764;1.0651323;0.28738025;;;;;;;;;;;;;;;
1287.0;1199.0;;;;-0.1142769;1.0680352;0.2808266;;;;;;;;;;;;;;;
1287.0;1200.0;106723;106602;14632;;;;;;;;;;;;;;;;;;
1290.0;1206.1;;;;;;;;;;;;;-6;;;;;;;;
1290.0;1206.1;;;;;;;;;;;;;-6;;;;;;;;
1290.0;1206.1;;;;;;;;;;;;;-10;;;;;;;;
1290.0;1206.1;;;;;;;;;;;;;-15;;;;;;;;
1290.0;1206.1;;;;;;;;;;;;;-11;;;;;;;;
1290.0;1209.0;;;;-0.10322191;1.0714647;0.27528766;;;;;;;;;;;;;;;
1290.0;1209.0;;;;-0.09194184;1.0757409;0.2687607;;;;;;;;;;;;;;;
1290.0;1209.0;;;;-0.08090592;1.0799104;0.26409534;;;;;;;;;;;;;;;
1290.0;1209.0;;;;-0.069408424;1.0841333;0.2603226;;;;;;;;;;;;;;;
1290.0;1209.0;;;;-0.058322914;1.0885087;0.25553897;;;;;;;;;;;;;;;
1290.0;1219.1;;;;-0.047912605;1.0919191;0.25078967;;;;;;;;;;;;;;;
1290.0;1219.1;;;;-0.038131718;1.0951043;0.24671176;;;;;;;;;;;;;;;
1290.0;1219.1;;;;-0.02864075;1.0966188;0.24271014;;;;;;;;;;;;;;;
1290.0;1219.1;;;;-0.019802095;1.0974427;0.23882297;;;;;;;;;;;;;;;
1290.0;1219.1;;;;-0.010826112;1.0981561;0.23658374;;;;;;;;;;;;;;;
1290.0;1220.1;123027;122958;14633;;;;;;;;;;;;;;;;;;
1290.0;1229.2;;;;-0.0025672915;1.0976564;0.23391727;;;;;;;;;;;;;;;
1290.0;1229.2;;;;0.005149842;1.0960008;0.23193744;;;;;;;;;;;;;;;
1290.0;1229.2;;;;0.011714936;1.0934869;0.22991565;;;;;;;;;;;;;;;
1290.0;1229.2;;;;0.01741791;1.0906183;0.22842792;;;;;;;;;;;;;;;
1290.0;1229.2;;;;0.022346498;1.0869409;0.22797015;;;;;;;;;;;;;;;
1291.0;1239.3;;;;0.02676392;1.082924;0.22727206;;;;;;;;;;;;;;;
1291.0;1239.3;;;;0.029609684;1.0784532;0.2274132;;;;;;;;;;;;;;;
1291.0;1239.3;;;;0.031764988;1.0728875;0.22912982;;;;;;;;;;;;;;;
1291.0;1239.3;;;;0.032802586;1.0679551;0.23049167;;;;;;;;;;;;;;;
1291.0;1239.3;;;;0.033241276;1.0619775;0.22926334;;;;;;;;;;;;;;;
1291.0;1240.5;;;;;;;;;;;;;;;;;0.42725915;31.086916;-109.389786;;1129.6
1291.0;1240.5;;;;;;;;;;;;;;1.5992309;-0.28357798;-0.48744163;;;;;1129.6
1291.0;1240.5;;;;;;;;;;;;;;;;;11.2880335;27.333141;-109.0083;;1129.6
1291.0;1240.5;;;;;;;;;;;;;;1.6511124;-0.29169592;-0.49336222;;;;;1129.6
1291.0;1240.5;;;;;;;;;;;;;;;;;18.604847;25.929289;-108.512375;;1139.2
1291.0;1240.5;;;;;;;;;;;;;;1.6393323;-0.2757042;-0.45222327;;;;;1139.2
1291.0;1240.5;;;;;;;;;;;;;;;;;21.130253;27.207253;-108.77942;;1139.2
1291.0;1240.5;;;;;;;;;;;;;;1.5827509;-0.24488053;-0.4135258;;;;;1139.2
1291.0;1240.5;;;;;;;;;;;;;;;;;21.462143;31.117435;-110.019226;;1148.7
1291.0;1240.5;;;;;;;;;;;;;;1.4844203;-0.16162603;-0.3592639;;;;;1148.7
1291.0;1240.5;;;;;;;;;;;;;;;;;20.950956;32.90277;-109.77889;;1148.7
1291.0;1240.5;;;;;;;;;;;;;;1.3976867;-0.0756859;-0.30036318;;;;;1148.7
1292.0;1241.2;;;;;;;;;;;;;;;;;19.592882;32.948547;-109.591965;;1158.3
1292.0;1241.2;;;;;;;;;;;;;;1.3494064;0.013672292;-0.27045503;;;;;1158.3
1292.0;1241.2;;;;;;;;;;;;;;;;;18.738365;33.856472;-109.63393;;1158.3
1292.0;1241.2;;;;;;;;;;;;;;1.3193152;0.037110507;-0.24561296;;;;;1158.3
1292.0;1241.2;;;;;;;;;;;;;;;;;20.203253;34.211246;-111.4803;;1167.9
1292.0;1241.2;;;;;;;;;;;;;;1.2917875;0.10425123;-0.23145238;;;;;1167.9
1292.0;1241.2;;;;;;;;;;;;;;;;;23.258919;33.345287;-115.58885;;1167.9
1292.0;1241.2;;;;;;;;;;;;;;1.2534562;0.07397687;-0.24323252;;;;;1167.9
1292.0;1241.2;;;;;;;;;;;;;;;;;29.786066;31.357769;-118.91919;;1177.6
1292.0;1241.2;;;;;;;;;;;;;;1.2588274;0.028931547;-0.27491075;;;;;1177.6
1292.0;1241.2;;;;;;;;;;;;;;;;;36.96936;29.564806;-121.87185;;1177.6
1292.0;1241.2;;;;;;;;;;;;;;1.2621845;0.003295999;-0.30664998;;;;;1177.6
1292.0;1240.4;139372;139396;14631;;;;;;;;;;;;;;;;;;
1292.0;1246.4;;;;;;;;;;;;;-24;;;;;;;;
1292.0;1246.4;;;;;;;;;;;;;-14;;;;;;;;
1292.0;1246.4;;;;;;;;;;;;;-12;;;;;;;;
1292.0;1246.4;;;;;;;;;;;;;-61;;;;;;;;
1292.0;1246.4;;;;;;;;;;;;;30;;;;;;;;
1292.0;1249.2;;;;0.032501224;1.0545884;0.22689441;;;;;;;;;;;;;;;
1292.0;1249.2;;;;0.030265812;1.0469285;0.22446063;;;;;;;;;;;;;;;
1292.0;1249.2;;;;0.02600861;1.0384713;0.22173312;;;;;;;;;;;;;;;
1292.0;1249.2;;;;0.02176285;1.0289346;0.21963504;;;;;;;;;;;;;;;
1292.0;1249.2;;;;0.016201021;1.0198709;0.21902469;;;;;;;;;;;;;;;
1342.0;1259.2;;;;0.010017396;1.0108453;0.21774676;;;;;;;;;;;;;;;
1342.0;1259.2;;;;0.0036125188;1.000969;0.2157059;;;;;;;;;;;;;;;
1342.0;1259.2;;;;-0.0032844548;0.9908525;0.21198276;;;;;;;;;;;;;;;
1342.0;1259.2;;;;-0.009933473;0.98131573;0.2091904;;;;;;;;;;;;;;;
1342.0;1259.2;;;;-0.01709366;0.9713479;0.20603946;;;;;;;;;;;;;;;
1342.0;1260.4;155766;155804;14630;;;;;;;;;;;;;;;;;;
1342.0;1269.1;;;;-0.023967747;0.9612237;0.20385364;;;;;;;;;;;;;;;
1342.0;1269.1;;;;-0.030593876;0.9514581;0.20251468;;;;;;;;;;;;;;;
1342.0;1269.1;;;;-0.03692246;0.94266903;0.20082477;;;;;;;;;;;;;;;
1342.0;1269.1;;;;-0.042484287;0.9340898;0.20108798;;;;;;;;;;;;;;;
1342.0;1269.1;;;;-0.047634132;0.92582333;0.20068362;;;;;;;;;;;;;;;
1342.0;1279.1;;;;-0.052810676;0.918522;0.20200351;;;;;;;;;;;;;;;
1342.0;1279.1;;;;-0.0572815;0.91056454;0.20208362;;;;;;;;;;;;;;;
1342.0;1279.1;;;;-0.061336525;0.9034387;0.20225146;;;;;;;;;;;;;;;
1342.0;1279.1;;;;-0.06507111;0.89593136;0.2023888;;;;;;;;;;;;;;;
1342.0;1279.1;;;;-0.068328865;0.8883897;0.20234683;;;;;;;;;;;;;;;
1342.0;1280.4;172150;172147;14628;;;;;;;;;;;;;;;;;;
1342.0;1286.5;;;;;;;;;;;;;77;;;;;;;;
1342.0;1286.5;;;;;;;;;;;;;-179;;;;;;;;
1342.0;1286.5;;;;;;;;;;;;;-243;;;;;;;;
1342.0;1286.5;;;;;;;;;;;;;389;;;;;;;;
1342.0;1286.5;;;;;;;;;;;;;1251;;;;;;;;
1343.0;1289.3;;;;-0.07188035;0.88133633;0.20195392;;;;;;;;;;;;;;;
1343.0;1289.3;;;;-0.0759697;0.8741914;0.20111468;;;;;;;;;;;;;;;
1343.0;1289.3;;;;-0.08065797;0.8666307;0.20056918;;;;;;;;;;;;;;;
1343.0;1289.3;;;;-0.08634568;0.8599092;0.19918445;;;;;;;;;;;;;;;
1343.0;1289.3;;;;-0.09348679;0.8535348;0.19869617;;;;;;;;;;;;;;;
1343.0;1299.4;;;;-0.10165788;0.84679425;0.19762042;;;;;;;;;;;;;;;
1343.0;1299.4;;;;-0.108749405;0.8407289;0.1972008;;;;;;;;;;;;;;;
1343.0;1299.4;;;;-0.11772539;0.8349534;0.19593433;;;;;;;;;;;;;;;
1343.0;1299.4;;;;-0.12677003;0.8290101;0.19401172;;;;;;;;;;;;;;;
1343.0;1299.4;;;;-0.13588716;0.82323086;0.19187549;;;;;;;;;;;;;;;
1343.0;1300.6;;;;;;;;;;;;;;;;;43.11884;27.161474;-123.42067;;1187.2
1343.0;1300.6;;;;;;;;;;;;;;1.2274544;0.03216651;-0.33448288;;;;;1187.2
1343.0;1300.6;;;;;;;;;;;;;;;;;48.97458;22.637104;-122.50893;;1187.2
1343.0;1300.6;;;;;;;;;;;;;;1.1583606;0.02356029;-0.35389262;;;;;1187.2
1343.0;1300.6;;;;;;;;;;;;;;;;;56.23417;18.986328;-123.34437;;1196.9
1343.0;1300.6;;;;;;;;;;;;;;1.0475173;0.044312876;-0.3418073;;;;;1196.9
1343.0;1300.6;;;;;;;;;;;;;;;;;53.651543;11.486403;-122.38303;;1196.9
1343.0;1300.6;;;;;;;;;;;;;;1.1279641;0.14069033;-0.36469617;;;;;1196.9
1343.0;1300.6;;;;;;;;;;;;;;;;;47.93695;5.4857025;-117.41234;;1206.5
1343.0;1300.6;;;;;;;;;;;;;;1.0929899;0.11993774;-0.3507187;;;;;1206.5
1343.0;1300.6;;;;;;;;;;;;;;;;;42.878506;0.2784814;-114.242226;;1206.5
1343.0;1300.6;;;;;;;;;;;;;;1.048677;0.1739555;-0.32526627;;;;;1206.5
1343.0;1300.5;188543;188595;14645;;;;;;;;;;;;;;;;;;
1345.0;1301.7;;;;;;;;;;;;;;;;;35.657063;-6.221961;-110.957664;;1216.1
1345.0;1301.7;;;;;;;;;;;;;;1.1054415;0.1605884;-0.3569445;;;;;1216.1
1345.0;1301.7;;;;;;;;;;;;;;;;;27.455214;-10.258034;-106.563;;1216.1
1345.0;1301.7;;;;;;;;;;;;;;1.1196021;0.13177893;-0.38410595;;;;;1216.1
1345.0;1301.7;;;;;;;;;;;;;;;;;19.413588;-12.249367;-102.767265;;1225.7
1345.0;1301.7;;;;;;;;;;;;;;1.0863369;0.19080172;-0.37604907;;;;;1225.7
1345.0;1301.7;;;;;;;;;;;;;;;;;10.883664;-14.042329;-97.6249;;1225.7
1345.0;1301.7;;;;;;;;;;;;;;1.0163274;0.16138189;-0.34760582;;;;;1225.7
1345.0;1301.7;;;;;;;;;;;;;;;;;4.581591;-17.941069;-91.76916;;1235.4
1345.0;1301.7;;;;;;;;;;;;;;0.9814142;0.13098544;-0.28479874;;;;;1235.4
1345.0;1301.7;;;;;;;;;;;;;;;;;-1.0376294;-21.511734;-85.16953;;1235.4
1345.0;1301.7;;;;;;;;;;;;;;1.0961028;0.05633717;-0.33509323;;;;;1235.4
1345.0;1309.2;;;;-0.14373781;0.8180162;0.19205096;;;;;;;;;;;;;;;
1345.0;1309.2;;;;-0.15107729;0.8133508;0.19172671;;;;;;;;;;;;;;;
1345.0;1309.2;;;;-0.15866853;0.80825436;0.19033816;;;;;;;;;;;;;;;
1345.0;1309.2;;;;-0.16780473;0.80314267;0.18787387;;;;;;;;;;;;;;;
1345.0;1309.2;;;;-0.17538072;0.79774106;0.18595125;;;;;;;;;;;;;;;
1403.0;1315.6;;;;;;;;;;;;;;;;;-5.859554;-16.384624;-80.35523;;1245.1
1403.0;1315.6;;;;;;;;;;;;;;0.9996643;0.006653035;-0.30408642;;;;;1245.1
1403.0;1315.6;;;;;;;;;;;;;;;;;-11.623737;-14.6641445;-77.90231;;1245.1
1403.0;1315.6;;;;;;;;;;;;;;0.9677419;-0.021790216;-0.24488053;;;;;1245.1
1403.0;1315.6;;;;;;;;;;;;;;;;;-15.621662;-19.833216;-73.09183;;1254.7
1403.0;1315.6;;;;;;;;;;;;;;1.012482;-0.057618946;-0.26514482;;;;;1254.7
1403.0;1315.6;;;;;;;;;;;;;;;;;-19.207588;-21.496475;-68.334755;;1254.7
1403.0;1315.6;;;;;;;;;;;;;;0.95901364;-0.056215096;-0.23737296;;;;;1254.7
1403.0;1315.6;;;;;;;;;;;;;;;;;-28.984955;-24.037142;-65.32106;;1264.3
1403.0;1315.6;;;;;;;;;;;;;;0.90462965;0.024475845;-0.17169714;;;;;1264.3
1403.0;1315.6;;;;;;;;;;;;;;;;;-40.90243;-28.90103;-60.518204;;1264.3
1403.0;1315.6;;;;;;;;;;;;;;0.86574906;0.05145421;-0.14380322;;;;;1264.3
1403.0;1319.2;;;;-0.18328859;0.7935525;0.18515016;;;;;;;;;;;;;;;
1403.0;1319.2;;;;-0.19031146;0.78971875;0.18532945;;;;;;;;;;;;;;;
1403.0;1319.2;;;;-0.19943622;0.78507245;0.18300249;;;;;;;;;;;;;;;
1403.0;1319.2;;;;-0.20763782;0.7810594;0.18019487;;;;;;;;;;;;;;;
1403.0;1319.2;;;;-0.21537402;0.776806;0.17731477;;;;;;;;;;;;;;;
1403.0;1320.5;204940;204875;14629;;;;;;;;;;;;;;;;;;
1403.0;1326.5;;;;;;;;;;;;;1394;;;;;;;;
1403.0;1326.5;;;;;;;;;;;;;674;;;;;;;;
1403.0;1326.5;;;;;;;;;;;;;-17;;;;;;;;
1403.0;1326.5;;;;;;;;;;;;;-15;;;;;;;;
1403.0;1326.5;;;;;;;;;;;;;191;;;;;;;;
1404.0;1329.1;;;;-0.2225075;0.7734071;0.17527391;;;;;;;;;;;;;;;
1404.0;1329.1;;;;-0.22708514;0.7701036;0.17440034;;;;;;;;;;;;;;;
1404.0;1329.1;;;;-0.2331734;0.76698315;0.17328645;;;;;;;;;;;;;;;
1404.0;1329.1;;;;-0.23965457;0.7636453;0.17100526;;;;;;;;;;;;;;;
1404.0;1329.1;;;;-0.24560931;0.7603837;0.1679764;;;;;;;;;;;;;;;
1404.0;1339.2;;;;-0.24543384;0.7569543;0.16724397;;;;;;;;;;;;;;;
1404.0;1339.2;;;;-0.24892047;0.75439847;0.16687776;;;;;;;;;;;;;;;
1404.0;1339.2;;;;-0.25278476;0.75190365;0.16568376;;;;;;;;;;;;;;;
1404.0;1339.2;;;;-0.25478747;0.748581;0.16459276;;;;;;;;;;;;;;;
1404.0;1339.2;;;;-0.25623706;0.74628836;0.16238786;;;;;;;;;;;;;;;
1404.0;1340.5;221264;221281;14644;;;;;;;;;;;;;;;;;;
1404.0;1349.3;;;;-0.2573929;0.7413445;0.15831377;;;;;;;;;;;;;;;
1404.0;1349.3;;;;-0.26111224;0.7410317;0.15864946;;;;;;;;;;;;;;;
1404.0;1349.3;;;;-0.26570514;0.7397843;0.15521242;;;;;;;;;;;;;;;
1404.0;1349.3;;;;-0.26932147;0.73876196;0.1515999;;;;;;;;;;;;;;;
1404.0;1349.3;;;;-0.27240375;0.7378388;0.14806749;;;;;;;;;;;;;;;
1404.0;1359.4;;;;-0.2748337;0.73649985;0.14512636;;;;;;;;;;;;;;;
1404.0;1359.4;;;;-0.27718738;0.7344704;0.14179994;;;;;;;;;;;;;;;
1404.0;1359.4;;;;-0.27930453;0.7334023;0.13818361;;;;;;;;;;;;;;;
1404.0;1359.4;;;;-0.28151706;0.7320443;0.13423158;;;;;;;;;;;;;;;
1404.0;1359.4;;;;-0.2842255;0.7304726;0.1304474;;;;;;;;;;;;;;;
1405.0;1360.7;;;;;;;;;;;;;;;;;-51.82043;-32.765434;-56.340984;;1274.0
1405.0;1360.7;;;;;;;;;;;;;;0.8323618;0.035950806;-0.12213507;;;;;1274.0
1405.0;1360.7;;;;;;;;;;;;;;;;;-60.9035;-34.913174;-52.838985;;1274.0
1405.0;1360.7;;;;;;;;;;;;;;0.81905574;0.07312235;-0.09851375;;;;;1274.0
1405.0;1360.7;;;;;;;;;;;;;;;;;-70.921196;-36.030914;-48.638874;;1283.7
1405.0;1360.7;;;;;;;;;;;;;;0.81966615;0.110965304;-0.08551286;;;;;1283.7
1405.0;1360.7;;;;;;;;;;;;;;;;;-80.751976;-36.545914;-44.46165;;1283.7
1405.0;1360.7;;;;;;;;;;;;;;0.7934202;0.13037507;-0.092593156;;;;;1283.7
1405.0;1360.7;;;;;;;;;;;;;;;;;-86.79465;-39.185764;-40.18143;;1293.4
1405.0;1360.7;;;;;;;;;;;;;;0.7740104;0.15698722;-0.13183996;;;;;1293.4
1405.0;1360.7;;;;;;;;;;;;;;;;;-90.61708;-41.32588;-35.63036;;1293.4
1405.0;1360.7;;;;;;;;;;;;;;0.75661486;0.14477982;-0.18189032;;;;;1293.4
1405.0;1360.7;237677;237736;14638;;;;;;;;;;;;;;;;;;
1405.0;1366.8;;;;;;;;;;;;;-202;;;;;;;;
1405.0;1366.8;;;;;;;;;;;;;-854;;;;;;;;
1405.0;1366.8;;;;;;;;;;;;;-1138;;;;;;;;
1405.0;1366.8;;;;;;;;;;;;;-1341;;;;;;;;
1405.0;1366.8;;;;;;;;;;;;;-1940;;;;;;;;
1405.0;1369.4;;;;-0.28675082;0.7286988;0.12771608;;;;;;;;;;;;;;;
1405.0;1369.4;;;;-0.2898102;0.72761923;0.12500001;;;;;;;;;;;;;;;
1405.0;1369.4;;;;-0.29295734;0.7260514;0.12155916;;;;;;;;;;;;;;;
1405.0;1369.4;;;;-0.2960396;0.7241326;0.11707689;;;;;;;;;;;;;;;
1405.0;1369.4;;;;-0.2990227;0.7215691;0.11338045;;;;;;;;;;;;;;;
1461.0;1375.8;;;;;;;;;;;;;;;;;-91.89123;-42.329174;-31.273842;;1303.0
1461.0;1375.8;;;;;;;;;;;;;;0.7392804;0.103274636;-0.24390393;;;;;1303.0
1461.0;1375.8;;;;;;;;;;;;;;;;;-90.13641;-43.79025;-25.990326;;1303.0
1461.0;1375.8;;;;;;;;;;;;;;0.7611927;0.03723258;-0.3137913;;;;;1303.0
1461.0;1375.8;;;;;;;;;;;;;;;;;-87.405014;-42.954803;-20.622883;;1312.6
1461.0;1375.8;;;;;;;;;;;;;;0.69209874;-0.037049472;-0.33436078;;;;;1312.6
1461.0;1375.8;;;;;;;;;;;;;;;;;-87.4012;-41.150394;-15.869625;;1312.6
1461.0;1375.8;;;;;;;;;;;;;;0.6850795;-0.11914426;-0.34589678;;;;;1312.6
1461.0;1375.8;;;;;;;;;;;;;;;;;-89.228485;-39.407024;-10.544146;;1322.3
1461.0;1375.8;;;;;;;;;;;;;;0.6516923;-0.18341625;-0.31934568;;;;;1322.3
1461.0;1375.8;;;;;;;;;;;;;;;;;-92.21168;-35.565506;-8.255258;;1322.3
1461.0;1375.8;;;;;;;;;;;;;;0.61000395;-0.21332438;-0.2794885;;;;;1322.3
1461.0;1379.2;;;;-0.30114368;0.7192269;0.109928146;;;;;;;;;;;;;;;
1461.0;1379.2;;;;-0.3035927;0.71714026;0.10576631;;;;;;;;;;;;;;;
1461.0;1379.2;;;;-0.3054619;0.71524817;0.10203554;;;;;;;;;;;;;;;
1461.0;1379.2;;;;-0.30742267;0.7131272;0.09795381;;;;;;;;;;;;;;;
1461.0;1379.2;;;;-0.30876163;0.71124274;0.09391786;;;;;;;;;;;;;;;
1461.0;1380.7;254116;254053;14631;;;;;;;;;;;;;;;;;;
1461.0;1389.2;;;;-0.31022266;0.7093888;0.09026719;;;;;;;;;;;;;;;
1461.0;1389.2;;;;-0.31058887;0.7077027;0.08656693;;;;;;;;;;;;;;;
1461.0;1389.2;;;;-0.3109093;0.70579535;0.08252335;;;;;;;;;;;;;;;
1461.0;1389.2;;;;-0.3107796;0.704361;0.07835389;;;;;;;;;;;;;;;
1461.0;1389.2;;;;-0.30991367;0.7025147;0.07484055;;;;;;;;;;;;;;;
1464.0;1399.2;;;;-0.3087006;0.7007981;0.071228035;;;;;;;;;;;;;;;
1464.0;1399.2;;;;-0.30741504;0.6987305;0.068378456;;;;;;;;;;;;;;;
1464.0;1399.2;;;;-0.3057213;0.6969834;0.06500626;;;;;;;;;;;;;;;
1464.0;1399.2;;;;-0.30357364;0.6947747;0.06262208;;;;;;;;;;;;;;;
1464.0;1399.2;;;;-0.30109027;0.69289404;0.060104378;;;;;;;;;;;;;;;
1464.0;1400.7;262143;262143;14625;;;;;;;;;;;;;;;;;;
1464.0;1406.8;;;;;;;;;;;;;-2849;;;;;;;;
1464.0;1406.8;;;;;;;;;;;;;-3648;;;;;;;;
1464.0;1406.8;;;;;;;;;;;;;-4130;;;;;;;;
1464.0;1406.8;;;;;;;;;;;;;-4630;;;;;;;;
1464.0;1406.8;;;;;;;;;;;;;-5421;;;;;;;;
1464.0;1409.3;;;;-0.29896548;0.69108206;0.058090217;;;;;;;;;;;;;;;
1464.0;1409.3;;;;-0.29613498;0.68942267;0.05572892;;;;;;;;;;;;;;;
1464.0;1409.3;;;;-0.29374698;0.6875344;0.054245003;;;;;;;;;;;;;;;
1464.0;1409.3;;;;-0.29144672;0.6856194;0.05132676;;;;;;;;;;;;;;;
1464.0;1409.3;;;;-0.28891757;0.6834298;0.048896797;;;;;;;;;;;;;;;
1464.0;1419.4;;;;-0.28611758;0.6817017;0.046772007;;;;;;;;;;;;;;;
1464.0;1419.4;;;;-0.2833977;0.68007666;0.044780735;;;;;;;;;;;;;;;
1464.0;1419.4;;;;-0.27987292;0.67781836;0.04240418;;;;;;;;;;;;;;;
1464.0;1419.4;;;;-0.27643588;0.6763306;0.04124451;;;;;;;;;;;;;;;
1464.0;1419.4;;;;-0.27305606;0.67428976;0.0392952;;;;;;;;;;;;;;;
1464.0;1421.0;262143;262143;14636;;;;;;;;;;;;;;;;;;
1465.0;1428.0;;;;;;;;;;;;;;;;;-93.03949;-33.18888;-7.148961;;1332.0
1465.0;1428.0;;;;;;;;;;;;;;0.623249;-0.25183874;-0.26886806;;;;;1332.0
1465.0;1428.0;;;;;;;;;;;;;;;;;-91.93701;-32.502213;-6.477554;;1332.0
1465.0;1428.0;;;;;;;;;;;;;;0.6092715;-0.29126865;-0.26319164;;;;;1332.0
1465.0;1428.0;;;;;;;;;;;;;;;;;-88.82412;-32.17414;-5.405591;;1341.7
1465.0;1428.0;;;;;;;;;;;;;;0.60206914;-0.32660908;-0.25501266;;;;;1341.7
1465.0;1428.0;;;;;;;;;;;;;;;;;-83.63979;-32.898956;-3.7995543;;1341.7
1465.0;1428.0;;;;;;;;;;;;;;0.60982084;-0.34589678;-0.24652852;;;;;1341.7
1465.0;1428.0;;;;;;;;;;;;;;;;;-78.123566;-33.44066;-2.3804438;;1351.3
1465.0;1428.0;;;;;;;;;;;;;;0.6038392;-0.3573107;-0.22821741;;;;;1351.3
1465.0;1428.0;;;;;;;;;;;;;;;;;-72.264015;-33.623768;-0.46922207;;1351.3
1465.0;1428.0;;;;;;;;;;;;;;0.5885189;-0.44538713;-0.21460617;;;;;1351.3
1465.0;1429.3;;;;-0.2700844;0.67276007;0.03795624;;;;;;;;;;;;;;;
1465.0;1429.3;;;;-0.266552;0.67140967;0.036319736;;;;;;;;;;;;;;;
1465.0;1429.3;;;;-0.26337054;0.6690064;0.034515385;;;;;;;;;;;;;;;
1465.0;1429.3;;;;-0.2597809;0.66691977;0.033012394;;;;;;;;;;;;;;;
1465.0;1429.3;;;;-0.2563477;0.6648331;0.03166962;;;;;;;;;;;;;;;
1527.0;1435.8;;;;;;;;;;;;;;;;;-64.26435;-33.040104;0.35859248;;1360.9
1527.0;1435.8;;;;;;;;;;;;;;0.5735649;-0.3863033;-0.15778069;;;;;1360.9
1527.0;1435.8;;;;;;;;;;;;;;;;;-58.236946;-34.05484;3.2082584;;1360.9
1527.0;1435.8;;;;;;;;;;;;;;0.5939512;-0.35279396;-0.120365;;;;;1360.9
1527.0;1435.8;;;;;;;;;;;;;;;;;-53.552357;-34.970394;7.312998;;1370.6
1527.0;1435.8;;;;;;;;;;;;;;0.58876306;-0.37043366;-0.098818935;;;;;1370.6
1527.0;1435.8;;;;;;;;;;;;;;;;;-47.54784;-36.191135;11.276589;;1370.6
1527.0;1435.8;;;;;;;;;;;;;;0.57832575;-0.37006745;-0.09088412;;;;;1370.6
1527.0;1435.8;;;;;;;;;;;;;;;;;-40.444653;-38.270214;14.915922;;1380.3
1527.0;1435.8;;;;;;;;;;;;;;0.57240516;-0.3696402;-0.093691826;;;;;1380.3
1527.0;1435.8;;;;;;;;;;;;;;;;;-31.788841;-41.97821;18.219551;;1380.3
1527.0;1435.8;;;;;;;;;;;;;;0.5757012;-0.35297707;-0.10803553;;;;;1380.3
1527.0;1439.2;;;;-0.253212;0.6625977;0.030876163;;;;;;;;;;;;;;;
1527.0;1439.2;;;;-0.24954608;0.661007;0.03010941;;;;;;;;;;;;;;;
1527.0;1439.2;;;;-0.24568179;0.65931326;0.029071812;;;;;;;;;;;;;;;
1527.0;1439.2;;;;-0.24219516;0.657116;0.029106144;;;;;;;;;;;;;;;
1527.0;1439.2;;;;-0.2387009;0.65557104;0.028495792;;;;;;;;;;;;;;;
1527.0;1440.8;262143;262143;14630;;;;;;;;;;;;;;;;;;
1527.0;1446.9;;;;;;;;;;;;;-6348;;;;;;;;
1527.0;1446.9;;;;;;;;;;;;;-7162;;;;;;;;
1527.0;1446.9;;;;;;;;;;;;;-7621;;;;;;;;
1527.0;1446.9;;;;;;;;;;;;;-7613;;;;;;;;
1527.0;1446.9;;;;;;;;;;;;;-7302;;;;;;;;
1530.0;1449.2;;;;-0.2359238;0.65388495;0.02890015;;;;;;;;;;;;;;;
1530.0;1449.2;;;;-0.23293689;0.6522065;0.028697971;;;;;;;;;;;;;;;
1530.0;1449.2;;;;-0.23107913;0.6509324;0.02865601;;;;;;;;;;;;;;;
1530.0;1449.2;;;;-0.23004535;0.6497269;0.028800968;;;;;;;;;;;;;;;
1530.0;1449.2;;;;-0.22932819;0.6488877;0.02902985;;;;;;;;;;;;;;;
1530.0;1459.2;;;;-0.22919086;0.64815146;0.029479984;;;;;;;;;;;;;;;
1530.0;1459.2;;;;-0.22940066;0.64754874;0.028377537;;;;;;;;;;;;;;;
1530.0;1459.2;;;;-0.22985461;0.6469689;0.029117588;;;;;;;;;;;;;;;
1530.0;1459.2;;;;-0.23048785;0.646679;0.029350284;;;;;;;;;;;;;;;
1530.0;1459.2;;;;-0.23094562;0.6467858;0.029869083;;;;;;;;;;;;;;;
1530.0;1460.9;262143;262143;14625;;;;;;;;;;;;;;;;;;
1530.0;1469.4;;;;-0.23165897;0.6465569;0.03022385;;;;;;;;;;;;;;;
1530.0;1469.4;;;;-0.23192218;0.6463433;0.030761722;;;;;;;;;;;;;;;
1530.0;1469.4;;;;-0.23331454;0.64607626;0.030742649;;;;;;;;;;;;;;;
1530.0;1469.4;;;;-0.23486331;0.6464768;0.03192902;;;;;;;;;;;;;;;
1530.0;1469.4;;;;-0.23586276;0.6458207;0.03222275;;;;;;;;;;;;;;;
1530.0;1479.5;;;;-0.2370148;0.64593893;0.033191685;;;;;;;;;;;;;;;
1530.0;1479.5;;;;-0.23723224;0.6447678;0.032524113;;;;;;;;;;;;;;;
1530.0;1479.5;;;;-0.23736575;0.64329153;0.032405857;;;;;;;;;;;;;;;
1530.0;1479.5;;;;-0.23789981;0.6420441;0.03356934;;;;;;;;;;;;;;;
1530.0;1479.5;;;;-0.23816684;0.641079;0.0341301;;;;;;;;;;;;;;;
1580.0;1481.2;262143;262143;14639;;;;;;;;;;;;;;;;;;
1580.0;1487.2;;;;;;;;;;;;;-6925;;;;;;;;
1580.0;1487.2;;;;;;;;;;;;;-6431;;;;;;;;
1580.0;1487.2;;;;;;;;;;;;;-5434;;;;;;;;
1580.0;1487.2;;;;;;;;;;;;;-3859;;;;;;;;
1580.0;1487.2;;;;;;;;;;;;;-2278;;;;;;;;
1580.0;1489.5;;;;-0.23891452;0.6394997;0.035221104;;;;;;;;;;;;;;;
1580.0;1489.5;;;;-0.23886493;0.6384354;0.036750797;;;;;;;;;;;;;;;
1580.0;1489.5;;;;-0.23966983;0.6373902;0.038440708;;;;;;;;;;;;;;;
1580.0;1489.5;;;;-0.24031833;0.63612753;0.03992844;;;;;;;;;;;;;;;
1580.0;1489.5;;;;-0.2405205;0.63528067;0.04073334;;;;;;;;;;;;;;;
1580.0;1499.5;;;;-0.2406731;0.6342965;0.04190064;;;;;;;;;;;;;;;
1580.0;1499.5;;;;-0.24143985;0.6333886;0.04340363;;;;;;;;;;;;;;;
1580.0;1499.5;;;;-0.24188617;0.6328698;0.044586185;;;;;;;;;;;;;;;
1580.0;1499.5;;;;-0.24292377;0.6322976;0.046001438;;;;;;;;;;;;;;;
1580.0;1499.5;;;;-0.24407962;0.63169867;0.047611244;;;;;;;;;;;;;;;
1580.0;1501.3;262143;262143;14636;;;;;;;;;;;;;;;;;;
1580.0;1509.4;;;;-0.24586108;0.6315842;0.04859925;;;;;;;;;;;;;;;
1580.0;1509.4;;;;-0.24797824;0.6316872;0.051120766;;;;;;;;;;;;;;;
1580.0;1509.4;;;;-0.25095752;0.63200766;0.05272294;;;;;;;;;;;;;;;
1580.0;1509.4;;;;-0.25441745;0.6326714;0.054618843;;;;;;;;;;;;;;;
1580.0;1509.4;;;;-0.25872424;0.63348395;0.056106575;;;;;;;;;;;;;;;
1582.0;1519.5;;;;-0.26402667;0.6346436;0.056381233;;;;;;;;;;;;;;;
1582.0;1519.5;;;;-0.2698746;0.63592917;0.057456978;;;;;;;;;;;;;;;
1582.0;1519.5;;;;-0.27596286;0.63722235;0.058006294;;;;;;;;;;;;;;;
1582.0;1519.5;;;;-0.28276065;0.63870627;0.058975227;;;;;;;;;;;;;;;
1582.0;1519.5;;;;-0.2896233;0.64018637;0.05967713;;;;;;;;;;;;;;;
1582.0;1521.3;262143;262143;14624;;;;;;;;;;;;;;;;;;
1582.0;1527.4;;;;;;;;;;;;;-1049;;;;;;;;
1582.0;1527.4;;;;;;;;;;;;;54;;;;;;;;
1582.0;1527.4;;;;;;;;;;;;;1261;;;;;;;;
1582.0;1527.4;;;;;;;;;;;;;2291;;;;;;;;
1582.0;1527.4;;;;;;;;;;;;;2824;;;;;;;;
1582.0;1529.6;;;;-0.29547885;0.64202887;0.06026841;;;;;;;;;;;;;;;
1582.0;1529.6;;;;-0.30150607;0.64384466;0.060916908;;;;;;;;;;;;;;;
1582.0;1529.6;;;;-0.30643466;0.6457673;0.0611229;;;;;;;;;;;;;;;
1582.0;1529.6;;;;-0.31161883;0.6473008;0.061264046;;;;;;;;;;;;;;;
1582.0;1529.6;;;;-0.31670383;0.6487046;0.06159974;;;;;;;;;;;;;;;
1582.0;1539.7;;;;-0.32102206;0.6502877;0.06216813;;;;;;;;;;;;;;;
1582.0;1539.7;;;;-0.3257065;0.6511765;0.06250001;;;;;;;;;;;;;;;
1582.0;1539.7;;;;-0.32930377;0.6520577;0.0631981;;;;;;;;;;;;;;;
1582.0;1539.7;;;;-0.33254626;0.6523743;0.06343461;;;;;;;;;;;;;;;
1582.0;1539.7;;;;-0.33521655;0.6526795;0.06369019;;;;;;;;;;;;;;;
1583.0;1541.5;;;;;;;;;;;;;;;;;-24.033327;-46.624653;21.546068;;1389.8
1583.0;1541.5;;;;;;;;;;;;;;0.5795465;-0.3185522;-0.10614338;;;;;1389.8
1583.0;1541.5;;;;;;;;;;;;;;;;;-18.34544;-51.667835;24.739067;;1389.8
1583.0;1541.5;;;;;;;;;;;;;;0.6009705;-0.2760094;-0.100405894;;;;;1389.8
1583.0;1541.5;;;;;;;;;;;;;;;;;-16.07944;-55.646687;28.25251;;1399.4
1583.0;1541.5;;;;;;;;;;;;;;0.64656514;-0.23773919;-0.07751702;;;;;1399.4
1583.0;1541.5;;;;;;;;;;;;;;;;;-18.570513;-58.084354;32.319103;;1399.4
1583.0;1541.5;;;;;;;;;;;;;;0.68977934;-0.20636617;-0.04651021;;;;;1399.4
1583.0;1541.5;;;;;;;;;;;;;;;;;-24.803917;-58.286537;37.118137;;1409.0
1583.0;1541.5;;;;;;;;;;;;;;0.7713248;-0.1350139;-0.0036622211;;;;;1409.0
1583.0;1541.5;;;;;;;;;;;;;;;;;-34.119694;-55.09735;42.18421;;1409.0
1583.0;1541.5;;;;;;;;;;;;;;0.83425397;-0.04174932;0.052552875;;;;;1409.0
1583.0;1542.3;;;;;;;;;;;;;;;;;-44.957577;-47.498245;46.58269;;1418.6
1583.0;1542.3;;;;;;;;;;;;;;0.9264809;0.070314646;0.08777124;;;;;1418.6
1583.0;1542.3;;;;;;;;;;;;;;;;;-56.604206;-33.429214;48.448135;;1418.6
1583.0;1542.3;;;;;;;;;;;;;;1.0212103;0.14685507;0.12512589;;;;;1418.6
1583.0;1542.3;;;;;;;;;;;;;;;;;-65.42406;-14.996032;50.8095;;1428.3
1583.0;1542.3;;;;;;;;;;;;;;1.066805;0.20496231;0.16290781;;;;;1428.3
1583.0;1542.3;;;;;;;;;;;;;;;;;-70.535904;3.318888;51.56102;;1428.3
1583.0;1542.3;;;;;;;;;;;;;;1.0851772;0.310007;0.20007935;;;;;1428.3
1583.0;1542.3;;;;;;;;;;;;;;;;;-72.3632;18.230995;51.6068;;1437.9
1583.0;1542.3;;;;;;;;;;;;;;1.0824305;0.45234534;0.21399578;;;;;1437.9
1583.0;1542.3;;;;;;;;;;;;;;;;;-71.462906;27.104252;51.43513;;1437.9
1583.0;1542.3;;;;;;;;;;;;;;1.0491043;0.56556904;0.16541032;;;;;1437.9
1640.0;1541.6;262143;262143;14632;;;;;;;;;;;;;;;;;;
1640.0;1543.1;;;;;;;;;;;;;;;;;-67.2628;30.09125;49.81765;;1447.5
1640.0;1543.1;;;;;;;;;;;;;;1.0267037;0.6923429;0.09399701;;;;;1447.5
1640.0;1543.1;;;;;;;;;;;;;;;;;-60.083313;27.977842;47.566914;;1447.5
1640.0;1543.1;;;;;;;;;;;;;;1.0076602;0.8122196;-0.016113773;;;;;1447.5
1640.0;1543.1;;;;;;;;;;;;;;;;;-51.59154;22.663807;45.083466;;1457.1
1640.0;1543.1;;;;;;;;;;;;;;0.9903256;0.9262978;-0.13892026;;;;;1457.1
1640.0;1543.1;;;;;;;;;;;;;;;;;-41.726433;16.273996;42.741173;;1457.1
1640.0;1543.1;;;;;;;;;;;;;;0.9510178;0.99166846;-0.25269327;;;;;1457.1
1640.0;1543.1;;;;;;;;;;;;;;;;;-27.74514;10.9408865;37.236397;;1466.8
1640.0;1543.1;;;;;;;;;;;;;;0.9046907;1.0868862;-0.3584704;;;;;1466.8
1640.0;1543.1;;;;;;;;;;;;;;;;;-11.631367;8.098849;30.846582;;1466.8
1640.0;1543.1;;;;;;;;;;;;;;0.854152;1.1070894;-0.4403821;;;;;1466.8
1641.0;1548.7;;;;;;;;;;;;;;;;;7.7936645;5.821406;22.530289;;1476.4
1641.0;1548.7;;;;;;;;;;;;;;0.7561876;1.0892667;-0.55671865;;;;;1476.4
1641.0;1548.7;;;;;;;;;;;;;;;;;33.227028;-0.67522204;12.1807;;1476.4
1641.0;1548.7;;;;;;;;;;;;;;0.6580401;1.0760826;-0.732078;;;;;1476.4
1641.0;1548.7;;;;;;;;;;;;;;;;;57.96228;-11.169774;3.6584065;;1486.1
1641.0;1548.7;;;;;;;;;;;;;;0.5771661;0.98550373;-0.8999298;;;;;1486.1
1641.0;1548.7;;;;;;;;;;;;;;;;;74.236275;-21.835995;-3.872036;;1486.1
1641.0;1548.7;;;;;;;;;;;;;;0.58790857;0.8896145;-0.9687185;;;;;1486.1
1641.0;1548.7;;;;;;;;;;;;;;;;;80.64134;-30.030212;-8.827478;;1495.7
1641.0;1548.7;;;;;;;;;;;;;;0.63020724;0.77193516;-0.9502854;;;;;1495.7
1641.0;1548.7;;;;;;;;;;;;;;;;;77.92139;-36.465805;-11.15833;;1495.7
1641.0;1548.7;;;;;;;;;;;;;;0.6921598;0.6432691;-0.8665426;;;;;1495.7
1641.0;1549.4;;;;-0.33803943;0.6530724;0.063919075;;;;;;;;;;;;;;;
1641.0;1549.4;;;;-0.3404694;0.65377814;0.063797005;;;;;;;;;;;;;;;
1641.0;1549.4;;;;-0.3432465;0.6535569;0.063171394;;;;;;;;;;;;;;;
1641.0;1549.4;;;;-0.34653857;0.6532479;0.061962135;;;;;;;;;;;;;;;
1641.0;1549.4;;;;-0.350647;0.6529847;0.06056977;;;;;;;;;;;;;;;
1641.0;1559.4;;;;-0.35558704;0.652916;0.058567055;;;;;;;;;;;;;;;
1641.0;1559.4;;;;-0.3617554;0.65282446;0.05648423;;;;;;;;;;;;;;;
1641.0;1559.4;;;;-0.36864856;0.652752;0.054504402;;;;;;;;;;;;;;;
1641.0;1559.4;;;;-0.3758698;0.65287024;0.052474983;;;;;;;;;;;;;;;
1641.0;1559.4;;;;-0.38360983;0.6529656;0.050552376;;;;;;;;;;;;;;;
1641.0;1561.3;262143;262143;14627;;;;;;;;;;;;;;;;;;
1642.0;1567.2;;;;;;;;;;;;;2959;;;;;;;;
1642.0;1567.2;;;;;;;;;;;;;2938;;;;;;;;
1642.0;1567.2;;;;;;;;;;;;;2983;;;;;;;;
1642.0;1567.2;;;;;;;;;;;;;3085;;;;;;;;
1642.0;1567.2;;;;;;;;;;;;;3079;;;;;;;;
1642.0;1569.3;;;;-0.3907128;0.6530953;0.04808045;;;;;;;;;;;;;;;
1642.0;1569.3;;;;-0.39752203;0.65346915;0.046192173;;;;;;;;;;;;;;;
1642.0;1569.3;;;;-0.40432745;0.6534348;0.044368748;;;;;;;;;;;;;;;
1642.0;1569.3;;;;-0.41070563;0.6540299;0.042247776;;;;;;;;;;;;;;;
1642.0;1569.3;;;;-0.41653448;0.6542092;0.04019547;;;;;;;;;;;;;;;
1642.0;1579.2;;;;-0.42189413;0.654419;0.039169315;;;;;;;;;;;;;;;
1642.0;1579.2;;;;-0.42728812;0.6553803;0.037193302;;;;;;;;;;;;;;;
1642.0;1579.2;;;;-0.43206793;0.6563149;0.03576279;;;;;;;;;;;;;;;
1642.0;1579.2;;;;-0.43661124;0.6576157;0.033866886;;;;;;;;;;;;;;;
1642.0;1579.2;;;;-0.44097143;0.6590844;0.03185654;;;;;;;;;;;;;;;
1642.0;1581.2;262143;262143;14623;;;;;;;;;;;;;;;;;;
1642.0;1589.3;;;;-0.44491965;0.66154486;0.029705051;;;;;;;;;;;;;;;
1642.0;1589.3;;;;-0.44832617;0.66358954;0.02719498;;;;;;;;;;;;;;;
1642.0;1589.3;;;;-0.4516526;0.66717917;0.025550846;;;;;;;;;;;;;;;
1642.0;1589.3;;;;-0.45491415;0.67086035;0.02361298;;;;;;;;;;;;;;;
1642.0;1589.3;;;;-0.45800406;0.6755982;0.02177048;;;;;;;;;;;;;;;
1643.0;1599.4;;;;-0.46091086;0.6812592;0.020229341;;;;;;;;;;;;;;;
1643.0;1599.4;;;;-0.46358114;0.68744284;0.018890383;;;;;;;;;;;;;;;
1643.0;1599.4;;;;-0.46696478;0.6950188;0.017478945;;;;;;;;;;;;;;;
1643.0;1599.4;;;;-0.47066504;0.7033768;0.016170504;;;;;;;;;;;;;;;
1643.0;1599.4;;;;-0.47474295;0.7128487;0.014472963;;;;;;;;;;;;;;;
1643.0;1601.3;;;;;;;;;;;;;;;;;67.23991;-37.446213;-11.745811;;1505.3
1643.0;1601.3;;;;;;;;;;;;;;0.7394025;0.51496935;-0.71877193;;;;;1505.3
1643.0;1601.3;;;;;;;;;;;;;;;;;51.633503;-35.611286;-11.780145;;1505.3
1643.0;1601.3;;;;;;;;;;;;;;0.77468187;0.382519;-0.55885494;;;;;1505.3
1643.0;1601.3;;;;;;;;;;;;;;;;;35.50447;-32.147434;-11.177403;;1515.0
1643.0;1601.3;;;;;;;;;;;;;;0.78670615;0.2933439;-0.44721824;;;;;1515.0
1643.0;1601.3;;;;;;;;;;;;;;;;;18.841366;-28.897213;-9.262368;;1515.0
1643.0;1601.3;;;;;;;;;;;;;;0.75081635;0.20874661;-0.3988769;;;;;1515.0
1643.0;1601.3;;;;;;;;;;;;;;;;;3.627888;-27.058474;-7.5037384;;1524.7
1643.0;1601.3;;;;;;;;;;;;;;0.6814173;0.17993714;-0.40070802;;;;;1524.7
1643.0;1601.3;;;;;;;;;;;;;;;;;-9.872738;-24.609364;-5.996887;;1524.7
1643.0;1601.3;;;;;;;;;;;;;;0.62807095;0.16034424;-0.4455092;;;;;1524.7
1643.0;1601.4;262143;262143;14628;;;;;;;;;;;;;;;;;;
1643.0;1607.3;;;;;;;;;;;;;2894;;;;;;;;
1643.0;1607.3;;;;;;;;;;;;;2531;;;;;;;;
1643.0;1607.3;;;;;;;;;;;;;2166;;;;;;;;
1643.0;1607.3;;;;;;;;;;;;;2019;;;;;;;;
1643.0;1607.3;;;;;;;;;;;;;2028;;;;;;;;
1698.0;1608.8;;;;;;;;;;;;;;;;;-22.61803;-20.519882;-4.341258;;1534.3
1698.0;1608.8;;;;;;;;;;;;;;0.5398724;0.15204321;-0.45973083;;;;;1534.3
1698.0;1608.8;;;;;;;;;;;;;;;;;-35.21836;-19.497513;-1.8387402;;1534.3
1698.0;1608.8;;;;;;;;;;;;;;0.45808282;0.11627552;-0.50019836;;;;;1534.3
1698.0;1608.8;;;;;;;;;;;;;;;;;-50.15717;-22.190771;1.1520737;;1544.0
1698.0;1608.8;;;;;;;;;;;;;;0.41724905;0.074648276;-0.4865871;;;;;1544.0
1698.0;1608.8;;;;;;;;;;;;;;;;;-69.71572;-25.448622;5.203406;;1544.0
1698.0;1608.8;;;;;;;;;;;;;;0.42298654;-0.01574755;-0.39558092;;;;;1544.0
1698.0;1608.8;;;;;;;;;;;;;;;;;-92.57027;-27.665028;10.23133;;1553.6
1698.0;1608.8;;;;;;;;;;;;;;0.50703454;-0.17908262;-0.30365917;;;;;1553.6
1698.0;1608.8;;;;;;;;;;;;;;;;;-113.155;-28.427992;16.579182;;1553.6
1698.0;1608.8;;;;;;;;;;;;;;0.6176946;-0.36890775;-0.28601947;;;;;1553.6
1698.0;1609.3;;;;-0.47910315;0.72334296;0.012134554;;;;;;;;;;;;;;;
1698.0;1609.3;;;;-0.48363882;0.7357102;0.010116578;;;;;;;;;;;;;;;
1698.0;1609.3;;;;-0.48876196;0.74924093;0.007846833;;;;;;;;;;;;;;;
1698.0;1609.3;;;;-0.49343115;0.7632791;0.0057487492;;;;;;;;;;;;;;;
1698.0;1609.3;;;;-0.49794012;0.7782632;0.0032386784;;;;;;;;;;;;;;;
1698.0;1619.3;;;;-0.5031281;0.7940637;0.0018730166;;;;;;;;;;;;;;;
1698.0;1619.3;;;;-0.5087243;0.8107339;2.6702884E-4;;;;;;;;;;;;;;;
1698.0;1619.3;;;;-0.51448065;0.8281442;-0.0014495851;;;;;;;;;;;;;;;
1698.0;1619.3;;;;-0.5206452;0.8456842;-0.0026435854;;;;;;;;;;;;;;;
1698.0;1619.3;;;;-0.5284577;0.8639566;-0.0034866338;;;;;;;;;;;;;;;
1698.0;1621.4;262143;262143;14628;;;;;;;;;;;;;;;;;;
1760.0;1629.2;;;;-0.5368653;0.8816644;-0.004127503;;;;;;;;;;;;;;;
1760.0;1629.2;;;;-0.54655844;0.900303;-0.0037651067;;;;;;;;;;;;;;;
1760.0;1629.2;;;;-0.55658346;0.9186021;-0.0034675603;;;;;;;;;;;;;;;
1760.0;1629.2;;;;-0.56719977;0.9373933;-0.003231049;;;;;;;;;;;;;;;
1760.0;1629.2;;;;-0.5790139;0.95684826;-9.002687E-4;;;;;;;;;;;;;;;
1760.0;1639.2;;;;-0.589058;0.97698224;-2.1743777E-4;;;;;;;;;;;;;;;
1760.0;1639.2;;;;-0.59896857;0.99709713;0.0010185243;;;;;;;;;;;;;;;
1760.0;1639.2;;;;-0.6099778;1.0178872;0.0049667363;;;;;;;;;;;;;;;
1760.0;1639.2;;;;-0.6206818;1.0384256;0.008129121;;;;;;;;;;;;;;;
1760.0;1639.2;;;;-0.63093954;1.0592881;0.011142732;;;;;;;;;;;;;;;
1760.0;1641.4;262143;262143;14629;;;;;;;;;;;;;;;;;;
1760.0;1647.3;;;;;;;;;;;;;2015;;;;;;;;
1760.0;1647.3;;;;;;;;;;;;;1834;;;;;;;;
1760.0;1647.3;;;;;;;;;;;;;1363;;;;;;;;
1760.0;1647.3;;;;;;;;;;;;;821;;;;;;;;
1760.0;1647.3;;;;;;;;;;;;;712;;;;;;;;
1760.0;1649.3;;;;-0.640091;1.0805017;0.015388491;;;;;;;;;;;;;;;
1760.0;1649.3;;;;-0.64960486;1.1016351;0.02030182;;;;;;;;;;;;;;;
1760.0;1649.3;;;;-0.6591645;1.1231805;0.026027683;;;;;;;;;;;;;;;
1760.0;1649.3;;;;-0.66823965;1.1448594;0.031829838;;;;;;;;;;;;;;;
1760.0;1649.3;;;;-0.67763907;1.1667863;0.037754063;;;;;;;;;;;;;;;
1762.0;1659.4;;;;-0.6868821;1.1895181;0.044731144;;;;;;;;;;;;;;;
1762.0;1659.4;;;;-0.6973992;1.2123262;0.052616127;;;;;;;;;;;;;;;
1762.0;1659.4;;;;-0.708046;1.2358819;0.06009675;;;;;;;;;;;;;;;
1762.0;1659.4;;;;-0.71863943;1.2600595;0.06766511;;;;;;;;;;;;;;;
1762.0;1659.4;;;;-0.729435;1.2852212;0.07453156;;;;;;;;;;;;;;;
1762.0;1661.4;;;;;;;;;;;;;;;;;-124.22941;-30.835138;24.033327;;1563.2
1762.0;1661.4;;;;;;;;;;;;;;0.82827234;-0.5546434;-0.21259193;;;;;1563.2
1762.0;1661.4;;;;;;;;;;;;;;;;;-124.988556;-33.017212;32.124546;;1563.2
1762.0;1661.4;;;;;;;;;;;;;;1.137669;-0.7107761;0.0076906644;;;;;1563.2
1762.0;1661.4;;;;;;;;;;;;;;;;;-124.988556;-33.51314;38.81573;;1572.8
1762.0;1661.4;;;;;;;;;;;;;;1.4439528;-0.84609514;0.37635425;;;;;1572.8
1762.0;1661.4;;;;;;;;;;;;;;;;;-121.83752;-33.310955;39.338356;;1572.8
1762.0;1661.4;;;;;;;;;;;;;;1.7072664;-0.85421306;0.6598712;;;;;1572.8
1762.0;1661.4;;;;;;;;;;;;;;;;;-82.03375;-20.847958;36.713768;;1582.3
1762.0;1661.4;;;;;;;;;;;;;;1.8073672;-0.65517133;0.6929533;;;;;1582.3
1762.0;1661.4;;;;;;;;;;;;;;;;;-9.674368;-5.33311;30.964842;;1582.3
1762.0;1661.4;;;;;;;;;;;;;;1.8041933;-0.35389262;0.42793053;;;;;1582.3
1762.0;1661.5;262143;262143;14632;;;;;;;;;;;;;;;;;;
1766.0;1669.3;;;;;;;;;;;;;;;;;60.91113;5.565813;24.277475;;1591.9
1766.0;1669.3;;;;;;;;;;;;;;1.6694845;0.16705832;-0.06915494;;;;;1591.9
1766.0;1669.3;;;;;;;;;;;;;;;;;90.59038;7.4312572;18.684958;;1591.9
1766.0;1669.3;;;;;;;;;;;;;;1.157445;0.52864164;-0.65303504;;;;;1591.9
1766.0;1669.3;;;;;;;;;;;;;;;;;101.7983;-10.471663;9.903256;;1601.6
1766.0;1669.3;;;;;;;;;;;;;;0.76760155;0.85799736;-1.0653402;;;;;1601.6
1766.0;1669.3;;;;;;;;;;;;;;;;;110.49608;-40.238655;3.707999;;1601.6
1766.0;1669.3;;;;;;;;;;;;;;0.6025575;1.1073335;-1.1394391;;;;;1601.6
1766.0;1669.3;;;;;;;;;;;;;;;;;82.12149;-63.348793;4.2611465;;1611.2
1766.0;1669.3;;;;;;;;;;;;;;0.62300485;1.2621845;-0.9978942;;;;;1611.2
1766.0;1669.3;;;;;;;;;;;;;;;;;-0.6027406;-69.56694;14.133884;;1611.2
1766.0;1669.3;;;;;;;;;;;;;;0.75661486;1.1144139;-0.80538344;;;;;1611.2
1766.0;1669.3;;;;-0.7409783;1.3104211;0.08099366;;;;;;;;;;;;;;;
1766.0;1669.3;;;;-0.75312054;1.3365442;0.0881424;;;;;;;;;;;;;;;
1766.0;1669.3;;;;-0.7635118;1.363022;0.093471535;;;;;;;;;;;;;;;
1766.0;1669.3;;;;-0.7740022;1.3885423;0.097778335;;;;;;;;;;;;;;;
1766.0;1669.3;;;;-0.7843591;1.4135057;0.10151674;;;;;;;;;;;;;;;
1766.0;1679.3;;;;-0.79504025;1.4382364;0.1060753;;;;;;;;;;;;;;;
1766.0;1679.3;;;;-0.80547726;1.4617654;0.10847475;;;;;;;;;;;;;;;
1766.0;1679.3;;;;-0.814808;1.4835054;0.11055757;;;;;;;;;;;;;;;
1766.0;1679.3;;;;-0.82471097;1.5028841;0.111503616;;;;;;;;;;;;;;;
1766.0;1679.3;;;;-0.83226025;1.5197947;0.11256792;;;;;;;;;;;;;;;
1766.0;1681.6;262143;262143;14633;;;;;;;;;;;;;;;;;;
1767.0;1687.5;;;;;;;;;;;;;1007;;;;;;;;
1767.0;1687.5;;;;;;;;;;;;;1152;;;;;;;;
1767.0;1687.5;;;;;;;;;;;;;867;;;;;;;;
1767.0;1687.5;;;;;;;;;;;;;446;;;;;;;;
1767.0;1687.5;;;;;;;;;;;;;336;;;;;;;;
1767.0;1689.2;;;;-0.83740246;1.5350497;0.11399843;;;;;;;;;;;;;;;
1767.0;1689.2;;;;-0.8418008;1.5463374;0.11386873;;;;;;;;;;;;;;;
1767.0;1689.2;;;;-0.8461381;1.5543864;0.113151565;;;;;;;;;;;;;;;
1767.0;1689.2;;;;-0.8494493;1.5593913;0.11206438;;;;;;;;;;;;;;;
1767.0;1689.2;;;;-0.8506166;1.5608523;0.110137954;;;;;;;;;;;;;;;
1767.0;1699.3;;;;-0.85022366;1.5598261;0.10739137;;;;;;;;;;;;;;;
1767.0;1699.3;;;;-0.84946454;1.5558283;0.10258104;;;;;;;;;;;;;;;
1767.0;1699.3;;;;-0.8483201;1.5499384;0.098175064;;;;;;;;;;;;;;;
1767.0;1699.3;;;;-0.84725964;1.5418704;0.0948372;;;;;;;;;;;;;;;
1767.0;1699.3;;;;-0.8452989;1.5322878;0.090477;;;;;;;;;;;;;;;
1767.0;1701.6;262143;262143;14628;;;;;;;;;;;;;;;;;;
1767.0;1709.4;;;;-0.841591;1.521622;0.08636475;;;;;;;;;;;;;;;
1767.0;1709.4;;;;-0.8362924;1.5106661;0.08176423;;;;;;;;;;;;;;;
1767.0;1709.4;;;;-0.82958615;1.499672;0.07763291;;;;;;;;;;;;;;;
1767.0;1709.4;;;;-0.82234204;1.4890596;0.07231522;;;;;;;;;;;;;;;
1767.0;1709.4;;;;-0.81375515;1.4795266;0.06775666;;;;;;;;;;;;;;;
1770.0;1719.5;;;;-0.80513394;1.4705163;0.062370308;;;;;;;;;;;;;;;
1770.0;1719.5;;;;-0.7950517;1.4620286;0.056846626;;;;;;;;;;;;;;;
1770.0;1719.5;;;;-0.784649;1.4545938;0.05207444;;;;;;;;;;;;;;;
1770.0;1719.5;;;;-0.7742692;1.4474221;0.04642487;;;;;;;;;;;;;;;
1770.0;1719.5;;;;-0.7631837;1.4409486;0.041538242;;;;;;;;;;;;;;;
1770.0;1721.5;;;;;;;;;;;;;;;;;-67.04154;-64.47417;20.371105;;1620.9
1770.0;1721.5;;;;;;;;;;;;;;1.112827;0.5517747;-0.5238807;;;;;1620.9
1770.0;1721.5;;;;;;;;;;;;;;;;;-83.26212;-39.151432;15.804773;;1620.9
1770.0;1721.5;;;;;;;;;;;;;;1.5059664;0.40473646;-0.021240883;;;;;1620.9
1770.0;1721.5;;;;;;;;;;;;;;;;;-80.35142;-7.0078125;9.853663;;1630.5
1770.0;1721.5;;;;;;;;;;;;;;1.5494248;0.064760275;0.11749626;;;;;1630.5
1770.0;1721.5;;;;;;;;;;;;;;;;;-76.044495;10.170293;3.2807398;;1630.5
1770.0;1721.5;;;;;;;;;;;;;;1.3725394;-0.012634663;-0.15497299;;;;;1630.5
1770.0;1721.5;;;;;;;;;;;;;;;;;-73.41609;4.974517;0.9537034;;1640.2
1770.0;1721.5;;;;;;;;;;;;;;1.2767113;0.041322064;-0.40784937;;;;;1640.2
1770.0;1721.5;;;;;;;;;;;;;;;;;-59.4348;-5.8175907;0.40055543;;1640.2
1770.0;1721.5;;;;;;;;;;;;;;1.274636;0.025269326;-0.4707175;;;;;1640.2
1770.0;1721.8;262143;262143;14629;;;;;;;;;;;;;;;;;;
1770.0;1727.6;;;;;;;;;;;;;582;;;;;;;;
1770.0;1727.6;;;;;;;;;;;;;773;;;;;;;;
1770.0;1727.6;;;;;;;;;;;;;605;;;;;;;;
1770.0;1727.6;;;;;;;;;;;;;238;;;;;;;;
1770.0;1727.6;;;;;;;;;;;;;-127;;;;;;;;
1771.0;1729.1;;;;;;;;;;;;;;;;;-40.65447;-7.534257;0.28611103;;1649.9
1771.0;1729.1;;;;;;;;;;;;;;1.295877;0.018494217;-0.33832818;;;;;1649.9
1771.0;1729.1;;;;;;;;;;;;;;;;;-29.492325;1.5793328;0.3128147;;1649.9
1771.0;1729.1;;;;;;;;;;;;;;1.2146367;-0.08191168;-0.20551164;;;;;1649.9
1771.0;1729.1;;;;;;;;;;;;;;;;;-24.277475;12.48207;1.392407;;1659.5
1771.0;1729.1;;;;;;;;;;;;;;1.1106906;-0.2036195;-0.16309091;;;;;1659.5
1771.0;1729.1;;;;;;;;;;;;;;;;;-18.127995;15.438551;5.3903317;;1659.5
1771.0;1729.1;;;;;;;;;;;;;;1.0130314;-0.32691428;-0.2611774;;;;;1659.5
1771.0;1729.1;;;;;;;;;;;;;;;;;-6.9887385;12.974181;11.349071;;1669.2
1771.0;1729.1;;;;;;;;;;;;;;0.9419843;-0.37519455;-0.36201057;;;;;1669.2
1771.0;1729.1;;;;;;;;;;;;;;;;;4.0437026;7.442702;17.788475;;1669.2
1771.0;1729.1;;;;;;;;;;;;;;0.86629844;-0.33429974;-0.49470505;;;;;1669.2
1771.0;1729.3;;;;-0.75169766;1.4341317;0.03759766;;;;;;;;;;;;;;;
1771.0;1729.3;;;;-0.7394257;1.4278184;0.033916477;;;;;;;;;;;;;;;
1771.0;1729.3;;;;-0.7272988;1.4211236;0.030887607;;;;;;;;;;;;;;;
1771.0;1729.3;;;;-0.71430594;1.4137422;0.028362278;;;;;;;;;;;;;;;
1771.0;1729.3;;;;-0.70104605;1.4058458;0.026630405;;;;;;;;;;;;;;;
1771.0;1737.9;;;;;;;;;;-0.110629596;17.124699;-3.3951843;;;;;;;;;
1771.0;1737.9;;;;;;;0.39912108;-0.8628193;0.47529528;;;;;;;;;;;;
1771.0;1737.9;;;;;;;;;;6.5347757;33.406326;9.32722;;;;;;;;;
1771.0;1737.9;;;;;;;0.43336284;-0.9492477;0.5330363;;;;;;;;;;;;
1818.0;1739.3;;;;-0.68692404;1.397709;0.024803165;;;;;;;;;;;;;;;
1818.0;1739.3;;;;-0.67262274;1.3882562;0.024475101;;;;;;;;;;;;;;;
1818.0;1739.3;;;;-0.6585656;1.3778497;0.024509434;;;;;;;;;;;;;;;
1818.0;1739.3;;;;-0.6448594;1.3669587;0.02411652;;;;;;;;;;;;;;;
1818.0;1739.3;;;;-0.631115;1.3550225;0.024974827;;;;;;;;;;;;;;;
1818.0;1741.8;262143;262143;14632;;;;;;;;;;;;;;;;;;
1818.0;1747.5;;;;;;;;;;0.011444441;9.92233;4.5243692;;;;;;;;;
1818.0;1747.5;;;;;;;0.41328165;-0.9391766;0.5274209;;;;;;;;;;;;
1818.0;1747.5;;;;;;;;;;0.98803675;35.13825;11.963256;;;;;;;;;
1818.0;1747.5;;;;;;;0.3859981;-0.9416181;0.51930296;;;;;;;;;;;;
1818.0;1749.4;;;;-0.617611;1.3419763;0.026226047;;;;;;;;;;;;;;;
1818.0;1749.4;;;;-0.60392386;1.3279535;0.02764893;;;;;;;;;;;;;;;
1818.0;1749.4;;;;-0.5908471;1.3139459;0.02820969;;;;;;;;;;;;;;;
1818.0;1749.4;;;;-0.5773507;1.2989503;0.030895237;;;;;;;;;;;;;;;
1818.0;1749.4;;;;-0.56485754;1.2835046;0.03295136;;;;;;;;;;;;;;;
1818.0;1756.6;;;;;;;;;;-1.8120365;51.904354;12.150182;;;;;;;;;
1818.0;1756.6;;;;;;;0.35670033;-0.95486313;0.5075228;;;;;;;;;;;;
1818.0;1756.6;;;;;;;;;;-9.117405;31.979584;-12.108219;;;;;;;;;
1818.0;1756.6;;;;;;;0.32575458;-0.9781793;0.49244666;;;;;;;;;;;;
1821.0;1759.0;;;;-0.5521851;1.268612;0.0355835;;;;;;;;;;;;;;;
1821.0;1759.0;;;;-0.5402222;1.2528993;0.037933353;;;;;;;;;;;;;;;
1821.0;1759.0;;;;-0.5291596;1.236847;0.0394249;;;;;;;;;;;;;;;
1821.0;1759.0;;;;-0.5195771;1.2211648;0.039642338;;;;;;;;;;;;;;;
1821.0;1759.0;;;;-0.5116616;1.2050744;0.041103367;;;;;;;;;;;;;;;
1821.0;1761.5;262143;262143;14621;;;;;;;;;;;;;;;;;;
1821.0;1766.2;;;;;;;;;;-10.860775;46.69332;-16.415144;;;;;;;;;
1821.0;1766.2;;;;;;;0.2976165;-1.0039979;0.47920164;;;;;;;;;;;;
1821.0;1766.2;;;;;;;;;;-11.46733;60.766167;-22.343363;;;;;;;;;
1821.0;1766.2;;;;;;;0.26996672;-1.0309763;0.4621723;;;;;;;;;;;;
1821.0;1767.4;;;;;;;;;;;;;-459;;;;;;;;
1821.0;1767.4;;;;;;;;;;;;;-582;;;;;;;;
1821.0;1767.4;;;;;;;;;;;;;-232;;;;;;;;
1821.0;1767.4;;;;;;;;;;;;;447;;;;;;;;
1821.0;1767.4;;;;;;;;;;;;;923;;;;;;;;
1821.0;1769.2;;;;-0.50565344;1.1886827;0.04205704;;;;;;;;;;;;;;;
1821.0;1769.2;;;;-0.4983521;1.1728555;0.04428101;;;;;;;;;;;;;;;
1821.0;1769.2;;;;-0.4868737;1.1578866;0.04842759;;;;;;;;;;;;;;;
1821.0;1769.2;;;;-0.47870642;1.1429635;0.052345283;;;;;;;;;;;;;;;
1821.0;1769.2;;;;-0.47344214;1.1280175;0.053913124;;;;;;;;;;;;;;;
1821.0;1775.9;;;;;;;;;;-11.066774;79.580826;-23.903624;;;;;;;;;
1821.0;1775.9;;;;;;;0.24835964;-1.0525833;0.44843897;;;;;;;;;;;;
1821.0;1775.9;;;;;;;;;;-8.957183;89.64049;-23.735771;;;;;;;;;
1821.0;1775.9;;;;;;;0.23053682;-1.0693686;0.43433943;;;;;;;;;;;;
1824.0;1779.3;;;;-0.468319;1.1130868;0.056316383;;;;;;;;;;;;;;;
1824.0;1779.3;;;;-0.4632302;1.0979806;0.05924607;;;;;;;;;;;;;;;
1824.0;1779.3;;;;-0.45916373;1.0834123;0.061428078;;;;;;;;;;;;;;;
1824.0;1779.3;;;;-0.45268255;1.0699044;0.06623841;;;;;;;;;;;;;;;
1824.0;1779.3;;;;-0.44821173;1.0572664;0.07135392;;;;;;;;;;;;;;;
1824.0;1781.9;;;;;;;;;;;;;;;;;10.643331;-0.6027406;25.299845;;1678.9
1824.0;1781.9;;;;;;;;;;;;;;0.8427381;-0.26996672;-0.6065249;;;;;1678.9
1824.0;1781.9;;;;;;;;;;;;;;;;;15.44618;-5.6802573;32.296215;;1678.9
1824.0;1781.9;;;;;;;;;;;;;;0.8679464;-0.20453505;-0.6481521;;;;;1678.9
1824.0;1781.9;;;;;;;;;;;;;;;;;17.90292;-7.065035;38.068027;;1688.5
1824.0;1781.9;;;;;;;;;;;;;;0.90676594;-0.19623402;-0.6662801;;;;;1688.5
1824.0;1781.9;;;;;;;;;;;;;;;;;20.45503;-7.213813;42.61147;;1688.5
1824.0;1781.9;;;;;;;;;;;;;;0.9631031;-0.15356915;-0.65956604;;;;;1688.5
1824.0;1781.9;;;;;;;;;;;;;;;;;23.846401;-8.697775;46.53691;;1698.2
1824.0;1781.9;;;;;;;;;;;;;;1.0032655;-0.068544574;-0.6781823;;;;;1698.2
1824.0;1781.9;;;;;;;;;;;;;;;;;25.1854;-9.346293;51.396984;;1698.2
1824.0;1781.9;;;;;;;;;;;;;;1.022126;-0.013245033;-0.68318737;;;;;1698.2
1824.0;1781.7;262143;262143;14623;;;;;;;;;;;;;;;;;;
1825.0;1783.0;;;;;;;;;;;;;;;;;23.602253;-10.151219;56.33335;;1707.9
1825.0;1783.0;;;;;;;;;;;;;;1.0103458;0.040040284;-0.69753104;;;;;1707.9
1825.0;1783.0;;;;;;;;;;;;;;;;;19.657734;-11.440626;60.12528;;1707.9
1825.0;1783.0;;;;;;;;;;;;;;0.9836116;0.08496353;-0.71749014;;;;;1707.9
1825.0;1783.0;;;;;;;;;;;;;;;;;14.725182;-12.710959;63.596756;;1717.4
1825.0;1783.0;;;;;;;;;;;;;;0.9729911;0.093142495;-0.70992154;;;;;1717.4
1825.0;1783.0;;;;;;;;;;;;;;;;;10.776849;-13.61507;66.347244;;1717.4
1825.0;1783.0;;;;;;;;;;;;;;1.0035096;0.07605213;-0.66493726;;;;;1717.4
1825.0;1783.0;;;;;;;;;;;;;;;;;8.049257;-12.676625;67.38869;;1727.1
1825.0;1783.0;;;;;;;;;;;;;;1.0019226;0.0270394;-0.58937347;;;;;1727.1
1825.0;1783.0;;;;;;;;;;;;;;;;;6.2334056;-9.907071;66.63717;;1727.1
1825.0;1783.0;;;;;;;;;;;;;;0.97561574;0.104617454;-0.5305338;;;;;1727.1
1825.0;1785.3;;;;;;;;;;-6.0312204;88.47316;-28.592028;;;;;;;;;
1825.0;1785.3;;;;;;;0.21692556;-1.0823084;0.41828668;;;;;;;;;;;;
1825.0;1785.3;;;;;;;;;;-3.131962;86.53905;-33.18888;;;;;;;;;
1825.0;1785.3;;;;;;;0.20239876;-1.0854213;0.40137944;;;;;;;;;;;;
1825.0;1789.0;;;;-0.44382864;1.0442888;0.07577897;;;;;;;;;;;;;;;
1825.0;1789.0;;;;-0.4383164;1.031952;0.07923127;;;;;;;;;;;;;;;
1825.0;1789.0;;;;-0.43439108;1.0190316;0.08317185;;;;;;;;;;;;;;;
1825.0;1789.0;;;;-0.43127066;1.0059892;0.08646775;;;;;;;;;;;;;;;
1825.0;1789.0;;;;-0.42641836;0.99284756;0.091270454;;;;;;;;;;;;;;;
1825.0;1794.8;;;;;;;;;;-0.43870357;84.10902;-37.423325;;;;;;;;;
1825.0;1794.8;;;;;;;0.18811609;-1.0834681;0.38239694;;;;;;;;;;;;
1825.0;1794.8;;;;;;;;;;2.1362956;81.09531;-41.12369;;;;;;;;;
1825.0;1794.8;;;;;;;0.16815698;-1.0838953;0.36378065;;;;;;;;;;;;
1879.0;1799.0;;;;-0.42076117;0.9812738;0.097389236;;;;;;;;;;;;;;;
1879.0;1799.0;;;;-0.4157067;0.969185;0.10289003;;;;;;;;;;;;;;;
1879.0;1799.0;;;;-0.4115067;0.9568788;0.10731889;;;;;;;;;;;;;;;
1879.0;1799.0;;;;-0.40728766;0.9435617;0.11065294;;;;;;;;;;;;;;;
1879.0;1799.0;;;;-0.40157706;0.93111813;0.11554338;;;;;;;;;;;;;;;
1879.0;1801.6;262143;262143;14624;;;;;;;;;;;;;;;;;;
1879.0;1804.3;;;;;;;;;;4.8142953;77.83746;-44.488354;;;;;;;;;
1879.0;1804.3;;;;;;;0.14801477;-1.0838953;0.3483993;;;;;;;;;;;;
1879.0;1804.3;;;;;;;;;;7.3397017;74.19431;-47.490616;;;;;;;;;
1879.0;1804.3;;;;;;;0.12506485;-1.0876186;0.33478805;;;;;;;;;;;;
1879.0;1807.5;;;;;;;;;;;;;1050;;;;;;;;
1879.0;1807.5;;;;;;;;;;;;;1104;;;;;;;;
1879.0;1807.5;;;;;;;;;;;;;1159;;;;;;;;
1879.0;1807.5;;;;;;;;;;;;;1014;;;;;;;;
1879.0;1807.5;;;;;;;;;;;;;649;;;;;;;;
1879.0;1809.1;;;;-0.39813238;0.91783917;0.11860658;;;;;;;;;;;;;;;
1879.0;1809.1;;;;-0.39361578;0.90480053;0.12107088;;;;;;;;;;;;;;;
1879.0;1809.1;;;;-0.3898278;0.89244854;0.123748794;;;;;;;;;;;;;;;
1879.0;1809.1;;;;-0.38545233;0.87968457;0.12585832;;;;;;;;;;;;;;;
1879.0;1809.1;;;;-0.38101584;0.86599743;0.12687303;;;;;;;;;;;;;;;
1879.0;1813.7;;;;;;;;;;10.250404;69.719536;-50.202946;;;;;;;;;
1879.0;1813.7;;;;;;;0.09985656;-1.0957977;0.32032228;;;;;;;;;;;;
1879.0;1813.7;;;;;;;;;;13.077182;64.40169;-52.67113;;;;;;;;;
1879.0;1813.7;;;;;;;0.07538072;-1.1038545;0.30640584;;;;;;;;;;;;
1939.0;1819.1;;;;-0.37707907;0.8532411;0.12833788;;;;;;;;;;;;;;;
1939.0;1819.1;;;;-0.3744202;0.84167874;0.13051988;;;;;;;;;;;;;;;
1939.0;1819.1;;;;-0.3711243;0.82864773;0.1316414;;;;;;;;;;;;;;;
1939.0;1819.1;;;;-0.3678551;0.8154756;0.13297655;;;;;;;;;;;;;;;
1939.0;1819.1;;;;-0.36374286;0.8028337;0.13452913;;;;;;;;;;;;;;;
1939.0;1821.7;262143;262143;14621;;;;;;;;;;;;;;;;;;
1939.0;1823.4;;;;;;;;;;15.934477;58.0195;-54.8265;;;;;;;;;
1939.0;1823.4;;;;;;;0.04931791;-1.114719;0.29663992;;;;;;;;;;;;
1939.0;1823.4;;;;;;;;;;19.054995;50.336464;-56.539352;;;;;;;;;
1939.0;1823.4;;;;;;;0.025208289;-1.1210669;0.28534806;;;;;;;;;;;;
1939.0;1829.2;;;;-0.36226657;0.79019177;0.13488008;;;;;;;;;;;;;;;
1939.0;1829.2;;;;-0.36086276;0.7797433;0.13481905;;;;;;;;;;;;;;;
1939.0;1829.2;;;;-0.35920718;0.7676393;0.13496019;;;;;;;;;;;;;;;
1939.0;1829.2;;;;-0.35691074;0.7572557;0.1365204;;;;;;;;;;;;;;;
1939.0;1829.2;;;;-0.35361865;0.74672323;0.13840105;;;;;;;;;;;;;;;
1939.0;1833.0;;;;;;;;;;22.270882;41.077915;-57.94702;;;;;;;;;
1939.0;1833.0;;;;;;;0.0052491836;-1.1246681;0.27838984;;;;;;;;;;;;
1939.0;1833.0;;;;;;;;;;25.509659;30.587175;-58.942688;;;;;;;;;
1939.0;1833.0;;;;;;;-0.012390515;-1.1234474;0.2722251;;;;;;;;;;;;
1943.0;1839.3;;;;-0.34883502;0.73480994;0.13938142;;;;;;;;;;;;;;;
1943.0;1839.3;;;;-0.3461075;0.7241784;0.14029314;;;;;;;;;;;;;;;
1943.0;1839.3;;;;-0.34427646;0.712864;0.14081575;;;;;;;;;;;;;;;
1943.0;1839.3;;;;-0.34232333;0.70390326;0.14254381;;;;;;;;;;;;;;;
1943.0;1839.3;;;;-0.33955005;0.6947709;0.14343263;;;;;;;;;;;;;;;
1943.0;1841.7;;;;;;;;;;;;;;;;;3.0251474;-6.504257;66.64861;;1736.7
1943.0;1841.7;;;;;;;;;;;;;;0.94967496;0.13605152;-0.4753563;;;;;1736.7
1943.0;1841.7;;;;;;;;;;;;;;;;;-0.99185157;-3.4981842;67.15598;;1736.7
1943.0;1841.7;;;;;;;;;;;;;;0.93093663;0.09747612;-0.4177984;;;;;1736.7
1943.0;1841.7;;;;;;;;;;;;;;;;;-4.676962;-1.3657033;67.12928;;1746.4
1943.0;1841.7;;;;;;;;;;;;;;0.92458874;0.13855404;-0.36872464;;;;;1746.4
1943.0;1841.7;;;;;;;;;;;;;;;;;-11.455885;0.40818506;67.346725;;1746.4
1943.0;1841.7;;;;;;;;;;;;;;0.94912565;0.12524797;-0.33063754;;;;;1746.4
1943.0;1841.7;;;;;;;;;;;;;;;;;-18.879513;2.994629;66.64861;;1756.1
1943.0;1841.7;;;;;;;;;;;;;;0.9558397;0.14380322;-0.2779626;;;;;1756.1
1943.0;1841.7;;;;;;;;;;;;;;;;;-25.475325;4.7685175;67.08732;;1756.1
1943.0;1841.7;;;;;;;;;;;;;;0.9919126;0.13208412;-0.23450422;;;;;1756.1
1943.0;1842.5;;;;;;;;;;28.893398;19.245735;-59.724724;;;;;;;;;
1943.0;1842.5;;;;;;;-0.02722251;-1.1154516;0.2680746;;;;;;;;;;;;
1943.0;1842.5;;;;;;;;;;32.311474;7.4808497;-60.33509;;;;;;;;;
1943.0;1842.5;;;;;;;-0.038453322;-1.1059908;0.26746422;;;;;;;;;;;;
1943.0;1842.0;262143;262143;14621;;;;;;;;;;;;;;;;;;
1963.0;1847.7;;;;;;;;;;;;;505;;;;;;;;
1963.0;1847.7;;;;;;;;;;;;;907;;;;;;;;
1963.0;1847.7;;;;;;;;;;;;;1450;;;;;;;;
1963.0;1847.7;;;;;;;;;;;;;1580;;;;;;;;
1963.0;1847.7;;;;;;;;;;;;;1429;;;;;;;;
1963.0;1849.2;;;;-0.33624652;0.6851502;0.14422227;;;;;;;;;;;;;;;
1963.0;1849.2;;;;-0.33384708;0.67696005;0.14567186;;;;;;;;;;;;;;;
1963.0;1849.2;;;;-0.33176807;0.6690293;0.1462021;;;;;;;;;;;;;;;
1963.0;1849.2;;;;-0.33067706;0.66164786;0.14582445;;;;;;;;;;;;;;;
1963.0;1849.2;;;;-0.3293915;0.65433127;0.14528276;;;;;;;;;;;;;;;
1963.0;1852.1;;;;;;;;;;35.683765;-4.642628;-60.869167;;;;;;;;;
1963.0;1852.1;;;;;;;-0.041627247;-1.0929899;0.2705771;;;;;;;;;;;;
1963.0;1852.1;;;;;;;;;;38.89203;-16.907255;-61.34602;;;;;;;;;
1963.0;1852.1;;;;;;;-0.03955199;-1.07651;0.2680746;;;;;;;;;;;;
1963.0;1856.7;;;;;;;;;;;;;;;;;-31.983398;6.3135166;68.29279;;1765.8
1963.0;1856.7;;;;;;;;;;;;;;1.0108341;0.13086337;-0.22296824;;;;;1765.8
1963.0;1856.7;;;;;;;;;;;;;;;;;-38.232063;9.31196;67.74346;;1765.8
1963.0;1856.7;;;;;;;;;;;;;;1.0084536;0.17438276;-0.19019136;;;;;1765.8
1963.0;1856.7;;;;;;;;;;;;;;;;;-44.888912;9.029664;68.24702;;1775.5
1963.0;1856.7;;;;;;;;;;;;;;1.1346171;0.17584765;-0.20728172;;;;;1775.5
1963.0;1856.7;;;;;;;;;;;;;;;;;-49.142433;11.745811;73.07657;;1775.5
1963.0;1856.7;;;;;;;;;;;;;;1.0801722;0.11035493;-0.19940794;;;;;1775.5
1963.0;1856.7;;;;;;;;;;;;;;;;;-49.462875;13.7867365;76.60146;;1785.2
1963.0;1856.7;;;;;;;;;;;;;;1.0510575;0.10644856;-0.1843318;;;;;1785.2
1963.0;1856.7;;;;;;;;;;;;;;;;;-50.3708;14.519181;78.08542;;1785.2
1963.0;1856.7;;;;;;;;;;;;;;1.0159612;0.087343976;-0.1815241;;;;;1785.2
1972.0;1859.1;;;;-0.32798007;0.64741904;0.14527132;;;;;;;;;;;;;;;
1972.0;1859.1;;;;-0.32846454;0.6411362;0.14450075;;;;;;;;;;;;;;;
1972.0;1859.1;;;;-0.32838824;0.6358414;0.14401628;;;;;;;;;;;;;;;
1972.0;1859.1;;;;-0.32822803;0.63068396;0.14368059;;;;;;;;;;;;;;;
1972.0;1859.1;;;;-0.3290787;0.62616354;0.14300157;;;;;;;;;;;;;;;
1972.0;1861.5;;;;;;;;;;41.665394;-28.832361;-61.773277;;;;;;;;;
1972.0;1861.5;;;;;;;-0.031983398;-1.055208;0.263802;;;;;;;;;;;;
1972.0;1861.5;;;;;;;;;;43.984802;-39.80758;-62.112797;;;;;;;;;
1972.0;1861.5;;;;;;;-0.016724143;-1.0335399;0.25940734;;;;;;;;;;;;
1972.0;1861.9;262143;262143;14619;;;;;;;;;;;;;;;;;;
1972.0;1868.9;;;;-0.33021548;0.62147146;0.14115144;;;;;;;;;;;;;;;
1972.0;1868.9;;;;-0.3305016;0.61812216;0.1413231;;;;;;;;;;;;;;;
1972.0;1868.9;;;;-0.3327904;0.6143494;0.13900377;;;;;;;;;;;;;;;
1972.0;1868.9;;;;-0.33436206;0.610508;0.13718416;;;;;;;;;;;;;;;
1972.0;1868.9;;;;-0.33584598;0.6077576;0.13625337;;;;;;;;;;;;;;;
1972.0;1870.7;;;;;;;;;;46.2241;-49.80239;-62.295906;;;;;;;;;
1972.0;1870.7;;;;;;;-0.0021973327;-1.009186;0.25305948;;;;;;;;;;;;
1972.0;1870.7;;;;;;;;;;48.184914;-58.893093;-62.158573;;;;;;;;;
1972.0;1870.7;;;;;;;0.016479995;-0.98538166;0.24884793;;;;;;;;;;;;
1973.0;1878.9;;;;-0.33681872;0.605259;0.13546373;;;;;;;;;;;;;;;
1973.0;1878.9;;;;-0.3382149;0.60295874;0.13385774;;;;;;;;;;;;;;;
1973.0;1878.9;;;;-0.3403664;0.60067374;0.13204195;;;;;;;;;;;;;;;
1973.0;1878.9;;;;-0.34222415;0.5985604;0.13040163;;;;;;;;;;;;;;;
1973.0;1878.9;;;;-0.3435059;0.5968972;0.12806703;;;;;;;;;;;;;;;
1973.0;1880.3;;;;;;;;;;49.70702;-67.71676;-61.761833;;;;;;;;;
1973.0;1880.3;;;;;;;0.032227546;-0.9632252;0.24445327;;;;;;;;;;;;
1973.0;1880.3;;;;;;;;;;50.99643;-76.429794;-61.376537;;;;;;;;;
1973.0;1880.3;;;;;;;0.045167394;-0.941496;0.24585712;;;;;;;;;;;;
1973.0;1881.7;262143;262143;14611;;;;;;;;;;;;;;;;;;
1973.0;1887.6;;;;;;;;;;;;;1316;;;;;;;;
1973.0;1887.6;;;;;;;;;;;;;1200;;;;;;;;
1973.0;1887.6;;;;;;;;;;;;;1117;;;;;;;;
1973.0;1887.6;;;;;;;;;;;;;1146;;;;;;;;
1973.0;1887.6;;;;;;;;;;;;;1174;;;;;;;;
1973.0;1889.0;;;;-0.34505466;0.59462744;0.12630846;;;;;;;;;;;;;;;
1973.0;1889.0;;;;-0.34612277;0.5926781;0.12511446;;;;;;;;;;;;;;;
1973.0;1889.0;;;;-0.34679416;0.5911179;0.12339784;;;;;;;;;;;;;;;
1973.0;1889.0;;;;-0.34720996;0.5893441;0.122116104;;;;;;;;;;;;;;;
1973.0;1889.0;;;;-0.3469582;0.587349;0.12077333;;;;;;;;;;;;;;;
1973.0;1889.9;;;;;;;;;;52.35832;-84.82238;-61.090424;;;;;;;;;
1973.0;1889.9;;;;;;;0.053712577;-0.924955;0.24707785;;;;;;;;;;;;
1973.0;1889.9;;;;;;;;;;53.369244;-92.4749;-60.96835;;;;;;;;;
1973.0;1889.9;;;;;;;0.061708428;-0.9076205;0.24951933;;;;;;;;;;;;
1974.0;1899.2;;;;-0.34671786;0.5863686;0.1195717;;;;;;;;;;;;;;;
1974.0;1899.2;;;;-0.34645084;0.58476263;0.11867525;;;;;;;;;;;;;;;
1974.0;1899.2;;;;-0.34617236;0.5834084;0.11819841;;;;;;;;;;;;;;;
1974.0;1899.2;;;;-0.3453751;0.5823708;0.117683426;;;;;;;;;;;;;;;
1974.0;1899.2;;;;-0.34437183;0.5815354;0.1162758;;;;;;;;;;;;;;;
1974.0;1899.6;;;;;;;;;;54.044468;-99.345375;-61.048462;;;;;;;;;
1974.0;1899.6;;;;;;;0.07208472;-0.8906522;0.24811548;;;;;;;;;;;;
1974.0;1899.6;;;;;;;;;;54.387802;-105.3766;-61.372723;;;;;;;;;
1974.0;1899.6;;;;;;;0.08600116;-0.8725242;0.24671163;;;;;;;;;;;;
1974.0;1901.7;;;;;;;;;;;;;;;;;-50.359356;15.915403;77.23853;;1794.8
1974.0;1901.7;;;;;;;;;;;;;;0.98159736;0.054628134;-0.17407759;;;;;1794.8
1974.0;1901.7;;;;;;;;;;;;;;;;;-51.244392;16.49144;75.81561;;1794.8
1974.0;1901.7;;;;;;;;;;;;;;0.95394754;0.04382458;-0.16907254;;;;;1794.8
1974.0;1901.7;;;;;;;;;;;;;;;;;-51.862392;16.098515;74.35454;;1804.5
1974.0;1901.7;;;;;;;;;;;;;;0.94247264;0.023194067;-0.17804499;;;;;1804.5
1974.0;1901.7;;;;;;;;;;;;;;;;;-50.92776;15.747551;72.49672;;1804.5
1974.0;1901.7;;;;;;;;;;;;;;0.9139683;0.07086398;-0.18671224;;;;;1804.5
1974.0;1901.7;;;;;;;;;;;;;;;;;-51.358837;15.442366;70.6389;;1814.1
1974.0;1901.7;;;;;;;;;;;;;;0.89144564;0.018555254;-0.22064883;;;;;1814.1
1974.0;1901.7;;;;;;;;;;;;;;;;;-48.192543;15.129551;68.80398;;1814.1
1974.0;1901.7;;;;;;;;;;;;;;0.8750267;-0.09533983;-0.2755211;;;;;1814.1
1977.0;1902.4;;;;;;;;;;;;;;;;;-43.2638;16.4037;65.75594;;1823.7
1977.0;1902.4;;;;;;;;;;;;;;0.85842466;-0.14221625;-0.31183812;;;;;1823.7
1977.0;1902.4;;;;;;;;;;;;;;;;;-36.378063;17.017883;63.283943;;1823.7
1977.0;1902.4;;;;;;;;;;;;;;0.8440809;-0.14435256;-0.33582568;;;;;1823.7
1977.0;1902.4;;;;;;;;;;;;;;;;;-28.67214;16.731773;60.323647;;1833.3
1977.0;1902.4;;;;;;;;;;;;;;0.8146611;-0.023682363;-0.29853207;;;;;1833.3
1977.0;1902.4;;;;;;;;;;;;;;;;;-25.139622;13.7371435;58.671837;;1833.3
1977.0;1902.4;;;;;;;;;;;;;;0.768395;0.04895169;-0.2727134;;;;;1833.3
1977.0;1902.4;;;;;;;;;;;;;;;;;-20.855587;9.601887;57.550278;;1843.0
1977.0;1902.4;;;;;;;;;;;;;;0.8252205;-0.20172735;-0.38575396;;;;;1843.0
1977.0;1902.4;;;;;;;;;;;;;;;;;-9.3577385;11.0400715;54.033024;;1843.0
1977.0;1902.4;;;;;;;;;;;;;;0.77388835;-0.13574633;-0.4151738;;;;;1843.0
1977.0;1902.0;262143;262143;14616;;;;;;;;;;;;;;;;;;
1977.0;1908.9;;;;;;;;;;54.456467;-110.80508;-61.960205;;;;;;;;;
1977.0;1908.9;;;;;;;0.10443434;-0.8595233;0.24475844;;;;;;;;;;;;
1977.0;1908.9;;;;;;;;;;54.326763;-115.478226;-62.681206;;;;;;;;;
1977.0;1908.9;;;;;;;0.1248207;-0.8445082;0.2410352;;;;;;;;;;;;
1977.0;1909.0;;;;-0.3431702;0.58137137;0.11570741;;;;;;;;;;;;;;;
1977.0;1909.0;;;;-0.3418503;0.5812226;0.11537935;;;;;;;;;;;;;;;
1977.0;1909.0;;;;-0.34063724;0.5818024;0.114654556;;;;;;;;;;;;;;;
1977.0;1909.0;;;;-0.33866885;0.58247;0.11376192;;;;;;;;;;;;;;;
1977.0;1909.0;;;;-0.3366814;0.5838433;0.11306764;;;;;;;;;;;;;;;
1998.0;1918.5;;;;;;;;;;53.91858;-119.10993;-63.524277;;;;;;;;;
1998.0;1918.5;;;;;;;0.14398633;-0.8313242;0.23932615;;;;;;;;;;;;
1998.0;1918.5;;;;;;;;;;53.36543;-121.703995;-64.30631;;;;;;;;;
1998.0;1918.5;;;;;;;0.16364025;-0.8191778;0.23566394;;;;;;;;;;;;
1998.0;1919.0;;;;-0.3347359;0.5852967;0.111526504;;;;;;;;;;;;;;;
1998.0;1919.0;;;;-0.3322945;0.58772665;0.111129776;;;;;;;;;;;;;;;
1998.0;1919.0;;;;-0.32969287;0.5898896;0.11025621;;;;;;;;;;;;;;;
1998.0;1919.0;;;;-0.327446;0.5926247;0.10939027;;;;;;;;;;;;;;;
1998.0;1919.0;;;;-0.32488635;0.5958634;0.108440414;;;;;;;;;;;;;;;
1998.0;1921.9;262143;262143;14612;;;;;;;;;;;;;;;;;;
1998.0;1927.7;;;;;;;;;;;;;1097;;;;;;;;
1998.0;1927.7;;;;;;;;;;;;;907;;;;;;;;
1998.0;1927.7;;;;;;;;;;;;;688;;;;;;;;
1998.0;1927.7;;;;;;;;;;;;;526;;;;;;;;
1998.0;1927.7;;;;;;;;;;;;;635;;;;;;;;
1998.0;1928.1;;;;;;;;;;52.522354;-123.161255;-65.08454;;;;;;;;;
1998.0;1928.1;;;;;;;0.18127994;-0.8086184;0.23322245;;;;;;;;;;;;
1998.0;1928.1;;;;;;;;;;51.683094;-123.687706;-65.889465;;;;;;;;;
1998.0;1928.1;;;;;;;0.20044558;-0.7991577;0.227546;;;;;;;;;;;;
1998.0;1929.0;;;;-0.32243732;0.59992605;0.10803224;;;;;;;;;;;;;;;
1998.0;1929.0;;;;-0.31915286;0.6053582;0.106670395;;;;;;;;;;;;;;;
1998.0;1929.0;;;;-0.31531146;0.61141974;0.10594179;;;;;;;;;;;;;;;
1998.0;1929.0;;;;-0.31201556;0.618393;0.10586168;;;;;;;;;;;;;;;
1998.0;1929.0;;;;-0.3084946;0.62614447;0.105030075;;;;;;;;;;;;;;;
1999.0;1937.1;;;;;;;;;;50.618763;-123.71441;-66.70583;;;;;;;;;
1999.0;1937.1;;;;;;;0.21784112;-0.7891476;0.22425;;;;;;;;;;;;
1999.0;1937.1;;;;;;;;;;49.51628;-123.08115;-67.34291;;;;;;;;;
1999.0;1937.1;;;;;;;0.23242897;-0.7813959;0.21906187;;;;;;;;;;;;
1999.0;1938.6;;;;-0.30476764;0.6347428;0.104526535;;;;;;;;;;;;;;;
1999.0;1938.6;;;;-0.30095676;0.6447602;0.10453798;;;;;;;;;;;;;;;
1999.0;1938.6;;;;-0.29671863;0.65575796;0.104454055;;;;;;;;;;;;;;;
1999.0;1938.6;;;;-0.2926369;0.6680909;0.10391237;;;;;;;;;;;;;;;
1999.0;1938.6;;;;-0.2884293;0.68051916;0.10441591;;;;;;;;;;;;;;;
1999.0;1941.6;262143;262143;14614;;;;;;;;;;;;;;;;;;
1999.0;1946.7;;;;;;;;;;48.471024;-122.009186;-67.67098;;;;;;;;;
1999.0;1946.7;;;;;;;0.24073;-0.7743156;0.21546067;;;;;;;;;;;;
1999.0;1946.7;;;;;;;;;;47.34947;-120.19714;-67.640465;;;;;;;;;
1999.0;1946.7;;;;;;;0.24732201;-0.7680288;0.21338542;;;;;;;;;;;;
1999.0;1948.7;;;;-0.28359988;0.6937066;0.10453035;;;;;;;;;;;;;;;
1999.0;1948.7;;;;-0.27933887;0.7078896;0.10492326;;;;;;;;;;;;;;;
1999.0;1948.7;;;;-0.27484897;0.72240835;0.10530473;;;;;;;;;;;;;;;
1999.0;1948.7;;;;-0.2699814;0.73802954;0.1057625;;;;;;;;;;;;;;;
1999.0;1948.7;;;;-0.26591876;0.7525064;0.10469057;;;;;;;;;;;;;;;
1999.0;1956.3;;;;;;;;;;46.227913;-117.65267;-67.34291;;;;;;;;;
1999.0;1956.3;;;;;;;0.25122836;-0.7604602;0.20856349;;;;;;;;;;;;
1999.0;1956.3;;;;;;;;;;44.91943;-114.600815;-67.02628;;;;;;;;;
1999.0;1956.3;;;;;;;0.25940734;-0.75948364;0.20239876;;;;;;;;;;;;
2000.0;1958.8;;;;-0.26023486;0.7666894;0.10366441;;;;;;;;;;;;;;;
2000.0;1958.8;;;;-0.2560692;0.7830049;0.10373689;;;;;;;;;;;;;;;
2000.0;1958.8;;;;-0.25161746;0.79898465;0.10294725;;;;;;;;;;;;;;;
2000.0;1958.8;;;;-0.24757007;0.81500256;0.101051345;;;;;;;;;;;;;;;
2000.0;1958.8;;;;-0.24369815;0.8313447;0.09932329;;;;;;;;;;;;;;;
2000.0;1961.9;;;;;;;;;;;;;;;;;-0.8049257;10.85696;50.95828;;1852.6
2000.0;1961.9;;;;;;;;;;;;;;0.76546526;-0.08850368;-0.41242713;;;;;1852.6
2000.0;1961.9;;;;;;;;;;;;;;;;;3.0404067;9.670553;48.00943;;1852.6
2000.0;1961.9;;;;;;;;;;;;;;0.7696768;-0.04242073;-0.41834772;;;;;1852.6
2000.0;1961.9;;;;;;;;;;;;;;;;;7.702109;9.788812;45.957058;;1862.3
2000.0;1961.9;;;;;;;;;;;;;;0.7610096;0.014343699;-0.40369883;;;;;1862.3
2000.0;1961.9;;;;;;;;;;;;;;;;;10.704368;8.724479;44.541763;;1862.3
2000.0;1961.9;;;;;;;;;;;;;;0.75209814;0.07092502;-0.35364848;;;;;1862.3
2000.0;1961.9;;;;;;;;;;;;;;;;;11.482589;6.9963684;43.46599;;1871.9
2000.0;1961.9;;;;;;;;;;;;;;0.76528215;0.10217597;-0.33491012;;;;;1871.9
2000.0;1961.9;;;;;;;;;;;;;;;;;12.230293;6.1532946;44.087803;;1871.9
2000.0;1961.9;;;;;;;;;;;;;;0.7713248;0.15521714;-0.33332315;;;;;1871.9
2001.0;1962.7;;;;;;;;;;;;;;;;;10.982849;5.4589987;44.728687;;1881.5
2001.0;1962.7;;;;;;;;;;;;;;0.76491594;0.19049653;-0.3109836;;;;;1881.5
2001.0;1962.7;;;;;;;;;;;;;;;;;8.873257;4.5777764;45.08728;;1881.5
2001.0;1962.7;;;;;;;;;;;;;;0.765038;0.2111881;-0.29963073;;;;;1881.5
2001.0;1962.7;;;;;;;;;;;;;;;;;7.511368;3.6774805;43.496506;;1891.2
2001.0;1962.7;;;;;;;;;;;;;;0.78096867;0.22656941;-0.27808467;;;;;1891.2
2001.0;1962.7;;;;;;;;;;;;;;;;;6.023591;3.5706656;40.532394;;1891.2
2001.0;1962.7;;;;;;;;;;;;;;0.77266765;0.25977355;-0.25946838;;;;;1891.2
2001.0;1962.7;;;;;;;;;;;;;;;;;3.6507769;2.887814;40.810875;;1900.8
2001.0;1962.7;;;;;;;;;;;;;;0.85494554;0.18024231;-0.25861385;;;;;1900.8
2001.0;1962.7;;;;;;;;;;;;;;;;;1.5030366;2.8992584;41.104618;;1900.8
2001.0;1962.7;;;;;;;;;;;;;;0.88515884;0.2414014;-0.24756615;;;;;1900.8
2001.0;1961.8;262143;262143;14617;;;;;;;;;;;;;;;;;;
2001.0;1965.8;;;;;;;;;;43.542286;-111.00726;-67.17124;;;;;;;;;
2001.0;1965.8;;;;;;;0.26618245;-0.75478375;0.1953795;;;;;;;;;;;;
2001.0;1965.8;;;;;;;;;;42.218544;-106.875824;-67.28569;;;;;;;;;
2001.0;1965.8;;;;;;;0.27179784;-0.7511216;0.18512528;;;;;;;;;;;;
2001.0;1967.5;;;;;;;;;;;;;1157;;;;;;;;
2001.0;1967.5;;;;;;;;;;;;;1480;;;;;;;;
2001.0;1967.5;;;;;;;;;;;;;885;;;;;;;;
2001.0;1967.5;;;;;;;;;;;;;-283;;;;;;;;
2001.0;1967.5;;;;;;;;;;;;;-786;;;;;;;;
2002.0;1968.8;;;;-0.24089053;0.8463899;0.096218124;;;;;;;;;;;;;;;
2002.0;1968.8;;;;-0.23894122;0.861519;0.09285737;;;;;;;;;;;;;;;
2002.0;1968.8;;;;-0.23712543;0.87705624;0.08963395;;;;;;;;;;;;;;;
2002.0;1968.8;;;;-0.2354584;0.89281476;0.08696366;;;;;;;;;;;;;;;
2002.0;1968.8;;;;-0.23334125;0.9087945;0.084262855;;;;;;;;;;;;;;;
2002.0;1975.4;;;;;;;;;;40.898617;-102.038635;-67.17887;;;;;;;;;
2002.0;1975.4;;;;;;;0.27692497;-0.74636066;0.17761773;;;;;;;;;;;;
2002.0;1975.4;;;;;;;;;;39.613026;-96.66738;-66.90802;;;;;;;;;
2002.0;1975.4;;;;;;;0.28516495;-0.7428205;0.16840114;;;;;;;;;;;;
2002.0;1978.8;;;;-0.23167041;0.92548;0.08157731;;;;;;;;;;;;;;;
2002.0;1978.8;;;;-0.22877505;0.9421121;0.079658516;;;;;;;;;;;;;;;
2002.0;1978.8;;;;-0.22558978;0.95941937;0.07769013;;;;;;;;;;;;;;;
2002.0;1978.8;;;;-0.22223285;0.97766125;0.07587815;;;;;;;;;;;;;;;
2002.0;1978.8;;;;-0.21849826;0.9969102;0.073867805;;;;;;;;;;;;;;;
2002.0;1981.9;262143;262143;14623;;;;;;;;;;;;;;;;;;
2002.0;1985.0;;;;;;;;;;38.38847;-91.05197;-66.58758;;;;;;;;;
2002.0;1985.0;;;;;;;0.29377118;-0.7376934;0.15979491;;;;;;;;;;;;
2002.0;1985.0;;;;;;;;;;37.07999;-84.933014;-66.20991;;;;;;;;;
2002.0;1985.0;;;;;;;0.29682302;-0.7343364;0.15247047;;;;;;;;;;;;
2062.0;1988.6;;;;-0.21545032;1.016411;0.071868904;;;;;;;;;;;;;;;
2062.0;1988.6;;;;-0.21244052;1.0370103;0.06897355;;;;;;;;;;;;;;;
2062.0;1988.6;;;;-0.20884326;1.0581514;0.066135414;;;;;;;;;;;;;;;
2062.0;1988.6;;;;-0.20567706;1.0795709;0.06256104;;;;;;;;;;;;;;;
2062.0;1988.6;;;;-0.2028847;1.1012384;0.058013923;;;;;;;;;;;;;;;
2062.0;1994.1;;;;;;;;;;35.73336;-78.22275;-65.683464;;;;;;;;;
2062.0;1994.1;;;;;;;0.30133978;-0.727195;0.14185004;;;;;;;;;;;;
2062.0;1994.1;;;;;;;;;;34.310432;-71.157715;-65.08073;;;;;;;;;
2062.0;1994.1;;;;;;;0.30176702;-0.72292244;0.13483077;;;;;;;;;;;;
2062.0;1998.5;;;;-0.2005997;1.123726;0.053993233;;;;;;;;;;;;;;;
2062.0;1998.5;;;;-0.19808963;1.1459848;0.049198158;;;;;;;;;;;;;;;
2062.0;1998.5;;;;-0.19622424;1.1678964;0.044212345;;;;;;;;;;;;;;;
2062.0;1998.5;;;;-0.19512561;1.190468;0.039493565;;;;;;;;;;;;;;;
2062.0;1998.5;;;;-0.19373706;1.2125283;0.03514481;;;;;;;;;;;;;;;
2062.0;2001.6;262143;262143;14615;;;;;;;;;;;;;;;;;;
2062.0;2003.7;;;;;;;;;;32.773064;-64.04309;-64.283424;;;;;;;;;
2062.0;2003.7;;;;;;;0.30158392;-0.71828365;0.12549211;;;;;;;;;;;;
2062.0;2003.7;;;;;;;;;;31.273842;-56.722466;-63.367874;;;;;;;;;
2062.0;2003.7;;;;;;;0.2985931;-0.71413314;0.11780145;;;;;;;;;;;;
2062.0;2007.4;;;;;;;;;;;;;19;;;;;;;;
2062.0;2007.4;;;;;;;;;;;;;1281;;;;;;;;
2062.0;2007.4;;;;;;;;;;;;;1858;;;;;;;;
2062.0;2007.4;;;;;;;;;;;;;1660;;;;;;;;
2062.0;2007.4;;;;;;;;;;;;;1371;;;;;;;;
2063.0;2008.6;;;;-0.19288257;1.2341386;0.031074528;;;;;;;;;;;;;;;
2063.0;2008.6;;;;-0.192009;1.2557946;0.02669907;;;;;;;;;;;;;;;
2063.0;2008.6;;;;-0.19142535;1.2764474;0.022895815;;;;;;;;;;;;;;;
2063.0;2008.6;;;;-0.19087604;1.29591;0.018699648;;;;;;;;;;;;;;;
2063.0;2008.6;;;;-0.19004443;1.3148614;0.01564026;;;;;;;;;;;;;;;
2063.0;2013.3;;;;;;;;;;29.744102;-49.3141;-62.29972;;;;;;;;;
2063.0;2013.3;;;;;;;0.29493088;-0.70906705;0.112125;;;;;;;;;;;;
2063.0;2013.3;;;;;;;;;;28.248695;-42.05069;-61.09424;;;;;;;;;
2063.0;2013.3;;;;;;;0.28931546;-0.70601517;0.10614338;;;;;;;;;;;;
2063.0;2018.7;;;;-0.18985751;1.333027;0.013175966;;;;;;;;;;;;;;;
2063.0;2018.7;;;;-0.18928531;1.3502084;0.010993958;;;;;;;;;;;;;;;
2063.0;2018.7;;;;-0.18815234;1.3658143;0.010288239;;;;;;;;;;;;;;;
2063.0;2018.7;;;;-0.18683244;1.3805467;0.00927353;;;;;;;;;;;;;;;
2063.0;2018.7;;;;-0.18680955;1.3939248;0.008327485;;;;;;;;;;;;;;;
2064.0;2021.4;;;;;;;;;;;;;;;;;-1.6823329;3.543962;40.566727;;1910.5
2064.0;2021.4;;;;;;;;;;;;;;0.90029603;0.25928527;-0.26789147;;;;;1910.5
2064.0;2021.4;;;;;;;;;;;;;;;;;-2.3651845;3.2235177;40.334023;;1910.5
2064.0;2021.4;;;;;;;;;;;;;;0.9147618;0.2626423;-0.27283546;;;;;1910.5
2064.0;2021.4;;;;;;;;;;;;;;;;;-3.154851;3.9902954;38.907288;;1920.2
2064.0;2021.4;;;;;;;;;;;;;;0.93295085;0.27246925;-0.26392406;;;;;1920.2
2064.0;2021.4;;;;;;;;;;;;;;;;;-5.0660725;5.8175907;37.81625;;1920.2
2064.0;2021.4;;;;;;;;;;;;;;0.92855614;0.28351694;-0.2628254;;;;;1920.2
2064.0;2021.4;;;;;;;;;;;;;;;;;-9.842219;6.2334056;36.58788;;1929.5
2064.0;2021.4;;;;;;;;;;;;;;0.9250771;0.29486984;-0.2796716;;;;;1929.5
2064.0;2021.4;;;;;;;;;;;;;;;;;-15.812403;5.6611834;36.3361;;1929.5
2064.0;2021.4;;;;;;;;;;;;;;0.9351482;0.28296763;-0.30689412;;;;;1929.5
2064.0;2022.3;;;;;;;;;;;;;;;;;-20.935698;5.1461835;36.008026;;1939.2
2064.0;2022.3;;;;;;;;;;;;;;0.95486313;0.28302866;-0.3154393;;;;;1939.2
2064.0;2022.3;;;;;;;;;;;;;;;;;-23.991364;5.512406;35.68758;;1939.2
2064.0;2022.3;;;;;;;;;;;;;;0.97555465;0.267098;-0.30530718;;;;;1939.2
2064.0;2022.3;;;;;;;;;;;;;;;;;-24.182104;5.8633685;35.06958;;1948.9
2064.0;2022.3;;;;;;;;;;;;;;0.99270606;0.2624592;-0.30426955;;;;;1948.9
2064.0;2022.3;;;;;;;;;;;;;;;;;-22.965178;5.7451096;34.40962;;1948.9
2064.0;2022.3;;;;;;;;;;;;;;0.9997864;0.260506;-0.32703635;;;;;1948.9
2064.0;2022.3;;;;;;;;;;;;;;;;;-20.687735;4.9859614;33.833584;;1958.5
2064.0;2022.3;;;;;;;;;;;;;;1.0130314;0.24439223;-0.3501694;;;;;1958.5
2064.0;2022.3;;;;;;;;;;;;;;;;;-17.38792;4.8486285;33.471176;;1958.5
2064.0;2022.3;;;;;;;;;;;;;;1.019013;0.24317148;-0.3598132;;;;;1958.5
2066.0;2021.8;262143;262143;14618;;;;;;;;;;;;;;;;;;
2066.0;2022.7;;;;;;;;;;26.734215;-34.970394;-59.835354;;;;;;;;;
2066.0;2022.7;;;;;;;0.28241828;-0.7003388;0.10235908;;;;;;;;;;;;
2066.0;2022.7;;;;;;;;;;25.0824;-28.069399;-58.49254;;;;;;;;;
2066.0;2022.7;;;;;;;0.2747276;-0.6959441;0.097170934;;;;;;;;;;;;
2066.0;2028.5;;;;-0.1857834;1.4058725;0.007266999;;;;;;;;;;;;;;;
2066.0;2028.5;;;;-0.18630983;1.416752;0.0066604624;;;;;;;;;;;;;;;
2066.0;2028.5;;;;-0.18671037;1.4260713;0.0057601933;;;;;;;;;;;;;;;
2066.0;2028.5;;;;-0.18844607;1.4351732;0.005146027;;;;;;;;;;;;;;;
2066.0;2028.5;;;;-0.19067004;1.443329;0.004745484;;;;;;;;;;;;;;;
2066.0;2032.2;;;;;;;;;;23.400066;-21.572771;-57.03528;;;;;;;;;
2066.0;2032.2;;;;;;;0.26813564;-0.6925871;0.09411909;;;;;;;;;;;;
2066.0;2032.2;;;;;;;;;;21.683401;-15.55681;-55.45213;;;;;;;;;
2066.0;2032.2;;;;;;;0.2592242;-0.6879482;0.090823084;;;;;;;;;;;;
2066.0;2038.5;;;;-0.19371799;1.4505616;0.0044975285;;;;;;;;;;;;;;;
2066.0;2038.5;;;;-0.19728091;1.4573747;0.0040931706;;;;;;;;;;;;;;;
2066.0;2038.5;;;;-0.20130923;1.4637796;0.005550385;;;;;;;;;;;;;;;
2066.0;2038.5;;;;-0.20596698;1.4692956;0.0065231333;;;;;;;;;;;;;;;
2066.0;2038.5;;;;-0.2103844;1.4752847;0.007095338;;;;;;;;;;;;;;;
2066.0;2041.8;;;;;;;;;;19.898067;-10.101626;-53.63628;;;;;;;;;
2066.0;2041.8;;;;;;;0.25251016;-0.6823328;0.08667257;;;;;;;;;;;;
2066.0;2041.8;;;;;;;;;;18.108921;-5.3636284;-51.744133;;;;;;;;;
2066.0;2041.8;;;;;;;0.24634542;-0.6771447;0.08520768;;;;;;;;;;;;
2120.0;2041.7;262143;262143;14624;;;;;;;;;;;;;;;;;;
2120.0;2047.4;;;;;;;;;;;;;1344;;;;;;;;
2120.0;2047.4;;;;;;;;;;;;;1310;;;;;;;;
2120.0;2047.4;;;;;;;;;;;;;1209;;;;;;;;
2120.0;2047.4;;;;;;;;;;;;;1327;;;;;;;;
2120.0;2047.4;;;;;;;;;;;;;1501;;;;;;;;
2120.0;2048.6;;;;-0.2143555;1.4809877;0.0077819834;;;;;;;;;;;;;;;
2120.0;2048.6;;;;-0.2193146;1.4873544;0.009040833;;;;;;;;;;;;;;;
2120.0;2048.6;;;;-0.22389224;1.4932061;0.010242463;;;;;;;;;;;;;;;
2120.0;2048.6;;;;-0.22820666;1.498974;0.0110816965;;;;;;;;;;;;;;;
2120.0;2048.6;;;;-0.2327843;1.5044901;0.011135102;;;;;;;;;;;;;;;
2120.0;2051.2;;;;;;;;;;16.254921;-1.5221107;-49.72228;;;;;;;;;
2120.0;2051.2;;;;;;;0.23596911;-0.6731773;0.08398694;;;;;;;;;;;;
2120.0;2051.2;;;;;;;;;;14.4047365;1.7509995;-47.62795;;;;;;;;;
2120.0;2051.2;;;;;;;0.22949919;-0.66896576;0.0822779;;;;;;;;;;;;
2120.0;2058.4;;;;-0.23844913;1.5097773;0.011974337;;;;;;;;;;;;;;;
2120.0;2058.4;;;;-0.2436867;1.514847;0.012580873;;;;;;;;;;;;;;;
2120.0;2058.4;;;;-0.24914554;1.5197031;0.012016298;;;;;;;;;;;;;;;
2120.0;2058.4;;;;-0.25496677;1.5244372;0.01293564;;;;;;;;;;;;;;;
2120.0;2058.4;;;;-0.26119998;1.5293391;0.014297487;;;;;;;;;;;;;;;
2120.0;2060.7;;;;;;;;;;12.646107;4.8142953;-45.415356;;;;;;;;;
2120.0;2060.7;;;;;;;0.2252266;-0.66585284;0.084902495;;;;;;;;;;;;
2120.0;2060.7;;;;;;;;;;10.784478;7.7326274;-43.259987;;;;;;;;;
2120.0;2060.7;;;;;;;0.22437209;-0.66402173;0.084353164;;;;;;;;;;;;
2120.0;2061.7;262143;262143;14620;;;;;;;;;;;;;;;;;;
2123.0;2068.5;;;;-0.26749042;1.5333064;0.014350893;;;;;;;;;;;;;;;
2123.0;2068.5;;;;-0.27369693;1.5376513;0.016414644;;;;;;;;;;;;;;;
2123.0;2068.5;;;;-0.27964023;1.5415652;0.018318178;;;;;;;;;;;;;;;
2123.0;2068.5;;;;-0.28575137;1.5457728;0.019416811;;;;;;;;;;;;;;;
2123.0;2068.5;;;;-0.29179767;1.5496294;0.02112198;;;;;;;;;;;;;;;
2123.0;2070.4;;;;;;;;;;8.911405;10.3724785;-41.13132;;;;;;;;;
2123.0;2070.4;;;;;;;0.22498246;-0.66280097;0.086489454;;;;;;;;;;;;
2123.0;2070.4;;;;;;;;;;6.8742943;12.474441;-38.98358;;;;;;;;;
2123.0;2070.4;;;;;;;0.2273629;-0.6632893;0.08661153;;;;;;;;;;;;
2123.0;2078.7;;;;-0.2975693;1.5537798;0.022701265;;;;;;;;;;;;;;;
2123.0;2078.7;;;;-0.30279163;1.5575869;0.024341587;;;;;;;;;;;;;;;
2123.0;2078.7;;;;-0.30783466;1.5608141;0.02505112;;;;;;;;;;;;;;;
2123.0;2078.7;;;;-0.31229404;1.5639803;0.026302341;;;;;;;;;;;;;;;
2123.0;2078.7;;;;-0.315609;1.566437;0.02769852;;;;;;;;;;;;;;;
2123.0;2080.0;;;;;;;;;;4.8791466;14.236885;-36.69851;;;;;;;;;
2123.0;2080.0;;;;;;;0.22858363;-0.6621296;0.08795434;;;;;;;;;;;;
2123.0;2080.0;;;;;;;;;;2.9145176;15.835291;-34.485916;;;;;;;;;
2123.0;2080.0;;;;;;;0.23316142;-0.6626789;0.08984649;;;;;;;;;;;;
2129.0;2082.0;;;;;;;;;;;;;;;;;-14.263588;5.2491837;33.352917;;1968.2
2129.0;2082.0;;;;;;;;;;;;;;1.0201727;0.24793237;-0.35358745;;;;;1968.2
2129.0;2082.0;;;;;;;;;;;;;;;;;-11.619923;5.7985168;33.50551;;1968.2
2129.0;2082.0;;;;;;;;;;;;;;1.0227363;0.24860378;-0.3463851;;;;;1968.2
2129.0;2082.0;;;;;;;;;;;;;;;;;-9.411145;6.3402205;33.66192;;1977.8
2129.0;2082.0;;;;;;;;;;;;;;1.0227973;0.242378;-0.3368633;;;;;1977.8
2129.0;2082.0;;;;;;;;;;;;;;;;;-7.1909237;7.160405;33.658104;;1977.8
2129.0;2082.0;;;;;;;;;;;;;;1.0231025;0.23780023;-0.3251442;;;;;1977.8
2129.0;2082.0;;;;;;;;;;;;;;;;;-4.993591;7.992035;33.383434;;1987.5
2129.0;2082.0;;;;;;;;;;;;;;1.0372632;0.21991637;-0.31434065;;;;;1987.5
2129.0;2082.0;;;;;;;;;;;;;;;;;-2.3308513;8.541368;32.69677;;1987.5
2129.0;2082.0;;;;;;;;;;;;;;1.0530107;0.21607105;-0.31067842;;;;;1987.5
2129.0;2082.0;262143;262143;14623;;;;;;;;;;;;;;;;;;
2129.0;2082.8;;;;;;;;;;;;;;;;;-0.10681479;8.735923;31.74688;;1997.2
2129.0;2082.8;;;;;;;;;;;;;;1.0844448;0.2064272;-0.32422864;;;;;1997.2
2129.0;2082.8;;;;;;;;;;;;;;;;;2.1744437;8.941923;30.438398;;1997.2
2129.0;2082.8;;;;;;;;;;;;;;1.1160009;0.20368053;-0.3336894;;;;;1997.2
2129.0;2082.8;;;;;;;;;;;;;;;;;3.933073;9.170813;28.805658;;2006.9
2129.0;2082.8;;;;;;;;;;;;;;1.1498153;0.20068972;-0.34583575;;;;;2006.9
2129.0;2082.8;;;;;;;;;;;;;;;;;5.4437394;9.365368;26.73803;;2006.9
2129.0;2082.8;;;;;;;;;;;;;;1.1741081;0.20789209;-0.35590684;;;;;2006.9
2129.0;2082.8;;;;;;;;;;;;;;;;;6.382183;9.651479;24.540697;;2016.6
2129.0;2082.8;;;;;;;;;;;;;;1.1951659;0.21875668;-0.36262092;;;;;2016.6
2129.0;2082.8;;;;;;;;;;;;;;;;;6.65685;10.101626;22.244177;;2016.6
2129.0;2082.8;;;;;;;;;;;;;;1.2080446;0.23078097;-0.3671987;;;;;2016.6
2129.0;2087.6;;;;;;;;;;;;;1288;;;;;;;;
2129.0;2087.6;;;;;;;;;;;;;818;;;;;;;;
2129.0;2087.6;;;;;;;;;;;;;465;;;;;;;;
2129.0;2087.6;;;;;;;;;;;;;52;;;;;;;;
2129.0;2087.6;;;;;;;;;;;;;-400;;;;;;;;
2129.0;2088.6;;;;-0.31880954;1.5684817;0.029880527;;;;;;;;;;;;;;;
2129.0;2088.6;;;;-0.32057574;1.5701754;0.030490879;;;;;;;;;;;;;;;
2129.0;2088.6;;;;-0.32176974;1.5710757;0.030021671;;;;;;;;;;;;;;;
2129.0;2088.6;;;;-0.32305148;1.570759;0.029674534;;;;;;;;;;;;;;;
2129.0;2088.6;;;;-0.3236008;1.5697443;0.028312687;;;;;;;;;;;;;;;
2129.0;2089.5;;;;;;;;;;0.94225895;17.0484;-32.36488;;;;;;;;;
2129.0;2089.5;;;;;;;0.2334666;-0.6596271;0.08990753;;;;;;;;;;;;
2129.0;2089.5;;;;;;;;;;-1.1444441;18.311106;-30.117952;;;;;;;;;
2129.0;2089.5;;;;;;;0.23480941;-0.6559038;0.09021272;;;;;;;;;;;;
2131.0;2096.6;;;;;;;;;;;;;;;;;6.7026277;10.361034;19.730215;;2026.3
2131.0;2096.6;;;;;;;;;;;;;;1.2186651;0.25348675;-0.3588977;;;;;2026.3
2131.0;2096.6;;;;;;;;;;;;;;;;;6.3364053;10.845515;17.16666;;2026.3
2131.0;2096.6;;;;;;;;;;;;;;1.2303842;0.27234718;-0.34388256;;;;;2026.3
2131.0;2096.6;;;;;;;;;;;;;;;;;6.061739;11.68096;14.767144;;2036.0
2131.0;2096.6;;;;;;;;;;;;;;1.2401501;0.30219427;-0.33136997;;;;;2036.0
2131.0;2096.6;;;;;;;;;;;;;;;;;5.5772576;12.371441;12.302774;;2036.0
2131.0;2096.6;;;;;;;;;;;;;;1.261269;0.3439436;-0.3192236;;;;;2036.0
2131.0;2096.6;;;;;;;;;;;;;;;;;4.7227397;13.233589;9.781182;;2045.6
2131.0;2096.6;;;;;;;;;;;;;;1.2837306;0.39564195;-0.30695516;;;;;2045.6
2131.0;2096.6;;;;;;;;;;;;;;;;;3.3761103;14.625996;7.122257;;2045.6
2131.0;2096.6;;;;;;;;;;;;;;1.2955718;0.45008698;-0.29773858;;;;;2045.6
2131.0;2098.5;;;;-0.3241425;1.567879;0.028961185;;;;;;;;;;;;;;;
2131.0;2098.5;;;;-0.32402804;1.5638773;0.028747562;;;;;;;;;;;;;;;
2131.0;2098.5;;;;-0.32244113;1.560631;0.030086521;;;;;;;;;;;;;;;
2131.0;2098.5;;;;-0.32153705;1.5547526;0.030128483;;;;;;;;;;;;;;;
2131.0;2098.5;;;;-0.3208771;1.5477564;0.02952576;;;;;;;;;;;;;;;
2131.0;2098.9;;;;;;;;;;-3.322703;19.459366;-27.798546;;;;;;;;;
2131.0;2098.9;;;;;;;0.2372509;-0.6537065;0.093691826;;;;;;;;;;;;
2131.0;2098.9;;;;;;;;;;-5.558183;20.157475;-25.551622;;;;;;;;;
2131.0;2098.9;;;;;;;0.23603015;-0.6515702;0.099612415;;;;;;;;;;;;
2131.0;2101.9;262143;262143;14616;;;;;;;;;;;;;;;;;;
2184.0;2108.3;;;;;;;;;;-7.736442;20.512253;-23.380993;;;;;;;;;
2184.0;2108.3;;;;;;;0.23975341;-0.64803004;0.10095523;;;;;;;;;;;;
2184.0;2108.3;;;;;;;;;;-9.92233;20.577105;-21.130253;;;;;;;;;
2184.0;2108.3;;;;;;;0.2410352;-0.64821315;0.10559405;;;;;;;;;;;;
2184.0;2108.5;;;;-0.32078174;1.5392611;0.028255466;;;;;;;;;;;;;;;
2184.0;2108.5;;;;-0.32053378;1.5290644;0.02820969;;;;;;;;;;;;;;;
2184.0;2108.5;;;;-0.3207474;1.5177271;0.027675632;;;;;;;;;;;;;;;
2184.0;2108.5;;;;-0.3208008;1.5055697;0.026386265;;;;;;;;;;;;;;;
2184.0;2108.5;;;;-0.32123187;1.4920312;0.025581364;;;;;;;;;;;;;;;
2184.0;2117.7;;;;;;;;;;-12.1654415;20.420698;-18.925291;;;;;;;;;
2184.0;2117.7;;;;;;;0.24719992;-0.64949495;0.10858486;;;;;;;;;;;;
2184.0;2117.7;;;;;;;;;;-14.33607;20.172735;-16.701256;;;;;;;;;
2184.0;2117.7;;;;;;;0.2535478;-0.64888453;0.11267434;;;;;;;;;;;;
2184.0;2118.3;;;;-0.32195666;1.4773256;0.025207523;;;;;;;;;;;;;;;
2184.0;2118.3;;;;-0.3235245;1.4627687;0.025264744;;;;;;;;;;;;;;;
2184.0;2118.3;;;;-0.32421878;1.4479448;0.025718693;;;;;;;;;;;;;;;
2184.0;2118.3;;;;-0.32576755;1.4327585;0.02562714;;;;;;;;;;;;;;;
2184.0;2118.3;;;;-0.32691577;1.4179765;0.025371555;;;;;;;;;;;;;;;
2184.0;2121.8;262143;262143;14615;;;;;;;;;;;;;;;;;;
2184.0;2127.3;;;;;;;;;;-16.49144;19.989624;-14.633626;;;;;;;;;
2184.0;2127.3;;;;;;;0.2667928;-0.65236366;0.1142613;;;;;;;;;;;;
2184.0;2127.3;;;;;;;;;;-18.650625;19.795067;-12.726218;;;;;;;;;
2184.0;2127.3;;;;;;;0.28382215;-0.6565752;0.11688589;;;;;;;;;;;;
2186.0;2127.5;;;;;;;;;;;;;-235;;;;;;;;
2186.0;2127.5;;;;;;;;;;;;;701;;;;;;;;
2186.0;2127.5;;;;;;;;;;;;;1858;;;;;;;;
2186.0;2127.5;;;;;;;;;;;;;2412;;;;;;;;
2186.0;2127.5;;;;;;;;;;;;;1857;;;;;;;;
2186.0;2128.4;;;;-0.32769778;1.4040986;0.026149753;;;;;;;;;;;;;;;
2186.0;2128.4;;;;-0.32923892;1.3899575;0.027221683;;;;;;;;;;;;;;;
2186.0;2128.4;;;;-0.32978442;1.3775483;0.028659824;;;;;;;;;;;;;;;
2186.0;2128.4;;;;-0.3306084;1.3652536;0.030818943;;;;;;;;;;;;;;;
2186.0;2128.4;;;;-0.33222964;1.3538171;0.032493595;;;;;;;;;;;;;;;
2186.0;2137.0;;;;;;;;;;-20.79455;19.318218;-11.032442;;;;;;;;;
2186.0;2137.0;;;;;;;0.29950866;-0.6596881;0.11877804;;;;;;;;;;;;
2186.0;2137.0;;;;;;;;;;-22.812586;18.642994;-9.411145;;;;;;;;;
2186.0;2137.0;;;;;;;0.31092256;-0.6652425;0.11896115;;;;;;;;;;;;
2186.0;2138.5;;;;-0.33316806;1.3432657;0.036941532;;;;;;;;;;;;;;;
2186.0;2138.5;;;;-0.33422092;1.3324357;0.04113007;;;;;;;;;;;;;;;
2186.0;2138.5;;;;-0.33672717;1.3214456;0.043235783;;;;;;;;;;;;;;;
2186.0;2138.5;;;;-0.33890155;1.3107873;0.045413975;;;;;;;;;;;;;;;
2186.0;2138.5;;;;-0.3408089;1.3001138;0.04929734;;;;;;;;;;;;;;;
2187.0;2141.6;;;;;;;;;;;;;;;;;1.5984069;16.277811;4.0246286;;2055.3
2187.0;2141.6;;;;;;;;;;;;;;1.3003327;0.50325024;-0.2912076;;;;;2055.3
2187.0;2141.6;;;;;;;;;;;;;;;;;-0.34714803;18.101292;0.5874813;;2055.3
2187.0;2141.6;;;;;;;;;;;;;;1.2994171;0.5548265;-0.28516495;;;;;2055.3
2187.0;2141.6;;;;;;;;;;;;;;;;;-1.9951477;20.710623;-3.7347028;;2064.8
2187.0;2141.6;;;;;;;;;;;;;;1.2972808;0.6153142;-0.28894925;;;;;2064.8
2187.0;2141.6;;;;;;;;;;;;;;;;;-3.7499619;23.098696;-8.709219;;2064.8
2187.0;2141.6;;;;;;;;;;;;;;1.2878811;0.68367565;-0.29401532;;;;;2064.8
2187.0;2141.6;;;;;;;;;;;;;;;;;-5.859554;25.05188;-14.923552;;2074.5
2187.0;2141.6;;;;;;;;;;;;;;1.2990509;0.7595447;-0.3037202;;;;;2074.5
2187.0;2141.6;;;;;;;;;;;;;;;;;-9.273812;27.386547;-21.866512;;2074.5
2187.0;2141.6;;;;;;;;;;;;;;1.314127;0.78487504;-0.3010956;;;;;2074.5
2187.0;2141.9;262143;262143;14613;;;;;;;;;;;;;;;;;;
2187.0;2146.5;;;;;;;;;;-24.880215;17.693106;-7.827998;;;;;;;;;
2187.0;2146.5;;;;;;;0.32209235;-0.6671957;0.11981567;;;;;;;;;;;;
2187.0;2146.5;;;;;;;;;;-26.963104;16.495255;-6.4355907;;;;;;;;;
2187.0;2146.5;;;;;;;0.3319193;-0.66817224;0.12024293;;;;;;;;;;;;
2187.0;2148.4;;;;-0.34308246;1.2889215;0.052852638;;;;;;;;;;;;;;;
2187.0;2148.4;;;;-0.3447533;1.2770997;0.057212837;;;;;;;;;;;;;;;
2187.0;2148.4;;;;-0.34622577;1.2640268;0.061809547;;;;;;;;;;;;;;;
2187.0;2148.4;;;;-0.34866717;1.2506868;0.06556321;;;;;;;;;;;;;;;
2187.0;2148.4;;;;-0.35037234;1.2356454;0.0699463;;;;;;;;;;;;;;;
2188.0;2156.0;;;;;;;;;;-29.026918;14.992217;-5.176702;;;;;;;;;
2188.0;2156.0;;;;;;;0.3378399;-0.67030853;0.12048708;;;;;;;;;;;;
2188.0;2156.0;;;;;;;;;;-31.01825;13.527329;-4.0437026;;;;;;;;;
2188.0;2156.0;;;;;;;0.3424177;-0.67067474;0.119449444;;;;;;;;;;;;
2188.0;2156.6;;;;;;;;;;;;;;;;;-13.969848;29.38551;-29.862362;;2084.2
2188.0;2156.6;;;;;;;;;;;;;;1.3097934;0.80037844;-0.29132968;;;;;2084.2
2188.0;2156.6;;;;;;;;;;;;;;;;;-19.92477;30.762657;-38.39229;;2084.2
2188.0;2156.6;;;;;;;;;;;;;;1.3071078;0.8054445;-0.27460554;;;;;2084.2
2188.0;2156.6;;;;;;;;;;;;;;;;;-26.078066;31.781212;-47.227394;;2093.8
2188.0;2156.6;;;;;;;;;;;;;;1.3047273;0.8065432;-0.25379193;;;;;2093.8
2188.0;2156.6;;;;;;;;;;;;;;;;;-33.223213;33.284252;-56.485947;;2093.8
2188.0;2156.6;;;;;;;;;;;;;;1.2884305;0.80776393;-0.22559282;;;;;2093.8
2188.0;2156.6;;;;;;;;;;;;;;;;;-39.58632;35.229805;-66.27476;;2103.4
2188.0;2156.6;;;;;;;;;;;;;;1.2681662;0.8006226;-0.1947081;;;;;2103.4
2188.0;2156.6;;;;;;;;;;;;;;;;;-43.675804;36.946472;-75.964386;;2103.4
2188.0;2156.6;;;;;;;;;;;;;;1.2357554;0.80385756;-0.16034424;;;;;2103.4
2188.0;2158.4;;;;-0.3513489;1.2199708;0.074615486;;;;;;;;;;;;;;;
2188.0;2158.4;;;;-0.3518677;1.2030145;0.07937623;;;;;;;;;;;;;;;
2188.0;2158.4;;;;-0.3525162;1.1853105;0.08448792;;;;;;;;;;;;;;;
2188.0;2158.4;;;;-0.35282138;1.1673013;0.090637214;;;;;;;;;;;;;;;
2188.0;2158.4;;;;-0.35243228;1.1488458;0.097202316;;;;;;;;;;;;;;;
2188.0;2162.0;262143;262143;14611;;;;;;;;;;;;;;;;;;
2238.0;2165.5;;;;;;;;;;-33.207954;12.936033;-3.1052582;;;;;;;;;
2238.0;2165.5;;;;;;;0.3526719;-0.6704306;0.1159093;;;;;;;;;;;;
2238.0;2165.5;;;;;;;;;;-35.4091;12.962737;-2.5559251;;;;;;;;;
2238.0;2165.5;;;;;;;0.3688467;-0.6695151;0.1114536;;;;;;;;;;;;
2238.0;2167.6;;;;;;;;;;;;;850;;;;;;;;
2238.0;2167.6;;;;;;;;;;;;;72;;;;;;;;
2238.0;2167.6;;;;;;;;;;;;;-338;;;;;;;;
2238.0;2167.6;;;;;;;;;;;;;-130;;;;;;;;
2238.0;2167.6;;;;;;;;;;;;;604;;;;;;;;
2238.0;2168.4;;;;-0.35264972;1.1305047;0.103187576;;;;;;;;;;;;;;;
2238.0;2168.4;;;;-0.35139087;1.1121179;0.1099167;;;;;;;;;;;;;;;
2238.0;2168.4;;;;-0.34972385;1.0938684;0.11706926;;;;;;;;;;;;;;;
2238.0;2168.4;;;;-0.34758;1.0763131;0.12349321;;;;;;;;;;;;;;;
2238.0;2168.4;;;;-0.34510425;1.0597268;0.1300316;;;;;;;;;;;;;;;
2238.0;2174.7;;;;;;;;;;-37.732323;13.584552;-2.4033327;;;;;;;;;
2238.0;2174.7;;;;;;;0.38636434;-0.66914886;0.106387526;;;;;;;;;;;;
2238.0;2174.7;;;;;;;;;;-39.941097;14.389478;-2.422407;;;;;;;;;
2238.0;2174.7;;;;;;;0.4013184;-0.6695151;0.10101627;;;;;;;;;;;;
2238.0;2178.2;;;;-0.34240344;1.0433275;0.13584901;;;;;;;;;;;;;;;
2238.0;2178.2;;;;-0.338295;1.0283929;0.14121248;;;;;;;;;;;;;;;
2238.0;2178.2;;;;-0.33428958;1.0140458;0.14577867;;;;;;;;;;;;;;;
2238.0;2178.2;;;;-0.32968906;1.000969;0.14990999;;;;;;;;;;;;;;;
2238.0;2178.2;;;;-0.3249016;0.9892427;0.1534958;;;;;;;;;;;;;;;
2238.0;2181.9;262143;262143;14608;;;;;;;;;;;;;;;;;;
2239.0;2184.4;;;;;;;;;;-42.077396;15.64455;-2.498703;;;;;;;;;
2239.0;2184.4;;;;;;;0.41511276;-0.67085785;0.09631642;;;;;;;;;;;;
2239.0;2184.4;;;;;;;;;;-44.072544;17.16666;-2.5749993;;;;;;;;;
2239.0;2184.4;;;;;;;0.4290292;-0.6722007;0.091250345;;;;;;;;;;;;
2239.0;2188.4;;;;-0.31958774;0.97776425;0.156765;;;;;;;;;;;;;;;
2239.0;2188.4;;;;-0.31409076;0.9675256;0.15847398;;;;;;;;;;;;;;;
2239.0;2188.4;;;;-0.3081093;0.95813763;0.1610489;;;;;;;;;;;;;;;
2239.0;2188.4;;;;-0.30189136;0.9494401;0.16215517;;;;;;;;;;;;;;;
2239.0;2188.4;;;;-0.29480746;0.94166195;0.16208269;;;;;;;;;;;;;;;
2239.0;2194.0;;;;;;;;;;-46.102024;19.070253;-2.6551104;;;;;;;;;
2239.0;2194.0;;;;;;;0.43910033;-0.6765343;0.0872219;;;;;;;;;;;;
2239.0;2194.0;;;;;;;;;;-48.066654;21.107365;-2.8000731;;;;;;;;;
2239.0;2194.0;;;;;;;0.4458144;-0.68367565;0.08203375;;;;;;;;;;;;
2239.0;2198.5;;;;-0.28689197;0.9348451;0.16204835;;;;;;;;;;;;;;;
2239.0;2198.5;;;;-0.27883533;0.92847836;0.16073228;;;;;;;;;;;;;;;
2239.0;2198.5;;;;-0.27042773;0.923195;0.16007997;;;;;;;;;;;;;;;
2239.0;2198.5;;;;-0.26259235;0.9187318;0.15850832;;;;;;;;;;;;;;;
2239.0;2198.5;;;;-0.25580218;0.9153482;0.15730287;;;;;;;;;;;;;;;
2243.0;2202.0;;;;;;;;;;;;;;;;;-46.498764;38.296917;-85.11613;;2113.1
2243.0;2202.0;;;;;;;;;;;;;;1.2123783;0.7985473;-0.102725305;;;;;2113.1
2243.0;2202.0;;;;;;;;;;;;;;;;;-48.34895;40.547653;-94.09238;;2113.1
2243.0;2202.0;;;;;;;;;;;;;;1.2107303;0.77980894;-0.03601184;;;;;2113.1
2243.0;2202.0;;;;;;;;;;;;;;;;;-50.60732;44.2938;-101.71819;;2122.8
2243.0;2202.0;;;;;;;;;;;;;;1.1899167;0.7676626;0.033082064;;;;;2122.8
2243.0;2202.0;;;;;;;;;;;;;;;;;-54.13602;46.803947;-108.17286;;2122.8
2243.0;2202.0;;;;;;;;;;;;;;1.1666616;0.7688223;0.07275613;;;;;2122.8
2243.0;2202.0;;;;;;;;;;;;;;;;;-59.812466;46.411022;-113.86837;;2132.5
2243.0;2202.0;;;;;;;;;;;;;;1.1540879;0.7794427;0.09833064;;;;;2132.5
2243.0;2202.0;;;;;;;;;;;;;;;;;-67.48787;43.580433;-117.85867;;2132.5
2243.0;2202.0;;;;;;;;;;;;;;1.136082;0.78273875;0.085695975;;;;;2132.5
2243.0;2202.0;262143;262143;14607;;;;;;;;;;;;;;;;;;
2243.0;2203.5;;;;;;;;;;-49.993134;23.171179;-2.994629;;;;;;;;;
2243.0;2203.5;;;;;;;0.45515305;-0.6925871;0.07715079;;;;;;;;;;;;
2243.0;2203.5;;;;;;;;;;-51.87002;25.658436;-3.1701102;;;;;;;;;
2243.0;2203.5;;;;;;;0.4626606;-0.7093722;0.07495346;;;;;;;;;;;;
2243.0;2207.7;;;;;;;;;;;;;1360;;;;;;;;
2243.0;2207.7;;;;;;;;;;;;;1758;;;;;;;;
2243.0;2207.7;;;;;;;;;;;;;1836;;;;;;;;
2243.0;2207.7;;;;;;;;;;;;;1597;;;;;;;;
2243.0;2207.7;;;;;;;;;;;;;1061;;;;;;;;
2246.0;2208.4;;;;-0.24988177;0.9123689;0.15701295;;;;;;;;;;;;;;;
2246.0;2208.4;;;;-0.24418643;0.91041195;0.15623094;;;;;;;;;;;;;;;
2246.0;2208.4;;;;-0.23938373;0.9089166;0.15517046;;;;;;;;;;;;;;;
2246.0;2208.4;;;;-0.2347031;0.90745175;0.15449907;;;;;;;;;;;;;;;
2246.0;2208.4;;;;-0.2308388;0.90646756;0.15333559;;;;;;;;;;;;;;;
2246.0;2213.1;;;;;;;;;;-53.567616;28.588213;-3.215888;;;;;;;;;
2246.0;2213.1;;;;;;;0.47175512;-0.73140657;0.07043672;;;;;;;;;;;;
2246.0;2213.1;;;;;;;;;;-55.249947;31.62862;-3.1662953;;;;;;;;;
2246.0;2213.1;;;;;;;0.48384044;-0.7599109;0.065431684;;;;;;;;;;;;
2246.0;2216.7;;;;;;;;;;;;;;;;;-75.32732;38.575397;-120.632034;;2142.1
2246.0;2216.7;;;;;;;;;;;;;;1.1045259;0.8086184;0.042176582;;;;;2142.1
2246.0;2216.7;;;;;;;;;;;;;;;;;-83.22016;29.602955;-122.245705;;2142.1
2246.0;2216.7;;;;;;;;;;;;;;1.1221045;0.78902555;-0.03790399;;;;;2142.1
2246.0;2216.7;;;;;;;;;;;;;;;;;-89.30097;16.97592;-123.47789;;2151.8
2246.0;2216.7;;;;;;;;;;;;;;1.1545153;0.77071446;-0.14038515;;;;;2151.8
2246.0;2216.7;;;;;;;;;;;;;;;;;-92.585526;2.3194067;-124.053925;;2151.8
2246.0;2216.7;;;;;;;;;;;;;;1.2017579;0.7199927;-0.29395428;;;;;2151.8
2246.0;2216.7;;;;;;;;;;;;;;;;;-92.085785;-13.866847;-123.65718;;2161.5
2246.0;2216.7;;;;;;;;;;;;;;1.2758569;0.6532792;-0.47657704;;;;;2161.5
2246.0;2216.7;;;;;;;;;;;;;;;;;-90.20889;-29.530474;-121.89855;;2161.5
2246.0;2216.7;;;;;;;;;;;;;;1.3608813;0.5710013;-0.65633106;;;;;2161.5
2298.0;2218.3;;;;-0.22615436;0.90525067;0.15243913;;;;;;;;;;;;;;;
2298.0;2218.3;;;;-0.2222214;0.9044076;0.15059663;;;;;;;;;;;;;;;
2298.0;2218.3;;;;-0.2177315;0.9035989;0.14766695;;;;;;;;;;;;;;;
2298.0;2218.3;;;;-0.2129021;0.90243924;0.14463426;;;;;;;;;;;;;;;
2298.0;2218.3;;;;-0.20743182;0.90135586;0.14189531;;;;;;;;;;;;;;;
2298.0;2222.5;;;;;;;;;;-56.80639;34.863583;-2.8496659;;;;;;;;;
2298.0;2222.5;;;;;;;0.4969634;-0.7945189;0.059938353;;;;;;;;;;;;
2298.0;2222.5;;;;;;;;;;-58.3018;38.033695;-2.2583697;;;;;;;;;
2298.0;2222.5;;;;;;;0.5102084;-0.8324839;0.05487228;;;;;;;;;;;;
2298.0;2222.1;262143;262143;14608;;;;;;;;;;;;;;;;;;
2298.0;2228.3;;;;-0.20260242;0.899891;0.1375847;;;;;;;;;;;;;;;
2298.0;2228.3;;;;-0.1977463;0.8988267;0.13333894;;;;;;;;;;;;;;;
2298.0;2228.3;;;;-0.1925812;0.8967668;0.12840654;;;;;;;;;;;;;;;
2298.0;2228.3;;;;-0.18792728;0.89485943;0.123661056;;;;;;;;;;;;;;;
2298.0;2228.3;;;;-0.18366243;0.8922311;0.11855318;;;;;;;;;;;;;;;
2298.0;2231.8;;;;;;;;;;-59.686577;41.47847;-1.3237404;;;;;;;;;
2298.0;2231.8;;;;;;;0.5274819;-0.8750267;0.05224769;;;;;;;;;;;;
2298.0;2231.8;;;;;;;;;;-60.846275;45.358135;-0.12970367;;;;;;;;;
2298.0;2231.8;;;;;;;0.54811245;-0.91927856;0.05053865;;;;;;;;;;;;
2304.0;2238.1;;;;-0.1790619;0.88910687;0.11376192;;;;;;;;;;;;;;;
2304.0;2238.1;;;;-0.174881;0.88624966;0.109130874;;;;;;;;;;;;;;;
2304.0;2238.1;;;;-0.17084886;0.88308346;0.10501863;;;;;;;;;;;;;;;
2304.0;2238.1;;;;-0.16684343;0.88009655;0.10029985;;;;;;;;;;;;;;;
2304.0;2238.1;;;;-0.16334154;0.87731946;0.0961609;;;;;;;;;;;;;;;
2304.0;2241.3;;;;;;;;;;-61.96402;49.840538;1.2627033;;;;;;;;;
2304.0;2241.3;;;;;;;0.57417524;-0.9646901;0.051637318;;;;;;;;;;;;
2304.0;2241.3;;;;;;;;;;-62.894836;54.429764;2.7886288;;;;;;;;;
2304.0;2241.3;;;;;;;0.5995056;-1.0128483;0.053346355;;;;;;;;;;;;
2304.0;2241.8;262143;262143;14605;;;;;;;;;;;;;;;;;;
2304.0;2247.5;;;;;;;;;;;;;721;;;;;;;;
2304.0;2247.5;;;;;;;;;;;;;1133;;;;;;;;
2304.0;2247.5;;;;;;;;;;;;;3049;;;;;;;;
2304.0;2247.5;;;;;;;;;;;;;4979;;;;;;;;
2304.0;2247.5;;;;;;;;;;;;;223;;;;;;;;
2304.0;2248.2;;;;-0.15969087;0.8745233;0.09262086;;;;;;;;;;;;;;;
2304.0;2248.2;;;;-0.15618517;0.87137234;0.08882523;;;;;;;;;;;;;;;
2304.0;2248.2;;;;-0.15329362;0.868538;0.085830696;;;;;;;;;;;;;;;
2304.0;2248.2;;;;-0.1503029;0.8658906;0.08329774;;;;;;;;;;;;;;;
2304.0;2248.2;;;;-0.14779665;0.863186;0.081924446;;;;;;;;;;;;;;;
2304.0;2250.9;;;;;;;;;;-63.730278;59.060947;4.562517;;;;;;;;;
2304.0;2250.9;;;;;;;0.62746054;-1.06357;0.059144873;;;;;;;;;;;;
2304.0;2250.9;;;;;;;;;;-64.37117;63.55861;6.633961;;;;;;;;;
2304.0;2250.9;;;;;;;0.65449995;-1.1163671;0.06848354;;;;;;;;;;;;
2308.0;2258.3;;;;-0.14660646;0.8604852;0.08128358;;;;;;;;;;;;;;;
2308.0;2258.3;;;;-0.14527132;0.85783017;0.081550606;;;;;;;;;;;;;;;
2308.0;2258.3;;;;-0.14421083;0.85481274;0.08012391;;;;;;;;;;;;;;;
2308.0;2258.3;;;;-0.14344026;0.8516656;0.078983314;;;;;;;;;;;;;;;
2308.0;2258.3;;;;-0.14372636;0.84928143;0.079113014;;;;;;;;;;;;;;;
2308.0;2260.5;;;;;;;;;;-64.72976;68.15927;9.174627;;;;;;;;;
2308.0;2260.5;;;;;;;0.6764122;-1.1660513;0.0794702;;;;;;;;;;;;
2308.0;2260.5;;;;;;;;;;-64.82132;72.87057;12.035737;;;;;;;;;
2308.0;2260.5;;;;;;;0.7005219;-1.2204351;0.09454634;;;;;;;;;;;;
2308.0;2261.6;;;;;;;;;;;;;;;;;-87.35542;-43.40114;-120.29252;;2171.0
2308.0;2261.6;;;;;;;;;;;;;;1.478988;0.45155185;-0.79744864;;;;;2171.0
2308.0;2261.6;;;;;;;;;;;;;;;;;-84.66598;-49.939724;-117.09571;;2171.0
2308.0;2261.6;;;;;;;;;;;;;;1.6651509;0.2969451;-0.8633076;;;;;2171.0
2308.0;2261.6;;;;;;;;;;;;;;;;;-87.82083;-44.04584;-114.79919;;2180.7
2308.0;2261.6;;;;;;;;;;;;;;1.8419142;0.16711935;-0.8465834;;;;;2180.7
2308.0;2261.6;;;;;;;;;;;;;;;;;-91.53264;-29.06125;-112.19749;;2180.7
2308.0;2261.6;;;;;;;;;;;;;;1.8374584;0.013672292;-0.7541734;;;;;2180.7
2308.0;2261.6;;;;;;;;;;;;;;;;;-101.07349;-4.757073;-111.51845;;2190.3
2308.0;2261.6;;;;;;;;;;;;;;1.6298105;-0.13788262;-0.5583056;;;;;2190.3
2308.0;2261.6;;;;;;;;;;;;;;;;;-100.6653;4.505295;-108.37123;;2190.3
2308.0;2261.6;;;;;;;;;;;;;;1.7020783;-0.2163152;-0.41871396;;;;;2190.3
2308.0;2262.0;262143;262143;14612;;;;;;;;;;;;;;;;;;
2311.0;2268.2;;;;-0.14387514;0.8462945;0.0788231;;;;;;;;;;;;;;;
2311.0;2268.2;;;;-0.14347078;0.8427583;0.07707215;;;;;;;;;;;;;;;
2311.0;2268.2;;;;-0.14401628;0.8386079;0.07630921;;;;;;;;;;;;;;;
2311.0;2268.2;;;;-0.1456833;0.83503354;0.07549287;;;;;;;;;;;;;;;
2311.0;2268.2;;;;-0.1466179;0.8302957;0.07504273;;;;;;;;;;;;;;;
2311.0;2269.0;;;;;;;;;;;;;;;;;-100.52797;12.340922;-108.77179;;2199.8
2311.0;2269.0;;;;;;;;;;;;;;1.8174993;-0.3683584;-0.39289528;;;;;2199.8
2311.0;2269.0;;;;;;;;;;;;;;;;;-88.484604;22.652363;-113.57463;;2199.8
2311.0;2269.0;;;;;;;;;;;;;;1.7632984;-0.37208167;-0.44178593;;;;;2199.8
2311.0;2269.0;;;;;;;;;;;;;;;;;-77.528465;37.29362;-123.50841;;2209.5
2311.0;2269.0;;;;;;;;;;;;;;1.490402;-0.2964568;-0.3150731;;;;;2209.5
2311.0;2269.0;;;;;;;;;;;;;;;;;-64.77935;35.847805;-124.988556;;2209.5
2311.0;2269.0;;;;;;;;;;;;;;1.4311349;-0.16595966;-0.2496414;;;;;2209.5
