patientId;holterMac;flexMac;;;;;;;;;;;;;;;;;;;;
;CA:F3:0B:1E:33:78;D3:4A:5C:52:80:78;;;;;;;;;;;;;;;;;;;;
receivedTimeStamp;timeStamp;red;ir;green;adxl_accX;adxl_accY;adxl_accZ;lsm_accelX;lsm_accelY;lsm_accelZ;lsm_gyroX;lsm_gyroY;lsm_gyroZ;ecg;flex_lsm_accelX;flex_lsm_accelY;flex_lsm_accelZ;flex_lsm_gyroX;flex_lsm_gyroY;flex_lsm_gyroZ;flex_cmd;flexTimeStamp
306.0;215.2;;;;;;;;;;;;;;;;;;;;17;0.1
306.0;215.2;;;;;;;;;;;;;;;;;13.412886;0.94225895;0.9155553;;127.7
306.0;215.2;;;;;;;;;;;;;;-0.9462569;-0.07562487;-0.2146672;;;;;127.7
306.0;215.2;;;;;;;;;;;;;;;;;-5.8862576;-17.162846;-7.4808497;;127.7
306.0;215.2;;;;;;;;;;;;;;-0.9797052;-0.08032472;-0.22296824;;;;;127.7
306.0;215.2;;;;;;;;;;;;;;;;;-63.64254;-84.57442;-62.170017;;137.4
306.0;215.2;;;;;;;;;;;;;;-0.97848445;-0.07757805;-0.22431104;;;;;137.4
306.0;215.2;;;;;;;;;;;;;;;;;-122.17322;-124.988556;-120.20477;;137.4
306.0;215.2;;;;;;;;;;;;;;-0.9797052;-0.07446516;-0.22119816;;;;;137.4
365.0;216.0;;;;;;;;;;;;;;;;;-53.36543;-124.702446;-78.367714;;147.1
365.0;216.0;;;;;;;;;;;;;;-0.9774468;-0.06689657;-0.21967223;;;;;147.1
365.0;216.0;;;;;;;;;;;;;;;;;21.778772;-124.59563;-31.79647;;147.1
365.0;216.0;;;;;;;;;;;;;;-0.9784234;-0.059938353;-0.21662039;;;;;147.1
365.0;216.0;;;;;;;;;;;;;;;;;21.740623;-94.89731;-24.0524;;156.8
365.0;216.0;;;;;;;;;;;;;;-0.9775689;-0.052797023;-0.21375164;;;;;156.8
365.0;216.0;;;;;;;;;;;;;;;;;16.628773;-2.6894438;0.6447035;;156.8
365.0;216.0;;;;;;;;;;;;;;-0.97579885;-0.045411542;-0.21308023;;;;;156.8
365.0;216.0;;;;;;;;;;;;;;;;;16.586811;5.0012207;2.66274;;166.3
365.0;216.0;;;;;;;;;;;;;;-0.9769585;-0.037965026;-0.21124913;;;;;166.3
365.0;216.0;;;;;;;;;;;;;;;;;17.033142;5.272073;2.8801844;;166.3
365.0;216.0;;;;;;;;;;;;;;-0.9772637;-0.034485918;-0.21192053;;;;;166.3
365.0;275.6;;;;;;;;;;;;;;;;;17.345957;5.3788877;3.3455918;;175.9
365.0;275.6;;;;;;;;;;;;;;-0.97683644;-0.029969176;-0.21240883;;;;;175.9
365.0;275.6;;;;;;;;;;;;;;;;;17.521439;5.2529984;3.318888;;175.9
365.0;275.6;;;;;;;;;;;;;;-0.9768975;-0.02826014;-0.21472824;;;;;175.9
365.0;275.6;;;;;;;;;;;;;;;;;17.38792;5.4170356;3.3989992;;185.6
365.0;275.6;;;;;;;;;;;;;;-0.9778741;-0.0270394;-0.21594897;;;;;185.6
365.0;275.6;;;;;;;;;;;;;;;;;17.319254;5.6001463;3.5554063;;185.6
365.0;275.6;;;;;;;;;;;;;;-0.9794;-0.024658956;-0.21814631;;;;;185.6
365.0;275.6;;;;;;;;;;;;;;;;;16.930143;5.2491837;3.4409618;;195.3
365.0;275.6;;;;;;;;;;;;;;-0.9781793;-0.018494217;-0.21637623;;;;;195.3
365.0;275.6;;;;;;;;;;;;;;;;;16.548662;4.844814;3.47911;;195.3
365.0;275.6;;;;;;;;;;;;;;-0.9779962;-0.016357921;-0.2141789;;;;;195.3
429.0;276.4;;;;;;;;;;;;;;;;;16.365551;4.711295;3.47911;;204.9
429.0;276.4;;;;;;;;;;;;;;-0.9742119;-0.014221625;-0.21320231;;;;;204.9
429.0;276.4;;;;;;;;;;;;;;;;;16.090885;4.589221;3.2883694;;204.9
429.0;276.4;;;;;;;;;;;;;;-0.97286904;-0.01147496;-0.21240883;;;;;204.9
429.0;276.4;;;;;;;;;;;;;;;;;15.884884;4.650258;3.3150733;;214.6
429.0;276.4;;;;;;;;;;;;;;-0.9733573;-0.010986663;-0.21167639;;;;;214.6
429.0;276.4;;;;;;;;;;;;;;;;;15.709402;4.6464434;3.2731102;;214.6
429.0;276.4;;;;;;;;;;;;;;-0.97341835;-0.012207404;-0.21222572;;;;;214.6
429.0;276.4;;;;;;;;;;;;;;;;;15.552996;4.6006656;3.215888;;224.2
429.0;276.4;;;;;;;;;;;;;;-0.9734794;-0.01556444;-0.21350749;;;;;224.2
429.0;276.4;;;;;;;;;;;;;;;;;15.385143;4.5739617;3.276925;;224.2
429.0;276.4;;;;;;;;;;;;;;-0.9769585;-0.01782281;-0.21680349;;;;;224.2
429.0;336.3;;;;;;;;;;;;;;;;;15.293588;4.776147;3.2731102;;233.9
429.0;336.3;;;;;;;;;;;;;;-0.9807428;-0.02026429;-0.2174749;;;;;233.9
429.0;336.3;;;;;;;;;;;;;;;;;15.167699;4.642628;3.2502213;;233.9
429.0;336.3;;;;;;;;;;;;;;-0.98550373;-0.022400586;-0.2207709;;;;;233.9
429.0;336.3;;;;;;;;;;;;;;;;;14.9616995;4.696036;3.3417768;;243.4
429.0;336.3;;;;;;;;;;;;;;-0.9897763;-0.025269326;-0.2230903;;;;;243.4
429.0;336.3;;;;;;;;;;;;;;;;;14.770959;4.566332;3.318888;;243.4
429.0;336.3;;;;;;;;;;;;;;-0.99282813;-0.025147252;-0.22431104;;;;;243.4
429.0;336.3;;;;;;;;;;;;;;;;;14.526811;4.482406;3.3150733;;252.9
429.0;336.3;;;;;;;;;;;;;;-0.99417096;-0.026917325;-0.22547075;;;;;252.9
429.0;336.3;;;;;;;;;;;;;;;;;14.446699;4.5243692;3.3722954;;252.9
429.0;336.3;;;;;;;;;;;;;;-0.99563587;-0.025940733;-0.22595905;;;;;252.9
489.0;337.1;;;;;;;;;;;;;;;;;14.515367;4.676962;3.379925;;262.6
489.0;337.1;;;;;;;;;;;;;;-0.9972839;-0.025086215;-0.22620319;;;;;262.6
489.0;337.1;;;;;;;;;;;;;;;;;14.4047365;4.8409986;3.3722954;;262.6
489.0;337.1;;;;;;;;;;;;;;-0.99826044;-0.02313303;-0.22437209;;;;;262.6
489.0;337.1;;;;;;;;;;;;;;;;;14.267404;4.8142953;3.4638507;;272.3
489.0;337.1;;;;;;;;;;;;;;-1.0003357;-0.020935697;-0.2245552;;;;;272.3
489.0;337.1;;;;;;;;;;;;;;;;;14.000366;4.650258;3.3379622;;272.3
489.0;337.1;;;;;;;;;;;;;;-0.99899286;-0.018494217;-0.22272408;;;;;272.3
489.0;337.1;;;;;;;;;;;;;;;;;13.82107;4.5930357;3.299814;;282.0
489.0;337.1;;;;;;;;;;;;;;-0.9953917;-0.015076144;-0.22174749;;;;;282.0
489.0;337.1;;;;;;;;;;;;;;;;;13.595997;4.352702;3.1777399;;282.0
489.0;337.1;;;;;;;;;;;;;;-0.9907529;-0.012878811;-0.2197943;;;;;282.0
489.0;396.3;;;;;;;;;;;;;;;;;13.260293;4.222999;2.9984436;;291.5
489.0;396.3;;;;;;;;;;;;;;-0.9844661;-0.0110477;-0.21802424;;;;;291.5
489.0;396.3;;;;;;;;;;;;;;;;;12.863552;4.1085544;2.8420362;;291.5
489.0;396.3;;;;;;;;;;;;;;-0.9797052;-0.010864589;-0.21643727;;;;;291.5
489.0;396.3;;;;;;;;;;;;;;;;;12.474441;4.2420726;2.6093326;;301.2
489.0;396.3;;;;;;;;;;;;;;-0.9778741;-0.011169774;-0.21973327;;;;;301.2
489.0;396.3;;;;;;;;;;;;;;;;;12.039553;4.4366283;2.437666;;301.2
489.0;396.3;;;;;;;;;;;;;;-0.97762996;-0.0126957;-0.2200995;;;;;301.2
489.0;396.3;;;;;;;;;;;;;;;;;11.577959;4.486221;2.3308513;;310.8
489.0;396.3;;;;;;;;;;;;;;-0.9809259;-0.013672292;-0.22180852;;;;;310.8
489.0;396.3;;;;;;;;;;;;;;;;;11.028626;4.463332;2.277444;;310.8
489.0;396.3;;;;;;;;;;;;;;-0.9818415;-0.014709922;-0.22461623;;;;;310.8
548.0;397.1;;;;;;;;;;;;;;;;;10.513627;4.3565173;2.25074;;320.4
548.0;397.1;;;;;;;;;;;;;;-0.9838557;-0.015137181;-0.22510453;;;;;320.4
548.0;397.1;;;;;;;;;;;;;;;;;10.059664;4.291665;2.1553698;;320.4
548.0;397.1;;;;;;;;;;;;;;-0.98525953;-0.015503403;-0.22492142;;;;;320.4
548.0;397.1;;;;;;;;;;;;;;;;;9.533219;4.2115545;2.1057773;;330.1
548.0;397.1;;;;;;;;;;;;;;-0.985931;-0.014221625;-0.22394483;;;;;330.1
548.0;397.1;;;;;;;;;;;;;;;;;9.044923;4.2611465;2.0409255;;330.1
548.0;397.1;;;;;;;;;;;;;;-0.98800623;-0.014709922;-0.22132023;;;;;330.1
548.0;397.1;;;;;;;;;;;;;;;;;8.610034;4.203925;1.8692588;;339.7
548.0;397.1;;;;;;;;;;;;;;-0.98922694;-0.016479995;-0.22046572;;;;;339.7
548.0;397.1;;;;;;;;;;;;;;;;;8.098849;4.20011;1.8082217;;339.7
548.0;397.1;;;;;;;;;;;;;;-0.98904383;-0.01739555;-0.2158269;;;;;339.7
548.0;457.1;;;;;;;;;;;;;;;;;7.5189977;4.0856657;1.678518;;349.4
548.0;457.1;;;;;;;;;;;;;;-0.985931;-0.018189032;-0.21411787;;;;;349.4
548.0;457.1;;;;;;;;;;;;;;;;;7.0307016;4.032258;1.4687033;;349.4
548.0;457.1;;;;;;;;;;;;;;-0.98586994;-0.022766808;-0.2120426;;;;;349.4
548.0;457.1;;;;;;;;;;;;;;;;;6.725517;4.1238136;1.3504441;;358.9
548.0;457.1;;;;;;;;;;;;;;-0.98532057;-0.023804437;-0.21057771;;;;;358.9
548.0;457.1;;;;;;;;;;;;;;;;;6.34785;4.20011;1.2741477;;358.9
548.0;457.1;;;;;;;;;;;;;;-0.9844661;-0.027161473;-0.21179846;;;;;358.9
548.0;457.1;;;;;;;;;;;;;;;;;6.069369;4.036073;1.1558886;;368.5
548.0;457.1;;;;;;;;;;;;;;-0.98477125;-0.02783288;-0.21192053;;;;;368.5
548.0;457.1;;;;;;;;;;;;;;;;;5.897702;3.913999;1.0948515;;368.5
548.0;457.1;;;;;;;;;;;;;;-0.9839778;-0.028992584;-0.21393475;;;;;368.5
610.0;457.9;;;;;;;;;;;;;;;;;5.760369;4.020814;0.92699975;;378.2
610.0;457.9;;;;;;;;;;;;;;-0.9836116;-0.030396435;-0.21753594;;;;;378.2
610.0;457.9;;;;;;;;;;;;;;;;;5.649739;4.1848507;0.7095553;;378.2
610.0;457.9;;;;;;;;;;;;;;-0.9882504;-0.029725028;-0.22119816;;;;;378.2
610.0;457.9;;;;;;;;;;;;;;;;;5.6154056;4.119999;0.7286294;;387.9
610.0;457.9;;;;;;;;;;;;;;-0.98837245;-0.028382214;-0.22638631;;;;;387.9
610.0;457.9;;;;;;;;;;;;;;;;;5.3750725;4.036073;0.5798517;;387.9
610.0;457.9;;;;;;;;;;;;;;-0.9862972;-0.025818659;-0.22827846;;;;;387.9
610.0;457.9;;;;;;;;;;;;;;;;;5.0279245;3.9559617;0.46540728;;397.6
610.0;457.9;;;;;;;;;;;;;;-0.98660237;-0.020813623;-0.22907193;;;;;397.6
610.0;457.9;;;;;;;;;;;;;;;;;4.4557023;3.8644063;0.34333324;;397.6
610.0;457.9;;;;;;;;;;;;;;-0.98672444;-0.018921476;-0.23084201;;;;;397.6
610.0;517.0;;;;;;;;;;;;;;;;;3.784295;3.9407024;0.20218512;;407.2
610.0;517.0;;;;;;;;;;;;;;-0.98294014;-0.01678518;-0.23377179;;;;;407.2
610.0;517.0;;;;;;;;;;;;;;;;;3.2616658;3.9788508;0.011444441;;407.2
610.0;517.0;;;;;;;;;;;;;;-0.98330635;-0.01904355;-0.23596911;;;;;407.2
610.0;517.0;;;;;;;;;;;;;;;;;2.723777;3.9788508;-0.20218512;;416.9
610.0;517.0;;;;;;;;;;;;;;-0.9823298;-0.021790216;-0.23834956;;;;;416.9
610.0;517.0;;;;;;;;;;;;;;;;;2.3194067;3.89111;-0.4158147;;416.9
610.0;517.0;;;;;;;;;;;;;;-0.9804987;-0.027344584;-0.24195075;;;;;416.9
610.0;517.0;;;;;;;;;;;;;;;;;2.0180366;3.8834803;-0.45396283;;426.5
610.0;517.0;;;;;;;;;;;;;;-0.9800714;-0.033265177;-0.24481948;;;;;426.5
610.0;517.0;;;;;;;;;;;;;;;;;2.0142217;3.9635916;-0.5035554;;426.5
610.0;517.0;;;;;;;;;;;;;;-0.9812311;-0.038392287;-0.24561296;;;;;426.5
669.0;517.8;;;;;;;;;;;;;;;;;2.1210363;3.9674063;-0.5264443;;436.0
669.0;517.8;;;;;;;;;;;;;;-0.9805597;-0.041505173;-0.24579607;;;;;436.0
669.0;517.8;;;;;;;;;;;;;;;;;2.399518;3.8605914;-0.553148;;436.0
669.0;517.8;;;;;;;;;;;;;;-0.97811824;-0.044007692;-0.24304941;;;;;436.0
669.0;517.8;;;;;;;;;;;;;;;;;2.8954437;3.8033693;-0.62944424;;445.7
669.0;517.8;;;;;;;;;;;;;;-0.9774468;-0.046815395;-0.24341564;;;;;445.7
669.0;517.8;;;;;;;;;;;;;;;;;3.4218879;3.9635916;-0.5188147;;445.7
669.0;517.8;;;;;;;;;;;;;;-0.97653127;-0.04998932;-0.244026;;;;;445.7
669.0;517.8;;;;;;;;;;;;;;;;;4.058962;4.0856657;-0.54551834;;455.4
669.0;517.8;;;;;;;;;;;;;;-0.97524947;-0.052186653;-0.24420911;;;;;455.4
669.0;517.8;;;;;;;;;;;;;;;;;4.543443;4.20011;-0.5340739;;455.4
669.0;517.8;;;;;;;;;;;;;;-0.97402877;-0.0557268;-0.24372081;;;;;455.4
669.0;531.9;;;;;;;;;;;;;;;;;4.902035;4.3031096;-0.48066652;;465.0
669.0;531.9;;;;;;;;;;;;;;-0.97238076;-0.05713065;-0.24378185;;;;;465.0
669.0;531.9;;;;;;;;;;;;;;;;;5.123295;4.3488874;-0.5798517;;465.0
669.0;531.9;;;;;;;;;;;;;;-0.97323525;-0.06024354;-0.24164556;;;;;465.0
669.0;531.9;;;;;;;;;;;;;;;;;5.348369;4.413739;-0.6904813;;474.6
669.0;531.9;;;;;;;;;;;;;;-0.97360146;-0.06225776;-0.24036378;;;;;474.6
669.0;531.9;;;;;;;;;;;;;;;;;5.4857025;4.5930357;-0.7057405;;474.6
669.0;531.9;;;;;;;;;;;;;;-0.97665334;-0.061342206;-0.24048586;;;;;474.6
669.0;531.9;;;;;;;;;;;;;;;;;5.4589987;4.5854063;-0.77822196;;484.3
669.0;531.9;;;;;;;;;;;;;;-0.9774468;-0.06085391;-0.24378185;;;;;484.3
669.0;531.9;;;;;;;;;;;;;;;;;5.4971466;4.5854063;-0.93081456;;484.3
669.0;531.9;;;;;;;;;;;;;;-0.97720265;-0.058473464;-0.24677266;;;;;484.3
729.0;577.6;;;;;;;;;;;;;;;;;5.7031465;4.425184;-0.9727775;;493.9
729.0;577.6;;;;;;;;;;;;;;-0.97665334;-0.05652028;-0.24762718;;;;;493.9
729.0;577.6;;;;;;;;;;;;;;;;;5.8290353;4.032258;-1.0795922;;493.9
729.0;577.6;;;;;;;;;;;;;;-0.9740898;-0.0524308;-0.24744408;;;;;493.9
729.0;577.6;;;;;;;;;;;;;;;;;6.107517;4.1505175;-1.1597034;;503.5
729.0;577.6;;;;;;;;;;;;;;-0.97238076;-0.050111394;-0.24390393;;;;;503.5
729.0;577.6;;;;;;;;;;;;;;;;;6.2295904;4.3908505;-1.1940367;;503.5
729.0;577.6;;;;;;;;;;;;;;-0.97256386;-0.0474868;-0.24640645;;;;;503.5
729.0;577.6;;;;;;;;;;;;;;;;;6.2562943;4.570147;-1.3542589;;513.2
729.0;577.6;;;;;;;;;;;;;;-0.9742119;-0.0397351;-0.24744408;;;;;513.2
729.0;577.6;;;;;;;;;;;;;;;;;6.0121465;4.4785914;-1.33137;;513.2
729.0;577.6;;;;;;;;;;;;;;-0.9751274;-0.033692434;-0.24817652;;;;;513.2
729.0;592.2;;;;;;;;;;;;;;;;;5.5772576;4.257332;-1.4763329;;522.9
729.0;592.2;;;;;;;;;;;;;;-0.9749443;-0.026673177;-0.24463637;;;;;522.9
729.0;592.2;;;;;;;;;;;;;;;;;5.0050354;4.3069243;-1.7700735;;522.9
729.0;592.2;;;;;;;;;;;;;;-0.97811824;-0.019470809;-0.24262215;;;;;522.9
729.0;592.2;;;;;;;;;;;;;;;;;4.1505175;4.4709616;-2.0828884;;532.6
729.0;592.2;;;;;;;;;;;;;;-0.9825739;-0.012329478;-0.24292734;;;;;532.6
729.0;592.2;;;;;;;;;;;;;;;;;3.093814;4.505295;-2.399518;;532.6
729.0;592.2;;;;;;;;;;;;;;-0.98355055;-0.0076906644;-0.24353771;;;;;532.6
729.0;592.2;;;;;;;;;;;;;;;;;1.9417402;4.5129247;-2.6589253;;542.2
729.0;592.2;;;;;;;;;;;;;;-0.9825739;-0.005920591;-0.24787134;;;;;542.2
729.0;592.2;;;;;;;;;;;;;;;;;0.71718496;4.547258;-2.9564807;;542.2
729.0;592.2;;;;;;;;;;;;;;-0.98403883;-0.0051271096;-0.25208288;;;;;542.2
848.0;637.5;;;;;;;;;;;;;;;;;-0.63325906;4.5167394;-3.2921844;;551.7
848.0;637.5;;;;;;;;;;;;;;-0.98171943;-0.007141331;-0.25385296;;;;;551.7
848.0;637.5;;;;;;;;;;;;;;;;;-1.8692588;4.4328136;-3.6812954;;551.7
848.0;637.5;;;;;;;;;;;;;;-0.9783624;-0.009582812;-0.25696585;;;;;551.7
848.0;637.5;;;;;;;;;;;;;;;;;-2.7771842;4.3832207;-3.8529618;;561.2
848.0;637.5;;;;;;;;;;;;;;-0.9747612;-0.010864589;-0.25617236;;;;;561.2
848.0;637.5;;;;;;;;;;;;;;;;;-3.566851;4.222999;-3.952147;;561.2
848.0;637.5;;;;;;;;;;;;;;-0.9729301;-0.013794366;-0.2560503;;;;;561.2
848.0;637.5;;;;;;;;;;;;;;;;;-4.291665;4.0971103;-4.093295;;570.8
848.0;637.5;;;;;;;;;;;;;;-0.96926785;-0.016479995;-0.25727102;;;;;570.8
848.0;637.5;;;;;;;;;;;;;;;;;-5.0126653;4.39848;-4.3450727;;570.8
848.0;637.5;;;;;;;;;;;;;;-0.96926785;-0.022400586;-0.25916317;;;;;570.8
848.0;652.5;;;;;;;;;;;;;;;;;-5.5543685;4.318369;-4.5587025;;580.5
848.0;652.5;;;;;;;;;;;;;;-0.9715262;-0.025147252;-0.25995666;;;;;580.5
848.0;652.5;;;;;;;;;;;;;;;;;-5.981628;4.1848507;-4.5968504;;580.5
848.0;652.5;;;;;;;;;;;;;;-0.9717704;-0.031434067;-0.2614826;;;;;580.5
848.0;652.5;;;;;;;;;;;;;;;;;-6.2067018;3.933073;-4.547258;;590.1
848.0;652.5;;;;;;;;;;;;;;-0.97506636;-0.03424177;-0.26404613;;;;;590.1
848.0;652.5;;;;;;;;;;;;;;;;;-6.302072;3.746147;-4.40611;;590.1
848.0;652.5;;;;;;;;;;;;;;-0.97701955;-0.036439102;-0.26654866;;;;;590.1
848.0;652.5;;;;;;;;;;;;;;;;;-6.1189613;3.501999;-4.2191844;;599.8
848.0;652.5;;;;;;;;;;;;;;-0.9768975;-0.038331248;-0.26862392;;;;;599.8
848.0;652.5;;;;;;;;;;;;;;;;;-5.981628;3.2425916;-3.9635916;;599.8
848.0;652.5;;;;;;;;;;;;;;-0.9767144;-0.037659843;-0.26770836;;;;;599.8
850.0;698.1;;;;;;;;;;;;;;;;;-5.8633685;3.0709252;-3.707999;;609.4
850.0;698.1;;;;;;;;;;;;;;-0.97305214;-0.035828732;-0.27082124;;;;;609.4
850.0;698.1;;;;;;;;;;;;;;;;;-5.787072;2.97174;-3.4218879;;609.4
850.0;698.1;;;;;;;;;;;;;;-0.9713431;-0.033875547;-0.27100438;;;;;609.4
850.0;698.1;;;;;;;;;;;;;;;;;-5.630665;2.9221473;-3.1128879;;619.0
850.0;698.1;;;;;;;;;;;;;;-0.9696951;-0.031189917;-0.26972258;;;;;619.0
850.0;698.1;;;;;;;;;;;;;;;;;-5.5047765;2.8153324;-2.7733696;;619.0
850.0;698.1;;;;;;;;;;;;;;-0.96859646;-0.029847102;-0.2717368;;;;;619.0
850.0;698.1;;;;;;;;;;;;;;;;;-5.32548;2.8191473;-2.4414806;;628.7
850.0;698.1;;;;;;;;;;;;;;-0.96877956;-0.030884732;-0.27100438;;;;;628.7
850.0;698.1;;;;;;;;;;;;;;;;;-5.260628;2.6818142;-2.094333;;628.7
850.0;698.1;;;;;;;;;;;;;;-0.96890163;-0.03399762;-0.26935637;;;;;628.7
850.0;705.2;;;;;;;;;;;;;;;;;-5.115665;2.5101473;-1.8692588;;638.3
850.0;705.2;;;;;;;;;;;;;;-0.97018343;-0.036133915;-0.2694174;;;;;638.3
850.0;705.2;;;;;;;;;;;;;;;;;-4.863888;2.4796288;-1.5259255;;638.3
850.0;705.2;;;;;;;;;;;;;;-0.97006136;-0.039490953;-0.26868495;;;;;638.3
850.0;705.2;;;;;;;;;;;;;;;;;-4.5167394;2.3689995;-1.2703329;;648.0
850.0;705.2;;;;;;;;;;;;;;-0.9710379;-0.04156621;-0.26831874;;;;;648.0
850.0;705.2;;;;;;;;;;;;;;;;;-4.333628;2.1744437;-0.9537034;;648.0
850.0;705.2;;;;;;;;;;;;;;-0.97256386;-0.044007692;-0.2664266;;;;;648.0
850.0;705.2;;;;;;;;;;;;;;;;;-4.139073;1.9493698;-0.6637776;;657.6
850.0;705.2;;;;;;;;;;;;;;-0.97268593;-0.047608875;-0.26532793;;;;;657.6
850.0;705.2;;;;;;;;;;;;;;;;;-4.0055547;1.8387402;-0.3624073;;657.6
850.0;705.2;;;;;;;;;;;;;;-0.97341835;-0.050355542;-0.2642903;;;;;657.6
909.0;758.0;;;;;;;;;;;;;;;;;-3.7766654;1.8578143;-0.08774071;;667.2
909.0;758.0;;;;;;;;;;;;;;-0.9737236;-0.051881466;-0.26355785;;;;;667.2
909.0;758.0;;;;;;;;;;;;;;;;;-3.7499619;1.7319254;0.14877774;;667.2
909.0;758.0;;;;;;;;;;;;;;-0.9746391;-0.05365154;-0.26142156;;;;;667.2
909.0;758.0;;;;;;;;;;;;;;;;;-3.7995543;1.6212958;0.35096285;;676.6
909.0;758.0;;;;;;;;;;;;;;-0.97238076;-0.055482652;-0.26013976;;;;;676.6
909.0;758.0;;;;;;;;;;;;;;;;;-3.9292583;1.5678884;0.5302591;;676.6
909.0;758.0;;;;;;;;;;;;;;-0.97116;-0.05713065;-0.25959045;;;;;676.6
909.0;758.0;;;;;;;;;;;;;;;;;-4.074221;1.4839625;0.59511095;;686.2
909.0;758.0;;;;;;;;;;;;;;-0.96987826;-0.05816828;-0.25666067;;;;;686.2
909.0;758.0;;;;;;;;;;;;;;;;;-4.234443;1.411481;0.73625904;;686.2
909.0;758.0;;;;;;;;;;;;;;-0.9666433;-0.058839686;-0.2552568;;;;;686.2
909.0;765.5;;;;;;;;;;;;;;;;;-4.4557023;1.4191107;0.7896664;;695.9
909.0;765.5;;;;;;;;;;;;;;-0.964568;-0.059083834;-0.2540971;;;;;695.9
909.0;765.5;;;;;;;;;;;;;;;;;-4.6540728;1.4381847;0.7477035;;695.9
909.0;765.5;;;;;;;;;;;;;;-0.96298105;-0.06164739;-0.25318155;;;;;695.9
909.0;765.5;;;;;;;;;;;;;;;;;-4.894406;1.4648885;0.6981109;;705.5
909.0;765.5;;;;;;;;;;;;;;-0.9618213;-0.062746055;-0.25482956;;;;;705.5
909.0;765.5;;;;;;;;;;;;;;;;;-5.1461835;1.5221107;0.6408887;;705.5
909.0;765.5;;;;;;;;;;;;;;-0.9622486;-0.06555376;-0.25446334;;;;;705.5
909.0;765.5;;;;;;;;;;;;;;;;;-5.386517;1.3809626;0.51499987;;715.1
909.0;765.5;;;;;;;;;;;;;;-0.96169925;-0.067445904;-0.25696585;;;;;715.1
909.0;765.5;;;;;;;;;;;;;;;;;-5.550554;1.3657033;0.42344433;;715.1
909.0;765.5;;;;;;;;;;;;;;-0.9657887;-0.068666644;-0.25898007;;;;;715.1
968.0;818.2;;;;;;;;;;;;;;;;;-5.664998;1.289407;0.27466658;;724.7
968.0;818.2;;;;;;;;;;;;;;-0.96389663;-0.07025361;-0.2580645;;;;;724.7
968.0;818.2;;;;;;;;;;;;;;;;;-5.8175907;1.1902219;0.18692587;;724.7
968.0;818.2;;;;;;;;;;;;;;-0.9657277;-0.071779534;-0.25879696;;;;;724.7
968.0;818.2;;;;;;;;;;;;;;;;;-5.878628;1.1368145;0.049592577;;734.3
968.0;818.2;;;;;;;;;;;;;;-0.96499527;-0.07306131;-0.2609943;;;;;734.3
968.0;818.2;;;;;;;;;;;;;;;;;-5.8709984;1.2016664;-0.011444441;;734.3
968.0;818.2;;;;;;;;;;;;;;-0.9640187;-0.074648276;-0.2626423;;;;;734.3
968.0;818.2;;;;;;;;;;;;;;;;;-5.878628;1.3428144;-0.18311106;;743.9
968.0;818.2;;;;;;;;;;;;;;-0.964507;-0.07727287;-0.2658162;;;;;743.9
968.0;818.2;;;;;;;;;;;;;;;;;-5.821406;1.495407;-0.26322216;;743.9
968.0;818.2;;;;;;;;;;;;;;-0.96566665;-0.07879879;-0.26947844;;;;;743.9
968.0;826.0;;;;;;;;;;;;;;;;;-5.8061466;1.7853328;-0.28992584;;753.6
968.0;826.0;;;;;;;;;;;;;;-0.967803;-0.08075198;-0.27442244;;;;;753.6
968.0;826.0;;;;;;;;;;;;;;;;;-5.6955166;2.1401105;-0.31662953;;753.6
968.0;826.0;;;;;;;;;;;;;;-0.9726249;-0.079226054;-0.27539903;;;;;753.6
968.0;826.0;;;;;;;;;;;;;;;;;-5.6192203;2.273629;-0.27466658;;763.3
968.0;826.0;;;;;;;;;;;;;;-0.97506636;-0.07794427;-0.28022096;;;;;763.3
968.0;826.0;;;;;;;;;;;;;;;;;-5.508591;2.2087772;-0.21362957;;763.3
968.0;826.0;;;;;;;;;;;;;;-0.9786065;-0.07214576;-0.27918333;;;;;763.3
968.0;826.0;;;;;;;;;;;;;;;;;-5.3788877;2.1095922;-0.17548142;;773.0
968.0;826.0;;;;;;;;;;;;;;-0.9771416;-0.06622516;-0.2794885;;;;;773.0
968.0;826.0;;;;;;;;;;;;;;;;;-5.3025913;2.0752587;-0.12207404;;773.0
968.0;826.0;;;;;;;;;;;;;;-0.97506636;-0.059694204;-0.27625355;;;;;773.0
1029.0;878.4;;;;;;;;;;;;;;;;;-5.394147;1.9989624;-0.10681479;;782.6
1029.0;878.4;;;;;;;;;;;;;;-0.9717094;-0.05365154;-0.2747276;;;;;782.6
1029.0;878.4;;;;;;;;;;;;;;;;;-5.7222204;1.9112216;-0.08774071;;782.6
1029.0;878.4;;;;;;;;;;;;;;-0.9693899;-0.049501024;-0.2728965;;;;;782.6
1029.0;878.4;;;;;;;;;;;;;;;;;-6.000702;1.6823329;-0.011444441;;792.2
1029.0;878.4;;;;;;;;;;;;;;-0.9679251;-0.046754356;-0.2700278;;;;;792.2
1029.0;878.4;;;;;;;;;;;;;;;;;-6.302072;1.4305551;0.12207404;;792.2
1029.0;878.4;;;;;;;;;;;;;;-0.9668874;-0.04687643;-0.26899013;;;;;792.2
1029.0;878.4;;;;;;;;;;;;;;;;;-6.408887;1.2588885;0.13351847;;801.9
1029.0;878.4;;;;;;;;;;;;;;-0.96627706;-0.048280284;-0.2644734;;;;;801.9
1029.0;878.4;;;;;;;;;;;;;;;;;-6.572924;0.98422194;0.22125919;;801.9
1029.0;878.4;;;;;;;;;;;;;;-0.9682913;-0.051759392;-0.26038393;;;;;801.9
1029.0;885.9;;;;;;;;;;;;;;;;;-6.6682944;0.84688866;0.38911098;;811.6
1029.0;885.9;;;;;;;;;;;;;;-0.96908474;-0.053956725;-0.25830868;;;;;811.6
1029.0;885.9;;;;;;;;;;;;;;;;;-6.6492205;0.7553331;0.59129614;;811.6
1029.0;885.9;;;;;;;;;;;;;;-0.97219765;-0.05694754;-0.25531784;;;;;811.6
1029.0;885.9;;;;;;;;;;;;;;;;;-6.6644797;0.35859248;0.7095553;;821.3
1029.0;885.9;;;;;;;;;;;;;;-0.967803;-0.060487688;-0.25629443;;;;;821.3
1029.0;885.9;;;;;;;;;;;;;;;;;-6.2448497;0.5417035;0.84688866;;821.3
1029.0;885.9;;;;;;;;;;;;;;-0.9677419;-0.06323435;-0.25495163;;;;;821.3
1029.0;885.9;;;;;;;;;;;;;;;;;-5.939665;0.84688866;1.1177404;;830.9
1029.0;885.9;;;;;;;;;;;;;;-0.96749777;-0.06591998;-0.25849178;;;;;830.9
1029.0;885.9;;;;;;;;;;;;;;;;;-5.771813;0.96896267;1.3428144;;830.9
1029.0;885.9;;;;;;;;;;;;;;-0.9688406;-0.06848354;-0.2611774;;;;;830.9
1089.0;938.6;;;;;;;;;;;;;;;;;-5.542924;1.1329997;1.6365551;;840.5
1089.0;938.6;;;;;;;;;;;;;;-0.9684744;-0.06927702;-0.26111636;;;;;840.5
1089.0;938.6;;;;;;;;;;;;;;;;;-5.0737023;1.1787775;1.7853328;;840.5
1089.0;938.6;;;;;;;;;;;;;;-0.9698172;-0.07074191;-0.26410717;;;;;840.5
1089.0;938.6;;;;;;;;;;;;;;;;;-4.4747763;1.1940367;2.0180366;;850.1
1089.0;938.6;;;;;;;;;;;;;;-0.9717094;-0.07245094;-0.26508376;;;;;850.1
1089.0;938.6;;;;;;;;;;;;;;;;;-3.8148136;1.1635182;2.2164068;;850.1
1089.0;938.6;;;;;;;;;;;;;;-0.9725028;-0.07275613;-0.2639851;;;;;850.1
1089.0;938.6;;;;;;;;;;;;;;;;;-3.3036287;1.064333;2.3422956;;859.8
1089.0;938.6;;;;;;;;;;;;;;-0.9720756;-0.072328866;-0.2616657;;;;;859.8
1089.0;938.6;;;;;;;;;;;;;;;;;-2.7924435;0.9537034;2.4300365;;859.8
1089.0;938.6;;;;;;;;;;;;;;-0.97140414;-0.06884976;-0.2614826;;;;;859.8
1089.0;939.8;;;;;;;;;;;;;;;;;-2.3613698;0.8926664;2.4491103;;869.5
1089.0;939.8;;;;;;;;;;;;;;-0.97073275;-0.06604206;-0.2624592;;;;;869.5
1089.0;939.8;;;;;;;;;;;;;;;;;-2.2431104;0.6637776;2.4071476;;869.5
1089.0;939.8;;;;;;;;;;;;;;-0.96890163;-0.062746055;-0.26233712;;;;;869.5
1089.0;939.8;;;;;;;;;;;;;;;;;-2.1210363;0.37766656;2.3537402;;879.1
1089.0;939.8;;;;;;;;;;;;;;-0.96499527;-0.059511095;-0.26337475;;;;;879.1
1089.0;939.8;;;;;;;;;;;;;;;;;-2.0447402;0.37766656;2.2392957;;879.1
1089.0;939.8;;;;;;;;;;;;;;-0.9630421;-0.056703392;-0.26374096;;;;;879.1
1089.0;939.8;;;;;;;;;;;;;;;;;-2.006592;0.6256294;2.1362956;;888.7
1089.0;939.8;;;;;;;;;;;;;;-0.9641408;-0.054811243;-0.26673177;;;;;888.7
1089.0;939.8;;;;;;;;;;;;;;;;;-2.0599995;0.7820368;2.166814;;888.7
1089.0;939.8;;;;;;;;;;;;;;-0.96353036;-0.05444502;-0.26783043;;;;;888.7
1152.0;1006.6;;;;;;;;;;;;;;;;;-2.1515548;0.9956664;2.1172216;;898.3
1152.0;1006.6;;;;;;;;;;;;;;-0.96426284;-0.054322947;-0.268746;;;;;898.3
1152.0;1006.6;;;;;;;;;;;;;;;;;-2.1858883;1.0948515;2.0561848;;898.3
1152.0;1006.6;;;;;;;;;;;;;;-0.9658498;-0.05450606;-0.2694174;;;;;898.3
1152.0;1006.6;;;;;;;;;;;;;;;;;-2.1782587;1.2703329;2.0561848;;907.9
1152.0;1006.6;;;;;;;;;;;;;;-0.96761984;-0.05346843;-0.270394;;;;;907.9
1152.0;1006.6;;;;;;;;;;;;;;;;;-2.231666;1.4381847;2.0523698;;907.9
1152.0;1006.6;;;;;;;;;;;;;;-0.9691458;-0.053102206;-0.27143162;;;;;907.9
1152.0;1006.6;;;;;;;;;;;;;;;;;-2.3499253;1.3275552;2.0485551;;917.6
1152.0;1006.6;;;;;;;;;;;;;;-0.97024447;-0.050965913;-0.2728965;;;;;917.6
1152.0;1006.6;;;;;;;;;;;;;;;;;-2.5254066;1.1558886;2.0790737;;917.6
1152.0;1006.6;;;;;;;;;;;;;;-0.96963406;-0.049195837;-0.27246925;;;;;917.6
1152.0;1007.4;;;;;;;;;;;;;;;;;-2.6970735;1.0185553;1.9951477;;927.3
1152.0;1007.4;;;;;;;;;;;;;;-0.9676809;-0.04809717;-0.2713706;;;;;927.3
1152.0;1007.4;;;;;;;;;;;;;;;;;-2.7924435;1.0681478;1.9569995;;927.3
1152.0;1007.4;;;;;;;;;;;;;;-0.96731466;-0.04510636;-0.27234718;;;;;927.3
1152.0;1007.4;;;;;;;;;;;;;;;;;-2.9526658;1.0681478;1.9112216;;936.9
1152.0;1007.4;;;;;;;;;;;;;;-0.96743673;-0.043397322;-0.2717368;;;;;936.9
1152.0;1007.4;;;;;;;;;;;;;;;;;-3.0976286;0.9956664;1.9341105;;936.9
1152.0;1007.4;;;;;;;;;;;;;;-0.96786404;-0.043336283;-0.27240822;;;;;936.9
1152.0;1007.4;;;;;;;;;;;;;;;;;-3.3112583;0.96514785;1.9188513;;946.6
1152.0;1007.4;;;;;;;;;;;;;;-0.9688406;-0.040711693;-0.2700278;;;;;946.6
1152.0;1007.4;;;;;;;;;;;;;;;;;-3.521073;0.88503677;1.8845179;;946.6
1152.0;1007.4;;;;;;;;;;;;;;-0.96987826;-0.041505173;-0.26880702;;;;;946.6
1223.0;1059.4;;;;;;;;;;;;;;;;;-3.6927397;0.75914794;1.8921475;;956.1
1223.0;1059.4;;;;;;;;;;;;;;-0.96877956;-0.042115543;-0.26831874;;;;;956.1
1223.0;1059.4;;;;;;;;;;;;;;;;;-3.78811;0.6714072;1.8921475;;956.1
1223.0;1059.4;;;;;;;;;;;;;;-0.969512;-0.042725913;-0.2679525;;;;;956.1
1223.0;1059.4;;;;;;;;;;;;;;;;;-3.952147;0.6981109;1.9112216;;965.7
1223.0;1059.4;;;;;;;;;;;;;;-0.9698172;-0.045167394;-0.26703694;;;;;965.7
1223.0;1059.4;;;;;;;;;;;;;;;;;-4.020814;0.7438887;1.9760735;;965.7
1223.0;1059.4;;;;;;;;;;;;;;-0.96896267;-0.048036136;-0.26471755;;;;;965.7
1223.0;1059.4;;;;;;;;;;;;;;;;;-4.039888;0.77440715;2.0485551;;975.2
1223.0;1059.4;;;;;;;;;;;;;;-0.96890163;-0.05285806;-0.2624592;;;;;975.2
1223.0;1059.4;;;;;;;;;;;;;;;;;-3.9445176;0.7896664;2.0981476;;975.2
1223.0;1059.4;;;;;;;;;;;;;;-0.96908474;-0.055482652;-0.26123846;;;;;975.2
1223.0;1060.0;;;;;;;;;;;;;;;;;-3.7728508;0.7858516;2.1515548;;984.8
1223.0;1060.0;;;;;;;;;;;;;;-0.96926785;-0.060487688;-0.26197088;;;;;984.8
1223.0;1060.0;;;;;;;;;;;;;;;;;-3.5363324;0.8316294;2.254555;;984.8
1223.0;1060.0;;;;;;;;;;;;;;-0.969512;-0.06268502;-0.25989562;;;;;984.8
1223.0;1060.0;;;;;;;;;;;;;;;;;-3.2845547;0.77440715;2.3308513;;994.5
1223.0;1060.0;;;;;;;;;;;;;;-0.96841335;-0.06250191;-0.26172674;;;;;994.5
1223.0;1060.0;;;;;;;;;;;;;;;;;-2.9869993;0.79729605;2.494888;;994.5
1223.0;1060.0;;;;;;;;;;;;;;-0.9700003;-0.062746055;-0.260506;;;;;994.5
1223.0;1060.0;;;;;;;;;;;;;;;;;-2.8305917;0.67903686;2.6169622;;1004.0
1223.0;1060.0;;;;;;;;;;;;;;-0.97006136;-0.061098058;-0.26190984;;;;;1004.0
1223.0;1060.0;;;;;;;;;;;;;;;;;-2.6703696;0.6256294;2.76574;;1004.0
1223.0;1060.0;;;;;;;;;;;;;;-0.96749777;-0.060304575;-0.260506;;;;;1004.0
1225.0;1120.4;;;;;;;;;;;;;;;;;-2.5254066;0.71718496;2.8496659;;1013.6
1225.0;1120.4;;;;;;;;;;;;;;-0.9671926;-0.05713065;-0.26172674;;;;;1013.6
1225.0;1120.4;;;;;;;;;;;;;;;;;-2.4719992;0.7286294;2.9259622;;1013.6
1225.0;1120.4;;;;;;;;;;;;;;-0.966216;-0.056459244;-0.26038393;;;;;1013.6
1225.0;1120.4;;;;;;;;;;;;;;;;;-2.437666;0.6981109;3.0861845;;1023.3
1225.0;1120.4;;;;;;;;;;;;;;-0.966216;-0.055604726;-0.26209295;;;;;1023.3
1225.0;1120.4;;;;;;;;;;;;;;;;;-2.311777;0.59892577;3.2425916;;1023.3
1225.0;1120.4;;;;;;;;;;;;;;-0.96646017;-0.053773616;-0.2612995;;;;;1023.3
1225.0;1120.4;;;;;;;;;;;;;;;;;-2.311777;0.5874813;3.3722954;;1033.0
1225.0;1120.4;;;;;;;;;;;;;;-0.96591085;-0.054383986;-0.26374096;;;;;1033.0
1225.0;1120.4;;;;;;;;;;;;;;;;;-2.193518;0.48829615;3.4638507;;1033.0
1225.0;1120.4;;;;;;;;;;;;;;-0.96499527;-0.052980132;-0.2649617;;;;;1033.0
1226.0;1121.2;;;;;;;;;;;;;;;;;-2.0142217;0.59511095;3.6202583;;1042.7
1226.0;1121.2;;;;;;;;;;;;;;-0.9666433;-0.05346843;-0.26545;;;;;1042.7
1226.0;1121.2;;;;;;;;;;;;;;;;;-1.9112216;0.56840724;3.7690358;;1042.7
1226.0;1121.2;;;;;;;;;;;;;;-0.966155;-0.052186653;-0.2666097;;;;;1042.7
1226.0;1121.2;;;;;;;;;;;;;;;;;-1.8082217;0.5417035;3.8834803;;1052.3
1226.0;1121.2;;;;;;;;;;;;;;-0.96731466;-0.053163245;-0.26746422;;;;;1052.3
1226.0;1121.2;;;;;;;;;;;;;;;;;-1.6975921;0.50737023;4.0017395;;1052.3
1226.0;1121.2;;;;;;;;;;;;;;-0.967803;-0.05285806;-0.2656331;;;;;1052.3
1226.0;1121.2;;;;;;;;;;;;;;;;;-1.575518;0.5035554;4.1695914;;1062.0
1226.0;1121.2;;;;;;;;;;;;;;-0.9673757;-0.052980132;-0.2675863;;;;;1062.0
1226.0;1121.2;;;;;;;;;;;;;;;;;-1.4572588;0.5035554;4.2458873;;1062.0
1226.0;1121.2;;;;;;;;;;;;;;-0.96731466;-0.051637318;-0.26850185;;;;;1062.0
1226.0;1127.2;;;;0.0;0.0;0.0;;;;;;;;;;;;;;;
1226.0;1127.2;;;;-0.122230545;0.095260635;0.063407905;;;;;;;;;;;;;;;
1226.0;1127.2;;;;-0.6542931;0.51609427;0.2139931;;;;;;;;;;;;;;;
1226.0;1127.2;;;;-0.7225533;0.5754853;0.22654727;;;;;;;;;;;;;;;
1226.0;1127.2;;;;-0.71848685;0.5729905;0.22412494;;;;;;;;;;;;;;;
1226.0;1137.2;;;;-0.7152787;0.570797;0.22154239;;;;;;;;;;;;;;;
1226.0;1137.2;;;;-0.7131005;0.56773764;0.2195969;;;;;;;;;;;;;;;
1226.0;1137.2;;;;-0.7113038;0.56392294;0.21879962;;;;;;;;;;;;;;;
1226.0;1137.2;;;;-0.71290594;0.5646973;0.21612552;;;;;;;;;;;;;;;
1226.0;1137.2;;;;-0.7157174;0.56687933;0.21377566;;;;;;;;;;;;;;;
1268.0;1138.8;57535;57440;12633;;;;;;;;;;;;;;;;;;
1268.0;1147.3;;;;-0.7181588;0.56830984;0.21206668;;;;;;;;;;;;;;;
1268.0;1147.3;;;;-0.7203713;0.5694733;0.20983127;;;;;;;;;;;;;;;
1268.0;1147.3;;;;-0.7225495;0.5701142;0.20743564;;;;;;;;;;;;;;;
1268.0;1147.3;;;;-0.72507864;0.57109076;0.20428851;;;;;;;;;;;;;;;
1268.0;1147.3;;;;-0.72612005;0.57157904;0.20102695;;;;;;;;;;;;;;;
1268.0;1157.3;;;;-0.7258454;0.56958014;0.1982117;;;;;;;;;;;;;;;
1268.0;1157.3;;;;-0.73083884;0.56836325;0.1951752;;;;;;;;;;;;;;;
1268.0;1157.3;;;;-0.7390519;0.56675345;0.19260791;;;;;;;;;;;;;;;
1268.0;1157.3;;;;-0.74690634;0.56800085;0.18960193;;;;;;;;;;;;;;;
1268.0;1157.3;;;;-0.7553216;0.5750466;0.18663026;;;;;;;;;;;;;;;
1268.0;1158.9;73873;73813;12633;;;;;;;;;;;;;;;;;;
1268.0;1165.0;;;;;;;;;;;;;0;;;;;;;;
1268.0;1165.0;;;;;;;;;;;;;0;;;;;;;;
1268.0;1165.0;;;;;;;;;;;;;-1;;;;;;;;
1268.0;1165.0;;;;;;;;;;;;;-2;;;;;;;;
1268.0;1165.0;;;;;;;;;;;;;-3;;;;;;;;
1268.0;1167.4;;;;-0.7619096;0.58466727;0.18608476;;;;;;;;;;;;;;;
1268.0;1167.4;;;;-0.76646054;0.59148794;0.1878548;;;;;;;;;;;;;;;
1268.0;1167.4;;;;-0.7680551;0.59138113;0.1906319;;;;;;;;;;;;;;;
1268.0;1167.4;;;;-0.76495373;0.58419806;0.19184878;;;;;;;;;;;;;;;
1268.0;1167.4;;;;-0.75729764;0.5743218;0.19221881;;;;;;;;;;;;;;;
1270.0;1177.5;;;;-0.74895483;0.5653687;0.19283679;;;;;;;;;;;;;;;
1270.0;1177.5;;;;-0.7417641;0.5589867;0.19359973;;;;;;;;;;;;;;;
1270.0;1177.5;;;;-0.73725516;0.55686194;0.19580081;;;;;;;;;;;;;;;
1270.0;1177.5;;;;-0.7354012;0.5574761;0.1996384;;;;;;;;;;;;;;;
1270.0;1177.5;;;;-0.7373429;0.56034476;0.20268252;;;;;;;;;;;;;;;
1270.0;1179.1;90249;90274;12644;;;;;;;;;;;;;;;;;;
1270.0;1179.9;;;;;;;;;;;;;;;;;-1.3237404;0.553148;4.352702;;1071.5
1270.0;1179.9;;;;;;;;;;;;;;-0.9668264;-0.05182043;-0.26899013;;;;;1071.5
1270.0;1179.9;;;;;;;;;;;;;;;;;-1.2512589;0.57222205;4.440443;;1071.5
1270.0;1179.9;;;;;;;;;;;;;;-0.9679861;-0.053163245;-0.26856288;;;;;1071.5
1270.0;1179.9;;;;;;;;;;;;;;;;;-1.0605181;0.65614796;4.528184;;1081.1
1270.0;1179.9;;;;;;;;;;;;;;-0.9677419;-0.053529467;-0.26868495;;;;;1081.1
1270.0;1179.9;;;;;;;;;;;;;;;;;-0.77822196;0.6675924;4.6121097;;1081.1
1270.0;1179.9;;;;;;;;;;;;;;-0.9691458;-0.0540788;-0.267098;;;;;1081.1
1270.0;1179.9;;;;;;;;;;;;;;;;;-0.57222205;0.5188147;4.6617026;;1090.7
1270.0;1179.9;;;;;;;;;;;;;;-0.9683523;-0.0540788;-0.2666097;;;;;1090.7
1270.0;1179.9;;;;;;;;;;;;;;;;;-0.35859248;0.5264443;4.7608876;;1090.7
1270.0;1179.9;;;;;;;;;;;;;;-0.9665212;-0.055543687;-0.26569414;;;;;1090.7
1271.0;1180.6;;;;;;;;;;;;;;;;;-0.19837031;0.54933316;4.8677025;;1100.4
1271.0;1180.6;;;;;;;;;;;;;;-0.96462905;-0.054994356;-0.26386303;;;;;1100.4
1271.0;1180.6;;;;;;;;;;;;;;;;;0.22507401;0.6599628;4.837184;;1100.4
1271.0;1180.6;;;;;;;;;;;;;;-0.96511734;-0.05468917;-0.26490065;;;;;1100.4
1271.0;1180.6;;;;;;;;;;;;;;;;;0.5188147;0.6981109;4.8829613;;1110.0
1271.0;1180.6;;;;;;;;;;;;;;-0.9637745;-0.055482652;-0.26306954;;;;;1110.0
1271.0;1180.6;;;;;;;;;;;;;;;;;0.94225895;0.7477035;4.955443;;1110.0
1271.0;1180.6;;;;;;;;;;;;;;-0.9635914;-0.05749687;-0.26190984;;;;;1110.0
1271.0;1180.6;;;;;;;;;;;;;;;;;1.3161107;0.8735923;4.993591;;1119.7
1271.0;1180.6;;;;;;;;;;;;;;-0.96444595;-0.055177465;-0.26313058;;;;;1119.7
1271.0;1180.6;;;;;;;;;;;;;;;;;1.8196661;1.0185553;5.0241094;;1119.7
1271.0;1180.6;;;;;;;;;;;;;;-0.966155;-0.05450606;-0.26349682;;;;;1119.7
1271.0;1187.3;;;;-0.7412186;0.5644036;0.20380786;;;;;;;;;;;;;;;
1271.0;1187.3;;;;-0.74631125;0.568348;0.2035332;;;;;;;;;;;;;;;
1271.0;1187.3;;;;-0.7508203;0.5704308;0.20305637;;;;;;;;;;;;;;;
1271.0;1187.3;;;;-0.755623;0.5702515;0.20075992;;;;;;;;;;;;;;;
1271.0;1187.3;;;;-0.7612077;0.5689011;0.19869235;;;;;;;;;;;;;;;
1271.0;1197.3;;;;-0.7660028;0.5665932;0.19645694;;;;;;;;;;;;;;;
1271.0;1197.3;;;;-0.7688142;0.5661736;0.19352344;;;;;;;;;;;;;;;
1271.0;1197.3;;;;-0.7698747;0.5686341;0.19025043;;;;;;;;;;;;;;;
1271.0;1197.3;;;;-0.7700578;0.5734635;0.18764499;;;;;;;;;;;;;;;
1271.0;1197.3;;;;-0.77007306;0.579506;0.18400194;;;;;;;;;;;;;;;
1271.0;1199.0;106640;106607;12630;;;;;;;;;;;;;;;;;;
1327.0;1205.2;;;;;;;;;;;;;-6;;;;;;;;
1327.0;1205.2;;;;;;;;;;;;;-7;;;;;;;;
1327.0;1205.2;;;;;;;;;;;;;-8;;;;;;;;
1327.0;1205.2;;;;;;;;;;;;;-14;;;;;;;;
1327.0;1205.2;;;;;;;;;;;;;-18;;;;;;;;
1327.0;1207.2;;;;-0.7706605;0.58204275;0.18055727;;;;;;;;;;;;;;;
1327.0;1207.2;;;;-0.7696725;0.58058554;0.17718889;;;;;;;;;;;;;;;
1327.0;1207.2;;;;-0.7672883;0.5755883;0.17395784;;;;;;;;;;;;;;;
1327.0;1207.2;;;;-0.7637559;0.569603;0.17131807;;;;;;;;;;;;;;;
1327.0;1207.2;;;;-0.7612077;0.5652352;0.16896059;;;;;;;;;;;;;;;
1327.0;1217.4;;;;-0.7590333;0.5614434;0.16799928;;;;;;;;;;;;;;;
1327.0;1217.4;;;;-0.75548565;0.5585938;0.16715623;;;;;;;;;;;;;;;
1327.0;1217.4;;;;-0.7524148;0.5568047;0.16752626;;;;;;;;;;;;;;;
1327.0;1217.4;;;;-0.7490311;0.5565682;0.16860963;;;;;;;;;;;;;;;
1327.0;1217.4;;;;-0.7459908;0.5559426;0.17010881;;;;;;;;;;;;;;;
1327.0;1219.1;123029;122915;12655;;;;;;;;;;;;;;;;;;
1327.0;1227.5;;;;-0.74353033;0.55543524;0.17141725;;;;;;;;;;;;;;;
1327.0;1227.5;;;;-0.7411156;0.55562216;0.17342378;;;;;;;;;;;;;;;
1327.0;1227.5;;;;-0.7391091;0.5573388;0.1745949;;;;;;;;;;;;;;;
1327.0;1227.5;;;;-0.7368546;0.559311;0.17552568;;;;;;;;;;;;;;;
1327.0;1227.5;;;;-0.734356;0.5610123;0.17699815;;;;;;;;;;;;;;;
1329.0;1237.6;;;;-0.7316132;0.5617295;0.17892076;;;;;;;;;;;;;;;
1329.0;1237.6;;;;-0.72905356;0.5611649;0.18180849;;;;;;;;;;;;;;;
1329.0;1237.6;;;;-0.72770697;0.56120306;0.18413927;;;;;;;;;;;;;;;
1329.0;1237.6;;;;-0.72671896;0.561966;0.18632509;;;;;;;;;;;;;;;
1329.0;1237.6;;;;-0.72510535;0.562893;0.18934634;;;;;;;;;;;;;;;
1329.0;1239.4;139420;139399;12652;;;;;;;;;;;;;;;;;;
1329.0;1240.4;;;;;;;;;;;;;;;;;2.212592;1.0795922;5.1499987;;1129.3
1329.0;1240.4;;;;;;;;;;;;;;-0.96743673;-0.053529467;-0.2630085;;;;;1129.3
1329.0;1240.4;;;;;;;;;;;;;;;;;2.6131475;1.0757774;5.165258;;1129.3
1329.0;1240.4;;;;;;;;;;;;;;-0.96823025;-0.051759392;-0.26227608;;;;;1129.3
1329.0;1240.4;;;;;;;;;;;;;;;;;2.887814;0.90411085;5.2148504;;1139.0
1329.0;1240.4;;;;;;;;;;;;;;-0.967803;-0.048280284;-0.26343578;;;;;1139.0
1329.0;1240.4;;;;;;;;;;;;;;;;;3.2044435;0.8697775;5.2148504;;1139.0
1329.0;1240.4;;;;;;;;;;;;;;-0.9685354;-0.045960877;-0.26123846;;;;;1139.0
1329.0;1240.4;;;;;;;;;;;;;;;;;3.4257026;0.9117405;5.272073;;1148.4
1329.0;1240.4;;;;;;;;;;;;;;-0.9671926;-0.0430311;-0.2606891;;;;;1148.4
1329.0;1240.4;;;;;;;;;;;;;;;;;3.563036;0.96514785;5.279702;;1148.4
1329.0;1240.4;;;;;;;;;;;;;;-0.96676534;-0.0397351;-0.25946838;;;;;1148.4
1330.0;1241.2;;;;;;;;;;;;;;;;;3.6774805;1.0299997;5.287332;;1158.1
1330.0;1241.2;;;;;;;;;;;;;;-0.96511734;-0.03668325;-0.25782037;;;;;1158.1
1330.0;1241.2;;;;;;;;;;;;;;;;;3.7537766;1.0071108;5.237739;;1158.1
1330.0;1241.2;;;;;;;;;;;;;;-0.9657887;-0.0336314;-0.2580645;;;;;1158.1
1330.0;1241.2;;;;;;;;;;;;;;;;;3.8300729;1.0261849;5.199591;;1167.7
1330.0;1241.2;;;;;;;;;;;;;;-0.9653615;-0.03180029;-0.2580645;;;;;1167.7
1330.0;1241.2;;;;;;;;;;;;;;;;;3.7957397;1.0567034;5.165258;;1167.7
1330.0;1241.2;;;;;;;;;;;;;;-0.967803;-0.03051851;-0.25678274;;;;;1167.7
1330.0;1241.2;;;;;;;;;;;;;;;;;3.7957397;1.1711478;5.1538134;;1177.4
1330.0;1241.2;;;;;;;;;;;;;;-0.9697562;-0.03051851;-0.25898007;;;;;1177.4
1330.0;1241.2;;;;;;;;;;;;;;;;;3.8834803;1.2359996;5.11948;;1177.4
1330.0;1241.2;;;;;;;;;;;;;;-0.9701224;-0.030762658;-0.258858;;;;;1177.4
1330.0;1245.3;;;;;;;;;;;;;-8;;;;;;;;
1330.0;1245.3;;;;;;;;;;;;;-19;;;;;;;;
1330.0;1245.3;;;;;;;;;;;;;-11;;;;;;;;
1330.0;1245.3;;;;;;;;;;;;;-18;;;;;;;;
1330.0;1245.3;;;;;;;;;;;;;-64;;;;;;;;
1330.0;1247.3;;;;-0.72300345;0.5628968;0.19281772;;;;;;;;;;;;;;;
1330.0;1247.3;;;;-0.72113043;0.56127936;0.19566348;;;;;;;;;;;;;;;
1330.0;1247.3;;;;-0.71998984;0.55969626;0.19700626;;;;;;;;;;;;;;;
1330.0;1247.3;;;;-0.71996313;0.5580788;0.19920734;;;;;;;;;;;;;;;
1330.0;1247.3;;;;-0.71999747;0.5574685;0.2007828;;;;;;;;;;;;;;;
1389.0;1257.3;;;;-0.72087485;0.55635077;0.20296481;;;;;;;;;;;;;;;
1389.0;1257.3;;;;-0.7226067;0.5556107;0.20456317;;;;;;;;;;;;;;;
1389.0;1257.3;;;;-0.726101;0.555275;0.206646;;;;;;;;;;;;;;;
1389.0;1257.3;;;;-0.7303353;0.555378;0.20931628;;;;;;;;;;;;;;;
1389.0;1257.3;;;;-0.7353669;0.5559121;0.21285632;;;;;;;;;;;;;;;
1389.0;1259.2;155889;155798;12659;;;;;;;;;;;;;;;;;;
1389.0;1267.4;;;;-0.740696;0.55702215;0.21525958;;;;;;;;;;;;;;;
1389.0;1267.4;;;;-0.7459374;0.55937964;0.21743014;;;;;;;;;;;;;;;
1389.0;1267.4;;;;-0.75058377;0.56158453;0.21929935;;;;;;;;;;;;;;;
1389.0;1267.4;;;;-0.754017;0.56364065;0.22143176;;;;;;;;;;;;;;;
1389.0;1267.4;;;;-0.7564393;0.56558233;0.22332004;;;;;;;;;;;;;;;
1389.0;1277.3;;;;-0.7572099;0.5685654;0.22558978;;;;;;;;;;;;;;;
1389.0;1277.3;;;;-0.7561227;0.572033;0.22788623;;;;;;;;;;;;;;;
1389.0;1277.3;;;;-0.7535211;0.5755196;0.22999957;;;;;;;;;;;;;;;
1389.0;1277.3;;;;-0.7516328;0.574936;0.23131564;;;;;;;;;;;;;;;
1389.0;1277.3;;;;-0.7490731;0.5757714;0.23228839;;;;;;;;;;;;;;;
1389.0;1279.2;172126;172231;12676;;;;;;;;;;;;;;;;;;
1389.0;1285.3;;;;;;;;;;;;;124;;;;;;;;
1389.0;1285.3;;;;;;;;;;;;;-37;;;;;;;;
1389.0;1285.3;;;;;;;;;;;;;-606;;;;;;;;
1389.0;1285.3;;;;;;;;;;;;;206;;;;;;;;
1389.0;1285.3;;;;;;;;;;;;;1665;;;;;;;;
1392.0;1287.4;;;;-0.74691397;0.5761948;0.23385242;;;;;;;;;;;;;;;
1392.0;1287.4;;;;-0.74533087;0.5758515;0.23577502;;;;;;;;;;;;;;;
1392.0;1287.4;;;;-0.7469674;0.5751458;0.23719409;;;;;;;;;;;;;;;
1392.0;1287.4;;;;-0.7491761;0.57394415;0.23851779;;;;;;;;;;;;;;;
1392.0;1287.4;;;;-0.7517129;0.57144934;0.24028018;;;;;;;;;;;;;;;
1392.0;1297.5;;;;-0.7545396;0.56970984;0.24030688;;;;;;;;;;;;;;;
1392.0;1297.5;;;;-0.7600633;0.572033;0.23866275;;;;;;;;;;;;;;;
1392.0;1297.5;;;;-0.76789105;0.57122046;0.23962787;;;;;;;;;;;;;;;
1392.0;1297.5;;;;-0.7720033;0.5624314;0.2458916;;;;;;;;;;;;;;;
1392.0;1297.5;;;;-0.77741253;0.55221945;0.2544289;;;;;;;;;;;;;;;
1392.0;1299.4;188535;188503;12670;;;;;;;;;;;;;;;;;;
1392.0;1300.2;;;;;;;;;;;;;;;;;3.8300729;1.3275552;5.1271095;;1187.0
1392.0;1300.2;;;;;;;;;;;;;;-0.9723197;-0.030457472;-0.26038393;;;;;1187.0
1392.0;1300.2;;;;;;;;;;;;;;;;;3.7919247;1.3618885;5.0202947;;1187.0
1392.0;1300.2;;;;;;;;;;;;;;-0.97518843;-0.029175695;-0.2612995;;;;;1187.0
1392.0;1300.2;;;;;;;;;;;;;;;;;3.807184;1.4305551;4.9439983;;1196.7
1392.0;1300.2;;;;;;;;;;;;;;-0.97598195;-0.027466659;-0.26258126;;;;;1196.7
1392.0;1300.2;;;;;;;;;;;;;;;;;3.7423322;1.5335552;4.894406;;1196.7
1392.0;1300.2;;;;;;;;;;;;;;-0.9767754;-0.025635548;-0.2626423;;;;;1196.7
1392.0;1300.2;;;;;;;;;;;;;;;;;3.7041843;1.5640736;4.837184;;1206.3
1392.0;1300.2;;;;;;;;;;;;;;-0.97683644;-0.023194067;-0.2620319;;;;;1206.3
1392.0;1300.2;;;;;;;;;;;;;;;;;3.6431472;1.5984069;4.791406;;1206.3
1392.0;1300.2;;;;;;;;;;;;;;-0.97653127;-0.021973327;-0.2620319;;;;;1206.3
1394.0;1301.0;;;;;;;;;;;;;;;;;3.5134435;1.5297403;4.7608876;;1215.9
1394.0;1301.0;;;;;;;;;;;;;;-0.97286904;-0.018982513;-0.26178777;;;;;1215.9
1394.0;1301.0;;;;;;;;;;;;;;;;;3.456221;1.4496292;4.669332;;1215.9
1394.0;1301.0;;;;;;;;;;;;;;-0.97219765;-0.017883847;-0.26319164;;;;;1215.9
1394.0;1301.0;;;;;;;;;;;;;;;;;3.3455918;1.5526291;4.623554;;1225.6
1394.0;1301.0;;;;;;;;;;;;;;-0.9731132;-0.014221625;-0.25959045;;;;;1225.6
1394.0;1301.0;;;;;;;;;;;;;;;;;3.257851;1.5335552;4.608295;;1225.6
1394.0;1301.0;;;;;;;;;;;;;;-0.97036654;-0.012573626;-0.2582476;;;;;1225.6
1394.0;1301.0;;;;;;;;;;;;;;;;;3.1968138;1.3657033;4.528184;;1235.2
1394.0;1301.0;;;;;;;;;;;;;;-0.9706107;-0.01147496;-0.2550737;;;;;1235.2
1394.0;1301.0;;;;;;;;;;;;;;;;;3.093814;1.3428144;4.6006656;;1235.2
1394.0;1301.0;;;;;;;;;;;;;;-0.96877956;-0.009338664;-0.25305948;;;;;1235.2
1394.0;1307.4;;;;-0.785679;0.5335236;0.26373675;;;;;;;;;;;;;;;
1394.0;1307.4;;;;-0.79408276;0.513424;0.2708893;;;;;;;;;;;;;;;
1394.0;1307.4;;;;-0.80010617;0.49409872;0.27773288;;;;;;;;;;;;;;;
1394.0;1307.4;;;;-0.80311215;0.48457724;0.28411487;;;;;;;;;;;;;;;
1394.0;1307.4;;;;-0.8044168;0.4855004;0.2902489;;;;;;;;;;;;;;;
1396.0;1315.2;;;;;;;;;;;;;;;;;2.8954437;1.2207403;4.6044803;;1244.9
1396.0;1315.2;;;;;;;;;;;;;;-0.96731466;-0.009094516;-0.25135043;;;;;1244.9
1396.0;1315.2;;;;;;;;;;;;;;;;;2.6245918;1.1902219;4.5243692;;1244.9
1396.0;1315.2;;;;;;;;;;;;;;-0.96658224;-0.00634785;-0.2484817;;;;;1244.9
1396.0;1315.2;;;;;;;;;;;;;;;;;2.418592;1.1978515;4.4328136;;1254.5
1396.0;1315.2;;;;;;;;;;;;;;-0.96566665;-0.0053712577;-0.25006866;;;;;1254.5
1396.0;1315.2;;;;;;;;;;;;;;;;;2.2659993;1.2550737;4.379406;;1254.5
1396.0;1315.2;;;;;;;;;;;;;;-0.9642018;-0.0055543687;-0.25214392;;;;;1254.5
1396.0;1315.2;;;;;;;;;;;;;;;;;1.9188513;1.2970366;4.387036;;1264.1
1396.0;1315.2;;;;;;;;;;;;;;-0.96334726;-0.0036622211;-0.25531784;;;;;1264.1
1396.0;1315.2;;;;;;;;;;;;;;;;;1.4610736;1.3809626;4.3031096;;1264.1
1396.0;1315.2;;;;;;;;;;;;;;-0.96334726;-0.0015869625;-0.25666067;;;;;1264.1
1396.0;1317.3;;;;-0.80318844;0.49913412;0.29451755;;;;;;;;;;;;;;;
1396.0;1317.3;;;;-0.8013574;0.51605994;0.3001137;;;;;;;;;;;;;;;
1396.0;1317.3;;;;-0.79552853;0.52735525;0.3033066;;;;;;;;;;;;;;;
1396.0;1317.3;;;;-0.78577816;0.539589;0.30397037;;;;;;;;;;;;;;;
1396.0;1317.3;;;;-0.77389157;0.55341345;0.3033791;;;;;;;;;;;;;;;
1396.0;1319.3;204900;204956;12669;;;;;;;;;;;;;;;;;;
1396.0;1325.4;;;;;;;;;;;;;516;;;;;;;;
1396.0;1325.4;;;;;;;;;;;;;-3070;;;;;;;;
1396.0;1325.4;;;;;;;;;;;;;-4807;;;;;;;;
1396.0;1325.4;;;;;;;;;;;;;-2170;;;;;;;;
1396.0;1325.4;;;;;;;;;;;;;1756;;;;;;;;
1449.0;1327.3;;;;-0.76210797;0.56708914;0.30380252;;;;;;;;;;;;;;;
1449.0;1327.3;;;;-0.75306714;0.5799294;0.303463;;;;;;;;;;;;;;;
1449.0;1327.3;;;;-0.7471276;0.59035116;0.30237582;;;;;;;;;;;;;;;
1449.0;1327.3;;;;-0.7440949;0.59696585;0.29882434;;;;;;;;;;;;;;;
1449.0;1327.3;;;;-0.7429505;0.59946066;0.29324344;;;;;;;;;;;;;;;
1449.0;1337.0;;;;-0.74311453;0.60067374;0.287365;;;;;;;;;;;;;;;
1449.0;1337.0;;;;-0.7454987;0.59854513;0.28179553;;;;;;;;;;;;;;;
1449.0;1337.0;;;;-0.7490464;0.5934945;0.27582553;;;;;;;;;;;;;;;
1449.0;1337.0;;;;-0.7531434;0.5881539;0.26829913;;;;;;;;;;;;;;;
1449.0;1337.0;;;;-0.7568704;0.58245474;0.2610474;;;;;;;;;;;;;;;
1449.0;1339.0;221268;221357;12674;;;;;;;;;;;;;;;;;;
1449.0;1347.1;;;;-0.7612039;0.57879645;0.25468448;;;;;;;;;;;;;;;
1449.0;1347.1;;;;-0.7663461;0.57593924;0.24913791;;;;;;;;;;;;;;;
1449.0;1347.1;;;;-0.7714654;0.57485205;0.2438164;;;;;;;;;;;;;;;
1449.0;1347.1;;;;-0.77762234;0.5753556;0.23774722;;;;;;;;;;;;;;;
1449.0;1347.1;;;;-0.7844316;0.5774651;0.23126987;;;;;;;;;;;;;;;
1449.0;1357.2;;;;-0.79200757;0.57911307;0.22592929;;;;;;;;;;;;;;;
1449.0;1357.2;;;;-0.7993928;0.5796929;0.22103885;;;;;;;;;;;;;;;
1449.0;1357.2;;;;-0.805256;0.58095556;0.21701053;;;;;;;;;;;;;;;
1449.0;1357.2;;;;-0.8115541;0.5818711;0.21422961;;;;;;;;;;;;;;;
1449.0;1357.2;;;;-0.81598675;0.58214957;0.2123299;;;;;;;;;;;;;;;
1452.0;1359.3;237677;237681;12674;;;;;;;;;;;;;;;;;;
1452.0;1360.3;;;;;;;;;;;;;;;;;1.0681478;1.6670736;4.337443;;1273.6
1452.0;1360.3;;;;;;;;;;;;;;-0.9658498;-6.714072E-4;-0.25946838;;;;;1273.6
1452.0;1360.3;;;;;;;;;;;;;;;;;0.7286294;1.5793328;4.234443;;1273.6
1452.0;1360.3;;;;;;;;;;;;;;-0.967803;-0.0022583697;-0.2630085;;;;;1273.6
1452.0;1360.3;;;;;;;;;;;;;;;;;0.67903686;1.6403699;4.203925;;1283.3
1452.0;1360.3;;;;;;;;;;;;;;-0.96743673;-0.0040284432;-0.26502272;;;;;1283.3
1452.0;1360.3;;;;;;;;;;;;;;;;;0.7553331;1.6060365;4.2687764;;1283.3
1452.0;1360.3;;;;;;;;;;;;;;-0.9699393;-0.008667257;-0.26392406;;;;;1283.3
1452.0;1360.3;;;;;;;;;;;;;;;;;0.7705924;1.3504441;4.3031096;;1292.9
1452.0;1360.3;;;;;;;;;;;;;;-0.97036654;-0.012939848;-0.25965148;;;;;1292.9
1452.0;1360.3;;;;;;;;;;;;;;;;;0.8087405;0.9575182;4.4366283;;1292.9
1452.0;1360.3;;;;;;;;;;;;;;-0.9709769;-0.015808588;-0.2547075;;;;;1292.9
1452.0;1365.2;;;;;;;;;;;;;2409;;;;;;;;
1452.0;1365.2;;;;;;;;;;;;;-154;;;;;;;;
1452.0;1365.2;;;;;;;;;;;;;-1991;;;;;;;;
1452.0;1365.2;;;;;;;;;;;;;-1637;;;;;;;;
1452.0;1365.2;;;;;;;;;;;;;-1302;;;;;;;;
1452.0;1367.1;;;;-0.8197442;0.5816613;0.21070102;;;;;;;;;;;;;;;
1452.0;1367.1;;;;-0.8226739;0.5810624;0.21006015;;;;;;;;;;;;;;;
1452.0;1367.1;;;;-0.82582104;0.57980734;0.20927814;;;;;;;;;;;;;;;
1452.0;1367.1;;;;-0.82955563;0.57789236;0.20818713;;;;;;;;;;;;;;;
1452.0;1367.1;;;;-0.8332635;0.57565695;0.20702747;;;;;;;;;;;;;;;
1509.0;1375.0;;;;;;;;;;;;;;;;;0.9537034;0.67522204;4.3755913;;1302.6
1509.0;1375.0;;;;;;;;;;;;;;-0.9700003;-0.016663106;-0.24536882;;;;;1302.6
1509.0;1375.0;;;;;;;;;;;;;;;;;0.9537034;-0.053407393;4.379406;;1302.6
1509.0;1375.0;;;;;;;;;;;;;;-0.9693289;-0.017456587;-0.23371075;;;;;1302.6
1509.0;1375.0;;;;;;;;;;;;;;;;;1.1215552;-0.7705924;4.325999;;1312.3
1509.0;1375.0;;;;;;;;;;;;;;-0.9643239;-0.016235847;-0.22449416;;;;;1312.3
1509.0;1375.0;;;;;;;;;;;;;;;;;1.3428144;-1.0071108;4.3946652;;1312.3
1509.0;1375.0;;;;;;;;;;;;;;-0.9635914;-0.015137181;-0.21619312;;;;;1312.3
1509.0;1375.0;;;;;;;;;;;;;;;;;1.2817774;-1.4610736;4.5587025;;1321.8
1509.0;1375.0;;;;;;;;;;;;;;-0.9607837;-0.01391644;-0.21387371;;;;;1321.8
1509.0;1375.0;;;;;;;;;;;;;;;;;1.003296;-2.0447402;4.650258;;1321.8
1509.0;1375.0;;;;;;;;;;;;;;-0.9607227;-0.012024293;-0.21594897;;;;;1321.8
1509.0;1377.0;;;;-0.83670056;0.5758324;0.20666888;;;;;;;;;;;;;;;
1509.0;1377.0;;;;-0.8409196;0.5745278;0.20700076;;;;;;;;;;;;;;;
1509.0;1377.0;;;;-0.8442155;0.57207495;0.20780185;;;;;;;;;;;;;;;
1509.0;1377.0;;;;-0.8456689;0.5686112;0.20714572;;;;;;;;;;;;;;;
1509.0;1377.0;;;;-0.8456346;0.56345755;0.2037659;;;;;;;;;;;;;;;
1509.0;1379.2;254056;254085;12677;;;;;;;;;;;;;;;;;;
1509.0;1387.2;;;;-0.84251034;0.5560761;0.1991997;;;;;;;;;;;;;;;
1509.0;1387.2;;;;-0.8344575;0.54806906;0.19269565;;;;;;;;;;;;;;;
1509.0;1387.2;;;;-0.82231534;0.5404168;0.18733217;;;;;;;;;;;;;;;
1509.0;1387.2;;;;-0.8065225;0.5344544;0.18573;;;;;;;;;;;;;;;
1509.0;1387.2;;;;-0.7880441;0.5297242;0.18833926;;;;;;;;;;;;;;;
1512.0;1397.1;;;;-0.77001965;0.5264092;0.19222263;;;;;;;;;;;;;;;
1512.0;1397.1;;;;-0.753441;0.5235787;0.19622043;;;;;;;;;;;;;;;
1512.0;1397.1;;;;-0.7398873;0.521946;0.20024112;;;;;;;;;;;;;;;
1512.0;1397.1;;;;-0.7284127;0.5207215;0.2045975;;;;;;;;;;;;;;;
1512.0;1397.1;;;;-0.71981436;0.5208779;0.20959094;;;;;;;;;;;;;;;
1512.0;1399.3;262143;262143;12681;;;;;;;;;;;;;;;;;;
1512.0;1405.4;;;;;;;;;;;;;-1743;;;;;;;;
1512.0;1405.4;;;;;;;;;;;;;-1892;;;;;;;;
1512.0;1405.4;;;;;;;;;;;;;-1787;;;;;;;;
1512.0;1405.4;;;;;;;;;;;;;-2302;;;;;;;;
1512.0;1405.4;;;;;;;;;;;;;-3463;;;;;;;;
1512.0;1407.2;;;;-0.7136231;0.52174765;0.21489337;;;;;;;;;;;;;;;
1512.0;1407.2;;;;-0.7097054;0.52314;0.2202225;;;;;;;;;;;;;;;
1512.0;1407.2;;;;-0.7080155;0.52480704;0.22539905;;;;;;;;;;;;;;;
1512.0;1407.2;;;;-0.7087708;0.5263215;0.23095706;;;;;;;;;;;;;;;
1512.0;1407.2;;;;-0.7108727;0.5282288;0.23484805;;;;;;;;;;;;;;;
1512.0;1417.3;;;;-0.7144547;0.5316315;0.23838809;;;;;;;;;;;;;;;
1512.0;1417.3;;;;-0.71801764;0.53560644;0.24305347;;;;;;;;;;;;;;;
1512.0;1417.3;;;;-0.72232443;0.5400811;0.24728015;;;;;;;;;;;;;;;
1512.0;1417.3;;;;-0.7259522;0.5446244;0.25039294;;;;;;;;;;;;;;;
1512.0;1417.3;;;;-0.7292252;0.54879385;0.2516289;;;;;;;;;;;;;;;
1512.0;1419.5;262143;262143;12683;;;;;;;;;;;;;;;;;;
1514.0;1420.3;;;;;;;;;;;;;;;;;0.86214787;-2.3728142;4.711295;;1331.5
1514.0;1420.3;;;;;;;;;;;;;;-0.9630421;-0.0081789605;-0.21625416;;;;;1331.5
1514.0;1420.3;;;;;;;;;;;;;;;;;0.7095553;-3.1128879;4.886776;;1331.5
1514.0;1420.3;;;;;;;;;;;;;;-0.96316415;-0.0026245918;-0.21350749;;;;;1331.5
1514.0;1420.3;;;;;;;;;;;;;;;;;0.45014802;-4.360332;5.130924;;1341.2
1514.0;1420.3;;;;;;;;;;;;;;-0.95559555;0.0045167394;-0.2125309;;;;;1341.2
1514.0;1420.3;;;;;;;;;;;;;;;;;0.32425916;-5.53148;5.489517;;1341.2
1514.0;1420.3;;;;;;;;;;;;;;-0.9494308;0.01147496;-0.21161534;;;;;1341.2
1514.0;1420.3;;;;;;;;;;;;;;;;;0.14496292;-6.286813;5.821406;;1350.8
1514.0;1420.3;;;;;;;;;;;;;;-0.94320506;0.015381329;-0.21662039;;;;;1350.8
1514.0;1420.3;;;;;;;;;;;;;;;;;-0.17929624;-6.7560353;6.263924;;1350.8
1514.0;1420.3;;;;;;;;;;;;;;-0.94247264;0.021851253;-0.22583698;;;;;1350.8
1514.0;1427.3;;;;-0.73177344;0.5518685;0.25298312;;;;;;;;;;;;;;;
1514.0;1427.3;;;;-0.73325735;0.5539742;0.25246814;;;;;;;;;;;;;;;
1514.0;1427.3;;;;-0.73252875;0.55476004;0.25029376;;;;;;;;;;;;;;;
1514.0;1427.3;;;;-0.73107535;0.55548865;0.24869922;;;;;;;;;;;;;;;
1514.0;1427.3;;;;-0.7295266;0.55502325;0.24455264;;;;;;;;;;;;;;;
1515.0;1435.2;;;;;;;;;;;;;;;;;-0.4196295;-6.939146;6.7102575;;1360.4
1515.0;1435.2;;;;;;;;;;;;;;-0.9425337;0.023621326;-0.24274422;;;;;1360.4
1515.0;1435.2;;;;;;;;;;;;;;;;;-0.79348123;-7.4007387;7.2977386;;1360.4
1515.0;1435.2;;;;;;;;;;;;;;-0.9437544;0.0237434;-0.2600177;;;;;1360.4
1515.0;1435.2;;;;;;;;;;;;;;;;;-1.3580737;-8.610034;7.843257;;1370.1
1515.0;1435.2;;;;;;;;;;;;;;-0.94827116;0.023804437;-0.27503282;;;;;1370.1
1515.0;1435.2;;;;;;;;;;;;;;;;;-1.3618885;-9.250923;8.556626;;1370.1
1515.0;1435.2;;;;;;;;;;;;;;-0.95883054;0.021423994;-0.2849208;;;;;1370.1
1515.0;1435.2;;;;;;;;;;;;;;;;;-0.4463332;-9.208961;9.334849;;1379.7
1515.0;1435.2;;;;;;;;;;;;;;-0.9733573;0.017883847;-0.30268258;;;;;1379.7
1515.0;1435.2;;;;;;;;;;;;;;;;;1.2207403;-8.960998;10.23896;;1379.7
1515.0;1435.2;;;;;;;;;;;;;;-0.98568684;0.016296884;-0.3160497;;;;;1379.7
1515.0;1437.1;;;;-0.7274781;0.5538903;0.2408028;;;;;;;;;;;;;;;
1515.0;1437.1;;;;-0.7253991;0.55245596;0.23709872;;;;;;;;;;;;;;;
1515.0;1437.1;;;;-0.72425085;0.55071265;0.23359683;;;;;;;;;;;;;;;
1515.0;1437.1;;;;-0.72404486;0.54884344;0.22913745;;;;;;;;;;;;;;;
1515.0;1437.1;;;;-0.7239838;0.54582983;0.22558597;;;;;;;;;;;;;;;
1515.0;1439.5;262143;262143;12689;;;;;;;;;;;;;;;;;;
1515.0;1445.5;;;;;;;;;;;;;-4053;;;;;;;;
1515.0;1445.5;;;;;;;;;;;;;-3066;;;;;;;;
1515.0;1445.5;;;;;;;;;;;;;-1478;;;;;;;;
1515.0;1445.5;;;;;;;;;;;;;-1105;;;;;;;;
1515.0;1445.5;;;;;;;;;;;;;-1999;;;;;;;;
1568.0;1447.2;;;;-0.7239495;0.5408974;0.2206116;;;;;;;;;;;;;;;
1568.0;1447.2;;;;-0.723362;0.53396994;0.21541217;;;;;;;;;;;;;;;
1568.0;1447.2;;;;-0.7221108;0.52607733;0.20751956;;;;;;;;;;;;;;;
1568.0;1447.2;;;;-0.71967703;0.5185204;0.2005234;;;;;;;;;;;;;;;
1568.0;1447.2;;;;-0.7159119;0.51162344;0.19498828;;;;;;;;;;;;;;;
1568.0;1457.0;;;;-0.7104607;0.5065041;0.19139865;;;;;;;;;;;;;;;
1568.0;1457.0;;;;-0.70455176;0.5025597;0.18786624;;;;;;;;;;;;;;;
1568.0;1457.0;;;;-0.69850546;0.49897772;0.18529893;;;;;;;;;;;;;;;
1568.0;1457.0;;;;-0.6924744;0.4952889;0.18311693;;;;;;;;;;;;;;;
1568.0;1457.0;;;;-0.68643194;0.49182135;0.17937852;;;;;;;;;;;;;;;
1568.0;1459.3;262143;262143;12697;;;;;;;;;;;;;;;;;;
1568.0;1467.1;;;;-0.6801186;0.48653036;0.17609407;;;;;;;;;;;;;;;
1568.0;1467.1;;;;-0.67148596;0.4810601;0.17377473;;;;;;;;;;;;;;;
1568.0;1467.1;;;;-0.6620675;0.47493368;0.17469026;;;;;;;;;;;;;;;
1568.0;1467.1;;;;-0.6522675;0.47004324;0.17888261;;;;;;;;;;;;;;;
1568.0;1467.1;;;;-0.64210135;0.46674353;0.18741228;;;;;;;;;;;;;;;
1568.0;1477.2;;;;-0.63228613;0.463955;0.1974068;;;;;;;;;;;;;;;
1568.0;1477.2;;;;-0.62406164;0.4609719;0.20872882;;;;;;;;;;;;;;;
1568.0;1477.2;;;;-0.61760336;0.45818335;0.21949771;;;;;;;;;;;;;;;
1568.0;1477.2;;;;-0.61227804;0.45546728;0.22991946;;;;;;;;;;;;;;;
1568.0;1477.2;;;;-0.60830694;0.4534989;0.24094775;;;;;;;;;;;;;;;
1570.0;1479.6;262143;262143;12705;;;;;;;;;;;;;;;;;;
1570.0;1480.5;;;;;;;;;;;;;;;;;2.9374065;-9.681997;11.173589;;1389.1
1570.0;1480.5;;;;;;;;;;;;;;-0.98934907;0.020386364;-0.32581562;;;;;1389.1
1570.0;1480.5;;;;;;;;;;;;;;;;;4.467147;-11.013368;12.0548115;;1389.1
1570.0;1480.5;;;;;;;;;;;;;;-0.97665334;0.026734214;-0.3291116;;;;;1389.1
1570.0;1480.5;;;;;;;;;;;;;;;;;5.8023314;-12.268441;12.909329;;1398.7
1570.0;1480.5;;;;;;;;;;;;;;-0.9552904;0.03521836;-0.33216345;;;;;1398.7
1570.0;1480.5;;;;;;;;;;;;;;;;;7.2176275;-11.9060335;13.832514;;1398.7
1570.0;1480.5;;;;;;;;;;;;;;-0.9362468;0.043458357;-0.33814508;;;;;1398.7
1570.0;1480.5;;;;;;;;;;;;;;;;;8.667256;-10.338145;14.824367;;1408.3
1570.0;1480.5;;;;;;;;;;;;;;-0.9214759;0.049439985;-0.34876552;;;;;1408.3
1570.0;1480.5;;;;;;;;;;;;;;;;;9.54085;-8.808405;15.751366;;1408.3
1570.0;1480.5;;;;;;;;;;;;;;-0.9251381;0.057252724;-0.3568224;;;;;1408.3
1570.0;1485.4;;;;;;;;;;;;;-2937;;;;;;;;
1570.0;1485.4;;;;;;;;;;;;;-2813;;;;;;;;
1570.0;1485.4;;;;;;;;;;;;;-1554;;;;;;;;
1570.0;1485.4;;;;;;;;;;;;;-335;;;;;;;;
1570.0;1485.4;;;;;;;;;;;;;-422;;;;;;;;
1570.0;1487.0;;;;-0.604744;0.4516793;0.25314716;;;;;;;;;;;;;;;
1570.0;1487.0;;;;-0.6011849;0.4499436;0.26409152;;;;;;;;;;;;;;;
1570.0;1487.0;;;;-0.5978814;0.44775778;0.27500919;;;;;;;;;;;;;;;
1570.0;1487.0;;;;-0.5958672;0.44481283;0.28670123;;;;;;;;;;;;;;;
1570.0;1487.0;;;;-0.5931397;0.4434014;0.29761127;;;;;;;;;;;;;;;
1631.0;1487.6;;;;;;;;;;;;;;;;;9.891811;-8.70159;15.682699;;1418.0
1631.0;1487.6;;;;;;;;;;;;;;-0.9485153;0.067445904;-0.36664936;;;;;1418.0
1631.0;1487.6;;;;;;;;;;;;;;;;;9.842219;-9.647664;15.35081;;1418.0
1631.0;1487.6;;;;;;;;;;;;;;-0.9795221;0.074221015;-0.37940612;;;;;1418.0
1631.0;1487.6;;;;;;;;;;;;;;;;;9.498886;-10.242775;15.377514;;1427.6
1631.0;1487.6;;;;;;;;;;;;;;-1.0002747;0.08087405;-0.39002654;;;;;1427.6
1631.0;1487.6;;;;;;;;;;;;;;;;;9.071627;-10.185553;15.2096615;;1427.6
1631.0;1487.6;;;;;;;;;;;;;;-1.0148625;0.08539079;-0.407239;;;;;1427.6
1631.0;1487.6;;;;;;;;;;;;;;;;;9.00296;-9.735405;14.931181;;1437.3
1631.0;1487.6;;;;;;;;;;;;;;-1.0213324;0.08764916;-0.4255501;;;;;1437.3
1631.0;1487.6;;;;;;;;;;;;;;;;;9.033479;-9.487442;14.221625;;1437.3
1631.0;1487.6;;;;;;;;;;;;;;-1.0195013;0.085329756;-0.44111454;;;;;1437.3
1631.0;1496.9;;;;-0.5893708;0.44183356;0.3068848;;;;;;;;;;;;;;;
1631.0;1496.9;;;;-0.5858498;0.44025046;0.31588748;;;;;;;;;;;;;;;
1631.0;1496.9;;;;-0.5825425;0.43960577;0.32286075;;;;;;;;;;;;;;;
1631.0;1496.9;;;;-0.5791779;0.43830878;0.33090594;;;;;;;;;;;;;;;
1631.0;1496.9;;;;-0.5744172;0.43645102;0.33666614;;;;;;;;;;;;;;;
1631.0;1499.4;262143;262143;12708;;;;;;;;;;;;;;;;;;
1631.0;1507.0;;;;-0.569809;0.43370825;0.34149936;;;;;;;;;;;;;;;
1631.0;1507.0;;;;-0.56386954;0.42957312;0.3458977;;;;;;;;;;;;;;;
1631.0;1507.0;;;;-0.5571633;0.42481238;0.34991458;;;;;;;;;;;;;;;
1631.0;1507.0;;;;-0.552147;0.41984564;0.35361865;;;;;;;;;;;;;;;
1631.0;1507.0;;;;-0.5459214;0.4147759;0.35716632;;;;;;;;;;;;;;;
1633.0;1517.0;;;;-0.53934103;0.41353232;0.36020282;;;;;;;;;;;;;;;
1633.0;1517.0;;;;-0.5342904;0.41249853;0.36157992;;;;;;;;;;;;;;;
1633.0;1517.0;;;;-0.5280114;0.41299444;0.3632851;;;;;;;;;;;;;;;
1633.0;1517.0;;;;-0.5215798;0.41247565;0.36581424;;;;;;;;;;;;;;;
1633.0;1517.0;;;;-0.5151711;0.41086203;0.36844257;;;;;;;;;;;;;;;
1633.0;1519.5;262143;262143;12716;;;;;;;;;;;;;;;;;;
1633.0;1525.5;;;;;;;;;;;;;-1923;;;;;;;;
1633.0;1525.5;;;;;;;;;;;;;-2552;;;;;;;;
1633.0;1525.5;;;;;;;;;;;;;-1134;;;;;;;;
1633.0;1525.5;;;;;;;;;;;;;235;;;;;;;;
1633.0;1525.5;;;;;;;;;;;;;697;;;;;;;;
1633.0;1527.1;;;;-0.50814444;0.41283423;0.36986926;;;;;;;;;;;;;;;
1633.0;1527.1;;;;-0.5026322;0.4164124;0.37108234;;;;;;;;;;;;;;;
1633.0;1527.1;;;;-0.49562842;0.41810995;0.3729172;;;;;;;;;;;;;;;
1633.0;1527.1;;;;-0.48546606;0.4166451;0.37977988;;;;;;;;;;;;;;;
1633.0;1527.1;;;;-0.4788285;0.42000967;0.3830033;;;;;;;;;;;;;;;
1633.0;1537.2;;;;-0.4720536;0.42334753;0.38481528;;;;;;;;;;;;;;;
1633.0;1537.2;;;;-0.4638787;0.4246331;0.3860932;;;;;;;;;;;;;;;
1633.0;1537.2;;;;-0.45343024;0.42438895;0.39102942;;;;;;;;;;;;;;;
1633.0;1537.2;;;;-0.43970495;0.4224816;0.39471823;;;;;;;;;;;;;;;
1633.0;1537.2;;;;-0.42644125;0.41672522;0.3947373;;;;;;;;;;;;;;;
1633.0;1539.7;262143;262143;12721;;;;;;;;;;;;;;;;;;
1635.0;1547.3;;;;-0.4184609;0.41239935;0.39324957;;;;;;;;;;;;;;;
1635.0;1547.3;;;;-0.4137116;0.41211706;0.3938027;;;;;;;;;;;;;;;
1635.0;1547.3;;;;-0.4078179;0.41541296;0.39274603;;;;;;;;;;;;;;;
1635.0;1547.3;;;;-0.39837652;0.42313772;0.38949972;;;;;;;;;;;;;;;
1635.0;1547.3;;;;-0.38868338;0.43309027;0.38579947;;;;;;;;;;;;;;;
1635.0;1548.0;;;;;;;;;;;;;;;;;8.758812;-10.067293;joulu.17;;1446.9
1635.0;1548.0;;;;;;;;;;;;;;-1.0129093;0.08142339;-0.44428846;;;;;1446.9
1635.0;1548.0;;;;;;;;;;;;;;;;;8.041628;-11.165959;11.185034;;1446.9
1635.0;1548.0;;;;;;;;;;;;;;-0.9922178;0.07086398;-0.44111454;;;;;1446.9
1635.0;1548.0;;;;;;;;;;;;;;;;;7.4274426;-11.154515;9.395886;;1456.5
1635.0;1548.0;;;;;;;;;;;;;;-0.96743673;0.05627613;-0.43110445;;;;;1456.5
1635.0;1548.0;;;;;;;;;;;;;;;;;6.7751093;-9.655293;7.9386272;;1456.5
1635.0;1548.0;;;;;;;;;;;;;;-0.95364237;0.04052858;-0.41987365;;;;;1456.5
1635.0;1548.0;;;;;;;;;;;;;;;;;5.8252206;-8.156072;6.5691094;;1466.2
1635.0;1548.0;;;;;;;;;;;;;;-0.941496;0.026367992;-0.40522477;;;;;1466.2
1635.0;1548.0;;;;;;;;;;;;;;;;;4.425184;-7.290109;5.283517;;1466.2
1635.0;1548.0;;;;;;;;;;;;;;-0.9325846;0.01330607;-0.39674062;;;;;1466.2
1637.0;1548.8;;;;;;;;;;;;;;;;;3.3150733;-6.8628497;4.0437026;;1475.8
1637.0;1548.8;;;;;;;;;;;;;;-0.9322184;0.006775109;-0.38264108;;;;;1475.8
1637.0;1548.8;;;;;;;;;;;;;;;;;1.9913328;-6.984924;2.9183326;;1475.8
1637.0;1548.8;;;;;;;;;;;;;;-0.93148595;-0.0022583697;-0.37208167;;;;;1475.8
1637.0;1548.8;;;;;;;;;;;;;;;;;0.96896267;-7.141331;1.7967772;;1485.5
1637.0;1548.8;;;;;;;;;;;;;;-0.9330119;-0.010986663;-0.36658832;;;;;1485.5
1637.0;1548.8;;;;;;;;;;;;;;;;;0.0076296274;-6.8933682;0.9155553;;1485.5
1637.0;1548.8;;;;;;;;;;;;;;-0.9403973;-0.014770959;-0.36695457;;;;;1485.5
1637.0;1548.8;;;;;;;;;;;;;;;;;-0.9537034;-7.023072;0.29374066;;1495.1
1637.0;1548.8;;;;;;;;;;;;;;-0.9477218;-0.018066958;-0.3662221;;;;;1495.1
1637.0;1548.8;;;;;;;;;;;;;;;;;-1.9951477;-7.549516;-0.24414808;;1495.1
1637.0;1548.8;;;;;;;;;;;;;;-0.9553514;-0.02069155;-0.36640522;;;;;1495.1
1637.0;1557.1;;;;-0.38351446;0.44107825;0.3805161;;;;;;;;;;;;;;;
1637.0;1557.1;;;;-0.38048178;0.4486428;0.37410358;;;;;;;;;;;;;;;
1637.0;1557.1;;;;-0.37944418;0.45780188;0.36968616;;;;;;;;;;;;;;;
1637.0;1557.1;;;;-0.37801367;0.4699822;0.36460117;;;;;;;;;;;;;;;
1637.0;1557.1;;;;-0.37530142;0.4801827;0.35844424;;;;;;;;;;;;;;;
1637.0;1559.7;262143;262143;12725;;;;;;;;;;;;;;;;;;
1637.0;1565.7;;;;;;;;;;;;;1985;;;;;;;;
1637.0;1565.7;;;;;;;;;;;;;4611;;;;;;;;
1637.0;1565.7;;;;;;;;;;;;;5289;;;;;;;;
1637.0;1565.7;;;;;;;;;;;;;1123;;;;;;;;
1637.0;1565.7;;;;;;;;;;;;;-4809;;;;;;;;
1689.0;1567.1;;;;-0.37294772;0.49069983;0.35278705;;;;;;;;;;;;;;;
1689.0;1567.1;;;;-0.37170795;0.49888998;0.3482323;;;;;;;;;;;;;;;
1689.0;1567.1;;;;-0.37173083;0.5063897;0.34490207;;;;;;;;;;;;;;;
1689.0;1567.1;;;;-0.37273028;0.5153199;0.34129336;;;;;;;;;;;;;;;
1689.0;1567.1;;;;-0.3735161;0.5242272;0.3400841;;;;;;;;;;;;;;;
1689.0;1577.1;;;;-0.37446597;0.5307656;0.3388863;;;;;;;;;;;;;;;
1689.0;1577.1;;;;-0.3754235;0.53612906;0.33758166;;;;;;;;;;;;;;;
1689.0;1577.1;;;;-0.37697226;0.54176337;0.3373337;;;;;;;;;;;;;;;
1689.0;1577.1;;;;-0.37927634;0.54801947;0.3368416;;;;;;;;;;;;;;;
1689.0;1577.1;;;;-0.38132864;0.55450064;0.3369713;;;;;;;;;;;;;;;
1689.0;1579.7;262143;262143;12746;;;;;;;;;;;;;;;;;;
1689.0;1587.2;;;;-0.38081747;0.56104285;0.3366318;;;;;;;;;;;;;;;
1689.0;1587.2;;;;-0.3825112;0.5642052;0.33425143;;;;;;;;;;;;;;;
1689.0;1587.2;;;;-0.384533;0.5682793;0.33999255;;;;;;;;;;;;;;;
1689.0;1587.2;;;;-0.38555533;0.5753289;0.34034732;;;;;;;;;;;;;;;
1689.0;1587.2;;;;-0.3882218;0.5836831;0.34092334;;;;;;;;;;;;;;;
1689.0;1597.3;;;;-0.39088446;0.59117895;0.34038928;;;;;;;;;;;;;;;
1689.0;1597.3;;;;-0.39236838;0.60057837;0.3415337;;;;;;;;;;;;;;;
1689.0;1597.3;;;;-0.39366156;0.6107941;0.3427849;;;;;;;;;;;;;;;
1689.0;1597.3;;;;-0.3957749;0.62173086;0.3442879;;;;;;;;;;;;;;;
1689.0;1597.3;;;;-0.3973351;0.6313477;0.34624866;;;;;;;;;;;;;;;
1692.0;1600.0;262143;262143;12756;;;;;;;;;;;;;;;;;;
1692.0;1600.6;;;;;;;;;;;;;;;;;-2.9602954;-7.881405;-0.6904813;;1504.8
1692.0;1600.6;;;;;;;;;;;;;;-0.9593188;-0.024109622;-0.36548966;;;;;1504.8
1692.0;1600.6;;;;;;;;;;;;;;;;;-3.910184;-8.228554;-0.88122195;;1504.8
1692.0;1600.6;;;;;;;;;;;;;;-0.9630421;-0.026123844;-0.35969114;;;;;1504.8
1692.0;1600.6;;;;;;;;;;;;;;;;;-4.737999;-8.7893305;-1.1558886;;1514.5
1692.0;1600.6;;;;;;;;;;;;;;-0.9652394;-0.031373028;-0.35389262;;;;;1514.5
1692.0;1600.6;;;;;;;;;;;;;;;;;-5.394147;-9.380627;-1.2855922;;1514.5
1692.0;1600.6;;;;;;;;;;;;;;-0.9634693;-0.03625599;-0.34644613;;;;;1514.5
1692.0;1600.6;;;;;;;;;;;;;;;;;-5.8709984;-9.910886;-1.3428144;;1524.2
1692.0;1600.6;;;;;;;;;;;;;;-0.95577866;-0.047364727;-0.3389996;;;;;1524.2
1692.0;1600.6;;;;;;;;;;;;;;;;;-6.015961;-10.24659;-1.289407;;1524.2
1692.0;1600.6;;;;;;;;;;;;;;-0.9526048;-0.047791988;-0.33362836;;;;;1524.2
1692.0;1605.9;;;;;;;;;;;;;-6959;;;;;;;;
1692.0;1605.9;;;;;;;;;;;;;-4395;;;;;;;;
1692.0;1605.9;;;;;;;;;;;;;-1048;;;;;;;;
1692.0;1605.9;;;;;;;;;;;;;259;;;;;;;;
1692.0;1605.9;;;;;;;;;;;;;71;;;;;;;;
1692.0;1607.2;;;;-0.39578635;0.6400605;0.34974673;;;;;;;;;;;;;;;
1692.0;1607.2;;;;-0.39386374;0.6473656;0.3500519;;;;;;;;;;;;;;;
1692.0;1607.2;;;;-0.3924561;0.6557999;0.35096744;;;;;;;;;;;;;;;
1692.0;1607.2;;;;-0.3865891;0.6662598;0.3559647;;;;;;;;;;;;;;;
1692.0;1607.2;;;;-0.3833428;0.674553;0.35530093;;;;;;;;;;;;;;;
1745.0;1608.0;;;;;;;;;;;;;;;;;-6.1380353;-10.23133;-1.53737;;1533.8
1745.0;1608.0;;;;;;;;;;;;;;-0.9501022;-0.055482652;-0.32697532;;;;;1533.8
1745.0;1608.0;;;;;;;;;;;;;;;;;-6.130406;-10.54033;-1.8807031;;1533.8
1745.0;1608.0;;;;;;;;;;;;;;-0.948149;-0.07000946;-0.31769767;;;;;1533.8
1745.0;1608.0;;;;;;;;;;;;;;;;;-5.8099613;-10.95996;-2.2164068;;1543.5
1745.0;1608.0;;;;;;;;;;;;;;-0.94644004;-0.081667535;-0.30689412;;;;;1543.5
1745.0;1608.0;;;;;;;;;;;;;;;;;-5.2491837;-11.265144;-2.66274;;1543.5
1745.0;1608.0;;;;;;;;;;;;;;-0.9437544;-0.0971099;-0.29371014;;;;;1543.5
1745.0;1608.0;;;;;;;;;;;;;;;;;-5.0241094;-11.246071;-3.1586657;;1553.1
1745.0;1608.0;;;;;;;;;;;;;;-0.933195;-0.111636706;-0.2949919;;;;;1553.1
1745.0;1608.0;;;;;;;;;;;;;;;;;-4.5739617;-10.258034;-3.6774805;;1553.1
1745.0;1608.0;;;;;;;;;;;;;;-0.9335612;-0.12689596;-0.29169592;;;;;1553.1
1745.0;1617.1;;;;-0.38356024;0.6821633;0.35504535;;;;;;;;;;;;;;;
1745.0;1617.1;;;;-0.381836;0.69471747;0.3540497;;;;;;;;;;;;;;;
1745.0;1617.1;;;;-0.38138968;0.70371634;0.3549576;;;;;;;;;;;;;;;
1745.0;1617.1;;;;-0.37891012;0.71111304;0.3596039;;;;;;;;;;;;;;;
1745.0;1617.1;;;;-0.3767014;0.71448904;0.35862735;;;;;;;;;;;;;;;
1745.0;1619.9;262143;262143;12772;;;;;;;;;;;;;;;;;;
1745.0;1627.0;;;;-0.3774224;0.719822;0.35646442;;;;;;;;;;;;;;;
1745.0;1627.0;;;;-0.38304144;0.7285958;0.35387424;;;;;;;;;;;;;;;
1745.0;1627.0;;;;-0.3911324;0.7403107;0.3543282;;;;;;;;;;;;;;;
1745.0;1627.0;;;;-0.39781576;0.7497979;0.35800555;;;;;;;;;;;;;;;
1745.0;1627.0;;;;-0.39868551;0.7591859;0.3646126;;;;;;;;;;;;;;;
1749.0;1637.0;;;;-0.3956986;0.7742311;0.36414722;;;;;;;;;;;;;;;
1749.0;1637.0;;;;-0.39236838;0.7869874;0.36315158;;;;;;;;;;;;;;;
1749.0;1637.0;;;;-0.3965569;0.79576886;0.36137393;;;;;;;;;;;;;;;
1749.0;1637.0;;;;-0.40492254;0.80573666;0.3627167;;;;;;;;;;;;;;;
1749.0;1637.0;;;;-0.40715796;0.81720746;0.3664818;;;;;;;;;;;;;;;
1749.0;1639.8;262143;262143;12788;;;;;;;;;;;;;;;;;;
1749.0;1645.8;;;;;;;;;;;;;-381;;;;;;;;
1749.0;1645.8;;;;;;;;;;;;;-366;;;;;;;;
1749.0;1645.8;;;;;;;;;;;;;206;;;;;;;;
1749.0;1645.8;;;;;;;;;;;;;705;;;;;;;;
1749.0;1645.8;;;;;;;;;;;;;846;;;;;;;;
1749.0;1647.1;;;;-0.40311056;0.829136;0.37215427;;;;;;;;;;;;;;;
1749.0;1647.1;;;;-0.39894873;0.84038556;0.37359622;;;;;;;;;;;;;;;
1749.0;1647.1;;;;-0.39524847;0.8496095;0.3722687;;;;;;;;;;;;;;;
1749.0;1647.1;;;;-0.39707953;0.8582307;0.36957934;;;;;;;;;;;;;;;
1749.0;1647.1;;;;-0.39825827;0.8684274;0.3687363;;;;;;;;;;;;;;;
1749.0;1657.2;;;;-0.39599234;0.87812054;0.36758044;;;;;;;;;;;;;;;
1749.0;1657.2;;;;-0.39511496;0.89146817;0.37058643;;;;;;;;;;;;;;;
1749.0;1657.2;;;;-0.39301687;0.9041711;0.3711014;;;;;;;;;;;;;;;
1749.0;1657.2;;;;-0.39227682;0.91925824;0.37833792;;;;;;;;;;;;;;;
1749.0;1657.2;;;;-0.38948828;0.93328106;0.3788224;;;;;;;;;;;;;;;
1749.0;1660.0;262143;262143;12792;;;;;;;;;;;;;;;;;;
1750.0;1667.3;;;;-0.38864905;0.94576657;0.37418368;;;;;;;;;;;;;;;
1750.0;1667.3;;;;-0.39015585;0.9589273;0.37212756;;;;;;;;;;;;;;;
1750.0;1667.3;;;;-0.39171988;0.97342694;0.37150577;;;;;;;;;;;;;;;
1750.0;1667.3;;;;-0.38685232;0.9863626;0.37031558;;;;;;;;;;;;;;;
1750.0;1667.3;;;;-0.37844473;0.997429;0.3669434;;;;;;;;;;;;;;;
1750.0;1668.1;;;;;;;;;;;;;;;;;-4.276406;-9.537035;-4.2497025;;1562.8
1750.0;1668.1;;;;;;;;;;;;;;-0.9352092;-0.14276558;-0.29322183;;;;;1562.8
1750.0;1668.1;;;;;;;;;;;;;;;;;-3.7728508;-8.983886;-4.9783316;;1562.8
1750.0;1668.1;;;;;;;;;;;;;;-0.93527025;-0.16211432;-0.29291666;;;;;1562.8
1750.0;1668.1;;;;;;;;;;;;;;;;;-3.032777;-8.926664;-5.9930725;;1572.4
1750.0;1668.1;;;;;;;;;;;;;;-0.93673515;-0.1777398;-0.28644672;;;;;1572.4
1750.0;1668.1;;;;;;;;;;;;;;;;;-2.2202215;-9.43022;-7.0307016;;1572.4
1750.0;1668.1;;;;;;;;;;;;;;-0.93313396;-0.19513535;-0.28034303;;;;;1572.4
1750.0;1668.1;;;;;;;;;;;;;;;;;-1.0338145;-9.437849;-7.9348125;;1582.1
1750.0;1668.1;;;;;;;;;;;;;;-0.93130285;-0.21045564;-0.2733848;;;;;1582.1
1750.0;1668.1;;;;;;;;;;;;;;;;;0.17548142;-8.751183;-8.6405525;;1582.1
1750.0;1668.1;;;;;;;;;;;;;;-0.9337443;-0.22486039;-0.2727134;;;;;1582.1
1753.0;1668.9;;;;;;;;;;;;;;;;;1.3504441;-7.7288127;-9.193701;;1591.6
1753.0;1668.9;;;;;;;;;;;;;;-0.9356975;-0.23987548;-0.27759635;;;;;1591.6
1753.0;1668.9;;;;;;;;;;;;;;;;;2.6322215;-7.122257;-9.865108;;1591.6
1753.0;1668.9;;;;;;;;;;;;;;-0.93795586;-0.25501266;-0.28180793;;;;;1591.6
1753.0;1668.9;;;;;;;;;;;;;;;;;4.2878504;-6.878109;-10.673849;;1601.3
1753.0;1668.9;;;;;;;;;;;;;;-0.93575853;-0.27118748;-0.2882168;;;;;1601.3
1753.0;1668.9;;;;;;;;;;;;;;;;;6.2715535;-6.5881834;-11.333811;;1601.3
1753.0;1668.9;;;;;;;;;;;;;;-0.9280068;-0.28846094;-0.2933439;;;;;1601.3
1753.0;1668.9;;;;;;;;;;;;;;;;;8.667256;-5.7298503;-11.88696;;1611.0
1753.0;1668.9;;;;;;;;;;;;;;-0.92226934;-0.30842006;-0.29834896;;;;;1611.0
1753.0;1668.9;;;;;;;;;;;;;;;;;11.341441;-4.772332;-12.314219;;1611.0
1753.0;1668.9;;;;;;;;;;;;;;-0.91781366;-0.32837915;-0.30262154;;;;;1611.0
1753.0;1677.0;;;;-0.3722649;1.0062143;0.365593;;;;;;;;;;;;;;;
1753.0;1677.0;;;;-0.3707085;1.0154802;0.3643265;;;;;;;;;;;;;;;
1753.0;1677.0;;;;-0.37247851;1.0233957;0.36566547;;;;;;;;;;;;;;;
1753.0;1677.0;;;;-0.37495807;1.0310136;0.36672977;;;;;;;;;;;;;;;
1753.0;1677.0;;;;-0.38228232;1.0432092;0.37249377;;;;;;;;;;;;;;;
1753.0;1679.9;262143;262143;12804;;;;;;;;;;;;;;;;;;
1753.0;1685.9;;;;;;;;;;;;;923;;;;;;;;
1753.0;1685.9;;;;;;;;;;;;;885;;;;;;;;
1753.0;1685.9;;;;;;;;;;;;;929;;;;;;;;
1753.0;1685.9;;;;;;;;;;;;;1147;;;;;;;;
1753.0;1685.9;;;;;;;;;;;;;173;;;;;;;;
1806.0;1687.1;;;;-0.3905335;1.0538751;0.37129596;;;;;;;;;;;;;;;
1806.0;1687.1;;;;-0.3957253;1.0615846;0.37026218;;;;;;;;;;;;;;;
1806.0;1687.1;;;;-0.398758;1.065838;0.37034228;;;;;;;;;;;;;;;
1806.0;1687.1;;;;-0.39986807;1.0704232;0.3713036;;;;;;;;;;;;;;;
1806.0;1687.1;;;;-0.4008904;1.0749665;0.3729439;;;;;;;;;;;;;;;
1806.0;1697.0;;;;-0.40310293;1.0764123;0.3729935;;;;;;;;;;;;;;;
1806.0;1697.0;;;;-0.40425116;1.0758096;0.37474826;;;;;;;;;;;;;;;
1806.0;1697.0;;;;-0.40585333;1.0735093;0.3768502;;;;;;;;;;;;;;;
1806.0;1697.0;;;;-0.40692145;1.0692636;0.3783036;;;;;;;;;;;;;;;
1806.0;1697.0;;;;-0.40983206;1.0640947;0.3777848;;;;;;;;;;;;;;;
1806.0;1700.0;262143;262143;12801;;;;;;;;;;;;;;;;;;
1806.0;1707.2;;;;-0.412201;1.0590516;0.37710196;;;;;;;;;;;;;;;
1806.0;1707.2;;;;-0.4166909;1.0507585;0.37345126;;;;;;;;;;;;;;;
1806.0;1707.2;;;;-0.4206925;1.0419847;0.37262347;;;;;;;;;;;;;;;
1806.0;1707.2;;;;-0.42122275;1.0304414;0.3726044;;;;;;;;;;;;;;;
1806.0;1707.2;;;;-0.4209023;1.0188562;0.37515646;;;;;;;;;;;;;;;
1806.0;1717.3;;;;-0.41922766;1.0070077;0.3767472;;;;;;;;;;;;;;;
1806.0;1717.3;;;;-0.41859442;0.9928514;0.37766272;;;;;;;;;;;;;;;
1806.0;1717.3;;;;-0.41930395;0.9787866;0.3836823;;;;;;;;;;;;;;;
1806.0;1717.3;;;;-0.41987997;0.9657632;0.38839346;;;;;;;;;;;;;;;
1806.0;1717.3;;;;-0.422535;0.94978344;0.39612967;;;;;;;;;;;;;;;
1822.0;1720.2;262143;262143;12809;;;;;;;;;;;;;;;;;;
1822.0;1726.2;;;;;;;;;;;;;-2308;;;;;;;;
1822.0;1726.2;;;;;;;;;;;;;-3788;;;;;;;;
1822.0;1726.2;;;;;;;;;;;;;-1809;;;;;;;;
1822.0;1726.2;;;;;;;;;;;;;2666;;;;;;;;
1822.0;1726.2;;;;;;;;;;;;;5878;;;;;;;;
1822.0;1727.3;;;;-0.42326742;0.9348031;0.40842444;;;;;;;;;;;;;;;
1822.0;1727.3;;;;-0.4204598;0.91558087;0.41117102;;;;;;;;;;;;;;;
1822.0;1727.3;;;;-0.4222756;0.8959657;0.4149285;;;;;;;;;;;;;;;
1822.0;1727.3;;;;-0.42412573;0.87596905;0.41662222;;;;;;;;;;;;;;;
1822.0;1727.3;;;;-0.42826086;0.8555604;0.41743475;;;;;;;;;;;;;;;
1822.0;1736.0;;;;;;;;;;;;;;;;;14.118626;-3.9483323;-13.344218;;1620.7
1822.0;1736.0;;;;;;;;;;;;;;-0.9106113;-0.34864345;-0.31434065;;;;;1620.7
1822.0;1736.0;;;;;;;;;;;;;;;;;16.98355;-3.1014435;-14.652699;;1620.7
1822.0;1736.0;;;;;;;;;;;;;;-0.9053011;-0.36939603;-0.32221442;;;;;1620.7
1822.0;1736.0;;;;;;;;;;;;;;;;;19.657734;-2.5063326;-16.098515;;1630.3
1822.0;1736.0;;;;;;;;;;;;;;-0.8973052;-0.3894162;-0.33796197;;;;;1630.3
1822.0;1736.0;;;;;;;;;;;;;;;;;22.186956;-1.4229255;-17.773216;;1630.3
1822.0;1736.0;;;;;;;;;;;;;;-0.89278847;-0.4090701;-0.3516953;;;;;1630.3
1822.0;1736.0;;;;;;;;;;;;;;;;;24.285105;-0.6828517;-19.96292;;1640.0
1822.0;1736.0;;;;;;;;;;;;;;-0.8858303;-0.42890713;-0.36658832;;;;;1640.0
1822.0;1736.0;;;;;;;;;;;;;;;;;26.043734;0.3357036;-22.51503;;1640.0
1822.0;1736.0;;;;;;;;;;;;;;-0.8784448;-0.4492935;-0.3842891;;;;;1640.0
1826.0;1737.2;;;;;;;;;;;;;;;;;27.53151;1.8272958;-25.040436;;1649.6
1826.0;1737.2;;;;;;;;;;;;;;-0.8791772;-0.46473587;-0.40192878;;;;;1649.6
1826.0;1737.2;;;;;;;;;;;;;;;;;29.698326;3.482925;-27.417065;;1649.6
1826.0;1737.2;;;;;;;;;;;;;;-0.8751488;-0.48133793;-0.4118778;;;;;1649.6
1826.0;1737.2;;;;;;;;;;;;;;;;;31.140324;4.757073;-29.198584;;1659.2
1826.0;1737.2;;;;;;;;;;;;;;-0.8676412;-0.48890653;-0.42005676;;;;;1659.2
1826.0;1737.2;;;;;;;;;;;;;;;;;31.186102;5.3750725;-30.70925;;1659.2
1826.0;1737.2;;;;;;;;;;;;;;-0.84292126;-0.4901883;-0.42432937;;;;;1659.2
1826.0;1737.2;;;;;;;;;;;;;;;;;30.594805;6.0388503;-32.170326;;1668.9
1826.0;1737.2;;;;;;;;;;;;;;-0.81356245;-0.4852443;-0.42774743;;;;;1668.9
1826.0;1737.2;;;;;;;;;;;;;;;;;30.323954;8.129368;-33.26518;;1668.9
1826.0;1737.2;;;;;;;;;;;;;;-0.7945189;-0.47718742;-0.43989378;;;;;1668.9
1826.0;1737.2;;;;-0.43181616;0.8353692;0.42039114;;;;;;;;;;;;;;;
1826.0;1737.2;;;;-0.43436056;0.81670773;0.4237557;;;;;;;;;;;;;;;
1826.0;1737.2;;;;-0.43594366;0.7986871;0.42771536;;;;;;;;;;;;;;;
1826.0;1737.2;;;;-0.43675238;0.78209317;0.43129355;;;;;;;;;;;;;;;
1826.0;1737.2;;;;-0.4373284;0.76529324;0.43484122;;;;;;;;;;;;;;;
1826.0;1737.3;;;;;;;;;;-1.7166661;19.718771;-0.45396283;;;;;;;;;
1826.0;1737.3;;;;;;;0.651326;-0.529252;0.24481948;;;;;;;;;;;;
1826.0;1737.3;;;;;;;;;;7.148961;30.587175;8.957183;;;;;;;;;
1826.0;1737.3;;;;;;;0.720542;-0.590289;0.26947844;;;;;;;;;;;;
1826.0;1740.3;262143;262143;12808;;;;;;;;;;;;;;;;;;
1866.0;1746.9;;;;;;;;;;2.3194067;4.146703;-0.98422194;;;;;;;;;
1866.0;1746.9;;;;;;;0.71340066;-0.5835139;0.26520586;;;;;;;;;;;;
1866.0;1746.9;;;;;;;;;;7.8241825;15.232551;7.744072;;;;;;;;;
1866.0;1746.9;;;;;;;0.71614736;-0.5841853;0.26062807;;;;;;;;;;;;
1866.0;1747.3;;;;-0.4378205;0.7476502;0.43840414;;;;;;;;;;;;;;;
1866.0;1747.3;;;;-0.4402085;0.7297898;0.44025427;;;;;;;;;;;;;;;
1866.0;1747.3;;;;-0.44543463;0.71238714;0.4392739;;;;;;;;;;;;;;;
1866.0;1747.3;;;;-0.44910055;0.6972199;0.4401284;;;;;;;;;;;;;;;
1866.0;1747.3;;;;-0.45163733;0.68170553;0.44213492;;;;;;;;;;;;;;;
1866.0;1756.2;;;;;;;;;;9.697257;14.12244;8.713035;;;;;;;;;
1866.0;1756.2;;;;;;;0.72261727;-0.5885189;0.25678274;;;;;;;;;;;;
1866.0;1756.2;;;;;;;;;;6.3783684;-23.228401;-11.532182;;;;;;;;;
1866.0;1756.2;;;;;;;0.7275002;-0.58919036;0.25141147;;;;;;;;;;;;
1866.0;1757.1;;;;-0.45574576;0.6674157;0.4490586;;;;;;;;;;;;;;;
1866.0;1757.1;;;;-0.46113974;0.6519814;0.4573899;;;;;;;;;;;;;;;
1866.0;1757.1;;;;-0.46477896;0.6463738;0.46352774;;;;;;;;;;;;;;;
1866.0;1757.1;;;;-0.46217352;0.63670737;0.45567328;;;;;;;;;;;;;;;
1866.0;1757.1;;;;-0.46401602;0.61959845;0.4455529;;;;;;;;;;;;;;;
1866.0;1760.3;262143;262143;12809;;;;;;;;;;;;;;;;;;
1866.0;1765.9;;;;;;;;;;7.7669606;-25.89877;-11.5627;;;;;;;;;
1866.0;1765.9;;;;;;;0.7341533;-0.58552814;0.2446974;;;;;;;;;;;;
1866.0;1765.9;;;;;;;;;;9.063997;-28.004547;-10.994293;;;;;;;;;
1866.0;1765.9;;;;;;;0.75032806;-0.58857995;0.23895992;;;;;;;;;;;;
1868.0;1766.2;;;;;;;;;;;;;5634;;;;;;;;
1868.0;1766.2;;;;;;;;;;;;;3438;;;;;;;;
1868.0;1766.2;;;;;;;;;;;;;1992;;;;;;;;
1868.0;1766.2;;;;;;;;;;;;;1663;;;;;;;;
1868.0;1766.2;;;;;;;;;;;;;1319;;;;;;;;
1868.0;1767.2;;;;-0.47731024;0.60408026;0.44355398;;;;;;;;;;;;;;;
1868.0;1767.2;;;;-0.49069983;0.59273535;0.4446488;;;;;;;;;;;;;;;
1868.0;1767.2;;;;-0.49878317;0.58409125;0.4429894;;;;;;;;;;;;;;;
1868.0;1767.2;;;;-0.5019341;0.57311636;0.44112402;;;;;;;;;;;;;;;
1868.0;1767.2;;;;-0.500248;0.56039435;0.43982702;;;;;;;;;;;;;;;
1868.0;1775.5;;;;;;;;;;9.331035;-21.435438;-4.4900355;;;;;;;;;
1868.0;1775.5;;;;;;;0.7658315;-0.60731834;0.23780023;;;;;;;;;;;;
1868.0;1775.5;;;;;;;;;;8.545182;-12.462996;2.2812586;;;;;;;;;
1868.0;1775.5;;;;;;;0.76436657;-0.60176396;0.24085207;;;;;;;;;;;;
1868.0;1777.3;;;;-0.4972344;0.5499726;0.4388047;;;;;;;;;;;;;;;
1868.0;1777.3;;;;-0.49636847;0.5410767;0.43804175;;;;;;;;;;;;;;;
1868.0;1777.3;;;;-0.4960404;0.5381852;0.43788153;;;;;;;;;;;;;;;
1868.0;1777.3;;;;-0.4966622;0.53611;0.43773657;;;;;;;;;;;;;;;
1868.0;1777.3;;;;-0.4965554;0.53051764;0.43891913;;;;;;;;;;;;;;;
1870.0;1781.1;;;;;;;;;;;;;;;;;29.8204;11.848811;-36.29032;;1678.5
1870.0;1781.1;;;;;;;;;;;;;;-0.7802973;-0.46211126;-0.44367808;;;;;1678.5
1870.0;1781.1;;;;;;;;;;;;;;;;;29.48088;15.04181;-40.746025;;1678.5
1870.0;1781.1;;;;;;;;;;;;;;-0.76113164;-0.45332193;-0.438612;;;;;1678.5
1870.0;1781.1;;;;;;;;;;;;;;;;;29.49614;16.90344;-46.21647;;1688.2
1870.0;1781.1;;;;;;;;;;;;;;-0.74550617;-0.45698416;-0.41230506;;;;;1688.2
1870.0;1781.1;;;;;;;;;;;;;;;;;30.896175;13.576922;-52.1218;;1688.2
1870.0;1781.1;;;;;;;;;;;;;;-0.7334819;-0.46223333;-0.33051544;;;;;1688.2
1870.0;1781.1;;;;;;;;;;;;;;;;;32.837917;1.823481;-59.167763;;1697.7
1870.0;1781.1;;;;;;;;;;;;;;-0.72743917;-0.48237556;-0.2334666;;;;;1697.7
1870.0;1781.1;;;;;;;;;;;;;;;;;35.02762;-10.254219;-67.95327;;1697.7
1870.0;1781.1;;;;;;;;;;;;;;-0.7318339;-0.48146;-0.17529832;;;;;1697.7
1870.0;1780.5;262143;262143;12801;;;;;;;;;;;;;;;;;;
1870.0;1781.9;;;;;;;;;;;;;;;;;39.536728;-13.985106;-74.793236;;1707.4
1870.0;1781.9;;;;;;;;;;;;;;-0.7262795;-0.4860378;-0.13495284;;;;;1707.4
1870.0;1781.9;;;;;;;;;;;;;;;;;47.189247;-11.711478;-78.489784;;1707.4
1870.0;1781.9;;;;;;;;;;;;;;-0.71553695;-0.49971008;-0.10858486;;;;;1707.4
1870.0;1781.9;;;;;;;;;;;;;;;;;53.430283;-7.126072;-80.39338;;1717.0
1870.0;1781.9;;;;;;;;;;;;;;-0.72420424;-0.519364;-0.087710194;;;;;1717.0
1870.0;1781.9;;;;;;;;;;;;;;;;;58.1225;-4.016999;-82.140564;;1717.0
1870.0;1781.9;;;;;;;;;;;;;;-0.761742;-0.5429853;-0.067751095;;;;;1717.0
1870.0;1781.9;;;;;;;;;;;;;;;;;61.323128;-3.868221;-85.60442;;1726.7
1870.0;1781.9;;;;;;;;;;;;;;-0.7983642;-0.56160164;-0.070314646;;;;;1726.7
1870.0;1781.9;;;;;;;;;;;;;;;;;64.98917;-3.3875546;-90.75823;;1726.7
1870.0;1781.9;;;;;;;;;;;;;;-0.8489029;-0.5986511;-0.07586902;;;;;1726.7
1870.0;1785.0;;;;;;;;;;8.346813;-11.875515;1.9837031;;;;;;;;;
1870.0;1785.0;;;;;;;0.7466048;-0.5802179;0.24317148;;;;;;;;;;;;
1870.0;1785.0;;;;;;;;;;7.976775;-11.711478;1.6937773;;;;;;;;;
1870.0;1785.0;;;;;;;0.7349467;-0.5757622;0.2482986;;;;;;;;;;;;
1870.0;1787.3;;;;-0.49413687;0.52483755;0.43996817;;;;;;;;;;;;;;;
1870.0;1787.3;;;;-0.48761374;0.52211386;0.43884665;;;;;;;;;;;;;;;
1870.0;1787.3;;;;-0.47905737;0.52074057;0.43573767;;;;;;;;;;;;;;;
1870.0;1787.3;;;;-0.46814352;0.5214196;0.43536383;;;;;;;;;;;;;;;
1870.0;1787.3;;;;-0.45774084;0.5189095;0.4320336;;;;;;;;;;;;;;;
1870.0;1794.6;;;;;;;;;;7.831813;-11.307108;1.8730735;;;;;;;;;
1870.0;1794.6;;;;;;;0.74275947;-0.58357495;0.2509232;;;;;;;;;;;;
1870.0;1794.6;;;;;;;;;;7.8127384;-10.696738;2.128666;;;;;;;;;
1870.0;1794.6;;;;;;;0.7543565;-0.5890683;0.24897;;;;;;;;;;;;
1927.0;1797.3;;;;-0.45647055;0.515873;0.42966467;;;;;;;;;;;;;;;
1927.0;1797.3;;;;-0.4554978;0.51315695;0.4291306;;;;;;;;;;;;;;;
1927.0;1797.3;;;;-0.46065146;0.51149374;0.42794424;;;;;;;;;;;;;;;
1927.0;1797.3;;;;-0.4671746;0.51269156;0.42906576;;;;;;;;;;;;;;;
1927.0;1797.3;;;;-0.4724999;0.51281744;0.42957312;;;;;;;;;;;;;;;
1927.0;1800.5;262143;262143;12807;;;;;;;;;;;;;;;;;;
1927.0;1804.1;;;;;;;;;;7.805109;-9.044923;2.334666;;;;;;;;;
1927.0;1804.1;;;;;;;0.76491594;-0.583697;0.24359874;;;;;;;;;;;;
1927.0;1804.1;;;;;;;;;;7.637257;-6.103702;2.399518;;;;;;;;;
1927.0;1804.1;;;;;;;0.7694937;-0.588702;0.23731193;;;;;;;;;;;;
1927.0;1806.4;;;;;;;;;;;;;1053;;;;;;;;
1927.0;1806.4;;;;;;;;;;;;;972;;;;;;;;
1927.0;1806.4;;;;;;;;;;;;;717;;;;;;;;
1927.0;1806.4;;;;;;;;;;;;;453;;;;;;;;
1927.0;1806.4;;;;;;;;;;;;;350;;;;;;;;
1927.0;1807.4;;;;-0.4853707;0.5107346;0.4267617;;;;;;;;;;;;;;;
1927.0;1807.4;;;;-0.49791723;0.5049363;0.42247015;;;;;;;;;;;;;;;
1927.0;1807.4;;;;-0.52283484;0.49817282;0.4186898;;;;;;;;;;;;;;;
1927.0;1807.4;;;;-0.547905;0.5021897;0.42366415;;;;;;;;;;;;;;;
1927.0;1807.4;;;;-0.56763846;0.50899893;0.4212876;;;;;;;;;;;;;;;
1927.0;1813.3;;;;;;;;;;7.309183;-2.4033327;2.418592;;;;;;;;;
1927.0;1813.3;;;;;;;0.7689444;-0.6010926;0.23010956;;;;;;;;;;;;
1927.0;1813.3;;;;;;;;;;6.870479;0.9994812;2.2049623;;;;;;;;;
1927.0;1813.3;;;;;;;0.7644276;-0.5940733;0.22186956;;;;;;;;;;;;
1929.0;1817.1;;;;-0.57723624;0.521267;0.42174917;;;;;;;;;;;;;;;
1929.0;1817.1;;;;-0.5769692;0.52691275;0.4172898;;;;;;;;;;;;;;;
1929.0;1817.1;;;;-0.5739365;0.5268784;0.41893774;;;;;;;;;;;;;;;
1929.0;1817.1;;;;-0.57386404;0.52608496;0.41977698;;;;;;;;;;;;;;;
1929.0;1817.1;;;;-0.58149344;0.520176;0.42271048;;;;;;;;;;;;;;;
1929.0;1820.4;262143;262143;12807;;;;;;;;;;;;;;;;;;
1929.0;1822.9;;;;;;;;;;6.3974423;3.99411;1.6975921;;;;;;;;;
1929.0;1822.9;;;;;;;0.7591174;-0.5811945;0.21692556;;;;;;;;;;;;
1929.0;1822.9;;;;;;;;;;5.916776;7.0078125;1.4763329;;;;;;;;;
1929.0;1822.9;;;;;;;0.7511826;-0.5767998;0.2163152;;;;;;;;;;;;
1929.0;1827.2;;;;-0.59493643;0.51250845;0.42397696;;;;;;;;;;;;;;;
1929.0;1827.2;;;;-0.61087424;0.5059815;0.42102438;;;;;;;;;;;;;;;
1929.0;1827.2;;;;-0.6263581;0.5023499;0.41818625;;;;;;;;;;;;;;;
1929.0;1827.2;;;;-0.6379548;0.4991799;0.4118157;;;;;;;;;;;;;;;
1929.0;1827.2;;;;-0.6471711;0.4986077;0.40669256;;;;;;;;;;;;;;;
1929.0;1832.6;;;;;;;;;;5.4017763;9.32722;1.4305551;;;;;;;;;
1929.0;1832.6;;;;;;;0.74471265;-0.57454145;0.22052675;;;;;;;;;;;;
1929.0;1832.6;;;;;;;;;;4.9058504;10.967589;1.3771478;;;;;;;;;
1929.0;1832.6;;;;;;;0.7388531;-0.57545704;0.22418897;;;;;;;;;;;;
1930.0;1837.3;;;;-0.65465933;0.50012594;0.4039994;;;;;;;;;;;;;;;
1930.0;1837.3;;;;-0.6583405;0.5021897;0.40333182;;;;;;;;;;;;;;;
1930.0;1837.3;;;;-0.6619263;0.5055428;0.40422446;;;;;;;;;;;;;;;
1930.0;1837.3;;;;-0.6685677;0.5103646;0.40374762;;;;;;;;;;;;;;;
1930.0;1837.3;;;;-0.67591864;0.5152932;0.40046698;;;;;;;;;;;;;;;
1930.0;1841.2;;;;;;;;;;;;;;;;;69.68138;-2.3461106;-98.01019;;1736.4
1930.0;1841.2;;;;;;;;;;;;;;-0.9114048;-0.6239814;-0.086123236;;;;;1736.4
1930.0;1841.2;;;;;;;;;;;;;;;;;78.5432;-1.6212958;-102.61467;;1736.4
1930.0;1841.2;;;;;;;;;;;;;;-0.9775078;-0.64357436;-0.13660085;;;;;1736.4
1930.0;1841.2;;;;;;;;;;;;;;;;;90.628525;3.3036287;-102.7253;;1745.8
1930.0;1841.2;;;;;;;;;;;;;;-1.0571002;-0.647969;-0.18298899;;;;;1745.8
1930.0;1841.2;;;;;;;;;;;;;;;;;101.031525;8.545182;-99.92904;;1745.8
1930.0;1841.2;;;;;;;;;;;;;;-1.165868;-0.6621906;-0.23340556;;;;;1745.8
1930.0;1841.2;;;;;;;;;;;;;;;;;108.088936;11.555071;-99.738304;;1755.5
1930.0;1841.2;;;;;;;;;;;;;;-1.2922758;-0.6712241;-0.2927946;;;;;1755.5
1930.0;1841.2;;;;;;;;;;;;;;;;;109.32112;15.682699;-100.74923;;1755.5
1930.0;1841.2;;;;;;;;;;;;;;-1.4210639;-0.6720786;-0.34504226;;;;;1755.5
1930.0;1840.6;262143;262143;12793;;;;;;;;;;;;;;;;;;
1930.0;1842.1;;;;;;;;;;4.448073;11.799219;1.392407;;;;;;;;;
1930.0;1842.1;;;;;;;0.7332377;-0.5789361;0.22711875;;;;;;;;;;;;
1930.0;1842.1;;;;;;;;;;3.8834803;12.0052185;1.6556292;;;;;;;;;
1930.0;1842.1;;;;;;;0.7292703;-0.57911927;0.23242897;;;;;;;;;;;;
1932.0;1842.4;;;;;;;;;;;;;;;;;110.255745;16.560106;-99.31867;;1765.2
1932.0;1842.4;;;;;;;;;;;;;;-1.5319071;-0.6630451;-0.3614002;;;;;1765.2
1932.0;1842.4;;;;;;;;;;;;;;;;;113.364815;11.535996;-96.08372;;1765.2
1932.0;1842.4;;;;;;;;;;;;;;-1.5752434;-0.64986116;-0.36548966;;;;;1765.2
1932.0;1842.4;;;;;;;;;;;;;;;;;112.95282;7.415998;-92.92505;;1774.8
1932.0;1842.4;;;;;;;;;;;;;;-1.564562;-0.6174505;-0.35523546;;;;;1774.8
1932.0;1842.4;;;;;;;;;;;;;;;;;109.0846;8.800775;-92.078156;;1774.8
1932.0;1842.4;;;;;;;;;;;;;;-1.4633015;-0.5629444;-0.37665945;;;;;1774.8
1932.0;1842.4;;;;;;;;;;;;;;;;;114.12015;13.447219;-88.23664;;1784.5
1932.0;1842.4;;;;;;;;;;;;;;-1.3450117;-0.5073397;-0.4130375;;;;;1784.5
1932.0;1842.4;;;;;;;;;;;;;;;;;117.87775;22.881252;-85.28779;;1784.5
1932.0;1842.4;;;;;;;;;;;;;;-1.2916044;-0.44788966;-0.4295175;;;;;1784.5
1932.0;1846.4;;;;;;;;;;;;;368;;;;;;;;
1932.0;1846.4;;;;;;;;;;;;;251;;;;;;;;
1932.0;1846.4;;;;;;;;;;;;;-214;;;;;;;;
1932.0;1846.4;;;;;;;;;;;;;-649;;;;;;;;
1932.0;1846.4;;;;;;;;;;;;;-534;;;;;;;;
1932.0;1847.3;;;;-0.6847039;0.52029425;0.39833838;;;;;;;;;;;;;;;
1932.0;1847.3;;;;-0.694233;0.52481467;0.39350897;;;;;;;;;;;;;;;
1932.0;1847.3;;;;-0.7027169;0.5298882;0.39114767;;;;;;;;;;;;;;;
1932.0;1847.3;;;;-0.70924;0.53477484;0.38590628;;;;;;;;;;;;;;;
1932.0;1847.3;;;;-0.7156258;0.53862387;0.3781777;;;;;;;;;;;;;;;
1932.0;1851.6;;;;;;;;;;3.3494065;12.276071;2.071444;;;;;;;;;
1932.0;1851.6;;;;;;;0.727195;-0.58162177;0.24011964;;;;;;;;;;;;
1932.0;1851.6;;;;;;;;;;2.6551104;12.718589;2.4643695;;;;;;;;;
1932.0;1851.6;;;;;;;0.7215796;-0.5783868;0.24536882;;;;;;;;;;;;
1987.0;1857.2;;;;-0.7227822;0.5421067;0.3720589;;;;;;;;;;;;;;;
1987.0;1857.2;;;;-0.7304612;0.5460015;0.3683205;;;;;;;;;;;;;;;
1987.0;1857.2;;;;-0.7382546;0.5466233;0.36458972;;;;;;;;;;;;;;;
1987.0;1857.2;;;;-0.7451897;0.54835516;0.36267093;;;;;;;;;;;;;;;
1987.0;1857.2;;;;-0.750908;0.54964453;0.35985568;;;;;;;;;;;;;;;
1987.0;1860.6;262143;262143;12794;;;;;;;;;;;;;;;;;;
1987.0;1861.1;;;;;;;;;;2.067629;12.867367;2.7809992;;;;;;;;;
1987.0;1861.1;;;;;;;0.718894;-0.5746635;0.24909207;;;;;;;;;;;;
1987.0;1861.1;;;;;;;;;;1.7242957;12.939848;3.0671103;;;;;;;;;
1987.0;1861.1;;;;;;;0.72273934;-0.57332075;0.25330362;;;;;;;;;;;;
1987.0;1867.3;;;;-0.755993;0.5507584;0.3565102;;;;;;;;;;;;;;;
1987.0;1867.3;;;;-0.7612115;0.5531464;0.35266116;;;;;;;;;;;;;;;
1987.0;1867.3;;;;-0.7662202;0.556572;0.351635;;;;;;;;;;;;;;;
1987.0;1867.3;;;;-0.7705537;0.5617257;0.3503113;;;;;;;;;;;;;;;
1987.0;1867.3;;;;-0.7749101;0.566845;0.35221484;;;;;;;;;;;;;;;
1987.0;1870.7;;;;;;;;;;1.5259255;13.218329;3.3761103;;;;;;;;;
1987.0;1870.7;;;;;;;0.7323832;-0.5725272;0.25916317;;;;;;;;;;;;
1987.0;1870.7;;;;;;;;;;1.3504441;13.668478;3.711814;;;;;;;;;
1987.0;1870.7;;;;;;;0.74562824;-0.5763115;0.26569414;;;;;;;;;;;;
1989.0;1877.3;;;;-0.7796556;0.5738259;0.35527042;;;;;;;;;;;;;;;
1989.0;1877.3;;;;-0.78418744;0.58176047;0.35948184;;;;;;;;;;;;;;;
1989.0;1877.3;;;;-0.7900773;0.58863837;0.36331943;;;;;;;;;;;;;;;
1989.0;1877.3;;;;-0.79659665;0.59727484;0.36768726;;;;;;;;;;;;;;;
1989.0;1877.3;;;;-0.8031465;0.6064072;0.37139896;;;;;;;;;;;;;;;
1989.0;1880.2;;;;;;;;;;1.1711478;14.0957365;3.9407024;;;;;;;;;
1989.0;1880.2;;;;;;;0.7541734;-0.58308667;0.2702109;;;;;;;;;;;;
1989.0;1880.2;;;;;;;;;;0.96896267;14.675589;3.9979248;;;;;;;;;
1989.0;1880.2;;;;;;;0.75734735;-0.5890683;0.27497178;;;;;;;;;;;;
1989.0;1880.7;262143;262143;12793;;;;;;;;;;;;;;;;;;
1989.0;1886.6;;;;;;;;;;;;;-176;;;;;;;;
1989.0;1886.6;;;;;;;;;;;;;-236;;;;;;;;
1989.0;1886.6;;;;;;;;;;;;;-778;;;;;;;;
1989.0;1886.6;;;;;;;;;;;;;-1330;;;;;;;;
1989.0;1886.6;;;;;;;;;;;;;-1452;;;;;;;;
1989.0;1887.4;;;;-0.8113862;0.61609274;0.37711722;;;;;;;;;;;;;;;
1989.0;1887.4;;;;-0.81896603;0.6257058;0.3776055;;;;;;;;;;;;;;;
1989.0;1887.4;;;;-0.8276712;0.6384621;0.39065176;;;;;;;;;;;;;;;
1989.0;1887.4;;;;-0.8317796;0.64558035;0.38273245;;;;;;;;;;;;;;;
1989.0;1887.4;;;;-0.83877194;0.65274054;0.38451773;;;;;;;;;;;;;;;
1989.0;1889.8;;;;;;;;;;0.7019257;15.65218;3.952147;;;;;;;;;
1989.0;1889.8;;;;;;;0.7531358;-0.59474474;0.27954954;;;;;;;;;;;;
1989.0;1889.8;;;;;;;;;;0.5874813;16.38081;3.7614062;;;;;;;;;
1989.0;1889.8;;;;;;;0.7483749;-0.5945616;0.28193;;;;;;;;;;;;
1993.0;1897.5;;;;-0.8486177;0.66294485;0.38806158;;;;;;;;;;;;;;;
1993.0;1897.5;;;;-0.85598385;0.67173773;0.388218;;;;;;;;;;;;;;;
1993.0;1897.5;;;;-0.8596307;0.68168646;0.39083868;;;;;;;;;;;;;;;
1993.0;1897.5;;;;-0.8591958;0.69048315;0.39256674;;;;;;;;;;;;;;;
1993.0;1897.5;;;;-0.8580781;0.6988068;0.39272314;;;;;;;;;;;;;;;
1993.0;1899.4;;;;;;;;;;0.65614796;16.788996;3.6393323;;;;;;;;;
1993.0;1899.4;;;;;;;0.7490463;-0.5913877;0.28601947;;;;;;;;;;;;
1993.0;1899.4;;;;;;;;;;0.7515183;17.151402;3.5973694;;;;;;;;;
1993.0;1899.4;;;;;;;0.755089;-0.5882748;0.28711814;;;;;;;;;;;;
1993.0;1901.0;262143;262143;12793;;;;;;;;;;;;;;;;;;
1993.0;1907.6;;;;-0.8569566;0.7073365;0.39010245;;;;;;;;;;;;;;;
1993.0;1907.6;;;;-0.8545495;0.7160912;0.3878289;;;;;;;;;;;;;;;
1993.0;1907.6;;;;-0.85082257;0.72422796;0.38569647;;;;;;;;;;;;;;;
1993.0;1907.6;;;;-0.84583676;0.7336655;0.3847428;;;;;;;;;;;;;;;
1993.0;1907.6;;;;-0.8405305;0.7415772;0.38301092;;;;;;;;;;;;;;;
1995.0;1909.0;;;;;;;;;;;;;;;;;116.737114;31.693474;-87.02734;;1794.0
1995.0;1909.0;;;;;;;;;;;;;;-1.2800684;-0.38538775;-0.40186775;;;;;1794.0
1995.0;1909.0;;;;;;;;;;;;;;;;;108.905304;33.444473;-91.83019;;1794.0
1995.0;1909.0;;;;;;;;;;;;;;-1.2974029;-0.3299051;-0.30890834;;;;;1794.0
1995.0;1909.0;;;;;;;;;;;;;;;;;96.36983;25.482956;-96.50716;;1803.6
1995.0;1909.0;;;;;;;;;;;;;;-1.3095492;-0.26355785;-0.22815637;;;;;1803.6
1995.0;1909.0;;;;;;;;;;;;;;;;;81.27842;18.333994;-98.28105;;1803.6
1995.0;1909.0;;;;;;;;;;;;;;-1.3152257;-0.18909268;-0.19623402;;;;;1803.6
1995.0;1909.0;;;;;;;;;;;;;;;;;67.281876;17.452772;-96.64449;;1813.3
1995.0;1909.0;;;;;;;;;;;;;;-1.3220618;-0.081667535;-0.1650441;;;;;1813.3
1995.0;1909.0;;;;;;;;;;;;;;;;;57.45491;18.96344;-88.934746;;1813.3
1995.0;1909.0;;;;;;;;;;;;;;-1.3229774;0.017578661;-0.15088351;;;;;1813.3
1995.0;1908.9;;;;;;;;;;0.839259;17.685476;3.6355176;;;;;;;;;
1995.0;1908.9;;;;;;;0.76723534;-0.5855892;0.28974274;;;;;;;;;;;;
1995.0;1908.9;;;;;;;;;;0.6485183;19.16944;3.5363324;;;;;;;;;
1995.0;1908.9;;;;;;;0.78212833;-0.5553148;0.30738243;;;;;;;;;;;;
1996.0;1909.8;;;;;;;;;;;;;;;;;51.641132;22.560808;-77.39494;;1822.8
1996.0;1909.8;;;;;;;;;;;;;;-1.3268838;0.098269604;-0.11725211;;;;;1822.8
1996.0;1909.8;;;;;;;;;;;;;;;;;44.064915;22.91177;-67.40013;;1822.8
1996.0;1909.8;;;;;;;;;;;;;;-1.3226112;0.13818781;-0.08404797;;;;;1822.8
1996.0;1909.8;;;;;;;;;;;;;;;;;32.940918;17.590105;-63.70739;;1832.5
1996.0;1909.8;;;;;;;;;;;;;;-1.3364666;0.20636617;-0.0888699;;;;;1832.5
1996.0;1909.8;;;;;;;;;;;;;;;;;24.365215;11.791589;-61.61687;;1832.5
1996.0;1909.8;;;;;;;;;;;;;;-1.3063142;0.23236793;-0.1445967;;;;;1832.5
1996.0;1909.8;;;;;;;;;;;;;;;;;27.581102;10.177923;-60.61739;;1842.0
1996.0;1909.8;;;;;;;;;;;;;;-1.281167;0.23932615;-0.18768883;;;;;1842.0
1996.0;1909.8;;;;;;;;;;;;;;;;;31.73162;15.301217;-67.04154;;1842.0
1996.0;1909.8;;;;;;;;;;;;;;-1.2510757;0.22846156;-0.22217475;;;;;1842.0
1996.0;1917.3;;;;-0.8323289;0.74888235;0.38005453;;;;;;;;;;;;;;;
1996.0;1917.3;;;;-0.8217851;0.7574388;0.38270956;;;;;;;;;;;;;;;
1996.0;1917.3;;;;-0.8106462;0.7634126;0.38211828;;;;;;;;;;;;;;;
1996.0;1917.3;;;;-0.79813015;0.77113354;0.38169485;;;;;;;;;;;;;;;
1996.0;1917.3;;;;-0.7849313;0.780018;0.38077933;;;;;;;;;;;;;;;
1996.0;1918.3;;;;;;;;;;1.0223701;21.72918;3.0175178;;;;;;;;;
1996.0;1918.3;;;;;;;0.79909664;-0.5096591;0.32264167;;;;;;;;;;;;
1996.0;1918.3;;;;;;;;;;1.3885921;25.269325;2.3499253;;;;;;;;;
1996.0;1918.3;;;;;;;0.8004395;-0.51026946;0.33887753;;;;;;;;;;;;
1996.0;1920.9;262143;262143;12794;;;;;;;;;;;;;;;;;;
2109.0;1926.7;;;;;;;;;;;;;-1209;;;;;;;;
2109.0;1926.7;;;;;;;;;;;;;-966;;;;;;;;
2109.0;1926.7;;;;;;;;;;;;;-713;;;;;;;;
2109.0;1926.7;;;;;;;;;;;;;-261;;;;;;;;
2109.0;1926.7;;;;;;;;;;;;;186;;;;;;;;
2109.0;1927.4;;;;-0.773739;0.7869874;0.37790686;;;;;;;;;;;;;;;
2109.0;1927.4;;;;-0.76319516;0.79457486;0.3750382;;;;;;;;;;;;;;;
2109.0;1927.4;;;;-0.7548982;0.8022233;0.37342456;;;;;;;;;;;;;;;
2109.0;1927.4;;;;-0.74810416;0.8086244;0.37011722;;;;;;;;;;;;;;;
2109.0;1927.4;;;;-0.7421532;0.8150331;0.365963;;;;;;;;;;;;;;;
2109.0;1927.9;;;;;;;;;;1.2703329;30.278175;1.5793328;;;;;;;;;
2109.0;1927.9;;;;;;;0.7909177;-0.5444502;0.34986418;;;;;;;;;;;;
2109.0;1927.9;;;;;;;;;;1.0605181;34.272285;-0.07248146;;;;;;;;;
2109.0;1927.9;;;;;;;0.76808983;-0.57600635;0.35065767;;;;;;;;;;;;
2109.0;1937.2;;;;-0.736847;0.8200723;0.36156848;;;;;;;;;;;;;;;
2109.0;1937.2;;;;-0.7319642;0.82553875;0.35805133;;;;;;;;;;;;;;;
2109.0;1937.2;;;;-0.726944;0.8310548;0.35328677;;;;;;;;;;;;;;;
2109.0;1937.2;;;;-0.7223893;0.8372079;0.35026172;;;;;;;;;;;;;;;
2109.0;1937.2;;;;-0.7183419;0.8441926;0.34774402;;;;;;;;;;;;;;;
2109.0;1937.3;;;;;;;;;;0.7820368;36.576435;-1.6708884;;;;;;;;;
2109.0;1937.3;;;;;;;0.74794763;-0.60506;0.34925383;;;;;;;;;;;;
2109.0;1937.3;;;;;;;;;;0.8049257;38.26258;-2.4796288;;;;;;;;;
2109.0;1937.3;;;;;;;0.74153876;-0.61867124;0.34009826;;;;;;;;;;;;
2109.0;1940.8;262143;262143;12786;;;;;;;;;;;;;;;;;;
2111.0;1946.9;;;;;;;;;;0.88503677;39.990692;-2.9869993;;;;;;;;;
2111.0;1946.9;;;;;;;0.74544513;-0.61574143;0.32502213;;;;;;;;;;;;
2111.0;1946.9;;;;;;;;;;0.79729605;42.641987;-3.482925;;;;;;;;;
2111.0;1946.9;;;;;;;0.75374615;-0.60408336;0.30976287;;;;;;;;;;;;
2111.0;1947.3;;;;-0.7138482;0.84915173;0.3453484;;;;;;;;;;;;;;;
2111.0;1947.3;;;;-0.709137;0.8563577;0.34447864;;;;;;;;;;;;;;;
2111.0;1947.3;;;;-0.70397574;0.86182797;0.34216312;;;;;;;;;;;;;;;
2111.0;1947.3;;;;-0.6986962;0.86781704;0.3422623;;;;;;;;;;;;;;;
2111.0;1947.3;;;;-0.69445807;0.87288296;0.34064487;;;;;;;;;;;;;;;
2111.0;1956.5;;;;;;;;;;0.65233314;46.235542;-3.7347028;;;;;;;;;
2111.0;1956.5;;;;;;;0.7658315;-0.5940733;0.29358807;;;;;;;;;;;;
2111.0;1956.5;;;;;;;;;;0.8888516;50.874355;-3.6164434;;;;;;;;;
2111.0;1956.5;;;;;;;0.77999204;-0.5950499;0.27936643;;;;;;;;;;;;
2111.0;1957.4;;;;-0.6891785;0.8789178;0.3402138;;;;;;;;;;;;;;;
2111.0;1957.4;;;;-0.685299;0.8814851;0.338295;;;;;;;;;;;;;;;
2111.0;1957.4;;;;-0.68199545;0.8851892;0.33864978;;;;;;;;;;;;;;;
2111.0;1957.4;;;;-0.67786413;0.8902017;0.33792117;;;;;;;;;;;;;;;
2111.0;1957.4;;;;-0.6748734;0.89738476;0.33913043;;;;;;;;;;;;;;;
2113.0;1961.6;;;;;;;;;;;;;;;;;36.17969;16.51433;-74.55672;;1851.7
2113.0;1961.6;;;;;;;;;;;;;;-1.2219611;0.19690542;-0.2360912;;;;;1851.7
2113.0;1961.6;;;;;;;;;;;;;;;;;34.028137;8.384961;-80.65279;;1851.7
2113.0;1961.6;;;;;;;;;;;;;;-1.1567125;0.115543075;-0.33954895;;;;;1851.7
2113.0;1961.6;;;;;;;;;;;;;;;;;37.48436;2.6169622;-78.45164;;1861.3
2113.0;1961.6;;;;;;;;;;;;;;-1.0771203;0.05633717;-0.4189581;;;;;1861.3
2113.0;1961.6;;;;;;;;;;;;;;;;;44.717243;4.6578875;-72.24876;;1861.3
2113.0;1961.6;;;;;;;;;;;;;;-1.0463576;0.018982513;-0.44709617;;;;;1861.3
2113.0;1961.6;;;;;;;;;;;;;;;;;43.294323;10.067293;-70.76098;;1870.9
2113.0;1961.6;;;;;;;;;;;;;;-1.0478835;0.0053712577;-0.40040284;;;;;1870.9
2113.0;1961.6;;;;;;;;;;;;;;;;;31.22425;10.052033;-69.78057;;1870.9
2113.0;1961.6;;;;;;;;;;;;;;-1.0543535;-0.010925626;-0.3336894;;;;;1870.9
2113.0;1961.1;262143;262143;12790;;;;;;;;;;;;;;;;;;
2116.0;1962.4;;;;;;;;;;;;;;;;;14.8625145;4.623554;-67.65191;;1880.5
2116.0;1962.4;;;;;;;;;;;;;;-1.0740074;-0.04034547;-0.21082187;;;;;1880.5
2116.0;1962.4;;;;;;;;;;;;;;;;;-2.578814;-3.8338878;-64.27961;;1880.5
2116.0;1962.4;;;;;;;;;;;;;;-1.0723594;-0.048036136;-0.10870693;;;;;1880.5
2116.0;1962.4;;;;;;;;;;;;;;;;;-14.931181;-8.148442;-59.96887;;1890.1
2116.0;1962.4;;;;;;;;;;;;;;-1.0613728;-0.066530354;-0.048524432;;;;;1890.1
2116.0;1962.4;;;;;;;;;;;;;;;;;-18.757439;-9.678183;-54.017765;;1890.1
2116.0;1962.4;;;;;;;;;;;;;;-1.0417799;-0.083254494;-0.027100436;;;;;1890.1
2116.0;1962.4;;;;;;;;;;;;;;;;;-17.391735;-10.589923;-47.23121;;1899.7
2116.0;1962.4;;;;;;;;;;;;;;-0.9947203;-0.10077212;-0.071413316;;;;;1899.7
2116.0;1962.4;;;;;;;;;;;;;;;;;-12.108219;-9.067812;-41.55858;;1899.7
2116.0;1962.4;;;;;;;;;;;;;;-0.94863737;-0.11267434;-0.13885921;;;;;1899.7
2116.0;1966.0;;;;;;;;;;1.3466293;55.837425;-3.3494065;;;;;;;;;
2116.0;1966.0;;;;;;;0.7960448;-0.5976745;0.2658162;;;;;;;;;;;;
2116.0;1966.0;;;;;;;;;;1.8845179;60.892056;-3.2654805;;;;;;;;;
2116.0;1966.0;;;;;;;0.80935085;-0.5993225;0.2602008;;;;;;;;;;;;
2116.0;1966.8;;;;;;;;;;;;;381;;;;;;;;
2116.0;1966.8;;;;;;;;;;;;;530;;;;;;;;
2116.0;1966.8;;;;;;;;;;;;;917;;;;;;;;
2116.0;1966.8;;;;;;;;;;;;;1484;;;;;;;;
2116.0;1966.8;;;;;;;;;;;;;1840;;;;;;;;
2116.0;1967.4;;;;-0.6726685;0.9036523;0.34041598;;;;;;;;;;;;;;;
2116.0;1967.4;;;;-0.6710015;0.9096681;0.3444138;;;;;;;;;;;;;;;
2116.0;1967.4;;;;-0.67005163;0.915146;0.34985355;;;;;;;;;;;;;;;
2116.0;1967.4;;;;-0.6692086;0.9232675;0.35454944;;;;;;;;;;;;;;;
2116.0;1967.4;;;;-0.6694985;0.9288522;0.3580399;;;;;;;;;;;;;;;
2117.0;1975.6;;;;;;;;;;2.1477401;66.32054;-3.3379622;;;;;;;;;
2117.0;1975.6;;;;;;;0.8197272;-0.59944457;0.2578814;;;;;;;;;;;;
2117.0;1975.6;;;;;;;;;;2.3003328;72.07327;-3.6317027;;;;;;;;;
2117.0;1975.6;;;;;;;0.8273568;-0.5955382;0.25501266;;;;;;;;;;;;
2117.0;1977.4;;;;-0.67070776;0.9329454;0.36316684;;;;;;;;;;;;;;;
2117.0;1977.4;;;;-0.67215735;0.9358789;0.3682938;;;;;;;;;;;;;;;
2117.0;1977.4;;;;-0.6730576;0.93911755;0.3742943;;;;;;;;;;;;;;;
2117.0;1977.4;;;;-0.6725083;0.9420053;0.37841803;;;;;;;;;;;;;;;
2117.0;1977.4;;;;-0.6743813;0.9422952;0.3823548;;;;;;;;;;;;;;;
2117.0;1981.1;262143;262143;12796;;;;;;;;;;;;;;;;;;
2117.0;1985.1;;;;;;;;;;2.25074;77.94809;-4.325999;;;;;;;;;
2117.0;1985.1;;;;;;;0.8366344;-0.59431744;0.25415814;;;;;;;;;;;;
2117.0;1985.1;;;;;;;;;;1.823481;83.99457;-5.1614428;;;;;;;;;
2117.0;1985.1;;;;;;;0.84267706;-0.5871151;0.255562;;;;;;;;;;;;
2117.0;1987.4;;;;-0.6766892;0.9441072;0.38734823;;;;;;;;;;;;;;;
2117.0;1987.4;;;;-0.67776877;0.947281;0.39245993;;;;;;;;;;;;;;;
2117.0;1987.4;;;;-0.67934424;0.9486619;0.3975373;;;;;;;;;;;;;;;
2117.0;1987.4;;;;-0.6805764;0.94989026;0.4015389;;;;;;;;;;;;;;;
2117.0;1987.4;;;;-0.68105704;0.9513551;0.4060021;;;;;;;;;;;;;;;
2117.0;1994.6;;;;;;;;;;1.0223701;89.69008;-6.1609244;;;;;;;;;
2117.0;1994.6;;;;;;;0.83803827;-0.5716117;0.2494583;;;;;;;;;;;;
2117.0;1994.6;;;;;;;;;;-0.54933316;94.06186;-6.981109;;;;;;;;;
2117.0;1994.6;;;;;;;0.81283;-0.55244607;0.23816645;;;;;;;;;;;;
2119.0;1997.5;;;;-0.6834298;0.9516374;0.41120535;;;;;;;;;;;;;;;
2119.0;1997.5;;;;-0.6860009;0.9531175;0.41626745;;;;;;;;;;;;;;;
2119.0;1997.5;;;;-0.6871529;0.9540864;0.4211312;;;;;;;;;;;;;;;
2119.0;1997.5;;;;-0.6861344;0.9568292;0.42664725;;;;;;;;;;;;;;;
2119.0;1997.5;;;;-0.6855622;0.95725644;0.43174368;;;;;;;;;;;;;;;
2119.0;2001.2;262143;262143;12795;;;;;;;;;;;;;;;;;;
2119.0;2004.2;;;;;;;;;;-2.4147773;97.99112;-7.3435163;;;;;;;;;
2119.0;2004.2;;;;;;;0.770043;-0.5434736;0.24268319;;;;;;;;;;;;
2119.0;2004.2;;;;;;;;;;-3.4333322;103.07626;-7.3397017;;;;;;;;;
2119.0;2004.2;;;;;;;0.73342085;-0.53822446;0.25104526;;;;;;;;;;;;
2119.0;2007.0;;;;;;;;;;;;;1676;;;;;;;;
2119.0;2007.0;;;;;;;;;;;;;1164;;;;;;;;
2119.0;2007.0;;;;;;;;;;;;;704;;;;;;;;
2119.0;2007.0;;;;;;;;;;;;;362;;;;;;;;
2119.0;2007.0;;;;;;;;;;;;;89;;;;;;;;
2119.0;2007.6;;;;-0.6857415;0.95806515;0.4378205;;;;;;;;;;;;;;;
2119.0;2007.6;;;;-0.68573004;0.95990765;0.44311148;;;;;;;;;;;;;;;
2119.0;2007.6;;;;-0.6853562;0.96126187;0.44961935;;;;;;;;;;;;;;;
2119.0;2007.6;;;;-0.684784;0.96120083;0.45457846;;;;;;;;;;;;;;;
2119.0;2007.6;;;;-0.6840096;0.9618989;0.46092612;;;;;;;;;;;;;;;
2119.0;2013.8;;;;;;;;;;-3.9979248;108.47041;-7.3931093;;;;;;;;;
2119.0;2013.8;;;;;;;0.7098605;-0.5373699;0.26197088;;;;;;;;;;;;
2119.0;2013.8;;;;;;;;;;-4.4099245;113.70815;-7.7249975;;;;;;;;;
2119.0;2013.8;;;;;;;0.7024751;-0.5429853;0.27564317;;;;;;;;;;;;
2121.0;2017.7;;;;-0.683487;0.9631349;0.46710974;;;;;;;;;;;;;;;
2121.0;2017.7;;;;-0.6832047;0.96408474;0.47340018;;;;;;;;;;;;;;;
2121.0;2017.7;;;;-0.6836625;0.96488965;0.47913367;;;;;;;;;;;;;;;
2121.0;2017.7;;;;-0.68241507;0.9631425;0.48461157;;;;;;;;;;;;;;;
2121.0;2017.7;;;;-0.67973715;0.95897305;0.49010473;;;;;;;;;;;;;;;
2121.0;2021.4;262143;262143;12784;;;;;;;;;;;;;;;;;;
2121.0;2022.3;;;;;;;;;;;;;;;;;-5.447554;-5.4017763;-36.667988;;1909.4
2121.0;2022.3;;;;;;;;;;;;;;-0.9108554;-0.12494278;-0.19147313;;;;;1909.4
2121.0;2022.3;;;;;;;;;;;;;;;;;1.1825923;-1.5335552;-31.411175;;1909.4
2121.0;2022.3;;;;;;;;;;;;;;-0.87923825;-0.128605;-0.21619312;;;;;1909.4
2121.0;2022.3;;;;;;;;;;;;;;;;;4.9592576;1.1101108;-26.387066;;1919.0
2121.0;2022.3;;;;;;;;;;;;;;-0.84957427;-0.14276558;-0.20911282;;;;;1919.0
2121.0;2022.3;;;;;;;;;;;;;;;;;6.5347757;2.212592;-22.137363;;1919.0
2121.0;2022.3;;;;;;;;;;;;;;-0.8166753;-0.14166692;-0.16956083;;;;;1919.0
2121.0;2022.3;;;;;;;;;;;;;;;;;7.4961085;3.051851;-17.380291;;1928.6
2121.0;2022.3;;;;;;;;;;;;;;-0.79427475;-0.1439253;-0.12048708;;;;;1928.6
2121.0;2022.3;;;;;;;;;;;;;;;;;8.823664;5.0813317;-12.710959;;1928.6
2121.0;2022.3;;;;;;;;;;;;;;-0.7709586;-0.14728233;-0.08899198;;;;;1928.6
2123.0;2023.0;;;;;;;;;;;;;;;;;10.563219;7.3931093;-7.831813;;1938.2
2123.0;2023.0;;;;;;;;;;;;;;-0.75045013;-0.14679404;-0.06714072;;;;;1938.2
2123.0;2023.0;;;;;;;;;;;;;;;;;12.325664;8.461257;-2.9869993;;1938.2
2123.0;2023.0;;;;;;;;;;;;;;-0.7243263;-0.14600055;-0.05365154;;;;;1938.2
2123.0;2023.0;;;;;;;;;;;;;;;;;14.057589;8.915219;1.8692588;;1947.9
2123.0;2023.0;;;;;;;;;;;;;;-0.69338053;-0.13605152;-0.054200873;;;;;1947.9
2123.0;2023.0;;;;;;;;;;;;;;;;;15.655996;10.185553;7.0078125;;1947.9
2123.0;2023.0;;;;;;;;;;;;;;-0.6659139;-0.13049714;-0.046388134;;;;;1947.9
2123.0;2023.0;;;;;;;;;;;;;;;;;16.651663;10.723441;11.791589;;1957.6
2123.0;2023.0;;;;;;;;;;;;;;-0.63112277;-0.12701803;-0.04156621;;;;;1957.6
2123.0;2023.0;;;;;;;;;;;;;;;;;17.082735;11.1888485;16.354107;;1957.6
2123.0;2023.0;;;;;;;;;;;;;;-0.61470383;-0.12506485;-0.02887051;;;;;1957.6
2123.0;2023.2;;;;;;;;;;-4.8066654;118.62545;-8.205665;;;;;;;;;
2123.0;2023.2;;;;;;;0.70741904;-0.54664755;0.28754538;;;;;;;;;;;;
2123.0;2023.2;;;;;;;;;;-5.348369;122.646255;-8.594775;;;;;;;;;
2123.0;2023.2;;;;;;;0.7190161;-0.55653554;0.29663992;;;;;;;;;;;;
2123.0;2027.5;;;;-0.67828757;0.95679486;0.4956208;;;;;;;;;;;;;;;
2123.0;2027.5;;;;-0.67771536;0.95253384;0.5000573;;;;;;;;;;;;;;;
2123.0;2027.5;;;;-0.6770745;0.9481927;0.5046616;;;;;;;;;;;;;;;
2123.0;2027.5;;;;-0.67477804;0.94464505;0.508442;;;;;;;;;;;;;;;
2123.0;2027.5;;;;-0.67361456;0.94095623;0.51092535;;;;;;;;;;;;;;;
2123.0;2032.8;;;;;;;;;;-5.9129615;124.63377;-8.793145;;;;;;;;;
2123.0;2032.8;;;;;;;0.72768337;-0.5669118;0.30103457;;;;;;;;;;;;
2123.0;2032.8;;;;;;;;;;-6.328776;124.88556;-8.648182;;;;;;;;;
2123.0;2032.8;;;;;;;0.7315287;-0.57203895;0.30018005;;;;;;;;;;;;
2125.0;2037.5;;;;-0.67179114;0.93615353;0.5124207;;;;;;;;;;;;;;;
2125.0;2037.5;;;;-0.6684075;0.9322816;0.51279837;;;;;;;;;;;;;;;
2125.0;2037.5;;;;-0.664383;0.9273759;0.5113297;;;;;;;;;;;;;;;
2125.0;2037.5;;;;-0.65938956;0.9225198;0.50856405;;;;;;;;;;;;;;;
2125.0;2037.5;;;;-0.653843;0.918316;0.50796896;;;;;;;;;;;;;;;
2125.0;2041.3;262143;262143;12786;;;;;;;;;;;;;;;;;;
2125.0;2042.3;;;;;;;;;;-6.824702;124.881744;-8.098849;;;;;;;;;
2125.0;2042.3;;;;;;;0.7279275;-0.57240516;0.2952971;;;;;;;;;;;;
2125.0;2042.3;;;;;;;;;;-7.530442;124.881744;-7.2252574;;;;;;;;;
2125.0;2042.3;;;;;;;0.723777;-0.56880397;0.28693503;;;;;;;;;;;;
2125.0;2047.2;;;;;;;;;;;;;-99;;;;;;;;
2125.0;2047.2;;;;;;;;;;;;;-246;;;;;;;;
2125.0;2047.2;;;;;;;;;;;;;-414;;;;;;;;
2125.0;2047.2;;;;;;;;;;;;;-563;;;;;;;;
2125.0;2047.2;;;;;;;;;;;;;-628;;;;;;;;
2125.0;2047.6;;;;-0.6465226;0.9149362;0.5067597;;;;;;;;;;;;;;;
2125.0;2047.6;;;;-0.6368714;0.91129696;0.5043183;;;;;;;;;;;;;;;
2125.0;2047.6;;;;-0.62650305;0.9080087;0.5035363;;;;;;;;;;;;;;;
2125.0;2047.6;;;;-0.61435705;0.90547574;0.50251395;;;;;;;;;;;;;;;
2125.0;2047.6;;;;-0.60272604;0.90301144;0.5000306;;;;;;;;;;;;;;;
2125.0;2051.7;;;;;;;;;;-8.381146;124.881744;-6.241035;;;;;;;;;
2125.0;2051.7;;;;;;;0.72475356;-0.56392103;0.27838984;;;;;;;;;;;;
2125.0;2051.7;;;;;;;;;;-9.479813;124.881744;-5.237739;;;;;;;;;
2125.0;2051.7;;;;;;;0.7251808;-0.54878384;0.2682577;;;;;;;;;;;;
2164.0;2057.1;;;;-0.5925675;0.8998796;0.49802786;;;;;;;;;;;;;;;
2164.0;2057.1;;;;-0.58033377;0.8950082;0.4987679;;;;;;;;;;;;;;;
2164.0;2057.1;;;;-0.5670853;0.88824856;0.49678808;;;;;;;;;;;;;;;
2164.0;2057.1;;;;-0.5571137;0.8838655;0.49621207;;;;;;;;;;;;;;;
2164.0;2057.1;;;;-0.5480233;0.8810884;0.49558645;;;;;;;;;;;;;;;
2164.0;2060.9;;;;;;;;;;-10.917997;124.881744;-4.1505175;;;;;;;;;
2164.0;2060.9;;;;;;;0.72060305;-0.5317545;0.25336465;;;;;;;;;;;;
2164.0;2060.9;;;;;;;;;;-12.733848;124.881744;-3.0060732;;;;;;;;;
2164.0;2060.9;;;;;;;0.70601517;-0.5199133;0.24304941;;;;;;;;;;;;
2164.0;2060.9;262143;262143;12792;;;;;;;;;;;;;;;;;;
2164.0;2067.1;;;;-0.5416756;0.87700284;0.4933396;;;;;;;;;;;;;;;
2164.0;2067.1;;;;-0.53674704;0.87360775;0.49268347;;;;;;;;;;;;;;;
2164.0;2067.1;;;;-0.5314103;0.8713418;0.49103934;;;;;;;;;;;;;;;
2164.0;2067.1;;;;-0.5266648;0.8701364;0.4897309;;;;;;;;;;;;;;;
2164.0;2067.1;;;;-0.520794;0.86844647;0.48852926;;;;;;;;;;;;;;;
2164.0;2070.5;;;;;;;;;;-14.286477;124.881744;-1.9302957;;;;;;;;;
2164.0;2070.5;;;;;;;0.6906949;-0.51008636;0.23712882;;;;;;;;;;;;
2164.0;2070.5;;;;;;;;;;-15.949736;124.881744;-1.1749626;;;;;;;;;
2164.0;2070.5;;;;;;;0.67378765;-0.49922177;0.23139134;;;;;;;;;;;;
2166.0;2077.2;;;;-0.5160714;0.866459;0.48682028;;;;;;;;;;;;;;;
2166.0;2077.2;;;;-0.5108109;0.86314404;0.48694617;;;;;;;;;;;;;;;
2166.0;2077.2;;;;-0.50705343;0.8604661;0.48493582;;;;;;;;;;;;;;;
2166.0;2077.2;;;;-0.50362784;0.85712826;0.48167807;;;;;;;;;;;;;;;
2166.0;2077.2;;;;-0.5009118;0.85432446;0.48283392;;;;;;;;;;;;;;;
2166.0;2080.1;;;;;;;;;;-18.101292;124.881744;-0.75914794;;;;;;;;;
2166.0;2080.1;;;;;;;0.6498001;-0.4867702;0.23737296;;;;;;;;;;;;
2166.0;2080.1;;;;;;;;;;-20.18418;124.881744;-0.76296276;;;;;;;;;
2166.0;2080.1;;;;;;;0.6256294;-0.47779778;0.25714895;;;;;;;;;;;;
2166.0;2081.6;;;;;;;;;;;;;;;;;16.51433;11.0400715;21.004364;;1967.2
2166.0;2081.6;;;;;;;;;;;;;;-0.603473;-0.12610248;-0.017334513;;;;;1967.2
2166.0;2081.6;;;;;;;;;;;;;;;;;15.160069;10.078737;25.555437;;1967.2
2166.0;2081.6;;;;;;;;;;;;;;-0.5841853;-0.1264687;-0.011658071;;;;;1967.2
2166.0;2081.6;;;;;;;;;;;;;;;;;13.096255;9.63622;30.117952;;1976.8
2166.0;2081.6;;;;;;;;;;;;;;-0.57387006;-0.130253;0.0014648885;;;;;1976.8
2166.0;2081.6;;;;;;;;;;;;;;;;;10.349589;8.331553;34.20743;;1976.8
2166.0;2081.6;;;;;;;;;;;;;;-0.56215096;-0.13464767;0.013428144;;;;;1976.8
2166.0;2081.6;;;;;;;;;;;;;;;;;6.9544053;6.195257;38.026066;;1986.4
2166.0;2081.6;;;;;;;;;;;;;;-0.5459151;-0.1490524;0.021851253;;;;;1986.4
2166.0;2081.6;;;;;;;;;;;;;;;;;3.5821102;5.062258;41.41743;;1986.4
2166.0;2081.6;;;;;;;;;;;;;;-0.5294351;-0.1610767;0.030213324;;;;;1986.4
2166.0;2081.2;262143;262143;12787;;;;;;;;;;;;;;;;;;
2167.0;2082.3;;;;;;;;;;;;;;;;;-0.16403699;5.01648;44.866024;;1996.0
2167.0;2082.3;;;;;;;;;;;;;;-0.5236976;-0.17249061;0.03869747;;;;;1996.0
2167.0;2082.3;;;;;;;;;;;;;;;;;-3.9445176;4.81048;47.93695;;1996.0
2167.0;2082.3;;;;;;;;;;;;;;-0.5163121;-0.17902158;0.039246805;;;;;1996.0
2167.0;2082.3;;;;;;;;;;;;;;;;;-7.9195538;5.2529984;50.801872;;2005.6
2167.0;2082.3;;;;;;;;;;;;;;-0.5108799;-0.17883846;0.039490953;;;;;2005.6
2167.0;2082.3;;;;;;;;;;;;;;;;;-12.142552;5.050813;53.68969;;2005.6
2167.0;2082.3;;;;;;;;;;;;;;-0.499588;-0.17438276;0.036439102;;;;;2005.6
2167.0;2082.3;;;;;;;;;;;;;;;;;-17.265846;4.6121097;56.3448;;2015.3
2167.0;2082.3;;;;;;;;;;;;;;-0.49671927;-0.17450483;0.012146367;;;;;2015.3
2167.0;2082.3;;;;;;;;;;;;;;;;;-23.106327;4.272591;58.141575;;2015.3
2167.0;2082.3;;;;;;;;;;;;;;-0.49256873;-0.1693167;-0.006836146;;;;;2015.3
2167.0;2086.8;;;;;;;;;;;;;-527;;;;;;;;
2167.0;2086.8;;;;;;;;;;;;;-254;;;;;;;;
2167.0;2086.8;;;;;;;;;;;;;32;;;;;;;;
2167.0;2086.8;;;;;;;;;;;;;318;;;;;;;;
2167.0;2086.8;;;;;;;;;;;;;483;;;;;;;;
2167.0;2087.1;;;;-0.49906927;0.85235226;0.48460776;;;;;;;;;;;;;;;
2167.0;2087.1;;;;-0.4961663;0.85183346;0.48728186;;;;;;;;;;;;;;;
2167.0;2087.1;;;;-0.49156576;0.85237896;0.48912436;;;;;;;;;;;;;;;
2167.0;2087.1;;;;-0.48900992;0.85321057;0.48910528;;;;;;;;;;;;;;;
2167.0;2087.1;;;;-0.4884377;0.8537942;0.48849112;;;;;;;;;;;;;;;
2167.0;2089.5;;;;;;;;;;-21.568956;124.881744;-0.98803675;;;;;;;;;
2167.0;2089.5;;;;;;;0.6104923;-0.47132787;0.28089237;;;;;;;;;;;;
2167.0;2089.5;;;;;;;;;;-22.541733;124.881744;-1.4076662;;;;;;;;;
2167.0;2089.5;;;;;;;0.59907836;-0.46656698;0.3075045;;;;;;;;;;;;
2284.0;2096.9;;;;;;;;;;;;;;;;;-29.28251;3.8758507;59.793392;;2024.9
2284.0;2096.9;;;;;;;;;;;;;;-0.47877437;-0.16248055;-0.056154057;;;;;2024.9
2284.0;2096.9;;;;;;;;;;;;;;;;;-34.98947;6.6415906;61.151463;;2024.9
2284.0;2096.9;;;;;;;;;;;;;;-0.4718772;-0.15521714;-0.09076205;;;;;2024.9
2284.0;2096.9;;;;;;;;;;;;;;;;;-40.83758;8.957183;62.238686;;2034.6
2284.0;2096.9;;;;;;;;;;;;;;-0.47181615;-0.15655996;-0.13110752;;;;;2034.6
2284.0;2096.9;;;;;;;;;;;;;;;;;-46.365246;10.525071;61.849575;;2034.6
2284.0;2096.9;;;;;;;;;;;;;;-0.4774926;-0.159917;-0.16772974;;;;;2034.6
2284.0;2096.9;;;;;;;;;;;;;;;;;-50.527206;10.719626;60.304573;;2044.1
2284.0;2096.9;;;;;;;;;;;;;;-0.4871975;-0.17029329;-0.17627491;;;;;2044.1
2284.0;2096.9;;;;;;;;;;;;;;;;;-52.83517;10.258034;58.515427;;2044.1
2284.0;2096.9;;;;;;;;;;;;;;-0.49787897;-0.18890958;-0.18347728;;;;;2044.1
2284.0;2097.0;;;;-0.4885369;0.8536874;0.4893952;;;;;;;;;;;;;;;
2284.0;2097.0;;;;-0.48793036;0.852749;0.4903565;;;;;;;;;;;;;;;
2284.0;2097.0;;;;-0.48696524;0.8515893;0.49187857;;;;;;;;;;;;;;;
2284.0;2097.0;;;;-0.4874192;0.8494035;0.49321753;;;;;;;;;;;;;;;
2284.0;2097.0;;;;-0.48870474;0.84614575;0.49598318;;;;;;;;;;;;;;;
2284.0;2098.9;;;;;;;;;;-23.564104;124.881744;-2.0599995;;;;;;;;;
2284.0;2098.9;;;;;;;0.59254736;-0.46192816;0.3338725;;;;;;;;;;;;
2284.0;2098.9;;;;;;;;;;-24.540697;124.881744;-2.727592;;;;;;;;;
2284.0;2098.9;;;;;;;0.58821374;-0.45789972;0.35950804;;;;;;;;;;;;
2284.0;2101.0;262143;262143;12792;;;;;;;;;;;;;;;;;;
2287.0;2107.1;;;;-0.48678976;0.8419038;0.50106436;;;;;;;;;;;;;;;
2287.0;2107.1;;;;-0.4848786;0.8394929;0.5077172;;;;;;;;;;;;;;;
2287.0;2107.1;;;;-0.48341757;0.83441937;0.5121384;;;;;;;;;;;;;;;
2287.0;2107.1;;;;-0.4802094;0.8267747;0.51595694;;;;;;;;;;;;;;;
2287.0;2107.1;;;;-0.47287756;0.8198701;0.51928335;;;;;;;;;;;;;;;
2287.0;2108.3;;;;;;;;;;-25.513474;124.881744;-3.4180732;;;;;;;;;
2287.0;2108.3;;;;;;;0.57850885;-0.45435956;0.3778802;;;;;;;;;;;;
2287.0;2108.3;;;;;;;;;;-26.528215;124.790184;-4.276406;;;;;;;;;
2287.0;2108.3;;;;;;;0.5674612;-0.45002595;0.39313945;;;;;;;;;;;;
2287.0;2116.7;;;;-0.4679566;0.81951153;0.5202561;;;;;;;;;;;;;;;
2287.0;2116.7;;;;-0.46387488;0.81733334;0.5218125;;;;;;;;;;;;;;;
2287.0;2116.7;;;;-0.46395117;0.8148309;0.5254517;;;;;;;;;;;;;;;
2287.0;2116.7;;;;-0.456379;0.81541073;0.53646094;;;;;;;;;;;;;;;
2287.0;2116.7;;;;-0.44495398;0.81447613;0.54005057;;;;;;;;;;;;;;;
2287.0;2117.7;;;;;;;;;;-27.539139;123.2757;-5.4399247;;;;;;;;;
2287.0;2117.7;;;;;;;0.5526292;-0.44032106;0.40388197;;;;;;;;;;;;
2287.0;2117.7;;;;;;;;;;-28.725548;117.68319;-6.916257;;;;;;;;;
2287.0;2117.7;;;;;;;0.5373089;-0.4293344;0.41199988;;;;;;;;;;;;
2287.0;2120.8;262143;262143;12794;;;;;;;;;;;;;;;;;;
2287.0;2126.6;;;;;;;;;;;;;520;;;;;;;;
2287.0;2126.6;;;;;;;;;;;;;567;;;;;;;;
2287.0;2126.6;;;;;;;;;;;;;513;;;;;;;;
2287.0;2126.6;;;;;;;;;;;;;593;;;;;;;;
2287.0;2126.6;;;;;;;;;;;;;113;;;;;;;;
2288.0;2126.8;;;;-0.44073492;0.80936825;0.5349503;;;;;;;;;;;;;;;
2288.0;2126.8;;;;-0.44468313;0.80262387;0.5286599;;;;;;;;;;;;;;;
2288.0;2126.8;;;;-0.44904715;0.80436337;0.5249825;;;;;;;;;;;;;;;
2288.0;2126.8;;;;-0.45070654;0.80903256;0.5220147;;;;;;;;;;;;;;;
2288.0;2126.8;;;;-0.4529305;0.80913174;0.5182038;;;;;;;;;;;;;;;
2288.0;2127.3;;;;;;;;;;-29.808954;110.683;-8.568071;;;;;;;;;
2288.0;2127.3;;;;;;;0.52357554;-0.42664877;0.41694388;;;;;;;;;;;;
2288.0;2127.3;;;;;;;;;;-30.980103;103.62178;-10.593738;;;;;;;;;
2288.0;2127.3;;;;;;;0.5058748;-0.4262215;0.42231512;;;;;;;;;;;;
2288.0;2136.9;;;;;;;;;;-31.937622;96.228676;-13.069551;;;;;;;;;
2288.0;2136.9;;;;;;;0.4909818;-0.4328135;0.42677084;;;;;;;;;;;;
2288.0;2136.9;;;;;;;;;;-32.830288;88.606674;-15.816217;;;;;;;;;
2288.0;2136.9;;;;;;;0.47047335;-0.43415633;0.4339732;;;;;;;;;;;;
2288.0;2136.9;;;;-0.46003348;0.8045274;0.51803213;;;;;;;;;;;;;;;
2288.0;2136.9;;;;-0.46905905;0.7991029;0.514267;;;;;;;;;;;;;;;
2288.0;2136.9;;;;-0.47053152;0.79472363;0.5115319;;;;;;;;;;;;;;;
2288.0;2136.9;;;;-0.47365576;0.78480923;0.51050574;;;;;;;;;;;;;;;
2288.0;2136.9;;;;-0.46807486;0.77622616;0.5136414;;;;;;;;;;;;;;;
2347.0;2141.3;;;;;;;;;;;;;;;;;-55.227055;11.661885;55.948055;;2053.8
2347.0;2141.3;;;;;;;;;;;;;;-0.50483716;-0.21027254;-0.1906186;;;;;2053.8
2347.0;2141.3;;;;;;;;;;;;;;;;;-58.19117;12.417218;53.331097;;2053.8
2347.0;2141.3;;;;;;;;;;;;;;-0.51893675;-0.23371075;-0.20868556;;;;;2053.8
2347.0;2141.3;;;;;;;;;;;;;;;;;-62.99402;13.325145;50.511948;;2063.4
2347.0;2141.3;;;;;;;;;;;;;;-0.54194766;-0.25550097;-0.20563371;;;;;2063.4
2347.0;2141.3;;;;;;;;;;;;;;;;;-67.491684;12.176886;47.73095;;2063.4
2347.0;2141.3;;;;;;;;;;;;;;-0.56678975;-0.28266242;-0.21289712;;;;;2063.4
2347.0;2141.3;;;;;;;;;;;;;;;;;-71.20731;11.368145;45.609913;;2073.1
2347.0;2141.3;;;;;;;;;;;;;;-0.5924253;-0.30951872;-0.22986542;;;;;2073.1
2347.0;2141.3;;;;;;;;;;;;;;;;;-75.01831;12.833034;43.33247;;2073.1
2347.0;2141.3;;;;;;;;;;;;;;-0.60835594;-0.344615;-0.25452438;;;;;2073.1
2347.0;2141.0;262143;262143;12793;;;;;;;;;;;;;;;;;;
2347.0;2146.3;;;;;;;;;;-33.452103;80.6299;-19.04355;;;;;;;;;
2347.0;2146.3;;;;;;;0.44892728;-0.43952757;0.4403821;;;;;;;;;;;;
2347.0;2146.3;;;;;;;;;;-33.94421;72.53487;-22.682882;;;;;;;;;
2347.0;2146.3;;;;;;;0.4207892;-0.4337901;0.44428846;;;;;;;;;;;;
2347.0;2146.8;;;;-0.45872885;0.7658311;0.51609045;;;;;;;;;;;;;;;
2347.0;2146.8;;;;-0.4472161;0.75242627;0.5196877;;;;;;;;;;;;;;;
2347.0;2146.8;;;;-0.43650824;0.739235;0.5198975;;;;;;;;;;;;;;;
2347.0;2146.8;;;;-0.42708594;0.731041;0.5187264;;;;;;;;;;;;;;;
2347.0;2146.8;;;;-0.4231339;0.72707754;0.51604086;;;;;;;;;;;;;;;
2350.0;2155.8;;;;;;;;;;-33.989986;63.310646;-25.822474;;;;;;;;;
2350.0;2155.8;;;;;;;0.403943;-0.42811364;0.44331187;;;;;;;;;;;;
2350.0;2155.8;;;;;;;;;;-33.463547;53.2548;-28.702658;;;;;;;;;
2350.0;2155.8;;;;;;;0.38441116;-0.44380015;0.4359874;;;;;;;;;;;;
2350.0;2156.3;;;;;;;;;;;;;;;;;-77.30339;15.331736;41.32588;;2082.8
2350.0;2156.3;;;;;;;;;;;;;;-0.62367624;-0.3711661;-0.28504288;;;;;2082.8
2350.0;2156.3;;;;;;;;;;;;;;;;;-78.47834;18.669699;40.429394;;2082.8
2350.0;2156.3;;;;;;;;;;;;;;-0.662862;-0.40699485;-0.2999359;;;;;2082.8
2350.0;2156.3;;;;;;;;;;;;;;;;;-78.99335;19.333477;39.994507;;2092.3
2350.0;2156.3;;;;;;;;;;;;;;-0.7052217;-0.43812373;-0.3134251;;;;;2092.3
2350.0;2156.3;;;;;;;;;;;;;;;;;-76.59002;17.445143;41.730247;;2092.3
2350.0;2156.3;;;;;;;;;;;;;;-0.73512983;-0.48237556;-0.3233131;;;;;2092.3
2350.0;2156.3;;;;;;;;;;;;;;;;;-73.24061;16.232033;42.56188;;2102.0
2350.0;2156.3;;;;;;;;;;;;;;-0.7599719;-0.5171667;-0.34205145;;;;;2102.0
2350.0;2156.3;;;;;;;;;;;;;;;;;-68.25083;15.800959;41.585285;;2102.0
2350.0;2156.3;;;;;;;;;;;;;;-0.7951903;-0.5547044;-0.33161414;;;;;2102.0
2350.0;2156.7;;;;-0.4238358;0.72621924;0.5128518;;;;;;;;;;;;;;;
2350.0;2156.7;;;;-0.42708594;0.7274323;0.5087319;;;;;;;;;;;;;;;
2350.0;2156.7;;;;-0.43547446;0.7283364;0.5026551;;;;;;;;;;;;;;;
2350.0;2156.7;;;;-0.44514853;0.7269936;0.49576193;;;;;;;;;;;;;;;
2350.0;2156.7;;;;-0.45538718;0.7211228;0.48841864;;;;;;;;;;;;;;;
2350.0;2160.8;262143;262143;12785;;;;;;;;;;;;;;;;;;
2355.0;2165.3;;;;;;;;;;-32.677696;43.122654;-31.098362;;;;;;;;;
2355.0;2165.3;;;;;;;0.3729362;-0.4640034;0.423719;;;;;;;;;;;;
2355.0;2165.3;;;;;;;;;;-32.208473;33.20414;-33.234657;;;;;;;;;
2355.0;2165.3;;;;;;;0.3671987;-0.48963895;0.41444135;;;;;;;;;;;;
2355.0;2166.6;;;;;;;;;;;;;-2480;;;;;;;;
2355.0;2166.6;;;;;;;;;;;;;-6046;;;;;;;;
2355.0;2166.6;;;;;;;;;;;;;-6840;;;;;;;;
2355.0;2166.6;;;;;;;;;;;;;-2720;;;;;;;;
2355.0;2166.6;;;;;;;;;;;;;3607;;;;;;;;
2355.0;2166.7;;;;-0.45964438;0.71601874;0.48621374;;;;;;;;;;;;;;;
2355.0;2166.7;;;;-0.457161;0.71428686;0.48492438;;;;;;;;;;;;;;;
2355.0;2166.7;;;;-0.4528466;0.7133942;0.48351675;;;;;;;;;;;;;;;
2355.0;2166.7;;;;-0.45082098;0.7120095;0.48094946;;;;;;;;;;;;;;;
2355.0;2166.7;;;;-0.44806296;0.7099572;0.48039252;;;;;;;;;;;;;;;
2355.0;2174.7;;;;;;;;;;-32.208473;23.86929;-35.81347;;;;;;;;;
2355.0;2174.7;;;;;;;0.3599353;-0.51313823;0.40144047;;;;;;;;;;;;
2355.0;2174.7;;;;;;;;;;-32.708214;15.6788845;-38.44951;;;;;;;;;
2355.0;2174.7;;;;;;;0.3604236;-0.5323649;0.39210182;;;;;;;;;;;;
2355.0;2176.6;;;;-0.44666678;0.7089997;0.47718054;;;;;;;;;;;;;;;
2355.0;2176.6;;;;-0.44807822;0.7067223;0.4729882;;;;;;;;;;;;;;;
2355.0;2176.6;;;;-0.4490357;0.70213705;0.46921927;;;;;;;;;;;;;;;
2355.0;2176.6;;;;-0.44844824;0.6978913;0.4675179;;;;;;;;;;;;;;;
2355.0;2176.6;;;;-0.44802862;0.6932183;0.46427923;;;;;;;;;;;;;;;
2355.0;2180.8;262143;262143;12781;;;;;;;;;;;;;;;;;;
2356.0;2184.3;;;;;;;;;;-33.421585;8.3925905;-41.24195;;;;;;;;;
2356.0;2184.3;;;;;;;0.36103398;-0.5493942;0.38904995;;;;;;;;;;;;
2356.0;2184.3;;;;;;;;;;-34.134953;2.0256662;-44.133583;;;;;;;;;
2356.0;2184.3;;;;;;;0.36481827;-0.56428725;0.38966033;;;;;;;;;;;;
2356.0;2186.7;;;;-0.4472161;0.6919518;0.46191412;;;;;;;;;;;;;;;
2356.0;2186.7;;;;-0.44850165;0.692669;0.45769507;;;;;;;;;;;;;;;
2356.0;2186.7;;;;-0.44943625;0.6931458;0.45466238;;;;;;;;;;;;;;;
2356.0;2186.7;;;;-0.44764334;0.6942254;0.4521256;;;;;;;;;;;;;;;
2356.0;2186.7;;;;-0.44749838;0.6950684;0.4476052;;;;;;;;;;;;;;;
2356.0;2193.9;;;;;;;;;;-35.035248;-3.3455918;-47.20069;;;;;;;;;
2356.0;2193.9;;;;;;;0.3673818;-0.5805231;0.3876461;;;;;;;;;;;;
2356.0;2193.9;;;;;;;;;;-36.25599;-7.5189977;-50.344093;;;;;;;;;
2356.0;2193.9;;;;;;;0.36902982;-0.5924253;0.39100313;;;;;;;;;;;;
2356.0;2196.8;;;;-0.4448586;0.69372946;0.44403464;;;;;;;;;;;;;;;
2356.0;2196.8;;;;-0.4440804;0.6919251;0.4370919;;;;;;;;;;;;;;;
2356.0;2196.8;;;;-0.44437033;0.69063956;0.4299317;;;;;;;;;;;;;;;
2356.0;2196.8;;;;-0.44495398;0.6905137;0.42555243;;;;;;;;;;;;;;;
2356.0;2196.8;;;;-0.44500738;0.6898995;0.42195135;;;;;;;;;;;;;;;
2359.0;2201.4;;;;;;;;;;;;;;;;;-61.635944;13.2793665;41.60436;;2111.5
2359.0;2201.4;;;;;;;;;;;;;;-0.8189947;-0.58406323;-0.3063448;;;;;2111.5
2359.0;2201.4;;;;;;;;;;;;;;;;;-56.65761;8.877071;43.504135;;2111.5
2359.0;2201.4;;;;;;;;;;;;;;-0.83407086;-0.6161687;-0.2733848;;;;;2111.5
2359.0;2201.4;;;;;;;;;;;;;;;;;-51.51143;2.7619252;46.159245;;2121.1
2359.0;2201.4;;;;;;;;;;;;;;-0.83321637;-0.62947476;-0.23499252;;;;;2121.1
2359.0;2201.4;;;;;;;;;;;;;;;;;-45.709095;-2.8801844;48.67321;;2121.1
2359.0;2201.4;;;;;;;;;;;;;;-0.8282113;-0.6291696;-0.18799402;;;;;2121.1
2359.0;2201.4;;;;;;;;;;;;;;;;;-38.193916;-7.8508863;50.12665;;2130.8
2359.0;2201.4;;;;;;;;;;;;;;-0.8103885;-0.61690116;-0.13434248;;;;;2130.8
2359.0;2201.4;;;;;;;;;;;;;;;;;-32.841732;-11.425366;49.287395;;2130.8
2359.0;2201.4;;;;;;;;;;;;;;-0.78725547;-0.5999939;-0.07916501;;;;;2130.8
2359.0;2201.1;262143;262143;12771;;;;;;;;;;;;;;;;;;
2359.0;2203.4;;;;;;;;;;-37.408062;-10.765405;-53.548542;;;;;;;;;
2359.0;2203.4;;;;;;;0.37336344;-0.61091954;0.38953826;;;;;;;;;;;;
2359.0;2203.4;;;;;;;;;;-38.502914;-13.138219;-57.13828;;;;;;;;;
2359.0;2203.4;;;;;;;0.37678152;-0.63557845;0.3919187;;;;;;;;;;;;
2359.0;2206.7;;;;;;;;;;;;;7171;;;;;;;;
2359.0;2206.7;;;;;;;;;;;;;6209;;;;;;;;
2359.0;2206.7;;;;;;;;;;;;;3274;;;;;;;;
2359.0;2206.7;;;;;;;;;;;;;1509;;;;;;;;
2359.0;2206.7;;;;;;;;;;;;;1092;;;;;;;;
2361.0;2206.8;;;;-0.4446259;0.6891747;0.41696554;;;;;;;;;;;;;;;
2361.0;2206.8;;;;-0.44466788;0.6879845;0.41193777;;;;;;;;;;;;;;;
2361.0;2206.8;;;;-0.4460488;0.68848044;0.40489203;;;;;;;;;;;;;;;
2361.0;2206.8;;;;-0.4467469;0.6889573;0.39830405;;;;;;;;;;;;;;;
2361.0;2206.8;;;;-0.44562536;0.6897889;0.39173132;;;;;;;;;;;;;;;
2361.0;2213.0;;;;;;;;;;-39.559616;-14.679403;-61.025574;;;;;;;;;
2361.0;2213.0;;;;;;;0.37720877;-0.6580401;0.39783928;;;;;;;;;;;;
2361.0;2213.0;;;;;;;;;;-40.51332;-15.56444;-65.15702;;;;;;;;;
2361.0;2213.0;;;;;;;0.3711661;-0.6770837;0.40101323;;;;;;;;;;;;
2361.0;2216.4;;;;;;;;;;;;;;;;;-27.989288;-15.064699;49.855797;;2140.5
2361.0;2216.4;;;;;;;;;;;;;;-0.7635121;-0.5881527;-0.0397351;;;;;2140.5
2361.0;2216.4;;;;;;;;;;;;;;;;;-22.381512;-16.323587;51.5038;;2140.5
2361.0;2216.4;;;;;;;;;;;;;;-0.7318339;-0.5640431;-0.021240883;;;;;2140.5
2361.0;2216.4;;;;;;;;;;;;;;;;;-18.635365;-12.215034;51.14139;;2150.1
2361.0;2216.4;;;;;;;;;;;;;;-0.70400095;-0.5377361;-0.029663991;;;;;2150.1
2361.0;2216.4;;;;;;;;;;;;;;;;;-14.973144;-4.8829613;49.51628;;2150.1
2361.0;2216.4;;;;;;;;;;;;;;-0.69142735;-0.5042268;-0.040711693;;;;;2150.1
2361.0;2216.4;;;;;;;;;;;;;;;;;-10.029145;1.8311106;47.63558;;2159.7
2361.0;2216.4;;;;;;;;;;;;;;-0.69454026;-0.4661397;-0.04504532;;;;;2159.7
2361.0;2216.4;;;;;;;;;;;;;;;;;-4.413739;5.260628;45.52217;;2159.7
2361.0;2216.4;;;;;;;;;;;;;;-0.68874174;-0.42945647;-0.044740137;;;;;2159.7
2405.0;2216.7;;;;-0.44406515;0.69037634;0.3854409;;;;;;;;;;;;;;;
2405.0;2216.7;;;;-0.44216162;0.6894379;0.37946326;;;;;;;;;;;;;;;
2405.0;2216.7;;;;-0.44110876;0.6855355;0.3737755;;;;;;;;;;;;;;;
2405.0;2216.7;;;;-0.4394341;0.68100744;0.3706818;;;;;;;;;;;;;;;
2405.0;2216.7;;;;-0.43622214;0.6778107;0.36884692;;;;;;;;;;;;;;;
2405.0;2221.0;262143;262143;12780;;;;;;;;;;;;;;;;;;
2405.0;2222.4;;;;;;;;;;-41.390728;-15.659811;-69.1969;;;;;;;;;
2405.0;2222.4;;;;;;;0.36432996;-0.699057;0.40223396;;;;;;;;;;;;
2405.0;2222.4;;;;;;;;;;-42.165134;-14.980773;-73.114716;;;;;;;;;
2405.0;2222.4;;;;;;;0.35883662;-0.725547;0.40308848;;;;;;;;;;;;
2405.0;2226.8;;;;-0.43191153;0.6748238;0.36608508;;;;;;;;;;;;;;;
2405.0;2226.8;;;;-0.42758948;0.6739045;0.36327365;;;;;;;;;;;;;;;
2405.0;2226.8;;;;-0.42360312;0.6735688;0.36112216;;;;;;;;;;;;;;;
2405.0;2226.8;;;;-0.41911322;0.67395025;0.3589554;;;;;;;;;;;;;;;
2405.0;2226.8;;;;-0.41439825;0.67519766;0.35683826;;;;;;;;;;;;;;;
2405.0;2232.0;;;;;;;;;;-42.76406;-13.8859215;-77.10502;;;;;;;;;
2405.0;2232.0;;;;;;;0.35700554;-0.7383648;0.40382093;;;;;;;;;;;;
2405.0;2232.0;;;;;;;;;;-42.947174;-13.054293;-80.87023;;;;;;;;;
2405.0;2232.0;;;;;;;0.36512345;-0.75771356;0.40009767;;;;;;;;;;;;
2409.0;2236.7;;;;-0.4113503;0.67630774;0.35546497;;;;;;;;;;;;;;;
2409.0;2236.7;;;;-0.40798575;0.6779099;0.35375217;;;;;;;;;;;;;;;
2409.0;2236.7;;;;-0.40362173;0.6806603;0.35213473;;;;;;;;;;;;;;;
2409.0;2236.7;;;;-0.39942938;0.68305594;0.35042194;;;;;;;;;;;;;;;
2409.0;2236.7;;;;-0.39485556;0.6859017;0.34930423;;;;;;;;;;;;;;;
2409.0;2241.5;;;;;;;;;;-43.378246;-10.822627;-84.7232;;;;;;;;;
2409.0;2241.5;;;;;;;0.37678152;-0.78359324;0.40815455;;;;;;;;;;;;
2409.0;2241.5;;;;;;;;;;-43.630024;-8.373516;-88.51512;;;;;;;;;
2409.0;2241.5;;;;;;;0.37531662;-0.8138676;0.40705588;;;;;;;;;;;;
2409.0;2241.1;262143;262143;12771;;;;;;;;;;;;;;;;;;
2409.0;2246.8;;;;;;;;;;;;;1014;;;;;;;;
2409.0;2246.8;;;;;;;;;;;;;957;;;;;;;;
2409.0;2246.8;;;;;;;;;;;;;685;;;;;;;;
2409.0;2246.8;;;;;;;;;;;;;402;;;;;;;;
2409.0;2246.8;;;;;;;;;;;;;299;;;;;;;;
2409.0;2246.8;;;;-0.38990027;0.6897355;0.3473244;;;;;;;;;;;;;;;
2409.0;2246.8;;;;-0.3860131;0.6930123;0.34510806;;;;;;;;;;;;;;;
2409.0;2246.8;;;;-0.38345724;0.6970025;0.34341434;;;;;;;;;;;;;;;
2409.0;2246.8;;;;-0.38112646;0.70133597;0.34181216;;;;;;;;;;;;;;;
2409.0;2246.8;;;;-0.37887198;0.70569617;0.3401108;;;;;;;;;;;;;;;
2409.0;2251.1;;;;;;;;;;-44.01151;-5.4246655;-91.52501;;;;;;;;;
2409.0;2251.1;;;;;;;0.3863033;-0.8390759;0.41108432;;;;;;;;;;;;
2409.0;2251.1;;;;;;;;;;-44.331947;-1.6060365;-94.321266;;;;;;;;;
2409.0;2251.1;;;;;;;0.3812372;-0.8646504;0.4168218;;;;;;;;;;;;
2413.0;2256.9;;;;-0.37774664;0.7096787;0.3374329;;;;;;;;;;;;;;;
2413.0;2256.9;;;;-0.37645346;0.7133828;0.33570865;;;;;;;;;;;;;;;
2413.0;2256.9;;;;-0.3749695;0.71667105;0.33405688;;;;;;;;;;;;;;;
2413.0;2256.9;;;;-0.37323764;0.7203675;0.3330498;;;;;;;;;;;;;;;
2413.0;2256.9;;;;-0.3705521;0.72342306;0.33224872;;;;;;;;;;;;;;;
2413.0;2260.7;;;;;;;;;;-44.41969;1.5564439;-96.121864;;;;;;;;;
2413.0;2260.7;;;;;;;0.3838618;-0.8872341;0.41407514;;;;;;;;;;;;
2413.0;2260.7;;;;;;;;;;-44.881283;4.8982205;-97.17475;;;;;;;;;
2413.0;2260.7;;;;;;;0.38215277;-0.913358;0.41492966;;;;;;;;;;;;
2413.0;2261.3;262143;262143;12756;;;;;;;;;;;;;;;;;;
2413.0;2262.1;;;;;;;;;;;;;;;;;1.0147405;6.088443;43.59569;;2169.4
2413.0;2262.1;;;;;;;;;;;;;;-0.6825159;-0.38453323;-0.044068728;;;;;2169.4
2413.0;2262.1;;;;;;;;;;;;;;;;;5.7031465;7.927183;40.692616;;2169.4
2413.0;2262.1;;;;;;;;;;;;;;-0.667745;-0.3521836;-0.065309614;;;;;2169.4
2413.0;2262.1;;;;;;;;;;;;;;;;;8.919034;12.092959;38.438065;;2179.1
2413.0;2262.1;;;;;;;;;;;;;;-0.6652425;-0.32624286;-0.10614338;;;;;2179.1
2413.0;2262.1;;;;;;;;;;;;;;;;;8.59859;17.799921;36.15299;;2179.1
2413.0;2262.1;;;;;;;;;;;;;;-0.67665637;-0.29902035;-0.16016114;;;;;2179.1
2413.0;2262.1;;;;;;;;;;;;;;;;;3.3875546;22.835474;33.978542;;2188.8
2413.0;2262.1;;;;;;;;;;;;;;-0.69850767;-0.2694174;-0.20789209;;;;;2188.8
2413.0;2262.1;;;;;;;;;;;;;;;;;-7.122257;25.490585;32.15888;;2188.8
2413.0;2262.1;;;;;;;;;;;;;;-0.71993166;-0.23499252;-0.24225593;;;;;2188.8
2416.0;2266.9;;;;-0.36766437;0.7266503;0.33216098;;;;;;;;;;;;;;;
2416.0;2266.9;;;;-0.36480334;0.73048407;0.33189395;;;;;;;;;;;;;;;
2416.0;2266.9;;;;-0.3628998;0.7334786;0.3314133;;;;;;;;;;;;;;;
2416.0;2266.9;;;;-0.36016086;0.73676306;0.33109286;;;;;;;;;;;;;;;
