patientId;holterMac;flexMac;;;;;;;;;;;;;;;;;;;;
;CA:F3:0B:1E:33:78;D3:4A:5C:52:80:78;;;;;;;;;;;;;;;;;;;;
receivedTimeStamp;timeStamp;red;ir;green;adxl_accX;adxl_accY;adxl_accZ;lsm_accelX;lsm_accelY;lsm_accelZ;lsm_gyroX;lsm_gyroY;lsm_gyroZ;ecg;flex_lsm_accelX;flex_lsm_accelY;flex_lsm_accelZ;flex_lsm_gyroX;flex_lsm_gyroY;flex_lsm_gyroZ;flex_cmd;flexTimeStamp
295.0;218.1;;;;;;;;;;;;;;;;;;;;17;0.1
295.0;218.1;;;;;;;;;;;;;;;;;13.042848;1.3351848;1.1444441;;127.7
295.0;218.1;;;;;;;;;;;;;;0.9604175;-0.089602344;-0.29071933;;;;;127.7
295.0;218.1;;;;;;;;;;;;;;;;;-5.592517;-17.17429;-6.76748;;127.7
295.0;218.1;;;;;;;;;;;;;;0.9962462;-0.086123236;-0.30658895;;;;;127.7
295.0;218.1;;;;;;;;;;;;;;;;;-63.341164;-84.467606;-61.89535;;137.4
295.0;218.1;;;;;;;;;;;;;;0.9797052;-0.095156714;-0.29212317;;;;;137.4
295.0;218.1;;;;;;;;;;;;;;;;;-122.096924;-124.988556;-120.15137;;137.4
295.0;218.1;;;;;;;;;;;;;;0.9707938;-0.10187078;-0.29450363;;;;;137.4
357.0;218.9;;;;;;;;;;;;;;;;;-53.48369;-124.85122;-78.26472;;147.1
357.0;218.9;;;;;;;;;;;;;;0.96407974;-0.100711085;-0.31189916;;;;;147.1
357.0;218.9;;;;;;;;;;;;;;;;;21.553698;-124.938965;-32.036804;;147.1
357.0;218.9;;;;;;;;;;;;;;0.9600513;-0.103396714;-0.3270974;;;;;147.1
357.0;218.9;;;;;;;;;;;;;;;;;21.965698;-97.71264;-24.498734;;156.7
357.0;218.9;;;;;;;;;;;;;;0.9528489;-0.11059908;-0.32026124;;;;;156.7
357.0;218.9;;;;;;;;;;;;;;;;;16.39607;-9.4569235;-0.12588885;;156.7
357.0;218.9;;;;;;;;;;;;;;0.94405955;-0.10937834;-0.3086642;;;;;156.7
357.0;218.9;;;;;;;;;;;;;;;;;15.346995;-3.295999;1.8997772;;166.4
357.0;218.9;;;;;;;;;;;;;;0.94265574;-0.11084323;-0.30628377;;;;;166.4
357.0;218.9;;;;;;;;;;;;;;;;;14.477218;-3.3303325;1.7509995;;166.4
357.0;218.9;;;;;;;;;;;;;;0.9392987;-0.10541093;-0.2989593;;;;;166.4
357.0;278.5;;;;;;;;;;;;;;;;;13.294626;-2.7809992;1.865444;;175.9
357.0;278.5;;;;;;;;;;;;;;0.93490404;-0.09344768;-0.28449354;;;;;175.9
357.0;278.5;;;;;;;;;;;;;;;;;12.340922;-2.494888;1.3885921;;175.9
357.0;278.5;;;;;;;;;;;;;;0.9339274;-0.07721183;-0.2842494;;;;;175.9
357.0;278.5;;;;;;;;;;;;;;;;;11.890775;-1.5449996;1.3161107;;185.5
357.0;278.5;;;;;;;;;;;;;;0.9310587;-0.077761166;-0.27771842;;;;;185.5
357.0;278.5;;;;;;;;;;;;;;;;;11.291848;-0.51499987;0.98422194;;185.5
357.0;278.5;;;;;;;;;;;;;;0.9295938;-0.06408887;-0.2732017;;;;;185.5
357.0;278.5;;;;;;;;;;;;;;;;;11.032442;0.38148138;0.71337014;;195.1
357.0;278.5;;;;;;;;;;;;;;0.92965484;-0.059938353;-0.26612142;;;;;195.1
357.0;278.5;;;;;;;;;;;;;;;;;10.525071;1.247444;0.59892577;;195.1
357.0;278.5;;;;;;;;;;;;;;0.9402142;-0.053163245;-0.26477858;;;;;195.1
419.0;279.3;;;;;;;;;;;;;;;;;10.254219;2.5673697;0.7477035;;204.7
419.0;279.3;;;;;;;;;;;;;;0.9475997;-0.05322428;-0.26111636;;;;;204.7
419.0;279.3;;;;;;;;;;;;;;;;;10.422071;3.1434064;0.5798517;;204.7
419.0;279.3;;;;;;;;;;;;;;0.9515671;-0.05145421;-0.25531784;;;;;204.7
419.0;279.3;;;;;;;;;;;;;;;;;10.631886;2.8572955;0.6065554;;214.4
419.0;279.3;;;;;;;;;;;;;;0.96212655;-0.053346355;-0.26093325;;;;;214.4
419.0;279.3;;;;;;;;;;;;;;;;;11.806849;2.1439252;0.8316294;;214.4
419.0;279.3;;;;;;;;;;;;;;0.96694845;-0.06250191;-0.26996672;;;;;214.4
419.0;279.3;;;;;;;;;;;;;;;;;13.149663;0.98803675;0.7705924;;224.0
419.0;279.3;;;;;;;;;;;;;;0.97616506;-0.0712302;-0.28644672;;;;;224.0
419.0;279.3;;;;;;;;;;;;;;;;;13.954588;0.8545183;0.9155553;;224.0
419.0;279.3;;;;;;;;;;;;;;0.9830622;-0.0783105;-0.28815576;;;;;224.0
419.0;338.8;;;;;;;;;;;;;;;;;14.461959;0.43107393;1.2359996;;233.7
419.0;338.8;;;;;;;;;;;;;;0.98623616;-0.092593156;-0.28394422;;;;;233.7
419.0;338.8;;;;;;;;;;;;;;;;;14.870144;-0.7438887;1.3504441;;233.7
419.0;338.8;;;;;;;;;;;;;;0.98934907;-0.10467849;-0.27820674;;;;;233.7
419.0;338.8;;;;;;;;;;;;;;;;;14.988402;-1.9684439;1.5144811;;243.2
419.0;338.8;;;;;;;;;;;;;;0.9908139;-0.11249123;-0.27973264;;;;;243.2
419.0;338.8;;;;;;;;;;;;;;;;;15.02655;-2.334666;1.7700735;;243.2
419.0;338.8;;;;;;;;;;;;;;0.9897153;-0.12451552;-0.280282;;;;;243.2
419.0;338.8;;;;;;;;;;;;;;;;;14.889218;-1.6670736;1.7624439;;252.8
419.0;338.8;;;;;;;;;;;;;;0.981048;-0.12689596;-0.26728112;;;;;252.8
419.0;338.8;;;;;;;;;;;;;;;;;14.797663;-1.045259;2.0027773;;252.8
419.0;338.8;;;;;;;;;;;;;;0.97360146;-0.13806574;-0.25025177;;;;;252.8
481.0;339.6;;;;;;;;;;;;;;;;;14.8587;-0.7248146;1.9760735;;262.5
481.0;339.6;;;;;;;;;;;;;;0.97116;-0.13367108;-0.2450026;;;;;262.5
481.0;339.6;;;;;;;;;;;;;;;;;14.828181;-0.022888882;1.9264809;;262.5
481.0;339.6;;;;;;;;;;;;;;0.96389663;-0.12750633;-0.24134037;;;;;262.5
481.0;339.6;;;;;;;;;;;;;;;;;14.606922;0.9346294;1.9913328;;272.2
481.0;339.6;;;;;;;;;;;;;;0.9571825;-0.11969359;-0.23163548;;;;;272.2
481.0;339.6;;;;;;;;;;;;;;;;;14.01181;1.6098514;1.9837031;;272.2
481.0;339.6;;;;;;;;;;;;;;0.94698936;-0.09253212;-0.21887875;;;;;272.2
481.0;339.6;;;;;;;;;;;;;;;;;13.428144;1.2817774;2.4643695;;281.9
481.0;339.6;;;;;;;;;;;;;;0.9371624;-0.11358989;-0.23096408;;;;;281.9
481.0;339.6;;;;;;;;;;;;;;;;;14.049958;1.247444;2.5864437;;281.9
481.0;339.6;;;;;;;;;;;;;;0.93954283;-0.09009064;-0.23566394;;;;;281.9
481.0;399.0;;;;;;;;;;;;;;;;;12.897885;3.051851;2.7085178;;291.6
481.0;399.0;;;;;;;;;;;;;;0.9179357;-0.11023286;-0.23718986;;;;;291.6
481.0;399.0;;;;;;;;;;;;;;;;;13.454848;3.8453321;2.5521104;;291.6
481.0;399.0;;;;;;;;;;;;;;0.91042817;-0.10864589;-0.22669148;;;;;291.6
481.0;399.0;;;;;;;;;;;;;;;;;14.568773;3.913999;2.4300365;;301.3
481.0;399.0;;;;;;;;;;;;;;0.9029206;-0.12445448;-0.23603015;;;;;301.3
481.0;399.0;;;;;;;;;;;;;;;;;15.697958;5.447554;1.575518;;301.3
481.0;399.0;;;;;;;;;;;;;;0.8968169;-0.11279641;-0.23810542;;;;;301.3
481.0;399.0;;;;;;;;;;;;;;;;;16.41133;7.6448865;1.0948515;;310.9
481.0;399.0;;;;;;;;;;;;;;0.8798486;-0.10644856;-0.22540972;;;;;310.9
481.0;399.0;;;;;;;;;;;;;;;;;16.99881;8.114109;0.4997406;;310.9
481.0;399.0;;;;;;;;;;;;;;0.8690451;-0.0905179;-0.2164983;;;;;310.9
539.0;400.2;;;;;;;;;;;;;;;;;18.09366;7.084109;0.053407393;;320.4
539.0;400.2;;;;;;;;;;;;;;0.8661763;-0.07641835;-0.22553179;;;;;320.4
539.0;400.2;;;;;;;;;;;;;;;;;18.807032;6.75985;-0.43107393;;320.4
539.0;400.2;;;;;;;;;;;;;;0.8692892;-0.0568865;-0.2362743;;;;;320.4
539.0;400.2;;;;;;;;;;;;;;;;;19.234291;8.209479;-0.23270364;;330.1
539.0;400.2;;;;;;;;;;;;;;0.8627583;-0.051332135;-0.2230903;;;;;330.1
539.0;400.2;;;;;;;;;;;;;;;;;19.188513;8.232368;-0.6218146;;330.1
539.0;400.2;;;;;;;;;;;;;;0.86971647;-0.013000885;-0.21350749;;;;;330.1
539.0;400.2;;;;;;;;;;;;;;;;;18.66207;7.2443314;-0.5378887;;339.7
539.0;400.2;;;;;;;;;;;;;;0.88613546;0.010498367;-0.2197943;;;;;339.7
539.0;400.2;;;;;;;;;;;;;;;;;18.719292;6.321146;-0.5874813;;339.7
539.0;400.2;;;;;;;;;;;;;;0.90664387;0.035523545;-0.23328349;;;;;339.7
539.0;459.5;;;;;;;;;;;;;;;;;19.325848;5.245369;-0.5302591;;349.4
539.0;459.5;;;;;;;;;;;;;;0.9221473;0.056642354;-0.25916317;;;;;349.4
539.0;459.5;;;;;;;;;;;;;;;;;19.642475;5.069887;-0.3662221;;349.4
539.0;459.5;;;;;;;;;;;;;;0.93325603;0.06427198;-0.27692497;;;;;349.4
539.0;459.5;;;;;;;;;;;;;;;;;21.076845;4.894406;0.3318888;;359.1
539.0;459.5;;;;;;;;;;;;;;0.9317911;0.0679342;-0.27460554;;;;;359.1
539.0;459.5;;;;;;;;;;;;;;;;;22.217474;2.0485551;0.51118505;;359.1
539.0;459.5;;;;;;;;;;;;;;0.9272744;0.06616413;-0.2874233;;;;;359.1
539.0;459.5;;;;;;;;;;;;;;;;;22.972807;-1.4915922;0.65614796;;368.5
539.0;459.5;;;;;;;;;;;;;;0.93478197;0.076235235;-0.30555132;;;;;368.5
539.0;459.5;;;;;;;;;;;;;;;;;23.079622;-3.7766654;1.289407;;368.5
539.0;459.5;;;;;;;;;;;;;;0.9330119;0.07910398;-0.32093266;;;;;368.5
602.0;460.3;;;;;;;;;;;;;;;;;22.438734;-5.077517;2.3499253;;378.2
602.0;460.3;;;;;;;;;;;;;;0.9256264;0.083803825;-0.32447278;;;;;378.2
602.0;460.3;;;;;;;;;;;;;;;;;21.416365;-6.405072;3.8987396;;378.2
602.0;460.3;;;;;;;;;;;;;;0.9110385;0.074221015;-0.3075045;;;;;378.2
602.0;460.3;;;;;;;;;;;;;;;;;19.558548;-9.147923;5.3292947;;387.9
602.0;460.3;;;;;;;;;;;;;;0.91311383;0.07635731;-0.3071383;;;;;387.9
602.0;460.3;;;;;;;;;;;;;;;;;17.708364;-11.215552;6.9544053;;387.9
602.0;460.3;;;;;;;;;;;;;;0.9124424;0.07373272;-0.30640584;;;;;387.9
602.0;460.3;;;;;;;;;;;;;;;;;15.156255;-12.10059;8.552812;;397.5
602.0;460.3;;;;;;;;;;;;;;0.9145787;0.073549606;-0.29914242;;;;;397.5
602.0;460.3;;;;;;;;;;;;;;;;;12.104404;-12.573626;10.299997;;397.5
602.0;460.3;;;;;;;;;;;;;;0.9195227;0.06933805;-0.28675193;;;;;397.5
602.0;519.8;;;;;;;;;;;;;;;;;8.541368;-12.699514;11.825923;;407.2
602.0;519.8;;;;;;;;;;;;;;0.92660296;0.06671346;-0.2783288;;;;;407.2
602.0;519.8;;;;;;;;;;;;;;;;;4.799036;-12.798699;13.32133;;407.2
602.0;519.8;;;;;;;;;;;;;;0.93710136;0.06903287;-0.27564317;;;;;407.2
602.0;519.8;;;;;;;;;;;;;;;;;1.167333;-12.073886;14.8625145;;416.8
602.0;519.8;;;;;;;;;;;;;;0.9515061;0.071657464;-0.27210304;;;;;416.8
602.0;519.8;;;;;;;;;;;;;;;;;-2.5444808;-10.3228855;16.151922;;416.8
602.0;519.8;;;;;;;;;;;;;;0.9723197;0.08160649;-0.2633137;;;;;416.8
602.0;519.8;;;;;;;;;;;;;;;;;-5.607776;-8.476516;17.464216;;426.4
602.0;519.8;;;;;;;;;;;;;;0.9983825;0.08856472;-0.2511063;;;;;426.4
602.0;519.8;;;;;;;;;;;;;;;;;-7.992035;-7.148961;18.700216;;426.4
602.0;519.8;;;;;;;;;;;;;;1.0211493;0.09027375;-0.24561296;;;;;426.4
660.0;521.0;;;;;;;;;;;;;;;;;-9.872738;-6.859035;19.524216;;436.0
660.0;521.0;;;;;;;;;;;;;;1.0464187;0.10254219;-0.24182867;;;;;436.0
660.0;521.0;;;;;;;;;;;;;;;;;-12.146367;-7.106998;20.313883;;436.0
660.0;521.0;;;;;;;;;;;;;;1.0716879;0.102725305;-0.24512467;;;;;436.0
660.0;521.0;;;;;;;;;;;;;;;;;-14.339885;-7.316813;20.748772;;445.6
660.0;521.0;;;;;;;;;;;;;;1.096408;0.11004975;-0.24530777;;;;;445.6
660.0;521.0;;;;;;;;;;;;;;;;;-16.495255;-7.3206277;20.966217;;445.6
660.0;521.0;;;;;;;;;;;;;;1.1134983;0.11365093;-0.2402417;;;;;445.6
660.0;521.0;;;;;;;;;;;;;;;;;-18.20429;-7.721183;20.916624;;455.3
660.0;521.0;;;;;;;;;;;;;;1.1334574;0.11011078;-0.22479934;;;;;455.3
660.0;521.0;;;;;;;;;;;;;;;;;-19.642475;-8.842738;20.195623;;455.3
660.0;521.0;;;;;;;;;;;;;;1.1563463;0.11609241;-0.22278512;;;;;455.3
660.0;534.9;;;;;;;;;;;;;;;;;-20.718252;-9.022035;19.283884;;465.0
660.0;534.9;;;;;;;;;;;;;;1.1709952;0.12970367;-0.21729179;;;;;465.0
660.0;534.9;;;;;;;;;;;;;;;;;-21.622364;-8.774072;18.494217;;465.0
660.0;534.9;;;;;;;;;;;;;;1.1905881;0.13843197;-0.20599994;;;;;465.0
660.0;534.9;;;;;;;;;;;;;;;;;-22.057253;-8.220923;17.551958;;474.6
660.0;534.9;;;;;;;;;;;;;;1.206824;0.13971373;-0.1948912;;;;;474.6
660.0;534.9;;;;;;;;;;;;;;;;;-22.076328;-7.595294;16.350292;;474.6
660.0;534.9;;;;;;;;;;;;;;1.2225715;0.14886929;-0.1820124;;;;;474.6
660.0;534.9;;;;;;;;;;;;;;;;;-21.794031;-6.9963684;15.205847;;484.2
660.0;534.9;;;;;;;;;;;;;;1.2458266;0.15967284;-0.17548142;;;;;484.2
660.0;534.9;;;;;;;;;;;;;;;;;-21.271402;-5.7985168;14.282662;;484.2
660.0;534.9;;;;;;;;;;;;;;1.264565;0.16742454;-0.16870633;;;;;484.2
719.0;580.1;;;;;;;;;;;;;;;;;-20.310068;-4.8409986;13.515885;;493.9
719.0;580.1;;;;;;;;;;;;;;1.2822046;0.16797388;-0.15997803;;;;;493.9
719.0;580.1;;;;;;;;;;;;;;;;;-19.222847;-3.8758507;12.3638115;;493.9
719.0;580.1;;;;;;;;;;;;;;1.2990509;0.17426069;-0.15369122;;;;;493.9
719.0;580.1;;;;;;;;;;;;;;;;;-17.845697;-2.578814;11.146885;;503.5
719.0;580.1;;;;;;;;;;;;;;1.3216345;0.17694631;-0.1472213;;;;;503.5
719.0;580.1;;;;;;;;;;;;;;;;;-16.502884;-0.9117405;9.640035;;503.5
719.0;580.1;;;;;;;;;;;;;;1.3408612;0.18024231;-0.14044619;;;;;503.5
719.0;580.1;;;;;;;;;;;;;;;;;-15.491959;0.96133304;7.488479;;513.1
719.0;580.1;;;;;;;;;;;;;;1.3498948;0.19055757;-0.12933744;;;;;513.1
719.0;580.1;;;;;;;;;;;;;;;;;-15.003662;1.781518;4.5396285;;513.1
719.0;580.1;;;;;;;;;;;;;;1.3511155;0.23572497;-0.11951049;;;;;513.1
719.0;595.2;;;;;;;;;;;;;;;;;-14.049958;1.0299997;1.5717032;;522.7
719.0;595.2;;;;;;;;;;;;;;1.350383;0.22327341;-0.14172795;;;;;522.7
719.0;595.2;;;;;;;;;;;;;;;;;-9.884182;0.34333324;-0.37003693;;522.7
719.0;595.2;;;;;;;;;;;;;;1.3731499;0.20917386;-0.17957091;;;;;522.7
719.0;595.2;;;;;;;;;;;;;;;;;-8.526108;4.9630723;-4.7837768;;532.4
719.0;595.2;;;;;;;;;;;;;;1.3887753;0.23273416;-0.1911069;;;;;532.4
719.0;595.2;;;;;;;;;;;;;;;;;-7.065035;10.353404;-8.697775;;532.4
719.0;595.2;;;;;;;;;;;;;;1.409711;0.25025177;-0.18524735;;;;;532.4
719.0;595.2;;;;;;;;;;;;;;;;;-5.138554;13.782922;-12.840663;;541.9
719.0;595.2;;;;;;;;;;;;;;1.4150212;0.25708792;-0.18909268;;;;;541.9
719.0;595.2;;;;;;;;;;;;;;;;;-3.5897398;15.8276615;-16.907255;;541.9
719.0;595.2;;;;;;;;;;;;;;1.4388866;0.25531784;-0.20648824;;;;;541.9
780.0;640.4;;;;;;;;;;;;;;;;;-3.1090732;19.936216;-19.516586;;551.5
780.0;640.4;;;;;;;;;;;;;;1.4689779;0.20514542;-0.22425;;;;;551.5
780.0;640.4;;;;;;;;;;;;;;;;;-3.47911;27.298807;-23.018585;;551.5
780.0;640.4;;;;;;;;;;;;;;1.4759362;0.1445967;-0.2207709;;;;;551.5
780.0;640.4;;;;;;;;;;;;;;;;;-3.7919247;34.22269;-27.535324;;561.1
780.0;640.4;;;;;;;;;;;;;;1.4729453;0.10248116;-0.20789209;;;;;561.1
780.0;640.4;;;;;;;;;;;;;;;;;-4.4557023;39.38795;-32.87225;;561.1
780.0;640.4;;;;;;;;;;;;;;1.4670858;0.09302042;-0.20679343;;;;;561.1
780.0;640.4;;;;;;;;;;;;;;;;;-5.5887017;44.18699;-38.69747;;570.8
780.0;640.4;;;;;;;;;;;;;;1.4563433;0.1053499;-0.20563371;;;;;570.8
780.0;640.4;;;;;;;;;;;;;;;;;-6.221961;50.004578;-44.263283;;570.8
780.0;640.4;;;;;;;;;;;;;;1.431196;0.11615345;-0.1821955;;;;;570.8
780.0;655.8;;;;;;;;;;;;;;;;;-5.348369;56.07013;-49.916836;;580.5
780.0;655.8;;;;;;;;;;;;;;1.4033021;0.121097445;-0.14374217;;;;;580.5
780.0;655.8;;;;;;;;;;;;;;;;;-2.0485551;61.479538;-56.134983;;580.5
780.0;655.8;;;;;;;;;;;;;;1.3682058;0.12292856;-0.09686575;;;;;580.5
780.0;655.8;;;;;;;;;;;;;;;;;3.0480363;64.661095;-63.009277;;590.2
780.0;655.8;;;;;;;;;;;;;;1.3271279;0.14178899;-0.051271096;;;;;590.2
780.0;655.8;;;;;;;;;;;;;;;;;8.049257;65.309616;-69.55931;;590.2
780.0;655.8;;;;;;;;;;;;;;1.2825708;0.16797388;-0.013122959;;;;;590.2
780.0;655.8;;;;;;;;;;;;;;;;;11.532182;64.25672;-75.71642;;599.9
780.0;655.8;;;;;;;;;;;;;;1.2339244;0.18744469;0.0012207404;;;;;599.9
780.0;655.8;;;;;;;;;;;;;;;;;16.441847;62.231056;-83.288826;;599.9
780.0;655.8;;;;;;;;;;;;;;1.1717887;0.22638631;0.025635548;;;;;599.9
839.0;700.6;;;;;;;;;;;;;;;;;19.524216;56.772057;-93.634605;;609.3
839.0;700.6;;;;;;;;;;;;;;1.1268654;0.30579546;0.020569475;;;;;609.3
839.0;700.6;;;;;;;;;;;;;;;;;21.33244;48.814358;-104.346596;;609.3
839.0;700.6;;;;;;;;;;;;;;1.079989;0.34894863;0.0017090365;;;;;609.3
839.0;700.6;;;;;;;;;;;;;;;;;22.347178;40.86047;-118.0456;;619.0
839.0;700.6;;;;;;;;;;;;;;1.0612507;0.40601826;-0.0051881466;;;;;619.0
839.0;700.6;;;;;;;;;;;;;;;;;18.112736;31.979584;-124.855034;;619.0
839.0;700.6;;;;;;;;;;;;;;1.0646688;0.4845729;-0.027405621;;;;;619.0
839.0;700.6;;;;;;;;;;;;;;;;;12.508774;20.210882;-124.988556;;628.6
839.0;700.6;;;;;;;;;;;;;;1.0778527;0.5410932;-0.07525864;;;;;628.6
839.0;700.6;;;;;;;;;;;;;;;;;8.9991455;8.499405;-124.988556;;628.6
839.0;700.6;;;;;;;;;;;;;;1.0928068;0.567217;-0.15314189;;;;;628.6
839.0;708.1;;;;;;;;;;;;;;;;;12.558367;-2.967925;-124.988556;;638.3
839.0;708.1;;;;;;;;;;;;;;1.1364483;0.68599504;-0.2356029;;;;;638.3
839.0;708.1;;;;;;;;;;;;;;;;;20.561846;-17.246773;-124.988556;;638.3
839.0;708.1;;;;;;;;;;;;;;1.1584216;0.81893367;-0.2764977;;;;;638.3
839.0;708.1;;;;;;;;;;;;;;;;;10.692923;-27.424694;-124.988556;;648.0
839.0;708.1;;;;;;;;;;;;;;1.2136601;0.91006196;-0.39039278;;;;;648.0
839.0;708.1;;;;;;;;;;;;;;;;;1.0338145;-29.087955;-124.988556;;648.0
839.0;708.1;;;;;;;;;;;;;;1.2468642;0.90444654;-0.52455217;;;;;648.0
839.0;708.1;;;;;;;;;;;;;;;;;-3.3913696;-26.375622;-124.988556;;657.7
839.0;708.1;;;;;;;;;;;;;;1.2043824;0.76448864;-0.55568105;;;;;657.7
839.0;708.1;;;;;;;;;;;;;;;;;-11.551256;-34.066284;-124.94278;;657.7
839.0;708.1;;;;;;;;;;;;;;1.1550035;0.572161;-0.57203895;;;;;657.7
903.0;760.9;;;;;;;;;;;;;;;;;-21.874142;-47.963654;-124.053925;;667.4
903.0;760.9;;;;;;;;;;;;;;1.1778924;0.4803003;-0.60316783;;;;;667.4
903.0;760.9;;;;;;;;;;;;;;;;;-39.323097;-53.781246;-116.80196;;667.4
903.0;760.9;;;;;;;;;;;;;;1.2359385;0.38392285;-0.6505936;;;;;667.4
903.0;760.9;;;;;;;;;;;;;;;;;-59.533985;-49.916836;-104.83871;;677.0
903.0;760.9;;;;;;;;;;;;;;1.2900174;0.2705771;-0.74166083;;;;;677.0
903.0;760.9;;;;;;;;;;;;;;;;;-77.314835;-40.272987;-98.59005;;677.0
903.0;760.9;;;;;;;;;;;;;;1.3331095;0.16821803;-0.7943358;;;;;677.0
903.0;760.9;;;;;;;;;;;;;;;;;-98.529015;-23.815882;-100.03204;;686.7
903.0;760.9;;;;;;;;;;;;;;1.3578906;0.10223701;-0.77840513;;;;;686.7
903.0;760.9;;;;;;;;;;;;;;;;;-120.5443;-5.0393686;-106.06708;;686.7
903.0;760.9;;;;;;;;;;;;;;1.3176061;0.072328866;-0.68715477;;;;;686.7
903.0;768.7;;;;;;;;;;;;;;;;;-124.988556;4.9249244;-110.599075;;696.4
903.0;768.7;;;;;;;;;;;;;;1.2396618;0.07562487;-0.5686819;;;;;696.4
903.0;768.7;;;;;;;;;;;;;;;;;-124.988556;7.3053684;-112.07922;;696.4
903.0;768.7;;;;;;;;;;;;;;1.1680044;0.09094516;-0.46815392;;;;;696.4
903.0;768.7;;;;;;;;;;;;;;;;;-124.988556;7.0116277;-107.72271;;705.9
903.0;768.7;;;;;;;;;;;;;;1.1240578;0.106387526;-0.3932005;;;;;705.9
903.0;768.7;;;;;;;;;;;;;;;;;-124.988556;5.3903317;-95.41231;;705.9
903.0;768.7;;;;;;;;;;;;;;1.0967132;0.07214576;-0.37305826;;;;;705.9
903.0;768.7;;;;;;;;;;;;;;;;;-124.988556;7.5189977;-83.8229;;715.6
903.0;768.7;;;;;;;;;;;;;;1.083346;0.010986663;-0.36762595;;;;;715.6
903.0;768.7;;;;;;;;;;;;;;;;;-124.988556;14.446699;-80.84734;;715.6
903.0;768.7;;;;;;;;;;;;;;1.0907315;-0.03460799;-0.34614092;;;;;715.6
959.0;821.1;;;;;;;;;;;;;;;;;-124.988556;26.432844;-86.54668;;725.2
959.0;821.1;;;;;;;;;;;;;;1.1091037;0.0042115543;-0.28296763;;;;;725.2
959.0;821.1;;;;;;;;;;;;;;;;;-124.988556;39.559616;-95.950195;;725.2
959.0;821.1;;;;;;;;;;;;;;1.1124607;0.08545183;-0.24408704;;;;;725.2
959.0;821.1;;;;;;;;;;;;;;;;;-124.988556;56.119724;-104.47249;;734.8
959.0;821.1;;;;;;;;;;;;;;1.098178;0.1431318;-0.21033357;;;;;734.8
959.0;821.1;;;;;;;;;;;;;;;;;-124.988556;76.65868;-108.60775;;734.8
959.0;821.1;;;;;;;;;;;;;;1.0768762;0.22864467;-0.11157567;;;;;734.8
959.0;821.1;;;;;;;;;;;;;;;;;-124.988556;94.35178;-110.0383;;744.5
959.0;821.1;;;;;;;;;;;;;;1.0709555;0.26123846;-0.023438215;;;;;744.5
959.0;821.1;;;;;;;;;;;;;;;;;-124.988556;101.390114;-108.6993;;744.5
959.0;821.1;;;;;;;;;;;;;;1.0666219;0.27100438;0.07208472;;;;;744.5
959.0;828.6;;;;;;;;;;;;;;;;;-123.32911;99.10504;-107.604454;;754.2
959.0;828.6;;;;;;;;;;;;;;1.0727257;0.26746422;0.19837031;;;;;754.2
959.0;828.6;;;;;;;;;;;;;;;;;-114.200264;87.839905;-102.62993;;754.2
959.0;828.6;;;;;;;;;;;;;;1.076632;0.24445327;0.27503282;;;;;754.2
959.0;828.6;;;;;;;;;;;;;;;;;-103.69808;70.9975;-102.210304;;763.9
959.0;828.6;;;;;;;;;;;;;;0.9985046;0.14282663;0.26190984;;;;;763.9
959.0;828.6;;;;;;;;;;;;;;;;;-81.709496;40.11658;-115.79485;;763.9
959.0;828.6;;;;;;;;;;;;;;0.9960631;0.13293862;0.21277505;;;;;763.9
959.0;828.6;;;;;;;;;;;;;;;;;-71.871086;7.0307016;-121.71545;;773.5
959.0;828.6;;;;;;;;;;;;;;1.025422;0.12732323;0.009704886;;;;;773.5
959.0;828.6;;;;;;;;;;;;;;;;;-71.44002;-11.734367;-124.90463;;773.5
959.0;828.6;;;;;;;;;;;;;;1.1051363;0.15442365;-0.22211371;;;;;773.5
1020.0;881.3;;;;;;;;;;;;;;;;;-72.90872;-15.411847;-124.988556;;783.1
1020.0;881.3;;;;;;;;;;;;;;1.1720328;0.11883908;-0.45301676;;;;;783.1
1020.0;881.3;;;;;;;;;;;;;;;;;-77.53228;3.952147;-124.68719;;783.1
1020.0;881.3;;;;;;;;;;;;;;1.1424909;0.04327525;-0.5569628;;;;;783.1
1020.0;881.3;;;;;;;;;;;;;;;;;-83.84579;37.202065;-124.91608;;792.8
1020.0;881.3;;;;;;;;;;;;;;1.0600299;0.012756737;-0.51893675;;;;;792.8
1020.0;881.3;;;;;;;;;;;;;;;;;-86.218605;67.640465;-124.988556;;792.8
1020.0;881.3;;;;;;;;;;;;;;1.0079653;0.05053865;-0.4008301;;;;;792.8
1020.0;881.3;;;;;;;;;;;;;;;;;-86.57339;92.22312;-124.923706;;802.5
1020.0;881.3;;;;;;;;;;;;;;1.0050355;0.106631674;-0.25006866;;;;;802.5
1020.0;881.3;;;;;;;;;;;;;;;;;-85.54338;106.95212;-123.3787;;802.5
1020.0;881.3;;;;;;;;;;;;;;0.9944151;0.09466842;-0.100161746;;;;;802.5
1020.0;888.8;;;;;;;;;;;;;;;;;-79.195526;106.94449;-119.350266;;812.2
1020.0;888.8;;;;;;;;;;;;;;0.93868834;-2.4414808E-4;-0.0145268105;;;;;812.2
1020.0;888.8;;;;;;;;;;;;;;;;;-64.645836;96.13712;-122.21137;;812.2
1020.0;888.8;;;;;;;;;;;;;;0.9076815;-0.012634663;0.019104587;;;;;812.2
1020.0;888.8;;;;;;;;;;;;;;;;;-52.056946;84.73083;-124.93515;;821.9
1020.0;888.8;;;;;;;;;;;;;;0.9125034;0.08185064;-4.2725913E-4;;;;;821.9
1020.0;888.8;;;;;;;;;;;;;;;;;-45.209354;83.21253;-124.988556;;821.9
1020.0;888.8;;;;;;;;;;;;;;0.9011505;0.13110752;-0.006469924;;;;;821.9
1020.0;888.8;;;;;;;;;;;;;;;;;-42.39784;89.964745;-124.988556;;831.6
1020.0;888.8;;;;;;;;;;;;;;0.8810083;0.16400647;0.030274361;;;;;831.6
1020.0;888.8;;;;;;;;;;;;;;;;;-42.657246;95.11857;-124.988556;;831.6
1020.0;888.8;;;;;;;;;;;;;;0.86056095;0.21289712;0.08990753;;;;;831.6
1080.0;942.0;;;;;;;;;;;;;;;;;-42.348248;89.819786;-124.931335;;841.2
1080.0;942.0;;;;;;;;;;;;;;0.85598314;0.26538897;0.109866634;;;;;841.2
1080.0;942.0;;;;;;;;;;;;;;;;;-43.83221;78.66908;-124.77111;;841.2
1080.0;942.0;;;;;;;;;;;;;;0.8637959;0.31800288;0.06701865;;;;;841.2
1080.0;942.0;;;;;;;;;;;;;;;;;-47.742393;68.956566;-124.073;;850.7
1080.0;942.0;;;;;;;;;;;;;;0.8949858;0.3707999;0.006897183;;;;;850.7
1080.0;942.0;;;;;;;;;;;;;;;;;-53.312023;64.84039;-121.574295;;850.7
1080.0;942.0;;;;;;;;;;;;;;0.9231239;0.41163367;-0.041444138;;;;;850.7
1080.0;942.0;;;;;;;;;;;;;;;;;-60.17487;67.27043;-119.23582;;860.2
1080.0;942.0;;;;;;;;;;;;;;0.92483294;0.44691306;-0.063417464;;;;;860.2
1080.0;942.0;;;;;;;;;;;;;;;;;-67.44591;75.0908;-117.744225;;860.2
1080.0;942.0;;;;;;;;;;;;;;0.8995636;0.46552935;-0.04547258;;;;;860.2
1080.0;942.8;;;;;;;;;;;;;;;;;-74.1905;81.51112;-113.914154;;869.8
1080.0;942.8;;;;;;;;;;;;;;0.8957793;0.45319986;0.020447401;;;;;869.8
1080.0;942.8;;;;;;;;;;;;;;;;;-79.87838;78.69197;-108.97778;;869.8
1080.0;942.8;;;;;;;;;;;;;;0.9261757;0.44166386;0.038270213;;;;;869.8
1080.0;942.8;;;;;;;;;;;;;;;;;-86.90146;75.48753;-107.718895;;879.5
1080.0;942.8;;;;;;;;;;;;;;0.9561449;0.4321421;0.010864589;;;;;879.5
1080.0;942.8;;;;;;;;;;;;;;;;;-94.01608;76.643425;-105.1973;;879.5
1080.0;942.8;;;;;;;;;;;;;;0.93832207;0.40339366;-0.0027466659;;;;;879.5
1080.0;942.8;;;;;;;;;;;;;;;;;-101.367226;78.6996;-102.80541;;889.1
1080.0;942.8;;;;;;;;;;;;;;0.90414137;0.4079104;0.0038453322;;;;;889.1
1080.0;942.8;;;;;;;;;;;;;;;;;-109.48134;78.32194;-99.21948;;889.1
1080.0;942.8;;;;;;;;;;;;;;0.8642842;0.37635425;0.003601184;;;;;889.1
1138.0;1001.9;;;;;;;;;;;;;;;;;-115.19593;76.96005;-93.829155;;898.8
1138.0;1001.9;;;;;;;;;;;;;;0.8080081;0.3327128;0.0046388134;;;;;898.8
1138.0;1001.9;;;;;;;;;;;;;;;;;-119.89196;75.72405;-87.87042;;898.8
1138.0;1001.9;;;;;;;;;;;;;;0.74288154;0.26013976;0.019409772;;;;;898.8
1138.0;1001.9;;;;;;;;;;;;;;;;;-122.74163;72.85912;-83.62072;;908.4
1138.0;1001.9;;;;;;;;;;;;;;0.687582;0.25330362;0.015625477;;;;;908.4
1138.0;1001.9;;;;;;;;;;;;;;;;;-124.790184;70.42527;-76.96387;;908.4
1138.0;1001.9;;;;;;;;;;;;;;0.63289285;0.21497238;-0.010620441;;;;;908.4
1138.0;1001.9;;;;;;;;;;;;;;;;;-124.988556;72.63023;-70.234535;;918.1
1138.0;1001.9;;;;;;;;;;;;;;0.5690481;0.15478988;6.103702E-4;;;;;918.1
1138.0;1001.9;;;;;;;;;;;;;;;;;-124.988556;73.39702;-64.27961;;918.1
1138.0;1001.9;;;;;;;;;;;;;;0.519364;0.14044619;0.049806207;;;;;918.1
1138.0;1002.8;;;;;;;;;;;;;;;;;-124.988556;71.371346;-58.297985;;927.8
1138.0;1002.8;;;;;;;;;;;;;;0.4856105;0.1347087;0.08478042;;;;;927.8
1138.0;1002.8;;;;;;;;;;;;;;;;;-124.938965;67.74728;-52.236244;;927.8
1138.0;1002.8;;;;;;;;;;;;;;0.4591815;0.114322335;0.11816767;;;;;927.8
1138.0;1002.8;;;;;;;;;;;;;;;;;-123.78689;63.882874;-46.807762;;937.3
1138.0;1002.8;;;;;;;;;;;;;;0.43653676;0.11017182;0.12073123;;;;;937.3
1138.0;1002.8;;;;;;;;;;;;;;;;;-118.778046;62.662132;-41.55858;;937.3
1138.0;1002.8;;;;;;;;;;;;;;0.41840875;0.10821863;0.12103641;;;;;937.3
1138.0;1002.8;;;;;;;;;;;;;;;;;-109.714035;59.29365;-37.8811;;946.9
1138.0;1002.8;;;;;;;;;;;;;;0.41108432;0.13110752;0.12793359;;;;;946.9
1138.0;1002.8;;;;;;;;;;;;;;;;;-98.429825;54.84939;-34.72243;;946.9
1138.0;1002.8;;;;;;;;;;;;;;0.41096225;0.17554247;0.12750633;;;;;946.9
1199.0;1063.4;;;;;;;;;;;;;;;;;-88.84319;50.012207;-31.338696;;956.5
1199.0;1063.4;;;;;;;;;;;;;;0.41224402;0.2163152;0.11609241;;;;;956.5
1199.0;1063.4;;;;;;;;;;;;;;;;;-80.973236;46.31565;-28.56151;;956.5
1199.0;1063.4;;;;;;;;;;;;;;0.4041261;0.260506;0.115543075;;;;;956.5
1199.0;1063.4;;;;;;;;;;;;;;;;;-75.243385;41.611988;-25.563066;;966.2
1199.0;1063.4;;;;;;;;;;;;;;0.36072877;0.291818;0.13324381;;;;;966.2
1199.0;1063.4;;;;;;;;;;;;;;;;;-73.21009;34.211246;-22.568438;;966.2
1199.0;1063.4;;;;;;;;;;;;;;0.31714836;0.3333842;0.16657002;;;;;966.2
1199.0;1063.4;;;;;;;;;;;;;;;;;-76.17039;27.062288;-18.42555;;975.9
1199.0;1063.4;;;;;;;;;;;;;;0.27961057;0.3401593;0.20795313;;;;;975.9
1199.0;1063.4;;;;;;;;;;;;;;;;;-78.917046;20.79455;-13.672293;;975.9
1199.0;1063.4;;;;;;;;;;;;;;0.24176763;0.36475724;0.26386303;;;;;975.9
1199.0;1064.2;;;;;;;;;;;;;;;;;-81.774345;15.36607;-8.781701;;985.5
1199.0;1064.2;;;;;;;;;;;;;;0.1993469;0.38904995;0.30213323;;;;;985.5
1199.0;1064.2;;;;;;;;;;;;;;;;;-83.52153;9.857478;-3.4714804;;985.5
1199.0;1064.2;;;;;;;;;;;;;;0.17694631;0.42597735;0.32886747;;;;;985.5
1199.0;1064.2;;;;;;;;;;;;;;;;;-82.59071;3.2425916;2.7733696;;995.2
1199.0;1064.2;;;;;;;;;;;;;;0.15912351;0.45240638;0.3236793;;;;;995.2
1199.0;1064.2;;;;;;;;;;;;;;;;;-79.4969;-4.5739617;8.217109;;995.2
1199.0;1064.2;;;;;;;;;;;;;;0.14477982;0.49067658;0.27491075;;;;;995.2
1199.0;1064.2;;;;;;;;;;;;;;;;;-77.10883;-10.879849;12.310404;;1004.9
1199.0;1064.2;;;;;;;;;;;;;;0.12817775;0.54158145;0.24262215;;;;;1004.9
1199.0;1064.2;;;;;;;;;;;;;;;;;-73.32072;-18.24244;16.29307;;1004.9
1199.0;1064.2;;;;;;;;;;;;;;0.11236915;0.5950499;0.24958037;;;;;1004.9
1202.0;1122.4;;;;;;;;;;;;;;;;;-68.46827;-24.28129;20.336771;;1014.5
1202.0;1122.4;;;;;;;;;;;;;;0.13739432;0.6385693;0.26587725;;;;;1014.5
1202.0;1122.4;;;;;;;;;;;;;;;;;-62.48665;-28.542437;24.25077;;1014.5
1202.0;1122.4;;;;;;;;;;;;;;0.14545122;0.65718555;0.27344584;;;;;1014.5
1202.0;1122.4;;;;;;;;;;;;;;;;;-50.50432;-38.384655;26.966919;;1023.9
1202.0;1122.4;;;;;;;;;;;;;;0.13776055;0.65559864;0.21173742;;;;;1023.9
1202.0;1122.4;;;;;;;;;;;;;;;;;-30.850397;-55.738243;29.06888;;1023.9
1202.0;1122.4;;;;;;;;;;;;;;0.15778069;0.65651417;0.058656577;;;;;1023.9
1202.0;1122.4;;;;;;;;;;;;;;;;;-16.834774;-68.76202;29.91577;;1033.6
1202.0;1122.4;;;;;;;;;;;;;;0.18329416;0.6652425;0.005798517;;;;;1033.6
1202.0;1122.4;;;;;;;;;;;;;;;;;-14.271218;-79.744865;31.037325;;1033.6
1202.0;1122.4;;;;;;;;;;;;;;0.18848231;0.65089875;0.05139317;;;;;1033.6
1203.0;1123.3;;;;;;;;;;;;;;;;;-20.287178;-92.463455;34.38673;;1043.2
1203.0;1123.3;;;;;;;;;;;;;;0.19409773;0.61580247;0.08850368;;;;;1043.2
1203.0;1123.3;;;;;;;;;;;;;;;;;-34.596542;-103.85067;39.27732;;1043.2
1203.0;1123.3;;;;;;;;;;;;;;0.2318186;0.54194766;0.099612415;;;;;1043.2
1203.0;1123.3;;;;;;;;;;;;;;;;;-52.594837;-106.52104;45.274208;;1052.9
1203.0;1123.3;;;;;;;;;;;;;;0.25360882;0.37354657;0.16370128;;;;;1052.9
1203.0;1123.3;;;;;;;;;;;;;;;;;-66.05732;-105.14008;53.11365;;1052.9
1203.0;1123.3;;;;;;;;;;;;;;0.2118595;0.1276284;0.18854335;;;;;1052.9
1203.0;1123.3;;;;;;;;;;;;;;;;;-74.285866;-87.58813;62.883392;;1062.5
1203.0;1123.3;;;;;;;;;;;;;;0.25543994;-0.20453505;0.3180639;;;;;1062.5
1203.0;1123.3;;;;;;;;;;;;;;;;;-80.84734;-58.47728;75.922424;;1062.5
1203.0;1123.3;;;;;;;;;;;;;;0.28412732;-0.5287637;0.6836146;;;;;1062.5
1203.0;1129.3;;;;0.0;0.0;0.0;;;;;;;;;;;;;;;
1203.0;1129.3;;;;-0.19604114;0.020408632;-0.022613527;;;;;;;;;;;;;;;
1203.0;1129.3;;;;-1.042267;-0.015464785;-0.26325992;;;;;;;;;;;;;;;
1203.0;1129.3;;;;-1.1709024;-0.029041294;-0.31442264;;;;;;;;;;;;;;;
1203.0;1129.3;;;;-1.1796991;-0.030525211;-0.32220462;;;;;;;;;;;;;;;
1203.0;1139.3;;;;-1.1865922;-0.031715397;-0.3293381;;;;;;;;;;;;;;;
1203.0;1139.3;;;;-1.1931001;-0.031940464;-0.33636096;;;;;;;;;;;;;;;
1203.0;1139.3;;;;-1.1986047;-0.031730656;-0.34289172;;;;;;;;;;;;;;;
1203.0;1139.3;;;;-1.2030259;-0.031326298;-0.3489876;;;;;;;;;;;;;;;
1203.0;1139.3;;;;-1.2069284;-0.030624393;-0.35466388;;;;;;;;;;;;;;;
1261.0;1140.5;57531;57502;11658;;;;;;;;;;;;;;;;;;
1261.0;1149.1;;;;-1.2106897;-0.02928162;-0.35981753;;;;;;;;;;;;;;;
1261.0;1149.1;;;;-1.2142869;-0.027214054;-0.3653336;;;;;;;;;;;;;;;
1261.0;1149.1;;;;-1.2174112;-0.024703983;-0.37161258;;;;;;;;;;;;;;;
1261.0;1149.1;;;;-1.220627;-0.022369387;-0.37677008;;;;;;;;;;;;;;;
1261.0;1149.1;;;;-1.2236482;-0.019130709;-0.38293463;;;;;;;;;;;;;;;
1261.0;1159.2;;;;-1.2265359;-0.016754152;-0.38755423;;;;;;;;;;;;;;;
1261.0;1159.2;;;;-1.2293588;-0.01400757;-0.39254004;;;;;;;;;;;;;;;
1261.0;1159.2;;;;-1.2311479;-0.011119843;-0.39820868;;;;;;;;;;;;;;;
1261.0;1159.2;;;;-1.2331773;-0.008514405;-0.4031945;;;;;;;;;;;;;;;
1261.0;1159.2;;;;-1.2349244;-0.005245209;-0.4078217;;;;;;;;;;;;;;;
1261.0;1160.5;73800;73831;11684;;;;;;;;;;;;;;;;;;
1261.0;1166.9;;;;;;;;;;;;;0;;;;;;;;
1261.0;1166.9;;;;;;;;;;;;;0;;;;;;;;
1261.0;1166.9;;;;;;;;;;;;;-1;;;;;;;;
1261.0;1166.9;;;;;;;;;;;;;-3;;;;;;;;
1261.0;1166.9;;;;;;;;;;;;;-3;;;;;;;;
1261.0;1169.3;;;;-1.2358438;-0.0016479495;-0.41281134;;;;;;;;;;;;;;;
1261.0;1169.3;;;;-1.2367479;0.0015678408;-0.41716772;;;;;;;;;;;;;;;
1261.0;1169.3;;;;-1.2373315;0.0051040654;-0.4212342;;;;;;;;;;;;;;;
1261.0;1169.3;;;;-1.2372476;0.009304048;-0.424717;;;;;;;;;;;;;;;
1261.0;1169.3;;;;-1.2357751;0.013237001;-0.427723;;;;;;;;;;;;;;;
1262.0;1179.4;;;;-1.2338296;0.017833712;-0.43028647;;;;;;;;;;;;;;;
1262.0;1179.4;;;;-1.2312051;0.022228243;-0.43209845;;;;;;;;;;;;;;;
1262.0;1179.4;;;;-1.2280122;0.026378635;-0.43411642;;;;;;;;;;;;;;;
1262.0;1179.4;;;;-1.2245141;0.030715946;-0.4348336;;;;;;;;;;;;;;;
1262.0;1179.4;;;;-1.2207528;0.03465653;-0.43622214;;;;;;;;;;;;;;;
1262.0;1180.8;90210;90188;11730;;;;;;;;;;;;;;;;;;
1262.0;1182.4;;;;;;;;;;;;;;;;;-84.16242;-41.13895;84.761345;;1072.2
1262.0;1182.4;;;;;;;;;;;;;;0.38691366;-0.45881528;1.1084323;;;;;1072.2
1262.0;1182.4;;;;;;;;;;;;;;;;;-47.212135;-54.12076;79.45112;;1072.2
1262.0;1182.4;;;;;;;;;;;;;;0.60194707;0.08191168;1.2436903;;;;;1072.2
1262.0;1182.4;;;;;;;;;;;;;;;;;29.404585;-105.8916;70.94791;;1081.8
1262.0;1182.4;;;;;;;;;;;;;;0.90481275;0.39722893;0.80092776;;;;;1081.8
1262.0;1182.4;;;;;;;;;;;;;;;;;94.100006;-124.91608;75.22431;;1081.8
1262.0;1182.4;;;;;;;;;;;;;;1.1951659;0.37849057;0.11181982;;;;;1081.8
1262.0;1182.4;;;;;;;;;;;;;;;;;118.5606;-124.988556;93.01279;;1091.4
1262.0;1182.4;;;;;;;;;;;;;;1.3581347;0.10992767;-0.52125615;;;;;1091.4
1262.0;1182.4;;;;;;;;;;;;;;;;;105.304115;-119.579155;103.99182;;1091.4
1262.0;1182.4;;;;;;;;;;;;;;1.6424451;-0.18005921;-0.55867183;;;;;1091.4
1317.0;1183.7;;;;;;;;;;;;;;;;;82.20542;-76.815094;102.168335;;1101.0
1317.0;1183.7;;;;;;;;;;;;;;1.6459242;-0.18750572;0.07293924;;;;;1101.0
1317.0;1183.7;;;;;;;;;;;;;;;;;87.611015;-95.500046;96.29734;;1101.0
1317.0;1183.7;;;;;;;;;;;;;;1.5884274;0.13739432;0.08130131;;;;;1101.0
1317.0;1183.7;;;;;;;;;;;;;;;;;92.04382;-123.93948;96.89627;;1110.7
1317.0;1183.7;;;;;;;;;;;;;;1.6830348;0.24585712;-0.42451248;;;;;1110.7
1317.0;1183.7;;;;;;;;;;;;;;;;;77.33009;-94.74471;91.742455;;1110.7
1317.0;1183.7;;;;;;;;;;;;;;1.6757103;0.35700554;-0.18805505;;;;;1110.7
1317.0;1183.7;;;;;;;;;;;;;;;;;51.866207;-53.55617;74.236275;;1120.4
1317.0;1183.7;;;;;;;;;;;;;;1.457625;0.5583056;0.3507187;;;;;1120.4
1317.0;1183.7;;;;;;;;;;;;;;;;;61.567276;-97.14805;63.909576;;1120.4
1317.0;1183.7;;;;;;;;;;;;;;1.4283273;0.67488635;0.04260384;;;;;1120.4
1317.0;1189.2;;;;-1.2167627;0.038738254;-0.43630987;;;;;;;;;;;;;;;
1317.0;1189.2;;;;-1.213009;0.04154587;-0.43591696;;;;;;;;;;;;;;;
1317.0;1189.2;;;;-1.2087632;0.0443306;-0.43531805;;;;;;;;;;;;;;;
1317.0;1189.2;;;;-1.2050744;0.045967106;-0.43463904;;;;;;;;;;;;;;;
1317.0;1189.2;;;;-1.2016183;0.04702378;-0.43379217;;;;;;;;;;;;;;;
1317.0;1199.2;;;;-1.1979753;0.04717637;-0.43232733;;;;;;;;;;;;;;;
1317.0;1199.2;;;;-1.1949731;0.04672623;-0.43013388;;;;;;;;;;;;;;;
1317.0;1199.2;;;;-1.1919671;0.045463566;-0.42753607;;;;;;;;;;;;;;;
1317.0;1199.2;;;;-1.1887513;0.044048313;-0.42425162;;;;;;;;;;;;;;;
1317.0;1199.2;;;;-1.1852075;0.04232407;-0.41992956;;;;;;;;;;;;;;;
1317.0;1200.6;106682;106689;11775;;;;;;;;;;;;;;;;;;
1322.0;1206.9;;;;;;;;;;;;;-3;;;;;;;;
1322.0;1206.9;;;;;;;;;;;;;-9;;;;;;;;
1322.0;1206.9;;;;;;;;;;;;;-12;;;;;;;;
1322.0;1206.9;;;;;;;;;;;;;-2;;;;;;;;
1322.0;1206.9;;;;;;;;;;;;;-14;;;;;;;;
1322.0;1209.1;;;;-1.1807595;0.040565494;-0.41584402;;;;;;;;;;;;;;;
1322.0;1209.1;;;;-1.1761781;0.03879929;-0.41228873;;;;;;;;;;;;;;;
1322.0;1209.1;;;;-1.1705171;0.03684998;-0.40904242;;;;;;;;;;;;;;;
1322.0;1209.1;;;;-1.164116;0.03469086;-0.40634924;;;;;;;;;;;;;;;
1322.0;1209.1;;;;-1.1572229;0.032772068;-0.40354925;;;;;;;;;;;;;;;
1322.0;1219.2;;;;-1.1503259;0.030124668;-0.4010926;;;;;;;;;;;;;;;
1322.0;1219.2;;;;-1.1441613;0.02796555;-0.39873892;;;;;;;;;;;;;;;
1322.0;1219.2;;;;-1.1386758;0.02606583;-0.39594656;;;;;;;;;;;;;;;
1322.0;1219.2;;;;-1.1333734;0.024856571;-0.39256293;;;;;;;;;;;;;;;
1322.0;1219.2;;;;-1.1276666;0.023197176;-0.38924795;;;;;;;;;;;;;;;
1322.0;1220.7;123086;123030;11807;;;;;;;;;;;;;;;;;;
1322.0;1229.3;;;;-1.1221658;0.02219391;-0.38633353;;;;;;;;;;;;;;;
1322.0;1229.3;;;;-1.1164705;0.021053316;-0.3832894;;;;;;;;;;;;;;;
1322.0;1229.3;;;;-1.1106492;0.019920351;-0.38047796;;;;;;;;;;;;;;;
1322.0;1229.3;;;;-1.1053544;0.019321444;-0.37831503;;;;;;;;;;;;;;;
1322.0;1229.3;;;;-1.0997392;0.01854706;-0.3761559;;;;;;;;;;;;;;;
1323.0;1239.5;;;;-1.0942308;0.017787935;-0.3739548;;;;;;;;;;;;;;;
1323.0;1239.5;;;;-1.0891877;0.016632082;-0.37174228;;;;;;;;;;;;;;;
1323.0;1239.5;;;;-1.0838777;0.015708925;-0.37000278;;;;;;;;;;;;;;;
1323.0;1239.5;;;;-1.078724;0.014987947;-0.36822513;;;;;;;;;;;;;;;
1323.0;1239.5;;;;-1.0733606;0.01407242;-0.36641696;;;;;;;;;;;;;;;
1323.0;1241.0;139376;139375;11809;;;;;;;;;;;;;;;;;;
1323.0;1242.7;;;;;;;;;;;;;;;;;74.00357;-124.52315;65.9238;;1130.0
1323.0;1242.7;;;;;;;;;;;;;;1.5687125;0.58229315;-0.39509264;;;;;1130.0
1323.0;1242.7;;;;;;;;;;;;;;;;;61.517685;-109.31349;61.78472;;1130.0
1323.0;1242.7;;;;;;;;;;;;;;1.5914181;0.5316324;-0.36371958;;;;;1130.0
1323.0;1242.7;;;;;;;;;;;;;;;;;41.97821;-68.20505;56.081573;;1139.7
1323.0;1242.7;;;;;;;;;;;;;;1.4816736;0.5170446;-0.03009125;;;;;1139.7
1323.0;1242.7;;;;;;;;;;;;;;;;;31.464584;-57.98517;54.71969;;1139.7
1323.0;1242.7;;;;;;;;;;;;;;1.4161199;0.512772;0.23517564;;;;;1139.7
1323.0;1242.7;;;;;;;;;;;;;;;;;31.00299;-77.66961;55.04776;;1149.3
1323.0;1242.7;;;;;;;;;;;;;;1.3052156;0.50935394;0.18811609;;;;;1149.3
1323.0;1242.7;;;;;;;;;;;;;;;;;37.68273;-101.52745;53.03354;;1149.3
1323.0;1242.7;;;;;;;;;;;;;;1.2280648;0.54860073;-0.04388562;;;;;1149.3
1325.0;1243.5;;;;;;;;;;;;;;;;;31.945251;-95.33219;53.811764;;1158.9
1325.0;1243.5;;;;;;;;;;;;;;1.2236091;0.55476546;-0.15363018;;;;;1158.9
1325.0;1243.5;;;;;;;;;;;;;;;;;16.994993;-67.60232;62.3455;;1158.9
1325.0;1243.5;;;;;;;;;;;;;;1.1796014;0.36390272;-0.08038575;;;;;1158.9
1325.0;1243.5;;;;;;;;;;;;;;;;;9.552294;-48.520615;66.3091;;1168.6
1325.0;1243.5;;;;;;;;;;;;;;1.1103854;0.21643727;0.044679098;;;;;1168.6
1325.0;1243.5;;;;;;;;;;;;;;;;;12.134923;-52.831356;68.41486;;1168.6
1325.0;1243.5;;;;;;;;;;;;;;1.0597857;0.13037507;0.041016877;;;;;1168.6
1325.0;1243.5;;;;;;;;;;;;;;;;;20.210882;-63.070312;71.378975;;1178.2
1325.0;1243.5;;;;;;;;;;;;;;1.0170598;0.073427536;-0.023499252;;;;;1178.2
1325.0;1243.5;;;;;;;;;;;;;;;;;27.3484;-67.30095;73.68694;;1178.2
1325.0;1243.5;;;;;;;;;;;;;;0.9828791;0.040833768;-0.07483139;;;;;1178.2
1325.0;1247.1;;;;;;;;;;;;;12;;;;;;;;
1325.0;1247.1;;;;;;;;;;;;;11;;;;;;;;
1325.0;1247.1;;;;;;;;;;;;;-40;;;;;;;;
1325.0;1247.1;;;;;;;;;;;;;127;;;;;;;;
1325.0;1247.1;;;;;;;;;;;;;-35;;;;;;;;
1325.0;1249.4;;;;-1.0676805;0.013648989;-0.36508945;;;;;;;;;;;;;;;
1325.0;1249.4;;;;-1.0617715;0.01281357;-0.36333087;;;;;;;;;;;;;;;
1325.0;1249.4;;;;-1.0561525;0.012802126;-0.36233142;;;;;;;;;;;;;;;
1325.0;1249.4;;;;-1.0501786;0.01274872;-0.3615761;;;;;;;;;;;;;;;
1325.0;1249.4;;;;-1.0432473;0.0123786945;-0.36099246;;;;;;;;;;;;;;;
1379.0;1259.5;;;;-1.0354463;0.012218477;-0.36117938;;;;;;;;;;;;;;;
1379.0;1259.5;;;;-1.0278856;0.012138369;-0.36140826;;;;;;;;;;;;;;;
1379.0;1259.5;;;;-1.0206338;0.012248995;-0.36229327;;;;;;;;;;;;;;;
1379.0;1259.5;;;;-1.0128595;0.012165071;-0.36381915;;;;;;;;;;;;;;;
1379.0;1259.5;;;;-1.005066;0.0122528095;-0.36542514;;;;;;;;;;;;;;;
1379.0;1261.0;155767;155792;11792;;;;;;;;;;;;;;;;;;
1379.0;1269.3;;;;-0.9971353;0.012195589;-0.3667412;;;;;;;;;;;;;;;
1379.0;1269.3;;;;-0.989586;0.011882784;-0.3684235;;;;;;;;;;;;;;;
1379.0;1269.3;;;;-0.98186505;0.0113716135;-0.37070468;;;;;;;;;;;;;;;
1379.0;1269.3;;;;-0.9749414;0.010623933;-0.3731232;;;;;;;;;;;;;;;
1379.0;1269.3;;;;-0.96782696;0.009788514;-0.3753968;;;;;;;;;;;;;;;
1379.0;1279.3;;;;-0.9609338;0.009220124;-0.37758642;;;;;;;;;;;;;;;
1379.0;1279.3;;;;-0.95421994;0.008243562;-0.38028723;;;;;;;;;;;;;;;
1379.0;1279.3;;;;-0.94817364;0.0066680918;-0.3825646;;;;;;;;;;;;;;;
1379.0;1279.3;;;;-0.9414102;0.0053939824;-0.38436514;;;;;;;;;;;;;;;
1379.0;1279.3;;;;-0.93449414;0.0034179692;-0.38648993;;;;;;;;;;;;;;;
1379.0;1280.9;172097;172135;11732;;;;;;;;;;;;;;;;;;
1379.0;1287.2;;;;;;;;;;;;;-506;;;;;;;;
1379.0;1287.2;;;;;;;;;;;;;4;;;;;;;;
1379.0;1287.2;;;;;;;;;;;;;973;;;;;;;;
1379.0;1287.2;;;;;;;;;;;;;-260;;;;;;;;
1379.0;1287.2;;;;;;;;;;;;;-5364;;;;;;;;
1380.0;1289.4;;;;-0.92746365;0.0016098025;-0.38740927;;;;;;;;;;;;;;;
1380.0;1289.4;;;;-0.92061245;3.8146977E-6;-0.3885346;;;;;;;;;;;;;;;
1380.0;1289.4;;;;-0.9136125;-0.0014877322;-0.3895722;;;;;;;;;;;;;;;
1380.0;1289.4;;;;-0.9060937;-0.0029869084;-0.39021307;;;;;;;;;;;;;;;
1380.0;1289.4;;;;-0.89937603;-0.004505158;-0.39181143;;;;;;;;;;;;;;;
1380.0;1299.5;;;;-0.8933183;-0.0056724553;-0.39318854;;;;;;;;;;;;;;;
1380.0;1299.5;;;;-0.88760006;-0.007472993;-0.39479834;;;;;;;;;;;;;;;
1380.0;1299.5;;;;-0.8826753;-0.008853913;-0.39593512;;;;;;;;;;;;;;;
1380.0;1299.5;;;;-0.8778802;-0.010265351;-0.39693075;;;;;;;;;;;;;;;
1380.0;1299.5;;;;-0.8731729;-0.011833193;-0.3977738;;;;;;;;;;;;;;;
1380.0;1301.2;188484;188588;11674;;;;;;;;;;;;;;;;;;
1380.0;1302.9;;;;;;;;;;;;;;;;;34.421062;-68.53313;75.35402;;1187.9
1380.0;1302.9;;;;;;;;;;;;;;0.9427168;0.024048585;-0.114322335;;;;;1187.9
1380.0;1302.9;;;;;;;;;;;;;;;;;40.887173;-71.39805;76.77694;;1187.9
1380.0;1302.9;;;;;;;;;;;;;;0.908536;0.020020142;-0.16815698;;;;;1187.9
1380.0;1302.9;;;;;;;;;;;;;;;;;44.24421;-71.928314;77.314835;;1197.6
1380.0;1302.9;;;;;;;;;;;;;;0.90212715;0.02887051;-0.21955016;;;;;1197.6
1380.0;1302.9;;;;;;;;;;;;;;;;;45.255135;-67.5451;78.41349;;1197.6
1380.0;1302.9;;;;;;;;;;;;;;0.88772243;0.010254219;-0.21955016;;;;;1197.6
1380.0;1302.9;;;;;;;;;;;;;;;;;43.828396;-59.957424;78.6729;;1207.2
1380.0;1302.9;;;;;;;;;;;;;;0.89272743;0.017273476;-0.20947905;;;;;1207.2
1380.0;1302.9;;;;;;;;;;;;;;;;;43.45836;-51.015503;79.538864;;1207.2
1380.0;1302.9;;;;;;;;;;;;;;0.8954741;0.04052858;-0.18292795;;;;;1207.2
1383.0;1304.1;;;;;;;;;;;;;;;;;44.71343;-43.866543;80.1149;;1216.8
1383.0;1304.1;;;;;;;;;;;;;;0.8991363;0.077761166;-0.15723136;;;;;1216.8
1383.0;1304.1;;;;;;;;;;;;;;;;;46.948914;-40.406506;79.72198;;1216.8
1383.0;1304.1;;;;;;;;;;;;;;0.90676594;0.13183996;-0.13690603;;;;;1216.8
1383.0;1304.1;;;;;;;;;;;;;;;;;49.756615;-43.244728;79.02005;;1226.5
1383.0;1304.1;;;;;;;;;;;;;;0.92825097;0.20618305;-0.16809595;;;;;1226.5
1383.0;1304.1;;;;;;;;;;;;;;;;;53.060246;-46.800133;78.524124;;1226.5
1383.0;1304.1;;;;;;;;;;;;;;0.95095676;0.2722251;-0.21216469;;;;;1226.5
1383.0;1304.1;;;;;;;;;;;;;;;;;54.60143;-47.204506;78.45927;;1236.2
1383.0;1304.1;;;;;;;;;;;;;;0.97647023;0.3114719;-0.24970244;;;;;1236.2
1383.0;1304.1;;;;;;;;;;;;;;;;;54.471725;-43.60332;78.203674;;1236.2
1383.0;1304.1;;;;;;;;;;;;;;0.9953307;0.33832818;-0.25989562;;;;;1236.2
1383.0;1309.5;;;;-0.8694459;-0.013198854;-0.39947897;;;;;;;;;;;;;;;
1383.0;1309.5;;;;-0.866398;-0.014743807;-0.40061194;;;;;;;;;;;;;;;
1383.0;1309.5;;;;-0.86366665;-0.016246798;-0.40157324;;;;;;;;;;;;;;;
1383.0;1309.5;;;;-0.86109555;-0.017356874;-0.40242392;;;;;;;;;;;;;;;
1383.0;1309.5;;;;-0.8580209;-0.01784897;-0.40233237;;;;;;;;;;;;;;;
1436.0;1317.9;;;;;;;;;;;;;;;;;51.53813;-39.971615;76.13987;;1245.9
1436.0;1317.9;;;;;;;;;;;;;;1.0064394;0.39271218;-0.25348675;;;;;1245.9
1436.0;1317.9;;;;;;;;;;;;;;;;;46.769615;-38.77377;70.88686;;1245.9
1436.0;1317.9;;;;;;;;;;;;;;1.0350658;0.46620074;-0.25513473;;;;;1245.9
1436.0;1317.9;;;;;;;;;;;;;;;;;42.966248;-39.372692;70.6885;;1255.5
1436.0;1317.9;;;;;;;;;;;;;;1.0594805;0.5168615;-0.2575152;;;;;1255.5
1436.0;1317.9;;;;;;;;;;;;;;;;;37.621693;-37.724693;73.10327;;1255.5
1436.0;1317.9;;;;;;;;;;;;;;1.0675985;0.51405376;-0.24573503;;;;;1255.5
1436.0;1317.9;;;;;;;;;;;;;;;;;31.559956;-33.58562;73.98068;;1265.0
1436.0;1317.9;;;;;;;;;;;;;;1.0696738;0.49995422;-0.20801416;;;;;1265.0
1436.0;1317.9;;;;;;;;;;;;;;;;;26.085695;-30.796991;74.465164;;1265.0
1436.0;1317.9;;;;;;;;;;;;;;1.0592974;0.47285378;-0.16803491;;;;;1265.0
1436.0;1319.4;;;;-0.85474026;-0.018325808;-0.40183264;;;;;;;;;;;;;;;
1436.0;1319.4;;;;-0.8509332;-0.018493654;-0.4014092;;;;;;;;;;;;;;;
1436.0;1319.4;;;;-0.8465959;-0.01861191;-0.4014321;;;;;;;;;;;;;;;
1436.0;1319.4;;;;-0.84222806;-0.01836777;-0.40023428;;;;;;;;;;;;;;;
1436.0;1319.4;;;;-0.83797467;-0.01779175;-0.39980704;;;;;;;;;;;;;;;
1436.0;1321.1;204949;205024;11644;;;;;;;;;;;;;;;;;;
1436.0;1327.2;;;;;;;;;;;;;-12003;;;;;;;;
1436.0;1327.2;;;;;;;;;;;;;-15682;;;;;;;;
1436.0;1327.2;;;;;;;;;;;;;-15186;;;;;;;;
1436.0;1327.2;;;;;;;;;;;;;-13475;;;;;;;;
1436.0;1327.2;;;;;;;;;;;;;-12921;;;;;;;;
1441.0;1329.3;;;;-0.8333093;-0.017536165;-0.39884573;;;;;;;;;;;;;;;
1441.0;1329.3;;;;-0.82927716;-0.016368868;-0.39765173;;;;;;;;;;;;;;;
1441.0;1329.3;;;;-0.8253099;-0.015090944;-0.3967591;;;;;;;;;;;;;;;
1441.0;1329.3;;;;-0.82096493;-0.013957979;-0.39595038;;;;;;;;;;;;;;;
1441.0;1329.3;;;;-0.81673825;-0.012844088;-0.3943978;;;;;;;;;;;;;;;
1441.0;1339.3;;;;-0.81224453;-0.011997225;-0.3931046;;;;;;;;;;;;;;;
1441.0;1339.3;;;;-0.80760205;-0.010765077;-0.39124686;;;;;;;;;;;;;;;
1441.0;1339.3;;;;-0.8025209;-0.009914399;-0.38892752;;;;;;;;;;;;;;;
1441.0;1339.3;;;;-0.7971574;-0.0092926035;-0.38657004;;;;;;;;;;;;;;;
1441.0;1339.3;;;;-0.79229367;-0.008037568;-0.38397986;;;;;;;;;;;;;;;
1441.0;1341.1;221292;221353;11637;;;;;;;;;;;;;;;;;;
1441.0;1349.4;;;;-0.7867509;-0.0071105966;-0.3818627;;;;;;;;;;;;;;;
1441.0;1349.4;;;;-0.781006;-0.006599427;-0.3789826;;;;;;;;;;;;;;;
1441.0;1349.4;;;;-0.7756845;-0.0059051523;-0.37627798;;;;;;;;;;;;;;;
1441.0;1349.4;;;;-0.76998913;-0.0058784494;-0.3726845;;;;;;;;;;;;;;;
1441.0;1349.4;;;;-0.76389325;-0.0054168706;-0.37025455;;;;;;;;;;;;;;;
1441.0;1359.6;;;;-0.7580911;-0.0057830815;-0.36648944;;;;;;;;;;;;;;;
1441.0;1359.6;;;;-0.7522203;-0.0064163217;-0.3634949;;;;;;;;;;;;;;;
1441.0;1359.6;;;;-0.74667746;-0.0072288522;-0.3610001;;;;;;;;;;;;;;;
1441.0;1359.6;;;;-0.74077994;-0.008277894;-0.35782626;;;;;;;;;;;;;;;
1441.0;1359.6;;;;-0.7359238;-0.009536744;-0.35491565;;;;;;;;;;;;;;;
1442.0;1361.3;237703;237629;11640;;;;;;;;;;;;;;;;;;
1442.0;1363.0;;;;;;;;;;;;;;;;;21.626179;-29.48851;73.23298;;1274.7
1442.0;1363.0;;;;;;;;;;;;;;1.0466628;0.44709617;-0.14062929;;;;;1274.7
1442.0;1363.0;;;;;;;;;;;;;;;;;18.192846;-28.904844;72.06564;;1274.7
1442.0;1363.0;;;;;;;;;;;;;;1.0212713;0.4043092;-0.11810663;;;;;1274.7
1442.0;1363.0;;;;;;;;;;;;;;;;;15.091403;-29.728844;70.82583;;1284.4
1442.0;1363.0;;;;;;;;;;;;;;1.0093081;0.37501144;-0.107974485;;;;;1284.4
1442.0;1363.0;;;;;;;;;;;;;;;;;10.479293;-28.160954;69.9675;;1284.4
1442.0;1363.0;;;;;;;;;;;;;;0.9971008;0.3552965;-0.092837304;;;;;1284.4
1442.0;1363.0;;;;;;;;;;;;;;;;;5.9472947;-24.929806;69.75387;;1294.1
1442.0;1363.0;;;;;;;;;;;;;;0.9819636;0.33063754;-0.06402783;;;;;1294.1
1442.0;1363.0;;;;;;;;;;;;;;;;;2.517777;-21.393476;69.92553;;1294.1
1442.0;1363.0;;;;;;;;;;;;;;0.9569994;0.30909148;-0.019348735;;;;;1294.1
1442.0;1367.5;;;;;;;;;;;;;-12029;;;;;;;;
1442.0;1367.5;;;;;;;;;;;;;-9367;;;;;;;;
1442.0;1367.5;;;;;;;;;;;;;-6309;;;;;;;;
1442.0;1367.5;;;;;;;;;;;;;-4300;;;;;;;;
1442.0;1367.5;;;;;;;;;;;;;-3292;;;;;;;;
1442.0;1369.5;;;;-0.73136145;-0.011375428;-0.3519478;;;;;;;;;;;;;;;
1442.0;1369.5;;;;-0.7269288;-0.013038637;-0.34814075;;;;;;;;;;;;;;;
1442.0;1369.5;;;;-0.72243124;-0.014884951;-0.34431842;;;;;;;;;;;;;;;
1442.0;1369.5;;;;-0.7184029;-0.016757967;-0.34020236;;;;;;;;;;;;;;;
1442.0;1369.5;;;;-0.71467215;-0.018268587;-0.3349724;;;;;;;;;;;;;;;
1499.0;1378.1;;;;;;;;;;;;;;;;;0.11444441;-19.157995;69.841606;;1303.7
1499.0;1378.1;;;;;;;;;;;;;;0.928312;0.3054903;0.011108737;;;;;1303.7
1499.0;1378.1;;;;;;;;;;;;;;;;;-0.3662221;-20.466475;70.67323;;1303.7
1499.0;1378.1;;;;;;;;;;;;;;0.8818018;0.27307963;9.155553E-4;;;;;1303.7
1499.0;1378.1;;;;;;;;;;;;;;;;;-0.1411481;-23.796808;73.45424;;1313.4
1499.0;1378.1;;;;;;;;;;;;;;0.86538285;0.24701682;-0.036744285;;;;;1313.4
1499.0;1378.1;;;;;;;;;;;;;;;;;-1.4801477;-21.64144;75.00305;;1313.4
1499.0;1378.1;;;;;;;;;;;;;;0.8671529;0.20142217;-0.049745172;;;;;1313.4
1499.0;1378.1;;;;;;;;;;;;;;;;;-0.74007386;-14.469588;78.46308;;1323.0
1499.0;1378.1;;;;;;;;;;;;;;0.84194463;0.090701014;0.020447401;;;;;1323.0
1499.0;1378.1;;;;;;;;;;;;;;;;;2.2087772;-12.306589;78.82549;;1323.0
1499.0;1378.1;;;;;;;;;;;;;;0.8278451;0.0679342;0.069765314;;;;;1323.0
1499.0;1379.5;;;;-0.7110253;-0.019508364;-0.32924655;;;;;;;;;;;;;;;
1499.0;1379.5;;;;-0.70709234;-0.020420076;-0.324276;;;;;;;;;;;;;;;
1499.0;1379.5;;;;-0.70364004;-0.02112198;-0.31902316;;;;;;;;;;;;;;;
1499.0;1379.5;;;;-0.7001267;-0.022613527;-0.31457904;;;;;;;;;;;;;;;
1499.0;1379.5;;;;-0.6972199;-0.023838047;-0.3092461;;;;;;;;;;;;;;;
1499.0;1381.3;254024;254071;11657;;;;;;;;;;;;;;;;;;
1499.0;1389.4;;;;-0.6938973;-0.025119785;-0.30297855;;;;;;;;;;;;;;;
1499.0;1389.4;;;;-0.69053656;-0.026462559;-0.2969437;;;;;;;;;;;;;;;
1499.0;1389.4;;;;-0.68736273;-0.02852631;-0.29179004;;;;;;;;;;;;;;;
1499.0;1389.4;;;;-0.6838456;-0.030700687;-0.285759;;;;;;;;;;;;;;;
1499.0;1389.4;;;;-0.6808854;-0.033054356;-0.28078082;;;;;;;;;;;;;;;
1501.0;1399.4;;;;-0.6782189;-0.035923008;-0.27547076;;;;;;;;;;;;;;;
1501.0;1399.4;;;;-0.6757737;-0.039272312;-0.2712479;;;;;;;;;;;;;;;
1501.0;1399.4;;;;-0.6738625;-0.04276276;-0.26715854;;;;;;;;;;;;;;;
1501.0;1399.4;;;;-0.6724511;-0.045692448;-0.26188663;;;;;;;;;;;;;;;
1501.0;1399.4;;;;-0.6712037;-0.048641212;-0.2573929;;;;;;;;;;;;;;;
1501.0;1401.3;262143;262143;11663;;;;;;;;;;;;;;;;;;
1501.0;1407.6;;;;;;;;;;;;;-2244;;;;;;;;
1501.0;1407.6;;;;;;;;;;;;;-1013;;;;;;;;
1501.0;1407.6;;;;;;;;;;;;;-532;;;;;;;;
1501.0;1407.6;;;;;;;;;;;;;-967;;;;;;;;
1501.0;1407.6;;;;;;;;;;;;;-1854;;;;;;;;
1501.0;1409.6;;;;-0.6701966;-0.05186463;-0.25376514;;;;;;;;;;;;;;;
1501.0;1409.6;;;;-0.6691666;-0.054328926;-0.24987796;;;;;;;;;;;;;;;
1501.0;1409.6;;;;-0.66803366;-0.05646134;-0.24505237;;;;;;;;;;;;;;;
1501.0;1409.6;;;;-0.66715246;-0.058639534;-0.24094394;;;;;;;;;;;;;;;
1501.0;1409.6;;;;-0.6665688;-0.060508735;-0.23738101;;;;;;;;;;;;;;;
1501.0;1419.7;;;;-0.6665879;-0.061798103;-0.23302463;;;;;;;;;;;;;;;
1501.0;1419.7;;;;-0.66714865;-0.062767036;-0.22991183;;;;;;;;;;;;;;;
1501.0;1419.7;;;;-0.66777045;-0.06366349;-0.2299805;;;;;;;;;;;;;;;
1501.0;1419.7;;;;-0.6686631;-0.06496812;-0.22927096;;;;;;;;;;;;;;;
1501.0;1419.7;;;;-0.6689301;-0.066299446;-0.22722247;;;;;;;;;;;;;;;
1501.0;1421.6;262143;262143;11674;;;;;;;;;;;;;;;;;;
1504.0;1423.2;;;;;;;;;;;;;;;;;3.8377025;-13.9965515;79.538864;;1332.5
1504.0;1423.2;;;;;;;;;;;;;;0.81948304;0.032837916;0.022461623;;;;;1332.5
1504.0;1423.2;;;;;;;;;;;;;;;;;11.093478;-12.623219;84.2082;;1332.5
1504.0;1423.2;;;;;;;;;;;;;;0.80684835;-0.071413316;-0.017639698;;;;;1332.5
1504.0;1423.2;;;;;;;;;;;;;;;;;14.202551;-7.290109;84.261604;;1342.1
1504.0;1423.2;;;;;;;;;;;;;;0.80489516;-0.09009064;-0.010498367;;;;;1342.1
1504.0;1423.2;;;;;;;;;;;;;;;;;17.193365;-3.8033693;84.95972;;1342.1
1504.0;1423.2;;;;;;;;;;;;;;0.7734611;-0.08081301;0.01965392;;;;;1342.1
1504.0;1423.2;;;;;;;;;;;;;;;;;22.389141;-4.341258;85.997345;;1351.6
1504.0;1423.2;;;;;;;;;;;;;;0.7665639;-0.08252205;0.021607105;;;;;1351.6
1504.0;1423.2;;;;;;;;;;;;;;;;;29.80514;-5.2072206;87.05787;;1351.6
1504.0;1423.2;;;;;;;;;;;;;;0.77681816;-0.09533983;0.0049439985;;;;;1351.6
1504.0;1429.6;;;;-0.66870886;-0.0671692;-0.22500232;;;;;;;;;;;;;;;
1504.0;1429.6;;;;-0.6681519;-0.0681038;-0.22332385;;;;;;;;;;;;;;;
1504.0;1429.6;;;;-0.6675835;-0.06892396;-0.22172168;;;;;;;;;;;;;;;
1504.0;1429.6;;;;-0.66780096;-0.06961823;-0.22130588;;;;;;;;;;;;;;;
1504.0;1429.6;;;;-0.6679879;-0.070983894;-0.22186664;;;;;;;;;;;;;;;
1558.0;1438.3;;;;;;;;;;;;;;;;;37.217323;-3.318888;87.740715;;1361.3
1558.0;1438.3;;;;;;;;;;;;;;0.7747429;-0.09601123;0.0013428144;;;;;1361.3
1558.0;1438.3;;;;;;;;;;;;;;;;;41.94388;-0.5264443;87.14942;;1361.3
1558.0;1438.3;;;;;;;;;;;;;;0.76631975;-0.07916501;0.010803552;;;;;1361.3
1558.0;1438.3;;;;;;;;;;;;;;;;;47.39906;0.5302591;86.46275;;1371.0
1558.0;1438.3;;;;;;;;;;;;;;0.7624744;-0.06762902;0.013550218;;;;;1371.0
1558.0;1438.3;;;;;;;;;;;;;;;;;53.559986;0.7705924;85.53194;;1371.0
1558.0;1438.3;;;;;;;;;;;;;;0.76070434;-0.04449599;0.008301035;;;;;1371.0
1558.0;1438.3;;;;;;;;;;;;;;;;;60.243538;0.48448133;83.37275;;1380.6
1558.0;1438.3;;;;;;;;;;;;;;0.76186407;-7.9348125E-4;-0.008301035;;;;;1380.6
1558.0;1438.3;;;;;;;;;;;;;;;;;66.110725;0.63325906;81.0686;;1380.6
1558.0;1438.3;;;;;;;;;;;;;;0.7685171;0.053102206;-0.026062807;;;;;1380.6
1558.0;1439.5;;;;-0.66870505;-0.07207108;-0.22222903;;;;;;;;;;;;;;;
1558.0;1439.5;;;;-0.6699715;-0.07360078;-0.2234383;;;;;;;;;;;;;;;
1558.0;1439.5;;;;-0.6713181;-0.07491685;-0.22424701;;;;;;;;;;;;;;;
1558.0;1439.5;;;;-0.6734238;-0.07556916;-0.22549823;;;;;;;;;;;;;;;
1558.0;1439.5;;;;-0.67587286;-0.07635499;-0.22753909;;;;;;;;;;;;;;;
1558.0;1441.5;262143;262143;11659;;;;;;;;;;;;;;;;;;
1558.0;1447.6;;;;;;;;;;;;;-2981;;;;;;;;
1558.0;1447.6;;;;;;;;;;;;;-4548;;;;;;;;
1558.0;1447.6;;;;;;;;;;;;;-3649;;;;;;;;
1558.0;1447.6;;;;;;;;;;;;;584;;;;;;;;
1558.0;1447.6;;;;;;;;;;;;;-4529;;;;;;;;
1563.0;1449.5;;;;-0.6781426;-0.07717133;-0.22828677;;;;;;;;;;;;;;;
1563.0;1449.5;;;;-0.680729;-0.07725144;-0.22956088;;;;;;;;;;;;;;;
1563.0;1449.5;;;;-0.6842385;-0.07748414;-0.2308884;;;;;;;;;;;;;;;
1563.0;1449.5;;;;-0.6875878;-0.07735825;-0.23289493;;;;;;;;;;;;;;;
1563.0;1449.5;;;;-0.69092566;-0.076969154;-0.2351456;;;;;;;;;;;;;;;
1563.0;1459.5;;;;-0.69470984;-0.07579423;-0.23704913;;;;;;;;;;;;;;;
1563.0;1459.5;;;;-0.6995469;-0.07490159;-0.239975;;;;;;;;;;;;;;;
1563.0;1459.5;;;;-0.70366675;-0.073867805;-0.24238208;;;;;;;;;;;;;;;
1563.0;1459.5;;;;-0.7074776;-0.07300568;-0.24504855;;;;;;;;;;;;;;;
1563.0;1459.5;;;;-0.71127325;-0.071723945;-0.24709705;;;;;;;;;;;;;;;
1563.0;1461.5;262143;262143;11652;;;;;;;;;;;;;;;;;;
1563.0;1469.6;;;;-0.71459204;-0.07056046;-0.24934009;;;;;;;;;;;;;;;
1563.0;1469.6;;;;-0.718113;-0.068782814;-0.251236;;;;;;;;;;;;;;;
1563.0;1469.6;;;;-0.7218514;-0.06724549;-0.25286868;;;;;;;;;;;;;;;
1563.0;1469.6;;;;-0.7257691;-0.06557847;-0.2551346;;;;;;;;;;;;;;;
1563.0;1469.6;;;;-0.7294274;-0.06406785;-0.25652316;;;;;;;;;;;;;;;
1563.0;1479.7;;;;-0.7334481;-0.0624199;-0.25701526;;;;;;;;;;;;;;;
1563.0;1479.7;;;;-0.7372857;-0.06129075;-0.25775912;;;;;;;;;;;;;;;
1563.0;1479.7;;;;-0.740738;-0.060295112;-0.25812915;;;;;;;;;;;;;;;
1563.0;1479.7;;;;-0.7441407;-0.059356697;-0.25901034;;;;;;;;;;;;;;;
1563.0;1479.7;;;;-0.7482529;-0.059459694;-0.25990298;;;;;;;;;;;;;;;
1565.0;1481.8;262143;262143;11651;;;;;;;;;;;;;;;;;;
1565.0;1483.4;;;;;;;;;;;;;;;;;70.47868;0.3662221;79.11542;;1390.2
1565.0;1483.4;;;;;;;;;;;;;;0.7781609;0.07104709;-0.0672628;;;;;1390.2
1565.0;1483.4;;;;;;;;;;;;;;;;;74.22483;1.4229255;77.31865;;1390.2
1565.0;1483.4;;;;;;;;;;;;;;0.7953734;0.100161746;-0.088808864;;;;;1390.2
1565.0;1483.4;;;;;;;;;;;;;;;;;77.24998;2.822962;74.28968;;1399.8
1565.0;1483.4;;;;;;;;;;;;;;0.8022706;0.1518601;-0.087343976;;;;;1399.8
1565.0;1483.4;;;;;;;;;;;;;;;;;78.31049;1.4038514;71.95883;;1399.8
1565.0;1483.4;;;;;;;;;;;;;;0.81246376;0.20349742;-0.0994293;;;;;1399.8
1565.0;1483.4;;;;;;;;;;;;;;;;;77.715385;-0.6408887;70.56261;;1409.4
1565.0;1483.4;;;;;;;;;;;;;;0.8267464;0.23828852;-0.11322367;;;;;1409.4
1565.0;1483.4;;;;;;;;;;;;;;;;;75.09843;-2.5444808;69.39146;;1409.4
1565.0;1483.4;;;;;;;;;;;;;;0.8481704;0.2606891;-0.12359996;;;;;1409.4
1565.0;1487.9;;;;;;;;;;;;;-28130;;;;;;;;
1565.0;1487.9;;;;;;;;;;;;;-52954;;;;;;;;
1565.0;1487.9;;;;;;;;;;;;;-52386;;;;;;;;
1565.0;1487.9;;;;;;;;;;;;;-24629;;;;;;;;
1565.0;1487.9;;;;;;;;;;;;;3835;;;;;;;;
1565.0;1489.7;;;;-0.75267804;-0.05905915;-0.26137546;;;;;;;;;;;;;;;
1565.0;1489.7;;;;-0.75696576;-0.06000138;-0.26226047;;;;;;;;;;;;;;;
1565.0;1489.7;;;;-0.761963;-0.061035164;-0.26379016;;;;;;;;;;;;;;;
1565.0;1489.7;;;;-0.7675592;-0.061969765;-0.26451877;;;;;;;;;;;;;;;
1565.0;1489.7;;;;-0.77471554;-0.063026436;-0.26516345;;;;;;;;;;;;;;;
1617.0;1490.8;;;;;;;;;;;;;;;;;71.25309;-3.6584065;67.64428;;1419.1
1617.0;1490.8;;;;;;;;;;;;;;0.86269724;0.2806482;-0.13306071;;;;;1419.1
1617.0;1490.8;;;;;;;;;;;;;;;;;67.65572;-5.394147;64.31776;;1419.1
1617.0;1490.8;;;;;;;;;;;;;;0.8777123;0.34473708;-0.13013093;;;;;1419.1
1617.0;1490.8;;;;;;;;;;;;;;;;;59.80865;-7.0955534;62.631615;;1428.7
1617.0;1490.8;;;;;;;;;;;;;;0.8939482;0.3850215;-0.1307413;;;;;1428.7
1617.0;1490.8;;;;;;;;;;;;;;;;;50.45091;-8.190405;62.273018;;1428.7
1617.0;1490.8;;;;;;;;;;;;;;0.8925443;0.37934506;-0.11304056;;;;;1428.7
1617.0;1490.8;;;;;;;;;;;;;;;;;40.91769;-10.139774;60.419018;;1438.4
1617.0;1490.8;;;;;;;;;;;;;;0.9312418;0.39960936;-0.10547197;;;;;1438.4
1617.0;1490.8;;;;;;;;;;;;;;;;;30.537582;-9.823145;59.36613;;1438.4
1617.0;1490.8;;;;;;;;;;;;;;0.9213538;0.38734093;-0.11670278;;;;;1438.4
1617.0;1499.6;;;;-0.7825967;-0.06338883;-0.2665787;;;;;;;;;;;;;;;
1617.0;1499.6;;;;-0.7906343;-0.06316758;-0.26765826;;;;;;;;;;;;;;;
1617.0;1499.6;;;;-0.7994844;-0.06291581;-0.26882938;;;;;;;;;;;;;;;
1617.0;1499.6;;;;-0.8080827;-0.061687477;-0.26968005;;;;;;;;;;;;;;;
1617.0;1499.6;;;;-0.8159257;-0.06006623;-0.2707825;;;;;;;;;;;;;;;
1617.0;1501.7;262143;262143;11686;;;;;;;;;;;;;;;;;;
1617.0;1509.4;;;;-0.82299817;-0.05810166;-0.2718964;;;;;;;;;;;;;;;
1617.0;1509.4;;;;-0.8299371;-0.055683143;-0.2723427;;;;;;;;;;;;;;;
1617.0;1509.4;;;;-0.83599865;-0.05339051;-0.27273944;;;;;;;;;;;;;;;
1617.0;1509.4;;;;-0.84207547;-0.050697334;-0.2731171;;;;;;;;;;;;;;;
1617.0;1509.4;;;;-0.8467828;-0.04829789;-0.2737656;;;;;;;;;;;;;;;
1620.0;1519.4;;;;-0.85066617;-0.04558945;-0.27383426;;;;;;;;;;;;;;;
1620.0;1519.4;;;;-0.85520184;-0.043365482;-0.27391437;;;;;;;;;;;;;;;
1620.0;1519.4;;;;-0.860077;-0.04161072;-0.27500537;;;;;;;;;;;;;;;
1620.0;1519.4;;;;-0.86561596;-0.039962772;-0.27524188;;;;;;;;;;;;;;;
1620.0;1519.4;;;;-0.8715135;-0.038707737;-0.27655032;;;;;;;;;;;;;;;
1620.0;1521.6;262143;262143;11713;;;;;;;;;;;;;;;;;;
1620.0;1527.8;;;;;;;;;;;;;11523;;;;;;;;
1620.0;1527.8;;;;;;;;;;;;;4619;;;;;;;;
1620.0;1527.8;;;;;;;;;;;;;679;;;;;;;;
1620.0;1527.8;;;;;;;;;;;;;3003;;;;;;;;
1620.0;1527.8;;;;;;;;;;;;;3796;;;;;;;;
1620.0;1529.5;;;;-0.87710965;-0.038249973;-0.27791598;;;;;;;;;;;;;;;
1620.0;1529.5;;;;-0.882599;-0.037254337;-0.27887347;;;;;;;;;;;;;;;
1620.0;1529.5;;;;-0.88762295;-0.037586216;-0.27925876;;;;;;;;;;;;;;;
1620.0;1529.5;;;;-0.89240277;-0.03759766;-0.28047565;;;;;;;;;;;;;;;
1620.0;1529.5;;;;-0.8977624;-0.0378418;-0.2811127;;;;;;;;;;;;;;;
1620.0;1539.6;;;;-0.9037248;-0.037754063;-0.28153613;;;;;;;;;;;;;;;
1620.0;1539.6;;;;-0.9103242;-0.037822727;-0.28211978;;;;;;;;;;;;;;;
1620.0;1539.6;;;;-0.9176446;-0.037723545;-0.2833481;;;;;;;;;;;;;;;
1620.0;1539.6;;;;-0.9251863;-0.03774262;-0.2839966;;;;;;;;;;;;;;;
1620.0;1539.6;;;;-0.93260205;-0.03798676;-0.28473666;;;;;;;;;;;;;;;
1620.0;1541.9;262143;262143;11760;;;;;;;;;;;;;;;;;;
1622.0;1543.3;;;;;;;;;;;;;;;;;19.329662;-8.40785;57.90887;;1448.0
1622.0;1543.3;;;;;;;;;;;;;;0.91512805;0.39301735;-0.11023286;;;;;1448.0
1622.0;1543.3;;;;;;;;;;;;;;;;;9.125034;-9.411145;56.966614;;1448.0
1622.0;1543.3;;;;;;;;;;;;;;0.89870906;0.39002654;-0.13788262;;;;;1448.0
1622.0;1543.3;;;;;;;;;;;;;;;;;1.8387402;-10.494553;55.955685;;1457.6
1622.0;1543.3;;;;;;;;;;;;;;0.9009064;0.394055;-0.17285684;;;;;1457.6
1622.0;1543.3;;;;;;;;;;;;;;;;;-2.704703;-9.510331;54.971462;;1457.6
1622.0;1543.3;;;;;;;;;;;;;;0.89504683;0.39551988;-0.1734672;;;;;1457.6
1622.0;1543.3;;;;;;;;;;;;;;;;;-6.5462203;-8.697775;54.486984;;1467.3
1622.0;1543.3;;;;;;;;;;;;;;0.8931547;0.3820307;-0.14587848;;;;;1467.3
1622.0;1543.3;;;;;;;;;;;;;;;;;-10.361034;-9.376812;54.006317;;1467.3
1622.0;1543.3;;;;;;;;;;;;;;0.89980775;0.36237678;-0.13879818;;;;;1467.3
1622.0;1549.5;;;;-0.9402276;-0.03810883;-0.28512958;;;;;;;;;;;;;;;
1622.0;1549.5;;;;-0.9477235;-0.038616184;-0.2852135;;;;;;;;;;;;;;;
1622.0;1549.5;;;;-0.95508206;-0.038887028;-0.285656;;;;;;;;;;;;;;;
1622.0;1549.5;;;;-0.9625169;-0.03912354;-0.28685382;;;;;;;;;;;;;;;
1622.0;1549.5;;;;-0.96990216;-0.039451603;-0.2872887;;;;;;;;;;;;;;;
1678.0;1551.2;;;;;;;;;;;;;;;;;-12.798699;-10.616627;53.258614;;1476.8
1678.0;1551.2;;;;;;;;;;;;;;0.90676594;0.35102388;-0.15723136;;;;;1476.8
1678.0;1551.2;;;;;;;;;;;;;;;;;-14.328441;-11.593219;52.823727;;1476.8
1678.0;1551.2;;;;;;;;;;;;;;0.9171423;0.3279519;-0.19544053;;;;;1476.8
1678.0;1551.2;;;;;;;;;;;;;;;;;-15.179143;-10.85696;52.434616;;1486.5
1678.0;1551.2;;;;;;;;;;;;;;0.9196448;0.30591753;-0.22003846;;;;;1486.5
1678.0;1551.2;;;;;;;;;;;;;;;;;-15.297402;-9.201331;52.01117;;1486.5
1678.0;1551.2;;;;;;;;;;;;;;0.9170202;0.28321177;-0.2113712;;;;;1486.5
1678.0;1551.2;;;;;;;;;;;;;;;;;-14.4047365;-9.067812;51.339764;;1496.1
1678.0;1551.2;;;;;;;;;;;;;;0.91830194;0.27314067;-0.19721061;;;;;1496.1
1678.0;1551.2;;;;;;;;;;;;;;;;;-13.924069;-10.673849;50.626392;;1496.1
1678.0;1551.2;;;;;;;;;;;;;;0.9288614;0.26221505;-0.18799402;;;;;1496.1
1678.0;1559.4;;;;-0.9772645;-0.039394382;-0.28688815;;;;;;;;;;;;;;;
1678.0;1559.4;;;;-0.984192;-0.039714817;-0.28722003;;;;;;;;;;;;;;;
1678.0;1559.4;;;;-0.9921876;-0.040054325;-0.2873192;;;;;;;;;;;;;;;
1678.0;1559.4;;;;-0.9997407;-0.039932255;-0.28756717;;;;;;;;;;;;;;;
1678.0;1559.4;;;;-1.0086175;-0.03924561;-0.2878571;;;;;;;;;;;;;;;
1678.0;1561.6;262143;262143;11815;;;;;;;;;;;;;;;;;;
1678.0;1567.7;;;;;;;;;;;;;2254;;;;;;;;
1678.0;1567.7;;;;;;;;;;;;;1138;;;;;;;;
1678.0;1567.7;;;;;;;;;;;;;298;;;;;;;;
1678.0;1567.7;;;;;;;;;;;;;546;;;;;;;;
1678.0;1567.7;;;;;;;;;;;;;1967;;;;;;;;
1681.0;1569.3;;;;-1.0181276;-0.038364414;-0.2884064;;;;;;;;;;;;;;;
1681.0;1569.3;;;;-1.027443;-0.036682133;-0.28916934;;;;;;;;;;;;;;;
1681.0;1569.3;;;;-1.0373689;-0.035125736;-0.29075626;;;;;;;;;;;;;;;
1681.0;1569.3;;;;-1.0477983;-0.033760075;-0.29262927;;;;;;;;;;;;;;;
1681.0;1569.3;;;;-1.0586358;-0.031558994;-0.29370883;;;;;;;;;;;;;;;
1681.0;1579.4;;;;-1.0698739;-0.0287056;-0.29496005;;;;;;;;;;;;;;;
1681.0;1579.4;;;;-1.0807039;-0.025978092;-0.2960625;;;;;;;;;;;;;;;
1681.0;1579.4;;;;-1.091324;-0.022277834;-0.29774097;;;;;;;;;;;;;;;
1681.0;1579.4;;;;-1.1018106;-0.018188478;-0.30020145;;;;;;;;;;;;;;;
1681.0;1579.4;;;;-1.1117707;-0.013660433;-0.30185702;;;;;;;;;;;;;;;
1681.0;1581.7;262143;262143;11858;;;;;;;;;;;;;;;;;;
1681.0;1589.5;;;;-1.1208268;-0.00927353;-0.3036156;;;;;;;;;;;;;;;
1681.0;1589.5;;;;-1.1281015;-0.0035629277;-0.30459598;;;;;;;;;;;;;;;
1681.0;1589.5;;;;-1.1346666;0.0018844607;-0.30563357;;;;;;;;;;;;;;;
1681.0;1589.5;;;;-1.1399728;0.007019044;-0.30640033;;;;;;;;;;;;;;;
1681.0;1589.5;;;;-1.1448518;0.012207033;-0.30646518;;;;;;;;;;;;;;;
1681.0;1599.6;;;;-1.1488382;0.017330172;-0.30706027;;;;;;;;;;;;;;;
1681.0;1599.6;;;;-1.1519395;0.022586824;-0.3077431;;;;;;;;;;;;;;;
1681.0;1599.6;;;;-1.1543924;0.026966099;-0.30913928;;;;;;;;;;;;;;;
1681.0;1599.6;;;;-1.1573945;0.03175736;-0.31050494;;;;;;;;;;;;;;;
1681.0;1599.6;;;;-1.1607324;0.035968784;-0.31219104;;;;;;;;;;;;;;;
1682.0;1602.0;262143;262143;11907;;;;;;;;;;;;;;;;;;
1682.0;1608.1;;;;;;;;;;;;;3325;;;;;;;;
1682.0;1608.1;;;;;;;;;;;;;4049;;;;;;;;
1682.0;1608.1;;;;;;;;;;;;;4063;;;;;;;;
1682.0;1608.1;;;;;;;;;;;;;3653;;;;;;;;
1682.0;1608.1;;;;;;;;;;;;;2910;;;;;;;;
1682.0;1609.7;;;;-1.1650888;0.039516453;-0.3148537;;;;;;;;;;;;;;;
1682.0;1609.7;;;;-1.1707422;0.0430069;-0.31715015;;;;;;;;;;;;;;;
1682.0;1609.7;;;;-1.1777078;0.046478275;-0.3200951;;;;;;;;;;;;;;;
1682.0;1609.7;;;;-1.1850663;0.04922486;-0.3229027;;;;;;;;;;;;;;;
1682.0;1609.7;;;;-1.1918298;0.0518303;-0.3260155;;;;;;;;;;;;;;;
1682.0;1611.0;;;;;;;;;;;;;;;;;-14.22544;-12.680441;49.87869;;1505.7
1682.0;1611.0;;;;;;;;;;;;;;0.951384;0.2609943;-0.19452497;;;;;1505.7
1682.0;1611.0;;;;;;;;;;;;;;;;;-15.526292;-13.466292;49.226357;;1505.7
1682.0;1611.0;;;;;;;;;;;;;;0.9654225;0.2540971;-0.19104587;;;;;1505.7
1682.0;1611.0;;;;;;;;;;;;;;;;;-17.326883;-14.236885;48.478653;;1515.4
1682.0;1611.0;;;;;;;;;;;;;;0.9930723;0.24634542;-0.18628499;;;;;1515.4
1682.0;1611.0;;;;;;;;;;;;;;;;;-19.028292;-14.767144;47.81869;;1515.4
1682.0;1611.0;;;;;;;;;;;;;;1.0299997;0.24719992;-0.18707846;;;;;1515.4
1682.0;1611.0;;;;;;;;;;;;;;;;;-21.031069;-14.110995;47.196877;;1525.0
1682.0;1611.0;;;;;;;;;;;;;;1.0704672;0.24707785;-0.18274483;;;;;1525.0
1682.0;1611.0;;;;;;;;;;;;;;;;;-23.121586;-12.516403;46.586506;;1525.0
1682.0;1611.0;;;;;;;;;;;;;;1.1105685;0.255562;-0.17096469;;;;;1525.0
1738.0;1611.8;;;;;;;;;;;;;;;;;-25.418102;-11.101108;45.991394;;1534.7
1738.0;1611.8;;;;;;;;;;;;;;1.137669;0.26343578;-0.16113773;;;;;1534.7
1738.0;1611.8;;;;;;;;;;;;;;;;;-27.554398;-10.448774;45.152134;;1534.7
1738.0;1611.8;;;;;;;;;;;;;;1.1586047;0.2705771;-0.16583759;;;;;1534.7
1738.0;1611.8;;;;;;;;;;;;;;;;;-29.59151;-10.162663;44.30906;;1544.4
1738.0;1611.8;;;;;;;;;;;;;;1.1694692;0.27259132;-0.17255165;;;;;1544.4
1738.0;1611.8;;;;;;;;;;;;;;;;;-31.632435;-9.559923;43.28288;;1544.4
1738.0;1611.8;;;;;;;;;;;;;;1.1713004;0.28235725;-0.17590868;;;;;1544.4
1738.0;1611.8;;;;;;;;;;;;;;;;;-34.245583;-8.90759;42.0011;;1554.0
1738.0;1611.8;;;;;;;;;;;;;;1.1663564;0.29041412;-0.16797388;;;;;1554.0
1738.0;1611.8;;;;;;;;;;;;;;;;;-37.141026;-8.518478;41.180912;;1554.0
1738.0;1611.8;;;;;;;;;;;;;;1.1594592;0.2872402;-0.1511887;;;;;1554.0
1738.0;1619.5;;;;-1.1984979;0.054077156;-0.3285599;;;;;;;;;;;;;;;
1738.0;1619.5;;;;-1.2041589;0.056018837;-0.33140567;;;;;;;;;;;;;;;
1738.0;1619.5;;;;-1.2090951;0.058532722;-0.33443454;;;;;;;;;;;;;;;
1738.0;1619.5;;;;-1.2140962;0.060523994;-0.33680347;;;;;;;;;;;;;;;
1738.0;1619.5;;;;-1.2193719;0.06282044;-0.33837512;;;;;;;;;;;;;;;
1738.0;1621.9;262143;262143;11936;;;;;;;;;;;;;;;;;;
1738.0;1629.4;;;;-1.224907;0.06500245;-0.340992;;;;;;;;;;;;;;;
1738.0;1629.4;;;;-1.2302972;0.06723786;-0.34184268;;;;;;;;;;;;;;;
1738.0;1629.4;;;;-1.2360345;0.06904984;-0.34290698;;;;;;;;;;;;;;;
1738.0;1629.4;;;;-1.2406656;0.07052613;-0.3432732;;;;;;;;;;;;;;;
1738.0;1629.4;;;;-1.2447892;0.072349556;-0.34313968;;;;;;;;;;;;;;;
1740.0;1639.4;;;;-1.2477762;0.073658;-0.3419266;;;;;;;;;;;;;;;
1740.0;1639.4;;;;-1.2506067;0.07477952;-0.34106067;;;;;;;;;;;;;;;
1740.0;1639.4;;;;-1.2528993;0.07553864;-0.33964542;;;;;;;;;;;;;;;
1740.0;1639.4;;;;-1.2553788;0.07688523;-0.33746722;;;;;;;;;;;;;;;
1740.0;1639.4;;;;-1.257351;0.07772065;-0.33518603;;;;;;;;;;;;;;;
1740.0;1641.9;262143;262143;11957;;;;;;;;;;;;;;;;;;
1740.0;1648.0;;;;;;;;;;;;;1795;;;;;;;;
1740.0;1648.0;;;;;;;;;;;;;608;;;;;;;;
1740.0;1648.0;;;;;;;;;;;;;-362;;;;;;;;
1740.0;1648.0;;;;;;;;;;;;;-1190;;;;;;;;
1740.0;1648.0;;;;;;;;;;;;;-2036;;;;;;;;
1740.0;1649.5;;;;-1.2596589;0.078601845;-0.33223727;;;;;;;;;;;;;;;
1740.0;1649.5;;;;-1.2619478;0.0793686;-0.3296471;;;;;;;;;;;;;;;
1740.0;1649.5;;;;-1.264927;0.08010865;-0.32682422;;;;;;;;;;;;;;;
1740.0;1649.5;;;;-1.2678834;0.08032227;-0.32410815;;;;;;;;;;;;;;;
1740.0;1649.5;;;;-1.2713662;0.08096314;-0.32117465;;;;;;;;;;;;;;;
1740.0;1659.6;;;;-1.2753259;0.08167649;-0.31808856;;;;;;;;;;;;;;;
1740.0;1659.6;;;;-1.2788011;0.08184815;-0.31608585;;;;;;;;;;;;;;;
1740.0;1659.6;;;;-1.2823983;0.08239365;-0.3139954;;;;;;;;;;;;;;;
1740.0;1659.6;;;;-1.2858087;0.082500465;-0.31250003;;;;;;;;;;;;;;;
1740.0;1659.6;;;;-1.2895929;0.08369828;-0.31147006;;;;;;;;;;;;;;;
1740.0;1662.1;262143;262143;11980;;;;;;;;;;;;;;;;;;
1742.0;1663.6;;;;;;;;;;;;;;;;;-39.941097;-9.239479;39.963985;;1563.6
1742.0;1663.6;;;;;;;;;;;;;;1.1572008;0.3025605;-0.13489181;;;;;1563.6
1742.0;1663.6;;;;;;;;;;;;;;;;;-42.813656;-11.009553;39.34217;;1563.6
1742.0;1663.6;;;;;;;;;;;;;;1.1541489;0.29407635;-0.12329478;;;;;1563.6
1742.0;1663.6;;;;;;;;;;;;;;;;;-46.121098;-13.000885;38.71273;;1573.2
1742.0;1663.6;;;;;;;;;;;;;;1.1614124;0.28711814;-0.10034486;;;;;1573.2
1742.0;1663.6;;;;;;;;;;;;;;;;;-49.7528;-15.518662;38.270214;;1573.2
1742.0;1663.6;;;;;;;;;;;;;;1.1691641;0.27686393;-0.08239998;;;;;1573.2
1742.0;1663.6;;;;;;;;;;;;;;;;;-53.273872;-18.94055;38.010803;;1582.7
1742.0;1663.6;;;;;;;;;;;;;;1.1713004;0.2667928;-0.07892086;;;;;1582.7
1742.0;1663.6;;;;;;;;;;;;;;;;;-57.10776;-22.82403;37.9841;;1582.7
1742.0;1663.6;;;;;;;;;;;;;;1.1832637;0.25977355;-0.071779534;;;;;1582.7
1742.0;1669.6;;;;-1.2931482;0.08455659;-0.3103142;;;;;;;;;;;;;;;
1742.0;1669.6;;;;-1.2966844;0.08511735;-0.30994418;;;;;;;;;;;;;;;
1742.0;1669.6;;;;-1.3008462;0.08613206;-0.30977252;;;;;;;;;;;;;;;
1742.0;1669.6;;;;-1.3051492;0.08712006;-0.30963138;;;;;;;;;;;;;;;
1742.0;1669.6;;;;-1.3097078;0.08864594;-0.30970767;;;;;;;;;;;;;;;
1796.0;1671.5;;;;;;;;;;;;;;;;;-61.590168;-26.245918;37.69036;;1592.3
1796.0;1671.5;;;;;;;;;;;;;;1.19541;0.24396497;-0.07293924;;;;;1592.3
1796.0;1671.5;;;;;;;;;;;;;;;;;-65.79409;-28.263954;37.320324;;1592.3
1796.0;1671.5;;;;;;;;;;;;;;1.2173223;0.23377179;-0.0738548;;;;;1592.3
1796.0;1671.5;;;;;;;;;;;;;;;;;-69.54787;-29.423658;36.648914;;1602.0
1796.0;1671.5;;;;;;;;;;;;;;1.233253;0.22193061;-0.07647938;;;;;1602.0
1796.0;1671.5;;;;;;;;;;;;;;;;;-71.07761;-31.083101;36.023285;;1602.0
1796.0;1671.5;;;;;;;;;;;;;;1.2529069;0.20630513;-0.07794427;;;;;1602.0
1796.0;1671.5;;;;;;;;;;;;;;;;;-70.64653;-33.680992;34.424877;;1611.6
1796.0;1671.5;;;;;;;;;;;;;;1.2887967;0.19483016;-0.100833155;;;;;1611.6
1796.0;1671.5;;;;;;;;;;;;;;;;;-68.35001;-34.80636;32.528915;;1611.6
1796.0;1671.5;;;;;;;;;;;;;;1.3255409;0.19354838;-0.12939848;;;;;1611.6
1796.0;1679.4;;;;-1.3137819;0.09051133;-0.30975726;;;;;;;;;;;;;;;
1796.0;1679.4;;;;-1.3173944;0.091938026;-0.31048205;;;;;;;;;;;;;;;
1796.0;1679.4;;;;-1.3210069;0.09440614;-0.31026462;;;;;;;;;;;;;;;
1796.0;1679.4;;;;-1.3240701;0.09693529;-0.31073;;;;;;;;;;;;;;;
1796.0;1679.4;;;;-1.3270036;0.09939577;-0.3123131;;;;;;;;;;;;;;;
1796.0;1682.0;262143;262143;11971;;;;;;;;;;;;;;;;;;
1796.0;1688.0;;;;;;;;;;;;;-2587;;;;;;;;
1796.0;1688.0;;;;;;;;;;;;;-2407;;;;;;;;
1796.0;1688.0;;;;;;;;;;;;;-1675;;;;;;;;
1796.0;1688.0;;;;;;;;;;;;;-1085;;;;;;;;
1796.0;1688.0;;;;;;;;;;;;;-1014;;;;;;;;
1798.0;1689.4;;;;-1.3303796;0.10219194;-0.3139229;;;;;;;;;;;;;;;
1798.0;1689.4;;;;-1.3329278;0.10531999;-0.31523898;;;;;;;;;;;;;;;
1798.0;1689.4;;;;-1.3347665;0.107727066;-0.31691745;;;;;;;;;;;;;;;
1798.0;1689.4;;;;-1.3364183;0.1104622;-0.31946185;;;;;;;;;;;;;;;
1798.0;1689.4;;;;-1.3366891;0.113216415;-0.32187274;;;;;;;;;;;;;;;
1798.0;1699.4;;;;-1.3360063;0.116180435;-0.32431796;;;;;;;;;;;;;;;
1798.0;1699.4;;;;-1.3342782;0.11901857;-0.32701495;;;;;;;;;;;;;;;
1798.0;1699.4;;;;-1.3316499;0.1214142;-0.32896426;;;;;;;;;;;;;;;
1798.0;1699.4;;;;-1.3282472;0.124229446;-0.33140948;;;;;;;;;;;;;;;
1798.0;1699.4;;;;-1.3238221;0.12626268;-0.334034;;;;;;;;;;;;;;;
1798.0;1702.0;262143;262143;11990;;;;;;;;;;;;;;;;;;
1798.0;1709.5;;;;-1.3185121;0.12827303;-0.33565143;;;;;;;;;;;;;;;
1798.0;1709.5;;;;-1.3121568;0.12995912;-0.33726504;;;;;;;;;;;;;;;
1798.0;1709.5;;;;-1.3055154;0.13081361;-0.33923724;;;;;;;;;;;;;;;
1798.0;1709.5;;;;-1.2979356;0.13167192;-0.34033206;;;;;;;;;;;;;;;
1798.0;1709.5;;;;-1.2901841;0.13204958;-0.34066775;;;;;;;;;;;;;;;
1798.0;1719.6;;;;-1.2827073;0.13165285;-0.34115604;;;;;;;;;;;;;;;
1798.0;1719.6;;;;-1.2744371;0.13120653;-0.34120944;;;;;;;;;;;;;;;
1798.0;1719.6;;;;-1.265896;0.13079835;-0.34045032;;;;;;;;;;;;;;;
1798.0;1719.6;;;;-1.2569848;0.13093187;-0.33965686;;;;;;;;;;;;;;;
1798.0;1719.6;;;;-1.2480203;0.13063814;-0.33716205;;;;;;;;;;;;;;;
1815.0;1722.3;262143;262143;12006;;;;;;;;;;;;;;;;;;
1815.0;1723.8;;;;;;;;;;;;;;;;;-67.648094;-33.017212;29.995878;;1621.3
1815.0;1723.8;;;;;;;;;;;;;;1.3648487;0.19861446;-0.1561327;;;;;1621.3
1815.0;1723.8;;;;;;;;;;;;;;;;;-69.185455;-27.306437;27.855768;;1621.3
1815.0;1723.8;;;;;;;;;;;;;;1.4087955;0.19519639;-0.17468795;;;;;1621.3
1815.0;1723.8;;;;;;;;;;;;;;;;;-71.34083;-15.903959;24.491104;;1630.7
1815.0;1723.8;;;;;;;;;;;;;;1.4533525;0.19165625;-0.13580737;;;;;1630.7
1815.0;1723.8;;;;;;;;;;;;;;;;;-75.60961;-3.4447768;19.077885;;1630.7
1815.0;1723.8;;;;;;;;;;;;;;1.5121311;0.19544053;-0.08990753;;;;;1630.7
1815.0;1723.8;;;;;;;;;;;;;;;;;-79.72961;9.796441;11.082033;;1640.4
1815.0;1723.8;;;;;;;;;;;;;;1.5546739;0.20978424;-0.05145421;;;;;1640.4
1815.0;1723.8;;;;;;;;;;;;;;;;;-80.08438;20.920439;2.4605548;;1640.4
1815.0;1723.8;;;;;;;;;;;;;;1.6055788;0.22528763;-0.010620441;;;;;1640.4
1820.0;1724.5;;;;;;;;;;;;;;;;;-74.65209;23.75103;-6.8132577;;1650.1
1820.0;1724.5;;;;;;;;;;;;;;1.6528825;0.25580615;-0.0080568865;;;;;1650.1
1820.0;1724.5;;;;;;;;;;;;;;;;;-64.48561;23.148289;-14.023255;;1650.1
1820.0;1724.5;;;;;;;;;;;;;;1.6450697;0.27747428;-0.037415694;;;;;1650.1
1820.0;1724.5;;;;;;;;;;;;;;;;;-54.41832;22.534103;-21.19892;;1659.7
1820.0;1724.5;;;;;;;;;;;;;;1.5956297;0.30640584;-0.09454634;;;;;1659.7
1820.0;1724.5;;;;;;;;;;;;;;;;;-47.070988;24.712364;-27.3484;;1659.7
1820.0;1724.5;;;;;;;;;;;;;;1.5348979;0.31214333;-0.14886929;;;;;1659.7
1820.0;1724.5;;;;;;;;;;;;;;;;;-43.05399;28.95062;-33.150734;;1669.4
1820.0;1724.5;;;;;;;;;;;;;;1.4937589;0.28992584;-0.19666128;;;;;1669.4
1820.0;1724.5;;;;;;;;;;;;;;;;;-39.13236;35.832546;-40.53621;;1669.4
1820.0;1724.5;;;;;;;;;;;;;;1.4518876;0.26441237;-0.20484024;;;;;1669.4
1820.0;1728.2;;;;;;;;;;;;;-1014;;;;;;;;
1820.0;1728.2;;;;;;;;;;;;;-530;;;;;;;;
1820.0;1728.2;;;;;;;;;;;;;522;;;;;;;;
1820.0;1728.2;;;;;;;;;;;;;1973;;;;;;;;
1820.0;1728.2;;;;;;;;;;;;;3347;;;;;;;;
1820.0;1729.5;;;;-1.2383615;0.13025285;-0.3346558;;;;;;;;;;;;;;;
1820.0;1729.5;;;;-1.2277452;0.13037874;-0.33114627;;;;;;;;;;;;;;;
1820.0;1729.5;;;;-1.2165605;0.13088991;-0.3274918;;;;;;;;;;;;;;;
1820.0;1729.5;;;;-1.204094;0.13174821;-0.32304004;;;;;;;;;;;;;;;
1820.0;1729.5;;;;-1.1909677;0.1324463;-0.3177605;;;;;;;;;;;;;;;
1820.0;1739.4;;;;;;;;;;0.3357036;19.440292;-2.5254066;;;;;;;;;
1820.0;1739.4;;;;;;;1.0398877;0.026062807;-0.21686453;;;;;;;;;;;;
1820.0;1739.4;;;;;;;;;;5.7451096;30.735954;6.95822;;;;;;;;;
1820.0;1739.4;;;;;;;1.1905881;0.032471694;-0.26123846;;;;;;;;;;;;
1857.0;1739.5;;;;-1.176571;0.13305284;-0.3120003;;;;;;;;;;;;;;;
1857.0;1739.5;;;;-1.1617585;0.13346101;-0.30551532;;;;;;;;;;;;;;;
1857.0;1739.5;;;;-1.147461;0.13300325;-0.29846576;;;;;;;;;;;;;;;
1857.0;1739.5;;;;-1.1322137;0.13272096;-0.29090884;;;;;;;;;;;;;;;
1857.0;1739.5;;;;-1.1180536;0.13118364;-0.282486;;;;;;;;;;;;;;;
1857.0;1742.2;262143;262143;12016;;;;;;;;;;;;;;;;;;
1857.0;1748.9;;;;;;;;;;-3.357036;5.733665;-1.6098514;;;;;;;;;
1857.0;1748.9;;;;;;;1.2066408;0.033753473;-0.27643666;;;;;;;;;;;;
1857.0;1748.9;;;;;;;;;;2.010407;12.226479;7.7745905;;;;;;;;;
1857.0;1748.9;;;;;;;1.2172003;0.033082064;-0.29169592;;;;;;;;;;;;
1857.0;1749.4;;;;-1.104931;0.12948991;-0.27232364;;;;;;;;;;;;;;;
1857.0;1749.4;;;;-1.0911218;0.1271515;-0.2629204;;;;;;;;;;;;;;;
1857.0;1749.4;;;;-1.077057;0.12378694;-0.2546349;;;;;;;;;;;;;;;
1857.0;1749.4;;;;-1.0640603;0.11912538;-0.24682239;;;;;;;;;;;;;;;
1857.0;1749.4;;;;-1.0508157;0.11400606;-0.23988727;;;;;;;;;;;;;;;
1857.0;1758.3;;;;;;;;;;-0.48829615;9.43022;9.598072;;;;;;;;;
1857.0;1758.3;;;;;;;1.2246468;0.030884732;-0.30420852;;;;;;;;;;;;
1857.0;1758.3;;;;;;;;;;-8.709219;-29.065065;-9.479813;;;;;;;;;
1857.0;1758.3;;;;;;;1.231666;0.02294992;-0.31714836;;;;;;;;;;;;
1858.0;1759.3;;;;-1.0391198;0.10734941;-0.23306277;;;;;;;;;;;;;;;
1858.0;1759.3;;;;-1.0290452;0.1005974;-0.22731403;;;;;;;;;;;;;;;
1858.0;1759.3;;;;-1.0222436;0.09326554;-0.22208026;;;;;;;;;;;;;;;
1858.0;1759.3;;;;-1.0171014;0.08599091;-0.21722034;;;;;;;;;;;;;;;
1858.0;1759.3;;;;-1.013012;0.078788765;-0.21323016;;;;;;;;;;;;;;;
1858.0;1762.0;262143;262143;12008;;;;;;;;;;;;;;;;;;
1858.0;1767.9;;;;;;;;;;-12.058626;-32.17414;-8.659627;;;;;;;;;
1858.0;1767.9;;;;;;;1.2390515;0.016113773;-0.3291116;;;;;;;;;;;;
1858.0;1767.9;;;;;;;;;;-15.614033;-34.34095;-7.6715903;;;;;;;;;
1858.0;1767.9;;;;;;;1.2418592;0.009399701;-0.34119692;;;;;;;;;;;;
1858.0;1768.1;;;;;;;;;;;;;4295;;;;;;;;
1858.0;1768.1;;;;;;;;;;;;;4744;;;;;;;;
1858.0;1768.1;;;;;;;;;;;;;4562;;;;;;;;
1858.0;1768.1;;;;;;;;;;;;;3883;;;;;;;;
1858.0;1768.1;;;;;;;;;;;;;3309;;;;;;;;
1858.0;1769.4;;;;-1.0085908;0.07120133;-0.21003345;;;;;;;;;;;;;;;
1858.0;1769.4;;;;-1.0042306;0.06374741;-0.20548251;;;;;;;;;;;;;;;
1858.0;1769.4;;;;-1.0000573;0.05700303;-0.2019997;;;;;;;;;;;;;;;
1858.0;1769.4;;;;-0.9975625;0.05075837;-0.19937137;;;;;;;;;;;;;;;
1858.0;1769.4;;;;-0.99676144;0.045730595;-0.19601443;;;;;;;;;;;;;;;
1858.0;1777.5;;;;;;;;;;-19.329662;-27.504807;-0.82399976;;;;;;;;;
1858.0;1777.5;;;;;;;1.2455825;9.155553E-4;-0.35273293;;;;;;;;;;;;
1858.0;1777.5;;;;;;;;;;-21.19129;-17.792292;6.1380353;;;;;;;;;
1858.0;1777.5;;;;;;;1.2435682;-0.008789331;-0.36072877;;;;;;;;;;;;
1860.0;1779.5;;;;-0.99749005;0.04138184;-0.19408038;;;;;;;;;;;;;;;
1860.0;1779.5;;;;-0.99971783;0.03808594;-0.19252399;;;;;;;;;;;;;;;
1860.0;1779.5;;;;-1.0040208;0.03538132;-0.19197085;;;;;;;;;;;;;;;
1860.0;1779.5;;;;-1.009308;0.03408814;-0.19121173;;;;;;;;;;;;;;;
1860.0;1779.5;;;;-1.0150415;0.03317261;-0.19170001;;;;;;;;;;;;;;;
1860.0;1782.3;262143;262143;11984;;;;;;;;;;;;;;;;;;
1860.0;1783.8;;;;;;;;;;;;;;;;;-33.009583;41.348766;-49.264507;;1679.0
1860.0;1783.8;;;;;;;;;;;;;;1.4018372;0.25916317;-0.20606098;;;;;1679.0
1860.0;1783.8;;;;;;;;;;;;;;;;;-24.67803;45.129246;-58.149204;;1679.0
1860.0;1783.8;;;;;;;;;;;;;;1.3425093;0.27295756;-0.21814631;;;;;1679.0
1860.0;1783.8;;;;;;;;;;;;;;;;;-14.62981;48.726616;-67.3925;;1688.6
1860.0;1783.8;;;;;;;;;;;;;;1.2688986;0.2987762;-0.2118595;;;;;1688.6
1860.0;1783.8;;;;;;;;;;;;;;;;;-4.425184;50.710316;-76.91809;;1688.6
1860.0;1783.8;;;;;;;;;;;;;;1.1856441;0.32978302;-0.1688284;;;;;1688.6
1860.0;1783.8;;;;;;;;;;;;;;;;;3.2845547;48.40236;-86.45131;;1698.3
1860.0;1783.8;;;;;;;;;;;;;;1.0967742;0.35883662;-0.111514635;;;;;1698.3
1860.0;1783.8;;;;;;;;;;;;;;;;;8.674886;38.850063;-94.641716;;1698.3
1860.0;1783.8;;;;;;;;;;;;;;1.0104679;0.37720877;-0.07025361;;;;;1698.3
1861.0;1784.5;;;;;;;;;;;;;;;;;12.241737;20.432142;-103.07626;;1707.9
1861.0;1784.5;;;;;;;;;;;;;;0.9409467;0.3933836;-0.060365614;;;;;1707.9
1861.0;1784.5;;;;;;;;;;;;;;;;;12.207404;-0.5874813;-112.25089;;1707.9
1861.0;1784.5;;;;;;;;;;;;;;0.92080444;0.42823574;-0.0921659;;;;;1707.9
1861.0;1784.5;;;;;;;;;;;;;;;;;11.360515;-13.077182;-118.26304;;1717.6
1861.0;1784.5;;;;;;;;;;;;;;0.89059114;0.4115726;-0.12872708;;;;;1717.6
1861.0;1784.5;;;;;;;;;;;;;;;;;15.526292;-19.447922;-123.996704;;1717.6
1861.0;1784.5;;;;;;;;;;;;;;0.8944975;0.41572315;-0.11224708;;;;;1717.6
1861.0;1784.5;;;;;;;;;;;;;;;;;21.229439;-28.729362;-124.988556;;1727.1
1861.0;1784.5;;;;;;;;;;;;;;0.9405805;0.42213202;-0.06317332;;;;;1727.1
1861.0;1784.5;;;;;;;;;;;;;;;;;11.383404;-35.60747;-124.988556;;1727.1
1861.0;1784.5;;;;;;;;;;;;;;1.0077212;0.5014191;-0.02722251;;;;;1727.1
1861.0;1786.9;;;;;;;;;;-22.20603;-15.8391075;6.1761837;;;;;;;;;
1861.0;1786.9;;;;;;;1.238197;-0.02026429;-0.36713767;;;;;;;;;;;;
1861.0;1786.9;;;;;;;;;;-23.335215;-13.801995;5.9320354;;;;;;;;;
1861.0;1786.9;;;;;;;1.231727;-0.03180029;-0.37012848;;;;;;;;;;;;
1861.0;1789.4;;;;-1.0209047;0.032970432;-0.19216922;;;;;;;;;;;;;;;
1861.0;1789.4;;;;-1.0257303;0.032859806;-0.19189456;;;;;;;;;;;;;;;
1861.0;1789.4;;;;-1.029667;0.03343964;-0.19269946;;;;;;;;;;;;;;;
1861.0;1789.4;;;;-1.033085;0.034160618;-0.19354632;;;;;;;;;;;;;;;
1861.0;1789.4;;;;-1.0360681;0.0351944;-0.19443896;;;;;;;;;;;;;;;
1861.0;1796.5;;;;;;;;;;-24.498734;-11.684774;5.4361095;;;;;;;;;
1861.0;1796.5;;;;;;;1.2211066;-0.039429914;-0.37128818;;;;;;;;;;;;
1861.0;1796.5;;;;;;;;;;-25.879696;-9.395886;4.776147;;;;;;;;;
1861.0;1796.5;;;;;;;1.2099369;-0.045838803;-0.36902982;;;;;;;;;;;;
1915.0;1799.4;;;;-1.0383493;0.0361023;-0.19592288;;;;;;;;;;;;;;;
1915.0;1799.4;;;;-1.0395967;0.037269596;-0.19687656;;;;;;;;;;;;;;;
1915.0;1799.4;;;;-1.0405427;0.03849793;-0.19866183;;;;;;;;;;;;;;;
1915.0;1799.4;;;;-1.0404359;0.03931809;-0.20066836;;;;;;;;;;;;;;;
1915.0;1799.4;;;;-1.0384599;0.040225986;-0.20234302;;;;;;;;;;;;;;;
1915.0;1802.2;262143;262143;11972;;;;;;;;;;;;;;;;;;
1915.0;1806.0;;;;;;;;;;-27.279734;-7.0116277;3.9445176;;;;;;;;;
1915.0;1806.0;;;;;;;1.202002;-0.046998505;-0.3673818;;;;;;;;;;;;
1915.0;1806.0;;;;;;;;;;-28.763695;-4.3107395;3.0289621;;;;;;;;;
1915.0;1806.0;;;;;;;1.1960814;-0.046021912;-0.36298716;;;;;;;;;;;;
1915.0;1808.2;;;;;;;;;;;;;3504;;;;;;;;
1915.0;1808.2;;;;;;;;;;;;;4581;;;;;;;;
1915.0;1808.2;;;;;;;;;;;;;5730;;;;;;;;
1915.0;1808.2;;;;;;;;;;;;;6041;;;;;;;;
1915.0;1808.2;;;;;;;;;;;;;5531;;;;;;;;
1915.0;1809.4;;;;-1.0358888;0.04086304;-0.20416644;;;;;;;;;;;;;;;
1915.0;1809.4;;;;-1.0325242;0.041915897;-0.20608905;;;;;;;;;;;;;;;
1915.0;1809.4;;;;-1.0285188;0.042808536;-0.20820239;;;;;;;;;;;;;;;
1915.0;1809.4;;;;-1.0238382;0.043392185;-0.21105579;;;;;;;;;;;;;;;
1915.0;1809.4;;;;-1.0181924;0.044521336;-0.21308139;;;;;;;;;;;;;;;
1915.0;1815.5;;;;;;;;;;-30.247658;-1.33137;2.1591845;;;;;;;;;
1915.0;1815.5;;;;;;;1.1857662;-0.040467545;-0.35206154;;;;;;;;;;;;
1915.0;1815.5;;;;;;;;;;-31.73162;1.5488143;1.3771478;;;;;;;;;
1915.0;1815.5;;;;;;;1.1743523;-0.0369274;-0.34333324;;;;;;;;;;;;
1919.0;1819.4;;;;-1.0130883;0.045349125;-0.21566394;;;;;;;;;;;;;;;
1919.0;1819.4;;;;-1.0085832;0.04584885;-0.21791843;;;;;;;;;;;;;;;
1919.0;1819.4;;;;-1.0046693;0.04678345;-0.22013095;;;;;;;;;;;;;;;
1919.0;1819.4;;;;-1.0016557;0.04789353;-0.22248843;;;;;;;;;;;;;;;
1919.0;1819.4;;;;-0.99928296;0.049392708;-0.2249718;;;;;;;;;;;;;;;
1919.0;1822.3;262143;262143;11949;;;;;;;;;;;;;;;;;;
1919.0;1825.1;;;;;;;;;;-33.25373;4.5167394;0.6904813;;;;;;;;;
1919.0;1825.1;;;;;;;1.157567;-0.030640583;-0.33851132;;;;;;;;;;;;
1919.0;1825.1;;;;;;;;;;-34.634693;7.37785;0.11825922;;;;;;;;;
1919.0;1825.1;;;;;;;1.1429793;-0.026184881;-0.33094272;;;;;;;;;;;;
1919.0;1829.5;;;;-0.9976655;0.051143654;-0.22749713;;;;;;;;;;;;;;;
1919.0;1829.5;;;;-0.9963647;0.052360542;-0.22972873;;;;;;;;;;;;;;;
1919.0;1829.5;;;;-0.99520123;0.053485878;-0.23212054;;;;;;;;;;;;;;;
1919.0;1829.5;;;;-0.993889;0.054889686;-0.23471072;;;;;;;;;;;;;;;
1919.0;1829.5;;;;-0.9925233;0.056179054;-0.23659137;;;;;;;;;;;;;;;
1919.0;1834.7;;;;;;;;;;-35.82873;10.055849;-0.44251838;;;;;;;;;
1919.0;1834.7;;;;;;;1.1286355;-0.02252266;-0.3236793;;;;;;;;;;;;
1919.0;1834.7;;;;;;;;;;-36.854916;12.478255;-1.0719626;;;;;;;;;
1919.0;1834.7;;;;;;;1.116245;-0.02026429;-0.31733146;;;;;;;;;;;;
1921.0;1839.6;;;;-0.991295;0.057209022;-0.23871616;;;;;;;;;;;;;;;
1921.0;1839.6;;;;-0.99034894;0.05818177;-0.2406998;;;;;;;;;;;;;;;
1921.0;1839.6;;;;-0.989174;0.059696205;-0.2430115;;;;;;;;;;;;;;;
1921.0;1839.6;;;;-0.988083;0.06094361;-0.24499896;;;;;;;;;;;;;;;
1921.0;1839.6;;;;-0.9873048;0.062252052;-0.24624637;;;;;;;;;;;;;;;
1921.0;1842.5;262143;262143;11934;;;;;;;;;;;;;;;;;;
1921.0;1844.4;;;;;;;;;;;;;;;;;-8.945738;-44.312874;-124.988556;;1736.8
1921.0;1844.4;;;;;;;;;;;;;;1.1040987;0.5598926;-0.12140263;;;;;1736.8
1921.0;1844.4;;;;;;;;;;;;;;;;;-20.519882;-45.15595;-124.988556;;1736.8
1921.0;1844.4;;;;;;;;;;;;;;1.2142094;0.5955382;-0.22589801;;;;;1736.8
1921.0;1844.4;;;;;;;;;;;;;;;;;-27.218697;-27.2454;-124.988556;;1746.4
1921.0;1844.4;;;;;;;;;;;;;;1.2779931;0.59559923;-0.26996672;;;;;1746.4
1921.0;1844.4;;;;;;;;;;;;;;;;;-31.926178;-6.4012575;-124.988556;;1746.4
1921.0;1844.4;;;;;;;;;;;;;;1.2891018;0.5861995;-0.20722067;;;;;1746.4
1921.0;1844.4;;;;;;;;;;;;;;;;;-38.319805;-0.42725915;-124.95804;;1756.1
1921.0;1844.4;;;;;;;;;;;;;;1.2397839;0.45863217;-0.1605884;;;;;1756.1
1921.0;1844.4;;;;;;;;;;;;;;;;;-35.237434;-11.932737;-121.27293;;1756.1
1921.0;1844.4;;;;;;;;;;;;;;1.1929075;0.3071383;-0.17352824;;;;;1756.1
1921.0;1844.2;;;;;;;;;;-37.732323;14.95407;-1.5717032;;;;;;;;;
1921.0;1844.2;;;;;;;1.1005585;-0.017639698;-0.31354716;;;;;;;;;;;;
1921.0;1844.2;;;;;;;;;;-38.53725;17.296364;-2.0485551;;;;;;;;;
1921.0;1844.2;;;;;;;1.0894498;-0.014893033;-0.30878627;;;;;;;;;;;;
1926.0;1845.1;;;;;;;;;;;;;;;;;-23.617512;-40.627766;-114.11633;;1765.6
1926.0;1845.1;;;;;;;;;;;;;;1.1771599;0.20874661;-0.21503341;;;;;1765.6
1926.0;1845.1;;;;;;;;;;;;;;;;;-10.361034;-80.6566;-115.642265;;1765.6
1926.0;1845.1;;;;;;;;;;;;;;1.2534562;0.13672292;-0.36335337;;;;;1765.6
1926.0;1845.1;;;;;;;;;;;;;;;;;1.9302957;-110.156555;-115.44389;;1775.3
1926.0;1845.1;;;;;;;;;;;;;;1.3260292;0.076540425;-0.49201941;;;;;1775.3
1926.0;1845.1;;;;;;;;;;;;;;;;;-6.8132577;-119.41893;-118.84671;;1775.3
1926.0;1845.1;;;;;;;;;;;;;;1.3962828;0.013245033;-0.65266883;;;;;1775.3
1926.0;1845.1;;;;;;;;;;;;;;;;;-30.976288;-106.433304;-119.08323;;1784.9
1926.0;1845.1;;;;;;;;;;;;;;1.406354;-0.065981016;-0.7901853;;;;;1784.9
1926.0;1845.1;;;;;;;;;;;;;;;;;-54.280987;-76.86087;-117.53441;;1784.9
1926.0;1845.1;;;;;;;;;;;;;;1.3633229;-0.106387526;-0.8041017;;;;;1784.9
1926.0;1848.4;;;;;;;;;;;;;4926;;;;;;;;
1926.0;1848.4;;;;;;;;;;;;;4650;;;;;;;;
1926.0;1848.4;;;;;;;;;;;;;4632;;;;;;;;
1926.0;1848.4;;;;;;;;;;;;;4878;;;;;;;;
1926.0;1848.4;;;;;;;;;;;;;5403;;;;;;;;
1926.0;1849.5;;;;-0.9856912;0.06315232;-0.2476578;;;;;;;;;;;;;;;
1926.0;1849.5;;;;-0.98347485;0.06433106;-0.24863055;;;;;;;;;;;;;;;
1926.0;1849.5;;;;-0.9802133;0.06530381;-0.2481232;;;;;;;;;;;;;;;
1926.0;1849.5;;;;-0.9772302;0.06661988;-0.24758533;;;;;;;;;;;;;;;
1926.0;1849.5;;;;-0.97436535;0.06726075;-0.24778369;;;;;;;;;;;;;;;
1926.0;1853.7;;;;;;;;;;-39.098022;19.402143;-2.5368512;;;;;;;;;
1926.0;1853.7;;;;;;;1.0777307;-0.012817774;-0.3030488;;;;;;;;;;;;
1926.0;1853.7;;;;;;;;;;-39.525284;21.298105;-2.9564807;;;;;;;;;
1926.0;1853.7;;;;;;;1.0643024;-0.012024293;-0.301706;;;;;;;;;;;;
1976.0;1859.4;;;;-0.97133267;0.06816865;-0.24714664;;;;;;;;;;;;;;;
1976.0;1859.4;;;;-0.9683305;0.06900407;-0.24519351;;;;;;;;;;;;;;;
1976.0;1859.4;;;;-0.96559155;0.06979371;-0.24336246;;;;;;;;;;;;;;;
1976.0;1859.4;;;;-0.9625093;0.07026292;-0.241478;;;;;;;;;;;;;;;
1976.0;1859.4;;;;-0.9597856;0.071235664;-0.23897555;;;;;;;;;;;;;;;
1976.0;1862.4;262143;262143;11905;;;;;;;;;;;;;;;;;;
1976.0;1863.2;;;;;;;;;;-39.81521;22.957548;-3.38374;;;;;;;;;
1976.0;1863.2;;;;;;;1.0488602;-0.009399701;-0.29944763;;;;;;;;;;;;
1976.0;1863.2;;;;;;;;;;-39.971615;24.452957;-3.8186285;;;;;;;;;
1976.0;1863.2;;;;;;;1.0292672;-0.0110477;-0.3014008;;;;;;;;;;;;
1976.0;1869.5;;;;-0.9569665;0.07245637;-0.23578647;;;;;;;;;;;;;;;
1976.0;1869.5;;;;-0.954445;0.07319642;-0.2323952;;;;;;;;;;;;;;;
1976.0;1869.5;;;;-0.9519502;0.07447434;-0.22840503;;;;;;;;;;;;;;;
1976.0;1869.5;;;;-0.949566;0.07536317;-0.22462085;;;;;;;;;;;;;;;
1976.0;1869.5;;;;-0.9474336;0.076824196;-0.21867374;;;;;;;;;;;;;;;
1976.0;1872.6;;;;;;;;;;-40.166172;25.551622;-4.181036;;;;;;;;;
1976.0;1872.6;;;;;;;1.01236;-0.010559404;-0.30310982;;;;;;;;;;;;
1976.0;1872.6;;;;;;;;;;-40.13184;26.20014;-4.5129247;;;;;;;;;
1976.0;1872.6;;;;;;;0.9944151;-0.00982696;-0.3060396;;;;;;;;;;;;
1978.0;1879.5;;;;-0.9452821;0.07789994;-0.2112923;;;;;;;;;;;;;;;
1978.0;1879.5;;;;-0.942238;0.07918931;-0.2061539;;;;;;;;;;;;;;;
1978.0;1879.5;;;;-0.9386178;0.08028031;-0.20164874;;;;;;;;;;;;;;;
1978.0;1879.5;;;;-0.9336816;0.08127213;-0.19767383;;;;;;;;;;;;;;;
1978.0;1879.5;;;;-0.9275743;0.08186341;-0.19292071;;;;;;;;;;;;;;;
1978.0;1882.3;;;;;;;;;;-40.00595;26.814325;-4.776147;;;;;;;;;
1978.0;1882.3;;;;;;;0.97506636;-0.008728294;-0.3109836;;;;;;;;;;;;
1978.0;1882.3;;;;;;;;;;-39.716022;27.11951;-5.0050354;;;;;;;;;
1978.0;1882.3;;;;;;;0.9584643;-0.007080294;-0.31861323;;;;;;;;;;;;
1978.0;1882.5;262143;262143;11896;;;;;;;;;;;;;;;;;;
1978.0;1888.6;;;;;;;;;;;;;6020;;;;;;;;
1978.0;1888.6;;;;;;;;;;;;;6531;;;;;;;;
1978.0;1888.6;;;;;;;;;;;;;7135;;;;;;;;
1978.0;1888.6;;;;;;;;;;;;;8135;;;;;;;;
1978.0;1888.6;;;;;;;;;;;;;9018;;;;;;;;
1978.0;1889.6;;;;-0.91923916;0.08143998;-0.18856433;;;;;;;;;;;;;;;
1978.0;1889.6;;;;-0.91131985;0.08076859;-0.18552019;;;;;;;;;;;;;;;
1978.0;1889.6;;;;-0.904667;0.08000565;-0.18186189;;;;;;;;;;;;;;;
1978.0;1889.6;;;;-0.8989526;0.07848359;-0.17834093;;;;;;;;;;;;;;;
1978.0;1889.6;;;;-0.89320767;0.07730485;-0.175972;;;;;;;;;;;;;;;
1978.0;1891.9;;;;;;;;;;-39.407024;27.138586;-5.180517;;;;;;;;;
1978.0;1891.9;;;;;;;0.9427168;-0.003112888;-0.32227546;;;;;;;;;;;;
1978.0;1891.9;;;;;;;;;;-38.99884;26.871548;-5.287332;;;;;;;;;
1978.0;1891.9;;;;;;;0.92684716;9.765923E-4;-0.32721946;;;;;;;;;;;;
1979.0;1899.7;;;;-0.8874055;0.07567597;-0.17309572;;;;;;;;;;;;;;;
1979.0;1899.7;;;;-0.8811685;0.07376862;-0.17006303;;;;;;;;;;;;;;;
1979.0;1899.7;;;;-0.8745233;0.07177354;-0.16636278;;;;;;;;;;;;;;;
1979.0;1899.7;;;;-0.86740124;0.06924439;-0.16312791;;;;;;;;;;;;;;;
1979.0;1899.7;;;;-0.86029065;0.06671525;-0.1596985;;;;;;;;;;;;;;;
1979.0;1901.5;;;;;;;;;;-38.563953;26.287882;-5.272073;;;;;;;;;
1979.0;1901.5;;;;;;;0.9108554;0.0053102206;-0.32862332;;;;;;;;;;;;
1979.0;1901.5;;;;;;;;;;-38.090916;25.578325;-5.0851464;;;;;;;;;
1979.0;1901.5;;;;;;;0.8935209;0.0081179235;-0.331431;;;;;;;;;;;;
1979.0;1902.8;262143;262143;11897;;;;;;;;;;;;;;;;;;
1979.0;1904.1;;;;;;;;;;;;;;;;;-81.25553;-37.38136;-117.481;;1794.6
1979.0;1904.1;;;;;;;;;;;;;;1.300943;-0.08471938;-0.69411296;;;;;1794.6
1979.0;1904.1;;;;;;;;;;;;;;;;;-107.71508;-2.3537402;-111.45741;;1794.6
1979.0;1904.1;;;;;;;;;;;;;;1.2837917;-0.034119695;-0.5404218;;;;;1794.6
1979.0;1904.1;;;;;;;;;;;;;;;;;-122.23426;21.465958;-98.28868;;1804.1
1979.0;1904.1;;;;;;;;;;;;;;1.2853175;-0.02069155;-0.41242713;;;;;1804.1
1979.0;1904.1;;;;;;;;;;;;;;;;;-124.98474;45.163578;-88.46553;;1804.1
1979.0;1904.1;;;;;;;;;;;;;;1.2812891;-0.003418073;-0.28760645;;;;;1804.1
1979.0;1904.1;;;;;;;;;;;;;;;;;-124.988556;67.24372;-89.327675;;1813.6
1979.0;1904.1;;;;;;;;;;;;;;1.2765282;0.023499252;-0.17896055;;;;;1813.6
1979.0;1904.1;;;;;;;;;;;;;;;;;-124.988556;83.5139;-94.63027;;1813.6
1979.0;1904.1;;;;;;;;;;;;;;1.2988678;0.06323435;-0.12237922;;;;;1813.6
1983.0;1904.8;;;;;;;;;;;;;;;;;-124.988556;95.02701;-102.134;;1823.2
1983.0;1904.8;;;;;;;;;;;;;;1.276162;0.120365;-0.043946654;;;;;1823.2
1983.0;1904.8;;;;;;;;;;;;;;;;;-124.988556;96.36601;-116.386154;;1823.2
1983.0;1904.8;;;;;;;;;;;;;;1.2241584;0.18463698;0.01739555;;;;;1823.2
1983.0;1904.8;;;;;;;;;;;;;;;;;-124.988556;84.49431;-124.59563;;1832.8
1983.0;1904.8;;;;;;;;;;;;;;1.1521348;0.32483903;0.11969359;;;;;1832.8
1983.0;1904.8;;;;;;;;;;;;;;;;;-124.988556;61.6245;-124.988556;;1832.8
1983.0;1904.8;;;;;;;;;;;;;;1.093112;0.44050416;0.14532915;;;;;1832.8
1983.0;1904.8;;;;;;;;;;;;;;;;;-118.236336;37.70562;-124.988556;;1842.4
1983.0;1904.8;;;;;;;;;;;;;;1.0863979;0.5281533;0.09289835;;;;;1842.4
1983.0;1904.8;;;;;;;;;;;;;;;;;-97.6249;27.687918;-124.96567;;1842.4
1983.0;1904.8;;;;;;;;;;;;;;1.0716269;0.5258339;0.04791406;;;;;1842.4
1983.0;1909.5;;;;-0.8529664;0.06388856;-0.15620042;;;;;;;;;;;;;;;
1983.0;1909.5;;;;-0.8449899;0.061206825;-0.15306474;;;;;;;;;;;;;;;
1983.0;1909.5;;;;-0.83762753;0.058471687;-0.14927675;;;;;;;;;;;;;;;
1983.0;1909.5;;;;-0.83049786;0.05514527;-0.14580156;;;;;;;;;;;;;;;
1983.0;1909.5;;;;-0.82299817;0.052021034;-0.14293672;;;;;;;;;;;;;;;
1983.0;1910.8;;;;;;;;;;-37.541584;24.834436;-4.9211097;;;;;;;;;
1983.0;1910.8;;;;;;;0.8822291;0.0112308115;-0.33478805;;;;;;;;;;;;
1983.0;1910.8;;;;;;;;;;-37.038025;23.945585;-4.688406;;;;;;;;;
1983.0;1910.8;;;;;;;0.872219;0.015442366;-0.3366802;;;;;;;;;;;;
2036.0;1919.4;;;;-0.8163682;0.048904426;-0.13933565;;;;;;;;;;;;;;;
2036.0;1919.4;;;;-0.81004345;0.045692448;-0.13554002;;;;;;;;;;;;;;;
2036.0;1919.4;;;;-0.8045007;0.042808536;-0.13237382;;;;;;;;;;;;;;;
2036.0;1919.4;;;;-0.7999269;0.04006577;-0.12937547;;;;;;;;;;;;;;;
2036.0;1919.4;;;;-0.7949678;0.037040714;-0.12545778;;;;;;;;;;;;;;;
2036.0;1920.3;;;;;;;;;;-36.507767;23.05292;-4.226814;;;;;;;;;
2036.0;1920.3;;;;;;;0.8633076;0.017761772;-0.33967102;;;;;;;;;;;;
2036.0;1920.3;;;;;;;;;;-35.939358;22.045809;-3.765221;;;;;;;;;
2036.0;1920.3;;;;;;;0.8564104;0.020996734;-0.34058657;;;;;;;;;;;;
2036.0;1922.6;262143;262143;11890;;;;;;;;;;;;;;;;;;
2036.0;1928.5;;;;;;;;;;;;;8894;;;;;;;;
2036.0;1928.5;;;;;;;;;;;;;7856;;;;;;;;
2036.0;1928.5;;;;;;;;;;;;;7036;;;;;;;;
2036.0;1928.5;;;;;;;;;;;;;7262;;;;;;;;
2036.0;1928.5;;;;;;;;;;;;;7798;;;;;;;;
2036.0;1929.5;;;;-0.7904397;0.034084324;-0.12275697;;;;;;;;;;;;;;;
2036.0;1929.5;;;;-0.785637;0.031600956;-0.12049867;;;;;;;;;;;;;;;
2036.0;1929.5;;;;-0.78081906;0.029304508;-0.11721422;;;;;;;;;;;;;;;
2036.0;1929.5;;;;-0.7757875;0.02687836;-0.114273086;;;;;;;;;;;;;;;
2036.0;1929.5;;;;-0.7700006;0.024681095;-0.11205675;;;;;;;;;;;;;;;
2036.0;1929.9;;;;;;;;;;-35.328987;20.790735;-3.2044435;;;;;;;;;
2036.0;1929.9;;;;;;;0.8487808;0.020447401;-0.33912167;;;;;;;;;;;;
2036.0;1929.9;;;;;;;;;;-34.699543;19.611956;-2.5749993;;;;;;;;;
2036.0;1929.9;;;;;;;0.8360851;0.02008118;-0.3386334;;;;;;;;;;;;
2038.0;1939.3;;;;;;;;;;-34.119694;18.471329;-1.9569995;;;;;;;;;
2038.0;1939.3;;;;;;;0.8262581;0.017883847;-0.3344218;;;;;;;;;;;;
2038.0;1939.3;;;;;;;;;;-33.516956;17.281105;-1.3962218;;;;;;;;;
2038.0;1939.3;;;;;;;0.81496626;0.014831996;-0.33295694;;;;;;;;;;;;
2038.0;1939.4;;;;-0.7642709;0.022960665;-0.11002733;;;;;;;;;;;;;;;
2038.0;1939.4;;;;-0.7592622;0.02056885;-0.107994094;;;;;;;;;;;;;;;
2038.0;1939.4;;;;-0.7547456;0.018180849;-0.10709764;;;;;;;;;;;;;;;
2038.0;1939.4;;;;-0.75049603;0.015663149;-0.10657884;;;;;;;;;;;;;;;
2038.0;1939.4;;;;-0.7470704;0.013175966;-0.10708238;;;;;;;;;;;;;;;
2038.0;1942.6;262143;262143;11874;;;;;;;;;;;;;;;;;;
2038.0;1948.9;;;;;;;;;;-32.876064;16.08707;-0.96514785;;;;;;;;;
2038.0;1948.9;;;;;;;0.80471206;0.012939848;-0.32959992;;;;;;;;;;;;
2038.0;1948.9;;;;;;;;;;-32.280952;14.946441;-0.4997406;;;;;;;;;
2038.0;1948.9;;;;;;;0.7905515;0.009277627;-0.32319102;;;;;;;;;;;;
2038.0;1949.6;;;;-0.7445031;0.010498048;-0.106971756;;;;;;;;;;;;;;;
2038.0;1949.6;;;;-0.741684;0.0076942453;-0.10749437;;;;;;;;;;;;;;;
2038.0;1949.6;;;;-0.7388573;0.0051689153;-0.108692184;;;;;;;;;;;;;;;
2038.0;1949.6;;;;-0.7360192;0.002536774;-0.10990526;;;;;;;;;;;;;;;
2038.0;1949.6;;;;-0.7328988;6.065369E-4;-0.111511245;;;;;;;;;;;;;;;
2038.0;1958.6;;;;;;;;;;-31.712547;13.874477;-0.110629596;;;;;;;;;
2038.0;1958.6;;;;;;;0.7763298;0.008484146;-0.31708732;;;;;;;;;;;;
2038.0;1958.6;;;;;;;;;;-31.159399;12.882626;0.19837031;;;;;;;;;
2038.0;1958.6;;;;;;;0.76363415;0.0074465163;-0.31025118;;;;;;;;;;;;
2039.0;1959.7;;;;-0.7293015;-0.0022163393;-0.11299135;;;;;;;;;;;;;;;
2039.0;1959.7;;;;-0.72583395;-0.004554749;-0.11488344;;;;;;;;;;;;;;;
2039.0;1959.7;;;;-0.7228356;-0.007522584;-0.11751939;;;;;;;;;;;;;;;
2039.0;1959.7;;;;-0.7198258;-0.010295869;-0.1201935;;;;;;;;;;;;;;;
2039.0;1959.7;;;;-0.7174378;-0.013088228;-0.12305452;;;;;;;;;;;;;;;
2039.0;1962.9;262143;262143;11837;;;;;;;;;;;;;;;;;;
2039.0;1964.7;;;;;;;;;;;;;;;;;-89.69771;29.023104;-122.367775;;1852.1
2039.0;1964.7;;;;;;;;;;;;;;1.0724205;0.41987365;-0.009033479;;;;;1852.1
2039.0;1964.7;;;;;;;;;;;;;;;;;-93.48964;37.923065;-117.893005;;1852.1
2039.0;1964.7;;;;;;;;;;;;;;1.0872524;0.2946257;-0.04589984;;;;;1852.1
2039.0;1964.7;;;;;;;;;;;;;;;;;-98.63964;46.78106;-119.09849;;1861.7
2039.0;1964.7;;;;;;;;;;;;;;1.0901212;0.19507432;-0.06317332;;;;;1861.7
2039.0;1964.7;;;;;;;;;;;;;;;;;-103.37;50.115208;-121.53615;;1861.7
2039.0;1964.7;;;;;;;;;;;;;;1.0725425;0.104373306;-0.1163976;;;;;1861.7
2039.0;1964.7;;;;;;;;;;;;;;;;;-102.32093;48.970764;-124.11496;;1871.4
2039.0;1964.7;;;;;;;;;;;;;;1.0438551;0.04992828;-0.15588854;;;;;1871.4
2039.0;1964.7;;;;;;;;;;;;;;;;;-97.23197;42.65343;-124.11496;;1871.4
2039.0;1964.7;;;;;;;;;;;;;;1.0197455;0.012451552;-0.19037446;;;;;1871.4
2040.0;1965.5;;;;;;;;;;;;;;;;;-91.414375;37.88873;-123.27952;;1881.1
2040.0;1965.5;;;;;;;;;;;;;;0.9916074;-0.012329478;-0.22547075;;;;;1881.1
2040.0;1965.5;;;;;;;;;;;;;;;;;-83.67794;41.398357;-122.66533;;1881.1
2040.0;1965.5;;;;;;;;;;;;;;0.9389325;-0.023987548;-0.20966215;;;;;1881.1
2040.0;1965.5;;;;;;;;;;;;;;;;;-76.97531;50.626392;-119.38078;;1890.8
2040.0;1965.5;;;;;;;;;;;;;;0.8932157;-0.060121465;-0.1518601;;;;;1890.8
2040.0;1965.5;;;;;;;;;;;;;;;;;-73.66787;60.045166;-112.136444;;1890.8
2040.0;1965.5;;;;;;;;;;;;;;0.844203;-0.088808864;-0.07818842;;;;;1890.8
2040.0;1965.5;;;;;;;;;;;;;;;;;-72.851494;65.32106;-110.33967;;1900.5
2040.0;1965.5;;;;;;;;;;;;;;0.8310801;-0.103946045;-0.03357036;;;;;1900.5
2040.0;1965.5;;;;;;;;;;;;;;;;;-68.22031;67.2132;-110.62959;;1900.5
2040.0;1965.5;;;;;;;;;;;;;;0.8335826;-0.07849361;0.0044557024;;;;;1900.5
2040.0;1968.1;;;;;;;;;;-30.743584;11.890775;0.4196295;;;;;;;;;
2040.0;1968.1;;;;;;;0.7491684;0.008545183;-0.3030488;;;;;;;;;;;;
2040.0;1968.1;;;;;;;;;;-30.388805;10.807367;0.5836665;;;;;;;;;
2040.0;1968.1;;;;;;;0.73537403;0.010742515;-0.29554126;;;;;;;;;;;;
2040.0;1968.8;;;;;;;;;;;;;7407;;;;;;;;
2040.0;1968.8;;;;;;;;;;;;;6140;;;;;;;;
2040.0;1968.8;;;;;;;;;;;;;4681;;;;;;;;
2040.0;1968.8;;;;;;;;;;;;;3154;;;;;;;;
2040.0;1968.8;;;;;;;;;;;;;1510;;;;;;;;
2040.0;1969.6;;;;-0.7156983;-0.016506197;-0.12614061;;;;;;;;;;;;;;;
2040.0;1969.6;;;;-0.71490484;-0.019836428;-0.12998582;;;;;;;;;;;;;;;
2040.0;1969.6;;;;-0.7151986;-0.02385712;-0.13360597;;;;;;;;;;;;;;;
2040.0;1969.6;;;;-0.7157441;-0.027141575;-0.13743974;;;;;;;;;;;;;;;
2040.0;1969.6;;;;-0.7172852;-0.030845646;-0.14167787;;;;;;;;;;;;;;;
2099.0;1977.6;;;;;;;;;;-30.102694;9.716331;0.69429606;;;;;;;;;
2099.0;1977.6;;;;;;;0.72328866;0.015198218;-0.28833887;;;;;;;;;;;;
2099.0;1977.6;;;;;;;;;;-30.030212;8.644367;0.6981109;;;;;;;;;
2099.0;1977.6;;;;;;;0.7150487;0.018311106;-0.27619252;;;;;;;;;;;;
2099.0;1979.6;;;;-0.71915823;-0.03392029;-0.14581682;;;;;;;;;;;;;;;
2099.0;1979.6;;;;-0.7210923;-0.03740311;-0.14956667;;;;;;;;;;;;;;;
2099.0;1979.6;;;;-0.72365195;-0.040550236;-0.15345766;;;;;;;;;;;;;;;
2099.0;1979.6;;;;-0.7270585;-0.04375458;-0.15752794;;;;;;;;;;;;;;;
2099.0;1979.6;;;;-0.7309914;-0.0461731;-0.16230394;;;;;;;;;;;;;;;
2099.0;1982.9;262143;262143;11793;;;;;;;;;;;;;;;;;;
2099.0;1987.1;;;;;;;;;;-29.896696;7.5800347;0.65614796;;;;;;;;;
2099.0;1987.1;;;;;;;0.7041841;0.018799402;-0.26618245;;;;;;;;;;;;
2099.0;1987.1;;;;;;;;;;-29.740288;6.9277015;0.54933316;;;;;;;;;
2099.0;1987.1;;;;;;;0.69338053;0.023804437;-0.25336465;;;;;;;;;;;;
2099.0;1989.6;;;;-0.73577505;-0.048385628;-0.16767503;;;;;;;;;;;;;;;
2099.0;1989.6;;;;-0.7419396;-0.05020524;-0.17214204;;;;;;;;;;;;;;;
2099.0;1989.6;;;;-0.7481232;-0.05137635;-0.1756096;;;;;;;;;;;;;;;
2099.0;1989.6;;;;-0.7550584;-0.052604683;-0.17977525;;;;;;;;;;;;;;;
2099.0;1989.6;;;;-0.76210034;-0.053314216;-0.183033;;;;;;;;;;;;;;;
2099.0;1996.5;;;;;;;;;;-29.644918;6.5881834;0.37003693;;;;;;;;;
2099.0;1996.5;;;;;;;0.68660545;0.026367992;-0.24085207;;;;;;;;;;;;
2099.0;1996.5;;;;;;;;;;-29.660177;6.187628;0.25940734;;;;;;;;;
2099.0;1996.5;;;;;;;0.6785485;0.03216651;-0.22717978;;;;;;;;;;;;
2101.0;1999.5;;;;-0.7687379;-0.054348;-0.18638612;;;;;;;;;;;;;;;
2101.0;1999.5;;;;-0.77539456;-0.05492402;-0.18960193;;;;;;;;;;;;;;;
2101.0;1999.5;;;;-0.78196347;-0.055061348;-0.19318011;;;;;;;;;;;;;;;
2101.0;1999.5;;;;-0.78805554;-0.055343635;-0.19633868;;;;;;;;;;;;;;;
2101.0;1999.5;;;;-0.79431546;-0.055999763;-0.19951633;;;;;;;;;;;;;;;
2101.0;2002.9;262143;262143;11768;;;;;;;;;;;;;;;;;;
2101.0;2006.1;;;;;;;;;;-29.698326;5.771813;0.18692587;;;;;;;;;
2101.0;2006.1;;;;;;;0.67195654;0.03851436;-0.21539964;;;;;;;;;;;;
2101.0;2006.1;;;;;;;;;;-29.694511;5.3979616;0.034333322;;;;;;;;;
2101.0;2006.1;;;;;;;0.6662801;0.04565569;-0.20526749;;;;;;;;;;;;
2101.0;2008.9;;;;;;;;;;;;;2884;;;;;;;;
2101.0;2008.9;;;;;;;;;;;;;6703;;;;;;;;
2101.0;2008.9;;;;;;;;;;;;;-1473;;;;;;;;
2101.0;2008.9;;;;;;;;;;;;;-29465;;;;;;;;
2101.0;2008.9;;;;;;;;;;;;;-56668;;;;;;;;
2101.0;2009.6;;;;-0.80090725;-0.056011207;-0.20335773;;;;;;;;;;;;;;;
2101.0;2009.6;;;;-0.8081819;-0.056575783;-0.2068558;;;;;;;;;;;;;;;
2101.0;2009.6;;;;-0.8156663;-0.056430824;-0.21089938;;;;;;;;;;;;;;;
2101.0;2009.6;;;;-0.82389843;-0.056316383;-0.21434024;;;;;;;;;;;;;;;
2101.0;2009.6;;;;-0.83213055;-0.056011207;-0.21826938;;;;;;;;;;;;;;;
2101.0;2015.7;;;;;;;;;;-29.721214;5.1538134;-0.24796289;;;;;;;;;
2101.0;2015.7;;;;;;;0.6621906;0.053712577;-0.19544053;;;;;;;;;;;;
2101.0;2015.7;;;;;;;;;;-29.774622;5.043184;-0.6447035;;;;;;;;;
2101.0;2015.7;;;;;;;0.659444;0.060121465;-0.18414868;;;;;;;;;;;;
2102.0;2019.8;;;;-0.8412477;-0.054817207;-0.22197345;;;;;;;;;;;;;;;
2102.0;2019.8;;;;-0.8503305;-0.05364228;-0.22539523;;;;;;;;;;;;;;;
2102.0;2019.8;;;;-0.8588487;-0.051761635;-0.22823718;;;;;;;;;;;;;;;
2102.0;2019.8;;;;-0.8680459;-0.04982377;-0.23078158;;;;;;;;;;;;;;;
2102.0;2019.8;;;;-0.8771173;-0.04791642;-0.23355487;;;;;;;;;;;;;;;
2102.0;2023.1;262143;262143;11762;;;;;;;;;;;;;;;;;;
2102.0;2024.4;;;;;;;;;;;;;;;;;-63.737907;68.30805;-112.235634;;1910.1
2102.0;2024.4;;;;;;;;;;;;;;0.83962524;0.018860439;0.03936888;;;;;1910.1
2102.0;2024.4;;;;;;;;;;;;;;;;;-61.433758;68.5522;-111.57185;;1910.1
2102.0;2024.4;;;;;;;;;;;;;;0.8247322;0.06079287;0.03381451;;;;;1910.1
2102.0;2024.4;;;;;;;;;;;;;;;;;-57.355724;67.88079;-110.271;;1919.8
2102.0;2024.4;;;;;;;;;;;;;;0.7894528;0.09289835;0.03070162;;;;;1919.8
2102.0;2024.4;;;;;;;;;;;;;;;;;-56.642353;64.68017;-112.07541;;1919.8
2102.0;2024.4;;;;;;;;;;;;;;0.77785575;0.20892972;0.0056154057;;;;;1919.8
2102.0;2024.4;;;;;;;;;;;;;;;;;-59.07239;61.53676;-111.36967;;1929.3
2102.0;2024.4;;;;;;;;;;;;;;0.7779168;0.28125858;-0.033936583;;;;;1929.3
2102.0;2024.4;;;;;;;;;;;;;;;;;-61.708427;61.10187;-108.95871;;1929.3
2102.0;2024.4;;;;;;;;;;;;;;0.78560746;0.31250954;-0.058046207;;;;;1929.3
2103.0;2025.3;;;;;;;;;;;;;;;;;-65.527054;59.812466;-106.86438;;1938.9
2103.0;2025.3;;;;;;;;;;;;;;0.79824215;0.34687337;-0.06207465;;;;;1938.9
2103.0;2025.3;;;;;;;;;;;;;;;;;-71.63838;58.88928;-104.35804;;1938.9
2103.0;2025.3;;;;;;;;;;;;;;0.8117924;0.36976227;-0.05468917;;;;;1938.9
2103.0;2025.3;;;;;;;;;;;;;;;;;-76.651054;57.363354;-100.7149;;1948.5
2103.0;2025.3;;;;;;;;;;;;;;0.8117924;0.37525558;-0.014709922;;;;;1948.5
2103.0;2025.3;;;;;;;;;;;;;;;;;-82.209236;54.525135;-98.601494;;1948.5
2103.0;2025.3;;;;;;;;;;;;;;0.79586166;0.39728996;0.009338664;;;;;1948.5
2103.0;2025.3;;;;;;;;;;;;;;;;;-87.38594;50.042725;-95.04608;;1958.2
2103.0;2025.3;;;;;;;;;;;;;;0.8185064;0.4013184;0.0110477;;;;;1958.2
2103.0;2025.3;;;;;;;;;;;;;;;;;-92.53975;46.445354;-89.255196;;1958.2
2103.0;2025.3;;;;;;;;;;;;;;0.8600116;0.40253913;-0.0014648885;;;;;1958.2
2103.0;2025.1;;;;;;;;;;-29.763178;4.989776;-1.1024811;;;;;;;;;
2103.0;2025.1;;;;;;;0.6596881;0.06256294;-0.17371136;;;;;;;;;;;;
2103.0;2025.1;;;;;;;;;;-29.858547;4.7418137;-1.5488143;;;;;;;;;
2103.0;2025.1;;;;;;;0.659505;0.065431684;-0.16962187;;;;;;;;;;;;
2103.0;2029.6;;;;-0.8857652;-0.045784;-0.2358742;;;;;;;;;;;;;;;
2103.0;2029.6;;;;-0.89452374;-0.043449406;-0.2381058;;;;;;;;;;;;;;;
2103.0;2029.6;;;;-0.9031373;-0.04137421;-0.23992541;;;;;;;;;;;;;;;
2103.0;2029.6;;;;-0.9114114;-0.0391655;-0.2416344;;;;;;;;;;;;;;;
2103.0;2029.6;;;;-0.91952145;-0.037242893;-0.24372485;;;;;;;;;;;;;;;
2103.0;2034.7;;;;;;;;;;-29.976805;4.387036;-2.0638144;;;;;;;;;
2103.0;2034.7;;;;;;;0.66158026;0.06939909;-0.16577655;;;;;;;;;;;;
2103.0;2034.7;;;;;;;;;;-30.00351;3.8605914;-2.6093326;;;;;;;;;
2103.0;2034.7;;;;;;;0.6605426;0.07208472;-0.16199225;;;;;;;;;;;;
2166.0;2039.6;;;;-0.92806256;-0.035587315;-0.24630359;;;;;;;;;;;;;;;
2166.0;2039.6;;;;-0.93693936;-0.033924107;-0.24930194;;;;;;;;;;;;;;;
2166.0;2039.6;;;;-0.9461442;-0.032062534;-0.2523575;;;;;;;;;;;;;;;
2166.0;2039.6;;;;-0.9557992;-0.030403141;-0.2553902;;;;;;;;;;;;;;;
2166.0;2039.6;;;;-0.9648744;-0.02851868;-0.25896457;;;;;;;;;;;;;;;
2166.0;2043.0;262143;262143;11782;;;;;;;;;;;;;;;;;;
2166.0;2044.2;;;;;;;;;;-30.08362;3.4371471;-3.07474;;;;;;;;;
2166.0;2044.2;;;;;;;0.66029847;0.07361065;-0.16003907;;;;;;;;;;;;
2166.0;2044.2;;;;;;;;;;-30.262917;2.9984436;-3.4447768;;;;;;;;;
2166.0;2044.2;;;;;;;0.66243476;0.07629628;-0.16309091;;;;;;;;;;;;
2166.0;2048.8;;;;;;;;;;;;;-54870;;;;;;;;
2166.0;2048.8;;;;;;;;;;;;;-24132;;;;;;;;
2166.0;2048.8;;;;;;;;;;;;;6273;;;;;;;;
2166.0;2048.8;;;;;;;;;;;;;14896;;;;;;;;
2166.0;2048.8;;;;;;;;;;;;;9749;;;;;;;;
2166.0;2049.5;;;;-0.9738313;-0.027027134;-0.26217273;;;;;;;;;;;;;;;
2166.0;2049.5;;;;-0.98194516;-0.025760654;-0.26491168;;;;;;;;;;;;;;;
2166.0;2049.5;;;;-0.9900056;-0.024276737;-0.26825336;;;;;;;;;;;;;;;
2166.0;2049.5;;;;-0.9983903;-0.023006441;-0.27199176;;;;;;;;;;;;;;;
2166.0;2049.5;;;;-1.0064164;-0.021465303;-0.2757111;;;;;;;;;;;;;;;
2166.0;2053.7;;;;;;;;;;-30.461287;2.750481;-3.913999;;;;;;;;;
2166.0;2053.7;;;;;;;0.6671957;0.07959227;-0.16705832;;;;;;;;;;;;
2166.0;2053.7;;;;;;;;;;-30.652027;2.4033327;-4.4442577;;;;;;;;;
2166.0;2053.7;;;;;;;0.6740318;0.08026368;-0.1678518;;;;;;;;;;;;
2167.0;2059.6;;;;-1.0132447;-0.019428255;-0.27882388;;;;;;;;;;;;;;;
2167.0;2059.6;;;;-1.0191346;-0.01779175;-0.2810059;;;;;;;;;;;;;;;
2167.0;2059.6;;;;-1.0249292;-0.016059877;-0.28314593;;;;;;;;;;;;;;;
2167.0;2059.6;;;;-1.0300866;-0.013591768;-0.2854996;;;;;;;;;;;;;;;
2167.0;2059.6;;;;-1.0341302;-0.0113334665;-0.28690723;;;;;;;;;;;;;;;
2167.0;2063.3;;;;;;;;;;-30.919065;1.9417402;-4.9211097;;;;;;;;;
2167.0;2063.3;;;;;;;0.68099004;0.08001953;-0.1727958;;;;;;;;;;;;
2167.0;2063.3;;;;;;;;;;-31.159399;1.739555;-5.394147;;;;;;;;;
2167.0;2063.3;;;;;;;0.6921598;0.07794427;-0.1775567;;;;;;;;;;;;
2167.0;2063.1;262143;262143;11817;;;;;;;;;;;;;;;;;;
2167.0;2069.7;;;;-1.0382653;-0.00958252;-0.28784946;;;;;;;;;;;;;;;
2167.0;2069.7;;;;-1.0427018;-0.0077934274;-0.28905872;;;;;;;;;;;;;;;
2167.0;2069.7;;;;-1.0473939;-0.005649567;-0.2903519;;;;;;;;;;;;;;;
2167.0;2069.7;;;;-1.0527574;-0.0035400395;-0.29076388;;;;;;;;;;;;;;;
2167.0;2069.7;;;;-1.0583383;-0.0016136172;-0.29093936;;;;;;;;;;;;;;;
2167.0;2072.9;;;;;;;;;;-31.422619;1.5945921;-5.8671837;;;;;;;;;
2167.0;2072.9;;;;;;;0.702353;0.073427536;-0.18475905;;;;;;;;;;;;
2167.0;2072.9;;;;;;;;;;-31.838436;1.3847773;-6.302072;;;;;;;;;
2167.0;2072.9;;;;;;;0.7109592;0.071535386;-0.18897061;;;;;;;;;;;;
2190.0;2079.8;;;;-1.0639077;2.6321414E-4;-0.29155734;;;;;;;;;;;;;;;
2190.0;2079.8;;;;-1.0695497;0.0023269656;-0.29166415;;;;;;;;;;;;;;;
2190.0;2079.8;;;;-1.0751077;0.005249024;-0.29167178;;;;;;;;;;;;;;;
2190.0;2079.8;;;;-1.0803071;0.007930757;-0.2917252;;;;;;;;;;;;;;;
2190.0;2079.8;;;;-1.0860482;0.010864259;-0.2920151;;;;;;;;;;;;;;;
2190.0;2082.5;;;;;;;;;;-32.07877;1.1635182;-6.672109;;;;;;;;;
2190.0;2082.5;;;;;;;0.71968746;0.067873165;-0.19336528;;;;;;;;;;;;
2190.0;2082.5;;;;;;;;;;-32.265694;1.0376294;-7.042146;;;;;;;;;
2190.0;2082.5;;;;;;;0.73012483;0.06567583;-0.19739372;;;;;;;;;;;;
2190.0;2083.3;262143;262143;11849;;;;;;;;;;;;;;;;;;
2190.0;2084.6;;;;;;;;;;;;;;;;;-99.238556;47.956024;-86.32161;;1967.9
2190.0;2084.6;;;;;;;;;;;;;;0.88570815;0.41712698;0.008667257;;;;;1967.9
2190.0;2084.6;;;;;;;;;;;;;;;;;-105.616936;49.63454;-82.167274;;1967.9
2190.0;2084.6;;;;;;;;;;;;;;0.87710196;0.38984343;0.024903104;;;;;1967.9
2190.0;2084.6;;;;;;;;;;;;;;;;;-110.47318;48.749504;-77.5132;;1977.6
2190.0;2084.6;;;;;;;;;;;;;;0.86092716;0.35084078;0.029236732;;;;;1977.6
2190.0;2084.6;;;;;;;;;;;;;;;;;-114.50163;47.21595;-72.62642;;1977.6
2190.0;2084.6;;;;;;;;;;;;;;0.84792626;0.3253273;0.033875547;;;;;1977.6
2190.0;2084.6;;;;;;;;;;;;;;;;;-118.61782;45.827354;-67.38106;;1987.2
2190.0;2084.6;;;;;;;;;;;;;;0.83657336;0.29505295;0.043519396;;;;;1987.2
2190.0;2084.6;;;;;;;;;;;;;;;;;-122.90185;44.86221;-62.589645;;1987.2
2190.0;2084.6;;;;;;;;;;;;;;0.81923884;0.26416823;0.040650655;;;;;1987.2
2193.0;2085.8;;;;;;;;;;;;;;;;;-123.70678;43.877987;-56.989502;;1996.7
2193.0;2085.8;;;;;;;;;;;;;;0.78737754;0.24018067;0.042725913;;;;;1996.7
2193.0;2085.8;;;;;;;;;;;;;;;;;-124.332405;40.39506;-50.439465;;1996.7
2193.0;2085.8;;;;;;;;;;;;;;0.7549669;0.19605091;0.02844325;;;;;1996.7
2193.0;2085.8;;;;;;;;;;;;;;;;;-123.474075;35.382397;-44.86984;;2006.4
2193.0;2085.8;;;;;;;;;;;;;;0.6999725;0.16150396;0.0048829615;;;;;2006.4
2193.0;2085.8;;;;;;;;;;;;;;;;;-121.009705;30.663471;-39.91058;;2006.4
2193.0;2085.8;;;;;;;;;;;;;;0.65144813;0.14661092;-0.020569475;;;;;2006.4
2193.0;2085.8;;;;;;;;;;;;;;;;;-116.03519;28.26014;-36.0271;;2016.0
2193.0;2085.8;;;;;;;;;;;;;;0.5831477;0.12970367;-0.027344584;;;;;2016.0
2193.0;2085.8;;;;;;;;;;;;;;;;;-107.60064;25.631733;-32.521286;;2016.0
2193.0;2085.8;;;;;;;;;;;;;;0.5124668;0.13238929;-0.007202368;;;;;2016.0
2193.0;2089.1;;;;;;;;;;;;;8585;;;;;;;;
2193.0;2089.1;;;;;;;;;;;;;13133;;;;;;;;
2193.0;2089.1;;;;;;;;;;;;;14715;;;;;;;;
2193.0;2089.1;;;;;;;;;;;;;13000;;;;;;;;
2193.0;2089.1;;;;;;;;;;;;;11232;;;;;;;;
2193.0;2089.7;;;;-1.0921365;0.013565065;-0.29207233;;;;;;;;;;;;;;;
2193.0;2089.7;;;;-1.0986558;0.016773226;-0.2927132;;;;;;;;;;;;;;;
2193.0;2089.7;;;;-1.1053582;0.02013016;-0.2929459;;;;;;;;;;;;;;;
2193.0;2089.7;;;;-1.1129342;0.023685459;-0.29347613;;;;;;;;;;;;;;;
2193.0;2089.7;;;;-1.1194688;0.02681351;-0.2933884;;;;;;;;;;;;;;;
2193.0;2091.9;;;;;;;;;;-32.45262;0.90411085;-7.3053684;;;;;;;;;
2193.0;2091.9;;;;;;;0.73891413;0.062379833;-0.19739372;;;;;;;;;;;;
2193.0;2091.9;;;;;;;;;;-32.662437;0.9498886;-7.4083686;;;;;;;;;
2193.0;2091.9;;;;;;;0.7478866;0.06317332;-0.20111698;;;;;;;;;;;;
2199.0;2099.6;;;;;;;;;;;;;;;;;-96.49571;19.829401;-29.17951;;2025.6
2199.0;2099.6;;;;;;;;;;;;;;0.45619068;0.14325388;-0.0010376293;;;;;2025.6
2199.0;2099.6;;;;;;;;;;;;;;;;;-84.04416;11.299478;-24.517809;;2025.6
2199.0;2099.6;;;;;;;;;;;;;;0.43836787;0.1439253;-4.2725913E-4;;;;;2025.6
2199.0;2099.6;;;;;;;;;;;;;;;;;-71.36753;2.3041475;-19.24955;;2035.2
2199.0;2099.6;;;;;;;;;;;;;;0.42860195;0.15344706;-0.0045167394;;;;;2035.2
2199.0;2099.6;;;;;;;;;;;;;;;;;-62.517166;-4.4289985;-14.74807;;2035.2
2199.0;2099.6;;;;;;;;;;;;;;0.44184697;0.20990631;-0.0112308115;;;;;2035.2
2199.0;2099.6;;;;;;;;;;;;;;;;;-59.152504;-6.9086275;-8.594775;;2044.9
2199.0;2099.6;;;;;;;;;;;;;;0.44184697;0.25238806;0.040467545;;;;;2044.9
2199.0;2099.6;;;;;;;;;;;;;;;;;-57.821133;-13.019959;-1.7891476;;2044.9
2199.0;2099.6;;;;;;;;;;;;;;0.4410535;0.30439162;0.108401746;;;;;2044.9
2199.0;2099.6;;;;-1.126259;0.03047562;-0.2937279;;;;;;;;;;;;;;;
2199.0;2099.6;;;;-1.1322099;0.0343895;-0.29387668;;;;;;;;;;;;;;;
2199.0;2099.6;;;;-1.1377603;0.038639072;-0.29428104;;;;;;;;;;;;;;;
2199.0;2099.6;;;;-1.1429902;0.04270554;-0.29510882;;;;;;;;;;;;;;;
2199.0;2099.6;;;;-1.1480218;0.046878822;-0.29506305;;;;;;;;;;;;;;;
2199.0;2101.3;;;;;;;;;;-32.780697;1.1139256;-7.3397017;;;;;;;;;
2199.0;2101.3;;;;;;;0.7610096;0.06402783;-0.20258187;;;;;;;;;;;;
2199.0;2101.3;;;;;;;;;;-32.883694;1.3351848;-7.2405167;;;;;;;;;
2199.0;2101.3;;;;;;;0.7800531;0.0656148;-0.20502335;;;;;;;;;;;;
2199.0;2103.1;262143;262143;11883;;;;;;;;;;;;;;;;;;
2219.0;2109.6;;;;-1.1525346;0.052040108;-0.2954102;;;;;;;;;;;;;;;
2219.0;2109.6;;;;-1.1570398;0.056690224;-0.29586414;;;;;;;;;;;;;;;
2219.0;2109.6;;;;-1.1609346;0.061702736;-0.2956238;;;;;;;;;;;;;;;
2219.0;2109.6;;;;-1.1647111;0.06603242;-0.2952614;;;;;;;;;;;;;;;
2219.0;2109.6;;;;-1.1673776;0.070522316;-0.29549792;;;;;;;;;;;;;;;
2219.0;2110.8;;;;;;;;;;-32.948547;1.4648885;-7.087924;;;;;;;;;
2219.0;2110.8;;;;;;;0.79964596;0.06610309;-0.20874661;;;;;;;;;;;;
2219.0;2110.8;;;;;;;;;;-33.024845;1.739555;-7.038331;;;;;;;;;
2219.0;2110.8;;;;;;;0.8208258;0.063539535;-0.21167639;;;;;;;;;;;;
2219.0;2119.5;;;;-1.1683465;0.07521058;-0.29541782;;;;;;;;;;;;;;;
2219.0;2119.5;;;;-1.1690637;0.078918464;-0.2957001;;;;;;;;;;;;;;;
2219.0;2119.5;;;;-1.16877;0.08261109;-0.29587558;;;;;;;;;;;;;;;
2219.0;2119.5;;;;-1.168152;0.08599091;-0.29534534;;;;;;;;;;;;;;;
2219.0;2119.5;;;;-1.1672403;0.08838273;-0.29584506;;;;;;;;;;;;;;;
2219.0;2120.2;;;;;;;;;;-32.860806;2.1172216;-6.839961;;;;;;;;;
2219.0;2120.2;;;;;;;0.8355968;0.058046207;-0.21246986;;;;;;;;;;;;
2219.0;2120.2;;;;;;;;;;-32.616657;2.5864437;-6.4622946;;;;;;;;;
2219.0;2120.2;;;;;;;0.8481704;0.050721765;-0.21295816;;;;;;;;;;;;
2219.0;2123.1;262143;262143;11915;;;;;;;;;;;;;;;;;;
2219.0;2129.0;;;;;;;;;;;;;9335;;;;;;;;
2219.0;2129.0;;;;;;;;;;;;;8009;;;;;;;;
2219.0;2129.0;;;;;;;;;;;;;7535;;;;;;;;
2219.0;2129.0;;;;;;;;;;;;;7319;;;;;;;;
2219.0;2129.0;;;;;;;;;;;;;6619;;;;;;;;
2221.0;2129.6;;;;-1.1659166;0.090766914;-0.29615787;;;;;;;;;;;;;;;
2221.0;2129.6;;;;-1.1642152;0.09253693;-0.2960854;;;;;;;;;;;;;;;
2221.0;2129.6;;;;-1.1618692;0.093929306;-0.2957535;;;;;;;;;;;;;;;
2221.0;2129.6;;;;-1.1596833;0.09463121;-0.2960396;;;;;;;;;;;;;;;
2221.0;2129.6;;;;-1.157406;0.09511186;-0.29636386;;;;;;;;;;;;;;;
2221.0;2129.9;;;;;;;;;;-32.414474;3.238777;-5.882443;;;;;;;;;
2221.0;2129.9;;;;;;;0.859035;0.045533616;-0.21594897;;;;;;;;;;;;
2221.0;2129.9;;;;;;;;;;-32.116917;3.868221;-5.344554;;;;;;;;;
2221.0;2129.9;;;;;;;0.872219;0.041505173;-0.21674246;;;;;;;;;;;;
2221.0;2139.5;;;;;;;;;;-31.758324;4.314554;-4.7418137;;;;;;;;;
2221.0;2139.5;;;;;;;0.88747823;0.03997925;-0.21973327;;;;;;;;;;;;
2221.0;2139.5;;;;;;;;;;-31.434067;4.528184;-3.9864802;;;;;;;;;
2221.0;2139.5;;;;;;;0.90035707;0.04077273;-0.22095402;;;;;;;;;;;;
2221.0;2139.7;;;;-1.1557733;0.09494783;-0.29650882;;;;;;;;;;;;;;;
2221.0;2139.7;;;;-1.1536561;0.09508516;-0.29729083;;;;;;;;;;;;;;;
2221.0;2139.7;;;;-1.1523935;0.094642654;-0.29836658;;;;;;;;;;;;;;;
2221.0;2139.7;;;;-1.1516153;0.093799606;-0.2984238;;;;;;;;;;;;;;;
2221.0;2139.7;;;;-1.1517602;0.09264756;-0.2995911;;;;;;;;;;;;;;;
2221.0;2143.4;262143;262143;11938;;;;;;;;;;;;;;;;;;
2222.0;2144.7;;;;;;;;;;;;;;;;;-55.478832;-24.388105;4.795221;;2054.6
2222.0;2144.7;;;;;;;;;;;;;;0.45167395;0.37867367;0.12793359;;;;;2054.6
2222.0;2144.7;;;;;;;;;;;;;;;;;-52.133244;-33.852657;10.200811;;2054.6
2222.0;2144.7;;;;;;;;;;;;;;0.4328135;0.4659566;0.1431318;;;;;2054.6
2222.0;2144.7;;;;;;;;;;;;;;;;;-47.01758;-44.69817;14.515367;;2064.2
2222.0;2144.7;;;;;;;;;;;;;;0.37641528;0.5271157;0.10901212;;;;;2064.2
2222.0;2144.7;;;;;;;;;;;;;;;;;-38.277843;-61.95639;17.754143;;2064.2
2222.0;2144.7;;;;;;;;;;;;;;0.30860317;0.6252022;0.016052736;;;;;2064.2
2222.0;2144.7;;;;;;;;;;;;;;;;;-31.220436;-83.78475;25.002289;;2073.9
2222.0;2144.7;;;;;;;;;;;;;;0.29657888;0.6861171;-0.10419019;;;;;2073.9
2222.0;2144.7;;;;;;;;;;;;;;;;;-35.06958;-91.963715;33.452103;;2073.9
2222.0;2144.7;;;;;;;;;;;;;;0.30060732;0.6964324;-0.103274636;;;;;2073.9
2222.0;2149.0;;;;;;;;;;-31.094545;4.8982205;-3.0251474;;;;;;;;;
2222.0;2149.0;;;;;;;0.9168981;0.040894803;-0.22284615;;;;;;;;;;;;
2222.0;2149.0;;;;;;;;;;-30.682547;5.359813;-1.9837031;;;;;;;;;
2222.0;2149.0;;;;;;;0.93252355;0.04119999;-0.22461623;;;;;;;;;;;;
2222.0;2149.7;;;;-1.1524163;0.09129334;-0.30101016;;;;;;;;;;;;;;;
2222.0;2149.7;;;;-1.1534845;0.089614876;-0.30173877;;;;;;;;;;;;;;;
2222.0;2149.7;;;;-1.1548005;0.087986;-0.3025513;;;;;;;;;;;;;;;
2222.0;2149.7;;;;-1.1565362;0.085968025;-0.30308917;;;;;;;;;;;;;;;
2222.0;2149.7;;;;-1.1585504;0.083629616;-0.3033295;;;;;;;;;;;;;;;
2222.0;2158.6;;;;;;;;;;-30.255287;5.6344795;-0.90792567;;;;;;;;;
2222.0;2158.6;;;;;;;0.95113987;0.04260384;-0.22632527;;;;;;;;;;;;
2222.0;2158.6;;;;;;;;;;-29.90814;5.8862576;0.24796289;;;;;;;;;
2222.0;2158.6;;;;;;;0.97128206;0.043092135;-0.22681357;;;;;;;;;;;;
2224.0;2159.7;;;;;;;;;;;;;;;;;-42.95099;-94.20301;41.45558;;2083.6
2224.0;2159.7;;;;;;;;;;;;;;0.2428663;0.62611777;-0.02929777;;;;;2083.6
2224.0;2159.7;;;;;;;;;;;;;;;;;-47.4601;-108.447525;47.982727;;2083.6
2224.0;2159.7;;;;;;;;;;;;;;0.2151555;0.4867702;-0.049867246;;;;;2083.6
2224.0;2159.7;;;;;;;;;;;;;;;;;-56.928463;-118.87341;53.1518;;2093.2
2224.0;2159.7;;;;;;;;;;;;;;0.23584704;0.31299785;-0.062379833;;;;;2093.2
2224.0;2159.7;;;;;;;;;;;;;;;;;-71.06235;-104.99893;56.619465;;2093.2
2224.0;2159.7;;;;;;;;;;;;;;0.28351694;0.06970428;0.18256173;;;;;2093.2
2224.0;2159.7;;;;;;;;;;;;;;;;;-79.95467;-84.07086;63.230537;;2102.9
2224.0;2159.7;;;;;;;;;;;;;;0.28131962;-0.12262337;0.49916074;;;;;2102.9
2224.0;2159.7;;;;;;;;;;;;;;;;;-78.8789;-68.556015;70.75335;;2102.9
2224.0;2159.7;;;;;;;;;;;;;;0.23523667;-0.17365032;0.7198706;;;;;2102.9
2224.0;2159.5;;;;-1.1609613;0.08132554;-0.30394366;;;;;;;;;;;;;;;
2224.0;2159.5;;;;-1.163231;0.07924653;-0.30536655;;;;;;;;;;;;;;;
2224.0;2159.5;;;;-1.1658593;0.076839454;-0.30604556;;;;;;;;;;;;;;;
2224.0;2159.5;;;;-1.1693994;0.07454682;-0.30712894;;;;;;;;;;;;;;;
2224.0;2159.5;;;;-1.1730691;0.07270051;-0.30764392;;;;;;;;;;;;;;;
2224.0;2163.3;262143;262143;11943;;;;;;;;;;;;;;;;;;
2224.0;2167.9;;;;;;;;;;-29.4084;5.9320354;1.6289254;;;;;;;;;
2224.0;2167.9;;;;;;;0.9883114;0.042542804;-0.22791223;;;;;;;;;;;;
2224.0;2167.9;;;;;;;;;;-28.801844;5.8671837;3.2235177;;;;;;;;;
2224.0;2167.9;;;;;;;1.0064394;0.04321421;-0.22815637;;;;;;;;;;;;
2285.0;2169.1;;;;;;;;;;;;;4633;;;;;;;;
2285.0;2169.1;;;;;;;;;;;;;2069;;;;;;;;
2285.0;2169.1;;;;;;;;;;;;;267;;;;;;;;
2285.0;2169.1;;;;;;;;;;;;;-464;;;;;;;;
2285.0;2169.1;;;;;;;;;;;;;-1260;;;;;;;;
2285.0;2169.5;;;;-1.1762391;0.07107163;-0.30707553;;;;;;;;;;;;;;;
2285.0;2169.5;;;;-1.1786767;0.0695572;-0.30561832;;;;;;;;;;;;;;;
2285.0;2169.5;;;;-1.1793977;0.06928254;-0.3031235;;;;;;;;;;;;;;;
2285.0;2169.5;;;;-1.178711;0.06995774;-0.3011742;;;;;;;;;;;;;;;
2285.0;2169.5;;;;-1.1779977;0.07009507;-0.30089572;;;;;;;;;;;;;;;
2285.0;2177.2;;;;;;;;;;-28.229622;5.62685;4.8257394;;;;;;;;;
2285.0;2177.2;;;;;;;1.0326853;0.04052858;-0.22956023;;;;;;;;;;;;
2285.0;2177.2;;;;;;;;;;-27.668842;5.2415543;6.324961;;;;;;;;;
2285.0;2177.2;;;;;;;1.0549638;0.03814814;-0.23194067;;;;;;;;;;;;
2285.0;2179.4;;;;-1.1758691;0.070968635;-0.3007622;;;;;;;;;;;;;;;
2285.0;2179.4;;;;-1.1729776;0.07169343;-0.30005267;;;;;;;;;;;;;;;
2285.0;2179.4;;;;-1.1695749;0.0725937;-0.2998009;;;;;;;;;;;;;;;
2285.0;2179.4;;;;-1.1661683;0.073551185;-0.2995415;;;;;;;;;;;;;;;
2285.0;2179.4;;;;-1.1628762;0.07404328;-0.29953006;;;;;;;;;;;;;;;
2285.0;2183.1;262143;262143;11945;;;;;;;;;;;;;;;;;;
2285.0;2186.8;;;;;;;;;;-27.138586;4.650258;7.827998;;;;;;;;;
2285.0;2186.8;;;;;;;1.0835901;0.032227546;-0.23548082;;;;;;;;;;;;
2285.0;2186.8;;;;;;;;;;-26.474808;4.016999;9.3081455;;;;;;;;;
2285.0;2186.8;;;;;;;1.1104465;0.021790216;-0.2405469;;;;;;;;;;;;
2288.0;2189.5;;;;-1.1596795;0.07440186;-0.30032352;;;;;;;;;;;;;;;
2288.0;2189.5;;;;-1.1566812;0.074306495;-0.3009186;;;;;;;;;;;;;;;
2288.0;2189.5;;;;-1.153351;0.074810036;-0.30157474;;;;;;;;;;;;;;;
2288.0;2189.5;;;;-1.1491014;0.07513047;-0.30313876;;;;;;;;;;;;;;;
2288.0;2189.5;;;;-1.1442109;0.075191505;-0.30468372;;;;;;;;;;;;;;;
2288.0;2196.4;;;;;;;;;;-25.769066;3.3303325;10.853146;;;;;;;;;
2288.0;2196.4;;;;;;;1.1318705;0.012329478;-0.24311045;;;;;;;;;;;;
2288.0;2196.4;;;;;;;;;;-25.105288;2.5368512;12.356182;;;;;;;;;
2288.0;2196.4;;;;;;;1.1489608;-0.0015259255;-0.24640645;;;;;;;;;;;;
2288.0;2199.6;;;;-1.138527;0.07505799;-0.3065987;;;;;;;;;;;;;;;
2288.0;2199.6;;;;-1.1318284;0.07484055;-0.30838397;;;;;;;;;;;;;;;
2288.0;2199.6;;;;-1.1241494;0.074638374;-0.3097115;;;;;;;;;;;;;;;
2288.0;2199.6;;;;-1.1163598;0.0739174;-0.31053928;;;;;;;;;;;;;;;
2288.0;2199.6;;;;-1.1075059;0.07300187;-0.31110385;;;;;;;;;;;;;;;
2288.0;2203.4;262143;262143;11945;;;;;;;;;;;;;;;;;;
2289.0;2205.1;;;;;;;;;;;;;;;;;-62.57057;-63.173317;76.9982;;2112.4
2289.0;2205.1;;;;;;;;;;;;;;0.25232702;0.05719169;0.811243;;;;;2112.4
2289.0;2205.1;;;;;;;;;;;;;;;;;-24.85351;-79.9356;78.35627;;2112.4
2289.0;2205.1;;;;;;;;;;;;;;0.36237678;0.40473646;0.62153995;;;;;2112.4
2289.0;2205.1;;;;;;;;;;;;;;;;;36.500137;-114.585556;71.56209;;2122.0
2289.0;2205.1;;;;;;;;;;;;;;0.5069735;0.6250191;0.14557329;;;;;2122.0
2289.0;2205.1;;;;;;;;;;;;;;;;;80.27131;-124.98093;70.005646;;2122.0
2289.0;2205.1;;;;;;;;;;;;;;0.76363415;0.59974974;-0.28400525;;;;;2122.0
2289.0;2205.1;;;;;;;;;;;;;;;;;108.226265;-124.988556;94.71801;;2131.6
2289.0;2205.1;;;;;;;;;;;;;;0.9981994;0.22247994;-0.48115483;;;;;2131.6
2289.0;2205.1;;;;;;;;;;;;;;;;;118.022705;-124.988556;118.78949;;2131.6
2289.0;2205.1;;;;;;;;;;;;;;1.1050752;-0.24066897;-0.6556597;;;;;2131.6
2289.0;2205.9;;;;;;;;;;-24.555956;1.6518143;13.882107;;;;;;;;;
2289.0;2205.9;;;;;;;1.157506;-0.014343699;-0.24610126;;;;;;;;;;;;
2289.0;2205.9;;;;;;;;;;-24.06766;1.2321848;15.346995;;;;;;;;;
2289.0;2205.9;;;;;;;1.165807;-0.025696585;-0.24897;;;;;;;;;;;;
2289.0;2209.2;;;;;;;;;;;;;-3262;;;;;;;;
2289.0;2209.2;;;;;;;;;;;;;-6067;;;;;;;;
2289.0;2209.2;;;;;;;;;;;;;-8280;;;;;;;;
2289.0;2209.2;;;;;;;;;;;;;-8961;;;;;;;;
2289.0;2209.2;;;;;;;;;;;;;-8254;;;;;;;;
2289.0;2209.6;;;;-1.0986634;0.071868904;-0.31170276;;;;;;;;;;;;;;;
2289.0;2209.6;;;;-1.08947;0.0710106;-0.31204227;;;;;;;;;;;;;;;
2289.0;2209.6;;;;-1.0803987;0.06911088;-0.31273654;;;;;;;;;;;;;;;
2289.0;2209.6;;;;-1.0710222;0.06704331;-0.31307605;;;;;;;;;;;;;;;
2289.0;2209.6;;;;-1.0621034;0.06433869;-0.3135033;;;;;;;;;;;;;;;
2291.0;2215.5;;;;;;;;;;-23.762474;0.67903686;16.636404;;;;;;;;;
2291.0;2215.5;;;;;;;1.1745964;-0.034913175;-0.25305948;;;;;;;;;;;;
2291.0;2215.5;;;;;;;;;;-23.499252;-0.0038148137;17.723623;;;;;;;;;
2291.0;2215.5;;;;;;;1.1898557;-0.044923246;-0.2580645;;;;;;;;;;;;
2291.0;2219.7;;;;;;;;;;;;;;;;;98.59005;-124.210335;124.65667;;2141.3
2291.0;2219.7;;;;;;;;;;;;;;1.1273538;-0.5492111;-0.48792994;;;;;2141.3
2291.0;2219.7;;;;;;;;;;;;;;;;;80.14923;-121.631516;124.988556;;2141.3
2291.0;2219.7;;;;;;;;;;;;;;1.0285958;-0.758507;-0.272042;;;;;2141.3
2291.0;2219.7;;;;;;;;;;;;;;;;;79.12686;-124.610886;124.988556;;2151.0
2291.0;2219.7;;;;;;;;;;;;;;1.1021454;-0.76827294;-0.28699607;;;;;2151.0
2291.0;2219.7;;;;;;;;;;;;;;;;;60.07187;-100.009155;124.96948;;2151.0
2291.0;2219.7;;;;;;;;;;;;;;1.2673116;-0.68617815;-0.17700736;;;;;2151.0
2291.0;2219.7;;;;;;;;;;;;;;;;;49.550613;-50.58824;116.02756;;2160.6
2291.0;2219.7;;;;;;;;;;;;;;1.2656026;-0.3744621;0.20789209;;;;;2160.6
2291.0;2219.7;;;;;;;;;;;;;;;;;48.89447;-59.091465;93.100525;;2160.6
2291.0;2219.7;;;;;;;;;;;;;;1.398175;0.036561176;0.25305948;;;;;2160.6
2291.0;2219.5;;;;-1.0527192;0.06121827;-0.3137894;;;;;;;;;;;;;;;
2291.0;2219.5;;;;-1.0438272;0.0575409;-0.31347278;;;;;;;;;;;;;;;
2291.0;2219.5;;;;-1.034813;0.05434037;-0.31338885;;;;;;;;;;;;;;;
2291.0;2219.5;;;;-1.0260507;0.050899513;-0.313839;;;;;;;;;;;;;;;
2291.0;2219.5;;;;-1.0176584;0.047637947;-0.31338885;;;;;;;;;;;;;;;
2291.0;2223.3;262143;262143;11927;;;;;;;;;;;;;;;;;;
2366.0;2224.9;;;;;;;;;;-23.4344;-0.7057405;18.597218;;;;;;;;;
2366.0;2224.9;;;;;;;1.2052981;-0.05182043;-0.26502272;;;;;;;;;;;;
2366.0;2224.9;;;;;;;;;;-23.3314;-1.3428144;19.356365;;;;;;;;;
2366.0;2224.9;;;;;;;1.2186041;-0.058290355;-0.2719199;;;;;;;;;;;;
2366.0;2229.3;;;;-1.0096132;0.04491425;-0.31278232;;;;;;;;;;;;;;;
2366.0;2229.3;;;;-1.002041;0.043205265;-0.31139377;;;;;;;;;;;;;;;
2366.0;2229.3;;;;-0.99458325;0.04190064;-0.30967715;;;;;;;;;;;;;;;
2366.0;2229.3;;;;-0.98739254;0.040866856;-0.30796817;;;;;;;;;;;;;;;
2366.0;2229.3;;;;-0.9806787;0.040412907;-0.30575946;;;;;;;;;;;;;;;
2366.0;2234.2;;;;;;;;;;-23.182623;-1.8044069;20.210882;;;;;;;;;
2366.0;2234.2;;;;;;;1.2319101;-0.06329539;-0.27680287;;;;;;;;;;;;
2366.0;2234.2;;;;;;;;;;-23.049105;-1.8883327;21.027254;;;;;;;;;
2366.0;2234.2;;;;;;;1.2444838;-0.06823939;-0.28034303;;;;;;;;;;;;
2366.0;2239.2;;;;-0.9739839;0.04051209;-0.30324176;;;;;;;;;;;;;;;
2366.0;2239.2;;;;-0.9667703;0.041011814;-0.30044177;;;;;;;;;;;;;;;
2366.0;2239.2;;;;-0.95931256;0.041500095;-0.29788592;;;;;;;;;;;;;;;
2366.0;2239.2;;;;-0.9522401;0.04189301;-0.29620746;;;;;;;;;;;;;;;
2366.0;2239.2;;;;-0.94547665;0.042522434;-0.29376987;;;;;;;;;;;;;;;
2366.0;2243.1;262143;262143;11913;;;;;;;;;;;;;;;;;;
2366.0;2243.8;;;;;;;;;;-22.980438;-1.9302957;21.664328;;;;;;;;;
2366.0;2243.8;;;;;;;1.254738;-0.0717185;-0.28186896;;;;;;;;;;;;
2366.0;2243.8;;;;;;;;;;-22.988068;-1.8349254;22.274696;;;;;;;;;
2366.0;2243.8;;;;;;;11324;-0.07574694;-0.27906126;;;;;;;;;;;;
2368.0;2249.0;;;;;;;;;;;;;-7018;;;;;;;;
2368.0;2249.0;;;;;;;;;;;;;-6149;;;;;;;;
2368.0;2249.0;;;;;;;;;;;;;-5928;;;;;;;;
2368.0;2249.0;;;;;;;;;;;;;-5527;;;;;;;;
2368.0;2249.0;;;;;;;;;;;;;-4278;;;;;;;;
2368.0;2249.4;;;;-0.9384233;0.042472843;-0.29203418;;;;;;;;;;;;;;;
2368.0;2249.4;;;;-0.93227017;0.042018894;-0.2904053;;;;;;;;;;;;;;;
2368.0;2249.4;;;;-0.9263116;0.040809635;-0.28884128;;;;;;;;;;;;;;;
2368.0;2249.4;;;;-0.92045224;0.03915024;-0.2869034;;;;;;;;;;;;;;;
2368.0;2249.4;;;;-0.9151269;0.036811832;-0.2862015;;;;;;;;;;;;;;;
2368.0;2253.4;;;;;;;;;;-22.843103;-1.6289254;22.919401;;;;;;;;;
2368.0;2253.4;;;;;;;1.2693259;-0.07770012;-0.27478865;;;;;;;;;;;;
2368.0;2253.4;;;;;;;;;;-22.60277;-1.4381847;23.533587;;;;;;;;;
2368.0;2253.4;;;;;;;1.2723777;-0.07959227;-0.26868495;;;;;;;;;;;;
2368.0;2259.5;;;;-0.9096452;0.033946995;-0.28522876;;;;;;;;;;;;;;;
2368.0;2259.5;;;;-0.90426266;0.03079224;-0.28392413;;;;;;;;;;;;;;;
2368.0;2259.5;;;;-0.89964306;0.026832584;-0.28484347;;;;;;;;;;;;;;;
2368.0;2259.5;;;;-0.8960763;0.02301407;-0.28511432;;;;;;;;;;;;;;;
2368.0;2259.5;;;;-0.89318097;0.018730165;-0.28489688;;;;;;;;;;;;;;;
2368.0;2263.0;;;;;;;;;;-22.251808;-1.289407;24.044771;;;;;;;;;
2368.0;2263.0;;;;;;;1.281045;-0.08197272;-0.2620319;;;;;;;;;;;;
2368.0;2263.0;;;;;;;;;;-21.916105;-1.1940367;24.483475;;;;;;;;;
2368.0;2263.0;;;;;;;1.2902615;-0.08252205;-0.2557451;;;;;;;;;;;;
2368.0;2263.4;262143;262143;11865;;;;;;;;;;;;;;;;;;
2370.0;2264.7;;;;;;;;;;;;;;;;;50.111393;-71.93594;78.83312;;2170.3
2370.0;2264.7;;;;;;;;;;;;;;1.601001;0.22602008;0.103946045;;;;;2170.3
2370.0;2264.7;;;;;;;;;;;;;;;;;57.840206;-58.046207;72.98883;;2170.3
2370.0;2264.7;;;;;;;;;;;;;;1.7036653;0.35254982;0.20606098;;;;;2170.3
