patientId;holterMac;flexMac;;;;;;;;;;;;;;;;;;;;
stairsdown;CA:F3:0B:1E:33:78;D3:4A:5C:52:80:78;;;;;;;;;;;;;;;;;;;;
receivedTimeStamp;timeStamp;red;ir;green;adxl_accX;adxl_accY;adxl_accZ;lsm_accelX;lsm_accelY;lsm_accelZ;lsm_gyroX;lsm_gyroY;lsm_gyroZ;ecg;flex_lsm_accelX;flex_lsm_accelY;flex_lsm_accelZ;flex_lsm_gyroX;flex_lsm_gyroY;flex_lsm_gyroZ;flex_cmd;flexTimeStamp
307.0;213.7;;;;;;;;;;;;;;;;;;;;17;0.1
307.0;213.7;;;;;;;;;;;;;;;;;12.783441;1.3351848;0.7324442;;127.6
307.0;213.7;;;;;;;;;;;;;;0.5327311;0.1932432;-0.3287454;;;;;127.6
307.0;213.7;;;;;;;;;;;;;;;;;-5.653554;-16.991179;-7.6715903;;127.6
307.0;213.7;;;;;;;;;;;;;;0.5592822;0.20117801;-0.34949797;;;;;127.6
307.0;213.7;;;;;;;;;;;;;;;;;-61.23539;-84.761345;-61.342205;;137.2
307.0;213.7;;;;;;;;;;;;;;0.56874293;0.2120426;-0.35395366;;;;;137.2
307.0;213.7;;;;;;;;;;;;;;;;;-121.66966;-124.988556;-119.99114;;137.2
307.0;213.7;;;;;;;;;;;;;;0.58162177;0.20337535;-0.35462508;;;;;137.2
358.0;214.8;;;;;;;;;;;;;;;;;-40.29969;-124.72152;-77.78406;;146.9
358.0;214.8;;;;;;;;;;;;;;0.5813776;0.22565386;-0.33753473;;;;;146.9
358.0;214.8;;;;;;;;;;;;;;;;;54.98672;-124.332405;-31.29673;;146.9
358.0;214.8;;;;;;;;;;;;;;0.5724662;0.24610126;-0.3255104;;;;;146.9
358.0;214.8;;;;;;;;;;;;;;;;;63.1428;-94.89731;-24.311808;;156.6
358.0;214.8;;;;;;;;;;;;;;0.5584277;0.2771691;-0.30860317;;;;;156.6
358.0;214.8;;;;;;;;;;;;;;;;;59.812466;-2.6551104;-0.23651844;;156.6
358.0;214.8;;;;;;;;;;;;;;0.5580615;0.3005463;-0.29883724;;;;;156.6
358.0;214.8;;;;;;;;;;;;;;;;;57.252724;5.493332;1.7624439;;166.1
358.0;214.8;;;;;;;;;;;;;;0.56117433;0.3225196;-0.29419842;;;;;166.1
358.0;214.8;;;;;;;;;;;;;;;;;54.898983;6.023591;1.7319254;;166.1
358.0;214.8;;;;;;;;;;;;;;0.55726796;0.33381146;-0.29798272;;;;;166.1
358.0;289.7;;;;;;;;;;;;;;;;;52.37739;6.6759243;2.0523698;;175.8
358.0;289.7;;;;;;;;;;;;;;0.5541551;0.35297707;-0.301706;;;;;175.8
358.0;289.7;;;;;;;;;;;;;;;;;50.168613;6.7636647;1.823481;;175.8
358.0;289.7;;;;;;;;;;;;;;0.54768515;0.36237678;-0.31025118;;;;;175.8
358.0;289.7;;;;;;;;;;;;;;;;;47.860653;6.3325906;1.8501847;;185.4
358.0;289.7;;;;;;;;;;;;;;0.55226296;0.37525558;-0.33002716;;;;;185.4
358.0;289.7;;;;;;;;;;;;;;;;;46.182133;6.76748;2.1973326;;185.4
358.0;289.7;;;;;;;;;;;;;;0.5593432;0.3755608;-0.34357738;;;;;185.4
358.0;289.7;;;;;;;;;;;;;;;;;44.541763;7.122257;2.1591845;;195.1
358.0;289.7;;;;;;;;;;;;;;0.5730155;0.38288522;-0.34998626;;;;;195.1
358.0;289.7;;;;;;;;;;;;;;;;;43.328655;7.087924;2.193518;;195.1
358.0;289.7;;;;;;;;;;;;;;0.59529406;0.3836787;-0.36292613;;;;;195.1
422.0;290.5;;;;;;;;;;;;;;;;;43.488876;8.09122;2.2850735;;204.8
422.0;290.5;;;;;;;;;;;;;;0.6167791;0.3979003;-0.3624378;;;;;204.8
422.0;290.5;;;;;;;;;;;;;;;;;43.939026;8.823664;2.2087772;;204.8
422.0;290.5;;;;;;;;;;;;;;0.64351326;0.42811364;-0.36249885;;;;;204.8
422.0;290.5;;;;;;;;;;;;;;;;;44.972836;9.792626;2.3270364;;214.5
422.0;290.5;;;;;;;;;;;;;;0.6789148;0.440199;-0.36475724;;;;;214.5
422.0;290.5;;;;;;;;;;;;;;;;;47.29606;11.085848;2.3880734;;214.5
422.0;290.5;;;;;;;;;;;;;;0.7109592;0.44770652;-0.361095;;;;;214.5
422.0;290.5;;;;;;;;;;;;;;;;;50.30213;11.806849;1.9722588;;224.1
422.0;290.5;;;;;;;;;;;;;;0.74452955;0.46565142;-0.36695457;;;;;224.1
422.0;290.5;;;;;;;;;;;;;;;;;54.12076;43070;1.1329997;;224.1
422.0;290.5;;;;;;;;;;;;;;0.7731559;0.44953763;-0.3863033;;;;;224.1
422.0;334.5;;;;;;;;;;;;;;;;;59.743797;14.210181;-0.3662221;;233.7
422.0;334.5;;;;;;;;;;;;;;0.7754143;0.4915311;-0.3886227;;;;;233.7
422.0;334.5;;;;;;;;;;;;;;;;;64.11939;13.908811;-1.9760735;;233.7
422.0;334.5;;;;;;;;;;;;;;0.7936033;0.49287394;-0.39674062;;;;;233.7
422.0;334.5;;;;;;;;;;;;;;;;;68.98709;14.564959;-3.8605914;;243.3
422.0;334.5;;;;;;;;;;;;;;0.794702;0.47993407;-0.40687278;;;;;243.3
422.0;334.5;;;;;;;;;;;;;;;;;74.43083;15.65218;-6.7560353;;243.3
422.0;334.5;;;;;;;;;;;;;;0.7660146;0.52339244;-0.40205085;;;;;243.3
422.0;334.5;;;;;;;;;;;;;;;;;79.3939;14.43144;-10.593738;;253.0
422.0;334.5;;;;;;;;;;;;;;0.7230445;0.5264443;-0.38624227;;;;;253.0
422.0;334.5;;;;;;;;;;;;;;;;;83.25449;9.353924;-14.725182;;253.0
422.0;334.5;;;;;;;;;;;;;;0.7183447;0.511124;-0.40479752;;;;;253.0
480.0;335.3;;;;;;;;;;;;;;;;;86.9129;4.5739617;-18.20429;;262.7
480.0;335.3;;;;;;;;;;;;;;0.70992154;0.5019074;-0.41590625;;;;;262.7
480.0;335.3;;;;;;;;;;;;;;;;;88.57616;0.3624073;-20.851772;;262.7
480.0;335.3;;;;;;;;;;;;;;0.66621906;0.47474593;-0.45051423;;;;;262.7
480.0;335.3;;;;;;;;;;;;;;;;;87.15705;-4.440443;-22.148808;;272.3
480.0;335.3;;;;;;;;;;;;;;0.67275;0.46223333;-0.5188147;;;;;272.3
480.0;335.3;;;;;;;;;;;;;;;;;82.060455;-7.354961;-22.103031;;272.3
480.0;335.3;;;;;;;;;;;;;;0.7145604;0.44422743;-0.5620289;;;;;272.3
480.0;335.3;;;;;;;;;;;;;;;;;73.99594;-6.2524796;-21.33244;;282.0
480.0;335.3;;;;;;;;;;;;;;0.76992095;0.48213142;-0.60878325;;;;;282.0
480.0;335.3;;;;;;;;;;;;;;;;;67.27806;0.5798517;-21.011993;;282.0
480.0;335.3;;;;;;;;;;;;;;0.8413953;0.5195471;-0.6537675;;;;;282.0
480.0;395.1;;;;;;;;;;;;;;;;;68.20505;11.112552;-22.099216;;291.6
480.0;395.1;;;;;;;;;;;;;;0.87044895;0.6184271;-0.6944792;;;;;291.6
480.0;395.1;;;;;;;;;;;;;;;;;72.96213;22.194586;-23.457289;;291.6
480.0;395.1;;;;;;;;;;;;;;0.7747429;0.7409894;-0.6855678;;;;;291.6
480.0;395.1;;;;;;;;;;;;;;;;;72.62642;18.902403;-23.728142;;301.2
480.0;395.1;;;;;;;;;;;;;;0.5668508;0.8360851;-0.8231452;;;;;301.2
480.0;395.1;;;;;;;;;;;;;;;;;59.877316;-7.5838494;-18.921476;;301.2
480.0;395.1;;;;;;;;;;;;;;0.42719808;0.8591571;-0.9830622;;;;;301.2
480.0;395.1;;;;;;;;;;;;;;;;;42.409283;-42.233803;-7.0574055;;310.5
480.0;395.1;;;;;;;;;;;;;;0.55061495;0.75936157;-1.0299387;;;;;310.5
480.0;395.1;;;;;;;;;;;;;;;;;28.53099;-57.443466;5.4628134;;310.5
480.0;395.1;;;;;;;;;;;;;;0.72524184;0.5399945;-0.91134375;;;;;310.5
602.0;395.9;;;;;;;;;;;;;;;;;16.945402;-57.924133;15.430922;;320.2
602.0;395.9;;;;;;;;;;;;;;0.91036713;0.32447278;-0.6643269;;;;;320.2
602.0;395.9;;;;;;;;;;;;;;;;;0.49211097;-58.08054;27.085178;;320.2
602.0;395.9;;;;;;;;;;;;;;1.1403546;0.07525864;-0.5593432;;;;;320.2
602.0;395.9;;;;;;;;;;;;;;;;;-13.042848;-60.399944;38.689842;;329.9
602.0;395.9;;;;;;;;;;;;;;1.4049501;-0.14941862;-0.7323832;;;;;329.9
602.0;395.9;;;;;;;;;;;;;;;;;-19.695883;-44.282356;45.392467;;329.9
602.0;395.9;;;;;;;;;;;;;;1.6049684;-0.22321238;-0.69338053;;;;;329.9
602.0;395.9;;;;;;;;;;;;;;;;;-27.478102;-16.155737;48.913544;;339.5
602.0;395.9;;;;;;;;;;;;;;1.5799432;-0.25287637;-0.33698538;;;;;339.5
602.0;395.9;;;;;;;;;;;;;;;;;-18.459883;-12.150182;47.39906;;339.5
602.0;395.9;;;;;;;;;;;;;;1.4379711;-0.03955199;-0.50489825;;;;;339.5
602.0;523.0;;;;;;;;;;;;;;;;;-0.3089999;-21.29429;42.996765;;349.2
602.0;523.0;;;;;;;;;;;;;;1.2504044;0.19757684;-0.8860134;;;;;349.2
602.0;523.0;;;;;;;;;;;;;;;;;11.711478;-39.326912;37.66366;;349.2
602.0;523.0;;;;;;;;;;;;;;1.1626942;0.35236672;-1.0960418;;;;;349.2
602.0;523.0;;;;;;;;;;;;;;;;;14.751884;-55.410168;32.235176;;358.8
602.0;523.0;;;;;;;;;;;;;;1.360332;0.44465467;-1.0427564;;;;;358.8
602.0;523.0;;;;;;;;;;;;;;;;;16.331219;-58.610798;25.788141;;358.8
602.0;523.0;;;;;;;;;;;;;;1.4654378;0.55116427;-0.9284951;;;;;358.8
602.0;523.0;;;;;;;;;;;;;;;;;15.751366;-54.124577;18.444624;;368.5
602.0;523.0;;;;;;;;;;;;;;1.4687948;0.67305523;-0.78884244;;;;;368.5
602.0;523.0;;;;;;;;;;;;;;;;;11.326181;-50.939205;13.649404;;368.5
602.0;523.0;;;;;;;;;;;;;;1.2994171;0.7296976;-0.77498704;;;;;368.5
604.0;523.9;;;;;;;;;;;;;;;;;-0.011444441;-49.073765;12.764366;;378.0
604.0;523.9;;;;;;;;;;;;;;1.1463972;0.6011536;-0.8586688;;;;;378.0
604.0;523.9;;;;;;;;;;;;;;;;;-12.237923;-40.784172;12.260812;;378.0
604.0;523.9;;;;;;;;;;;;;;1.066805;0.36127812;-0.79927975;;;;;378.0
604.0;523.9;;;;;;;;;;;;;;;;;-25.822474;-28.771324;12.966552;;387.6
604.0;523.9;;;;;;;;;;;;;;1.0260323;0.1060213;-0.6092105;;;;;387.6
604.0;523.9;;;;;;;;;;;;;;;;;-41.280098;-20.832697;14.969329;;387.6
604.0;523.9;;;;;;;;;;;;;;0.9560839;-0.14447463;-0.4984283;;;;;387.6
604.0;523.9;;;;;;;;;;;;;;;;;-47.757652;-15.640736;14.656514;;397.3
604.0;523.9;;;;;;;;;;;;;;0.9582202;-0.31843013;-0.44691306;;;;;397.3
604.0;523.9;;;;;;;;;;;;;;;;;-41.085545;-9.388257;11.116366;;397.3
604.0;523.9;;;;;;;;;;;;;;0.96676534;-0.31550035;-0.42231512;;;;;397.3
604.0;525.0;;;;;;;;;;;;;;;;;-28.64162;-3.8033693;8.045443;;407.0
604.0;525.0;;;;;;;;;;;;;;0.8946806;-0.2741783;-0.42445144;;;;;407.0
604.0;525.0;;;;;;;;;;;;;;;;;-16.621143;-4.791406;6.698813;;407.0
604.0;525.0;;;;;;;;;;;;;;0.87777334;-0.15637684;-0.52394176;;;;;407.0
604.0;525.0;;;;;;;;;;;;;;;;;-4.9439983;-10.3228855;6.7941833;;416.7
604.0;525.0;;;;;;;;;;;;;;0.9139683;0.018127995;-0.728782;;;;;416.7
604.0;525.0;;;;;;;;;;;;;;;;;5.6802573;-15.66744;7.065035;;416.7
604.0;525.0;;;;;;;;;;;;;;1.0612507;0.33039337;-0.9072543;;;;;416.7
604.0;525.0;;;;;;;;;;;;;;;;;12.501144;-18.539995;9.628591;;426.4
604.0;525.0;;;;;;;;;;;;;;1.1927854;0.50294507;-0.9847102;;;;;426.4
604.0;525.0;;;;;;;;;;;;;;;;;14.587848;-20.622883;12.928404;;426.4
604.0;525.0;;;;;;;;;;;;;;1.2453994;0.6277657;-0.953032;;;;;426.4
662.0;525.7;;;;;;;;;;;;;;;;;12.073886;-24.338512;15.568254;;435.9
662.0;525.7;;;;;;;;;;;;;;1.2621845;0.6902676;-0.951323;;;;;435.9
662.0;525.7;;;;;;;;;;;;;;;;;5.546739;-21.679586;16.846218;;435.9
662.0;525.7;;;;;;;;;;;;;;1.1982177;0.6830653;-0.8750267;;;;;435.9
662.0;525.7;;;;;;;;;;;;;;;;;-4.520554;-21.595661;18.280588;;445.6
662.0;525.7;;;;;;;;;;;;;;1.1177709;0.55671865;-0.81508833;;;;;445.6
662.0;525.7;;;;;;;;;;;;;;;;;-17.059847;-22.782066;19.054995;;445.6
662.0;525.7;;;;;;;;;;;;;;1.0737022;0.36713767;-0.81044954;;;;;445.6
662.0;525.7;;;;;;;;;;;;;;;;;-28.771324;-20.321512;18.456068;;455.3
662.0;525.7;;;;;;;;;;;;;;1.0466018;0.13299966;-0.8117924;;;;;455.3
662.0;525.7;;;;;;;;;;;;;;;;;-33.51314;-13.706625;16.338848;;455.3
662.0;525.7;;;;;;;;;;;;;;1.012421;-0.07983642;-0.7563097;;;;;455.3
662.0;530.3;;;;;;;;;;;;;;;;;-31.331066;-9.4073305;13.603626;;465.0
662.0;530.3;;;;;;;;;;;;;;0.95211643;-0.21539964;-0.7349467;;;;;465.0
662.0;530.3;;;;;;;;;;;;;;;;;-26.615955;-8.884701;9.971923;;465.0
662.0;530.3;;;;;;;;;;;;;;0.8910184;-0.237434;-0.8037355;;;;;465.0
662.0;530.3;;;;;;;;;;;;;;;;;-20.332956;-6.939146;7.023072;;474.6
662.0;530.3;;;;;;;;;;;;;;0.84823143;-0.26746422;-0.8280282;;;;;474.6
662.0;530.3;;;;;;;;;;;;;;;;;-11.566515;-4.737999;3.9979248;;474.6
662.0;530.3;;;;;;;;;;;;;;0.8105106;-0.29047516;-0.7984863;;;;;474.6
662.0;530.3;;;;;;;;;;;;;;;;;-2.2698143;-4.6731467;1.453444;;484.3
662.0;530.3;;;;;;;;;;;;;;0.8042238;-0.2658162;-0.764977;;;;;484.3
662.0;530.3;;;;;;;;;;;;;;;;;5.6802573;-3.2044435;-0.32807398;;484.3
662.0;530.3;;;;;;;;;;;;;;0.78988004;-0.23548082;-0.6922208;;;;;484.3
721.0;575.5;;;;;;;;;;;;;;;;;12.134923;-2.475814;-1.7319254;;493.8
721.0;575.5;;;;;;;;;;;;;;0.7576525;-0.18677329;-0.64229256;;;;;493.8
721.0;575.5;;;;;;;;;;;;;;;;;16.796625;-1.2321848;-2.8496659;;493.8
721.0;575.5;;;;;;;;;;;;;;0.70198673;-0.16327402;-0.60683006;;;;;493.8
721.0;575.5;;;;;;;;;;;;;;;;;20.050661;-0.10299997;-4.1734066;;503.4
721.0;575.5;;;;;;;;;;;;;;0.65364546;-0.13171789;-0.5584277;;;;;503.4
721.0;575.5;;;;;;;;;;;;;;;;;24.37666;-2.2621846;-5.939665;;503.4
721.0;575.5;;;;;;;;;;;;;;0.638081;-0.0872219;-0.5382855;;;;;503.4
721.0;575.5;;;;;;;;;;;;;;;;;29.042177;-4.6006656;-8.461257;;513.0
721.0;575.5;;;;;;;;;;;;;;0.6511429;-0.015686514;-0.5001373;;;;;513.0
721.0;575.5;;;;;;;;;;;;;;;;;30.213324;-7.4007387;-10.1130705;;513.0
721.0;575.5;;;;;;;;;;;;;;0.6702475;0.03912473;-0.50825524;;;;;513.0
721.0;590.8;;;;;;;;;;;;;;;;;30.70925;-9.945219;-11.05533;;522.7
721.0;590.8;;;;;;;;;;;;;;0.68514055;0.072634056;-0.5559252;;;;;522.7
721.0;590.8;;;;;;;;;;;;;;;;;31.495102;-10.174108;-11.413922;;522.7
721.0;590.8;;;;;;;;;;;;;;0.69606614;0.09076205;-0.5785699;;;;;522.7
721.0;590.8;;;;;;;;;;;;;;;;;31.491287;-9.334849;-10.952331;;532.4
721.0;590.8;;;;;;;;;;;;;;0.6880703;0.102847375;-0.5912656;;;;;532.4
721.0;590.8;;;;;;;;;;;;;;;;;28.885769;-7.415998;-9.166997;;532.4
721.0;590.8;;;;;;;;;;;;;;0.6798303;0.10736412;-0.6028016;;;;;532.4
721.0;590.8;;;;;;;;;;;;;;;;;24.117252;-3.07474;-6.248665;;541.9
721.0;590.8;;;;;;;;;;;;;;0.63002414;0.09363079;-0.5871151;;;;;541.9
721.0;590.8;;;;;;;;;;;;;;;;;19.573809;1.0681478;-2.8344066;;541.9
721.0;590.8;;;;;;;;;;;;;;0.5751518;0.071108125;-0.5332194;;;;;541.9
781.0;636.1;;;;;;;;;;;;;;;;;18.269142;1.6670736;0.24033326;;551.6
781.0;636.1;;;;;;;;;;;;;;0.52845854;0.042115543;-0.50068665;;;;;551.6
781.0;636.1;;;;;;;;;;;;;;;;;19.421217;-0.34333324;2.906888;;551.6
781.0;636.1;;;;;;;;;;;;;;0.50129706;0.037110507;-0.5126499;;;;;551.6
781.0;636.1;;;;;;;;;;;;;;;;;21.107365;-1.8692588;5.405591;;561.2
781.0;636.1;;;;;;;;;;;;;;0.4888455;0.059083834;-0.52424693;;;;;561.2
781.0;636.1;;;;;;;;;;;;;;;;;22.82403;-3.0098882;8.178961;;561.2
781.0;636.1;;;;;;;;;;;;;;0.49861142;0.11438338;-0.51435894;;;;;561.2
781.0;636.1;;;;;;;;;;;;;;;;;23.86166;-4.7685175;11.345256;;570.8
781.0;636.1;;;;;;;;;;;;;;0.52449113;0.18720053;-0.5221717;;;;;570.8
781.0;636.1;;;;;;;;;;;;;;;;;24.277475;-7.4045534;14.683218;;570.8
781.0;636.1;;;;;;;;;;;;;;0.55818355;0.24323252;-0.5377361;;;;;570.8
781.0;651.2;;;;;;;;;;;;;;;;;23.358105;-11.276589;17.448957;;580.4
781.0;651.2;;;;;;;;;;;;;;0.5962706;0.2931608;-0.5504929;;;;;580.4
781.0;651.2;;;;;;;;;;;;;;;;;21.984772;-16.167181;19.428846;;580.4
781.0;651.2;;;;;;;;;;;;;;0.65413374;0.34626302;-0.5771661;;;;;580.4
781.0;651.2;;;;;;;;;;;;;;;;;19.100773;-19.234291;20.767845;;590.1
781.0;651.2;;;;;;;;;;;;;;0.70943326;0.41578418;-0.57832575;;;;;590.1
781.0;651.2;;;;;;;;;;;;;;;;;13.779107;-20.38255;22.114475;;590.1
781.0;651.2;;;;;;;;;;;;;;0.75276953;0.46729943;-0.59279156;;;;;590.1
781.0;651.2;;;;;;;;;;;;;;;;;31990;-18.143253;22.968992;;599.8
781.0;651.2;;;;;;;;;;;;;;0.78328806;0.51319927;-0.5863216;;;;;599.8
781.0;651.2;;;;;;;;;;;;;;;;;3.0175178;-13.451034;23.430586;;599.8
781.0;651.2;;;;;;;;;;;;;;0.79262674;0.5378582;-0.5553758;;;;;599.8
842.0;695.9;;;;;;;;;;;;;;;;;-2.517777;-8.9991455;23.586992;;609.3
842.0;695.9;;;;;;;;;;;;;;0.77584153;0.54304636;-0.51765496;;;;;609.3
842.0;695.9;;;;;;;;;;;;;;;;;-7.507553;-5.5352945;23.686178;;609.3
842.0;695.9;;;;;;;;;;;;;;0.7394635;0.5363323;-0.4871975;;;;;609.3
842.0;695.9;;;;;;;;;;;;;;;;;-11.291848;-2.1477401;23.613697;;618.9
842.0;695.9;;;;;;;;;;;;;;0.69588304;0.51368755;-0.4312876;;;;;618.9
842.0;695.9;;;;;;;;;;;;;;;;;-13.660849;-0.37385175;23.33903;;618.9
842.0;695.9;;;;;;;;;;;;;;0.6560869;0.46467483;-0.38074893;;;;;618.9
842.0;695.9;;;;;;;;;;;;;;;;;-15.339366;0.65614796;22.762993;;628.6
842.0;695.9;;;;;;;;;;;;;;0.62977993;0.41584522;-0.34205145;;;;;628.6
842.0;695.9;;;;;;;;;;;;;;;;;-17.09418;0.8125553;22.41203;;628.6
842.0;695.9;;;;;;;;;;;;;;0.5975524;0.3551134;-0.33411664;;;;;628.6
842.0;711.0;;;;;;;;;;;;;;;;;-18.410292;1.6670736;21.80929;;638.2
842.0;711.0;;;;;;;;;;;;;;0.5489059;0.30176702;-0.3404645;;;;;638.2
842.0;711.0;;;;;;;;;;;;;;;;;-18.108921;1.2703329;20.78692;;638.2
842.0;711.0;;;;;;;;;;;;;;0.48597676;0.2445143;-0.36347544;;;;;638.2
842.0;711.0;;;;;;;;;;;;;;;;;-15.568254;-1.7052218;18.990143;;647.8
842.0;711.0;;;;;;;;;;;;;;0.44575334;0.20026246;-0.39710686;;;;;647.8
842.0;711.0;;;;;;;;;;;;;;;;;-10.982849;-4.0665917;16.464737;;647.8
842.0;711.0;;;;;;;;;;;;;;0.42860195;0.17786187;-0.4136479;;;;;647.8
842.0;711.0;;;;;;;;;;;;;;;;;-6.195257;-4.9821467;13.8859215;;657.5
842.0;711.0;;;;;;;;;;;;;;0.39704582;0.19708854;-0.39283425;;;;;657.5
842.0;711.0;;;;;;;;;;;;;;;;;-5.6154056;-7.255776;12.382885;;657.5
842.0;711.0;;;;;;;;;;;;;;0.36426893;0.19263284;-0.38966033;;;;;657.5
901.0;756.6;;;;;;;;;;;;;;;;;-3.4714804;-10.593738;10.849331;;667.1
901.0;756.6;;;;;;;;;;;;;;0.3509018;0.20319223;-0.39741203;;;;;667.1
901.0;756.6;;;;;;;;;;;;;;;;;-1.6327403;-12.840663;9.437849;;667.1
901.0;756.6;;;;;;;;;;;;;;0.33924374;0.22302927;-0.39344463;;;;;667.1
901.0;756.6;;;;;;;;;;;;;;;;;1.1024811;-15.793329;7.8966646;;676.7
901.0;756.6;;;;;;;;;;;;;;0.34223455;0.26013976;-0.40333262;;;;;676.7
901.0;756.6;;;;;;;;;;;;;;;;;3.765221;-19.333477;6.6644797;;676.7
901.0;756.6;;;;;;;;;;;;;;0.33753473;0.305063;-0.4243904;;;;;676.7
901.0;756.6;;;;;;;;;;;;;;;;;5.954924;-23.724327;5.42848;;686.4
901.0;756.6;;;;;;;;;;;;;;0.34382153;0.35047457;-0.44727927;;;;;686.4
901.0;756.6;;;;;;;;;;;;;;;;;8.022553;-27.546768;3.7385175;;686.4
901.0;756.6;;;;;;;;;;;;;;0.3852046;0.40919217;-0.50740075;;;;;686.4
901.0;763.7;;;;;;;;;;;;;;;;;9.392072;-26.322214;1.6441847;;696.1
901.0;763.7;;;;;;;;;;;;;;0.39020967;0.46815392;-0.5265664;;;;;696.1
901.0;763.7;;;;;;;;;;;;;;;;;9.273812;-23.22077;-0.5645924;;696.1
901.0;763.7;;;;;;;;;;;;;;0.403943;0.5251625;-0.562212;;;;;696.1
901.0;763.7;;;;;;;;;;;;;;;;;8.251442;-15.072329;-3.0480363;;705.7
901.0;763.7;;;;;;;;;;;;;;0.44752342;0.575396;-0.5580615;;;;;705.7
901.0;763.7;;;;;;;;;;;;;;;;;3.1624806;-2.1439252;-5.558183;;705.7
901.0;763.7;;;;;;;;;;;;;;0.46070743;0.59926146;-0.46852016;;;;;705.7
901.0;763.7;;;;;;;;;;;;;;;;;-4.4747763;5.672628;-7.2977386;;715.4
901.0;763.7;;;;;;;;;;;;;;0.45899838;0.5841853;-0.41511276;;;;;715.4
901.0;763.7;;;;;;;;;;;;;;;;;-11.410108;10.467849;-9.178442;;715.4
901.0;763.7;;;;;;;;;;;;;;0.4655904;0.57289344;-0.41456345;;;;;715.4
961.0;816.5;;;;;;;;;;;;;;;;;-16.129032;15.442366;-12.230293;;724.9
961.0;816.5;;;;;;;;;;;;;;0.4629658;0.56892604;-0.40443128;;;;;724.9
961.0;816.5;;;;;;;;;;;;;;;;;-18.681143;19.417402;-16.29307;;724.9
961.0;816.5;;;;;;;;;;;;;;0.4674215;0.5668508;-0.36103398;;;;;724.9
961.0;816.5;;;;;;;;;;;;;;;;;-18.848995;17.880032;-20.821253;;734.6
961.0;816.5;;;;;;;;;;;;;;0.48268074;0.60048217;-0.39606923;;;;;734.6
961.0;816.5;;;;;;;;;;;;;;;;;-18.715477;16.949217;-25.196844;;734.6
961.0;816.5;;;;;;;;;;;;;;0.4801172;0.60158086;-0.44026002;;;;;734.6
961.0;816.5;;;;;;;;;;;;;;;;;-19.53566;16.933958;-29.240547;;744.3
961.0;816.5;;;;;;;;;;;;;;0.48146;0.59279156;-0.4323252;;;;;744.3
961.0;816.5;;;;;;;;;;;;;;;;;-20.38255;14.992217;-32.132175;;744.3
961.0;816.5;;;;;;;;;;;;;;0.50825524;0.5244301;-0.4102298;;;;;744.3
961.0;876.8;;;;;;;;;;;;;;;;;-20.561846;15.442366;-34.51262;;753.9
961.0;876.8;;;;;;;;;;;;;;0.54896694;0.45844904;-0.3431501;;;;;753.9
961.0;876.8;;;;;;;;;;;;;;;;;-20.88229;16.224403;-36.736656;;753.9
961.0;876.8;;;;;;;;;;;;;;0.5652028;0.4102298;-0.2702109;;;;;753.9
961.0;876.8;;;;;;;;;;;;;;;;;-21.61092;13.451034;-38.777584;;763.6
961.0;876.8;;;;;;;;;;;;;;0.5874203;0.36695457;-0.25135043;;;;;763.6
961.0;876.8;;;;;;;;;;;;;;;;;-19.539474;7.8127384;-41.287727;;763.6
961.0;876.8;;;;;;;;;;;;;;0.64357436;0.36390272;-0.3014008;;;;;763.6
961.0;876.8;;;;;;;;;;;;;;;;;-15.060884;5.348369;-44.11069;;773.2
961.0;876.8;;;;;;;;;;;;;;0.63142794;0.4011353;-0.382519;;;;;773.2
961.0;876.8;;;;;;;;;;;;;;;;;-11.581775;8.81222;-46.998505;;773.2
961.0;876.8;;;;;;;;;;;;;;0.5368816;0.42762536;-0.43635365;;;;;773.2
1021.0;877.5;;;;;;;;;;;;;;;;;-9.117405;9.1975155;-48.83343;;782.8
1021.0;877.5;;;;;;;;;;;;;;0.50068665;0.47163305;-0.5108799;;;;;782.8
1021.0;877.5;;;;;;;;;;;;;;;;;-11.154515;14.069033;-50.64928;;782.8
1021.0;877.5;;;;;;;;;;;;;;0.540788;0.49226356;-0.55006564;;;;;782.8
1021.0;877.5;;;;;;;;;;;;;;;;;-14.931181;29.652548;-54.63958;;792.3
1021.0;877.5;;;;;;;;;;;;;;0.5442061;0.5691702;-0.42725915;;;;;792.3
1021.0;877.5;;;;;;;;;;;;;;;;;-17.075106;40.36073;-59.560688;;792.3
1021.0;877.5;;;;;;;;;;;;;;0.5229652;0.63490707;-0.33753473;;;;;792.3
1021.0;877.5;;;;;;;;;;;;;;;;;-17.0484;45.20554;-64.90906;;802.0
1021.0;877.5;;;;;;;;;;;;;;0.49922177;0.69466233;-0.33533737;;;;;802.0
1021.0;877.5;;;;;;;;;;;;;;;;;-19.341106;50.813316;-70.135345;;802.0
1021.0;877.5;;;;;;;;;;;;;;0.4977569;0.73049104;-0.31293678;;;;;802.0
1021.0;878.3;;;;;;;;;;;;;;;;;-22.423473;57.12302;-76.43742;;811.7
1021.0;878.3;;;;;;;;;;;;;;0.48054445;0.804651;-0.2580645;;;;;811.7
1021.0;878.3;;;;;;;;;;;;;;;;;-25.624104;64.37117;-81.82775;;811.7
1021.0;878.3;;;;;;;;;;;;;;0.4524674;0.8709372;-0.20722067;;;;;811.7
1021.0;878.3;;;;;;;;;;;;;;;;;-27.504807;68.02576;-87.847534;;821.3
1021.0;878.3;;;;;;;;;;;;;;0.49293497;0.8732566;-0.17993714;;;;;821.3
1021.0;878.3;;;;;;;;;;;;;;;;;-29.175695;69.31898;-95.572525;;821.3
1021.0;878.3;;;;;;;;;;;;;;0.54664755;0.897;-0.18134098;;;;;821.3
1021.0;878.3;;;;;;;;;;;;;;;;;-32.109287;67.01483;-102.053894;;831.0
1021.0;878.3;;;;;;;;;;;;;;0.6212348;0.9317911;-0.24372081;;;;;831.0
1021.0;878.3;;;;;;;;;;;;;;;;;-36.870174;64.13465;-106.933044;;831.0
1021.0;878.3;;;;;;;;;;;;;;0.76314586;0.9330119;-0.33674124;;;;;831.0
1079.0;936.9;;;;;;;;;;;;;;;;;-42.6191;59.564503;-112.31574;;840.6
1079.0;936.9;;;;;;;;;;;;;;0.9000519;0.93215734;-0.4839015;;;;;840.6
1079.0;936.9;;;;;;;;;;;;;;;;;-49.93591;54.956203;-116.90497;;840.6
1079.0;936.9;;;;;;;;;;;;;;1.0416578;0.94338816;-0.62611777;;;;;840.6
1079.0;936.9;;;;;;;;;;;;;;;;;-60.811943;49.90539;-118.48811;;850.1
1079.0;936.9;;;;;;;;;;;;;;1.229896;0.8849147;-0.73464155;;;;;850.1
1079.0;936.9;;;;;;;;;;;;;;;;;-71.04709;42.352062;-115.97797;;850.1
1079.0;936.9;;;;;;;;;;;;;;1.4861293;0.7965331;-0.8545183;;;;;850.1
1079.0;936.9;;;;;;;;;;;;;;;;;-77.64291;34.45921;-111.13315;;859.8
1079.0;936.9;;;;;;;;;;;;;;1.7697684;0.66835535;-1.0096133;;;;;859.8
1079.0;936.9;;;;;;;;;;;;;;;;;-80.91219;30.625324;-106.07852;;859.8
1079.0;936.9;;;;;;;;;;;;;;1.9749138;0.50215155;-1.162267;;;;;859.8
1079.0;937.7;;;;;;;;;;;;;;;;;-84.15098;32.395397;-102.824486;;869.3
1079.0;937.7;;;;;;;;;;;;;;1.9970702;0.29657888;-1.2814722;;;;;869.3
1079.0;937.7;;;;;;;;;;;;;;;;;-90.65141;40.700245;-103.7019;;869.3
1079.0;937.7;;;;;;;;;;;;;;1.9729606;0.10455641;-1.337199;;;;;869.3
1079.0;937.7;;;;;;;;;;;;;;;;;-98.12464;54.017765;-108.14997;;879.0
1079.0;937.7;;;;;;;;;;;;;;1.7860042;-0.03070162;-1.2709738;;;;;879.0
1079.0;937.7;;;;;;;;;;;;;;;;;-103.37763;62.52098;-111.65578;;879.0
1079.0;937.7;;;;;;;;;;;;;;1.4924161;-0.111636706;-1.124363;;;;;879.0
1079.0;937.7;;;;;;;;;;;;;;;;;-106.50578;64.95102;-110.85848;;888.6
1079.0;937.7;;;;;;;;;;;;;;1.2373425;-0.20233771;-0.9286172;;;;;888.6
1079.0;937.7;;;;;;;;;;;;;;;;;-104.23597;50.954464;-106.940674;;888.6
1079.0;937.7;;;;;;;;;;;;;;1.2985015;-0.15851314;-0.90133363;;;;;888.6
1140.0;997.3;;;;;;;;;;;;;;;;;-100.47838;38.31599;-102.15689;;898.3
1140.0;997.3;;;;;;;;;;;;;;1.3893857;-0.13904233;-1.0710166;;;;;898.3
1140.0;997.3;;;;;;;;;;;;;;;;;-94.779045;37.06473;-97.38075;;898.3
1140.0;997.3;;;;;;;;;;;;;;1.4347972;-0.06659139;-1.1902219;;;;;898.3
1140.0;997.3;;;;;;;;;;;;;;;;;-86.06983;37.915436;-93.97031;;907.9
1140.0;997.3;;;;;;;;;;;;;;1.4238105;-0.0076296274;-1.1832637;;;;;907.9
1140.0;997.3;;;;;;;;;;;;;;;;;-74.99924;34.699543;-92.48634;;907.9
1140.0;997.3;;;;;;;;;;;;;;1.4253365;0.0113528855;-1.162267;;;;;907.9
1140.0;997.3;;;;;;;;;;;;;;;;;-64.76791;33.310955;-92.677086;;917.6
1140.0;997.3;;;;;;;;;;;;;;1.4184393;0.06915494;-1.1691641;;;;;917.6
1140.0;997.3;;;;;;;;;;;;;;;;;-57.718132;37.400433;-93.13867;;917.6
1140.0;997.3;;;;;;;;;;;;;;1.361858;0.08966338;-1.0962859;;;;;917.6
1140.0;1004.4;;;;;;;;;;;;;;;;;-54.158913;41.398357;-94.51964;;927.3
1140.0;1004.4;;;;;;;;;;;;;;1.421186;0.20270394;-0.9544969;;;;;927.3
1140.0;1004.4;;;;;;;;;;;;;;;;;-51.84332;42.378765;-92.79916;;927.3
1140.0;1004.4;;;;;;;;;;;;;;1.4482254;0.21240883;-0.8844264;;;;;927.3
1140.0;1004.4;;;;;;;;;;;;;;;;;-49.558243;47.82632;-91.120636;;936.9
1140.0;1004.4;;;;;;;;;;;;;;1.4763024;0.22791223;-0.8146611;;;;;936.9
1140.0;1004.4;;;;;;;;;;;;;;;;;-43.55373;51.82806;-89.384895;;936.9
1140.0;1004.4;;;;;;;;;;;;;;1.4454787;0.21546067;-0.7737663;;;;;936.9
1140.0;1004.4;;;;;;;;;;;;;;;;;-33.562733;52.251503;-89.50316;;946.4
1140.0;1004.4;;;;;;;;;;;;;;1.3752251;0.25959045;-0.7563707;;;;;946.4
1140.0;1004.4;;;;;;;;;;;;;;;;;-23.987549;47.364727;-88.87371;;946.4
1140.0;1004.4;;;;;;;;;;;;;;1.3364666;0.31092256;-0.75392926;;;;;946.4
1200.0;1057.5;;;;;;;;;;;;;;;;;-17.811365;43.294323;-86.3712;;956.0
1200.0;1057.5;;;;;;;;;;;;;;1.3345134;0.36793116;-0.7257302;;;;;956.0
1200.0;1057.5;;;;;;;;;;;;;;;;;-14.778588;41.203804;-81.13345;;956.0
1200.0;1057.5;;;;;;;;;;;;;;1.3145543;0.4001587;-0.6556597;;;;;956.0
1200.0;1057.5;;;;;;;;;;;;;;;;;-15.717033;38.20536;-74.07605;;965.7
1200.0;1057.5;;;;;;;;;;;;;;1.2880032;0.41822565;-0.5879696;;;;;965.7
1200.0;1057.5;;;;;;;;;;;;;;;;;-18.379772;36.862545;-65.782646;;965.7
1200.0;1057.5;;;;;;;;;;;;;;1.2257454;0.39875484;-0.511063;;;;;965.7
1200.0;1057.5;;;;;;;;;;;;;;;;;-22.095402;37.667473;-57.17261;;975.3
1200.0;1057.5;;;;;;;;;;;;;;1.1537217;0.38721886;-0.4243904;;;;;975.3
1200.0;1057.5;;;;;;;;;;;;;;;;;-25.7004;38.14432;-48.18873;;975.3
1200.0;1057.5;;;;;;;;;;;;;;1.0614338;0.3488876;-0.3509018;;;;;975.3
1200.0;1072.4;;;;;;;;;;;;;;;;;-27.996918;36.40858;-40.07843;;984.8
1200.0;1072.4;;;;;;;;;;;;;;0.96963406;0.32758567;-0.30591753;;;;;984.8
1200.0;1072.4;;;;;;;;;;;;;;;;;-29.217659;33.619953;-33.09351;;984.8
1200.0;1072.4;;;;;;;;;;;;;;0.87856686;0.29932556;-0.28547013;;;;;984.8
1200.0;1072.4;;;;;;;;;;;;;;;;;-29.251991;29.499954;-27.100437;;994.5
1200.0;1072.4;;;;;;;;;;;;;;0.8196051;0.27423933;-0.276986;;;;;994.5
1200.0;1072.4;;;;;;;;;;;;;;;;;-28.37077;24.342327;-21.351513;;994.5
1200.0;1072.4;;;;;;;;;;;;;;0.78395945;0.26471755;-0.2741783;;;;;994.5
1200.0;1072.4;;;;;;;;;;;;;;;;;-27.23777;18.574327;-15.362254;;1004.2
1200.0;1072.4;;;;;;;;;;;;;;0.75698113;0.2494583;-0.276986;;;;;1004.2
1200.0;1072.4;;;;;;;;;;;;;;;;;-27.104252;13.332774;-8.705404;;1004.2
1200.0;1072.4;;;;;;;;;;;;;;0.75557727;0.22577593;-0.27314067;;;;;1004.2
1205.0;1117.6;;;;;;;;;;;;;;;;;-28.130436;8.651998;-1.7281106;;1013.8
1205.0;1117.6;;;;;;;;;;;;;;0.75716424;0.18335521;-0.2677694;;;;;1013.8
1205.0;1117.6;;;;;;;;;;;;;;;;;-29.477066;4.9439983;5.1118503;;1013.8
1205.0;1117.6;;;;;;;;;;;;;;0.7630848;0.12158574;-0.26221505;;;;;1013.8
1205.0;1117.6;;;;;;;;;;;;;;;;;-30.415508;2.2583697;21125;;1023.4
1205.0;1117.6;;;;;;;;;;;;;;0.7604602;0.08252205;-0.245674;;;;;1023.4
1205.0;1117.6;;;;;;;;;;;;;;;;;-31.68203;-0.48829615;18.250069;;1023.4
1205.0;1117.6;;;;;;;;;;;;;;0.73213905;0.025696585;-0.22815637;;;;;1023.4
1205.0;1117.6;;;;;;;;;;;;;;;;;-31.2891;-5.714591;23.377178;;1033.0
1205.0;1117.6;;;;;;;;;;;;;;0.713889;-0.0336314;-0.25281534;;;;;1033.0
1205.0;1117.6;;;;;;;;;;;;;;;;;-27.809992;-8.648182;26.177252;;1033.0
1205.0;1117.6;;;;;;;;;;;;;;0.71736807;-0.08465835;-0.30341503;;;;;1033.0
1205.0;1118.8;;;;;;;;;;;;;;;;;-21.446882;-6.324961;28.03125;;1042.6
1205.0;1118.8;;;;;;;;;;;;;;0.7021699;-0.117435224;-0.31055635;;;;;1042.6
1205.0;1118.8;;;;;;;;;;;;;;;;;-14.446699;-3.4447768;30.133213;;1042.6
1205.0;1118.8;;;;;;;;;;;;;;0.63795894;-0.14630574;-0.32264167;;;;;1042.6
1205.0;1118.8;;;;;;;;;;;;;;;;;-6.4813685;-3.3722954;32.700584;;1052.2
1205.0;1118.8;;;;;;;;;;;;;;0.5993225;-0.14636678;-0.29322183;;;;;1052.2
1205.0;1118.8;;;;;;;;;;;;;;;;;-1.4152958;-5.283517;36.049988;;1052.2
1205.0;1118.8;;;;;;;;;;;;;;0.6227607;-0.13660085;-0.25122836;;;;;1052.2
1205.0;1118.8;;;;;;;;;;;;;;;;;1.7548143;-3.9674063;39.57869;;1061.9
1205.0;1118.8;;;;;;;;;;;;;;0.65004426;-0.12933744;-0.21375164;;;;;1061.9
1205.0;1118.8;;;;;;;;;;;;;;;;;5.1271095;0.053407393;42.306286;;1061.9
1205.0;1118.8;;;;;;;;;;;;;;0.6389355;-0.124881744;-0.18567461;;;;;1061.9
1260.0;1127.8;;;;0.0;0.0;0.0;;;;;;;;;;;;;;;
1260.0;1127.8;;;;-0.11354829;0.053428657;-0.06790543;;;;;;;;;;;;;;;
1260.0;1127.8;;;;-0.5018006;0.104137436;-0.690033;;;;;;;;;;;;;;;
1260.0;1127.8;;;;-0.5432587;0.1035309;-0.79083264;;;;;;;;;;;;;;;
1260.0;1127.8;;;;-0.53311163;0.100235;-0.78408444;;;;;;;;;;;;;;;
1260.0;1137.7;;;;-0.5211106;0.097534195;-0.7766305;;;;;;;;;;;;;;;
1260.0;1137.7;;;;-0.50916296;0.09459306;-0.76976025;;;;;;;;;;;;;;;
1260.0;1137.7;;;;-0.49775702;0.09187318;-0.7630731;;;;;;;;;;;;;;;
1260.0;1137.7;;;;-0.48782355;0.08894349;-0.7556535;;;;;;;;;;;;;;;
1260.0;1137.7;;;;-0.47846228;0.08615876;-0.7463494;;;;;;;;;;;;;;;
1260.0;1139.1;57480;57535;14808;;;;;;;;;;;;;;;;;;
1260.0;1147.7;;;;-0.4709893;0.082931526;-0.73880774;;;;;;;;;;;;;;;
1260.0;1147.7;;;;-0.46532446;0.08015061;-0.7333146;;;;;;;;;;;;;;;
1260.0;1147.7;;;;-0.46057135;0.07821656;-0.7280007;;;;;;;;;;;;;;;
1260.0;1147.7;;;;-0.45722586;0.07708741;-0.7214852;;;;;;;;;;;;;;;
1260.0;1147.7;;;;-0.45471197;0.075263985;-0.7140313;;;;;;;;;;;;;;;
1262.0;1157.8;;;;-0.452694;0.072860725;-0.7073937;;;;;;;;;;;;;;;
1262.0;1157.8;;;;-0.4496842;0.06960679;-0.7017899;;;;;;;;;;;;;;;
1262.0;1157.8;;;;-0.4466973;0.06630326;-0.69455725;;;;;;;;;;;;;;;
1262.0;1157.8;;;;-0.44414526;0.06275559;-0.6866341;;;;;;;;;;;;;;;
1262.0;1157.8;;;;-0.44020087;0.059703834;-0.6786347;;;;;;;;;;;;;;;
1262.0;1159.2;73867;73830;14803;;;;;;;;;;;;;;;;;;
1262.0;1165.6;;;;;;;;;;;;;0;;;;;;;;
1262.0;1165.6;;;;;;;;;;;;;0;;;;;;;;
1262.0;1165.6;;;;;;;;;;;;;-1;;;;;;;;
1262.0;1165.6;;;;;;;;;;;;;-2;;;;;;;;
1262.0;1165.6;;;;;;;;;;;;;-3;;;;;;;;
1262.0;1167.9;;;;-0.43459707;0.056137092;-0.6706963;;;;;;;;;;;;;;;
1262.0;1167.9;;;;-0.42776495;0.052860267;-0.66361624;;;;;;;;;;;;;;;
1262.0;1167.9;;;;-0.41904074;0.049747474;-0.65653616;;;;;;;;;;;;;;;
1262.0;1167.9;;;;-0.40899283;0.04723359;-0.64656454;;;;;;;;;;;;;;;
1262.0;1167.9;;;;-0.39809424;0.044464115;-0.634636;;;;;;;;;;;;;;;
1262.0;1178.0;;;;-0.38909918;0.042175297;-0.6225205;;;;;;;;;;;;;;;
1262.0;1178.0;;;;-0.3830071;0.039955143;-0.612732;;;;;;;;;;;;;;;
1262.0;1178.0;;;;-0.37831885;0.03805161;-0.605774;;;;;;;;;;;;;;;
1262.0;1178.0;;;;-0.37303165;0.036682133;-0.5982514;;;;;;;;;;;;;;;
1262.0;1178.0;;;;-0.36680987;0.03484345;-0.5889512;;;;;;;;;;;;;;;
1263.0;1178.6;;;;;;;;;;;;;;;;;9.918515;2.4529252;43.630024;;1071.6
1263.0;1178.6;;;;;;;;;;;;;;0.611713;-0.12305063;-0.17011017;;;;;1071.6
1263.0;1178.6;;;;;;;;;;;;;;;;;16.07944;1.8501847;43.809322;;1071.6
1263.0;1178.6;;;;;;;;;;;;;;0.5719779;-0.16418958;-0.18689536;;;;;1071.6
1263.0;1178.6;;;;;;;;;;;;;;;;;24.407179;1.1329997;42.424545;;1081.1
1263.0;1178.6;;;;;;;;;;;;;;0.53047276;-0.19415876;-0.20465712;;;;;1081.1
1263.0;1178.6;;;;;;;;;;;;;;;;;33.429214;0.9155553;40.70406;;1081.1
1263.0;1178.6;;;;;;;;;;;;;;0.5056307;-0.21015045;-0.18420972;;;;;1081.1
1263.0;1178.6;;;;;;;;;;;;;;;;;42.851803;-0.14877774;39.479504;;1090.7
1263.0;1178.6;;;;;;;;;;;;;;0.48670918;-0.22327341;-0.17883846;;;;;1090.7
1263.0;1178.6;;;;;;;;;;;;;;;;;52.549057;-0.8125553;38.361767;;1090.7
1263.0;1178.6;;;;;;;;;;;;;;0.4580218;-0.23395489;-0.15558337;;;;;1090.7
1263.0;1179.3;90258;90164;14800;;;;;;;;;;;;;;;;;;
1264.0;1185.2;;;;;;;;;;;;;;;;;61.834316;-3.2692955;37.465286;;1100.3
1264.0;1185.2;;;;;;;;;;;;;;0.4502701;-0.23487045;-0.15381329;;;;;1100.3
1264.0;1185.2;;;;;;;;;;;;;;;;;70.6389;-6.187628;36.904507;;1100.3
1264.0;1185.2;;;;;;;;;;;;;;0.46406445;-0.21637623;-0.1605884;;;;;1100.3
1264.0;1185.2;;;;;;;;;;;;;;;;;77.929016;-7.717368;36.885433;;1110.0
1264.0;1185.2;;;;;;;;;;;;;;0.46449172;-0.18164617;-0.14630574;;;;;1110.0
1264.0;1185.2;;;;;;;;;;;;;;;;;83.65887;-9.239479;37.862026;;1110.0
1264.0;1185.2;;;;;;;;;;;;;;0.45551926;-0.1607715;-0.14007996;;;;;1110.0
1264.0;1185.2;;;;;;;;;;;;;;;;;88.42738;-9.9642935;38.666954;;1119.6
1264.0;1185.2;;;;;;;;;;;;;;0.43073824;-0.13562426;-0.1297647;;;;;1119.6
1264.0;1185.2;;;;;;;;;;;;;;;;;93.66131;-12.371441;38.682213;;1119.6
1264.0;1185.2;;;;;;;;;;;;;;0.4054689;-0.12268441;-0.1640675;;;;;1119.6
1264.0;1187.8;;;;-0.3611832;0.03287125;-0.5775605;;;;;;;;;;;;;;;
1264.0;1187.8;;;;-0.35910037;0.030879978;-0.5646592;;;;;;;;;;;;;;;
1264.0;1187.8;;;;-0.35984805;0.028251652;-0.5520707;;;;;;;;;;;;;;;
1264.0;1187.8;;;;-0.36282352;0.025974277;-0.54157263;;;;;;;;;;;;;;;
1264.0;1187.8;;;;-0.3658829;0.02474213;-0.5337792;;;;;;;;;;;;;;;
1264.0;1197.8;;;;-0.36943057;0.023162844;-0.5295792;;;;;;;;;;;;;;;
1264.0;1197.8;;;;-0.37209705;0.021514894;-0.52769095;;;;;;;;;;;;;;;
1264.0;1197.8;;;;-0.37368777;0.019355776;-0.52816397;;;;;;;;;;;;;;;
1264.0;1197.8;;;;-0.3739548;0.017269136;-0.53145224;;;;;;;;;;;;;;;
1264.0;1197.8;;;;-0.37373737;0.01527405;-0.5360108;;;;;;;;;;;;;;;
1264.0;1199.3;106626;106546;14795;;;;;;;;;;;;;;;;;;
1320.0;1205.6;;;;;;;;;;;;;-7;;;;;;;;
1320.0;1205.6;;;;;;;;;;;;;-6;;;;;;;;
1320.0;1205.6;;;;;;;;;;;;;-8;;;;;;;;
1320.0;1205.6;;;;;;;;;;;;;-19;;;;;;;;
1320.0;1205.6;;;;;;;;;;;;;-11;;;;;;;;
1320.0;1207.7;;;;-0.37458423;0.013618471;-0.54153067;;;;;;;;;;;;;;;
1320.0;1207.7;;;;-0.37665182;0.013221743;-0.5458718;;;;;;;;;;;;;;;
1320.0;1207.7;;;;-0.37982184;0.013057711;-0.5496178;;;;;;;;;;;;;;;
1320.0;1207.7;;;;-0.38400275;0.013240816;-0.55424887;;;;;;;;;;;;;;;
1320.0;1207.7;;;;-0.3881989;0.013900759;-0.558117;;;;;;;;;;;;;;;
1320.0;1217.8;;;;-0.39176184;0.014888765;-0.561966;;;;;;;;;;;;;;;
1320.0;1217.8;;;;-0.3951531;0.016220095;-0.5638123;;;;;;;;;;;;;;;
1320.0;1217.8;;;;-0.3973809;0.01736069;-0.56454855;;;;;;;;;;;;;;;
1320.0;1217.8;;;;-0.39918524;0.018142702;-0.56493;;;;;;;;;;;;;;;
1320.0;1217.8;;;;-0.40121847;0.019412996;-0.5654412;;;;;;;;;;;;;;;
1320.0;1219.4;122979;123069;14808;;;;;;;;;;;;;;;;;;
1320.0;1227.9;;;;-0.4019776;0.020614626;-0.5676804;;;;;;;;;;;;;;;
1320.0;1227.9;;;;-0.402649;0.022239687;-0.5695916;;;;;;;;;;;;;;;
1320.0;1227.9;;;;-0.40253836;0.023693088;-0.5699387;;;;;;;;;;;;;;;
1320.0;1227.9;;;;-0.40281302;0.024726871;-0.5681115;;;;;;;;;;;;;;;
1320.0;1227.9;;;;-0.40331274;0.024978641;-0.57098776;;;;;;;;;;;;;;;
1321.0;1238.1;;;;;;;;;;;;;;;;;100.48219;-13.950773;36.84347;;1129.3
1321.0;1238.1;;;;;;;;;;;;;;0.38850063;-0.086794645;-0.20929594;;;;;1129.3
1321.0;1238.1;;;;;;;;;;;;;;;;;108.832825;-14.957885;33.825954;;1129.3
1321.0;1238.1;;;;;;;;;;;;;;0.37696463;-0.04956206;-0.2544023;;;;;1129.3
1321.0;1238.1;;;;;;;;;;;;;;;;;117.27119;-15.491959;30.064547;;1138.9
1321.0;1238.1;;;;;;;;;;;;;;0.40357676;0.054322947;-0.28772852;;;;;1138.9
1321.0;1238.1;;;;;;;;;;;;;;;;;123.043;-14.8625145;27.233955;;1138.9
1321.0;1238.1;;;;;;;;;;;;;;0.41407514;0.16400647;-0.30878627;;;;;1138.9
1321.0;1238.1;;;;;;;;;;;;;;;;;124.86648;-12.79107;25.997955;;1148.4
1321.0;1238.1;;;;;;;;;;;;;;0.4223762;0.2512894;-0.31299785;;;;;1148.4
1321.0;1238.1;;;;;;;;;;;;;;;;;124.988556;-10.093997;25.078585;;1148.4
1321.0;1238.1;;;;;;;;;;;;;;0.4267098;0.33606982;-0.31965086;;;;;1148.4
1321.0;1238.0;;;;-0.40316015;0.023681644;-0.5751992;;;;;;;;;;;;;;;
1321.0;1238.0;;;;-0.40433127;0.023124697;-0.57545096;;;;;;;;;;;;;;;
1321.0;1238.0;;;;-0.40512854;0.022796633;-0.5744515;;;;;;;;;;;;;;;
1321.0;1238.0;;;;-0.40551764;0.023254396;-0.5751191;;;;;;;;;;;;;;;
1321.0;1238.0;;;;-0.40725332;0.023525242;-0.57420355;;;;;;;;;;;;;;;
1322.0;1238.7;;;;;;;;;;;;;;;;;124.988556;-5.8061466;24.777214;;1157.9
1322.0;1238.7;;;;;;;;;;;;;;0.45533615;0.44233528;-0.33063754;;;;;1157.9
1322.0;1238.7;;;;;;;;;;;;;;;;;124.30189;-0.49211097;26.444288;;1157.9
1322.0;1238.7;;;;;;;;;;;;;;0.4718772;0.5256508;-0.30738243;;;;;1157.9
1322.0;1238.7;;;;;;;;;;;;;;;;;119.11756;4.257332;29.28251;;1167.5
1322.0;1238.7;;;;;;;;;;;;;;0.4738914;0.6000549;-0.28772852;;;;;1167.5
1322.0;1238.7;;;;;;;;;;;;;;;;;109.462265;8.1827755;32.12073;;1167.5
1322.0;1238.7;;;;;;;;;;;;;;0.50593585;0.6783654;-0.26355785;;;;;1167.5
1322.0;1238.7;;;;;;;;;;;;;;;;;99.26908;11.8564415;35.309914;;1177.2
1322.0;1238.7;;;;;;;;;;;;;;0.57655567;0.774865;-0.25580615;;;;;1177.2
1322.0;1238.7;;;;;;;;;;;;;;;;;88.27098;19.711142;39.162876;;1177.2
1322.0;1238.7;;;;;;;;;;;;;;0.5807672;0.83046967;-0.23358867;;;;;1177.2
1322.0;1239.4;139356;139394;14801;;;;;;;;;;;;;;;;;;
1322.0;1245.7;;;;;;;;;;;;;-37;;;;;;;;
1322.0;1245.7;;;;;;;;;;;;;-32;;;;;;;;
1322.0;1245.7;;;;;;;;;;;;;-7;;;;;;;;
1322.0;1245.7;;;;;;;;;;;;;-145;;;;;;;;
1322.0;1245.7;;;;;;;;;;;;;11;;;;;;;;
1322.0;1247.9;;;;-0.41009527;0.024280552;-0.57456595;;;;;;;;;;;;;;;
1322.0;1247.9;;;;-0.41086584;0.025531773;-0.5762864;;;;;;;;;;;;;;;
1322.0;1247.9;;;;-0.41117483;0.027473453;-0.57825476;;;;;;;;;;;;;;;
1322.0;1247.9;;;;-0.41036993;0.029140476;-0.5817719;;;;;;;;;;;;;;;
1322.0;1247.9;;;;-0.4106446;0.030254368;-0.5858765;;;;;;;;;;;;;;;
1380.0;1257.8;;;;-0.412098;0.030845646;-0.5899163;;;;;;;;;;;;;;;
1380.0;1257.8;;;;-0.41534048;0.03154755;-0.59140784;;;;;;;;;;;;;;;
1380.0;1257.8;;;;-0.42026526;0.0317421;-0.5937272;;;;;;;;;;;;;;;
1380.0;1257.8;;;;-0.42586905;0.031372074;-0.5992318;;;;;;;;;;;;;;;
1380.0;1257.8;;;;-0.43278128;0.03010178;-0.6049805;;;;;;;;;;;;;;;
1380.0;1259.5;155741;155836;14813;;;;;;;;;;;;;;;;;;
1380.0;1267.7;;;;-0.44017798;0.028678898;-0.61170965;;;;;;;;;;;;;;;
1380.0;1267.7;;;;-0.44700247;0.027172092;-0.62110525;;;;;;;;;;;;;;;
1380.0;1267.7;;;;-0.4539643;0.026676182;-0.63126;;;;;;;;;;;;;;;
1380.0;1267.7;;;;-0.46025854;0.025558475;-0.6424828;;;;;;;;;;;;;;;
1380.0;1267.7;;;;-0.46576315;0.024250034;-0.6535416;;;;;;;;;;;;;;;
1380.0;1277.7;;;;-0.46988684;0.02442551;-0.6647683;;;;;;;;;;;;;;;
1380.0;1277.7;;;;-0.47276694;0.024856571;-0.6775399;;;;;;;;;;;;;;;
1380.0;1277.7;;;;-0.47438818;0.025920872;-0.69009405;;;;;;;;;;;;;;;
1380.0;1277.7;;;;-0.47507483;0.027156834;-0.7005959;;;;;;;;;;;;;;;
1380.0;1277.7;;;;-0.47490698;0.029743198;-0.70883566;;;;;;;;;;;;;;;
1380.0;1279.4;172194;172113;14824;;;;;;;;;;;;;;;;;;
1380.0;1285.7;;;;;;;;;;;;;333;;;;;;;;
1380.0;1285.7;;;;;;;;;;;;;-163;;;;;;;;
1380.0;1285.7;;;;;;;;;;;;;-786;;;;;;;;
1380.0;1285.7;;;;;;;;;;;;;405;;;;;;;;
1380.0;1285.7;;;;;;;;;;;;;4052;;;;;;;;
1381.0;1287.8;;;;-0.47700888;0.03297806;-0.71609503;;;;;;;;;;;;;;;
1381.0;1287.8;;;;-0.48052603;0.03846741;-0.72002417;;;;;;;;;;;;;;;
1381.0;1287.8;;;;-0.4846955;0.04431534;-0.72204596;;;;;;;;;;;;;;;
1381.0;1287.8;;;;-0.48548895;0.049819954;-0.7211495;;;;;;;;;;;;;;;
1381.0;1287.8;;;;-0.48375708;0.055709846;-0.720604;;;;;;;;;;;;;;;
1381.0;1297.9;;;;-0.47980887;0.061042793;-0.71978;;;;;;;;;;;;;;;
1381.0;1297.9;;;;-0.47373587;0.06692124;-0.7210122;;;;;;;;;;;;;;;
1381.0;1297.9;;;;-0.46570593;0.07263566;-0.725689;;;;;;;;;;;;;;;
1381.0;1297.9;;;;-0.4566918;0.07809449;-0.7354813;;;;;;;;;;;;;;;
1381.0;1297.9;;;;-0.44847876;0.08338929;-0.7488213;;;;;;;;;;;;;;;
1381.0;1298.3;;;;;;;;;;;;;;;;;78.566086;27.855768;42.901394;;1186.9
1381.0;1298.3;;;;;;;;;;;;;;0.5548265;0.85659355;-0.22449416;;;;;1186.9
1381.0;1298.3;;;;;;;;;;;;;;;;;71.66891;31.830807;45.285652;;1186.9
1381.0;1298.3;;;;;;;;;;;;;;0.56068605;0.8661763;-0.29425946;;;;;1186.9
1381.0;1298.3;;;;;;;;;;;;;;;;;66.93091;34.646137;45.58702;;1196.6
1381.0;1298.3;;;;;;;;;;;;;;0.5400556;0.8397473;-0.38080996;;;;;1196.6
1381.0;1298.3;;;;;;;;;;;;;;;;;62.974945;34.88647;44.030582;;1196.6
1381.0;1298.3;;;;;;;;;;;;;;0.5076449;0.8371838;-0.4613788;;;;;1196.6
1381.0;1298.3;;;;;;;;;;;;;;;;;58.385723;32.03299;41.16184;;1206.0
1381.0;1298.3;;;;;;;;;;;;;;0.47791985;0.7941527;-0.55836666;;;;;1206.0
1381.0;1298.3;;;;;;;;;;;;;;;;;53.685875;28.859066;38.55251;;1206.0
1381.0;1298.3;;;;;;;;;;;;;;0.4377575;0.76082647;-0.6237373;;;;;1206.0
1382.0;1299.1;;;;;;;;;;;;;;;;;48.74569;22.129734;37.30125;;1215.5
1382.0;1299.1;;;;;;;;;;;;;;0.48298594;0.732078;-0.6897183;;;;;1215.5
1382.0;1299.1;;;;;;;;;;;;;;;;;42.34062;19.314402;36.488693;;1215.5
1382.0;1299.1;;;;;;;;;;;;;;0.4918363;0.74239326;-0.6718955;;;;;1215.5
1382.0;1299.1;;;;;;;;;;;;;;;;;34.9971;16.880552;36.935028;;1225.2
1382.0;1299.1;;;;;;;;;;;;;;0.5126499;0.6146428;-0.69252604;;;;;1225.2
1382.0;1299.1;;;;;;;;;;;;;;;;;30.81988;15.4194765;37.022766;;1225.2
1382.0;1299.1;;;;;;;;;;;;;;0.54829556;0.52772605;-0.69850767;;;;;1225.2
1382.0;1299.1;;;;;;;;;;;;;;;;;27.996918;16.098515;35.668507;;1234.8
1382.0;1299.1;;;;;;;;;;;;;;0.5647755;0.50758386;-0.6326487;;;;;1234.8
1382.0;1299.1;;;;;;;;;;;;;;;;;26.860104;15.552996;33.909878;;1234.8
1382.0;1299.1;;;;;;;;;;;;;;0.5681326;0.5113071;-0.57783747;;;;;1234.8
1382.0;1299.5;188542;188647;14833;;;;;;;;;;;;;;;;;;
1382.0;1307.8;;;;-0.44378668;0.08805085;-0.76158917;;;;;;;;;;;;;;;
1382.0;1307.8;;;;-0.44334036;0.09210969;-0.7728654;;;;;;;;;;;;;;;
1382.0;1307.8;;;;-0.44702536;0.09629442;-0.7838632;;;;;;;;;;;;;;;
1382.0;1307.8;;;;-0.4526711;0.098648086;-0.7934915;;;;;;;;;;;;;;;
1382.0;1307.8;;;;-0.45782095;0.09989931;-0.8023149;;;;;;;;;;;;;;;
1382.0;1317.8;;;;-0.46272284;0.10015871;-0.80835354;;;;;;;;;;;;;;;
1382.0;1317.8;;;;-0.4664727;0.10009004;-0.81196606;;;;;;;;;;;;;;;
1382.0;1317.8;;;;-0.4686585;0.09951021;-0.8156396;;;;;;;;;;;;;;;
1382.0;1317.8;;;;-0.46854025;0.09845735;-0.81788266;;;;;;;;;;;;;;;
1382.0;1317.8;;;;-0.46824652;0.09799577;-0.81852734;;;;;;;;;;;;;;;
1440.0;1319.7;204934;204916;14843;;;;;;;;;;;;;;;;;;
1440.0;1325.9;;;;;;;;;;;;;8225;;;;;;;;
1440.0;1325.9;;;;;;;;;;;;;10441;;;;;;;;
1440.0;1325.9;;;;;;;;;;;;;10550;;;;;;;;
1440.0;1325.9;;;;;;;;;;;;;10326;;;;;;;;
1440.0;1325.9;;;;;;;;;;;;;10843;;;;;;;;
1440.0;1327.8;;;;-0.46836096;0.09807588;-0.81902707;;;;;;;;;;;;;;;
1440.0;1327.8;;;;-0.46841055;0.098648086;-0.8193742;;;;;;;;;;;;;;;
1440.0;1327.8;;;;-0.46804434;0.09965898;-0.8192636;;;;;;;;;;;;;;;
1440.0;1327.8;;;;-0.46696097;0.10095979;-0.8202783;;;;;;;;;;;;;;;
1440.0;1327.8;;;;-0.4669991;0.102958694;-0.8209039;;;;;;;;;;;;;;;
1440.0;1337.8;;;;-0.4672051;0.104202285;-0.8250352;;;;;;;;;;;;;;;
1440.0;1337.8;;;;-0.46734625;0.105857864;-0.82929623;;;;;;;;;;;;;;;
1440.0;1337.8;;;;-0.46817404;0.10754396;-0.8332826;;;;;;;;;;;;;;;
1440.0;1337.8;;;;-0.46889502;0.109756485;-0.8375703;;;;;;;;;;;;;;;
1440.0;1337.8;;;;-0.47175223;0.11229326;-0.84220135;;;;;;;;;;;;;;;
1440.0;1339.7;221340;221333;14839;;;;;;;;;;;;;;;;;;
1440.0;1347.9;;;;-0.4732781;0.114906326;-0.84910214;;;;;;;;;;;;;;;
1440.0;1347.9;;;;-0.47289664;0.11735918;-0.8578073;;;;;;;;;;;;;;;
1440.0;1347.9;;;;-0.47138983;0.118942276;-0.8688623;;;;;;;;;;;;;;;
1440.0;1347.9;;;;-0.4691735;0.12056734;-0.8796159;;;;;;;;;;;;;;;
1440.0;1347.9;;;;-0.46833044;0.12257387;-0.8907777;;;;;;;;;;;;;;;
1441.0;1358.0;;;;-0.4691735;0.12385179;-0.90238583;;;;;;;;;;;;;;;
1441.0;1358.0;;;;-0.47161108;0.12406923;-0.9148561;;;;;;;;;;;;;;;
1441.0;1358.0;;;;-0.475071;0.12414171;-0.9280664;;;;;;;;;;;;;;;
1441.0;1358.0;;;;-0.4795342;0.123237625;-0.94302;;;;;;;;;;;;;;;
1441.0;1358.0;;;;-0.48429114;0.12231447;-0.95700467;;;;;;;;;;;;;;;
1441.0;1358.4;;;;;;;;;;;;;;;;;26.635029;16.277811;31.68203;;1244.5
1441.0;1358.4;;;;;;;;;;;;;;0.5691702;0.51893675;-0.50703454;;;;;1244.5
1441.0;1358.4;;;;;;;;;;;;;;;;;25.91403;16.361736;29.831844;;1244.5
1441.0;1358.4;;;;;;;;;;;;;;0.54084903;0.59559923;-0.4466689;;;;;1244.5
1441.0;1358.4;;;;;;;;;;;;;;;;;24.517809;13.031404;29.229103;;1254.2
1441.0;1358.4;;;;;;;;;;;;;;0.48597676;0.57582325;-0.43830684;;;;;1254.2
1441.0;1358.4;;;;;;;;;;;;;;;;;22.064884;7.1146274;28.916288;;1254.2
1441.0;1358.4;;;;;;;;;;;;;;0.46528518;0.59578234;-0.41920224;;;;;1254.2
1441.0;1358.4;;;;;;;;;;;;;;;;;17.38792;1.8349254;29.026918;;1263.7
1441.0;1358.4;;;;;;;;;;;;;;0.4643086;0.5977355;-0.3888058;;;;;1263.7
1441.0;1358.4;;;;;;;;;;;;;;;;;10.357219;-1.1940367;29.847103;;1263.7
1441.0;1358.4;;;;;;;;;;;;;;0.4862209;0.5786309;-0.3302713;;;;;1263.7
1442.0;1359.1;;;;;;;;;;;;;;;;;3.1014435;-3.6355176;29.808954;;1273.4
1442.0;1359.1;;;;;;;;;;;;;;0.5229652;0.55226296;-0.27130955;;;;;1273.4
1442.0;1359.1;;;;;;;;;;;;;;;;;-3.238777;-5.5200357;28.527176;;1273.4
1442.0;1359.1;;;;;;;;;;;;;;0.57795954;0.5294351;-0.24933623;;;;;1273.4
1442.0;1359.1;;;;;;;;;;;;;;;;;-6.782739;-4.799036;26.181067;;1283.1
1442.0;1359.1;;;;;;;;;;;;;;0.63222146;0.53529465;-0.24097416;;;;;1283.1
1442.0;1359.1;;;;;;;;;;;;;;;;;-6.591998;-2.1210363;23.457289;;1283.1
1442.0;1359.1;;;;;;;;;;;;;;0.6648762;0.51796013;-0.2540971;;;;;1283.1
1442.0;1359.1;;;;;;;;;;;;;;;;;-2.8649251;1.2550737;20.577105;;1292.7
1442.0;1359.1;;;;;;;;;;;;;;0.6955168;0.50666827;-0.27265236;;;;;1292.7
1442.0;1359.1;;;;;;;;;;;;;;;;;2.2583697;4.333628;17.639698;;1292.7
1442.0;1359.1;;;;;;;;;;;;;;0.7038789;0.476516;-0.25519577;;;;;1292.7
1442.0;1359.8;237754;237724;14841;;;;;;;;;;;;;;;;;;
1442.0;1366.1;;;;;;;;;;;;;11270;;;;;;;;
1442.0;1366.1;;;;;;;;;;;;;11036;;;;;;;;
1442.0;1366.1;;;;;;;;;;;;;10695;;;;;;;;
1442.0;1366.1;;;;;;;;;;;;;10312;;;;;;;;
1442.0;1366.1;;;;;;;;;;;;;9768;;;;;;;;
1442.0;1368.0;;;;-0.49088675;0.12185289;-0.9711915;;;;;;;;;;;;;;;
1442.0;1368.0;;;;-0.49828726;0.12172319;-0.98656094;;;;;;;;;;;;;;;
1442.0;1368.0;;;;-0.5054551;0.121288314;-1.0031053;;;;;;;;;;;;;;;
1442.0;1368.0;;;;-0.51227576;0.12168123;-1.0211145;;;;;;;;;;;;;;;
1442.0;1368.0;;;;-0.51803976;0.12220384;-1.039692;;;;;;;;;;;;;;;
1500.0;1373.6;;;;;;;;;;;;;;;;;8.40785;4.9249244;14.229255;;1302.3
1500.0;1373.6;;;;;;;;;;;;;;0.7228614;0.46852016;-0.23029268;;;;;1302.3
1500.0;1373.6;;;;;;;;;;;;;;;;;15.156255;3.5782952;10.807367;;1302.3
1500.0;1373.6;;;;;;;;;;;;;;0.7429426;0.4295175;-0.23090304;;;;;1302.3
1500.0;1373.6;;;;;;;;;;;;;;;;;20.973846;-1.781518;8.697775;;1312.0
1500.0;1373.6;;;;;;;;;;;;;;0.85152745;0.38355663;-0.30060732;;;;;1312.0
1500.0;1373.6;;;;;;;;;;;;;;;;;26.92114;-8.129368;8.316295;;1312.0
1500.0;1373.6;;;;;;;;;;;;;;1.0679036;0.35328227;-0.38850063;;;;;1312.0
1500.0;1373.6;;;;;;;;;;;;;;;;;35.477768;-7.4121833;7.9233685;;1321.5
1500.0;1373.6;;;;;;;;;;;;;;1.2952056;0.4443495;-0.48908964;;;;;1321.5
1500.0;1373.6;;;;;;;;;;;;;;;;;47.822506;5.3178506;5.3102207;;1321.5
1500.0;1373.6;;;;;;;;;;;;;;1.5001068;0.4773095;-0.49439985;;;;;1321.5
1500.0;1377.8;;;;-0.5235711;0.12313463;-1.0589372;;;;;;;;;;;;;;;
1500.0;1377.8;;;;-0.5307198;0.1259575;-1.078251;;;;;;;;;;;;;;;
1500.0;1377.8;;;;-0.53898627;0.13010027;-1.0991632;;;;;;;;;;;;;;;
1500.0;1377.8;;;;-0.54762655;0.13589479;-1.1192399;;;;;;;;;;;;;;;
1500.0;1377.8;;;;-0.555378;0.14239503;-1.1334649;;;;;;;;;;;;;;;
1500.0;1379.9;253942;254045;14850;;;;;;;;;;;;;;;;;;
1500.0;1387.9;;;;-0.5588723;0.14912798;-1.1459924;;;;;;;;;;;;;;;
1500.0;1387.9;;;;-0.5559693;0.15708543;-1.1597368;;;;;;;;;;;;;;;
1500.0;1387.9;;;;-0.5491105;0.16581728;-1.176262;;;;;;;;;;;;;;;
1500.0;1387.9;;;;-0.54014593;0.17669298;-1.192753;;;;;;;;;;;;;;;
1500.0;1387.9;;;;-0.5301247;0.19044116;-1.2071725;;;;;;;;;;;;;;;
1503.0;1397.9;;;;-0.52315146;0.2059479;-1.2214586;;;;;;;;;;;;;;;
1503.0;1397.9;;;;-0.5198174;0.22235873;-1.2348672;;;;;;;;;;;;;;;
1503.0;1397.9;;;;-0.5203019;0.23830035;-1.2457277;;;;;;;;;;;;;;;
1503.0;1397.9;;;;-0.52782446;0.2540703;-1.2556802;;;;;;;;;;;;;;;
1503.0;1397.9;;;;-0.53945166;0.26856235;-1.2619745;;;;;;;;;;;;;;;
1503.0;1400.0;262143;262143;14849;;;;;;;;;;;;;;;;;;
1503.0;1406.2;;;;;;;;;;;;;9309;;;;;;;;
1503.0;1406.2;;;;;;;;;;;;;9181;;;;;;;;
1503.0;1406.2;;;;;;;;;;;;;9353;;;;;;;;
1503.0;1406.2;;;;;;;;;;;;;9429;;;;;;;;
1503.0;1406.2;;;;;;;;;;;;;9032;;;;;;;;
1503.0;1408.0;;;;-0.55222327;0.2807999;-1.2664796;;;;;;;;;;;;;;;
1503.0;1408.0;;;;-0.5674172;0.2915726;-1.2680818;;;;;;;;;;;;;;;
1503.0;1408.0;;;;-0.5826989;0.30015567;-1.268097;;;;;;;;;;;;;;;
1503.0;1408.0;;;;-0.59527594;0.30742648;-1.2681695;;;;;;;;;;;;;;;
1503.0;1408.0;;;;-0.60514456;0.31370166;-1.2669755;;;;;;;;;;;;;;;
1503.0;1418.1;;;;-0.61363226;0.3189316;-1.2630578;;;;;;;;;;;;;;;
1503.0;1418.1;;;;-0.6207734;0.3248215;-1.2570115;;;;;;;;;;;;;;;
1503.0;1418.1;;;;-0.6242638;0.32968524;-1.2514001;;;;;;;;;;;;;;;
1503.0;1418.1;;;;-0.6252175;0.33391574;-1.2457238;;;;;;;;;;;;;;;
1503.0;1418.1;;;;-0.6231385;0.33806613;-1.2395936;;;;;;;;;;;;;;;
1505.0;1418.5;;;;;;;;;;;;;;;;;62.726982;29.515215;-3.3684807;;1331.2
1505.0;1418.5;;;;;;;;;;;;;;1.4080629;0.5727714;-0.34040347;;;;;1331.2
1505.0;1418.5;;;;;;;;;;;;;;;;;76.68539;44.93469;-13.576922;;1331.2
1505.0;1418.5;;;;;;;;;;;;;;1.3512375;0.65071565;-0.3360088;;;;;1331.2
1505.0;1418.5;;;;;;;;;;;;;;;;;93.84441;38.98358;-22.122105;;1340.9
1505.0;1418.5;;;;;;;;;;;;;;1.0566729;0.6829432;-0.6400342;;;;;1340.9
1505.0;1418.5;;;;;;;;;;;;;;;;;112.26234;0.14496292;-29.034548;;1340.9
1505.0;1418.5;;;;;;;;;;;;;;0.4885403;0.78292185;-0.9060335;;;;;1340.9
1505.0;1418.5;;;;;;;;;;;;;;;;;121.95578;-72.35557;-28.695028;;1350.5
1505.0;1418.5;;;;;;;;;;;;;;0.5137486;0.71700186;-1.1070894;;;;;1350.5
1505.0;1418.5;;;;;;;;;;;;;;;;;124.45067;-119.99878;-25.498215;;1350.5
1505.0;1418.5;;;;;;;;;;;;;;1.0066836;0.49073765;-1.1594592;;;;;1350.5
1505.0;1420.1;262143;262143;14846;;;;;;;;;;;;;;;;;;
1505.0;1428.1;;;;-0.621357;0.3411751;-1.2323953;;;;;;;;;;;;;;;
1505.0;1428.1;;;;-0.61972815;0.34276584;-1.224598;;;;;;;;;;;;;;;
1505.0;1428.1;;;;-0.61962897;0.3424721;-1.2176248;;;;;;;;;;;;;;;
1505.0;1428.1;;;;-0.61830527;0.34058765;-1.2104493;;;;;;;;;;;;;;;
1505.0;1428.1;;;;-0.6159554;0.3378792;-1.2055703;;;;;;;;;;;;;;;
1506.0;1433.6;;;;;;;;;;;;;;;;;110.39689;-124.481186;-14.473403;;1360.1
1506.0;1433.6;;;;;;;;;;;;;;1.4465773;0.19531846;-1.0873134;;;;;1360.1
1506.0;1433.6;;;;;;;;;;;;;;;;;66.02298;-109.98871;4.974517;;1360.1
1506.0;1433.6;;;;;;;;;;;;;;1.5639515;-0.10821863;-0.95162815;;;;;1360.1
1506.0;1433.6;;;;;;;;;;;;;;;;;14.191107;-69.071014;22.73629;;1369.8
1506.0;1433.6;;;;;;;;;;;;;;1.7660451;-0.39765617;-0.53456223;;;;;1369.8
1506.0;1433.6;;;;;;;;;;;;;;;;;-13.218329;-10.944701;28.916288;;1369.8
1506.0;1433.6;;;;;;;;;;;;;;1.7670217;-0.44654682;0.15570544;;;;;1369.8
1506.0;1433.6;;;;;;;;;;;;;;;;;-5.352184;9.350108;29.049807;;1379.5
1506.0;1433.6;;;;;;;;;;;;;;1.3316447;-0.30494094;0.1561327;;;;;1379.5
1506.0;1433.6;;;;;;;;;;;;;;;;;21.355328;-18.807032;24.933622;;1379.5
1506.0;1433.6;;;;;;;;;;;;;;1.1512803;-0.043763544;-0.7003998;;;;;1379.5
1506.0;1438.1;;;;-0.6111985;0.3333321;-1.2020646;;;;;;;;;;;;;;;
1506.0;1438.1;;;;-0.607338;0.32930377;-1.2001535;;;;;;;;;;;;;;;
1506.0;1438.1;;;;-0.6033593;0.326355;-1.1998254;;;;;;;;;;;;;;;
1506.0;1438.1;;;;-0.598816;0.32516482;-1.2011148;;;;;;;;;;;;;;;
1506.0;1438.1;;;;-0.593689;0.3233414;-1.2026674;;;;;;;;;;;;;;;
1506.0;1440.3;262143;262143;14845;;;;;;;;;;;;;;;;;;
1506.0;1446.3;;;;;;;;;;;;;8291;;;;;;;;
1506.0;1446.3;;;;;;;;;;;;;7625;;;;;;;;
1506.0;1446.3;;;;;;;;;;;;;7362;;;;;;;;
1506.0;1446.3;;;;;;;;;;;;;7545;;;;;;;;
1506.0;1446.3;;;;;;;;;;;;;7692;;;;;;;;
1561.0;1448.0;;;;-0.5910378;0.32342914;-1.2046586;;;;;;;;;;;;;;;
1561.0;1448.0;;;;-0.5906449;0.32473376;-1.2064477;;;;;;;;;;;;;;;
1561.0;1448.0;;;;-0.5907746;0.32610705;-1.2088815;;;;;;;;;;;;;;;
1561.0;1448.0;;;;-0.59003836;0.3258095;-1.2130204;;;;;;;;;;;;;;;
1561.0;1448.0;;;;-0.5904351;0.32405475;-1.2196695;;;;;;;;;;;;;;;
1561.0;1457.9;;;;-0.5913773;0.3227959;-1.2256585;;;;;;;;;;;;;;;
1561.0;1457.9;;;;-0.5888215;0.320385;-1.2308542;;;;;;;;;;;;;;;
1561.0;1457.9;;;;-0.586155;0.31777576;-1.2406045;;;;;;;;;;;;;;;
1561.0;1457.9;;;;-0.5828629;0.31600955;-1.2502137;;;;;;;;;;;;;;;
1561.0;1457.9;;;;-0.57861334;0.31468585;-1.2607499;;;;;;;;;;;;;;;
1561.0;1460.1;262143;262143;14840;;;;;;;;;;;;;;;;;;
1561.0;1468.0;;;;-0.57957464;0.3147011;-1.2691613;;;;;;;;;;;;;;;
1561.0;1468.0;;;;-0.58004767;0.31364825;-1.2753526;;;;;;;;;;;;;;;
1561.0;1468.0;;;;-0.57903296;0.31159976;-1.2827836;;;;;;;;;;;;;;;
1561.0;1468.0;;;;-0.57602316;0.30954364;-1.2854463;;;;;;;;;;;;;;;
1561.0;1468.0;;;;-0.5749207;0.30761722;-1.2882272;;;;;;;;;;;;;;;
1561.0;1478.1;;;;-0.57589346;0.30638507;-1.2892686;;;;;;;;;;;;;;;
1561.0;1478.1;;;;-0.5839501;0.30728152;-1.2862626;;;;;;;;;;;;;;;
1561.0;1478.1;;;;-0.5936776;0.31024554;-1.27734;;;;;;;;;;;;;;;
1561.0;1478.1;;;;-0.6006661;0.311451;-1.2755738;;;;;;;;;;;;;;;
1561.0;1478.1;;;;-0.6048203;0.3120995;-1.2741205;;;;;;;;;;;;;;;
1562.0;1478.6;;;;;;;;;;;;;;;;;35.855434;-42.97769;17.799921;;1388.9
1562.0;1478.6;;;;;;;;;;;;;;1.0828577;0.21405682;-1.1780145;;;;;1388.9
1562.0;1478.6;;;;;;;;;;;;;;;;;40.047913;-58.236946;12.543107;;1388.9
1562.0;1478.6;;;;;;;;;;;;;;1.0950041;0.27637562;-0.9882504;;;;;1388.9
1562.0;1478.6;;;;;;;;;;;;;;;;;43.82458;-68.62468;8.171331;;1398.5
1562.0;1478.6;;;;;;;;;;;;;;1.3115025;0.25263223;-0.8447524;;;;;1398.5
1562.0;1478.6;;;;;;;;;;;;;;;;;43.17988;-55.295723;2.193518;;1398.5
1562.0;1478.6;;;;;;;;;;;;;;1.4843593;0.29071933;-0.7147435;;;;;1398.5
1562.0;1478.6;;;;;;;;;;;;;;;;;40.967285;-46.761986;-3.318888;;1408.2
1562.0;1478.6;;;;;;;;;;;;;;1.495346;0.24048586;-0.79805905;;;;;1408.2
1562.0;1478.6;;;;;;;;;;;;;;;;;50.492874;-51.072723;-9.80407;;1408.2
1562.0;1478.6;;;;;;;;;;;;;;1.5645009;0.3070162;-1.0113224;;;;;1408.2
1562.0;1480.3;262143;262143;14836;;;;;;;;;;;;;;;;;;
1563.0;1486.1;;;;;;;;;;;;;;;;;59.457687;-40.650654;-15.797144;;1417.9
1563.0;1486.1;;;;;;;;;;;;;;1.6311533;0.40137944;-0.95815915;;;;;1417.9
1563.0;1486.1;;;;;;;;;;;;;;;;;56.730095;-19.56618;-18.22718;;1417.9
1563.0;1486.1;;;;;;;;;;;;;;1.6391492;0.56379896;-0.6884976;;;;;1417.9
1563.0;1486.1;;;;;;;;;;;;;;;;;40.20432;-9.880367;-15.411847;;1427.5
1563.0;1486.1;;;;;;;;;;;;;;1.5115818;0.68636125;-0.591937;;;;;1427.5
1563.0;1486.1;;;;;;;;;;;;;;;;;21.732994;-7.038331;-14.22544;;1427.5
1563.0;1486.1;;;;;;;;;;;;;;1.3574634;0.76924956;-0.65199745;;;;;1427.5
1563.0;1486.1;;;;;;;;;;;;;;;;;10.319071;-1.7357402;-16.663107;;1437.2
1563.0;1486.1;;;;;;;;;;;;;;1.1645253;0.84756005;-0.69057286;;;;;1437.2
1563.0;1486.1;;;;;;;;;;;;;;;;;1.0414442;0.37766656;-17.948698;;1437.2
1563.0;1486.1;;;;;;;;;;;;;;0.9401532;0.79781485;-0.7480697;;;;;1437.2
1563.0;1486.3;;;;;;;;;;;;;7414;;;;;;;;
1563.0;1486.3;;;;;;;;;;;;;6967;;;;;;;;
1563.0;1486.3;;;;;;;;;;;;;7000;;;;;;;;
1563.0;1486.3;;;;;;;;;;;;;7574;;;;;;;;
1563.0;1486.3;;;;;;;;;;;;;7603;;;;;;;;
1563.0;1488.0;;;;-0.60296637;0.31266788;-1.2675744;;;;;;;;;;;;;;;
1563.0;1488.0;;;;-0.59429556;0.3136101;-1.2606469;;;;;;;;;;;;;;;
1563.0;1488.0;;;;-0.58269507;0.31455615;-1.2560197;;;;;;;;;;;;;;;
1563.0;1488.0;;;;-0.570015;0.31598666;-1.2515641;;;;;;;;;;;;;;;
1563.0;1488.0;;;;-0.55686194;0.3179932;-1.2460405;;;;;;;;;;;;;;;
1620.0;1498.0;;;;-0.547123;0.32026294;-1.2409669;;;;;;;;;;;;;;;
1620.0;1498.0;;;;-0.5384827;0.32178882;-1.2325975;;;;;;;;;;;;;;;
1620.0;1498.0;;;;-0.5268517;0.32304004;-1.223385;;;;;;;;;;;;;;;
1620.0;1498.0;;;;-0.5169869;0.3228493;-1.2154504;;;;;;;;;;;;;;;
1620.0;1498.0;;;;-0.5088845;0.3210564;-1.2072297;;;;;;;;;;;;;;;
1620.0;1500.3;262143;262143;14844;;;;;;;;;;;;;;;;;;
1620.0;1508.0;;;;-0.50155264;0.31729892;-1.1971399;;;;;;;;;;;;;;;
1620.0;1508.0;;;;-0.49559027;0.31279376;-1.1870042;;;;;;;;;;;;;;;
1620.0;1508.0;;;;-0.49166495;0.30860522;-1.1760904;;;;;;;;;;;;;;;
1620.0;1508.0;;;;-0.48870856;0.30422595;-1.163994;;;;;;;;;;;;;;;
1620.0;1508.0;;;;-0.4860192;0.30062106;-1.1517183;;;;;;;;;;;;;;;
1620.0;1517.9;;;;-0.48418814;0.29857638;-1.1372415;;;;;;;;;;;;;;;
1620.0;1517.9;;;;-0.48703772;0.29641345;-1.121708;;;;;;;;;;;;;;;
1620.0;1517.9;;;;-0.48934942;0.29470828;-1.108101;;;;;;;;;;;;;;;
1620.0;1517.9;;;;-0.489811;0.29298022;-1.096924;;;;;;;;;;;;;;;
1620.0;1517.9;;;;-0.49067694;0.29075626;-1.083893;;;;;;;;;;;;;;;
1620.0;1520.3;262143;262143;14839;;;;;;;;;;;;;;;;;;
1620.0;1526.5;;;;;;;;;;;;;6514;;;;;;;;
1620.0;1526.5;;;;;;;;;;;;;5362;;;;;;;;
1620.0;1526.5;;;;;;;;;;;;;5227;;;;;;;;
1620.0;1526.5;;;;;;;;;;;;;5825;;;;;;;;
1620.0;1526.5;;;;;;;;;;;;;6111;;;;;;;;
1623.0;1528.0;;;;-0.49062353;0.28808597;-1.0710984;;;;;;;;;;;;;;;
1623.0;1528.0;;;;-0.49002844;0.28615573;-1.0583802;;;;;;;;;;;;;;;
1623.0;1528.0;;;;-0.49005514;0.28470615;-1.0463601;;;;;;;;;;;;;;;
1623.0;1528.0;;;;-0.48884207;0.28317264;-1.0357438;;;;;;;;;;;;;;;
1623.0;1528.0;;;;-0.4873963;0.28187945;-1.0282594;;;;;;;;;;;;;;;
1623.0;1538.1;;;;-0.48523337;0.28071216;-1.0219728;;;;;;;;;;;;;;;
1623.0;1538.1;;;;-0.48372656;0.27952197;-1.0163194;;;;;;;;;;;;;;;
1623.0;1538.1;;;;-0.48345953;0.27853015;-1.011139;;;;;;;;;;;;;;;
1623.0;1538.1;;;;-0.48316962;0.2770615;-1.0076257;;;;;;;;;;;;;;;
1623.0;1538.1;;;;-0.48322302;0.2762566;-1.0030977;;;;;;;;;;;;;;;
1623.0;1540.5;262143;262143;14826;;;;;;;;;;;;;;;;;;
1623.0;1548.2;;;;-0.4859391;0.2764702;-0.99562085;;;;;;;;;;;;;;;
1623.0;1548.2;;;;-0.4869004;0.27780917;-0.9888154;;;;;;;;;;;;;;;
1623.0;1548.2;;;;-0.48691183;0.27956012;-0.98624814;;;;;;;;;;;;;;;
1623.0;1548.2;;;;-0.4869538;0.28188327;-0.9846231;;;;;;;;;;;;;;;
1623.0;1548.2;;;;-0.4860955;0.28512195;-0.9859506;;;;;;;;;;;;;;;
1625.0;1554.2;;;;;;;;;;;;;;;;;-7.778405;-4.505295;-17.73507;;1446.9
1625.0;1554.2;;;;;;;;;;;;;;0.7803583;0.65529346;-0.8308359;;;;;1446.9
1625.0;1554.2;;;;;;;;;;;;;;;;;-12.737662;-11.200293;-16.537218;;1446.9
1625.0;1554.2;;;;;;;;;;;;;;0.7624744;0.4375744;-0.8894314;;;;;1446.9
1625.0;1554.2;;;;;;;;;;;;;;;;;-12.485885;-10.822627;-15.25544;;1456.4
1625.0;1554.2;;;;;;;;;;;;;;0.8625752;0.19879757;-0.8667257;;;;;1456.4
1625.0;1554.2;;;;;;;;;;;;;;;;;-8.29722;-5.855739;-14.725182;;1456.4
1625.0;1554.2;;;;;;;;;;;;;;0.9389935;0.05346843;-0.86983854;;;;;1456.4
1625.0;1554.2;;;;;;;;;;;;;;;;;-5.447554;-1.9264809;-12.787255;;1466.1
1625.0;1554.2;;;;;;;;;;;;;;0.8580584;-0.04870754;-0.95059055;;;;;1466.1
1625.0;1554.2;;;;;;;;;;;;;;;;;-5.043184;0.99185157;-9.811701;;1466.1
1625.0;1554.2;;;;;;;;;;;;;;0.7327494;-0.13415937;-0.94497514;;;;;1466.1
1625.0;1555.1;;;;;;;;;;;;;;;;;-4.623554;-1.2779626;-6.4737387;;1475.6
1625.0;1555.1;;;;;;;;;;;;;;0.66805017;-0.1826838;-0.8758812;;;;;1475.6
1625.0;1555.1;;;;;;;;;;;;;;;;;-2.784814;-7.0764794;-2.3613698;;1475.6
1625.0;1555.1;;;;;;;;;;;;;;0.64925075;-0.21326335;-0.8083743;;;;;1475.6
1625.0;1555.1;;;;;;;;;;;;;;;;;-0.12970367;-12.5927;1.6747032;;1485.3
1625.0;1555.1;;;;;;;;;;;;;;0.67592394;-0.22034363;-0.753441;;;;;1485.3
1625.0;1555.1;;;;;;;;;;;;;;;;;0.24796289;-11.9747;5.2148504;;1485.3
1625.0;1555.1;;;;;;;;;;;;;;0.7116306;-0.24719992;-0.68660545;;;;;1485.3
1625.0;1555.1;;;;;;;;;;;;;;;;;1.3618885;-9.857478;8.800775;;1494.9
1625.0;1555.1;;;;;;;;;;;;;;0.694235;-0.24384288;-0.65663624;;;;;1494.9
1625.0;1555.1;;;;;;;;;;;;;;;;;3.4676657;-13.134403;12.436293;;1494.9
1625.0;1555.1;;;;;;;;;;;;;;0.65321815;-0.18366039;-0.72457045;;;;;1494.9
1679.0;1558.1;;;;-0.48489767;0.28740314;-0.9903871;;;;;;;;;;;;;;;
1679.0;1558.1;;;;-0.48505408;0.28932193;-0.99284375;;;;;;;;;;;;;;;
1679.0;1558.1;;;;-0.4844094;0.2901993;-0.9947549;;;;;;;;;;;;;;;
1679.0;1558.1;;;;-0.48320013;0.291832;-0.99346554;;;;;;;;;;;;;;;
1679.0;1558.1;;;;-0.48077017;0.2931824;-0.99370205;;;;;;;;;;;;;;;
1679.0;1560.6;262143;262143;14825;;;;;;;;;;;;;;;;;;
1679.0;1566.6;;;;;;;;;;;;;5845;;;;;;;;
1679.0;1566.6;;;;;;;;;;;;;5488;;;;;;;;
1679.0;1566.6;;;;;;;;;;;;;5264;;;;;;;;
1679.0;1566.6;;;;;;;;;;;;;5063;;;;;;;;
1679.0;1566.6;;;;;;;;;;;;;4732;;;;;;;;
1679.0;1568.0;;;;-0.4784966;0.2945862;-0.9917375;;;;;;;;;;;;;;;
1679.0;1568.0;;;;-0.4726029;0.2955704;-0.9899522;;;;;;;;;;;;;;;
1679.0;1568.0;;;;-0.46496207;0.2959557;-0.9860765;;;;;;;;;;;;;;;
1679.0;1568.0;;;;-0.45883948;0.29634097;-0.9808656;;;;;;;;;;;;;;;
1679.0;1568.0;;;;-0.45384222;0.29651645;-0.97457135;;;;;;;;;;;;;;;
1679.0;1578.1;;;;-0.4499207;0.29724506;-0.9664575;;;;;;;;;;;;;;;
1679.0;1578.1;;;;-0.4450608;0.29882815;-0.958809;;;;;;;;;;;;;;;
1679.0;1578.1;;;;-0.4408875;0.30002978;-0.9493295;;;;;;;;;;;;;;;
1679.0;1578.1;;;;-0.43679053;0.30069354;-0.9363214;;;;;;;;;;;;;;;
1679.0;1578.1;;;;-0.4325829;0.29945377;-0.92185986;;;;;;;;;;;;;;;
1679.0;1580.7;262143;262143;14825;;;;;;;;;;;;;;;;;;
1682.0;1588.2;;;;-0.42555624;0.29708865;-0.9061128;;;;;;;;;;;;;;;
1682.0;1588.2;;;;-0.41629797;0.29459003;-0.88957226;;;;;;;;;;;;;;;
1682.0;1588.2;;;;-0.40769583;0.2909203;-0.8742906;;;;;;;;;;;;;;;
1682.0;1588.2;;;;-0.39924246;0.287159;-0.8611871;;;;;;;;;;;;;;;
1682.0;1588.2;;;;-0.3925553;0.28433612;-0.84930813;;;;;;;;;;;;;;;
1682.0;1598.3;;;;-0.38574606;0.2820969;-0.83797085;;;;;;;;;;;;;;;
1682.0;1598.3;;;;-0.38250738;0.28071597;-0.8262216;;;;;;;;;;;;;;;
1682.0;1598.3;;;;-0.38097388;0.27915195;-0.815899;;;;;;;;;;;;;;;
1682.0;1598.3;;;;-0.38052756;0.2773209;-0.8056985;;;;;;;;;;;;;;;
1682.0;1598.3;;;;-0.383709;0.27492526;-0.7957536;;;;;;;;;;;;;;;
1682.0;1600.9;262143;262143;14818;;;;;;;;;;;;;;;;;;
1682.0;1606.7;;;;;;;;;;;;;;;;;6.76748;-19.459366;16.308329;;1504.6
1682.0;1606.7;;;;;;;;;;;;;;0.62678915;-0.13660085;-0.8561052;;;;;1504.6
1682.0;1606.7;;;;;;;;;;;;;;;;;10.54033;-21.435438;19.402143;;1504.6
1682.0;1606.7;;;;;;;;;;;;;;0.6085391;-0.09540086;-0.94210637;;;;;1504.6
1682.0;1606.7;;;;;;;;;;;;;;;;;13.969848;-19.234291;21.233253;;1514.2
1682.0;1606.7;;;;;;;;;;;;;;0.60335094;-0.061891537;-0.9526048;;;;;1514.2
1682.0;1606.7;;;;;;;;;;;;;;;;;15.919218;-17.185736;22.751549;;1514.2
1682.0;1606.7;;;;;;;;;;;;;;0.6140324;-0.05877865;-0.9139683;;;;;1514.2
1682.0;1606.7;;;;;;;;;;;;;;;;;16.0947;-16.438032;24.327068;;1523.6
1682.0;1606.7;;;;;;;;;;;;;;0.6521195;-0.077333905;-0.8709372;;;;;1523.6
1682.0;1606.7;;;;;;;;;;;;;;;;;15.884884;-15.633106;25.666067;;1523.6
1682.0;1606.7;;;;;;;;;;;;;;0.6844691;-0.09088412;-0.8453627;;;;;1523.6
1684.0;1607.0;;;;;;;;;;;;;4495;;;;;;;;
1684.0;1607.0;;;;;;;;;;;;;4460;;;;;;;;
1684.0;1607.0;;;;;;;;;;;;;4390;;;;;;;;
1684.0;1607.0;;;;;;;;;;;;;4246;;;;;;;;
1684.0;1607.0;;;;;;;;;;;;;3997;;;;;;;;
1684.0;1607.5;;;;;;;;;;;;;;;;;16.914885;-14.172032;26.886808;;1533.3
1684.0;1607.5;;;;;;;;;;;;;;0.71285135;-0.12244026;-0.82003236;;;;;1533.3
1684.0;1607.5;;;;;;;;;;;;;;;;;19.405958;-12.0052185;27.645954;;1533.3
1684.0;1607.5;;;;;;;;;;;;;;0.73537403;-0.12591937;-0.8100833;;;;;1533.3
1684.0;1607.5;;;;;;;;;;;;;;;;;22.331919;-9.125034;28.065584;;1543.0
1684.0;1607.5;;;;;;;;;;;;;;0.75032806;-0.07971435;-0.78591263;;;;;1543.0
1684.0;1607.5;;;;;;;;;;;;;;;;;24.59792;-7.1146274;29.034548;;1543.0
1684.0;1607.5;;;;;;;;;;;;;;0.7586291;-0.03051851;-0.7564928;;;;;1543.0
1684.0;1607.5;;;;;;;;;;;;;;;;;25.196844;-6.1418505;30.606249;;1552.7
1684.0;1607.5;;;;;;;;;;;;;;0.78939176;0.038636435;-0.7356182;;;;;1552.7
1684.0;1607.5;;;;;;;;;;;;;;;;;23.86166;-4.20011;32.444992;;1552.7
1684.0;1607.5;;;;;;;;;;;;;;0.81624806;0.08996857;-0.69289225;;;;;1552.7
1684.0;1608.2;;;;-0.3881951;0.27222446;-0.7852174;;;;;;;;;;;;;;;
1684.0;1608.2;;;;-0.39432913;0.2693253;-0.7743455;;;;;;;;;;;;;;;
1684.0;1608.2;;;;-0.4011727;0.265667;-0.76511395;;;;;;;;;;;;;;;
1684.0;1608.2;;;;-0.40666586;0.26165012;-0.7591897;;;;;;;;;;;;;;;
1684.0;1608.2;;;;-0.41105658;0.25778964;-0.7556802;;;;;;;;;;;;;;;
1741.0;1618.2;;;;-0.41524893;0.25501636;-0.7488747;;;;;;;;;;;;;;;
1741.0;1618.2;;;;-0.4177056;0.2526398;-0.75034344;;;;;;;;;;;;;;;
1741.0;1618.2;;;;-0.42101294;0.24911502;-0.7543031;;;;;;;;;;;;;;;
1741.0;1618.2;;;;-0.42205435;0.24704745;-0.75249493;;;;;;;;;;;;;;;
1741.0;1618.2;;;;-0.42052084;0.24653628;-0.7470971;;;;;;;;;;;;;;;
1741.0;1620.8;262143;262143;14827;;;;;;;;;;;;;;;;;;
1741.0;1628.1;;;;-0.42047888;0.24863437;-0.74410254;;;;;;;;;;;;;;;
1741.0;1628.1;;;;-0.42110068;0.25216296;-0.73969275;;;;;;;;;;;;;;;
1741.0;1628.1;;;;-0.4203568;0.25550845;-0.7305184;;;;;;;;;;;;;;;
1741.0;1628.1;;;;-0.41928488;0.25809863;-0.721386;;;;;;;;;;;;;;;
1741.0;1628.1;;;;-0.41645437;0.2588692;-0.71425253;;;;;;;;;;;;;;;
1741.0;1638.1;;;;-0.41099554;0.25921252;-0.7130433;;;;;;;;;;;;;;;
1741.0;1638.1;;;;-0.4053231;0.2593613;-0.7142411;;;;;;;;;;;;;;;
1741.0;1638.1;;;;-0.39578253;0.25776294;-0.7179566;;;;;;;;;;;;;;;
1741.0;1638.1;;;;-0.38883978;0.25624087;-0.7130967;;;;;;;;;;;;;;;
1741.0;1638.1;;;;-0.3856774;0.25338748;-0.7082215;;;;;;;;;;;;;;;
1741.0;1640.8;262143;262143;14826;;;;;;;;;;;;;;;;;;
1741.0;1646.9;;;;;;;;;;;;;3591;;;;;;;;
1741.0;1646.9;;;;;;;;;;;;;3071;;;;;;;;
1741.0;1646.9;;;;;;;;;;;;;2508;;;;;;;;
1741.0;1646.9;;;;;;;;;;;;;1922;;;;;;;;
1741.0;1646.9;;;;;;;;;;;;;1427;;;;;;;;
1743.0;1648.2;;;;-0.38372046;0.25103763;-0.70901877;;;;;;;;;;;;;;;
1743.0;1648.2;;;;-0.3803597;0.25078586;-0.7077866;;;;;;;;;;;;;;;
1743.0;1648.2;;;;-0.37482837;0.252224;-0.7098809;;;;;;;;;;;;;;;
1743.0;1648.2;;;;-0.36588672;0.2529488;-0.7135201;;;;;;;;;;;;;;;
1743.0;1648.2;;;;-0.3551331;0.25321582;-0.7153855;;;;;;;;;;;;;;;
1743.0;1658.3;;;;-0.34980777;0.25397876;-0.71646124;;;;;;;;;;;;;;;
1743.0;1658.3;;;;-0.34894183;0.25498202;-0.71747214;;;;;;;;;;;;;;;
1743.0;1658.3;;;;-0.34852985;0.2548943;-0.72224814;;;;;;;;;;;;;;;
1743.0;1658.3;;;;-0.34996036;0.25519946;-0.72360235;;;;;;;;;;;;;;;
1743.0;1658.3;;;;-0.35350803;0.25563434;-0.71965796;;;;;;;;;;;;;;;
1743.0;1659.5;;;;;;;;;;;;;;;;;21.473587;-2.7581105;34.009064;;1562.3
1743.0;1659.5;;;;;;;;;;;;;;0.83169043;0.13782158;-0.639668;;;;;1562.3
1743.0;1659.5;;;;;;;;;;;;;;;;;18.913847;-2.1782587;35.17258;;1562.3
1743.0;1659.5;;;;;;;;;;;;;;0.8388928;0.16003907;-0.593585;;;;;1562.3
1743.0;1659.5;;;;;;;;;;;;;;;;;17.109438;-2.7924435;35.431988;;1572.0
1743.0;1659.5;;;;;;;;;;;;;;0.8489639;0.18366039;-0.5618458;;;;;1572.0
1743.0;1659.5;;;;;;;;;;;;;;;;;15.495773;-3.0594807;35.29847;;1572.0
1743.0;1659.5;;;;;;;;;;;;;;0.8504898;0.20154424;-0.5238807;;;;;1572.0
1743.0;1659.5;;;;;;;;;;;;;;;;;14.450515;-3.8872952;34.93606;;1581.6
1743.0;1659.5;;;;;;;;;;;;;;0.84829247;0.2153386;-0.49330118;;;;;1581.6
1743.0;1659.5;;;;;;;;;;;;;;;;;13.790551;-5.184332;34.638508;;1581.6
1743.0;1659.5;;;;;;;;;;;;;;0.839198;0.22962126;-0.47743157;;;;;1581.6
1745.0;1660.4;;;;;;;;;;;;;;;;;13.111515;-5.794702;34.653767;;1591.1
1745.0;1660.4;;;;;;;;;;;;;;0.8300424;0.23664053;-0.4631489;;;;;1591.1
1745.0;1660.4;;;;;;;;;;;;;;;;;12.249367;-5.6993318;34.955135;;1591.1
1745.0;1660.4;;;;;;;;;;;;;;0.8119755;0.23078097;-0.44892728;;;;;1591.1
1745.0;1660.4;;;;;;;;;;;;;;;;;11.799219;-5.6802573;35.103916;;1600.8
1745.0;1660.4;;;;;;;;;;;;;;0.7870113;0.22913297;-0.4359874;;;;;1600.8
1745.0;1660.4;;;;;;;;;;;;;;;;;11.68096;-6.000702;35.126804;;1600.8
1745.0;1660.4;;;;;;;;;;;;;;0.75856805;0.22162542;-0.43104342;;;;;1600.8
1745.0;1660.4;;;;;;;;;;;;;;;;;11.768701;-6.260109;35.1001;;1610.5
1745.0;1660.4;;;;;;;;;;;;;;0.7317118;0.21478927;-0.430311;;;;;1610.5
1745.0;1660.4;;;;;;;;;;;;;;;;;11.623737;-6.1418505;34.985657;;1610.5
1745.0;1660.4;;;;;;;;;;;;;;0.69753104;0.20856349;-0.42548907;;;;;1610.5
1745.0;1660.9;262143;262143;14828;;;;;;;;;;;;;;;;;;
1745.0;1668.1;;;;-0.35898975;0.2556992;-0.7121201;;;;;;;;;;;;;;;
1745.0;1668.1;;;;-0.36680987;0.25595477;-0.70123297;;;;;;;;;;;;;;;
1745.0;1668.1;;;;-0.37419513;0.25587848;-0.69034964;;;;;;;;;;;;;;;
1745.0;1668.1;;;;-0.37582403;0.25501636;-0.6816254;;;;;;;;;;;;;;;
1745.0;1668.1;;;;-0.37308124;0.25504306;-0.6753312;;;;;;;;;;;;;;;
1745.0;1678.1;;;;-0.36734775;0.25698474;-0.66758734;;;;;;;;;;;;;;;
1745.0;1678.1;;;;-0.35751727;0.25739673;-0.6656838;;;;;;;;;;;;;;;
1745.0;1678.1;;;;-0.34735873;0.25872806;-0.6636391;;;;;;;;;;;;;;;
1745.0;1678.1;;;;-0.3411751;0.26123813;-0.661274;;;;;;;;;;;;;;;
1745.0;1678.1;;;;-0.3354874;0.26418307;-0.6575852;;;;;;;;;;;;;;;
1818.0;1680.9;262143;262143;14837;;;;;;;;;;;;;;;;;;
1818.0;1687.0;;;;;;;;;;;;;1208;;;;;;;;
1818.0;1687.0;;;;;;;;;;;;;1333;;;;;;;;
1818.0;1687.0;;;;;;;;;;;;;1677;;;;;;;;
1818.0;1687.0;;;;;;;;;;;;;1776;;;;;;;;
1818.0;1687.0;;;;;;;;;;;;;1427;;;;;;;;
1818.0;1688.2;;;;-0.3315697;0.26710895;-0.651867;;;;;;;;;;;;;;;
1818.0;1688.2;;;;-0.32917407;0.2690468;-0.64593893;;;;;;;;;;;;;;;
1818.0;1688.2;;;;-0.32804874;0.2687569;-0.6399155;;;;;;;;;;;;;;;
1818.0;1688.2;;;;-0.3277283;0.2667313;-0.63519675;;;;;;;;;;;;;;;
1818.0;1688.2;;;;-0.32890323;0.26344684;-0.6291047;;;;;;;;;;;;;;;
1818.0;1698.0;;;;-0.33282092;0.26071933;-0.62631613;;;;;;;;;;;;;;;
1818.0;1698.0;;;;-0.33709338;0.25867084;-0.62022406;;;;;;;;;;;;;;;
1818.0;1698.0;;;;-0.34284976;0.25638202;-0.61780554;;;;;;;;;;;;;;;
1818.0;1698.0;;;;-0.3498955;0.25447085;-0.6136475;;;;;;;;;;;;;;;
1818.0;1698.0;;;;-0.3566437;0.25265124;-0.6094056;;;;;;;;;;;;;;;
1818.0;1700.9;262143;262143;14828;;;;;;;;;;;;;;;;;;
1818.0;1708.1;;;;-0.36408618;0.25216678;-0.60374457;;;;;;;;;;;;;;;
1818.0;1708.1;;;;-0.3717461;0.25370792;-0.5935212;;;;;;;;;;;;;;;
1818.0;1708.1;;;;-0.37940603;0.2554932;-0.59006506;;;;;;;;;;;;;;;
1818.0;1708.1;;;;-0.38205725;0.25616077;-0.5811425;;;;;;;;;;;;;;;
1818.0;1708.1;;;;-0.38533026;0.25794986;-0.5721932;;;;;;;;;;;;;;;
1826.0;1718.2;;;;-0.38710028;0.26027682;-0.56468207;;;;;;;;;;;;;;;
1826.0;1718.2;;;;-0.38930136;0.26613238;-0.5449906;;;;;;;;;;;;;;;
1826.0;1718.2;;;;-0.3912316;0.2705727;-0.55616003;;;;;;;;;;;;;;;
1826.0;1718.2;;;;-0.3832627;0.2737122;-0.5579453;;;;;;;;;;;;;;;
1826.0;1718.2;;;;-0.378151;0.279007;-0.5521775;;;;;;;;;;;;;;;
1826.0;1721.1;262143;262143;14844;;;;;;;;;;;;;;;;;;
1826.0;1726.7;;;;;;;;;;;;;;;;;11.185034;-6.0388503;34.87884;;1620.1
1826.0;1726.7;;;;;;;;;;;;;;0.65901667;0.20545061;-0.41010773;;;;;1620.1
1826.0;1726.7;;;;;;;;;;;;;;;;;10.769219;-6.65685;34.67284;;1620.1
1826.0;1726.7;;;;;;;;;;;;;;0.6245918;0.2042909;-0.40046388;;;;;1620.1
1826.0;1726.7;;;;;;;;;;;;;;;;;10.406812;-7.0078125;34.573654;;1629.7
1826.0;1726.7;;;;;;;;;;;;;;0.5774102;0.18774988;-0.382519;;;;;1629.7
1826.0;1726.7;;;;;;;;;;;;;;;;;10.647145;-7.869961;34.890285;;1629.7
1826.0;1726.7;;;;;;;;;;;;;;0.5379192;0.18286692;-0.37659842;;;;;1629.7
1826.0;1726.7;;;;;;;;;;;;;;;;;10.834071;-9.140294;35.134434;;1639.4
1826.0;1726.7;;;;;;;;;;;;;;0.5047151;0.19788201;-0.372631;;;;;1639.4
1826.0;1726.7;;;;;;;;;;;;;;;;;10.807367;-10.597552;35.142063;;1639.4
1826.0;1726.7;;;;;;;;;;;;;;0.4840846;0.2120426;-0.36957914;;;;;1639.4
1826.0;1727.1;;;;;;;;;;;;;1037;;;;;;;;
1826.0;1727.1;;;;;;;;;;;;;705;;;;;;;;
1826.0;1727.1;;;;;;;;;;;;;199;;;;;;;;
1826.0;1727.1;;;;;;;;;;;;;-402;;;;;;;;
1826.0;1727.1;;;;;;;;;;;;;-95;;;;;;;;
1832.0;1727.6;;;;;;;;;;;;;;;;;10.902738;-11.883144;34.54695;;1649.0
1832.0;1727.6;;;;;;;;;;;;;;0.48103276;0.24488053;-0.38453323;;;;;1649.0
1832.0;1727.6;;;;;;;;;;;;;;;;;10.1130705;-11.703849;33.4254;;1649.0
1832.0;1727.6;;;;;;;;;;;;;;0.49031037;0.29425946;-0.3975341;;;;;1649.0
1832.0;1727.6;;;;;;;;;;;;;;;;;8.816034;-10.788294;32.433548;;1658.6
1832.0;1727.6;;;;;;;;;;;;;;0.5362713;0.33198035;-0.41376996;;;;;1658.6
1832.0;1727.6;;;;;;;;;;;;;;;;;7.7097383;-9.205146;31.125065;;1658.6
1832.0;1727.6;;;;;;;;;;;;;;0.58143866;0.39674062;-0.43458357;;;;;1658.6
1832.0;1727.6;;;;;;;;;;;;;;;;;7.1375165;-7.9004793;29.763178;;1668.3
1832.0;1727.6;;;;;;;;;;;;;;0.6257515;0.4557024;-0.45954773;;;;;1668.3
1832.0;1727.6;;;;;;;;;;;;;;;;;6.8132577;-7.8089237;28.431807;;1668.3
1832.0;1727.6;;;;;;;;;;;;;;0.6410718;0.51496935;-0.5069735;;;;;1668.3
1832.0;1728.1;;;;-0.37442783;0.2831612;-0.5557557;;;;;;;;;;;;;;;
1832.0;1728.1;;;;-0.37160876;0.2865601;-0.5618058;;;;;;;;;;;;;;;
1832.0;1728.1;;;;-0.36862186;0.28934863;-0.5626908;;;;;;;;;;;;;;;
1832.0;1728.1;;;;-0.36630252;0.29192737;-0.563675;;;;;;;;;;;;;;;
1832.0;1728.1;;;;-0.3637047;0.29388812;-0.57059103;;;;;;;;;;;;;;;
1832.0;1737.7;;;;;;;;;;2.3232217;19.287699;-1.106296;;;;;;;;;
1832.0;1737.7;;;;;;;0.4883572;-0.09241005;-0.64803004;;;;;;;;;;;;
1832.0;1737.7;;;;;;;;;;7.0535903;33.08588;9.125034;;;;;;;;;
1832.0;1737.7;;;;;;;0.52803123;-0.10022279;-0.7158422;;;;;;;;;;;;
1855.0;1738.1;;;;-0.36257938;0.29591373;-0.57750326;;;;;;;;;;;;;;;
1855.0;1738.1;;;;-0.36235812;0.2977219;-0.5841523;;;;;;;;;;;;;;;
1855.0;1738.1;;;;-0.35742953;0.29791263;-0.59535223;;;;;;;;;;;;;;;
1855.0;1738.1;;;;-0.34852603;0.2973328;-0.6010743;;;;;;;;;;;;;;;
1855.0;1738.1;;;;-0.34223178;0.3009644;-0.6036301;;;;;;;;;;;;;;;
1855.0;1741.1;262143;262143;14836;;;;;;;;;;;;;;;;;;
1855.0;1747.3;;;;;;;;;;2.0790737;5.413221;3.2807398;;;;;;;;;
1855.0;1747.3;;;;;;;0.49818414;-0.091677606;-0.69747;;;;;;;;;;;;
1855.0;1747.3;;;;;;;;;;7.721183;18.349255;9.80407;;;;;;;;;
1855.0;1747.3;;;;;;;0.4741966;-0.086123236;-0.6798303;;;;;;;;;;;;
1855.0;1748.1;;;;-0.34219745;0.30078128;-0.6131821;;;;;;;;;;;;;;;
1855.0;1748.1;;;;-0.33915713;0.30318072;-0.6226006;;;;;;;;;;;;;;;
1855.0;1748.1;;;;-0.33480075;0.3071442;-0.6338044;;;;;;;;;;;;;;;
1855.0;1748.1;;;;-0.32597354;0.3093796;-0.6424714;;;;;;;;;;;;;;;
1855.0;1748.1;;;;-0.3184357;0.3109093;-0.65183645;;;;;;;;;;;;;;;
1855.0;1756.7;;;;;;;;;;9.224219;20.569475;9.632405;;;;;;;;;
1855.0;1756.7;;;;;;;0.4580218;-0.07794427;-0.66078675;;;;;;;;;;;;
1855.0;1756.7;;;;;;;;;;5.054628;-13.458663;-13.134403;;;;;;;;;
1855.0;1756.7;;;;;;;0.4483169;-0.07458724;-0.6472365;;;;;;;;;;;;
1859.0;1758.1;;;;-0.31013492;0.31478122;-0.656395;;;;;;;;;;;;;;;
1859.0;1758.1;;;;-0.3009186;0.32027057;-0.66310126;;;;;;;;;;;;;;;
1859.0;1758.1;;;;-0.2943459;0.3258591;-0.6731263;;;;;;;;;;;;;;;
1859.0;1758.1;;;;-0.28847125;0.33182147;-0.6814385;;;;;;;;;;;;;;;
1859.0;1758.1;;;;-0.28683856;0.33851245;-0.6883164;;;;;;;;;;;;;;;
1859.0;1761.2;262143;262143;14841;;;;;;;;;;;;;;;;;;
1859.0;1766.4;;;;;;;;;;5.0889616;-12.424848;-14.343699;;;;;;;;;
1859.0;1766.4;;;;;;;0.4407483;-0.06927702;-0.6317331;;;;;;;;;;;;
1859.0;1766.4;;;;;;;;;;4.50148;-10.876034;-15.625477;;;;;;;;;
1859.0;1766.4;;;;;;;0.4342784;-0.059938353;-0.6151921;;;;;;;;;;;;
1859.0;1767.2;;;;;;;;;;;;;2037;;;;;;;;
1859.0;1767.2;;;;;;;;;;;;;2132;;;;;;;;
1859.0;1767.2;;;;;;;;;;;;;-7082;;;;;;;;
1859.0;1767.2;;;;;;;;;;;;;-23687;;;;;;;;
1859.0;1767.2;;;;;;;;;;;;;-33058;;;;;;;;
1859.0;1768.2;;;;-0.28831866;0.3445969;-0.6943055;;;;;;;;;;;;;;;
1859.0;1768.2;;;;-0.2915688;0.35045245;-0.6984711;;;;;;;;;;;;;;;
1859.0;1768.2;;;;-0.29784396;0.35532;-0.7026978;;;;;;;;;;;;;;;
1859.0;1768.2;;;;-0.30422977;0.35805514;-0.7073594;;;;;;;;;;;;;;;
1859.0;1768.2;;;;-0.30967715;0.35880664;-0.70948416;;;;;;;;;;;;;;;
1859.0;1776.0;;;;;;;;;;2.9145176;-1.6136662;-11.486403;;;;;;;;;
1859.0;1776.0;;;;;;;0.42304757;-0.05224769;-0.59694207;;;;;;;;;;;;
1859.0;1776.0;;;;;;;;;;0.84307384;7.477035;-5.8442945;;;;;;;;;
1859.0;1776.0;;;;;;;0.40382093;-0.043397322;-0.5793634;;;;;;;;;;;;
1862.0;1778.3;;;;-0.30751804;0.3594933;-0.71028906;;;;;;;;;;;;;;;
1862.0;1778.3;;;;-0.3102112;0.35971835;-0.71347815;;;;;;;;;;;;;;;
1862.0;1778.3;;;;-0.31438068;0.36160663;-0.7142373;;;;;;;;;;;;;;;
1862.0;1778.3;;;;-0.32232288;0.36618426;-0.71490484;;;;;;;;;;;;;;;
1862.0;1778.3;;;;-0.3317528;0.37129596;-0.716034;;;;;;;;;;;;;;;
1862.0;1781.4;262143;262143;14846;;;;;;;;;;;;;;;;;;
1862.0;1785.6;;;;;;;;;;-0.82399976;7.488479;-5.2568135;;;;;;;;;
1862.0;1785.6;;;;;;;0.382519;-0.039613027;-0.5504929;;;;;;;;;;;;
1862.0;1785.6;;;;;;;;;;-2.4719992;6.984924;-4.425184;;;;;;;;;
1862.0;1785.6;;;;;;;0.36793116;-0.03485214;-0.53028965;;;;;;;;;;;;
1862.0;1787.5;;;;;;;;;;;;;;;;;6.275368;-8.911405;27.066103;;1677.9
1862.0;1787.5;;;;;;;;;;;;;;0.63344216;0.5602588;-0.5442061;;;;;1677.9
1862.0;1787.5;;;;;;;;;;;;;;;;;5.1004057;-10.0138855;25.837732;;1677.9
1862.0;1787.5;;;;;;;;;;;;;;0.6346629;0.5840022;-0.5544603;;;;;1677.9
1862.0;1787.5;;;;;;;;;;;;;;;;;2.170629;-9.42259;25.055696;;1687.6
1862.0;1787.5;;;;;;;;;;;;;;0.61079746;0.5922422;-0.5469527;;;;;1687.6
1862.0;1787.5;;;;;;;;;;;;;;;;;-2.0180366;-8.423109;24.594105;;1687.6
1862.0;1787.5;;;;;;;;;;;;;;0.5714286;0.5675222;-0.5148473;;;;;1687.6
1862.0;1787.5;;;;;;;;;;;;;;;;;-6.2982574;-8.915219;23.766289;;1697.0
1862.0;1787.5;;;;;;;;;;;;;;0.5213172;0.51680046;-0.4794458;;;;;1697.0
1862.0;1787.5;;;;;;;;;;;;;;;;;-10.505997;-9.918515;22.442549;;1697.0
1862.0;1787.5;;;;;;;;;;;;;;0.49049348;0.4683981;-0.45448163;;;;;1697.0
1863.0;1788.4;;;;-0.3340111;0.37817007;-0.7141076;;;;;;;;;;;;;;;
1863.0;1788.4;;;;-0.3340111;0.38325125;-0.7144738;;;;;;;;;;;;;;;
1863.0;1788.4;;;;-0.33445743;0.38795477;-0.71337515;;;;;;;;;;;;;;;
1863.0;1788.4;;;;-0.33669665;0.39368063;-0.7111741;;;;;;;;;;;;;;;
1863.0;1788.4;;;;-0.34149173;0.4014092;-0.7070237;;;;;;;;;;;;;;;
1863.0;1795.1;;;;;;;;;;-4.2191844;6.2257757;-3.5744805;;;;;;;;;
1863.0;1795.1;;;;;;;0.3566393;-0.029786065;-0.50660723;;;;;;;;;;;;
1863.0;1795.1;;;;;;;;;;-5.8023314;4.909665;-2.5482955;;;;;;;;;
1863.0;1795.1;;;;;;;0.35572374;-0.023071993;-0.47932371;;;;;;;;;;;;
1863.0;1798.5;;;;-0.35103992;0.4102288;-0.7027932;;;;;;;;;;;;;;;
1863.0;1798.5;;;;-0.36243442;0.41912466;-0.6995736;;;;;;;;;;;;;;;
1863.0;1798.5;;;;-0.3712044;0.42774206;-0.6963578;;;;;;;;;;;;;;;
1863.0;1798.5;;;;-0.37982184;0.43566138;-0.6889611;;;;;;;;;;;;;;;
1863.0;1798.5;;;;-0.39109045;0.44217306;-0.68168265;;;;;;;;;;;;;;;
1863.0;1801.6;262143;262143;14859;;;;;;;;;;;;;;;;;;
1863.0;1804.8;;;;;;;;;;-7.450331;3.6774805;-1.4801477;;;;;;;;;
1863.0;1804.8;;;;;;;0.36353648;-0.019470809;-0.46278268;;;;;;;;;;;;
1863.0;1804.8;;;;;;;;;;-9.00296;2.1439252;-0.6828517;;;;;;;;;
1863.0;1804.8;;;;;;;0.3670156;-0.016052736;-0.45924252;;;;;;;;;;;;
1863.0;1807.5;;;;;;;;;;;;;-24044;;;;;;;;
1863.0;1807.5;;;;;;;;;;;;;-3388;;;;;;;;
1863.0;1807.5;;;;;;;;;;;;;11726;;;;;;;;
1863.0;1807.5;;;;;;;;;;;;;12993;;;;;;;;
1863.0;1807.5;;;;;;;;;;;;;6978;;;;;;;;
1918.0;1808.4;;;;-0.39763647;0.4456101;-0.67591864;;;;;;;;;;;;;;;
1918.0;1808.4;;;;-0.4049378;0.44717795;-0.66499716;;;;;;;;;;;;;;;
1918.0;1808.4;;;;-0.41390616;0.4479981;-0.6552697;;;;;;;;;;;;;;;
1918.0;1808.4;;;;-0.42360312;0.44746405;-0.64864737;;;;;;;;;;;;;;;
1918.0;1808.4;;;;-0.4274369;0.446621;-0.64516073;;;;;;;;;;;;;;;
1918.0;1814.1;;;;;;;;;;-10.505997;-0.11444441;-0.1678518;;;;;;;;;
1918.0;1814.1;;;;;;;0.36860254;-0.010986663;-0.46748254;;;;;;;;;;;;
1918.0;1814.1;;;;;;;;;;-12.211219;-2.6284068;0.5569628;;;;;;;;;
1918.0;1814.1;;;;;;;0.37464523;-0.0110477;-0.47889644;;;;;;;;;;;;
1918.0;1818.4;;;;-0.4267388;0.44667822;-0.64514166;;;;;;;;;;;;;;;
1918.0;1818.4;;;;-0.41875845;0.44731146;-0.6434174;;;;;;;;;;;;;;;
1918.0;1818.4;;;;-0.4065705;0.44788748;-0.6429482;;;;;;;;;;;;;;;
1918.0;1818.4;;;;-0.39851385;0.44839865;-0.63970953;;;;;;;;;;;;;;;
1918.0;1818.4;;;;-0.38770682;0.45072943;-0.62543494;;;;;;;;;;;;;;;
1918.0;1821.6;262143;262143;14852;;;;;;;;;;;;;;;;;;
1918.0;1823.7;;;;;;;;;;-13.969848;-4.5854063;1.2627033;;;;;;;;;
1918.0;1823.7;;;;;;;0.38343456;-0.009094516;-0.48878446;;;;;;;;;;;;
1918.0;1823.7;;;;;;;;;;-15.614033;-5.989258;1.7204809;;;;;;;;;
1918.0;1823.7;;;;;;;0.39167455;-0.014038514;-0.4958037;;;;;;;;;;;;
1919.0;1828.5;;;;-0.3762284;0.45268255;-0.61729056;;;;;;;;;;;;;;;
1919.0;1828.5;;;;-0.36545947;0.4564095;-0.61028296;;;;;;;;;;;;;;;
1919.0;1828.5;;;;-0.36277393;0.464531;-0.6068383;;;;;;;;;;;;;;;
1919.0;1828.5;;;;-0.36742786;0.47222525;-0.6131707;;;;;;;;;;;;;;;
1919.0;1828.5;;;;-0.3662453;0.47583777;-0.6241875;;;;;;;;;;;;;;;
1919.0;1833.3;;;;;;;;;;-17.212439;-7.141331;2.1973326;;;;;;;;;
1919.0;1833.3;;;;;;;0.39594713;-0.017517624;-0.49616992;;;;;;;;;;;;
1919.0;1833.3;;;;;;;;;;-18.85281;-8.056887;2.6932585;;;;;;;;;
1919.0;1833.3;;;;;;;0.3960082;-0.02069155;-0.50166327;;;;;;;;;;;;
1919.0;1838.6;;;;-0.35781863;0.47495276;-0.6432572;;;;;;;;;;;;;;;
1919.0;1838.6;;;;-0.34190753;0.47175986;-0.66468054;;;;;;;;;;;;;;;
1919.0;1838.6;;;;-0.32266238;0.46934897;-0.68900687;;;;;;;;;;;;;;;
1919.0;1838.6;;;;-0.29970172;0.46921927;-0.7133103;;;;;;;;;;;;;;;
1919.0;1838.6;;;;-0.27699664;0.46947867;-0.7395745;;;;;;;;;;;;;;;
1919.0;1841.8;262143;262143;14859;;;;;;;;;;;;;;;;;;
1919.0;1843.0;;;;;;;;;;-20.18418;-8.556626;3.1357768;;;;;;;;;
1919.0;1843.0;;;;;;;0.39631337;-0.021240883;-0.5014191;;;;;;;;;;;;
1919.0;1843.0;;;;;;;;;;-21.477402;-8.465072;3.6965547;;;;;;;;;
1919.0;1843.0;;;;;;;0.39649647;-0.020447401;-0.5069735;;;;;;;;;;;;
1922.0;1847.9;;;;;;;;;;;;;;;;;-13.672293;-10.704368;20.45503;;1706.6
1922.0;1847.9;;;;;;;;;;;;;;0.47328106;0.41645557;-0.44526505;;;;;1706.6
1922.0;1847.9;;;;;;;;;;;;;;;;;-14.774774;-11.436811;17.349771;;1706.6
1922.0;1847.9;;;;;;;;;;;;;;0.45008698;0.37385175;-0.43568224;;;;;1706.6
1922.0;1847.9;;;;;;;;;;;;;;;;;-13.8363285;-13.2107;13.660849;;1716.3
1922.0;1847.9;;;;;;;;;;;;;;0.4496597;0.3463851;-0.44538713;;;;;1716.3
1922.0;1847.9;;;;;;;;;;;;;;;;;-11.421552;-14.084292;9.975738;;1716.3
1922.0;1847.9;;;;;;;;;;;;;;0.44691306;0.33491012;-0.46546832;;;;;1716.3
1922.0;1847.9;;;;;;;;;;;;;;;;;-8.491775;-14.599292;6.1571097;;1725.8
1922.0;1847.9;;;;;;;;;;;;;;0.44148076;0.3418073;-0.486404;;;;;1725.8
1922.0;1847.9;;;;;;;;;;;;;;;;;-6.0197763;-14.62981;2.906888;;1725.8
1922.0;1847.9;;;;;;;;;;;;;;0.45301676;0.37800226;-0.47932371;;;;;1725.8
1922.0;1847.7;;;;;;;;;;;;;2842;;;;;;;;
1922.0;1847.7;;;;;;;;;;;;;1800;;;;;;;;
1922.0;1847.7;;;;;;;;;;;;;1211;;;;;;;;
1922.0;1847.7;;;;;;;;;;;;;715;;;;;;;;
1922.0;1847.7;;;;;;;;;;;;;581;;;;;;;;
1923.0;1848.8;;;;;;;;;;;;;;;;;-4.6540728;-14.908293;0.3318888;;1735.5
1923.0;1848.8;;;;;;;;;;;;;;0.46369824;0.41035187;-0.4837794;;;;;1735.5
1923.0;1848.8;;;;;;;;;;;;;;;;;-3.1357768;-13.840144;-2.4338512;;1735.5
1923.0;1848.8;;;;;;;;;;;;;;0.45429853;0.43787956;-0.47822505;;;;;1735.5
1923.0;1848.8;;;;;;;;;;;;;;;;;-1.9760735;-13.977477;-5.3559985;;1745.1
1923.0;1848.8;;;;;;;;;;;;;;0.45796075;0.47267067;-0.46986297;;;;;1745.1
1923.0;1848.8;;;;;;;;;;;;;;;;;-2.4910734;-13.172552;-7.980591;;1745.1
1923.0;1848.8;;;;;;;;;;;;;;0.48329112;0.499588;-0.4464858;;;;;1745.1
1923.0;1848.8;;;;;;;;;;;;;;;;;-3.5782952;-11.368145;-10.414441;;1754.8
1923.0;1848.8;;;;;;;;;;;;;;0.50001526;0.5152135;-0.40882596;;;;;1754.8
1923.0;1848.8;;;;;;;;;;;;;;;;;-5.4246655;-13.031404;-11.978516;;1754.8
1923.0;1848.8;;;;;;;;;;;;;;0.49635303;0.4977569;-0.38178656;;;;;1754.8
1923.0;1848.6;;;;-0.25849155;0.4707337;-0.7620698;;;;;;;;;;;;;;;
1923.0;1848.6;;;;-0.24349979;0.47300345;-0.78035367;;;;;;;;;;;;;;;
1923.0;1848.6;;;;-0.23837283;0.47744375;-0.7941781;;;;;;;;;;;;;;;
1923.0;1848.6;;;;-0.24571231;0.48589712;-0.8001214;;;;;;;;;;;;;;;
1923.0;1848.6;;;;-0.25784305;0.49547583;-0.80430996;;;;;;;;;;;;;;;
1923.0;1852.5;;;;;;;;;;-22.461622;-7.4732203;4.337443;;;;;;;;;
1923.0;1852.5;;;;;;;0.40070802;-0.019470809;-0.507828;;;;;;;;;;;;
1923.0;1852.5;;;;;;;;;;-23.232216;-5.9587393;5.00885;;;;;;;;;
1923.0;1852.5;;;;;;;0.40479752;-0.022278512;-0.5089877;;;;;;;;;;;;
1924.0;1854.9;;;;;;;;;;;;;;;;;-9.445479;-17.559587;-13.634145;;1764.4
1924.0;1854.9;;;;;;;;;;;;;;0.52540666;0.4445326;-0.40565202;;;;;1764.4
1924.0;1854.9;;;;;;;;;;;;;;;;;-12.29133;-16.273996;-16.251106;;1764.4
1924.0;1854.9;;;;;;;;;;;;;;0.56556904;0.40534684;-0.38734093;;;;;1764.4
1924.0;1854.9;;;;;;;;;;;;;;;;;-15.156255;-13.527329;-18.730736;;1774.0
1924.0;1854.9;;;;;;;;;;;;;;0.59035003;0.3782464;-0.3782464;;;;;1774.0
1924.0;1854.9;;;;;;;;;;;;;;;;;-16.590626;-10.490738;-21.050142;;1774.0
1924.0;1854.9;;;;;;;;;;;;;;0.59492785;0.3805048;-0.39875484;;;;;1774.0
1924.0;1854.9;;;;;;;;;;;;;;;;;-18.066957;-7.450331;-22.492142;;1783.7
1924.0;1854.9;;;;;;;;;;;;;;0.62367624;0.37397382;-0.44013795;;;;;1783.7
1924.0;1854.9;;;;;;;;;;;;;;;;;-19.085514;-2.4719992;-23.915068;;1783.7
1924.0;1854.9;;;;;;;;;;;;;;0.5958434;0.3620716;-0.47059542;;;;;1783.7
1924.0;1858.5;;;;-0.27346805;0.5040284;-0.8069726;;;;;;;;;;;;;;;
1924.0;1858.5;;;;-0.29010776;0.51152426;-0.8057176;;;;;;;;;;;;;;;
1924.0;1858.5;;;;-0.30711368;0.5194245;-0.8001939;;;;;;;;;;;;;;;
1924.0;1858.5;;;;-0.32740405;0.5251618;-0.7932893;;;;;;;;;;;;;;;
1924.0;1858.5;;;;-0.34479144;0.5306626;-0.7881776;;;;;;;;;;;;;;;
1924.0;1861.9;;;;;;;;;;-24.140142;-4.528184;5.550554;;;;;;;;;
1924.0;1861.9;;;;;;;0.40357676;-0.024414808;-0.514481;;;;;;;;;;;;
1924.0;1861.9;;;;;;;;;;-24.967955;-3.3417768;6.0350356;;;;;;;;;
1924.0;1861.9;;;;;;;0.40766624;-0.028321177;-0.5235145;;;;;;;;;;;;
1924.0;1861.8;262143;262143;14857;;;;;;;;;;;;;;;;;;
1978.0;1868.5;;;;-0.35744098;0.53581244;-0.7829095;;;;;;;;;;;;;;;
1978.0;1868.5;;;;-0.36827853;0.5381852;-0.77658474;;;;;;;;;;;;;;;
1978.0;1868.5;;;;-0.37775046;0.53999716;-0.7678529;;;;;;;;;;;;;;;
1978.0;1868.5;;;;-0.38655096;0.54098135;-0.758587;;;;;;;;;;;;;;;
1978.0;1868.5;;;;-0.40023047;0.5425759;-0.75094235;;;;;;;;;;;;;;;
1978.0;1871.1;;;;;;;;;;-25.69277;-1.8768883;6.4737387;;;;;;;;;
1978.0;1871.1;;;;;;;0.4199347;-0.02661214;-0.5332194;;;;;;;;;;;;
1978.0;1871.1;;;;;;;;;;-26.490067;0.12588885;6.916257;;;;;;;;;
1978.0;1871.1;;;;;;;0.43653676;-0.024292734;-0.549028;;;;;;;;;;;;
1978.0;1878.1;;;;-0.4061051;0.5438462;-0.7433663;;;;;;;;;;;;;;;
1978.0;1878.1;;;;-0.42015082;0.54189306;-0.74301535;;;;;;;;;;;;;;;
1978.0;1878.1;;;;-0.40438086;0.54422385;-0.72983176;;;;;;;;;;;;;;;
1978.0;1878.1;;;;-0.38644415;0.54054266;-0.73367316;;;;;;;;;;;;;;;
1978.0;1878.1;;;;-0.3860665;0.5369149;-0.7385712;;;;;;;;;;;;;;;
1978.0;1880.6;;;;;;;;;;-27.043215;2.2240365;7.187109;;;;;;;;;
1978.0;1880.6;;;;;;;0.45118564;-0.02148503;-0.5741142;;;;;;;;;;;;
1978.0;1880.6;;;;;;;;;;-27.34077;4.2458873;7.2367015;;;;;;;;;
1978.0;1880.6;;;;;;;0.4629658;-0.019898068;-0.5990173;;;;;;;;;;;;
1978.0;1881.5;262143;262143;14855;;;;;;;;;;;;;;;;;;
1978.0;1887.5;;;;;;;;;;;;;413;;;;;;;;
1978.0;1887.5;;;;;;;;;;;;;137;;;;;;;;
1978.0;1887.5;;;;;;;;;;;;;-395;;;;;;;;
1978.0;1887.5;;;;;;;;;;;;;-1102;;;;;;;;
1978.0;1887.5;;;;;;;;;;;;;-1564;;;;;;;;
1981.0;1888.2;;;;-0.3920098;0.5361863;-0.7401963;;;;;;;;;;;;;;;
1981.0;1888.2;;;;-0.40374762;0.5348168;-0.7431794;;;;;;;;;;;;;;;
1981.0;1888.2;;;;-0.41362387;0.53254706;-0.74023443;;;;;;;;;;;;;;;
1981.0;1888.2;;;;-0.42198187;0.52771765;-0.7376099;;;;;;;;;;;;;;;
1981.0;1888.2;;;;-0.42792135;0.5218659;-0.7365914;;;;;;;;;;;;;;;
1981.0;1890.2;;;;;;;;;;-27.63451;5.94348;7.133702;;;;;;;;;
1981.0;1890.2;;;;;;;0.46864223;-0.023194067;-0.6266671;;;;;;;;;;;;
1981.0;1890.2;;;;;;;;;;-27.981657;7.4541464;7.1756644;;;;;;;;;
1981.0;1890.2;;;;;;;0.47126684;-0.030152287;-0.6458327;;;;;;;;;;;;
1981.0;1898.3;;;;-0.4320336;0.51464087;-0.7372437;;;;;;;;;;;;;;;
1981.0;1898.3;;;;-0.43275076;0.51139456;-0.7340508;;;;;;;;;;;;;;;
1981.0;1898.3;;;;-0.44792944;0.50353247;-0.7304612;;;;;;;;;;;;;;;
1981.0;1898.3;;;;-0.46462256;0.49582678;-0.7254601;;;;;;;;;;;;;;;
1981.0;1898.3;;;;-0.47671133;0.4917069;-0.72064596;;;;;;;;;;;;;;;
1982.0;1899.8;;;;;;;;;;;;;;;;;-19.806513;1.6098514;-25.410473;;1793.3
1982.0;1899.8;;;;;;;;;;;;;;0.55293435;0.36481827;-0.47663808;;;;;1793.3
1982.0;1899.8;;;;;;;;;;;;;;;;;-22.587511;6.3173313;-25.788141;;1793.3
1982.0;1899.8;;;;;;;;;;;;;;0.5860164;0.3559679;-0.43513292;;;;;1793.3
1982.0;1899.8;;;;;;;;;;;;;;;;;-24.594105;13.096255;-25.88351;;1803.0
1982.0;1899.8;;;;;;;;;;;;;;0.61201817;0.32856226;-0.36750388;;;;;1803.0
1982.0;1899.8;;;;;;;;;;;;;;;;;-21.782587;15.346995;-26.860104;;1803.0
1982.0;1899.8;;;;;;;;;;;;;;0.5829035;0.29670095;-0.37012848;;;;;1803.0
1982.0;1899.8;;;;;;;;;;;;;;;;;-15.610218;12.314219;-28.897213;;1812.6
1982.0;1899.8;;;;;;;;;;;;;;0.60683006;0.2834559;-0.42713705;;;;;1812.6
1982.0;1899.8;;;;;;;;;;;;;;;;;-9.548479;11.753441;-31.388287;;1812.6
1982.0;1899.8;;;;;;;;;;;;;;0.6140324;0.2912076;-0.4268929;;;;;1812.6
1982.0;1899.8;;;;;;;;;;-28.118992;9.292887;7.2824793;;;;;;;;;
1982.0;1899.8;;;;;;;0.47724846;-0.041077916;-0.6541948;;;;;;;;;;;;
1982.0;1899.8;;;;;;;;;;-28.06177;10.902738;7.1718497;;;;;;;;;
1982.0;1899.8;;;;;;;0.4751732;-0.05487228;-0.6533403;;;;;;;;;;;;
1983.0;1901.8;;;;;;;;;;;;;;;;;-4.0513325;8.575701;-33.597065;;1822.2
1983.0;1901.8;;;;;;;;;;;;;;0.6009705;0.29749444;-0.48860133;;;;;1822.2
1983.0;1901.8;;;;;;;;;;;;;;;;;-1.823481;8.960998;-34.932247;;1822.2
1983.0;1901.8;;;;;;;;;;;;;;0.6367382;0.32325205;-0.5299844;;;;;1822.2
1983.0;1901.8;;;;;;;;;;;;;;;;;-4.0894804;14.213996;-35.41673;;1831.9
1983.0;1901.8;;;;;;;;;;;;;;0.64064455;0.31598866;-0.4885403;;;;;1831.9
1983.0;1901.8;;;;;;;;;;;;;;;;;-7.9195538;14.492477;-35.08484;;1831.9
1983.0;1901.8;;;;;;;;;;;;;;0.5847346;0.3070162;-0.4822535;;;;;1831.9
1983.0;1901.8;;;;;;;;;;;;;;;;;-9.651479;7.805109;-33.780178;;1841.5
1983.0;1901.8;;;;;;;;;;;;;;0.59169286;0.26416823;-0.5326701;;;;;1841.5
1983.0;1901.8;;;;;;;;;;;;;;;;;-11.291848;5.897702;-33.062992;;1841.5
1983.0;1901.8;;;;;;;;;;;;;;0.68709373;0.31421858;-0.53956723;;;;;1841.5
1983.0;1901.6;262143;262143;14853;;;;;;;;;;;;;;;;;;
1983.0;1908.3;;;;-0.48588568;0.4892617;-0.7187615;;;;;;;;;;;;;;;
1983.0;1908.3;;;;-0.4928208;0.48646933;-0.71666723;;;;;;;;;;;;;;;
1983.0;1908.3;;;;-0.5057259;0.4790154;-0.7234269;;;;;;;;;;;;;;;
1983.0;1908.3;;;;-0.5150452;0.4733315;-0.7174645;;;;;;;;;;;;;;;
1983.0;1908.3;;;;-0.51601416;0.47528464;-0.704712;;;;;;;;;;;;;;;
1983.0;1909.3;;;;;;;;;;-27.787102;11.661885;7.3854795;;;;;;;;;
1983.0;1909.3;;;;;;;0.46089053;-0.07043672;-0.65865046;;;;;;;;;;;;
1983.0;1909.3;;;;;;;;;;-27.901546;11.341441;8.079776;;;;;;;;;
1983.0;1909.3;;;;;;;0.44227424;-0.082888275;-0.68330944;;;;;;;;;;;;
2039.0;1918.3;;;;-0.5180703;0.47700125;-0.699009;;;;;;;;;;;;;;;
2039.0;1918.3;;;;-0.51624686;0.47750098;-0.6882172;;;;;;;;;;;;;;;
2039.0;1918.3;;;;-0.5099221;0.47742087;-0.68674856;;;;;;;;;;;;;;;
2039.0;1918.3;;;;-0.5053254;0.47736746;-0.6843415;;;;;;;;;;;;;;;
2039.0;1918.3;;;;-0.49820715;0.4784928;-0.6908799;;;;;;;;;;;;;;;
2039.0;1918.8;;;;;;;;;;-28.267769;10.395368;8.621479;;;;;;;;;
2039.0;1918.8;;;;;;;0.43995485;-0.092471085;-0.7094943;;;;;;;;;;;;
2039.0;1918.8;;;;;;;;;;-28.595844;9.414961;8.255258;;;;;;;;;
2039.0;1918.8;;;;;;;0.44990388;-0.09784234;-0.7318339;;;;;;;;;;;;
2039.0;1921.7;262143;262143;14842;;;;;;;;;;;;;;;;;;
2039.0;1927.6;;;;;;;;;;;;;-1753;;;;;;;;
2039.0;1927.6;;;;;;;;;;;;;-1913;;;;;;;;
2039.0;1927.6;;;;;;;;;;;;;-2242;;;;;;;;
2039.0;1927.6;;;;;;;;;;;;;-2786;;;;;;;;
2039.0;1927.6;;;;;;;;;;;;;-3349;;;;;;;;
2039.0;1928.4;;;;-0.49162298;0.48097235;-0.6886025;;;;;;;;;;;;;;;
2039.0;1928.4;;;;-0.48598105;0.48152548;-0.6878167;;;;;;;;;;;;;;;
2039.0;1928.4;;;;-0.49327475;0.47733313;-0.68833166;;;;;;;;;;;;;;;
2039.0;1928.4;;;;-0.47611243;0.47586066;-0.6857911;;;;;;;;;;;;;;;
2039.0;1928.4;;;;-0.46152502;0.472004;-0.69160086;;;;;;;;;;;;;;;
2039.0;1928.4;;;;;;;;;;-28.927732;8.816034;7.3664055;;;;;;;;;
2039.0;1928.4;;;;;;;0.46040222;-0.09625538;-0.74422437;;;;;;;;;;;;
2039.0;1928.4;;;;;;;;;;-28.916288;8.919034;6.7484055;;;;;;;;;
2039.0;1928.4;;;;;;;0.46052432;-0.09509568;-0.74782556;;;;;;;;;;;;
2042.0;1937.7;;;;;;;;;;-28.820917;9.365368;6.408887;;;;;;;;;
2042.0;1937.7;;;;;;;0.46052432;-0.094058044;-0.748558;;;;;;;;;;;;
2042.0;1937.7;;;;;;;;;;-28.622547;10.074923;6.248665;;;;;;;;;
2042.0;1937.7;;;;;;;0.4615009;-0.0987579;-0.7509995;;;;;;;;;;;;
2042.0;1938.2;;;;-0.46369177;0.46597296;-0.7090226;;;;;;;;;;;;;;;
2042.0;1938.2;;;;-0.46038824;0.46635824;-0.71440893;;;;;;;;;;;;;;;
2042.0;1938.2;;;;-0.45804983;0.46724707;-0.72806937;;;;;;;;;;;;;;;
2042.0;1938.2;;;;-0.46176535;0.4666825;-0.73540884;;;;;;;;;;;;;;;
2042.0;1938.2;;;;-0.44907004;0.47017294;-0.7425576;;;;;;;;;;;;;;;
2042.0;1941.7;262143;262143;14844;;;;;;;;;;;;;;;;;;
2042.0;1947.4;;;;;;;;;;-28.305918;10.5822935;6.145665;;;;;;;;;
2042.0;1947.4;;;;;;;0.4611957;-0.10455641;-0.760094;;;;;;;;;;;;
2042.0;1947.4;;;;;;;;;;-27.993103;11.013368;5.93585;;;;;;;;;
2042.0;1947.4;;;;;;;0.46192816;-0.107852414;-0.77071446;;;;;;;;;;;;
2042.0;1948.3;;;;-0.43458182;0.4749375;-0.75037014;;;;;;;;;;;;;;;
2042.0;1948.3;;;;-0.42224127;0.4807244;-0.742302;;;;;;;;;;;;;;;
2042.0;1948.3;;;;-0.41663367;0.48743445;-0.72775656;;;;;;;;;;;;;;;
2042.0;1948.3;;;;-0.4124146;0.4921227;-0.7276612;;;;;;;;;;;;;;;
2042.0;1948.3;;;;-0.40274435;0.49343878;-0.7298127;;;;;;;;;;;;;;;
2042.0;1957.0;;;;;;;;;;-27.53151;11.192663;5.474258;;;;;;;;;
2042.0;1957.0;;;;;;;0.46650594;-0.114749596;-0.78737754;;;;;;;;;;;;
2042.0;1957.0;;;;;;;;;;-26.947845;10.95996;5.142369;;;;;;;;;
2042.0;1957.0;;;;;;;0.46192816;-0.11951049;-0.81081575;;;;;;;;;;;;
2043.0;1958.4;;;;-0.40427786;0.49085242;-0.73403174;;;;;;;;;;;;;;;
2043.0;1958.4;;;;-0.39706045;0.49423987;-0.73180014;;;;;;;;;;;;;;;
2043.0;1958.4;;;;-0.3910218;0.5003663;-0.7378426;;;;;;;;;;;;;;;
2043.0;1958.4;;;;-0.39928442;0.50295264;-0.74721533;;;;;;;;;;;;;;;
2043.0;1958.4;;;;-0.4118691;0.5053826;-0.7515222;;;;;;;;;;;;;;;
2043.0;1960.0;;;;;;;;;;;;;;;;;-14.522996;13.954588;-33.032475;;1851.1
2043.0;1960.0;;;;;;;;;;;;;;0.70479447;0.36280406;-0.49922177;;;;;1851.1
2043.0;1960.0;;;;;;;;;;;;;;;;;-15.511032;21.69103;-33.436844;;1851.1
2043.0;1960.0;;;;;;;;;;;;;;0.63399154;0.43415633;-0.5107578;;;;;1851.1
2043.0;1960.0;;;;;;;;;;;;;;;;;-13.389997;22.320475;-34.50499;;1860.7
2043.0;1960.0;;;;;;;;;;;;;;0.5681326;0.48994416;-0.57997376;;;;;1860.7
2043.0;1960.0;;;;;;;;;;;;;;;;;-12.024293;22.274696;-35.996582;;1860.7
2043.0;1960.0;;;;;;;;;;;;;;0.5899228;0.4969634;-0.60817283;;;;;1860.7
2043.0;1960.0;;;;;;;;;;;;;;;;;-12.516403;27.775658;-38.590656;;1870.3
2043.0;1960.0;;;;;;;;;;;;;;0.6469924;0.49922177;-0.5148473;;;;;1870.3
2043.0;1960.0;;;;;;;;;;;;;;;;;-13.2107;34.43632;-41.88284;;1870.3
2043.0;1960.0;;;;;;;;;;;;;;0.69569993;0.50111395;-0.42036194;;;;;1870.3
2044.0;1960.8;;;;;;;;;;;;;;;;;-13.611256;43.53084;-45.678577;;1879.9
2044.0;1960.8;;;;;;;;;;;;;;0.72328866;0.4987335;-0.33198035;;;;;1879.9
2044.0;1960.8;;;;;;;;;;;;;;;;;-16.365551;52.28202;-49.2378;;1879.9
2044.0;1960.8;;;;;;;;;;;;;;0.7429426;0.5008087;-0.29212317;;;;;1879.9
2044.0;1960.8;;;;;;;;;;;;;;;;;-20.008698;59.08002;-53.28532;;1889.5
2044.0;1960.8;;;;;;;;;;;;;;0.69606614;0.5334025;-0.28479874;;;;;1889.5
2044.0;1960.8;;;;;;;;;;;;;;;;;-23.922697;60.750908;-58.107243;;1889.5
2044.0;1960.8;;;;;;;;;;;;;;0.70229197;0.50282294;-0.3109836;;;;;1889.5
2044.0;1960.8;;;;;;;;;;;;;;;;;-28.775139;66.13361;-63.283943;;1899.1
2044.0;1960.8;;;;;;;;;;;;;;0.76436657;0.5172277;-0.33356732;;;;;1899.1
2044.0;1960.8;;;;;;;;;;;;;;;;;-33.791622;75.300606;-68.48735;;1899.1
2044.0;1960.8;;;;;;;;;;;;;;0.66408277;0.6099429;-0.3965575;;;;;1899.1
2044.0;1961.9;262143;262143;14848;;;;;;;;;;;;;;;;;;
2044.0;1966.5;;;;;;;;;;-26.2154;10.380108;5.3559985;;;;;;;;;
2044.0;1966.5;;;;;;;0.46540728;-0.12152471;-0.8390759;;;;;;;;;;;;
2044.0;1966.5;;;;;;;;;;-25.566881;9.842219;5.897702;;;;;;;;;
2044.0;1966.5;;;;;;;0.47431868;-0.12024293;-0.8723411;;;;;;;;;;;;
2044.0;1967.8;;;;;;;;;;;;;-3821;;;;;;;;
2044.0;1967.8;;;;;;;;;;;;;-4301;;;;;;;;
2044.0;1967.8;;;;;;;;;;;;;-4890;;;;;;;;
2044.0;1967.8;;;;;;;;;;;;;-5514;;;;;;;;
2044.0;1967.8;;;;;;;;;;;;;-6093;;;;;;;;
2045.0;1968.4;;;;-0.42232138;0.5063477;-0.75489056;;;;;;;;;;;;;;;
2045.0;1968.4;;;;-0.4300614;0.5069466;-0.75504696;;;;;;;;;;;;;;;
2045.0;1968.4;;;;-0.4408837;0.5084496;-0.75597394;;;;;;;;;;;;;;;
2045.0;1968.4;;;;-0.4661942;0.5033341;-0.76295865;;;;;;;;;;;;;;;
2045.0;1968.4;;;;-0.489914;0.50001913;-0.76929486;;;;;;;;;;;;;;;
2045.0;1976.0;;;;;;;;;;-24.731438;9.304331;6.431776;;;;;;;;;
2045.0;1976.0;;;;;;;0.48963895;-0.11810663;-0.9059725;;;;;;;;;;;;
2045.0;1976.0;;;;;;;;;;-23.586992;8.686331;6.9734793;;;;;;;;;
2045.0;1976.0;;;;;;;0.50740075;-0.11774041;-0.94644004;;;;;;;;;;;;
2045.0;1978.4;;;;-0.49769598;0.5043526;-0.7760049;;;;;;;;;;;;;;;
2045.0;1978.4;;;;-0.5077897;0.5071259;-0.7923013;;;;;;;;;;;;;;;
2045.0;1978.4;;;;-0.5219956;0.5075608;-0.810917;;;;;;;;;;;;;;;
2045.0;1978.4;;;;-0.53184897;0.5085984;-0.8276521;;;;;;;;;;;;;;;
2045.0;1978.4;;;;-0.53802496;0.50986487;-0.84326947;;;;;;;;;;;;;;;
2045.0;1982.0;262143;262143;14841;;;;;;;;;;;;;;;;;;
2045.0;1985.6;;;;;;;;;;-22.473066;8.125553;7.4541464;;;;;;;;;
2045.0;1985.6;;;;;;;0.51997435;-0.11993774;-0.9887997;;;;;;;;;;;;
2045.0;1985.6;;;;;;;;;;-21.267586;7.7860346;7.7478867;;;;;;;;;
2045.0;1985.6;;;;;;;0.5389569;-0.13049714;-1.0356761;;;;;;;;;;;;
2097.0;1988.4;;;;-0.54396826;0.5107079;-0.8562356;;;;;;;;;;;;;;;
2097.0;1988.4;;;;-0.55037695;0.5113831;-0.8651315;;;;;;;;;;;;;;;
2097.0;1988.4;;;;-0.55665594;0.5129662;-0.870762;;;;;;;;;;;;;;;
2097.0;1988.4;;;;-0.5633202;0.51461035;-0.87675107;;;;;;;;;;;;;;;
2097.0;1988.4;;;;-0.56862646;0.5177308;-0.88303006;;;;;;;;;;;;;;;
2097.0;1994.9;;;;;;;;;;-20.004883;8.033998;7.904294;;;;;;;;;
2097.0;1994.9;;;;;;;0.5533616;-0.14526811;-1.0695517;;;;;;;;;;;;
2097.0;1994.9;;;;;;;;;;-18.814661;7.328257;8.175146;;;;;;;;;
2097.0;1994.9;;;;;;;0.5442061;-0.16657002;-1.1020844;;;;;;;;;;;;
2097.0;1998.3;;;;-0.5719529;0.5234795;-0.8899156;;;;;;;;;;;;;;;
2097.0;1998.3;;;;-0.5741845;0.5313645;-0.8966981;;;;;;;;;;;;;;;
2097.0;1998.3;;;;-0.57529074;0.5409089;-0.9014398;;;;;;;;;;;;;;;
2097.0;1998.3;;;;-0.57720953;0.55198675;-0.9061128;;;;;;;;;;;;;;;
2097.0;1998.3;;;;-0.58069617;0.5612183;-0.9081956;;;;;;;;;;;;;;;
2097.0;2002.0;262143;262143;14845;;;;;;;;;;;;;;;;;;
2097.0;2004.5;;;;;;;;;;-18.12418;4.6807766;8.938108;;;;;;;;;
2097.0;2004.5;;;;;;;0.52394176;-0.20172735;-1.1363872;;;;;;;;;;;;
2097.0;2004.5;;;;;;;;;;-17.80755;1.6403699;9.952848;;;;;;;;;
2097.0;2004.5;;;;;;;0.5186316;-0.23981445;-1.1645863;;;;;;;;;;;;
2097.0;2007.9;;;;;;;;;;;;;-6602;;;;;;;;
2097.0;2007.9;;;;;;;;;;;;;-6970;;;;;;;;
2097.0;2007.9;;;;;;;;;;;;;-7080;;;;;;;;
2097.0;2007.9;;;;;;;;;;;;;-6868;;;;;;;;
2097.0;2007.9;;;;;;;;;;;;;-6436;;;;;;;;
2100.0;2008.4;;;;-0.5844498;0.5702515;-0.9092256;;;;;;;;;;;;;;;
2100.0;2008.4;;;;-0.5896874;0.5779839;-0.9113046;;;;;;;;;;;;;;;
2100.0;2008.4;;;;-0.5972977;0.5854264;-0.91774;;;;;;;;;;;;;;;
2100.0;2008.4;;;;-0.60633856;0.5933686;-0.92787945;;;;;;;;;;;;;;;
2100.0;2008.4;;;;-0.61824805;0.6016274;-0.941002;;;;;;;;;;;;;;;
2100.0;2014.1;;;;;;;;;;-17.723623;-0.79729605;10.872219;;;;;;;;;
2100.0;2014.1;;;;;;;0.54194766;-0.27356791;-1.1828364;;;;;;;;;;;;
2100.0;2014.1;;;;;;;;;;-17.51381;-2.1477401;11.391033;;;;;;;;;
2100.0;2014.1;;;;;;;0.5749687;-0.30060732;-1.1880856;;;;;;;;;;;;
2100.0;2018.5;;;;-0.63141257;0.6095925;-0.95632565;;;;;;;;;;;;;;;
2100.0;2018.5;;;;-0.6444512;0.61762625;-0.97509015;;;;;;;;;;;;;;;
2100.0;2018.5;;;;-0.6521912;0.6269265;-0.9897882;;;;;;;;;;;;;;;
2100.0;2018.5;;;;-0.6581765;0.6365891;-1.0021554;;;;;;;;;;;;;;;
2100.0;2018.5;;;;-0.664856;0.6456643;-1.024769;;;;;;;;;;;;;;;
2100.0;2022.2;262143;262143;14832;;;;;;;;;;;;;;;;;;
2100.0;2023.7;;;;;;;;;;-16.930143;-2.311777;11.524552;;;;;;;;;
2100.0;2023.7;;;;;;;0.6032899;-0.31666005;-1.1879025;;;;;;;;;;;;
2100.0;2023.7;;;;;;;;;;-15.942106;-1.5449996;11.612293;;;;;;;;;
2100.0;2023.7;;;;;;;0.61958677;-0.33069858;-1.177343;;;;;;;;;;;;
2103.0;2027.7;;;;;;;;;;;;;;;;;-37.60262;82.075714;-73.81283;;1908.7
2103.0;2027.7;;;;;;;;;;;;;;0.52650535;0.60499895;-0.39252907;;;;;1908.7
2103.0;2027.7;;;;;;;;;;;;;;;;;-38.354137;79.531235;-80.980865;;1908.7
2103.0;2027.7;;;;;;;;;;;;;;0.58919036;0.60371715;-0.36475724;;;;;1908.7
2103.0;2027.7;;;;;;;;;;;;;;;;;-36.503952;80.374306;-88.30531;;1918.4
2103.0;2027.7;;;;;;;;;;;;;;0.6145207;0.61580247;-0.33118686;;;;;1918.4
2103.0;2027.7;;;;;;;;;;;;;;;;;-34.764397;82.84249;-94.95453;;1918.4
2103.0;2027.7;;;;;;;;;;;;;;0.60335094;0.61128575;-0.31635487;;;;;1918.4
2103.0;2027.7;;;;;;;;;;;;;;;;;-35.050507;85.776085;-99.852745;;1927.8
2103.0;2027.7;;;;;;;;;;;;;;0.6304514;0.5953551;-0.26831874;;;;;1927.8
2103.0;2027.7;;;;;;;;;;;;;;;;;-36.54973;86.80228;-103.17927;;1927.8
2103.0;2027.7;;;;;;;;;;;;;;0.6543779;0.5701468;-0.24646749;;;;;1927.8
2103.0;2028.5;;;;;;;;;;;;;;;;;-38.438065;84.624016;-105.67797;;1937.5
2103.0;2028.5;;;;;;;;;;;;;;0.6994842;0.553911;-0.27210304;;;;;1937.5
2103.0;2028.5;;;;;;;;;;;;;;;;;-41.46321;82.53731;-108.34834;;1937.5
2103.0;2028.5;;;;;;;;;;;;;;0.7589343;0.61671805;-0.30097353;;;;;1937.5
2103.0;2028.5;;;;;;;;;;;;;;;;;-45.789207;77.52465;-109.82848;;1947.2
2103.0;2028.5;;;;;;;;;;;;;;0.8130131;0.6267281;-0.36591694;;;;;1947.2
2103.0;2028.5;;;;;;;;;;;;;;;;;-49.69176;70.013275;-110.50371;;1947.2
2103.0;2028.5;;;;;;;;;;;;;;0.92446667;0.67177343;-0.4504532;;;;;1947.2
2103.0;2028.5;;;;;;;;;;;;;;;;;-54.35728;62.719353;-109.85519;;1956.8
2103.0;2028.5;;;;;;;;;;;;;;1.0545976;0.6444899;-0.5258339;;;;;1956.8
2103.0;2028.5;;;;;;;;;;;;;;;;;-57.878353;54.326763;-108.34834;;1956.8
2103.0;2028.5;;;;;;;;;;;;;;1.1551256;0.58424634;-0.64644307;;;;;1956.8
2105.0;2028.3;;;;-0.6773911;0.6568108;-1.0495683;;;;;;;;;;;;;;;
2105.0;2028.3;;;;-0.6893082;0.6710511;-1.0709955;;;;;;;;;;;;;;;
2105.0;2028.3;;;;-0.69765097;0.68689734;-1.093319;;;;;;;;;;;;;;;
2105.0;2028.3;;;;-0.70397955;0.70117193;-1.1194459;;;;;;;;;;;;;;;
2105.0;2028.3;;;;-0.71041495;0.7147637;-1.1394426;;;;;;;;;;;;;;;
2105.0;2033.1;;;;;;;;;;-14.702292;0.045777764;21125;;;;;;;;;
2105.0;2033.1;;;;;;;0.61952573;-0.3416242;-1.1624501;;;;;;;;;;;;
2105.0;2033.1;;;;;;;;;;-13.061922;1.678518;11.757256;;;;;;;;;
2105.0;2033.1;;;;;;;0.61738944;-0.3437605;-1.1484725;;;;;;;;;;;;
2105.0;2038.3;;;;-0.71524817;0.72708136;-1.1627313;;;;;;;;;;;;;;;
2105.0;2038.3;;;;-0.7197266;0.7366982;-1.1841317;;;;;;;;;;;;;;;
2105.0;2038.3;;;;-0.7245293;0.7453919;-1.2029725;;;;;;;;;;;;;;;
2105.0;2038.3;;;;-0.729374;0.7541963;-1.2228853;;;;;;;;;;;;;;;
2105.0;2038.3;;;;-0.73377615;0.7629701;-1.2446595;;;;;;;;;;;;;;;
2105.0;2042.1;262143;262143;14825;;;;;;;;;;;;;;;;;;
2105.0;2042.6;;;;;;;;;;-10.933256;3.212073;12.10059;;;;;;;;;
2105.0;2042.6;;;;;;;0.6144597;-0.34040347;-1.1337626;;;;;;;;;;;;
2105.0;2042.6;;;;;;;;;;-8.545182;4.1695914;12.359997;;;;;;;;;
2105.0;2042.6;;;;;;;0.6027406;-0.3302713;-1.1264381;;;;;;;;;;;;
2105.0;2048.0;;;;;;;;;;;;;-5960;;;;;;;;
2105.0;2048.0;;;;;;;;;;;;;-5338;;;;;;;;
2105.0;2048.0;;;;;;;;;;;;;-4392;;;;;;;;
2105.0;2048.0;;;;;;;;;;;;;-3144;;;;;;;;
2105.0;2048.0;;;;;;;;;;;;;-1832;;;;;;;;
2157.0;2048.4;;;;-0.7382546;0.7725984;-1.267727;;;;;;;;;;;;;;;
2157.0;2048.4;;;;-0.7430077;0.783558;-1.2907335;;;;;;;;;;;;;;;
2157.0;2048.4;;;;-0.74706274;0.79579556;-1.3122903;;;;;;;;;;;;;;;
2157.0;2048.4;;;;-0.75068295;0.80819714;-1.333893;;;;;;;;;;;;;;;
2157.0;2048.4;;;;-0.75595105;0.82039654;-1.3548051;;;;;;;;;;;;;;;
2157.0;2052.1;;;;;;;;;;-5.897702;4.5129247;12.630848;;;;;;;;;
2157.0;2052.1;;;;;;;0.5923032;-0.32526627;-1.1299783;;;;;;;;;;;;
2157.0;2052.1;;;;;;;;;;-3.093814;4.276406;12.508774;;;;;;;;;
2157.0;2052.1;;;;;;;0.58735925;-0.3261208;-1.1338236;;;;;;;;;;;;
2157.0;2058.2;;;;-0.7616197;0.83155453;-1.3734857;;;;;;;;;;;;;;;
2157.0;2058.2;;;;-0.7687799;0.84243786;-1.390194;;;;;;;;;;;;;;;
2157.0;2058.2;;;;-0.77608883;0.8532983;-1.4043771;;;;;;;;;;;;;;;
2157.0;2058.2;;;;-0.782879;0.8633081;-1.4150888;;;;;;;;;;;;;;;
2157.0;2058.2;;;;-0.7889863;0.8733903;-1.423935;;;;;;;;;;;;;;;
2157.0;2061.6;;;;;;;;;;-0.0038148137;3.9292583;12.218848;;;;;;;;;
2157.0;2061.6;;;;;;;0.5859554;-0.32587665;-1.1437727;;;;;;;;;;;;
2157.0;2061.6;;;;;;;;;;3.238777;3.4066288;12.012849;;;;;;;;;
2157.0;2061.6;;;;;;;0.5872372;-0.319834;-1.1562243;;;;;;;;;;;;
2157.0;2062.1;262143;262143;14824;;;;;;;;;;;;;;;;;;
2160.0;2068.3;;;;-0.7954675;0.8830148;-1.4294893;;;;;;;;;;;;;;;
2160.0;2068.3;;;;-0.8018838;0.8914224;-1.4323503;;;;;;;;;;;;;;;
2160.0;2068.3;;;;-0.8076097;0.89943707;-1.4322625;;;;;;;;;;;;;;;
2160.0;2068.3;;;;-0.8143617;0.9060708;-1.4312516;;;;;;;;;;;;;;;
2160.0;2068.3;;;;-0.82018673;0.91126263;-1.4272386;;;;;;;;;;;;;;;
2160.0;2071.2;;;;;;;;;;6.45085;2.4033327;11.959441;;;;;;;;;
2160.0;2071.2;;;;;;;0.5778985;-0.31531724;-1.1770378;;;;;;;;;;;;
2160.0;2071.2;;;;;;;;;;9.727776;1.1024811;12.192145;;;;;;;;;
2160.0;2071.2;;;;;;;0.57582325;-0.31391338;-1.197058;;;;;;;;;;;;
2160.0;2078.4;;;;-0.8256608;0.91523755;-1.4205667;;;;;;;;;;;;;;;
2160.0;2078.4;;;;-0.8303567;0.9166299;-1.4119378;;;;;;;;;;;;;;;
2160.0;2078.4;;;;-0.83454525;0.9162942;-1.4011194;;;;;;;;;;;;;;;
2160.0;2078.4;;;;-0.83970654;0.9161645;-1.3899385;;;;;;;;;;;;;;;
2160.0;2078.4;;;;-0.84567654;0.91721356;-1.3789445;;;;;;;;;;;;;;;
2161.0;2080.3;;;;;;;;;;;;;;;;;-60.892056;48.203987;-105.403305;;1966.4
2161.0;2080.3;;;;;;;;;;;;;;1.2396008;0.5436567;-0.75679797;;;;;1966.4
2161.0;2080.3;;;;;;;;;;;;;;;;;-63.65017;42.157505;-100.34104;;1966.4
2161.0;2080.3;;;;;;;;;;;;;;1.3318278;0.43946654;-0.83797723;;;;;1966.4
2161.0;2080.3;;;;;;;;;;;;;;;;;-66.08784;36.275063;-95.34746;;1976.0
2161.0;2080.3;;;;;;;;;;;;;;1.3953673;0.3471175;-0.9378338;;;;;1976.0
2161.0;2080.3;;;;;;;;;;;;;;;;;-70.98987;35.06958;-90.6476;;1976.0
2161.0;2080.3;;;;;;;;;;;;;;1.4275337;0.22663045;-1.0461135;;;;;1976.0
2161.0;2080.3;;;;;;;;;;;;;;;;;-78.39442;42.016357;-87.20283;;1985.6
2161.0;2080.3;;;;;;;;;;;;;;1.4118472;0.15363018;-1.0716879;;;;;1985.6
2161.0;2080.3;;;;;;;;;;;;;;;;;-83.88776;49.55443;-84.34553;;1985.6
2161.0;2080.3;;;;;;;;;;;;;;1.3392743;0.018921476;-1.048738;;;;;1985.6
2161.0;2080.8;;;;;;;;;;12.958922;-0.22507401;12.401958;;;;;;;;;
2161.0;2080.8;;;;;;;0.573748;-0.30988494;-1.2106082;;;;;;;;;;;;
2161.0;2080.8;;;;;;;;;;16.144293;-0.92699975;12.668996;;;;;;;;;
2161.0;2080.8;;;;;;;0.57417524;-0.3068331;-1.2145146;;;;;;;;;;;;
2163.0;2081.1;;;;;;;;;;;;;;;;;-85.57772;50.66454;-82.68609;;1995.3
2163.0;2081.1;;;;;;;;;;;;;;1.2796412;0.018127995;-1.0666219;;;;;1995.3
2163.0;2081.1;;;;;;;;;;;;;;;;;-85.703606;46.651356;-80.45824;;1995.3
2163.0;2081.1;;;;;;;;;;;;;;1.2655416;0.08636738;-1.101413;;;;;1995.3
2163.0;2081.1;;;;;;;;;;;;;;;;;-85.96683;43.591877;-77.81076;;2005.0
2163.0;2081.1;;;;;;;;;;;;;;1.3118687;0.13544114;-1.1038545;;;;;2005.0
2163.0;2081.1;;;;;;;;;;;;;;;;;-85.360275;41.402172;-74.92676;;2005.0
2163.0;2081.1;;;;;;;;;;;;;;1.3594775;0.115421005;-1.1363872;;;;;2005.0
2163.0;2081.1;;;;;;;;;;;;;;;;;-82.86538;39.5558;-72.95831;;2014.6
2163.0;2081.1;;;;;;;;;;;;;;1.3902402;0.20654927;-1.2121952;;;;;2014.6
2163.0;2081.1;;;;;;;;;;;;;;;;;-80.76342;43.012024;-70.28794;;2014.6
2163.0;2081.1;;;;;;;;;;;;;;1.4629964;0.31006807;-1.2016358;;;;;2014.6
2163.0;2082.2;262143;262143;14830;;;;;;;;;;;;;;;;;;
2163.0;2088.0;;;;;;;;;;;;;-699;;;;;;;;
2163.0;2088.0;;;;;;;;;;;;;137;;;;;;;;
2163.0;2088.0;;;;;;;;;;;;;616;;;;;;;;
2163.0;2088.0;;;;;;;;;;;;;840;;;;;;;;
2163.0;2088.0;;;;;;;;;;;;;1143;;;;;;;;
2163.0;2088.4;;;;-0.85131466;0.91967404;-1.3688813;;;;;;;;;;;;;;;
2163.0;2088.4;;;;-0.857319;0.9228593;-1.3586999;;;;;;;;;;;;;;;
2163.0;2088.4;;;;-0.8624841;0.9259378;-1.3462335;;;;;;;;;;;;;;;
2163.0;2088.4;;;;-0.865677;0.9281579;-1.3333665;;;;;;;;;;;;;;;
2163.0;2088.4;;;;-0.8664018;0.9282762;-1.3185998;;;;;;;;;;;;;;;
2166.0;2090.3;;;;;;;;;;19.413588;-1.003296;12.722404;;;;;;;;;
2166.0;2090.3;;;;;;;0.593585;-0.3108005;-1.2033448;;;;;;;;;;;;
2166.0;2090.3;;;;;;;;;;22.568438;-0.54551834;12.436293;;;;;;;;;
2166.0;2090.3;;;;;;;0.59779656;-0.31232643;-1.1946166;;;;;;;;;;;;
2166.0;2095.2;;;;;;;;;;;;;;;;;-78.68434;47.227394;-64.825134;;2024.3
2166.0;2095.2;;;;;;;;;;;;;;1.4655598;0.16199225;-1.1684316;;;;;2024.3
2166.0;2095.2;;;;;;;;;;;;;;;;;-76.31535;53.617207;-63.711205;;2024.3
2166.0;2095.2;;;;;;;;;;;;;;1.4851527;0.24579607;-1.0661947;;;;;2024.3
2166.0;2095.2;;;;;;;;;;;;;;;;;-76.914276;57.72576;-61.941128;;2033.8
2166.0;2095.2;;;;;;;;;;;;;;1.4297922;0.06445509;-0.97647023;;;;;2033.8
2166.0;2095.2;;;;;;;;;;;;;;;;;-74.156166;58.48491;-63.203835;;2033.8
2166.0;2095.2;;;;;;;;;;;;;;1.4151433;0.095583975;-0.91665393;;;;;2033.8
2166.0;2095.2;;;;;;;;;;;;;;;;;-67.86935;54.502243;-64.72976;;2043.5
2166.0;2095.2;;;;;;;;;;;;;;1.3829157;0.049501024;-0.88235116;;;;;2043.5
2166.0;2095.2;;;;;;;;;;;;;;;;;-57.927948;49.66506;-66.75924;;2043.5
2166.0;2095.2;;;;;;;;;;;;;;1.3913999;0.06042665;-0.87838376;;;;;2043.5
2166.0;2098.3;;;;-0.8653146;0.9276811;-1.2962304;;;;;;;;;;;;;;;
2166.0;2098.3;;;;-0.8641168;0.92572415;-1.2674028;;;;;;;;;;;;;;;
2166.0;2098.3;;;;-0.86190045;0.9207498;-1.2397882;;;;;;;;;;;;;;;
2166.0;2098.3;;;;-0.8628503;0.91253674;-1.2158815;;;;;;;;;;;;;;;
2166.0;2098.3;;;;-0.86631024;0.90512097;-1.1937028;;;;;;;;;;;;;;;
2166.0;2099.7;;;;;;;;;;25.639362;-0.08011109;12.058626;;;;;;;;;
2166.0;2099.7;;;;;;;0.5735649;-0.31611073;-1.1828364;;;;;;;;;;;;
2166.0;2099.7;;;;;;;;;;28.691214;0.44251838;12.253182;;;;;;;;;
2166.0;2099.7;;;;;;;0.5454878;-0.319834;-1.1696523;;;;;;;;;;;;
2220.0;2102.2;262143;262143;14832;;;;;;;;;;;;;;;;;;
2220.0;2108.4;;;;-0.8638421;0.89776623;-1.1724931;;;;;;;;;;;;;;;
2220.0;2108.4;;;;-0.8554727;0.88526165;-1.1542779;;;;;;;;;;;;;;;
2220.0;2108.4;;;;-0.8430253;0.86856854;-1.1384088;;;;;;;;;;;;;;;
2220.0;2108.4;;;;-0.82810223;0.8489419;-1.1254121;;;;;;;;;;;;;;;
2220.0;2108.4;;;;-0.81427777;0.8276979;-1.1114312;;;;;;;;;;;;;;;
2220.0;2109.3;;;;;;;;;;31.20899;0.6065554;12.798699;;;;;;;;;
2220.0;2109.3;;;;;;;0.5219886;-0.32343516;-1.1488388;;;;;;;;;;;;
2220.0;2109.3;;;;;;;;;;33.48262;0.5760369;13.435774;;;;;;;;;
2220.0;2109.3;;;;;;;0.49952698;-0.32062745;-1.1271707;;;;;;;;;;;;
2220.0;2118.3;;;;-0.8038827;0.80550396;-1.0947572;;;;;;;;;;;;;;;
2220.0;2118.3;;;;-0.79836667;0.7835618;-1.078991;;;;;;;;;;;;;;;
2220.0;2118.3;;;;-0.79838574;0.763775;-1.0638238;;;;;;;;;;;;;;;
2220.0;2118.3;;;;-0.8025209;0.74713904;-1.046116;;;;;;;;;;;;;;;
2220.0;2118.3;;;;-0.809662;0.73216635;-1.0285608;;;;;;;;;;;;;;;
2220.0;2118.8;;;;;;;;;;35.550247;-0.16403699;14.01944;;;;;;;;;
2220.0;2118.8;;;;;;;0.48823512;-0.30970183;-1.1039156;;;;;;;;;;;;
2220.0;2118.8;;;;;;;;;;37.556843;-1.0872219;14.381847;;;;;;;;;
2220.0;2118.8;;;;;;;0.47859126;-0.30097353;-1.0741295;;;;;;;;;;;;
2220.0;2122.3;262143;262143;14828;;;;;;;;;;;;;;;;;;
2220.0;2128.1;;;;;;;;;;;;;1507;;;;;;;;
2220.0;2128.1;;;;;;;;;;;;;1483;;;;;;;;
2220.0;2128.1;;;;;;;;;;;;;882;;;;;;;;
2220.0;2128.1;;;;;;;;;;;;;41;;;;;;;;
2220.0;2128.1;;;;;;;;;;;;;-495;;;;;;;;
2222.0;2128.4;;;;;;;;;;39.62447;-2.090518;14.53444;;;;;;;;;
2222.0;2128.4;;;;;;;0.48371837;-0.29554126;-1.0421461;;;;;;;;;;;;
2222.0;2128.4;;;;;;;;;;41.703545;-2.990814;14.580218;;;;;;;;;
2222.0;2128.4;;;;;;;0.4848781;-0.2906583;-1.0109562;;;;;;;;;;;;
2222.0;2128.4;;;;-0.81738293;0.718216;-1.0105363;;;;;;;;;;;;;;;
2222.0;2128.4;;;;-0.82530606;0.7049714;-0.99255;;;;;;;;;;;;;;;
2222.0;2128.4;;;;-0.8342935;0.6918526;-0.9765855;;;;;;;;;;;;;;;
2222.0;2128.4;;;;-0.84232724;0.67844015;-0.9651071;;;;;;;;;;;;;;;
2222.0;2128.4;;;;-0.8496629;0.66514975;-0.9553453;;;;;;;;;;;;;;;
2222.0;2138.0;;;;;;;;;;43.79025;-4.5129247;14.481033;;;;;;;;;
2222.0;2138.0;;;;;;;0.4842677;-0.28565326;-0.98208565;;;;;;;;;;;;
2222.0;2138.0;;;;;;;;;;45.75869;-6.6072574;14.160588;;;;;;;;;
2222.0;2138.0;;;;;;;0.48036134;-0.2811365;-0.9587695;;;;;;;;;;;;
2222.0;2138.5;;;;-0.8534471;0.6539956;-0.9373666;;;;;;;;;;;;;;;
2222.0;2138.5;;;;-0.8568078;0.6408425;-0.927189;;;;;;;;;;;;;;;
2222.0;2138.5;;;;-0.8578416;0.6269646;-0.91142285;;;;;;;;;;;;;;;
2222.0;2138.5;;;;-0.856331;0.6133805;-0.8959199;;;;;;;;;;;;;;;
2222.0;2138.5;;;;-0.8496057;0.59946066;-0.8804513;;;;;;;;;;;;;;;
2222.0;2142.5;262143;262143;14836;;;;;;;;;;;;;;;;;;
2222.0;2147.6;;;;;;;;;;47.475357;-9.102145;13.912625;;;;;;;;;
2222.0;2147.6;;;;;;;0.47877437;-0.28070924;-0.9427168;;;;;;;;;;;;
2222.0;2147.6;;;;;;;;;;49.06995;-11.45207;13.500626;;;;;;;;;
2222.0;2147.6;;;;;;;0.47621083;-0.27710807;-0.93295085;;;;;;;;;;;;
2223.0;2148.0;;;;;;;;;;;;;;;;;-48.242134;50.469982;-68.53694;;2053.2
2223.0;2148.0;;;;;;;;;;;;;;1.4012879;0.095706046;-0.8037965;;;;;2053.2
2223.0;2148.0;;;;;;;;;;;;;;;;;-37.583546;50.908688;-69.856865;;2053.2
2223.0;2148.0;;;;;;;;;;;;;;1.3743095;0.16528825;-0.7112644;;;;;2053.2
2223.0;2148.0;;;;;;;;;;;;;;;;;-26.73803;46.57506;-71.39805;;2062.9
2223.0;2148.0;;;;;;;;;;;;;;1.3349407;0.26075014;-0.62697226;;;;;2062.9
2223.0;2148.0;;;;;;;;;;;;;;;;;-17.40318;38.579212;-71.48961;;2062.9
2223.0;2148.0;;;;;;;;;;;;;;1.3259681;0.33722952;-0.57405317;;;;;2062.9
2223.0;2148.0;;;;;;;;;;;;;;;;;-10.734886;33.612324;-69.66231;;2072.6
2223.0;2148.0;;;;;;;;;;;;;;1.3086337;0.37653738;-0.50917083;;;;;2072.6
2223.0;2148.0;;;;;;;;;;;;;;;;;-8.533738;30.251472;-65.0235;;2072.6
2223.0;2148.0;;;;;;;;;;;;;;1.2867824;0.4427015;-0.41645557;;;;;2072.6
2223.0;2148.5;;;;-0.83914196;0.58785254;-0.8656465;;;;;;;;;;;;;;;
2223.0;2148.5;;;;-0.8250886;0.5770684;-0.8589059;;;;;;;;;;;;;;;
2223.0;2148.5;;;;-0.80947125;0.5678521;-0.85544217;;;;;;;;;;;;;;;
2223.0;2148.5;;;;-0.79823697;0.56086737;-0.85097134;;;;;;;;;;;;;;;
2223.0;2148.5;;;;-0.79481137;0.5563813;-0.8449441;;;;;;;;;;;;;;;
2224.0;2155.8;;;;;;;;;;;;;;;;;-11.230811;25.963621;-56.951355;;2082.2
2224.0;2155.8;;;;;;;;;;;;;;1.2554704;0.4687643;-0.35029146;;;;;2082.2
2224.0;2155.8;;;;;;;;;;;;;;;;;-14.160588;22.442549;-48.177284;;2082.2
2224.0;2155.8;;;;;;;;;;;;;;1.1861935;0.45777765;-0.28699607;;;;;2082.2
2224.0;2155.8;;;;;;;;;;;;;;;;;-18.166143;19.95529;-39.059875;;2091.8
2224.0;2155.8;;;;;;;;;;;;;;1.099643;0.42994475;-0.23352763;;;;;2091.8
2224.0;2155.8;;;;;;;;;;;;;;;;;-20.626698;16.762293;-31.132694;;2091.8
2224.0;2155.8;;;;;;;;;;;;;;1.0129703;0.40852076;-0.18561357;;;;;2091.8
2224.0;2155.8;;;;;;;;;;;;;;;;;-22.591326;12.405774;-23.499252;;2101.4
2224.0;2155.8;;;;;;;;;;;;;;0.93099767;0.36542863;-0.15912351;;;;;2101.4
2224.0;2155.8;;;;;;;;;;;;;;;;;-22.591326;7.969146;-16.869106;;2101.4
2224.0;2155.8;;;;;;;;;;;;;;0.8547014;0.32520524;-0.14258248;;;;;2101.4
2224.0;2156.9;;;;;;;;;;50.447094;-13.676107;12.80633;;;;;;;;;
2224.0;2156.9;;;;;;;0.47877437;-0.27771842;-0.91708124;;;;;;;;;;;;
2224.0;2156.9;;;;;;;;;;51.572464;-15.167699;11.715293;;;;;;;;;
2224.0;2156.9;;;;;;;0.47859126;-0.2832728;-0.91109955;;;;;;;;;;;;
2224.0;2158.4;;;;-0.796898;0.5522843;-0.83763134;;;;;;;;;;;;;;;
2224.0;2158.4;;;;-0.8015863;0.5468903;-0.82994854;;;;;;;;;;;;;;;
2224.0;2158.4;;;;-0.80690014;0.5397988;-0.8236848;;;;;;;;;;;;;;;
2224.0;2158.4;;;;-0.8115884;0.5316735;-0.8192178;;;;;;;;;;;;;;;
2224.0;2158.4;;;;-0.8128396;0.52252585;-0.81734097;;;;;;;;;;;;;;;
2224.0;2162.5;262143;262143;14832;;;;;;;;;;;;;;;;;;
2280.0;2166.5;;;;;;;;;;52.41554;-15.86581;10.578479;;;;;;;;;
2280.0;2166.5;;;;;;;0.4758446;-0.29175696;-0.91830194;;;;;;;;;;;;
2280.0;2166.5;;;;;;;;;;53.044987;-15.915403;9.63622;;;;;;;;;
2280.0;2166.5;;;;;;;0.47309792;-0.29486984;-0.92031616;;;;;;;;;;;;
2280.0;2168.3;;;;;;;;;;;;;-526;;;;;;;;
2280.0;2168.3;;;;;;;;;;;;;-372;;;;;;;;
2280.0;2168.3;;;;;;;;;;;;;-283;;;;;;;;
2280.0;2168.3;;;;;;;;;;;;;-95;;;;;;;;
2280.0;2168.3;;;;;;;;;;;;;269;;;;;;;;
2280.0;2168.4;;;;-0.8106576;0.514473;-0.81917965;;;;;;;;;;;;;;;
2280.0;2168.4;;;;-0.8048898;0.50724417;-0.8248445;;;;;;;;;;;;;;;
2280.0;2168.4;;;;-0.7948953;0.5021706;-0.8307611;;;;;;;;;;;;;;;
2280.0;2168.4;;;;-0.78440106;0.49828345;-0.83589184;;;;;;;;;;;;;;;
2280.0;2168.4;;;;-0.7754518;0.4954949;-0.8379327;;;;;;;;;;;;;;;
2280.0;2175.8;;;;;;;;;;53.544727;-15.35081;8.468886;;;;;;;;;
2280.0;2175.8;;;;;;;0.46650594;-0.29749444;-0.9176916;;;;;;;;;;;;
2280.0;2175.8;;;;;;;;;;53.712578;-14.301737;7.5571456;;;;;;;;;
2280.0;2175.8;;;;;;;0.45283365;-0.29804376;-0.906888;;;;;;;;;;;;
2280.0;2178.3;;;;-0.7696878;0.4935494;-0.83944714;;;;;;;;;;;;;;;
2280.0;2178.3;;;;-0.7681161;0.49133688;-0.839924;;;;;;;;;;;;;;;
2280.0;2178.3;;;;-0.7683755;0.48865896;-0.8379518;;;;;;;;;;;;;;;
2280.0;2178.3;;;;-0.7713815;0.48532492;-0.83247006;;;;;;;;;;;;;;;
2280.0;2178.3;;;;-0.77653897;0.48177725;-0.82468426;;;;;;;;;;;;;;;
2280.0;2182.4;262143;262143;14845;;;;;;;;;;;;;;;;;;
2282.0;2185.5;;;;;;;;;;53.651543;-12.890255;7.221442;;;;;;;;;
2282.0;2185.5;;;;;;;0.44080934;-0.29999694;-0.8917509;;;;;;;;;;;;
2282.0;2185.5;;;;;;;;;;53.58669;-11.139256;6.977294;;;;;;;;;
2282.0;2185.5;;;;;;;0.42890713;-0.3023774;-0.8685568;;;;;;;;;;;;
2282.0;2188.4;;;;-0.78232205;0.4785195;-0.8140222;;;;;;;;;;;;;;;
2282.0;2188.4;;;;-0.78810513;0.47513586;-0.80368817;;;;;;;;;;;;;;;
2282.0;2188.4;;;;-0.79187405;0.47219092;-0.7934114;;;;;;;;;;;;;;;
2282.0;2188.4;;;;-0.7935029;0.46947485;-0.7809068;;;;;;;;;;;;;;;
2282.0;2188.4;;;;-0.7922021;0.46766287;-0.76578915;;;;;;;;;;;;;;;
2282.0;2195.1;;;;;;;;;;53.693504;-8.831293;6.7369614;;;;;;;;;
2282.0;2195.1;;;;;;;0.41785944;-0.2990814;-0.83419293;;;;;;;;;;;;
2282.0;2195.1;;;;;;;;;;53.89569;-7.000183;6.8933682;;;;;;;;;
2282.0;2195.1;;;;;;;0.39728996;-0.29187903;-0.79879147;;;;;;;;;;;;
2282.0;2198.5;;;;-0.78738797;0.46376806;-0.74812704;;;;;;;;;;;;;;;
2282.0;2198.5;;;;-0.779297;0.45877844;-0.7296563;;;;;;;;;;;;;;;
2282.0;2198.5;;;;-0.77097714;0.45343024;-0.710537;;;;;;;;;;;;;;;
2282.0;2198.5;;;;-0.7612573;0.44897467;-0.6931649;;;;;;;;;;;;;;;
2282.0;2198.5;;;;-0.7510835;0.44520193;-0.6787301;;;;;;;;;;;;;;;
2283.0;2200.5;;;;;;;;;;;;;;;;;-20.9624;4.081851;-11.173589;;2111.1
2283.0;2200.5;;;;;;;;;;;;;;0.8059328;0.30408642;-0.11291849;;;;;2111.1
2283.0;2200.5;;;;;;;;;;;;;;;;;-18.53618;0.7057405;-5.5047765;;2111.1
2283.0;2200.5;;;;;;;;;;;;;;0.77858824;0.26520586;-0.09173864;;;;;2111.1
2283.0;2200.5;;;;;;;;;;;;;;;;;-15.682699;-2.0256662;0.095370345;;2120.8
2283.0;2200.5;;;;;;;;;;;;;;0.7624134;0.24433118;-0.078005314;;;;;2120.8
2283.0;2200.5;;;;;;;;;;;;;;;;;-12.993256;-4.058962;6.0579243;;2120.8
2283.0;2200.5;;;;;;;;;;;;;;0.75014496;0.20966215;-0.06366161;;;;;2120.8
2283.0;2200.5;;;;;;;;;;;;;;;;;-10.280923;-6.2181463;11.772515;;2130.4
2283.0;2200.5;;;;;;;;;;;;;;0.74025697;0.1815241;-0.05468917;;;;;2130.4
2283.0;2200.5;;;;;;;;;;;;;;;;;-7.9462566;-8.957183;17.178104;;2130.4
2283.0;2200.5;;;;;;;;;;;;;;0.7368389;0.13312174;-0.061281167;;;;;2130.4
2283.0;2202.6;262143;262143;14844;;;;;;;;;;;;;;;;;;
2283.0;2204.6;;;;;;;;;;53.91858;-5.5772576;7.641072;;;;;;;;;
2283.0;2204.6;;;;;;;0.38227484;-0.28498185;-0.7704092;;;;;;;;;;;;
2283.0;2204.6;;;;;;;;;;53.91858;-4.8142953;8.2819605;;;;;;;;;
2283.0;2204.6;;;;;;;0.37324136;-0.28058717;-0.74489576;;;;;;;;;;;;
2283.0;2208.4;;;;;;;;;;;;;547;;;;;;;;
2283.0;2208.4;;;;;;;;;;;;;622;;;;;;;;
2283.0;2208.4;;;;;;;;;;;;;581;;;;;;;;
2283.0;2208.4;;;;;;;;;;;;;512;;;;;;;;
2283.0;2208.4;;;;;;;;;;;;;448;;;;;;;;
2285.0;2208.5;;;;-0.7406388;0.4418221;-0.6636773;;;;;;;;;;;;;;;
2285.0;2208.5;;;;-0.730629;0.4401856;-0.6483193;;;;;;;;;;;;;;;
2285.0;2208.5;;;;-0.7195855;0.43853384;-0.63709265;;;;;;;;;;;;;;;
2285.0;2208.5;;;;-0.7099686;0.43729788;-0.6278878;;;;;;;;;;;;;;;
2285.0;2208.5;;;;-0.7005959;0.4364205;-0.6172562;;;;;;;;;;;;;;;
2285.0;2214.2;;;;;;;;;;54.02921;-4.0475173;8.716849;;;;;;;;;
2285.0;2214.2;;;;;;;0.37623218;-0.27460554;-0.7210303;;;;;;;;;;;;
2285.0;2214.2;;;;;;;;;;54.273357;-3.0632956;9.060183;;;;;;;;;
2285.0;2214.2;;;;;;;0.39155248;-0.26764733;-0.6987518;;;;;;;;;;;;
2285.0;2218.6;;;;-0.69367605;0.43725592;-0.6058236;;;;;;;;;;;;;;;
2285.0;2218.6;;;;-0.69026953;0.43643957;-0.59393317;;;;;;;;;;;;;;;
2285.0;2218.6;;;;-0.69081885;0.43551642;-0.5831376;;;;;;;;;;;;;;;
2285.0;2218.6;;;;-0.69461447;0.43542868;-0.57184225;;;;;;;;;;;;;;;
2285.0;2218.6;;;;-0.69896704;0.43559653;-0.5602837;;;;;;;;;;;;;;;
2285.0;2222.8;262143;262143;14852;;;;;;;;;;;;;;;;;;
2285.0;2223.8;;;;;;;;;;54.673912;-2.0828884;9.125034;;;;;;;;;
2285.0;2223.8;;;;;;;0.40321055;-0.25946838;-0.68562883;;;;;;;;;;;;
2285.0;2223.8;;;;;;;;;;55.29191;-1.22837;9.044923;;;;;;;;;
2285.0;2223.8;;;;;;;0.41029084;-0.25086215;-0.68202764;;;;;;;;;;;;
2338.0;2228.5;;;;-0.7016602;0.4363938;-0.54907614;;;;;;;;;;;;;;;
2338.0;2228.5;;;;-0.7011643;0.4370461;-0.5371972;;;;;;;;;;;;;;;
2338.0;2228.5;;;;-0.6950913;0.43739706;-0.52756125;;;;;;;;;;;;;;;
2338.0;2228.5;;;;-0.6858292;0.43529898;-0.5216561;;;;;;;;;;;;;;;
2338.0;2228.5;;;;-0.67083746;0.43186194;-0.5165978;;;;;;;;;;;;;;;
2338.0;2233.1;;;;;;;;;;55.46739;-0.61037016;8.819849;;;;;;;;;
2338.0;2233.1;;;;;;;0.41248816;-0.24823755;-0.67970824;;;;;;;;;;;;
2338.0;2233.1;;;;;;;;;;56.016724;0.0;8.50322;;;;;;;;;
2338.0;2233.1;;;;;;;0.41199988;-0.2550737;-0.66798913;;;;;;;;;;;;
2338.0;2238.5;;;;-0.6540871;0.42787558;-0.509945;;;;;;;;;;;;;;;
2338.0;2238.5;;;;-0.63696295;0.42516333;-0.50160986;;;;;;;;;;;;;;;
2338.0;2238.5;;;;-0.63600165;0.42252356;-0.49418646;;;;;;;;;;;;;;;
2338.0;2238.5;;;;-0.64355856;0.41912085;-0.48543555;;;;;;;;;;;;;;;
2338.0;2238.5;;;;-0.65455633;0.41535574;-0.47437292;;;;;;;;;;;;;;;
2338.0;2242.8;;;;;;;;;;56.60039;0.9193701;8.346813;;;;;;;;;
2338.0;2242.8;;;;;;;0.40949735;-0.2593463;-0.6473586;;;;;;;;;;;;
2338.0;2242.8;;;;;;;;;;57.023834;1.4038514;8.545182;;;;;;;;;
2338.0;2242.8;;;;;;;0.39765617;-0.2595294;-0.64772487;;;;;;;;;;;;
2338.0;2242.8;262143;262143;14846;;;;;;;;;;;;;;;;;;
2338.0;2248.6;;;;;;;;;;;;;202;;;;;;;;
2338.0;2248.6;;;;;;;;;;;;;-321;;;;;;;;
2338.0;2248.6;;;;;;;;;;;;;-828;;;;;;;;
2338.0;2248.6;;;;;;;;;;;;;-1139;;;;;;;;
2338.0;2248.6;;;;;;;;;;;;;-1357;;;;;;;;
2340.0;2248.6;;;;-0.65308005;0.4150849;-0.45942312;;;;;;;;;;;;;;;
2340.0;2248.6;;;;-0.65816885;0.41387945;-0.44704825;;;;;;;;;;;;;;;
2340.0;2248.6;;;;-0.6571923;0.4117852;-0.43284994;;;;;;;;;;;;;;;
2340.0;2248.6;;;;-0.6514321;0.40884024;-0.4188767;;;;;;;;;;;;;;;
2340.0;2248.6;;;;-0.63997275;0.40501028;-0.4039231;;;;;;;;;;;;;;;
2340.0;2252.4;;;;;;;;;;57.611317;1.4458144;8.949553;;;;;;;;;
2340.0;2252.4;;;;;;;0.3813593;-0.2565386;-0.64333016;;;;;;;;;;;;
2340.0;2252.4;;;;;;;;;;58.099613;0.24796289;9.193701;;;;;;;;;
2340.0;2252.4;;;;;;;0.37434003;-0.2537309;-0.6376537;;;;;;;;;;;;
2340.0;2258.7;;;;-0.6267281;0.40033728;-0.39040762;;;;;;;;;;;;;;;
2340.0;2258.7;;;;-0.6114426;0.39495093;-0.37593466;;;;;;;;;;;;;;;
2340.0;2258.7;;;;-0.59460074;0.38893896;-0.36244205;;;;;;;;;;;;;;;
2340.0;2258.7;;;;-0.5809174;0.3822785;-0.3516846;;;;;;;;;;;;;;;
2340.0;2258.7;;;;-0.56836325;0.3763886;-0.34118655;;;;;;;;;;;;;;;
2341.0;2260.9;;;;;;;;;;;;;;;;;-5.413221;-11.928923;22.30903;;2140.1
2341.0;2260.9;;;;;;;;;;;;;;0.7323832;0.08709983;-0.06579791;;;;;2140.1
2341.0;2260.9;;;;;;;;;;;;;;;;;-2.1629994;-16.209145;26.593067;;2140.1
2341.0;2260.9;;;;;;;;;;;;;;0.7281106;0.03607288;-0.09418012;;;;;2140.1
2341.0;2260.9;;;;;;;;;;;;;;;;;2.97174;-20.47029;29.202398;;2149.7
2341.0;2260.9;;;;;;;;;;;;;;0.73250526;-0.024414808;-0.15369122;;;;;2149.7
2341.0;2260.9;;;;;;;;;;;;;;;;;10.731071;-21.027254;29.530474;;2149.7
2341.0;2260.9;;;;;;;;;;;;;;0.7448347;-0.08856472;-0.22547075;;;;;2149.7
2341.0;2260.9;;;;;;;;;;;;;;;;;19.379255;-17.406994;28.866695;;2159.3
2341.0;2260.9;;;;;;;;;;;;;;0.72219;-0.12244026;-0.23773919;;;;;2159.3
2341.0;2260.9;;;;;;;;;;;;;;;;;27.718435;-15.560625;28.630177;;2159.3
2341.0;2260.9;;;;;;;;;;;;;;0.6865444;-0.1340373;-0.24433118;;;;;2159.3
2341.0;2261.6;;;;;;;;;;;;;;;;;34.76821;-16.434217;28.66451;;2168.8
2341.0;2261.6;;;;;;;;;;;;;;0.6670126;-0.12335581;-0.23541978;;;;;2168.8
2341.0;2261.6;;;;;;;;;;;;;;;;;39.864803;-17.239141;29.202398;;2168.8
2341.0;2261.6;;;;;;;;;;;;;;0.68745995;-0.0949736;-0.2224189;;;;;2168.8
2341.0;2261.6;;;;;;;;;;;;;;;;;43.858913;-15.293588;30.564287;;2178.4
2341.0;2261.6;;;;;;;;;;;;;;0.6902676;-0.06616413;-0.21539964;;;;;2178.4
2341.0;2261.6;;;;;;;;;;;;;;;;;48.089542;-11.711478;31.983398;;2178.4
2341.0;2261.6;;;;;;;;;;;;;;0.67397076;-0.052552875;-0.19928586;;;;;2178.4
2341.0;2261.6;;;;;;;;;;;;;;;;;52.52617;-9.586627;32.952362;;2188.1
2341.0;2261.6;;;;;;;;;;;;;;0.6517533;-0.054994356;-0.1920835;;;;;2188.1
2341.0;2261.6;;;;;;;;;;;;;;;;;56.855984;-8.79696;33.54366;;2188.1
2341.0;2261.6;;;;;;;;;;;;;;0.6405835;-0.068300426;-0.19647816;;;;;2188.1
2345.0;2261.8;;;;;;;;;;57.94702;-1.6975921;9.090701;;;;;;;;;
2345.0;2261.8;;;;;;;0.35883662;-0.25562304;-0.6420484;;;;;;;;;;;;
2345.0;2261.8;;;;;;;;;;57.718132;-3.1929991;9.613331;;;;;;;;;
2345.0;2261.8;;;;;;;0.34388256;-0.25568408;-0.6477859;;;;;;;;;;;;
2345.0;2262.8;262143;262143;14859;;;;;;;;;;;;;;;;;;
2345.0;2268.7;;;;;;;;;;;;;;;;;60.823387;-7.316813;33.40251;;2197.7
2345.0;2268.7;;;;;;;;;;;;;;0.62068546;-0.09424116;-0.20032349;;;;;2197.7
2345.0;2268.7;;;;;;;;;;;;;;;;;64.98535;-4.8829613;32.79214;;2197.7
2345.0;2268.7;;;;;;;;;;;;;;0.5871151;-0.11780145;-0.19995728;;;;;2197.7
2345.0;2268.7;;;;;;;;;;;;;;;;;69.87212;-2.5749993;32.12073;;2207.4
2345.0;2268.7;;;;;;;;;;;;;;0.5456099;-0.13617359;-0.1944029;;;;;2207.4
2345.0;2268.7;;;;;;;;;;;;;;;;;75.57528;-1.5068514;31.521805;;2207.4
2345.0;2268.7;;;;;;;;;;;;;;0.49226356;-0.13220619;-0.18640706;;;;;2207.4
