patientId;holterMac;flexMac;;;;;;;;;;;;;;;;;;;;
;CA:F3:0B:1E:33:78;D3:4A:5C:52:80:78;;;;;;;;;;;;;;;;;;;;
receivedTimeStamp;timeStamp;red;ir;green;adxl_accX;adxl_accY;adxl_accZ;lsm_accelX;lsm_accelY;lsm_accelZ;lsm_gyroX;lsm_gyroY;lsm_gyroZ;ecg;flex_lsm_accelX;flex_lsm_accelY;flex_lsm_accelZ;flex_lsm_gyroX;flex_lsm_gyroY;flex_lsm_gyroZ;flex_cmd;flexTimeStamp
299.0;214.0;;;;;;;;;;;;;;;;;;;;17;0.1
299.0;214.0;;;;;;;;;;;;;;;;;14.301737;0.77440715;1.3847773;;127.4
299.0;214.0;;;;;;;;;;;;;;0.8116703;0.5910215;-0.20880765;;;;;127.4
299.0;214.0;;;;;;;;;;;;;;;;;-7.763146;-17.69692;-8.335368;;127.4
299.0;214.0;;;;;;;;;;;;;;0.8504898;0.6194647;-0.19898069;;;;;127.4
299.0;214.0;;;;;;;;;;;;;;;;;-65.65676;-84.59731;-61.628315;;137.0
299.0;214.0;;;;;;;;;;;;;;0.85335857;0.6214789;-0.17651907;;;;;137.0
299.0;214.0;;;;;;;;;;;;;;;;;-122.539444;-124.988556;-119.94918;;137.0
299.0;214.0;;;;;;;;;;;;;;0.85634935;0.62153995;-0.1513718;;;;;137.0
362.0;214.8;;;;;;;;;;;;;;;;;-62.704094;-124.75585;-75.26627;;146.7
362.0;214.8;;;;;;;;;;;;;;0.86501664;0.6139103;-0.12720115;;;;;146.7
362.0;214.8;;;;;;;;;;;;;;;;;-2.685629;-124.15693;-24.307993;;146.7
362.0;214.8;;;;;;;;;;;;;;0.87496567;0.6109806;-0.119754635;;;;;146.7
362.0;214.8;;;;;;;;;;;;;;;;;-9.727776;-93.67275;-14.667959;;156.4
362.0;214.8;;;;;;;;;;;;;;0.89144564;0.60835594;-0.13391522;;;;;156.4
362.0;214.8;;;;;;;;;;;;;;;;;-18.139439;-0.5226295;10.624256;;156.4
362.0;214.8;;;;;;;;;;;;;;0.9037141;0.59096044;-0.14758751;;;;;156.4
362.0;214.8;;;;;;;;;;;;;;;;;-18.688772;8.266702;12.485885;;166.0
362.0;214.8;;;;;;;;;;;;;;0.89785457;0.55854976;-0.16309091;;;;;166.0
362.0;214.8;;;;;;;;;;;;;;;;;-17.490921;8.457442;11.822107;;166.0
362.0;214.8;;;;;;;;;;;;;;0.8885769;0.52253795;-0.17639698;;;;;166.0
362.0;274.6;;;;;;;;;;;;;;;;;-15.842922;7.271035;10.860775;;175.7
362.0;274.6;;;;;;;;;;;;;;0.89815974;0.4760277;-0.16650899;;;;;175.7
362.0;274.6;;;;;;;;;;;;;;;;;-14.030885;5.2301097;9.159368;;175.7
362.0;274.6;;;;;;;;;;;;;;0.9295938;0.43324077;-0.13550219;;;;;175.7
362.0;274.6;;;;;;;;;;;;;;;;;-11.383404;2.6245918;7.7135534;;185.3
362.0;274.6;;;;;;;;;;;;;;0.9783624;0.40064698;-0.10693686;;;;;185.3
362.0;274.6;;;;;;;;;;;;;;;;;-7.221442;0.2822962;6.5691094;;185.3
362.0;274.6;;;;;;;;;;;;;;1.0323191;0.38325143;-0.09814753;;;;;185.3
362.0;274.6;;;;;;;;;;;;;;;;;-1.1368145;-1.7662587;5.203406;;195.0
362.0;274.6;;;;;;;;;;;;;;1.0892056;0.3772698;-0.119205296;;;;;195.0
362.0;274.6;;;;;;;;;;;;;;;;;6.3402205;-2.6741846;3.5782952;;195.0
362.0;274.6;;;;;;;;;;;;;;1.1454817;0.3736076;-0.16119877;;;;;195.0
425.0;275.4;;;;;;;;;;;;;;;;;14.042329;-2.5559251;1.33137;;204.7
425.0;275.4;;;;;;;;;;;;;;1.1792352;0.36756492;-0.21173742;;;;;204.7
425.0;275.4;;;;;;;;;;;;;;;;;21.881773;-2.6245918;-1.5984069;;204.7
425.0;275.4;;;;;;;;;;;;;;1.1988891;0.36017945;-0.2652669;;;;;204.7
425.0;275.4;;;;;;;;;;;;;;;;;28.969696;-2.6551104;-5.062258;;214.3
425.0;275.4;;;;;;;;;;;;;;1.2128665;0.34192938;-0.30823696;;;;;214.3
425.0;275.4;;;;;;;;;;;;;;;;;34.634693;-1.781518;-9.029664;;214.3
425.0;275.4;;;;;;;;;;;;;;1.2021241;0.3140965;-0.3338725;;;;;214.3
425.0;275.4;;;;;;;;;;;;;;;;;37.812435;-1.4572588;-13.058107;;223.9
425.0;275.4;;;;;;;;;;;;;;1.1965697;0.2822962;-0.36066774;;;;;223.9
425.0;275.4;;;;;;;;;;;;;;;;;38.48384;-0.90411085;-16.7127;;223.9
425.0;275.4;;;;;;;;;;;;;;1.1841792;0.26435134;-0.36829737;;;;;223.9
425.0;350.3;;;;;;;;;;;;;;;;;36.397137;-1.0185553;-20.233772;;233.6
425.0;350.3;;;;;;;;;;;;;;1.1595203;0.23871578;-0.3704947;;;;;233.6
425.0;350.3;;;;;;;;;;;;;;;;;32.330547;-3.051851;-23.274178;;233.6
425.0;350.3;;;;;;;;;;;;;;1.1098361;0.22003846;-0.3872799;;;;;233.6
425.0;350.3;;;;;;;;;;;;;;;;;27.60399;-7.232887;-25.460066;;243.2
425.0;350.3;;;;;;;;;;;;;;1.0656453;0.21076083;-0.39741203;;;;;243.2
425.0;350.3;;;;;;;;;;;;;;;;;23.281807;-11.318552;-27.478102;;243.2
425.0;350.3;;;;;;;;;;;;;;1.0185248;0.22070986;-0.40424818;;;;;243.2
425.0;350.3;;;;;;;;;;;;;;;;;19.53566;-13.542589;-29.49614;;252.9
425.0;350.3;;;;;;;;;;;;;;0.94497514;0.24921414;-0.35456404;;;;;252.9
425.0;350.3;;;;;;;;;;;;;;;;;14.706107;-16.323587;-31.04114;;252.9
425.0;350.3;;;;;;;;;;;;;;0.88698995;0.29023102;-0.2773522;;;;;252.9
483.0;351.1;;;;;;;;;;;;;;;;;8.049257;-19.108402;-30.980103;;262.5
483.0;351.1;;;;;;;;;;;;;;0.85781425;0.32587665;-0.21015045;;;;;262.5
483.0;351.1;;;;;;;;;;;;;;;;;0.54551834;-20.207067;-29.59914;;262.5
483.0;351.1;;;;;;;;;;;;;;0.8184454;0.35395366;-0.11810663;;;;;262.5
483.0;351.1;;;;;;;;;;;;;;;;;-7.084109;-21.114994;-26.493881;;272.2
483.0;351.1;;;;;;;;;;;;;;0.80953395;0.34290597;-0.040223397;;;;;272.2
483.0;351.1;;;;;;;;;;;;;;;;;-12.962737;-19.802696;-22.259438;;272.2
483.0;351.1;;;;;;;;;;;;;;0.8089236;0.32160404;0.026245918;;;;;272.2
483.0;351.1;;;;;;;;;;;;;;;;;-14.801477;-16.106144;-17.868587;;281.8
483.0;351.1;;;;;;;;;;;;;;0.7993408;0.28644672;0.06122013;;;;;281.8
483.0;351.1;;;;;;;;;;;;;;;;;-11.200293;-12.249367;-14.103366;;281.8
483.0;351.1;;;;;;;;;;;;;;0.8066042;0.24158452;0.07196265;;;;;281.8
483.0;403.1;;;;;;;;;;;;;;;;;-3.89111;-7.820368;-10.616627;;291.5
483.0;403.1;;;;;;;;;;;;;;0.80880153;0.19696645;0.07275613;;;;;291.5
483.0;403.1;;;;;;;;;;;;;;;;;5.3903317;-5.272073;-7.309183;;291.5
483.0;403.1;;;;;;;;;;;;;;0.8141728;0.16180913;0.024903104;;;;;291.5
483.0;403.1;;;;;;;;;;;;;;;;;16.869106;-4.1314435;-4.3908505;;301.1
483.0;403.1;;;;;;;;;;;;;;0.8333995;0.15173803;-0.047853023;;;;;301.1
483.0;403.1;;;;;;;;;;;;;;;;;29.969175;-3.3150733;-1.9226661;;301.1
483.0;403.1;;;;;;;;;;;;;;0.8534196;0.14545122;-0.16296884;;;;;301.1
483.0;403.1;;;;;;;;;;;;;;;;;43.00821;-1.6556292;-0.30518508;;310.7
483.0;403.1;;;;;;;;;;;;;;0.8554338;0.13379315;-0.2461623;;;;;310.7
483.0;403.1;;;;;;;;;;;;;;;;;56.03961;-1.083407;0.51118505;;310.7
483.0;403.1;;;;;;;;;;;;;;0.86574906;0.11413923;-0.2900479;;;;;310.7
544.0;404.3;;;;;;;;;;;;;;;;;69.792015;-2.166814;0.8163701;;320.4
544.0;404.3;;;;;;;;;;;;;;0.8645894;0.12817775;-0.30158392;;;;;320.4
544.0;404.3;;;;;;;;;;;;;;;;;81.61412;-5.123295;1.167333;;320.4
544.0;404.3;;;;;;;;;;;;;;0.85946226;0.14825892;-0.32697532;;;;;320.4
544.0;404.3;;;;;;;;;;;;;;;;;89.62523;-8.499405;2.0180366;;330.1
544.0;404.3;;;;;;;;;;;;;;0.877163;0.17023225;-0.32636493;;;;;330.1
544.0;404.3;;;;;;;;;;;;;;;;;91.61656;-10.200811;4.154332;;330.1
544.0;404.3;;;;;;;;;;;;;;0.8931547;0.20850246;-0.3170263;;;;;330.1
544.0;404.3;;;;;;;;;;;;;;;;;87.90094;-10.773034;7.7707753;;339.8
544.0;404.3;;;;;;;;;;;;;;0.90267646;0.24127933;-0.32374036;;;;;339.8
544.0;404.3;;;;;;;;;;;;;;;;;80.58031;-10.277108;11.593219;;339.8
544.0;404.3;;;;;;;;;;;;;;0.92049927;0.27185887;-0.32160404;;;;;339.8
544.0;456.0;;;;;;;;;;;;;;;;;72.420425;-9.662924;15.335551;;349.4
544.0;456.0;;;;;;;;;;;;;;0.9412519;0.31250954;-0.3515122;;;;;349.4
544.0;456.0;;;;;;;;;;;;;;;;;64.4818;-7.2786646;18.040255;;349.4
544.0;456.0;;;;;;;;;;;;;;0.9419843;0.35639516;-0.3715934;;;;;349.4
544.0;456.0;;;;;;;;;;;;;;;;;56.875057;-6.5614796;20.310068;;359.1
544.0;456.0;;;;;;;;;;;;;;0.9350261;0.38868374;-0.39533678;;;;;359.1
544.0;456.0;;;;;;;;;;;;;;;;;49.047062;-7.213813;21.794031;;359.1
544.0;456.0;;;;;;;;;;;;;;0.9297159;0.43714714;-0.42878506;;;;;359.1
544.0;456.0;;;;;;;;;;;;;;;;;40.318764;-7.953887;22.476881;;368.6
544.0;456.0;;;;;;;;;;;;;;0.92556536;0.44428846;-0.4405652;;;;;368.6
544.0;456.0;;;;;;;;;;;;;;;;;31.685844;-8.915219;22.835474;;368.6
544.0;456.0;;;;;;;;;;;;;;0.9287393;0.44325083;-0.44160283;;;;;368.6
602.0;456.8;;;;;;;;;;;;;;;;;23.537401;-8.81222;22.827845;;378.1
602.0;456.8;;;;;;;;;;;;;;0.92123175;0.43556017;-0.42048404;;;;;378.1
602.0;456.8;;;;;;;;;;;;;;;;;15.934477;-8.285776;22.701956;;378.1
602.0;456.8;;;;;;;;;;;;;;0.8921171;0.4156621;-0.420423;;;;;378.1
602.0;456.8;;;;;;;;;;;;;;;;;8.81222;-8.159886;22.621845;;387.8
602.0;456.8;;;;;;;;;;;;;;0.8678243;0.41969055;-0.41969055;;;;;387.8
602.0;456.8;;;;;;;;;;;;;;;;;2.2164068;-7.698294;22.70577;;387.8
602.0;456.8;;;;;;;;;;;;;;0.8319346;0.4076052;-0.40223396;;;;;387.8
602.0;456.8;;;;;;;;;;;;;;;;;-3.0022585;-8.510849;22.427288;;397.5
602.0;456.8;;;;;;;;;;;;;;0.81514937;0.37958923;-0.3884396;;;;;397.5
602.0;456.8;;;;;;;;;;;;;;;;;-6.8933682;-9.445479;22.247993;;397.5
602.0;456.8;;;;;;;;;;;;;;0.8064211;0.36909086;-0.36793116;;;;;397.5
602.0;516.4;;;;;;;;;;;;;;;;;-9.651479;-10.673849;22.11066;;407.1
602.0;516.4;;;;;;;;;;;;;;0.8142949;0.33680227;-0.3538316;;;;;407.1
602.0;516.4;;;;;;;;;;;;;;;;;-10.422071;-11.463515;21.95044;;407.1
602.0;516.4;;;;;;;;;;;;;;0.81691945;0.3061617;-0.3427839;;;;;407.1
602.0;516.4;;;;;;;;;;;;;;;;;-9.73922;-11.947997;21.938993;;416.8
602.0;516.4;;;;;;;;;;;;;;0.8245491;0.29078037;-0.34479812;;;;;416.8
602.0;516.4;;;;;;;;;;;;;;;;;-7.9500723;-11.749626;21.858883;;416.8
602.0;516.4;;;;;;;;;;;;;;0.82882166;0.27112645;-0.35840937;;;;;416.8
602.0;516.4;;;;;;;;;;;;;;;;;-5.0737023;-11.226996;21.790216;;426.3
602.0;516.4;;;;;;;;;;;;;;0.827662;0.24176763;-0.3695181;;;;;426.3
602.0;516.4;;;;;;;;;;;;;;;;;-1.4038514;-11.444441;21.900846;;426.3
602.0;516.4;;;;;;;;;;;;;;0.8303476;0.22547075;-0.3812372;;;;;426.3
664.0;517.5;;;;;;;;;;;;;;;;;2.5139623;-11.9556265;22.091587;;435.8
664.0;517.5;;;;;;;;;;;;;;0.83730584;0.19824824;-0.3842891;;;;;435.8
664.0;517.5;;;;;;;;;;;;;;;;;6.3745537;-12.3867;22.228918;;435.8
664.0;517.5;;;;;;;;;;;;;;0.85476243;0.1853084;-0.3872799;;;;;435.8
664.0;517.5;;;;;;;;;;;;;;;;;9.872738;-12.57744;22.377697;;445.5
664.0;517.5;;;;;;;;;;;;;;0.8636738;0.16876736;-0.39912108;;;;;445.5
664.0;517.5;;;;;;;;;;;;;;;;;13.130589;-12.867367;22.530289;;445.5
664.0;517.5;;;;;;;;;;;;;;0.8818629;0.15411848;-0.41785944;;;;;445.5
664.0;517.5;;;;;;;;;;;;;;;;;16.17481;-12.859736;22.591326;;455.1
664.0;517.5;;;;;;;;;;;;;;0.901822;0.17596972;-0.41621143;;;;;455.1
664.0;517.5;;;;;;;;;;;;;;;;;17.983032;-12.874996;22.717215;;455.1
664.0;517.5;;;;;;;;;;;;;;0.90755945;0.15497299;-0.4372692;;;;;455.1
664.0;531.4;;;;;;;;;;;;;;;;;19.600512;-12.459181;22.5074;;464.7
664.0;531.4;;;;;;;;;;;;;;0.9079867;0.15027314;-0.4492935;;;;;464.7
664.0;531.4;;;;;;;;;;;;;;;;;21.290476;-11.936552;22.354807;;464.7
664.0;531.4;;;;;;;;;;;;;;0.908536;0.15710929;-0.44013795;;;;;464.7
664.0;531.4;;;;;;;;;;;;;;;;;22.858364;-11.4978485;22.053438;;474.3
664.0;531.4;;;;;;;;;;;;;;0.9050569;0.14880826;-0.4245735;;;;;474.3
664.0;531.4;;;;;;;;;;;;;;;;;24.266031;-11.043886;21.904661;;474.3
664.0;531.4;;;;;;;;;;;;;;0.9004181;0.1480758;-0.42548907;;;;;474.3
664.0;531.4;;;;;;;;;;;;;;;;;25.734734;-10.364849;21.477402;;483.9
664.0;531.4;;;;;;;;;;;;;;0.8836329;0.14697714;-0.41029084;;;;;483.9
664.0;531.4;;;;;;;;;;;;;;;;;27.111881;-10.723441;21.137882;;483.9
664.0;531.4;;;;;;;;;;;;;;0.88198495;0.136845;-0.40382093;;;;;483.9
723.0;576.7;;;;;;;;;;;;;;;;;29.0994;-11.059145;20.725883;;493.6
723.0;576.7;;;;;;;;;;;;;;0.8810083;0.12878811;-0.39564195;;;;;493.6
723.0;576.7;;;;;;;;;;;;;;;;;31.277657;-11.146885;20.168919;;493.6
723.0;576.7;;;;;;;;;;;;;;0.87490463;0.1262856;-0.38984343;;;;;493.6
723.0;576.7;;;;;;;;;;;;;;;;;33.55129;-10.963775;19.562365;;503.3
723.0;576.7;;;;;;;;;;;;;;0.8716086;0.12732323;-0.38264108;;;;;503.3
723.0;576.7;;;;;;;;;;;;;;;;;35.56169;-11.06296;18.64681;;503.3
723.0;576.7;;;;;;;;;;;;;;0.87746817;0.12402722;-0.37897885;;;;;503.3
723.0;576.7;;;;;;;;;;;;;;;;;37.236397;-10.196997;17.757957;;513.0
723.0;576.7;;;;;;;;;;;;;;0.877163;0.12567522;-0.36878568;;;;;513.0
723.0;576.7;;;;;;;;;;;;;;;;;38.869137;-9.071627;16.914885;;513.0
723.0;576.7;;;;;;;;;;;;;;0.8687399;0.13348795;-0.3630482;;;;;513.0
723.0;591.6;;;;;;;;;;;;;;;;;40.1738;-8.339183;16.003143;;522.6
723.0;591.6;;;;;;;;;;;;;;0.854152;0.13940856;-0.35389262;;;;;522.6
723.0;591.6;;;;;;;;;;;;;;;;;41.158024;-8.251442;15.13718;;522.6
723.0;591.6;;;;;;;;;;;;;;0.8566546;0.15472884;-0.34736168;;;;;522.6
723.0;591.6;;;;;;;;;;;;;;;;;42.119358;-7.9958496;14.328441;;532.2
723.0;591.6;;;;;;;;;;;;;;0.8568377;0.17029329;-0.34900966;;;;;532.2
723.0;591.6;;;;;;;;;;;;;;;;;42.6458;-7.415998;13.53496;;532.2
723.0;591.6;;;;;;;;;;;;;;0.85079503;0.18970306;-0.34553057;;;;;532.2
723.0;591.6;;;;;;;;;;;;;;;;;42.80221;-7.3015537;12.779626;;541.7
723.0;591.6;;;;;;;;;;;;;;0.842555;0.19824824;-0.34998626;;;;;541.7
723.0;591.6;;;;;;;;;;;;;;;;;42.497025;-7.06122;11.87933;;541.7
723.0;591.6;;;;;;;;;;;;;;0.837611;0.20349742;-0.34986418;;;;;541.7
783.0;636.9;;;;;;;;;;;;;;;;;41.989655;-6.6301465;11.028626;;551.3
783.0;636.9;;;;;;;;;;;;;;0.82924896;0.20703757;-0.34797204;;;;;551.3
783.0;636.9;;;;;;;;;;;;;;;;;41.116062;-6.405072;10.345775;;551.3
783.0;636.9;;;;;;;;;;;;;;0.82882166;0.20783105;-0.34516433;;;;;551.3
783.0;636.9;;;;;;;;;;;;;;;;;40.36073;-6.221961;9.73159;;560.9
783.0;636.9;;;;;;;;;;;;;;0.82827234;0.21027254;-0.34339428;;;;;560.9
783.0;636.9;;;;;;;;;;;;;;;;;39.44517;-6.1609244;9.239479;;560.9
783.0;636.9;;;;;;;;;;;;;;0.82699054;0.21027254;-0.3538316;;;;;560.9
783.0;636.9;;;;;;;;;;;;;;;;;38.48384;-5.603961;8.766441;;570.5
783.0;636.9;;;;;;;;;;;;;;0.81783503;0.20984527;-0.36017945;;;;;570.5
783.0;636.9;;;;;;;;;;;;;;;;;37.30888;-4.9401836;8.514664;;570.5
783.0;636.9;;;;;;;;;;;;;;0.8124027;0.20453505;-0.35364848;;;;;570.5
783.0;652.3;;;;;;;;;;;;;;;;;35.840176;-4.562517;8.342998;;580.2
783.0;652.3;;;;;;;;;;;;;;0.81154823;0.2069155;-0.35084078;;;;;580.2
783.0;652.3;;;;;;;;;;;;;;;;;34.60417;-4.100925;8.163702;;580.2
783.0;652.3;;;;;;;;;;;;;;0.80953395;0.2024598;-0.35163426;;;;;580.2
783.0;652.3;;;;;;;;;;;;;;;;;33.69625;-3.9597769;8.053072;;589.8
783.0;652.3;;;;;;;;;;;;;;0.8135014;0.20325327;-0.35486922;;;;;589.8
783.0;652.3;;;;;;;;;;;;;;;;;33.272808;-3.5897398;7.843257;;589.8
783.0;652.3;;;;;;;;;;;;;;0.81508833;0.20734276;-0.35608998;;;;;589.8
783.0;652.3;;;;;;;;;;;;;;;;;32.818844;-2.990814;7.637257;;599.5
783.0;652.3;;;;;;;;;;;;;;0.8159429;0.21448408;-0.36133915;;;;;599.5
783.0;652.3;;;;;;;;;;;;;;;;;32.34962;-2.311777;7.3320723;;599.5
783.0;652.3;;;;;;;;;;;;;;0.8135014;0.22107609;-0.36329234;;;;;599.5
842.0;697.3;;;;;;;;;;;;;;;;;32.12836;-2.0561848;6.9086275;;609.0
842.0;697.3;;;;;;;;;;;;;;0.8100833;0.23078097;-0.36970124;;;;;609.0
842.0;697.3;;;;;;;;;;;;;;;;;31.96051;-1.9531846;6.3325906;;609.0
842.0;697.3;;;;;;;;;;;;;;0.81173134;0.24604023;-0.36841944;;;;;609.0
842.0;697.3;;;;;;;;;;;;;;;;;31.785027;-1.6861477;5.794702;;618.7
842.0;697.3;;;;;;;;;;;;;;0.8152104;0.25641653;-0.36677146;;;;;618.7
842.0;697.3;;;;;;;;;;;;;;;;;31.094545;-0.90029603;5.1080356;;618.7
842.0;697.3;;;;;;;;;;;;;;0.81514937;0.26453444;-0.36268196;;;;;618.7
842.0;697.3;;;;;;;;;;;;;;;;;30.041656;-0.3013703;4.615925;;628.4
842.0;697.3;;;;;;;;;;;;;;0.8130741;0.27088228;-0.36945707;;;;;628.4
842.0;697.3;;;;;;;;;;;;;;;;;29.206215;0.11825922;3.9635916;;628.4
842.0;697.3;;;;;;;;;;;;;;0.80886257;0.27442244;-0.36945707;;;;;628.4
842.0;704.7;;;;;;;;;;;;;;;;;28.637806;0.45014802;3.154851;;637.9
842.0;704.7;;;;;;;;;;;;;;0.80880153;0.28284556;-0.3691519;;;;;637.9
842.0;704.7;;;;;;;;;;;;;;;;;28.138065;0.51118505;2.4262216;;637.9
842.0;704.7;;;;;;;;;;;;;;0.812891;0.29023102;-0.38508254;;;;;637.9
842.0;704.7;;;;;;;;;;;;;;;;;27.630695;0.8926664;1.6479995;;647.6
842.0;704.7;;;;;;;;;;;;;;0.8066042;0.30176702;-0.3815424;;;;;647.6
842.0;704.7;;;;;;;;;;;;;;;;;26.84866;0.87740713;0.93081456;;647.6
842.0;704.7;;;;;;;;;;;;;;0.80996126;0.30512404;-0.3785516;;;;;647.6
842.0;704.7;;;;;;;;;;;;;;;;;25.746178;1.1177404;0.35859248;;657.2
842.0;704.7;;;;;;;;;;;;;;0.8154546;0.30896938;-0.3686636;;;;;657.2
842.0;704.7;;;;;;;;;;;;;;;;;24.159216;1.659444;-0.068666644;;657.2
842.0;704.7;;;;;;;;;;;;;;0.8197882;0.30988494;-0.3587756;;;;;657.2
902.0;757.6;;;;;;;;;;;;;;;;;22.335733;1.8959624;-0.27466658;;666.8
902.0;757.6;;;;;;;;;;;;;;0.82546467;0.31159398;-0.36280406;;;;;666.8
902.0;757.6;;;;;;;;;;;;;;;;;20.672476;2.475814;-0.45396283;;666.8
902.0;757.6;;;;;;;;;;;;;;0.81771296;0.31958982;-0.36432996;;;;;666.8
902.0;757.6;;;;;;;;;;;;;;;;;18.593403;2.1858883;-0.28611103;;676.2
902.0;757.6;;;;;;;;;;;;;;0.81673634;0.3054903;-0.37537766;;;;;676.2
902.0;757.6;;;;;;;;;;;;;;;;;16.739403;2.010407;-0.20599994;;676.2
902.0;757.6;;;;;;;;;;;;;;0.82253486;0.29267251;-0.37421796;;;;;676.2
902.0;757.6;;;;;;;;;;;;;;;;;15.293588;1.8730735;0.13351847;;685.8
902.0;757.6;;;;;;;;;;;;;;0.827662;0.29706717;-0.37012848;;;;;685.8
902.0;757.6;;;;;;;;;;;;;;;;;14.561144;1.7281106;0.3128147;;685.8
902.0;757.6;;;;;;;;;;;;;;0.83278906;0.2959685;-0.36231574;;;;;685.8
902.0;765.4;;;;;;;;;;;;;;;;;14.500107;1.3237404;0.6065554;;695.5
902.0;765.4;;;;;;;;;;;;;;0.83455914;0.29786065;-0.35724968;;;;;695.5
902.0;765.4;;;;;;;;;;;;;;;;;14.599292;1.0261849;1.0528886;;695.5
902.0;765.4;;;;;;;;;;;;;;0.8339488;0.30231637;-0.3630482;;;;;695.5
902.0;765.4;;;;;;;;;;;;;;;;;14.465774;1.0757774;1.9646292;;705.1
902.0;765.4;;;;;;;;;;;;;;0.832728;0.30719933;-0.37110507;;;;;705.1
902.0;765.4;;;;;;;;;;;;;;;;;13.9965515;1.22837;3.0442214;;705.1
902.0;765.4;;;;;;;;;;;;;;0.83010346;0.31421858;-0.3754387;;;;;705.1
902.0;765.4;;;;;;;;;;;;;;;;;13.397626;1.2741477;4.142888;;714.8
902.0;765.4;;;;;;;;;;;;;;0.82363355;0.3190405;-0.3688467;;;;;714.8
902.0;765.4;;;;;;;;;;;;;;;;;12.813959;0.44251838;5.4818873;;714.8
902.0;765.4;;;;;;;;;;;;;;0.8337657;0.31696525;-0.38062686;;;;;714.8
963.0;818.0;;;;;;;;;;;;;;;;;12.424848;0.44251838;7.065035;;724.5
963.0;818.0;;;;;;;;;;;;;;0.83169043;0.32441175;-0.37965026;;;;;724.5
963.0;818.0;;;;;;;;;;;;;;;;;11.307108;-0.12588885;8.850368;;724.5
963.0;818.0;;;;;;;;;;;;;;0.8341319;0.33332315;-0.3797113;;;;;724.5
963.0;818.0;;;;;;;;;;;;;;;;;9.727776;-0.79729605;10.662404;;734.1
963.0;818.0;;;;;;;;;;;;;;0.84200567;0.33967102;-0.37983337;;;;;734.1
963.0;818.0;;;;;;;;;;;;;;;;;8.117924;-0.96896267;12.424848;;734.1
963.0;818.0;;;;;;;;;;;;;;0.84267706;0.33771783;-0.37110507;;;;;734.1
963.0;818.0;;;;;;;;;;;;;;;;;6.488998;-1.2932218;14.152959;;743.7
963.0;818.0;;;;;;;;;;;;;;0.8397473;0.3416242;-0.36896878;;;;;743.7
963.0;818.0;;;;;;;;;;;;;;;;;4.875332;-1.5945921;15.633106;;743.7
963.0;818.0;;;;;;;;;;;;;;0.8422498;0.34827724;-0.36451307;;;;;743.7
963.0;885.7;;;;;;;;;;;;;;;;;3.0251474;-1.5259255;16.956846;;753.3
963.0;885.7;;;;;;;;;;;;;;0.83797723;0.34247872;-0.3599353;;;;;753.3
963.0;885.7;;;;;;;;;;;;;;;;;1.7471846;-1.7662587;17.948698;;753.3
963.0;885.7;;;;;;;;;;;;;;0.83242285;0.33478805;-0.3538316;;;;;753.3
963.0;885.7;;;;;;;;;;;;;;;;;0.6714072;-2.4491103;18.402662;;763.0
963.0;885.7;;;;;;;;;;;;;;0.83059174;0.3246559;-0.3471175;;;;;763.0
963.0;885.7;;;;;;;;;;;;;;;;;-0.18692587;-2.8000731;18.429365;;763.0
963.0;885.7;;;;;;;;;;;;;;0.824427;0.30872524;-0.34040347;;;;;763.0
963.0;885.7;;;;;;;;;;;;;;;;;-0.6408887;-3.1014435;18.238625;;772.6
963.0;885.7;;;;;;;;;;;;;;0.81478316;0.3048799;-0.32227546;;;;;772.6
963.0;885.7;;;;;;;;;;;;;;;;;-1.2817774;-4.1314435;18.070772;;772.6
963.0;885.7;;;;;;;;;;;;;;0.8202765;0.29963073;-0.31690422;;;;;772.6
1026.0;886.7;;;;;;;;;;;;;;;;;-2.1324809;-4.1123695;17.754143;;782.2
1026.0;886.7;;;;;;;;;;;;;;0.8130741;0.3030488;-0.31586656;;;;;782.2
1026.0;886.7;;;;;;;;;;;;;;;;;-3.4524064;-3.051851;17.433699;;782.2
1026.0;886.7;;;;;;;;;;;;;;0.8059328;0.30890834;-0.300119;;;;;782.2
1026.0;886.7;;;;;;;;;;;;;;;;;-4.8409986;-1.9188513;17.29255;;791.9
1026.0;886.7;;;;;;;;;;;;;;0.79494613;0.31293678;-0.28156376;;;;;791.9
1026.0;886.7;;;;;;;;;;;;;;;;;-5.512406;-1.1177404;16.91107;;791.9
1026.0;886.7;;;;;;;;;;;;;;0.79244363;0.31238747;-0.27588734;;;;;791.9
1026.0;886.7;;;;;;;;;;;;;;;;;-5.493332;0.19074069;16.033663;;801.6
1026.0;886.7;;;;;;;;;;;;;;0.78774375;0.31177709;-0.27167577;;;;;801.6
1026.0;886.7;;;;;;;;;;;;;;;;;-5.7184057;1.8501847;15.175328;;801.6
1026.0;886.7;;;;;;;;;;;;;;0.7701651;0.3094577;-0.2760094;;;;;801.6
1026.0;887.3;;;;;;;;;;;;;;;;;-5.93585;2.5521104;14.275033;;811.1
1026.0;887.3;;;;;;;;;;;;;;0.75392926;0.30359814;-0.28998688;;;;;811.1
1026.0;887.3;;;;;;;;;;;;;;;;;-5.283517;2.3651845;13.332774;;811.1
1026.0;887.3;;;;;;;;;;;;;;0.74617755;0.2985931;-0.30341503;;;;;811.1
1026.0;887.3;;;;;;;;;;;;;;;;;-4.9172945;1.5717032;12.58507;;820.7
1026.0;887.3;;;;;;;;;;;;;;0.7458724;0.29267251;-0.33283487;;;;;820.7
1026.0;887.3;;;;;;;;;;;;;;;;;-4.8295546;1.3237404;11.967071;;820.7
1026.0;887.3;;;;;;;;;;;;;;0.7414777;0.28315073;-0.34070864;;;;;820.7
1026.0;887.3;;;;;;;;;;;;;;;;;-5.2110357;0.2822962;11.513107;;830.4
1026.0;887.3;;;;;;;;;;;;;;0.74513996;0.27393416;-0.32734153;;;;;830.4
1026.0;887.3;;;;;;;;;;;;;;;;;-5.4589987;-1.2245551;11.249886;;830.4
1026.0;887.3;;;;;;;;;;;;;;0.764977;0.2664266;-0.3284402;;;;;830.4
1083.0;938.8;;;;;;;;;;;;;;;;;-5.7641835;-1.289407;11.001924;;840.1
1083.0;938.8;;;;;;;;;;;;;;0.7726066;0.2582476;-0.3322245;;;;;840.1
1083.0;938.8;;;;;;;;;;;;;;;;;-6.164739;-1.1215552;11.001924;;840.1
1083.0;938.8;;;;;;;;;;;;;;0.7772454;0.25678274;-0.33710745;;;;;840.1
1083.0;938.8;;;;;;;;;;;;;;;;;-6.591998;-1.083407;11.1888485;;849.8
1083.0;938.8;;;;;;;;;;;;;;0.78096867;0.25586718;-0.34437087;;;;;849.8
1083.0;938.8;;;;;;;;;;;;;;;;;-6.3325906;-0.8087405;11.059145;;849.8
1083.0;938.8;;;;;;;;;;;;;;0.7743156;0.2531205;-0.34717858;;;;;849.8
1083.0;938.8;;;;;;;;;;;;;;;;;-5.897702;-0.93844414;10.845515;;859.5
1083.0;938.8;;;;;;;;;;;;;;0.77089757;0.2550737;-0.33411664;;;;;859.5
1083.0;938.8;;;;;;;;;;;;;;;;;-5.0660725;-2.0409255;10.498367;;859.5
1083.0;938.8;;;;;;;;;;;;;;0.76924956;0.25965148;-0.34717858;;;;;859.5
1083.0;939.6;;;;;;;;;;;;;;;;;-3.99411;-1.9798884;9.73159;;869.2
1083.0;939.6;;;;;;;;;;;;;;0.7599719;0.26831874;-0.3497421;;;;;869.2
1083.0;939.6;;;;;;;;;;;;;;;;;-4.058962;-1.5068514;9.071627;;869.2
1083.0;939.6;;;;;;;;;;;;;;0.75643176;0.27906126;-0.31812495;;;;;869.2
1083.0;939.6;;;;;;;;;;;;;;;;;-4.6617026;-1.8616291;8.716849;;878.8
1083.0;939.6;;;;;;;;;;;;;;0.76363415;0.27307963;-0.3154393;;;;;878.8
1083.0;939.6;;;;;;;;;;;;;;;;;-4.486221;-1.1368145;8.049257;;878.8
1083.0;939.6;;;;;;;;;;;;;;0.75209814;0.26935637;-0.32734153;;;;;878.8
1083.0;939.6;;;;;;;;;;;;;;;;;-4.9439983;0.14496292;7.3587756;;888.4
1083.0;939.6;;;;;;;;;;;;;;0.740318;0.26337475;-0.31617177;;;;;888.4
1083.0;939.6;;;;;;;;;;;;;;;;;-5.9091463;0.6637776;6.8170724;;888.4
1083.0;939.6;;;;;;;;;;;;;;0.7330546;0.2537309;-0.3030488;;;;;888.4
1145.0;998.8;;;;;;;;;;;;;;;;;-6.85522;0.6828517;6.195257;;898.1
1145.0;998.8;;;;;;;;;;;;;;0.7410504;0.24219489;-0.28150272;;;;;898.1
1145.0;998.8;;;;;;;;;;;;;;;;;-7.415998;0.7248146;5.6840725;;898.1
1145.0;998.8;;;;;;;;;;;;;;0.75881225;0.22644734;-0.26416823;;;;;898.1
1145.0;998.8;;;;;;;;;;;;;;;;;-6.572924;2.0790737;5.01648;;907.7
1145.0;998.8;;;;;;;;;;;;;;0.76509905;0.2115543;-0.27973264;;;;;907.7
1145.0;998.8;;;;;;;;;;;;;;;;;-4.894406;5.4589987;4.1314435;;907.7
1145.0;998.8;;;;;;;;;;;;;;0.74221015;0.20441298;-0.296762;;;;;907.7
1145.0;998.8;;;;;;;;;;;;;;;;;-2.7771842;7.8470716;2.7619252;;917.3
1145.0;998.8;;;;;;;;;;;;;;0.70778525;0.20032349;-0.31373027;;;;;917.3
1145.0;998.8;;;;;;;;;;;;;;;;;-1.2550737;8.072146;1.7777032;;917.3
1145.0;998.8;;;;;;;;;;;;;;0.6972869;0.19757684;-0.34351635;;;;;917.3
1145.0;999.5;;;;;;;;;;;;;;;;;-0.67903686;8.552812;0.7438887;;927.0
1145.0;999.5;;;;;;;;;;;;;;0.69747;0.19873653;-0.33356732;;;;;927.0
1145.0;999.5;;;;;;;;;;;;;;;;;-0.21744438;9.285256;-0.08774071;;927.0
1145.0;999.5;;;;;;;;;;;;;;0.7070528;0.19129002;-0.3246559;;;;;927.0
1145.0;999.5;;;;;;;;;;;;;;;;;0.85833305;10.853146;-0.77440715;;936.7
1145.0;999.5;;;;;;;;;;;;;;0.7102878;0.1843318;-0.34669027;;;;;936.7
1145.0;999.5;;;;;;;;;;;;;;;;;3.1395917;13.016145;-1.7319254;;936.7
1145.0;999.5;;;;;;;;;;;;;;0.6880703;0.18225653;-0.380871;;;;;936.7
1145.0;999.5;;;;;;;;;;;;;;;;;5.9472947;13.447219;-2.5368512;;946.3
1145.0;999.5;;;;;;;;;;;;;;0.6778771;0.18329416;-0.4032716;;;;;946.3
1145.0;999.5;;;;;;;;;;;;;;;;;8.808405;12.733848;-3.257851;;946.3
1145.0;999.5;;;;;;;;;;;;;;0.68459123;0.18317209;-0.4185919;;;;;946.3
1204.0;1059.4;;;;;;;;;;;;;;;;;12.245552;12.966552;-4.440443;;956.0
1204.0;1059.4;;;;;;;;;;;;;;0.6873379;0.18427075;-0.40388197;;;;;956.0
1204.0;1059.4;;;;;;;;;;;;;;;;;15.572069;13.462478;-5.668813;;956.0
1204.0;1059.4;;;;;;;;;;;;;;0.69966733;0.18378246;-0.38605914;;;;;956.0
1204.0;1059.4;;;;;;;;;;;;;;;;;18.040255;14.385662;-6.591998;;965.5
1204.0;1059.4;;;;;;;;;;;;;;0.7107761;0.17975402;-0.37720877;;;;;965.5
1204.0;1059.4;;;;;;;;;;;;;;;;;20.325327;15.331736;-7.374035;;965.5
1204.0;1059.4;;;;;;;;;;;;;;0.707358;0.17236854;-0.37940612;;;;;965.5
1204.0;1059.4;;;;;;;;;;;;;;;;;22.839289;15.507217;-8.014924;;975.1
1204.0;1059.4;;;;;;;;;;;;;;0.70363474;0.1779229;-0.38709676;;;;;975.1
1204.0;1059.4;;;;;;;;;;;;;;;;;25.055696;15.747551;-8.758812;;975.1
1204.0;1059.4;;;;;;;;;;;;;;0.71053195;0.1850032;-0.37696463;;;;;975.1
1204.0;1060.2;;;;;;;;;;;;;;;;;27.043215;16.567736;-9.62096;;984.8
1204.0;1060.2;;;;;;;;;;;;;;0.71236306;0.19684438;-0.36750388;;;;;984.8
1204.0;1060.2;;;;;;;;;;;;;;;;;28.420362;18.01355;-10.635701;;984.8
1204.0;1060.2;;;;;;;;;;;;;;0.7017426;0.20618305;-0.3721427;;;;;984.8
1204.0;1060.2;;;;;;;;;;;;;;;;;28.191473;19.489883;-11.3986635;;994.4
1204.0;1060.2;;;;;;;;;;;;;;0.6902676;0.21362957;-0.37073886;;;;;994.4
1204.0;1060.2;;;;;;;;;;;;;;;;;27.310251;21.141697;-12.012849;;994.4
1204.0;1060.2;;;;;;;;;;;;;;0.6758629;0.2273629;-0.35200047;;;;;994.4
1204.0;1060.2;;;;;;;;;;;;;;;;;26.268806;23.064363;-12.928404;;1004.1
1204.0;1060.2;;;;;;;;;;;;;;0.6671957;0.24091311;-0.31708732;;;;;1004.1
1204.0;1060.2;;;;;;;;;;;;;;;;;26.333658;24.826807;-14.397107;;1004.1
1204.0;1060.2;;;;;;;;;;;;;;0.66170233;0.2484817;-0.28547013;;;;;1004.1
1206.0;1127.0;;;;;;;;;;;;;;;;;28.542437;26.829586;-16.708885;;1013.8
1206.0;1127.0;;;;;;;;;;;;;;0.6567583;0.26520586;-0.26715904;;;;;1013.8
1206.0;1127.0;;;;;;;;;;;;;;;;;32.334362;29.011658;-19.814142;;1013.8
1206.0;1127.0;;;;;;;;;;;;;;0.6499222;0.29291666;-0.24018067;;;;;1013.8
1206.0;1127.0;;;;;;;;;;;;;;;;;35.206913;30.987732;-22.728659;;1023.4
1206.0;1127.0;;;;;;;;;;;;;;0.64387953;0.31891844;-0.2517777;;;;;1023.4
1206.0;1127.0;;;;;;;;;;;;;;;;;36.01184;33.692436;-25.05188;;1023.4
1206.0;1127.0;;;;;;;;;;;;;;0.6289865;0.34357738;-0.27216408;;;;;1023.4
1206.0;1127.0;;;;;;;;;;;;;;;;;35.229805;36.183506;-26.757103;;1033.1
1206.0;1127.0;;;;;;;;;;;;;;0.60585344;0.35859248;-0.27771842;;;;;1033.1
1206.0;1127.0;;;;;;;;;;;;;;;;;33.909878;37.186806;-28.008362;;1033.1
1206.0;1127.0;;;;;;;;;;;;;;0.595233;0.37501144;-0.29285562;;;;;1033.1
1208.0;1127.8;;;;;;;;;;;;;;;;;31.872768;38.018433;-28.836176;;1042.6
1208.0;1127.8;;;;;;;;;;;;;;0.5905942;0.39088106;-0.31818599;;;;;1042.6
1208.0;1127.8;;;;;;;;;;;;;;;;;28.290659;39.11328;-28.98877;;1042.6
1208.0;1127.8;;;;;;;;;;;;;;0.5926694;0.40577412;-0.33149204;;;;;1042.6
1208.0;1127.8;;;;;;;;;;;;;;;;;24.124882;40.0708;-28.729362;;1052.2
1208.0;1127.8;;;;;;;;;;;;;;0.60426646;0.4098636;-0.31373027;;;;;1052.2
1208.0;1127.8;;;;;;;;;;;;;;;;;20.008698;40.7918;-28.14951;;1052.2
1208.0;1127.8;;;;;;;;;;;;;;0.6279489;0.4140141;-0.2890103;;;;;1052.2
1208.0;1127.8;;;;;;;;;;;;;;;;;16.21296;42.24906;-27.573473;;1061.8
1208.0;1127.8;;;;;;;;;;;;;;0.6506546;0.41065708;-0.29090244;;;;;1061.8
1208.0;1127.8;;;;;;;;;;;;;;;;;12.333293;44.072544;-26.566362;;1061.8
1208.0;1127.8;;;;;;;;;;;;;;0.6584063;0.4130375;-0.32453382;;;;;1061.8
1208.0;1130.2;;;;0.0;0.0;0.0;;;;;;;;;;;;;;;
1208.0;1130.2;;;;-0.1300583;-0.013835909;-0.003974915;;;;;;;;;;;;;;;
1208.0;1130.2;;;;-0.6420556;-0.16831972;-0.20669177;;;;;;;;;;;;;;;
1208.0;1130.2;;;;-0.71223456;-0.19506076;-0.24500659;;;;;;;;;;;;;;;
1208.0;1130.2;;;;-0.7118035;-0.19439319;-0.24390796;;;;;;;;;;;;;;;
1208.0;1140.3;;;;-0.7096711;-0.19396594;-0.24208835;;;;;;;;;;;;;;;
1208.0;1140.3;;;;-0.7068673;-0.19424823;-0.2395592;;;;;;;;;;;;;;;
1208.0;1140.3;;;;-0.7044793;-0.1935654;-0.23837283;;;;;;;;;;;;;;;
1208.0;1140.3;;;;-0.7043534;-0.19324496;-0.23989108;;;;;;;;;;;;;;;
1208.0;1140.3;;;;-0.70486456;-0.19222644;-0.24065784;;;;;;;;;;;;;;;
1262.0;1142.5;57533;57484;13140;;;;;;;;;;;;;;;;;;
1262.0;1150.1;;;;-0.70766455;-0.18900684;-0.24278262;;;;;;;;;;;;;;;
1262.0;1150.1;;;;-0.71308905;-0.18610765;-0.24694827;;;;;;;;;;;;;;;
1262.0;1150.1;;;;-0.7194596;-0.18415834;-0.25054553;;;;;;;;;;;;;;;
1262.0;1150.1;;;;-0.7324868;-0.18215562;-0.25396731;;;;;;;;;;;;;;;
1262.0;1150.1;;;;-0.7465325;-0.17959215;-0.25803378;;;;;;;;;;;;;;;
1262.0;1160.1;;;;-0.7541543;-0.17868425;-0.2636948;;;;;;;;;;;;;;;
1262.0;1160.1;;;;-0.7601434;-0.17996599;-0.26965335;;;;;;;;;;;;;;;
1262.0;1160.1;;;;-0.7682191;-0.18333818;-0.27840427;;;;;;;;;;;;;;;
1262.0;1160.1;;;;-0.7774774;-0.1879845;-0.28507236;;;;;;;;;;;;;;;
1262.0;1160.1;;;;-0.7853662;-0.19090274;-0.2896004;;;;;;;;;;;;;;;
1262.0;1162.4;73879;73843;13142;;;;;;;;;;;;;;;;;;
1262.0;1168.8;;;;;;;;;;;;;0;;;;;;;;
1262.0;1168.8;;;;;;;;;;;;;0;;;;;;;;
1262.0;1168.8;;;;;;;;;;;;;-1;;;;;;;;
1262.0;1168.8;;;;;;;;;;;;;-3;;;;;;;;
1262.0;1168.8;;;;;;;;;;;;;-3;;;;;;;;
1262.0;1170.3;;;;-0.7922288;-0.1953812;-0.2939072;;;;;;;;;;;;;;;
1262.0;1170.3;;;;-0.7993928;-0.19955447;-0.29883578;;;;;;;;;;;;;;;
1262.0;1170.3;;;;-0.8097688;-0.20388034;-0.30370715;;;;;;;;;;;;;;;
1262.0;1170.3;;;;-0.82346356;-0.2083855;-0.30950168;;;;;;;;;;;;;;;
1262.0;1170.3;;;;-0.83799756;-0.21306995;-0.31613925;;;;;;;;;;;;;;;
1264.0;1180.4;;;;-0.85424054;-0.21809009;-0.32244876;;;;;;;;;;;;;;;
1264.0;1180.4;;;;-0.87111294;-0.22069171;-0.32960513;;;;;;;;;;;;;;;
1264.0;1180.4;;;;-0.8895227;-0.22165683;-0.34245685;;;;;;;;;;;;;;;
1264.0;1180.4;;;;-0.91121304;-0.21992114;-0.35751727;;;;;;;;;;;;;;;
1264.0;1180.4;;;;-0.9362222;-0.21707538;-0.3729706;;;;;;;;;;;;;;;
1264.0;1182.7;90155;90318;13137;;;;;;;;;;;;;;;;;;
1264.0;1187.1;;;;;;;;;;;;;;;;;8.949553;46.3271;-25.429548;;1071.5
1264.0;1187.1;;;;;;;;;;;;;;0.64766383;0.42359692;-0.357799;;;;;1071.5
1264.0;1187.1;;;;;;;;;;;;;;;;;6.3745537;47.21595;-24.456772;;1071.5
1264.0;1187.1;;;;;;;;;;;;;;0.6267281;0.41651663;-0.38801232;;;;;1071.5
1264.0;1187.1;;;;;;;;;;;;;;;;;5.3292947;46.685688;-23.976105;;1081.0
1264.0;1187.1;;;;;;;;;;;;;;0.62318796;0.40473646;-0.37470627;;;;;1081.0
1264.0;1187.1;;;;;;;;;;;;;;;;;5.043184;46.388134;-24.063845;;1081.0
1264.0;1187.1;;;;;;;;;;;;;;0.6389355;0.3823359;-0.30347607;;;;;1081.0
1264.0;1187.1;;;;;;;;;;;;;;;;;5.8900723;46.948914;-24.719994;;1090.6
1264.0;1187.1;;;;;;;;;;;;;;0.6415601;0.35688344;-0.2700278;;;;;1090.6
1264.0;1187.1;;;;;;;;;;;;;;;;;7.2824793;48.276466;-25.879696;;1090.6
1264.0;1187.1;;;;;;;;;;;;;;0.61635184;0.33161414;-0.28138065;;;;;1090.6
1321.0;1188.3;;;;;;;;;;;;;;;;;9.189886;49.855797;-27.581102;;1100.2
1321.0;1188.3;;;;;;;;;;;;;;0.5706961;0.31678212;-0.30365917;;;;;1100.2
1321.0;1188.3;;;;;;;;;;;;;;;;;10.280923;50.984985;-29.671621;;1100.2
1321.0;1188.3;;;;;;;;;;;;;;0.5414594;0.29682302;-0.27063814;;;;;1100.2
1321.0;1188.3;;;;;;;;;;;;;;;;;10.994293;51.126133;-32.193214;;1109.8
1321.0;1188.3;;;;;;;;;;;;;;0.521012;0.28711814;-0.28510392;;;;;1109.8
1321.0;1188.3;;;;;;;;;;;;;;;;;11.123997;53.479874;-35.706657;;1109.8
1321.0;1188.3;;;;;;;;;;;;;;0.4807886;0.28351694;-0.25397503;;;;;1109.8
1321.0;1188.3;;;;;;;;;;;;;;;;;10.765405;54.71206;-40.162357;;1119.3
1321.0;1188.3;;;;;;;;;;;;;;0.46717733;0.27790156;-0.1988586;;;;;1119.3
1321.0;1188.3;;;;;;;;;;;;;;;;;11.627552;56.371502;-45.724358;;1119.3
1321.0;1188.3;;;;;;;;;;;;;;0.45448163;0.28577533;-0.17322306;;;;;1119.3
1321.0;1190.2;;;;-0.9632379;-0.21186069;-0.3890801;;;;;;;;;;;;;;;
1321.0;1190.2;;;;-0.98954403;-0.20548251;-0.40496832;;;;;;;;;;;;;;;
1321.0;1190.2;;;;-1.0143586;-0.19768527;-0.41779333;;;;;;;;;;;;;;;
1321.0;1190.2;;;;-1.034424;-0.18804172;-0.4288445;;;;;;;;;;;;;;;
1321.0;1190.2;;;;-1.0507585;-0.17766191;-0.43899924;;;;;;;;;;;;;;;
1321.0;1200.2;;;;-1.0672685;-0.16786195;-0.45124823;;;;;;;;;;;;;;;
1321.0;1200.2;;;;-1.083767;-0.15676118;-0.46278006;;;;;;;;;;;;;;;
1321.0;1200.2;;;;-1.0977136;-0.14442064;-0.4747277;;;;;;;;;;;;;;;
1321.0;1200.2;;;;-1.1169511;-0.13294221;-0.4880715;;;;;;;;;;;;;;;
1321.0;1200.2;;;;-1.1346246;-0.11991884;-0.4997216;;;;;;;;;;;;;;;
1321.0;1202.6;106594;106670;13134;;;;;;;;;;;;;;;;;;
1383.0;1208.8;;;;;;;;;;;;;-4;;;;;;;;
1383.0;1208.8;;;;;;;;;;;;;-9;;;;;;;;
1383.0;1208.8;;;;;;;;;;;;;-13;;;;;;;;
1383.0;1208.8;;;;;;;;;;;;;-4;;;;;;;;
1383.0;1208.8;;;;;;;;;;;;;-15;;;;;;;;
1383.0;1210.0;;;;-1.1446458;-0.10707094;-0.51250845;;;;;;;;;;;;;;;
1383.0;1210.0;;;;-1.1550561;-0.09349442;-0.5271836;;;;;;;;;;;;;;;
1383.0;1210.0;;;;-1.1698991;-0.07845307;-0.54139334;;;;;;;;;;;;;;;
1383.0;1210.0;;;;-1.1876146;-0.06575776;-0.55353934;;;;;;;;;;;;;;;
1383.0;1210.0;;;;-1.2027665;-0.052425392;-0.5640488;;;;;;;;;;;;;;;
1383.0;1220.1;;;;-1.2219354;-0.043212894;-0.5740853;;;;;;;;;;;;;;;
1383.0;1220.1;;;;-1.2370569;-0.031894688;-0.58152395;;;;;;;;;;;;;;;
1383.0;1220.1;;;;-1.249405;-0.01885605;-0.5896569;;;;;;;;;;;;;;;
1383.0;1220.1;;;;-1.2638704;-0.0037078862;-0.59556204;;;;;;;;;;;;;;;
1383.0;1220.1;;;;-1.278267;0.0076560983;-0.6003304;;;;;;;;;;;;;;;
1383.0;1222.6;123047;123007;13132;;;;;;;;;;;;;;;;;;
1383.0;1230.2;;;;-1.2923967;0.017421724;-0.60242087;;;;;;;;;;;;;;;
1383.0;1230.2;;;;-1.30011;0.029140476;-0.60041815;;;;;;;;;;;;;;;
1383.0;1230.2;;;;-1.3034974;0.036880497;-0.6003838;;;;;;;;;;;;;;;
1383.0;1230.2;;;;-1.3096734;0.048400886;-0.59930426;;;;;;;;;;;;;;;
1383.0;1230.2;;;;-1.3159219;0.057575233;-0.59803396;;;;;;;;;;;;;;;
1444.0;1239.8;;;;;;;;;;;;;;;;;12.8711815;57.607502;-52.888577;;1128.9
1444.0;1239.8;;;;;;;;;;;;;;0.4461806;0.29419842;-0.1558275;;;;;1128.9
1444.0;1239.8;;;;;;;;;;;;;;;;;14.6641445;58.77102;-61.590168;;1128.9
1444.0;1239.8;;;;;;;;;;;;;;0.46113467;0.2982879;-0.12451552;;;;;1128.9
1444.0;1239.8;;;;;;;;;;;;;;;;;16.315958;58.93506;-71.34083;;1138.6
1444.0;1239.8;;;;;;;;;;;;;;0.5000763;0.319834;-0.08142339;;;;;1138.6
1444.0;1239.8;;;;;;;;;;;;;;;;;16.28544;58.107243;-82.09479;;1138.6
1444.0;1239.8;;;;;;;;;;;;;;0.59254736;0.35254982;-0.045411542;;;;;1138.6
1444.0;1239.8;;;;;;;;;;;;;;;;;16.487625;60.872982;-94.1229;;1148.3
1444.0;1239.8;;;;;;;;;;;;;;0.6432691;0.38575396;-0.0021362957;;;;;1148.3
1444.0;1239.8;;;;;;;;;;;;;;;;;15.526292;57.74102;-106.55919;;1148.3
1444.0;1239.8;;;;;;;;;;;;;;0.73543507;0.4430067;-0.009582812;;;;;1148.3
1444.0;1240.3;;;;-1.3194963;0.0641327;-0.5948029;;;;;;;;;;;;;;;
1444.0;1240.3;;;;-1.3180887;0.07094575;-0.59024817;;;;;;;;;;;;;;;
1444.0;1240.3;;;;-1.3144876;0.07666779;-0.58443457;;;;;;;;;;;;;;;
1444.0;1240.3;;;;-1.3106691;0.08366776;-0.57648474;;;;;;;;;;;;;;;
1444.0;1240.3;;;;-1.3071977;0.088089;-0.5690804;;;;;;;;;;;;;;;
1445.0;1240.6;;;;;;;;;;;;;;;;;10.464034;52.545242;-118.31264;;1158.0
1445.0;1240.6;;;;;;;;;;;;;;0.913358;0.4888455;-0.0010376293;;;;;1158.0
1445.0;1240.6;;;;;;;;;;;;;;;;;4.7685175;51.816612;-124.660484;;1158.0
1445.0;1240.6;;;;;;;;;;;;;;1.0664388;0.5170446;-0.00695822;;;;;1158.0
1445.0;1240.6;;;;;;;;;;;;;;;;;-1.865444;46.33473;-124.988556;;1167.6
1445.0;1240.6;;;;;;;;;;;;;;1.2982574;0.5938902;-0.03747673;;;;;1167.6
1445.0;1240.6;;;;;;;;;;;;;;;;;-10.490738;40.93295;-124.988556;;1167.6
1445.0;1240.6;;;;;;;;;;;;;;1.6065553;0.63814205;-0.13739432;;;;;1167.6
1445.0;1240.6;;;;;;;;;;;;;;;;;-16.277811;43.057804;-124.988556;;1177.2
1445.0;1240.6;;;;;;;;;;;;;;1.8560747;0.6515702;-0.267098;;;;;1177.2
1445.0;1240.6;;;;;;;;;;;;;;;;;-18.818476;49.619278;-124.988556;;1177.2
1445.0;1240.6;;;;;;;;;;;;;;1.9862666;0.6178167;-0.3729362;;;;;1177.2
1445.0;1242.7;139421;139473;13119;;;;;;;;;;;;;;;;;;
1445.0;1249.1;;;;;;;;;;;;;1;;;;;;;;
1445.0;1249.1;;;;;;;;;;;;;-1;;;;;;;;
1445.0;1249.1;;;;;;;;;;;;;-40;;;;;;;;
1445.0;1249.1;;;;;;;;;;;;;80;;;;;;;;
1445.0;1249.1;;;;;;;;;;;;;-49;;;;;;;;
1445.0;1250.3;;;;-1.3042566;0.091579445;-0.5602189;;;;;;;;;;;;;;;
1445.0;1250.3;;;;-1.3019906;0.09404375;-0.54930884;;;;;;;;;;;;;;;
1445.0;1250.3;;;;-1.3019983;0.09391023;-0.5379334;;;;;;;;;;;;;;;
1445.0;1250.3;;;;-1.3017656;0.09191514;-0.5274468;;;;;;;;;;;;;;;
1445.0;1250.3;;;;-1.3010865;0.087722786;-0.5174599;;;;;;;;;;;;;;;
1452.0;1260.3;;;;-1.3018037;0.082695015;-0.5072022;;;;;;;;;;;;;;;
1452.0;1260.3;;;;-1.3030015;0.07668687;-0.49739462;;;;;;;;;;;;;;;
1452.0;1260.3;;;;-1.3046609;0.06893159;-0.48831183;;;;;;;;;;;;;;;
1452.0;1260.3;;;;-1.3076745;0.059978493;-0.47918707;;;;;;;;;;;;;;;
1452.0;1260.3;;;;-1.3116761;0.050235756;-0.46883017;;;;;;;;;;;;;;;
1452.0;1262.9;155875;155830;13133;;;;;;;;;;;;;;;;;;
1452.0;1270.3;;;;-1.3169824;0.03974915;-0.46186835;;;;;;;;;;;;;;;
1452.0;1270.3;;;;-1.3226968;0.029384617;-0.45686346;;;;;;;;;;;;;;;
1452.0;1270.3;;;;-1.3284112;0.018947603;-0.4524613;;;;;;;;;;;;;;;
1452.0;1270.3;;;;-1.3313562;0.0074920664;-0.450985;;;;;;;;;;;;;;;
1452.0;1270.3;;;;-1.3311387;-0.003520966;-0.45392233;;;;;;;;;;;;;;;
1452.0;1280.4;;;;-1.330082;-0.01413727;-0.45973974;;;;;;;;;;;;;;;
1452.0;1280.4;;;;-1.3280755;-0.023277285;-0.46467596;;;;;;;;;;;;;;;
1452.0;1280.4;;;;-1.3252908;-0.030780796;-0.46763617;;;;;;;;;;;;;;;
1452.0;1280.4;;;;-1.3247148;-0.037185673;-0.47262198;;;;;;;;;;;;;;;
1452.0;1280.4;;;;-1.3228112;-0.040340427;-0.47640997;;;;;;;;;;;;;;;
1452.0;1283.0;172155;172113;13148;;;;;;;;;;;;;;;;;;
1452.0;1289.4;;;;;;;;;;;;;-394;;;;;;;;
1452.0;1289.4;;;;;;;;;;;;;63;;;;;;;;
1452.0;1289.4;;;;;;;;;;;;;773;;;;;;;;
1452.0;1289.4;;;;;;;;;;;;;-361;;;;;;;;
1452.0;1289.4;;;;;;;;;;;;;-3986;;;;;;;;
1455.0;1290.6;;;;-1.3177034;-0.03770447;-0.4813996;;;;;;;;;;;;;;;
1455.0;1290.6;;;;-1.315468;-0.03364945;-0.48654944;;;;;;;;;;;;;;;
1455.0;1290.6;;;;-1.3144227;-0.02864075;-0.49051672;;;;;;;;;;;;;;;
1455.0;1290.6;;;;-1.3136522;-0.023918156;-0.49548346;;;;;;;;;;;;;;;
1455.0;1290.6;;;;-1.3143808;-0.019809725;-0.5000878;;;;;;;;;;;;;;;
1455.0;1300.1;;;;;;;;;;;;;;;;;-19.577623;54.441208;-124.988556;;1186.9
1455.0;1300.1;;;;;;;;;;;;;;1.9970092;0.55146945;-0.4423963;;;;;1186.9
1455.0;1300.1;;;;;;;;;;;;;;;;;-19.0817;59.70565;-124.988556;;1186.9
1455.0;1300.1;;;;;;;;;;;;;;1.9970092;0.41627246;-0.50086975;;;;;1186.9
1455.0;1300.1;;;;;;;;;;;;;;;;;-16.346478;68.15164;-124.988556;;1196.5
1455.0;1300.1;;;;;;;;;;;;;;1.9946288;0.35578477;-0.43556017;;;;;1196.5
1455.0;1300.1;;;;;;;;;;;;;;;;;-14.85107;72.20298;-124.988556;;1196.5
1455.0;1300.1;;;;;;;;;;;;;;1.8920865;0.30262154;-0.34833828;;;;;1196.5
1455.0;1300.1;;;;;;;;;;;;;;;;;-13.271737;70.10483;-124.988556;;1206.2
1455.0;1300.1;;;;;;;;;;;;;;1.74279;0.36121708;-0.27314067;;;;;1206.2
1455.0;1300.1;;;;;;;;;;;;;;;;;-10.956145;62.64306;-124.881744;;1206.2
1455.0;1300.1;;;;;;;;;;;;;;1.648732;0.30744347;-0.24329355;;;;;1206.2
1455.0;1300.5;;;;-1.3148385;-0.015773775;-0.5030022;;;;;;;;;;;;;;;
1455.0;1300.5;;;;-1.3137208;-0.012344362;-0.5039254;;;;;;;;;;;;;;;
1455.0;1300.5;;;;-1.3126451;-0.010860444;-0.5033074;;;;;;;;;;;;;;;
1455.0;1300.5;;;;-1.3089486;-0.010841371;-0.5023423;;;;;;;;;;;;;;;
1455.0;1300.5;;;;-1.3048021;-0.011375428;-0.5010949;;;;;;;;;;;;;;;
1456.0;1301.3;;;;;;;;;;;;;;;;;-4.203925;56.707207;-121.292;;1215.8
1456.0;1301.3;;;;;;;;;;;;;;1.5938597;0.2679525;-0.26209295;;;;;1215.8
1456.0;1301.3;;;;;;;;;;;;;;;;;3.910184;55.73443;-113.02911;;1215.8
1456.0;1301.3;;;;;;;;;;;;;;1.5016937;0.34229562;-0.1993469;;;;;1215.8
1456.0;1301.3;;;;;;;;;;;;;;;;;9.529405;52.67495;-105.452896;;1225.4
1456.0;1301.3;;;;;;;;;;;;;;1.4405347;0.33295694;-0.18817712;;;;;1225.4
1456.0;1301.3;;;;;;;;;;;;;;;;;13.058107;50.035095;-98.635826;;1225.4
1456.0;1301.3;;;;;;;;;;;;;;1.4431592;0.43934447;-0.13672292;;;;;1225.4
1456.0;1301.3;;;;;;;;;;;;;;;;;14.587848;48.425247;-91.021454;;1235.1
1456.0;1301.3;;;;;;;;;;;;;;1.4332103;0.4964751;-0.107608266;;;;;1235.1
1456.0;1301.3;;;;;;;;;;;;;;;;;16.106144;43.96573;-83.52153;;1235.1
1456.0;1301.3;;;;;;;;;;;;;;1.455916;0.5297403;-0.12207404;;;;;1235.1
1456.0;1303.1;188576;188534;13125;;;;;;;;;;;;;;;;;;
1456.0;1310.5;;;;-1.300995;-0.0115852365;-0.49563986;;;;;;;;;;;;;;;
1456.0;1310.5;;;;-1.2961847;-0.011959078;-0.48912054;;;;;;;;;;;;;;;
1456.0;1310.5;;;;-1.2906419;-0.0117988605;-0.48037344;;;;;;;;;;;;;;;
1456.0;1310.5;;;;-1.2854768;-0.011508943;-0.4693871;;;;;;;;;;;;;;;
1456.0;1310.5;;;;-1.2803575;-0.010608674;-0.45810705;;;;;;;;;;;;;;;
1457.0;1315.1;;;;;;;;;;;;;;;;;17.818995;38.83862;-77.68105;;1244.6
1457.0;1315.1;;;;;;;;;;;;;;1.4897305;0.5691702;-0.12427137;;;;;1244.6
1457.0;1315.1;;;;;;;;;;;;;;;;;19.322033;30.785545;-74.007385;;1244.6
1457.0;1315.1;;;;;;;;;;;;;;1.5442976;0.6059755;-0.18524735;;;;;1244.6
1457.0;1315.1;;;;;;;;;;;;;;;;;21.09592;22.343363;-72.30216;;1254.3
1457.0;1315.1;;;;;;;;;;;;;;1.5963622;0.6797693;-0.2870571;;;;;1254.3
1457.0;1315.1;;;;;;;;;;;;;;;;;21.599476;14.442884;-71.50487;;1254.3
1457.0;1315.1;;;;;;;;;;;;;;1.6548967;0.7098605;-0.38831753;;;;;1254.3
1457.0;1315.1;;;;;;;;;;;;;;;;;21.450697;8.800775;-73.801384;;1263.9
1457.0;1315.1;;;;;;;;;;;;;;1.7021394;0.6994842;-0.40473646;;;;;1263.9
1457.0;1315.1;;;;;;;;;;;;;;;;;20.443586;6.5347757;-77.40639;;1263.9
1457.0;1315.1;;;;;;;;;;;;;;1.6649067;0.7107761;-0.4203009;;;;;1263.9
1457.0;1320.4;;;;-1.2760507;-0.009700776;-0.44764715;;;;;;;;;;;;;;;
1457.0;1320.4;;;;-1.2697641;-0.008026124;-0.43781286;;;;;;;;;;;;;;;
1457.0;1320.4;;;;-1.2613946;-0.006980897;-0.42971045;;;;;;;;;;;;;;;
1457.0;1320.4;;;;-1.2532007;-0.0065460214;-0.4227143;;;;;;;;;;;;;;;
1457.0;1320.4;;;;-1.2467576;-0.005886079;-0.41633612;;;;;;;;;;;;;;;
1457.0;1323.1;204922;204861;13130;;;;;;;;;;;;;;;;;;
1457.0;1329.3;;;;;;;;;;;;;-7820;;;;;;;;
1457.0;1329.3;;;;;;;;;;;;;-9031;;;;;;;;
1457.0;1329.3;;;;;;;;;;;;;-7455;;;;;;;;
1457.0;1329.3;;;;;;;;;;;;;-5348;;;;;;;;
1457.0;1329.3;;;;;;;;;;;;;-4534;;;;;;;;
1458.0;1330.3;;;;-1.2411386;-0.0061798105;-0.41035086;;;;;;;;;;;;;;;
1458.0;1330.3;;;;-1.2356263;-0.0068702707;-0.40489966;;;;;;;;;;;;;;;
1458.0;1330.3;;;;-1.2306672;-0.008129121;-0.39928824;;;;;;;;;;;;;;;
1458.0;1330.3;;;;-1.2281457;-0.0097084055;-0.394558;;;;;;;;;;;;;;;
1458.0;1330.3;;;;-1.225998;-0.0122146625;-0.38984686;;;;;;;;;;;;;;;
1458.0;1340.4;;;;-1.2238733;-0.015430452;-0.38489538;;;;;;;;;;;;;;;
1458.0;1340.4;;;;-1.2216111;-0.018749239;-0.3795281;;;;;;;;;;;;;;;
1458.0;1340.4;;;;-1.2179986;-0.020412447;-0.3752709;;;;;;;;;;;;;;;
1458.0;1340.4;;;;-1.2153741;-0.02256775;-0.3714867;;;;;;;;;;;;;;;
1458.0;1340.4;;;;-1.2138711;-0.02416611;-0.3673325;;;;;;;;;;;;;;;
1458.0;1343.2;221292;221355;13115;;;;;;;;;;;;;;;;;;
1458.0;1350.5;;;;-1.213257;-0.025840763;-0.36289218;;;;;;;;;;;;;;;
1458.0;1350.5;;;;-1.2125322;-0.027626041;-0.35906604;;;;;;;;;;;;;;;
1458.0;1350.5;;;;-1.2127954;-0.029373173;-0.3559952;;;;;;;;;;;;;;;
1458.0;1350.5;;;;-1.2125207;-0.032028202;-0.35273364;;;;;;;;;;;;;;;
1458.0;1350.5;;;;-1.2118226;-0.034599308;-0.34900287;;;;;;;;;;;;;;;
1459.0;1360.3;;;;;;;;;;;;;;;;;17.16666;7.099368;-81.724754;;1273.4
1459.0;1360.3;;;;;;;;;;;;;;1.57799;0.6685995;-0.37641528;;;;;1273.4
1459.0;1360.3;;;;;;;;;;;;;;;;;13.8363285;8.655812;-85.84476;;1273.4
1459.0;1360.3;;;;;;;;;;;;;;1.472457;0.61488694;-0.30414745;;;;;1273.4
1459.0;1360.3;;;;;;;;;;;;;;;;;10.391553;10.773034;-89.19034;;1283.0
1459.0;1360.3;;;;;;;;;;;;;;1.3566087;0.5595874;-0.20990631;;;;;1283.0
1459.0;1360.3;;;;;;;;;;;;;;;;;6.9505906;12.390514;-90.4416;;1283.0
1459.0;1360.3;;;;;;;;;;;;;;1.2568743;0.5043489;-0.13995789;;;;;1283.0
1459.0;1360.3;;;;;;;;;;;;;;;;;3.318888;14.366589;-89.50697;;1292.6
1459.0;1360.3;;;;;;;;;;;;;;1.1789911;0.46076846;-0.08337657;;;;;1292.6
1459.0;1360.3;;;;;;;;;;;;;;;;;-0.31662953;16.762293;-86.71453;;1292.6
1459.0;1360.3;;;;;;;;;;;;;;1.12125;0.42658773;-0.057313763;;;;;1292.6
1459.0;1360.5;;;;-1.2099534;-0.037342075;-0.3464699;;;;;;;;;;;;;;;
1459.0;1360.5;;;;-1.2064592;-0.039707188;-0.34473804;;;;;;;;;;;;;;;
1459.0;1360.5;;;;-1.2030832;-0.042774204;-0.3434792;;;;;;;;;;;;;;;
1459.0;1360.5;;;;-1.1996385;-0.04583359;-0.34224322;;;;;;;;;;;;;;;
1459.0;1360.5;;;;-1.1953279;-0.048568733;-0.34093478;;;;;;;;;;;;;;;
1459.0;1363.4;237708;237781;13117;;;;;;;;;;;;;;;;;;
1459.0;1369.7;;;;;;;;;;;;;-4596;;;;;;;;
1459.0;1369.7;;;;;;;;;;;;;-4581;;;;;;;;
1459.0;1369.7;;;;;;;;;;;;;-4029;;;;;;;;
1459.0;1369.7;;;;;;;;;;;;;-2549;;;;;;;;
1459.0;1369.7;;;;;;;;;;;;;-798;;;;;;;;
1460.0;1370.6;;;;-1.1904336;-0.051971443;-0.3412247;;;;;;;;;;;;;;;
1460.0;1370.6;;;;-1.1845781;-0.055027016;-0.34149173;;;;;;;;;;;;;;;
1460.0;1370.6;;;;-1.1778527;-0.057235725;-0.34043506;;;;;;;;;;;;;;;
1460.0;1370.6;;;;-1.169365;-0.060077675;-0.33960345;;;;;;;;;;;;;;;
1460.0;1370.6;;;;-1.1602174;-0.062026985;-0.33887103;;;;;;;;;;;;;;;
1460.0;1375.3;;;;;;;;;;;;;;;;;-3.4524064;19.436476;-82.60597;;1302.3
1460.0;1375.3;;;;;;;;;;;;;;1.0680867;0.38019958;-0.024719993;;;;;1302.3
1460.0;1375.3;;;;;;;;;;;;;;;;;-5.4857025;21.210365;-77.34154;;1302.3
1460.0;1375.3;;;;;;;;;;;;;;1.0160832;0.32935575;-0.006775109;;;;;1302.3
1460.0;1375.3;;;;;;;;;;;;;;;;;-5.9091463;22.785881;-72.01987;;1312.0
1460.0;1375.3;;;;;;;;;;;;;;0.9602344;0.2781457;0.0076906644;;;;;1312.0
1460.0;1375.3;;;;;;;;;;;;;;;;;-5.447554;23.316141;-66.88132;;1312.0
1460.0;1375.3;;;;;;;;;;;;;;0.90792567;0.24213386;0.012756737;;;;;1312.0
1460.0;1375.3;;;;;;;;;;;;;;;;;-4.280221;23.567919;-61.929684;;1321.5
1460.0;1375.3;;;;;;;;;;;;;;0.85763115;0.227546;0.01843318;;;;;1321.5
1460.0;1375.3;;;;;;;;;;;;;;;;;-2.3842587;23.216955;-57.13065;;1321.5
1460.0;1375.3;;;;;;;;;;;;;;0.819422;0.22589801;0.010010071;;;;;1321.5
1460.0;1380.5;;;;-1.1511766;-0.06445695;-0.33860782;;;;;;;;;;;;;;;
1460.0;1380.5;;;;-1.1429063;-0.066940315;-0.33811954;;;;;;;;;;;;;;;
1460.0;1380.5;;;;-1.1352006;-0.06884766;-0.33734515;;;;;;;;;;;;;;;
1460.0;1380.5;;;;-1.1281549;-0.07048798;-0.336422;;;;;;;;;;;;;;;
1460.0;1380.5;;;;-1.1209756;-0.072471626;-0.33866885;;;;;;;;;;;;;;;
1460.0;1383.4;254072;254094;13126;;;;;;;;;;;;;;;;;;
1501.0;1390.4;;;;-1.1139375;-0.07528306;-0.34183505;;;;;;;;;;;;;;;
1501.0;1390.4;;;;-1.1053163;-0.078594215;-0.3442383;;;;;;;;;;;;;;;
1501.0;1390.4;;;;-1.0935365;-0.07931519;-0.3463364;;;;;;;;;;;;;;;
1501.0;1390.4;;;;-1.0824014;-0.08005906;-0.34956363;;;;;;;;;;;;;;;
1501.0;1390.4;;;;-1.0731927;-0.08037949;-0.35250095;;;;;;;;;;;;;;;
1501.0;1400.1;;;;-1.0657464;-0.0786934;-0.35485843;;;;;;;;;;;;;;;
1501.0;1400.1;;;;-1.0590364;-0.0768776;-0.3560982;;;;;;;;;;;;;;;
1501.0;1400.1;;;;-1.0533296;-0.0752678;-0.35610965;;;;;;;;;;;;;;;
1501.0;1400.1;;;;-1.0477754;-0.072616585;-0.3564072;;;;;;;;;;;;;;;
1501.0;1400.1;;;;-1.0422136;-0.07057191;-0.35823825;;;;;;;;;;;;;;;
1501.0;1403.0;262143;262143;13121;;;;;;;;;;;;;;;;;;
1501.0;1409.3;;;;;;;;;;;;;50;;;;;;;;
1501.0;1409.3;;;;;;;;;;;;;-249;;;;;;;;
1501.0;1409.3;;;;;;;;;;;;;-1295;;;;;;;;
1501.0;1409.3;;;;;;;;;;;;;-2567;;;;;;;;
1501.0;1409.3;;;;;;;;;;;;;-3611;;;;;;;;
1501.0;1410.2;;;;-1.0378572;-0.068637855;-0.3594437;;;;;;;;;;;;;;;
1501.0;1410.2;;;;-1.033127;-0.06589509;-0.3605347;;;;;;;;;;;;;;;
1501.0;1410.2;;;;-1.0280038;-0.06314469;-0.362484;;;;;;;;;;;;;;;
1501.0;1410.2;;;;-1.021885;-0.060825355;-0.36523822;;;;;;;;;;;;;;;
1501.0;1410.2;;;;-1.0161821;-0.058486946;-0.36783984;;;;;;;;;;;;;;;
1503.0;1420.0;;;;;;;;;;;;;;;;;0.16022217;22.888882;-52.095097;;1331.1
1503.0;1420.0;;;;;;;;;;;;;;0.7879879;0.21875668;-0.0014648885;;;;;1331.1
1503.0;1420.0;;;;;;;;;;;;;;;;;3.3684807;22.995697;-47.26554;;1331.1
1503.0;1420.0;;;;;;;;;;;;;;0.75392926;0.23706779;0.0046998505;;;;;1331.1
1503.0;1420.0;;;;;;;;;;;;;;;;;6.187628;21.916105;-42.336803;;1340.7
1503.0;1420.0;;;;;;;;;;;;;;0.7414167;0.26490065;9.765923E-4;;;;;1340.7
1503.0;1420.0;;;;;;;;;;;;;;;;;8.472701;21.298105;-37.507248;;1340.7
1503.0;1420.0;;;;;;;;;;;;;;0.7347026;0.27491075;-0.010498367;;;;;1340.7
1503.0;1420.0;;;;;;;;;;;;;;;;;11.242255;21.00055;-32.124546;;1350.3
1503.0;1420.0;;;;;;;;;;;;;;0.7334819;0.30005798;-0.013122959;;;;;1350.3
1503.0;1420.0;;;;;;;;;;;;;;;;;13.275552;20.954771;-26.978363;;1350.3
1503.0;1420.0;;;;;;;;;;;;;;0.7341533;0.33509323;-0.00286874;;;;;1350.3
1503.0;1420.1;;;;-1.0081598;-0.055953987;-0.36910632;;;;;;;;;;;;;;;
1503.0;1420.1;;;;-1.0014955;-0.054927833;-0.36989596;;;;;;;;;;;;;;;
1503.0;1420.1;;;;-0.995247;-0.05321122;-0.37005237;;;;;;;;;;;;;;;
1503.0;1420.1;;;;-0.98915875;-0.051769264;-0.3712807;;;;;;;;;;;;;;;
1503.0;1420.1;;;;-0.9815484;-0.05041123;-0.37066272;;;;;;;;;;;;;;;
1503.0;1423.1;262143;262143;13105;;;;;;;;;;;;;;;;;;
1503.0;1430.2;;;;-0.97176754;-0.048393257;-0.36781314;;;;;;;;;;;;;;;
1503.0;1430.2;;;;-0.9606744;-0.046680454;-0.36459735;;;;;;;;;;;;;;;
1503.0;1430.2;;;;-0.9487344;-0.045211796;-0.36132053;;;;;;;;;;;;;;;
1503.0;1430.2;;;;-0.9385644;-0.04328919;-0.3574715;;;;;;;;;;;;;;;
1503.0;1430.2;;;;-0.9307023;-0.041427616;-0.3533173;;;;;;;;;;;;;;;
1562.0;1435.0;;;;;;;;;;;;;;;;;14.488663;22.179325;-22.659992;;1360.0
1562.0;1435.0;;;;;;;;;;;;;;0.72798854;0.3598132;0.0050660726;;;;;1360.0
1562.0;1435.0;;;;;;;;;;;;;;;;;15.25544;23.308512;-18.402662;;1360.0
1562.0;1435.0;;;;;;;;;;;;;;0.71883297;0.3937498;0.018189032;;;;;1360.0
1562.0;1435.0;;;;;;;;;;;;;;;;;15.602588;24.098179;-14.0957365;;1369.6
1562.0;1435.0;;;;;;;;;;;;;;0.7249977;0.41505173;0.018555254;;;;;1369.6
1562.0;1435.0;;;;;;;;;;;;;;;;;15.545365;25.719473;-9.5675535;;1369.6
1562.0;1435.0;;;;;;;;;;;;;;0.7352519;0.44007692;0.015991699;;;;;1369.6
1562.0;1435.0;;;;;;;;;;;;;;;;;15.503403;28.691214;-5.0889616;;1379.3
1562.0;1435.0;;;;;;;;;;;;;;0.7220069;0.46504104;0.03216651;;;;;1379.3
1562.0;1435.0;;;;;;;;;;;;;;;;;15.114291;30.70925;-0.59511095;;1379.3
1562.0;1435.0;;;;;;;;;;;;;;0.7129124;0.47688222;0.041016877;;;;;1379.3
1562.0;1440.1;;;;-0.924698;-0.04100037;-0.34790042;;;;;;;;;;;;;;;
1562.0;1440.1;;;;-0.91879284;-0.040401462;-0.34152988;;;;;;;;;;;;;;;
1562.0;1440.1;;;;-0.9129144;-0.040344242;-0.33649448;;;;;;;;;;;;;;;
1562.0;1440.1;;;;-0.904812;-0.040142063;-0.33139804;;;;;;;;;;;;;;;
1562.0;1440.1;;;;-0.89595044;-0.040485386;-0.3258591;;;;;;;;;;;;;;;
1562.0;1443.1;262143;262143;13108;;;;;;;;;;;;;;;;;;
1562.0;1449.3;;;;;;;;;;;;;-4138;;;;;;;;
1562.0;1449.3;;;;;;;;;;;;;-4011;;;;;;;;
1562.0;1449.3;;;;;;;;;;;;;-3349;;;;;;;;
1562.0;1449.3;;;;;;;;;;;;;-2464;;;;;;;;
1562.0;1449.3;;;;;;;;;;;;;-1652;;;;;;;;
1564.0;1449.9;;;;-0.8861009;-0.040672306;-0.3202286;;;;;;;;;;;;;;;
1564.0;1449.9;;;;-0.87497723;-0.04044724;-0.31405643;;;;;;;;;;;;;;;
1564.0;1449.9;;;;-0.8624269;-0.039623264;-0.30973056;;;;;;;;;;;;;;;
1564.0;1449.9;;;;-0.8497201;-0.03938294;-0.3064156;;;;;;;;;;;;;;;
1564.0;1449.9;;;;-0.8369142;-0.038948063;-0.30199817;;;;;;;;;;;;;;;
1564.0;1460.1;;;;-0.823166;-0.037261967;-0.29691318;;;;;;;;;;;;;;;
1564.0;1460.1;;;;-0.81069195;-0.03671265;-0.29327396;;;;;;;;;;;;;;;
1564.0;1460.1;;;;-0.7972642;-0.034645084;-0.28802875;;;;;;;;;;;;;;;
1564.0;1460.1;;;;-0.78683865;-0.034019474;-0.28276065;;;;;;;;;;;;;;;
1564.0;1460.1;;;;-0.7784349;-0.036140446;-0.2798958;;;;;;;;;;;;;;;
1564.0;1463.2;262143;262143;13109;;;;;;;;;;;;;;;;;;
1564.0;1470.2;;;;-0.76949704;-0.0384903;-0.27551273;;;;;;;;;;;;;;;
1564.0;1470.2;;;;-0.7621232;-0.042400364;-0.27142337;;;;;;;;;;;;;;;
1564.0;1470.2;;;;-0.7517892;-0.04416657;-0.26797488;;;;;;;;;;;;;;;
1564.0;1470.2;;;;-0.7445641;-0.046810154;-0.26578525;;;;;;;;;;;;;;;
1564.0;1470.2;;;;-0.7385865;-0.050086983;-0.26437762;;;;;;;;;;;;;;;
1565.0;1480.3;;;;;;;;;;;;;;;;;14.84344;32.170326;3.707999;;1389.0
1565.0;1480.3;;;;;;;;;;;;;;0.6903897;0.4693747;0.04052858;;;;;1389.0
1565.0;1480.3;;;;;;;;;;;;;;;;;15.133366;32.963806;7.721183;;1389.0
1565.0;1480.3;;;;;;;;;;;;;;0.657857;0.4644307;0.038453322;;;;;1389.0
1565.0;1480.3;;;;;;;;;;;;;;;;;16.121403;31.971954;11.417737;;1398.7
1565.0;1480.3;;;;;;;;;;;;;;0.62349313;0.43995485;0.014038514;;;;;1398.7
1565.0;1480.3;;;;;;;;;;;;;;;;;17.983032;29.793695;14.4543295;;1398.7
1565.0;1480.3;;;;;;;;;;;;;;0.5868709;0.39796138;-0.028077029;;;;;1398.7
1565.0;1480.3;;;;;;;;;;;;;;;;;20.18418;27.703176;16.617329;;1408.3
1565.0;1480.3;;;;;;;;;;;;;;0.5514084;0.34339428;-0.043397322;;;;;1408.3
1565.0;1480.3;;;;;;;;;;;;;;;;;21.992401;25.77288;18.528551;;1408.3
1565.0;1480.3;;;;;;;;;;;;;;0.5261391;0.28193;-0.049195837;;;;;1408.3
1565.0;1480.2;;;;-0.7327576;-0.05313874;-0.26140597;;;;;;;;;;;;;;;
1565.0;1480.2;;;;-0.72710043;-0.056018837;-0.25979236;;;;;;;;;;;;;;;
1565.0;1480.2;;;;-0.7205277;-0.05872727;-0.25851443;;;;;;;;;;;;;;;
1565.0;1480.2;;;;-0.7123566;-0.05945588;-0.2563248;;;;;;;;;;;;;;;
1565.0;1480.2;;;;-0.7058068;-0.060234077;-0.25405124;;;;;;;;;;;;;;;
1565.0;1483.3;262143;262143;13116;;;;;;;;;;;;;;;;;;
1566.0;1487.7;;;;;;;;;;;;;;;;;23.697622;24.426252;20.48555;;1417.8
1566.0;1487.7;;;;;;;;;;;;;;0.5019074;0.22626422;-0.040406507;;;;;1417.8
1566.0;1487.7;;;;;;;;;;;;;;;;;25.421919;22.457808;22.7134;;1417.8
1566.0;1487.7;;;;;;;;;;;;;;0.49171424;0.16962187;-0.041322064;;;;;1417.8
1566.0;1487.7;;;;;;;;;;;;;;;;;28.187658;20.87466;24.929806;;1427.5
1566.0;1487.7;;;;;;;;;;;;;;0.4773095;0.14398633;-0.036378063;;;;;1427.5
1566.0;1487.7;;;;;;;;;;;;;;;;;31.357769;18.726921;27.378918;;1427.5
1566.0;1487.7;;;;;;;;;;;;;;0.47413558;0.13129063;-0.034485918;;;;;1427.5
1566.0;1487.7;;;;;;;;;;;;;;;;;34.45158;16.270182;30.209509;;1437.1
1566.0;1487.7;;;;;;;;;;;;;;0.48609883;0.124210335;-0.039063692;;;;;1437.1
1566.0;1487.7;;;;;;;;;;;;;;;;;37.24784;14.076662;33.452103;;1437.1
1566.0;1487.7;;;;;;;;;;;;;;0.48951688;0.10467849;-0.059511095;;;;;1437.1
1566.0;1489.5;;;;;;;;;;;;;-1172;;;;;;;;
1566.0;1489.5;;;;;;;;;;;;;-1109;;;;;;;;
1566.0;1489.5;;;;;;;;;;;;;-1170;;;;;;;;
1566.0;1489.5;;;;;;;;;;;;;-1016;;;;;;;;
1566.0;1489.5;;;;;;;;;;;;;-773;;;;;;;;
1566.0;1490.2;;;;-0.7000962;-0.06262589;-0.25277713;;;;;;;;;;;;;;;
1566.0;1490.2;;;;-0.694645;-0.06427384;-0.2508202;;;;;;;;;;;;;;;
1566.0;1490.2;;;;-0.68980414;-0.06686402;-0.248642;;;;;;;;;;;;;;;
1566.0;1490.2;;;;-0.68640524;-0.069824226;-0.2479935;;;;;;;;;;;;;;;
1566.0;1490.2;;;;-0.6832238;-0.07288361;-0.24884799;;;;;;;;;;;;;;;
1623.0;1500.2;;;;-0.6791001;-0.07642365;-0.249836;;;;;;;;;;;;;;;
1623.0;1500.2;;;;-0.67519003;-0.078960426;-0.24985889;;;;;;;;;;;;;;;
1623.0;1500.2;;;;-0.6739617;-0.08288575;-0.25029376;;;;;;;;;;;;;;;
1623.0;1500.2;;;;-0.67345434;-0.086284645;-0.25016788;;;;;;;;;;;;;;;
1623.0;1500.2;;;;-0.6712647;-0.08971406;-0.2503052;;;;;;;;;;;;;;;
1623.0;1503.4;262143;262143;13112;;;;;;;;;;;;;;;;;;
1623.0;1510.1;;;;-0.6675492;-0.09313203;-0.24975207;;;;;;;;;;;;;;;
1623.0;1510.1;;;;-0.6630898;-0.09402467;-0.24900058;;;;;;;;;;;;;;;
1623.0;1510.1;;;;-0.6598359;-0.0954857;-0.24874118;;;;;;;;;;;;;;;
1623.0;1510.1;;;;-0.6582566;-0.09719087;-0.24839404;;;;;;;;;;;;;;;
1623.0;1510.1;;;;-0.6580048;-0.098590866;-0.24842456;;;;;;;;;;;;;;;
1623.0;1520.0;;;;-0.659298;-0.09957506;-0.24843982;;;;;;;;;;;;;;;
1623.0;1520.0;;;;-0.66099936;-0.101512924;-0.24871448;;;;;;;;;;;;;;;
1623.0;1520.0;;;;-0.662674;-0.104145065;-0.2490845;;;;;;;;;;;;;;;
1623.0;1520.0;;;;-0.66392523;-0.10710527;-0.24895099;;;;;;;;;;;;;;;
1623.0;1520.0;;;;-0.6647263;-0.10985948;-0.24972156;;;;;;;;;;;;;;;
1623.0;1523.3;262143;262143;13101;;;;;;;;;;;;;;;;;;
1623.0;1529.6;;;;;;;;;;;;;-801;;;;;;;;
1623.0;1529.6;;;;;;;;;;;;;-1065;;;;;;;;
1623.0;1529.6;;;;;;;;;;;;;-1343;;;;;;;;
1623.0;1529.6;;;;;;;;;;;;;-1537;;;;;;;;
1623.0;1529.6;;;;;;;;;;;;;-1715;;;;;;;;
1626.0;1530.2;;;;-0.6644288;-0.111770645;-0.25115588;;;;;;;;;;;;;;;
1626.0;1530.2;;;;-0.66403586;-0.113582626;-0.2531357;;;;;;;;;;;;;;;
1626.0;1530.2;;;;-0.6640397;-0.11515428;-0.2546158;;;;;;;;;;;;;;;
1626.0;1530.2;;;;-0.66535574;-0.11714174;-0.25618747;;;;;;;;;;;;;;;
1626.0;1530.2;;;;-0.66551214;-0.11787416;-0.25706485;;;;;;;;;;;;;;;
1626.0;1540.4;;;;;;;;;;;;;;;;;40.303505;11.986145;36.488693;;1446.7
1626.0;1540.4;;;;;;;;;;;;;;0.4760277;0.08026368;-0.07739494;;;;;1446.7
1626.0;1540.4;;;;;;;;;;;;;;;;;43.8551;8.472701;39.536728;;1446.7
1626.0;1540.4;;;;;;;;;;;;;;0.46845913;0.06433302;-0.10309152;;;;;1446.7
1626.0;1540.4;;;;;;;;;;;;;;;;;47.868282;5.00885;42.329174;;1456.4
1626.0;1540.4;;;;;;;;;;;;;;0.46882534;0.046449173;-0.11609241;;;;;1456.4
1626.0;1540.4;;;;;;;;;;;;;;;;;52.056946;2.498703;45.098724;;1456.4
1626.0;1540.4;;;;;;;;;;;;;;0.47029024;0.039185766;-0.11084323;;;;;1456.4
1626.0;1540.4;;;;;;;;;;;;;;;;;56.348614;1.0299997;47.688988;;1466.1
1626.0;1540.4;;;;;;;;;;;;;;0.45399335;0.013611255;-0.09485153;;;;;1466.1
1626.0;1540.4;;;;;;;;;;;;;;;;;61.13239;-0.6370739;49.840538;;1466.1
1626.0;1540.4;;;;;;;;;;;;;;0.43256935;-0.014099551;-0.103152566;;;;;1466.1
1626.0;1540.2;;;;-0.6662865;-0.11936189;-0.25733188;;;;;;;;;;;;;;;
1626.0;1540.2;;;;-0.66719824;-0.12106325;-0.2580681;;;;;;;;;;;;;;;
1626.0;1540.2;;;;-0.6686936;-0.12233354;-0.2589455;;;;;;;;;;;;;;;
1626.0;1540.2;;;;-0.67210776;-0.122871414;-0.2605591;;;;;;;;;;;;;;;
1626.0;1540.2;;;;-0.67763525;-0.12405397;-0.2624245;;;;;;;;;;;;;;;
1626.0;1543.5;262143;262143;13117;;;;;;;;;;;;;;;;;;
1682.0;1548.1;;;;;;;;;;;;;;;;;66.976685;-2.277444;51.625874;;1475.8
1682.0;1548.1;;;;;;;;;;;;;;0.4149907;-0.049806207;-0.11383404;;;;;1475.8
1682.0;1548.1;;;;;;;;;;;;;;;;;74.65591;-3.3417768;53.35017;;1475.8
1682.0;1548.1;;;;;;;;;;;;;;0.37287515;-0.05780206;-0.114200264;;;;;1475.8
1682.0;1548.1;;;;;;;;;;;;;;;;;82.93405;-7.3664055;55.711536;;1485.4
1682.0;1548.1;;;;;;;;;;;;;;0.35572374;-0.015930662;-0.10565508;;;;;1485.4
1682.0;1548.1;;;;;;;;;;;;;;;;;90.34623;-13.367107;58.923615;;1485.4
1682.0;1548.1;;;;;;;;;;;;;;0.36616108;0.050965913;-0.099612415;;;;;1485.4
1682.0;1548.1;;;;;;;;;;;;;;;;;95.393234;-18.711662;63.024536;;1495.1
1682.0;1548.1;;;;;;;;;;;;;;0.3998535;0.15076144;-0.0756859;;;;;1495.1
1682.0;1548.1;;;;;;;;;;;;;;;;;96.842865;-21.961884;68.42249;;1495.1
1682.0;1548.1;;;;;;;;;;;;;;0.43971068;0.25775933;-0.06805628;;;;;1495.1
1682.0;1550.1;;;;-0.6833344;-0.12537767;-0.264267;;;;;;;;;;;;;;;
1682.0;1550.1;;;;-0.6881524;-0.1263199;-0.26719669;;;;;;;;;;;;;;;
1682.0;1550.1;;;;-0.6915818;-0.12772752;-0.27035144;;;;;;;;;;;;;;;
1682.0;1550.1;;;;-0.69482046;-0.12965395;-0.27415088;;;;;;;;;;;;;;;
1682.0;1550.1;;;;-0.69627005;-0.1307564;-0.27713397;;;;;;;;;;;;;;;
1682.0;1560.0;;;;-0.6963654;-0.1317711;-0.27980426;;;;;;;;;;;;;;;
1682.0;1560.0;;;;-0.6961213;-0.13222887;-0.28190234;;;;;;;;;;;;;;;
1682.0;1560.0;;;;-0.69630057;-0.1329384;-0.2840996;;;;;;;;;;;;;;;
1682.0;1560.0;;;;-0.6976395;-0.13383867;-0.28606418;;;;;;;;;;;;;;;
1682.0;1560.0;;;;-0.6985436;-0.13323213;-0.2880173;;;;;;;;;;;;;;;
1682.0;1563.4;262143;262143;13104;;;;;;;;;;;;;;;;;;
1686.0;1569.5;;;;;;;;;;;;;-1870;;;;;;;;
1686.0;1569.5;;;;;;;;;;;;;-1710;;;;;;;;
1686.0;1569.5;;;;;;;;;;;;;-1027;;;;;;;;
1686.0;1569.5;;;;;;;;;;;;;-118;;;;;;;;
1686.0;1569.5;;;;;;;;;;;;;444;;;;;;;;
1686.0;1569.9;;;;-0.7001763;-0.13359834;-0.29002002;;;;;;;;;;;;;;;
1686.0;1569.9;;;;-0.7027665;-0.13440324;-0.29290012;;;;;;;;;;;;;;;
1686.0;1569.9;;;;-0.7062836;-0.1356888;-0.2961693;;;;;;;;;;;;;;;
1686.0;1569.9;;;;-0.70992666;-0.13699342;-0.29846576;;;;;;;;;;;;;;;
1686.0;1569.9;;;;-0.7131844;-0.13832094;-0.3002167;;;;;;;;;;;;;;;
1686.0;1580.0;;;;-0.7151452;-0.13955308;-0.30096057;;;;;;;;;;;;;;;
1686.0;1580.0;;;;-0.717392;-0.14070131;-0.30155566;;;;;;;;;;;;;;;
1686.0;1580.0;;;;-0.7190476;-0.14206316;-0.30279163;;;;;;;;;;;;;;;
1686.0;1580.0;;;;-0.7199784;-0.14304735;-0.30474094;;;;;;;;;;;;;;;
1686.0;1580.0;;;;-0.7204247;-0.1444359;-0.30607226;;;;;;;;;;;;;;;
1686.0;1583.4;262143;262143;13108;;;;;;;;;;;;;;;;;;
1686.0;1590.2;;;;-0.7199326;-0.14510728;-0.30704883;;;;;;;;;;;;;;;
1686.0;1590.2;;;;-0.71864706;-0.14544298;-0.30756;;;;;;;;;;;;;;;
1686.0;1590.2;;;;-0.71744543;-0.14556505;-0.3092194;;;;;;;;;;;;;;;
1686.0;1590.2;;;;-0.7174874;-0.14557268;-0.31164935;;;;;;;;;;;;;;;
1686.0;1590.2;;;;-0.71771246;-0.14530946;-0.31401446;;;;;;;;;;;;;;;
1687.0;1600.5;;;;;;;;;;;;;;;;;94.96597;-21.683401;73.7022;;1504.7
1687.0;1600.5;;;;;;;;;;;;;;0.4623554;0.36414686;-0.06750695;;;;;1504.7
1687.0;1600.5;;;;;;;;;;;;;;;;;89.4879;-19.184698;78.3372;;1504.7
1687.0;1600.5;;;;;;;;;;;;;;0.49427778;0.45338297;-0.07538072;;;;;1504.7
1687.0;1600.5;;;;;;;;;;;;;;;;;81.70568;-13.988921;81.71331;;1514.3
1687.0;1600.5;;;;;;;;;;;;;;0.50361645;0.5402997;-0.060670797;;;;;1514.3
1687.0;1600.5;;;;;;;;;;;;;;;;;72.500534;-10.0177;84.19294;;1514.3
1687.0;1600.5;;;;;;;;;;;;;;0.5215613;0.60731834;-0.06201361;;;;;1514.3
1687.0;1600.5;;;;;;;;;;;;;;;;;64.69924;-6.8132577;84.83764;;1524.0
1687.0;1600.5;;;;;;;;;;;;;;0.5381634;0.68318737;-0.058290355;;;;;1524.0
1687.0;1600.5;;;;;;;;;;;;;;;;;59.30128;-5.123295;83.452866;;1524.0
1687.0;1600.5;;;;;;;;;;;;;;0.5349895;0.7487411;-0.07367168;;;;;1524.0
1687.0;1600.3;;;;-0.71975714;-0.14522554;-0.3166695;;;;;;;;;;;;;;;
1687.0;1600.3;;;;-0.723301;-0.14503862;-0.31971362;;;;;;;;;;;;;;;
1687.0;1600.3;;;;-0.72720724;-0.14469148;-0.32391742;;;;;;;;;;;;;;;
1687.0;1600.3;;;;-0.73136526;-0.14466478;-0.32836917;;;;;;;;;;;;;;;
1687.0;1600.3;;;;-0.7353516;-0.14451982;-0.33223727;;;;;;;;;;;;;;;
1687.0;1603.6;262143;262143;13110;;;;;;;;;;;;;;;;;;
1688.0;1607.9;;;;;;;;;;;;;;;;;57.000946;-5.8709984;80.41245;;1533.7
1688.0;1607.9;;;;;;;;;;;;;;0.5395062;0.7903684;-0.119083226;;;;;1533.7
1688.0;1607.9;;;;;;;;;;;;;;;;;57.046722;-7.675405;76.33443;;1533.7
1688.0;1607.9;;;;;;;;;;;;;;0.5446333;0.7985473;-0.15796381;;;;;1533.7
1688.0;1607.9;;;;;;;;;;;;;;;;;59.125797;-11.329996;71.67272;;1543.3
1688.0;1607.9;;;;;;;;;;;;;;0.5546434;0.79512924;-0.21259193;;;;;1543.3
1688.0;1607.9;;;;;;;;;;;;;;;;;61.490982;-14.923552;66.42354;;1543.3
1688.0;1607.9;;;;;;;;;;;;;;0.55653554;0.8204596;-0.22766808;;;;;1543.3
1688.0;1607.9;;;;;;;;;;;;;;;;;61.311684;-20.363476;61.254463;;1552.9
1688.0;1607.9;;;;;;;;;;;;;;0.58857995;0.82808924;-0.26545;;;;;1552.9
1688.0;1607.9;;;;;;;;;;;;;;;;;57.992798;-24.506365;57.096317;;1552.9
1688.0;1607.9;;;;;;;;;;;;;;0.63753164;0.8071535;-0.2992645;;;;;1552.9
1688.0;1609.7;;;;;;;;;;;;;621;;;;;;;;
1688.0;1609.7;;;;;;;;;;;;;802;;;;;;;;
1688.0;1609.7;;;;;;;;;;;;;874;;;;;;;;
1688.0;1609.7;;;;;;;;;;;;;547;;;;;;;;
1688.0;1609.7;;;;;;;;;;;;;360;;;;;;;;
1688.0;1610.2;;;;-0.73805624;-0.14364244;-0.33478168;;;;;;;;;;;;;;;
1688.0;1610.2;;;;-0.7403222;-0.14331438;-0.33752444;;;;;;;;;;;;;;;
1688.0;1610.2;;;;-0.74135214;-0.14276887;-0.3394051;;;;;;;;;;;;;;;
1688.0;1610.2;;;;-0.74174887;-0.14274599;-0.3413582;;;;;;;;;;;;;;;
1688.0;1610.2;;;;-0.7417336;-0.14256288;-0.34287646;;;;;;;;;;;;;;;
1742.0;1620.1;;;;-0.7405396;-0.14261629;-0.34507754;;;;;;;;;;;;;;;
1742.0;1620.1;;;;-0.7385598;-0.14315416;-0.3474045;;;;;;;;;;;;;;;
1742.0;1620.1;;;;-0.7350617;-0.14437105;-0.34967425;;;;;;;;;;;;;;;
1742.0;1620.1;;;;-0.73099905;-0.14559557;-0.35081485;;;;;;;;;;;;;;;
1742.0;1620.1;;;;-0.72614294;-0.14644243;-0.3504868;;;;;;;;;;;;;;;
1742.0;1623.6;262143;262143;13117;;;;;;;;;;;;;;;;;;
1742.0;1630.1;;;;-0.722271;-0.14730836;-0.34997943;;;;;;;;;;;;;;;
1742.0;1630.1;;;;-0.7208939;-0.14854433;-0.3514519;;;;;;;;;;;;;;;
1742.0;1630.1;;;;-0.7192231;-0.14980318;-0.353138;;;;;;;;;;;;;;;
1742.0;1630.1;;;;-0.71857077;-0.15079118;-0.35585406;;;;;;;;;;;;;;;
1742.0;1630.1;;;;-0.7173348;-0.15136339;-0.3564377;;;;;;;;;;;;;;;
1742.0;1640.1;;;;-0.71550375;-0.15059282;-0.35653308;;;;;;;;;;;;;;;
1742.0;1640.1;;;;-0.7143517;-0.14971925;-0.35585025;;;;;;;;;;;;;;;
1742.0;1640.1;;;;-0.71625143;-0.1502495;-0.3560982;;;;;;;;;;;;;;;
1742.0;1640.1;;;;-0.7172776;-0.15053941;-0.3553963;;;;;;;;;;;;;;;
1742.0;1640.1;;;;-0.7185059;-0.15216829;-0.3555031;;;;;;;;;;;;;;;
1742.0;1643.6;262143;262143;13112;;;;;;;;;;;;;;;;;;
1742.0;1649.9;;;;;;;;;;;;;1570;;;;;;;;
1742.0;1649.9;;;;;;;;;;;;;3616;;;;;;;;
1742.0;1649.9;;;;;;;;;;;;;981;;;;;;;;
1742.0;1649.9;;;;;;;;;;;;;-11124;;;;;;;;
1742.0;1649.9;;;;;;;;;;;;;-26195;;;;;;;;
1745.0;1650.2;;;;-0.7193337;-0.15402605;-0.3566399;;;;;;;;;;;;;;;
1745.0;1650.2;;;;-0.7200051;-0.15610124;-0.35731128;;;;;;;;;;;;;;;
1745.0;1650.2;;;;-0.7219506;-0.1578827;-0.35657886;;;;;;;;;;;;;;;
1745.0;1650.2;;;;-0.7252732;-0.15970613;-0.3555489;;;;;;;;;;;;;;;
1745.0;1650.2;;;;-0.7286683;-0.16100694;-0.35367206;;;;;;;;;;;;;;;
1745.0;1660.3;;;;-0.7320519;-0.16185762;-0.35229877;;;;;;;;;;;;;;;
1745.0;1660.3;;;;-0.73382574;-0.16306688;-0.35055164;;;;;;;;;;;;;;;
1745.0;1660.3;;;;-0.73455054;-0.16339494;-0.3484421;;;;;;;;;;;;;;;
1745.0;1660.3;;;;-0.73449713;-0.16386415;-0.34611514;;;;;;;;;;;;;;;
1745.0;1660.3;;;;-0.7340546;-0.1639824;-0.34269336;;;;;;;;;;;;;;;
1745.0;1660.7;;;;;;;;;;;;;;;;;50.83239;-26.799067;54.383987;;1562.5
1745.0;1660.7;;;;;;;;;;;;;;0.695822;0.78347117;-0.31592762;;;;;1562.5
1745.0;1660.7;;;;;;;;;;;;;;;;;41.074097;-26.825771;53.575245;;1562.5
1745.0;1660.7;;;;;;;;;;;;;;0.74330884;0.74581134;-0.31232643;;;;;1562.5
1745.0;1660.7;;;;;;;;;;;;;;;;;30.667286;-26.12003;54.227577;;1572.2
1745.0;1660.7;;;;;;;;;;;;;;0.7876827;0.70851773;-0.30726036;;;;;1572.2
1745.0;1660.7;;;;;;;;;;;;;;;;;21.286661;-26.062807;55.25376;;1572.2
1745.0;1660.7;;;;;;;;;;;;;;0.8180792;0.69142735;-0.28962067;;;;;1572.2
1745.0;1660.7;;;;;;;;;;;;;;;;;13.054293;-26.51677;55.82598;;1581.8
1745.0;1660.7;;;;;;;;;;;;;;0.8417005;0.659505;-0.28254035;;;;;1581.8
1745.0;1660.7;;;;;;;;;;;;;;;;;8.331553;-27.092808;55.425426;;1581.8
1745.0;1660.7;;;;;;;;;;;;;;0.8235725;0.59096044;-0.2757042;;;;;1581.8
1745.0;1663.8;262143;262143;13108;;;;;;;;;;;;;;;;;;
1802.0;1668.5;;;;;;;;;;;;;;;;;7.89285;-31.00299;54.074986;;1591.5
1802.0;1668.5;;;;;;;;;;;;;;0.8197272;0.51350445;-0.27161473;;;;;1591.5
1802.0;1668.5;;;;;;;;;;;;;;;;;10.74633;-34.218876;52.575764;;1591.5
1802.0;1668.5;;;;;;;;;;;;;;0.7989746;0.44404432;-0.25543994;;;;;1591.5
1802.0;1668.5;;;;;;;;;;;;;;;;;15.224921;-36.854916;50.847652;;1601.2
1802.0;1668.5;;;;;;;;;;;;;;0.7806635;0.38892788;-0.2229072;;;;;1601.2
1802.0;1668.5;;;;;;;;;;;;;;;;;20.07355;-39.13236;49.176765;;1601.2
1802.0;1668.5;;;;;;;;;;;;;;0.76870024;0.3535264;-0.18463698;;;;;1601.2
1802.0;1668.5;;;;;;;;;;;;;;;;;24.99466;-40.532394;47.753838;;1610.8
1802.0;1668.5;;;;;;;;;;;;;;0.73641163;0.30677205;-0.15637684;;;;;1610.8
1802.0;1668.5;;;;;;;;;;;;;;;;;30.468916;-41.99347;45.556503;;1610.8
1802.0;1668.5;;;;;;;;;;;;;;0.69844663;0.28998688;-0.15594958;;;;;1610.8
1802.0;1670.2;;;;-0.7339135;-0.16458513;-0.34014514;;;;;;;;;;;;;;;
1802.0;1670.2;;;;-0.7345391;-0.16550066;-0.33662036;;;;;;;;;;;;;;;
1802.0;1670.2;;;;-0.7364388;-0.16704942;-0.33195117;;;;;;;;;;;;;;;
1802.0;1670.2;;;;-0.73878485;-0.16875459;-0.32791904;;;;;;;;;;;;;;;
1802.0;1670.2;;;;-0.74168783;-0.1699753;-0.32501224;;;;;;;;;;;;;;;
1802.0;1680.2;;;;-0.74495703;-0.17082597;-0.32273868;;;;;;;;;;;;;;;
1802.0;1680.2;;;;-0.7486344;-0.17144395;-0.32024387;;;;;;;;;;;;;;;
1802.0;1680.2;;;;-0.75202954;-0.17136003;-0.31953052;;;;;;;;;;;;;;;
1802.0;1680.2;;;;-0.75535595;-0.17134859;-0.31818774;;;;;;;;;;;;;;;
1802.0;1680.2;;;;-0.75917447;-0.17107393;-0.31639484;;;;;;;;;;;;;;;
1802.0;1683.8;262143;262143;13117;;;;;;;;;;;;;;;;;;
1809.0;1689.9;;;;;;;;;;;;;-30765;;;;;;;;
1809.0;1689.9;;;;;;;;;;;;;-20386;;;;;;;;
1809.0;1689.9;;;;;;;;;;;;;-4931;;;;;;;;
1809.0;1689.9;;;;;;;;;;;;;3547;;;;;;;;
1809.0;1689.9;;;;;;;;;;;;;3475;;;;;;;;
1809.0;1690.2;;;;-0.7625047;-0.1708336;-0.31378177;;;;;;;;;;;;;;;
1809.0;1690.2;;;;-0.7652551;-0.17042543;-0.31227115;;;;;;;;;;;;;;;
1809.0;1690.2;;;;-0.7671052;-0.16954423;-0.31152728;;;;;;;;;;;;;;;
1809.0;1690.2;;;;-0.76802456;-0.16989137;-0.31245044;;;;;;;;;;;;;;;
1809.0;1690.2;;;;-0.7679635;-0.1710663;-0.31430057;;;;;;;;;;;;;;;
1809.0;1700.2;;;;-0.76807797;-0.17341615;-0.3177109;;;;;;;;;;;;;;;
1809.0;1700.2;;;;-0.76953137;-0.17666246;-0.3230553;;;;;;;;;;;;;;;
1809.0;1700.2;;;;-0.7732316;-0.18030168;-0.3291016;;;;;;;;;;;;;;;
1809.0;1700.2;;;;-0.77832043;-0.1843567;-0.33591464;;;;;;;;;;;;;;;
1809.0;1700.2;;;;-0.7828828;-0.18607713;-0.34275058;;;;;;;;;;;;;;;
1809.0;1703.9;262143;262143;13124;;;;;;;;;;;;;;;;;;
1809.0;1710.3;;;;-0.79138577;-0.18890002;-0.35118106;;;;;;;;;;;;;;;
1809.0;1710.3;;;;-0.80482876;-0.19265369;-0.35930637;;;;;;;;;;;;;;;
1809.0;1710.3;;;;-0.81798184;-0.19440463;-0.3676186;;;;;;;;;;;;;;;
1809.0;1710.3;;;;-0.8335687;-0.19643024;-0.37754065;;;;;;;;;;;;;;;
1809.0;1710.3;;;;-0.8501092;-0.19641498;-0.38771445;;;;;;;;;;;;;;;
1816.0;1720.4;;;;-0.865204;-0.19519427;-0.39716345;;;;;;;;;;;;;;;
1816.0;1720.4;;;;-0.8775178;-0.19229892;-0.40830237;;;;;;;;;;;;;;;
1816.0;1720.4;;;;-0.8893472;-0.18886188;-0.41859442;;;;;;;;;;;;;;;
1816.0;1720.4;;;;-0.90163434;-0.18567659;-0.43027502;;;;;;;;;;;;;;;
1816.0;1720.4;;;;-0.91620266;-0.18159105;-0.44200522;;;;;;;;;;;;;;;
1816.0;1720.9;;;;;;;;;;;;;;;;;35.016174;-42.462692;43.065434;;1620.5
1816.0;1720.9;;;;;;;;;;;;;;0.66713464;0.27326274;-0.12286752;;;;;1620.5
1816.0;1720.9;;;;;;;;;;;;;;;;;38.03751;-42.60384;40.501877;;1620.5
1816.0;1720.9;;;;;;;;;;;;;;0.63380843;0.26190984;-0.087343976;;;;;1620.5
1816.0;1720.9;;;;;;;;;;;;;;;;;39.544357;-44.57991;38.7051;;1630.1
1816.0;1720.9;;;;;;;;;;;;;;0.61079746;0.26587725;-0.08856472;;;;;1630.1
1816.0;1720.9;;;;;;;;;;;;;;;;;39.61684;-46.58269;36.900692;;1630.1
1816.0;1720.9;;;;;;;;;;;;;;0.60121465;0.26111636;-0.10174871;;;;;1630.1
1816.0;1720.9;;;;;;;;;;;;;;;;;39.979248;-48.23832;34.596542;;1639.8
1816.0;1720.9;;;;;;;;;;;;;;0.6099429;0.27344584;-0.09027375;;;;;1639.8
1816.0;1720.9;;;;;;;;;;;;;;;;;40.879543;-49.050877;31.624805;;1639.8
1816.0;1720.9;;;;;;;;;;;;;;0.6176946;0.2872402;-0.03424177;;;;;1639.8
1820.0;1721.6;;;;;;;;;;;;;;;;;40.3531;-51.194798;28.431807;;1649.4
1820.0;1721.6;;;;;;;;;;;;;;0.66438794;0.30591753;0.014038514;;;;;1649.4
1820.0;1721.6;;;;;;;;;;;;;;;;;38.098545;-52.01117;25.677511;;1649.4
1820.0;1721.6;;;;;;;;;;;;;;0.77089757;0.32087162;0.13226722;;;;;1649.4
1820.0;1721.6;;;;;;;;;;;;;;;;;37.12958;-52.980133;23.388622;;1658.9
1820.0;1721.6;;;;;;;;;;;;;;0.91848505;0.32422864;0.22168645;;;;;1658.9
1820.0;1721.6;;;;;;;;;;;;;;;;;38.17103;-58.14539;21.958069;;1658.9
1820.0;1721.6;;;;;;;;;;;;;;1.083407;0.3364971;0.13702811;;;;;1658.9
1820.0;1721.6;;;;;;;;;;;;;;;;;39.929653;-67.1598;19.344921;;1668.6
1820.0;1721.6;;;;;;;;;;;;;;1.3152868;0.36097294;-0.006469924;;;;;1668.6
1820.0;1721.6;;;;;;;;;;;;;;;;;41.657764;-72.477646;15.896328;;1668.6
1820.0;1721.6;;;;;;;;;;;;;;1.7060457;0.36524552;-0.06537065;;;;;1668.6
1820.0;1723.9;262143;262143;13125;;;;;;;;;;;;;;;;;;
1820.0;1730.1;;;;;;;;;;;;;1592;;;;;;;;
1820.0;1730.1;;;;;;;;;;;;;2060;;;;;;;;
1820.0;1730.1;;;;;;;;;;;;;3045;;;;;;;;
1820.0;1730.1;;;;;;;;;;;;;2910;;;;;;;;
1820.0;1730.1;;;;;;;;;;;;;2640;;;;;;;;
1820.0;1730.3;;;;-0.9316789;-0.17893983;-0.45394522;;;;;;;;;;;;;;;
1820.0;1730.3;;;;-0.948887;-0.1757889;-0.4650727;;;;;;;;;;;;;;;
1820.0;1730.3;;;;-0.96753705;-0.17267992;-0.4757424;;;;;;;;;;;;;;;
1820.0;1730.3;;;;-0.9867898;-0.16807176;-0.48632818;;;;;;;;;;;;;;;
1820.0;1730.3;;;;-1.006672;-0.16402437;-0.49556738;;;;;;;;;;;;;;;
1862.0;1738.6;;;;;;;;;;0.90029603;20.05829;-1.5030366;;;;;;;;;
1862.0;1738.6;;;;;;;0.6259957;0.18396558;-0.1678518;;;;;;;;;;;;
1862.0;1738.6;;;;;;;;;;6.9696646;31.533249;7.87759;;;;;;;;;
1862.0;1738.6;;;;;;;0.7050386;0.20117801;-0.18366039;;;;;;;;;;;;
1862.0;1740.3;;;;-1.025364;-0.15844728;-0.50254446;;;;;;;;;;;;;;;
1862.0;1740.3;;;;-1.0414354;-0.15322496;-0.50983053;;;;;;;;;;;;;;;
1862.0;1740.3;;;;-1.0546685;-0.14609529;-0.5169106;;;;;;;;;;;;;;;
1862.0;1740.3;;;;-1.0677873;-0.13935854;-0.5252343;;;;;;;;;;;;;;;
1862.0;1740.3;;;;-1.0804559;-0.13105394;-0.5340119;;;;;;;;;;;;;;;
1862.0;1744.1;262143;262143;13130;;;;;;;;;;;;;;;;;;
1862.0;1748.2;;;;;;;;;;0.27466658;5.2491837;0.9155553;;;;;;;;;
1862.0;1748.2;;;;;;;0.7005829;0.19995728;-0.17865536;;;;;;;;;;;;
1862.0;1748.2;;;;;;;;;;12.573626;18.566698;3.1815546;;;;;;;;;
1862.0;1748.2;;;;;;;0.6972869;0.19922483;-0.17590868;;;;;;;;;;;;
1862.0;1750.2;;;;-1.0919343;-0.12289812;-0.5429421;;;;;;;;;;;;;;;
1862.0;1750.2;;;;-1.1032525;-0.116992965;-0.5528527;;;;;;;;;;;;;;;
1862.0;1750.2;;;;-1.110901;-0.1080208;-0.56215674;;;;;;;;;;;;;;;
1862.0;1750.2;;;;-1.1193506;-0.10017778;-0.57186896;;;;;;;;;;;;;;;
1862.0;1750.2;;;;-1.128956;-0.092830665;-0.5815812;;;;;;;;;;;;;;;
1862.0;1757.5;;;;;;;;;;18.677328;20.466475;-0.31662953;;;;;;;;;
1862.0;1757.5;;;;;;;0.70168155;0.1944029;-0.18237862;;;;;;;;;;;;
1862.0;1757.5;;;;;;;;;;19.005402;-14.5497;-24.826807;;;;;;;;;
1862.0;1757.5;;;;;;;0.72438735;0.18988617;-0.1909238;;;;;;;;;;;;
1864.0;1760.1;;;;-1.1380388;-0.08603669;-0.5910912;;;;;;;;;;;;;;;
1864.0;1760.1;;;;-1.1463777;-0.079925545;-0.5994263;;;;;;;;;;;;;;;
1864.0;1760.1;;;;-1.1540147;-0.073127754;-0.60680014;;;;;;;;;;;;;;;
1864.0;1760.1;;;;-1.1626512;-0.068199165;-0.6142846;;;;;;;;;;;;;;;
1864.0;1760.1;;;;-1.168522;-0.06336976;-0.6206818;;;;;;;;;;;;;;;
1864.0;1764.0;262143;262143;13124;;;;;;;;;;;;;;;;;;
1864.0;1767.1;;;;;;;;;;23.991364;-14.7633295;-29.232918;;;;;;;;;
1864.0;1767.1;;;;;;;0.74800867;0.18420972;-0.20239876;;;;;;;;;;;;
1864.0;1767.1;;;;;;;;;;28.7904;-14.687033;-33.63903;;;;;;;;;
1864.0;1767.1;;;;;;;0.7686392;0.19153416;-0.21771905;;;;;;;;;;;;
1864.0;1770.1;;;;;;;;;;;;;2564;;;;;;;;
1864.0;1770.1;;;;;;;;;;;;;2430;;;;;;;;
1864.0;1770.1;;;;;;;;;;;;;2371;;;;;;;;
1864.0;1770.1;;;;;;;;;;;;;2242;;;;;;;;
1864.0;1770.1;;;;;;;;;;;;;2029;;;;;;;;
1864.0;1770.2;;;;-1.1767389;-0.05926896;-0.6265145;;;;;;;;;;;;;;;
1864.0;1770.2;;;;-1.1849443;-0.05511094;-0.63039786;;;;;;;;;;;;;;;
1864.0;1770.2;;;;-1.1898309;-0.048969276;-0.63333136;;;;;;;;;;;;;;;
1864.0;1770.2;;;;-1.1929475;-0.04390717;-0.63745886;;;;;;;;;;;;;;;
1864.0;1770.2;;;;-1.1958162;-0.039012913;-0.64108664;;;;;;;;;;;;;;;
1864.0;1776.8;;;;;;;;;;32.338177;-7.5418863;-31.430248;;;;;;;;;
1864.0;1776.8;;;;;;;0.7904294;0.20233771;-0.23090304;;;;;;;;;;;;
1864.0;1776.8;;;;;;;;;;33.238472;-0.068666644;-25.135807;;;;;;;;;
1864.0;1776.8;;;;;;;0.81228065;0.21234779;-0.2417066;;;;;;;;;;;;
1867.0;1780.3;;;;-1.1995317;-0.03528214;-0.64493185;;;;;;;;;;;;;;;
1867.0;1780.3;;;;-1.203045;-0.030551914;-0.6463967;;;;;;;;;;;;;;;
1867.0;1780.3;;;;-1.2063638;-0.026836399;-0.6475945;;;;;;;;;;;;;;;
1867.0;1780.3;;;;-1.2090303;-0.022613527;-0.64965063;;;;;;;;;;;;;;;
1867.0;1780.3;;;;-1.2107049;-0.019325258;-0.6525727;;;;;;;;;;;;;;;
1867.0;1781.0;;;;;;;;;;;;;;;;;47.15491;-60.27024;10.814997;;1678.2
1867.0;1781.0;;;;;;;;;;;;;;1.9082614;0.39130834;-0.11615345;;;;;1678.2
1867.0;1781.0;;;;;;;;;;;;;;;;;51.118504;-37.667473;4.50911;;1678.2
1867.0;1781.0;;;;;;;;;;;;;;1.8558916;0.42744225;-0.01739555;;;;;1678.2
1867.0;1781.0;;;;;;;;;;;;;;;;;45.25895;-23.201696;-0.20981476;;1687.8
1867.0;1781.0;;;;;;;;;;;;;;1.8688314;0.43061617;0.07739494;;;;;1687.8
1867.0;1781.0;;;;;;;;;;;;;;;;;45.010986;-12.764366;-4.757073;;1687.8
1867.0;1781.0;;;;;;;;;;;;;;1.7142247;0.40980256;-0.15173803;;;;;1687.8
1867.0;1781.0;;;;;;;;;;;;;;;;;53.99106;-2.8992584;-13.500626;;1697.4
1867.0;1781.0;;;;;;;;;;;;;;1.2980742;0.47853023;-0.3218482;;;;;1697.4
1867.0;1781.0;;;;;;;;;;;;;;;;;44.980465;-6.416517;-18.990143;;1697.4
1867.0;1781.0;;;;;;;;;;;;;;1.1566515;0.49458295;-0.43385112;;;;;1697.4
1868.0;1781.8;;;;;;;;;;;;;;;;;17.719809;-2.8191473;-17.551958;;1707.0
1868.0;1781.8;;;;;;;;;;;;;;1.1876583;0.44520402;-0.41016877;;;;;1707.0
1868.0;1781.8;;;;;;;;;;;;;;;;;-11.719108;14.149144;-14.7633295;;1707.0
1868.0;1781.8;;;;;;;;;;;;;;1.0921965;0.3374737;-0.27680287;;;;;1707.0
1868.0;1781.8;;;;;;;;;;;;;;;;;-25.395214;24.117252;-14.309366;;1716.7
1868.0;1781.8;;;;;;;;;;;;;;0.9128086;0.3515122;-0.28437147;;;;;1716.7
1868.0;1781.8;;;;;;;;;;;;;;;;;-24.658957;21.961884;-17.117067;;1716.7
1868.0;1781.8;;;;;;;;;;;;;;0.79427475;0.3958861;-0.32673118;;;;;1716.7
1868.0;1781.8;;;;;;;;;;;;;;;;;-16.647848;7.1108127;-19.802696;;1726.2
1868.0;1781.8;;;;;;;;;;;;;;0.761742;0.41889706;-0.5211951;;;;;1726.2
1868.0;1781.8;;;;;;;;;;;;;;;;;-15.610218;-9.090701;-18.910032;;1726.2
1868.0;1781.8;;;;;;;;;;;;;;0.8310801;0.37842953;-0.7525864;;;;;1726.2
1868.0;1784.1;262143;262143;13123;;;;;;;;;;;;;;;;;;
1868.0;1786.2;;;;;;;;;;33.860287;-0.98422194;-24.277475;;;;;;;;;
1868.0;1786.2;;;;;;;0.84707177;0.22486039;-0.25708792;;;;;;;;;;;;
1868.0;1786.2;;;;;;;;;;34.73388;-1.7242957;-23.583178;;;;;;;;;
1868.0;1786.2;;;;;;;0.89132357;0.22791223;-0.28131962;;;;;;;;;;;;
1868.0;1790.3;;;;-1.2117463;-0.018859865;-0.6564484;;;;;;;;;;;;;;;
1868.0;1790.3;;;;-1.2119256;-0.016815187;-0.658207;;;;;;;;;;;;;;;
1868.0;1790.3;;;;-1.2122194;-0.014465334;-0.6600762;;;;;;;;;;;;;;;
1868.0;1790.3;;;;-1.2127839;-0.014251711;-0.66270834;;;;;;;;;;;;;;;
1868.0;1790.3;;;;-1.2113534;-0.014144899;-0.66532904;;;;;;;;;;;;;;;
1922.0;1795.8;;;;;;;;;;35.985138;-2.6245918;-22.74392;;;;;;;;;
1922.0;1795.8;;;;;;;0.94998014;0.22516556;-0.31501207;;;;;;;;;;;;
1922.0;1795.8;;;;;;;;;;37.30125;-3.5363324;-21.050142;;;;;;;;;
1922.0;1795.8;;;;;;;1.013947;0.20911282;-0.35047457;;;;;;;;;;;;
1922.0;1800.4;;;;-1.2083741;-0.014171602;-0.6676484;;;;;;;;;;;;;;;
1922.0;1800.4;;;;-1.2048608;-0.014472963;-0.6700097;;;;;;;;;;;;;;;
1922.0;1800.4;;;;-1.2012178;-0.01477051;-0.6729546;;;;;;;;;;;;;;;
1922.0;1800.4;;;;-1.1972619;-0.016239168;-0.6760369;;;;;;;;;;;;;;;
1922.0;1800.4;;;;-1.1940728;-0.018329622;-0.68007284;;;;;;;;;;;;;;;
1922.0;1804.4;262143;262143;13129;;;;;;;;;;;;;;;;;;
1922.0;1805.5;;;;;;;;;;38.636436;-4.734184;-19.27244;;;;;;;;;
1922.0;1805.5;;;;;;;1.0599688;0.18659016;-0.37653738;;;;;;;;;;;;
1922.0;1805.5;;;;;;;;;;40.112766;-6.5805535;-17.605364;;;;;;;;;
1922.0;1805.5;;;;;;;1.1011078;0.1594287;-0.4034547;;;;;;;;;;;;
1922.0;1810.4;;;;-1.1929399;-0.02156067;-0.6837998;;;;;;;;;;;;;;;
1922.0;1810.4;;;;-1.1934358;-0.026741032;-0.6891175;;;;;;;;;;;;;;;
1922.0;1810.4;;;;-1.1959802;-0.03200913;-0.6965104;;;;;;;;;;;;;;;
1922.0;1810.4;;;;-1.2002984;-0.037845615;-0.7036019;;;;;;;;;;;;;;;
1922.0;1810.4;;;;-1.2072603;-0.044147495;-0.71266943;;;;;;;;;;;;;;;
1922.0;1810.4;;;;;;;;;;;;;1814;;;;;;;;
1922.0;1810.4;;;;;;;;;;;;;1505;;;;;;;;
1922.0;1810.4;;;;;;;;;;;;;1294;;;;;;;;
1922.0;1810.4;;;;;;;;;;;;;1215;;;;;;;;
1922.0;1810.4;;;;;;;;;;;;;797;;;;;;;;
1926.0;1814.8;;;;;;;;;;41.356396;-8.980071;-16.026033;;;;;;;;;
1926.0;1814.8;;;;;;;1.1417584;0.12897122;-0.43275246;;;;;;;;;;;;
1926.0;1814.8;;;;;;;;;;42.39021;-11.417737;-14.877774;;;;;;;;;
1926.0;1814.8;;;;;;;1.1671499;0.09588916;-0.46320993;;;;;;;;;;;;
1926.0;1820.4;;;;-1.215748;-0.050121315;-0.7217675;;;;;;;;;;;;;;;
1926.0;1820.4;;;;-1.2253114;-0.056739815;-0.73193747;;;;;;;;;;;;;;;
1926.0;1820.4;;;;-1.2364312;-0.0608368;-0.74319464;;;;;;;;;;;;;;;
1926.0;1820.4;;;;-1.2473985;-0.061977394;-0.7548753;;;;;;;;;;;;;;;
1926.0;1820.4;;;;-1.2574273;-0.061622627;-0.7656213;;;;;;;;;;;;;;;
1926.0;1824.5;;;;;;;;;;43.191322;-14.259773;-14.221625;;;;;;;;;
1926.0;1824.5;;;;;;;1.2071291;0.06457717;-0.4918363;;;;;;;;;;;;
1926.0;1824.5;;;;;;;;;;43.78262;-17.059847;-13.794366;;;;;;;;;
1926.0;1824.5;;;;;;;1.2486343;0.036378063;-0.51283306;;;;;;;;;;;;
1926.0;1824.4;262143;262143;13126;;;;;;;;;;;;;;;;;;
1926.0;1830.5;;;;-1.2675897;-0.059940346;-0.77575314;;;;;;;;;;;;;;;
1926.0;1830.5;;;;-1.2769853;-0.05572129;-0.78551495;;;;;;;;;;;;;;;
1926.0;1830.5;;;;-1.2850534;-0.049839027;-0.79390347;;;;;;;;;;;;;;;
1926.0;1830.5;;;;-1.2975656;-0.044105534;-0.8015977;;;;;;;;;;;;;;;
1926.0;1830.5;;;;-1.3130037;-0.042572025;-0.8094865;;;;;;;;;;;;;;;
1926.0;1834.1;;;;;;;;;;44.21369;-19.60814;-13.504441;;;;;;;;;
1926.0;1834.1;;;;;;;1.2790307;0.003357036;-0.5258339;;;;;;;;;;;;
1926.0;1834.1;;;;;;;;;;44.11069;-21.778772;-13.439589;;;;;;;;;
1926.0;1834.1;;;;;;;1.3080844;-0.023010956;-0.5296182;;;;;;;;;;;;
1927.0;1840.6;;;;-1.3133775;-0.035083774;-0.80986035;;;;;;;;;;;;;;;
1927.0;1840.6;;;;-1.3047334;-0.02227402;-0.8098794;;;;;;;;;;;;;;;
1927.0;1840.6;;;;-1.2963334;-0.009277345;-0.8114587;;;;;;;;;;;;;;;
1927.0;1840.6;;;;-1.2937471;6.027222E-4;-0.80996335;;;;;;;;;;;;;;;
1927.0;1840.6;;;;-1.293213;0.0076141367;-0.8077508;;;;;;;;;;;;;;;
1927.0;1841.7;;;;;;;;;;;;;;;;;-26.028473;-9.273812;-15.97644;;1735.9
1927.0;1841.7;;;;;;;;;;;;;;0.9073153;0.258858;-0.7754143;;;;;1735.9
1927.0;1841.7;;;;;;;;;;;;;;;;;-36.450546;1.3618885;-12.909329;;1735.9
1927.0;1841.7;;;;;;;;;;;;;;0.8726463;0.13879818;-0.6739097;;;;;1735.9
1927.0;1841.7;;;;;;;;;;;;;;;;;-39.56343;5.787072;-10.311441;;1745.5
1927.0;1841.7;;;;;;;;;;;;;;0.78292185;0.039613027;-0.62678915;;;;;1745.5
1927.0;1841.7;;;;;;;;;;;;;;;;;-34.52025;2.8077028;-8.350628;;1745.5
1927.0;1841.7;;;;;;;;;;;;;;0.6918546;-0.0017090365;-0.5666677;;;;;1745.5
1927.0;1841.7;;;;;;;;;;;;;;;;;-23.922697;-7.717368;-7.145146;;1755.2
1927.0;1841.7;;;;;;;;;;;;;;0.67885375;-0.083254494;-0.5039216;;;;;1755.2
1927.0;1841.7;;;;;;;;;;;;;;;;;-13.870663;-22.671436;-3.8377025;;1755.2
1927.0;1841.7;;;;;;;;;;;;;;0.82595295;-0.056154057;-0.44343394;;;;;1755.2
1928.0;1842.5;;;;;;;;;;;;;;;;;-3.765221;-33.333843;3.1662953;;1764.9
1928.0;1842.5;;;;;;;;;;;;;;1.104587;0.059877317;-0.4323252;;;;;1764.9
1928.0;1842.5;;;;;;;;;;;;;;;;;5.882443;-35.611286;12.016664;;1764.9
1928.0;1842.5;;;;;;;;;;;;;;1.3850521;0.28943753;-0.5119785;;;;;1764.9
1928.0;1842.5;;;;;;;;;;;;;;;;;13.397626;-34.245583;19.61577;;1774.5
1928.0;1842.5;;;;;;;;;;;;;;1.5864131;0.61958677;-0.62623984;;;;;1774.5
1928.0;1842.5;;;;;;;;;;;;;;;;;16.869106;-35.57695;24.307993;;1774.5
1928.0;1842.5;;;;;;;;;;;;;;1.7946714;0.95974606;-0.81508833;;;;;1774.5
1928.0;1842.5;;;;;;;;;;;;;;;;;12.569811;-32.219917;25.570696;;1784.2
1928.0;1842.5;;;;;;;;;;;;;;1.9890743;1.1802118;-0.9682913;;;;;1784.2
1928.0;1842.5;;;;;;;;;;;;;;;;;5.1690726;-14.591662;19.459366;;1784.2
1928.0;1842.5;;;;;;;;;;;;;;1.9954833;1.2902615;-0.93777275;;;;;1784.2
1928.0;1843.5;;;;;;;;;;43.5461;-23.117771;-13.473923;;;;;;;;;
1928.0;1843.5;;;;;;;1.3205969;-0.047608875;-0.52864164;;;;;;;;;;;;
1928.0;1843.5;;;;;;;;;;42.80221;-23.884548;-13.790551;;;;;;;;;
1928.0;1843.5;;;;;;;1.327189;-0.067751095;-0.5208289;;;;;;;;;;;;
1928.0;1844.4;262143;262143;13112;;;;;;;;;;;;;;;;;;
1928.0;1850.5;;;;-1.2909662;0.013725283;-0.80240643;;;;;;;;;;;;;;;
1928.0;1850.5;;;;-1.2834932;0.020053865;-0.7939073;;;;;;;;;;;;;;;
1928.0;1850.5;;;;-1.2754327;0.026638035;-0.78532803;;;;;;;;;;;;;;;
1928.0;1850.5;;;;-1.2685395;0.030838016;-0.77668774;;;;;;;;;;;;;;;
1928.0;1850.5;;;;-1.2620851;0.032291416;-0.7682954;;;;;;;;;;;;;;;
1930.0;1850.6;;;;;;;;;;;;;25;;;;;;;;
1930.0;1850.6;;;;;;;;;;;;;-374;;;;;;;;
1930.0;1850.6;;;;;;;;;;;;;-125;;;;;;;;
1930.0;1850.6;;;;;;;;;;;;;41;;;;;;;;
1930.0;1850.6;;;;;;;;;;;;;-425;;;;;;;;
1930.0;1853.1;;;;;;;;;;41.905727;-24.285105;-14.32081;;;;;;;;;
1930.0;1853.1;;;;;;;1.3191931;-0.08307138;-0.5073397;;;;;;;;;;;;
1930.0;1853.1;;;;;;;;;;40.723137;-24.75814;-14.728996;;;;;;;;;
1930.0;1853.1;;;;;;;1.3140049;-0.09356975;-0.48518327;;;;;;;;;;;;
1930.0;1860.5;;;;-1.2546426;0.033149723;-0.75849545;;;;;;;;;;;;;;;
1930.0;1860.5;;;;-1.2444383;0.034473423;-0.7489663;;;;;;;;;;;;;;;
1930.0;1860.5;;;;-1.2329713;0.036991123;-0.73953253;;;;;;;;;;;;;;;
1930.0;1860.5;;;;-1.2215806;0.03986359;-0.7307854;;;;;;;;;;;;;;;
1930.0;1860.5;;;;-1.2109948;0.043758396;-0.7211152;;;;;;;;;;;;;;;
1930.0;1862.6;;;;;;;;;;39.48332;-25.341806;-14.507736;;;;;;;;;
1930.0;1862.6;;;;;;;1.3151647;-0.09106723;-0.4604633;;;;;;;;;;;;
1930.0;1862.6;;;;;;;;;;38.468582;-25.563066;-14.038514;;;;;;;;;
1930.0;1862.6;;;;;;;1.3136997;-0.08264413;-0.43769646;;;;;;;;;;;;
1930.0;1864.6;262143;262143;13111;;;;;;;;;;;;;;;;;;
1930.0;1870.4;;;;-1.2015649;0.04707337;-0.7114678;;;;;;;;;;;;;;;
1930.0;1870.4;;;;-1.1924592;0.04935456;-0.7014962;;;;;;;;;;;;;;;
1930.0;1870.4;;;;-1.183571;0.05168534;-0.69100195;;;;;;;;;;;;;;;
1930.0;1870.4;;;;-1.1758119;0.05334092;-0.68056875;;;;;;;;;;;;;;;
1930.0;1870.4;;;;-1.1699792;0.054348;-0.6690293;;;;;;;;;;;;;;;
1980.0;1872.0;;;;;;;;;;37.789547;-25.540176;-13.168737;;;;;;;;;
1980.0;1872.0;;;;;;;1.3216345;-0.06414991;-0.41883603;;;;;;;;;;;;
1980.0;1872.0;;;;;;;;;;37.522507;-24.910732;-11.589404;;;;;;;;;
1980.0;1872.0;;;;;;;1.3295083;-0.039857175;-0.39814448;;;;;;;;;;;;
1980.0;1880.2;;;;-1.1646959;0.055252083;-0.6565705;;;;;;;;;;;;;;;
1980.0;1880.2;;;;-1.1636239;0.053684242;-0.64581686;;;;;;;;;;;;;;;
1980.0;1880.2;;;;-1.1584016;0.052330025;-0.6322327;;;;;;;;;;;;;;;
1980.0;1880.2;;;;-1.1469003;0.053443916;-0.61757666;;;;;;;;;;;;;;;
1980.0;1880.2;;;;-1.133484;0.054557808;-0.6045342;;;;;;;;;;;;;;;
1980.0;1881.4;;;;;;;;;;37.61025;-23.537401;-9.73159;;;;;;;;;
1980.0;1881.4;;;;;;;1.3430586;-0.012329478;-0.3876461;;;;;;;;;;;;
1980.0;1881.4;;;;;;;;;;37.907806;-21.763514;-7.8508863;;;;;;;;;
1980.0;1881.4;;;;;;;1.3442183;0.0145878475;-0.39283425;;;;;;;;;;;;
1980.0;1884.3;262143;262143;13109;;;;;;;;;;;;;;;;;;
1980.0;1890.3;;;;-1.1235772;0.054092415;-0.59254843;;;;;;;;;;;;;;;
1980.0;1890.3;;;;-1.1156884;0.052120216;-0.58076483;;;;;;;;;;;;;;;
1980.0;1890.3;;;;-1.1088678;0.048950203;-0.5679284;;;;;;;;;;;;;;;
1980.0;1890.3;;;;-1.1018182;0.045063023;-0.5564118;;;;;;;;;;;;;;;
1980.0;1890.3;;;;-1.0960199;0.040786747;-0.5463868;;;;;;;;;;;;;;;
1980.0;1890.5;;;;;;;;;;;;;-1058;;;;;;;;
1980.0;1890.5;;;;;;;;;;;;;-1296;;;;;;;;
1980.0;1890.5;;;;;;;;;;;;;-1457;;;;;;;;
1980.0;1890.5;;;;;;;;;;;;;-1901;;;;;;;;
1980.0;1890.5;;;;;;;;;;;;;-2205;;;;;;;;
1984.0;1891.0;;;;;;;;;;38.28166;-19.695883;-5.7298503;;;;;;;;;
1984.0;1891.0;;;;;;;1.3415936;0.036133915;-0.4034547;;;;;;;;;;;;
1984.0;1891.0;;;;;;;;;;38.937805;-17.60918;-3.3951843;;;;;;;;;
1984.0;1891.0;;;;;;;1.3367717;0.043153174;-0.41346475;;;;;;;;;;;;
1984.0;1900.4;;;;-1.0885888;0.03678513;-0.5358239;;;;;;;;;;;;;;;
1984.0;1900.4;;;;-1.0780755;0.033687595;-0.5260659;;;;;;;;;;;;;;;
1984.0;1900.4;;;;-1.066887;0.030830387;-0.51770025;;;;;;;;;;;;;;;
1984.0;1900.4;;;;-1.0577127;0.027492527;-0.5096932;;;;;;;;;;;;;;;
1984.0;1900.4;;;;-1.0501062;0.022689821;-0.50075155;;;;;;;;;;;;;;;
1984.0;1900.6;;;;;;;;;;39.63973;-15.861996;-0.8125553;;;;;;;;;
1984.0;1900.6;;;;;;;1.3315226;0.034546953;-0.4245735;;;;;;;;;;;;
1984.0;1900.6;;;;;;;;;;40.29969;-14.778588;2.0218513;;;;;;;;;
1984.0;1900.6;;;;;;;1.330546;0.023438215;-0.43452254;;;;;;;;;;;;
1984.0;1901.4;;;;;;;;;;;;;;;;;-4.1123695;7.5800347;10.692923;;1793.8
1984.0;1901.4;;;;;;;;;;;;;;1.6931669;1.3172399;-0.86269724;;;;;1793.8
1984.0;1901.4;;;;;;;;;;;;;;;;;-15.44618;17.212439;3.151036;;1793.8
1984.0;1901.4;;;;;;;;;;;;;;1.1797845;1.3072909;-0.6598712;;;;;1793.8
1984.0;1901.4;;;;;;;;;;;;;;;;;-29.152807;2.6779993;-2.9831843;;1803.4
1984.0;1901.4;;;;;;;;;;;;;;1.0646077;1.035371;-0.6418653;;;;;1803.4
1984.0;1901.4;;;;;;;;;;;;;;;;;-37.1601;2.1744437;-8.930479;;1803.4
1984.0;1901.4;;;;;;;;;;;;;;0.9578539;0.75771356;-0.606769;;;;;1803.4
1984.0;1901.4;;;;;;;;;;;;;;;;;-44.07636;6.3325906;-13.344218;;1813.1
1984.0;1901.4;;;;;;;;;;;;;;0.84109014;0.49769586;-0.51545763;;;;;1813.1
1984.0;1901.4;;;;;;;;;;;;;;;;;-50.447094;6.637776;-14.004181;;1813.1
1984.0;1901.4;;;;;;;;;;;;;;0.7900632;0.21527757;-0.4112064;;;;;1813.1
1988.0;1902.0;;;;;;;;;;;;;;;;;-54.83413;1.5793328;-11.76107;;1822.7
1988.0;1902.0;;;;;;;;;;;;;;0.758507;0.03399762;-0.4058962;;;;;1822.7
1988.0;1902.0;;;;;;;;;;;;;;;;;-57.41676;-6.260109;-7.8127384;;1822.7
1988.0;1902.0;;;;;;;;;;;;;;0.81130403;-0.013794366;-0.41407514;;;;;1822.7
1988.0;1902.0;;;;;;;;;;;;;;;;;-55.83361;-7.744072;-4.486221;;1832.3
1988.0;1902.0;;;;;;;;;;;;;;0.83535266;-0.023865474;-0.40076905;;;;;1832.3
1988.0;1902.0;;;;;;;;;;;;;;;;;-51.87002;-6.9887385;-1.3504441;;1832.3
1988.0;1902.0;;;;;;;;;;;;;;0.8775292;-0.013489181;-0.41676077;;;;;1832.3
1988.0;1902.0;;;;;;;;;;;;;;;;;-47.853024;-8.220923;2.929777;;1842.0
1988.0;1902.0;;;;;;;;;;;;;;0.93215734;-0.008850368;-0.5305338;;;;;1842.0
1988.0;1902.0;;;;;;;;;;;;;;;;;-43.725395;-7.953887;7.89285;;1842.0
1988.0;1902.0;;;;;;;;;;;;;;0.9671926;-0.03723258;-0.5818049;;;;;1842.0
1988.0;1904.4;262143;262143;13104;;;;;;;;;;;;;;;;;;
1988.0;1910.0;;;;;;;;;;40.761284;-14.248329;4.5739617;;;;;;;;;
1988.0;1910.0;;;;;;;1.3297524;0.01800592;-0.43684193;;;;;;;;;;;;
1988.0;1910.0;;;;;;;;;;41.01306;-13.985106;6.8132577;;;;;;;;;
1988.0;1910.0;;;;;;;1.3217566;0.016541032;-0.43220314;;;;;;;;;;;;
1988.0;1910.3;;;;-1.0422975;0.018257143;-0.49226767;;;;;;;;;;;;;;;
1988.0;1910.3;;;;-1.0366441;0.015003206;-0.47723776;;;;;;;;;;;;;;;
1988.0;1910.3;;;;-1.028473;0.0141677875;-0.455185;;;;;;;;;;;;;;;
1988.0;1910.3;;;;-1.0214959;0.011451722;-0.44492728;;;;;;;;;;;;;;;
1988.0;1910.3;;;;-1.0132486;0.009571076;-0.44131857;;;;;;;;;;;;;;;
2043.0;1919.5;;;;;;;;;;41.009247;-13.683737;8.9991455;;;;;;;;;
2043.0;1919.5;;;;;;;1.3083285;0.015381329;-0.42023987;;;;;;;;;;;;
2043.0;1919.5;;;;;;;;;;40.849026;-13.607441;10.868404;;;;;;;;;
2043.0;1919.5;;;;;;;1.2949615;0.015320292;-0.39497054;;;;;;;;;;;;
2043.0;1920.3;;;;-1.0006334;0.009037019;-0.4387055;;;;;;;;;;;;;;;
2043.0;1920.3;;;;-0.98708355;0.008117677;-0.43829733;;;;;;;;;;;;;;;
2043.0;1920.3;;;;-0.97692883;0.004367829;-0.435669;;;;;;;;;;;;;;;
2043.0;1920.3;;;;-0.970749;-1.602173E-4;-0.42837912;;;;;;;;;;;;;;;
2043.0;1920.3;;;;-0.96442425;-0.002220154;-0.41785055;;;;;;;;;;;;;;;
2043.0;1924.5;262143;262143;13107;;;;;;;;;;;;;;;;;;
2043.0;1929.1;;;;;;;;;;40.475174;-13.5197;joulu.67;;;;;;;;;
2043.0;1929.1;;;;;;;1.2804956;0.012512589;-0.37012848;;;;;;;;;;;;
2043.0;1929.1;;;;;;;;;;39.91058;-13.302256;13.4891815;;;;;;;;;
2043.0;1929.1;;;;;;;1.262978;0.0079958495;-0.35297707;;;;;;;;;;;;
2043.0;1930.2;;;;-0.9585382;-0.0040664678;-0.40765005;;;;;;;;;;;;;;;
2043.0;1930.2;;;;-0.9533807;-0.006298066;-0.3961602;;;;;;;;;;;;;;;
2043.0;1930.2;;;;-0.94582;-0.007831574;-0.38385016;;;;;;;;;;;;;;;
2043.0;1930.2;;;;-0.9354707;-0.010131837;-0.3734055;;;;;;;;;;;;;;;
2043.0;1930.2;;;;-0.9248239;-0.01350403;-0.36314014;;;;;;;;;;;;;;;
2043.0;1930.5;;;;;;;;;;;;;-2152;;;;;;;;
2043.0;1930.5;;;;;;;;;;;;;-2339;;;;;;;;
2043.0;1930.5;;;;;;;;;;;;;-3047;;;;;;;;
2043.0;1930.5;;;;;;;;;;;;;-3491;;;;;;;;
2043.0;1930.5;;;;;;;;;;;;;-2857;;;;;;;;
2044.0;1938.4;;;;;;;;;;39.044617;-12.768181;14.187292;;;;;;;;;
2044.0;1938.4;;;;;;;1.2459487;0.008850368;-0.33851132;;;;;;;;;;;;
2044.0;1938.4;;;;;;;;;;38.14432;-12.306589;14.671774;;;;;;;;;
2044.0;1938.4;;;;;;;1.2367932;0.012451552;-0.32618183;;;;;;;;;;;;
2044.0;1940.1;;;;-0.91564953;-0.01861191;-0.35213092;;;;;;;;;;;;;;;
2044.0;1940.1;;;;-0.9064294;-0.02283478;-0.3422356;;;;;;;;;;;;;;;
2044.0;1940.1;;;;-0.8984262;-0.027717594;-0.33265308;;;;;;;;;;;;;;;
2044.0;1940.1;;;;-0.89255154;-0.03392029;-0.32364276;;;;;;;;;;;;;;;
2044.0;1940.1;;;;-0.88386166;-0.03956223;-0.31587604;;;;;;;;;;;;;;;
2044.0;1944.4;262143;262143;13107;;;;;;;;;;;;;;;;;;
2044.0;1948.0;;;;;;;;;;37.057102;-11.619923;15.079958;;;;;;;;;
2044.0;1948.0;;;;;;;1.229896;0.020508438;-0.31501207;;;;;;;;;;;;
2044.0;1948.0;;;;;;;;;;36.01184;-10.425886;15.24018;;;;;;;;;
2044.0;1948.0;;;;;;;1.2239753;0.025757622;-0.3058565;;;;;;;;;;;;
2044.0;1950.2;;;;-0.87500775;-0.044239048;-0.3106728;;;;;;;;;;;;;;;
2044.0;1950.2;;;;-0.866604;-0.048480995;-0.30702975;;;;;;;;;;;;;;;
2044.0;1950.2;;;;-0.8577653;-0.051795967;-0.30265048;;;;;;;;;;;;;;;
2044.0;1950.2;;;;-0.8496438;-0.05423356;-0.2995377;;;;;;;;;;;;;;;
2044.0;1950.2;;;;-0.8423387;-0.055999763;-0.29621127;;;;;;;;;;;;;;;
2044.0;1957.7;;;;;;;;;;35.05432;-8.484145;15.358439;;;;;;;;;
2044.0;1957.7;;;;;;;1.2206793;0.028015992;-0.2956023;;;;;;;;;;;;
2044.0;1957.7;;;;;;;;;;34.16547;-5.8709984;15.65218;;;;;;;;;
2044.0;1957.7;;;;;;;1.2200079;0.034485918;-0.28833887;;;;;;;;;;;;
2046.0;1960.4;;;;-0.836197;-0.05856324;-0.29233173;;;;;;;;;;;;;;;
2046.0;1960.4;;;;-0.82961285;-0.061119087;-0.28898624;;;;;;;;;;;;;;;
2046.0;1960.4;;;;-0.8228265;-0.06381989;-0.2862549;;;;;;;;;;;;;;;
2046.0;1960.4;;;;-0.81614316;-0.065818794;-0.2821503;;;;;;;;;;;;;;;
2046.0;1960.4;;;;-0.8080026;-0.07019044;-0.27738956;;;;;;;;;;;;;;;
2046.0;1961.8;;;;;;;;;;;;;;;;;-37.480545;-6.0922575;13.271737;;1851.7
2046.0;1961.8;;;;;;;;;;;;;;0.9569994;-0.071108125;-0.537553;;;;;1851.7
2046.0;1961.8;;;;;;;;;;;;;;;;;-28.542437;-5.916776;18.94818;;1851.7
2046.0;1961.8;;;;;;;;;;;;;;0.9312418;-0.045594655;-0.4856105;;;;;1851.7
2046.0;1961.8;;;;;;;;;;;;;;;;;-20.298624;-8.785516;23.712883;;1861.4
2046.0;1961.8;;;;;;;;;;;;;;0.94369334;0.0046388134;-0.46394238;;;;;1861.4
2046.0;1961.8;;;;;;;;;;;;;;;;;-13.332774;-10.845515;26.963104;;1861.4
2046.0;1961.8;;;;;;;;;;;;;;0.96591085;0.032715842;-0.47267067;;;;;1861.4
2046.0;1961.8;;;;;;;;;;;;;;;;;-6.5080724;-8.136998;28.103731;;1870.7
2046.0;1961.8;;;;;;;;;;;;;;0.9569384;0.04895169;-0.46913052;;;;;1870.7
2046.0;1961.8;;;;;;;;;;;;;;;;;0.6218146;-4.6464434;28.53099;;1870.7
2046.0;1961.8;;;;;;;;;;;;;;0.93453777;0.04956206;-0.42823574;;;;;1870.7
2047.0;1962.6;;;;;;;;;;;;;;;;;7.5228124;-3.3875546;29.07651;;1880.4
2047.0;1962.6;;;;;;;;;;;;;;0.933195;0.045228433;-0.38178656;;;;;1880.4
2047.0;1962.6;;;;;;;;;;;;;;;;;14.435255;-2.3728142;29.423658;;1880.4
2047.0;1962.6;;;;;;;;;;;;;;0.9290445;0.04242073;-0.35871455;;;;;1880.4
2047.0;1962.6;;;;;;;;;;;;;;;;;21.416365;-0.88122195;29.09177;;1890.1
2047.0;1962.6;;;;;;;;;;;;;;0.9208655;0.05059969;-0.33887753;;;;;1890.1
2047.0;1962.6;;;;;;;;;;;;;;;;;28.412733;0.8354442;28.229622;;1890.1
2047.0;1962.6;;;;;;;;;;;;;;0.91909546;0.073000275;-0.3045137;;;;;1890.1
2047.0;1962.6;;;;;;;;;;;;;;;;;33.730583;2.6284068;27.371288;;1899.7
2047.0;1962.6;;;;;;;;;;;;;;0.9243446;0.09503464;-0.2796716;;;;;1899.7
2047.0;1962.6;;;;;;;;;;;;;;;;;37.60262;4.8486285;26.444288;;1899.7
2047.0;1962.6;;;;;;;;;;;;;;0.9065218;0.12787256;-0.2727134;;;;;1899.7
2047.0;1964.6;262143;262143;13096;;;;;;;;;;;;;;;;;;
2047.0;1967.2;;;;;;;;;;33.4254;-2.5101473;15.671255;;;;;;;;;
2047.0;1967.2;;;;;;;1.2172003;0.040284432;-0.28119755;;;;;;;;;;;;
2047.0;1967.2;;;;;;;;;;32.834103;1.2703329;15.560625;;;;;;;;;
2047.0;1967.2;;;;;;;1.2079226;0.046998505;-0.2783288;;;;;;;;;;;;
2047.0;1970.3;;;;-0.7973634;-0.0727501;-0.27274707;;;;;;;;;;;;;;;
2047.0;1970.3;;;;-0.78422177;-0.074047096;-0.26979068;;;;;;;;;;;;;;;
2047.0;1970.3;;;;-0.77204907;-0.07522965;-0.2687874;;;;;;;;;;;;;;;
2047.0;1970.3;;;;-0.7639619;-0.07769395;-0.26707843;;;;;;;;;;;;;;;
2047.0;1970.3;;;;-0.75994503;-0.081249245;-0.2653351;;;;;;;;;;;;;;;
2103.0;1970.7;;;;;;;;;;;;;-1421;;;;;;;;
2103.0;1970.7;;;;;;;;;;;;;-31;;;;;;;;
2103.0;1970.7;;;;;;;;;;;;;1062;;;;;;;;
2103.0;1970.7;;;;;;;;;;;;;2122;;;;;;;;
2103.0;1970.7;;;;;;;;;;;;;3018;;;;;;;;
2103.0;1976.8;;;;;;;;;;32.38014;5.1271095;15.36607;;;;;;;;;
2103.0;1976.8;;;;;;;1.1946166;0.055787835;-0.27753532;;;;;;;;;;;;
2103.0;1976.8;;;;;;;;;;32.12836;9.006775;14.931181;;;;;;;;;
2103.0;1976.8;;;;;;;1.1791131;0.06146428;-0.27954954;;;;;;;;;;;;
2103.0;1980.4;;;;-0.7585565;-0.08500291;-0.26398852;;;;;;;;;;;;;;;
2103.0;1980.4;;;;-0.7567674;-0.08790589;-0.26409534;;;;;;;;;;;;;;;
2103.0;1980.4;;;;-0.7565309;-0.09018708;-0.2652054;;;;;;;;;;;;;;;
2103.0;1980.4;;;;-0.7579843;-0.09398271;-0.2652817;;;;;;;;;;;;;;;
2103.0;1980.4;;;;-0.7570802;-0.09611894;-0.26577;;;;;;;;;;;;;;;
2103.0;1984.8;262143;262143;13107;;;;;;;;;;;;;;;;;;
2103.0;1986.4;;;;;;;;;;32.036804;12.668996;14.32081;;;;;;;;;
2103.0;1986.4;;;;;;;1.1584827;0.06573687;-0.27576524;;;;;;;;;;;;
2103.0;1986.4;;;;;;;;;;32.09403;16.319773;13.573108;;;;;;;;;
2103.0;1986.4;;;;;;;1.1372417;0.07226783;-0.27503282;;;;;;;;;;;;
2103.0;1990.3;;;;-0.7565614;-0.09717561;-0.2653313;;;;;;;;;;;;;;;
2103.0;1990.3;;;;-0.7574998;-0.10002519;-0.2654343;;;;;;;;;;;;;;;
2103.0;1990.3;;;;-0.7573587;-0.10174562;-0.26462176;;;;;;;;;;;;;;;
2103.0;1990.3;;;;-0.75589;-0.10204317;-0.26445392;;;;;;;;;;;;;;;
2103.0;1990.3;;;;-0.7548715;-0.101131454;-0.26507953;;;;;;;;;;;;;;;
2162.0;1995.8;;;;;;;;;;32.18177;19.65392;12.684256;;;;;;;;;
2162.0;1995.8;;;;;;;1.1183813;0.07837153;-0.27692497;;;;;;;;;;;;
2162.0;1995.8;;;;;;;;;;32.258064;22.659992;11.604663;;;;;;;;;
2162.0;1995.8;;;;;;;1.0987884;0.082583085;-0.28296763;;;;;;;;;;;;
2162.0;2000.4;;;;-0.7556497;-0.10158159;-0.2668076;;;;;;;;;;;;;;;
2162.0;2000.4;;;;-0.7563058;-0.103755966;-0.26844028;;;;;;;;;;;;;;;
2162.0;2000.4;;;;-0.7569009;-0.10569765;-0.26861957;;;;;;;;;;;;;;;
2162.0;2000.4;;;;-0.7584802;-0.1069832;-0.26915362;;;;;;;;;;;;;;;
2162.0;2000.4;;;;-0.7605592;-0.10829164;-0.26986697;;;;;;;;;;;;;;;
2162.0;2004.8;262143;262143;13109;;;;;;;;;;;;;;;;;;
2162.0;2005.4;;;;;;;;;;32.387768;25.414288;10.364849;;;;;;;;;
2162.0;2005.4;;;;;;;1.0712607;0.084231086;-0.28980377;;;;;;;;;;;;
2162.0;2005.4;;;;;;;;;;32.540363;27.684103;9.399701;;;;;;;;;
2162.0;2005.4;;;;;;;1.0572222;0.07971435;-0.2923673;;;;;;;;;;;;
2162.0;2010.5;;;;-0.7626687;-0.109050766;-0.27029422;;;;;;;;;;;;;;;
2162.0;2010.5;;;;-0.76422894;-0.109756485;-0.27029803;;;;;;;;;;;;;;;
2162.0;2010.5;;;;-0.7659265;-0.1105385;-0.27074817;;;;;;;;;;;;;;;
2162.0;2010.5;;;;-0.7677537;-0.11166002;-0.27198413;;;;;;;;;;;;;;;
2162.0;2010.5;;;;-0.7713586;-0.11240007;-0.274601;;;;;;;;;;;;;;;
2162.0;2010.9;;;;;;;;;;;;;3468;;;;;;;;
2162.0;2010.9;;;;;;;;;;;;;3607;;;;;;;;
2162.0;2010.9;;;;;;;;;;;;;3636;;;;;;;;
2162.0;2010.9;;;;;;;;;;;;;3570;;;;;;;;
2162.0;2010.9;;;;;;;;;;;;;3413;;;;;;;;
2164.0;2015.0;;;;;;;;;;32.42592;29.725029;8.461257;;;;;;;;;
2164.0;2015.0;;;;;;;1.0424513;0.07458724;-0.2929777;;;;;;;;;;;;
2164.0;2015.0;;;;;;;;;;32.277138;31.777397;7.5418863;;;;;;;;;
2164.0;2015.0;;;;;;;1.0303049;0.068300426;-0.29682302;;;;;;;;;;;;
2164.0;2020.6;;;;-0.7763406;-0.11343004;-0.27692416;;;;;;;;;;;;;;;
2164.0;2020.6;;;;-0.7827798;-0.11389543;-0.2795296;;;;;;;;;;;;;;;
2164.0;2020.6;;;;-0.7887231;-0.11405565;-0.28232577;;;;;;;;;;;;;;;
2164.0;2020.6;;;;-0.79342663;-0.11355592;-0.2846909;;;;;;;;;;;;;;;
2164.0;2020.6;;;;-0.7967721;-0.112461105;-0.28545764;;;;;;;;;;;;;;;
2164.0;2021.7;;;;;;;;;;;;;;;;;39.880062;6.4127016;25.414288;;1909.4
2164.0;2021.7;;;;;;;;;;;;;;0.88467056;0.17120884;-0.26392406;;;;;1909.4
2164.0;2021.7;;;;;;;;;;;;;;;;;41.34495;7.026887;24.086735;;1909.4
2164.0;2021.7;;;;;;;;;;;;;;0.872219;0.21430098;-0.24732201;;;;;1909.4
2164.0;2021.7;;;;;;;;;;;;;;;;;42.34062;7.740257;22.11829;;1919.1
2164.0;2021.7;;;;;;;;;;;;;;0.8537858;0.24488053;-0.22162542;;;;;1919.1
2164.0;2021.7;;;;;;;;;;;;;;;;;43.019653;8.48796;19.497513;;1919.1
2164.0;2021.7;;;;;;;;;;;;;;0.8285165;0.272042;-0.20929594;;;;;1919.1
2164.0;2021.7;;;;;;;;;;;;;;;;;42.91284;9.044923;16.70507;;1928.6
2164.0;2021.7;;;;;;;;;;;;;;0.7874996;0.29816583;-0.19684438;;;;;1928.6
2164.0;2021.7;;;;;;;;;;;;;;;;;41.116062;8.419294;14.076662;;1928.6
2164.0;2021.7;;;;;;;;;;;;;;0.7575915;0.3209937;-0.1861629;;;;;1928.6
2166.0;2022.6;;;;;;;;;;;;;;;;;38.33888;8.270516;12.035737;;1938.2
2166.0;2022.6;;;;;;;;;;;;;;0.73049104;0.33448288;-0.17932676;;;;;1938.2
2166.0;2022.6;;;;;;;;;;;;;;;;;35.489212;8.682516;10.673849;;1938.2
2166.0;2022.6;;;;;;;;;;;;;;0.6872158;0.35627308;-0.19507432;;;;;1938.2
2166.0;2022.6;;;;;;;;;;;;;;;;;32.68914;8.697775;10.090182;;1947.9
2166.0;2022.6;;;;;;;;;;;;;;0.63002414;0.39197972;-0.20502335;;;;;1947.9
2166.0;2022.6;;;;;;;;;;;;;;;;;30.159916;6.469924;10.120701;;1947.9
2166.0;2022.6;;;;;;;;;;;;;;0.5924253;0.4361095;-0.21778008;;;;;1947.9
2166.0;2022.6;;;;;;;;;;;;;;;;;28.447065;4.2687764;9.918515;;1957.6
2166.0;2022.6;;;;;;;;;;;;;;0.5644093;0.4794458;-0.25019073;;;;;1957.6
2166.0;2022.6;;;;;;;;;;;;;;;;;26.356548;3.299814;9.720146;;1957.6
2166.0;2022.6;;;;;;;;;;;;;;0.5501267;0.5256508;-0.25214392;;;;;1957.6
2166.0;2024.5;;;;;;;;;;32.097843;33.635216;6.511887;;;;;;;;;
2166.0;2024.5;;;;;;;1.0171819;0.061281167;-0.29981384;;;;;;;;;;;;
2166.0;2024.5;;;;;;;;;;31.74688;35.481583;5.7985168;;;;;;;;;
2166.0;2024.5;;;;;;;1.0018616;0.056398205;-0.30365917;;;;;;;;;;;;
2166.0;2025.0;262143;262143;13112;;;;;;;;;;;;;;;;;;
2166.0;2030.6;;;;-0.7985116;-0.11103441;-0.286274;;;;;;;;;;;;;;;
2166.0;2030.6;;;;-0.7971841;-0.10881044;-0.28767017;;;;;;;;;;;;;;;
2166.0;2030.6;;;;-0.7955743;-0.106735244;-0.28974155;;;;;;;;;;;;;;;
2166.0;2030.6;;;;-0.7948228;-0.104770675;-0.29188922;;;;;;;;;;;;;;;
2166.0;2030.6;;;;-0.7942697;-0.10306932;-0.29472736;;;;;;;;;;;;;;;
2167.0;2034.1;;;;;;;;;;31.159399;37.003693;5.1080356;;;;;;;;;
2167.0;2034.1;;;;;;;0.984283;0.056154057;-0.30384228;;;;;;;;;;;;
2167.0;2034.1;;;;;;;;;;30.61388;37.980286;4.2878504;;;;;;;;;
2167.0;2034.1;;;;;;;0.9618213;0.05017243;-0.2985931;;;;;;;;;;;;
2167.0;2040.6;;;;-0.79488385;-0.10120393;-0.2972298;;;;;;;;;;;;;;;
2167.0;2040.6;;;;-0.79649365;-0.099029556;-0.30072787;;;;;;;;;;;;;;;
2167.0;2040.6;;;;-0.79880154;-0.09716798;-0.30422977;;;;;;;;;;;;;;;
2167.0;2040.6;;;;-0.80104077;-0.09529115;-0.30791858;;;;;;;;;;;;;;;
2167.0;2040.6;;;;-0.80318844;-0.093528755;-0.31135562;;;;;;;;;;;;;;;
2167.0;2043.7;;;;;;;;;;29.786066;38.686028;3.257851;;;;;;;;;
2167.0;2043.7;;;;;;;0.93581957;0.04510636;-0.2900479;;;;;;;;;;;;
2167.0;2043.7;;;;;;;;;;29.110844;38.888214;2.334666;;;;;;;;;
2167.0;2043.7;;;;;;;0.91927856;0.042542804;-0.27759635;;;;;;;;;;;;
2167.0;2045.1;262143;262143;13103;;;;;;;;;;;;;;;;;;
2167.0;2050.4;;;;-0.8045541;-0.091197975;-0.31476977;;;;;;;;;;;;;;;
2167.0;2050.4;;;;-0.80514157;-0.08871842;-0.3176537;;;;;;;;;;;;;;;
2167.0;2050.4;;;;-0.80497754;-0.085449226;-0.3202286;;;;;;;;;;;;;;;
2167.0;2050.4;;;;-0.8052522;-0.08221055;-0.32143405;;;;;;;;;;;;;;;
2167.0;2050.4;;;;-0.8053552;-0.07877732;-0.3230782;;;;;;;;;;;;;;;
2167.0;2051.0;;;;;;;;;;;;;3265;;;;;;;;
2167.0;2051.0;;;;;;;;;;;;;3198;;;;;;;;
2167.0;2051.0;;;;;;;;;;;;;3100;;;;;;;;
2167.0;2051.0;;;;;;;;;;;;;2761;;;;;;;;
2167.0;2051.0;;;;;;;;;;;;;2263;;;;;;;;
2169.0;2052.9;;;;;;;;;;28.225805;38.922546;1.4305551;;;;;;;;;
2169.0;2052.9;;;;;;;0.90285957;0.043153174;-0.26587725;;;;;;;;;;;;
2169.0;2052.9;;;;;;;;;;27.558214;38.342693;0.5226295;;;;;;;;;
2169.0;2052.9;;;;;;;0.87960446;0.04235969;-0.2531205;;;;;;;;;;;;
2169.0;2060.4;;;;-0.80495083;-0.074867256;-0.3245583;;;;;;;;;;;;;;;
2169.0;2060.4;;;;-0.80542386;-0.071651466;-0.3272095;;;;;;;;;;;;;;;
2169.0;2060.4;;;;-0.80611813;-0.06885148;-0.33030322;;;;;;;;;;;;;;;
2169.0;2060.4;;;;-0.80658734;-0.066257484;-0.33465198;;;;;;;;;;;;;;;
2169.0;2060.4;;;;-0.80656064;-0.06355668;-0.33902362;;;;;;;;;;;;;;;
2169.0;2062.6;;;;;;;;;;27.043215;36.97699;-0.40818506;;;;;;;;;
2169.0;2062.6;;;;;;;0.8514664;0.041871395;-0.24134037;;;;;;;;;;;;
2169.0;2062.6;;;;;;;;;;26.596882;34.84832;-1.1101108;;;;;;;;;
2169.0;2062.6;;;;;;;0.8200934;0.039490953;-0.23261207;;;;;;;;;;;;
2169.0;2065.1;262143;262143;13114;;;;;;;;;;;;;;;;;;
2169.0;2070.6;;;;-0.8062631;-0.061733253;-0.3432198;;;;;;;;;;;;;;;
2169.0;2070.6;;;;-0.80547726;-0.059734352;-0.347065;;;;;;;;;;;;;;;
2169.0;2070.6;;;;-0.8044473;-0.057262428;-0.35087207;;;;;;;;;;;;;;;
2169.0;2070.6;;;;-0.8023263;-0.054996498;-0.35485843;;;;;;;;;;;;;;;
2169.0;2070.6;;;;-0.80028546;-0.053043373;-0.35846332;;;;;;;;;;;;;;;
2169.0;2072.2;;;;;;;;;;26.158178;32.002472;-1.5259255;;;;;;;;;
2169.0;2072.2;;;;;;;0.7917722;0.036194954;-0.22040467;;;;;;;;;;;;
2169.0;2072.2;;;;;;;;;;25.627918;28.885769;-1.903592;;;;;;;;;
2169.0;2072.2;;;;;;;0.76845604;0.03912473;-0.21143223;;;;;;;;;;;;
2171.0;2080.7;;;;-0.79708874;-0.051719673;-0.3608742;;;;;;;;;;;;;;;
2171.0;2080.7;;;;-0.79410183;-0.05020524;-0.36314395;;;;;;;;;;;;;;;
2171.0;2080.7;;;;-0.7899896;-0.048572548;-0.36627963;;;;;;;;;;;;;;;
2171.0;2080.7;;;;-0.78817;-0.04779435;-0.36890414;;;;;;;;;;;;;;;
2171.0;2080.7;;;;-0.7864305;-0.047321327;-0.3721619;;;;;;;;;;;;;;;
2171.0;2082.1;;;;;;;;;;;;;;;;;23.55266;2.994629;9.788812;;1967.2
2171.0;2082.1;;;;;;;;;;;;;;0.54322946;0.5608081;-0.23175757;;;;;1967.2
2171.0;2082.1;;;;;;;;;;;;;;;;;20.233772;2.6055179;9.685812;;1967.2
2171.0;2082.1;;;;;;;;;;;;;;0.54371774;0.5799127;-0.21472824;;;;;1967.2
2171.0;2082.1;;;;;;;;;;;;;;;;;16.384624;2.9450362;9.750664;;1976.8
2171.0;2082.1;;;;;;;;;;;;;;0.53724784;0.58949554;-0.19653921;;;;;1976.8
2171.0;2082.1;;;;;;;;;;;;;;;;;12.321849;3.0823696;9.891811;;1976.8
2171.0;2082.1;;;;;;;;;;;;;;0.5287027;0.5762505;-0.19214454;;;;;1976.8
2171.0;2082.1;;;;;;;;;;;;;;;;;8.575701;3.0404067;9.792626;;1986.5
2171.0;2082.1;;;;;;;;;;;;;;0.5236366;0.55098116;-0.19141209;;;;;1986.5
2171.0;2082.1;;;;;;;;;;;;;;;;;4.795221;3.1243324;9.445479;;1986.5
2171.0;2082.1;;;;;;;;;;;;;;0.52192754;0.50825524;-0.19238868;;;;;1986.5
2171.0;2081.8;;;;;;;;;;25.109102;25.997955;-2.399518;;;;;;;;;
2171.0;2081.8;;;;;;;0.7477645;0.047791988;-0.20270394;;;;;;;;;;;;
2171.0;2081.8;;;;;;;;;;24.769585;23.316141;-2.8382213;;;;;;;;;
2171.0;2081.8;;;;;;;0.7312845;0.054017764;-0.19837031;;;;;;;;;;;;
2173.0;2083.2;;;;;;;;;;;;;;;;;0.8125553;3.9025545;9.212775;;1996.1
2173.0;2083.2;;;;;;;;;;;;;;0.5167394;0.46913052;-0.21893978;;;;;1996.1
2173.0;2083.2;;;;;;;;;;;;;;;;;-3.1090732;5.9091463;8.869442;;1996.1
2173.0;2083.2;;;;;;;;;;;;;;0.5060579;0.44013795;-0.21143223;;;;;1996.1
2173.0;2083.2;;;;;;;;;;;;;;;;;-6.4394054;7.1298866;8.510849;;2005.7
2173.0;2083.2;;;;;;;;;;;;;;0.51136816;0.41090122;-0.17273477;;;;;2005.7
2173.0;2083.2;;;;;;;;;;;;;;;;;-8.163702;7.816553;7.869961;;2005.7
2173.0;2083.2;;;;;;;;;;;;;;0.5202795;0.38709676;-0.15112767;;;;;2005.7
2173.0;2083.2;;;;;;;;;;;;;;;;;-7.26722;8.48033;6.576739;;2015.4
2173.0;2083.2;;;;;;;;;;;;;;0.5287027;0.3721427;-0.16235848;;;;;2015.4
2173.0;2083.2;;;;;;;;;;;;;;;;;-5.508591;9.838404;4.6845913;;2015.4
2173.0;2083.2;;;;;;;;;;;;;;0.5431074;0.36823633;-0.17859432;;;;;2015.4
2173.0;2085.2;262143;262143;13107;;;;;;;;;;;;;;;;;;
2173.0;2090.6;;;;-0.7836343;-0.04710389;-0.37533957;;;;;;;;;;;;;;;
2173.0;2090.6;;;;-0.78180325;-0.046634678;-0.38000494;;;;;;;;;;;;;;;
2173.0;2090.6;;;;-0.7810174;-0.046436314;-0.3847924;;;;;;;;;;;;;;;
2173.0;2090.6;;;;-0.77957547;-0.045570377;-0.3891526;;;;;;;;;;;;;;;
2173.0;2090.6;;;;-0.7773591;-0.044918064;-0.393776;;;;;;;;;;;;;;;
2173.0;2091.3;;;;;;;;;;;;;2064;;;;;;;;
2173.0;2091.3;;;;;;;;;;;;;2377;;;;;;;;
2173.0;2091.3;;;;;;;;;;;;;2786;;;;;;;;
2173.0;2091.3;;;;;;;;;;;;;2844;;;;;;;;
2173.0;2091.3;;;;;;;;;;;;;2662;;;;;;;;
2174.0;2091.3;;;;;;;;;;24.342327;20.878475;-3.276925;;;;;;;;;
2174.0;2091.3;;;;;;;0.7160863;0.061281167;-0.19409773;;;;;;;;;;;;
2174.0;2091.3;;;;;;;;;;23.922697;18.635365;-3.4371471;;;;;;;;;
2174.0;2091.3;;;;;;;0.69936216;0.06286813;-0.18842128;;;;;;;;;;;;
2174.0;2096.9;;;;;;;;;;;;;;;;;-4.032258;11.764886;3.0861845;;2025.1
2174.0;2096.9;;;;;;;;;;;;;;0.5495773;0.3714713;-0.18640706;;;;;2025.1
2174.0;2096.9;;;;;;;;;;;;;;;;;-2.8725548;13.2107;1.7548143;;2025.1
2174.0;2096.9;;;;;;;;;;;;;;0.5555589;0.37104404;-0.19995728;;;;;2025.1
2174.0;2096.9;;;;;;;;;;;;;;;;;-2.4872584;13.214515;0.8278146;;2034.7
2174.0;2096.9;;;;;;;;;;;;;;0.5652028;0.3734855;-0.21173742;;;;;2034.7
2174.0;2096.9;;;;;;;;;;;;;;;;;-2.7085178;12.405774;-0.0038148137;;2034.7
2174.0;2096.9;;;;;;;;;;;;;;0.5932188;0.38508254;-0.21350749;;;;;2034.7
2174.0;2096.9;;;;;;;;;;;;;;;;;-2.6741846;11.9556265;-0.6218146;;2044.3
2174.0;2096.9;;;;;;;;;;;;;;0.62245554;0.40156254;-0.23773919;;;;;2044.3
2174.0;2096.9;;;;;;;;;;;;;;;;;-2.338481;13.30607;-1.411481;;2044.3
2174.0;2096.9;;;;;;;;;;;;;;0.6391186;0.4342784;-0.24939726;;;;;2044.3
2174.0;2100.5;;;;-0.774933;-0.043800358;-0.39838797;;;;;;;;;;;;;;;
2174.0;2100.5;;;;-0.77154934;-0.042488102;-0.40266043;;;;;;;;;;;;;;;
2174.0;2100.5;;;;-0.7682344;-0.04098511;-0.4072991;;;;;;;;;;;;;;;
2174.0;2100.5;;;;-0.7635919;-0.039608005;-0.41149527;;;;;;;;;;;;;;;
2174.0;2100.5;;;;-0.75899136;-0.03871918;-0.4143029;;;;;;;;;;;;;;;
2174.0;2100.7;;;;;;;;;;23.461103;16.365551;-3.4752953;;;;;;;;;
2174.0;2100.7;;;;;;;0.6861171;0.06872769;-0.18512528;;;;;;;;;;;;
2174.0;2100.7;;;;;;;;;;22.965178;14.362774;-3.5973694;;;;;;;;;
2174.0;2100.7;;;;;;;0.6751305;0.075441755;-0.18408765;;;;;;;;;;;;
2223.0;2105.2;262143;262143;13114;;;;;;;;;;;;;;;;;;
2223.0;2110.3;;;;;;;;;;22.457808;12.8215885;-3.7270732;;;;;;;;;
2223.0;2110.3;;;;;;;0.6687826;0.08221687;-0.18378246;;;;;;;;;;;;
2223.0;2110.3;;;;;;;;;;21.83218;11.524552;-3.7385175;;;;;;;;;
2223.0;2110.3;;;;;;;0.6634114;0.0926542;-0.18512528;;;;;;;;;;;;
2223.0;2110.5;;;;-0.75372326;-0.038063053;-0.4164887;;;;;;;;;;;;;;;
2223.0;2110.5;;;;-0.7483979;-0.038265232;-0.416977;;;;;;;;;;;;;;;
2223.0;2110.5;;;;-0.7419434;-0.037681583;-0.4171372;;;;;;;;;;;;;;;
2223.0;2110.5;;;;-0.73693854;-0.03782654;-0.417553;;;;;;;;;;;;;;;
2223.0;2110.5;;;;-0.73245627;-0.03792954;-0.41806036;;;;;;;;;;;;;;;
2223.0;2119.3;;;;;;;;;;21.195105;10.319071;-3.8262582;;;;;;;;;
2223.0;2119.3;;;;;;;0.654622;0.096804716;-0.18366039;;;;;;;;;;;;
2223.0;2119.3;;;;;;;;;;20.546587;9.243294;-3.6355176;;;;;;;;;
2223.0;2119.3;;;;;;;0.65108186;0.101504564;-0.18372142;;;;;;;;;;;;
2223.0;2120.0;;;;-0.7296601;-0.037918095;-0.41785818;;;;;;;;;;;;;;;
2223.0;2120.0;;;;-0.7282601;-0.03889847;-0.4173928;;;;;;;;;;;;;;;
2223.0;2120.0;;;;-0.72679144;-0.0389061;-0.41683203;;;;;;;;;;;;;;;
2223.0;2120.0;;;;-0.7252732;-0.03923798;-0.41878897;;;;;;;;;;;;;;;
2223.0;2120.0;;;;-0.7239495;-0.03965378;-0.421856;;;;;;;;;;;;;;;
2223.0;2124.8;262143;262143;13118;;;;;;;;;;;;;;;;;;
2225.0;2128.8;;;;;;;;;;19.802696;8.140813;-3.543962;;;;;;;;;
2225.0;2128.8;;;;;;;0.6524857;0.10412916;-0.18274483;;;;;;;;;;;;
2225.0;2128.8;;;;;;;;;;19.104588;7.2634053;-3.7614062;;;;;;;;;
2225.0;2128.8;;;;;;;0.65645313;0.10956145;-0.18488114;;;;;;;;;;;;
2225.0;2130.1;;;;-0.7231141;-0.04082108;-0.4246102;;;;;;;;;;;;;;;
2225.0;2130.1;;;;-0.72157294;-0.041465763;-0.4265824;;;;;;;;;;;;;;;
2225.0;2130.1;;;;-0.7204209;-0.04255295;-0.42812735;;;;;;;;;;;;;;;
2225.0;2130.1;;;;-0.71744543;-0.043529514;-0.42947394;;;;;;;;;;;;;;;
2225.0;2130.1;;;;-0.7141076;-0.043052677;-0.42981344;;;;;;;;;;;;;;;
2225.0;2130.8;;;;;;;;;;;;;2569;;;;;;;;
2225.0;2130.8;;;;;;;;;;;;;2674;;;;;;;;
2225.0;2130.8;;;;;;;;;;;;;2790;;;;;;;;
2225.0;2130.8;;;;;;;;;;;;;2704;;;;;;;;
2225.0;2130.8;;;;;;;;;;;;;2498;;;;;;;;
2225.0;2138.5;;;;;;;;;;18.253883;6.5881834;-4.036073;;;;;;;;;
2225.0;2138.5;;;;;;;0.6567583;0.11713004;-0.1871395;;;;;;;;;;;;
2225.0;2138.5;;;;;;;;;;17.406994;6.088443;-4.1848507;;;;;;;;;
2225.0;2138.5;;;;;;;0.65627;0.12012085;-0.19055757;;;;;;;;;;;;
2225.0;2140.2;;;;-0.7124024;-0.043247227;-0.42890555;;;;;;;;;;;;;;;
2225.0;2140.2;;;;-0.7103997;-0.043472294;-0.4268456;;;;;;;;;;;;;;;
2225.0;2140.2;;;;-0.7061654;-0.043716434;-0.42433554;;;;;;;;;;;;;;;
2225.0;2140.2;;;;-0.7036858;-0.044017795;-0.4228478;;;;;;;;;;;;;;;
2225.0;2140.2;;;;-0.7036286;-0.044609074;-0.4218064;;;;;;;;;;;;;;;
2226.0;2141.6;;;;;;;;;;;;;;;;;-4.116184;13.61507;-1.6098514;;2054.0
2226.0;2141.6;;;;;;;;;;;;;;0.64442885;0.4312876;-0.28339487;;;;;2054.0
2226.0;2141.6;;;;;;;;;;;;;;;;;-4.39848;13.889736;-2.643666;;2054.0
2226.0;2141.6;;;;;;;;;;;;;;0.652913;0.41578418;-0.2865688;;;;;2054.0
2226.0;2141.6;;;;;;;;;;;;;;;;;-3.154851;13.439589;-4.993591;;2063.7
2226.0;2141.6;;;;;;;;;;;;;;0.6753136;0.4098636;-0.23773919;;;;;2063.7
2226.0;2141.6;;;;;;;;;;;;;;;;;-0.4768517;11.883144;-7.7059236;;2063.7
2226.0;2141.6;;;;;;;;;;;;;;0.7081515;0.37256998;-0.23236793;;;;;2063.7
2226.0;2141.6;;;;;;;;;;;;;;;;;1.9112216;12.88644;-10.406812;;2073.2
2226.0;2141.6;;;;;;;;;;;;;;0.7116916;0.34076968;-0.2797937;;;;;2073.2
2226.0;2141.6;;;;;;;;;;;;;;;;;3.1777399;15.884884;-12.874996;;2073.2
2226.0;2141.6;;;;;;;;;;;;;;0.70229197;0.31989503;-0.26239815;;;;;2073.2
2226.0;2144.9;262143;262143;13114;;;;;;;;;;;;;;;;;;
2226.0;2148.0;;;;;;;;;;16.468552;5.733665;-4.402295;;;;;;;;;
2226.0;2148.0;;;;;;;0.65810114;0.12439345;-0.19220558;;;;;;;;;;;;
2226.0;2148.0;;;;;;;;;;15.480514;5.474258;-4.7875915;;;;;;;;;
2226.0;2148.0;;;;;;;0.66389966;0.12640767;-0.19464706;;;;;;;;;;;;
2226.0;2150.2;;;;-0.7045899;-0.046146397;-0.42105108;;;;;;;;;;;;;;;
2226.0;2150.2;;;;-0.70735174;-0.04780961;-0.42028815;;;;;;;;;;;;;;;
2226.0;2150.2;;;;-0.71065146;-0.049106605;-0.4182244;;;;;;;;;;;;;;;
2226.0;2150.2;;;;-0.7135697;-0.050796516;-0.41548544;;;;;;;;;;;;;;;
2226.0;2150.2;;;;-0.71522146;-0.05226136;-0.41305548;;;;;;;;;;;;;;;
2227.0;2156.6;;;;;;;;;;;;;;;;;5.1004057;17.033142;-15.076143;;2082.9
2227.0;2156.6;;;;;;;;;;;;;;0.70851773;0.30939665;-0.22498246;;;;;2082.9
2227.0;2156.6;;;;;;;;;;;;;;;;;8.308664;18.555254;-17.250587;;2082.9
2227.0;2156.6;;;;;;;;;;;;;;0.70223093;0.3106174;-0.21350749;;;;;2082.9
2227.0;2156.6;;;;;;;;;;;;;;;;;11.391033;20.516068;-19.428846;;2092.6
2227.0;2156.6;;;;;;;;;;;;;;0.6882534;0.31159398;-0.21753594;;;;;2092.6
2227.0;2156.6;;;;;;;;;;;;;;;;;14.202551;22.297585;-21.748253;;2092.6
2227.0;2156.6;;;;;;;;;;;;;;0.6906339;0.30408642;-0.21387371;;;;;2092.6
2227.0;2156.6;;;;;;;;;;;;;;;;;17.071291;25.292213;-24.0524;;2102.1
2227.0;2156.6;;;;;;;;;;;;;;0.68745995;0.3053682;-0.21887875;;;;;2102.1
2227.0;2156.6;;;;;;;;;;;;;;;;;19.413588;29.072695;-26.299326;;2102.1
2227.0;2156.6;;;;;;;;;;;;;;0.66872156;0.31629384;-0.23682363;;;;;2102.1
2227.0;2157.4;;;;;;;;;;14.397107;5.512406;-5.344554;;;;;;;;;
2227.0;2157.4;;;;;;;0.6762291;0.12799463;-0.19953002;;;;;;;;;;;;
2227.0;2157.4;;;;;;;;;;13.435774;5.6573687;-6.1189613;;;;;;;;;
2227.0;2157.4;;;;;;;0.6855678;0.13153477;-0.2059389;;;;;;;;;;;;
2227.0;2160.1;;;;-0.71731573;-0.053863533;-0.41190726;;;;;;;;;;;;;;;
2227.0;2160.1;;;;-0.71752936;-0.05505372;-0.40972525;;;;;;;;;;;;;;;
2227.0;2160.1;;;;-0.71591574;-0.05641938;-0.40650564;;;;;;;;;;;;;;;
2227.0;2160.1;;;;-0.7148629;-0.058086403;-0.40443045;;;;;;;;;;;;;;;
2227.0;2160.1;;;;-0.71366125;-0.059761055;-0.40323645;;;;;;;;;;;;;;;
2227.0;2165.0;262143;262143;13125;;;;;;;;;;;;;;;;;;
2281.0;2167.0;;;;;;;;;;12.436293;5.8175907;-6.8475904;;;;;;;;;
2281.0;2167.0;;;;;;;0.6877651;0.13629566;-0.21283609;;;;;;;;;;;;
2281.0;2167.0;;;;;;;;;;11.406293;5.8862576;-7.3397017;;;;;;;;;
2281.0;2167.0;;;;;;;0.68996245;0.13739432;-0.21716972;;;;;;;;;;;;
2281.0;2170.2;;;;-0.7114487;-0.06171418;-0.4023896;;;;;;;;;;;;;;;
2281.0;2170.2;;;;-0.71077734;-0.06544114;-0.40015417;;;;;;;;;;;;;;;
2281.0;2170.2;;;;-0.711937;-0.06972886;-0.3984986;;;;;;;;;;;;;;;
2281.0;2170.2;;;;-0.7161446;-0.07476426;-0.39722067;;;;;;;;;;;;;;;
2281.0;2170.2;;;;-0.7224389;-0.07970811;-0.39453894;;;;;;;;;;;;;;;
2281.0;2171.0;;;;;;;;;;;;;2471;;;;;;;;
2281.0;2171.0;;;;;;;;;;;;;2585;;;;;;;;
2281.0;2171.0;;;;;;;;;;;;;2390;;;;;;;;
2281.0;2171.0;;;;;;;;;;;;;1884;;;;;;;;
2281.0;2171.0;;;;;;;;;;;;;1577;;;;;;;;
2281.0;2176.5;;;;;;;;;;10.414441;5.93585;-7.7478867;;;;;;;;;
2281.0;2176.5;;;;;;;0.69209874;0.13776055;-0.22211371;;;;;;;;;;;;
2281.0;2176.5;;;;;;;;;;9.43022;5.4780726;-8.293406;;;;;;;;;
2281.0;2176.5;;;;;;;0.69820243;0.14001893;-0.22846156;;;;;;;;;;;;
2281.0;2180.1;;;;-0.7280312;-0.08430482;-0.39264685;;;;;;;;;;;;;;;
2281.0;2180.1;;;;-0.7328988;-0.08776093;-0.3910218;;;;;;;;;;;;;;;
2281.0;2180.1;;;;-0.7363358;-0.09077454;-0.3888169;;;;;;;;;;;;;;;
2281.0;2180.1;;;;-0.73833853;-0.09349442;-0.3875199;;;;;;;;;;;;;;;
2281.0;2180.1;;;;-0.73701864;-0.095253006;-0.3866654;;;;;;;;;;;;;;;
2281.0;2185.1;262143;262143;13123;;;;;;;;;;;;;;;;;;
2285.0;2186.1;;;;;;;;;;8.445998;4.932554;-8.919034;;;;;;;;;
2285.0;2186.1;;;;;;;0.7052217;0.14416943;-0.23340556;;;;;;;;;;;;
2285.0;2186.1;;;;;;;;;;7.5838494;4.730369;-9.475998;;;;;;;;;
2285.0;2186.1;;;;;;;0.71102023;0.14642781;-0.23535874;;;;;;;;;;;;
2285.0;2190.3;;;;-0.73192984;-0.09460069;-0.38550955;;;;;;;;;;;;;;;
2285.0;2190.3;;;;-0.73164755;-0.09514238;-0.38508993;;;;;;;;;;;;;;;
2285.0;2190.3;;;;-0.7332993;-0.100166336;-0.38650137;;;;;;;;;;;;;;;
2285.0;2190.3;;;;-0.7332383;-0.10749437;-0.3882218;;;;;;;;;;;;;;;
2285.0;2190.3;;;;-0.73497397;-0.11543657;-0.39052588;;;;;;;;;;;;;;;
2285.0;2195.7;;;;;;;;;;6.7636647;4.486221;-9.880367;;;;;;;;;
2285.0;2195.7;;;;;;;0.7129124;0.14911343;-0.23938718;;;;;;;;;;;;
2285.0;2195.7;;;;;;;;;;5.9282207;4.3679614;-10.250404;;;;;;;;;
2285.0;2195.7;;;;;;;0.71016574;0.15015107;-0.24182867;;;;;;;;;;;;
2285.0;2200.4;;;;-0.7378579;-0.12610628;-0.39388663;;;;;;;;;;;;;;;
2285.0;2200.4;;;;-0.7414933;-0.13653947;-0.3985253;;;;;;;;;;;;;;;
2285.0;2200.4;;;;-0.7489396;-0.14696123;-0.4028321;;;;;;;;;;;;;;;
2285.0;2200.4;;;;-0.7586595;-0.15620042;-0.40819556;;;;;;;;;;;;;;;
2285.0;2200.4;;;;-0.7739717;-0.16254045;-0.41609198;;;;;;;;;;;;;;;
2286.0;2202.3;;;;;;;;;;;;;;;;;21.526995;32.23899;-28.572954;;2111.8
2286.0;2202.3;;;;;;;;;;;;;;0.65004426;0.3345439;-0.2334666;;;;;2111.8
2286.0;2202.3;;;;;;;;;;;;;;;;;23.644215;34.955135;-30.972471;;2111.8
2286.0;2202.3;;;;;;;;;;;;;;0.6330149;0.3439436;-0.22772911;;;;;2111.8
2286.0;2202.3;;;;;;;;;;;;;;;;;25.3914;37.85821;-33.49788;;2121.4
2286.0;2202.3;;;;;;;;;;;;;;0.62483597;0.3686636;-0.22333445;;;;;2121.4
2286.0;2202.3;;;;;;;;;;;;;;;;;26.554918;41.531876;-35.96225;;2121.4
2286.0;2202.3;;;;;;;;;;;;;;0.6021302;0.40443128;-0.24628437;;;;;2121.4
2286.0;2202.3;;;;;;;;;;;;;;;;;26.84866;44.843132;-38.571583;;2131.0
2286.0;2202.3;;;;;;;;;;;;;;0.58821374;0.41669974;-0.23328349;;;;;2131.0
2286.0;2202.3;;;;;;;;;;;;;;;;;26.41377;46.86117;-41.34495;;2131.0
2286.0;2202.3;;;;;;;;;;;;;;0.5948668;0.41688284;-0.1779229;;;;;2131.0
2286.0;2205.2;;;;;;;;;;5.184332;4.100925;-10.711997;;;;;;;;;
2286.0;2205.2;;;;;;;0.7108371;0.15094455;-0.2478103;;;;;;;;;;;;
2286.0;2205.2;;;;;;;;;;4.4709616;3.5096285;-11.123997;;;;;;;;;
2286.0;2205.2;;;;;;;0.7171239;0.14978485;-0.25434124;;;;;;;;;;;;
2286.0;2205.2;262143;262143;13132;;;;;;;;;;;;;;;;;;
2286.0;2210.3;;;;-0.79252636;-0.16720201;-0.42592627;;;;;;;;;;;;;;;
2286.0;2210.3;;;;-0.8097497;-0.17126085;-0.4361115;;;;;;;;;;;;;;;
2286.0;2210.3;;;;-0.8244287;-0.17400743;-0.44793326;;;;;;;;;;;;;;;
2286.0;2210.3;;;;-0.83604443;-0.17531206;-0.45928198;;;;;;;;;;;;;;;
2286.0;2210.3;;;;-0.8472444;-0.17779543;-0.46952444;;;;;;;;;;;;;;;
2288.0;2211.2;;;;;;;;;;;;;1769;;;;;;;;
2288.0;2211.2;;;;;;;;;;;;;2215;;;;;;;;
2288.0;2211.2;;;;;;;;;;;;;2484;;;;;;;;
2288.0;2211.2;;;;;;;;;;;;;2633;;;;;;;;
2288.0;2211.2;;;;;;;;;;;;;2931;;;;;;;;
2288.0;2214.8;;;;;;;;;;3.9063692;2.822962;-11.46733;;;;;;;;;
2288.0;2214.8;;;;;;;0.7286599;0.14972381;-0.2642903;;;;;;;;;;;;
2288.0;2214.8;;;;;;;;;;3.3417768;2.010407;-11.772515;;;;;;;;;
2288.0;2214.8;;;;;;;0.7332987;0.14972381;-0.27088228;;;;;;;;;;;;
2288.0;2217.0;;;;;;;;;;;;;;;;;25.551622;48.8258;-44.473095;;2140.7
2288.0;2217.0;;;;;;;;;;;;;;0.6193426;0.42097232;-0.15735343;;;;;2140.7
2288.0;2217.0;;;;;;;;;;;;;;;;;23.419142;53.716393;-47.971283;;2140.7
2288.0;2217.0;;;;;;;;;;;;;;0.6108585;0.42793053;-0.16431166;;;;;2140.7
2288.0;2217.0;;;;;;;;;;;;;;;;;20.661032;58.03476;-51.637318;;2150.3
2288.0;2217.0;;;;;;;;;;;;;;0.5857723;0.4365978;-0.1821955;;;;;2150.3
2288.0;2217.0;;;;;;;;;;;;;;;;;18.269142;60.05661;-55.87939;;2150.3
2288.0;2217.0;;;;;;;;;;;;;;0.5717948;0.44703513;-0.22986542;;;;;2150.3
2288.0;2217.0;;;;;;;;;;;;;;;;;14.778588;61.552017;-60.701313;;2159.9
2288.0;2217.0;;;;;;;;;;;;;;0.58424634;0.4491104;-0.21942808;;;;;2159.9
2288.0;2217.0;;;;;;;;;;;;;;;;;11.112552;62.02887;-66.49983;;2159.9
2288.0;2217.0;;;;;;;;;;;;;;0.64015627;0.44233528;-0.146733;;;;;2159.9
2288.0;2220.3;;;;-0.855919;-0.17798235;-0.48037726;;;;;;;;;;;;;;;
2288.0;2220.3;;;;-0.8632127;-0.17774202;-0.4909745;;;;;;;;;;;;;;;
2288.0;2220.3;;;;-0.8722421;-0.17787172;-0.50173575;;;;;;;;;;;;;;;
2288.0;2220.3;;;;-0.8813859;-0.17721178;-0.5132256;;;;;;;;;;;;;;;
2288.0;2220.3;;;;-0.89323056;-0.17566301;-0.5262566;;;;;;;;;;;;;;;
2341.0;2224.4;;;;;;;;;;2.845851;0.90792567;-12.176886;;;;;;;;;
2341.0;2224.4;;;;;;;0.73659474;0.14893033;-0.27527696;;;;;;;;;;;;
2341.0;2224.4;;;;;;;;;;2.3308513;-0.34333324;-12.573626;;;;;;;;;
2341.0;2224.4;;;;;;;0.73134553;0.14777063;-0.27942747;;;;;;;;;;;;
2341.0;2225.4;262143;262143;13135;;;;;;;;;;;;;;;;;;
2341.0;2230.4;;;;-0.90683377;-0.1736107;-0.5359841;;;;;;;;;;;;;;;
2341.0;2230.4;;;;-0.9234468;-0.17177965;-0.5445748;;;;;;;;;;;;;;;
2341.0;2230.4;;;;-0.9407693;-0.16955186;-0.5528222;;;;;;;;;;;;;;;
2341.0;2230.4;;;;-0.95728695;-0.16732408;-0.5593224;;;;;;;;;;;;;;;
2341.0;2230.4;;;;-0.97129834;-0.1654358;-0.56631476;;;;;;;;;;;;;;;
2341.0;2233.9;;;;;;;;;;1.7128513;-1.5297403;-12.99707;;;;;;;;;
2341.0;2233.9;;;;;;;0.72225106;0.1513718;-0.28333384;;;;;;;;;;;;
2341.0;2233.9;;;;;;;;;;0.9765923;-2.746666;-13.462478;;;;;;;;;
2341.0;2233.9;;;;;;;0.7150487;0.15228736;-0.28351694;;;;;;;;;;;;
2341.0;2240.4;;;;-0.98311245;-0.16300584;-0.5730553;;;;;;;;;;;;;;;
2341.0;2240.4;;;;-0.99222195;-0.16181184;-0.57741934;;;;;;;;;;;;;;;
2341.0;2240.4;;;;-1.0007364;-0.16069795;-0.58284;;;;;;;;;;;;;;;
2341.0;2240.4;;;;-1.0076905;-0.16056825;-0.5862351;;;;;;;;;;;;;;;
2341.0;2240.4;;;;-1.0159837;-0.15968706;-0.586979;;;;;;;;;;;;;;;
2341.0;2243.4;;;;;;;;;;0.45777765;-4.4328136;-13.790551;;;;;;;;;
2341.0;2243.4;;;;;;;0.7118747;0.15655996;-0.28736228;;;;;;;;;;;;
2341.0;2243.4;;;;;;;;;;-0.11444441;-6.084628;-14.114811;;;;;;;;;
2341.0;2243.4;;;;;;;0.70802945;0.15588854;-0.28809473;;;;;;;;;;;;
2345.0;2245.4;262143;262143;13130;;;;;;;;;;;;;;;;;;
2345.0;2250.5;;;;-1.0273324;-0.15849306;-0.58747107;;;;;;;;;;;;;;;
2345.0;2250.5;;;;-1.0403711;-0.1595154;-0.5881997;;;;;;;;;;;;;;;
2345.0;2250.5;;;;-1.0525934;-0.16170885;-0.58821875;;;;;;;;;;;;;;;
2345.0;2250.5;;;;-1.0633622;-0.1646538;-0.58655936;;;;;;;;;;;;;;;
2345.0;2250.5;;;;-1.0731584;-0.16763307;-0.5838776;;;;;;;;;;;;;;;
2345.0;2251.5;;;;;;;;;;;;;3285;;;;;;;;
2345.0;2251.5;;;;;;;;;;;;;3179;;;;;;;;
2345.0;2251.5;;;;;;;;;;;;;2572;;;;;;;;
2345.0;2251.5;;;;;;;;;;;;;2399;;;;;;;;
2345.0;2251.5;;;;;;;;;;;;;3640;;;;;;;;
2345.0;2253.1;;;;;;;;;;-0.7057405;-7.6448865;-14.515367;;;;;;;;;
2345.0;2253.1;;;;;;;0.70961636;0.1558275;-0.2863857;;;;;;;;;;;;
2345.0;2253.1;;;;;;;;;;-1.3847773;-9.041108;-15.091403;;;;;;;;;
2345.0;2253.1;;;;;;;0.71285135;0.16028321;-0.29010895;;;;;;;;;;;;
2345.0;2260.6;;;;-1.0790902;-0.17053606;-0.5787392;;;;;;;;;;;;;;;
2345.0;2260.6;;;;-1.0851213;-0.1734543;-0.5730439;;;;;;;;;;;;;;;
2345.0;2260.6;;;;-1.0906183;-0.17588426;-0.566227;;;;;;;;;;;;;;;
2345.0;2260.6;;;;-1.0938569;-0.17779161;-0.5583802;;;;;;;;;;;;;;;
2345.0;2260.6;;;;-1.097252;-0.17977907;-0.55094916;;;;;;;;;;;;;;;
2346.0;2262.2;;;;;;;;;;;;;;;;;8.358257;62.646873;-73.75179;;2169.6
2346.0;2262.2;;;;;;;;;;;;;;0.7049776;0.43885615;-0.094485305;;;;;2169.6
2346.0;2262.2;;;;;;;;;;;;;;;;;6.7979984;63.64254;-82.57164;;2169.6
2346.0;2262.2;;;;;;;;;;;;;;0.76082647;0.45350504;-0.08777124;;;;;2169.6
2346.0;2262.2;;;;;;;;;;;;;;;;;6.195257;63.055054;-92.463455;;2179.3
2346.0;2262.2;;;;;;;;;;;;;;0.83278906;0.4786523;-0.09454634;;;;;2179.3
2346.0;2262.2;;;;;;;;;;;;;;;;;5.0737023;59.49965;-102.782524;;2179.3
2346.0;2262.2;;;;;;;;;;;;;;0.9666433;0.49897763;-0.09509568;;;;;2179.3
2346.0;2262.2;;;;;;;;;;;;;;;;;3.8529618;55.806908;-113.12448;;2189.0
2346.0;2262.2;;;;;;;;;;;;;;1.1463362;0.5215003;-0.1180456;;;;;2189.0
2346.0;2262.2;;;;;;;;;;;;;;;;;2.9984436;55.013428;-122.19229;;2189.0
2346.0;2262.2;;;;;;;;;;;;;;1.3129063;0.6204413;-0.15814692;;;;;2189.0
2346.0;2262.6;;;;;;;;;;-2.0485551;-10.162663;-15.64455;;;;;;;;;
2346.0;2262.6;;;;;;;0.7174291;0.16333507;-0.2880337;;;;;;;;;;;;
