patientId;holterMac;flexMac;;;;;;;;;;;;;;;;;;;;
stairsup;CA:F3:0B:1E:33:78;D3:4A:5C:52:80:78;;;;;;;;;;;;;;;;;;;;
receivedTimeStamp;timeStamp;red;ir;green;adxl_accX;adxl_accY;adxl_accZ;lsm_accelX;lsm_accelY;lsm_accelZ;lsm_gyroX;lsm_gyroY;lsm_gyroZ;ecg;flex_lsm_accelX;flex_lsm_accelY;flex_lsm_accelZ;flex_lsm_gyroX;flex_lsm_gyroY;flex_lsm_gyroZ;flex_cmd;flexTimeStamp
308.0;212.5;;;;;;;;;;;;;;;;;;;;17;0.1
308.0;212.5;;;;;;;;;;;;;;;;;17.437513;-3.1090732;1.1406293;;127.4
308.0;212.5;;;;;;;;;;;;;;0.705771;0.1727958;-0.5137486;;;;;127.4
308.0;212.5;;;;;;;;;;;;;;;;;-6.130406;-19.703512;-8.915219;;127.4
308.0;212.5;;;;;;;;;;;;;;0.7536241;0.21973327;-0.51185644;;;;;127.4
308.0;212.5;;;;;;;;;;;;;;;;;-72.84768;-85.573906;-66.08402;;137.1
308.0;212.5;;;;;;;;;;;;;;0.75685906;0.22431104;-0.5399945;;;;;137.1
308.0;212.5;;;;;;;;;;;;;;;;;-123.924225;-124.988556;-122.074036;;137.1
308.0;212.5;;;;;;;;;;;;;;0.7614368;0.2329783;-0.5236366;;;;;137.1
502.0;220.3;;;;;;;;;;;;;;;;;-101.10019;-124.988556;-98.715935;;146.7
502.0;220.3;;;;;;;;;;;;;;0.74385816;0.21369061;-0.5258339;;;;;146.7
502.0;220.3;;;;;;;;;;;;;;;;;-100.97049;-124.988556;-83.010345;;146.7
502.0;220.3;;;;;;;;;;;;;;0.7045503;0.19031343;-0.50178534;;;;;146.7
502.0;220.3;;;;;;;;;;;;;;;;;-123.26426;-106.532486;-85.9859;;156.4
502.0;220.3;;;;;;;;;;;;;;0.6697592;0.16638692;-0.49092075;;;;;156.4
502.0;220.3;;;;;;;;;;;;;;;;;-124.988556;-42.69921;-65.41643;;156.4
502.0;220.3;;;;;;;;;;;;;;0.6494339;0.135197;-0.47309792;;;;;156.4
502.0;220.3;;;;;;;;;;;;;;;;;-124.988556;-38.10236;-62.253944;;166.0
502.0;220.3;;;;;;;;;;;;;;0.62410355;0.11206397;-0.45643482;;;;;166.0
502.0;220.3;;;;;;;;;;;;;;;;;-124.988556;-37.869656;-60.6975;;166.0
502.0;220.3;;;;;;;;;;;;;;0.618305;0.08832057;-0.42896816;;;;;166.0
502.0;272.8;;;;;;;;;;;;;;;;;-124.988556;-38.258766;-58.0958;;175.6
502.0;272.8;;;;;;;;;;;;;;0.60072637;0.059755243;-0.40473646;;;;;175.6
502.0;272.8;;;;;;;;;;;;;;;;;-124.988556;-38.827175;-55.677204;;175.6
502.0;272.8;;;;;;;;;;;;;;0.5710623;0.030823695;-0.39387187;;;;;175.6
502.0;272.8;;;;;;;;;;;;;;;;;-124.988556;-38.510544;-53.24717;;185.2
502.0;272.8;;;;;;;;;;;;;;0.5462203;0.009765923;-0.35950804;;;;;185.2
502.0;272.8;;;;;;;;;;;;;;;;;-124.988556;-39.151432;-50.073242;;185.2
502.0;272.8;;;;;;;;;;;;;;0.5117954;-0.007141331;-0.33967102;;;;;185.2
502.0;272.8;;;;;;;;;;;;;;;;;-124.988556;-39.36506;-47.803432;;194.6
502.0;272.8;;;;;;;;;;;;;;0.47212133;-0.03540147;-0.2969451;;;;;194.6
502.0;272.8;;;;;;;;;;;;;;;;;-124.988556;-39.89532;-45.976135;;194.6
502.0;272.8;;;;;;;;;;;;;;0.44386122;-0.046143986;-0.24115726;;;;;194.6
504.0;280.2;;;;;;;;;;;;;;;;;-124.988556;-41.745506;-43.809322;;204.3
504.0;280.2;;;;;;;;;;;;;;0.43208104;-0.06323435;-0.19690542;;;;;204.3
504.0;280.2;;;;;;;;;;;;;;;;;-124.988556;-42.245247;-42.39021;;204.3
504.0;280.2;;;;;;;;;;;;;;0.3963744;-0.09424116;-0.14819789;;;;;204.3
504.0;280.2;;;;;;;;;;;;;;;;;-124.988556;-43.153175;-41.447952;;213.9
504.0;280.2;;;;;;;;;;;;;;0.384167;-0.098818935;-0.096499525;;;;;213.9
504.0;280.2;;;;;;;;;;;;;;;;;-124.988556;-44.942318;-40.39506;;213.9
504.0;280.2;;;;;;;;;;;;;;0.3723258;-0.09936827;-0.061891537;;;;;213.9
504.0;280.2;;;;;;;;;;;;;;;;;-124.988556;-46.72384;-39.838097;;223.6
504.0;280.2;;;;;;;;;;;;;;0.36347544;-0.09027375;-0.034058657;;;;;223.6
504.0;280.2;;;;;;;;;;;;;;;;;-124.988556;-48.589283;-39.456615;;223.6
504.0;280.2;;;;;;;;;;;;;;0.3588977;-0.083254494;-0.01861629;;;;;223.6
504.0;333.1;;;;;;;;;;;;;;;;;-124.988556;-51.084167;-39.5558;;233.3
504.0;333.1;;;;;;;;;;;;;;0.36164433;-0.0949736;-0.0074465163;;;;;233.3
504.0;333.1;;;;;;;;;;;;;;;;;-124.988556;-53.68206;-39.35743;;233.3
504.0;333.1;;;;;;;;;;;;;;0.3942381;-0.022766808;-0.044740137;;;;;233.3
504.0;333.1;;;;;;;;;;;;;;;;;-123.59233;-50.584427;-34.649952;;242.9
504.0;333.1;;;;;;;;;;;;;;0.33039337;-0.06836146;-0.0081179235;;;;;242.9
504.0;333.1;;;;;;;;;;;;;;;;;-115.14634;-50.03128;-32.715843;;242.9
504.0;333.1;;;;;;;;;;;;;;0.31763664;-0.074892424;0.046754356;;;;;242.9
504.0;333.1;;;;;;;;;;;;;;;;;-105.73138;-51.969208;-31.125065;;252.6
504.0;333.1;;;;;;;;;;;;;;0.3361919;-0.06146428;0.03875851;;;;;252.6
504.0;333.1;;;;;;;;;;;;;;;;;-100.26475;-53.304394;-29.072695;;252.6
504.0;333.1;;;;;;;;;;;;;;0.36909086;-0.07519761;-0.01843318;;;;;252.6
505.0;333.8;;;;;;;;;;;;;;;;;-95.46953;-52.243874;-26.50151;;262.2
505.0;333.8;;;;;;;;;;;;;;0.38099307;-0.067873165;-0.032044437;;;;;262.2
505.0;333.8;;;;;;;;;;;;;;;;;-90.09445;-51.03076;-23.312326;;262.2
505.0;333.8;;;;;;;;;;;;;;0.37916195;-0.04382458;-0.03503525;;;;;262.2
505.0;333.8;;;;;;;;;;;;;;;;;-85.497604;-49.535355;-19.52803;;271.9
505.0;333.8;;;;;;;;;;;;;;0.36384168;-0.018494217;-0.033326212;;;;;271.9
505.0;333.8;;;;;;;;;;;;;;;;;-81.41956;-48.448135;-15.7284775;;271.9
505.0;333.8;;;;;;;;;;;;;;0.34406567;-0.011902219;-0.040101323;;;;;271.9
505.0;333.8;;;;;;;;;;;;;;;;;-75.464645;-48.631245;-12.2646265;;281.5
505.0;333.8;;;;;;;;;;;;;;0.31672108;-0.0073854793;-0.05322428;;;;;281.5
505.0;333.8;;;;;;;;;;;;;;;;;-67.10639;-48.844875;-9.907071;;281.5
505.0;333.8;;;;;;;;;;;;;;0.28467667;0.020203253;-0.06549272;;;;;281.5
505.0;393.9;;;;;;;;;;;;;;;;;-56.581318;-51.484726;-7.801294;;291.2
505.0;393.9;;;;;;;;;;;;;;0.24555193;0.09118931;-0.08008057;;;;;291.2
505.0;393.9;;;;;;;;;;;;;;;;;-46.628468;-57.44728;-5.279702;;291.2
505.0;393.9;;;;;;;;;;;;;;0.23621327;0.1739555;-0.12512589;;;;;291.2
505.0;393.9;;;;;;;;;;;;;;;;;-36.73284;-62.746056;-2.422407;;300.9
505.0;393.9;;;;;;;;;;;;;;0.25757623;0.28333384;-0.17041536;;;;;300.9
505.0;393.9;;;;;;;;;;;;;;;;;-26.562548;-67.81594;0.37003693;;300.9
505.0;393.9;;;;;;;;;;;;;;0.2611774;0.38892788;-0.2252266;;;;;300.9
505.0;393.9;;;;;;;;;;;;;;;;;-15.484328;-73.40083;2.8496659;;310.6
505.0;393.9;;;;;;;;;;;;;;0.27845088;0.49720755;-0.25782037;;;;;310.6
505.0;393.9;;;;;;;;;;;;;;;;;-4.9211097;-80.27512;5.32548;;310.6
505.0;393.9;;;;;;;;;;;;;;0.30561236;0.5780816;-0.2997528;;;;;310.6
550.0;394.7;;;;;;;;;;;;;;;;;5.8481092;-86.98538;7.7745905;;320.2
550.0;394.7;;;;;;;;;;;;;;0.3767205;0.68678856;-0.36146122;;;;;320.2
550.0;394.7;;;;;;;;;;;;;;;;;15.911589;-92.77627;10.765405;;320.2
550.0;394.7;;;;;;;;;;;;;;0.41901913;0.7482528;-0.4141972;;;;;320.2
550.0;394.7;;;;;;;;;;;;;;;;;23.487808;-94.96597;15.121922;;329.9
550.0;394.7;;;;;;;;;;;;;;0.46717733;0.7991577;-0.46565142;;;;;329.9
550.0;394.7;;;;;;;;;;;;;;;;;28.576769;-94.786674;21.874142;;329.9
550.0;394.7;;;;;;;;;;;;;;0.4740745;0.78670615;-0.509476;;;;;329.9
550.0;394.7;;;;;;;;;;;;;;;;;30.022583;-91.441086;30.61388;;339.5
550.0;394.7;;;;;;;;;;;;;;0.48866236;0.7603381;-0.55360574;;;;;339.5
550.0;394.7;;;;;;;;;;;;;;;;;28.412733;-84.303566;40.34547;;339.5
550.0;394.7;;;;;;;;;;;;;;0.5042268;0.7166967;-0.63057345;;;;;339.5
550.0;454.1;;;;;;;;;;;;;;;;;23.834957;-73.05368;50.90106;;349.2
550.0;454.1;;;;;;;;;;;;;;0.43684193;0.6418043;-0.64259773;;;;;349.2
550.0;454.1;;;;;;;;;;;;;;;;;17.151402;-64.45128;62.967316;;349.2
550.0;454.1;;;;;;;;;;;;;;0.38117617;0.53279215;-0.61415446;;;;;349.2
550.0;454.1;;;;;;;;;;;;;;;;;8.617663;-59.877316;76.32298;;358.7
550.0;454.1;;;;;;;;;;;;;;0.32697532;0.40076905;-0.6103702;;;;;358.7
550.0;454.1;;;;;;;;;;;;;;;;;-0.6714072;-58.046207;88.5609;;358.7
550.0;454.1;;;;;;;;;;;;;;0.30658895;0.2494583;-0.55256814;;;;;358.7
550.0;454.1;;;;;;;;;;;;;;;;;-10.425886;-59.678947;98.708305;;368.2
550.0;454.1;;;;;;;;;;;;;;0.29023102;0.111514635;-0.49067658;;;;;368.2
550.0;454.1;;;;;;;;;;;;;;;;;-18.669699;-63.03598;106.87201;;368.2
550.0;454.1;;;;;;;;;;;;;;0.33082065;-4.8829615E-4;-0.46327096;;;;;368.2
612.0;454.8;;;;;;;;;;;;;;;;;-23.533587;-60.583054;113.60896;;377.9
612.0;454.8;;;;;;;;;;;;;;0.375927;-0.07818842;-0.37568286;;;;;377.9
612.0;454.8;;;;;;;;;;;;;;;;;-23.274178;-56.74154;118.5606;;377.9
612.0;454.8;;;;;;;;;;;;;;0.4153569;-0.11456648;-0.26886806;;;;;377.9
612.0;454.8;;;;;;;;;;;;;;;;;-16.144293;-55.93661;120.51759;;387.5
612.0;454.8;;;;;;;;;;;;;;0.39509264;-0.06140324;-0.18231757;;;;;387.5
612.0;454.8;;;;;;;;;;;;;;;;;-5.32548;-69.08246;117.99982;;387.5
612.0;454.8;;;;;;;;;;;;;;0.46699423;0.13293862;-0.21362957;;;;;387.5
612.0;454.8;;;;;;;;;;;;;;;;;-4.8677025;-75.10606;115.6766;;397.2
612.0;454.8;;;;;;;;;;;;;;0.7184057;0.35633412;-0.11780145;;;;;397.2
612.0;454.8;;;;;;;;;;;;;;;;;-13.901181;-64.72976;114.20408;;397.2
612.0;454.8;;;;;;;;;;;;;;0.99697864;0.60267955;0.2727134;;;;;397.2
612.0;514.4;;;;;;;;;;;;;;;;;-5.4628134;-61.986908;110.00778;;406.9
612.0;514.4;;;;;;;;;;;;;;1.2509537;0.84670556;0.20117801;;;;;406.9
612.0;514.4;;;;;;;;;;;;;;;;;45.609913;-76.24287;99.16226;;406.9
612.0;514.4;;;;;;;;;;;;;;1.1800897;0.8756981;-0.6074404;;;;;406.9
612.0;514.4;;;;;;;;;;;;;;;;;94.550156;-100.638596;91.26942;;416.5
612.0;514.4;;;;;;;;;;;;;;1.3478805;0.64119387;-0.9640187;;;;;416.5
612.0;514.4;;;;;;;;;;;;;;;;;112.292854;-119.968254;93.65368;;416.5
612.0;514.4;;;;;;;;;;;;;;1.9008149;0.504593;-1.098178;;;;;416.5
612.0;514.4;;;;;;;;;;;;;;;;;110.271;-96.5453;92.67327;;426.2
612.0;514.4;;;;;;;;;;;;;;1.9970092;0.7298807;-1.1293069;;;;;426.2
612.0;514.4;;;;;;;;;;;;;;;;;106.254005;-94.70275;81.9689;;426.2
612.0;514.4;;;;;;;;;;;;;;1.952208;1.004059;-1.3201087;;;;;426.2
673.0;515.1;;;;;;;;;;;;;;;;;77.47505;-113.25419;77.871796;;435.6
673.0;515.1;;;;;;;;;;;;;;1.9924924;1.0259713;-1.5220191;;;;;435.6
673.0;515.1;;;;;;;;;;;;;;;;;36.805325;-73.29783;75.23194;;435.6
673.0;515.1;;;;;;;;;;;;;;1.9606311;0.8745384;-1.0840786;;;;;435.6
673.0;515.1;;;;;;;;;;;;;;;;;20.283363;-52.06458;63.798943;;445.3
673.0;515.1;;;;;;;;;;;;;;1.5883054;0.8784448;-0.63502914;;;;;445.3
673.0;515.1;;;;;;;;;;;;;;;;;18.166143;-76.60528;57.80206;;445.3
673.0;515.1;;;;;;;;;;;;;;1.4988861;0.81246376;-0.77553636;;;;;445.3
673.0;515.1;;;;;;;;;;;;;;;;;-1.247444;-59.179207;59.15632;;454.9
673.0;515.1;;;;;;;;;;;;;;1.4411451;0.5742973;-0.4883572;;;;;454.9
673.0;515.1;;;;;;;;;;;;;;;;;-16.495255;-34.8941;60.43809;;454.9
673.0;515.1;;;;;;;;;;;;;;1.140965;0.3366802;-0.07458724;;;;;454.9
673.0;574.4;;;;;;;;;;;;;;;;;0.56840724;-50.042725;59.52254;;464.6
673.0;574.4;;;;;;;;;;;;;;0.9495529;0.2491531;-0.15540025;;;;;464.6
673.0;574.4;;;;;;;;;;;;;;;;;9.968108;-57.5045;60.975983;;464.6
673.0;574.4;;;;;;;;;;;;;;0.9790948;0.14227729;-0.26728112;;;;;464.6
673.0;574.4;;;;;;;;;;;;;;;;;4.0284433;-43.462173;64.367355;;474.1
673.0;574.4;;;;;;;;;;;;;;0.9382;0.02435377;-0.10248116;;;;;474.1
673.0;574.4;;;;;;;;;;;;;;;;;5.260628;-40.80706;67.12928;;474.1
673.0;574.4;;;;;;;;;;;;;;0.87026584;-0.032105472;-0.062440872;;;;;474.1
673.0;574.4;;;;;;;;;;;;;;;;;18.547625;-42.7221;69.284645;;483.6
673.0;574.4;;;;;;;;;;;;;;0.86849576;-0.053590503;-0.1053499;;;;;483.6
673.0;574.4;;;;;;;;;;;;;;;;;34.57747;-45.46876;70.78387;;483.6
673.0;574.4;;;;;;;;;;;;;;0.8769799;-0.050050355;-0.18091373;;;;;483.6
791.0;575.0;;;;;;;;;;;;;;;;;42.592396;-45.457317;73.06894;;493.3
791.0;575.0;;;;;;;;;;;;;;0.90951264;-0.022461623;-0.19592883;;;;;493.3
791.0;575.0;;;;;;;;;;;;;;;;;45.99521;-44.095432;75.86139;;493.3
791.0;575.0;;;;;;;;;;;;;;0.9050569;0.015686514;-0.21546067;;;;;493.3
791.0;575.0;;;;;;;;;;;;;;;;;50.107574;-44.61806;77.53228;;502.9
791.0;575.0;;;;;;;;;;;;;;0.89962465;0.063844725;-0.27283546;;;;;502.9
791.0;575.0;;;;;;;;;;;;;;;;;55.391094;-44.17936;77.67724;;502.9
791.0;575.0;;;;;;;;;;;;;;0.90249336;0.10278634;-0.32361826;;;;;502.9
791.0;575.0;;;;;;;;;;;;;;;;;60.51439;-43.294323;76.86087;;512.6
791.0;575.0;;;;;;;;;;;;;;0.95242167;0.16986603;-0.35535753;;;;;512.6
791.0;575.0;;;;;;;;;;;;;;;;;61.05609;-39.62447;77.24235;;512.6
791.0;575.0;;;;;;;;;;;;;;1.0072939;0.19153416;-0.37092197;;;;;512.6
791.0;634.6;;;;;;;;;;;;;;;;;59.51491;-36.214027;78.38297;;522.2
791.0;634.6;;;;;;;;;;;;;;1.0329905;0.2164983;-0.40455335;;;;;522.2
791.0;634.6;;;;;;;;;;;;;;;;;57.51213;-34.47447;79.09253;;522.2
791.0;634.6;;;;;;;;;;;;;;1.0891446;0.24225593;-0.44837794;;;;;522.2
791.0;634.6;;;;;;;;;;;;;;;;;55.82598;-31.41499;79.2642;;531.9
791.0;634.6;;;;;;;;;;;;;;1.1423688;0.2492752;-0.46754357;;;;;531.9
791.0;634.6;;;;;;;;;;;;;;;;;55.234684;-27.41325;78.45545;;531.9
791.0;634.6;;;;;;;;;;;;;;1.1744133;0.2565386;-0.47676015;;;;;531.9
791.0;634.6;;;;;;;;;;;;;;;;;55.604725;-24.895473;77.08213;;541.5
791.0;634.6;;;;;;;;;;;;;;1.2231208;0.26453444;-0.5241859;;;;;541.5
791.0;634.6;;;;;;;;;;;;;;;;;55.55513;-21.343884;75.15565;;541.5
791.0;634.6;;;;;;;;;;;;;;1.2218391;0.24481948;-0.5263833;;;;;541.5
794.0;635.4;;;;;;;;;;;;;;;;;56.55461;-20.542772;72.656944;;551.2
794.0;635.4;;;;;;;;;;;;;;1.228431;0.24060793;-0.53462327;;;;;551.2
794.0;635.4;;;;;;;;;;;;;;;;;58.442947;-20.531326;70.00183;;551.2
794.0;635.4;;;;;;;;;;;;;;1.2065798;0.25989562;-0.5485397;;;;;551.2
794.0;635.4;;;;;;;;;;;;;;;;;59.984127;-20.46266;68.15927;;560.8
794.0;635.4;;;;;;;;;;;;;;1.1767937;0.27784052;-0.552324;;;;;560.8
794.0;635.4;;;;;;;;;;;;;;;;;60.464794;-20.69155;66.969055;;560.8
794.0;635.4;;;;;;;;;;;;;;1.1570787;0.2990814;-0.57387006;;;;;560.8
794.0;635.4;;;;;;;;;;;;;;;;;61.586353;-19.287699;65.946686;;570.4
794.0;635.4;;;;;;;;;;;;;;1.09476;0.3172094;-0.5908384;;;;;570.4
794.0;635.4;;;;;;;;;;;;;;;;;62.414165;-16.834774;64.9205;;570.4
794.0;635.4;;;;;;;;;;;;;;1.0384839;0.34546953;-0.5670339;;;;;570.4
794.0;695.0;;;;;;;;;;;;;;;;;61.677906;-14.908293;64.38643;;580.1
794.0;695.0;;;;;;;;;;;;;;0.981109;0.3624378;-0.53578293;;;;;580.1
794.0;695.0;;;;;;;;;;;;;;;;;59.724724;-13.8363285;64.27198;;580.1
794.0;695.0;;;;;;;;;;;;;;0.9437544;0.36262092;-0.5126499;;;;;580.1
794.0;695.0;;;;;;;;;;;;;;;;;57.19169;-13.912625;64.4818;;589.8
794.0;695.0;;;;;;;;;;;;;;0.90157783;0.37781915;-0.51942503;;;;;589.8
794.0;695.0;;;;;;;;;;;;;;;;;54.06354;-14.492477;65.12269;;589.8
794.0;695.0;;;;;;;;;;;;;;0.8742943;0.4173101;-0.5060579;;;;;589.8
794.0;695.0;;;;;;;;;;;;;;;;;50.6798;-15.923033;65.63006;;599.4
794.0;695.0;;;;;;;;;;;;;;0.8852199;0.3558458;-0.54231393;;;;;599.4
794.0;695.0;;;;;;;;;;;;;;;;;46.048615;-12.493514;64.64202;;599.4
794.0;695.0;;;;;;;;;;;;;;0.83437604;0.3662221;-0.5055086;;;;;599.4
851.0;695.8;;;;;;;;;;;;;;;;;41.26484;-11.520738;64.96246;;608.9
851.0;695.8;;;;;;;;;;;;;;0.8083743;0.35322124;-0.49732962;;;;;608.9
851.0;695.8;;;;;;;;;;;;;;;;;37.01895;-12.115849;65.83606;;608.9
851.0;695.8;;;;;;;;;;;;;;0.7812128;0.33283487;-0.51600695;;;;;608.9
851.0;695.8;;;;;;;;;;;;;;;;;32.891323;-12.424848;67.01102;;618.6
851.0;695.8;;;;;;;;;;;;;;0.7490463;0.2916349;-0.5005646;;;;;618.6
851.0;695.8;;;;;;;;;;;;;;;;;30.156101;-13.042848;67.949455;;618.6
851.0;695.8;;;;;;;;;;;;;;0.7378155;0.22400586;-0.511063;;;;;618.6
851.0;695.8;;;;;;;;;;;;;;;;;28.13425;-11.528367;68.36146;;628.2
851.0;695.8;;;;;;;;;;;;;;0.7215796;0.23480941;-0.47920164;;;;;628.2
851.0;695.8;;;;;;;;;;;;;;;;;26.234474;-11.3986635;69.72335;;628.2
851.0;695.8;;;;;;;;;;;;;;0.7091281;0.19244972;-0.4502701;;;;;628.2
851.0;755.4;;;;;;;;;;;;;;;;;25.345621;-11.818293;70.73046;;637.8
851.0;755.4;;;;;;;;;;;;;;0.708945;0.17078158;-0.4448378;;;;;637.8
851.0;755.4;;;;;;;;;;;;;;;;;24.39955;-11.67333;71.23402;;637.8
851.0;755.4;;;;;;;;;;;;;;0.6981414;0.1490524;-0.43855098;;;;;637.8
851.0;755.4;;;;;;;;;;;;;;;;;25.070955;-13.1077;71.63457;;647.4
851.0;755.4;;;;;;;;;;;;;;0.71480453;0.11236915;-0.4771264;;;;;647.4
851.0;755.4;;;;;;;;;;;;;;;;;26.039919;-12.375256;71.84057;;647.4
851.0;755.4;;;;;;;;;;;;;;0.73787653;0.13837092;-0.4845729;;;;;647.4
851.0;755.4;;;;;;;;;;;;;;;;;26.242104;-11.688589;72.412796;;657.1
851.0;755.4;;;;;;;;;;;;;;0.7406842;0.1518601;-0.49702445;;;;;657.1
851.0;755.4;;;;;;;;;;;;;;;;;26.20014;-12.169256;72.75994;;657.1
851.0;755.4;;;;;;;;;;;;;;0.75319684;0.1429487;-0.50544757;;;;;657.1
911.0;756.6;;;;;;;;;;;;;;;;;25.536362;-12.104404;72.550125;;666.8
911.0;756.6;;;;;;;;;;;;;;0.7754143;0.13940856;-0.49330118;;;;;666.8
911.0;756.6;;;;;;;;;;;;;;;;;24.365215;-11.368145;72.11142;;666.8
911.0;756.6;;;;;;;;;;;;;;0.78341013;0.15784173;-0.49140903;;;;;666.8
911.0;756.6;;;;;;;;;;;;;;;;;22.808771;-10.719626;71.93213;;676.3
911.0;756.6;;;;;;;;;;;;;;0.7727897;0.15198217;-0.512772;;;;;676.3
911.0;756.6;;;;;;;;;;;;;;;;;21.271402;-10.700553;71.46672;;676.3
911.0;756.6;;;;;;;;;;;;;;0.76430553;0.14447463;-0.52180547;;;;;676.3
911.0;756.6;;;;;;;;;;;;;;;;;19.600512;-10.345775;70.53209;;685.9
911.0;756.6;;;;;;;;;;;;;;0.75624865;0.13971373;-0.48579362;;;;;685.9
911.0;756.6;;;;;;;;;;;;;;;;;18.00592;-10.9904785;69.65086;;685.9
911.0;756.6;;;;;;;;;;;;;;0.76711327;0.1262856;-0.45503098;;;;;685.9
911.0;815.7;;;;;;;;;;;;;;;;;16.10233;-10.799738;68.48735;;695.6
911.0;815.7;;;;;;;;;;;;;;0.7604602;0.08520768;-0.43476668;;;;;695.6
911.0;815.7;;;;;;;;;;;;;;;;;14.606922;-9.849849;67.38869;;695.6
911.0;815.7;;;;;;;;;;;;;;0.75429547;0.097720265;-0.43421736;;;;;695.6
911.0;815.7;;;;;;;;;;;;;;;;;12.737662;-9.109776;66.4388;;705.2
911.0;815.7;;;;;;;;;;;;;;0.750267;0.09613331;-0.42402416;;;;;705.2
911.0;815.7;;;;;;;;;;;;;;;;;11.135441;-8.18659;65.03876;;705.2
911.0;815.7;;;;;;;;;;;;;;0.75789666;0.11572619;-0.3975341;;;;;705.2
911.0;815.7;;;;;;;;;;;;;;;;;10.414441;-7.9615164;63.070312;;714.9
911.0;815.7;;;;;;;;;;;;;;0.77352214;0.14477982;-0.39606923;;;;;714.9
911.0;815.7;;;;;;;;;;;;;;;;;10.475478;-7.0955534;60.6975;;714.9
911.0;815.7;;;;;;;;;;;;;;0.7686392;0.14941862;-0.3932005;;;;;714.9
1031.0;823.2;;;;;;;;;;;;;;;;;10.383923;-7.396924;58.29417;;724.4
1031.0;823.2;;;;;;;;;;;;;;0.76149786;0.17615284;-0.37910092;;;;;724.4
1031.0;823.2;;;;;;;;;;;;;;;;;9.125034;-8.823664;56.81402;;724.4
1031.0;823.2;;;;;;;;;;;;;;0.7612537;0.17139195;-0.38276315;;;;;724.4
1031.0;823.2;;;;;;;;;;;;;;;;;7.744072;-9.9642935;55.04013;;734.1
1031.0;823.2;;;;;;;;;;;;;;0.75521106;0.14899136;-0.3935667;;;;;734.1
1031.0;823.2;;;;;;;;;;;;;;;;;7.827998;-9.083072;52.484207;;734.1
1031.0;823.2;;;;;;;;;;;;;;0.73268837;0.1441084;-0.37470627;;;;;734.1
1031.0;823.2;;;;;;;;;;;;;;;;;8.735923;-9.269998;49.76043;;743.7
1031.0;823.2;;;;;;;;;;;;;;0.70046085;0.14709921;-0.37501144;;;;;743.7
1031.0;823.2;;;;;;;;;;;;;;;;;8.995331;-9.506516;47.60506;;743.7
1031.0;823.2;;;;;;;;;;;;;;0.6890469;0.15393536;-0.37684256;;;;;743.7
1031.0;876.0;;;;;;;;;;;;;;;;;9.342479;-6.7522206;46.010468;;753.4
1031.0;876.0;;;;;;;;;;;;;;0.68599504;0.16223639;-0.34186834;;;;;753.4
1031.0;876.0;;;;;;;;;;;;;;;;;10.3228855;-5.1690726;44.206062;;753.4
1031.0;876.0;;;;;;;;;;;;;;0.65517133;0.15466781;-0.3068331;;;;;753.4
1031.0;876.0;;;;;;;;;;;;;;;;;12.859736;-6.8437757;43.023468;;763.0
1031.0;876.0;;;;;;;;;;;;;;0.65126497;0.1643727;-0.3249611;;;;;763.0
1031.0;876.0;;;;;;;;;;;;;;;;;13.935514;-7.232887;42.748802;;763.0
1031.0;876.0;;;;;;;;;;;;;;0.63472396;0.17584765;-0.3427839;;;;;763.0
1031.0;876.0;;;;;;;;;;;;;;;;;13.584552;-8.888515;43.56899;;772.7
1031.0;876.0;;;;;;;;;;;;;;0.6129948;0.16657002;-0.3823359;;;;;772.7
1031.0;876.0;;;;;;;;;;;;;;;;;14.576404;-11.700033;44.980465;;772.7
1031.0;876.0;;;;;;;;;;;;;;0.6048769;0.16138189;-0.42597735;;;;;772.7
1033.0;877.1;;;;;;;;;;;;;;;;;15.301217;-13.870663;45.583206;;782.2
1033.0;877.1;;;;;;;;;;;;;;0.60103154;0.14398633;-0.44141972;;;;;782.2
1033.0;877.1;;;;;;;;;;;;;;;;;16.08707;-14.759515;45.64043;;782.2
1033.0;877.1;;;;;;;;;;;;;;0.6299631;0.1511887;-0.45460373;;;;;782.2
1033.0;877.1;;;;;;;;;;;;;;;;;17.445143;-12.337108;45.617542;;791.9
1033.0;877.1;;;;;;;;;;;;;;0.6460158;0.15601063;-0.43910033;;;;;791.9
1033.0;877.1;;;;;;;;;;;;;;;;;18.238625;-9.189886;45.25895;;791.9
1033.0;877.1;;;;;;;;;;;;;;0.6389355;0.1657155;-0.4364147;;;;;791.9
1033.0;877.1;;;;;;;;;;;;;;;;;18.738365;-6.202887;44.75921;;801.5
1033.0;877.1;;;;;;;;;;;;;;0.6387524;0.17743461;-0.42493972;;;;;801.5
1033.0;877.1;;;;;;;;;;;;;;;;;19.96292;-2.883999;44.89654;;801.5
1033.0;877.1;;;;;;;;;;;;;;0.64296395;0.1604053;-0.39045382;;;;;801.5
1033.0;890.9;;;;;;;;;;;;;;;;;22.17551;-1.0299997;45.575577;;811.1
1033.0;890.9;;;;;;;;;;;;;;0.6333811;0.18512528;-0.38190863;;;;;811.1
1033.0;890.9;;;;;;;;;;;;;;;;;25.212103;-0.3929258;45.590836;;811.1
1033.0;890.9;;;;;;;;;;;;;;0.6313059;0.22931609;-0.40076905;;;;;811.1
1033.0;890.9;;;;;;;;;;;;;;;;;29.37025;-2.2087772;45.564133;;820.8
1033.0;890.9;;;;;;;;;;;;;;0.63521224;0.2710654;-0.438612;;;;;820.8
1033.0;890.9;;;;;;;;;;;;;;;;;30.838953;-3.8605914;45.613728;;820.8
1033.0;890.9;;;;;;;;;;;;;;0.6389355;0.3399762;-0.47035128;;;;;820.8
1033.0;890.9;;;;;;;;;;;;;;;;;31.300545;-4.974517;46.922207;;830.3
1033.0;890.9;;;;;;;;;;;;;;0.6484573;0.3830073;-0.47224343;;;;;830.3
1033.0;890.9;;;;;;;;;;;;;;;;;32.48314;-7.526627;49.504837;;830.3
1033.0;890.9;;;;;;;;;;;;;;0.6805017;0.4300058;-0.46888638;;;;;830.3
1094.0;936.1;;;;;;;;;;;;;;;;;33.913692;-9.491257;51.816612;;840.0
1094.0;936.1;;;;;;;;;;;;;;0.71846676;0.4479507;-0.45814386;;;;;840.0
1094.0;936.1;;;;;;;;;;;;;;;;;34.226505;-10.643331;54.277172;;840.0
1094.0;936.1;;;;;;;;;;;;;;0.72243416;0.48878446;-0.45826593;;;;;840.0
1094.0;936.1;;;;;;;;;;;;;;;;;31.647694;-10.937071;57.142094;;849.6
1094.0;936.1;;;;;;;;;;;;;;0.71895504;0.48536637;-0.46015808;;;;;849.6
1094.0;936.1;;;;;;;;;;;;;;;;;28.233437;-10.334331;59.682762;;849.6
1094.0;936.1;;;;;;;;;;;;;;0.71663564;0.4611957;-0.43733025;;;;;849.6
1094.0;936.1;;;;;;;;;;;;;;;;;24.021883;-10.299997;62.185276;;859.3
1094.0;936.1;;;;;;;;;;;;;;0.7256081;0.45100254;-0.4194464;;;;;859.3
1094.0;936.1;;;;;;;;;;;;;;;;;18.608662;-10.402997;64.55809;;859.3
1094.0;936.1;;;;;;;;;;;;;;0.733665;0.4413587;-0.40064698;;;;;859.3
1094.0;996.4;;;;;;;;;;;;;;;;;13.187811;-10.631886;66.77832;;869.0
1094.0;996.4;;;;;;;;;;;;;;0.76363415;0.4054689;-0.38874477;;;;;869.0
1094.0;996.4;;;;;;;;;;;;;;;;;8.548997;-9.63622;68.8879;;869.0
1094.0;996.4;;;;;;;;;;;;;;0.7902463;0.38422802;-0.37086093;;;;;869.0
1094.0;996.4;;;;;;;;;;;;;;;;;4.135258;-7.8356276;70.356606;;878.6
1094.0;996.4;;;;;;;;;;;;;;0.82326734;0.37055573;-0.37256998;;;;;878.6
1094.0;996.4;;;;;;;;;;;;;;;;;1.3580737;-5.9282207;71.527756;;878.6
1094.0;996.4;;;;;;;;;;;;;;0.8595233;0.35047457;-0.39466536;;;;;878.6
1094.0;996.4;;;;;;;;;;;;;;;;;-0.07248146;-4.543443;72.12668;;888.2
1094.0;996.4;;;;;;;;;;;;;;0.8967559;0.32886747;-0.41651663;;;;;888.2
1094.0;996.4;;;;;;;;;;;;;;;;;-0.839259;-3.6355176;72.30216;;888.2
1094.0;996.4;;;;;;;;;;;;;;0.97054964;0.35114598;-0.4377575;;;;;888.2
1151.0;997.3;;;;;;;;;;;;;;;;;-2.1019626;-1.4572588;72.69509;;897.8
1151.0;997.3;;;;;;;;;;;;;;1.0393994;0.3618885;-0.46131778;;;;;897.8
1151.0;997.3;;;;;;;;;;;;;;;;;-3.154851;0.8087405;72.65313;;897.8
1151.0;997.3;;;;;;;;;;;;;;1.1157568;0.3634144;-0.5017243;;;;;897.8
1151.0;997.3;;;;;;;;;;;;;;;;;-3.2273324;3.173925;71.52013;;907.5
1151.0;997.3;;;;;;;;;;;;;;1.1940062;0.37086093;-0.5554979;;;;;907.5
1151.0;997.3;;;;;;;;;;;;;;;;;-2.3499253;5.5047765;69.28846;;907.5
1151.0;997.3;;;;;;;;;;;;;;1.2576678;0.37220374;-0.59651476;;;;;907.5
1151.0;997.3;;;;;;;;;;;;;;;;;-0.28611103;7.0116277;65.897095;;917.1
1151.0;997.3;;;;;;;;;;;;;;1.3122959;0.36725974;-0.62227243;;;;;917.1
1151.0;997.3;;;;;;;;;;;;;;;;;2.7771842;7.0917387;61.399426;;917.1
1151.0;997.3;;;;;;;;;;;;;;1.383282;0.37452316;-0.6568804;;;;;917.1
1151.0;1004.3;;;;;;;;;;;;;;;;;6.7751093;7.045961;56.302834;;926.8
1151.0;1004.3;;;;;;;;;;;;;;1.4651326;0.38953826;-0.70546585;;;;;926.8
1151.0;1004.3;;;;;;;;;;;;;;;;;11.280404;7.5991087;50.408947;;926.8
1151.0;1004.3;;;;;;;;;;;;;;1.5319071;0.41029084;-0.7391583;;;;;926.8
1151.0;1004.3;;;;;;;;;;;;;;;;;15.77807;7.2367015;43.469803;;936.4
1151.0;1004.3;;;;;;;;;;;;;;1.6196173;0.45973083;-0.77620775;;;;;936.4
1151.0;1004.3;;;;;;;;;;;;;;;;;19.24955;6.7484055;35.752434;;936.4
1151.0;1004.3;;;;;;;;;;;;;;1.6845607;0.5377361;-0.8175909;;;;;936.4
1151.0;1004.3;;;;;;;;;;;;;;;;;21.237068;6.0579243;27.390362;;946.0
1151.0;1004.3;;;;;;;;;;;;;;1.7060457;0.62660605;-0.8644063;;;;;946.0
1151.0;1004.3;;;;;;;;;;;;;;;;;21.11118;6.6911836;18.143253;;946.0
1151.0;1004.3;;;;;;;;;;;;;;1.6692404;0.70168155;-0.8767968;;;;;946.0
1211.0;1056.7;;;;;;;;;;;;;;;;;19.970549;9.945219;7.1184425;;955.6
1211.0;1056.7;;;;;;;;;;;;;;1.5676748;0.73250526;-0.80684835;;;;;955.6
1211.0;1056.7;;;;;;;;;;;;;;;;;17.731255;11.585589;-4.692221;;955.6
1211.0;1056.7;;;;;;;;;;;;;;1.4915006;0.73592335;-0.72420424;;;;;955.6
1211.0;1056.7;;;;;;;;;;;;;;;;;14.206367;12.646107;-16.022219;;965.2
1211.0;1056.7;;;;;;;;;;;;;;1.4383373;0.7267678;-0.6609088;;;;;965.2
1211.0;1056.7;;;;;;;;;;;;;;;;;9.723961;17.536697;-26.463364;;965.2
1211.0;1056.7;;;;;;;;;;;;;;1.370098;0.6729942;-0.5940733;;;;;965.2
1211.0;1056.7;;;;;;;;;;;;;;;;;5.062258;26.261177;-36.500137;;974.9
1211.0;1056.7;;;;;;;;;;;;;;1.3181554;0.614948;-0.53077793;;;;;974.9
1211.0;1056.7;;;;;;;;;;;;;;;;;-0.45396283;37.327953;-46.117283;;974.9
1211.0;1056.7;;;;;;;;;;;;;;1.2847682;0.57136756;-0.47798088;;;;;974.9
1211.0;1071.8;;;;;;;;;;;;;;;;;-7.3587756;48.98221;-55.3415;;984.6
1211.0;1071.8;;;;;;;;;;;;;;1.277749;0.5492721;-0.44807276;;;;;984.6
1211.0;1071.8;;;;;;;;;;;;;;;;;-14.641255;60.85391;-64.27198;;984.6
1211.0;1071.8;;;;;;;;;;;;;;1.2755517;0.537492;-0.41541794;;;;;984.6
1211.0;1071.8;;;;;;;;;;;;;;;;;-21.153143;72.28309;-72.85531;;994.2
1211.0;1071.8;;;;;;;;;;;;;;1.2650533;0.5483566;-0.3762932;;;;;994.2
1211.0;1071.8;;;;;;;;;;;;;;;;;-26.287882;81.74383;-81.259346;;994.2
1211.0;1071.8;;;;;;;;;;;;;;1.2532731;0.5782647;-0.3374737;;;;;994.2
1211.0;1071.8;;;;;;;;;;;;;;;;;-30.068361;87.09983;-89.72823;;1003.9
1211.0;1071.8;;;;;;;;;;;;;;1.2047486;0.62746054;-0.30542925;;;;;1003.9
1211.0;1071.8;;;;;;;;;;;;;;;;;-32.284767;84.410385;-98.200935;;1003.9
1211.0;1071.8;;;;;;;;;;;;;;1.1320536;0.6913663;-0.31189916;;;;;1003.9
1214.0;1117.1;;;;;;;;;;;;;;;;;-32.776882;72.88583;-106.47145;;1013.5
1214.0;1117.1;;;;;;;;;;;;;;1.064974;0.75307477;-0.35608998;;;;;1013.5
1214.0;1117.1;;;;;;;;;;;;;;;;;-32.23899;54.41069;-113.47926;;1013.5
1214.0;1117.1;;;;;;;;;;;;;;1.0035096;0.8360851;-0.44782862;;;;;1013.5
1214.0;1117.1;;;;;;;;;;;;;;;;;-31.956696;31.750694;-117.80145;;1023.1
1214.0;1117.1;;;;;;;;;;;;;;0.9745781;0.898587;-0.5600757;;;;;1023.1
1214.0;1117.1;;;;;;;;;;;;;;;;;-32.57088;7.248146;-120.567184;;1023.1
1214.0;1117.1;;;;;;;;;;;;;;0.9830622;0.94222844;-0.6938078;;;;;1023.1
1214.0;1117.1;;;;;;;;;;;;;;;;;-35.412914;-15.2096615;-120.40696;;1032.7
1214.0;1117.1;;;;;;;;;;;;;;1.0032655;0.9488815;-0.8182623;;;;;1032.7
1214.0;1117.1;;;;;;;;;;;;;;;;;-41.398357;-34.058655;-117.98837;;1032.7
1214.0;1117.1;;;;;;;;;;;;;;1.0421461;0.9241615;-0.9527879;;;;;1032.7
1214.0;1118.3;;;;;;;;;;;;;;;;;-49.42473;-45.07965;-114.71145;;1042.3
1214.0;1118.3;;;;;;;;;;;;;;1.0999482;0.84884185;-1.0785851;;;;;1042.3
1214.0;1118.3;;;;;;;;;;;;;;;;;-60.117645;-46.445354;-110.18326;;1042.3
1214.0;1118.3;;;;;;;;;;;;;;1.1610461;0.79879147;-1.1435286;;;;;1042.3
1214.0;1118.3;;;;;;;;;;;;;;;;;-75.56001;-41.562393;-103.1373;;1052.0
1214.0;1118.3;;;;;;;;;;;;;;1.2358165;0.64394057;-1.1777704;;;;;1052.0
1214.0;1118.3;;;;;;;;;;;;;;;;;-90.06012;-29.293955;-98.17805;;1052.0
1214.0;1118.3;;;;;;;;;;;;;;1.2979522;0.5454878;-1.1554308;;;;;1052.0
1214.0;1118.3;;;;;;;;;;;;;;;;;-105.32319;-17.014069;-93.97412;;1061.7
1214.0;1118.3;;;;;;;;;;;;;;1.3055208;0.43501082;-1.1236305;;;;;1061.7
1214.0;1118.3;;;;;;;;;;;;;;;;;-116.07333;-8.983886;-91.10919;;1061.7
1214.0;1118.3;;;;;;;;;;;;;;1.3064973;0.3389996;-1.1111178;;;;;1061.7
1271.0;1128.6;;;;0.0;0.0;0.0;;;;;;;;;;;;;;;
1271.0;1128.6;;;;-0.0043106084;0.18374254;0.08398438;;;;;;;;;;;;;;;
1271.0;1128.6;;;;0.03631592;0.7259217;0.27806094;;;;;;;;;;;;;;;
1271.0;1128.6;;;;0.051288612;0.7969934;0.29058078;;;;;;;;;;;;;;;
1271.0;1128.6;;;;0.051300056;0.7921411;0.28159335;;;;;;;;;;;;;;;
1271.0;1138.6;;;;0.051250465;0.78738797;0.27299502;;;;;;;;;;;;;;;
1271.0;1138.6;;;;0.050968178;0.7827302;0.2632294;;;;;;;;;;;;;;;
1271.0;1138.6;;;;0.0513115;0.77838147;0.25312427;;;;;;;;;;;;;;;
1271.0;1138.6;;;;0.051357277;0.7740518;0.24159244;;;;;;;;;;;;;;;
1271.0;1138.6;;;;0.049575813;0.7691499;0.22692874;;;;;;;;;;;;;;;
1271.0;1139.8;57485;57445;14614;;;;;;;;;;;;;;;;;;
1271.0;1148.5;;;;0.04689408;0.7645074;0.21260837;;;;;;;;;;;;;;;
1271.0;1148.5;;;;0.04372025;0.7598306;0.19941333;;;;;;;;;;;;;;;
1271.0;1148.5;;;;0.040344242;0.7554666;0.18653871;;;;;;;;;;;;;;;
1271.0;1148.5;;;;0.03809357;0.7517091;0.17368318;;;;;;;;;;;;;;;
1271.0;1148.5;;;;0.036293034;0.7486306;0.16101076;;;;;;;;;;;;;;;
1274.0;1158.6;;;;0.03482056;0.7452088;0.14845277;;;;;;;;;;;;;;;
1274.0;1158.6;;;;0.035198215;0.74249274;0.13577653;;;;;;;;;;;;;;;
1274.0;1158.6;;;;0.035522465;0.7399941;0.123229995;;;;;;;;;;;;;;;
1274.0;1158.6;;;;0.03615189;0.73803335;0.10999681;;;;;;;;;;;;;;;
1274.0;1158.6;;;;0.039257053;0.7352181;0.0988846;;;;;;;;;;;;;;;
1274.0;1159.9;73828;73808;14604;;;;;;;;;;;;;;;;;;
1274.0;1166.3;;;;;;;;;;;;;0;;;;;;;;
1274.0;1166.3;;;;;;;;;;;;;0;;;;;;;;
1274.0;1166.3;;;;;;;;;;;;;-1;;;;;;;;
1274.0;1166.3;;;;;;;;;;;;;-3;;;;;;;;
1274.0;1166.3;;;;;;;;;;;;;-3;;;;;;;;
1274.0;1168.7;;;;0.04146195;0.73367316;0.088169105;;;;;;;;;;;;;;;
1274.0;1168.7;;;;0.044471744;0.7327729;0.07770539;;;;;;;;;;;;;;;
1274.0;1168.7;;;;0.046249393;0.7317696;0.06631089;;;;;;;;;;;;;;;
1274.0;1168.7;;;;0.045688633;0.7314225;0.055503853;;;;;;;;;;;;;;;
1274.0;1168.7;;;;0.044868473;0.73156744;0.046970375;;;;;;;;;;;;;;;
1276.0;1177.7;;;;;;;;;;;;;;;;;-122.024445;-3.6698508;-89.7206;;1071.3
1276.0;1177.7;;;;;;;;;;;;;;1.3236488;0.2280343;-1.0813318;;;;;1071.3
1276.0;1177.7;;;;;;;;;;;;;;;;;-124.64904;-0.8659627;-87.99631;;1071.3
1276.0;1177.7;;;;;;;;;;;;;;1.3276162;0.14099552;-1.0424513;;;;;1071.3
1276.0;1177.7;;;;;;;;;;;;;;;;;-124.988556;-0.19837031;-86.19572;;1080.8
1276.0;1177.7;;;;;;;;;;;;;;1.3233436;0.015503403;-1.0276192;;;;;1080.8
1276.0;1177.7;;;;;;;;;;;;;;;;;-124.988556;4.0246286;-85.84857;;1080.8
1276.0;1177.7;;;;;;;;;;;;;;1.3418989;-0.09076205;-0.96591085;;;;;1080.8
1276.0;1177.7;;;;;;;;;;;;;;;;;-124.988556;9.517961;-86.9892;;1090.3
1276.0;1177.7;;;;;;;;;;;;;;1.3639942;-0.11761834;-0.9212928;;;;;1090.3
1276.0;1177.7;;;;;;;;;;;;;;;;;-124.988556;17.906734;-87.504196;;1090.3
1276.0;1177.7;;;;;;;;;;;;;;1.3523362;-0.17682424;-0.8388317;;;;;1090.3
1276.0;1178.6;;;;;;;;;;;;;;;;;-124.988556;28.157139;-89.93804;;1099.9
1276.0;1178.6;;;;;;;;;;;;;;1.3365886;-0.17297891;-0.7228614;;;;;1099.9
1276.0;1178.6;;;;;;;;;;;;;;;;;-124.988556;36.805325;-91.792046;;1099.9
1276.0;1178.6;;;;;;;;;;;;;;1.3199255;-0.20221564;-0.6560869;;;;;1099.9
1276.0;1178.6;;;;;;;;;;;;;;;;;-124.988556;46.063873;-94.4319;;1109.4
1276.0;1178.6;;;;;;;;;;;;;;1.2496719;-0.14069033;-0.56135744;;;;;1109.4
1276.0;1178.6;;;;;;;;;;;;;;;;;-124.988556;51.87765;-96.72079;;1109.4
1276.0;1178.6;;;;;;;;;;;;;;1.1503036;-0.07202368;-0.47297585;;;;;1109.4
1276.0;1178.6;;;;;;;;;;;;;;;;;-124.988556;53.220467;-98.36879;;1119.1
1276.0;1178.6;;;;;;;;;;;;;;1.0946379;-0.014160588;-0.4259163;;;;;1119.1
1276.0;1178.6;;;;;;;;;;;;;;;;;-124.988556;51.145206;-100.05112;;1119.1
1276.0;1178.6;;;;;;;;;;;;;;1.096469;0.0474868;-0.44923246;;;;;1119.1
1332.0;1178.6;;;;0.043441776;0.7321816;0.038551334;;;;;;;;;;;;;;;
1332.0;1178.6;;;;0.04219437;0.7336007;0.031047825;;;;;;;;;;;;;;;
1332.0;1178.6;;;;0.04031754;0.7355729;0.024909977;;;;;;;;;;;;;;;
1332.0;1178.6;;;;0.03665543;0.73730856;0.01740265;;;;;;;;;;;;;;;
1332.0;1178.6;;;;0.031883243;0.7392464;0.010692597;;;;;;;;;;;;;;;
1332.0;1180.0;90374;90212;14608;;;;;;;;;;;;;;;;;;
1332.0;1188.7;;;;0.025623325;0.7420617;0.005008698;;;;;;;;;;;;;;;
1332.0;1188.7;;;;0.01797867;0.744484;0.0012702943;;;;;;;;;;;;;;;
1332.0;1188.7;;;;0.009258271;0.7473946;-0.0030975346;;;;;;;;;;;;;;;
1332.0;1188.7;;;;5.264283E-4;0.75068295;-0.007068635;;;;;;;;;;;;;;;
1332.0;1188.7;;;;-0.009513856;0.75426114;-0.010883332;;;;;;;;;;;;;;;
1332.0;1198.7;;;;-0.020149233;0.7574197;-0.013706209;;;;;;;;;;;;;;;
1332.0;1198.7;;;;-0.03175736;0.7609407;-0.01609421;;;;;;;;;;;;;;;
1332.0;1198.7;;;;-0.043514255;0.76415646;-0.018608095;;;;;;;;;;;;;;;
1332.0;1198.7;;;;-0.05516816;0.7675973;-0.019069673;;;;;;;;;;;;;;;
1332.0;1198.7;;;;-0.067573555;0.7704507;-0.018737795;;;;;;;;;;;;;;;
1332.0;1200.1;106626;106577;14590;;;;;;;;;;;;;;;;;;
1332.0;1206.4;;;;;;;;;;;;;-4;;;;;;;;
1332.0;1206.4;;;;;;;;;;;;;-6;;;;;;;;
1332.0;1206.4;;;;;;;;;;;;;-20;;;;;;;;
1332.0;1206.4;;;;;;;;;;;;;-6;;;;;;;;
1332.0;1206.4;;;;;;;;;;;;;5;;;;;;;;
1335.0;1208.8;;;;-0.08036805;0.77445996;-0.017898561;;;;;;;;;;;;;;;
1335.0;1208.8;;;;-0.09264756;0.7778131;-0.016235353;;;;;;;;;;;;;;;
1335.0;1208.8;;;;-0.10547258;0.7812425;-0.014301302;;;;;;;;;;;;;;;
1335.0;1208.8;;;;-0.11788179;0.7845155;-0.01140976;;;;;;;;;;;;;;;
1335.0;1208.8;;;;-0.12981035;0.7878381;-0.006477357;;;;;;;;;;;;;;;
1335.0;1218.9;;;;-0.14193346;0.79181683;-0.0016441348;;;;;;;;;;;;;;;
1335.0;1218.9;;;;-0.15192415;0.79584897;0.0038261418;;;;;;;;;;;;;;;
1335.0;1218.9;;;;-0.16106798;0.7997018;0.010787965;;;;;;;;;;;;;;;
1335.0;1218.9;;;;-0.168911;0.8037034;0.018989565;;;;;;;;;;;;;;;
1335.0;1218.9;;;;-0.17543413;0.80762875;0.028160099;;;;;;;;;;;;;;;
1335.0;1220.3;122973;123047;14597;;;;;;;;;;;;;;;;;;
1335.0;1229.0;;;;-0.17901994;0.81149685;0.03714371;;;;;;;;;;;;;;;
1335.0;1229.0;;;;-0.18174364;0.81258786;0.044681553;;;;;;;;;;;;;;;
1335.0;1229.0;;;;-0.18367006;0.81731427;0.057144172;;;;;;;;;;;;;;;
1335.0;1229.0;;;;-0.18258668;0.8233911;0.07075501;;;;;;;;;;;;;;;
1335.0;1229.0;;;;-0.18283083;0.82854855;0.083133705;;;;;;;;;;;;;;;
1336.0;1237.9;;;;;;;;;;;;;;;;;-124.988556;50.84002;-102.20649;;1128.8
1336.0;1237.9;;;;;;;;;;;;;;1.0936613;0.0717185;-0.46327096;;;;;1128.8
1336.0;1237.9;;;;;;;;;;;;;;;;;-124.988556;51.065094;-105.296486;;1128.8
1336.0;1237.9;;;;;;;;;;;;;;1.0572833;0.118655965;-0.46827602;;;;;1128.8
1336.0;1237.9;;;;;;;;;;;;;;;;;-124.988556;47.82632;-108.1843;;1138.4
1336.0;1237.9;;;;;;;;;;;;;;1.0136417;0.13531907;-0.47950682;;;;;1138.4
1336.0;1237.9;;;;;;;;;;;;;;;;;-124.988556;41.940063;-110.93859;;1138.4
1336.0;1237.9;;;;;;;;;;;;;;0.9856258;0.16425061;-0.49391156;;;;;1138.4
1336.0;1237.9;;;;;;;;;;;;;;;;;-124.988556;33.909878;-112.456894;;1148.0
1336.0;1237.9;;;;;;;;;;;;;;1.0251777;0.20392469;-0.5595874;;;;;1148.0
1336.0;1237.9;;;;;;;;;;;;;;;;;-124.988556;30.560472;-113.063446;;1148.0
1336.0;1237.9;;;;;;;;;;;;;;1.0207831;0.17285684;-0.5695975;;;;;1148.0
1336.0;1238.5;;;;;;;;;;;;;;;;;-124.275185;27.527695;-113.773;;1157.7
1336.0;1238.5;;;;;;;;;;;;;;1.0283517;-0.048463393;-0.6023133;;;;;1157.7
1336.0;1238.5;;;;;;;;;;;;;;;;;-115.33326;23.327585;-114.14304;;1157.7
1336.0;1238.5;;;;;;;;;;;;;;1.1969359;-0.0038453322;-0.6834315;;;;;1157.7
1336.0;1238.5;;;;;;;;;;;;;;;;;-104.567856;32.81503;-116.6303;;1167.3
1336.0;1238.5;;;;;;;;;;;;;;1.0182196;-0.052186653;-0.6087222;;;;;1167.3
1336.0;1238.5;;;;;;;;;;;;;;;;;-98.994415;38.342693;-118.42708;;1167.3
1336.0;1238.5;;;;;;;;;;;;;;0.80459;0.010864589;-0.41248816;;;;;1167.3
1336.0;1238.5;;;;;;;;;;;;;;;;;-92.593155;31.315807;-114.73052;;1176.9
1336.0;1238.5;;;;;;;;;;;;;;0.76961577;0.035157323;-0.40681174;;;;;1176.9
1336.0;1238.5;;;;;;;;;;;;;;;;;-85.52049;29.019287;-112.81167;;1176.9
1336.0;1238.5;;;;;;;;;;;;;;0.6883755;0.07434309;-0.44441053;;;;;1176.9
1390.0;1238.8;;;;-0.18548967;0.83438885;0.0931778;;;;;;;;;;;;;;;
1390.0;1238.8;;;;-0.1889458;0.8398477;0.10323335;;;;;;;;;;;;;;;
1390.0;1238.8;;;;-0.19381717;0.84521496;0.11343767;;;;;;;;;;;;;;;
1390.0;1238.8;;;;-0.19600299;0.85149777;0.12648393;;;;;;;;;;;;;;;
1390.0;1238.8;;;;-0.19774249;0.85777295;0.1392212;;;;;;;;;;;;;;;
1390.0;1240.3;139359;139387;14611;;;;;;;;;;;;;;;;;;
1390.0;1246.7;;;;;;;;;;;;;2;;;;;;;;
1390.0;1246.7;;;;;;;;;;;;;30;;;;;;;;
1390.0;1246.7;;;;;;;;;;;;;-67;;;;;;;;
1390.0;1246.7;;;;;;;;;;;;;32;;;;;;;;
1390.0;1246.7;;;;;;;;;;;;;144;;;;;;;;
1390.0;1248.9;;;;-0.19921878;0.86433804;0.15099336;;;;;;;;;;;;;;;
1390.0;1248.9;;;;-0.20175174;0.87009823;0.16014864;;;;;;;;;;;;;;;
1390.0;1248.9;;;;-0.20410922;0.8758317;0.17159273;;;;;;;;;;;;;;;
1390.0;1248.9;;;;-0.20613101;0.88214123;0.18294908;;;;;;;;;;;;;;;
1390.0;1248.9;;;;-0.20731357;0.8887025;0.19461063;;;;;;;;;;;;;;;
1390.0;1258.9;;;;-0.20831302;0.89502347;0.20596698;;;;;;;;;;;;;;;
1390.0;1258.9;;;;-0.2097359;0.90099347;0.21549991;;;;;;;;;;;;;;;
1390.0;1258.9;;;;-0.21234897;0.90680325;0.22361758;;;;;;;;;;;;;;;
1390.0;1258.9;;;;-0.21459201;0.9121705;0.2323151;;;;;;;;;;;;;;;
1390.0;1258.9;;;;-0.21696094;0.9178506;0.24055865;;;;;;;;;;;;;;;
1390.0;1260.5;155762;155775;14608;;;;;;;;;;;;;;;;;;
1393.0;1268.9;;;;-0.21982959;0.9233705;0.24840549;;;;;;;;;;;;;;;
1393.0;1268.9;;;;-0.2223778;0.92829907;0.25428012;;;;;;;;;;;;;;;
1393.0;1268.9;;;;-0.22471622;0.9332429;0.26217654;;;;;;;;;;;;;;;
1393.0;1268.9;;;;-0.2278786;0.94067395;0.2710915;;;;;;;;;;;;;;;
1393.0;1268.9;;;;-0.23164752;0.94861233;0.27746585;;;;;;;;;;;;;;;
1393.0;1278.8;;;;-0.23591998;0.9566499;0.28301623;;;;;;;;;;;;;;;
1393.0;1278.8;;;;-0.23977664;0.9653932;0.28804782;;;;;;;;;;;;;;;
1393.0;1278.8;;;;-0.24296191;0.9750787;0.29420093;;;;;;;;;;;;;;;
1393.0;1278.8;;;;-0.24569324;0.9856454;0.30114368;;;;;;;;;;;;;;;
1393.0;1278.8;;;;-0.2472916;0.99684536;0.30671313;;;;;;;;;;;;;;;
1393.0;1280.4;172223;172153;14622;;;;;;;;;;;;;;;;;;
1393.0;1286.7;;;;;;;;;;;;;-768;;;;;;;;
1393.0;1286.7;;;;;;;;;;;;;-835;;;;;;;;
1393.0;1286.7;;;;;;;;;;;;;1916;;;;;;;;
1393.0;1286.7;;;;;;;;;;;;;1990;;;;;;;;
1393.0;1286.7;;;;;;;;;;;;;-7434;;;;;;;;
1393.0;1288.9;;;;-0.24878696;1.0082933;0.31234363;;;;;;;;;;;;;;;
1393.0;1288.9;;;;-0.24992755;1.0193483;0.31941608;;;;;;;;;;;;;;;
1393.0;1288.9;;;;-0.25124744;1.0311929;0.3267441;;;;;;;;;;;;;;;
1393.0;1288.9;;;;-0.25259784;1.0436898;0.3333855;;;;;;;;;;;;;;;
1393.0;1288.9;;;;-0.25334552;1.0566369;0.34017184;;;;;;;;;;;;;;;
1395.0;1298.1;;;;;;;;;;;;;;;;;-81.02283;28.813288;-112.76589;;1186.6
1395.0;1298.1;;;;;;;;;;;;;;0.6158635;0.19464706;-0.3721427;;;;;1186.6
1395.0;1298.1;;;;;;;;;;;;;;;;;-77.97479;20.672476;-110.46937;;1186.6
1395.0;1298.1;;;;;;;;;;;;;;0.5891293;0.24158452;-0.35822627;;;;;1186.6
1395.0;1298.1;;;;;;;;;;;;;;;;;-74.51094;12.909329;-108.17286;;1196.3
1395.0;1298.1;;;;;;;;;;;;;;0.60371715;0.17633595;-0.38294625;;;;;1196.3
1395.0;1298.1;;;;;;;;;;;;;;;;;-69.8912;10.948516;-108.233894;;1196.3
1395.0;1298.1;;;;;;;;;;;;;;0.61580247;0.15649892;-0.3566393;;;;;1196.3
1395.0;1298.1;;;;;;;;;;;;;;;;;-66.553246;10.071108;-109.004486;;1206.0
1395.0;1298.1;;;;;;;;;;;;;;0.6322825;0.19904172;-0.3197119;;;;;1206.0
1395.0;1298.1;;;;;;;;;;;;;;;;;-65.332504;7.8623314;-108.48186;;1206.0
1395.0;1298.1;;;;;;;;;;;;;;0.6531571;0.16071047;-0.34302804;;;;;1206.0
1395.0;1299.0;;;;;;;;;;;;;;;;;-65.733055;9.743034;-108.668785;;1215.5
1395.0;1299.0;;;;;;;;;;;;;;0.6261788;0.14154485;-0.35358745;;;;;1215.5
1395.0;1299.0;;;;;;;;;;;;;;;;;-67.9876;11.078218;-108.4666;;1215.5
1395.0;1299.0;;;;;;;;;;;;;;0.6196478;0.14819789;-0.3598132;;;;;1215.5
1395.0;1299.0;;;;;;;;;;;;;;;;;-72.08853;10.612812;-106.86438;;1225.2
1395.0;1299.0;;;;;;;;;;;;;;0.61903745;0.13495284;-0.37464523;;;;;1225.2
1395.0;1299.0;;;;;;;;;;;;;;;;;-77.93283;11.490219;-104.76241;;1225.2
1395.0;1299.0;;;;;;;;;;;;;;0.62300485;0.11725211;-0.37067783;;;;;1225.2
1395.0;1299.0;;;;;;;;;;;;;;;;;-84.23109;13.481552;-101.98523;;1234.9
1395.0;1299.0;;;;;;;;;;;;;;0.6143376;0.11200293;-0.35261086;;;;;1234.9
1395.0;1299.0;;;;;;;;;;;;;;;;;-91.71957;16.159552;-98.54809;;1234.9
1395.0;1299.0;;;;;;;;;;;;;;0.60158086;0.1119419;-0.33960998;;;;;1234.9
1449.0;1298.8;;;;-0.2540894;1.0695726;0.34655765;;;;;;;;;;;;;;;
1449.0;1298.8;;;;-0.25473407;1.0819246;0.35283282;;;;;;;;;;;;;;;
1449.0;1298.8;;;;-0.25582507;1.0940286;0.35849765;;;;;;;;;;;;;;;
1449.0;1298.8;;;;-0.25716022;1.1053239;0.36390308;;;;;;;;;;;;;;;
1449.0;1298.8;;;;-0.25919726;1.1160585;0.36971286;;;;;;;;;;;;;;;
1449.0;1300.4;188551;188489;14624;;;;;;;;;;;;;;;;;;
1449.0;1308.8;;;;-0.26168826;1.1260225;0.3749695;;;;;;;;;;;;;;;
1449.0;1308.8;;;;-0.26547626;1.1350633;0.38024908;;;;;;;;;;;;;;;
1449.0;1308.8;;;;-0.26973346;1.1440545;0.38589865;;;;;;;;;;;;;;;
1449.0;1308.8;;;;-0.27446368;1.1524965;0.39126974;;;;;;;;;;;;;;;
1449.0;1308.8;;;;-0.27954867;1.1606828;0.39614874;;;;;;;;;;;;;;;
1449.0;1318.7;;;;-0.284977;1.1672784;0.40047842;;;;;;;;;;;;;;;
1449.0;1318.7;;;;-0.2913094;1.173195;0.40438086;;;;;;;;;;;;;;;
1449.0;1318.7;;;;-0.29801562;1.1786805;0.40808874;;;;;;;;;;;;;;;
1449.0;1318.7;;;;-0.3049355;1.1835519;0.41217428;;;;;;;;;;;;;;;
1449.0;1318.7;;;;-0.31209186;1.1880494;0.4169045;;;;;;;;;;;;;;;
1449.0;1320.5;204945;204912;14611;;;;;;;;;;;;;;;;;;
1449.0;1326.7;;;;;;;;;;;;;-20469;;;;;;;;
1449.0;1326.7;;;;;;;;;;;;;-21775;;;;;;;;
1449.0;1326.7;;;;;;;;;;;;;-6206;;;;;;;;
1449.0;1326.7;;;;;;;;;;;;;13377;;;;;;;;
1449.0;1326.7;;;;;;;;;;;;;21264;;;;;;;;
1453.0;1328.8;;;;-0.31866458;1.1919366;0.4206887;;;;;;;;;;;;;;;
1453.0;1328.8;;;;-0.32486728;1.195736;0.42392355;;;;;;;;;;;;;;;
1453.0;1328.8;;;;-0.33203128;1.1997148;0.4268685;;;;;;;;;;;;;;;
1453.0;1328.8;;;;-0.33796313;1.2031747;0.43028265;;;;;;;;;;;;;;;
1453.0;1328.8;;;;-0.3441544;1.2067415;0.43391806;;;;;;;;;;;;;;;
1453.0;1338.8;;;;-0.35024264;1.210087;0.43723303;;;;;;;;;;;;;;;
1453.0;1338.8;;;;-0.35603717;1.2122308;0.44064337;;;;;;;;;;;;;;;
1453.0;1338.8;;;;-0.36225894;1.2142678;0.44364554;;;;;;;;;;;;;;;
1453.0;1338.8;;;;-0.36841586;1.2158815;0.44810873;;;;;;;;;;;;;;;
1453.0;1338.8;;;;-0.3742638;1.2174608;0.45226294;;;;;;;;;;;;;;;
1453.0;1340.6;221331;221270;14620;;;;;;;;;;;;;;;;;;
1453.0;1348.9;;;;-0.3806153;1.2192346;0.45693594;;;;;;;;;;;;;;;
1453.0;1348.9;;;;-0.38672644;1.2215692;0.4611283;;;;;;;;;;;;;;;
1453.0;1348.9;;;;-0.39324576;1.2232934;0.46618277;;;;;;;;;;;;;;;
1453.0;1348.9;;;;-0.39959723;1.2246972;0.47040945;;;;;;;;;;;;;;;
1453.0;1348.9;;;;-0.40415198;1.2261316;0.4763108;;;;;;;;;;;;;;;
1454.0;1358.1;;;;;;;;;;;;;;;;;-99.94048;19.737844;-94.435715;;1244.6
1454.0;1358.1;;;;;;;;;;;;;;0.5782647;0.10254219;-0.3241676;;;;;1244.6
1454.0;1358.1;;;;;;;;;;;;;;;;;-107.54341;22.400585;-90.907005;;1244.6
1454.0;1358.1;;;;;;;;;;;;;;0.54768515;0.12170782;-0.31647694;;;;;1244.6
1454.0;1358.1;;;;;;;;;;;;;;;;;-115.23789;23.7434;-86.75649;;1254.1
1454.0;1358.1;;;;;;;;;;;;;;0.53382975;0.08239998;-0.32355723;;;;;1254.1
1454.0;1358.1;;;;;;;;;;;;;;;;;-119.86144;24.594105;-82.69372;;1254.1
1454.0;1358.1;;;;;;;;;;;;;;0.51350445;0.11011078;-0.31366923;;;;;1254.1
1454.0;1358.1;;;;;;;;;;;;;;;;;-122.817924;23.9494;-79.04294;;1263.7
1454.0;1358.1;;;;;;;;;;;;;;0.486404;0.1076693;-0.29523605;;;;;1263.7
1454.0;1358.1;;;;;;;;;;;;;;;;;-124.24085;21.820736;-76.06739;;1263.7
1454.0;1358.1;;;;;;;;;;;;;;0.47968993;0.11365093;-0.2844325;;;;;1263.7
1454.0;1358.7;;;;;;;;;;;;;;;;;-124.75967;19.913326;-73.56868;;1273.4
1454.0;1358.7;;;;;;;;;;;;;;0.476516;0.100039676;-0.26551104;;;;;1273.4
1454.0;1358.7;;;;;;;;;;;;;;;;;-124.794;17.860958;-71.45146;;1273.4
1454.0;1358.7;;;;;;;;;;;;;;0.47425765;0.09289835;-0.24066897;;;;;1273.4
1454.0;1358.7;;;;;;;;;;;;;;;;;-124.81307;15.686514;-69.13968;;1283.1
1454.0;1358.7;;;;;;;;;;;;;;0.47474593;0.06280709;-0.20984527;;;;;1283.1
1454.0;1358.7;;;;;;;;;;;;;;;;;-124.55748;13.157292;-67.08732;;1283.1
1454.0;1358.7;;;;;;;;;;;;;;0.47859126;0.03302103;-0.17456588;;;;;1283.1
1454.0;1358.7;;;;;;;;;;;;;;;;;-123.50841;10.43733;-65.67202;;1292.8
1454.0;1358.7;;;;;;;;;;;;;;0.48823512;-0.0050050355;-0.13672292;;;;;1292.8
1454.0;1358.7;;;;;;;;;;;;;;;;;-120.53285;7.5228124;-64.76028;;1292.8
1454.0;1358.7;;;;;;;;;;;;;;0.5050203;-0.012817774;-0.113956116;;;;;1292.8
1455.0;1358.8;;;;-0.41089636;1.2291642;0.48157126;;;;;;;;;;;;;;;
1455.0;1358.8;;;;-0.41772467;1.2338105;0.48939902;;;;;;;;;;;;;;;
1455.0;1358.8;;;;-0.4253655;1.2396699;0.49895865;;;;;;;;;;;;;;;
1455.0;1358.8;;;;-0.43409353;1.24638;0.50765616;;;;;;;;;;;;;;;
1455.0;1358.8;;;;-0.44194037;1.2527848;0.5168763;;;;;;;;;;;;;;;
1455.0;1360.6;237671;237655;14615;;;;;;;;;;;;;;;;;;
1455.0;1366.9;;;;;;;;;;;;;16689;;;;;;;;
1455.0;1366.9;;;;;;;;;;;;;10296;;;;;;;;
1455.0;1366.9;;;;;;;;;;;;;7381;;;;;;;;
1455.0;1366.9;;;;;;;;;;;;;5959;;;;;;;;
1455.0;1366.9;;;;;;;;;;;;;5183;;;;;;;;
1455.0;1368.9;;;;-0.45000464;1.2590982;0.52525336;;;;;;;;;;;;;;;
1455.0;1368.9;;;;-0.45677572;1.2651826;0.5350724;;;;;;;;;;;;;;;
1455.0;1368.9;;;;-0.46303564;1.2710878;0.54399115;;;;;;;;;;;;;;;
1455.0;1368.9;;;;-0.46770865;1.276188;0.55232245;;;;;;;;;;;;;;;
1455.0;1368.9;;;;-0.4708901;1.2805978;0.5591813;;;;;;;;;;;;;;;
1455.0;1378.9;;;;-0.47373968;1.28471;0.5650063;;;;;;;;;;;;;;;
1455.0;1378.9;;;;-0.4751168;1.2882806;0.5693703;;;;;;;;;;;;;;;
1455.0;1378.9;;;;-0.47570807;1.290886;0.5758973;;;;;;;;;;;;;;;
1455.0;1378.9;;;;-0.47500998;1.2937242;0.58191305;;;;;;;;;;;;;;;
1455.0;1378.9;;;;-0.47311407;1.2971689;0.58800894;;;;;;;;;;;;;;;
1455.0;1380.7;254047;254087;14618;;;;;;;;;;;;;;;;;;
1510.0;1388.8;;;;-0.47012335;1.2998887;0.5942574;;;;;;;;;;;;;;;
1510.0;1388.8;;;;-0.467228;1.3021165;0.5991364;;;;;;;;;;;;;;;
1510.0;1388.8;;;;-0.46456534;1.3052598;0.60164267;;;;;;;;;;;;;;;
1510.0;1388.8;;;;-0.4613877;1.308098;0.60607153;;;;;;;;;;;;;;;
1510.0;1388.8;;;;-0.45786673;1.311268;0.6086045;;;;;;;;;;;;;;;
1510.0;1398.8;;;;-0.45343786;1.3155099;0.6103974;;;;;;;;;;;;;;;
1510.0;1398.8;;;;-0.4492913;1.3204042;0.6127549;;;;;;;;;;;;;;;
1510.0;1398.8;;;;-0.44456106;1.3266946;0.61568075;;;;;;;;;;;;;;;
1510.0;1398.8;;;;-0.43920904;1.3341371;0.61930853;;;;;;;;;;;;;;;
1510.0;1398.8;;;;-0.43420798;1.3423959;0.6220017;;;;;;;;;;;;;;;
1510.0;1400.7;262143;262143;14630;;;;;;;;;;;;;;;;;;
1510.0;1407.0;;;;;;;;;;;;;5483;;;;;;;;
1510.0;1407.0;;;;;;;;;;;;;5932;;;;;;;;
1510.0;1407.0;;;;;;;;;;;;;5554;;;;;;;;
1510.0;1407.0;;;;;;;;;;;;;4486;;;;;;;;
1510.0;1407.0;;;;;;;;;;;;;3336;;;;;;;;
1510.0;1408.9;;;;-0.42973715;1.3508302;0.62580115;;;;;;;;;;;;;;;
1510.0;1408.9;;;;-0.42499167;1.3587724;0.6285096;;;;;;;;;;;;;;;
1510.0;1408.9;;;;-0.42036444;1.3668061;0.631321;;;;;;;;;;;;;;;
1510.0;1408.9;;;;-0.41585165;1.3745843;0.63561255;;;;;;;;;;;;;;;
1510.0;1408.9;;;;-0.4113732;1.3810006;0.6382981;;;;;;;;;;;;;;;
1514.0;1418.4;;;;;;;;;;;;;;;;;-117.41615;5.180517;-62.73461;;1302.4
1514.0;1418.4;;;;;;;;;;;;;;0.51313823;0.00921659;-0.12079226;;;;;1302.4
1514.0;1418.4;;;;;;;;;;;;;;;;;-114.608444;4.9630723;-59.980312;;1302.4
1514.0;1418.4;;;;;;;;;;;;;;0.49305704;-0.037415694;-0.09399701;;;;;1302.4
1514.0;1418.4;;;;;;;;;;;;;;;;;-109.37071;2.1553698;-57.56554;;1312.1
1514.0;1418.4;;;;;;;;;;;;;;0.4941557;-0.052186653;-0.07739494;;;;;1312.1
1514.0;1418.4;;;;;;;;;;;;;;;;;-104.354225;-1.678518;-54.628136;;1312.1
1514.0;1418.4;;;;;;;;;;;;;;0.4949492;-0.072206795;-0.08355968;;;;;1312.1
1514.0;1418.4;;;;;;;;;;;;;;;;;-101.01245;-4.9211097;-51.31687;;1321.6
1514.0;1418.4;;;;;;;;;;;;;;0.5058138;-0.08508561;-0.10333567;;;;;1321.6
1514.0;1418.4;;;;;;;;;;;;;;;;;-97.95297;-7.477035;-47.3838;;1321.6
1514.0;1418.4;;;;;;;;;;;;;;0.5157628;-0.0926542;-0.10388501;;;;;1321.6
1514.0;1418.9;;;;-0.40635306;1.3864328;0.64267355;;;;;;;;;;;;;;;
1514.0;1418.9;;;;-0.4012757;1.3906175;0.64534384;;;;;;;;;;;;;;;
1514.0;1418.9;;;;-0.39760977;1.3930475;0.6473847;;;;;;;;;;;;;;;
1514.0;1418.9;;;;-0.3943215;1.3947183;0.64957434;;;;;;;;;;;;;;;
1514.0;1418.9;;;;-0.391285;1.3949815;0.6522065;;;;;;;;;;;;;;;
1516.0;1419.3;;;;;;;;;;;;;;;;;-96.121864;-9.464553;-43.065434;;1331.2
1516.0;1419.3;;;;;;;;;;;;;;0.5103305;-0.13721122;-0.11713004;;;;;1331.2
1516.0;1419.3;;;;;;;;;;;;;;;;;-92.135376;-10.235145;-38.7814;;1331.2
1516.0;1419.3;;;;;;;;;;;;;;0.5074618;-0.1439253;-0.104617454;;;;;1331.2
1516.0;1419.3;;;;;;;;;;;;;;;;;-88.957634;-11.249886;-34.0968;;1340.9
1516.0;1419.3;;;;;;;;;;;;;;0.4934843;-0.1551561;-0.10620441;;;;;1340.9
1516.0;1419.3;;;;;;;;;;;;;;;;;-84.974976;-11.196478;-29.850918;;1340.9
1516.0;1419.3;;;;;;;;;;;;;;0.4669332;-0.15369122;-0.09698782;;;;;1340.9
1516.0;1419.3;;;;;;;;;;;;;;;;;-80.06912;-11.543626;-25.639362;;1350.5
1516.0;1419.3;;;;;;;;;;;;;;0.42347485;-0.15021211;-0.09985656;;;;;1350.5
1516.0;1419.3;;;;;;;;;;;;;;;;;-74.99924;-13.031404;-21.29429;;1350.5
1516.0;1419.3;;;;;;;;;;;;;;0.36860254;-0.06494339;-0.09222694;;;;;1350.5
1516.0;1420.8;262143;262143;14614;;;;;;;;;;;;;;;;;;
1516.0;1428.9;;;;-0.3885308;1.3937608;0.6544915;;;;;;;;;;;;;;;
1516.0;1428.9;;;;-0.38533026;1.3916322;0.6574326;;;;;;;;;;;;;;;
1516.0;1428.9;;;;-0.38200003;1.3883134;0.65905386;;;;;;;;;;;;;;;
1516.0;1428.9;;;;-0.37889105;1.3838922;0.6591111;;;;;;;;;;;;;;;
1516.0;1428.9;;;;-0.3743668;1.3787423;0.6598092;;;;;;;;;;;;;;;
1516.0;1438.9;;;;-0.37056354;1.3729593;0.66014105;;;;;;;;;;;;;;;
1516.0;1438.9;;;;-0.366787;1.3678933;0.66125876;;;;;;;;;;;;;;;
1516.0;1438.9;;;;-0.36343387;1.362343;0.6596413;;;;;;;;;;;;;;;
1516.0;1438.9;;;;-0.3584557;1.3569261;0.659195;;;;;;;;;;;;;;;
1516.0;1438.9;;;;-0.3531113;1.3522607;0.66037375;;;;;;;;;;;;;;;
1570.0;1440.9;262143;262143;14611;;;;;;;;;;;;;;;;;;
1570.0;1447.1;;;;;;;;;;;;;2569;;;;;;;;
1570.0;1447.1;;;;;;;;;;;;;2063;;;;;;;;
1570.0;1447.1;;;;;;;;;;;;;1284;;;;;;;;
1570.0;1447.1;;;;;;;;;;;;;365;;;;;;;;
1570.0;1447.1;;;;;;;;;;;;;-198;;;;;;;;
1570.0;1448.9;;;;-0.34857944;1.3483773;0.6619111;;;;;;;;;;;;;;;
1570.0;1448.9;;;;-0.34388736;1.3451806;0.662674;;;;;;;;;;;;;;;
1570.0;1448.9;;;;-0.33921817;1.342743;0.66436774;;;;;;;;;;;;;;;
1570.0;1448.9;;;;-0.33493426;1.3406297;0.66541296;;;;;;;;;;;;;;;
1570.0;1448.9;;;;-0.33016208;1.33947;0.6674805;;;;;;;;;;;;;;;
1570.0;1458.9;;;;-0.3259888;1.3388025;0.66933066;;;;;;;;;;;;;;;
1570.0;1458.9;;;;-0.32237628;1.3379823;0.6716004;;;;;;;;;;;;;;;
1570.0;1458.9;;;;-0.3186989;1.337803;0.6747132;;;;;;;;;;;;;;;
1570.0;1458.9;;;;-0.3149872;1.3370668;0.67770773;;;;;;;;;;;;;;;
1570.0;1458.9;;;;-0.31155017;1.3361627;0.68015295;;;;;;;;;;;;;;;
1570.0;1461.0;262143;262143;14621;;;;;;;;;;;;;;;;;;
1570.0;1469.0;;;;-0.30823138;1.3347055;0.6828614;;;;;;;;;;;;;;;
1570.0;1469.0;;;;-0.3056908;1.3333322;0.6857453;;;;;;;;;;;;;;;
1570.0;1469.0;;;;-0.30318072;1.3313218;0.68869406;;;;;;;;;;;;;;;
1570.0;1469.0;;;;-0.30022052;1.3288575;0.691372;;;;;;;;;;;;;;;
1570.0;1469.0;;;;-0.29846194;1.3255502;0.6936913;;;;;;;;;;;;;;;
1571.0;1478.4;;;;;;;;;;;;;;;;;-69.39146;-16.628773;-17.365032;;1360.2
1571.0;1478.4;;;;;;;;;;;;;;0.31391338;-0.030579546;-0.09900205;;;;;1360.2
1571.0;1478.4;;;;;;;;;;;;;;;;;-63.951538;-19.310587;-12.955108;;1360.2
1571.0;1478.4;;;;;;;;;;;;;;0.25519577;-0.009033479;-0.08697775;;;;;1360.2
1571.0;1478.4;;;;;;;;;;;;;;;;;-57.927948;-23.56029;-8.362072;;1369.9
1571.0;1478.4;;;;;;;;;;;;;;0.21472824;0.0114139225;-0.07983642;;;;;1369.9
1571.0;1478.4;;;;;;;;;;;;;;;;;-51.633503;-29.023104;-2.9030733;;1369.9
1571.0;1478.4;;;;;;;;;;;;;;0.17358929;0.016296884;-0.07928709;;;;;1369.9
1571.0;1478.4;;;;;;;;;;;;;;;;;-45.6061;-34.485916;2.5635548;;1379.6
1571.0;1478.4;;;;;;;;;;;;;;0.15308085;0.062379833;-0.08703879;;;;;1379.6
1571.0;1478.4;;;;;;;;;;;;;;;;;-38.136692;-40.025024;8.171331;;1379.6
1571.0;1478.4;;;;;;;;;;;;;;0.14508499;0.13068026;-0.114627525;;;;;1379.6
1571.0;1479.2;;;;;;;;;;;;;;;;;-31.41499;-44.835503;13.325145;;1389.2
1571.0;1479.2;;;;;;;;;;;;;;0.1633961;0.21259193;-0.14227729;;;;;1389.2
1571.0;1479.2;;;;;;;;;;;;;;;;;-23.369549;-50.565353;17.3574;;1389.2
1571.0;1479.2;;;;;;;;;;;;;;0.15955077;0.27588734;-0.19452497;;;;;1389.2
1571.0;1479.2;;;;;;;;;;;;;;;;;-11.829738;-56.535538;20.729698;;1398.8
1571.0;1479.2;;;;;;;;;;;;;;0.17627491;0.35462508;-0.25855282;;;;;1398.8
1571.0;1479.2;;;;;;;;;;;;;;;;;3.624073;-62.841423;23.85403;;1398.8
1571.0;1479.2;;;;;;;;;;;;;;0.17316203;0.4051027;-0.30805382;;;;;1398.8
1571.0;1479.2;;;;;;;;;;;;;;;;;18.196661;-70.55498;26.589252;;1408.5
1571.0;1479.2;;;;;;;;;;;;;;0.2163152;0.4591815;-0.33808404;;;;;1408.5
1571.0;1479.2;;;;;;;;;;;;;;;;;30.796991;-77.421646;30.323954;;1408.5
1571.0;1479.2;;;;;;;;;;;;;;0.30365917;0.4901883;-0.374279;;;;;1408.5
1629.0;1479.0;;;;-0.29775622;1.3215295;0.69401175;;;;;;;;;;;;;;;
1629.0;1479.0;;;;-0.2960396;1.3165475;0.6942864;;;;;;;;;;;;;;;
1629.0;1479.0;;;;-0.29514316;1.3111535;0.6933213;;;;;;;;;;;;;;;
1629.0;1479.0;;;;-0.29347232;1.3057405;0.69326407;;;;;;;;;;;;;;;
1629.0;1479.0;;;;-0.29269794;1.300335;0.6909409;;;;;;;;;;;;;;;
1629.0;1481.1;262143;262143;14616;;;;;;;;;;;;;;;;;;
1629.0;1487.3;;;;;;;;;;;;;-504;;;;;;;;
1629.0;1487.3;;;;;;;;;;;;;-979;;;;;;;;
1629.0;1487.3;;;;;;;;;;;;;-1819;;;;;;;;
1629.0;1487.3;;;;;;;;;;;;;-2727;;;;;;;;
1629.0;1487.3;;;;;;;;;;;;;-3168;;;;;;;;
1629.0;1489.1;;;;-0.292038;1.2949144;0.68905646;;;;;;;;;;;;;;;
1629.0;1489.1;;;;-0.2915688;1.2890474;0.6868096;;;;;;;;;;;;;;;
1629.0;1489.1;;;;-0.2913399;1.2832223;0.6850701;;;;;;;;;;;;;;;
1629.0;1489.1;;;;-0.29132465;1.2775956;0.6821442;;;;;;;;;;;;;;;
1629.0;1489.1;;;;-0.29188922;1.2711526;0.67802054;;;;;;;;;;;;;;;
1629.0;1499.1;;;;-0.29247287;1.2651712;0.6743966;;;;;;;;;;;;;;;
1629.0;1499.1;;;;-0.29405215;1.258835;0.67000204;;;;;;;;;;;;;;;
1629.0;1499.1;;;;-0.29516986;1.2516252;0.6632233;;;;;;;;;;;;;;;
1629.0;1499.1;;;;-0.29823688;1.2429048;0.6566811;;;;;;;;;;;;;;;
1629.0;1499.1;;;;-0.30165485;1.2372476;0.65557486;;;;;;;;;;;;;;;
1629.0;1501.3;262143;262143;14617;;;;;;;;;;;;;;;;;;
1630.0;1509.1;;;;-0.30749896;1.2314225;0.65015036;;;;;;;;;;;;;;;
1630.0;1509.1;;;;-0.31429294;1.2257043;0.6442719;;;;;;;;;;;;;;;
1630.0;1509.1;;;;-0.32130435;1.2197915;0.63854605;;;;;;;;;;;;;;;
1630.0;1509.1;;;;-0.32664493;1.214657;0.63517386;;;;;;;;;;;;;;;
1630.0;1509.1;;;;-0.33052066;1.2106134;0.63239676;;;;;;;;;;;;;;;
1630.0;1519.3;;;;-0.33463672;1.2075235;0.6299477;;;;;;;;;;;;;;;
1630.0;1519.3;;;;-0.33936694;1.2045556;0.62717444;;;;;;;;;;;;;;;
1630.0;1519.3;;;;-0.3447838;1.2023927;0.6255532;;;;;;;;;;;;;;;
1630.0;1519.3;;;;-0.35186008;1.2018014;0.6250039;;;;;;;;;;;;;;;
1630.0;1519.3;;;;-0.3597794;1.2018472;0.6254044;;;;;;;;;;;;;;;
1630.0;1521.5;262143;262143;14616;;;;;;;;;;;;;;;;;;
1630.0;1527.7;;;;;;;;;;;;;-3151;;;;;;;;
1630.0;1527.7;;;;;;;;;;;;;-3179;;;;;;;;
1630.0;1527.7;;;;;;;;;;;;;-3273;;;;;;;;
1630.0;1527.7;;;;;;;;;;;;;-3071;;;;;;;;
1630.0;1527.7;;;;;;;;;;;;;-2574;;;;;;;;
1630.0;1529.4;;;;-0.36901858;1.202469;0.62556463;;;;;;;;;;;;;;;
1630.0;1529.4;;;;-0.37857443;1.2028276;0.62608725;;;;;;;;;;;;;;;
1630.0;1529.4;;;;-0.388485;1.2035829;0.6281281;;;;;;;;;;;;;;;
1630.0;1529.4;;;;-0.39944464;1.2034799;0.6297913;;;;;;;;;;;;;;;
1630.0;1529.4;;;;-0.40990072;1.2027704;0.63314444;;;;;;;;;;;;;;;
1633.0;1539.5;;;;-0.42141348;1.2010614;0.6369744;;;;;;;;;;;;;;;
1633.0;1539.5;;;;-0.4330445;1.1983606;0.6416779;;;;;;;;;;;;;;;
1633.0;1539.5;;;;-0.44520956;1.1945764;0.6471253;;;;;;;;;;;;;;;
1633.0;1539.5;;;;-0.45763785;1.1908036;0.65315634;;;;;;;;;;;;;;;
1633.0;1539.5;;;;-0.47027975;1.1873323;0.6600953;;;;;;;;;;;;;;;
1633.0;1541.8;262143;262143;14618;;;;;;;;;;;;;;;;;;
1633.0;1546.4;;;;;;;;;;;;;;;;;41.116062;-78.82549;35.565506;;1418.1
1633.0;1546.4;;;;;;;;;;;;;;0.33741266;0.45619068;-0.37604907;;;;;1418.1
1633.0;1546.4;;;;;;;;;;;;;;;;;49.3408;-78.22656;42.03543;;1418.1
1633.0;1546.4;;;;;;;;;;;;;;0.38337353;0.44575334;-0.36255988;;;;;1418.1
1633.0;1546.4;;;;;;;;;;;;;;;;;55.185093;-75.41887;50.6798;;1427.8
1633.0;1546.4;;;;;;;;;;;;;;0.42597735;0.41651663;-0.39606923;;;;;1427.8
1633.0;1546.4;;;;;;;;;;;;;;;;;59.488205;-67.20939;59.560688;;1427.8
1633.0;1546.4;;;;;;;;;;;;;;0.4207892;0.37220374;-0.41035187;;;;;1427.8
1633.0;1546.4;;;;;;;;;;;;;;;;;65.13795;-62.173832;67.93038;;1437.4
1633.0;1546.4;;;;;;;;;;;;;;0.4032716;0.2956023;-0.4283578;;;;;1437.4
1633.0;1546.4;;;;;;;;;;;;;;;;;70.64653;-60.415203;76.6625;;1437.4
1633.0;1546.4;;;;;;;;;;;;;;0.40473646;0.18518631;-0.43873408;;;;;1437.4
1639.0;1547.4;;;;;;;;;;;;;;;;;75.36165;-58.397167;84.99786;;1447.1
1639.0;1547.4;;;;;;;;;;;;;;0.41511276;0.046021912;-0.47926268;;;;;1447.1
1639.0;1547.4;;;;;;;;;;;;;;;;;78.23801;-53.36543;92.74575;;1447.1
1639.0;1547.4;;;;;;;;;;;;;;0.39051485;-0.07434309;-0.4710837;;;;;1447.1
1639.0;1547.4;;;;;;;;;;;;;;;;;79.29853;-51.14902;99.517044;;1456.7
1639.0;1547.4;;;;;;;;;;;;;;0.3424177;-0.14380322;-0.39478743;;;;;1456.7
1639.0;1547.4;;;;;;;;;;;;;;;;;80.29801;-58.92743;103.97275;;1456.7
1639.0;1547.4;;;;;;;;;;;;;;0.30060732;-0.08948027;-0.33930477;;;;;1456.7
1639.0;1547.4;;;;;;;;;;;;;;;;;88.09168;-76.97531;104.04904;;1466.3
1639.0;1547.4;;;;;;;;;;;;;;0.42609942;0.11407819;-0.40009767;;;;;1466.3
1639.0;1547.4;;;;;;;;;;;;;;;;;95.76327;-86.11942;100.15411;;1466.3
1639.0;1547.4;;;;;;;;;;;;;;0.72585225;0.49732962;-0.2791223;;;;;1466.3
1639.0;1549.2;;;;-0.48330694;1.183365;0.66787726;;;;;;;;;;;;;;;
1639.0;1549.2;;;;-0.49665076;1.1801416;0.67617804;;;;;;;;;;;;;;;
1639.0;1549.2;;;;-0.5106583;1.1777612;0.6856728;;;;;;;;;;;;;;;
1639.0;1549.2;;;;-0.5248185;1.1768419;0.69689184;;;;;;;;;;;;;;;
1639.0;1549.2;;;;-0.539177;1.1774141;0.70898443;;;;;;;;;;;;;;;
1640.0;1553.7;;;;;;;;;;;;;;;;;79.05438;-75.51805;100.531784;;1476.0
1640.0;1553.7;;;;;;;;;;;;;;1.210181;0.83303326;0.24311045;;;;;1476.0
1640.0;1553.7;;;;;;;;;;;;;;;;;65.904724;-64.41695;99.23474;;1476.0
1640.0;1553.7;;;;;;;;;;;;;;1.4735557;0.9362468;0.25116733;;;;;1476.0
1640.0;1553.7;;;;;;;;;;;;;;;;;97.82709;-75.685905;89.35438;;1485.6
1640.0;1553.7;;;;;;;;;;;;;;1.274636;0.94619584;-0.68678856;;;;;1485.6
1640.0;1553.7;;;;;;;;;;;;;;;;;123.45119;-107.18864;81.431015;;1485.6
1640.0;1553.7;;;;;;;;;;;;;;1.4780114;0.9630421;-1.2891629;;;;;1485.6
1640.0;1553.7;;;;;;;;;;;;;;;;;124.988556;-121.85659;83.23542;;1495.3
1640.0;1553.7;;;;;;;;;;;;;;1.9727775;1.1191137;-1.2054201;;;;;1495.3
1640.0;1553.7;;;;;;;;;;;;;;;;;124.988556;-102.19886;80.5269;;1495.3
1640.0;1553.7;;;;;;;;;;;;;;1.9970092;1.3379925;-0.96749777;;;;;1495.3
1640.0;1559.2;;;;-0.55401236;1.1796037;0.7209626;;;;;;;;;;;;;;;
1640.0;1559.2;;;;-0.5690957;1.1836053;0.7338677;;;;;;;;;;;;;;;
1640.0;1559.2;;;;-0.58404547;1.1893274;0.7472878;;;;;;;;;;;;;;;
1640.0;1559.2;;;;-0.59834296;1.1958963;0.7600862;;;;;;;;;;;;;;;
1640.0;1559.2;;;;-0.6122742;1.2039148;0.77294934;;;;;;;;;;;;;;;
1640.0;1561.6;262143;262143;14611;;;;;;;;;;;;;;;;;;
1640.0;1567.7;;;;;;;;;;;;;-2095;;;;;;;;
1640.0;1567.7;;;;;;;;;;;;;-1736;;;;;;;;
1640.0;1567.7;;;;;;;;;;;;;-1293;;;;;;;;
1640.0;1567.7;;;;;;;;;;;;;-660;;;;;;;;
1640.0;1567.7;;;;;;;;;;;;;8;;;;;;;;
1688.0;1569.2;;;;-0.62559134;1.2129022;0.78593075;;;;;;;;;;;;;;;
1688.0;1569.2;;;;-0.6378289;1.2226564;0.79789364;;;;;;;;;;;;;;;
1688.0;1569.2;;;;-0.64988333;1.2329065;0.80882275;;;;;;;;;;;;;;;
1688.0;1569.2;;;;-0.6607323;1.2425767;0.81912625;;;;;;;;;;;;;;;
1688.0;1569.2;;;;-0.6700631;1.2508851;0.82808316;;;;;;;;;;;;;;;
1688.0;1579.2;;;;-0.6777039;1.2584077;0.8346025;;;;;;;;;;;;;;;
1688.0;1579.2;;;;-0.6830979;1.2639734;0.83992016;;;;;;;;;;;;;;;
1688.0;1579.2;;;;-0.68664175;1.2681161;0.8429605;;;;;;;;;;;;;;;
1688.0;1579.2;;;;-0.6884957;1.2710649;0.8445283;;;;;;;;;;;;;;;
1688.0;1579.2;;;;-0.68698126;1.273079;0.843464;;;;;;;;;;;;;;;
1688.0;1581.6;262143;262143;14606;;;;;;;;;;;;;;;;;;
1688.0;1589.3;;;;-0.6825333;1.2741357;0.841385;;;;;;;;;;;;;;;
1688.0;1589.3;;;;-0.6770974;1.2736322;0.8371011;;;;;;;;;;;;;;;
1688.0;1589.3;;;;-0.66966254;1.2718583;0.8309709;;;;;;;;;;;;;;;
1688.0;1589.3;;;;-0.660019;1.2693673;0.8225442;;;;;;;;;;;;;;;
1688.0;1589.3;;;;-0.64514166;1.2654649;0.8149911;;;;;;;;;;;;;;;
1692.0;1598.8;;;;;;;;;;;;;;;;;124.931335;-101.63808;66.23661;;1504.9
1692.0;1598.8;;;;;;;;;;;;;;1.9970092;1.561449;-0.9837947;;;;;1504.9
1692.0;1598.8;;;;;;;;;;;;;;;;;113.86074;-119.94155;59.015167;;1504.9
1692.0;1598.8;;;;;;;;;;;;;;1.9970092;1.5294046;-1.1520127;;;;;1504.9
1692.0;1598.8;;;;;;;;;;;;;;;;;72.649315;-92.356636;58.88165;;1514.5
1692.0;1598.8;;;;;;;;;;;;;;1.9774773;1.3819392;-0.92818993;;;;;1514.5
1692.0;1598.8;;;;;;;;;;;;;;;;;28.565325;-57.36717;59.797207;;1514.5
1692.0;1598.8;;;;;;;;;;;;;;1.6218756;1.1488388;-0.5472579;;;;;1514.5
1692.0;1598.8;;;;;;;;;;;;;;;;;17.029327;-59.320354;59.659874;;1524.2
1692.0;1598.8;;;;;;;;;;;;;;1.4270455;1.0496536;-0.52192754;;;;;1524.2
1692.0;1598.8;;;;;;;;;;;;;;;;;13.908811;-43.923767;58.893093;;1524.2
1692.0;1598.8;;;;;;;;;;;;;;1.3465987;0.92263556;-0.22626422;;;;;1524.2
1692.0;1599.2;;;;-0.6344071;1.262375;0.80240643;;;;;;;;;;;;;;;
1692.0;1599.2;;;;-0.6200524;1.2593118;0.7886087;;;;;;;;;;;;;;;
1692.0;1599.2;;;;-0.60776144;1.2543794;0.76968014;;;;;;;;;;;;;;;
1692.0;1599.2;;;;-0.5936242;1.2500535;0.7520524;;;;;;;;;;;;;;;
1692.0;1599.2;;;;-0.5803376;1.2453386;0.73406607;;;;;;;;;;;;;;;
1692.0;1601.7;262143;262143;14613;;;;;;;;;;;;;;;;;;
1692.0;1607.8;;;;;;;;;;;;;428;;;;;;;;
1692.0;1607.8;;;;;;;;;;;;;591;;;;;;;;
1692.0;1607.8;;;;;;;;;;;;;724;;;;;;;;
1692.0;1607.8;;;;;;;;;;;;;896;;;;;;;;
1692.0;1607.8;;;;;;;;;;;;;1018;;;;;;;;
1748.0;1609.3;;;;-0.5665932;1.2407304;0.71485525;;;;;;;;;;;;;;;
1748.0;1609.3;;;;-0.5537339;1.237137;0.6937066;;;;;;;;;;;;;;;
1748.0;1609.3;;;;-0.54048926;1.2334176;0.6727906;;;;;;;;;;;;;;;
1748.0;1609.3;;;;-0.5284043;1.2307321;0.65204626;;;;;;;;;;;;;;;
1748.0;1609.3;;;;-0.51671606;1.2284356;0.6318551;;;;;;;;;;;;;;;
1748.0;1613.8;;;;;;;;;;;;;;;;;16.308329;-31.327251;56.821648;;1533.8
1748.0;1613.8;;;;;;;;;;;;;;1.0583819;0.7177954;0.11053804;;;;;1533.8
1748.0;1613.8;;;;;;;;;;;;;;;;;35.676136;-56.752983;58.03476;;1533.8
1748.0;1613.8;;;;;;;;;;;;;;0.9358806;0.5272378;-0.1612598;;;;;1533.8
1748.0;1613.8;;;;;;;;;;;;;;;;;34.482098;-63.03598;62.437054;;1543.5
1748.0;1613.8;;;;;;;;;;;;;;1.0051576;0.35657826;-0.35840937;;;;;1543.5
1748.0;1613.8;;;;;;;;;;;;;;;;;15.621662;-44.19462;68.70479;;1543.5
1748.0;1613.8;;;;;;;;;;;;;;0.9143956;0.1843318;-0.20599994;;;;;1543.5
1748.0;1613.8;;;;;;;;;;;;;;;;;11.066774;-37.61025;72.29072;;1553.0
1748.0;1613.8;;;;;;;;;;;;;;0.8555559;0.067873165;-0.07824946;;;;;1553.0
1748.0;1613.8;;;;;;;;;;;;;;;;;23.873104;-38.090916;71.99698;;1553.0
1748.0;1613.8;;;;;;;;;;;;;;0.77999204;0.0044557024;-0.026978362;;;;;1553.0
1748.0;1619.2;;;;-0.5039063;1.2263108;0.6115723;;;;;;;;;;;;;;;
1748.0;1619.2;;;;-0.4915734;1.2250901;0.5924836;;;;;;;;;;;;;;;
1748.0;1619.2;;;;-0.47925192;1.2238389;0.57334906;;;;;;;;;;;;;;;
1748.0;1619.2;;;;-0.46760947;1.2234422;0.5557404;;;;;;;;;;;;;;;
1748.0;1619.2;;;;-0.4552613;1.2228662;0.53732306;;;;;;;;;;;;;;;
1748.0;1621.7;262143;262143;14619;;;;;;;;;;;;;;;;;;
1752.0;1629.3;;;;-0.44396597;1.2226106;0.5198479;;;;;;;;;;;;;;;
1752.0;1629.3;;;;-0.43299872;1.2233163;0.50334173;;;;;;;;;;;;;;;
1752.0;1629.3;;;;-0.42156225;1.223755;0.48759466;;;;;;;;;;;;;;;
1752.0;1629.3;;;;-0.41049582;1.2243997;0.47320944;;;;;;;;;;;;;;;
1752.0;1629.3;;;;-0.3996392;1.2253801;0.45875174;;;;;;;;;;;;;;;
1752.0;1639.3;;;;-0.38877112;1.2266237;0.4452744;;;;;;;;;;;;;;;
1752.0;1639.3;;;;-0.3772927;1.2276574;0.43277365;;;;;;;;;;;;;;;
1752.0;1639.3;;;;-0.3662987;1.2295533;0.4215775;;;;;;;;;;;;;;;
1752.0;1639.3;;;;-0.35499194;1.2321244;0.41139227;;;;;;;;;;;;;;;
1752.0;1639.3;;;;-0.3457909;1.2343332;0.39919287;;;;;;;;;;;;;;;
1752.0;1641.8;262143;262143;14619;;;;;;;;;;;;;;;;;;
1752.0;1648.0;;;;;;;;;;;;;886;;;;;;;;
1752.0;1648.0;;;;;;;;;;;;;387;;;;;;;;
1752.0;1648.0;;;;;;;;;;;;;-233;;;;;;;;
1752.0;1648.0;;;;;;;;;;;;;-453;;;;;;;;
1752.0;1648.0;;;;;;;;;;;;;-106;;;;;;;;
1752.0;1649.4;;;;-0.3350487;1.2368623;0.39044195;;;;;;;;;;;;;;;
1752.0;1649.4;;;;-0.32525256;1.2412874;0.38442236;;;;;;;;;;;;;;;
1752.0;1649.4;;;;-0.31699756;1.2453691;0.37969595;;;;;;;;;;;;;;;
1752.0;1649.4;;;;-0.3078995;1.2501184;0.3755837;;;;;;;;;;;;;;;
1752.0;1649.4;;;;-0.29773715;1.2558061;0.37285236;;;;;;;;;;;;;;;
1754.0;1659.5;;;;;;;;;;;;;;;;;38.21299;-43.12647;71.41713;;1562.6
1754.0;1659.5;;;;;;;;;;;;;;0.74019593;-0.03851436;-0.08685568;;;;;1562.6
1754.0;1659.5;;;;;;;;;;;;;;;;;43.378246;-44.728687;73.13761;;1562.6
1754.0;1659.5;;;;;;;;;;;;;;0.7630848;-0.067445904;-0.16064943;;;;;1562.6
1754.0;1659.5;;;;;;;;;;;;;;;;;43.298138;-40.414135;75.28535;;1572.2
1754.0;1659.5;;;;;;;;;;;;;;0.75557727;-0.06292917;-0.18683432;;;;;1572.2
1754.0;1659.5;;;;;;;;;;;;;;;;;47.704247;-37.320324;76.37639;;1572.2
1754.0;1659.5;;;;;;;;;;;;;;0.77321696;-0.025025178;-0.21729179;;;;;1572.2
1754.0;1659.5;;;;;;;;;;;;;;;;;57.32902;-36.04236;75.56765;;1581.9
1754.0;1659.5;;;;;;;;;;;;;;0.802942;0.026917325;-0.2512894;;;;;1581.9
1754.0;1659.5;;;;;;;;;;;;;;;;;64.78698;-34.115875;74.62539;;1581.9
1754.0;1659.5;;;;;;;;;;;;;;0.84414196;0.06329539;-0.30896938;;;;;1581.9
1754.0;1659.3;;;;-0.28605655;1.2620164;0.37027743;;;;;;;;;;;;;;;
1754.0;1659.3;;;;-0.27416232;1.269333;0.3664551;;;;;;;;;;;;;;;
1754.0;1659.3;;;;-0.26084903;1.2776262;0.36339572;;;;;;;;;;;;;;;
1754.0;1659.3;;;;-0.24714664;1.2870599;0.3601227;;;;;;;;;;;;;;;
1754.0;1659.3;;;;-0.23336795;1.2972642;0.35733035;;;;;;;;;;;;;;;
1754.0;1662.0;262143;262143;14614;;;;;;;;;;;;;;;;;;
1754.0;1669.4;;;;-0.21886829;1.3084489;0.35516742;;;;;;;;;;;;;;;
1754.0;1669.4;;;;-0.20349506;1.3207933;0.35288623;;;;;;;;;;;;;;;
1754.0;1669.4;;;;-0.1875191;1.3340837;0.3514748;;;;;;;;;;;;;;;
1754.0;1669.4;;;;-0.17150117;1.3475343;0.34876636;;;;;;;;;;;;;;;
1754.0;1669.4;;;;-0.15595247;1.3615953;0.34651187;;;;;;;;;;;;;;;
1755.0;1674.1;;;;;;;;;;;;;;;;;69.13968;-30.537582;74.16761;;1591.5
1755.0;1674.1;;;;;;;;;;;;;;0.86849576;0.07599109;-0.3729362;;;;;1591.5
1755.0;1674.1;;;;;;;;;;;;;;;;;70.963165;-27.359844;73.90057;;1591.5
1755.0;1674.1;;;;;;;;;;;;;;0.9123203;0.1053499;-0.42664877;;;;;1591.5
1755.0;1674.1;;;;;;;;;;;;;;;;;72.2869;-26.322214;73.58775;;1601.1
1755.0;1674.1;;;;;;;;;;;;;;0.98440504;0.13702811;-0.48579362;;;;;1601.1
1755.0;1674.1;;;;;;;;;;;;;;;;;73.950165;-24.460587;73.21772;;1601.1
1755.0;1674.1;;;;;;;;;;;;;;1.0459914;0.18164617;-0.5146031;;;;;1601.1
1755.0;1674.1;;;;;;;;;;;;;;;;;76.044495;-23.66329;73.22535;;1610.8
1755.0;1674.1;;;;;;;;;;;;;;1.089877;0.1981872;-0.54017764;;;;;1610.8
1755.0;1674.1;;;;;;;;;;;;;;;;;77.501755;-24.929806;72.9545;;1610.8
1755.0;1674.1;;;;;;;;;;;;;;1.1512803;0.19733268;-0.60042113;;;;;1610.8
1755.0;1679.3;;;;-0.14037706;1.3754541;0.3440247;;;;;;;;;;;;;;;
1755.0;1679.3;;;;-0.1234131;1.3894197;0.3407822;;;;;;;;;;;;;;;
1755.0;1679.3;;;;-0.107418075;1.403721;0.33627704;;;;;;;;;;;;;;;
1755.0;1679.3;;;;-0.09035111;1.4177858;0.33195117;;;;;;;;;;;;;;;
1755.0;1679.3;;;;-0.07465363;1.431553;0.32641605;;;;;;;;;;;;;;;
1755.0;1682.0;262143;262143;14613;;;;;;;;;;;;;;;;;;
1755.0;1688.0;;;;;;;;;;;;;148;;;;;;;;
1755.0;1688.0;;;;;;;;;;;;;-141;;;;;;;;
1755.0;1688.0;;;;;;;;;;;;;-417;;;;;;;;
1755.0;1688.0;;;;;;;;;;;;;-168;;;;;;;;
1755.0;1688.0;;;;;;;;;;;;;324;;;;;;;;
1810.0;1689.2;;;;-0.05869294;1.4449769;0.3206711;;;;;;;;;;;;;;;
1810.0;1689.2;;;;-0.042545322;1.4579583;0.31530002;;;;;;;;;;;;;;;
1810.0;1689.2;;;;-0.026630405;1.4704362;0.3088837;;;;;;;;;;;;;;;
1810.0;1689.2;;;;-0.011249543;1.4819528;0.3014603;;;;;;;;;;;;;;;
1810.0;1689.2;;;;0.0033988957;1.4923173;0.29345325;;;;;;;;;;;;;;;
1810.0;1699.2;;;;0.01628113;1.5014193;0.28506473;;;;;;;;;;;;;;;
1810.0;1699.2;;;;0.027610783;1.5096285;0.27740863;;;;;;;;;;;;;;;
1810.0;1699.2;;;;0.037876133;1.516701;0.2692261;;;;;;;;;;;;;;;
1810.0;1699.2;;;;0.046031956;1.5229113;0.25941852;;;;;;;;;;;;;;;
1810.0;1699.2;;;;0.052825935;1.527859;0.25055316;;;;;;;;;;;;;;;
1810.0;1702.0;262143;262143;14610;;;;;;;;;;;;;;;;;;
1810.0;1709.4;;;;0.057453163;1.531357;0.24055865;;;;;;;;;;;;;;;
1810.0;1709.4;;;;0.06069947;1.5341227;0.22702792;;;;;;;;;;;;;;;
1810.0;1709.4;;;;0.062423714;1.5357859;0.21571353;;;;;;;;;;;;;;;
1810.0;1709.4;;;;0.06147004;1.5369265;0.20699695;;;;;;;;;;;;;;;
1810.0;1709.4;;;;0.060104378;1.5374262;0.19427875;;;;;;;;;;;;;;;
1810.0;1719.5;;;;0.057754524;1.5374148;0.18340303;;;;;;;;;;;;;;;
1810.0;1719.5;;;;0.05459214;1.5369532;0.17081071;;;;;;;;;;;;;;;
1810.0;1719.5;;;;0.04987336;1.535805;0.15932466;;;;;;;;;;;;;;;
1810.0;1719.5;;;;0.04420853;1.5348628;0.14883806;;;;;;;;;;;;;;;
1810.0;1719.5;;;;0.036926273;1.5333979;0.13647844;;;;;;;;;;;;;;;
1827.0;1722.2;262143;262143;14616;;;;;;;;;;;;;;;;;;
1827.0;1726.8;;;;;;;;;;;;;;;;;77.11265;-22.583696;72.22968;;1620.5
1827.0;1726.8;;;;;;;;;;;;;;1.1963255;0.19312114;-0.614948;;;;;1620.5
1827.0;1726.8;;;;;;;;;;;;;;;;;77.29576;-19.821772;70.39094;;1620.5
1827.0;1726.8;;;;;;;;;;;;;;1.1655018;0.1727958;-0.6071963;;;;;1620.5
1827.0;1726.8;;;;;;;;;;;;;;;;;78.924675;-19.28007;67.9876;;1630.2
1827.0;1726.8;;;;;;;;;;;;;;1.1418805;0.20471816;-0.61146885;;;;;1630.2
1827.0;1726.8;;;;;;;;;;;;;;;;;79.374825;-17.113253;65.76739;;1630.2
1827.0;1726.8;;;;;;;;;;;;;;1.1572008;0.1866512;-0.6130558;;;;;1630.2
1827.0;1726.8;;;;;;;;;;;;;;;;;80.30564;-12.9017;62.414165;;1639.9
1827.0;1726.8;;;;;;;;;;;;;;1.1076999;0.22186956;-0.610126;;;;;1639.9
1827.0;1726.8;;;;;;;;;;;;;;;;;80.7062;-8.522293;59.347057;;1639.9
1827.0;1726.8;;;;;;;;;;;;;;1.0323801;0.2287057;-0.5742363;;;;;1639.9
1827.0;1728.2;;;;;;;;;;;;;577;;;;;;;;
1827.0;1728.2;;;;;;;;;;;;;708;;;;;;;;
1827.0;1728.2;;;;;;;;;;;;;1185;;;;;;;;
1827.0;1728.2;;;;;;;;;;;;;1803;;;;;;;;
1827.0;1728.2;;;;;;;;;;;;;1871;;;;;;;;
1827.0;1729.4;;;;0.026954655;1.531605;0.12374498;;;;;;;;;;;;;;;
1827.0;1729.4;;;;0.014484407;1.5298998;0.11424638;;;;;;;;;;;;;;;
1827.0;1729.4;;;;3.356934E-4;1.5273211;0.10361101;;;;;;;;;;;;;;;
1827.0;1729.4;;;;-0.014049532;1.5229533;0.083255775;;;;;;;;;;;;;;;
1827.0;1729.4;;;;-0.030170444;1.5190508;0.077457435;;;;;;;;;;;;;;;
1830.0;1734.3;;;;;;;;;;;;;;;;;82.00705;-6.916257;56.138798;;1649.4
1830.0;1734.3;;;;;;;;;;;;;;1.0093691;0.272042;-0.5593432;;;;;1649.4
1830.0;1734.3;;;;;;;;;;;;;;;;;82.60597;-5.0050354;53.73928;;1649.4
1830.0;1734.3;;;;;;;;;;;;;;0.95651114;0.29816583;-0.5368206;;;;;1649.4
1830.0;1734.3;;;;;;;;;;;;;;;;;82.18253;-4.9058504;52.079838;;1659.1
1830.0;1734.3;;;;;;;;;;;;;;0.9433271;0.34119692;-0.52394176;;;;;1659.1
1830.0;1734.3;;;;;;;;;;;;;;;;;80.85497;-4.7875915;51.190983;;1659.1
1830.0;1734.3;;;;;;;;;;;;;;0.924894;0.3685415;-0.5299844;;;;;1659.1
1830.0;1734.3;;;;;;;;;;;;;;;;;78.63475;-2.6131475;50.874355;;1668.8
1830.0;1734.3;;;;;;;;;;;;;;0.9106113;0.35059664;-0.52735984;;;;;1668.8
1830.0;1734.3;;;;;;;;;;;;;;;;;75.83087;0.46159247;50.145725;;1668.8
1830.0;1734.3;;;;;;;;;;;;;;0.88253427;0.3679922;-0.5113071;;;;;1668.8
1830.0;1739.1;;;;;;;;;;2.3651845;19.482254;-2.7352216;;;;;;;;;
1830.0;1739.1;;;;;;;-0.05200354;-0.7280496;0.30628377;;;;;;;;;;;;
1830.0;1739.1;;;;;;;;;;4.100925;33.90225;10.895108;;;;;;;;;
1830.0;1739.1;;;;;;;-0.05755791;-0.80977815;0.32697532;;;;;;;;;;;;
1830.0;1739.4;;;;-0.04572678;1.5146143;0.06401444;;;;;;;;;;;;;;;
1830.0;1739.4;;;;-0.06100846;1.5109179;0.056430824;;;;;;;;;;;;;;;
1830.0;1739.4;;;;-0.07716752;1.5078127;0.05231095;;;;;;;;;;;;;;;
1830.0;1739.4;;;;-0.093822494;1.504494;0.050968178;;;;;;;;;;;;;;;
1830.0;1739.4;;;;-0.11097719;1.5009043;0.05081559;;;;;;;;;;;;;;;
1830.0;1742.2;262143;262143;14611;;;;;;;;;;;;;;;;;;
1872.0;1748.7;;;;;;;;;;-1.3122959;3.5744805;9.159368;;;;;;;;;
1872.0;1748.7;;;;;;;-0.058473464;-0.79592276;0.30500197;;;;;;;;;;;;
1872.0;1748.7;;;;;;;;;;-14.091922;13.470107;28.66451;;;;;;;;;
1872.0;1748.7;;;;;;;-0.057008576;-0.78652304;0.27771842;;;;;;;;;;;;
1872.0;1749.4;;;;-0.12675478;1.4971315;0.05206681;;;;;;;;;;;;;;;
1872.0;1749.4;;;;-0.14160539;1.4932061;0.05431748;;;;;;;;;;;;;;;
1872.0;1749.4;;;;-0.1544571;1.4884683;0.054992683;;;;;;;;;;;;;;;
1872.0;1749.4;;;;-0.16534425;1.4842225;0.057071693;;;;;;;;;;;;;;;
1872.0;1749.4;;;;-0.17566682;1.4789277;0.059631355;;;;;;;;;;;;;;;
1872.0;1758.0;;;;;;;;;;-30.297249;11.162145;45.4268;;;;;;;;;
1872.0;1758.0;;;;;;;-0.0507828;-0.7741935;0.24671163;;;;;;;;;;;;
1872.0;1758.0;;;;;;;;;;-51.034576;-27.764214;40.31495;;;;;;;;;
1872.0;1758.0;;;;;;;-0.042481765;-0.7641224;0.21765801;;;;;;;;;;;;
1872.0;1759.2;;;;-0.18610002;1.4733583;0.06259156;;;;;;;;;;;;;;;
1872.0;1759.2;;;;-0.1973305;1.4682542;0.067436226;;;;;;;;;;;;;;;
1872.0;1759.2;;;;-0.20796207;1.4631463;0.07339478;;;;;;;;;;;;;;;
1872.0;1759.2;;;;-0.21853259;1.4590036;0.07625199;;;;;;;;;;;;;;;
1872.0;1759.2;;;;-0.22946933;1.4543153;0.07787324;;;;;;;;;;;;;;;
1872.0;1762.1;262143;262143;14606;;;;;;;;;;;;;;;;;;
1872.0;1767.6;;;;;;;;;;-66.625725;-31.861324;57.737206;;;;;;;;;
1872.0;1767.6;;;;;;;-0.041077916;-0.7552721;0.18921477;;;;;;;;;;;;
1872.0;1767.6;;;;;;;;;;-81.88879;-36.126286;76.39928;;;;;;;;;
1872.0;1767.6;;;;;;;-0.039796136;-0.7495346;0.16144292;;;;;;;;;;;;
1873.0;1768.2;;;;;;;;;;;;;1489;;;;;;;;
1873.0;1768.2;;;;;;;;;;;;;1435;;;;;;;;
1873.0;1768.2;;;;;;;;;;;;;1703;;;;;;;;
1873.0;1768.2;;;;;;;;;;;;;1541;;;;;;;;
1873.0;1768.2;;;;;;;;;;;;;790;;;;;;;;
1873.0;1769.4;;;;-0.23896411;1.4496804;0.07654572;;;;;;;;;;;;;;;
1873.0;1769.4;;;;-0.24848941;1.4448243;0.075565346;;;;;;;;;;;;;;;
1873.0;1769.4;;;;-0.25813678;1.439869;0.07380677;;;;;;;;;;;;;;;
1873.0;1769.4;;;;-0.26799777;1.436062;0.07125092;;;;;;;;;;;;;;;
1873.0;1769.4;;;;-0.27905276;1.4325258;0.06922913;;;;;;;;;;;;;;;
1873.0;1777.3;;;;;;;;;;-95.33219;-32.719658;99.26145;;;;;;;;;
1873.0;1777.3;;;;;;;-0.04571673;-0.74532306;0.13599049;;;;;;;;;;;;
1873.0;1777.3;;;;;;;;;;-99.70778;-27.085178;113.44112;;;;;;;;;
1873.0;1777.3;;;;;;;-0.04809717;-0.74269843;0.11139256;;;;;;;;;;;;
1873.0;1779.3;;;;;;;;;;;;;;;;;72.66839;3.215888;49.783318;;1678.5
1873.0;1779.3;;;;;;;;;;;;;;0.8694113;0.39118627;-0.50428784;;;;;1678.5
1873.0;1779.3;;;;;;;;;;;;;;;;;69.692825;5.733665;50.057983;;1678.5
1873.0;1779.3;;;;;;;;;;;;;;0.8401135;0.40003663;-0.4883572;;;;;1678.5
1873.0;1779.3;;;;;;;;;;;;;;;;;66.82791;6.3135166;50.653095;;1688.1
1873.0;1779.3;;;;;;;;;;;;;;0.80935085;0.36732078;-0.47840816;;;;;1688.1
1873.0;1779.3;;;;;;;;;;;;;;;;;64.1728;6.111332;50.946835;;1688.1
1873.0;1779.3;;;;;;;;;;;;;;0.7959838;0.28717917;-0.4967803;;;;;1688.1
1873.0;1779.3;;;;;;;;;;;;;;;;;61.8305;7.7517014;50.675983;;1697.8
1873.0;1779.3;;;;;;;;;;;;;;0.78060246;0.29224524;-0.4629658;;;;;1697.8
1873.0;1779.3;;;;;;;;;;;;;;;;;60.228275;8.171331;51.09943;;1697.8
1873.0;1779.3;;;;;;;;;;;;;;0.7630238;0.26612142;-0.4878689;;;;;1697.8
1875.0;1779.4;;;;-0.29014972;1.4292718;0.068904884;;;;;;;;;;;;;;;
1875.0;1779.4;;;;-0.30142978;1.4266931;0.06792069;;;;;;;;;;;;;;;
1875.0;1779.4;;;;-0.31244662;1.4247552;0.06909943;;;;;;;;;;;;;;;
1875.0;1779.4;;;;-0.32190326;1.4228746;0.07130433;;;;;;;;;;;;;;;
1875.0;1779.4;;;;-0.32942203;1.4212953;0.073730476;;;;;;;;;;;;;;;
1875.0;1782.3;262143;262143;14617;;;;;;;;;;;;;;;;;;
1875.0;1786.7;;;;;;;;;;;;;;;;;59.3585;9.895626;51.99591;;1707.5
1875.0;1786.7;;;;;;;;;;;;;;0.72109133;0.2936491;-0.47425765;;;;;1707.5
1875.0;1786.7;;;;;;;;;;;;;;;;;58.58791;7.9004793;53.80795;;1707.5
1875.0;1786.7;;;;;;;;;;;;;;0.6994842;0.25684378;-0.4885403;;;;;1707.5
1875.0;1786.7;;;;;;;;;;;;;;;;;57.69906;6.6492205;54.219948;;1717.0
1875.0;1786.7;;;;;;;;;;;;;;0.68495744;0.260506;-0.51173437;;;;;1717.0
1875.0;1786.7;;;;;;;;;;;;;;;;;55.829796;7.843257;54.158913;;1717.0
1875.0;1786.7;;;;;;;;;;;;;;0.67793816;0.26209295;-0.49238563;;;;;1717.0
1875.0;1786.7;;;;;;;;;;;;;;;;;54.387802;8.369701;54.261913;;1726.7
1875.0;1786.7;;;;;;;;;;;;;;0.67683953;0.26227608;-0.49427778;;;;;1726.7
1875.0;1786.7;;;;;;;;;;;;;;;;;51.587727;9.9147005;54.406876;;1726.7
1875.0;1786.7;;;;;;;;;;;;;;0.6619465;0.2675863;-0.48713645;;;;;1726.7
1875.0;1786.6;;;;;;;;;;-101.14978;-29.438917;118.472855;;;;;;;;;
1875.0;1786.6;;;;;;;-0.04773095;-0.7439192;0.09063997;;;;;;;;;;;;
1875.0;1786.6;;;;;;;;;;-102.52693;-31.659138;122.295296;;;;;;;;;
1875.0;1786.6;;;;;;;-0.04235969;-0.7478866;0.07428205;;;;;;;;;;;;
1876.0;1789.2;;;;-0.33506778;1.4195939;0.073932655;;;;;;;;;;;;;;;
1876.0;1789.2;;;;-0.3393822;1.4167329;0.07493592;;;;;;;;;;;;;;;
1876.0;1789.2;;;;-0.34318545;1.4131547;0.074932106;;;;;;;;;;;;;;;
1876.0;1789.2;;;;-0.3452721;1.4096109;0.07396317;;;;;;;;;;;;;;;
1876.0;1789.2;;;;-0.34658435;1.4057695;0.07255555;;;;;;;;;;;;;;;
1876.0;1796.1;;;;;;;;;;-103.77056;-33.581806;124.53459;;;;;;;;;
1876.0;1796.1;;;;;;;-0.029541917;-0.7513047;0.06024354;;;;;;;;;;;;
1876.0;1796.1;;;;;;;;;;-105.06378;-35.489212;124.88556;;;;;;;;;
1876.0;1796.1;;;;;;;-0.0077517014;-0.7592395;0.051759392;;;;;;;;;;;;
1876.0;1799.2;;;;-0.34718326;1.4016038;0.07180787;;;;;;;;;;;;;;;
1876.0;1799.2;;;;-0.34696963;1.3986589;0.07135392;;;;;;;;;;;;;;;
1876.0;1799.2;;;;-0.34529117;1.396309;0.07040406;;;;;;;;;;;;;;;
1876.0;1799.2;;;;-0.34263232;1.3946077;0.07051087;;;;;;;;;;;;;;;
1876.0;1799.2;;;;-0.34071353;1.3930131;0.07189942;;;;;;;;;;;;;;;
1876.0;1802.2;262143;262143;14598;;;;;;;;;;;;;;;;;;
1876.0;1805.7;;;;;;;;;;-106.34175;-37.38899;124.881744;;;;;;;;;
1876.0;1805.7;;;;;;;0.015381329;-0.7661977;0.042847987;;;;;;;;;;;;
1876.0;1805.7;;;;;;;;;;-107.711266;-38.99884;124.881744;;;;;;;;;
1876.0;1805.7;;;;;;;0.0430311;-0.77388835;0.03790399;;;;;;;;;;;;
1876.0;1808.1;;;;;;;;;;;;;188;;;;;;;;
1876.0;1808.1;;;;;;;;;;;;;269;;;;;;;;
1876.0;1808.1;;;;;;;;;;;;;510;;;;;;;;
1876.0;1808.1;;;;;;;;;;;;;101;;;;;;;;
1876.0;1808.1;;;;;;;;;;;;;-675;;;;;;;;
1997.0;1809.2;;;;-0.3381844;1.3916398;0.07365037;;;;;;;;;;;;;;;
1997.0;1809.2;;;;-0.33457187;1.3916818;0.0724907;;;;;;;;;;;;;;;
1997.0;1809.2;;;;-0.3315964;1.3918382;0.070075996;;;;;;;;;;;;;;;
1997.0;1809.2;;;;-0.33031085;1.3915635;0.067882545;;;;;;;;;;;;;;;
1997.0;1809.2;;;;-0.32954028;1.3915788;0.065567024;;;;;;;;;;;;;;;
1997.0;1815.0;;;;;;;;;;-109.15708;-40.208134;124.881744;;;;;;;;;
1997.0;1815.0;;;;;;;0.07361065;-0.781518;0.03784295;;;;;;;;;;;;
1997.0;1815.0;;;;;;;;;;-110.534225;-40.723137;124.881744;;;;;;;;;
1997.0;1815.0;;;;;;;0.10449538;-0.7902463;0.042847987;;;;;;;;;;;;
1997.0;1819.2;;;;-0.3285866;1.391327;0.060981758;;;;;;;;;;;;;;;
1997.0;1819.2;;;;-0.32913592;1.3912965;0.059345253;;;;;;;;;;;;;;;
1997.0;1819.2;;;;-0.3321419;1.390381;0.054428108;;;;;;;;;;;;;;;
1997.0;1819.2;;;;-0.33568195;1.3893052;0.049129494;;;;;;;;;;;;;;;
1997.0;1819.2;;;;-0.33967212;1.3879701;0.047710426;;;;;;;;;;;;;;;
1997.0;1822.2;262143;262143;14608;;;;;;;;;;;;;;;;;;
1997.0;1824.6;;;;;;;;;;-111.92281;-40.482803;124.881744;;;;;;;;;
1997.0;1824.6;;;;;;;0.13196203;-0.7972655;0.04956206;;;;;;;;;;;;
1997.0;1824.6;;;;;;;;;;-113.2046;-39.937283;124.881744;;;;;;;;;
1997.0;1824.6;;;;;;;0.15649892;-0.80751973;0.06317332;;;;;;;;;;;;
1998.0;1829.3;;;;-0.34321597;1.3848687;0.04822541;;;;;;;;;;;;;;;
1998.0;1829.3;;;;-0.34676364;1.3808633;0.048423775;;;;;;;;;;;;;;;
1998.0;1829.3;;;;-0.34938052;1.3767625;0.045249943;;;;;;;;;;;;;;;
1998.0;1829.3;;;;-0.35120395;1.3706285;0.040557865;;;;;;;;;;;;;;;
1998.0;1829.3;;;;-0.35271075;1.363453;0.037067417;;;;;;;;;;;;;;;
1998.0;1834.3;;;;;;;;;;-114.21552;-39.407024;124.881744;;;;;;;;;
1998.0;1834.3;;;;;;;0.17554247;-0.81691945;0.08233894;;;;;;;;;;;;
1998.0;1834.3;;;;;;;;;;-115.13871;-38.975952;124.881744;;;;;;;;;
1998.0;1834.3;;;;;;;0.17914365;-0.8250984;0.10498367;;;;;;;;;;;;
1998.0;1839.4;;;;;;;;;;;;;;;;;48.226875;10.589923;54.71206;;1736.3
1998.0;1839.4;;;;;;;;;;;;;;0.6236152;0.28852198;-0.50758386;;;;;1736.3
1998.0;1839.4;;;;;;;;;;;;;;;;;44.747765;9.746849;55.475018;;1736.3
1998.0;1839.4;;;;;;;;;;;;;;0.6070742;0.25220495;-0.5529954;;;;;1736.3
1998.0;1839.4;;;;;;;;;;;;;;;;;41.287727;11.284219;54.95239;;1745.9
1998.0;1839.4;;;;;;;;;;;;;;0.60438854;0.2592242;-0.5536668;;;;;1745.9
1998.0;1839.4;;;;;;;;;;;;;;;;;38.399918;13.199256;53.716393;;1745.9
1998.0;1839.4;;;;;;;;;;;;;;0.58082825;0.25244913;-0.539201;;;;;1745.9
1998.0;1839.4;;;;;;;;;;;;;;;;;37.15247;12.897885;52.43843;;1755.6
1998.0;1839.4;;;;;;;;;;;;;;0.5716117;0.27594838;-0.53596604;;;;;1755.6
1998.0;1839.4;;;;;;;;;;;;;;;;;35.81347;12.028108;51.366467;;1755.6
1998.0;1839.4;;;;;;;;;;;;;;0.5554979;0.29255044;-0.5373089;;;;;1755.6
2000.0;1839.2;;;;-0.35436633;1.3557817;0.03530884;;;;;;;;;;;;;;;
2000.0;1839.2;;;;-0.35323337;1.3459054;0.03301621;;;;;;;;;;;;;;;
2000.0;1839.2;;;;-0.35914615;1.3381158;0.027240757;;;;;;;;;;;;;;;
2000.0;1839.2;;;;-0.36139682;1.33033;0.024391178;;;;;;;;;;;;;;;
2000.0;1839.2;;;;-0.36418536;1.3220407;0.018306734;;;;;;;;;;;;;;;
2000.0;1842.4;262143;262143;14618;;;;;;;;;;;;;;;;;;
2000.0;1843.8;;;;;;;;;;-115.787224;-38.350323;124.881744;;;;;;;;;
2000.0;1843.8;;;;;;;0.18292795;-0.8354137;0.13245033;;;;;;;;;;;;
2000.0;1843.8;;;;;;;;;;-116.10767;-37.987915;124.881744;;;;;;;;;
2000.0;1843.8;;;;;;;0.18720053;-0.85006255;0.15576647;;;;;;;;;;;;
2000.0;1846.8;;;;;;;;;;;;;;;;;33.635216;24746;50.12665;;1765.3
2000.0;1846.8;;;;;;;;;;;;;;0.5429853;0.3154393;-0.5360881;;;;;1765.3
2000.0;1846.8;;;;;;;;;;;;;;;;;31.155582;8.40022;49.42473;;1765.3
2000.0;1846.8;;;;;;;;;;;;;;0.55226296;0.33356732;-0.53242594;;;;;1765.3
2000.0;1846.8;;;;;;;;;;;;;;;;;28.24488;7.9195538;48.898285;;1775.0
2000.0;1846.8;;;;;;;;;;;;;;0.56953645;0.34479812;-0.50270087;;;;;1775.0
2000.0;1846.8;;;;;;;;;;;;;;;;;25.257881;7.87759;48.29936;;1775.0
2000.0;1846.8;;;;;;;;;;;;;;0.57368696;0.31727043;-0.47511217;;;;;1775.0
2000.0;1846.8;;;;;;;;;;;;;;;;;22.965178;7.0955534;47.658466;;1784.6
2000.0;1846.8;;;;;;;;;;;;;;0.5731986;0.30133978;-0.48188725;;;;;1784.6
2000.0;1846.8;;;;;;;;;;;;;;;;;20.329142;5.7298503;46.9451;;1784.6
2000.0;1846.8;;;;;;;;;;;;;;0.57832575;0.27918333;-0.49006623;;;;;1784.6
2049.0;1848.3;;;;;;;;;;;;;-1247;;;;;;;;
2049.0;1848.3;;;;;;;;;;;;;-1724;;;;;;;;
2049.0;1848.3;;;;;;;;;;;;;-2067;;;;;;;;
2049.0;1848.3;;;;;;;;;;;;;-1423;;;;;;;;
2049.0;1848.3;;;;;;;;;;;;;1077;;;;;;;;
2049.0;1849.2;;;;-0.36459354;1.3130113;0.014629366;;;;;;;;;;;;;;;
2049.0;1849.2;;;;-0.36382678;1.3023225;0.012329103;;;;;;;;;;;;;;;
2049.0;1849.2;;;;-0.3611031;1.2929841;0.008903504;;;;;;;;;;;;;;;
2049.0;1849.2;;;;-0.35585406;1.2852517;0.0033340459;;;;;;;;;;;;;;;
2049.0;1849.2;;;;-0.3490105;1.2765771;-8.392335E-4;;;;;;;;;;;;;;;
2049.0;1853.3;;;;;;;;;;-116.44719;-37.48436;124.881744;;;;;;;;;
2049.0;1853.3;;;;;;;0.19336528;-0.8641621;0.18451491;;;;;;;;;;;;
2049.0;1853.3;;;;;;;;;;-116.67608;-37.015137;124.881744;;;;;;;;;
2049.0;1853.3;;;;;;;0.19763787;-0.87942135;0.2102115;;;;;;;;;;;;
2049.0;1859.2;;;;-0.34037402;1.2681466;-0.0038909917;;;;;;;;;;;;;;;
2049.0;1859.2;;;;-0.3298302;1.2601014;-0.0066986093;;;;;;;;;;;;;;;
2049.0;1859.2;;;;-0.31780627;1.2536737;-0.011211396;;;;;;;;;;;;;;;
2049.0;1859.2;;;;-0.30619815;1.2461702;-0.015121462;;;;;;;;;;;;;;;
2049.0;1859.2;;;;-0.29528812;1.2375795;-0.019088747;;;;;;;;;;;;;;;
2049.0;1862.8;;;;;;;;;;-116.66082;-37.179176;124.881744;;;;;;;;;
2049.0;1862.8;;;;;;;0.2031312;-0.89309365;0.23493148;;;;;;;;;;;;
2049.0;1862.8;;;;;;;;;;-116.29078;-37.91162;124.881744;;;;;;;;;
2049.0;1862.8;;;;;;;0.20795313;-0.90774256;0.25940734;;;;;;;;;;;;
2049.0;1862.4;262143;262143;14609;;;;;;;;;;;;;;;;;;
2053.0;1869.1;;;;-0.28538516;1.2292672;-0.02301407;;;;;;;;;;;;;;;
2053.0;1869.1;;;;-0.27711108;1.2196084;-0.026996616;;;;;;;;;;;;;;;
2053.0;1869.1;;;;-0.26908877;1.2104455;-0.03110123;;;;;;;;;;;;;;;
2053.0;1869.1;;;;-0.2584534;1.2026063;-0.039379124;;;;;;;;;;;;;;;
2053.0;1869.1;;;;-0.2493935;1.1944772;-0.04700852;;;;;;;;;;;;;;;
2053.0;1872.2;;;;;;;;;;-115.59648;-39.246803;124.881744;;;;;;;;;
2053.0;1872.2;;;;;;;0.21143223;-0.9225745;0.27936643;;;;;;;;;;;;
2053.0;1872.2;;;;;;;;;;-114.69619;-40.490433;124.881744;;;;;;;;;
2053.0;1872.2;;;;;;;0.2164983;-0.9353313;0.29816583;;;;;;;;;;;;
2053.0;1879.2;;;;-0.24274448;1.1862184;-0.05157853;;;;;;;;;;;;;;;
2053.0;1879.2;;;;-0.23653033;1.1800348;-0.056285866;;;;;;;;;;;;;;;
2053.0;1879.2;;;;-0.22859195;1.1749307;-0.06528092;;;;;;;;;;;;;;;
2053.0;1879.2;;;;-0.2228432;1.1711694;-0.07403565;;;;;;;;;;;;;;;
2053.0;1879.2;;;;-0.2180672;1.1690294;-0.081687935;;;;;;;;;;;;;;;
2053.0;1881.8;;;;;;;;;;-113.742485;-41.3068;124.881744;;;;;;;;;
2053.0;1881.8;;;;;;;0.22278512;-0.9488205;0.31415755;;;;;;;;;;;;
2053.0;1881.8;;;;;;;;;;-112.66289;-41.955322;124.881744;;;;;;;;;
2053.0;1881.8;;;;;;;0.2327952;-0.9672536;0.32789087;;;;;;;;;;;;
2053.0;1882.4;262143;262143;14604;;;;;;;;;;;;;;;;;;
2053.0;1888.4;;;;;;;;;;;;;1384;;;;;;;;
2053.0;1888.4;;;;;;;;;;;;;-8696;;;;;;;;
2053.0;1888.4;;;;;;;;;;;;;-27352;;;;;;;;
2053.0;1888.4;;;;;;;;;;;;;-38094;;;;;;;;
2053.0;1888.4;;;;;;;;;;;;;-28096;;;;;;;;
2054.0;1889.3;;;;-0.21404651;1.1677896;-0.09012986;;;;;;;;;;;;;;;
2054.0;1889.3;;;;-0.2103081;1.1694757;-0.09906007;;;;;;;;;;;;;;;
2054.0;1889.3;;;;-0.20681384;1.1733743;-0.10860826;;;;;;;;;;;;;;;
2054.0;1889.3;;;;-0.20505908;1.1781389;-0.11687471;;;;;;;;;;;;;;;
2054.0;1889.3;;;;-0.20121387;1.1864282;-0.1287842;;;;;;;;;;;;;;;
2054.0;1891.4;;;;;;;;;;-111.53371;-42.622913;124.881744;;;;;;;;;
2054.0;1891.4;;;;;;;0.24079104;-0.9929502;0.34369946;;;;;;;;;;;;
2054.0;1891.4;;;;;;;;;;-110.43885;-42.970062;124.881744;;;;;;;;;
2054.0;1891.4;;;;;;;0.24347667;-1.0199896;0.3568224;;;;;;;;;;;;
2054.0;1899.4;;;;-0.19522479;1.1958696;-0.1438904;;;;;;;;;;;;;;;
2054.0;1899.4;;;;-0.19124606;1.2064439;-0.15639116;;;;;;;;;;;;;;;
2054.0;1899.4;;;;-0.18817905;1.2181703;-0.16980363;;;;;;;;;;;;;;;
2054.0;1899.4;;;;-0.18714143;1.2313806;-0.19110873;;;;;;;;;;;;;;;
2054.0;1899.4;;;;-0.18983462;1.2464181;-0.1878815;;;;;;;;;;;;;;;
2054.0;1901.0;;;;;;;;;;-109.31731;-42.710655;124.881744;;;;;;;;;
2054.0;1901.0;;;;;;;0.24512467;-1.0492874;0.37202063;;;;;;;;;;;;
2054.0;1901.0;;;;;;;;;;-108.20338;-42.34062;124.881744;;;;;;;;;
2054.0;1901.0;;;;;;;0.24585712;-1.0817591;0.38776818;;;;;;;;;;;;
2054.0;1902.7;262143;262143;14604;;;;;;;;;;;;;;;;;;
2055.0;1909.5;;;;-0.18940738;1.2594529;-0.18932727;;;;;;;;;;;;;;;
2055.0;1909.5;;;;-0.1953049;1.2661515;-0.20045856;;;;;;;;;;;;;;;
2055.0;1909.5;;;;-0.20780185;1.2644769;-0.20676425;;;;;;;;;;;;;;;
2055.0;1909.5;;;;-0.22204974;1.2578317;-0.21627048;;;;;;;;;;;;;;;
2055.0;1909.5;;;;-0.22937015;1.2503053;-0.22378924;;;;;;;;;;;;;;;
2055.0;1910.6;;;;;;;;;;-107.18101;-41.932434;124.881744;;;;;;;;;
2055.0;1910.6;;;;;;;0.24756615;-1.1104465;0.40260017;;;;;;;;;;;;
2055.0;1910.6;;;;;;;;;;-106.24256;-41.405987;124.881744;;;;;;;;;
2055.0;1910.6;;;;;;;0.2515946;-1.1376079;0.4163335;;;;;;;;;;;;
2055.0;1914.6;;;;;;;;;;;;;;;;;18.238625;4.314554;46.014282;;1794.2
2055.0;1914.6;;;;;;;;;;;;;;0.5814997;0.29010895;-0.50233465;;;;;1794.2
2055.0;1914.6;;;;;;;;;;;;;;;;;15.911589;4.2497025;45.4268;;1794.2
2055.0;1914.6;;;;;;;;;;;;;;0.5870541;0.28797266;-0.4667501;;;;;1794.2
2055.0;1914.6;;;;;;;;;;;;;;;;;12.894071;3.238777;45.224613;;1803.8
2055.0;1914.6;;;;;;;;;;;;;;0.5895566;0.27826777;-0.43568224;;;;;1803.8
2055.0;1914.6;;;;;;;;;;;;;;;;;9.224219;1.209296;45.194096;;1803.8
2055.0;1914.6;;;;;;;;;;;;;;0.5885189;0.2854091;-0.4334849;;;;;1803.8
2055.0;1914.6;;;;;;;;;;;;;;;;;3.6545916;0.12207404;45.65569;;1813.4
2055.0;1914.6;;;;;;;;;;;;;;0.59797966;0.2624592;-0.4450209;;;;;1813.4
2055.0;1914.6;;;;;;;;;;;;;;;;;1.2817774;0.90029603;45.255135;;1813.4
2055.0;1914.6;;;;;;;;;;;;;;0.598529;0.2593463;-0.43171483;;;;;1813.4
2060.0;1915.8;;;;;;;;;;;;;;;;;1.9837031;1.2970366;43.919952;;1823.1
2060.0;1915.8;;;;;;;;;;;;;;0.60731834;0.2552568;-0.413831;;;;;1823.1
2060.0;1915.8;;;;;;;;;;;;;;;;;3.6202583;1.5602587;42.348248;;1823.1
2060.0;1915.8;;;;;;;;;;;;;;0.59663683;0.27149266;-0.4132206;;;;;1823.1
2060.0;1915.8;;;;;;;;;;;;;;;;;1.4458144;0.77440715;41.76458;;1832.7
2060.0;1915.8;;;;;;;;;;;;;;0.5898007;0.27954954;-0.4709006;;;;;1832.7
2060.0;1915.8;;;;;;;;;;;;;;;;;-2.4452956;2.4414806;42.18421;;1832.7
2060.0;1915.8;;;;;;;;;;;;;;0.5922422;0.2705771;-0.45081943;;;;;1832.7
2060.0;1915.8;;;;;;;;;;;;;;;;;-5.0927763;2.4414806;42.626728;;1842.4
2060.0;1915.8;;;;;;;;;;;;;;0.6115299;0.23261207;-0.3853267;;;;;1842.4
2060.0;1915.8;;;;;;;;;;;;;;;;;-4.737999;0.5264443;42.56188;;1842.4
2060.0;1915.8;;;;;;;;;;;;;;0.65022737;0.20514542;-0.3471175;;;;;1842.4
2060.0;1919.3;;;;-0.23102573;1.2434884;-0.22943118;;;;;;;;;;;;;;;
2060.0;1919.3;;;;-0.22933581;1.2364846;-0.23342136;;;;;;;;;;;;;;;
2060.0;1919.3;;;;-0.22492221;1.2302247;-0.23355487;;;;;;;;;;;;;;;
2060.0;1919.3;;;;-0.22093204;1.2256585;-0.2337189;;;;;;;;;;;;;;;
2060.0;1919.3;;;;-0.21898654;1.2229692;-0.234108;;;;;;;;;;;;;;;
2060.0;1919.9;;;;;;;;;;-105.38042;-40.95584;124.881744;;;;;;;;;
2060.0;1919.9;;;;;;;0.26136053;-1.1592151;0.42701498;;;;;;;;;;;;
2060.0;1919.9;;;;;;;;;;-104.44197;-40.36836;124.881744;;;;;;;;;
2060.0;1919.9;;;;;;;0.27069917;-1.1800897;0.4377575;;;;;;;;;;;;
2060.0;1922.6;262143;262143;14600;;;;;;;;;;;;;;;;;;
2061.0;1928.6;;;;;;;;;;;;;-4941;;;;;;;;
2061.0;1928.6;;;;;;;;;;;;;11683;;;;;;;;
2061.0;1928.6;;;;;;;;;;;;;12500;;;;;;;;
2061.0;1928.6;;;;;;;;;;;;;5609;;;;;;;;
2061.0;1928.6;;;;;;;;;;;;;1704;;;;;;;;
2061.0;1929.4;;;;-0.21950915;1.2232744;-0.23607638;;;;;;;;;;;;;;;
2061.0;1929.4;;;;-0.22174075;1.2272531;-0.23875049;;;;;;;;;;;;;;;
2061.0;1929.4;;;;-0.22602847;1.2337877;-0.2417374;;;;;;;;;;;;;;;
2061.0;1929.4;;;;-0.23273852;1.2424127;-0.24450687;;;;;;;;;;;;;;;
2061.0;1929.4;;;;-0.24106982;1.2519265;-0.24625781;;;;;;;;;;;;;;;
2061.0;1929.5;;;;;;;;;;-103.38145;-39.719837;124.881744;;;;;;;;;
2061.0;1929.5;;;;;;;0.2883999;-1.195288;0.44825587;;;;;;;;;;;;
2061.0;1929.5;;;;;;;;;;-102.44682;-38.510544;124.881744;;;;;;;;;
2061.0;1929.5;;;;;;;0.30225533;-1.2050538;0.4585101;;;;;;;;;;;;
2061.0;1938.7;;;;;;;;;;-101.55415;-36.97699;124.881744;;;;;;;;;
2061.0;1938.7;;;;;;;0.31965086;-1.2166508;0.4664449;;;;;;;;;;;;
2061.0;1938.7;;;;;;;;;;-100.78356;-35.050507;124.881744;;;;;;;;;
2061.0;1938.7;;;;;;;0.33478805;-1.2269661;0.47456282;;;;;;;;;;;;
2061.0;1939.0;;;;-0.2515488;1.2608415;-0.24896243;;;;;;;;;;;;;;;
2061.0;1939.0;;;;-0.26368335;1.2685281;-0.2492905;;;;;;;;;;;;;;;
2061.0;1939.0;;;;-0.27230838;1.2759973;-0.25259402;;;;;;;;;;;;;;;
2061.0;1939.0;;;;-0.2801285;1.2819635;-0.25573352;;;;;;;;;;;;;;;
2061.0;1939.0;;;;-0.28741458;1.2864038;-0.25598148;;;;;;;;;;;;;;;
2061.0;1942.4;262143;262143;14601;;;;;;;;;;;;;;;;;;
2063.0;1948.3;;;;;;;;;;-99.99771;-32.69677;124.881744;;;;;;;;;
2063.0;1948.3;;;;;;;0.34864345;-1.2324595;0.4822535;;;;;;;;;;;;
2063.0;1948.3;;;;;;;;;;-99.288155;-29.648733;124.881744;;;;;;;;;
2063.0;1948.3;;;;;;;0.36121708;-1.2380749;0.49006623;;;;;;;;;;;;
2063.0;1949.1;;;;-0.2931595;1.2905809;-0.25555804;;;;;;;;;;;;;;;
2063.0;1949.1;;;;-0.2975388;1.2951432;-0.25306705;;;;;;;;;;;;;;;
2063.0;1949.1;;;;-0.30030444;1.3006707;-0.25075534;;;;;;;;;;;;;;;
2063.0;1949.1;;;;-0.30249408;1.3069917;-0.247139;;;;;;;;;;;;;;;
2063.0;1949.1;;;;-0.3031769;1.3148042;-0.24466327;;;;;;;;;;;;;;;
2063.0;1957.9;;;;;;;;;;-98.513756;-25.58977;124.881744;;;;;;;;;
2063.0;1957.9;;;;;;;0.3745842;-1.2428968;0.5007477;;;;;;;;;;;;
2063.0;1957.9;;;;;;;;;;-97.71264;-20.947142;124.881744;;;;;;;;;
2063.0;1957.9;;;;;;;0.38758507;-1.2477187;0.5106967;;;;;;;;;;;;
2063.0;1959.2;;;;-0.30287555;1.3234826;-0.24172214;;;;;;;;;;;;;;;
2063.0;1959.2;;;;-0.30441287;1.3321496;-0.23705295;;;;;;;;;;;;;;;
2063.0;1959.2;;;;-0.305851;1.3415986;-0.23300174;;;;;;;;;;;;;;;
2063.0;1959.2;;;;-0.30770877;1.351082;-0.22815707;;;;;;;;;;;;;;;
2063.0;1959.2;;;;-0.31009296;1.3606302;-0.2224007;;;;;;;;;;;;;;;
2063.0;1962.6;262143;262143;14611;;;;;;;;;;;;;;;;;;
2063.0;1967.5;;;;;;;;;;-96.82761;-15.7284775;124.881744;;;;;;;;;
2063.0;1967.5;;;;;;;0.4032716;-1.2542497;0.52424693;;;;;;;;;;;;
2063.0;1967.5;;;;;;;;;;-95.8739;-9.384442;124.881744;;;;;;;;;
2063.0;1967.5;;;;;;;0.41840875;-1.2696921;0.544023;;;;;;;;;;;;
2064.0;1968.6;;;;;;;;;;;;;1387;;;;;;;;
2064.0;1968.6;;;;;;;;;;;;;787;;;;;;;;
2064.0;1968.6;;;;;;;;;;;;;-151;;;;;;;;
2064.0;1968.6;;;;;;;;;;;;;-457;;;;;;;;
2064.0;1968.6;;;;;;;;;;;;;-772;;;;;;;;
2064.0;1969.3;;;;-0.313015;1.3686944;-0.21519092;;;;;;;;;;;;;;;
2064.0;1969.3;;;;-0.31388095;1.3775941;-0.21134952;;;;;;;;;;;;;;;
2064.0;1969.3;;;;-0.31367496;1.3866464;-0.20775226;;;;;;;;;;;;;;;
2064.0;1969.3;;;;-0.3135071;1.3951608;-0.20182803;;;;;;;;;;;;;;;
2064.0;1969.3;;;;-0.31309512;1.4034883;-0.19485477;;;;;;;;;;;;;;;
2064.0;1974.6;;;;;;;;;;;;;;;;;-4.058962;-0.4730369;42.18421;;1852.1
2064.0;1974.6;;;;;;;;;;;;;;0.69685966;0.17896055;-0.33277383;;;;;1852.1
2064.0;1974.6;;;;;;;;;;;;;;;;;-2.8534806;0.23270364;41.474655;;1852.1
2064.0;1974.6;;;;;;;;;;;;;;0.72634053;0.17804499;-0.331431;;;;;1852.1
2064.0;1974.6;;;;;;;;;;;;;;;;;-2.750481;1.2512589;40.620136;;1861.7
2064.0;1974.6;;;;;;;;;;;;;;0.74434644;0.16663106;-0.3315531;;;;;1861.7
2064.0;1974.6;;;;;;;;;;;;;;;;;-3.055666;1.453444;40.002136;;1861.7
2064.0;1974.6;;;;;;;;;;;;;;0.7546617;0.15997803;-0.38099307;;;;;1861.7
2064.0;1974.6;;;;;;;;;;;;;;;;;-4.337443;1.7700735;39.738914;;1871.3
2064.0;1974.6;;;;;;;;;;;;;;0.7417829;0.13776055;-0.43800166;;;;;1871.3
2064.0;1974.6;;;;;;;;;;;;;;;;;-3.3875546;2.1057773;39.46806;;1871.3
2064.0;1974.6;;;;;;;;;;;;;;0.764977;0.12915434;-0.45008698;;;;;1871.3
2109.0;1975.3;;;;;;;;;;;;;;;;;0.7248146;2.7008882;38.335064;;1881.0
2109.0;1975.3;;;;;;;;;;;;;;0.79103976;0.114322335;-0.42677084;;;;;1881.0
2109.0;1975.3;;;;;;;;;;;;;;;;;6.8742943;1.2970366;36.26362;;1881.0
2109.0;1975.3;;;;;;;;;;;;;;0.7943358;0.11468856;-0.40253913;;;;;1881.0
2109.0;1975.3;;;;;;;;;;;;;;;;;12.703329;-3.1662953;33.673363;;1890.7
2109.0;1975.3;;;;;;;;;;;;;;0.7912229;0.1053499;-0.43458357;;;;;1890.7
2109.0;1975.3;;;;;;;;;;;;;;;;;16.872921;-5.752739;31.079287;;1890.7
2109.0;1975.3;;;;;;;;;;;;;;0.8021485;0.1208533;-0.46748254;;;;;1890.7
2109.0;1975.3;;;;;;;;;;;;;;;;;19.699697;-6.2791834;30.705435;;1900.3
2109.0;1975.3;;;;;;;;;;;;;;0.8344371;0.10541093;-0.4868923;;;;;1900.3
2109.0;1975.3;;;;;;;;;;;;;;;;;21.584217;-5.2339244;31.56377;;1900.3
2109.0;1975.3;;;;;;;;;;;;;;0.8456679;0.13263345;-0.47920164;;;;;1900.3
2109.0;1976.8;;;;;;;;;;-94.771416;-1.6479995;124.881744;;;;;;;;;
2109.0;1976.8;;;;;;;0.43586534;-1.2859889;0.56386;;;;;;;;;;;;
2109.0;1976.8;;;;;;;;;;-93.43242;7.0955534;124.881744;;;;;;;;;
2109.0;1976.8;;;;;;;0.4496597;-1.3014923;0.5835139;;;;;;;;;;;;
2109.0;1979.1;;;;-0.31249622;1.4119836;-0.18848804;;;;;;;;;;;;;;;
2109.0;1979.1;;;;-0.31157687;1.4203149;-0.18311693;;;;;;;;;;;;;;;
2109.0;1979.1;;;;-0.31061557;1.4272767;-0.17728807;;;;;;;;;;;;;;;
2109.0;1979.1;;;;-0.30980685;1.4346086;-0.17118074;;;;;;;;;;;;;;;
2109.0;1979.1;;;;-0.30978015;1.4409715;-0.16581728;;;;;;;;;;;;;;;
2109.0;1982.5;262143;262143;14603;;;;;;;;;;;;;;;;;;
2111.0;1986.4;;;;;;;;;;-91.956085;16.655478;124.881744;;;;;;;;;
2111.0;1986.4;;;;;;;0.4582049;-1.3135777;0.5983459;;;;;;;;;;;;
2111.0;1986.4;;;;;;;;;;-90.78112;26.364178;124.881744;;;;;;;;;
2111.0;1986.4;;;;;;;0.458388;-1.3216956;0.6122013;;;;;;;;;;;;
2111.0;1989.1;;;;-0.30949786;1.4464189;-0.15906908;;;;;;;;;;;;;;;
2111.0;1989.1;;;;-0.30968478;1.4509736;-0.15199663;;;;;;;;;;;;;;;
2111.0;1989.1;;;;-0.30762103;1.4547235;-0.1470566;;;;;;;;;;;;;;;
2111.0;1989.1;;;;-0.30363467;1.4583436;-0.14301683;;;;;;;;;;;;;;;
2111.0;1989.1;;;;-0.3001404;1.4606973;-0.13767625;;;;;;;;;;;;;;;
2111.0;1995.6;;;;;;;;;;-89.663376;35.93173;124.881744;;;;;;;;;
2111.0;1995.6;;;;;;;0.45271158;-1.3282876;0.6259346;;;;;;;;;;;;
2111.0;1995.6;;;;;;;;;;-88.3282;45.381023;124.87411;;;;;;;;;
2111.0;1995.6;;;;;;;0.4448378;-1.3346355;0.6344798;;;;;;;;;;;;
2111.0;1998.7;;;;-0.29558948;1.4622041;-0.13237001;;;;;;;;;;;;;;;
2111.0;1998.7;;;;-0.29041293;1.4637948;-0.12705995;;;;;;;;;;;;;;;
2111.0;1998.7;;;;-0.28366092;1.4653131;-0.12187578;;;;;;;;;;;;;;;
2111.0;1998.7;;;;-0.2760735;1.4658319;-0.11418916;;;;;;;;;;;;;;;
2111.0;1998.7;;;;-0.2667885;1.4662019;-0.104949966;;;;;;;;;;;;;;;
2111.0;2002.2;262143;262143;14616;;;;;;;;;;;;;;;;;;
2111.0;2005.1;;;;;;;;;;-87.13035;54.780724;123.78307;;;;;;;;;
2111.0;2005.1;;;;;;;0.43665883;-1.3467818;0.64174324;;;;;;;;;;;;
2111.0;2005.1;;;;;;;;;;-86.05838;63.37932;118.60638;;;;;;;;;
2111.0;2005.1;;;;;;;0.42616045;-1.3597827;0.6480911;;;;;;;;;;;;
2112.0;2008.2;;;;;;;;;;;;;-1426;;;;;;;;
2112.0;2008.2;;;;;;;;;;;;;-2049;;;;;;;;
2112.0;2008.2;;;;;;;;;;;;;-2249;;;;;;;;
2112.0;2008.2;;;;;;;;;;;;;-2166;;;;;;;;
2112.0;2008.2;;;;;;;;;;;;;-2249;;;;;;;;
2112.0;2008.8;;;;-0.2543526;1.467106;-0.096641555;;;;;;;;;;;;;;;
2112.0;2008.8;;;;-0.23985675;1.4676362;-0.089607246;;;;;;;;;;;;;;;
2112.0;2008.8;;;;-0.22369388;1.4674684;-0.08529664;;;;;;;;;;;;;;;
2112.0;2008.8;;;;-0.2084656;1.4656144;-0.08145905;;;;;;;;;;;;;;;
2112.0;2008.8;;;;-0.1907883;1.4632722;-0.07590867;;;;;;;;;;;;;;;
2112.0;2014.7;;;;;;;;;;-84.917755;70.98224;112.06778;;;;;;;;;
2112.0;2014.7;;;;;;;0.41511276;-1.3790094;0.6549272;;;;;;;;;;;;
2112.0;2014.7;;;;;;;;;;-83.50246;77.32628;105.3003;;;;;;;;;
2112.0;2014.7;;;;;;;0.4043092;-1.3996398;0.66261786;;;;;;;;;;;;
2112.0;2018.9;;;;-0.17117311;1.4596826;-0.06756974;;;;;;;;;;;;;;;
2112.0;2018.9;;;;-0.15125658;1.4552499;-0.060272224;;;;;;;;;;;;;;;
2112.0;2018.9;;;;-0.13136674;1.449814;-0.054809578;;;;;;;;;;;;;;;
2112.0;2018.9;;;;-0.111129776;1.4426576;-0.050582893;;;;;;;;;;;;;;;
2112.0;2018.9;;;;-0.091213234;1.4344445;-0.046943672;;;;;;;;;;;;;;;
2115.0;2020.2;;;;;;;;;;;;;;;;;21.572771;-4.318369;32.715843;;1910.0
2115.0;2020.2;;;;;;;;;;;;;;0.873928;0.16541032;-0.484756;;;;;1910.0
2115.0;2020.2;;;;;;;;;;;;;;;;;21.084475;-3.482925;34.249397;;1910.0
2115.0;2020.2;;;;;;;;;;;;;;0.88845485;0.19580676;-0.4867702;;;;;1910.0
2115.0;2020.2;;;;;;;;;;;;;;;;;20.947142;-2.887814;35.531174;;1919.7
2115.0;2020.2;;;;;;;;;;;;;;0.8876003;0.21662039;-0.49385053;;;;;1919.7
2115.0;2020.2;;;;;;;;;;;;;;;;;22.072514;-4.055147;36.29032;;1919.7
2115.0;2020.2;;;;;;;;;;;;;;0.8944365;0.25183874;-0.49372846;;;;;1919.7
2115.0;2020.2;;;;;;;;;;;;;;;;;22.251808;-6.164739;37.453842;;1929.3
2115.0;2020.2;;;;;;;;;;;;;;0.92788476;0.28418836;-0.4782861;;;;;1929.3
2115.0;2020.2;;;;;;;;;;;;;;;;;20.363476;-6.431776;38.800472;;1929.3
2115.0;2020.2;;;;;;;;;;;;;;0.951323;0.30860317;-0.47413558;;;;;1929.3
2115.0;2021.4;;;;;;;;;;;;;;;;;17.757957;-5.8671837;40.87573;;1938.9
2115.0;2021.4;;;;;;;;;;;;;;0.9400311;0.36298716;-0.49024934;;;;;1938.9
2115.0;2021.4;;;;;;;;;;;;;;;;;15.064699;-6.5080724;43.527027;;1938.9
2115.0;2021.4;;;;;;;;;;;;;;0.92965484;0.3937498;-0.5121616;;;;;1938.9
2115.0;2021.4;;;;;;;;;;;;;;;;;12.123478;-7.2405167;46.15543;;1948.5
2115.0;2021.4;;;;;;;;;;;;;;0.9295938;0.41804254;-0.5182653;;;;;1948.5
2115.0;2021.4;;;;;;;;;;;;;;;;;7.0116277;-6.912442;49.28358;;1948.5
2115.0;2021.4;;;;;;;;;;;;;;0.9421674;0.41804254;-0.514481;;;;;1948.5
2115.0;2021.4;;;;;;;;;;;;;;;;;2.0371106;-5.859554;52.465134;;1958.2
2115.0;2021.4;;;;;;;;;;;;;;0.95736563;0.4148076;-0.5007477;;;;;1958.2
2115.0;2021.4;;;;;;;;;;;;;;;;;-1.1024811;-5.5810723;55.139317;;1958.2
2115.0;2021.4;;;;;;;;;;;;;;0.9594409;0.40089116;-0.4911649;;;;;1958.2
2116.0;2022.4;262143;262143;14593;;;;;;;;;;;;;;;;;;
2116.0;2024.2;;;;;;;;;;-81.87353;82.31605;98.40312;;;;;;;;;
2116.0;2024.2;;;;;;;0.39381084;-1.4170965;0.6707968;;;;;;;;;;;;
2116.0;2024.2;;;;;;;;;;-80.17212;85.783714;91.62419;;;;;;;;;
2116.0;2024.2;;;;;;;0.3852046;-1.4258248;0.67842644;;;;;;;;;;;;
2116.0;2028.9;;;;-0.07191468;1.4243394;-0.043167118;;;;;;;;;;;;;;;
2116.0;2028.9;;;;-0.05308152;1.4119607;-0.039588932;;;;;;;;;;;;;;;
2116.0;2028.9;;;;-0.03342438;1.3991967;-0.035236362;;;;;;;;;;;;;;;
2116.0;2028.9;;;;-0.012081148;1.3862344;-0.03171921;;;;;;;;;;;;;;;
2116.0;2028.9;;;;0.009666444;1.3724138;-0.0263176;;;;;;;;;;;;;;;
2116.0;2033.7;;;;;;;;;;-78.3372;87.72164;85.11231;;;;;;;;;
2116.0;2033.7;;;;;;;0.37849057;-1.4274117;0.68434703;;;;;;;;;;;;
2116.0;2033.7;;;;;;;;;;-76.536606;88.08024;78.89797;;;;;;;;;
2116.0;2033.7;;;;;;;0.37153232;-1.4241158;0.6905118;;;;;;;;;;;;
2116.0;2038.9;;;;0.030872349;1.3580514;-0.022415163;;;;;;;;;;;;;;;
2116.0;2038.9;;;;0.0503769;1.3429834;-0.020038607;;;;;;;;;;;;;;;
2116.0;2038.9;;;;0.06788636;1.3279649;-0.019622805;;;;;;;;;;;;;;;
2116.0;2038.9;;;;0.083393104;1.311783;-0.019584658;;;;;;;;;;;;;;;
2116.0;2038.9;;;;0.096965805;1.2957231;-0.020210268;;;;;;;;;;;;;;;
2116.0;2042.5;262143;262143;14604;;;;;;;;;;;;;;;;;;
2230.0;2043.3;;;;;;;;;;-74.7589;87.0655;72.88965;;;;;;;;;
2230.0;2043.3;;;;;;;0.36573383;-1.4123967;0.6931974;;;;;;;;;;;;
2230.0;2043.3;;;;;;;;;;-72.91254;84.89105;67.17124;;;;;;;;;
2230.0;2043.3;;;;;;;0.35541856;-1.4005555;0.69429606;;;;;;;;;;;;
2230.0;2048.4;;;;;;;;;;;;;-2644;;;;;;;;
2230.0;2048.4;;;;;;;;;;;;;-3227;;;;;;;;
2230.0;2048.4;;;;;;;;;;;;;-3849;;;;;;;;
2230.0;2048.4;;;;;;;;;;;;;-4350;;;;;;;;
2230.0;2048.4;;;;;;;;;;;;;-4622;;;;;;;;
2230.0;2048.9;;;;0.10873796;1.2789308;-0.022132875;;;;;;;;;;;;;;;
2230.0;2048.9;;;;0.119907394;1.2622796;-0.02624512;;;;;;;;;;;;;;;
2230.0;2048.9;;;;0.13022615;1.2455713;-0.030830387;;;;;;;;;;;;;;;
2230.0;2048.9;;;;0.13966371;1.2296678;-0.03424454;;;;;;;;;;;;;;;
2230.0;2048.9;;;;0.14793397;1.2137986;-0.0374527;;;;;;;;;;;;;;;
2230.0;2052.8;;;;;;;;;;-71.142456;81.75909;61.548203;;;;;;;;;
2230.0;2052.8;;;;;;;0.34565264;-1.3877376;0.6936857;;;;;;;;;;;;
2230.0;2052.8;;;;;;;;;;-69.35331;78.081604;56.104465;;;;;;;;;
2230.0;2052.8;;;;;;;0.33436078;-1.380108;0.6967376;;;;;;;;;;;;
2230.0;2058.8;;;;0.15508653;1.1986047;-0.041419987;;;;;;;;;;;;;;;
2230.0;2058.8;;;;0.16092683;1.1834832;-0.045375828;;;;;;;;;;;;;;;
2230.0;2058.8;;;;0.16613771;1.1692506;-0.04785157;;;;;;;;;;;;;;;
2230.0;2058.8;;;;0.16943742;1.1557695;-0.05107499;;;;;;;;;;;;;;;
2230.0;2058.8;;;;0.1699486;1.1422807;-0.05483628;;;;;;;;;;;;;;;
2230.0;2062.3;;;;;;;;;;-67.31621;73.91202;50.954464;;;;;;;;;
2230.0;2062.3;;;;;;;0.3253273;-1.3743095;0.6993011;;;;;;;;;;;;
2230.0;2062.3;;;;;;;;;;-65.19517;69.12442;46.17069;;;;;;;;;
2230.0;2062.3;;;;;;;0.3150731;-1.3715628;0.7051607;;;;;;;;;;;;
2235.0;2062.5;262143;262143;14607;;;;;;;;;;;;;;;;;;
2235.0;2068.9;;;;0.1693802;1.1299783;-0.05785752;;;;;;;;;;;;;;;
2235.0;2068.9;;;;0.16736223;1.1186792;-0.060741432;;;;;;;;;;;;;;;
2235.0;2068.9;;;;0.16436769;1.1081086;-0.063991554;;;;;;;;;;;;;;;
2235.0;2068.9;;;;0.16002657;1.0980836;-0.06659318;;;;;;;;;;;;;;;
2235.0;2068.9;;;;0.15482332;1.0881921;-0.0678711;;;;;;;;;;;;;;;
2235.0;2071.9;;;;;;;;;;-62.89102;63.69213;41.75695;;;;;;;;;
2235.0;2071.9;;;;;;;0.3090304;-1.3704642;0.71071506;;;;;;;;;;;;
2235.0;2071.9;;;;;;;;;;-60.43809;57.676167;37.759026;;;;;;;;;
2235.0;2071.9;;;;;;;0.30121768;-1.3674123;0.71730703;;;;;;;;;;;;
2235.0;2079.0;;;;0.14900972;1.0786783;-0.068500526;;;;;;;;;;;;;;;
2235.0;2079.0;;;;0.14241792;1.0689241;-0.06898118;;;;;;;;;;;;;;;
2235.0;2079.0;;;;0.13564302;1.0595132;-0.06836701;;;;;;;;;;;;;;;
2235.0;2079.0;;;;0.12923051;1.0501748;-0.06830979;;;;;;;;;;;;;;;
2235.0;2079.0;;;;0.12283327;1.041031;-0.06747437;;;;;;;;;;;;;;;
2235.0;2081.5;;;;;;;;;;-57.893612;51.38554;34.154026;;;;;;;;;
2235.0;2081.5;;;;;;;0.2969451;-1.3606982;0.7241432;;;;;;;;;;;;
2235.0;2081.5;;;;;;;;;;-55.227055;45.056763;30.705435;;;;;;;;;
2235.0;2081.5;;;;;;;0.29242834;-1.3539232;0.727195;;;;;;;;;;;;
2235.0;2082.7;262143;262143;14605;;;;;;;;;;;;;;;;;;
2236.0;2087.1;;;;;;;;;;;;;;;;;-3.032777;-6.015961;57.52739;;1967.8
2236.0;2087.1;;;;;;;;;;;;;;0.95113987;0.3850215;-0.483108;;;;;1967.8
2236.0;2087.1;;;;;;;;;;;;;;;;;-4.993591;-6.55385;59.717094;;1967.8
2236.0;2087.1;;;;;;;;;;;;;;0.95144504;0.3665273;-0.4868923;;;;;1967.8
2236.0;2087.1;;;;;;;;;;;;;;;;;-6.7560353;-7.000183;62.025055;;1977.4
2236.0;2087.1;;;;;;;;;;;;;;0.96194345;0.35999635;-0.496292;;;;;1977.4
2236.0;2087.1;;;;;;;;;;;;;;;;;-8.7397375;-6.851405;64.24146;;1977.4
2236.0;2087.1;;;;;;;;;;;;;;0.98495436;0.35444197;-0.5136265;;;;;1977.4
2236.0;2087.1;;;;;;;;;;;;;;;;;-10.170293;-5.8252206;66.15269;;1987.0
2236.0;2087.1;;;;;;;;;;;;;;1.0095522;0.35444197;-0.5175939;;;;;1987.0
2236.0;2087.1;;;;;;;;;;;;;;;;;-11.257515;-5.138554;67.770164;;1987.0
2236.0;2087.1;;;;;;;;;;;;;;1.0561235;0.3566393;-0.5427412;;;;;1987.0
2236.0;2087.7;;;;;;;;;;;;;;;;;-12.398144;-3.0976286;68.998535;;1996.6
2236.0;2087.7;;;;;;;;;;;;;;1.1052583;0.33930477;-0.557329;;;;;1996.6
2236.0;2087.7;;;;;;;;;;;;;;;;;-13.088626;-0.59511095;69.685196;;1996.6
2236.0;2087.7;;;;;;;;;;;;;;1.1650746;0.33112583;-0.56593525;;;;;1996.6
2236.0;2087.7;;;;;;;;;;;;;;;;;-13.641774;2.0371106;69.75387;;2006.3
2236.0;2087.7;;;;;;;;;;;;;;1.2333751;0.32862332;-0.60029906;;;;;2006.3
2236.0;2087.7;;;;;;;;;;;;;;;;;-13.500626;5.5543685;68.334755;;2006.3
2236.0;2087.7;;;;;;;;;;;;;;1.3135777;0.34150213;-0.6328318;;;;;2006.3
2236.0;2087.7;;;;;;;;;;;;;;;;;-12.447737;9.876553;65.5385;;2015.9
2236.0;2087.7;;;;;;;;;;;;;;1.4010438;0.37318033;-0.67146826;;;;;2015.9
2236.0;2087.7;;;;;;;;;;;;;;;;;-10.376293;15.263069;61.38798;;2015.9
2236.0;2087.7;;;;;;;;;;;;;;1.4719688;0.40467542;-0.7030854;;;;;2015.9
2238.0;2088.3;;;;;;;;;;;;;-4800;;;;;;;;
2238.0;2088.3;;;;;;;;;;;;;-5104;;;;;;;;
2238.0;2088.3;;;;;;;;;;;;;-5667;;;;;;;;
2238.0;2088.3;;;;;;;;;;;;;-6231;;;;;;;;
2238.0;2088.3;;;;;;;;;;;;;-6472;;;;;;;;
2238.0;2088.7;;;;0.1171837;1.0312272;-0.06440354;;;;;;;;;;;;;;;
2238.0;2088.7;;;;0.111145034;1.0212556;-0.06291581;;;;;;;;;;;;;;;
2238.0;2088.7;;;;0.104827896;1.0117456;-0.060493477;;;;;;;;;;;;;;;
2238.0;2088.7;;;;0.09959032;1.0013582;-0.057025917;;;;;;;;;;;;;;;
2238.0;2088.7;;;;0.09484483;0.9907571;-0.052574165;;;;;;;;;;;;;;;
2238.0;2090.8;;;;;;;;;;-52.728355;38.464767;27.44377;;;;;;;;;
2238.0;2090.8;;;;;;;0.2893765;-1.3415936;0.7265847;;;;;;;;;;;;
2238.0;2090.8;;;;;;;;;;-50.351723;31.979584;24.422438;;;;;;;;;
2238.0;2090.8;;;;;;;0.286874;-1.3285928;0.72328866;;;;;;;;;;;;
2238.0;2098.7;;;;0.088989265;0.98018277;-0.047969826;;;;;;;;;;;;;;;
2238.0;2098.7;;;;0.08392716;0.9697;-0.043060306;;;;;;;;;;;;;;;
2238.0;2098.7;;;;0.07864762;0.9590303;-0.038219456;;;;;;;;;;;;;;;
2238.0;2098.7;;;;0.073104866;0.9481851;-0.034610752;;;;;;;;;;;;;;;
2238.0;2098.7;;;;0.066867836;0.93722546;-0.030879978;;;;;;;;;;;;;;;
2238.0;2100.3;;;;;;;;;;-48.03995;25.79577;21.446882;;;;;;;;;
2238.0;2100.3;;;;;;;0.28614154;-1.3150426;0.7171239;;;;;;;;;;;;
2238.0;2100.3;;;;;;;;;;-45.6328;20.054476;18.604847;;;;;;;;;
2238.0;2100.3;;;;;;;0.2854091;-1.3003327;0.70821255;;;;;;;;;;;;
2238.0;2102.5;262143;262143;14596;;;;;;;;;;;;;;;;;;
2239.0;2108.8;;;;0.060939796;0.925686;-0.026493076;;;;;;;;;;;;;;;
2239.0;2108.8;;;;0.05505372;0.9143373;-0.021698;;;;;;;;;;;;;;;
2239.0;2108.8;;;;0.049034126;0.90345013;-0.01797104;;;;;;;;;;;;;;;
2239.0;2108.8;;;;0.04243088;0.89232266;-0.012413027;;;;;;;;;;;;;;;
2239.0;2108.8;;;;0.035953525;0.8811456;-0.0076065073;;;;;;;;;;;;;;;
2239.0;2109.8;;;;;;;;;;-43.073063;15.617847;15.705587;;;;;;;;;
2239.0;2109.8;;;;;;;0.28955963;-1.2821436;0.69576097;;;;;;;;;;;;
2239.0;2109.8;;;;;;;;;;-40.715508;12.733848;12.882626;;;;;;;;;
2239.0;2109.8;;;;;;;0.29767755;-1.2664571;0.68599504;;;;;;;;;;;;
2239.0;2118.8;;;;0.030193333;0.87030804;-0.002410889;;;;;;;;;;;;;;;
2239.0;2118.8;;;;0.024444584;0.85876095;0.0026588442;;;;;;;;;;;;;;;
2239.0;2118.8;;;;0.018466951;0.84739697;0.007865907;;;;;;;;;;;;;;;
2239.0;2118.8;;;;0.012973787;0.8364068;0.012405397;;;;;;;;;;;;;;;
2239.0;2118.8;;;;0.008392335;0.82470334;0.017169954;;;;;;;;;;;;;;;
2239.0;2119.4;;;;;;;;;;-38.575397;9.773552;10.155034;;;;;;;;;
2239.0;2119.4;;;;;;;0.31464583;-1.2520524;0.67281103;;;;;;;;;;;;
2239.0;2119.4;;;;;;;;;;-36.37425;6.595813;7.1642203;;;;;;;;;
2239.0;2119.4;;;;;;;0.32587665;-1.2412488;0.6651204;;;;;;;;;;;;
2239.0;2122.7;262143;262143;14597;;;;;;;;;;;;;;;;;;
2239.0;2128.6;;;;;;;;;;;;;-6395;;;;;;;;
2239.0;2128.6;;;;;;;;;;;;;-5789;;;;;;;;
2239.0;2128.6;;;;;;;;;;;;;-4551;;;;;;;;
2239.0;2128.6;;;;;;;;;;;;;-3264;;;;;;;;
2239.0;2128.6;;;;;;;;;;;;;-2413;;;;;;;;
2241.0;2128.9;;;;0.0036659245;0.81344235;0.02201462;;;;;;;;;;;;;;;
2241.0;2128.9;;;;-0.0012168885;0.8025476;0.027362827;;;;;;;;;;;;;;;
2241.0;2128.9;;;;-0.0059547434;0.79172146;0.032760624;;;;;;;;;;;;;;;
2241.0;2128.9;;;;-0.01072693;0.78130734;0.038780216;;;;;;;;;;;;;;;
2241.0;2128.9;;;;-0.0147476215;0.77172863;0.044067387;;;;;;;;;;;;;;;
2241.0;2129.0;;;;;;;;;;-34.03958;4.39848;4.387036;;;;;;;;;
2241.0;2129.0;;;;;;;0.33606982;-1.2348399;0.65956604;;;;;;;;;;;;
2241.0;2129.0;;;;;;;;;;-31.781212;3.9063692;1.8463699;;;;;;;;;
2241.0;2129.0;;;;;;;0.35401472;-1.2327037;0.6585894;;;;;;;;;;;;
2241.0;2138.7;;;;;;;;;;-29.671621;4.8028507;-0.7095553;;;;;;;;;
2241.0;2138.7;;;;;;;0.3757439;-1.2347178;0.6606647;;;;;;;;;;;;
2241.0;2138.7;;;;;;;;;;-27.569658;6.8933682;-3.3684807;;;;;;;;;
2241.0;2138.7;;;;;;;0.40064698;-1.2339854;0.66603595;;;;;;;;;;;;
2241.0;2139.0;;;;-0.018321993;0.76217663;0.04888154;;;;;;;;;;;;;;;
2241.0;2139.0;;;;-0.021572115;0.75345623;0.054115303;;;;;;;;;;;;;;;
2241.0;2139.0;;;;-0.0247345;0.7453614;0.05943299;;;;;;;;;;;;;;;
2241.0;2139.0;;;;-0.027278904;0.73803335;0.06408692;;;;;;;;;;;;;;;
2241.0;2139.0;;;;-0.029129032;0.73136145;0.06891633;;;;;;;;;;;;;;;
2242.0;2139.8;;;;;;;;;;;;;;;;;-6.3745537;19.94766;55.516983;;2025.5
2242.0;2139.8;;;;;;;;;;;;;;1.5245826;0.4243904;-0.72310555;;;;;2025.5
2242.0;2139.8;;;;;;;;;;;;;;;;;-1.2627033;23.258919;47.925507;;2025.5
2242.0;2139.8;;;;;;;;;;;;;;1.569628;0.4801172;-0.73085725;;;;;2025.5
2242.0;2139.8;;;;;;;;;;;;;;;;;2.2583697;25.1854;39.929653;;2035.2
2242.0;2139.8;;;;;;;;;;;;;;1.5890988;0.5285196;-0.7332987;;;;;2035.2
2242.0;2139.8;;;;;;;;;;;;;;;;;2.7733696;25.830103;31.39973;;2035.2
2242.0;2139.8;;;;;;;;;;;;;;1.615772;0.6259346;-0.73000276;;;;;2035.2
2242.0;2139.8;;;;;;;;;;;;;;;;;0.80111086;26.0094;22.980438;;2044.8
2242.0;2139.8;;;;;;;;;;;;;;1.5925779;0.7229835;-0.72725606;;;;;2044.8
2242.0;2139.8;;;;;;;;;;;;;;;;;-2.9259622;27.649769;14.183477;;2044.8
2242.0;2139.8;;;;;;;;;;;;;;1.5388653;0.7889645;-0.68184453;;;;;2044.8
2242.0;2140.4;;;;;;;;;;;;;;;;;-7.7517014;29.629658;4.5396285;;2054.4
2242.0;2140.4;;;;;;;;;;;;;;1.4699545;0.87130344;-0.6300852;;;;;2054.4
2242.0;2140.4;;;;;;;;;;;;;;;;;-13.676107;32.41066;-5.5352945;;2054.4
2242.0;2140.4;;;;;;;;;;;;;;1.4028138;0.9072543;-0.5558031;;;;;2054.4
2242.0;2140.4;;;;;;;;;;;;;;;;;-20.500809;35.75625;-15.823847;;2063.9
2242.0;2140.4;;;;;;;;;;;;;;1.3353069;0.9412519;-0.48139897;;;;;2063.9
2242.0;2140.4;;;;;;;;;;;;;;;;;-27.855768;41.13895;-25.58214;;2063.9
2242.0;2140.4;;;;;;;;;;;;;;1.2787255;0.9427778;-0.41749322;;;;;2063.9
2242.0;2140.4;;;;;;;;;;;;;;;;;-35.252693;48.692284;-35.302284;;2073.6
2242.0;2140.4;;;;;;;;;;;;;;1.2446059;0.9422895;-0.35895872;;;;;2073.6
2242.0;2140.4;;;;;;;;;;;;;;;;;-43.462173;57.83639;-45.0148;;2073.6
2242.0;2140.4;;;;;;;;;;;;;;1.2186041;0.9306925;-0.31287575;;;;;2073.6
2243.0;2142.7;262143;262143;14597;;;;;;;;;;;;;;;;;;
2243.0;2148.0;;;;;;;;;;-25.475325;10.170293;-6.0350356;;;;;;;;;
2243.0;2148.0;;;;;;;0.42628255;-1.2290415;0.67445904;;;;;;;;;;;;
2243.0;2148.0;;;;;;;;;;-23.239845;14.980773;-8.884701;;;;;;;;;
2243.0;2148.0;;;;;;;0.45680106;-1.221717;0.6880703;;;;;;;;;;;;
2243.0;2148.9;;;;-0.030433659;0.7254372;0.07336808;;;;;;;;;;;;;;;
2243.0;2148.9;;;;-0.03141785;0.7198754;0.0787201;;;;;;;;;;;;;;;
2243.0;2148.9;;;;-0.031616215;0.7155419;0.08485032;;;;;;;;;;;;;;;
2243.0;2148.9;;;;-0.031211857;0.7125016;0.09122086;;;;;;;;;;;;;;;
2243.0;2148.9;;;;-0.030208591;0.71038824;0.097892776;;;;;;;;;;;;;;;
2243.0;2157.5;;;;;;;;;;-20.863216;21.42018;-12.0052185;;;;;;;;;
2243.0;2157.5;;;;;;;0.48829615;-1.2113407;0.70400095;;;;;;;;;;;;
2243.0;2157.5;;;;;;;;;;-18.150883;29.633474;-15.293588;;;;;;;;;
2243.0;2157.5;;;;;;;0.52076787;-1.208655;0.7284768;;;;;;;;;;;;
2243.0;2158.9;;;;-0.029552463;0.7095528;0.10562135;;;;;;;;;;;;;;;
2243.0;2158.9;;;;-0.029090885;0.7097855;0.113029495;;;;;;;;;;;;;;;
2243.0;2158.9;;;;-0.02928925;0.71067435;0.11943437;;;;;;;;;;;;;;;
2243.0;2158.9;;;;-0.029830936;0.71313864;0.12523271;;;;;;;;;;;;;;;
2243.0;2158.9;;;;-0.030902866;0.7159806;0.13011934;;;;;;;;;;;;;;;
2243.0;2162.8;262143;262143;14596;;;;;;;;;;;;;;;;;;
2288.0;2167.2;;;;;;;;;;-15.106662;39.7351;-18.803217;;;;;;;;;
2288.0;2167.2;;;;;;;0.5529954;-1.212012;0.75679797;;;;;;;;;;;;
2288.0;2167.2;;;;;;;;;;-11.757256;51.43513;-22.473066;;;;;;;;;
2288.0;2167.2;;;;;;;0.59181494;-1.2282479;0.784814;;;;;;;;;;;;
2288.0;2168.7;;;;;;;;;;;;;-1906;;;;;;;;
2288.0;2168.7;;;;;;;;;;;;;-1374;;;;;;;;
2288.0;2168.7;;;;;;;;;;;;;-548;;;;;;;;
2288.0;2168.7;;;;;;;;;;;;;586;;;;;;;;
2288.0;2168.7;;;;;;;;;;;;;1834;;;;;;;;
2288.0;2169.0;;;;-0.032032017;0.72046286;0.13468172;;;;;;;;;;;;;;;
2288.0;2169.0;;;;-0.03329468;0.72521216;0.13899232;;;;;;;;;;;;;;;
2288.0;2169.0;;;;-0.034126285;0.73078924;0.14308931;;;;;;;;;;;;;;;
2288.0;2169.0;;;;-0.034702305;0.73727804;0.14719011;;;;;;;;;;;;;;;
2288.0;2169.0;;;;-0.03570557;0.7435494;0.15179445;;;;;;;;;;;;;;;
2288.0;2176.3;;;;;;;;;;-8.0835905;64.47798;-26.097141;;;;;;;;;
2288.0;2176.3;;;;;;;0.62446976;-1.2489395;0.8130131;;;;;;;;;;;;
2288.0;2176.3;;;;;;;;;;-4.0017395;78.26472;-29.633474;;;;;;;;;
2288.0;2176.3;;;;;;;0.6513871;-1.2732322;0.8377331;;;;;;;;;;;;
2288.0;2178.5;;;;-0.036571506;0.75109494;0.1558571;;;;;;;;;;;;;;;
2288.0;2178.5;;;;-0.038032535;0.758217;0.15995027;;;;;;;;;;;;;;;
2288.0;2178.5;;;;-0.039543156;0.7660142;0.1632538;;;;;;;;;;;;;;;
2288.0;2178.5;;;;-0.041969303;0.77398694;0.16753007;;;;;;;;;;;;;;;
2288.0;2178.5;;;;-0.044658665;0.78152096;0.1713791;;;;;;;;;;;;;;;
2288.0;2182.5;262143;262143;14599;;;;;;;;;;;;;;;;;;
2291.0;2185.8;;;;;;;;;;0.40437025;92.07434;-33.3224;;;;;;;;;
2291.0;2185.8;;;;;;;0.6718955;-1.2920316;0.8556169;;;;;;;;;;;;
2291.0;2185.8;;;;;;;;;;5.1118503;105.38805;-37.118137;;;;;;;;;
2291.0;2185.8;;;;;;;0.68172246;-1.302713;0.8644673;;;;;;;;;;;;
2291.0;2188.5;;;;-0.04789353;0.78942883;0.17490007;;;;;;;;;;;;;;;
2291.0;2188.5;;;;-0.05151368;0.79784787;0.17862321;;;;;;;;;;;;;;;
2291.0;2188.5;;;;-0.05555726;0.80672085;0.1823845;;;;;;;;;;;;;;;
2291.0;2188.5;;;;-0.060295112;0.8158189;0.18508531;;;;;;;;;;;;;;;
2291.0;2188.5;;;;-0.0655098;0.82537854;0.18830493;;;;;;;;;;;;;;;
2291.0;2195.4;;;;;;;;;;10.0177;117.39708;-41.055023;;;;;;;;;
2291.0;2195.4;;;;;;;0.6772668;-1.3057039;0.86208683;;;;;;;;;;;;
2291.0;2195.4;;;;;;;;;;15.213477;124.332405;-45.018616;;;;;;;;;
2291.0;2195.4;;;;;;;0.6610919;-1.3017975;0.8500015;;;;;;;;;;;;
2291.0;2198.6;;;;-0.07099915;0.83467877;0.1908646;;;;;;;;;;;;;;;
2291.0;2198.6;;;;-0.0764618;0.8442079;0.19284824;;;;;;;;;;;;;;;
2291.0;2198.6;;;;-0.08195496;0.8540689;0.19511798;;;;;;;;;;;;;;;
2291.0;2198.6;;;;-0.08771516;0.8639871;0.19638827;;;;;;;;;;;;;;;
2291.0;2198.6;;;;-0.09337617;0.87319195;0.19792941;;;;;;;;;;;;;;;
2291.0;2202.7;262143;262143;14592;;;;;;;;;;;;;;;;;;
2291.0;2205.0;;;;;;;;;;20.737328;124.881744;-48.924988;;;;;;;;;
2291.0;2205.0;;;;;;;0.6311838;-1.2934965;0.82668537;;;;;;;;;;;;
2291.0;2205.0;;;;;;;;;;26.635029;124.881744;-52.926727;;;;;;;;;
2291.0;2205.0;;;;;;;0.59688103;-1.284341;0.78988004;;;;;;;;;;;;
2293.0;2208.5;;;;;;;;;;;;;2889;;;;;;;;
2293.0;2208.5;;;;;;;;;;;;;3244;;;;;;;;
2293.0;2208.5;;;;;;;;;;;;;2869;;;;;;;;
2293.0;2208.5;;;;;;;;;;;;;2535;;;;;;;;
2293.0;2208.5;;;;;;;;;;;;;2722;;;;;;;;
2293.0;2208.7;;;;-0.098274246;0.8824693;0.19931796;;;;;;;;;;;;;;;
2293.0;2208.7;;;;-0.1029091;0.89088833;0.20119861;;;;;;;;;;;;;;;
2293.0;2208.7;;;;-0.10782243;0.89878476;0.2029343;;;;;;;;;;;;;;;
2293.0;2208.7;;;;-0.112411514;0.9061471;0.20409015;;;;;;;;;;;;;;;
2293.0;2208.7;;;;-0.11637117;0.9123689;0.20463946;;;;;;;;;;;;;;;
2293.0;2214.4;;;;;;;;;;32.540363;124.881744;-57.237465;;;;;;;;;
2293.0;2214.4;;;;;;;0.56379896;-1.2719505;0.74800867;;;;;;;;;;;;
2293.0;2214.4;;;;;;;;;;38.403732;124.881744;-61.662647;;;;;;;;;
2293.0;2214.4;;;;;;;0.5315714;-1.2621235;0.70064396;;;;;;;;;;;;
2293.0;2218.7;;;;-0.12052919;0.9178201;0.20516208;;;;;;;;;;;;;;;
2293.0;2218.7;;;;-0.12481691;0.9230882;0.20560458;;;;;;;;;;;;;;;
2293.0;2218.7;;;;-0.12964632;0.9272424;0.20653155;;;;;;;;;;;;;;;
2293.0;2218.7;;;;-0.13442613;0.9312898;0.20553592;;;;;;;;;;;;;;;
2293.0;2218.7;;;;-0.13880922;0.9344789;0.20513919;;;;;;;;;;;;;;;
2293.0;2222.8;262143;262143;14595;;;;;;;;;;;;;;;;;;
2293.0;2224.1;;;;;;;;;;44.198433;124.881744;-65.881836;;;;;;;;;
2293.0;2224.1;;;;;;;0.50398266;-1.2552873;0.65285194;;;;;;;;;;;;
2293.0;2224.1;;;;;;;;;;50.050354;124.881744;-69.73861;;;;;;;;;
2293.0;2224.1;;;;;;;0.47572252;-1.2499161;0.6093936;;;;;;;;;;;;
2349.0;2228.8;;;;-0.14236452;0.9372331;0.20483783;;;;;;;;;;;;;;;
2349.0;2228.8;;;;-0.14583589;0.9395448;0.20370105;;;;;;;;;;;;;;;
2349.0;2228.8;;;;-0.14962389;0.94153225;0.20236209;;;;;;;;;;;;;;;
2349.0;2228.8;;;;-0.15361406;0.9436914;0.20012286;;;;;;;;;;;;;;;
2349.0;2228.8;;;;-0.15757753;0.94534695;0.19839862;;;;;;;;;;;;;;;
2349.0;2233.5;;;;;;;;;;55.986206;124.881744;-73.164314;;;;;;;;;
2349.0;2233.5;;;;;;;0.4464858;-1.2493668;0.56807154;;;;;;;;;;;;
2349.0;2233.5;;;;;;;;;;61.89535;124.881744;-76.1208;;;;;;;;;
2349.0;2233.5;;;;;;;0.4193243;-1.248085;0.5287637;;;;;;;;;;;;
2349.0;2238.7;;;;-0.16101839;0.9467851;0.19598392;;;;;;;;;;;;;;;
2349.0;2238.7;;;;-0.16431047;0.9487878;0.19404224;;;;;;;;;;;;;;;
2349.0;2238.7;;;;-0.16708757;0.95009625;0.19194415;;;;;;;;;;;;;;;
2349.0;2238.7;;;;-0.16912843;0.9514123;0.18983462;;;;;;;;;;;;;;;
2349.0;2238.7;;;;-0.16982652;0.95237744;0.1871605;;;;;;;;;;;;;;;
2349.0;2243.1;;;;;;;;;;67.5451;124.881744;-78.489784;;;;;;;;;
2349.0;2243.1;;;;;;;0.39478743;-1.2494888;0.49452192;;;;;;;;;;;;
2349.0;2243.1;;;;;;;;;;73.04605;124.881744;-80.37049;;;;;;;;;
2349.0;2243.1;;;;;;;0.3679922;-1.2527848;0.46406445;;;;;;;;;;;;
2349.0;2242.9;262143;262143;14596;;;;;;;;;;;;;;;;;;
2349.0;2248.7;;;;;;;;;;;;;3033;;;;;;;;
2349.0;2248.7;;;;;;;;;;;;;2854;;;;;;;;
2349.0;2248.7;;;;;;;;;;;;;2256;;;;;;;;
2349.0;2248.7;;;;;;;;;;;;;1809;;;;;;;;
2349.0;2248.7;;;;;;;;;;;;;1651;;;;;;;;
2351.0;2248.8;;;;-0.17032243;0.9538957;0.18531801;;;;;;;;;;;;;;;
2351.0;2248.8;;;;-0.17018129;0.95450604;0.18276598;;;;;;;;;;;;;;;
2351.0;2248.8;;;;-0.16934587;0.9557725;0.18038942;;;;;;;;;;;;;;;
2351.0;2248.8;;;;-0.16819383;0.9567262;0.17872621;;;;;;;;;;;;;;;
2351.0;2248.8;;;;-0.16619493;0.95787823;0.17771913;;;;;;;;;;;;;;;
2351.0;2252.8;;;;;;;;;;78.32194;124.881744;-81.54927;;;;;;;;;
2351.0;2252.8;;;;;;;0.34284493;-1.2570574;0.43818477;;;;;;;;;;;;
2351.0;2252.8;;;;;;;;;;83.44905;124.881744;-82.28553;;;;;;;;;
2351.0;2252.8;;;;;;;0.31879634;-1.2647481;0.41865292;;;;;;;;;;;;
2351.0;2258.9;;;;-0.16456605;0.95899594;0.17691423;;;;;;;;;;;;;;;
2351.0;2258.9;;;;-0.16269685;0.96060574;0.17603685;;;;;;;;;;;;;;;
2351.0;2258.9;;;;-0.16061021;0.9617921;0.17579652;;;;;;;;;;;;;;;
2351.0;2258.9;;;;-0.15828325;0.9636308;0.17572786;;;;;;;;;;;;;;;
2351.0;2258.9;;;;-0.15576173;0.9649774;0.17498018;;;;;;;;;;;;;;;
2351.0;2262.4;;;;;;;;;;88.663895;124.881744;-82.68609;;;;;;;;;
2351.0;2262.4;;;;;;;0.29700613;-1.2765893;0.40974152;;;;;;;;;;;;
2351.0;2262.4;;;;;;;;;;94.01608;124.881744;-82.659386;;;;;;;;;
2351.0;2262.4;;;;;;;0.27027193;-1.2911772;0.4029664;;;;;;;;;;;;
2351.0;2263.1;262143;262143;14601;;;;;;;;;;;;;;;;;;
2352.0;2269.0;;;;-0.15300752;0.9662515;0.1748543;;;;;;;;;;;;;;;
2352.0;2269.0;;;;-0.15020372;0.96834576;0.17531969;;;;;;;;;;;;;;;
2352.0;2269.0;;;;-0.14707567;0.9704553;0.1749344;;;;;;;;;;;;;;;
2352.0;2269.0;;;;-0.14377977;0.97306836;0.17476656;;;;;;;;;;;;;;;
2352.0;2269.0;;;;-0.14044572;0.97586834;0.17373277;;;;;;;;;;;;;;;
2352.0;2272.0;;;;;;;;;;99.33012;124.881744;-82.075714;;;;;;;;;
2352.0;2272.0;;;;;;;0.23987548;-1.3129673;0.39613026;;;;;;;;;;;;
2352.0;2272.0;;;;;;;;;;104.46486;124.881744;-80.6566;;;;;;;;;
2352.0;2272.0;;;;;;;0.20618305;-1.3402508;0.38990447;;;;;;;;;;;;
2352.0;2279.0;;;;-0.13627245;0.9799272;0.1727295;;;;;;;;;;;;;;;
2352.0;2279.0;;;;-0.13154985;0.9842073;0.17131044;;;;;;;;;;;;;;;
2352.0;2279.0;;;;-0.12664033;0.98952115;0.17012788;;;;;;;;;;;;;;;
2352.0;2279.0;;;;-0.1222458;0.9959146;0.16998674;;;;;;;;;;;;;;;
2352.0;2279.0;;;;-0.118186966;1.0030061;0.16939546;;;;;;;;;;;;;;;
2352.0;2281.5;;;;;;;;;;109.714035;124.881744;-78.688156;;;;;;;;;
2352.0;2281.5;;;;;;;0.1716361;-1.370098;0.3848384;;;;;;;;;;;;
2352.0;2281.5;;;;;;;;;;115.21882;124.881744;-76.24668;;;;;;;;;
2352.0;2281.5;;;;;;;0.13409834;-1.4028138;0.37842953;;;;;;;;;;;;
2352.0;2283.3;262143;262143;14602;;;;;;;;;;;;;;;;;;
2352.0;2289.0;;;;;;;;;;;;;1661;;;;;;;;
2352.0;2289.0;;;;;;;;;;;;;1872;;;;;;;;
2352.0;2289.0;;;;;;;;;;;;;2380;;;;;;;;
2352.0;2289.0;;;;;;;;;;;;;2994;;;;;;;;
2352.0;2289.0;;;;;;;;;;;;;3427;;;;;;;;
2409.0;2289.1;;;;-0.11511232;1.0105172;0.16973497;;;;;;;;;;;;;;;
2409.0;2289.1;;;;-0.11218645;1.0184671;0.1704178;;;;;;;;;;;;;;;
2409.0;2289.1;;;;-0.10973741;1.026703;0.17027666;;;;;;;;;;;;;;;
2409.0;2289.1;;;;-0.107994094;1.0353471;0.17002107;;;;;;;;;;;;;;;
2409.0;2289.1;;;;-0.10614778;1.0438157;0.17047884;;;;;;;;;;;;;;;
2409.0;2290.9;;;;;;;;;;120.76556;124.881744;-73.450424;;;;;;;;;
2409.0;2290.9;;;;;;;0.09479049;-1.4371166;0.36890775;;;;;;;;;;;;
2409.0;2290.9;;;;;;;;;;124.32096;124.881744;-70.34135;;;;;;;;;
2409.0;2290.9;;;;;;;0.056398205;-1.4700766;0.35767692;;;;;;;;;;;;
2409.0;2298.9;;;;-0.10448076;1.0524713;0.17070772;;;;;;;;;;;;;;;
2409.0;2298.9;;;;-0.10317995;1.0607721;0.17151262;;;;;;;;;;;;;;;
2409.0;2298.9;;;;-0.10152055;1.0691911;0.17288591;;;;;;;;;;;;;;;
2409.0;2298.9;;;;-0.10015871;1.0771791;0.17408754;;;;;;;;;;;;;;;
2409.0;2298.9;;;;-0.09970094;1.0847322;0.17596437;;;;;;;;;;;;;;;
2409.0;2300.4;;;;;;;;;;124.87792;124.881744;-67.07206;;;;;;;;;
2409.0;2300.4;;;;;;;0.021362957;-1.500473;0.34308907;;;;;;;;;;;;
2409.0;2300.4;;;;;;;;;;124.881744;123.2757;-63.63491;;;;;;;;;
2409.0;2300.4;;;;;;;-0.014282662;-1.5257424;0.32587665;;;;;;;;;;;;
2409.0;2303.3;262143;262143;14593;;;;;;;;;;;;;;;;;;
2411.0;2309.0;;;;-0.09926225;1.092682;0.17809297;;;;;;;;;;;;;;;
2411.0;2309.0;;;;-0.098979965;1.0997545;0.18111421;;;;;;;;;;;;;;;
2411.0;2309.0;;;;-0.09941484;1.106022;0.18460084;;;;;;;;;;;;;;;
2411.0;2309.0;;;;-0.099994674;1.1125413;0.18717958;;;;;;;;;;;;;;;
2411.0;2309.0;;;;-0.10081865;1.1186486;0.19049838;;;;;;;;;;;;;;;
2411.0;2310.1;;;;;;;;;;124.881744;113.185524;-60.213017;;;;;;;;;
2411.0;2310.1;;;;;;;-0.039674062;-1.5451522;0.30707723;;;;;;;;;;;;
2411.0;2310.1;;;;;;;;;;124.881744;99.25764;-56.825466;;;;;;;;;
2411.0;2310.1;;;;;;;-0.0568865;-1.558092;0.28601947;;;;;;;;;;;;
2411.0;2319.1;;;;-0.10187532;1.1243402;0.19413379;;;;;;;;;;;;;;;
2411.0;2319.1;;;;-0.10354997;1.1298906;0.19743732;;;;;;;;;;;;;;;
2411.0;2319.1;;;;-0.10540773;1.1349641;0.20134357;;;;;;;;;;;;;;;
2411.0;2319.1;;;;-0.10696794;1.139454;0.20497897;;;;;;;;;;;;;;;
2411.0;2319.1;;;;-0.10846712;1.1441537;0.20850757;;;;;;;;;;;;;;;
2411.0;2319.7;;;;;;;;;;124.881744;84.21201;-53.55617;;;;;;;;;
2411.0;2319.7;;;;;;;-0.06085391;-1.5627918;0.2611774;;;;;;;;;;;;
2411.0;2319.7;;;;;;;;;;124.881744;68.31568;-50.2678;;;;;;;;;
2411.0;2319.7;;;;;;;-0.059450056;-1.564623;0.23633534;;;;;;;;;;;;
2412.0;2320.0;;;;;;;;;;;;;;;;;-52.152317;67.941826;-54.723503;;2083.2
2412.0;2320.0;;;;;;;;;;;;;;1.1937621;0.92965484;-0.26416823;;;;;2083.2
2412.0;2320.0;;;;;;;;;;;;;;;;;-60.979797;77.31102;-64.596245;;2083.2
2412.0;2320.0;;;;;;;;;;;;;;1.1509141;0.943144;-0.2158269;;;;;2083.2
2412.0;2320.0;;;;;;;;;;;;;;;;;-69.578384;83.04849;-74.228645;;2092.8
2412.0;2320.0;;;;;;;;;;;;;;1.0872524;0.9653615;-0.18622394;;;;;2092.8
2412.0;2320.0;;;;;;;;;;;;;;;;;-77.379684;81.4272;-83.1019;;2092.8
