patientId;holterMac;flexMac;;;;;;;;;;;;;;;;;;;;
;CA:F3:0B:1E:33:78;D3:4A:5C:52:80:78;;;;;;;;;;;;;;;;;;;;
receivedTimeStamp;timeStamp;red;ir;green;adxl_accX;adxl_accY;adxl_accZ;lsm_accelX;lsm_accelY;lsm_accelZ;lsm_gyroX;lsm_gyroY;lsm_gyroZ;ecg;flex_lsm_accelX;flex_lsm_accelY;flex_lsm_accelZ;flex_lsm_gyroX;flex_lsm_gyroY;flex_lsm_gyroZ;flex_cmd;flexTimeStamp
260.0;212.3;;;;;;;;;;;;;;;;;;;;17;0.1
260.0;212.3;;;;;;;;;;;;;;;;;15.297402;0.5378887;-1.8387402;;127.5
260.0;212.3;;;;;;;;;;;;;;0.8842433;-0.13623463;-0.5277871;;;;;127.5
260.0;212.3;;;;;;;;;;;;;;;;;-2.437666;-20.489365;-11.833552;;127.5
260.0;212.3;;;;;;;;;;;;;;0.9160436;-0.14136174;-0.5272988;;;;;127.5
260.0;212.3;;;;;;;;;;;;;;;;;-64.790794;-87.405014;-59.09528;;137.0
260.0;212.3;;;;;;;;;;;;;;0.90133363;-0.14886929;-0.46729943;;;;;137.0
260.0;212.3;;;;;;;;;;;;;;;;;-122.48604;-124.988556;-118.41182;;137.0
260.0;212.3;;;;;;;;;;;;;;0.8858913;-0.15033418;-0.38435012;;;;;137.0
314.0;213.2;;;;;;;;;;;;;;;;;-65.5881;-124.988556;-68.66283;;146.6
314.0;213.2;;;;;;;;;;;;;;0.89370406;-0.12982574;-0.34833828;;;;;146.6
314.0;213.2;;;;;;;;;;;;;;;;;-8.587145;-124.988556;-10.460219;;146.6
314.0;213.2;;;;;;;;;;;;;;0.8849147;-0.16559343;-0.37012848;;;;;146.6
314.0;213.2;;;;;;;;;;;;;;;;;-10.074923;-120.86474;-5.859554;;156.3
314.0;213.2;;;;;;;;;;;;;;0.8938261;-0.11383404;-0.39692372;;;;;156.3
314.0;213.2;;;;;;;;;;;;;;;;;-13.458663;-97.472305;15.423291;;156.3
314.0;213.2;;;;;;;;;;;;;;0.8890652;-9.155553E-4;-0.40076905;;;;;156.3
314.0;213.2;;;;;;;;;;;;;;;;;-11.146885;-81.80486;19.54329;;165.9
314.0;213.2;;;;;;;;;;;;;;0.8509171;0.031006806;-0.344615;;;;;165.9
314.0;213.2;;;;;;;;;;;;;;;;;-6.3058867;-72.500534;22.930845;;165.9
314.0;213.2;;;;;;;;;;;;;;0.8141728;0.05981628;-0.24890897;;;;;165.9
314.0;280.2;;;;;;;;;;;;;;;;;-6.8857384;-72.84768;28.069399;;175.5
314.0;280.2;;;;;;;;;;;;;;0.7853023;0.07586902;-0.19135106;;;;;175.5
314.0;280.2;;;;;;;;;;;;;;;;;-11.085848;-79.76775;34.34858;;175.5
314.0;280.2;;;;;;;;;;;;;;0.76827294;0.071108125;-0.19812617;;;;;175.5
314.0;280.2;;;;;;;;;;;;;;;;;-17.58629;-84.589676;40.97873;;185.1
314.0;280.2;;;;;;;;;;;;;;0.7677236;0.04321421;-0.22315134;;;;;185.1
314.0;280.2;;;;;;;;;;;;;;;;;-27.191994;-83.067566;46.411022;;185.1
314.0;280.2;;;;;;;;;;;;;;0.7453841;0.014648885;-0.21460617;;;;;185.1
314.0;280.2;;;;;;;;;;;;;;;;;-41.001617;-78.97045;51.084167;;194.8
314.0;280.2;;;;;;;;;;;;;;0.7115085;-0.002929777;-0.17017122;;;;;194.8
314.0;280.2;;;;;;;;;;;;;;;;;-57.73339;-76.1208;57.25654;;194.8
314.0;280.2;;;;;;;;;;;;;;0.6696982;-0.03607288;-0.13177893;;;;;194.8
374.0;281.0;;;;;;;;;;;;;;;;;-72.95831;-75.92624;64.5085;;204.4
374.0;281.0;;;;;;;;;;;;;;0.6219672;-0.07599109;-0.11761834;;;;;204.4
374.0;281.0;;;;;;;;;;;;;;;;;-83.025604;-78.11594;72.71035;;204.4
374.0;281.0;;;;;;;;;;;;;;0.59132665;-0.14380322;-0.12958159;;;;;204.4
374.0;281.0;;;;;;;;;;;;;;;;;-85.38316;-79.603714;82.209236;;214.0
374.0;281.0;;;;;;;;;;;;;;0.58571124;-0.20099491;-0.12921537;;;;;214.0
374.0;281.0;;;;;;;;;;;;;;;;;-81.560715;-80.46968;92.95175;;214.0
374.0;281.0;;;;;;;;;;;;;;0.58589435;-0.255562;-0.111880854;;;;;214.0
374.0;281.0;;;;;;;;;;;;;;;;;-72.16102;-82.659386;106.49815;;223.6
374.0;281.0;;;;;;;;;;;;;;0.5716117;-0.35407576;-0.095156714;;;;;223.6
374.0;281.0;;;;;;;;;;;;;;;;;-59.736168;-86.44368;117.19108;;223.6
374.0;281.0;;;;;;;;;;;;;;0.5678274;-0.4340953;-0.10382397;;;;;223.6
374.0;333.0;;;;;;;;;;;;;;;;;-46.58269;-87.86661;123.424484;;233.3
374.0;333.0;;;;;;;;;;;;;;0.5757012;-0.52845854;-0.14099552;;;;;233.3
374.0;333.0;;;;;;;;;;;;;;;;;-22.94229;-82.583084;124.97711;;233.3
374.0;333.0;;;;;;;;;;;;;;0.5937681;-0.5757012;-0.16064943;;;;;233.3
374.0;333.0;;;;;;;;;;;;;;;;;9.372997;-72.61879;124.988556;;243.0
374.0;333.0;;;;;;;;;;;;;;0.56715596;-0.63667715;-0.14862514;;;;;243.0
374.0;333.0;;;;;;;;;;;;;;;;;48.96695;-81.896416;124.988556;;243.0
374.0;333.0;;;;;;;;;;;;;;0.57258826;-0.6599933;-0.21436201;;;;;243.0
374.0;333.0;;;;;;;;;;;;;;;;;71.40949;-88.21757;124.946594;;252.7
374.0;333.0;;;;;;;;;;;;;;0.61275065;-0.6870327;-0.27838984;;;;;252.7
374.0;333.0;;;;;;;;;;;;;;;;;76.8418;-73.114716;107.90201;;252.7
374.0;333.0;;;;;;;;;;;;;;0.6638386;-0.5727714;-0.21289712;;;;;252.7
440.0;334.1;;;;;;;;;;;;;;;;;79.702896;-66.82791;46.864986;;262.3
440.0;334.1;;;;;;;;;;;;;;0.8428602;-0.19000824;-0.14514603;;;;;262.3
440.0;334.1;;;;;;;;;;;;;;;;;56.096836;-47.593616;-10.334331;;262.3
440.0;334.1;;;;;;;;;;;;;;0.9985046;0.07959227;0.0026856288;;;;;262.3
440.0;334.1;;;;;;;;;;;;;;;;;-1.7624439;-11.249886;-76.11698;;271.9
440.0;334.1;;;;;;;;;;;;;;1.338847;0.36756492;0.2113712;;;;;271.9
440.0;334.1;;;;;;;;;;;;;;;;;-86.02786;55.124058;-122.17322;;271.9
440.0;334.1;;;;;;;;;;;;;;1.9177831;0.72798854;0.32782984;;;;;271.9
440.0;334.1;;;;;;;;;;;;;;;;;-122.596664;116.492966;-124.988556;;281.6
440.0;334.1;;;;;;;;;;;;;;1.996643;1.426191;0.3505356;;;;;281.6
440.0;334.1;;;;;;;;;;;;;;;;;-95.29023;124.988556;-124.988556;;281.6
440.0;334.1;;;;;;;;;;;;;;1.996643;1.9944457;0.98135316;;;;;281.6
440.0;393.1;;;;;;;;;;;;;;;;;-27.970213;104.38475;-124.988556;;291.2
440.0;393.1;;;;;;;;;;;;;;1.996643;1.9979857;1.4340647;;;;;291.2
440.0;393.1;;;;;;;;;;;;;;;;;-80.44297;-48.615986;-116.06189;;291.2
440.0;393.1;;;;;;;;;;;;;;1.996643;1.9979857;-0.34156317;;;;;291.2
440.0;393.1;;;;;;;;;;;;;;;;;-123.84792;-32.235176;43.53084;;300.8
440.0;393.1;;;;;;;;;;;;;;1.9313943;1.2635273;-1.366802;;;;;300.8
440.0;393.1;;;;;;;;;;;;;;;;;-91.49449;99.58571;124.85122;;300.8
440.0;393.1;;;;;;;;;;;;;;1.871456;-0.14001893;0.18250069;;;;;300.8
440.0;393.1;;;;;;;;;;;;;;;;;-66.625725;82.52586;124.988556;;310.2
440.0;393.1;;;;;;;;;;;;;;1.8431959;-0.40375987;0.64351326;;;;;310.2
440.0;393.1;;;;;;;;;;;;;;;;;-68.4759;42.085026;124.988556;;310.2
440.0;393.1;;;;;;;;;;;;;;1.6315806;-0.47932371;0.43934447;;;;;310.2
562.0;394.0;;;;;;;;;;;;;;;;;-48.928802;27.153845;124.988556;;319.9
562.0;394.0;;;;;;;;;;;;;;1.4001281;-0.46845913;0.120670184;;;;;319.9
562.0;394.0;;;;;;;;;;;;;;;;;8.625294;-5.283517;124.988556;;319.9
562.0;394.0;;;;;;;;;;;;;;1.0492874;-0.45997497;-0.14526811;;;;;319.9
562.0;394.0;;;;;;;;;;;;;;;;;79.252754;-81.36234;124.988556;;329.6
562.0;394.0;;;;;;;;;;;;;;0.62977993;-0.7810297;-0.5483566;;;;;329.6
562.0;394.0;;;;;;;;;;;;;;;;;122.539444;-123.49696;124.988556;;329.6
562.0;394.0;;;;;;;;;;;;;;0.403943;-1.0025941;-0.93435466;;;;;329.6
562.0;394.0;;;;;;;;;;;;;;;;;124.29044;-124.988556;124.988556;;339.3
562.0;394.0;;;;;;;;;;;;;;0.20270394;-1.2218391;-1.2226936;;;;;339.3
562.0;394.0;;;;;;;;;;;;;;;;;111.14841;-124.2523;124.988556;;339.3
562.0;394.0;;;;;;;;;;;;;;0.118228704;-1.2427137;-1.4430372;;;;;339.3
562.0;453.4;;;;;;;;;;;;;;;;;97.6249;-97.16331;124.98474;;348.8
562.0;453.4;;;;;;;;;;;;;;-0.030396435;-1.3165685;-1.5143895;;;;;348.8
562.0;453.4;;;;;;;;;;;;;;;;;94.09619;-36.191135;108.48567;;348.8
562.0;453.4;;;;;;;;;;;;;;-0.125309;-1.1148411;-1.357097;;;;;348.8
562.0;453.4;;;;;;;;;;;;;;;;;94.78286;-8.880886;62.45613;;358.5
562.0;453.4;;;;;;;;;;;;;;-0.2313303;-0.86410105;-1.1473739;;;;;358.5
562.0;453.4;;;;;;;;;;;;;;;;;66.625725;2.3422956;22.255623;;358.5
562.0;453.4;;;;;;;;;;;;;;0.011169774;-0.038575396;-1.050325;;;;;358.5
562.0;453.4;;;;;;;;;;;;;;;;;-38.384655;51.95395;1.9493698;;368.1
562.0;453.4;;;;;;;;;;;;;;0.10443434;0.16034424;-0.90908533;;;;;368.1
562.0;453.4;;;;;;;;;;;;;;;;;-101.889854;74.24772;-22.202215;;368.1
562.0;453.4;;;;;;;;;;;;;;0.1984924;0.24805444;-0.7871334;;;;;368.1
564.0;454.6;;;;;;;;;;;;;;;;;-86.78701;64.91669;-41.238136;;377.8
564.0;454.6;;;;;;;;;;;;;;0.36017945;0.24860378;-0.7880489;;;;;377.8
564.0;454.6;;;;;;;;;;;;;;;;;33.074436;90.65904;-60.228275;;377.8
564.0;454.6;;;;;;;;;;;;;;0.4215827;0.21356852;-0.6767174;;;;;377.8
564.0;454.6;;;;;;;;;;;;;;;;;122.24952;121.16229;-110.755486;;387.4
564.0;454.6;;;;;;;;;;;;;;0.4516129;0.5223548;-0.14490189;;;;;387.4
564.0;454.6;;;;;;;;;;;;;;;;;124.988556;117.828156;-124.988556;;387.4
564.0;454.6;;;;;;;;;;;;;;0.5717338;0.8333995;0.300119;;;;;387.4
564.0;454.6;;;;;;;;;;;;;;;;;118.202;117.79763;-124.988556;;397.1
564.0;454.6;;;;;;;;;;;;;;0.76277965;1.3439131;0.720542;;;;;397.1
564.0;454.6;;;;;;;;;;;;;;;;;5.0660725;109.23719;-124.988556;;397.1
564.0;454.6;;;;;;;;;;;;;;0.95919675;1.6301156;0.4721824;;;;;397.1
564.0;513.8;;;;;;;;;;;;;;;;;-65.42024;77.215645;-124.988556;;406.7
564.0;513.8;;;;;;;;;;;;;;1.1354717;1.9821161;0.13275552;;;;;406.7
564.0;513.8;;;;;;;;;;;;;;;;;-33.80688;58.87402;-122.82937;;406.7
564.0;513.8;;;;;;;;;;;;;;0.68385875;1.8913541;0.29639578;;;;;406.7
564.0;513.8;;;;;;;;;;;;;;;;;-53.289135;38.10236;-60.148167;;416.4
564.0;513.8;;;;;;;;;;;;;;0.237434;1.3901792;0.2682577;;;;;416.4
564.0;513.8;;;;;;;;;;;;;;;;;-54.338207;17.849512;46.830654;;416.4
564.0;513.8;;;;;;;;;;;;;;0.12836085;0.31470686;0.30249947;;;;;416.4
564.0;513.8;;;;;;;;;;;;;;;;;-32.16651;-16.506699;62.414165;;426.0
564.0;513.8;;;;;;;;;;;;;;0.7420881;0.07904294;0.55476546;;;;;426.0
564.0;513.8;;;;;;;;;;;;;;;;;-44.36628;-52.27439;46.33473;;426.0
564.0;513.8;;;;;;;;;;;;;;1.1592761;0.11615345;0.20862453;;;;;426.0
621.0;514.6;;;;;;;;;;;;;;;;;-52.61391;-40.372173;33.310955;;435.5
621.0;514.6;;;;;;;;;;;;;;1.2466811;0.1815241;0.17853329;;;;;435.5
621.0;514.6;;;;;;;;;;;;;;;;;-65.954315;-41.97821;27.718435;;435.5
621.0;514.6;;;;;;;;;;;;;;1.2524797;0.19464706;0.11627552;;;;;435.5
621.0;514.6;;;;;;;;;;;;;;;;;-71.23783;-59.90402;27.94351;;445.1
621.0;514.6;;;;;;;;;;;;;;1.3049104;0.1991638;-0.14935759;;;;;445.1
621.0;514.6;;;;;;;;;;;;;;;;;-65.54231;-63.989685;27.905361;;445.1
621.0;514.6;;;;;;;;;;;;;;1.327189;0.19824824;-0.38874477;;;;;445.1
621.0;514.6;;;;;;;;;;;;;;;;;-54.017765;-52.8428;25.528732;;454.8
621.0;514.6;;;;;;;;;;;;;;1.2527848;0.18372142;-0.52485734;;;;;454.8
621.0;514.6;;;;;;;;;;;;;;;;;-40.98636;-36.767174;21.267586;;454.8
621.0;514.6;;;;;;;;;;;;;;1.1058687;0.22272408;-0.5898007;;;;;454.8
621.0;528.7;;;;;;;;;;;;;;;;;-28.946806;-21.340069;19.524216;;464.5
621.0;528.7;;;;;;;;;;;;;;0.94894254;0.21033357;-0.6256294;;;;;464.5
621.0;528.7;;;;;;;;;;;;;;;;;-16.472366;-9.006775;18.059328;;464.5
621.0;528.7;;;;;;;;;;;;;;0.86556596;0.18427075;-0.61580247;;;;;464.5
621.0;528.7;;;;;;;;;;;;;;;;;-7.26722;-0.37385175;16.041292;;474.1
621.0;528.7;;;;;;;;;;;;;;0.8142949;0.1612598;-0.60390025;;;;;474.1
621.0;528.7;;;;;;;;;;;;;;;;;-1.7548143;5.5619984;13.801995;;474.1
621.0;528.7;;;;;;;;;;;;;;0.78835416;0.14203314;-0.60701317;;;;;474.1
621.0;528.7;;;;;;;;;;;;;;;;;-0.9994812;10.097812;10.731071;;483.7
621.0;528.7;;;;;;;;;;;;;;0.7752922;0.12982574;-0.6305124;;;;;483.7
621.0;528.7;;;;;;;;;;;;;;;;;-4.425184;13.809626;8.1331835;;483.7
621.0;528.7;;;;;;;;;;;;;;0.7467269;0.109866634;-0.6292306;;;;;483.7
680.0;574.0;;;;;;;;;;;;;;;;;-9.987182;13.229774;6.0464797;;493.3
680.0;574.0;;;;;;;;;;;;;;0.73537403;0.09930723;-0.6145207;;;;;493.3
680.0;574.0;;;;;;;;;;;;;;;;;-16.331219;9.559923;5.474258;;493.3
680.0;574.0;;;;;;;;;;;;;;0.7536241;0.08417005;-0.58949554;;;;;493.3
680.0;574.0;;;;;;;;;;;;;;;;;-22.21366;6.2257757;5.180517;;502.8
680.0;574.0;;;;;;;;;;;;;;0.79427475;0.08465835;-0.5371868;;;;;502.8
680.0;574.0;;;;;;;;;;;;;;;;;-23.75866;4.0017395;5.2529984;;502.8
680.0;574.0;;;;;;;;;;;;;;0.8282113;0.07721183;-0.47346416;;;;;502.8
680.0;574.0;;;;;;;;;;;;;;;;;-20.35203;1.6823329;5.165258;;512.5
680.0;574.0;;;;;;;;;;;;;;0.86971647;0.07660146;-0.4326304;;;;;512.5
680.0;574.0;;;;;;;;;;;;;;;;;-14.484848;0.7057405;4.5930357;;512.5
680.0;574.0;;;;;;;;;;;;;;0.9020051;0.07849361;-0.40388197;;;;;512.5
680.0;589.8;;;;;;;;;;;;;;;;;-7.5380716;1.1902219;3.810999;;522.1
680.0;589.8;;;;;;;;;;;;;;0.9123203;0.078981906;-0.37256998;;;;;522.1
680.0;589.8;;;;;;;;;;;;;;;;;-0.54551834;1.0567034;2.5406659;;522.1
680.0;589.8;;;;;;;;;;;;;;0.9164098;0.074892424;-0.34363842;;;;;522.1
680.0;589.8;;;;;;;;;;;;;;;;;5.2072206;0.10299997;0.6370739;;531.8
680.0;589.8;;;;;;;;;;;;;;0.91866815;0.0679342;-0.3211768;;;;;531.8
680.0;589.8;;;;;;;;;;;;;;;;;8.526108;-1.2054812;-1.5907773;;531.8
680.0;589.8;;;;;;;;;;;;;;0.9269082;0.059877317;-0.28797266;;;;;531.8
680.0;589.8;;;;;;;;;;;;;;;;;10.193182;-2.9335918;-3.68511;;541.4
680.0;589.8;;;;;;;;;;;;;;0.9411298;0.053407393;-0.25977355;;;;;541.4
680.0;589.8;;;;;;;;;;;;;;;;;10.429701;-4.2497025;-5.5734425;;541.4
680.0;589.8;;;;;;;;;;;;;;0.95706046;0.05017243;-0.2402417;;;;;541.4
800.0;649.4;;;;;;;;;;;;;;;;;10.036775;-4.856258;-7.0955534;;551.0
800.0;649.4;;;;;;;;;;;;;;0.9775689;0.049745172;-0.23554185;;;;;551.0
800.0;649.4;;;;;;;;;;;;;;;;;9.006775;-4.3298135;-8.163702;;551.0
800.0;649.4;;;;;;;;;;;;;;1.0063174;0.058656577;-0.24207282;;;;;551.0
800.0;649.4;;;;;;;;;;;;;;;;;7.614368;-1.7128513;-8.697775;;560.7
800.0;649.4;;;;;;;;;;;;;;1.0307322;0.07458724;-0.23462631;;;;;560.7
800.0;649.4;;;;;;;;;;;;;;;;;6.14948;1.659444;-8.800775;;560.7
800.0;649.4;;;;;;;;;;;;;;1.0399487;0.09820856;-0.22815637;;;;;560.7
800.0;649.4;;;;;;;;;;;;;;;;;4.6121097;4.623554;-8.018739;;570.2
800.0;649.4;;;;;;;;;;;;;;1.0389721;0.123538926;-0.22376171;;;;;570.2
800.0;649.4;;;;;;;;;;;;;;;;;2.704703;7.2634053;-6.3859982;;570.2
800.0;649.4;;;;;;;;;;;;;;1.0346996;0.15051728;-0.20532854;;;;;570.2
800.0;650.1;;;;;;;;;;;;;;;;;0.9727775;9.277627;-4.222999;;579.9
800.0;650.1;;;;;;;;;;;;;;1.0223091;0.16797388;-0.18463698;;;;;579.9
800.0;650.1;;;;;;;;;;;;;;;;;-0.6675924;10.578479;-1.7242957;;579.9
800.0;650.1;;;;;;;;;;;;;;1.0072939;0.1810358;-0.17548142;;;;;579.9
800.0;650.1;;;;;;;;;;;;;;;;;-2.639851;11.341441;1.33137;;589.6
800.0;650.1;;;;;;;;;;;;;;0.9933165;0.1821955;-0.17548142;;;;;589.6
800.0;650.1;;;;;;;;;;;;;;;;;-4.3832207;11.623737;4.276406;;589.6
800.0;650.1;;;;;;;;;;;;;;0.97506636;0.16821803;-0.1820124;;;;;589.6
800.0;650.1;;;;;;;;;;;;;;;;;-5.2072206;11.020997;6.9734793;;599.3
800.0;650.1;;;;;;;;;;;;;;0.9553514;0.1539964;-0.19959106;;;;;599.3
800.0;650.1;;;;;;;;;;;;;;;;;-5.5734425;9.796441;9.491257;;599.3
800.0;650.1;;;;;;;;;;;;;;0.9394818;0.14288767;-0.22962126;;;;;599.3
806.0;694.6;;;;;;;;;;;;;;;;;-6.008332;8.533738;11.745811;;608.8
806.0;694.6;;;;;;;;;;;;;;0.91830194;0.13318278;-0.2592242;;;;;608.8
806.0;694.6;;;;;;;;;;;;;;;;;-6.1189613;6.6263313;13.752403;;608.8
806.0;694.6;;;;;;;;;;;;;;0.897;0.12372204;-0.2974334;;;;;608.8
806.0;694.6;;;;;;;;;;;;;;;;;-6.0464797;4.3107395;15.491959;;618.5
806.0;694.6;;;;;;;;;;;;;;0.87868893;0.11267434;-0.3364971;;;;;618.5
806.0;694.6;;;;;;;;;;;;;;;;;-6.050295;2.2202215;17.00644;;618.5
806.0;694.6;;;;;;;;;;;;;;0.86574906;0.086245306;-0.3640248;;;;;618.5
806.0;694.6;;;;;;;;;;;;;;;;;-6.042665;0.57222205;17.91818;;628.1
806.0;694.6;;;;;;;;;;;;;;0.85726494;0.080996126;-0.38435012;;;;;628.1
806.0;694.6;;;;;;;;;;;;;;;;;-5.691702;-0.19455549;18.436995;;628.1
806.0;694.6;;;;;;;;;;;;;;0.84810936;0.058290355;-0.41334268;;;;;628.1
806.0;702.4;;;;;;;;;;;;;;;;;-4.181036;-0.32044435;18.597218;;637.7
806.0;702.4;;;;;;;;;;;;;;0.8421888;0.057924133;-0.44703513;;;;;637.7
806.0;702.4;;;;;;;;;;;;;;;;;-2.4491103;0.6447035;18.105106;;637.7
806.0;702.4;;;;;;;;;;;;;;0.8404187;0.042481765;-0.46919155;;;;;637.7
806.0;702.4;;;;;;;;;;;;;;;;;-0.8163701;2.6322215;16.891996;;647.4
806.0;702.4;;;;;;;;;;;;;;0.83535266;0.044312876;-0.47676015;;;;;647.4
806.0;702.4;;;;;;;;;;;;;;;;;0.79348123;5.01648;14.805292;;647.4
806.0;702.4;;;;;;;;;;;;;;0.82931;0.045838803;-0.4794458;;;;;647.4
806.0;702.4;;;;;;;;;;;;;;;;;3.212073;7.2405167;12.657552;;657.0
806.0;702.4;;;;;;;;;;;;;;0.8261971;0.059083834;-0.46705526;;;;;657.0
806.0;702.4;;;;;;;;;;;;;;;;;5.7908874;9.079257;10.12833;;657.0
806.0;702.4;;;;;;;;;;;;;;0.8262581;0.07959227;-0.45008698;;;;;657.0
860.0;754.9;;;;;;;;;;;;;;;;;8.545182;10.536515;7.675405;;666.6
860.0;754.9;;;;;;;;;;;;;;0.8236946;0.10382397;-0.42530596;;;;;666.6
860.0;754.9;;;;;;;;;;;;;;;;;11.368145;10.917997;5.5200357;;666.6
860.0;754.9;;;;;;;;;;;;;;0.8283334;0.12372204;-0.40748313;;;;;666.6
860.0;754.9;;;;;;;;;;;;;;;;;13.9317;10.853146;3.318888;;676.2
860.0;754.9;;;;;;;;;;;;;;0.8363292;0.14746544;-0.394055;;;;;676.2
860.0;754.9;;;;;;;;;;;;;;;;;15.97644;10.853146;1.2741477;;676.2
860.0;754.9;;;;;;;;;;;;;;0.84249395;0.17157505;-0.37507248;;;;;676.2
860.0;754.9;;;;;;;;;;;;;;;;;17.662586;10.475478;-0.54933316;;685.8
860.0;754.9;;;;;;;;;;;;;;0.85402995;0.19098483;-0.35419783;;;;;685.8
860.0;754.9;;;;;;;;;;;;;;;;;19.116032;10.029145;-2.1401105;;685.8
860.0;754.9;;;;;;;;;;;;;;0.86391795;0.20929594;-0.33613086;;;;;685.8
860.0;762.3;;;;;;;;;;;;;;;;;20.466475;9.376812;-3.5554063;;695.5
860.0;762.3;;;;;;;;;;;;;;0.87081516;0.22345653;-0.32428968;;;;;695.5
860.0;762.3;;;;;;;;;;;;;;;;;21.176031;8.735923;-4.9211097;;695.5
860.0;762.3;;;;;;;;;;;;;;0.88015383;0.2369457;-0.31067842;;;;;695.5
860.0;762.3;;;;;;;;;;;;;;;;;21.366772;8.228554;-5.9778132;;705.0
860.0;762.3;;;;;;;;;;;;;;0.8915677;0.24988556;-0.3068331;;;;;705.0
860.0;762.3;;;;;;;;;;;;;;;;;20.641956;7.7249975;-6.8742943;;705.0
860.0;762.3;;;;;;;;;;;;;;0.90481275;0.25641653;-0.30262154;;;;;705.0
860.0;762.3;;;;;;;;;;;;;;;;;19.039736;6.923887;-7.4312572;;714.6
860.0;762.3;;;;;;;;;;;;;;0.92031616;0.25849178;-0.3054903;;;;;714.6
860.0;762.3;;;;;;;;;;;;;;;;;16.636404;6.168554;-7.736442;;714.6
860.0;762.3;;;;;;;;;;;;;;0.9328898;0.25647756;-0.30976287;;;;;714.6
921.0;822.8;;;;;;;;;;;;;;;;;14.187292;5.733665;-7.816553;;724.2
921.0;822.8;;;;;;;;;;;;;;0.94247264;0.25299844;-0.30286568;;;;;724.2
921.0;822.8;;;;;;;;;;;;;;;;;12.157811;5.283517;-7.587664;;724.2
921.0;822.8;;;;;;;;;;;;;;0.9460738;0.2491531;-0.2936491;;;;;724.2
921.0;822.8;;;;;;;;;;;;;;;;;10.418256;4.6121097;-7.084109;;733.9
921.0;822.8;;;;;;;;;;;;;;0.94747764;0.24036378;-0.28876615;;;;;733.9
921.0;822.8;;;;;;;;;;;;;;;;;8.655812;3.9750361;-6.2295904;;733.9
921.0;822.8;;;;;;;;;;;;;;0.9450362;0.22840053;-0.29169592;;;;;733.9
921.0;822.8;;;;;;;;;;;;;;;;;6.7293315;3.6698508;-5.272073;;743.5
921.0;822.8;;;;;;;;;;;;;;0.9366131;0.21472824;-0.2893765;;;;;743.5
921.0;822.8;;;;;;;;;;;;;;;;;4.8028507;3.318888;-4.272591;;743.5
921.0;822.8;;;;;;;;;;;;;;0.9284341;0.1984924;-0.2957854;;;;;743.5
921.0;823.6;;;;;;;;;;;;;;;;;2.906888;3.1853695;-3.238777;;753.1
921.0;823.6;;;;;;;;;;;;;;0.921659;0.18182927;-0.30158392;;;;;753.1
921.0;823.6;;;;;;;;;;;;;;;;;1.064333;2.8077028;-2.113407;;753.1
921.0;823.6;;;;;;;;;;;;;;0.91830194;0.16431166;-0.3068331;;;;;753.1
921.0;823.6;;;;;;;;;;;;;;;;;-0.28611103;2.3804438;-0.9956664;;762.7
921.0;823.6;;;;;;;;;;;;;;0.9177526;0.14642781;-0.319834;;;;;762.7
921.0;823.6;;;;;;;;;;;;;;;;;-1.2855922;2.4834437;0.35859248;;762.7
921.0;823.6;;;;;;;;;;;;;;0.91317487;0.12732323;-0.33838925;;;;;762.7
921.0;823.6;;;;;;;;;;;;;;;;;-1.9188513;2.6169622;1.6632588;;772.3
921.0;823.6;;;;;;;;;;;;;;0.9048738;0.10779138;-0.3463851;;;;;772.3
921.0;823.6;;;;;;;;;;;;;;;;;-2.166814;2.45674;3.0175178;;772.3
921.0;823.6;;;;;;;;;;;;;;0.9015168;0.08929716;-0.3551134;;;;;772.3
984.0;875.9;;;;;;;;;;;;;;;;;-2.311777;2.1019626;4.3450727;;781.9
984.0;875.9;;;;;;;;;;;;;;0.9037141;0.07129124;-0.35773796;;;;;781.9
984.0;875.9;;;;;;;;;;;;;;;;;-2.3918884;1.7433698;5.5734425;;781.9
984.0;875.9;;;;;;;;;;;;;;0.9079867;0.057863094;-0.36072877;;;;;781.9
984.0;875.9;;;;;;;;;;;;;;;;;-2.3804438;1.6747032;6.706443;;791.4
984.0;875.9;;;;;;;;;;;;;;0.91055024;0.047853023;-0.36054567;;;;;791.4
984.0;875.9;;;;;;;;;;;;;;;;;-2.3232217;1.7967772;7.827998;;791.4
984.0;875.9;;;;;;;;;;;;;;0.9136021;0.04016236;-0.3604236;;;;;791.4
984.0;875.9;;;;;;;;;;;;;;;;;-1.9150364;2.1973326;8.556626;;800.9
984.0;875.9;;;;;;;;;;;;;;0.91866815;0.0369274;-0.3635975;;;;;800.9
984.0;875.9;;;;;;;;;;;;;;;;;-1.3580737;3.0480363;8.602405;;800.9
984.0;875.9;;;;;;;;;;;;;;0.9180578;0.040833768;-0.36219367;;;;;800.9
984.0;936.0;;;;;;;;;;;;;;;;;-0.48448133;3.849147;8.545182;;810.5
984.0;936.0;;;;;;;;;;;;;;0.9169591;0.047425766;-0.35969114;;;;;810.5
984.0;936.0;;;;;;;;;;;;;;;;;0.45777765;4.7608876;8.159886;;810.5
984.0;936.0;;;;;;;;;;;;;;0.9157384;0.056215096;-0.3584704;;;;;810.5
984.0;936.0;;;;;;;;;;;;;;;;;1.7548143;5.7184057;7.4121833;;820.1
984.0;936.0;;;;;;;;;;;;;;0.9119541;0.06817835;-0.35804316;;;;;820.1
984.0;936.0;;;;;;;;;;;;;;;;;3.3341472;6.389813;6.76748;;820.1
984.0;936.0;;;;;;;;;;;;;;0.90859705;0.078127384;-0.35804316;;;;;820.1
984.0;936.0;;;;;;;;;;;;;;;;;5.062258;7.1146274;6.145665;;829.8
984.0;936.0;;;;;;;;;;;;;;0.90481275;0.08825953;-0.35621205;;;;;829.8
984.0;936.0;;;;;;;;;;;;;;;;;6.6682944;7.694479;5.4589987;;829.8
984.0;936.0;;;;;;;;;;;;;;0.90426344;0.098818935;-0.3503525;;;;;829.8
1039.0;936.8;;;;;;;;;;;;;;;;;8.178961;8.358257;4.844814;;839.3
1039.0;936.8;;;;;;;;;;;;;;0.90298164;0.11383404;-0.3463851;;;;;839.3
1039.0;936.8;;;;;;;;;;;;;;;;;9.384442;8.884701;4.2497025;;839.3
1039.0;936.8;;;;;;;;;;;;;;0.9020661;0.12738426;-0.33814508;;;;;839.3
1039.0;936.8;;;;;;;;;;;;;;;;;10.166478;9.159368;3.7003694;;848.9
1039.0;936.8;;;;;;;;;;;;;;0.9001129;0.14215522;-0.3274636;;;;;848.9
1039.0;936.8;;;;;;;;;;;;;;;;;10.788294;9.205146;3.212073;;848.9
1039.0;936.8;;;;;;;;;;;;;;0.89919734;0.15826899;-0.32471696;;;;;848.9
1039.0;936.8;;;;;;;;;;;;;;;;;10.979034;8.949553;2.6703696;;858.6
1039.0;936.8;;;;;;;;;;;;;;0.89584035;0.17371136;-0.3259377;;;;;858.6
1039.0;936.8;;;;;;;;;;;;;;;;;10.834071;8.90759;2.1629994;;858.6
1039.0;936.8;;;;;;;;;;;;;;0.8915677;0.18866542;-0.32007813;;;;;858.6
1039.0;937.6;;;;;;;;;;;;;;;;;10.429701;8.556626;1.5526291;;868.2
1039.0;937.6;;;;;;;;;;;;;;0.88595235;0.20404676;-0.31568345;;;;;868.2
1039.0;937.6;;;;;;;;;;;;;;;;;9.777367;7.629627;0.8964812;;868.2
1039.0;937.6;;;;;;;;;;;;;;0.882046;0.21918394;-0.31153294;;;;;868.2
1039.0;937.6;;;;;;;;;;;;;;;;;8.873257;7.045961;0.35096285;;877.8
1039.0;937.6;;;;;;;;;;;;;;0.8791772;0.22760704;-0.30530718;;;;;877.8
1039.0;937.6;;;;;;;;;;;;;;;;;7.7745905;6.3936276;-0.27085176;;877.8
1039.0;937.6;;;;;;;;;;;;;;0.8763085;0.23529771;-0.30115664;;;;;877.8
1039.0;937.6;;;;;;;;;;;;;;;;;6.7522206;5.645924;-0.67522204;;887.5
1039.0;937.6;;;;;;;;;;;;;;0.8780786;0.23462631;-0.3025605;;;;;887.5
1039.0;937.6;;;;;;;;;;;;;;;;;5.7832575;5.050813;-1.0681478;;887.5
1039.0;937.6;;;;;;;;;;;;;;0.87801754;0.23224586;-0.3035371;;;;;887.5
1161.0;1004.2;;;;;;;;;;;;;;;;;4.9058504;4.459517;-1.3237404;;897.2
1161.0;1004.2;;;;;;;;;;;;;;0.8814356;0.22974335;-0.30475783;;;;;897.2
1161.0;1004.2;;;;;;;;;;;;;;;;;4.0513325;3.7537766;-1.3695182;;897.2
1161.0;1004.2;;;;;;;;;;;;;;0.88515884;0.22150335;-0.30500197;;;;;897.2
1161.0;1004.2;;;;;;;;;;;;;;;;;3.131962;3.1281471;-1.4076662;;906.7
1161.0;1004.2;;;;;;;;;;;;;;0.8908963;0.21436201;-0.30268258;;;;;906.7
1161.0;1004.2;;;;;;;;;;;;;;;;;2.0180366;2.5139623;-1.2665181;;906.7
1161.0;1004.2;;;;;;;;;;;;;;0.8976104;0.20398572;-0.30079043;;;;;906.7
1161.0;1004.2;;;;;;;;;;;;;;;;;0.79729605;2.128666;-1.0185553;;916.2
1161.0;1004.2;;;;;;;;;;;;;;0.90554523;0.19318217;-0.30384228;;;;;916.2
1161.0;1004.2;;;;;;;;;;;;;;;;;-0.15259254;2.0218513;-0.6408887;;916.2
1161.0;1004.2;;;;;;;;;;;;;;0.908536;0.18555254;-0.30664998;;;;;916.2
1161.0;1004.9;;;;;;;;;;;;;;;;;-0.7667776;1.5068514;-0.34333324;;925.9
1161.0;1004.9;;;;;;;;;;;;;;0.9067049;0.173101;-0.3108005;;;;;925.9
1161.0;1004.9;;;;;;;;;;;;;;;;;-1.3046663;0.9994812;0.019074067;;925.9
1161.0;1004.9;;;;;;;;;;;;;;0.90713215;0.16199225;-0.31580552;;;;;925.9
1161.0;1004.9;;;;;;;;;;;;;;;;;-1.7700735;0.84307384;0.32425916;;935.5
1161.0;1004.9;;;;;;;;;;;;;;0.90426344;0.15155491;-0.3065279;;;;;935.5
1161.0;1004.9;;;;;;;;;;;;;;;;;-1.9722588;0.6027406;0.65614796;;935.5
1161.0;1004.9;;;;;;;;;;;;;;0.90499586;0.1394696;-0.30213323;;;;;935.5
1161.0;1004.9;;;;;;;;;;;;;;;;;-2.334666;0.59129614;0.9575182;;945.2
1161.0;1004.9;;;;;;;;;;;;;;0.9076205;0.12823878;-0.30024108;;;;;945.2
1161.0;1004.9;;;;;;;;;;;;;;;;;-2.6589253;0.8507035;1.4038514;;945.2
1161.0;1004.9;;;;;;;;;;;;;;0.9103061;0.11780145;-0.30127874;;;;;945.2
1163.0;1056.5;;;;;;;;;;;;;;;;;-3.1624806;1.1444441;1.8768883;;954.8
1163.0;1056.5;;;;;;;;;;;;;;0.9137242;0.10852382;-0.300119;;;;;954.8
1163.0;1056.5;;;;;;;;;;;;;;;;;-3.2273324;1.3504441;2.4109623;;954.8
1163.0;1056.5;;;;;;;;;;;;;;0.9173864;0.10449538;-0.3048799;;;;;954.8
1163.0;1056.5;;;;;;;;;;;;;;;;;-2.8916287;1.3389996;2.9602954;;964.4
1163.0;1056.5;;;;;;;;;;;;;;0.91976684;0.10144353;-0.3145848;;;;;964.4
1163.0;1056.5;;;;;;;;;;;;;;;;;-2.498703;1.2054812;3.3455918;;964.4
1163.0;1056.5;;;;;;;;;;;;;;0.9238563;0.098391674;-0.3221534;;;;;964.4
1163.0;1056.5;;;;;;;;;;;;;;;;;-2.2202215;1.1864071;3.7003694;;974.1
1163.0;1056.5;;;;;;;;;;;;;;0.9276406;0.095278785;-0.32459486;;;;;974.1
1163.0;1056.5;;;;;;;;;;;;;;;;;-1.8539995;1.4381847;3.9445176;;974.1
1163.0;1056.5;;;;;;;;;;;;;;0.93099767;0.09540086;-0.31879634;;;;;974.1
1163.0;1057.2;;;;;;;;;;;;;;;;;-1.3542589;1.7242957;4.116184;;983.8
1163.0;1057.2;;;;;;;;;;;;;;0.9326457;0.098269604;-0.3192236;;;;;983.8
1163.0;1057.2;;;;;;;;;;;;;;;;;-0.5645924;2.1477401;4.253517;;983.8
1163.0;1057.2;;;;;;;;;;;;;;0.93545336;0.09997864;-0.31531724;;;;;983.8
1163.0;1057.2;;;;;;;;;;;;;;;;;0.30518508;2.4605548;4.341258;;993.5
1163.0;1057.2;;;;;;;;;;;;;;0.9351482;0.099185154;-0.3119602;;;;;993.5
1163.0;1057.2;;;;;;;;;;;;;;;;;1.045259;2.5406659;4.4900355;;993.5
1163.0;1057.2;;;;;;;;;;;;;;0.93710136;0.09973449;-0.3147679;;;;;993.5
1163.0;1057.2;;;;;;;;;;;;;;;;;1.5945921;2.5749993;4.6617026;;1003.0
1163.0;1057.2;;;;;;;;;;;;;;0.9387494;0.101931825;-0.31287575;;;;;1003.0
1163.0;1057.2;;;;;;;;;;;;;;;;;1.8921475;2.7581105;4.795221;;1003.0
1163.0;1057.2;;;;;;;;;;;;;;0.93960387;0.106753744;-0.3098239;;;;;1003.0
1165.0;1117.7;;;;;;;;;;;;;;;;;2.1439252;2.9450362;4.844814;;1012.7
1165.0;1117.7;;;;;;;;;;;;;;0.93722343;0.110415965;-0.30774865;;;;;1012.7
1165.0;1117.7;;;;;;;;;;;;;;;;;2.45674;3.032777;4.9211097;;1012.7
1165.0;1117.7;;;;;;;;;;;;;;0.9356975;0.11255226;-0.30622274;;;;;1012.7
1165.0;1117.7;;;;;;;;;;;;;;;;;2.7161474;3.051851;4.974517;;1022.2
1165.0;1117.7;;;;;;;;;;;;;;0.9377117;0.114200264;-0.3043306;;;;;1022.2
1165.0;1117.7;;;;;;;;;;;;;;;;;3.1167028;3.2425916;5.069887;;1022.2
1165.0;1117.7;;;;;;;;;;;;;;0.9405805;0.11468856;-0.29969177;;;;;1022.2
1165.0;1117.7;;;;;;;;;;;;;;;;;3.257851;3.6507769;5.1080356;;1031.9
1165.0;1117.7;;;;;;;;;;;;;;0.94204533;0.115421005;-0.29303873;;;;;1031.9
1165.0;1117.7;;;;;;;;;;;;;;;;;3.2883694;4.0055547;5.2148504;;1031.9
1165.0;1117.7;;;;;;;;;;;;;;0.94357127;0.11603137;-0.2896817;;;;;1031.9
1165.0;1118.9;;;;;;;;;;;;;;;;;3.234962;4.1734066;5.3102207;;1041.5
1165.0;1118.9;;;;;;;;;;;;;;0.9424116;0.11499374;-0.29029205;;;;;1041.5
1165.0;1118.9;;;;;;;;;;;;;;;;;3.0632956;4.3946652;5.455184;;1041.5
1165.0;1118.9;;;;;;;;;;;;;;0.9391766;0.11322367;-0.28925443;;;;;1041.5
1165.0;1118.9;;;;;;;;;;;;;;;;;2.582629;4.272591;5.6421094;;1051.1
1165.0;1118.9;;;;;;;;;;;;;;0.93508714;0.112857446;-0.2924894;;;;;1051.1
1165.0;1118.9;;;;;;;;;;;;;;;;;2.1629994;4.2649617;5.7489243;;1051.1
1165.0;1118.9;;;;;;;;;;;;;;0.9306314;0.11499374;-0.2887051;;;;;1051.1
1165.0;1118.9;;;;;;;;;;;;;;;;;1.9684439;4.1047397;5.8481092;;1060.8
1165.0;1118.9;;;;;;;;;;;;;;0.9281289;0.11670278;-0.29010895;;;;;1060.8
1165.0;1118.9;;;;;;;;;;;;;;;;;1.8501847;3.8987396;5.954924;;1060.8
1165.0;1118.9;;;;;;;;;;;;;;0.9242225;0.1180456;-0.2910245;;;;;1060.8
1224.0;1127.5;;;;0.0;0.0;0.0;;;;;;;;;;;;;;;
1224.0;1127.5;;;;0.06196595;-0.29988864;0.105979934;;;;;;;;;;;;;;;
1224.0;1127.5;;;;0.11703111;-0.8881303;0.21373752;;;;;;;;;;;;;;;
1224.0;1127.5;;;;0.11090852;-0.9071084;0.20603564;;;;;;;;;;;;;;;
1224.0;1127.5;;;;0.10979845;-0.9068147;0.20684436;;;;;;;;;;;;;;;
1224.0;1137.5;;;;0.10867311;-0.90625775;0.20798114;;;;;;;;;;;;;;;
1224.0;1137.5;;;;0.10806276;-0.90574276;0.20906833;;;;;;;;;;;;;;;
1224.0;1137.5;;;;0.10729219;-0.9050256;0.2106171;;;;;;;;;;;;;;;
1224.0;1137.5;;;;0.106605545;-0.90464413;0.21187976;;;;;;;;;;;;;;;
1224.0;1137.5;;;;0.10625459;-0.90449154;0.21286014;;;;;;;;;;;;;;;
1224.0;1138.3;57474;57412;13719;;;;;;;;;;;;;;;;;;
1224.0;1147.6;;;;0.10577394;-0.9034997;0.21409991;;;;;;;;;;;;;;;
1224.0;1147.6;;;;0.10525514;-0.903473;0.21545032;;;;;;;;;;;;;;;
1224.0;1147.6;;;;0.10473634;-0.90357983;0.21616367;;;;;;;;;;;;;;;
1224.0;1147.6;;;;0.10318376;-0.9032136;0.21741107;;;;;;;;;;;;;;;
1224.0;1147.6;;;;0.102554336;-0.90335095;0.21903613;;;;;;;;;;;;;;;
1226.0;1157.5;;;;0.10172273;-0.90355694;0.22027972;;;;;;;;;;;;;;;
1226.0;1157.5;;;;0.10111238;-0.9030267;0.22187427;;;;;;;;;;;;;;;
1226.0;1157.5;;;;0.10102083;-0.90301144;0.22273639;;;;;;;;;;;;;;;
1226.0;1157.5;;;;0.10017778;-0.90241635;0.22393039;;;;;;;;;;;;;;;
1226.0;1157.5;;;;0.099346176;-0.90205777;0.22461703;;;;;;;;;;;;;;;
1226.0;1158.4;73859;73842;13734;;;;;;;;;;;;;;;;;;
1226.0;1164.8;;;;;;;;;;;;;0;;;;;;;;
1226.0;1164.8;;;;;;;;;;;;;0;;;;;;;;
1226.0;1164.8;;;;;;;;;;;;;-1;;;;;;;;
1226.0;1164.8;;;;;;;;;;;;;-2;;;;;;;;
1226.0;1164.8;;;;;;;;;;;;;-3;;;;;;;;
1226.0;1167.7;;;;0.098922744;-0.9015771;0.22574237;;;;;;;;;;;;;;;
1226.0;1167.7;;;;0.09880449;-0.9013406;0.22658923;;;;;;;;;;;;;;;
1226.0;1167.7;;;;0.099102035;-0.9014169;0.22719195;;;;;;;;;;;;;;;
1226.0;1167.7;;;;0.0983925;-0.90150464;0.22858813;;;;;;;;;;;;;;;
1226.0;1167.7;;;;0.097843185;-0.9014436;0.22979358;;;;;;;;;;;;;;;
1227.0;1177.1;;;;;;;;;;;;;;;;;1.7777032;3.3532214;6.0464797;;1070.4
1227.0;1177.1;;;;;;;;;;;;;;0.91994995;0.12048708;-0.28980377;;;;;1070.4
1227.0;1177.1;;;;;;;;;;;;;;;;;1.6136662;2.5978882;6.214331;;1070.4
1227.0;1177.1;;;;;;;;;;;;;;0.91763055;0.121890925;-0.28876615;;;;;1070.4
1227.0;1177.1;;;;;;;;;;;;;;;;;1.0757774;2.193518;6.324961;;1080.1
1227.0;1177.1;;;;;;;;;;;;;;0.9165929;0.12329478;-0.28278452;;;;;1080.1
1227.0;1177.1;;;;;;;;;;;;;;;;;0.46540728;2.0752587;6.3554797;;1080.1
1227.0;1177.1;;;;;;;;;;;;;;0.9112217;0.12402722;-0.27826777;;;;;1080.1
1227.0;1177.1;;;;;;;;;;;;;;;;;-0.31662953;2.0371106;6.4012575;;1089.7
1227.0;1177.1;;;;;;;;;;;;;;0.90694904;0.123416856;-0.27961057;;;;;1089.7
1227.0;1177.1;;;;;;;;;;;;;;;;;-0.98803675;1.9150364;6.469924;;1089.7
1227.0;1177.1;;;;;;;;;;;;;;0.9045076;0.1241493;-0.2822962;;;;;1089.7
1227.0;1177.9;;;;;;;;;;;;;;;;;-1.4877774;1.6327403;6.511887;;1099.4
1227.0;1177.9;;;;;;;;;;;;;;0.900235;0.12329478;-0.28711814;;;;;1099.4
1227.0;1177.9;;;;;;;;;;;;;;;;;-1.7433698;1.1825923;6.3936276;;1099.4
1227.0;1177.9;;;;;;;;;;;;;;0.8989532;0.1225013;-0.2880337;;;;;1099.4
1227.0;1177.9;;;;;;;;;;;;;;;;;-1.9722588;0.54551834;6.267739;;1109.1
1227.0;1177.9;;;;;;;;;;;;;;0.9000519;0.12237922;-0.2865688;;;;;1109.1
1227.0;1177.9;;;;;;;;;;;;;;;;;-2.0867033;0.053407393;6.0121465;;1109.1
1227.0;1177.9;;;;;;;;;;;;;;0.8992584;0.122196116;-0.2882168;;;;;1109.1
1227.0;1177.9;;;;;;;;;;;;;;;;;-2.067629;-0.31662953;5.8252206;;1118.7
1227.0;1177.9;;;;;;;;;;;;;;0.9020661;0.12140263;-0.28931546;;;;;1118.7
1227.0;1177.9;;;;;;;;;;;;;;;;;-2.1782587;-0.45396283;5.5734425;;1118.7
1227.0;1177.9;;;;;;;;;;;;;;0.9021882;0.11774041;-0.28846094;;;;;1118.7
1229.0;1177.6;;;;0.09703447;-0.90184796;0.23141101;;;;;;;;;;;;;;;
1229.0;1177.6;;;;0.09598924;-0.9023553;0.23303607;;;;;;;;;;;;;;;
1229.0;1177.6;;;;0.09551622;-0.9031831;0.2342377;;;;;;;;;;;;;;;
1229.0;1177.6;;;;0.09473802;-0.90428936;0.23577502;;;;;;;;;;;;;;;
1229.0;1177.6;;;;0.0935402;-0.90579236;0.2365494;;;;;;;;;;;;;;;
1229.0;1178.4;90223;90244;13705;;;;;;;;;;;;;;;;;;
1229.0;1187.5;;;;0.09254075;-0.9068986;0.23829272;;;;;;;;;;;;;;;
1229.0;1187.5;;;;0.091384895;-0.90835965;0.23941806;;;;;;;;;;;;;;;
1229.0;1187.5;;;;0.09033204;-0.90966046;0.24084857;;;;;;;;;;;;;;;
1229.0;1187.5;;;;0.08897401;-0.91093075;0.24211124;;;;;;;;;;;;;;;
1229.0;1187.5;;;;0.08737183;-0.9113275;0.24285129;;;;;;;;;;;;;;;
1229.0;1197.5;;;;0.08581925;-0.9120904;0.2440758;;;;;;;;;;;;;;;
1229.0;1197.5;;;;0.08505631;-0.91360104;0.24537662;;;;;;;;;;;;;;;
1229.0;1197.5;;;;0.083328255;-0.9143754;0.24717715;;;;;;;;;;;;;;;
1229.0;1197.5;;;;0.08259202;-0.9151155;0.24831775;;;;;;;;;;;;;;;
1229.0;1197.5;;;;0.08137513;-0.9159547;0.25057605;;;;;;;;;;;;;;;
1229.0;1198.5;106707;106685;13716;;;;;;;;;;;;;;;;;;
1229.0;1204.8;;;;;;;;;;;;;-5;;;;;;;;
1229.0;1204.8;;;;;;;;;;;;;-6;;;;;;;;
1229.0;1204.8;;;;;;;;;;;;;-10;;;;;;;;
1229.0;1204.8;;;;;;;;;;;;;-10;;;;;;;;
1229.0;1204.8;;;;;;;;;;;;;-13;;;;;;;;
1280.0;1207.4;;;;0.079990394;-0.91663754;0.25244144;;;;;;;;;;;;;;;
1280.0;1207.4;;;;0.07758332;-0.9167787;0.25348666;;;;;;;;;;;;;;;
1280.0;1207.4;;;;0.07602311;-0.91775143;0.25428775;;;;;;;;;;;;;;;
1280.0;1207.4;;;;0.07503892;-0.91863644;0.25551227;;;;;;;;;;;;;;;
1280.0;1207.4;;;;0.07378388;-0.9190599;0.2568474;;;;;;;;;;;;;;;
1280.0;1217.5;;;;0.0721016;-0.91939175;0.258091;;;;;;;;;;;;;;;
1280.0;1217.5;;;;0.07020188;-0.91998684;0.2588158;;;;;;;;;;;;;;;
1280.0;1217.5;;;;0.06842042;-0.9207269;0.26022342;;;;;;;;;;;;;;;
1280.0;1217.5;;;;0.06550599;-0.9217416;0.26236346;;;;;;;;;;;;;;;
1280.0;1217.5;;;;0.06272889;-0.9227983;0.26404575;;;;;;;;;;;;;;;
1280.0;1218.5;123044;123030;13715;;;;;;;;;;;;;;;;;;
1280.0;1227.6;;;;0.058788307;-0.9240838;0.26603702;;;;;;;;;;;;;;;
1280.0;1227.6;;;;0.054946907;-0.92644894;0.26777652;;;;;;;;;;;;;;;
1280.0;1227.6;;;;0.05138398;-0.92927945;0.2699814;;;;;;;;;;;;;;;
1280.0;1227.6;;;;0.048275;-0.9325868;0.27276996;;;;;;;;;;;;;;;
1280.0;1227.6;;;;0.04510117;-0.9352647;0.2759972;;;;;;;;;;;;;;;
1280.0;1237.7;;;;0.041347507;-0.9379426;0.2790909;;;;;;;;;;;;;;;
1280.0;1237.7;;;;0.03749085;-0.9418031;0.28187564;;;;;;;;;;;;;;;
1280.0;1237.7;;;;0.033889774;-0.94586194;0.28485873;;;;;;;;;;;;;;;
1280.0;1237.7;;;;0.03197098;-0.95010006;0.2873917;;;;;;;;;;;;;;;
1280.0;1237.7;;;;0.02990723;-0.9551431;0.2924538;;;;;;;;;;;;;;;
1282.0;1238.7;139376;139367;13719;;;;;;;;;;;;;;;;;;
1282.0;1244.8;;;;;;;;;;;;;;;;;-2.2164068;-0.5226295;5.2758875;;1128.3
1282.0;1244.8;;;;;;;;;;;;;;0.9045686;0.11511582;-0.29096347;;;;;1128.3
1282.0;1244.8;;;;;;;;;;;;;;;;;-2.128666;-0.54933316;4.9172945;;1128.3
1282.0;1244.8;;;;;;;;;;;;;;0.90560627;0.11389508;-0.29273355;;;;;1128.3
1282.0;1244.8;;;;;;;;;;;;;;;;;-1.9989624;-0.75914794;4.6121097;;1137.9
1282.0;1244.8;;;;;;;;;;;;;;0.9096347;0.11304056;-0.29175696;;;;;1137.9
1282.0;1244.8;;;;;;;;;;;;;;;;;-1.9226661;-1.0910367;4.325999;;1137.9
1282.0;1244.8;;;;;;;;;;;;;;0.9148228;0.11139256;-0.2896817;;;;;1137.9
1282.0;1244.8;;;;;;;;;;;;;;;;;-1.8959624;-1.1024811;3.933073;;1147.2
1282.0;1244.8;;;;;;;;;;;;;;0.91848505;0.10913419;-0.2863857;;;;;1147.2
1282.0;1244.8;;;;;;;;;;;;;;;;;-1.8730735;-0.9765923;3.5782952;;1147.2
1282.0;1244.8;;;;;;;;;;;;;;0.92226934;0.10889004;-0.2883999;;;;;1147.2
1282.0;1245.0;;;;;;;;;;;;;-15;;;;;;;;
1282.0;1245.0;;;;;;;;;;;;;-10;;;;;;;;
1282.0;1245.0;;;;;;;;;;;;;-23;;;;;;;;
1282.0;1245.0;;;;;;;;;;;;;-11;;;;;;;;
1282.0;1245.0;;;;;;;;;;;;;4;;;;;;;;
1342.0;1245.9;;;;;;;;;;;;;;;;;-2.1057773;-0.82399976;3.2921844;;1156.9
1342.0;1245.9;;;;;;;;;;;;;;0.92355114;0.10870693;-0.29212317;;;;;1156.9
1342.0;1245.9;;;;;;;;;;;;;;;;;-2.166814;-0.7057405;2.948851;;1156.9
1342.0;1245.9;;;;;;;;;;;;;;0.9205603;0.11169775;-0.29725027;;;;;1156.9
1342.0;1245.9;;;;;;;;;;;;;;;;;-2.0752587;-1.064333;2.6551104;;1166.6
1342.0;1245.9;;;;;;;;;;;;;;0.91811883;0.114322335;-0.30573443;;;;;1166.6
1342.0;1245.9;;;;;;;;;;;;;;;;;-2.1324809;-1.5907773;2.3422956;;1166.6
1342.0;1245.9;;;;;;;;;;;;;;0.9173254;0.115970336;-0.31678212;;;;;1166.6
1342.0;1245.9;;;;;;;;;;;;;;;;;-2.1324809;-2.2888882;2.0790737;;1176.2
1342.0;1245.9;;;;;;;;;;;;;;0.9186071;0.11847285;-0.31867427;;;;;1176.2
1342.0;1245.9;;;;;;;;;;;;;;;;;-2.2011476;-2.6284068;1.9341105;;1176.2
1342.0;1245.9;;;;;;;;;;;;;;0.92208624;0.11816767;-0.31617177;;;;;1176.2
1342.0;1247.6;;;;0.027843479;-0.959736;0.29638293;;;;;;;;;;;;;;;
1342.0;1247.6;;;;0.024337772;-0.9650079;0.29983142;;;;;;;;;;;;;;;
1342.0;1247.6;;;;0.020919802;-0.9717103;0.30319217;;;;;;;;;;;;;;;
1342.0;1247.6;;;;0.017974855;-0.97848904;0.30693057;;;;;;;;;;;;;;;
1342.0;1247.6;;;;0.015708925;-0.9842683;0.31195834;;;;;;;;;;;;;;;
1342.0;1257.6;;;;0.013305666;-0.9894792;0.3162537;;;;;;;;;;;;;;;
1342.0;1257.6;;;;0.0117607135;-0.99401104;0.3205414;;;;;;;;;;;;;;;
1342.0;1257.6;;;;0.011024476;-0.99834836;0.32553867;;;;;;;;;;;;;;;
1342.0;1257.6;;;;0.010330201;-1.0004846;0.33049014;;;;;;;;;;;;;;;
1342.0;1257.6;;;;0.008529664;-1.0010263;0.3345299;;;;;;;;;;;;;;;
1342.0;1258.7;155812;155694;13716;;;;;;;;;;;;;;;;;;
1345.0;1267.7;;;;0.008914948;-1.001484;0.3386269;;;;;;;;;;;;;;;
1345.0;1267.7;;;;0.010276795;-1.0000688;0.34352496;;;;;;;;;;;;;;;
1345.0;1267.7;;;;0.010524751;-0.9976121;0.34735873;;;;;;;;;;;;;;;
1345.0;1267.7;;;;0.009613038;-0.9943887;0.35229877;;;;;;;;;;;;;;;
1345.0;1267.7;;;;0.0077438364;-0.99061215;0.3556023;;;;;;;;;;;;;;;
1345.0;1277.7;;;;0.0075798044;-0.98686993;0.35926822;;;;;;;;;;;;;;;
1345.0;1277.7;;;;0.0065231333;-0.9833604;0.36236575;;;;;;;;;;;;;;;
1345.0;1277.7;;;;0.0040855412;-0.9797174;0.36420062;;;;;;;;;;;;;;;
1345.0;1277.7;;;;0.0030899053;-0.9764558;0.3651047;;;;;;;;;;;;;;;
1345.0;1277.7;;;;0.0019111636;-0.97359097;0.366272;;;;;;;;;;;;;;;
1345.0;1278.9;172149;172152;13722;;;;;;;;;;;;;;;;;;
1345.0;1285.2;;;;;;;;;;;;;-46;;;;;;;;
1345.0;1285.2;;;;;;;;;;;;;-45;;;;;;;;
1345.0;1285.2;;;;;;;;;;;;;-8;;;;;;;;
1345.0;1285.2;;;;;;;;;;;;;34;;;;;;;;
1345.0;1285.2;;;;;;;;;;;;;-113;;;;;;;;
1345.0;1287.8;;;;-8.0108654E-4;-0.9710275;0.36660007;;;;;;;;;;;;;;;
1345.0;1287.8;;;;-0.0032005315;-0.9686624;0.36734775;;;;;;;;;;;;;;;
1345.0;1287.8;;;;-0.0053825383;-0.96657574;0.36723712;;;;;;;;;;;;;;;
1345.0;1287.8;;;;-0.007751466;-0.96458447;0.36719134;;;;;;;;;;;;;;;
1345.0;1287.8;;;;-0.009464265;-0.9636651;0.3670769;;;;;;;;;;;;;;;
1402.0;1297.9;;;;-0.011096955;-0.9621278;0.366478;;;;;;;;;;;;;;;
1402.0;1297.9;;;;-0.011978151;-0.96079266;0.36506274;;;;;;;;;;;;;;;
1402.0;1297.9;;;;-0.013542177;-0.95972836;0.36386874;;;;;;;;;;;;;;;
1402.0;1297.9;;;;-0.01533127;-0.95871747;0.36249545;;;;;;;;;;;;;;;
1402.0;1297.9;;;;-0.016433718;-0.9571763;0.36057284;;;;;;;;;;;;;;;
1402.0;1299.1;188508;188496;13729;;;;;;;;;;;;;;;;;;
1402.0;1308.0;;;;-0.017238619;-0.9552156;0.35887912;;;;;;;;;;;;;;;
1402.0;1308.0;;;;-0.0177269;-0.9533578;0.35755923;;;;;;;;;;;;;;;
1402.0;1308.0;;;;-0.018608095;-0.95103467;0.35579684;;;;;;;;;;;;;;;
1402.0;1308.0;;;;-0.018795015;-0.9486085;0.35387805;;;;;;;;;;;;;;;
1402.0;1308.0;;;;-0.018909456;-0.94610226;0.35106662;;;;;;;;;;;;;;;
1402.0;1318.0;;;;-0.019149782;-0.9441453;0.34873584;;;;;;;;;;;;;;;
1402.0;1318.0;;;;-0.01981354;-0.9416276;0.3467293;;;;;;;;;;;;;;;
1402.0;1318.0;;;;-0.020996096;-0.9391366;0.3439217;;;;;;;;;;;;;;;
1402.0;1318.0;;;;-0.021785738;-0.937462;0.3404465;;;;;;;;;;;;;;;
1402.0;1318.0;;;;-0.022975923;-0.9357301;0.33767703;;;;;;;;;;;;;;;
1402.0;1319.2;204987;204944;13723;;;;;;;;;;;;;;;;;;
1402.0;1325.6;;;;;;;;;;;;;-640;;;;;;;;
1402.0;1325.6;;;;;;;;;;;;;-892;;;;;;;;
1402.0;1325.6;;;;;;;;;;;;;-1268;;;;;;;;
1402.0;1325.6;;;;;;;;;;;;;-3267;;;;;;;;
1402.0;1325.6;;;;;;;;;;;;;-5900;;;;;;;;
1404.0;1328.1;;;;-0.024200443;-0.9344598;0.33430865;;;;;;;;;;;;;;;
1404.0;1328.1;;;;-0.025798801;-0.9329568;0.33098224;;;;;;;;;;;;;;;
1404.0;1328.1;;;;-0.027786259;-0.9319726;0.32727817;;;;;;;;;;;;;;;
1404.0;1328.1;;;;-0.029609684;-0.93130505;0.32340243;;;;;;;;;;;;;;;
1404.0;1328.1;;;;-0.03125382;-0.93039715;0.3189774;;;;;;;;;;;;;;;
1404.0;1338.1;;;;-0.033275608;-0.9291688;0.31540683;;;;;;;;;;;;;;;
1404.0;1338.1;;;;-0.03477097;-0.9280435;0.31143954;;;;;;;;;;;;;;;
1404.0;1338.1;;;;-0.03619385;-0.92668164;0.30772784;;;;;;;;;;;;;;;
1404.0;1338.1;;;;-0.03676224;-0.92528546;0.3039513;;;;;;;;;;;;;;;
1404.0;1338.1;;;;-0.037227634;-0.9246141;0.3002129;;;;;;;;;;;;;;;
1404.0;1339.4;221355;221303;13721;;;;;;;;;;;;;;;;;;
1404.0;1348.2;;;;-0.03723908;-0.9229318;0.2968636;;;;;;;;;;;;;;;
1404.0;1348.2;;;;-0.037139896;-0.92185223;0.29415515;;;;;;;;;;;;;;;
1404.0;1348.2;;;;-0.03648377;-0.92074215;0.29116824;;;;;;;;;;;;;;;
1404.0;1348.2;;;;-0.035427097;-0.920128;0.28837588;;;;;;;;;;;;;;;
1404.0;1348.2;;;;-0.034118656;-0.9196664;0.28588107;;;;;;;;;;;;;;;
1404.0;1358.3;;;;-0.03197098;-0.91916287;0.2830849;;;;;;;;;;;;;;;
1404.0;1358.3;;;;-0.029766086;-0.91905606;0.2807732;;;;;;;;;;;;;;;
1404.0;1358.3;;;;-0.027297977;-0.91907513;0.27906802;;;;;;;;;;;;;;;
1404.0;1358.3;;;;-0.023983005;-0.9193841;0.27735904;;;;;;;;;;;;;;;
1404.0;1358.3;;;;-0.021053316;-0.91993344;0.27566913;;;;;;;;;;;;;;;
1405.0;1359.6;237715;237760;13717;;;;;;;;;;;;;;;;;;
1405.0;1365.6;;;;;;;;;;;;;;;;;-2.1553698;-2.6779993;1.842555;;1185.8
1405.0;1365.6;;;;;;;;;;;;;;0.92428356;0.114749596;-0.31159398;;;;;1185.8
1405.0;1365.6;;;;;;;;;;;;;;;;;-2.1172216;-2.5864437;1.701407;;1185.8
1405.0;1365.6;;;;;;;;;;;;;;0.9234291;0.11059908;-0.31092256;;;;;1185.8
1405.0;1365.6;;;;;;;;;;;;;;;;;-2.090518;-2.5482955;1.5831476;;1195.5
1405.0;1365.6;;;;;;;;;;;;;;0.92587054;0.10504471;-0.30927458;;;;;1195.5
1405.0;1365.6;;;;;;;;;;;;;;;;;-2.1973326;-2.5559251;1.4687033;;1195.5
1405.0;1365.6;;;;;;;;;;;;;;0.92898345;0.099490345;-0.30494094;;;;;1195.5
1405.0;1365.6;;;;;;;;;;;;;;;;;-2.2278512;-2.3804438;1.3046663;;1205.1
1405.0;1365.6;;;;;;;;;;;;;;0.93215734;0.093935974;-0.30323192;;;;;1205.1
1405.0;1365.6;;;;;;;;;;;;;;;;;-2.3079624;-2.0981476;1.2169256;;1205.1
1405.0;1365.6;;;;;;;;;;;;;;0.9341105;0.08819849;-0.30280465;;;;;1205.1
1405.0;1365.8;;;;;;;;;;;;;-5949;;;;;;;;
1405.0;1365.8;;;;;;;;;;;;;-2087;;;;;;;;
1405.0;1365.8;;;;;;;;;;;;;2742;;;;;;;;
1405.0;1365.8;;;;;;;;;;;;;4477;;;;;;;;
1405.0;1365.8;;;;;;;;;;;;;2652;;;;;;;;
1406.0;1366.3;;;;;;;;;;;;;;;;;-2.2698143;-1.9341105;1.0910367;;1214.6
1406.0;1366.3;;;;;;;;;;;;;;0.9342936;0.08233894;-0.30457473;;;;;1214.6
1406.0;1366.3;;;;;;;;;;;;;;;;;-2.1553698;-1.8158513;0.9346294;;1214.6
1406.0;1366.3;;;;;;;;;;;;;;0.9319132;0.07593005;-0.30738243;;;;;1214.6
1406.0;1366.3;;;;;;;;;;;;;;;;;-1.9989624;-1.903592;0.8697775;;1224.2
1406.0;1366.3;;;;;;;;;;;;;;0.93417156;0.07116917;-0.30957976;;;;;1224.2
1406.0;1366.3;;;;;;;;;;;;;;;;;-1.6861477;-1.7319254;0.7324442;;1224.2
1406.0;1366.3;;;;;;;;;;;;;;0.9352092;0.06738487;-0.3086642;;;;;1224.2
1406.0;1366.3;;;;;;;;;;;;;;;;;-1.373333;-1.7509995;0.67522204;;1233.9
1406.0;1366.3;;;;;;;;;;;;;;0.9375286;0.060365614;-0.30957976;;;;;1233.9
1406.0;1366.3;;;;;;;;;;;;;;;;;-1.0719626;-1.5945921;0.54933316;;1233.9
1406.0;1366.3;;;;;;;;;;;;;;0.93868834;0.055848874;-0.3108005;;;;;1233.9
1406.0;1367.3;;;;;;;;;;;;;;;;;-0.75914794;-1.4000366;0.45014802;;1243.6
1406.0;1367.3;;;;;;;;;;;;;;0.93728447;0.052552875;-0.3134251;;;;;1243.6
1406.0;1367.3;;;;;;;;;;;;;;;;;-0.2822962;-1.0071108;0.35096285;;1243.6
1406.0;1367.3;;;;;;;;;;;;;;0.93099767;0.04870754;-0.31293678;;;;;1243.6
1406.0;1367.3;;;;;;;;;;;;;;;;;0.18311106;-0.9575182;0.30518508;;1253.3
1406.0;1367.3;;;;;;;;;;;;;;0.92538226;0.04693747;-0.31592762;;;;;1253.3
1406.0;1367.3;;;;;;;;;;;;;;;;;0.7019257;-0.90029603;0.25559253;;1253.3
1406.0;1367.3;;;;;;;;;;;;;;0.92104864;0.04791406;-0.3180639;;;;;1253.3
1406.0;1367.3;;;;;;;;;;;;;;;;;1.2436292;-0.88122195;0.12207404;;1262.8
1406.0;1367.3;;;;;;;;;;;;;;0.91811883;0.04895169;-0.31977293;;;;;1262.8
1406.0;1367.3;;;;;;;;;;;;;;;;;1.6937773;-0.5798517;0.011444441;;1262.8
1406.0;1367.3;;;;;;;;;;;;;;0.91817987;0.048219245;-0.3195288;;;;;1262.8
1407.0;1368.0;;;;;;;;;;;;;;;;;2.0752587;-0.29755548;-0.16403699;;1272.5
1407.0;1368.0;;;;;;;;;;;;;;0.91763055;0.050660726;-0.31946775;;;;;1272.5
1407.0;1368.0;;;;;;;;;;;;;;;;;2.4414806;-0.19455549;-0.32425916;;1272.5
1407.0;1368.0;;;;;;;;;;;;;;0.9180578;0.05224769;-0.3233131;;;;;1272.5
1407.0;1368.0;;;;;;;;;;;;;;;;;2.8115177;-0.026703697;-0.5264443;;1282.1
1407.0;1368.0;;;;;;;;;;;;;;0.91817987;0.05426191;-0.326487;;;;;1282.1
1407.0;1368.0;;;;;;;;;;;;;;;;;3.4714804;0.23270364;-0.7515183;;1282.1
1407.0;1368.0;;;;;;;;;;;;;;0.91744745;0.057985168;-0.32831812;;;;;1282.1
1407.0;1368.0;;;;;;;;;;;;;;;;;4.337443;0.3128147;-0.90792567;;1291.8
1407.0;1368.0;;;;;;;;;;;;;;0.91366315;0.061769463;-0.33228552;;;;;1291.8
1407.0;1368.0;;;;;;;;;;;;;;;;;5.1499987;0.35096285;-1.1215552;;1291.8
1407.0;1368.0;;;;;;;;;;;;;;0.9097568;0.06817835;-0.3322245;;;;;1291.8
1407.0;1368.1;;;;-0.017509462;-0.92058575;0.27463916;;;;;;;;;;;;;;;
1407.0;1368.1;;;;-0.014713289;-0.9212915;0.27367404;;;;;;;;;;;;;;;
1407.0;1368.1;;;;-0.011516572;-0.92276394;0.27343753;;;;;;;;;;;;;;;
1407.0;1368.1;;;;-0.008003236;-0.9232141;0.27393726;;;;;;;;;;;;;;;
1407.0;1368.1;;;;-0.0052642827;-0.92387784;0.27475742;;;;;;;;;;;;;;;
1462.0;1372.9;;;;;;;;;;;;;;;;;5.93585;0.40055543;-1.2398144;;1301.5
1462.0;1372.9;;;;;;;;;;;;;;0.9070101;0.074098945;-0.32880643;;;;;1301.5
1462.0;1372.9;;;;;;;;;;;;;;;;;6.469924;0.4997406;-1.4305551;;1301.5
1462.0;1372.9;;;;;;;;;;;;;;0.9074984;0.0806299;-0.32032228;;;;;1301.5
1462.0;1372.9;;;;;;;;;;;;;;;;;6.7522206;0.8735923;-1.5984069;;1311.1
1462.0;1372.9;;;;;;;;;;;;;;0.90524;0.08575701;-0.31257057;;;;;1311.1
1462.0;1372.9;;;;;;;;;;;;;;;;;6.6415906;1.3237404;-1.8082217;;1311.1
1462.0;1372.9;;;;;;;;;;;;;;0.90414137;0.090578936;-0.30695516;;;;;1311.1
1462.0;1372.9;;;;;;;;;;;;;;;;;6.515702;1.5449996;-1.9188513;;1320.7
1462.0;1372.9;;;;;;;;;;;;;;0.90285957;0.09601123;-0.31354716;;;;;1320.7
1462.0;1372.9;;;;;;;;;;;;;;;;;6.4546647;1.7242957;-1.9875181;;1320.7
1462.0;1372.9;;;;;;;;;;;;;;0.89999086;0.10235908;-0.32221442;;;;;1320.7
1462.0;1378.0;;;;-0.0025711062;-0.9245721;0.27542117;;;;;;;;;;;;;;;
1462.0;1378.0;;;;1.9073488E-5;-0.9251481;0.27647784;;;;;;;;;;;;;;;
1462.0;1378.0;;;;0.0022926333;-0.9252778;0.27840808;;;;;;;;;;;;;;;
1462.0;1378.0;;;;0.00460434;-0.92473996;0.28000644;;;;;;;;;;;;;;;
1462.0;1378.0;;;;0.006553651;-0.923916;0.28156665;;;;;;;;;;;;;;;
1462.0;1379.4;254073;254052;13718;;;;;;;;;;;;;;;;;;
1462.0;1387.9;;;;0.008716584;-0.9230386;0.28338245;;;;;;;;;;;;;;;
1462.0;1387.9;;;;0.010623933;-0.9214364;0.28480533;;;;;;;;;;;;;;;
1462.0;1387.9;;;;0.012653353;-0.91988766;0.28644183;;;;;;;;;;;;;;;
1462.0;1387.9;;;;0.014247896;-0.9180566;0.28789142;;;;;;;;;;;;;;;
1462.0;1387.9;;;;0.016044619;-0.9152719;0.28981403;;;;;;;;;;;;;;;
1464.0;1398.0;;;;0.017879488;-0.9130441;0.2914658;;;;;;;;;;;;;;;
1464.0;1398.0;;;;0.019767763;-0.91108716;0.29292682;;;;;;;;;;;;;;;
1464.0;1398.0;;;;0.021507265;-0.9093095;0.29402927;;;;;;;;;;;;;;;
1464.0;1398.0;;;;0.02354813;-0.90742886;0.29542163;;;;;;;;;;;;;;;
1464.0;1398.0;;;;0.025089268;-0.90553296;0.29614642;;;;;;;;;;;;;;;
1464.0;1399.5;262143;262143;13728;;;;;;;;;;;;;;;;;;
1464.0;1405.7;;;;;;;;;;;;;297;;;;;;;;
1464.0;1405.7;;;;;;;;;;;;;-272;;;;;;;;
1464.0;1405.7;;;;;;;;;;;;;8;;;;;;;;
1464.0;1405.7;;;;;;;;;;;;;-36;;;;;;;;
1464.0;1405.7;;;;;;;;;;;;;-211;;;;;;;;
1464.0;1408.1;;;;0.026424412;-0.903988;0.29692462;;;;;;;;;;;;;;;
1464.0;1408.1;;;;0.027744297;-0.9024621;0.2975159;;;;;;;;;;;;;;;
1464.0;1408.1;;;;0.029293064;-0.90114224;0.29783633;;;;;;;;;;;;;;;
1464.0;1408.1;;;;0.030105595;-0.8998376;0.29760745;;;;;;;;;;;;;;;
1464.0;1408.1;;;;0.030746464;-0.8987962;0.2977753;;;;;;;;;;;;;;;
1465.0;1418.1;;;;;;;;;;;;;;;;;6.4546647;1.3237404;-2.1095922;;1330.3
1465.0;1418.1;;;;;;;;;;;;;;0.89944154;0.10943937;-0.33100376;;;;;1330.3
1465.0;1418.1;;;;;;;;;;;;;;;;;6.4546647;0.7438887;-2.2164068;;1330.3
1465.0;1418.1;;;;;;;;;;;;;;0.9007233;0.11999878;-0.33814508;;;;;1330.3
1465.0;1418.1;;;;;;;;;;;;;;;;;6.324961;0.25559253;-2.2583697;;1339.8
1465.0;1418.1;;;;;;;;;;;;;;0.9045076;0.12909329;-0.33845028;;;;;1339.8
1465.0;1418.1;;;;;;;;;;;;;;;;;5.996887;-0.057222206;-2.231666;;1339.8
1465.0;1418.1;;;;;;;;;;;;;;0.9109775;0.13751641;-0.3355205;;;;;1339.8
1465.0;1418.1;;;;;;;;;;;;;;;;;5.6421094;0.04196295;-2.2202215;;1349.5
1465.0;1418.1;;;;;;;;;;;;;;0.91421247;0.1398358;-0.3307596;;;;;1349.5
1465.0;1418.1;;;;;;;;;;;;;;;;;5.3216653;0.43107393;-2.0828884;;1349.5
1465.0;1418.1;;;;;;;;;;;;;;0.91653186;0.14447463;-0.3259377;;;;;1349.5
1465.0;1418.1;;;;0.03154755;-0.8982049;0.29812244;;;;;;;;;;;;;;;
1465.0;1418.1;;;;0.032291416;-0.89714825;0.29780582;;;;;;;;;;;;;;;
1465.0;1418.1;;;;0.032958988;-0.89691174;0.29729083;;;;;;;;;;;;;;;
1465.0;1418.1;;;;0.03356934;-0.89644253;0.29692462;;;;;;;;;;;;;;;
1465.0;1418.1;;;;0.03392792;-0.89628994;0.29584125;;;;;;;;;;;;;;;
1465.0;1419.6;262143;262143;13724;;;;;;;;;;;;;;;;;;
1465.0;1428.2;;;;0.034286503;-0.8957139;0.2950516;;;;;;;;;;;;;;;
1465.0;1428.2;;;;0.034587864;-0.89574826;0.29378894;;;;;;;;;;;;;;;
1465.0;1428.2;;;;0.034400944;-0.89602673;0.29204562;;;;;;;;;;;;;;;
1465.0;1428.2;;;;0.034255985;-0.89657605;0.29091266;;;;;;;;;;;;;;;
1465.0;1428.2;;;;0.03489304;-0.89631283;0.28849033;;;;;;;;;;;;;;;
1466.0;1433.1;;;;;;;;;;;;;;;;;5.0012207;0.76296276;-1.9760735;;1359.1
1466.0;1433.1;;;;;;;;;;;;;;0.91561633;0.1474044;-0.32178718;;;;;1359.1
1466.0;1433.1;;;;;;;;;;;;;;;;;4.692221;0.839259;-1.7967772;;1359.1
1466.0;1433.1;;;;;;;;;;;;;;0.913358;0.14911343;-0.31824702;;;;;1359.1
1466.0;1433.1;;;;;;;;;;;;;;;;;4.341258;0.7286294;-1.6098514;;1368.8
1466.0;1433.1;;;;;;;;;;;;;;0.91091645;0.14996795;-0.31531724;;;;;1368.8
1466.0;1433.1;;;;;;;;;;;;;;;;;3.8415174;0.4196295;-1.5182959;;1368.8
1466.0;1433.1;;;;;;;;;;;;;;0.90804774;0.14996795;-0.3140965;;;;;1368.8
1466.0;1433.1;;;;;;;;;;;;;;;;;3.4295175;0.057222206;-1.4877774;;1378.4
1466.0;1433.1;;;;;;;;;;;;;;0.9079867;0.1474044;-0.31391338;;;;;1378.4
1466.0;1433.1;;;;;;;;;;;;;;;;;2.9984436;-0.3852962;-1.4267403;;1378.4
1466.0;1433.1;;;;;;;;;;;;;;0.9087191;0.14606158;-0.31562242;;;;;1378.4
1466.0;1438.1;;;;0.034854893;-0.896454;0.28698733;;;;;;;;;;;;;;;
1466.0;1438.1;;;;0.03516007;-0.89707196;0.284668;;;;;;;;;;;;;;;
1466.0;1438.1;;;;0.035320286;-0.897339;0.2835808;;;;;;;;;;;;;;;
1466.0;1438.1;;;;0.03585053;-0.8975183;0.2824326;;;;;;;;;;;;;;;
1466.0;1438.1;;;;0.035800938;-0.89891446;0.28024295;;;;;;;;;;;;;;;
1466.0;1439.6;262143;262143;13724;;;;;;;;;;;;;;;;;;
1466.0;1445.9;;;;;;;;;;;;;-400;;;;;;;;
1466.0;1445.9;;;;;;;;;;;;;-443;;;;;;;;
1466.0;1445.9;;;;;;;;;;;;;-404;;;;;;;;
1466.0;1445.9;;;;;;;;;;;;;-573;;;;;;;;
1466.0;1445.9;;;;;;;;;;;;;-780;;;;;;;;
1521.0;1448.0;;;;0.035823826;-0.89981854;0.27849582;;;;;;;;;;;;;;;
1521.0;1448.0;;;;0.035614017;-0.9012071;0.2764664;;;;;;;;;;;;;;;
1521.0;1448.0;;;;0.03615952;-0.9025842;0.27505115;;;;;;;;;;;;;;;
1521.0;1448.0;;;;0.03607178;-0.9041215;0.27320102;;;;;;;;;;;;;;;
1521.0;1448.0;;;;0.036232;-0.90623486;0.27155688;;;;;;;;;;;;;;;
1521.0;1457.9;;;;0.036689762;-0.90796673;0.27009585;;;;;;;;;;;;;;;
1521.0;1457.9;;;;0.037422184;-0.9101106;0.26859286;;;;;;;;;;;;;;;
1521.0;1457.9;;;;0.037696842;-0.9122697;0.2670975;;;;;;;;;;;;;;;
1521.0;1457.9;;;;0.038722996;-0.9146272;0.26586536;;;;;;;;;;;;;;;
1521.0;1457.9;;;;0.039176945;-0.91645825;0.2644997;;;;;;;;;;;;;;;
1521.0;1459.5;262143;262143;13716;;;;;;;;;;;;;;;;;;
1521.0;1468.0;;;;0.039939884;-0.9183465;0.2623215;;;;;;;;;;;;;;;
1521.0;1468.0;;;;0.040435795;-0.9199792;0.26070789;;;;;;;;;;;;;;;
1521.0;1468.0;;;;0.040859226;-0.9217149;0.25989917;;;;;;;;;;;;;;;
1521.0;1468.0;;;;0.041572575;-0.9239961;0.2586327;;;;;;;;;;;;;;;
1521.0;1468.0;;;;0.042407993;-0.926613;0.25748447;;;;;;;;;;;;;;;
1521.0;1478.1;;;;0.04246903;-0.9287149;0.2559586;;;;;;;;;;;;;;;
1521.0;1478.1;;;;0.042671207;-0.9306451;0.25481036;;;;;;;;;;;;;;;
1521.0;1478.1;;;;0.04277039;-0.93265545;0.25358585;;;;;;;;;;;;;;;
1521.0;1478.1;;;;0.042644504;-0.9347497;0.25217822;;;;;;;;;;;;;;;
1521.0;1478.1;;;;0.042686466;-0.93699276;0.25080493;;;;;;;;;;;;;;;
1525.0;1479.7;262143;262143;13720;;;;;;;;;;;;;;;;;;
1525.0;1486.0;;;;;;;;;;;;;-891;;;;;;;;
1525.0;1486.0;;;;;;;;;;;;;-1032;;;;;;;;
1525.0;1486.0;;;;;;;;;;;;;-1285;;;;;;;;
1525.0;1486.0;;;;;;;;;;;;;-1621;;;;;;;;
1525.0;1486.0;;;;;;;;;;;;;-1986;;;;;;;;
1525.0;1488.2;;;;0.042800907;-0.93906033;0.24951938;;;;;;;;;;;;;;;
1525.0;1488.2;;;;0.043067936;-0.9408227;0.24864581;;;;;;;;;;;;;;;
1525.0;1488.2;;;;0.043304447;-0.94256604;0.24737552;;;;;;;;;;;;;;;
1525.0;1488.2;;;;0.043903355;-0.9446527;0.2456589;;;;;;;;;;;;;;;
1525.0;1488.2;;;;0.043987278;-0.9461061;0.24420169;;;;;;;;;;;;;;;
1525.0;1493.3;;;;;;;;;;;;;;;;;2.6131475;-0.5760369;-1.3885921;;1387.9
1525.0;1493.3;;;;;;;;;;;;;;0.91006196;0.14539018;-0.3188574;;;;;1387.9
1525.0;1493.3;;;;;;;;;;;;;;;;;2.2965178;-0.67903686;-1.2741477;;1387.9
1525.0;1493.3;;;;;;;;;;;;;;0.91183203;0.14123966;-0.32093266;;;;;1387.9
1525.0;1493.3;;;;;;;;;;;;;;;;;2.090518;-0.76296276;-1.1482589;;1397.6
1525.0;1493.3;;;;;;;;;;;;;;0.9137242;0.13922544;-0.32575458;;;;;1397.6
1525.0;1493.3;;;;;;;;;;;;;;;;;2.071444;-0.7248146;-0.9193701;;1397.6
1525.0;1493.3;;;;;;;;;;;;;;0.91256446;0.13440351;-0.3284402;;;;;1397.6
1525.0;1493.3;;;;;;;;;;;;;;;;;2.1019626;-0.5340739;-0.82399976;;1407.3
1525.0;1493.3;;;;;;;;;;;;;;0.91091645;0.13342692;-0.331431;;;;;1407.3
1525.0;1493.3;;;;;;;;;;;;;;;;;2.3804438;-0.40818506;-0.67903686;;1407.3
1525.0;1493.3;;;;;;;;;;;;;;0.9076815;0.1307413;-0.3336894;;;;;1407.3
1640.0;1494.4;;;;;;;;;;;;;;;;;2.5902586;-0.25559253;-0.54551834;;1416.9
1640.0;1494.4;;;;;;;;;;;;;;0.9059725;0.12927641;-0.3342387;;;;;1416.9
1640.0;1494.4;;;;;;;;;;;;;;;;;2.5711844;-0.18692587;-0.40437025;;1416.9
1640.0;1494.4;;;;;;;;;;;;;;0.90524;0.1241493;-0.33014923;;;;;1416.9
1640.0;1494.4;;;;;;;;;;;;;;;;;2.2354808;0.022888882;-0.22125919;;1426.6
1640.0;1494.4;;;;;;;;;;;;;;0.90951264;0.119205296;-0.32288584;;;;;1426.6
1640.0;1494.4;;;;;;;;;;;;;;;;;1.8387402;0.35096285;-0.17166662;;1426.6
1640.0;1494.4;;;;;;;;;;;;;;0.9137852;0.119449444;-0.3192236;;;;;1426.6
1640.0;1494.4;;;;;;;;;;;;;;;;;1.659444;0.57222205;-0.03051851;;1436.1
1640.0;1494.4;;;;;;;;;;;;;;0.91451764;0.1180456;-0.32007813;;;;;1436.1
1640.0;1494.4;;;;;;;;;;;;;;;;;1.5030366;0.5798517;0.13351847;;1436.1
1640.0;1494.4;;;;;;;;;;;;;;0.9164098;0.11816767;-0.3253273;;;;;1436.1
1640.0;1498.1;;;;0.04402161;-0.94770443;0.24256518;;;;;;;;;;;;;;;
1640.0;1498.1;;;;0.04396439;-0.94892895;0.24108127;;;;;;;;;;;;;;;
1640.0;1498.1;;;;0.044422153;-0.9507066;0.240078;;;;;;;;;;;;;;;
1640.0;1498.1;;;;0.044586185;-0.9515954;0.2392464;;;;;;;;;;;;;;;
1640.0;1498.1;;;;0.04479218;-0.9523469;0.23802951;;;;;;;;;;;;;;;
1640.0;1499.7;262143;262143;13721;;;;;;;;;;;;;;;;;;
1640.0;1508.0;;;;0.04441834;-0.95305645;0.23667529;;;;;;;;;;;;;;;
1640.0;1508.0;;;;0.043865208;-0.95367444;0.2351456;;;;;;;;;;;;;;;
1640.0;1508.0;;;;0.0440712;-0.95442593;0.23412326;;;;;;;;;;;;;;;
1640.0;1508.0;;;;0.043270115;-0.9545404;0.23306659;;;;;;;;;;;;;;;
1640.0;1508.0;;;;0.042930607;-0.955124;0.23115161;;;;;;;;;;;;;;;
1642.0;1518.0;;;;0.043190006;-0.9552232;0.2301636;;;;;;;;;;;;;;;
1642.0;1518.0;;;;0.04320145;-0.9549066;0.22826388;;;;;;;;;;;;;;;
1642.0;1518.0;;;;0.042507175;-0.95367444;0.22635272;;;;;;;;;;;;;;;
1642.0;1518.0;;;;0.042671207;-0.95391476;0.22516635;;;;;;;;;;;;;;;
1642.0;1518.0;;;;0.04233933;-0.9540254;0.22329333;;;;;;;;;;;;;;;
1642.0;1519.8;262143;262143;13707;;;;;;;;;;;;;;;;;;
1642.0;1526.0;;;;;;;;;;;;;-2339;;;;;;;;
1642.0;1526.0;;;;;;;;;;;;;-2556;;;;;;;;
1642.0;1526.0;;;;;;;;;;;;;-2538;;;;;;;;
1642.0;1526.0;;;;;;;;;;;;;-2295;;;;;;;;
1642.0;1526.0;;;;;;;;;;;;;-1929;;;;;;;;
1642.0;1528.1;;;;0.04204941;-0.95388806;0.22198108;;;;;;;;;;;;;;;
1642.0;1528.1;;;;0.041458134;-0.9533082;0.22097781;;;;;;;;;;;;;;;
1642.0;1528.1;;;;0.04213715;-0.95333874;0.21951297;;;;;;;;;;;;;;;
1642.0;1528.1;;;;0.042736057;-0.95417035;0.21812442;;;;;;;;;;;;;;;
1642.0;1528.1;;;;0.04303742;-0.9545518;0.21709827;;;;;;;;;;;;;;;
1643.0;1538.4;;;;;;;;;;;;;;;;;1.4381847;0.4730369;0.2517777;;1445.7
1643.0;1538.4;;;;;;;;;;;;;;0.9162877;0.11835078;-0.3267922;;;;;1445.7
1643.0;1538.4;;;;;;;;;;;;;;;;;1.3351848;0.3662221;0.3852962;;1445.7
1643.0;1538.4;;;;;;;;;;;;;;0.9151891;0.11774041;-0.32453382;;;;;1445.7
1643.0;1538.4;;;;;;;;;;;;;;;;;1.3237404;0.45014802;0.45014802;;1455.3
1643.0;1538.4;;;;;;;;;;;;;;0.9119541;0.119327374;-0.32374036;;;;;1455.3
1643.0;1538.4;;;;;;;;;;;;;;;;;1.5831476;0.614185;0.46159247;;1455.3
1643.0;1538.4;;;;;;;;;;;;;;0.90609455;0.120303966;-0.32618183;;;;;1455.3
1643.0;1538.4;;;;;;;;;;;;;;;;;1.6975921;0.54551834;0.50737023;;1464.9
1643.0;1538.4;;;;;;;;;;;;;;0.9010895;0.12115848;-0.32880643;;;;;1464.9
1643.0;1538.4;;;;;;;;;;;;;;;;;1.6289254;0.24414808;0.54551834;;1464.9
1643.0;1538.4;;;;;;;;;;;;;;0.8988311;0.12207404;-0.32941678;;;;;1464.9
1643.0;1538.2;;;;0.043132786;-0.9555093;0.21652988;;;;;;;;;;;;;;;
1643.0;1538.2;;;;0.04302979;-0.9566461;0.21595767;;;;;;;;;;;;;;;
1643.0;1538.2;;;;0.04438782;-0.958748;0.21501544;;;;;;;;;;;;;;;
1643.0;1538.2;;;;0.044658665;-0.96065533;0.21411899;;;;;;;;;;;;;;;
1643.0;1538.2;;;;0.045196537;-0.962227;0.21332553;;;;;;;;;;;;;;;
1643.0;1539.9;262143;262143;13715;;;;;;;;;;;;;;;;;;
1643.0;1548.2;;;;0.04528809;-0.9637147;0.2129555;;;;;;;;;;;;;;;
1643.0;1548.2;;;;0.04599381;-0.96475995;0.21289828;;;;;;;;;;;;;;;
1643.0;1548.2;;;;0.046356205;-0.96593106;0.21246341;;;;;;;;;;;;;;;
1643.0;1548.2;;;;0.046905525;-0.9662515;0.21246341;;;;;;;;;;;;;;;
1643.0;1548.2;;;;0.04724122;-0.96639645;0.21165851;;;;;;;;;;;;;;;
1648.0;1553.3;;;;;;;;;;;;;;;;;1.4419996;-0.13733329;0.5645924;;1474.4
1648.0;1553.3;;;;;;;;;;;;;;0.9001129;0.12286752;-0.33039337;;;;;1474.4
1648.0;1553.3;;;;;;;;;;;;;;;;;1.0872219;-0.40055543;0.5874813;;1474.4
1648.0;1553.3;;;;;;;;;;;;;;0.9037141;0.12335581;-0.33118686;;;;;1474.4
1648.0;1553.3;;;;;;;;;;;;;;;;;0.9956664;-0.6065554;0.5645924;;1484.1
1648.0;1553.3;;;;;;;;;;;;;;0.9082919;0.12396619;-0.33100376;;;;;1484.1
1648.0;1553.3;;;;;;;;;;;;;;;;;0.84688866;-0.45777765;0.49592578;;1484.1
1648.0;1553.3;;;;;;;;;;;;;;0.9157384;0.121890925;-0.3259377;;;;;1484.1
1648.0;1553.3;;;;;;;;;;;;;;;;;0.5340739;-0.06103702;0.4730369;;1493.8
1648.0;1553.3;;;;;;;;;;;;;;0.92355114;0.119876705;-0.32245857;;;;;1493.8
1648.0;1553.3;;;;;;;;;;;;;;;;;0.011444441;0.51118505;0.44251838;;1493.8
1648.0;1553.3;;;;;;;;;;;;;;0.9281289;0.117435224;-0.31995606;;;;;1493.8
1648.0;1558.1;;;;0.047676094;-0.96652997;0.21176532;;;;;;;;;;;;;;;
1648.0;1558.1;;;;0.04824067;-0.96699536;0.21180728;;;;;;;;;;;;;;;
1648.0;1558.1;;;;0.048969276;-0.9673654;0.2109566;;;;;;;;;;;;;;;
1648.0;1558.1;;;;0.049514778;-0.96730816;0.21079639;;;;;;;;;;;;;;;
1648.0;1558.1;;;;0.049457557;-0.9674417;0.2102814;;;;;;;;;;;;;;;
1648.0;1559.9;262143;262143;13720;;;;;;;;;;;;;;;;;;
1648.0;1566.2;;;;;;;;;;;;;-1509;;;;;;;;
1648.0;1566.2;;;;;;;;;;;;;-1016;;;;;;;;
1648.0;1566.2;;;;;;;;;;;;;-476;;;;;;;;
1648.0;1566.2;;;;;;;;;;;;;25;;;;;;;;
1648.0;1566.2;;;;;;;;;;;;;432;;;;;;;;
1649.0;1568.1;;;;0.04967118;-0.96717083;0.20982364;;;;;;;;;;;;;;;
1649.0;1568.1;;;;0.050495155;-0.9666406;0.20898822;;;;;;;;;;;;;;;
1649.0;1568.1;;;;0.050655372;-0.96681607;0.20862582;;;;;;;;;;;;;;;
1649.0;1568.1;;;;0.051090248;-0.96649563;0.20807269;;;;;;;;;;;;;;;
1649.0;1568.1;;;;0.051853187;-0.96587765;0.20724872;;;;;;;;;;;;;;;
1649.0;1578.2;;;;0.052654274;-0.9653703;0.20601657;;;;;;;;;;;;;;;
1649.0;1578.2;;;;0.052711494;-0.9649049;0.20518115;;;;;;;;;;;;;;;
1649.0;1578.2;;;;0.052795418;-0.9644891;0.2044678;;;;;;;;;;;;;;;
1649.0;1578.2;;;;0.0530243;-0.9642488;0.20357516;;;;;;;;;;;;;;;
1649.0;1578.2;;;;0.053539284;-0.9639474;0.20270541;;;;;;;;;;;;;;;
1649.0;1580.1;262143;262143;13710;;;;;;;;;;;;;;;;;;
1649.0;1588.3;;;;0.053752907;-0.9642106;0.20244983;;;;;;;;;;;;;;;
1649.0;1588.3;;;;0.054241188;-0.96390927;0.20172122;;;;;;;;;;;;;;;
1649.0;1588.3;;;;0.055034645;-0.964512;0.20125583;;;;;;;;;;;;;;;
1649.0;1588.3;;;;0.055763252;-0.9639894;0.20101932;;;;;;;;;;;;;;;
1649.0;1588.3;;;;0.05615235;-0.9639207;0.20019916;;;;;;;;;;;;;;;
1649.0;1598.4;;;;0.057342537;-0.96382153;0.20037463;;;;;;;;;;;;;;;
1649.0;1598.4;;;;0.058471687;-0.9637567;0.20071033;;;;;;;;;;;;;;;
1649.0;1598.4;;;;0.05932618;-0.96366894;0.20118716;;;;;;;;;;;;;;;
1649.0;1598.4;;;;0.06081391;-0.9631616;0.20120242;;;;;;;;;;;;;;;
1649.0;1598.4;;;;0.061370857;-0.9630128;0.20160297;;;;;;;;;;;;;;;
1650.0;1598.7;;;;;;;;;;;;;;;;;-0.42725915;0.9727775;0.43870357;;1503.4
1650.0;1598.7;;;;;;;;;;;;;;0.931547;0.114200264;-0.3162328;;;;;1503.4
1650.0;1598.7;;;;;;;;;;;;;;;;;-0.7248146;1.2588885;0.48448133;;1503.4
1650.0;1598.7;;;;;;;;;;;;;;0.9312418;0.109866634;-0.31653798;;;;;1503.4
1650.0;1598.7;;;;;;;;;;;;;;;;;-0.6447035;1.2398144;0.43488875;;1512.9
1650.0;1598.7;;;;;;;;;;;;;;0.9272134;0.10522782;-0.31727043;;;;;1512.9
1650.0;1598.7;;;;;;;;;;;;;;;;;-0.37385175;1.0109257;0.5264443;;1512.9
1650.0;1598.7;;;;;;;;;;;;;;0.92208624;0.09973449;-0.31958982;;;;;1512.9
1650.0;1598.7;;;;;;;;;;;;;;;;;-0.04196295;0.8659627;0.51499987;;1522.6
1650.0;1598.7;;;;;;;;;;;;;;0.9150059;0.09668264;-0.31482893;;;;;1522.6
1650.0;1598.7;;;;;;;;;;;;;;;;;0.3624073;0.7057405;0.54551834;;1522.6
1650.0;1598.7;;;;;;;;;;;;;;0.9124424;0.09472945;-0.31086153;;;;;1522.6
1650.0;1600.2;262143;262143;13706;;;;;;;;;;;;;;;;;;
1653.0;1606.5;;;;;;;;;;;;;;;;;0.9346294;0.37385175;0.4463332;;1532.2
1653.0;1606.5;;;;;;;;;;;;;;0.9082919;0.094912566;-0.31427962;;;;;1532.2
1653.0;1606.5;;;;;;;;;;;;;;;;;1.4152958;0.12207404;0.28992584;;1532.2
1653.0;1606.5;;;;;;;;;;;;;;0.9083529;0.0926542;-0.31751457;;;;;1532.2
1653.0;1606.5;;;;;;;;;;;;;;;;;1.7128513;-0.10681479;0.25940734;;1541.9
1653.0;1606.5;;;;;;;;;;;;;;0.9114048;0.09131138;-0.32032228;;;;;1541.9
1653.0;1606.5;;;;;;;;;;;;;;;;;1.8082217;0.068666644;0.11825922;;1541.9
1653.0;1606.5;;;;;;;;;;;;;;0.9143956;0.090823084;-0.32288584;;;;;1541.9
1653.0;1606.5;;;;;;;;;;;;;;;;;1.7738883;0.11444441;0.0076296274;;1551.6
1653.0;1606.5;;;;;;;;;;;;;;0.9209876;0.09198279;-0.326487;;;;;1551.6
1653.0;1606.5;;;;;;;;;;;;;;;;;1.5984069;0.20599994;0.045777764;;1551.6
1653.0;1606.5;;;;;;;;;;;;;;0.9270913;0.093935974;-0.33039337;;;;;1551.6
1653.0;1606.3;;;;;;;;;;;;;735;;;;;;;;
1653.0;1606.3;;;;;;;;;;;;;966;;;;;;;;
1653.0;1606.3;;;;;;;;;;;;;1161;;;;;;;;
1653.0;1606.3;;;;;;;;;;;;;1302;;;;;;;;
1653.0;1606.3;;;;;;;;;;;;;1329;;;;;;;;
1653.0;1608.3;;;;0.061927803;-0.96249783;0.20289233;;;;;;;;;;;;;;;
1653.0;1608.3;;;;0.062431343;-0.96252835;0.2040787;;;;;;;;;;;;;;;
1653.0;1608.3;;;;0.06255723;-0.96219265;0.20582202;;;;;;;;;;;;;;;
1653.0;1608.3;;;;0.06275941;-0.96258175;0.20691684;;;;;;;;;;;;;;;
1653.0;1608.3;;;;0.06303025;-0.96224606;0.20834354;;;;;;;;;;;;;;;
1700.0;1618.3;;;;0.06259919;-0.9626237;0.20964816;;;;;;;;;;;;;;;
1700.0;1618.3;;;;0.06338502;-0.96250546;0.2113457;;;;;;;;;;;;;;;
1700.0;1618.3;;;;0.06292725;-0.96294034;0.2129288;;;;;;;;;;;;;;;
1700.0;1618.3;;;;0.062496193;-0.9628793;0.21476749;;;;;;;;;;;;;;;
1700.0;1618.3;;;;0.06221772;-0.9630128;0.21721652;;;;;;;;;;;;;;;
1700.0;1620.2;262143;262143;13709;;;;;;;;;;;;;;;;;;
1700.0;1628.2;;;;0.06183625;-0.96310055;0.21908954;;;;;;;;;;;;;;;
1700.0;1628.2;;;;0.06164933;-0.9624902;0.22089007;;;;;;;;;;;;;;;
1700.0;1628.2;;;;0.061256416;-0.96231854;0.22298816;;;;;;;;;;;;;;;
1700.0;1628.2;;;;0.061359413;-0.9619218;0.22510913;;;;;;;;;;;;;;;
1700.0;1628.2;;;;0.06060029;-0.9612161;0.22735599;;;;;;;;;;;;;;;
1700.0;1638.0;;;;0.060806282;-0.9608003;0.22898105;;;;;;;;;;;;;;;
1700.0;1638.0;;;;0.06001664;-0.9600297;0.23037341;;;;;;;;;;;;;;;
1700.0;1638.0;;;;0.060371406;-0.9586412;0.23299411;;;;;;;;;;;;;;;
1700.0;1638.0;;;;0.060230263;-0.9577409;0.23541263;;;;;;;;;;;;;;;
1700.0;1638.0;;;;0.060329445;-0.9562837;0.2370911;;;;;;;;;;;;;;;
1700.0;1640.1;262143;262143;13709;;;;;;;;;;;;;;;;;;
1700.0;1646.3;;;;;;;;;;;;;1221;;;;;;;;
1700.0;1646.3;;;;;;;;;;;;;1036;;;;;;;;
1700.0;1646.3;;;;;;;;;;;;;874;;;;;;;;
1700.0;1646.3;;;;;;;;;;;;;776;;;;;;;;
1700.0;1646.3;;;;;;;;;;;;;707;;;;;;;;
1704.0;1648.1;;;;0.059867866;-0.95469296;0.23809817;;;;;;;;;;;;;;;
1704.0;1648.1;;;;0.06001664;-0.9533769;0.23987582;;;;;;;;;;;;;;;
1704.0;1648.1;;;;0.06012345;-0.9512979;0.24134067;;;;;;;;;;;;;;;
1704.0;1648.1;;;;0.059669502;-0.94960415;0.24300769;;;;;;;;;;;;;;;
1704.0;1648.1;;;;0.059581764;-0.9473382;0.24459079;;;;;;;;;;;;;;;
1704.0;1658.2;;;;0.05927659;-0.94542325;0.24613574;;;;;;;;;;;;;;;
1704.0;1658.2;;;;0.059558876;-0.9433633;0.24758914;;;;;;;;;;;;;;;
1704.0;1658.2;;;;0.06058503;-0.94132626;0.25034335;;;;;;;;;;;;;;;
1704.0;1658.2;;;;0.060733803;-0.9386598;0.2518845;;;;;;;;;;;;;;;
1704.0;1658.2;;;;0.060104378;-0.93626416;0.2528992;;;;;;;;;;;;;;;
1704.0;1660.2;262143;262143;13703;;;;;;;;;;;;;;;;;;
1704.0;1666.1;;;;;;;;;;;;;;;;;1.4496292;0.35859248;0.049592577;;1561.1
1704.0;1666.1;;;;;;;;;;;;;;0.9330729;0.09625538;-0.33625293;;;;;1561.1
1704.0;1666.1;;;;;;;;;;;;;;;;;1.1978515;0.6485183;-0.011444441;;1561.1
1704.0;1666.1;;;;;;;;;;;;;;0.93649095;0.09845271;-0.33527634;;;;;1561.1
1704.0;1666.1;;;;;;;;;;;;;;;;;0.73625904;0.8278146;0.13351847;;1570.7
1704.0;1666.1;;;;;;;;;;;;;;0.9391766;0.10174871;-0.32917264;;;;;1570.7
1704.0;1666.1;;;;;;;;;;;;;;;;;0.14496292;1.1558886;0.25940734;;1570.7
1704.0;1666.1;;;;;;;;;;;;;;0.9405805;0.10260323;-0.31629384;;;;;1570.7
1704.0;1666.1;;;;;;;;;;;;;;;;;-0.17929624;1.8311106;0.46540728;;1580.4
1704.0;1666.1;;;;;;;;;;;;;;0.93612474;0.103518784;-0.30957976;;;;;1580.4
1704.0;1666.1;;;;;;;;;;;;;;;;;-0.35859248;2.090518;0.62944424;;1580.4
1704.0;1666.1;;;;;;;;;;;;;;0.9269082;0.10547197;-0.3185522;;;;;1580.4
1706.0;1666.9;;;;;;;;;;;;;;;;;-0.39674062;1.9341105;0.7858516;;1590.0
1706.0;1666.9;;;;;;;;;;;;;;0.918363;0.10254219;-0.32428968;;;;;1590.0
1706.0;1666.9;;;;;;;;;;;;;;;;;-0.2822962;1.4610736;0.8354442;;1590.0
1706.0;1666.9;;;;;;;;;;;;;;0.9078036;0.10168768;-0.3251442;;;;;1590.0
1706.0;1666.9;;;;;;;;;;;;;;;;;-0.07248146;0.88122195;0.8278146;;1599.6
1706.0;1666.9;;;;;;;;;;;;;;0.9007233;0.10217597;-0.32441175;;;;;1599.6
1706.0;1666.9;;;;;;;;;;;;;;;;;0.019074067;0.35096285;0.8163701;;1599.6
1706.0;1666.9;;;;;;;;;;;;;;0.89657277;0.10132145;-0.31684315;;;;;1599.6
1706.0;1666.9;;;;;;;;;;;;;;;;;0.0839259;0.015259255;0.7667776;;1609.2
1706.0;1666.9;;;;;;;;;;;;;;0.900235;0.09814753;-0.31171605;;;;;1609.2
1706.0;1666.9;;;;;;;;;;;;;;;;;0.049592577;-0.13733329;0.6981109;;1609.2
1706.0;1666.9;;;;;;;;;;;;;;0.9076815;0.0921659;-0.31488997;;;;;1609.2
1706.0;1668.1;;;;0.059501655;-0.93478787;0.25329974;;;;;;;;;;;;;;;
1706.0;1668.1;;;;0.058853157;-0.9325448;0.25439838;;;;;;;;;;;;;;;
1706.0;1668.1;;;;0.058345802;-0.9311067;0.2559624;;;;;;;;;;;;;;;
1706.0;1668.1;;;;0.057155617;-0.9293443;0.2565842;;;;;;;;;;;;;;;
1706.0;1668.1;;;;0.0558014;-0.9282533;0.2571831;;;;;;;;;;;;;;;
1706.0;1678.1;;;;0.054573067;-0.92727673;0.25939563;;;;;;;;;;;;;;;
1706.0;1678.1;;;;0.05383683;-0.925892;0.26173022;;;;;;;;;;;;;;;
1706.0;1678.1;;;;0.05233384;-0.92505276;0.2632294;;;;;;;;;;;;;;;
1706.0;1678.1;;;;0.050201423;-0.9243127;0.2645798;;;;;;;;;;;;;;;
1706.0;1678.1;;;;0.047943123;-0.9244615;0.2657509;;;;;;;;;;;;;;;
1706.0;1680.2;262143;262143;13706;;;;;;;;;;;;;;;;;;
1760.0;1686.4;;;;;;;;;;;;;626;;;;;;;;
1760.0;1686.4;;;;;;;;;;;;;525;;;;;;;;
1760.0;1686.4;;;;;;;;;;;;;450;;;;;;;;
1760.0;1686.4;;;;;;;;;;;;;443;;;;;;;;
1760.0;1686.4;;;;;;;;;;;;;401;;;;;;;;
1760.0;1688.2;;;;0.045246128;-0.9239656;0.26776507;;;;;;;;;;;;;;;
1760.0;1688.2;;;;0.042659763;-0.92328656;0.2701073;;;;;;;;;;;;;;;
1760.0;1688.2;;;;0.038852695;-0.92317593;0.27168277;;;;;;;;;;;;;;;
1760.0;1688.2;;;;0.034355167;-0.9235307;0.27282336;;;;;;;;;;;;;;;
1760.0;1688.2;;;;0.029636387;-0.9239656;0.27433398;;;;;;;;;;;;;;;
1760.0;1698.1;;;;0.025539402;-0.9247438;0.2770348;;;;;;;;;;;;;;;
1760.0;1698.1;;;;0.020954134;-0.92582333;0.2786217;;;;;;;;;;;;;;;
1760.0;1698.1;;;;0.01639557;-0.9273912;0.280201;;;;;;;;;;;;;;;
1760.0;1698.1;;;;0.011699677;-0.928486;0.28115848;;;;;;;;;;;;;;;
1760.0;1698.1;;;;0.0070877085;-0.93011105;0.2816544;;;;;;;;;;;;;;;
1760.0;1700.3;262143;262143;13711;;;;;;;;;;;;;;;;;;
1760.0;1708.2;;;;0.0025177004;-0.9320489;0.28138354;;;;;;;;;;;;;;;
1760.0;1708.2;;;;-0.0012855531;-0.93405926;0.28130725;;;;;;;;;;;;;;;
1760.0;1708.2;;;;-0.004203797;-0.9359056;0.28065112;;;;;;;;;;;;;;;
1760.0;1708.2;;;;-0.0074119577;-0.9373895;0.27958682;;;;;;;;;;;;;;;
1760.0;1708.2;;;;-0.009956361;-0.93895733;0.2785912;;;;;;;;;;;;;;;
1762.0;1718.3;;;;-0.012992861;-0.93971646;0.2762566;;;;;;;;;;;;;;;
1762.0;1718.3;;;;-0.014408113;-0.9405824;0.2755585;;;;;;;;;;;;;;;
1762.0;1718.3;;;;-0.016632082;-0.9402505;0.2742119;;;;;;;;;;;;;;;
1762.0;1718.3;;;;-0.019500734;-0.93924344;0.27118304;;;;;;;;;;;;;;;
1762.0;1718.3;;;;-0.022403719;-0.9384004;0.26978686;;;;;;;;;;;;;;;
1762.0;1718.8;;;;;;;;;;;;;;;;;-0.034333322;0.04196295;0.6408887;;1618.9
1762.0;1718.8;;;;;;;;;;;;;;0.91470075;0.090456866;-0.31861323;;;;;1618.9
1762.0;1718.8;;;;;;;;;;;;;;;;;-0.19074069;0.3128147;0.6408887;;1618.9
1762.0;1718.8;;;;;;;;;;;;;;0.9177526;0.09088412;-0.3187353;;;;;1618.9
1762.0;1718.8;;;;;;;;;;;;;;;;;-0.43107393;0.40818506;0.61037016;;1628.5
1762.0;1718.8;;;;;;;;;;;;;;0.9207434;0.09485153;-0.31867427;;;;;1628.5
1762.0;1718.8;;;;;;;;;;;;;;;;;-0.94225895;0.5798517;0.51499987;;1628.5
1762.0;1718.8;;;;;;;;;;;;;;0.92104864;0.09796441;-0.31293678;;;;;1628.5
1762.0;1718.8;;;;;;;;;;;;;;;;;-1.4076662;0.6408887;0.3852962;;1638.2
1762.0;1718.8;;;;;;;;;;;;;;0.9231239;0.10388501;-0.31250954;;;;;1638.2
1762.0;1718.8;;;;;;;;;;;;;;;;;-1.7052218;0.80111086;0.37385175;;1638.2
1762.0;1718.8;;;;;;;;;;;;;;0.91909546;0.10748619;-0.31434065;;;;;1638.2
1775.0;1719.5;;;;;;;;;;;;;;;;;-1.9989624;0.7477035;0.27085176;;1647.8
1775.0;1719.5;;;;;;;;;;;;;;0.9198279;0.10895108;-0.3152562;;;;;1647.8
1775.0;1719.5;;;;;;;;;;;;;;;;;-2.1324809;0.6599628;0.25559253;;1647.8
1775.0;1719.5;;;;;;;;;;;;;;0.91744745;0.10998871;-0.3124485;;;;;1647.8
1775.0;1719.5;;;;;;;;;;;;;;;;;-2.189703;0.57222205;0.14496292;;1657.5
1775.0;1719.5;;;;;;;;;;;;;;0.9114048;0.10956145;-0.30664998;;;;;1657.5
1775.0;1719.5;;;;;;;;;;;;;;;;;-2.1210363;0.38911098;0.11444441;;1657.5
1775.0;1719.5;;;;;;;;;;;;;;0.90121156;0.10864589;-0.3063448;;;;;1657.5
1775.0;1719.5;;;;;;;;;;;;;;;;;-1.8005921;0.26322216;0.022888882;;1667.1
1775.0;1719.5;;;;;;;;;;;;;;0.8932157;0.10809656;-0.31336406;;;;;1667.1
1775.0;1719.5;;;;;;;;;;;;;;;;;-1.5564439;0.0;-0.19455549;;1667.1
1775.0;1719.5;;;;;;;;;;;;;;0.8845485;0.11066011;-0.3187353;;;;;1667.1
1775.0;1720.3;262143;262143;13718;;;;;;;;;;;;;;;;;;
1775.0;1726.4;;;;;;;;;;;;;243;;;;;;;;
1775.0;1726.4;;;;;;;;;;;;;61;;;;;;;;
1775.0;1726.4;;;;;;;;;;;;;5;;;;;;;;
1775.0;1726.4;;;;;;;;;;;;;65;;;;;;;;
1775.0;1726.4;;;;;;;;;;;;;62;;;;;;;;
1775.0;1728.1;;;;-0.024589542;-0.9362298;0.26874164;;;;;;;;;;;;;;;
1775.0;1728.1;;;;-0.023342134;-0.93517697;0.26334003;;;;;;;;;;;;;;;
1775.0;1728.1;;;;-0.024772648;-0.93421566;0.2616997;;;;;;;;;;;;;;;
1775.0;1728.1;;;;-0.027355198;-0.932644;0.2598534;;;;;;;;;;;;;;;
1775.0;1728.1;;;;-0.031089786;-0.9308473;0.2580147;;;;;;;;;;;;;;;
1877.0;1736.8;;;;;;;;;;0.6218146;17.681662;-2.6551104;;;;;;;;;
1877.0;1736.8;;;;;;;-0.123111665;0.83205664;0.22412793;;;;;;;;;;;;
1877.0;1736.8;;;;;;;;;;6.778924;32.006287;9.998627;;;;;;;;;
1877.0;1736.8;;;;;;;-0.13525803;0.9326457;0.2547075;;;;;;;;;;;;
1877.0;1738.1;;;;-0.03658295;-0.92829907;0.25372317;;;;;;;;;;;;;;;
1877.0;1738.1;;;;-0.032989506;-0.9277612;0.24972156;;;;;;;;;;;;;;;
1877.0;1738.1;;;;-0.012260439;-0.9293786;0.24870303;;;;;;;;;;;;;;;
1877.0;1738.1;;;;-0.010417939;-0.92754376;0.25259402;;;;;;;;;;;;;;;
1877.0;1738.1;;;;-0.016414644;-0.9224092;0.26124194;;;;;;;;;;;;;;;
1877.0;1740.4;262143;262143;13705;;;;;;;;;;;;;;;;;;
1877.0;1746.5;;;;;;;;;;2.1172216;4.058962;2.9831843;;;;;;;;;
1877.0;1746.5;;;;;;;-0.13342692;0.9319132;0.25849178;;;;;;;;;;;;
1877.0;1746.5;;;;;;;;;;8.243813;13.9317;8.289591;;;;;;;;;
1877.0;1746.5;;;;;;;-0.13257241;0.93111974;0.26075014;;;;;;;;;;;;
1877.0;1748.0;;;;-0.015926363;-0.9207727;0.25787738;;;;;;;;;;;;;;;
1877.0;1748.0;;;;-0.0128822345;-0.9200822;0.25239566;;;;;;;;;;;;;;;
1877.0;1748.0;;;;-0.013164522;-0.91736615;0.25364307;;;;;;;;;;;;;;;
1877.0;1748.0;;;;-0.012737276;-0.9164392;0.25529483;;;;;;;;;;;;;;;
1877.0;1748.0;;;;-0.012714388;-0.9170419;0.2555962;;;;;;;;;;;;;;;
1877.0;1755.7;;;;;;;;;;10.784478;marras.47;9.342479;;;;;;;;;
1877.0;1755.7;;;;;;;-0.12903225;0.9303262;0.2642903;;;;;;;;;;;;
1877.0;1755.7;;;;;;;;;;8.358257;-26.940214;-10.55559;;;;;;;;;
1877.0;1755.7;;;;;;;-0.12909329;0.92996;0.2666097;;;;;;;;;;;;
1880.0;1758.0;;;;-0.013893129;-0.91812146;0.25542453;;;;;;;;;;;;;;;
1880.0;1758.0;;;;-0.030242924;-0.92017376;0.25136188;;;;;;;;;;;;;;;
1880.0;1758.0;;;;-0.01654053;-0.9261781;0.25625995;;;;;;;;;;;;;;;
1880.0;1758.0;;;;0.0025062563;-0.9250947;0.2586632;;;;;;;;;;;;;;;
1880.0;1758.0;;;;-0.01840973;-0.92652905;0.2618828;;;;;;;;;;;;;;;
1880.0;1760.3;262143;262143;13704;;;;;;;;;;;;;;;;;;
1880.0;1765.3;;;;;;;;;;11.207922;-31.338696;-10.399182;;;;;;;;;
1880.0;1765.3;;;;;;;-0.12665181;0.9303262;0.26868495;;;;;;;;;;;;
1880.0;1765.3;;;;;;;;;;14.248329;-35.481583;-10.021515;;;;;;;;;
1880.0;1765.3;;;;;;;-0.12524797;0.9280068;0.27344584;;;;;;;;;;;;
1880.0;1766.4;;;;;;;;;;;;;-31;;;;;;;;
1880.0;1766.4;;;;;;;;;;;;;39;;;;;;;;
1880.0;1766.4;;;;;;;;;;;;;413;;;;;;;;
1880.0;1766.4;;;;;;;;;;;;;908;;;;;;;;
1880.0;1766.4;;;;;;;;;;;;;1297;;;;;;;;
1880.0;1768.1;;;;-0.020908358;-0.92600644;0.27373508;;;;;;;;;;;;;;;
1880.0;1768.1;;;;-0.024284367;-0.9278108;0.27839664;;;;;;;;;;;;;;;
1880.0;1768.1;;;;-0.028285984;-0.9308435;0.2792473;;;;;;;;;;;;;;;
1880.0;1768.1;;;;-0.027305607;-0.9345361;0.27820972;;;;;;;;;;;;;;;
1880.0;1768.1;;;;-0.028099064;-0.9369813;0.2791176;;;;;;;;;;;;;;;
1880.0;1775.0;;;;;;;;;;16.636404;-31.411175;-3.482925;;;;;;;;;
1880.0;1775.0;;;;;;;-0.122196116;0.9281289;0.27564317;;;;;;;;;;;;
1880.0;1775.0;;;;;;;;;;17.60918;-24.731438;3.521073;;;;;;;;;
1880.0;1775.0;;;;;;;-0.12286752;0.92825097;0.27802363;;;;;;;;;;;;
1883.0;1778.2;;;;-0.034694675;-0.93908703;0.2795563;;;;;;;;;;;;;;;
1883.0;1778.2;;;;-0.039234165;-0.94199383;0.2758179;;;;;;;;;;;;;;;
1883.0;1778.2;;;;-0.0399704;-0.94531643;0.27521136;;;;;;;;;;;;;;;
1883.0;1778.2;;;;-0.04286957;-0.9480592;0.2769623;;;;;;;;;;;;;;;
1883.0;1778.2;;;;-0.046276096;-0.9506265;0.27490237;;;;;;;;;;;;;;;
1883.0;1780.4;262143;262143;13711;;;;;;;;;;;;;;;;;;
1883.0;1784.5;;;;;;;;;;18.581957;-25.601213;4.074221;;;;;;;;;
1883.0;1784.5;;;;;;;-0.122196116;0.9289224;0.2826014;;;;;;;;;;;;
1883.0;1784.5;;;;;;;;;;19.425032;-26.615955;4.566332;;;;;;;;;
1883.0;1784.5;;;;;;;-0.11902219;0.9301431;0.28632465;;;;;;;;;;;;
1883.0;1788.1;;;;-0.049446113;-0.95167553;0.27227405;;;;;;;;;;;;;;;
1883.0;1788.1;;;;-0.05121232;-0.9527055;0.27071765;;;;;;;;;;;;;;;
1883.0;1788.1;;;;-0.05236817;-0.9538003;0.26854327;;;;;;;;;;;;;;;
1883.0;1788.1;;;;-0.054214485;-0.95464337;0.2665253;;;;;;;;;;;;;;;
1883.0;1788.1;;;;-0.055904396;-0.9553529;0.26380923;;;;;;;;;;;;;;;
1885.0;1794.2;;;;;;;;;;;;;;;;;-1.2741477;-0.51118505;-0.48448133;;1676.8
1885.0;1794.2;;;;;;;;;;;;;;0.880459;0.11444441;-0.3243507;;;;;1676.8
1885.0;1794.2;;;;;;;;;;;;;;;;;-1.33137;-1.083407;-0.74007386;;1676.8
1885.0;1794.2;;;;;;;;;;;;;;0.88198495;0.118228704;-0.32288584;;;;;1676.8
1885.0;1794.2;;;;;;;;;;;;;;;;;-1.7204809;-1.6518143;-1.064333;;1686.1
1885.0;1794.2;;;;;;;;;;;;;;0.88894314;0.12018189;-0.32453382;;;;;1686.1
1885.0;1794.2;;;;;;;;;;;;;;;;;-2.25074;-1.823481;-1.3161107;;1686.1
1885.0;1794.2;;;;;;;;;;;;;;0.89944154;0.12274545;-0.32819605;;;;;1686.1
1885.0;1794.2;;;;;;;;;;;;;;;;;-2.7123327;-1.7471846;-1.3504441;;1695.8
1885.0;1794.2;;;;;;;;;;;;;;0.9086581;0.12268441;-0.3338725;;;;;1695.8
1885.0;1794.2;;;;;;;;;;;;;;;;;-3.1167028;-1.5144811;-1.3618885;;1695.8
1885.0;1794.2;;;;;;;;;;;;;;0.91219825;0.12475967;-0.33558154;;;;;1695.8
1885.0;1794.0;;;;;;;;;;20.16129;-27.790916;5.069887;;;;;;;;;
1885.0;1794.0;;;;;;;-0.11926634;0.9335002;0.2887051;;;;;;;;;;;;
1885.0;1794.0;;;;;;;;;;20.840326;-28.710287;5.558183;;;;;;;;;
1885.0;1794.0;;;;;;;-0.115970336;0.9362468;0.2923673;;;;;;;;;;;;
1888.0;1794.9;;;;;;;;;;;;;;;;;-3.6126287;-1.5869625;-1.4038514;;1705.5
1888.0;1794.9;;;;;;;;;;;;;;0.91421247;0.12738426;-0.33527634;;;;;1705.5
1888.0;1794.9;;;;;;;;;;;;;;;;;-4.3755913;-1.7662587;-1.3161107;;1705.5
1888.0;1794.9;;;;;;;;;;;;;;0.91402936;0.12970367;-0.32905057;;;;;1705.5
1888.0;1794.9;;;;;;;;;;;;;;;;;-5.2415543;-1.9112216;-1.1940367;;1715.2
1888.0;1794.9;;;;;;;;;;;;;;0.9160436;0.1314127;-0.32343516;;;;;1715.2
1888.0;1794.9;;;;;;;;;;;;;;;;;-5.9778132;-2.0218513;-1.1139256;;1715.2
1888.0;1794.9;;;;;;;;;;;;;;0.9180578;0.13116856;-0.3187353;;;;;1715.2
1888.0;1794.9;;;;;;;;;;;;;;;;;-6.4584794;-1.9798884;-1.1024811;;1724.8
1888.0;1794.9;;;;;;;;;;;;;;0.9198279;0.13049714;-0.31354716;;;;;1724.8
1888.0;1794.9;;;;;;;;;;;;;;;;;-6.8132577;-1.7777032;-1.2054812;;1724.8
1888.0;1794.9;;;;;;;;;;;;;;0.9209266;0.12518692;-0.30500197;;;;;1724.8
1888.0;1797.9;;;;-0.05633927;-0.9558412;0.26192477;;;;;;;;;;;;;;;
1888.0;1797.9;;;;-0.055976875;-0.9562303;0.2593346;;;;;;;;;;;;;;;
1888.0;1797.9;;;;-0.053745277;-0.9571496;0.25675586;;;;;;;;;;;;;;;
1888.0;1797.9;;;;-0.05082322;-0.95827496;0.25428012;;;;;;;;;;;;;;;
1888.0;1797.9;;;;-0.04843522;-0.95822155;0.25286487;;;;;;;;;;;;;;;
1888.0;1800.3;262143;262143;13711;;;;;;;;;;;;;;;;;;
1888.0;1803.3;;;;;;;;;;21.41255;-29.526659;6.0274057;;;;;;;;;
1888.0;1803.3;;;;;;;-0.11053804;0.9373455;0.29505295;;;;;;;;;;;;
1888.0;1803.3;;;;;;;;;;21.82455;-30.255287;6.4622946;;;;;;;;;
1888.0;1803.3;;;;;;;-0.106631674;0.94009215;0.2985931;;;;;;;;;;;;
1890.0;1806.4;;;;;;;;;;;;;1362;;;;;;;;
1890.0;1806.4;;;;;;;;;;;;;1340;;;;;;;;
1890.0;1806.4;;;;;;;;;;;;;1338;;;;;;;;
1890.0;1806.4;;;;;;;;;;;;;1172;;;;;;;;
1890.0;1806.4;;;;;;;;;;;;;1106;;;;;;;;
1890.0;1807.9;;;;-0.046520237;-0.9580575;0.25073245;;;;;;;;;;;;;;;
1890.0;1807.9;;;;-0.04307938;-0.95757306;0.24863055;;;;;;;;;;;;;;;
1890.0;1807.9;;;;-0.03962708;-0.95726407;0.2474747;;;;;;;;;;;;;;;
1890.0;1807.9;;;;-0.037883762;-0.9561845;0.2461777;;;;;;;;;;;;;;;
1890.0;1807.9;;;;-0.035930637;-0.9557649;0.2446213;;;;;;;;;;;;;;;
1890.0;1812.8;;;;;;;;;;22.20603;-30.758842;6.9009976;;;;;;;;;
1890.0;1812.8;;;;;;;-0.10522782;0.94192326;0.30262154;;;;;;;;;;;;
1890.0;1812.8;;;;;;;;;;22.61803;-31.12888;7.389294;;;;;;;;;
1890.0;1812.8;;;;;;;-0.102847375;0.9433271;0.3043306;;;;;;;;;;;;
1890.0;1818.0;;;;-0.03274918;-0.9549371;0.24385837;;;;;;;;;;;;;;;
1890.0;1818.0;;;;-0.030349735;-0.95409787;0.2420769;;;;;;;;;;;;;;;
1890.0;1818.0;;;;-0.028350834;-0.9537164;0.2403107;;;;;;;;;;;;;;;
1890.0;1818.0;;;;-0.026371006;-0.9520837;0.23873904;;;;;;;;;;;;;;;
1890.0;1818.0;;;;-0.024112705;-0.9499742;0.23967746;;;;;;;;;;;;;;;
1890.0;1820.5;262143;262143;13710;;;;;;;;;;;;;;;;;;
1890.0;1822.5;;;;;;;;;;22.892696;-31.369213;7.7898498;;;;;;;;;
1890.0;1822.5;;;;;;;-0.09900205;0.94424266;0.30939665;;;;;;;;;;;;
1890.0;1822.5;;;;;;;;;;23.21314;-31.369213;8.18659;;;;;;;;;
1890.0;1822.5;;;;;;;-0.09643849;0.94601274;0.31275368;;;;;;;;;;;;
1891.0;1828.1;;;;-0.023010256;-0.9478227;0.24144748;;;;;;;;;;;;;;;
1891.0;1828.1;;;;-0.021781923;-0.94511044;0.24141315;;;;;;;;;;;;;;;
1891.0;1828.1;;;;-0.016872408;-0.9436227;0.24189761;;;;;;;;;;;;;;;
1891.0;1828.1;;;;-0.012130739;-0.9431764;0.24226764;;;;;;;;;;;;;;;
1891.0;1828.1;;;;-0.010082246;-0.94199;0.24304584;;;;;;;;;;;;;;;
1891.0;1832.1;;;;;;;;;;23.396252;-31.186102;8.438369;;;;;;;;;
1891.0;1832.1;;;;;;;-0.08899198;0.9488205;0.31580552;;;;;;;;;;;;
1891.0;1832.1;;;;;;;;;;23.525955;-30.758842;8.617663;;;;;;;;;
1891.0;1832.1;;;;;;;-0.0794702;0.9535203;0.32160404;;;;;;;;;;;;
1891.0;1838.2;;;;-0.0076293955;-0.9396821;0.24280551;;;;;;;;;;;;;;;
1891.0;1838.2;;;;-0.005298615;-0.93647397;0.24392322;;;;;;;;;;;;;;;
1891.0;1838.2;;;;-0.0037879949;-0.9346849;0.2456322;;;;;;;;;;;;;;;
1891.0;1838.2;;;;-0.0026016238;-0.9319383;0.24629214;;;;;;;;;;;;;;;
1891.0;1838.2;;;;-0.002471924;-0.9307023;0.24817279;;;;;;;;;;;;;;;
1891.0;1840.7;262143;262143;13708;;;;;;;;;;;;;;;;;;
1891.0;1841.7;;;;;;;;;;23.54503;-29.976805;8.793145;;;;;;;;;
1891.0;1841.7;;;;;;;-0.07226783;0.95992917;0.32697532;;;;;;;;;;;;
1891.0;1841.7;;;;;;;;;;23.537401;-28.76751;9.071627;;;;;;;;;
1891.0;1841.7;;;;;;;-0.06268502;0.96841335;0.3342387;;;;;;;;;;;;
1892.0;1846.5;;;;;;;;;;;;;;;;;-6.85522;-1.3428144;-1.4267403;;1734.4
1892.0;1846.5;;;;;;;;;;;;;;0.9195227;0.12292856;-0.30085146;;;;;1734.4
1892.0;1846.5;;;;;;;;;;;;;;;;;-6.8475904;-0.42725915;-1.7242957;;1734.4
1892.0;1846.5;;;;;;;;;;;;;;0.9144566;0.11841182;-0.2948088;;;;;1734.4
1892.0;1846.5;;;;;;;;;;;;;;;;;-6.6911836;0.23270364;-2.0485551;;1744.0
1892.0;1846.5;;;;;;;;;;;;;;0.90786463;0.11322367;-0.29291666;;;;;1744.0
1892.0;1846.5;;;;;;;;;;;;;;;;;-6.618702;0.6675924;-2.5025177;;1744.0
1892.0;1846.5;;;;;;;;;;;;;;0.9025544;0.10742515;-0.29639578;;;;;1744.0
1892.0;1846.5;;;;;;;;;;;;;;;;;-6.55385;0.7820368;-2.9335918;;1753.7
1892.0;1846.5;;;;;;;;;;;;;;0.89962465;0.100405894;-0.30280465;;;;;1753.7
1892.0;1846.5;;;;;;;;;;;;;;;;;-6.7636647;0.7286294;-3.4180732;;1753.7
1892.0;1846.5;;;;;;;;;;;;;;0.9011505;0.09753716;-0.30658895;;;;;1753.7
1892.0;1846.8;;;;;;;;;;;;;323;;;;;;;;
1892.0;1846.8;;;;;;;;;;;;;-2291;;;;;;;;
1892.0;1846.8;;;;;;;;;;;;;-4975;;;;;;;;
1892.0;1846.8;;;;;;;;;;;;;-4357;;;;;;;;
1892.0;1846.8;;;;;;;;;;;;;278;;;;;;;;
1893.0;1847.3;;;;;;;;;;;;;;;;;-7.232887;0.50737023;-3.7957397;;1763.3
1893.0;1847.3;;;;;;;;;;;;;;0.9092685;0.09595019;-0.30677205;;;;;1763.3
1893.0;1847.3;;;;;;;;;;;;;;;;;-7.637257;0.16022217;-3.9864802;;1763.3
1893.0;1847.3;;;;;;;;;;;;;;0.9229408;0.09552293;-0.30762658;;;;;1763.3
1893.0;1847.3;;;;;;;;;;;;;;;;;-7.869961;0.015259255;-4.154332;;1772.9
1893.0;1847.3;;;;;;;;;;;;;;0.93490404;0.093264565;-0.31220436;;;;;1772.9
1893.0;1847.3;;;;;;;;;;;;;;;;;-7.843257;0.29374066;-4.1238136;;1772.9
1893.0;1847.3;;;;;;;;;;;;;;0.9456465;0.08844264;-0.3221534;;;;;1772.9
1893.0;1847.3;;;;;;;;;;;;;;;;;-7.57622;0.8659627;-4.0665917;;1782.6
1893.0;1847.3;;;;;;;;;;;;;;0.95022434;0.07904294;-0.33039337;;;;;1782.6
1893.0;1847.3;;;;;;;;;;;;;;;;;-7.038331;1.4076662;-4.0246286;;1782.6
1893.0;1847.3;;;;;;;;;;;;;;0.9496139;0.06848354;-0.33314005;;;;;1782.6
1893.0;1848.2;;;;0.0018310549;-0.9322473;0.25107196;;;;;;;;;;;;;;;
1893.0;1848.2;;;;0.010601045;-0.9330903;0.25653842;;;;;;;;;;;;;;;
1893.0;1848.2;;;;0.01261902;-0.9327737;0.25631335;;;;;;;;;;;;;;;
1893.0;1848.2;;;;0.011466981;-0.9347688;0.25045398;;;;;;;;;;;;;;;
1893.0;1848.2;;;;0.011154176;-0.93937695;0.25091556;;;;;;;;;;;;;;;
1893.0;1851.2;;;;;;;;;;23.556475;-27.226326;9.376812;;;;;;;;;
1893.0;1851.2;;;;;;;-0.056459244;0.9794;0.34052554;;;;;;;;;;;;
1893.0;1851.2;;;;;;;;;;23.606068;-25.395214;9.800256;;;;;;;;;
1893.0;1851.2;;;;;;;-0.05084384;0.9897153;0.34998626;;;;;;;;;;;;
1938.0;1858.1;;;;0.0037536626;-0.9441644;0.25019458;;;;;;;;;;;;;;;
1938.0;1858.1;;;;0.0011711122;-0.95102704;0.25511172;;;;;;;;;;;;;;;
1938.0;1858.1;;;;0.0038223271;-0.95549786;0.25903323;;;;;;;;;;;;;;;
1938.0;1858.1;;;;0.010105134;-0.95705044;0.2602959;;;;;;;;;;;;;;;
1938.0;1858.1;;;;0.018093111;-0.957657;0.26031497;;;;;;;;;;;;;;;
1938.0;1860.7;;;;;;;;;;23.571733;-23.44203;10.093997;;;;;;;;;
1938.0;1860.7;;;;;;;-0.042115543;1.0034486;0.35969114;;;;;;;;;;;;
1938.0;1860.7;;;;;;;;;;23.438215;-21.622364;10.277108;;;;;;;;;
1938.0;1860.7;;;;;;;-0.037171546;1.0187689;0.36927396;;;;;;;;;;;;
1938.0;1860.7;262143;262143;13708;;;;;;;;;;;;;;;;;;
1938.0;1868.2;;;;0.023422243;-0.95751965;0.2597771;;;;;;;;;;;;;;;
1938.0;1868.2;;;;0.025966648;-0.9551927;0.259697;;;;;;;;;;;;;;;
1938.0;1868.2;;;;0.028793339;-0.9521524;0.26132968;;;;;;;;;;;;;;;
1938.0;1868.2;;;;0.031158451;-0.94955075;0.2610245;;;;;;;;;;;;;;;
1938.0;1868.2;;;;0.031776432;-0.9463769;0.2599335;;;;;;;;;;;;;;;
1938.0;1870.1;;;;;;;;;;23.14066;-20.14603;10.479293;;;;;;;;;
1938.0;1870.1;;;;;;;-0.034119695;1.0278023;0.38172552;;;;;;;;;;;;
1938.0;1870.1;;;;;;;;;;22.59514;-18.864254;10.742516;;;;;;;;;
1938.0;1870.1;;;;;;;-0.02990814;1.028901;0.39246804;;;;;;;;;;;;
2000.0;1877.8;;;;0.033939365;-0.94345105;0.2592812;;;;;;;;;;;;;;;
2000.0;1877.8;;;;0.036243442;-0.9408113;0.2577248;;;;;;;;;;;;;;;
2000.0;1877.8;;;;0.036918644;-0.93854535;0.25582507;;;;;;;;;;;;;;;
2000.0;1877.8;;;;0.03633881;-0.93664944;0.25497058;;;;;;;;;;;;;;;
2000.0;1877.8;;;;0.036754612;-0.934559;0.25561908;;;;;;;;;;;;;;;
2000.0;1879.3;;;;;;;;;;21.813105;-17.750328;11.074404;;;;;;;;;
2000.0;1879.3;;;;;;;-0.031983398;1.023896;0.40284434;;;;;;;;;;;;
2000.0;1879.3;;;;;;;;;;21.00055;-17.014069;11.425366;;;;;;;;;
2000.0;1879.3;;;;;;;-0.029725028;1.0148015;0.41181678;;;;;;;;;;;;
2000.0;1880.3;262143;262143;13702;;;;;;;;;;;;;;;;;;
2000.0;1886.4;;;;;;;;;;;;;5343;;;;;;;;
2000.0;1886.4;;;;;;;;;;;;;6866;;;;;;;;
2000.0;1886.4;;;;;;;;;;;;;4768;;;;;;;;
2000.0;1886.4;;;;;;;;;;;;;2257;;;;;;;;
2000.0;1886.4;;;;;;;;;;;;;1491;;;;;;;;
2000.0;1887.8;;;;0.037178043;-0.9338571;0.25633243;;;;;;;;;;;;;;;
2000.0;1887.8;;;;0.03658295;-0.9338304;0.2565575;;;;;;;;;;;;;;;
2000.0;1887.8;;;;0.035873417;-0.9353219;0.25647357;;;;;;;;;;;;;;;
2000.0;1887.8;;;;0.034729008;-0.936638;0.25567248;;;;;;;;;;;;;;;
2000.0;1887.8;;;;0.034564976;-0.9374734;0.2540665;;;;;;;;;;;;;;;
2000.0;1888.9;;;;;;;;;;20.100252;-16.571552;11.566515;;;;;;;;;
2000.0;1888.9;;;;;;;-0.026917325;1.0053407;0.41712698;;;;;;;;;;;;
2000.0;1888.9;;;;;;;;;;19.26481;-16.289255;11.692404;;;;;;;;;
2000.0;1888.9;;;;;;;-0.022461623;0.9988708;0.42121646;;;;;;;;;;;;
2003.0;1897.9;;;;0.034206394;-0.93774045;0.25109866;;;;;;;;;;;;;;;
2003.0;1897.9;;;;0.034133915;-0.93711483;0.24862674;;;;;;;;;;;;;;;
2003.0;1897.9;;;;0.033523563;-0.936638;0.2450333;;;;;;;;;;;;;;;
2003.0;1897.9;;;;0.03392792;-0.936268;0.24198154;;;;;;;;;;;;;;;
2003.0;1897.9;;;;0.034282688;-0.936165;0.2391167;;;;;;;;;;;;;;;
2003.0;1898.5;;;;;;;;;;18.436995;-16.010773;11.589404;;;;;;;;;
2003.0;1898.5;;;;;;;-0.01861629;0.99252295;0.42133853;;;;;;;;;;;;
2003.0;1898.5;;;;;;;;;;17.532883;-15.602588;11.364329;;;;;;;;;
2003.0;1898.5;;;;;;;-0.013061922;0.9897763;0.41981262;;;;;;;;;;;;
2003.0;1899.2;;;;;;;;;;;;;;;;;-6.3859982;1.9608142;-4.215369;;1792.3
2003.0;1899.2;;;;;;;;;;;;;;0.94619584;0.059450056;-0.32654804;;;;;1792.3
2003.0;1899.2;;;;;;;;;;;;;;;;;-5.3178506;2.2049623;-4.3946652;;1792.3
2003.0;1899.2;;;;;;;;;;;;;;0.9412519;0.05426191;-0.32837915;;;;;1792.3
2003.0;1899.2;;;;;;;;;;;;;;;;;-4.1238136;2.071444;-4.6006656;;1801.9
2003.0;1899.2;;;;;;;;;;;;;;0.9373455;0.055177465;-0.3374737;;;;;1801.9
2003.0;1899.2;;;;;;;;;;;;;;;;;-2.8382213;2.029481;-4.7418137;;1801.9
2003.0;1899.2;;;;;;;;;;;;;;0.931547;0.053590503;-0.3475448;;;;;1801.9
2003.0;1899.2;;;;;;;;;;;;;;;;;-1.4992218;2.1172216;-5.050813;;1811.4
2003.0;1899.2;;;;;;;;;;;;;;0.92501605;0.056154057;-0.35737175;;;;;1811.4
2003.0;1899.2;;;;;;;;;;;;;;;;;-0.07248146;2.2354808;-5.5352945;;1811.4
2003.0;1899.2;;;;;;;;;;;;;;0.9147618;0.06250191;-0.36268196;;;;;1811.4
2005.0;1900.0;;;;;;;;;;;;;;;;;1.0414442;2.3651845;-6.103702;;1821.0
2005.0;1900.0;;;;;;;;;;;;;;0.9047517;0.07318339;-0.36732078;;;;;1821.0
2005.0;1900.0;;;;;;;;;;;;;;;;;1.701407;2.45674;-6.645406;;1821.0
2005.0;1900.0;;;;;;;;;;;;;;0.89028597;0.088930935;-0.36671042;;;;;1821.0
2005.0;1900.0;;;;;;;;;;;;;;;;;2.0790737;2.277444;-7.1031833;;1830.7
2005.0;1900.0;;;;;;;;;;;;;;0.878811;0.10364086;-0.35999635;;;;;1830.7
2005.0;1900.0;;;;;;;;;;;;;;;;;2.2240365;1.9608142;-7.5228124;;1830.7
2005.0;1900.0;;;;;;;;;;;;;;0.8719138;0.122318186;-0.3452254;;;;;1830.7
2005.0;1900.0;;;;;;;;;;;;;;;;;2.0981476;1.3657033;-7.969146;;1840.3
2005.0;1900.0;;;;;;;;;;;;;;0.86983854;0.1439253;-0.32825708;;;;;1840.3
2005.0;1900.0;;;;;;;;;;;;;;;;;1.9417402;0.54551834;-8.358257;;1840.3
2005.0;1900.0;;;;;;;;;;;;;;0.8728294;0.16467787;-0.3180639;;;;;1840.3
2005.0;1900.5;262143;262143;13689;;;;;;;;;;;;;;;;;;
2005.0;1907.9;;;;0.03408051;-0.9362794;0.23601153;;;;;;;;;;;;;;;
2005.0;1907.9;;;;0.034790043;-0.93686306;0.2338753;;;;;;;;;;;;;;;
2005.0;1907.9;;;;0.034458164;-0.9381715;0.23241428;;;;;;;;;;;;;;;
2005.0;1907.9;;;;0.03452683;-0.938923;0.23062137;;;;;;;;;;;;;;;
2005.0;1907.9;;;;0.03475571;-0.94012463;0.22893909;;;;;;;;;;;;;;;
2005.0;1908.0;;;;;;;;;;16.7127;-15.163884;11.05533;;;;;;;;;
2005.0;1908.0;;;;;;;-0.009338664;0.98586994;0.41871396;;;;;;;;;;;;
2005.0;1908.0;;;;;;;;;;15.861996;-14.854885;10.647145;;;;;;;;;
2005.0;1908.0;;;;;;;-0.009033479;0.982696;0.41328165;;;;;;;;;;;;
2006.0;1917.5;;;;;;;;;;14.938811;-14.507736;10.0177;;;;;;;;;
2006.0;1917.5;;;;;;;-0.006591998;0.9771416;0.4107181;;;;;;;;;;;;
2006.0;1917.5;;;;;;;;;;14.01181;-14.43144;9.361553;;;;;;;;;
2006.0;1917.5;;;;;;;-0.0053102206;0.97286904;0.4062624;;;;;;;;;;;;
2006.0;1917.9;;;;0.034873966;-0.94197094;0.22805026;;;;;;;;;;;;;;;
2006.0;1917.9;;;;0.03346253;-0.94441617;0.22623447;;;;;;;;;;;;;;;
2006.0;1917.9;;;;0.03251267;-0.9465867;0.22462085;;;;;;;;;;;;;;;
2006.0;1917.9;;;;0.032371525;-0.94981396;0.22418597;;;;;;;;;;;;;;;
2006.0;1917.9;;;;0.032653812;-0.95315945;0.22368243;;;;;;;;;;;;;;;
2006.0;1920.6;262143;262143;13699;;;;;;;;;;;;;;;;;;
2006.0;1926.7;;;;;;;;;;;;;1411;;;;;;;;
2006.0;1926.7;;;;;;;;;;;;;1043;;;;;;;;
2006.0;1926.7;;;;;;;;;;;;;685;;;;;;;;
2006.0;1926.7;;;;;;;;;;;;;475;;;;;;;;
2006.0;1926.7;;;;;;;;;;;;;545;;;;;;;;
2006.0;1927.1;;;;;;;;;;13.103885;-14.397107;8.541368;;;;;;;;;
2006.0;1927.1;;;;;;;-0.0049439985;0.96511734;0.39893797;;;;;;;;;;;;
2006.0;1927.1;;;;;;;;;;12.161627;-14.530625;7.621998;;;;;;;;;
2006.0;1927.1;;;;;;;-0.0023194067;0.96316415;0.39442122;;;;;;;;;;;;
2006.0;1928.0;;;;0.03361893;-0.9564897;0.22381595;;;;;;;;;;;;;;;
2006.0;1928.0;;;;0.033912662;-0.95978177;0.22330096;;;;;;;;;;;;;;;
2006.0;1928.0;;;;0.034725193;-0.9637567;0.22352222;;;;;;;;;;;;;;;
2006.0;1928.0;;;;0.035854343;-0.96818554;0.22435;;;;;;;;;;;;;;;
2006.0;1928.0;;;;0.038063053;-0.9730989;0.22443393;;;;;;;;;;;;;;;
2008.0;1936.6;;;;;;;;;;11.207922;-14.62981;6.614887;;;;;;;;;
2008.0;1936.6;;;;;;;7.324442E-4;0.9582812;0.38587603;;;;;;;;;;;;
2008.0;1936.6;;;;;;;;;;10.364849;-14.618366;5.5887017;;;;;;;;;
2008.0;1936.6;;;;;;;0.003357036;0.95632803;0.37501144;;;;;;;;;;;;
2008.0;1938.0;;;;0.03728104;-0.9789239;0.22467425;;;;;;;;;;;;;;;
2008.0;1938.0;;;;0.03834534;-0.9842378;0.22563556;;;;;;;;;;;;;;;
2008.0;1938.0;;;;0.039329533;-0.9891778;0.22633365;;;;;;;;;;;;;;;
2008.0;1938.0;;;;0.03879166;-0.9936143;0.22601321;;;;;;;;;;;;;;;
2008.0;1938.0;;;;0.037967686;-0.9969255;0.22695544;;;;;;;;;;;;;;;
2008.0;1940.7;262143;262143;13698;;;;;;;;;;;;;;;;;;
2008.0;1946.2;;;;;;;;;;9.563738;-14.370403;4.5930357;;;;;;;;;
2008.0;1946.2;;;;;;;0.008423109;0.9538255;0.36707664;;;;;;;;;;;;
2008.0;1946.2;;;;;;;;;;8.762627;-14.007996;3.6584065;;;;;;;;;
2008.0;1946.2;;;;;;;0.012390515;0.9507126;0.35743278;;;;;;;;;;;;
2008.0;1948.1;;;;0.037063602;-0.99972546;0.22677997;;;;;;;;;;;;;;;
2008.0;1948.1;;;;0.037380222;-1.0011598;0.22739413;;;;;;;;;;;;;;;
2008.0;1948.1;;;;0.036994938;-1.0024644;0.22755054;;;;;;;;;;;;;;;
2008.0;1948.1;;;;0.03641129;-1.0028306;0.228138;;;;;;;;;;;;;;;
2008.0;1948.1;;;;0.035480503;-1.0019342;0.22817615;;;;;;;;;;;;;;;
2008.0;1955.9;;;;;;;;;;8.159886;-13.389997;2.845851;;;;;;;;;
2008.0;1955.9;;;;;;;0.012634663;0.9468673;0.3500473;;;;;;;;;;;;
2008.0;1955.9;;;;;;;;;;7.6067386;-12.615588;2.2583697;;;;;;;;;
2008.0;1955.9;;;;;;;0.01043733;0.9450362;0.34223455;;;;;;;;;;;;
2009.0;1958.2;;;;0.03481293;-1.0008622;0.22761539;;;;;;;;;;;;;;;
2009.0;1958.2;;;;0.032989506;-0.9993974;0.2262421;;;;;;;;;;;;;;;
2009.0;1958.2;;;;0.032283787;-0.99710095;0.22561267;;;;;;;;;;;;;;;
2009.0;1958.2;;;;0.030769352;-0.99398816;0.22373202;;;;;;;;;;;;;;;
2009.0;1958.2;;;;0.029125217;-0.9901849;0.22290042;;;;;;;;;;;;;;;
2009.0;1959.0;;;;;;;;;;;;;;;;;1.5717032;-0.38911098;-8.854182;;1849.9
2009.0;1959.0;;;;;;;;;;;;;;0.8777123;0.18213446;-0.31562242;;;;;1849.9
2009.0;1959.0;;;;;;;;;;;;;;;;;0.87740713;-1.4725181;-9.334849;;1849.9
2009.0;1959.0;;;;;;;;;;;;;;0.8822901;0.19953002;-0.31763664;;;;;1849.9
2009.0;1959.0;;;;;;;;;;;;;;;;;-0.35477766;-2.1858883;-9.727776;;1859.5
2009.0;1959.0;;;;;;;;;;;;;;0.8780786;0.21192053;-0.31531724;;;;;1859.5
2009.0;1959.0;;;;;;;;;;;;;;;;;-2.0332959;-3.0251474;-10.044404;;1859.5
2009.0;1959.0;;;;;;;;;;;;;;0.86861783;0.23108615;-0.31092256;;;;;1859.5
2009.0;1959.0;;;;;;;;;;;;;;;;;-4.1962953;-4.238258;-10.261848;;1869.1
2009.0;1959.0;;;;;;;;;;;;;;0.85744804;0.24085207;-0.30677205;;;;;1869.1
2009.0;1959.0;;;;;;;;;;;;;;;;;-6.6949983;-5.775628;-10.383923;;1869.1
2009.0;1959.0;;;;;;;;;;;;;;0.8516495;0.25519577;-0.30280465;;;;;1869.1
2010.0;1959.9;;;;;;;;;;;;;;;;;-9.445479;-7.530442;-10.479293;;1878.6
2010.0;1959.9;;;;;;;;;;;;;;0.8500015;0.26746422;-0.3009125;;;;;1878.6
2010.0;1959.9;;;;;;;;;;;;;;;;;-12.29133;-9.193701;-10.525071;;1878.6
2010.0;1959.9;;;;;;;;;;;;;;0.84859765;0.28058717;-0.30396435;;;;;1878.6
2010.0;1959.9;;;;;;;;;;;;;;;;;-15.0112915;-10.902738;-10.620441;;1888.2
2010.0;1959.9;;;;;;;;;;;;;;0.8487198;0.28736228;-0.3068331;;;;;1888.2
2010.0;1959.9;;;;;;;;;;;;;;;;;-17.58629;-12.405774;-10.608997;;1888.2
2010.0;1959.9;;;;;;;;;;;;;;0.85171056;0.28858304;-0.30957976;;;;;1888.2
2010.0;1959.9;;;;;;;;;;;;;;;;;-19.779808;-13.82107;-10.593738;;1897.7
2010.0;1959.9;;;;;;;;;;;;;;0.8577532;0.27924436;-0.3152562;;;;;1897.7
2010.0;1959.9;;;;;;;;;;;;;;;;;-20.79455;-14.7557;-10.471663;;1897.7
2010.0;1959.9;;;;;;;;;;;;;;0.8691061;0.2565386;-0.3284402;;;;;1897.7
2010.0;1960.8;262143;262143;13687;;;;;;;;;;;;;;;;;;
2010.0;1965.2;;;;;;;;;;7.1184425;-11.635181;1.8272958;;;;;;;;;
2010.0;1965.2;;;;;;;0.0075075533;0.9450362;0.3366802;;;;;;;;;;;;
2010.0;1965.2;;;;;;;;;;6.6949983;-10.742516;1.5182959;;;;;;;;;
2010.0;1965.2;;;;;;;9.765923E-4;0.94479203;0.3317362;;;;;;;;;;;;
2010.0;1966.7;;;;;;;;;;;;;688;;;;;;;;
2010.0;1966.7;;;;;;;;;;;;;565;;;;;;;;
2010.0;1966.7;;;;;;;;;;;;;295;;;;;;;;
2010.0;1966.7;;;;;;;;;;;;;59;;;;;;;;
2010.0;1966.7;;;;;;;;;;;;;-161;;;;;;;;
2011.0;1967.9;;;;0.026527409;-0.9860879;0.22112659;;;;;;;;;;;;;;;
2011.0;1967.9;;;;0.023780826;-0.98108685;0.2196007;;;;;;;;;;;;;;;
2011.0;1967.9;;;;0.020481111;-0.9761888;0.21833423;;;;;;;;;;;;;;;
2011.0;1967.9;;;;0.016544344;-0.97083294;0.21696475;;;;;;;;;;;;;;;
2011.0;1967.9;;;;0.011989595;-0.96572506;0.2154198;;;;;;;;;;;;;;;
2011.0;1974.6;;;;;;;;;;6.344035;-9.945219;1.4381847;;;;;;;;;
2011.0;1974.6;;;;;;;-0.0042115543;0.94698936;0.32898954;;;;;;;;;;;;
2011.0;1974.6;;;;;;;;;;5.920591;-9.281442;1.4343699;;;;;;;;;
2011.0;1974.6;;;;;;;-0.012634663;0.94949186;0.32618183;;;;;;;;;;;;
2011.0;1977.9;;;;0.006752015;-0.9607049;0.21392444;;;;;;;;;;;;;;;
2011.0;1977.9;;;;0.001350403;-0.95635235;0.21275333;;;;;;;;;;;;;;;
2011.0;1977.9;;;;-0.004318238;-0.9531251;0.21131518;;;;;;;;;;;;;;;
2011.0;1977.9;;;;-0.010116578;-0.950699;0.21000674;;;;;;;;;;;;;;;
2011.0;1977.9;;;;-0.015510561;-0.9495851;0.20917132;;;;;;;;;;;;;;;
2011.0;1980.8;262143;262143;13702;;;;;;;;;;;;;;;;;;
2011.0;1984.3;;;;;;;;;;5.5238504;-8.713035;1.6479995;;;;;;;;;
2011.0;1984.3;;;;;;;-0.02148503;0.94863737;0.3287454;;;;;;;;;;;;
2011.0;1984.3;;;;;;;;;;5.138554;-8.327739;1.9379253;;;;;;;;;
2011.0;1984.3;;;;;;;-0.026245918;0.9516892;0.33283487;;;;;;;;;;;;
2058.0;1988.0;;;;-0.020046236;-0.9493829;0.20776752;;;;;;;;;;;;;;;
2058.0;1988.0;;;;-0.024024967;-0.94983685;0.20600131;;;;;;;;;;;;;;;
2058.0;1988.0;;;;-0.026321415;-0.95056164;0.20460513;;;;;;;;;;;;;;;
2058.0;1988.0;;;;-0.027904514;-0.9519769;0.20215228;;;;;;;;;;;;;;;
2058.0;1988.0;;;;-0.02807236;-0.9536325;0.19974521;;;;;;;;;;;;;;;
2058.0;1993.4;;;;;;;;;;4.6540728;-7.869961;2.277444;;;;;;;;;
2058.0;1993.4;;;;;;;-0.028138066;0.94985807;0.33558154;;;;;;;;;;;;
2058.0;1993.4;;;;;;;;;;4.1123695;-7.3435163;2.7352216;;;;;;;;;
2058.0;1993.4;;;;;;;-0.036133915;0.9457686;0.33924374;;;;;;;;;;;;
2058.0;1997.4;;;;-0.027675632;-0.9551164;0.19817737;;;;;;;;;;;;;;;
2058.0;1997.4;;;;-0.026485447;-0.956051;0.19592288;;;;;;;;;;;;;;;
2058.0;1997.4;;;;-0.024818424;-0.9573289;0.19403079;;;;;;;;;;;;;;;
2058.0;1997.4;;;;-0.02339554;-0.9575883;0.19161227;;;;;;;;;;;;;;;
2058.0;1997.4;;;;-0.021427156;-0.9585649;0.19061282;;;;;;;;;;;;;;;
2058.0;2000.2;262143;262143;13699;;;;;;;;;;;;;;;;;;
2058.0;2002.7;;;;;;;;;;3.6202583;-7.0116277;3.1662953;;;;;;;;;
2058.0;2002.7;;;;;;;-0.037965026;0.9400311;0.34455398;;;;;;;;;;;;
2058.0;2002.7;;;;;;;;;;3.0861845;-6.6644797;3.711814;;;;;;;;;
2058.0;2002.7;;;;;;;-0.042786952;0.93655205;0.3491928;;;;;;;;;;;;
2058.0;2006.3;;;;;;;;;;;;;-460;;;;;;;;
2058.0;2006.3;;;;;;;;;;;;;-847;;;;;;;;
2058.0;2006.3;;;;;;;;;;;;;-1283;;;;;;;;
2058.0;2006.3;;;;;;;;;;;;;-1741;;;;;;;;
2058.0;2006.3;;;;;;;;;;;;;-2098;;;;;;;;
2061.0;2007.4;;;;-0.018650057;-0.95883954;0.18994907;;;;;;;;;;;;;;;
2061.0;2007.4;;;;-0.015838625;-0.9587823;0.18947986;;;;;;;;;;;;;;;
2061.0;2007.4;;;;-0.013832094;-0.95876706;0.1892586;;;;;;;;;;;;;;;
2061.0;2007.4;;;;-0.010799409;-0.95863354;0.18971637;;;;;;;;;;;;;;;
2061.0;2007.4;;;;-0.0077819834;-0.95832074;0.19111636;;;;;;;;;;;;;;;
2061.0;2012.3;;;;;;;;;;2.5559251;-6.469924;4.2878504;;;;;;;;;
2061.0;2012.3;;;;;;;-0.046754356;0.9311808;0.34962004;;;;;;;;;;;;
2061.0;2012.3;;;;;;;;;;1.9875181;-6.1151466;4.8257394;;;;;;;;;
2061.0;2012.3;;;;;;;-0.052369762;0.9276406;0.35230568;;;;;;;;;;;;
2061.0;2017.5;;;;-0.0043945317;-0.95772946;0.1923981;;;;;;;;;;;;;;;
2061.0;2017.5;;;;-0.0014495851;-0.9571229;0.19375232;;;;;;;;;;;;;;;
2061.0;2017.5;;;;0.0013351442;-0.9555589;0.19559482;;;;;;;;;;;;;;;
2061.0;2017.5;;;;0.0040473943;-0.9546548;0.19816211;;;;;;;;;;;;;;;
2061.0;2017.5;;;;0.008449555;-0.9532205;0.2008591;;;;;;;;;;;;;;;
2061.0;2020.5;262143;262143;13694;;;;;;;;;;;;;;;;;;
2061.0;2021.9;;;;;;;;;;1.4801477;-5.7298503;5.344554;;;;;;;;;
2061.0;2021.9;;;;;;;-0.05383465;0.9240394;0.35108495;;;;;;;;;;;;
2061.0;2021.9;;;;;;;;;;0.9727775;-5.237739;5.787072;;;;;;;;;
2061.0;2021.9;;;;;;;-0.0568865;0.92104864;0.35157323;;;;;;;;;;;;
2062.0;2027.6;;;;0.0076446543;-0.95227444;0.2031708;;;;;;;;;;;;;;;
2062.0;2027.6;;;;0.010063172;-0.9514047;0.20600513;;;;;;;;;;;;;;;
2062.0;2027.6;;;;0.013961794;-0.9502107;0.20810321;;;;;;;;;;;;;;;
2062.0;2027.6;;;;0.017330172;-0.94789135;0.21142581;;;;;;;;;;;;;;;
2062.0;2027.6;;;;0.019275667;-0.9456903;0.21348575;;;;;;;;;;;;;;;
2062.0;2031.5;;;;;;;;;;0.49592578;-4.7608876;6.214331;;;;;;;;;
2062.0;2031.5;;;;;;;-0.058473464;0.92104864;0.34913176;;;;;;;;;;;;
2062.0;2031.5;;;;;;;;;;0.04196295;-4.2840357;6.5347757;;;;;;;;;
2062.0;2031.5;;;;;;;-0.059511095;0.9225135;0.34797204;;;;;;;;;;;;
2062.0;2033.8;;;;;;;;;;;;;;;;;-19.676807;-15.205847;-10.2732935;;1907.4
2062.0;2033.8;;;;;;;;;;;;;;0.8882107;0.2156438;-0.33954895;;;;;1907.4
2062.0;2033.8;;;;;;;;;;;;;;;;;-16.895811;-14.957885;-10.090182;;1907.4
2062.0;2033.8;;;;;;;;;;;;;;0.9146397;0.16412854;-0.3524888;;;;;1907.4
2062.0;2033.8;;;;;;;;;;;;;;;;;-13.485367;-13.199256;-9.727776;;1917.0
2062.0;2033.8;;;;;;;;;;;;;;0.93972594;0.097170934;-0.35505235;;;;;1917.0
2062.0;2033.8;;;;;;;;;;;;;;;;;-9.235664;-10.628071;-9.876553;;1917.0
2062.0;2033.8;;;;;;;;;;;;;;0.9526048;0.0380871;-0.35212258;;;;;1917.0
2062.0;2033.8;;;;;;;;;;;;;;;;;-4.1848507;-8.548997;-9.952848;;1926.7
2062.0;2033.8;;;;;;;;;;;;;;0.9559007;-0.003295999;-0.3622547;;;;;1926.7
2062.0;2033.8;;;;;;;;;;;;;;;;;1.0986663;-6.65685;-10.101626;;1926.7
2062.0;2033.8;;;;;;;;;;;;;;0.9543138;-0.031617176;-0.37604907;;;;;1926.7
2063.0;2034.9;;;;;;;;;;;;;;;;;5.7031465;-4.9783316;-10.513627;;1936.2
2063.0;2034.9;;;;;;;;;;;;;;0.9518723;-0.03723258;-0.3864864;;;;;1936.2
2063.0;2034.9;;;;;;;;;;;;;;;;;9.174627;-3.3951843;-10.700553;;1936.2
2063.0;2034.9;;;;;;;;;;;;;;0.9491867;-0.018372143;-0.38526568;;;;;1936.2
2063.0;2034.9;;;;;;;;;;;;;;;;;11.0400715;-2.1820734;-10.34196;;1945.9
2063.0;2034.9;;;;;;;;;;;;;;0.94717246;0.010254219;-0.37421796;;;;;1945.9
2063.0;2034.9;;;;;;;;;;;;;;;;;12.092959;-1.5221107;-9.929959;;1945.9
2063.0;2034.9;;;;;;;;;;;;;;0.9518723;0.048280284;-0.36408582;;;;;1945.9
2063.0;2034.9;;;;;;;;;;;;;;;;;12.073886;-1.0528886;-9.32722;;1955.5
2063.0;2034.9;;;;;;;;;;;;;;0.95236063;0.08545183;-0.3541368;;;;;1955.5
2063.0;2034.9;;;;;;;;;;;;;;;;;11.341441;-0.27085176;-8.697775;;1955.5
2063.0;2034.9;;;;;;;;;;;;;;0.9456465;0.12079226;-0.33314005;;;;;1955.5
2063.0;2037.5;;;;0.021610262;-0.94355786;0.21548083;;;;;;;;;;;;;;;
2063.0;2037.5;;;;0.0235405;-0.9419366;0.21739963;;;;;;;;;;;;;;;
2063.0;2037.5;;;;0.026092533;-0.94044125;0.22050479;;;;;;;;;;;;;;;
2063.0;2037.5;;;;0.029750828;-0.9380418;0.22299579;;;;;;;;;;;;;;;
2063.0;2037.5;;;;0.03474808;-0.9351083;0.22546771;;;;;;;;;;;;;;;
2063.0;2040.9;;;;;;;;;;-0.35096285;-3.7385175;6.8361464;;;;;;;;;
2063.0;2040.9;;;;;;;-0.06085391;0.920072;0.3442488;;;;;;;;;;;;
2063.0;2040.9;;;;;;;;;;-0.73625904;-3.0480363;7.003998;;;;;;;;;
2063.0;2040.9;;;;;;;-0.059083834;0.9227576;0.34034243;;;;;;;;;;;;
2063.0;2040.5;262143;262143;13698;;;;;;;;;;;;;;;;;;
2180.0;2046.5;;;;;;;;;;;;;-2218;;;;;;;;
2180.0;2046.5;;;;;;;;;;;;;-2077;;;;;;;;
2180.0;2046.5;;;;;;;;;;;;;-1748;;;;;;;;
2180.0;2046.5;;;;;;;;;;;;;-1327;;;;;;;;
2180.0;2046.5;;;;;;;;;;;;;-893;;;;;;;;
2180.0;2047.5;;;;0.038494114;-0.9323846;0.22737888;;;;;;;;;;;;;;;
2180.0;2047.5;;;;0.043296818;-0.9290925;0.22955325;;;;;;;;;;;;;;;
2180.0;2047.5;;;;0.048065193;-0.92546093;0.23124698;;;;;;;;;;;;;;;
2180.0;2047.5;;;;0.053703316;-0.92159283;0.23339084;;;;;;;;;;;;;;;
2180.0;2047.5;;;;0.05944825;-0.91762936;0.23533252;;;;;;;;;;;;;;;
2180.0;2050.5;;;;;;;;;;-1.1139256;-2.1439252;7.019257;;;;;;;;;
2180.0;2050.5;;;;;;;-0.059877317;0.9236732;0.33674124;;;;;;;;;;;;
2180.0;2050.5;;;;;;;;;;-1.5221107;-1.1444441;7.038331;;;;;;;;;
2180.0;2050.5;;;;;;;-0.0601825;0.92428356;0.33167517;;;;;;;;;;;;
2180.0;2057.5;;;;0.0649643;-0.9131242;0.23700717;;;;;;;;;;;;;;;
2180.0;2057.5;;;;0.07027436;-0.9081689;0.23891833;;;;;;;;;;;;;;;
2180.0;2057.5;;;;0.07468415;-0.9031564;0.24028018;;;;;;;;;;;;;;;
2180.0;2057.5;;;;0.07860566;-0.8981744;0.24123386;;;;;;;;;;;;;;;
2180.0;2057.5;;;;0.08304215;-0.893551;0.24325565;;;;;;;;;;;;;;;
2180.0;2060.0;;;;;;;;;;-1.9112216;-0.14877774;6.8437757;;;;;;;;;
2180.0;2060.0;;;;;;;-0.06122013;0.92855614;0.32721946;;;;;;;;;;;;
2180.0;2060.0;;;;;;;;;;-2.189703;0.92699975;6.5805535;;;;;;;;;
2180.0;2060.0;;;;;;;-0.06280709;0.9335612;0.32361826;;;;;;;;;;;;
2180.0;2060.6;262143;262143;13694;;;;;;;;;;;;;;;;;;
2182.0;2067.6;;;;0.086025245;-0.8887788;0.244854;;;;;;;;;;;;;;;
2182.0;2067.6;;;;0.08977891;-0.8838502;0.24658588;;;;;;;;;;;;;;;
2182.0;2067.6;;;;0.092895515;-0.879738;0.24863055;;;;;;;;;;;;;;;
2182.0;2067.6;;;;0.0955887;-0.8756639;0.24947742;;;;;;;;;;;;;;;
2182.0;2067.6;;;;0.09820177;-0.8714982;0.25151446;;;;;;;;;;;;;;;
2182.0;2069.6;;;;;;;;;;-2.5482955;1.8349254;6.2715535;;;;;;;;;
2182.0;2069.6;;;;;;;-0.06500442;0.93923765;0.3209937;;;;;;;;;;;;
2182.0;2069.6;;;;;;;;;;-2.9374065;2.7199624;5.779443;;;;;;;;;
2182.0;2069.6;;;;;;;-0.06683554;0.9432661;0.31696525;;;;;;;;;;;;
2182.0;2077.7;;;;0.10043718;-0.86745465;0.2538338;;;;;;;;;;;;;;;
2182.0;2077.7;;;;0.102138534;-0.86421597;0.25522235;;;;;;;;;;;;;;;
2182.0;2077.7;;;;0.10427858;-0.8608247;0.2571793;;;;;;;;;;;;;;;
2182.0;2077.7;;;;0.10528566;-0.85723126;0.25955585;;;;;;;;;;;;;;;
2182.0;2077.7;;;;0.106964126;-0.8538972;0.26215366;;;;;;;;;;;;;;;
2186.0;2078.9;;;;;;;;;;;;;;;;;10.380108;0.45014802;-8.171331;;1965.1
2186.0;2078.9;;;;;;;;;;;;;;0.9340495;0.15045625;-0.31311992;;;;;1965.1
2186.0;2078.9;;;;;;;;;;;;;;;;;9.43022;0.59511095;-7.6792197;;1965.1
2186.0;2078.9;;;;;;;;;;;;;;0.9223304;0.17468795;-0.30408642;;;;;1965.1
2186.0;2078.9;;;;;;;;;;;;;;;;;8.613849;0.068666644;-7.099368;;1974.7
2186.0;2078.9;;;;;;;;;;;;;;0.9164098;0.1944029;-0.30018005;;;;;1974.7
2186.0;2078.9;;;;;;;;;;;;;;;;;7.9958496;-0.7019257;-6.4737387;;1974.7
2186.0;2078.9;;;;;;;;;;;;;;0.9040193;0.21131016;-0.30066836;;;;;1974.7
2186.0;2078.9;;;;;;;;;;;;;;;;;6.904813;-1.7242957;-5.8481092;;1984.3
2186.0;2078.9;;;;;;;;;;;;;;0.8916288;0.22907193;-0.30408642;;;;;1984.3
2186.0;2078.9;;;;;;;;;;;;;;;;;5.115665;-3.2616658;-5.142369;;1984.3
2186.0;2078.9;;;;;;;;;;;;;;0.8789331;0.24317148;-0.30927458;;;;;1984.3
2186.0;2079.1;;;;;;;;;;-3.276925;3.47911;5.142369;;;;;;;;;
2186.0;2079.1;;;;;;;-0.06640828;0.94863737;0.3140965;;;;;;;;;;;;
2186.0;2079.1;;;;;;;;;;-3.6355176;4.0475173;4.528184;;;;;;;;;
2186.0;2079.1;;;;;;;-0.06811731;0.9533372;0.31019014;;;;;;;;;;;;
2188.0;2079.7;;;;;;;;;;;;;;;;;2.4529252;-5.104221;-4.413739;;1993.9
2188.0;2079.7;;;;;;;;;;;;;;0.8713645;0.2496414;-0.3081149;;;;;1993.9
2188.0;2079.7;;;;;;;;;;;;;;;;;-0.9346294;-6.366924;-3.5554063;;1993.9
2188.0;2079.7;;;;;;;;;;;;;;0.86629844;0.24768822;-0.30573443;;;;;1993.9
2188.0;2079.7;;;;;;;;;;;;;;;;;-4.5739617;-7.530442;-2.7314067;;2003.5
2188.0;2079.7;;;;;;;;;;;;;;0.86391795;0.23633534;-0.3068331;;;;;2003.5
2188.0;2079.7;;;;;;;;;;;;;;;;;-7.763146;-7.927183;-2.2087772;;2003.5
2188.0;2079.7;;;;;;;;;;;;;;0.8691061;0.22425;-0.30085146;;;;;2003.5
2188.0;2079.7;;;;;;;;;;;;;;;;;-10.12833;-7.992035;-1.7242957;;2013.1
2188.0;2079.7;;;;;;;;;;;;;;0.8706931;0.20941801;-0.30036318;;;;;2013.1
2188.0;2079.7;;;;;;;;;;;;;;;;;-11.230811;-8.636738;-1.1291848;;2013.1
2188.0;2079.7;;;;;;;;;;;;;;0.88021487;0.19525743;-0.32453382;;;;;2013.1
2188.0;2080.6;262143;262143;13686;;;;;;;;;;;;;;;;;;
2188.0;2086.5;;;;;;;;;;;;;-482;;;;;;;;
2188.0;2086.5;;;;;;;;;;;;;-87;;;;;;;;
2188.0;2086.5;;;;;;;;;;;;;262;;;;;;;;
2188.0;2086.5;;;;;;;;;;;;;478;;;;;;;;
2188.0;2086.5;;;;;;;;;;;;;581;;;;;;;;
2188.0;2087.5;;;;0.10895158;-0.85079205;0.26506808;;;;;;;;;;;;;;;
2188.0;2087.5;;;;0.10989;-0.8471681;0.267952;;;;;;;;;;;;;;;
2188.0;2087.5;;;;0.11093141;-0.8451005;0.26984408;;;;;;;;;;;;;;;
2188.0;2087.5;;;;0.111267105;-0.8423463;0.272419;;;;;;;;;;;;;;;
2188.0;2087.5;;;;0.11129381;-0.83976376;0.27578357;;;;;;;;;;;;;;;
2189.0;2088.5;;;;;;;;;;-3.9216285;4.7418137;3.868221;;;;;;;;;
2189.0;2088.5;;;;;;;-0.07013153;0.95834225;0.30872524;;;;;;;;;;;;
2189.0;2088.5;;;;;;;;;;-4.3069243;5.203406;3.1624806;;;;;;;;;
2189.0;2088.5;;;;;;;-0.070558794;0.96426284;0.30475783;;;;;;;;;;;;
2189.0;2097.4;;;;0.11181261;-0.83750546;0.2785149;;;;;;;;;;;;;;;
2189.0;2097.4;;;;0.1118622;-0.8362886;0.2808533;;;;;;;;;;;;;;;
2189.0;2097.4;;;;0.11158754;-0.8355485;0.28296664;;;;;;;;;;;;;;;
2189.0;2097.4;;;;0.11141588;-0.8337594;0.28479007;;;;;;;;;;;;;;;
2189.0;2097.4;;;;0.110080734;-0.8326608;0.285862;;;;;;;;;;;;;;;
2189.0;2098.0;;;;;;;;;;-4.7227397;5.710776;2.3689995;;;;;;;;;
2189.0;2098.0;;;;;;;-0.07000946;0.9681082;0.30182806;;;;;;;;;;;;
2189.0;2098.0;;;;;;;;;;-5.062258;6.260109;1.5259255;;;;;;;;;
2189.0;2098.0;;;;;;;-0.07324442;0.97274697;0.29853207;;;;;;;;;;;;
2189.0;2100.6;262143;262143;13689;;;;;;;;;;;;;;;;;;
2189.0;2107.4;;;;0.10833742;-0.8320695;0.28709796;;;;;;;;;;;;;;;
2189.0;2107.4;;;;0.107280746;-0.8318368;0.2878342;;;;;;;;;;;;;;;
2189.0;2107.4;;;;0.10561754;-0.8319665;0.2878571;;;;;;;;;;;;;;;
2189.0;2107.4;;;;0.10434343;-0.83230984;0.28826907;;;;;;;;;;;;;;;
2189.0;2107.4;;;;0.102554336;-0.8330728;0.2878571;;;;;;;;;;;;;;;
2189.0;2107.5;;;;;;;;;;-5.489517;6.515702;0.5798517;;;;;;;;;
2189.0;2107.5;;;;;;;-0.071108125;0.9758599;0.29609057;;;;;;;;;;;;
2189.0;2107.5;;;;;;;;;;-5.8900723;6.8628497;-0.4158147;;;;;;;;;
2189.0;2107.5;;;;;;;-0.07043672;0.97811824;0.29358807;;;;;;;;;;;;
2192.0;2117.0;;;;;;;;;;-6.309702;7.0955534;-1.3771478;;;;;;;;;
2192.0;2117.0;;;;;;;-0.070986055;0.9800714;0.29114658;;;;;;;;;;;;
2192.0;2117.0;;;;;;;;;;-6.6911836;7.37022;-2.3499253;;;;;;;;;
2192.0;2117.0;;;;;;;-0.07147435;0.981109;0.28620258;;;;;;;;;;;;
2192.0;2117.4;;;;0.10056688;-0.83369076;0.28733447;;;;;;;;;;;;;;;
2192.0;2117.4;;;;0.09981538;-0.83350384;0.28660586;;;;;;;;;;;;;;;
2192.0;2117.4;;;;0.09880449;-0.83358395;0.28558353;;;;;;;;;;;;;;;
2192.0;2117.4;;;;0.09876634;-0.8334352;0.28470996;;;;;;;;;;;;;;;
2192.0;2117.4;;;;0.0993271;-0.8337213;0.28396228;;;;;;;;;;;;;;;
2192.0;2120.7;262143;262143;13699;;;;;;;;;;;;;;;;;;
2192.0;2126.6;;;;;;;;;;-7.099368;7.6029234;-3.4409618;;;;;;;;;
2192.0;2126.6;;;;;;;-0.07061983;0.98043764;0.28235725;;;;;;;;;;;;
2192.0;2126.6;;;;;;;;;;-7.4045534;8.018739;-4.5739617;;;;;;;;;
2192.0;2126.6;;;;;;;-0.07116917;0.98080385;0.28083134;;;;;;;;;;;;
2192.0;2126.7;;;;;;;;;;;;;636;;;;;;;;
2192.0;2126.7;;;;;;;;;;;;;663;;;;;;;;
2192.0;2126.7;;;;;;;;;;;;;643;;;;;;;;
2192.0;2126.7;;;;;;;;;;;;;616;;;;;;;;
2192.0;2126.7;;;;;;;;;;;;;591;;;;;;;;
2192.0;2127.6;;;;0.09940721;-0.8340684;0.28224567;;;;;;;;;;;;;;;
2192.0;2127.6;;;;0.099483505;-0.83446515;0.2805443;;;;;;;;;;;;;;;
2192.0;2127.6;;;;0.09947969;-0.8348962;0.2796326;;;;;;;;;;;;;;;
2192.0;2127.6;;;;0.09936525;-0.83597195;0.27803043;;;;;;;;;;;;;;;
2192.0;2127.6;;;;0.09940721;-0.83776104;0.2766228;;;;;;;;;;;;;;;
2194.0;2136.2;;;;;;;;;;-7.656331;8.445998;-5.672628;;;;;;;;;
2194.0;2136.2;;;;;;;-0.06964324;0.9818415;0.27582628;;;;;;;;;;;;
2194.0;2136.2;;;;;;;;;;-7.820368;8.857997;-6.6682944;;;;;;;;;
2194.0;2136.2;;;;;;;-0.070314646;0.9797052;0.2719199;;;;;;;;;;;;
2194.0;2137.6;;;;0.09831621;-0.83914196;0.2755318;;;;;;;;;;;;;;;
2194.0;2137.6;;;;0.0973282;-0.8419496;0.27539828;;;;;;;;;;;;;;;
2194.0;2137.6;;;;0.09638597;-0.8448411;0.27516177;;;;;;;;;;;;;;;
2194.0;2137.6;;;;0.094699875;-0.8482934;0.27491763;;;;;;;;;;;;;;;
2194.0;2137.6;;;;0.092845924;-0.8523103;0.27520373;;;;;;;;;;;;;;;
2194.0;2139.0;;;;;;;;;;;;;;;;;-11.307108;-8.896146;-0.29755548;;2022.7
2194.0;2139.0;;;;;;;;;;;;;;0.891934;0.17627491;-0.34736168;;;;;2022.7
2194.0;2139.0;;;;;;;;;;;;;;;;;-10.845515;-8.629108;0.57222205;;2022.7
2194.0;2139.0;;;;;;;;;;;;;;0.89907527;0.15442365;-0.354503;;;;;2022.7
2194.0;2139.0;;;;;;;;;;;;;;;;;-10.44496;-8.335368;1.1291848;;2032.4
2194.0;2139.0;;;;;;;;;;;;;;0.9088412;0.13556322;-0.3524888;;;;;2032.4
2194.0;2139.0;;;;;;;;;;;;;;;;;-9.987182;-7.953887;1.5297403;;2032.4
2194.0;2139.0;;;;;;;;;;;;;;0.9172033;0.123783074;-0.35340434;;;;;2032.4
2194.0;2139.0;;;;;;;;;;;;;;;;;-8.861812;-7.2443314;1.7853328;;2041.9
2194.0;2139.0;;;;;;;;;;;;;;0.92916656;0.10852382;-0.3503525;;;;;2041.9
2194.0;2139.0;;;;;;;;;;;;;;;;;-7.648701;-5.9930725;2.170629;;2041.9
2194.0;2139.0;;;;;;;;;;;;;;0.9425947;0.10065004;-0.34186834;;;;;2041.9
2195.0;2140.1;;;;;;;;;;;;;;;;;-7.023072;-4.0856657;2.967925;;2051.6
2195.0;2140.1;;;;;;;;;;;;;;0.9495529;0.08307138;-0.3317362;;;;;2051.6
2195.0;2140.1;;;;;;;;;;;;;;;;;-5.687887;-2.4643695;3.5477767;;2051.6
2195.0;2140.1;;;;;;;;;;;;;;0.9496139;0.0733665;-0.3228248;;;;;2051.6
2195.0;2140.1;;;;;;;;;;;;;;;;;-4.1047397;-1.5449996;4.234443;;2061.2
2195.0;2140.1;;;;;;;;;;;;;;0.9475387;0.05816828;-0.3225196;;;;;2061.2
2195.0;2140.1;;;;;;;;;;;;;;;;;-2.0867033;-0.9193701;4.4518876;;2061.2
2195.0;2140.1;;;;;;;;;;;;;;0.9452193;0.056825466;-0.31708732;;;;;2061.2
2195.0;2140.1;;;;;;;;;;;;;;;;;-0.79348123;-0.6179998;4.928739;;2070.8
2195.0;2140.1;;;;;;;;;;;;;;0.9342936;0.052369762;-0.31989503;;;;;2070.8
2195.0;2140.1;;;;;;;;;;;;;;;;;0.6637776;-0.5874813;4.993591;;2070.8
2195.0;2140.1;;;;;;;;;;;;;;0.92641985;0.06378368;-0.31592762;;;;;2070.8
2195.0;2140.7;262143;262143;13688;;;;;;;;;;;;;;;;;;
2195.0;2145.6;;;;;;;;;;-8.049257;9.266183;-7.6105533;;;;;;;;;
2195.0;2145.6;;;;;;;-0.07135227;0.982696;0.27130955;;;;;;;;;;;;
2195.0;2145.6;;;;;;;;;;-8.194221;9.693442;-8.545182;;;;;;;;;
2195.0;2145.6;;;;;;;-0.07184057;0.98751795;0.26837978;;;;;;;;;;;;
2195.0;2147.5;;;;0.09041596;-0.85666287;0.27578738;;;;;;;;;;;;;;;
2195.0;2147.5;;;;0.08790208;-0.8613359;0.27655032;;;;;;;;;;;;;;;
2195.0;2147.5;;;;0.08641816;-0.8669282;0.27805713;;;;;;;;;;;;;;;
2195.0;2147.5;;;;0.085025795;-0.87197125;0.2786179;;;;;;;;;;;;;;;
2195.0;2147.5;;;;0.08394242;-0.87723935;0.27954105;;;;;;;;;;;;;;;
2196.0;2153.9;;;;;;;;;;;;;;;;;1.7281106;-1.0223701;4.909665;;2080.5
2196.0;2153.9;;;;;;;;;;;;;;0.91421247;0.0623188;-0.31843013;;;;;2080.5
2196.0;2153.9;;;;;;;;;;;;;;;;;3.5325174;-1.9379253;4.055147;;2080.5
2196.0;2153.9;;;;;;;;;;;;;;0.9122593;0.07916501;-0.31965086;;;;;2080.5
2196.0;2153.9;;;;;;;;;;;;;;;;;5.3750725;-2.6284068;3.3379622;;2090.1
2196.0;2153.9;;;;;;;;;;;;;;0.91293067;0.08856472;-0.3211768;;;;;2090.1
2196.0;2153.9;;;;;;;;;;;;;;;;;6.95822;-2.666555;2.8534806;;2090.1
2196.0;2153.9;;;;;;;;;;;;;;0.9157384;0.10510575;-0.31958982;;;;;2090.1
2196.0;2153.9;;;;;;;;;;;;;;;;;8.587145;-2.1973326;2.9831843;;2099.7
2196.0;2153.9;;;;;;;;;;;;;;0.9185461;0.115543075;-0.31177709;;;;;2099.7
2196.0;2153.9;;;;;;;;;;;;;;;;;9.887997;-2.2278512;2.7733696;;2099.7
2196.0;2153.9;;;;;;;;;;;;;;0.9253212;0.12848292;-0.31666005;;;;;2099.7
2196.0;2155.0;;;;;;;;;;-8.205665;10.116886;-9.361553;;;;;;;;;
2196.0;2155.0;;;;;;;-0.07318339;0.99002045;0.2666097;;;;;;;;;;;;
2196.0;2155.0;;;;;;;;;;-8.316295;10.406812;-10.139774;;;;;;;;;
2196.0;2155.0;;;;;;;-0.075319685;0.99362165;0.26764733;;;;;;;;;;;;
2196.0;2157.4;;;;0.08277894;-0.8823701;0.28003314;;;;;;;;;;;;;;;
2196.0;2157.4;;;;0.081314094;-0.887684;0.28028873;;;;;;;;;;;;;;;
2196.0;2157.4;;;;0.0801735;-0.8922502;0.28118518;;;;;;;;;;;;;;;
2196.0;2157.4;;;;0.079525;-0.8971864;0.2832146;;;;;;;;;;;;;;;
2196.0;2157.4;;;;0.07902909;-0.9010812;0.28405002;;;;;;;;;;;;;;;
2196.0;2160.7;262143;262143;13699;;;;;;;;;;;;;;;;;;
2242.0;2164.6;;;;;;;;;;-8.396405;10.589923;-11.009553;;;;;;;;;
2242.0;2164.6;;;;;;;-0.07458724;0.9947813;0.26599932;;;;;;;;;;;;
2242.0;2164.6;;;;;;;;;;-8.495589;10.757775;-11.814478;;;;;;;;;
2242.0;2164.6;;;;;;;-0.07562487;0.99447614;0.26551104;;;;;;;;;;;;
2242.0;2166.7;;;;;;;;;;;;;502;;;;;;;;
2242.0;2166.7;;;;;;;;;;;;;340;;;;;;;;
2242.0;2166.7;;;;;;;;;;;;;216;;;;;;;;
2242.0;2166.7;;;;;;;;;;;;;184;;;;;;;;
2242.0;2166.7;;;;;;;;;;;;;204;;;;;;;;
2242.0;2167.5;;;;0.07827378;-0.90493405;0.28558353;;;;;;;;;;;;;;;
2242.0;2167.5;;;;0.07837678;-0.9086839;0.2876015;;;;;;;;;;;;;;;
2242.0;2167.5;;;;0.07840348;-0.9122964;0.2886162;;;;;;;;;;;;;;;
2242.0;2167.5;;;;0.0789528;-0.9159471;0.2898598;;;;;;;;;;;;;;;
2242.0;2167.5;;;;0.07857133;-0.91913617;0.29164508;;;;;;;;;;;;;;;
2242.0;2174.1;;;;;;;;;;-8.476516;10.914183;-12.531663;;;;;;;;;
2242.0;2174.1;;;;;;;-0.07739494;0.9949034;0.26483962;;;;;;;;;;;;
2242.0;2174.1;;;;;;;;;;-8.48033;11.112552;-13.237404;;;;;;;;;
2242.0;2174.1;;;;;;;-0.07885983;0.99417096;0.2624592;;;;;;;;;;;;
2242.0;2177.2;;;;0.07767106;-0.9224626;0.29238895;;;;;;;;;;;;;;;
2242.0;2177.2;;;;0.077026375;-0.92512906;0.29228213;;;;;;;;;;;;;;;
2242.0;2177.2;;;;0.075840004;-0.92839825;0.29394916;;;;;;;;;;;;;;;
2242.0;2177.2;;;;0.07414246;-0.93169034;0.29456332;;;;;;;;;;;;;;;
2242.0;2177.2;;;;0.072795875;-0.93489087;0.2955933;;;;;;;;;;;;;;;
2242.0;2180.5;262143;262143;13690;;;;;;;;;;;;;;;;;;
2243.0;2183.4;;;;;;;;;;-8.365887;11.310923;-13.843959;;;;;;;;;
2243.0;2183.4;;;;;;;-0.07892086;0.99301124;0.2602008;;;;;;;;;;;;
2243.0;2183.4;;;;;;;;;;-8.40022;11.455885;-14.339885;;;;;;;;;
2243.0;2183.4;;;;;;;-0.08069094;0.9931944;0.2583697;;;;;;;;;;;;
2243.0;2187.3;;;;0.07070542;-0.9385339;0.2967873;;;;;;;;;;;;;;;
2243.0;2187.3;;;;0.06869126;-0.9417535;0.29765323;;;;;;;;;;;;;;;
2243.0;2187.3;;;;0.06518937;-0.9449388;0.2968445;;;;;;;;;;;;;;;
2243.0;2187.3;;;;0.062366493;-0.9487001;0.29678348;;;;;;;;;;;;;;;
2243.0;2187.3;;;;0.06008912;-0.95344555;0.29832843;;;;;;;;;;;;;;;
2243.0;2193.0;;;;;;;;;;-8.117924;11.612293;-14.759515;;;;;;;;;
2243.0;2193.0;;;;;;;-0.081667535;0.99270606;0.25775933;;;;;;;;;;;;
2243.0;2193.0;;;;;;;;;;-7.740257;11.734367;-15.228736;;;;;;;;;
2243.0;2193.0;;;;;;;-0.08069094;0.99179053;0.2544023;;;;;;;;;;;;
2243.0;2197.4;;;;0.05769349;-0.95692456;0.29878238;;;;;;;;;;;;;;;
2243.0;2197.4;;;;0.0548668;-0.9606668;0.29856494;;;;;;;;;;;;;;;
2243.0;2197.4;;;;0.050464638;-0.96444714;0.29876712;;;;;;;;;;;;;;;
2243.0;2197.4;;;;0.046176914;-0.968361;0.29848483;;;;;;;;;;;;;;;
2243.0;2197.4;;;;0.043090824;-0.9728395;0.29758075;;;;;;;;;;;;;;;
2244.0;2198.8;;;;;;;;;;;;;;;;;10.971405;-1.5144811;2.4529252;;2109.3
2244.0;2198.8;;;;;;;;;;;;;;0.92996;0.14416943;-0.3218482;;;;;2109.3
2244.0;2198.8;;;;;;;;;;;;;;;;;11.349071;-0.46540728;2.113407;;2109.3
2244.0;2198.8;;;;;;;;;;;;;;0.9265419;0.15759759;-0.3147679;;;;;2109.3
2244.0;2198.8;;;;;;;;;;;;;;;;;11.196478;0.54551834;1.5678884;;2119.0
2244.0;2198.8;;;;;;;;;;;;;;0.921659;0.17181921;-0.30854213;;;;;2119.0
2244.0;2198.8;;;;;;;;;;;;;;;;;11.051516;1.0948515;1.0910367;;2119.0
2244.0;2198.8;;;;;;;;;;;;;;0.9146397;0.17987609;-0.30219427;;;;;2119.0
2244.0;2198.8;;;;;;;;;;;;;;;;;10.952331;1.6251106;0.59892577;;2128.7
2244.0;2198.8;;;;;;;;;;;;;;0.91042817;0.19269387;-0.28931546;;;;;2128.7
2244.0;2198.8;;;;;;;;;;;;;;;;;9.9147005;2.2278512;0.31662953;;2128.7
2244.0;2198.8;;;;;;;;;;;;;;0.9038972;0.20020142;-0.28223518;;;;;2128.7
2244.0;2200.7;262143;262143;13694;;;;;;;;;;;;;;;;;;
2244.0;2202.5;;;;;;;;;;-7.335887;11.864071;-15.583514;;;;;;;;;
2244.0;2202.5;;;;;;;-0.08294931;0.99288917;0.25458542;;;;;;;;;;;;
2244.0;2202.5;;;;;;;;;;-6.8361464;11.738182;-15.888699;;;;;;;;;
2244.0;2202.5;;;;;;;-0.0844142;0.99343854;0.2553789;;;;;;;;;;;;
2244.0;2206.6;;;;;;;;;;;;;102;;;;;;;;
2244.0;2206.6;;;;;;;;;;;;;-154;;;;;;;;
2244.0;2206.6;;;;;;;;;;;;;-343;;;;;;;;
2244.0;2206.6;;;;;;;;;;;;;-330;;;;;;;;
2244.0;2206.6;;;;;;;;;;;;;-300;;;;;;;;
2248.0;2207.3;;;;0.040225986;-0.976864;0.2968903;;;;;;;;;;;;;;;
2248.0;2207.3;;;;0.03815079;-0.97962964;0.2963715;;;;;;;;;;;;;;;
2248.0;2207.3;;;;0.035507206;-0.9815866;0.29569247;;;;;;;;;;;;;;;
2248.0;2207.3;;;;0.032592777;-0.98275006;0.29485324;;;;;;;;;;;;;;;
2248.0;2207.3;;;;0.02977753;-0.983307;0.29322055;;;;;;;;;;;;;;;
2248.0;2212.1;;;;;;;;;;-6.3974423;11.440626;-16.098515;;;;;;;;;
2248.0;2212.1;;;;;;;-0.088137455;0.9911191;0.25678274;;;;;;;;;;;;
2248.0;2212.1;;;;;;;;;;-5.8023314;11.066774;-16.270182;;;;;;;;;
2248.0;2212.1;;;;;;;-0.089602344;0.9906308;0.25818658;;;;;;;;;;;;
2248.0;2217.3;;;;0.026557926;-0.98329556;0.29173663;;;;;;;;;;;;;;;
2248.0;2217.3;;;;0.024097446;-0.98289883;0.29044726;;;;;;;;;;;;;;;
2248.0;2217.3;;;;0.021656038;-0.9816247;0.2893143;;;;;;;;;;;;;;;
2248.0;2217.3;;;;0.019832613;-0.9802247;0.2876816;;;;;;;;;;;;;;;
2248.0;2217.3;;;;0.017097475;-0.9785119;0.28623584;;;;;;;;;;;;;;;
2248.0;2220.8;262143;262143;13689;;;;;;;;;;;;;;;;;;
2248.0;2221.7;;;;;;;;;;-5.279702;10.513627;-16.369366;;;;;;;;;
2248.0;2221.7;;;;;;;-0.08807642;0.9901425;0.26178777;;;;;;;;;;;;
2248.0;2221.7;;;;;;;;;;-4.7418137;9.720146;-16.548662;;;;;;;;;
2248.0;2221.7;;;;;;;-0.08807642;0.98947114;0.26612142;;;;;;;;;;;;
2300.0;2227.3;;;;0.014888765;-0.97709286;0.28546146;;;;;;;;;;;;;;;
2300.0;2227.3;;;;0.011493684;-0.9758302;0.28507236;;;;;;;;;;;;;;;
2300.0;2227.3;;;;0.0071868906;-0.97543347;0.2835808;;;;;;;;;;;;;;;
2300.0;2227.3;;;;0.004150391;-0.97537243;0.28242114;;;;;;;;;;;;;;;
2300.0;2227.3;;;;0.0015602114;-0.97571194;0.28086856;;;;;;;;;;;;;;;
2300.0;2231.0;;;;;;;;;;-4.215369;8.873257;-16.7127;;;;;;;;;
2300.0;2231.0;;;;;;;-0.088015385;0.990997;0.2707602;;;;;;;;;;;;
2300.0;2231.0;;;;;;;;;;-3.7003694;7.965331;-16.754663;;;;;;;;;
2300.0;2231.0;;;;;;;-0.08636738;0.9911801;0.27448347;;;;;;;;;;;;
2300.0;2237.2;;;;0.0013809205;-0.9762536;0.28208926;;;;;;;;;;;;;;;
2300.0;2237.2;;;;-5.340577E-4;-0.9764062;0.28293613;;;;;;;;;;;;;;;
2300.0;2237.2;;;;-0.0068702707;-0.9766351;0.27928928;;;;;;;;;;;;;;;
2300.0;2237.2;;;;-0.009876252;-0.97786343;0.27523044;;;;;;;;;;;;;;;
2300.0;2237.2;;;;-0.01306534;-0.9785272;0.2709656;;;;;;;;;;;;;;;
2300.0;2240.5;;;;;;;;;;-3.1701102;6.8857384;-16.651663;;;;;;;;;
2300.0;2240.5;;;;;;;-0.08581805;0.98904383;0.27985474;;;;;;;;;;;;
2300.0;2240.5;;;;;;;;;;-2.7619252;5.760369;-16.556292;;;;;;;;;
2300.0;2240.5;;;;;;;-0.08630635;0.98709065;0.28357798;;;;;;;;;;;;
2300.0;2240.7;262143;262143;13685;;;;;;;;;;;;;;;;;;
2300.0;2246.6;;;;;;;;;;;;;-465;;;;;;;;
2300.0;2246.6;;;;;;;;;;;;;-779;;;;;;;;
2300.0;2246.6;;;;;;;;;;;;;-1037;;;;;;;;
2300.0;2246.6;;;;;;;;;;;;;-1110;;;;;;;;
2300.0;2246.6;;;;;;;;;;;;;-1107;;;;;;;;
2305.0;2247.3;;;;-0.0154533405;-0.979828;0.26849368;;;;;;;;;;;;;;;
2305.0;2247.3;;;;-0.015594484;-0.98064435;0.26788333;;;;;;;;;;;;;;;
2305.0;2247.3;;;;-0.014408113;-0.9810029;0.26757434;;;;;;;;;;;;;;;
2305.0;2247.3;;;;-0.014625551;-0.9813081;0.26752093;;;;;;;;;;;;;;;
2305.0;2247.3;;;;-0.013927462;-0.9818803;0.26713946;;;;;;;;;;;;;;;
2305.0;2250.1;;;;;;;;;;-2.2965178;4.615925;-16.38081;;;;;;;;;
2305.0;2250.1;;;;;;;-0.084902495;0.9838557;0.2898648;;;;;;;;;;;;
2305.0;2250.1;;;;;;;;;;-1.8158513;3.3646657;-16.140476;;;;;;;;;
2305.0;2250.1;;;;;;;-0.08459731;0.981109;0.29322183;;;;;;;;;;;;
2305.0;2257.4;;;;-0.012290956;-0.9815637;0.26662067;;;;;;;;;;;;;;;
2305.0;2257.4;;;;-0.011955263;-0.9814874;0.26663592;;;;;;;;;;;;;;;
2305.0;2257.4;;;;-0.012554171;-0.98123944;0.26616672;;;;;;;;;;;;;;;
2305.0;2257.4;;;;-0.013442995;-0.98129666;0.26534274;;;;;;;;;;;;;;;
2305.0;2257.4;;;;-0.015060427;-0.9815713;0.26475528;;;;;;;;;;;;;;;
2306.0;2259.0;;;;;;;;;;;;;;;;;9.262368;2.8763695;0.29374066;;2138.4
2306.0;2259.0;;;;;;;;;;;;;;0.8946196;0.20746483;-0.27564317;;;;;2138.4
2306.0;2259.0;;;;;;;;;;;;;;;;;8.159886;2.273629;0.12970367;;2138.4
2306.0;2259.0;;;;;;;;;;;;;;0.89059114;0.21625416;-0.2878506;;;;;2138.4
2306.0;2259.0;;;;;;;;;;;;;;;;;6.9544053;1.7357402;0.24033326;;2147.9
2306.0;2259.0;;;;;;;;;;;;;;0.88497573;0.22174749;-0.30555132;;;;;2147.9
2306.0;2259.0;;;;;;;;;;;;;;;;;6.0541096;0.8507035;0.5264443;;2147.9
2306.0;2259.0;;;;;;;;;;;;;;0.87740713;0.22363964;-0.32618183;;;;;2147.9
2306.0;2259.0;;;;;;;;;;;;;;;;;5.493332;-0.32044435;0.8735923;;2157.6
2306.0;2259.0;;;;;;;;;;;;;;0.86629844;0.22650838;-0.34333324;;;;;2157.6
2306.0;2259.0;;;;;;;;;;;;;;;;;5.0012207;-1.7700735;1.1177404;;2157.6
2306.0;2259.0;;;;;;;;;;;;;;0.85348064;0.23224586;-0.36115605;;;;;2157.6
2306.0;2259.8;;;;;;;;;;;;;;;;;4.3717766;-3.3074436;1.209296;;2167.1
2306.0;2259.8;;;;;;;;;;;;;;0.8435316;0.23999757;-0.3725089;;;;;2167.1
2306.0;2259.8;;;;;;;;;;;;;;;;;3.8300729;-4.8677025;1.3657033;;2167.1
2306.0;2259.8;;;;;;;;;;;;;;0.83870965;0.24933623;-0.37781915;;;;;2167.1
2306.0;2259.8;;;;;;;;;;;;;;;;;3.055666;-6.164739;1.5030366;;2176.7
2306.0;2259.8;;;;;;;;;;;;;;0.8384045;0.25220495;-0.38306832;;;;;2176.7
2306.0;2259.8;;;;;;;;;;;;;;;;;2.1362956;-6.75985;1.8272958;;2176.7
2306.0;2259.8;;;;;;;;;;;;;;0.8413343;0.25086215;-0.38093203;;;;;2176.7
2306.0;2259.8;;;;;;;;;;;;;;;;;1.2932218;-6.9009976;2.1782587;;2186.2
2306.0;2259.8;;;;;;;;;;;;;;0.8465834;0.24933623;-0.37604907;;;;;2186.2
2306.0;2259.8;;;;;;;;;;;;;;;;;0.51499987;-6.76748;2.5521104;;2186.2
2306.0;2259.8;;;;;;;;;;;;;;0.8529313;0.24665059;-0.3695181;;;;;2186.2
2307.0;2259.6;;;;;;;;;;-1.3351848;2.170629;-15.812403;;;;;;;;;
2307.0;2259.6;;;;;;;-0.08429212;0.97555465;0.2981048;;;;;;;;;;;;
2307.0;2259.6;;;;;;;;;;-1.003296;0.93081456;-15.495773;;;;;;;;;
2307.0;2259.6;;;;;;;-0.08319346;0.97183144;0.29999694;;;;;;;;;;;;
2307.0;2260.8;262143;262143;13701;;;;;;;;;;;;;;;;;;
2307.0;2266.8;;;;;;;;;;;;;;;;;-0.11825922;-6.55385;3.1090732;;2195.9
