patientId;holterMac;flexMac;;;;;;;;;;;;;;;;;;;;
;CA:F3:0B:1E:33:78;D3:4A:5C:52:80:78;;;;;;;;;;;;;;;;;;;;
receivedTimeStamp;timeStamp;red;ir;green;adxl_accX;adxl_accY;adxl_accZ;lsm_accelX;lsm_accelY;lsm_accelZ;lsm_gyroX;lsm_gyroY;lsm_gyroZ;ecg;flex_lsm_accelX;flex_lsm_accelY;flex_lsm_accelZ;flex_lsm_gyroX;flex_lsm_gyroY;flex_lsm_gyroZ;flex_cmd;flexTimeStamp
308.0;213.4;;;;;;;;;;;;;;;;;;;;17;0.1
308.0;213.4;;;;;;;;;;;;;;;;;13.580737;1.9074068;1.0567034;;127.5
308.0;213.4;;;;;;;;;;;;;;0.47047335;-0.6772668;-0.26715904;;;;;127.5
308.0;213.4;;;;;;;;;;;;;;;;;-7.312998;-17.18955;-7.141331;;127.5
308.0;213.4;;;;;;;;;;;;;;0.46626177;-0.7033906;-0.2694174;;;;;127.5
308.0;213.4;;;;;;;;;;;;;;;;;-67.09876;-84.353165;-56.825466;;137.0
308.0;213.4;;;;;;;;;;;;;;0.4448378;-0.7141942;-0.26441237;;;;;137.0
308.0;213.4;;;;;;;;;;;;;;;;;-122.84081;-124.988556;-116.80959;;137.0
308.0;213.4;;;;;;;;;;;;;;0.4227424;-0.72688985;-0.25501266;;;;;137.0
372.0;214.2;;;;;;;;;;;;;;;;;-68.7086;-124.80926;-55.79928;;146.6
372.0;214.2;;;;;;;;;;;;;;0.40821558;-0.7396466;-0.25946838;;;;;146.6
372.0;214.2;;;;;;;;;;;;;;;;;-17.818995;-124.42015;23.079622;;146.6
372.0;214.2;;;;;;;;;;;;;;0.39649647;-0.75246435;-0.2700278;;;;;146.6
372.0;214.2;;;;;;;;;;;;;;;;;-29.48088;-95.38942;43.912323;;156.3
372.0;214.2;;;;;;;;;;;;;;0.38935515;-0.7693106;-0.2727134;;;;;156.3
372.0;214.2;;;;;;;;;;;;;;;;;-39.708393;-6.9429607;72.50435;;156.3
372.0;214.2;;;;;;;;;;;;;;0.38923308;-0.78756064;-0.27143162;;;;;156.3
372.0;214.2;;;;;;;;;;;;;;;;;-40.65447;-4.20774;72.52724;;165.9
372.0;214.2;;;;;;;;;;;;;;0.39033175;-0.80599385;-0.26306954;;;;;165.9
372.0;214.2;;;;;;;;;;;;;;;;;-39.780876;-9.006775;70.78768;;165.9
372.0;214.2;;;;;;;;;;;;;;0.39216286;-0.8219245;-0.25495163;;;;;165.9
372.0;273.5;;;;;;;;;;;;;;;;;-38.140507;-13.874477;69.71572;;175.6
372.0;273.5;;;;;;;;;;;;;;0.37366864;-0.8361461;-0.23975341;;;;;175.6
372.0;273.5;;;;;;;;;;;;;;;;;-37.1601;-18.360699;68.53694;;175.6
372.0;273.5;;;;;;;;;;;;;;0.36237678;-0.84865874;-0.23364972;;;;;175.6
372.0;273.5;;;;;;;;;;;;;;;;;-37.396618;-21.61855;67.59469;;185.3
372.0;273.5;;;;;;;;;;;;;;0.35273293;-0.85549486;-0.23212378;;;;;185.3
372.0;273.5;;;;;;;;;;;;;;;;;-38.251137;-24.307993;67.60613;;185.3
372.0;273.5;;;;;;;;;;;;;;0.34894863;-0.8698996;-0.23651844;;;;;185.3
372.0;273.5;;;;;;;;;;;;;;;;;-39.368877;-26.257362;67.754906;;194.8
372.0;273.5;;;;;;;;;;;;;;0.35627308;-0.8742943;-0.24481948;;;;;194.8
372.0;273.5;;;;;;;;;;;;;;;;;-40.50569;-27.298807;68.60179;;194.8
372.0;273.5;;;;;;;;;;;;;;0.3524888;-0.88015383;-0.24347667;;;;;194.8
434.0;274.3;;;;;;;;;;;;;;;;;-41.459396;-27.93588;69.79583;;204.6
434.0;274.3;;;;;;;;;;;;;;0.35065767;-0.8894314;-0.23755608;;;;;204.6
434.0;274.3;;;;;;;;;;;;;;;;;-41.829433;-28.012177;70.89831;;204.6
434.0;274.3;;;;;;;;;;;;;;0.36445203;-0.8946806;-0.23865475;;;;;204.6
434.0;274.3;;;;;;;;;;;;;;;;;-40.597248;-27.088993;72.66839;;214.2
434.0;274.3;;;;;;;;;;;;;;0.3588977;-0.9023713;-0.22229682;;;;;214.2
434.0;274.3;;;;;;;;;;;;;;;;;-39.517654;-25.704214;73.27494;;214.2
434.0;274.3;;;;;;;;;;;;;;0.36677146;-0.89565724;-0.21521653;;;;;214.2
434.0;274.3;;;;;;;;;;;;;;;;;-38.968323;-23.468735;73.62972;;223.9
434.0;274.3;;;;;;;;;;;;;;0.37226477;-0.8979156;-0.20966215;;;;;223.9
434.0;274.3;;;;;;;;;;;;;;;;;-38.30836;-20.783106;73.22535;;223.9
434.0;274.3;;;;;;;;;;;;;;0.38770714;-0.90017396;-0.21027254;;;;;223.9
434.0;341.7;;;;;;;;;;;;;;;;;-37.32414;-18.143253;71.29505;;233.5
434.0;341.7;;;;;;;;;;;;;;0.42200994;-0.87118137;-0.2125309;;;;;233.5
434.0;341.7;;;;;;;;;;;;;;;;;-37.1601;-15.14481;69.88738;;233.5
434.0;341.7;;;;;;;;;;;;;;0.44380015;-0.8622089;-0.21497238;;;;;233.5
434.0;341.7;;;;;;;;;;;;;;;;;-37.35847;-12.29133;67.583244;;243.1
434.0;341.7;;;;;;;;;;;;;;0.46736047;-0.8537858;-0.22321238;;;;;243.1
434.0;341.7;;;;;;;;;;;;;;;;;-37.69036;-9.434034;64.645836;;243.1
434.0;341.7;;;;;;;;;;;;;;0.4949492;-0.83602405;-0.23450422;;;;;243.1
434.0;341.7;;;;;;;;;;;;;;;;;-38.083286;-7.0574055;61.952576;;252.6
434.0;341.7;;;;;;;;;;;;;;0.52162236;-0.8264412;-0.2499466;;;;;252.6
434.0;341.7;;;;;;;;;;;;;;;;;-38.8081;-5.077517;59.42717;;252.6
434.0;341.7;;;;;;;;;;;;;;0.5553148;-0.8102054;-0.26075014;;;;;252.6
552.0;342.4;;;;;;;;;;;;;;;;;-39.685505;-3.5592213;57.222206;;262.2
552.0;342.4;;;;;;;;;;;;;;0.5784478;-0.8111209;-0.27277443;;;;;262.2
552.0;342.4;;;;;;;;;;;;;;;;;-40.501877;-2.6703696;54.75402;;262.2
552.0;342.4;;;;;;;;;;;;;;0.61293375;-0.7977538;-0.2870571;;;;;262.2
552.0;342.4;;;;;;;;;;;;;;;;;-40.864285;-2.4605548;53.12128;;271.9
552.0;342.4;;;;;;;;;;;;;;0.63637197;-0.799707;-0.3043306;;;;;271.9
552.0;342.4;;;;;;;;;;;;;;;;;-40.21195;-2.517777;52.159946;;271.9
552.0;342.4;;;;;;;;;;;;;;0.64442885;-0.80288094;-0.31672108;;;;;271.9
552.0;342.4;;;;;;;;;;;;;;;;;-38.247322;-2.006592;51.469467;;281.6
552.0;342.4;;;;;;;;;;;;;;0.64082766;-0.8054445;-0.32013917;;;;;281.6
552.0;342.4;;;;;;;;;;;;;;;;;-35.565506;-0.59129614;51.3245;;281.6
552.0;342.4;;;;;;;;;;;;;;0.6302683;-0.8107547;-0.3170263;;;;;281.6
552.0;455.0;;;;;;;;;;;;;;;;;-32.513657;1.6403699;51.576283;;291.2
552.0;455.0;;;;;;;;;;;;;;0.59096044;-0.817774;-0.2981048;;;;;291.2
552.0;455.0;;;;;;;;;;;;;;;;;-31.20136;4.0704064;51.923428;;291.2
552.0;455.0;;;;;;;;;;;;;;0.5429853;-0.8215583;-0.27729118;;;;;291.2
552.0;455.0;;;;;;;;;;;;;;;;;-32.082584;6.3173313;51.98828;;300.9
552.0;455.0;;;;;;;;;;;;;;0.47871333;-0.83516955;-0.25995666;;;;;300.9
552.0;455.0;;;;;;;;;;;;;;;;;-34.176914;8.507034;51.812798;;300.9
552.0;455.0;;;;;;;;;;;;;;0.4306772;-0.8453627;-0.24555193;;;;;300.9
552.0;455.0;;;;;;;;;;;;;;;;;-36.84347;10.498367;51.862392;;310.4
552.0;455.0;;;;;;;;;;;;;;0.38380077;-0.86092716;-0.24427015;;;;;310.4
552.0;455.0;;;;;;;;;;;;;;;;;-39.574875;12.424848;51.95395;;310.4
552.0;455.0;;;;;;;;;;;;;;0.3368633;-0.8827174;-0.24146245;;;;;310.4
558.0;455.8;;;;;;;;;;;;;;;;;-42.48558;13.523515;51.82806;;320.1
558.0;455.8;;;;;;;;;;;;;;0.30738243;-0.90524;-0.24884793;;;;;320.1
558.0;455.8;;;;;;;;;;;;;;;;;-44.480724;14.278848;51.763206;;320.1
558.0;455.8;;;;;;;;;;;;;;0.29212317;-0.92916656;-0.25611132;;;;;320.1
558.0;455.8;;;;;;;;;;;;;;;;;-45.106358;14.332255;51.549576;;329.8
558.0;455.8;;;;;;;;;;;;;;0.28962067;-0.9603565;-0.26075014;;;;;329.8
558.0;455.8;;;;;;;;;;;;;;;;;-44.660023;13.840144;51.278725;;329.8
558.0;455.8;;;;;;;;;;;;;;0.286874;-0.98409986;-0.26178777;;;;;329.8
558.0;455.8;;;;;;;;;;;;;;;;;-43.034916;12.401958;50.98117;;339.5
558.0;455.8;;;;;;;;;;;;;;0.2959685;-1.0109562;-0.25855282;;;;;339.5
558.0;455.8;;;;;;;;;;;;;;;;;-40.772728;10.24659;50.424206;;339.5
558.0;455.8;;;;;;;;;;;;;;0.31714836;-1.0346996;-0.2586749;;;;;339.5
558.0;456.6;;;;;;;;;;;;;;;;;-38.296917;7.351146;49.53154;;349.1
558.0;456.6;;;;;;;;;;;;;;0.3238014;-1.0616779;-0.24634542;;;;;349.1
558.0;456.6;;;;;;;;;;;;;;;;;-35.668507;3.3074436;48.12769;;349.1
558.0;456.6;;;;;;;;;;;;;;0.35364848;-1.0773644;-0.23902097;;;;;349.1
558.0;456.6;;;;;;;;;;;;;;;;;-31.735435;-0.74007386;46.95273;;358.8
558.0;456.6;;;;;;;;;;;;;;0.35657826;-1.0937834;-0.22186956;;;;;358.8
558.0;456.6;;;;;;;;;;;;;;;;;-26.799067;-5.4208503;45.86932;;358.8
558.0;456.6;;;;;;;;;;;;;;0.3798944;-1.091586;-0.19263284;;;;;358.8
558.0;456.6;;;;;;;;;;;;;;;;;-21.588032;-10.673849;44.45402;;368.4
558.0;456.6;;;;;;;;;;;;;;0.39112523;-1.0858486;-0.17267373;;;;;368.4
558.0;456.6;;;;;;;;;;;;;;;;;-15.263069;-16.621143;42.42836;;368.4
558.0;456.6;;;;;;;;;;;;;;0.39545885;-1.0659505;-0.14447463;;;;;368.4
615.0;457.7;;;;;;;;;;;;;;;;;-9.243294;-23.659475;40.444653;;378.0
615.0;457.7;;;;;;;;;;;;;;0.4104129;-1.0446485;-0.12799463;;;;;378.0
615.0;457.7;;;;;;;;;;;;;;;;;-2.906888;-30.327768;38.7051;;378.0
615.0;457.7;;;;;;;;;;;;;;0.42335278;-1.0224311;-0.11499374;;;;;378.0
615.0;457.7;;;;;;;;;;;;;;;;;2.4262216;-36.481064;36.29032;;387.7
615.0;457.7;;;;;;;;;;;;;;0.46491897;-0.9931333;-0.12213507;;;;;387.7
615.0;457.7;;;;;;;;;;;;;;;;;6.8895535;-41.08173;34.161655;;387.7
615.0;457.7;;;;;;;;;;;;;;0.48860133;-0.9809259;-0.13879818;;;;;387.7
615.0;457.7;;;;;;;;;;;;;;;;;10.711997;-43.8818;32.113102;;397.4
615.0;457.7;;;;;;;;;;;;;;0.5349895;-0.964507;-0.16260262;;;;;397.4
615.0;457.7;;;;;;;;;;;;;;;;;14.076662;-44.415874;29.927214;;397.4
615.0;457.7;;;;;;;;;;;;;;0.57887506;-0.94479203;-0.18836024;;;;;397.4
615.0;522.7;;;;;;;;;;;;;;;;;16.067995;-42.92047;27.108067;;406.9
615.0;522.7;;;;;;;;;;;;;;0.62215036;-0.91848505;-0.21539964;;;;;406.9
615.0;522.7;;;;;;;;;;;;;;;;;17.26966;-39.89532;24.68566;;406.9
615.0;522.7;;;;;;;;;;;;;;0.6753746;-0.8814966;-0.25305948;;;;;406.9
615.0;522.7;;;;;;;;;;;;;;;;;17.563402;-35.580765;21.931364;;416.6
615.0;522.7;;;;;;;;;;;;;;0.7118747;-0.85909605;-0.28186896;;;;;416.6
615.0;522.7;;;;;;;;;;;;;;;;;17.193365;-29.683065;18.684958;;416.6
615.0;522.7;;;;;;;;;;;;;;0.76491594;-0.82741785;-0.30976287;;;;;416.6
615.0;522.7;;;;;;;;;;;;;;;;;17.365032;-23.388622;16.224403;;426.3
615.0;522.7;;;;;;;;;;;;;;0.8026368;-0.80636007;-0.3192236;;;;;426.3
615.0;522.7;;;;;;;;;;;;;;;;;17.612995;-17.391735;13.473923;;426.3
615.0;522.7;;;;;;;;;;;;;;0.8534196;-0.76741844;-0.32374036;;;;;426.3
674.0;523.5;;;;;;;;;;;;;;;;;18.158514;-11.825923;11.429182;;435.9
674.0;523.5;;;;;;;;;;;;;;0.877163;-0.73934144;-0.31482893;;;;;435.9
674.0;523.5;;;;;;;;;;;;;;;;;19.276255;-7.248146;9.502701;;435.9
674.0;523.5;;;;;;;;;;;;;;0.90878016;-0.7029023;-0.29786065;;;;;435.9
674.0;523.5;;;;;;;;;;;;;;;;;20.809809;-3.5363324;7.5914793;;445.5
674.0;523.5;;;;;;;;;;;;;;0.8938261;-0.6784875;-0.27124852;;;;;445.5
674.0;523.5;;;;;;;;;;;;;;;;;21.969513;0.019074067;5.7374797;;445.5
674.0;523.5;;;;;;;;;;;;;;0.890347;-0.6504715;-0.24976349;;;;;445.5
674.0;523.5;;;;;;;;;;;;;;;;;23.094881;3.4524064;3.604999;;455.2
674.0;523.5;;;;;;;;;;;;;;0.87441635;-0.6313669;-0.23780023;;;;;455.2
674.0;523.5;;;;;;;;;;;;;;;;;23.911253;7.1031833;0.9117405;;455.2
674.0;523.5;;;;;;;;;;;;;;0.8527482;-0.6203803;-0.25098422;;;;;455.2
674.0;530.1;;;;;;;;;;;;;;;;;24.86114;11.67333;-2.189703;;464.9
674.0;530.1;;;;;;;;;;;;;;0.8595233;-0.5960265;-0.2857143;;;;;464.9
674.0;530.1;;;;;;;;;;;;;;;;;24.84588;17.563402;-5.664998;;464.9
674.0;530.1;;;;;;;;;;;;;;0.8577532;-0.62355417;-0.23413801;;;;;464.9
674.0;530.1;;;;;;;;;;;;;;;;;22.91177;22.915585;-9.63622;;474.5
674.0;530.1;;;;;;;;;;;;;;0.8998688;-0.66896576;-0.22620319;;;;;474.5
674.0;530.1;;;;;;;;;;;;;;;;;16.991179;27.073734;-14.191107;;474.5
674.0;530.1;;;;;;;;;;;;;;0.99197364;-0.72524184;-0.34101382;;;;;474.5
674.0;530.1;;;;;;;;;;;;;;;;;7.9500723;31.537064;-19.985807;;484.2
674.0;530.1;;;;;;;;;;;;;;1.0586871;-0.8233894;-0.45527512;;;;;484.2
674.0;530.1;;;;;;;;;;;;;;;;;6.214331;37.194435;-26.467178;;484.2
674.0;530.1;;;;;;;;;;;;;;1.0983611;-0.9098178;-0.47065645;;;;;484.2
734.0;575.8;;;;;;;;;;;;;;;;;16.644033;41.436504;-32.540363;;493.7
734.0;575.8;;;;;;;;;;;;;;1.088107;-0.9189734;-0.35486922;;;;;493.7
734.0;575.8;;;;;;;;;;;;;;;;;27.871029;43.099766;-38.92636;;493.7
734.0;575.8;;;;;;;;;;;;;;1.0541704;-0.8742943;-0.24805444;;;;;493.7
734.0;575.8;;;;;;;;;;;;;;;;;34.60417;44.434948;-45.922726;;503.3
734.0;575.8;;;;;;;;;;;;;;1.040376;-0.83156836;-0.18140203;;;;;503.3
734.0;575.8;;;;;;;;;;;;;;;;;38.266396;45.838802;-53.155613;;503.3
734.0;575.8;;;;;;;;;;;;;;1.0440992;-0.8044069;-0.14508499;;;;;503.3
734.0;575.8;;;;;;;;;;;;;;;;;40.517136;48.692284;-60.907314;;513.0
734.0;575.8;;;;;;;;;;;;;;1.0590533;-0.8073366;-0.13037507;;;;;513.0
734.0;575.8;;;;;;;;;;;;;;;;;42.294838;53.125095;-69.120605;;513.0
734.0;575.8;;;;;;;;;;;;;;1.0748619;-0.8372448;-0.15271463;;;;;513.0
734.0;590.9;;;;;;;;;;;;;;;;;44.442577;59.743797;-77.993866;;522.7
734.0;590.9;;;;;;;;;;;;;;1.08005;-0.8894314;-0.15955077;;;;;522.7
734.0;590.9;;;;;;;;;;;;;;;;;48.16584;67.339096;-87.46605;;522.7
734.0;590.9;;;;;;;;;;;;;;1.04532;-0.9493698;-0.15686513;;;;;522.7
734.0;590.9;;;;;;;;;;;;;;;;;55.585648;75.09843;-96.81616;;532.3
734.0;590.9;;;;;;;;;;;;;;0.99362165;-1.0017395;-0.146733;;;;;532.3
734.0;590.9;;;;;;;;;;;;;;;;;69.14349;82.61742;-105.10575;;532.3
734.0;590.9;;;;;;;;;;;;;;0.90951264;-1.017426;-0.10046694;;;;;532.3
734.0;590.9;;;;;;;;;;;;;;;;;86.17664;88.53801;-111.37348;;542.0
734.0;590.9;;;;;;;;;;;;;;0.78725547;-1.0146794;-0.04016236;;;;;542.0
734.0;590.9;;;;;;;;;;;;;;;;;102.81304;92.135376;-116.23737;;542.0
734.0;590.9;;;;;;;;;;;;;;0.6635945;-1.0067446;-0.006591998;;;;;542.0
792.0;635.8;;;;;;;;;;;;;;;;;116.14582;93.43242;-120.387886;;551.4
792.0;635.8;;;;;;;;;;;;;;0.55818355;-0.98733485;0.013672292;;;;;551.4
792.0;635.8;;;;;;;;;;;;;;;;;123.817406;93.35612;-123.252815;;551.4
792.0;635.8;;;;;;;;;;;;;;0.4516129;-0.9846492;0.04876858;;;;;551.4
792.0;635.8;;;;;;;;;;;;;;;;;124.42015;91.76916;-124.64141;;561.0
792.0;635.8;;;;;;;;;;;;;;0.36335337;-1.0048524;0.06994843;;;;;561.0
792.0;635.8;;;;;;;;;;;;;;;;;111.484116;87.93909;-124.988556;;561.0
792.0;635.8;;;;;;;;;;;;;;0.33472702;-1.0505692;-0.045167394;;;;;561.0
792.0;635.8;;;;;;;;;;;;;;;;;79.03531;83.681755;-124.988556;;570.6
792.0;635.8;;;;;;;;;;;;;;0.3559679;-1.2026734;-0.308298;;;;;570.6
792.0;635.8;;;;;;;;;;;;;;;;;46.49495;82.47627;-124.988556;;570.6
792.0;635.8;;;;;;;;;;;;;;0.42841884;-1.4495682;-0.56678975;;;;;570.6
792.0;650.9;;;;;;;;;;;;;;;;;38.384655;87.79031;-124.988556;;580.3
792.0;650.9;;;;;;;;;;;;;;0.50972015;-1.6756493;-0.6598712;;;;;580.3
792.0;650.9;;;;;;;;;;;;;;;;;55.42161;95.85101;-124.988556;;580.3
792.0;650.9;;;;;;;;;;;;;;0.499588;-1.8364208;-0.5824152;;;;;580.3
792.0;650.9;;;;;;;;;;;;;;;;;78.16171;98.0369;-124.988556;;589.9
792.0;650.9;;;;;;;;;;;;;;0.50086975;-1.9363384;-0.45393232;;;;;589.9
792.0;650.9;;;;;;;;;;;;;;;;;91.50975;94.41283;-124.988556;;589.9
792.0;650.9;;;;;;;;;;;;;;0.610065;-1.8624226;-0.3477279;;;;;589.9
792.0;650.9;;;;;;;;;;;;;;;;;95.31312;86.8862;-124.988556;;599.6
792.0;650.9;;;;;;;;;;;;;;0.6243477;-1.7046418;-0.26789147;;;;;599.6
792.0;650.9;;;;;;;;;;;;;;;;;89.541306;76.078835;-124.988556;;599.6
792.0;650.9;;;;;;;;;;;;;;0.5710623;-1.5838495;-0.22766808;;;;;599.6
853.0;703.7;;;;;;;;;;;;;;;;;80.10727;63.37932;-124.988556;;609.1
853.0;703.7;;;;;;;;;;;;;;0.5965758;-1.5047456;-0.2590411;;;;;609.1
853.0;703.7;;;;;;;;;;;;;;;;;74.728386;51.824245;-124.988556;;609.1
853.0;703.7;;;;;;;;;;;;;;0.5717338;-1.45439;-0.26703694;;;;;609.1
853.0;703.7;;;;;;;;;;;;;;;;;70.32227;42.30247;-124.988556;;618.8
853.0;703.7;;;;;;;;;;;;;;0.557329;-1.3977478;-0.27143162;;;;;618.8
853.0;703.7;;;;;;;;;;;;;;;;;66.60284;36.450546;-124.988556;;618.8
853.0;703.7;;;;;;;;;;;;;;0.59529406;-1.3364666;-0.28394422;;;;;618.8
853.0;703.7;;;;;;;;;;;;;;;;;66.57613;33.81451;-124.988556;;628.5
853.0;703.7;;;;;;;;;;;;;;0.62977993;-1.2801905;-0.30262154;;;;;628.5
853.0;703.7;;;;;;;;;;;;;;;;;71.23402;32.17414;-124.988556;;628.5
853.0;703.7;;;;;;;;;;;;;;0.6308786;-1.239967;-0.31049532;;;;;628.5
853.0;704.9;;;;;;;;;;;;;;;;;76.67776;28.98114;-124.988556;;638.1
853.0;704.9;;;;;;;;;;;;;;0.6510208;-1.1793573;-0.33149204;;;;;638.1
853.0;704.9;;;;;;;;;;;;;;;;;79.79064;24.716179;-124.988556;;638.1
853.0;704.9;;;;;;;;;;;;;;0.67378765;-1.1216773;-0.3336894;;;;;638.1
853.0;704.9;;;;;;;;;;;;;;;;;79.737236;17.132328;-124.988556;;647.8
853.0;704.9;;;;;;;;;;;;;;0.7206641;-1.0799279;-0.3427839;;;;;647.8
853.0;704.9;;;;;;;;;;;;;;;;;76.00635;11.764886;-124.988556;;647.8
853.0;704.9;;;;;;;;;;;;;;0.81893367;-1.0252388;-0.36219367;;;;;647.8
853.0;704.9;;;;;;;;;;;;;;;;;69.00235;10.647145;-124.988556;;657.4
853.0;704.9;;;;;;;;;;;;;;0.84591204;-1.0114444;-0.33436078;;;;;657.4
853.0;704.9;;;;;;;;;;;;;;;;;62.494278;8.354443;-124.988556;;657.4
853.0;704.9;;;;;;;;;;;;;;0.90084535;-1.0150456;-0.32538834;;;;;657.4
914.0;756.6;;;;;;;;;;;;;;;;;57.237465;11.4978485;-124.988556;;666.9
914.0;756.6;;;;;;;;;;;;;;0.9951476;-0.98330635;-0.2961516;;;;;666.9
914.0;756.6;;;;;;;;;;;;;;;;;52.4308;16.842403;-124.988556;;666.9
914.0;756.6;;;;;;;;;;;;;;1.0273141;-0.9512009;-0.2682577;;;;;666.9
914.0;756.6;;;;;;;;;;;;;;;;;48.699913;18.677328;-124.988556;;676.6
914.0;756.6;;;;;;;;;;;;;;1.0208441;-0.948149;-0.276986;;;;;676.6
914.0;756.6;;;;;;;;;;;;;;;;;45.388653;20.126957;-124.988556;;676.6
914.0;756.6;;;;;;;;;;;;;;1.0022889;-0.9349651;-0.26142156;;;;;676.6
914.0;756.6;;;;;;;;;;;;;;;;;38.78903;21.320993;-124.988556;;686.3
914.0;756.6;;;;;;;;;;;;;;0.9931333;-0.92458874;-0.26612142;;;;;686.3
914.0;756.6;;;;;;;;;;;;;;;;;32.35725;28.34788;-124.988556;;686.3
914.0;756.6;;;;;;;;;;;;;;0.9607837;-0.9203772;-0.28547013;;;;;686.3
914.0;764.1;;;;;;;;;;;;;;;;;27.813807;37.701805;-124.988556;;695.9
914.0;764.1;;;;;;;;;;;;;;0.93325603;-0.91909546;-0.2679525;;;;;695.9
914.0;764.1;;;;;;;;;;;;;;;;;21.33244;46.948914;-124.988556;;695.9
914.0;764.1;;;;;;;;;;;;;;0.9648732;-0.8891873;-0.27643666;;;;;695.9
914.0;764.1;;;;;;;;;;;;;;;;;15.709402;59.129612;-124.988556;;705.5
914.0;764.1;;;;;;;;;;;;;;1.0196844;-0.8455458;-0.24152349;;;;;705.5
914.0;764.1;;;;;;;;;;;;;;;;;10.116886;71.24546;-124.988556;;705.5
914.0;764.1;;;;;;;;;;;;;;1.0264596;-0.8057497;-0.18195136;;;;;705.5
914.0;764.1;;;;;;;;;;;;;;;;;-2.5101473;83.54823;-124.988556;;715.1
914.0;764.1;;;;;;;;;;;;;;1.0019838;-0.77462083;-0.1314127;;;;;715.1
914.0;764.1;;;;;;;;;;;;;;;;;-17.826624;93.44768;-124.988556;;715.1
914.0;764.1;;;;;;;;;;;;;;0.9747612;-0.7648549;-0.11224708;;;;;715.1
974.0;816.8;;;;;;;;;;;;;;;;;-30.27436;101.19938;-124.988556;;724.8
974.0;816.8;;;;;;;;;;;;;;0.931608;-0.7624134;-0.075319685;;;;;724.8
974.0;816.8;;;;;;;;;;;;;;;;;-39.017914;107.75704;-124.988556;;724.8
974.0;816.8;;;;;;;;;;;;;;0.8764916;-0.74922943;-0.041444138;;;;;724.8
974.0;816.8;;;;;;;;;;;;;;;;;-44.839317;112.30811;-124.988556;;734.4
974.0;816.8;;;;;;;;;;;;;;0.82430494;-0.74056214;-0.045594655;;;;;734.4
974.0;816.8;;;;;;;;;;;;;;;;;-48.726616;115.8826;-124.988556;;734.4
974.0;816.8;;;;;;;;;;;;;;0.7894528;-0.71950436;-0.0474868;;;;;734.4
974.0;816.8;;;;;;;;;;;;;;;;;-52.140873;119.32738;-124.988556;;744.1
974.0;816.8;;;;;;;;;;;;;;0.7680288;-0.7050386;-0.055543687;;;;;744.1
974.0;816.8;;;;;;;;;;;;;;;;;-52.480392;120.42985;-124.988556;;744.1
974.0;816.8;;;;;;;;;;;;;;0.75411236;-0.67128515;-0.011597034;;;;;744.1
974.0;824.7;;;;;;;;;;;;;;;;;-55.57039;119.45708;-124.988556;;753.7
974.0;824.7;;;;;;;;;;;;;;0.74544513;-0.6549272;0.016907254;;;;;753.7
974.0;824.7;;;;;;;;;;;;;;;;;-58.687096;119.92248;-124.988556;;753.7
974.0;824.7;;;;;;;;;;;;;;0.72963655;-0.64394057;0.035340436;;;;;753.7
974.0;824.7;;;;;;;;;;;;;;;;;-62.086094;122.42881;-124.988556;;763.2
974.0;824.7;;;;;;;;;;;;;;0.7187109;-0.6214789;0.052125614;;;;;763.2
974.0;824.7;;;;;;;;;;;;;;;;;-65.168465;124.618515;-124.988556;;763.2
974.0;824.7;;;;;;;;;;;;;;0.69753104;-0.5971862;0.054567095;;;;;763.2
974.0;824.7;;;;;;;;;;;;;;;;;-65.9505;124.988556;-124.988556;;772.8
974.0;824.7;;;;;;;;;;;;;;0.6772668;-0.5689871;0.05328532;;;;;772.8
974.0;824.7;;;;;;;;;;;;;;;;;-64.8938;124.988556;-124.988556;;772.8
974.0;824.7;;;;;;;;;;;;;;0.66170233;-0.54628134;0.041077916;;;;;772.8
1042.0;877.4;;;;;;;;;;;;;;;;;-62.60109;124.988556;-124.988556;;782.4
1042.0;877.4;;;;;;;;;;;;;;0.6366161;-0.537553;0.030396435;;;;;782.4
1042.0;877.4;;;;;;;;;;;;;;;;;-58.664207;124.988556;-124.91989;;782.4
1042.0;877.4;;;;;;;;;;;;;;0.6156804;-0.52034056;0.03277688;;;;;782.4
1042.0;877.4;;;;;;;;;;;;;;;;;-54.891354;124.988556;-122.24952;;792.0
1042.0;877.4;;;;;;;;;;;;;;0.58674884;-0.5224769;0.03418073;;;;;792.0
1042.0;877.4;;;;;;;;;;;;;;;;;-50.81713;124.855034;-115.33326;;792.0
1042.0;877.4;;;;;;;;;;;;;;0.5559862;-0.5208289;0.02990814;;;;;792.0
1042.0;877.4;;;;;;;;;;;;;;;;;-47.49443;122.50893;-108.08131;;801.6
1042.0;877.4;;;;;;;;;;;;;;0.51600695;-0.5228431;0.024903104;;;;;801.6
1042.0;877.4;;;;;;;;;;;;;;;;;-45.20554;117.01178;-101.69912;;801.6
1042.0;877.4;;;;;;;;;;;;;;0.4766991;-0.5095981;0.0017090365;;;;;801.6
1042.0;884.9;;;;;;;;;;;;;;;;;-43.710136;112.01056;-95.18723;;811.1
1042.0;884.9;;;;;;;;;;;;;;0.41901913;-0.4947661;-0.027283547;;;;;811.1
1042.0;884.9;;;;;;;;;;;;;;;;;-43.218025;105.60168;-88.86227;;811.1
1042.0;884.9;;;;;;;;;;;;;;0.3658559;-0.47083956;-0.042664878;;;;;811.1
1042.0;884.9;;;;;;;;;;;;;;;;;-44.663837;98.09794;-82.716606;;820.7
1042.0;884.9;;;;;;;;;;;;;;0.30933562;-0.44117558;-0.0590228;;;;;820.7
1042.0;884.9;;;;;;;;;;;;;;;;;-46.11347;89.06445;-76.71972;;820.7
1042.0;884.9;;;;;;;;;;;;;;0.2560503;-0.4156621;-0.0695822;;;;;820.7
1042.0;884.9;;;;;;;;;;;;;;;;;-47.81869;78.65764;-71.378975;;830.4
1042.0;884.9;;;;;;;;;;;;;;0.20703757;-0.39106417;-0.0695822;;;;;830.4
1042.0;884.9;;;;;;;;;;;;;;;;;-48.91736;68.18979;-66.21754;;830.4
1042.0;884.9;;;;;;;;;;;;;;0.16211432;-0.35633412;-0.05121006;;;;;830.4
1093.0;937.8;;;;;;;;;;;;;;;;;-50.3708;58.465836;-60.52202;;840.1
1093.0;937.8;;;;;;;;;;;;;;0.10541093;-0.32789087;-0.029114658;;;;;840.1
1093.0;937.8;;;;;;;;;;;;;;;;;-51.744133;48.35658;-54.387802;;840.1
1093.0;937.8;;;;;;;;;;;;;;0.06494339;-0.300119;-0.024903104;;;;;840.1
1093.0;937.8;;;;;;;;;;;;;;;;;-51.786095;40.92532;-47.77291;;849.7
1093.0;937.8;;;;;;;;;;;;;;0.021423994;-0.28681296;0.0018311106;;;;;849.7
1093.0;937.8;;;;;;;;;;;;;;;;;-51.007874;33.53603;-41.047394;;849.7
1093.0;937.8;;;;;;;;;;;;;;8.5451826E-4;-0.24835964;0.0017090365;;;;;849.7
1093.0;937.8;;;;;;;;;;;;;;;;;-48.65795;28.691214;-34.108246;;859.4
1093.0;937.8;;;;;;;;;;;;;;-0.0012207404;-0.22449416;0.011841182;;;;;859.4
1093.0;937.8;;;;;;;;;;;;;;;;;-46.849728;25.963621;-27.195808;;859.4
1093.0;937.8;;;;;;;;;;;;;;1.2207404E-4;-0.20111698;0.010986663;;;;;859.4
1093.0;938.6;;;;;;;;;;;;;;;;;-43.931396;24.712364;-19.936216;;869.1
1093.0;938.6;;;;;;;;;;;;;;0.005981628;-0.17419966;0.018799402;;;;;869.1
1093.0;938.6;;;;;;;;;;;;;;;;;-42.458878;23.75103;-12.905515;;869.1
1093.0;938.6;;;;;;;;;;;;;;0.020508438;-0.15936765;0.036133915;;;;;869.1
1093.0;938.6;;;;;;;;;;;;;;;;;-41.886654;22.808771;-5.603961;;878.7
1093.0;938.6;;;;;;;;;;;;;;0.03912473;-0.14697714;0.04998932;;;;;878.7
1093.0;938.6;;;;;;;;;;;;;;;;;-41.665394;22.312845;1.003296;;878.7
1093.0;938.6;;;;;;;;;;;;;;0.07678457;-0.1389813;0.0634785;;;;;878.7
1093.0;938.6;;;;;;;;;;;;;;;;;-42.107914;23.04529;6.801813;;888.3
1093.0;938.6;;;;;;;;;;;;;;0.12128056;-0.11792352;0.09363079;;;;;888.3
1093.0;938.6;;;;;;;;;;;;;;;;;-43.752098;24.09055;12.49733;;888.3
1093.0;938.6;;;;;;;;;;;;;;0.18066958;-0.10455641;0.13269448;;;;;888.3
1155.0;998.6;;;;;;;;;;;;;;;;;-45.04532;25.296028;17.319254;;898.0
1155.0;998.6;;;;;;;;;;;;;;0.2606891;-0.08459731;0.17871639;;;;;898.0
1155.0;998.6;;;;;;;;;;;;;;;;;-47.03665;26.08951;21.645254;;898.0
1155.0;998.6;;;;;;;;;;;;;;0.33808404;-0.06634724;0.23566394;;;;;898.0
1155.0;998.6;;;;;;;;;;;;;;;;;-50.107574;24.132511;25.673697;;907.5
1155.0;998.6;;;;;;;;;;;;;;0.43702507;-0.043519396;0.2936491;;;;;907.5
1155.0;998.6;;;;;;;;;;;;;;;;;-54.34965;19.634846;28.7904;;907.5
1155.0;998.6;;;;;;;;;;;;;;0.53065586;-0.022034364;0.3406476;;;;;907.5
1155.0;998.6;;;;;;;;;;;;;;;;;-59.942165;12.607959;30.926695;;917.2
1155.0;998.6;;;;;;;;;;;;;;0.6247139;-0.0075075533;0.37281412;;;;;917.2
1155.0;998.6;;;;;;;;;;;;;;;;;-64.931946;4.3832207;32.685326;;917.2
1155.0;998.6;;;;;;;;;;;;;;0.7199927;-1.8311106E-4;0.39893797;;;;;917.2
1155.0;999.5;;;;;;;;;;;;;;;;;-68.826866;-4.078036;34.15784;;926.9
1155.0;999.5;;;;;;;;;;;;;;0.7961669;0.003601184;0.41865292;;;;;926.9
1155.0;999.5;;;;;;;;;;;;;;;;;-72.11905;-12.501144;36.015656;;926.9
1155.0;999.5;;;;;;;;;;;;;;0.87905514;-0.0017090365;0.4141972;;;;;926.9
1155.0;999.5;;;;;;;;;;;;;;;;;-75.07172;-19.379255;38.296917;;936.4
1155.0;999.5;;;;;;;;;;;;;;0.94515824;-0.0038453322;0.40784937;;;;;936.4
1155.0;999.5;;;;;;;;;;;;;;;;;-77.764984;-24.952696;40.63158;;936.4
1155.0;999.5;;;;;;;;;;;;;;0.9949644;-0.018860439;0.38294625;;;;;936.4
1155.0;999.5;;;;;;;;;;;;;;;;;-79.56938;-28.611103;43.137913;;946.0
1155.0;999.5;;;;;;;;;;;;;;1.0309763;-0.039857175;0.3475448;;;;;946.0
1155.0;999.5;;;;;;;;;;;;;;;;;-79.78301;-28.908659;45.873135;;946.0
1155.0;999.5;;;;;;;;;;;;;;1.0556962;-0.06457717;0.31299785;;;;;946.0
1215.0;1058.8;;;;;;;;;;;;;;;;;-79.49309;-27.1424;48.56258;;955.7
1215.0;1058.8;;;;;;;;;;;;;;1.0722373;-0.09686575;0.25818658;;;;;955.7
1215.0;1058.8;;;;;;;;;;;;;;;;;-78.55083;-23.239845;51.47328;;955.7
1215.0;1058.8;;;;;;;;;;;;;;1.078341;-0.13312174;0.19153416;;;;;955.7
1215.0;1058.8;;;;;;;;;;;;;;;;;-77.84128;-17.494736;54.76165;;965.3
1215.0;1058.8;;;;;;;;;;;;;;1.0658895;-0.18280587;0.13171789;;;;;965.3
1215.0;1058.8;;;;;;;;;;;;;;;;;-76.67013;-10.628071;58.370464;;965.3
1215.0;1058.8;;;;;;;;;;;;;;1.0290841;-0.23535874;0.0806299;;;;;965.3
1215.0;1058.8;;;;;;;;;;;;;;;;;-76.50609;-3.1205175;62.467575;;974.9
1215.0;1058.8;;;;;;;;;;;;;;0.9693289;-0.27497178;0.03747673;;;;;974.9
1215.0;1058.8;;;;;;;;;;;;;;;;;-78.25709;3.8987396;67.12928;;974.9
1215.0;1058.8;;;;;;;;;;;;;;0.8879666;-0.30793175;-0.014282662;;;;;974.9
1215.0;1059.6;;;;;;;;;;;;;;;;;-81.34327;10.029145;72.477646;;984.6
1215.0;1059.6;;;;;;;;;;;;;;0.7966552;-0.33674124;-0.068971835;;;;;984.6
1215.0;1059.6;;;;;;;;;;;;;;;;;-85.360275;16.4037;78.287605;;984.6
1215.0;1059.6;;;;;;;;;;;;;;0.6864223;-0.35804316;-0.09674367;;;;;984.6
1215.0;1059.6;;;;;;;;;;;;;;;;;-89.14838;22.782066;84.67361;;994.1
1215.0;1059.6;;;;;;;;;;;;;;0.5805231;-0.37665945;-0.07678457;;;;;994.1
1215.0;1059.6;;;;;;;;;;;;;;;;;-90.285194;27.989288;91.09393;;994.1
1215.0;1059.6;;;;;;;;;;;;;;0.50343335;-0.38190863;0.028199103;;;;;994.1
1215.0;1059.6;;;;;;;;;;;;;;;;;-84.69268;30.70162;96.2096;;1003.8
1215.0;1059.6;;;;;;;;;;;;;;0.4964751;-0.3238014;0.19519639;;;;;1003.8
1215.0;1059.6;;;;;;;;;;;;;;;;;-69.12442;32.330547;96.66357;;1003.8
1215.0;1059.6;;;;;;;;;;;;;;0.6733604;-0.20203254;0.5411542;;;;;1003.8
1217.0;1119.7;;;;;;;;;;;;;;;;;-56.38676;32.97525;93.87494;;1013.4
1217.0;1119.7;;;;;;;;;;;;;;0.9908139;-0.40198982;0.83260596;;;;;1013.4
1217.0;1119.7;;;;;;;;;;;;;;;;;-53.06406;7.656331;92.31086;;1013.4
1217.0;1119.7;;;;;;;;;;;;;;1.3611865;-0.8677633;0.63234353;;;;;1013.4
1217.0;1119.7;;;;;;;;;;;;;;;;;-57.111576;-48.963135;83.71609;;1023.1
1217.0;1119.7;;;;;;;;;;;;;;1.5539415;-1.0641804;0.24597919;;;;;1023.1
1217.0;1119.7;;;;;;;;;;;;;;;;;-97.472305;-104.9913;67.255165;;1023.1
1217.0;1119.7;;;;;;;;;;;;;;1.9616077;-1.4057436;-0.19476913;;;;;1023.1
1217.0;1119.7;;;;;;;;;;;;;;;;;-124.66811;-114.83352;37.274544;;1032.8
1217.0;1119.7;;;;;;;;;;;;;;1.9971312;-1.9313333;-0.16400647;;;;;1032.8
1217.0;1119.7;;;;;;;;;;;;;;;;;-124.988556;-97.3922;8.445998;;1032.8
1217.0;1119.7;;;;;;;;;;;;;;1.9971312;-1.9998169;0.027405621;;;;;1032.8
1217.0;1120.5;;;;;;;;;;;;;;;;;-124.38581;-51.54576;2.9641104;;1042.4
1217.0;1120.5;;;;;;;;;;;;;;1.9899899;-1.9959716;0.41755426;;;;;1042.4
1217.0;1120.5;;;;;;;;;;;;;;;;;-100.01297;7.976775;4.634999;;1042.4
1217.0;1120.5;;;;;;;;;;;;;;1.5963622;-1.7654347;0.5454268;;;;;1042.4
1217.0;1120.5;;;;;;;;;;;;;;;;;-57.161167;41.848507;5.9091463;;1051.9
1217.0;1120.5;;;;;;;;;;;;;;1.3214514;-1.4142888;0.4242683;;;;;1051.9
1217.0;1120.5;;;;;;;;;;;;;;;;;-30.396435;63.032166;11.360515;;1051.9
1217.0;1120.5;;;;;;;;;;;;;;1.0439771;-1.1960814;0.2487869;;;;;1051.9
1217.0;1120.5;;;;;;;;;;;;;;;;;-4.135258;86.03549;19.745476;;1061.5
1217.0;1120.5;;;;;;;;;;;;;;0.8019654;-1.0633259;0.06207465;;;;;1061.5
1217.0;1120.5;;;;;;;;;;;;;;;;;29.0994;107.76467;29.145178;;1061.5
1217.0;1120.5;;;;;;;;;;;;;;0.6566973;-0.8993194;-0.062379833;;;;;1061.5
1276.0;1131.3;;;;0.0;0.0;0.0;;;;;;;;;;;;;;;
1276.0;1131.3;;;;-0.16057207;0.41365057;0.013145449;;;;;;;;;;;;;;;
1276.0;1131.3;;;;-0.4882279;1.1407663;-0.051494606;;;;;;;;;;;;;;;
1276.0;1131.3;;;;-0.4756127;1.1608278;-0.07707978;;;;;;;;;;;;;;;
1276.0;1131.3;;;;-0.45895392;1.159855;-0.08826066;;;;;;;;;;;;;;;
1276.0;1141.3;;;;-0.4521485;1.1605645;-0.09767915;;;;;;;;;;;;;;;
1276.0;1141.3;;;;-0.43485647;1.1552125;-0.094627395;;;;;;;;;;;;;;;
1276.0;1141.3;;;;-0.4636727;1.1510202;-0.08795167;;;;;;;;;;;;;;;
1276.0;1141.3;;;;-0.48133093;1.143406;-0.086860664;;;;;;;;;;;;;;;
1276.0;1141.3;;;;-0.47868735;1.1343919;-0.085601814;;;;;;;;;;;;;;;
1276.0;1142.6;57517;57433;13900;;;;;;;;;;;;;;;;;;
1276.0;1151.2;;;;-0.4719811;1.1274644;-0.08408738;;;;;;;;;;;;;;;
1276.0;1151.2;;;;-0.45968252;1.122101;-0.08610154;;;;;;;;;;;;;;;
1276.0;1151.2;;;;-0.45011908;1.1213495;-0.09161378;;;;;;;;;;;;;;;
1276.0;1151.2;;;;-0.44794852;1.1218415;-0.09704591;;;;;;;;;;;;;;;
1276.0;1151.2;;;;-0.42833716;1.1156808;-0.098930374;;;;;;;;;;;;;;;
1279.0;1161.3;;;;-0.40492636;1.1086923;-0.10758592;;;;;;;;;;;;;;;
1279.0;1161.3;;;;-0.3754273;1.0980073;-0.115856186;;;;;;;;;;;;;;;
1279.0;1161.3;;;;-0.36463168;1.0874215;-0.12046434;;;;;;;;;;;;;;;
1279.0;1161.3;;;;-0.37993628;1.0765382;-0.12146379;;;;;;;;;;;;;;;
1279.0;1161.3;;;;-0.3662682;1.0629388;-0.1214409;;;;;;;;;;;;;;;
1279.0;1162.7;73858;73851;13889;;;;;;;;;;;;;;;;;;
1279.0;1169.0;;;;;;;;;;;;;0;;;;;;;;
1279.0;1169.0;;;;;;;;;;;;;0;;;;;;;;
1279.0;1169.0;;;;;;;;;;;;;-1;;;;;;;;
1279.0;1169.0;;;;;;;;;;;;;-2;;;;;;;;
1279.0;1169.0;;;;;;;;;;;;;-4;;;;;;;;
1279.0;1171.4;;;;-0.3741913;1.0459939;-0.11868669;;;;;;;;;;;;;;;
1279.0;1171.4;;;;-0.31000522;1.0375139;-0.09144593;;;;;;;;;;;;;;;
1279.0;1171.4;;;;-0.30336764;1.0579606;-0.07862092;;;;;;;;;;;;;;;
1279.0;1171.4;;;;-0.3710976;1.0766717;-0.09849168;;;;;;;;;;;;;;;
1279.0;1171.4;;;;-0.4257012;1.0998689;-0.10781099;;;;;;;;;;;;;;;
1280.0;1179.6;;;;;;;;;;;;;;;;;62.4485;121.05548;37.949768;;1071.2
1280.0;1179.6;;;;;;;;;;;;;;0.4974517;-0.6753136;0.16974396;;;;;1071.2
1280.0;1179.6;;;;;;;;;;;;;;;;;76.143684;112.31193;47.498245;;1071.2
1280.0;1179.6;;;;;;;;;;;;;;0.3272805;-0.39924315;0.46076846;;;;;1071.2
1280.0;1179.6;;;;;;;;;;;;;;;;;54.5938;79.27564;57.6838;;1080.9
1280.0;1179.6;;;;;;;;;;;;;;0.18811609;-0.20496231;0.44190803;;;;;1080.9
1280.0;1179.6;;;;;;;;;;;;;;;;;15.884884;35.86688;64.21476;;1080.9
1280.0;1179.6;;;;;;;;;;;;;;0.07727287;-0.15271463;0.23102511;;;;;1080.9
1280.0;1179.6;;;;;;;;;;;;;;;;;-13.290812;-1.0681478;67.06443;;1090.5
1280.0;1179.6;;;;;;;;;;;;;;-0.065858945;-0.16498306;0.09601123;;;;;1090.5
1280.0;1179.6;;;;;;;;;;;;;;;;;-31.365398;-24.491104;68.826866;;1090.5
1280.0;1179.6;;;;;;;;;;;;;;-0.18439284;-0.15625477;0.10632649;;;;;1090.5
1280.0;1180.3;;;;;;;;;;;;;;;;;-46.21647;-37.244026;71.764275;;1100.2
1280.0;1180.3;;;;;;;;;;;;;;-0.2329783;-0.14172795;0.15784173;;;;;1100.2
1280.0;1180.3;;;;;;;;;;;;;;;;;-59.129612;-52.12943;74.00357;;1100.2
1280.0;1180.3;;;;;;;;;;;;;;-0.23047578;-0.18988617;0.14600055;;;;;1100.2
1280.0;1180.3;;;;;;;;;;;;;;;;;-64.26054;-75.308235;75.77364;;1109.7
1280.0;1180.3;;;;;;;;;;;;;;-0.19739372;-0.25763726;0.13257241;;;;;1109.7
1280.0;1180.3;;;;;;;;;;;;;;;;;-62.83761;-101.767784;78.53938;;1109.7
1280.0;1180.3;;;;;;;;;;;;;;-0.15161596;-0.32660908;0.13476974;;;;;1109.7
1280.0;1180.3;;;;;;;;;;;;;;;;;-61.86102;-120.494705;80.06912;;1119.4
1280.0;1180.3;;;;;;;;;;;;;;-0.10174871;-0.36579487;0.109500416;;;;;1119.4
1280.0;1180.3;;;;;;;;;;;;;;;;;-63.32972;-124.98474;81.274605;;1119.4
1280.0;1180.3;;;;;;;;;;;;;;-0.012390515;-0.41926327;0.003173925;;;;;1119.4
1334.0;1181.3;;;;-0.3972817;1.0981904;-0.07967759;;;;;;;;;;;;;;;
1334.0;1181.3;;;;-0.34405902;1.08733;-0.09399797;;;;;;;;;;;;;;;
1334.0;1181.3;;;;-0.34855273;1.0762559;-0.13608934;;;;;;;;;;;;;;;
1334.0;1181.3;;;;-0.35712436;1.0686876;-0.16072847;;;;;;;;;;;;;;;
1334.0;1181.3;;;;-0.34674457;1.0616189;-0.18540193;;;;;;;;;;;;;;;
1334.0;1182.7;90259;90221;13888;;;;;;;;;;;;;;;;;;
1334.0;1191.4;;;;-0.30619052;1.0535127;-0.19163135;;;;;;;;;;;;;;;
1334.0;1191.4;;;;-0.3263779;1.0704385;-0.18037798;;;;;;;;;;;;;;;
1334.0;1191.4;;;;-0.3130646;1.1002122;-0.15744402;;;;;;;;;;;;;;;
1334.0;1191.4;;;;-0.2689667;1.1335298;-0.12665178;;;;;;;;;;;;;;;
1334.0;1191.4;;;;-0.24047473;1.16354;-0.105014816;;;;;;;;;;;;;;;
1334.0;1201.4;;;;-0.26223376;1.1843225;-0.10309221;;;;;;;;;;;;;;;
1334.0;1201.4;;;;-0.27754596;1.1986772;-0.10636522;;;;;;;;;;;;;;;
1334.0;1201.4;;;;-0.27367023;1.206997;-0.11693956;;;;;;;;;;;;;;;
1334.0;1201.4;;;;-0.2672501;1.2134172;-0.13298799;;;;;;;;;;;;;;;
1334.0;1201.4;;;;-0.2640343;1.22081;-0.15104677;;;;;;;;;;;;;;;
1334.0;1202.9;106679;106627;13884;;;;;;;;;;;;;;;;;;
1334.0;1209.1;;;;;;;;;;;;;-5;;;;;;;;
1334.0;1209.1;;;;;;;;;;;;;-7;;;;;;;;
1334.0;1209.1;;;;;;;;;;;;;-13;;;;;;;;
1334.0;1209.1;;;;;;;;;;;;;-7;;;;;;;;
1334.0;1209.1;;;;;;;;;;;;;-13;;;;;;;;
1336.0;1211.4;;;;-0.2736855;1.2277223;-0.17337419;;;;;;;;;;;;;;;
1336.0;1211.4;;;;-0.28699496;1.2316171;-0.19537356;;;;;;;;;;;;;;;
1336.0;1211.4;;;;-0.2986832;1.2340852;-0.2115517;;;;;;;;;;;;;;;
1336.0;1211.4;;;;-0.32382968;1.2379724;-0.2212868;;;;;;;;;;;;;;;
1336.0;1211.4;;;;-0.33648303;1.2465249;-0.22516254;;;;;;;;;;;;;;;
1336.0;1221.4;;;;-0.33097842;1.2516328;-0.21919635;;;;;;;;;;;;;;;
1336.0;1221.4;;;;-0.32581332;1.2511674;-0.20674899;;;;;;;;;;;;;;;
1336.0;1221.4;;;;-0.33488086;1.2514802;-0.20283893;;;;;;;;;;;;;;;
1336.0;1221.4;;;;-0.34768298;1.2605478;-0.2060776;;;;;;;;;;;;;;;
1336.0;1221.4;;;;-0.36301807;1.2701684;-0.21742633;;;;;;;;;;;;;;;
1336.0;1222.9;123038;123017;13888;;;;;;;;;;;;;;;;;;
1336.0;1231.5;;;;-0.37906653;1.2729417;-0.23451617;;;;;;;;;;;;;;;
1336.0;1231.5;;;;-0.38250738;1.2713586;-0.24874881;;;;;;;;;;;;;;;
1336.0;1231.5;;;;-0.38872916;1.2668687;-0.2647858;;;;;;;;;;;;;;;
1336.0;1231.5;;;;-0.3832894;1.2633439;-0.27447513;;;;;;;;;;;;;;;
1336.0;1231.5;;;;-0.37855154;1.2607919;-0.28205112;;;;;;;;;;;;;;;
1340.0;1239.8;;;;;;;;;;;;;;;;;-65.34776;-124.988556;81.053345;;1129.0
1340.0;1239.8;;;;;;;;;;;;;;0.091677606;-0.49256873;-0.092471085;;;;;1129.0
1340.0;1239.8;;;;;;;;;;;;;;;;;-62.067017;-124.988556;80.78249;;1129.0
1340.0;1239.8;;;;;;;;;;;;;;0.20355846;-0.59559923;-0.11407819;;;;;1129.0
1340.0;1239.8;;;;;;;;;;;;;;;;;-55.124058;-124.988556;79.710526;;1138.7
1340.0;1239.8;;;;;;;;;;;;;;0.31611073;-0.695822;-0.06201361;;;;;1138.7
1340.0;1239.8;;;;;;;;;;;;;;;;;-47.498245;-123.64574;77.90613;;1138.7
1340.0;1239.8;;;;;;;;;;;;;;0.4340953;-0.7993408;-0.020813623;;;;;1138.7
1340.0;1239.8;;;;;;;;;;;;;;;;;-40.23484;-113.83022;75.61724;;1148.1
1340.0;1239.8;;;;;;;;;;;;;;0.5330363;-0.9121372;-0.025086215;;;;;1148.1
1340.0;1239.8;;;;;;;;;;;;;;;;;-38.03751;-103.86593;73.96161;;1148.1
1340.0;1239.8;;;;;;;;;;;;;;0.61848813;-1.0670491;-0.111636706;;;;;1148.1
1340.0;1240.9;;;;;;;;;;;;;;;;;-48.94406;-100.76449;72.29835;;1157.8
1340.0;1240.9;;;;;;;;;;;;;;0.7264626;-1.2126224;-0.34894863;;;;;1157.8
1340.0;1240.9;;;;;;;;;;;;;;;;;-70.58168;-100.92852;68.75057;;1157.8
1340.0;1240.9;;;;;;;;;;;;;;0.86074406;-1.3674123;-0.66011536;;;;;1157.8
1340.0;1240.9;;;;;;;;;;;;;;;;;-82.44957;-99.02493;62.150944;;1167.5
1340.0;1240.9;;;;;;;;;;;;;;1.0834681;-1.5555894;-0.94845426;;;;;1167.5
1340.0;1240.9;;;;;;;;;;;;;;;;;-59.61791;-86.9129;50.96591;;1167.5
1340.0;1240.9;;;;;;;;;;;;;;1.305826;-1.6971953;-0.9363689;;;;;1167.5
1340.0;1240.9;;;;;;;;;;;;;;;;;-15.163884;-70.65416;34.516434;;1177.0
1340.0;1240.9;;;;;;;;;;;;;;1.5278176;-1.6713157;-0.7137669;;;;;1177.0
1340.0;1240.9;;;;;;;;;;;;;;;;;26.95166;-51.3245;24.796288;;1177.0
1340.0;1240.9;;;;;;;;;;;;;;1.7138585;-1.2847072;-0.4367809;;;;;1177.0
1394.0;1241.4;;;;-0.37119678;1.258423;-0.28535464;;;;;;;;;;;;;;;
1394.0;1241.4;;;;-0.3663254;1.2583886;-0.28587344;;;;;;;;;;;;;;;
1394.0;1241.4;;;;-0.3779946;1.2622606;-0.28455737;;;;;;;;;;;;;;;
1394.0;1241.4;;;;-0.3937531;1.2649156;-0.28227618;;;;;;;;;;;;;;;
1394.0;1241.4;;;;-0.40001303;1.2684442;-0.28219226;;;;;;;;;;;;;;;
1394.0;1243.0;139403;139378;13880;;;;;;;;;;;;;;;;;;
1394.0;1249.2;;;;;;;;;;;;;-7;;;;;;;;
1394.0;1249.2;;;;;;;;;;;;;0;;;;;;;;
1394.0;1249.2;;;;;;;;;;;;;-32;;;;;;;;
1394.0;1249.2;;;;;;;;;;;;;33;;;;;;;;
1394.0;1249.2;;;;;;;;;;;;;-9;;;;;;;;
1394.0;1251.4;;;;-0.40158087;1.2726976;-0.28380588;;;;;;;;;;;;;;;
1394.0;1251.4;;;;-0.4079743;1.2765809;-0.289341;;;;;;;;;;;;;;;
1394.0;1251.4;;;;-0.41696936;1.2810708;-0.29650882;;;;;;;;;;;;;;;
1394.0;1251.4;;;;-0.42267615;1.2855569;-0.30459598;;;;;;;;;;;;;;;
1394.0;1251.4;;;;-0.42472845;1.2897378;-0.31211093;;;;;;;;;;;;;;;
1394.0;1261.4;;;;-0.42797095;1.2925569;-0.3177109;;;;;;;;;;;;;;;
1394.0;1261.4;;;;-0.43174368;1.2953225;-0.3213196;;;;;;;;;;;;;;;
1394.0;1261.4;;;;-0.43374258;1.297413;-0.32385257;;;;;;;;;;;;;;;
1394.0;1261.4;;;;-0.43601614;1.2989084;-0.3236771;;;;;;;;;;;;;;;
1394.0;1261.4;;;;-0.43742758;1.3002359;-0.32296756;;;;;;;;;;;;;;;
1394.0;1263.0;155799;155785;13886;;;;;;;;;;;;;;;;;;
1397.0;1271.5;;;;-0.43991476;1.3011323;-0.3216248;;;;;;;;;;;;;;;
1397.0;1271.5;;;;-0.40196997;1.4772798;-0.27674487;;;;;;;;;;;;;;;
1397.0;1271.5;;;;-0.3981362;1.3476487;-0.3091164;;;;;;;;;;;;;;;
1397.0;1271.5;;;;-0.4544831;1.2919427;-0.32305148;;;;;;;;;;;;;;;
1397.0;1271.5;;;;-0.44299704;1.3046647;-0.3204575;;;;;;;;;;;;;;;
1397.0;1281.5;;;;-0.44281393;1.2985765;-0.3207169;;;;;;;;;;;;;;;
1397.0;1281.5;;;;-0.4438401;1.2995836;-0.31632617;;;;;;;;;;;;;;;
1397.0;1281.5;;;;-0.44131857;1.2995073;-0.3141518;;;;;;;;;;;;;;;
1397.0;1281.5;;;;-0.4409142;1.3006402;-0.3155785;;;;;;;;;;;;;;;
1397.0;1281.5;;;;-0.4407273;1.3016244;-0.316227;;;;;;;;;;;;;;;
1397.0;1283.2;172162;172293;13877;;;;;;;;;;;;;;;;;;
1397.0;1289.5;;;;;;;;;;;;;-255;;;;;;;;
1397.0;1289.5;;;;;;;;;;;;;-98;;;;;;;;
1397.0;1289.5;;;;;;;;;;;;;427;;;;;;;;
1397.0;1289.5;;;;;;;;;;;;;124;;;;;;;;
1397.0;1289.5;;;;;;;;;;;;;-2121;;;;;;;;
1397.0;1291.6;;;;-0.44071966;1.3013688;-0.31465533;;;;;;;;;;;;;;;
1397.0;1291.6;;;;-0.43946844;1.2995073;-0.31213763;;;;;;;;;;;;;;;
1397.0;1291.6;;;;-0.43807608;1.2974817;-0.3081856;;;;;;;;;;;;;;;
1397.0;1291.6;;;;-0.4359284;1.2947313;-0.3030434;;;;;;;;;;;;;;;
1397.0;1291.6;;;;-0.43409353;1.2923356;-0.29882434;;;;;;;;;;;;;;;
1398.0;1300.1;;;;;;;;;;;;;;;;;46.205025;-25.349436;34.257027;;1186.7
1398.0;1300.1;;;;;;;;;;;;;;1.5297098;-0.8446913;-0.27069917;;;;;1186.7
1398.0;1300.1;;;;;;;;;;;;;;;;;37.961212;-4.058962;40.566727;;1186.7
1398.0;1300.1;;;;;;;;;;;;;;1.3418989;-0.6751915;-0.22382274;;;;;1186.7
1398.0;1300.1;;;;;;;;;;;;;;;;;20.218512;6.7026277;44.526505;;1196.3
1398.0;1300.1;;;;;;;;;;;;;;1.1822871;-0.58101135;-0.19672231;;;;;1196.3
1398.0;1300.1;;;;;;;;;;;;;;;;;6.2562943;12.768181;48.24595;;1196.3
1398.0;1300.1;;;;;;;;;;;;;;1.0152287;-0.51008636;-0.11481063;;;;;1196.3
1398.0;1300.1;;;;;;;;;;;;;;;;;-5.4857025;14.02707;51.25965;;1205.9
1398.0;1300.1;;;;;;;;;;;;;;0.88827175;-0.48780787;-0.01678518;;;;;1205.9
1398.0;1300.1;;;;;;;;;;;;;;;;;-16.933958;12.554551;55.017242;;1205.9
1398.0;1300.1;;;;;;;;;;;;;;0.7788934;-0.49848932;0.05285806;;;;;1205.9
1398.0;1300.9;;;;;;;;;;;;;;;;;-26.535845;9.704886;59.556873;;1215.5
1398.0;1300.9;;;;;;;;;;;;;;0.68153936;-0.5117954;0.094058044;;;;;1215.5
1398.0;1300.9;;;;;;;;;;;;;;;;;-34.84069;5.4971466;64.359726;;1215.5
1398.0;1300.9;;;;;;;;;;;;;;0.59682;-0.5244301;0.10022279;;;;;1215.5
1398.0;1300.9;;;;;;;;;;;;;;;;;-41.05121;0.3662221;68.8612;;1225.2
1398.0;1300.9;;;;;;;;;;;;;;0.52772605;-0.5354167;0.08661153;;;;;1225.2
1398.0;1300.9;;;;;;;;;;;;;;;;;-45.31617;-4.886776;72.97357;;1225.2
1398.0;1300.9;;;;;;;;;;;;;;0.4791406;-0.5528123;0.054933317;;;;;1225.2
1398.0;1300.9;;;;;;;;;;;;;;;;;-47.624134;-10.521256;76.570946;;1234.9
1398.0;1300.9;;;;;;;;;;;;;;0.443556;-0.56556904;0.01721244;;;;;1234.9
1398.0;1300.9;;;;;;;;;;;;;;;;;-49.439987;-17.338327;79.72579;;1234.9
1398.0;1300.9;;;;;;;;;;;;;;0.42713705;-0.578814;-0.028138066;;;;;1234.9
1400.0;1301.6;;;;-0.43153006;1.2899324;-0.29750827;;;;;;;;;;;;;;;
1400.0;1301.6;;;;-0.42828375;1.2873193;-0.2997208;;;;;;;;;;;;;;;
1400.0;1301.6;;;;-0.4251595;1.283806;-0.30306628;;;;;;;;;;;;;;;
1400.0;1301.6;;;;-0.4220391;1.2794343;-0.30622104;;;;;;;;;;;;;;;
1400.0;1301.6;;;;-0.41789633;1.2743798;-0.30834582;;;;;;;;;;;;;;;
1400.0;1303.3;188623;188573;13858;;;;;;;;;;;;;;;;;;
1400.0;1311.7;;;;-0.4137383;1.2692147;-0.3100281;;;;;;;;;;;;;;;
1400.0;1311.7;;;;-0.40961844;1.2641412;-0.310257;;;;;;;;;;;;;;;
1400.0;1311.7;;;;-0.40600592;1.2592126;-0.31000522;;;;;;;;;;;;;;;
1400.0;1311.7;;;;-0.40193945;1.2547685;-0.31159213;;;;;;;;;;;;;;;
1400.0;1311.7;;;;-0.3978997;1.2506562;-0.3134537;;;;;;;;;;;;;;;
1400.0;1315.1;;;;;;;;;;;;;;;;;-51.59917;-24.937437;82.19016;;1244.4
1400.0;1315.1;;;;;;;;;;;;;;0.42316964;-0.5962706;-0.08239998;;;;;1244.4
1400.0;1315.1;;;;;;;;;;;;;;;;;-53.796505;-33.055363;84.28068;;1244.4
1400.0;1315.1;;;;;;;;;;;;;;0.41773736;-0.62410355;-0.13696708;;;;;1244.4
1400.0;1315.1;;;;;;;;;;;;;;;;;-55.604725;-40.7651;85.73794;;1253.9
1400.0;1315.1;;;;;;;;;;;;;;0.41621143;-0.6632893;-0.19965209;;;;;1253.9
1400.0;1315.1;;;;;;;;;;;;;;;;;-56.222725;-47.30369;86.74505;;1253.9
1400.0;1315.1;;;;;;;;;;;;;;0.4196295;-0.7126072;-0.25403607;;;;;1253.9
1400.0;1315.1;;;;;;;;;;;;;;;;;-55.34913;-52.12943;87.10746;;1263.6
1400.0;1315.1;;;;;;;;;;;;;;0.42207098;-0.7576525;-0.3018891;;;;;1263.6
1400.0;1315.1;;;;;;;;;;;;;;;;;-53.388317;-54.99817;87.22953;;1263.6
1400.0;1315.1;;;;;;;;;;;;;;0.43202;-0.79641104;-0.3414411;;;;;1263.6
1452.0;1321.6;;;;-0.3941918;1.2465211;-0.314415;;;;;;;;;;;;;;;
1452.0;1321.6;;;;-0.39033514;1.2417299;-0.31584933;;;;;;;;;;;;;;;
1452.0;1321.6;;;;-0.3863564;1.2375604;-0.3160744;;;;;;;;;;;;;;;
1452.0;1321.6;;;;-0.3816529;1.2327653;-0.3142586;;;;;;;;;;;;;;;
1452.0;1321.6;;;;-0.37540442;1.2279512;-0.31496814;;;;;;;;;;;;;;;
1452.0;1323.4;204938;204953;13858;;;;;;;;;;;;;;;;;;
1452.0;1329.6;;;;;;;;;;;;;-5533;;;;;;;;
1452.0;1329.6;;;;;;;;;;;;;-7531;;;;;;;;
1452.0;1329.6;;;;;;;;;;;;;-6378;;;;;;;;
1452.0;1329.6;;;;;;;;;;;;;-3075;;;;;;;;
1452.0;1329.6;;;;;;;;;;;;;2;;;;;;;;
1452.0;1331.5;;;;-0.36992648;1.2229844;-0.3172684;;;;;;;;;;;;;;;
1452.0;1331.5;;;;-0.3642502;1.2167283;-0.31819156;;;;;;;;;;;;;;;
1452.0;1331.5;;;;-0.3588982;1.2100831;-0.31875232;;;;;;;;;;;;;;;
1452.0;1331.5;;;;-0.35295108;1.202427;-0.32008365;;;;;;;;;;;;;;;
1452.0;1331.5;;;;-0.34661868;1.1940309;-0.3187981;;;;;;;;;;;;;;;
1452.0;1341.4;;;;-0.33869937;1.1863595;-0.3188477;;;;;;;;;;;;;;;
1452.0;1341.4;;;;-0.3306084;1.178711;-0.3198395;;;;;;;;;;;;;;;
1452.0;1341.4;;;;-0.32278827;1.1702996;-0.31816486;;;;;;;;;;;;;;;
1452.0;1341.4;;;;-0.3147278;1.1615602;-0.31718448;;;;;;;;;;;;;;;
1452.0;1341.4;;;;-0.3085709;1.1520158;-0.31626132;;;;;;;;;;;;;;;
1452.0;1343.3;221359;221272;13862;;;;;;;;;;;;;;;;;;
1454.0;1351.6;;;;-0.30274966;1.1419145;-0.3133507;;;;;;;;;;;;;;;
1454.0;1351.6;;;;-0.29861072;1.1312486;-0.30844882;;;;;;;;;;;;;;;
1454.0;1351.6;;;;-0.29446033;1.1209832;-0.30505756;;;;;;;;;;;;;;;
1454.0;1351.6;;;;-0.28982547;1.110962;-0.30326846;;;;;;;;;;;;;;;
1454.0;1351.6;;;;-0.28545383;1.1013185;-0.3024483;;;;;;;;;;;;;;;
1454.0;1360.4;;;;;;;;;;;;;;;;;-51.534317;-56.1655;86.67257;;1273.3
1454.0;1360.4;;;;;;;;;;;;;;0.4502701;-0.827662;-0.3546861;;;;;1273.3
1454.0;1360.4;;;;;;;;;;;;;;;;;-51.118504;-56.371502;85.14283;;1273.3
1454.0;1360.4;;;;;;;;;;;;;;0.4713889;-0.86483353;-0.35340434;;;;;1273.3
1454.0;1360.4;;;;;;;;;;;;;;;;;-50.56154;-55.639057;82.82723;;1282.8
1454.0;1360.4;;;;;;;;;;;;;;0.4981231;-0.88747823;-0.344615;;;;;1282.8
1454.0;1360.4;;;;;;;;;;;;;;;;;-48.39091;-54.1818;80.48494;;1282.8
1454.0;1360.4;;;;;;;;;;;;;;0.52986234;-0.8982818;-0.3150731;;;;;1282.8
1454.0;1360.4;;;;;;;;;;;;;;;;;-45.510727;-52.37739;78.131195;;1292.5
1454.0;1360.4;;;;;;;;;;;;;;0.5615406;-0.895291;-0.2764977;;;;;1292.5
1454.0;1360.4;;;;;;;;;;;;;;;;;-42.859432;-50.180058;75.82706;;1292.5
1454.0;1360.4;;;;;;;;;;;;;;0.59450054;-0.8933988;-0.24176763;;;;;1292.5
1454.0;1361.5;;;;-0.28091434;1.0924493;-0.3002167;;;;;;;;;;;;;;;
1454.0;1361.5;;;;-0.27741626;1.0845186;-0.29833606;;;;;;;;;;;;;;;
1454.0;1361.5;;;;-0.27430347;1.0768129;-0.29565433;;;;;;;;;;;;;;;
1454.0;1361.5;;;;-0.271843;1.0704309;-0.29247287;;;;;;;;;;;;;;;
1454.0;1361.5;;;;-0.27042392;1.0641176;-0.29041293;;;;;;;;;;;;;;;
1454.0;1363.4;237648;237718;13851;;;;;;;;;;;;;;;;;;
1455.0;1369.6;;;;;;;;;;;;;2292;;;;;;;;
1455.0;1369.6;;;;;;;;;;;;;2772;;;;;;;;
1455.0;1369.6;;;;;;;;;;;;;-1845;;;;;;;;
1455.0;1369.6;;;;;;;;;;;;;-10714;;;;;;;;
1455.0;1369.6;;;;;;;;;;;;;-17019;;;;;;;;
1455.0;1371.6;;;;-0.26920703;1.0578805;-0.28673938;;;;;;;;;;;;;;;
1455.0;1371.6;;;;-0.2679558;1.0525628;-0.28410342;;;;;;;;;;;;;;;
1455.0;1371.6;;;;-0.2666779;1.0469247;-0.28137973;;;;;;;;;;;;;;;
1455.0;1371.6;;;;-0.26581958;1.0416642;-0.27948764;;;;;;;;;;;;;;;
1455.0;1371.6;;;;-0.26474002;1.0361177;-0.2781792;;;;;;;;;;;;;;;
1455.0;1375.0;;;;;;;;;;;;;;;;;-39.803764;-47.643208;74.30494;;1302.1
1455.0;1375.0;;;;;;;;;;;;;;0.634785;-0.88863796;-0.22058779;;;;;1302.1
1455.0;1375.0;;;;;;;;;;;;;;;;;-36.46199;-44.049656;73.141426;;1302.1
1455.0;1375.0;;;;;;;;;;;;;;0.67629015;-0.887112;-0.20227668;;;;;1302.1
1455.0;1375.0;;;;;;;;;;;;;;;;;-33.2461;-39.57869;72.28309;;1311.7
1455.0;1375.0;;;;;;;;;;;;;;0.7175512;-0.87228006;-0.18518631;;;;;1311.7
1455.0;1375.0;;;;;;;;;;;;;;;;;-30.220953;-34.154026;71.97409;;1311.7
1455.0;1375.0;;;;;;;;;;;;;;0.74831384;-0.8511002;-0.16046633;;;;;1311.7
1455.0;1375.0;;;;;;;;;;;;;;;;;-28.012177;-28.431807;71.89779;;1321.3
1455.0;1375.0;;;;;;;;;;;;;;0.7690054;-0.82485425;-0.13263345;;;;;1321.3
1455.0;1375.0;;;;;;;;;;;;;;;;;-25.91403;-23.25129;71.62694;;1321.3
1455.0;1375.0;;;;;;;;;;;;;;0.7810297;-0.7932371;-0.10345775;;;;;1321.3
1512.0;1381.5;;;;-0.26424792;1.0305787;-0.27662662;;;;;;;;;;;;;;;
1512.0;1381.5;;;;-0.2626877;1.0256234;-0.2760277;;;;;;;;;;;;;;;
1512.0;1381.5;;;;-0.2613831;1.0204965;-0.27513126;;;;;;;;;;;;;;;
1512.0;1381.5;;;;-0.26065066;1.0158578;-0.27406695;;;;;;;;;;;;;;;
1512.0;1381.5;;;;-0.26046756;1.0106851;-0.27351764;;;;;;;;;;;;;;;
1512.0;1383.4;254079;254117;13855;;;;;;;;;;;;;;;;;;
1512.0;1391.3;;;;-0.26003268;1.0062181;-0.27253345;;;;;;;;;;;;;;;
1512.0;1391.3;;;;-0.25913242;1.0021135;-0.27099994;;;;;;;;;;;;;;;
1512.0;1391.3;;;;-0.25883487;0.9977876;-0.27032855;;;;;;;;;;;;;;;
1512.0;1391.3;;;;-0.25813678;0.9933778;-0.26969913;;;;;;;;;;;;;;;
1512.0;1391.3;;;;-0.2577782;0.9890481;-0.26947024;;;;;;;;;;;;;;;
1512.0;1401.3;;;;-0.25687793;0.9852487;-0.26906207;;;;;;;;;;;;;;;
1512.0;1401.3;;;;-0.25617602;0.98144543;-0.2685471;;;;;;;;;;;;;;;
1512.0;1401.3;;;;-0.25646976;0.9779016;-0.2679787;;;;;;;;;;;;;;;
1512.0;1401.3;;;;-0.25623706;0.974743;-0.26757434;;;;;;;;;;;;;;;
1512.0;1401.3;;;;-0.25668338;0.971882;-0.2667885;;;;;;;;;;;;;;;
1512.0;1403.3;262143;262143;13853;;;;;;;;;;;;;;;;;;
1512.0;1409.6;;;;;;;;;;;;;-15296;;;;;;;;
1512.0;1409.6;;;;;;;;;;;;;-7872;;;;;;;;
1512.0;1409.6;;;;;;;;;;;;;-2092;;;;;;;;
1512.0;1409.6;;;;;;;;;;;;;-1264;;;;;;;;
1512.0;1409.6;;;;;;;;;;;;;-2384;;;;;;;;
1516.0;1411.5;;;;-0.2553902;0.9690362;-0.26622012;;;;;;;;;;;;;;;
1516.0;1411.5;;;;-0.2542267;0.96657956;-0.26592258;;;;;;;;;;;;;;;
1516.0;1411.5;;;;-0.2531815;0.9638101;-0.2652817;;;;;;;;;;;;;;;
1516.0;1411.5;;;;-0.25228885;0.9610101;-0.265667;;;;;;;;;;;;;;;
1516.0;1411.5;;;;-0.25150302;0.9584352;-0.266243;;;;;;;;;;;;;;;
1516.0;1420.1;;;;;;;;;;;;;;;;;-23.94177;-19.16944;71.48961;;1330.9
1516.0;1420.1;;;;;;;;;;;;;;0.784814;-0.7597278;-0.06823939;;;;;1330.9
1516.0;1420.1;;;;;;;;;;;;;;;;;-22.8164;-16.83096;71.73757;;1330.9
1516.0;1420.1;;;;;;;;;;;;;;0.77138585;-0.73628956;-0.042115543;;;;;1330.9
1516.0;1420.1;;;;;;;;;;;;;;;;;-23.34666;-15.499588;71.77953;;1340.5
1516.0;1420.1;;;;;;;;;;;;;;0.76198614;-0.72041994;-0.03216651;;;;;1340.5
1516.0;1420.1;;;;;;;;;;;;;;;;;-24.97177;-15.179143;71.607864;;1340.5
1516.0;1420.1;;;;;;;;;;;;;;0.74941254;-0.715598;-0.039613027;;;;;1340.5
1516.0;1420.1;;;;;;;;;;;;;;;;;-27.024141;-14.931181;71.10812;;1350.2
1516.0;1420.1;;;;;;;;;;;;;;0.7338481;-0.713889;-0.048402358;;;;;1350.2
1516.0;1420.1;;;;;;;;;;;;;;;;;-29.263435;-14.564959;70.83727;;1350.2
1516.0;1420.1;;;;;;;;;;;;;;0.7183447;-0.71645254;-0.06952117;;;;;1350.2
1516.0;1421.5;;;;-0.25103;0.9558526;-0.26654056;;;;;;;;;;;;;;;
1516.0;1421.5;;;;-0.25054935;0.95300686;-0.2663155;;;;;;;;;;;;;;;
1516.0;1421.5;;;;-0.25039676;0.9501382;-0.26670077;;;;;;;;;;;;;;;
1516.0;1421.5;;;;-0.25036624;0.9472238;-0.26755145;;;;;;;;;;;;;;;
1516.0;1421.5;;;;-0.24998859;0.94444287;-0.26783374;;;;;;;;;;;;;;;
1516.0;1423.5;262143;262143;13844;;;;;;;;;;;;;;;;;;
1595.0;1431.6;;;;-0.2509003;0.9423982;-0.267746;;;;;;;;;;;;;;;
1595.0;1431.6;;;;-0.2513161;0.9400064;-0.26755527;;;;;;;;;;;;;;;
1595.0;1431.6;;;;-0.25194553;0.93823636;-0.26773837;;;;;;;;;;;;;;;
1595.0;1431.6;;;;-0.2537308;0.93701184;-0.26705554;;;;;;;;;;;;;;;
1595.0;1431.6;;;;-0.25499728;0.9360696;-0.26688388;;;;;;;;;;;;;;;
1595.0;1441.7;;;;-0.2555199;0.93502057;-0.2661095;;;;;;;;;;;;;;;
1595.0;1441.7;;;;-0.25716403;0.93426144;-0.26534274;;;;;;;;;;;;;;;
1595.0;1441.7;;;;-0.25784305;0.93348324;-0.2648392;;;;;;;;;;;;;;;
1595.0;1441.7;;;;-0.2595673;0.9332696;-0.2644463;;;;;;;;;;;;;;;
1595.0;1441.7;;;;-0.2609177;0.933056;-0.26378635;;;;;;;;;;;;;;;
1595.0;1443.8;262143;262143;13827;;;;;;;;;;;;;;;;;;
1595.0;1449.9;;;;;;;;;;;;;-2202;;;;;;;;
1595.0;1449.9;;;;;;;;;;;;;-1319;;;;;;;;
1595.0;1449.9;;;;;;;;;;;;;-933;;;;;;;;
1595.0;1449.9;;;;;;;;;;;;;-389;;;;;;;;
1595.0;1449.9;;;;;;;;;;;;;410;;;;;;;;
1595.0;1451.5;;;;-0.2616463;0.9327203;-0.2629166;;;;;;;;;;;;;;;
1595.0;1451.5;;;;-0.26258472;0.9324571;-0.26270297;;;;;;;;;;;;;;;
1595.0;1451.5;;;;-0.2643433;0.93114483;-0.2619057;;;;;;;;;;;;;;;
1595.0;1451.5;;;;-0.265255;0.9297906;-0.261673;;;;;;;;;;;;;;;
1595.0;1451.5;;;;-0.26594928;0.9286157;-0.26206973;;;;;;;;;;;;;;;
1600.0;1461.7;;;;-0.26638034;0.9271966;-0.26117328;;;;;;;;;;;;;;;
1600.0;1461.7;;;;-0.2673798;0.92546475;-0.26141742;;;;;;;;;;;;;;;
1600.0;1461.7;;;;-0.26886752;0.92413723;-0.26033786;;;;;;;;;;;;;;;
1600.0;1461.7;;;;-0.2713242;0.92323315;-0.25901797;;;;;;;;;;;;;;;
1600.0;1461.7;;;;-0.27214816;0.92235196;-0.25825885;;;;;;;;;;;;;;;
1600.0;1463.8;262143;262143;13825;;;;;;;;;;;;;;;;;;
1600.0;1471.8;;;;-0.2729111;0.9207231;-0.2582436;;;;;;;;;;;;;;;
1600.0;1471.8;;;;-0.27392963;0.91954434;-0.257782;;;;;;;;;;;;;;;
1600.0;1471.8;;;;-0.2754059;0.9188005;-0.2573357;;;;;;;;;;;;;;;
1600.0;1471.8;;;;-0.27640918;0.9179574;-0.2567673;;;;;;;;;;;;;;;
1600.0;1471.8;;;;-0.27814487;0.9176942;-0.25632098;;;;;;;;;;;;;;;
1600.0;1480.5;;;;;;;;;;;;;;;;;-31.84225;-13.6227;70.45198;;1359.8
1600.0;1480.5;;;;;;;;;;;;;;0.69576097;-0.7190771;-0.07763909;;;;;1359.8
1600.0;1480.5;;;;;;;;;;;;;;;;;-34.653767;-12.9017;70.05905;;1359.8
1600.0;1480.5;;;;;;;;;;;;;;0.6738487;-0.7251808;-0.09088412;;;;;1359.8
1600.0;1480.5;;;;;;;;;;;;;;;;;-37.396618;-12.024293;69.784386;;1369.4
1600.0;1480.5;;;;;;;;;;;;;;0.6486404;-0.74330884;-0.104373306;;;;;1369.4
1600.0;1480.5;;;;;;;;;;;;;;;;;-39.193394;-10.933256;69.32661;;1369.4
1600.0;1480.5;;;;;;;;;;;;;;0.63203835;-0.7572253;-0.11346782;;;;;1369.4
1600.0;1480.5;;;;;;;;;;;;;;;;;-39.803764;-9.605701;68.97565;;1379.1
1600.0;1480.5;;;;;;;;;;;;;;0.619953;-0.77712333;-0.12475967;;;;;1379.1
1600.0;1480.5;;;;;;;;;;;;;;;;;-38.93399;-7.1718497;68.41105;;1379.1
1600.0;1480.5;;;;;;;;;;;;;;0.6140934;-0.7995849;-0.13531907;;;;;1379.1
1601.0;1481.3;;;;;;;;;;;;;;;;;-36.000397;-3.7957397;67.54128;;1388.7
1601.0;1481.3;;;;;;;;;;;;;;0.6082949;-0.81331825;-0.14404736;;;;;1388.7
1601.0;1481.3;;;;;;;;;;;;;;;;;-31.765953;-0.34333324;66.389206;;1388.7
1601.0;1481.3;;;;;;;;;;;;;;0.6039613;-0.8204596;-0.14233834;;;;;1388.7
1601.0;1481.3;;;;;;;;;;;;;;;;;-26.92114;2.803888;65.21424;;1398.4
1601.0;1481.3;;;;;;;;;;;;;;0.60322887;-0.82302314;-0.13757744;;;;;1398.4
1601.0;1481.3;;;;;;;;;;;;;;;;;-21.83981;5.3903317;63.76461;;1398.4
1601.0;1481.3;;;;;;;;;;;;;;0.598529;-0.81783503;-0.12512589;;;;;1398.4
1601.0;1481.3;;;;;;;;;;;;;;;;;-17.365032;6.9887385;62.07083;;1408.1
1601.0;1481.3;;;;;;;;;;;;;;0.5979186;-0.8103885;-0.11468856;;;;;1408.1
1601.0;1481.3;;;;;;;;;;;;;;;;;-14.042329;7.4198127;60.129093;;1408.1
1601.0;1481.3;;;;;;;;;;;;;;0.59846795;-0.80001223;-0.1159093;;;;;1408.1
1601.0;1481.7;;;;-0.2802315;0.91731656;-0.25568393;;;;;;;;;;;;;;;
1601.0;1481.7;;;;-0.28182986;0.91702664;-0.25465015;;;;;;;;;;;;;;;
1601.0;1481.7;;;;-0.2833939;0.91710675;-0.25398257;;;;;;;;;;;;;;;
1601.0;1481.7;;;;-0.28602222;0.9177171;-0.2541466;;;;;;;;;;;;;;;
1601.0;1481.7;;;;-0.28895953;0.9185983;-0.25249103;;;;;;;;;;;;;;;
1601.0;1483.9;262143;262143;13811;;;;;;;;;;;;;;;;;;
1602.0;1488.0;;;;;;;;;;;;;;;;;-11.719108;6.195257;58.16828;;1417.6
1602.0;1488.0;;;;;;;;;;;;;;0.59309673;-0.7889645;-0.13080233;;;;;1417.6
1602.0;1488.0;;;;;;;;;;;;;;;;;-10.311441;4.1848507;56.264687;;1417.6
1602.0;1488.0;;;;;;;;;;;;;;0.5938902;-0.7838984;-0.15521714;;;;;1417.6
1602.0;1488.0;;;;;;;;;;;;;;;;;-8.766441;2.7085178;54.40306;;1427.2
1602.0;1488.0;;;;;;;;;;;;;;0.59675896;-0.774926;-0.17432173;;;;;1427.2
1602.0;1488.0;;;;;;;;;;;;;;;;;-7.1565905;1.9150364;52.60628;;1427.2
1602.0;1488.0;;;;;;;;;;;;;;0.59315777;-0.7577746;-0.17493209;;;;;1427.2
1602.0;1488.0;;;;;;;;;;;;;;;;;-6.2181463;1.2741477;50.95065;;1436.8
1602.0;1488.0;;;;;;;;;;;;;;0.59035003;-0.74037904;-0.1652272;;;;;1436.8
1602.0;1488.0;;;;;;;;;;;;;;;;;-6.3859982;0.67522204;49.5468;;1436.8
1602.0;1488.0;;;;;;;;;;;;;;0.5912656;-0.72603536;-0.15448469;;;;;1436.8
1602.0;1490.0;;;;;;;;;;;;;993;;;;;;;;
1602.0;1490.0;;;;;;;;;;;;;1268;;;;;;;;
1602.0;1490.0;;;;;;;;;;;;;1109;;;;;;;;
1602.0;1490.0;;;;;;;;;;;;;699;;;;;;;;
1602.0;1490.0;;;;;;;;;;;;;481;;;;;;;;
1602.0;1491.7;;;;-0.2923279;0.9197961;-0.25143054;;;;;;;;;;;;;;;
1602.0;1491.7;;;;-0.29438403;0.92126477;-0.25107577;;;;;;;;;;;;;;;
1602.0;1491.7;;;;-0.2973099;0.9235383;-0.25098804;;;;;;;;;;;;;;;
1602.0;1491.7;;;;-0.30131534;0.9257623;-0.25008395;;;;;;;;;;;;;;;
1602.0;1491.7;;;;-0.30479053;0.92892087;-0.24991229;;;;;;;;;;;;;;;
1631.0;1501.7;;;;-0.3078499;0.93239987;-0.2495499;;;;;;;;;;;;;;;
1631.0;1501.7;;;;-0.31016162;0.93608487;-0.24922183;;;;;;;;;;;;;;;
1631.0;1501.7;;;;-0.31239322;0.9401628;-0.24989322;;;;;;;;;;;;;;;
1631.0;1501.7;;;;-0.31388095;0.94459546;-0.24964145;;;;;;;;;;;;;;;
1631.0;1501.7;;;;-0.31561664;0.94866955;-0.24821094;;;;;;;;;;;;;;;
1631.0;1503.9;262143;262143;13798;;;;;;;;;;;;;;;;;;
1631.0;1511.7;;;;-0.31824878;0.952366;-0.24667361;;;;;;;;;;;;;;;
1631.0;1511.7;;;;-0.3189316;0.9569169;-0.24579623;;;;;;;;;;;;;;;
1631.0;1511.7;;;;-0.32120898;0.9613191;-0.24549869;;;;;;;;;;;;;;;
1631.0;1511.7;;;;-0.32264712;0.96564496;-0.24576953;;;;;;;;;;;;;;;
1631.0;1511.7;;;;-0.32353976;0.97010434;-0.24448779;;;;;;;;;;;;;;;
1631.0;1521.6;;;;-0.32390597;0.97420895;-0.24358371;;;;;;;;;;;;;;;
1631.0;1521.6;;;;-0.32407382;0.97864544;-0.24208072;;;;;;;;;;;;;;;
1631.0;1521.6;;;;-0.32361224;0.9833528;-0.24042514;;;;;;;;;;;;;;;
1631.0;1521.6;;;;-0.32529834;0.98759854;-0.23781207;;;;;;;;;;;;;;;
1631.0;1521.6;;;;-0.32366565;0.99159634;-0.2351723;;;;;;;;;;;;;;;
1631.0;1523.9;262143;262143;13790;;;;;;;;;;;;;;;;;;
1631.0;1530.2;;;;;;;;;;;;;669;;;;;;;;
1631.0;1530.2;;;;;;;;;;;;;1157;;;;;;;;
1631.0;1530.2;;;;;;;;;;;;;1687;;;;;;;;
1631.0;1530.2;;;;;;;;;;;;;2078;;;;;;;;
1631.0;1530.2;;;;;;;;;;;;;2170;;;;;;;;
1633.0;1531.8;;;;-0.32389072;0.99458706;-0.2332268;;;;;;;;;;;;;;;
1633.0;1531.8;;;;-0.32304385;0.9980012;-0.23043063;;;;;;;;;;;;;;;
1633.0;1531.8;;;;-0.32181552;1.0023156;-0.22802356;;;;;;;;;;;;;;;
1633.0;1531.8;;;;-0.32085803;1.005787;-0.22521594;;;;;;;;;;;;;;;
1633.0;1531.8;;;;-0.3185158;1.0084344;-0.22190478;;;;;;;;;;;;;;;
1633.0;1540.7;;;;;;;;;;;;;;;;;-7.759331;-0.5836665;48.154392;;1446.5
1633.0;1540.7;;;;;;;;;;;;;;0.5872982;-0.7219459;-0.14575641;;;;;1446.5
1633.0;1540.7;;;;;;;;;;;;;;;;;-9.910886;-2.0409255;46.796318;;1446.5
1633.0;1540.7;;;;;;;;;;;;;;0.5845515;-0.72359383;-0.14331493;;;;;1446.5
1633.0;1540.7;;;;;;;;;;;;;;;;;-11.997589;-3.8872952;45.6061;;1456.0
1633.0;1540.7;;;;;;;;;;;;;;0.58278143;-0.72768337;-0.14484085;;;;;1456.0
1633.0;1540.7;;;;;;;;;;;;;;;;;-14.172032;-5.8290353;44.721058;;1456.0
1633.0;1540.7;;;;;;;;;;;;;;0.5775323;-0.73757136;-0.15210426;;;;;1456.0
1633.0;1540.7;;;;;;;;;;;;;;;;;-16.08707;-8.40785;44.080173;;1465.6
1633.0;1540.7;;;;;;;;;;;;;;0.5708182;-0.7509995;-0.16638692;;;;;1465.6
1633.0;1540.7;;;;;;;;;;;;;;;;;-17.597734;-11.013368;43.66436;;1465.6
1633.0;1540.7;;;;;;;;;;;;;;0.5612964;-0.7624134;-0.18903165;;;;;1465.6
1633.0;1541.8;;;;-0.313221;1.0125505;-0.21834186;;;;;;;;;;;;;;;
1633.0;1541.8;;;;-0.30985644;1.0146791;-0.21670535;;;;;;;;;;;;;;;
1633.0;1541.8;;;;-0.30651477;1.0168763;-0.21384814;;;;;;;;;;;;;;;
1633.0;1541.8;;;;-0.30424884;1.0188905;-0.21089938;;;;;;;;;;;;;;;
1633.0;1541.8;;;;-0.30102924;1.0216562;-0.20730594;;;;;;;;;;;;;;;
1633.0;1544.1;262143;262143;13777;;;;;;;;;;;;;;;;;;
1693.0;1548.2;;;;;;;;;;;;;;;;;-18.799402;-13.1801815;43.29051;;1475.3
1693.0;1548.2;;;;;;;;;;;;;;0.54499954;-0.77101964;-0.21015045;;;;;1475.3
1693.0;1548.2;;;;;;;;;;;;;;;;;-19.974363;-15.335551;42.88232;;1475.3
1693.0;1548.2;;;;;;;;;;;;;;0.5279702;-0.77498704;-0.23108615;;;;;1475.3
1693.0;1548.2;;;;;;;;;;;;;;;;;-20.958586;-16.98355;42.558064;;1484.8
1693.0;1548.2;;;;;;;;;;;;;;0.50825524;-0.7770623;-0.2412183;;;;;1484.8
1693.0;1548.2;;;;;;;;;;;;;;;;;-21.828365;-18.09366;42.424545;;1484.8
1693.0;1548.2;;;;;;;;;;;;;;0.4860378;-0.7766961;-0.23914304;;;;;1484.8
1693.0;1548.2;;;;;;;;;;;;;;;;;-22.274696;-19.138922;42.336803;;1494.4
1693.0;1548.2;;;;;;;;;;;;;;0.46784875;-0.7770623;-0.22840053;;;;;1494.4
1693.0;1548.2;;;;;;;;;;;;;;;;;-22.392956;-20.298624;42.432175;;1494.4
1693.0;1548.2;;;;;;;;;;;;;;0.45661795;-0.77895445;-0.21771905;;;;;1494.4
1693.0;1551.7;;;;-0.29941943;1.0228997;-0.205452;;;;;;;;;;;;;;;
1693.0;1551.7;;;;-0.29641345;1.0237962;-0.20299152;;;;;;;;;;;;;;;
1693.0;1551.7;;;;-0.29444125;1.0257035;-0.19998935;;;;;;;;;;;;;;;
1693.0;1551.7;;;;-0.29174426;1.0263978;-0.19590381;;;;;;;;;;;;;;;
1693.0;1551.7;;;;-0.2870789;1.0273286;-0.19267657;;;;;;;;;;;;;;;
1693.0;1561.7;;;;-0.282486;1.0279504;-0.18897632;;;;;;;;;;;;;;;
1693.0;1561.7;;;;-0.27666858;1.030182;-0.18515016;;;;;;;;;;;;;;;
1693.0;1561.7;;;;-0.27124026;1.031418;-0.18210603;;;;;;;;;;;;;;;
1693.0;1561.7;;;;-0.2657433;1.0346147;-0.17905046;;;;;;;;;;;;;;;
1693.0;1561.7;;;;-0.2602158;1.0376092;-0.17710115;;;;;;;;;;;;;;;
1693.0;1564.2;262143;262143;13774;;;;;;;;;;;;;;;;;;
1695.0;1570.3;;;;;;;;;;;;;1788;;;;;;;;
1695.0;1570.3;;;;;;;;;;;;;1070;;;;;;;;
1695.0;1570.3;;;;;;;;;;;;;517;;;;;;;;
1695.0;1570.3;;;;;;;;;;;;;372;;;;;;;;
1695.0;1570.3;;;;;;;;;;;;;424;;;;;;;;
1695.0;1571.6;;;;-0.25421146;1.0401498;-0.17435457;;;;;;;;;;;;;;;
1695.0;1571.6;;;;-0.24644855;1.0434076;-0.17044832;;;;;;;;;;;;;;;
1695.0;1571.6;;;;-0.24132922;1.0464708;-0.16747667;;;;;;;;;;;;;;;
1695.0;1571.6;;;;-0.23548892;1.0498658;-0.16468813;;;;;;;;;;;;;;;
1695.0;1571.6;;;;-0.2311745;1.0532457;-0.16436006;;;;;;;;;;;;;;;
1695.0;1581.7;;;;-0.22669986;1.0561868;-0.16057588;;;;;;;;;;;;;;;
1695.0;1581.7;;;;-0.2196236;1.059887;-0.15555574;;;;;;;;;;;;;;;
1695.0;1581.7;;;;-0.21055606;1.0626184;-0.15236665;;;;;;;;;;;;;;;
1695.0;1581.7;;;;-0.20127872;1.065281;-0.14978792;;;;;;;;;;;;;;;
1695.0;1581.7;;;;-0.19543079;1.0692598;-0.14910509;;;;;;;;;;;;;;;
1695.0;1584.2;262143;262143;13775;;;;;;;;;;;;;;;;;;
1695.0;1591.9;;;;-0.19075015;1.072632;-0.14837267;;;;;;;;;;;;;;;
1695.0;1591.9;;;;-0.18577577;1.076645;-0.14655687;;;;;;;;;;;;;;;
1695.0;1591.9;;;;-0.18123628;1.0797464;-0.14461137;;;;;;;;;;;;;;;
1695.0;1591.9;;;;-0.17111589;1.0819017;-0.13990022;;;;;;;;;;;;;;;
1695.0;1591.9;;;;-0.16240694;1.0844499;-0.13648988;;;;;;;;;;;;;;;
1697.0;1600.9;;;;;;;;;;;;;;;;;-22.18314;-21.542253;42.710655;;1504.0
1697.0;1600.9;;;;;;;;;;;;;;0.44587544;-0.7836543;-0.21192053;;;;;1504.0
1697.0;1600.9;;;;;;;;;;;;;;;;;-21.645254;-22.827845;43.15699;;1504.0
1697.0;1600.9;;;;;;;;;;;;;;0.44190803;-0.78811;-0.21887875;;;;;1504.0
1697.0;1600.9;;;;;;;;;;;;;;;;;-20.973846;-24.105808;43.79025;;1513.7
1697.0;1600.9;;;;;;;;;;;;;;0.4448378;-0.80184335;-0.2323069;;;;;1513.7
1697.0;1600.9;;;;;;;;;;;;;;;;;-20.76403;-25.425734;44.557022;;1513.7
1697.0;1600.9;;;;;;;;;;;;;;0.45637378;-0.8087405;-0.25415814;;;;;1513.7
1697.0;1600.9;;;;;;;;;;;;;;;;;-20.805994;-26.551104;45.40391;;1523.1
1697.0;1600.9;;;;;;;;;;;;;;0.47199926;-0.81771296;-0.27381206;;;;;1523.1
1697.0;1600.9;;;;;;;;;;;;;;;;;-20.619068;-27.188177;46.601765;;1523.1
1697.0;1600.9;;;;;;;;;;;;;;0.48951688;-0.8249153;-0.2773522;;;;;1523.1
1697.0;1601.9;;;;-0.15555955;1.0863916;-0.1343651;;;;;;;;;;;;;;;
1697.0;1601.9;;;;-0.14748003;1.0877229;-0.12897874;;;;;;;;;;;;;;;
1697.0;1601.9;;;;-0.1429062;1.0896035;-0.12719728;;;;;;;;;;;;;;;
1697.0;1601.9;;;;-0.13988496;1.090439;-0.12493135;;;;;;;;;;;;;;;
1697.0;1601.9;;;;-0.13348772;1.0908777;-0.11875154;;;;;;;;;;;;;;;
1697.0;1604.4;262143;262143;13764;;;;;;;;;;;;;;;;;;
1698.0;1608.8;;;;;;;;;;;;;;;;;-20.18418;-27.333141;48.108616;;1532.7
1698.0;1608.8;;;;;;;;;;;;;;0.51173437;-0.831019;-0.27112645;;;;;1532.7
1698.0;1608.8;;;;;;;;;;;;;;;;;-19.531845;-27.302622;49.790947;;1532.7
1698.0;1608.8;;;;;;;;;;;;;;0.5327311;-0.83437604;-0.26374096;;;;;1532.7
1698.0;1608.8;;;;;;;;;;;;;;;;;-19.024477;-27.233955;51.88528;;1542.3
1698.0;1608.8;;;;;;;;;;;;;;0.5526902;-0.8428602;-0.25415814;;;;;1542.3
1698.0;1608.8;;;;;;;;;;;;;;;;;-19.375439;-27.12714;53.81558;;1542.3
1698.0;1608.8;;;;;;;;;;;;;;0.5814997;-0.85006255;-0.25171667;;;;;1542.3
1698.0;1608.8;;;;;;;;;;;;;;;;;-20.680105;-26.760918;55.72298;;1552.0
1698.0;1608.8;;;;;;;;;;;;;;0.61256754;-0.86373484;-0.26319164;;;;;1552.0
1698.0;1608.8;;;;;;;;;;;;;;;;;-22.961363;-24.990843;57.51213;;1552.0
1698.0;1608.8;;;;;;;;;;;;;;0.63832515;-0.87203586;-0.26551104;;;;;1552.0
1698.0;1610.4;;;;;;;;;;;;;366;;;;;;;;
1698.0;1610.4;;;;;;;;;;;;;239;;;;;;;;
1698.0;1610.4;;;;;;;;;;;;;361;;;;;;;;
1698.0;1610.4;;;;;;;;;;;;;698;;;;;;;;
1698.0;1610.4;;;;;;;;;;;;;1011;;;;;;;;
1698.0;1611.8;;;;-0.12530138;1.0910913;-0.111827865;;;;;;;;;;;;;;;
1698.0;1611.8;;;;-0.12227251;1.0916482;-0.10815431;;;;;;;;;;;;;;;
1698.0;1611.8;;;;-0.11840822;1.0921899;-0.1043625;;;;;;;;;;;;;;;
1698.0;1611.8;;;;-0.11362459;1.0920717;-0.10150911;;;;;;;;;;;;;;;
1698.0;1611.8;;;;-0.10997392;1.0928727;-0.09738161;;;;;;;;;;;;;;;
1752.0;1621.8;;;;-0.10847475;1.0935708;-0.09442522;;;;;;;;;;;;;;;
1752.0;1621.8;;;;-0.10412218;1.0944787;-0.090133674;;;;;;;;;;;;;;;
1752.0;1621.8;;;;-0.0987549;1.0962526;-0.084838875;;;;;;;;;;;;;;;
1752.0;1621.8;;;;-0.09364701;1.0970651;-0.08304978;;;;;;;;;;;;;;;
1752.0;1621.8;;;;-0.090702064;1.0976983;-0.08404923;;;;;;;;;;;;;;;
1752.0;1624.4;262143;262143;13765;;;;;;;;;;;;;;;;;;
1752.0;1631.9;;;;-0.08605195;1.0978662;-0.0838852;;;;;;;;;;;;;;;
1752.0;1631.9;;;;-0.082363136;1.0973397;-0.081314094;;;;;;;;;;;;;;;
1752.0;1631.9;;;;-0.07870484;1.0964357;-0.07735444;;;;;;;;;;;;;;;
1752.0;1631.9;;;;-0.07421494;1.09544;-0.074321754;;;;;;;;;;;;;;;
1752.0;1631.9;;;;-0.068393715;1.0939256;-0.07270432;;;;;;;;;;;;;;;
1752.0;1641.8;;;;-0.060413368;1.0929147;-0.06523133;;;;;;;;;;;;;;;
1752.0;1641.8;;;;-0.052265175;1.0916864;-0.058761604;;;;;;;;;;;;;;;
1752.0;1641.8;;;;-0.04830552;1.090748;-0.056667335;;;;;;;;;;;;;;;
1752.0;1641.8;;;;-0.04765702;1.0890962;-0.05523301;;;;;;;;;;;;;;;
1752.0;1641.8;;;;-0.045486454;1.0876046;-0.052532203;;;;;;;;;;;;;;;
1752.0;1644.4;262143;262143;13754;;;;;;;;;;;;;;;;;;
1752.0;1650.6;;;;;;;;;;;;;1324;;;;;;;;
1752.0;1650.6;;;;;;;;;;;;;1562;;;;;;;;
1752.0;1650.6;;;;;;;;;;;;;1605;;;;;;;;
1752.0;1650.6;;;;;;;;;;;;;1623;;;;;;;;
1752.0;1650.6;;;;;;;;;;;;;1782;;;;;;;;
1810.0;1651.9;;;;-0.044975284;1.0862428;-0.05091477;;;;;;;;;;;;;;;
1810.0;1651.9;;;;-0.045162205;1.0840455;-0.049633034;;;;;;;;;;;;;;;
1810.0;1651.9;;;;-0.046112064;1.0811197;-0.04852677;;;;;;;;;;;;;;;
1810.0;1651.9;;;;-0.04771424;1.0783159;-0.049892433;;;;;;;;;;;;;;;
1810.0;1651.9;;;;-0.052547462;1.0760614;-0.052085884;;;;;;;;;;;;;;;
1810.0;1661.1;;;;;;;;;;;;;;;;;-25.784325;-22.560808;59.44243;;1561.6
1810.0;1661.1;;;;;;;;;;;;;;0.6679281;-0.88375497;-0.27259132;;;;;1561.6
1810.0;1661.1;;;;;;;;;;;;;;;;;-28.55388;-18.299662;61.13239;;1561.6
1810.0;1661.1;;;;;;;;;;;;;;0.69411296;-0.9051179;-0.26532793;;;;;1561.6
1810.0;1661.1;;;;;;;;;;;;;;;;;-30.724508;-12.348553;62.047943;;1571.3
1810.0;1661.1;;;;;;;;;;;;;;0.7182226;-0.915067;-0.25037384;;;;;1571.3
1810.0;1661.1;;;;;;;;;;;;;;;;;-33.37199;-5.5810723;63.24961;;1571.3
1810.0;1661.1;;;;;;;;;;;;;;0.7430036;-0.92751855;-0.23859371;;;;;1571.3
1810.0;1661.1;;;;;;;;;;;;;;;;;-36.557358;1.6937773;64.3292;;1580.7
1810.0;1661.1;;;;;;;;;;;;;;0.7505722;-0.94051945;-0.22144231;;;;;1580.7
1810.0;1661.1;;;;;;;;;;;;;;;;;-39.59395;8.766441;64.80224;;1580.7
1810.0;1661.1;;;;;;;;;;;;;;0.7621082;-0.9565722;-0.2070986;;;;;1580.7
1810.0;1661.9;;;;-0.05321122;1.0736276;-0.047920235;;;;;;;;;;;;;;;
1810.0;1661.9;;;;-0.054245003;1.071293;-0.043716434;;;;;;;;;;;;;;;
1810.0;1661.9;;;;-0.055503853;1.0690652;-0.040225986;;;;;;;;;;;;;;;
1810.0;1661.9;;;;-0.05540467;1.0678064;-0.036773685;;;;;;;;;;;;;;;
1810.0;1661.9;;;;-0.053173073;1.0672685;-0.03128815;;;;;;;;;;;;;;;
1810.0;1664.6;262143;262143;13748;;;;;;;;;;;;;;;;;;
1872.0;1668.6;;;;;;;;;;;;;;;;;-42.28721;15.488144;65.15702;;1590.3
1872.0;1668.6;;;;;;;;;;;;;;0.75661486;-0.9733573;-0.1864681;;;;;1590.3
1872.0;1668.6;;;;;;;;;;;;;;;;;-44.946133;21.397291;66.14506;;1590.3
1872.0;1668.6;;;;;;;;;;;;;;0.764977;-0.9783624;-0.17035432;;;;;1590.3
1872.0;1668.6;;;;;;;;;;;;;;;;;-48.123875;27.180548;67.289505;;1600.0
1872.0;1668.6;;;;;;;;;;;;;;0.76955473;-0.99069184;-0.15906247;;;;;1600.0
1872.0;1668.6;;;;;;;;;;;;;;;;;-50.86291;31.674397;68.15164;;1600.0
1872.0;1668.6;;;;;;;;;;;;;;0.7871334;-0.9863582;-0.14374217;;;;;1600.0
1872.0;1668.6;;;;;;;;;;;;;;;;;-53.266243;35.52736;69.54024;;1609.7
1872.0;1668.6;;;;;;;;;;;;;;0.79677725;-0.99649036;-0.13135166;;;;;1609.7
1872.0;1668.6;;;;;;;;;;;;;;;;;-55.26139;38.89966;70.520645;;1609.7
1872.0;1668.6;;;;;;;;;;;;;;0.80666524;-1.010651;-0.122318186;;;;;1609.7
1872.0;1671.9;;;;-0.053718574;1.0668718;-0.028179172;;;;;;;;;;;;;;;
1872.0;1671.9;;;;-0.0538292;1.0672456;-0.027164463;;;;;;;;;;;;;;;
1872.0;1671.9;;;;-0.052688606;1.0677568;-0.027854923;;;;;;;;;;;;;;;
1872.0;1671.9;;;;-0.053874977;1.0686494;-0.028934482;;;;;;;;;;;;;;;
1872.0;1671.9;;;;-0.0560875;1.0699846;-0.03023148;;;;;;;;;;;;;;;
1872.0;1682.0;;;;-0.056488045;1.0714532;-0.031982426;;;;;;;;;;;;;;;
1872.0;1682.0;;;;-0.05295182;1.0715791;-0.03348923;;;;;;;;;;;;;;;
1872.0;1682.0;;;;-0.052169807;1.0720712;-0.036754612;;;;;;;;;;;;;;;
1872.0;1682.0;;;;-0.052120216;1.0722162;-0.03944016;;;;;;;;;;;;;;;
1872.0;1682.0;;;;-0.051673897;1.0719568;-0.039234165;;;;;;;;;;;;;;;
1872.0;1684.8;262143;262143;13744;;;;;;;;;;;;;;;;;;
1874.0;1690.9;;;;;;;;;;;;;1989;;;;;;;;
1874.0;1690.9;;;;;;;;;;;;;2089;;;;;;;;
1874.0;1690.9;;;;;;;;;;;;;2055;;;;;;;;
1874.0;1690.9;;;;;;;;;;;;;2309;;;;;;;;
1874.0;1690.9;;;;;;;;;;;;;2755;;;;;;;;
1874.0;1692.0;;;;-0.05251313;1.0720521;-0.040630344;;;;;;;;;;;;;;;
1874.0;1692.0;;;;-0.052890785;1.0712243;-0.040771488;;;;;;;;;;;;;;;
1874.0;1692.0;;;;-0.05202485;1.0701448;-0.039646152;;;;;;;;;;;;;;;
1874.0;1692.0;;;;-0.053176887;1.069378;-0.038013462;;;;;;;;;;;;;;;
1874.0;1692.0;;;;-0.052925117;1.06802;-0.037456516;;;;;;;;;;;;;;;
1874.0;1702.1;;;;-0.05530549;1.0669633;-0.037025455;;;;;;;;;;;;;;;
1874.0;1702.1;;;;-0.055126198;1.0659066;-0.03301621;;;;;;;;;;;;;;;
1874.0;1702.1;;;;-0.056934364;1.0648233;-0.030399326;;;;;;;;;;;;;;;
1874.0;1702.1;;;;-0.059913643;1.0638963;-0.025764469;;;;;;;;;;;;;;;
1874.0;1702.1;;;;-0.06339265;1.06382;-0.019721987;;;;;;;;;;;;;;;
1874.0;1704.9;262143;262143;13742;;;;;;;;;;;;;;;;;;
1874.0;1712.3;;;;-0.06482316;1.0637399;-0.011260987;;;;;;;;;;;;;;;
1874.0;1712.3;;;;-0.067379005;1.0650483;-0.002838135;;;;;;;;;;;;;;;
1874.0;1712.3;;;;-0.07312394;1.0673639;0.0033760075;;;;;;;;;;;;;;;
1874.0;1712.3;;;;-0.07952119;1.0706521;0.0107917795;;;;;;;;;;;;;;;
1874.0;1712.3;;;;-0.08560563;1.073929;0.019462587;;;;;;;;;;;;;;;
1892.0;1721.6;;;;;;;;;;;;;;;;;-57.088688;42.08884;70.9975;;1619.4
1892.0;1721.6;;;;;;;;;;;;;;0.82180244;-1.0209662;-0.13153477;;;;;1619.4
1892.0;1721.6;;;;;;;;;;;;;;;;;-60.171055;45.373394;71.18061;;1619.4
1892.0;1721.6;;;;;;;;;;;;;;0.8355968;-1.0246284;-0.16223639;;;;;1619.4
1892.0;1721.6;;;;;;;;;;;;;;;;;-63.98587;49.64217;70.734276;;1628.9
1892.0;1721.6;;;;;;;;;;;;;;0.85006255;-1.022248;-0.18707846;;;;;1628.9
1892.0;1721.6;;;;;;;;;;;;;;;;;-66.22135;54.589985;70.150604;;1628.9
1892.0;1721.6;;;;;;;;;;;;;;0.8530534;-1.0332958;-0.18408765;;;;;1628.9
1892.0;1721.6;;;;;;;;;;;;;;;;;-66.41591;60.254982;68.72386;;1638.6
1892.0;1721.6;;;;;;;;;;;;;;0.8625752;-1.040437;-0.15833002;;;;;1638.6
1892.0;1721.6;;;;;;;;;;;;;;;;;-66.633354;64.57717;66.78595;;1638.6
1892.0;1721.6;;;;;;;;;;;;;;0.86867887;-1.0411695;-0.1525315;;;;;1638.6
1892.0;1722.2;;;;-0.09148026;1.0782357;0.027046207;;;;;;;;;;;;;;;
1892.0;1722.2;;;;-0.0982361;1.0836374;0.032283787;;;;;;;;;;;;;;;
1892.0;1722.2;;;;-0.10425569;1.0893213;0.03739548;;;;;;;;;;;;;;;
1892.0;1722.2;;;;-0.11192705;1.0953485;0.04270554;;;;;;;;;;;;;;;
1892.0;1722.2;;;;-0.11724855;1.1009446;0.048690803;;;;;;;;;;;;;;;
1894.0;1722.7;;;;;;;;;;;;;;;;;-67.23228;66.389206;64.062164;;1648.2
1894.0;1722.7;;;;;;;;;;;;;;0.87759024;-1.0406811;-0.16394544;;;;;1648.2
1894.0;1722.7;;;;;;;;;;;;;;;;;-67.84646;66.167946;60.235905;;1648.2
1894.0;1722.7;;;;;;;;;;;;;;0.8768578;-1.0684531;-0.19153416;;;;;1648.2
1894.0;1722.7;;;;;;;;;;;;;;;;;-66.02298;66.412094;55.185093;;1657.8
1894.0;1722.7;;;;;;;;;;;;;;0.8776513;-1.1100802;-0.20441298;;;;;1657.8
1894.0;1722.7;;;;;;;;;;;;;;;;;-61.50624;67.99142;48.924988;;1657.8
1894.0;1722.7;;;;;;;;;;;;;;0.88302255;-1.1349834;-0.20374157;;;;;1657.8
1894.0;1722.7;;;;;;;;;;;;;;;;;-56.08539;70.34135;42.023987;;1667.4
1894.0;1722.7;;;;;;;;;;;;;;0.89278847;-1.1692861;-0.19574572;;;;;1667.4
1894.0;1722.7;;;;;;;;;;;;;;;;;-48.677025;73.30546;34.184544;;1667.4
1894.0;1722.7;;;;;;;;;;;;;;0.92013305;-1.1901609;-0.19721061;;;;;1667.4
1894.0;1725.0;262143;262143;13736;;;;;;;;;;;;;;;;;;
1894.0;1731.0;;;;;;;;;;;;;2763;;;;;;;;
1894.0;1731.0;;;;;;;;;;;;;2425;;;;;;;;
1894.0;1731.0;;;;;;;;;;;;;2315;;;;;;;;
1894.0;1731.0;;;;;;;;;;;;;2617;;;;;;;;
1894.0;1731.0;;;;;;;;;;;;;2863;;;;;;;;
1894.0;1732.1;;;;-0.12238313;1.1072236;0.050788887;;;;;;;;;;;;;;;
1894.0;1732.1;;;;-0.13027193;1.1150628;0.055011757;;;;;;;;;;;;;;;
1894.0;1732.1;;;;-0.14009859;1.1138879;0.062393196;;;;;;;;;;;;;;;
1894.0;1732.1;;;;-0.1465912;1.1086274;0.07012559;;;;;;;;;;;;;;;
1894.0;1732.1;;;;-0.15231325;1.111889;0.07933045;;;;;;;;;;;;;;;
1895.0;1741.4;;;;;;;;;;1.0490738;19.15418;-2.0828884;;;;;;;;;
1895.0;1741.4;;;;;;;0.4455092;-1.0561235;-0.0044557024;;;;;;;;;;;;
1895.0;1741.4;;;;;;;;;;4.5129247;32.979065;5.466628;;;;;;;;;
1895.0;1741.4;;;;;;;0.45631275;-1.1929075;-0.026917325;;;;;;;;;;;;
1895.0;1742.1;;;;-0.15952303;1.1140023;0.086792;;;;;;;;;;;;;;;
1895.0;1742.1;;;;-0.16738512;1.1163179;0.093009956;;;;;;;;;;;;;;;
1895.0;1742.1;;;;-0.17104341;1.1147653;0.09410478;;;;;;;;;;;;;;;
1895.0;1742.1;;;;-0.17545702;1.1110765;0.0933075;;;;;;;;;;;;;;;
1895.0;1742.1;;;;-0.1796837;1.1057168;0.09389497;;;;;;;;;;;;;;;
1895.0;1745.0;262143;262143;13738;;;;;;;;;;;;;;;;;;
1895.0;1751.0;;;;;;;;;;-0.82018495;13.126774;-1.1444441;;;;;;;;;
1895.0;1751.0;;;;;;;0.42732018;-1.1883907;-0.039796136;;;;;;;;;;;;
1895.0;1751.0;;;;;;;;;;-1.6365551;44.15647;-3.0251474;;;;;;;;;
1895.0;1751.0;;;;;;;0.45051423;-1.1713614;-0.040467545;;;;;;;;;;;;
1895.0;1752.1;;;;-0.18296434;1.0990869;0.0939026;;;;;;;;;;;;;;;
1895.0;1752.1;;;;-0.18527986;1.0933038;0.09455873;;;;;;;;;;;;;;;
1895.0;1752.1;;;;-0.18763354;1.0859414;0.09370423;;;;;;;;;;;;;;;
1895.0;1752.1;;;;-0.19095996;1.0765954;0.091335304;;;;;;;;;;;;;;;
1895.0;1752.1;;;;-0.19248965;1.0651208;0.08939744;;;;;;;;;;;;;;;
1895.0;1760.5;;;;;;;;;;-6.698813;68.20505;-14.099551;;;;;;;;;
1895.0;1760.5;;;;;;;0.43964964;-1.1532334;-0.045594655;;;;;;;;;;;;
1895.0;1760.5;;;;;;;;;;-15.02655;55.108795;-47.933136;;;;;;;;;
1895.0;1760.5;;;;;;;0.42567217;-1.1469467;-0.054750208;;;;;;;;;;;;
1897.0;1762.2;;;;-0.15883256;1.0432473;0.08522416;;;;;;;;;;;;;;;
1897.0;1762.2;;;;-0.17747118;1.0276185;0.065925606;;;;;;;;;;;;;;;
1897.0;1762.2;;;;-0.2122536;1.0257722;0.06321717;;;;;;;;;;;;;;;
1897.0;1762.2;;;;-0.1952019;1.0226175;0.064056404;;;;;;;;;;;;;;;
1897.0;1762.2;;;;-0.16828538;1.0141107;0.070781715;;;;;;;;;;;;;;;
1897.0;1765.2;262143;262143;13739;;;;;;;;;;;;;;;;;;
1897.0;1770.2;;;;;;;;;;-16.750847;76.10554;-61.28498;;;;;;;;;
1897.0;1770.2;;;;;;;0.38410595;-1.1282083;-0.065187536;;;;;;;;;;;;
1897.0;1770.2;;;;;;;;;;-18.009735;96.2859;-71.66509;;;;;;;;;
1897.0;1770.2;;;;;;;0.36249885;-1.1055025;-0.06860561;;;;;;;;;;;;
1897.0;1771.3;;;;;;;;;;;;;2768;;;;;;;;
1897.0;1771.3;;;;;;;;;;;;;2496;;;;;;;;
1897.0;1771.3;;;;;;;;;;;;;2147;;;;;;;;
1897.0;1771.3;;;;;;;;;;;;;1625;;;;;;;;
1897.0;1771.3;;;;;;;;;;;;;780;;;;;;;;
1897.0;1772.4;;;;-0.17694856;1.0092813;0.077137;;;;;;;;;;;;;;;
1897.0;1772.4;;;;-0.17924882;1.0057489;0.07542802;;;;;;;;;;;;;;;
1897.0;1772.4;;;;-0.16756059;1.0003129;0.07027436;;;;;;;;;;;;;;;
1897.0;1772.4;;;;-0.16023637;0.9945451;0.06677628;;;;;;;;;;;;;;;
1897.0;1772.4;;;;-0.15505983;0.99074566;0.0620308;;;;;;;;;;;;;;;
1897.0;1779.8;;;;;;;;;;-20.222326;116.9393;-74.228645;;;;;;;;;
1897.0;1779.8;;;;;;;0.34284493;-1.0702841;-0.05694754;;;;;;;;;;;;
1897.0;1779.8;;;;;;;;;;-20.970032;124.87029;-66.26713;;;;;;;;;
1897.0;1779.8;;;;;;;0.3386334;-1.0990325;-0.039674062;;;;;;;;;;;;
1899.0;1782.3;;;;;;;;;;;;;;;;;-36.557358;76.18946;27.172918;;1677.1
1899.0;1782.3;;;;;;;;;;;;;;0.9325846;-1.2048097;-0.18024231;;;;;1677.1
1899.0;1782.3;;;;;;;;;;;;;;;;;-20.855587;76.815094;20.847958;;1677.1
1899.0;1782.3;;;;;;;;;;;;;;0.9209266;-1.1833857;-0.17273477;;;;;1677.1
1899.0;1782.3;;;;;;;;;;;;;;;;;-6.1342206;76.044495;13.355663;;1686.5
1899.0;1782.3;;;;;;;;;;;;;;0.85549486;-1.1562243;-0.16638692;;;;;1686.5
1899.0;1782.3;;;;;;;;;;;;;;;;;4.589221;73.286385;3.9902954;;1686.5
1899.0;1782.3;;;;;;;;;;;;;;0.7698599;-1.1386455;-0.16663106;;;;;1686.5
1899.0;1782.3;;;;;;;;;;;;;;;;;11.650441;70.69613;-6.7293315;;1696.2
1899.0;1782.3;;;;;;;;;;;;;;0.7081515;-1.1389508;-0.15308085;;;;;1696.2
1899.0;1782.3;;;;;;;;;;;;;;;;;17.319254;70.005646;-17.77703;;1696.2
1899.0;1782.3;;;;;;;;;;;;;;0.6772668;-1.1499374;-0.14465773;;;;;1696.2
1899.0;1782.5;;;;-0.14823152;0.9879533;0.055919655;;;;;;;;;;;;;;;
1899.0;1782.5;;;;-0.13964464;0.9881631;0.05176545;;;;;;;;;;;;;;;
1899.0;1782.5;;;;-0.1316681;0.98620236;0.048603065;;;;;;;;;;;;;;;
1899.0;1782.5;;;;-0.12818529;0.98345196;0.047451027;;;;;;;;;;;;;;;
1899.0;1782.5;;;;-0.12768556;0.9825059;0.04636765;;;;;;;;;;;;;;;
1900.0;1783.1;;;;;;;;;;;;;;;;;23.892178;71.67654;-28.275398;;1705.9
1900.0;1783.1;;;;;;;;;;;;;;0.6684774;-1.1645253;-0.14075136;;;;;1705.9
1900.0;1783.1;;;;;;;;;;;;;;;;;30.30488;74.949646;-38.377026;;1705.9
1900.0;1783.1;;;;;;;;;;;;;;0.6747032;-1.1776482;-0.13837092;;;;;1705.9
1900.0;1783.1;;;;;;;;;;;;;;;;;35.847805;78.94375;-48.07047;;1715.6
1900.0;1783.1;;;;;;;;;;;;;;0.68660545;-1.2005981;-0.13653982;;;;;1715.6
1900.0;1783.1;;;;;;;;;;;;;;;;;40.95584;84.2082;-57.714317;;1715.6
1900.0;1783.1;;;;;;;;;;;;;;0.7001556;-1.2144536;-0.13776055;;;;;1715.6
1900.0;1783.1;;;;;;;;;;;;;;;;;45.304726;91.17404;-67.411575;;1725.2
1900.0;1783.1;;;;;;;;;;;;;;0.7290872;-1.2285532;-0.13989685;;;;;1725.2
1900.0;1783.1;;;;;;;;;;;;;;;;;49.569687;100.30671;-77.436905;;1725.2
1900.0;1783.1;;;;;;;;;;;;;;0.76613665;-1.211829;-0.13696708;;;;;1725.2
1900.0;1785.3;262143;262143;13741;;;;;;;;;;;;;;;;;;
1900.0;1789.3;;;;;;;;;;-19.077885;124.881744;-66.40065;;;;;;;;;
1900.0;1789.3;;;;;;;0.37086093;-1.1221656;-0.04870754;;;;;;;;;;;;
1900.0;1789.3;;;;;;;;;;-14.877774;124.881744;-69.08627;;;;;;;;;
1900.0;1789.3;;;;;;;0.32837915;-1.1026947;-0.08703879;;;;;;;;;;;;
1900.0;1792.5;;;;-0.12241365;0.98005307;0.04602051;;;;;;;;;;;;;;;
1900.0;1792.5;;;;-0.12047197;0.9783288;0.04586411;;;;;;;;;;;;;;;
1900.0;1792.5;;;;-0.1166649;0.97626126;0.04546738;;;;;;;;;;;;;;;
1900.0;1792.5;;;;-0.11549379;0.9756433;0.04463959;;;;;;;;;;;;;;;
1900.0;1792.5;;;;-0.113906875;0.9750482;0.043739323;;;;;;;;;;;;;;;
1901.0;1798.8;;;;;;;;;;-15.945921;124.881744;-71.17298;;;;;;;;;
1901.0;1798.8;;;;;;;0.2992645;-1.0925627;-0.10504471;;;;;;;;;;;;
1901.0;1798.8;;;;;;;;;;-24.044771;124.881744;-75.94913;;;;;;;;;
1901.0;1798.8;;;;;;;0.28186896;-1.1383404;-0.0822779;;;;;;;;;;;;
1901.0;1802.5;;;;-0.11312868;0.9744836;0.044853214;;;;;;;;;;;;;;;
1901.0;1802.5;;;;-0.11288835;0.9744073;0.045982365;;;;;;;;;;;;;;;
1901.0;1802.5;;;;-0.113979355;0.9745332;0.047763832;;;;;;;;;;;;;;;
1901.0;1802.5;;;;-0.11550142;0.97565854;0.04992295;;;;;;;;;;;;;;;
1901.0;1802.5;;;;-0.116863266;0.9767915;0.052539833;;;;;;;;;;;;;;;
1901.0;1805.5;262143;262143;13747;;;;;;;;;;;;;;;;;;
1901.0;1808.5;;;;;;;;;;-27.72225;123.45119;-80.24079;;;;;;;;;
1901.0;1808.5;;;;;;;0.23780023;-1.2033448;-0.057985168;;;;;;;;;;;;
1901.0;1808.5;;;;;;;;;;-22.778252;112.19749;-85.28397;;;;;;;;;
1901.0;1808.5;;;;;;;0.2527543;-1.2331309;-0.07910398;;;;;;;;;;;;
1901.0;1811.6;;;;;;;;;;;;;8;;;;;;;;
1901.0;1811.6;;;;;;;;;;;;;-414;;;;;;;;
1901.0;1811.6;;;;;;;;;;;;;-680;;;;;;;;
1901.0;1811.6;;;;;;;;;;;;;-738;;;;;;;;
1901.0;1811.6;;;;;;;;;;;;;-717;;;;;;;;
1901.0;1812.5;;;;-0.11871721;0.9781457;0.055595405;;;;;;;;;;;;;;;
1901.0;1812.5;;;;-0.121582046;0.9798089;0.0589943;;;;;;;;;;;;;;;
1901.0;1812.5;;;;-0.1263733;0.98178875;0.0631218;;;;;;;;;;;;;;;
1901.0;1812.5;;;;-0.13038255;0.9836465;0.06694413;;;;;;;;;;;;;;;
1901.0;1812.5;;;;-0.13448717;0.98490155;0.07094193;;;;;;;;;;;;;;;
1929.0;1817.9;;;;;;;;;;-15.060884;97.89575;-91.456345;;;;;;;;;
1929.0;1817.9;;;;;;;0.24872585;-1.2505264;-0.11548204;;;;;;;;;;;;
1929.0;1817.9;;;;;;;;;;-9.140294;87.46605;-96.19434;;;;;;;;;
1929.0;1817.9;;;;;;;0.2730186;-1.2633442;-0.15735343;;;;;;;;;;;;
1929.0;1822.0;;;;-0.13832475;0.986416;0.07608796;;;;;;;;;;;;;;;
1929.0;1822.0;;;;-0.14486696;0.9885751;0.08074189;;;;;;;;;;;;;;;
1929.0;1822.0;;;;-0.15197755;0.9892999;0.08676148;;;;;;;;;;;;;;;
1929.0;1822.0;;;;-0.15824892;0.9903604;0.09253693;;;;;;;;;;;;;;;
1929.0;1822.0;;;;-0.1619301;0.99121106;0.09965135;;;;;;;;;;;;;;;
1929.0;1825.1;262143;262143;13737;;;;;;;;;;;;;;;;;;
1929.0;1827.1;;;;;;;;;;-6.023591;84.547714;-100.37156;;;;;;;;;
1929.0;1827.1;;;;;;;0.3094577;-1.2764672;-0.17145298;;;;;;;;;;;;
1929.0;1827.1;;;;;;;;;;-3.7041843;84.74227;-103.99182;;;;;;;;;
1929.0;1827.1;;;;;;;0.31629384;-1.2781762;-0.1612598;;;;;;;;;;;;
1929.0;1832.1;;;;-0.17036058;0.9930078;0.105289474;;;;;;;;;;;;;;;
1929.0;1832.1;;;;-0.17979814;0.9935609;0.11079408;;;;;;;;;;;;;;;
1929.0;1832.1;;;;-0.18801883;0.99453366;0.116382614;;;;;;;;;;;;;;;
1929.0;1832.1;;;;-0.20086673;0.9972154;0.121799484;;;;;;;;;;;;;;;
1929.0;1832.1;;;;-0.20589831;0.99637234;0.12898256;;;;;;;;;;;;;;;
1929.0;1836.7;;;;;;;;;;0.5645924;83.04468;-105.0943;;;;;;;;;
1929.0;1836.7;;;;;;;0.3463851;-1.2966094;-0.17011017;;;;;;;;;;;;
1929.0;1836.7;;;;;;;;;;4.234443;78.17697;-107.61971;;;;;;;;;
1929.0;1836.7;;;;;;;0.3668325;-1.3013703;-0.19568469;;;;;;;;;;;;
1931.0;1841.8;;;;;;;;;;;;;;;;;53.930023;110.83178;-87.9162;;1734.9
1931.0;1841.8;;;;;;;;;;;;;;0.7970824;-1.1775872;-0.13507493;;;;;1734.9
1931.0;1841.8;;;;;;;;;;;;;;;;;59.07239;121.223335;-98.73882;;1734.9
1931.0;1841.8;;;;;;;;;;;;;;0.8123417;-1.1381572;-0.12207404;;;;;1734.9
1931.0;1841.8;;;;;;;;;;;;;;;;;65.25239;124.931335;-109.721664;;1744.4
1931.0;1841.8;;;;;;;;;;;;;;0.7972655;-1.1070894;-0.10235908;;;;;1744.4
1931.0;1841.8;;;;;;;;;;;;;;;;;70.970795;124.988556;-120.45655;;1744.4
1931.0;1841.8;;;;;;;;;;;;;;0.8265633;-1.0593585;-0.09723197;;;;;1744.4
1931.0;1841.8;;;;;;;;;;;;;;;;;75.521866;124.988556;-124.84359;;1753.9
1931.0;1841.8;;;;;;;;;;;;;;0.8103885;-1.0217597;-0.0910062;;;;;1753.9
1931.0;1841.8;;;;;;;;;;;;;;;;;79.69527;124.988556;-124.988556;;1753.9
1931.0;1841.8;;;;;;;;;;;;;;0.7919553;-1.0166936;-0.10852382;;;;;1753.9
1931.0;1842.2;;;;-0.21233752;0.99683774;0.13689424;;;;;;;;;;;;;;;
1931.0;1842.2;;;;-0.22702411;0.9978334;0.14357759;;;;;;;;;;;;;;;
1931.0;1842.2;;;;-0.23677066;0.9982339;0.15006639;;;;;;;;;;;;;;;
1931.0;1842.2;;;;-0.24861148;0.9992372;0.15806963;;;;;;;;;;;;;;;
1931.0;1842.2;;;;-0.25831226;0.9989549;0.1646042;;;;;;;;;;;;;;;
1931.0;1845.3;262143;262143;13742;;;;;;;;;;;;;;;;;;
1931.0;1846.2;;;;;;;;;;4.989776;72.84005;-111.033966;;;;;;;;;
1931.0;1846.2;;;;;;;0.36689353;-1.2939237;-0.21851254;;;;;;;;;;;;
1931.0;1846.2;;;;;;;;;;4.1772213;69.63179;-112.2013;;;;;;;;;
1931.0;1846.2;;;;;;;0.3614002;-1.2902005;-0.22681357;;;;;;;;;;;;
1932.0;1849.2;;;;;;;;;;;;;;;;;84.74227;124.553665;-124.988556;;1763.5
1932.0;1849.2;;;;;;;;;;;;;;0.8593402;-0.96591085;-0.123661004;;;;;1763.5
1932.0;1849.2;;;;;;;;;;;;;;;;;88.339645;117.54585;-124.988556;;1763.5
1932.0;1849.2;;;;;;;;;;;;;;0.9267861;-0.9338664;-0.14380322;;;;;1763.5
1932.0;1849.2;;;;;;;;;;;;;;;;;90.113525;103.76675;-124.988556;;1773.1
1932.0;1849.2;;;;;;;;;;;;;;0.98391676;-0.92306286;-0.17267373;;;;;1773.1
1932.0;1849.2;;;;;;;;;;;;;;;;;90.41108;88.69441;-124.988556;;1773.1
1932.0;1849.2;;;;;;;;;;;;;;1.0417188;-0.91927856;-0.20087282;;;;;1773.1
1932.0;1849.2;;;;;;;;;;;;;;;;;92.249825;77.829834;-124.988556;;1782.8
1932.0;1849.2;;;;;;;;;;;;;;1.0940275;-0.92605364;-0.1782281;;;;;1782.8
1932.0;1849.2;;;;;;;;;;;;;;;;;93.73379;69.4029;-124.988556;;1782.8
1932.0;1849.2;;;;;;;;;;;;;;1.1337626;-0.9073153;-0.16223639;;;;;1782.8
1932.0;1851.3;;;;;;;;;;;;;-783;;;;;;;;
1932.0;1851.3;;;;;;;;;;;;;-814;;;;;;;;
1932.0;1851.3;;;;;;;;;;;;;-833;;;;;;;;
1932.0;1851.3;;;;;;;;;;;;;-901;;;;;;;;
1932.0;1851.3;;;;;;;;;;;;;-932;;;;;;;;
1932.0;1852.1;;;;-0.26792148;0.9996301;0.16973878;;;;;;;;;;;;;;;
1932.0;1852.1;;;;-0.2812195;0.99984753;0.1740265;;;;;;;;;;;;;;;
1932.0;1852.1;;;;-0.29200366;0.99913037;0.18000795;;;;;;;;;;;;;;;
1932.0;1852.1;;;;-0.30366138;0.99803936;0.18465044;;;;;;;;;;;;;;;
1932.0;1852.1;;;;-0.31276706;0.9966394;0.19049457;;;;;;;;;;;;;;;
1932.0;1855.7;;;;;;;;;;3.47911;69.414345;-110.83178;;;;;;;;;
1932.0;1855.7;;;;;;;0.3853267;-1.2964263;-0.22681357;;;;;;;;;;;;
1932.0;1855.7;;;;;;;;;;3.566851;70.734276;-109.412674;;;;;;;;;
1932.0;1855.7;;;;;;;0.39912108;-1.3053987;-0.2323069;;;;;;;;;;;;
1996.0;1862.1;;;;-0.32091525;0.9948274;0.19490436;;;;;;;;;;;;;;;
1996.0;1862.1;;;;-0.32828525;0.99398434;0.19865802;;;;;;;;;;;;;;;
1996.0;1862.1;;;;-0.33697894;0.99370587;0.20168689;;;;;;;;;;;;;;;
1996.0;1862.1;;;;-0.34674075;0.99351513;0.2049599;;;;;;;;;;;;;;;
1996.0;1862.1;;;;-0.35710147;0.9932672;0.20702747;;;;;;;;;;;;;;;
1996.0;1865.2;;;;;;;;;;3.784295;72.22205;-108.1309;;;;;;;;;
1996.0;1865.2;;;;;;;0.4113895;-1.3168126;-0.24762718;;;;;;;;;;;;
1996.0;1865.2;;;;;;;;;;3.0861845;73.14524;-107.83334;;;;;;;;;
1996.0;1865.2;;;;;;;0.4181646;-1.3262124;-0.25855282;;;;;;;;;;;;
1996.0;1865.3;262143;262143;13742;;;;;;;;;;;;;;;;;;
1996.0;1872.1;;;;-0.3660126;0.99297345;0.20926288;;;;;;;;;;;;;;;
1996.0;1872.1;;;;-0.37155917;0.99299634;0.21166614;;;;;;;;;;;;;;;
1996.0;1872.1;;;;-0.3769036;0.9934846;0.21361545;;;;;;;;;;;;;;;
1996.0;1872.1;;;;-0.38203818;0.9947549;0.21533588;;;;;;;;;;;;;;;
1996.0;1872.1;;;;-0.38872916;0.9971086;0.21614459;;;;;;;;;;;;;;;
1996.0;1874.5;;;;;;;;;;1.9188513;74.04935;-108.12327;;;;;;;;;
1996.0;1874.5;;;;;;;0.42365795;-1.3297524;-0.26532793;;;;;;;;;;;;
1996.0;1874.5;;;;;;;;;;1.2131108;74.70931;-108.60775;;;;;;;;;
1996.0;1874.5;;;;;;;0.41328165;-1.389996;-0.252266;;;;;;;;;;;;
1999.0;1882.0;;;;-0.39332205;0.99990857;0.21776965;;;;;;;;;;;;;;;
1999.0;1882.0;;;;-0.39895636;1.0036737;0.21959308;;;;;;;;;;;;;;;
1999.0;1882.0;;;;-0.40141302;1.0075456;0.2220383;;;;;;;;;;;;;;;
1999.0;1882.0;;;;-0.403843;1.0127069;0.22357562;;;;;;;;;;;;;;;
1999.0;1882.0;;;;-0.40546042;1.0189325;0.22533801;;;;;;;;;;;;;;;
1999.0;1884.1;;;;;;;;;;2.967925;76.38783;-108.29494;;;;;;;;;
1999.0;1884.1;;;;;;;0.41212195;-1.3350017;-0.2674032;;;;;;;;;;;;
1999.0;1884.1;;;;;;;;;;5.6154056;78.31812;-109.01594;;;;;;;;;
1999.0;1884.1;;;;;;;0.42628255;-1.3331705;-0.267098;;;;;;;;;;;;
1999.0;1885.3;262143;262143;13743;;;;;;;;;;;;;;;;;;
1999.0;1891.3;;;;;;;;;;;;;-1058;;;;;;;;
1999.0;1891.3;;;;;;;;;;;;;-1461;;;;;;;;
1999.0;1891.3;;;;;;;;;;;;;-2024;;;;;;;;
1999.0;1891.3;;;;;;;;;;;;;-2293;;;;;;;;
1999.0;1891.3;;;;;;;;;;;;;-1902;;;;;;;;
1999.0;1892.1;;;;-0.40922934;1.0259782;0.2261124;;;;;;;;;;;;;;;
1999.0;1892.1;;;;-0.4098397;1.0336572;0.22685245;;;;;;;;;;;;;;;
1999.0;1892.1;;;;-0.4082604;1.0409585;0.22715381;;;;;;;;;;;;;;;
1999.0;1892.1;;;;-0.40780646;1.0481416;0.22853473;;;;;;;;;;;;;;;
1999.0;1892.1;;;;-0.40642935;1.0552713;0.2302666;;;;;;;;;;;;;;;
1999.0;1893.8;;;;;;;;;;7.2595906;79.138306;-110.9653;;;;;;;;;
1999.0;1893.8;;;;;;;0.42823574;-1.3312784;-0.25946838;;;;;;;;;;;;
1999.0;1893.8;;;;;;;;;;8.308664;79.474014;-112.52556;;;;;;;;;
1999.0;1893.8;;;;;;;0.42396313;-1.3312174;-0.25568408;;;;;;;;;;;;
2002.0;1902.2;;;;;;;;;;;;;;;;;91.33427;60.84246;-124.988556;;1792.4
2002.0;1902.2;;;;;;;;;;;;;;1.1649525;-0.8883938;-0.18720053;;;;;1792.4
2002.0;1902.2;;;;;;;;;;;;;;;;;85.940125;51.83569;-124.988556;;1792.4
2002.0;1902.2;;;;;;;;;;;;;;1.1693472;-0.91311383;-0.19067965;;;;;1792.4
2002.0;1902.2;;;;;;;;;;;;;;;;;81.53401;42.634357;-124.988556;;1802.0
2002.0;1902.2;;;;;;;;;;;;;;1.1441389;-0.952971;-0.15271463;;;;;1802.0
2002.0;1902.2;;;;;;;;;;;;;;;;;76.83798;34.939877;-124.988556;;1802.0
2002.0;1902.2;;;;;;;;;;;;;;1.094882;-1.0076602;-0.105166785;;;;;1802.0
2002.0;1902.2;;;;;;;;;;;;;;;;;68.449196;28.740807;-124.988556;;1811.6
2002.0;1902.2;;;;;;;;;;;;;;1.0036927;-1.0899991;-0.10034486;;;;;1811.6
2002.0;1902.2;;;;;;;;;;;;;;;;;59.26313;22.621845;-124.988556;;1811.6
2002.0;1902.2;;;;;;;;;;;;;;0.87362283;-1.183813;-0.17511521;;;;;1811.6
2002.0;1902.1;;;;-0.4041596;1.0622216;0.23166278;;;;;;;;;;;;;;;
2002.0;1902.1;;;;-0.40329748;1.0690004;0.23247531;;;;;;;;;;;;;;;
2002.0;1902.1;;;;-0.4015084;1.0761796;0.23430255;;;;;;;;;;;;;;;
2002.0;1902.1;;;;-0.39828497;1.08173;0.23585513;;;;;;;;;;;;;;;
2002.0;1902.1;;;;-0.39490134;1.0872232;0.23818591;;;;;;;;;;;;;;;
2003.0;1902.9;;;;;;;;;;;;;;;;;51.22532;20.57329;-124.988556;;1821.2
2003.0;1902.9;;;;;;;;;;;;;;0.6940519;-1.2587054;-0.26868495;;;;;1821.2
2003.0;1902.9;;;;;;;;;;;;;;;;;43.980988;22.11829;-124.988556;;1821.2
2003.0;1902.9;;;;;;;;;;;;;;0.53547776;-1.3119907;-0.3480941;;;;;1821.2
2003.0;1902.9;;;;;;;;;;;;;;;;;36.24073;24.410994;-124.988556;;1830.9
2003.0;1902.9;;;;;;;;;;;;;;0.42378002;-1.345561;-0.40260017;;;;;1830.9
2003.0;1902.9;;;;;;;;;;;;;;;;;28.817102;27.03177;-124.988556;;1830.9
2003.0;1902.9;;;;;;;;;;;;;;0.35883662;-1.3608813;-0.41755426;;;;;1830.9
2003.0;1902.9;;;;;;;;;;;;;;;;;24.140142;30.335398;-124.988556;;1840.5
2003.0;1902.9;;;;;;;;;;;;;;0.31275368;-1.3473312;-0.39216286;;;;;1840.5
2003.0;1902.9;;;;;;;;;;;;;;;;;21.519365;35.626545;-124.988556;;1840.5
2003.0;1902.9;;;;;;;;;;;;;;0.29407635;-1.3100375;-0.34931487;;;;;1840.5
2003.0;1903.1;;;;;;;;;;8.40785;80.088196;-114.43297;;;;;;;;;
2003.0;1903.1;;;;;;;0.42085025;-1.3275552;-0.24817652;;;;;;;;;;;;
2003.0;1903.1;;;;;;;;;;8.404035;81.46153;-116.40904;;;;;;;;;
2003.0;1903.1;;;;;;;0.41828668;-1.320658;-0.24329355;;;;;;;;;;;;
2003.0;1905.2;262143;262143;13744;;;;;;;;;;;;;;;;;;
2003.0;1912.0;;;;-0.39104086;1.0909883;0.24009708;;;;;;;;;;;;;;;
2003.0;1912.0;;;;-0.38644797;1.0941468;0.2417107;;;;;;;;;;;;;;;
2003.0;1912.0;;;;-0.3830033;1.096203;0.24232867;;;;;;;;;;;;;;;
2003.0;1912.0;;;;-0.37796408;1.0962716;0.24254611;;;;;;;;;;;;;;;
2003.0;1912.0;;;;-0.37266162;1.0944368;0.24306491;;;;;;;;;;;;;;;
2005.0;1912.7;;;;;;;;;;8.751183;83.19346;-117.93878;;;;;;;;;
2005.0;1912.7;;;;;;;0.4118778;-1.3151037;-0.24530777;;;;;;;;;;;;
2005.0;1912.7;;;;;;;;;;8.716849;84.96353;-118.83145;;;;;;;;;
2005.0;1912.7;;;;;;;0.40321055;-1.3015534;-0.2484817;;;;;;;;;;;;
2005.0;1922.0;;;;-0.37176517;1.0929147;0.2436867;;;;;;;;;;;;;;;
2005.0;1922.0;;;;-0.36763003;1.0893899;0.24423602;;;;;;;;;;;;;;;
2005.0;1922.0;;;;-0.36069492;1.0839196;0.24458316;;;;;;;;;;;;;;;
2005.0;1922.0;;;;-0.35655597;1.0780946;0.2452698;;;;;;;;;;;;;;;
2005.0;1922.0;;;;-0.35466006;1.0722734;0.24448016;;;;;;;;;;;;;;;
2005.0;1922.2;;;;;;;;;;8.232368;86.56957;-119.071785;;;;;;;;;
2005.0;1922.2;;;;;;;0.39429915;-1.2907498;-0.2527543;;;;;;;;;;;;
2005.0;1922.2;;;;;;;;;;7.8241825;88.08787;-118.89249;;;;;;;;;
2005.0;1922.2;;;;;;;0.3842891;-1.279397;-0.25562304;;;;;;;;;;;;
2005.0;1925.4;262143;262143;13741;;;;;;;;;;;;;;;;;;
2005.0;1931.3;;;;;;;;;;;;;-1100;;;;;;;;
2005.0;1931.3;;;;;;;;;;;;;-360;;;;;;;;
2005.0;1931.3;;;;;;;;;;;;;138;;;;;;;;
2005.0;1931.3;;;;;;;;;;;;;533;;;;;;;;
2005.0;1931.3;;;;;;;;;;;;;827;;;;;;;;
2005.0;1931.6;;;;;;;;;;7.614368;89.56801;-118.36986;;;;;;;;;
2005.0;1931.6;;;;;;;0.37617114;-1.2676169;-0.2582476;;;;;;;;;;;;
2005.0;1931.6;;;;;;;;;;7.7745905;90.99094;-117.80527;;;;;;;;;
2005.0;1931.6;;;;;;;0.36500138;-1.2577288;-0.2602008;;;;;;;;;;;;
2049.0;1931.9;;;;-0.34705356;1.0636331;0.24397281;;;;;;;;;;;;;;;
2049.0;1931.9;;;;-0.3437653;1.0544282;0.2437363;;;;;;;;;;;;;;;
2049.0;1931.9;;;;-0.34165195;1.045231;0.24341586;;;;;;;;;;;;;;;
2049.0;1931.9;;;;-0.33851245;1.0353738;0.24274066;;;;;;;;;;;;;;;
2049.0;1931.9;;;;-0.3334389;1.0238382;0.2414513;;;;;;;;;;;;;;;
2049.0;1941.0;;;;;;;;;;8.3925905;92.04764;-117.27119;;;;;;;;;
2049.0;1941.0;;;;;;;0.3501694;-1.2435682;-0.26239815;;;;;;;;;;;;
2049.0;1941.0;;;;;;;;;;9.090701;93.07001;-116.90878;;;;;;;;;
2049.0;1941.0;;;;;;;0.33399457;-1.2253792;-0.26337475;;;;;;;;;;;;
2049.0;1941.8;;;;-0.33247378;1.0135194;0.24023822;;;;;;;;;;;;;;;
2049.0;1941.8;;;;-0.33054736;1.0028497;0.23838046;;;;;;;;;;;;;;;
2049.0;1941.8;;;;-0.3262215;0.9917642;0.23688129;;;;;;;;;;;;;;;
2049.0;1941.8;;;;-0.3246689;0.98085415;0.23508838;;;;;;;;;;;;;;;
2049.0;1941.8;;;;-0.32227328;0.9707376;0.23350528;;;;;;;;;;;;;;;
2049.0;1945.2;262143;262143;13740;;;;;;;;;;;;;;;;;;
2049.0;1950.6;;;;;;;;;;9.846034;93.65749;-116.737114;;;;;;;;;
2049.0;1950.6;;;;;;;0.31653798;-1.2066408;-0.2620319;;;;;;;;;;;;
2049.0;1950.6;;;;;;;;;;10.5822935;93.043304;-116.93167;;;;;;;;;
2049.0;1950.6;;;;;;;0.296762;-1.1852168;-0.25800347;;;;;;;;;;;;
2051.0;1951.9;;;;-0.32015994;0.9606477;0.23228839;;;;;;;;;;;;;;;
2051.0;1951.9;;;;-0.31787494;0.9507028;0.23080447;;;;;;;;;;;;;;;
2051.0;1951.9;;;;-0.31629947;0.9415513;0.22953036;;;;;;;;;;;;;;;
2051.0;1951.9;;;;-0.31164172;0.93117917;0.22808841;;;;;;;;;;;;;;;
2051.0;1951.9;;;;-0.30837253;0.92149746;0.22659686;;;;;;;;;;;;;;;
2051.0;1960.3;;;;;;;;;;11.116366;91.65852;-117.458115;;;;;;;;;
2051.0;1960.3;;;;;;;0.2837611;-1.159154;-0.25330362;;;;;;;;;;;;
2051.0;1960.3;;;;;;;;;;11.902219;89.94567;-118.08375;;;;;;;;;
2051.0;1960.3;;;;;;;0.27265236;-1.1347392;-0.24604023;;;;;;;;;;;;
2051.0;1961.9;;;;;;;;;;;;;;;;;20.084993;43.88562;-124.988556;;1850.2
2051.0;1961.9;;;;;;;;;;;;;;0.32087162;-1.2590106;-0.3246559;;;;;1850.2
2051.0;1961.9;;;;;;;;;;;;;;;;;20.325327;54.71969;-124.988556;;1850.2
2051.0;1961.9;;;;;;;;;;;;;;0.3640248;-1.193579;-0.305063;;;;;1850.2
2051.0;1961.9;;;;;;;;;;;;;;;;;20.210882;65.553764;-124.988556;;1859.7
2051.0;1961.9;;;;;;;;;;;;;;0.44672993;-1.106296;-0.29944763;;;;;1859.7
2051.0;1961.9;;;;;;;;;;;;;;;;;17.765587;76.51753;-124.988556;;1859.7
2051.0;1961.9;;;;;;;;;;;;;;0.48097172;-1.0516678;-0.30402538;;;;;1859.7
2051.0;1961.9;;;;;;;;;;;;;;;;;12.104404;85.73794;-124.988556;;1869.4
2051.0;1961.9;;;;;;;;;;;;;;0.53462327;-1.0066836;-0.3368633;;;;;1869.4
2051.0;1961.9;;;;;;;;;;;;;;;;;4.4289985;93.22642;-124.988556;;1869.4
2051.0;1961.9;;;;;;;;;;;;;;0.6092715;-0.96761984;-0.3909421;;;;;1869.4
2052.0;1962.0;;;;-0.3071709;0.91354;0.22574618;;;;;;;;;;;;;;;
2052.0;1962.0;;;;-0.3034859;0.904976;0.22579196;;;;;;;;;;;;;;;
2052.0;1962.0;;;;-0.29645923;0.89704144;0.22593692;;;;;;;;;;;;;;;
2052.0;1962.0;;;;-0.29446796;0.8906671;0.22500995;;;;;;;;;;;;;;;
2052.0;1962.0;;;;-0.28568652;0.8827821;0.22625354;;;;;;;;;;;;;;;
2052.0;1962.6;;;;;;;;;;;;;;;;;-3.3913696;99.09741;-124.988556;;1879.0
2052.0;1962.6;;;;;;;;;;;;;;0.68947417;-0.93612474;-0.44825587;;;;;1879.0
2052.0;1962.6;;;;;;;;;;;;;;;;;-9.224219;103.99182;-124.988556;;1879.0
2052.0;1962.6;;;;;;;;;;;;;;0.78975797;-0.89260536;-0.48036134;;;;;1879.0
2052.0;1962.6;;;;;;;;;;;;;;;;;-12.295145;107.55105;-124.988556;;1888.6
2052.0;1962.6;;;;;;;;;;;;;;0.8572039;-0.8684347;-0.47895747;;;;;1888.6
2052.0;1962.6;;;;;;;;;;;;;;;;;-9.582812;107.276375;-124.988556;;1888.6
2052.0;1962.6;;;;;;;;;;;;;;0.93057036;-0.83040863;-0.44514298;;;;;1888.6
2052.0;1962.6;;;;;;;;;;;;;;;;;-2.5254066;104.12152;-124.988556;;1898.3
2052.0;1962.6;;;;;;;;;;;;;;0.995819;-0.7824946;-0.39039278;;;;;1898.3
2052.0;1962.6;;;;;;;;;;;;;;;;;7.736442;99.33393;-124.988556;;1898.3
2052.0;1962.6;;;;;;;;;;;;;;1.05356;-0.7146214;-0.32697532;;;;;1898.3
2052.0;1965.2;262143;262143;13748;;;;;;;;;;;;;;;;;;
2052.0;1969.7;;;;;;;;;;12.8711815;88.175606;-118.701744;;;;;;;;;
2052.0;1969.7;;;;;;;0.26367992;-1.1139256;-0.24195075;;;;;;;;;;;;
2052.0;1969.7;;;;;;;;;;13.374737;86.439865;-119.06797;;;;;;;;;
2052.0;1969.7;;;;;;;0.25464645;-1.0956144;-0.23493148;;;;;;;;;;;;
2054.0;1971.2;;;;;;;;;;;;;671;;;;;;;;
2054.0;1971.2;;;;;;;;;;;;;220;;;;;;;;
2054.0;1971.2;;;;;;;;;;;;;-99;;;;;;;;
2054.0;1971.2;;;;;;;;;;;;;29;;;;;;;;
2054.0;1971.2;;;;;;;;;;;;;1419;;;;;;;;
2054.0;1971.9;;;;-0.2829018;0.87612927;0.22696689;;;;;;;;;;;;;;;
2054.0;1971.9;;;;-0.28322223;0.8710023;0.22704318;;;;;;;;;;;;;;;
2054.0;1971.9;;;;-0.2789574;0.86525357;0.22769931;;;;;;;;;;;;;;;
2054.0;1971.9;;;;-0.27274707;0.8597337;0.2295647;;;;;;;;;;;;;;;
2054.0;1971.9;;;;-0.26201633;0.85421383;0.23188785;;;;;;;;;;;;;;;
2054.0;1979.2;;;;;;;;;;13.431959;84.60113;-119.43419;;;;;;;;;
2054.0;1979.2;;;;;;;0.25348675;-1.0802943;-0.22742394;;;;;;;;;;;;
2054.0;1979.2;;;;;;;;;;13.275552;82.60979;-119.82711;;;;;;;;;
2054.0;1979.2;;;;;;;0.25000763;-1.0672323;-0.22016053;;;;;;;;;;;;
2054.0;1981.9;;;;-0.24954608;0.8476907;0.2348595;;;;;;;;;;;;;;;
2054.0;1981.9;;;;-0.2408829;0.8417741;0.23795322;;;;;;;;;;;;;;;
2054.0;1981.9;;;;-0.2337952;0.83454907;0.24068072;;;;;;;;;;;;;;;
2054.0;1981.9;;;;-0.23164752;0.82766736;0.24350742;;;;;;;;;;;;;;;
2054.0;1981.9;;;;-0.23059848;0.82218945;0.24654391;;;;;;;;;;;;;;;
2054.0;1985.4;262143;262143;13757;;;;;;;;;;;;;;;;;;
2054.0;1988.8;;;;;;;;;;13.042848;80.51927;-120.09415;;;;;;;;;
2054.0;1988.8;;;;;;;0.24866481;-1.0539873;-0.21778008;;;;;;;;;;;;
2054.0;1988.8;;;;;;;;;;12.836848;78.12738;-120.10559;;;;;;;;;
2054.0;1988.8;;;;;;;0.24707785;-1.0398877;-0.21460617;;;;;;;;;;;;
2111.0;1991.9;;;;-0.22588733;0.81803524;0.2497597;;;;;;;;;;;;;;;
2111.0;1991.9;;;;-0.22331622;0.81412137;0.2548981;;;;;;;;;;;;;;;
2111.0;1991.9;;;;-0.2222481;0.8102647;0.26143268;;;;;;;;;;;;;;;
2111.0;1991.9;;;;-0.22259524;0.80760205;0.2680588;;;;;;;;;;;;;;;
2111.0;1991.9;;;;-0.21895602;0.805462;0.27173236;;;;;;;;;;;;;;;
2111.0;1998.0;;;;;;;;;;12.668996;75.58291;-119.72411;;;;;;;;;
2111.0;1998.0;;;;;;;0.24628437;-1.0306711;-0.2113712;;;;;;;;;;;;
2111.0;1998.0;;;;;;;;;;12.646107;73.007904;-119.1023;;;;;;;;;
2111.0;1998.0;;;;;;;0.2451857;-1.0208441;-0.2111881;;;;;;;;;;;;
2111.0;2001.6;;;;-0.21548846;0.80375683;0.27561954;;;;;;;;;;;;;;;
2111.0;2001.6;;;;-0.21283343;0.80258954;0.27897266;;;;;;;;;;;;;;;
2111.0;2001.6;;;;-0.21127322;0.7998506;0.28242114;;;;;;;;;;;;;;;
2111.0;2001.6;;;;-0.20798114;0.7966844;0.2868996;;;;;;;;;;;;;;;
2111.0;2001.6;;;;-0.2072716;0.79405224;0.29173282;;;;;;;;;;;;;;;
2111.0;2005.2;262143;262143;13749;;;;;;;;;;;;;;;;;;
2111.0;2007.6;;;;;;;;;;12.760551;70.39475;-118.18293;;;;;;;;;
2111.0;2007.6;;;;;;;0.24292734;-1.01059;-0.20929594;;;;;;;;;;;;
2111.0;2007.6;;;;;;;;;;12.874996;68.05246;-116.90115;;;;;;;;;
2111.0;2007.6;;;;;;;0.244026;-1.0014954;-0.20960112;;;;;;;;;;;;
2111.0;2011.2;;;;;;;;;;;;;1995;;;;;;;;
2111.0;2011.2;;;;;;;;;;;;;-3175;;;;;;;;
2111.0;2011.2;;;;;;;;;;;;;-13178;;;;;;;;
2111.0;2011.2;;;;;;;;;;;;;-19230;;;;;;;;
2111.0;2011.2;;;;;;;;;;;;;-14903;;;;;;;;
2115.0;2011.8;;;;-0.20727924;0.791958;0.2975159;;;;;;;;;;;;;;;
2115.0;2011.8;;;;-0.20725253;0.7895967;0.3035393;;;;;;;;;;;;;;;
2115.0;2011.8;;;;-0.20614627;0.7872087;0.3093224;;;;;;;;;;;;;;;
2115.0;2011.8;;;;-0.20510486;0.78400433;0.31463245;;;;;;;;;;;;;;;
2115.0;2011.8;;;;-0.20384601;0.7798234;0.31852344;;;;;;;;;;;;;;;
2115.0;2017.2;;;;;;;;;;12.974181;65.80554;-115.39812;;;;;;;;;
2115.0;2017.2;;;;;;;0.24390393;-0.9929502;-0.20874661;;;;;;;;;;;;
2115.0;2017.2;;;;;;;;;;13.088626;63.669243;-113.94086;;;;;;;;;
2115.0;2017.2;;;;;;;0.24066897;-0.98727375;-0.20673238;;;;;;;;;;;;
2115.0;2021.8;;;;-0.20421222;0.77557003;0.32242587;;;;;;;;;;;;;;;
2115.0;2021.8;;;;-0.20248416;0.77074826;0.32535556;;;;;;;;;;;;;;;
2115.0;2021.8;;;;-0.20224383;0.7660142;0.32807162;;;;;;;;;;;;;;;
2115.0;2021.8;;;;-0.20458987;0.76098263;0.32934955;;;;;;;;;;;;;;;
2115.0;2021.8;;;;-0.20938113;0.756302;0.33017734;;;;;;;;;;;;;;;
2116.0;2022.2;;;;;;;;;;;;;;;;;17.567217;95.31693;-124.988556;;1908.0
2116.0;2022.2;;;;;;;;;;;;;;1.1109958;-0.61952573;-0.23468734;;;;;1908.0
2116.0;2022.2;;;;;;;;;;;;;;;;;25.696585;88.82412;-124.988556;;1908.0
2116.0;2022.2;;;;;;;;;;;;;;1.169103;-0.5291299;-0.11835078;;;;;1908.0
2116.0;2022.2;;;;;;;;;;;;;;;;;34.3791;79.92797;-124.988556;;1917.7
2116.0;2022.2;;;;;;;;;;;;;;1.1883907;-0.43317974;0.036378063;;;;;1917.7
2116.0;2022.2;;;;;;;;;;;;;;;;;33.532215;72.641685;-124.988556;;1917.7
2116.0;2022.2;;;;;;;;;;;;;;1.1518906;-0.3500473;0.12915434;;;;;1917.7
2116.0;2022.2;;;;;;;;;;;;;;;;;22.93466;67.957085;-124.988556;;1927.0
2116.0;2022.2;;;;;;;;;;;;;;1.0913419;-0.3397931;0.15039521;;;;;1927.0
2116.0;2022.2;;;;;;;;;;;;;;;;;8.468886;65.31343;-124.988556;;1927.0
2116.0;2022.2;;;;;;;;;;;;;;0.99826044;-0.41248816;0.16772974;;;;;1927.0
2116.0;2023.0;;;;;;;;;;;;;;;;;-6.572924;66.839355;-124.988556;;1936.7
2116.0;2023.0;;;;;;;;;;;;;;0.9095737;-0.50068665;0.12305063;;;;;1936.7
2116.0;2023.0;;;;;;;;;;;;;;;;;-18.715477;76.300095;-124.988556;;1936.7
2116.0;2023.0;;;;;;;;;;;;;;0.8440199;-0.5760674;0.065858945;;;;;1936.7
2116.0;2023.0;;;;;;;;;;;;;;;;;-27.61162;90.3119;-124.988556;;1946.4
2116.0;2023.0;;;;;;;;;;;;;;0.7939696;-0.61793876;0.022034364;;;;;1946.4
2116.0;2023.0;;;;;;;;;;;;;;;;;-33.684807;103.01904;-124.988556;;1946.4
2116.0;2023.0;;;;;;;;;;;;;;0.7612537;-0.62245554;-0.0018921476;;;;;1946.4
2116.0;2023.0;;;;;;;;;;;;;;;;;-35.950806;110.320595;-124.988556;;1956.1
2116.0;2023.0;;;;;;;;;;;;;;0.73049104;-0.61214024;-0.016235847;;;;;1956.1
2116.0;2023.0;;;;;;;;;;;;;;;;;-39.23917;115.493484;-124.988556;;1956.1
2116.0;2023.0;;;;;;;;;;;;;;0.6745201;-0.59993285;-0.0020142216;;;;;1956.1
2117.0;2025.4;262143;262143;13743;;;;;;;;;;;;;;;;;;
2117.0;2026.7;;;;;;;;;;13.126774;61.57109;-112.36533;;;;;;;;;
2117.0;2026.7;;;;;;;0.23950927;-0.97976625;-0.20770897;;;;;;;;;;;;
2117.0;2026.7;;;;;;;;;;13.130589;59.58739;-110.7097;;;;;;;;;
2117.0;2026.7;;;;;;;0.23859371;-0.9734794;-0.20795313;;;;;;;;;;;;
2117.0;2031.8;;;;-0.21614459;0.751793;0.33225635;;;;;;;;;;;;;;;
2117.0;2031.8;;;;-0.22084811;0.745678;0.33407596;;;;;;;;;;;;;;;
2117.0;2031.8;;;;-0.22611621;0.7408181;0.3364525;;;;;;;;;;;;;;;
2117.0;2031.8;;;;-0.23199084;0.7361794;0.3389664;;;;;;;;;;;;;;;
2117.0;2031.8;;;;-0.23592761;0.73146445;0.33985522;;;;;;;;;;;;;;;
2117.0;2036.2;;;;;;;;;;12.985626;57.981354;-108.71456;;;;;;;;;
2117.0;2036.2;;;;;;;0.23877682;-0.9672536;-0.20801416;;;;;;;;;;;;
2117.0;2036.2;;;;;;;;;;12.817774;56.77587;-106.51723;;;;;;;;;
2117.0;2036.2;;;;;;;0.24085207;-0.96169925;-0.20844142;;;;;;;;;;;;
2117.0;2041.8;;;;-0.24051288;0.7266236;0.34173587;;;;;;;;;;;;;;;
2117.0;2041.8;;;;-0.24590304;0.7232552;0.34348682;;;;;;;;;;;;;;;
2117.0;2041.8;;;;-0.25042728;0.71906286;0.34588626;;;;;;;;;;;;;;;
2117.0;2041.8;;;;-0.2559128;0.7162209;0.34764484;;;;;;;;;;;;;;;
2117.0;2041.8;;;;-0.26300433;0.71441275;0.34857562;;;;;;;;;;;;;;;
2117.0;2045.9;;;;;;;;;;12.558367;56.23417;-103.953674;;;;;;;;;
2117.0;2045.9;;;;;;;0.24396497;-0.9590747;-0.20838039;;;;;;;;;;;;
2117.0;2045.9;;;;;;;;;;12.241737;56.104465;-101.20701;;;;;;;;;
2117.0;2045.9;;;;;;;0.24683371;-0.9555345;-0.20685446;;;;;;;;;;;;
2169.0;2045.5;262143;262143;13752;;;;;;;;;;;;;;;;;;
2169.0;2051.5;;;;;;;;;;;;;-4578;;;;;;;;
2169.0;2051.5;;;;;;;;;;;;;2171;;;;;;;;
2169.0;2051.5;;;;;;;;;;;;;2073;;;;;;;;
2169.0;2051.5;;;;;;;;;;;;;-360;;;;;;;;
2169.0;2051.5;;;;;;;;;;;;;-802;;;;;;;;
2169.0;2051.9;;;;-0.26968387;0.71238714;0.35018542;;;;;;;;;;;;;;;
2169.0;2051.9;;;;-0.27412418;0.7105866;0.35219195;;;;;;;;;;;;;;;
2169.0;2051.9;;;;-0.27909473;0.7098847;0.35371783;;;;;;;;;;;;;;;
2169.0;2051.9;;;;-0.28642657;0.7101098;0.35476306;;;;;;;;;;;;;;;
2169.0;2051.9;;;;-0.29147723;0.7105294;0.35725787;;;;;;;;;;;;;;;
2169.0;2055.4;;;;;;;;;;11.867886;56.428722;-98.307755;;;;;;;;;
2169.0;2055.4;;;;;;;0.25141147;-0.9551683;-0.20679343;;;;;;;;;;;;
2169.0;2055.4;;;;;;;;;;11.509293;57.042908;-95.107124;;;;;;;;;
2169.0;2055.4;;;;;;;0.2544023;-0.9551683;-0.20343639;;;;;;;;;;;;
2169.0;2062.0;;;;-0.29481128;0.7077752;0.35946277;;;;;;;;;;;;;;;
2169.0;2062.0;;;;-0.30105212;0.70673376;0.3596764;;;;;;;;;;;;;;;
2169.0;2062.0;;;;-0.3051224;0.70722204;0.3614693;;;;;;;;;;;;;;;
2169.0;2062.0;;;;-0.31190875;0.70909506;0.36161426;;;;;;;;;;;;;;;
2169.0;2062.0;;;;-0.32083514;0.71167;0.3597031;;;;;;;;;;;;;;;
2169.0;2065.1;;;;;;;;;;11.112552;57.992798;-91.71957;;;;;;;;;
2169.0;2065.1;;;;;;;0.25763726;-0.9508347;-0.2033143;;;;;;;;;;;;
2169.0;2065.1;;;;;;;;;;10.727257;59.453873;-88.0955;;;;;;;;;
2169.0;2065.1;;;;;;;0.25940734;-0.94827116;-0.2031312;;;;;;;;;;;;
2169.0;2065.7;262143;262143;13746;;;;;;;;;;;;;;;;;;
2178.0;2072.1;;;;-0.32759097;0.7137299;0.35501865;;;;;;;;;;;;;;;
2178.0;2072.1;;;;-0.3304787;0.71583945;0.35174182;;;;;;;;;;;;;;;
2178.0;2072.1;;;;-0.33554462;0.7187386;0.3503647;;;;;;;;;;;;;;;
2178.0;2072.1;;;;-0.34248737;0.72422796;0.34453204;;;;;;;;;;;;;;;
2178.0;2072.1;;;;-0.34538653;0.7286568;0.33993915;;;;;;;;;;;;;;;
2178.0;2074.7;;;;;;;;;;10.288552;61.342205;-84.06323;;;;;;;;;
2178.0;2074.7;;;;;;;0.2616657;-0.94466996;-0.20282601;;;;;;;;;;;;
2178.0;2074.7;;;;;;;;;;9.994812;63.70739;-79.96231;;;;;;;;;
2178.0;2074.7;;;;;;;0.26587725;-0.94338816;-0.20130008;;;;;;;;;;;;
2178.0;2082.4;;;;;;;;;;;;;;;;;-43.60332;116.7333;-124.988556;;1965.7
2178.0;2082.4;;;;;;;;;;;;;;0.6377148;-0.61940366;-0.010132145;;;;;1965.7
2178.0;2082.4;;;;;;;;;;;;;;;;;-45.922726;116.81341;-124.988556;;1965.7
2178.0;2082.4;;;;;;;;;;;;;;0.5851619;-0.6357005;-0.010559404;;;;;1965.7
2178.0;2082.4;;;;;;;;;;;;;;;;;-46.475876;116.56926;-124.12259;;1975.4
2178.0;2082.4;;;;;;;;;;;;;;0.5283975;-0.67213964;-0.02148503;;;;;1975.4
2178.0;2082.4;;;;;;;;;;;;;;;;;-45.270393;116.74856;-120.22766;;1975.4
2178.0;2082.4;;;;;;;;;;;;;;0.4746849;-0.6938078;-0.018677328;;;;;1975.4
2178.0;2082.4;;;;;;;;;;;;;;;;;-42.22236;116.91641;-114.13541;;1984.9
2178.0;2082.4;;;;;;;;;;;;;;0.4161504;-0.7026582;-0.009949034;;;;;1984.9
2178.0;2082.4;;;;;;;;;;;;;;;;;-37.854397;116.1916;-108.611565;;1984.9
2178.0;2082.4;;;;;;;;;;;;;;0.38117617;-0.69338053;-0.015625477;;;;;1984.9
2182.0;2082.1;;;;-0.35374835;0.7340699;0.3365021;;;;;;;;;;;;;;;
2182.0;2082.1;;;;-0.3553429;0.73844916;0.33526996;;;;;;;;;;;;;;;
2182.0;2082.1;;;;-0.3386269;0.7418633;0.33977893;;;;;;;;;;;;;;;
2182.0;2082.1;;;;-0.31533816;0.74325186;0.35106662;;;;;;;;;;;;;;;
2182.0;2082.1;;;;-0.32807162;0.7433968;0.35515216;;;;;;;;;;;;;;;
2182.0;2083.1;;;;;;;;;;;;;;;;;-33.230843;114.757225;-102.53456;;1994.6
2182.0;2083.1;;;;;;;;;;;;;;0.33710745;-0.67250586;-0.03241066;;;;;1994.6
2182.0;2083.1;;;;;;;;;;;;;;;;;-28.4814;113.65856;-96.9306;;1994.6
2182.0;2083.1;;;;;;;;;;;;;;0.2985931;-0.6423536;-0.045960877;;;;;1994.6
2182.0;2083.1;;;;;;;;;;;;;;;;;-24.128696;112.5103;-91.505936;;2004.3
2182.0;2083.1;;;;;;;;;;;;;;0.26075014;-0.6082949;-0.052735984;;;;;2004.3
2182.0;2083.1;;;;;;;;;;;;;;;;;-20.577105;111.52608;-86.03931;;2004.3
2182.0;2083.1;;;;;;;;;;;;;;0.22540972;-0.5716117;-0.054322947;;;;;2004.3
2182.0;2083.1;;;;;;;;;;;;;;;;;-19.013033;111.57185;-80.74053;;2013.9
2182.0;2083.1;;;;;;;;;;;;;;0.1897641;-0.53242594;-0.050660726;;;;;2013.9
2182.0;2083.1;;;;;;;;;;;;;;;;;-19.405958;111.171295;-75.315865;;2013.9
2182.0;2083.1;;;;;;;;;;;;;;0.15686513;-0.4923246;-0.03936888;;;;;2013.9
2182.0;2084.2;;;;;;;;;;9.529405;66.339615;-75.743126;;;;;;;;;
2182.0;2084.2;;;;;;;0.26966155;-0.94137394;-0.19959106;;;;;;;;;;;;
2182.0;2084.2;;;;;;;;;;8.945738;69.54024;-71.378975;;;;;;;;;
2182.0;2084.2;;;;;;;0.27369;-0.9403973;-0.19684438;;;;;;;;;;;;
2182.0;2085.9;262143;262143;13746;;;;;;;;;;;;;;;;;;
2184.0;2091.8;;;;;;;;;;;;;-170;;;;;;;;
2184.0;2091.8;;;;;;;;;;;;;-84;;;;;;;;
2184.0;2091.8;;;;;;;;;;;;;185;;;;;;;;
2184.0;2091.8;;;;;;;;;;;;;592;;;;;;;;
2184.0;2091.8;;;;;;;;;;;;;689;;;;;;;;
2184.0;2092.2;;;;-0.35880283;0.7439652;0.3484116;;;;;;;;;;;;;;;
2184.0;2092.2;;;;-0.3794785;0.74534994;0.33675388;;;;;;;;;;;;;;;
2184.0;2092.2;;;;-0.3861733;0.74940115;0.32666782;;;;;;;;;;;;;;;
2184.0;2092.2;;;;-0.38618857;0.7558595;0.31875995;;;;;;;;;;;;;;;
2184.0;2092.2;;;;-0.38612372;0.7631837;0.31017306;;;;;;;;;;;;;;;
2184.0;2093.8;;;;;;;;;;8.178961;73.01172;-66.93854;;;;;;;;;
2184.0;2093.8;;;;;;;0.27637562;-0.94027525;-0.1939146;;;;;;;;;;;;
2184.0;2093.8;;;;;;;;;;7.328257;76.82272;-62.41798;;;;;;;;;
2184.0;2093.8;;;;;;;0.28485978;-0.94351023;-0.19226661;;;;;;;;;;;;
2184.0;2097.3;;;;;;;;;;;;;;;;;-21.855068;109.649185;-69.86068;;2023.5
2184.0;2097.3;;;;;;;;;;;;;;0.12854396;-0.4603412;-0.029541917;;;;;2023.5
2184.0;2097.3;;;;;;;;;;;;;;;;;-24.96414;106.52486;-64.161354;;2023.5
2184.0;2097.3;;;;;;;;;;;;;;0.10290842;-0.42493972;-0.016663106;;;;;2023.5
2184.0;2097.3;;;;;;;;;;;;;;;;;-28.160954;100.917076;-58.435318;;2033.1
2184.0;2097.3;;;;;;;;;;;;;;0.08545183;-0.3830073;-0.0028077029;;;;;2033.1
2184.0;2097.3;;;;;;;;;;;;;;;;;-31.136509;93.27982;-52.85043;;2033.1
2184.0;2097.3;;;;;;;;;;;;;;0.07037568;-0.33375043;0.010681478;;;;;2033.1
2184.0;2097.3;;;;;;;;;;;;;;;;;-33.58562;83.15531;-47.09769;;2042.7
2184.0;2097.3;;;;;;;;;;;;;;0.04931791;-0.29053622;0.026734214;;;;;2042.7
2184.0;2097.3;;;;;;;;;;;;;;;;;-35.00473;70.95935;-41.093174;;2042.7
2184.0;2097.3;;;;;;;;;;;;;;0.047059543;-0.24091311;0.03662221;;;;;2042.7
2229.0;2102.1;;;;-0.39102942;0.77128994;0.30341342;;;;;;;;;;;;;;;
2229.0;2102.1;;;;-0.3939095;0.7792283;0.3015366;;;;;;;;;;;;;;;
2229.0;2102.1;;;;-0.39126974;0.78642666;0.3048058;;;;;;;;;;;;;;;
2229.0;2102.1;;;;-0.38981634;0.79467404;0.31045154;;;;;;;;;;;;;;;
2229.0;2102.1;;;;-0.39264685;0.8040582;0.31601718;;;;;;;;;;;;;;;
2229.0;2103.2;;;;;;;;;;6.324961;80.988495;-57.920315;;;;;;;;;
2229.0;2103.2;;;;;;;0.2916349;-0.94802696;-0.1915952;;;;;;;;;;;;
2229.0;2103.2;;;;;;;;;;5.237739;85.27253;-53.50276;;;;;;;;;
2229.0;2103.2;;;;;;;0.29920346;-0.95492417;-0.1909238;;;;;;;;;;;;
2229.0;2105.9;262143;262143;13746;;;;;;;;;;;;;;;;;;
2229.0;2112.0;;;;-0.39849097;0.8151361;0.3216019;;;;;;;;;;;;;;;
2229.0;2112.0;;;;-0.40850073;0.82670224;0.32268146;;;;;;;;;;;;;;;
2229.0;2112.0;;;;-0.4170609;0.8365556;0.32329562;;;;;;;;;;;;;;;
2229.0;2112.0;;;;-0.4197808;0.8458787;0.3257561;;;;;;;;;;;;;;;
2229.0;2112.0;;;;-0.42873007;0.85572827;0.32673267;;;;;;;;;;;;;;;
2229.0;2112.5;;;;;;;;;;4.0856657;89.65575;-49.161507;;;;;;;;;
2229.0;2112.5;;;;;;;0.30439162;-0.96530044;-0.18958098;;;;;;;;;;;;
2229.0;2112.5;;;;;;;;;;2.887814;94.10382;-44.846947;;;;;;;;;
2229.0;2112.5;;;;;;;0.3090304;-0.97451705;-0.1887875;;;;;;;;;;;;
2232.0;2121.7;;;;-0.43404013;0.8639451;0.3267899;;;;;;;;;;;;;;;
2232.0;2121.7;;;;-0.43912512;0.87266934;0.3269997;;;;;;;;;;;;;;;
2232.0;2121.7;;;;-0.44697195;0.88284314;0.3276215;;;;;;;;;;;;;;;
2232.0;2121.7;;;;-0.45670706;0.89322674;0.32918933;;;;;;;;;;;;;;;
2232.0;2121.7;;;;-0.46063238;0.90241635;0.33047488;;;;;;;;;;;;;;;
2232.0;2121.9;;;;;;;;;;1.6136662;98.73501;-40.437023;;;;;;;;;
2232.0;2121.9;;;;;;;0.3140965;-0.98477125;-0.18707846;;;;;;;;;;;;
2232.0;2121.9;;;;;;;;;;0.32425916;103.339485;-36.172062;;;;;;;;;
2232.0;2121.9;;;;;;;0.3160497;-0.9962462;-0.18512528;;;;;;;;;;;;
2232.0;2125.6;262143;262143;13743;;;;;;;;;;;;;;;;;;
2232.0;2131.6;;;;;;;;;;-1.1749626;108.17286;-31.865139;;;;;;;;;
2232.0;2131.6;;;;;;;0.31843013;-1.007355;-0.18231757;;;;;;;;;;;;
2232.0;2131.6;;;;;;;;;;-2.8000731;112.842186;-27.630695;;;;;;;;;
2232.0;2131.6;;;;;;;0.31781974;-1.0180365;-0.1760918;;;;;;;;;;;;
2232.0;2131.6;;;;;;;;;;;;;846;;;;;;;;
2232.0;2131.6;;;;;;;;;;;;;1205;;;;;;;;
2232.0;2131.6;;;;;;;;;;;;;1534;;;;;;;;
2232.0;2131.6;;;;;;;;;;;;;1665;;;;;;;;
2232.0;2131.6;;;;;;;;;;;;;1753;;;;;;;;
2232.0;2131.9;;;;-0.46559912;0.91274655;0.3294182;;;;;;;;;;;;;;;
2232.0;2131.9;;;;-0.4713593;0.9233552;0.32701495;;;;;;;;;;;;;;;
2232.0;2131.9;;;;-0.46415716;0.93369687;0.3288689;;;;;;;;;;;;;;;
2232.0;2131.9;;;;-0.46660239;0.9451791;0.33033374;;;;;;;;;;;;;;;
2232.0;2131.9;;;;-0.47145087;0.95681393;0.33136752;;;;;;;;;;;;;;;
2234.0;2141.2;;;;;;;;;;-4.234443;117.25974;-23.667105;;;;;;;;;
2234.0;2141.2;;;;;;;0.31482893;-1.025422;-0.17047639;;;;;;;;;;;;
2234.0;2141.2;;;;;;;;;;-5.4589987;121.46748;-19.810328;;;;;;;;;
2234.0;2141.2;;;;;;;0.311655;-1.0350047;-0.16510513;;;;;;;;;;;;
2234.0;2142.0;;;;-0.4743691;0.96774304;0.33235934;;;;;;;;;;;;;;;
2234.0;2142.0;;;;-0.47331625;0.978161;0.3329735;;;;;;;;;;;;;;;
2234.0;2142.0;;;;-0.46928412;0.98643124;0.33292392;;;;;;;;;;;;;;;
2234.0;2142.0;;;;-0.4589997;0.99253476;0.3332787;;;;;;;;;;;;;;;
2234.0;2142.0;;;;-0.45594412;0.99881375;0.33224872;;;;;;;;;;;;;;;
2234.0;2142.5;;;;;;;;;;;;;;;;;-35.96225;57.855465;-35.111546;;2052.4
2234.0;2142.5;;;;;;;;;;;;;;0.014160588;-0.19989623;0.027954955;;;;;2052.4
2234.0;2142.5;;;;;;;;;;;;;;;;;-35.920284;44.770653;-29.366436;;2052.4
2234.0;2142.5;;;;;;;;;;;;;;-0.009521775;-0.1596118;0.018677328;;;;;2052.4
2234.0;2142.5;;;;;;;;;;;;;;;;;-35.38621;32.296215;-23.365734;;2062.0
2234.0;2142.5;;;;;;;;;;;;;;-0.038392287;-0.12817775;0.0053102206;;;;;2062.0
2234.0;2142.5;;;;;;;;;;;;;;;;;-34.54695;21.408735;-17.921995;;2062.0
2234.0;2142.5;;;;;;;;;;;;;;-0.037171546;-0.09179968;0.0041505173;;;;;2062.0
2234.0;2142.5;;;;;;;;;;;;;;;;;-34.42869;12.19596;-12.646107;;2071.7
2234.0;2142.5;;;;;;;;;;;;;;-0.033753473;-0.06823939;0.0073244423;;;;;2071.7
2234.0;2142.5;;;;;;;;;;;;;;;;;-34.07773;5.455184;-7.7898498;;2071.7
2234.0;2142.5;;;;;;;;;;;;;;-0.034974214;-0.053590503;0.027283547;;;;;2071.7
2234.0;2145.8;262143;262143;13739;;;;;;;;;;;;;;;;;;
2235.0;2150.7;;;;;;;;;;-6.6492205;124.04248;-16.167181;;;;;;;;;
2235.0;2150.7;;;;;;;0.301706;-1.0424513;-0.15900144;;;;;;;;;;;;
2235.0;2150.7;;;;;;;;;;-7.9004793;124.86266;-12.623219;;;;;;;;;
2235.0;2150.7;;;;;;;0.2938322;-1.0463576;-0.15045625;;;;;;;;;;;;
2235.0;2152.0;;;;-0.45296103;1.0033876;0.33142856;;;;;;;;;;;;;;;
2235.0;2152.0;;;;-0.4489556;1.0062181;0.33129886;;;;;;;;;;;;;;;
2235.0;2152.0;;;;-0.4464913;1.0075151;0.33047488;;;;;;;;;;;;;;;
2235.0;2152.0;;;;-0.44522482;1.0078241;0.32862094;;;;;;;;;;;;;;;
2235.0;2152.0;;;;-0.44210058;1.0066072;0.32506946;;;;;;;;;;;;;;;
2235.0;2157.2;;;;;;;;;;;;;;;;;-33.99762;0.5378887;-3.2540362;;2081.3
2235.0;2157.2;;;;;;;;;;;;;;0.008301035;-0.047425766;0.0507828;;;;;2081.3
2235.0;2157.2;;;;;;;;;;;;;;;;;-33.92132;-2.6055179;1.3657033;;2081.3
2235.0;2157.2;;;;;;;;;;;;;;0.05139317;-0.044312876;0.0667745;;;;;2081.3
2235.0;2157.2;;;;;;;;;;;;;;;;;-33.341473;-4.387036;6.1189613;;2091.0
2235.0;2157.2;;;;;;;;;;;;;;0.115421005;-0.042298656;0.09149449;;;;;2091.0
2235.0;2157.2;;;;;;;;;;;;;;;;;-33.02103;-6.679739;11.135441;;2091.0
2235.0;2157.2;;;;;;;;;;;;;;0.18109684;-0.03753777;0.10632649;;;;;2091.0
2235.0;2157.2;;;;;;;;;;;;;;;;;-33.082066;-7.8394423;16.056551;;2100.6
2235.0;2157.2;;;;;;;;;;;;;;0.26593828;-0.028565325;0.11011078;;;;;2100.6
2235.0;2157.2;;;;;;;;;;;;;;;;;-34.138767;-7.2367015;20.615253;;2100.6
2235.0;2157.2;;;;;;;;;;;;;;0.34339428;-0.017761772;0.109073155;;;;;2100.6
2235.0;2160.1;;;;;;;;;;-9.060183;124.881744;-9.3577385;;;;;;;;;
2235.0;2160.1;;;;;;;0.2870571;-1.052095;-0.14606158;;;;;;;;;;;;
2235.0;2160.1;;;;;;;;;;-10.280923;124.881744;-6.55385;;;;;;;;;
2235.0;2160.1;;;;;;;0.28058717;-1.05533;-0.13696708;;;;;;;;;;;;
2289.0;2161.9;;;;-0.43941885;1.0038301;0.32064822;;;;;;;;;;;;;;;
2289.0;2161.9;;;;-0.44073874;1.0019609;0.31655124;;;;;;;;;;;;;;;
2289.0;2161.9;;;;-0.4410935;0.9982377;0.31100467;;;;;;;;;;;;;;;
2289.0;2161.9;;;;-0.4418984;0.9938966;0.30561832;;;;;;;;;;;;;;;
2289.0;2161.9;;;;-0.44118124;0.9883996;0.3009682;;;;;;;;;;;;;;;
2289.0;2165.9;262143;262143;13745;;;;;;;;;;;;;;;;;;
2289.0;2169.7;;;;;;;;;;-11.3986635;124.881744;-4.093295;;;;;;;;;
2289.0;2169.7;;;;;;;0.26813564;-1.0572833;-0.12866604;;;;;;;;;;;;
2289.0;2169.7;;;;;;;;;;-12.394329;124.881744;-1.7052218;;;;;;;;;
2289.0;2169.7;;;;;;;0.2562334;-1.0646077;-0.120975375;;;;;;;;;;;;
2289.0;2171.7;;;;;;;;;;;;;1939;;;;;;;;
2289.0;2171.7;;;;;;;;;;;;;2138;;;;;;;;
2289.0;2171.7;;;;;;;;;;;;;2076;;;;;;;;
2289.0;2171.7;;;;;;;;;;;;;1770;;;;;;;;
2289.0;2171.7;;;;;;;;;;;;;1729;;;;;;;;
2289.0;2171.8;;;;-0.43581778;0.98204815;0.29599383;;;;;;;;;;;;;;;
2289.0;2171.8;;;;-0.43095022;0.97571576;0.29022983;;;;;;;;;;;;;;;
2289.0;2171.8;;;;-0.42691427;0.96987164;0.28470233;;;;;;;;;;;;;;;
2289.0;2171.8;;;;-0.42311102;0.96447;0.2790871;;;;;;;;;;;;;;;
2289.0;2171.8;;;;-0.42107397;0.9597856;0.27302173;;;;;;;;;;;;;;;
2289.0;2179.1;;;;;;;;;;-13.592181;124.881744;0.6485183;;;;;;;;;
2289.0;2179.1;;;;;;;0.24304941;-1.0704672;-0.11444441;;;;;;;;;;;;
2289.0;2179.1;;;;;;;;;;-15.003662;124.881744;2.8649251;;;;;;;;;
2289.0;2179.1;;;;;;;0.2283395;-1.0779748;-0.107974485;;;;;;;;;;;;
2294.0;2181.8;;;;-0.41913992;0.95594037;0.26787952;;;;;;;;;;;;;;;
2294.0;2181.8;;;;-0.41622168;0.9525491;0.2623711;;;;;;;;;;;;;;;
2294.0;2181.8;;;;-0.41175848;0.94980633;0.2566147;;;;;;;;;;;;;;;
2294.0;2181.8;;;;-0.40988165;0.9484178;0.25075534;;;;;;;;;;;;;;;
2294.0;2181.8;;;;-0.40686804;0.94760907;0.24413303;;;;;;;;;;;;;;;
2294.0;2185.9;262143;262143;13738;;;;;;;;;;;;;;;;;;
2294.0;2188.7;;;;;;;;;;-16.52196;124.881744;4.9439983;;;;;;;;;
2294.0;2188.7;;;;;;;0.21527757;-1.0867641;-0.1015656;;;;;;;;;;;;
2294.0;2188.7;;;;;;;;;;-18.063143;124.881744;6.8933682;;;;;;;;;
2294.0;2188.7;;;;;;;0.19727165;-1.0954924;-0.09308145;;;;;;;;;;;;
2294.0;2191.9;;;;-0.40186697;0.9470445;0.23858646;;;;;;;;;;;;;;;
2294.0;2191.9;;;;-0.39669806;0.9470254;0.23434833;;;;;;;;;;;;;;;
2294.0;2191.9;;;;-0.39374167;0.9482957;0.23076251;;;;;;;;;;;;;;;
2294.0;2191.9;;;;-0.3894692;0.9494134;0.22762302;;;;;;;;;;;;;;;
2294.0;2191.9;;;;-0.38698584;0.9515306;0.2253075;;;;;;;;;;;;;;;
2294.0;2198.4;;;;;;;;;;-19.592882;124.881744;9.044923;;;;;;;;;
2294.0;2198.4;;;;;;;0.18115787;-1.1021454;-0.08685568;;;;;;;;;;;;
2294.0;2198.4;;;;;;;;;;-21.397291;124.881744;11.15833;;;;;;;;;
2294.0;2198.4;;;;;;;0.16657002;-1.1098971;-0.08239998;;;;;;;;;;;;
2295.0;2202.0;;;;-0.38506323;0.95419705;0.22308353;;;;;;;;;;;;;;;
2295.0;2202.0;;;;-0.38153464;0.9566308;0.22188953;;;;;;;;;;;;;;;
2295.0;2202.0;;;;-0.37845236;0.9589921;0.22091678;;;;;;;;;;;;;;;
2295.0;2202.0;;;;-0.37613684;0.9613954;0.22129825;;;;;;;;;;;;;;;
2295.0;2202.0;;;;-0.37342837;0.96437466;0.2208977;;;;;;;;;;;;;;;
2295.0;2202.3;;;;;;;;;;;;;;;;;-35.184025;-5.7451096;24.880215;;2110.1
2295.0;2202.3;;;;;;;;;;;;;;0.4126713;-0.0075685903;0.11059908;;;;;2110.1
2295.0;2202.3;;;;;;;;;;;;;;;;;-37.236397;-4.4976654;28.271584;;2110.1
2295.0;2202.3;;;;;;;;;;;;;;0.4695578;0.0027466659;0.13592944;;;;;2110.1
2295.0;2202.3;;;;;;;;;;;;;;;;;-40.650654;-4.6655173;31.361584;;2119.7
2295.0;2202.3;;;;;;;;;;;;;;0.5215003;0.012390515;0.14465773;;;;;2119.7
2295.0;2202.3;;;;;;;;;;;;;;;;;-44.248024;-5.4246655;34.32569;;2119.7
2295.0;2202.3;;;;;;;;;;;;;;0.57704395;0.017578661;0.1429487;;;;;2119.7
2295.0;2202.3;;;;;;;;;;;;;;;;;-47.135838;-7.1375165;37.27836;;2129.4
2295.0;2202.3;;;;;;;;;;;;;;0.62349313;0.024109622;0.12372204;;;;;2129.4
2295.0;2202.3;;;;;;;;;;;;;;;;;-49.18058;-10.181738;40.7651;;2129.4
2295.0;2202.3;;;;;;;;;;;;;;0.66188544;0.037110507;0.09533983;;;;;2129.4
2295.0;2206.0;262143;262143;13739;;;;;;;;;;;;;;;;;;
2295.0;2207.9;;;;;;;;;;-23.194067;124.881744;13.035218;;;;;;;;;
2295.0;2207.9;;;;;;;0.14886929;-1.116245;-0.07660146;;;;;;;;;;;;
2295.0;2207.9;;;;;;;;;;-24.628439;124.881744;15.289773;;;;;;;;;
2295.0;2207.9;;;;;;;0.13391522;-1.1189916;-0.069093905;;;;;;;;;;;;
2297.0;2211.9;;;;;;;;;;;;;1921;;;;;;;;
2297.0;2211.9;;;;;;;;;;;;;1643;;;;;;;;
2297.0;2211.9;;;;;;;;;;;;;851;;;;;;;;
2297.0;2211.9;;;;;;;;;;;;;382;;;;;;;;
2297.0;2211.9;;;;;;;;;;;;;552;;;;;;;;
2297.0;2212.0;;;;-0.37126926;0.9672433;0.22147372;;;;;;;;;;;;;;;
2297.0;2212.0;;;;-0.3702431;0.96979153;0.2212868;;;;;;;;;;;;;;;
2297.0;2212.0;;;;-0.3693352;0.972046;0.22233203;;;;;;;;;;;;;;;
2297.0;2212.0;;;;-0.3688927;0.97426236;0.22282413;;;;;;;;;;;;;;;
2297.0;2212.0;;;;-0.36859134;0.9760896;0.22347263;;;;;;;;;;;;;;;
2297.0;2217.4;;;;;;;;;;;;;;;;;-52.40028;-15.083773;44.736317;;2139.1
2297.0;2217.4;;;;;;;;;;;;;;0.68465227;0.053712577;0.06451613;;;;;2139.1
2297.0;2217.4;;;;;;;;;;;;;;;;;-57.473984;-21.534624;49.470505;;2139.1
2297.0;2217.4;;;;;;;;;;;;;;0.70674765;0.064760275;0.024048585;;;;;2139.1
2297.0;2217.4;;;;;;;;;;;;;;;;;-62.791832;-28.668325;54.898983;;2148.7
2297.0;2217.4;;;;;;;;;;;;;;0.7259133;0.055848874;-0.030640583;;;;;2148.7
2297.0;2217.4;;;;;;;;;;;;;;;;;-66.26713;-36.275063;60.975983;;2148.7
2297.0;2217.4;;;;;;;;;;;;;;0.7323832;0.05450606;-0.0860622;;;;;2148.7
2297.0;2217.4;;;;;;;;;;;;;;;;;-68.14783;-43.00821;67.88079;;2158.4
2297.0;2217.4;;;;;;;;;;;;;;0.72902614;0.031678215;-0.1257973;;;;;2158.4
2297.0;2217.4;;;;;;;;;;;;;;;;;-67.55273;-48.95169;75.28535;;2158.4
2297.0;2217.4;;;;;;;;;;;;;;0.71614736;-0.0055543687;-0.13373211;;;;;2158.4
2297.0;2217.2;;;;;;;;;;-25.872066;124.87411;17.60155;;;;;;;;;
2297.0;2217.2;;;;;;;0.12140263;-1.1203345;-0.059877317;;;;;;;;;;;;
2297.0;2217.2;;;;;;;;;;-27.027956;124.118774;19.787437;;;;;;;;;
2297.0;2217.2;;;;;;;0.10974456;-1.1217993;-0.050050355;;;;;;;;;;;;
2349.0;2221.9;;;;-0.3685799;0.9775735;0.22322085;;;;;;;;;;;;;;;
2349.0;2221.9;;;;-0.36921313;0.9782182;0.22362903;;;;;;;;;;;;;;;
2349.0;2221.9;;;;-0.37081912;0.97821057;0.22388843;;;;;;;;;;;;;;;
2349.0;2221.9;;;;-0.37201694;0.9778062;0.22308353;;;;;;;;;;;;;;;
2349.0;2221.9;;;;-0.3737183;0.9770738;0.22270206;;;;;;;;;;;;;;;
2349.0;2226.1;262143;262143;13734;;;;;;;;;;;;;;;;;;
2349.0;2226.9;;;;;;;;;;-27.985474;120.71977;21.81692;;;;;;;;;
2349.0;2226.9;;;;;;;0.09930723;-1.1251564;-0.04113895;;;;;;;;;;;;
2349.0;2226.9;;;;;;;;;;-29.110844;115.142525;23.594624;;;;;;;;;
2349.0;2226.9;;;;;;;0.08954131;-1.126133;-0.030823695;;;;;;;;;;;;
2349.0;2231.9;;;;-0.37598044;0.9760858;0.22209552;;;;;;;;;;;;;;;
2349.0;2231.9;;;;-0.37847525;0.974373;0.2222214;;;;;;;;;;;;;;;
2349.0;2231.9;;;;-0.38102347;0.97277844;0.22108462;;;;;;;;;;;;;;;
2349.0;2231.9;;;;-0.3841477;0.9709779;0.22066882;;;;;;;;;;;;;;;
2349.0;2231.9;;;;-0.38737112;0.96969235;0.21989444;;;;;;;;;;;;;;;
2349.0;2236.2;;;;;;;;;;-30.102694;108.97778;25.086214;;;;;;;;;
2349.0;2236.2;;;;;;;0.07843257;-1.1288186;-0.026978362;;;;;;;;;;;;
2349.0;2236.2;;;;;;;;;;-31.30436;102.90078;26.684622;;;;;;;;;
2349.0;2236.2;;;;;;;0.06970428;-1.1291238;-0.022400586;;;;;;;;;;;;
2354.0;2241.9;;;;-0.39064032;0.968403;0.21797565;;;;;;;;;;;;;;;
2354.0;2241.9;;;;-0.39437872;0.9671861;0.21714023;;;;;;;;;;;;;;;
2354.0;2241.9;;;;-0.39792258;0.96629727;0.2150307;;;;;;;;;;;;;;;
2354.0;2241.9;;;;-0.4012528;0.9653245;0.21206668;;;;;;;;;;;;;;;
2354.0;2241.9;;;;-0.40440756;0.9644586;0.2085152;;;;;;;;;;;;;;;
2354.0;2245.9;;;;;;;;;;-32.82266;96.76275;28.53099;;;;;;;;;
2354.0;2245.9;;;;;;;0.059938353;-1.1249733;-0.016052736;;;;;;;;;;;;
2354.0;2245.9;;;;;;;;;;-34.108246;90.556046;30.793177;;;;;;;;;
2354.0;2245.9;;;;;;;0.04297006;-1.1219214;-0.0045167394;;;;;;;;;;;;
2354.0;2246.1;262143;262143;13734;;;;;;;;;;;;;;;;;;
2354.0;2252.0;;;;-0.40824133;0.9632188;0.20388034;;;;;;;;;;;;;;;
2354.0;2252.0;;;;-0.4120255;0.9621583;0.1988335;;;;;;;;;;;;;;;
2354.0;2252.0;;;;-0.41593176;0.96133816;0.19347385;;;;;;;;;;;;;;;
2354.0;2252.0;;;;-0.41968542;0.9610139;0.18757251;;;;;;;;;;;;;;;
2354.0;2252.0;;;;-0.4241677;0.96177685;0.18156435;;;;;;;;;;;;;;;
2354.0;2252.0;;;;;;;;;;;;;792;;;;;;;;
2354.0;2252.0;;;;;;;;;;;;;728;;;;;;;;
2354.0;2252.0;;;;;;;;;;;;;690;;;;;;;;
2354.0;2252.0;;;;;;;;;;;;;1089;;;;;;;;
2354.0;2252.0;;;;;;;;;;;;;1383;;;;;;;;
2354.0;2255.5;;;;;;;;;;-34.82543;84.5439;33.867916;;;;;;;;;
2354.0;2255.5;;;;;;;0.037049472;-1.1189306;-1.2207404E-4;;;;;;;;;;;;
2354.0;2255.5;;;;;;;;;;-35.382397;78.59279;36.835842;;;;;;;;;
2354.0;2255.5;;;;;;;0.03418073;-1.112949;0.0041505173;;;;;;;;;;;;
2356.0;2262.1;;;;-0.42799765;0.963936;0.1752968;;;;;;;;;;;;;;;
2356.0;2262.1;;;;-0.43087775;0.967209;0.16895296;;;;;;;;;;;;;;;
2356.0;2262.1;;;;-0.43467337;0.9720231;0.1635666;;;;;;;;;;;;;;;
2356.0;2262.1;;;;-0.43762976;0.97838604;0.15870668;;;;;;;;;;;;;;;
2356.0;2262.1;;;;-0.43980414;0.9864274;0.15403368;;;;;;;;;;;;;;;
2356.0;2262.9;;;;;;;;;;;;;;;;;-65.79409;-51.67165;83.2049;;2168.1
2356.0;2262.9;;;;;;;;;;;;;;0.6642659;-0.03851436;-0.10101627;;;;;2168.1
2356.0;2262.9;;;;;;;;;;;;;;;;;-65.02731;-52.95343;91.30756;;2168.1
2356.0;2262.9;;;;;;;;;;;;;;0.6052431;-0.06573687;-0.07763909;;;;;2168.1
2356.0;2262.9;;;;;;;;;;;;;;;;;-65.15702;-51.854763;99.62004;;2177.7
2356.0;2262.9;;;;;;;;;;;;;;0.55360574;-0.080446795;-0.0048829615;;;;;2177.7
2356.0;2262.9;;;;;;;;;;;;;;;;;-65.160835;-47.63558;107.9783;;2177.7
2356.0;2262.9;;;;;;;;;;;;;;0.48286384;-0.1037019;0.14636678;;;;;2177.7
2356.0;2262.9;;;;;;;;;;;;;;;;;-62.40272;-42.039246;114.99756;;2187.4
2356.0;2262.9;;;;;;;;;;;;;;0.4326304;-0.13110752;0.36671042;;;;;2187.4
2356.0;2262.9;;;;;;;;;;;;;;;;;-54.76928;-36.76336;119.78896;;2187.4
2356.0;2262.9;;;;;;;;;;;;;;0.4342784;-0.13721122;0.64192635;;;;;2187.4
2356.0;2265.0;;;;;;;;;;-36.22547;72.69128;39.36506;;;;;;;;;
2356.0;2265.0;;;;;;;0.038392287;-1.1071504;0.0073244423;;;;;;;;;;;;
2356.0;2265.0;;;;;;;;;;-37.57973;66.48839;41.283913;;;;;;;;;
2356.0;2265.0;;;;;;;0.04034547;-1.1022065;0.0112918485;;;;;;;;;;;;
2356.0;2266.2;262143;262143;13728;;;;;;;;;;;;;;;;;;
2357.0;2272.1;;;;-0.44213492;0.995762;0.15037157;;;;;;;;;;;;;;;
2357.0;2272.1;;;;-0.44370657;1.006817;0.14619066;;;;;;;;;;;;;;;
2357.0;2272.1;;;;-0.4452706;1.0195504;0.14236833;;;;;;;;;;;;;;;
2357.0;2272.1;;;;-0.44608694;1.0332566;0.13845445;;;;;;;;;;;;;;;
2357.0;2272.1;;;;-0.4465447;1.048134;0.1346245;;;;;;;;;;;;;;;
