patientId;holterMac;flexMac;;;;;;;;;;;;;;;;;;;;
;CA:F3:0B:1E:33:78;D3:4A:5C:52:80:78;;;;;;;;;;;;;;;;;;;;
receivedTimeStamp;timeStamp;red;ir;green;adxl_accX;adxl_accY;adxl_accZ;lsm_accelX;lsm_accelY;lsm_accelZ;lsm_gyroX;lsm_gyroY;lsm_gyroZ;ecg;flex_lsm_accelX;flex_lsm_accelY;flex_lsm_accelZ;flex_lsm_gyroX;flex_lsm_gyroY;flex_lsm_gyroZ;flex_cmd;flexTimeStamp
275.0;213.0;;;;;;;;;;;;;;;;;;;;17;0.1
275.0;213.0;;;;;;;;;;;;;;;;;13.336589;0.9537034;0.35859248;;127.6
275.0;213.0;;;;;;;;;;;;;;-1.4156315;0.4213996;-0.42469558;;;;;127.6
275.0;213.0;;;;;;;;;;;;;;;;;-5.8099613;-15.766624;-7.3664055;;127.6
275.0;213.0;;;;;;;;;;;;;;-1.4462111;0.26557207;-0.056764428;;;;;127.6
275.0;213.0;;;;;;;;;;;;;;;;;-68.04483;-83.22016;-59.65606;;137.2
275.0;213.0;;;;;;;;;;;;;;-1.6054567;0.16071047;0.29407635;;;;;137.2
275.0;213.0;;;;;;;;;;;;;;;;;-122.79885;-124.988556;-118.68267;;137.2
275.0;213.0;;;;;;;;;;;;;;-1.7105625;0.015259255;0.5058748;;;;;137.2
337.0;213.8;;;;;;;;;;;;;;;;;-56.455425;-124.931335;-69.83779;;146.8
337.0;213.8;;;;;;;;;;;;;;-1.5396588;-0.19757684;0.37507248;;;;;146.8
337.0;213.8;;;;;;;;;;;;;;;;;0.88503677;-124.988556;-16.0947;;146.8
337.0;213.8;;;;;;;;;;;;;;-1.2436903;-0.4329966;0.015320292;;;;;146.8
337.0;213.8;;;;;;;;;;;;;;;;;-25.234991;-100.46311;-16.144293;;156.5
337.0;213.8;;;;;;;;;;;;;;-1.1137425;-0.6466872;-0.21112704;;;;;156.5
337.0;213.8;;;;;;;;;;;;;;;;;-43.851284;-14.805292;-2.6551104;;156.5
337.0;213.8;;;;;;;;;;;;;;-0.9012726;-0.67824334;-0.35480818;;;;;156.5
337.0;213.8;;;;;;;;;;;;;;;;;-47.11295;2.2659993;-11.196478;;166.0
337.0;213.8;;;;;;;;;;;;;;-0.6455886;-0.66805017;-0.6938688;;;;;166.0
337.0;213.8;;;;;;;;;;;;;;;;;-35.580765;10.151219;-22.274696;;166.0
337.0;213.8;;;;;;;;;;;;;;-0.6106754;-0.53382975;-0.75032806;;;;;166.0
337.0;273.2;;;;;;;;;;;;;;;;;-7.1298866;11.928923;-28.824732;;175.7
337.0;273.2;;;;;;;;;;;;;;-0.6204413;-0.16840114;-0.5379192;;;;;175.7
337.0;273.2;;;;;;;;;;;;;;;;;14.271218;14.709922;-27.939695;;175.7
337.0;273.2;;;;;;;;;;;;;;-0.708945;0.19519639;-0.2618488;;;;;175.7
337.0;273.2;;;;;;;;;;;;;;;;;11.177403;10.288552;-28.893398;;185.4
337.0;273.2;;;;;;;;;;;;;;-0.7317118;0.2891934;0.025635548;;;;;185.4
337.0;273.2;;;;;;;;;;;;;;;;;-13.264108;9.063997;-28.946806;;185.4
337.0;273.2;;;;;;;;;;;;;;-0.8249153;0.26215398;0.130253;;;;;185.4
337.0;273.2;;;;;;;;;;;;;;;;;-40.349285;12.916959;-23.255104;;195.1
337.0;273.2;;;;;;;;;;;;;;-0.92965484;0.27161473;-0.07068087;;;;;195.1
337.0;273.2;;;;;;;;;;;;;;;;;-54.589985;8.713035;-10.567034;;195.1
337.0;273.2;;;;;;;;;;;;;;-0.97579885;0.443556;-0.33149204;;;;;195.1
398.0;274.0;;;;;;;;;;;;;;;;;-64.36354;-0.8926664;4.2687764;;204.7
398.0;274.0;;;;;;;;;;;;;;-0.9274575;0.6867275;-0.473159;;;;;204.7
398.0;274.0;;;;;;;;;;;;;;;;;-75.392166;-1.5564439;17.288734;;204.7
398.0;274.0;;;;;;;;;;;;;;-0.9792169;0.81295204;-0.4431898;;;;;204.7
398.0;274.0;;;;;;;;;;;;;;;;;-88.820305;-0.09155553;27.890102;;214.4
398.0;274.0;;;;;;;;;;;;;;-0.9939268;0.8099002;-0.45124668;;;;;214.4
398.0;274.0;;;;;;;;;;;;;;;;;-95.47716;-1.6937773;38.4991;;214.4
398.0;274.0;;;;;;;;;;;;;;-0.9306925;0.65828425;-0.5200354;;;;;214.4
398.0;274.0;;;;;;;;;;;;;;;;;-92.61986;-4.753258;50.721764;;224.0
398.0;274.0;;;;;;;;;;;;;;-0.87185276;0.4677877;-0.5463424;;;;;224.0
398.0;274.0;;;;;;;;;;;;;;;;;-85.38316;-6.8857384;59.55306;;224.0
398.0;274.0;;;;;;;;;;;;;;-0.8555559;0.30103457;-0.52088994;;;;;224.0
398.0;333.6;;;;;;;;;;;;;;;;;-78.96282;-6.8132577;63.741722;;233.6
398.0;333.6;;;;;;;;;;;;;;-0.87728506;0.14850307;-0.40156254;;;;;233.6
398.0;333.6;;;;;;;;;;;;;;;;;-75.342575;-4.856258;64.9205;;233.6
398.0;333.6;;;;;;;;;;;;;;-0.94717246;0.0072634052;-0.29950866;;;;;233.6
398.0;333.6;;;;;;;;;;;;;;;;;-76.4832;-2.2888882;64.22239;;243.1
398.0;333.6;;;;;;;;;;;;;;-1.0378125;-0.15112767;-0.33002716;;;;;243.1
398.0;333.6;;;;;;;;;;;;;;;;;-77.47887;2.071444;60.930202;;243.1
398.0;333.6;;;;;;;;;;;;;;-1.1890011;-0.31696525;-0.42304757;;;;;243.1
398.0;333.6;;;;;;;;;;;;;;;;;-75.972015;4.1085544;55.21561;;252.6
398.0;333.6;;;;;;;;;;;;;;-1.292581;-0.41328165;-0.48744163;;;;;252.6
398.0;333.6;;;;;;;;;;;;;;;;;-74.76272;2.4147773;49.207283;;252.6
398.0;333.6;;;;;;;;;;;;;;-1.2596209;-0.44428846;-0.52107304;;;;;252.6
458.0;334.4;;;;;;;;;;;;;;;;;-74.35835;0.88122195;44.21369;;262.3
458.0;334.4;;;;;;;;;;;;;;-1.1846064;-0.48707542;-0.5129551;;;;;262.3
458.0;334.4;;;;;;;;;;;;;;;;;-72.88583;0.6714072;40.074615;;262.3
458.0;334.4;;;;;;;;;;;;;;-1.0845668;-0.5178991;-0.49043244;;;;;262.3
458.0;334.4;;;;;;;;;;;;;;;;;-67.22846;1.8807031;38.42662;;272.0
458.0;334.4;;;;;;;;;;;;;;-0.9978942;-0.5109409;-0.4680929;;;;;272.0
458.0;334.4;;;;;;;;;;;;;;;;;-57.466354;2.967925;38.415176;;272.0
458.0;334.4;;;;;;;;;;;;;;-0.9095737;-0.48615986;-0.47083956;;;;;272.0
458.0;334.4;;;;;;;;;;;;;;;;;-46.365246;4.482406;38.937805;;281.6
458.0;334.4;;;;;;;;;;;;;;-0.857326;-0.3770867;-0.45435956;;;;;281.6
458.0;334.4;;;;;;;;;;;;;;;;;-38.201546;6.916257;39.094208;;281.6
458.0;334.4;;;;;;;;;;;;;;-0.847499;-0.27069917;-0.44465467;;;;;281.6
458.0;401.6;;;;;;;;;;;;;;;;;-33.6314;7.827998;39.880062;;291.2
458.0;401.6;;;;;;;;;;;;;;-0.88808864;-0.21356852;-0.4029664;;;;;291.2
458.0;401.6;;;;;;;;;;;;;;;;;-32.34962;6.912442;40.532394;;291.2
458.0;401.6;;;;;;;;;;;;;;-0.9367962;-0.17267373;-0.37525558;;;;;291.2
458.0;401.6;;;;;;;;;;;;;;;;;-33.71151;5.2148504;41.08173;;300.9
458.0;401.6;;;;;;;;;;;;;;-0.9696951;-0.0783105;-0.3559679;;;;;300.9
458.0;401.6;;;;;;;;;;;;;;;;;-36.9274;2.685629;42.39784;;300.9
458.0;401.6;;;;;;;;;;;;;;-0.96945095;0.040101323;-0.36750388;;;;;300.9
458.0;401.6;;;;;;;;;;;;;;;;;-42.56188;-0.54933316;44.00006;;310.5
458.0;401.6;;;;;;;;;;;;;;-0.93826103;0.12213507;-0.3899655;;;;;310.5
458.0;401.6;;;;;;;;;;;;;;;;;-49.70702;-2.2659993;46.41865;;310.5
458.0;401.6;;;;;;;;;;;;;;-0.93111974;0.12079226;-0.37977234;;;;;310.5
519.0;402.4;;;;;;;;;;;;;;;;;-56.863613;-3.4333322;49.06995;;320.2
519.0;402.4;;;;;;;;;;;;;;-0.9155553;0.13116856;-0.37440106;;;;;320.2
519.0;402.4;;;;;;;;;;;;;;;;;-64.55809;-4.4289985;51.278725;;320.2
519.0;402.4;;;;;;;;;;;;;;-0.8910184;0.148381;-0.3524888;;;;;320.2
519.0;402.4;;;;;;;;;;;;;;;;;-72.10379;-4.8791466;52.339245;;329.8
519.0;402.4;;;;;;;;;;;;;;-0.87295145;0.13769951;-0.32752463;;;;;329.8
519.0;402.4;;;;;;;;;;;;;;;;;-78.70723;-5.5047765;52.11417;;329.8
519.0;402.4;;;;;;;;;;;;;;-0.85299236;0.103518784;-0.31550035;;;;;329.8
519.0;402.4;;;;;;;;;;;;;;;;;-83.87631;-5.8442945;51.355022;;339.4
519.0;402.4;;;;;;;;;;;;;;-0.8344981;0.08349864;-0.31672108;;;;;339.4
519.0;402.4;;;;;;;;;;;;;;;;;-88.20612;-5.584887;50.03128;;339.4
519.0;402.4;;;;;;;;;;;;;;-0.8354137;0.057618946;-0.32538834;;;;;339.4
519.0;461.9;;;;;;;;;;;;;;;;;-91.45253;-5.11948;48.905914;;349.1
519.0;461.9;;;;;;;;;;;;;;-0.83693963;0.021240883;-0.33063754;;;;;349.1
519.0;461.9;;;;;;;;;;;;;;;;;-93.615524;-5.069887;47.677544;;349.1
519.0;461.9;;;;;;;;;;;;;;-0.84542376;-0.046754356;-0.33356732;;;;;349.1
519.0;461.9;;;;;;;;;;;;;;;;;-93.89783;-5.409406;46.491135;;358.8
519.0;461.9;;;;;;;;;;;;;;-0.8352916;-0.06060976;-0.33771783;;;;;358.8
519.0;461.9;;;;;;;;;;;;;;;;;-94.30219;-5.1538134;45.083466;;358.8
519.0;461.9;;;;;;;;;;;;;;-0.8446913;-0.104617454;-0.31928465;;;;;358.8
519.0;461.9;;;;;;;;;;;;;;;;;-93.478195;-5.6611834;44.091618;;368.4
519.0;461.9;;;;;;;;;;;;;;-0.8484756;-0.13232826;-0.31073946;;;;;368.4
519.0;461.9;;;;;;;;;;;;;;;;;-92.9899;-5.0393686;42.844173;;368.4
519.0;461.9;;;;;;;;;;;;;;-0.835963;-0.13232826;-0.3094577;;;;;368.4
580.0;463.1;;;;;;;;;;;;;;;;;-91.82638;-4.4900355;41.547134;;378.0
580.0;463.1;;;;;;;;;;;;;;-0.8427992;-0.17108676;-0.3018891;;;;;378.0
580.0;463.1;;;;;;;;;;;;;;;;;-90.02197;-4.4289985;40.501877;;378.0
580.0;463.1;;;;;;;;;;;;;;-0.8373669;-0.20111698;-0.29303873;;;;;378.0
580.0;463.1;;;;;;;;;;;;;;;;;-87.7102;-4.6578875;39.540543;;387.7
580.0;463.1;;;;;;;;;;;;;;-0.8286996;-0.23371075;-0.2847377;;;;;387.7
580.0;463.1;;;;;;;;;;;;;;;;;-85.089424;-4.9592576;38.090916;;387.7
580.0;463.1;;;;;;;;;;;;;;-0.8135014;-0.24884793;-0.27723014;;;;;387.7
580.0;463.1;;;;;;;;;;;;;;;;;-81.2212;-5.2148504;36.5421;;397.3
580.0;463.1;;;;;;;;;;;;;;-0.8355968;-0.2858974;-0.26789147;;;;;397.3
580.0;463.1;;;;;;;;;;;;;;;;;-77.79169;-7.213813;34.108246;;397.3
580.0;463.1;;;;;;;;;;;;;;-0.8647725;-0.29804376;-0.24701682;;;;;397.3
580.0;514.8;;;;;;;;;;;;;;;;;-74.05316;-10.277108;33.013397;;407.0
580.0;514.8;;;;;;;;;;;;;;-0.8262581;-0.28778955;-0.25580615;;;;;407.0
580.0;514.8;;;;;;;;;;;;;;;;;-71.07379;-8.960998;33.040104;;407.0
580.0;514.8;;;;;;;;;;;;;;-0.83028656;-0.2923673;-0.26599932;;;;;407.0
580.0;514.8;;;;;;;;;;;;;;;;;-68.464455;-6.977294;32.685326;;416.7
580.0;514.8;;;;;;;;;;;;;;-0.86178166;-0.2827235;-0.27307963;;;;;416.7
580.0;514.8;;;;;;;;;;;;;;;;;-67.07206;-6.3974423;31.823177;;416.7
580.0;514.8;;;;;;;;;;;;;;-0.88949245;-0.28400525;-0.2865688;;;;;416.7
580.0;514.8;;;;;;;;;;;;;;;;;-65.946686;-6.633961;31.46077;;426.3
580.0;514.8;;;;;;;;;;;;;;-0.9053011;-0.27478865;-0.28815576;;;;;426.3
580.0;514.8;;;;;;;;;;;;;;;;;-64.92432;-7.507553;31.472214;;426.3
580.0;514.8;;;;;;;;;;;;;;-0.9013947;-0.27112645;-0.29718924;;;;;426.3
639.0;522.2;;;;;;;;;;;;;;;;;-63.646355;-8.205665;31.373028;;435.9
639.0;522.2;;;;;;;;;;;;;;-0.89370406;-0.26367992;-0.30561236;;;;;435.9
639.0;522.2;;;;;;;;;;;;;;;;;-61.990723;-9.056368;31.105991;;435.9
639.0;522.2;;;;;;;;;;;;;;-0.88497573;-0.2624592;-0.3025605;;;;;435.9
639.0;522.2;;;;;;;;;;;;;;;;;-61.113316;-10.155034;30.3621;;445.6
639.0;522.2;;;;;;;;;;;;;;-0.8633076;-0.2633137;-0.3096408;;;;;445.6
639.0;522.2;;;;;;;;;;;;;;;;;-60.052795;-11.459701;29.065065;;445.6
639.0;522.2;;;;;;;;;;;;;;-0.84035766;-0.26722008;-0.31751457;;;;;445.6
639.0;522.2;;;;;;;;;;;;;;;;;-58.870205;-11.986145;27.546768;;455.2
639.0;522.2;;;;;;;;;;;;;;-0.8355968;-0.28180793;-0.3173925;;;;;455.2
639.0;522.2;;;;;;;;;;;;;;;;;-57.641834;-13.325145;26.19251;;455.2
639.0;522.2;;;;;;;;;;;;;;-0.82595295;-0.3037202;-0.32453382;;;;;455.2
639.0;529.7;;;;;;;;;;;;;;;;;-56.30665;-14.332255;24.826807;;464.9
639.0;529.7;;;;;;;;;;;;;;-0.81527144;-0.3327128;-0.331431;;;;;464.9
639.0;529.7;;;;;;;;;;;;;;;;;-53.945282;-14.370403;23.770103;;464.9
639.0;529.7;;;;;;;;;;;;;;-0.81905574;-0.36426893;-0.33094272;;;;;464.9
639.0;529.7;;;;;;;;;;;;;;;;;-50.53102;-14.744255;23.05292;;474.5
639.0;529.7;;;;;;;;;;;;;;-0.79989016;-0.38489944;-0.32624286;;;;;474.5
639.0;529.7;;;;;;;;;;;;;;;;;-46.174503;-15.064699;22.553179;;474.5
639.0;529.7;;;;;;;;;;;;;;-0.79635;-0.40913114;-0.31153294;;;;;474.5
639.0;529.7;;;;;;;;;;;;;;;;;-41.47847;-15.053254;21.988586;;484.2
639.0;529.7;;;;;;;;;;;;;;-0.7779778;-0.42701498;-0.29816583;;;;;484.2
639.0;529.7;;;;;;;;;;;;;;;;;-36.48488;-14.271218;21.51555;;484.2
639.0;529.7;;;;;;;;;;;;;;-0.76430553;-0.44331187;-0.27942747;;;;;484.2
698.0;575.4;;;;;;;;;;;;;;;;;-30.983917;-13.016145;21.256142;;493.8
698.0;575.4;;;;;;;;;;;;;;-0.75881225;-0.4483169;-0.25684378;;;;;493.8
698.0;575.4;;;;;;;;;;;;;;;;;-25.448622;-11.406293;20.90518;;493.8
698.0;575.4;;;;;;;;;;;;;;-0.76168096;-0.46583453;-0.24317148;;;;;493.8
698.0;575.4;;;;;;;;;;;;;;;;;-20.180365;-9.746849;20.512253;;503.3
698.0;575.4;;;;;;;;;;;;;;-0.77718437;-0.48146;-0.23780023;;;;;503.3
698.0;575.4;;;;;;;;;;;;;;;;;-15.381329;-7.9996643;20.538958;;503.3
698.0;575.4;;;;;;;;;;;;;;-0.8066042;-0.48634297;-0.23175757;;;;;503.3
698.0;575.4;;;;;;;;;;;;;;;;;-11.314737;-6.920072;20.908995;;513.0
698.0;575.4;;;;;;;;;;;;;;-0.8173467;-0.49525437;-0.23163548;;;;;513.0
698.0;575.4;;;;;;;;;;;;;;;;;-7.7669606;-5.5543685;21.233253;;513.0
698.0;575.4;;;;;;;;;;;;;;-0.8235115;-0.5098422;-0.22931609;;;;;513.0
698.0;590.0;;;;;;;;;;;;;;;;;-4.9058504;-4.696036;21.137882;;522.7
698.0;590.0;;;;;;;;;;;;;;-0.8305307;-0.52058476;-0.2356029;;;;;522.7
698.0;590.0;;;;;;;;;;;;;;;;;-2.437666;-3.9483323;20.596178;;522.7
698.0;590.0;;;;;;;;;;;;;;-0.83980834;-0.5252846;-0.22180852;;;;;522.7
698.0;590.0;;;;;;;;;;;;;;;;;-0.03051851;-3.68511;19.829401;;532.4
698.0;590.0;;;;;;;;;;;;;;-0.8269295;-0.5249794;-0.21924497;;;;;532.4
698.0;590.0;;;;;;;;;;;;;;;;;2.3918884;-2.9984436;19.306772;;532.4
698.0;590.0;;;;;;;;;;;;;;-0.8222907;-0.5142979;-0.21063875;;;;;532.4
698.0;590.0;;;;;;;;;;;;;;;;;4.688406;-2.8572955;18.982513;;542.0
698.0;590.0;;;;;;;;;;;;;;-0.82052064;-0.49861142;-0.22272408;;;;;542.0
698.0;590.0;;;;;;;;;;;;;;;;;6.645406;-2.8382213;18.64681;;542.0
698.0;590.0;;;;;;;;;;;;;;-0.8148442;-0.47499007;-0.227546;;;;;542.0
755.0;635.4;;;;;;;;;;;;;;;;;8.3925905;-3.032777;18.650625;;551.7
755.0;635.4;;;;;;;;;;;;;;-0.8154546;-0.45551926;-0.23212378;;;;;551.7
755.0;635.4;;;;;;;;;;;;;;;;;10.269479;-3.1128879;18.539995;;551.7
755.0;635.4;;;;;;;;;;;;;;-0.8289437;-0.44062623;-0.22711875;;;;;551.7
755.0;635.4;;;;;;;;;;;;;;;;;12.672811;-2.7161474;18.63155;;561.2
755.0;635.4;;;;;;;;;;;;;;-0.8506119;-0.40766624;-0.2158269;;;;;561.2
755.0;635.4;;;;;;;;;;;;;;;;;15.068514;-2.4719992;18.707848;;561.2
755.0;635.4;;;;;;;;;;;;;;-0.88876003;-0.37482834;-0.20777002;;;;;561.2
755.0;635.4;;;;;;;;;;;;;;;;;16.758478;-2.990814;18.143253;;570.9
755.0;635.4;;;;;;;;;;;;;;-0.93002105;-0.34479812;-0.1984924;;;;;570.9
755.0;635.4;;;;;;;;;;;;;;;;;17.372662;-3.9292583;17.059847;;570.9
755.0;635.4;;;;;;;;;;;;;;-0.96188235;-0.30262154;-0.19244972;;;;;570.9
755.0;650.4;;;;;;;;;;;;;;;;;15.614033;-5.031739;15.739922;;580.6
755.0;650.4;;;;;;;;;;;;;;-0.9851985;-0.25019073;-0.21570483;;;;;580.6
755.0;650.4;;;;;;;;;;;;;;;;;11.329996;-6.679739;13.870663;;580.6
755.0;650.4;;;;;;;;;;;;;;-1.0088198;-0.20014039;-0.24414808;;;;;580.6
755.0;650.4;;;;;;;;;;;;;;;;;5.558183;-9.559923;11.707664;;590.2
755.0;650.4;;;;;;;;;;;;;;-1.0196234;-0.15710929;-0.2699057;;;;;590.2
755.0;650.4;;;;;;;;;;;;;;;;;-0.14496292;-12.890255;9.651479;;590.2
755.0;650.4;;;;;;;;;;;;;;-1.0267648;-0.14416943;-0.28553116;;;;;590.2
755.0;650.4;;;;;;;;;;;;;;;;;-4.402295;-16.68218;8.102665;;599.9
755.0;650.4;;;;;;;;;;;;;;-1.0244453;-0.15845211;-0.30280465;;;;;599.9
755.0;650.4;;;;;;;;;;;;;;;;;-7.98822;-20.943327;6.611072;;599.9
755.0;650.4;;;;;;;;;;;;;;-1.0133976;-0.19354838;-0.31684315;;;;;599.9
821.0;695.7;;;;;;;;;;;;;;;;;-11.783959;-25.467695;4.7074804;;609.6
821.0;695.7;;;;;;;;;;;;;;-1.0016785;-0.2503128;-0.3291116;;;;;609.6
821.0;695.7;;;;;;;;;;;;;;;;;-15.682699;-28.98877;1.9722588;;609.6
821.0;695.7;;;;;;;;;;;;;;-0.97366256;-0.3081149;-0.33588672;;;;;609.6
821.0;695.7;;;;;;;;;;;;;;;;;-19.688253;-30.373547;-1.1291848;;619.2
821.0;695.7;;;;;;;;;;;;;;-0.9703055;-0.3571276;-0.31977293;;;;;619.2
821.0;695.7;;;;;;;;;;;;;;;;;-24.655142;-31.33488;-4.7875915;;619.2
821.0;695.7;;;;;;;;;;;;;;-0.9725028;-0.40107426;-0.2739952;;;;;619.2
821.0;695.7;;;;;;;;;;;;;;;;;-31.712547;-31.884212;-9.11359;;628.9
821.0;695.7;;;;;;;;;;;;;;-0.97451705;-0.4611957;-0.23822749;;;;;628.9
821.0;695.7;;;;;;;;;;;;;;;;;-41.001617;-32.87988;-13.7371435;;628.9
821.0;695.7;;;;;;;;;;;;;;-0.9656056;-0.5404218;-0.22278512;;;;;628.9
821.0;703.6;;;;;;;;;;;;;;;;;-49.65743;-35.111546;-18.97107;;638.4
821.0;703.6;;;;;;;;;;;;;;-0.94070256;-0.6187323;-0.20557268;;;;;638.4
821.0;703.6;;;;;;;;;;;;;;;;;-55.24613;-38.472397;-24.285105;;638.4
821.0;703.6;;;;;;;;;;;;;;-0.9078036;-0.6823328;-0.23175757;;;;;638.4
821.0;703.6;;;;;;;;;;;;;;;;;-55.35676;-42.924286;-29.530474;;648.1
821.0;703.6;;;;;;;;;;;;;;-0.87331766;-0.7003388;-0.24909207;;;;;648.1
821.0;703.6;;;;;;;;;;;;;;;;;-50.92013;-47.616505;-35.237434;;648.1
821.0;703.6;;;;;;;;;;;;;;-0.85580003;-0.6977752;-0.2492752;;;;;648.1
821.0;703.6;;;;;;;;;;;;;;;;;-43.691063;-51.301613;-41.726433;;657.7
821.0;703.6;;;;;;;;;;;;;;-0.8728904;-0.68007445;-0.22425;;;;;657.7
821.0;703.6;;;;;;;;;;;;;;;;;-36.04236;-52.0188;-49.40184;;657.7
821.0;703.6;;;;;;;;;;;;;;-0.9191565;-0.6576739;-0.17883846;;;;;657.7
879.0;756.0;;;;;;;;;;;;;;;;;-29.934843;-48.413803;-58.16828;;667.3
879.0;756.0;;;;;;;;;;;;;;-0.9889828;-0.6110416;-0.13116856;;;;;667.3
879.0;756.0;;;;;;;;;;;;;;;;;-27.94351;-42.08121;-67.73965;;667.3
879.0;756.0;;;;;;;;;;;;;;-1.08652;-0.5692312;-0.05511643;;;;;667.3
879.0;756.0;;;;;;;;;;;;;;;;;-31.136509;-35.2031;-77.80313;;676.6
879.0;756.0;;;;;;;;;;;;;;-1.1810052;-0.5355998;0.014404736;;;;;676.6
879.0;756.0;;;;;;;;;;;;;;;;;-36.938843;-30.209509;-88.18705;;676.6
879.0;756.0;;;;;;;;;;;;;;-1.2805567;-0.5236366;0.07361065;;;;;676.6
879.0;756.0;;;;;;;;;;;;;;;;;-40.356915;-29.522844;-97.89194;;686.2
879.0;756.0;;;;;;;;;;;;;;-1.3413495;-0.4943388;0.11120945;;;;;686.2
879.0;756.0;;;;;;;;;;;;;;;;;-39.89532;-32.35725;-106.79189;;686.2
879.0;756.0;;;;;;;;;;;;;;-1.3638722;-0.42243722;0.12152471;;;;;686.2
879.0;763.5;;;;;;;;;;;;;;;;;-34.836876;-38.174843;-114.608444;;695.9
879.0;763.5;;;;;;;;;;;;;;-1.3347576;-0.33692434;0.072634056;;;;;695.9
879.0;763.5;;;;;;;;;;;;;;;;;-25.673697;-43.519398;-120.63585;;695.9
879.0;763.5;;;;;;;;;;;;;;-1.2721336;-0.24390393;-0.01043733;;;;;695.9
879.0;763.5;;;;;;;;;;;;;;;;;-14.160588;-46.227913;-123.82885;;705.6
879.0;763.5;;;;;;;;;;;;;;-1.2071291;-0.15460677;-0.103946045;;;;;705.6
879.0;763.5;;;;;;;;;;;;;;;;;-2.2888882;-47.00232;-124.66811;;705.6
879.0;763.5;;;;;;;;;;;;;;-1.182165;-0.07245094;-0.17120884;;;;;705.6
879.0;763.5;;;;;;;;;;;;;;;;;6.2372203;-48.963135;-124.96948;;715.3
879.0;763.5;;;;;;;;;;;;;;-1.1813715;-0.025330363;-0.22150335;;;;;715.3
879.0;763.5;;;;;;;;;;;;;;;;;11.677145;-52.728355;-124.988556;;715.3
879.0;763.5;;;;;;;;;;;;;;-1.2179327;-0.0049439985;-0.21576586;;;;;715.3
937.0;816.4;;;;;;;;;;;;;;;;;13.9965515;-58.290356;-124.988556;;725.0
937.0;816.4;;;;;;;;;;;;;;-1.2667012;0.006164739;-0.14758751;;;;;725.0
937.0;816.4;;;;;;;;;;;;;;;;;12.573626;-61.18961;-124.988556;;725.0
937.0;816.4;;;;;;;;;;;;;;-1.3418989;0.028809473;-0.1053499;;;;;725.0
937.0;816.4;;;;;;;;;;;;;;;;;8.785516;-59.480576;-124.988556;;734.6
937.0;816.4;;;;;;;;;;;;;;-1.4913175;0.027344584;-0.15021211;;;;;734.6
937.0;816.4;;;;;;;;;;;;;;;;;2.55974;-53.96054;-124.73678;;734.6
937.0;816.4;;;;;;;;;;;;;;-1.6953032;0.038026065;-0.27784052;;;;;734.6
937.0;816.4;;;;;;;;;;;;;;;;;-7.1909237;-47.868282;-123.29096;;744.3
937.0;816.4;;;;;;;;;;;;;;-1.9306009;0.07275613;-0.43153173;;;;;744.3
937.0;816.4;;;;;;;;;;;;;;;;;-19.688253;-45.907467;-121.94051;;744.3
937.0;816.4;;;;;;;;;;;;;;-1.9998169;0.14966278;-0.54719687;;;;;744.3
937.0;824.2;;;;;;;;;;;;;;;;;-33.71151;-51.51143;-122.459335;;753.9
937.0;824.2;;;;;;;;;;;;;;-1.9998169;0.23499252;-0.5912046;;;;;753.9
937.0;824.2;;;;;;;;;;;;;;;;;-47.227394;-58.610798;-122.37922;;753.9
937.0;824.2;;;;;;;;;;;;;;-1.9998169;0.3030488;-0.5644093;;;;;753.9
937.0;824.2;;;;;;;;;;;;;;;;;-59.5378;-62.52861;-119.77752;;763.6
937.0;824.2;;;;;;;;;;;;;;-1.9998169;0.35309917;-0.45796075;;;;;763.6
937.0;824.2;;;;;;;;;;;;;;;;;-71.04709;-63.97061;-116.649376;;763.6
937.0;824.2;;;;;;;;;;;;;;-1.9503769;0.33393353;-0.3538316;;;;;763.6
937.0;824.2;;;;;;;;;;;;;;;;;-80.13779;-61.613056;-114.51308;;773.2
937.0;824.2;;;;;;;;;;;;;;-1.7507858;0.308298;-0.25019073;;;;;773.2
937.0;824.2;;;;;;;;;;;;;;;;;-87.66061;-56.649982;-114.406265;;773.2
937.0;824.2;;;;;;;;;;;;;;-1.5702994;0.27771842;-0.15039521;;;;;773.2
998.0;876.7;;;;;;;;;;;;;;;;;-94.641716;-49.867245;-115.787224;;782.9
998.0;876.7;;;;;;;;;;;;;;-1.4485306;0.24146245;-0.080446795;;;;;782.9
998.0;876.7;;;;;;;;;;;;;;;;;-101.596115;-42.88232;-118.20582;;782.9
998.0;876.7;;;;;;;;;;;;;;-1.3296914;0.22363964;-0.037415694;;;;;782.9
998.0;876.7;;;;;;;;;;;;;;;;;-109.57289;-34.737694;-119.40367;;792.5
998.0;876.7;;;;;;;;;;;;;;-1.3044221;0.15149388;0.008667257;;;;;792.5
998.0;876.7;;;;;;;;;;;;;;;;;-116.45482;-27.497177;-118.907745;;792.5
998.0;876.7;;;;;;;;;;;;;;-1.3053377;0.023987548;0.0144657735;;;;;792.5
998.0;876.7;;;;;;;;;;;;;;;;;-120.21622;-22.43492;-117.25974;;802.2
998.0;876.7;;;;;;;;;;;;;;-1.3047273;-0.044373915;0.0076906644;;;;;802.2
998.0;876.7;;;;;;;;;;;;;;;;;-121.417885;-20.981476;-116.67608;;802.2
998.0;876.7;;;;;;;;;;;;;;-1.2789086;-0.11084323;-0.009765923;;;;;802.2
998.0;884.2;;;;;;;;;;;;;;;;;-120.67781;-20.80218;-116.44719;;811.9
998.0;884.2;;;;;;;;;;;;;;-1.2273324;-0.10870693;-0.021790216;;;;;811.9
998.0;884.2;;;;;;;;;;;;;;;;;-119.37697;-18.868069;-117.08427;;811.9
998.0;884.2;;;;;;;;;;;;;;-1.1740471;-0.13757744;-0.036805324;;;;;811.9
998.0;884.2;;;;;;;;;;;;;;;;;-116.02374;-17.723623;-116.26026;;821.5
998.0;884.2;;;;;;;;;;;;;;-1.1098971;-0.15906247;-0.049501024;;;;;821.5
998.0;884.2;;;;;;;;;;;;;;;;;-111.74734;-15.583514;-115.23789;;821.5
998.0;884.2;;;;;;;;;;;;;;-1.0569171;-0.16492203;-0.056093022;;;;;821.5
998.0;884.2;;;;;;;;;;;;;;;;;-106.875824;-13.580737;-113.46019;;831.1
998.0;884.2;;;;;;;;;;;;;;-1.048677;-0.21411787;-0.07092502;;;;;831.1
998.0;884.2;;;;;;;;;;;;;;;;;-100.7416;-13.298441;-110.48082;;831.1
998.0;884.2;;;;;;;;;;;;;;-1.0268258;-0.21814631;-0.08697775;;;;;831.1
1061.0;937.0;;;;;;;;;;;;;;;;;-94.435715;-14.896848;-106.89871;;840.8
1061.0;937.0;;;;;;;;;;;;;;-0.96859646;-0.21686453;-0.0794702;;;;;840.8
1061.0;937.0;;;;;;;;;;;;;;;;;-88.60286;-15.694143;-102.37815;;840.8
1061.0;937.0;;;;;;;;;;;;;;-0.90969574;-0.2285226;-0.053773616;;;;;840.8
1061.0;937.0;;;;;;;;;;;;;;;;;-82.85775;-14.942626;-97.529526;;850.3
1061.0;937.0;;;;;;;;;;;;;;-0.87026584;-0.24713889;-0.041505173;;;;;850.3
1061.0;937.0;;;;;;;;;;;;;;;;;-77.34917;-14.538255;-92.879265;;850.3
1061.0;937.0;;;;;;;;;;;;;;-0.8463393;-0.26648763;-0.036988433;;;;;850.3
1061.0;937.0;;;;;;;;;;;;;;;;;-70.684685;-14.107181;-87.733086;;860.0
1061.0;937.0;;;;;;;;;;;;;;-0.82760096;-0.2760094;-0.03753777;;;;;860.0
1061.0;937.0;;;;;;;;;;;;;;;;;-63.833275;-14.5535145;-83.18583;;860.0
1061.0;937.0;;;;;;;;;;;;;;-0.80288094;-0.24622333;-0.019898068;;;;;860.0
1061.0;937.8;;;;;;;;;;;;;;;;;-56.253242;-16.346478;-79.06201;;869.7
1061.0;937.8;;;;;;;;;;;;;;-0.7677236;-0.24195075;-0.009521775;;;;;869.7
1061.0;937.8;;;;;;;;;;;;;;;;;-47.566914;-17.742699;-74.579605;;869.7
1061.0;937.8;;;;;;;;;;;;;;-0.7423322;-0.22675252;0.009704886;;;;;869.7
1061.0;937.8;;;;;;;;;;;;;;;;;-38.56777;-18.864254;-70.421455;;879.4
1061.0;937.8;;;;;;;;;;;;;;-0.73000276;-0.22260201;0.024903104;;;;;879.4
1061.0;937.8;;;;;;;;;;;;;;;;;-29.152807;-19.60814;-65.93906;;879.4
1061.0;937.8;;;;;;;;;;;;;;-0.7212134;-0.20203254;0.042542804;;;;;879.4
1061.0;937.8;;;;;;;;;;;;;;;;;-20.149845;-21.015808;-61.651203;;889.1
1061.0;937.8;;;;;;;;;;;;;;-0.71156955;-0.20093387;0.06207465;;;;;889.1
1061.0;937.8;;;;;;;;;;;;;;;;;-11.051516;-22.041994;-57.78298;;889.1
1061.0;937.8;;;;;;;;;;;;;;-0.7126072;-0.18982513;0.07940916;;;;;889.1
1119.0;997.8;;;;;;;;;;;;;;;;;-3.0632956;-23.77392;-54.452652;;898.8
1119.0;997.8;;;;;;;;;;;;;;-0.6965545;-0.18469802;0.08783227;;;;;898.8
1119.0;997.8;;;;;;;;;;;;;;;;;4.299295;-24.552141;-51.423687;;898.8
1119.0;997.8;;;;;;;;;;;;;;-0.702353;-0.18677329;0.08752709;;;;;898.8
1119.0;997.8;;;;;;;;;;;;;;;;;10.849331;-25.856808;-48.677025;;908.4
1119.0;997.8;;;;;;;;;;;;;;-0.70027775;-0.18866542;0.08349864;;;;;908.4
1119.0;997.8;;;;;;;;;;;;;;;;;16.418959;-27.249214;-46.521652;;908.4
1119.0;997.8;;;;;;;;;;;;;;-0.69392985;-0.20667134;0.07507554;;;;;908.4
1119.0;997.8;;;;;;;;;;;;;;;;;20.695364;-27.916805;-44.671467;;917.9
1119.0;997.8;;;;;;;;;;;;;;-0.6799524;-0.20526749;0.05059969;;;;;917.9
1119.0;997.8;;;;;;;;;;;;;;;;;22.778252;-26.795252;-42.90521;;917.9
1119.0;997.8;;;;;;;;;;;;;;-0.67067474;-0.1947081;0.017456587;;;;;917.9
1119.0;998.5;;;;;;;;;;;;;;;;;22.450178;-24.441511;-41.901913;;927.5
1119.0;998.5;;;;;;;;;;;;;;-0.6688436;-0.16119877;-0.03051851;;;;;927.5
1119.0;998.5;;;;;;;;;;;;;;;;;20.165104;-21.206549;-41.238136;;927.5
1119.0;998.5;;;;;;;;;;;;;;-0.67275;-0.11529893;-0.0672628;;;;;927.5
1119.0;998.5;;;;;;;;;;;;;;;;;15.739922;-19.52803;-40.208134;;937.2
1119.0;998.5;;;;;;;;;;;;;;-0.6816004;-0.060731836;-0.07721183;;;;;937.2
1119.0;998.5;;;;;;;;;;;;;;;;;11.257515;-20.046844;-39.983063;;937.2
1119.0;998.5;;;;;;;;;;;;;;-0.6642659;-0.038026065;-0.078676715;;;;;937.2
1119.0;998.5;;;;;;;;;;;;;;;;;8.331553;-19.669178;-37.560658;;946.8
1119.0;998.5;;;;;;;;;;;;;;-0.6676229;-0.06524857;-0.06738487;;;;;946.8
1119.0;998.5;;;;;;;;;;;;;;;;;8.060701;-19.512772;-34.001434;;946.8
1119.0;998.5;;;;;;;;;;;;;;-0.669393;-0.09375286;-0.052491836;;;;;946.8
1178.0;1057.8;;;;;;;;;;;;;;;;;10.376293;-19.63866;-30.125584;;956.5
1178.0;1057.8;;;;;;;;;;;;;;-0.6630451;-0.10748619;-0.04565569;;;;;956.5
1178.0;1057.8;;;;;;;;;;;;;;;;;13.53496;-19.817957;-26.646475;;956.5
1178.0;1057.8;;;;;;;;;;;;;;-0.65559864;-0.1060213;-0.032593768;;;;;956.5
1178.0;1057.8;;;;;;;;;;;;;;;;;15.053254;-21.038698;-24.094364;;966.2
1178.0;1057.8;;;;;;;;;;;;;;-0.65150917;-0.072328866;-0.022705771;;;;;966.2
1178.0;1057.8;;;;;;;;;;;;;;;;;13.4891815;-23.365734;-23.159733;;966.2
1178.0;1057.8;;;;;;;;;;;;;;-0.6072573;-0.0270394;-0.023499252;;;;;966.2
1178.0;1057.8;;;;;;;;;;;;;;;;;10.288552;-23.483994;-23.770103;;975.7
1178.0;1057.8;;;;;;;;;;;;;;-0.57667774;-0.03009125;-0.029541917;;;;;975.7
1178.0;1057.8;;;;;;;;;;;;;;;;;6.1418505;-23.796808;-24.967955;;975.7
1178.0;1057.8;;;;;;;;;;;;;;-0.5838191;-0.0045777764;-0.015503403;;;;;975.7
1178.0;1058.6;;;;;;;;;;;;;;;;;1.12537;-25.387585;-24.529253;;985.4
1178.0;1058.6;;;;;;;;;;;;;;-0.5659963;0.007141331;-0.0145878475;;;;;985.4
1178.0;1058.6;;;;;;;;;;;;;;;;;-3.543962;-26.53966;-22.591326;;985.4
1178.0;1058.6;;;;;;;;;;;;;;-0.54219186;0.010498367;-0.009582812;;;;;985.4
1178.0;1058.6;;;;;;;;;;;;;;;;;-8.514664;-26.837215;-19.932402;;995.0
1178.0;1058.6;;;;;;;;;;;;;;-0.53205967;-0.0079958495;2.4414808E-4;;;;;995.0
1178.0;1058.6;;;;;;;;;;;;;;;;;-12.436293;-26.821955;-16.80807;;995.0
1178.0;1058.6;;;;;;;;;;;;;;-0.5299844;-0.027344584;0.005981628;;;;;995.0
1178.0;1058.6;;;;;;;;;;;;;;;;;-15.102847;-26.673178;-13.245033;;1004.7
1178.0;1058.6;;;;;;;;;;;;;;-0.52449113;-0.016235847;0.013672292;;;;;1004.7
1178.0;1058.6;;;;;;;;;;;;;;;;;-16.842403;-26.10477;-9.735405;;1004.7
1178.0;1058.6;;;;;;;;;;;;;;-0.5097812;0.0021973327;0.01843318;;;;;1004.7
1182.0;1118.5;;;;;;;;;;;;;;;;;-17.540512;-24.525438;-5.8671837;;1014.4
1182.0;1118.5;;;;;;;;;;;;;;-0.51478624;0.02557451;0.031006806;;;;;1014.4
1182.0;1118.5;;;;;;;;;;;;;;;;;-18.429365;-23.998993;-1.8730735;;1014.4
1182.0;1118.5;;;;;;;;;;;;;;-0.52076787;0.028626362;0.04321421;;;;;1014.4
1182.0;1118.5;;;;;;;;;;;;;;;;;-19.886623;-23.720512;1.659444;;1024.0
1182.0;1118.5;;;;;;;;;;;;;;-0.53315836;0.026184881;0.054811243;;;;;1024.0
1182.0;1118.5;;;;;;;;;;;;;;;;;-23.342844;-23.071993;4.4442577;;1024.0
1182.0;1118.5;;;;;;;;;;;;;;-0.54615927;0.0017090365;0.051271096;;;;;1024.0
1182.0;1118.5;;;;;;;;;;;;;;;;;-28.866695;-21.71392;6.786554;;1033.7
1182.0;1118.5;;;;;;;;;;;;;;-0.5550096;-0.034485918;0.03442488;;;;;1033.7
1182.0;1118.5;;;;;;;;;;;;;;;;;-36.65273;-19.634846;9.109776;;1033.7
1182.0;1118.5;;;;;;;;;;;;;;-0.558977;-0.070192575;0.0045167394;;;;;1033.7
1182.0;1119.2;;;;;;;;;;;;;;;;;-46.296577;-17.071291;10.998108;;1043.3
1182.0;1119.2;;;;;;;;;;;;;;-0.55384994;-0.11450545;-0.04242073;;;;;1043.3
1182.0;1119.2;;;;;;;;;;;;;;;;;-56.51265;-14.099551;13.161107;;1043.3
1182.0;1119.2;;;;;;;;;;;;;;-0.5550096;-0.16046633;-0.090456866;;;;;1043.3
1182.0;1119.2;;;;;;;;;;;;;;;;;-66.618095;-11.1507;15.457625;;1052.9
1182.0;1119.2;;;;;;;;;;;;;;-0.5447554;-0.19647816;-0.14148381;;;;;1052.9
1182.0;1119.2;;;;;;;;;;;;;;;;;-75.27772;-7.965331;18.181402;;1052.9
1182.0;1119.2;;;;;;;;;;;;;;-0.55561996;-0.23432112;-0.17438276;;;;;1052.9
1182.0;1119.2;;;;;;;;;;;;;;;;;-81.81249;-5.7412944;21.126438;;1062.4
1182.0;1119.2;;;;;;;;;;;;;;-0.5521409;-0.26599932;-0.2033143;;;;;1062.4
1182.0;1119.2;;;;;;;;;;;;;;;;;-85.711235;-3.868221;24.929806;;1062.4
1182.0;1119.2;;;;;;;;;;;;;;-0.5661794;-0.30310982;-0.21375164;;;;;1062.4
1238.0;1128.9;;;;0.0;0.0;0.0;;;;;;;;;;;;;;;
1238.0;1128.9;;;;-0.13050081;0.29061893;0.101570144;;;;;;;;;;;;;;;
1238.0;1128.9;;;;-0.42996222;0.74947745;0.22475436;;;;;;;;;;;;;;;
1238.0;1128.9;;;;-0.43960577;0.75561535;0.21773914;;;;;;;;;;;;;;;
1238.0;1128.9;;;;-0.43754965;0.7550546;0.21703342;;;;;;;;;;;;;;;
1238.0;1138.9;;;;-0.43606573;0.7550508;0.216198;;;;;;;;;;;;;;;
1238.0;1138.9;;;;-0.43437582;0.75564206;0.21585467;;;;;;;;;;;;;;;
1238.0;1138.9;;;;-0.43178183;0.7556459;0.21574023;;;;;;;;;;;;;;;
1238.0;1138.9;;;;-0.42861944;0.7562715;0.21609119;;;;;;;;;;;;;;;
1238.0;1138.9;;;;-0.42660528;0.7564012;0.21555713;;;;;;;;;;;;;;;
1238.0;1140.2;57487;57486;12057;;;;;;;;;;;;;;;;;;
1238.0;1148.8;;;;-0.4246636;0.75720227;0.2151604;;;;;;;;;;;;;;;
1238.0;1148.8;;;;-0.42343146;0.75868237;0.21549991;;;;;;;;;;;;;;;
1238.0;1148.8;;;;-0.4224053;0.7597238;0.21596912;;;;;;;;;;;;;;;
1238.0;1148.8;;;;-0.42171866;0.76083004;0.21672443;;;;;;;;;;;;;;;
1238.0;1148.8;;;;-0.42193228;0.76248944;0.21637729;;;;;;;;;;;;;;;
1240.0;1158.9;;;;-0.42160803;0.7639314;0.21742252;;;;;;;;;;;;;;;
1240.0;1158.9;;;;-0.42164618;0.7651788;0.21869281;;;;;;;;;;;;;;;
1240.0;1158.9;;;;-0.42219168;0.76656353;0.21948627;;;;;;;;;;;;;;;
1240.0;1158.9;;;;-0.42354208;0.768036;0.22121051;;;;;;;;;;;;;;;
1240.0;1158.9;;;;-0.42501074;0.7687036;0.22229388;;;;;;;;;;;;;;;
1240.0;1160.2;73844;73859;12062;;;;;;;;;;;;;;;;;;
1240.0;1166.6;;;;;;;;;;;;;0;;;;;;;;
1240.0;1166.6;;;;;;;;;;;;;0;;;;;;;;
1240.0;1166.6;;;;;;;;;;;;;-1;;;;;;;;
1240.0;1166.6;;;;;;;;;;;;;-2;;;;;;;;
1240.0;1166.6;;;;;;;;;;;;;-3;;;;;;;;
1240.0;1169.0;;;;-0.4254914;0.7699357;0.22377399;;;;;;;;;;;;;;;
1240.0;1169.0;;;;-0.42578512;0.7709619;0.22577289;;;;;;;;;;;;;;;
1240.0;1169.0;;;;-0.42569357;0.7716638;0.22719958;;;;;;;;;;;;;;;
1240.0;1169.0;;;;-0.42576987;0.77201855;0.22866061;;;;;;;;;;;;;;;
1240.0;1169.0;;;;-0.42594916;0.7718011;0.2296944;;;;;;;;;;;;;;;
1241.0;1178.2;;;;;;;;;;;;;;;;;-86.61535;-2.9755547;29.09177;;1072.1
1241.0;1178.2;;;;;;;;;;;;;;-0.5825983;-0.33912167;-0.20648824;;;;;1072.1
1241.0;1178.2;;;;;;;;;;;;;;;;;-85.65783;-2.8992584;33.730583;;1072.1
1241.0;1178.2;;;;;;;;;;;;;;-0.59675896;-0.37537766;-0.19830927;;;;;1072.1
1241.0;1178.2;;;;;;;;;;;;;;;;;-83.21635;-3.212073;38.514362;;1081.8
1241.0;1178.2;;;;;;;;;;;;;;-0.6090884;-0.41724905;-0.19226661;;;;;1081.8
1241.0;1178.2;;;;;;;;;;;;;;;;;-80.02716;-3.1853695;43.17988;;1081.8
1241.0;1178.2;;;;;;;;;;;;;;-0.63020724;-0.45954773;-0.18189032;;;;;1081.8
1241.0;1178.2;;;;;;;;;;;;;;;;;-76.64724;-3.212073;47.60506;;1091.5
1241.0;1178.2;;;;;;;;;;;;;;-0.6515702;-0.50196844;-0.18506424;;;;;1091.5
1241.0;1178.2;;;;;;;;;;;;;;;;;-72.927795;-3.379925;52.083652;;1091.5
1241.0;1178.2;;;;;;;;;;;;;;-0.67952514;-0.5479904;-0.18897061;;;;;1091.5
1241.0;1179.1;;;;;;;;;;;;;;;;;-68.59416;-3.6584065;56.360058;;1101.2
1241.0;1179.1;;;;;;;;;;;;;;-0.6949675;-0.5950499;-0.20184942;;;;;1101.2
1241.0;1179.1;;;;;;;;;;;;;;;;;-63.467056;-3.5821102;60.57161;;1101.2
1241.0;1179.1;;;;;;;;;;;;;;-0.71730703;-0.6398511;-0.21692556;;;;;1101.2
1241.0;1179.1;;;;;;;;;;;;;;;;;-57.96228;-3.6774805;64.34065;;1110.9
1241.0;1179.1;;;;;;;;;;;;;;-0.7332987;-0.68599504;-0.23535874;;;;;1110.9
1241.0;1179.1;;;;;;;;;;;;;;;;;-52.076023;-3.299814;67.49931;;1110.9
1241.0;1179.1;;;;;;;;;;;;;;-0.7509384;-0.7241432;-0.2511063;;;;;1110.9
1241.0;1179.1;;;;;;;;;;;;;;;;;-46.15543;-2.6055179;69.963684;;1120.6
1241.0;1179.1;;;;;;;;;;;;;;-0.7644276;-0.73787653;-0.2677694;;;;;1120.6
1241.0;1179.1;;;;;;;;;;;;;;;;;-40.07843;-1.9341105;71.80624;;1120.6
1241.0;1179.1;;;;;;;;;;;;;;-0.7868282;-0.7384869;-0.2705771;;;;;1120.6
1299.0;1178.9;;;;-0.42663962;0.77178586;0.2310715;;;;;;;;;;;;;;;
1299.0;1178.9;;;;-0.42823797;0.771515;0.23194507;;;;;;;;;;;;;;;
1299.0;1178.9;;;;-0.42937094;0.7713853;0.23237994;;;;;;;;;;;;;;;
1299.0;1178.9;;;;-0.43009192;0.7710229;0.2327576;;;;;;;;;;;;;;;
1299.0;1178.9;;;;-0.4304772;0.76983273;0.2329903;;;;;;;;;;;;;;;
1299.0;1180.3;90279;90340;12057;;;;;;;;;;;;;;;;;;
1299.0;1188.9;;;;-0.43080908;0.76900494;0.23202136;;;;;;;;;;;;;;;
1299.0;1188.9;;;;-0.43066412;0.7681314;0.23102573;;;;;;;;;;;;;;;
1299.0;1188.9;;;;-0.43058783;0.76671994;0.22988895;;;;;;;;;;;;;;;
1299.0;1188.9;;;;-0.43048102;0.7652513;0.22943118;;;;;;;;;;;;;;;
1299.0;1188.9;;;;-0.42984396;0.76352704;0.22792056;;;;;;;;;;;;;;;
1299.0;1198.9;;;;-0.42914587;0.7614137;0.22711185;;;;;;;;;;;;;;;
1299.0;1198.9;;;;-0.42880255;0.75994503;0.22624591;;;;;;;;;;;;;;;
1299.0;1198.9;;;;-0.42765814;0.75797665;0.22592548;;;;;;;;;;;;;;;
1299.0;1198.9;;;;-0.42664343;0.7558328;0.2245293;;;;;;;;;;;;;;;
1299.0;1198.9;;;;-0.42562872;0.7533227;0.22387698;;;;;;;;;;;;;;;
1299.0;1200.4;106651;106698;12061;;;;;;;;;;;;;;;;;;
1299.0;1206.6;;;;;;;;;;;;;-6;;;;;;;;
1299.0;1206.6;;;;;;;;;;;;;-6;;;;;;;;
1299.0;1206.6;;;;;;;;;;;;;-10;;;;;;;;
1299.0;1206.6;;;;;;;;;;;;;-13;;;;;;;;
1299.0;1206.6;;;;;;;;;;;;;-11;;;;;;;;
1301.0;1208.9;;;;-0.42428213;0.7507783;0.22243884;;;;;;;;;;;;;;;
1301.0;1208.9;;;;-0.42284018;0.7480317;0.22153094;;;;;;;;;;;;;;;
1301.0;1208.9;;;;-0.42152792;0.7454644;0.21998218;;;;;;;;;;;;;;;
1301.0;1208.9;;;;-0.42060095;0.74283606;0.21831134;;;;;;;;;;;;;;;
1301.0;1208.9;;;;-0.41961676;0.7393876;0.21631244;;;;;;;;;;;;;;;
1301.0;1218.9;;;;-0.41818625;0.73650366;0.21486285;;;;;;;;;;;;;;;
1301.0;1218.9;;;;-0.4167748;0.73367697;0.21371463;;;;;;;;;;;;;;;
1301.0;1218.9;;;;-0.41508108;0.73081976;0.21244052;;;;;;;;;;;;;;;
1301.0;1218.9;;;;-0.4140702;0.72830206;0.21147159;;;;;;;;;;;;;;;
1301.0;1218.9;;;;-0.41346365;0.7257233;0.21078494;;;;;;;;;;;;;;;
1301.0;1220.4;123028;123086;12054;;;;;;;;;;;;;;;;;;
1301.0;1229.0;;;;-0.41281515;0.72357565;0.20988467;;;;;;;;;;;;;;;
1301.0;1229.0;;;;-0.41229254;0.72136694;0.21012118;;;;;;;;;;;;;;;
1301.0;1229.0;;;;-0.41230398;0.71903616;0.21032718;;;;;;;;;;;;;;;
1301.0;1229.0;;;;-0.41237646;0.71734625;0.21020892;;;;;;;;;;;;;;;
1301.0;1229.0;;;;-0.41221243;0.71532065;0.21055606;;;;;;;;;;;;;;;
1302.0;1238.3;;;;;;;;;;;;;;;;;-33.272808;-1.781518;72.920166;;1130.2
1302.0;1238.3;;;;;;;;;;;;;;-0.806238;-0.73891413;-0.26013976;;;;;1130.2
1302.0;1238.3;;;;;;;;;;;;;;;;;-25.669882;-1.7967772;73.47713;;1130.2
1302.0;1238.3;;;;;;;;;;;;;;-0.82662433;-0.7234107;-0.24195075;;;;;1130.2
1302.0;1238.3;;;;;;;;;;;;;;;;;-17.639698;-1.7891476;73.68694;;1139.8
1302.0;1238.3;;;;;;;;;;;;;;-0.83138525;-0.685934;-0.21765801;;;;;1139.8
1302.0;1238.3;;;;;;;;;;;;;;;;;-10.296182;-0.8735923;73.70602;;1139.8
1302.0;1238.3;;;;;;;;;;;;;;-0.8352916;-0.65413374;-0.18311106;;;;;1139.8
1302.0;1238.3;;;;;;;;;;;;;;;;;-3.5096285;0.67522204;73.59157;;1149.4
1302.0;1238.3;;;;;;;;;;;;;;-0.84212774;-0.62569046;-0.1480758;;;;;1149.4
1302.0;1238.3;;;;;;;;;;;;;;;;;2.7771842;2.8382213;73.62972;;1149.4
1302.0;1238.3;;;;;;;;;;;;;;-0.8487198;-0.58339185;-0.10724204;;;;;1149.4
1302.0;1239.0;;;;-0.41236502;0.7128716;0.21075061;;;;;;;;;;;;;;;
1302.0;1239.0;;;;-0.41207892;0.71046454;0.21120074;;;;;;;;;;;;;;;
1302.0;1239.0;;;;-0.4112931;0.7077523;0.2112427;;;;;;;;;;;;;;;
1302.0;1239.0;;;;-0.41112906;0.70467;0.21090701;;;;;;;;;;;;;;;
1302.0;1239.0;;;;-0.41064078;0.70078665;0.21065524;;;;;;;;;;;;;;;
1303.0;1239.5;;;;;;;;;;;;;;;;;8.468886;4.627369;73.51146;;1159.1
1303.0;1239.5;;;;;;;;;;;;;;-0.8447524;-0.54969937;-0.06372265;;;;;1159.1
1303.0;1239.5;;;;;;;;;;;;;;;;;14.179663;6.0808134;73.6755;;1159.1
1303.0;1239.5;;;;;;;;;;;;;;-0.8547014;-0.5190588;-0.017029328;;;;;1159.1
1303.0;1239.5;;;;;;;;;;;;;;;;;19.848475;7.3473315;74.08368;;1168.8
1303.0;1239.5;;;;;;;;;;;;;;-0.8612934;-0.50111395;0.017761772;;;;;1168.8
1303.0;1239.5;;;;;;;;;;;;;;;;;25.261696;7.5189977;74.49568;;1168.8
1303.0;1239.5;;;;;;;;;;;;;;-0.8620258;-0.49177527;0.042298656;;;;;1168.8
1303.0;1239.5;;;;;;;;;;;;;;;;;28.67977;7.3664055;74.27442;;1178.4
1303.0;1239.5;;;;;;;;;;;;;;-0.8655049;-0.483108;0.053102206;;;;;1178.4
1303.0;1239.5;;;;;;;;;;;;;;;;;29.839474;7.6448865;73.62209;;1178.4
1303.0;1239.5;;;;;;;;;;;;;;-0.8933988;-0.47444075;0.062135685;;;;;1178.4
1303.0;1240.4;139401;139428;12052;;;;;;;;;;;;;;;;;;
1303.0;1246.6;;;;;;;;;;;;;-16;;;;;;;;
1303.0;1246.6;;;;;;;;;;;;;-14;;;;;;;;
1303.0;1246.6;;;;;;;;;;;;;-20;;;;;;;;
1303.0;1246.6;;;;;;;;;;;;;-29;;;;;;;;
1303.0;1246.6;;;;;;;;;;;;;6;;;;;;;;
1303.0;1248.9;;;;-0.41061026;0.6969567;0.21059802;;;;;;;;;;;;;;;
1303.0;1248.9;;;;-0.41147238;0.6929131;0.21003345;;;;;;;;;;;;;;;
1303.0;1248.9;;;;-0.4126435;0.68877417;0.21001819;;;;;;;;;;;;;;;
1303.0;1248.9;;;;-0.41353995;0.6846581;0.20945361;;;;;;;;;;;;;;;
1303.0;1248.9;;;;-0.41401297;0.6805878;0.20936206;;;;;;;;;;;;;;;
1359.0;1258.9;;;;-0.41445547;0.6765786;0.20917514;;;;;;;;;;;;;;;
1359.0;1258.9;;;;-0.41436392;0.6722451;0.20888904;;;;;;;;;;;;;;;
1359.0;1258.9;;;;-0.4144593;0.6681176;0.20823672;;;;;;;;;;;;;;;
1359.0;1258.9;;;;-0.41427237;0.66377264;0.20759585;;;;;;;;;;;;;;;
1359.0;1258.9;;;;-0.41450125;0.65946966;0.20671466;;;;;;;;;;;;;;;
1359.0;1260.5;155782;155865;12053;;;;;;;;;;;;;;;;;;
1359.0;1268.9;;;;-0.41510397;0.6547242;0.20626453;;;;;;;;;;;;;;;
1359.0;1268.9;;;;-0.4148484;0.64957815;0.20572665;;;;;;;;;;;;;;;
1359.0;1268.9;;;;-0.41442114;0.64400107;0.20510486;;;;;;;;;;;;;;;
1359.0;1268.9;;;;-0.4142304;0.63836294;0.2043877;;;;;;;;;;;;;;;
1359.0;1268.9;;;;-0.41326147;0.63254553;0.2032204;;;;;;;;;;;;;;;
1359.0;1278.8;;;;-0.41177756;0.62743384;0.2009354;;;;;;;;;;;;;;;
1359.0;1278.8;;;;-0.41043478;0.6217614;0.19903186;;;;;;;;;;;;;;;
1359.0;1278.8;;;;-0.40913397;0.6160355;0.19781116;;;;;;;;;;;;;;;
1359.0;1278.8;;;;-0.4089318;0.6104279;0.196888;;;;;;;;;;;;;;;
1359.0;1278.8;;;;-0.40839773;0.60568243;0.19671634;;;;;;;;;;;;;;;
1359.0;1280.5;172220;172140;12057;;;;;;;;;;;;;;;;;;
1359.0;1286.8;;;;;;;;;;;;;-49;;;;;;;;
1359.0;1286.8;;;;;;;;;;;;;-123;;;;;;;;
1359.0;1286.8;;;;;;;;;;;;;29;;;;;;;;
1359.0;1286.8;;;;;;;;;;;;;200;;;;;;;;
1359.0;1286.8;;;;;;;;;;;;;-104;;;;;;;;
1361.0;1289.0;;;;-0.40840918;0.60065466;0.19710925;;;;;;;;;;;;;;;
1361.0;1289.0;;;;-0.40785605;0.5960732;0.19680408;;;;;;;;;;;;;;;
1361.0;1289.0;;;;-0.40784842;0.5918885;0.1962662;;;;;;;;;;;;;;;
1361.0;1289.0;;;;-0.40827185;0.5878411;0.19458774;;;;;;;;;;;;;;;
1361.0;1289.0;;;;-0.40801245;0.5840836;0.19276813;;;;;;;;;;;;;;;
1361.0;1298.4;;;;;;;;;;;;;;;;;28.98114;7.7707753;72.763756;;1188.0
1361.0;1298.4;;;;;;;;;;;;;;-0.9142735;-0.47169408;0.06085391;;;;;1188.0
1361.0;1298.4;;;;;;;;;;;;;;;;;27.573473;7.534257;71.74139;;1188.0
1361.0;1298.4;;;;;;;;;;;;;;-0.93234044;-0.47596666;0.05780206;;;;;1188.0
1361.0;1298.4;;;;;;;;;;;;;;;;;25.349436;7.7288127;70.18875;;1197.6
1361.0;1298.4;;;;;;;;;;;;;;-0.9439375;-0.47816402;0.04443495;;;;;1197.6
1361.0;1298.4;;;;;;;;;;;;;;;;;21.774958;9.189886;68.00668;;1197.6
1361.0;1298.4;;;;;;;;;;;;;;-0.921659;-0.46357617;0.006469924;;;;;1197.6
1361.0;1298.4;;;;;;;;;;;;;;;;;16.7127;12.29133;64.98154;;1207.2
1361.0;1298.4;;;;;;;;;;;;;;-0.9082919;-0.43140966;-0.027466659;;;;;1207.2
1361.0;1298.4;;;;;;;;;;;;;;;;;10.979034;16.819515;61.655018;;1207.2
1361.0;1298.4;;;;;;;;;;;;;;-0.908536;-0.3905759;-0.047059543;;;;;1207.2
1361.0;1299.0;;;;-0.40738302;0.5802689;0.19046023;;;;;;;;;;;;;;;
1361.0;1299.0;;;;-0.4057656;0.57707983;0.18681337;;;;;;;;;;;;;;;
1361.0;1299.0;;;;-0.40290838;0.57391745;0.18258668;;;;;;;;;;;;;;;
1361.0;1299.0;;;;-0.40010077;0.5707169;0.17663576;;;;;;;;;;;;;;;
1361.0;1299.0;;;;-0.39548117;0.5684243;0.16941072;;;;;;;;;;;;;;;
1363.0;1299.2;;;;;;;;;;;;;;;;;5.283517;21.298105;58.29417;;1216.8
1363.0;1299.2;;;;;;;;;;;;;;-0.9207434;-0.35212258;-0.03930784;;;;;1216.8
1363.0;1299.2;;;;;;;;;;;;;;;;;-0.29374066;24.388105;54.963833;;1216.8
1363.0;1299.2;;;;;;;;;;;;;;-0.9297159;-0.34632406;-0.007812738;;;;;1216.8
1363.0;1299.2;;;;;;;;;;;;;;;;;-6.2562943;25.509659;52.076023;;1226.4
1363.0;1299.2;;;;;;;;;;;;;;-0.9125034;-0.34266183;0.03424177;;;;;1226.4
1363.0;1299.2;;;;;;;;;;;;;;;;;-12.3638115;26.50151;49.066135;;1226.4
1363.0;1299.2;;;;;;;;;;;;;;-0.90859705;-0.333079;0.07562487;;;;;1226.4
1363.0;1299.2;;;;;;;;;;;;;;;;;-18.890959;26.467178;45.1178;;1236.1
1363.0;1299.2;;;;;;;;;;;;;;-0.89168984;-0.32062745;0.116214484;;;;;1236.1
1363.0;1299.2;;;;;;;;;;;;;;;;;-26.169622;25.673697;40.29969;;1236.1
1363.0;1299.2;;;;;;;;;;;;;;-0.865627;-0.3039033;0.1472213;;;;;1236.1
1363.0;1300.6;188536;188570;12049;;;;;;;;;;;;;;;;;;
1363.0;1308.9;;;;-0.39023215;0.5687867;0.1607895;;;;;;;;;;;;;;;
1363.0;1308.9;;;;-0.3854714;0.5717812;0.15133287;;;;;;;;;;;;;;;
1363.0;1308.9;;;;-0.38191992;0.57757574;0.14291383;;;;;;;;;;;;;;;
1363.0;1308.9;;;;-0.3792382;0.58775336;0.1354828;;;;;;;;;;;;;;;
1363.0;1308.9;;;;-0.37736136;0.60088354;0.12914659;;;;;;;;;;;;;;;
1364.0;1313.3;;;;;;;;;;;;;;;;;-33.93658;25.028992;34.802544;;1245.8
1364.0;1313.3;;;;;;;;;;;;;;-0.849086;-0.27863398;0.16846217;;;;;1245.8
1364.0;1313.3;;;;;;;;;;;;;;;;;-42.004913;24.803917;29.25962;;1245.8
1364.0;1313.3;;;;;;;;;;;;;;-0.8334605;-0.24970244;0.13098544;;;;;1245.8
1364.0;1313.3;;;;;;;;;;;;;;;;;-49.420914;23.285624;23.537401;;1255.4
1364.0;1313.3;;;;;;;;;;;;;;-0.78542435;-0.20465712;0.11999878;;;;;1255.4
1364.0;1313.3;;;;;;;;;;;;;;;;;-56.592762;22.305214;18.368328;;1255.4
1364.0;1313.3;;;;;;;;;;;;;;-0.7361675;-0.18298899;0.15533921;;;;;1255.4
1364.0;1313.3;;;;;;;;;;;;;;;;;-63.34498;24.075289;14.12244;;1265.0
1364.0;1313.3;;;;;;;;;;;;;;-0.7091281;-0.15009002;0.23505355;;;;;1265.0
1364.0;1313.3;;;;;;;;;;;;;;;;;-68.990906;27.600176;10.834071;;1265.0
1364.0;1313.3;;;;;;;;;;;;;;-0.7397687;-0.10065004;0.3328959;;;;;1265.0
1364.0;1318.8;;;;-0.37674338;0.6187554;0.12604906;;;;;;;;;;;;;;;
1364.0;1318.8;;;;-0.37734228;0.6411515;0.12546922;;;;;;;;;;;;;;;
1364.0;1318.8;;;;-0.37889868;0.6669999;0.12742616;;;;;;;;;;;;;;;
1364.0;1318.8;;;;-0.38072592;0.6962243;0.13201524;;;;;;;;;;;;;;;
1364.0;1318.8;;;;-0.38389212;0.7276574;0.13785554;;;;;;;;;;;;;;;
1364.0;1320.5;204972;204993;12052;;;;;;;;;;;;;;;;;;
1364.0;1326.7;;;;;;;;;;;;;-886;;;;;;;;
1364.0;1326.7;;;;;;;;;;;;;-1411;;;;;;;;
1364.0;1326.7;;;;;;;;;;;;;-1008;;;;;;;;
1364.0;1326.7;;;;;;;;;;;;;20;;;;;;;;
1364.0;1326.7;;;;;;;;;;;;;804;;;;;;;;
1418.0;1328.7;;;;-0.38745505;0.76051724;0.144722;;;;;;;;;;;;;;;
1418.0;1328.7;;;;-0.39132315;0.7939569;0.15193178;;;;;;;;;;;;;;;
1418.0;1328.7;;;;-0.3956948;0.8271028;0.15809633;;;;;;;;;;;;;;;
1418.0;1328.7;;;;-0.39955908;0.8599092;0.16302873;;;;;;;;;;;;;;;
1418.0;1328.7;;;;-0.4030915;0.891678;0.16825487;;;;;;;;;;;;;;;
1418.0;1338.7;;;;-0.40678412;0.9231683;0.17246248;;;;;;;;;;;;;;;
1418.0;1338.7;;;;-0.4105187;0.95349514;0.17749025;;;;;;;;;;;;;;;
1418.0;1338.7;;;;-0.4163323;0.98341;0.18233873;;;;;;;;;;;;;;;
1418.0;1338.7;;;;-0.42275244;1.0128938;0.18678285;;;;;;;;;;;;;;;
1418.0;1338.7;;;;-0.42964178;1.0428811;0.1916199;;;;;;;;;;;;;;;
1418.0;1340.5;221367;221293;12061;;;;;;;;;;;;;;;;;;
1418.0;1348.8;;;;-0.437172;1.0738946;0.1967316;;;;;;;;;;;;;;;
1418.0;1348.8;;;;-0.4444123;1.1045228;0.20042422;;;;;;;;;;;;;;;
1418.0;1348.8;;;;-0.4512177;1.1351587;0.20312884;;;;;;;;;;;;;;;
1418.0;1348.8;;;;-0.4576226;1.1670991;0.20447162;;;;;;;;;;;;;;;
1418.0;1348.8;;;;-0.46374518;1.1983529;0.20426562;;;;;;;;;;;;;;;
1419.0;1358.9;;;;;;;;;;;;;;;;;-72.25257;31.830807;9.392072;;1274.7
1419.0;1358.9;;;;;;;;;;;;;;-0.84707177;-0.021423994;0.33295694;;;;;1274.7
1419.0;1358.9;;;;;;;;;;;;;;;;;-73.45424;38.41899;11.074404;;1274.7
1419.0;1358.9;;;;;;;;;;;;;;-1.0411085;0.057924133;0.143437;;;;;1274.7
1419.0;1358.9;;;;;;;;;;;;;;;;;-72.42424;50.63402;15.911589;;1284.3
1419.0;1358.9;;;;;;;;;;;;;;-1.3187048;0.10174871;-0.08667257;;;;;1284.3
1419.0;1358.9;;;;;;;;;;;;;;;;;-72.214424;63.59294;22.049623;;1284.3
1419.0;1358.9;;;;;;;;;;;;;;-1.652089;0.06469924;-0.16711935;;;;;1284.3
1419.0;1358.9;;;;;;;;;;;;;;;;;-76.82654;59.8735;24.277475;;1293.9
1419.0;1358.9;;;;;;;;;;;;;;-1.8095645;-0.06701865;-0.051637318;;;;;1293.9
1419.0;1358.9;;;;;;;;;;;;;;;;;-79.69527;30.507065;22.606585;;1293.9
1419.0;1358.9;;;;;;;;;;;;;;-1.6637471;-0.16803491;-0.010620441;;;;;1293.9
1419.0;1358.8;;;;-0.46828848;1.2297097;0.20359424;;;;;;;;;;;;;;;
1419.0;1358.8;;;;-0.47196203;1.2600061;0.20147708;;;;;;;;;;;;;;;
1419.0;1358.8;;;;-0.47481924;1.2883416;0.19916919;;;;;;;;;;;;;;;
1419.0;1358.8;;;;-0.47536093;1.3155175;0.19662097;;;;;;;;;;;;;;;
1419.0;1358.8;;;;-0.47375494;1.3405229;0.19258502;;;;;;;;;;;;;;;
1419.0;1360.7;237732;237769;12071;;;;;;;;;;;;;;;;;;
1419.0;1366.9;;;;;;;;;;;;;1003;;;;;;;;
1419.0;1366.9;;;;;;;;;;;;;1011;;;;;;;;
1419.0;1366.9;;;;;;;;;;;;;830;;;;;;;;
1419.0;1366.9;;;;;;;;;;;;;280;;;;;;;;
1419.0;1366.9;;;;;;;;;;;;;-152;;;;;;;;
1478.0;1368.8;;;;-0.47023016;1.3639985;0.18662645;;;;;;;;;;;;;;;
1478.0;1368.8;;;;-0.46376425;1.3857347;0.18032457;;;;;;;;;;;;;;;
1478.0;1368.8;;;;-0.45533377;1.4045144;0.17255785;;;;;;;;;;;;;;;
1478.0;1368.8;;;;-0.4474488;1.4222528;0.16259767;;;;;;;;;;;;;;;
1478.0;1368.8;;;;-0.44077688;1.4347116;0.14820863;;;;;;;;;;;;;;;
1478.0;1373.4;;;;;;;;;;;;;;;;;-80.17212;8.869442;17.597734;;1303.6
1478.0;1373.4;;;;;;;;;;;;;;-1.2504044;-0.17419966;-0.2118595;;;;;1303.6
1478.0;1373.4;;;;;;;;;;;;;;;;;-75.92624;21.225624;11.432997;;1303.6
1478.0;1373.4;;;;;;;;;;;;;;-1.0218208;-0.14819789;-0.5247353;;;;;1303.6
1478.0;1373.4;;;;;;;;;;;;;;;;;-64.70687;30.846582;7.4274426;;1313.3
1478.0;1373.4;;;;;;;;;;;;;;-0.9850154;-0.047853023;-0.6466262;;;;;1313.3
1478.0;1373.4;;;;;;;;;;;;;;;;;-40.730766;16.838589;7.7745905;;1313.3
1478.0;1373.4;;;;;;;;;;;;;;-0.9862972;0.041871395;-0.3848384;;;;;1313.3
1478.0;1373.4;;;;;;;;;;;;;;;;;-1.0147405;-8.20185;8.087405;;1322.9
1478.0;1373.4;;;;;;;;;;;;;;-0.89205605;0.0557268;0.03320414;;;;;1322.9
1478.0;1373.4;;;;;;;;;;;;;;;;;18.494217;-24.212624;6.5424056;;1322.9
1478.0;1373.4;;;;;;;;;;;;;;-0.7960448;0.08362072;0.31897947;;;;;1322.9
1478.0;1378.7;;;;-0.4352494;1.4448968;0.13409807;;;;;;;;;;;;;;;
1478.0;1378.7;;;;-0.43363196;1.4574014;0.1342621;;;;;;;;;;;;;;;
1478.0;1378.7;;;;-0.43323904;1.4775125;0.14262392;;;;;;;;;;;;;;;
1478.0;1378.7;;;;-0.42864996;1.5016215;0.14124681;;;;;;;;;;;;;;;
1478.0;1378.7;;;;-0.4202004;1.5225527;0.1324959;;;;;;;;;;;;;;;
1478.0;1380.6;254046;254083;12089;;;;;;;;;;;;;;;;;;
1480.0;1388.7;;;;-0.4133454;1.5386355;0.12257768;;;;;;;;;;;;;;;
1480.0;1388.7;;;;-0.40818793;1.5526927;0.11280824;;;;;;;;;;;;;;;
1480.0;1388.7;;;;-0.40351874;1.5658076;0.103950515;;;;;;;;;;;;;;;
1480.0;1388.7;;;;-0.39752203;1.580868;0.095073715;;;;;;;;;;;;;;;
1480.0;1388.7;;;;-0.390297;1.5973856;0.08498765;;;;;;;;;;;;;;;
1480.0;1398.7;;;;-0.38509756;1.6176493;0.07527924;;;;;;;;;;;;;;;
1480.0;1398.7;;;;-0.38261038;1.6427805;0.06755067;;;;;;;;;;;;;;;
1480.0;1398.7;;;;-0.38083655;1.6736224;0.05993653;;;;;;;;;;;;;;;
1480.0;1398.7;;;;-0.3798905;1.7066271;0.05381394;;;;;;;;;;;;;;;
1480.0;1398.7;;;;-0.37945563;1.7408564;0.050598152;;;;;;;;;;;;;;;
1480.0;1400.7;262143;262143;12106;;;;;;;;;;;;;;;;;;
1480.0;1407.0;;;;;;;;;;;;;-54;;;;;;;;
1480.0;1407.0;;;;;;;;;;;;;369;;;;;;;;
1480.0;1407.0;;;;;;;;;;;;;633;;;;;;;;
1480.0;1407.0;;;;;;;;;;;;;484;;;;;;;;
1480.0;1407.0;;;;;;;;;;;;;251;;;;;;;;
1480.0;1408.8;;;;-0.3794785;1.7752383;0.04893876;;;;;;;;;;;;;;;
1480.0;1408.8;;;;-0.37995917;1.8092425;0.04890824;;;;;;;;;;;;;;;
1480.0;1408.8;;;;-0.38116843;1.8420565;0.04936219;;;;;;;;;;;;;;;
1480.0;1408.8;;;;-0.38278204;1.874222;0.052043922;;;;;;;;;;;;;;;
1480.0;1408.8;;;;-0.3838616;1.9049914;0.055698402;;;;;;;;;;;;;;;
1482.0;1418.7;;;;;;;;;;;;;;;;;-5.043184;-20.760216;-0.6714072;;1332.6
1482.0;1418.7;;;;;;;;;;;;;;-0.6305124;0.03009125;0.114200264;;;;;1332.6
1482.0;1418.7;;;;;;;;;;;;;;;;;-40.467545;-1.1978515;-9.552294;;1332.6
1482.0;1418.7;;;;;;;;;;;;;;-0.5370037;0.031983398;-0.38001648;;;;;1332.6
1482.0;1418.7;;;;;;;;;;;;;;;;;-56.684315;17.551958;-16.731773;;1342.2
1482.0;1418.7;;;;;;;;;;;;;;-0.70528275;0.01660207;-0.83755;;;;;1342.2
1482.0;1418.7;;;;;;;;;;;;;;;;;-43.923767;17.48329;-17.635883;;1342.2
1482.0;1418.7;;;;;;;;;;;;;;-0.94338816;-0.008667257;-0.95632803;;;;;1342.2
1482.0;1418.7;;;;;;;;;;;;;;;;;-17.536697;8.060701;-15.583514;;1351.8
1482.0;1418.7;;;;;;;;;;;;;;-1.0940275;-0.029786065;-0.7345195;;;;;1351.8
1482.0;1418.7;;;;;;;;;;;;;;;;;2.4719992;10.025331;-9.281442;;1351.8
1482.0;1418.7;;;;;;;;;;;;;;-1.3414716;-0.3980224;-0.40992463;;;;;1351.8
1482.0;1418.8;;;;-0.38449866;1.9314997;0.0599022;;;;;;;;;;;;;;;
1482.0;1418.8;;;;-0.38567358;1.9522898;0.06305695;;;;;;;;;;;;;;;
1482.0;1418.8;;;;-0.38656622;1.9694293;0.06710816;;;;;;;;;;;;;;;
1482.0;1418.8;;;;-0.3858376;1.9815409;0.07202149;;;;;;;;;;;;;;;
1482.0;1418.8;;;;-0.38504034;1.9882243;0.07655335;;;;;;;;;;;;;;;
1482.0;1420.9;262143;262143;12100;;;;;;;;;;;;;;;;;;
1482.0;1429.0;;;;-0.38500983;1.9878008;0.0799141;;;;;;;;;;;;;;;
1482.0;1429.0;;;;-0.38529974;1.9820063;0.08296204;;;;;;;;;;;;;;;
1482.0;1429.0;;;;-0.38714224;1.9709017;0.08371354;;;;;;;;;;;;;;;
1482.0;1429.0;;;;-0.38917547;1.9551356;0.08419419;;;;;;;;;;;;;;;
1482.0;1429.0;;;;-0.39186484;1.9336894;0.08448411;;;;;;;;;;;;;;;
1483.0;1433.7;;;;;;;;;;;;;;;;;10.059664;19.386885;-1.7929624;;1361.4
1483.0;1433.7;;;;;;;;;;;;;;-1.7341228;-0.6197699;-0.3175756;;;;;1361.4
1483.0;1433.7;;;;;;;;;;;;;;;;;-1.4992218;25.46388;0.03051851;;1361.4
1483.0;1433.7;;;;;;;;;;;;;;-1.9998169;-0.885464;-0.34406567;;;;;1361.4
1483.0;1433.7;;;;;;;;;;;;;;;;;-26.245918;20.489365;-3.3646657;;1371.1
1483.0;1433.7;;;;;;;;;;;;;;-1.9998169;-1.2929472;-0.41505173;;;;;1371.1
1483.0;1433.7;;;;;;;;;;;;;;;;;-48.249763;4.0894804;-13.763847;;1371.1
1483.0;1433.7;;;;;;;;;;;;;;-1.9998169;-1.7023225;-0.62245554;;;;;1371.1
1483.0;1433.7;;;;;;;;;;;;;;;;;-39.738914;-17.73507;-24.136326;;1380.8
1483.0;1433.7;;;;;;;;;;;;;;-1.9489731;-1.891293;-0.7874996;;;;;1380.8
1483.0;1433.7;;;;;;;;;;;;;;;;;0.17929624;-31.44551;-26.53966;;1380.8
1483.0;1433.7;;;;;;;;;;;;;;-1.5356303;-1.8128605;-0.77266765;;;;;1380.8
1483.0;1438.8;;;;-0.39293677;1.9077456;0.0851059;;;;;;;;;;;;;;;
1483.0;1438.8;;;;-0.39226538;1.8776324;0.0865593;;;;;;;;;;;;;;;
1483.0;1438.8;;;;-0.39007956;1.8424189;0.087112434;;;;;;;;;;;;;;;
1483.0;1438.8;;;;-0.38504797;1.8047373;0.08571244;;;;;;;;;;;;;;;
1483.0;1438.8;;;;-0.37885672;1.7652705;0.08158112;;;;;;;;;;;;;;;
1483.0;1440.9;262143;262143;12098;;;;;;;;;;;;;;;;;;
1483.0;1447.1;;;;;;;;;;;;;118;;;;;;;;
1483.0;1447.1;;;;;;;;;;;;;-49;;;;;;;;
1483.0;1447.1;;;;;;;;;;;;;-188;;;;;;;;
1483.0;1447.1;;;;;;;;;;;;;-166;;;;;;;;
1483.0;1447.1;;;;;;;;;;;;;-120;;;;;;;;
1538.0;1448.8;;;;-0.3728676;1.7255785;0.077960975;;;;;;;;;;;;;;;
1538.0;1448.8;;;;-0.3682671;1.6864169;0.07326127;;;;;;;;;;;;;;;
1538.0;1448.8;;;;-0.3641167;1.647507;0.065948494;;;;;;;;;;;;;;;
1538.0;1448.8;;;;-0.35901263;1.6106646;0.057659157;;;;;;;;;;;;;;;
1538.0;1448.8;;;;-0.35282138;1.5770686;0.04811097;;;;;;;;;;;;;;;
1538.0;1458.7;;;;-0.35080722;1.543072;0.037536625;;;;;;;;;;;;;;;
1538.0;1458.7;;;;-0.34943393;1.5107119;0.03173447;;;;;;;;;;;;;;;
1538.0;1458.7;;;;-0.34198382;1.4830629;0.03398514;;;;;;;;;;;;;;;
1538.0;1458.7;;;;-0.33726123;1.4562951;0.032348637;;;;;;;;;;;;;;;
1538.0;1458.7;;;;-0.33759692;1.4277002;0.02877045;;;;;;;;;;;;;;;
1538.0;1460.9;262143;262143;12103;;;;;;;;;;;;;;;;;;
1538.0;1468.8;;;;-0.33942798;1.4000932;0.028686527;;;;;;;;;;;;;;;
1538.0;1468.8;;;;-0.34071353;1.3728143;0.02939606;;;;;;;;;;;;;;;
1538.0;1468.8;;;;-0.34209445;1.3473817;0.030380253;;;;;;;;;;;;;;;
1538.0;1468.8;;;;-0.34271243;1.3229066;0.03218842;;;;;;;;;;;;;;;
1538.0;1468.8;;;;-0.34329608;1.2996827;0.033218388;;;;;;;;;;;;;;;
1539.0;1478.7;;;;;;;;;;;;;;;;;43.343914;-31.617176;-30.31251;;1390.2
1539.0;1478.7;;;;;;;;;;;;;;-1.1362041;-1.4323558;-0.63002414;;;;;1390.2
1539.0;1478.7;;;;;;;;;;;;;;;;;69.65468;-24.17066;-33.18125;;1390.2
1539.0;1478.7;;;;;;;;;;;;;;-0.95376444;-1.0247505;-0.44898832;;;;;1390.2
1539.0;1478.7;;;;;;;;;;;;;;;;;79.947044;-16.18244;-38.480026;;1399.8
1539.0;1478.7;;;;;;;;;;;;;;-0.86471146;-0.539201;-0.22840053;;;;;1399.8
1539.0;1478.7;;;;;;;;;;;;;;;;;76.02542;-6.599628;-45.65569;;1399.8
1539.0;1478.7;;;;;;;;;;;;;;-0.9070711;0.01721244;-0.11358989;;;;;1399.8
1539.0;1478.7;;;;;;;;;;;;;;;;;62.356945;1.0338145;-45.201725;;1409.5
1539.0;1478.7;;;;;;;;;;;;;;-1.0101017;0.44874418;-0.24909207;;;;;1409.5
1539.0;1478.7;;;;;;;;;;;;;;;;;51.484726;2.8496659;-41.222878;;1409.5
1539.0;1478.7;;;;;;;;;;;;;;-1.1382793;0.66292304;-0.4252449;;;;;1409.5
1539.0;1478.8;;;;-0.34508136;1.2767984;0.035358433;;;;;;;;;;;;;;;
1539.0;1478.8;;;;-0.34566882;1.2553331;0.037563328;;;;;;;;;;;;;;;
1539.0;1478.8;;;;-0.34582523;1.237053;0.04000092;;;;;;;;;;;;;;;
1539.0;1478.8;;;;-0.34838107;1.2203943;0.042728428;;;;;;;;;;;;;;;
1539.0;1478.8;;;;-0.35472873;1.2032968;0.044929508;;;;;;;;;;;;;;;
1539.0;1481.0;262143;262143;12108;;;;;;;;;;;;;;;;;;
1541.0;1486.2;;;;;;;;;;;;;;;;;43.2638;-3.6126287;-37.560658;;1419.1
1541.0;1486.2;;;;;;;;;;;;;;-1.1680654;0.67085785;-0.5053255;;;;;1419.1
1541.0;1486.2;;;;;;;;;;;;;;;;;33.780178;-12.604144;-31.777397;;1419.1
1541.0;1486.2;;;;;;;;;;;;;;-1.103183;0.5898007;-0.5525071;;;;;1419.1
1541.0;1486.2;;;;;;;;;;;;;;;;;25.4944;-15.846737;-23.289438;;1428.7
1541.0;1486.2;;;;;;;;;;;;;;-1.0218208;0.5197302;-0.577105;;;;;1428.7
1541.0;1486.2;;;;;;;;;;;;;;;;;17.349771;-12.543107;-12.600329;;1428.7
1541.0;1486.2;;;;;;;;;;;;;;-1.0134586;0.40467542;-0.5805841;;;;;1428.7
1541.0;1486.2;;;;;;;;;;;;;;;;;10.242775;-7.9195538;-1.6251106;;1438.4
1541.0;1486.2;;;;;;;;;;;;;;-1.052034;0.32471696;-0.5476241;;;;;1438.4
1541.0;1486.2;;;;;;;;;;;;;;;;;2.3651845;-4.5243692;9.796441;;1438.4
1541.0;1486.2;;;;;;;;;;;;;;-1.0976897;0.25464645;-0.5215003;;;;;1438.4
1541.0;1487.1;;;;;;;;;;;;;-91;;;;;;;;
1541.0;1487.1;;;;;;;;;;;;;191;;;;;;;;
1541.0;1487.1;;;;;;;;;;;;;733;;;;;;;;
1541.0;1487.1;;;;;;;;;;;;;1111;;;;;;;;
1541.0;1487.1;;;;;;;;;;;;;890;;;;;;;;
1541.0;1488.8;;;;-0.36412814;1.1859895;0.04488373;;;;;;;;;;;;;;;
1541.0;1488.8;;;;-0.36761096;1.1711198;0.049976356;;;;;;;;;;;;;;;
1541.0;1488.8;;;;-0.35445026;1.1648866;0.06072236;;;;;;;;;;;;;;;
1541.0;1488.8;;;;-0.34809878;1.1572763;0.060661323;;;;;;;;;;;;;;;
1541.0;1488.8;;;;-0.35530475;1.1459314;0.05839158;;;;;;;;;;;;;;;
1595.0;1498.8;;;;-0.36306003;1.135708;0.0629654;;;;;;;;;;;;;;;
1595.0;1498.8;;;;-0.3644295;1.1271287;0.068645485;;;;;;;;;;;;;;;
1595.0;1498.8;;;;-0.36431125;1.1179811;0.07096482;;;;;;;;;;;;;;;
1595.0;1498.8;;;;-0.3680649;1.1074525;0.06938935;;;;;;;;;;;;;;;
1595.0;1498.8;;;;-0.36929324;1.0986787;0.0719986;;;;;;;;;;;;;;;
1595.0;1501.1;262143;262143;12114;;;;;;;;;;;;;;;;;;
1595.0;1508.9;;;;-0.3693886;1.0901986;0.07384873;;;;;;;;;;;;;;;
1595.0;1508.9;;;;-0.37220767;1.079918;0.073429115;;;;;;;;;;;;;;;
1595.0;1508.9;;;;-0.3753777;1.0698625;0.073658;;;;;;;;;;;;;;;
1595.0;1508.9;;;;-0.3777886;1.060299;0.07442094;;;;;;;;;;;;;;;
1595.0;1508.9;;;;-0.381527;1.0502969;0.07395554;;;;;;;;;;;;;;;
1595.0;1519.0;;;;-0.3854981;1.0400468;0.07421494;;;;;;;;;;;;;;;
1595.0;1519.0;;;;-0.3887635;1.0296212;0.07434846;;;;;;;;;;;;;;;
1595.0;1519.0;;;;-0.39051825;1.0172235;0.07496262;;;;;;;;;;;;;;;
1595.0;1519.0;;;;-0.3892327;1.003563;0.07636262;;;;;;;;;;;;;;;
1595.0;1519.0;;;;-0.3871575;0.9903146;0.07654191;;;;;;;;;;;;;;;
1595.0;1521.3;262143;262143;12118;;;;;;;;;;;;;;;;;;
1595.0;1527.5;;;;;;;;;;;;;268;;;;;;;;
1595.0;1527.5;;;;;;;;;;;;;-57;;;;;;;;
1595.0;1527.5;;;;;;;;;;;;;1;;;;;;;;
1595.0;1527.5;;;;;;;;;;;;;-253;;;;;;;;
1595.0;1527.5;;;;;;;;;;;;;-1020;;;;;;;;
1600.0;1529.1;;;;-0.38769156;0.97634137;0.07543946;;;;;;;;;;;;;;;
1600.0;1529.1;;;;-0.3911057;0.9621507;0.075141914;;;;;;;;;;;;;;;
1600.0;1529.1;;;;-0.3942681;0.9483491;0.075336464;;;;;;;;;;;;;;;
1600.0;1529.1;;;;-0.39630514;0.93478024;0.07603455;;;;;;;;;;;;;;;
1600.0;1529.1;;;;-0.39794165;0.92169964;0.07645417;;;;;;;;;;;;;;;
1600.0;1539.2;;;;-0.3997956;0.9082147;0.075637825;;;;;;;;;;;;;;;
1600.0;1539.2;;;;-0.40196997;0.89471066;0.0762024;;;;;;;;;;;;;;;
1600.0;1539.2;;;;-0.4053803;0.8807374;0.07618714;;;;;;;;;;;;;;;
1600.0;1539.2;;;;-0.40949637;0.86716855;0.07637025;;;;;;;;;;;;;;;
1600.0;1539.2;;;;-0.41236502;0.8536912;0.07665635;;;;;;;;;;;;;;;
1600.0;1541.6;262143;262143;12120;;;;;;;;;;;;;;;;;;
1600.0;1546.8;;;;;;;;;;;;;;;;;-2.8611102;-2.067629;19.024477;;1448.0
1600.0;1546.8;;;;;;;;;;;;;;-1.157567;0.15643787;-0.4741966;;;;;1448.0
1600.0;1546.8;;;;;;;;;;;;;;;;;-5.6802573;-2.2888882;25.673697;;1448.0
1600.0;1546.8;;;;;;;;;;;;;;-1.1651356;0.058046207;-0.41950744;;;;;1448.0
1600.0;1546.8;;;;;;;;;;;;;;;;;-7.717368;-2.113407;30.796991;;1457.6
1600.0;1546.8;;;;;;;;;;;;;;-1.1517075;-0.006164739;-0.40949735;;;;;1457.6
1600.0;1546.8;;;;;;;;;;;;;;;;;-10.670034;1.3389996;37.797176;;1457.6
1600.0;1546.8;;;;;;;;;;;;;;-1.129429;0.0056154057;-0.41926327;;;;;1457.6
1600.0;1546.8;;;;;;;;;;;;;;;;;-17.311625;4.7837768;42.32536;;1467.3
1600.0;1546.8;;;;;;;;;;;;;;-1.1216162;0.0081179235;-0.40272224;;;;;1467.3
1600.0;1546.8;;;;;;;;;;;;;;;;;-24.761955;5.3407393;45.239876;;1467.3
1600.0;1546.8;;;;;;;;;;;;;;-1.1214942;0.015503403;-0.33167517;;;;;1467.3
1602.0;1547.4;;;;;;;;;;;;;;;;;-31.559956;3.765221;46.69332;;1476.9
1602.0;1547.4;;;;;;;;;;;;;;-1.0633869;-0.029969176;-0.2741783;;;;;1476.9
1602.0;1547.4;;;;;;;;;;;;;;;;;-36.500137;3.8300729;46.906948;;1476.9
1602.0;1547.4;;;;;;;;;;;;;;-1.0292672;-0.06848354;-0.22089297;;;;;1476.9
1602.0;1547.4;;;;;;;;;;;;;;;;;-39.914394;5.1271095;45.74343;;1486.4
1602.0;1547.4;;;;;;;;;;;;;;-1.0575274;-0.10364086;-0.18524735;;;;;1486.4
1602.0;1547.4;;;;;;;;;;;;;;;;;-42.638172;4.2458873;43.37443;;1486.4
1602.0;1547.4;;;;;;;;;;;;;;-1.073336;-0.14752647;-0.15381329;;;;;1486.4
1602.0;1547.4;;;;;;;;;;;;;;;;;-44.30906;2.6055179;41.032135;;1496.0
1602.0;1547.4;;;;;;;;;;;;;;-1.0334178;-0.20068972;-0.14325388;;;;;1496.0
1602.0;1547.4;;;;;;;;;;;;;;;;;-44.446392;3.0442214;40.09369;;1496.0
1602.0;1547.4;;;;;;;;;;;;;;-0.9985656;-0.25141147;-0.13592944;;;;;1496.0
1602.0;1549.0;;;;-0.41388327;0.84121716;0.076702125;;;;;;;;;;;;;;;
1602.0;1549.0;;;;-0.41577536;0.82896817;0.076896675;;;;;;;;;;;;;;;
1602.0;1549.0;;;;-0.41769415;0.8164903;0.07530976;;;;;;;;;;;;;;;
1602.0;1549.0;;;;-0.4194222;0.805298;0.07475663;;;;;;;;;;;;;;;
1602.0;1549.0;;;;-0.41977316;0.79293454;0.073551185;;;;;;;;;;;;;;;
1602.0;1559.0;;;;-0.4196816;0.7798425;0.07056809;;;;;;;;;;;;;;;
1602.0;1559.0;;;;-0.4188767;0.7681085;0.06872941;;;;;;;;;;;;;;;
1602.0;1559.0;;;;-0.41616064;0.7572557;0.06652833;;;;;;;;;;;;;;;
1602.0;1559.0;;;;-0.41197973;0.7451592;0.06412507;;;;;;;;;;;;;;;
1602.0;1559.0;;;;-0.40663534;0.73410803;0.0620308;;;;;;;;;;;;;;;
1602.0;1561.4;262143;262143;12112;;;;;;;;;;;;;;;;;;
1659.0;1567.5;;;;;;;;;;;;;-1593;;;;;;;;
1659.0;1567.5;;;;;;;;;;;;;-1351;;;;;;;;
1659.0;1567.5;;;;;;;;;;;;;-500;;;;;;;;
1659.0;1567.5;;;;;;;;;;;;;141;;;;;;;;
1659.0;1567.5;;;;;;;;;;;;;106;;;;;;;;
1659.0;1569.1;;;;-0.4003983;0.72206885;0.059989937;;;;;;;;;;;;;;;
1659.0;1569.1;;;;-0.39488608;0.7095986;0.057903297;;;;;;;;;;;;;;;
1659.0;1569.1;;;;-0.38892752;0.6974221;0.056076057;;;;;;;;;;;;;;;
1659.0;1569.1;;;;-0.38245398;0.68573385;0.0548935;;;;;;;;;;;;;;;
1659.0;1569.1;;;;-0.37653738;0.67532355;0.053936012;;;;;;;;;;;;;;;
1659.0;1579.1;;;;-0.3712807;0.66491324;0.05346299;;;;;;;;;;;;;;;
1659.0;1579.1;;;;-0.36696628;0.6547585;0.053256996;;;;;;;;;;;;;;;
1659.0;1579.1;;;;-0.36244205;0.64565665;0.052474983;;;;;;;;;;;;;;;
1659.0;1579.1;;;;-0.35813525;0.63641363;0.051033027;;;;;;;;;;;;;;;
1659.0;1579.1;;;;-0.3524399;0.6275292;0.049903877;;;;;;;;;;;;;;;
1659.0;1581.6;262143;262143;12116;;;;;;;;;;;;;;;;;;
1659.0;1589.2;;;;-0.34523776;0.6204224;0.04962159;;;;;;;;;;;;;;;
1659.0;1589.2;;;;-0.34068683;0.6119347;0.047611244;;;;;;;;;;;;;;;
1659.0;1589.2;;;;-0.33632663;0.60358435;0.048069008;;;;;;;;;;;;;;;
1659.0;1589.2;;;;-0.32958987;0.59566885;0.0489235;;;;;;;;;;;;;;;
1659.0;1589.2;;;;-0.3210335;0.58874136;0.048496254;;;;;;;;;;;;;;;
1663.0;1599.2;;;;-0.31265643;0.5831719;0.0486641;;;;;;;;;;;;;;;
1663.0;1599.2;;;;-0.30403903;0.57859045;0.049350746;;;;;;;;;;;;;;;
1663.0;1599.2;;;;-0.29613116;0.5736962;0.050079353;;;;;;;;;;;;;;;
1663.0;1599.2;;;;-0.28818896;0.5687371;0.05051423;;;;;;;;;;;;;;;
1663.0;1599.2;;;;-0.2813454;0.564087;0.05162049;;;;;;;;;;;;;;;
1663.0;1601.7;262143;262143;12105;;;;;;;;;;;;;;;;;;
1663.0;1607.9;;;;;;;;;;;;;-19;;;;;;;;
1663.0;1607.9;;;;;;;;;;;;;166;;;;;;;;
1663.0;1607.9;;;;;;;;;;;;;130;;;;;;;;
1663.0;1607.9;;;;;;;;;;;;;-235;;;;;;;;
1663.0;1607.9;;;;;;;;;;;;;72;;;;;;;;
1663.0;1609.3;;;;-0.2748833;0.5597878;0.053394325;;;;;;;;;;;;;;;
1663.0;1609.3;;;;-0.2690468;0.5563012;0.05505372;;;;;;;;;;;;;;;
1663.0;1609.3;;;;-0.26256564;0.55299;0.057193764;;;;;;;;;;;;;;;
1663.0;1609.3;;;;-0.2554665;0.55044943;0.06056214;;;;;;;;;;;;;;;
1663.0;1609.3;;;;-0.25000766;0.54773337;0.063156135;;;;;;;;;;;;;;;
1666.0;1614.5;;;;;;;;;;;;;;;;;-43.645287;4.161962;39.72365;;1505.6
1666.0;1614.5;;;;;;;;;;;;;;-0.9391766;-0.30463576;-0.1403241;;;;;1505.6
1666.0;1614.5;;;;;;;;;;;;;;;;;-42.062138;6.328776;39.738914;;1505.6
1666.0;1614.5;;;;;;;;;;;;;;-0.9063997;-0.32624286;-0.1257973;;;;;1505.6
1666.0;1614.5;;;;;;;;;;;;;;;;;-39.84954;7.78222;39.677876;;1515.2
1666.0;1614.5;;;;;;;;;;;;;;-0.86434525;-0.3543199;-0.09631642;;;;;1515.2
1666.0;1614.5;;;;;;;;;;;;;;;;;-36.41621;8.243813;38.468582;;1515.2
1666.0;1614.5;;;;;;;;;;;;;;-0.84792626;-0.3914304;-0.07446516;;;;;1515.2
1666.0;1614.5;;;;;;;;;;;;;;;;;-32.04062;6.4622946;35.367138;;1524.6
1666.0;1614.5;;;;;;;;;;;;;;-0.82033753;-0.42164373;-0.080446795;;;;;1524.6
1666.0;1614.5;;;;;;;;;;;;;;;;;-27.974028;3.8644063;31.331066;;1524.6
1666.0;1614.5;;;;;;;;;;;;;;-0.78456986;-0.4410535;-0.077761166;;;;;1524.6
1666.0;1615.6;;;;;;;;;;;;;;;;;-24.548326;2.2927032;27.741325;;1534.3
1666.0;1615.6;;;;;;;;;;;;;;-0.7590564;-0.4558855;-0.06799524;;;;;1534.3
1666.0;1615.6;;;;;;;;;;;;;;;;;-21.851254;2.578814;25.158695;;1534.3
1666.0;1615.6;;;;;;;;;;;;;;-0.74636066;-0.45338297;-0.08221687;;;;;1534.3
1666.0;1615.6;;;;;;;;;;;;;;;;;-19.814142;3.913999;23.224586;;1543.8
1666.0;1615.6;;;;;;;;;;;;;;-0.7697989;-0.42451248;-0.11059908;;;;;1543.8
1666.0;1615.6;;;;;;;;;;;;;;;;;-18.402662;4.2840357;21.710106;;1543.8
1666.0;1615.6;;;;;;;;;;;;;;-0.79427475;-0.38343456;-0.13574633;;;;;1543.8
1666.0;1615.6;;;;;;;;;;;;;;;;;-17.235327;3.711814;21.134068;;1553.5
1666.0;1615.6;;;;;;;;;;;;;;-0.81887263;-0.34211248;-0.17249061;;;;;1553.5
1666.0;1615.6;;;;;;;;;;;;;;;;;-15.850552;1.9951477;21.50792;;1553.5
1666.0;1615.6;;;;;;;;;;;;;;-0.8311411;-0.33692434;-0.19196142;;;;;1553.5
1725.0;1619.1;;;;-0.24677661;0.54394156;0.064926155;;;;;;;;;;;;;;;
1725.0;1619.1;;;;-0.24558643;0.54068;0.06880189;;;;;;;;;;;;;;;
1725.0;1619.1;;;;-0.24341586;0.537674;0.072860725;;;;;;;;;;;;;;;
1725.0;1619.1;;;;-0.24030307;0.53522116;0.076709755;;;;;;;;;;;;;;;
1725.0;1619.1;;;;-0.2377663;0.5337296;0.080291755;;;;;;;;;;;;;;;
1725.0;1621.7;262143;262143;12098;;;;;;;;;;;;;;;;;;
1725.0;1629.0;;;;-0.23570636;0.5324097;0.08470536;;;;;;;;;;;;;;;
1725.0;1629.0;;;;-0.23337176;0.53119665;0.08821107;;;;;;;;;;;;;;;
1725.0;1629.0;;;;-0.2309685;0.53000265;0.09164811;;;;;;;;;;;;;;;
1725.0;1629.0;;;;-0.22892383;0.52885824;0.09528352;;;;;;;;;;;;;;;
1725.0;1629.0;;;;-0.22727206;0.52727896;0.098274246;;;;;;;;;;;;;;;
1725.0;1638.8;;;;-0.22452548;0.5255318;0.1020775;;;;;;;;;;;;;;;
1725.0;1638.8;;;;-0.22137454;0.5241814;0.10530473;;;;;;;;;;;;;;;
1725.0;1638.8;;;;-0.21753314;0.5229874;0.108791366;;;;;;;;;;;;;;;
1725.0;1638.8;;;;-0.21504214;0.5211945;0.11119844;;;;;;;;;;;;;;;
1725.0;1638.8;;;;-0.21587375;0.51871115;0.11331178;;;;;;;;;;;;;;;
1725.0;1641.5;262143;262143;12096;;;;;;;;;;;;;;;;;;
1725.0;1647.6;;;;;;;;;;;;;2130;;;;;;;;
1725.0;1647.6;;;;;;;;;;;;;3257;;;;;;;;
1725.0;1647.6;;;;;;;;;;;;;-3444;;;;;;;;
1725.0;1647.6;;;;;;;;;;;;;-18425;;;;;;;;
1725.0;1647.6;;;;;;;;;;;;;-30191;;;;;;;;
1727.0;1649.0;;;;-0.21592334;0.5161019;0.115963;;;;;;;;;;;;;;;
1727.0;1649.0;;;;-0.21425632;0.51421744;0.118194595;;;;;;;;;;;;;;;
1727.0;1649.0;;;;-0.21223834;0.51308066;0.12010194;;;;;;;;;;;;;;;
1727.0;1649.0;;;;-0.20963672;0.5126572;0.1218033;;;;;;;;;;;;;;;
1727.0;1649.0;;;;-0.2082291;0.511715;0.123058334;;;;;;;;;;;;;;;
1727.0;1659.1;;;;-0.20616153;0.511303;0.12371065;;;;;;;;;;;;;;;
1727.0;1659.1;;;;-0.19933704;0.5122376;0.12802507;;;;;;;;;;;;;;;
1727.0;1659.1;;;;-0.20011142;0.5112534;0.12484361;;;;;;;;;;;;;;;
1727.0;1659.1;;;;-0.20816806;0.50702673;0.122028366;;;;;;;;;;;;;;;
1727.0;1659.1;;;;-0.21395114;0.5024033;0.122402206;;;;;;;;;;;;;;;
1727.0;1659.4;;;;;;;;;;;;;;;;;-14.419996;-0.43870357;22.083958;;1563.1
1727.0;1659.4;;;;;;;;;;;;;;-0.8180792;-0.333079;-0.20685446;;;;;1563.1
1727.0;1659.4;;;;;;;;;;;;;;;;;-12.798699;-2.437666;22.892696;;1563.1
1727.0;1659.4;;;;;;;;;;;;;;-0.80202645;-0.3355205;-0.2106998;;;;;1563.1
1727.0;1659.4;;;;;;;;;;;;;;;;;-10.700553;-5.050813;23.506882;;1572.8
1727.0;1659.4;;;;;;;;;;;;;;-0.7762688;-0.35377055;-0.20868556;;;;;1572.8
1727.0;1659.4;;;;;;;;;;;;;;;;;-7.656331;-7.854701;24.018068;;1572.8
1727.0;1659.4;;;;;;;;;;;;;;-0.7527085;-0.38038272;-0.20685446;;;;;1572.8
1727.0;1659.4;;;;;;;;;;;;;;;;;-4.1047397;-10.837886;24.319437;;1582.5
1727.0;1659.4;;;;;;;;;;;;;;-0.7284768;-0.39484847;-0.17664114;;;;;1582.5
1727.0;1659.4;;;;;;;;;;;;;;;;;-0.35859248;-13.500626;24.410994;;1582.5
1727.0;1659.4;;;;;;;;;;;;;;-0.68855864;-0.4365978;-0.16113773;;;;;1582.5
1727.0;1661.7;262143;262143;12091;;;;;;;;;;;;;;;;;;
1729.0;1666.8;;;;;;;;;;;;;;;;;3.849147;-15.14481;24.872585;;1592.0
1729.0;1666.8;;;;;;;;;;;;;;-0.626484;-0.4494766;-0.14929655;;;;;1592.0
1729.0;1666.8;;;;;;;;;;;;;;;;;7.354961;-14.164403;24.990843;;1592.0
1729.0;1666.8;;;;;;;;;;;;;;-0.6065249;-0.47199926;-0.1513718;;;;;1592.0
1729.0;1666.8;;;;;;;;;;;;;;;;;10.799738;-13.340404;24.39192;;1601.7
1729.0;1666.8;;;;;;;;;;;;;;-0.5884579;-0.49501023;-0.14575641;;;;;1601.7
1729.0;1666.8;;;;;;;;;;;;;;;;;14.690847;-13.073366;23.071993;;1601.7
1729.0;1666.8;;;;;;;;;;;;;;-0.55873287;-0.5202795;-0.11688589;;;;;1601.7
1729.0;1666.8;;;;;;;;;;;;;;;;;18.64681;-11.8717;21.576588;;1611.3
1729.0;1666.8;;;;;;;;;;;;;;-0.5412763;-0.549028;-0.10870693;;;;;1611.3
1729.0;1666.8;;;;;;;;;;;;;;;;;22.51503;-9.92233;20.092623;;1611.3
1729.0;1666.8;;;;;;;;;;;;;;-0.5310831;-0.56770533;-0.13489181;;;;;1611.3
1729.0;1669.0;;;;-0.2148247;0.5000039;0.12244035;;;;;;;;;;;;;;;
1729.0;1669.0;;;;-0.21140674;0.4995728;0.12390138;;;;;;;;;;;;;;;
1729.0;1669.0;;;;-0.20621112;0.50124365;0.12532808;;;;;;;;;;;;;;;
1729.0;1669.0;;;;-0.20354083;0.50277716;0.1248398;;;;;;;;;;;;;;;
1729.0;1669.0;;;;-0.20250323;0.50339895;0.12375642;;;;;;;;;;;;;;;
1729.0;1679.0;;;;-0.19868854;0.5046082;0.124309555;;;;;;;;;;;;;;;
1729.0;1679.0;;;;-0.19498828;0.5060616;0.123603836;;;;;;;;;;;;;;;
1729.0;1679.0;;;;-0.19270709;0.50752646;0.12143327;;;;;;;;;;;;;;;
1729.0;1679.0;;;;-0.1942673;0.50711447;0.11883165;;;;;;;;;;;;;;;
1729.0;1679.0;;;;-0.19464877;0.50820166;0.11814882;;;;;;;;;;;;;;;
1729.0;1681.7;262143;262143;12092;;;;;;;;;;;;;;;;;;
1774.0;1687.7;;;;;;;;;;;;;-27545;;;;;;;;
1774.0;1687.7;;;;;;;;;;;;;-13210;;;;;;;;
1774.0;1687.7;;;;;;;;;;;;;-177;;;;;;;;
1774.0;1687.7;;;;;;;;;;;;;3831;;;;;;;;
1774.0;1687.7;;;;;;;;;;;;;2357;;;;;;;;
1774.0;1688.9;;;;-0.19376376;0.509388;0.117382064;;;;;;;;;;;;;;;
1774.0;1688.9;;;;-0.19250873;0.5106316;0.11594392;;;;;;;;;;;;;;;
1774.0;1688.9;;;;-0.18935779;0.51385885;0.11548616;;;;;;;;;;;;;;;
1774.0;1688.9;;;;-0.1878548;0.51668173;0.113834396;;;;;;;;;;;;;;;
1774.0;1688.9;;;;-0.18640901;0.5198594;0.11375429;;;;;;;;;;;;;;;
1774.0;1698.9;;;;-0.18426515;0.5225106;0.11223604;;;;;;;;;;;;;;;
1774.0;1698.9;;;;-0.18185045;0.52535635;0.1118889;;;;;;;;;;;;;;;
1774.0;1698.9;;;;-0.1810341;0.5283013;0.10984422;;;;;;;;;;;;;;;
1774.0;1698.9;;;;-0.18239214;0.5315133;0.107864395;;;;;;;;;;;;;;;
1774.0;1698.9;;;;-0.18437196;0.53413016;0.106231704;;;;;;;;;;;;;;;
1774.0;1701.7;262143;262143;12089;;;;;;;;;;;;;;;;;;
1774.0;1709.0;;;;-0.18643571;0.5367623;0.10408403;;;;;;;;;;;;;;;
1774.0;1709.0;;;;-0.1868477;0.54082495;0.102878585;;;;;;;;;;;;;;;
1774.0;1709.0;;;;-0.18659593;0.54588324;0.10241319;;;;;;;;;;;;;;;
1774.0;1709.0;;;;-0.18642427;0.5511628;0.10198595;;;;;;;;;;;;;;;
1774.0;1709.0;;;;-0.18537523;0.55694586;0.10141756;;;;;;;;;;;;;;;
1791.0;1719.2;;;;-0.183342;0.5627709;0.09953691;;;;;;;;;;;;;;;
1791.0;1719.2;;;;-0.181839;0.5678902;0.09635545;;;;;;;;;;;;;;;
1791.0;1719.2;;;;-0.18099977;0.57251364;0.093414314;;;;;;;;;;;;;;;
1791.0;1719.2;;;;-0.18029405;0.57720953;0.092651375;;;;;;;;;;;;;;;
1791.0;1719.2;;;;-0.17995836;0.58150107;0.092010505;;;;;;;;;;;;;;;
1791.0;1719.6;;;;;;;;;;;;;;;;;24.781029;-8.629108;18.20429;;1621.0
1791.0;1719.6;;;;;;;;;;;;;;-0.52668846;-0.58626056;-0.16241951;;;;;1621.0
1791.0;1719.6;;;;;;;;;;;;;;;;;25.070955;-8.148442;15.76281;;1621.0
1791.0;1719.6;;;;;;;;;;;;;;-0.5097812;-0.60072637;-0.17529832;;;;;1621.0
1791.0;1719.6;;;;;;;;;;;;;;;;;25.013733;-6.550035;13.451034;;1630.6
1791.0;1719.6;;;;;;;;;;;;;;-0.5076449;-0.5858333;-0.1932432;;;;;1630.6
1791.0;1719.6;;;;;;;;;;;;;;;;;25.120548;-4.71511;11.635181;;1630.6
1791.0;1719.6;;;;;;;;;;;;;;-0.5139927;-0.55903804;-0.20905179;;;;;1630.6
1791.0;1719.6;;;;;;;;;;;;;;;;;26.69988;-3.154851;10.658589;;1640.3
1791.0;1719.6;;;;;;;;;;;;;;-0.52626115;-0.51600695;-0.20398572;;;;;1640.3
1791.0;1719.6;;;;;;;;;;;;;;;;;28.077028;-1.9989624;9.868922;;1640.3
1791.0;1719.6;;;;;;;;;;;;;;-0.5384686;-0.4725486;-0.20184942;;;;;1640.3
1793.0;1720.7;;;;;;;;;;;;;;;;;29.358807;-0.7858516;9.414961;;1649.9
1793.0;1720.7;;;;;;;;;;;;;;-0.5598926;-0.4280526;-0.19910276;;;;;1649.9
1793.0;1720.7;;;;;;;;;;;;;;;;;30.648212;0.16022217;9.182257;;1649.9
1793.0;1720.7;;;;;;;;;;;;;;-0.58046204;-0.38129824;-0.2021546;;;;;1649.9
1793.0;1720.7;;;;;;;;;;;;;;;;;30.114138;0.93081456;9.208961;;1659.6
1793.0;1720.7;;;;;;;;;;;;;;-0.60878325;-0.3546861;-0.21405682;;;;;1659.6
1793.0;1720.7;;;;;;;;;;;;;;;;;26.985992;0.46540728;9.102145;;1659.6
1793.0;1720.7;;;;;;;;;;;;;;-0.63362527;-0.34565264;-0.20099491;;;;;1659.6
1793.0;1720.7;;;;;;;;;;;;;;;;;22.686697;-0.3128147;8.594775;;1669.2
1793.0;1720.7;;;;;;;;;;;;;;-0.65486616;-0.3551134;-0.19476913;;;;;1669.2
1793.0;1720.7;;;;;;;;;;;;;;;;;19.60814;-0.71718496;7.8585167;;1669.2
1793.0;1720.7;;;;;;;;;;;;;;-0.6854457;-0.36408582;-0.2047792;;;;;1669.2
1793.0;1721.9;262143;262143;12080;;;;;;;;;;;;;;;;;;
1793.0;1728.0;;;;;;;;;;;;;1683;;;;;;;;
1793.0;1728.0;;;;;;;;;;;;;2472;;;;;;;;
1793.0;1728.0;;;;;;;;;;;;;2506;;;;;;;;
1793.0;1728.0;;;;;;;;;;;;;2137;;;;;;;;
1793.0;1728.0;;;;;;;;;;;;;2071;;;;;;;;
1793.0;1729.1;;;;-0.18012239;0.58583456;0.09167481;;;;;;;;;;;;;;;
1793.0;1729.1;;;;-0.17959978;0.5901528;0.09061814;;;;;;;;;;;;;;;
1793.0;1729.1;;;;-0.17852403;0.59421164;0.08893586;;;;;;;;;;;;;;;
1793.0;1729.1;;;;-0.17806627;0.59901816;0.08901978;;;;;;;;;;;;;;;
1793.0;1729.1;;;;-0.17785646;0.6030045;0.088436134;;;;;;;;;;;;;;;
1835.0;1739.1;;;;-0.17724992;0.6075707;0.08852006;;;;;;;;;;;;;;;
1835.0;1739.1;;;;-0.17770769;0.6114617;0.08893586;;;;;;;;;;;;;;;
1835.0;1739.1;;;;-0.17773058;0.6155053;0.08905793;;;;;;;;;;;;;;;
1835.0;1739.1;;;;-0.17818071;0.61938864;0.08831788;;;;;;;;;;;;;;;
1835.0;1739.1;;;;-0.17936708;0.62185675;0.08753968;;;;;;;;;;;;;;;
1835.0;1739.2;;;;;;;;;;0.5264443;18.833736;-2.2392957;;;;;;;;;
1835.0;1739.2;;;;;;;0.38380077;-0.69569993;0.23438215;;;;;;;;;;;;
1835.0;1739.2;;;;;;;;;;6.6835537;34.611805;8.732108;;;;;;;;;
1835.0;1739.2;;;;;;;0.42170477;-0.7797479;0.26294747;;;;;;;;;;;;
1835.0;1742.0;262143;262143;12090;;;;;;;;;;;;;;;;;;
1835.0;1748.7;;;;;;;;;;-1.8082217;4.589221;4.1924806;;;;;;;;;
1835.0;1748.7;;;;;;;0.41718802;-0.77950376;0.26325268;;;;;;;;;;;;
1835.0;1748.7;;;;;;;;;;5.050813;13.679922;11.98233;;;;;;;;;
1835.0;1748.7;;;;;;;0.41010773;-0.781579;0.26270333;;;;;;;;;;;;
1835.0;1749.1;;;;-0.18147661;0.6242867;0.0865059;;;;;;;;;;;;;;;
1835.0;1749.1;;;;-0.18473817;0.6264077;0.08745576;;;;;;;;;;;;;;;
1835.0;1749.1;;;;-0.18882373;0.6281243;0.088283546;;;;;;;;;;;;;;;
1835.0;1749.1;;;;-0.19257358;0.62971884;0.08976365;;;;;;;;;;;;;;;
1835.0;1749.1;;;;-0.19532016;0.6319733;0.09104157;;;;;;;;;;;;;;;
1835.0;1758.1;;;;;;;;;;5.043184;11.700033;15.13718;;;;;;;;;
1835.0;1758.1;;;;;;;0.4079104;-0.7828608;0.26276436;;;;;;;;;;;;
1835.0;1758.1;;;;;;;;;;-0.5226295;-27.138586;-3.6545916;;;;;;;;;
1835.0;1758.1;;;;;;;0.40565202;-0.78688926;0.26337475;;;;;;;;;;;;
1837.0;1759.0;;;;-0.19831088;0.63454825;0.0921135;;;;;;;;;;;;;;;
1837.0;1759.0;;;;-0.20105746;0.6375733;0.093544014;;;;;;;;;;;;;;;
1837.0;1759.0;;;;-0.20408252;0.6401749;0.09391405;;;;;;;;;;;;;;;
1837.0;1759.0;;;;-0.20731357;0.64272314;0.09348298;;;;;;;;;;;;;;;
1837.0;1759.0;;;;-0.21159366;0.644558;0.09285355;;;;;;;;;;;;;;;
1837.0;1762.0;262143;262143;12086;;;;;;;;;;;;;;;;;;
1837.0;1767.7;;;;;;;;;;-1.1787775;-30.78173;-3.4333322;;;;;;;;;
1837.0;1767.7;;;;;;;0.40736106;-0.7905515;0.2656331;;;;;;;;;;;;
1837.0;1767.7;;;;;;;;;;-1.8120365;-34.23795;-3.707999;;;;;;;;;
1837.0;1767.7;;;;;;;0.40913114;-0.79232156;0.2684408;;;;;;;;;;;;
1837.0;1768.0;;;;;;;;;;;;;1834;;;;;;;;
1837.0;1768.0;;;;;;;;;;;;;1510;;;;;;;;
1837.0;1768.0;;;;;;;;;;;;;1375;;;;;;;;
1837.0;1768.0;;;;;;;;;;;;;1348;;;;;;;;
1837.0;1768.0;;;;;;;;;;;;;1241;;;;;;;;
1837.0;1769.1;;;;-0.21585849;0.6462975;0.09226609;;;;;;;;;;;;;;;
1837.0;1769.1;;;;-0.21989825;0.64776236;0.09093476;;;;;;;;;;;;;;;
1837.0;1769.1;;;;-0.22434619;0.64830023;0.089931495;;;;;;;;;;;;;;;
1837.0;1769.1;;;;-0.22773364;0.6482697;0.089996345;;;;;;;;;;;;;;;
1837.0;1769.1;;;;-0.23103335;0.6471253;0.08916093;;;;;;;;;;;;;;;
1837.0;1777.4;;;;;;;;;;-2.8153324;-29.538103;1.0757774;;;;;;;;;
1837.0;1777.4;;;;;;;0.4110233;-0.7966552;0.27283546;;;;;;;;;;;;
1837.0;1777.4;;;;;;;;;;-3.4180732;-22.133549;5.8061466;;;;;;;;;
1837.0;1777.4;;;;;;;0.41132846;-0.7975097;0.27619252;;;;;;;;;;;;
1840.0;1779.2;;;;-0.23422244;0.64591604;0.08878327;;;;;;;;;;;;;;;
1840.0;1779.2;;;;-0.23733523;0.64459616;0.08926392;;;;;;;;;;;;;;;
1840.0;1779.2;;;;-0.24135974;0.6426011;0.089744575;;;;;;;;;;;;;;;
1840.0;1779.2;;;;-0.24520114;0.6407204;0.089679725;;;;;;;;;;;;;;;
1840.0;1779.2;;;;-0.24977878;0.6381646;0.08951951;;;;;;;;;;;;;;;
1840.0;1779.7;;;;;;;;;;;;;;;;;16.994993;-1.659444;6.6072574;;1678.9
1840.0;1779.7;;;;;;;;;;;;;;-0.72164065;-0.3576159;-0.19605091;;;;;1678.9
1840.0;1779.7;;;;;;;;;;;;;;;;;15.121922;-3.5477767;5.1118503;;1678.9
1840.0;1779.7;;;;;;;;;;;;;;-0.7627186;-0.35816523;-0.16797388;;;;;1678.9
1840.0;1779.7;;;;;;;;;;;;;;;;;14.248329;-6.3859982;3.2540362;;1688.2
1840.0;1779.7;;;;;;;;;;;;;;-0.7912839;-0.37220374;-0.12146367;;;;;1688.2
1840.0;1779.7;;;;;;;;;;;;;;;;;13.431959;-8.545182;0.7324442;;1688.2
1840.0;1779.7;;;;;;;;;;;;;;-0.80953395;-0.3685415;-0.09613331;;;;;1688.2
1840.0;1779.7;;;;;;;;;;;;;;;;;11.741997;-10.433516;-2.1324809;;1698.0
1840.0;1779.7;;;;;;;;;;;;;;-0.8149052;-0.33100376;-0.11883908;;;;;1698.0
1840.0;1779.7;;;;;;;;;;;;;;;;;8.793145;-12.951292;-5.4818873;;1698.0
1840.0;1779.7;;;;;;;;;;;;;;-0.8037355;-0.29023102;-0.13409834;;;;;1698.0
1842.0;1780.4;;;;;;;;;;;;;;;;;5.989258;-14.896848;-8.507034;;1707.6
1842.0;1780.4;;;;;;;;;;;;;;-0.79946285;-0.26899013;-0.123661004;;;;;1707.6
1842.0;1780.4;;;;;;;;;;;;;;;;;3.2464066;-16.598255;-11.249886;;1707.6
1842.0;1780.4;;;;;;;;;;;;;;-0.80288094;-0.2592242;-0.094363235;;;;;1707.6
1842.0;1780.4;;;;;;;;;;;;;;;;;-0.23270364;-19.245735;-14.1949215;;1717.2
1842.0;1780.4;;;;;;;;;;;;;;-0.80459;-0.27259132;-0.08795434;;;;;1717.2
1842.0;1780.4;;;;;;;;;;;;;;;;;-4.333628;-22.930845;-17.494736;;1717.2
1842.0;1780.4;;;;;;;;;;;;;;-0.7869503;-0.28888822;-0.07928709;;;;;1717.2
1842.0;1780.4;;;;;;;;;;;;;;;;;-8.499405;-26.22303;-21.008179;;1726.9
1842.0;1780.4;;;;;;;;;;;;;;-0.76992095;-0.29963073;-0.053346355;;;;;1726.9
1842.0;1780.4;;;;;;;;;;;;;;;;;-13.260293;-29.332104;-24.723808;;1726.9
1842.0;1780.4;;;;;;;;;;;;;;-0.7558214;-0.30872524;-0.0053102206;;;;;1726.9
1842.0;1782.0;262143;262143;12074;;;;;;;;;;;;;;;;;;
1842.0;1786.6;;;;;;;;;;-3.5096285;-22.637104;3.765221;;;;;;;;;
1842.0;1786.6;;;;;;;0.41279337;-0.79824215;0.27887815;;;;;;;;;;;;
1842.0;1786.6;;;;;;;;;;-3.646962;-23.197882;1.6251106;;;;;;;;;
1842.0;1786.6;;;;;;;0.41395307;-0.79549545;0.27906126;;;;;;;;;;;;
1842.0;1789.0;;;;-0.2551804;0.6351357;0.09004212;;;;;;;;;;;;;;;
1842.0;1789.0;;;;-0.25989917;0.63311774;0.09036637;;;;;;;;;;;;;;;
1842.0;1789.0;;;;-0.26341632;0.62961966;0.089614876;;;;;;;;;;;;;;;
1842.0;1789.0;;;;-0.26557925;0.62595755;0.08808518;;;;;;;;;;;;;;;
1842.0;1789.0;;;;-0.26679614;0.6222077;0.08682633;;;;;;;;;;;;;;;
1898.0;1796.1;;;;;;;;;;-3.5859249;-23.78155;-0.5264443;;;;;;;;;
1898.0;1796.1;;;;;;;0.41694388;-0.794702;0.27863398;;;;;;;;;;;;
1898.0;1796.1;;;;;;;;;;-3.5554063;-24.304178;-2.6284068;;;;;;;;;
1898.0;1796.1;;;;;;;0.41627246;-0.7912229;0.27820674;;;;;;;;;;;;
1898.0;1799.0;;;;-0.26825336;0.61832434;0.08578492;;;;;;;;;;;;;;;
1898.0;1799.0;;;;-0.27061847;0.61449057;0.085140236;;;;;;;;;;;;;;;
1898.0;1799.0;;;;-0.27414706;0.6107293;0.08551789;;;;;;;;;;;;;;;
1898.0;1799.0;;;;-0.2772484;0.6076279;0.085155495;;;;;;;;;;;;;;;
1898.0;1799.0;;;;-0.2800446;0.6056176;0.0839119;;;;;;;;;;;;;;;
1898.0;1802.0;262143;262143;12085;;;;;;;;;;;;;;;;;;
1898.0;1805.8;;;;;;;;;;-3.5248878;-24.628439;-4.772332;;;;;;;;;
1898.0;1805.8;;;;;;;0.41474655;-0.7865841;0.27381206;;;;;;;;;;;;
1898.0;1805.8;;;;;;;;;;-3.501999;-25.0824;-6.85522;;;;;;;;;
1898.0;1805.8;;;;;;;0.412183;-0.781518;0.27167577;;;;;;;;;;;;
1898.0;1808.0;;;;;;;;;;;;;977;;;;;;;;
1898.0;1808.0;;;;;;;;;;;;;700;;;;;;;;
1898.0;1808.0;;;;;;;;;;;;;541;;;;;;;;
1898.0;1808.0;;;;;;;;;;;;;281;;;;;;;;
1898.0;1808.0;;;;;;;;;;;;;-386;;;;;;;;
1898.0;1809.0;;;;-0.28199008;0.6034966;0.081508644;;;;;;;;;;;;;;;
1898.0;1809.0;;;;-0.28208926;0.60234076;0.07774735;;;;;;;;;;;;;;;
1898.0;1809.0;;;;-0.2802811;0.60213476;0.072364815;;;;;;;;;;;;;;;
1898.0;1809.0;;;;-0.27711108;0.6024743;0.06635285;;;;;;;;;;;;;;;
1898.0;1809.0;;;;-0.27339175;0.6042481;0.060485847;;;;;;;;;;;;;;;
1900.0;1814.9;;;;;;;;;;-3.4142585;-25.563066;-8.880886;;;;;;;;;
1900.0;1814.9;;;;;;;0.41151157;-0.7779168;0.26984465;;;;;;;;;;;;
1900.0;1814.9;;;;;;;;;;-3.3417768;-26.093327;-10.849331;;;;;;;;;
1900.0;1814.9;;;;;;;0.4066286;-0.7702261;0.26648763;;;;;;;;;;;;
1900.0;1818.7;;;;-0.26943973;0.6088334;0.055717476;;;;;;;;;;;;;;;
1900.0;1818.7;;;;-0.268261;0.61724097;0.052158363;;;;;;;;;;;;;;;
1900.0;1818.7;;;;-0.26932147;0.6318818;0.050861366;;;;;;;;;;;;;;;
1900.0;1818.7;;;;-0.27350238;0.652958;0.052410133;;;;;;;;;;;;;;;
1900.0;1818.7;;;;-0.2804375;0.6801072;0.056385048;;;;;;;;;;;;;;;
1900.0;1821.8;262143;262143;12085;;;;;;;;;;;;;;;;;;
1900.0;1824.6;;;;;;;;;;-3.2082584;-26.669363;-12.726218;;;;;;;;;
1900.0;1824.6;;;;;;;0.40467542;-0.7622913;0.26392406;;;;;;;;;;;;
1900.0;1824.6;;;;;;;;;;-3.0289621;-27.359844;-14.511552;;;;;;;;;
1900.0;1824.6;;;;;;;0.40046388;-0.75515;0.2598346;;;;;;;;;;;;
1900.0;1828.8;;;;-0.28982928;0.71342474;0.062042244;;;;;;;;;;;;;;;
1900.0;1828.8;;;;-0.30087283;0.7499886;0.068969734;;;;;;;;;;;;;;;
1900.0;1828.8;;;;-0.3129311;0.7876359;0.075004585;;;;;;;;;;;;;;;
1900.0;1828.8;;;;-0.32530215;0.8256303;0.080234535;;;;;;;;;;;;;;;
1900.0;1828.8;;;;-0.33749393;0.86119473;0.084571846;;;;;;;;;;;;;;;
1900.0;1834.2;;;;;;;;;;-2.8496659;-28.180029;-16.136662;;;;;;;;;
1900.0;1834.2;;;;;;;0.3999756;-0.74800867;0.25818658;;;;;;;;;;;;
1900.0;1834.2;;;;;;;;;;-2.666555;-29.011658;-17.654957;;;;;;;;;
1900.0;1834.2;;;;;;;0.39942625;-0.74367505;0.25659963;;;;;;;;;;;;
1904.0;1838.9;;;;-0.3488007;0.8933259;0.08838654;;;;;;;;;;;;;;;
1904.0;1838.9;;;;-0.35875705;0.9203378;0.091671;;;;;;;;;;;;;;;
1904.0;1838.9;;;;-0.36734012;0.9421884;0.09666063;;;;;;;;;;;;;;;
1904.0;1838.9;;;;-0.3748398;0.9605905;0.10184099;;;;;;;;;;;;;;;
1904.0;1838.9;;;;-0.3818665;0.97506726;0.106361404;;;;;;;;;;;;;;;
1904.0;1839.6;;;;;;;;;;;;;;;;;-18.574327;-31.933807;-28.630177;;1736.6
1904.0;1839.6;;;;;;;;;;;;;;-0.737083;-0.3128147;0.021546068;;;;;1736.6
1904.0;1839.6;;;;;;;;;;;;;;;;;-24.216438;-34.337135;-33.089695;;1736.6
1904.0;1839.6;;;;;;;;;;;;;;-0.71968746;-0.33491012;0.016663106;;;;;1736.6
1904.0;1839.6;;;;;;;;;;;;;;;;;-29.019287;-37.495804;-37.949768;;1746.2
1904.0;1839.6;;;;;;;;;;;;;;-0.7051607;-0.3670156;0.003112888;;;;;1746.2
1904.0;1839.6;;;;;;;;;;;;;;;;;-33.558918;-40.795616;-42.893764;;1746.2
1904.0;1839.6;;;;;;;;;;;;;;-0.7082736;-0.39478743;0.0044557024;;;;;1746.2
1904.0;1839.6;;;;;;;;;;;;;;;;;-38.811916;-45.31617;-48.013245;;1755.8
1904.0;1839.6;;;;;;;;;;;;;;-0.70363474;-0.42268136;0.042786952;;;;;1755.8
1904.0;1839.6;;;;;;;;;;;;;;;;;-43.637653;-49.70702;-53.64391;;1755.8
1904.0;1839.6;;;;;;;;;;;;;;-0.69106114;-0.43647572;0.107974485;;;;;1755.8
1905.0;1840.4;;;;;;;;;;;;;;;;;-44.92706;-51.896725;-60.235905;;1765.4
1905.0;1840.4;;;;;;;;;;;;;;-0.6798303;-0.41950744;0.112125;;;;;1765.4
1905.0;1840.4;;;;;;;;;;;;;;;;;-44.81643;-53.937653;-67.63665;;1765.4
1905.0;1840.4;;;;;;;;;;;;;;-0.67415386;-0.4118778;0.054383986;;;;;1765.4
1905.0;1840.4;;;;;;;;;;;;;;;;;-46.071503;-58.141575;-75.72787;;1775.0
1905.0;1840.4;;;;;;;;;;;;;;-0.66188544;-0.42677084;-0.034363844;;;;;1775.0
1905.0;1840.4;;;;;;;;;;;;;;;;;-47.70806;-63.802757;-84.326454;;1775.0
1905.0;1840.4;;;;;;;;;;;;;;-0.6416822;-0.4710837;-0.08844264;;;;;1775.0
1905.0;1840.4;;;;;;;;;;;;;;;;;-46.685688;-67.205574;-93.65749;;1784.6
1905.0;1840.4;;;;;;;;;;;;;;-0.6671957;-0.5348064;-0.020569475;;;;;1784.6
1905.0;1840.4;;;;;;;;;;;;;;;;;-43.40114;-67.62139;-104.747154;;1784.6
1905.0;1840.4;;;;;;;;;;;;;;-0.7409894;-0.5950499;0.14056826;;;;;1784.6
1905.0;1842.0;262143;262143;12089;;;;;;;;;;;;;;;;;;
1905.0;1843.7;;;;;;;;;;-2.521592;-29.732658;-19.066439;;;;;;;;;
1905.0;1843.7;;;;;;;0.39796138;-0.74019593;0.2573321;;;;;;;;;;;;
1905.0;1843.7;;;;;;;;;;-2.334666;-30.335398;-20.428328;;;;;;;;;
1905.0;1843.7;;;;;;;0.39765617;-0.73342085;0.25916317;;;;;;;;;;;;
1905.0;1848.0;;;;;;;;;;;;;-1225;;;;;;;;
1905.0;1848.0;;;;;;;;;;;;;-1730;;;;;;;;
1905.0;1848.0;;;;;;;;;;;;;-1845;;;;;;;;
1905.0;1848.0;;;;;;;;;;;;;-1830;;;;;;;;
1905.0;1848.0;;;;;;;;;;;;;-1874;;;;;;;;
1907.0;1848.9;;;;-0.3877793;0.9881898;0.109634414;;;;;;;;;;;;;;;
1907.0;1848.9;;;;-0.39334494;1.001362;0.11382677;;;;;;;;;;;;;;;
1907.0;1848.9;;;;-0.3985749;1.0158387;0.11769487;;;;;;;;;;;;;;;
1907.0;1848.9;;;;-0.40544134;1.0317346;0.120761886;;;;;;;;;;;;;;;
1907.0;1848.9;;;;-0.4133759;1.0494081;0.12340166;;;;;;;;;;;;;;;
1907.0;1853.3;;;;;;;;;;-2.1057773;-30.976288;-21.687216;;;;;;;;;
1907.0;1853.3;;;;;;;0.3977172;-0.7257302;0.2578814;;;;;;;;;;;;
1907.0;1853.3;;;;;;;;;;-1.8730735;-31.5714;-22.896511;;;;;;;;;
1907.0;1853.3;;;;;;;0.39973143;-0.7147435;0.2565386;;;;;;;;;;;;
1907.0;1858.9;;;;-0.421547;1.0685045;0.123691574;;;;;;;;;;;;;;;
1907.0;1858.9;;;;-0.429905;1.0896417;0.12339021;;;;;;;;;;;;;;;
1907.0;1858.9;;;;-0.4368859;1.1099855;0.122215286;;;;;;;;;;;;;;;
1907.0;1858.9;;;;-0.4424668;1.1293412;0.12095262;;;;;;;;;;;;;;;
1907.0;1858.9;;;;-0.44793326;1.1467859;0.11978151;;;;;;;;;;;;;;;
1907.0;1862.1;262143;262143;12093;;;;;;;;;;;;;;;;;;
1907.0;1862.8;;;;;;;;;;-1.7052218;-31.941437;-24.132511;;;;;;;;;
1907.0;1862.8;;;;;;;0.39954832;-0.70363474;0.25696585;;;;;;;;;;;;
1907.0;1862.8;;;;;;;;;;-1.5449996;-32.280952;-25.418102;;;;;;;;;
1907.0;1862.8;;;;;;;0.39960936;-0.69338053;0.25629443;;;;;;;;;;;;
1957.0;1869.0;;;;-0.45221335;1.1616632;0.11852266;;;;;;;;;;;;;;;
1957.0;1869.0;;;;-0.45480734;1.1753541;0.11606218;;;;;;;;;;;;;;;
1957.0;1869.0;;;;-0.45826346;1.187008;0.11421968;;;;;;;;;;;;;;;
1957.0;1869.0;;;;-0.46342474;1.1945459;0.112323776;;;;;;;;;;;;;;;
1957.0;1869.0;;;;-0.47012717;1.2007142;0.10673143;;;;;;;;;;;;;;;
1957.0;1872.3;;;;;;;;;;-1.4267403;-32.444992;-26.768549;;;;;;;;;
1957.0;1872.3;;;;;;;0.39979246;-0.6854457;0.25568408;;;;;;;;;;;;
1957.0;1872.3;;;;;;;;;;-1.3046663;-32.45262;-28.099916;;;;;;;;;
1957.0;1872.3;;;;;;;0.40101323;-0.67311627;0.25415814;;;;;;;;;;;;
1957.0;1878.8;;;;-0.47894293;1.20599;0.10200502;;;;;;;;;;;;;;;
1957.0;1878.8;;;;-0.48871619;1.2100908;0.098922744;;;;;;;;;;;;;;;
1957.0;1878.8;;;;-0.4962502;1.2164384;0.095356;;;;;;;;;;;;;;;
1957.0;1878.8;;;;-0.49959952;1.2263376;0.090824135;;;;;;;;;;;;;;;
1957.0;1878.8;;;;-0.50100714;1.2379838;0.08449174;;;;;;;;;;;;;;;
1957.0;1881.8;;;;;;;;;;-1.2245551;-32.155064;-29.484695;;;;;;;;;
1957.0;1881.8;;;;;;;0.3988769;-0.65895563;0.2529374;;;;;;;;;;;;
1957.0;1881.8;;;;;;;;;;-1.2817774;-31.651508;-30.987732;;;;;;;;;
1957.0;1881.8;;;;;;;0.39649647;-0.646321;0.2478103;;;;;;;;;;;;
1957.0;1882.1;262143;262143;12108;;;;;;;;;;;;;;;;;;
1957.0;1888.1;;;;;;;;;;;;;-2111;;;;;;;;
1957.0;1888.1;;;;;;;;;;;;;-2262;;;;;;;;
1957.0;1888.1;;;;;;;;;;;;;-1884;;;;;;;;
1957.0;1888.1;;;;;;;;;;;;;-1095;;;;;;;;
1957.0;1888.1;;;;;;;;;;;;;-228;;;;;;;;
1959.0;1889.0;;;;-0.50046927;1.2506906;0.076904304;;;;;;;;;;;;;;;
1959.0;1889.0;;;;-0.50012213;1.26569;0.06936265;;;;;;;;;;;;;;;
1959.0;1889.0;;;;-0.49985892;1.2858583;0.06558228;;;;;;;;;;;;;;;
1959.0;1889.0;;;;-0.50324637;1.3158494;0.06778336;;;;;;;;;;;;;;;
1959.0;1889.0;;;;-0.5068856;1.3561097;0.070724495;;;;;;;;;;;;;;;
1959.0;1891.4;;;;;;;;;;-1.2932218;-31.01825;-32.502213;;;;;;;;;
1959.0;1891.4;;;;;;;0.39295632;-0.6327708;0.24628437;;;;;;;;;;;;
1959.0;1891.4;;;;;;;;;;-1.3618885;-30.323954;-34.0968;;;;;;;;;
1959.0;1891.4;;;;;;;0.392407;-0.62007505;0.24573503;;;;;;;;;;;;
1959.0;1899.0;;;;-0.5102578;1.4030801;0.071933754;;;;;;;;;;;;;;;
1959.0;1899.0;;;;-0.51525503;1.4525529;0.07199479;;;;;;;;;;;;;;;
1959.0;1899.0;;;;-0.52112967;1.5051043;0.07618333;;;;;;;;;;;;;;;
1959.0;1899.0;;;;-0.5327683;1.5591929;0.07981873;;;;;;;;;;;;;;;
1959.0;1899.0;;;;-0.5500489;1.6153529;0.08710862;;;;;;;;;;;;;;;
1960.0;1900.2;;;;;;;;;;;;;;;;;-40.669727;-65.42406;-117.599266;;1794.2
1960.0;1900.2;;;;;;;;;;;;;;-0.86538285;-0.62678915;0.26038393;;;;;1794.2
1960.0;1900.2;;;;;;;;;;;;;;;;;-38.89203;-62.852867;-124.64904;;1794.2
1960.0;1900.2;;;;;;;;;;;;;;-1.0246894;-0.6523026;0.2280343;;;;;1794.2
1960.0;1900.2;;;;;;;;;;;;;;;;;-37.110508;-60.655537;-124.988556;;1803.9
1960.0;1900.2;;;;;;;;;;;;;;-1.2028565;-0.6367382;0.10119938;;;;;1803.9
1960.0;1900.2;;;;;;;;;;;;;;;;;-33.555103;-57.649464;-124.988556;;1803.9
1960.0;1900.2;;;;;;;;;;;;;;-1.4203925;-0.6316721;-0.011169774;;;;;1803.9
1960.0;1900.2;;;;;;;;;;;;;;;;;-26.95929;-56.604206;-124.988556;;1813.6
1960.0;1900.2;;;;;;;;;;;;;;-1.6369518;-0.68532366;-0.09521775;;;;;1813.6
1960.0;1900.2;;;;;;;;;;;;;;;;;-18.74981;-55.24613;-124.988556;;1813.6
1960.0;1900.2;;;;;;;;;;;;;;-1.8265328;-0.70802945;-0.14667195;;;;;1813.6
1960.0;1901.0;;;;;;;;;;;;;;;;;-8.854182;-55.73443;-124.988556;;1823.3
1960.0;1901.0;;;;;;;;;;;;;;-1.9730827;-0.6278878;-0.17011017;;;;;1823.3
1960.0;1901.0;;;;;;;;;;;;;;;;;-0.6485183;-58.42006;-124.988556;;1823.3
1960.0;1901.0;;;;;;;;;;;;;;-1.9998169;-0.4445326;-0.18463698;;;;;1823.3
1960.0;1901.0;;;;;;;;;;;;;;;;;5.5543685;-64.80987;-124.988556;;1833.0
1960.0;1901.0;;;;;;;;;;;;;;-1.9780266;-0.25684378;-0.2153386;;;;;1833.0
1960.0;1901.0;;;;;;;;;;;;;;;;;10.23896;-71.31031;-124.988556;;1833.0
1960.0;1901.0;;;;;;;;;;;;;;-1.8430128;-0.12604144;-0.23090304;;;;;1833.0
1960.0;1901.0;;;;;;;;;;;;;;;;;12.504959;-74.71694;-124.988556;;1842.6
1960.0;1901.0;;;;;;;;;;;;;;-1.671926;-0.02417066;-0.26618245;;;;;1842.6
1960.0;1901.0;;;;;;;;;;;;;;;;;10.826442;-74.20957;-124.988556;;1842.6
1960.0;1901.0;;;;;;;;;;;;;;-1.5524765;0.05999939;-0.31177709;;;;;1842.6
1962.0;1900.8;;;;;;;;;;-1.4496292;-29.29777;-35.70284;;;;;;;;;
1962.0;1900.8;;;;;;;0.3919187;-0.6106754;0.24512467;;;;;;;;;;;;
1962.0;1900.8;;;;;;;;;;-1.5488143;-28.088472;-37.42714;;;;;;;;;
1962.0;1900.8;;;;;;;0.3889889;-0.601825;0.23932615;;;;;;;;;;;;
1962.0;1902.2;262143;262143;12111;;;;;;;;;;;;;;;;;;
1962.0;1908.8;;;;-0.566475;1.672478;0.09819795;;;;;;;;;;;;;;;
1962.0;1908.8;;;;-0.5825005;1.7305453;0.10911943;;;;;;;;;;;;;;;
1962.0;1908.8;;;;-0.6011506;1.7867815;0.119697586;;;;;;;;;;;;;;;
1962.0;1908.8;;;;-0.6181374;1.8391993;0.13059618;;;;;;;;;;;;;;;
1962.0;1908.8;;;;-0.632206;1.8840563;0.1401558;;;;;;;;;;;;;;;
1962.0;1910.3;;;;;;;;;;-1.6975921;-27.001251;-39.15906;;;;;;;;;
1962.0;1910.3;;;;;;;0.3864864;-0.59315777;0.23120824;;;;;;;;;;;;
1962.0;1910.3;;;;;;;;;;-1.7853328;-26.287882;-40.707874;;;;;;;;;
1962.0;1910.3;;;;;;;0.3787347;-0.5884579;0.2141789;;;;;;;;;;;;
1962.0;1918.8;;;;-0.64467245;1.918999;0.14762498;;;;;;;;;;;;;;;
1962.0;1918.8;;;;-0.6553498;1.9415057;0.1542206;;;;;;;;;;;;;;;
1962.0;1918.8;;;;-0.6631356;1.9534075;0.16194917;;;;;;;;;;;;;;;
1962.0;1918.8;;;;-0.669777;1.9535563;0.16896059;;;;;;;;;;;;;;;
1962.0;1918.8;;;;-0.6789475;1.9432604;0.1735573;;;;;;;;;;;;;;;
1962.0;1919.8;;;;;;;;;;-1.9913328;-26.055178;-41.89047;;;;;;;;;
1962.0;1919.8;;;;;;;0.36872464;-0.5990173;0.19434187;;;;;;;;;;;;
1962.0;1919.8;;;;;;;;;;-2.2431104;-26.039919;-42.657246;;;;;;;;;
1962.0;1919.8;;;;;;;0.3632313;-0.6292306;0.17853329;;;;;;;;;;;;
2016.0;1922.2;262143;262143;12112;;;;;;;;;;;;;;;;;;
2016.0;1928.1;;;;;;;;;;;;;427;;;;;;;;
2016.0;1928.1;;;;;;;;;;;;;990;;;;;;;;
2016.0;1928.1;;;;;;;;;;;;;1809;;;;;;;;
2016.0;1928.1;;;;;;;;;;;;;2512;;;;;;;;
2016.0;1928.1;;;;;;;;;;;;;2361;;;;;;;;
2016.0;1928.8;;;;-0.68500143;1.9254992;0.18146135;;;;;;;;;;;;;;;
2016.0;1928.8;;;;-0.68230826;1.8977702;0.19045642;;;;;;;;;;;;;;;
2016.0;1928.8;;;;-0.68163687;1.861973;0.19500735;;;;;;;;;;;;;;;
2016.0;1928.8;;;;-0.6842957;1.8213656;0.20166019;;;;;;;;;;;;;;;
2016.0;1928.8;;;;-0.6884766;1.7780306;0.20597842;;;;;;;;;;;;;;;
2016.0;1929.2;;;;;;;;;;-2.643666;-25.784325;-42.954803;;;;;;;;;
2016.0;1929.2;;;;;;;0.3668325;-0.68422496;0.17828913;;;;;;;;;;;;
2016.0;1929.2;;;;;;;;;;-3.0785549;-24.69329;-42.638172;;;;;;;;;
2016.0;1929.2;;;;;;;0.37415692;-0.7579577;0.18683432;;;;;;;;;;;;
2016.0;1938.5;;;;-0.69136053;1.7333376;0.21159747;;;;;;;;;;;;;;;
2016.0;1938.5;;;;-0.69523245;1.6881411;0.217289;;;;;;;;;;;;;;;
2016.0;1938.5;;;;-0.698742;1.6444399;0.2227669;;;;;;;;;;;;;;;
2016.0;1938.5;;;;-0.70195013;1.6027834;0.2280846;;;;;;;;;;;;;;;
2016.0;1938.5;;;;-0.70511633;1.5641215;0.2317734;;;;;;;;;;;;;;;
2016.0;1938.5;;;;;;;;;;-3.3303325;-23.094881;-41.974396;;;;;;;;;
2016.0;1938.5;;;;;;;0.3844722;-0.83816034;0.20319223;;;;;;;;;;;;
2016.0;1938.5;;;;;;;;;;-3.2731102;-21.458328;-40.952023;;;;;;;;;
2016.0;1938.5;;;;;;;0.39478743;-0.91671497;0.21411787;;;;;;;;;;;;
2016.0;1941.9;262143;262143;12108;;;;;;;;;;;;;;;;;;
2075.0;1948.1;;;;;;;;;;-2.8115177;-20.119328;-39.464245;;;;;;;;;
2075.0;1948.1;;;;;;;0.40717795;-0.9922788;0.22449416;;;;;;;;;;;;
2075.0;1948.1;;;;;;;;;;-2.0447402;-18.42555;-37.70562;;;;;;;;;
2075.0;1948.1;;;;;;;0.42243722;-1.0644857;0.23493148;;;;;;;;;;;;
2075.0;1948.6;;;;-0.7087937;1.5278628;0.23526767;;;;;;;;;;;;;;;
2075.0;1948.6;;;;-0.71221167;1.4958955;0.23838809;;;;;;;;;;;;;;;
2075.0;1948.6;;;;-0.7153016;1.4654962;0.24226001;;;;;;;;;;;;;;;
2075.0;1948.6;;;;-0.7172814;1.4350435;0.24486545;;;;;;;;;;;;;;;
2075.0;1948.6;;;;-0.71968085;1.4050142;0.24718478;;;;;;;;;;;;;;;
2075.0;1957.8;;;;;;;;;;-1.3466293;-16.258736;-36.175877;;;;;;;;;
2075.0;1957.8;;;;;;;0.43885615;-1.1400495;0.24311045;;;;;;;;;;;;
2075.0;1957.8;;;;;;;;;;-0.37385175;-13.946959;-34.764397;;;;;;;;;
2075.0;1957.8;;;;;;;0.45521408;-1.2170782;0.24542986;;;;;;;;;;;;
2075.0;1958.7;;;;-0.71640784;1.3758813;0.2502785;;;;;;;;;;;;;;;
2075.0;1958.7;;;;-0.71331793;1.3481523;0.25394443;;;;;;;;;;;;;;;
2075.0;1958.7;;;;-0.7112809;1.3229791;0.25867465;;;;;;;;;;;;;;;
2075.0;1958.7;;;;-0.71768194;1.2967149;0.25934222;;;;;;;;;;;;;;;
2075.0;1958.7;;;;-0.72131354;1.2710153;0.26245502;;;;;;;;;;;;;;;
2077.0;1959.6;;;;;;;;;;;;;;;;;4.5777764;-74.3965;-124.988556;;1852.2
2077.0;1959.6;;;;;;;;;;;;;;-1.4413892;0.05938902;-0.33332315;;;;;1852.2
2077.0;1959.6;;;;;;;;;;;;;;;;;-2.7809992;-73.28257;-124.988556;;1852.2
2077.0;1959.6;;;;;;;;;;;;;;-1.3959776;-0.035584584;-0.32563248;;;;;1852.2
2077.0;1959.6;;;;;;;;;;;;;;;;;-9.170813;-70.7915;-123.34437;;1861.9
2077.0;1959.6;;;;;;;;;;;;;;-1.3572191;-0.091921754;-0.32618183;;;;;1861.9
2077.0;1959.6;;;;;;;;;;;;;;;;;-16.628773;-66.774506;-116.84012;;1861.9
2077.0;1959.6;;;;;;;;;;;;;;-1.3939024;-0.19775994;-0.30762658;;;;;1861.9
2077.0;1959.6;;;;;;;;;;;;;;;;;-21.965698;-58.58028;-106.78426;;1871.5
2077.0;1959.6;;;;;;;;;;;;;;-1.5247047;-0.3696402;-0.26557207;;;;;1871.5
2077.0;1959.6;;;;;;;;;;;;;;;;;-26.314585;-48.91736;-98.0369;;1871.5
2077.0;1959.6;;;;;;;;;;;;;;-1.6572161;-0.4297006;-0.25214392;;;;;1871.5
2077.0;1960.3;;;;;;;;;;;;;;;;;-31.868954;-37.980286;-90.65523;;1881.1
2077.0;1960.3;;;;;;;;;;;;;;-1.7950377;-0.48695335;-0.27240822;;;;;1881.1
2077.0;1960.3;;;;;;;;;;;;;;;;;-38.686028;-27.695547;-85.16572;;1881.1
2077.0;1960.3;;;;;;;;;;;;;;-1.8852504;-0.5459151;-0.2893765;;;;;1881.1
2077.0;1960.3;;;;;;;;;;;;;;;;;-44.881283;-18.936735;-82.17109;;1890.7
2077.0;1960.3;;;;;;;;;;;;;;-1.9215064;-0.59053314;-0.30414745;;;;;1890.7
2077.0;1960.3;;;;;;;;;;;;;;;;;-48.650322;-12.569811;-81.938385;;1890.7
2077.0;1960.3;;;;;;;;;;;;;;-1.8760338;-0.67702264;-0.32392347;;;;;1890.7
2077.0;1960.3;;;;;;;;;;;;;;;;;-48.787655;-7.4541464;-82.674644;;1900.3
2077.0;1960.3;;;;;;;;;;;;;;-1.7813654;-0.7236549;-0.32850122;;;;;1900.3
2077.0;1960.3;;;;;;;;;;;;;;;;;-47.578358;-3.0213325;-82.560196;;1900.3
2077.0;1960.3;;;;;;;;;;;;;;-1.6637471;-0.7107761;-0.3098239;;;;;1900.3
2079.0;1962.0;262143;262143;12102;;;;;;;;;;;;;;;;;;
2079.0;1967.1;;;;;;;;;;0.8735923;-11.986145;-33.55129;;;;;;;;;
2079.0;1967.1;;;;;;;0.46552935;-1.2912992;0.24134037;;;;;;;;;;;;
2079.0;1967.1;;;;;;;;;;2.1324809;-10.189367;-32.685326;;;;;;;;;
2079.0;1967.1;;;;;;;0.46821496;-1.3589282;0.235786;;;;;;;;;;;;
2079.0;1967.9;;;;;;;;;;;;;1550;;;;;;;;
2079.0;1967.9;;;;;;;;;;;;;1170;;;;;;;;
2079.0;1967.9;;;;;;;;;;;;;1753;;;;;;;;
2079.0;1967.9;;;;;;;;;;;;;2788;;;;;;;;
2079.0;1967.9;;;;;;;;;;;;;3389;;;;;;;;
2079.0;1968.6;;;;-0.7217522;1.2465249;0.2653847;;;;;;;;;;;;;;;
2079.0;1968.6;;;;-0.7176171;1.2217218;0.26848987;;;;;;;;;;;;;;;
2079.0;1968.6;;;;-0.71319586;1.1976739;0.27119067;;;;;;;;;;;;;;;
2079.0;1968.6;;;;-0.709179;1.1755601;0.27420428;;;;;;;;;;;;;;;
2079.0;1968.6;;;;-0.7049447;1.1569024;0.27572635;;;;;;;;;;;;;;;
2079.0;1976.7;;;;;;;;;;3.6431472;-8.941923;-32.04062;;;;;;;;;
2079.0;1976.7;;;;;;;0.46125674;-1.4159977;0.2238838;;;;;;;;;;;;
2079.0;1976.7;;;;;;;;;;5.2682576;-8.705404;-31.319622;;;;;;;;;
2079.0;1976.7;;;;;;;0.44294566;-1.4585406;0.20337535;;;;;;;;;;;;
2079.0;1978.5;;;;-0.69933325;1.1399957;0.2766724;;;;;;;;;;;;;;;
2079.0;1978.5;;;;-0.6931763;1.1249048;0.27731708;;;;;;;;;;;;;;;
2079.0;1978.5;;;;-0.6847306;1.1114427;0.2767525;;;;;;;;;;;;;;;
2079.0;1978.5;;;;-0.67560965;1.0985566;0.2755585;;;;;;;;;;;;;;;
2079.0;1978.5;;;;-0.66512686;1.0861703;0.2741547;;;;;;;;;;;;;;;
2079.0;1982.1;262143;262143;12100;;;;;;;;;;;;;;;;;;
2080.0;1986.2;;;;;;;;;;6.637776;-8.960998;-30.446028;;;;;;;;;
2080.0;1986.2;;;;;;;0.43018892;-1.4907072;0.18073061;;;;;;;;;;;;
2080.0;1986.2;;;;;;;;;;7.232887;-10.124516;-29.786066;;;;;;;;;
2080.0;1986.2;;;;;;;0.4194464;-1.5371563;0.1793878;;;;;;;;;;;;
2080.0;1988.6;;;;-0.6538468;1.0739061;0.27139285;;;;;;;;;;;;;;;
2080.0;1988.6;;;;-0.64010626;1.0629922;0.26828006;;;;;;;;;;;;;;;
2080.0;1988.6;;;;-0.6245499;1.0522577;0.26579288;;;;;;;;;;;;;;;
2080.0;1988.6;;;;-0.60973746;1.0421602;0.26240543;;;;;;;;;;;;;;;
2080.0;1988.6;;;;-0.59816366;1.0325967;0.25955585;;;;;;;;;;;;;;;
2080.0;1995.8;;;;;;;;;;9.464553;-12.737662;-30.51088;;;;;;;;;
2080.0;1995.8;;;;;;;0.4026612;-1.582934;0.16089359;;;;;;;;;;;;
2080.0;1995.8;;;;;;;;;;11.795404;-15.4690695;-31.388287;;;;;;;;;
2080.0;1995.8;;;;;;;0.39118627;-1.6163213;0.13995789;;;;;;;;;;;;
2080.0;1998.6;;;;-0.5872269;1.0235063;0.2568474;;;;;;;;;;;;;;;
2080.0;1998.6;;;;-0.5754166;1.0153047;0.25455096;;;;;;;;;;;;;;;
2080.0;1998.6;;;;-0.5608292;1.0086747;0.25329593;;;;;;;;;;;;;;;
2080.0;1998.6;;;;-0.54417807;1.0038453;0.2550774;;;;;;;;;;;;;;;
2080.0;1998.6;;;;-0.52820593;0.9999429;0.25745776;;;;;;;;;;;;;;;
2080.0;2002.2;262143;262143;12100;;;;;;;;;;;;;;;;;;
2080.0;2005.4;;;;;;;;;;13.61507;-18.803217;-32.02536;;;;;;;;;
2080.0;2005.4;;;;;;;0.3797113;-1.65862;0.118533894;;;;;;;;;;;;
2080.0;2005.4;;;;;;;;;;15.381329;-22.774437;-32.46025;;;;;;;;;
2080.0;2005.4;;;;;;;0.3757439;-1.7286295;0.10095523;;;;;;;;;;;;
2084.0;2008.2;;;;;;;;;;;;;3029;;;;;;;;
2084.0;2008.2;;;;;;;;;;;;;2302;;;;;;;;
2084.0;2008.2;;;;;;;;;;;;;2001;;;;;;;;
2084.0;2008.2;;;;;;;;;;;;;2119;;;;;;;;
2084.0;2008.2;;;;;;;;;;;;;2302;;;;;;;;
2084.0;2008.7;;;;-0.5123902;0.9952699;0.2606087;;;;;;;;;;;;;;;
2084.0;2008.7;;;;-0.49813086;0.99048245;0.264946;;;;;;;;;;;;;;;
2084.0;2008.7;;;;-0.48802572;0.98489773;0.26816562;;;;;;;;;;;;;;;
2084.0;2008.7;;;;-0.48365408;0.9781114;0.2688866;;;;;;;;;;;;;;;
2084.0;2008.7;;;;-0.4824372;0.9713136;0.27092364;;;;;;;;;;;;;;;
2084.0;2015.0;;;;;;;;;;17.025513;-27.111881;-32.46025;;;;;;;;;
2084.0;2015.0;;;;;;;0.37568286;-1.8107853;0.093264565;;;;;;;;;;;;
2084.0;2015.0;;;;;;;;;;18.723106;-31.727806;-31.678215;;;;;;;;;
2084.0;2015.0;;;;;;;0.37745294;-1.8922696;0.093142495;;;;;;;;;;;;
2084.0;2018.8;;;;-0.48213202;0.96353924;0.27301028;;;;;;;;;;;;;;;
2084.0;2018.8;;;;-0.4816895;0.9550172;0.2749062;;;;;;;;;;;;;;;
2084.0;2018.8;;;;-0.47933203;0.9466363;0.276001;;;;;;;;;;;;;;;
2084.0;2018.8;;;;-0.47592932;0.93870556;0.27548602;;;;;;;;;;;;;;;
2084.0;2018.8;;;;-0.47266012;0.93130887;0.27492145;;;;;;;;;;;;;;;
2085.0;2020.3;;;;;;;;;;;;;;;;;-45.171207;0.3013703;-81.40049;;1910.0
2085.0;2020.3;;;;;;;;;;;;;;-1.5425276;-0.6781823;-0.25366986;;;;;1910.0
2085.0;2020.3;;;;;;;;;;;;;;;;;-41.684467;3.2616658;-79.69145;;1910.0
2085.0;2020.3;;;;;;;;;;;;;;-1.4082462;-0.573748;-0.16583759;;;;;1910.0
2085.0;2020.3;;;;;;;;;;;;;;;;;-38.22825;6.6301465;-76.62054;;1919.5
2085.0;2020.3;;;;;;;;;;;;;;-1.2950835;-0.47065645;-0.10431226;;;;;1919.5
2085.0;2020.3;;;;;;;;;;;;;;;;;-35.840176;8.274331;-71.7185;;1919.5
2085.0;2020.3;;;;;;;;;;;;;;-1.2094486;-0.41181678;-0.06305124;;;;;1919.5
2085.0;2020.3;;;;;;;;;;;;;;;;;-34.314247;7.9996643;-66.23661;;1929.2
2085.0;2020.3;;;;;;;;;;;;;;-1.1399274;-0.37452316;-0.038331248;;;;;1929.2
2085.0;2020.3;;;;;;;;;;;;;;;;;-32.41829;6.2448497;-60.590683;;1929.2
2085.0;2020.3;;;;;;;;;;;;;;-1.0739464;-0.34803307;-0.029541917;;;;;1929.2
2085.0;2021.0;;;;;;;;;;;;;;;;;-29.80514;3.4867396;-54.677727;;1938.8
2085.0;2021.0;;;;;;;;;;;;;;-1.0154119;-0.32105473;-0.010681478;;;;;1938.8
2085.0;2021.0;;;;;;;;;;;;;;;;;-26.829586;-0.019074067;-48.524433;;1938.8
2085.0;2021.0;;;;;;;;;;;;;;-0.95754874;-0.3063448;-0.0046388134;;;;;1938.8
2085.0;2021.0;;;;;;;;;;;;;;;;;-23.617512;-3.521073;-41.99347;;1948.4
2085.0;2021.0;;;;;;;;;;;;;;-0.913419;-0.29987487;0.0023194067;;;;;1948.4
2085.0;2021.0;;;;;;;;;;;;;;;;;-20.3444;-7.187109;-35.29084;;1948.4
2085.0;2021.0;;;;;;;;;;;;;;-0.8564715;-0.29139072;0.013794366;;;;;1948.4
2085.0;2021.0;;;;;;;;;;;;;;;;;-16.834774;-9.586627;-28.500473;;1958.1
2085.0;2021.0;;;;;;;;;;;;;;-0.8052614;-0.2785119;0.035767693;;;;;1958.1
2085.0;2021.0;;;;;;;;;;;;;;;;;-13.225959;-9.842219;-21.313364;;1958.1
2085.0;2021.0;;;;;;;;;;;;;;-0.7781609;-0.2580645;0.05450606;;;;;1958.1
2088.0;2022.3;262143;262143;12097;;;;;;;;;;;;;;;;;;
2088.0;2024.4;;;;;;;;;;20.451216;-36.320843;-30.659657;;;;;;;;;
2088.0;2024.4;;;;;;;0.37934506;-1.9644765;0.09900205;;;;;;;;;;;;
2088.0;2024.4;;;;;;;;;;22.305214;-41.3831;-29.96536;;;;;;;;;
2088.0;2024.4;;;;;;;0.38044375;-1.9991455;0.10925627;;;;;;;;;;;;
2088.0;2028.7;;;;-0.46838766;0.9238931;0.27360538;;;;;;;;;;;;;;;
2088.0;2028.7;;;;-0.46314627;0.91596615;0.27074435;;;;;;;;;;;;;;;
2088.0;2028.7;;;;-0.45932776;0.9088899;0.267746;;;;;;;;;;;;;;;
2088.0;2028.7;;;;-0.45613104;0.90054333;0.2640877;;;;;;;;;;;;;;;
2088.0;2028.7;;;;-0.4522515;0.89297116;0.2601929;;;;;;;;;;;;;;;
2088.0;2034.0;;;;;;;;;;24.098179;-46.67043;-30.068361;;;;;;;;;
2088.0;2034.0;;;;;;;0.3778802;-1.9998169;0.118228704;;;;;;;;;;;;
2088.0;2034.0;;;;;;;;;;25.673697;-51.690723;-30.823694;;;;;;;;;
2088.0;2034.0;;;;;;;0.37714773;-1.9998169;0.12701803;;;;;;;;;;;;
2088.0;2038.7;;;;-0.4478951;0.88617337;0.25615314;;;;;;;;;;;;;;;
2088.0;2038.7;;;;-0.4423142;0.878029;0.2527199;;;;;;;;;;;;;;;
2088.0;2038.7;;;;-0.43868262;0.86812985;0.24615481;;;;;;;;;;;;;;;
2088.0;2038.7;;;;-0.4388848;0.8569375;0.23780063;;;;;;;;;;;;;;;
2088.0;2038.7;;;;-0.43704993;0.84799206;0.23355868;;;;;;;;;;;;;;;
2088.0;2042.4;262143;262143;12100;;;;;;;;;;;;;;;;;;
2137.0;2043.5;;;;;;;;;;26.741844;-56.321907;-32.15125;;;;;;;;;
2137.0;2043.5;;;;;;;0.38227484;-1.9810175;0.12903225;;;;;;;;;;;;
2137.0;2043.5;;;;;;;;;;27.34077;-60.583054;-34.161655;;;;;;;;;
2137.0;2043.5;;;;;;;0.38032165;-1.9130833;0.13196203;;;;;;;;;;;;
2137.0;2048.4;;;;;;;;;;;;;2329;;;;;;;;
2137.0;2048.4;;;;;;;;;;;;;2281;;;;;;;;
2137.0;2048.4;;;;;;;;;;;;;2316;;;;;;;;
2137.0;2048.4;;;;;;;;;;;;;2327;;;;;;;;
2137.0;2048.4;;;;;;;;;;;;;2166;;;;;;;;
2137.0;2048.8;;;;-0.43227774;0.8392831;0.22797778;;;;;;;;;;;;;;;
2137.0;2048.8;;;;-0.42857367;0.82893384;0.22068408;;;;;;;;;;;;;;;
2137.0;2048.8;;;;-0.42318732;0.8186685;0.21455005;;;;;;;;;;;;;;;
2137.0;2048.8;;;;-0.41797262;0.8094331;0.20829776;;;;;;;;;;;;;;;
2137.0;2048.8;;;;-0.41353232;0.7986909;0.20354083;;;;;;;;;;;;;;;
2137.0;2052.8;;;;;;;;;;27.497177;-64.79842;-36.58025;;;;;;;;;
2137.0;2052.8;;;;;;;0.3671987;-1.8237861;0.12970367;;;;;;;;;;;;
2137.0;2052.8;;;;;;;;;;27.027956;-69.02524;-39.18195;;;;;;;;;
2137.0;2052.8;;;;;;;0.35370952;-1.7291788;0.12286752;;;;;;;;;;;;
2137.0;2058.2;;;;-0.40798956;0.7890512;0.1994324;;;;;;;;;;;;;;;
2137.0;2058.2;;;;-0.40450674;0.7797204;0.19420245;;;;;;;;;;;;;;;
2137.0;2058.2;;;;-0.4013253;0.7709886;0.19170764;;;;;;;;;;;;;;;
2137.0;2058.2;;;;-0.3972817;0.763157;0.18879703;;;;;;;;;;;;;;;
2137.0;2058.2;;;;-0.39291388;0.75489056;0.18604662;;;;;;;;;;;;;;;
2137.0;2062.1;;;;;;;;;;25.971252;-73.25968;-42.14606;;;;;;;;;
2137.0;2062.1;;;;;;;0.3401593;-1.6376842;0.10565508;;;;;;;;;;;;
2137.0;2062.1;;;;;;;;;;24.304178;-76.780754;-45.51454;;;;;;;;;
2137.0;2062.1;;;;;;;0.33069858;-1.5579699;0.08740501;;;;;;;;;;;;
2139.0;2062.0;262143;262143;12098;;;;;;;;;;;;;;;;;;
2139.0;2068.3;;;;-0.3888207;0.7461396;0.18273546;;;;;;;;;;;;;;;
2139.0;2068.3;;;;-0.38813025;0.737156;0.17956926;;;;;;;;;;;;;;;
2139.0;2068.3;;;;-0.38720328;0.72855;0.17713548;;;;;;;;;;;;;;;
2139.0;2068.3;;;;-0.3851853;0.72061545;0.17564012;;;;;;;;;;;;;;;
2139.0;2068.3;;;;-0.38379675;0.7138596;0.17443086;;;;;;;;;;;;;;;
2139.0;2071.7;;;;;;;;;;22.499771;-79.40534;-49.100468;;;;;;;;;
2139.0;2071.7;;;;;;;0.31727043;-1.490524;0.08520768;;;;;;;;;;;;
2139.0;2071.7;;;;;;;;;;20.489365;-81.194496;-52.35069;;;;;;;;;
2139.0;2071.7;;;;;;;0.31843013;-1.4221015;0.08398694;;;;;;;;;;;;
2139.0;2078.4;;;;-0.38432318;0.7059441;0.17240907;;;;;;;;;;;;;;;
2139.0;2078.4;;;;-0.38753515;0.6971589;0.16996385;;;;;;;;;;;;;;;
2139.0;2078.4;;;;-0.39068228;0.6893349;0.16815187;;;;;;;;;;;;;;;
2139.0;2078.4;;;;-0.3924561;0.68295676;0.16787721;;;;;;;;;;;;;;;
2139.0;2078.4;;;;-0.39537436;0.67565924;0.16692354;;;;;;;;;;;;;;;
2140.0;2079.5;;;;;;;;;;;;;;;;;-10.212256;-9.102145;-14.061403;;1967.7
2140.0;2079.5;;;;;;;;;;;;;;-0.76216924;-0.23859371;0.06616413;;;;;1967.7
2140.0;2079.5;;;;;;;;;;;;;;;;;-7.7860346;-7.7288127;-6.9887385;;1967.7
2140.0;2079.5;;;;;;;;;;;;;;-0.75124365;-0.20667134;0.07458724;;;;;1967.7
2140.0;2079.5;;;;;;;;;;;;;;;;;-6.366924;-5.645924;-0.27085176;;1977.4
2140.0;2079.5;;;;;;;;;;;;;;-0.73140657;-0.18353832;0.07037568;;;;;1977.4
2140.0;2079.5;;;;;;;;;;;;;;;;;-5.821406;-2.7886288;5.989258;;1977.4
2140.0;2079.5;;;;;;;;;;;;;;-0.7293313;-0.16052736;0.0695822;;;;;1977.4
2140.0;2079.5;;;;;;;;;;;;;;;;;-6.416517;-0.21744438;11.890775;;1986.8
2140.0;2079.5;;;;;;;;;;;;;;-0.7145604;-0.12842189;0.076662496;;;;;1986.8
2140.0;2079.5;;;;;;;;;;;;;;;;;-8.041628;2.0142217;17.674032;;1986.8
2140.0;2079.5;;;;;;;;;;;;;;-0.6857509;-0.09985656;0.0910062;;;;;1986.8
2140.0;2080.3;;;;;;;;;;;;;;;;;-9.598072;3.5058138;23.621326;;1996.3
2140.0;2080.3;;;;;;;;;;;;;;-0.6696982;-0.0712302;0.11523789;;;;;1996.3
2140.0;2080.3;;;;;;;;;;;;;;;;;-11.06296;3.093814;29.37025;;1996.3
2140.0;2080.3;;;;;;;;;;;;;;-0.64638203;-0.05749687;0.15430158;;;;;1996.3
2140.0;2080.3;;;;;;;;;;;;;;;;;-11.658071;1.4191107;34.962765;;2006.0
2140.0;2080.3;;;;;;;;;;;;;;-0.6335032;-0.07013153;0.19171728;;;;;2006.0
2140.0;2080.3;;;;;;;;;;;;;;;;;-10.406812;-0.69429606;40.70406;;2006.0
2140.0;2080.3;;;;;;;;;;;;;;-0.63344216;-0.10199286;0.22095402;;;;;2006.0
2140.0;2080.3;;;;;;;;;;;;;;;;;-7.1146274;-2.4071476;46.586506;;2015.6
2140.0;2080.3;;;;;;;;;;;;;;-0.6303293;-0.14111759;0.22809534;;;;;2015.6
2140.0;2080.3;;;;;;;;;;;;;;;;;-2.7085178;-3.151036;52.77413;;2015.6
2140.0;2080.3;;;;;;;;;;;;;;-0.61507004;-0.14618365;0.21729179;;;;;2015.6
2142.0;2081.1;;;;;;;;;;18.089846;-81.74383;-55.57802;;;;;;;;;
2142.0;2081.1;;;;;;;0.32337412;-1.3621022;0.086245306;;;;;;;;;;;;
2142.0;2081.1;;;;;;;;;;15.614033;-81.5569;-58.591724;;;;;;;;;
2142.0;2081.1;;;;;;;0.32599872;-1.3063753;0.09149449;;;;;;;;;;;;
2142.0;2082.0;262143;262143;12095;;;;;;;;;;;;;;;;;;
2142.0;2087.9;;;;;;;;;;;;;1958;;;;;;;;
2142.0;2087.9;;;;;;;;;;;;;1890;;;;;;;;
2142.0;2087.9;;;;;;;;;;;;;1823;;;;;;;;
2142.0;2087.9;;;;;;;;;;;;;1579;;;;;;;;
2142.0;2087.9;;;;;;;;;;;;;1349;;;;;;;;
2142.0;2088.3;;;;-0.39817053;0.6662789;0.16448213;;;;;;;;;;;;;;;
2142.0;2088.3;;;;-0.40048987;0.6580506;0.16502;;;;;;;;;;;;;;;
2142.0;2088.3;;;;-0.40094382;0.6505471;0.16466524;;;;;;;;;;;;;;;
2142.0;2088.3;;;;-0.40012747;0.6430016;0.1644211;;;;;;;;;;;;;;;
2142.0;2088.3;;;;-0.3980103;0.63509756;0.16489793;;;;;;;;;;;;;;;
2142.0;2090.7;;;;;;;;;;12.905515;-80.481125;-61.269722;;;;;;;;;
2142.0;2090.7;;;;;;;0.32978302;-1.2617573;0.09698782;;;;;;;;;;;;
2142.0;2090.7;;;;;;;;;;9.994812;-78.5432;-63.402206;;;;;;;;;
2142.0;2090.7;;;;;;;0.3455916;-1.2187872;0.10174871;;;;;;;;;;;;
2143.0;2094.6;;;;;;;;;;;;;;;;;0.86214787;-2.723777;58.656578;;2025.3
2143.0;2094.6;;;;;;;;;;;;;;-0.58674884;-0.109866634;0.17700736;;;;;2025.3
2143.0;2094.6;;;;;;;;;;;;;;;;;2.2202215;-1.2817774;63.898132;;2025.3
2143.0;2094.6;;;;;;;;;;;;;;-0.5669118;-0.06591998;0.11700796;;;;;2025.3
2143.0;2094.6;;;;;;;;;;;;;;;;;0.85833305;-0.2822962;67.78542;;2034.9
2143.0;2094.6;;;;;;;;;;;;;;-0.545793;-0.003357036;0.056093022;;;;;2034.9
2143.0;2094.6;;;;;;;;;;;;;;;;;-3.7919247;0.42725915;70.73809;;2034.9
2143.0;2094.6;;;;;;;;;;;;;;-0.53462327;0.05566576;0.013061922;;;;;2034.9
2143.0;2094.6;;;;;;;;;;;;;;;;;-11.387218;1.064333;73.18339;;2044.6
2143.0;2094.6;;;;;;;;;;;;;;-0.5266274;0.103518784;-0.012329478;;;;;2044.6
2143.0;2094.6;;;;;;;;;;;;;;;;;-21.267586;2.6970735;76.55187;;2044.6
2143.0;2094.6;;;;;;;;;;;;;;-0.53993344;0.13342692;-0.04773095;;;;;2044.6
2143.0;2098.3;;;;-0.3967057;0.62733084;0.16611864;;;;;;;;;;;;;;;
2143.0;2098.3;;;;-0.39591604;0.61954886;0.16630556;;;;;;;;;;;;;;;
2143.0;2098.3;;;;-0.39614874;0.6106644;0.16633226;;;;;;;;;;;;;;;
2143.0;2098.3;;;;-0.3961907;0.60278326;0.16762926;;;;;;;;;;;;;;;
2143.0;2098.3;;;;-0.3975411;0.5946656;0.16884996;;;;;;;;;;;;;;;
2143.0;2100.2;;;;;;;;;;6.8628497;-75.71642;-65.32869;;;;;;;;;
2143.0;2100.2;;;;;;;0.3366802;-1.1956542;0.11487167;;;;;;;;;;;;
2143.0;2100.2;;;;;;;;;;4.127629;-72.63787;-66.20228;;;;;;;;;
2143.0;2100.2;;;;;;;0.34498122;-1.1712394;0.11780145;;;;;;;;;;;;
2143.0;2102.2;262143;262143;12086;;;;;;;;;;;;;;;;;;
2197.0;2108.4;;;;-0.39810187;0.58663565;0.17051698;;;;;;;;;;;;;;;
2197.0;2108.4;;;;-0.3988915;0.57960516;0.17182161;;;;;;;;;;;;;;;
2197.0;2108.4;;;;-0.4009171;0.57238394;0.17315675;;;;;;;;;;;;;;;
2197.0;2108.4;;;;-0.40312582;0.564972;0.17391588;;;;;;;;;;;;;;;
2197.0;2108.4;;;;-0.40501028;0.5578118;0.17446901;;;;;;;;;;;;;;;
2197.0;2109.8;;;;;;;;;;1.0948515;-68.41868;-66.961426;;;;;;;;;
2197.0;2109.8;;;;;;;0.34949797;-1.1482894;0.12451552;;;;;;;;;;;;
2197.0;2109.8;;;;;;;;;;-1.9188513;-63.54335;-67.61758;;;;;;;;;
2197.0;2109.8;;;;;;;0.35212258;-1.124424;0.12726219;;;;;;;;;;;;
2197.0;2118.2;;;;-0.40579993;0.5514832;0.1737671;;;;;;;;;;;;;;;
2197.0;2118.2;;;;-0.4073754;0.5451394;0.17363359;;;;;;;;;;;;;;;
2197.0;2118.2;;;;-0.4079247;0.5392342;0.17256548;;;;;;;;;;;;;;;
2197.0;2118.2;;;;-0.40840155;0.5331803;0.17147447;;;;;;;;;;;;;;;
2197.0;2118.2;;;;-0.40860373;0.526661;0.16988374;;;;;;;;;;;;;;;
2197.0;2119.2;;;;;;;;;;-4.6578875;-58.53832;-68.02957;;;;;;;;;
2197.0;2119.2;;;;;;;0.3598132;-1.1015961;0.12726219;;;;;;;;;;;;
2197.0;2119.2;;;;;;;;;;-7.2405167;-52.96106;-68.041016;;;;;;;;;
2197.0;2119.2;;;;;;;0.36750388;-1.0779138;0.12689596;;;;;;;;;;;;
2197.0;2122.1;262143;262143;12086;;;;;;;;;;;;;;;;;;
2197.0;2128.0;;;;;;;;;;;;;1253;;;;;;;;
2197.0;2128.0;;;;;;;;;;;;;1063;;;;;;;;
2197.0;2128.0;;;;;;;;;;;;;684;;;;;;;;
2197.0;2128.0;;;;;;;;;;;;;441;;;;;;;;
2197.0;2128.0;;;;;;;;;;;;;700;;;;;;;;
2199.0;2128.3;;;;-0.40871054;0.5207253;0.1683426;;;;;;;;;;;;;;;
2199.0;2128.3;;;;-0.40814215;0.5142289;0.16696168;;;;;;;;;;;;;;;
2199.0;2128.3;;;;-0.40765768;0.50825125;0.16473009;;;;;;;;;;;;;;;
2199.0;2128.3;;;;-0.40737158;0.5023652;0.16268541;;;;;;;;;;;;;;;
2199.0;2128.3;;;;-0.40725332;0.4963227;0.16079713;;;;;;;;;;;;;;;
2199.0;2128.8;;;;;;;;;;-9.640035;-46.601765;-68.178345;;;;;;;;;
2199.0;2128.8;;;;;;;0.3740959;-1.0493485;0.12781152;;;;;;;;;;;;
2199.0;2128.8;;;;;;;;;;-12.047182;-39.872433;-68.17453;;;;;;;;;
2199.0;2128.8;;;;;;;0.3725089;-1.0159001;0.12921537;;;;;;;;;;;;
2199.0;2138.4;;;;-0.4072953;0.4906922;0.15854646;;;;;;;;;;;;;;;
2199.0;2138.4;;;;-0.40764242;0.48592383;0.15706255;;;;;;;;;;;;;;;
2199.0;2138.4;;;;-0.4079743;0.4804955;0.15562822;;;;;;;;;;;;;;;
2199.0;2138.4;;;;-0.408413;0.47580725;0.1544571;;;;;;;;;;;;;;;
2199.0;2138.4;;;;-0.40943152;0.47116858;0.15155794;;;;;;;;;;;;;;;
2199.0;2138.4;;;;;;;;;;-14.252144;-33.066807;-67.91894;;;;;;;;;
2199.0;2138.4;;;;;;;0.3782464;-0.9822077;0.12732323;;;;;;;;;;;;
2199.0;2138.4;;;;;;;;;;-16.28544;-25.8034;-67.31621;;;;;;;;;
2199.0;2138.4;;;;;;;0.38392285;-0.9494308;0.12872708;;;;;;;;;;;;
2200.0;2140.1;;;;;;;;;;;;;;;;;-32.303844;5.180517;80.82827;;2054.2
2200.0;2140.1;;;;;;;;;;;;;;-0.55818355;0.13165686;-0.08789331;;;;;2054.2
2200.0;2140.1;;;;;;;;;;;;;;;;;-43.3401;8.033998;85.70742;;2054.2
2200.0;2140.1;;;;;;;;;;;;;;-0.57167274;0.103396714;-0.13434248;;;;;2054.2
2200.0;2140.1;;;;;;;;;;;;;;;;;-53.52947;11.658071;90.61708;;2063.9
2200.0;2140.1;;;;;;;;;;;;;;-0.5888241;0.06335643;-0.16516617;;;;;2063.9
2200.0;2140.1;;;;;;;;;;;;;;;;;-61.826683;15.053254;95.294044;;2063.9
2200.0;2140.1;;;;;;;;;;;;;;-0.62337106;0.010864589;-0.1775567;;;;;2063.9
2200.0;2140.1;;;;;;;;;;;;;;;;;-67.53365;17.342142;99.82986;;2073.6
2200.0;2140.1;;;;;;;;;;;;;;-0.6623737;-0.0369274;-0.17450483;;;;;2073.6
2200.0;2140.1;;;;;;;;;;;;;;;;;-70.528275;18.158514;104.0643;;2073.6
2200.0;2140.1;;;;;;;;;;;;;;-0.70998263;-0.09863582;-0.16412854;;;;;2073.6
2200.0;2142.3;262143;262143;12077;;;;;;;;;;;;;;;;;;
2200.0;2147.9;;;;;;;;;;-18.169958;-18.272957;-66.454056;;;;;;;;;
2200.0;2147.9;;;;;;;0.38892788;-0.9152501;0.1281167;;;;;;;;;;;;
2200.0;2147.9;;;;;;;;;;-19.901882;-10.570848;-65.52324;;;;;;;;;
2200.0;2147.9;;;;;;;0.3971679;-0.8827174;0.12707907;;;;;;;;;;;;
2200.0;2148.4;;;;-0.41112524;0.46686178;0.150589;;;;;;;;;;;;;;;
2200.0;2148.4;;;;-0.41281134;0.4626084;0.1499405;;;;;;;;;;;;;;;
2200.0;2148.4;;;;-0.4146195;0.45846945;0.14943697;;;;;;;;;;;;;;;
2200.0;2148.4;;;;-0.41637045;0.45470434;0.14958955;;;;;;;;;;;;;;;
2200.0;2148.4;;;;-0.41834265;0.45088583;0.14919282;;;;;;;;;;;;;;;
2201.0;2154.7;;;;;;;;;;;;;;;;;-71.44002;16.842403;107.91345;;2083.2
2201.0;2154.7;;;;;;;;;;;;;;-0.7561266;-0.16516617;-0.15698722;;;;;2083.2
2201.0;2154.7;;;;;;;;;;;;;;;;;-69.948425;12.932219;111.49556;;2083.2
2201.0;2154.7;;;;;;;;;;;;;;-0.80648214;-0.25763726;-0.15222633;;;;;2083.2
2201.0;2154.7;;;;;;;;;;;;;;;;;-65.90854;7.2862945;114.38719;;2092.9
2201.0;2154.7;;;;;;;;;;;;;;-0.83639026;-0.34516433;-0.16217536;;;;;2092.9
2201.0;2154.7;;;;;;;;;;;;;;;;;-59.41191;1.5526291;116.78289;;2092.9
2201.0;2154.7;;;;;;;;;;;;;;-0.8863796;-0.41572315;-0.16168706;;;;;2092.9
2201.0;2154.7;;;;;;;;;;;;;;;;;-51.06128;-3.8186285;117.58401;;2102.5
2201.0;2154.7;;;;;;;;;;;;;;-0.89724416;-0.48823512;-0.17365032;;;;;2102.5
2201.0;2154.7;;;;;;;;;;;;;;;;;-41.05121;-6.801813;117.41234;;2102.5
2201.0;2154.7;;;;;;;;;;;;;;-0.92226934;-0.5315714;-0.18488114;;;;;2102.5
2201.0;2157.3;;;;;;;;;;-21.462143;-2.6970735;-64.4818;;;;;;;;;
2201.0;2157.3;;;;;;;0.4026612;-0.85299236;0.12793359;;;;;;;;;;;;
2201.0;2157.3;;;;;;;;;;-22.701956;5.165258;-63.2725;;;;;;;;;
2201.0;2157.3;;;;;;;0.40534684;-0.82290107;0.124332406;;;;;;;;;;;;
2201.0;2158.3;;;;-0.42029577;0.44736105;0.14894868;;;;;;;;;;;;;;;
2201.0;2158.3;;;;-0.42261893;0.44429404;0.149498;;;;;;;;;;;;;;;
2201.0;2158.3;;;;-0.42578512;0.44121176;0.1497841;;;;;;;;;;;;;;;
2201.0;2158.3;;;;-0.4287644;0.43872458;0.1500931;;;;;;;;;;;;;;;
2201.0;2158.3;;;;-0.43139654;0.43593222;0.15058519;;;;;;;;;;;;;;;
2201.0;2162.3;262143;262143;12066;;;;;;;;;;;;;;;;;;
2255.0;2167.0;;;;;;;;;;-23.716698;12.905515;-62.11661;;;;;;;;;
2255.0;2167.0;;;;;;;0.40522477;-0.79085666;0.11957152;;;;;;;;;;;;
2255.0;2167.0;;;;;;;;;;-24.506365;20.050661;-60.644093;;;;;;;;;
2255.0;2167.0;;;;;;;0.39796138;-0.7639393;0.11481063;;;;;;;;;;;;
2255.0;2168.1;;;;;;;;;;;;;1372;;;;;;;;
2255.0;2168.1;;;;;;;;;;;;;1867;;;;;;;;
2255.0;2168.1;;;;;;;;;;;;;1853;;;;;;;;
2255.0;2168.1;;;;;;;;;;;;;1822;;;;;;;;
2255.0;2168.1;;;;;;;;;;;;;1925;;;;;;;;
2255.0;2168.3;;;;-0.43383795;0.4334641;0.15075685;;;;;;;;;;;;;;;
2255.0;2168.3;;;;-0.4359551;0.43096548;0.15037538;;;;;;;;;;;;;;;
2255.0;2168.3;;;;-0.43848425;0.42900854;0.15021898;;;;;;;;;;;;;;;
2255.0;2168.3;;;;-0.44063574;0.4271508;0.14947511;;;;;;;;;;;;;;;
2255.0;2168.3;;;;-0.44321066;0.42482382;0.14863206;;;;;;;;;;;;;;;
2255.0;2176.0;;;;;;;;;;-25.009918;26.360363;-58.931244;;;;;;;;;
2255.0;2176.0;;;;;;;0.3842891;-0.7347636;0.109073155;;;;;;;;;;;;
2255.0;2176.0;;;;;;;;;;-25.337992;31.880398;-57.176426;;;;;;;;;
2255.0;2176.0;;;;;;;0.37244788;-0.7054048;0.10687582;;;;;;;;;;;;
2255.0;2177.9;;;;-0.44582373;0.42339712;0.1478119;;;;;;;;;;;;;;;
2255.0;2177.9;;;;-0.4483071;0.42220312;0.14727022;;;;;;;;;;;;;;;
2255.0;2177.9;;;;-0.45088965;0.4210587;0.14596559;;;;;;;;;;;;;;;
2255.0;2177.9;;;;-0.45318228;0.42070013;0.14498521;;;;;;;;;;;;;;;
2255.0;2177.9;;;;-0.455391;0.42021567;0.1438141;;;;;;;;;;;;;;;
2255.0;2182.0;262143;262143;12067;;;;;;;;;;;;;;;;;;
2257.0;2185.6;;;;;;;;;;-25.639362;36.912136;-55.486465;;;;;;;;;
2257.0;2185.6;;;;;;;0.3587756;-0.68099004;0.10388501;;;;;;;;;;;;
2257.0;2185.6;;;;;;;;;;-25.776695;41.77221;-53.540913;;;;;;;;;
2257.0;2185.6;;;;;;;0.34784997;-0.65651417;0.10382397;;;;;;;;;;;;
2257.0;2188.0;;;;-0.457264;0.41982657;0.14320375;;;;;;;;;;;;;;;
2257.0;2188.0;;;;-0.45919424;0.4200707;0.14223863;;;;;;;;;;;;;;;
2257.0;2188.0;;;;-0.46059042;0.42070776;0.14125825;;;;;;;;;;;;;;;
2257.0;2188.0;;;;-0.46160513;0.4215203;0.140934;;;;;;;;;;;;;;;
2257.0;2188.0;;;;-0.4627419;0.42205435;0.14051057;;;;;;;;;;;;;;;
2257.0;2195.3;;;;;;;;;;-25.978882;46.548355;-51.446575;;;;;;;;;
2257.0;2195.3;;;;;;;0.33314005;-0.63637197;0.10095523;;;;;;;;;;;;
2257.0;2195.3;;;;;;;;;;-26.020844;50.763725;-49.22254;;;;;;;;;
2257.0;2195.3;;;;;;;0.32197028;-0.61592454;0.0999176;;;;;;;;;;;;
2257.0;2198.2;;;;-0.46353155;0.422947;0.14077379;;;;;;;;;;;;;;;
2257.0;2198.2;;;;-0.4639588;0.42410666;0.1410637;;;;;;;;;;;;;;;
2257.0;2198.2;;;;-0.46394354;0.4246331;0.14107896;;;;;;;;;;;;;;;
2257.0;2198.2;;;;-0.46438223;0.42518622;0.14114381;;;;;;;;;;;;;;;
2257.0;2198.2;;;;-0.46479803;0.4261704;0.14170076;;;;;;;;;;;;;;;
2259.0;2199.6;;;;;;;;;;;;;;;;;-30.70162;-8.79696;115.95508;;2112.0
2259.0;2199.6;;;;;;;;;;;;;;-0.9378338;-0.5438398;-0.19415876;;;;;2112.0
2259.0;2199.6;;;;;;;;;;;;;;;;;-20.58092;-10.368664;112.86889;;2112.0
2259.0;2199.6;;;;;;;;;;;;;;-0.9602344;-0.5528123;-0.1810358;;;;;2112.0
2259.0;2199.6;;;;;;;;;;;;;;;;;-11.45207;-12.882626;108.775604;;2121.6
2259.0;2199.6;;;;;;;;;;;;;;-0.96292;-0.5592822;-0.14563432;;;;;2121.6
2259.0;2199.6;;;;;;;;;;;;;;;;;-4.1314435;-15.381329;103.45393;;2121.6
2259.0;2199.6;;;;;;;;;;;;;;-0.9424116;-0.56117433;-0.10034486;;;;;2121.6
2259.0;2199.6;;;;;;;;;;;;;;;;;2.1019626;-16.8157;97.865234;;2131.2
2259.0;2199.6;;;;;;;;;;;;;;-0.9013947;-0.5675222;-0.05981628;;;;;2131.2
2259.0;2199.6;;;;;;;;;;;;;;;;;5.83285;-17.014069;93.108154;;2131.2
2259.0;2199.6;;;;;;;;;;;;;;-0.8422498;-0.572161;-0.014282662;;;;;2131.2
2259.0;2202.2;262143;262143;12065;;;;;;;;;;;;;;;;;;
2259.0;2204.8;;;;;;;;;;-25.975067;54.65484;-47.17017;;;;;;;;;
2259.0;2204.8;;;;;;;0.30323192;-0.60042113;0.10138249;;;;;;;;;;;;
2259.0;2204.8;;;;;;;;;;-25.879696;58.13013;-44.900356;;;;;;;;;
2259.0;2204.8;;;;;;;0.28278452;-0.58803064;0.10144353;;;;;;;;;;;;
2259.0;2207.9;;;;;;;;;;;;;1725;;;;;;;;
2259.0;2207.9;;;;;;;;;;;;;1586;;;;;;;;
2259.0;2207.9;;;;;;;;;;;;;2775;;;;;;;;
2259.0;2207.9;;;;;;;;;;;;;5090;;;;;;;;
2259.0;2207.9;;;;;;;;;;;;;3224;;;;;;;;
2260.0;2208.0;;;;-0.46521765;0.42685324;0.1422577;;;;;;;;;;;;;;;
2260.0;2208.0;;;;-0.46459967;0.42717367;0.1426697;;;;;;;;;;;;;;;
2260.0;2208.0;;;;-0.4638253;0.42747504;0.14356615;;;;;;;;;;;;;;;
2260.0;2208.0;;;;-0.46246344;0.42783362;0.14533235;;;;;;;;;;;;;;;
2260.0;2208.0;;;;-0.46002585;0.42778784;0.1470337;;;;;;;;;;;;;;;
2260.0;2214.3;;;;;;;;;;-25.521103;60.712757;-42.558064;;;;;;;;;
2260.0;2214.3;;;;;;;0.26545;-0.5791803;0.105288856;;;;;;;;;;;;
2260.0;2214.3;;;;;;;;;;-25.19303;62.555313;-40.280617;;;;;;;;;
2260.0;2214.3;;;;;;;0.25067905;-0.5703299;0.1093173;;;;;;;;;;;;
2260.0;2214.5;;;;;;;;;;;;;;;;;5.565813;-15.823847;89.14838;;2140.9
2260.0;2214.5;;;;;;;;;;;;;;-0.7876827;-0.60103154;0.017090365;;;;;2140.9
2260.0;2214.5;;;;;;;;;;;;;;;;;1.8044069;-13.145848;84.34553;;2140.9
2260.0;2214.5;;;;;;;;;;;;;;-0.6767785;-0.61397135;0.011597034;;;;;2140.9
2260.0;2214.5;;;;;;;;;;;;;;;;;-6.126591;-5.3788877;79.2146;;2150.5
2260.0;2214.5;;;;;;;;;;;;;;-0.605121;-0.6283761;-0.05261391;;;;;2150.5
2260.0;2214.5;;;;;;;;;;;;;;;;;-17.780846;6.7484055;74.65972;;2150.5
2260.0;2214.5;;;;;;;;;;;;;;-0.57564014;-0.6404004;-0.13196203;;;;;2150.5
2260.0;2214.5;;;;;;;;;;;;;;;;;-32.845547;18.112736;69.00998;;2160.2
2260.0;2214.5;;;;;;;;;;;;;;-0.51417583;-0.63777584;-0.21948913;;;;;2160.2
2260.0;2214.5;;;;;;;;;;;;;;;;;-48.963135;31.331066;62.92154;;2160.2
2260.0;2214.5;;;;;;;;;;;;;;-0.44441053;-0.62446976;-0.31366923;;;;;2160.2
2316.0;2217.9;;;;-0.45687872;0.42768866;0.14793397;;;;;;;;;;;;;;;
2316.0;2217.9;;;;-0.4529801;0.42708594;0.14933015;;;;;;;;;;;;;;;
2316.0;2217.9;;;;-0.4484101;0.4265824;0.15051652;;;;;;;;;;;;;;;
2316.0;2217.9;;;;-0.44395834;0.4254685;0.15152742;;;;;;;;;;;;;;;
2316.0;2217.9;;;;-0.4390183;0.4245606;0.15294649;;;;;;;;;;;;;;;
2316.0;2222.1;262143;262143;12056;;;;;;;;;;;;;;;;;;
2316.0;2223.7;;;;;;;;;;-24.628439;63.90576;-37.97647;;;;;;;;;
2316.0;2223.7;;;;;;;0.23920408;-0.56245613;0.11578722;;;;;;;;;;;;
2316.0;2223.7;;;;;;;;;;-24.071474;64.86328;-35.64562;;;;;;;;;
2316.0;2223.7;;;;;;;0.23108615;-0.55458236;0.12286752;;;;;;;;;;;;
2316.0;2227.9;;;;-0.43368536;0.42369467;0.15362169;;;;;;;;;;;;;;;
2316.0;2227.9;;;;-0.42928702;0.4220162;0.15564348;;;;;;;;;;;;;;;
2316.0;2227.9;;;;-0.42535025;0.42007834;0.15666963;;;;;;;;;;;;;;;
2316.0;2227.9;;;;-0.42305;0.41902548;0.15602876;;;;;;;;;;;;;;;
2316.0;2227.9;;;;-0.42123038;0.41800696;0.15567018;;;;;;;;;;;;;;;
2316.0;2233.0;;;;;;;;;;-23.468735;65.60717;-33.48262;;;;;;;;;
2316.0;2233.0;;;;;;;0.22675252;-0.5489059;0.13214515;;;;;;;;;;;;
2316.0;2233.0;;;;;;;;;;-22.70577;65.91617;-31.197546;;;;;;;;;
2316.0;2233.0;;;;;;;0.22217475;-0.54499954;0.14087345;;;;;;;;;;;;
2318.0;2237.8;;;;-0.41959006;0.41753012;0.15485002;;;;;;;;;;;;;;;
2318.0;2237.8;;;;-0.4173928;0.41696173;0.15446474;;;;;;;;;;;;;;;
2318.0;2237.8;;;;-0.41342932;0.41709143;0.15467454;;;;;;;;;;;;;;;
2318.0;2237.8;;;;-0.4092675;0.4178658;0.15510942;;;;;;;;;;;;;;;
2318.0;2237.8;;;;-0.40365988;0.41954046;0.15531923;;;;;;;;;;;;;;;
2318.0;2242.0;262143;262143;12062;;;;;;;;;;;;;;;;;;
2318.0;2242.6;;;;;;;;;;-21.862698;65.80173;-28.86288;;;;;;;;;
2318.0;2242.6;;;;;;;0.21735282;-0.544023;0.14831996;;;;;;;;;;;;
2318.0;2242.6;;;;;;;;;;-20.840326;65.26765;-26.394695;;;;;;;;;
2318.0;2242.6;;;;;;;0.20929594;-0.5398724;0.15540025;;;;;;;;;;;;
2318.0;2247.9;;;;-0.3984986;0.4214707;0.15532304;;;;;;;;;;;;;;;
2318.0;2247.9;;;;-0.39435202;0.42329794;0.1553383;;;;;;;;;;;;;;;
2318.0;2247.9;;;;-0.39041907;0.42567068;0.15534975;;;;;;;;;;;;;;;
2318.0;2247.9;;;;-0.38628393;0.42838675;0.15435793;;;;;;;;;;;;;;;
2318.0;2247.9;;;;-0.38089758;0.432293;0.15336229;;;;;;;;;;;;;;;
2318.0;2247.9;;;;;;;;;;;;;-8290;;;;;;;;
2318.0;2247.9;;;;;;;;;;;;;-23772;;;;;;;;
2318.0;2247.9;;;;;;;;;;;;;-29419;;;;;;;;
2318.0;2247.9;;;;;;;;;;;;;-19529;;;;;;;;
2318.0;2247.9;;;;;;;;;;;;;-3535;;;;;;;;
2318.0;2252.2;;;;;;;;;;-19.775993;64.23765;-24.018068;;;;;;;;;
2318.0;2252.2;;;;;;;0.2036195;-0.5349895;0.16241951;;;;;;;;;;;;
2318.0;2252.2;;;;;;;;;;-18.726921;63.104645;-21.813105;;;;;;;;;
2318.0;2252.2;;;;;;;0.20386365;-0.529313;0.16687521;;;;;;;;;;;;
2319.0;2258.0;;;;-0.37235263;0.43854147;0.1507187;;;;;;;;;;;;;;;
2319.0;2258.0;;;;-0.3505974;0.44932944;0.15602876;;;;;;;;;;;;;;;
2319.0;2258.0;;;;-0.34572604;0.45920187;0.14646913;;;;;;;;;;;;;;;
2319.0;2258.0;;;;-0.35612872;0.45739752;0.1284752;;;;;;;;;;;;;;;
2319.0;2258.0;;;;-0.35362247;0.4577828;0.12727357;;;;;;;;;;;;;;;
2319.0;2260.0;;;;;;;;;;;;;;;;;-64.882355;45.728172;57.02765;;2169.9
2319.0;2260.0;;;;;;;;;;;;;;-0.41846982;-0.6171453;-0.37653738;;;;;2169.9
2319.0;2260.0;;;;;;;;;;;;;;;;;-78.10831;57.988983;51.263466;;2169.9
2319.0;2260.0;;;;;;;;;;;;;;-0.42878506;-0.61885434;-0.40717795;;;;;2169.9
2319.0;2260.0;;;;;;;;;;;;;;;;;-85.8562;66.65624;47.17017;;2179.6
2319.0;2260.0;;;;;;;;;;;;;;-0.47175512;-0.5914487;-0.4049196;;;;;2179.6
2319.0;2260.0;;;;;;;;;;;;;;;;;-88.67534;70.7915;44.022953;;2179.6
2319.0;2260.0;;;;;;;;;;;;;;-0.50630206;-0.5564135;-0.37519455;;;;;2179.6
2319.0;2260.0;;;;;;;;;;;;;;;;;-88.13746;71.79479;41.337322;;2189.2
2319.0;2260.0;;;;;;;;;;;;;;-0.5065462;-0.5350505;-0.31891844;;;;;2189.2
2319.0;2260.0;;;;;;;;;;;;;;;;;-84.7232;70.364235;40.364544;;2189.2
2319.0;2260.0;;;;;;;;;;;;;;-0.4782861;-0.5289468;-0.24628437;;;;;2189.2
2319.0;2261.7;;;;;;;;;;-17.490921;61.590168;-19.753105;;;;;;;;;
2319.0;2261.7;;;;;;;0.19861446;-0.5281533;0.17151402;;;;;;;;;;;;
2319.0;2261.7;;;;;;;;;;-16.117588;59.83154;-17.456587;;;;;;;;;
2319.0;2261.7;;;;;;;0.19190039;-0.52735984;0.1744438;;;;;;;;;;;;
2319.0;2262.2;262143;262143;12061;;;;;;;;;;;;;;;;;;
