patientId;holterMac;flexMac;;;;;;;;;;;;;;;;;;;;
;CA:F3:0B:1E:33:78;D3:4A:5C:52:80:78;;;;;;;;;;;;;;;;;;;;
receivedTimeStamp;timeStamp;red;ir;green;adxl_accX;adxl_accY;adxl_accZ;lsm_accelX;lsm_accelY;lsm_accelZ;lsm_gyroX;lsm_gyroY;lsm_gyroZ;ecg;flex_lsm_accelX;flex_lsm_accelY;flex_lsm_accelZ;flex_lsm_gyroX;flex_lsm_gyroY;flex_lsm_gyroZ;flex_cmd;flexTimeStamp
288.0;219.0;;;;;;;;;;;;;;;;;;;;17;0.1
288.0;219.0;;;;;;;;;;;;;;;;;13.832514;1.4877774;0.3852962;;127.6
288.0;219.0;;;;;;;;;;;;;;1.0633259;0.10119938;-0.012390515;;;;;127.6
288.0;219.0;;;;;;;;;;;;;;;;;-4.280221;-15.86581;-8.159886;;127.6
288.0;219.0;;;;;;;;;;;;;;1.1234474;0.13721122;-0.029847102;;;;;127.6
288.0;219.0;;;;;;;;;;;;;;;;;-58.313244;-84.00983;-66.839355;;137.3
288.0;219.0;;;;;;;;;;;;;;1.1498764;0.15106662;-0.087710194;;;;;137.3
288.0;219.0;;;;;;;;;;;;;;;;;-120.70451;-124.988556;-122.36396;;137.3
288.0;219.0;;;;;;;;;;;;;;1.155858;0.15417951;-0.12610248;;;;;137.3
350.0;219.8;;;;;;;;;;;;;;;;;-38.285473;-123.74111;-101.13452;;147.0
350.0;219.8;;;;;;;;;;;;;;1.1495101;0.164861;-0.15503404;;;;;147.0
350.0;219.8;;;;;;;;;;;;;;;;;53.781246;-117.0423;-88.534195;;147.0
350.0;219.8;;;;;;;;;;;;;;1.1339457;0.1953795;-0.1662038;;;;;147.0
350.0;219.8;;;;;;;;;;;;;;;;;53.609577;-75.014496;-91.64708;;156.5
350.0;219.8;;;;;;;;;;;;;;1.1176488;0.21948913;-0.15478988;;;;;156.5
350.0;219.8;;;;;;;;;;;;;;;;;41.703545;24.952696;-68.834496;;156.5
350.0;219.8;;;;;;;;;;;;;;1.0997651;0.2238838;-0.13458663;;;;;156.5
350.0;219.8;;;;;;;;;;;;;;;;;31.662952;36.530655;-62.768944;;166.2
350.0;219.8;;;;;;;;;;;;;;1.0795007;0.21320231;-0.107974485;;;;;166.2
350.0;219.8;;;;;;;;;;;;;;;;;24.552141;38.800472;-59.430984;;166.2
350.0;219.8;;;;;;;;;;;;;;1.0481887;0.19940794;-0.071413316;;;;;166.2
350.0;279.4;;;;;;;;;;;;;;;;;19.295328;36.996063;-55.604725;;175.8
350.0;279.4;;;;;;;;;;;;;;1.025544;0.17731254;-0.054322947;;;;;175.8
350.0;279.4;;;;;;;;;;;;;;;;;15.205847;33.658104;-52.632984;;175.8
350.0;279.4;;;;;;;;;;;;;;1.0098575;0.14441359;-0.05627613;;;;;175.8
350.0;279.4;;;;;;;;;;;;;;;;;11.532182;31.62099;-50.31739;;185.5
350.0;279.4;;;;;;;;;;;;;;0.9895322;0.11792352;-0.059327982;;;;;185.5
350.0;279.4;;;;;;;;;;;;;;;;;6.4394054;31.277657;-47.894985;;185.5
350.0;279.4;;;;;;;;;;;;;;0.9665212;0.103152566;-0.053773616;;;;;185.5
350.0;279.4;;;;;;;;;;;;;;;;;0.48066652;30.659657;-46.151615;;195.2
350.0;279.4;;;;;;;;;;;;;;0.9483322;0.08984649;-0.053712577;;;;;195.2
350.0;279.4;;;;;;;;;;;;;;;;;-4.547258;30.411694;-44.259468;;195.2
350.0;279.4;;;;;;;;;;;;;;0.9320963;0.08154546;-0.04956206;;;;;195.2
413.0;280.6;;;;;;;;;;;;;;;;;-8.571886;30.011139;-41.5891;;204.7
413.0;280.6;;;;;;;;;;;;;;0.9129917;0.067201756;-0.044984285;;;;;204.7
413.0;280.6;;;;;;;;;;;;;;;;;-11.341441;28.942991;-39.391766;;204.7
413.0;280.6;;;;;;;;;;;;;;0.8897977;0.048463393;-0.041016877;;;;;204.7
413.0;280.6;;;;;;;;;;;;;;;;;-12.936033;28.03125;-38.89966;;214.4
413.0;280.6;;;;;;;;;;;;;;0.87203586;0.06201361;-0.029663991;;;;;214.4
413.0;280.6;;;;;;;;;;;;;;;;;-13.401441;25.776695;-38.510544;;214.4
413.0;280.6;;;;;;;;;;;;;;0.852504;0.07245094;-0.023438215;;;;;214.4
413.0;280.6;;;;;;;;;;;;;;;;;-13.744773;22.686697;-36.42384;;224.1
413.0;280.6;;;;;;;;;;;;;;0.844203;0.06482132;-0.021851253;;;;;224.1
413.0;280.6;;;;;;;;;;;;;;;;;-13.523515;20.165104;-34.985657;;224.1
413.0;280.6;;;;;;;;;;;;;;0.85152745;0.057618946;-0.023926511;;;;;224.1
413.0;339.5;;;;;;;;;;;;;;;;;-12.646107;18.669699;-34.44395;;233.7
413.0;339.5;;;;;;;;;;;;;;0.8514664;0.06408887;-0.018189032;;;;;233.7
413.0;339.5;;;;;;;;;;;;;;;;;-11.970885;16.99881;-34.119694;;233.7
413.0;339.5;;;;;;;;;;;;;;0.8545183;0.07495346;-0.016663106;;;;;233.7
413.0;339.5;;;;;;;;;;;;;;;;;-11.032442;16.006958;-33.18125;;243.4
413.0;339.5;;;;;;;;;;;;;;0.8562273;0.08642842;-0.0113528855;;;;;243.4
413.0;339.5;;;;;;;;;;;;;;;;;-10.059664;15.270699;-32.284767;;243.4
413.0;339.5;;;;;;;;;;;;;;0.8551897;0.095156714;-0.003357036;;;;;243.4
413.0;339.5;;;;;;;;;;;;;;;;;-9.384442;14.324625;-31.727806;;252.9
413.0;339.5;;;;;;;;;;;;;;0.8527482;0.11066011;0.003357036;;;;;252.9
413.0;339.5;;;;;;;;;;;;;;;;;-9.014404;13.473923;-30.934324;;252.9
413.0;339.5;;;;;;;;;;;;;;0.85207677;0.12878811;0.011780145;;;;;252.9
472.0;340.3;;;;;;;;;;;;;;;;;-8.358257;12.276071;-29.766993;;262.6
472.0;340.3;;;;;;;;;;;;;;0.85067296;0.14929655;0.02417066;;;;;262.6
472.0;340.3;;;;;;;;;;;;;;;;;-8.808405;9.796441;-28.702658;;262.6
472.0;340.3;;;;;;;;;;;;;;0.8578753;0.16687521;0.02294992;;;;;262.6
472.0;340.3;;;;;;;;;;;;;;;;;-9.716331;8.175146;-27.26829;;272.2
472.0;340.3;;;;;;;;;;;;;;0.872158;0.17828913;0.01556444;;;;;272.2
472.0;340.3;;;;;;;;;;;;;;;;;-10.235145;7.9233685;-26.165808;;272.2
472.0;340.3;;;;;;;;;;;;;;0.8791772;0.18744469;0.014404736;;;;;272.2
472.0;340.3;;;;;;;;;;;;;;;;;-10.853146;8.163702;-25.097658;;281.9
472.0;340.3;;;;;;;;;;;;;;0.8830836;0.19330424;0.017273476;;;;;281.9
472.0;340.3;;;;;;;;;;;;;;;;;-11.37196;8.388776;-23.907438;;281.9
472.0;340.3;;;;;;;;;;;;;;0.88912624;0.1981872;0.020386364;;;;;281.9
472.0;399.9;;;;;;;;;;;;;;;;;-11.2537;8.468886;-22.656178;;291.6
472.0;399.9;;;;;;;;;;;;;;0.8955352;0.1942198;0.021179846;;;;;291.6
472.0;399.9;;;;;;;;;;;;;;;;;-11.318552;9.144109;-21.71392;;291.6
472.0;399.9;;;;;;;;;;;;;;0.90017396;0.18524735;0.016541032;;;;;291.6
472.0;399.9;;;;;;;;;;;;;;;;;-10.532701;10.170293;-21.00055;;301.1
472.0;399.9;;;;;;;;;;;;;;0.90102845;0.18097477;0.027466659;;;;;301.1
472.0;399.9;;;;;;;;;;;;;;;;;-10.315256;10.902738;-20.210882;;301.1
472.0;399.9;;;;;;;;;;;;;;0.903531;0.16589862;0.026673177;;;;;301.1
472.0;399.9;;;;;;;;;;;;;;;;;-10.292367;12.49733;-19.173254;;310.8
472.0;399.9;;;;;;;;;;;;;;0.9094516;0.14441359;0.03009125;;;;;310.8
472.0;399.9;;;;;;;;;;;;;;;;;-10.914183;14.515367;-17.929625;;310.8
472.0;399.9;;;;;;;;;;;;;;0.9164098;0.12262337;0.03930784;;;;;310.8
532.0;401.1;;;;;;;;;;;;;;;;;-11.654256;16.716515;-17.193365;;320.4
532.0;401.1;;;;;;;;;;;;;;0.91811883;0.10113834;0.041932434;;;;;320.4
532.0;401.1;;;;;;;;;;;;;;;;;-11.726737;19.005402;-16.701256;;320.4
532.0;401.1;;;;;;;;;;;;;;0.91293067;0.08270516;0.04809717;;;;;320.4
532.0;401.1;;;;;;;;;;;;;;;;;-10.822627;20.428328;-16.388441;;330.0
532.0;401.1;;;;;;;;;;;;;;0.9063997;0.07074191;0.05182043;;;;;330.0
532.0;401.1;;;;;;;;;;;;;;;;;-9.632405;20.817438;-16.289255;;330.0
532.0;401.1;;;;;;;;;;;;;;0.9010895;0.06317332;0.050111394;;;;;330.0
532.0;401.1;;;;;;;;;;;;;;;;;-7.866146;21.263771;-15.850552;;339.7
532.0;401.1;;;;;;;;;;;;;;0.89944154;0.06579791;0.051515244;;;;;339.7
532.0;401.1;;;;;;;;;;;;;;;;;-4.7837768;21.938993;-15.079958;;339.7
532.0;401.1;;;;;;;;;;;;;;0.89407027;0.061952576;0.044068728;;;;;339.7
532.0;460.1;;;;;;;;;;;;;;;;;0.3929258;22.82403;-14.370403;;349.4
532.0;460.1;;;;;;;;;;;;;;0.89168984;0.06878872;0.038209174;;;;;349.4
532.0;460.1;;;;;;;;;;;;;;;;;5.493332;23.167364;-13.397626;;349.4
532.0;460.1;;;;;;;;;;;;;;0.895352;0.07757805;0.017700735;;;;;349.4
532.0;460.1;;;;;;;;;;;;;;;;;11.413922;24.754326;-12.535478;;359.1
532.0;460.1;;;;;;;;;;;;;;0.89077425;0.09747612;0.013000885;;;;;359.1
532.0;460.1;;;;;;;;;;;;;;;;;17.792292;25.990326;-11.490219;;359.1
532.0;460.1;;;;;;;;;;;;;;0.8906522;0.13031404;0.020996734;;;;;359.1
532.0;460.1;;;;;;;;;;;;;;;;;23.518326;26.070436;-10.036775;;368.5
532.0;460.1;;;;;;;;;;;;;;0.8896756;0.15796381;0.02496414;;;;;368.5
532.0;460.1;;;;;;;;;;;;;;;;;28.904844;25.643177;-8.327739;;368.5
532.0;460.1;;;;;;;;;;;;;;0.8905301;0.18182927;0.027771844;;;;;368.5
589.0;461.0;;;;;;;;;;;;;;;;;32.97525;24.922176;-6.897183;;378.2
589.0;461.0;;;;;;;;;;;;;;0.89327675;0.2066103;0.02191229;;;;;378.2
589.0;461.0;;;;;;;;;;;;;;;;;36.1301;24.929806;-5.607776;;378.2
589.0;461.0;;;;;;;;;;;;;;0.8995026;0.2224189;0.01574755;;;;;378.2
589.0;461.0;;;;;;;;;;;;;;;;;39.185764;25.227362;-4.844814;;387.9
589.0;461.0;;;;;;;;;;;;;;0.90017396;0.24268319;0.01574755;;;;;387.9
589.0;461.0;;;;;;;;;;;;;;;;;40.719322;25.101473;-4.20774;;387.9
589.0;461.0;;;;;;;;;;;;;;0.8954741;0.26239815;0.009704886;;;;;387.9
589.0;461.0;;;;;;;;;;;;;;;;;42.38258;24.128696;-3.8300729;;397.5
589.0;461.0;;;;;;;;;;;;;;0.89187294;0.27729118;0.0145268105;;;;;397.5
589.0;461.0;;;;;;;;;;;;;;;;;42.878506;22.461622;-3.3761103;;397.5
589.0;461.0;;;;;;;;;;;;;;0.8918119;0.28907132;0.006408887;;;;;397.5
589.0;520.3;;;;;;;;;;;;;;;;;43.477432;20.817438;-2.7314067;;407.2
589.0;520.3;;;;;;;;;;;;;;0.8896145;0.29627368;0.009033479;;;;;407.2
589.0;520.3;;;;;;;;;;;;;;;;;43.889435;18.841366;-2.231666;;407.2
589.0;520.3;;;;;;;;;;;;;;0.88570815;0.30573443;0.011780145;;;;;407.2
589.0;520.3;;;;;;;;;;;;;;;;;44.141212;16.891996;-1.842555;;416.8
589.0;520.3;;;;;;;;;;;;;;0.88698995;0.31391338;0.018066958;;;;;416.8
589.0;520.3;;;;;;;;;;;;;;;;;44.03821;15.377514;-1.4076662;;416.8
589.0;520.3;;;;;;;;;;;;;;0.8858913;0.321543;0.02764977;;;;;416.8
589.0;520.3;;;;;;;;;;;;;;;;;44.19462;14.046144;-0.8087405;;426.5
589.0;520.3;;;;;;;;;;;;;;0.88338876;0.3299051;0.03936888;;;;;426.5
589.0;520.3;;;;;;;;;;;;;;;;;44.53795;12.760551;-0.3357036;;426.5
589.0;520.3;;;;;;;;;;;;;;0.8818018;0.34223455;0.051698357;;;;;426.5
651.0;521.1;;;;;;;;;;;;;;;;;44.75921;13820;0.35096285;;436.1
651.0;521.1;;;;;;;;;;;;;;0.88485366;0.3317362;0.059144873;;;;;436.1
651.0;521.1;;;;;;;;;;;;;;;;;46.41865;9.792626;2.7886288;;436.1
651.0;521.1;;;;;;;;;;;;;;0.8776513;0.2038026;0.036378063;;;;;436.1
651.0;521.1;;;;;;;;;;;;;;;;;48.780025;9.907071;0.3089999;;445.7
651.0;521.1;;;;;;;;;;;;;;0.8785058;0.4036378;0.083681755;;;;;445.7
651.0;521.1;;;;;;;;;;;;;;;;;49.287395;6.3936276;2.9450362;;445.7
651.0;521.1;;;;;;;;;;;;;;0.8608661;0.38947722;0.07068087;;;;;445.7
651.0;521.1;;;;;;;;;;;;;;;;;48.73043;4.215369;4.871517;;455.4
651.0;521.1;;;;;;;;;;;;;;0.8636738;0.3831904;0.048524432;;;;;455.4
651.0;521.1;;;;;;;;;;;;;;;;;48.524433;4.650258;5.2148504;;455.4
651.0;521.1;;;;;;;;;;;;;;0.8597064;0.40156254;0.04754784;;;;;455.4
651.0;535.7;;;;;;;;;;;;;;;;;47.837765;4.4518876;6.44322;;465.0
651.0;535.7;;;;;;;;;;;;;;0.86123234;0.39289528;0.026795251;;;;;465.0
651.0;535.7;;;;;;;;;;;;;;;;;47.17017;5.0202947;7.3053684;;465.0
651.0;535.7;;;;;;;;;;;;;;0.8552507;0.3831904;0.006103702;;;;;465.0
651.0;535.7;;;;;;;;;;;;;;;;;45.899837;6.4470353;8.125553;;474.6
651.0;535.7;;;;;;;;;;;;;;0.8440809;0.37812433;0.006164739;;;;;474.6
651.0;535.7;;;;;;;;;;;;;;;;;44.072544;7.3206277;8.835109;;474.6
651.0;535.7;;;;;;;;;;;;;;0.83388776;0.37086093;0.01330607;;;;;474.6
651.0;535.7;;;;;;;;;;;;;;;;;41.31443;7.351146;10.036775;;484.2
651.0;535.7;;;;;;;;;;;;;;0.82668537;0.36121708;0.008972442;;;;;484.2
651.0;535.7;;;;;;;;;;;;;;;;;38.480026;7.3397017;11.539811;;484.2
651.0;535.7;;;;;;;;;;;;;;0.81405073;0.34925383;0.0014648885;;;;;484.2
712.0;580.6;;;;;;;;;;;;;;;;;35.51973;7.5418863;12.916959;;493.9
712.0;580.6;;;;;;;;;;;;;;0.8033692;0.34321114;-0.005859554;;;;;493.9
712.0;580.6;;;;;;;;;;;;;;;;;32.0864;7.2634053;14.610737;;493.9
712.0;580.6;;;;;;;;;;;;;;0.79030734;0.33796197;-0.014893033;;;;;493.9
712.0;580.6;;;;;;;;;;;;;;;;;28.710287;6.8742943;16.52196;;503.5
712.0;580.6;;;;;;;;;;;;;;0.77590257;0.338023;-0.025940733;;;;;503.5
712.0;580.6;;;;;;;;;;;;;;;;;25.234991;5.664998;18.574327;;503.5
712.0;580.6;;;;;;;;;;;;;;0.75948364;0.33460495;-0.04242073;;;;;503.5
712.0;580.6;;;;;;;;;;;;;;;;;22.019106;3.8453321;21.141697;;513.1
712.0;580.6;;;;;;;;;;;;;;0.7541734;0.3202002;-0.050904874;;;;;513.1
712.0;580.6;;;;;;;;;;;;;;;;;19.016848;1.064333;23.05292;;513.1
712.0;580.6;;;;;;;;;;;;;;0.7450178;0.32166508;-0.06555376;;;;;513.1
712.0;595.6;;;;;;;;;;;;;;;;;16.39607;-1.4687033;25.16251;;522.8
712.0;595.6;;;;;;;;;;;;;;0.73757136;0.31800288;-0.07324442;;;;;522.8
712.0;595.6;;;;;;;;;;;;;;;;;14.236885;-3.688925;27.066103;;522.8
712.0;595.6;;;;;;;;;;;;;;0.72872096;0.313242;-0.067445904;;;;;522.8
712.0;595.6;;;;;;;;;;;;;;;;;12.874996;-5.6840725;28.53099;;532.5
712.0;595.6;;;;;;;;;;;;;;0.72652364;0.3134251;-0.06323435;;;;;532.5
712.0;595.6;;;;;;;;;;;;;;;;;12.493514;-7.5647755;29.957731;;532.5
712.0;595.6;;;;;;;;;;;;;;0.73146766;0.3068331;-0.05841243;;;;;532.5
712.0;595.6;;;;;;;;;;;;;;;;;12.779626;-9.235664;31.094545;;541.9
712.0;595.6;;;;;;;;;;;;;;0.73409224;0.30286568;-0.057679985;;;;;541.9
712.0;595.6;;;;;;;;;;;;;;;;;13.363293;-10.525071;31.872768;;541.9
712.0;595.6;;;;;;;;;;;;;;0.7415998;0.29999694;-0.055360578;;;;;541.9
771.0;640.8;;;;;;;;;;;;;;;;;14.179663;-11.730552;32.605213;;551.6
771.0;640.8;;;;;;;;;;;;;;0.75160986;0.2973113;-0.04834132;;;;;551.6
771.0;640.8;;;;;;;;;;;;;;;;;14.561144;-13.111515;32.853176;;551.6
771.0;640.8;;;;;;;;;;;;;;0.7615589;0.29902035;-0.04693747;;;;;551.6
771.0;640.8;;;;;;;;;;;;;;;;;15.186773;-14.324625;33.04392;;561.3
771.0;640.8;;;;;;;;;;;;;;0.76906645;0.2987762;-0.05053865;;;;;561.3
771.0;640.8;;;;;;;;;;;;;;;;;15.75518;-14.790033;33.10114;;561.3
771.0;640.8;;;;;;;;;;;;;;0.7737663;0.300119;-0.05487228;;;;;561.3
771.0;640.8;;;;;;;;;;;;;;;;;16.167181;-14.603107;32.837917;;570.9
771.0;640.8;;;;;;;;;;;;;;0.7704092;0.30231637;-0.051942505;;;;;570.9
771.0;640.8;;;;;;;;;;;;;;;;;16.544847;-14.7633295;32.506027;;570.9
771.0;640.8;;;;;;;;;;;;;;0.7674795;0.30085146;-0.052186653;;;;;570.9
771.0;656.2;;;;;;;;;;;;;;;;;17.143772;-14.767144;31.994843;;580.5
771.0;656.2;;;;;;;;;;;;;;0.7622913;0.30231637;-0.04834132;;;;;580.5
771.0;656.2;;;;;;;;;;;;;;;;;17.559587;-14.507736;31.357769;;580.5
771.0;656.2;;;;;;;;;;;;;;0.7539903;0.2964568;-0.04382458;;;;;580.5
771.0;656.2;;;;;;;;;;;;;;;;;18.11655;-14.351329;30.522324;;590.2
771.0;656.2;;;;;;;;;;;;;;0.75142676;0.2929777;-0.03723258;;;;;590.2
771.0;656.2;;;;;;;;;;;;;;;;;18.810846;-14.103366;29.629658;;590.2
771.0;656.2;;;;;;;;;;;;;;0.74599445;0.28296763;-0.02844325;;;;;590.2
771.0;656.2;;;;;;;;;;;;;;;;;19.56618;-14.446699;28.725548;;599.9
771.0;656.2;;;;;;;;;;;;;;0.75209814;0.28266242;-0.020569475;;;;;599.9
771.0;656.2;;;;;;;;;;;;;;;;;20.107882;-14.7633295;27.829065;;599.9
771.0;656.2;;;;;;;;;;;;;;0.75337994;0.2763146;-0.01391644;;;;;599.9
833.0;701.0;;;;;;;;;;;;;;;;;20.378735;-15.060884;26.829586;;609.3
833.0;701.0;;;;;;;;;;;;;;0.75966674;0.27759635;-0.00347911;;;;;609.3
833.0;701.0;;;;;;;;;;;;;;;;;20.607624;-15.530107;26.161993;;609.3
833.0;701.0;;;;;;;;;;;;;;0.7657094;0.27692497;0.0046388134;;;;;609.3
833.0;701.0;;;;;;;;;;;;;;;;;20.695364;-15.930662;25.227362;;618.9
833.0;701.0;;;;;;;;;;;;;;0.77175206;0.28516495;0.015015107;;;;;618.9
833.0;701.0;;;;;;;;;;;;;;;;;20.638142;-16.384624;24.578846;;618.9
833.0;701.0;;;;;;;;;;;;;;0.77248454;0.2924894;0.027588733;;;;;618.9
833.0;701.0;;;;;;;;;;;;;;;;;20.668661;-16.956846;23.97992;;628.6
833.0;701.0;;;;;;;;;;;;;;0.77803886;0.29963073;0.038575396;;;;;628.6
833.0;701.0;;;;;;;;;;;;;;;;;20.939512;-17.323069;23.67092;;628.6
833.0;701.0;;;;;;;;;;;;;;0.7843257;0.2999359;0.04382458;;;;;628.6
833.0;708.5;;;;;;;;;;;;;;;;;21.649069;-16.731773;23.075808;;638.3
833.0;708.5;;;;;;;;;;;;;;0.7906125;0.29700613;0.045777764;;;;;638.3
833.0;708.5;;;;;;;;;;;;;;;;;22.976622;-15.163884;22.156437;;638.3
833.0;708.5;;;;;;;;;;;;;;0.78707236;0.29804376;0.050904874;;;;;638.3
833.0;708.5;;;;;;;;;;;;;;;;;24.895473;-13.721885;21.057772;;647.9
833.0;708.5;;;;;;;;;;;;;;0.7920164;0.29377118;0.05139317;;;;;647.9
833.0;708.5;;;;;;;;;;;;;;;;;27.073734;-12.340922;19.688253;;647.9
833.0;708.5;;;;;;;;;;;;;;0.79781485;0.29987487;0.044618063;;;;;647.9
833.0;708.5;;;;;;;;;;;;;;;;;29.305399;-11.120181;18.498032;;657.6
833.0;708.5;;;;;;;;;;;;;;0.80288094;0.29902035;0.031617176;;;;;657.6
833.0;708.5;;;;;;;;;;;;;;;;;31.117435;-9.929959;17.452772;;657.6
833.0;708.5;;;;;;;;;;;;;;0.80617696;0.2973113;0.029236732;;;;;657.6
893.0;761.3;;;;;;;;;;;;;;;;;31.95288;-9.895626;16.582996;;667.2
893.0;761.3;;;;;;;;;;;;;;0.8080691;0.29358807;0.032593768;;;;;667.2
893.0;761.3;;;;;;;;;;;;;;;;;31.464584;-10.513627;15.781885;;667.2
893.0;761.3;;;;;;;;;;;;;;0.80794704;0.28815576;0.039002657;;;;;667.2
893.0;761.3;;;;;;;;;;;;;;;;;30.133213;-10.910368;14.854885;;676.7
893.0;761.3;;;;;;;;;;;;;;0.81228065;0.28699607;0.040833768;;;;;676.7
893.0;761.3;;;;;;;;;;;;;;;;;28.691214;-10.109256;13.935514;;676.7
893.0;761.3;;;;;;;;;;;;;;0.8098392;0.2863857;0.039857175;;;;;676.7
893.0;761.3;;;;;;;;;;;;;;;;;27.359844;-7.5914793;12.833034;;686.4
893.0;761.3;;;;;;;;;;;;;;0.7953734;0.285226;0.042786952;;;;;686.4
893.0;761.3;;;;;;;;;;;;;;;;;26.402327;-4.909665;11.608478;;686.4
893.0;761.3;;;;;;;;;;;;;;0.7794427;0.28662986;0.041322064;;;;;686.4
893.0;768.8;;;;;;;;;;;;;;;;;25.059511;-1.7166661;10.292367;;696.1
893.0;768.8;;;;;;;;;;;;;;0.75771356;0.28772852;0.041627247;;;;;696.1
893.0;768.8;;;;;;;;;;;;;;;;;23.651846;1.0681478;8.941923;;696.1
893.0;768.8;;;;;;;;;;;;;;0.73805964;0.2878506;0.0369274;;;;;696.1
893.0;768.8;;;;;;;;;;;;;;;;;22.278511;3.4333322;7.797479;;705.7
893.0;768.8;;;;;;;;;;;;;;0.7249977;0.2872402;0.03997925;;;;;705.7
893.0;768.8;;;;;;;;;;;;;;;;;20.901363;5.939665;6.920072;;705.7
893.0;768.8;;;;;;;;;;;;;;0.72109133;0.28351694;0.054139838;;;;;705.7
893.0;768.8;;;;;;;;;;;;;;;;;19.36018;8.228554;5.9511094;;715.3
893.0;768.8;;;;;;;;;;;;;;0.72359383;0.27344584;0.06946013;;;;;715.3
893.0;768.8;;;;;;;;;;;;;;;;;18.814661;10.399182;5.0393686;;715.3
893.0;768.8;;;;;;;;;;;;;;0.72890407;0.2658162;0.080446795;;;;;715.3
951.0;822.4;;;;;;;;;;;;;;;;;19.840845;11.474959;4.203925;;724.9
951.0;822.4;;;;;;;;;;;;;;0.74166083;0.2563555;0.07763909;;;;;724.9
951.0;822.4;;;;;;;;;;;;;;;;;22.526474;11.940367;3.4257026;;724.9
951.0;822.4;;;;;;;;;;;;;;0.75051117;0.2519608;0.07562487;;;;;724.9
951.0;822.4;;;;;;;;;;;;;;;;;25.776695;11.509293;2.7581105;;734.6
951.0;822.4;;;;;;;;;;;;;;0.77242345;0.25244913;0.06451613;;;;;734.6
951.0;822.4;;;;;;;;;;;;;;;;;29.133732;11.852626;2.5406659;;734.6
951.0;822.4;;;;;;;;;;;;;;0.7968383;0.25800347;0.06122013;;;;;734.6
951.0;822.4;;;;;;;;;;;;;;;;;31.144138;14.183477;2.8649251;;743.9
951.0;822.4;;;;;;;;;;;;;;0.81313515;0.25873592;0.0827662;;;;;743.9
951.0;822.4;;;;;;;;;;;;;;;;;31.85751;16.563921;3.4485915;;743.9
951.0;822.4;;;;;;;;;;;;;;0.8099002;0.26197088;0.12591937;;;;;743.9
951.0;829.1;;;;;;;;;;;;;;;;;32.6014;15.4194765;4.291665;;753.6
951.0;829.1;;;;;;;;;;;;;;0.8059328;0.26966155;0.15381329;;;;;753.6
951.0;829.1;;;;;;;;;;;;;;;;;32.826473;12.0548115;5.4704432;;753.6
951.0;829.1;;;;;;;;;;;;;;0.81820124;0.28595844;0.15576647;;;;;753.6
951.0;829.1;;;;;;;;;;;;;;;;;32.788326;10.925627;6.977294;;763.3
951.0;829.1;;;;;;;;;;;;;;0.8280282;0.2987762;0.14612262;;;;;763.3
951.0;829.1;;;;;;;;;;;;;;;;;33.413956;12.504959;8.327739;;763.3
951.0;829.1;;;;;;;;;;;;;;0.82528156;0.30341503;0.13434248;;;;;763.3
951.0;829.1;;;;;;;;;;;;;;;;;35.775322;15.751366;9.674368;;773.0
951.0;829.1;;;;;;;;;;;;;;0.80886257;0.3192236;0.11566515;;;;;773.0
951.0;829.1;;;;;;;;;;;;;;;;;39.12091;18.35307;11.520738;;773.0
951.0;829.1;;;;;;;;;;;;;;0.77999204;0.33491012;0.102053896;;;;;773.0
1029.0;881.9;;;;;;;;;;;;;;;;;40.83758;20.115513;13.500626;;782.6
1029.0;881.9;;;;;;;;;;;;;;0.7543565;0.34192938;0.10113834;;;;;782.6
1029.0;881.9;;;;;;;;;;;;;;;;;42.638172;20.49318;15.526292;;782.6
1029.0;881.9;;;;;;;;;;;;;;0.72273934;0.34076968;0.09820856;;;;;782.6
1029.0;881.9;;;;;;;;;;;;;;;;;45.098724;16.991179;17.899105;;792.2
1029.0;881.9;;;;;;;;;;;;;;0.695822;0.34632406;0.06701865;;;;;792.2
1029.0;881.9;;;;;;;;;;;;;;;;;47.574543;13.386182;20.519882;;792.2
1029.0;881.9;;;;;;;;;;;;;;0.6847133;0.35175633;0.03869747;;;;;792.2
1029.0;881.9;;;;;;;;;;;;;;;;;50.2678;14.725182;23.880733;;801.8
1029.0;881.9;;;;;;;;;;;;;;0.6779992;0.3401593;0.04712058;;;;;801.8
1029.0;881.9;;;;;;;;;;;;;;;;;52.8428;15.530107;27.592546;;801.8
1029.0;881.9;;;;;;;;;;;;;;0.6783654;0.31867427;0.06457717;;;;;801.8
1029.0;889.3;;;;;;;;;;;;;;;;;55.188908;10.395368;31.346325;;811.4
1029.0;889.3;;;;;;;;;;;;;;0.7392193;0.29853207;0.03521836;;;;;811.4
1029.0;889.3;;;;;;;;;;;;;;;;;54.074986;10.040589;34.79873;;811.4
1029.0;889.3;;;;;;;;;;;;;;0.82778406;0.296762;0.042909026;;;;;811.4
1029.0;889.3;;;;;;;;;;;;;;;;;50.48143;14.408551;36.45436;;821.1
1029.0;889.3;;;;;;;;;;;;;;0.92196417;0.32636493;0.0712302;;;;;821.1
1029.0;889.3;;;;;;;;;;;;;;;;;46.964172;22.503586;38.0871;;821.1
1029.0;889.3;;;;;;;;;;;;;;0.9955138;0.34131902;0.10864589;;;;;821.1
1029.0;889.3;;;;;;;;;;;;;;;;;46.563614;30.728323;39.002655;;830.7
1029.0;889.3;;;;;;;;;;;;;;1.0445265;0.32917264;0.12854396;;;;;830.7
1029.0;889.3;;;;;;;;;;;;;;;;;51.957764;29.274881;36.793877;;830.7
1029.0;889.3;;;;;;;;;;;;;;1.0942717;0.3178808;0.054933317;;;;;830.7
1069.0;942.9;;;;;;;;;;;;;;;;;61.61687;21.660513;32.46025;;840.4
1069.0;942.9;;;;;;;;;;;;;;1.183874;0.33893856;-0.08294931;;;;;840.4
1069.0;942.9;;;;;;;;;;;;;;;;;70.94791;16.762293;25.646992;;840.4
1069.0;942.9;;;;;;;;;;;;;;1.2376477;0.34498122;-0.17694631;;;;;840.4
1069.0;942.9;;;;;;;;;;;;;;;;;83.25068;-5.1347394;19.688253;;850.0
1069.0;942.9;;;;;;;;;;;;;;1.1174657;0.27619252;-0.22150335;;;;;850.0
1069.0;942.9;;;;;;;;;;;;;;;;;90.31571;-60.04135;14.931181;;850.0
1069.0;942.9;;;;;;;;;;;;;;1.2314829;0.26789147;-0.41450238;;;;;850.0
1069.0;942.9;;;;;;;;;;;;;;;;;80.48494;-93.28364;15.434736;;859.6
1069.0;942.9;;;;;;;;;;;;;;1.539964;0.12543108;-0.666097;;;;;859.6
1069.0;942.9;;;;;;;;;;;;;;;;;66.63717;-61.53676;17.15903;;859.6
1069.0;942.9;;;;;;;;;;;;;;1.7404096;-0.015930662;-0.39228493;;;;;859.6
1069.0;943.6;;;;;;;;;;;;;;;;;45.25132;-13.477737;23.66329;;869.3
1069.0;943.6;;;;;;;;;;;;;;1.7927793;-0.23938718;0.16309091;;;;;869.3
1069.0;943.6;;;;;;;;;;;;;;;;;31.9071;-23.97229;24.216438;;869.3
1069.0;943.6;;;;;;;;;;;;;;1.7419965;-0.39533678;0.42640463;;;;;869.3
1069.0;943.6;;;;;;;;;;;;;;;;;17.845697;-62.582016;5.6993318;;878.9
1069.0;943.6;;;;;;;;;;;;;;1.4924772;-0.29016998;0.07446516;;;;;878.9
1069.0;943.6;;;;;;;;;;;;;;;;;16.579182;-81.59123;2.845851;;878.9
1069.0;943.6;;;;;;;;;;;;;;1.4128239;-0.1937315;-0.2620319;;;;;878.9
1069.0;943.6;;;;;;;;;;;;;;;;;-4.1505175;-55.10498;6.2334056;;888.6
1069.0;943.6;;;;;;;;;;;;;;1.5337993;-0.21857357;-0.37598804;;;;;888.6
1069.0;943.6;;;;;;;;;;;;;;;;;-32.509842;29.274881;-1.903592;;888.6
1069.0;943.6;;;;;;;;;;;;;;1.2859279;-0.17664114;0.115421005;;;;;888.6
1132.0;1003.2;;;;;;;;;;;;;;;;;-27.52388;56.95517;-15.934477;;898.2
1132.0;1003.2;;;;;;;;;;;;;;0.83175147;-0.10119938;0.53926206;;;;;898.2
1132.0;1003.2;;;;;;;;;;;;;;;;;23.453474;-24.277475;-35.065765;;898.2
1132.0;1003.2;;;;;;;;;;;;;;0.7058931;0.15063937;0.14471877;;;;;898.2
1132.0;1003.2;;;;;;;;;;;;;;;;;80.39338;-109.50423;-50.527206;;907.7
1132.0;1003.2;;;;;;;;;;;;;;0.87112033;0.36945707;-0.6256294;;;;;907.7
1132.0;1003.2;;;;;;;;;;;;;;;;;119.628746;-113.50978;-58.58791;;907.7
1132.0;1003.2;;;;;;;;;;;;;;0.9053621;0.51222265;-0.873867;;;;;907.7
1132.0;1003.2;;;;;;;;;;;;;;;;;113.65093;-54.23139;-62.364574;;917.2
1132.0;1003.2;;;;;;;;;;;;;;0.7763298;0.5921201;-0.51136816;;;;;917.2
1132.0;1003.2;;;;;;;;;;;;;;;;;60.193943;2.990814;-51.778465;;917.2
1132.0;1003.2;;;;;;;;;;;;;;0.69966733;0.57686085;0.025818659;;;;;917.2
1132.0;1004.1;;;;;;;;;;;;;;;;;18.635365;4.688406;-30.404064;;926.9
1132.0;1004.1;;;;;;;;;;;;;;0.8235115;0.4095584;0.20007935;;;;;926.9
1132.0;1004.1;;;;;;;;;;;;;;;;;15.2096615;-14.515367;-23.960846;;926.9
1132.0;1004.1;;;;;;;;;;;;;;1.0728477;0.336375;-0.03540147;;;;;926.9
1132.0;1004.1;;;;;;;;;;;;;;;;;15.480514;-9.147923;-22.114475;;936.5
1132.0;1004.1;;;;;;;;;;;;;;1.2999054;0.24536882;-0.25238806;;;;;936.5
1132.0;1004.1;;;;;;;;;;;;;;;;;7.232887;19.886623;-15.640736;;936.5
1132.0;1004.1;;;;;;;;;;;;;;1.4778893;0.114200264;-0.1601001;;;;;936.5
1132.0;1004.1;;;;;;;;;;;;;;;;;-5.787072;44.175545;-16.80044;;946.1
1132.0;1004.1;;;;;;;;;;;;;;1.788873;-6.714072E-4;-0.012207404;;;;;946.1
1132.0;1004.1;;;;;;;;;;;;;;;;;6.550035;59.27458;-14.614552;;946.1
1132.0;1004.1;;;;;;;;;;;;;;1.9951171;-0.14575641;0.16528825;;;;;946.1
1189.0;1062.8;;;;;;;;;;;;;;;;;39.68169;38.239693;-28.351696;;955.7
1189.0;1062.8;;;;;;;;;;;;;;1.9970702;0.010071108;0.16205329;;;;;955.7
1189.0;1062.8;;;;;;;;;;;;;;;;;54.32295;0.62944424;-59.083836;;955.7
1189.0;1062.8;;;;;;;;;;;;;;1.7697073;0.4080935;-0.34357738;;;;;955.7
1189.0;1062.8;;;;;;;;;;;;;;;;;44.85076;-0.8507035;-89.35056;;965.2
1189.0;1062.8;;;;;;;;;;;;;;1.4983978;0.76198614;-0.47425765;;;;;965.2
1189.0;1062.8;;;;;;;;;;;;;;;;;1.2817774;12.562181;-111.42307;;965.2
1189.0;1062.8;;;;;;;;;;;;;;1.4152653;1.0632038;-0.5515915;;;;;965.2
1189.0;1062.8;;;;;;;;;;;;;;;;;-21.702477;32.57851;-104.98367;;974.9
1189.0;1062.8;;;;;;;;;;;;;;1.2881863;1.1840571;-0.5235145;;;;;974.9
1189.0;1062.8;;;;;;;;;;;;;;;;;-16.041292;29.381695;-62.768944;;974.9
1189.0;1062.8;;;;;;;;;;;;;;1.1758171;0.68727684;-0.47907957;;;;;974.9
1189.0;1064.0;;;;;;;;;;;;;;;;;-9.800256;18.890959;-36.557358;;984.4
1189.0;1064.0;;;;;;;;;;;;;;1.1817378;0.119876705;-0.4242683;;;;;984.4
1189.0;1064.0;;;;;;;;;;;;;;;;;-1.1329997;16.312143;-25.841547;;984.4
1189.0;1064.0;;;;;;;;;;;;;;1.1207007;-0.103946045;-0.275338;;;;;984.4
1189.0;1064.0;;;;;;;;;;;;;;;;;7.087924;16.525774;9.0983305;;994.1
1189.0;1064.0;;;;;;;;;;;;;;0.97128206;-0.37983337;-0.13690603;;;;;994.1
1189.0;1064.0;;;;;;;;;;;;;;;;;27.191994;4.2458873;36.13773;;994.1
1189.0;1064.0;;;;;;;;;;;;;;0.85677665;-0.6065249;-0.10809656;;;;;994.1
1189.0;1064.0;;;;;;;;;;;;;;;;;43.53084;-22.1984;43.519398;;1003.7
1189.0;1064.0;;;;;;;;;;;;;;0.74489576;-0.7112644;-0.2235786;;;;;1003.7
1189.0;1064.0;;;;;;;;;;;;;;;;;49.947353;-50.83239;36.75573;;1003.7
1189.0;1064.0;;;;;;;;;;;;;;0.66817224;-0.7557604;-0.46388134;;;;;1003.7
1190.0;1122.9;;;;;;;;;;;;;;;;;43.469803;-56.56987;13.069551;;1013.4
1190.0;1122.9;;;;;;;;;;;;;;0.59169286;-0.64461195;-0.6012757;;;;;1013.4
1190.0;1122.9;;;;;;;;;;;;;;;;;19.054995;-44.7058;-9.617146;;1013.4
1190.0;1122.9;;;;;;;;;;;;;;0.67397076;-0.17615284;-0.6623737;;;;;1013.4
1190.0;1122.9;;;;;;;;;;;;;;;;;-5.11948;-19.486069;-3.3265176;;1022.9
1190.0;1122.9;;;;;;;;;;;;;;0.74703205;0.02148503;-0.6533403;;;;;1022.9
1190.0;1122.9;;;;;;;;;;;;;;;;;-5.42848;6.7903686;7.9195538;;1022.9
1190.0;1122.9;;;;;;;;;;;;;;0.82668537;0.099612415;-0.39399394;;;;;1022.9
1190.0;1122.9;;;;;;;;;;;;;;;;;-3.2464066;7.965331;16.727959;;1032.6
1190.0;1122.9;;;;;;;;;;;;;;0.92410046;0.10376293;-0.24732201;;;;;1032.6
1190.0;1122.9;;;;;;;;;;;;;;;;;5.0889616;-10.536515;18.066957;;1032.6
1190.0;1122.9;;;;;;;;;;;;;;1.0696738;0.13885921;-0.2669759;;;;;1032.6
1191.0;1123.8;;;;;;;;;;;;;;;;;15.068514;-29.614399;14.618366;;1042.3
1191.0;1123.8;;;;;;;;;;;;;;1.2121952;0.21893978;-0.3263039;;;;;1042.3
1191.0;1123.8;;;;;;;;;;;;;;;;;17.445143;-39.204838;11.860256;;1042.3
1191.0;1123.8;;;;;;;;;;;;;;1.2917265;0.3112888;-0.3704947;;;;;1042.3
1191.0;1123.8;;;;;;;;;;;;;;;;;15.171514;-43.202766;9.792626;;1051.9
1191.0;1123.8;;;;;;;;;;;;;;1.2975249;0.42152166;-0.36927396;;;;;1051.9
1191.0;1123.8;;;;;;;;;;;;;;;;;12.49733;-47.62795;9.857478;;1051.9
1191.0;1123.8;;;;;;;;;;;;;;1.2343516;0.49043244;-0.37269205;;;;;1051.9
1191.0;1123.8;;;;;;;;;;;;;;;;;7.915738;-48.669395;9.765923;;1061.6
1191.0;1123.8;;;;;;;;;;;;;;1.1721549;0.5364544;-0.35914183;;;;;1061.6
1191.0;1123.8;;;;;;;;;;;;;;;;;-1.1520737;-44.892727;13.3785515;;1061.6
1191.0;1123.8;;;;;;;;;;;;;;1.1438948;0.5988342;-0.36048463;;;;;1061.6
1191.0;1127.9;;;;0.0;0.0;0.0;;;;;;;;;;;;;;;
1191.0;1127.9;;;;-0.31045535;0.030975346;-0.08909989;;;;;;;;;;;;;;;
1191.0;1127.9;;;;-0.9262506;0.04979325;-0.3283768;;;;;;;;;;;;;;;
1191.0;1127.9;;;;-0.94617856;0.043910984;-0.34415057;;;;;;;;;;;;;;;
1191.0;1127.9;;;;-0.94456494;0.040874485;-0.3429642;;;;;;;;;;;;;;;
1191.0;1137.8;;;;-0.9424974;0.038383488;-0.3422356;;;;;;;;;;;;;;;
1191.0;1137.8;;;;-0.9405023;0.03609467;-0.34157565;;;;;;;;;;;;;;;
1191.0;1137.8;;;;-0.93857205;0.034149174;-0.34077075;;;;;;;;;;;;;;;
1191.0;1137.8;;;;-0.9357492;0.032588962;-0.33942798;;;;;;;;;;;;;;;
1191.0;1137.8;;;;-0.9326974;0.03117371;-0.33787158;;;;;;;;;;;;;;;
1251.0;1139.0;57500;57518;11711;;;;;;;;;;;;;;;;;;
1251.0;1147.8;;;;-0.9291421;0.029769901;-0.33592227;;;;;;;;;;;;;;;
1251.0;1147.8;;;;-0.9249269;0.028945927;-0.33443072;;;;;;;;;;;;;;;
1251.0;1147.8;;;;-0.9207727;0.027782444;-0.33337024;;;;;;;;;;;;;;;
1251.0;1147.8;;;;-0.9158975;0.027053837;-0.33057025;;;;;;;;;;;;;;;
1251.0;1147.8;;;;-0.91139233;0.026233677;-0.32778552;;;;;;;;;;;;;;;
1251.0;1157.9;;;;-0.90615094;0.025959019;-0.32602313;;;;;;;;;;;;;;;
1251.0;1157.9;;;;-0.9016;0.025833134;-0.3241959;;;;;;;;;;;;;;;
1251.0;1157.9;;;;-0.8970033;0.026283268;-0.3223839;;;;;;;;;;;;;;;
1251.0;1157.9;;;;-0.8923112;0.026573185;-0.32155612;;;;;;;;;;;;;;;
1251.0;1157.9;;;;-0.88748944;0.026466373;-0.32052615;;;;;;;;;;;;;;;
1251.0;1159.1;73890;73906;11679;;;;;;;;;;;;;;;;;;
1251.0;1165.5;;;;;;;;;;;;;0;;;;;;;;
1251.0;1165.5;;;;;;;;;;;;;0;;;;;;;;
1251.0;1165.5;;;;;;;;;;;;;-1;;;;;;;;
1251.0;1165.5;;;;;;;;;;;;;-2;;;;;;;;
1251.0;1165.5;;;;;;;;;;;;;-3;;;;;;;;
1251.0;1168.0;;;;-0.882023;0.026451115;-0.3179398;;;;;;;;;;;;;;;
1251.0;1168.0;;;;-0.8751985;0.02637482;-0.3160744;;;;;;;;;;;;;;;
1251.0;1168.0;;;;-0.8678552;0.026367191;-0.31493762;;;;;;;;;;;;;;;
1251.0;1168.0;;;;-0.86016095;0.026409153;-0.3130913;;;;;;;;;;;;;;;
1251.0;1168.0;;;;-0.8535005;0.026752476;-0.3112221;;;;;;;;;;;;;;;
1253.0;1178.1;;;;-0.8474275;0.026592258;-0.30887607;;;;;;;;;;;;;;;
1253.0;1178.1;;;;-0.8409349;0.026542667;-0.30542377;;;;;;;;;;;;;;;
1253.0;1178.1;;;;-0.83449566;0.026714329;-0.30280688;;;;;;;;;;;;;;;
1253.0;1178.1;;;;-0.8270112;0.026538853;-0.299408;;;;;;;;;;;;;;;
1253.0;1178.1;;;;-0.81966794;0.026145939;-0.29594043;;;;;;;;;;;;;;;
1253.0;1179.4;90285;90311;11673;;;;;;;;;;;;;;;;;;
1253.0;1183.2;;;;;;;;;;;;;;;;;-11.474959;-35.592213;25.997955;;1071.2
1253.0;1183.2;;;;;;;;;;;;;;1.11301;0.5645924;-0.33985412;;;;;1071.2
1253.0;1183.2;;;;;;;;;;;;;;;;;-18.52092;-26.00177;35.85162;;1071.2
1253.0;1183.2;;;;;;;;;;;;;;1.1279031;0.43928343;-0.2705771;;;;;1071.2
1253.0;1183.2;;;;;;;;;;;;;;;;;-24.620808;-20.668661;34.646137;;1080.8
1253.0;1183.2;;;;;;;;;;;;;;1.1515244;0.4540544;-0.22577593;;;;;1080.8
1253.0;1183.2;;;;;;;;;;;;;;;;;-29.60677;-19.215218;33.162178;;1080.8
1253.0;1183.2;;;;;;;;;;;;;;1.1587268;0.48927274;-0.23450422;;;;;1080.8
1253.0;1183.2;;;;;;;;;;;;;;;;;-34.23032;-16.258736;33.13547;;1090.2
1253.0;1183.2;;;;;;;;;;;;;;1.1759392;0.49171424;-0.24127933;;;;;1090.2
1253.0;1183.2;;;;;;;;;;;;;;;;;-40.57054;-10.303812;32.03299;;1090.2
1253.0;1183.2;;;;;;;;;;;;;;1.1531724;0.47401348;-0.21637623;;;;;1090.2
1254.0;1184.4;;;;;;;;;;;;;;;;;-46.36906;-6.679739;30.098879;;1099.9
1254.0;1184.4;;;;;;;;;;;;;;1.1061739;0.45631275;-0.1911069;;;;;1099.9
1254.0;1184.4;;;;;;;;;;;;;;;;;-50.50432;-5.4818873;28.836176;;1099.9
1254.0;1184.4;;;;;;;;;;;;;;1.0483108;0.41334268;-0.16870633;;;;;1099.9
1254.0;1184.4;;;;;;;;;;;;;;;;;-53.014465;-5.4361095;28.092287;;1109.6
1254.0;1184.4;;;;;;;;;;;;;;0.9895932;0.34968108;-0.12915434;;;;;1109.6
1254.0;1184.4;;;;;;;;;;;;;;;;;-54.76165;-5.4628134;27.588732;;1109.6
1254.0;1184.4;;;;;;;;;;;;;;0.9405805;0.27161473;-0.07361065;;;;;1109.6
1254.0;1184.4;;;;;;;;;;;;;;;;;-53.861355;-4.127629;27.466658;;1119.3
1254.0;1184.4;;;;;;;;;;;;;;0.8895535;0.18817712;7.324442E-4;;;;;1119.3
1254.0;1184.4;;;;;;;;;;;;;;;;;-50.847652;-3.8262582;27.314068;;1119.3
1254.0;1184.4;;;;;;;;;;;;;;0.8278451;0.1060213;0.049806207;;;;;1119.3
1254.0;1188.0;;;;-0.8116647;0.025859836;-0.2920151;;;;;;;;;;;;;;;
1254.0;1188.0;;;;-0.8036195;0.025608066;-0.28769305;;;;;;;;;;;;;;;
1254.0;1188.0;;;;-0.79600155;0.024848942;-0.28322986;;;;;;;;;;;;;;;
1254.0;1188.0;;;;-0.7882005;0.024177555;-0.27943805;;;;;;;;;;;;;;;
1254.0;1188.0;;;;-0.78003705;0.023185732;-0.27510074;;;;;;;;;;;;;;;
1254.0;1198.0;;;;-0.7720376;0.022605898;-0.27092746;;;;;;;;;;;;;;;
1254.0;1198.0;;;;-0.7635957;0.021232607;-0.26659778;;;;;;;;;;;;;;;
1254.0;1198.0;;;;-0.7558023;0.02013016;-0.26214984;;;;;;;;;;;;;;;
1254.0;1198.0;;;;-0.74786764;0.01885605;-0.25761417;;;;;;;;;;;;;;;
1254.0;1198.0;;;;-0.7407952;0.017124178;-0.2533379;;;;;;;;;;;;;;;
1254.0;1199.4;106632;106592;11658;;;;;;;;;;;;;;;;;;
1312.0;1205.6;;;;;;;;;;;;;-9;;;;;;;;
1312.0;1205.6;;;;;;;;;;;;;-4;;;;;;;;
1312.0;1205.6;;;;;;;;;;;;;-4;;;;;;;;
1312.0;1205.6;;;;;;;;;;;;;-27;;;;;;;;
1312.0;1205.6;;;;;;;;;;;;;-10;;;;;;;;
1312.0;1208.0;;;;-0.7343598;0.015678408;-0.24950793;;;;;;;;;;;;;;;
1312.0;1208.0;;;;-0.7278138;0.014343264;-0.24589542;;;;;;;;;;;;;;;
1312.0;1208.0;;;;-0.72215277;0.012226107;-0.24238208;;;;;;;;;;;;;;;
1312.0;1208.0;;;;-0.7164689;0.010219575;-0.2392464;;;;;;;;;;;;;;;
1312.0;1208.0;;;;-0.710949;0.0077781687;-0.23612216;;;;;;;;;;;;;;;
1312.0;1218.1;;;;-0.70574194;0.0049400334;-0.23246005;;;;;;;;;;;;;;;
1312.0;1218.1;;;;-0.70115286;0.0019378664;-0.22937396;;;;;;;;;;;;;;;
1312.0;1218.1;;;;-0.69611746;-9.994508E-4;-0.22641757;;;;;;;;;;;;;;;
1312.0;1218.1;;;;-0.6914101;-0.0043487553;-0.22343066;;;;;;;;;;;;;;;
1312.0;1218.1;;;;-0.6869355;-0.0073394785;-0.22106174;;;;;;;;;;;;;;;
1312.0;1219.5;122977;122978;11658;;;;;;;;;;;;;;;;;;
1312.0;1228.2;;;;-0.68300635;-0.010688783;-0.2190018;;;;;;;;;;;;;;;
1312.0;1228.2;;;;-0.67937857;-0.013557436;-0.2172356;;;;;;;;;;;;;;;
1312.0;1228.2;;;;-0.6761437;-0.016754152;-0.21586993;;;;;;;;;;;;;;;
1312.0;1228.2;;;;-0.67332464;-0.020141603;-0.21435168;;;;;;;;;;;;;;;
1312.0;1228.2;;;;-0.66961676;-0.023414614;-0.21297076;;;;;;;;;;;;;;;
1313.0;1238.3;;;;-0.6675034;-0.026451115;-0.21181491;;;;;;;;;;;;;;;
1313.0;1238.3;;;;-0.66524893;-0.029754642;-0.21059802;;;;;;;;;;;;;;;
1313.0;1238.3;;;;-0.6633797;-0.032608036;-0.20971301;;;;;;;;;;;;;;;
1313.0;1238.3;;;;-0.6611977;-0.03530884;-0.20841601;;;;;;;;;;;;;;;
1313.0;1238.3;;;;-0.6594086;-0.038162235;-0.20825961;;;;;;;;;;;;;;;
1313.0;1239.7;139477;139413;11658;;;;;;;;;;;;;;;;;;
1313.0;1243.5;;;;;;;;;;;;;;;;;-45.091095;-7.316813;26.932585;;1128.9
1313.0;1243.5;;;;;;;;;;;;;;0.7849361;0.042542804;0.053529467;;;;;1128.9
1313.0;1243.5;;;;;;;;;;;;;;;;;-38.453323;-10.696738;27.466658;;1128.9
1313.0;1243.5;;;;;;;;;;;;;;0.7594226;0.0038453322;0.034302805;;;;;1128.9
1313.0;1243.5;;;;;;;;;;;;;;;;;-31.63625;-10.986664;29.763178;;1138.5
1313.0;1243.5;;;;;;;;;;;;;;0.72505873;-0.035157323;0.033082064;;;;;1138.5
1313.0;1243.5;;;;;;;;;;;;;;;;;-24.018068;-10.750145;32.78451;;1138.5
1313.0;1243.5;;;;;;;;;;;;;;0.68190557;-0.07678457;0.0380871;;;;;1138.5
1313.0;1243.5;;;;;;;;;;;;;;;;;-16.979734;-10.921812;33.555103;;1147.9
1313.0;1243.5;;;;;;;;;;;;;;0.66188544;-0.10455641;0.04016236;;;;;1147.9
1313.0;1243.5;;;;;;;;;;;;;;;;;-9.563738;-11.192663;31.30436;;1147.9
1313.0;1243.5;;;;;;;;;;;;;;0.6522416;-0.1119419;0.037354656;;;;;1147.9
1315.0;1244.3;;;;;;;;;;;;;;;;;-0.7209998;-13.988921;28.511917;;1157.6
1315.0;1244.3;;;;;;;;;;;;;;0.6544389;-0.08203375;0.019837031;;;;;1157.6
1315.0;1244.3;;;;;;;;;;;;;;;;;8.018739;-19.215218;27.306437;;1157.6
1315.0;1244.3;;;;;;;;;;;;;;0.65468305;-0.051637318;-0.0076296274;;;;;1157.6
1315.0;1244.3;;;;;;;;;;;;;;;;;15.060884;-26.2154;26.440474;;1167.3
1315.0;1244.3;;;;;;;;;;;;;;0.6613361;-0.0045167394;-0.05450606;;;;;1167.3
1315.0;1244.3;;;;;;;;;;;;;;;;;19.85229;-32.265694;25.833918;;1167.3
1315.0;1244.3;;;;;;;;;;;;;;0.68184453;0.055177465;-0.09979553;;;;;1167.3
1315.0;1244.3;;;;;;;;;;;;;;;;;21.64144;-34.146397;25.109102;;1176.8
1315.0;1244.3;;;;;;;;;;;;;;0.6964324;0.11328471;-0.12988678;;;;;1176.8
1315.0;1244.3;;;;;;;;;;;;;;;;;21.736809;-32.07877;23.480179;;1176.8
1315.0;1244.3;;;;;;;;;;;;;;0.70564896;0.1744438;-0.13245033;;;;;1176.8
1315.0;1246.0;;;;;;;;;;;;;-54;;;;;;;;
1315.0;1246.0;;;;;;;;;;;;;-41;;;;;;;;
1315.0;1246.0;;;;;;;;;;;;;11;;;;;;;;
1315.0;1246.0;;;;;;;;;;;;;-239;;;;;;;;
1315.0;1246.0;;;;;;;;;;;;;77;;;;;;;;
1315.0;1248.2;;;;-0.6576844;-0.040531162;-0.20824435;;;;;;;;;;;;;;;
1315.0;1248.2;;;;-0.65658957;-0.042716984;-0.20799258;;;;;;;;;;;;;;;
1315.0;1248.2;;;;-0.6558915;-0.04496384;-0.20767596;;;;;;;;;;;;;;;
1315.0;1248.2;;;;-0.6550866;-0.04634476;-0.20712283;;;;;;;;;;;;;;;
1315.0;1248.2;;;;-0.65485007;-0.048267372;-0.2071915;;;;;;;;;;;;;;;
1372.0;1258.2;;;;-0.65487295;-0.049472816;-0.20775607;;;;;;;;;;;;;;;
1372.0;1258.2;;;;-0.65570456;-0.05069352;-0.20852283;;;;;;;;;;;;;;;
1372.0;1258.2;;;;-0.6563569;-0.05080796;-0.20993045;;;;;;;;;;;;;;;
1372.0;1258.2;;;;-0.6573029;-0.051136024;-0.21189502;;;;;;;;;;;;;;;
1372.0;1258.2;;;;-0.6589127;-0.051681526;-0.2141228;;;;;;;;;;;;;;;
1372.0;1259.7;155837;155745;11653;;;;;;;;;;;;;;;;;;
1372.0;1268.2;;;;-0.6602097;-0.052028663;-0.21535876;;;;;;;;;;;;;;;
1372.0;1268.2;;;;-0.6610947;-0.05106736;-0.21730426;;;;;;;;;;;;;;;
1372.0;1268.2;;;;-0.661316;-0.05087281;-0.2194176;;;;;;;;;;;;;;;
1372.0;1268.2;;;;-0.66127783;-0.050968178;-0.22165683;;;;;;;;;;;;;;;
1372.0;1268.2;;;;-0.6608048;-0.05075837;-0.22372821;;;;;;;;;;;;;;;
1372.0;1278.2;;;;-0.66013724;-0.050651558;-0.22520068;;;;;;;;;;;;;;;
1372.0;1278.2;;;;-0.659874;-0.05083085;-0.22692111;;;;;;;;;;;;;;;
1372.0;1278.2;;;;-0.65988547;-0.050529487;-0.22943881;;;;;;;;;;;;;;;
1372.0;1278.2;;;;-0.66039664;-0.050754555;-0.23147205;;;;;;;;;;;;;;;
1372.0;1278.2;;;;-0.66159064;-0.051921852;-0.23380283;;;;;;;;;;;;;;;
1372.0;1279.7;172085;172098;11667;;;;;;;;;;;;;;;;;;
1372.0;1286.1;;;;;;;;;;;;;657;;;;;;;;
1372.0;1286.1;;;;;;;;;;;;;-331;;;;;;;;
1372.0;1286.1;;;;;;;;;;;;;-1461;;;;;;;;
1372.0;1286.1;;;;;;;;;;;;;961;;;;;;;;
1372.0;1286.1;;;;;;;;;;;;;7730;;;;;;;;
1373.0;1288.3;;;;-0.663559;-0.052307136;-0.23623279;;;;;;;;;;;;;;;
1373.0;1288.3;;;;-0.6655846;-0.05290986;-0.23860934;;;;;;;;;;;;;;;
1373.0;1288.3;;;;-0.668541;-0.053775795;-0.24214938;;;;;;;;;;;;;;;
1373.0;1288.3;;;;-0.67216116;-0.05419541;-0.24573901;;;;;;;;;;;;;;;
1373.0;1288.3;;;;-0.6756936;-0.054084785;-0.24933627;;;;;;;;;;;;;;;
1373.0;1298.4;;;;-0.67963034;-0.05442048;-0.25246814;;;;;;;;;;;;;;;
1373.0;1298.4;;;;-0.68334204;-0.054450996;-0.25532535;;;;;;;;;;;;;;;
1373.0;1298.4;;;;-0.6865731;-0.05420304;-0.2586098;;;;;;;;;;;;;;;
1373.0;1298.4;;;;-0.68936926;-0.053241737;-0.260994;;;;;;;;;;;;;;;
1373.0;1298.4;;;;-0.6909829;-0.052597053;-0.26392367;;;;;;;;;;;;;;;
1373.0;1300.0;188555;188546;11660;;;;;;;;;;;;;;;;;;
1373.0;1303.6;;;;;;;;;;;;;;;;;19.52803;-28.389843;21.259956;;1186.4
1373.0;1303.6;;;;;;;;;;;;;;0.71340066;0.2395703;-0.12005982;;;;;1186.4
1373.0;1303.6;;;;;;;;;;;;;;;;;14.065218;-23.411512;18.13181;;1186.4
1373.0;1303.6;;;;;;;;;;;;;;0.71681875;0.30426955;-0.10510575;;;;;1186.4
1373.0;1303.6;;;;;;;;;;;;;;;;;8.037812;-19.306772;14.732811;;1196.1
1373.0;1303.6;;;;;;;;;;;;;;0.7168798;0.3546861;-0.09656057;;;;;1196.1
1373.0;1303.6;;;;;;;;;;;;;;;;;2.845851;-15.659811;10.048219;;1196.1
1373.0;1303.6;;;;;;;;;;;;;;0.73146766;0.4102298;-0.09418012;;;;;1196.1
1373.0;1303.6;;;;;;;;;;;;;;;;;0.8659627;-11.837367;6.145665;;1205.7
1373.0;1303.6;;;;;;;;;;;;;;0.74654377;0.46455276;-0.09241005;;;;;1205.7
1373.0;1303.6;;;;;;;;;;;;;;;;;0.76296276;-8.136998;2.6055179;;1205.7
1373.0;1303.6;;;;;;;;;;;;;;0.7545396;0.49269083;-0.09228797;;;;;1205.7
1374.0;1304.4;;;;;;;;;;;;;;;;;-0.82018495;-5.8023314;-1.7433698;;1215.3
1374.0;1304.4;;;;;;;;;;;;;;0.765038;0.5216834;-0.07293924;;;;;1215.3
1374.0;1304.4;;;;;;;;;;;;;;;;;-8.20185;-4.3832207;-5.0241094;;1215.3
1374.0;1304.4;;;;;;;;;;;;;;0.786401;0.55903804;-0.107852414;;;;;1215.3
1374.0;1304.4;;;;;;;;;;;;;;;;;-10.685293;-2.422407;-2.883999;;1225.0
1374.0;1304.4;;;;;;;;;;;;;;0.78438675;0.5696585;-0.1413007;;;;;1225.0
1374.0;1304.4;;;;;;;;;;;;;;;;;-8.522293;-1.4725181;2.9984436;;1225.0
1374.0;1304.4;;;;;;;;;;;;;;0.77700126;0.5450606;-0.16400647;;;;;1225.0
1374.0;1304.4;;;;;;;;;;;;;;;;;-9.273812;1.8692588;9.094516;;1234.6
1374.0;1304.4;;;;;;;;;;;;;;0.753502;0.40974152;-0.17139195;;;;;1234.6
1374.0;1304.4;;;;;;;;;;;;;;;;;-12.329478;6.1609244;8.491775;;1234.6
1374.0;1304.4;;;;;;;;;;;;;;0.75679797;0.3366802;-0.15344706;;;;;1234.6
1374.0;1308.3;;;;-0.6918259;-0.05151368;-0.2667084;;;;;;;;;;;;;;;
1374.0;1308.3;;;;-0.6933175;-0.05051423;-0.26949313;;;;;;;;;;;;;;;
1374.0;1308.3;;;;-0.6952515;-0.049644478;-0.2714844;;;;;;;;;;;;;;;
1374.0;1308.3;;;;-0.69434744;-0.04842759;-0.27290347;;;;;;;;;;;;;;;
1374.0;1308.3;;;;-0.69416815;-0.047855385;-0.275425;;;;;;;;;;;;;;;
1374.0;1318.3;;;;-0.6959992;-0.04703141;-0.2780724;;;;;;;;;;;;;;;
1374.0;1318.3;;;;-0.69873816;-0.04573441;-0.2803116;;;;;;;;;;;;;;;
1374.0;1318.3;;;;-0.70084006;-0.044731144;-0.28196338;;;;;;;;;;;;;;;
1374.0;1318.3;;;;-0.7026635;-0.043544773;-0.28406528;;;;;;;;;;;;;;;
1374.0;1318.3;;;;-0.7043;-0.043277744;-0.28607944;;;;;;;;;;;;;;;
1431.0;1318.7;;;;;;;;;;;;;;;;;-16.552477;12.977996;7.1909237;;1244.2
1431.0;1318.7;;;;;;;;;;;;;;0.73934144;0.28089237;-0.12286752;;;;;1244.2
1431.0;1318.7;;;;;;;;;;;;;;;;;-16.170996;17.399364;7.2862945;;1244.2
1431.0;1318.7;;;;;;;;;;;;;;0.6935026;0.21778008;-0.0888699;;;;;1244.2
1431.0;1318.7;;;;;;;;;;;;;;;;;-7.8966646;10.803553;6.95822;;1253.7
1431.0;1318.7;;;;;;;;;;;;;;0.65401167;0.17383343;-0.11200293;;;;;1253.7
1431.0;1318.7;;;;;;;;;;;;;;;;;3.3684807;-3.7499619;6.267739;;1253.7
1431.0;1318.7;;;;;;;;;;;;;;0.6461379;0.16382337;-0.17236854;;;;;1253.7
1431.0;1318.7;;;;;;;;;;;;;;;;;12.169256;-17.113253;6.992553;;1263.4
1431.0;1318.7;;;;;;;;;;;;;;0.639729;0.13769951;-0.22663045;;;;;1263.4
1431.0;1318.7;;;;;;;;;;;;;;;;;13.092441;-18.951996;8.10648;;1263.4
1431.0;1318.7;;;;;;;;;;;;;;0.6324656;0.113101594;-0.25305948;;;;;1263.4
1431.0;1319.9;204906;204909;11659;;;;;;;;;;;;;;;;;;
1431.0;1326.1;;;;;;;;;;;;;14732;;;;;;;;
1431.0;1326.1;;;;;;;;;;;;;17453;;;;;;;;
1431.0;1326.1;;;;;;;;;;;;;16077;;;;;;;;
1431.0;1326.1;;;;;;;;;;;;;13962;;;;;;;;
1431.0;1326.1;;;;;;;;;;;;;12926;;;;;;;;
1431.0;1328.1;;;;-0.70605475;-0.042652134;-0.28763965;;;;;;;;;;;;;;;
1431.0;1328.1;;;;-0.7084809;-0.041873936;-0.28908542;;;;;;;;;;;;;;;
1431.0;1328.1;;;;-0.7115136;-0.04010773;-0.29088977;;;;;;;;;;;;;;;
1431.0;1328.1;;;;-0.7143975;-0.03872681;-0.29182437;;;;;;;;;;;;;;;
1431.0;1328.1;;;;-0.7169648;-0.037307743;-0.29335788;;;;;;;;;;;;;;;
1433.0;1338.2;;;;-0.7191468;-0.035667423;-0.29405978;;;;;;;;;;;;;;;
1433.0;1338.2;;;;-0.72142035;-0.034294132;-0.2949486;;;;;;;;;;;;;;;
1433.0;1338.2;;;;-0.7239495;-0.03240967;-0.29623798;;;;;;;;;;;;;;;
1433.0;1338.2;;;;-0.7263108;-0.030593876;-0.29715732;;;;;;;;;;;;;;;
1433.0;1338.2;;;;-0.72939306;-0.029304508;-0.2977982;;;;;;;;;;;;;;;
1433.0;1339.9;221292;221255;11663;;;;;;;;;;;;;;;;;;
1433.0;1348.3;;;;-0.7329522;-0.02789307;-0.29833606;;;;;;;;;;;;;;;
1433.0;1348.3;;;;-0.7362061;-0.026069645;-0.2983208;;;;;;;;;;;;;;;
1433.0;1348.3;;;;-0.73964316;-0.024642948;-0.29801562;;;;;;;;;;;;;;;
1433.0;1348.3;;;;-0.74307257;-0.023414614;-0.29747012;;;;;;;;;;;;;;;
1433.0;1348.3;;;;-0.74578863;-0.02170563;-0.29611972;;;;;;;;;;;;;;;
1433.0;1358.4;;;;-0.74820334;-0.020339968;-0.29512027;;;;;;;;;;;;;;;
1433.0;1358.4;;;;-0.74986655;-0.018745424;-0.294117;;;;;;;;;;;;;;;
1433.0;1358.4;;;;-0.75172055;-0.017414095;-0.29347995;;;;;;;;;;;;;;;
1433.0;1358.4;;;;-0.7530061;-0.016101839;-0.29246905;;;;;;;;;;;;;;;
1433.0;1358.4;;;;-0.75499356;-0.014636995;-0.29176715;;;;;;;;;;;;;;;
1433.0;1360.2;237682;237690;11678;;;;;;;;;;;;;;;;;;
1434.0;1363.8;;;;;;;;;;;;;;;;;4.3298135;-5.4246655;8.774072;;1273.1
1434.0;1363.8;;;;;;;;;;;;;;0.62764364;0.079348125;-0.25330362;;;;;1273.1
1434.0;1363.8;;;;;;;;;;;;;;;;;-7.5037384;15.8276615;10.338145;;1273.1
1434.0;1363.8;;;;;;;;;;;;;;0.6399121;0.057618946;-0.19238868;;;;;1273.1
1434.0;1363.8;;;;;;;;;;;;;;;;;-14.172032;28.496658;13.023774;;1282.8
1434.0;1363.8;;;;;;;;;;;;;;0.6583453;0.044373915;-0.13885921;;;;;1282.8
1434.0;1363.8;;;;;;;;;;;;;;;;;-9.292887;30.285805;17.479475;;1282.8
1434.0;1363.8;;;;;;;;;;;;;;0.652974;0.02148503;-0.08252205;;;;;1282.8
1434.0;1363.8;;;;;;;;;;;;;;;;;-1.8845179;25.257881;18.997772;;1292.5
1434.0;1363.8;;;;;;;;;;;;;;0.6415601;-0.0048219245;-0.0601825;;;;;1292.5
1434.0;1363.8;;;;;;;;;;;;;;;;;4.4518876;20.207067;14.416181;;1292.5
1434.0;1363.8;;;;;;;;;;;;;;0.6516923;-0.0043946654;-0.06250191;;;;;1292.5
1434.0;1366.3;;;;;;;;;;;;;11723;;;;;;;;
1434.0;1366.3;;;;;;;;;;;;;10309;;;;;;;;
1434.0;1366.3;;;;;;;;;;;;;10070;;;;;;;;
1434.0;1366.3;;;;;;;;;;;;;10494;;;;;;;;
1434.0;1366.3;;;;;;;;;;;;;10863;;;;;;;;
1434.0;1368.4;;;;-0.75691235;-0.013118746;-0.29142383;;;;;;;;;;;;;;;
1434.0;1368.4;;;;-0.7596017;-0.0116233835;-0.29177478;;;;;;;;;;;;;;;
1434.0;1368.4;;;;-0.7626687;-0.010120393;-0.29197314;;;;;;;;;;;;;;;
1434.0;1368.4;;;;-0.76636136;-0.008918763;-0.2927399;;;;;;;;;;;;;;;
1434.0;1368.4;;;;-0.7698175;-0.00744629;-0.29404834;;;;;;;;;;;;;;;
1491.0;1378.4;;;;-0.7733232;-0.006050111;-0.29526904;;;;;;;;;;;;;;;
1491.0;1378.4;;;;-0.77648175;-0.0046005254;-0.296608;;;;;;;;;;;;;;;
1491.0;1378.4;;;;-0.7802087;-0.00309372;-0.29890063;;;;;;;;;;;;;;;
1491.0;1378.4;;;;-0.78403103;-0.0017051699;-0.30064395;;;;;;;;;;;;;;;
1491.0;1378.4;;;;-0.78803265;-6.408692E-4;-0.3019295;;;;;;;;;;;;;;;
1491.0;1378.9;;;;;;;;;;;;;;;;;9.93759;17.162846;7.6448865;;1302.0
1491.0;1378.9;;;;;;;;;;;;;;0.6632893;0.044618063;-0.063539535;;;;;1302.0
1491.0;1378.9;;;;;;;;;;;;;;;;;16.003143;11.490219;1.4229255;;1302.0
1491.0;1378.9;;;;;;;;;;;;;;0.6705527;0.12158574;-0.112125;;;;;1302.0
1491.0;1378.9;;;;;;;;;;;;;;;;;23.403881;4.791406;-1.2970366;;1311.7
1491.0;1378.9;;;;;;;;;;;;;;0.6817835;0.1810358;-0.17291787;;;;;1311.7
1491.0;1378.9;;;;;;;;;;;;;;;;;27.390362;0.57222205;-2.0409255;;1311.7
1491.0;1378.9;;;;;;;;;;;;;;0.7086398;0.23432112;-0.2484817;;;;;1311.7
1491.0;1378.9;;;;;;;;;;;;;;;;;25.46388;7.2519608;-2.273629;;1321.2
1491.0;1378.9;;;;;;;;;;;;;;0.7450178;0.30164495;-0.27100438;;;;;1321.2
1491.0;1378.9;;;;;;;;;;;;;;;;;19.92477;20.98529;-0.67903686;;1321.2
1491.0;1378.9;;;;;;;;;;;;;;0.74532306;0.33967102;-0.23212378;;;;;1321.2
1491.0;1380.1;254060;254054;11689;;;;;;;;;;;;;;;;;;
1491.0;1388.2;;;;-0.79205716;0.0012435914;-0.3033295;;;;;;;;;;;;;;;
1491.0;1388.2;;;;-0.7956697;0.0026130679;-0.3033333;;;;;;;;;;;;;;;
1491.0;1388.2;;;;-0.7992555;0.0042457585;-0.30372623;;;;;;;;;;;;;;;
1491.0;1388.2;;;;-0.80258954;0.0053825383;-0.30487445;;;;;;;;;;;;;;;
1491.0;1388.2;;;;-0.80580914;0.00725937;-0.30609897;;;;;;;;;;;;;;;
1494.0;1398.3;;;;-0.8089944;0.008358003;-0.30718234;;;;;;;;;;;;;;;
1494.0;1398.3;;;;-0.8120271;0.01002884;-0.30857852;;;;;;;;;;;;;;;
1494.0;1398.3;;;;-0.81510174;0.011615754;-0.3096886;;;;;;;;;;;;;;;
1494.0;1398.3;;;;-0.81821454;0.013015749;-0.31122592;;;;;;;;;;;;;;;
1494.0;1398.3;;;;-0.82169354;0.014316561;-0.3124657;;;;;;;;;;;;;;;
1494.0;1400.2;262143;262143;11701;;;;;;;;;;;;;;;;;;
1494.0;1406.5;;;;;;;;;;;;;10788;;;;;;;;
1494.0;1406.5;;;;;;;;;;;;;9794;;;;;;;;
1494.0;1406.5;;;;;;;;;;;;;8281;;;;;;;;
1494.0;1406.5;;;;;;;;;;;;;6979;;;;;;;;
1494.0;1406.5;;;;;;;;;;;;;6209;;;;;;;;
1494.0;1408.4;;;;-0.82400143;0.015853884;-0.3136864;;;;;;;;;;;;;;;
1494.0;1408.4;;;;-0.8254167;0.01779175;-0.3151131;;;;;;;;;;;;;;;
1494.0;1408.4;;;;-0.8269311;0.01917267;-0.31715015;;;;;;;;;;;;;;;
1494.0;1408.4;;;;-0.828663;0.020286562;-0.3192635;;;;;;;;;;;;;;;
1494.0;1408.4;;;;-0.8306047;0.020637514;-0.32167438;;;;;;;;;;;;;;;
1494.0;1418.5;;;;-0.8332139;0.020267488;-0.32496265;;;;;;;;;;;;;;;
1494.0;1418.5;;;;-0.83734906;0.019344332;-0.32836917;;;;;;;;;;;;;;;
1494.0;1418.5;;;;-0.8423196;0.017776491;-0.33181384;;;;;;;;;;;;;;;
1494.0;1418.5;;;;-0.84956753;0.015380861;-0.33617404;;;;;;;;;;;;;;;
1494.0;1418.5;;;;-0.85876477;0.012924196;-0.34127048;;;;;;;;;;;;;;;
1494.0;1420.4;262143;262143;11701;;;;;;;;;;;;;;;;;;
1495.0;1424.1;;;;;;;;;;;;;;;;;18.429365;25.841547;0.7858516;;1330.9
1495.0;1424.1;;;;;;;;;;;;;;0.7345805;0.34595782;-0.18701743;;;;;1330.9
1495.0;1424.1;;;;;;;;;;;;;;;;;22.907955;15.694143;2.071444;;1330.9
1495.0;1424.1;;;;;;;;;;;;;;0.7379986;0.3357036;-0.22467726;;;;;1330.9
1495.0;1424.1;;;;;;;;;;;;;;;;;26.947845;3.0899992;2.4338512;;1340.6
1495.0;1424.1;;;;;;;;;;;;;;0.7458724;0.32312998;-0.28882718;;;;;1340.6
1495.0;1424.1;;;;;;;;;;;;;;;;;23.23603;-2.311777;2.3842587;;1340.6
1495.0;1424.1;;;;;;;;;;;;;;0.7630238;0.32258064;-0.34156317;;;;;1340.6
1495.0;1424.1;;;;;;;;;;;;;;;;;12.062441;5.836665;2.0447402;;1350.1
1495.0;1424.1;;;;;;;;;;;;;;0.79030734;0.36787012;-0.3490707;;;;;1350.1
1495.0;1424.1;;;;;;;;;;;;;;;;;-2.2659993;21.847439;4.013184;;1350.1
1495.0;1424.1;;;;;;;;;;;;;;0.784814;0.37958923;-0.27875605;;;;;1350.1
1495.0;1428.5;;;;-0.8696748;0.010513307;-0.34691623;;;;;;;;;;;;;;;
1495.0;1428.5;;;;-0.8828088;0.00801468;-0.3526955;;;;;;;;;;;;;;;
1495.0;1428.5;;;;-0.8974725;0.0058441167;-0.35948184;;;;;;;;;;;;;;;
1495.0;1428.5;;;;-0.9135324;0.0036697392;-0.36716083;;;;;;;;;;;;;;;
1495.0;1428.5;;;;-0.93013775;0.0018653872;-0.3755532;;;;;;;;;;;;;;;
1495.0;1438.6;;;;-0.94731534;-3.051758E-4;-0.38270193;;;;;;;;;;;;;;;
1495.0;1438.6;;;;-0.9652406;-0.0018920901;-0.3906632;;;;;;;;;;;;;;;
1495.0;1438.6;;;;-0.98410046;-0.0030746465;-0.399437;;;;;;;;;;;;;;;
1495.0;1438.6;;;;-1.0041314;-0.0035324101;-0.40917975;;;;;;;;;;;;;;;
1495.0;1438.6;;;;-1.0258371;-0.0026817324;-0.41767126;;;;;;;;;;;;;;;
1495.0;1440.5;262143;262143;11710;;;;;;;;;;;;;;;;;;
1548.0;1446.8;;;;;;;;;;;;;5610;;;;;;;;
1548.0;1446.8;;;;;;;;;;;;;4612;;;;;;;;
1548.0;1446.8;;;;;;;;;;;;;3153;;;;;;;;
1548.0;1446.8;;;;;;;;;;;;;1700;;;;;;;;
1548.0;1446.8;;;;;;;;;;;;;797;;;;;;;;
1548.0;1448.6;;;;-1.0478708;-5.7220465E-4;-0.42610174;;;;;;;;;;;;;;;
1548.0;1448.6;;;;-1.0694009;0.0034637456;-0.43389136;;;;;;;;;;;;;;;
1548.0;1448.6;;;;-1.0896417;0.008689881;-0.44172293;;;;;;;;;;;;;;;
1548.0;1448.6;;;;-1.1082078;0.015697481;-0.45013052;;;;;;;;;;;;;;;
1548.0;1448.6;;;;-1.1236345;0.02423096;-0.45805365;;;;;;;;;;;;;;;
1548.0;1458.5;;;;-1.1367646;0.034164432;-0.4660607;;;;;;;;;;;;;;;
1548.0;1458.5;;;;-1.1476632;0.044559482;-0.47378546;;;;;;;;;;;;;;;
1548.0;1458.5;;;;-1.1575319;0.05526734;-0.48103338;;;;;;;;;;;;;;;
1548.0;1458.5;;;;-1.1651651;0.0665474;-0.48683554;;;;;;;;;;;;;;;
1548.0;1458.5;;;;-1.1724969;0.077514656;-0.49171835;;;;;;;;;;;;;;;
1548.0;1460.5;262143;262143;11727;;;;;;;;;;;;;;;;;;
1548.0;1468.6;;;;-1.1793252;0.08776093;-0.4961701;;;;;;;;;;;;;;;
1548.0;1468.6;;;;-1.1851007;0.097389236;-0.50062186;;;;;;;;;;;;;;;
1548.0;1468.6;;;;-1.1899797;0.1059456;-0.50433356;;;;;;;;;;;;;;;
1548.0;1468.6;;;;-1.1941797;0.113395706;-0.50804144;;;;;;;;;;;;;;;
1548.0;1468.6;;;;-1.1980096;0.119964615;-0.5110741;;;;;;;;;;;;;;;
1549.0;1478.7;;;;-1.2017595;0.12568666;-0.51367193;;;;;;;;;;;;;;;
1549.0;1478.7;;;;-1.2048761;0.1309395;-0.51512915;;;;;;;;;;;;;;;
1549.0;1478.7;;;;-1.2072259;0.13526155;-0.51595694;;;;;;;;;;;;;;;
1549.0;1478.7;;;;-1.2096788;0.14013673;-0.5156899;;;;;;;;;;;;;;;
1549.0;1478.7;;;;-1.2126352;0.1454506;-0.5151177;;;;;;;;;;;;;;;
1549.0;1480.8;262143;262143;11752;;;;;;;;;;;;;;;;;;
1549.0;1484.1;;;;;;;;;;;;;;;;;-10.002441;28.75988;5.367443;;1359.7
1549.0;1484.1;;;;;;;;;;;;;;0.76436657;0.35676137;-0.2164983;;;;;1359.7
1549.0;1484.1;;;;;;;;;;;;;;;;;-7.5800347;22.938475;4.4900355;;1359.7
1549.0;1484.1;;;;;;;;;;;;;;0.76528215;0.36335337;-0.2066103;;;;;1359.7
1549.0;1484.1;;;;;;;;;;;;;;;;;-1.9112216;15.202032;4.6197395;;1369.4
1549.0;1484.1;;;;;;;;;;;;;;0.78096867;0.36262092;-0.24817652;;;;;1369.4
1549.0;1484.1;;;;;;;;;;;;;;;;;-2.8420362;18.585773;5.4628134;;1369.4
1549.0;1484.1;;;;;;;;;;;;;;0.8069094;0.35212258;-0.24329355;;;;;1369.4
1549.0;1484.1;;;;;;;;;;;;;;;;;-8.922849;29.347363;4.058962;;1379.0
1549.0;1484.1;;;;;;;;;;;;;;0.811243;0.34211248;-0.20307016;;;;;1379.0
1549.0;1484.1;;;;;;;;;;;;;;;;;-4.955443;29.675436;0.13733329;;1379.0
1549.0;1484.1;;;;;;;;;;;;;;0.7788934;0.3426008;-0.19135106;;;;;1379.0
1551.0;1484.9;;;;;;;;;;;;;;;;;8.18659;11.98233;-5.050813;;1388.6
1551.0;1484.9;;;;;;;;;;;;;;0.78865933;0.34760582;-0.2733848;;;;;1388.6
1551.0;1484.9;;;;;;;;;;;;;;;;;15.709402;-1.4610736;-8.705404;;1388.6
1551.0;1484.9;;;;;;;;;;;;;;0.84841454;0.3683584;-0.36610004;;;;;1388.6
1551.0;1484.9;;;;;;;;;;;;;;;;;5.6840725;13.134403;-9.670553;;1398.2
1551.0;1484.9;;;;;;;;;;;;;;0.91189307;0.3985107;-0.3524888;;;;;1398.2
1551.0;1484.9;;;;;;;;;;;;;;;;;-21.828365;48.29173;-10.052033;;1398.2
1551.0;1484.9;;;;;;;;;;;;;;0.96389663;0.38056582;-0.24243905;;;;;1398.2
1551.0;1484.9;;;;;;;;;;;;;;;;;-43.321026;80.36668;-14.74044;;1407.8
1551.0;1484.9;;;;;;;;;;;;;;1.0673543;0.34253976;-0.16528825;;;;;1407.8
1551.0;1484.9;;;;;;;;;;;;;;;;;-42.99295;93.272194;-23.308512;;1407.8
1551.0;1484.9;;;;;;;;;;;;;;1.2822657;0.32319102;-0.061586354;;;;;1407.8
1551.0;1486.8;;;;;;;;;;;;;562;;;;;;;;
1551.0;1486.8;;;;;;;;;;;;;744;;;;;;;;
1551.0;1486.8;;;;;;;;;;;;;1102;;;;;;;;
1551.0;1486.8;;;;;;;;;;;;;1546;;;;;;;;
1551.0;1486.8;;;;;;;;;;;;;2109;;;;;;;;
1551.0;1488.6;;;;-1.2170717;0.15098955;-0.51500326;;;;;;;;;;;;;;;
1551.0;1488.6;;;;-1.2228662;0.15720369;-0.5118523;;;;;;;;;;;;;;;
1551.0;1488.6;;;;-1.2295419;0.16294481;-0.507351;;;;;;;;;;;;;;;
1551.0;1488.6;;;;-1.2357827;0.16963579;-0.50267035;;;;;;;;;;;;;;;
1551.0;1488.6;;;;-1.241562;0.17658998;-0.49817663;;;;;;;;;;;;;;;
1607.0;1491.8;;;;;;;;;;;;;;;;;-27.802362;79.49309;-29.892881;;1417.4
1607.0;1491.8;;;;;;;;;;;;;;1.5151219;0.3218482;0.0076906644;;;;;1417.4
1607.0;1491.8;;;;;;;;;;;;;;;;;-16.68981;59.61028;-34.527878;;1417.4
1607.0;1491.8;;;;;;;;;;;;;;1.625782;0.30774865;0.018189032;;;;;1417.4
1607.0;1491.8;;;;;;;;;;;;;;;;;-14.584033;51.5038;-43.969543;;1427.1
1607.0;1491.8;;;;;;;;;;;;;;1.5988036;0.3238014;0.017273476;;;;;1427.1
1607.0;1491.8;;;;;;;;;;;;;;;;;-15.083773;59.533985;-56.55461;;1427.1
1607.0;1491.8;;;;;;;;;;;;;;1.5223854;0.36902982;0.045411542;;;;;1427.1
1607.0;1491.8;;;;;;;;;;;;;;;;;-12.115849;69.44486;-67.44972;;1436.7
1607.0;1491.8;;;;;;;;;;;;;;1.4696493;0.40803248;0.10992767;;;;;1436.7
1607.0;1491.8;;;;;;;;;;;;;;;;;-7.065035;68.10968;-75.8385;;1436.7
1607.0;1491.8;;;;;;;;;;;;;;1.4216132;0.4349498;0.12359996;;;;;1436.7
1607.0;1498.6;;;;-1.2468263;0.18353273;-0.4918366;;;;;;;;;;;;;;;
1607.0;1498.6;;;;-1.2521363;0.19020846;-0.48634726;;;;;;;;;;;;;;;
1607.0;1498.6;;;;-1.2582856;0.19715121;-0.48175436;;;;;;;;;;;;;;;
1607.0;1498.6;;;;-1.264908;0.20380023;-0.47616583;;;;;;;;;;;;;;;
1607.0;1498.6;;;;-1.2732812;0.20981601;-0.47008902;;;;;;;;;;;;;;;
1607.0;1500.6;262143;262143;11792;;;;;;;;;;;;;;;;;;
1607.0;1508.4;;;;-1.2820588;0.21546558;-0.46383673;;;;;;;;;;;;;;;
1607.0;1508.4;;;;-1.2908174;0.22046664;-0.45715338;;;;;;;;;;;;;;;
1607.0;1508.4;;;;-1.3003236;0.22466663;-0.4503556;;;;;;;;;;;;;;;
1607.0;1508.4;;;;-1.3084832;0.22866443;-0.44310385;;;;;;;;;;;;;;;
1607.0;1508.4;;;;-1.3150941;0.23241046;-0.43700796;;;;;;;;;;;;;;;
1612.0;1518.5;;;;-1.3208276;0.23634341;-0.42971426;;;;;;;;;;;;;;;
1612.0;1518.5;;;;-1.3272477;0.2396622;-0.42276388;;;;;;;;;;;;;;;
1612.0;1518.5;;;;-1.331627;0.24305347;-0.41601568;;;;;;;;;;;;;;;
1612.0;1518.5;;;;-1.3340226;0.24559024;-0.40978628;;;;;;;;;;;;;;;
1612.0;1518.5;;;;-1.3348161;0.24795535;-0.4033776;;;;;;;;;;;;;;;
1612.0;1520.7;262143;262143;11827;;;;;;;;;;;;;;;;;;
1612.0;1526.9;;;;;;;;;;;;;2754;;;;;;;;
1612.0;1526.9;;;;;;;;;;;;;3301;;;;;;;;
1612.0;1526.9;;;;;;;;;;;;;3547;;;;;;;;
1612.0;1526.9;;;;;;;;;;;;;3378;;;;;;;;
1612.0;1526.9;;;;;;;;;;;;;2910;;;;;;;;
1612.0;1528.6;;;;-1.33387;0.2492142;-0.3976441;;;;;;;;;;;;;;;
1612.0;1528.6;;;;-1.3324052;0.2503853;-0.3935433;;;;;;;;;;;;;;;
1612.0;1528.6;;;;-1.3311197;0.25095752;-0.39026648;;;;;;;;;;;;;;;
1612.0;1528.6;;;;-1.3300439;0.25108722;-0.38753515;;;;;;;;;;;;;;;
1612.0;1528.6;;;;-1.3298951;0.25069812;-0.3858376;;;;;;;;;;;;;;;
1612.0;1538.7;;;;-1.3299524;0.24968341;-0.38340765;;;;;;;;;;;;;;;
1612.0;1538.7;;;;-1.3300287;0.24865726;-0.3813172;;;;;;;;;;;;;;;
1612.0;1538.7;;;;-1.3304483;0.24736026;-0.37971503;;;;;;;;;;;;;;;
1612.0;1538.7;;;;-1.3319055;0.24526599;-0.3804055;;;;;;;;;;;;;;;
1612.0;1538.7;;;;-1.3349229;0.24322894;-0.38091666;;;;;;;;;;;;;;;
1612.0;1540.9;262143;262143;11833;;;;;;;;;;;;;;;;;;
1613.0;1544.4;;;;;;;;;;;;;;;;;-0.068666644;58.0958;-80.40864;;1446.3
1613.0;1544.4;;;;;;;;;;;;;;1.376873;0.4295175;0.067445904;;;;;1446.3
1613.0;1544.4;;;;;;;;;;;;;;;;;2.8687398;53.075504;-84.78423;;1446.3
1613.0;1544.4;;;;;;;;;;;;;;1.3644215;0.41273233;-0.008301035;;;;;1446.3
1613.0;1544.4;;;;;;;;;;;;;;;;;1.6098514;58.69091;-93.71853;;1455.8
1613.0;1544.4;;;;;;;;;;;;;;1.3870052;0.41010773;-0.042115543;;;;;1455.8
1613.0;1544.4;;;;;;;;;;;;;;;;;-1.1825923;74.457535;-100.966675;;1455.8
1613.0;1544.4;;;;;;;;;;;;;;1.4036683;0.37086093;-0.0050050355;;;;;1455.8
1613.0;1544.4;;;;;;;;;;;;;;;;;-2.2164068;90.84597;-109.07316;;1465.4
1613.0;1544.4;;;;;;;;;;;;;;1.4462111;0.3340556;0.07159642;;;;;1465.4
1613.0;1544.4;;;;;;;;;;;;;;;;;-0.10299997;104.125336;-114.16593;;1465.4
1613.0;1544.4;;;;;;;;;;;;;;1.4815515;0.28455457;0.15820795;;;;;1465.4
1613.0;1548.6;;;;-1.3389856;0.24066165;-0.38252264;;;;;;;;;;;;;;;
1613.0;1548.6;;;;-1.3432924;0.23830035;-0.38338476;;;;;;;;;;;;;;;
1613.0;1548.6;;;;-1.3477365;0.23619083;-0.3840409;;;;;;;;;;;;;;;
1613.0;1548.6;;;;-1.3507577;0.23479083;-0.38433844;;;;;;;;;;;;;;;
1613.0;1548.6;;;;-1.3535348;0.23323825;-0.3841973;;;;;;;;;;;;;;;
1613.0;1558.6;;;;-1.3559037;0.23186877;-0.3851586;;;;;;;;;;;;;;;
1613.0;1558.6;;;;-1.3572198;0.23130801;-0.3851052;;;;;;;;;;;;;;;
1613.0;1558.6;;;;-1.3579065;0.23152545;-0.3841706;;;;;;;;;;;;;;;
1613.0;1558.6;;;;-1.3585626;0.23185733;-0.38330084;;;;;;;;;;;;;;;
1613.0;1558.6;;;;-1.358246;0.23276523;-0.38369757;;;;;;;;;;;;;;;
1672.0;1559.9;;;;;;;;;;;;;;;;;6.1609244;106.02893;-117.3513;;1475.1
1672.0;1559.9;;;;;;;;;;;;;;1.538377;0.2186346;0.22193061;;;;;1475.1
1672.0;1559.9;;;;;;;;;;;;;;;;;16.735588;96.186714;-116.06952;;1475.1
1672.0;1559.9;;;;;;;;;;;;;;1.5954466;0.10681479;0.20892972;;;;;1475.1
1672.0;1559.9;;;;;;;;;;;;;;;;;33.173622;83.19346;-111.79693;;1484.7
1672.0;1559.9;;;;;;;;;;;;;;1.6675924;-0.013672292;0.14893033;;;;;1484.7
1672.0;1559.9;;;;;;;;;;;;;;;;;47.3838;69.841606;-111.59474;;1484.7
1672.0;1559.9;;;;;;;;;;;;;;1.7186804;-0.09424116;0.060121465;;;;;1484.7
1672.0;1559.9;;;;;;;;;;;;;;;;;52.056946;61.483353;-115.56596;;1494.4
1672.0;1559.9;;;;;;;;;;;;;;1.7441939;-0.16357921;-0.028687399;;;;;1494.4
1672.0;1559.9;;;;;;;;;;;;;;;;;51.351208;60.354164;-122.44026;;1494.4
1672.0;1559.9;;;;;;;;;;;;;;1.6705222;-0.18836024;-0.10223701;;;;;1494.4
1672.0;1560.8;262143;262143;11839;;;;;;;;;;;;;;;;;;
1672.0;1566.9;;;;;;;;;;;;;2345;;;;;;;;
1672.0;1566.9;;;;;;;;;;;;;1801;;;;;;;;
1672.0;1566.9;;;;;;;;;;;;;1512;;;;;;;;
1672.0;1566.9;;;;;;;;;;;;;1841;;;;;;;;
1672.0;1566.9;;;;;;;;;;;;;2814;;;;;;;;
1672.0;1568.5;;;;-1.3581926;0.23440173;-0.38299567;;;;;;;;;;;;;;;
1672.0;1568.5;;;;-1.3582765;0.23625186;-0.38163;;;;;;;;;;;;;;;
1672.0;1568.5;;;;-1.3582536;0.23806384;-0.38058096;;;;;;;;;;;;;;;
1672.0;1568.5;;;;-1.3574373;0.24001315;-0.37962347;;;;;;;;;;;;;;;
1672.0;1568.5;;;;-1.3555642;0.24287799;-0.37908942;;;;;;;;;;;;;;;
1673.0;1578.5;;;;-1.3526727;0.2453995;-0.37858206;;;;;;;;;;;;;;;
1673.0;1578.5;;;;-1.3485185;0.24790576;-0.37940985;;;;;;;;;;;;;;;
1673.0;1578.5;;;;-1.3441507;0.25027087;-0.38083273;;;;;;;;;;;;;;;
1673.0;1578.5;;;;-1.3398935;0.2515259;-0.3817292;;;;;;;;;;;;;;;
1673.0;1578.5;;;;-1.3361512;0.25293735;-0.38249594;;;;;;;;;;;;;;;
1673.0;1580.8;262143;262143;11831;;;;;;;;;;;;;;;;;;
1673.0;1588.6;;;;-1.3327829;0.25418094;-0.38405234;;;;;;;;;;;;;;;
1673.0;1588.6;;;;-1.329609;0.2552872;-0.38548666;;;;;;;;;;;;;;;
1673.0;1588.6;;;;-1.3264772;0.2562714;-0.3860436;;;;;;;;;;;;;;;
1673.0;1588.6;;;;-1.3234292;0.25648883;-0.3858071;;;;;;;;;;;;;;;
1673.0;1588.6;;;;-1.3196222;0.2565308;-0.38620764;;;;;;;;;;;;;;;
1673.0;1598.7;;;;-1.3147966;0.2566109;-0.38589102;;;;;;;;;;;;;;;
1673.0;1598.7;;;;-1.3090593;0.25605395;-0.3850823;;;;;;;;;;;;;;;
1673.0;1598.7;;;;-1.3033525;0.25496677;-0.38409048;;;;;;;;;;;;;;;
1673.0;1598.7;;;;-1.2978555;0.25379947;-0.38241583;;;;;;;;;;;;;;;
1673.0;1598.7;;;;-1.2924844;0.25249484;-0.38010794;;;;;;;;;;;;;;;
1673.0;1601.1;262143;262143;11805;;;;;;;;;;;;;;;;;;
1674.0;1604.6;;;;;;;;;;;;;;;;;53.7698;62.532425;-124.988556;;1503.9
1674.0;1604.6;;;;;;;;;;;;;;1.5802485;-0.14300974;-0.12445448;;;;;1503.9
1674.0;1604.6;;;;;;;;;;;;;;;;;56.12354;64.73739;-124.988556;;1503.9
1674.0;1604.6;;;;;;;;;;;;;;1.5227516;-0.074098945;-0.113956116;;;;;1503.9
1674.0;1604.6;;;;;;;;;;;;;;;;;58.37428;66.66769;-124.988556;;1513.5
1674.0;1604.6;;;;;;;;;;;;;;1.4751427;-0.06805628;-0.09619434;;;;;1513.5
1674.0;1604.6;;;;;;;;;;;;;;;;;61.91061;68.121124;-124.988556;;1513.5
1674.0;1604.6;;;;;;;;;;;;;;1.4177068;-0.07556383;-0.06457717;;;;;1513.5
1674.0;1604.6;;;;;;;;;;;;;;;;;64.42839;70.734276;-124.988556;;1523.0
1674.0;1604.6;;;;;;;;;;;;;;1.3846247;-0.024292734;-0.020996734;;;;;1523.0
1674.0;1604.6;;;;;;;;;;;;;;;;;65.832245;73.26731;-124.988556;;1523.0
1674.0;1604.6;;;;;;;;;;;;;;1.3396405;0.07507554;0.03955199;;;;;1523.0
1674.0;1607.2;;;;;;;;;;;;;3796;;;;;;;;
1674.0;1607.2;;;;;;;;;;;;;4087;;;;;;;;
1674.0;1607.2;;;;;;;;;;;;;3669;;;;;;;;
1674.0;1607.2;;;;;;;;;;;;;3137;;;;;;;;
1674.0;1607.2;;;;;;;;;;;;;2950;;;;;;;;
1674.0;1608.7;;;;-1.2877389;0.2508469;-0.37720495;;;;;;;;;;;;;;;
1674.0;1608.7;;;;-1.2817956;0.24906543;-0.37201694;;;;;;;;;;;;;;;
1674.0;1608.7;;;;-1.2759401;0.24724963;-0.36769107;;;;;;;;;;;;;;;
1674.0;1608.7;;;;-1.269436;0.24491504;-0.3634644;;;;;;;;;;;;;;;
1674.0;1608.7;;;;-1.2624398;0.24251941;-0.3592873;;;;;;;;;;;;;;;
1729.0;1618.8;;;;-1.2560693;0.23954394;-0.3556557;;;;;;;;;;;;;;;
1729.0;1618.8;;;;-1.2499887;0.23656467;-0.35179523;;;;;;;;;;;;;;;
1729.0;1618.8;;;;-1.2436639;0.234005;-0.34809116;;;;;;;;;;;;;;;
1729.0;1618.8;;;;-1.2376405;0.23141101;-0.3424683;;;;;;;;;;;;;;;
1729.0;1618.8;;;;-1.2314988;0.22947696;-0.33638385;;;;;;;;;;;;;;;
1729.0;1619.6;;;;;;;;;;;;;;;;;66.698204;71.67272;-124.988556;;1532.7
1729.0;1619.6;;;;;;;;;;;;;;1.2886746;0.20307016;0.090029605;;;;;1532.7
1729.0;1619.6;;;;;;;;;;;;;;;;;65.21043;65.904724;-124.988556;;1532.7
1729.0;1619.6;;;;;;;;;;;;;;1.2780541;0.35822627;0.12439345;;;;;1532.7
1729.0;1619.6;;;;;;;;;;;;;;;;;61.49861;54.525135;-124.91989;;1542.3
1729.0;1619.6;;;;;;;;;;;;;;1.323893;0.45997497;0.074221015;;;;;1542.3
1729.0;1619.6;;;;;;;;;;;;;;;;;59.694206;46.98706;-120.0293;;1542.3
1729.0;1619.6;;;;;;;;;;;;;;1.368572;0.49720755;0.0040894803;;;;;1542.3
1729.0;1619.6;;;;;;;;;;;;;;;;;55.795464;46.102024;-108.51619;;1552.0
1729.0;1619.6;;;;;;;;;;;;;;1.3684499;0.47993407;-0.05383465;;;;;1552.0
1729.0;1619.6;;;;;;;;;;;;;;;;;50.09613;48.24595;-104.445786;;1552.0
1729.0;1619.6;;;;;;;;;;;;;;1.3249916;0.5481735;-0.03180029;;;;;1552.0
1729.0;1621.0;262143;262143;11767;;;;;;;;;;;;;;;;;;
1729.0;1628.6;;;;-1.225258;0.22651675;-0.32877734;;;;;;;;;;;;;;;
1729.0;1628.6;;;;-1.2186853;0.22198108;-0.3219109;;;;;;;;;;;;;;;
1729.0;1628.6;;;;-1.213585;0.21842578;-0.3150597;;;;;;;;;;;;;;;
1729.0;1628.6;;;;-1.2062799;0.21763232;-0.30736163;;;;;;;;;;;;;;;
1729.0;1628.6;;;;-1.1974412;0.21800616;-0.30013278;;;;;;;;;;;;;;;
1730.0;1638.6;;;;-1.1851274;0.21826175;-0.29222873;;;;;;;;;;;;;;;
1730.0;1638.6;;;;-1.1711274;0.21787265;-0.28390887;;;;;;;;;;;;;;;
1730.0;1638.6;;;;-1.1561319;0.21536258;-0.27616885;;;;;;;;;;;;;;;
1730.0;1638.6;;;;-1.1424142;0.2113953;-0.26744083;;;;;;;;;;;;;;;
1730.0;1638.6;;;;-1.1289331;0.20660403;-0.2588692;;;;;;;;;;;;;;;
1730.0;1641.1;262143;262143;11722;;;;;;;;;;;;;;;;;;
1730.0;1647.2;;;;;;;;;;;;;3042;;;;;;;;
1730.0;1647.2;;;;;;;;;;;;;3147;;;;;;;;
1730.0;1647.2;;;;;;;;;;;;;2988;;;;;;;;
1730.0;1647.2;;;;;;;;;;;;;2555;;;;;;;;
1730.0;1647.2;;;;;;;;;;;;;2216;;;;;;;;
1730.0;1648.7;;;;-1.1156465;0.2013512;-0.25075534;;;;;;;;;;;;;;;
1730.0;1648.7;;;;-1.1023027;0.1967583;-0.24201205;;;;;;;;;;;;;;;
1730.0;1648.7;;;;-1.0883409;0.19181827;-0.23352054;;;;;;;;;;;;;;;
1730.0;1648.7;;;;-1.0738794;0.1866646;-0.22528079;;;;;;;;;;;;;;;
1730.0;1648.7;;;;-1.0588037;0.18281557;-0.21628574;;;;;;;;;;;;;;;
1730.0;1658.8;;;;-1.0447427;0.17890169;-0.20723346;;;;;;;;;;;;;;;
1730.0;1658.8;;;;-1.0304261;0.17448427;-0.19983295;;;;;;;;;;;;;;;
1730.0;1658.8;;;;-1.0167123;0.17009355;-0.19330218;;;;;;;;;;;;;;;
1730.0;1658.8;;;;-1.0046464;0.16612627;-0.18646242;;;;;;;;;;;;;;;
1730.0;1658.8;;;;-0.9943048;0.16259386;-0.18133928;;;;;;;;;;;;;;;
1730.0;1661.3;262143;262143;11684;;;;;;;;;;;;;;;;;;
1732.0;1664.9;;;;;;;;;;;;;;;;;41.524246;45.728172;-102.904594;;1561.7
1732.0;1664.9;;;;;;;;;;;;;;1.2536393;0.60139775;-0.013550218;;;;;1561.7
1732.0;1664.9;;;;;;;;;;;;;;;;;33.700066;39.204838;-96.69027;;1561.7
1732.0;1664.9;;;;;;;;;;;;;;1.2048097;0.6011536;-0.029786065;;;;;1561.7
1732.0;1664.9;;;;;;;;;;;;;;;;;26.654104;33.581806;-87.37831;;1571.3
1732.0;1664.9;;;;;;;;;;;;;;1.1908323;0.57136756;-0.051576283;;;;;1571.3
1732.0;1664.9;;;;;;;;;;;;;;;;;16.495255;32.444992;-79.3939;;1571.3
1732.0;1664.9;;;;;;;;;;;;;;1.173925;0.48670918;-0.06762902;;;;;1571.3
1732.0;1664.9;;;;;;;;;;;;;;;;;5.6421094;32.456436;-74.43465;;1580.9
1732.0;1664.9;;;;;;;;;;;;;;1.1468246;0.41029084;-0.04364147;;;;;1580.9
1732.0;1664.9;;;;;;;;;;;;;;;;;-4.299295;30.030212;-70.87542;;1580.9
1732.0;1664.9;;;;;;;;;;;;;;1.1090426;0.32807398;-0.025269326;;;;;1580.9
1732.0;1668.8;;;;-0.98472226;0.15897752;-0.17623903;;;;;;;;;;;;;;;
1732.0;1668.8;;;;-0.9739305;0.15378954;-0.17147066;;;;;;;;;;;;;;;
1732.0;1668.8;;;;-0.9620172;0.14807893;-0.16722871;;;;;;;;;;;;;;;
1732.0;1668.8;;;;-0.9492265;0.1426201;-0.16271211;;;;;;;;;;;;;;;
1732.0;1668.8;;;;-0.9372827;0.13615038;-0.1576233;;;;;;;;;;;;;;;
1733.0;1672.3;;;;;;;;;;;;;;;;;-12.337108;26.871548;-67.339096;;1590.6
1733.0;1672.3;;;;;;;;;;;;;;1.0511795;0.2484817;-0.0021973327;;;;;1590.6
1733.0;1672.3;;;;;;;;;;;;;;;;;-18.257698;22.865993;-65.40117;;1590.6
1733.0;1672.3;;;;;;;;;;;;;;0.99990845;0.21539964;0.016724143;;;;;1590.6
1733.0;1672.3;;;;;;;;;;;;;;;;;-21.11118;18.94055;-61.643574;;1600.3
1733.0;1672.3;;;;;;;;;;;;;;0.9479659;0.17053743;0.039613027;;;;;1600.3
1733.0;1672.3;;;;;;;;;;;;;;;;;-22.679068;15.404218;-58.98465;;1600.3
1733.0;1672.3;;;;;;;;;;;;;;0.8908963;0.14136174;0.04626606;;;;;1600.3
1733.0;1672.3;;;;;;;;;;;;;;;;;-22.362436;11.738182;-55.749687;;1609.8
1733.0;1672.3;;;;;;;;;;;;;;0.8321787;0.12280648;0.058656577;;;;;1609.8
1733.0;1672.3;;;;;;;;;;;;;;;;;-20.950956;6.992553;-52.43843;;1609.8
1733.0;1672.3;;;;;;;;;;;;;;0.77120274;0.10730308;0.06634724;;;;;1609.8
1733.0;1678.8;;;;-0.9269563;0.13094713;-0.15486528;;;;;;;;;;;;;;;
1733.0;1678.8;;;;-0.9175149;0.12543489;-0.15173341;;;;;;;;;;;;;;;
1733.0;1678.8;;;;-0.9095193;0.11999895;-0.14797975;;;;;;;;;;;;;;;
1733.0;1678.8;;;;-0.90275204;0.11476137;-0.14508821;;;;;;;;;;;;;;;
1733.0;1678.8;;;;-0.8961259;0.10916139;-0.14284135;;;;;;;;;;;;;;;
1733.0;1681.2;262143;262143;11633;;;;;;;;;;;;;;;;;;
1733.0;1687.4;;;;;;;;;;;;;2412;;;;;;;;
1733.0;1687.4;;;;;;;;;;;;;3208;;;;;;;;
1733.0;1687.4;;;;;;;;;;;;;3967;;;;;;;;
1733.0;1687.4;;;;;;;;;;;;;3817;;;;;;;;
1733.0;1687.4;;;;;;;;;;;;;2637;;;;;;;;
1788.0;1688.8;;;;-0.89003384;0.10393144;-0.14085008;;;;;;;;;;;;;;;
1788.0;1688.8;;;;-0.88417065;0.09852983;-0.13855745;;;;;;;;;;;;;;;
1788.0;1688.8;;;;-0.87796414;0.09282685;-0.13689806;;;;;;;;;;;;;;;
1788.0;1688.8;;;;-0.8726121;0.08714295;-0.13678361;;;;;;;;;;;;;;;
1788.0;1688.8;;;;-0.8671571;0.08127213;-0.1361046;;;;;;;;;;;;;;;
1788.0;1698.6;;;;-0.8615991;0.07564927;-0.13558199;;;;;;;;;;;;;;;
1788.0;1698.6;;;;-0.8568193;0.07081605;-0.1355858;;;;;;;;;;;;;;;
1788.0;1698.6;;;;-0.8524705;0.06528092;-0.1357155;;;;;;;;;;;;;;;
1788.0;1698.6;;;;-0.8480722;0.06052781;-0.13638307;;;;;;;;;;;;;;;
1788.0;1698.6;;;;-0.8445474;0.055976875;-0.13637926;;;;;;;;;;;;;;;
1788.0;1701.2;262143;262143;11595;;;;;;;;;;;;;;;;;;
1788.0;1708.7;;;;-0.8407365;0.051208504;-0.13685991;;;;;;;;;;;;;;;
1788.0;1708.7;;;;-0.8381425;0.047512062;-0.13732912;;;;;;;;;;;;;;;
1788.0;1708.7;;;;-0.83410275;0.043773655;-0.137661;;;;;;;;;;;;;;;
1788.0;1708.7;;;;-0.8306886;0.04070664;-0.13920595;;;;;;;;;;;;;;;
1788.0;1708.7;;;;-0.8267175;0.037910465;-0.14030458;;;;;;;;;;;;;;;
1788.0;1718.8;;;;-0.82262814;0.035549168;-0.14092256;;;;;;;;;;;;;;;
1788.0;1718.8;;;;-0.81834805;0.0337143;-0.14063646;;;;;;;;;;;;;;;
1788.0;1718.8;;;;-0.8137475;0.032054905;-0.14110185;;;;;;;;;;;;;;;
1788.0;1718.8;;;;-0.80872357;0.031265263;-0.14054109;;;;;;;;;;;;;;;
1788.0;1718.8;;;;-0.80274594;0.031085972;-0.13870622;;;;;;;;;;;;;;;
1812.0;1721.5;262143;262143;11569;;;;;;;;;;;;;;;;;;
1812.0;1725.4;;;;;;;;;;;;;;;;;-18.581957;2.113407;-48.596912;;1619.5
1812.0;1725.4;;;;;;;;;;;;;;0.6986908;0.091677606;0.06952117;;;;;1619.5
1812.0;1725.4;;;;;;;;;;;;;;;;;-16.354107;-3.3646657;-43.8551;;1619.5
1812.0;1725.4;;;;;;;;;;;;;;0.64387953;0.08832057;0.07202368;;;;;1619.5
1812.0;1725.4;;;;;;;;;;;;;;;;;-13.61507;-8.339183;-39.05606;;1629.1
1812.0;1725.4;;;;;;;;;;;;;;0.5924253;0.07660146;0.058229316;;;;;1629.1
1812.0;1725.4;;;;;;;;;;;;;;;;;-11.848811;-11.127811;-34.77584;;1629.1
1812.0;1725.4;;;;;;;;;;;;;;0.552324;0.088015385;0.06884976;;;;;1629.1
1812.0;1725.4;;;;;;;;;;;;;;;;;-10.120701;-13.966033;-29.160437;;1638.8
1812.0;1725.4;;;;;;;;;;;;;;0.524369;0.09765923;0.060670797;;;;;1638.8
1812.0;1725.4;;;;;;;;;;;;;;;;;-7.5838494;-14.95407;-23.277992;;1638.8
1812.0;1725.4;;;;;;;;;;;;;;0.50703454;0.10467849;0.05755791;;;;;1638.8
1813.0;1726.0;;;;;;;;;;;;;;;;;-5.5772576;-14.427626;-18.166143;;1648.5
1813.0;1726.0;;;;;;;;;;;;;;0.48847926;0.119205296;0.071657464;;;;;1648.5
1813.0;1726.0;;;;;;;;;;;;;;;;;-4.772332;-14.805292;-12.524033;;1648.5
1813.0;1726.0;;;;;;;;;;;;;;0.48268074;0.1309244;0.090701014;;;;;1648.5
1813.0;1726.0;;;;;;;;;;;;;;;;;-3.7003694;-15.900145;-6.6072574;;1658.1
1813.0;1726.0;;;;;;;;;;;;;;0.49720755;0.13678396;0.101504564;;;;;1658.1
1813.0;1726.0;;;;;;;;;;;;;;;;;-3.276925;-15.724663;-1.4725181;;1658.1
1813.0;1726.0;;;;;;;;;;;;;;0.5067293;0.14923552;0.12268441;;;;;1658.1
1813.0;1726.0;;;;;;;;;;;;;;;;;-3.7041843;-15.14481;3.3494065;;1667.8
1813.0;1726.0;;;;;;;;;;;;;;0.5133824;0.16986603;0.15271463;;;;;1667.8
1813.0;1726.0;;;;;;;;;;;;;;;;;-4.6617026;-15.5796995;8.18659;;1667.8
1813.0;1726.0;;;;;;;;;;;;;;0.52070683;0.18158513;0.16626485;;;;;1667.8
1813.0;1727.3;;;;;;;;;;;;;1248;;;;;;;;
1813.0;1727.3;;;;;;;;;;;;;643;;;;;;;;
1813.0;1727.3;;;;;;;;;;;;;913;;;;;;;;
1813.0;1727.3;;;;;;;;;;;;;1301;;;;;;;;
1813.0;1727.3;;;;;;;;;;;;;1247;;;;;;;;
1813.0;1728.6;;;;-0.7966882;0.028965;-0.14123155;;;;;;;;;;;;;;;
1813.0;1728.6;;;;-0.7964784;0.028034214;-0.14004137;;;;;;;;;;;;;;;
1813.0;1728.6;;;;-0.7951089;0.028236393;-0.13583376;;;;;;;;;;;;;;;
1813.0;1728.6;;;;-0.794613;0.030776981;-0.13734438;;;;;;;;;;;;;;;
1813.0;1728.6;;;;-0.7928506;0.033596043;-0.13845064;;;;;;;;;;;;;;;
1813.0;1738.6;;;;;;;;;;0.59511095;19.581438;-1.4343699;;;;;;;;;
1813.0;1738.6;;;;;;;0.8462172;-0.04181036;-0.25458542;;;;;;;;;;;;
1813.0;1738.6;;;;;;;;;;7.145146;30.19425;7.915738;;;;;;;;;
1813.0;1738.6;;;;;;;0.9466842;-0.03875851;-0.2846156;;;;;;;;;;;;
1849.0;1738.7;;;;-0.7869226;0.03527451;-0.13845445;;;;;;;;;;;;;;;
1849.0;1738.7;;;;-0.7802583;0.037082676;-0.13864519;;;;;;;;;;;;;;;
1849.0;1738.7;;;;-0.7754289;0.0387764;-0.13879777;;;;;;;;;;;;;;;
1849.0;1738.7;;;;-0.7719079;0.04003525;-0.1385689;;;;;;;;;;;;;;;
1849.0;1738.7;;;;-0.7691499;0.042484287;-0.13938142;;;;;;;;;;;;;;;
1849.0;1741.3;262143;262143;11570;;;;;;;;;;;;;;;;;;
1849.0;1748.1;;;;;;;;;;3.4066288;3.3913696;-1.12537;;;;;;;;;
1849.0;1748.1;;;;;;;0.94174016;-0.034730066;-0.28168583;;;;;;;;;;;;
1849.0;1748.1;;;;;;;;;;12.478255;14.973144;8.198035;;;;;;;;;
1849.0;1748.1;;;;;;;0.93478197;-0.03070162;-0.27863398;;;;;;;;;;;;
1849.0;1748.6;;;;-0.7667085;0.044162754;-0.14100648;;;;;;;;;;;;;;;
1849.0;1748.6;;;;-0.7632295;0.044990543;-0.14163591;;;;;;;;;;;;;;;
1849.0;1748.6;;;;-0.76031125;0.045673374;-0.1413994;;;;;;;;;;;;;;;
1849.0;1748.6;;;;-0.7571908;0.04608536;-0.14263918;;;;;;;;;;;;;;;
1849.0;1748.6;;;;-0.7544328;0.046260837;-0.14394762;;;;;;;;;;;;;;;
1849.0;1757.5;;;;;;;;;;18.120365;14.141514;9.781182;;;;;;;;;
1849.0;1757.5;;;;;;;0.928312;-0.027954955;-0.27375102;;;;;;;;;;;;
1849.0;1757.5;;;;;;;;;;18.32255;-22.988068;-9.796441;;;;;;;;;
1849.0;1757.5;;;;;;;0.9139683;-0.025940733;-0.26880702;;;;;;;;;;;;
1852.0;1758.5;;;;-0.7517549;0.04636002;-0.1443062;;;;;;;;;;;;;;;
1852.0;1758.5;;;;-0.7488709;0.04627228;-0.14538957;;;;;;;;;;;;;;;
1852.0;1758.5;;;;-0.74657446;0.04574204;-0.14680101;;;;;;;;;;;;;;;
1852.0;1758.5;;;;-0.74457175;0.045204166;-0.1486397;;;;;;;;;;;;;;;
1852.0;1758.5;;;;-0.742611;0.044319157;-0.1493416;;;;;;;;;;;;;;;
1852.0;1761.3;262143;262143;11574;;;;;;;;;;;;;;;;;;
1852.0;1767.1;;;;;;;;;;23.327585;-25.593584;-9.571368;;;;;;;;;
1852.0;1767.1;;;;;;;0.9020661;-0.025330363;-0.26545;;;;;;;;;;;;
1852.0;1767.1;;;;;;;;;;28.263954;-27.53151;-9.376812;;;;;;;;;
1852.0;1767.1;;;;;;;0.8880276;-0.026245918;-0.2609943;;;;;;;;;;;;
1852.0;1767.4;;;;;;;;;;;;;698;;;;;;;;
1852.0;1767.4;;;;;;;;;;;;;-146;;;;;;;;
1852.0;1767.4;;;;;;;;;;;;;-1534;;;;;;;;
1852.0;1767.4;;;;;;;;;;;;;-1706;;;;;;;;
1852.0;1767.4;;;;;;;;;;;;;1646;;;;;;;;
1852.0;1768.6;;;;-0.7398339;0.043415073;-0.15077974;;;;;;;;;;;;;;;
1852.0;1768.6;;;;-0.7359696;0.042995457;-0.15203859;;;;;;;;;;;;;;;
1852.0;1768.6;;;;-0.7317162;0.042976383;-0.15333177;;;;;;;;;;;;;;;
1852.0;1768.6;;;;-0.7284623;0.042297367;-0.15415956;;;;;;;;;;;;;;;
1852.0;1768.6;;;;-0.7245026;0.04169846;-0.1551285;;;;;;;;;;;;;;;
1852.0;1776.7;;;;;;;;;;31.68966;-21.130253;-3.521073;;;;;;;;;
1852.0;1776.7;;;;;;;0.87490463;-0.02478103;-0.25586718;;;;;;;;;;;;
1852.0;1776.7;;;;;;;;;;31.880398;-12.9207735;2.910703;;;;;;;;;
1852.0;1776.7;;;;;;;0.8580584;-0.026306955;-0.2525712;;;;;;;;;;;;
1854.0;1778.8;;;;-0.72100836;0.04111481;-0.15657045;;;;;;;;;;;;;;;
1854.0;1778.8;;;;-0.71755224;0.040531162;-0.15753938;;;;;;;;;;;;;;;
1854.0;1778.8;;;;-0.7137528;0.039844517;-0.16197206;;;;;;;;;;;;;;;
1854.0;1778.8;;;;-0.70991904;0.038631443;-0.16630174;;;;;;;;;;;;;;;
1854.0;1778.8;;;;-0.70517355;0.038551334;-0.16548158;;;;;;;;;;;;;;;
1854.0;1781.5;262143;262143;11566;;;;;;;;;;;;;;;;;;
1854.0;1785.0;;;;;;;;;;;;;;;;;-5.989258;-15.259254;12.752922;;1677.4
1854.0;1785.0;;;;;;;;;;;;;;0.5153966;0.18250069;0.1770684;;;;;1677.4
1854.0;1785.0;;;;;;;;;;;;;;;;;-6.981109;-14.85107;17.17429;;1677.4
1854.0;1785.0;;;;;;;;;;;;;;0.5191809;0.18335521;0.1848201;;;;;1677.4
1854.0;1785.0;;;;;;;;;;;;;;;;;-7.0726647;-14.202551;21.33244;;1686.9
1854.0;1785.0;;;;;;;;;;;;;;0.5303507;0.1904355;0.19330424;;;;;1686.9
1854.0;1785.0;;;;;;;;;;;;;;;;;-6.698813;-13.149663;24.781029;;1686.9
1854.0;1785.0;;;;;;;;;;;;;;0.53187656;0.19275491;0.20044558;;;;;1686.9
1854.0;1785.0;;;;;;;;;;;;;;;;;-5.878628;-12.215034;28.035065;;1696.6
1854.0;1785.0;;;;;;;;;;;;;;0.52174443;0.18787195;0.20355846;;;;;1696.6
1854.0;1785.0;;;;;;;;;;;;;;;;;-4.753258;-12.661366;30.938139;;1696.6
1854.0;1785.0;;;;;;;;;;;;;;0.5108799;0.1821955;0.18860438;;;;;1696.6
1855.0;1785.8;;;;;;;;;;;;;;;;;-3.4981842;-13.866847;33.875546;;1706.3
1855.0;1785.8;;;;;;;;;;;;;;0.50129706;0.1678518;0.16034424;;;;;1706.3
1855.0;1785.8;;;;;;;;;;;;;;;;;-2.0638144;-15.339366;37.163914;;1706.3
1855.0;1785.8;;;;;;;;;;;;;;0.49464402;0.14319284;0.12292856;;;;;1706.3
1855.0;1785.8;;;;;;;;;;;;;;;;;-0.15640736;-16.247292;40.41795;;1716.0
1855.0;1785.8;;;;;;;;;;;;;;0.4965972;0.12359996;0.09595019;;;;;1716.0
1855.0;1785.8;;;;;;;;;;;;;;;;;1.739555;-17.017883;44.27854;;1716.0
1855.0;1785.8;;;;;;;;;;;;;;0.4934843;0.08539079;0.07635731;;;;;1716.0
1855.0;1785.8;;;;;;;;;;;;;;;;;3.4066288;-18.024994;49.287395;;1725.5
1855.0;1785.8;;;;;;;;;;;;;;0.48878446;0.040040284;0.054567095;;;;;1725.5
1855.0;1785.8;;;;;;;;;;;;;;;;;6.015961;-20.077364;54.502243;;1725.5
1855.0;1785.8;;;;;;;;;;;;;;0.49147007;-0.012756737;0.043153174;;;;;1725.5
1855.0;1786.1;;;;;;;;;;31.769768;-12.5125885;2.746666;;;;;;;;;
1855.0;1786.1;;;;;;;0.84127325;-0.02557451;-0.24860378;;;;;;;;;;;;
1855.0;1786.1;;;;;;;;;;31.613361;-12.176886;2.376629;;;;;;;;;
1855.0;1786.1;;;;;;;0.82326734;-0.026245918;-0.23920408;;;;;;;;;;;;
1855.0;1788.6;;;;-0.7002755;0.037944797;-0.15989687;;;;;;;;;;;;;;;
1855.0;1788.6;;;;-0.69491583;0.03746033;-0.15511705;;;;;;;;;;;;;;;
1855.0;1788.6;;;;-0.6897965;0.036708836;-0.15302278;;;;;;;;;;;;;;;
1855.0;1788.6;;;;-0.6859551;0.03598023;-0.15216829;;;;;;;;;;;;;;;
1855.0;1788.6;;;;-0.68381125;0.03469086;-0.15207292;;;;;;;;;;;;;;;
1855.0;1795.7;;;;;;;;;;31.29673;-11.638996;1.9493698;;;;;;;;;
1855.0;1795.7;;;;;;;0.80581075;-0.026062807;-0.23096408;;;;;;;;;;;;
1855.0;1795.7;;;;;;;;;;30.949583;-11.0400715;1.4305551;;;;;;;;;
1855.0;1795.7;;;;;;;0.78621787;-0.024292734;-0.22119816;;;;;;;;;;;;
1910.0;1798.7;;;;-0.68264014;0.033142094;-0.15087892;;;;;;;;;;;;;;;
1910.0;1798.7;;;;-0.67996603;0.031158451;-0.1508217;;;;;;;;;;;;;;;
1910.0;1798.7;;;;-0.6761437;0.028415684;-0.1521187;;;;;;;;;;;;;;;
1910.0;1798.7;;;;-0.67164236;0.02574921;-0.15496065;;;;;;;;;;;;;;;
1910.0;1798.7;;;;-0.66647345;0.023704533;-0.15528871;;;;;;;;;;;;;;;
1910.0;1801.4;262143;262143;11584;;;;;;;;;;;;;;;;;;
1910.0;1805.2;;;;;;;;;;30.61388;-10.425886;0.79729605;;;;;;;;;
1910.0;1805.2;;;;;;;0.76558733;-0.021057772;-0.21094394;;;;;;;;;;;;
1910.0;1805.2;;;;;;;;;;30.121769;-9.529405;0.04196295;;;;;;;;;
1910.0;1805.2;;;;;;;0.74666584;-0.018311106;-0.20105594;;;;;;;;;;;;
1910.0;1807.4;;;;;;;;;;;;;251;;;;;;;;
1910.0;1807.4;;;;;;;;;;;;;-16539;;;;;;;;
1910.0;1807.4;;;;;;;;;;;;;-39099;;;;;;;;
1910.0;1807.4;;;;;;;;;;;;;-44164;;;;;;;;
1910.0;1807.4;;;;;;;;;;;;;-24145;;;;;;;;
1910.0;1808.4;;;;-0.6600686;0.021846773;-0.1552582;;;;;;;;;;;;;;;
1910.0;1808.4;;;;-0.65346915;0.020603182;-0.15400316;;;;;;;;;;;;;;;
1910.0;1808.4;;;;-0.6472779;0.020072939;-0.15269853;;;;;;;;;;;;;;;
1910.0;1808.4;;;;-0.64280707;0.019344332;-0.15129091;;;;;;;;;;;;;;;
1910.0;1808.4;;;;-0.63883597;0.0186615;-0.14956285;;;;;;;;;;;;;;;
1910.0;1814.4;;;;;;;;;;29.725029;-8.571886;-0.7858516;;;;;;;;;
1910.0;1814.4;;;;;;;0.72737813;-0.017334513;-0.19177832;;;;;;;;;;;;
1910.0;1814.4;;;;;;;;;;29.301584;-7.621998;-1.617481;;;;;;;;;
1910.0;1814.4;;;;;;;0.7130955;-0.0112308115;-0.18182927;;;;;;;;;;;;
1912.0;1818.3;;;;-0.6357804;0.017967226;-0.14886095;;;;;;;;;;;;;;;
1912.0;1818.3;;;;-0.6338082;0.017536165;-0.14744188;;;;;;;;;;;;;;;
1912.0;1818.3;;;;-0.6325379;0.016815187;-0.14571764;;;;;;;;;;;;;;;
1912.0;1818.3;;;;-0.63179404;0.015701296;-0.14369966;;;;;;;;;;;;;;;
1912.0;1818.3;;;;-0.63117224;0.01514435;-0.14163591;;;;;;;;;;;;;;;
1912.0;1821.2;262143;262143;11587;;;;;;;;;;;;;;;;;;
1912.0;1824.0;;;;;;;;;;28.832361;-6.5881834;-2.4834437;;;;;;;;;
1912.0;1824.0;;;;;;;0.6999115;-0.006714072;-0.1744438;;;;;;;;;;;;
1912.0;1824.0;;;;;;;;;;28.477585;-5.4971466;-3.295999;;;;;;;;;
1912.0;1824.0;;;;;;;0.6870327;0.0014648885;-0.16705832;;;;;;;;;;;;
1912.0;1828.4;;;;-0.6298943;0.013675692;-0.13990785;;;;;;;;;;;;;;;
1912.0;1828.4;;;;-0.62982947;0.013072969;-0.1378174;;;;;;;;;;;;;;;
1912.0;1828.4;;;;-0.62987524;0.011882784;-0.1351433;;;;;;;;;;;;;;;
1912.0;1828.4;;;;-0.6301232;0.010555268;-0.13311388;;;;;;;;;;;;;;;
1912.0;1828.4;;;;-0.63034445;0.009246827;-0.12998201;;;;;;;;;;;;;;;
1912.0;1833.6;;;;;;;;;;28.080843;-4.448073;-4.078036;;;;;;;;;
1912.0;1833.6;;;;;;;0.67806023;0.0077517014;-0.16211432;;;;;;;;;;;;
1912.0;1833.6;;;;;;;;;;27.672657;-3.3036287;-4.844814;;;;;;;;;
1912.0;1833.6;;;;;;;0.66805017;0.016479995;-0.1563158;;;;;;;;;;;;
1913.0;1838.6;;;;-0.6306725;0.0077018747;-0.128006;;;;;;;;;;;;;;;
1913.0;1838.6;;;;-0.6308976;0.0062446604;-0.12601854;;;;;;;;;;;;;;;
1913.0;1838.6;;;;-0.6315537;0.0048484807;-0.12326433;;;;;;;;;;;;;;;
1913.0;1838.6;;;;-0.63208395;0.0034790044;-0.12113191;;;;;;;;;;;;;;;
1913.0;1838.6;;;;-0.632454;0.0022430422;-0.119136825;;;;;;;;;;;;;;;
1913.0;1841.5;262143;262143;11603;;;;;;;;;;;;;;;;;;
1913.0;1843.3;;;;;;;;;;27.23014;-2.1591845;-5.5963316;;;;;;;;;
1913.0;1843.3;;;;;;;0.6630451;0.025147252;-0.15363018;;;;;;;;;;;;
1913.0;1843.3;;;;;;;;;;26.860104;-1.0414442;-6.2944427;;;;;;;;;
1913.0;1843.3;;;;;;;0.6560259;0.03234962;-0.15057832;;;;;;;;;;;;
1913.0;1845.4;;;;;;;;;;;;;;;;;8.869442;-22.648548;60.640278;;1735.1
1913.0;1845.4;;;;;;;;;;;;;;0.49574268;-0.065981016;0.020935697;;;;;1735.1
1913.0;1845.4;;;;;;;;;;;;;;;;;13.733329;-25.513474;68.613235;;1735.1
1913.0;1845.4;;;;;;;;;;;;;;0.48890653;-0.1380047;-0.014282662;;;;;1735.1
1913.0;1845.4;;;;;;;;;;;;;;;;;21.637625;-27.26066;76.18183;;1744.8
1913.0;1845.4;;;;;;;;;;;;;;0.47737053;-0.20490128;-0.03930784;;;;;1744.8
1913.0;1845.4;;;;;;;;;;;;;;;;;32.296215;-28.359325;81.45772;;1744.8
1913.0;1845.4;;;;;;;;;;;;;;0.47059542;-0.23505355;-0.043702506;;;;;1744.8
1913.0;1845.4;;;;;;;;;;;;;;;;;44.93469;-31.01825;87.09983;;1754.4
1913.0;1845.4;;;;;;;;;;;;;;0.48493913;-0.24427015;-0.058534503;;;;;1754.4
1913.0;1845.4;;;;;;;;;;;;;;;;;57.939392;-33.207954;93.485825;;1754.4
1913.0;1845.4;;;;;;;;;;;;;;0.50178534;-0.2327952;-0.0910062;;;;;1754.4
1914.0;1846.2;;;;;;;;;;;;;;;;;69.627975;-33.249916;100.15793;;1764.0
1914.0;1846.2;;;;;;;;;;;;;;0.5081332;-0.21295816;-0.091250345;;;;;1764.0
1914.0;1846.2;;;;;;;;;;;;;;;;;77.223274;-34.43632;104.575485;;1764.0
1914.0;1846.2;;;;;;;;;;;;;;0.5202795;-0.10620441;-0.05145421;;;;;1764.0
1914.0;1846.2;;;;;;;;;;;;;;;;;81.57979;-39.80758;107.57394;;1773.7
1914.0;1846.2;;;;;;;;;;;;;;0.5258339;0.054567095;-0.0054933317;;;;;1773.7
1914.0;1846.2;;;;;;;;;;;;;;;;;83.731346;-48.551136;112.125;;1773.7
1914.0;1846.2;;;;;;;;;;;;;;0.49452192;0.14966278;0.006714072;;;;;1773.7
1914.0;1846.2;;;;;;;;;;;;;;;;;81.85827;-56.936092;114.61989;;1783.2
1914.0;1846.2;;;;;;;;;;;;;;0.4967803;0.23065889;-0.014160588;;;;;1783.2
1914.0;1846.2;;;;;;;;;;;;;;;;;76.18946;-60.720387;115.40575;;1783.2
1914.0;1846.2;;;;;;;;;;;;;;0.55739003;0.30793175;-0.035096288;;;;;1783.2
1914.0;1847.5;;;;;;;;;;;;;2115;;;;;;;;
1914.0;1847.5;;;;;;;;;;;;;12952;;;;;;;;
1914.0;1847.5;;;;;;;;;;;;;8545;;;;;;;;
1914.0;1847.5;;;;;;;;;;;;;3572;;;;;;;;
1914.0;1847.5;;;;;;;;;;;;;4265;;;;;;;;
1914.0;1848.5;;;;-0.63377005;0.001022339;-0.117992416;;;;;;;;;;;;;;;
1914.0;1848.5;;;;-0.63589483;-2.0217898E-4;-0.1180916;;;;;;;;;;;;;;;
1914.0;1848.5;;;;-0.6389962;-0.0014877322;-0.1172867;;;;;;;;;;;;;;;
1914.0;1848.5;;;;-0.6427918;-0.0021133425;-0.11737825;;;;;;;;;;;;;;;
1914.0;1848.5;;;;-0.6467629;-0.0029640202;-0.11804964;;;;;;;;;;;;;;;
1914.0;1852.7;;;;;;;;;;26.497696;0.29374066;-6.96585;;;;;;;;;
1914.0;1852.7;;;;;;;0.6506546;0.039796136;-0.1490524;;;;;;;;;;;;
1914.0;1852.7;;;;;;;;;;26.177252;1.4877774;-7.6029234;;;;;;;;;
1914.0;1852.7;;;;;;;0.64766383;0.042664878;-0.14862514;;;;;;;;;;;;
1970.0;1858.6;;;;-0.6508103;-0.0043945317;-0.11921312;;;;;;;;;;;;;;;
1970.0;1858.6;;;;-0.65460974;-0.005275727;-0.12074281;;;;;;;;;;;;;;;
1970.0;1858.6;;;;-0.65907675;-0.006210328;-0.122928634;;;;;;;;;;;;;;;
1970.0;1858.6;;;;-0.66338354;-0.0065193186;-0.12561037;;;;;;;;;;;;;;;
1970.0;1858.6;;;;-0.66787726;-0.007167817;-0.12781145;;;;;;;;;;;;;;;
1970.0;1861.5;262143;262143;11620;;;;;;;;;;;;;;;;;;
1970.0;1862.2;;;;;;;;;;25.818659;2.8153324;-8.213294;;;;;;;;;
1970.0;1862.2;;;;;;;0.6451613;0.0496231;-0.14783166;;;;;;;;;;;;
1970.0;1862.2;;;;;;;;;;25.524918;4.0055547;-8.842738;;;;;;;;;
1970.0;1862.2;;;;;;;0.6450392;0.05182043;-0.14917448;;;;;;;;;;;;
1970.0;1868.6;;;;-0.67337424;-0.008205415;-0.13132478;;;;;;;;;;;;;;;
1970.0;1868.6;;;;-0.67999274;-0.008682252;-0.13377;;;;;;;;;;;;;;;
1970.0;1868.6;;;;-0.68710333;-0.008983613;-0.13703538;;;;;;;;;;;;;;;
1970.0;1868.6;;;;-0.6946526;-0.009471894;-0.1394272;;;;;;;;;;;;;;;
1970.0;1868.6;;;;-0.7031861;-0.010303498;-0.14239503;;;;;;;;;;;;;;;
1970.0;1871.6;;;;;;;;;;25.204473;5.165258;-9.472182;;;;;;;;;
1970.0;1871.6;;;;;;;0.64821315;0.051576283;-0.1528367;;;;;;;;;;;;
1970.0;1871.6;;;;;;;;;;24.99466;6.2105165;-10.124516;;;;;;;;;
1970.0;1871.6;;;;;;;0.6508377;0.052308727;-0.156621;;;;;;;;;;;;
1972.0;1878.3;;;;-0.7113381;-0.010314942;-0.14554597;;;;;;;;;;;;;;;
1972.0;1878.3;;;;-0.71968466;-0.009536744;-0.14879991;;;;;;;;;;;;;;;
1972.0;1878.3;;;;-0.727871;-0.0087127695;-0.15140153;;;;;;;;;;;;;;;
1972.0;1878.3;;;;-0.73608786;-0.008064271;-0.15434267;;;;;;;;;;;;;;;
1972.0;1878.3;;;;-0.7440339;-0.0066337595;-0.15682222;;;;;;;;;;;;;;;
1972.0;1881.1;;;;;;;;;;24.662771;7.126072;-10.727257;;;;;;;;;
1972.0;1881.1;;;;;;;0.65144813;0.051698357;-0.16205329;;;;;;;;;;;;
1972.0;1881.1;;;;;;;;;;24.304178;7.9958496;-11.223182;;;;;;;;;
1972.0;1881.1;;;;;;;0.651326;0.052369762;-0.16657002;;;;;;;;;;;;
1972.0;1881.4;262143;262143;11612;;;;;;;;;;;;;;;;;;
1972.0;1887.5;;;;;;;;;;;;;4936;;;;;;;;
1972.0;1887.5;;;;;;;;;;;;;3643;;;;;;;;
1972.0;1887.5;;;;;;;;;;;;;3112;;;;;;;;
1972.0;1887.5;;;;;;;;;;;;;2891;;;;;;;;
1972.0;1887.5;;;;;;;;;;;;;2507;;;;;;;;
1972.0;1888.4;;;;-0.7517587;-0.0051918034;-0.15954591;;;;;;;;;;;;;;;
1972.0;1888.4;;;;-0.7594949;-0.0036315923;-0.16300584;;;;;;;;;;;;;;;
1972.0;1888.4;;;;-0.76614773;-0.001842499;-0.16559984;;;;;;;;;;;;;;;
1972.0;1888.4;;;;-0.77297986;3.5858157E-4;-0.16951753;;;;;;;;;;;;;;;
1972.0;1888.4;;;;-0.78017056;0.0024909975;-0.17328264;;;;;;;;;;;;;;;
1972.0;1890.7;;;;;;;;;;24.124882;8.777886;-11.555071;;;;;;;;;
1972.0;1890.7;;;;;;;0.6520585;0.051637318;-0.17181921;;;;;;;;;;;;
1972.0;1890.7;;;;;;;;;;23.77392;9.475998;-11.810663;;;;;;;;;
1972.0;1890.7;;;;;;;0.65504926;0.05365154;-0.17645802;;;;;;;;;;;;
1973.0;1898.6;;;;-0.7873994;0.0047149663;-0.17762758;;;;;;;;;;;;;;;
1973.0;1898.6;;;;-0.7949487;0.0071754465;-0.18078233;;;;;;;;;;;;;;;
1973.0;1898.6;;;;-0.80204785;0.009990693;-0.18465044;;;;;;;;;;;;;;;
1973.0;1898.6;;;;-0.8090669;0.013328554;-0.1887131;;;;;;;;;;;;;;;
1973.0;1898.6;;;;-0.8164636;0.016700746;-0.1927109;;;;;;;;;;;;;;;
1973.0;1900.3;;;;;;;;;;23.461103;10.048219;-12.150182;;;;;;;;;
1973.0;1900.3;;;;;;;0.66139716;0.056703392;-0.18323313;;;;;;;;;;;;
1973.0;1900.3;;;;;;;;;;23.209326;10.578479;-12.535478;;;;;;;;;
1973.0;1900.3;;;;;;;0.67281103;0.055848874;-0.19220558;;;;;;;;;;;;
1973.0;1901.6;262143;262143;11643;;;;;;;;;;;;;;;;;;
1973.0;1905.1;;;;;;;;;;;;;;;;;65.09217;-57.62276;117.16819;;1792.8
1973.0;1905.1;;;;;;;;;;;;;;0.61238444;0.36774805;-0.036561176;;;;;1792.8
1973.0;1905.1;;;;;;;;;;;;;;;;;49.28358;-50.256355;119.2053;;1792.8
1973.0;1905.1;;;;;;;;;;;;;;0.6422315;0.40559098;-0.0012817774;;;;;1792.8
1973.0;1905.1;;;;;;;;;;;;;;;;;31.392101;-44.999542;119.72793;;1802.5
1973.0;1905.1;;;;;;;;;;;;;;0.6751305;0.43195897;0.031067843;;;;;1802.5
1973.0;1905.1;;;;;;;;;;;;;;;;;13.504441;-42.748802;118.62545;;1802.5
1973.0;1905.1;;;;;;;;;;;;;;0.6938078;0.45387128;0.04364147;;;;;1802.5
1973.0;1905.1;;;;;;;;;;;;;;;;;-4.8219247;-41.97821;114.814445;;1812.2
1973.0;1905.1;;;;;;;;;;;;;;0.74202704;0.5216834;0.04687643;;;;;1812.2
1973.0;1905.1;;;;;;;;;;;;;;;;;-20.699179;-41.100803;115.53163;;1812.2
1973.0;1905.1;;;;;;;;;;;;;;0.79464096;0.53511155;0.037049472;;;;;1812.2
1975.0;1905.8;;;;;;;;;;;;;;;;;-32.109287;-35.73336;112.80785;;1821.6
1975.0;1905.8;;;;;;;;;;;;;;0.8658101;0.5449385;0.02191229;;;;;1821.6
1975.0;1905.8;;;;;;;;;;;;;;;;;-37.430954;-24.075289;106.9216;;1821.6
1975.0;1905.8;;;;;;;;;;;;;;0.9502854;0.5620899;0.0047608875;;;;;1821.6
1975.0;1905.8;;;;;;;;;;;;;;;;;-30.541397;-13.065737;103.896454;;1831.3
1975.0;1905.8;;;;;;;;;;;;;;0.98281807;0.5861995;-0.0048219245;;;;;1831.3
1975.0;1905.8;;;;;;;;;;;;;;;;;-11.917479;-9.147923;101.252785;;1831.3
1975.0;1905.8;;;;;;;;;;;;;;0.9904477;0.57399213;-0.061159093;;;;;1831.3
1975.0;1905.8;;;;;;;;;;;;;;;;;16.628773;-9.685812;95.664085;;1841.0
1975.0;1905.8;;;;;;;;;;;;;;0.9941099;0.5701468;-0.12634663;;;;;1841.0
1975.0;1905.8;;;;;;;;;;;;;;;;;46.21647;-13.71044;88.66771;;1841.0
1975.0;1905.8;;;;;;;;;;;;;;1.0083315;0.5663625;-0.21710868;;;;;1841.0
1975.0;1908.4;;;;-0.82348263;0.020103456;-0.19625857;;;;;;;;;;;;;;;
1975.0;1908.4;;;;-0.828827;0.023830418;-0.20011142;;;;;;;;;;;;;;;
1975.0;1908.4;;;;-0.8333398;0.028240208;-0.2025452;;;;;;;;;;;;;;;
1975.0;1908.4;;;;-0.83646023;0.031959537;-0.20535663;;;;;;;;;;;;;;;
1975.0;1908.4;;;;-0.83877194;0.035881046;-0.20640185;;;;;;;;;;;;;;;
1975.0;1909.7;;;;;;;;;;22.953733;10.9408865;-12.913144;;;;;;;;;
1975.0;1909.7;;;;;;;0.68007445;0.05529954;-0.19953002;;;;;;;;;;;;
1975.0;1909.7;;;;;;;;;;22.782066;11.146885;-13.286996;;;;;;;;;
1975.0;1909.7;;;;;;;0.6837367;0.056154057;-0.2059389;;;;;;;;;;;;
2031.0;1918.5;;;;-0.84023297;0.039974216;-0.20832065;;;;;;;;;;;;;;;
2031.0;1918.5;;;;-0.84175885;0.044059757;-0.21023563;;;;;;;;;;;;;;;
2031.0;1918.5;;;;-0.84342206;0.047962196;-0.21205905;;;;;;;;;;;;;;;
2031.0;1918.5;;;;-0.84565747;0.051265724;-0.21263126;;;;;;;;;;;;;;;
2031.0;1918.5;;;;-0.8478395;0.05403901;-0.2134743;;;;;;;;;;;;;;;
2031.0;1919.3;;;;;;;;;;22.698141;11.406293;-13.405255;;;;;;;;;
2031.0;1919.3;;;;;;;0.68874174;0.049806207;-0.21124913;;;;;;;;;;;;
2031.0;1919.3;;;;;;;;;;22.583696;11.658071;-13.454848;;;;;;;;;
2031.0;1919.3;;;;;;;0.6886197;0.050416578;-0.21680349;;;;;;;;;;;;
2031.0;1921.5;262143;262143;11663;;;;;;;;;;;;;;;;;;
2031.0;1927.5;;;;;;;;;;;;;2331;;;;;;;;
2031.0;1927.5;;;;;;;;;;;;;2084;;;;;;;;
2031.0;1927.5;;;;;;;;;;;;;1764;;;;;;;;
2031.0;1927.5;;;;;;;;;;;;;1279;;;;;;;;
2031.0;1927.5;;;;;;;;;;;;;597;;;;;;;;
2031.0;1928.5;;;;-0.85073864;0.057388313;-0.21454623;;;;;;;;;;;;;;;
2031.0;1928.5;;;;-0.85242474;0.060306557;-0.21523288;;;;;;;;;;;;;;;
2031.0;1928.5;;;;-0.85346997;0.06292344;-0.21538547;;;;;;;;;;;;;;;
2031.0;1928.5;;;;-0.85367215;0.06473542;-0.21590427;;;;;;;;;;;;;;;
2031.0;1928.5;;;;-0.8537904;0.06653214;-0.21667865;;;;;;;;;;;;;;;
2031.0;1928.8;;;;;;;;;;22.488325;11.715293;-13.4167;;;;;;;;;
2031.0;1928.8;;;;;;;0.694174;0.04547258;-0.22193061;;;;;;;;;;;;
2031.0;1928.8;;;;;;;;;;22.453993;11.715293;-13.618885;;;;;;;;;
2031.0;1928.8;;;;;;;0.6989349;0.043336283;-0.22632527;;;;;;;;;;;;
2034.0;1938.3;;;;;;;;;;22.362436;11.722922;-13.843959;;;;;;;;;
2034.0;1938.3;;;;;;;0.70259714;0.043092135;-0.22858363;;;;;;;;;;;;
2034.0;1938.3;;;;;;;;;;22.320475;11.581775;-13.904996;;;;;;;;;
2034.0;1938.3;;;;;;;0.7094943;0.038819544;-0.23285623;;;;;;;;;;;;
2034.0;1938.4;;;;-0.85364544;0.06903077;-0.21672061;;;;;;;;;;;;;;;
2034.0;1938.4;;;;-0.85424817;0.071479805;-0.2166405;;;;;;;;;;;;;;;
2034.0;1938.4;;;;-0.8546792;0.07422639;-0.21689227;;;;;;;;;;;;;;;
2034.0;1938.4;;;;-0.8560258;0.07720185;-0.21763232;;;;;;;;;;;;;;;
2034.0;1938.4;;;;-0.85715115;0.07943726;-0.2172127;;;;;;;;;;;;;;;
2034.0;1941.6;262143;262143;11690;;;;;;;;;;;;;;;;;;
2034.0;1947.9;;;;;;;;;;22.328104;11.520738;-14.053774;;;;;;;;;
2034.0;1947.9;;;;;;;0.71535385;0.035096288;-0.23413801;;;;;;;;;;;;
2034.0;1947.9;;;;;;;;;;22.358622;11.360515;-14.103366;;;;;;;;;
2034.0;1947.9;;;;;;;0.7226783;0.029602954;-0.23590808;;;;;;;;;;;;
2034.0;1948.5;;;;-0.8580171;0.08102036;-0.21749881;;;;;;;;;;;;;;;
2034.0;1948.5;;;;-0.8590013;0.08300782;-0.21784595;;;;;;;;;;;;;;;
2034.0;1948.5;;;;-0.8601495;0.08486939;-0.2178345;;;;;;;;;;;;;;;
2034.0;1948.5;;;;-0.8620187;0.08594132;-0.21833804;;;;;;;;;;;;;;;
2034.0;1948.5;;;;-0.86399853;0.08694077;-0.21910861;;;;;;;;;;;;;;;
2034.0;1957.5;;;;;;;;;;22.328104;11.154515;-14.229255;;;;;;;;;
2034.0;1957.5;;;;;;;0.73104036;0.028199103;-0.23761712;;;;;;;;;;;;
2034.0;1957.5;;;;;;;;;;22.377697;10.826442;-14.33607;;;;;;;;;
2034.0;1957.5;;;;;;;0.7397687;0.025818659;-0.23603015;;;;;;;;;;;;
2035.0;1958.7;;;;-0.8668443;0.087558754;-0.2192078;;;;;;;;;;;;;;;
2035.0;1958.7;;;;-0.8703958;0.08815385;-0.21980289;;;;;;;;;;;;;;;
2035.0;1958.7;;;;-0.874035;0.088672645;-0.22054294;;;;;;;;;;;;;;;
2035.0;1958.7;;;;-0.87812054;0.088867195;-0.22155383;;;;;;;;;;;;;;;
2035.0;1958.7;;;;-0.88271344;0.089694984;-0.22234347;;;;;;;;;;;;;;;
2035.0;1961.9;262143;262143;11717;;;;;;;;;;;;;;;;;;
2035.0;1965.2;;;;;;;;;;;;;;;;;72.79427;-14.110995;81.51112;;1850.7
2035.0;1965.2;;;;;;;;;;;;;;1.0363475;0.5744194;-0.235786;;;;;1850.7
2035.0;1965.2;;;;;;;;;;;;;;;;;92.150635;-12.733848;75.258644;;1850.7
2035.0;1965.2;;;;;;;;;;;;;;1.0596026;0.5636769;-0.21131016;;;;;1850.7
2035.0;1965.2;;;;;;;;;;;;;;;;;106.082344;-15.15244;72.107605;;1860.3
2035.0;1965.2;;;;;;;;;;;;;;1.1025116;0.5088046;-0.19788201;;;;;1860.3
2035.0;1965.2;;;;;;;;;;;;;;;;;113.593704;-18.890959;70.005646;;1860.3
2035.0;1965.2;;;;;;;;;;;;;;1.1333964;0.48304698;-0.1770684;;;;;1860.3
2035.0;1965.2;;;;;;;;;;;;;;;;;102.24082;-17.391735;60.796684;;1869.9
2035.0;1965.2;;;;;;;;;;;;;;1.0577716;0.535905;-0.11090426;;;;;1869.9
2035.0;1965.2;;;;;;;;;;;;;;;;;84.38368;-23.277992;55.31861;;1869.9
2035.0;1965.2;;;;;;;;;;;;;;0.9584643;0.5868709;-0.010559404;;;;;1869.9
2036.0;1966.4;;;;;;;;;;;;;;;;;65.527054;-41.989655;53.701134;;1879.5
2036.0;1966.4;;;;;;;;;;;;;;0.9540696;0.6125065;0.009277627;;;;;1879.5
2036.0;1966.4;;;;;;;;;;;;;;;;;45.564133;-53.296764;52.175205;;1879.5
2036.0;1966.4;;;;;;;;;;;;;;0.99215674;0.6063417;-0.012817774;;;;;1879.5
2036.0;1966.4;;;;;;;;;;;;;;;;;28.202917;-50.225834;47.89117;;1889.1
2036.0;1966.4;;;;;;;;;;;;;;1.0005188;0.62825406;0.030274361;;;;;1889.1
2036.0;1966.4;;;;;;;;;;;;;;;;;15.503403;-41.913357;43.67199;;1889.1
2036.0;1966.4;;;;;;;;;;;;;;0.9960021;0.63075656;0.0994293;;;;;1889.1
2036.0;1966.4;;;;;;;;;;;;;;;;;7.8585167;-30.209509;39.23154;;1898.8
2036.0;1966.4;;;;;;;;;;;;;;1.0022889;0.6358837;0.16699728;;;;;1898.8
2036.0;1966.4;;;;;;;;;;;;;;;;;3.2006288;-14.370403;34.48973;;1898.8
2036.0;1966.4;;;;;;;;;;;;;;0.96890163;0.62715536;0.24774925;;;;;1898.8
2036.0;1966.9;;;;;;;;;;22.450178;10.54796;-14.393292;;;;;;;;;
2036.0;1966.9;;;;;;;0.74684894;0.021057772;-0.23316142;;;;;;;;;;;;
2036.0;1966.9;;;;;;;;;;22.52266;10.116886;-14.419996;;;;;;;;;
2036.0;1966.9;;;;;;;0.75032806;0.017334513;-0.23169653;;;;;;;;;;;;
2036.0;1967.7;;;;;;;;;;;;;-81;;;;;;;;
2036.0;1967.7;;;;;;;;;;;;;-710;;;;;;;;
2036.0;1967.7;;;;;;;;;;;;;-1435;;;;;;;;
2036.0;1967.7;;;;;;;;;;;;;-2344;;;;;;;;
2036.0;1967.7;;;;;;;;;;;;;-3293;;;;;;;;
2036.0;1968.5;;;;-0.8878747;0.09061433;-0.22360995;;;;;;;;;;;;;;;
2036.0;1968.5;;;;-0.89353573;0.09119416;-0.2242203;;;;;;;;;;;;;;;
2036.0;1968.5;;;;-0.8994638;0.09158326;-0.22513202;;;;;;;;;;;;;;;
2036.0;1968.5;;;;-0.90589154;0.09181977;-0.22714236;;;;;;;;;;;;;;;
2036.0;1968.5;;;;-0.9118539;0.09124375;-0.22911456;;;;;;;;;;;;;;;
2087.0;1976.5;;;;;;;;;;22.659992;9.517961;-14.461959;;;;;;;;;
2087.0;1976.5;;;;;;;0.7536241;0.013672292;-0.23065889;;;;;;;;;;;;
2087.0;1976.5;;;;;;;;;;22.701956;8.850368;-14.572589;;;;;;;;;
2087.0;1976.5;;;;;;;0.760155;0.010315256;-0.2334666;;;;;;;;;;;;
2087.0;1978.6;;;;-0.91793835;0.090011604;-0.23298267;;;;;;;;;;;;;;;
2087.0;1978.6;;;;-0.92404187;0.08857346;-0.2362366;;;;;;;;;;;;;;;
2087.0;1978.6;;;;-0.9312097;0.08725739;-0.23947528;;;;;;;;;;;;;;;
2087.0;1978.6;;;;-0.9394609;0.08594895;-0.24242023;;;;;;;;;;;;;;;
2087.0;1978.6;;;;-0.9486276;0.08438111;-0.24561313;;;;;;;;;;;;;;;
2087.0;1981.8;262143;262143;11738;;;;;;;;;;;;;;;;;;
2087.0;1986.0;;;;;;;;;;22.82403;8.156072;-14.790033;;;;;;;;;
2087.0;1986.0;;;;;;;0.77010405;0.006530961;-0.2356029;;;;;;;;;;;;
2087.0;1986.0;;;;;;;;;;22.94229;7.3473315;-15.034181;;;;;;;;;
2087.0;1986.0;;;;;;;0.78017515;0.003540147;-0.23883785;;;;;;;;;;;;
2087.0;1988.5;;;;-0.95874035;0.08290482;-0.24988559;;;;;;;;;;;;;;;
2087.0;1988.5;;;;-0.97065365;0.081924446;-0.25365832;;;;;;;;;;;;;;;
2087.0;1988.5;;;;-0.9845544;0.08105088;-0.25838092;;;;;;;;;;;;;;;
2087.0;1988.5;;;;-1.000168;0.08073426;-0.26387408;;;;;;;;;;;;;;;
2087.0;1988.5;;;;-1.0167886;0.08101655;-0.27000812;;;;;;;;;;;;;;;
2087.0;1995.4;;;;;;;;;;23.083437;6.6301465;-15.194403;;;;;;;;;
2087.0;1995.4;;;;;;;0.78902555;0.0;-0.24231696;;;;;;;;;;;;
2087.0;1995.4;;;;;;;;;;23.281807;5.9472947;-15.289773;;;;;;;;;
2087.0;1995.4;;;;;;;0.7981811;-0.0042725913;-0.242378;;;;;;;;;;;;
2089.0;1998.4;;;;-1.0339624;0.081565864;-0.27656177;;;;;;;;;;;;;;;
2089.0;1998.4;;;;-1.0516969;0.08342744;-0.2838097;;;;;;;;;;;;;;;
2089.0;1998.4;;;;-1.0708963;0.08658219;-0.2895775;;;;;;;;;;;;;;;
2089.0;1998.4;;;;-1.0903817;0.09095002;-0.2969208;;;;;;;;;;;;;;;
2089.0;1998.4;;;;-1.1086999;0.096073166;-0.30476382;;;;;;;;;;;;;;;
2089.0;2001.8;262143;262143;11754;;;;;;;;;;;;;;;;;;
2089.0;2005.0;;;;;;;;;;23.495438;5.3903317;-15.3202915;;;;;;;;;
2089.0;2005.0;;;;;;;0.80666524;-0.0076906644;-0.24646749;;;;;;;;;;;;
2089.0;2005.0;;;;;;;;;;23.590809;5.130924;-15.381329;;;;;;;;;
2089.0;2005.0;;;;;;;0.8127079;-0.010315256;-0.2496414;;;;;;;;;;;;
2089.0;2007.8;;;;;;;;;;;;;-4027;;;;;;;;
2089.0;2007.8;;;;;;;;;;;;;-4259;;;;;;;;
2089.0;2007.8;;;;;;;;;;;;;-3972;;;;;;;;
2089.0;2007.8;;;;;;;;;;;;;-3382;;;;;;;;
2089.0;2007.8;;;;;;;;;;;;;-2667;;;;;;;;
2089.0;2008.5;;;;-1.1273462;0.10225679;-0.31220248;;;;;;;;;;;;;;;
2089.0;2008.5;;;;-1.1456186;0.10956575;-0.32004932;;;;;;;;;;;;;;;
2089.0;2008.5;;;;-1.1636544;0.11754228;-0.3288193;;;;;;;;;;;;;;;
2089.0;2008.5;;;;-1.181389;0.12651064;-0.33716586;;;;;;;;;;;;;;;
2089.0;2008.5;;;;-1.1982881;0.13608553;-0.34626773;;;;;;;;;;;;;;;
2089.0;2014.6;;;;;;;;;;23.716698;4.8829613;-15.430922;;;;;;;;;
2089.0;2014.6;;;;;;;0.82003236;-0.014282662;-0.250618;;;;;;;;;;;;
2089.0;2014.6;;;;;;;;;;23.876919;4.5243692;-15.45381;;;;;;;;;
2089.0;2014.6;;;;;;;0.82503736;-0.016296884;-0.25580615;;;;;;;;;;;;
2091.0;2018.6;;;;-1.2147332;0.14622499;-0.35470203;;;;;;;;;;;;;;;
2091.0;2018.6;;;;-1.2299653;0.15705492;-0.36360934;;;;;;;;;;;;;;;
2091.0;2018.6;;;;-1.2446405;0.16824342;-0.3713341;;;;;;;;;;;;;;;
2091.0;2018.6;;;;-1.2574731;0.18028261;-0.3785668;;;;;;;;;;;;;;;
2091.0;2018.6;;;;-1.2690088;0.19246295;-0.3855706;;;;;;;;;;;;;;;
2091.0;2022.0;262143;262143;11786;;;;;;;;;;;;;;;;;;
2091.0;2024.2;;;;;;;;;;24.06766;3.9864802;-15.232551;;;;;;;;;
2091.0;2024.2;;;;;;;0.82924896;-0.020020142;-0.26197088;;;;;;;;;;;;
2091.0;2024.2;;;;;;;;;;24.3614;3.3265176;-14.835811;;;;;;;;;
2091.0;2024.2;;;;;;;0.8430433;-0.017334513;-0.27112645;;;;;;;;;;;;
2091.0;2025.3;;;;;;;;;;;;;;;;;4.3755913;-3.0480363;30.045471;;1908.4
2091.0;2025.3;;;;;;;;;;;;;;0.93508714;0.61128575;0.2964568;;;;;1908.4
2091.0;2025.3;;;;;;;;;;;;;;;;;9.552294;4.676962;26.558733;;1908.4
2091.0;2025.3;;;;;;;;;;;;;;0.92953277;0.5818049;0.30494094;;;;;1908.4
2091.0;2025.3;;;;;;;;;;;;;;;;;15.400403;15.472884;24.025698;;1918.1
2091.0;2025.3;;;;;;;;;;;;;;0.9491867;0.5393841;0.32062745;;;;;1918.1
2091.0;2025.3;;;;;;;;;;;;;;;;;22.70577;27.359844;22.52266;;1918.1
2091.0;2025.3;;;;;;;;;;;;;;1.0119327;0.49262977;0.3558458;;;;;1918.1
2091.0;2025.3;;;;;;;;;;;;;;;;;35.378582;34.146397;21.401106;;1927.5
2091.0;2025.3;;;;;;;;;;;;;;1.083285;0.44080934;0.3640248;;;;;1927.5
2091.0;2025.3;;;;;;;;;;;;;;;;;54.456467;28.832361;19.920956;;1927.5
2091.0;2025.3;;;;;;;;;;;;;;1.1106296;0.398999;0.27942747;;;;;1927.5
2092.0;2026.2;;;;;;;;;;;;;;;;;70.34135;15.793329;17.91055;;1937.2
2092.0;2026.2;;;;;;;;;;;;;;1.1683706;0.425367;0.13379315;;;;;1937.2
2092.0;2026.2;;;;;;;;;;;;;;;;;72.18391;17.002625;16.113773;;1937.2
2092.0;2026.2;;;;;;;;;;;;;;1.2749412;0.44508195;0.119449444;;;;;1937.2
2092.0;2026.2;;;;;;;;;;;;;;;;;75.300606;25.677511;13.565478;;1946.8
2092.0;2026.2;;;;;;;;;;;;;;1.3398236;0.40253913;0.15491195;;;;;1946.8
2092.0;2026.2;;;;;;;;;;;;;;;;;93.50108;19.688253;7.8356276;;1946.8
2092.0;2026.2;;;;;;;;;;;;;;1.3267617;0.4046144;-0.010193182;;;;;1946.8
2092.0;2026.2;;;;;;;;;;;;;;;;;114.12778;10.219886;0.6179998;;1956.4
2092.0;2026.2;;;;;;;;;;;;;;1.2809229;0.44184697;-0.27460554;;;;;1956.4
2092.0;2026.2;;;;;;;;;;;;;;;;;124.05011;2.666555;-8.072146;;1956.4
2092.0;2026.2;;;;;;;;;;;;;;1.1989502;0.5222327;-0.34351635;;;;;1956.4
2092.0;2028.5;;;;-1.2800981;0.2046738;-0.3905297;;;;;;;;;;;;;;;
2092.0;2028.5;;;;-1.2901498;0.217186;-0.39578253;;;;;;;;;;;;;;;
2092.0;2028.5;;;;-1.2977029;0.23011401;-0.40121084;;;;;;;;;;;;;;;
2092.0;2028.5;;;;-1.3046418;0.24275592;-0.40521628;;;;;;;;;;;;;;;
2092.0;2028.5;;;;-1.309929;0.25473407;-0.40843588;;;;;;;;;;;;;;;
2092.0;2033.5;;;;;;;;;;24.742882;2.4643695;-14.137699;;;;;;;;;
2092.0;2033.5;;;;;;;0.86226994;-0.011658071;-0.28235725;;;;;;;;;;;;
2092.0;2033.5;;;;;;;;;;25.063326;1.5259255;-13.340404;;;;;;;;;
2092.0;2033.5;;;;;;;0.89272743;-0.0041505173;-0.29493088;;;;;;;;;;;;
2150.0;2038.5;;;;-1.3142358;0.26623157;-0.4111901;;;;;;;;;;;;;;;
2150.0;2038.5;;;;-1.3174058;0.2770653;-0.4122582;;;;;;;;;;;;;;;
2150.0;2038.5;;;;-1.3193055;0.2872658;-0.4125176;;;;;;;;;;;;;;;
2150.0;2038.5;;;;-1.3196794;0.29737857;-0.41301733;;;;;;;;;;;;;;;
2150.0;2038.5;;;;-1.3191758;0.3066292;-0.41112143;;;;;;;;;;;;;;;
2150.0;2041.8;262143;262143;11831;;;;;;;;;;;;;;;;;;
2150.0;2043.0;;;;;;;;;;25.513474;0.4196295;-12.310404;;;;;;;;;
2150.0;2043.0;;;;;;;0.9342936;6.714072E-4;-0.31305888;;;;;;;;;;;;
2150.0;2043.0;;;;;;;;;;26.066622;-0.6828517;-11.078218;;;;;;;;;
2150.0;2043.0;;;;;;;0.9787896;0.0054933317;-0.33136997;;;;;;;;;;;;
2150.0;2047.7;;;;;;;;;;;;;-2044;;;;;;;;
2150.0;2047.7;;;;;;;;;;;;;-1774;;;;;;;;
2150.0;2047.7;;;;;;;;;;;;;-1910;;;;;;;;
2150.0;2047.7;;;;;;;;;;;;;-2166;;;;;;;;
2150.0;2047.7;;;;;;;;;;;;;-2055;;;;;;;;
2150.0;2048.4;;;;-1.3170625;0.31546786;-0.40787894;;;;;;;;;;;;;;;
2150.0;2048.4;;;;-1.3135911;0.3228188;-0.40492636;;;;;;;;;;;;;;;
2150.0;2048.4;;;;-1.3086473;0.32961658;-0.40251547;;;;;;;;;;;;;;;
2150.0;2048.4;;;;-1.3040315;0.33506015;-0.40039068;;;;;;;;;;;;;;;
2150.0;2048.4;;;;-1.29908;0.33976367;-0.3979035;;;;;;;;;;;;;;;
2150.0;2052.5;;;;;;;;;;26.711327;-1.6975921;-9.376812;;;;;;;;;
2150.0;2052.5;;;;;;;1.0261544;0.00695822;-0.35291603;;;;;;;;;;;;
2150.0;2052.5;;;;;;;;;;27.409435;-2.601703;-7.351146;;;;;;;;;
2150.0;2052.5;;;;;;;1.0793786;-9.765923E-4;-0.3721427;;;;;;;;;;;;
2154.0;2058.3;;;;-1.2922822;0.34320453;-0.3951035;;;;;;;;;;;;;;;
2154.0;2058.3;;;;-1.2852517;0.34569553;-0.39217764;;;;;;;;;;;;;;;
2154.0;2058.3;;;;-1.276558;0.34686282;-0.38831335;;;;;;;;;;;;;;;
2154.0;2058.3;;;;-1.2668458;0.34741595;-0.3840943;;;;;;;;;;;;;;;
2154.0;2058.3;;;;-1.257187;0.3470383;-0.38008505;;;;;;;;;;;;;;;
2154.0;2062.0;;;;;;;;;;28.183844;-3.6545916;-5.371258;;;;;;;;;
2154.0;2062.0;;;;;;;1.1256447;-0.016296884;-0.38990447;;;;;;;;;;;;
2154.0;2062.0;;;;;;;;;;28.698843;-5.123295;-3.5592213;;;;;;;;;
2154.0;2062.0;;;;;;;1.157567;-0.0430311;-0.4076052;;;;;;;;;;;;
2154.0;2061.8;262143;262143;11860;;;;;;;;;;;;;;;;;;
2154.0;2068.4;;;;-1.246132;0.3455582;-0.3743439;;;;;;;;;;;;;;;
2154.0;2068.4;;;;-1.2341882;0.34400943;-0.36808398;;;;;;;;;;;;;;;
2154.0;2068.4;;;;-1.2214776;0.34107974;-0.36218265;;;;;;;;;;;;;;;
2154.0;2068.4;;;;-1.2092668;0.3370438;-0.35705188;;;;;;;;;;;;;;;
2154.0;2068.4;;;;-1.1975785;0.33201984;-0.3521004;;;;;;;;;;;;;;;
2154.0;2071.6;;;;;;;;;;29.087955;-6.660665;-1.6708884;;;;;;;;;
2154.0;2071.6;;;;;;;1.1780145;-0.068300426;-0.42365795;;;;;;;;;;;;
2154.0;2071.6;;;;;;;;;;29.278696;-8.262887;0.09155553;;;;;;;;;
2154.0;2071.6;;;;;;;1.1929075;-0.09442427;-0.4342784;;;;;;;;;;;;
2156.0;2078.6;;;;-1.1869203;0.32537082;-0.34823993;;;;;;;;;;;;;;;
2156.0;2078.6;;;;-1.1780206;0.31770328;-0.3448563;;;;;;;;;;;;;;;
2156.0;2078.6;;;;-1.1702234;0.3095093;-0.3414078;;;;;;;;;;;;;;;
2156.0;2078.6;;;;-1.1633416;0.30028918;-0.33838275;;;;;;;;;;;;;;;
2156.0;2078.6;;;;-1.1566049;0.29029086;-0.33513644;;;;;;;;;;;;;;;
2156.0;2081.2;;;;;;;;;;29.332104;-10.105441;1.5221107;;;;;;;;;
2156.0;2081.2;;;;;;;1.2050538;-0.114200264;-0.44196907;;;;;;;;;;;;
2156.0;2081.2;;;;;;;;;;29.225288;-12.508774;2.643666;;;;;;;;;
2156.0;2081.2;;;;;;;1.2147588;-0.12817775;-0.4483169;;;;;;;;;;;;
2156.0;2082.1;262143;262143;11889;;;;;;;;;;;;;;;;;;
2156.0;2085.5;;;;;;;;;;;;;;;;;124.988556;-33.623768;-12.760551;;1966.1
2156.0;2085.5;;;;;;;;;;;;;;1.0809046;0.44325083;-0.41010773;;;;;1966.1
2156.0;2085.5;;;;;;;;;;;;;;;;;122.27241;-98.76935;-14.759515;;1966.1
2156.0;2085.5;;;;;;;;;;;;;;1.1783197;0.42402416;-0.590289;;;;;1966.1
2156.0;2085.5;;;;;;;;;;;;;;;;;96.11042;-124.47737;-12.9703665;;1975.8
2156.0;2085.5;;;;;;;;;;;;;;1.3458053;0.30133978;-0.65517133;;;;;1975.8
2156.0;2085.5;;;;;;;;;;;;;;;;;65.26002;-116.565445;-3.8338878;;1975.8
2156.0;2085.5;;;;;;;;;;;;;;1.4750817;0.15131077;-0.43885615;;;;;1975.8
2156.0;2085.5;;;;;;;;;;;;;;;;;61.07898;-91.93701;9.403516;;1985.4
2156.0;2085.5;;;;;;;;;;;;;;1.3951231;-0.03241066;-0.07757805;;;;;1985.4
2156.0;2085.5;;;;;;;;;;;;;;;;;41.72262;-89.08734;26.398512;;1985.4
2156.0;2085.5;;;;;;;;;;;;;;1.3709525;-0.12280648;0.17291787;;;;;1985.4
2158.0;2086.7;;;;;;;;;;;;;;;;;-15.327921;-85.82568;50.710316;;1995.0
2158.0;2086.7;;;;;;;;;;;;;;1.3445234;-0.32789087;0.077883236;;;;;1995.0
2158.0;2086.7;;;;;;;;;;;;;;;;;-61.14002;-60.63265;64.42839;;1995.0
2158.0;2086.7;;;;;;;;;;;;;;1.3814509;-0.45698416;-0.0336314;;;;;1995.0
2158.0;2086.7;;;;;;;;;;;;;;;;;-109.32875;19.604326;63.097015;;2004.6
2158.0;2086.7;;;;;;;;;;;;;;1.5241554;-0.46589556;0.08954131;;;;;2004.6
2158.0;2086.7;;;;;;;;;;;;;;;;;-120.983;112.01056;52.030243;;2004.6
2158.0;2086.7;;;;;;;;;;;;;;1.3122959;-0.51118505;0.5406659;;;;;2004.6
2158.0;2086.7;;;;;;;;;;;;;;;;;-43.176064;102.53075;22.1984;;2014.3
2158.0;2086.7;;;;;;;;;;;;;;0.6469924;-0.59346294;0.8957793;;;;;2014.3
2158.0;2086.7;;;;;;;;;;;;;;;;;91.54408;-48.043766;-34.03958;;2014.3
2158.0;2086.7;;;;;;;;;;;;;;0.6299631;-0.17059846;0.21729179;;;;;2014.3
2158.0;2087.9;;;;;;;;;;;;;-1426;;;;;;;;
2158.0;2087.9;;;;;;;;;;;;;-765;;;;;;;;
2158.0;2087.9;;;;;;;;;;;;;-682;;;;;;;;
2158.0;2087.9;;;;;;;;;;;;;-909;;;;;;;;
2158.0;2087.9;;;;;;;;;;;;;-756;;;;;;;;
2158.0;2088.5;;;;-1.1505891;0.2804871;-0.33233264;;;;;;;;;;;;;;;
2158.0;2088.5;;;;-1.144436;0.2701111;-0.3311272;;;;;;;;;;;;;;;
2158.0;2088.5;;;;-1.1394387;0.25982288;-0.33010486;;;;;;;;;;;;;;;
2158.0;2088.5;;;;-1.1351587;0.2493439;-0.3298073;;;;;;;;;;;;;;;
2158.0;2088.5;;;;-1.1311952;0.23952106;-0.32938007;;;;;;;;;;;;;;;
2158.0;2090.7;;;;;;;;;;29.049807;-15.476699;3.4218879;;;;;;;;;
2158.0;2090.7;;;;;;;1.2187872;-0.14105655;-0.44941556;;;;;;;;;;;;
2158.0;2090.7;;;;;;;;;;28.832361;-18.910032;3.849147;;;;;;;;;
2158.0;2090.7;;;;;;;1.2286752;-0.15173803;-0.44758445;;;;;;;;;;;;
2160.0;2098.6;;;;-1.1285287;0.22930911;-0.32974246;;;;;;;;;;;;;;;
2160.0;2098.6;;;;-1.1265565;0.21995166;-0.33069614;;;;;;;;;;;;;;;
2160.0;2098.6;;;;-1.1253892;0.21099856;-0.33237842;;;;;;;;;;;;;;;
2160.0;2098.6;;;;-1.1250993;0.20168689;-0.3351746;;;;;;;;;;;;;;;
2160.0;2098.6;;;;-1.1245118;0.1923714;-0.3411751;;;;;;;;;;;;;;;
2160.0;2100.5;;;;;;;;;;;;;;;;;124.94278;-123.90515;-83.12479;;2023.9
2160.0;2100.5;;;;;;;;;;;;;;1.1606799;0.24335459;-0.84688866;;;;;2023.9
2160.0;2100.5;;;;;;;;;;;;;;;;;120.70833;-106.31504;-100.71871;;2023.9
2160.0;2100.5;;;;;;;;;;;;;;1.437727;0.710593;-1.1114231;;;;;2023.9
2160.0;2100.5;;;;;;;;;;;;;;;;;34.993286;15.758995;-72.271645;;2033.5
2160.0;2100.5;;;;;;;;;;;;;;1.1648915;0.78212833;-0.44276252;;;;;2033.5
2160.0;2100.5;;;;;;;;;;;;;;;;;-59.38139;86.06602;-36.397137;;2033.5
2160.0;2100.5;;;;;;;;;;;;;;0.81441694;0.42115542;0.09149449;;;;;2033.5
2160.0;2100.5;;;;;;;;;;;;;;;;;-45.422985;29.721214;-48.23069;;2043.2
2160.0;2100.5;;;;;;;;;;;;;;0.8888821;0.61201817;0.092043824;;;;;2043.2
2160.0;2100.5;;;;;;;;;;;;;;;;;-5.500962;-63.669243;-52.354504;;2043.2
2160.0;2100.5;;;;;;;;;;;;;;1.3538011;0.61061436;-0.79067355;;;;;2043.2
2160.0;2100.3;;;;;;;;;;28.611103;-21.931364;4.036073;;;;;;;;;
2160.0;2100.3;;;;;;;1.2454604;-0.16974396;-0.43855098;;;;;;;;;;;;
2160.0;2100.3;;;;;;;;;;28.256325;-24.983213;4.161962;;;;;;;;;
2160.0;2100.3;;;;;;;1.2564471;-0.18555254;-0.42609942;;;;;;;;;;;;
2160.0;2102.0;262143;262143;11880;;;;;;;;;;;;;;;;;;
2210.0;2108.5;;;;-1.124756;0.18358995;-0.34498218;;;;;;;;;;;;;;;
2210.0;2108.5;;;;-1.1257097;0.17535783;-0.34619144;;;;;;;;;;;;;;;
2210.0;2108.5;;;;-1.1266366;0.16760637;-0.34873202;;;;;;;;;;;;;;;
2210.0;2108.5;;;;-1.1291314;0.16024019;-0.35236362;;;;;;;;;;;;;;;
2210.0;2108.5;;;;-1.135193;0.15473177;-0.35572818;;;;;;;;;;;;;;;
2210.0;2109.6;;;;;;;;;;27.924437;-27.954954;4.463332;;;;;;;;;
2210.0;2109.6;;;;;;;1.2725608;-0.20258187;-0.41273233;;;;;;;;;;;;
2210.0;2109.6;;;;;;;;;;27.504807;-30.339212;4.688406;;;;;;;;;
2210.0;2109.6;;;;;;;1.2906888;-0.21784112;-0.39820552;;;;;;;;;;;;
2210.0;2118.1;;;;-1.1440469;0.15062334;-0.35857776;;;;;;;;;;;;;;;
2210.0;2118.1;;;;-1.1530877;0.14765932;-0.361084;;;;;;;;;;;;;;;
2210.0;2118.1;;;;-1.1611787;0.14489748;-0.364872;;;;;;;;;;;;;;;
2210.0;2118.1;;;;-1.1683313;0.14268114;-0.3682976;;;;;;;;;;;;;;;
2210.0;2118.1;;;;-1.1753122;0.14113237;-0.37203982;;;;;;;;;;;;;;;
2210.0;2118.8;;;;;;;;;;26.978363;-32.334362;4.6464434;;;;;;;;;
2210.0;2118.8;;;;;;;1.31254;-0.23010956;-0.38477737;;;;;;;;;;;;
2210.0;2118.8;;;;;;;;;;26.4214;-33.98617;4.554888;;;;;;;;;
2210.0;2118.8;;;;;;;1.329081;-0.23902097;-0.37037262;;;;;;;;;;;;
2210.0;2121.7;262143;262143;11885;;;;;;;;;;;;;;;;;;
2210.0;2127.7;;;;;;;;;;;;;-465;;;;;;;;
2210.0;2127.7;;;;;;;;;;;;;-786;;;;;;;;
2210.0;2127.7;;;;;;;;;;;;;-1567;;;;;;;;
2210.0;2127.7;;;;;;;;;;;;;-1851;;;;;;;;
2210.0;2127.7;;;;;;;;;;;;;-1272;;;;;;;;
2212.0;2128.2;;;;-1.1822053;0.14033128;-0.37638098;;;;;;;;;;;;;;;
2212.0;2128.2;;;;-1.1887857;0.14067079;-0.38066107;;;;;;;;;;;;;;;
2212.0;2128.2;;;;-1.1957132;0.14179231;-0.38457495;;;;;;;;;;;;;;;
2212.0;2128.2;;;;-1.2015191;0.14263536;-0.3886605;;;;;;;;;;;;;;;
2212.0;2128.2;;;;-1.2077905;0.14417268;-0.39352423;;;;;;;;;;;;;;;
2212.0;2128.5;;;;;;;;;;26.1124;-34.76821;4.421369;;;;;;;;;
2212.0;2128.5;;;;;;;1.3425703;-0.2484817;-0.35419783;;;;;;;;;;;;
2212.0;2128.5;;;;;;;;;;25.708029;-34.90173;4.318369;;;;;;;;;
2212.0;2128.5;;;;;;;1.3458053;-0.25305948;-0.33838925;;;;;;;;;;;;
2212.0;2138.1;;;;;;;;;;25.200659;-34.44395;4.448073;;;;;;;;;
2212.0;2138.1;;;;;;;1.3440962;-0.2573321;-0.3287454;;;;;;;;;;;;
2212.0;2138.1;;;;;;;;;;24.731438;-33.92895;4.6578875;;;;;;;;;
2212.0;2138.1;;;;;;;1.3423872;-0.25696585;-0.32227546;;;;;;;;;;;;
2212.0;2138.3;;;;-1.2133371;0.14619829;-0.39784628;;;;;;;;;;;;;;;
2212.0;2138.3;;;;-1.2188493;0.14776613;-0.40178305;;;;;;;;;;;;;;;
2212.0;2138.3;;;;-1.2239381;0.15007783;-0.40539938;;;;;;;;;;;;;;;
2212.0;2138.3;;;;-1.228283;0.15177919;-0.40805823;;;;;;;;;;;;;;;
2212.0;2138.3;;;;-1.2315599;0.15354921;-0.41034323;;;;;;;;;;;;;;;
2212.0;2142.0;262143;262143;11872;;;;;;;;;;;;;;;;;;
2213.0;2145.3;;;;;;;;;;;;;;;;;19.657734;-41.482285;-19.119846;;2052.8
2213.0;2145.3;;;;;;;;;;;;;;1.3837702;0.16168706;-1.0212103;;;;;2052.8
2213.0;2145.3;;;;;;;;;;;;;;;;;-6.9734793;34.066284;-1.8120365;;2052.8
2213.0;2145.3;;;;;;;;;;;;;;1.3293252;-0.05053865;-0.36811426;;;;;2052.8
2213.0;2145.3;;;;;;;;;;;;;;;;;-68.88409;77.314835;24.895473;;2062.5
2213.0;2145.3;;;;;;;;;;;;;;1.2089602;-0.38062686;0.006225776;;;;;2062.5
2213.0;2145.3;;;;;;;;;;;;;;;;;-34.56984;64.97009;19.356365;;2062.5
2213.0;2145.3;;;;;;;;;;;;;;0.9419843;-0.56447035;0.25482956;;;;;2062.5
2213.0;2145.3;;;;;;;;;;;;;;;;;28.492844;-16.369366;-20.340586;;2072.2
2213.0;2145.3;;;;;;;;;;;;;;0.8959014;-0.25739312;-0.114627525;;;;;2072.2
2213.0;2145.3;;;;;;;;;;;;;;;;;43.134098;-81.22883;-54.334393;;2072.2
2213.0;2145.3;;;;;;;;;;;;;;1.150792;0.1904355;-0.8355968;;;;;2072.2
2213.0;2147.6;;;;;;;;;;24.365215;-33.65429;4.7036653;;;;;;;;;
2213.0;2147.6;;;;;;;1.343852;-0.2544023;-0.31727043;;;;;;;;;;;;
2213.0;2147.6;;;;;;;;;;23.968475;-33.589436;4.7227397;;;;;;;;;
2213.0;2147.6;;;;;;;1.3462936;-0.2492752;-0.31824702;;;;;;;;;;;;
2213.0;2148.3;;;;-1.2339555;0.15533449;-0.4123841;;;;;;;;;;;;;;;
2213.0;2148.3;;;;-1.2344438;0.15724184;-0.41432196;;;;;;;;;;;;;;;
2213.0;2148.3;;;;-1.2331239;0.15881349;-0.41672903;;;;;;;;;;;;;;;
2213.0;2148.3;;;;-1.2316095;0.16048433;-0.41990286;;;;;;;;;;;;;;;
2213.0;2148.3;;;;-1.2311937;0.16237642;-0.4218865;;;;;;;;;;;;;;;
2213.0;2157.2;;;;;;;;;;23.766289;-33.406326;4.6845913;;;;;;;;;
2213.0;2157.2;;;;;;;1.3559984;-0.24408704;-0.32093266;;;;;;;;;;;;
2213.0;2157.2;;;;;;;;;;23.602253;-33.005768;4.5167394;;;;;;;;;
2213.0;2157.2;;;;;;;1.3664968;-0.24011964;-0.32142094;;;;;;;;;;;;
2214.0;2158.4;;;;-1.23164;0.16435243;-0.4237786;;;;;;;;;;;;;;;
2214.0;2158.4;;;;-1.2318612;0.16606523;-0.42557913;;;;;;;;;;;;;;;
2214.0;2158.4;;;;-1.231659;0.16787721;-0.42704016;;;;;;;;;;;;;;;
2214.0;2158.4;;;;-1.2316667;0.17046358;-0.42878348;;;;;;;;;;;;;;;
2214.0;2158.4;;;;-1.2318536;0.17269899;-0.43011862;;;;;;;;;;;;;;;
2214.0;2160.3;;;;;;;;;;;;;;;;;21.595661;-57.893612;-64.60769;;2081.8
2214.0;2160.3;;;;;;;;;;;;;;1.3270669;0.6120792;-1.1090426;;;;;2081.8
2214.0;2160.3;;;;;;;;;;;;;;;;;-33.066807;21.633808;-43.187508;;2081.8
2214.0;2160.3;;;;;;;;;;;;;;1.3138218;0.7456893;-0.88088626;;;;;2081.8
2214.0;2160.3;;;;;;;;;;;;;;;;;-60.598312;78.80642;-8.438369;;2091.5
2214.0;2160.3;;;;;;;;;;;;;;1.2375866;0.46784875;-0.3090304;;;;;2091.5
2214.0;2160.3;;;;;;;;;;;;;;;;;-43.73684;60.979797;3.9368877;;2091.5
2214.0;2160.3;;;;;;;;;;;;;;1.2490616;0.23114718;0.055848874;;;;;2091.5
2214.0;2160.3;;;;;;;;;;;;;;;;;-17.612995;-7.675405;8.239998;;2101.1
2214.0;2160.3;;;;;;;;;;;;;;1.2479018;-0.0017700735;-0.2611774;;;;;2101.1
2214.0;2160.3;;;;;;;;;;;;;;;;;-1.5259255;-36.362804;10.986664;;2101.1
2214.0;2160.3;;;;;;;;;;;;;;1.224952;-0.07061983;-0.5668508;;;;;2101.1
2214.0;2161.9;262143;262143;11868;;;;;;;;;;;;;;;;;;
2214.0;2166.6;;;;;;;;;;23.445845;-32.73873;4.566332;;;;;;;;;
2214.0;2166.6;;;;;;;1.3704642;-0.23603015;-0.32148197;;;;;;;;;;;;
2214.0;2166.6;;;;;;;;;;23.21314;-32.68151;4.791406;;;;;;;;;
2214.0;2166.6;;;;;;;1.3711966;-0.23804438;-0.32007813;;;;;;;;;;;;
2270.0;2167.8;;;;;;;;;;;;;-625;;;;;;;;
2270.0;2167.8;;;;;;;;;;;;;-545;;;;;;;;
2270.0;2167.8;;;;;;;;;;;;;-642;;;;;;;;
2270.0;2167.8;;;;;;;;;;;;;-340;;;;;;;;
2270.0;2167.8;;;;;;;;;;;;;252;;;;;;;;
2270.0;2168.3;;;;-1.2313653;0.17543413;-0.43256003;;;;;;;;;;;;;;;
2270.0;2168.3;;;;-1.2306749;0.17890932;-0.43428046;;;;;;;;;;;;;;;
2270.0;2168.3;;;;-1.2297212;0.18172838;-0.43858725;;;;;;;;;;;;;;;
2270.0;2168.3;;;;-1.2282525;0.18472292;-0.4418946;;;;;;;;;;;;;;;
2270.0;2168.3;;;;-1.2264444;0.1876488;-0.44003302;;;;;;;;;;;;;;;
2270.0;2175.9;;;;;;;;;;22.949919;-32.544178;5.031739;;;;;;;;;
2270.0;2175.9;;;;;;;1.3711356;-0.24195075;-0.32026124;;;;;;;;;;;;
2270.0;2175.9;;;;;;;;;;22.709585;-31.773582;5.050813;;;;;;;;;
2270.0;2175.9;;;;;;;1.370159;-0.24604023;-0.316599;;;;;;;;;;;;
2270.0;2178.1;;;;-1.2240716;0.19030002;-0.435772;;;;;;;;;;;;;;;
2270.0;2178.1;;;;-1.2192079;0.19267657;-0.4341355;;;;;;;;;;;;;;;
2270.0;2178.1;;;;-1.2122804;0.19350055;-0.43397146;;;;;;;;;;;;;;;
2270.0;2178.1;;;;-1.2043916;0.19406894;-0.4344483;;;;;;;;;;;;;;;
2270.0;2178.1;;;;-1.1961633;0.1933594;-0.4356194;;;;;;;;;;;;;;;
2270.0;2181.9;262143;262143;11867;;;;;;;;;;;;;;;;;;
2270.0;2185.6;;;;;;;;;;22.400585;-30.980103;5.031739;;;;;;;;;
2270.0;2185.6;;;;;;;1.3646656;-0.25281534;-0.3150731;;;;;;;;;;;;
2270.0;2185.6;;;;;;;;;;21.94281;-30.343027;5.0279245;;;;;;;;;
2270.0;2185.6;;;;;;;1.3538622;-0.25745416;-0.31849116;;;;;;;;;;;;
2272.0;2188.2;;;;-1.1875688;0.19100192;-0.43725973;;;;;;;;;;;;;;;
2272.0;2188.2;;;;-1.1795732;0.18787387;-0.43713003;;;;;;;;;;;;;;;
2272.0;2188.2;;;;-1.1724359;0.18449403;-0.4369927;;;;;;;;;;;;;;;
2272.0;2188.2;;;;-1.1648294;0.18107225;-0.4349938;;;;;;;;;;;;;;;
2272.0;2188.2;;;;-1.157261;0.17805482;-0.43141562;;;;;;;;;;;;;;;
2272.0;2195.2;;;;;;;;;;21.351513;-29.683065;5.237739;;;;;;;;;
2272.0;2195.2;;;;;;;1.3447676;-0.26154363;-0.32032228;;;;;;;;;;;;
2272.0;2195.2;;;;;;;;;;20.756401;-28.87051;5.32548;;;;;;;;;
2272.0;2195.2;;;;;;;1.3366497;-0.26233712;-0.321543;;;;;;;;;;;;
2272.0;2198.3;;;;-1.1485711;0.175766;-0.42705542;;;;;;;;;;;;;;;
2272.0;2198.3;;;;-1.1380616;0.1729355;-0.42252737;;;;;;;;;;;;;;;
2272.0;2198.3;;;;-1.1279603;0.17016985;-0.41849142;;;;;;;;;;;;;;;
2272.0;2198.3;;;;-1.1169206;0.16691591;-0.41476065;;;;;;;;;;;;;;;
2272.0;2198.3;;;;-1.1053468;0.16311266;-0.4104157;;;;;;;;;;;;;;;
2272.0;2202.1;262143;262143;11867;;;;;;;;;;;;;;;;;;
2272.0;2204.8;;;;;;;;;;20.039215;-28.103731;5.4361095;;;;;;;;;
2272.0;2204.8;;;;;;;1.3263345;-0.26233712;-0.3218482;;;;;;;;;;;;
2272.0;2204.8;;;;;;;;;;19.322033;-27.439955;5.607776;;;;;;;;;
2272.0;2204.8;;;;;;;1.3134556;-0.2602008;-0.31965086;;;;;;;;;;;;
2273.0;2205.4;;;;;;;;;;;;;;;;;-3.5248878;-23.594624;17.075106;;2110.8
2273.0;2205.4;;;;;;;;;;;;;;1.1543932;-0.09936827;-0.48915067;;;;;2110.8
2273.0;2205.4;;;;;;;;;;;;;;;;;-15.305033;-10.216071;20.3444;;2110.8
2273.0;2205.4;;;;;;;;;;;;;;1.1020844;-0.107608266;-0.35462508;;;;;2110.8
2273.0;2205.4;;;;;;;;;;;;;;;;;-12.050997;-15.636921;20.626698;;2120.3
2273.0;2205.4;;;;;;;;;;;;;;1.0505692;-0.11035493;-0.30622274;;;;;2120.3
2273.0;2205.4;;;;;;;;;;;;;;;;;-5.4589987;-32.818844;20.966217;;2120.3
2273.0;2205.4;;;;;;;;;;;;;;1.0475173;-0.015076144;-0.37635425;;;;;2120.3
2273.0;2205.4;;;;;;;;;;;;;;;;;-5.4589987;-46.117283;20.706808;;2129.9
2273.0;2205.4;;;;;;;;;;;;;;1.0998261;0.106753744;-0.49848932;;;;;2129.9
2273.0;2205.4;;;;;;;;;;;;;;;;;-7.992035;-44.75158;23.110142;;2129.9
2273.0;2205.4;;;;;;;;;;;;;;1.1038545;0.16962187;-0.5058138;;;;;2129.9
2273.0;2208.0;;;;;;;;;;;;;769;;;;;;;;
2273.0;2208.0;;;;;;;;;;;;;1253;;;;;;;;
2273.0;2208.0;;;;;;;;;;;;;1933;;;;;;;;
2273.0;2208.0;;;;;;;;;;;;;2719;;;;;;;;
2273.0;2208.0;;;;;;;;;;;;;3313;;;;;;;;
2273.0;2208.3;;;;-1.0935441;0.15896608;-0.40627295;;;;;;;;;;;;;;;
2273.0;2208.3;;;;-1.0813676;0.15403368;-0.401455;;;;;;;;;;;;;;;
2273.0;2208.3;;;;-1.069439;0.14854433;-0.39646918;;;;;;;;;;;;;;;
2273.0;2208.3;;;;-1.0584832;0.14284898;-0.39108282;;;;;;;;;;;;;;;
2273.0;2208.3;;;;-1.0471154;0.13660432;-0.38574225;;;;;;;;;;;;;;;
2273.0;2214.3;;;;;;;;;;18.55144;-26.783808;5.821406;;;;;;;;;
2273.0;2214.3;;;;;;;1.3016144;-0.2582476;-0.31556138;;;;;;;;;;;;
2273.0;2214.3;;;;;;;;;;17.70455;-26.146732;6.0464797;;;;;;;;;
2273.0;2214.3;;;;;;;1.2868434;-0.25269327;-0.3045137;;;;;;;;;;;;
2274.0;2218.4;;;;-1.035164;0.13022234;-0.38195044;;;;;;;;;;;;;;;
2274.0;2218.4;;;;-1.0227815;0.123374954;-0.37829596;;;;;;;;;;;;;;;
2274.0;2218.4;;;;-1.0114976;0.11608125;-0.37512594;;;;;;;;;;;;;;;
2274.0;2218.4;;;;-1.0015985;0.1092682;-0.37201694;;;;;;;;;;;;;;;
2274.0;2218.4;;;;-0.9925691;0.10253145;-0.36894992;;;;;;;;;;;;;;;
2274.0;2220.9;;;;;;;;;;;;;;;;;-15.018921;-36.946472;25.07477;;2139.6
2274.0;2220.9;;;;;;;;;;;;;;1.0940275;0.21277505;-0.44233528;;;;;2139.6
2274.0;2220.9;;;;;;;;;;;;;;;;;-21.42018;-30.938139;27.417065;;2139.6
2274.0;2220.9;;;;;;;;;;;;;;1.0697348;0.22614215;-0.37763605;;;;;2139.6
2274.0;2220.9;;;;;;;;;;;;;;;;;-22.511215;-30.320139;29.507584;;2149.3
2274.0;2220.9;;;;;;;;;;;;;;1.0397656;0.23529771;-0.3246559;;;;;2149.3
2274.0;2220.9;;;;;;;;;;;;;;;;;-23.152103;-32.16651;31.834621;;2149.3
2274.0;2220.9;;;;;;;;;;;;;;1.0115665;0.2327952;-0.29798272;;;;;2149.3
2274.0;2220.9;;;;;;;;;;;;;;;;;-24.624622;-34.417248;34.035767;;2159.0
2274.0;2220.9;;;;;;;;;;;;;;0.9735404;0.219306;-0.2891934;;;;;2159.0
2274.0;2220.9;;;;;;;;;;;;;;;;;-25.849178;-37.99936;35.336617;;2159.0
2274.0;2220.9;;;;;;;;;;;;;;0.9504685;0.2014832;-0.29651785;;;;;2159.0
2274.0;2222.0;262143;262143;11864;;;;;;;;;;;;;;;;;;
2274.0;2223.7;;;;;;;;;;16.777552;-25.47914;6.3173313;;;;;;;;;
2274.0;2223.7;;;;;;;1.2698141;-0.24939726;-0.2927946;;;;;;;;;;;;
2274.0;2223.7;;;;;;;;;;15.694143;-24.59029;6.599628;;;;;;;;;
2274.0;2223.7;;;;;;;1.2538835;-0.24036378;-0.28595844;;;;;;;;;;;;
2328.0;2228.3;;;;-0.9844209;0.09566118;-0.36583713;;;;;;;;;;;;;;;
2328.0;2228.3;;;;-0.976719;0.089134224;-0.3635483;;;;;;;;;;;;;;;
2328.0;2228.3;;;;-0.96953976;0.083248146;-0.3605385;;;;;;;;;;;;;;;
2328.0;2228.3;;;;-0.9617921;0.077537544;-0.3572617;;;;;;;;;;;;;;;
2328.0;2228.3;;;;-0.95466626;0.07186509;-0.35498813;;;;;;;;;;;;;;;
2328.0;2232.9;;;;;;;;;;14.767144;-23.274178;6.76748;;;;;;;;;
2328.0;2232.9;;;;;;;1.2413709;-0.23639637;-0.27198097;;;;;;;;;;;;
2328.0;2232.9;;;;;;;;;;13.91644;-22.068699;6.828517;;;;;;;;;
2328.0;2232.9;;;;;;;1.2251961;-0.2247383;-0.25476852;;;;;;;;;;;;
2328.0;2238.0;;;;-0.9472581;0.06678391;-0.3511391;;;;;;;;;;;;;;;
2328.0;2238.0;;;;-0.9402734;0.061946876;-0.34756473;;;;;;;;;;;;;;;
2328.0;2238.0;;;;-0.9339715;0.057365425;-0.34428027;;;;;;;;;;;;;;;
2328.0;2238.0;;;;-0.92784894;0.053726204;-0.3408318;;;;;;;;;;;;;;;
2328.0;2238.0;;;;-0.9221841;0.049716957;-0.33706287;;;;;;;;;;;;;;;
2328.0;2241.9;262143;262143;11852;;;;;;;;;;;;;;;;;;
2328.0;2242.5;;;;;;;;;;13.000885;-20.47792;6.7445908;;;;;;;;;
2328.0;2242.5;;;;;;;1.2063357;-0.22296824;-0.23816645;;;;;;;;;;;;
2328.0;2242.5;;;;;;;;;;11.993774;-18.829922;6.778924;;;;;;;;;
2328.0;2242.5;;;;;;;1.1760613;-0.22211371;-0.22083193;;;;;;;;;;;;
2328.0;2247.9;;;;;;;;;;;;;3522;;;;;;;;
2328.0;2247.9;;;;;;;;;;;;;3433;;;;;;;;
2328.0;2247.9;;;;;;;;;;;;;3332;;;;;;;;
2328.0;2247.9;;;;;;;;;;;;;3477;;;;;;;;
2328.0;2247.9;;;;;;;;;;;;;3816;;;;;;;;
2330.0;2248.1;;;;-0.91653454;0.045795444;-0.33318332;;;;;;;;;;;;;;;
2330.0;2248.1;;;;-0.91059124;0.042621616;-0.3292618;;;;;;;;;;;;;;;
2330.0;2248.1;;;;-0.90480053;0.0390358;-0.32489017;;;;;;;;;;;;;;;
2330.0;2248.1;;;;-0.89922726;0.035701755;-0.32067493;;;;;;;;;;;;;;;
2330.0;2248.1;;;;-0.8931047;0.032386784;-0.31629565;;;;;;;;;;;;;;;
2330.0;2252.2;;;;;;;;;;11.127811;-17.39555;6.992553;;;;;;;;;
2330.0;2252.2;;;;;;;1.141087;-0.21356852;-0.20105594;;;;;;;;;;;;
2330.0;2252.2;;;;;;;;;;10.280923;-15.694143;6.931516;;;;;;;;;
2330.0;2252.2;;;;;;;1.1066622;-0.20258187;-0.1805475;;;;;;;;;;;;
2330.0;2258.2;;;;-0.88778317;0.029659275;-0.31106952;;;;;;;;;;;;;;;
2330.0;2258.2;;;;-0.88192;0.027572636;-0.30588534;;;;;;;;;;;;;;;
2330.0;2258.2;;;;-0.87617123;0.026332859;-0.30053714;;;;;;;;;;;;;;;
2330.0;2258.2;;;;-0.87140286;0.025112156;-0.29443362;;;;;;;;;;;;;;;
2330.0;2258.2;;;;-0.8703157;0.02313614;-0.2924843;;;;;;;;;;;;;;;
2330.0;2261.8;;;;;;;;;;9.384442;-13.817255;6.576739;;;;;;;;;
2330.0;2261.8;;;;;;;1.0707724;-0.19000824;-0.16235848;;;;;;;;;;;;
2330.0;2261.8;;;;;;;;;;8.571886;-11.967071;6.107517;;;;;;;;;
2330.0;2261.8;;;;;;;1.0348216;-0.18036439;-0.1424604;;;;;;;;;;;;
2330.0;2262.2;262143;262143;11846;;;;;;;;;;;;;;;;;;
2332.0;2265.5;;;;;;;;;;;;;;;;;-27.020327;-39.391766;36.40095;;2168.5
2332.0;2265.5;;;;;;;;;;;;;;0.9313639;0.17462692;-0.3058565;;;;;2168.5
2332.0;2265.5;;;;;;;;;;;;;;;;;-28.088472;-37.297436;37.24784;;2168.5
2332.0;2265.5;;;;;;;;;;;;;;0.915067;0.13226722;-0.30872524;;;;;2168.5
2332.0;2265.5;;;;;;;;;;;;;;;;;-28.965881;-32.02536;37.907806;;2178.0
2332.0;2265.5;;;;;;;;;;;;;;0.9172033;0.092593156;-0.28827783;;;;;2178.0
2332.0;2265.5;;;;;;;;;;;;;;;;;-30.434584;-24.334698;38.193916;;2178.0
2332.0;2265.5;;;;;;;;;;;;;;0.94729453;0.06427198;-0.24530777;;;;;2178.0
2332.0;2265.5;;;;;;;;;;;;;;;;;-30.373547;-15.129551;38.914917;;2187.7
2332.0;2265.5;;;;;;;;;;;;;;0.9704886;0.029175695;-0.18634602;;;;;2187.7
2332.0;2265.5;;;;;;;;;;;;;;;;;-27.508621;-6.6263313;41.08936;;2187.7
