patientId;holterMac;flexMac;;;;;;;;;;;;;;;;;;;;
;CA:F3:0B:1E:33:78;D3:4A:5C:52:80:78;;;;;;;;;;;;;;;;;;;;
receivedTimeStamp;timeStamp;red;ir;green;adxl_accX;adxl_accY;adxl_accZ;lsm_accelX;lsm_accelY;lsm_accelZ;lsm_gyroX;lsm_gyroY;lsm_gyroZ;ecg;flex_lsm_accelX;flex_lsm_accelY;flex_lsm_accelZ;flex_lsm_gyroX;flex_lsm_gyroY;flex_lsm_gyroZ;flex_cmd;flexTimeStamp
301.0;219.1;;;;;;;;;;;;;;;;;;;;17;0.1
301.0;219.1;;;;;;;;;;;;;;;;;10.334331;3.3722954;2.704703;;127.6
301.0;219.1;;;;;;;;;;;;;;1.1513413;0.7927488;0.033265177;;;;;127.6
301.0;219.1;;;;;;;;;;;;;;;;;-10.422071;-11.860256;-3.765221;;127.6
301.0;219.1;;;;;;;;;;;;;;1.2466811;0.83321637;0.003906369;;;;;127.6
301.0;219.1;;;;;;;;;;;;;;;;;-59.884945;-83.92209;-60.1825;;137.1
301.0;219.1;;;;;;;;;;;;;;1.2879422;0.88680685;0.0076296274;;;;;137.1
301.0;219.1;;;;;;;;;;;;;;;;;-121.04785;-124.988556;-119.45326;;137.1
301.0;219.1;;;;;;;;;;;;;;1.295999;0.9045686;-0.041077916;;;;;137.1
364.0;219.9;;;;;;;;;;;;;;;;;-27.043215;-124.74059;-76.44887;;146.7
364.0;219.9;;;;;;;;;;;;;;1.2865382;0.9198889;-0.119327374;;;;;146.7
364.0;219.9;;;;;;;;;;;;;;;;;93.79101;-124.75204;-29.141361;;146.7
364.0;219.9;;;;;;;;;;;;;;1.2439954;0.8747215;-0.22095402;;;;;146.7
364.0;219.9;;;;;;;;;;;;;;;;;118.80856;-95.08804;-26.242104;;156.4
364.0;219.9;;;;;;;;;;;;;;1.2073733;0.9515671;-0.25495163;;;;;156.4
364.0;219.9;;;;;;;;;;;;;;;;;118.96878;1.083407;-14.54207;;156.4
364.0;219.9;;;;;;;;;;;;;;1.1685537;1.0727867;-0.16736351;;;;;156.4
364.0;219.9;;;;;;;;;;;;;;;;;113.53648;5.9129615;-4.9668875;;165.9
364.0;219.9;;;;;;;;;;;;;;1.0655843;0.9010895;-0.1617481;;;;;165.9
364.0;219.9;;;;;;;;;;;;;;;;;109.27916;-1.0185553;-5.7031465;;165.9
364.0;219.9;;;;;;;;;;;;;;1.0645467;0.8499405;-0.16742454;;;;;165.9
364.0;279.4;;;;;;;;;;;;;;;;;101.588486;-2.7809992;-8.068331;;175.6
364.0;279.4;;;;;;;;;;;;;;1.0543535;0.79244363;-0.15570544;;;;;175.6
364.0;279.4;;;;;;;;;;;;;;;;;91.90267;0.6904813;-10.982849;;175.6
364.0;279.4;;;;;;;;;;;;;;0.9894101;0.6949675;-0.090823084;;;;;175.6
364.0;279.4;;;;;;;;;;;;;;;;;80.38575;0.064851835;-14.080477;;185.2
364.0;279.4;;;;;;;;;;;;;;0.9240394;0.60371715;-0.040101323;;;;;185.2
364.0;279.4;;;;;;;;;;;;;;;;;64.718315;-1.106296;-15.289773;;185.2
364.0;279.4;;;;;;;;;;;;;;0.90359205;0.5340739;0.016418958;;;;;185.2
364.0;279.4;;;;;;;;;;;;;;;;;48.73806;1.1520737;-16.018402;;194.7
364.0;279.4;;;;;;;;;;;;;;0.8904691;0.504532;0.081118196;;;;;194.7
364.0;279.4;;;;;;;;;;;;;;;;;39.662617;1.0567034;-15.1104765;;194.7
364.0;279.4;;;;;;;;;;;;;;0.87594223;0.5055086;0.07904294;;;;;194.7
423.0;280.3;;;;;;;;;;;;;;;;;41.52806;-7.763146;-11.322367;;204.4
423.0;280.3;;;;;;;;;;;;;;0.88155764;0.47676015;-0.039185766;;;;;204.4
423.0;280.3;;;;;;;;;;;;;;;;;46.449173;-19.501328;-5.7222204;;204.4
423.0;280.3;;;;;;;;;;;;;;0.91830194;0.4615009;-0.13580737;;;;;204.4
423.0;280.3;;;;;;;;;;;;;;;;;46.75817;-33.989986;1.6327403;;214.0
423.0;280.3;;;;;;;;;;;;;;0.9693289;0.39777824;-0.19714957;;;;;214.0
423.0;280.3;;;;;;;;;;;;;;;;;44.64095;-49.27595;10.284738;;214.0
423.0;280.3;;;;;;;;;;;;;;1.0757774;0.30780968;-0.20746483;;;;;214.0
423.0;280.3;;;;;;;;;;;;;;;;;41.634876;-60.129093;18.34544;;223.7
423.0;280.3;;;;;;;;;;;;;;1.2063357;0.23462631;-0.20996734;;;;;223.7
423.0;280.3;;;;;;;;;;;;;;;;;35.309914;-61.4452;26.219215;;223.7
423.0;280.3;;;;;;;;;;;;;;1.3165685;0.17950988;-0.13159582;;;;;223.7
423.0;340.0;;;;;;;;;;;;;;;;;24.880215;-58.31706;32.91803;;233.3
423.0;340.0;;;;;;;;;;;;;;1.3920712;0.14093448;-0.036744285;;;;;233.3
423.0;340.0;;;;;;;;;;;;;;;;;12.134923;-52.713097;37.804806;;233.3
423.0;340.0;;;;;;;;;;;;;;1.4710532;0.11481063;0.06329539;;;;;233.3
423.0;340.0;;;;;;;;;;;;;;;;;-2.6245918;-39.838097;39.254433;;242.9
423.0;340.0;;;;;;;;;;;;;;1.4667195;0.0839259;0.20258187;;;;;242.9
423.0;340.0;;;;;;;;;;;;;;;;;-15.907774;-31.51799;36.671803;;242.9
423.0;340.0;;;;;;;;;;;;;;1.4268624;0.031861324;0.30744347;;;;;242.9
423.0;340.0;;;;;;;;;;;;;;;;;-21.031069;-33.18888;32.811214;;252.6
423.0;340.0;;;;;;;;;;;;;;1.4034241;-0.005798517;0.3487045;;;;;252.6
423.0;340.0;;;;;;;;;;;;;;;;;-25.753807;-31.601917;26.726585;;252.6
423.0;340.0;;;;;;;;;;;;;;1.4440749;0.0027466659;0.3378399;;;;;252.6
484.0;340.8;;;;;;;;;;;;;;;;;-33.883175;-9.73922;20.458845;;262.2
484.0;340.8;;;;;;;;;;;;;;1.505356;0.026490066;0.357799;;;;;262.2
484.0;340.8;;;;;;;;;;;;;;;;;-38.048954;30.056915;10.258034;;262.2
484.0;340.8;;;;;;;;;;;;;;1.4791101;0.08789331;0.4898221;;;;;262.2
484.0;340.8;;;;;;;;;;;;;;;;;-20.958586;52.365948;-7.045961;;271.9
484.0;340.8;;;;;;;;;;;;;;1.2674336;0.2891934;0.49616992;;;;;271.9
484.0;340.8;;;;;;;;;;;;;;;;;18.03644;28.736992;-23.777735;;271.9
484.0;340.8;;;;;;;;;;;;;;1.1241798;0.5135655;0.14880826;;;;;271.9
484.0;340.8;;;;;;;;;;;;;;;;;45.670948;-12.714774;-36.08814;;281.5
484.0;340.8;;;;;;;;;;;;;;1.1033661;0.5675222;-0.3602405;;;;;281.5
484.0;340.8;;;;;;;;;;;;;;;;;40.913876;-32.715843;-35.763878;;281.5
484.0;340.8;;;;;;;;;;;;;;1.0958587;0.2963347;-0.741966;;;;;281.5
484.0;400.1;;;;;;;;;;;;;;;;;24.712364;-33.72677;-30.568102;;291.2
484.0;400.1;;;;;;;;;;;;;;0.994232;-0.016357921;-0.6621906;;;;;291.2
484.0;400.1;;;;;;;;;;;;;;;;;8.308664;-40.921505;-27.058474;;291.2
484.0;400.1;;;;;;;;;;;;;;0.9259926;-0.14679404;-0.40278327;;;;;291.2
484.0;400.1;;;;;;;;;;;;;;;;;0.29374066;-30.556658;-13.607441;;300.8
484.0;400.1;;;;;;;;;;;;;;0.99649036;-0.2989593;0.0038453322;;;;;300.8
484.0;400.1;;;;;;;;;;;;;;;;;8.156072;-2.9831843;-3.9216285;;300.8
484.0;400.1;;;;;;;;;;;;;;0.9425337;-0.43690297;0.43830684;;;;;300.8
484.0;400.1;;;;;;;;;;;;;;;;;33.29188;1.9913328;-0.4196295;;310.4
484.0;400.1;;;;;;;;;;;;;;0.7981201;-0.44636372;0.5171667;;;;;310.4
484.0;400.1;;;;;;;;;;;;;;;;;55.398724;-6.2181463;5.176702;;310.4
484.0;400.1;;;;;;;;;;;;;;0.74422437;-0.46107364;0.2730186;;;;;310.4
545.0;400.9;;;;;;;;;;;;;;;;;79.737236;-11.394848;11.837367;;320.1
545.0;400.9;;;;;;;;;;;;;;0.6283761;-0.45435956;0.053529467;;;;;320.1
545.0;400.9;;;;;;;;;;;;;;;;;109.58815;-31.20136;14.736626;;320.1
545.0;400.9;;;;;;;;;;;;;;0.5341349;-0.31598866;-0.17932676;;;;;320.1
545.0;400.9;;;;;;;;;;;;;;;;;124.40108;-63.333534;16.674551;;329.8
545.0;400.9;;;;;;;;;;;;;;0.5411542;-0.18005921;-0.49592578;;;;;329.8
545.0;400.9;;;;;;;;;;;;;;;;;124.988556;-73.885315;22.31666;;329.8
545.0;400.9;;;;;;;;;;;;;;0.6059145;-0.12286752;-0.6742149;;;;;329.8
545.0;400.9;;;;;;;;;;;;;;;;;118.8696;-49.150063;28.611103;;339.5
545.0;400.9;;;;;;;;;;;;;;0.7462386;-0.10779138;-0.5247963;;;;;339.5
545.0;400.9;;;;;;;;;;;;;;;;;96.70553;-21.061586;33.612324;;339.5
545.0;400.9;;;;;;;;;;;;;;0.9351482;-0.09595019;-0.30249947;;;;;339.5
545.0;460.8;;;;;;;;;;;;;;;;;88.91949;-10.0138855;34.455395;;349.2
545.0;460.8;;;;;;;;;;;;;;0.97274697;-0.031434067;-0.21216469;;;;;349.2
545.0;460.8;;;;;;;;;;;;;;;;;83.803825;-18.082216;33.833584;;349.2
545.0;460.8;;;;;;;;;;;;;;1.0599688;0.11102634;-0.33790094;;;;;349.2
545.0;460.8;;;;;;;;;;;;;;;;;74.58724;-17.612995;34.413433;;358.9
545.0;460.8;;;;;;;;;;;;;;1.1201514;0.21942808;-0.46473587;;;;;358.9
545.0;460.8;;;;;;;;;;;;;;;;;64.90906;-5.836665;35.340435;;358.9
545.0;460.8;;;;;;;;;;;;;;1.0984222;0.2287057;-0.44080934;;;;;358.9
545.0;460.8;;;;;;;;;;;;;;;;;54.20469;-0.24414808;32.38014;;368.6
545.0;460.8;;;;;;;;;;;;;;1.0560014;0.34089175;-0.32502213;;;;;368.6
545.0;460.8;;;;;;;;;;;;;;;;;41.34495;-5.4437394;26.242104;;368.6
545.0;460.8;;;;;;;;;;;;;;1.0551469;0.44196907;-0.3172094;;;;;368.6
605.0;461.7;;;;;;;;;;;;;;;;;34.737694;-12.035737;23.094881;;378.2
605.0;461.7;;;;;;;;;;;;;;1.0788293;0.4974517;-0.3556627;;;;;378.2
605.0;461.7;;;;;;;;;;;;;;;;;28.233437;-13.412886;21.053957;;378.2
605.0;461.7;;;;;;;;;;;;;;1.0711386;0.5101474;-0.39643544;;;;;378.2
605.0;461.7;;;;;;;;;;;;;;;;;19.94766;-11.005738;18.635365;;387.7
605.0;461.7;;;;;;;;;;;;;;1.0626545;0.4820704;-0.41358685;;;;;387.7
605.0;461.7;;;;;;;;;;;;;;;;;10.204626;-7.160405;16.369366;;387.7
605.0;461.7;;;;;;;;;;;;;;1.0561235;0.4492935;-0.41938534;;;;;387.7
605.0;461.7;;;;;;;;;;;;;;;;;-0.19074069;-3.0365918;13.855403;;397.4
605.0;461.7;;;;;;;;;;;;;;1.0152898;0.38514358;-0.41273233;;;;;397.4
605.0;461.7;;;;;;;;;;;;;;;;;-8.457442;-1.3008515;12.348553;;397.4
605.0;461.7;;;;;;;;;;;;;;0.9657887;0.286874;-0.3859981;;;;;397.4
605.0;520.6;;;;;;;;;;;;;;;;;-13.2793665;-1.6861477;11.413922;;407.0
605.0;520.6;;;;;;;;;;;;;;0.9322794;0.20130008;-0.34662923;;;;;407.0
605.0;520.6;;;;;;;;;;;;;;;;;-13.5883665;-3.3036287;11.646626;;407.0
605.0;520.6;;;;;;;;;;;;;;0.9081698;0.10791345;-0.3112888;;;;;407.0
605.0;520.6;;;;;;;;;;;;;;;;;-9.792626;-4.9211097;12.588885;;416.7
605.0;520.6;;;;;;;;;;;;;;0.8872951;0.029419843;-0.27594838;;;;;416.7
605.0;520.6;;;;;;;;;;;;;;;;;-4.215369;-7.042146;13.798181;;416.7
605.0;520.6;;;;;;;;;;;;;;0.8652608;-0.027527696;-0.26770836;;;;;416.7
605.0;520.6;;;;;;;;;;;;;;;;;1.9302957;-7.9729605;15.869625;;426.3
605.0;520.6;;;;;;;;;;;;;;0.8561052;-0.06366161;-0.25855282;;;;;426.3
605.0;520.6;;;;;;;;;;;;;;;;;12.256997;-8.911405;20.569475;;426.3
605.0;520.6;;;;;;;;;;;;;;0.817774;-0.1723075;-0.27314067;;;;;426.3
665.0;521.4;;;;;;;;;;;;;;;;;19.451736;-9.846034;21.275217;;435.8
665.0;521.4;;;;;;;;;;;;;;0.81044954;-0.17352824;-0.24988556;;;;;435.8
665.0;521.4;;;;;;;;;;;;;;;;;23.865475;-13.271737;22.808771;;435.8
665.0;521.4;;;;;;;;;;;;;;0.81673634;-0.1605884;-0.25678274;;;;;435.8
665.0;521.4;;;;;;;;;;;;;;;;;28.25251;-14.698478;24.304178;;445.5
665.0;521.4;;;;;;;;;;;;;;0.8308969;-0.13824885;-0.25415814;;;;;445.5
665.0;521.4;;;;;;;;;;;;;;;;;32.513657;-15.194403;25.734734;;445.5
665.0;521.4;;;;;;;;;;;;;;0.84719384;-0.09363079;-0.23615223;;;;;445.5
665.0;521.4;;;;;;;;;;;;;;;;;37.423325;-17.471846;27.088993;;455.1
665.0;521.4;;;;;;;;;;;;;;0.8564715;-0.044129767;-0.235786;;;;;455.1
665.0;521.4;;;;;;;;;;;;;;;;;42.36732;-20.260475;28.744621;;455.1
665.0;521.4;;;;;;;;;;;;;;0.87398905;0.0037232582;-0.24060793;;;;;455.1
665.0;535.7;;;;;;;;;;;;;;;;;46.0448;-21.008179;30.419323;;464.7
665.0;535.7;;;;;;;;;;;;;;0.8866848;0.040711693;-0.22840053;;;;;464.7
665.0;535.7;;;;;;;;;;;;;;;;;48.387096;-20.378735;31.922363;;464.7
665.0;535.7;;;;;;;;;;;;;;0.89345986;0.07550279;-0.19812617;;;;;464.7
665.0;535.7;;;;;;;;;;;;;;;;;49.37132;-20.60381;32.826473;;474.3
665.0;535.7;;;;;;;;;;;;;;0.90462965;0.115543075;-0.17920469;;;;;474.3
665.0;535.7;;;;;;;;;;;;;;;;;49.25306;-21.542253;33.72677;;474.3
665.0;535.7;;;;;;;;;;;;;;0.9172033;0.14545122;-0.17603077;;;;;474.3
665.0;535.7;;;;;;;;;;;;;;;;;48.42906;-21.744438;34.306618;;483.9
665.0;535.7;;;;;;;;;;;;;;0.92446667;0.17181921;-0.17096469;;;;;483.9
665.0;535.7;;;;;;;;;;;;;;;;;46.609394;-20.928068;34.39436;;483.9
665.0;535.7;;;;;;;;;;;;;;0.93826103;0.19653921;-0.16479996;;;;;483.9
729.0;581.4;;;;;;;;;;;;;;;;;45.10254;-19.157995;34.405804;;493.6
729.0;581.4;;;;;;;;;;;;;;0.9356975;0.2120426;-0.15460677;;;;;493.6
729.0;581.4;;;;;;;;;;;;;;;;;43.321026;-19.829401;34.024323;;493.6
729.0;581.4;;;;;;;;;;;;;;0.9289224;0.23114718;-0.1716361;;;;;493.6
729.0;581.4;;;;;;;;;;;;;;;;;40.41795;-20.729698;33.61614;;503.3
729.0;581.4;;;;;;;;;;;;;;0.9432661;0.24408704;-0.20850246;;;;;503.3
729.0;581.4;;;;;;;;;;;;;;;;;36.496323;-16.29307;33.066807;;503.3
729.0;581.4;;;;;;;;;;;;;;0.9540086;0.25202185;-0.20105594;;;;;503.3
729.0;581.4;;;;;;;;;;;;;;;;;32.429733;-10.944701;32.059696;;513.0
729.0;581.4;;;;;;;;;;;;;;0.9457686;0.25202185;-0.17548142;;;;;513.0
729.0;581.4;;;;;;;;;;;;;;;;;29.8204;-9.578998;31.083101;;513.0
729.0;581.4;;;;;;;;;;;;;;0.9389325;0.26087222;-0.17700736;;;;;513.0
729.0;596.1;;;;;;;;;;;;;;;;;26.852474;-10.357219;30.39262;;522.6
729.0;596.1;;;;;;;;;;;;;;0.95126194;0.2705771;-0.20282601;;;;;522.6
729.0;596.1;;;;;;;;;;;;;;;;;23.144474;-8.529923;29.927214;;522.6
729.0;596.1;;;;;;;;;;;;;;0.9561449;0.25397503;-0.21112704;;;;;522.6
729.0;596.1;;;;;;;;;;;;;;;;;19.657734;-4.7799616;28.859066;;532.2
729.0;596.1;;;;;;;;;;;;;;0.9540696;0.25403607;-0.19000824;;;;;532.2
729.0;596.1;;;;;;;;;;;;;;;;;16.533403;-3.234962;28.286842;;532.2
729.0;596.1;;;;;;;;;;;;;;0.9507126;0.2369457;-0.18335521;;;;;532.2
729.0;596.1;;;;;;;;;;;;;;;;;14.5497;-2.9335918;27.92062;;541.7
729.0;596.1;;;;;;;;;;;;;;0.9373455;0.2070986;-0.19287698;;;;;541.7
729.0;596.1;;;;;;;;;;;;;;;;;13.283181;-2.1324809;27.203438;;541.7
729.0;596.1;;;;;;;;;;;;;;0.91781366;0.19544053;-0.19775994;;;;;541.7
788.0;641.3;;;;;;;;;;;;;;;;;13.5387745;-1.9684439;26.753288;;551.4
788.0;641.3;;;;;;;;;;;;;;0.9012726;0.19037446;-0.19611195;;;;;551.4
788.0;641.3;;;;;;;;;;;;;;;;;14.564959;-2.5749993;26.196325;;551.4
788.0;641.3;;;;;;;;;;;;;;0.8843654;0.1975158;-0.19946899;;;;;551.4
788.0;641.3;;;;;;;;;;;;;;;;;15.125736;-3.4714804;25.421919;;561.0
788.0;641.3;;;;;;;;;;;;;;0.87276834;0.20239876;-0.20435195;;;;;561.0
788.0;641.3;;;;;;;;;;;;;;;;;15.373699;-4.013184;24.658957;;561.0
788.0;641.3;;;;;;;;;;;;;;0.87295145;0.20850246;-0.20307016;;;;;561.0
788.0;641.3;;;;;;;;;;;;;;;;;15.4194765;-3.68511;23.78155;;570.6
788.0;641.3;;;;;;;;;;;;;;0.8742943;0.22150335;-0.1899472;;;;;570.6
788.0;641.3;;;;;;;;;;;;;;;;;15.5796995;-3.4142585;22.652363;;570.6
788.0;641.3;;;;;;;;;;;;;;0.859035;0.23004852;-0.17462692;;;;;570.6
788.0;701.7;;;;;;;;;;;;;;;;;15.8772545;-4.9172945;21.275217;;580.3
788.0;701.7;;;;;;;;;;;;;;0.8429823;0.23865475;-0.17090365;;;;;580.3
788.0;701.7;;;;;;;;;;;;;;;;;16.228218;-7.5037384;19.848475;;580.3
788.0;701.7;;;;;;;;;;;;;;0.839259;0.24787134;-0.17810602;;;;;580.3
788.0;701.7;;;;;;;;;;;;;;;;;15.491959;-8.625294;18.379772;;589.9
788.0;701.7;;;;;;;;;;;;;;0.83169043;0.252266;-0.18396558;;;;;589.9
788.0;701.7;;;;;;;;;;;;;;;;;14.5497;-8.953367;16.97592;;589.9
788.0;701.7;;;;;;;;;;;;;;0.82198554;0.2586749;-0.18237862;;;;;589.9
788.0;701.7;;;;;;;;;;;;;;;;;14.255959;-9.857478;15.591144;;599.6
788.0;701.7;;;;;;;;;;;;;;0.8210089;0.26813564;-0.18524735;;;;;599.6
788.0;701.7;;;;;;;;;;;;;;;;;13.664663;-10.593738;15.034181;;599.6
788.0;701.7;;;;;;;;;;;;;;0.82284003;0.2626423;-0.18701743;;;;;599.6
847.0;702.8;;;;;;;;;;;;;;;;;12.833034;-11.2880335;14.572589;;609.1
847.0;702.8;;;;;;;;;;;;;;0.83223975;0.2567217;-0.19037446;;;;;609.1
847.0;702.8;;;;;;;;;;;;;;;;;11.532182;-11.837367;14.126255;;609.1
847.0;702.8;;;;;;;;;;;;;;0.8472549;0.2496414;-0.20270394;;;;;609.1
847.0;702.8;;;;;;;;;;;;;;;;;11.215552;-11.928923;13.763847;;618.8
847.0;702.8;;;;;;;;;;;;;;0.8509171;0.24304941;-0.21619312;;;;;618.8
847.0;702.8;;;;;;;;;;;;;;;;;11.444441;-12.4134035;13.401441;;618.8
847.0;702.8;;;;;;;;;;;;;;0.8509171;0.24732201;-0.22772911;;;;;618.8
847.0;702.8;;;;;;;;;;;;;;;;;10.696738;-12.310404;13.32133;;628.5
847.0;702.8;;;;;;;;;;;;;;0.8476211;0.25415814;-0.23432112;;;;;628.5
847.0;702.8;;;;;;;;;;;;;;;;;9.10596;-12.184515;13.191626;;628.5
847.0;702.8;;;;;;;;;;;;;;0.84054077;0.26532793;-0.23895992;;;;;628.5
847.0;709.1;;;;;;;;;;;;;;;;;7.389294;-12.218848;13.065737;;638.1
847.0;709.1;;;;;;;;;;;;;;0.8332774;0.27753532;-0.23712882;;;;;638.1
847.0;709.1;;;;;;;;;;;;;;;;;5.1004057;-12.375256;12.848292;;638.1
847.0;709.1;;;;;;;;;;;;;;0.8281503;0.29029205;-0.23834956;;;;;638.1
847.0;709.1;;;;;;;;;;;;;;;;;3.0022585;-11.627552;12.443922;;647.8
847.0;709.1;;;;;;;;;;;;;;0.834315;0.29834896;-0.23401593;;;;;647.8
847.0;709.1;;;;;;;;;;;;;;;;;-0.4196295;-7.206183;11.806849;;647.8
847.0;709.1;;;;;;;;;;;;;;0.844203;0.29779962;-0.20404676;;;;;647.8
847.0;709.1;;;;;;;;;;;;;;;;;-4.875332;-0.32425916;10.834071;;657.3
847.0;709.1;;;;;;;;;;;;;;0.84231085;0.29151282;-0.14465773;;;;;657.3
847.0;709.1;;;;;;;;;;;;;;;;;-10.471663;4.7189245;9.865108;;657.3
847.0;709.1;;;;;;;;;;;;;;0.8286996;0.2696005;-0.08600116;;;;;657.3
903.0;769.5;;;;;;;;;;;;;;;;;-13.317514;4.6464434;9.605701;;667.0
903.0;769.5;;;;;;;;;;;;;;0.8004395;0.23505355;-0.064760275;;;;;667.0
903.0;769.5;;;;;;;;;;;;;;;;;-12.096774;-1.7967772;8.606219;;667.0
903.0;769.5;;;;;;;;;;;;;;0.7900021;0.22510453;-0.106631674;;;;;667.0
903.0;769.5;;;;;;;;;;;;;;;;;-10.170293;-8.312479;7.4808497;;676.6
903.0;769.5;;;;;;;;;;;;;;0.7972045;0.21338542;-0.17194128;;;;;676.6
903.0;769.5;;;;;;;;;;;;;;;;;-7.683035;-12.394329;6.492813;;676.6
903.0;769.5;;;;;;;;;;;;;;0.79744864;0.19843134;-0.21576586;;;;;676.6
903.0;769.5;;;;;;;;;;;;;;;;;-5.710776;-14.397107;5.386517;;686.2
903.0;769.5;;;;;;;;;;;;;;0.80202645;0.17963195;-0.24585712;;;;;686.2
903.0;769.5;;;;;;;;;;;;;;;;;-4.482406;-12.810144;4.0513325;;686.2
903.0;769.5;;;;;;;;;;;;;;0.8072756;0.15655996;-0.24561296;;;;;686.2
903.0;770.3;;;;;;;;;;;;;;;;;-4.81811;-5.8709984;2.3651845;;695.9
903.0;770.3;;;;;;;;;;;;;;0.81313515;0.13605152;-0.20648824;;;;;695.9
903.0;770.3;;;;;;;;;;;;;;;;;-7.7745905;3.8338878;-0.04196295;;695.9
903.0;770.3;;;;;;;;;;;;;;0.8105106;0.113956116;-0.1551561;;;;;695.9
903.0;770.3;;;;;;;;;;;;;;;;;-8.6787;10.296182;-2.7962584;;705.5
903.0;770.3;;;;;;;;;;;;;;0.7709586;0.08709983;-0.10693686;;;;;705.5
903.0;770.3;;;;;;;;;;;;;;;;;-5.394147;7.9615164;-5.962554;;705.5
903.0;770.3;;;;;;;;;;;;;;0.7417829;0.07525864;-0.08642842;;;;;705.5
903.0;770.3;;;;;;;;;;;;;;;;;-0.9346294;2.6932585;-8.655812;;715.2
903.0;770.3;;;;;;;;;;;;;;0.7513047;0.07556383;-0.099490345;;;;;715.2
903.0;770.3;;;;;;;;;;;;;;;;;2.1439252;3.2311473;-10.116886;;715.2
903.0;770.3;;;;;;;;;;;;;;0.7604602;0.07092502;-0.097170934;;;;;715.2
963.0;822.3;;;;;;;;;;;;;;;;;1.7929624;5.8061466;-12.443922;;724.9
963.0;822.3;;;;;;;;;;;;;;0.7330546;0.0629902;-0.08868679;;;;;724.9
963.0;822.3;;;;;;;;;;;;;;;;;1.9837031;1.1825923;-16.59444;;724.9
963.0;822.3;;;;;;;;;;;;;;0.68910795;0.06738487;-0.112979524;;;;;724.9
963.0;822.3;;;;;;;;;;;;;;;;;6.805628;-9.102145;-20.886105;;734.6
963.0;822.3;;;;;;;;;;;;;;0.6717124;0.0872219;-0.1788995;;;;;734.6
963.0;822.3;;;;;;;;;;;;;;;;;18.97107;-18.620106;-23.037659;;734.6
963.0;822.3;;;;;;;;;;;;;;0.66408277;0.09552293;-0.235786;;;;;734.6
963.0;822.3;;;;;;;;;;;;;;;;;31.781212;-21.00055;-24.922176;;744.2
963.0;822.3;;;;;;;;;;;;;;0.67049164;0.111880854;-0.25342572;;;;;744.2
963.0;822.3;;;;;;;;;;;;;;;;;32.57851;-10.418256;-25.379955;;744.2
963.0;822.3;;;;;;;;;;;;;;0.65846735;0.0933256;-0.2369457;;;;;744.2
963.0;837.7;;;;;;;;;;;;;;;;;28.03888;1.6365551;-24.68566;;753.8
963.0;837.7;;;;;;;;;;;;;;0.6362499;0.0369274;-0.22168645;;;;;753.8
963.0;837.7;;;;;;;;;;;;;;;;;27.275919;7.969146;-24.937437;;753.8
963.0;837.7;;;;;;;;;;;;;;0.6131779;0.009277627;-0.19696645;;;;;753.8
963.0;837.7;;;;;;;;;;;;;;;;;28.942991;7.9615164;-25.35325;;763.5
963.0;837.7;;;;;;;;;;;;;;0.60390025;-0.0038453322;-0.19269387;;;;;763.5
963.0;837.7;;;;;;;;;;;;;;;;;28.691214;14.057589;-27.386547;;763.5
963.0;837.7;;;;;;;;;;;;;;0.6136662;-6.103702E-4;-0.18836024;;;;;763.5
963.0;837.7;;;;;;;;;;;;;;;;;20.142216;38.018433;-32.05588;;773.1
963.0;837.7;;;;;;;;;;;;;;0.647969;0.0220954;-0.13599049;;;;;773.1
963.0;837.7;;;;;;;;;;;;;;;;;4.875332;72.214424;-37.35847;;773.1
963.0;837.7;;;;;;;;;;;;;;0.6676229;0.03418073;-0.045838803;;;;;773.1
1026.0;882.7;;;;;;;;;;;;;;;;;-3.1434064;94.706566;-40.746025;;782.7
1026.0;882.7;;;;;;;;;;;;;;0.63600576;0.038209174;0.091677606;;;;;782.7
1026.0;882.7;;;;;;;;;;;;;;;;;2.0867033;82.40379;-42.577137;;782.7
1026.0;882.7;;;;;;;;;;;;;;0.5500046;0.021668142;0.17120884;;;;;782.7
1026.0;882.7;;;;;;;;;;;;;;;;;25.757622;36.515396;-45.121616;;792.4
1026.0;882.7;;;;;;;;;;;;;;0.50618;0.025269326;0.102725305;;;;;792.4
1026.0;882.7;;;;;;;;;;;;;;;;;50.99643;-12.825403;-48.242134;;792.4
1026.0;882.7;;;;;;;;;;;;;;0.5647145;0.053712577;-0.04260384;;;;;792.4
1026.0;882.7;;;;;;;;;;;;;;;;;65.14176;-48.177284;-48.249763;;802.1
1026.0;882.7;;;;;;;;;;;;;;0.6869106;0.09430219;-0.26416823;;;;;802.1
1026.0;882.7;;;;;;;;;;;;;;;;;73.04224;-49.863426;-43.22184;;802.1
1026.0;882.7;;;;;;;;;;;;;;0.76021606;0.11224708;-0.4492935;;;;;802.1
1026.0;890.1;;;;;;;;;;;;;;;;;70.34135;-24.166845;-37.37373;;811.7
1026.0;890.1;;;;;;;;;;;;;;0.74709314;0.07415998;-0.52394176;;;;;811.7
1026.0;890.1;;;;;;;;;;;;;;;;;56.508835;3.8415174;-34.43632;;811.7
1026.0;890.1;;;;;;;;;;;;;;0.7005219;0.016907254;-0.499588;;;;;811.7
1026.0;890.1;;;;;;;;;;;;;;;;;36.9274;27.584917;-33.87173;;821.3
1026.0;890.1;;;;;;;;;;;;;;0.6899014;-0.0050660726;-0.45222327;;;;;821.3
1026.0;890.1;;;;;;;;;;;;;;;;;25.444807;44.900356;-32.956177;;821.3
1026.0;890.1;;;;;;;;;;;;;;0.712241;0.02496414;-0.37434003;;;;;821.3
1026.0;890.1;;;;;;;;;;;;;;;;;23.911253;52.35832;-30.774101;;831.0
1026.0;890.1;;;;;;;;;;;;;;0.7480697;0.0568865;-0.30249947;;;;;831.0
1026.0;890.1;;;;;;;;;;;;;;;;;25.734734;56.73391;-27.447584;;831.0
1026.0;890.1;;;;;;;;;;;;;;0.7777337;0.062746055;-0.23444319;;;;;831.0
1097.0;942.9;;;;;;;;;;;;;;;;;27.176733;60.21683;-26.50914;;840.7
1097.0;942.9;;;;;;;;;;;;;;0.7943358;0.08728294;-0.1690115;;;;;840.7
1097.0;942.9;;;;;;;;;;;;;;;;;25.055696;64.42076;-30.220953;;840.7
1097.0;942.9;;;;;;;;;;;;;;0.8152104;0.13611256;-0.130253;;;;;840.7
1097.0;942.9;;;;;;;;;;;;;;;;;19.909512;73.294014;-36.9541;;850.3
1097.0;942.9;;;;;;;;;;;;;;0.8374279;0.22510453;-0.07794427;;;;;850.3
1097.0;942.9;;;;;;;;;;;;;;;;;16.670736;78.47071;-41.539505;;850.3
1097.0;942.9;;;;;;;;;;;;;;0.8267464;0.30280465;-0.044740137;;;;;850.3
1097.0;942.9;;;;;;;;;;;;;;;;;29.351177;61.105686;-43.42021;;860.0
1097.0;942.9;;;;;;;;;;;;;;0.78560746;0.37141025;-0.061769463;;;;;860.0
1097.0;942.9;;;;;;;;;;;;;;;;;55.234684;21.786402;-39.845726;;860.0
1097.0;942.9;;;;;;;;;;;;;;0.7693106;0.4459975;-0.18451491;;;;;860.0
1097.0;944.1;;;;;;;;;;;;;;;;;65.889465;-3.4638507;-29.007843;;869.7
1097.0;944.1;;;;;;;;;;;;;;0.8404187;0.45649585;-0.37269205;;;;;869.7
1097.0;944.1;;;;;;;;;;;;;;;;;52.27439;12.485885;-17.17429;;869.7
1097.0;944.1;;;;;;;;;;;;;;0.9236122;0.37488937;-0.4528947;;;;;869.7
1097.0;944.1;;;;;;;;;;;;;;;;;28.305918;52.655872;-12.405774;;879.4
1097.0;944.1;;;;;;;;;;;;;;0.9178747;0.28119755;-0.27863398;;;;;879.4
1097.0;944.1;;;;;;;;;;;;;;;;;16.472366;72.67983;-14.007996;;879.4
1097.0;944.1;;;;;;;;;;;;;;0.86916715;0.24671163;-0.0999176;;;;;879.4
1097.0;944.1;;;;;;;;;;;;;;;;;24.25077;66.74398;-15.316477;;888.9
1097.0;944.1;;;;;;;;;;;;;;0.8258309;0.24445327;0.006103702;;;;;888.9
1097.0;944.1;;;;;;;;;;;;;;;;;37.961212;45.144505;-14.469588;;888.9
1097.0;944.1;;;;;;;;;;;;;;0.8136235;0.24524674;-0.033082064;;;;;888.9
1145.0;1003.2;;;;;;;;;;;;;;;;;46.296577;28.565325;-13.359478;;898.6
1145.0;1003.2;;;;;;;;;;;;;;0.81856745;0.28003785;-0.1777398;;;;;898.6
1145.0;1003.2;;;;;;;;;;;;;;;;;45.186466;23.808252;-12.962737;;898.6
1145.0;1003.2;;;;;;;;;;;;;;0.81405073;0.3475448;-0.31006807;;;;;898.6
1145.0;1003.2;;;;;;;;;;;;;;;;;36.427654;25.791956;-13.554033;;908.2
1145.0;1003.2;;;;;;;;;;;;;;0.8100833;0.43269143;-0.39301735;;;;;908.2
1145.0;1003.2;;;;;;;;;;;;;;;;;23.091066;33.684807;-12.939848;;908.2
1145.0;1003.2;;;;;;;;;;;;;;0.8004395;0.51136816;-0.40668964;;;;;908.2
1145.0;1003.2;;;;;;;;;;;;;;;;;10.479293;44.331947;-10.467849;;917.9
1145.0;1003.2;;;;;;;;;;;;;;0.7965331;0.55903804;-0.357799;;;;;917.9
1145.0;1003.2;;;;;;;;;;;;;;;;;3.7156286;51.263466;-8.274331;;917.9
1145.0;1003.2;;;;;;;;;;;;;;0.8026368;0.56495863;-0.2776574;;;;;917.9
1145.0;1004.0;;;;;;;;;;;;;;;;;3.5248878;50.10376;-8.476516;;927.6
1145.0;1004.0;;;;;;;;;;;;;;0.80385756;0.55525374;-0.2230903;;;;;927.6
1145.0;1004.0;;;;;;;;;;;;;;;;;8.377332;42.020172;-10.177923;;927.6
1145.0;1004.0;;;;;;;;;;;;;;0.79085666;0.5488449;-0.22528763;;;;;927.6
1145.0;1004.0;;;;;;;;;;;;;;;;;11.272774;34.821617;-12.867367;;937.2
1145.0;1004.0;;;;;;;;;;;;;;0.7840205;0.53743094;-0.25305948;;;;;937.2
1145.0;1004.0;;;;;;;;;;;;;;;;;9.0983305;32.9104;-17.78466;;937.2
1145.0;1004.0;;;;;;;;;;;;;;0.78969693;0.54249704;-0.2656331;;;;;937.2
1145.0;1004.0;;;;;;;;;;;;;;;;;6.0541096;35.939358;-23.056734;;946.8
1145.0;1004.0;;;;;;;;;;;;;;0.7995239;0.54609823;-0.2575152;;;;;946.8
1145.0;1004.0;;;;;;;;;;;;;;;;;2.7733696;45.54506;-27.279734;;946.8
1145.0;1004.0;;;;;;;;;;;;;;0.84951323;0.52522355;-0.21082187;;;;;946.8
1202.0;1063.5;;;;;;;;;;;;;;;;;-4.7647023;67.518394;-33.280437;;956.4
1202.0;1063.5;;;;;;;;;;;;;;0.9289224;0.47499007;-0.13580737;;;;;956.4
1202.0;1063.5;;;;;;;;;;;;;;;;;-13.176367;98.79605;-42.973877;;956.4
1202.0;1063.5;;;;;;;;;;;;;;1.0163884;0.4453261;-0.023804437;;;;;956.4
1202.0;1063.5;;;;;;;;;;;;;;;;;-13.309885;119.579155;-56.382946;;966.1
1202.0;1063.5;;;;;;;;;;;;;;1.129551;0.43745232;0.08032472;;;;;966.1
1202.0;1063.5;;;;;;;;;;;;;;;;;-5.882443;124.82452;-71.176796;;966.1
1202.0;1063.5;;;;;;;;;;;;;;1.2348399;0.47834712;0.19904172;;;;;966.1
1202.0;1063.5;;;;;;;;;;;;;;;;;2.2621846;120.30015;-82.36564;;975.7
1202.0;1063.5;;;;;;;;;;;;;;1.302591;0.51258886;0.30042422;;;;;975.7
1202.0;1063.5;;;;;;;;;;;;;;;;;11.520738;102.37052;-90.350044;;975.7
1202.0;1063.5;;;;;;;;;;;;;;1.3594775;0.52699363;0.3076876;;;;;975.7
1202.0;1064.3;;;;;;;;;;;;;;;;;23.602253;82.75094;-101.61519;;985.3
1202.0;1064.3;;;;;;;;;;;;;;1.4387646;0.5305948;0.2445143;;;;;985.3
1202.0;1064.3;;;;;;;;;;;;;;;;;33.875546;70.12009;-115.707115;;985.3
1202.0;1064.3;;;;;;;;;;;;;;1.5516831;0.58919036;0.15326396;;;;;985.3
1202.0;1064.3;;;;;;;;;;;;;;;;;33.516956;69.734795;-123.32911;;995.0
1202.0;1064.3;;;;;;;;;;;;;;1.6542252;0.5719779;0.047364727;;;;;995.0
1202.0;1064.3;;;;;;;;;;;;;;;;;28.771324;82.80816;-124.94278;;995.0
1202.0;1064.3;;;;;;;;;;;;;;1.7393719;0.51857054;-0.009033479;;;;;995.0
1202.0;1064.3;;;;;;;;;;;;;;;;;26.219215;98.357346;-124.988556;;1004.6
1202.0;1064.3;;;;;;;;;;;;;;1.7766045;0.43098238;-0.010925626;;;;;1004.6
1202.0;1064.3;;;;;;;;;;;;;;;;;28.992584;109.21049;-124.988556;;1004.6
1202.0;1064.3;;;;;;;;;;;;;;1.77575;0.31171605;-0.012451552;;;;;1004.6
1209.0;1123.9;;;;;;;;;;;;;;;;;38.56014;111.73589;-124.988556;;1014.2
1209.0;1123.9;;;;;;;;;;;;;;1.7639089;0.20007935;0.006714072;;;;;1014.2
1209.0;1123.9;;;;;;;;;;;;;;;;;47.67373;108.14997;-124.988556;;1014.2
1209.0;1123.9;;;;;;;;;;;;;;1.7663503;0.08917508;-0.0076906644;;;;;1014.2
1209.0;1123.9;;;;;;;;;;;;;;;;;60.9035;101.588486;-124.988556;;1023.8
1209.0;1123.9;;;;;;;;;;;;;;1.7896664;-0.018738365;-0.06762902;;;;;1023.8
1209.0;1123.9;;;;;;;;;;;;;;;;;71.52394;98.208565;-124.988556;;1023.8
1209.0;1123.9;;;;;;;;;;;;;;1.7777032;-0.078981906;-0.065187536;;;;;1023.8
1209.0;1123.9;;;;;;;;;;;;;;;;;74.96109;93.199715;-124.988556;;1033.4
1209.0;1123.9;;;;;;;;;;;;;;1.7634815;-0.15173803;-0.1477096;;;;;1033.4
1209.0;1123.9;;;;;;;;;;;;;;;;;86.1919;91.92175;-124.15693;;1033.4
1209.0;1123.9;;;;;;;;;;;;;;1.7855769;-0.25910214;-0.1937315;;;;;1033.4
1210.0;1124.6;;;;;;;;;;;;;;;;;88.44646;94.61883;-122.12744;;1043.1
1210.0;1124.6;;;;;;;;;;;;;;1.759331;-0.33692434;-0.19013031;;;;;1043.1
1210.0;1124.6;;;;;;;;;;;;;;;;;79.966125;105.174416;-124.45067;;1043.1
1210.0;1124.6;;;;;;;;;;;;;;1.7206335;-0.37635425;-0.18793298;;;;;1043.1
1210.0;1124.6;;;;;;;;;;;;;;;;;81.904045;116.45863;-124.88556;;1052.8
1210.0;1124.6;;;;;;;;;;;;;;1.6237679;-0.26276436;-0.045533616;;;;;1052.8
1210.0;1124.6;;;;;;;;;;;;;;;;;80.67949;117.74041;-124.988556;;1052.8
1210.0;1124.6;;;;;;;;;;;;;;1.5226295;-0.09198279;0.10449538;;;;;1052.8
1210.0;1124.6;;;;;;;;;;;;;;;;;77.97861;111.842705;-124.988556;;1062.5
1210.0;1124.6;;;;;;;;;;;;;;1.3819392;0.04669332;0.24292734;;;;;1062.5
1210.0;1124.6;;;;;;;;;;;;;;;;;77.46361;90.86886;-124.988556;;1062.5
1210.0;1124.6;;;;;;;;;;;;;;1.3435469;0.24152349;0.28662986;;;;;1062.5
1210.0;1127.4;;;;0.0;0.0;0.0;;;;;;;;;;;;;;;
1210.0;1127.4;;;;-0.23667529;0.07021714;-0.044082645;;;;;;;;;;;;;;;
1210.0;1127.4;;;;-1.2511827;0.26882175;-0.36263278;;;;;;;;;;;;;;;
1210.0;1127.4;;;;-1.3947603;0.2852097;-0.41486365;;;;;;;;;;;;;;;
1210.0;1127.4;;;;-1.3946992;0.27578738;-0.41016394;;;;;;;;;;;;;;;
1210.0;1137.4;;;;-1.3951532;0.26641086;-0.40547568;;;;;;;;;;;;;;;
1210.0;1137.4;;;;-1.3959924;0.25660327;-0.39924628;;;;;;;;;;;;;;;
1210.0;1137.4;;;;-1.3969041;0.24691013;-0.39392477;;;;;;;;;;;;;;;
1210.0;1137.4;;;;-1.3971368;0.23744205;-0.38658148;;;;;;;;;;;;;;;
1210.0;1137.4;;;;-1.3960534;0.22879794;-0.37922293;;;;;;;;;;;;;;;
1262.0;1139.6;57391;57504;11648;;;;;;;;;;;;;;;;;;
1262.0;1147.3;;;;-1.3938676;0.22036746;-0.37144092;;;;;;;;;;;;;;;
1262.0;1147.3;;;;-1.3905107;0.21295932;-0.36243442;;;;;;;;;;;;;;;
1262.0;1147.3;;;;-1.3857805;0.20663455;-0.35383227;;;;;;;;;;;;;;;
1262.0;1147.3;;;;-1.3800546;0.20077518;-0.34513858;;;;;;;;;;;;;;;
1262.0;1147.3;;;;-1.3734514;0.19565967;-0.33565524;;;;;;;;;;;;;;;
1262.0;1157.4;;;;-1.3651696;0.19080356;-0.32612613;;;;;;;;;;;;;;;
1262.0;1157.4;;;;-1.3557435;0.1864319;-0.31681827;;;;;;;;;;;;;;;
1262.0;1157.4;;;;-1.3455354;0.18172075;-0.30716327;;;;;;;;;;;;;;;
1262.0;1157.4;;;;-1.3340265;0.17667009;-0.29846194;;;;;;;;;;;;;;;
1262.0;1157.4;;;;-1.3219377;0.17193605;-0.28925708;;;;;;;;;;;;;;;
1262.0;1159.7;73843;73872;11631;;;;;;;;;;;;;;;;;;
1262.0;1166.1;;;;;;;;;;;;;0;;;;;;;;
1262.0;1166.1;;;;;;;;;;;;;0;;;;;;;;
1262.0;1166.1;;;;;;;;;;;;;-1;;;;;;;;
1262.0;1166.1;;;;;;;;;;;;;-2;;;;;;;;
1262.0;1166.1;;;;;;;;;;;;;-3;;;;;;;;
1262.0;1167.5;;;;-1.3097764;0.16717912;-0.28098682;;;;;;;;;;;;;;;
1262.0;1167.5;;;;-1.2979852;0.16231538;-0.27258685;;;;;;;;;;;;;;;
1262.0;1167.5;;;;-1.2867395;0.1569748;-0.26337054;;;;;;;;;;;;;;;
1262.0;1167.5;;;;-1.2750856;0.1513138;-0.25397876;;;;;;;;;;;;;;;
1262.0;1167.5;;;;-1.2629281;0.14528657;-0.24543384;;;;;;;;;;;;;;;
1264.0;1177.6;;;;-1.2511026;0.13925935;-0.2372742;;;;;;;;;;;;;;;
1264.0;1177.6;;;;-1.2394258;0.13306047;-0.22941211;;;;;;;;;;;;;;;
1264.0;1177.6;;;;-1.227688;0.12677003;-0.22192004;;;;;;;;;;;;;;;
1264.0;1177.6;;;;-1.214779;0.11949541;-0.21493152;;;;;;;;;;;;;;;
1264.0;1177.6;;;;-1.2021066;0.11324312;-0.20763019;;;;;;;;;;;;;;;
1264.0;1180.0;90259;90224;11573;;;;;;;;;;;;;;;;;;
1264.0;1184.6;;;;;;;;;;;;;;;;;75.91098;61.693165;-124.98093;;1072.1
1264.0;1184.6;;;;;;;;;;;;;;1.4267403;0.43568224;0.22797327;;;;;1072.1
1264.0;1184.6;;;;;;;;;;;;;;;;;73.69076;38.026066;-124.06537;;1072.1
1264.0;1184.6;;;;;;;;;;;;;;1.5338603;0.6382031;0.119327374;;;;;1072.1
1264.0;1184.6;;;;;;;;;;;;;;;;;69.09009;26.535845;-120.273445;;1081.7
1264.0;1184.6;;;;;;;;;;;;;;1.5818964;0.76314586;0.017456587;;;;;1081.7
1264.0;1184.6;;;;;;;;;;;;;;;;;64.11558;22.873623;-115.634636;;1081.7
1264.0;1184.6;;;;;;;;;;;;;;1.5638294;0.8377331;-0.04235969;;;;;1081.7
1264.0;1184.6;;;;;;;;;;;;;;;;;58.31706;21.725365;-108.61538;;1091.3
1264.0;1184.6;;;;;;;;;;;;;;1.490524;0.83370465;-0.07202368;;;;;1091.3
1264.0;1184.6;;;;;;;;;;;;;;;;;52.529984;20.775475;-103.23267;;1091.3
1264.0;1184.6;;;;;;;;;;;;;;1.4172186;0.7842647;-0.077761166;;;;;1091.3
1381.0;1185.4;;;;;;;;;;;;;;;;;44.28617;21.599476;-98.422195;;1100.9
1381.0;1185.4;;;;;;;;;;;;;;1.3536791;0.6961882;-0.0844142;;;;;1100.9
1381.0;1185.4;;;;;;;;;;;;;;;;;34.447765;21.725365;-95.507675;;1100.9
1381.0;1185.4;;;;;;;;;;;;;;1.3165685;0.6211127;-0.1010773;;;;;1100.9
1381.0;1185.4;;;;;;;;;;;;;;;;;23.056734;22.350992;-92.51305;;1110.6
1381.0;1185.4;;;;;;;;;;;;;;1.2914213;0.5505539;-0.12494278;;;;;1110.6
1381.0;1185.4;;;;;;;;;;;;;;;;;11.932737;25.521103;-88.419754;;1110.6
1381.0;1185.4;;;;;;;;;;;;;;1.2353892;0.4591815;-0.12475967;;;;;1110.6
1381.0;1185.4;;;;;;;;;;;;;;;;;0.71718496;30.365917;-84.10902;;1120.1
1381.0;1185.4;;;;;;;;;;;;;;1.1665395;0.387463;-0.045777764;;;;;1120.1
1381.0;1185.4;;;;;;;;;;;;;;;;;-8.6787;31.655323;-79.073456;;1120.1
1381.0;1185.4;;;;;;;;;;;;;;1.0954313;0.33198035;0.051881466;;;;;1120.1
1381.0;1187.6;;;;-1.1892892;0.10701753;-0.20151523;;;;;;;;;;;;;;;
1381.0;1187.6;;;;-1.1768228;0.10128023;-0.19465259;;;;;;;;;;;;;;;
1381.0;1187.6;;;;-1.1650239;0.09618761;-0.18907931;;;;;;;;;;;;;;;
1381.0;1187.6;;;;-1.1538049;0.091392525;-0.184227;;;;;;;;;;;;;;;
1381.0;1187.6;;;;-1.142811;0.087673195;-0.18083192;;;;;;;;;;;;;;;
1381.0;1197.7;;;;-1.1325456;0.08354569;-0.17827989;;;;;;;;;;;;;;;
1381.0;1197.7;;;;-1.122368;0.08026124;-0.17591096;;;;;;;;;;;;;;;
1381.0;1197.7;;;;-1.1118852;0.07637406;-0.17461397;;;;;;;;;;;;;;;
1381.0;1197.7;;;;-1.1013643;0.07343293;-0.17277147;;;;;;;;;;;;;;;
1381.0;1197.7;;;;-1.0907975;0.07051087;-0.17160417;;;;;;;;;;;;;;;
1381.0;1200.0;106586;106640;11511;;;;;;;;;;;;;;;;;;
1398.0;1206.3;;;;;;;;;;;;;-8;;;;;;;;
1398.0;1206.3;;;;;;;;;;;;;-5;;;;;;;;
1398.0;1206.3;;;;;;;;;;;;;-6;;;;;;;;
1398.0;1206.3;;;;;;;;;;;;;-26;;;;;;;;
1398.0;1206.3;;;;;;;;;;;;;-12;;;;;;;;
1398.0;1207.6;;;;-1.0798188;0.0674286;-0.17122652;;;;;;;;;;;;;;;
1398.0;1207.6;;;;-1.0691797;0.064552315;-0.17049028;;;;;;;;;;;;;;;
1398.0;1207.6;;;;-1.0589944;0.06113816;-0.17087556;;;;;;;;;;;;;;;
1398.0;1207.6;;;;-1.0492669;0.057689674;-0.17144395;;;;;;;;;;;;;;;
1398.0;1207.6;;;;-1.0400163;0.055019386;-0.1717148;;;;;;;;;;;;;;;
1398.0;1217.8;;;;-1.0306054;0.052257545;-0.17198183;;;;;;;;;;;;;;;
1398.0;1217.8;;;;-1.020981;0.049198158;-0.17263414;;;;;;;;;;;;;;;
1398.0;1217.8;;;;-1.0113107;0.046642307;-0.17234804;;;;;;;;;;;;;;;
1398.0;1217.8;;;;-1.001011;0.044307712;-0.17304994;;;;;;;;;;;;;;;
1398.0;1217.8;;;;-0.99071133;0.04224396;-0.17305757;;;;;;;;;;;;;;;
1398.0;1220.2;122959;122901;11503;;;;;;;;;;;;;;;;;;
1398.0;1227.9;;;;-0.980446;0.040088657;-0.17237855;;;;;;;;;;;;;;;
1398.0;1227.9;;;;-0.96959317;0.038845066;-0.17196275;;;;;;;;;;;;;;;
1398.0;1227.9;;;;-0.959015;0.037227634;-0.17156602;;;;;;;;;;;;;;;
1398.0;1227.9;;;;-0.9480821;0.03576279;-0.17182542;;;;;;;;;;;;;;;
1398.0;1227.9;;;;-0.93704236;0.034435276;-0.17183305;;;;;;;;;;;;;;;
1400.0;1238.0;;;;-0.92651;0.03294373;-0.172493;;;;;;;;;;;;;;;
1400.0;1238.0;;;;-0.91554654;0.031391148;-0.17177965;;;;;;;;;;;;;;;
1400.0;1238.0;;;;-0.90469754;0.029758457;-0.1707802;;;;;;;;;;;;;;;
1400.0;1238.0;;;;-0.8941232;0.028259281;-0.17013933;;;;;;;;;;;;;;;
1400.0;1238.0;;;;-0.88264096;0.026565555;-0.16969301;;;;;;;;;;;;;;;
1400.0;1240.5;139406;139380;11473;;;;;;;;;;;;;;;;;;
1400.0;1245.1;;;;;;;;;;;;;;;;;-13.71807;28.04651;-73.42372;;1129.8
1400.0;1245.1;;;;;;;;;;;;;;1.0397656;0.3014008;0.11810663;;;;;1129.8
1400.0;1245.1;;;;;;;;;;;;;;;;;-15.766624;22.469252;-67.491684;;1129.8
1400.0;1245.1;;;;;;;;;;;;;;0.9643239;0.24304941;0.135197;;;;;1129.8
1400.0;1245.1;;;;;;;;;;;;;;;;;-15.591144;18.959625;-62.04413;;1139.4
1400.0;1245.1;;;;;;;;;;;;;;0.87606436;0.1815241;0.15527818;;;;;1139.4
1400.0;1245.1;;;;;;;;;;;;;;;;;-14.606922;18.143253;-56.939907;;1139.4
1400.0;1245.1;;;;;;;;;;;;;;0.7943358;0.12396619;0.19000824;;;;;1139.4
1400.0;1245.1;;;;;;;;;;;;;;;;;-12.57744;18.967255;-52.28202;;1149.0
1400.0;1245.1;;;;;;;;;;;;;;0.7312845;0.08001953;0.23377179;;;;;1149.0
1400.0;1245.1;;;;;;;;;;;;;;;;;-9.235664;18.341625;-47.59743;;1149.0
1400.0;1245.1;;;;;;;;;;;;;;0.6965545;0.05053865;0.27130955;;;;;1149.0
1401.0;1245.9;;;;;;;;;;;;;;;;;-5.050813;15.686514;-43.6491;;1158.6
1401.0;1245.9;;;;;;;;;;;;;;0.6764122;0.042542804;0.27478865;;;;;1158.6
1401.0;1245.9;;;;;;;;;;;;;;;;;-0.46159247;12.050997;-39.52147;;1158.6
1401.0;1245.9;;;;;;;;;;;;;;0.6517533;0.057313763;0.2699057;;;;;1158.6
1401.0;1245.9;;;;;;;;;;;;;;;;;3.4142585;7.000183;-34.245583;;1168.2
1401.0;1245.9;;;;;;;;;;;;;;0.63600576;0.057435837;0.2626423;;;;;1168.2
1401.0;1245.9;;;;;;;;;;;;;;;;;6.6835537;2.9564807;-30.030212;;1168.2
1401.0;1245.9;;;;;;;;;;;;;;0.61818296;0.08636738;0.2550737;;;;;1168.2
1401.0;1245.9;;;;;;;;;;;;;;;;;8.350628;-0.7095553;-25.35325;;1177.9
1401.0;1245.9;;;;;;;;;;;;;;0.6151311;0.13006988;0.24787134;;;;;1177.9
1401.0;1245.9;;;;;;;;;;;;;;;;;8.548997;-4.161962;-19.669178;;1177.9
1401.0;1245.9;;;;;;;;;;;;;;0.62318796;0.1655324;0.23822749;;;;;1177.9
1401.0;1246.7;;;;;;;;;;;;;-50;;;;;;;;
1401.0;1246.7;;;;;;;;;;;;;-39;;;;;;;;
1401.0;1246.7;;;;;;;;;;;;;1;;;;;;;;
1401.0;1246.7;;;;;;;;;;;;;-206;;;;;;;;
1401.0;1246.7;;;;;;;;;;;;;47;;;;;;;;
1401.0;1248.0;;;;-0.87100613;0.024791721;-0.16970445;;;;;;;;;;;;;;;
1401.0;1248.0;;;;-0.8591119;0.02294922;-0.16921236;;;;;;;;;;;;;;;
1401.0;1248.0;;;;-0.8480264;0.02106476;-0.16957857;;;;;;;;;;;;;;;
1401.0;1248.0;;;;-0.8367959;0.01860428;-0.17074968;;;;;;;;;;;;;;;
1401.0;1248.0;;;;-0.82589734;0.01654053;-0.17107011;;;;;;;;;;;;;;;
1402.0;1258.1;;;;-0.8154069;0.01426697;-0.17084123;;;;;;;;;;;;;;;
1402.0;1258.1;;;;-0.8052865;0.011600495;-0.1709099;;;;;;;;;;;;;;;
1402.0;1258.1;;;;-0.7951585;0.009136201;-0.17068483;;;;;;;;;;;;;;;
1402.0;1258.1;;;;-0.78540814;0.0067367563;-0.1714821;;;;;;;;;;;;;;;
1402.0;1258.1;;;;-0.7754518;0.0040702824;-0.17346193;;;;;;;;;;;;;;;
1402.0;1260.5;155832;155795;11464;;;;;;;;;;;;;;;;;;
1402.0;1267.9;;;;-0.76623166;0.001148224;-0.17545702;;;;;;;;;;;;;;;
1402.0;1267.9;;;;-0.7579652;-0.0015373232;-0.17724611;;;;;;;;;;;;;;;
1402.0;1267.9;;;;-0.750435;-0.0038948064;-0.17868806;;;;;;;;;;;;;;;
1402.0;1267.9;;;;-0.74444586;-0.006340028;-0.1811104;;;;;;;;;;;;;;;
1402.0;1267.9;;;;-0.7389756;-0.008815766;-0.18314363;;;;;;;;;;;;;;;
1402.0;1278.1;;;;-0.7334786;-0.010765077;-0.18562318;;;;;;;;;;;;;;;
1402.0;1278.1;;;;-0.7281762;-0.012832643;-0.18778232;;;;;;;;;;;;;;;
1402.0;1278.1;;;;-0.723568;-0.014991762;-0.18885043;;;;;;;;;;;;;;;
1402.0;1278.1;;;;-0.7182122;-0.017017366;-0.19026569;;;;;;;;;;;;;;;
1402.0;1278.1;;;;-0.7125855;-0.018730165;-0.19094852;;;;;;;;;;;;;;;
1402.0;1280.6;172110;172171;11459;;;;;;;;;;;;;;;;;;
1402.0;1287.0;;;;;;;;;;;;;550;;;;;;;;
1402.0;1287.0;;;;;;;;;;;;;-243;;;;;;;;
1402.0;1287.0;;;;;;;;;;;;;-1264;;;;;;;;
1402.0;1287.0;;;;;;;;;;;;;718;;;;;;;;
1402.0;1287.0;;;;;;;;;;;;;6585;;;;;;;;
1405.0;1288.2;;;;-0.7079926;-0.019794466;-0.19241717;;;;;;;;;;;;;;;
1405.0;1288.2;;;;-0.70639426;-0.019176485;-0.1970711;;;;;;;;;;;;;;;
1405.0;1288.2;;;;-0.69369894;-0.023845676;-0.19328693;;;;;;;;;;;;;;;
1405.0;1288.2;;;;-0.6849976;-0.026752476;-0.18980792;;;;;;;;;;;;;;;
1405.0;1288.2;;;;-0.679802;-0.028224949;-0.19049838;;;;;;;;;;;;;;;
1405.0;1298.3;;;;-0.6814843;-0.024673466;-0.19699481;;;;;;;;;;;;;;;
1405.0;1298.3;;;;-0.6797448;-0.021862032;-0.19823077;;;;;;;;;;;;;;;
1405.0;1298.3;;;;-0.6708947;-0.021675112;-0.19594577;;;;;;;;;;;;;;;
1405.0;1298.3;;;;-0.6611214;-0.022499086;-0.1945267;;;;;;;;;;;;;;;
1405.0;1298.3;;;;-0.65481573;-0.023097994;-0.19412616;;;;;;;;;;;;;;;
1405.0;1300.9;188617;188509;11478;;;;;;;;;;;;;;;;;;
1405.0;1305.1;;;;;;;;;;;;;;;;;6.8132577;-7.374035;-14.072847;;1187.6
1405.0;1305.1;;;;;;;;;;;;;;0.63649404;0.19745475;0.21845149;;;;;1187.6
1405.0;1305.1;;;;;;;;;;;;;;;;;3.501999;-8.835109;-8.541368;;1187.6
1405.0;1305.1;;;;;;;;;;;;;;0.62807095;0.21430098;0.21192053;;;;;1187.6
1405.0;1305.1;;;;;;;;;;;;;;;;;-0.4196295;-9.250923;-3.3646657;;1197.3
1405.0;1305.1;;;;;;;;;;;;;;0.5992004;0.2252266;0.21222572;;;;;1197.3
1405.0;1305.1;;;;;;;;;;;;;;;;;-3.711814;-9.392072;2.5139623;;1197.3
1405.0;1305.1;;;;;;;;;;;;;;0.5547044;0.22125919;0.21784112;;;;;1197.3
1405.0;1305.1;;;;;;;;;;;;;;;;;-5.752739;-10.925627;8.40022;;1206.9
1405.0;1305.1;;;;;;;;;;;;;;0.5318155;0.22278512;0.20612201;;;;;1206.9
1405.0;1305.1;;;;;;;;;;;;;;;;;-7.2405167;-11.474959;13.691366;;1206.9
1405.0;1305.1;;;;;;;;;;;;;;0.5081332;0.22425;0.19696645;;;;;1206.9
1406.0;1305.9;;;;;;;;;;;;;;;;;-7.820368;-11.658071;18.09366;;1216.4
1406.0;1305.9;;;;;;;;;;;;;;0.48072755;0.23187964;0.18567461;;;;;1216.4
1406.0;1305.9;;;;;;;;;;;;;;;;;-7.0497756;-11.345256;21.843624;;1216.4
1406.0;1305.9;;;;;;;;;;;;;;0.4380627;0.25550097;0.16150396;;;;;1216.4
1406.0;1305.9;;;;;;;;;;;;;;;;;-6.050295;-10.570848;26.154364;;1226.0
1406.0;1305.9;;;;;;;;;;;;;;0.39893797;0.25995666;0.13910337;;;;;1226.0
1406.0;1305.9;;;;;;;;;;;;;;;;;-5.878628;-10.170293;31.037325;;1226.0
1406.0;1305.9;;;;;;;;;;;;;;0.37519455;0.26886806;0.1114536;;;;;1226.0
1406.0;1305.9;;;;;;;;;;;;;;;;;-6.069369;-8.140813;35.653248;;1235.7
1406.0;1305.9;;;;;;;;;;;;;;0.35120702;0.26075014;0.083254494;;;;;1235.7
1406.0;1305.9;;;;;;;;;;;;;;;;;-5.664998;-4.448073;41.169468;;1235.7
1406.0;1305.9;;;;;;;;;;;;;;0.3197119;0.24707785;0.07892086;;;;;1235.7
1406.0;1308.3;;;;-0.65071493;-0.022552492;-0.19554904;;;;;;;;;;;;;;;
1406.0;1308.3;;;;-0.64783865;-0.021789553;-0.19610599;;;;;;;;;;;;;;;
1406.0;1308.3;;;;-0.6445313;-0.02151108;-0.19595721;;;;;;;;;;;;;;;
1406.0;1308.3;;;;-0.6403008;-0.021858217;-0.19586948;;;;;;;;;;;;;;;
1406.0;1308.3;;;;-0.6366959;-0.022506716;-0.19427875;;;;;;;;;;;;;;;
1406.0;1318.4;;;;-0.63434607;-0.022682192;-0.19454578;;;;;;;;;;;;;;;
1406.0;1318.4;;;;-0.63176733;-0.022293093;-0.19449618;;;;;;;;;;;;;;;
1406.0;1318.4;;;;-0.6290131;-0.021789553;-0.19380572;;;;;;;;;;;;;;;
1406.0;1318.4;;;;-0.6257363;-0.021785738;-0.19389346;;;;;;;;;;;;;;;
1406.0;1318.4;;;;-0.6227265;-0.021183016;-0.19356158;;;;;;;;;;;;;;;
1440.0;1320.4;;;;;;;;;;;;;;;;;-5.9320354;-1.7586291;46.227913;;1245.4
1440.0;1320.4;;;;;;;;;;;;;;0.29718924;0.23566394;0.07629628;;;;;1245.4
1440.0;1320.4;;;;;;;;;;;;;;;;;-4.955443;-1.8387402;53.346355;;1245.4
1440.0;1320.4;;;;;;;;;;;;;;0.2719199;0.1817072;0.05468917;;;;;1245.4
1440.0;1320.4;;;;;;;;;;;;;;;;;-2.5025177;-3.627888;59.179207;;1255.0
1440.0;1320.4;;;;;;;;;;;;;;0.250618;0.13287759;0.013733329;;;;;1255.0
1440.0;1320.4;;;;;;;;;;;;;;;;;1.5297403;-6.241035;65.12269;;1255.0
1440.0;1320.4;;;;;;;;;;;;;;0.23462631;0.06860561;-0.029419843;;;;;1255.0
1440.0;1320.4;;;;;;;;;;;;;;;;;8.7397375;-8.938108;70.77242;;1264.6
1440.0;1320.4;;;;;;;;;;;;;;0.22162542;0.013733329;-0.06915494;;;;;1264.6
1440.0;1320.4;;;;;;;;;;;;;;;;;19.856104;-11.05533;77.55135;;1264.6
1440.0;1320.4;;;;;;;;;;;;;;0.19946899;-0.04260384;-0.10626545;;;;;1264.6
1440.0;1320.8;204890;204934;11503;;;;;;;;;;;;;;;;;;
1440.0;1327.1;;;;;;;;;;;;;12836;;;;;;;;
1440.0;1327.1;;;;;;;;;;;;;15431;;;;;;;;
1440.0;1327.1;;;;;;;;;;;;;14446;;;;;;;;
1440.0;1327.1;;;;;;;;;;;;;12954;;;;;;;;
1440.0;1327.1;;;;;;;;;;;;;12607;;;;;;;;
1440.0;1328.2;;;;-0.6207467;-0.020549776;-0.19336703;;;;;;;;;;;;;;;
1440.0;1328.2;;;;-0.61858755;-0.019725801;-0.19264987;;;;;;;;;;;;;;;
1440.0;1328.2;;;;-0.6162415;-0.018680574;-0.19319919;;;;;;;;;;;;;;;
1440.0;1328.2;;;;-0.61357886;-0.017650606;-0.19303516;;;;;;;;;;;;;;;
1440.0;1328.2;;;;-0.6106339;-0.016853334;-0.19197848;;;;;;;;;;;;;;;
1448.0;1337.8;;;;-0.6074067;-0.015781404;-0.19071963;;;;;;;;;;;;;;;
1448.0;1337.8;;;;-0.6040955;-0.015537264;-0.19039539;;;;;;;;;;;;;;;
1448.0;1337.8;;;;-0.6016808;-0.01476288;-0.18994907;;;;;;;;;;;;;;;
1448.0;1337.8;;;;-0.59888464;-0.0140152;-0.18854907;;;;;;;;;;;;;;;
1448.0;1337.8;;;;-0.5960236;-0.013919832;-0.18753818;;;;;;;;;;;;;;;
1448.0;1340.6;221305;221320;11531;;;;;;;;;;;;;;;;;;
1448.0;1347.9;;;;-0.59325415;-0.014019014;-0.18621446;;;;;;;;;;;;;;;
1448.0;1347.9;;;;-0.59024435;-0.014602663;-0.18502428;;;;;;;;;;;;;;;
1448.0;1347.9;;;;-0.5878487;-0.015804293;-0.18367769;;;;;;;;;;;;;;;
1448.0;1347.9;;;;-0.58616644;-0.016750338;-0.18342973;;;;;;;;;;;;;;;
1448.0;1347.9;;;;-0.5850678;-0.018447878;-0.1829796;;;;;;;;;;;;;;;
1448.0;1358.1;;;;-0.58399206;-0.019886019;-0.18309022;;;;;;;;;;;;;;;
1448.0;1358.1;;;;-0.5836106;-0.021789553;-0.18383028;;;;;;;;;;;;;;;
1448.0;1358.1;;;;-0.58437735;-0.02340317;-0.18454744;;;;;;;;;;;;;;;
1448.0;1358.1;;;;-0.58567816;-0.024948124;-0.18532182;;;;;;;;;;;;;;;
1448.0;1358.1;;;;-0.58779913;-0.026779179;-0.1863785;;;;;;;;;;;;;;;
1448.0;1360.9;237706;237756;11567;;;;;;;;;;;;;;;;;;
1449.0;1364.9;;;;;;;;;;;;;;;;;35.70284;-13.183996;86.07746;;1274.1
1449.0;1364.9;;;;;;;;;;;;;;0.16046633;-0.14203314;-0.11682486;;;;;1274.1
1449.0;1364.9;;;;;;;;;;;;;;;;;52.21717;-13.405255;94.6112;;1274.1
1449.0;1364.9;;;;;;;;;;;;;;0.15930662;-0.2287057;-0.12756737;;;;;1274.1
1449.0;1364.9;;;;;;;;;;;;;;;;;63.962982;-4.91348;104.51445;;1283.7
1449.0;1364.9;;;;;;;;;;;;;;0.15509507;-0.33960998;-0.11645863;;;;;1283.7
1449.0;1364.9;;;;;;;;;;;;;;;;;69.49065;5.706961;108.11564;;1283.7
1449.0;1364.9;;;;;;;;;;;;;;0.17255165;-0.29688406;-0.0052491836;;;;;1283.7
1449.0;1364.9;;;;;;;;;;;;;;;;;73.69076;-0.5569628;109.16471;;1293.4
1449.0;1364.9;;;;;;;;;;;;;;0.22974335;-0.12237922;0.0926542;;;;;1293.4
1449.0;1364.9;;;;;;;;;;;;;;;;;86.48183;-24.746696;114.2346;;1293.4
1449.0;1364.9;;;;;;;;;;;;;;0.2327952;-0.028321177;0.08398694;;;;;1293.4
1449.0;1367.0;;;;;;;;;;;;;12043;;;;;;;;
1449.0;1367.0;;;;;;;;;;;;;10754;;;;;;;;
1449.0;1367.0;;;;;;;;;;;;;9854;;;;;;;;
1449.0;1367.0;;;;;;;;;;;;;9243;;;;;;;;
1449.0;1367.0;;;;;;;;;;;;;8445;;;;;;;;
1449.0;1368.1;;;;-0.5899201;-0.028617863;-0.18811038;;;;;;;;;;;;;;;
1449.0;1368.1;;;;-0.5922547;-0.030002598;-0.19005206;;;;;;;;;;;;;;;
1449.0;1368.1;;;;-0.59494025;-0.030830387;-0.19172671;;;;;;;;;;;;;;;
1449.0;1368.1;;;;-0.59906393;-0.031997684;-0.19381335;;;;;;;;;;;;;;;
1449.0;1368.1;;;;-0.6031609;-0.03326798;-0.19592288;;;;;;;;;;;;;;;
1506.0;1378.2;;;;-0.60828024;-0.033405308;-0.19832614;;;;;;;;;;;;;;;
1506.0;1378.2;;;;-0.6138955;-0.033660892;-0.20024112;;;;;;;;;;;;;;;
1506.0;1378.2;;;;-0.6207352;-0.034084324;-0.20302966;;;;;;;;;;;;;;;
1506.0;1378.2;;;;-0.6275788;-0.034046177;-0.20587924;;;;;;;;;;;;;;;
1506.0;1378.2;;;;-0.6346474;-0.034351353;-0.2076836;;;;;;;;;;;;;;;
1506.0;1380.0;;;;;;;;;;;;;;;;;101.603745;-57.050537;117.64504;;1303.1
1506.0;1380.0;;;;;;;;;;;;;;0.20465712;0.07000946;-0.0270394;;;;;1303.1
1506.0;1380.0;;;;;;;;;;;;;;;;;114.34141;-84.51338;118.14478;;1303.1
1506.0;1380.0;;;;;;;;;;;;;;0.24256112;0.14532915;-0.1561327;;;;;1303.1
1506.0;1380.0;;;;;;;;;;;;;;;;;120.632034;-93.78338;119.24726;;1312.6
1506.0;1380.0;;;;;;;;;;;;;;0.3772698;0.21918394;-0.20923491;;;;;1312.6
1506.0;1380.0;;;;;;;;;;;;;;;;;109.38216;-78.97045;123.39396;;1312.6
1506.0;1380.0;;;;;;;;;;;;;;0.484756;0.29621264;-0.16541032;;;;;1312.6
1506.0;1380.0;;;;;;;;;;;;;;;;;80.17212;-46.712395;124.988556;;1322.3
1506.0;1380.0;;;;;;;;;;;;;;0.5206458;0.31055635;-0.06714072;;;;;1322.3
1506.0;1380.0;;;;;;;;;;;;;;;;;45.70528;-11.932737;124.59944;;1322.3
1506.0;1380.0;;;;;;;;;;;;;;0.5049593;0.33051544;0.08777124;;;;;1322.3
1506.0;1380.8;254062;254042;11581;;;;;;;;;;;;;;;;;;
1506.0;1388.0;;;;-0.6411744;-0.0346489;-0.20917514;;;;;;;;;;;;;;;
1506.0;1388.0;;;;-0.6469613;-0.035026554;-0.21001437;;;;;;;;;;;;;;;
1506.0;1388.0;;;;-0.651867;-0.035774235;-0.21057132;;;;;;;;;;;;;;;
1506.0;1388.0;;;;-0.6569367;-0.036365513;-0.21176913;;;;;;;;;;;;;;;
1506.0;1388.0;;;;-0.6618386;-0.037651066;-0.21366122;;;;;;;;;;;;;;;
1508.0;1398.0;;;;-0.66657263;-0.038543705;-0.21572879;;;;;;;;;;;;;;;
1508.0;1398.0;;;;-0.6721192;-0.038707737;-0.21891025;;;;;;;;;;;;;;;
1508.0;1398.0;;;;-0.67955405;-0.039077763;-0.22319034;;;;;;;;;;;;;;;
1508.0;1398.0;;;;-0.68759924;-0.03956223;-0.22714236;;;;;;;;;;;;;;;
1508.0;1398.0;;;;-0.6958733;-0.03953934;-0.23098758;;;;;;;;;;;;;;;
1508.0;1400.9;262143;262143;11618;;;;;;;;;;;;;;;;;;
1508.0;1407.2;;;;;;;;;;;;;7351;;;;;;;;
1508.0;1407.2;;;;;;;;;;;;;6387;;;;;;;;
1508.0;1407.2;;;;;;;;;;;;;6507;;;;;;;;
1508.0;1407.2;;;;;;;;;;;;;7697;;;;;;;;
1508.0;1407.2;;;;;;;;;;;;;8889;;;;;;;;
1508.0;1408.1;;;;-0.7044068;-0.038909916;-0.2364693;;;;;;;;;;;;;;;
1508.0;1408.1;;;;-0.71220785;-0.038162235;-0.24366;;;;;;;;;;;;;;;
1508.0;1408.1;;;;-0.7200585;-0.036975864;-0.25052646;;;;;;;;;;;;;;;
1508.0;1408.1;;;;-0.72755057;-0.03575516;-0.25520328;;;;;;;;;;;;;;;
1508.0;1408.1;;;;-0.73424536;-0.034011845;-0.2585869;;;;;;;;;;;;;;;
1508.0;1418.2;;;;-0.7400513;-0.031623844;-0.2608643;;;;;;;;;;;;;;;
1508.0;1418.2;;;;-0.74550635;-0.028625492;-0.2624512;;;;;;;;;;;;;;;
1508.0;1418.2;;;;-0.7504121;-0.025585178;-0.26586917;;;;;;;;;;;;;;;
1508.0;1418.2;;;;-0.75465786;-0.022296907;-0.2705231;;;;;;;;;;;;;;;
1508.0;1418.2;;;;-0.7584878;-0.019508364;-0.27647784;;;;;;;;;;;;;;;
1508.0;1421.2;262143;262143;11625;;;;;;;;;;;;;;;;;;
1510.0;1425.1;;;;;;;;;;;;;;;;;10.498367;5.7451096;120.36881;;1332.0
1510.0;1425.1;;;;;;;;;;;;;;0.4985504;0.36384168;0.20636617;;;;;1332.0
1510.0;1425.1;;;;;;;;;;;;;;;;;-12.867367;1.6899625;116.22593;;1332.0
1510.0;1425.1;;;;;;;;;;;;;;0.5497604;0.37299722;0.17908262;;;;;1332.0
1510.0;1425.1;;;;;;;;;;;;;;;;;-16.739403;-12.813959;112.39204;;1341.7
1510.0;1425.1;;;;;;;;;;;;;;0.64491713;0.4212775;0.075319685;;;;;1341.7
1510.0;1425.1;;;;;;;;;;;;;;;;;-13.462478;-26.139103;111.213264;;1341.7
1510.0;1425.1;;;;;;;;;;;;;;0.8052614;0.5106357;-0.1081576;;;;;1341.7
1510.0;1425.1;;;;;;;;;;;;;;;;;-9.659109;-19.768364;115.57359;;1351.3
1510.0;1425.1;;;;;;;;;;;;;;0.9297769;0.5746025;-0.27228615;;;;;1351.3
1510.0;1425.1;;;;;;;;;;;;;;;;;-7.4312572;3.1586657;117.828156;;1351.3
1510.0;1425.1;;;;;;;;;;;;;;0.9830012;0.6048769;-0.2755211;;;;;1351.3
1510.0;1428.1;;;;-0.7624093;-0.016845705;-0.28239444;;;;;;;;;;;;;;;
1510.0;1428.1;;;;-0.76620877;-0.014781954;-0.28595355;;;;;;;;;;;;;;;
1510.0;1428.1;;;;-0.770115;-0.012588503;-0.28863147;;;;;;;;;;;;;;;
1510.0;1428.1;;;;-0.7731744;-0.010353089;-0.290535;;;;;;;;;;;;;;;
1510.0;1428.1;;;;-0.7758676;-0.007431031;-0.29265597;;;;;;;;;;;;;;;
1510.0;1438.2;;;;-0.77891934;-0.0049781804;-0.29412082;;;;;;;;;;;;;;;
1510.0;1438.2;;;;-0.7825967;-0.00271225;-0.295723;;;;;;;;;;;;;;;
1510.0;1438.2;;;;-0.7863771;-5.4550177E-4;-0.29906848;;;;;;;;;;;;;;;
1510.0;1438.2;;;;-0.79106915;6.9808966E-4;-0.30199817;;;;;;;;;;;;;;;
1510.0;1438.2;;;;-0.7962991;0.0019912722;-0.3047066;;;;;;;;;;;;;;;
1560.0;1440.1;;;;;;;;;;;;;;;;;-1.1520737;17.864773;117.90445;;1361.0
1560.0;1440.1;;;;;;;;;;;;;;0.9466842;0.5719169;-0.1760918;;;;;1361.0
1560.0;1440.1;;;;;;;;;;;;;;;;;12.916959;11.936552;108.504745;;1361.0
1560.0;1440.1;;;;;;;;;;;;;;0.92568743;0.57667774;-0.08343761;;;;;1361.0
1560.0;1440.1;;;;;;;;;;;;;;;;;35.966064;-13.32133;97.13279;;1370.6
1560.0;1440.1;;;;;;;;;;;;;;0.9655446;0.6178777;-0.11249123;;;;;1370.6
1560.0;1440.1;;;;;;;;;;;;;;;;;59.72091;-37.743767;92.72668;;1370.6
1560.0;1440.1;;;;;;;;;;;;;;1.0312815;0.62031925;-0.22992645;;;;;1370.6
1560.0;1440.1;;;;;;;;;;;;;;;;;79.203156;-42.11173;90.35767;;1380.3
1560.0;1440.1;;;;;;;;;;;;;;1.0812708;0.59596545;-0.27100438;;;;;1380.3
1560.0;1440.1;;;;;;;;;;;;;;;;;91.62038;-30.739769;86.45131;;1380.3
1560.0;1440.1;;;;;;;;;;;;;;1.1233253;0.55061495;-0.2019715;;;;;1380.3
1560.0;1441.0;262143;262143;11647;;;;;;;;;;;;;;;;;;
1560.0;1447.2;;;;;;;;;;;;;9235;;;;;;;;
1560.0;1447.2;;;;;;;;;;;;;9063;;;;;;;;
1560.0;1447.2;;;;;;;;;;;;;8921;;;;;;;;
1560.0;1447.2;;;;;;;;;;;;;8472;;;;;;;;
1560.0;1447.2;;;;;;;;;;;;;7006;;;;;;;;
1560.0;1448.1;;;;-0.8022691;0.0027198794;-0.307148;;;;;;;;;;;;;;;
1560.0;1448.1;;;;-0.8081895;0.0048522954;-0.30911258;;;;;;;;;;;;;;;
1560.0;1448.1;;;;-0.8147012;0.0061416635;-0.31193927;;;;;;;;;;;;;;;
1560.0;1448.1;;;;-0.82205594;0.008045197;-0.3138123;;;;;;;;;;;;;;;
1560.0;1448.1;;;;-0.82966244;0.010555268;-0.3143883;;;;;;;;;;;;;;;
1562.0;1458.0;;;;-0.83845913;0.013034822;-0.3149872;;;;;;;;;;;;;;;
1562.0;1458.0;;;;-0.8466722;0.016067507;-0.3156319;;;;;;;;;;;;;;;
1562.0;1458.0;;;;-0.8543359;0.019977571;-0.31517032;;;;;;;;;;;;;;;
1562.0;1458.0;;;;-0.86143124;0.023326876;-0.31522372;;;;;;;;;;;;;;;
1562.0;1458.0;;;;-0.8680345;0.027069096;-0.3148041;;;;;;;;;;;;;;;
1562.0;1461.1;262143;262143;11666;;;;;;;;;;;;;;;;;;
1562.0;1468.1;;;;-0.8739816;0.030509952;-0.31459048;;;;;;;;;;;;;;;
1562.0;1468.1;;;;-0.8792039;0.034687046;-0.31341937;;;;;;;;;;;;;;;
1562.0;1468.1;;;;-0.8840333;0.0387497;-0.31203082;;;;;;;;;;;;;;;
1562.0;1468.1;;;;-0.88966763;0.042289738;-0.31148914;;;;;;;;;;;;;;;
1562.0;1468.1;;;;-0.8953744;0.04647446;-0.31008914;;;;;;;;;;;;;;;
1562.0;1478.3;;;;-0.901703;0.05105973;-0.3083916;;;;;;;;;;;;;;;
1562.0;1478.3;;;;-0.9081918;0.05533982;-0.3067589;;;;;;;;;;;;;;;
1562.0;1478.3;;;;-0.9140283;0.06039048;-0.30526736;;;;;;;;;;;;;;;
1562.0;1478.3;;;;-0.91868985;0.06534196;-0.30301288;;;;;;;;;;;;;;;
1562.0;1478.3;;;;-0.92289746;0.06980897;-0.29987338;;;;;;;;;;;;;;;
1562.0;1481.3;262143;262143;11682;;;;;;;;;;;;;;;;;;
1563.0;1485.7;;;;;;;;;;;;;;;;;95.11094;-10.689108;80.91982;;1389.9
1563.0;1485.7;;;;;;;;;;;;;;1.1996216;0.5399945;-0.028931547;;;;;1389.9
1563.0;1485.7;;;;;;;;;;;;;;;;;84.402756;4.8677025;75.60961;;1389.9
1563.0;1485.7;;;;;;;;;;;;;;1.2474135;0.5368206;0.19483016;;;;;1389.9
1563.0;1485.7;;;;;;;;;;;;;;;;;69.93316;-3.2311473;70.59694;;1399.6
1563.0;1485.7;;;;;;;;;;;;;;1.2093265;0.5258339;0.28730124;;;;;1399.6
1563.0;1485.7;;;;;;;;;;;;;;;;;60.422832;-23.884548;64.7145;;1399.6
1563.0;1485.7;;;;;;;;;;;;;;1.1297342;0.590289;0.24634542;;;;;1399.6
1563.0;1485.7;;;;;;;;;;;;;;;;;50.294502;-37.614063;59.354687;;1409.3
1563.0;1485.7;;;;;;;;;;;;;;1.1125218;0.7030854;0.2097232;;;;;1409.3
1563.0;1485.7;;;;;;;;;;;;;;;;;40.29206;-46.89932;58.908356;;1409.3
1563.0;1485.7;;;;;;;;;;;;;;1.1003144;0.7217628;0.14685507;;;;;1409.3
1563.0;1487.5;;;;;;;;;;;;;5661;;;;;;;;
1563.0;1487.5;;;;;;;;;;;;;7413;;;;;;;;
1563.0;1487.5;;;;;;;;;;;;;6558;;;;;;;;
1563.0;1487.5;;;;;;;;;;;;;-9522;;;;;;;;
1563.0;1487.5;;;;;;;;;;;;;-36136;;;;;;;;
1563.0;1488.3;;;;-0.92626965;0.07449723;-0.29715732;;;;;;;;;;;;;;;
1563.0;1488.3;;;;-0.9287187;0.07941056;-0.29370502;;;;;;;;;;;;;;;
1563.0;1488.3;;;;-0.93005383;0.08462144;-0.29041293;;;;;;;;;;;;;;;
1563.0;1488.3;;;;-0.930977;0.08927918;-0.28764728;;;;;;;;;;;;;;;
1563.0;1488.3;;;;-0.9308549;0.09360505;-0.28615192;;;;;;;;;;;;;;;
1621.0;1492.8;;;;;;;;;;;;;;;;;34.058655;-53.7698;58.85876;;1418.9
1621.0;1492.8;;;;;;;;;;;;;;1.0784631;0.7259743;0.064210944;;;;;1418.9
1621.0;1492.8;;;;;;;;;;;;;;;;;26.558733;-52.117985;56.230354;;1418.9
1621.0;1492.8;;;;;;;;;;;;;;1.1181982;0.7529527;0.024842067;;;;;1418.9
1621.0;1492.8;;;;;;;;;;;;;;;;;18.539995;-37.839138;53.346355;;1428.6
1621.0;1492.8;;;;;;;;;;;;;;1.108005;0.7167577;0.08990753;;;;;1428.6
1621.0;1492.8;;;;;;;;;;;;;;;;;12.627033;-20.924253;48.081913;;1428.6
1621.0;1492.8;;;;;;;;;;;;;;1.0795617;0.7038789;0.17188025;;;;;1428.6
1621.0;1492.8;;;;;;;;;;;;;;;;;8.713035;-5.855739;43.969543;;1438.1
1621.0;1492.8;;;;;;;;;;;;;;1.043672;0.66798913;0.22577593;;;;;1438.1
1621.0;1492.8;;;;;;;;;;;;;;;;;5.1347394;9.323405;41.894283;;1438.1
1621.0;1492.8;;;;;;;;;;;;;;1.02884;0.6164739;0.30640584;;;;;1438.1
1621.0;1498.2;;;;-0.9311296;0.097152725;-0.28421023;;;;;;;;;;;;;;;
1621.0;1498.2;;;;-0.9318048;0.09989168;-0.28366855;;;;;;;;;;;;;;;
1621.0;1498.2;;;;-0.9336473;0.102260605;-0.28424075;;;;;;;;;;;;;;;
1621.0;1498.2;;;;-0.93727505;0.10336687;-0.2863808;;;;;;;;;;;;;;;
1621.0;1498.2;;;;-0.9437295;0.10348131;-0.2886162;;;;;;;;;;;;;;;
1621.0;1501.3;262143;262143;11693;;;;;;;;;;;;;;;;;;
1621.0;1508.2;;;;-0.9524995;0.10317613;-0.29128268;;;;;;;;;;;;;;;
1621.0;1508.2;;;;-0.9632951;0.10242845;-0.2949181;;;;;;;;;;;;;;;
1621.0;1508.2;;;;-0.9749795;0.10128786;-0.2972565;;;;;;;;;;;;;;;
1621.0;1508.2;;;;-0.98765194;0.100360885;-0.29875568;;;;;;;;;;;;;;;
1621.0;1508.2;;;;-1.0007135;0.09990312;-0.30038837;;;;;;;;;;;;;;;
1622.0;1518.1;;;;-1.0131646;0.10029985;-0.3014603;;;;;;;;;;;;;;;
1622.0;1518.1;;;;-1.0249864;0.10109712;-0.30259708;;;;;;;;;;;;;;;
1622.0;1518.1;;;;-1.0363504;0.10316087;-0.3032799;;;;;;;;;;;;;;;
1622.0;1518.1;;;;-1.0471727;0.10625078;-0.3036385;;;;;;;;;;;;;;;
1622.0;1518.1;;;;-1.0581018;0.10994722;-0.30581668;;;;;;;;;;;;;;;
1622.0;1521.3;262143;262143;11701;;;;;;;;;;;;;;;;;;
1622.0;1527.5;;;;;;;;;;;;;-49047;;;;;;;;
1622.0;1527.5;;;;;;;;;;;;;-33696;;;;;;;;
1622.0;1527.5;;;;;;;;;;;;;-4558;;;;;;;;
1622.0;1527.5;;;;;;;;;;;;;12448;;;;;;;;
1622.0;1527.5;;;;;;;;;;;;;10709;;;;;;;;
1622.0;1528.2;;;;-1.0691835;0.11457063;-0.3095856;;;;;;;;;;;;;;;
1622.0;1528.2;;;;-1.0801088;0.1202469;-0.3140259;;;;;;;;;;;;;;;
1622.0;1528.2;;;;-1.0910417;0.12631609;-0.3195038;;;;;;;;;;;;;;;
1622.0;1528.2;;;;-1.1023523;0.13240816;-0.32642367;;;;;;;;;;;;;;;
1622.0;1528.2;;;;-1.1140634;0.13895418;-0.3338051;;;;;;;;;;;;;;;
1622.0;1538.3;;;;-1.1252595;0.14427187;-0.3416634;;;;;;;;;;;;;;;
1622.0;1538.3;;;;-1.1359826;0.14970781;-0.35052493;;;;;;;;;;;;;;;
1622.0;1538.3;;;;-1.1466104;0.15442659;-0.36003116;;;;;;;;;;;;;;;
1622.0;1538.3;;;;-1.1573068;0.15886308;-0.3696213;;;;;;;;;;;;;;;
1622.0;1538.3;;;;-1.1679612;0.16263582;-0.3799935;;;;;;;;;;;;;;;
1622.0;1541.6;262143;262143;11707;;;;;;;;;;;;;;;;;;
1625.0;1545.6;;;;;;;;;;;;;;;;;-0.19455549;26.268806;39.540543;;1447.7
1625.0;1545.6;;;;;;;;;;;;;;1.0263375;0.5426191;0.38373974;;;;;1447.7
1625.0;1545.6;;;;;;;;;;;;;;;;;-3.0899992;43.820766;36.805325;;1447.7
1625.0;1545.6;;;;;;;;;;;;;;0.95437485;0.46278268;0.49763483;;;;;1447.7
1625.0;1545.6;;;;;;;;;;;;;;;;;-1.3771478;42.573322;32.658623;;1457.4
1625.0;1545.6;;;;;;;;;;;;;;0.96609396;0.46925262;0.53022856;;;;;1457.4
1625.0;1545.6;;;;;;;;;;;;;;;;;-2.1477401;28.836176;32.765434;;1457.4
1625.0;1545.6;;;;;;;;;;;;;;1.0770593;0.44886625;0.41541794;;;;;1457.4
1625.0;1545.6;;;;;;;;;;;;;;;;;-4.581591;24.788658;33.9671;;1467.1
1625.0;1545.6;;;;;;;;;;;;;;1.195471;0.3937498;0.29139072;;;;;1467.1
1625.0;1545.6;;;;;;;;;;;;;;;;;-4.203925;38.33888;31.910915;;1467.1
1625.0;1545.6;;;;;;;;;;;;;;1.1896116;0.3695181;0.33259073;;;;;1467.1
1625.0;1548.3;;;;-1.17931;0.16599275;-0.3910485;;;;;;;;;;;;;;;
1625.0;1548.3;;;;-1.192074;0.16923906;-0.4034043;;;;;;;;;;;;;;;
1625.0;1548.3;;;;-1.2052461;0.17273714;-0.41556555;;;;;;;;;;;;;;;
1625.0;1548.3;;;;-1.2186891;0.17642213;-0.4279862;;;;;;;;;;;;;;;
1625.0;1548.3;;;;-1.231743;0.1800995;-0.44074637;;;;;;;;;;;;;;;
1626.0;1553.0;;;;;;;;;;;;;;;;;3.6164434;50.168613;28.069399;;1476.7
1626.0;1553.0;;;;;;;;;;;;;;1.1910154;0.36335337;0.37653738;;;;;1476.7
1626.0;1553.0;;;;;;;;;;;;;;;;;34.417248;52.90765;23.77392;;1476.7
1626.0;1553.0;;;;;;;;;;;;;;1.1351665;0.2229072;0.16516617;;;;;1476.7
1626.0;1553.0;;;;;;;;;;;;;;;;;94.81338;37.320324;13.092441;;1486.4
1626.0;1553.0;;;;;;;;;;;;;;1.0497147;0.22663045;-0.16736351;;;;;1486.4
1626.0;1553.0;;;;;;;;;;;;;;;;;123.78689;11.036257;5.237739;;1486.4
1626.0;1553.0;;;;;;;;;;;;;;1.052095;0.27381206;-0.3861812;;;;;1486.4
1626.0;1553.0;;;;;;;;;;;;;;;;;124.652855;-21.118809;8.976256;;1496.1
1626.0;1553.0;;;;;;;;;;;;;;1.0121769;0.04181036;-0.30896938;;;;;1496.1
1626.0;1553.0;;;;;;;;;;;;;;;;;117.64123;-76.11317;15.411847;;1496.1
1626.0;1553.0;;;;;;;;;;;;;;1.139195;-0.118717;-0.22083193;;;;;1496.1
1626.0;1558.3;;;;-1.2464639;0.18447115;-0.4538918;;;;;;;;;;;;;;;
1626.0;1558.3;;;;-1.2602044;0.18954471;-0.46598822;;;;;;;;;;;;;;;
1626.0;1558.3;;;;-1.2749444;0.19534305;-0.47812277;;;;;;;;;;;;;;;
1626.0;1558.3;;;;-1.289303;0.20211032;-0.4889031;;;;;;;;;;;;;;;
1626.0;1558.3;;;;-1.3039666;0.21029666;-0.50028235;;;;;;;;;;;;;;;
1626.0;1561.5;262143;262143;11717;;;;;;;;;;;;;;;;;;
1626.0;1567.6;;;;;;;;;;;;;4403;;;;;;;;
1626.0;1567.6;;;;;;;;;;;;;4525;;;;;;;;
1626.0;1567.6;;;;;;;;;;;;;7002;;;;;;;;
1626.0;1567.6;;;;;;;;;;;;;6799;;;;;;;;
1626.0;1567.6;;;;;;;;;;;;;6027;;;;;;;;
1680.0;1568.3;;;;-1.3186685;0.21912006;-0.5108262;;;;;;;;;;;;;;;
1680.0;1568.3;;;;-1.3321115;0.22842792;-0.5213395;;;;;;;;;;;;;;;
1680.0;1568.3;;;;-1.3453828;0.2385445;-0.5311852;;;;;;;;;;;;;;;
1680.0;1568.3;;;;-1.3587991;0.24955752;-0.54116446;;;;;;;;;;;;;;;
1680.0;1568.3;;;;-1.3708383;0.26026538;-0.55086523;;;;;;;;;;;;;;;
1680.0;1578.0;;;;-1.3815652;0.27128986;-0.5595246;;;;;;;;;;;;;;;
1680.0;1578.0;;;;-1.3896791;0.28226092;-0.56774527;;;;;;;;;;;;;;;
1680.0;1578.0;;;;-1.3955461;0.29362872;-0.5749741;;;;;;;;;;;;;;;
1680.0;1578.0;;;;-1.3994409;0.30385593;-0.581688;;;;;;;;;;;;;;;
1680.0;1578.0;;;;-1.4012529;0.313736;-0.58705145;;;;;;;;;;;;;;;
1680.0;1581.4;262143;262143;11756;;;;;;;;;;;;;;;;;;
1680.0;1588.2;;;;-1.400715;0.32340625;-0.59081656;;;;;;;;;;;;;;;
1680.0;1588.2;;;;-1.3977205;0.33244327;-0.59286505;;;;;;;;;;;;;;;
1680.0;1588.2;;;;-1.3911973;0.3407021;-0.592331;;;;;;;;;;;;;;;
1680.0;1588.2;;;;-1.3815233;0.34803393;-0.59164053;;;;;;;;;;;;;;;
1680.0;1588.2;;;;-1.369999;0.35449603;-0.5900765;;;;;;;;;;;;;;;
1680.0;1598.3;;;;-1.3567163;0.36010745;-0.58805853;;;;;;;;;;;;;;;
1680.0;1598.3;;;;-1.3429261;0.36504367;-0.5856667;;;;;;;;;;;;;;;
1680.0;1598.3;;;;-1.3294297;0.36827853;-0.5815087;;;;;;;;;;;;;;;
1680.0;1598.3;;;;-1.3158952;0.37106708;-0.57568747;;;;;;;;;;;;;;;
1680.0;1598.3;;;;-1.3033258;0.3728409;-0.5691071;;;;;;;;;;;;;;;
1685.0;1601.7;262143;262143;11780;;;;;;;;;;;;;;;;;;
1685.0;1606.0;;;;;;;;;;;;;;;;;101.310005;-118.09901;24.628439;;1505.8
1685.0;1606.0;;;;;;;;;;;;;;1.4877774;-0.15576647;-0.34992522;;;;;1505.8
1685.0;1606.0;;;;;;;;;;;;;;;;;91.578415;-99.482704;38.38084;;1505.8
1685.0;1606.0;;;;;;;;;;;;;;1.8141422;-0.17627491;-0.29609057;;;;;1505.8
1685.0;1606.0;;;;;;;;;;;;;;;;;100.29145;-42.352062;48.22306;;1515.3
1685.0;1606.0;;;;;;;;;;;;;;1.9260231;-0.17572558;0.079348125;;;;;1515.3
1685.0;1606.0;;;;;;;;;;;;;;;;;90.27375;-21.41255;51.98828;;1515.3
1685.0;1606.0;;;;;;;;;;;;;;1.986633;-0.22882779;0.48121586;;;;;1515.3
1685.0;1606.0;;;;;;;;;;;;;;;;;60.529648;-38.743248;50.691242;;1525.0
1685.0;1606.0;;;;;;;;;;;;;;1.8418531;-0.42323068;0.40339366;;;;;1525.0
1685.0;1606.0;;;;;;;;;;;;;;;;;63.776054;-57.01239;33.501694;;1525.0
1685.0;1606.0;;;;;;;;;;;;;;1.6393933;-0.20117801;0.04174932;;;;;1525.0
1685.0;1607.7;;;;;;;;;;;;;5570;;;;;;;;
1685.0;1607.7;;;;;;;;;;;;;4917;;;;;;;;
1685.0;1607.7;;;;;;;;;;;;;4363;;;;;;;;
1685.0;1607.7;;;;;;;;;;;;;3488;;;;;;;;
1685.0;1607.7;;;;;;;;;;;;;2359;;;;;;;;
1685.0;1608.3;;;;-1.2904702;0.37326434;-0.5617829;;;;;;;;;;;;;;;
1685.0;1608.3;;;;-1.2774087;0.37207034;-0.5539437;;;;;;;;;;;;;;;
1685.0;1608.3;;;;-1.2646486;0.36991504;-0.5451508;;;;;;;;;;;;;;;
1685.0;1608.3;;;;-1.2520753;0.36662295;-0.5364037;;;;;;;;;;;;;;;
1685.0;1608.3;;;;-1.2403871;0.36156085;-0.52808386;;;;;;;;;;;;;;;
1743.0;1613.1;;;;;;;;;;;;;;;;;65.96576;-64.69543;29.953917;;1534.7
1743.0;1613.1;;;;;;;;;;;;;;1.676809;-0.19989623;-0.3751335;;;;;1534.7
1743.0;1613.1;;;;;;;;;;;;;;;;;70.7152;-29.938658;28.675955;;1534.7
1743.0;1613.1;;;;;;;;;;;;;;1.5918455;-0.34205145;-0.43275246;;;;;1534.7
1743.0;1613.1;;;;;;;;;;;;;;;;;96.81235;6.1799984;19.146551;;1544.3
1743.0;1613.1;;;;;;;;;;;;;;1.1509751;-0.3620716;-0.1723075;;;;;1544.3
1743.0;1613.1;;;;;;;;;;;;;;;;;123.49315;-22.598955;-1.2436292;;1544.3
1743.0;1613.1;;;;;;;;;;;;;;0.8215583;-0.07641835;0.003295999;;;;;1544.3
1743.0;1613.1;;;;;;;;;;;;;;;;;124.988556;-93.69564;-29.316843;;1553.9
1743.0;1613.1;;;;;;;;;;;;;;0.79989016;0.25244913;-0.16290781;;;;;1553.9
1743.0;1613.1;;;;;;;;;;;;;;;;;124.988556;-124.56511;-49.939724;;1553.9
1743.0;1613.1;;;;;;;;;;;;;;0.9325846;0.51350445;-0.56215096;;;;;1553.9
1743.0;1618.2;;;;-1.2293664;0.35523608;-0.520382;;;;;;;;;;;;;;;
1743.0;1618.2;;;;-1.2199212;0.3478432;-0.5123673;;;;;;;;;;;;;;;
1743.0;1618.2;;;;-1.2126046;0.3396378;-0.50471884;;;;;;;;;;;;;;;
1743.0;1618.2;;;;-1.2072564;0.33106998;-0.49766165;;;;;;;;;;;;;;;
1743.0;1618.2;;;;-1.2037317;0.32200244;-0.4919892;;;;;;;;;;;;;;;
1743.0;1621.6;262143;262143;11788;;;;;;;;;;;;;;;;;;
1743.0;1628.1;;;;-1.2026902;0.31263736;-0.48640448;;;;;;;;;;;;;;;
1743.0;1628.1;;;;-1.2024843;0.303566;-0.48192602;;;;;;;;;;;;;;;
1743.0;1628.1;;;;-1.2035295;0.2944794;-0.47731787;;;;;;;;;;;;;;;
1743.0;1628.1;;;;-1.2060472;0.28582767;-0.47334296;;;;;;;;;;;;;;;
1743.0;1628.1;;;;-1.2085458;0.2774277;-0.4704476;;;;;;;;;;;;;;;
1748.0;1638.1;;;;-1.2115365;0.26968768;-0.46728903;;;;;;;;;;;;;;;
1748.0;1638.1;;;;-1.2143098;0.2625275;-0.46417624;;;;;;;;;;;;;;;
1748.0;1638.1;;;;-1.2169954;0.25556567;-0.46134573;;;;;;;;;;;;;;;
1748.0;1638.1;;;;-1.2186624;0.25011447;-0.45898825;;;;;;;;;;;;;;;
1748.0;1638.1;;;;-1.2196237;0.24481967;-0.4567147;;;;;;;;;;;;;;;
1748.0;1641.6;262143;262143;11788;;;;;;;;;;;;;;;;;;
1748.0;1647.7;;;;;;;;;;;;;1407;;;;;;;;
1748.0;1647.7;;;;;;;;;;;;;656;;;;;;;;
1748.0;1647.7;;;;;;;;;;;;;-199;;;;;;;;
1748.0;1647.7;;;;;;;;;;;;;-1391;;;;;;;;
1748.0;1647.7;;;;;;;;;;;;;-2764;;;;;;;;
1748.0;1648.2;;;;-1.2196084;0.24057773;-0.45501333;;;;;;;;;;;;;;;
1748.0;1648.2;;;;-1.2185746;0.23659137;-0.4527741;;;;;;;;;;;;;;;
1748.0;1648.2;;;;-1.216488;0.23377231;-0.45079046;;;;;;;;;;;;;;;
1748.0;1648.2;;;;-1.2140123;0.23101428;-0.44926077;;;;;;;;;;;;;;;
1748.0;1648.2;;;;-1.2110559;0.22908786;-0.4476624;;;;;;;;;;;;;;;
1748.0;1658.3;;;;-1.208584;0.22721103;-0.44694906;;;;;;;;;;;;;;;
1748.0;1658.3;;;;-1.2058145;0.22540286;-0.4458924;;;;;;;;;;;;;;;
1748.0;1658.3;;;;-1.2034646;0.2240906;-0.44539267;;;;;;;;;;;;;;;
1748.0;1658.3;;;;-1.2010537;0.22289279;-0.44524008;;;;;;;;;;;;;;;
1748.0;1658.3;;;;-1.1986238;0.22152331;-0.44541174;;;;;;;;;;;;;;;
1748.0;1661.9;262143;262143;11792;;;;;;;;;;;;;;;;;;
1753.0;1668.4;;;;-1.1959802;0.22023013;-0.44490057;;;;;;;;;;;;;;;
1753.0;1668.4;;;;-1.1926843;0.2194176;-0.44501883;;;;;;;;;;;;;;;
1753.0;1668.4;;;;-1.1889726;0.21825793;-0.4452744;;;;;;;;;;;;;;;
1753.0;1668.4;;;;-1.1850587;0.21643451;-0.4452973;;;;;;;;;;;;;;;
1753.0;1668.4;;;;-1.1803361;0.21532825;-0.44517142;;;;;;;;;;;;;;;
1753.0;1673.4;;;;;;;;;;;;;;;;;124.988556;-124.988556;-57.313763;;1563.5
1753.0;1673.4;;;;;;;;;;;;;;1.0234077;0.6826991;-0.8091067;;;;;1563.5
1753.0;1673.4;;;;;;;;;;;;;;;;;117.25974;-117.61834;-56.245613;;1563.5
1753.0;1673.4;;;;;;;;;;;;;;0.9941099;0.7446516;-0.713889;;;;;1563.5
1753.0;1673.4;;;;;;;;;;;;;;;;;61.1095;-79.59227;-48.261208;;1573.2
1753.0;1673.4;;;;;;;;;;;;;;0.9358806;0.733726;-0.5719169;;;;;1573.2
1753.0;1673.4;;;;;;;;;;;;;;;;;-4.4328136;-48.73806;-35.710472;;1573.2
1753.0;1673.4;;;;;;;;;;;;;;0.98910487;0.7236549;-0.5876644;;;;;1573.2
1753.0;1673.4;;;;;;;;;;;;;;;;;-44.087803;-27.91299;-16.487625;;1582.8
1753.0;1673.4;;;;;;;;;;;;;;1.0876796;0.6441237;-0.6126896;;;;;1582.8
1753.0;1673.4;;;;;;;;;;;;;;;;;-79.06583;10.9408865;-4.459517;;1582.8
1753.0;1673.4;;;;;;;;;;;;;;1.2268441;0.4582049;-0.4893948;;;;;1582.8
1754.0;1674.1;;;;;;;;;;;;;;;;;-114.23078;68.10205;13.061922;;1592.4
1754.0;1674.1;;;;;;;;;;;;;;1.4463332;0.2936491;-0.16016114;;;;;1592.4
1754.0;1674.1;;;;;;;;;;;;;;;;;-122.089294;95.76327;47.879726;;1592.4
1754.0;1674.1;;;;;;;;;;;;;;1.6655781;-0.003418073;0.1037019;;;;;1592.4
1754.0;1674.1;;;;;;;;;;;;;;;;;-79.54268;67.75872;75.71642;;1602.1
1754.0;1674.1;;;;;;;;;;;;;;1.5410016;-0.34119692;0.26197088;;;;;1602.1
1754.0;1674.1;;;;;;;;;;;;;;;;;3.0251474;-8.957183;47.978912;;1602.1
1754.0;1674.1;;;;;;;;;;;;;;1.3061922;-0.42695394;0.021973327;;;;;1602.1
1754.0;1674.1;;;;;;;;;;;;;;;;;42.69158;-59.75906;-24.67803;;1611.7
1754.0;1674.1;;;;;;;;;;;;;;1.3912778;0.23523667;-0.3859981;;;;;1611.7
1754.0;1674.1;;;;;;;;;;;;;;;;;26.978363;-64.40169;-69.48683;;1611.7
1754.0;1674.1;;;;;;;;;;;;;;1.4028748;0.73232216;-0.761742;;;;;1611.7
1754.0;1678.3;;;;-1.1759149;0.21405032;-0.44526678;;;;;;;;;;;;;;;
1754.0;1678.3;;;;-1.1708986;0.21278003;-0.44468313;;;;;;;;;;;;;;;
1754.0;1678.3;;;;-1.1658822;0.21118549;-0.44528586;;;;;;;;;;;;;;;
1754.0;1678.3;;;;-1.161007;0.20963672;-0.44528204;;;;;;;;;;;;;;;
1754.0;1678.3;;;;-1.15617;0.20752719;-0.44505316;;;;;;;;;;;;;;;
1754.0;1681.8;262143;262143;11778;;;;;;;;;;;;;;;;;;
1754.0;1687.8;;;;;;;;;;;;;-3818;;;;;;;;
1754.0;1687.8;;;;;;;;;;;;;-4364;;;;;;;;
1754.0;1687.8;;;;;;;;;;;;;-4906;;;;;;;;
1754.0;1687.8;;;;;;;;;;;;;-5759;;;;;;;;
1754.0;1687.8;;;;;;;;;;;;;-6509;;;;;;;;
1804.0;1688.2;;;;-1.150612;0.20506671;-0.44409186;;;;;;;;;;;;;;;
1804.0;1688.2;;;;-1.1453668;0.20301059;-0.44373327;;;;;;;;;;;;;;;
1804.0;1688.2;;;;-1.1407777;0.20093921;-0.443821;;;;;;;;;;;;;;;
1804.0;1688.2;;;;-1.1371461;0.19876102;-0.44319922;;;;;;;;;;;;;;;
1804.0;1688.2;;;;-1.1336976;0.19711688;-0.44219214;;;;;;;;;;;;;;;
1804.0;1698.1;;;;-1.1303178;0.19581607;-0.4415818;;;;;;;;;;;;;;;
1804.0;1698.1;;;;-1.1274453;0.19435886;-0.44086462;;;;;;;;;;;;;;;
1804.0;1698.1;;;;-1.124344;0.19344333;-0.43980414;;;;;;;;;;;;;;;
1804.0;1698.1;;;;-1.1203576;0.19302371;-0.43884283;;;;;;;;;;;;;;;
1804.0;1698.1;;;;-1.1155015;0.19148639;-0.43780524;;;;;;;;;;;;;;;
1804.0;1701.7;262143;262143;11767;;;;;;;;;;;;;;;;;;
1804.0;1708.2;;;;-1.1099206;0.19004062;-0.43627173;;;;;;;;;;;;;;;
1804.0;1708.2;;;;-1.1038743;0.18854144;-0.43567282;;;;;;;;;;;;;;;
1804.0;1708.2;;;;-1.098221;0.18712236;-0.4353791;;;;;;;;;;;;;;;
1804.0;1708.2;;;;-1.0925294;0.18493272;-0.43531042;;;;;;;;;;;;;;;
1804.0;1708.2;;;;-1.0867044;0.18239214;-0.43497854;;;;;;;;;;;;;;;
1804.0;1718.4;;;;-1.0818673;0.1800194;-0.43384558;;;;;;;;;;;;;;;
1804.0;1718.4;;;;-1.0766717;0.1769829;-0.43272024;;;;;;;;;;;;;;;
1804.0;1718.4;;;;-1.0709306;0.17375566;-0.43134695;;;;;;;;;;;;;;;
1804.0;1718.4;;;;-1.0649606;0.17058565;-0.4301949;;;;;;;;;;;;;;;
1804.0;1718.4;;;;-1.0585786;0.16698457;-0.42800146;;;;;;;;;;;;;;;
1820.0;1722.0;262143;262143;11768;;;;;;;;;;;;;;;;;;
1820.0;1726.0;;;;;;;;;;;;;;;;;-3.212073;-56.192204;-88.648636;;1621.4
1820.0;1726.0;;;;;;;;;;;;;;1.3266397;1.1529282;-0.9554735;;;;;1621.4
1820.0;1726.0;;;;;;;;;;;;;;;;;-44.56465;-24.220253;-72.81716;;1621.4
1820.0;1726.0;;;;;;;;;;;;;;1.1927243;1.2295297;-1.0846279;;;;;1621.4
1820.0;1726.0;;;;;;;;;;;;;;;;;-60.987427;26.299326;-21.977142;;1631.1
1820.0;1726.0;;;;;;;;;;;;;;0.9847102;0.95077366;-0.73195595;;;;;1631.1
1820.0;1726.0;;;;;;;;;;;;;;;;;-69.45631;41.001617;29.28251;;1631.1
1820.0;1726.0;;;;;;;;;;;;;;1.0064394;0.26007873;-0.44703513;;;;;1631.1
1820.0;1726.0;;;;;;;;;;;;;;;;;-51.530502;39.494766;57.79824;;1640.8
1820.0;1726.0;;;;;;;;;;;;;;1.0731529;-0.034669027;-0.17481002;;;;;1640.8
1820.0;1726.0;;;;;;;;;;;;;;;;;-25.879696;13.82107;95.057526;;1640.8
1820.0;1726.0;;;;;;;;;;;;;;1.0085757;-0.31141087;-0.092837304;;;;;1640.8
1824.0;1727.2;;;;;;;;;;;;;;;;;3.0861845;-28.027435;123.4283;;1650.4
1824.0;1727.2;;;;;;;;;;;;;;0.8916288;-0.58503985;-0.18390454;;;;;1650.4
1824.0;1727.2;;;;;;;;;;;;;;;;;24.529253;-48.890656;124.988556;;1650.4
1824.0;1727.2;;;;;;;;;;;;;;0.81264687;-0.7521592;-0.31629384;;;;;1650.4
1824.0;1727.2;;;;;;;;;;;;;;;;;33.87173;-50.92013;124.988556;;1660.0
1824.0;1727.2;;;;;;;;;;;;;;0.7026582;-0.90713215;-0.39106417;;;;;1660.0
1824.0;1727.2;;;;;;;;;;;;;;;;;25.68514;-46.086765;124.9733;;1660.0
1824.0;1727.2;;;;;;;;;;;;;;0.62263864;-0.9479049;-0.44373912;;;;;1660.0
1824.0;1727.2;;;;;;;;;;;;;;;;;7.3473315;-44.21369;112.399666;;1669.7
1824.0;1727.2;;;;;;;;;;;;;;0.46790978;-0.9551683;-0.4865871;;;;;1669.7
1824.0;1727.2;;;;;;;;;;;;;;;;;-10.994293;-44.145027;46.36906;;1669.7
1824.0;1727.2;;;;;;;;;;;;;;0.4591815;-0.54536575;-0.46473587;;;;;1669.7
1824.0;1728.0;;;;;;;;;;;;;-6700;;;;;;;;
1824.0;1728.0;;;;;;;;;;;;;-6497;;;;;;;;
1824.0;1728.0;;;;;;;;;;;;;-6186;;;;;;;;
1824.0;1728.0;;;;;;;;;;;;;-5319;;;;;;;;
1824.0;1728.0;;;;;;;;;;;;;-3166;;;;;;;;
1824.0;1728.3;;;;-1.0522882;0.16336443;-0.42508322;;;;;;;;;;;;;;;
1824.0;1728.3;;;;-1.0446473;0.15940095;-0.42272955;;;;;;;;;;;;;;;
1824.0;1728.3;;;;-1.0368615;0.15583803;-0.42049795;;;;;;;;;;;;;;;
1824.0;1728.3;;;;-1.0290796;0.15219499;-0.41836554;;;;;;;;;;;;;;;
1824.0;1728.3;;;;-1.0205156;0.14872362;-0.41574103;;;;;;;;;;;;;;;
1824.0;1738.4;;;;;;;;;;0.51118505;17.872402;-2.5749993;;;;;;;;;
1824.0;1738.4;;;;;;;1.2585223;-0.2700278;-0.31470686;;;;;;;;;;;;
1824.0;1738.4;;;;;;;;;;4.467147;31.74688;9.93759;;;;;;;;;
1824.0;1738.4;;;;;;;1.4103824;-0.28357798;-0.3437605;;;;;;;;;;;;
1859.0;1738.4;;;;-1.0114022;0.14480974;-0.41259772;;;;;;;;;;;;;;;
1859.0;1738.4;;;;-1.0020143;0.14150621;-0.40853125;;;;;;;;;;;;;;;
1859.0;1738.4;;;;-0.9930345;0.13795473;-0.40452582;;;;;;;;;;;;;;;
1859.0;1738.4;;;;-0.98430264;0.13470079;-0.40039068;;;;;;;;;;;;;;;
1859.0;1738.4;;;;-0.974949;0.13144304;-0.39593512;;;;;;;;;;;;;;;
1859.0;1742.0;262143;262143;11777;;;;;;;;;;;;;;;;;;
1859.0;1747.8;;;;;;;;;;1.0605181;2.1019626;7.000183;;;;;;;;;
1859.0;1747.8;;;;;;;1.4104434;-0.25879696;-0.33179724;;;;;;;;;;;;
1859.0;1747.8;;;;;;;;;;15.694143;8.178961;10.734886;;;;;;;;;
1859.0;1747.8;;;;;;;1.4094058;-0.23596911;-0.3152562;;;;;;;;;;;;
1859.0;1748.4;;;;-0.9657899;0.1282654;-0.39127737;;;;;;;;;;;;;;;
1859.0;1748.4;;;;-0.9562303;0.12505342;-0.38725668;;;;;;;;;;;;;;;
1859.0;1748.4;;;;-0.9471475;0.1215439;-0.38304907;;;;;;;;;;;;;;;
1859.0;1748.4;;;;-0.93781674;0.11828233;-0.37875754;;;;;;;;;;;;;;;
1859.0;1748.4;;;;-0.9294015;0.11412431;-0.37502295;;;;;;;;;;;;;;;
1859.0;1757.2;;;;;;;;;;23.66329;2.1629994;13.134403;;;;;;;;;
1859.0;1757.2;;;;;;;1.4020814;-0.21655935;-0.2944426;;;;;;;;;;;;
1859.0;1757.2;;;;;;;;;;24.918362;-39.143803;-5.203406;;;;;;;;;
1859.0;1757.2;;;;;;;1.3893857;-0.20325327;-0.27442244;;;;;;;;;;;;
1863.0;1758.3;;;;-0.920643;0.10990144;-0.37063602;;;;;;;;;;;;;;;
1863.0;1758.3;;;;-0.9127084;0.10606004;-0.3653336;;;;;;;;;;;;;;;
1863.0;1758.3;;;;-0.90418255;0.10183336;-0.35954288;;;;;;;;;;;;;;;
1863.0;1758.3;;;;-0.8952905;0.09738161;-0.35486224;;;;;;;;;;;;;;;
1863.0;1758.3;;;;-0.8865472;0.09315873;-0.3512917;;;;;;;;;;;;;;;
1863.0;1762.0;262143;262143;11769;;;;;;;;;;;;;;;;;;
1863.0;1766.8;;;;;;;;;;30.117952;-44.415874;-3.8186285;;;;;;;;;
1863.0;1766.8;;;;;;;1.3683279;-0.19202246;-0.25366986;;;;;;;;;;;;
1863.0;1766.8;;;;;;;;;;34.424877;-47.753838;-2.4300365;;;;;;;;;
1863.0;1766.8;;;;;;;1.342021;-0.18066958;-0.23224586;;;;;;;;;;;;
1863.0;1768.1;;;;;;;;;;;;;-24;;;;;;;;
1863.0;1768.1;;;;;;;;;;;;;2778;;;;;;;;
1863.0;1768.1;;;;;;;;;;;;;4534;;;;;;;;
1863.0;1768.1;;;;;;;;;;;;;5578;;;;;;;;
1863.0;1768.1;;;;;;;;;;;;;6138;;;;;;;;
1863.0;1768.4;;;;-0.8786012;0.08901215;-0.34653094;;;;;;;;;;;;;;;
1863.0;1768.4;;;;-0.8707696;0.084125526;-0.34129336;;;;;;;;;;;;;;;
1863.0;1768.4;;;;-0.8635179;0.07995225;-0.33685687;;;;;;;;;;;;;;;
1863.0;1768.4;;;;-0.8567163;0.07586289;-0.3321419;;;;;;;;;;;;;;;
1863.0;1768.4;;;;-0.8507768;0.07150651;-0.32714465;;;;;;;;;;;;;;;
1863.0;1776.5;;;;;;;;;;36.6451;-40.700245;4.669332;;;;;;;;;
1863.0;1776.5;;;;;;;1.310709;-0.16815698;-0.21216469;;;;;;;;;;;;
1863.0;1776.5;;;;;;;;;;35.088654;-28.565325;11.387218;;;;;;;;;
1863.0;1776.5;;;;;;;1.281167;-0.15405744;-0.19226661;;;;;;;;;;;;
1864.0;1778.5;;;;-0.84440625;0.06723023;-0.3228493;;;;;;;;;;;;;;;
1864.0;1778.5;;;;-0.83810437;0.06275941;-0.31824496;;;;;;;;;;;;;;;
1864.0;1778.5;;;;-0.83215725;0.05861283;-0.31415942;;;;;;;;;;;;;;;
1864.0;1778.5;;;;-0.82608044;0.054805763;-0.3098221;;;;;;;;;;;;;;;
1864.0;1778.5;;;;-0.8201219;0.051006325;-0.30559924;;;;;;;;;;;;;;;
1864.0;1782.3;262143;262143;11760;;;;;;;;;;;;;;;;;;
1864.0;1786.2;;;;;;;;;;;;;;;;;-42.413097;-41.074097;-6.408887;;1679.3
1864.0;1786.2;;;;;;;;;;;;;;0.5996277;-0.20465712;-0.5426191;;;;;1679.3
1864.0;1786.2;;;;;;;;;;;;;;;;;-55.520798;-27.596361;-44.21369;;1679.3
1864.0;1786.2;;;;;;;;;;;;;;0.67970824;-0.13763848;-0.5590991;;;;;1679.3
1864.0;1786.2;;;;;;;;;;;;;;;;;-41.634876;-8.6405525;-99.002045;;1688.9
1864.0;1786.2;;;;;;;;;;;;;;0.8967559;0.07202368;-0.4100467;;;;;1688.9
1864.0;1786.2;;;;;;;;;;;;;;;;;-34.691914;8.648182;-123.95093;;1688.9
1864.0;1786.2;;;;;;;;;;;;;;1.2335582;0.27954954;-0.27008882;;;;;1688.9
1864.0;1786.2;;;;;;;;;;;;;;;;;-34.749138;21.38203;-124.81689;;1698.6
1864.0;1786.2;;;;;;;;;;;;;;1.5510727;0.5678274;-0.15259255;;;;;1698.6
1864.0;1786.2;;;;;;;;;;;;;;;;;-26.272621;16.716515;-104.1406;;1698.6
1864.0;1786.2;;;;;;;;;;;;;;1.5353252;0.8637959;-0.07824946;;;;;1698.6
1864.0;1786.0;;;;;;;;;;33.185066;-23.63277;11.291848;;;;;;;;;
1864.0;1786.0;;;;;;;1.253029;-0.1398358;-0.17352824;;;;;;;;;;;;
1864.0;1786.0;;;;;;;;;;31.456955;-18.63918;11.123997;;;;;;;;;
1864.0;1786.0;;;;;;;1.223426;-0.12384411;-0.15588854;;;;;;;;;;;;
1866.0;1788.5;;;;-0.81196606;0.04758454;-0.3001099;;;;;;;;;;;;;;;
1866.0;1788.5;;;;-0.8068582;0.043182377;-0.30019;;;;;;;;;;;;;;;
1866.0;1788.5;;;;-0.8047563;0.039096836;-0.29501727;;;;;;;;;;;;;;;
1866.0;1788.5;;;;-0.8016931;0.03582764;-0.2893677;;;;;;;;;;;;;;;
1866.0;1788.5;;;;-0.79849255;0.033290867;-0.28747943;;;;;;;;;;;;;;;
1866.0;1793.6;;;;;;;;;;;;;;;;;-6.4203315;-5.1271095;-40.6888;;1708.2
1866.0;1793.6;;;;;;;;;;;;;;1.1567736;0.8764306;0.0220954;;;;;1708.2
1866.0;1793.6;;;;;;;;;;;;;;;;;-7.6258125;-33.761105;23.403881;;1708.2
1866.0;1793.6;;;;;;;;;;;;;;0.8895535;0.5488449;-0.038880583;;;;;1708.2
1866.0;1793.6;;;;;;;;;;;;;;;;;-5.8519244;-55.45976;59.141056;;1717.9
1866.0;1793.6;;;;;;;;;;;;;;0.93234044;0.2702109;-0.18079165;;;;;1717.9
1866.0;1793.6;;;;;;;;;;;;;;;;;-1.5411848;-54.23902;68.09442;;1717.9
1866.0;1793.6;;;;;;;;;;;;;;0.9967345;0.14679404;-0.2273629;;;;;1717.9
1866.0;1793.6;;;;;;;;;;;;;;;;;-6.538591;-43.286694;65.5385;;1727.4
1866.0;1793.6;;;;;;;;;;;;;;0.98764;0.04730369;-0.2247383;;;;;1727.4
1866.0;1793.6;;;;;;;;;;;;;;;;;-16.18244;-29.663992;60.338905;;1727.4
1866.0;1793.6;;;;;;;;;;;;;;0.95095676;-0.02661214;-0.20227668;;;;;1727.4
1866.0;1795.5;;;;;;;;;;29.78988;-13.71807;10.933256;;;;;;;;;
1866.0;1795.5;;;;;;;1.1924802;-0.10882901;-0.14093448;;;;;;;;;;;;
1866.0;1795.5;;;;;;;;;;28.374584;-8.674886;10.620441;;;;;;;;;
1866.0;1795.5;;;;;;;1.1631825;-0.09552293;-0.12665181;;;;;;;;;;;;
1920.0;1798.5;;;;-0.79633725;0.030742649;-0.284359;;;;;;;;;;;;;;;
1920.0;1798.5;;;;-0.7930795;0.028163914;-0.28099063;;;;;;;;;;;;;;;
1920.0;1798.5;;;;-0.79006207;0.02574921;-0.2779694;;;;;;;;;;;;;;;
1920.0;1798.5;;;;-0.78759015;0.023586277;-0.2748833;;;;;;;;;;;;;;;
1920.0;1798.5;;;;-0.78569806;0.021675112;-0.27299884;;;;;;;;;;;;;;;
1920.0;1802.2;262143;262143;11757;;;;;;;;;;;;;;;;;;
1920.0;1805.0;;;;;;;;;;27.016512;-3.9025545;10.185553;;;;;;;;;
1920.0;1805.0;;;;;;;1.1365703;-0.0867336;-0.118533894;;;;;;;;;;;;
1920.0;1805.0;;;;;;;;;;25.929289;0.65614796;9.613331;;;;;;;;;
1920.0;1805.0;;;;;;;1.1098971;-0.07843257;-0.115970336;;;;;;;;;;;;
1920.0;1808.3;;;;;;;;;;;;;6018;;;;;;;;
1920.0;1808.3;;;;;;;;;;;;;5118;;;;;;;;
1920.0;1808.3;;;;;;;;;;;;;3849;;;;;;;;
1920.0;1808.3;;;;;;;;;;;;;2879;;;;;;;;
1920.0;1808.3;;;;;;;;;;;;;2444;;;;;;;;
1920.0;1808.4;;;;-0.78468335;0.02006531;-0.27035525;;;;;;;;;;;;;;;
1920.0;1808.4;;;;-0.78276837;0.018634798;-0.26846316;;;;;;;;;;;;;;;
1920.0;1808.4;;;;-0.7809793;0.0175972;-0.2668915;;;;;;;;;;;;;;;
1920.0;1808.4;;;;-0.77923596;0.0161438;-0.265255;;;;;;;;;;;;;;;
1920.0;1808.4;;;;-0.7778474;0.01533127;-0.2637749;;;;;;;;;;;;;;;
1920.0;1814.3;;;;;;;;;;25.032806;4.669332;8.976256;;;;;;;;;
1920.0;1814.3;;;;;;;1.0857265;-0.07049776;-0.11371197;;;;;;;;;;;;
1920.0;1814.3;;;;;;;;;;24.315622;8.0835905;8.396405;;;;;;;;;
1920.0;1814.3;;;;;;;1.0593585;-0.061098058;-0.112308115;;;;;;;;;;;;
1923.0;1818.3;;;;-0.7756845;0.01432419;-0.2621155;;;;;;;;;;;;;;;
1923.0;1818.3;;;;-0.77421963;0.013908388;-0.26074603;;;;;;;;;;;;;;;
1923.0;1818.3;;;;-0.7718164;0.013748171;-0.2597542;;;;;;;;;;;;;;;
1923.0;1818.3;;;;-0.76955426;0.013591768;-0.25965884;;;;;;;;;;;;;;;
1923.0;1818.3;;;;-0.76716626;0.013553621;-0.25942996;;;;;;;;;;;;;;;
1923.0;1822.2;262143;262143;11751;;;;;;;;;;;;;;;;;;
1923.0;1824.0;;;;;;;;;;23.705252;11.322367;7.7326274;;;;;;;;;
1923.0;1824.0;;;;;;;1.0342113;-0.055360578;-0.11438338;;;;;;;;;;;;
1923.0;1824.0;;;;;;;;;;23.159733;14.179663;7.0764794;;;;;;;;;
1923.0;1824.0;;;;;;;1.0127262;-0.047853023;-0.11548204;;;;;;;;;;;;
1923.0;1828.4;;;;-0.763981;0.013301851;-0.25909045;;;;;;;;;;;;;;;
1923.0;1828.4;;;;-0.76044476;0.013175966;-0.25895694;;;;;;;;;;;;;;;
1923.0;1828.4;;;;-0.7570001;0.01318741;-0.25844577;;;;;;;;;;;;;;;
1923.0;1828.4;;;;-0.753708;0.012916567;-0.25758746;;;;;;;;;;;;;;;
1923.0;1828.4;;;;-0.7510835;0.013427736;-0.25628665;;;;;;;;;;;;;;;
1923.0;1833.6;;;;;;;;;;22.827845;16.659292;6.405072;;;;;;;;;
1923.0;1833.6;;;;;;;0.98806727;-0.04242073;-0.11633656;;;;;;;;;;;;
1923.0;1833.6;;;;;;;;;;22.621845;18.704031;5.771813;;;;;;;;;
1923.0;1833.6;;;;;;;0.96389663;-0.037415694;-0.11493271;;;;;;;;;;;;
1925.0;1838.5;;;;-0.7492638;0.013549807;-0.255024;;;;;;;;;;;;;;;
1925.0;1838.5;;;;-0.74756247;0.014209749;-0.25384524;;;;;;;;;;;;;;;
1925.0;1838.5;;;;-0.74633795;0.01502228;-0.25164798;;;;;;;;;;;;;;;
1925.0;1838.5;;;;-0.7448006;0.015621187;-0.24987796;;;;;;;;;;;;;;;
1925.0;1838.5;;;;-0.7429772;0.016807558;-0.24842456;;;;;;;;;;;;;;;
1925.0;1842.5;262143;262143;11746;;;;;;;;;;;;;;;;;;
1925.0;1843.2;;;;;;;;;;22.48451;20.58092;5.1538134;;;;;;;;;
1925.0;1843.2;;;;;;;0.9351482;-0.035157323;-0.115848266;;;;;;;;;;;;
1925.0;1843.2;;;;;;;;;;22.450178;22.217474;4.566332;;;;;;;;;
1925.0;1843.2;;;;;;;0.91024506;-0.032227546;-0.11523789;;;;;;;;;;;;
1925.0;1846.4;;;;;;;;;;;;;;;;;-24.517809;-17.49855;52.030243;;1737.1
1925.0;1846.4;;;;;;;;;;;;;;0.9279458;-0.08789331;-0.18060854;;;;;1737.1
1925.0;1846.4;;;;;;;;;;;;;;;;;-26.20014;-8.987701;41.947693;;1737.1
1925.0;1846.4;;;;;;;;;;;;;;0.9236732;-0.12445448;-0.14880826;;;;;1737.1
1925.0;1846.4;;;;;;;;;;;;;;;;;-22.190771;-6.6492205;30.610065;;1746.7
1925.0;1846.4;;;;;;;;;;;;;;0.8957183;-0.14172795;-0.1309244;;;;;1746.7
1925.0;1846.4;;;;;;;;;;;;;;;;;-12.916959;-8.7397375;17.303995;;1746.7
1925.0;1846.4;;;;;;;;;;;;;;0.85512865;-0.13879818;-0.13361004;;;;;1746.7
1925.0;1846.4;;;;;;;;;;;;;;;;;-1.5984069;-12.794885;4.932554;;1756.4
1925.0;1846.4;;;;;;;;;;;;;;0.8412122;-0.06591998;-0.1281167;;;;;1756.4
1925.0;1846.4;;;;;;;;;;;;;;;;;6.2562943;-19.64629;-0.2822962;;1756.4
1925.0;1846.4;;;;;;;;;;;;;;0.8297983;-0.012207404;-0.15735343;;;;;1756.4
1928.0;1847.6;;;;;;;;;;;;;;;;;14.316996;-24.601734;-1.1139256;;1766.1
1928.0;1847.6;;;;;;;;;;;;;;0.81099886;0.0020752586;-0.18524735;;;;;1766.1
1928.0;1847.6;;;;;;;;;;;;;;;;;20.142216;-23.167364;-2.7809992;;1766.1
1928.0;1847.6;;;;;;;;;;;;;;0.78597367;0.012024293;-0.18848231;;;;;1766.1
1928.0;1847.6;;;;;;;;;;;;;;;;;22.431105;-17.47566;-6.496628;;1775.8
1928.0;1847.6;;;;;;;;;;;;;;0.7606433;0.026062807;-0.1716361;;;;;1775.8
1928.0;1847.6;;;;;;;;;;;;;;;;;22.438734;-10.250404;-9.750664;;1775.8
1928.0;1847.6;;;;;;;;;;;;;;0.73049104;0.04235969;-0.14203314;;;;;1775.8
1928.0;1847.6;;;;;;;;;;;;;;;;;22.39677;-4.0284433;-12.115849;;1785.4
1928.0;1847.6;;;;;;;;;;;;;;0.70296335;0.05652028;-0.10589923;;;;;1785.4
1928.0;1847.6;;;;;;;;;;;;;;;;;23.884548;-1.2627033;-13.752403;;1785.4
1928.0;1847.6;;;;;;;;;;;;;;0.6737266;0.061098058;-0.07525864;;;;;1785.4
1928.0;1848.4;;;;;;;;;;;;;2299;;;;;;;;
1928.0;1848.4;;;;;;;;;;;;;2398;;;;;;;;
1928.0;1848.4;;;;;;;;;;;;;2920;;;;;;;;
1928.0;1848.4;;;;;;;;;;;;;3527;;;;;;;;
1928.0;1848.4;;;;;;;;;;;;;3599;;;;;;;;
1928.0;1848.5;;;;-0.74076086;0.017795565;-0.24578097;;;;;;;;;;;;;;;
1928.0;1848.5;;;;-0.73761374;0.018867495;-0.24366;;;;;;;;;;;;;;;
1928.0;1848.5;;;;-0.7336922;0.020206453;-0.24042132;;;;;;;;;;;;;;;
1928.0;1848.5;;;;-0.7288361;0.021343233;-0.2377167;;;;;;;;;;;;;;;
1928.0;1848.5;;;;-0.7239838;0.022499086;-0.23506168;;;;;;;;;;;;;;;
1928.0;1852.7;;;;;;;;;;22.572252;23.644215;3.9559617;;;;;;;;;
1928.0;1852.7;;;;;;;0.8830836;-0.027954955;-0.113956116;;;;;;;;;;;;
1928.0;1852.7;;;;;;;;;;22.675253;24.731438;3.3494065;;;;;;;;;
1928.0;1852.7;;;;;;;0.8545183;-0.02148503;-0.113528855;;;;;;;;;;;;
1981.0;1858.6;;;;-0.71869665;0.023895267;-0.23233035;;;;;;;;;;;;;;;
1981.0;1858.6;;;;-0.714016;0.02544785;-0.22926715;;;;;;;;;;;;;;;
1981.0;1858.6;;;;-0.7093392;0.026798252;-0.22570422;;;;;;;;;;;;;;;
1981.0;1858.6;;;;-0.7054406;0.02814484;-0.22200778;;;;;;;;;;;;;;;
1981.0;1858.6;;;;-0.7014962;0.029148106;-0.21812442;;;;;;;;;;;;;;;
1981.0;1862.3;;;;;;;;;;22.896511;25.58977;2.8077028;;;;;;;;;
1981.0;1862.3;;;;;;;0.8268685;-0.017151402;-0.11450545;;;;;;;;;;;;
1981.0;1862.3;;;;;;;;;;23.178808;26.394695;2.1782587;;;;;;;;;
1981.0;1862.3;;;;;;;0.80123293;-0.010498367;-0.11481063;;;;;;;;;;;;
1981.0;1862.6;262143;262143;11753;;;;;;;;;;;;;;;;;;
1981.0;1868.6;;;;-0.6980935;0.03066254;-0.21358112;;;;;;;;;;;;;;;
1981.0;1868.6;;;;-0.69504553;0.031520847;-0.21007541;;;;;;;;;;;;;;;
1981.0;1868.6;;;;-0.69170004;0.032348637;-0.20604327;;;;;;;;;;;;;;;
1981.0;1868.6;;;;-0.68850714;0.033020023;-0.20164874;;;;;;;;;;;;;;;
1981.0;1868.6;;;;-0.68441015;0.033336643;-0.19749454;;;;;;;;;;;;;;;
1981.0;1871.7;;;;;;;;;;23.483994;26.787622;1.5221107;;;;;;;;;
1981.0;1871.7;;;;;;;0.7790155;-0.005859554;-0.11481063;;;;;;;;;;;;
1981.0;1871.7;;;;;;;;;;23.724327;26.829586;0.96133304;;;;;;;;;
1981.0;1871.7;;;;;;;0.7553331;1.8311106E-4;-0.11938841;;;;;;;;;;;;
1989.0;1878.3;;;;-0.6799088;0.033409122;-0.1927109;;;;;;;;;;;;;;;
1989.0;1878.3;;;;-0.6753045;0.03396607;-0.18882373;;;;;;;;;;;;;;;
1989.0;1878.3;;;;-0.6710282;0.033473972;-0.18446352;;;;;;;;;;;;;;;
1989.0;1878.3;;;;-0.6667786;0.033908848;-0.18090059;;;;;;;;;;;;;;;
1989.0;1878.3;;;;-0.6624871;0.033840183;-0.1776581;;;;;;;;;;;;;;;
1989.0;1881.1;;;;;;;;;;23.903624;26.688437;0.34714803;;;;;;;;;
1989.0;1881.1;;;;;;;0.73775446;0.0073244423;-0.12359996;;;;;;;;;;;;
1989.0;1881.1;;;;;;;;;;24.243141;26.226845;-0.3852962;;;;;;;;;
1989.0;1881.1;;;;;;;0.7241432;0.013428144;-0.12891018;;;;;;;;;;;;
1989.0;1882.4;262143;262143;11757;;;;;;;;;;;;;;;;;;
1989.0;1888.4;;;;;;;;;;;;;2974;;;;;;;;
1989.0;1888.4;;;;;;;;;;;;;1977;;;;;;;;
1989.0;1888.4;;;;;;;;;;;;;1239;;;;;;;;
1989.0;1888.4;;;;;;;;;;;;;1053;;;;;;;;
1989.0;1888.4;;;;;;;;;;;;;887;;;;;;;;
1989.0;1888.4;;;;-0.6588288;0.033741;-0.17491151;;;;;;;;;;;;;;;
1989.0;1888.4;;;;-0.65588766;0.032981876;-0.17147066;;;;;;;;;;;;;;;
1989.0;1888.4;;;;-0.65362173;0.03261948;-0.1688614;;;;;;;;;;;;;;;
1989.0;1888.4;;;;-0.65201193;0.03287888;-0.16673662;;;;;;;;;;;;;;;
1989.0;1888.4;;;;-0.65178305;0.032665256;-0.1649666;;;;;;;;;;;;;;;
1989.0;1890.7;;;;;;;;;;24.586475;25.204473;-1.1749626;;;;;;;;;
1989.0;1890.7;;;;;;;0.7140111;0.018372143;-0.13287759;;;;;;;;;;;;
1989.0;1890.7;;;;;;;;;;24.800102;23.915068;-1.9569995;;;;;;;;;
1989.0;1890.7;;;;;;;0.7021088;0.019959105;-0.13544114;;;;;;;;;;;;
1990.0;1898.6;;;;-0.6516991;0.032524113;-0.16403581;;;;;;;;;;;;;;;
1990.0;1898.6;;;;-0.6523934;0.032722477;-0.16155244;;;;;;;;;;;;;;;
1990.0;1898.6;;;;-0.65294653;0.032711033;-0.15840532;;;;;;;;;;;;;;;
1990.0;1898.6;;;;-0.6525765;0.032722477;-0.15602876;;;;;;;;;;;;;;;
1990.0;1898.6;;;;-0.65160376;0.03298569;-0.1548958;;;;;;;;;;;;;;;
1990.0;1900.3;;;;;;;;;;24.910732;22.778252;-2.6245918;;;;;;;;;
1990.0;1900.3;;;;;;;0.6837977;0.028382214;-0.133549;;;;;;;;;;;;
1990.0;1900.3;;;;;;;;;;25.227362;21.351513;-2.7352216;;;;;;;;;
1990.0;1900.3;;;;;;;0.6733604;0.026062807;-0.13629566;;;;;;;;;;;;
1990.0;1902.7;262143;262143;11754;;;;;;;;;;;;;;;;;;
1990.0;1906.4;;;;;;;;;;;;;;;;;26.173437;-1.2398144;-16.750847;;1795.0
1990.0;1906.4;;;;;;;;;;;;;;0.6535844;0.077883236;-0.05597095;;;;;1795.0
1990.0;1906.4;;;;;;;;;;;;;;;;;27.249214;-0.65233314;-20.512253;;1795.0
1990.0;1906.4;;;;;;;;;;;;;;0.64461195;0.100405894;-0.04998932;;;;;1795.0
1990.0;1906.4;;;;;;;;;;;;;;;;;27.115696;4.589221;-23.754845;;1804.7
1990.0;1906.4;;;;;;;;;;;;;;0.62825406;0.121768855;-0.030152287;;;;;1804.7
1990.0;1906.4;;;;;;;;;;;;;;;;;25.467695;12.638477;-26.375622;;1804.7
1990.0;1906.4;;;;;;;;;;;;;;0.6059755;0.13769951;-0.0050050355;;;;;1804.7
1990.0;1906.4;;;;;;;;;;;;;;;;;24.712364;18.253883;-27.226326;;1814.2
1990.0;1906.4;;;;;;;;;;;;;;0.5652638;0.14551225;0.018494217;;;;;1814.2
1990.0;1906.4;;;;;;;;;;;;;;;;;26.799067;12.48207;-28.004547;;1814.2
1990.0;1906.4;;;;;;;;;;;;;;0.50508136;0.14319284;0.033753473;;;;;1814.2
1994.0;1907.2;;;;;;;;;;;;;;;;;31.12125;-10.116886;-31.861324;;1823.8
1994.0;1907.2;;;;;;;;;;;;;;0.49256873;0.14593951;-0.020203253;;;;;1823.8
1994.0;1907.2;;;;;;;;;;;;;;;;;38.960693;-32.677696;-36.679432;;1823.8
1994.0;1907.2;;;;;;;;;;;;;;0.50538653;0.16754662;-0.113528855;;;;;1823.8
1994.0;1907.2;;;;;;;;;;;;;;;;;48.79147;-40.890987;-39.40321;;1833.5
1994.0;1907.2;;;;;;;;;;;;;;0.5015412;0.1859798;-0.16986603;;;;;1833.5
1994.0;1907.2;;;;;;;;;;;;;;;;;54.50606;-34.26847;-43.557545;;1833.5
1994.0;1907.2;;;;;;;;;;;;;;0.50862145;0.21808527;-0.18768883;;;;;1833.5
1994.0;1907.2;;;;;;;;;;;;;;;;;48.71517;-16.10233;-47.78054;;1843.2
1994.0;1907.2;;;;;;;;;;;;;;0.5255287;0.2766808;-0.21106601;;;;;1843.2
1994.0;1907.2;;;;;;;;;;;;;;;;;40.85284;1.8768883;-47.70043;;1843.2
1994.0;1907.2;;;;;;;;;;;;;;0.557329;0.32557145;-0.25043488;;;;;1843.2
1994.0;1908.4;;;;-0.6505013;0.033458713;-0.15396501;;;;;;;;;;;;;;;
1994.0;1908.4;;;;-0.6488038;0.033988956;-0.1531067;;;;;;;;;;;;;;;
1994.0;1908.4;;;;-0.6474648;0.034603123;-0.15247346;;;;;;;;;;;;;;;
1994.0;1908.4;;;;-0.6459313;0.03515244;-0.15246965;;;;;;;;;;;;;;;
1994.0;1908.4;;;;-0.6447869;0.035171513;-0.15258028;;;;;;;;;;;;;;;
1994.0;1909.7;;;;;;;;;;25.406658;18.608662;-3.3722954;;;;;;;;;
1994.0;1909.7;;;;;;;0.66011536;0.024231697;-0.13794367;;;;;;;;;;;;
1994.0;1909.7;;;;;;;;;;25.505844;16.80044;-4.3031096;;;;;;;;;
1994.0;1909.7;;;;;;;0.6457717;0.02356029;-0.13605152;;;;;;;;;;;;
2041.0;1918.5;;;;-0.64303976;0.034923557;-0.1531563;;;;;;;;;;;;;;;
2041.0;1918.5;;;;-0.64170843;0.035488132;-0.15337373;;;;;;;;;;;;;;;
2041.0;1918.5;;;;-0.6400834;0.03503037;-0.15464403;;;;;;;;;;;;;;;
2041.0;1918.5;;;;-0.63898474;0.03554154;-0.15632631;;;;;;;;;;;;;;;
2041.0;1918.5;;;;-0.6382447;0.034889225;-0.15830614;;;;;;;;;;;;;;;
2041.0;1919.3;;;;;;;;;;25.620289;14.599292;-4.7074804;;;;;;;;;
2041.0;1919.3;;;;;;;0.6362499;0.021729179;-0.13653982;;;;;;;;;;;;
2041.0;1919.3;;;;;;;;;;25.696585;12.245552;-5.3216653;;;;;;;;;
2041.0;1919.3;;;;;;;0.6289865;0.023621326;-0.1350139;;;;;;;;;;;;
2041.0;1922.6;262143;262143;11764;;;;;;;;;;;;;;;;;;
2041.0;1928.4;;;;-0.63779837;0.034664158;-0.16052248;;;;;;;;;;;;;;;
2041.0;1928.4;;;;-0.6380082;0.03437424;-0.1630211;;;;;;;;;;;;;;;
2041.0;1928.4;;;;-0.6391564;0.03456879;-0.16574098;;;;;;;;;;;;;;;
2041.0;1928.4;;;;-0.6405602;0.034549717;-0.16889192;;;;;;;;;;;;;;;
2041.0;1928.4;;;;-0.6423264;0.034637455;-0.17208864;;;;;;;;;;;;;;;
2041.0;1928.4;;;;;;;;;;;;;459;;;;;;;;
2041.0;1928.4;;;;;;;;;;;;;337;;;;;;;;
2041.0;1928.4;;;;;;;;;;;;;897;;;;;;;;
2041.0;1928.4;;;;;;;;;;;;;1782;;;;;;;;
2041.0;1928.4;;;;;;;;;;;;;2371;;;;;;;;
2041.0;1928.7;;;;;;;;;;25.738548;9.9147005;-5.8061466;;;;;;;;;
2041.0;1928.7;;;;;;;0.6214789;0.022827845;-0.13330485;;;;;;;;;;;;
2041.0;1928.7;;;;;;;;;;25.681326;7.8089237;-6.389813;;;;;;;;;
2041.0;1928.7;;;;;;;0.6142155;0.020752586;-0.13257241;;;;;;;;;;;;
2042.0;1938.1;;;;;;;;;;25.578325;5.6611834;-6.9620347;;;;;;;;;
2042.0;1938.1;;;;;;;0.6085391;0.018860439;-0.13299966;;;;;;;;;;;;
2042.0;1938.1;;;;;;;;;;25.35325;3.711814;-7.5571456;;;;;;;;;
2042.0;1938.1;;;;;;;0.5998108;0.017151402;-0.13238929;;;;;;;;;;;;
2042.0;1938.2;;;;-0.6434632;0.03490067;-0.17574312;;;;;;;;;;;;;;;
2042.0;1938.2;;;;-0.6449166;0.034961704;-0.1792183;;;;;;;;;;;;;;;
2042.0;1938.2;;;;-0.6465798;0.03551865;-0.1829033;;;;;;;;;;;;;;;
2042.0;1938.2;;;;-0.647564;0.035991672;-0.18605424;;;;;;;;;;;;;;;
2042.0;1938.2;;;;-0.64926535;0.036106113;-0.18996051;;;;;;;;;;;;;;;
2042.0;1942.5;262143;262143;11768;;;;;;;;;;;;;;;;;;
2042.0;1947.7;;;;;;;;;;25.07477;1.8997772;-8.152257;;;;;;;;;
2042.0;1947.7;;;;;;;0.5940733;0.015259255;-0.13043611;;;;;;;;;;;;
2042.0;1947.7;;;;;;;;;;24.777214;0.0076296274;-8.629108;;;;;;;;;
2042.0;1947.7;;;;;;;0.5891293;0.013977477;-0.12884915;;;;;;;;;;;;
2042.0;1948.4;;;;-0.6506043;0.03657532;-0.19361117;;;;;;;;;;;;;;;
2042.0;1948.4;;;;-0.65302664;0.036437992;-0.19747928;;;;;;;;;;;;;;;
2042.0;1948.4;;;;-0.655716;0.036369327;-0.20112994;;;;;;;;;;;;;;;
2042.0;1948.4;;;;-0.6604386;0.036449436;-0.20560458;;;;;;;;;;;;;;;
2042.0;1948.4;;;;-0.66608053;0.0365181;-0.21046832;;;;;;;;;;;;;;;
2042.0;1957.3;;;;;;;;;;24.525438;-1.8730735;-9.125034;;;;;;;;;
2042.0;1957.3;;;;;;;0.58162177;0.015625477;-0.1241493;;;;;;;;;;;;
2042.0;1957.3;;;;;;;;;;24.197363;-3.563036;-9.52559;;;;;;;;;
2042.0;1957.3;;;;;;;0.57704395;0.017578661;-0.12262337;;;;;;;;;;;;
2044.0;1958.5;;;;-0.6719628;0.037246708;-0.21479037;;;;;;;;;;;;;;;
2044.0;1958.5;;;;-0.6784516;0.03789902;-0.21947101;;;;;;;;;;;;;;;
2044.0;1958.5;;;;-0.6853104;0.038951878;-0.22451785;;;;;;;;;;;;;;;
2044.0;1958.5;;;;-0.69230276;0.040111545;-0.22921756;;;;;;;;;;;;;;;
2044.0;1958.5;;;;-0.6992913;0.0418129;-0.23427585;;;;;;;;;;;;;;;
2044.0;1962.8;262143;262143;11780;;;;;;;;;;;;;;;;;;
2044.0;1966.6;;;;;;;;;;;;;;;;;38.666954;12.916959;-44.740135;;1852.8
2044.0;1966.6;;;;;;;;;;;;;;0.5973083;0.37305826;-0.27558213;;;;;1852.8
2044.0;1966.6;;;;;;;;;;;;;;;;;35.67995;19.417402;-38.312176;;1852.8
2044.0;1966.6;;;;;;;;;;;;;;0.6588946;0.4123661;-0.303354;;;;;1852.8
2044.0;1966.6;;;;;;;;;;;;;;;;;27.527695;29.801325;-29.866177;;1862.4
2044.0;1966.6;;;;;;;;;;;;;;0.72170174;0.41584522;-0.32410657;;;;;1862.4
2044.0;1966.6;;;;;;;;;;;;;;;;;16.232033;46.136356;-24.243141;;1862.4
2044.0;1966.6;;;;;;;;;;;;;;0.7549059;0.37470627;-0.2987762;;;;;1862.4
2044.0;1966.6;;;;;;;;;;;;;;;;;4.032258;64.203316;-24.525438;;1872.1
2044.0;1966.6;;;;;;;;;;;;;;0.78475296;0.36542863;-0.22376171;;;;;1872.1
2044.0;1966.6;;;;;;;;;;;;;;;;;-9.704886;79.47783;-24.06003;;1872.1
2044.0;1966.6;;;;;;;;;;;;;;0.82790613;0.3632313;-0.15698722;;;;;1872.1
2044.0;1966.9;;;;;;;;;;23.865475;-5.1690726;-9.807885;;;;;;;;;
2044.0;1966.9;;;;;;;0.57502973;0.021790216;-0.12323374;;;;;;;;;;;;
2044.0;1966.9;;;;;;;;;;23.52214;-6.7522206;-10.162663;;;;;;;;;
2044.0;1966.9;;;;;;;0.5760674;0.025513474;-0.12659077;;;;;;;;;;;;
2045.0;1967.5;;;;;;;;;;;;;;;;;-16.685995;88.9233;-22.339548;;1881.7
2045.0;1967.5;;;;;;;;;;;;;;0.87203586;0.3463851;-0.08337657;;;;;1881.7
2045.0;1967.5;;;;;;;;;;;;;;;;;-11.688589;81.08768;-21.568956;;1881.7
2045.0;1967.5;;;;;;;;;;;;;;0.89419234;0.3150731;-0.0049439985;;;;;1881.7
2045.0;1967.5;;;;;;;;;;;;;;;;;4.226814;55.42161;-22.358622;;1891.3
2045.0;1967.5;;;;;;;;;;;;;;0.8031251;0.24604023;-0.015442366;;;;;1891.3
2045.0;1967.5;;;;;;;;;;;;;;;;;24.822992;29.90814;-26.173437;;1891.3
2045.0;1967.5;;;;;;;;;;;;;;0.68202764;0.21100497;-0.09228797;;;;;1891.3
2045.0;1967.5;;;;;;;;;;;;;;;;;38.64025;5.33311;-28.462324;;1900.9
2045.0;1967.5;;;;;;;;;;;;;;0.6773278;0.2402417;-0.2118595;;;;;1900.9
2045.0;1967.5;;;;;;;;;;;;;;;;;45.71673;-7.255776;-26.825771;;1900.9
2045.0;1967.5;;;;;;;;;;;;;;0.66689044;0.20856349;-0.34528643;;;;;1900.9
2045.0;1968.5;;;;-0.7062531;0.043304447;-0.23909381;;;;;;;;;;;;;;;
2045.0;1968.5;;;;-0.7135964;0.045089725;-0.24292377;;;;;;;;;;;;;;;
2045.0;1968.5;;;;-0.7209168;0.046699528;-0.24676135;;;;;;;;;;;;;;;
2045.0;1968.5;;;;-0.7284165;0.04916001;-0.25099567;;;;;;;;;;;;;;;
2045.0;1968.5;;;;-0.73535544;0.05231095;-0.25530246;;;;;;;;;;;;;;;
2045.0;1968.6;;;;;;;;;;;;;2434;;;;;;;;
2045.0;1968.6;;;;;;;;;;;;;2247;;;;;;;;
2045.0;1968.6;;;;;;;;;;;;;2117;;;;;;;;
2045.0;1968.6;;;;;;;;;;;;;1970;;;;;;;;
2045.0;1968.6;;;;;;;;;;;;;1657;;;;;;;;
2045.0;1976.4;;;;;;;;;;23.148289;-8.377332;-10.55559;;;;;;;;;
2045.0;1976.4;;;;;;;0.581988;0.031250954;-0.12964264;;;;;;;;;;;;
2045.0;1976.4;;;;;;;;;;22.778252;-9.758293;-10.799738;;;;;;;;;
2045.0;1976.4;;;;;;;0.59169286;0.03295999;-0.13415937;;;;;;;;;;;;
2101.0;1978.6;;;;-0.7425385;0.054969795;-0.25968555;;;;;;;;;;;;;;;
2101.0;1978.6;;;;-0.7496491;0.05854798;-0.26388934;;;;;;;;;;;;;;;
2101.0;1978.6;;;;-0.75636303;0.062179573;-0.26797488;;;;;;;;;;;;;;;
2101.0;1978.6;;;;-0.7624742;0.066738136;-0.27207187;;;;;;;;;;;;;;;
2101.0;1978.6;;;;-0.767769;0.07045365;-0.27510455;;;;;;;;;;;;;;;
2101.0;1982.9;262143;262143;11794;;;;;;;;;;;;;;;;;;
2101.0;1986.1;;;;;;;;;;22.457808;-10.834071;-10.9408865;;;;;;;;;
2101.0;1986.1;;;;;;;0.6011536;0.03601184;-0.13769951;;;;;;;;;;;;
2101.0;1986.1;;;;;;;;;;22.083958;-11.6657;-11.032442;;;;;;;;;
2101.0;1986.1;;;;;;;0.6201972;0.036988433;-0.14380322;;;;;;;;;;;;
2101.0;1988.6;;;;-0.7734605;0.07439042;-0.27860263;;;;;;;;;;;;;;;
2101.0;1988.6;;;;-0.7789155;0.07905579;-0.28219607;;;;;;;;;;;;;;;
2101.0;1988.6;;;;-0.7850114;0.0841179;-0.28602985;;;;;;;;;;;;;;;
2101.0;1988.6;;;;-0.7923318;0.08887864;-0.28990176;;;;;;;;;;;;;;;
2101.0;1988.6;;;;-0.7997972;0.093284614;-0.293232;;;;;;;;;;;;;;;
2101.0;1995.5;;;;;;;;;;21.595661;-12.2646265;-10.982849;;;;;;;;;
2101.0;1995.5;;;;;;;0.6360668;0.03607288;-0.14893033;;;;;;;;;;;;
2101.0;1995.5;;;;;;;;;;21.164587;-12.836848;-10.784478;;;;;;;;;
2101.0;1995.5;;;;;;;0.6493728;0.03753777;-0.15149388;;;;;;;;;;;;
2106.0;1998.6;;;;-0.8072549;0.09786226;-0.2968674;;;;;;;;;;;;;;;
2106.0;1998.6;;;;-0.81396115;0.10254289;-0.29976276;;;;;;;;;;;;;;;
2106.0;1998.6;;;;-0.8193017;0.1070099;-0.30220416;;;;;;;;;;;;;;;
2106.0;1998.6;;;;-0.8237916;0.111129776;-0.30462268;;;;;;;;;;;;;;;
2106.0;1998.6;;;;-0.82722104;0.11487581;-0.30596927;;;;;;;;;;;;;;;
2106.0;2003.0;262143;262143;11831;;;;;;;;;;;;;;;;;;
2106.0;2005.1;;;;;;;;;;20.702993;-13.237404;-10.34196;;;;;;;;;
2106.0;2005.1;;;;;;;0.6613361;0.039246805;-0.15430158;;;;;;;;;;;;
2106.0;2005.1;;;;;;;;;;20.069735;-13.191626;-9.80407;;;;;;;;;
2106.0;2005.1;;;;;;;0.67690057;0.041444138;-0.1633961;;;;;;;;;;;;
2106.0;2008.7;;;;-0.82963574;0.11853792;-0.30868533;;;;;;;;;;;;;;;
2106.0;2008.7;;;;-0.83244336;0.12226869;-0.31101993;;;;;;;;;;;;;;;
2106.0;2008.7;;;;-0.8350984;0.12623979;-0.3132172;;;;;;;;;;;;;;;
2106.0;2008.7;;;;-0.8382226;0.13042833;-0.31486514;;;;;;;;;;;;;;;
2106.0;2008.7;;;;-0.84144986;0.13403322;-0.31667712;;;;;;;;;;;;;;;
2106.0;2008.9;;;;;;;;;;;;;1390;;;;;;;;
2106.0;2008.9;;;;;;;;;;;;;1383;;;;;;;;
2106.0;2008.9;;;;;;;;;;;;;1573;;;;;;;;
2106.0;2008.9;;;;;;;;;;;;;1806;;;;;;;;
2106.0;2008.9;;;;;;;;;;;;;2003;;;;;;;;
2106.0;2014.8;;;;;;;;;;19.447922;-12.890255;-9.384442;;;;;;;;;
2106.0;2014.8;;;;;;;0.69667655;0.04058962;-0.1734672;;;;;;;;;;;;
2106.0;2014.8;;;;;;;;;;18.700216;-12.588885;-9.186071;;;;;;;;;
2106.0;2014.8;;;;;;;0.71468246;0.038331248;-0.18793298;;;;;;;;;;;;
2110.0;2018.8;;;;-0.8447763;0.13776399;-0.31803134;;;;;;;;;;;;;;;
2110.0;2018.8;;;;-0.8474771;0.14165498;-0.3198357;;;;;;;;;;;;;;;
2110.0;2018.8;;;;-0.8502542;0.1445656;-0.32188419;;;;;;;;;;;;;;;
2110.0;2018.8;;;;-0.8524629;0.1478882;-0.32514194;;;;;;;;;;;;;;;
2110.0;2018.8;;;;-0.8541566;0.15054704;-0.32827762;;;;;;;;;;;;;;;
2110.0;2023.3;262143;262143;11836;;;;;;;;;;;;;;;;;;
2110.0;2024.4;;;;;;;;;;17.792292;-12.268441;-8.980071;;;;;;;;;
2110.0;2024.4;;;;;;;0.7325663;0.034058657;-0.19806513;;;;;;;;;;;;
2110.0;2024.4;;;;;;;;;;17.00644;-12.466811;-8.606219;;;;;;;;;
2110.0;2024.4;;;;;;;0.7456893;0.025757622;-0.20300913;;;;;;;;;;;;
2110.0;2027.3;;;;;;;;;;;;;;;;;50.019836;-0.41199988;-21.187475;;1910.6
2110.0;2027.3;;;;;;;;;;;;;;0.5962706;0.14300974;-0.34351635;;;;;1910.6
2110.0;2027.3;;;;;;;;;;;;;;;;;46.632282;11.795404;-14.02707;;1910.6
2110.0;2027.3;;;;;;;;;;;;;;0.51203954;0.08728294;-0.29468673;;;;;1910.6
2110.0;2027.3;;;;;;;;;;;;;;;;;41.46321;22.877438;-8.507034;;1920.2
2110.0;2027.3;;;;;;;;;;;;;;0.436964;0.037049472;-0.2535478;;;;;1920.2
2110.0;2027.3;;;;;;;;;;;;;;;;;41.730247;27.054659;-7.6715903;;1920.2
2110.0;2027.3;;;;;;;;;;;;;;0.3969848;0.009094516;-0.22138126;;;;;1920.2
2110.0;2027.3;;;;;;;;;;;;;;;;;44.267097;24.38429;-10.074923;;1929.7
2110.0;2027.3;;;;;;;;;;;;;;0.42378002;0.051637318;-0.23151341;;;;;1929.7
2110.0;2027.3;;;;;;;;;;;;;;;;;42.22999;22.160252;-9.941404;;1929.7
2110.0;2027.3;;;;;;;;;;;;;;0.48286384;0.14227729;-0.25977355;;;;;1929.7
2113.0;2028.8;;;;-0.8555566;0.1527672;-0.3314171;;;;;;;;;;;;;;;
2113.0;2028.8;;;;-0.8574678;0.1546097;-0.33484653;;;;;;;;;;;;;;;
2113.0;2028.8;;;;-0.8597146;0.15581514;-0.3372536;;;;;;;;;;;;;;;
2113.0;2028.8;;;;-0.8618089;0.15684511;-0.34017184;;;;;;;;;;;;;;;
2113.0;2028.8;;;;-0.8639184;0.15792467;-0.34243396;;;;;;;;;;;;;;;
2113.0;2033.9;;;;;;;;;;16.159552;-12.810144;-8.243813;;;;;;;;;
2113.0;2033.9;;;;;;;0.75569934;0.018738365;-0.21259193;;;;;;;;;;;;
2113.0;2033.9;;;;;;;;;;15.053254;-12.848292;-8.033998;;;;;;;;;
2113.0;2033.9;;;;;;;0.76314586;0.013733329;-0.2247383;;;;;;;;;;;;
2113.0;2034.5;;;;;;;;;;;;;;;;;36.19877;25.963621;-4.074221;;1939.4
2113.0;2034.5;;;;;;;;;;;;;;0.5152135;0.17517625;-0.24665059;;;;;1939.4
2113.0;2034.5;;;;;;;;;;;;;;;;;27.081364;36.076694;1.003296;;1939.4
2113.0;2034.5;;;;;;;;;;;;;;0.5438398;0.19806513;-0.18768883;;;;;1939.4
2113.0;2034.5;;;;;;;;;;;;;;;;;16.941587;45.098724;2.0180366;;1949.1
2113.0;2034.5;;;;;;;;;;;;;;0.60011595;0.250618;-0.1617481;;;;;1949.1
2113.0;2034.5;;;;;;;;;;;;;;;;;14.64507;44.8088;0.0076296274;;1949.1
2113.0;2034.5;;;;;;;;;;;;;;0.6651204;0.31305888;-0.16510513;;;;;1949.1
2113.0;2034.5;;;;;;;;;;;;;;;;;21.900846;29.015472;-3.9445176;;1958.8
2113.0;2034.5;;;;;;;;;;;;;;0.73250526;0.38227484;-0.2174749;;;;;1958.8
2113.0;2034.5;;;;;;;;;;;;;;;;;33.30714;3.360851;-4.757073;;1958.8
2113.0;2034.5;;;;;;;;;;;;;;0.81118196;0.45826593;-0.33112583;;;;;1958.8
2164.0;2038.8;;;;-0.8654977;0.15766527;-0.34555438;;;;;;;;;;;;;;;
2164.0;2038.8;;;;-0.8676683;0.15772249;-0.3491898;;;;;;;;;;;;;;;
2164.0;2038.8;;;;-0.86997616;0.15683366;-0.35185245;;;;;;;;;;;;;;;
2164.0;2038.8;;;;-0.8723718;0.15671541;-0.3546143;;;;;;;;;;;;;;;
2164.0;2038.8;;;;-0.8760034;0.15582658;-0.35605243;;;;;;;;;;;;;;;
2164.0;2043.3;;;;;;;;;;14.061403;-12.863552;-8.136998;;;;;;;;;
2164.0;2043.3;;;;;;;0.77333903;0.0080568865;-0.22931609;;;;;;;;;;;;
2164.0;2043.3;;;;;;;;;;13.172552;-13.252663;-8.129368;;;;;;;;;
2164.0;2043.3;;;;;;;0.7808466;0.0012207404;-0.23389386;;;;;;;;;;;;
2164.0;2043.1;262143;262143;11843;;;;;;;;;;;;;;;;;;
2164.0;2048.8;;;;-0.8797647;0.1547928;-0.3574448;;;;;;;;;;;;;;;
2164.0;2048.8;;;;-0.8837968;0.15264131;-0.35882953;;;;;;;;;;;;;;;
2164.0;2048.8;;;;-0.88822186;0.15079118;-0.36004642;;;;;;;;;;;;;;;
2164.0;2048.8;;;;-0.8922273;0.14870454;-0.36218646;;;;;;;;;;;;;;;
2164.0;2048.8;;;;-0.89654934;0.14660265;-0.36511233;;;;;;;;;;;;;;;
2164.0;2049.0;;;;;;;;;;;;;2126;;;;;;;;
2164.0;2049.0;;;;;;;;;;;;;2190;;;;;;;;
2164.0;2049.0;;;;;;;;;;;;;2182;;;;;;;;
2164.0;2049.0;;;;;;;;;;;;;2064;;;;;;;;
2164.0;2049.0;;;;;;;;;;;;;1990;;;;;;;;
2164.0;2052.6;;;;;;;;;;12.157811;-13.698996;-7.976775;;;;;;;;;
2164.0;2052.6;;;;;;;0.791406;-0.0016479995;-0.23963134;;;;;;;;;;;;
2164.0;2052.6;;;;;;;;;;11.001924;-13.512071;-7.953887;;;;;;;;;
2164.0;2052.6;;;;;;;0.8067263;-0.003540147;-0.24597919;;;;;;;;;;;;
2166.0;2058.5;;;;-0.90200436;0.14405824;-0.36812595;;;;;;;;;;;;;;;
2166.0;2058.5;;;;-0.9077531;0.14130022;-0.37082675;;;;;;;;;;;;;;;
2166.0;2058.5;;;;-0.9156343;0.1380005;-0.37404636;;;;;;;;;;;;;;;
2166.0;2058.5;;;;-0.9253274;0.13385393;-0.37795264;;;;;;;;;;;;;;;
2166.0;2058.5;;;;-0.9369279;0.13059236;-0.38151938;;;;;;;;;;;;;;;
2166.0;2062.1;;;;;;;;;;9.933775;-13.111515;-7.9348125;;;;;;;;;
2166.0;2062.1;;;;;;;0.8230842;-0.008362072;-0.25165564;;;;;;;;;;;;
2166.0;2062.1;;;;;;;;;;8.842738;-13.054293;-7.9119234;;;;;;;;;
2166.0;2062.1;;;;;;;0.8446913;-0.01574755;-0.25074008;;;;;;;;;;;;
2166.0;2063.0;262143;262143;11851;;;;;;;;;;;;;;;;;;
2166.0;2068.6;;;;-0.9505235;0.127697;-0.38447195;;;;;;;;;;;;;;;
2166.0;2068.6;;;;-0.96646893;0.12508394;-0.38796622;;;;;;;;;;;;;;;
2166.0;2068.6;;;;-0.9832345;0.123367324;-0.39088827;;;;;;;;;;;;;;;
2166.0;2068.6;;;;-1.0007669;0.12261583;-0.39409262;;;;;;;;;;;;;;;
2166.0;2068.6;;;;-1.0185319;0.122856155;-0.39785773;;;;;;;;;;;;;;;
2166.0;2071.8;;;;;;;;;;7.8241825;-13.248848;-7.992035;;;;;;;;;
2166.0;2071.8;;;;;;;0.8616596;-0.025086215;-0.25067905;;;;;;;;;;;;
2166.0;2071.8;;;;;;;;;;6.878109;-13.283181;-8.194221;;;;;;;;;
2166.0;2071.8;;;;;;;0.8752098;-0.0336314;-0.2492752;;;;;;;;;;;;
2168.0;2078.8;;;;-1.0361329;0.12358858;-0.40141302;;;;;;;;;;;;;;;
2168.0;2078.8;;;;-1.0539132;0.12500764;-0.404316;;;;;;;;;;;;;;;
2168.0;2078.8;;;;-1.0708047;0.12657548;-0.40685278;;;;;;;;;;;;;;;
2168.0;2078.8;;;;-1.0867959;0.12926866;-0.40922552;;;;;;;;;;;;;;;
2168.0;2078.8;;;;-1.1014634;0.1325226;-0.4108048;;;;;;;;;;;;;;;
2168.0;2081.4;;;;;;;;;;5.9701834;-13.142034;-8.50322;;;;;;;;;
2168.0;2081.4;;;;;;;0.8890652;-0.04327525;-0.24787134;;;;;;;;;;;;
2168.0;2081.4;;;;;;;;;;5.2491837;-12.783441;-8.842738;;;;;;;;;
2168.0;2081.4;;;;;;;0.901822;-0.0540788;-0.24695578;;;;;;;;;;;;
2168.0;2083.3;262143;262143;11868;;;;;;;;;;;;;;;;;;
2168.0;2087.1;;;;;;;;;;;;;;;;;38.14814;-10.906552;0.34333324;;1968.4
2168.0;2087.1;;;;;;;;;;;;;;0.87295145;0.5106357;-0.44856104;;;;;1968.4
2168.0;2087.1;;;;;;;;;;;;;;;;;30.549028;-3.3455918;6.85522;;1968.4
2168.0;2087.1;;;;;;;;;;;;;;0.9273965;0.5065462;-0.5183874;;;;;1968.4
2168.0;2087.1;;;;;;;;;;;;;;;;;12.8711815;20.134586;9.125034;;1978.0
2168.0;2087.1;;;;;;;;;;;;;;0.97274697;0.5002594;-0.52266;;;;;1978.0
2168.0;2087.1;;;;;;;;;;;;;;;;;-3.2425916;40.993988;8.831293;;1978.0
2168.0;2087.1;;;;;;;;;;;;;;0.9937437;0.4704123;-0.4481338;;;;;1978.0
2168.0;2087.1;;;;;;;;;;;;;;;;;-13.332774;48.772396;6.111332;;1987.6
2168.0;2087.1;;;;;;;;;;;;;;1.0372021;0.47907957;-0.34925383;;;;;1987.6
2168.0;2087.1;;;;;;;;;;;;;;;;;-18.246254;45.525986;4.8829613;;1987.6
2168.0;2087.1;;;;;;;;;;;;;;1.030366;0.4816431;-0.30201116;;;;;1987.6
2169.0;2087.9;;;;;;;;;;;;;;;;;-15.518662;38.583027;1.0490738;;1997.2
2169.0;2087.9;;;;;;;;;;;;;;0.97219765;0.5056307;-0.28717917;;;;;1997.2
2169.0;2087.9;;;;;;;;;;;;;;;;;-13.298441;33.974728;-4.413739;;1997.2
2169.0;2087.9;;;;;;;;;;;;;;0.8984649;0.5485397;-0.28955963;;;;;1997.2
2169.0;2087.9;;;;;;;;;;;;;;;;;-15.957365;31.11362;-9.273812;;2006.9
2169.0;2087.9;;;;;;;;;;;;;;0.8644673;0.58589435;-0.3225196;;;;;2006.9
2169.0;2087.9;;;;;;;;;;;;;;;;;-19.886623;33.089695;-12.726218;;2006.9
2169.0;2087.9;;;;;;;;;;;;;;0.83553576;0.60933256;-0.3315531;;;;;2006.9
2169.0;2087.9;;;;;;;;;;;;;;;;;-23.400066;39.914394;-14.816737;;2016.5
2169.0;2087.9;;;;;;;;;;;;;;0.8143559;0.6154973;-0.29749444;;;;;2016.5
2169.0;2087.9;;;;;;;;;;;;;;;;;-28.183844;54.597614;-19.093143;;2016.5
2169.0;2087.9;;;;;;;;;;;;;;0.855739;0.62068546;-0.22168645;;;;;2016.5
2169.0;2088.7;;;;-1.1149675;0.13595583;-0.41201407;;;;;;;;;;;;;;;
2169.0;2088.7;;;;-1.1285478;0.14011385;-0.41423422;;;;;;;;;;;;;;;
2169.0;2088.7;;;;-1.1420289;0.14508821;-0.41627508;;;;;;;;;;;;;;;
2169.0;2088.7;;;;-1.1561357;0.15042497;-0.41938788;;;;;;;;;;;;;;;
2169.0;2088.7;;;;-1.1688043;0.15543367;-0.42257696;;;;;;;;;;;;;;;
2169.0;2089.1;;;;;;;;;;;;;1966;;;;;;;;
2169.0;2089.1;;;;;;;;;;;;;2045;;;;;;;;
2169.0;2089.1;;;;;;;;;;;;;2315;;;;;;;;
2169.0;2089.1;;;;;;;;;;;;;2422;;;;;;;;
2169.0;2089.1;;;;;;;;;;;;;2011;;;;;;;;
2169.0;2090.9;;;;;;;;;;4.448073;-12.260812;-9.334849;;;;;;;;;
2169.0;2090.9;;;;;;;0.9157384;-0.06524857;-0.24182867;;;;;;;;;;;;
2169.0;2090.9;;;;;;;;;;3.8338878;-11.810663;-9.93759;;;;;;;;;
2169.0;2090.9;;;;;;;0.92501605;-0.07818842;-0.23468734;;;;;;;;;;;;
2173.0;2098.8;;;;-1.1801721;0.16091539;-0.4249192;;;;;;;;;;;;;;;
2173.0;2098.8;;;;-1.190941;0.1667061;-0.4267388;;;;;;;;;;;;;;;
2173.0;2098.8;;;;-1.1995202;0.17254259;-0.4282418;;;;;;;;;;;;;;;
2173.0;2098.8;;;;-1.2064401;0.17844392;-0.42940527;;;;;;;;;;;;;;;
2173.0;2098.8;;;;-1.21093;0.18541719;-0.4294091;;;;;;;;;;;;;;;
2173.0;2100.5;;;;;;;;;;3.3265176;-11.165959;-10.55559;;;;;;;;;
2173.0;2100.5;;;;;;;0.93130285;-0.08911405;-0.227546;;;;;;;;;;;;
2173.0;2100.5;;;;;;;;;;2.845851;-10.193182;-11.2384405;;;;;;;;;
2173.0;2100.5;;;;;;;0.9314249;-0.098941006;-0.2229072;;;;;;;;;;;;
2173.0;2102.4;;;;;;;;;;;;;;;;;-40.112766;82.81579;-26.635029;;2026.1
2173.0;2102.4;;;;;;;;;;;;;;0.92825097;0.6239814;-0.0933256;;;;;2026.1
2173.0;2102.4;;;;;;;;;;;;;;;;;-56.142612;113.98663;-36.11484;;2026.1
2173.0;2102.4;;;;;;;;;;;;;;0.99557483;0.6003601;0.0314951;;;;;2026.1
2173.0;2102.4;;;;;;;;;;;;;;;;;-56.340984;123.93567;-48.25358;;2035.7
2173.0;2102.4;;;;;;;;;;;;;;1.0863369;0.60518205;0.159917;;;;;2035.7
2173.0;2102.4;;;;;;;;;;;;;;;;;-42.344433;111.335335;-60.91113;;2035.7
2173.0;2102.4;;;;;;;;;;;;;;1.2312998;0.6619465;0.23053682;;;;;2035.7
2173.0;2102.4;;;;;;;;;;;;;;;;;-29.095585;93.80627;-70.73046;;2045.3
2173.0;2102.4;;;;;;;;;;;;;;1.4250923;0.6911832;0.21546067;;;;;2045.3
2173.0;2102.4;;;;;;;;;;;;;;;;;-20.851772;91.25034;-80.38575;;2045.3
2173.0;2102.4;;;;;;;;;;;;;;1.617542;0.70094913;0.2108829;;;;;2045.3
2173.0;2103.2;262143;262143;11869;;;;;;;;;;;;;;;;;;
2223.0;2108.7;;;;-1.2129441;0.19222263;-0.42964178;;;;;;;;;;;;;;;
2223.0;2108.7;;;;-1.2113496;0.19905856;-0.42977148;;;;;;;;;;;;;;;
2223.0;2108.7;;;;-1.2084504;0.20588687;-0.42839438;;;;;;;;;;;;;;;
2223.0;2108.7;;;;-1.2037622;0.21297076;-0.42633826;;;;;;;;;;;;;;;
2223.0;2108.7;;;;-1.1982766;0.21947482;-0.42420584;;;;;;;;;;;;;;;
2223.0;2109.9;;;;;;;;;;2.4605548;-9.205146;-11.707664;;;;;;;;;
2223.0;2109.9;;;;;;;0.93447673;-0.104068115;-0.22528763;;;;;;;;;;;;
2223.0;2109.9;;;;;;;;;;2.1172216;-8.20185;-11.967071;;;;;;;;;
2223.0;2109.9;;;;;;;0.9477828;-0.10541093;-0.23053682;;;;;;;;;;;;
2223.0;2118.4;;;;-1.1918222;0.22477344;-0.42124182;;;;;;;;;;;;;;;
2223.0;2118.4;;;;-1.1853868;0.22938159;-0.41771704;;;;;;;;;;;;;;;
2223.0;2118.4;;;;-1.1795503;0.23280337;-0.4136315;;;;;;;;;;;;;;;
2223.0;2118.4;;;;-1.1738092;0.2351456;-0.41004187;;;;;;;;;;;;;;;
2223.0;2118.4;;;;-1.1690828;0.23662952;-0.40546805;;;;;;;;;;;;;;;
2223.0;2119.1;;;;;;;;;;1.7967772;-6.9696646;-12.29896;;;;;;;;;
2223.0;2119.1;;;;;;;0.9775689;-0.10174871;-0.23749503;;;;;;;;;;;;
2223.0;2119.1;;;;;;;;;;1.823481;-6.0541096;-12.699514;;;;;;;;;
2223.0;2119.1;;;;;;;1.0071719;-0.10058901;-0.24146245;;;;;;;;;;;;
2223.0;2123.1;262143;262143;11873;;;;;;;;;;;;;;;;;;
2225.0;2128.5;;;;-1.1649743;0.2372475;-0.39952475;;;;;;;;;;;;;;;
2225.0;2128.5;;;;-1.1624032;0.23709491;-0.3935967;;;;;;;;;;;;;;;
2225.0;2128.5;;;;-1.1597177;0.2359505;-0.38711554;;;;;;;;;;;;;;;
2225.0;2128.5;;;;-1.1589357;0.23352054;-0.3817063;;;;;;;;;;;;;;;
2225.0;2128.5;;;;-1.1604997;0.22990039;-0.37674338;;;;;;;;;;;;;;;
2225.0;2128.8;;;;;;;;;;1.945555;-5.3216653;-13.069551;;;;;;;;;
2225.0;2128.8;;;;;;;1.0359203;-0.10498367;-0.24341564;;;;;;;;;;;;
2225.0;2128.8;;;;;;;;;;2.2431104;-4.4938507;-13.32133;;;;;;;;;
2225.0;2128.8;;;;;;;1.0630207;-0.114200264;-0.24713889;;;;;;;;;;;;
2225.0;2129.0;;;;;;;;;;;;;1331;;;;;;;;
2225.0;2129.0;;;;;;;;;;;;;1243;;;;;;;;
2225.0;2129.0;;;;;;;;;;;;;1931;;;;;;;;
2225.0;2129.0;;;;;;;;;;;;;2771;;;;;;;;
2225.0;2129.0;;;;;;;;;;;;;3678;;;;;;;;
2225.0;2138.4;;;;;;;;;;2.6284068;-3.4485915;-13.386182;;;;;;;;;
2225.0;2138.4;;;;;;;1.0923796;-0.1262856;-0.25745416;;;;;;;;;;;;
2225.0;2138.4;;;;;;;;;;3.093814;-2.3804438;-13.431959;;;;;;;;;
2225.0;2138.4;;;;;;;1.1186864;-0.14166692;-0.27198097;;;;;;;;;;;;
2225.0;2138.7;;;;-1.1639978;0.2260857;-0.37280276;;;;;;;;;;;;;;;
2225.0;2138.7;;;;-1.1708528;0.22085956;-0.36927417;;;;;;;;;;;;;;;
2225.0;2138.7;;;;-1.1803972;0.21496585;-0.36752322;;;;;;;;;;;;;;;
2225.0;2138.7;;;;-1.1920244;0.20866016;-0.36592868;;;;;;;;;;;;;;;
2225.0;2138.7;;;;-1.2053758;0.20191196;-0.36483005;;;;;;;;;;;;;;;
2225.0;2143.4;262143;262143;11871;;;;;;;;;;;;;;;;;;
2226.0;2147.1;;;;;;;;;;;;;;;;;-17.136143;96.572014;-91.948456;;2055.0
2226.0;2147.1;;;;;;;;;;;;;;1.7600025;0.7011933;0.23462631;;;;;2055.0
2226.0;2147.1;;;;;;;;;;;;;;;;;-15.060884;101.58467;-103.86593;;2055.0
2226.0;2147.1;;;;;;;;;;;;;;1.8467971;0.6789148;0.24854274;;;;;2055.0
2226.0;2147.1;;;;;;;;;;;;;;;;;-7.755516;102.60704;-115.61938;;2064.6
2226.0;2147.1;;;;;;;;;;;;;;1.8254341;0.6549882;0.27484968;;;;;2064.6
2226.0;2147.1;;;;;;;;;;;;;;;;;-1.247444;92.90216;-123.382515;;2064.6
2226.0;2147.1;;;;;;;;;;;;;;1.7866145;0.60841703;0.2233955;;;;;2064.6
2226.0;2147.1;;;;;;;;;;;;;;;;;0.8507035;86.60772;-124.988556;;2074.3
2226.0;2147.1;;;;;;;;;;;;;;1.7396771;0.5518357;0.11792352;;;;;2074.3
2226.0;2147.1;;;;;;;;;;;;;;;;;3.055666;88.885155;-124.988556;;2074.3
2226.0;2147.1;;;;;;;;;;;;;;1.6937163;0.46845913;0.03851436;;;;;2074.3
2226.0;2147.9;;;;;;;;;;3.6317027;-1.4000366;-13.683737;;;;;;;;;
2226.0;2147.9;;;;;;;1.1449324;-0.15277566;-0.29358807;;;;;;;;;;;;
2226.0;2147.9;;;;;;;;;;4.2420726;-0.43870357;-13.863032;;;;;;;;;
2226.0;2147.9;;;;;;;1.1711783;-0.16498306;-0.3164159;;;;;;;;;;;;
2226.0;2148.7;;;;-1.2196618;0.19478992;-0.36316302;;;;;;;;;;;;;;;
2226.0;2148.7;;;;-1.2336465;0.18784717;-0.361702;;;;;;;;;;;;;;;
2226.0;2148.7;;;;-1.2468225;0.1808243;-0.36057666;;;;;;;;;;;;;;;
2226.0;2148.7;;;;-1.2584115;0.17467882;-0.3596039;;;;;;;;;;;;;;;
2226.0;2148.7;;;;-1.269375;0.16836931;-0.35865405;;;;;;;;;;;;;;;
2226.0;2157.5;;;;;;;;;;4.9630723;0.6256294;-13.7867365;;;;;;;;;
2226.0;2157.5;;;;;;;1.1998657;-0.17352824;-0.34418774;;;;;;;;;;;;
2226.0;2157.5;;;;;;;;;;5.706961;1.6212958;-13.565478;;;;;;;;;
2226.0;2157.5;;;;;;;1.2333751;-0.18109684;-0.37244788;;;;;;;;;;;;
2227.0;2158.8;;;;-1.2786409;0.16228487;-0.35761645;;;;;;;;;;;;;;;
2227.0;2158.8;;;;-1.286564;0.15686418;-0.35724643;;;;;;;;;;;;;;;
2227.0;2158.8;;;;-1.2944604;0.1526642;-0.35760882;;;;;;;;;;;;;;;
2227.0;2158.8;;;;-1.3007089;0.14899828;-0.35759738;;;;;;;;;;;;;;;
2227.0;2158.8;;;;-1.3060113;0.14527895;-0.35733035;;;;;;;;;;;;;;;
2227.0;2162.2;;;;;;;;;;;;;;;;;6.9963684;93.00134;-124.988556;;2084.0
2227.0;2162.2;;;;;;;;;;;;;;1.668691;0.35047457;0.0027466659;;;;;2084.0
2227.0;2162.2;;;;;;;;;;;;;;;;;14.2407;90.83071;-124.988556;;2084.0
2227.0;2162.2;;;;;;;;;;;;;;1.6678365;0.19653921;-0.017090365;;;;;2084.0
2227.0;2162.2;;;;;;;;;;;;;;;;;26.95166;79.48164;-124.01196;;2093.7
2227.0;2162.2;;;;;;;;;;;;;;1.6996368;0.09173864;-0.08337657;;;;;2093.7
2227.0;2162.2;;;;;;;;;;;;;;;;;47.87591;67.52984;-109.37071;;2093.7
2227.0;2162.2;;;;;;;;;;;;;;1.7108676;-0.045228433;-0.20386365;;;;;2093.7
2227.0;2162.2;;;;;;;;;;;;;;;;;71.28742;62.01361;-86.30635;;2103.4
2227.0;2162.2;;;;;;;;;;;;;;1.7078768;-0.20960112;-0.23926511;;;;;2103.4
2227.0;2162.2;;;;;;;;;;;;;;;;;88.282425;56.363873;-55.90991;;2103.4
2227.0;2162.2;;;;;;;;;;;;;;1.6935942;-0.39667958;-0.29206213;;;;;2103.4
2227.0;2163.4;262143;262143;11870;;;;;;;;;;;;;;;;;;
2227.0;2167.0;;;;;;;;;;6.5233316;2.1782587;-13.332774;;;;;;;;;
2227.0;2167.0;;;;;;;1.2679831;-0.19135106;-0.40162358;;;;;;;;;;;;
2227.0;2167.0;;;;;;;;;;7.492294;2.4033327;-12.977996;;;;;;;;;
2227.0;2167.0;;;;;;;1.3030183;-0.20844142;-0.42963958;;;;;;;;;;;;
2280.0;2168.7;;;;-1.3092424;0.14255144;-0.35779956;;;;;;;;;;;;;;;
2280.0;2168.7;;;;-1.3111535;0.14048006;-0.35800937;;;;;;;;;;;;;;;
2280.0;2168.7;;;;-1.3114511;0.13954546;-0.35811618;;;;;;;;;;;;;;;
2280.0;2168.7;;;;-1.3095781;0.13868715;-0.35758212;;;;;;;;;;;;;;;
2280.0;2168.7;;;;-1.30505;0.13790132;-0.35714343;;;;;;;;;;;;;;;
2280.0;2169.2;;;;;;;;;;;;;4235;;;;;;;;
2280.0;2169.2;;;;;;;;;;;;;3475;;;;;;;;
2280.0;2169.2;;;;;;;;;;;;;1102;;;;;;;;
2280.0;2169.2;;;;;;;;;;;;;-1891;;;;;;;;
2280.0;2169.2;;;;;;;;;;;;;-4332;;;;;;;;
2280.0;2176.4;;;;;;;;;;8.510849;2.4033327;-12.623219;;;;;;;;;
2280.0;2176.4;;;;;;;1.3389081;-0.22760704;-0.45484787;;;;;;;;;;;;
2280.0;2176.4;;;;;;;;;;9.544664;2.4147773;-12.199775;;;;;;;;;
2280.0;2176.4;;;;;;;1.3711356;-0.25385296;-0.47773674;;;;;;;;;;;;
2280.0;2178.7;;;;-1.2987558;0.13776018;-0.35585406;;;;;;;;;;;;;;;
2280.0;2178.7;;;;-1.290989;0.13745882;-0.3548546;;;;;;;;;;;;;;;
2280.0;2178.7;;;;-1.2824556;0.13769914;-0.3546181;;;;;;;;;;;;;;;
2280.0;2178.7;;;;-1.2731591;0.13751985;-0.3530312;;;;;;;;;;;;;;;
2280.0;2178.7;;;;-1.2635614;0.13715364;-0.35091403;;;;;;;;;;;;;;;
2280.0;2183.5;262143;262143;11868;;;;;;;;;;;;;;;;;;
2280.0;2186.1;;;;;;;;;;10.4831085;2.727592;-11.799219;;;;;;;;;
2280.0;2186.1;;;;;;;1.3954283;-0.2806482;-0.4998932;;;;;;;;;;;;
2280.0;2186.1;;;;;;;;;;11.375774;2.9450362;-11.619923;;;;;;;;;
2280.0;2186.1;;;;;;;1.4098331;-0.30640584;-0.5174108;;;;;;;;;;;;
2282.0;2188.8;;;;-1.2539293;0.13599397;-0.3480492;;;;;;;;;;;;;;;
2282.0;2188.8;;;;-1.2449418;0.13423921;-0.34582523;;;;;;;;;;;;;;;
2282.0;2188.8;;;;-1.2367593;0.1323662;-0.34413913;;;;;;;;;;;;;;;
2282.0;2188.8;;;;-1.2295839;0.12908556;-0.34154895;;;;;;;;;;;;;;;
2282.0;2188.8;;;;-1.2214586;0.12453081;-0.33961108;;;;;;;;;;;;;;;
2282.0;2195.7;;;;;;;;;;12.283701;3.1014435;-11.482589;;;;;;;;;
2282.0;2195.7;;;;;;;1.414777;-0.3317362;-0.52717674;;;;;;;;;;;;
2282.0;2195.7;;;;;;;;;;13.138219;3.0213325;-11.413922;;;;;;;;;
2282.0;2195.7;;;;;;;1.3993957;-0.35139012;-0.52986234;;;;;;;;;;;;
2282.0;2198.9;;;;-1.2139589;0.118648544;-0.33788303;;;;;;;;;;;;;;;
2282.0;2198.9;;;;-1.2083627;0.111576095;-0.3361397;;;;;;;;;;;;;;;
2282.0;2198.9;;;;-1.2060205;0.104843155;-0.33459094;;;;;;;;;;;;;;;
2282.0;2198.9;;;;-1.2053567;0.097599044;-0.33222583;;;;;;;;;;;;;;;
2282.0;2198.9;;;;-1.2059327;0.09087754;-0.32961658;;;;;;;;;;;;;;;
2282.0;2203.8;262143;262143;11869;;;;;;;;;;;;;;;;;;
2282.0;2205.3;;;;;;;;;;13.874477;2.7619252;-11.490219;;;;;;;;;
2282.0;2205.3;;;;;;;1.3695487;-0.36768702;-0.52455217;;;;;;;;;;;;
2282.0;2205.3;;;;;;;;;;14.446699;2.395703;-11.719108;;;;;;;;;
2282.0;2205.3;;;;;;;1.335429;-0.37763605;-0.51545763;;;;;;;;;;;;
2283.0;2207.4;;;;;;;;;;;;;;;;;84.10902;66.19846;-44.85839;;2112.8
2283.0;2207.4;;;;;;;;;;;;;;1.5671254;-0.6250801;-0.28241828;;;;;2112.8
2283.0;2207.4;;;;;;;;;;;;;;;;;82.50679;75.59817;-57.714317;;2112.8
2283.0;2207.4;;;;;;;;;;;;;;1.5744499;-0.78456986;-0.33314005;;;;;2112.8
2283.0;2207.4;;;;;;;;;;;;;;;;;83.166756;92.036194;-74.285866;;2122.4
2283.0;2207.4;;;;;;;;;;;;;;1.4745322;-0.8285775;-0.23053682;;;;;2122.4
2283.0;2207.4;;;;;;;;;;;;;;;;;61.582535;112.92612;-106.769005;;2122.4
2283.0;2207.4;;;;;;;;;;;;;;1.3146764;-0.79244363;-0.14123966;;;;;2122.4
2283.0;2207.4;;;;;;;;;;;;;;;;;62.3455;118.09901;-124.45448;;2132.1
2283.0;2207.4;;;;;;;;;;;;;;1.320658;-0.4041261;0.037659843;;;;;2132.1
2283.0;2207.4;;;;;;;;;;;;;;;;;60.316017;110.48082;-124.988556;;2132.1
2283.0;2207.4;;;;;;;;;;;;;;1.3379315;-0.017334513;0.22724082;;;;;2132.1
2283.0;2208.9;;;;-1.2064096;0.08455277;-0.32647327;;;;;;;;;;;;;;;
2283.0;2208.9;;;;-1.2077371;0.0783043;-0.32379535;;;;;;;;;;;;;;;
2283.0;2208.9;;;;-1.2084314;0.07295609;-0.32115176;;;;;;;;;;;;;;;
2283.0;2208.9;;;;-1.2103082;0.0677414;-0.31818393;;;;;;;;;;;;;;;
2283.0;2208.9;;;;-1.2118074;0.06298066;-0.31540683;;;;;;;;;;;;;;;
2283.0;2209.5;;;;;;;;;;;;;-6324;;;;;;;;
2283.0;2209.5;;;;;;;;;;;;;-7785;;;;;;;;
2283.0;2209.5;;;;;;;;;;;;;-7367;;;;;;;;
2283.0;2209.5;;;;;;;;;;;;;-2752;;;;;;;;
2283.0;2209.5;;;;;;;;;;;;;1958;;;;;;;;
2283.0;2214.8;;;;;;;;;;15.0112915;1.5869625;-12.173071;;;;;;;;;
2283.0;2214.8;;;;;;;1.3052766;-0.380871;-0.49995422;;;;;;;;;;;;
2283.0;2214.8;;;;;;;;;;15.568254;0.12970367;-12.863552;;;;;;;;;
2283.0;2214.8;;;;;;;1.2736595;-0.37958923;-0.4816431;;;;;;;;;;;;
2288.0;2219.0;;;;-1.2136651;0.05863572;-0.31265262;;;;;;;;;;;;;;;
2288.0;2219.0;;;;-1.2146875;0.05446244;-0.30978015;;;;;;;;;;;;;;;
2288.0;2219.0;;;;-1.2161294;0.05101777;-0.30716708;;;;;;;;;;;;;;;
2288.0;2219.0;;;;-1.217415;0.047634132;-0.30394366;;;;;;;;;;;;;;;
2288.0;2219.0;;;;-1.2197458;0.044178013;-0.30206302;;;;;;;;;;;;;;;
2288.0;2222.5;;;;;;;;;;;;;;;;;43.38969;94.59975;-124.988556;;2141.8
2288.0;2222.5;;;;;;;;;;;;;;1.3495284;0.25403607;0.25086215;;;;;2141.8
2288.0;2222.5;;;;;;;;;;;;;;;;;39.330727;77.43309;-124.988556;;2141.8
2288.0;2222.5;;;;;;;;;;;;;;1.3758965;0.52327037;0.27185887;;;;;2141.8
2288.0;2222.5;;;;;;;;;;;;;;;;;35.435802;52.60628;-124.988556;;2151.4
2288.0;2222.5;;;;;;;;;;;;;;1.4852138;0.75948364;0.16711935;;;;;2151.4
2288.0;2222.5;;;;;;;;;;;;;;;;;29.98062;31.09073;-124.988556;;2151.4
2288.0;2222.5;;;;;;;;;;;;;;1.5937986;0.9857479;-0.02294992;;;;;2151.4
2288.0;2222.5;;;;;;;;;;;;;;;;;28.809473;23.56029;-124.988556;;2161.1
2288.0;2222.5;;;;;;;;;;;;;;1.6484268;1.1819819;-0.21430098;;;;;2161.1
2288.0;2222.5;;;;;;;;;;;;;;;;;26.72277;40.162357;-124.27137;;2161.1
2288.0;2222.5;;;;;;;;;;;;;;1.5824457;1.2532121;-0.23749503;;;;;2161.1
2288.0;2223.7;262143;262143;11850;;;;;;;;;;;;;;;;;;
2288.0;2224.2;;;;;;;;;;15.98407;-1.5030366;-13.351849;;;;;;;;;
2288.0;2224.2;;;;;;;1.2453383;-0.366039;-0.46156195;;;;;;;;;;;;
2288.0;2224.2;;;;;;;;;;16.338848;-2.9374065;-13.561663;;;;;;;;;
2288.0;2224.2;;;;;;;1.2220832;-0.3490707;-0.44392225;;;;;;;;;;;;
2342.0;2228.9;;;;-1.2222978;0.04130173;-0.30035403;;;;;;;;;;;;;;;
2342.0;2228.9;;;;-1.223507;0.038299564;-0.29722217;;;;;;;;;;;;;;;
2342.0;2228.9;;;;-1.2233926;0.035041813;-0.2950516;;;;;;;;;;;;;;;
2342.0;2228.9;;;;-1.222664;0.03174973;-0.29319385;;;;;;;;;;;;;;;
2342.0;2228.9;;;;-1.2224656;0.02939606;-0.29170612;;;;;;;;;;;;;;;
2342.0;2233.6;;;;;;;;;;16.7127;-4.032258;-13.618885;;;;;;;;;
2342.0;2233.6;;;;;;;1.2137822;-0.32801294;-0.42799157;;;;;;;;;;;;
2342.0;2233.6;;;;;;;;;;16.97592;-5.1080356;-13.660849;;;;;;;;;
2342.0;2233.6;;;;;;;1.2115848;-0.30475783;-0.4170049;;;;;;;;;;;;
2342.0;2238.6;;;;-1.2222139;0.026817326;-0.29008105;;;;;;;;;;;;;;;
2342.0;2238.6;;;;-1.220852;0.024456028;-0.2886925;;;;;;;;;;;;;;;
2342.0;2238.6;;;;-1.2183076;0.02164078;-0.28647998;;;;;;;;;;;;;;;
2342.0;2238.6;;;;-1.2149354;0.019134523;-0.28504947;;;;;;;;;;;;;;;
2342.0;2238.6;;;;-1.2117654;0.016895296;-0.28395465;;;;;;;;;;;;;;;
2342.0;2243.1;;;;;;;;;;17.303995;-5.9663687;-13.660849;;;;;;;;;
2342.0;2243.1;;;;;;;1.218543;-0.2832728;-0.40766624;;;;;;;;;;;;
2342.0;2243.1;;;;;;;;;;17.612995;-6.618702;-13.504441;;;;;;;;;
2342.0;2243.1;;;;;;;1.2247689;-0.26502272;-0.40101323;;;;;;;;;;;;
2342.0;2243.6;262143;262143;11832;;;;;;;;;;;;;;;;;;
2343.0;2248.7;;;;-1.207966;0.015426638;-0.28198245;;;;;;;;;;;;;;;
2343.0;2248.7;;;;-1.2044564;0.01394272;-0.28083804;;;;;;;;;;;;;;;
2343.0;2248.7;;;;-1.2010804;0.012996675;-0.2790108;;;;;;;;;;;;;;;
2343.0;2248.7;;;;-1.1980668;0.012584688;-0.27655795;;;;;;;;;;;;;;;
2343.0;2248.7;;;;-1.1955911;0.01249695;-0.2743378;;;;;;;;;;;;;;;
2343.0;2249.4;;;;;;;;;;;;;-7563;;;;;;;;
2343.0;2249.4;;;;;;;;;;;;;-34408;;;;;;;;
2343.0;2249.4;;;;;;;;;;;;;-57112;;;;;;;;
2343.0;2249.4;;;;;;;;;;;;;-52671;;;;;;;;
2343.0;2249.4;;;;;;;;;;;;;-24623;;;;;;;;
2343.0;2252.7;;;;;;;;;;17.983032;-7.160405;-13.286996;;;;;;;;;
2343.0;2252.7;;;;;;;1.2287973;-0.25165564;-0.39558092;;;;;;;;;;;;
2343.0;2252.7;;;;;;;;;;18.368328;-7.6105533;-12.848292;;;;;;;;;
2343.0;2252.7;;;;;;;1.2270882;-0.24146245;-0.3914304;;;;;;;;;;;;
2343.0;2258.9;;;;-1.1933519;0.013042452;-0.27120593;;;;;;;;;;;;;;;
2343.0;2258.9;;;;-1.190941;0.014427187;-0.2680588;;;;;;;;;;;;;;;
2343.0;2258.9;;;;-1.1888124;0.016292574;-0.265049;;;;;;;;;;;;;;;
2343.0;2258.9;;;;-1.1853868;0.017852785;-0.26213458;;;;;;;;;;;;;;;
2343.0;2258.9;;;;-1.1809274;0.019718172;-0.25915912;;;;;;;;;;;;;;;
2343.0;2262.4;;;;;;;;;;18.833736;-7.5380716;-12.211219;;;;;;;;;
2343.0;2262.4;;;;;;;1.2231208;-0.23621327;-0.3878292;;;;;;;;;;;;
2343.0;2262.4;;;;;;;;;;19.253365;-6.725517;-11.585589;;;;;;;;;
2343.0;2262.4;;;;;;;1.2148808;-0.2278512;-0.38392285;;;;;;;;;;;;
2343.0;2263.9;262143;262143;11816;;;;;;;;;;;;;;;;;;
2345.0;2267.5;;;;;;;;;;;;;;;;;20.897549;58.996094;-108.905304;;2170.8
2345.0;2267.5;;;;;;;;;;;;;;1.3873104;0.7907346;-0.11609241;;;;;2170.8
2345.0;2267.5;;;;;;;;;;;;;;;;;16.571552;55.26139;-96.82761;;2170.8
2345.0;2267.5;;;;;;;;;;;;;;1.3471481;0.45954773;0.048524432;;;;;2170.8
2345.0;2267.5;;;;;;;;;;;;;;;;;3.9559617;41.421246;-99.69252;;2180.4
2345.0;2267.5;;;;;;;;;;;;;;1.3440351;0.36805323;0.019287698;;;;;2180.4
2345.0;2267.5;;;;;;;;;;;;;;;;;-6.1799984;34.18836;-100.409706;;2180.4
2345.0;2267.5;;;;;;;;;;;;;;1.2969146;0.31946775;-0.041016877;;;;;2180.4
2345.0;2267.5;;;;;;;;;;;;;;;;;-14.584033;31.45314;-95.4886;;2190.1
2345.0;2267.5;;;;;;;;;;;;;;1.2165898;0.21387371;-0.05627613;;;;;2190.1
2345.0;2267.5;;;;;;;;;;;;;;;;;-19.722586;29.694511;-90.26231;;2190.1
2345.0;2267.5;;;;;;;;;;;;;;1.0993987;0.117069006;-0.035340436;;;;;2190.1
2345.0;2268.8;;;;-1.175831;0.021888735;-0.2560387;;;;;;;;;;;;;;;
