patientId;holterMac;flexMac;;;;;;;;;;;;;;;;;;;;
;CA:F3:0B:1E:33:78;D3:4A:5C:52:80:78;;;;;;;;;;;;;;;;;;;;
receivedTimeStamp;timeStamp;red;ir;green;adxl_accX;adxl_accY;adxl_accZ;lsm_accelX;lsm_accelY;lsm_accelZ;lsm_gyroX;lsm_gyroY;lsm_gyroZ;ecg;flex_lsm_accelX;flex_lsm_accelY;flex_lsm_accelZ;flex_lsm_gyroX;flex_lsm_gyroY;flex_lsm_gyroZ;flex_cmd;flexTimeStamp
283.0;213.0;;;;;;;;;;;;;;;;;;;;17;0.1
283.0;213.0;;;;;;;;;;;;;;;;;13.447219;1.064333;1.3618885;;127.8
283.0;213.0;;;;;;;;;;;;;;-0.8710593;-0.6461379;-0.08185064;;;;;127.8
283.0;213.0;;;;;;;;;;;;;;;;;-5.8671837;-16.70507;-7.335887;;127.8
283.0;213.0;;;;;;;;;;;;;;-0.8467666;-0.6071963;-0.08172857;;;;;127.8
283.0;213.0;;;;;;;;;;;;;;;;;-65.91235;-84.040344;-64.16517;;137.4
283.0;213.0;;;;;;;;;;;;;;-0.7912839;-0.5373089;-0.083803825;;;;;137.4
283.0;213.0;;;;;;;;;;;;;;;;;-122.631;-124.988556;-121.353035;;137.4
283.0;213.0;;;;;;;;;;;;;;-0.8229621;-0.44257942;-0.051576283;;;;;137.4
344.0;213.8;;;;;;;;;;;;;;;;;-62.76513;-119.430374;-89.484085;;147.1
344.0;213.8;;;;;;;;;;;;;;-0.840846;-0.32862332;-0.049256876;;;;;147.1
344.0;213.8;;;;;;;;;;;;;;;;;-1.2321848;-98.39549;-59.69802;;147.1
344.0;213.8;;;;;;;;;;;;;;-0.8999298;-0.19763787;-0.10889004;;;;;147.1
344.0;213.8;;;;;;;;;;;;;;;;;-6.5080724;-43.90851;-56.63091;;156.7
344.0;213.8;;;;;;;;;;;;;;-1.089816;-0.11249123;-0.18524735;;;;;156.7
344.0;213.8;;;;;;;;;;;;;;;;;-14.938811;63.875244;-29.68688;;156.7
344.0;213.8;;;;;;;;;;;;;;-1.2898953;-0.06738487;-0.27228615;;;;;156.7
344.0;213.8;;;;;;;;;;;;;;;;;-16.541033;80.10727;-17.742699;;166.4
344.0;213.8;;;;;;;;;;;;;;-1.6682028;-0.057924133;-0.2285226;;;;;166.4
344.0;213.8;;;;;;;;;;;;;;;;;-23.457289;75.1442;-7.374035;;166.4
344.0;213.8;;;;;;;;;;;;;;-1.8370922;-0.15588854;-0.21594897;;;;;166.4
344.0;273.3;;;;;;;;;;;;;;;;;-35.85925;64.75646;1.083407;;176.0
344.0;273.3;;;;;;;;;;;;;;-1.9194311;-0.21448408;-0.2690512;;;;;176.0
344.0;273.3;;;;;;;;;;;;;;;;;-48.11243;54.10169;6.5691094;;176.0
344.0;273.3;;;;;;;;;;;;;;-1.9921262;-0.20136112;-0.32227546;;;;;176.0
344.0;273.3;;;;;;;;;;;;;;;;;-52.903835;45.445873;8.667256;;185.7
344.0;273.3;;;;;;;;;;;;;;-1.9998169;-0.12439345;-0.2320017;;;;;185.7
344.0;273.3;;;;;;;;;;;;;;;;;-45.018616;42.08884;11.082033;;185.7
344.0;273.3;;;;;;;;;;;;;;-1.9998169;-0.06292917;-0.0347911;;;;;185.7
344.0;273.3;;;;;;;;;;;;;;;;;-31.243324;38.41136;13.325145;;195.4
344.0;273.3;;;;;;;;;;;;;;-1.9467757;-0.13116856;0.09161656;;;;;195.4
344.0;273.3;;;;;;;;;;;;;;;;;-16.567736;28.992584;13.40907;;195.4
344.0;273.3;;;;;;;;;;;;;;-1.7785577;-0.31086153;0.16766869;;;;;195.4
404.0;274.5;;;;;;;;;;;;;;;;;-5.2339244;11.307108;10.105441;;205.0
404.0;274.5;;;;;;;;;;;;;;-1.6630147;-0.5272988;0.15271463;;;;;205.0
404.0;274.5;;;;;;;;;;;;;;;;;-1.2245551;-9.960478;-0.045777764;;205.0
404.0;274.5;;;;;;;;;;;;;;-1.4596393;-0.7026582;0.1394696;;;;;205.0
404.0;274.5;;;;;;;;;;;;;;;;;-8.140813;-21.053957;-15.583514;;214.7
404.0;274.5;;;;;;;;;;;;;;-1.1622059;-0.7967162;-0.03503525;;;;;214.7
404.0;274.5;;;;;;;;;;;;;;;;;-14.973144;-27.172918;-28.962067;;214.7
404.0;274.5;;;;;;;;;;;;;;-0.91201514;-0.72359383;-0.15485092;;;;;214.7
404.0;274.5;;;;;;;;;;;;;;;;;-17.07892;-31.815548;-37.5721;;224.4
404.0;274.5;;;;;;;;;;;;;;-0.7183447;-0.57368696;-0.275338;;;;;224.4
404.0;274.5;;;;;;;;;;;;;;;;;-12.459181;-32.46788;-42.83273;;224.4
404.0;274.5;;;;;;;;;;;;;;-0.6104923;-0.38508254;-0.3103122;;;;;224.4
404.0;333.7;;;;;;;;;;;;;;;;;-3.9864802;-25.19303;-44.289986;;234.0
404.0;333.7;;;;;;;;;;;;;;-0.61720634;-0.15472884;-0.20636617;;;;;234.0
404.0;333.7;;;;;;;;;;;;;;;;;-9.399701;-15.720848;-43.01584;;234.0
404.0;333.7;;;;;;;;;;;;;;-0.72963655;-0.043092135;-0.116641745;;;;;234.0
404.0;333.7;;;;;;;;;;;;;;;;;-32.376324;-14.080477;-41.451767;;243.7
404.0;333.7;;;;;;;;;;;;;;-0.7836543;0.03601184;-0.077455975;;;;;243.7
404.0;333.7;;;;;;;;;;;;;;;;;-60.19013;-14.595477;-37.03421;;243.7
404.0;333.7;;;;;;;;;;;;;;-0.81411177;0.09277627;-0.16681418;;;;;243.7
404.0;333.7;;;;;;;;;;;;;;;;;-79.04675;-19.24192;-28.47377;;253.4
404.0;333.7;;;;;;;;;;;;;;-0.7658315;0.13995789;-0.36481827;;;;;253.4
404.0;333.7;;;;;;;;;;;;;;;;;-84.982605;-26.329844;-15.8772545;;253.4
404.0;333.7;;;;;;;;;;;;;;-0.6524857;0.1782281;-0.5301675;;;;;253.4
523.0;334.6;;;;;;;;;;;;;;;;;-80.610825;-25.364697;-2.3918884;;263.0
523.0;334.6;;;;;;;;;;;;;;-0.58027893;0.22382274;-0.5228431;;;;;263.0
523.0;334.6;;;;;;;;;;;;;;;;;-76.13224;-19.562365;9.575183;;263.0
523.0;334.6;;;;;;;;;;;;;;-0.56068605;0.276986;-0.44331187;;;;;263.0
523.0;334.6;;;;;;;;;;;;;;;;;-78.56227;-14.992217;18.738365;;272.7
523.0;334.6;;;;;;;;;;;;;;-0.52174443;0.26984465;-0.4985504;;;;;272.7
523.0;334.6;;;;;;;;;;;;;;;;;-77.322464;-11.799219;27.016512;;272.7
523.0;334.6;;;;;;;;;;;;;;-0.4606464;0.15094455;-0.6176336;;;;;272.7
523.0;334.6;;;;;;;;;;;;;;;;;-66.8775;-7.2519608;36.44673;;282.4
523.0;334.6;;;;;;;;;;;;;;-0.45747244;0.06537065;-0.64839625;;;;;282.4
523.0;334.6;;;;;;;;;;;;;;;;;-54.055912;0.19837031;44.167915;;282.4
523.0;334.6;;;;;;;;;;;;;;-0.56776637;6.103702E-5;-0.5512253;;;;;282.4
523.0;393.9;;;;;;;;;;;;;;;;;-45.194096;6.172369;48.837246;;292.0
523.0;393.9;;;;;;;;;;;;;;-0.69734794;-0.057863094;-0.39179662;;;;;292.0
523.0;393.9;;;;;;;;;;;;;;;;;-43.710136;10.475478;50.618763;;292.0
523.0;393.9;;;;;;;;;;;;;;-0.8698996;-0.18231757;-0.31202126;;;;;292.0
523.0;393.9;;;;;;;;;;;;;;;;;-46.887875;14.915922;48.600727;;301.7
523.0;393.9;;;;;;;;;;;;;;-1.0605793;-0.32447278;-0.28089237;;;;;301.7
523.0;393.9;;;;;;;;;;;;;;;;;-52.560505;16.495255;44.373913;;301.7
523.0;393.9;;;;;;;;;;;;;;-1.1818599;-0.4852443;-0.3556627;;;;;301.7
523.0;393.9;;;;;;;;;;;;;;;;;-55.4445;17.029327;39.712208;;311.4
523.0;393.9;;;;;;;;;;;;;;-1.2618793;-0.63362527;-0.44856104;;;;;311.4
523.0;393.9;;;;;;;;;;;;;;;;;-56.138798;14.736626;34.91699;;311.4
523.0;393.9;;;;;;;;;;;;;;-1.261391;-0.7246925;-0.5365154;;;;;311.4
526.0;394.8;;;;;;;;;;;;;;;;;-54.01013;11.265144;30.957212;;321.0
526.0;394.8;;;;;;;;;;;;;;-1.1963866;-0.768334;-0.549028;;;;;321.0
526.0;394.8;;;;;;;;;;;;;;;;;-49.27595;8.110294;28.420362;;321.0
526.0;394.8;;;;;;;;;;;;;;-1.0956755;-0.7829829;-0.51564074;;;;;321.0
526.0;394.8;;;;;;;;;;;;;;;;;-41.165653;5.962554;27.283548;;330.6
526.0;394.8;;;;;;;;;;;;;;-0.99826044;-0.7642445;-0.48707542;;;;;330.6
526.0;394.8;;;;;;;;;;;;;;;;;-29.545732;5.386517;26.852474;;330.6
526.0;394.8;;;;;;;;;;;;;;-0.9696951;-0.7082736;-0.47169408;;;;;330.6
526.0;394.8;;;;;;;;;;;;;;;;;-16.724144;2.8382213;26.787622;;340.3
526.0;394.8;;;;;;;;;;;;;;-0.9378948;-0.6220893;-0.44264045;;;;;340.3
526.0;394.8;;;;;;;;;;;;;;;;;-5.344554;1.3618885;27.974028;;340.3
526.0;394.8;;;;;;;;;;;;;;-0.91305274;-0.5315714;-0.44190803;;;;;340.3
526.0;454.6;;;;;;;;;;;;;;;;;3.6088138;2.9793696;30.301064;;349.9
526.0;454.6;;;;;;;;;;;;;;-0.95376444;-0.4824366;-0.4295175;;;;;349.9
526.0;454.6;;;;;;;;;;;;;;;;;10.174108;2.9831843;32.45262;;349.9
526.0;454.6;;;;;;;;;;;;;;-0.95620596;-0.42280343;-0.42298654;;;;;349.9
526.0;454.6;;;;;;;;;;;;;;;;;14.244514;3.4371471;34.63088;;359.6
526.0;454.6;;;;;;;;;;;;;;-0.9635914;-0.34516433;-0.43470564;;;;;359.6
526.0;454.6;;;;;;;;;;;;;;;;;16.335033;4.1581473;37.030396;;359.6
526.0;454.6;;;;;;;;;;;;;;-0.9652394;-0.24646749;-0.41676077;;;;;359.6
526.0;454.6;;;;;;;;;;;;;;;;;15.8391075;4.7036653;39.880062;;369.1
526.0;454.6;;;;;;;;;;;;;;-0.9666433;-0.16913357;-0.3899655;;;;;369.1
526.0;454.6;;;;;;;;;;;;;;;;;12.939848;4.50911;42.413097;;369.1
526.0;454.6;;;;;;;;;;;;;;-0.95651114;-0.12146367;-0.34900966;;;;;369.1
583.0;455.4;;;;;;;;;;;;;;;;;8.2819605;3.6812954;43.771175;;378.7
583.0;455.4;;;;;;;;;;;;;;-0.9313639;-0.09399701;-0.32862332;;;;;378.7
583.0;455.4;;;;;;;;;;;;;;;;;2.5063326;3.151036;44.106876;;378.7
583.0;455.4;;;;;;;;;;;;;;-0.9076815;-0.0679342;-0.3188574;;;;;378.7
583.0;455.4;;;;;;;;;;;;;;;;;-3.3761103;2.8305917;44.007694;;388.3
583.0;455.4;;;;;;;;;;;;;;-0.8885769;-0.05224769;-0.31006807;;;;;388.3
583.0;455.4;;;;;;;;;;;;;;;;;-9.067812;2.437666;43.698692;;388.3
583.0;455.4;;;;;;;;;;;;;;-0.8782617;-0.036378063;-0.29352704;;;;;388.3
583.0;455.4;;;;;;;;;;;;;;;;;-14.381847;1.9760735;43.244728;;398.0
583.0;455.4;;;;;;;;;;;;;;-0.8667257;-0.012329478;-0.2700278;;;;;398.0
583.0;455.4;;;;;;;;;;;;;;;;;-20.222326;1.5907773;42.35969;;398.0
583.0;455.4;;;;;;;;;;;;;;-0.8615375;0.011841182;-0.2529374;;;;;398.0
583.0;514.5;;;;;;;;;;;;;;;;;-26.867733;1.0719626;41.112247;;407.6
583.0;514.5;;;;;;;;;;;;;;-0.85317546;0.0110477;-0.24152349;;;;;407.6
583.0;514.5;;;;;;;;;;;;;;;;;-33.8374;0.26703694;39.540543;;407.6
583.0;514.5;;;;;;;;;;;;;;-0.8354137;-0.0036622211;-0.23664053;;;;;407.6
583.0;514.5;;;;;;;;;;;;;;;;;-40.61632;-0.14496292;37.869656;;417.3
583.0;514.5;;;;;;;;;;;;;;-0.83291113;-0.04547258;-0.23261207;;;;;417.3
583.0;514.5;;;;;;;;;;;;;;;;;-46.784874;-0.8659627;36.381878;;417.3
583.0;514.5;;;;;;;;;;;;;;-0.8294931;-0.10260323;-0.227546;;;;;417.3
583.0;514.5;;;;;;;;;;;;;;;;;-51.580097;-1.8997772;34.76821;;426.9
583.0;514.5;;;;;;;;;;;;;;-0.8222297;-0.14001893;-0.22577593;;;;;426.9
583.0;514.5;;;;;;;;;;;;;;;;;-56.367687;-2.3689995;32.139805;;426.9
583.0;514.5;;;;;;;;;;;;;;-0.7952513;-0.10895108;-0.23218483;;;;;426.9
650.0;515.4;;;;;;;;;;;;;;;;;-60.876797;-1.247444;30.125584;;436.5
650.0;515.4;;;;;;;;;;;;;;-0.82680744;-0.15405744;-0.2156438;;;;;436.5
650.0;515.4;;;;;;;;;;;;;;;;;-65.23713;-1.701407;27.75277;;436.5
650.0;515.4;;;;;;;;;;;;;;-0.8120365;-0.15930662;-0.23041475;;;;;436.5
650.0;515.4;;;;;;;;;;;;;;;;;-68.94131;-1.9760735;25.254066;;446.2
650.0;515.4;;;;;;;;;;;;;;-0.7953734;-0.18384351;-0.2313303;;;;;446.2
650.0;515.4;;;;;;;;;;;;;;;;;-71.378975;-2.1515548;23.201696;;446.2
650.0;515.4;;;;;;;;;;;;;;-0.793115;-0.22449416;-0.2287057;;;;;446.2
650.0;515.4;;;;;;;;;;;;;;;;;-72.9545;-2.6512957;21.084475;;455.9
650.0;515.4;;;;;;;;;;;;;;-0.7903684;-0.2586749;-0.22894986;;;;;455.9
650.0;515.4;;;;;;;;;;;;;;;;;-73.73272;-3.0785549;19.085514;;455.9
650.0;515.4;;;;;;;;;;;;;;-0.78310496;-0.29865414;-0.23712882;;;;;455.9
650.0;529.9;;;;;;;;;;;;;;;;;-73.58775;-3.4333322;17.00644;;465.5
650.0;529.9;;;;;;;;;;;;;;-0.77590257;-0.32923368;-0.2553789;;;;;465.5
650.0;529.9;;;;;;;;;;;;;;;;;-72.87438;-3.402814;14.896848;;465.5
650.0;529.9;;;;;;;;;;;;;;-0.7706534;-0.35486922;-0.26087222;;;;;465.5
650.0;529.9;;;;;;;;;;;;;;;;;-72.08472;-3.4905546;12.733848;;475.2
650.0;529.9;;;;;;;;;;;;;;-0.7660756;-0.385815;-0.26538897;;;;;475.2
650.0;529.9;;;;;;;;;;;;;;;;;-70.64653;-3.5897398;10.784478;;475.2
650.0;529.9;;;;;;;;;;;;;;-0.7597278;-0.41248816;-0.25727102;;;;;475.2
650.0;529.9;;;;;;;;;;;;;;;;;-68.727684;-3.6011841;8.980071;;484.7
650.0;529.9;;;;;;;;;;;;;;-0.75704217;-0.43488875;-0.25446334;;;;;484.7
650.0;529.9;;;;;;;;;;;;;;;;;-66.62191;-3.501999;7.4198127;;484.7
650.0;529.9;;;;;;;;;;;;;;-0.7563707;-0.45387128;-0.25397503;;;;;484.7
709.0;574.8;;;;;;;;;;;;;;;;;-64.02402;-3.3646657;6.263924;;494.1
709.0;574.8;;;;;;;;;;;;;;-0.7627186;-0.4745018;-0.2517777;;;;;494.1
709.0;574.8;;;;;;;;;;;;;;;;;-60.857723;-3.6736658;5.1728873;;494.1
709.0;574.8;;;;;;;;;;;;;;-0.77205724;-0.4875637;-0.24939726;;;;;494.1
709.0;574.8;;;;;;;;;;;;;;;;;-57.24891;-4.4557023;4.4518876;;503.7
709.0;574.8;;;;;;;;;;;;;;-0.7706534;-0.49220252;-0.25299844;;;;;503.7
709.0;574.8;;;;;;;;;;;;;;;;;-52.80084;-4.9859614;4.1047397;;503.7
709.0;574.8;;;;;;;;;;;;;;-0.76943266;-0.49794;-0.25458542;;;;;503.7
709.0;574.8;;;;;;;;;;;;;;;;;-48.013245;-5.489517;3.849147;;513.3
709.0;574.8;;;;;;;;;;;;;;-0.77163;-0.49897763;-0.25592822;;;;;513.3
709.0;574.8;;;;;;;;;;;;;;;;;-44.099247;-6.050295;3.5287027;;513.3
709.0;574.8;;;;;;;;;;;;;;-0.7665639;-0.49360636;-0.25666067;;;;;513.3
709.0;589.8;;;;;;;;;;;;;;;;;-41.421246;-6.3859982;3.0632956;;523.0
709.0;589.8;;;;;;;;;;;;;;-0.7565538;-0.49079868;-0.26087222;;;;;523.0
709.0;589.8;;;;;;;;;;;;;;;;;-39.23154;-6.2105165;2.66274;;523.0
709.0;589.8;;;;;;;;;;;;;;-0.7514878;-0.49079868;-0.24732201;;;;;523.0
709.0;589.8;;;;;;;;;;;;;;;;;-36.77099;-6.0579243;2.3728142;;532.7
709.0;589.8;;;;;;;;;;;;;;-0.74404126;-0.49739066;-0.22644734;;;;;532.7
709.0;589.8;;;;;;;;;;;;;;;;;-33.665733;-5.542924;2.1782587;;532.7
709.0;589.8;;;;;;;;;;;;;;-0.74349195;-0.49818414;-0.21356852;;;;;532.7
709.0;589.8;;;;;;;;;;;;;;;;;-30.457472;-5.4208503;1.8845179;;542.2
709.0;589.8;;;;;;;;;;;;;;-0.73317665;-0.49147007;-0.23310037;;;;;542.2
709.0;589.8;;;;;;;;;;;;;;;;;-27.233955;-5.94348;1.3809626;;542.2
709.0;589.8;;;;;;;;;;;;;;-0.7210303;-0.48237556;-0.24677266;;;;;542.2
767.0;635.2;;;;;;;;;;;;;;;;;-23.445845;-6.183813;1.0910367;;551.8
767.0;635.2;;;;;;;;;;;;;;-0.7111423;-0.4704123;-0.23877682;;;;;551.8
767.0;635.2;;;;;;;;;;;;;;;;;-19.680622;-5.996887;0.8888516;;551.8
767.0;635.2;;;;;;;;;;;;;;-0.70064396;-0.46070743;-0.23841059;;;;;551.8
767.0;635.2;;;;;;;;;;;;;;;;;-16.331219;-5.272073;0.59511095;;561.4
767.0;635.2;;;;;;;;;;;;;;-0.67989135;-0.455092;-0.23914304;;;;;561.4
767.0;635.2;;;;;;;;;;;;;;;;;-13.386182;-4.4289985;0.34714803;;561.4
767.0;635.2;;;;;;;;;;;;;;-0.6733604;-0.4528947;-0.25745416;;;;;561.4
767.0;635.2;;;;;;;;;;;;;;;;;-10.227515;-4.188666;0.095370345;;571.0
767.0;635.2;;;;;;;;;;;;;;-0.6521195;-0.45503098;-0.27405623;;;;;571.0
767.0;635.2;;;;;;;;;;;;;;;;;-7.019257;-3.5287027;-0.019074067;;571.0
767.0;635.2;;;;;;;;;;;;;;-0.6402173;-0.456679;-0.2639851;;;;;571.0
767.0;650.3;;;;;;;;;;;;;;;;;-4.6464434;-2.277444;-0.08011109;;580.7
767.0;650.3;;;;;;;;;;;;;;-0.6444899;-0.45319986;-0.23047578;;;;;580.7
767.0;650.3;;;;;;;;;;;;;;;;;-2.9641104;-1.3237404;0.038148135;;580.7
767.0;650.3;;;;;;;;;;;;;;-0.6424146;-0.4574114;-0.20679343;;;;;580.7
767.0;650.3;;;;;;;;;;;;;;;;;-0.9956664;-0.07629627;0.39674062;;590.4
767.0;650.3;;;;;;;;;;;;;;-0.6510208;-0.46498;-0.18817712;;;;;590.4
767.0;650.3;;;;;;;;;;;;;;;;;1.4572588;0.61037016;1.0872219;;590.4
767.0;650.3;;;;;;;;;;;;;;-0.6482742;-0.4730369;-0.19153416;;;;;590.4
767.0;650.3;;;;;;;;;;;;;;;;;5.371258;1.781518;2.1782587;;600.0
767.0;650.3;;;;;;;;;;;;;;-0.6583453;-0.48042238;-0.17627491;;;;;600.0
767.0;650.3;;;;;;;;;;;;;;;;;9.598072;2.5864437;3.1167028;;600.0
767.0;650.3;;;;;;;;;;;;;;-0.6745811;-0.48091066;-0.15430158;;;;;600.0
827.0;695.8;;;;;;;;;;;;;;;;;13.401441;2.639851;3.3646657;;609.6
827.0;695.8;;;;;;;;;;;;;;-0.66945404;-0.49385053;-0.14880826;;;;;609.6
827.0;695.8;;;;;;;;;;;;;;;;;17.50618;3.6011841;3.8300729;;609.6
827.0;695.8;;;;;;;;;;;;;;-0.666158;-0.50685143;-0.14709921;;;;;609.6
827.0;695.8;;;;;;;;;;;;;;;;;21.49266;5.432295;4.440443;;619.2
827.0;695.8;;;;;;;;;;;;;;-0.66438794;-0.5251015;-0.16602069;;;;;619.2
827.0;695.8;;;;;;;;;;;;;;;;;26.547289;7.0535903;5.11948;;619.2
827.0;695.8;;;;;;;;;;;;;;-0.6598712;-0.5449385;-0.19891964;;;;;619.2
827.0;695.8;;;;;;;;;;;;;;;;;33.429214;7.641072;6.2944427;;628.8
827.0;695.8;;;;;;;;;;;;;;-0.66206855;-0.56013674;-0.23169653;;;;;628.8
827.0;695.8;;;;;;;;;;;;;;;;;40.53621;7.698294;7.06122;;628.8
827.0;695.8;;;;;;;;;;;;;;-0.6535234;-0.56251717;-0.23688467;;;;;628.8
827.0;702.9;;;;;;;;;;;;;;;;;45.686207;8.48796;7.080294;;638.5
827.0;702.9;;;;;;;;;;;;;;-0.6548051;-0.55189675;-0.20923491;;;;;638.5
827.0;702.9;;;;;;;;;;;;;;;;;48.036137;9.208961;6.3859982;;638.5
827.0;702.9;;;;;;;;;;;;;;-0.67110205;-0.5213782;-0.20490128;;;;;638.5
827.0;702.9;;;;;;;;;;;;;;;;;49.76806;8.713035;5.043184;;648.0
827.0;702.9;;;;;;;;;;;;;;-0.68282115;-0.48579362;-0.18750572;;;;;648.0
827.0;702.9;;;;;;;;;;;;;;;;;50.71413;6.931516;3.711814;;648.0
827.0;702.9;;;;;;;;;;;;;;-0.6722617;-0.43800166;-0.17200232;;;;;648.0
827.0;702.9;;;;;;;;;;;;;;;;;50.618763;5.7184057;2.9793696;;657.7
827.0;702.9;;;;;;;;;;;;;;-0.6715293;-0.40101323;-0.17371136;;;;;657.7
827.0;702.9;;;;;;;;;;;;;;;;;48.486282;4.352702;2.071444;;657.7
827.0;702.9;;;;;;;;;;;;;;-0.659444;-0.35438094;-0.1915952;;;;;657.7
887.0;755.8;;;;;;;;;;;;;;;;;44.38917;2.8496659;0.98803675;;667.3
887.0;755.8;;;;;;;;;;;;;;-0.65108186;-0.32032228;-0.2196112;;;;;667.3
887.0;755.8;;;;;;;;;;;;;;;;;40.143284;1.1978515;0.13351847;;667.3
887.0;755.8;;;;;;;;;;;;;;-0.6468093;-0.28650776;-0.24457534;;;;;667.3
887.0;755.8;;;;;;;;;;;;;;;;;36.023285;-0.46540728;-0.24033326;;676.7
887.0;755.8;;;;;;;;;;;;;;-0.6424146;-0.28138065;-0.2700278;;;;;676.7
887.0;755.8;;;;;;;;;;;;;;;;;31.651508;-1.0910367;-0.41199988;;676.7
887.0;755.8;;;;;;;;;;;;;;-0.66170233;-0.26136053;-0.28754538;;;;;676.7
887.0;755.8;;;;;;;;;;;;;;;;;27.909176;-2.254555;-0.49211097;;686.3
887.0;755.8;;;;;;;;;;;;;;-0.6796472;-0.25446334;-0.2699057;;;;;686.3
887.0;755.8;;;;;;;;;;;;;;;;;24.132511;-3.2273324;-0.49592578;;686.3
887.0;755.8;;;;;;;;;;;;;;-0.6955168;-0.23786126;-0.23102511;;;;;686.3
887.0;763.3;;;;;;;;;;;;;;;;;19.539474;-3.730888;-0.46922207;;696.0
887.0;763.3;;;;;;;;;;;;;;-0.7277444;-0.21765801;-0.21814631;;;;;696.0
887.0;763.3;;;;;;;;;;;;;;;;;14.206367;-5.565813;-0.9956664;;696.0
887.0;763.3;;;;;;;;;;;;;;-0.732078;-0.19550157;-0.24762718;;;;;696.0
887.0;763.3;;;;;;;;;;;;;;;;;9.563738;-7.087924;-1.3161107;;705.6
887.0;763.3;;;;;;;;;;;;;;-0.7349467;-0.17450483;-0.28888822;;;;;705.6
887.0;763.3;;;;;;;;;;;;;;;;;6.1342206;-8.327739;-1.3084811;;705.6
887.0;763.3;;;;;;;;;;;;;;-0.74288154;-0.156621;-0.29688406;;;;;705.6
887.0;763.3;;;;;;;;;;;;;;;;;3.9597769;-8.758812;-1.453444;;715.3
887.0;763.3;;;;;;;;;;;;;;-0.76052123;-0.13531907;-0.25946838;;;;;715.3
887.0;763.3;;;;;;;;;;;;;;;;;1.373333;-8.861812;-2.1057773;;715.3
887.0;763.3;;;;;;;;;;;;;;-0.7751091;-0.122196116;-0.20960112;;;;;715.3
946.0;816.4;;;;;;;;;;;;;;;;;-2.010407;-9.239479;-2.8496659;;725.0
946.0;816.4;;;;;;;;;;;;;;-0.7918332;-0.1264687;-0.18640706;;;;;725.0
946.0;816.4;;;;;;;;;;;;;;;;;-5.203406;-11.2384405;-3.3951843;;725.0
946.0;816.4;;;;;;;;;;;;;;-0.7802362;-0.1439253;-0.19550157;;;;;725.0
946.0;816.4;;;;;;;;;;;;;;;;;-9.235664;-12.485885;-4.078036;;734.6
946.0;816.4;;;;;;;;;;;;;;-0.7853633;-0.1513718;-0.2174749;;;;;734.6
946.0;816.4;;;;;;;;;;;;;;;;;-14.324625;-14.049958;-5.2415543;;734.6
946.0;816.4;;;;;;;;;;;;;;-0.78957486;-0.15906247;-0.21948913;;;;;734.6
946.0;816.4;;;;;;;;;;;;;;;;;-20.081179;-15.617847;-6.7026277;;744.1
946.0;816.4;;;;;;;;;;;;;;-0.7909787;-0.17987609;-0.23633534;;;;;744.1
946.0;816.4;;;;;;;;;;;;;;;;;-25.593584;-17.765587;-8.10648;;744.1
946.0;816.4;;;;;;;;;;;;;;-0.77712333;-0.21851254;-0.2692343;;;;;744.1
946.0;831.0;;;;;;;;;;;;;;;;;-29.896696;-18.925291;-9.426405;;753.8
946.0;831.0;;;;;;;;;;;;;;-0.7672964;-0.25910214;-0.30176702;;;;;753.8
946.0;831.0;;;;;;;;;;;;;;;;;-31.975769;-19.890438;-10.425886;;753.8
946.0;831.0;;;;;;;;;;;;;;-0.7522202;-0.3173925;-0.31073946;;;;;753.8
946.0;831.0;;;;;;;;;;;;;;;;;-32.227547;-20.851772;-11.326181;;763.5
946.0;831.0;;;;;;;;;;;;;;-0.73555714;-0.36005738;-0.30762658;;;;;763.5
946.0;831.0;;;;;;;;;;;;;;;;;-31.178473;-21.465958;-11.947997;;763.5
946.0;831.0;;;;;;;;;;;;;;-0.71932125;-0.3869747;-0.28278452;;;;;763.5
946.0;831.0;;;;;;;;;;;;;;;;;-29.70977;-21.83218;-12.234108;;773.0
946.0;831.0;;;;;;;;;;;;;;-0.7055879;-0.4069338;-0.24341564;;;;;773.0
946.0;831.0;;;;;;;;;;;;;;;;;-28.836176;-22.373882;-12.623219;;773.0
946.0;831.0;;;;;;;;;;;;;;-0.70229197;-0.44117558;-0.23822749;;;;;773.0
1009.0;876.4;;;;;;;;;;;;;;;;;-28.798029;-23.506882;-12.9703665;;782.8
1009.0;876.4;;;;;;;;;;;;;;-0.7048555;-0.49104282;-0.2542802;;;;;782.8
1009.0;876.4;;;;;;;;;;;;;;;;;-28.725548;-25.509659;-13.523515;;782.8
1009.0;876.4;;;;;;;;;;;;;;-0.7041841;-0.5310831;-0.25397503;;;;;782.8
1009.0;876.4;;;;;;;;;;;;;;;;;-27.924437;-27.146215;-14.347514;;792.4
1009.0;876.4;;;;;;;;;;;;;;-0.72023684;-0.56501967;-0.24048586;;;;;792.4
1009.0;876.4;;;;;;;;;;;;;;;;;-25.05188;-29.07651;-15.861996;;792.4
1009.0;876.4;;;;;;;;;;;;;;-0.7372661;-0.5882748;-0.20490128;;;;;792.4
1009.0;876.4;;;;;;;;;;;;;;;;;-22.068699;-31.353954;-17.937254;;802.0
1009.0;876.4;;;;;;;;;;;;;;-0.740318;-0.6061586;-0.19446394;;;;;802.0
1009.0;876.4;;;;;;;;;;;;;;;;;-19.310587;-33.383434;-20.77166;;802.0
1009.0;876.4;;;;;;;;;;;;;;-0.74581134;-0.6097598;-0.18262276;;;;;802.0
1009.0;883.9;;;;;;;;;;;;;;;;;-16.861477;-35.897396;-24.243141;;811.7
1009.0;883.9;;;;;;;;;;;;;;-0.7527085;-0.6123234;-0.15478988;;;;;811.7
1009.0;883.9;;;;;;;;;;;;;;;;;-15.774254;-40.276802;-28.76751;;811.7
1009.0;883.9;;;;;;;;;;;;;;-0.72310555;-0.6104923;-0.1640675;;;;;811.7
1009.0;883.9;;;;;;;;;;;;;;;;;-12.745293;-44.04584;-33.82977;;821.3
1009.0;883.9;;;;;;;;;;;;;;-0.7054048;-0.58522296;-0.112735376;;;;;821.3
1009.0;883.9;;;;;;;;;;;;;;;;;-9.9642935;-47.021393;-38.922546;;821.3
1009.0;883.9;;;;;;;;;;;;;;-0.7064425;-0.560564;-0.08319346;;;;;821.3
1009.0;883.9;;;;;;;;;;;;;;;;;-8.438369;-51.87002;-45.194096;;831.0
1009.0;883.9;;;;;;;;;;;;;;-0.67067474;-0.5362713;-0.067445904;;;;;831.0
1009.0;883.9;;;;;;;;;;;;;;;;;-7.805109;-56.138798;-52.110355;;831.0
1009.0;883.9;;;;;;;;;;;;;;-0.6623127;-0.52174443;-0.042237617;;;;;831.0
1064.0;936.6;;;;;;;;;;;;;;;;;-8.384961;-61.20487;-59.99939;;840.6
1064.0;936.6;;;;;;;;;;;;;;-0.6524857;-0.52143925;-0.049684133;;;;;840.6
1064.0;936.6;;;;;;;;;;;;;;;;;-9.81933;-66.97287;-68.64757;;840.6
1064.0;936.6;;;;;;;;;;;;;;-0.6438185;-0.52790916;-0.1297647;;;;;840.6
1064.0;936.6;;;;;;;;;;;;;;;;;-8.728293;-70.11627;-77.91757;;850.3
1064.0;936.6;;;;;;;;;;;;;;-0.6812342;-0.5410932;-0.12909329;;;;;850.3
1064.0;936.6;;;;;;;;;;;;;;;;;-6.8933682;-71.51631;-87.85135;;850.3
1064.0;936.6;;;;;;;;;;;;;;-0.77913755;-0.5431074;-0.060487688;;;;;850.3
1064.0;936.6;;;;;;;;;;;;;;;;;-7.271035;-74.579605;-98.81131;;860.0
1064.0;936.6;;;;;;;;;;;;;;-0.87118137;-0.55116427;-0.030152287;;;;;860.0
1064.0;936.6;;;;;;;;;;;;;;;;;-9.365368;-76.036865;-110.19089;;860.0
1064.0;936.6;;;;;;;;;;;;;;-0.9845271;-0.5711844;-0.05285806;;;;;860.0
1064.0;937.8;;;;;;;;;;;;;;;;;-10.23896;-74.36598;-120.67781;;869.7
1064.0;937.8;;;;;;;;;;;;;;-1.1487777;-0.58461255;-0.08844264;;;;;869.7
1064.0;937.8;;;;;;;;;;;;;;;;;-9.083072;-71.920685;-124.86266;;869.7
1064.0;937.8;;;;;;;;;;;;;;-1.3529465;-0.62587357;-0.11651967;;;;;869.7
1064.0;937.8;;;;;;;;;;;;;;;;;-6.1914425;-70.20402;-124.988556;;879.2
1064.0;937.8;;;;;;;;;;;;;;-1.579638;-0.70168155;-0.15015107;;;;;879.2
1064.0;937.8;;;;;;;;;;;;;;;;;-2.750481;-69.807274;-124.988556;;879.2
1064.0;937.8;;;;;;;;;;;;;;-1.787225;-0.7323832;-0.21301919;;;;;879.2
1064.0;937.8;;;;;;;;;;;;;;;;;1.1825923;-70.242165;-124.988556;;888.9
1064.0;937.8;;;;;;;;;;;;;;-1.9551378;-0.71846676;-0.28815576;;;;;888.9
1064.0;937.8;;;;;;;;;;;;;;;;;4.3946652;-72.435684;-124.988556;;888.9
1064.0;937.8;;;;;;;;;;;;;;-1.9998169;-0.6513871;-0.3787347;;;;;888.9
1124.0;997.1;;;;;;;;;;;;;;;;;5.550554;-75.55238;-124.988556;;898.6
1124.0;997.1;;;;;;;;;;;;;;-1.9998169;-0.52015746;-0.46491897;;;;;898.6
1124.0;997.1;;;;;;;;;;;;;;;;;6.2944427;-77.77261;-124.988556;;898.6
1124.0;997.1;;;;;;;;;;;;;;-1.9998169;-0.40443128;-0.45631275;;;;;898.6
1124.0;997.1;;;;;;;;;;;;;;;;;7.087924;-82.64794;-124.988556;;908.1
1124.0;997.1;;;;;;;;;;;;;;-1.9042329;-0.3221534;-0.37220374;;;;;908.1
1124.0;997.1;;;;;;;;;;;;;;;;;7.1718497;-84.70794;-124.80544;;908.1
1124.0;997.1;;;;;;;;;;;;;;-1.7121494;-0.26880702;-0.296762;;;;;908.1
1124.0;997.1;;;;;;;;;;;;;;;;;5.5963316;-81.22501;-121.845146;;917.7
1124.0;997.1;;;;;;;;;;;;;;-1.5933714;-0.26996672;-0.24774925;;;;;917.7
1124.0;997.1;;;;;;;;;;;;;;;;;1.8921475;-78.016754;-115.836815;;917.7
1124.0;997.1;;;;;;;;;;;;;;-1.5031587;-0.27356791;-0.24542986;;;;;917.7
1124.0;997.9;;;;;;;;;;;;;;;;;-5.3178506;-76.10554;-111.38111;;927.4
1124.0;997.9;;;;;;;;;;;;;;-1.3982971;-0.15723136;-0.24207282;;;;;927.4
1124.0;997.9;;;;;;;;;;;;;;;;;-15.106662;-72.22587;-107.776115;;927.4
1124.0;997.9;;;;;;;;;;;;;;-1.342021;-0.12359996;-0.22186956;;;;;927.4
1124.0;997.9;;;;;;;;;;;;;;;;;-23.453474;-69.16638;-102.896965;;936.9
1124.0;997.9;;;;;;;;;;;;;;-1.2807398;-0.15124974;-0.18787195;;;;;936.9
1124.0;997.9;;;;;;;;;;;;;;;;;-28.653065;-63.066498;-96.72842;;936.9
1124.0;997.9;;;;;;;;;;;;;;-1.2939237;-0.22547075;-0.15332499;;;;;936.9
1124.0;997.9;;;;;;;;;;;;;;;;;-29.335918;-56.44398;-89.62523;;946.6
1124.0;997.9;;;;;;;;;;;;;;-1.3294473;-0.32667014;-0.13293862;;;;;946.6
1124.0;997.9;;;;;;;;;;;;;;;;;-28.626362;-48.371838;-82.16346;;946.6
1124.0;997.9;;;;;;;;;;;;;;-1.4222236;-0.35163426;-0.13495284;;;;;946.6
1187.0;1057.5;;;;;;;;;;;;;;;;;-30.285805;-41.840878;-76.258125;;956.2
1187.0;1057.5;;;;;;;;;;;;;;-1.4942473;-0.38837856;-0.15314189;;;;;956.2
1187.0;1057.5;;;;;;;;;;;;;;;;;-34.48973;-36.11484;-71.249275;;956.2
1187.0;1057.5;;;;;;;;;;;;;;-1.539964;-0.45496994;-0.18274483;;;;;956.2
1187.0;1057.5;;;;;;;;;;;;;;;;;-41.173283;-30.831324;-66.8508;;965.9
1187.0;1057.5;;;;;;;;;;;;;;-1.5672475;-0.5959044;-0.23926511;;;;;965.9
1187.0;1057.5;;;;;;;;;;;;;;;;;-46.681873;-26.043734;-63.276314;;965.9
1187.0;1057.5;;;;;;;;;;;;;;-1.5764642;-0.7212134;-0.28888822;;;;;965.9
1187.0;1057.5;;;;;;;;;;;;;;;;;-48.810543;-22.835474;-61.91061;;975.6
1187.0;1057.5;;;;;;;;;;;;;;-1.5322733;-0.786401;-0.28827783;;;;;975.6
1187.0;1057.5;;;;;;;;;;;;;;;;;-49.623096;-20.657215;-61.922054;;975.6
1187.0;1057.5;;;;;;;;;;;;;;-1.4386425;-0.79067355;-0.29010895;;;;;975.6
1187.0;1058.7;;;;;;;;;;;;;;;;;-49.066135;-18.84518;-62.108982;;985.1
1187.0;1058.7;;;;;;;;;;;;;;-1.3316447;-0.74544513;-0.27643666;;;;;985.1
1187.0;1058.7;;;;;;;;;;;;;;;;;-47.677544;-16.769922;-61.84576;;985.1
1187.0;1058.7;;;;;;;;;;;;;;-1.241432;-0.67690057;-0.2412183;;;;;985.1
1187.0;1058.7;;;;;;;;;;;;;;;;;-44.96902;-16.109959;-60.23209;;994.8
1187.0;1058.7;;;;;;;;;;;;;;-1.139195;-0.6120792;-0.20441298;;;;;994.8
1187.0;1058.7;;;;;;;;;;;;;;;;;-40.23484;-15.55681;-56.43635;;994.8
1187.0;1058.7;;;;;;;;;;;;;;-1.0491043;-0.57655567;-0.17011017;;;;;994.8
1187.0;1058.7;;;;;;;;;;;;;;;;;-33.680992;-14.378033;-49.939724;;1004.5
1187.0;1058.7;;;;;;;;;;;;;;-0.9887997;-0.5414594;-0.13183996;;;;;1004.5
1187.0;1058.7;;;;;;;;;;;;;;;;;-26.249733;-13.946959;-42.30247;;1004.5
1187.0;1058.7;;;;;;;;;;;;;;-0.93148595;-0.48951688;-0.09308145;;;;;1004.5
1189.0;1117.9;;;;;;;;;;;;;;;;;-19.596697;-14.343699;-34.779655;;1014.1
1189.0;1117.9;;;;;;;;;;;;;;-0.88827175;-0.43018892;-0.06372265;;;;;1014.1
1189.0;1117.9;;;;;;;;;;;;;;;;;-14.759515;-15.160069;-27.676472;;1014.1
1189.0;1117.9;;;;;;;;;;;;;;-0.8399304;-0.37623218;-0.048219245;;;;;1014.1
1189.0;1117.9;;;;;;;;;;;;;;;;;-11.482589;-15.182959;-20.996735;;1023.7
1189.0;1117.9;;;;;;;;;;;;;;-0.80776393;-0.31977293;-0.022583697;;;;;1023.7
1189.0;1117.9;;;;;;;;;;;;;;;;;-9.823145;-15.205847;-14.736626;;1023.7
1189.0;1117.9;;;;;;;;;;;;;;-0.7806635;-0.27954954;-0.0081789605;;;;;1023.7
1189.0;1117.9;;;;;;;;;;;;;;;;;-9.510331;-15.648365;-8.869442;;1033.4
1189.0;1117.9;;;;;;;;;;;;;;-0.7664418;-0.2369457;0.0114139225;;;;;1033.4
1189.0;1117.9;;;;;;;;;;;;;;;;;-10.563219;-17.223883;-3.7537766;;1033.4
1189.0;1117.9;;;;;;;;;;;;;;-0.7467269;-0.21179846;0.029541917;;;;;1033.4
1189.0;1118.7;;;;;;;;;;;;;;;;;-12.276071;-18.35307;1.1482589;;1042.9
1189.0;1118.7;;;;;;;;;;;;;;-0.7228004;-0.20203254;0.045777764;;;;;1042.9
1189.0;1118.7;;;;;;;;;;;;;;;;;-13.969848;-18.82229;5.897702;;1042.9
1189.0;1118.7;;;;;;;;;;;;;;-0.6999725;-0.18463698;0.06494339;;;;;1042.9
1189.0;1118.7;;;;;;;;;;;;;;;;;-15.575884;-18.7727;10.536515;;1052.6
1189.0;1118.7;;;;;;;;;;;;;;-0.6732994;-0.15112767;0.08032472;;;;;1052.6
1189.0;1118.7;;;;;;;;;;;;;;;;;-16.956846;-17.853329;15.388958;;1052.6
1189.0;1118.7;;;;;;;;;;;;;;-0.65181434;-0.11719108;0.0992462;;;;;1052.6
1189.0;1118.7;;;;;;;;;;;;;;;;;-17.983032;-16.777552;20.15366;;1062.2
1189.0;1118.7;;;;;;;;;;;;;;-0.6405835;-0.097048864;0.107608266;;;;;1062.2
1189.0;1118.7;;;;;;;;;;;;;;;;;-17.921995;-16.193884;25.440992;;1062.2
1189.0;1118.7;;;;;;;;;;;;;;-0.63386947;-0.08160649;0.11346782;;;;;1062.2
1247.0;1129.7;;;;0.0;0.0;0.0;;;;;;;;;;;;;;;
1247.0;1129.7;;;;-0.2651215;-0.029953007;7.8964245E-4;;;;;;;;;;;;;;;
1247.0;1129.7;;;;-0.76693356;-0.11929323;-0.061237343;;;;;;;;;;;;;;;
1247.0;1129.7;;;;-0.77769864;-0.12775423;-0.07484055;;;;;;;;;;;;;;;
1247.0;1129.7;;;;-0.7718698;-0.13024522;-0.07687379;;;;;;;;;;;;;;;
1247.0;1139.7;;;;-0.7656747;-0.13283159;-0.07965089;;;;;;;;;;;;;;;
1247.0;1139.7;;;;-0.7584535;-0.1351433;-0.081794746;;;;;;;;;;;;;;;
1247.0;1139.7;;;;-0.75154126;-0.13605501;-0.08435822;;;;;;;;;;;;;;;
1247.0;1139.7;;;;-0.7448235;-0.13679506;-0.087177284;;;;;;;;;;;;;;;
1247.0;1139.7;;;;-0.73894125;-0.13648607;-0.089931495;;;;;;;;;;;;;;;
1247.0;1141.0;57531;57455;13057;;;;;;;;;;;;;;;;;;
1247.0;1149.7;;;;-0.73403174;-0.13589479;-0.09323884;;;;;;;;;;;;;;;
1247.0;1149.7;;;;-0.7304078;-0.13583757;-0.095748916;;;;;;;;;;;;;;;
1247.0;1149.7;;;;-0.72735983;-0.13570406;-0.098484054;;;;;;;;;;;;;;;
1247.0;1149.7;;;;-0.72456366;-0.13530733;-0.10185625;;;;;;;;;;;;;;;
1247.0;1149.7;;;;-0.72134787;-0.1358986;-0.10414125;;;;;;;;;;;;;;;
1249.0;1159.8;;;;-0.7172356;-0.13634111;-0.10630037;;;;;;;;;;;;;;;
1249.0;1159.8;;;;-0.712864;-0.13749315;-0.10917665;;;;;;;;;;;;;;;
1249.0;1159.8;;;;-0.70812994;-0.1392975;-0.112266555;;;;;;;;;;;;;;;
1249.0;1159.8;;;;-0.7040139;-0.14166643;-0.1148987;;;;;;;;;;;;;;;
1249.0;1159.8;;;;-0.69990927;-0.14413835;-0.11822893;;;;;;;;;;;;;;;
1249.0;1161.1;73857;73877;13047;;;;;;;;;;;;;;;;;;
1249.0;1167.5;;;;;;;;;;;;;0;;;;;;;;
1249.0;1167.5;;;;;;;;;;;;;0;;;;;;;;
1249.0;1167.5;;;;;;;;;;;;;-1;;;;;;;;
1249.0;1167.5;;;;;;;;;;;;;-2;;;;;;;;
1249.0;1167.5;;;;;;;;;;;;;-3;;;;;;;;
1249.0;1169.9;;;;-0.69707114;-0.14646532;-0.12244798;;;;;;;;;;;;;;;
1249.0;1169.9;;;;-0.69520956;-0.14847185;-0.12556078;;;;;;;;;;;;;;;
1249.0;1169.9;;;;-0.69359976;-0.1492386;-0.1281891;;;;;;;;;;;;;;;
1249.0;1169.9;;;;-0.6913071;-0.14946748;-0.12997438;;;;;;;;;;;;;;;
1249.0;1169.9;;;;-0.68827826;-0.14977266;-0.1312256;;;;;;;;;;;;;;;
1250.0;1178.3;;;;;;;;;;;;;;;;;-17.136143;-16.529589;30.377361;;1071.9
1250.0;1178.3;;;;;;;;;;;;;;-0.633137;-0.08740501;0.12909329;;;;;1071.9
1250.0;1178.3;;;;;;;;;;;;;;;;;-16.21296;-17.738884;35.00473;;1071.9
1250.0;1178.3;;;;;;;;;;;;;;-0.6295358;-0.08819849;0.14154485;;;;;1071.9
1250.0;1178.3;;;;;;;;;;;;;;;;;-15.869625;-19.093143;39.128544;;1081.6
1250.0;1178.3;;;;;;;;;;;;;;-0.61488694;-0.09955138;0.14300974;;;;;1081.6
1250.0;1178.3;;;;;;;;;;;;;;;;;-16.28544;-19.848475;42.687767;;1081.6
1250.0;1178.3;;;;;;;;;;;;;;-0.59706414;-0.11627552;0.12939848;;;;;1081.6
1250.0;1178.3;;;;;;;;;;;;;;;;;-17.49855;-20.195623;45.819725;;1090.9
1250.0;1178.3;;;;;;;;;;;;;;-0.5684988;-0.13751641;0.106631674;;;;;1090.9
1250.0;1178.3;;;;;;;;;;;;;;;;;-19.348736;-19.56618;48.589283;;1090.9
1250.0;1178.3;;;;;;;;;;;;;;-0.54121524;-0.1551561;0.08386487;;;;;1090.9
1250.0;1179.1;;;;;;;;;;;;;;;;;-22.476881;-18.597218;50.794243;;1100.6
1250.0;1179.1;;;;;;;;;;;;;;-0.50776696;-0.16589862;0.06750695;;;;;1100.6
1250.0;1179.1;;;;;;;;;;;;;;;;;-27.8634;-16.529589;52.312542;;1100.6
1250.0;1179.1;;;;;;;;;;;;;;-0.4710837;-0.1495407;0.016296884;;;;;1100.6
1250.0;1179.1;;;;;;;;;;;;;;;;;-35.229805;-14.198736;53.147984;;1110.3
1250.0;1179.1;;;;;;;;;;;;;;-0.4477676;-0.109073155;-0.01904355;;;;;1110.3
1250.0;1179.1;;;;;;;;;;;;;;;;;-44.85076;-12.310404;53.426468;;1110.3
1250.0;1179.1;;;;;;;;;;;;;;-0.42817467;-0.06878872;-0.04651021;;;;;1110.3
1250.0;1179.1;;;;;;;;;;;;;;;;;-55.68102;-10.66622;53.491318;;1119.9
1250.0;1179.1;;;;;;;;;;;;;;-0.42103335;-0.021729179;-0.064638205;;;;;1119.9
1250.0;1179.1;;;;;;;;;;;;;;;;;-67.476425;-9.23185;53.659172;;1119.9
1250.0;1179.1;;;;;;;;;;;;;;-0.43244728;0.019409772;-0.08239998;;;;;1119.9
1305.0;1179.9;;;;-0.6833382;-0.1488495;-0.13207246;;;;;;;;;;;;;;;
1305.0;1179.9;;;;-0.67916113;-0.14658357;-0.12965395;;;;;;;;;;;;;;;
1305.0;1179.9;;;;-0.6766167;-0.14518358;-0.13183977;;;;;;;;;;;;;;;
1305.0;1179.9;;;;-0.67633444;-0.1431389;-0.13270952;;;;;;;;;;;;;;;
1305.0;1179.9;;;;-0.67716604;-0.14136125;-0.13315202;;;;;;;;;;;;;;;
1305.0;1181.3;90272;90309;13049;;;;;;;;;;;;;;;;;;
1305.0;1190.0;;;;-0.67820746;-0.14028932;-0.1342354;;;;;;;;;;;;;;;
1305.0;1190.0;;;;-0.680275;-0.1391411;-0.13593294;;;;;;;;;;;;;;;
1305.0;1190.0;;;;-0.6821862;-0.1384926;-0.1382866;;;;;;;;;;;;;;;
1305.0;1190.0;;;;-0.68296057;-0.13768388;-0.14061739;;;;;;;;;;;;;;;
1305.0;1190.0;;;;-0.68357474;-0.13757326;-0.14354707;;;;;;;;;;;;;;;
1305.0;1200.0;;;;-0.68407446;-0.13707735;-0.14529039;;;;;;;;;;;;;;;
1305.0;1200.0;;;;-0.6840859;-0.13782121;-0.14779665;;;;;;;;;;;;;;;
1305.0;1200.0;;;;-0.6851731;-0.1377907;-0.14899828;;;;;;;;;;;;;;;
1305.0;1200.0;;;;-0.6861573;-0.1382065;-0.14937212;;;;;;;;;;;;;;;
1305.0;1200.0;;;;-0.6870995;-0.1386757;-0.14931108;;;;;;;;;;;;;;;
1305.0;1201.4;106628;106599;13054;;;;;;;;;;;;;;;;;;
1305.0;1207.6;;;;;;;;;;;;;-7;;;;;;;;
1305.0;1207.6;;;;;;;;;;;;;-6;;;;;;;;
1305.0;1207.6;;;;;;;;;;;;;-8;;;;;;;;
1305.0;1207.6;;;;;;;;;;;;;-18;;;;;;;;
1305.0;1207.6;;;;;;;;;;;;;-11;;;;;;;;
1308.0;1209.7;;;;-0.6869088;-0.13855363;-0.14950944;;;;;;;;;;;;;;;
1308.0;1209.7;;;;-0.6858559;-0.1384392;-0.15034105;;;;;;;;;;;;;;;
1308.0;1209.7;;;;-0.68436056;-0.1377907;-0.15111162;;;;;;;;;;;;;;;
1308.0;1209.7;;;;-0.6824723;-0.13726808;-0.15138628;;;;;;;;;;;;;;;
1308.0;1209.7;;;;-0.68134695;-0.13668443;-0.15406801;;;;;;;;;;;;;;;
1308.0;1219.7;;;;-0.6811715;-0.13604356;-0.15708162;;;;;;;;;;;;;;;
1308.0;1219.7;;;;-0.6847077;-0.1361046;-0.15941621;;;;;;;;;;;;;;;
1308.0;1219.7;;;;-0.69053656;-0.1364937;-0.16024019;;;;;;;;;;;;;;;
1308.0;1219.7;;;;-0.69696814;-0.13658144;-0.16246034;;;;;;;;;;;;;;;
1308.0;1219.7;;;;-0.70379645;-0.1369362;-0.16484453;;;;;;;;;;;;;;;
1308.0;1221.2;123088;123132;13054;;;;;;;;;;;;;;;;;;
1308.0;1229.8;;;;-0.7111245;-0.13692476;-0.16758348;;;;;;;;;;;;;;;
1308.0;1229.8;;;;-0.7192536;-0.13635255;-0.16968156;;;;;;;;;;;;;;;
1308.0;1229.8;;;;-0.7281609;-0.1355095;-0.17283632;;;;;;;;;;;;;;;
1308.0;1229.8;;;;-0.7389603;-0.13351442;-0.17538454;;;;;;;;;;;;;;;
1308.0;1229.8;;;;-0.7483483;-0.13109972;-0.17845537;;;;;;;;;;;;;;;
1311.0;1238.4;;;;;;;;;;;;;;;;;-80.26368;-8.2819605;54.34965;;1129.6
1311.0;1238.4;;;;;;;;;;;;;;-0.45057526;0.02478103;-0.1098056;;;;;1129.6
1311.0;1238.4;;;;;;;;;;;;;;;;;-93.199715;-6.653035;56.478317;;1129.6
1311.0;1238.4;;;;;;;;;;;;;;-0.47706535;-0.0022583697;-0.15710929;;;;;1129.6
1311.0;1238.4;;;;;;;;;;;;;;;;;-105.14771;-4.5968504;60.186314;;1139.2
1311.0;1238.4;;;;;;;;;;;;;;-0.5058748;-0.052186653;-0.20587787;;;;;1139.2
1311.0;1238.4;;;;;;;;;;;;;;;;;-114.471115;-3.6736658;64.79842;;1139.2
1311.0;1238.4;;;;;;;;;;;;;;-0.5307169;-0.136845;-0.24182867;;;;;1139.2
1311.0;1238.4;;;;;;;;;;;;;;;;;-119.960625;-3.5096285;70.25361;;1148.7
1311.0;1238.4;;;;;;;;;;;;;;-0.5647145;-0.22400586;-0.27393416;;;;;1148.7
1311.0;1238.4;;;;;;;;;;;;;;;;;-121.09363;-4.3565173;75.19761;;1148.7
1311.0;1238.4;;;;;;;;;;;;;;-0.6171453;-0.2842494;-0.2779626;;;;;1148.7
1311.0;1239.2;;;;;;;;;;;;;;;;;-119.36171;-7.6029234;79.87075;;1158.4
1311.0;1239.2;;;;;;;;;;;;;;-0.6801965;-0.3507187;-0.2874233;;;;;1158.4
1311.0;1239.2;;;;;;;;;;;;;;;;;-114.16975;-12.451551;84.66979;;1158.4
1311.0;1239.2;;;;;;;;;;;;;;-0.7482528;-0.41199988;-0.27826777;;;;;1158.4
1311.0;1239.2;;;;;;;;;;;;;;;;;-104.70519;-19.76455;89.026306;;1168.1
1311.0;1239.2;;;;;;;;;;;;;;-0.77602464;-0.46803185;-0.2578814;;;;;1168.1
1311.0;1239.2;;;;;;;;;;;;;;;;;-91.07486;-27.241585;91.94083;;1168.1
1311.0;1239.2;;;;;;;;;;;;;;-0.8021485;-0.5199133;-0.22003846;;;;;1168.1
1311.0;1239.2;;;;;;;;;;;;;;;;;-74.377426;-34.253212;92.82586;;1177.7
1311.0;1239.2;;;;;;;;;;;;;;-0.8319346;-0.565447;-0.16241951;;;;;1177.7
1311.0;1239.2;;;;;;;;;;;;;;;;;-56.51265;-40.444653;91.26942;;1177.7
1311.0;1239.2;;;;;;;;;;;;;;-0.86519974;-0.5978576;-0.0783105;;;;;1177.7
1367.0;1239.8;;;;-0.7562181;-0.1293297;-0.18122865;;;;;;;;;;;;;;;
1367.0;1239.8;;;;-0.7646333;-0.12711336;-0.1853943;;;;;;;;;;;;;;;
1367.0;1239.8;;;;-0.77595913;-0.12435533;-0.18856052;;;;;;;;;;;;;;;
1367.0;1239.8;;;;-0.78803265;-0.121597305;-0.19086841;;;;;;;;;;;;;;;
1367.0;1239.8;;;;-0.8016015;-0.118438736;-0.19300082;;;;;;;;;;;;;;;
1367.0;1241.4;139450;139479;13041;;;;;;;;;;;;;;;;;;
1367.0;1247.7;;;;;;;;;;;;;-31;;;;;;;;
1367.0;1247.7;;;;;;;;;;;;;-22;;;;;;;;
1367.0;1247.7;;;;;;;;;;;;;-8;;;;;;;;
1367.0;1247.7;;;;;;;;;;;;;-110;;;;;;;;
1367.0;1247.7;;;;;;;;;;;;;43;;;;;;;;
1367.0;1249.9;;;;-0.81573117;-0.1151848;-0.19601825;;;;;;;;;;;;;;;
1367.0;1249.9;;;;-0.8292924;-0.11193468;-0.19934085;;;;;;;;;;;;;;;
1367.0;1249.9;;;;-0.84318554;-0.10878755;-0.2004433;;;;;;;;;;;;;;;
1367.0;1249.9;;;;-0.8548356;-0.10569002;-0.20064929;;;;;;;;;;;;;;;
1367.0;1249.9;;;;-0.86748517;-0.103080764;-0.20316699;;;;;;;;;;;;;;;
1367.0;1259.9;;;;-0.8812181;-0.10050203;-0.20622256;;;;;;;;;;;;;;;
1367.0;1259.9;;;;-0.8952447;-0.09809877;-0.2085152;;;;;;;;;;;;;;;
1367.0;1259.9;;;;-0.90656674;-0.09512712;-0.20832446;;;;;;;;;;;;;;;
1367.0;1259.9;;;;-0.9153749;-0.09261704;-0.21012118;;;;;;;;;;;;;;;
1367.0;1259.9;;;;-0.9241029;-0.089378364;-0.21136859;;;;;;;;;;;;;;;
1367.0;1261.5;155884;155789;13049;;;;;;;;;;;;;;;;;;
1370.0;1269.9;;;;-0.9319993;-0.08577729;-0.21309283;;;;;;;;;;;;;;;
1370.0;1269.9;;;;-0.9403039;-0.081314094;-0.21285251;;;;;;;;;;;;;;;
1370.0;1269.9;;;;-0.9476205;-0.07690049;-0.21277621;;;;;;;;;;;;;;;
1370.0;1269.9;;;;-0.9546548;-0.0733223;-0.2120705;;;;;;;;;;;;;;;
1370.0;1269.9;;;;-0.9630395;-0.069278724;-0.21116641;;;;;;;;;;;;;;;
1370.0;1280.0;;;;-0.97114193;-0.06546784;-0.21165088;;;;;;;;;;;;;;;
1370.0;1280.0;;;;-0.9772111;-0.061492927;-0.20874026;;;;;;;;;;;;;;;
1370.0;1280.0;;;;-0.983925;-0.057666786;-0.20603564;;;;;;;;;;;;;;;
1370.0;1280.0;;;;-0.99131405;-0.054756172;-0.2037125;;;;;;;;;;;;;;;
1370.0;1280.0;;;;-0.9949609;-0.053489693;-0.20161822;;;;;;;;;;;;;;;
1370.0;1281.6;172254;172135;13051;;;;;;;;;;;;;;;;;;
1370.0;1288.0;;;;;;;;;;;;;231;;;;;;;;
1370.0;1288.0;;;;;;;;;;;;;-214;;;;;;;;
1370.0;1288.0;;;;;;;;;;;;;-577;;;;;;;;
1370.0;1288.0;;;;;;;;;;;;;519;;;;;;;;
1370.0;1288.0;;;;;;;;;;;;;3053;;;;;;;;
1370.0;1290.1;;;;-0.99461377;-0.053207405;-0.19933704;;;;;;;;;;;;;;;
1370.0;1290.1;;;;-0.99172604;-0.051345833;-0.19541171;;;;;;;;;;;;;;;
1370.0;1290.1;;;;-0.9896585;-0.049327858;-0.19126132;;;;;;;;;;;;;;;
1370.0;1290.1;;;;-0.98752606;-0.047840126;-0.18925098;;;;;;;;;;;;;;;
1370.0;1290.1;;;;-0.9854394;-0.045696262;-0.18657304;;;;;;;;;;;;;;;
1372.0;1300.2;;;;-0.98212826;-0.044311527;-0.18324663;;;;;;;;;;;;;;;
1372.0;1300.2;;;;-0.9781419;-0.04322434;-0.18061449;;;;;;;;;;;;;;;
1372.0;1300.2;;;;-0.97399914;-0.042465214;-0.17927553;;;;;;;;;;;;;;;
1372.0;1300.2;;;;-0.968876;-0.041973118;-0.17669298;;;;;;;;;;;;;;;
1372.0;1300.2;;;;-0.9628869;-0.04118729;-0.17580797;;;;;;;;;;;;;;;
1372.0;1301.9;188586;188599;13059;;;;;;;;;;;;;;;;;;
1372.0;1306.2;;;;;;;;;;;;;;;;;-41.75695;-44.339577;86.98538;;1187.4
1372.0;1306.2;;;;;;;;;;;;;;-0.8708762;-0.60786766;-0.009094516;;;;;1187.4
1372.0;1306.2;;;;;;;;;;;;;;;;;-33.60851;-43.38969;80.702385;;1187.4
1372.0;1306.2;;;;;;;;;;;;;;-0.84939116;-0.6295358;-0.014099551;;;;;1187.4
1372.0;1306.2;;;;;;;;;;;;;;;;;-28.90103;-37.89636;73.67931;;1197.0
1372.0;1306.2;;;;;;;;;;;;;;-0.8543351;-0.63222146;-0.02764977;;;;;1197.0
1372.0;1306.2;;;;;;;;;;;;;;;;;-28.47377;-31.632435;66.48076;;1197.0
1372.0;1306.2;;;;;;;;;;;;;;-0.8344981;-0.6476028;-0.03234962;;;;;1197.0
1372.0;1306.2;;;;;;;;;;;;;;;;;-33.833584;-23.7434;59.739983;;1206.7
1372.0;1306.2;;;;;;;;;;;;;;-0.81209755;-0.6585284;-0.059755243;;;;;1206.7
1372.0;1306.2;;;;;;;;;;;;;;;;;-43.64147;-16.106144;52.69021;;1206.7
1372.0;1306.2;;;;;;;;;;;;;;-0.79805905;-0.6949065;-0.06762902;;;;;1206.7
1373.0;1307.1;;;;;;;;;;;;;;;;;-57.149723;-10.03296;44.198433;;1216.3
1373.0;1307.1;;;;;;;;;;;;;;-0.7306131;-0.7644276;-0.096804716;;;;;1216.3
1373.0;1307.1;;;;;;;;;;;;;;;;;-71.09668;-0.49592578;36.76336;;1216.3
1373.0;1307.1;;;;;;;;;;;;;;-0.69862974;-0.81588185;-0.14563432;;;;;1216.3
1373.0;1307.1;;;;;;;;;;;;;;;;;-82.14819;10.433516;30.365917;;1225.9
1373.0;1307.1;;;;;;;;;;;;;;-0.6978362;-0.83120215;-0.17255165;;;;;1225.9
1373.0;1307.1;;;;;;;;;;;;;;;;;-92.55501;20.809809;23.930326;;1225.9
1373.0;1307.1;;;;;;;;;;;;;;-0.6720176;-0.86806846;-0.20581684;;;;;1225.9
1373.0;1307.1;;;;;;;;;;;;;;;;;-100.64241;28.801844;19.421217;;1235.6
1373.0;1307.1;;;;;;;;;;;;;;-0.6273995;-0.9300821;-0.26935637;;;;;1235.6
1373.0;1307.1;;;;;;;;;;;;;;;;;-102.65663;35.439617;17.979218;;1235.6
1373.0;1307.1;;;;;;;;;;;;;;-0.59974974;-0.9576708;-0.32691428;;;;;1235.6
1373.0;1310.1;;;;-0.9565774;-0.040580753;-0.17627718;;;;;;;;;;;;;;;
1373.0;1310.1;;;;-0.95063794;-0.039264683;-0.17558672;;;;;;;;;;;;;;;
1373.0;1310.1;;;;-0.9455644;-0.038825992;-0.17557527;;;;;;;;;;;;;;;
1373.0;1310.1;;;;-0.94087994;-0.03808594;-0.1751938;;;;;;;;;;;;;;;
1373.0;1310.1;;;;-0.9366685;-0.036743168;-0.17461778;;;;;;;;;;;;;;;
1374.0;1314.0;;;;;;;;;;;;;;;;;-97.99112;40.42558;18.665884;;1245.3
1374.0;1314.0;;;;;;;;;;;;;;-0.64461195;-0.9863582;-0.32721946;;;;;1245.3
1374.0;1314.0;;;;;;;;;;;;;;;;;-88.97671;40.398876;19.489883;;1245.3
1374.0;1314.0;;;;;;;;;;;;;;-0.6664632;-0.97451705;-0.29145175;;;;;1245.3
1374.0;1314.0;;;;;;;;;;;;;;;;;-80.267494;37.827694;20.15366;;1254.9
1374.0;1314.0;;;;;;;;;;;;;;-0.69985044;-0.93722343;-0.25214392;;;;;1254.9
1374.0;1314.0;;;;;;;;;;;;;;;;;-73.358864;33.875546;20.115513;;1254.9
1374.0;1314.0;;;;;;;;;;;;;;-0.71303445;-0.8942534;-0.19190039;;;;;1254.9
1374.0;1314.0;;;;;;;;;;;;;;;;;-68.55983;28.595844;19.127476;;1264.6
1374.0;1314.0;;;;;;;;;;;;;;-0.720481;-0.8429823;-0.15314189;;;;;1264.6
1374.0;1314.0;;;;;;;;;;;;;;;;;-64.18043;22.995697;17.723623;;1264.6
1374.0;1314.0;;;;;;;;;;;;;;-0.73464155;-0.7923826;-0.088015385;;;;;1264.6
1374.0;1320.0;;;;-0.9331285;-0.03590012;-0.17453004;;;;;;;;;;;;;;;
1374.0;1320.0;;;;-0.93058026;-0.03540421;-0.1739235;;;;;;;;;;;;;;;
1374.0;1320.0;;;;-0.9285394;-0.035041813;-0.17222978;;;;;;;;;;;;;;;
1374.0;1320.0;;;;-0.9273912;-0.035636906;-0.17134096;;;;;;;;;;;;;;;
1374.0;1320.0;;;;-0.92595685;-0.036106113;-0.17029192;;;;;;;;;;;;;;;
1374.0;1321.7;204981;204910;13048;;;;;;;;;;;;;;;;;;
1374.0;1328.0;;;;;;;;;;;;;5111;;;;;;;;
1374.0;1328.0;;;;;;;;;;;;;5159;;;;;;;;
1374.0;1328.0;;;;;;;;;;;;;3938;;;;;;;;
1374.0;1328.0;;;;;;;;;;;;;3204;;;;;;;;
1374.0;1328.0;;;;;;;;;;;;;3349;;;;;;;;
1425.0;1330.0;;;;-0.9237901;-0.03713608;-0.16970445;;;;;;;;;;;;;;;
1425.0;1330.0;;;;-0.92167294;-0.03871155;-0.16910173;;;;;;;;;;;;;;;
1425.0;1330.0;;;;-0.9199487;-0.040775303;-0.16952516;;;;;;;;;;;;;;;
1425.0;1330.0;;;;-0.9186708;-0.043235783;-0.17036821;;;;;;;;;;;;;;;
1425.0;1330.0;;;;-0.91685116;-0.045375828;-0.17070772;;;;;;;;;;;;;;;
1425.0;1339.9;;;;-0.91523755;-0.048393257;-0.17152025;;;;;;;;;;;;;;;
1425.0;1339.9;;;;-0.9132501;-0.051162727;-0.17206575;;;;;;;;;;;;;;;
1425.0;1339.9;;;;-0.910782;-0.054378517;-0.17424013;;;;;;;;;;;;;;;
1425.0;1339.9;;;;-0.90799344;-0.057891853;-0.17555238;;;;;;;;;;;;;;;
1425.0;1339.9;;;;-0.9048654;-0.061485298;-0.17664339;;;;;;;;;;;;;;;
1425.0;1341.7;221427;221333;13059;;;;;;;;;;;;;;;;;;
1425.0;1350.0;;;;-0.9019929;-0.06488801;-0.17882158;;;;;;;;;;;;;;;
1425.0;1350.0;;;;-0.89994824;-0.06873704;-0.18152238;;;;;;;;;;;;;;;
1425.0;1350.0;;;;-0.8986589;-0.073242195;-0.18561174;;;;;;;;;;;;;;;
1425.0;1350.0;;;;-0.8977395;-0.078170784;-0.19068149;;;;;;;;;;;;;;;
1425.0;1350.0;;;;-0.8974229;-0.08396531;-0.19615558;;;;;;;;;;;;;;;
1427.0;1358.8;;;;;;;;;;;;;;;;;-59.69039;17.69692;16.354107;;1274.2
1427.0;1358.8;;;;;;;;;;;;;;-0.73397017;-0.74019593;-0.017151402;;;;;1274.2
1427.0;1358.8;;;;;;;;;;;;;;;;;-54.89517;14.957885;15.66744;;1274.2
1427.0;1358.8;;;;;;;;;;;;;;-0.7292703;-0.69569993;0.05444502;;;;;1274.2
1427.0;1358.8;;;;;;;;;;;;;;;;;-49.806206;14.790033;15.75518;;1283.7
1427.0;1358.8;;;;;;;;;;;;;;-0.7523423;-0.65883356;0.109866634;;;;;1283.7
1427.0;1358.8;;;;;;;;;;;;;;;;;-45.491653;15.362254;15.957365;;1283.7
1427.0;1358.8;;;;;;;;;;;;;;-0.78328806;-0.62611777;0.1521653;;;;;1283.7
1427.0;1358.8;;;;;;;;;;;;;;;;;-41.837063;16.556292;15.934477;;1293.4
1427.0;1358.8;;;;;;;;;;;;;;-0.8176519;-0.5913877;0.2029481;;;;;1293.4
1427.0;1358.8;;;;;;;;;;;;;;;;;-38.533436;18.360699;15.484328;;1293.4
1427.0;1358.8;;;;;;;;;;;;;;-0.8393811;-0.54231393;0.24842067;;;;;1293.4
1427.0;1360.0;;;;-0.8977243;-0.09091569;-0.20301059;;;;;;;;;;;;;;;
1427.0;1360.0;;;;-0.8990327;-0.098281875;-0.20991138;;;;;;;;;;;;;;;
1427.0;1360.0;;;;-0.90081036;-0.10643007;-0.21683887;;;;;;;;;;;;;;;
1427.0;1360.0;;;;-0.9047471;-0.1152115;-0.22523883;;;;;;;;;;;;;;;
1427.0;1360.0;;;;-0.9138299;-0.12249376;-0.23433688;;;;;;;;;;;;;;;
1427.0;1361.9;237806;237735;13072;;;;;;;;;;;;;;;;;;
1427.0;1368.2;;;;;;;;;;;;;3025;;;;;;;;
1427.0;1368.2;;;;;;;;;;;;;1825;;;;;;;;
1427.0;1368.2;;;;;;;;;;;;;585;;;;;;;;
1427.0;1368.2;;;;;;;;;;;;;-348;;;;;;;;
1427.0;1368.2;;;;;;;;;;;;;-1029;;;;;;;;
1486.0;1370.1;;;;-0.9242784;-0.13054277;-0.24489215;;;;;;;;;;;;;;;
1486.0;1370.1;;;;-0.9362184;-0.13835527;-0.25565723;;;;;;;;;;;;;;;
1486.0;1370.1;;;;-0.9543458;-0.14367296;-0.26597598;;;;;;;;;;;;;;;
1486.0;1370.1;;;;-0.9748956;-0.14670564;-0.2744713;;;;;;;;;;;;;;;
1486.0;1370.1;;;;-0.9963037;-0.1474724;-0.28237537;;;;;;;;;;;;;;;
1486.0;1373.9;;;;;;;;;;;;;;;;;-37.717064;22.457808;14.4047365;;1303.1
1486.0;1373.9;;;;;;;;;;;;;;-0.8385876;-0.50483716;0.20734276;;;;;1303.1
1486.0;1373.9;;;;;;;;;;;;;;;;;-36.81677;27.26066;13.523515;;1303.1
1486.0;1373.9;;;;;;;;;;;;;;-0.8687399;-0.46009704;0.20929594;;;;;1303.1
1486.0;1373.9;;;;;;;;;;;;;;;;;-37.20588;29.881437;12.470626;;1312.7
1486.0;1373.9;;;;;;;;;;;;;;-0.93868834;-0.40668964;0.25251016;;;;;1312.7
1486.0;1373.9;;;;;;;;;;;;;;;;;-40.025024;29.7174;10.563219;;1312.7
1486.0;1373.9;;;;;;;;;;;;;;-1.0279855;-0.372631;0.32935575;;;;;1312.7
1486.0;1373.9;;;;;;;;;;;;;;;;;-42.924286;29.854733;8.159886;;1322.2
1486.0;1373.9;;;;;;;;;;;;;;-1.1379131;-0.34876552;0.4032716;;;;;1322.2
1486.0;1373.9;;;;;;;;;;;;;;;;;-44.694355;35.473953;7.457961;;1322.2
1486.0;1373.9;;;;;;;;;;;;;;-1.2625507;-0.31452376;0.25855282;;;;;1322.2
1486.0;1380.1;;;;-1.0192224;-0.14568712;-0.29337695;;;;;;;;;;;;;;;
1486.0;1380.1;;;;-1.0434686;-0.14279939;-0.30495074;;;;;;;;;;;;;;;
1486.0;1380.1;;;;-1.0678903;-0.13887407;-0.31657413;;;;;;;;;;;;;;;
1486.0;1380.1;;;;-1.0909158;-0.13561632;-0.32829288;;;;;;;;;;;;;;;
1486.0;1380.1;;;;-1.1140672;-0.13301088;-0.34027484;;;;;;;;;;;;;;;
1486.0;1382.0;254169;254117;13068;;;;;;;;;;;;;;;;;;
1488.0;1390.1;;;;-1.1377717;-0.13002779;-0.35145953;;;;;;;;;;;;;;;
1488.0;1390.1;;;;-1.161522;-0.12730409;-0.36235812;;;;;;;;;;;;;;;
1488.0;1390.1;;;;-1.1828729;-0.12614061;-0.37282947;;;;;;;;;;;;;;;
1488.0;1390.1;;;;-1.2040025;-0.124992386;-0.38297278;;;;;;;;;;;;;;;
1488.0;1390.1;;;;-1.2236215;-0.124561325;-0.39117438;;;;;;;;;;;;;;;
1488.0;1400.2;;;;-1.2413789;-0.12382509;-0.39786154;;;;;;;;;;;;;;;
1488.0;1400.2;;;;-1.2546464;-0.122173324;-0.40238196;;;;;;;;;;;;;;;
1488.0;1400.2;;;;-1.2635728;-0.12042238;-0.40647513;;;;;;;;;;;;;;;
1488.0;1400.2;;;;-1.2676431;-0.118179336;-0.40911108;;;;;;;;;;;;;;;
1488.0;1400.2;;;;-1.2695276;-0.11600496;-0.41158682;;;;;;;;;;;;;;;
1488.0;1402.2;262143;262143;13068;;;;;;;;;;;;;;;;;;
1488.0;1408.4;;;;;;;;;;;;;-1766;;;;;;;;
1488.0;1408.4;;;;;;;;;;;;;-2621;;;;;;;;
1488.0;1408.4;;;;;;;;;;;;;-3094;;;;;;;;
1488.0;1408.4;;;;;;;;;;;;;-2945;;;;;;;;
1488.0;1408.4;;;;;;;;;;;;;-2454;;;;;;;;
1488.0;1410.3;;;;-1.26997;-0.11310579;-0.41489035;;;;;;;;;;;;;;;
1488.0;1410.3;;;;-1.2676393;-0.11065294;-0.41755682;;;;;;;;;;;;;;;
1488.0;1410.3;;;;-1.2623254;-0.10803987;-0.41897207;;;;;;;;;;;;;;;
1488.0;1410.3;;;;-1.2542497;-0.105655685;-0.42020422;;;;;;;;;;;;;;;
1488.0;1410.3;;;;-1.2445909;-0.10391237;-0.4214173;;;;;;;;;;;;;;;
1489.0;1419.2;;;;;;;;;;;;;;;;;-45.915096;46.93365;9.582812;;1331.9
1489.0;1419.2;;;;;;;;;;;;;;-1.4202704;-0.30085146;-0.09027375;;;;;1331.9
1489.0;1419.2;;;;;;;;;;;;;;;;;-52.148502;51.0918;11.604663;;1331.9
1489.0;1419.2;;;;;;;;;;;;;;-1.7519455;-0.3916135;-0.354503;;;;;1331.9
1489.0;1419.2;;;;;;;;;;;;;;;;;-51.04602;32.101658;8.964812;;1341.6
1489.0;1419.2;;;;;;;;;;;;;;-1.7986999;-0.38526568;-0.11047701;;;;;1341.6
1489.0;1419.2;;;;;;;;;;;;;;;;;-50.660725;25.47914;5.7184057;;1341.6
1489.0;1419.2;;;;;;;;;;;;;;-1.5241554;-0.36133915;-0.18231757;;;;;1341.6
1489.0;1419.2;;;;;;;;;;;;;;;;;-38.92636;27.867214;8.266702;;1351.2
1489.0;1419.2;;;;;;;;;;;;;;-1.5413069;-0.31464583;-0.0430311;;;;;1351.2
1489.0;1419.2;;;;;;;;;;;;;;;;;-26.95929;24.540697;10.872219;;1351.2
1489.0;1419.2;;;;;;;;;;;;;;-1.3810847;-0.31843013;-0.18756676;;;;;1351.2
1489.0;1420.3;;;;-1.2351114;-0.10250856;-0.42298132;;;;;;;;;;;;;;;
1489.0;1420.3;;;;-1.2267038;-0.10133745;-0.42452246;;;;;;;;;;;;;;;
1489.0;1420.3;;;;-1.2181054;-0.101326;-0.42571646;;;;;;;;;;;;;;;
1489.0;1420.3;;;;-1.2085534;-0.10165407;-0.42623144;;;;;;;;;;;;;;;
1489.0;1420.3;;;;-1.1980287;-0.102317825;-0.4249993;;;;;;;;;;;;;;;
1489.0;1422.3;262143;262143;13067;;;;;;;;;;;;;;;;;;
1489.0;1430.4;;;;-1.1863481;-0.10326387;-0.4261971;;;;;;;;;;;;;;;
1489.0;1430.4;;;;-1.175747;-0.10398866;-0.42801672;;;;;;;;;;;;;;;
1489.0;1430.4;;;;-1.1653558;-0.10461809;-0.42715842;;;;;;;;;;;;;;;
1489.0;1430.4;;;;-1.1539918;-0.104381576;-0.42594153;;;;;;;;;;;;;;;
1489.0;1430.4;;;;-1.1408273;-0.10476686;-0.4249459;;;;;;;;;;;;;;;
1545.0;1434.6;;;;;;;;;;;;;;;;;-19.890438;23.068178;11.993774;;1360.9
1545.0;1434.6;;;;;;;;;;;;;;-1.1372417;-0.37086093;-0.5137486;;;;;1360.9
1545.0;1434.6;;;;;;;;;;;;;;;;;-7.206183;22.064884;14.084292;;1360.9
1545.0;1434.6;;;;;;;;;;;;;;-1.1346171;-0.4225593;-0.52845854;;;;;1360.9
1545.0;1434.6;;;;;;;;;;;;;;;;;14.221625;12.0052185;19.402143;;1370.5
1545.0;1434.6;;;;;;;;;;;;;;-1.1585437;-0.42182684;-0.33729056;;;;;1370.5
1545.0;1434.6;;;;;;;;;;;;;;;;;40.83758;-1.8921475;25.910215;;1370.5
1545.0;1434.6;;;;;;;;;;;;;;-1.1330912;-0.31934568;-0.07159642;;;;;1370.5
1545.0;1434.6;;;;;;;;;;;;;;;;;53.647724;-9.281442;26.3184;;1380.2
1545.0;1434.6;;;;;;;;;;;;;;-1.0317698;-0.25342572;0.06323435;;;;;1380.2
1545.0;1434.6;;;;;;;;;;;;;;;;;40.92532;-9.517961;19.348736;;1380.2
1545.0;1434.6;;;;;;;;;;;;;;-0.90908533;-0.27161473;-0.033936583;;;;;1380.2
1545.0;1440.3;;;;-1.128235;-0.10491945;-0.4244576;;;;;;;;;;;;;;;
1545.0;1440.3;;;;-1.1171876;-0.1054001;-0.42394263;;;;;;;;;;;;;;;
1545.0;1440.3;;;;-1.1078264;-0.10582735;-0.42243963;;;;;;;;;;;;;;;
1545.0;1440.3;;;;-1.1004258;-0.10665895;-0.42226034;;;;;;;;;;;;;;;
1545.0;1440.3;;;;-1.0955621;-0.10736467;-0.42251974;;;;;;;;;;;;;;;
1545.0;1442.4;262143;262143;13073;;;;;;;;;;;;;;;;;;
1545.0;1448.6;;;;;;;;;;;;;-1875;;;;;;;;
1545.0;1448.6;;;;;;;;;;;;;-1095;;;;;;;;
1545.0;1448.6;;;;;;;;;;;;;50;;;;;;;;
1545.0;1448.6;;;;;;;;;;;;;1363;;;;;;;;
1545.0;1448.6;;;;;;;;;;;;;2470;;;;;;;;
1550.0;1450.3;;;;-1.0931474;-0.10884477;-0.42343527;;;;;;;;;;;;;;;
1550.0;1450.3;;;;-1.0921899;-0.11040498;-0.4254952;;;;;;;;;;;;;;;
1550.0;1450.3;;;;-1.092579;-0.11265947;-0.42805105;;;;;;;;;;;;;;;
1550.0;1450.3;;;;-1.0951997;-0.11559297;-0.43061072;;;;;;;;;;;;;;;
1550.0;1450.3;;;;-1.0992318;-0.11877443;-0.43445212;;;;;;;;;;;;;;;
1550.0;1460.3;;;;-1.1051828;-0.12152864;-0.43850332;;;;;;;;;;;;;;;
1550.0;1460.3;;;;-1.1118737;-0.124504104;-0.44438177;;;;;;;;;;;;;;;
1550.0;1460.3;;;;-1.1203805;-0.12788393;-0.45227438;;;;;;;;;;;;;;;
1550.0;1460.3;;;;-1.1290056;-0.1307564;-0.459755;;;;;;;;;;;;;;;
1550.0;1460.3;;;;-1.1380845;-0.13354494;-0.4679528;;;;;;;;;;;;;;;
1550.0;1462.5;262143;262143;13070;;;;;;;;;;;;;;;;;;
1550.0;1470.5;;;;-1.1467019;-0.13636781;-0.47526938;;;;;;;;;;;;;;;
1550.0;1470.5;;;;-1.1547548;-0.13842393;-0.48225027;;;;;;;;;;;;;;;
1550.0;1470.5;;;;-1.1626741;-0.14033128;-0.49104697;;;;;;;;;;;;;;;
1550.0;1470.5;;;;-1.1704866;-0.14142229;-0.49709326;;;;;;;;;;;;;;;
1550.0;1470.5;;;;-1.1779901;-0.14190675;-0.50217444;;;;;;;;;;;;;;;
1551.0;1479.5;;;;;;;;;;;;;;;;;16.369366;-7.57622;8.861812;;1389.8
1551.0;1479.5;;;;;;;;;;;;;;-0.7257302;-0.33051544;-0.3678091;;;;;1389.8
1551.0;1479.5;;;;;;;;;;;;;;;;;-0.26703694;-0.5607776;1.5297403;;1389.8
1551.0;1479.5;;;;;;;;;;;;;;-0.65108186;-0.26886806;-0.70619833;;;;;1389.8
1551.0;1479.5;;;;;;;;;;;;;;;;;-2.2240365;4.39848;1.1902219;;1399.5
1551.0;1479.5;;;;;;;;;;;;;;-0.7972045;-0.24860378;-0.8282113;;;;;1399.5
1551.0;1479.5;;;;;;;;;;;;;;;;;13.779107;2.25074;3.1243324;;1399.5
1551.0;1479.5;;;;;;;;;;;;;;-0.8354137;-0.23194067;-0.7849361;;;;;1399.5
1551.0;1479.5;;;;;;;;;;;;;;;;;34.65758;3.4981842;4.3755913;;1409.1
1551.0;1479.5;;;;;;;;;;;;;;-0.8323618;-0.29322183;-0.64625996;;;;;1409.1
1551.0;1479.5;;;;;;;;;;;;;;;;;47.360912;9.697257;5.3827024;;1409.1
1551.0;1479.5;;;;;;;;;;;;;;-0.875515;-0.3596301;-0.54811245;;;;;1409.1
1551.0;1480.5;;;;-1.1847497;-0.14198305;-0.5059586;;;;;;;;;;;;;;;
1551.0;1480.5;;;;-1.1910173;-0.14160158;-0.50838095;;;;;;;;;;;;;;;
1551.0;1480.5;;;;-1.1959916;-0.14138795;-0.5119019;;;;;;;;;;;;;;;
1551.0;1480.5;;;;-1.2010881;-0.14075471;-0.51605994;;;;;;;;;;;;;;;
1551.0;1480.5;;;;-1.2073632;-0.1396866;-0.52112204;;;;;;;;;;;;;;;
1551.0;1482.7;262143;262143;13066;;;;;;;;;;;;;;;;;;
1552.0;1487.0;;;;;;;;;;;;;;;;;53.07169;17.288734;7.3587756;;1418.8
1552.0;1487.0;;;;;;;;;;;;;;-1.020661;-0.44605854;-0.4196295;;;;;1418.8
1552.0;1487.0;;;;;;;;;;;;;;;;;51.080353;22.492142;10.212256;;1418.8
1552.0;1487.0;;;;;;;;;;;;;;-1.1939452;-0.46156195;-0.38453323;;;;;1418.8
1552.0;1487.0;;;;;;;;;;;;;;;;;45.415356;24.819178;12.455366;;1428.4
1552.0;1487.0;;;;;;;;;;;;;;-1.3439131;-0.4464858;-0.40730003;;;;;1428.4
1552.0;1487.0;;;;;;;;;;;;;;;;;41.718803;26.963104;15.800959;;1428.4
1552.0;1487.0;;;;;;;;;;;;;;-1.5730461;-0.5291299;-0.41468552;;;;;1428.4
1552.0;1487.0;;;;;;;;;;;;;;;;;41.88284;24.25077;19.356365;;1438.1
1552.0;1487.0;;;;;;;;;;;;;;-1.7491379;-0.7136448;-0.46491897;;;;;1438.1
1552.0;1487.0;;;;;;;;;;;;;;;;;45.49547;14.12244;20.638142;;1438.1
1552.0;1487.0;;;;;;;;;;;;;;-1.7353435;-0.906827;-0.5247963;;;;;1438.1
1552.0;1488.8;;;;;;;;;;;;;3139;;;;;;;;
1552.0;1488.8;;;;;;;;;;;;;3293;;;;;;;;
1552.0;1488.8;;;;;;;;;;;;;3045;;;;;;;;
1552.0;1488.8;;;;;;;;;;;;;2641;;;;;;;;
1552.0;1488.8;;;;;;;;;;;;;2410;;;;;;;;
1552.0;1490.5;;;;-1.2164613;-0.13816072;-0.5298081;;;;;;;;;;;;;;;
1552.0;1490.5;;;;-1.230568;-0.13571931;-0.53991705;;;;;;;;;;;;;;;
1552.0;1490.5;;;;-1.2481881;-0.13298418;-0.54897314;;;;;;;;;;;;;;;
1552.0;1490.5;;;;-1.2670022;-0.129097;-0.5576859;;;;;;;;;;;;;;;
1552.0;1490.5;;;;-1.2839128;-0.12351991;-0.56716925;;;;;;;;;;;;;;;
1602.0;1500.4;;;;-1.2994195;-0.11691286;-0.5754586;;;;;;;;;;;;;;;
1602.0;1500.4;;;;-1.3136483;-0.108539596;-0.5832215;;;;;;;;;;;;;;;
1602.0;1500.4;;;;-1.3259774;-0.09807588;-0.58943564;;;;;;;;;;;;;;;
1602.0;1500.4;;;;-1.3362771;-0.08743287;-0.594101;;;;;;;;;;;;;;;
1602.0;1500.4;;;;-1.3444024;-0.076084144;-0.5968171;;;;;;;;;;;;;;;
1602.0;1502.7;262143;262143;13067;;;;;;;;;;;;;;;;;;
1602.0;1510.4;;;;-1.3493348;-0.06490327;-0.597374;;;;;;;;;;;;;;;
1602.0;1510.4;;;;-1.3502542;-0.054229744;-0.5962449;;;;;;;;;;;;;;;
1602.0;1510.4;;;;-1.3471185;-0.04441071;-0.5935784;;;;;;;;;;;;;;;
1602.0;1510.4;;;;-1.3408166;-0.035125736;-0.59019095;;;;;;;;;;;;;;;
1602.0;1510.4;;;;-1.3321725;-0.026477817;-0.5840569;;;;;;;;;;;;;;;
1602.0;1520.4;;;;-1.3218728;-0.019020082;-0.5782319;;;;;;;;;;;;;;;
1602.0;1520.4;;;;-1.3105546;-0.012550356;-0.56953436;;;;;;;;;;;;;;;
1602.0;1520.4;;;;-1.2995378;-0.007385255;-0.56187445;;;;;;;;;;;;;;;
1602.0;1520.4;;;;-1.2845117;-0.003017426;-0.5508233;;;;;;;;;;;;;;;
1602.0;1520.4;;;;-1.2597963;1.602173E-4;-0.5365067;;;;;;;;;;;;;;;
1602.0;1522.7;262143;262143;13065;;;;;;;;;;;;;;;;;;
1602.0;1528.9;;;;;;;;;;;;;2678;;;;;;;;
1602.0;1528.9;;;;;;;;;;;;;3292;;;;;;;;
1602.0;1528.9;;;;;;;;;;;;;3873;;;;;;;;
1602.0;1528.9;;;;;;;;;;;;;4243;;;;;;;;
1602.0;1528.9;;;;;;;;;;;;;4226;;;;;;;;
1605.0;1530.5;;;;-1.2287446;0.0023498537;-0.5213929;;;;;;;;;;;;;;;
1605.0;1530.5;;;;-1.1976663;0.0037651067;-0.5072747;;;;;;;;;;;;;;;
1605.0;1530.5;;;;-1.1706659;0.004859925;-0.49407202;;;;;;;;;;;;;;;
1605.0;1530.5;;;;-1.1459275;0.0047225957;-0.48372656;;;;;;;;;;;;;;;
1605.0;1530.5;;;;-1.1208345;0.002471924;-0.47360998;;;;;;;;;;;;;;;
1605.0;1539.7;;;;;;;;;;;;;;;;;52.35832;3.2425916;19.46318;;1447.7
1605.0;1539.7;;;;;;;;;;;;;;-1.6096072;-1.0323801;-0.5096591;;;;;1447.7
1605.0;1539.7;;;;;;;;;;;;;;;;;58.133945;-4.894406;15.087587;;1447.7
1605.0;1539.7;;;;;;;;;;;;;;-1.3810847;-1.056795;-0.50972015;;;;;1447.7
1605.0;1539.7;;;;;;;;;;;;;;;;;62.177647;-7.656331;7.374035;;1457.2
1605.0;1539.7;;;;;;;;;;;;;;-1.183874;-0.969512;-0.51478624;;;;;1457.2
1605.0;1539.7;;;;;;;;;;;;;;;;;66.28621;-8.1331835;-2.948851;;1457.2
1605.0;1539.7;;;;;;;;;;;;;;-0.9891659;-0.7669912;-0.4985504;;;;;1457.2
1605.0;1539.7;;;;;;;;;;;;;;;;;69.14731;-5.260628;-11.986145;;1466.8
1605.0;1539.7;;;;;;;;;;;;;;-0.9238563;-0.45100254;-0.5189978;;;;;1466.8
1605.0;1539.7;;;;;;;;;;;;;;;;;68.36527;-2.6284068;-17.551958;;1466.8
1605.0;1539.7;;;;;;;;;;;;;;-0.9769585;-0.15869625;-0.5240028;;;;;1466.8
1605.0;1540.5;;;;-1.095997;-4.1961674E-5;-0.46070868;;;;;;;;;;;;;;;
1605.0;1540.5;;;;-1.0751649;-0.003547669;-0.44831473;;;;;;;;;;;;;;;
1605.0;1540.5;;;;-1.0549012;-0.007396699;-0.43704993;;;;;;;;;;;;;;;
1605.0;1540.5;;;;-1.0332948;-0.012111666;-0.4250489;;;;;;;;;;;;;;;
1605.0;1540.5;;;;-1.0103341;-0.016601564;-0.41336447;;;;;;;;;;;;;;;
1605.0;1542.9;262143;262143;13067;;;;;;;;;;;;;;;;;;
1608.0;1547.2;;;;;;;;;;;;;;;;;64.23383;-4.711295;-21.057772;;1476.5
1608.0;1547.2;;;;;;;;;;;;;;-0.9737846;0.09552293;-0.525956;;;;;1476.5
1608.0;1547.2;;;;;;;;;;;;;;;;;57.302315;-5.7641835;-24.079105;;1476.5
1608.0;1547.2;;;;;;;;;;;;;;-0.94979703;0.29834896;-0.49311808;;;;;1476.5
1608.0;1547.2;;;;;;;;;;;;;;;;;48.074284;-3.4447768;-24.16303;;1486.1
1608.0;1547.2;;;;;;;;;;;;;;-0.9637745;0.4507584;-0.47462386;;;;;1486.1
1608.0;1547.2;;;;;;;;;;;;;;;;;38.10999;-2.4262216;-21.141697;;1486.1
1608.0;1547.2;;;;;;;;;;;;;;-1.0061343;0.48384044;-0.4750511;;;;;1486.1
1608.0;1547.2;;;;;;;;;;;;;;;;;28.656881;-6.076998;-17.559587;;1495.8
1608.0;1547.2;;;;;;;;;;;;;;-1.0147405;0.47541735;-0.4888455;;;;;1495.8
1608.0;1547.2;;;;;;;;;;;;;;;;;18.753624;-10.719626;-13.1077;;1495.8
1608.0;1547.2;;;;;;;;;;;;;;-0.992584;0.41230506;-0.48780787;;;;;1495.8
1608.0;1550.5;;;;-0.98713315;-0.021484377;-0.40282446;;;;;;;;;;;;;;;
1608.0;1550.5;;;;-0.965294;-0.026351932;-0.39316946;;;;;;;;;;;;;;;
1608.0;1550.5;;;;-0.944481;-0.03117371;-0.38312918;;;;;;;;;;;;;;;
1608.0;1550.5;;;;-0.9249917;-0.03607178;-0.373333;;;;;;;;;;;;;;;
1608.0;1550.5;;;;-0.90794766;-0.040973667;-0.36470035;;;;;;;;;;;;;;;
1608.0;1560.5;;;;-0.89344037;-0.045375828;-0.35614398;;;;;;;;;;;;;;;
1608.0;1560.5;;;;-0.88048184;-0.049221046;-0.34863284;;;;;;;;;;;;;;;
1608.0;1560.5;;;;-0.8706323;-0.05295945;-0.34276202;;;;;;;;;;;;;;;
1608.0;1560.5;;;;-0.86376584;-0.057006843;-0.33791736;;;;;;;;;;;;;;;
1608.0;1560.5;;;;-0.8601457;-0.06082154;-0.3328133;;;;;;;;;;;;;;;
1608.0;1562.9;262143;262143;13070;;;;;;;;;;;;;;;;;;
1665.0;1569.1;;;;;;;;;;;;;3753;;;;;;;;
1665.0;1569.1;;;;;;;;;;;;;3134;;;;;;;;
1665.0;1569.1;;;;;;;;;;;;;2758;;;;;;;;
1665.0;1569.1;;;;;;;;;;;;;2577;;;;;;;;
1665.0;1569.1;;;;;;;;;;;;;2278;;;;;;;;
1665.0;1570.3;;;;-0.8579713;-0.0645218;-0.32785037;;;;;;;;;;;;;;;
1665.0;1570.3;;;;-0.85782635;-0.0678711;-0.3225899;;;;;;;;;;;;;;;
1665.0;1570.3;;;;-0.85837567;-0.071414955;-0.31777957;;;;;;;;;;;;;;;
1665.0;1570.3;;;;-0.8580247;-0.07482148;-0.3124161;;;;;;;;;;;;;;;
1665.0;1570.3;;;;-0.8564836;-0.07718278;-0.306469;;;;;;;;;;;;;;;
1665.0;1580.3;;;;-0.8540193;-0.080097206;-0.30163196;;;;;;;;;;;;;;;
1665.0;1580.3;;;;-0.8516084;-0.0833664;-0.29687884;;;;;;;;;;;;;;;
1665.0;1580.3;;;;-0.84936154;-0.08695222;-0.29178622;;;;;;;;;;;;;;;
1665.0;1580.3;;;;-0.84661114;-0.09043122;-0.2867203;;;;;;;;;;;;;;;
1665.0;1580.3;;;;-0.8431665;-0.095001236;-0.28207782;;;;;;;;;;;;;;;
1665.0;1582.8;262143;262143;13068;;;;;;;;;;;;;;;;;;
1665.0;1590.5;;;;-0.8392869;-0.09925462;-0.2786713;;;;;;;;;;;;;;;
1665.0;1590.5;;;;-0.83617795;-0.103778854;-0.27689365;;;;;;;;;;;;;;;
1665.0;1590.5;;;;-0.83485043;-0.108173385;-0.2752762;;;;;;;;;;;;;;;
1665.0;1590.5;;;;-0.8354684;-0.11294557;-0.27354816;;;;;;;;;;;;;;;
1665.0;1590.5;;;;-0.8385354;-0.11688997;-0.27220538;;;;;;;;;;;;;;;
1667.0;1600.1;;;;;;;;;;;;;;;;;6.6225166;-11.730552;-6.870479;;1505.5
1667.0;1600.1;;;;;;;;;;;;;;-0.96084476;0.33924374;-0.4810938;;;;;1505.5
1667.0;1600.1;;;;;;;;;;;;;;;;;-6.7560353;-9.174627;-0.038148135;;1505.5
1667.0;1600.1;;;;;;;;;;;;;;-0.9507126;0.26233712;-0.46229437;;;;;1505.5
1667.0;1600.1;;;;;;;;;;;;;;;;;-18.467514;-6.6911836;5.4971466;;1515.0
1667.0;1600.1;;;;;;;;;;;;;;-0.9508347;0.18060854;-0.42872402;;;;;1515.0
1667.0;1600.1;;;;;;;;;;;;;;;;;-28.78277;-4.875332;9.807885;;1515.0
1667.0;1600.1;;;;;;;;;;;;;;-0.96963406;0.095156714;-0.37470627;;;;;1515.0
1667.0;1600.1;;;;;;;;;;;;;;;;;-38.575397;-3.501999;13.229774;;1524.7
1667.0;1600.1;;;;;;;;;;;;;;-0.99649036;0.02130192;-0.32410657;;;;;1524.7
1667.0;1600.1;;;;;;;;;;;;;;;;;-47.917877;-2.3461106;15.804773;;1524.7
1667.0;1600.1;;;;;;;;;;;;;;-1.0223091;-0.023255104;-0.29914242;;;;;1524.7
1667.0;1600.4;;;;-0.84297574;-0.121044174;-0.27233508;;;;;;;;;;;;;;;
1667.0;1600.4;;;;-0.8472749;-0.124237075;-0.271019;;;;;;;;;;;;;;;
1667.0;1600.4;;;;-0.85087216;-0.12672807;-0.26929477;;;;;;;;;;;;;;;
1667.0;1600.4;;;;-0.8523294;-0.12883379;-0.2672005;;;;;;;;;;;;;;;
1667.0;1600.4;;;;-0.85208523;-0.13059618;-0.2645569;;;;;;;;;;;;;;;
1667.0;1603.0;262143;262143;13058;;;;;;;;;;;;;;;;;;
1668.0;1607.2;;;;;;;;;;;;;;;;;-55.83361;-1.0605181;18.421736;;1534.4
1668.0;1607.2;;;;;;;;;;;;;;-1.051973;-0.09411909;-0.27637562;;;;;1534.4
1668.0;1607.2;;;;;;;;;;;;;;;;;-61.75802;-0.67903686;20.908995;;1534.4
1668.0;1607.2;;;;;;;;;;;;;;-1.0685751;-0.14471877;-0.24909207;;;;;1534.4
1668.0;1607.2;;;;;;;;;;;;;;;;;-66.339615;-1.0185553;22.999512;;1544.0
1668.0;1607.2;;;;;;;;;;;;;;-1.0794396;-0.1892758;-0.2320017;;;;;1544.0
1668.0;1607.2;;;;;;;;;;;;;;;;;-69.75005;-2.4071476;24.117252;;1544.0
1668.0;1607.2;;;;;;;;;;;;;;-1.0663778;-0.23596911;-0.2323069;;;;;1544.0
1668.0;1607.2;;;;;;;;;;;;;;;;;-71.86727;-4.486221;24.208809;;1553.7
1668.0;1607.2;;;;;;;;;;;;;;-1.0317087;-0.28833887;-0.23450422;;;;;1553.7
1668.0;1607.2;;;;;;;;;;;;;;;;;-72.96213;-6.6682944;23.384808;;1553.7
1668.0;1607.2;;;;;;;;;;;;;;-0.9825739;-0.3427839;-0.22644734;;;;;1553.7
1668.0;1609.0;;;;;;;;;;;;;1991;;;;;;;;
1668.0;1609.0;;;;;;;;;;;;;2169;;;;;;;;
1668.0;1609.0;;;;;;;;;;;;;2886;;;;;;;;
1668.0;1609.0;;;;;;;;;;;;;3445;;;;;;;;
1668.0;1609.0;;;;;;;;;;;;;3175;;;;;;;;
1668.0;1610.4;;;;-0.8503839;-0.1323433;-0.26137164;;;;;;;;;;;;;;;
1668.0;1610.4;;;;-0.8473855;-0.13375475;-0.25896075;;;;;;;;;;;;;;;
1668.0;1610.4;;;;-0.84355557;-0.1354561;-0.2555962;;;;;;;;;;;;;;;
1668.0;1610.4;;;;-0.8390199;-0.13762285;-0.25194934;;;;;;;;;;;;;;;
1668.0;1610.4;;;;-0.8338052;-0.13971712;-0.24724582;;;;;;;;;;;;;;;
1726.0;1620.4;;;;-0.82790005;-0.14208223;-0.24247363;;;;;;;;;;;;;;;
1726.0;1620.4;;;;-0.8212739;-0.14389803;-0.23775104;;;;;;;;;;;;;;;
1726.0;1620.4;;;;-0.8152009;-0.14624025;-0.2327843;;;;;;;;;;;;;;;
1726.0;1620.4;;;;-0.80996335;-0.14859392;-0.22829059;;;;;;;;;;;;;;;
1726.0;1620.4;;;;-0.8063661;-0.15008928;-0.22231296;;;;;;;;;;;;;;;
1726.0;1623.0;262143;262143;13069;;;;;;;;;;;;;;;;;;
1726.0;1630.2;;;;-0.8028146;-0.1512108;-0.21627429;;;;;;;;;;;;;;;
1726.0;1630.2;;;;-0.7993852;-0.15203859;-0.20970157;;;;;;;;;;;;;;;
1726.0;1630.2;;;;-0.7954446;-0.1525879;-0.20444873;;;;;;;;;;;;;;;
1726.0;1630.2;;;;-0.79190075;-0.15301515;-0.20024493;;;;;;;;;;;;;;;
1726.0;1630.2;;;;-0.7879907;-0.15329744;-0.1950188;;;;;;;;;;;;;;;
1726.0;1640.3;;;;-0.7835084;-0.1538582;-0.18965152;;;;;;;;;;;;;;;
1726.0;1640.3;;;;-0.778515;-0.15469743;-0.18549348;;;;;;;;;;;;;;;
1726.0;1640.3;;;;-0.7727624;-0.15558626;-0.18206789;;;;;;;;;;;;;;;
1726.0;1640.3;;;;-0.7676889;-0.1562729;-0.17897798;;;;;;;;;;;;;;;
1726.0;1640.3;;;;-0.7620851;-0.15699388;-0.17630388;;;;;;;;;;;;;;;
1726.0;1642.9;262143;262143;13061;;;;;;;;;;;;;;;;;;
1726.0;1649.1;;;;;;;;;;;;;2620;;;;;;;;
1726.0;1649.1;;;;;;;;;;;;;2522;;;;;;;;
1726.0;1649.1;;;;;;;;;;;;;2672;;;;;;;;
1726.0;1649.1;;;;;;;;;;;;;2686;;;;;;;;
1726.0;1649.1;;;;;;;;;;;;;2554;;;;;;;;
1729.0;1650.4;;;;-0.75633633;-0.1577263;-0.17293932;;;;;;;;;;;;;;;
1729.0;1650.4;;;;-0.7505914;-0.15856172;-0.17008592;;;;;;;;;;;;;;;
1729.0;1650.4;;;;-0.74412924;-0.15900423;-0.16817094;;;;;;;;;;;;;;;
1729.0;1650.4;;;;-0.73794943;-0.15957643;-0.16666414;;;;;;;;;;;;;;;
1729.0;1650.4;;;;-0.7321854;-0.15979768;-0.16575243;;;;;;;;;;;;;;;
1729.0;1659.8;;;;;;;;;;;;;;;;;-72.92398;-7.7860346;22.019106;;1563.4
1729.0;1659.8;;;;;;;;;;;;;;-0.9533372;-0.38935515;-0.2097232;;;;;1563.4
1729.0;1659.8;;;;;;;;;;;;;;;;;-71.84057;-8.6787;19.859919;;1563.4
1729.0;1659.8;;;;;;;;;;;;;;-0.9297769;-0.42646566;-0.19641712;;;;;1563.4
1729.0;1659.8;;;;;;;;;;;;;;;;;-70.10101;-9.517961;16.82333;;1573.0
1729.0;1659.8;;;;;;;;;;;;;;-0.8831446;-0.46736047;-0.22846156;;;;;1573.0
1729.0;1659.8;;;;;;;;;;;;;;;;;-67.17887;-8.522293;13.042848;;1573.0
1729.0;1659.8;;;;;;;;;;;;;;-0.83407086;-0.4898221;-0.2367626;;;;;1573.0
1729.0;1659.8;;;;;;;;;;;;;;;;;-62.334057;-6.5652943;9.54085;;1582.7
1729.0;1659.8;;;;;;;;;;;;;;-0.7957396;-0.5119785;-0.20252083;;;;;1582.7
1729.0;1659.8;;;;;;;;;;;;;;;;;-56.3448;-4.5396285;7.045961;;1582.7
1729.0;1659.8;;;;;;;;;;;;;;-0.7590564;-0.5360271;-0.18695639;;;;;1582.7
1729.0;1660.4;;;;-0.7273713;-0.16033556;-0.16415788;;;;;;;;;;;;;;;
1729.0;1660.4;;;;-0.722004;-0.16101457;-0.16175462;;;;;;;;;;;;;;;
1729.0;1660.4;;;;-0.7169724;-0.16190721;-0.16027834;;;;;;;;;;;;;;;
1729.0;1660.4;;;;-0.7133637;-0.16243364;-0.1595421;;;;;;;;;;;;;;;
1729.0;1660.4;;;;-0.71082693;-0.16337587;-0.15934755;;;;;;;;;;;;;;;
1729.0;1663.1;262143;262143;13062;;;;;;;;;;;;;;;;;;
1787.0;1667.2;;;;;;;;;;;;;;;;;-50.09613;-2.66274;5.6955166;;1592.4
1787.0;1667.2;;;;;;;;;;;;;;-0.7374493;-0.550737;-0.1906186;;;;;1592.4
1787.0;1667.2;;;;;;;;;;;;;;;;;-43.72921;-2.0218513;4.9172945;;1592.4
1787.0;1667.2;;;;;;;;;;;;;;-0.72011477;-0.56013674;-0.20441298;;;;;1592.4
1787.0;1667.2;;;;;;;;;;;;;;;;;-36.73284;-2.0981476;4.581591;;1602.0
1787.0;1667.2;;;;;;;;;;;;;;-0.6969207;-0.5811335;-0.21423994;;;;;1602.0
1787.0;1667.2;;;;;;;;;;;;;;;;;-28.996399;-3.3913696;4.1695914;;1602.0
1787.0;1667.2;;;;;;;;;;;;;;-0.64803004;-0.59859;-0.1988586;;;;;1602.0
1787.0;1667.2;;;;;;;;;;;;;;;;;-22.526474;-3.952147;3.6965547;;1611.7
1787.0;1667.2;;;;;;;;;;;;;;-0.60567033;-0.61592454;-0.21283609;;;;;1611.7
1787.0;1667.2;;;;;;;;;;;;;;;;;-16.418959;-3.624073;3.2502213;;1611.7
1787.0;1667.2;;;;;;;;;;;;;;-0.60206914;-0.6226997;-0.19775994;;;;;1611.7
1787.0;1670.3;;;;-0.70927054;-0.1641884;-0.15915681;;;;;;;;;;;;;;;
1787.0;1670.3;;;;-0.7079926;-0.164917;-0.15959169;;;;;;;;;;;;;;;
1787.0;1670.3;;;;-0.7062531;-0.1653061;-0.15940095;;;;;;;;;;;;;;;
1787.0;1670.3;;;;-0.70447546;-0.1660843;-0.15937044;;;;;;;;;;;;;;;
1787.0;1670.3;;;;-0.7022286;-0.16621782;-0.15840532;;;;;;;;;;;;;;;
1787.0;1680.4;;;;-0.6999627;-0.16670991;-0.15803148;;;;;;;;;;;;;;;
1787.0;1680.4;;;;-0.69837576;-0.16658784;-0.15831377;;;;;;;;;;;;;;;
1787.0;1680.4;;;;-0.69814306;-0.16597368;-0.15794374;;;;;;;;;;;;;;;
1787.0;1680.4;;;;-0.6988526;-0.1659279;-0.15796663;;;;;;;;;;;;;;;
1787.0;1680.4;;;;-0.69995123;-0.1655121;-0.15802003;;;;;;;;;;;;;;;
1787.0;1683.1;262143;262143;13065;;;;;;;;;;;;;;;;;;
1790.0;1689.2;;;;;;;;;;;;;2470;;;;;;;;
1790.0;1689.2;;;;;;;;;;;;;2444;;;;;;;;
1790.0;1689.2;;;;;;;;;;;;;2385;;;;;;;;
1790.0;1689.2;;;;;;;;;;;;;2402;;;;;;;;
1790.0;1689.2;;;;;;;;;;;;;2528;;;;;;;;
1790.0;1690.4;;;;-0.7011681;-0.16475298;-0.15779115;;;;;;;;;;;;;;;
1790.0;1690.4;;;;-0.7024804;-0.16397859;-0.158062;;;;;;;;;;;;;;;
1790.0;1690.4;;;;-0.70343786;-0.16331865;-0.15870287;;;;;;;;;;;;;;;
1790.0;1690.4;;;;-0.70447165;-0.16241457;-0.15984727;;;;;;;;;;;;;;;
1790.0;1690.4;;;;-0.7050248;-0.1617737;-0.1602173;;;;;;;;;;;;;;;
1790.0;1700.4;;;;-0.7052346;-0.16085054;-0.16024782;;;;;;;;;;;;;;;
1790.0;1700.4;;;;-0.70556647;-0.16009523;-0.16041948;;;;;;;;;;;;;;;
1790.0;1700.4;;;;-0.7057877;-0.159256;-0.1611252;;;;;;;;;;;;;;;
1790.0;1700.4;;;;-0.706173;-0.15811922;-0.16262056;;;;;;;;;;;;;;;
1790.0;1700.4;;;;-0.7075539;-0.15759279;-0.1626587;;;;;;;;;;;;;;;
1790.0;1703.2;262143;262143;13064;;;;;;;;;;;;;;;;;;
1790.0;1710.5;;;;-0.70966727;-0.15695955;-0.16260149;;;;;;;;;;;;;;;
1790.0;1710.5;;;;-0.7125588;-0.15688707;-0.16191866;;;;;;;;;;;;;;;
1790.0;1710.5;;;;-0.71511465;-0.15675737;-0.16052248;;;;;;;;;;;;;;;
1790.0;1710.5;;;;-0.71638876;-0.1560135;-0.1598549;;;;;;;;;;;;;;;
1790.0;1710.5;;;;-0.7169381;-0.15558244;-0.15974809;;;;;;;;;;;;;;;
1793.0;1720.4;;;;;;;;;;;;;;;;;-10.937071;-4.791406;2.643666;;1621.4
1793.0;1720.4;;;;;;;;;;;;;;-0.5813776;-0.6151921;-0.19031343;;;;;1621.4
1793.0;1720.4;;;;;;;;;;;;;;;;;-6.1380353;-4.81048;1.9646292;;1621.4
1793.0;1720.4;;;;;;;;;;;;;;-0.59254736;-0.6110416;-0.16840114;;;;;1621.4
1793.0;1720.4;;;;;;;;;;;;;;;;;-2.822962;-5.165258;0.4196295;;1631.0
1793.0;1720.4;;;;;;;;;;;;;;-0.60499895;-0.5794855;-0.14972381;;;;;1631.0
1793.0;1720.4;;;;;;;;;;;;;;;;;-1.0490738;-6.076998;-1.12537;;1631.0
1793.0;1720.4;;;;;;;;;;;;;;-0.59346294;-0.5340739;-0.15857418;;;;;1631.0
1793.0;1720.4;;;;;;;;;;;;;;;;;0.22125919;-5.359813;-1.7242957;;1640.7
1793.0;1720.4;;;;;;;;;;;;;;-0.581988;-0.49824518;-0.16736351;;;;;1640.7
1793.0;1720.4;;;;;;;;;;;;;;;;;0.7324442;-4.566332;-1.5144811;;1640.7
1793.0;1720.4;;;;;;;;;;;;;;-0.5863216;-0.4822535;-0.17542039;;;;;1640.7
1793.0;1720.5;;;;-0.71575934;-0.1548958;-0.16025163;;;;;;;;;;;;;;;
1793.0;1720.5;;;;-0.71479803;-0.15440752;-0.16064073;;;;;;;;;;;;;;;
1793.0;1720.5;;;;-0.71488196;-0.15456392;-0.16105272;;;;;;;;;;;;;;;
1793.0;1720.5;;;;-0.7157822;-0.15512086;-0.16108324;;;;;;;;;;;;;;;
1793.0;1720.5;;;;-0.717846;-0.15573885;-0.1621361;;;;;;;;;;;;;;;
1806.0;1721.3;;;;;;;;;;;;;;;;;0.6256294;-4.9172945;-1.5030366;;1650.4
1806.0;1721.3;;;;;;;;;;;;;;-0.5868099;-0.46211126;-0.1678518;;;;;1650.4
1806.0;1721.3;;;;;;;;;;;;;;;;;1.3618885;-6.172369;-1.4038514;;1650.4
1806.0;1721.3;;;;;;;;;;;;;;-0.5843684;-0.44917142;-0.16632588;;;;;1650.4
1806.0;1721.3;;;;;;;;;;;;;;;;;3.3761103;-7.6525164;-1.2817774;;1659.9
1806.0;1721.3;;;;;;;;;;;;;;-0.5796686;-0.43134862;-0.15900144;;;;;1659.9
1806.0;1721.3;;;;;;;;;;;;;;;;;4.791406;-8.48796;-1.5831476;;1659.9
1806.0;1721.3;;;;;;;;;;;;;;-0.5746635;-0.41694388;-0.1528367;;;;;1659.9
1806.0;1721.3;;;;;;;;;;;;;;;;;4.81048;-8.686331;-2.2354808;;1669.6
1806.0;1721.3;;;;;;;;;;;;;;-0.5742973;-0.4054689;-0.14575641;;;;;1669.6
1806.0;1721.3;;;;;;;;;;;;;;;;;4.0246286;-9.052553;-2.6512957;;1669.6
1806.0;1721.3;;;;;;;;;;;;;;-0.5769829;-0.39594713;-0.15051728;;;;;1669.6
1806.0;1723.3;262143;262143;13071;;;;;;;;;;;;;;;;;;
1806.0;1729.4;;;;;;;;;;;;;2563;;;;;;;;
1806.0;1729.4;;;;;;;;;;;;;2158;;;;;;;;
1806.0;1729.4;;;;;;;;;;;;;1382;;;;;;;;
1806.0;1729.4;;;;;;;;;;;;;775;;;;;;;;
1806.0;1729.4;;;;;;;;;;;;;521;;;;;;;;
1806.0;1730.5;;;;-0.71960837;-0.15651323;-0.16258241;;;;;;;;;;;;;;;
1806.0;1730.5;;;;-0.72175604;-0.15727998;-0.1635666;;;;;;;;;;;;;;;
1806.0;1730.5;;;;-0.72323614;-0.15797807;-0.1651497;;;;;;;;;;;;;;;
1806.0;1730.5;;;;-0.72396094;-0.15857698;-0.16649629;;;;;;;;;;;;;;;
1806.0;1730.5;;;;-0.72466284;-0.15884401;-0.16785814;;;;;;;;;;;;;;;
1845.0;1740.1;;;;;;;;;;0.9804071;18.398846;-3.47911;;;;;;;;;
1845.0;1740.1;;;;;;;0.7003998;0.111514635;-0.01391644;;;;;;;;;;;;
1845.0;1740.1;;;;;;;;;;7.0154424;30.114138;7.160405;;;;;;;;;
1845.0;1740.1;;;;;;;0.77138585;0.13287759;-0.021851253;;;;;;;;;;;;
1845.0;1740.5;;;;-0.72570044;-0.1592293;-0.16918184;;;;;;;;;;;;;;;
1845.0;1740.5;;;;-0.726368;-0.159256;-0.17036821;;;;;;;;;;;;;;;
1845.0;1740.5;;;;-0.7275582;-0.1584015;-0.17079927;;;;;;;;;;;;;;;
1845.0;1740.5;;;;-0.7280579;-0.15788652;-0.17274477;;;;;;;;;;;;;;;
1845.0;1740.5;;;;-0.7289162;-0.15623476;-0.17450716;;;;;;;;;;;;;;;
1845.0;1743.4;262143;262143;13069;;;;;;;;;;;;;;;;;;
1845.0;1749.6;;;;;;;;;;1.9341105;7.3435163;4.8219247;;;;;;;;;
1845.0;1749.6;;;;;;;0.75411236;0.13904233;-0.024842067;;;;;;;;;;;;
1845.0;1749.6;;;;;;;;;;7.7135534;18.951996;7.816553;;;;;;;;;
1845.0;1749.6;;;;;;;0.7399518;0.14093448;-0.032227546;;;;;;;;;;;;
1845.0;1750.4;;;;-0.7304192;-0.15502931;-0.17635728;;;;;;;;;;;;;;;
1845.0;1750.4;;;;-0.732174;-0.1536522;-0.17877199;;;;;;;;;;;;;;;
1845.0;1750.4;;;;-0.734417;-0.15249254;-0.18050767;;;;;;;;;;;;;;;
1845.0;1750.4;;;;-0.73699194;-0.15137483;-0.18146898;;;;;;;;;;;;;;;
1845.0;1750.4;;;;-0.7397271;-0.1506653;-0.18310548;;;;;;;;;;;;;;;
1845.0;1758.9;;;;;;;;;;9.495071;20.664846;7.816553;;;;;;;;;
1845.0;1758.9;;;;;;;0.7269509;0.14087345;-0.03869747;;;;;;;;;;;;
1845.0;1758.9;;;;;;;;;;5.954924;-14.305552;-13.145848;;;;;;;;;
1845.0;1758.9;;;;;;;0.718894;0.13928647;-0.045289468;;;;;;;;;;;;
1847.0;1760.2;;;;-0.7443314;-0.15015794;-0.18472292;;;;;;;;;;;;;;;
1847.0;1760.2;;;;-0.7490502;-0.1489525;-0.18645097;;;;;;;;;;;;;;;
1847.0;1760.2;;;;-0.7534982;-0.1486168;-0.18851855;;;;;;;;;;;;;;;
1847.0;1760.2;;;;-0.7560731;-0.14855959;-0.19079593;;;;;;;;;;;;;;;
1847.0;1760.2;;;;-0.7578126;-0.14791872;-0.19182971;;;;;;;;;;;;;;;
1847.0;1763.2;262143;262143;13077;;;;;;;;;;;;;;;;;;
1847.0;1768.5;;;;;;;;;;7.457961;-14.313181;-14.316996;;;;;;;;;
1847.0;1768.5;;;;;;;0.70943326;0.14178899;-0.051332135;;;;;;;;;;;;
1847.0;1768.5;;;;;;;;;;8.846553;-14.378033;-15.324106;;;;;;;;;
1847.0;1768.5;;;;;;;0.6975921;0.14569536;-0.05590991;;;;;;;;;;;;
1847.0;1769.3;;;;;;;;;;;;;529;;;;;;;;
1847.0;1769.3;;;;;;;;;;;;;751;;;;;;;;
1847.0;1769.3;;;;;;;;;;;;;908;;;;;;;;
1847.0;1769.3;;;;;;;;;;;;;954;;;;;;;;
1847.0;1769.3;;;;;;;;;;;;;981;;;;;;;;
1847.0;1770.3;;;;-0.76103985;-0.14733507;-0.19472507;;;;;;;;;;;;;;;
1847.0;1770.3;;;;-0.7647935;-0.14642335;-0.19710162;;;;;;;;;;;;;;;
1847.0;1770.3;;;;-0.76910794;-0.14578249;-0.19996646;;;;;;;;;;;;;;;
1847.0;1770.3;;;;-0.7739831;-0.14453508;-0.2023659;;;;;;;;;;;;;;;
1847.0;1770.3;;;;-0.7779542;-0.1429329;-0.2041054;;;;;;;;;;;;;;;
1847.0;1778.1;;;;;;;;;;9.491257;-7.415998;-10.433516;;;;;;;;;
1847.0;1778.1;;;;;;;0.6928312;0.1513718;-0.06439406;;;;;;;;;;;;
1847.0;1778.1;;;;;;;;;;9.063997;0.13733329;-3.971221;;;;;;;;;
1847.0;1778.1;;;;;;;0.68660545;0.15375225;-0.06982635;;;;;;;;;;;;
1848.0;1780.0;;;;;;;;;;;;;;;;;2.6818142;-10.605183;-2.8420362;;1679.3
1848.0;1780.0;;;;;;;;;;;;;;-0.57094026;-0.38721886;-0.17352824;;;;;1679.3
1848.0;1780.0;;;;;;;;;;;;;;;;;1.2321848;-12.29133;-3.3989992;;1679.3
1848.0;1780.0;;;;;;;;;;;;;;-0.570452;-0.369335;-0.1909238;;;;;1679.3
1848.0;1780.0;;;;;;;;;;;;;;;;;-1.003296;-13.53496;-4.425184;;1688.8
1848.0;1780.0;;;;;;;;;;;;;;-0.56624043;-0.34730065;-0.19727165;;;;;1688.8
1848.0;1780.0;;;;;;;;;;;;;;;;;-4.2840357;-14.370403;-5.565813;;1688.8
1848.0;1780.0;;;;;;;;;;;;;;-0.5644093;-0.34333324;-0.2169866;;;;;1688.8
1848.0;1780.0;;;;;;;;;;;;;;;;;-6.65685;-14.7633295;-5.9053316;;1698.4
1848.0;1780.0;;;;;;;;;;;;;;-0.5664846;-0.33857235;-0.23035371;;;;;1698.4
1848.0;1780.0;;;;;;;;;;;;;;;;;-7.930998;-14.339885;-5.93585;;1698.4
1848.0;1780.0;;;;;;;;;;;;;;-0.591937;-0.33906063;-0.21411787;;;;;1698.4
1848.0;1780.3;;;;-0.7817689;-0.14157869;-0.20627978;;;;;;;;;;;;;;;
1848.0;1780.3;;;;-0.7864114;-0.14018632;-0.20775989;;;;;;;;;;;;;;;
1848.0;1780.3;;;;-0.79179776;-0.1382866;-0.20917132;;;;;;;;;;;;;;;
1848.0;1780.3;;;;-0.7983018;-0.13718034;-0.21128085;;;;;;;;;;;;;;;
1848.0;1780.3;;;;-0.8049928;-0.13477708;-0.21464923;;;;;;;;;;;;;;;
1851.0;1780.9;;;;;;;;;;;;;;;;;-9.155553;-13.172552;-5.9244056;;1708.1
1851.0;1780.9;;;;;;;;;;;;;;-0.63435775;-0.3391827;-0.18311106;;;;;1708.1
1851.0;1780.9;;;;;;;;;;;;;;;;;-11.967071;-12.752922;-6.389813;;1708.1
1851.0;1780.9;;;;;;;;;;;;;;-0.6670126;-0.3457747;-0.17084262;;;;;1708.1
1851.0;1780.9;;;;;;;;;;;;;;;;;-15.076143;-12.8215885;-6.984924;;1717.7
1851.0;1780.9;;;;;;;;;;;;;;-0.68996245;-0.3538316;-0.17133091;;;;;1717.7
1851.0;1780.9;;;;;;;;;;;;;;;;;-17.445143;-12.287516;-7.702109;;1717.7
1851.0;1780.9;;;;;;;;;;;;;;-0.7241432;-0.34742272;-0.17590868;;;;;1717.7
1851.0;1780.9;;;;;;;;;;;;;;;;;-19.192327;-11.829738;-8.972442;;1727.4
1851.0;1780.9;;;;;;;;;;;;;;-0.7654042;-0.33960998;-0.1866512;;;;;1727.4
1851.0;1780.9;;;;;;;;;;;;;;;;;-20.329142;-13.1077;-10.757775;;1727.4
1851.0;1780.9;;;;;;;;;;;;;;-0.7917722;-0.34040347;-0.19244972;;;;;1727.4
1851.0;1783.3;262143;262143;13076;;;;;;;;;;;;;;;;;;
1851.0;1787.5;;;;;;;;;;8.90759;-1.3084811;-4.2306285;;;;;;;;;
1851.0;1787.5;;;;;;;0.67738885;0.15143284;-0.07238991;;;;;;;;;;;;
1851.0;1787.5;;;;;;;;;;8.568071;-3.0404067;-4.6044803;;;;;;;;;
1851.0;1787.5;;;;;;;0.6698813;0.14630574;-0.072634056;;;;;;;;;;;;
1851.0;1790.3;;;;-0.8122636;-0.13189699;-0.21868137;;;;;;;;;;;;;;;
1851.0;1790.3;;;;-0.8178674;-0.13004686;-0.22209933;;;;;;;;;;;;;;;
1851.0;1790.3;;;;-0.82376873;-0.12788774;-0.22581103;;;;;;;;;;;;;;;
1851.0;1790.3;;;;-0.82851803;-0.1257477;-0.22888187;;;;;;;;;;;;;;;
1851.0;1790.3;;;;-0.8330194;-0.1231537;-0.2314072;;;;;;;;;;;;;;;
1906.0;1797.0;;;;;;;;;;8.10648;-4.2687764;-5.2148504;;;;;;;;;
1906.0;1797.0;;;;;;;0.6715293;0.14429152;-0.0733665;;;;;;;;;;;;
1906.0;1797.0;;;;;;;;;;7.6868496;-4.928739;-5.893887;;;;;;;;;
1906.0;1797.0;;;;;;;0.67506945;0.14148381;-0.07794427;;;;;;;;;;;;
1906.0;1800.3;;;;-0.8362466;-0.12038423;-0.23450091;;;;;;;;;;;;;;;
1906.0;1800.3;;;;-0.8380624;-0.11724855;-0.23661426;;;;;;;;;;;;;;;
1906.0;1800.3;;;;-0.83831036;-0.114353195;-0.23860553;;;;;;;;;;;;;;;
1906.0;1800.3;;;;-0.8377305;-0.11212541;-0.23879245;;;;;;;;;;;;;;;
1906.0;1800.3;;;;-0.83667386;-0.109634414;-0.2382622;;;;;;;;;;;;;;;
1906.0;1803.4;262143;262143;13080;;;;;;;;;;;;;;;;;;
1906.0;1806.6;;;;;;;;;;7.1146274;-5.1957765;-6.4012575;;;;;;;;;
1906.0;1806.6;;;;;;;0.67592394;0.14142278;-0.08282723;;;;;;;;;;;;
1906.0;1806.6;;;;;;;;;;6.504257;-4.955443;-6.660665;;;;;;;;;
1906.0;1806.6;;;;;;;0.6763512;0.14001893;-0.08874783;;;;;;;;;;;;
1906.0;1809.4;;;;;;;;;;;;;677;;;;;;;;
1906.0;1809.4;;;;;;;;;;;;;83;;;;;;;;
1906.0;1809.4;;;;;;;;;;;;;368;;;;;;;;
1906.0;1809.4;;;;;;;;;;;;;2617;;;;;;;;
1906.0;1809.4;;;;;;;;;;;;;3776;;;;;;;;
1906.0;1810.3;;;;-0.83623135;-0.10752107;-0.23817447;;;;;;;;;;;;;;;
1906.0;1810.3;;;;-0.8373338;-0.10562898;-0.23703387;;;;;;;;;;;;;;;
1906.0;1810.3;;;;-0.8397409;-0.1031151;-0.2349625;;;;;;;;;;;;;;;
1906.0;1810.3;;;;-0.8423158;-0.10082246;-0.23218158;;;;;;;;;;;;;;;
1906.0;1810.3;;;;-0.8434144;-0.098938;-0.2298775;;;;;;;;;;;;;;;
1907.0;1816.0;;;;;;;;;;5.7184057;-4.5167394;-7.0955534;;;;;;;;;
1907.0;1816.0;;;;;;;0.6778771;0.14044619;-0.08917508;;;;;;;;;;;;
1907.0;1816.0;;;;;;;;;;4.974517;-3.9826655;-7.8508863;;;;;;;;;
1907.0;1816.0;;;;;;;0.6753746;0.14007996;-0.08978546;;;;;;;;;;;;
1907.0;1820.3;;;;-0.84264004;-0.09710695;-0.22810748;;;;;;;;;;;;;;;
1907.0;1820.3;;;;-0.841221;-0.09603883;-0.22747806;;;;;;;;;;;;;;;
1907.0;1820.3;;;;-0.8409463;-0.09585191;-0.23038486;;;;;;;;;;;;;;;
1907.0;1820.3;;;;-0.8448678;-0.09733583;-0.23371509;;;;;;;;;;;;;;;
1907.0;1820.3;;;;-0.85367215;-0.09947206;-0.2322388;;;;;;;;;;;;;;;
1907.0;1823.4;262143;262143;13086;;;;;;;;;;;;;;;;;;
1907.0;1825.6;;;;;;;;;;4.078036;-3.3455918;-8.518478;;;;;;;;;
1907.0;1825.6;;;;;;;0.67464215;0.14117862;-0.09418012;;;;;;;;;;;;
1907.0;1825.6;;;;;;;;;;3.3417768;-2.723777;-8.560442;;;;;;;;;
1907.0;1825.6;;;;;;;0.68062377;0.1403241;-0.09967345;;;;;;;;;;;;
1907.0;1830.4;;;;-0.86119473;-0.10269548;-0.2304497;;;;;;;;;;;;;;;
1907.0;1830.4;;;;-0.86600506;-0.10549547;-0.23044208;;;;;;;;;;;;;;;
1907.0;1830.4;;;;-0.86802304;-0.10781099;-0.23071292;;;;;;;;;;;;;;;
1907.0;1830.4;;;;-0.8691217;-0.110137954;-0.23018649;;;;;;;;;;;;;;;
1907.0;1830.4;;;;-0.86904156;-0.11163713;-0.23074344;;;;;;;;;;;;;;;
1907.0;1835.3;;;;;;;;;;2.601703;-2.4796288;-8.758812;;;;;;;;;
1907.0;1835.3;;;;;;;0.69557786;0.1396527;-0.103518784;;;;;;;;;;;;
1907.0;1835.3;;;;;;;;;;1.9417402;-2.3918884;-9.300516;;;;;;;;;
1907.0;1835.3;;;;;;;0.71614736;0.1386761;-0.11004975;;;;;;;;;;;;
1909.0;1840.3;;;;;;;;;;;;;;;;;-21.343884;-15.1104765;-13.10007;;1737.0
1909.0;1840.3;;;;;;;;;;;;;;-0.8074587;-0.34876552;-0.19226661;;;;;1737.0
1909.0;1840.3;;;;;;;;;;;;;;;;;-23.121586;-17.155216;-15.892513;;1737.0
1909.0;1840.3;;;;;;;;;;;;;;-0.8107547;-0.35853145;-0.19501327;;;;;1737.0
1909.0;1840.3;;;;;;;;;;;;;;;;;-24.99466;-19.138922;-18.837551;;1746.6
1909.0;1840.3;;;;;;;;;;;;;;-0.8091067;-0.3640248;-0.19757684;;;;;1746.6
1909.0;1840.3;;;;;;;;;;;;;;;;;-26.31077;-21.835995;-21.851254;;1746.6
1909.0;1840.3;;;;;;;;;;;;;;-0.79531235;-0.36127812;-0.20557268;;;;;1746.6
1909.0;1840.3;;;;;;;;;;;;;;;;;-27.043215;-25.048065;-25.135807;;1756.2
1909.0;1840.3;;;;;;;;;;;;;;-0.77205724;-0.35438094;-0.2074038;;;;;1756.2
1909.0;1840.3;;;;;;;;;;;;;;;;;-27.462843;-28.832361;-28.34788;;1756.2
1909.0;1840.3;;;;;;;;;;;;;;-0.7424543;-0.3501694;-0.21576586;;;;;1756.2
1909.0;1840.4;;;;-0.8679124;-0.114093795;-0.23147586;;;;;;;;;;;;;;;
1909.0;1840.4;;;;-0.8659059;-0.11740114;-0.23305133;;;;;;;;;;;;;;;
1909.0;1840.4;;;;-0.8642198;-0.12269212;-0.2345734;;;;;;;;;;;;;;;
1909.0;1840.4;;;;-0.86369336;-0.13050081;-0.23690799;;;;;;;;;;;;;;;
1909.0;1840.4;;;;-0.8668901;-0.14060976;-0.23980716;;;;;;;;;;;;;;;
1910.0;1841.5;;;;;;;;;;;;;;;;;-28.02362;-32.620472;-31.464584;;1765.9
1910.0;1841.5;;;;;;;;;;;;;;-0.7116916;-0.35486922;-0.2156438;;;;;1765.9
1910.0;1841.5;;;;;;;;;;;;;;;;;-29.416029;-35.618916;-34.26847;;1765.9
1910.0;1841.5;;;;;;;;;;;;;;-0.6944792;-0.37385175;-0.20819727;;;;;1765.9
1910.0;1841.5;;;;;;;;;;;;;;;;;-31.483658;-38.495285;-36.675617;;1775.5
1910.0;1841.5;;;;;;;;;;;;;;-0.68660545;-0.40931424;-0.19873653;;;;;1775.5
1910.0;1841.5;;;;;;;;;;;;;;;;;-34.28373;-41.82562;-39.178135;;1775.5
1910.0;1841.5;;;;;;;;;;;;;;-0.6679281;-0.44758445;-0.19837031;;;;;1775.5
1910.0;1841.5;;;;;;;;;;;;;;;;;-37.480545;-45.693836;-41.951508;;1785.2
1910.0;1841.5;;;;;;;;;;;;;;-0.63667715;-0.47718742;-0.2296823;;;;;1785.2
1910.0;1841.5;;;;;;;;;;;;;;;;;-39.10565;-49.146248;-44.942318;;1785.2
1910.0;1841.5;;;;;;;;;;;;;;-0.61580247;-0.499588;-0.20001832;;;;;1785.2
1910.0;1843.5;262143;262143;13094;;;;;;;;;;;;;;;;;;
1910.0;1844.7;;;;;;;;;;1.3161107;-2.1362956;-9.693442;;;;;;;;;
1910.0;1844.7;;;;;;;0.7383648;0.13666189;-0.117435224;;;;;;;;;;;;
1910.0;1844.7;;;;;;;;;;0.9155553;-1.4648885;-10.280923;;;;;;;;;
1910.0;1844.7;;;;;;;0.76058227;0.12952055;-0.12512589;;;;;;;;;;;;
1910.0;1849.6;;;;;;;;;;;;;-3070;;;;;;;;
1910.0;1849.6;;;;;;;;;;;;;-17792;;;;;;;;
1910.0;1849.6;;;;;;;;;;;;;-28489;;;;;;;;
1910.0;1849.6;;;;;;;;;;;;;-24479;;;;;;;;
1910.0;1849.6;;;;;;;;;;;;;-9544;;;;;;;;
1912.0;1850.4;;;;-0.87513363;-0.15237428;-0.24327472;;;;;;;;;;;;;;;
1912.0;1850.4;;;;-0.8887445;-0.16556932;-0.24836734;;;;;;;;;;;;;;;
1912.0;1850.4;;;;-0.90703213;-0.17865755;-0.25257877;;;;;;;;;;;;;;;
1912.0;1850.4;;;;-0.9293519;-0.18978122;-0.25690463;;;;;;;;;;;;;;;
1912.0;1850.4;;;;-0.9534265;-0.19805911;-0.26157382;;;;;;;;;;;;;;;
1912.0;1854.3;;;;;;;;;;0.3128147;-0.5760369;-10.738701;;;;;;;;;
1912.0;1854.3;;;;;;;0.7893307;0.12402722;-0.13147373;;;;;;;;;;;;
1912.0;1854.3;;;;;;;;;;-0.095370345;0.23651844;-10.9408865;;;;;;;;;
1912.0;1854.3;;;;;;;0.82149726;0.11517686;-0.13879818;;;;;;;;;;;;
1912.0;1860.5;;;;-0.97724545;-0.20234302;-0.26513293;;;;;;;;;;;;;;;
1912.0;1860.5;;;;-0.9995462;-0.20311359;-0.26855472;;;;;;;;;;;;;;;
1912.0;1860.5;;;;-1.0191118;-0.19960025;-0.27071765;;;;;;;;;;;;;;;
1912.0;1860.5;;;;-1.0362931;-0.19445041;-0.27194598;;;;;;;;;;;;;;;
1912.0;1860.5;;;;-1.050934;-0.18787387;-0.27285388;;;;;;;;;;;;;;;
1912.0;1864.0;;;;;;;;;;-0.22507401;1.3695182;-11.46733;;;;;;;;;
1912.0;1864.0;;;;;;;0.8545793;0.11004975;-0.1408124;;;;;;;;;;;;
1912.0;1864.0;;;;;;;;;;-0.3357036;2.5521104;-12.020478;;;;;;;;;
1912.0;1864.0;;;;;;;0.88790554;0.10254219;-0.1462447;;;;;;;;;;;;
1912.0;1863.8;262143;262143;13079;;;;;;;;;;;;;;;;;;
1965.0;1870.6;;;;-1.0638582;-0.18170549;-0.27320102;;;;;;;;;;;;;;;
1965.0;1870.6;;;;-1.0769159;-0.17647173;-0.27394488;;;;;;;;;;;;;;;
1965.0;1870.6;;;;-1.0930635;-0.17307283;-0.27441028;;;;;;;;;;;;;;;
1965.0;1870.6;;;;-1.1106645;-0.17179872;-0.27555087;;;;;;;;;;;;;;;
1965.0;1870.6;;;;-1.1295205;-0.17230989;-0.27873614;;;;;;;;;;;;;;;
1965.0;1873.4;;;;;;;;;;-0.48829615;3.8377025;-12.344738;;;;;;;;;
1965.0;1873.4;;;;;;;0.913419;0.094485305;-0.15009002;;;;;;;;;;;;
1965.0;1873.4;;;;;;;;;;-0.42344433;4.993591;-12.9207735;;;;;;;;;
1965.0;1873.4;;;;;;;0.93148595;0.08667257;-0.15308085;;;;;;;;;;;;
1965.0;1880.5;;;;-1.1518022;-0.17295457;-0.28443912;;;;;;;;;;;;;;;
1965.0;1880.5;;;;-1.1735955;-0.17323305;-0.29007724;;;;;;;;;;;;;;;
1965.0;1880.5;;;;-1.1941453;-0.17235185;-0.29520038;;;;;;;;;;;;;;;
1965.0;1880.5;;;;-1.2129823;-0.16916658;-0.29937747;;;;;;;;;;;;;;;
1965.0;1880.5;;;;-1.2294542;-0.16368867;-0.30282596;;;;;;;;;;;;;;;
1965.0;1882.9;;;;;;;;;;-0.26322216;6.065554;-14.004181;;;;;;;;;
1965.0;1882.9;;;;;;;0.95107883;0.07599109;-0.15240943;;;;;;;;;;;;
1965.0;1882.9;;;;;;;;;;-0.022888882;7.2786646;-15.2096615;;;;;;;;;
1965.0;1882.9;;;;;;;0.9691458;0.0679342;-0.15173803;;;;;;;;;;;;
1965.0;1883.8;262143;262143;13081;;;;;;;;;;;;;;;;;;
1965.0;1889.8;;;;;;;;;;;;;2862;;;;;;;;
1965.0;1889.8;;;;;;;;;;;;;5707;;;;;;;;
1965.0;1889.8;;;;;;;;;;;;;3575;;;;;;;;
1965.0;1889.8;;;;;;;;;;;;;3016;;;;;;;;
1965.0;1889.8;;;;;;;;;;;;;4256;;;;;;;;
1967.0;1890.6;;;;-1.2434999;-0.15597536;-0.30575183;;;;;;;;;;;;;;;
1967.0;1890.6;;;;-1.2544175;-0.14651872;-0.30829242;;;;;;;;;;;;;;;
1967.0;1890.6;;;;-1.2619363;-0.13517;-0.31089786;;;;;;;;;;;;;;;
1967.0;1890.6;;;;-1.2656137;-0.12411119;-0.31258777;;;;;;;;;;;;;;;
1967.0;1890.6;;;;-1.2646981;-0.114337936;-0.31234744;;;;;;;;;;;;;;;
1967.0;1892.6;;;;;;;;;;0.44251838;8.827478;-16.197699;;;;;;;;;
1967.0;1892.6;;;;;;;0.98623616;0.059327982;-0.14465773;;;;;;;;;;;;
1967.0;1892.6;;;;;;;;;;0.82018495;10.284738;-17.460402;;;;;;;;;
1967.0;1892.6;;;;;;;0.9930723;0.054994356;-0.14026307;;;;;;;;;;;;
1967.0;1900.7;;;;;;;;;;;;;;;;;-38.651695;-50.233467;-47.92932;;1794.8
1967.0;1900.7;;;;;;;;;;;;;;-0.6574908;-0.526017;-0.099490345;;;;;1794.8
1967.0;1900.7;;;;;;;;;;;;;;;;;-41.840878;-53.51039;-52.38502;;1794.8
1967.0;1900.7;;;;;;;;;;;;;;-0.6346629;-0.5601978;-0.1386761;;;;;1794.8
1967.0;1900.7;;;;;;;;;;;;;;;;;-45.541245;-56.699574;-57.9165;;1804.5
1967.0;1900.7;;;;;;;;;;;;;;-0.58015686;-0.58082825;-0.21991637;;;;;1804.5
1967.0;1900.7;;;;;;;;;;;;;;;;;-46.239357;-57.309944;-63.226723;;1804.5
1967.0;1900.7;;;;;;;;;;;;;;-0.5888852;-0.58662677;-0.22351757;;;;;1804.5
1967.0;1900.7;;;;;;;;;;;;;;;;;-45.07202;-58.717613;-69.01761;;1814.2
1967.0;1900.7;;;;;;;;;;;;;;-0.6196478;-0.59779656;-0.15997803;;;;;1814.2
1967.0;1900.7;;;;;;;;;;;;;;;;;-42.607655;-60.1062;-75.80416;;1814.2
1967.0;1900.7;;;;;;;;;;;;;;-0.6596271;-0.62233347;-0.06280709;;;;;1814.2
1969.0;1900.7;;;;-1.263321;-0.105907455;-0.31147388;;;;;;;;;;;;;;;
1969.0;1900.7;;;;-1.2630807;-0.09824754;-0.31243518;;;;;;;;;;;;;;;
1969.0;1900.7;;;;-1.2647363;-0.09319306;-0.31343463;;;;;;;;;;;;;;;
1969.0;1900.7;;;;-1.2667352;-0.08897019;-0.31530383;;;;;;;;;;;;;;;
1969.0;1900.7;;;;-1.2674485;-0.08616639;-0.31112292;;;;;;;;;;;;;;;
1969.0;1901.4;;;;;;;;;;;;;;;;;-41.055023;-60.502945;-83.49483;;1823.9
1969.0;1901.4;;;;;;;;;;;;;;-0.71321756;-0.6391186;0.0056154057;;;;;1823.9
1969.0;1901.4;;;;;;;;;;;;;;;;;-41.783653;-61.059906;-92.078156;;1823.9
1969.0;1901.4;;;;;;;;;;;;;;-0.7459334;-0.6639607;-0.022278512;;;;;1823.9
1969.0;1901.4;;;;;;;;;;;;;;;;;-40.42558;-60.15198;-100.62334;;1833.5
1969.0;1901.4;;;;;;;;;;;;;;-0.81331825;-0.72109133;-0.08294931;;;;;1833.5
1969.0;1901.4;;;;;;;;;;;;;;;;;-35.515915;-56.810204;-108.48186;;1833.5
1969.0;1901.4;;;;;;;;;;;;;;-0.9571215;-0.81460005;-0.10388501;;;;;1833.5
1969.0;1901.4;;;;;;;;;;;;;;;;;-28.519547;-52.96106;-116.08859;;1843.2
1969.0;1901.4;;;;;;;;;;;;;;-1.1638539;-0.92916656;-0.08905301;;;;;1843.2
1969.0;1901.4;;;;;;;;;;;;;;;;;-21.519365;-50.138096;-122.89803;;1843.2
1969.0;1901.4;;;;;;;;;;;;;;-1.3905454;-1.0522171;-0.104617454;;;;;1843.2
1969.0;1902.1;;;;;;;;;;1.4343699;11.482589;-18.528551;;;;;;;;;
1969.0;1902.1;;;;;;;0.98983735;0.050660726;-0.13257241;;;;;;;;;;;;
1969.0;1902.1;;;;;;;;;;2.0828884;12.390514;-19.760735;;;;;;;;;
1969.0;1902.1;;;;;;;0.98263496;0.045777764;-0.12738426;;;;;;;;;;;;
1969.0;1903.9;262143;262143;13087;;;;;;;;;;;;;;;;;;
1970.0;1910.6;;;;-1.2654992;-0.08428193;-0.30801395;;;;;;;;;;;;;;;
1970.0;1910.6;;;;-1.2616578;-0.08222581;-0.3073273;;;;;;;;;;;;;;;
1970.0;1910.6;;;;-1.2574083;-0.08074952;-0.30481723;;;;;;;;;;;;;;;
1970.0;1910.6;;;;-1.2523042;-0.07781983;-0.3007889;;;;;;;;;;;;;;;
1970.0;1910.6;;;;-1.2472154;-0.07453919;-0.29683307;;;;;;;;;;;;;;;
1970.0;1911.7;;;;;;;;;;2.6322215;12.745293;-21.233253;;;;;;;;;
1970.0;1911.7;;;;;;;0.9734794;0.045777764;-0.12158574;;;;;;;;;;;;
1970.0;1911.7;;;;;;;;;;3.215888;12.676625;-22.70577;;;;;;;;;
1970.0;1911.7;;;;;;;0.96017337;0.04297006;-0.11780145;;;;;;;;;;;;
1970.0;1920.6;;;;-1.2433397;-0.07037354;-0.29329684;;;;;;;;;;;;;;;
1970.0;1920.6;;;;-1.2382509;-0.066047676;-0.29086307;;;;;;;;;;;;;;;
1970.0;1920.6;;;;-1.2333375;-0.06323243;-0.28965762;;;;;;;;;;;;;;;
1970.0;1920.6;;;;-1.2300874;-0.060745247;-0.2840462;;;;;;;;;;;;;;;
1970.0;1920.6;;;;-1.2282258;-0.058479317;-0.2788773;;;;;;;;;;;;;;;
1970.0;1921.2;;;;;;;;;;3.8224432;11.967071;-24.063845;;;;;;;;;
1970.0;1921.2;;;;;;;0.9457686;0.03991821;-0.11810663;;;;;;;;;;;;
1970.0;1921.2;;;;;;;;;;4.448073;10.773034;-25.467695;;;;;;;;;
1970.0;1921.2;;;;;;;0.93594164;0.039429914;-0.11615345;;;;;;;;;;;;
1970.0;1924.1;262143;262143;13075;;;;;;;;;;;;;;;;;;
1970.0;1929.9;;;;;;;;;;;;;4544;;;;;;;;
1970.0;1929.9;;;;;;;;;;;;;3925;;;;;;;;
1970.0;1929.9;;;;;;;;;;;;;3463;;;;;;;;
1970.0;1929.9;;;;;;;;;;;;;3268;;;;;;;;
1970.0;1929.9;;;;;;;;;;;;;3325;;;;;;;;
2024.0;1930.5;;;;-1.2280885;-0.057479866;-0.27721027;;;;;;;;;;;;;;;
2024.0;1930.5;;;;-1.2288667;-0.056514747;-0.27601245;;;;;;;;;;;;;;;
2024.0;1930.5;;;;-1.2304803;-0.05691529;-0.27597812;;;;;;;;;;;;;;;
2024.0;1930.5;;;;-1.2335016;-0.058120735;-0.27928546;;;;;;;;;;;;;;;
2024.0;1930.5;;;;-1.2371293;-0.06077958;-0.28162006;;;;;;;;;;;;;;;
2024.0;1930.6;;;;;;;;;;5.199591;9.323405;-27.0394;;;;;;;;;
2024.0;1930.6;;;;;;;0.9302652;0.037781917;-0.11438338;;;;;;;;;;;;
2024.0;1930.6;;;;;;;;;;5.84048;7.8966646;-28.405102;;;;;;;;;
2024.0;1930.6;;;;;;;0.924894;0.036805324;-0.11157567;;;;;;;;;;;;
2024.0;1940.1;;;;;;;;;;6.504257;6.7369614;-29.538103;;;;;;;;;
2024.0;1940.1;;;;;;;0.9195227;0.04174932;-0.11139256;;;;;;;;;;;;
2024.0;1940.1;;;;;;;;;;7.141331;5.771813;-30.713064;;;;;;;;;
2024.0;1940.1;;;;;;;0.9168981;0.0474868;-0.111880854;;;;;;;;;;;;
2024.0;1940.5;;;;-1.2422372;-0.06418229;-0.28149036;;;;;;;;;;;;;;;
2024.0;1940.5;;;;-1.2474786;-0.06777192;-0.28088382;;;;;;;;;;;;;;;
2024.0;1940.5;;;;-1.2525369;-0.071220405;-0.2816048;;;;;;;;;;;;;;;
2024.0;1940.5;;;;-1.2578431;-0.07359315;-0.2830048;;;;;;;;;;;;;;;
2024.0;1940.5;;;;-1.263569;-0.0749054;-0.28420642;;;;;;;;;;;;;;;
2024.0;1944.0;262143;262143;13084;;;;;;;;;;;;;;;;;;
2024.0;1949.7;;;;;;;;;;7.633442;5.035554;-31.964325;;;;;;;;;
2024.0;1949.7;;;;;;;0.9104892;0.05426191;-0.11487167;;;;;;;;;;;;
2024.0;1949.7;;;;;;;;;;8.20185;4.7608876;-33.200325;;;;;;;;;
2024.0;1949.7;;;;;;;0.9056673;0.062135685;-0.117862485;;;;;;;;;;;;
2026.0;1950.6;;;;-1.2714006;-0.07601548;-0.2830887;;;;;;;;;;;;;;;
2026.0;1950.6;;;;-1.2810823;-0.075336464;-0.2827988;;;;;;;;;;;;;;;
2026.0;1950.6;;;;-1.2950364;-0.07308579;-0.2870064;;;;;;;;;;;;;;;
2026.0;1950.6;;;;-1.3132898;-0.07030488;-0.2932358;;;;;;;;;;;;;;;
2026.0;1950.6;;;;-1.3365442;-0.06634522;-0.29745486;;;;;;;;;;;;;;;
2026.0;1959.3;;;;;;;;;;8.659627;4.799036;-34.154026;;;;;;;;;
2026.0;1959.3;;;;;;;0.898587;0.070986055;-0.12317271;;;;;;;;;;;;
2026.0;1959.3;;;;;;;;;;9.136478;5.058443;-34.947506;;;;;;;;;
2026.0;1959.3;;;;;;;0.89706105;0.08398694;-0.13409834;;;;;;;;;;;;
2026.0;1960.9;;;;;;;;;;;;;;;;;-13.611256;-47.013763;-124.97711;;1852.9
2026.0;1960.9;;;;;;;;;;;;;;-1.6354259;-1.1482894;-0.13690603;;;;;1852.9
2026.0;1960.9;;;;;;;;;;;;;;;;;-6.9429607;-43.45836;-124.988556;;1852.9
2026.0;1960.9;;;;;;;;;;;;;;-1.8785974;-1.1812494;-0.19977416;;;;;1852.9
2026.0;1960.9;;;;;;;;;;;;;;;;;-1.8349254;-42.523727;-124.988556;;1862.4
2026.0;1960.9;;;;;;;;;;;;;;-1.9998169;-1.1533555;-0.25678274;;;;;1862.4
2026.0;1960.9;;;;;;;;;;;;;;;;;4.2840357;-46.967987;-124.988556;;1862.4
2026.0;1960.9;;;;;;;;;;;;;;-1.9998169;-0.9772637;-0.28675193;;;;;1862.4
2026.0;1960.9;;;;;;;;;;;;;;;;;10.601367;-54.876095;-124.988556;;1872.1
2026.0;1960.9;;;;;;;;;;;;;;-1.9531236;-0.78255564;-0.27033296;;;;;1872.1
2026.0;1960.9;;;;;;;;;;;;;;;;;16.979734;-61.201054;-124.988556;;1872.1
2026.0;1960.9;;;;;;;;;;;;;;-1.813715;-0.65150917;-0.2102115;;;;;1872.1
2027.0;1960.6;;;;-1.3607942;-0.06082154;-0.29871753;;;;;;;;;;;;;;;
2027.0;1960.6;;;;-1.3826677;-0.05296708;-0.301693;;;;;;;;;;;;;;;
2027.0;1960.6;;;;-1.4019777;-0.043220524;-0.30539706;;;;;;;;;;;;;;;
2027.0;1960.6;;;;-1.4174043;-0.03231049;-0.30994037;;;;;;;;;;;;;;;
2027.0;1960.6;;;;-1.4288865;-0.02207184;-0.31201175;;;;;;;;;;;;;;;
2027.0;1962.0;;;;;;;;;;;;;;;;;22.12592;-66.545616;-124.988556;;1881.8
2027.0;1962.0;;;;;;;;;;;;;;-1.648732;-0.5514084;-0.1739555;;;;;1881.8
2027.0;1962.0;;;;;;;;;;;;;;;;;25.601213;-67.16743;-124.00815;;1881.8
2027.0;1962.0;;;;;;;;;;;;;;-1.5417951;-0.504532;-0.17004913;;;;;1881.8
2027.0;1962.0;;;;;;;;;;;;;;;;;27.577288;-65.32869;-117.54585;;1891.5
2027.0;1962.0;;;;;;;;;;;;;;-1.493942;-0.49940488;-0.13788262;;;;;1891.5
2027.0;1962.0;;;;;;;;;;;;;;;;;27.25303;-63.940094;-109.90478;;1891.5
2027.0;1962.0;;;;;;;;;;;;;;-1.4369946;-0.4549089;-0.13342692;;;;;1891.5
2027.0;1962.0;;;;;;;;;;;;;;;;;24.36903;-62.57057;-103.423416;;1901.2
2027.0;1962.0;;;;;;;;;;;;;;-1.3721732;-0.3679922;-0.16864528;;;;;1901.2
2027.0;1962.0;;;;;;;;;;;;;;;;;19.711142;-60.422832;-97.70501;;1901.2
2027.0;1962.0;;;;;;;;;;;;;;-1.3274941;-0.2992645;-0.18189032;;;;;1901.2
2027.0;1964.1;262143;262143;13079;;;;;;;;;;;;;;;;;;
2027.0;1968.7;;;;;;;;;;9.743034;5.3178506;-35.45869;;;;;;;;;
2027.0;1968.7;;;;;;;0.8982208;0.10046694;-0.1485641;;;;;;;;;;;;
2027.0;1968.7;;;;;;;;;;10.3228855;5.672628;-35.596027;;;;;;;;;
2027.0;1968.7;;;;;;;0.9076815;0.11969359;-0.16473891;;;;;;;;;;;;
2028.0;1970.0;;;;;;;;;;;;;3136;;;;;;;;
2028.0;1970.0;;;;;;;;;;;;;2261;;;;;;;;
2028.0;1970.0;;;;;;;;;;;;;1108;;;;;;;;
2028.0;1970.0;;;;;;;;;;;;;122;;;;;;;;
2028.0;1970.0;;;;;;;;;;;;;-655;;;;;;;;
2028.0;1970.5;;;;-1.4366113;-0.012279512;-0.3128281;;;;;;;;;;;;;;;
2028.0;1970.5;;;;-1.4410745;-0.004161835;-0.31149676;;;;;;;;;;;;;;;
2028.0;1970.5;;;;-1.4415132;0.0023918154;-0.30928805;;;;;;;;;;;;;;;
2028.0;1970.5;;;;-1.4374925;0.0069580087;-0.3066292;;;;;;;;;;;;;;;
2028.0;1970.5;;;;-1.4304811;0.009471894;-0.30215457;;;;;;;;;;;;;;;
2028.0;1978.2;;;;;;;;;;11.104922;5.9511094;-35.653248;;;;;;;;;
2028.0;1978.2;;;;;;;0.9294107;0.1380047;-0.18909268;;;;;;;;;;;;
2028.0;1978.2;;;;;;;;;;11.757256;6.576739;-35.531174;;;;;;;;;
2028.0;1978.2;;;;;;;0.97415084;0.1507004;-0.21222572;;;;;;;;;;;;
2028.0;1980.5;;;;-1.4207116;0.01015091;-0.29693988;;;;;;;;;;;;;;;
2028.0;1980.5;;;;-1.4102937;0.009376527;-0.29241565;;;;;;;;;;;;;;;
2028.0;1980.5;;;;-1.3997957;0.0070838938;-0.28826526;;;;;;;;;;;;;;;
2028.0;1980.5;;;;-1.3892213;0.004325867;-0.28522876;;;;;;;;;;;;;;;
2028.0;1980.5;;;;-1.37529;4.959107E-4;-0.27701953;;;;;;;;;;;;;;;
2028.0;1984.2;262143;262143;13072;;;;;;;;;;;;;;;;;;
2028.0;1987.8;;;;;;;;;;12.367626;7.843257;-34.066284;;;;;;;;;
2028.0;1987.8;;;;;;;1.0292062;0.15277566;-0.23328349;;;;;;;;;;;;
2028.0;1987.8;;;;;;;;;;12.928404;9.144109;-32.528915;;;;;;;;;
2028.0;1987.8;;;;;;;1.0870693;0.14264351;-0.26221505;;;;;;;;;;;;
2083.0;1990.5;;;;-1.3575441;-0.0041580205;-0.26805118;;;;;;;;;;;;;;;
2083.0;1990.5;;;;-1.336857;-0.008316041;-0.25960544;;;;;;;;;;;;;;;
2083.0;1990.5;;;;-1.3152009;-0.012287142;-0.25138858;;;;;;;;;;;;;;;
2083.0;1990.5;;;;-1.2952691;-0.017227175;-0.24326327;;;;;;;;;;;;;;;
2083.0;1990.5;;;;-1.2787095;-0.02074814;-0.23625186;;;;;;;;;;;;;;;
2083.0;1997.2;;;;;;;;;;13.355663;10.528886;-31.243324;;;;;;;;;
2083.0;1997.2;;;;;;;1.1415753;0.136845;-0.28797266;;;;;;;;;;;;
2083.0;1997.2;;;;;;;;;;13.981292;12.050997;-30.323954;;;;;;;;;
2083.0;1997.2;;;;;;;1.1960814;0.13299966;-0.31373027;;;;;;;;;;;;
2083.0;2000.5;;;;-1.2630349;-0.026527409;-0.22996524;;;;;;;;;;;;;;;
2083.0;2000.5;;;;-1.2493402;-0.030273441;-0.22040561;;;;;;;;;;;;;;;
2083.0;2000.5;;;;-1.2365304;-0.03186417;-0.21091464;;;;;;;;;;;;;;;
2083.0;2000.5;;;;-1.2229539;-0.03268433;-0.20193866;;;;;;;;;;;;;;;
2083.0;2000.5;;;;-1.2100145;-0.03343201;-0.19335559;;;;;;;;;;;;;;;
2083.0;2004.2;262143;262143;13076;;;;;;;;;;;;;;;;;;
2083.0;2006.8;;;;;;;;;;14.500107;13.939329;-29.354992;;;;;;;;;
2083.0;2006.8;;;;;;;1.2474135;0.12970367;-0.33283487;;;;;;;;;;;;
2083.0;2006.8;;;;;;;;;;15.018921;16.289255;-27.72988;;;;;;;;;
2083.0;2006.8;;;;;;;1.274636;0.12823878;-0.3434553;;;;;;;;;;;;
2083.0;2010.1;;;;;;;;;;;;;-1138;;;;;;;;
2083.0;2010.1;;;;;;;;;;;;;-1351;;;;;;;;
2083.0;2010.1;;;;;;;;;;;;;-1641;;;;;;;;
2083.0;2010.1;;;;;;;;;;;;;-2353;;;;;;;;
2083.0;2010.1;;;;;;;;;;;;;-3445;;;;;;;;
2086.0;2010.6;;;;-1.1991311;-0.034214024;-0.1862488;;;;;;;;;;;;;;;
2086.0;2010.6;;;;-1.1915704;-0.034961704;-0.17873003;;;;;;;;;;;;;;;
2086.0;2010.6;;;;-1.186371;-0.035976414;-0.17099;;;;;;;;;;;;;;;
2086.0;2010.6;;;;-1.1825715;-0.036823276;-0.16371156;;;;;;;;;;;;;;;
2086.0;2010.6;;;;-1.1803819;-0.037940983;-0.1576462;;;;;;;;;;;;;;;
2086.0;2016.5;;;;;;;;;;15.55681;18.86044;-26.085695;;;;;;;;;
2086.0;2016.5;;;;;;;1.2804956;0.119327374;-0.34858242;;;;;;;;;;;;
2086.0;2016.5;;;;;;;;;;15.907774;21.252327;-24.689476;;;;;;;;;
2086.0;2016.5;;;;;;;1.2742088;0.11529893;-0.35456404;;;;;;;;;;;;
2086.0;2020.9;;;;;;;;;;;;;;;;;15.163884;-57.966095;-91.59367;;1910.9
2086.0;2020.9;;;;;;;;;;;;;;-1.3135166;-0.3192236;-0.13702811;;;;;1910.9
2086.0;2020.9;;;;;;;;;;;;;;;;;11.555071;-55.02487;-84.66598;;1910.9
2086.0;2020.9;;;;;;;;;;;;;;-1.3158361;-0.32221442;-0.12659077;;;;;1910.9
2086.0;2020.9;;;;;;;;;;;;;;;;;8.003479;-51.14902;-77.57424;;1920.5
2086.0;2020.9;;;;;;;;;;;;;;-1.3200476;-0.2908414;-0.11371197;;;;;1920.5
2086.0;2020.9;;;;;;;;;;;;;;;;;4.2115545;-46.685688;-70.31083;;1920.5
2086.0;2020.9;;;;;;;;;;;;;;-1.328959;-0.28894925;-0.11444441;;;;;1920.5
2086.0;2020.9;;;;;;;;;;;;;;;;;0.19074069;-41.80654;-62.59346;;1930.0
2086.0;2020.9;;;;;;;;;;;;;;-1.3338419;-0.32837915;-0.11078219;;;;;1930.0
2086.0;2020.9;;;;;;;;;;;;;;;;;-3.7957397;-36.362804;-54.685356;;1930.0
2086.0;2020.9;;;;;;;;;;;;;;-1.3398236;-0.3810541;-0.13196203;;;;;1930.0
2089.0;2020.7;;;;-1.1801759;-0.03965378;-0.15229036;;;;;;;;;;;;;;;
2089.0;2020.7;;;;-1.1816293;-0.0415268;-0.14741518;;;;;;;;;;;;;;;
2089.0;2020.7;;;;-1.1833001;-0.04453278;-0.14165498;;;;;;;;;;;;;;;
2089.0;2020.7;;;;-1.1840898;-0.048004158;-0.13630296;;;;;;;;;;;;;;;
2089.0;2020.7;;;;-1.1848184;-0.050910957;-0.12988664;;;;;;;;;;;;;;;
2089.0;2021.6;;;;;;;;;;;;;;;;;-7.759331;-31.586658;-47.982727;;1939.5
2089.0;2021.6;;;;;;;;;;;;;;-1.3384808;-0.40144047;-0.122318186;;;;;1939.5
2089.0;2021.6;;;;;;;;;;;;;;;;;-13.515885;-29.042177;-43.557545;;1939.5
2089.0;2021.6;;;;;;;;;;;;;;-1.2953887;-0.44392225;-0.10895108;;;;;1939.5
2089.0;2021.6;;;;;;;;;;;;;;;;;-20.68392;-27.367474;-40.80706;;1949.1
2089.0;2021.6;;;;;;;;;;;;;;-1.2218391;-0.48298594;-0.10492264;;;;;1949.1
2089.0;2021.6;;;;;;;;;;;;;;;;;-27.74514;-25.3914;-39.38032;;1949.1
2089.0;2021.6;;;;;;;;;;;;;;-1.1382793;-0.5113071;-0.10730308;;;;;1949.1
2089.0;2021.6;;;;;;;;;;;;;;;;;-32.898956;-22.667622;-38.50673;;1958.8
2089.0;2021.6;;;;;;;;;;;;;;-1.0851161;-0.5404828;-0.10614338;;;;;1958.8
2089.0;2021.6;;;;;;;;;;;;;;;;;-36.47725;-19.661549;-37.850582;;1958.8
2089.0;2021.6;;;;;;;;;;;;;;-1.0446485;-0.5675222;-0.109500416;;;;;1958.8
2089.0;2024.2;262143;262143;13071;;;;;;;;;;;;;;;;;;
2089.0;2025.8;;;;;;;;;;16.254921;22.545547;-23.709066;;;;;;;;;
2089.0;2025.8;;;;;;;1.2543107;0.11023286;-0.3569445;;;;;;;;;;;;
2089.0;2025.8;;;;;;;;;;16.510515;22.709585;-23.033844;;;;;;;;;
2089.0;2025.8;;;;;;;1.2325816;0.10773034;-0.3596301;;;;;;;;;;;;
2092.0;2030.6;;;;-1.1841356;-0.053474434;-0.12294389;;;;;;;;;;;;;;;
2092.0;2030.6;;;;-1.1824342;-0.055587776;-0.116115585;;;;;;;;;;;;;;;
2092.0;2030.6;;;;-1.1790887;-0.05803681;-0.10977556;;;;;;;;;;;;;;;
2092.0;2030.6;;;;-1.1751138;-0.060112007;-0.101879135;;;;;;;;;;;;;;;
2092.0;2030.6;;;;-1.1701318;-0.062065132;-0.09497835;;;;;;;;;;;;;;;
2092.0;2035.3;;;;;;;;;;16.579182;21.324808;-22.82403;;;;;;;;;
2092.0;2035.3;;;;;;;1.2076174;0.10736412;-0.35865352;;;;;;;;;;;;
2092.0;2035.3;;;;;;;;;;16.880552;19.74929;-22.526474;;;;;;;;;
2092.0;2035.3;;;;;;;1.1809442;0.10937834;-0.36201057;;;;;;;;;;;;
2092.0;2040.6;;;;-1.1653863;-0.06414414;-0.08761216;;;;;;;;;;;;;;;
2092.0;2040.6;;;;-1.1599199;-0.06578065;-0.079341896;;;;;;;;;;;;;;;
2092.0;2040.6;;;;-1.1539346;-0.067306526;-0.07137681;;;;;;;;;;;;;;;
2092.0;2040.6;;;;-1.1470796;-0.06884385;-0.06269074;;;;;;;;;;;;;;;
2092.0;2040.6;;;;-1.1392976;-0.07050706;-0.05472947;;;;;;;;;;;;;;;
2092.0;2044.3;262143;262143;13063;;;;;;;;;;;;;;;;;;
2092.0;2045.0;;;;;;;;;;17.010254;18.051699;-22.003847;;;;;;;;;
2092.0;2045.0;;;;;;;1.1531724;0.1114536;-0.35865352;;;;;;;;;;;;
2092.0;2045.0;;;;;;;;;;17.323069;15.881069;-21.21418;;;;;;;;;
2092.0;2045.0;;;;;;;1.1254005;0.11249123;-0.35773796;;;;;;;;;;;;
2092.0;2050.2;;;;;;;;;;;;;-4556;;;;;;;;
2092.0;2050.2;;;;;;;;;;;;;-5488;;;;;;;;
2092.0;2050.2;;;;;;;;;;;;;-6117;;;;;;;;
2092.0;2050.2;;;;;;;;;;;;;-6319;;;;;;;;
2092.0;2050.2;;;;;;;;;;;;;-5946;;;;;;;;
2145.0;2050.4;;;;-1.1315156;-0.07247544;-0.045917515;;;;;;;;;;;;;;;
2145.0;2050.4;;;;-1.124302;-0.074298866;-0.03757477;;;;;;;;;;;;;;;
2145.0;2050.4;;;;-1.116604;-0.07651902;-0.029186253;;;;;;;;;;;;;;;
2145.0;2050.4;;;;-1.1074144;-0.078845985;-0.022502901;;;;;;;;;;;;;;;
2145.0;2050.4;;;;-1.097622;-0.08259202;-0.017917635;;;;;;;;;;;;;;;
2145.0;2054.3;;;;;;;;;;17.49855;13.40907;-19.909512;;;;;;;;;
2145.0;2054.3;;;;;;;1.1091647;0.11255226;-0.35578477;;;;;;;;;;;;
2145.0;2054.3;;;;;;;;;;17.71218;11.017182;-18.307291;;;;;;;;;
2145.0;2054.3;;;;;;;1.1016572;0.11603137;-0.3599353;;;;;;;;;;;;
2145.0;2060.4;;;;-1.0870515;-0.086105354;-0.01350403;;;;;;;;;;;;;;;
2145.0;2060.4;;;;-1.0762292;-0.08853913;-0.0072021494;;;;;;;;;;;;;;;
2145.0;2060.4;;;;-1.0662996;-0.09009171;-0.0010032655;;;;;;;;;;;;;;;
2145.0;2060.4;;;;-1.0570375;-0.09188462;0.0037002568;;;;;;;;;;;;;;;
2145.0;2060.4;;;;-1.0467225;-0.09297944;0.007785798;;;;;;;;;;;;;;;
2145.0;2063.8;;;;;;;;;;17.834253;8.953367;-16.647848;;;;;;;;;
2145.0;2063.8;;;;;;;1.106296;0.12439345;-0.36732078;;;;;;;;;;;;
2145.0;2063.8;;;;;;;;;;17.990662;7.457961;-14.881589;;;;;;;;;
2145.0;2063.8;;;;;;;1.1188695;0.12952055;-0.3762932;;;;;;;;;;;;
2145.0;2064.2;262143;262143;13065;;;;;;;;;;;;;;;;;;
2147.0;2070.5;;;;-1.0359918;-0.09460451;0.0101242075;;;;;;;;;;;;;;;
2147.0;2070.5;;;;-1.0249711;-0.09650041;0.01369858;;;;;;;;;;;;;;;
2147.0;2070.5;;;;-1.0152475;-0.09840776;0.01615143;;;;;;;;;;;;;;;
2147.0;2070.5;;;;-1.00589;-0.100540176;0.017608644;;;;;;;;;;;;;;;
2147.0;2070.5;;;;-0.9962884;-0.10250093;0.018650057;;;;;;;;;;;;;;;
2147.0;2073.5;;;;;;;;;;18.017365;6.714072;-12.730033;;;;;;;;;
2147.0;2073.5;;;;;;;1.1408429;0.13788262;-0.39295632;;;;;;;;;;;;
2147.0;2073.5;;;;;;;;;;18.127995;6.859035;-10.280923;;;;;;;;;
2147.0;2073.5;;;;;;;1.162389;0.14600055;-0.41084018;;;;;;;;;;;;
2147.0;2080.6;;;;-0.9870187;-0.10432817;0.019271852;;;;;;;;;;;;;;;
2147.0;2080.6;;;;-0.97771466;-0.10600664;0.019969942;;;;;;;;;;;;;;;
2147.0;2080.6;;;;-0.96924984;-0.10808565;0.01967621;;;;;;;;;;;;;;;
2147.0;2080.6;;;;-0.9598161;-0.10902025;0.019290926;;;;;;;;;;;;;;;
2147.0;2080.6;;;;-0.9498254;-0.10997392;0.019615175;;;;;;;;;;;;;;;
2148.0;2081.0;;;;;;;;;;;;;;;;;-37.518692;-16.479996;-36.584064;;1968.4
2148.0;2081.0;;;;;;;;;;;;;;-1.0014343;-0.6093936;-0.11438338;;;;;1968.4
2148.0;2081.0;;;;;;;;;;;;;;;;;-35.19547;-13.058107;-34.11206;;1968.4
2148.0;2081.0;;;;;;;;;;;;;;-0.9670705;-0.62532425;-0.119754635;;;;;1968.4
2148.0;2081.0;;;;;;;;;;;;;;;;;-31.346325;-10.174108;-30.18662;;1978.1
2148.0;2081.0;;;;;;;;;;;;;;-0.95376444;-0.6156804;-0.12012085;;;;;1978.1
2148.0;2081.0;;;;;;;;;;;;;;;;;-27.3484;-9.102145;-25.681326;;1978.1
2148.0;2081.0;;;;;;;;;;;;;;-0.9275796;-0.5871151;-0.11572619;;;;;1978.1
2148.0;2081.0;;;;;;;;;;;;;;;;;-23.888363;-8.560442;-20.687735;;1987.7
2148.0;2081.0;;;;;;;;;;;;;;-0.89962465;-0.54414505;-0.106509596;;;;;1987.7
2148.0;2081.0;;;;;;;;;;;;;;;;;-21.160772;-8.175146;-15.617847;;1987.7
2148.0;2081.0;;;;;;;;;;;;;;-0.87923825;-0.48860133;-0.08685568;;;;;1987.7
2148.0;2081.8;;;;;;;;;;;;;;;;;-19.611956;-7.7745905;-10.673849;;1997.3
2148.0;2081.8;;;;;;;;;;;;;;-0.86373484;-0.41755426;-0.071779534;;;;;1997.3
2148.0;2081.8;;;;;;;;;;;;;;;;;-18.807032;-7.755516;-6.0121465;;1997.3
2148.0;2081.8;;;;;;;;;;;;;;-0.8580584;-0.3477279;-0.049745172;;;;;1997.3
2148.0;2081.8;;;;;;;;;;;;;;;;;-19.035921;-7.9081087;-1.9226661;;2006.9
2148.0;2081.8;;;;;;;;;;;;;;-0.83834344;-0.28675193;-0.024536882;;;;;2006.9
2148.0;2081.8;;;;;;;;;;;;;;;;;-19.840845;-7.423628;2.1019626;;2006.9
2148.0;2081.8;;;;;;;;;;;;;;-0.8275399;-0.2402417;8.5451826E-4;;;;;2006.9
2148.0;2081.8;;;;;;;;;;;;;;;;;-20.68392;-6.5805535;6.267739;;2016.6
2148.0;2081.8;;;;;;;;;;;;;;-0.8054445;-0.20093387;0.03320414;;;;;2016.6
2148.0;2081.8;;;;;;;;;;;;;;;;;-21.202734;-5.821406;10.834071;;2016.6
2148.0;2081.8;;;;;;;;;;;;;;-0.78347117;-0.18781091;0.05877865;;;;;2016.6
2150.0;2083.0;;;;;;;;;;18.341625;7.4999237;-7.621998;;;;;;;;;
2150.0;2083.0;;;;;;;1.1819209;0.14868619;-0.4293344;;;;;;;;;;;;
2150.0;2083.0;;;;;;;;;;18.684958;8.434553;-4.772332;;;;;;;;;
2150.0;2083.0;;;;;;;1.1989502;0.15051728;-0.43995485;;;;;;;;;;;;
2150.0;2084.4;262143;262143;13064;;;;;;;;;;;;;;;;;;
2150.0;2090.3;;;;;;;;;;;;;-4869;;;;;;;;
2150.0;2090.3;;;;;;;;;;;;;-3489;;;;;;;;
2150.0;2090.3;;;;;;;;;;;;;-2204;;;;;;;;
2150.0;2090.3;;;;;;;;;;;;;-1120;;;;;;;;
2150.0;2090.3;;;;;;;;;;;;;-287;;;;;;;;
2150.0;2090.6;;;;-0.939499;-0.111152664;0.019515993;;;;;;;;;;;;;;;
2150.0;2090.6;;;;-0.928692;-0.11164476;0.019138338;;;;;;;;;;;;;;;
2150.0;2090.6;;;;-0.91741574;-0.112533584;0.018875124;;;;;;;;;;;;;;;
2150.0;2090.6;;;;-0.9065553;-0.11319734;0.018394472;;;;;;;;;;;;;;;
2150.0;2090.6;;;;-0.8959886;-0.11383821;0.017807009;;;;;;;;;;;;;;;
2150.0;2092.6;;;;;;;;;;19.119846;9.788812;-1.7624439;;;;;;;;;
2150.0;2092.6;;;;;;;1.2117679;0.14801477;-0.44843897;;;;;;;;;;;;
2150.0;2092.6;;;;;;;;;;19.596697;11.612293;1.3657033;;;;;;;;;
2150.0;2092.6;;;;;;;1.2291635;0.14679404;-0.46302682;;;;;;;;;;;;
2151.0;2096.3;;;;;;;;;;;;;;;;;-20.931883;-5.138554;16.018402;;2026.2
2151.0;2096.3;;;;;;;;;;;;;;-0.7665639;-0.18890958;0.081667535;;;;;2026.2
2151.0;2096.3;;;;;;;;;;;;;;;;;-19.7264;-4.9172945;21.706291;;2026.2
2151.0;2096.3;;;;;;;;;;;;;;-0.7519761;-0.20484024;0.094485305;;;;;2026.2
2151.0;2096.3;;;;;;;;;;;;;;;;;-17.441328;-5.2072206;27.607805;;2035.9
2151.0;2096.3;;;;;;;;;;;;;;-0.7408673;-0.22583698;0.10742515;;;;;2035.9
2151.0;2096.3;;;;;;;;;;;;;;;;;-15.133366;-5.8671837;33.13547;;2035.9
2151.0;2096.3;;;;;;;;;;;;;;-0.7373272;-0.25055698;0.120365;;;;;2035.9
2151.0;2096.3;;;;;;;;;;;;;;;;;-13.889736;-7.145146;37.717064;;2045.5
2151.0;2096.3;;;;;;;;;;;;;;-0.715598;-0.2674032;0.13049714;;;;;2045.5
2151.0;2096.3;;;;;;;;;;;;;;;;;-14.709922;-8.255258;41.32588;;2045.5
2151.0;2096.3;;;;;;;;;;;;;;-0.67940307;-0.2874233;0.11645863;;;;;2045.5
2151.0;2100.5;;;;-0.885872;-0.1152115;0.017120363;;;;;;;;;;;;;;;
2151.0;2100.5;;;;-0.87532055;-0.116115585;0.016544344;;;;;;;;;;;;;;;
2151.0;2100.5;;;;-0.8656808;-0.11766054;0.016731264;;;;;;;;;;;;;;;
2151.0;2100.5;;;;-0.8552171;-0.11930849;0.016380312;;;;;;;;;;;;;;;
2151.0;2100.5;;;;-0.8434335;-0.12055971;0.015895845;;;;;;;;;;;;;;;
2151.0;2102.0;;;;;;;;;;19.894253;13.199256;4.3069243;;;;;;;;;
2151.0;2102.0;;;;;;;1.2655416;0.14026307;-0.48347422;;;;;;;;;;;;
2151.0;2102.0;;;;;;;;;;20.187994;14.259773;6.6911836;;;;;;;;;
2151.0;2102.0;;;;;;;1.307535;0.124881744;-0.5038606;;;;;;;;;;;;
2151.0;2104.4;262143;262143;13068;;;;;;;;;;;;;;;;;;
2205.0;2110.4;;;;-0.831627;-0.1212845;0.014507296;;;;;;;;;;;;;;;
2205.0;2110.4;;;;-0.81995404;-0.12245943;0.013610842;;;;;;;;;;;;;;;
2205.0;2110.4;;;;-0.80828106;-0.1234131;0.013042452;;;;;;;;;;;;;;;
2205.0;2110.4;;;;-0.7970849;-0.12337877;0.011787416;;;;;;;;;;;;;;;
2205.0;2110.4;;;;-0.7861978;-0.12398149;0.008625031;;;;;;;;;;;;;;;
2205.0;2111.4;;;;;;;;;;20.47792;15.091403;8.426924;;;;;;;;;
2205.0;2111.4;;;;;;;1.3378704;0.10425123;-0.5216834;;;;;;;;;;;;
2205.0;2111.4;;;;;;;;;;20.630512;16.232033;9.735405;;;;;;;;;
2205.0;2111.4;;;;;;;1.3572801;0.07721183;-0.52949613;;;;;;;;;;;;
2205.0;2120.4;;;;-0.77552044;-0.12465669;0.006889344;;;;;;;;;;;;;;;
2205.0;2120.4;;;;-0.7655183;-0.12466051;0.004867554;;;;;;;;;;;;;;;
2205.0;2120.4;;;;-0.7566377;-0.124504104;0.0010375978;;;;;;;;;;;;;;;
2205.0;2120.4;;;;-0.74908835;-0.124416366;-0.001514435;;;;;;;;;;;;;;;
2205.0;2120.4;;;;-0.7409249;-0.124423996;-0.0045471196;;;;;;;;;;;;;;;
2205.0;2120.9;;;;;;;;;;20.512253;17.494736;10.628071;;;;;;;;;
2205.0;2120.9;;;;;;;1.3566698;0.0507828;-0.5262001;;;;;;;;;;;;
2205.0;2120.9;;;;;;;;;;20.332956;18.34544;10.97522;;;;;;;;;
2205.0;2120.9;;;;;;;1.3392743;0.02887051;-0.5133824;;;;;;;;;;;;
2205.0;2124.4;262143;262143;13069;;;;;;;;;;;;;;;;;;
2205.0;2130.3;;;;;;;;;;;;;484;;;;;;;;
2205.0;2130.3;;;;;;;;;;;;;1219;;;;;;;;
2205.0;2130.3;;;;;;;;;;;;;1699;;;;;;;;
2205.0;2130.3;;;;;;;;;;;;;1871;;;;;;;;
2205.0;2130.3;;;;;;;;;;;;;1798;;;;;;;;
2207.0;2130.5;;;;-0.7329865;-0.124633804;-0.008281709;;;;;;;;;;;;;;;
2207.0;2130.5;;;;-0.7249146;-0.12508394;-0.011608125;;;;;;;;;;;;;;;
2207.0;2130.5;;;;-0.7171746;-0.12503816;-0.015857698;;;;;;;;;;;;;;;
2207.0;2130.5;;;;-0.70994574;-0.12527467;-0.019275667;;;;;;;;;;;;;;;
2207.0;2130.5;;;;-0.702282;-0.1251259;-0.022838594;;;;;;;;;;;;;;;
2207.0;2130.6;;;;;;;;;;19.83703;18.261513;10.574664;;;;;;;;;
2207.0;2130.6;;;;;;;1.3129063;0.011841182;-0.49537644;;;;;;;;;;;;
2207.0;2130.6;;;;;;;;;;19.173254;16.762293;9.769737;;;;;;;;;
2207.0;2130.6;;;;;;;1.2648091;0.0038453322;-0.46827602;;;;;;;;;;;;
2207.0;2140.2;;;;;;;;;;18.688772;15.430922;9.01059;;;;;;;;;
2207.0;2140.2;;;;;;;1.1952269;-4.2725913E-4;-0.4344615;;;;;;;;;;;;
2207.0;2140.2;;;;;;;;;;18.261513;13.5197;8.705404;;;;;;;;;
2207.0;2140.2;;;;;;;1.1331522;-6.714072E-4;-0.4079104;;;;;;;;;;;;
2207.0;2140.6;;;;-0.69496924;-0.124698654;-0.027534489;;;;;;;;;;;;;;;
2207.0;2140.6;;;;-0.68770605;-0.124732986;-0.032218937;;;;;;;;;;;;;;;
2207.0;2140.6;;;;-0.6809426;-0.124546066;-0.036716465;;;;;;;;;;;;;;;
2207.0;2140.6;;;;-0.6752663;-0.12415697;-0.04049683;;;;;;;;;;;;;;;
2207.0;2140.6;;;;-0.6701966;-0.12427141;-0.043178562;;;;;;;;;;;;;;;
2209.0;2141.1;;;;;;;;;;;;;;;;;-16.788996;-8.571886;44.305244;;2055.2
2209.0;2141.1;;;;;;;;;;;;;;-0.64424574;-0.30591753;0.09887997;;;;;2055.2
2209.0;2141.1;;;;;;;;;;;;;;;;;-19.665363;-8.129368;46.887875;;2055.2
2209.0;2141.1;;;;;;;;;;;;;;-0.60267955;-0.31464583;0.071779534;;;;;2055.2
2209.0;2141.1;;;;;;;;;;;;;;;;;-23.464918;-6.645406;49.176765;;2064.9
2209.0;2141.1;;;;;;;;;;;;;;-0.55922115;-0.32123783;0.04443495;;;;;2064.9
2209.0;2141.1;;;;;;;;;;;;;;;;;-28.279213;-4.3641467;51.072723;;2064.9
2209.0;2141.1;;;;;;;;;;;;;;-0.5155797;-0.31086153;0.02148503;;;;;2064.9
2209.0;2141.1;;;;;;;;;;;;;;;;;-33.99762;-1.5182959;52.67113;;2074.6
2209.0;2141.1;;;;;;;;;;;;;;-0.47761467;-0.27820674;0.011841182;;;;;2074.6
2209.0;2141.1;;;;;;;;;;;;;;;;;-41.436504;1.5526291;54.113132;;2074.6
2209.0;2141.1;;;;;;;;;;;;;;-0.4519181;-0.22370067;-0.03540147;;;;;2074.6
2209.0;2144.5;262143;262143;13065;;;;;;;;;;;;;;;;;;
2209.0;2149.7;;;;;;;;;;17.738884;11.127811;8.384961;;;;;;;;;
2209.0;2149.7;;;;;;;1.076693;0.005859554;-0.38038272;;;;;;;;;;;;
2209.0;2149.7;;;;;;;;;;17.49855;8.568071;7.866146;;;;;;;;;
2209.0;2149.7;;;;;;;1.0235908;0.016724143;-0.35254982;;;;;;;;;;;;
2209.0;2150.6;;;;-0.66688925;-0.12362291;-0.04529572;;;;;;;;;;;;;;;
2209.0;2150.6;;;;-0.6637612;-0.12283327;-0.046638492;;;;;;;;;;;;;;;
2209.0;2150.6;;;;-0.6604119;-0.12281801;-0.048122413;;;;;;;;;;;;;;;
2209.0;2150.6;;;;-0.6565514;-0.12277986;-0.050445564;;;;;;;;;;;;;;;
2209.0;2150.6;;;;-0.65219885;-0.1228943;-0.053745277;;;;;;;;;;;;;;;
2210.0;2156.1;;;;;;;;;;;;;;;;;-50.057983;4.188666;55.120243;;2084.2
2210.0;2156.1;;;;;;;;;;;;;;-0.44465467;-0.16815698;-0.052186653;;;;;2084.2
2210.0;2156.1;;;;;;;;;;;;;;;;;-59.92309;6.0121465;55.55513;;2084.2
2210.0;2156.1;;;;;;;;;;;;;;-0.43324077;-0.1175573;-0.058473464;;;;;2084.2
2210.0;2156.1;;;;;;;;;;;;;;;;;-70.64653;7.6258125;55.829796;;2093.9
2210.0;2156.1;;;;;;;;;;;;;;-0.42994475;-0.08203375;-0.062623985;;;;;2093.9
2210.0;2156.1;;;;;;;;;;;;;;;;;-81.91168;9.201331;56.161686;;2093.9
2210.0;2156.1;;;;;;;;;;;;;;-0.43269143;-0.063417464;-0.06372265;;;;;2093.9
2210.0;2156.1;;;;;;;;;;;;;;;;;-93.428604;10.677664;56.95517;;2103.6
2210.0;2156.1;;;;;;;;;;;;;;-0.45124668;-0.081240274;-0.07904294;;;;;2103.6
2210.0;2156.1;;;;;;;;;;;;;;;;;-103.930786;43040;58.614613;;2103.6
2210.0;2156.1;;;;;;;;;;;;;;-0.46192816;-0.110721156;-0.10449538;;;;;2103.6
2210.0;2159.1;;;;;;;;;;17.273476;6.0541096;7.415998;;;;;;;;;
2210.0;2159.1;;;;;;;0.9708548;0.027344584;-0.32880643;;;;;;;;;;;;
2210.0;2159.1;;;;;;;;;;17.07892;3.234962;7.148961;;;;;;;;;
2210.0;2159.1;;;;;;;0.9218421;0.0397351;-0.30628377;;;;;;;;;;;;
2210.0;2160.5;;;;-0.6481171;-0.123432174;-0.056251533;;;;;;;;;;;;;;;
2210.0;2160.5;;;;-0.64521414;-0.12419893;-0.05872727;;;;;;;;;;;;;;;
2210.0;2160.5;;;;-0.64262015;-0.12553407;-0.062229164;;;;;;;;;;;;;;;
2210.0;2160.5;;;;-0.64004904;-0.12647249;-0.06537629;;;;;;;;;;;;;;;
2210.0;2160.5;;;;-0.63727194;-0.12768556;-0.06869126;;;;;;;;;;;;;;;
2210.0;2164.6;262143;262143;13065;;;;;;;;;;;;;;;;;;
2266.0;2168.7;;;;;;;;;;16.964476;0.49592578;6.8132577;;;;;;;;;
2266.0;2168.7;;;;;;;0.885403;0.048829615;-0.2866909;;;;;;;;;;;;
2266.0;2168.7;;;;;;;;;;16.899626;-2.0599995;6.3592944;;;;;;;;;
2266.0;2168.7;;;;;;;0.8644673;0.059938353;-0.27210304;;;;;;;;;;;;
2266.0;2170.3;;;;;;;;;;;;;1573;;;;;;;;
2266.0;2170.3;;;;;;;;;;;;;1258;;;;;;;;
2266.0;2170.3;;;;;;;;;;;;;951;;;;;;;;
2266.0;2170.3;;;;;;;;;;;;;763;;;;;;;;
2266.0;2170.3;;;;;;;;;;;;;629;;;;;;;;
2266.0;2170.5;;;;-0.63405615;-0.1282158;-0.0715561;;;;;;;;;;;;;;;
2266.0;2170.5;;;;-0.63078696;-0.12888719;-0.075069435;;;;;;;;;;;;;;;
2266.0;2170.5;;;;-0.62669;-0.12916566;-0.07769776;;;;;;;;;;;;;;;
2266.0;2170.5;;;;-0.6214753;-0.12921907;-0.078228004;;;;;;;;;;;;;;;
2266.0;2170.5;;;;-0.61679465;-0.12871934;-0.07936097;;;;;;;;;;;;;;;
2266.0;2178.1;;;;;;;;;;16.834774;-4.50911;6.1380353;;;;;;;;;
2266.0;2178.1;;;;;;;0.8581194;0.06921598;-0.26172674;;;;;;;;;;;;
2266.0;2178.1;;;;;;;;;;16.933958;-6.130406;6.3592944;;;;;;;;;
2266.0;2178.1;;;;;;;0.8580584;0.07641835;-0.25067905;;;;;;;;;;;;
2266.0;2180.4;;;;-0.6150628;-0.12805559;-0.08196259;;;;;;;;;;;;;;;
2266.0;2180.4;;;;-0.61554724;-0.12765123;-0.08561707;;;;;;;;;;;;;;;
2266.0;2180.4;;;;-0.61731344;-0.12614824;-0.088737495;;;;;;;;;;;;;;;
2266.0;2180.4;;;;-0.6196709;-0.12488176;-0.091751106;;;;;;;;;;;;;;;
2266.0;2180.4;;;;-0.62178427;-0.12282564;-0.09580614;;;;;;;;;;;;;;;
2266.0;2184.6;262143;262143;13071;;;;;;;;;;;;;;;;;;
2269.0;2187.7;;;;;;;;;;17.200994;-6.8857384;6.7636647;;;;;;;;;
2269.0;2187.7;;;;;;;0.854091;0.083681755;-0.23847163;;;;;;;;;;;;
2269.0;2187.7;;;;;;;;;;17.628254;-6.9963684;7.255776;;;;;;;;;
2269.0;2187.7;;;;;;;0.84646136;0.09387494;-0.22791223;;;;;;;;;;;;
2269.0;2190.5;;;;-0.6239243;-0.12197496;-0.099304214;;;;;;;;;;;;;;;
2269.0;2190.5;;;;-0.62614447;-0.121093765;-0.10267641;;;;;;;;;;;;;;;
2269.0;2190.5;;;;-0.6272202;-0.12016298;-0.105720535;;;;;;;;;;;;;;;
2269.0;2190.5;;;;-0.6266671;-0.11965944;-0.10750963;;;;;;;;;;;;;;;
2269.0;2190.5;;;;-0.6249314;-0.11968614;-0.10919191;;;;;;;;;;;;;;;
2269.0;2197.3;;;;;;;;;;17.990662;-6.130406;7.904294;;;;;;;;;
2269.0;2197.3;;;;;;;0.8400525;0.10364086;-0.21796319;;;;;;;;;;;;
2269.0;2197.3;;;;;;;;;;18.238625;-4.795221;8.514664;;;;;;;;;
2269.0;2197.3;;;;;;;0.83321637;0.11627552;-0.21173742;;;;;;;;;;;;
2269.0;2200.6;;;;-0.62263876;-0.11972429;-0.111713424;;;;;;;;;;;;;;;
2269.0;2200.6;;;;-0.6206055;-0.119632736;-0.113166824;;;;;;;;;;;;;;;
2269.0;2200.6;;;;-0.620781;-0.1190262;-0.114524856;;;;;;;;;;;;;;;
2269.0;2200.6;;;;-0.62203604;-0.11784364;-0.115726486;;;;;;;;;;;;;;;
2269.0;2200.6;;;;-0.6252709;-0.11697771;-0.11709978;;;;;;;;;;;;;;;
2272.0;2201.2;;;;;;;;;;;;;;;;;-113.471634;12.745293;61.269722;;2113.1
2272.0;2201.2;;;;;;;;;;;;;;-0.46455276;-0.1685232;-0.13544114;;;;;2113.1
2272.0;2201.2;;;;;;;;;;;;;;;;;-120.7007;13.351849;65.01587;;2113.1
2272.0;2201.2;;;;;;;;;;;;;;-0.46601763;-0.23438215;-0.17023225;;;;;2113.1
2272.0;2201.2;;;;;;;;;;;;;;;;;-124.18745;13.554033;69.29609;;2122.8
2272.0;2201.2;;;;;;;;;;;;;;-0.48628193;-0.32209235;-0.19544053;;;;;2122.8
2272.0;2201.2;;;;;;;;;;;;;;;;;-123.424484;12.199775;74.08368;;2122.8
2272.0;2201.2;;;;;;;;;;;;;;-0.51515245;-0.4248787;-0.20838039;;;;;2122.8
2272.0;2201.2;;;;;;;;;;;;;;;;;-116.565445;9.193701;79.802086;;2132.4
2272.0;2201.2;;;;;;;;;;;;;;-0.5528733;-0.51423687;-0.19251075;;;;;2132.4
2272.0;2201.2;;;;;;;;;;;;;;;;;-104.060486;4.440443;86.03549;;2132.4
2272.0;2201.2;;;;;;;;;;;;;;-0.5668508;-0.60206914;-0.17047639;;;;;2132.4
2272.0;2204.7;262143;262143;13071;;;;;;;;;;;;;;;;;;
2272.0;2206.8;;;;;;;;;;18.421736;-3.6774805;8.827478;;;;;;;;;
2272.0;2206.8;;;;;;;0.83797723;0.12372204;-0.21027254;;;;;;;;;;;;
2272.0;2206.8;;;;;;;;;;18.665884;-2.1629994;8.682516;;;;;;;;;
2272.0;2206.8;;;;;;;0.84646136;0.13061923;-0.20813623;;;;;;;;;;;;
2272.0;2210.6;;;;;;;;;;;;;460;;;;;;;;
2272.0;2210.6;;;;;;;;;;;;;323;;;;;;;;
2272.0;2210.6;;;;;;;;;;;;;473;;;;;;;;
2272.0;2210.6;;;;;;;;;;;;;1000;;;;;;;;
2272.0;2210.6;;;;;;;;;;;;;1491;;;;;;;;
2274.0;2210.6;;;;-0.6293984;-0.11659624;-0.117683426;;;;;;;;;;;;;;;
2274.0;2210.6;;;;-0.63519675;-0.11615373;-0.11797334;;;;;;;;;;;;;;;
2274.0;2210.6;;;;-0.6414109;-0.11601259;-0.11925508;;;;;;;;;;;;;;;
2274.0;2210.6;;;;-0.64809805;-0.11578371;-0.120395675;;;;;;;;;;;;;;;
2274.0;2210.6;;;;-0.6541291;-0.11506654;-0.122661605;;;;;;;;;;;;;;;
2274.0;2216.4;;;;;;;;;;19.016848;-0.24033326;8.346813;;;;;;;;;
2274.0;2216.4;;;;;;;0.84884185;0.13592944;-0.20398572;;;;;;;;;;;;
2274.0;2216.4;;;;;;;;;;19.356365;1.6670736;8.217109;;;;;;;;;
2274.0;2216.4;;;;;;;0.84035766;0.14099552;-0.19580676;;;;;;;;;;;;
2274.0;2216.7;;;;;;;;;;;;;;;;;-87.17231;-0.32807398;92.08197;;2142.0
2274.0;2216.7;;;;;;;;;;;;;;-0.552324;-0.6738487;-0.13678396;;;;;2142.0
2274.0;2216.7;;;;;;;;;;;;;;;;;-67.22083;-4.0627766;96.6979;;2142.0
2274.0;2216.7;;;;;;;;;;;;;;-0.5314493;-0.7311624;-0.11316264;;;;;2142.0
2274.0;2216.7;;;;;;;;;;;;;;;;;-45.033875;-5.8290353;100.27238;;2151.7
2274.0;2216.7;;;;;;;;;;;;;;-0.5503708;-0.7662587;-0.07739494;;;;;2151.7
2274.0;2216.7;;;;;;;;;;;;;;;;;-22.865993;-7.27485;102.0806;;2151.7
2274.0;2216.7;;;;;;;;;;;;;;-0.57869196;-0.7943358;-0.02069155;;;;;2151.7
2274.0;2216.7;;;;;;;;;;;;;;;;;-3.521073;-8.060701;102.275154;;2161.4
2274.0;2216.7;;;;;;;;;;;;;;-0.60860014;-0.8132572;0.025452437;;;;;2161.4
2274.0;2216.7;;;;;;;;;;;;;;;;;11.432997;-8.6901455;101.01245;;2161.4
2274.0;2216.7;;;;;;;;;;;;;;-0.6266671;-0.83693963;0.053712577;;;;;2161.4
2324.0;2220.5;;;;-0.6607209;-0.114345565;-0.124862686;;;;;;;;;;;;;;;
2324.0;2220.5;;;;-0.66696554;-0.11369325;-0.12631227;;;;;;;;;;;;;;;
2324.0;2220.5;;;;-0.6730462;-0.11285783;-0.12768175;;;;;;;;;;;;;;;
2324.0;2220.5;;;;-0.6786385;-0.11220552;-0.12983705;;;;;;;;;;;;;;;
2324.0;2220.5;;;;-0.68526083;-0.11165239;-0.13071825;;;;;;;;;;;;;;;
2324.0;2224.8;262143;262143;13060;;;;;;;;;;;;;;;;;;
2324.0;2225.9;;;;;;;;;;19.657734;3.456221;8.331553;;;;;;;;;
2324.0;2225.9;;;;;;;0.8291269;0.14465773;-0.18567461;;;;;;;;;;;;
2324.0;2225.9;;;;;;;;;;20.031586;4.9439983;8.40022;;;;;;;;;
2324.0;2225.9;;;;;;;0.8150273;0.14996795;-0.17383343;;;;;;;;;;;;
2324.0;2230.5;;;;-0.6912537;-0.111152664;-0.13179399;;;;;;;;;;;;;;;
2324.0;2230.5;;;;-0.6975365;-0.11146928;-0.13397218;;;;;;;;;;;;;;;
2324.0;2230.5;;;;-0.7048417;-0.11099245;-0.1369095;;;;;;;;;;;;;;;
2324.0;2230.5;;;;-0.71181875;-0.11149217;-0.13991548;;;;;;;;;;;;;;;
2324.0;2230.5;;;;-0.71999365;-0.112525955;-0.14209367;;;;;;;;;;;;;;;
2324.0;2235.1;;;;;;;;;;20.435957;5.9587393;8.58333;;;;;;;;;
2324.0;2235.1;;;;;;;0.80288094;0.15411848;-0.16199225;;;;;;;;;;;;
2324.0;2235.1;;;;;;;;;;20.87466;6.4851832;8.686331;;;;;;;;;
2324.0;2235.1;;;;;;;0.7951903;0.15704826;-0.1480758;;;;;;;;;;;;
2325.0;2240.3;;;;-0.728241;-0.11316301;-0.14509203;;;;;;;;;;;;;;;
2325.0;2240.3;;;;-0.7366105;-0.11406709;-0.14743425;;;;;;;;;;;;;;;
2325.0;2240.3;;;;-0.7465363;-0.11457063;-0.15128328;;;;;;;;;;;;;;;
2325.0;2240.3;;;;-0.75784695;-0.1144333;-0.1546631;;;;;;;;;;;;;;;
2325.0;2240.3;;;;-0.77002347;-0.11414339;-0.15742494;;;;;;;;;;;;;;;
2325.0;2244.7;;;;;;;;;;21.313364;6.725517;8.556626;;;;;;;;;
2325.0;2244.7;;;;;;;0.78621787;0.15753655;-0.13611256;;;;;;;;;;;;
2325.0;2244.7;;;;;;;;;;21.679586;6.912442;8.514664;;;;;;;;;
2325.0;2244.7;;;;;;;0.77425456;0.16046633;-0.12585834;;;;;;;;;;;;
2325.0;2244.7;262143;262143;13067;;;;;;;;;;;;;;;;;;
2325.0;2250.5;;;;-0.7817422;-0.11352922;-0.16004564;;;;;;;;;;;;;;;
2325.0;2250.5;;;;-0.79239666;-0.11230089;-0.16176988;;;;;;;;;;;;;;;
2325.0;2250.5;;;;-0.8023759;-0.11141969;-0.16362764;;;;;;;;;;;;;;;
2325.0;2250.5;;;;-0.81219876;-0.1110573;-0.16510774;;;;;;;;;;;;;;;
2325.0;2250.5;;;;-0.8219987;-0.11025621;-0.1657982;;;;;;;;;;;;;;;
2325.0;2250.5;;;;;;;;;;;;;1643;;;;;;;;
2325.0;2250.5;;;;;;;;;;;;;1563;;;;;;;;
2325.0;2250.5;;;;;;;;;;;;;1405;;;;;;;;
2325.0;2250.5;;;;;;;;;;;;;1259;;;;;;;;
2325.0;2250.5;;;;;;;;;;;;;1220;;;;;;;;
2325.0;2254.4;;;;;;;;;;22.076328;6.9620347;8.518478;;;;;;;;;
2325.0;2254.4;;;;;;;0.760155;0.16315195;-0.11713004;;;;;;;;;;;;
2325.0;2254.4;;;;;;;;;;22.450178;6.7522206;8.526108;;;;;;;;;
2325.0;2254.4;;;;;;;0.7462996;0.16345714;-0.11023286;;;;;;;;;;;;
2327.0;2260.6;;;;-0.83047116;-0.109756485;-0.16576006;;;;;;;;;;;;;;;
2327.0;2260.6;;;;-0.8382913;-0.109180465;-0.1658249;;;;;;;;;;;;;;;
2327.0;2260.6;;;;-0.8458406;-0.10920335;-0.16669466;;;;;;;;;;;;;;;
2327.0;2260.6;;;;-0.85390866;-0.109180465;-0.16816713;;;;;;;;;;;;;;;
