patientId;holterMac;flexMac;;;;;;;;;;;;;;;;;;;;
;CA:F3:0B:1E:33:78;D3:4A:5C:52:80:78;;;;;;;;;;;;;;;;;;;;
receivedTimeStamp;timeStamp;red;ir;green;adxl_accX;adxl_accY;adxl_accZ;lsm_accelX;lsm_accelY;lsm_accelZ;lsm_gyroX;lsm_gyroY;lsm_gyroZ;ecg;flex_lsm_accelX;flex_lsm_accelY;flex_lsm_accelZ;flex_lsm_gyroX;flex_lsm_gyroY;flex_lsm_gyroZ;flex_cmd;flexTimeStamp
273.0;213.6;;;;;;;;;;;;;;;;;;;;17;0.1
273.0;213.6;;;;;;;;;;;;;;;;;13.943144;0.4768517;0.62944424;;127.3
273.0;213.6;;;;;;;;;;;;;;-1.6279794;-0.018311106;-0.3154393;;;;;127.3
273.0;213.6;;;;;;;;;;;;;;;;;-4.627369;-16.979734;-8.972442;;127.3
273.0;213.6;;;;;;;;;;;;;;-1.6872463;-0.0629902;-0.33698538;;;;;127.3
273.0;213.6;;;;;;;;;;;;;;;;;-62.562943;-84.40657;-67.58706;;137.0
273.0;213.6;;;;;;;;;;;;;;-1.6869411;-0.13989685;-0.33362836;;;;;137.0
273.0;213.6;;;;;;;;;;;;;;;;;-122.1694;-124.988556;-122.78359;;137.0
273.0;213.6;;;;;;;;;;;;;;-1.716544;-0.23053682;-0.34192938;;;;;137.0
337.0;214.8;;;;;;;;;;;;;;;;;-65.67202;-124.988556;-109.99634;;146.7
337.0;214.8;;;;;;;;;;;;;;-1.7131871;-0.27130955;-0.3606067;;;;;146.7
337.0;214.8;;;;;;;;;;;;;;;;;-8.274331;-124.988556;-106.868195;;146.7
337.0;214.8;;;;;;;;;;;;;;-1.6869411;-0.2893765;-0.37934506;;;;;146.7
337.0;214.8;;;;;;;;;;;;;;;;;-12.062441;-100.99338;-113.757744;;156.3
337.0;214.8;;;;;;;;;;;;;;-1.6555681;-0.31159398;-0.366039;;;;;156.3
337.0;214.8;;;;;;;;;;;;;;;;;-15.957365;-20.054476;-103.82015;;156.3
337.0;214.8;;;;;;;;;;;;;;-1.6733298;-0.31672108;-0.33857235;;;;;156.3
337.0;214.8;;;;;;;;;;;;;;;;;-12.131108;-9.31959;-104.903564;;166.0
337.0;214.8;;;;;;;;;;;;;;-1.6740624;-0.31006807;-0.3084811;;;;;166.0
337.0;214.8;;;;;;;;;;;;;;;;;-8.129368;-6.282998;-107.34886;;166.0
337.0;214.8;;;;;;;;;;;;;;-1.6709495;-0.29212317;-0.27460554;;;;;166.0
337.0;273.9;;;;;;;;;;;;;;;;;-5.53148;-5.0279245;-110.43122;;175.6
337.0;273.9;;;;;;;;;;;;;;-1.6550188;-0.27771842;-0.22534868;;;;;175.6
337.0;273.9;;;;;;;;;;;;;;;;;-3.807184;-4.4289985;-114.635155;;175.6
337.0;273.9;;;;;;;;;;;;;;-1.6155889;-0.2593463;-0.17505418;;;;;175.6
337.0;273.9;;;;;;;;;;;;;;;;;-2.4338512;-3.7003694;-117.92734;;185.1
337.0;273.9;;;;;;;;;;;;;;-1.5710318;-0.25244913;-0.12927641;;;;;185.1
337.0;273.9;;;;;;;;;;;;;;;;;-0.7667776;-2.9602954;-120.69307;;185.1
337.0;273.9;;;;;;;;;;;;;;-1.549852;-0.27936643;-0.09320353;;;;;185.1
337.0;273.9;;;;;;;;;;;;;;;;;1.3351848;-2.3194067;-122.77596;;194.8
337.0;273.9;;;;;;;;;;;;;;-1.5337383;-0.29706717;-0.077883236;;;;;194.8
337.0;273.9;;;;;;;;;;;;;;;;;3.173925;-0.553148;-124.20652;;194.8
337.0;273.9;;;;;;;;;;;;;;-1.5436872;-0.3317362;-0.09186071;;;;;194.8
393.0;274.7;;;;;;;;;;;;;;;;;6.9086275;-0.35859248;-124.94278;;204.4
393.0;274.7;;;;;;;;;;;;;;-1.5629749;-0.32673118;-0.10559405;;;;;204.4
393.0;274.7;;;;;;;;;;;;;;;;;10.624256;-1.5869625;-124.988556;;204.4
393.0;274.7;;;;;;;;;;;;;;-1.5673085;-0.34211248;-0.10632649;;;;;204.4
393.0;274.7;;;;;;;;;;;;;;;;;14.393292;-2.9831843;-124.988556;;214.1
393.0;274.7;;;;;;;;;;;;;;-1.5178686;-0.36432996;-0.09808649;;;;;214.1
393.0;274.7;;;;;;;;;;;;;;;;;17.414623;-4.0437026;-124.988556;;214.1
393.0;274.7;;;;;;;;;;;;;;-1.465743;-0.38904995;-0.09607227;;;;;214.1
393.0;274.7;;;;;;;;;;;;;;;;;19.428846;-3.5058138;-124.988556;;223.8
393.0;274.7;;;;;;;;;;;;;;-1.4237494;-0.38593706;-0.112125;;;;;223.8
393.0;274.7;;;;;;;;;;;;;;;;;21.732994;-2.1172216;-124.988556;;223.8
393.0;274.7;;;;;;;;;;;;;;-1.376934;-0.38392285;-0.12793359;;;;;223.8
393.0;334.0;;;;;;;;;;;;;;;;;24.388105;0.76296276;-124.988556;;233.3
393.0;334.0;;;;;;;;;;;;;;-1.3545946;-0.39826655;-0.16187018;;;;;233.3
393.0;334.0;;;;;;;;;;;;;;;;;27.882473;5.1538134;-124.988556;;233.3
393.0;334.0;;;;;;;;;;;;;;-1.3519089;-0.4098636;-0.20123905;;;;;233.3
393.0;334.0;;;;;;;;;;;;;;;;;32.101658;7.7097383;-124.988556;;243.0
393.0;334.0;;;;;;;;;;;;;;-1.3379925;-0.43751335;-0.22974335;;;;;243.0
393.0;334.0;;;;;;;;;;;;;;;;;36.43147;9.510331;-124.988556;;243.0
393.0;334.0;;;;;;;;;;;;;;-1.3335978;-0.40021974;-0.2614826;;;;;243.0
393.0;334.0;;;;;;;;;;;;;;;;;38.777584;11.364329;-124.988556;;252.7
393.0;334.0;;;;;;;;;;;;;;-1.3887143;-0.34455398;-0.29438153;;;;;252.7
393.0;334.0;;;;;;;;;;;;;;;;;42.466507;6.76748;-124.988556;;252.7
393.0;334.0;;;;;;;;;;;;;;-1.3658254;-0.29950866;-0.28748435;;;;;252.7
456.0;335.2;;;;;;;;;;;;;;;;;47.711876;1.6937773;-124.988556;;262.2
456.0;335.2;;;;;;;;;;;;;;-1.2482681;-0.24610126;-0.25971252;;;;;262.2
456.0;335.2;;;;;;;;;;;;;;;;;50.279243;2.8687398;-124.988556;;262.2
456.0;335.2;;;;;;;;;;;;;;-1.2112186;-0.22992645;-0.24481948;;;;;262.2
456.0;335.2;;;;;;;;;;;;;;;;;52.926727;3.6355176;-124.988556;;271.9
456.0;335.2;;;;;;;;;;;;;;-1.2111576;-0.21893978;-0.19598986;;;;;271.9
456.0;335.2;;;;;;;;;;;;;;;;;54.12076;0.8926664;-124.988556;;271.9
456.0;335.2;;;;;;;;;;;;;;-1.1822261;-0.22602008;-0.16577655;;;;;271.9
456.0;335.2;;;;;;;;;;;;;;;;;55.635242;-0.31662953;-124.988556;;281.6
456.0;335.2;;;;;;;;;;;;;;-1.1570787;-0.23450422;-0.14038515;;;;;281.6
456.0;335.2;;;;;;;;;;;;;;;;;57.458725;-3.0899992;-124.988556;;281.6
456.0;335.2;;;;;;;;;;;;;;-1.1003144;-0.22296824;-0.13623463;;;;;281.6
456.0;394.3;;;;;;;;;;;;;;;;;60.819572;-3.910184;-124.988556;;291.2
456.0;394.3;;;;;;;;;;;;;;-1.0711386;-0.21210364;-0.13061923;;;;;291.2
456.0;394.3;;;;;;;;;;;;;;;;;63.91339;-3.9216285;-124.988556;;291.2
456.0;394.3;;;;;;;;;;;;;;-1.0649129;-0.23236793;-0.11304056;;;;;291.2
456.0;394.3;;;;;;;;;;;;;;;;;67.28569;-5.058443;-124.91226;;300.8
456.0;394.3;;;;;;;;;;;;;;-1.0334789;-0.26703694;-0.083254494;;;;;300.8
456.0;394.3;;;;;;;;;;;;;;;;;72.4662;-6.2334056;-124.75204;;300.8
456.0;394.3;;;;;;;;;;;;;;-0.99362165;-0.3071383;-0.07507554;;;;;300.8
456.0;394.3;;;;;;;;;;;;;;;;;76.429794;-5.1347394;-123.02774;;310.5
456.0;394.3;;;;;;;;;;;;;;-0.9964293;-0.23895992;-0.11456648;;;;;310.5
456.0;394.3;;;;;;;;;;;;;;;;;78.066345;-7.168035;-121.12796;;310.5
456.0;394.3;;;;;;;;;;;;;;-0.9732963;-0.1902524;-0.11127049;;;;;310.5
516.0;395.2;;;;;;;;;;;;;;;;;80.660416;-9.613331;-119.02982;;320.1
516.0;395.2;;;;;;;;;;;;;;-0.9301431;-0.23267312;-0.13715018;;;;;320.1
516.0;395.2;;;;;;;;;;;;;;;;;84.6202;-10.227515;-117.44667;;320.1
516.0;395.2;;;;;;;;;;;;;;-0.9045686;-0.24536882;-0.16248055;;;;;320.1
516.0;395.2;;;;;;;;;;;;;;;;;86.17664;-12.974181;-117.13386;;329.7
516.0;395.2;;;;;;;;;;;;;;-0.8916288;-0.3267922;-0.1561327;;;;;329.7
516.0;395.2;;;;;;;;;;;;;;;;;89.97238;-16.525774;-116.81722;;329.7
516.0;395.2;;;;;;;;;;;;;;-0.8564104;-0.33039337;-0.13879818;;;;;329.7
516.0;395.2;;;;;;;;;;;;;;;;;91.33427;-16.430403;-118.030334;;339.3
516.0;395.2;;;;;;;;;;;;;;-0.83797723;-0.25232702;-0.1462447;;;;;339.3
516.0;395.2;;;;;;;;;;;;;;;;;90.269936;-17.38792;-118.65215;;339.3
516.0;395.2;;;;;;;;;;;;;;-0.81063265;-0.24091311;-0.18774988;;;;;339.3
516.0;454.5;;;;;;;;;;;;;;;;;87.74453;-18.349255;-119.06034;;348.9
516.0;454.5;;;;;;;;;;;;;;-0.77370524;-0.22345653;-0.16943876;;;;;348.9
516.0;454.5;;;;;;;;;;;;;;;;;84.696495;-18.32255;-120.34211;;348.9
516.0;454.5;;;;;;;;;;;;;;-0.74056214;-0.19165625;-0.16663106;;;;;348.9
516.0;454.5;;;;;;;;;;;;;;;;;81.01901;-16.37318;-120.81515;;358.6
516.0;454.5;;;;;;;;;;;;;;-0.70473343;-0.19086276;-0.17139195;;;;;358.6
516.0;454.5;;;;;;;;;;;;;;;;;78.24946;-13.721885;-120.571;;358.6
516.0;454.5;;;;;;;;;;;;;;-0.6959441;-0.21552171;-0.16003907;;;;;358.6
516.0;454.5;;;;;;;;;;;;;;;;;76.38783;-11.806849;-120.166626;;368.2
516.0;454.5;;;;;;;;;;;;;;-0.6670126;-0.17548142;-0.16473891;;;;;368.2
516.0;454.5;;;;;;;;;;;;;;;;;73.00409;-10.048219;-120.29252;;368.2
516.0;454.5;;;;;;;;;;;;;;-0.644734;-0.18750572;-0.1685232;;;;;368.2
575.0;455.3;;;;;;;;;;;;;;;;;70.54735;-9.681997;-119.701225;;377.8
575.0;455.3;;;;;;;;;;;;;;-0.6486404;-0.20606098;-0.14514603;;;;;377.8
575.0;455.3;;;;;;;;;;;;;;;;;68.65901;-10.54796;-119.61349;;377.8
575.0;455.3;;;;;;;;;;;;;;-0.6408887;-0.21131016;-0.12817775;;;;;377.8
575.0;455.3;;;;;;;;;;;;;;;;;67.45735;-12.3638115;-119.80041;;387.5
575.0;455.3;;;;;;;;;;;;;;-0.6241646;-0.22296824;-0.1060213;;;;;387.5
575.0;455.3;;;;;;;;;;;;;;;;;67.69387;-14.107181;-119.48378;;387.5
575.0;455.3;;;;;;;;;;;;;;-0.5977355;-0.20960112;-0.10174871;;;;;387.5
575.0;455.3;;;;;;;;;;;;;;;;;68.65901;-14.759515;-118.694115;;397.0
575.0;455.3;;;;;;;;;;;;;;-0.5782647;-0.21344645;-0.08282723;;;;;397.0
575.0;455.3;;;;;;;;;;;;;;;;;70.25361;-15.4194765;-117.39708;;397.0
575.0;455.3;;;;;;;;;;;;;;-0.56410414;-0.20636617;-0.06689657;;;;;397.0
575.0;514.7;;;;;;;;;;;;;;;;;71.65746;-15.995514;-116.34801;;406.6
575.0;514.7;;;;;;;;;;;;;;-0.54615927;-0.20081179;-0.046143986;;;;;406.6
575.0;514.7;;;;;;;;;;;;;;;;;72.88202;-16.07944;-114.806816;;406.6
575.0;514.7;;;;;;;;;;;;;;-0.5398724;-0.17413862;-0.010559404;;;;;406.6
575.0;514.7;;;;;;;;;;;;;;;;;74.0112;-15.533921;-112.61711;;416.3
575.0;514.7;;;;;;;;;;;;;;-0.5395062;-0.16772974;-0.00573748;;;;;416.3
575.0;514.7;;;;;;;;;;;;;;;;;74.465164;-14.606922;-110.46555;;416.3
575.0;514.7;;;;;;;;;;;;;;-0.5515915;-0.13153477;0.01330607;;;;;416.3
575.0;514.7;;;;;;;;;;;;;;;;;74.3202;-14.263588;-107.37938;;425.8
575.0;514.7;;;;;;;;;;;;;;-0.55995363;-0.13409834;0.024048585;;;;;425.8
575.0;514.7;;;;;;;;;;;;;;;;;73.82427;-13.6875515;-104.34278;;425.8
575.0;514.7;;;;;;;;;;;;;;-0.54713583;-0.11334574;0.04486221;;;;;425.8
639.0;515.5;;;;;;;;;;;;;;;;;72.32505;-11.902219;-101.59993;;435.4
639.0;515.5;;;;;;;;;;;;;;-0.5436567;-0.097048864;0.0601825;;;;;435.4
639.0;515.5;;;;;;;;;;;;;;;;;70.92502;-10.54796;-98.17042;;435.4
639.0;515.5;;;;;;;;;;;;;;-0.53566086;-0.10608234;0.0827662;;;;;435.4
639.0;515.5;;;;;;;;;;;;;;;;;69.64705;-8.136998;-94.16105;;445.0
639.0;515.5;;;;;;;;;;;;;;-0.537553;-0.124332406;0.09112827;;;;;445.0
639.0;515.5;;;;;;;;;;;;;;;;;69.20834;-5.2491837;-90.36912;;445.0
639.0;515.5;;;;;;;;;;;;;;-0.5393841;-0.15918455;0.08783227;;;;;445.0
639.0;515.5;;;;;;;;;;;;;;;;;68.81924;-3.3532214;-85.940125;;454.6
639.0;515.5;;;;;;;;;;;;;;-0.54719687;-0.242378;0.07147435;;;;;454.6
639.0;515.5;;;;;;;;;;;;;;;;;70.05905;-2.7123327;-80.84353;;454.6
639.0;515.5;;;;;;;;;;;;;;-0.5535447;-0.33692434;0.041688286;;;;;454.6
639.0;529.7;;;;;;;;;;;;;;;;;73.54961;-2.948851;-75.9415;;464.2
639.0;529.7;;;;;;;;;;;;;;-0.5462203;-0.39594713;0.014893033;;;;;464.2
639.0;529.7;;;;;;;;;;;;;;;;;77.75353;-3.9483323;-71.749016;;464.2
639.0;529.7;;;;;;;;;;;;;;-0.5271157;-0.44099247;-0.0023194067;;;;;464.2
639.0;529.7;;;;;;;;;;;;;;;;;81.110565;-4.9058504;-67.361984;;473.9
639.0;529.7;;;;;;;;;;;;;;-0.48396254;-0.46522415;-0.011658071;;;;;473.9
639.0;529.7;;;;;;;;;;;;;;;;;82.74712;-4.7074804;-62.223427;;473.9
639.0;529.7;;;;;;;;;;;;;;-0.4359874;-0.48298594;-0.012146367;;;;;473.9
639.0;529.7;;;;;;;;;;;;;;;;;83.22779;-3.540147;-56.787315;;483.4
639.0;529.7;;;;;;;;;;;;;;-0.39082003;-0.50666827;0.0010986663;;;;;483.4
639.0;529.7;;;;;;;;;;;;;;;;;83.56731;-0.8354442;-51.73269;;483.4
639.0;529.7;;;;;;;;;;;;;;-0.3642079;-0.5146642;0.021179846;;;;;483.4
696.0;574.8;;;;;;;;;;;;;;;;;83.39183;1.1558886;-47.00995;;492.9
696.0;574.8;;;;;;;;;;;;;;-0.34070864;-0.5445723;0.041505173;;;;;492.9
696.0;574.8;;;;;;;;;;;;;;;;;82.57164;2.7619252;-42.294838;;492.9
696.0;574.8;;;;;;;;;;;;;;-0.3056734;-0.57057405;0.06024354;;;;;492.9
696.0;574.8;;;;;;;;;;;;;;;;;81.01138;4.7685175;-38.00699;;502.3
696.0;574.8;;;;;;;;;;;;;;-0.2719199;-0.59114355;0.0799585;;;;;502.3
696.0;574.8;;;;;;;;;;;;;;;;;78.11594;7.5838494;-34.15784;;502.3
696.0;574.8;;;;;;;;;;;;;;-0.24030274;-0.63039035;0.088137455;;;;;502.3
696.0;574.8;;;;;;;;;;;;;;;;;74.82375;11.131626;-30.38499;;512.0
696.0;574.8;;;;;;;;;;;;;;-0.21576586;-0.6666463;0.10742515;;;;;512.0
696.0;574.8;;;;;;;;;;;;;;;;;70.34135;15.236365;-26.745659;;512.0
696.0;574.8;;;;;;;;;;;;;;-0.18756676;-0.7193823;0.11774041;;;;;512.0
696.0;590.2;;;;;;;;;;;;;;;;;64.86328;19.47081;-23.056734;;521.6
696.0;590.2;;;;;;;;;;;;;;-0.16736351;-0.7791986;0.123661004;;;;;521.6
696.0;590.2;;;;;;;;;;;;;;;;;58.614613;23.285624;-19.878994;;521.6
696.0;590.2;;;;;;;;;;;;;;-0.15649892;-0.84560686;0.120365;;;;;521.6
696.0;590.2;;;;;;;;;;;;;;;;;52.640614;27.108067;-16.49907;;531.2
696.0;590.2;;;;;;;;;;;;;;-0.15076144;-0.89565724;0.11517686;;;;;531.2
696.0;590.2;;;;;;;;;;;;;;;;;47.4601;30.606249;-12.985626;;531.2
696.0;590.2;;;;;;;;;;;;;;-0.15173803;-0.9290445;0.106753744;;;;;531.2
696.0;590.2;;;;;;;;;;;;;;;;;43.195137;34.68047;-9.887997;;540.7
696.0;590.2;;;;;;;;;;;;;;-0.17102572;-0.9580371;0.10138249;;;;;540.7
696.0;590.2;;;;;;;;;;;;;;;;;40.559097;38.15577;-7.2862945;;540.7
696.0;590.2;;;;;;;;;;;;;;-0.19409773;-0.9816584;0.094485305;;;;;540.7
753.0;635.1;;;;;;;;;;;;;;;;;40.509506;41.467026;-4.6464434;;550.4
753.0;635.1;;;;;;;;;;;;;;-0.23987548;-0.98355055;0.09936827;;;;;550.4
753.0;635.1;;;;;;;;;;;;;;;;;43.321026;43.62621;-1.945555;;550.4
753.0;635.1;;;;;;;;;;;;;;-0.28101444;-1.0052797;0.10821863;;;;;550.4
753.0;635.1;;;;;;;;;;;;;;;;;48.860134;44.50743;0.99185157;;559.9
753.0;635.1;;;;;;;;;;;;;;-0.30988494;-0.99740595;0.13214515;;;;;559.9
753.0;635.1;;;;;;;;;;;;;;;;;55.51317;44.526505;4.161962;;559.9
753.0;635.1;;;;;;;;;;;;;;-0.3211768;-1.0105289;0.14099552;;;;;559.9
753.0;635.1;;;;;;;;;;;;;;;;;62.173832;44.652393;7.6525164;;569.6
753.0;635.1;;;;;;;;;;;;;;-0.3150731;-0.99905396;0.112308115;;;;;569.6
753.0;635.1;;;;;;;;;;;;;;;;;67.03773;45.789207;11.387218;;569.6
753.0;635.1;;;;;;;;;;;;;;-0.3096408;-0.9798883;0.068971835;;;;;569.6
753.0;650.1;;;;;;;;;;;;;;;;;70.822014;46.47969;15.392773;;579.3
753.0;650.1;;;;;;;;;;;;;;-0.28730124;-0.9614551;0.036194954;;;;;579.3
753.0;650.1;;;;;;;;;;;;;;;;;73.892944;47.482986;19.61577;;579.3
753.0;650.1;;;;;;;;;;;;;;-0.2923673;-0.92501605;0.033143103;;;;;579.3
753.0;650.1;;;;;;;;;;;;;;;;;75.15183;47.269356;24.410994;;588.9
753.0;650.1;;;;;;;;;;;;;;-0.30463576;-0.87624747;0.027405621;;;;;588.9
753.0;650.1;;;;;;;;;;;;;;;;;74.385056;46.143986;29.644918;;588.9
753.0;650.1;;;;;;;;;;;;;;-0.30878627;-0.8240608;0.0051881466;;;;;588.9
753.0;650.1;;;;;;;;;;;;;;;;;72.31361;45.02243;34.829247;;598.5
753.0;650.1;;;;;;;;;;;;;;-0.30481887;-0.7840815;-0.01861629;;;;;598.5
753.0;650.1;;;;;;;;;;;;;;;;;69.58601;43.210396;40.166172;;598.5
753.0;650.1;;;;;;;;;;;;;;-0.3170263;-0.73860896;-0.07318339;;;;;598.5
816.0;695.3;;;;;;;;;;;;;;;;;68.41105;38.99121;45.754875;;608.1
816.0;695.3;;;;;;;;;;;;;;-0.33674124;-0.67720574;-0.11481063;;;;;608.1
816.0;695.3;;;;;;;;;;;;;;;;;68.88409;33.059177;52.29728;;608.1
816.0;695.3;;;;;;;;;;;;;;-0.3370464;-0.60188603;-0.14984588;;;;;608.1
816.0;695.3;;;;;;;;;;;;;;;;;70.65416;28.454695;59.057133;;617.7
816.0;695.3;;;;;;;;;;;;;;-0.34882656;-0.56031984;-0.1259804;;;;;617.7
816.0;695.3;;;;;;;;;;;;;;;;;74.42702;26.03229;65.9772;;617.7
816.0;695.3;;;;;;;;;;;;;;-0.38721886;-0.48066652;-0.02557451;;;;;617.7
816.0;695.3;;;;;;;;;;;;;;;;;81.15253;25.26551;73.09183;;627.4
816.0;695.3;;;;;;;;;;;;;;-0.3884396;-0.34534746;0.11157567;;;;;627.4
816.0;695.3;;;;;;;;;;;;;;;;;89.69389;29.080324;79.83642;;627.4
816.0;695.3;;;;;;;;;;;;;;-0.4471572;-0.20349742;0.39594713;;;;;627.4
816.0;703.1;;;;;;;;;;;;;;;;;98.44508;34.82543;85.40224;;637.0
816.0;703.1;;;;;;;;;;;;;;-0.5515915;0.035767693;0.90841395;;;;;637.0
816.0;703.1;;;;;;;;;;;;;;;;;95.25971;43.08832;90.5446;;637.0
816.0;703.1;;;;;;;;;;;;;;-0.7588733;0.2069155;1.2759789;;;;;637.0
816.0;703.1;;;;;;;;;;;;;;;;;71.88253;51.27491;91.66234;;646.5
816.0;703.1;;;;;;;;;;;;;;-1.0593585;0.12561418;1.4563433;;;;;646.5
816.0;703.1;;;;;;;;;;;;;;;;;19.135107;72.992645;81.3509;;646.5
816.0;703.1;;;;;;;;;;;;;;-1.3679616;-0.2047792;1.3451338;;;;;646.5
816.0;703.1;;;;;;;;;;;;;;;;;-66.061134;112.20893;57.43202;;656.2
816.0;703.1;;;;;;;;;;;;;;-1.9222999;-0.918363;1.0103458;;;;;656.2
816.0;703.1;;;;;;;;;;;;;;;;;-120.58244;123.71822;30.835138;;656.2
816.0;703.1;;;;;;;;;;;;;;-1.9995728;-1.6568499;0.72884303;;;;;656.2
876.0;755.5;;;;;;;;;;;;;;;;;-124.988556;100.79882;16.090885;;665.8
876.0;755.5;;;;;;;;;;;;;;-1.9995728;-1.9984131;-0.051087987;;;;;665.8
876.0;755.5;;;;;;;;;;;;;;;;;-124.67193;65.47746;17.948698;;665.8
876.0;755.5;;;;;;;;;;;;;;-1.9995728;-1.9331034;-1.1937621;;;;;665.8
876.0;755.5;;;;;;;;;;;;;;;;;-95.90823;20.187994;20.424513;;675.2
876.0;755.5;;;;;;;;;;;;;;-1.9995728;-1.6393933;-1.0427564;;;;;675.2
876.0;755.5;;;;;;;;;;;;;;;;;-20.168919;-14.690847;4.5319986;;675.2
876.0;755.5;;;;;;;;;;;;;;-1.9995728;-1.1551256;-0.32599872;;;;;675.2
876.0;755.5;;;;;;;;;;;;;;;;;34.836876;5.83285;-4.333628;;684.9
876.0;755.5;;;;;;;;;;;;;;-1.9015473;-0.44672993;0.20667134;;;;;684.9
876.0;755.5;;;;;;;;;;;;;;;;;43.83984;-10.45259;-3.3036287;;684.9
876.0;755.5;;;;;;;;;;;;;;-1.4924161;-0.17084262;0.6898404;;;;;684.9
876.0;762.9;;;;;;;;;;;;;;;;;22.278511;-63.07794;-2.6322215;;694.4
876.0;762.9;;;;;;;;;;;;;;-0.3736076;-0.008362072;0.9764092;;;;;694.4
876.0;762.9;;;;;;;;;;;;;;;;;-28.06177;-57.687614;2.8077028;;694.4
876.0;762.9;;;;;;;;;;;;;;0.7869503;-0.12164678;0.42963958;;;;;694.4
876.0;762.9;;;;;;;;;;;;;;;;;-83.96405;-9.704886;13.412886;;704.0
876.0;762.9;;;;;;;;;;;;;;1.009125;0.055604726;-0.2515946;;;;;704.0
876.0;762.9;;;;;;;;;;;;;;;;;-105.304115;12.874996;24.212624;;704.0
876.0;762.9;;;;;;;;;;;;;;0.9434492;0.42481765;-0.26648763;;;;;704.0
876.0;762.9;;;;;;;;;;;;;;;;;-92.48634;17.571032;42.298656;;713.7
876.0;762.9;;;;;;;;;;;;;;0.9259316;0.3340556;-0.20203254;;;;;713.7
876.0;762.9;;;;;;;;;;;;;;;;;-97.14423;35.49684;61.876278;;713.7
876.0;762.9;;;;;;;;;;;;;;0.5822321;-0.119083226;-0.20685446;;;;;713.7
938.0;815.8;;;;;;;;;;;;;;;;;-98.68542;47.40669;74.25535;;723.2
938.0;815.8;;;;;;;;;;;;;;0.11517686;-0.16663106;0.23352763;;;;;723.2
938.0;815.8;;;;;;;;;;;;;;;;;-102.8016;50.298317;82.3046;;723.2
938.0;815.8;;;;;;;;;;;;;;-0.35242775;-0.18671224;0.3096408;;;;;723.2
938.0;815.8;;;;;;;;;;;;;;;;;-115.68423;49.69939;84.85672;;732.9
938.0;815.8;;;;;;;;;;;;;;-0.7691275;-0.33326212;0.013428144;;;;;732.9
938.0;815.8;;;;;;;;;;;;;;;;;-123.63811;44.74395;84.353165;;732.9
938.0;815.8;;;;;;;;;;;;;;-0.99130225;-0.45033112;-0.1948912;;;;;732.9
938.0;815.8;;;;;;;;;;;;;;;;;-124.95422;41.21525;81.75909;;742.4
938.0;815.8;;;;;;;;;;;;;;-1.1252174;-0.526017;-0.23499252;;;;;742.4
938.0;815.8;;;;;;;;;;;;;;;;;-123.77163;40.74221;78.3372;;742.4
938.0;815.8;;;;;;;;;;;;;;-1.2851344;-0.4824366;-0.2560503;;;;;742.4
938.0;823.3;;;;;;;;;;;;;;;;;-119.16334;39.510025;77.31102;;751.9
938.0;823.3;;;;;;;;;;;;;;-1.4382763;-0.3975341;-0.32697532;;;;;751.9
938.0;823.3;;;;;;;;;;;;;;;;;-115.52019;35.49684;80.51546;;751.9
938.0;823.3;;;;;;;;;;;;;;-1.5347759;-0.41407514;-0.42231512;;;;;751.9
938.0;823.3;;;;;;;;;;;;;;;;;-113.86837;32.46025;87.34398;;761.6
938.0;823.3;;;;;;;;;;;;;;-1.5529039;-0.49995422;-0.52589494;;;;;761.6
938.0;823.3;;;;;;;;;;;;;;;;;-111.24378;29.473251;94.52727;;761.6
938.0;823.3;;;;;;;;;;;;;;-1.5066378;-0.588641;-0.5337687;;;;;761.6
938.0;823.3;;;;;;;;;;;;;;;;;-105.8153;27.565844;99.467445;;771.2
938.0;823.3;;;;;;;;;;;;;;-1.4605548;-0.5986511;-0.42304757;;;;;771.2
938.0;823.3;;;;;;;;;;;;;;;;;-100.82934;24.197363;101.35578;;771.2
938.0;823.3;;;;;;;;;;;;;;-1.3687551;-0.58790857;-0.34614092;;;;;771.2
996.0;876.5;;;;;;;;;;;;;;;;;-96.24775;20.249031;101.71438;;780.8
996.0;876.5;;;;;;;;;;;;;;-1.2740867;-0.50215155;-0.33631396;;;;;780.8
996.0;876.5;;;;;;;;;;;;;;;;;-91.73101;20.569475;101.23371;;780.8
996.0;876.5;;;;;;;;;;;;;;-1.2881253;-0.36573383;-0.39173558;;;;;780.8
996.0;876.5;;;;;;;;;;;;;;;;;-90.66667;24.018068;98.921936;;790.5
996.0;876.5;;;;;;;;;;;;;;-1.4072084;-0.28150272;-0.40540788;;;;;790.5
996.0;876.5;;;;;;;;;;;;;;;;;-93.48201;25.543993;92.17353;;790.5
996.0;876.5;;;;;;;;;;;;;;-1.4387646;-0.3175756;-0.36616108;;;;;790.5
996.0;876.5;;;;;;;;;;;;;;;;;-98.33064;26.84103;82.47627;;799.9
996.0;876.5;;;;;;;;;;;;;;-1.3735161;-0.3916135;-0.37202063;;;;;799.9
996.0;876.5;;;;;;;;;;;;;;;;;-102.1836;26.108585;72.75994;;799.9
996.0;876.5;;;;;;;;;;;;;;-1.2138432;-0.42579424;-0.4015015;;;;;799.9
996.0;883.6;;;;;;;;;;;;;;;;;-102.25608;25.627918;66.4655;;809.5
996.0;883.6;;;;;;;;;;;;;;-1.0607014;-0.43385112;-0.3579211;;;;;809.5
996.0;883.6;;;;;;;;;;;;;;;;;-100.67293;26.10477;64.1995;;809.5
996.0;883.6;;;;;;;;;;;;;;-0.9660329;-0.43073824;-0.29230627;;;;;809.5
996.0;883.6;;;;;;;;;;;;;;;;;-99.49797;25.490585;65.282906;;819.2
996.0;883.6;;;;;;;;;;;;;;-0.8737449;-0.42072818;-0.24060793;;;;;819.2
996.0;883.6;;;;;;;;;;;;;;;;;-98.75408;23.998993;68.00668;;819.2
996.0;883.6;;;;;;;;;;;;;;-0.7917722;-0.43818477;-0.22956023;;;;;819.2
996.0;883.6;;;;;;;;;;;;;;;;;-97.47612;22.797327;71.092865;;828.8
996.0;883.6;;;;;;;;;;;;;;-0.7218238;-0.460036;-0.21143223;;;;;828.8
996.0;883.6;;;;;;;;;;;;;;;;;-96.27827;21.835995;72.943054;;828.8
996.0;883.6;;;;;;;;;;;;;;-0.66335034;-0.49977112;-0.21539964;;;;;828.8
1056.0;936.3;;;;;;;;;;;;;;;;;-93.52016;21.679586;73.81283;;838.5
1056.0;936.3;;;;;;;;;;;;;;-0.6440016;-0.56379896;-0.21002838;;;;;838.5
1056.0;936.3;;;;;;;;;;;;;;;;;-88.44264;21.30955;74.31638;;838.5
1056.0;936.3;;;;;;;;;;;;;;-0.6485183;-0.6303293;-0.20612201;;;;;838.5
1056.0;936.3;;;;;;;;;;;;;;;;;-82.438126;20.943327;74.05698;;848.1
1056.0;936.3;;;;;;;;;;;;;;-0.66457105;-0.67091894;-0.20551164;;;;;848.1
1056.0;936.3;;;;;;;;;;;;;;;;;-76.593834;20.76403;74.09131;;848.1
1056.0;936.3;;;;;;;;;;;;;;-0.6847133;-0.7175512;-0.219306;;;;;848.1
1056.0;936.3;;;;;;;;;;;;;;;;;-70.61983;21.324808;73.62591;;857.7
1056.0;936.3;;;;;;;;;;;;;;-0.7160863;-0.7475814;-0.21607105;;;;;857.7
1056.0;936.3;;;;;;;;;;;;;;;;;-63.898132;21.855068;72.63787;;857.7
1056.0;936.3;;;;;;;;;;;;;;-0.7545396;-0.7788934;-0.21875668;;;;;857.7
1056.0;937.0;;;;;;;;;;;;;;;;;-55.7535;22.133549;72.477646;;867.3
1056.0;937.0;;;;;;;;;;;;;;-0.7843257;-0.7791986;-0.22846156;;;;;867.3
1056.0;937.0;;;;;;;;;;;;;;;;;-47.34947;22.659992;73.56868;;867.3
1056.0;937.0;;;;;;;;;;;;;;-0.8174688;-0.77681816;-0.23950927;;;;;867.3
1056.0;937.0;;;;;;;;;;;;;;;;;-39.326912;22.576067;75.00687;;876.9
1056.0;937.0;;;;;;;;;;;;;;-0.8402966;-0.74202704;-0.24036378;;;;;876.9
1056.0;937.0;;;;;;;;;;;;;;;;;-32.773064;22.469252;76.22379;;876.9
1056.0;937.0;;;;;;;;;;;;;;-0.86074406;-0.67293316;-0.24585712;;;;;876.9
1056.0;937.0;;;;;;;;;;;;;;;;;-28.305918;22.48451;77.53991;;886.6
1056.0;937.0;;;;;;;;;;;;;;-0.8766137;-0.6128727;-0.2540971;;;;;886.6
1056.0;937.0;;;;;;;;;;;;;;;;;-24.254585;21.881773;79.61516;;886.6
1056.0;937.0;;;;;;;;;;;;;;-0.9089022;-0.5602588;-0.23737296;;;;;886.6
1116.0;997.1;;;;;;;;;;;;;;;;;-20.023956;19.894253;81.80105;;896.1
1116.0;997.1;;;;;;;;;;;;;;-0.9241615;-0.50215155;-0.22437209;;;;;896.1
1116.0;997.1;;;;;;;;;;;;;;;;;-16.525774;17.708364;84.082306;;896.1
1116.0;997.1;;;;;;;;;;;;;;-0.94265574;-0.44721824;-0.20929594;;;;;896.1
1116.0;997.1;;;;;;;;;;;;;;;;;-14.641255;15.148624;86.02786;;905.8
1116.0;997.1;;;;;;;;;;;;;;-0.93203527;-0.39722893;-0.20697653;;;;;905.8
1116.0;997.1;;;;;;;;;;;;;;;;;-14.084292;13.153478;87.626274;;905.8
1116.0;997.1;;;;;;;;;;;;;;-0.92263556;-0.35084078;-0.20117801;;;;;905.8
1116.0;997.1;;;;;;;;;;;;;;;;;-15.217292;11.4978485;88.60286;;915.4
1116.0;997.1;;;;;;;;;;;;;;-0.90786463;-0.29969177;-0.18634602;;;;;915.4
1116.0;997.1;;;;;;;;;;;;;;;;;-18.158514;10.139774;89.07971;;915.4
1116.0;997.1;;;;;;;;;;;;;;-0.88302255;-0.24323252;-0.16815698;;;;;915.4
1116.0;997.9;;;;;;;;;;;;;;;;;-22.450178;9.73159;89.44593;;925.1
1116.0;997.9;;;;;;;;;;;;;;-0.86861783;-0.21198156;-0.15485092;;;;;925.1
1116.0;997.9;;;;;;;;;;;;;;;;;-27.53151;9.292887;89.69389;;925.1
1116.0;997.9;;;;;;;;;;;;;;-0.85067296;-0.20630513;-0.140141;;;;;925.1
1116.0;997.9;;;;;;;;;;;;;;;;;-32.67388;9.094516;89.67482;;934.8
1116.0;997.9;;;;;;;;;;;;;;-0.84524065;-0.19104587;-0.1353801;;;;;934.8
1116.0;997.9;;;;;;;;;;;;;;;;;-37.85821;8.579515;89.4383;;934.8
1116.0;997.9;;;;;;;;;;;;;;-0.83584094;-0.18030335;-0.12775049;;;;;934.8
1116.0;997.9;;;;;;;;;;;;;;;;;-42.84036;8.564257;89.06827;;944.4
1116.0;997.9;;;;;;;;;;;;;;-0.82448804;-0.17413862;-0.12610248;;;;;944.4
1116.0;997.9;;;;;;;;;;;;;;;;;-47.59743;9.277627;87.85898;;944.4
1116.0;997.9;;;;;;;;;;;;;;-0.82540363;-0.12512589;-0.14270455;;;;;944.4
1175.0;1056.9;;;;;;;;;;;;;;;;;-52.213356;9.338664;87.405014;;954.1
1175.0;1056.9;;;;;;;;;;;;;;-0.8134403;-0.135197;-0.1726127;;;;;954.1
1175.0;1056.9;;;;;;;;;;;;;;;;;-56.024353;9.578998;87.56524;;954.1
1175.0;1056.9;;;;;;;;;;;;;;-0.8249153;-0.15985595;-0.17493209;;;;;954.1
1175.0;1056.9;;;;;;;;;;;;;;;;;-58.51924;9.334849;87.87424;;963.8
1175.0;1056.9;;;;;;;;;;;;;;-0.83260596;-0.16962187;-0.17303994;;;;;963.8
1175.0;1056.9;;;;;;;;;;;;;;;;;-60.861538;8.484145;87.24479;;963.8
1175.0;1056.9;;;;;;;;;;;;;;-0.83999145;-0.17896055;-0.1744438;;;;;963.8
1175.0;1056.9;;;;;;;;;;;;;;;;;-62.288277;7.3015537;86.59246;;973.4
1175.0;1056.9;;;;;;;;;;;;;;-0.8413953;-0.17883846;-0.1871395;;;;;973.4
1175.0;1056.9;;;;;;;;;;;;;;;;;-63.123726;5.981628;85.989716;;973.4
1175.0;1056.9;;;;;;;;;;;;;;-0.84194463;-0.18414868;-0.20319223;;;;;973.4
1175.0;1057.7;;;;;;;;;;;;;;;;;-62.711723;4.6731467;85.67309;;983.1
1175.0;1057.7;;;;;;;;;;;;;;-0.8397473;-0.19531846;-0.21814631;;;;;983.1
1175.0;1057.7;;;;;;;;;;;;;;;;;-61.07898;3.0480363;85.72268;;983.1
1175.0;1057.7;;;;;;;;;;;;;;-0.8335826;-0.21839045;-0.22669148;;;;;983.1
1175.0;1057.7;;;;;;;;;;;;;;;;;-58.01187;2.0867033;85.91724;;992.7
1175.0;1057.7;;;;;;;;;;;;;;-0.82992035;-0.23212378;-0.2146672;;;;;992.7
1175.0;1057.7;;;;;;;;;;;;;;;;;-55.398724;1.5144811;85.37935;;992.7
1175.0;1057.7;;;;;;;;;;;;;;-0.82290107;-0.20026246;-0.21222572;;;;;992.7
1175.0;1057.7;;;;;;;;;;;;;;;;;-52.78176;1.5335552;84.78423;;1002.3
1175.0;1057.7;;;;;;;;;;;;;;-0.84047973;-0.17517625;-0.1981872;;;;;1002.3
1175.0;1057.7;;;;;;;;;;;;;;;;;-49.840538;0.9193701;83.738976;;1002.3
1175.0;1057.7;;;;;;;;;;;;;;-0.83620715;-0.14087345;-0.20697653;;;;;1002.3
1178.0;1117.2;;;;;;;;;;;;;;;;;-47.315136;1.4000366;82.781456;;1011.9
1178.0;1117.2;;;;;;;;;;;;;;-0.84957427;-0.10974456;-0.20502335;;;;;1011.9
1178.0;1117.2;;;;;;;;;;;;;;;;;-45.274208;1.4305551;81.7629;;1011.9
1178.0;1117.2;;;;;;;;;;;;;;-0.84829247;-0.09454634;-0.21277505;;;;;1011.9
1178.0;1117.2;;;;;;;;;;;;;;;;;-42.615284;1.5335552;80.824455;;1021.5
1178.0;1117.2;;;;;;;;;;;;;;-0.8568377;-0.119754635;-0.19098483;;;;;1021.5
1178.0;1117.2;;;;;;;;;;;;;;;;;-39.773247;1.4877774;79.2909;;1021.5
1178.0;1117.2;;;;;;;;;;;;;;-0.855739;-0.093264565;-0.18134098;;;;;1021.5
1178.0;1117.2;;;;;;;;;;;;;;;;;-38.0871;1.9989624;77.4102;;1031.1
1178.0;1117.2;;;;;;;;;;;;;;-0.8868679;-0.08117924;-0.16473891;;;;;1031.1
1178.0;1117.2;;;;;;;;;;;;;;;;;-36.90832;1.9875181;76.33443;;1031.1
1178.0;1117.2;;;;;;;;;;;;;;-0.89944154;-0.10614338;-0.17993714;;;;;1031.1
1178.0;1118.4;;;;;;;;;;;;;;;;;-35.81347;1.9302957;75.71261;;1040.7
1178.0;1118.4;;;;;;;;;;;;;;-0.9165929;-0.08716086;-0.18030335;;;;;1040.7
1178.0;1118.4;;;;;;;;;;;;;;;;;-35.145878;1.4496292;74.36217;;1040.7
1178.0;1118.4;;;;;;;;;;;;;;-0.9292276;-0.08539079;-0.19171728;;;;;1040.7
1178.0;1118.4;;;;;;;;;;;;;;;;;-33.95184;1.003296;72.71798;;1050.3
1178.0;1118.4;;;;;;;;;;;;;;-0.9510178;-0.083010346;-0.18768883;;;;;1050.3
1178.0;1118.4;;;;;;;;;;;;;;;;;-32.647175;0.045777764;70.78768;;1050.3
1178.0;1118.4;;;;;;;;;;;;;;-0.95474106;-0.094363235;-0.20252083;;;;;1050.3
1178.0;1118.4;;;;;;;;;;;;;;;;;-30.629139;-1.678518;68.78872;;1059.9
1178.0;1118.4;;;;;;;;;;;;;;-0.9620045;-0.103518784;-0.21771905;;;;;1059.9
1178.0;1118.4;;;;;;;;;;;;;;;;;-27.42088;-3.9254432;66.53799;;1059.9
1178.0;1118.4;;;;;;;;;;;;;;-0.9524827;-0.0949736;-0.2156438;;;;;1059.9
1246.0;1128.5;;;;0.0;0.0;0.0;;;;;;;;;;;;;;;
1246.0;1128.5;;;;-0.076824196;0.11515428;0.0055160527;;;;;;;;;;;;;;;
1246.0;1128.5;;;;-0.17927553;0.6337052;-0.073673256;;;;;;;;;;;;;;;
1246.0;1128.5;;;;-0.18037035;0.7103272;-0.092960365;;;;;;;;;;;;;;;
1246.0;1128.5;;;;-0.17957689;0.7098656;-0.09279633;;;;;;;;;;;;;;;
1246.0;1138.5;;;;-0.17811586;0.7094956;-0.09256745;;;;;;;;;;;;;;;
1246.0;1138.5;;;;-0.1765938;0.70979315;-0.092319496;;;;;;;;;;;;;;;
1246.0;1138.5;;;;-0.17513658;0.7115136;-0.09178925;;;;;;;;;;;;;;;
1246.0;1138.5;;;;-0.17405702;0.7134095;-0.09186936;;;;;;;;;;;;;;;
1246.0;1138.5;;;;-0.1731186;0.7151604;-0.09120179;;;;;;;;;;;;;;;
1246.0;1139.8;57473;57487;13004;;;;;;;;;;;;;;;;;;
1246.0;1148.4;;;;-0.17239381;0.7179566;-0.09069825;;;;;;;;;;;;;;;
1246.0;1148.4;;;;-0.17168428;0.72095114;-0.08971787;;;;;;;;;;;;;;;
1246.0;1148.4;;;;-0.1714287;0.72339636;-0.08915711;;;;;;;;;;;;;;;
1246.0;1148.4;;;;-0.17097475;0.7267228;-0.08807755;;;;;;;;;;;;;;;
1246.0;1148.4;;;;-0.17017366;0.73006445;-0.08612061;;;;;;;;;;;;;;;
1247.0;1158.5;;;;-0.1692505;0.73333365;-0.08604813;;;;;;;;;;;;;;;
1247.0;1158.5;;;;-0.16863634;0.73665625;-0.08504487;;;;;;;;;;;;;;;
1247.0;1158.5;;;;-0.16794206;0.7403603;-0.084716804;;;;;;;;;;;;;;;
1247.0;1158.5;;;;-0.16740419;0.74348456;-0.08325959;;;;;;;;;;;;;;;
1247.0;1158.5;;;;-0.16744234;0.74699026;-0.082199104;;;;;;;;;;;;;;;
1247.0;1159.8;73739;73796;13011;;;;;;;;;;;;;;;;;;
1247.0;1166.2;;;;;;;;;;;;;0;;;;;;;;
1247.0;1166.2;;;;;;;;;;;;;0;;;;;;;;
1247.0;1166.2;;;;;;;;;;;;;-1;;;;;;;;
1247.0;1166.2;;;;;;;;;;;;;-2;;;;;;;;
1247.0;1166.2;;;;;;;;;;;;;-2;;;;;;;;
1247.0;1168.6;;;;-0.16743852;0.7502481;-0.081794746;;;;;;;;;;;;;;;
1247.0;1168.6;;;;-0.16687776;0.7537919;-0.08109284;;;;;;;;;;;;;;;
1247.0;1168.6;;;;-0.16628648;0.75696576;-0.080371864;;;;;;;;;;;;;;;
1247.0;1168.6;;;;-0.16575243;0.7600213;-0.079925545;;;;;;;;;;;;;;;
1247.0;1168.6;;;;-0.1659012;0.7636453;-0.07973481;;;;;;;;;;;;;;;
1248.0;1177.4;;;;;;;;;;;;;;;;;-24.70092;-5.405591;64.153725;;1069.5
1248.0;1177.4;;;;;;;;;;;;;;-0.92934966;-0.083681755;-0.20575579;;;;;1069.5
1248.0;1177.4;;;;;;;;;;;;;;;;;-23.0224;-4.7685175;62.158573;;1069.5
1248.0;1177.4;;;;;;;;;;;;;;-0.9255043;-0.0883816;-0.19592883;;;;;1069.5
1248.0;1177.4;;;;;;;;;;;;;;;;;-22.141178;-3.624073;60.480053;;1079.0
1248.0;1177.4;;;;;;;;;;;;;;-0.9366131;-0.10412916;-0.20166631;;;;;1079.0
1248.0;1177.4;;;;;;;;;;;;;;;;;-21.42018;-3.1891842;58.7405;;1079.0
1248.0;1177.4;;;;;;;;;;;;;;-0.9377117;-0.12591937;-0.21216469;;;;;1079.0
1248.0;1177.4;;;;;;;;;;;;;;;;;-20.07355;-2.9450362;57.294685;;1088.6
1248.0;1177.4;;;;;;;;;;;;;;-0.939787;-0.13220619;-0.21973327;;;;;1088.6
1248.0;1177.4;;;;;;;;;;;;;;;;;-18.372143;-4.0665917;56.073944;;1088.6
1248.0;1177.4;;;;;;;;;;;;;;-0.9369793;-0.12958159;-0.22107609;;;;;1088.6
1248.0;1178.2;;;;;;;;;;;;;;;;;-16.041292;-5.8290353;54.910427;;1098.2
1248.0;1178.2;;;;;;;;;;;;;;-0.92684716;-0.13843197;-0.22992645;;;;;1098.2
1248.0;1178.2;;;;;;;;;;;;;;;;;-13.218329;-8.213294;53.77743;;1098.2
1248.0;1178.2;;;;;;;;;;;;;;-0.9087191;-0.11896115;-0.23169653;;;;;1098.2
1248.0;1178.2;;;;;;;;;;;;;;;;;-11.360515;-9.876553;52.17139;;1107.7
1248.0;1178.2;;;;;;;;;;;;;;-0.8881497;-0.09900205;-0.23126927;;;;;1107.7
1248.0;1178.2;;;;;;;;;;;;;;;;;-10.048219;-10.5822935;50.851467;;1107.7
1248.0;1178.2;;;;;;;;;;;;;;-0.8838771;-0.069093905;-0.22046572;;;;;1107.7
1248.0;1178.2;;;;;;;;;;;;;;;;;-9.044923;-11.226996;49.703205;;1117.3
1248.0;1178.2;;;;;;;;;;;;;;-0.87777334;-0.05487228;-0.21613209;;;;;1117.3
1248.0;1178.2;;;;;;;;;;;;;;;;;-8.259072;-11.131626;48.31843;;1117.3
1248.0;1178.2;;;;;;;;;;;;;;-0.8807642;-0.03912473;-0.20746483;;;;;1117.3
1294.0;1178.5;;;;-0.16585161;0.76688397;-0.07901002;;;;;;;;;;;;;;;
1294.0;1178.5;;;;-0.16498949;0.7710496;-0.07844163;;;;;;;;;;;;;;;
1294.0;1178.5;;;;-0.16427232;0.7747842;-0.07779313;;;;;;;;;;;;;;;
1294.0;1178.5;;;;-0.16394807;0.7783052;-0.07780457;;;;;;;;;;;;;;;
1294.0;1178.5;;;;-0.16355897;0.7820054;-0.0773697;;;;;;;;;;;;;;;
1294.0;1179.8;90123;90254;13007;;;;;;;;;;;;;;;;;;
1294.0;1188.6;;;;-0.1634102;0.7863351;-0.076564796;;;;;;;;;;;;;;;
1294.0;1188.6;;;;-0.16310503;0.7906686;-0.07610322;;;;;;;;;;;;;;;
1294.0;1188.6;;;;-0.16373445;0.7949449;-0.07699967;;;;;;;;;;;;;;;
1294.0;1188.6;;;;-0.16396333;0.79916394;-0.07751847;;;;;;;;;;;;;;;
1294.0;1188.6;;;;-0.16395952;0.8039323;-0.07850648;;;;;;;;;;;;;;;
1294.0;1198.6;;;;-0.16420366;0.80801404;-0.07887269;;;;;;;;;;;;;;;
1294.0;1198.6;;;;-0.1642418;0.8115121;-0.07993699;;;;;;;;;;;;;;;
1294.0;1198.6;;;;-0.16479875;0.8146211;-0.0809784;;;;;;;;;;;;;;;
1294.0;1198.6;;;;-0.1650963;0.8179208;-0.08117295;;;;;;;;;;;;;;;
1294.0;1198.6;;;;-0.16495897;0.8212472;-0.08123017;;;;;;;;;;;;;;;
1294.0;1200.0;106634;106598;13018;;;;;;;;;;;;;;;;;;
1294.0;1206.2;;;;;;;;;;;;;-12;;;;;;;;
1294.0;1206.2;;;;;;;;;;;;;-6;;;;;;;;
1294.0;1206.2;;;;;;;;;;;;;12;;;;;;;;
1294.0;1206.2;;;;;;;;;;;;;-55;;;;;;;;
1294.0;1206.2;;;;;;;;;;;;;-8;;;;;;;;
1296.0;1208.4;;;;-0.16510774;0.82413876;-0.08135224;;;;;;;;;;;;;;;
1296.0;1208.4;;;;-0.16495897;0.82735455;-0.08115006;;;;;;;;;;;;;;;
1296.0;1208.4;;;;-0.16505434;0.82984936;-0.08124543;;;;;;;;;;;;;;;
1296.0;1208.4;;;;-0.16590501;0.83348477;-0.0813675;;;;;;;;;;;;;;;
1296.0;1208.4;;;;-0.16615678;0.8370477;-0.08001328;;;;;;;;;;;;;;;
1296.0;1218.5;;;;-0.16640092;0.84077084;-0.07935334;;;;;;;;;;;;;;;
1296.0;1218.5;;;;-0.16724397;0.8437997;-0.07928086;;;;;;;;;;;;;;;
1296.0;1218.5;;;;-0.16803743;0.84721005;-0.078155525;;;;;;;;;;;;;;;
1296.0;1218.5;;;;-0.16886903;0.85037625;-0.07753373;;;;;;;;;;;;;;;
1296.0;1218.5;;;;-0.17029954;0.8537599;-0.07695008;;;;;;;;;;;;;;;
1296.0;1220.0;122899;122919;13017;;;;;;;;;;;;;;;;;;
1296.0;1228.6;;;;-0.1713791;0.85736096;-0.07698441;;;;;;;;;;;;;;;
1296.0;1228.6;;;;-0.17234041;0.8609315;-0.07681657;;;;;;;;;;;;;;;
1296.0;1228.6;;;;-0.17393114;0.86410534;-0.07586671;;;;;;;;;;;;;;;
1296.0;1228.6;;;;-0.17523195;0.8665124;-0.07540131;;;;;;;;;;;;;;;
1296.0;1228.6;;;;-0.17642595;0.8691865;-0.07523347;;;;;;;;;;;;;;;
1297.0;1237.5;;;;;;;;;;;;;;;;;-7.6029234;-10.765405;47.711876;;1127.0
1297.0;1237.5;;;;;;;;;;;;;;-0.89327675;-0.03936888;-0.20551164;;;;;1127.0
1297.0;1237.5;;;;;;;;;;;;;;;;;-7.133702;-11.139256;47.441025;;1127.0
1297.0;1237.5;;;;;;;;;;;;;;-0.90133363;-0.05346843;-0.20307016;;;;;1127.0
1297.0;1237.5;;;;;;;;;;;;;;;;;-6.931516;-11.940367;47.696617;;1136.6
1297.0;1237.5;;;;;;;;;;;;;;-0.9045686;-0.05749687;-0.19281594;;;;;1136.6
1297.0;1237.5;;;;;;;;;;;;;;;;;-6.1571097;-12.127293;48.62743;;1136.6
1297.0;1237.5;;;;;;;;;;;;;;-0.9193396;-0.099612415;-0.20081179;;;;;1136.6
1297.0;1237.5;;;;;;;;;;;;;;;;;-4.3565173;-12.192145;49.741352;;1146.0
1297.0;1237.5;;;;;;;;;;;;;;-0.9436323;-0.14697714;-0.19977416;;;;;1146.0
1297.0;1237.5;;;;;;;;;;;;;;;;;-1.781518;-13.058107;50.54628;;1146.0
1297.0;1237.5;;;;;;;;;;;;;;-0.9446089;-0.17999817;-0.19782098;;;;;1146.0
1297.0;1238.8;;;;;;;;;;;;;;;;;1.4648885;-14.793848;51.492355;;1155.7
1297.0;1238.8;;;;;;;;;;;;;;-0.944731;-0.24835964;-0.20001832;;;;;1155.7
1297.0;1238.8;;;;;;;;;;;;;;;;;5.775628;-16.003143;52.522354;;1155.7
1297.0;1238.8;;;;;;;;;;;;;;-0.9424116;-0.27332377;-0.18439284;;;;;1155.7
1297.0;1238.8;;;;;;;;;;;;;;;;;9.968108;-17.029327;53.11365;;1165.2
1297.0;1238.8;;;;;;;;;;;;;;-0.93527025;-0.32319102;-0.18042544;;;;;1165.2
1297.0;1238.8;;;;;;;;;;;;;;;;;14.942626;-17.742699;53.99106;;1165.2
1297.0;1238.8;;;;;;;;;;;;;;-0.9189734;-0.37604907;-0.17615284;;;;;1165.2
1297.0;1238.8;;;;;;;;;;;;;;;;;20.47029;-15.75518;55.516983;;1174.9
1297.0;1238.8;;;;;;;;;;;;;;-0.95272684;-0.43110445;-0.17303994;;;;;1174.9
1297.0;1238.8;;;;;;;;;;;;;;;;;26.184881;-14.427626;55.22324;;1174.9
1297.0;1238.8;;;;;;;;;;;;;;-1.0116276;-0.47810298;-0.14972381;;;;;1174.9
1355.0;1238.6;;;;-0.17898943;0.8713685;-0.07543183;;;;;;;;;;;;;;;
1355.0;1238.6;;;;-0.18133928;0.8729974;-0.07490922;;;;;;;;;;;;;;;
1355.0;1238.6;;;;-0.18303682;0.8745729;-0.07377244;;;;;;;;;;;;;;;
1355.0;1238.6;;;;-0.1853142;0.8761941;-0.072853096;;;;;;;;;;;;;;;
1355.0;1238.6;;;;-0.18765643;0.8775445;-0.071147926;;;;;;;;;;;;;;;
1355.0;1240.0;139299;139461;13019;;;;;;;;;;;;;;;;;;
1355.0;1246.3;;;;;;;;;;;;;-80;;;;;;;;
1355.0;1246.3;;;;;;;;;;;;;-132;;;;;;;;
1355.0;1246.3;;;;;;;;;;;;;125;;;;;;;;
1355.0;1246.3;;;;;;;;;;;;;-495;;;;;;;;
1355.0;1246.3;;;;;;;;;;;;;-144;;;;;;;;
1355.0;1248.6;;;;-0.18994525;0.8793565;-0.06988526;;;;;;;;;;;;;;;
1355.0;1248.6;;;;-0.19102862;0.8822099;-0.068523414;;;;;;;;;;;;;;;
1355.0;1248.6;;;;-0.19292453;0.88489926;-0.06746293;;;;;;;;;;;;;;;
1355.0;1248.6;;;;-0.19515613;0.8871919;-0.064926155;;;;;;;;;;;;;;;
1355.0;1248.6;;;;-0.19733432;0.8902894;-0.062530525;;;;;;;;;;;;;;;
1355.0;1258.6;;;;-0.20027164;0.8936273;-0.06009675;;;;;;;;;;;;;;;
1355.0;1258.6;;;;-0.20290759;0.89766324;-0.057006843;;;;;;;;;;;;;;;
1355.0;1258.6;;;;-0.20566943;0.90161145;-0.05409623;;;;;;;;;;;;;;;
1355.0;1258.6;;;;-0.20904544;0.90583813;-0.051013954;;;;;;;;;;;;;;;
1355.0;1258.6;;;;-0.21167377;0.9106637;-0.046997078;;;;;;;;;;;;;;;
1355.0;1260.1;155787;155768;13025;;;;;;;;;;;;;;;;;;
1357.0;1268.4;;;;-0.21498492;0.9157945;-0.044052128;;;;;;;;;;;;;;;
1357.0;1268.4;;;;-0.21805575;0.9211618;-0.04043198;;;;;;;;;;;;;;;
1357.0;1268.4;;;;-0.22103122;0.9262239;-0.036521915;;;;;;;;;;;;;;;
1357.0;1268.4;;;;-0.22386554;0.9318124;-0.032722477;;;;;;;;;;;;;;;
1357.0;1268.4;;;;-0.2267113;0.93742;-0.028926853;;;;;;;;;;;;;;;
1357.0;1278.5;;;;-0.22943118;0.9435693;-0.024391178;;;;;;;;;;;;;;;
1357.0;1278.5;;;;-0.2326012;0.94973767;-0.020168306;;;;;;;;;;;;;;;
1357.0;1278.5;;;;-0.23601916;0.9558908;-0.015510561;;;;;;;;;;;;;;;
1357.0;1278.5;;;;-0.23991397;0.96297467;-0.010929109;;;;;;;;;;;;;;;
1357.0;1278.5;;;;-0.24330905;0.9705621;-0.006641389;;;;;;;;;;;;;;;
1357.0;1280.1;172083;172095;13031;;;;;;;;;;;;;;;;;;
1357.0;1286.4;;;;;;;;;;;;;1670;;;;;;;;
1357.0;1286.4;;;;;;;;;;;;;-35;;;;;;;;
1357.0;1286.4;;;;;;;;;;;;;-3636;;;;;;;;
1357.0;1286.4;;;;;;;;;;;;;54;;;;;;;;
1357.0;1286.4;;;;;;;;;;;;;15086;;;;;;;;
1357.0;1288.6;;;;-0.24645999;0.9783746;-0.0028190615;;;;;;;;;;;;;;;
1357.0;1288.6;;;;-0.24902728;0.98804104;0.0015068057;;;;;;;;;;;;;;;
1357.0;1288.6;;;;-0.25244525;0.997471;0.0053062444;;;;;;;;;;;;;;;
1357.0;1288.6;;;;-0.25634387;1.0063592;0.009536744;;;;;;;;;;;;;;;
1357.0;1288.6;;;;-0.2601395;1.0167924;0.01394272;;;;;;;;;;;;;;;
1358.0;1297.7;;;;;;;;;;;;;;;;;30.751213;-17.151402;55.9595;;1184.5
1358.0;1297.7;;;;;;;;;;;;;;-0.9389935;-0.44367808;-0.15430158;;;;;1184.5
1358.0;1297.7;;;;;;;;;;;;;;;;;34.287544;-13.634145;58.717613;;1184.5
1358.0;1297.7;;;;;;;;;;;;;;-0.93295085;-0.43910033;-0.16840114;;;;;1184.5
1358.0;1297.7;;;;;;;;;;;;;;;;;38.827175;-9.247108;60.819572;;1194.1
1358.0;1297.7;;;;;;;;;;;;;;-0.9679251;-0.43623158;-0.16022217;;;;;1194.1
1358.0;1297.7;;;;;;;;;;;;;;;;;43.3401;-7.080294;61.788536;;1194.1
1358.0;1297.7;;;;;;;;;;;;;;-0.96804714;-0.44166386;-0.17133091;;;;;1194.1
1358.0;1297.7;;;;;;;;;;;;;;;;;47.37617;-5.432295;62.31498;;1203.7
1358.0;1297.7;;;;;;;;;;;;;;-0.97775203;-0.42103335;-0.15625477;;;;;1203.7
1358.0;1297.7;;;;;;;;;;;;;;;;;50.290688;-4.627369;62.032684;;1203.7
1358.0;1297.7;;;;;;;;;;;;;;-0.9806818;-0.43787956;-0.16425061;;;;;1203.7
1358.0;1298.5;;;;;;;;;;;;;;;;;52.346874;-3.4981842;61.826683;;1213.1
1358.0;1298.5;;;;;;;;;;;;;;-0.99215674;-0.43336284;-0.1556444;;;;;1213.1
1358.0;1298.5;;;;;;;;;;;;;;;;;52.42317;-2.8572955;61.449017;;1213.1
1358.0;1298.5;;;;;;;;;;;;;;-1.0055238;-0.43421736;-0.14831996;;;;;1213.1
1358.0;1298.5;;;;;;;;;;;;;;;;;51.14139;-1.8501847;60.220646;;1222.7
1358.0;1298.5;;;;;;;;;;;;;;-1.0277413;-0.4431898;-0.14233834;;;;;1222.7
1358.0;1298.5;;;;;;;;;;;;;;;;;48.490097;-1.1825923;58.202614;;1222.7
1358.0;1298.5;;;;;;;;;;;;;;-1.0576495;-0.46906948;-0.14636678;;;;;1222.7
1358.0;1298.5;;;;;;;;;;;;;;;;;44.370094;-1.6556292;55.51317;;1232.4
1358.0;1298.5;;;;;;;;;;;;;;-1.0716879;-0.47547838;-0.1429487;;;;;1232.4
1358.0;1298.5;;;;;;;;;;;;;;;;;39.857174;-2.2049623;52.529984;;1232.4
1358.0;1298.5;;;;;;;;;;;;;;-1.0882291;-0.48438978;-0.13574633;;;;;1232.4
1360.0;1298.5;;;;-0.26436237;1.0272676;0.018135073;;;;;;;;;;;;;;;
1360.0;1298.5;;;;-0.26873782;1.0382043;0.023010256;;;;;;;;;;;;;;;
1360.0;1298.5;;;;-0.27239993;1.0494348;0.026481632;;;;;;;;;;;;;;;
1360.0;1298.5;;;;-0.27649692;1.0613366;0.0304184;;;;;;;;;;;;;;;
1360.0;1298.5;;;;-0.27940372;1.0732042;0.03472138;;;;;;;;;;;;;;;
1360.0;1300.1;188518;188516;13014;;;;;;;;;;;;;;;;;;
1360.0;1308.5;;;;-0.28182605;1.0858804;0.038581852;;;;;;;;;;;;;;;
1360.0;1308.5;;;;-0.28529742;1.0981828;0.041694645;;;;;;;;;;;;;;;
1360.0;1308.5;;;;-0.28825;1.1107293;0.045082096;;;;;;;;;;;;;;;
1360.0;1308.5;;;;-0.2899666;1.1244546;0.048522957;;;;;;;;;;;;;;;
1360.0;1308.5;;;;-0.292244;1.1380044;0.050777443;;;;;;;;;;;;;;;
1360.0;1312.6;;;;;;;;;;;;;;;;;34.829247;-2.7733696;49.42473;;1241.9
1360.0;1312.6;;;;;;;;;;;;;;-1.1061739;-0.46980193;-0.13055818;;;;;1241.9
1360.0;1312.6;;;;;;;;;;;;;;;;;28.633991;-2.494888;46.857357;;1241.9
1360.0;1312.6;;;;;;;;;;;;;;-1.1100802;-0.46449172;-0.13605152;;;;;1241.9
1360.0;1312.6;;;;;;;;;;;;;;;;;22.885067;-1.823481;44.480724;;1251.4
1360.0;1312.6;;;;;;;;;;;;;;-1.1120945;-0.4547258;-0.13660085;;;;;1251.4
1360.0;1312.6;;;;;;;;;;;;;;;;;18.086031;-0.4158147;42.03543;;1251.4
1360.0;1312.6;;;;;;;;;;;;;;-1.1322367;-0.4316538;-0.13312174;;;;;1251.4
1360.0;1312.6;;;;;;;;;;;;;;;;;14.286477;1.2436292;39.548172;;1261.0
1360.0;1312.6;;;;;;;;;;;;;;-1.1538438;-0.3980224;-0.15063937;;;;;1261.0
1360.0;1312.6;;;;;;;;;;;;;;;;;11.2880335;4.1238136;36.62984;;1261.0
1360.0;1312.6;;;;;;;;;;;;;;-1.1925412;-0.35554063;-0.17517625;;;;;1261.0
1415.0;1318.5;;;;-0.29434207;1.1529123;0.05303193;;;;;;;;;;;;;;;
1415.0;1318.5;;;;-0.29509357;1.1679422;0.054645546;;;;;;;;;;;;;;;
1415.0;1318.5;;;;-0.29534152;1.183262;0.05536271;;;;;;;;;;;;;;;
1415.0;1318.5;;;;-0.2962685;1.199032;0.05522538;;;;;;;;;;;;;;;
1415.0;1318.5;;;;-0.29659274;1.2163812;0.05454255;;;;;;;;;;;;;;;
1415.0;1320.1;204920;204894;13015;;;;;;;;;;;;;;;;;;
1415.0;1326.2;;;;;;;;;;;;;32785;;;;;;;;
1415.0;1326.2;;;;;;;;;;;;;40697;;;;;;;;
1415.0;1326.2;;;;;;;;;;;;;37557;;;;;;;;
1415.0;1326.2;;;;;;;;;;;;;32370;;;;;;;;
1415.0;1326.2;;;;;;;;;;;;;31682;;;;;;;;
1415.0;1328.3;;;;-0.29576877;1.235325;0.053611763;;;;;;;;;;;;;;;
1415.0;1328.3;;;;-0.29495624;1.2547609;0.05265809;;;;;;;;;;;;;;;
1415.0;1328.3;;;;-0.2947159;1.2740327;0.051876076;;;;;;;;;;;;;;;
1415.0;1328.3;;;;-0.29456714;1.293358;0.05016709;;;;;;;;;;;;;;;
1415.0;1328.3;;;;-0.29380038;1.3111993;0.047191627;;;;;;;;;;;;;;;
1415.0;1338.3;;;;-0.29260638;1.3290902;0.044601444;;;;;;;;;;;;;;;
1415.0;1338.3;;;;-0.29180148;1.346901;0.041183475;;;;;;;;;;;;;;;
1415.0;1338.3;;;;-0.2905617;1.3638345;0.037746433;;;;;;;;;;;;;;;
1415.0;1338.3;;;;-0.28933337;1.3793718;0.03389359;;;;;;;;;;;;;;;
1415.0;1338.3;;;;-0.28882602;1.3936425;0.029838566;;;;;;;;;;;;;;;
1415.0;1340.0;221283;221310;13014;;;;;;;;;;;;;;;;;;
1419.0;1348.4;;;;-0.2894478;1.4061471;0.025398258;;;;;;;;;;;;;;;
1419.0;1348.4;;;;-0.2893105;1.4176904;0.021213533;;;;;;;;;;;;;;;
1419.0;1348.4;;;;-0.28885654;1.4281617;0.018070223;;;;;;;;;;;;;;;
1419.0;1348.4;;;;-0.28919223;1.437771;0.013481142;;;;;;;;;;;;;;;
1419.0;1348.4;;;;-0.2904587;1.4470865;0.009658814;;;;;;;;;;;;;;;
1419.0;1357.6;;;;;;;;;;;;;;;;;9.441664;6.008332;33.684807;;1270.6
1419.0;1357.6;;;;;;;;;;;;;;-1.249733;-0.35602894;-0.23682363;;;;;1270.6
1419.0;1357.6;;;;;;;;;;;;;;;;;9.968108;5.33311;30.59099;;1270.6
1419.0;1357.6;;;;;;;;;;;;;;-1.2934965;-0.33393353;-0.27350688;;;;;1270.6
1419.0;1357.6;;;;;;;;;;;;;;;;;11.951812;3.6011841;26.299326;;1280.2
1419.0;1357.6;;;;;;;;;;;;;;-1.3287148;-0.3096408;-0.31311992;;;;;1280.2
1419.0;1357.6;;;;;;;;;;;;;;;;;15.079958;0.6866665;20.989105;;1280.2
1419.0;1357.6;;;;;;;;;;;;;;-1.333964;-0.25476852;-0.30579546;;;;;1280.2
1419.0;1357.6;;;;;;;;;;;;;;;;;18.669699;-2.5673697;14.759515;;1289.9
1419.0;1357.6;;;;;;;;;;;;;;-1.3450117;-0.1861629;-0.29914242;;;;;1289.9
1419.0;1357.6;;;;;;;;;;;;;;;;;22.709585;-4.737999;8.831293;;1289.9
1419.0;1357.6;;;;;;;;;;;;;;-1.3923764;-0.09997864;-0.31055635;;;;;1289.9
1419.0;1358.4;;;;-0.2913132;1.4551584;0.006351472;;;;;;;;;;;;;;;
1419.0;1358.4;;;;-0.29161456;1.4623948;0.002929688;;;;;;;;;;;;;;;
1419.0;1358.4;;;;-0.29345325;1.4683801;-0.0013198854;;;;;;;;;;;;;;;
1419.0;1358.4;;;;-0.29644397;1.4729577;-0.005287171;;;;;;;;;;;;;;;
1419.0;1358.4;;;;-0.2986031;1.4762193;-0.0075263986;;;;;;;;;;;;;;;
1419.0;1360.1;237644;237645;13003;;;;;;;;;;;;;;;;;;
1420.0;1366.3;;;;;;;;;;;;;31871;;;;;;;;
1420.0;1366.3;;;;;;;;;;;;;29657;;;;;;;;
1420.0;1366.3;;;;;;;;;;;;;27719;;;;;;;;
1420.0;1366.3;;;;;;;;;;;;;26275;;;;;;;;
1420.0;1366.3;;;;;;;;;;;;;24928;;;;;;;;
1420.0;1368.4;;;;-0.3021126;1.4791223;-0.010169984;;;;;;;;;;;;;;;
1420.0;1368.4;;;;-0.30484775;1.4809419;-0.013004305;;;;;;;;;;;;;;;
1420.0;1368.4;;;;-0.3081818;1.4820138;-0.015239717;;;;;;;;;;;;;;;
1420.0;1368.4;;;;-0.31232074;1.4818307;-0.017105104;;;;;;;;;;;;;;;
1420.0;1368.4;;;;-0.3162308;1.4814531;-0.018421175;;;;;;;;;;;;;;;
1420.0;1373.0;;;;;;;;;;;;;;;;;27.15766;-7.328257;3.9864802;;1299.4
1420.0;1373.0;;;;;;;;;;;;;;-1.4418164;-0.022461623;-0.32471696;;;;;1299.4
1420.0;1373.0;;;;;;;;;;;;;;;;;32.67388;-9.952848;1.0757774;;1299.4
1420.0;1373.0;;;;;;;;;;;;;;-1.4761803;0.028565325;-0.3340556;;;;;1299.4
1420.0;1373.0;;;;;;;;;;;;;;;;;38.548695;-12.668996;-0.74007386;;1309.1
1420.0;1373.0;;;;;;;;;;;;;;-1.494003;0.080996126;-0.31470686;;;;;1309.1
1420.0;1373.0;;;;;;;;;;;;;;;;;42.47795;-15.774254;-2.5482955;;1309.1
1420.0;1373.0;;;;;;;;;;;;;;-1.5011444;0.11578722;-0.27900022;;;;;1309.1
1420.0;1373.0;;;;;;;;;;;;;;;;;43.22184;-18.189032;-4.5167394;;1318.5
1420.0;1373.0;;;;;;;;;;;;;;-1.5034639;0.10864589;-0.24604023;;;;;1318.5
1420.0;1373.0;;;;;;;;;;;;;;;;;40.540024;-19.627216;-6.6644797;;1318.5
1420.0;1373.0;;;;;;;;;;;;;;-1.480697;0.093813896;-0.20386365;;;;;1318.5
1475.0;1378.3;;;;-0.32096484;1.4794503;-0.018428804;;;;;;;;;;;;;;;
1475.0;1378.3;;;;-0.3257828;1.4773256;-0.01784897;;;;;;;;;;;;;;;
1475.0;1378.3;;;;-0.33078006;1.4731256;-0.017356874;;;;;;;;;;;;;;;
1475.0;1378.3;;;;-0.33710483;1.4677469;-0.015792849;;;;;;;;;;;;;;;
1475.0;1378.3;;;;-0.34339908;1.4609529;-0.013973238;;;;;;;;;;;;;;;
1475.0;1380.1;254080;254000;12998;;;;;;;;;;;;;;;;;;
1475.0;1388.3;;;;-0.35015872;1.4521753;-0.010368348;;;;;;;;;;;;;;;
1475.0;1388.3;;;;-0.35738376;1.4425966;-0.006702424;;;;;;;;;;;;;;;
1475.0;1388.3;;;;-0.36473468;1.4327356;-0.0029525761;;;;;;;;;;;;;;;
1475.0;1388.3;;;;-0.3720322;1.4223253;0.00195694;;;;;;;;;;;;;;;
1475.0;1388.3;;;;-0.37913138;1.4119836;0.0065307627;;;;;;;;;;;;;;;
1475.0;1398.3;;;;-0.386612;1.4012529;0.012035372;;;;;;;;;;;;;;;
1475.0;1398.3;;;;-0.39393622;1.3895837;0.016998293;;;;;;;;;;;;;;;
1475.0;1398.3;;;;-0.4008332;1.3778039;0.022987368;;;;;;;;;;;;;;;
1475.0;1398.3;;;;-0.40943915;1.3669168;0.028221134;;;;;;;;;;;;;;;
1475.0;1398.3;;;;-0.41872412;1.3563844;0.033737186;;;;;;;;;;;;;;;
1475.0;1400.1;262143;262143;13001;;;;;;;;;;;;;;;;;;
1475.0;1406.4;;;;;;;;;;;;;24152;;;;;;;;
1475.0;1406.4;;;;;;;;;;;;;23419;;;;;;;;
1475.0;1406.4;;;;;;;;;;;;;22844;;;;;;;;
1475.0;1406.4;;;;;;;;;;;;;22137;;;;;;;;
1475.0;1406.4;;;;;;;;;;;;;20638;;;;;;;;
1476.0;1408.4;;;;-0.42875677;1.3459703;0.039924625;;;;;;;;;;;;;;;
1476.0;1408.4;;;;-0.43894202;1.3348962;0.046882637;;;;;;;;;;;;;;;
1476.0;1408.4;;;;-0.4489861;1.3242303;0.054573067;;;;;;;;;;;;;;;
1476.0;1408.4;;;;-0.4578858;1.313656;0.06250764;;;;;;;;;;;;;;;
1476.0;1408.4;;;;-0.4654618;1.3045045;0.07126237;;;;;;;;;;;;;;;
1476.0;1417.7;;;;;;;;;;;;;;;;;33.455917;-20.695364;-9.674368;;1328.2
1476.0;1417.7;;;;;;;;;;;;;;-1.4134343;0.06878872;-0.1655324;;;;;1328.2
1476.0;1417.7;;;;;;;;;;;;;;;;;22.427288;-20.863216;-12.924589;;1328.2
1476.0;1417.7;;;;;;;;;;;;;;-1.3348186;0.031617176;-0.140141;;;;;1328.2
1476.0;1417.7;;;;;;;;;;;;;;;;;9.125034;-20.138401;-16.342663;;1337.8
1476.0;1417.7;;;;;;;;;;;;;;-1.2718284;-0.020142216;-0.12732323;;;;;1337.8
1476.0;1417.7;;;;;;;;;;;;;;;;;-4.9249244;-19.196144;-20.859402;;1337.8
1476.0;1417.7;;;;;;;;;;;;;;-1.2070681;-0.060487688;-0.109622486;;;;;1337.8
1476.0;1417.7;;;;;;;;;;;;;;;;;-18.951996;-18.230995;-26.909697;;1347.4
1476.0;1417.7;;;;;;;;;;;;;;-1.1544542;-0.09021272;-0.08539079;;;;;1347.4
1476.0;1417.7;;;;;;;;;;;;;;;;;-31.300545;-17.723623;-34.211246;;1347.4
1476.0;1417.7;;;;;;;;;;;;;;-1.0961639;-0.09887997;-0.05920591;;;;;1347.4
1476.0;1418.4;;;;-0.47167212;1.2955705;0.0800171;;;;;;;;;;;;;;;
1476.0;1418.4;;;;-0.4775086;1.2856637;0.089355476;;;;;;;;;;;;;;;
1476.0;1418.4;;;;-0.48449713;1.2774392;0.0987816;;;;;;;;;;;;;;;
1476.0;1418.4;;;;-0.49083716;tammi.96;0.108696;;;;;;;;;;;;;;;
1476.0;1418.4;;;;-0.49695212;1.2627717;0.11880495;;;;;;;;;;;;;;;
1476.0;1420.3;262143;262143;12991;;;;;;;;;;;;;;;;;;
1535.0;1428.4;;;;-0.50321203;1.2564927;0.12841035;;;;;;;;;;;;;;;
1535.0;1428.4;;;;-0.50936896;1.2508928;0.13831331;;;;;;;;;;;;;;;
1535.0;1428.4;;;;-0.51471716;1.2458268;0.1479912;;;;;;;;;;;;;;;
1535.0;1428.4;;;;-0.5198136;1.2427293;0.15771867;;;;;;;;;;;;;;;
1535.0;1428.4;;;;-0.52550894;1.2365304;0.1670418;;;;;;;;;;;;;;;
1535.0;1432.6;;;;;;;;;;;;;;;;;-41.348766;-17.31544;-42.455063;;1357.0
1535.0;1432.6;;;;;;;;;;;;;;-1.0521561;-0.11926634;-0.044129767;;;;;1357.0
1535.0;1432.6;;;;;;;;;;;;;;;;;-47.92169;-18.265327;-51.53813;;1357.0
1535.0;1432.6;;;;;;;;;;;;;;-1.023835;-0.13696708;-0.03747673;;;;;1357.0
1535.0;1432.6;;;;;;;;;;;;;;;;;-51.06128;-20.634327;-60.71657;;1366.7
1535.0;1432.6;;;;;;;;;;;;;;-0.9952086;-0.16364025;-0.032288585;;;;;1366.7
1535.0;1432.6;;;;;;;;;;;;;;;;;-51.637318;-22.854548;-69.65468;;1366.7
1535.0;1432.6;;;;;;;;;;;;;;-0.99343854;-0.20001832;-0.01660207;;;;;1366.7
1535.0;1432.6;;;;;;;;;;;;;;;;;-49.94354;-24.445328;-78.34101;;1376.2
1535.0;1432.6;;;;;;;;;;;;;;-1.0039979;-0.23773919;0.0023804437;;;;;1376.2
1535.0;1432.6;;;;;;;;;;;;;;;;;-46.48732;-24.25077;-86.11179;;1376.2
1535.0;1432.6;;;;;;;;;;;;;;-1.0241401;-0.28180793;0.024414808;;;;;1376.2
1535.0;1438.2;;;;-0.53274924;1.2315828;0.17570879;;;;;;;;;;;;;;;
1535.0;1438.2;;;;-0.54157645;1.2271806;0.1846657;;;;;;;;;;;;;;;
1535.0;1438.2;;;;-0.5505677;1.2227556;0.19290927;;;;;;;;;;;;;;;
1535.0;1438.2;;;;-0.5563775;1.2184335;0.20022586;;;;;;;;;;;;;;;
1535.0;1438.2;;;;-0.55886084;1.2149469;0.2077904;;;;;;;;;;;;;;;
1535.0;1440.2;262143;262143;12971;;;;;;;;;;;;;;;;;;
1544.0;1446.3;;;;;;;;;;;;;19057;;;;;;;;
1544.0;1446.3;;;;;;;;;;;;;19687;;;;;;;;
1544.0;1446.3;;;;;;;;;;;;;22592;;;;;;;;
1544.0;1446.3;;;;;;;;;;;;;20943;;;;;;;;
1544.0;1446.3;;;;;;;;;;;;;8743;;;;;;;;
1544.0;1448.1;;;;-0.5597001;1.2114526;0.21571353;;;;;;;;;;;;;;;
1544.0;1448.1;;;;-0.5600701;1.207779;0.22185138;;;;;;;;;;;;;;;
1544.0;1448.1;;;;-0.5586663;1.2050096;0.22677997;;;;;;;;;;;;;;;
1544.0;1448.1;;;;-0.55642325;1.2036363;0.2324715;;;;;;;;;;;;;;;
1544.0;1448.1;;;;-0.5551453;1.2021714;0.23640063;;;;;;;;;;;;;;;
1544.0;1458.2;;;;-0.55616766;1.2016717;0.24069598;;;;;;;;;;;;;;;
1544.0;1458.2;;;;-0.5568314;1.2012254;0.24496081;;;;;;;;;;;;;;;
1544.0;1458.2;;;;-0.55855185;1.1992418;0.2475281;;;;;;;;;;;;;;;
1544.0;1458.2;;;;-0.5598641;1.1982194;0.24998096;;;;;;;;;;;;;;;
1544.0;1458.2;;;;-0.55945975;1.198044;0.25296023;;;;;;;;;;;;;;;
1544.0;1460.2;262143;262143;12960;;;;;;;;;;;;;;;;;;
1544.0;1468.3;;;;-0.55919653;1.1948129;0.25418094;;;;;;;;;;;;;;;
1544.0;1468.3;;;;-0.5596848;1.1918641;0.2543755;;;;;;;;;;;;;;;
1544.0;1468.3;;;;-0.5606652;1.1882783;0.25532153;;;;;;;;;;;;;;;
1544.0;1468.3;;;;-0.56068426;1.18248;0.2549744;;;;;;;;;;;;;;;
1544.0;1468.3;;;;-0.5600396;1.1763879;0.25395206;;;;;;;;;;;;;;;
1546.0;1477.7;;;;;;;;;;;;;;;;;-41.711174;-21.053957;-93.23405;;1385.8
1546.0;1477.7;;;;;;;;;;;;;;-1.0508133;-0.34022033;0.034058657;;;;;1385.8
1546.0;1477.7;;;;;;;;;;;;;;;;;-35.546432;-15.278329;-99.36826;;1385.8
1546.0;1477.7;;;;;;;;;;;;;;-1.101291;-0.3867916;0.03216651;;;;;1385.8
1546.0;1477.7;;;;;;;;;;;;;;;;;-28.805658;-7.4198127;-104.174934;;1395.3
1546.0;1477.7;;;;;;;;;;;;;;-1.1340678;-0.43647572;-0.008667257;;;;;1395.3
1546.0;1477.7;;;;;;;;;;;;;;;;;-22.4044;3.9674063;-107.4633;;1395.3
1546.0;1477.7;;;;;;;;;;;;;;-1.1473739;-0.47267067;-0.092593156;;;;;1395.3
1546.0;1477.7;;;;;;;;;;;;;;;;;-18.101292;18.570513;-109.534744;;1405.0
1546.0;1477.7;;;;;;;;;;;;;;-1.187109;-0.49525437;-0.22632527;;;;;1405.0
1546.0;1477.7;;;;;;;;;;;;;;;;;-17.71218;31.521805;-110.97293;;1405.0
1546.0;1477.7;;;;;;;;;;;;;;-1.2736595;-0.49995422;-0.38264108;;;;;1405.0
1546.0;1478.3;;;;-0.55897146;1.1704942;0.25286868;;;;;;;;;;;;;;;
1546.0;1478.3;;;;-0.5559998;1.1627427;0.25179294;;;;;;;;;;;;;;;
1546.0;1478.3;;;;-0.552887;1.1543657;0.2503052;;;;;;;;;;;;;;;
1546.0;1478.3;;;;-0.550705;1.1460725;0.24560931;;;;;;;;;;;;;;;
1546.0;1478.3;;;;-0.5468598;1.1354524;0.23978809;;;;;;;;;;;;;;;
1546.0;1480.3;262143;262143;12948;;;;;;;;;;;;;;;;;;
1547.0;1485.6;;;;;;;;;;;;;;;;;-18.272957;36.51921;-111.35059;;1414.7
1547.0;1485.6;;;;;;;;;;;;;;-1.3990905;-0.51997435;-0.48670918;;;;;1414.7
1547.0;1485.6;;;;;;;;;;;;;;;;;-17.242958;31.392101;-112.121185;;1414.7
1547.0;1485.6;;;;;;;;;;;;;;-1.490402;-0.51960814;-0.51728874;;;;;1414.7
1547.0;1485.6;;;;;;;;;;;;;;;;;-14.221625;20.91281;-114.20789;;1424.3
1547.0;1485.6;;;;;;;;;;;;;;-1.5140843;-0.49592578;-0.4796289;;;;;1424.3
1547.0;1485.6;;;;;;;;;;;;;;;;;-8.514664;10.567034;-117.26356;;1424.3
1547.0;1485.6;;;;;;;;;;;;;;-1.4419996;-0.44959867;-0.41376996;;;;;1424.3
1547.0;1485.6;;;;;;;;;;;;;;;;;-0.7553331;7.0955534;-120.567184;;1433.9
1547.0;1485.6;;;;;;;;;;;;;;-1.366924;-0.3902707;-0.3292947;;;;;1433.9
1547.0;1485.6;;;;;;;;;;;;;;;;;6.6682944;9.10596;-122.882774;;1433.9
1547.0;1485.6;;;;;;;;;;;;;;-1.3194983;-0.36182746;-0.26630452;;;;;1433.9
1547.0;1486.5;;;;;;;;;;;;;-6954;;;;;;;;
1547.0;1486.5;;;;;;;;;;;;;-11931;;;;;;;;
1547.0;1486.5;;;;;;;;;;;;;-2068;;;;;;;;
1547.0;1486.5;;;;;;;;;;;;;11949;;;;;;;;
1547.0;1486.5;;;;;;;;;;;;;18368;;;;;;;;
1547.0;1488.3;;;;-0.54240423;1.1261102;0.23857883;;;;;;;;;;;;;;;
1547.0;1488.3;;;;-0.53355414;1.115925;0.23544696;;;;;;;;;;;;;;;
1547.0;1488.3;;;;-0.52504736;1.1041337;0.23035434;;;;;;;;;;;;;;;
1547.0;1488.3;;;;-0.52109915;1.0952989;0.22492221;;;;;;;;;;;;;;;
1547.0;1488.3;;;;-0.52026373;1.087391;0.22150806;;;;;;;;;;;;;;;
1596.0;1498.3;;;;-0.5195275;1.078251;0.2182732;;;;;;;;;;;;;;;
1596.0;1498.3;;;;-0.5160294;1.0672876;0.21200565;;;;;;;;;;;;;;;
1596.0;1498.3;;;;-0.5099984;1.0561334;0.20463184;;;;;;;;;;;;;;;
1596.0;1498.3;;;;-0.5011483;1.046322;0.20023349;;;;;;;;;;;;;;;
1596.0;1498.3;;;;-0.49351507;1.0356714;0.19552997;;;;;;;;;;;;;;;
1596.0;1500.3;262143;262143;12933;;;;;;;;;;;;;;;;;;
1596.0;1508.3;;;;-0.4865113;1.0236131;0.18950656;;;;;;;;;;;;;;;
1596.0;1508.3;;;;-0.4798699;1.0134774;0.18457414;;;;;;;;;;;;;;;
1596.0;1508.3;;;;-0.47472388;1.0039331;0.18062212;;;;;;;;;;;;;;;
1596.0;1508.3;;;;-0.46978766;0.9937593;0.1763611;;;;;;;;;;;;;;;
1596.0;1508.3;;;;-0.46316916;0.98202527;0.17171861;;;;;;;;;;;;;;;
1596.0;1518.3;;;;-0.4556008;0.9702836;0.16582109;;;;;;;;;;;;;;;
1596.0;1518.3;;;;-0.4470063;0.95936596;0.16036226;;;;;;;;;;;;;;;
1596.0;1518.3;;;;-0.43972784;0.9505006;0.15658952;;;;;;;;;;;;;;;
1596.0;1518.3;;;;-0.4334908;0.9414865;0.15331651;;;;;;;;;;;;;;;
1596.0;1518.3;;;;-0.42732626;0.9317018;0.1494446;;;;;;;;;;;;;;;
1596.0;1520.4;262143;262143;12933;;;;;;;;;;;;;;;;;;
1596.0;1526.7;;;;;;;;;;;;;17104;;;;;;;;
1596.0;1526.7;;;;;;;;;;;;;15188;;;;;;;;
1596.0;1526.7;;;;;;;;;;;;;15528;;;;;;;;
1596.0;1526.7;;;;;;;;;;;;;15841;;;;;;;;
1596.0;1526.7;;;;;;;;;;;;;15301;;;;;;;;
1599.0;1528.4;;;;-0.42436224;0.9220277;0.14517595;;;;;;;;;;;;;;;
1599.0;1528.4;;;;-0.41984564;0.91129696;0.14293672;;;;;;;;;;;;;;;
1599.0;1528.4;;;;-0.41416556;0.8999177;0.14141466;;;;;;;;;;;;;;;
1599.0;1528.4;;;;-0.40967947;0.89049923;0.13872148;;;;;;;;;;;;;;;
1599.0;1528.4;;;;-0.40541846;0.8808366;0.13706209;;;;;;;;;;;;;;;
1599.0;1537.9;;;;;;;;;;;;;;;;;14.034699;10.223701;-124.55748;;1443.4
1599.0;1537.9;;;;;;;;;;;;;;-1.2856838;-0.34302804;-0.2153386;;;;;1443.4
1599.0;1537.9;;;;;;;;;;;;;;;;;20.744957;10.040589;-124.988556;;1443.4
1599.0;1537.9;;;;;;;;;;;;;;-1.2449721;-0.324778;-0.19428083;;;;;1443.4
1599.0;1537.9;;;;;;;;;;;;;;;;;28.099916;8.541368;-124.988556;;1452.9
1599.0;1537.9;;;;;;;;;;;;;;-1.1974853;-0.2865688;-0.19458602;;;;;1452.9
1599.0;1537.9;;;;;;;;;;;;;;;;;34.302803;7.4198127;-124.988556;;1452.9
1599.0;1537.9;;;;;;;;;;;;;;-1.1637318;-0.2557451;-0.21680349;;;;;1452.9
1599.0;1537.9;;;;;;;;;;;;;;;;;38.41899;7.2519608;-124.988556;;1462.6
1599.0;1537.9;;;;;;;;;;;;;;-1.1781366;-0.19635609;-0.19672231;;;;;1462.6
1599.0;1537.9;;;;;;;;;;;;;;;;;40.42558;5.897702;-124.988556;;1462.6
1599.0;1537.9;;;;;;;;;;;;;;-1.2160405;-0.15619373;-0.14819789;;;;;1462.6
1599.0;1538.4;;;;-0.399334;0.87035;0.13531877;;;;;;;;;;;;;;;
1599.0;1538.4;;;;-0.39176565;0.86047757;0.1340294;;;;;;;;;;;;;;;
1599.0;1538.4;;;;-0.38441473;0.8525735;0.13380815;;;;;;;;;;;;;;;
1599.0;1538.4;;;;-0.37717825;0.8451272;0.13423158;;;;;;;;;;;;;;;
1599.0;1538.4;;;;-0.37011722;0.8375741;0.1343384;;;;;;;;;;;;;;;
1599.0;1540.5;262143;262143;12931;;;;;;;;;;;;;;;;;;
1654.0;1545.4;;;;;;;;;;;;;;;;;40.990173;1.6937773;-124.988556;;1472.2
1654.0;1545.4;;;;;;;;;;;;;;-1.2336192;-0.09009064;-0.08191168;;;;;1472.2
1654.0;1545.4;;;;;;;;;;;;;;;;;39.719837;-3.688925;-124.96567;;1472.2
1654.0;1545.4;;;;;;;;;;;;;;-1.2224494;-0.04364147;-0.02722251;;;;;1472.2
1654.0;1545.4;;;;;;;;;;;;;;;;;37.08762;-8.9991455;-124.96185;;1481.9
1654.0;1545.4;;;;;;;;;;;;;;-1.2032228;-0.02191229;0.022705771;;;;;1481.9
1654.0;1545.4;;;;;;;;;;;;;;;;;33.753475;-14.469588;-124.82833;;1481.9
1654.0;1545.4;;;;;;;;;;;;;;-1.1818599;-0.026123844;0.06604206;;;;;1481.9
1654.0;1545.4;;;;;;;;;;;;;;;;;30.762657;-19.562365;-124.774925;;1491.5
1654.0;1545.4;;;;;;;;;;;;;;-1.1427351;-0.016357921;0.0865505;;;;;1491.5
1654.0;1545.4;;;;;;;;;;;;;;;;;27.726065;-22.614216;-124.87411;;1491.5
1654.0;1545.4;;;;;;;;;;;;;;-1.1093478;0.04773095;0.14819789;;;;;1491.5
1654.0;1548.4;;;;-0.36513522;0.8291055;0.13328172;;;;;;;;;;;;;;;
1654.0;1548.4;;;;-0.36029437;0.82118237;0.13331224;;;;;;;;;;;;;;;
1654.0;1548.4;;;;-0.3573456;0.8120271;0.13391878;;;;;;;;;;;;;;;
1654.0;1548.4;;;;-0.3558922;0.8027879;0.13425447;;;;;;;;;;;;;;;
1654.0;1548.4;;;;-0.35380176;0.79455197;0.13524248;;;;;;;;;;;;;;;
1654.0;1558.4;;;;-0.3504639;0.7871858;0.13647462;;;;;;;;;;;;;;;
1654.0;1558.4;;;;-0.34644702;0.7801591;0.13795091;;;;;;;;;;;;;;;
1654.0;1558.4;;;;-0.34250644;0.77342236;0.13946916;;;;;;;;;;;;;;;
1654.0;1558.4;;;;-0.34001544;0.7668649;0.13961793;;;;;;;;;;;;;;;
1654.0;1558.4;;;;-0.3367882;0.7584878;0.1385193;;;;;;;;;;;;;;;
1654.0;1560.6;262143;262143;12918;;;;;;;;;;;;;;;;;;
1656.0;1566.8;;;;;;;;;;;;;15121;;;;;;;;
1656.0;1566.8;;;;;;;;;;;;;15237;;;;;;;;
1656.0;1566.8;;;;;;;;;;;;;15238;;;;;;;;
1656.0;1566.8;;;;;;;;;;;;;15021;;;;;;;;
1656.0;1566.8;;;;;;;;;;;;;14572;;;;;;;;
1656.0;1568.4;;;;-0.3320084;0.75130856;0.14034273;;;;;;;;;;;;;;;
1656.0;1568.4;;;;-0.326973;0.74441916;0.13900758;;;;;;;;;;;;;;;
1656.0;1568.4;;;;-0.32164767;0.7385865;0.13753511;;;;;;;;;;;;;;;
1656.0;1568.4;;;;-0.31798556;0.7317658;0.136158;;;;;;;;;;;;;;;
1656.0;1568.4;;;;-0.31474307;0.72549826;0.13445283;;;;;;;;;;;;;;;
1656.0;1578.6;;;;-0.31226352;0.7180863;0.13216402;;;;;;;;;;;;;;;
1656.0;1578.6;;;;-0.3119736;0.7101708;0.12968446;;;;;;;;;;;;;;;
1656.0;1578.6;;;;-0.31273654;0.7032662;0.12746431;;;;;;;;;;;;;;;
1656.0;1578.6;;;;-0.31484607;0.69577414;0.12550355;;;;;;;;;;;;;;;
1656.0;1578.6;;;;-0.31688693;0.6889916;0.12350084;;;;;;;;;;;;;;;
1656.0;1580.8;262143;262143;12919;;;;;;;;;;;;;;;;;;
1656.0;1588.7;;;;-0.319912;0.6824456;0.12122728;;;;;;;;;;;;;;;
1656.0;1588.7;;;;-0.32408908;0.6755143;0.11816026;;;;;;;;;;;;;;;
1656.0;1588.7;;;;-0.3279343;0.6683541;0.115287796;;;;;;;;;;;;;;;
1656.0;1588.7;;;;-0.3315659;0.66164786;0.11224748;;;;;;;;;;;;;;;
1656.0;1588.7;;;;-0.3337212;0.65549475;0.10914995;;;;;;;;;;;;;;;
1658.0;1598.3;;;;;;;;;;;;;;;;;23.419142;-21.813105;-124.9733;;1501.0
1658.0;1598.3;;;;;;;;;;;;;;-1.0644245;0.06469924;0.17108676;;;;;1501.0
1658.0;1598.3;;;;;;;;;;;;;;;;;19.768364;-19.54329;-124.988556;;1501.0
1658.0;1598.3;;;;;;;;;;;;;;-1.0312815;0.050355542;0.16321298;;;;;1501.0
1658.0;1598.3;;;;;;;;;;;;;;;;;16.617329;-17.124699;-124.98474;;1510.6
1658.0;1598.3;;;;;;;;;;;;;;-1.0484939;0.044801172;0.14502396;;;;;1510.6
1658.0;1598.3;;;;;;;;;;;;;;;;;13.447219;-16.17481;-124.86648;;1510.6
1658.0;1598.3;;;;;;;;;;;;;;-1.0804163;0.025879696;0.12610248;;;;;1510.6
1658.0;1598.3;;;;;;;;;;;;;;;;;12.8215885;-17.464216;-124.77111;;1520.2
1658.0;1598.3;;;;;;;;;;;;;;-1.0408642;-0.027954955;0.11389508;;;;;1520.2
1658.0;1598.3;;;;;;;;;;;;;;;;;14.957885;-17.525253;-124.59944;;1520.2
1658.0;1598.3;;;;;;;;;;;;;;-0.98873866;-0.100833155;0.07367168;;;;;1520.2
1658.0;1598.7;;;;-0.33551028;0.64965063;0.10655977;;;;;;;;;;;;;;;
1658.0;1598.7;;;;-0.33586887;0.6441346;0.10453798;;;;;;;;;;;;;;;
1658.0;1598.7;;;;-0.33526233;0.63904196;0.102771774;;;;;;;;;;;;;;;
1658.0;1598.7;;;;-0.33487704;0.6340218;0.10006334;;;;;;;;;;;;;;;
1658.0;1598.7;;;;-0.3353081;0.6294289;0.09761049;;;;;;;;;;;;;;;
1658.0;1600.9;262143;262143;12912;;;;;;;;;;;;;;;;;;
1659.0;1605.8;;;;;;;;;;;;;;;;;18.967255;-17.521439;-124.44304;;1529.9
1659.0;1605.8;;;;;;;;;;;;;;-0.9679251;-0.16132084;0.029786065;;;;;1529.9
1659.0;1605.8;;;;;;;;;;;;;;;;;24.311808;-20.142216;-124.6147;;1529.9
1659.0;1605.8;;;;;;;;;;;;;;-0.9488205;-0.22602008;-0.050477616;;;;;1529.9
1659.0;1605.8;;;;;;;;;;;;;;;;;30.251472;-23.693808;-124.44685;;1539.6
1659.0;1605.8;;;;;;;;;;;;;;-0.943083;-0.2501297;-0.12305063;;;;;1539.6
1659.0;1605.8;;;;;;;;;;;;;;;;;35.302284;-27.40562;-124.06537;;1539.6
1659.0;1605.8;;;;;;;;;;;;;;-0.9063997;-0.24512467;-0.18042544;;;;;1539.6
1659.0;1605.8;;;;;;;;;;;;;;;;;38.121433;-29.869991;-122.474594;;1549.1
1659.0;1605.8;;;;;;;;;;;;;;-0.8813135;-0.25037384;-0.2247383;;;;;1549.1
1659.0;1605.8;;;;;;;;;;;;;;;;;38.533436;-31.544693;-119.18241;;1549.1
1659.0;1605.8;;;;;;;;;;;;;;-0.8582415;-0.29468673;-0.26178777;;;;;1549.1
1659.0;1607.0;;;;;;;;;;;;;14114;;;;;;;;
1659.0;1607.0;;;;;;;;;;;;;13608;;;;;;;;
1659.0;1607.0;;;;;;;;;;;;;13052;;;;;;;;
1659.0;1607.0;;;;;;;;;;;;;12853;;;;;;;;
1659.0;1607.0;;;;;;;;;;;;;13257;;;;;;;;
1659.0;1608.6;;;;-0.33607867;0.6246491;0.09538652;;;;;;;;;;;;;;;
1659.0;1608.6;;;;-0.3376465;0.6186219;0.09286118;;;;;;;;;;;;;;;
1659.0;1608.6;;;;-0.34009936;0.6124268;0.090621956;;;;;;;;;;;;;;;
1659.0;1608.6;;;;-0.34194568;0.608574;0.087982185;;;;;;;;;;;;;;;
1659.0;1608.6;;;;-0.34450915;0.60560614;0.08646012;;;;;;;;;;;;;;;
1715.0;1618.6;;;;-0.3473511;0.60155874;0.08395005;;;;;;;;;;;;;;;
1715.0;1618.6;;;;-0.3495064;0.59784704;0.08107758;;;;;;;;;;;;;;;
1715.0;1618.6;;;;-0.3522034;0.593689;0.07880021;;;;;;;;;;;;;;;
1715.0;1618.6;;;;-0.35405734;0.58996207;0.07733155;;;;;;;;;;;;;;;
1715.0;1618.6;;;;-0.35588077;0.58736426;0.07487107;;;;;;;;;;;;;;;
1715.0;1620.9;262143;262143;12904;;;;;;;;;;;;;;;;;;
1715.0;1628.4;;;;-0.3586388;0.5851403;0.07200242;;;;;;;;;;;;;;;
1715.0;1628.4;;;;-0.3618813;0.58276373;0.06847764;;;;;;;;;;;;;;;
1715.0;1628.4;;;;-0.366478;0.58046347;0.06554032;;;;;;;;;;;;;;;
1715.0;1628.4;;;;-0.3712273;0.5787659;0.06248475;;;;;;;;;;;;;;;
1715.0;1628.4;;;;-0.37636572;0.5768662;0.059226997;;;;;;;;;;;;;;;
1715.0;1638.4;;;;-0.38065344;0.5752526;0.055919655;;;;;;;;;;;;;;;
1715.0;1638.4;;;;-0.3848191;0.5732575;0.0528946;;;;;;;;;;;;;;;
1715.0;1638.4;;;;-0.3878823;0.57186514;0.04998017;;;;;;;;;;;;;;;
1715.0;1638.4;;;;-0.39077765;0.5704194;0.04662705;;;;;;;;;;;;;;;
1715.0;1638.4;;;;-0.39366537;0.5689164;0.04370499;;;;;;;;;;;;;;;
1715.0;1640.7;262143;262143;12904;;;;;;;;;;;;;;;;;;
1715.0;1647.0;;;;;;;;;;;;;13972;;;;;;;;
1715.0;1647.0;;;;;;;;;;;;;14400;;;;;;;;
1715.0;1647.0;;;;;;;;;;;;;14529;;;;;;;;
1715.0;1647.0;;;;;;;;;;;;;14912;;;;;;;;
1715.0;1647.0;;;;;;;;;;;;;15498;;;;;;;;
1719.0;1648.5;;;;-0.3966065;0.56781775;0.041484836;;;;;;;;;;;;;;;
1719.0;1648.5;;;;-0.39973837;0.5675774;0.03862;;;;;;;;;;;;;;;
1719.0;1648.5;;;;-0.40336996;0.5679894;0.03683472;;;;;;;;;;;;;;;
1719.0;1648.5;;;;-0.40690237;0.56895834;0.035995487;;;;;;;;;;;;;;;
1719.0;1648.5;;;;-0.41120535;0.57028204;0.035350803;;;;;;;;;;;;;;;
1719.0;1658.2;;;;;;;;;;;;;;;;;37.667473;-33.040104;-117.02704;;1558.7
1719.0;1658.2;;;;;;;;;;;;;;-0.8446913;-0.357799;-0.2893765;;;;;1558.7
1719.0;1658.2;;;;;;;;;;;;;;;;;36.97699;-34.535507;-116.3976;;1558.7
1719.0;1658.2;;;;;;;;;;;;;;-0.8504898;-0.4067507;-0.2866909;;;;;1558.7
1719.0;1658.2;;;;;;;;;;;;;;;;;36.648914;-37.049473;-117.65267;;1568.3
1719.0;1658.2;;;;;;;;;;;;;;-0.8124027;-0.39436018;-0.27686393;;;;;1568.3
1719.0;1658.2;;;;;;;;;;;;;;;;;35.126804;-36.324657;-119.66689;;1568.3
1719.0;1658.2;;;;;;;;;;;;;;-0.79335916;-0.39448225;-0.2757042;;;;;1568.3
1719.0;1658.2;;;;;;;;;;;;;;;;;33.08588;-32.929474;-120.91433;;1577.9
1719.0;1658.2;;;;;;;;;;;;;;-0.8231452;-0.38264108;-0.2410352;;;;;1577.9
1719.0;1658.2;;;;;;;;;;;;;;;;;30.240026;-30.81988;-121.82989;;1577.9
1719.0;1658.2;;;;;;;;;;;;;;-0.8429823;-0.3703116;-0.20453505;;;;;1577.9
1719.0;1658.5;;;;-0.4155541;0.5721589;0.035556797;;;;;;;;;;;;;;;
1719.0;1658.5;;;;-0.41930777;0.5742417;0.03518677;;;;;;;;;;;;;;;
1719.0;1658.5;;;;-0.42299658;0.5763436;0.034564976;;;;;;;;;;;;;;;
1719.0;1658.5;;;;-0.42579275;0.57871634;0.03399277;;;;;;;;;;;;;;;
1719.0;1658.5;;;;-0.4284287;0.581276;0.032653812;;;;;;;;;;;;;;;
1719.0;1660.9;262143;262143;12908;;;;;;;;;;;;;;;;;;
1772.0;1665.7;;;;;;;;;;;;;;;;;28.06177;-28.95825;-122.19611;;1587.6
1772.0;1665.7;;;;;;;;;;;;;;-0.8587909;-0.33960998;-0.15857418;;;;;1587.6
1772.0;1665.7;;;;;;;;;;;;;;;;;26.547289;-28.229622;-122.47841;;1587.6
1772.0;1665.7;;;;;;;;;;;;;;-0.8445692;-0.31421858;-0.11993774;;;;;1587.6
1772.0;1665.7;;;;;;;;;;;;;;;;;24.85351;-26.837215;-122.12363;;1597.3
1772.0;1665.7;;;;;;;;;;;;;;-0.85958433;-0.21771905;-0.08075198;;;;;1597.3
1772.0;1665.7;;;;;;;;;;;;;;;;;23.159733;-26.154364;-121.066925;;1597.3
1772.0;1665.7;;;;;;;;;;;;;;-0.8604389;-0.17786187;-0.04571673;;;;;1597.3
1772.0;1665.7;;;;;;;;;;;;;;;;;23.274178;-25.822474;-119.22056;;1606.9
1772.0;1665.7;;;;;;;;;;;;;;-0.85262614;-0.15503404;-0.02148503;;;;;1606.9
1772.0;1665.7;;;;;;;;;;;;;;;;;25.460066;-26.680807;-116.9126;;1606.9
1772.0;1665.7;;;;;;;;;;;;;;-0.83639026;-0.1314127;-0.006653035;;;;;1606.9
1772.0;1668.4;;;;-0.43077475;0.5839005;0.031406406;;;;;;;;;;;;;;;
1772.0;1668.4;;;;-0.43341833;0.5868073;0.030902866;;;;;;;;;;;;;;;
1772.0;1668.4;;;;-0.43548208;0.58925635;0.029560093;;;;;;;;;;;;;;;
1772.0;1668.4;;;;-0.43773657;0.5906525;0.027904514;;;;;;;;;;;;;;;
1772.0;1668.4;;;;-0.44014364;0.59237677;0.026191715;;;;;;;;;;;;;;;
1772.0;1678.4;;;;-0.4425431;0.5941277;0.025932316;;;;;;;;;;;;;;;
1772.0;1678.4;;;;-0.44342428;0.596283;0.025924686;;;;;;;;;;;;;;;
1772.0;1678.4;;;;-0.44505316;0.5988427;0.025680546;;;;;;;;;;;;;;;
1772.0;1678.4;;;;-0.44674307;0.6012612;0.025386814;;;;;;;;;;;;;;;
1772.0;1678.4;;;;-0.4475327;0.6036568;0.024963383;;;;;;;;;;;;;;;
1772.0;1680.9;262143;262143;12923;;;;;;;;;;;;;;;;;;
1775.0;1687.1;;;;;;;;;;;;;15681;;;;;;;;
1775.0;1687.1;;;;;;;;;;;;;15168;;;;;;;;
1775.0;1687.1;;;;;;;;;;;;;14311;;;;;;;;
1775.0;1687.1;;;;;;;;;;;;;13803;;;;;;;;
1775.0;1687.1;;;;;;;;;;;;;13718;;;;;;;;
1775.0;1688.4;;;;-0.44891745;0.60602576;0.025405888;;;;;;;;;;;;;;;
1775.0;1688.4;;;;-0.45016867;0.609562;0.026481632;;;;;;;;;;;;;;;
1775.0;1688.4;;;;-0.45159537;0.6125718;0.027538303;;;;;;;;;;;;;;;
1775.0;1688.4;;;;-0.45259482;0.6161118;0.028816227;;;;;;;;;;;;;;;
1775.0;1688.4;;;;-0.45331198;0.6204873;0.03046799;;;;;;;;;;;;;;;
1775.0;1698.5;;;;-0.4541741;0.6243935;0.031753544;;;;;;;;;;;;;;;
1775.0;1698.5;;;;-0.45669943;0.6292725;0.03369904;;;;;;;;;;;;;;;
1775.0;1698.5;;;;-0.45863348;0.63358694;0.03598023;;;;;;;;;;;;;;;
1775.0;1698.5;;;;-0.46126944;0.63812643;0.03898621;;;;;;;;;;;;;;;
1775.0;1698.5;;;;-0.463749;0.6436234;0.04124451;;;;;;;;;;;;;;;
1775.0;1701.0;262143;262143;12943;;;;;;;;;;;;;;;;;;
1775.0;1708.6;;;;-0.465519;0.6482735;0.043823246;;;;;;;;;;;;;;;
1775.0;1708.6;;;;-0.46771628;0.6527749;0.047130592;;;;;;;;;;;;;;;
1775.0;1708.6;;;;-0.47026068;0.65756994;0.049797066;;;;;;;;;;;;;;;
1775.0;1708.6;;;;-0.47329336;0.6628724;0.052272804;;;;;;;;;;;;;;;
1775.0;1708.6;;;;-0.47616965;0.6680909;0.054740913;;;;;;;;;;;;;;;
1791.0;1718.5;;;;;;;;;;;;;;;;;27.653584;-28.271584;-115.8063;;1616.5
1791.0;1718.5;;;;;;;;;;;;;;-0.8031861;-0.12182989;-0.006042665;;;;;1616.5
1791.0;1718.5;;;;;;;;;;;;;;;;;31.056398;-29.48088;-113.91797;;1616.5
1791.0;1718.5;;;;;;;;;;;;;;-0.7768792;-0.15173803;0.003295999;;;;;1616.5
1791.0;1718.5;;;;;;;;;;;;;;;;;35.096287;-30.17899;-111.842705;;1626.0
1791.0;1718.5;;;;;;;;;;;;;;-0.7737663;-0.1563158;0.023194067;;;;;1626.0
1791.0;1718.5;;;;;;;;;;;;;;;;;37.99173;-31.338696;-109.97344;;1626.0
1791.0;1718.5;;;;;;;;;;;;;;-0.75521106;-0.1477096;0.009399701;;;;;1626.0
1791.0;1718.5;;;;;;;;;;;;;;;;;40.18143;-32.26951;-108.684044;;1635.5
1791.0;1718.5;;;;;;;;;;;;;;-0.72493666;-0.14563432;0.00286874;;;;;1635.5
1791.0;1718.5;;;;;;;;;;;;;;;;;41.657764;-32.376324;-107.284004;;1635.5
1791.0;1718.5;;;;;;;;;;;;;;-0.7093722;-0.15845211;-0.0049439985;;;;;1635.5
1791.0;1718.7;;;;-0.47928244;0.6729279;0.056911476;;;;;;;;;;;;;;;
1791.0;1718.7;;;;-0.48289877;0.6776543;0.058589943;;;;;;;;;;;;;;;
1791.0;1718.7;;;;-0.48571783;0.6823388;0.06007386;;;;;;;;;;;;;;;
1791.0;1718.7;;;;-0.48837286;0.6865197;0.061897285;;;;;;;;;;;;;;;
1791.0;1718.7;;;;-0.49007422;0.6914101;0.065544136;;;;;;;;;;;;;;;
1792.0;1719.4;;;;;;;;;;;;;;;;;42.9281;-32.368694;-105.540634;;1645.2
1792.0;1719.4;;;;;;;;;;;;;;-0.6961882;-0.17517625;-0.013061922;;;;;1645.2
1792.0;1719.4;;;;;;;;;;;;;;;;;43.923767;-32.101658;-103.94223;;1645.2
1792.0;1719.4;;;;;;;;;;;;;;-0.6925871;-0.19830927;-0.008301035;;;;;1645.2
1792.0;1719.4;;;;;;;;;;;;;;;;;44.007694;-31.418804;-101.78686;;1654.7
1792.0;1719.4;;;;;;;;;;;;;;-0.7043672;-0.22437209;0.0047608875;;;;;1654.7
1792.0;1719.4;;;;;;;;;;;;;;;;;42.909027;-31.132694;-99.688705;;1654.7
1792.0;1719.4;;;;;;;;;;;;;;-0.70351267;-0.27027193;0.011108737;;;;;1654.7
1792.0;1719.4;;;;;;;;;;;;;;;;;41.398357;-30.339212;-97.56768;;1664.3
1792.0;1719.4;;;;;;;;;;;;;;-0.71303445;-0.29407635;0.02435377;;;;;1664.3
1792.0;1719.4;;;;;;;;;;;;;;;;;39.69695;-28.98114;-94.794304;;1664.3
1792.0;1719.4;;;;;;;;;;;;;;-0.7392193;-0.34107485;0.025269326;;;;;1664.3
1792.0;1721.1;262143;262143;12953;;;;;;;;;;;;;;;;;;
1792.0;1727.3;;;;;;;;;;;;;13649;;;;;;;;
1792.0;1727.3;;;;;;;;;;;;;13575;;;;;;;;
1792.0;1727.3;;;;;;;;;;;;;13551;;;;;;;;
1792.0;1727.3;;;;;;;;;;;;;13383;;;;;;;;
1792.0;1727.3;;;;;;;;;;;;;13035;;;;;;;;
1792.0;1728.7;;;;-0.49167258;0.69663626;0.06905747;;;;;;;;;;;;;;;
1792.0;1728.7;;;;-0.4924279;0.7016793;0.072120674;;;;;;;;;;;;;;;
1792.0;1728.7;;;;-0.49296957;0.7062989;0.07577897;;;;;;;;;;;;;;;
1792.0;1728.7;;;;-0.49348456;0.7105828;0.0794983;;;;;;;;;;;;;;;
1792.0;1728.7;;;;-0.49467093;0.71381;0.08278275;;;;;;;;;;;;;;;
1834.0;1738.1;;;;;;;;;;0.9575182;18.4637;-2.0447402;;;;;;;;;
1834.0;1738.1;;;;;;;0.15332499;-0.6488235;-0.037049472;;;;;;;;;;;;
1834.0;1738.1;;;;;;;;;;9.0487385;31.697289;10.120701;;;;;;;;;
1834.0;1738.1;;;;;;;0.16779077;-0.7268288;-0.042786952;;;;;;;;;;;;
1834.0;1738.7;;;;-0.49680716;0.71672446;0.08643723;;;;;;;;;;;;;;;
1834.0;1738.7;;;;-0.4989739;0.71856314;0.090053566;;;;;;;;;;;;;;;
1834.0;1738.7;;;;-0.5014573;0.71996695;0.0937729;;;;;;;;;;;;;;;
1834.0;1738.7;;;;-0.50353247;0.72142416;0.09753801;;;;;;;;;;;;;;;
1834.0;1738.7;;;;-0.5052796;0.7226868;0.1004677;;;;;;;;;;;;;;;
1834.0;1741.3;262143;262143;12985;;;;;;;;;;;;;;;;;;
1834.0;1747.7;;;;;;;;;;-0.42344433;10.971405;-2.4109623;;;;;;;;;
1834.0;1747.7;;;;;;;0.16626485;-0.72835475;-0.04174932;;;;;;;;;;;;
1834.0;1747.7;;;;;;;;;;-0.39674062;26.337475;-7.7745905;;;;;;;;;
1834.0;1747.7;;;;;;;0.16309091;-0.73397017;-0.042725913;;;;;;;;;;;;
1834.0;1748.7;;;;-0.5070763;0.72298056;0.10242082;;;;;;;;;;;;;;;
1834.0;1748.7;;;;-0.507412;0.72349936;0.10429384;;;;;;;;;;;;;;;
1834.0;1748.7;;;;-0.50752264;0.72381216;0.105583206;;;;;;;;;;;;;;;
1834.0;1748.7;;;;-0.50710684;0.7234574;0.10675813;;;;;;;;;;;;;;;
1834.0;1748.7;;;;-0.506836;0.72367483;0.10832597;;;;;;;;;;;;;;;
1834.0;1757.1;;;;;;;;;;-5.069887;34.710987;-18.288218;;;;;;;;;
1834.0;1757.1;;;;;;;0.1638844;-0.7392193;-0.040467545;;;;;;;;;;;;
1834.0;1757.1;;;;;;;;;;-14.633626;7.3473315;-48.02469;;;;;;;;;
1834.0;1757.1;;;;;;;0.16101566;-0.7467879;-0.038209174;;;;;;;;;;;;
1836.0;1758.7;;;;-0.5067559;0.7236634;0.109252945;;;;;;;;;;;;;;;
1836.0;1758.7;;;;-0.50591284;0.72370917;0.111084;;;;;;;;;;;;;;;
1836.0;1758.7;;;;-0.5055314;0.7238999;0.11291887;;;;;;;;;;;;;;;
1836.0;1758.7;;;;-0.504757;0.724762;0.11518861;;;;;;;;;;;;;;;
1836.0;1758.7;;;;-0.504757;0.7261582;0.11750032;;;;;;;;;;;;;;;
1836.0;1761.3;262143;262143;12980;;;;;;;;;;;;;;;;;;
1836.0;1766.7;;;;;;;;;;-18.871883;14.259773;-56.207462;;;;;;;;;
1836.0;1766.7;;;;;;;0.15918455;-0.7538682;-0.035340436;;;;;;;;;;;;
1836.0;1766.7;;;;;;;;;;-22.70577;21.305735;-62.681206;;;;;;;;;
1836.0;1766.7;;;;;;;0.15814692;-0.7635731;-0.034669027;;;;;;;;;;;;
1836.0;1767.5;;;;;;;;;;;;;12710;;;;;;;;
1836.0;1767.5;;;;;;;;;;;;;12705;;;;;;;;
1836.0;1767.5;;;;;;;;;;;;;13137;;;;;;;;
1836.0;1767.5;;;;;;;;;;;;;13949;;;;;;;;
1836.0;1767.5;;;;;;;;;;;;;15295;;;;;;;;
1836.0;1768.8;;;;-0.50581366;0.7277184;0.120159164;;;;;;;;;;;;;;;
1836.0;1768.8;;;;-0.50737005;0.73056036;0.122425094;;;;;;;;;;;;;;;
1836.0;1768.8;;;;-0.5098534;0.73398215;0.12459184;;;;;;;;;;;;;;;
1836.0;1768.8;;;;-0.51274115;0.7380944;0.1263466;;;;;;;;;;;;;;;
1836.0;1768.8;;;;-0.51549155;0.7427941;0.12793352;;;;;;;;;;;;;;;
1836.0;1776.3;;;;;;;;;;-25.978882;35.199284;-60.132908;;;;;;;;;
1836.0;1776.3;;;;;;;0.15851314;-0.77266765;-0.03216651;;;;;;;;;;;;
1836.0;1776.3;;;;;;;;;;-26.455732;45.098724;-50.75228;;;;;;;;;
1836.0;1776.3;;;;;;;0.15826899;-0.7795648;-0.03051851;;;;;;;;;;;;
1837.0;1778.9;;;;-0.51816946;0.7479554;0.12948228;;;;;;;;;;;;;;;
1837.0;1778.9;;;;-0.5212975;0.7532426;0.13039781;;;;;;;;;;;;;;;
1837.0;1778.9;;;;-0.5240441;0.7590753;0.13198473;;;;;;;;;;;;;;;
1837.0;1778.9;;;;-0.52751166;0.7639276;0.13283922;;;;;;;;;;;;;;;
1837.0;1778.9;;;;-0.5312806;0.76879895;0.13430406;;;;;;;;;;;;;;;
1837.0;1779.2;;;;;;;;;;;;;;;;;38.72036;-27.302622;-91.914116;;1674.0
1837.0;1779.2;;;;;;;;;;;;;;-0.766625;-0.37739187;0.036988433;;;;;1674.0
1837.0;1779.2;;;;;;;;;;;;;;;;;38.99121;-26.902067;-88.93856;;1674.0
1837.0;1779.2;;;;;;;;;;;;;;-0.7813349;-0.40375987;0.0441908;;;;;1674.0
1837.0;1779.2;;;;;;;;;;;;;;;;;40.219578;-26.608326;-86.20335;;1683.5
1837.0;1779.2;;;;;;;;;;;;;;-0.7791986;-0.43079928;0.032654807;;;;;1683.5
1837.0;1779.2;;;;;;;;;;;;;;;;;42.47795;-25.704214;-83.09808;;1683.5
1837.0;1779.2;;;;;;;;;;;;;;-0.77584153;-0.42542803;0.011963256;;;;;1683.5
1837.0;1779.2;;;;;;;;;;;;;;;;;43.980988;-24.655142;-80.088196;;1693.0
1837.0;1779.2;;;;;;;;;;;;;;-0.76235235;-0.41358685;-0.018372143;;;;;1693.0
1837.0;1779.2;;;;;;;;;;;;;;;;;44.938503;-23.701437;-76.77694;;1693.0
1837.0;1779.2;;;;;;;;;;;;;;-0.7410504;-0.39173558;-0.045167394;;;;;1693.0
1841.0;1780.0;;;;;;;;;;;;;;;;;44.923244;-22.717215;-73.76324;;1702.7
1841.0;1780.0;;;;;;;;;;;;;;-0.7141942;-0.35798213;-0.04992828;;;;;1702.7
1841.0;1780.0;;;;;;;;;;;;;;;;;45.438244;-23.056734;-69.49065;;1702.7
1841.0;1780.0;;;;;;;;;;;;;;-0.69093907;-0.33912167;-0.05389569;;;;;1702.7
1841.0;1780.0;;;;;;;;;;;;;;;;;46.964172;-23.510696;-64.226204;;1712.2
1841.0;1780.0;;;;;;;;;;;;;;-0.6563921;-0.31202126;-0.037415694;;;;;1712.2
1841.0;1780.0;;;;;;;;;;;;;;;;;49.150063;-25.086214;-58.27128;;1712.2
1841.0;1780.0;;;;;;;;;;;;;;-0.61256754;-0.26490065;-0.024842067;;;;;1712.2
1841.0;1780.0;;;;;;;;;;;;;;;;;50.534836;-26.417585;-52.102726;;1721.8
1841.0;1780.0;;;;;;;;;;;;;;-0.55494857;-0.23908201;-0.008728294;;;;;1721.8
1841.0;1780.0;;;;;;;;;;;;;;;;;50.729393;-26.657919;-45.667133;;1721.8
1841.0;1780.0;;;;;;;;;;;;;;-0.49555954;-0.21448408;0.026734214;;;;;1721.8
1841.0;1781.4;262143;262143;12989;;;;;;;;;;;;;;;;;;
1841.0;1785.8;;;;;;;;;;-25.723288;45.396282;-46.075317;;;;;;;;;
1841.0;1785.8;;;;;;;0.15637684;-0.7892697;-0.028992584;;;;;;;;;;;;
1841.0;1785.8;;;;;;;;;;-24.990843;45.747246;-41.405987;;;;;;;;;
1841.0;1785.8;;;;;;;0.15442365;-0.79787594;-0.028992584;;;;;;;;;;;;
1841.0;1788.8;;;;-0.53480536;0.7731515;0.13648988;;;;;;;;;;;;;;;
1841.0;1788.8;;;;-0.53856283;0.77695477;0.13848878;;;;;;;;;;;;;;;
1841.0;1788.8;;;;-0.5421906;0.7809411;0.1394539;;;;;;;;;;;;;;;
1841.0;1788.8;;;;-0.54604346;0.7844697;0.14089967;;;;;;;;;;;;;;;
1841.0;1788.8;;;;-0.5497857;0.7884828;0.14289476;;;;;;;;;;;;;;;
1892.0;1795.3;;;;;;;;;;-24.227882;45.937984;-36.63747;;;;;;;;;
1892.0;1795.3;;;;;;;0.15472884;-0.8087405;-0.02764977;;;;;;;;;;;;
1892.0;1795.3;;;;;;;;;;-23.464918;46.136356;-31.743065;;;;;;;;;
1892.0;1795.3;;;;;;;0.15552233;-0.81856745;-0.028565325;;;;;;;;;;;;
1892.0;1798.8;;;;-0.55346686;0.79283535;0.14484026;;;;;;;;;;;;;;;
1892.0;1798.8;;;;-0.5566674;0.7967645;0.14682771;;;;;;;;;;;;;;;
1892.0;1798.8;;;;-0.55964285;0.8011514;0.14887239;;;;;;;;;;;;;;;
1892.0;1798.8;;;;-0.56288916;0.8052789;0.15074922;;;;;;;;;;;;;;;
1892.0;1798.8;;;;-0.5662461;0.80903256;0.15271379;;;;;;;;;;;;;;;
1892.0;1801.5;262143;262143;12985;;;;;;;;;;;;;;;;;;
1892.0;1804.9;;;;;;;;;;-22.671436;46.2508;-26.726585;;;;;;;;;
1892.0;1804.9;;;;;;;0.15814692;-0.8299814;-0.03009125;;;;;;;;;;;;
1892.0;1804.9;;;;;;;;;;-21.83218;46.357616;-21.622364;;;;;;;;;
1892.0;1804.9;;;;;;;0.15655996;-0.8388317;-0.032105472;;;;;;;;;;;;
1892.0;1807.6;;;;;;;;;;;;;16828;;;;;;;;
1892.0;1807.6;;;;;;;;;;;;;17337;;;;;;;;
1892.0;1807.6;;;;;;;;;;;;;16770;;;;;;;;
1892.0;1807.6;;;;;;;;;;;;;17134;;;;;;;;
1892.0;1807.6;;;;;;;;;;;;;20127;;;;;;;;
1892.0;1808.7;;;;-0.5693055;0.81247723;0.15473558;;;;;;;;;;;;;;;
1892.0;1808.7;;;;-0.57217795;0.8158876;0.15641405;;;;;;;;;;;;;;;
1892.0;1808.7;;;;-0.5751496;0.8183366;0.15832902;;;;;;;;;;;;;;;
1892.0;1808.7;;;;-0.57789236;0.820469;0.16013338;;;;;;;;;;;;;;;
1892.0;1808.7;;;;-0.5806046;0.8224412;0.1622162;;;;;;;;;;;;;;;
1895.0;1814.2;;;;;;;;;;-21.057772;46.304207;-16.479996;;;;;;;;;
1895.0;1814.2;;;;;;;0.15735343;-0.84578997;-0.031983398;;;;;;;;;;;;
1895.0;1814.2;;;;;;;;;;-20.287178;46.08295;-11.291848;;;;;;;;;
1895.0;1814.2;;;;;;;0.15790276;-0.85299236;-0.032837916;;;;;;;;;;;;
1895.0;1818.8;;;;-0.58356863;0.82354367;0.16360094;;;;;;;;;;;;;;;
1895.0;1818.8;;;;-0.5875092;0.824772;0.16485597;;;;;;;;;;;;;;;
1895.0;1818.8;;;;-0.59070593;0.8253442;0.16579439;;;;;;;;;;;;;;;
1895.0;1818.8;;;;-0.5923119;0.8264047;0.16710283;;;;;;;;;;;;;;;
1895.0;1818.8;;;;-0.59201056;0.82678616;0.16805269;;;;;;;;;;;;;;;
1895.0;1821.5;262143;262143;13001;;;;;;;;;;;;;;;;;;
1895.0;1823.9;;;;;;;;;;-19.524216;45.76632;-6.130406;;;;;;;;;
1895.0;1823.9;;;;;;;0.1594287;-0.8611713;-0.031250954;;;;;;;;;;;;
1895.0;1823.9;;;;;;;;;;-18.7727;45.47258;-0.87740713;;;;;;;;;
1895.0;1823.9;;;;;;;0.16205329;-0.86971647;-0.030335398;;;;;;;;;;;;
1895.0;1828.9;;;;-0.59042746;0.82696927;0.16838457;;;;;;;;;;;;;;;
1895.0;1828.9;;;;-0.5880204;0.82782376;0.16814043;;;;;;;;;;;;;;;
1895.0;1828.9;;;;-0.58451086;0.82883084;0.16897966;;;;;;;;;;;;;;;
1895.0;1828.9;;;;-0.580761;0.830166;0.16856767;;;;;;;;;;;;;;;
1895.0;1828.9;;;;-0.57742697;0.83096325;0.16767885;;;;;;;;;;;;;;;
1895.0;1833.5;;;;;;;;;;-17.944883;44.8088;4.467147;;;;;;;;;
1895.0;1833.5;;;;;;;0.16278572;-0.8792993;-0.028748436;;;;;;;;;;;;
1895.0;1833.5;;;;;;;;;;-17.162846;44.049656;9.73922;;;;;;;;;
1895.0;1833.5;;;;;;;0.16681418;-0.88680685;-0.028687399;;;;;;;;;;;;
1899.0;1839.1;;;;;;;;;;;;;;;;;48.551136;-25.879696;-39.372692;;1731.5
1899.0;1839.1;;;;;;;;;;;;;;-0.43092135;-0.19507432;0.053346355;;;;;1731.5
1899.0;1839.1;;;;;;;;;;;;;;;;;43.97336;-23.506882;-33.230843;;1731.5
1899.0;1839.1;;;;;;;;;;;;;;-0.37037262;-0.20734276;0.07306131;;;;;1731.5
1899.0;1839.1;;;;;;;;;;;;;;;;;37.995544;-19.219032;-27.111881;;1741.0
1899.0;1839.1;;;;;;;;;;;;;;-0.33002716;-0.22217475;0.09424116;;;;;1741.0
1899.0;1839.1;;;;;;;;;;;;;;;;;30.38499;-14.835811;-21.248512;;1741.0
1899.0;1839.1;;;;;;;;;;;;;;-0.28388318;-0.24445327;0.095156714;;;;;1741.0
1899.0;1839.1;;;;;;;;;;;;;;;;;22.381512;-9.865108;-15.179143;;1750.7
1899.0;1839.1;;;;;;;;;;;;;;-0.2593463;-0.27460554;0.098025456;;;;;1750.7
1899.0;1839.1;;;;;;;;;;;;;;;;;14.118626;-4.692221;-9.296701;;1750.7
1899.0;1839.1;;;;;;;;;;;;;;-0.23834956;-0.34150213;0.09552293;;;;;1750.7
1899.0;1839.0;;;;-0.5744553;0.832348;0.16706087;;;;;;;;;;;;;;;
1899.0;1839.0;;;;-0.5716019;0.833954;0.16630174;;;;;;;;;;;;;;;
1899.0;1839.0;;;;-0.56851965;0.835724;0.16551591;;;;;;;;;;;;;;;
1899.0;1839.0;;;;-0.5667687;0.8372613;0.16414262;;;;;;;;;;;;;;;
1899.0;1839.0;;;;-0.56511694;0.83895886;0.1639557;;;;;;;;;;;;;;;
1900.0;1839.8;;;;;;;;;;;;;;;;;6.9505906;-0.038148135;-3.501999;;1760.1
1900.0;1839.8;;;;;;;;;;;;;;-0.22956023;-0.40467542;0.09930723;;;;;1760.1
1900.0;1839.8;;;;;;;;;;;;;;;;;0.28992584;4.581591;1.7586291;;1760.1
1900.0;1839.8;;;;;;;;;;;;;;-0.22888882;-0.4730369;0.09241005;;;;;1760.1
1900.0;1839.8;;;;;;;;;;;;;;;;;-5.8709984;9.178442;6.015961;;1769.7
1900.0;1839.8;;;;;;;;;;;;;;-0.23908201;-0.562273;0.07861568;;;;;1769.7
1900.0;1839.8;;;;;;;;;;;;;;;;;-11.280404;13.782922;9.838404;;1769.7
1900.0;1839.8;;;;;;;;;;;;;;-0.2593463;-0.64821315;0.059450056;;;;;1769.7
1900.0;1839.8;;;;;;;;;;;;;;;;;-15.949736;17.81518;13.138219;;1779.4
1900.0;1839.8;;;;;;;;;;;;;;-0.283639;-0.7108371;0.047364727;;;;;1779.4
1900.0;1839.8;;;;;;;;;;;;;;;;;-19.524216;20.878475;16.010773;;1779.4
1900.0;1839.8;;;;;;;;;;;;;;-0.30494094;-0.76326793;0.045777764;;;;;1779.4
1900.0;1841.6;262143;262143;13003;;;;;;;;;;;;;;;;;;
1900.0;1843.0;;;;;;;;;;-16.39607;43.160805;15.053254;;;;;;;;;
1900.0;1843.0;;;;;;;0.17017122;-0.89345986;-0.026306955;;;;;;;;;;;;
1900.0;1843.0;;;;;;;;;;-15.751366;42.268135;20.38255;;;;;;;;;
1900.0;1843.0;;;;;;;0.17639698;-0.89785457;-0.024658956;;;;;;;;;;;;
1900.0;1847.8;;;;;;;;;;;;;22613;;;;;;;;
1900.0;1847.8;;;;;;;;;;;;;17072;;;;;;;;
1900.0;1847.8;;;;;;;;;;;;;2937;;;;;;;;
1900.0;1847.8;;;;;;;;;;;;;-8118;;;;;;;;
1900.0;1847.8;;;;;;;;;;;;;-5013;;;;;;;;
1901.0;1848.9;;;;-0.56332785;0.83996975;0.1629677;;;;;;;;;;;;;;;
1901.0;1848.9;;;;-0.5612717;0.8415719;0.16136552;;;;;;;;;;;;;;;
1901.0;1848.9;;;;-0.5591622;0.8430711;0.15962602;;;;;;;;;;;;;;;
1901.0;1848.9;;;;-0.55745703;0.84424603;0.15835191;;;;;;;;;;;;;;;
1901.0;1848.9;;;;-0.55546194;0.8463937;0.15814592;;;;;;;;;;;;;;;
1901.0;1852.6;;;;;;;;;;-15.037995;41.169468;25.658436;;;;;;;;;
1901.0;1852.6;;;;;;;0.18079165;-0.8998688;-0.023194067;;;;;;;;;;;;
1901.0;1852.6;;;;;;;;;;-14.2941065;40.032654;30.838953;;;;;;;;;
1901.0;1852.6;;;;;;;0.18518631;-0.9058504;-0.019959105;;;;;;;;;;;;
1901.0;1858.9;;;;-0.5536843;0.8483087;0.15660097;;;;;;;;;;;;;;;
1901.0;1858.9;;;;-0.5521279;0.8499757;0.15555955;;;;;;;;;;;;;;;
1901.0;1858.9;;;;-0.5505982;0.8517381;0.15493013;;;;;;;;;;;;;;;
1901.0;1858.9;;;;-0.54822165;0.8535806;0.15358354;;;;;;;;;;;;;;;
1901.0;1858.9;;;;-0.54541785;0.855755;0.1525612;;;;;;;;;;;;;;;
1901.0;1862.1;;;;;;;;;;-13.649404;38.922546;35.981323;;;;;;;;;
1901.0;1862.1;;;;;;;0.19171728;-0.9137242;-0.015869625;;;;;;;;;;;;
1901.0;1862.1;;;;;;;;;;-13.046663;37.930695;41.13132;;;;;;;;;
1901.0;1862.1;;;;;;;0.19696645;-0.9209876;-0.009949034;;;;;;;;;;;;
1901.0;1861.7;262143;262143;12992;;;;;;;;;;;;;;;;;;
1956.0;1868.9;;;;-0.5422593;0.8576089;0.15083696;;;;;;;;;;;;;;;
1956.0;1868.9;;;;-0.5399285;0.8596269;0.1501198;;;;;;;;;;;;;;;
1956.0;1868.9;;;;-0.5370217;0.86205685;0.14945604;;;;;;;;;;;;;;;
1956.0;1868.9;;;;-0.5344315;0.86459744;0.14791109;;;;;;;;;;;;;;;
1956.0;1868.9;;;;-0.5314141;0.8672677;0.14710237;;;;;;;;;;;;;;;
1956.0;1871.5;;;;;;;;;;-12.367626;37.186806;46.17069;;;;;;;;;
1956.0;1871.5;;;;;;;0.20319223;-0.931608;-0.0012817774;;;;;;;;;;;;
1956.0;1871.5;;;;;;;;;;-11.783959;36.47725;51.10706;;;;;;;;;
1956.0;1871.5;;;;;;;0.21045564;-0.94320506;0.0051271096;;;;;;;;;;;;
1956.0;1878.8;;;;-0.52854544;0.8703042;0.14565279;;;;;;;;;;;;;;;
1956.0;1878.8;;;;-0.52543646;0.87331784;0.14492418;;;;;;;;;;;;;;;
1956.0;1878.8;;;;-0.5230103;0.8773767;0.14336015;;;;;;;;;;;;;;;
1956.0;1878.8;;;;-0.5204926;0.88103116;0.14208604;;;;;;;;;;;;;;;
1956.0;1878.8;;;;-0.51765066;0.88450253;0.1407776;;;;;;;;;;;;;;;
1956.0;1881.0;;;;;;;;;;-11.226996;36.118656;56.031982;;;;;;;;;
1956.0;1881.0;;;;;;;0.21686453;-0.9560839;0.014343699;;;;;;;;;;;;
1956.0;1881.0;;;;;;;;;;-10.670034;35.8211;60.8272;;;;;;;;;
1956.0;1881.0;;;;;;;0.22467726;-0.9700003;0.02313303;;;;;;;;;;;;
1956.0;1881.7;262143;262143;12980;;;;;;;;;;;;;;;;;;
1956.0;1887.9;;;;;;;;;;;;;9077;;;;;;;;
1956.0;1887.9;;;;;;;;;;;;;21028;;;;;;;;
1956.0;1887.9;;;;;;;;;;;;;23577;;;;;;;;
1956.0;1887.9;;;;;;;;;;;;;20888;;;;;;;;
1956.0;1887.9;;;;;;;;;;;;;19663;;;;;;;;
1958.0;1888.9;;;;-0.5153733;0.88840497;0.13917162;;;;;;;;;;;;;;;
1958.0;1888.9;;;;-0.51237494;0.892933;0.13824464;;;;;;;;;;;;;;;
1958.0;1888.9;;;;-0.5096398;0.8976518;0.13726427;;;;;;;;;;;;;;;
1958.0;1888.9;;;;-0.5074883;0.9026376;0.13621141;;;;;;;;;;;;;;;
1958.0;1888.9;;;;-0.5058976;0.90859234;0.13563158;;;;;;;;;;;;;;;
1958.0;1890.6;;;;;;;;;;-10.093997;35.676136;65.603355;;;;;;;;;
1958.0;1890.6;;;;;;;0.23187964;-0.985992;0.03381451;;;;;;;;;;;;
1958.0;1890.6;;;;;;;;;;-9.426405;35.89358;70.32227;;;;;;;;;
1958.0;1890.6;;;;;;;0.24146245;-1.0043031;0.04327525;;;;;;;;;;;;
1958.0;1899.0;;;;-0.5043641;0.915558;0.13528825;;;;;;;;;;;;;;;
1958.0;1899.0;;;;-0.5022164;0.9235116;0.13418962;;;;;;;;;;;;;;;
1958.0;1899.0;;;;-0.4998513;0.9323846;0.13371278;;;;;;;;;;;;;;;
1958.0;1899.0;;;;-0.4983254;0.94316876;0.13164522;;;;;;;;;;;;;;;
1958.0;1899.0;;;;-0.4971276;0.9557687;0.12950517;;;;;;;;;;;;;;;
1959.0;1899.5;;;;;;;;;;;;;;;;;-21.965698;23.503067;18.74218;;1789.1
1959.0;1899.5;;;;;;;;;;;;;;-0.32673118;-0.7919553;0.058900725;;;;;1789.1
1959.0;1899.5;;;;;;;;;;;;;;;;;-23.636585;26.253548;21.599476;;1789.1
1959.0;1899.5;;;;;;;;;;;;;;-0.32062745;-0.794763;0.06439406;;;;;1789.1
1959.0;1899.5;;;;;;;;;;;;;;;;;-24.979399;29.778437;24.632254;;1798.6
1959.0;1899.5;;;;;;;;;;;;;;-0.32490006;-0.7836543;0.07281716;;;;;1798.6
1959.0;1899.5;;;;;;;;;;;;;;;;;-27.283548;32.12836;28.035065;;1798.6
1959.0;1899.5;;;;;;;;;;;;;;-0.32258064;-0.7788324;0.051332135;;;;;1798.6
1959.0;1899.5;;;;;;;;;;;;;;;;;-30.705435;33.94421;32.03299;;1808.1
1959.0;1899.5;;;;;;;;;;;;;;-0.2826014;-0.77205724;-0.0145268105;;;;;1808.1
1959.0;1899.5;;;;;;;;;;;;;;;;;-33.10877;36.156803;36.614582;;1808.1
1959.0;1899.5;;;;;;;;;;;;;;-0.25025177;-0.77700126;-0.087710194;;;;;1808.1
1959.0;1900.3;;;;;;;;;;;;;;;;;-33.46736;36.709953;41.245766;;1817.7
1959.0;1900.3;;;;;;;;;;;;;;-0.2667928;-0.7853023;-0.15759759;;;;;1817.7
1959.0;1900.3;;;;;;;;;;;;;;;;;-31.830807;33.69625;46.00284;;1817.7
1959.0;1900.3;;;;;;;;;;;;;;-0.27961057;-0.77700126;-0.23718986;;;;;1817.7
1959.0;1900.3;;;;;;;;;;;;;;;;;-27.447584;29.503769;51.713615;;1827.3
1959.0;1900.3;;;;;;;;;;;;;;-0.2626423;-0.73427534;-0.32441175;;;;;1827.3
1959.0;1900.3;;;;;;;;;;;;;;;;;-19.283884;25.986511;59.018982;;1827.3
1959.0;1900.3;;;;;;;;;;;;;;-0.25946838;-0.67592394;-0.38654745;;;;;1827.3
1959.0;1900.3;;;;;;;;;;;;;;;;;-5.4208503;23.937956;66.42735;;1836.9
1959.0;1900.3;;;;;;;;;;;;;;-0.28205207;-0.58857995;-0.313242;;;;;1836.9
1959.0;1900.3;;;;;;;;;;;;;;;;;14.667959;24.76577;74.41557;;1836.9
1959.0;1900.3;;;;;;;;;;;;;;-0.34333324;-0.4618061;-0.031189917;;;;;1836.9
1961.0;1900.1;;;;;;;;;;-8.705404;36.40858;74.99924;;;;;;;;;
1961.0;1900.1;;;;;;;0.25006866;-1.0264596;0.051026948;;;;;;;;;;;;
1961.0;1900.1;;;;;;;;;;-7.889035;36.900692;79.77157;;;;;;;;;
1961.0;1900.1;;;;;;;0.2590411;-1.0500199;0.060975984;;;;;;;;;;;;
1961.0;1901.7;262143;262143;12973;;;;;;;;;;;;;;;;;;
1961.0;1908.9;;;;-0.49636084;0.9705926;0.12736513;;;;;;;;;;;;;;;
1961.0;1908.9;;;;-0.49714285;0.9874536;0.12594606;;;;;;;;;;;;;;;
1961.0;1908.9;;;;-0.49887472;1.0066949;0.12477495;;;;;;;;;;;;;;;
1961.0;1908.9;;;;-0.501545;1.0276567;0.12409593;;;;;;;;;;;;;;;
1961.0;1908.9;;;;-0.5049973;1.0501329;0.124446884;;;;;;;;;;;;;;;
1961.0;1909.6;;;;;;;;;;-7.1298866;37.549213;84.5439;;;;;;;;;
1961.0;1909.6;;;;;;;0.26752526;-1.0785241;0.071779534;;;;;;;;;;;;
1961.0;1909.6;;;;;;;;;;-6.202887;38.14814;89.24757;;;;;;;;;
1961.0;1909.6;;;;;;;0.27588734;-1.1084323;0.08001953;;;;;;;;;;;;
1961.0;1918.9;;;;-0.50931555;1.0745164;0.12456514;;;;;;;;;;;;;;;
1961.0;1918.9;;;;-0.5138131;1.1002351;0.12424852;;;;;;;;;;;;;;;
1961.0;1918.9;;;;-0.51866156;1.1266023;0.12410356;;;;;;;;;;;;;;;
1961.0;1918.9;;;;-0.5242768;1.1530191;0.123157516;;;;;;;;;;;;;;;
1961.0;1918.9;;;;-0.5297509;1.1793367;0.12187196;;;;;;;;;;;;;;;
1961.0;1919.1;;;;;;;;;;-5.2568135;38.77377;93.86349;;;;;;;;;
1961.0;1919.1;;;;;;;0.28382215;-1.1380352;0.086489454;;;;;;;;;;;;
1961.0;1919.1;;;;;;;;;;-4.1238136;39.30784;98.54046;;;;;;;;;
1961.0;1919.1;;;;;;;0.28833887;-1.1703238;0.09302042;;;;;;;;;;;;
2015.0;1921.9;262143;262143;12965;;;;;;;;;;;;;;;;;;
2015.0;1927.8;;;;;;;;;;;;;20369;;;;;;;;
2015.0;1927.8;;;;;;;;;;;;;20139;;;;;;;;
2015.0;1927.8;;;;;;;;;;;;;19032;;;;;;;;
2015.0;1927.8;;;;;;;;;;;;;17959;;;;;;;;
2015.0;1927.8;;;;;;;;;;;;;16860;;;;;;;;
2015.0;1928.6;;;;;;;;;;-2.9755547;39.769432;103.24793;;;;;;;;;
2015.0;1928.6;;;;;;;0.2946257;-1.207007;0.096804716;;;;;;;;;;;;
2015.0;1928.6;;;;;;;;;;-1.5984069;40.154728;108.06986;;;;;;;;;
2015.0;1928.6;;;;;;;0.29456466;-1.2474135;0.09588916;;;;;;;;;;;;
2015.0;1928.8;;;;-0.5354386;1.2046663;0.120014206;;;;;;;;;;;;;;;
2015.0;1928.8;;;;-0.5402413;1.2287179;0.11672975;;;;;;;;;;;;;;;
2015.0;1928.8;;;;-0.54453665;1.2516633;0.11329271;;;;;;;;;;;;;;;
2015.0;1928.8;;;;-0.5483704;1.2732545;0.10914995;;;;;;;;;;;;;;;
2015.0;1928.8;;;;-0.5523415;1.2928354;0.10525133;;;;;;;;;;;;;;;
2015.0;1938.1;;;;;;;;;;-0.21744438;40.39506;113.11685;;;;;;;;;
2015.0;1938.1;;;;;;;0.29535812;-1.292642;0.09503464;;;;;;;;;;;;
2015.0;1938.1;;;;;;;;;;1.2207403;40.169987;118.42708;;;;;;;;;
2015.0;1938.1;;;;;;;0.29261148;-1.3376262;0.08948027;;;;;;;;;;;;
2015.0;1938.8;;;;-0.55647665;1.3105394;0.10216142;;;;;;;;;;;;;;;
2015.0;1938.8;;;;-0.5600434;1.3261377;0.09926225;;;;;;;;;;;;;;;
2015.0;1938.8;;;;-0.5633889;1.3409044;0.097354904;;;;;;;;;;;;;;;
2015.0;1938.8;;;;-0.5667916;1.354973;0.09620668;;;;;;;;;;;;;;;
2015.0;1938.8;;;;-0.56945807;1.3682023;0.09568025;;;;;;;;;;;;;;;
2015.0;1941.8;262143;262143;12973;;;;;;;;;;;;;;;;;;
2017.0;1947.7;;;;;;;;;;2.8191473;39.70458;123.352;;;;;;;;;
2017.0;1947.7;;;;;;;0.29322183;-1.3793145;0.07928709;;;;;;;;;;;;
2017.0;1947.7;;;;;;;;;;4.5587025;38.77377;124.87029;;;;;;;;;
2017.0;1947.7;;;;;;;0.28992584;-1.4178289;0.07196265;;;;;;;;;;;;
2017.0;1948.9;;;;-0.5725251;1.3810807;0.09667589;;;;;;;;;;;;;;;
2017.0;1948.9;;;;-0.57607657;1.3931962;0.09873201;;;;;;;;;;;;;;;
2017.0;1948.9;;;;-0.58046347;1.4048654;0.10039522;;;;;;;;;;;;;;;
2017.0;1948.9;;;;-0.5863648;1.4163324;0.10143663;;;;;;;;;;;;;;;
2017.0;1948.9;;;;-0.5928994;1.427643;0.10387422;;;;;;;;;;;;;;;
2017.0;1957.3;;;;;;;;;;6.405072;37.24784;124.881744;;;;;;;;;
2017.0;1957.3;;;;;;;0.2887051;-1.447554;0.06250191;;;;;;;;;;;;
2017.0;1957.3;;;;;;;;;;8.194221;35.229805;124.881744;;;;;;;;;
2017.0;1957.3;;;;;;;0.28949857;-1.4716026;0.05505539;;;;;;;;;;;;
2017.0;1959.2;;;;;;;;;;;;;;;;;38.270214;26.635029;83.77331;;1846.6
2017.0;1959.2;;;;;;;;;;;;;;-0.4350719;-0.31275368;0.26190984;;;;;1846.6
2017.0;1959.2;;;;;;;;;;;;;;;;;59.49202;27.40562;93.642235;;1846.6
2017.0;1959.2;;;;;;;;;;;;;;-0.51875365;-0.21283609;0.52125615;;;;;1846.6
2017.0;1959.2;;;;;;;;;;;;;;;;;66.12217;31.807919;100.19989;;1856.1
2017.0;1959.2;;;;;;;;;;;;;;-0.54481643;-0.20416883;0.9158605;;;;;1856.1
2017.0;1959.2;;;;;;;;;;;;;;;;;46.533096;45.52217;104.590744;;1856.1
2017.0;1959.2;;;;;;;;;;;;;;-0.6850795;-0.40961942;1.0014343;;;;;1856.1
2017.0;1959.2;;;;;;;;;;;;;;;;;10.105441;57.817318;105.33463;;1865.7
2017.0;1959.2;;;;;;;;;;;;;;-0.8844264;-0.5689871;0.9015168;;;;;1865.7
2017.0;1959.2;;;;;;;;;;;;;;;;;-34.29136;65.374466;106.34938;;1865.7
2017.0;1959.2;;;;;;;;;;;;;;-1.1431624;-0.64015627;0.4483169;;;;;1865.7
2019.0;1959.0;;;;-0.6002808;1.4381715;0.10612108;;;;;;;;;;;;;;;
2019.0;1959.0;;;;-0.60748297;1.4470445;0.10916139;;;;;;;;;;;;;;;
2019.0;1959.0;;;;-0.614647;1.4544946;0.11272432;;;;;;;;;;;;;;;
2019.0;1959.0;;;;-0.62300116;1.4612352;0.11665346;;;;;;;;;;;;;;;
2019.0;1959.0;;;;-0.63112646;1.466324;0.120395675;;;;;;;;;;;;;;;
2019.0;1959.9;;;;;;;;;;;;;;;;;-75.193794;72.271645;106.6126;;1875.3
2019.0;1959.9;;;;;;;;;;;;;;-1.1859493;-0.56910914;-0.1915952;;;;;1875.3
2019.0;1959.9;;;;;;;;;;;;;;;;;-105.739006;84.93683;106.33031;;1875.3
2019.0;1959.9;;;;;;;;;;;;;;-1.4548173;-0.63777584;-0.3988769;;;;;1875.3
2019.0;1959.9;;;;;;;;;;;;;;;;;-122.94763;93.81771;107.06275;;1885.0
2019.0;1959.9;;;;;;;;;;;;;;-1.9089328;-0.73409224;-0.4316538;;;;;1885.0
2019.0;1959.9;;;;;;;;;;;;;;;;;-124.988556;105.39949;110.72115;;1885.0
2019.0;1959.9;;;;;;;;;;;;;;-1.9995728;-0.8998688;-0.5047151;;;;;1885.0
2019.0;1959.9;;;;;;;;;;;;;;;;;-124.988556;106.60879;111.93426;;1894.6
2019.0;1959.9;;;;;;;;;;;;;;-1.9995728;-1.0501419;-0.7302469;;;;;1894.6
2019.0;1959.9;;;;;;;;;;;;;;;;;-121.99011;77.387314;104.72045;;1894.6
2019.0;1959.9;;;;;;;;;;;;;;-1.9995728;-1.027131;-0.76992095;;;;;1894.6
2019.0;1961.9;262143;262143;12963;;;;;;;;;;;;;;;;;;
2019.0;1966.6;;;;;;;;;;9.956663;32.471695;124.881744;;;;;;;;;
2019.0;1966.6;;;;;;;0.2906583;-1.4913785;0.045777764;;;;;;;;;;;;
2019.0;1966.6;;;;;;;;;;11.638996;29.343548;124.881744;;;;;;;;;
2019.0;1966.6;;;;;;;0.29572436;-1.505356;0.037659843;;;;;;;;;;;;
2074.0;1967.8;;;;;;;;;;;;;15833;;;;;;;;
2074.0;1967.8;;;;;;;;;;;;;14712;;;;;;;;
2074.0;1967.8;;;;;;;;;;;;;13442;;;;;;;;
2074.0;1967.8;;;;;;;;;;;;;12301;;;;;;;;
2074.0;1967.8;;;;;;;;;;;;;11249;;;;;;;;
2074.0;1968.8;;;;-0.63989264;1.4699365;0.12475969;;;;;;;;;;;;;;;
2074.0;1968.8;;;;-0.64921194;1.4715692;0.12826158;;;;;;;;;;;;;;;
2074.0;1968.8;;;;-0.6593247;1.4713975;0.13196947;;;;;;;;;;;;;;;
2074.0;1968.8;;;;-0.66859823;1.4692231;0.13494493;;;;;;;;;;;;;;;
2074.0;1968.8;;;;-0.67800146;1.4638025;0.13694765;;;;;;;;;;;;;;;
2074.0;1976.1;;;;;;;;;;13.256477;25.769066;124.881744;;;;;;;;;
2074.0;1976.1;;;;;;;0.30292672;-1.5125583;0.030640583;;;;;;;;;;;;
2074.0;1976.1;;;;;;;;;;14.786219;21.702477;124.881744;;;;;;;;;
2074.0;1976.1;;;;;;;0.31104466;-1.513657;0.025757622;;;;;;;;;;;;
2074.0;1978.8;;;;-0.68672186;1.4562913;0.13826753;;;;;;;;;;;;;;;
2074.0;1978.8;;;;-0.6947823;1.4460946;0.13910295;;;;;;;;;;;;;;;
2074.0;1978.8;;;;-0.7023125;1.4323655;0.13883974;;;;;;;;;;;;;;;
2074.0;1978.8;;;;-0.70846564;1.4149514;0.13898088;;;;;;;;;;;;;;;
2074.0;1978.8;;;;-0.7139512;1.3962365;0.13812639;;;;;;;;;;;;;;;
2074.0;1981.9;262143;262143;12965;;;;;;;;;;;;;;;;;;
2074.0;1985.7;;;;;;;;;;16.170996;17.109438;124.881744;;;;;;;;;
2074.0;1985.7;;;;;;;0.32093266;-1.5091403;0.025147252;;;;;;;;;;;;
2074.0;1985.7;;;;;;;;;;17.509995;12.119663;124.881744;;;;;;;;;
2074.0;1985.7;;;;;;;0.33198035;-1.4996185;0.02783288;;;;;;;;;;;;
2080.0;1988.7;;;;-0.71809393;1.3767396;0.13597871;;;;;;;;;;;;;;;
2080.0;1988.7;;;;-0.71937567;1.356537;0.13405229;;;;;;;;;;;;;;;
2080.0;1988.7;;;;-0.71960837;1.3362085;0.13151933;;;;;;;;;;;;;;;
2080.0;1988.7;;;;-0.71796423;1.3149644;0.12921907;;;;;;;;;;;;;;;
2080.0;1988.7;;;;-0.71573645;1.2922059;0.12581636;;;;;;;;;;;;;;;
2080.0;1995.0;;;;;;;;;;18.726921;6.923887;124.881744;;;;;;;;;
2080.0;1995.0;;;;;;;0.34669027;-1.4820398;0.033753473;;;;;;;;;;;;
2080.0;1995.0;;;;;;;;;;19.760735;1.575518;124.881744;;;;;;;;;
2080.0;1995.0;;;;;;;0.3634144;-1.4592731;0.046632282;;;;;;;;;;;;
2080.0;1998.7;;;;-0.7130509;1.2700578;0.122344986;;;;;;;;;;;;;;;
2080.0;1998.7;;;;-0.7100373;1.2476732;0.1175728;;;;;;;;;;;;;;;
2080.0;1998.7;;;;-0.7055817;1.2248117;0.112072006;;;;;;;;;;;;;;;
2080.0;1998.7;;;;-0.7005616;1.201893;0.10753633;;;;;;;;;;;;;;;
2080.0;1998.7;;;;-0.69655615;1.1790277;0.102008834;;;;;;;;;;;;;;;
2080.0;2001.8;262143;262143;12952;;;;;;;;;;;;;;;;;;
2080.0;2004.6;;;;;;;;;;20.516068;-3.7041843;124.881744;;;;;;;;;
2080.0;2004.6;;;;;;;0.3787347;-1.4334544;0.057679985;;;;;;;;;;;;
2080.0;2004.6;;;;;;;;;;21.156958;-8.720664;124.881744;;;;;;;;;
2080.0;2004.6;;;;;;;0.39448225;-1.4066591;0.07061983;;;;;;;;;;;;
2080.0;2007.9;;;;;;;;;;;;;10226;;;;;;;;
2080.0;2007.9;;;;;;;;;;;;;9611;;;;;;;;
2080.0;2007.9;;;;;;;;;;;;;9708;;;;;;;;
2080.0;2007.9;;;;;;;;;;;;;10339;;;;;;;;
2080.0;2007.9;;;;;;;;;;;;;11086;;;;;;;;
2082.0;2008.8;;;;-0.69159704;1.1568147;0.09635545;;;;;;;;;;;;;;;
2082.0;2008.8;;;;-0.6869965;1.13472;0.09077836;;;;;;;;;;;;;;;
2082.0;2008.8;;;;-0.68264014;1.1134111;0.08542252;;;;;;;;;;;;;;;
2082.0;2008.8;;;;-0.6790467;1.093609;0.07939149;;;;;;;;;;;;;;;
2082.0;2008.8;;;;-0.67509466;1.0748521;0.07393647;;;;;;;;;;;;;;;
2082.0;2014.3;;;;;;;;;;21.431623;-13.008514;124.881744;;;;;;;;;
2082.0;2014.3;;;;;;;0.41608936;-1.380108;0.08526871;;;;;;;;;;;;
2082.0;2014.3;;;;;;;;;;21.408735;-16.327404;124.881744;;;;;;;;;
2082.0;2014.3;;;;;;;0.4380627;-1.3532517;0.10180975;;;;;;;;;;;;
2082.0;2018.9;;;;-0.67050177;1.0579187;0.070392616;;;;;;;;;;;;;;;
2082.0;2018.9;;;;-0.66507727;1.0434953;0.06730271;;;;;;;;;;;;;;;
2082.0;2018.9;;;;-0.6590577;1.0307046;0.06427766;;;;;;;;;;;;;;;
2082.0;2018.9;;;;-0.65311056;1.0196458;0.060420997;;;;;;;;;;;;;;;
2082.0;2018.9;;;;-0.6480561;1.0116578;0.056335457;;;;;;;;;;;;;;;
2082.0;2019.1;;;;;;;;;;;;;;;;;-96.6979;44.89654;92.40241;;1904.2
2082.0;2019.1;;;;;;;;;;;;;;-1.9995728;-0.96249276;-0.64229256;;;;;1904.2
2082.0;2019.1;;;;;;;;;;;;;;;;;-61.105686;26.158178;74.507126;;1904.2
2082.0;2019.1;;;;;;;;;;;;;;-1.9995728;-0.96926785;-0.4069338;;;;;1904.2
2082.0;2019.1;;;;;;;;;;;;;;;;;-30.888546;0.9346294;52.12943;;1913.8
2082.0;2019.1;;;;;;;;;;;;;;-1.9274269;-0.8879666;-0.020935697;;;;;1913.8
2082.0;2019.1;;;;;;;;;;;;;;;;;-18.768885;-11.513107;32.345806;;1913.8
2082.0;2019.1;;;;;;;;;;;;;;-1.4662923;-0.78212833;0.08038575;;;;;1913.8
2082.0;2019.1;;;;;;;;;;;;;;;;;-24.697105;-10.429701;18.642994;;1923.5
2082.0;2019.1;;;;;;;;;;;;;;-1.0583819;-0.7291482;0.07678457;;;;;1923.5
2082.0;2019.1;;;;;;;;;;;;;;;;;-31.85751;-5.687887;12.943663;;1923.5
2082.0;2019.1;;;;;;;;;;;;;;-0.76491594;-0.575396;0.0933256;;;;;1923.5
2082.0;2020.3;;;;;;;;;;;;;;;;;-35.84399;-2.3003328;13.397626;;1933.1
2082.0;2020.3;;;;;;;;;;;;;;-0.5634938;-0.3552965;0.0860622;;;;;1933.1
2082.0;2020.3;;;;;;;;;;;;;;;;;-40.65447;-1.9951477;18.936735;;1933.1
2082.0;2020.3;;;;;;;;;;;;;;-0.41376996;-0.18591876;-0.015808588;;;;;1933.1
2082.0;2020.3;;;;;;;;;;;;;;;;;-48.91736;-0.4730369;27.497177;;1942.8
2082.0;2020.3;;;;;;;;;;;;;;-0.31690422;-0.09454634;-0.13269448;;;;;1942.8
2082.0;2020.3;;;;;;;;;;;;;;;;;-58.80154;4.0856657;36.79769;;1942.8
2082.0;2020.3;;;;;;;;;;;;;;-0.3223365;-0.08349864;-0.20032349;;;;;1942.8
2082.0;2020.3;;;;;;;;;;;;;;;;;-64.53902;7.6258125;46.628468;;1952.3
2082.0;2020.3;;;;;;;;;;;;;;-0.3876461;-0.13116856;-0.18829921;;;;;1952.3
2082.0;2020.3;;;;;;;;;;;;;;;;;-65.24476;8.903775;56.470688;;1952.3
2082.0;2020.3;;;;;;;;;;;;;;-0.43385112;-0.21143223;-0.18176824;;;;;1952.3
2083.0;2021.9;262143;262143;12941;;;;;;;;;;;;;;;;;;
2083.0;2023.6;;;;;;;;;;21.153143;-18.82229;124.881744;;;;;;;;;
2083.0;2023.6;;;;;;;0.45735037;-1.3320109;0.12152471;;;;;;;;;;;;
2083.0;2023.6;;;;;;;;;;20.813623;-20.886105;124.881744;;;;;;;;;
2083.0;2023.6;;;;;;;0.47053438;-1.3072299;0.14288767;;;;;;;;;;;;
2083.0;2028.7;;;;-0.6429482;1.0070306;0.05365754;;;;;;;;;;;;;;;
2083.0;2028.7;;;;-0.63859946;1.0046159;0.05202485;;;;;;;;;;;;;;;
2083.0;2028.7;;;;-0.63459784;1.0046693;0.051025398;;;;;;;;;;;;;;;
2083.0;2028.7;;;;-0.63091666;1.0064012;0.050148018;;;;;;;;;;;;;;;
2083.0;2028.7;;;;-0.6270028;1.0101854;0.04934693;;;;;;;;;;;;;;;
2083.0;2033.1;;;;;;;;;;20.268105;-22.488325;124.881744;;;;;;;;;
2083.0;2033.1;;;;;;;0.4856105;-1.2911161;0.16699728;;;;;;;;;;;;
2083.0;2033.1;;;;;;;;;;19.524216;-23.289438;124.881744;;;;;;;;;
2083.0;2033.1;;;;;;;0.49964905;-1.2759789;0.18890958;;;;;;;;;;;;
2083.0;2038.7;;;;-0.6239205;1.0152856;0.04834748;;;;;;;;;;;;;;;
2083.0;2038.7;;;;-0.6209946;1.0218621;0.047157295;;;;;;;;;;;;;;;
2083.0;2038.7;;;;-0.6184426;1.0282098;0.04624558;;;;;;;;;;;;;;;
2083.0;2038.7;;;;-0.61518484;1.035122;0.04502106;;;;;;;;;;;;;;;
2083.0;2038.7;;;;-0.61153036;1.04237;0.043975834;;;;;;;;;;;;;;;
2083.0;2041.9;262143;262143;12930;;;;;;;;;;;;;;;;;;
2137.0;2042.6;;;;;;;;;;18.692587;-23.716698;124.881744;;;;;;;;;
2137.0;2042.6;;;;;;;0.5122837;-1.2670064;0.21234779;;;;;;;;;;;;
2137.0;2042.6;;;;;;;;;;17.834253;-23.579363;124.881744;;;;;;;;;
2137.0;2042.6;;;;;;;0.529313;-1.2554704;0.23322245;;;;;;;;;;;;
2137.0;2047.7;;;;;;;;;;;;;11908;;;;;;;;
2137.0;2047.7;;;;;;;;;;;;;13030;;;;;;;;
2137.0;2047.7;;;;;;;;;;;;;14234;;;;;;;;
2137.0;2047.7;;;;;;;;;;;;;15111;;;;;;;;
2137.0;2047.7;;;;;;;;;;;;;15670;;;;;;;;
2137.0;2048.5;;;;-0.6072007;1.0493051;0.04286957;;;;;;;;;;;;;;;
2137.0;2048.5;;;;-0.60283667;1.0571138;0.0425911;;;;;;;;;;;;;;;
2137.0;2048.5;;;;-0.5978928;1.0647088;0.043621067;;;;;;;;;;;;;;;
2137.0;2048.5;;;;-0.5930558;1.072651;0.043975834;;;;;;;;;;;;;;;
2137.0;2048.5;;;;-0.5883637;1.0809022;0.044757847;;;;;;;;;;;;;;;
2137.0;2051.8;;;;;;;;;;16.811884;-22.778252;124.881744;;;;;;;;;
2137.0;2051.8;;;;;;;0.5449385;-1.2468032;0.25153357;;;;;;;;;;;;
2137.0;2051.8;;;;;;;;;;15.751366;-21.542253;124.881744;;;;;;;;;
2137.0;2051.8;;;;;;;0.5452437;-1.2377697;0.2674032;;;;;;;;;;;;
2137.0;2058.3;;;;-0.5844727;1.0884019;0.045497898;;;;;;;;;;;;;;;
2137.0;2058.3;;;;-0.58085257;1.0959741;0.04602814;;;;;;;;;;;;;;;
2137.0;2058.3;;;;-0.5783196;1.1039201;0.046321873;;;;;;;;;;;;;;;
2137.0;2058.3;;;;-0.57724005;1.112446;0.046257023;;;;;;;;;;;;;;;
2137.0;2058.3;;;;-0.5773354;1.121586;0.045070652;;;;;;;;;;;;;;;
2137.0;2061.3;;;;;;;;;;14.84344;-19.917141;124.881744;;;;;;;;;
2137.0;2061.3;;;;;;;0.54103214;-1.233192;0.2806482;;;;;;;;;;;;
2137.0;2061.3;;;;;;;;;;13.809626;-18.078402;124.881744;;;;;;;;;
2137.0;2061.3;;;;;;;0.5387738;-1.2324595;0.28876615;;;;;;;;;;;;
2139.0;2061.6;262143;262143;12922;;;;;;;;;;;;;;;;;;
2139.0;2068.4;;;;-0.5787621;1.1309777;0.044643406;;;;;;;;;;;;;;;
2139.0;2068.4;;;;-0.5806809;1.1402093;0.044097904;;;;;;;;;;;;;;;
2139.0;2068.4;;;;-0.58216864;1.1497384;0.04284287;;;;;;;;;;;;;;;
2139.0;2068.4;;;;-0.583458;1.1587449;0.04190064;;;;;;;;;;;;;;;
2139.0;2068.4;;;;-0.5836945;1.166958;0.041076664;;;;;;;;;;;;;;;
2139.0;2070.9;;;;;;;;;;12.79107;-15.945921;124.881744;;;;;;;;;
2139.0;2070.9;;;;;;;0.5425581;-1.2303232;0.2948088;;;;;;;;;;;;
2139.0;2070.9;;;;;;;;;;11.844996;-13.584552;124.881744;;;;;;;;;
2139.0;2070.9;;;;;;;0.540788;-1.2236701;0.29853207;;;;;;;;;;;;
2139.0;2078.5;;;;-0.5833474;1.1744844;0.038887028;;;;;;;;;;;;;;;
2139.0;2078.5;;;;-0.5822869;1.1808892;0.036243442;;;;;;;;;;;;;;;
2139.0;2078.5;;;;-0.57983786;1.1865884;0.03392029;;;;;;;;;;;;;;;
2139.0;2078.5;;;;-0.5759316;1.1907235;0.030757908;;;;;;;;;;;;;;;
2139.0;2078.5;;;;-0.570221;1.1939279;0.028522495;;;;;;;;;;;;;;;
2140.0;2078.9;;;;;;;;;;;;;;;;;-65.790276;marras.57;64.931946;;1961.9
2140.0;2078.9;;;;;;;;;;;;;;-0.48945585;-0.2727134;-0.21857357;;;;;1961.9
2140.0;2078.9;;;;;;;;;;;;;;;;;-67.40013;15.530107;71.55827;;1961.9
2140.0;2078.9;;;;;;;;;;;;;;-0.59663683;-0.31141087;-0.23224586;;;;;1961.9
2140.0;2078.9;;;;;;;;;;;;;;;;;-69.20834;18.169958;76.643425;;1971.6
2140.0;2078.9;;;;;;;;;;;;;;-0.70998263;-0.34949797;-0.25025177;;;;;1971.6
2140.0;2078.9;;;;;;;;;;;;;;;;;-68.52931;19.020662;81.88116;;1971.6
2140.0;2078.9;;;;;;;;;;;;;;-0.84487444;-0.3714713;-0.24628437;;;;;1971.6
2140.0;2078.9;;;;;;;;;;;;;;;;;-66.167946;17.956327;87.48131;;1981.3
2140.0;2078.9;;;;;;;;;;;;;;-0.9710379;-0.38752404;-0.25220495;;;;;1981.3
2140.0;2078.9;;;;;;;;;;;;;;;;;-64.70687;16.125217;92.921234;;1981.3
2140.0;2078.9;;;;;;;;;;;;;;-1.0879239;-0.40797144;-0.29041412;;;;;1981.3
2140.0;2079.6;;;;;;;;;;;;;;;;;-64.60769;13.988921;96.86194;;1990.8
2140.0;2079.6;;;;;;;;;;;;;;-1.1809442;-0.42188787;-0.3376568;;;;;1990.8
2140.0;2079.6;;;;;;;;;;;;;;;;;-63.98587;10.757775;98.73119;;1990.8
2140.0;2079.6;;;;;;;;;;;;;;-1.2422254;-0.4390393;-0.37415692;;;;;1990.8
2140.0;2079.6;;;;;;;;;;;;;;;;;-62.356945;7.511368;98.6549;;2000.5
2140.0;2079.6;;;;;;;;;;;;;;-1.2720726;-0.42323068;-0.3979003;;;;;2000.5
2140.0;2079.6;;;;;;;;;;;;;;;;;-60.983612;4.8142953;96.28971;;2000.5
2140.0;2079.6;;;;;;;;;;;;;;-1.2668233;-0.41126743;-0.42957854;;;;;2000.5
2140.0;2079.6;;;;;;;;;;;;;;;;;-60.29313;3.1777399;92.32612;;2010.1
2140.0;2079.6;;;;;;;;;;;;;;-1.2542497;-0.40668964;-0.45185706;;;;;2010.1
2140.0;2079.6;;;;;;;;;;;;;;;;;-59.14869;3.1929991;87.233345;;2010.1
2140.0;2079.6;;;;;;;;;;;;;;-1.2339244;-0.43116552;-0.46601763;;;;;2010.1
2141.0;2080.3;;;;;;;;;;11.009553;-11.009553;124.881744;;;;;;;;;
2141.0;2080.3;;;;;;;0.54268014;-1.2141484;0.29865414;;;;;;;;;;;;
2141.0;2080.3;;;;;;;;;;10.334331;-8.125553;124.881744;;;;;;;;;
2141.0;2080.3;;;;;;;0.5376751;-1.2005981;0.29639578;;;;;;;;;;;;
2141.0;2081.6;262143;262143;12921;;;;;;;;;;;;;;;;;;
2141.0;2087.6;;;;;;;;;;;;;16475;;;;;;;;
2141.0;2087.6;;;;;;;;;;;;;17703;;;;;;;;
2141.0;2087.6;;;;;;;;;;;;;18593;;;;;;;;
2141.0;2087.6;;;;;;;;;;;;;18731;;;;;;;;
2141.0;2087.6;;;;;;;;;;;;;18386;;;;;;;;
2141.0;2088.3;;;;-0.56239706;1.1969682;0.025875095;;;;;;;;;;;;;;;
2141.0;2088.3;;;;-0.55279166;1.1992646;0.024105076;;;;;;;;;;;;;;;
2141.0;2088.3;;;;-0.5426102;1.2014428;0.022087099;;;;;;;;;;;;;;;
2141.0;2088.3;;;;-0.53293616;1.2030526;0.019779207;;;;;;;;;;;;;;;
2141.0;2088.3;;;;-0.52470785;1.2055513;0.017127993;;;;;;;;;;;;;;;
2141.0;2089.9;;;;;;;;;;9.746849;-5.2529984;124.881744;;;;;;;;;
2141.0;2089.9;;;;;;;0.5299234;-1.1811273;0.2903531;;;;;;;;;;;;
2141.0;2089.9;;;;;;;;;;9.372997;-2.6512957;124.87029;;;;;;;;;
2141.0;2089.9;;;;;;;0.5198523;-1.1565905;0.28058717;;;;;;;;;;;;
2144.0;2093.8;;;;;;;;;;;;;;;;;-56.63854;4.81048;80.94653;;2019.7
2144.0;2093.8;;;;;;;;;;;;;;-1.2172003;-0.46143988;-0.4741966;;;;;2019.7
2144.0;2093.8;;;;;;;;;;;;;;;;;-53.605762;7.3816648;73.9845;;2019.7
2144.0;2093.8;;;;;;;;;;;;;;-1.1961424;-0.4746849;-0.46412548;;;;;2019.7
2144.0;2093.8;;;;;;;;;;;;;;;;;-50.87054;10.265663;67.40776;;2029.3
2144.0;2093.8;;;;;;;;;;;;;;-1.1566515;-0.4610126;-0.44465467;;;;;2029.3
2144.0;2093.8;;;;;;;;;;;;;;;;;-47.98654;12.745293;62.322613;;2029.3
2144.0;2093.8;;;;;;;;;;;;;;-1.1242409;-0.4447157;-0.3980224;;;;;2029.3
2144.0;2093.8;;;;;;;;;;;;;;;;;-44.12977;13.355663;58.988464;;2038.8
2144.0;2093.8;;;;;;;;;;;;;;-1.0956755;-0.45484787;-0.3465682;;;;;2038.8
2144.0;2093.8;;;;;;;;;;;;;;;;;-39.834282;12.035737;56.91702;;2038.8
2144.0;2093.8;;;;;;;;;;;;;;-1.0433058;-0.42957854;-0.3134251;;;;;2038.8
2144.0;2098.2;;;;-0.5173035;1.2085038;0.015441896;;;;;;;;;;;;;;;
2144.0;2098.2;;;;-0.51115805;1.2099725;0.012317659;;;;;;;;;;;;;;;
2144.0;2098.2;;;;-0.5060006;1.2109643;0.009757997;;;;;;;;;;;;;;;
2144.0;2098.2;;;;-0.5007821;1.213276;0.007408143;;;;;;;;;;;;;;;
2144.0;2098.2;;;;-0.49579626;1.215046;0.0054664616;;;;;;;;;;;;;;;
2144.0;2099.3;;;;;;;;;;9.147923;-0.40437025;123.825035;;;;;;;;;
2144.0;2099.3;;;;;;;0.5014191;-1.1332743;0.27369;;;;;;;;;;;;
2144.0;2099.3;;;;;;;;;;8.751183;2.1820734;119.571526;;;;;;;;;
2144.0;2099.3;;;;;;;0.4961089;-1.1110568;0.26160467;;;;;;;;;;;;
2144.0;2101.6;262143;262143;12943;;;;;;;;;;;;;;;;;;
2195.0;2108.2;;;;-0.49147803;1.2161027;0.00214386;;;;;;;;;;;;;;;
2195.0;2108.2;;;;-0.4866143;1.2175943;-1.4877321E-4;;;;;;;;;;;;;;;
2195.0;2108.2;;;;-0.48182684;1.2170984;-0.0015487673;;;;;;;;;;;;;;;
2195.0;2108.2;;;;-0.47685248;1.2163202;-0.0034370427;;;;;;;;;;;;;;;
2195.0;2108.2;;;;-0.47100073;1.2154351;-0.004779816;;;;;;;;;;;;;;;
2195.0;2108.7;;;;;;;;;;8.713035;4.5167394;113.63185;;;;;;;;;
2195.0;2108.7;;;;;;;0.48500016;-1.0863979;0.2494583;;;;;;;;;;;;
2195.0;2108.7;;;;;;;;;;8.663442;6.488998;107.22678;;;;;;;;;
2195.0;2108.7;;;;;;;0.4687643;-1.060335;0.23773919;;;;;;;;;;;;
2195.0;2117.9;;;;-0.46470648;1.2138101;-0.005538941;;;;;;;;;;;;;;;
2195.0;2117.9;;;;-0.45845038;1.2110025;-0.005573273;;;;;;;;;;;;;;;
2195.0;2117.9;;;;-0.453106;1.2085458;-0.0058479314;;;;;;;;;;;;;;;
2195.0;2117.9;;;;-0.4478417;1.2063943;-0.0064849863;;;;;;;;;;;;;;;
2195.0;2117.9;;;;-0.44292456;1.2031289;-0.0065078745;;;;;;;;;;;;;;;
2195.0;2118.0;;;;;;;;;;8.838923;7.6677756;101.55034;;;;;;;;;
2195.0;2118.0;;;;;;;0.453444;-1.0341502;0.22626422;;;;;;;;;;;;
2195.0;2118.0;;;;;;;;;;9.109776;8.289591;95.591606;;;;;;;;;
2195.0;2118.0;;;;;;;0.43769646;-1.0076602;0.21430098;;;;;;;;;;;;
2195.0;2121.3;262143;262143;12944;;;;;;;;;;;;;;;;;;
2195.0;2127.4;;;;;;;;;;;;;17592;;;;;;;;
2195.0;2127.4;;;;;;;;;;;;;15558;;;;;;;;
2195.0;2127.4;;;;;;;;;;;;;11692;;;;;;;;
2195.0;2127.4;;;;;;;;;;;;;6816;;;;;;;;
2195.0;2127.4;;;;;;;;;;;;;1999;;;;;;;;
2200.0;2127.6;;;;;;;;;;9.556108;8.037812;89.41923;;;;;;;;;
2200.0;2127.6;;;;;;;0.42115542;-0.98355055;0.20288706;;;;;;;;;;;;
2200.0;2127.6;;;;;;;;;;10.082552;6.977294;83.78475;;;;;;;;;
2200.0;2127.6;;;;;;;0.40382093;-0.9602344;0.19434187;;;;;;;;;;;;
2200.0;2128.0;;;;-0.43845373;1.1990548;-0.006992341;;;;;;;;;;;;;;;
2200.0;2128.0;;;;-0.43380743;1.1952173;-0.007598878;;;;;;;;;;;;;;;
2200.0;2128.0;;;;-0.42804343;1.1908303;-0.008167268;;;;;;;;;;;;;;;
2200.0;2128.0;;;;-0.42288214;1.1877443;-0.009326936;;;;;;;;;;;;;;;
2200.0;2128.0;;;;-0.41802603;1.1852494;-0.01028061;;;;;;;;;;;;;;;
2200.0;2137.2;;;;;;;;;;10.887479;4.9439983;77.86417;;;;;;;;;
2200.0;2137.2;;;;;;;0.39509264;-0.9353923;0.18744469;;;;;;;;;;;;
2200.0;2137.2;;;;;;;;;;11.829738;2.0867033;71.97409;;;;;;;;;
2200.0;2137.2;;;;;;;0.38239694;-0.91055024;0.18305002;;;;;;;;;;;;
2200.0;2138.1;;;;-0.41230017;1.1822168;-0.011814119;;;;;;;;;;;;;;;
2200.0;2138.1;;;;-0.40591055;1.1796685;-0.013423922;;;;;;;;;;;;;;;
2200.0;2138.1;;;;-0.4003716;1.1789476;-0.015174868;;;;;;;;;;;;;;;
2200.0;2138.1;;;;-0.39442068;1.1786577;-0.015239717;;;;;;;;;;;;;;;
2200.0;2138.1;;;;-0.38924795;1.1795236;-0.015365602;;;;;;;;;;;;;;;
2201.0;2139.0;;;;;;;;;;;;;;;;;-36.805325;10.105441;55.10498;;2048.5
2201.0;2139.0;;;;;;;;;;;;;;-0.9733573;-0.39460433;-0.28504288;;;;;2048.5
2201.0;2139.0;;;;;;;;;;;;;;;;;-35.435802;8.522293;53.544727;;2048.5
2201.0;2139.0;;;;;;;;;;;;;;-0.901883;-0.36481827;-0.24591815;;;;;2048.5
2201.0;2139.0;;;;;;;;;;;;;;;;;-35.744804;8.239998;52.373577;;2058.2
2201.0;2139.0;;;;;;;;;;;;;;-0.85055083;-0.33826715;-0.22321238;;;;;2058.2
2201.0;2139.0;;;;;;;;;;;;;;;;;-37.450027;7.930998;51.564835;;2058.2
2201.0;2139.0;;;;;;;;;;;;;;-0.80617696;-0.33014923;-0.21033357;;;;;2058.2
2201.0;2139.0;;;;;;;;;;;;;;;;;-39.66643;8.384961;51.057465;;2067.7
2201.0;2139.0;;;;;;;;;;;;;;-0.7812128;-0.33625293;-0.19129002;;;;;2067.7
2201.0;2139.0;;;;;;;;;;;;;;;;;-41.85995;8.800775;50.828575;;2067.7
2201.0;2139.0;;;;;;;;;;;;;;-0.7677236;-0.35370952;-0.18829921;;;;;2067.7
2201.0;2141.5;262143;262143;12950;;;;;;;;;;;;;;;;;;
2201.0;2146.7;;;;;;;;;;12.855922;-1.842555;66.35869;;;;;;;;;
2201.0;2146.7;;;;;;;0.36872464;-0.8872951;0.17950988;;;;;;;;;;;;
2201.0;2146.7;;;;;;;;;;14.007996;-6.782739;61.120945;;;;;;;;;
2201.0;2146.7;;;;;;;0.35273293;-0.8680074;0.17932676;;;;;;;;;;;;
2201.0;2148.1;;;;-0.38428503;1.1804582;-0.016284944;;;;;;;;;;;;;;;
2201.0;2148.1;;;;-0.37967306;1.1812822;-0.018081667;;;;;;;;;;;;;;;
2201.0;2148.1;;;;-0.37577063;1.1818963;-0.019954683;;;;;;;;;;;;;;;
2201.0;2148.1;;;;-0.37273028;1.1825448;-0.021881105;;;;;;;;;;;;;;;
2201.0;2148.1;;;;-0.3694611;1.1821977;-0.023910526;;;;;;;;;;;;;;;
2203.0;2153.6;;;;;;;;;;;;;;;;;-43.591877;8.991516;50.897243;;2077.4
2203.0;2153.6;;;;;;;;;;;;;;-0.7528916;-0.3628651;-0.20184942;;;;;2077.4
2203.0;2153.6;;;;;;;;;;;;;;;;;-44.022953;9.735405;51.72506;;2077.4
2203.0;2153.6;;;;;;;;;;;;;;-0.74691;-0.3795282;-0.21167639;;;;;2077.4
2203.0;2153.6;;;;;;;;;;;;;;;;;-43.424026;10.471663;53.380688;;2087.0
2203.0;2153.6;;;;;;;;;;;;;;-0.7511826;-0.40009767;-0.21124913;;;;;2087.0
2203.0;2153.6;;;;;;;;;;;;;;;;;-42.474136;11.284219;55.48265;;2087.0
2203.0;2153.6;;;;;;;;;;;;;;-0.77138585;-0.41273233;-0.20026246;;;;;2087.0
2203.0;2153.6;;;;;;;;;;;;;;;;;-41.459396;12.104404;57.9165;;2096.6
2203.0;2153.6;;;;;;;;;;;;;;-0.7970214;-0.42609942;-0.20374157;;;;;2096.6
2203.0;2153.6;;;;;;;;;;;;;;;;;-39.448986;12.718589;60.84246;;2096.6
2203.0;2153.6;;;;;;;;;;;;;;-0.8230842;-0.4342784;-0.21662039;;;;;2096.6
2203.0;2156.1;;;;;;;;;;15.511032;-12.756737;56.016724;;;;;;;;;
2203.0;2156.1;;;;;;;0.34040347;-0.8485366;0.17828913;;;;;;;;;;;;
2203.0;2156.1;;;;;;;;;;17.109438;-19.451736;50.904873;;;;;;;;;
2203.0;2156.1;;;;;;;0.33497116;-0.82448804;0.18140203;;;;;;;;;;;;
2203.0;2158.0;;;;-0.36594394;1.1808244;-0.02569962;;;;;;;;;;;;;;;
2203.0;2158.0;;;;-0.36143878;1.1781732;-0.027702335;;;;;;;;;;;;;;;
2203.0;2158.0;;;;-0.35696796;1.1757127;-0.029235844;;;;;;;;;;;;;;;
2203.0;2158.0;;;;-0.3526154;1.1729661;-0.03036118;;;;;;;;;;;;;;;
2203.0;2158.0;;;;-0.3480263;1.1708413;-0.03155518;;;;;;;;;;;;;;;
2203.0;2161.5;262143;262143;12963;;;;;;;;;;;;;;;;;;
2251.0;2165.6;;;;;;;;;;18.82229;-26.451918;46.269875;;;;;;;;;
2251.0;2165.6;;;;;;;0.32947782;-0.80666524;0.1826838;;;;;;;;;;;;
2251.0;2165.6;;;;;;;;;;20.538958;-34.06247;42.25669;;;;;;;;;
2251.0;2165.6;;;;;;;0.32239753;-0.7900021;0.18402661;;;;;;;;;;;;
2251.0;2167.5;;;;;;;;;;;;;-2618;;;;;;;;
2251.0;2167.5;;;;;;;;;;;;;-7202;;;;;;;;
2251.0;2167.5;;;;;;;;;;;;;-11724;;;;;;;;
2251.0;2167.5;;;;;;;;;;;;;-16144;;;;;;;;
2251.0;2167.5;;;;;;;;;;;;;-20305;;;;;;;;
2251.0;2168.0;;;;-0.34473804;1.1682702;-0.032268528;;;;;;;;;;;;;;;
2251.0;2168.0;;;;-0.34178165;1.1648523;-0.033157352;;;;;;;;;;;;;;;
2251.0;2168.0;;;;-0.33882907;1.1616555;-0.034107212;;;;;;;;;;;;;;;
2251.0;2168.0;;;;-0.3359795;1.1592942;-0.03554154;;;;;;;;;;;;;;;
2251.0;2168.0;;;;-0.33306125;1.1564904;-0.03680039;;;;;;;;;;;;;;;
2251.0;2175.2;;;;;;;;;;22.377697;-42.11173;38.464767;;;;;;;;;
2251.0;2175.2;;;;;;;0.31250954;-0.77071446;0.18628499;;;;;;;;;;;;
2251.0;2175.2;;;;;;;;;;24.27366;-50.447094;34.928432;;;;;;;;;
2251.0;2175.2;;;;;;;0.30420852;-0.75588244;0.18250069;;;;;;;;;;;;
2251.0;2178.0;;;;-0.32926944;1.1536943;-0.0387497;;;;;;;;;;;;;;;
2251.0;2178.0;;;;-0.32624438;1.1511155;-0.040233616;;;;;;;;;;;;;;;
2251.0;2178.0;;;;-0.3244095;1.148758;-0.04151154;;;;;;;;;;;;;;;
2251.0;2178.0;;;;-0.3220177;1.1459199;-0.042694096;;;;;;;;;;;;;;;
2251.0;2178.0;;;;-0.31979755;1.1423608;-0.044628147;;;;;;;;;;;;;;;
2251.0;2181.6;262143;262143;12963;;;;;;;;;;;;;;;;;;
2255.0;2184.8;;;;;;;;;;26.22303;-59.152504;31.888027;;;;;;;;;
2255.0;2184.8;;;;;;;0.296762;-0.73934144;0.18024231;;;;;;;;;;;;
2255.0;2184.8;;;;;;;;;;28.271584;-67.819756;29.335918;;;;;;;;;
2255.0;2184.8;;;;;;;0.2976165;-0.7224952;0.17517625;;;;;;;;;;;;
2255.0;2188.1;;;;-0.3185425;1.1380845;-0.045902256;;;;;;;;;;;;;;;
2255.0;2188.1;;;;-0.31745914;1.1337816;-0.04755021;;;;;;;;;;;;;;;
2255.0;2188.1;;;;-0.3174248;1.1296159;-0.04893113;;;;;;;;;;;;;;;
2255.0;2188.1;;;;-0.31935504;1.1246492;-0.050373085;;;;;;;;;;;;;;;
2255.0;2188.1;;;;-0.3209763;1.1195375;-0.051494606;;;;;;;;;;;;;;;
2255.0;2194.4;;;;;;;;;;30.125584;-75.56765;27.081364;;;;;;;;;
2255.0;2194.4;;;;;;;0.30494094;-0.70479447;0.16858424;;;;;;;;;;;;
2255.0;2194.4;;;;;;;;;;31.723991;-81.97272;24.998474;;;;;;;;;
2255.0;2194.4;;;;;;;0.3137913;-0.6855678;0.16162603;;;;;;;;;;;;
2255.0;2198.2;;;;-0.3201714;1.1149675;-0.052753456;;;;;;;;;;;;;;;
2255.0;2198.2;;;;-0.3170319;1.1100541;-0.053905495;;;;;;;;;;;;;;;
2255.0;2198.2;;;;-0.31252292;1.1051141;-0.055992134;;;;;;;;;;;;;;;
2255.0;2198.2;;;;-0.30756;1.1001397;-0.05749131;;;;;;;;;;;;;;;
2255.0;2198.2;;;;-0.30292514;1.0957261;-0.0583191;;;;;;;;;;;;;;;
2256.0;2198.8;;;;;;;;;;;;;;;;;-36.450546;13.039033;64.16898;;2106.1
2256.0;2198.8;;;;;;;;;;;;;;-0.8614765;-0.41804254;-0.21765801;;;;;2106.1
2256.0;2198.8;;;;;;;;;;;;;;;;;-34.142582;12.741478;67.60995;;2106.1
2256.0;2198.8;;;;;;;;;;;;;;-0.8957183;-0.39857173;-0.22602008;;;;;2106.1
2256.0;2198.8;;;;;;;;;;;;;;;;;-32.53655;12.337108;70.89068;;2115.7
2256.0;2198.8;;;;;;;;;;;;;;-0.920072;-0.3797113;-0.22669148;;;;;2115.7
2256.0;2198.8;;;;;;;;;;;;;;;;;-31.39973;11.486403;73.78231;;2115.7
2256.0;2198.8;;;;;;;;;;;;;;-0.9399701;-0.35102388;-0.22937712;;;;;2115.7
2256.0;2198.8;;;;;;;;;;;;;;;;;-30.343027;10.315256;76.349686;;2125.2
2256.0;2198.8;;;;;;;;;;;;;;-0.9515061;-0.32526627;-0.23700674;;;;;2125.2
2256.0;2198.8;;;;;;;;;;;;;;;;;-29.347363;8.972442;78.60042;;2125.2
2256.0;2198.8;;;;;;;;;;;;;;-0.9642018;-0.2743614;-0.2334666;;;;;2125.2
2256.0;2201.7;262143;262143;12968;;;;;;;;;;;;;;;;;;
2256.0;2203.9;;;;;;;;;;33.272808;-87.225716;22.957548;;;;;;;;;
2256.0;2203.9;;;;;;;0.32050538;-0.6700644;0.15478988;;;;;;;;;;;;
2256.0;2203.9;;;;;;;;;;34.91699;-92.42531;21.088291;;;;;;;;;
2256.0;2203.9;;;;;;;0.32227546;-0.6575518;0.15143284;;;;;;;;;;;;
2256.0;2207.7;;;;;;;;;;;;;-22955;;;;;;;;
2256.0;2207.7;;;;;;;;;;;;;-22796;;;;;;;;
2256.0;2207.7;;;;;;;;;;;;;-23672;;;;;;;;
2256.0;2207.7;;;;;;;;;;;;;-32896;;;;;;;;
2256.0;2207.7;;;;;;;;;;;;;-49295;;;;;;;;
2257.0;2208.2;;;;-0.29775622;1.0913965;-0.05904389;;;;;;;;;;;;;;;
2257.0;2208.2;;;;-0.29371265;1.0867082;-0.06116105;;;;;;;;;;;;;;;
2257.0;2208.2;;;;-0.2914391;1.0810281;-0.0625763;;;;;;;;;;;;;;;
2257.0;2208.2;;;;-0.2890053;1.0745736;-0.06433106;;;;;;;;;;;;;;;
2257.0;2208.2;;;;-0.28784183;1.0686265;-0.06510163;;;;;;;;;;;;;;;
2257.0;2213.5;;;;;;;;;;36.618397;-97.66686;19.661549;;;;;;;;;
2257.0;2213.5;;;;;;;0.32087162;-0.64546645;0.14435256;;;;;;;;;;;;
2257.0;2213.5;;;;;;;;;;38.159584;-102.54219;18.490402;;;;;;;;;
2257.0;2213.5;;;;;;;0.32471696;-0.6317331;0.138493;;;;;;;;;;;;
2257.0;2213.9;;;;;;;;;;;;;;;;;-28.885769;7.633442;80.51546;;2134.8
2257.0;2213.9;;;;;;;;;;;;;;-0.9822077;-0.31092256;-0.20838039;;;;;2134.8
2257.0;2213.9;;;;;;;;;;;;;;;;;-27.329327;6.1532946;82.117676;;2134.8
2257.0;2213.9;;;;;;;;;;;;;;-0.97994936;-0.31220436;-0.20227668;;;;;2134.8
2257.0;2213.9;;;;;;;;;;;;;;;;;-25.837732;4.6388135;82.89209;;2144.5
2257.0;2213.9;;;;;;;;;;;;;;-0.9709769;-0.29505295;-0.21131016;;;;;2144.5
2257.0;2213.9;;;;;;;;;;;;;;;;;-24.88403;3.460036;83.174385;;2144.5
2257.0;2213.9;;;;;;;;;;;;;;-0.97109896;-0.2690512;-0.20337535;;;;;2144.5
2257.0;2213.9;;;;;;;;;;;;;;;;;-24.830622;2.25074;82.60216;;2154.0
2257.0;2213.9;;;;;;;;;;;;;;-0.96133304;-0.24890897;-0.20471816;;;;;2154.0
2257.0;2213.9;;;;;;;;;;;;;;;;;-24.662771;1.7738883;81.80105;;2154.0
2257.0;2213.9;;;;;;;;;;;;;;-0.96249276;-0.24390393;-0.20880765;;;;;2154.0
2315.0;2218.1;;;;-0.28636935;1.0624276;-0.06727601;;;;;;;;;;;;;;;
2315.0;2218.1;;;;-0.2848206;1.0544358;-0.069149025;;;;;;;;;;;;;;;
2315.0;2218.1;;;;-0.28314212;1.046074;-0.07169724;;;;;;;;;;;;;;;
2315.0;2218.1;;;;-0.28134158;1.0387269;-0.07265473;;;;;;;;;;;;;;;
2315.0;2218.1;;;;-0.2792931;1.0306817;-0.073444374;;;;;;;;;;;;;;;
2315.0;2221.7;262143;262143;12963;;;;;;;;;;;;;;;;;;
2315.0;2222.9;;;;;;;;;;39.59395;-107.17719;17.410809;;;;;;;;;
2315.0;2222.9;;;;;;;0.33033234;-0.623249;0.1347087;;;;;;;;;;;;
2315.0;2222.9;;;;;;;;;;40.94058;-111.54515;15.942106;;;;;;;;;
2315.0;2222.9;;;;;;;0.33674124;-0.6142155;0.12872708;;;;;;;;;;;;
2315.0;2228.1;;;;-0.2768326;1.0220186;-0.075206764;;;;;;;;;;;;;;;
2315.0;2228.1;;;;-0.27495196;1.0129129;-0.07719041;;;;;;;;;;;;;;;
2315.0;2228.1;;;;-0.27280048;1.0042688;-0.07875443;;;;;;;;;;;;;;;
2315.0;2228.1;;;;-0.27153018;0.99577725;-0.080802925;;;;;;;;;;;;;;;
2315.0;2228.1;;;;-0.27006915;0.9871789;-0.0816002;;;;;;;;;;;;;;;
2315.0;2232.3;;;;;;;;;;42.157505;-115.836815;14.6641445;;;;;;;;;
2315.0;2232.3;;;;;;;0.34302804;-0.6059755;0.1248207;;;;;;;;;;;;
2315.0;2232.3;;;;;;;;;;43.404953;-119.88433;13.515885;;;;;;;;;
2315.0;2232.3;;;;;;;0.3497421;-0.59956664;0.11847285;;;;;;;;;;;;
2316.0;2238.1;;;;-0.26988986;0.97908413;-0.08288575;;;;;;;;;;;;;;;
2316.0;2238.1;;;;-0.2690201;0.97041714;-0.08420182;;;;;;;;;;;;;;;
2316.0;2238.1;;;;-0.26700976;0.96182644;-0.086097725;;;;;;;;;;;;;;;
2316.0;2238.1;;;;-0.26479343;0.95401776;-0.087974556;;;;;;;;;;;;;;;
2316.0;2238.1;;;;-0.26329044;0.9453126;-0.08959199;;;;;;;;;;;;;;;
2316.0;2242.0;;;;;;;;;;44.3968;-122.87133;12.485885;;;;;;;;;
2316.0;2242.0;;;;;;;0.36268196;-0.59511095;0.11133152;;;;;;;;;;;;
2316.0;2242.0;;;;;;;;;;45.31617;-124.44304;11.818293;;;;;;;;;
2316.0;2242.0;;;;;;;0.372631;-0.59035003;0.104068115;;;;;;;;;;;;
2316.0;2241.8;262143;262143;12945;;;;;;;;;;;;;;;;;;
2316.0;2247.8;;;;;;;;;;;;;-60853;;;;;;;;
2316.0;2247.8;;;;;;;;;;;;;-58349;;;;;;;;
2316.0;2247.8;;;;;;;;;;;;;-46610;;;;;;;;
2316.0;2247.8;;;;;;;;;;;;;-37942;;;;;;;;
2316.0;2247.8;;;;;;;;;;;;;-37326;;;;;;;;
2316.0;2248.2;;;;-0.26153567;0.9362794;-0.0904007;;;;;;;;;;;;;;;
2316.0;2248.2;;;;-0.25957492;0.92824185;-0.091896065;;;;;;;;;;;;;;;
2316.0;2248.2;;;;-0.2578278;0.9198266;-0.0931778;;;;;;;;;;;;;;;
2316.0;2248.2;;;;-0.2556801;0.91184247;-0.0946541;;;;;;;;;;;;;;;
2316.0;2248.2;;;;-0.25288776;0.9040948;-0.095756546;;;;;;;;;;;;;;;
2316.0;2251.6;;;;;;;;;;46.102024;-124.855034;11.417737;;;;;;;;;
2316.0;2251.6;;;;;;;0.37977234;-0.5866878;0.09601123;;;;;;;;;;;;
2316.0;2251.6;;;;;;;;;;46.83447;-124.881744;11.185034;;;;;;;;;
2316.0;2251.6;;;;;;;0.38819546;-0.5843074;0.090823084;;;;;;;;;;;;
2318.0;2258.3;;;;-0.24936298;0.89606106;-0.09584428;;;;;;;;;;;;;;;
2318.0;2258.3;;;;-0.24570087;0.8882524;-0.096599594;;;;;;;;;;;;;;;
2318.0;2258.3;;;;-0.24299625;0.8802682;-0.09750368;;;;;;;;;;;;;;;
2318.0;2258.3;;;;-0.24028018;0.8726312;-0.09788896;;;;;;;;;;;;;;;
2318.0;2258.3;;;;-0.23878482;0.8649789;-0.099102035;;;;;;;;;;;;;;;
2318.0;2259.1;;;;;;;;;;;;;;;;;-23.960846;0.614185;80.96561;;2163.5
2318.0;2259.1;;;;;;;;;;;;;;-0.9554735;-0.24750511;-0.2169866;;;;;2163.5
2318.0;2259.1;;;;;;;;;;;;;;;;;-23.55266;-0.56840724;79.752495;;2163.5
2318.0;2259.1;;;;;;;;;;;;;;-0.9427168;-0.23541978;-0.22058779;;;;;2163.5
2318.0;2259.1;;;;;;;;;;;;;;;;;-23.194067;-1.6136662;78.50505;;2173.2
2318.0;2259.1;;;;;;;;;;;;;;-0.92623675;-0.24207282;-0.22119816;;;;;2173.2
2318.0;2259.1;;;;;;;;;;;;;;;;;-21.820736;-2.3842587;77.520836;;2173.2
2318.0;2259.1;;;;;;;;;;;;;;-0.9001129;-0.27558213;-0.21686453;;;;;2173.2
2318.0;2259.1;;;;;;;;;;;;;;;;;-19.341106;-3.032777;76.37639;;2182.9
2318.0;2259.1;;;;;;;;;;;;;;-0.8856471;-0.31275368;-0.21735282;;;;;2182.9
2318.0;2259.1;;;;;;;;;;;;;;;;;-15.640736;-3.6545916;75.70879;;2182.9
2318.0;2259.1;;;;;;;;;;;;;;-0.8655049;-0.32966095;-0.21839045;;;;;2182.9
2318.0;2261.1;;;;;;;;;;47.433395;-124.881744;11.036257;;;;;;;;;
2318.0;2261.1;;;;;;;0.39613026;-0.58656573;0.087466046;;;;;;;;;;;;
2318.0;2261.1;;;;;;;;;;47.872097;-124.881744;10.971405;;;;;;;;;
