patientId;holterMac;flexMac;;;;;;;;;;;;;;;;;;;;
;CA:F3:0B:1E:33:78;D3:4A:5C:52:80:78;;;;;;;;;;;;;;;;;;;;
receivedTimeStamp;timeStamp;red;ir;green;adxl_accX;adxl_accY;adxl_accZ;lsm_accelX;lsm_accelY;lsm_accelZ;lsm_gyroX;lsm_gyroY;lsm_gyroZ;ecg;flex_lsm_accelX;flex_lsm_accelY;flex_lsm_accelZ;flex_lsm_gyroX;flex_lsm_gyroY;flex_lsm_gyroZ;flex_cmd;flexTimeStamp
259.0;218.6;;;;;;;;;;;;;;;;;;;;17;0.1
259.0;218.6;;;;;;;;;;;;;;;;;13.119144;-1.2741477;0.553148;;127.5
259.0;218.6;;;;;;;;;;;;;;-0.900235;-1.2743309;-0.173101;;;;;127.5
259.0;218.6;;;;;;;;;;;;;;;;;-7.9348125;-20.313883;-9.697257;;127.5
259.0;218.6;;;;;;;;;;;;;;-0.89077425;-1.3241371;-0.10303049;;;;;127.5
259.0;218.6;;;;;;;;;;;;;;;;;-71.9512;-84.852905;-72.30216;;137.2
259.0;218.6;;;;;;;;;;;;;;-0.90841395;-1.2796412;-0.08905301;;;;;137.2
259.0;218.6;;;;;;;;;;;;;;;;;-123.764;-124.988556;-123.69152;;137.2
259.0;218.6;;;;;;;;;;;;;;-0.9074374;-1.2097538;-0.24921414;;;;;137.2
322.0;219.3;;;;;;;;;;;;;;;;;-72.09616;-120.59389;-118.65978;;146.9
322.0;219.3;;;;;;;;;;;;;;-0.98788416;-1.1106296;-0.33491012;;;;;146.9
322.0;219.3;;;;;;;;;;;;;;;;;-9.960478;-101.596115;-122.08548;;146.9
322.0;219.3;;;;;;;;;;;;;;-1.0541093;-1.0115055;-0.40021974;;;;;146.9
322.0;219.3;;;;;;;;;;;;;;;;;12.29133;-49.34843;-124.88556;;156.5
322.0;219.3;;;;;;;;;;;;;;-1.1220435;-0.85439616;-0.41163367;;;;;156.5
322.0;219.3;;;;;;;;;;;;;;;;;35.920284;57.363354;-124.64141;;156.5
322.0;219.3;;;;;;;;;;;;;;-1.2092655;-0.68782616;-0.4100467;;;;;156.5
322.0;219.3;;;;;;;;;;;;;;;;;60.045166;74.83139;-124.90845;;166.1
322.0;219.3;;;;;;;;;;;;;;-1.3283486;-0.5033723;-0.41206092;;;;;166.1
322.0;219.3;;;;;;;;;;;;;;;;;76.33061;84.5706;-124.988556;;166.1
322.0;219.3;;;;;;;;;;;;;;-1.4434035;-0.34815517;-0.42530596;;;;;166.1
322.0;277.8;;;;;;;;;;;;;;;;;88.255714;90.350044;-124.988556;;175.7
322.0;277.8;;;;;;;;;;;;;;-1.5503403;-0.19476913;-0.42017883;;;;;175.7
322.0;277.8;;;;;;;;;;;;;;;;;94.33271;89.098785;-124.60326;;175.7
322.0;277.8;;;;;;;;;;;;;;-1.6431166;-0.076906644;-0.4148076;;;;;175.7
322.0;277.8;;;;;;;;;;;;;;;;;90.01816;81.995605;-121.574295;;185.3
322.0;277.8;;;;;;;;;;;;;;-1.7904599;0.00573748;-0.47059542;;;;;185.3
322.0;277.8;;;;;;;;;;;;;;;;;74.56053;78.875084;-115.75289;;185.3
322.0;277.8;;;;;;;;;;;;;;-1.9708854;0.17639698;-0.53798026;;;;;185.3
322.0;277.8;;;;;;;;;;;;;;;;;51.89291;81.64845;-98.25053;;194.9
322.0;277.8;;;;;;;;;;;;;;-1.9998169;0.3700064;-0.5633106;;;;;194.9
322.0;277.8;;;;;;;;;;;;;;;;;30.80462;84.21583;-73.8052;;194.9
322.0;277.8;;;;;;;;;;;;;;-1.9998169;0.39728996;-0.5559252;;;;;194.9
443.0;278.4;;;;;;;;;;;;;;;;;5.9930725;83.54823;-77.94809;;204.5
443.0;278.4;;;;;;;;;;;;;;-1.9998169;0.3899655;-0.47932371;;;;;204.5
443.0;278.4;;;;;;;;;;;;;;;;;-41.87521;82.96838;-114.50545;;204.5
443.0;278.4;;;;;;;;;;;;;;-1.9677725;0.37781915;-0.5679495;;;;;204.5
443.0;278.4;;;;;;;;;;;;;;;;;-84.24253;99.05545;-124.9733;;214.2
443.0;278.4;;;;;;;;;;;;;;-1.7734306;0.23151341;-0.70583206;;;;;214.2
443.0;278.4;;;;;;;;;;;;;;;;;-101.374855;121.06311;-124.988556;;214.2
443.0;278.4;;;;;;;;;;;;;;-1.8642536;0.10852382;-0.66371655;;;;;214.2
443.0;278.4;;;;;;;;;;;;;;;;;-119.02601;122.10455;-124.988556;;223.7
443.0;278.4;;;;;;;;;;;;;;-1.9942015;0.06433302;-0.60206914;;;;;223.7
443.0;278.4;;;;;;;;;;;;;;;;;-122.245705;109.77126;-124.988556;;223.7
443.0;278.4;;;;;;;;;;;;;;-1.9998169;-0.14166692;-0.72170174;;;;;223.7
443.0;345.7;;;;;;;;;;;;;;;;;-94.08093;118.16004;-124.988556;;233.4
443.0;345.7;;;;;;;;;;;;;;-1.9205298;-0.4066286;-0.70607626;;;;;233.4
443.0;345.7;;;;;;;;;;;;;;;;;-55.35676;124.89319;-124.988556;;233.4
443.0;345.7;;;;;;;;;;;;;;-1.6621602;-0.5658132;-0.6458327;;;;;233.4
443.0;345.7;;;;;;;;;;;;;;;;;-29.618214;124.988556;-124.988556;;243.1
443.0;345.7;;;;;;;;;;;;;;-1.5519882;-0.64442885;-0.43159276;;;;;243.1
443.0;345.7;;;;;;;;;;;;;;;;;-32.609028;124.988556;-124.988556;;243.1
443.0;345.7;;;;;;;;;;;;;;-1.4791712;-0.6568804;-0.40522477;;;;;243.1
443.0;345.7;;;;;;;;;;;;;;;;;-50.67217;122.5547;-124.988556;;252.8
443.0;345.7;;;;;;;;;;;;;;-1.4768517;-0.6409497;-0.4491104;;;;;252.8
443.0;345.7;;;;;;;;;;;;;;;;;-62.711723;96.79708;-124.988556;;252.8
443.0;345.7;;;;;;;;;;;;;;-1.6179082;-0.6493728;-0.33326212;;;;;252.8
445.0;398.4;;;;;;;;;;;;;;;;;-58.828243;40.364544;-124.988556;;262.4
445.0;398.4;;;;;;;;;;;;;;-1.6661276;-0.8006836;-0.3217261;;;;;262.4
445.0;398.4;;;;;;;;;;;;;;;;;-23.785364;23.003326;-124.88937;;262.4
445.0;398.4;;;;;;;;;;;;;;-1.4687948;-0.62977993;-0.6670126;;;;;262.4
445.0;398.4;;;;;;;;;;;;;;;;;8.957183;80.45824;-121.16611;;272.0
445.0;398.4;;;;;;;;;;;;;;-1.521775;-0.51008636;-0.54054385;;;;;272.0
445.0;398.4;;;;;;;;;;;;;;;;;16.315958;105.304115;-113.54793;;272.0
445.0;398.4;;;;;;;;;;;;;;-1.5886105;-0.3374737;-0.5413373;;;;;272.0
445.0;398.4;;;;;;;;;;;;;;;;;28.962067;93.6842;-108.86334;;281.7
445.0;398.4;;;;;;;;;;;;;;-1.642323;-0.20239876;-0.69252604;;;;;281.7
445.0;398.4;;;;;;;;;;;;;;;;;52.678764;85.07416;-115.68804;;281.7
445.0;398.4;;;;;;;;;;;;;;-1.7095249;-0.051759392;-0.56990266;;;;;281.7
445.0;399.3;;;;;;;;;;;;;;;;;64.90524;62.318798;-123.195595;;291.3
445.0;399.3;;;;;;;;;;;;;;-1.4876553;0.14380322;-0.45515305;;;;;291.3
445.0;399.3;;;;;;;;;;;;;;;;;69.56694;34.52025;-117.9693;;291.3
445.0;399.3;;;;;;;;;;;;;;-1.2342296;0.22070986;-0.48365733;;;;;291.3
445.0;399.3;;;;;;;;;;;;;;;;;71.49724;44.0611;-108.74508;;301.0
445.0;399.3;;;;;;;;;;;;;;-1.2083498;0.2699057;-0.40571305;;;;;301.0
445.0;399.3;;;;;;;;;;;;;;;;;66.21372;62.9368;-97.472305;;301.0
445.0;399.3;;;;;;;;;;;;;;-1.2543107;0.29419842;-0.21173742;;;;;301.0
445.0;399.3;;;;;;;;;;;;;;;;;53.506577;62.440872;-94.72564;;310.6
445.0;399.3;;;;;;;;;;;;;;-1.2487564;0.34351635;-0.15985595;;;;;310.6
445.0;399.3;;;;;;;;;;;;;;;;;45.19791;55.67339;-92.413864;;310.6
445.0;399.3;;;;;;;;;;;;;;-1.1844233;0.30823696;-0.16400647;;;;;310.6
503.0;400.5;;;;;;;;;;;;;;;;;43.591877;53.159428;-98.16279;;320.2
503.0;400.5;;;;;;;;;;;;;;-1.1059908;0.14984588;-0.08972442;;;;;320.2
503.0;400.5;;;;;;;;;;;;;;;;;32.34962;60.296944;-108.8786;;320.2
503.0;400.5;;;;;;;;;;;;;;-1.0392773;0.10644856;-0.023377178;;;;;320.2
503.0;400.5;;;;;;;;;;;;;;;;;26.375622;68.098236;-108.40938;;329.8
503.0;400.5;;;;;;;;;;;;;;-0.96963406;0.11902219;-0.057069615;;;;;329.8
503.0;400.5;;;;;;;;;;;;;;;;;29.156622;78.35627;-103.1869;;329.8
503.0;400.5;;;;;;;;;;;;;;-0.9333781;0.054933317;-0.06457717;;;;;329.8
503.0;400.5;;;;;;;;;;;;;;;;;36.46199;80.553604;-104.18638;;339.4
503.0;400.5;;;;;;;;;;;;;;-0.8924833;-0.041016877;-0.119754635;;;;;339.4
503.0;400.5;;;;;;;;;;;;;;;;;37.53395;80.29038;-106.4066;;339.4
503.0;400.5;;;;;;;;;;;;;;-0.81136507;-0.0010376293;-0.117984556;;;;;339.4
503.0;458.7;;;;;;;;;;;;;;;;;48.57784;79.432045;-98.55572;;349.1
503.0;458.7;;;;;;;;;;;;;;-0.774926;0.07599109;-0.2402417;;;;;349.1
503.0;458.7;;;;;;;;;;;;;;;;;61.559647;96.14857;-92.1163;;349.1
503.0;458.7;;;;;;;;;;;;;;-0.75734735;-0.07593005;-0.104373306;;;;;349.1
503.0;458.7;;;;;;;;;;;;;;;;;64.561905;89.04538;-101.06586;;358.8
503.0;458.7;;;;;;;;;;;;;;-0.6542558;3.051851E-4;-0.10681479;;;;;358.8
503.0;458.7;;;;;;;;;;;;;;;;;59.31654;97.25486;-91.86834;;358.8
503.0;458.7;;;;;;;;;;;;;;-0.71895504;0.014831996;-0.17871639;;;;;358.8
503.0;458.7;;;;;;;;;;;;;;;;;71.928314;103.05719;-87.99631;;368.5
503.0;458.7;;;;;;;;;;;;;;-0.7379986;-0.018127995;-0.12207404;;;;;368.5
503.0;458.7;;;;;;;;;;;;;;;;;75.21668;96.686455;-88.9233;;368.5
503.0;458.7;;;;;;;;;;;;;;-0.6930143;-0.0049439985;-0.083254494;;;;;368.5
564.0;459.5;;;;;;;;;;;;;;;;;78.016754;92.169716;-84.768974;;378.1
564.0;459.5;;;;;;;;;;;;;;-0.6631062;0.048646506;-0.10498367;;;;;378.1
564.0;459.5;;;;;;;;;;;;;;;;;75.53331;90.78112;-78.44401;;378.1
564.0;459.5;;;;;;;;;;;;;;-0.68568987;0.045350507;-0.14819789;;;;;378.1
564.0;459.5;;;;;;;;;;;;;;;;;80.839714;89.5909;-73.82809;;387.8
564.0;459.5;;;;;;;;;;;;;;-0.7327494;0.07513657;-0.123661004;;;;;387.8
564.0;459.5;;;;;;;;;;;;;;;;;82.71279;81.49205;-70.7152;;387.8
564.0;459.5;;;;;;;;;;;;;;-0.6898404;0.11761834;-0.15912351;;;;;387.8
564.0;459.5;;;;;;;;;;;;;;;;;80.683304;75.09461;-68.37672;;397.4
564.0;459.5;;;;;;;;;;;;;;-0.6355174;0.15039521;-0.11633656;;;;;397.4
564.0;459.5;;;;;;;;;;;;;;;;;76.18946;70.12009;-63.234352;;397.4
564.0;459.5;;;;;;;;;;;;;;-0.6227607;0.19775994;-0.14062929;;;;;397.4
564.0;519.1;;;;;;;;;;;;;;;;;70.20402;65.05783;-58.78628;;407.0
564.0;519.1;;;;;;;;;;;;;;-0.6178777;0.21784112;-0.13977477;;;;;407.0
564.0;519.1;;;;;;;;;;;;;;;;;62.47139;59.96124;-55.375835;;407.0
564.0;519.1;;;;;;;;;;;;;;-0.5905942;0.23810542;-0.16718039;;;;;407.0
564.0;519.1;;;;;;;;;;;;;;;;;57.706688;54.70443;-50.908688;;416.7
564.0;519.1;;;;;;;;;;;;;;-0.5696585;0.28296763;-0.18988617;;;;;416.7
564.0;519.1;;;;;;;;;;;;;;;;;49.83291;55.90228;-46.19739;;416.7
564.0;519.1;;;;;;;;;;;;;;-0.5475631;0.29456466;-0.23023164;;;;;416.7
564.0;519.1;;;;;;;;;;;;;;;;;40.082245;55.02487;-41.31443;;426.2
564.0;519.1;;;;;;;;;;;;;;-0.5290689;0.31482893;-0.22663045;;;;;426.2
564.0;519.1;;;;;;;;;;;;;;;;;29.229103;54.83413;-36.214027;;426.2
564.0;519.1;;;;;;;;;;;;;;-0.46290475;0.3432722;-0.2849208;;;;;426.2
628.0;520.3;;;;;;;;;;;;;;;;;18.837551;60.76998;-32.105473;;435.9
628.0;520.3;;;;;;;;;;;;;;-0.43720818;0.3172094;-0.26471755;;;;;435.9
628.0;520.3;;;;;;;;;;;;;;;;;10.525071;57.531204;-31.186102;;435.9
628.0;520.3;;;;;;;;;;;;;;-0.39551988;0.32459486;-0.29450363;;;;;435.9
628.0;520.3;;;;;;;;;;;;;;;;;0.23651844;53.426468;-25.990326;;445.6
628.0;520.3;;;;;;;;;;;;;;-0.3686636;0.33954895;-0.28449354;;;;;445.6
628.0;520.3;;;;;;;;;;;;;;;;;-9.269998;49.45143;-22.186956;;445.6
628.0;520.3;;;;;;;;;;;;;;-0.3602405;0.28321177;-0.33167517;;;;;445.6
628.0;520.3;;;;;;;;;;;;;;;;;-23.838772;50.954464;-20.168919;;455.2
628.0;520.3;;;;;;;;;;;;;;-0.34980315;0.26929533;-0.32288584;;;;;455.2
628.0;520.3;;;;;;;;;;;;;;;;;-41.66158;51.847134;-16.49907;;455.2
628.0;520.3;;;;;;;;;;;;;;-0.3665273;0.23755608;-0.3983276;;;;;455.2
628.0;579.5;;;;;;;;;;;;;;;;;-55.1355;50.87054;-12.283701;;464.9
628.0;579.5;;;;;;;;;;;;;;-0.35047457;0.1820124;-0.43317974;;;;;464.9
628.0;579.5;;;;;;;;;;;;;;;;;-67.5451;46.658985;-8.816034;;464.9
628.0;579.5;;;;;;;;;;;;;;-0.31800288;0.12945952;-0.45496994;;;;;464.9
628.0;579.5;;;;;;;;;;;;;;;;;-70.4329;41.348766;-5.53148;;474.4
628.0;579.5;;;;;;;;;;;;;;-0.29950866;0.031311993;-0.4459975;;;;;474.4
628.0;579.5;;;;;;;;;;;;;;;;;-68.556015;36.86636;-4.0971103;;474.4
628.0;579.5;;;;;;;;;;;;;;-0.2826014;-0.054383986;-0.4170049;;;;;474.4
628.0;579.5;;;;;;;;;;;;;;;;;-61.765648;39.685505;-1.8272958;;484.0
628.0;579.5;;;;;;;;;;;;;;-0.29523605;-0.17389446;-0.36463514;;;;;484.0
628.0;579.5;;;;;;;;;;;;;;;;;-52.125614;42.16895;1.2131108;;484.0
628.0;579.5;;;;;;;;;;;;;;-0.30494094;-0.23749503;-0.31861323;;;;;484.0
686.0;580.3;;;;;;;;;;;;;;;;;-38.071842;42.26432;7.152776;;493.6
686.0;580.3;;;;;;;;;;;;;;-0.37256998;-0.39826655;-0.29145175;;;;;493.6
686.0;580.3;;;;;;;;;;;;;;;;;-28.405102;40.547653;9.441664;;493.6
686.0;580.3;;;;;;;;;;;;;;-0.4096805;-0.5337077;-0.2946257;;;;;493.6
686.0;580.3;;;;;;;;;;;;;;;;;-20.168919;39.10565;13.939329;;503.2
686.0;580.3;;;;;;;;;;;;;;-0.44898832;-0.6643269;-0.30030215;;;;;503.2
686.0;580.3;;;;;;;;;;;;;;;;;-10.414441;34.234135;17.235327;;503.2
686.0;580.3;;;;;;;;;;;;;;-0.47657704;-0.7958006;-0.37812433;;;;;503.2
686.0;580.3;;;;;;;;;;;;;;;;;-1.2131108;37.995544;16.876738;;512.9
686.0;580.3;;;;;;;;;;;;;;-0.4701071;-0.8872951;-0.4941557;;;;;512.9
686.0;580.3;;;;;;;;;;;;;;;;;9.037293;45.7358;15.808588;;512.9
686.0;580.3;;;;;;;;;;;;;;-0.47926268;-0.8915067;-0.6457717;;;;;512.9
686.0;594.4;;;;;;;;;;;;;;;;;23.388622;51.847134;21.961884;;522.5
686.0;594.4;;;;;;;;;;;;;;-0.549089;-0.96066165;-0.65266883;;;;;522.5
686.0;594.4;;;;;;;;;;;;;;;;;38.60973;49.043247;27.53151;;522.5
686.0;594.4;;;;;;;;;;;;;;-0.5759453;-0.9623707;-0.6799524;;;;;522.5
686.0;594.4;;;;;;;;;;;;;;;;;53.846096;47.33421;34.22269;;532.2
686.0;594.4;;;;;;;;;;;;;;-0.585284;-0.95706046;-0.6807459;;;;;532.2
686.0;594.4;;;;;;;;;;;;;;;;;68.25083;45.97232;41.093174;;532.2
686.0;594.4;;;;;;;;;;;;;;-0.58461255;-0.9564501;-0.69716483;;;;;532.2
686.0;594.4;;;;;;;;;;;;;;;;;79.710526;45.86932;46.815395;;541.8
686.0;594.4;;;;;;;;;;;;;;-0.5582446;-0.9005402;-0.7245094;;;;;541.8
686.0;594.4;;;;;;;;;;;;;;;;;90.58656;44.721058;57.264168;;541.8
686.0;594.4;;;;;;;;;;;;;;-0.5659963;-0.83242285;-0.7005829;;;;;541.8
744.0;639.8;;;;;;;;;;;;;;;;;104.54878;29.618214;68.88027;;551.5
744.0;639.8;;;;;;;;;;;;;;-0.65651417;-0.7646718;-0.60121465;;;;;551.5
744.0;639.8;;;;;;;;;;;;;;;;;119.85;2.9335918;73.53053;;551.5
744.0;639.8;;;;;;;;;;;;;;-0.7082736;-0.6504105;-0.5162511;;;;;551.5
744.0;639.8;;;;;;;;;;;;;;;;;124.96948;-16.041292;76.52135;;561.2
744.0;639.8;;;;;;;;;;;;;;-0.70796835;-0.54988253;-0.43433943;;;;;561.2
744.0;639.8;;;;;;;;;;;;;;;;;124.988556;-23.079622;80.3209;;561.2
744.0;639.8;;;;;;;;;;;;;;-0.76131475;-0.40064698;-0.27295756;;;;;561.2
744.0;639.8;;;;;;;;;;;;;;;;;124.988556;-35.29084;87.85898;;570.7
744.0;639.8;;;;;;;;;;;;;;-0.83932006;-0.20966215;-0.023194067;;;;;570.7
744.0;639.8;;;;;;;;;;;;;;;;;124.988556;-52.758873;102.41248;;570.7
744.0;639.8;;;;;;;;;;;;;;-0.8417005;0.025757622;0.19483016;;;;;570.7
744.0;655.2;;;;;;;;;;;;;;;;;124.988556;-59.755245;120.65492;;580.4
744.0;655.2;;;;;;;;;;;;;;-0.7557604;0.24970244;0.3009125;;;;;580.4
744.0;655.2;;;;;;;;;;;;;;;;;124.98474;-45.960876;124.988556;;580.4
744.0;655.2;;;;;;;;;;;;;;-0.63374734;0.40125737;0.1643727;;;;;580.4
744.0;655.2;;;;;;;;;;;;;;;;;122.10074;-8.762627;124.988556;;590.0
744.0;655.2;;;;;;;;;;;;;;-0.5944395;0.5283975;-0.006469924;;;;;590.0
744.0;655.2;;;;;;;;;;;;;;;;;111.80456;23.728142;124.988556;;590.0
744.0;655.2;;;;;;;;;;;;;;-0.6032899;0.59846795;-0.19342631;;;;;590.0
744.0;655.2;;;;;;;;;;;;;;;;;106.261635;42.95099;124.988556;;599.7
744.0;655.2;;;;;;;;;;;;;;-0.6194647;0.6088443;-0.31348613;;;;;599.7
744.0;655.2;;;;;;;;;;;;;;;;;106.40279;45.880764;124.988556;;599.7
744.0;655.2;;;;;;;;;;;;;;-0.57637256;0.6860561;-0.39362773;;;;;599.7
804.0;700.2;;;;;;;;;;;;;;;;;107.38701;47.124393;124.988556;;609.2
804.0;700.2;;;;;;;;;;;;;;-0.5030061;0.68300426;-0.5362713;;;;;609.2
804.0;700.2;;;;;;;;;;;;;;;;;67.97616;74.221016;124.988556;;609.2
804.0;700.2;;;;;;;;;;;;;;-0.49354532;0.70802945;-0.59346294;;;;;609.2
804.0;700.2;;;;;;;;;;;;;;;;;-41.112247;113.94467;124.988556;;618.8
804.0;700.2;;;;;;;;;;;;;;-0.58534503;0.6427198;-0.68764305;;;;;618.8
804.0;700.2;;;;;;;;;;;;;;;;;-118.92682;124.9733;124.988556;;618.8
804.0;700.2;;;;;;;;;;;;;;-0.73793757;0.2624592;-0.94497514;;;;;618.8
804.0;700.2;;;;;;;;;;;;;;;;;-124.652855;124.988556;120.3917;;628.5
804.0;700.2;;;;;;;;;;;;;;-0.8910794;-0.22284615;-1.2413709;;;;;628.5
804.0;700.2;;;;;;;;;;;;;;;;;-90.42634;124.988556;86.218605;;628.5
804.0;700.2;;;;;;;;;;;;;;-0.9819636;-0.41523483;-1.5222633;;;;;628.5
804.0;768.2;;;;;;;;;;;;;;;;;-2.5406659;124.988556;59.259315;;638.1
804.0;768.2;;;;;;;;;;;;;;-1.2758569;-0.61507004;-1.6149174;;;;;638.1
804.0;768.2;;;;;;;;;;;;;;;;;54.34965;114.013336;45.30091;;638.1
804.0;768.2;;;;;;;;;;;;;;-1.70983;-0.6803186;-1.0674764;;;;;638.1
804.0;768.2;;;;;;;;;;;;;;;;;61.74276;-7.881405;62.60872;;647.7
804.0;768.2;;;;;;;;;;;;;;-1.9946288;-0.8471328;-0.40736106;;;;;647.7
804.0;768.2;;;;;;;;;;;;;;;;;58.023315;-119.3846;90.65141;;647.7
804.0;768.2;;;;;;;;;;;;;;-1.9998169;-1.1011078;0.75673693;;;;;647.7
804.0;768.2;;;;;;;;;;;;;;;;;17.49855;-124.988556;77.99768;;657.4
804.0;768.2;;;;;;;;;;;;;;-1.9998169;-0.72670674;0.57008576;;;;;657.4
804.0;768.2;;;;;;;;;;;;;;;;;6.145665;-123.832664;84.02127;;657.4
804.0;768.2;;;;;;;;;;;;;;-1.9998169;-0.63417464;-0.26044497;;;;;657.4
864.0;768.9;;;;;;;;;;;;;;;;;4.203925;-43.89325;47.433395;;666.9
864.0;768.9;;;;;;;;;;;;;;-1.7025056;-0.2567217;0.20014039;;;;;666.9
864.0;768.9;;;;;;;;;;;;;;;;;-48.34132;100.188446;19.322033;;666.9
864.0;768.9;;;;;;;;;;;;;;-1.164159;0.02435377;0.042725913;;;;;666.9
864.0;768.9;;;;;;;;;;;;;;;;;-88.98052;124.988556;10.986664;;676.5
864.0;768.9;;;;;;;;;;;;;;-0.95773184;0.078676715;-0.021423994;;;;;676.5
864.0;768.9;;;;;;;;;;;;;;;;;-80.46205;122.03589;9.186071;;676.5
864.0;768.9;;;;;;;;;;;;;;-0.9549852;0.20697653;-0.121097445;;;;;676.5
864.0;768.9;;;;;;;;;;;;;;;;;-31.029694;60.22446;23.75866;;686.2
864.0;768.9;;;;;;;;;;;;;;-0.8695944;0.32074952;-0.21625416;;;;;686.2
864.0;768.9;;;;;;;;;;;;;;;;;8.472701;-23.075808;39.891506;;686.2
864.0;768.9;;;;;;;;;;;;;;-0.69252604;0.48634297;-0.4483169;;;;;686.2
864.0;770.2;;;;;;;;;;;;;;;;;5.7641835;-25.425734;61.754204;;695.8
864.0;770.2;;;;;;;;;;;;;;-0.66457105;0.4871975;-0.4596698;;;;;695.8
864.0;770.2;;;;;;;;;;;;;;;;;-12.764366;5.1461835;73.77468;;695.8
864.0;770.2;;;;;;;;;;;;;;-0.7559435;0.43037203;-0.36317027;;;;;695.8
864.0;770.2;;;;;;;;;;;;;;;;;-27.470472;21.397291;74.522385;;705.5
864.0;770.2;;;;;;;;;;;;;;-0.8760033;0.3698233;-0.30201116;;;;;705.5
864.0;770.2;;;;;;;;;;;;;;;;;-30.438398;14.275033;66.03824;;705.5
864.0;770.2;;;;;;;;;;;;;;-0.9319132;0.32917264;-0.24280526;;;;;705.5
864.0;770.2;;;;;;;;;;;;;;;;;-25.166325;-5.394147;52.411724;;715.1
864.0;770.2;;;;;;;;;;;;;;-0.9100009;0.2649617;-0.20679343;;;;;715.1
864.0;770.2;;;;;;;;;;;;;;;;;-16.39607;-19.104588;47.65465;;715.1
864.0;770.2;;;;;;;;;;;;;;-0.87887204;0.17987609;-0.19690542;;;;;715.1
924.0;821.1;;;;;;;;;;;;;;;;;-14.02707;-16.891996;48.329876;;724.8
924.0;821.1;;;;;;;;;;;;;;-0.887051;0.09021272;-0.21918394;;;;;724.8
924.0;821.1;;;;;;;;;;;;;;;;;-19.119846;-1.659444;47.647022;;724.8
924.0;821.1;;;;;;;;;;;;;;-0.91219825;0.008789331;-0.25910214;;;;;724.8
924.0;821.1;;;;;;;;;;;;;;;;;-27.146215;14.206367;47.90643;;734.4
924.0;821.1;;;;;;;;;;;;;;-0.9510178;-0.10187078;-0.31946775;;;;;734.4
924.0;821.1;;;;;;;;;;;;;;;;;-35.38621;23.499252;48.337505;;734.4
924.0;821.1;;;;;;;;;;;;;;-0.97238076;-0.1739555;-0.36725974;;;;;734.4
924.0;821.1;;;;;;;;;;;;;;;;;-42.134617;21.195105;53.044987;;744.1
924.0;821.1;;;;;;;;;;;;;;-0.96646017;-0.24976349;-0.40174565;;;;;744.1
924.0;821.1;;;;;;;;;;;;;;;;;-41.676838;10.414441;56.920834;;744.1
924.0;821.1;;;;;;;;;;;;;;-0.92965484;-0.3157445;-0.4911649;;;;;744.1
924.0;828.5;;;;;;;;;;;;;;;;;-37.854397;7.396924;55.524612;;753.6
924.0;828.5;;;;;;;;;;;;;;-0.90298164;-0.42066714;-0.5542772;;;;;753.6
924.0;828.5;;;;;;;;;;;;;;;;;-34.756767;9.151738;48.03995;;753.6
924.0;828.5;;;;;;;;;;;;;;-0.88283944;-0.4738914;-0.5641652;;;;;753.6
924.0;828.5;;;;;;;;;;;;;;;;;-39.361244;6.8857384;40.669727;;763.3
924.0;828.5;;;;;;;;;;;;;;-0.90157783;-0.5247353;-0.5055086;;;;;763.3
924.0;828.5;;;;;;;;;;;;;;;;;-47.887356;-8.80459;35.611286;;763.3
924.0;828.5;;;;;;;;;;;;;;-0.90859705;-0.56447035;-0.4069338;;;;;763.3
924.0;828.5;;;;;;;;;;;;;;;;;-52.076023;-34.241768;37.743767;;772.9
924.0;828.5;;;;;;;;;;;;;;-0.90554523;-0.57686085;-0.2862636;;;;;772.9
924.0;828.5;;;;;;;;;;;;;;;;;-52.919098;-53.338726;46.563614;;772.9
924.0;828.5;;;;;;;;;;;;;;-0.94155705;-0.5629444;-0.2174749;;;;;772.9
985.0;881.5;;;;;;;;;;;;;;;;;-48.146763;-54.1818;60.37324;;782.6
985.0;881.5;;;;;;;;;;;;;;-1.0196234;-0.53004545;-0.20441298;;;;;782.6
985.0;881.5;;;;;;;;;;;;;;;;;-47.276985;-37.514877;68.43394;;782.6
985.0;881.5;;;;;;;;;;;;;;-1.1307107;-0.4631489;-0.18457595;;;;;782.6
985.0;881.5;;;;;;;;;;;;;;;;;-50.000763;-26.50914;63.924835;;792.2
985.0;881.5;;;;;;;;;;;;;;-1.1977295;-0.41224402;-0.21131016;;;;;792.2
985.0;881.5;;;;;;;;;;;;;;;;;-43.378246;-31.865139;60.087128;;792.2
985.0;881.5;;;;;;;;;;;;;;-1.2492447;-0.3352153;-0.22180852;;;;;792.2
985.0;881.5;;;;;;;;;;;;;;;;;-39.46043;-41.798912;61.700794;;801.8
985.0;881.5;;;;;;;;;;;;;;-1.2825098;-0.22235785;-0.16162603;;;;;801.8
985.0;881.5;;;;;;;;;;;;;;;;;-39.15906;-50.10376;65.839874;;801.8
985.0;881.5;;;;;;;;;;;;;;-1.2853786;-0.109622486;-0.16589862;;;;;801.8
985.0;889.0;;;;;;;;;;;;;;;;;-44.28617;-44.133583;64.70306;;811.4
985.0;889.0;;;;;;;;;;;;;;-1.3359172;-0.102847375;-0.18335521;;;;;811.4
985.0;889.0;;;;;;;;;;;;;;;;;-45.194096;-38.861507;56.90176;;811.4
985.0;889.0;;;;;;;;;;;;;;-1.3072299;-0.06427198;-0.16046633;;;;;811.4
985.0;889.0;;;;;;;;;;;;;;;;;-41.36021;-46.720024;54.124577;;821.1
985.0;889.0;;;;;;;;;;;;;;-1.1912595;-0.003112888;-0.20844142;;;;;821.1
985.0;889.0;;;;;;;;;;;;;;;;;-39.407024;-49.83291;54.963833;;821.1
985.0;889.0;;;;;;;;;;;;;;-1.139195;0.051637318;-0.22626422;;;;;821.1
985.0;889.0;;;;;;;;;;;;;;;;;-40.215763;-46.59032;55.661945;;830.8
985.0;889.0;;;;;;;;;;;;;;-1.134556;0.07159642;-0.26160467;;;;;830.8
985.0;889.0;;;;;;;;;;;;;;;;;-41.364025;-42.329174;55.40254;;830.8
985.0;889.0;;;;;;;;;;;;;;-1.1304055;0.098818935;-0.3173925;;;;;830.8
1166.0;942.0;;;;;;;;;;;;;;;;;-42.676323;-41.13132;55.196537;;840.5
1166.0;942.0;;;;;;;;;;;;;;-1.1026947;0.13879818;-0.3607898;;;;;840.5
1166.0;942.0;;;;;;;;;;;;;;;;;-43.05399;-39.13236;57.05435;;840.5
1166.0;942.0;;;;;;;;;;;;;;-1.0909146;0.18402661;-0.4763329;;;;;840.5
1166.0;942.0;;;;;;;;;;;;;;;;;-45.533615;-26.577806;61.36128;;850.0
1166.0;942.0;;;;;;;;;;;;;;-1.1435896;0.22180852;-0.5387738;;;;;850.0
1166.0;942.0;;;;;;;;;;;;;;;;;-53.29295;-18.761253;65.298164;;850.0
1166.0;942.0;;;;;;;;;;;;;;-1.240028;0.23102511;-0.52076787;;;;;850.0
1166.0;942.0;;;;;;;;;;;;;;;;;-64.03546;-25.711843;62.73461;;859.7
1166.0;942.0;;;;;;;;;;;;;;-1.2689596;0.2602008;-0.545793;;;;;859.7
1166.0;942.0;;;;;;;;;;;;;;;;;-71.878716;-32.92566;57.531204;;859.7
1166.0;942.0;;;;;;;;;;;;;;-1.2535783;0.28730124;-0.5986511;;;;;859.7
1166.0;949.2;;;;;;;;;;;;;;;;;-75.51424;-33.883175;54.082615;;869.4
1166.0;949.2;;;;;;;;;;;;;;-1.2258065;0.29071933;-0.6646321;;;;;869.4
1166.0;949.2;;;;;;;;;;;;;;;;;-77.18513;-29.904325;53.720207;;869.4
1166.0;949.2;;;;;;;;;;;;;;-1.1775261;0.276986;-0.74434644;;;;;869.4
1166.0;949.2;;;;;;;;;;;;;;;;;-79.74868;-19.909512;55.78402;;879.0
1166.0;949.2;;;;;;;;;;;;;;-1.1540269;0.2535478;-0.7769402;;;;;879.0
1166.0;949.2;;;;;;;;;;;;;;;;;-78.97808;-14.069033;58.6375;;879.0
1166.0;949.2;;;;;;;;;;;;;;-1.139195;0.22266304;-0.8002564;;;;;879.0
1166.0;949.2;;;;;;;;;;;;;;;;;-73.81283;-12.607959;61.662647;;888.7
1166.0;949.2;;;;;;;;;;;;;;-1.150731;0.2080752;-0.80721456;;;;;888.7
1166.0;949.2;;;;;;;;;;;;;;;;;-70.448166;-13.3785515;66.20991;;888.7
1166.0;949.2;;;;;;;;;;;;;;-1.1813715;0.18842128;-0.7851802;;;;;888.7
1167.0;1129.2;;;;0.0;0.0;0.0;;;;;;;;;;;;;;;
1167.0;1129.2;;;;-0.044139866;0.14525606;0.0137138385;;;;;;;;;;;;;;;
1167.0;1129.2;;;;-0.20404437;0.6199189;-0.08022309;;;;;;;;;;;;;;;
1167.0;1129.2;;;;-0.2187691;0.68589026;-0.10119249;;;;;;;;;;;;;;;
1167.0;1129.2;;;;-0.22111896;0.6850472;-0.096641555;;;;;;;;;;;;;;;
1167.0;1130.8;;;;;;;;;;;;;;;;;-68.93368;-20.023956;69.36475;;898.2
1167.0;1130.8;;;;;;;;;;;;;;-1.223487;0.17468795;-0.7817011;;;;;898.2
1167.0;1130.8;;;;;;;;;;;;;;;;;-61.45283;-31.85751;73.000275;;898.2
1167.0;1130.8;;;;;;;;;;;;;;-1.2544938;0.17017122;-0.80617696;;;;;898.2
1167.0;1130.8;;;;;;;;;;;;;;;;;-53.68206;-38.693657;75.464645;;907.8
1167.0;1130.8;;;;;;;;;;;;;;-1.231788;0.15601063;-0.8476821;;;;;907.8
1167.0;1130.8;;;;;;;;;;;;;;;;;-48.368023;-38.62499;78.49361;;907.8
1167.0;1130.8;;;;;;;;;;;;;;-1.2724388;0.07538072;-0.8318125;;;;;907.8
1167.0;1130.8;;;;;;;;;;;;;;;;;-42.016357;-46.815395;79.2642;;917.4
1167.0;1130.8;;;;;;;;;;;;;;-1.2973418;0.098818935;-0.81887263;;;;;917.4
1167.0;1130.8;;;;;;;;;;;;;;;;;-35.126804;-57.22602;81.54164;;917.4
1167.0;1130.8;;;;;;;;;;;;;;-1.2961211;0.058900725;-0.80684835;;;;;917.4
1168.0;1131.5;;;;;;;;;;;;;;;;;-27.275919;-63.318275;82.4839;;927.1
1168.0;1131.5;;;;;;;;;;;;;;-1.2839748;0.026734214;-0.76430553;;;;;927.1
1168.0;1131.5;;;;;;;;;;;;;;;;;-23.915068;-65.53468;82.89209;;927.1
1168.0;1131.5;;;;;;;;;;;;;;-1.258034;0.020447401;-0.7516709;;;;;927.1
1168.0;1131.5;;;;;;;;;;;;;;;;;-25.246437;-63.768425;85.77227;;936.7
1168.0;1131.5;;;;;;;;;;;;;;-1.2334971;-0.019837031;-0.7851192;;;;;936.7
1168.0;1131.5;;;;;;;;;;;;;;;;;-25.818659;-59.446243;87.26386;;936.7
1168.0;1131.5;;;;;;;;;;;;;;-1.2391735;-0.09430219;-0.7927488;;;;;936.7
1168.0;1131.5;;;;;;;;;;;;;;;;;-21.496475;-60.865353;86.825165;;946.3
1168.0;1131.5;;;;;;;;;;;;;;-1.2099979;-0.13287759;-0.76235235;;;;;946.3
1168.0;1131.5;;;;;;;;;;;;;;;;;-20.989105;-63.955353;87.35542;;946.3
1168.0;1131.5;;;;;;;;;;;;;;-1.150853;-0.18903165;-0.7556383;;;;;946.3
1168.0;1133.4;;;;;;;;;;;;;;;;;-24.838251;-62.295906;84.73464;;955.8
1168.0;1133.4;;;;;;;;;;;;;;-1.1139256;-0.29627368;-0.7457503;;;;;955.8
1168.0;1133.4;;;;;;;;;;;;;;;;;-30.16373;-57.412945;79.824974;;955.8
1168.0;1133.4;;;;;;;;;;;;;;-1.1111178;-0.42548907;-0.77767265;;;;;955.8
1168.0;1133.4;;;;;;;;;;;;;;;;;-35.664692;-51.49617;74.507126;;965.5
1168.0;1133.4;;;;;;;;;;;;;;-1.1531724;-0.6036561;-0.7833491;;;;;965.5
1168.0;1133.4;;;;;;;;;;;;;;;;;-37.751396;-55.551315;64.97009;;965.5
1168.0;1133.4;;;;;;;;;;;;;;-1.2114627;-0.7802362;-0.75643176;;;;;965.5
1168.0;1133.4;;;;;;;;;;;;;;;;;-41.12369;-69.26557;50.962093;;975.1
1168.0;1133.4;;;;;;;;;;;;;;-1.2715843;-0.97024447;-0.69057286;;;;;975.1
1168.0;1133.4;;;;;;;;;;;;;;;;;-52.583393;-87.65298;29.137547;;975.1
1168.0;1133.4;;;;;;;;;;;;;;-1.3358562;-1.1386455;-0.58540606;;;;;975.1
1170.0;1134.3;;;;;;;;;;;;;;;;;-74.38124;-107.67312;-3.38374;;984.7
1170.0;1134.3;;;;;;;;;;;;;;-1.3489791;-1.2896512;-0.49501023;;;;;984.7
1170.0;1134.3;;;;;;;;;;;;;;;;;-85.24964;-122.25715;-33.43303;;984.7
1170.0;1134.3;;;;;;;;;;;;;;-1.2954497;-1.4777672;-0.47199926;;;;;984.7
1170.0;1134.3;;;;;;;;;;;;;;;;;-89.67482;-123.79452;-54.20469;;994.3
1170.0;1134.3;;;;;;;;;;;;;;-1.2607807;-1.6699117;-0.3813593;;;;;994.3
1170.0;1134.3;;;;;;;;;;;;;;;;;-96.63305;-124.22559;-80.046234;;994.3
1170.0;1134.3;;;;;;;;;;;;;;-1.1656239;-1.9035004;-0.4770043;;;;;994.3
1170.0;1134.3;;;;;;;;;;;;;;;;;-96.800896;-120.509964;-110.05356;;1003.9
1170.0;1134.3;;;;;;;;;;;;;;-1.004181;-1.7414472;-0.36872464;;;;;1003.9
1170.0;1134.3;;;;;;;;;;;;;;;;;-121.89474;-115.58885;-124.13022;;1003.9
1170.0;1134.3;;;;;;;;;;;;;;-0.86288035;-1.916013;-0.41602832;;;;;1003.9
1170.0;1138.1;;;;;;;;;;;;;;;;;-124.988556;-119.77752;-124.98093;;1013.5
1170.0;1138.1;;;;;;;;;;;;;;-0.7905515;-1.9813226;-0.4464858;;;;;1013.5
1170.0;1138.1;;;;;;;;;;;;;;;;;-123.67626;-119.91866;-124.988556;;1013.5
1170.0;1138.1;;;;;;;;;;;;;;-0.67952514;-1.9998169;-0.5727714;;;;;1013.5
1170.0;1138.1;;;;;;;;;;;;;;;;;-99.87563;-112.800224;-124.988556;;1023.2
1170.0;1138.1;;;;;;;;;;;;;;-0.45277262;-1.9998169;-0.5706961;;;;;1023.2
1170.0;1138.1;;;;;;;;;;;;;;;;;-49.58113;-75.31205;-124.988556;;1023.2
1170.0;1138.1;;;;;;;;;;;;;;-0.12994781;-1.9584948;-0.6695761;;;;;1023.2
1170.0;1138.1;;;;;;;;;;;;;;;;;-2.521592;-27.809992;-117.04993;;1032.8
1170.0;1138.1;;;;;;;;;;;;;;-0.015381329;-1.9017915;-0.5383465;;;;;1032.8
1170.0;1138.1;;;;;;;;;;;;;;;;;-0.17548142;-17.651142;-76.60146;;1032.8
1170.0;1138.1;;;;;;;;;;;;;;0.12158574;-1.9326152;-0.65865046;;;;;1032.8
1222.0;1138.9;;;;;;;;;;;;;;;;;-25.257881;-15.911589;-60.983612;;1042.4
1222.0;1138.9;;;;;;;;;;;;;;0.19135106;-1.8420973;-0.7943968;;;;;1042.4
1222.0;1138.9;;;;;;;;;;;;;;;;;-41.318245;-11.440626;-66.57613;;1042.4
1222.0;1138.9;;;;;;;;;;;;;;0.25055698;-1.8040102;-0.850734;;;;;1042.4
1222.0;1138.9;;;;;;;;;;;;;;;;;-33.20414;-4.4175544;-64.8938;;1052.0
1222.0;1138.9;;;;;;;;;;;;;;0.19232765;-1.8303782;-0.78096867;;;;;1052.0
1222.0;1138.9;;;;;;;;;;;;;;;;;-24.09055;2.990814;-59.457687;;1052.0
1222.0;1138.9;;;;;;;;;;;;;;0.028626362;-1.8243355;-0.6140934;;;;;1052.0
1222.0;1138.9;;;;;;;;;;;;;;;;;-20.626698;2.5559251;-63.512833;;1061.7
1222.0;1138.9;;;;;;;;;;;;;;-0.03723258;-1.7527391;-0.4941557;;;;;1061.7
1222.0;1138.9;;;;;;;;;;;;;;;;;-20.241402;-1.0109257;-71.085236;;1061.7
1222.0;1138.9;;;;;;;;;;;;;;-0.04449599;-1.6828517;-0.45979187;;;;;1061.7
1222.0;1138.8;;;;-0.22133258;0.6815873;-0.09344483;;;;;;;;;;;;;;;
1222.0;1138.8;;;;-0.2190018;0.6756249;-0.089248665;;;;;;;;;;;;;;;
1222.0;1138.8;;;;-0.21732333;0.6689339;-0.0837555;;;;;;;;;;;;;;;
1222.0;1138.8;;;;-0.21322253;0.6635056;-0.07761384;;;;;;;;;;;;;;;
1222.0;1138.8;;;;-0.20432666;0.6562119;-0.07081986;;;;;;;;;;;;;;;
1222.0;1141.1;57510;57535;10423;;;;;;;;;;;;;;;;;;
1222.0;1148.8;;;;-0.19740298;0.6491166;-0.060882576;;;;;;;;;;;;;;;
1222.0;1148.8;;;;-0.18879703;0.6441727;-0.050041206;;;;;;;;;;;;;;;
1222.0;1148.8;;;;-0.18198778;0.64028174;-0.044170383;;;;;;;;;;;;;;;
1222.0;1148.8;;;;-0.17621233;0.6377335;-0.042190555;;;;;;;;;;;;;;;
1222.0;1148.8;;;;-0.17182542;0.63631445;-0.04505158;;;;;;;;;;;;;;;
1225.0;1158.6;;;;-0.16751482;0.63537604;-0.047840126;;;;;;;;;;;;;;;
1225.0;1158.6;;;;-0.16326906;0.6338845;-0.047264107;;;;;;;;;;;;;;;
1225.0;1158.6;;;;-0.16468431;0.63522345;-0.0436554;;;;;;;;;;;;;;;
1225.0;1158.6;;;;-0.1687317;0.63948065;-0.040508274;;;;;;;;;;;;;;;
1225.0;1158.6;;;;-0.1762581;0.64005286;-0.03600693;;;;;;;;;;;;;;;
1225.0;1161.0;73923;73863;10391;;;;;;;;;;;;;;;;;;
1225.0;1167.3;;;;;;;;;;;;;0;;;;;;;;
1225.0;1167.3;;;;;;;;;;;;;0;;;;;;;;
1225.0;1167.3;;;;;;;;;;;;;-1;;;;;;;;
1225.0;1167.3;;;;;;;;;;;;;-2;;;;;;;;
1225.0;1167.3;;;;;;;;;;;;;-2;;;;;;;;
1225.0;1168.8;;;;-0.19171527;0.64561087;-0.03136826;;;;;;;;;;;;;;;
1225.0;1168.8;;;;-0.20985416;0.6516419;-0.025539402;;;;;;;;;;;;;;;
1225.0;1168.8;;;;-0.23109439;0.657425;-0.013854982;;;;;;;;;;;;;;;
1225.0;1168.8;;;;-0.25299838;0.6666375;-0.004959107;;;;;;;;;;;;;;;
1225.0;1168.8;;;;-0.2738724;0.6751023;8.58307E-4;;;;;;;;;;;;;;;
1225.0;1178.9;;;;-0.29542544;0.68851477;0.005386353;;;;;;;;;;;;;;;
1225.0;1178.9;;;;-0.31484988;0.7045899;0.009075166;;;;;;;;;;;;;;;
1225.0;1178.9;;;;-0.3310509;0.7196999;0.017620089;;;;;;;;;;;;;;;
1225.0;1178.9;;;;-0.3478394;0.73989874;0.032478336;;;;;;;;;;;;;;;
1225.0;1178.9;;;;-0.3631554;0.7574502;0.047821052;;;;;;;;;;;;;;;
1225.0;1181.2;90354;90328;10392;;;;;;;;;;;;;;;;;;
1226.0;1189.0;;;;-0.3812638;0.77196896;0.06500626;;;;;;;;;;;;;;;
1226.0;1189.0;;;;-0.3988343;0.791752;0.08425141;;;;;;;;;;;;;;;
1226.0;1189.0;;;;-0.4127732;0.8096734;0.101943985;;;;;;;;;;;;;;;
1226.0;1189.0;;;;-0.4282456;0.8252908;0.12069704;;;;;;;;;;;;;;;
1226.0;1189.0;;;;-0.44581228;0.84255993;0.1435013;;;;;;;;;;;;;;;
1226.0;1190.7;;;;;;;;;;;;;;;;;-22.74392;-1.8272958;-78.67671;;1071.4
1226.0;1190.7;;;;;;;;;;;;;;-0.084231086;-1.60271;-0.46632284;;;;;1071.4
1226.0;1190.7;;;;;;;;;;;;;;;;;-26.448103;-1.4687033;-87.02353;;1071.4
1226.0;1190.7;;;;;;;;;;;;;;-0.14831996;-1.4883267;-0.5023957;;;;;1071.4
1226.0;1190.7;;;;;;;;;;;;;;;;;-31.136509;1.1291848;-96.25919;;1081.0
1226.0;1190.7;;;;;;;;;;;;;;-0.21948913;-1.3514817;-0.5719169;;;;;1081.0
1226.0;1190.7;;;;;;;;;;;;;;;;;-37.228767;8.247627;-105.71993;;1081.0
1226.0;1190.7;;;;;;;;;;;;;;-0.28449354;-1.2555314;-0.66335034;;;;;1081.0
1226.0;1190.7;;;;;;;;;;;;;;;;;-44.335762;20.531326;-115.23408;;1090.6
1226.0;1190.7;;;;;;;;;;;;;;-0.34052554;-1.233192;-0.7626575;;;;;1090.6
1226.0;1190.7;;;;;;;;;;;;;;;;;-48.1048;35.088654;-123.023926;;1090.6
1226.0;1190.7;;;;;;;;;;;;;;-0.43415633;-1.2078615;-0.79464096;;;;;1090.6
1228.0;1191.9;;;;;;;;;;;;;;;;;-45.57939;46.845913;-124.946594;;1100.1
1228.0;1191.9;;;;;;;;;;;;;;-0.565508;-1.1627553;-0.7629017;;;;;1100.1
1228.0;1191.9;;;;;;;;;;;;;;;;;-35.340435;54.52895;-124.988556;;1100.1
1228.0;1191.9;;;;;;;;;;;;;;-0.75789666;-0.9614551;-0.6779992;;;;;1100.1
1228.0;1191.9;;;;;;;;;;;;;;;;;-28.515732;66.84317;-124.988556;;1109.6
1228.0;1191.9;;;;;;;;;;;;;;-0.9667043;-0.77498704;-0.7494736;;;;;1109.6
1228.0;1191.9;;;;;;;;;;;;;;;;;-28.477585;79.99283;-124.988556;;1109.6
1228.0;1191.9;;;;;;;;;;;;;;-1.1260719;-0.6542558;-0.77266765;;;;;1109.6
1228.0;1191.9;;;;;;;;;;;;;;;;;-26.085695;79.889824;-124.988556;;1119.3
1228.0;1191.9;;;;;;;;;;;;;;-1.1783807;-0.5708182;-0.9078036;;;;;1119.3
1228.0;1191.9;;;;;;;;;;;;;;;;;-24.48729;87.6339;-124.988556;;1119.3
1228.0;1191.9;;;;;;;;;;;;;;-1.0976287;-0.6037782;-1.073397;;;;;1119.3
1228.0;1198.8;;;;-0.45886618;0.85237896;0.16778947;;;;;;;;;;;;;;;
1228.0;1198.8;;;;-0.47700125;0.86836636;0.19484714;;;;;;;;;;;;;;;
1228.0;1198.8;;;;-0.5032311;0.8832208;0.2210007;;;;;;;;;;;;;;;
1228.0;1198.8;;;;-0.5342179;0.9026414;0.24932483;;;;;;;;;;;;;;;
1228.0;1198.8;;;;-0.5610886;0.9263154;0.27652743;;;;;;;;;;;;;;;
1228.0;1201.2;106699;106746;10364;;;;;;;;;;;;;;;;;;
1228.0;1207.5;;;;;;;;;;;;;-12;;;;;;;;
1228.0;1207.5;;;;;;;;;;;;;0;;;;;;;;
1228.0;1207.5;;;;;;;;;;;;;4;;;;;;;;
1228.0;1207.5;;;;;;;;;;;;;-52;;;;;;;;
1228.0;1207.5;;;;;;;;;;;;;-9;;;;;;;;
1284.0;1208.9;;;;-0.59104544;0.94220746;0.3031464;;;;;;;;;;;;;;;
1284.0;1208.9;;;;-0.63587576;0.95482266;0.32678226;;;;;;;;;;;;;;;
1284.0;1208.9;;;;-0.6661568;0.96541226;0.35379794;;;;;;;;;;;;;;;
1284.0;1208.9;;;;-0.70213705;0.97927487;0.3796807;;;;;;;;;;;;;;;
1284.0;1208.9;;;;-0.7389336;0.9990388;0.39773566;;;;;;;;;;;;;;;
1284.0;1218.8;;;;-0.7736665;1.0179521;0.4141007;;;;;;;;;;;;;;;
1284.0;1218.8;;;;-0.81095517;1.0288354;0.43538672;;;;;;;;;;;;;;;
1284.0;1218.8;;;;-0.8402864;1.0459672;0.45785147;;;;;;;;;;;;;;;
1284.0;1218.8;;;;-0.8611032;1.0627633;0.47515494;;;;;;;;;;;;;;;
1284.0;1218.8;;;;-0.8747102;1.0649453;0.48555;;;;;;;;;;;;;;;
1284.0;1221.2;123071;123040;10332;;;;;;;;;;;;;;;;;;
1284.0;1228.9;;;;-0.89857495;1.0736848;0.5033341;;;;;;;;;;;;;;;
1284.0;1228.9;;;;-0.91822445;1.0882417;0.5155602;;;;;;;;;;;;;;;
1284.0;1228.9;;;;-0.93278134;1.1064492;0.5292321;;;;;;;;;;;;;;;
1284.0;1228.9;;;;-0.93452466;1.1373483;0.537262;;;;;;;;;;;;;;;
1284.0;1228.9;;;;-0.92943585;1.1612779;0.5439492;;;;;;;;;;;;;;;
1284.0;1239.0;;;;-0.9261819;1.1771661;0.5481644;;;;;;;;;;;;;;;
1284.0;1239.0;;;;-0.92762387;1.1931993;0.5510979;;;;;;;;;;;;;;;
1284.0;1239.0;;;;-0.92419446;1.2060205;0.558754;;;;;;;;;;;;;;;
1284.0;1239.0;;;;-0.9246713;1.2317773;0.5611649;;;;;;;;;;;;;;;
1284.0;1239.0;;;;-0.9216386;1.2384111;0.55811316;;;;;;;;;;;;;;;
1286.0;1241.5;139432;139415;10303;;;;;;;;;;;;;;;;;;
1286.0;1243.2;;;;;;;;;;;;;;;;;-20.039215;103.30897;-124.988556;;1128.9
1286.0;1243.2;;;;;;;;;;;;;;-1.0184027;-0.5386517;-1.1708732;;;;;1128.9
1286.0;1243.2;;;;;;;;;;;;;;;;;-16.750847;115.150154;-124.988556;;1128.9
1286.0;1243.2;;;;;;;;;;;;;;-0.9587695;-0.48255867;-1.2296518;;;;;1128.9
1286.0;1243.2;;;;;;;;;;;;;;;;;-5.42848;123.11548;-124.988556;;1138.6
1286.0;1243.2;;;;;;;;;;;;;;-1.035371;-0.6350902;-1.2200689;;;;;1138.6
1286.0;1243.2;;;;;;;;;;;;;;;;;20.325327;124.988556;-124.81307;;1138.6
1286.0;1243.2;;;;;;;;;;;;;;-1.1448103;-0.67323834;-0.9877621;;;;;1138.6
1286.0;1243.2;;;;;;;;;;;;;;;;;46.19739;124.988556;-124.05011;;1148.0
1286.0;1243.2;;;;;;;;;;;;;;-1.2140263;-0.7578356;-0.76888335;;;;;1148.0
1286.0;1243.2;;;;;;;;;;;;;;;;;67.66717;124.988556;-124.85122;;1148.0
1286.0;1243.2;;;;;;;;;;;;;;-1.277749;-0.8056276;-0.56770533;;;;;1148.0
1287.0;1244.1;;;;;;;;;;;;;;;;;70.23835;124.988556;-124.988556;;1157.6
1287.0;1244.1;;;;;;;;;;;;;;-1.3773614;-0.8552507;-0.41554004;;;;;1157.6
1287.0;1244.1;;;;;;;;;;;;;;;;;57.695244;121.87948;-124.988556;;1157.6
1287.0;1244.1;;;;;;;;;;;;;;-1.4019593;-0.994232;-0.41450238;;;;;1157.6
1287.0;1244.1;;;;;;;;;;;;;;;;;52.24769;107.52434;-124.988556;;1167.3
1287.0;1244.1;;;;;;;;;;;;;;-1.3789483;-1.0393994;-0.47425765;;;;;1167.3
1287.0;1244.1;;;;;;;;;;;;;;;;;47.116764;94.39375;-124.988556;;1167.3
1287.0;1244.1;;;;;;;;;;;;;;-1.4395581;-0.97561574;-0.43818477;;;;;1167.3
1287.0;1244.1;;;;;;;;;;;;;;;;;32.551807;81.87353;-124.988556;;1177.0
1287.0;1244.1;;;;;;;;;;;;;;-1.5209814;-0.8514054;-0.47376934;;;;;1177.0
1287.0;1244.1;;;;;;;;;;;;;;;;;4.5358133;79.00098;-123.310036;;1177.0
1287.0;1244.1;;;;;;;;;;;;;;-1.7360148;-0.63539535;-0.54585403;;;;;1177.0
1287.0;1247.6;;;;;;;;;;;;;-104;;;;;;;;
1287.0;1247.6;;;;;;;;;;;;;-82;;;;;;;;
1287.0;1247.6;;;;;;;;;;;;;61;;;;;;;;
1287.0;1247.6;;;;;;;;;;;;;-526;;;;;;;;
1287.0;1247.6;;;;;;;;;;;;;156;;;;;;;;
1287.0;1248.9;;;;-0.9254266;1.249695;0.5660973;;;;;;;;;;;;;;;
1287.0;1248.9;;;;-0.91544354;1.2698442;0.5682717;;;;;;;;;;;;;;;
1287.0;1248.9;;;;-0.90592206;1.2856904;0.5619202;;;;;;;;;;;;;;;
1287.0;1248.9;;;;-0.90088665;1.2917672;0.5580254;;;;;;;;;;;;;;;
1287.0;1248.9;;;;-0.90496075;1.3079225;0.5582581;;;;;;;;;;;;;;;
1343.0;1258.8;;;;-0.9022256;1.3312341;0.558857;;;;;;;;;;;;;;;
1343.0;1258.8;;;;-0.9010545;1.345524;0.5565186;;;;;;;;;;;;;;;
1343.0;1258.8;;;;-0.9010278;1.3637735;0.55471045;;;;;;;;;;;;;;;
1343.0;1258.8;;;;-0.9025308;1.3689729;0.551693;;;;;;;;;;;;;;;
1343.0;1258.8;;;;-0.9151422;1.3649141;0.5515328;;;;;;;;;;;;;;;
1343.0;1261.3;155861;155722;10298;;;;;;;;;;;;;;;;;;
1343.0;1268.7;;;;-0.9298135;1.3743402;0.5548745;;;;;;;;;;;;;;;
1343.0;1268.7;;;;-0.93260205;1.3753244;0.5575829;;;;;;;;;;;;;;;
1343.0;1268.7;;;;-0.9312211;1.3666574;0.5589066;;;;;;;;;;;;;;;
1343.0;1268.7;;;;-0.9287988;1.357876;0.5571709;;;;;;;;;;;;;;;
1343.0;1268.7;;;;-0.9272157;1.3454934;0.56233984;;;;;;;;;;;;;;;
1343.0;1278.6;;;;-0.924862;1.3349687;0.56532294;;;;;;;;;;;;;;;
1343.0;1278.6;;;;-0.92245495;1.3235055;0.56820303;;;;;;;;;;;;;;;
1343.0;1278.6;;;;-0.92226803;1.3110696;0.5704728;;;;;;;;;;;;;;;
1343.0;1278.6;;;;-0.92302716;1.2985917;0.57469183;;;;;;;;;;;;;;;
1343.0;1278.6;;;;-0.9247743;1.2870103;0.5769997;;;;;;;;;;;;;;;
1343.0;1281.2;172142;172078;10319;;;;;;;;;;;;;;;;;;
1343.0;1287.5;;;;;;;;;;;;;1643;;;;;;;;
1343.0;1287.5;;;;;;;;;;;;;-599;;;;;;;;
1343.0;1287.5;;;;;;;;;;;;;-3618;;;;;;;;
1343.0;1287.5;;;;;;;;;;;;;1926;;;;;;;;
1343.0;1287.5;;;;;;;;;;;;;18580;;;;;;;;
1344.0;1288.7;;;;-0.9301568;1.2776223;0.5773049;;;;;;;;;;;;;;;
1344.0;1288.7;;;;-0.937111;1.2687455;0.57772833;;;;;;;;;;;;;;;
1344.0;1288.7;;;;-0.9477807;1.2591897;0.578373;;;;;;;;;;;;;;;
1344.0;1288.7;;;;-0.95915234;1.2519494;0.58027273;;;;;;;;;;;;;;;
1344.0;1288.7;;;;-0.9701158;1.2446939;0.5797005;;;;;;;;;;;;;;;
1344.0;1298.9;;;;-0.98417294;1.2373315;0.5808831;;;;;;;;;;;;;;;
1344.0;1298.9;;;;-0.9961244;1.231373;0.5782395;;;;;;;;;;;;;;;
1344.0;1298.9;;;;-1.0058213;1.229416;0.5748864;;;;;;;;;;;;;;;
1344.0;1298.9;;;;-1.015999;1.2259752;0.5725823;;;;;;;;;;;;;;;
1344.0;1298.9;;;;-1.0239679;1.2246515;0.56885153;;;;;;;;;;;;;;;
1344.0;1301.5;188525;188542;10347;;;;;;;;;;;;;;;;;;
1344.0;1309.0;;;;-1.0323182;1.221737;0.5686646;;;;;;;;;;;;;;;
1344.0;1309.0;;;;-1.0411493;1.2218438;0.5666619;;;;;;;;;;;;;;;
1344.0;1309.0;;;;-1.0498315;1.219124;0.5635796;;;;;;;;;;;;;;;
1344.0;1309.0;;;;-1.0609742;1.2188646;0.56148916;;;;;;;;;;;;;;;
1344.0;1309.0;;;;-1.0667917;1.2152711;0.55635077;;;;;;;;;;;;;;;
1345.0;1310.8;;;;;;;;;;;;;;;;;-26.177252;86.18809;-94.60738;;1186.6
1345.0;1310.8;;;;;;;;;;;;;;-1.9859614;-0.58143866;-0.6311838;;;;;1186.6
1345.0;1310.8;;;;;;;;;;;;;;;;;-44.133583;98.56335;-42.313915;;1186.6
1345.0;1310.8;;;;;;;;;;;;;;-1.9998169;-0.5529954;-0.64119387;;;;;1186.6
1345.0;1310.8;;;;;;;;;;;;;;;;;-41.55858;96.02649;6.8361464;;1196.3
1345.0;1310.8;;;;;;;;;;;;;;-1.9998169;-0.53822446;-0.48609883;;;;;1196.3
1345.0;1310.8;;;;;;;;;;;;;;;;;-13.8363285;78.08923;27.954954;;1196.3
1345.0;1310.8;;;;;;;;;;;;;;-1.9998169;-0.3932005;-0.25775933;;;;;1196.3
1345.0;1310.8;;;;;;;;;;;;;;;;;12.047182;48.043766;24.071474;;1205.8
1345.0;1310.8;;;;;;;;;;;;;;-1.9998169;-0.30048525;-0.03625599;;;;;1205.8
1345.0;1310.8;;;;;;;;;;;;;;;;;21.237068;16.270182;-17.754143;;1205.8
1345.0;1310.8;;;;;;;;;;;;;;-1.9998169;-0.036500137;-0.054322947;;;;;1205.8
1345.0;1312.0;;;;;;;;;;;;;;;;;16.685995;2.3842587;-63.806572;;1215.4
1345.0;1312.0;;;;;;;;;;;;;;-1.9956664;0.11365093;-0.120303966;;;;;1215.4
1345.0;1312.0;;;;;;;;;;;;;;;;;20.07355;5.53148;-104.82726;;1215.4
1345.0;1312.0;;;;;;;;;;;;;;-1.9998169;0.13006988;-0.34852138;;;;;1215.4
1345.0;1312.0;;;;;;;;;;;;;;;;;49.00128;18.753624;-124.00815;;1225.1
1345.0;1312.0;;;;;;;;;;;;;;-1.9998169;0.04712058;-0.47077852;;;;;1225.1
1345.0;1312.0;;;;;;;;;;;;;;;;;74.816124;18.84518;-124.90845;;1225.1
1345.0;1312.0;;;;;;;;;;;;;;-1.9169897;-0.041016877;-0.74666584;;;;;1225.1
1345.0;1312.0;;;;;;;;;;;;;;;;;106.63549;21.763514;-121.50563;;1234.8
1345.0;1312.0;;;;;;;;;;;;;;-1.7335124;-0.14355907;-0.9161046;;;;;1234.8
1345.0;1312.0;;;;;;;;;;;;;;;;;124.03104;29.526659;-119.2053;;1234.8
1345.0;1312.0;;;;;;;;;;;;;;-1.5507675;-0.14191107;-0.9361858;;;;;1234.8
1347.0;1318.3;;;;;;;;;;;;;;;;;123.2757;43.34773;-116.7066;;1244.5
1347.0;1318.3;;;;;;;;;;;;;;-1.4502395;-0.1347087;-0.7920164;;;;;1244.5
1347.0;1318.3;;;;;;;;;;;;;;;;;105.803856;57.657093;-106.46001;;1244.5
1347.0;1318.3;;;;;;;;;;;;;;-1.4424878;-0.08581805;-0.55116427;;;;;1244.5
1347.0;1318.3;;;;;;;;;;;;;;;;;80.28657;69.66612;-100.287636;;1254.0
1347.0;1318.3;;;;;;;;;;;;;;-1.4830165;0.036439102;-0.3507187;;;;;1254.0
1347.0;1318.3;;;;;;;;;;;;;;;;;64.03165;75.8385;-97.81564;;1254.0
1347.0;1318.3;;;;;;;;;;;;;;-1.4843593;0.20654927;-0.23163548;;;;;1254.0
1347.0;1318.3;;;;;;;;;;;;;;;;;57.649464;84.60876;-96.07227;;1263.6
1347.0;1318.3;;;;;;;;;;;;;;-1.451033;0.39814448;-0.21051668;;;;;1263.6
1347.0;1318.3;;;;;;;;;;;;;;;;;49.058506;97.72027;-98.67016;;1263.6
1347.0;1318.3;;;;;;;;;;;;;;-1.4169134;0.48725852;-0.2482986;;;;;1263.6
1347.0;1318.7;;;;-1.0755197;1.208069;0.5535813;;;;;;;;;;;;;;;
1347.0;1318.7;;;;-1.0833665;1.2029191;0.5511742;;;;;;;;;;;;;;;
1347.0;1318.7;;;;-1.0919267;1.1955835;0.54816824;;;;;;;;;;;;;;;
1347.0;1318.7;;;;-1.0977784;1.1858827;0.54531103;;;;;;;;;;;;;;;
1347.0;1318.7;;;;-1.1074983;1.1781198;0.5424462;;;;;;;;;;;;;;;
1347.0;1321.4;204855;204897;10358;;;;;;;;;;;;;;;;;;
1347.0;1327.6;;;;;;;;;;;;;36003;;;;;;;;
1347.0;1327.6;;;;;;;;;;;;;41770;;;;;;;;
1347.0;1327.6;;;;;;;;;;;;;36078;;;;;;;;
1347.0;1327.6;;;;;;;;;;;;;29329;;;;;;;;
1347.0;1327.6;;;;;;;;;;;;;27757;;;;;;;;
1403.0;1328.7;;;;-1.113701;1.168377;0.54079443;;;;;;;;;;;;;;;
1403.0;1328.7;;;;-1.1171571;1.1576883;0.536789;;;;;;;;;;;;;;;
1403.0;1328.7;;;;-1.1197053;1.1472551;0.5328446;;;;;;;;;;;;;;;
1403.0;1328.7;;;;-1.1243821;1.1352044;0.5322457;;;;;;;;;;;;;;;
1403.0;1328.7;;;;-1.1270372;1.121914;0.5322228;;;;;;;;;;;;;;;
1403.0;1338.4;;;;-1.1299821;1.1085016;0.5316697;;;;;;;;;;;;;;;
1403.0;1338.4;;;;-1.1308023;1.0945626;0.5307999;;;;;;;;;;;;;;;
1403.0;1338.4;;;;-1.1312066;1.0784303;0.52872473;;;;;;;;;;;;;;;
1403.0;1338.4;;;;-1.1287462;1.064747;0.52735907;;;;;;;;;;;;;;;
1403.0;1338.4;;;;-1.1277276;1.0514222;0.5232697;;;;;;;;;;;;;;;
1403.0;1341.2;221296;221271;10379;;;;;;;;;;;;;;;;;;
1403.0;1348.6;;;;-1.1266557;1.0363237;0.51909643;;;;;;;;;;;;;;;
1403.0;1348.6;;;;-1.1254083;1.0224344;0.514988;;;;;;;;;;;;;;;
1403.0;1348.6;;;;-1.1226159;1.0082017;0.5080491;;;;;;;;;;;;;;;
1403.0;1348.6;;;;-1.1203233;0.99175656;0.5003205;;;;;;;;;;;;;;;
1403.0;1348.6;;;;-1.118023;0.9806634;0.49296957;;;;;;;;;;;;;;;
1403.0;1358.7;;;;-1.1157037;0.9679681;0.48410803;;;;;;;;;;;;;;;
1403.0;1358.7;;;;-1.1087419;0.95258343;0.47248846;;;;;;;;;;;;;;;
1403.0;1358.7;;;;-1.1071702;0.93714154;0.46310812;;;;;;;;;;;;;;;
1403.0;1358.7;;;;-1.1077005;0.9216882;0.45484167;;;;;;;;;;;;;;;
1403.0;1358.7;;;;-1.1040956;0.90586865;0.44546515;;;;;;;;;;;;;;;
1404.0;1361.5;237772;237625;10397;;;;;;;;;;;;;;;;;;
1404.0;1363.3;;;;;;;;;;;;;;;;;43.74447;102.90842;-102.71386;;1273.2
1404.0;1363.3;;;;;;;;;;;;;;-1.3658864;0.5387738;-0.25910214;;;;;1273.2
1404.0;1363.3;;;;;;;;;;;;;;;;;33.883175;103.10297;-99.84893;;1273.2
1404.0;1363.3;;;;;;;;;;;;;;-1.36021;0.49079868;-0.19690542;;;;;1273.2
1404.0;1363.3;;;;;;;;;;;;;;;;;16.663107;99.6086;-96.514786;;1282.7
1404.0;1363.3;;;;;;;;;;;;;;-1.3219397;0.46113467;-0.1408124;;;;;1282.7
1404.0;1363.3;;;;;;;;;;;;;;;;;-1.3008515;94.47005;-93.600266;;1282.7
1404.0;1363.3;;;;;;;;;;;;;;-1.2590716;0.3546861;-0.14056826;;;;;1282.7
1404.0;1363.3;;;;;;;;;;;;;;;;;-16.49144;93.17301;-90.407265;;1292.3
1404.0;1363.3;;;;;;;;;;;;;;-1.206824;0.28858304;-0.19244972;;;;;1292.3
1404.0;1363.3;;;;;;;;;;;;;;;;;-23.47255;92.45201;-84.20057;;1292.3
1404.0;1363.3;;;;;;;;;;;;;;-1.0857265;0.17316203;-0.26862392;;;;;1292.3
1404.0;1367.6;;;;;;;;;;;;;27334;;;;;;;;
1404.0;1367.6;;;;;;;;;;;;;24950;;;;;;;;
1404.0;1367.6;;;;;;;;;;;;;22637;;;;;;;;
1404.0;1367.6;;;;;;;;;;;;;20639;;;;;;;;
1404.0;1367.6;;;;;;;;;;;;;18971;;;;;;;;
1404.0;1368.7;;;;-1.1037179;0.89268506;0.43798453;;;;;;;;;;;;;;;
1404.0;1368.7;;;;-1.1007386;0.8791696;0.43089682;;;;;;;;;;;;;;;
1404.0;1368.7;;;;-1.0913965;0.86631405;0.42212301;;;;;;;;;;;;;;;
1404.0;1368.7;;;;-1.0889779;0.84796536;0.41333014;;;;;;;;;;;;;;;
1404.0;1368.7;;;;-1.090458;0.8290483;0.4048615;;;;;;;;;;;;;;;
1462.0;1378.8;;;;-1.0923463;0.8128015;0.39735037;;;;;;;;;;;;;;;
1462.0;1378.8;;;;-1.089779;0.79571927;0.38874823;;;;;;;;;;;;;;;
1462.0;1378.8;;;;-1.09153;0.77625287;0.3802758;;;;;;;;;;;;;;;
1462.0;1378.8;;;;-1.0937539;0.755108;0.37570578;;;;;;;;;;;;;;;
1462.0;1378.8;;;;-1.0935403;0.7345925;0.37033847;;;;;;;;;;;;;;;
1462.0;1381.6;254110;254151;10415;;;;;;;;;;;;;;;;;;
1462.0;1388.8;;;;-1.0944024;0.71472937;0.36619952;;;;;;;;;;;;;;;
1462.0;1388.8;;;;-1.0928727;0.6988717;0.3637009;;;;;;;;;;;;;;;
1462.0;1388.8;;;;-1.0931169;0.67945486;0.3592339;;;;;;;;;;;;;;;
1462.0;1388.8;;;;-1.0948068;0.66183096;0.35436252;;;;;;;;;;;;;;;
1462.0;1388.8;;;;-1.0945283;0.6404534;0.35092548;;;;;;;;;;;;;;;
1462.0;1398.8;;;;-1.0984536;0.620472;0.34830096;;;;;;;;;;;;;;;
1462.0;1398.8;;;;-1.0997735;0.60358816;0.34781268;;;;;;;;;;;;;;;
1462.0;1398.8;;;;-1.0999643;0.5831986;0.3483391;;;;;;;;;;;;;;;
1462.0;1398.8;;;;-1.1009675;0.5636597;0.34998706;;;;;;;;;;;;;;;
1462.0;1398.8;;;;-1.1007692;0.54679114;0.35152438;;;;;;;;;;;;;;;
1462.0;1401.8;258385;262143;10416;;;;;;;;;;;;;;;;;;
1462.0;1408.0;;;;;;;;;;;;;18083;;;;;;;;
1462.0;1408.0;;;;;;;;;;;;;17305;;;;;;;;
1462.0;1408.0;;;;;;;;;;;;;16484;;;;;;;;
1462.0;1408.0;;;;;;;;;;;;;15618;;;;;;;;
1462.0;1408.0;;;;;;;;;;;;;14997;;;;;;;;
1464.0;1409.0;;;;-1.0963403;0.52799994;0.3522301;;;;;;;;;;;;;;;
1464.0;1409.0;;;;-1.0923158;0.51038367;0.35362247;;;;;;;;;;;;;;;
1464.0;1409.0;;;;-1.0865709;0.49408346;0.3538895;;;;;;;;;;;;;;;
1464.0;1409.0;;;;-1.0880624;0.47681814;0.3568497;;;;;;;;;;;;;;;
1464.0;1409.0;;;;-1.0824319;0.46177298;0.35797122;;;;;;;;;;;;;;;
1464.0;1419.1;;;;-1.07642;0.44657522;0.35616687;;;;;;;;;;;;;;;
1464.0;1419.1;;;;-1.0738069;0.43269354;0.35522464;;;;;;;;;;;;;;;
1464.0;1419.1;;;;-1.0710298;0.41798407;0.3537598;;;;;;;;;;;;;;;
1464.0;1419.1;;;;-1.0732538;0.40120703;0.3536301;;;;;;;;;;;;;;;
1464.0;1419.1;;;;-1.0717317;0.38452536;0.35208514;;;;;;;;;;;;;;;
1464.0;1422.0;258447;262143;10412;;;;;;;;;;;;;;;;;;
1464.0;1423.7;;;;;;;;;;;;;;;;;-20.69155;96.38127;-75.636314;;1302.0
1464.0;1423.7;;;;;;;;;;;;;;-1.0033876;0.1511887;-0.30158392;;;;;1302.0
1464.0;1423.7;;;;;;;;;;;;;;;;;-16.96829;100.95523;-66.04969;;1302.0
1464.0;1423.7;;;;;;;;;;;;;;-0.98062074;0.18573564;-0.3289285;;;;;1302.0
1464.0;1423.7;;;;;;;;;;;;;;;;;-11.738182;98.33827;-56.840725;;1311.7
1464.0;1423.7;;;;;;;;;;;;;;-0.95022434;0.22119816;-0.32575458;;;;;1311.7
1464.0;1423.7;;;;;;;;;;;;;;;;;-5.8442945;94.29456;-48.27265;;1311.7
1464.0;1423.7;;;;;;;;;;;;;;-0.9391766;0.18311106;-0.26441237;;;;;1311.7
1464.0;1423.7;;;;;;;;;;;;;;;;;0.0839259;86.169014;-39.62447;;1321.3
1464.0;1423.7;;;;;;;;;;;;;;-0.92391735;0.29059726;-0.2033143;;;;;1321.3
1464.0;1423.7;;;;;;;;;;;;;;;;;8.995331;73.53053;-29.343548;;1321.3
1464.0;1423.7;;;;;;;;;;;;;;-0.8636738;0.29670095;-0.21832941;;;;;1321.3
1466.0;1424.5;;;;;;;;;;;;;;;;;25.131992;63.211464;-19.539474;;1330.9
1466.0;1424.5;;;;;;;;;;;;;;-0.8427992;0.32862332;-0.21033357;;;;;1330.9
1466.0;1424.5;;;;;;;;;;;;;;;;;42.08884;55.478832;-10.082552;;1330.9
1466.0;1424.5;;;;;;;;;;;;;;-0.85909605;0.31635487;-0.18488114;;;;;1330.9
1466.0;1424.5;;;;;;;;;;;;;;;;;62.715538;45.167393;0.43107393;;1340.4
1466.0;1424.5;;;;;;;;;;;;;;-0.8552507;0.3284402;-0.12543108;;;;;1340.4
1466.0;1424.5;;;;;;;;;;;;;;;;;86.25294;32.597584;11.223182;;1340.4
1466.0;1424.5;;;;;;;;;;;;;;-0.8385876;0.3058565;-0.057618946;;;;;1340.4
1466.0;1424.5;;;;;;;;;;;;;;;;;102.832115;29.175695;23.297068;;1350.0
1466.0;1424.5;;;;;;;;;;;;;;-0.8431654;0.25971252;-0.006286813;;;;;1350.0
1466.0;1424.5;;;;;;;;;;;;;;;;;118.41182;31.437881;35.00473;;1350.0
1466.0;1424.5;;;;;;;;;;;;;;-0.8291879;0.22998749;0.04297006;;;;;1350.0
1466.0;1429.0;;;;-1.0704881;0.37118533;0.35177615;;;;;;;;;;;;;;;
1466.0;1429.0;;;;-1.0658151;0.3589783;0.35175326;;;;;;;;;;;;;;;
1466.0;1429.0;;;;-1.0637208;0.3436356;0.35164645;;;;;;;;;;;;;;;
1466.0;1429.0;;;;-1.0602762;0.32591632;0.34949496;;;;;;;;;;;;;;;
1466.0;1429.0;;;;-1.0557328;0.3124657;0.3462372;;;;;;;;;;;;;;;
1468.0;1438.8;;;;;;;;;;;;;;;;;124.71389;37.022766;49.46669;;1359.7
1468.0;1438.8;;;;;;;;;;;;;;-0.8072756;0.30762658;0.06146428;;;;;1359.7
1468.0;1438.8;;;;;;;;;;;;;;;;;123.3787;46.823025;68.30042;;1359.7
1468.0;1438.8;;;;;;;;;;;;;;-0.7956175;0.33021027;0.03485214;;;;;1359.7
1468.0;1438.8;;;;;;;;;;;;;;;;;105.533005;54.853203;85.10468;;1369.3
1468.0;1438.8;;;;;;;;;;;;;;-0.768395;0.34730065;-0.013428144;;;;;1369.3
1468.0;1438.8;;;;;;;;;;;;;;;;;75.96057;56.466873;100.146484;;1369.3
1468.0;1438.8;;;;;;;;;;;;;;-0.72359383;0.39063692;-0.10425123;;;;;1369.3
1468.0;1438.8;;;;;;;;;;;;;;;;;39.242985;59.625538;115.95508;;1379.0
1468.0;1438.8;;;;;;;;;;;;;;-0.7190771;0.38410595;-0.10834071;;;;;1379.0
1468.0;1438.8;;;;;;;;;;;;;;;;;5.050813;54.48317;123.27189;;1379.0
1468.0;1438.8;;;;;;;;;;;;;;-0.6952727;0.47694325;-0.02661214;;;;;1379.0
1468.0;1438.9;;;;-1.0479509;0.3031197;0.33981708;;;;;;;;;;;;;;;
1468.0;1438.9;;;;-1.0412332;0.28945544;0.33440402;;;;;;;;;;;;;;;
1468.0;1438.9;;;;-1.0343629;0.27704242;0.3287163;;;;;;;;;;;;;;;
1468.0;1438.9;;;;-1.0238458;0.26158145;0.32420734;;;;;;;;;;;;;;;
1468.0;1438.9;;;;-1.0173875;0.24321368;0.31735614;;;;;;;;;;;;;;;
1468.0;1441.9;258570;262143;10413;;;;;;;;;;;;;;;;;;
1468.0;1448.1;;;;;;;;;;;;;15045;;;;;;;;
1468.0;1448.1;;;;;;;;;;;;;15367;;;;;;;;
1468.0;1448.1;;;;;;;;;;;;;15299;;;;;;;;
1468.0;1448.1;;;;;;;;;;;;;14225;;;;;;;;
1468.0;1448.1;;;;;;;;;;;;;12172;;;;;;;;
1531.0;1448.9;;;;-1.0083009;0.22941974;0.3134003;;;;;;;;;;;;;;;
1531.0;1448.9;;;;-0.9972917;0.21525195;0.30456927;;;;;;;;;;;;;;;
1531.0;1448.9;;;;-0.98874676;0.20244983;0.29926684;;;;;;;;;;;;;;;
1531.0;1448.9;;;;-0.988556;0.18884662;0.2870331;;;;;;;;;;;;;;;
1531.0;1448.9;;;;-0.99307644;0.1730919;0.27996066;;;;;;;;;;;;;;;
1531.0;1458.7;;;;-0.9947015;0.15241624;0.27163318;;;;;;;;;;;;;;;
1531.0;1458.7;;;;-0.99292004;0.12384416;0.2620087;;;;;;;;;;;;;;;
1531.0;1458.7;;;;-0.98583996;0.09756853;0.25256732;;;;;;;;;;;;;;;
1531.0;1458.7;;;;-0.9739343;0.07115937;0.24354175;;;;;;;;;;;;;;;
1531.0;1458.7;;;;-0.96388257;0.04969407;0.23157504;;;;;;;;;;;;;;;
1531.0;1461.7;258737;262143;10407;;;;;;;;;;;;;;;;;;
1531.0;1468.8;;;;-0.9594728;0.029769901;0.21849445;;;;;;;;;;;;;;;
1531.0;1468.8;;;;-0.9622537;0.01180649;0.20851138;;;;;;;;;;;;;;;
1531.0;1468.8;;;;-0.9671937;-0.0046501164;0.20526507;;;;;;;;;;;;;;;
1531.0;1468.8;;;;-0.97286236;-0.023647312;0.19784167;;;;;;;;;;;;;;;
1531.0;1468.8;;;;-0.9771234;-0.046573643;0.1935654;;;;;;;;;;;;;;;
1531.0;1478.9;;;;-0.9773294;-0.07354737;0.19157031;;;;;;;;;;;;;;;
1531.0;1478.9;;;;-0.9804727;-0.09559251;0.18929294;;;;;;;;;;;;;;;
1531.0;1478.9;;;;-0.98557675;-0.11034013;0.18719102;;;;;;;;;;;;;;;
1531.0;1478.9;;;;-0.9940835;-0.124244705;0.17901994;;;;;;;;;;;;;;;
1531.0;1478.9;;;;-1.0087587;-0.13467409;0.16636278;;;;;;;;;;;;;;;
1533.0;1482.0;258719;262143;10397;;;;;;;;;;;;;;;;;;
1533.0;1483.7;;;;;;;;;;;;;;;;;-18.761253;35.134434;118.85434;;1388.4
1533.0;1483.7;;;;;;;;;;;;;;-0.6553545;0.49519333;-0.04712058;;;;;1388.4
1533.0;1483.7;;;;;;;;;;;;;;;;;-29.095585;8.777886;103.724785;;1388.4
1533.0;1483.7;;;;;;;;;;;;;;-0.5113071;0.5960265;0.09387494;;;;;1388.4
1533.0;1483.7;;;;;;;;;;;;;;;;;-23.232216;-23.67092;113.757744;;1398.0
1533.0;1483.7;;;;;;;;;;;;;;-0.38526568;0.70943326;0.031006806;;;;;1398.0
1533.0;1483.7;;;;;;;;;;;;;;;;;-34.592728;-30.47273;124.78637;;1398.0
1533.0;1483.7;;;;;;;;;;;;;;-0.43354595;0.5742973;0.015320292;;;;;1398.0
1533.0;1483.7;;;;;;;;;;;;;;;;;-41.165653;-33.53603;124.988556;;1407.6
1533.0;1483.7;;;;;;;;;;;;;;-0.35724968;0.49269083;-0.013489181;;;;;1407.6
1533.0;1483.7;;;;;;;;;;;;;;;;;-35.515915;-33.623768;124.9733;;1407.6
1533.0;1483.7;;;;;;;;;;;;;;-0.23004852;0.71596426;-0.19452497;;;;;1407.6
1533.0;1488.1;;;;;;;;;;;;;9920;;;;;;;;
1533.0;1488.1;;;;;;;;;;;;;7963;;;;;;;;
1533.0;1488.1;;;;;;;;;;;;;6439;;;;;;;;
1533.0;1488.1;;;;;;;;;;;;;5615;;;;;;;;
1533.0;1488.1;;;;;;;;;;;;;5400;;;;;;;;
1533.0;1488.9;;;;-1.0240823;-0.13739778;0.1584015;;;;;;;;;;;;;;;
1533.0;1488.9;;;;-1.0337335;-0.13979723;0.1469269;;;;;;;;;;;;;;;
1533.0;1488.9;;;;-1.0417215;-0.14411165;0.13658907;;;;;;;;;;;;;;;
1533.0;1488.9;;;;-1.0507776;-0.15189363;0.12710191;;;;;;;;;;;;;;;
1533.0;1488.9;;;;-1.0671006;-0.15953447;0.12007524;;;;;;;;;;;;;;;
1583.0;1498.8;;;;;;;;;;;;;;;;;-48.699913;-7.904294;124.988556;;1417.3
1583.0;1498.8;;;;;;;;;;;;;;-0.28876615;0.6722007;-0.19495223;;;;;1417.3
1583.0;1498.8;;;;;;;;;;;;;;;;;-46.853542;-4.0971103;124.988556;;1417.3
1583.0;1498.8;;;;;;;;;;;;;;-0.35743278;0.47322002;-0.32142094;;;;;1417.3
1583.0;1498.8;;;;;;;;;;;;;;;;;-9.510331;-14.198736;124.988556;;1426.9
1583.0;1498.8;;;;;;;;;;;;;;-0.26435134;0.41193885;-0.3239845;;;;;1426.9
1583.0;1498.8;;;;;;;;;;;;;;;;;27.855768;-22.297585;124.988556;;1426.9
1583.0;1498.8;;;;;;;;;;;;;;-0.17780083;0.42713705;-0.2603229;;;;;1426.9
1583.0;1498.8;;;;;;;;;;;;;;;;;34.947506;-21.91229;124.938965;;1436.5
1583.0;1498.8;;;;;;;;;;;;;;-0.16870633;0.3039033;-0.047181617;;;;;1436.5
1583.0;1498.8;;;;;;;;;;;;;;;;;35.641804;-37.442398;119.3846;;1436.5
1583.0;1498.8;;;;;;;;;;;;;;-0.12726219;0.2751549;0.035767693;;;;;1436.5
1583.0;1498.8;;;;-1.0819856;-0.16563798;0.113166824;;;;;;;;;;;;;;;
1583.0;1498.8;;;;-1.0973207;-0.17818452;0.09692003;;;;;;;;;;;;;;;
1583.0;1498.8;;;;-1.1146585;-0.18849567;0.0844307;;;;;;;;;;;;;;;
1583.0;1498.8;;;;-1.118229;-0.18261339;0.07875443;;;;;;;;;;;;;;;
1583.0;1498.8;;;;-1.1246873;-0.17497255;0.066169746;;;;;;;;;;;;;;;
1583.0;1501.9;258668;262143;10382;;;;;;;;;;;;;;;;;;
1583.0;1508.8;;;;-1.1304437;-0.16982271;0.05710984;;;;;;;;;;;;;;;
1583.0;1508.8;;;;-1.1321336;-0.1555977;0.04947663;;;;;;;;;;;;;;;
1583.0;1508.8;;;;-1.13303;-0.15662767;0.031517033;;;;;;;;;;;;;;;
1583.0;1508.8;;;;-1.1374704;-0.15911104;0.022304537;;;;;;;;;;;;;;;
1583.0;1508.8;;;;-1.1374398;-0.15418245;0.011356355;;;;;;;;;;;;;;;
1585.0;1518.9;;;;-1.1339723;-0.17539217;-0.008533479;;;;;;;;;;;;;;;
1585.0;1518.9;;;;-1.1364862;-0.20294192;-0.019073488;;;;;;;;;;;;;;;
1585.0;1518.9;;;;-1.1426011;-0.18288805;-0.020744326;;;;;;;;;;;;;;;
1585.0;1518.9;;;;-1.1392518;-0.17849351;-0.04364014;;;;;;;;;;;;;;;
1585.0;1518.9;;;;-1.1262742;-0.1590767;-0.052429207;;;;;;;;;;;;;;;
1585.0;1522.1;258615;262143;10380;;;;;;;;;;;;;;;;;;
1585.0;1528.3;;;;;;;;;;;;;5010;;;;;;;;
1585.0;1528.3;;;;;;;;;;;;;3808;;;;;;;;
1585.0;1528.3;;;;;;;;;;;;;2083;;;;;;;;
1585.0;1528.3;;;;;;;;;;;;;793;;;;;;;;
1585.0;1528.3;;;;;;;;;;;;;587;;;;;;;;
1585.0;1529.0;;;;-1.1062509;-0.14756013;-0.064228065;;;;;;;;;;;;;;;
1585.0;1529.0;;;;-1.0873224;-0.14824678;-0.07398606;;;;;;;;;;;;;;;
1585.0;1529.0;;;;-1.0764161;-0.14128114;-0.07610322;;;;;;;;;;;;;;;
1585.0;1529.0;;;;-1.077797;-0.13254167;-0.08726121;;;;;;;;;;;;;;;
1585.0;1529.0;;;;-1.0827142;-0.123481765;-0.09094239;;;;;;;;;;;;;;;
1585.0;1539.1;;;;-1.0862085;-0.122035995;-0.095626846;;;;;;;;;;;;;;;
1585.0;1539.1;;;;-1.0901834;-0.114906326;-0.09773637;;;;;;;;;;;;;;;
1585.0;1539.1;;;;-1.0862848;-0.10894777;-0.097202316;;;;;;;;;;;;;;;
1585.0;1539.1;;;;-1.0821801;-0.09756471;-0.095779434;;;;;;;;;;;;;;;
1585.0;1539.1;;;;-1.0755273;-0.08480836;-0.09475328;;;;;;;;;;;;;;;
1585.0;1542.3;258581;262143;10385;;;;;;;;;;;;;;;;;;
1591.0;1544.0;;;;;;;;;;;;;;;;;47.4868;-52.472763;113.357185;;1446.2
1591.0;1544.0;;;;;;;;;;;;;;-0.1053499;0.19067965;0.04693747;;;;;1446.2
1591.0;1544.0;;;;;;;;;;;;;;;;;79.145935;-61.880093;117.294075;;1446.2
1591.0;1544.0;;;;;;;;;;;;;;-0.19067965;0.20276497;0.2059389;;;;;1446.2
1591.0;1544.0;;;;;;;;;;;;;;;;;105.098114;-80.65279;124.3057;;1455.7
1591.0;1544.0;;;;;;;;;;;;;;-0.33985412;0.14404736;0.5567797;;;;;1455.7
1591.0;1544.0;;;;;;;;;;;;;;;;;105.5063;-114.83733;124.988556;;1455.7
1591.0;1544.0;;;;;;;;;;;;;;-0.41145054;-0.033509325;0.639729;;;;;1455.7
1591.0;1544.0;;;;;;;;;;;;;;;;;72.199165;-114.314705;122.27622;;1465.4
1591.0;1544.0;;;;;;;;;;;;;;-0.44740134;-0.22821741;0.59578234;;;;;1465.4
1591.0;1544.0;;;;;;;;;;;;;;;;;7.572405;-52.735985;96.7246;;1465.4
1591.0;1544.0;;;;;;;;;;;;;;-0.29139072;-0.34437087;0.12170782;;;;;1465.4
1591.0;1549.1;;;;-1.0695802;-0.07138825;-0.09327317;;;;;;;;;;;;;;;
1591.0;1549.1;;;;-1.0678674;-0.054378517;-0.09220887;;;;;;;;;;;;;;;
1591.0;1549.1;;;;-1.0692598;-0.042549137;-0.08960343;;;;;;;;;;;;;;;
1591.0;1549.1;;;;-1.0705377;-0.022892;-0.08498383;;;;;;;;;;;;;;;
1591.0;1549.1;;;;-1.0699769;-4.4631964E-4;-0.08370591;;;;;;;;;;;;;;;
1593.0;1551.9;;;;;;;;;;;;;;;;;-45.953243;52.545242;64.70306;;1475.1
1593.0;1551.9;;;;;;;;;;;;;;-0.24982452;-0.40260017;-0.29322183;;;;;1475.1
1593.0;1551.9;;;;;;;;;;;;;;;;;-57.714317;118.5606;44.87747;;1475.1
1593.0;1551.9;;;;;;;;;;;;;;-0.3111057;-0.398999;-0.49623096;;;;;1475.1
1593.0;1551.9;;;;;;;;;;;;;;;;;-48.44432;124.988556;42.27958;;1484.6
1593.0;1551.9;;;;;;;;;;;;;;-0.37354657;-0.42982268;-0.4293344;;;;;1484.6
1593.0;1551.9;;;;;;;;;;;;;;;;;-32.666252;119.25489;48.867764;;1484.6
1593.0;1551.9;;;;;;;;;;;;;;-0.35236672;-0.47895747;-0.34846035;;;;;1484.6
1593.0;1551.9;;;;;;;;;;;;;;;;;-19.592882;64.39024;60.34272;;1494.3
1593.0;1551.9;;;;;;;;;;;;;;-0.23004852;-0.39106417;-0.41474655;;;;;1494.3
1593.0;1551.9;;;;;;;;;;;;;;;;;-21.683401;21.553698;80.52309;;1494.3
1593.0;1551.9;;;;;;;;;;;;;;-0.047181617;-0.24262215;-0.6250801;;;;;1494.3
1593.0;1559.0;;;;-1.0698091;0.025588993;-0.08202363;;;;;;;;;;;;;;;
1593.0;1559.0;;;;-1.07473;0.047512062;-0.0801468;;;;;;;;;;;;;;;
1593.0;1559.0;;;;-1.0813943;0.078918464;-0.07588578;;;;;;;;;;;;;;;
1593.0;1559.0;;;;-1.0820466;0.10845949;-0.07695008;;;;;;;;;;;;;;;
1593.0;1559.0;;;;-1.0860521;0.13742067;-0.078025825;;;;;;;;;;;;;;;
1593.0;1562.3;258688;262143;10386;;;;;;;;;;;;;;;;;;
1593.0;1568.5;;;;;;;;;;;;;1073;;;;;;;;
1593.0;1568.5;;;;;;;;;;;;;1435;;;;;;;;
1593.0;1568.5;;;;;;;;;;;;;1541;;;;;;;;
1593.0;1568.5;;;;;;;;;;;;;1987;;;;;;;;
1593.0;1568.5;;;;;;;;;;;;;2751;;;;;;;;
1640.0;1569.1;;;;-1.0912668;0.16498567;-0.07886506;;;;;;;;;;;;;;;
1640.0;1569.1;;;;-1.100609;0.19131473;-0.08138657;;;;;;;;;;;;;;;
1640.0;1569.1;;;;-1.1084367;0.22109988;-0.08349229;;;;;;;;;;;;;;;
1640.0;1569.1;;;;-1.1166116;0.2503319;-0.08374406;;;;;;;;;;;;;;;
1640.0;1569.1;;;;-1.1239167;0.27958682;-0.08220292;;;;;;;;;;;;;;;
1640.0;1579.0;;;;-1.1354944;0.30489352;-0.08165742;;;;;;;;;;;;;;;
1640.0;1579.0;;;;-1.1487352;0.33121875;-0.07912064;;;;;;;;;;;;;;;
1640.0;1579.0;;;;-1.1578904;0.35840228;-0.07819749;;;;;;;;;;;;;;;
1640.0;1579.0;;;;-1.1662523;0.3851052;-0.076320656;;;;;;;;;;;;;;;
1640.0;1579.0;;;;-1.1756898;0.41121298;-0.07018281;;;;;;;;;;;;;;;
1640.0;1582.3;258777;262143;10404;;;;;;;;;;;;;;;;;;
1640.0;1589.1;;;;-1.1844407;0.43743902;-0.061306007;;;;;;;;;;;;;;;
1640.0;1589.1;;;;-1.1937181;0.46718222;-0.05093766;;;;;;;;;;;;;;;
1640.0;1589.1;;;;-1.2000962;0.4974404;-0.0396843;;;;;;;;;;;;;;;
1640.0;1589.1;;;;-1.2025453;0.5266915;-0.03149796;;;;;;;;;;;;;;;
1640.0;1589.1;;;;-1.2055703;0.5546685;-0.024837498;;;;;;;;;;;;;;;
1640.0;1599.2;;;;-1.2024423;0.5806542;-0.015468599;;;;;;;;;;;;;;;
1640.0;1599.2;;;;-1.1999704;0.6082497;-0.007556916;;;;;;;;;;;;;;;
1640.0;1599.2;;;;-1.1952058;0.6349793;-0.0022163393;;;;;;;;;;;;;;;
1640.0;1599.2;;;;-1.1863443;0.662056;0.0044708257;;;;;;;;;;;;;;;
1640.0;1599.2;;;;-1.17548;0.6876603;0.011966707;;;;;;;;;;;;;;;
1642.0;1602.6;258685;262143;10397;;;;;;;;;;;;;;;;;;
1642.0;1608.8;;;;;;;;;;;;;2695;;;;;;;;
1642.0;1608.8;;;;;;;;;;;;;1086;;;;;;;;
1642.0;1608.8;;;;;;;;;;;;;-950;;;;;;;;
1642.0;1608.8;;;;;;;;;;;;;-2212;;;;;;;;
1642.0;1608.8;;;;;;;;;;;;;-3351;;;;;;;;
1642.0;1609.3;;;;-1.1620408;0.7117463;0.01708603;;;;;;;;;;;;;;;
1642.0;1609.3;;;;-1.1490823;0.7369309;0.022121431;;;;;;;;;;;;;;;
1642.0;1609.3;;;;-1.1328698;0.7571336;0.027000431;;;;;;;;;;;;;;;
1642.0;1609.3;;;;-1.1200372;0.77897656;0.032657627;;;;;;;;;;;;;;;
1642.0;1609.3;;;;-1.1068345;0.8037492;0.036270145;;;;;;;;;;;;;;;
1642.0;1611.8;;;;;;;;;;;;;;;;;-41.547134;44.915615;101.12308;;1504.0
1642.0;1611.8;;;;;;;;;;;;;;-0.05328532;-0.13715018;-0.5442671;;;;;1504.0
1642.0;1611.8;;;;;;;;;;;;;;;;;-64.24528;65.87421;109.53093;;1504.0
1642.0;1611.8;;;;;;;;;;;;;;-0.13507493;-0.1782281;-0.375927;;;;;1504.0
1642.0;1611.8;;;;;;;;;;;;;;;;;-62.917725;45.96469;109.33638;;1513.6
1642.0;1611.8;;;;;;;;;;;;;;-0.20288706;-0.27777946;-0.32227546;;;;;1513.6
1642.0;1611.8;;;;;;;;;;;;;;;;;-38.293102;2.8992584;110.5533;;1513.6
1642.0;1611.8;;;;;;;;;;;;;;-0.29169592;-0.3671987;-0.38593706;;;;;1513.6
1642.0;1611.8;;;;;;;;;;;;;;;;;-15.636921;-29.522844;116.10767;;1523.1
1642.0;1611.8;;;;;;;;;;;;;;-0.39796138;-0.42268136;-0.5153966;;;;;1523.1
1642.0;1611.8;;;;;;;;;;;;;;;;;4.589221;-37.450027;123.531296;;1523.1
1642.0;1611.8;;;;;;;;;;;;;;-0.54811245;-0.52088994;-0.6059755;;;;;1523.1
1705.0;1612.6;;;;;;;;;;;;;;;;;26.768549;-31.357769;124.87792;;1532.8
1705.0;1612.6;;;;;;;;;;;;;;-0.7756584;-0.6261788;-0.43482772;;;;;1532.8
1705.0;1612.6;;;;;;;;;;;;;;;;;47.20069;-53.907135;122.20756;;1532.8
1705.0;1612.6;;;;;;;;;;;;;;-1.0739464;-0.71236306;-0.10882901;;;;;1532.8
1705.0;1612.6;;;;;;;;;;;;;;;;;56.0625;-111.44596;121.97867;;1542.5
1705.0;1612.6;;;;;;;;;;;;;;-1.422895;-0.7094943;-0.015137181;;;;;1542.5
1705.0;1612.6;;;;;;;;;;;;;;;;;15.102847;-124.988556;124.90845;;1542.5
1705.0;1612.6;;;;;;;;;;;;;;-1.9557482;-0.6335032;0.2664266;;;;;1542.5
1705.0;1612.6;;;;;;;;;;;;;;;;;-91.47923;-124.988556;124.988556;;1552.2
1705.0;1612.6;;;;;;;;;;;;;;-1.9998169;-0.5593432;0.2931608;;;;;1552.2
1705.0;1612.6;;;;;;;;;;;;;;;;;-116.82104;-124.53459;124.988556;;1552.2
1705.0;1612.6;;;;;;;;;;;;;;-1.9998169;-1.1604968;-1.1477401;;;;;1552.2
1705.0;1619.1;;;;-1.0965425;0.8258592;0.03841019;;;;;;;;;;;;;;;
1705.0;1619.1;;;;-1.0897981;0.8513032;0.04104233;;;;;;;;;;;;;;;
1705.0;1619.1;;;;-1.0829698;0.8759538;0.04603577;;;;;;;;;;;;;;;
1705.0;1619.1;;;;-1.0737115;0.8997003;0.050598152;;;;;;;;;;;;;;;
1705.0;1619.1;;;;-1.0654031;0.92551816;0.05403138;;;;;;;;;;;;;;;
1705.0;1622.5;258425;262143;10383;;;;;;;;;;;;;;;;;;
1705.0;1629.2;;;;-1.0526315;0.948475;0.054565437;;;;;;;;;;;;;;;
1705.0;1629.2;;;;-1.0400392;0.97140896;0.05270768;;;;;;;;;;;;;;;
1705.0;1629.2;;;;-1.0284196;0.99316037;0.048854835;;;;;;;;;;;;;;;
1705.0;1629.2;;;;-1.0178834;1.0113755;0.047386177;;;;;;;;;;;;;;;
1705.0;1629.2;;;;-1.0084993;1.0317422;0.048488624;;;;;;;;;;;;;;;
1706.0;1639.2;;;;-0.99735653;1.0478746;0.04883576;;;;;;;;;;;;;;;
1706.0;1639.2;;;;-0.9875299;1.0611955;0.048187263;;;;;;;;;;;;;;;
1706.0;1639.2;;;;-0.9790994;1.0729562;0.049011238;;;;;;;;;;;;;;;
1706.0;1639.2;;;;-0.9706079;1.0783502;0.05026246;;;;;;;;;;;;;;;
1706.0;1639.2;;;;-0.9654962;1.079754;0.05300141;;;;;;;;;;;;;;;
1706.0;1642.7;258003;262143;10351;;;;;;;;;;;;;;;;;;
1706.0;1648.8;;;;;;;;;;;;;-6939;;;;;;;;
1706.0;1648.8;;;;;;;;;;;;;-15480;;;;;;;;
1706.0;1648.8;;;;;;;;;;;;;-25598;;;;;;;;
1706.0;1648.8;;;;;;;;;;;;;-28920;;;;;;;;
1706.0;1648.8;;;;;;;;;;;;;-21478;;;;;;;;
1706.0;1649.3;;;;-0.96382153;1.0832101;0.055313118;;;;;;;;;;;;;;;
1706.0;1649.3;;;;-0.9622232;1.0848771;0.055328377;;;;;;;;;;;;;;;
1706.0;1649.3;;;;-0.959942;1.0879823;0.05641938;;;;;;;;;;;;;;;
1706.0;1649.3;;;;-0.9603044;1.097088;0.05965043;;;;;;;;;;;;;;;
1706.0;1649.3;;;;-0.95780194;1.0979806;0.062385567;;;;;;;;;;;;;;;
1706.0;1659.4;;;;-0.9552499;1.0978891;0.062725075;;;;;;;;;;;;;;;
1706.0;1659.4;;;;-0.95562756;1.0991746;0.058834083;;;;;;;;;;;;;;;
1706.0;1659.4;;;;-0.95344555;1.1040765;0.06749726;;;;;;;;;;;;;;;
1706.0;1659.4;;;;-0.94368374;1.1182786;0.08961106;;;;;;;;;;;;;;;
1706.0;1659.4;;;;-0.9350778;1.1345407;0.09306718;;;;;;;;;;;;;;;
1706.0;1662.9;257848;262143;10353;;;;;;;;;;;;;;;;;;
1769.0;1669.5;;;;-0.93148434;1.1476899;0.089881904;;;;;;;;;;;;;;;
1769.0;1669.5;;;;-0.9290048;1.1611482;0.08926011;;;;;;;;;;;;;;;
1769.0;1669.5;;;;-0.92476666;1.1719438;0.092788704;;;;;;;;;;;;;;;
1769.0;1669.5;;;;-0.9214288;1.1807519;0.097347274;;;;;;;;;;;;;;;
1769.0;1669.5;;;;-0.9227792;1.1905023;0.10164262;;;;;;;;;;;;;;;
1769.0;1679.5;;;;-0.9238092;1.1989938;0.1066971;;;;;;;;;;;;;;;
1769.0;1679.5;;;;-0.9227601;1.2076341;0.11063005;;;;;;;;;;;;;;;
1769.0;1679.5;;;;-0.92196286;1.2171365;0.11412813;;;;;;;;;;;;;;;
1769.0;1679.5;;;;-0.91978467;1.2268945;0.11682512;;;;;;;;;;;;;;;
1769.0;1679.5;;;;-0.91695416;1.2384607;0.11708452;;;;;;;;;;;;;;;
1769.0;1683.1;257745;262143;10347;;;;;;;;;;;;;;;;;;
1769.0;1689.1;;;;;;;;;;;;;-8455;;;;;;;;
1769.0;1689.1;;;;;;;;;;;;;771;;;;;;;;
1769.0;1689.1;;;;;;;;;;;;;2702;;;;;;;;
1769.0;1689.1;;;;;;;;;;;;;1715;;;;;;;;
1769.0;1689.1;;;;;;;;;;;;;2038;;;;;;;;
1769.0;1689.4;;;;-0.91484845;1.2504083;0.11446382;;;;;;;;;;;;;;;
1769.0;1689.4;;;;-0.91106045;1.2645265;0.11053087;;;;;;;;;;;;;;;
1769.0;1689.4;;;;-0.90789807;1.2803994;0.10650255;;;;;;;;;;;;;;;
1769.0;1689.4;;;;-0.9042932;1.2964593;0.1027794;;;;;;;;;;;;;;;
1769.0;1689.4;;;;-0.89927685;1.3141748;0.09926988;;;;;;;;;;;;;;;
1771.0;1699.4;;;;-0.8930818;1.3322946;0.09514238;;;;;;;;;;;;;;;
1771.0;1699.4;;;;-0.8864175;1.35067;0.09016038;;;;;;;;;;;;;;;
1771.0;1699.4;;;;-0.87960446;1.369423;0.084522255;;;;;;;;;;;;;;;
1771.0;1699.4;;;;-0.8726121;1.388405;0.080299385;;;;;;;;;;;;;;;
1771.0;1699.4;;;;-0.86550534;1.4070779;0.07516862;;;;;;;;;;;;;;;
1771.0;1703.1;257446;262143;10336;;;;;;;;;;;;;;;;;;
1771.0;1709.5;;;;-0.85863125;1.423958;0.0712967;;;;;;;;;;;;;;;
1771.0;1709.5;;;;-0.8528863;1.4397622;0.0676117;;;;;;;;;;;;;;;
1771.0;1709.5;;;;-0.849373;1.4550439;0.0653267;;;;;;;;;;;;;;;
1771.0;1709.5;;;;-0.84617245;1.4678193;0.061740883;;;;;;;;;;;;;;;
1771.0;1709.5;;;;-0.8409692;1.4773141;0.06082154;;;;;;;;;;;;;;;
1771.0;1719.7;;;;-0.8367845;1.4901124;0.06013108;;;;;;;;;;;;;;;
1771.0;1719.7;;;;-0.8357774;1.5012743;0.05713273;;;;;;;;;;;;;;;
1771.0;1719.7;;;;-0.8296281;1.5029299;0.056068428;;;;;;;;;;;;;;;
1771.0;1719.7;;;;-0.825554;1.5047991;0.056587227;;;;;;;;;;;;;;;
1771.0;1719.7;;;;-0.82151806;1.5098803;0.05655671;;;;;;;;;;;;;;;
1771.0;1723.4;257026;262143;10313;;;;;;;;;;;;;;;;;;
1771.0;1729.5;;;;;;;;;;;;;3011;;;;;;;;
1771.0;1729.5;;;;;;;;;;;;;2883;;;;;;;;
1771.0;1729.5;;;;;;;;;;;;;2626;;;;;;;;
1771.0;1729.5;;;;;;;;;;;;;2890;;;;;;;;
1771.0;1729.5;;;;;;;;;;;;;2635;;;;;;;;
1772.0;1729.7;;;;-0.81972516;1.5095942;0.052989967;;;;;;;;;;;;;;;
1772.0;1729.7;;;;-0.80490506;1.5084689;0.052639015;;;;;;;;;;;;;;;
1772.0;1729.7;;;;-0.7907144;1.508465;0.053394325;;;;;;;;;;;;;;;
1772.0;1729.7;;;;-0.7897798;1.5104563;0.04960633;;;;;;;;;;;;;;;
1772.0;1729.7;;;;-0.7929002;1.5093844;0.046146397;;;;;;;;;;;;;;;
1772.0;1739.8;;;;-0.7902528;1.5096171;0.049327858;;;;;;;;;;;;;;;
1772.0;1739.8;;;;-0.78125393;1.5072596;0.046844486;;;;;;;;;;;;;;;
1772.0;1739.8;;;;-0.76361096;1.4894105;0.050956734;;;;;;;;;;;;;;;
1772.0;1739.8;;;;-0.756096;1.4813501;0.056736;;;;;;;;;;;;;;;
1772.0;1739.8;;;;-0.75005734;1.4751397;0.057205208;;;;;;;;;;;;;;;
1772.0;1739.8;;;;;;;;;;2.643666;19.611956;-1.4191107;;;;;;;;;
1772.0;1739.8;;;;;;;0.1850032;-0.62318796;-0.041627247;;;;;;;;;;;;
1772.0;1739.8;;;;;;;;;;6.824702;32.906586;8.724479;;;;;;;;;
1772.0;1739.8;;;;;;;0.20868556;-0.69954526;-0.03997925;;;;;;;;;;;;
1774.0;1740.3;;;;;;;;;;;;;;;;;-26.753288;-54.94476;121.47511;;1561.9
1774.0;1740.3;;;;;;;;;;;;;;-1.9998169;-0.4141972;-0.9454634;;;;;1561.9
1774.0;1740.3;;;;;;;;;;;;;;;;;-3.3875546;84.75753;76.68157;;1561.9
1774.0;1740.3;;;;;;;;;;;;;;-1.451033;-0.08386487;-0.014404736;;;;;1561.9
1774.0;1740.3;;;;;;;;;;;;;;;;;-25.135807;99.288155;14.927366;;1571.5
1774.0;1740.3;;;;;;;;;;;;;;-0.783227;-0.2491531;0.10834071;;;;;1571.5
1774.0;1740.3;;;;;;;;;;;;;;;;;8.102665;65.26002;-42.077396;;1571.5
1774.0;1740.3;;;;;;;;;;;;;;-0.47328106;-0.1793878;-0.10065004;;;;;1571.5
1774.0;1740.3;;;;;;;;;;;;;;;;;13.950773;66.75924;-73.60683;;1581.1
1774.0;1740.3;;;;;;;;;;;;;;-0.4367809;-0.14709921;-0.23706779;;;;;1581.1
1774.0;1740.3;;;;;;;;;;;;;;;;;-19.64629;81.194496;-71.920685;;1581.1
1774.0;1740.3;;;;;;;;;;;;;;-0.5035554;-0.19647816;-0.20184942;;;;;1581.1
1774.0;1741.4;;;;;;;;;;;;;;;;;-35.874508;49.214912;-48.03232;;1590.8
1774.0;1741.4;;;;;;;;;;;;;;-0.5124668;-0.17511521;-0.27784052;;;;;1590.8
1774.0;1741.4;;;;;;;;;;;;;;;;;-24.998474;0.5569628;-6.111332;;1590.8
1774.0;1741.4;;;;;;;;;;;;;;-0.4862209;-0.05835139;-0.3952147;;;;;1590.8
1774.0;1741.4;;;;;;;;;;;;;;;;;-20.87466;-25.99414;26.898252;;1600.5
1774.0;1741.4;;;;;;;;;;;;;;-0.48323008;0.05920591;-0.4242683;;;;;1600.5
1774.0;1741.4;;;;;;;;;;;;;;;;;-40.215763;-30.297249;31.956696;;1600.5
1774.0;1741.4;;;;;;;;;;;;;;-0.47004607;0.15875728;-0.4104129;;;;;1600.5
1774.0;1741.4;;;;;;;;;;;;;;;;;-61.399426;-27.050844;29.141361;;1610.1
1774.0;1741.4;;;;;;;;;;;;;;-0.49653614;0.21320231;-0.51875365;;;;;1610.1
1774.0;1741.4;;;;;;;;;;;;;;;;;-69.34568;-12.825403;33.64666;;1610.1
1774.0;1741.4;;;;;;;;;;;;;;-0.6349681;0.1163976;-0.60481584;;;;;1610.1
1776.0;1742.1;;;;;;;;;;;;;;;;;-57.039093;-5.603961;40.517136;;1619.7
1776.0;1742.1;;;;;;;;;;;;;;-0.82937104;-0.091921754;-0.58174384;;;;;1619.7
1776.0;1742.1;;;;;;;;;;;;;;;;;-44.106876;-16.129032;42.45125;;1619.7
1776.0;1742.1;;;;;;;;;;;;;;-0.9486984;-0.13739432;-0.45008698;;;;;1619.7
1776.0;1742.1;;;;;;;;;;;;;;;;;-39.18958;-41.371655;48.368023;;1629.3
1776.0;1742.1;;;;;;;;;;;;;;-0.9947203;-0.16876736;-0.2779626;;;;;1629.3
1776.0;1742.1;;;;;;;;;;;;;;;;;-35.60747;-66.789764;54.31532;;1629.3
1776.0;1742.1;;;;;;;;;;;;;;-1.015656;-0.14697714;-0.16534929;;;;;1629.3
1776.0;1742.1;;;;;;;;;;;;;;;;;-35.79058;-76.857056;62.723167;;1638.9
1776.0;1742.1;;;;;;;;;;;;;;-1.0843837;-0.16083254;-0.16815698;;;;;1638.9
1776.0;1742.1;;;;;;;;;;;;;;;;;-40.650654;-64.34065;66.14124;;1638.9
1776.0;1742.1;;;;;;;;;;;;;;-1.1700797;-0.14972381;-0.2741783;;;;;1638.9
1776.0;1742.9;;;;;;;;;;;;;;;;;-43.012024;-40.105137;68.5789;;1648.6
1776.0;1742.9;;;;;;;;;;;;;;-1.2516251;-0.15326396;-0.3668325;;;;;1648.6
1776.0;1742.9;;;;;;;;;;;;;;;;;-41.119877;-26.692251;65.66439;;1648.6
1776.0;1742.9;;;;;;;;;;;;;;-1.2214729;-0.10614338;-0.4413587;;;;;1648.6
1776.0;1742.9;;;;;;;;;;;;;;;;;-41.524246;-26.024658;60.27024;;1658.2
1776.0;1742.9;;;;;;;;;;;;;;-1.1051363;-0.080996126;-0.5528733;;;;;1658.2
1776.0;1742.9;;;;;;;;;;;;;;;;;-37.694176;-21.977142;57.72576;;1658.2
1776.0;1742.9;;;;;;;;;;;;;;-1.0382397;-0.058534503;-0.6357005;;;;;1658.2
1776.0;1742.9;;;;;;;;;;;;;;;;;-33.406326;-14.728996;58.34376;;1667.8
1776.0;1742.9;;;;;;;;;;;;;;-1.056795;-0.05121006;-0.649556;;;;;1667.8
1776.0;1742.9;;;;;;;;;;;;;;;;;-30.785545;-15.881069;58.431503;;1667.8
1776.0;1742.9;;;;;;;;;;;;;;-1.0989105;-0.015503403;-0.66652423;;;;;1667.8
1823.0;1743.2;256751;262143;10314;;;;;;;;;;;;;;;;;;
1823.0;1749.1;;;;;;;;;;1.6861477;-1.0719626;10.593738;;;;;;;;;
1823.0;1749.1;;;;;;;0.20459609;-0.6884976;-0.027527696;;;;;;;;;;;;
1823.0;1749.1;;;;;;;;;;17.380291;-1.8272958;34.871212;;;;;;;;;
1823.0;1749.1;;;;;;;0.19434187;-0.67110205;-0.013367107;;;;;;;;;;;;
1823.0;1749.5;;;;-0.7378083;1.4673578;0.058334358;;;;;;;;;;;;;;;
1823.0;1749.5;;;;-0.7286034;1.4500848;0.06369401;;;;;;;;;;;;;;;
1823.0;1749.5;;;;-0.72607046;1.439766;0.06821061;;;;;;;;;;;;;;;
1823.0;1749.5;;;;-0.7248116;1.4320947;0.0690651;;;;;;;;;;;;;;;
1823.0;1749.5;;;;-0.7205964;1.4221383;0.070156105;;;;;;;;;;;;;;;
1823.0;1758.3;;;;;;;;;;26.791437;-13.954588;59.19828;;;;;;;;;
1823.0;1758.3;;;;;;;0.17737357;-0.6575518;0.009399701;;;;;;;;;;;;
1823.0;1758.3;;;;;;;;;;29.652548;-60.594498;63.310646;;;;;;;;;
1823.0;1758.3;;;;;;;0.16254158;-0.6505936;0.015625477;;;;;;;;;;;;
1823.0;1759.3;;;;-0.714428;1.4036752;0.07345582;;;;;;;;;;;;;;;
1823.0;1759.3;;;;-0.71506506;1.3929406;0.07626725;;;;;;;;;;;;;;;
1823.0;1759.3;;;;-0.71360403;1.3854104;0.075710304;;;;;;;;;;;;;;;
1823.0;1759.3;;;;-0.7057114;1.381405;0.07534028;;;;;;;;;;;;;;;
1823.0;1759.3;;;;-0.69668204;1.3680459;0.074428566;;;;;;;;;;;;;;;
1823.0;1763.1;256603;262143;10297;;;;;;;;;;;;;;;;;;
1826.0;1768.0;;;;;;;;;;36.492508;-70.40238;87.87805;;;;;;;;;
1826.0;1768.0;;;;;;;0.15009002;-0.64857936;0.012939848;;;;;;;;;;;;
1826.0;1768.0;;;;;;;;;;41.951508;-77.444534;111.163666;;;;;;;;;
1826.0;1768.0;;;;;;;0.15540025;-0.65285194;0.019470809;;;;;;;;;;;;
1826.0;1769.2;;;;;;;;;;;;;1512;;;;;;;;
1826.0;1769.2;;;;;;;;;;;;;-37;;;;;;;;
1826.0;1769.2;;;;;;;;;;;;;-1382;;;;;;;;
1826.0;1769.2;;;;;;;;;;;;;-2710;;;;;;;;
1826.0;1769.2;;;;;;;;;;;;;-4715;;;;;;;;
1826.0;1769.4;;;;-0.69452673;1.3604699;0.07561494;;;;;;;;;;;;;;;
1826.0;1769.4;;;;-0.6895104;1.3612214;0.06988145;;;;;;;;;;;;;;;
1826.0;1769.4;;;;-0.6745301;1.3562776;0.06609727;;;;;;;;;;;;;;;
1826.0;1769.4;;;;-0.6684647;1.3437234;0.06643296;;;;;;;;;;;;;;;
1826.0;1769.4;;;;-0.6646386;1.3401796;0.06444169;;;;;;;;;;;;;;;
1826.0;1777.6;;;;;;;;;;45.152134;-72.771385;123.62666;;;;;;;;;
1826.0;1777.6;;;;;;;0.19000824;-0.66292304;0.029969176;;;;;;;;;;;;
1826.0;1777.6;;;;;;;;;;44.03821;-60.594498;124.88556;;;;;;;;;
1826.0;1777.6;;;;;;;0.24073;-0.6791589;0.050721765;;;;;;;;;;;;
1826.0;1779.5;;;;-0.6498223;1.3384286;0.058403023;;;;;;;;;;;;;;;
1826.0;1779.5;;;;-0.6362458;1.3291246;0.05868531;;;;;;;;;;;;;;;
1826.0;1779.5;;;;-0.63202673;1.3349878;0.05818177;;;;;;;;;;;;;;;
1826.0;1779.5;;;;-0.62019736;1.3387834;0.052108772;;;;;;;;;;;;;;;
1826.0;1779.5;;;;-0.6008492;1.3305856;0.049976356;;;;;;;;;;;;;;;
1826.0;1783.4;256420;262143;10297;;;;;;;;;;;;;;;;;;
1828.0;1787.2;;;;;;;;;;42.81747;-55.87176;124.881744;;;;;;;;;
1828.0;1787.2;;;;;;;0.29108554;-0.71016574;0.06201361;;;;;;;;;;;;
1828.0;1787.2;;;;;;;;;;41.680653;-51.82043;124.881744;;;;;;;;;
1828.0;1787.2;;;;;;;0.33161414;-0.75051117;0.08233894;;;;;;;;;;;;
1828.0;1789.6;;;;-0.5875588;1.3238488;0.049869545;;;;;;;;;;;;;;;
1828.0;1789.6;;;;-0.5777512;1.3308755;0.04325867;;;;;;;;;;;;;;;
1828.0;1789.6;;;;-0.5543023;1.3305665;0.035831455;;;;;;;;;;;;;;;
1828.0;1789.6;;;;-0.5374184;1.318802;0.03420258;;;;;;;;;;;;;;;
1828.0;1789.6;;;;-0.5247956;1.3235437;0.029861454;;;;;;;;;;;;;;;
1828.0;1796.8;;;;;;;;;;40.73458;-47.639393;124.881744;;;;;;;;;
1828.0;1796.8;;;;;;;0.37452316;-0.7937254;0.1225013;;;;;;;;;;;;
1828.0;1796.8;;;;;;;;;;39.944912;-43.866543;124.881744;;;;;;;;;
1828.0;1796.8;;;;;;;0.41242713;-0.83755;0.16266365;;;;;;;;;;;;
1828.0;1799.6;;;;-0.5097657;1.3295251;0.020660402;;;;;;;;;;;;;;;
1828.0;1799.6;;;;-0.48655707;1.318657;0.014186861;;;;;;;;;;;;;;;
1828.0;1799.6;;;;-0.47200018;1.3163644;0.0130844135;;;;;;;;;;;;;;;
1828.0;1799.6;;;;-0.45657736;1.3125764;0.0055046086;;;;;;;;;;;;;;;
1828.0;1799.6;;;;-0.43591696;1.3101693;0.0013313295;;;;;;;;;;;;;;;
1828.0;1803.5;256169;262143;10280;;;;;;;;;;;;;;;;;;
1828.0;1806.3;;;;;;;;;;39.338356;-40.143284;124.881744;;;;;;;;;
1828.0;1806.3;;;;;;;0.45051423;-0.8730735;0.21784112;;;;;;;;;;;;
1828.0;1806.3;;;;;;;;;;38.579212;-36.66036;124.881744;;;;;;;;;
1828.0;1806.3;;;;;;;0.50593585;-0.9115879;0.27900022;;;;;;;;;;;;
1885.0;1809.6;;;;;;;;;;;;;-6761;;;;;;;;
1885.0;1809.6;;;;;;;;;;;;;-7966;;;;;;;;
1885.0;1809.6;;;;;;;;;;;;;-8255;;;;;;;;
1885.0;1809.6;;;;;;;;;;;;;-7936;;;;;;;;
1885.0;1809.6;;;;;;;;;;;;;-7439;;;;;;;;
1885.0;1809.7;;;;-0.41654974;1.2990762;-0.0019721987;;;;;;;;;;;;;;;
1885.0;1809.7;;;;-0.40090185;1.2895547;-0.0061187753;;;;;;;;;;;;;;;
1885.0;1809.7;;;;-0.38680655;1.2824594;-0.01193619;;;;;;;;;;;;;;;
1885.0;1809.7;;;;-0.3729401;1.2803193;-0.01804352;;;;;;;;;;;;;;;
1885.0;1809.7;;;;-0.34424594;1.2781373;-0.024681095;;;;;;;;;;;;;;;
1885.0;1815.8;;;;;;;;;;37.625507;-32.17414;124.881744;;;;;;;;;
1885.0;1815.8;;;;;;;0.5769829;-0.96249276;0.34351635;;;;;;;;;;;;
1885.0;1815.8;;;;;;;;;;36.11484;-27.977842;124.881744;;;;;;;;;
1885.0;1815.8;;;;;;;0.6690268;-0.9906308;0.40308848;;;;;;;;;;;;
1885.0;1819.6;;;;-0.3206978;1.2692605;-0.028106693;;;;;;;;;;;;;;;
1885.0;1819.6;;;;-0.3016167;1.2614976;-0.034004215;;;;;;;;;;;;;;;
1885.0;1819.6;;;;-0.28127292;1.2465898;-0.04228211;;;;;;;;;;;;;;;
1885.0;1819.6;;;;-0.25848392;1.2326776;-0.047645576;;;;;;;;;;;;;;;
1885.0;1819.6;;;;-0.23770526;1.2190706;-0.053234108;;;;;;;;;;;;;;;
1885.0;1823.6;256060;262143;10279;;;;;;;;;;;;;;;;;;
1885.0;1825.4;;;;;;;;;;34.47447;-26.024658;124.881744;;;;;;;;;
1885.0;1825.4;;;;;;;0.75441754;-1.0326853;0.45368817;;;;;;;;;;;;
1885.0;1825.4;;;;;;;;;;32.58614;-25.410473;124.881744;;;;;;;;;
1885.0;1825.4;;;;;;;0.8377331;-1.0728477;0.5044099;;;;;;;;;;;;
1888.0;1829.7;;;;-0.21176913;1.2095453;-0.059638985;;;;;;;;;;;;;;;
1888.0;1829.7;;;;-0.17780305;1.2043496;-0.06866074;;;;;;;;;;;;;;;
1888.0;1829.7;;;;-0.15427782;1.1928178;-0.07507325;;;;;;;;;;;;;;;
1888.0;1829.7;;;;-0.12828447;1.1822778;-0.07786561;;;;;;;;;;;;;;;
1888.0;1829.7;;;;-0.09361649;1.1681634;-0.083522804;;;;;;;;;;;;;;;
1888.0;1835.1;;;;;;;;;;30.007324;-25.50203;124.881744;;;;;;;;;
1888.0;1835.1;;;;;;;0.88882107;-1.0973235;0.5395062;;;;;;;;;;;;
1888.0;1835.1;;;;;;;;;;27.275919;-25.387585;124.881744;;;;;;;;;
1888.0;1835.1;;;;;;;0.9314249;-1.1313822;0.5708792;;;;;;;;;;;;
1888.0;1839.9;;;;-0.07209016;1.15197;-0.08802033;;;;;;;;;;;;;;;
1888.0;1839.9;;;;-0.06269074;1.1408731;-0.0920868;;;;;;;;;;;;;;;
1888.0;1839.9;;;;-0.04045487;1.1286126;-0.09870531;;;;;;;;;;;;;;;
1888.0;1839.9;;;;-0.01797867;1.1195985;-0.10526277;;;;;;;;;;;;;;;
1888.0;1839.9;;;;-0.003307343;1.1159288;-0.11563493;;;;;;;;;;;;;;;
1888.0;1843.9;256073;262143;10283;;;;;;;;;;;;;;;;;;
1888.0;1844.6;;;;;;;;;;24.6704;-26.177252;124.881744;;;;;;;;;
1888.0;1844.6;;;;;;;0.93472093;-1.1922361;0.5917539;;;;;;;;;;;;
1888.0;1844.6;;;;;;;;;;22.007662;-26.894438;124.881744;;;;;;;;;
1888.0;1844.6;;;;;;;0.93148595;-1.2308725;0.5995056;;;;;;;;;;;;
1888.0;1850.0;;;;;;;;;;;;;-6564;;;;;;;;
1888.0;1850.0;;;;;;;;;;;;;-5170;;;;;;;;
1888.0;1850.0;;;;;;;;;;;;;-4010;;;;;;;;
1888.0;1850.0;;;;;;;;;;;;;-3657;;;;;;;;
1888.0;1850.0;;;;;;;;;;;;;-3708;;;;;;;;
1890.0;1850.0;;;;0.01728058;1.1105195;-0.12519075;;;;;;;;;;;;;;;
1890.0;1850.0;;;;0.026981357;1.1039888;-0.1381302;;;;;;;;;;;;;;;
1890.0;1850.0;;;;0.046211246;1.0953103;-0.1467972;;;;;;;;;;;;;;;
1890.0;1850.0;;;;0.06303025;1.0835;-0.15523149;;;;;;;;;;;;;;;
1890.0;1850.0;;;;0.0688057;1.0718881;-0.16321184;;;;;;;;;;;;;;;
1890.0;1854.3;;;;;;;;;;19.898067;-26.409956;124.881744;;;;;;;;;
1890.0;1854.3;;;;;;;0.92996;-1.2710348;0.60567033;;;;;;;;;;;;
1890.0;1854.3;;;;;;;;;;18.196661;-28.328806;124.881744;;;;;;;;;
1890.0;1854.3;;;;;;;0.91848505;-1.3049104;0.60982084;;;;;;;;;;;;
1890.0;1860.0;;;;0.07641984;1.0709344;-0.17517091;;;;;;;;;;;;;;;
1890.0;1860.0;;;;0.082054146;1.0592004;-0.18607713;;;;;;;;;;;;;;;
1890.0;1860.0;;;;0.080486305;1.039261;-0.19350818;;;;;;;;;;;;;;;
1890.0;1860.0;;;;0.08751298;1.0261499;-0.19889835;;;;;;;;;;;;;;;
1890.0;1860.0;;;;0.08713151;1.0268441;-0.20336154;;;;;;;;;;;;;;;
1890.0;1863.9;;;;;;;;;;17.151402;-31.472214;124.881744;;;;;;;;;
1890.0;1863.9;;;;;;;0.90347;-1.3364666;0.60158086;;;;;;;;;;;;
1890.0;1863.9;;;;;;;;;;16.106144;-33.99762;124.881744;;;;;;;;;
1890.0;1863.9;;;;;;;0.90066224;-1.383465;0.60194707;;;;;;;;;;;;
1890.0;1864.1;256313;262143;10308;;;;;;;;;;;;;;;;;;
1947.0;1870.1;;;;0.08647538;1.0181657;-0.21026233;;;;;;;;;;;;;;;
1947.0;1870.1;;;;0.0739708;1.0042421;-0.21141437;;;;;;;;;;;;;;;
1947.0;1870.1;;;;0.0612259;0.9940988;-0.20731738;;;;;;;;;;;;;;;
1947.0;1870.1;;;;0.050632484;0.9790231;-0.20658115;;;;;;;;;;;;;;;
1947.0;1870.1;;;;0.038276676;0.97007;-0.20407107;;;;;;;;;;;;;;;
1947.0;1873.3;;;;;;;;;;15.0112915;-37.92688;124.881744;;;;;;;;;
1947.0;1873.3;;;;;;;0.90737635;-1.4066591;0.59651476;;;;;;;;;;;;
1947.0;1873.3;;;;;;;;;;13.267922;-41.3831;124.881744;;;;;;;;;
1947.0;1873.3;;;;;;;0.93203527;-1.4139836;0.6031068;;;;;;;;;;;;
1947.0;1880.1;;;;0.02947617;0.9647981;-0.20200732;;;;;;;;;;;;;;;
1947.0;1880.1;;;;0.021232607;0.96078503;-0.20077518;;;;;;;;;;;;;;;
1947.0;1880.1;;;;0.016933443;0.95325863;-0.19921497;;;;;;;;;;;;;;;
1947.0;1880.1;;;;0.020687105;0.9489938;-0.19319156;;;;;;;;;;;;;;;
1947.0;1880.1;;;;0.01766205;0.9411012;-0.19126895;;;;;;;;;;;;;;;
1947.0;1883.0;;;;;;;;;;11.67333;-46.02191;124.881744;;;;;;;;;
1947.0;1883.0;;;;;;;0.93295085;-1.3962828;0.60567033;;;;;;;;;;;;
1947.0;1883.0;;;;;;;;;;10.216071;-51.999725;124.881744;;;;;;;;;
1947.0;1883.0;;;;;;;0.92996;-1.3691825;0.61238444;;;;;;;;;;;;
1947.0;1884.2;256755;262143;10331;;;;;;;;;;;;;;;;;;
1949.0;1890.2;;;;0.011051179;0.9306108;-0.18720628;;;;;;;;;;;;;;;
1949.0;1890.2;;;;0.007068635;0.9269334;-0.18212129;;;;;;;;;;;;;;;
1949.0;1890.2;;;;1.9073488E-5;0.9222909;-0.17745592;;;;;;;;;;;;;;;
1949.0;1890.2;;;;-0.008689881;0.91998684;-0.17510606;;;;;;;;;;;;;;;
1949.0;1890.2;;;;-0.01394272;0.9163934;-0.17105485;;;;;;;;;;;;;;;
1949.0;1890.3;;;;;;;;;;;;;-3489;;;;;;;;
1949.0;1890.3;;;;;;;;;;;;;-3139;;;;;;;;
1949.0;1890.3;;;;;;;;;;;;;-3049;;;;;;;;
1949.0;1890.3;;;;;;;;;;;;;-2816;;;;;;;;
1949.0;1890.3;;;;;;;;;;;;;-1848;;;;;;;;
1949.0;1892.6;;;;;;;;;;8.854182;-59.232613;124.794;;;;;;;;;
1949.0;1892.6;;;;;;;0.9284951;-1.3402508;0.6214179;;;;;;;;;;;;
1949.0;1892.6;;;;;;;;;;7.637257;-67.44972;123.21848;;;;;;;;;
1949.0;1892.6;;;;;;;0.9358806;-1.314249;0.62483597;;;;;;;;;;;;
1949.0;1900.3;;;;-0.023975376;0.9032365;-0.1704712;;;;;;;;;;;;;;;
1949.0;1900.3;;;;-0.030925754;0.8911134;-0.16872026;;;;;;;;;;;;;;;
1949.0;1900.3;;;;-0.036300663;0.882393;-0.16350175;;;;;;;;;;;;;;;
1949.0;1900.3;;;;-0.045494083;0.8702737;-0.15750124;;;;;;;;;;;;;;;
1949.0;1900.3;;;;-0.049854286;0.85374844;-0.15365984;;;;;;;;;;;;;;;
1949.0;1902.2;;;;;;;;;;6.5347757;-76.13224;119.25489;;;;;;;;;
1949.0;1902.2;;;;;;;0.95956296;-1.2907498;0.6263009;;;;;;;;;;;;
1949.0;1902.2;;;;;;;;;;5.539109;-85.19242;114.58174;;;;;;;;;
1949.0;1902.2;;;;;;;0.98873866;-1.2757348;0.62623984;;;;;;;;;;;;
1949.0;1904.5;257355;262143;10350;;;;;;;;;;;;;;;;;;
1950.0;1906.1;;;;;;;;;;;;;;;;;-31.781212;-19.692068;60.60976;;1677.5
1950.0;1906.1;;;;;;;;;;;;;;-1.1944945;0.006775109;-0.68764305;;;;;1677.5
1950.0;1906.1;;;;;;;;;;;;;;;;;-31.708733;-26.123844;65.67202;;1677.5
1950.0;1906.1;;;;;;;;;;;;;;-1.246498;0.041505173;-0.66139716;;;;;1677.5
1950.0;1906.1;;;;;;;;;;;;;;;;;-27.371288;-34.600357;69.83398;;1687.1
1950.0;1906.1;;;;;;;;;;;;;;-1.2839137;0.07757805;-0.6140324;;;;;1687.1
1950.0;1906.1;;;;;;;;;;;;;;;;;-19.26481;-43.584248;71.19587;;1687.1
1950.0;1906.1;;;;;;;;;;;;;;-1.3523362;0.12140263;-0.56495863;;;;;1687.1
1950.0;1906.1;;;;;;;;;;;;;;;;;-10.414441;-52.35069;71.14627;;1696.7
1950.0;1906.1;;;;;;;;;;;;;;-1.388348;0.13544114;-0.547441;;;;;1696.7
1950.0;1906.1;;;;;;;;;;;;;;;;;-4.860073;-54.36491;66.57995;;1696.7
1950.0;1906.1;;;;;;;;;;;;;;-1.3582568;0.1662038;-0.5410932;;;;;1696.7
1950.0;1906.9;;;;;;;;;;;;;;;;;-5.3788877;-50.469982;60.083313;;1706.4
1950.0;1906.9;;;;;;;;;;;;;;-1.3022248;0.18012024;-0.51582384;;;;;1706.4
1950.0;1906.9;;;;;;;;;;;;;;;;;-4.871517;-49.924465;61.037018;;1706.4
1950.0;1906.9;;;;;;;;;;;;;;-1.2627338;0.19483016;-0.52864164;;;;;1706.4
1950.0;1906.9;;;;;;;;;;;;;;;;;-7.194739;-48.23069;64.29868;;1716.1
1950.0;1906.9;;;;;;;;;;;;;;-1.2490005;0.21613209;-0.5568407;;;;;1716.1
1950.0;1906.9;;;;;;;;;;;;;;;;;-12.756737;-44.48454;66.53799;;1716.1
1950.0;1906.9;;;;;;;;;;;;;;-1.2624286;0.22229682;-0.5899838;;;;;1716.1
1950.0;1906.9;;;;;;;;;;;;;;;;;-17.059847;-42.016357;68.24702;;1725.6
1950.0;1906.9;;;;;;;;;;;;;;-1.2764062;0.21375164;-0.62874234;;;;;1725.6
1950.0;1906.9;;;;;;;;;;;;;;;;;-17.509995;-42.245247;70.078125;;1725.6
1950.0;1906.9;;;;;;;;;;;;;;-1.2859279;0.18970306;-0.62746054;;;;;1725.6
1955.0;1907.9;;;;;;;;;;;;;;;;;-14.992217;-46.525467;72.00842;;1735.3
1955.0;1907.9;;;;;;;;;;;;;;-1.2803125;0.16217536;-0.6024964;;;;;1735.3
1955.0;1907.9;;;;;;;;;;;;;;;;;-14.339885;-49.39421;73.778496;;1735.3
1955.0;1907.9;;;;;;;;;;;;;;-1.2808619;0.13977477;-0.5761284;;;;;1735.3
1955.0;1907.9;;;;;;;;;;;;;;;;;-14.805292;-47.67373;75.54094;;1745.0
1955.0;1907.9;;;;;;;;;;;;;;-1.3201087;0.12079226;-0.5755181;;;;;1745.0
1955.0;1907.9;;;;;;;;;;;;;;;;;-14.145329;-44.36628;76.95242;;1745.0
1955.0;1907.9;;;;;;;;;;;;;;-1.3661916;0.10345775;-0.6153752;;;;;1745.0
1955.0;1907.9;;;;;;;;;;;;;;;;;-12.398144;-41.287727;77.86035;;1754.6
1955.0;1907.9;;;;;;;;;;;;;;-1.4056826;0.06891079;-0.6785485;;;;;1754.6
1955.0;1907.9;;;;;;;;;;;;;;;;;-10.364849;-39.765617;79.34049;;1754.6
1955.0;1907.9;;;;;;;;;;;;;;-1.4470656;0.03070162;-0.7017426;;;;;1754.6
1955.0;1908.9;;;;;;;;;;;;;;;;;-9.159368;-42.294838;80.889305;;1764.2
1955.0;1908.9;;;;;;;;;;;;;;-1.4767296;-0.024292734;-0.6679281;;;;;1764.2
1955.0;1908.9;;;;;;;;;;;;;;;;;-10.059664;-47.055725;79.760124;;1764.2
1955.0;1908.9;;;;;;;;;;;;;;-1.4734946;-0.0656148;-0.5798517;;;;;1764.2
1955.0;1908.9;;;;;;;;;;;;;;;;;-13.782922;-51.923428;78.360085;;1773.9
1955.0;1908.9;;;;;;;;;;;;;;-1.4447463;-0.086245306;-0.5155797;;;;;1773.9
1955.0;1908.9;;;;;;;;;;;;;;;;;-16.605885;-53.945282;77.18894;;1773.9
1955.0;1908.9;;;;;;;;;;;;;;-1.4215522;-0.09509568;-0.51814324;;;;;1773.9
1955.0;1908.9;;;;;;;;;;;;;;;;;-18.505661;-51.541946;75.43031;;1783.6
1955.0;1908.9;;;;;;;;;;;;;;-1.401471;-0.12652974;-0.5566576;;;;;1783.6
1955.0;1908.9;;;;;;;;;;;;;;;;;-18.047884;-50.515762;73.18339;;1783.6
1955.0;1908.9;;;;;;;;;;;;;;-1.3793145;-0.16541032;-0.59828484;;;;;1783.6
1957.0;1909.5;;;;;;;;;;;;;;;;;-16.449478;-53.07932;71.413315;;1793.3
1957.0;1909.5;;;;;;;;;;;;;;-1.358623;-0.22602008;-0.6007874;;;;;1793.3
1957.0;1909.5;;;;;;;;;;;;;;;;;-15.362254;-57.83639;70.53972;;1793.3
1957.0;1909.5;;;;;;;;;;;;;;-1.3423262;-0.28992584;-0.5431684;;;;;1793.3
1957.0;1909.5;;;;;;;;;;;;;;;;;-19.371624;-60.651722;69.9179;;1803.0
1957.0;1909.5;;;;;;;;;;;;;;-1.3362834;-0.35737175;-0.5019074;;;;;1803.0
1957.0;1909.5;;;;;;;;;;;;;;;;;-24.891659;-60.415203;68.98328;;1803.0
1957.0;1909.5;;;;;;;;;;;;;;-1.3340862;-0.43537706;-0.52076787;;;;;1803.0
1957.0;1909.5;;;;;;;;;;;;;;;;;-27.130957;-57.97754;67.37343;;1812.5
1957.0;1909.5;;;;;;;;;;;;;;-1.32902;-0.53907895;-0.5716117;;;;;1812.5
1957.0;1909.5;;;;;;;;;;;;;;;;;-27.188177;-55.028687;63.92865;;1812.5
1957.0;1909.5;;;;;;;;;;;;;;-1.3017975;-0.62990206;-0.6241646;;;;;1812.5
1957.0;1909.9;;;;-0.053005226;0.84658444;-0.14966585;;;;;;;;;;;;;;;
1957.0;1909.9;;;;-0.054191597;0.8439027;-0.14662553;;;;;;;;;;;;;;;
1957.0;1909.9;;;;-0.053451546;0.8398477;-0.14040376;;;;;;;;;;;;;;;
1957.0;1909.9;;;;-0.051063545;0.83247006;-0.1347542;;;;;;;;;;;;;;;
1957.0;1909.9;;;;-0.05163575;0.82644284;-0.13129427;;;;;;;;;;;;;;;
1957.0;1911.4;;;;;;;;;;4.970702;-94.30982;109.82467;;;;;;;;;
1957.0;1911.4;;;;;;;1.0140691;-1.2649922;0.6201972;;;;;;;;;;;;
1957.0;1911.4;;;;;;;;;;5.0813317;-103.10297;105.353714;;;;;;;;;
1957.0;1911.4;;;;;;;1.0367137;-1.2584612;0.6140324;;;;;;;;;;;;
1958.0;1913.2;;;;;;;;;;;;;;;;;-24.59792;-53.758354;60.29313;;1822.1
1958.0;1913.2;;;;;;;;;;;;;;-1.2639546;-0.74056214;-0.64625996;;;;;1822.1
1958.0;1913.2;;;;;;;;;;;;;;;;;-24.830622;-54.223763;51.950134;;1822.1
1958.0;1913.2;;;;;;;;;;;;;;-1.2139653;-0.84066284;-0.6354564;;;;;1822.1
1958.0;1913.2;;;;;;;;;;;;;;;;;-25.06714;-54.673912;40.82995;;1831.7
1958.0;1913.2;;;;;;;;;;;;;;-1.1337016;-0.95559555;-0.62105167;;;;;1831.7
1958.0;1913.2;;;;;;;;;;;;;;;;;-19.032106;-53.369244;30.610065;;1831.7
1958.0;1913.2;;;;;;;;;;;;;;-1.071871;-1.0495316;-0.54396194;;;;;1831.7
1958.0;1913.2;;;;;;;;;;;;;;;;;-20.199438;-56.10065;17.09418;;1841.4
1958.0;1913.2;;;;;;;;;;;;;;-1.0083315;-1.1225318;-0.48896757;;;;;1841.4
1958.0;1913.2;;;;;;;;;;;;;;;;;-14.847256;-58.004242;5.93585;;1841.4
1958.0;1913.2;;;;;;;;;;;;;;-0.8809473;-1.2536393;-0.5481735;;;;;1841.4
1958.0;1919.9;;;;-0.05295945;0.8229028;-0.1252823;;;;;;;;;;;;;;;
1958.0;1919.9;;;;-0.051048286;0.8109895;-0.12002565;;;;;;;;;;;;;;;
1958.0;1919.9;;;;-0.048198707;0.8027955;-0.1118889;;;;;;;;;;;;;;;
1958.0;1919.9;;;;-0.047084816;0.79660046;-0.10612871;;;;;;;;;;;;;;;
1958.0;1919.9;;;;-0.044464115;0.7911531;-0.10076524;;;;;;;;;;;;;;;
1958.0;1920.8;;;;;;;;;;5.539109;-111.484116;100.99338;;;;;;;;;
1958.0;1920.8;;;;;;;1.058626;-1.2540056;0.6076235;;;;;;;;;;;;
1958.0;1920.8;;;;;;;;;;6.221961;-118.96115;96.43849;;;;;;;;;
1958.0;1920.8;;;;;;;1.0774865;-1.2494888;0.59828484;;;;;;;;;;;;
1958.0;1924.0;257783;262143;10358;;;;;;;;;;;;;;;;;;
2002.0;1929.9;;;;-0.0411377;0.7859727;-0.098144546;;;;;;;;;;;;;;;
2002.0;1929.9;;;;-0.049560554;0.771412;-0.08869172;;;;;;;;;;;;;;;
2002.0;1929.9;;;;-0.046241764;0.7588273;-0.079666145;;;;;;;;;;;;;;;
2002.0;1929.9;;;;-0.04440308;0.7515222;-0.07318879;;;;;;;;;;;;;;;
2002.0;1929.9;;;;-0.039138798;0.7414742;-0.067947395;;;;;;;;;;;;;;;
2002.0;1930.1;;;;;;;;;;;;;-262;;;;;;;;
2002.0;1930.1;;;;;;;;;;;;;1007;;;;;;;;
2002.0;1930.1;;;;;;;;;;;;;1250;;;;;;;;
2002.0;1930.1;;;;;;;;;;;;;943;;;;;;;;
2002.0;1930.1;;;;;;;;;;;;;1007;;;;;;;;
2002.0;1930.4;;;;;;;;;;7.1565905;-123.99289;91.742455;;;;;;;;;
2002.0;1930.4;;;;;;;1.0959197;-1.2327647;0.5901059;;;;;;;;;;;;
2002.0;1930.4;;;;;;;;;;8.301035;-124.86266;86.825165;;;;;;;;;
2002.0;1930.4;;;;;;;1.1139866;-1.2124393;0.5849177;;;;;;;;;;;;
2002.0;1939.7;;;;;;;;;;9.418776;-124.881744;81.72857;;;;;;;;;
2002.0;1939.7;;;;;;;1.1214331;-1.1874142;0.57454145;;;;;;;;;;;;
2002.0;1939.7;;;;;;;;;;10.734886;-124.881744;76.33443;;;;;;;;;
2002.0;1939.7;;;;;;;1.12949;-1.1568956;0.5741142;;;;;;;;;;;;
2002.0;1939.7;;;;-0.036178593;0.7327233;-0.06452943;;;;;;;;;;;;;;;
2002.0;1939.7;;;;-0.031486515;0.7254372;-0.05710221;;;;;;;;;;;;;;;
2002.0;1939.7;;;;-0.025428776;0.7189904;-0.050018318;;;;;;;;;;;;;;;
2002.0;1939.7;;;;-0.023002626;0.7119866;-0.045616154;;;;;;;;;;;;;;;
2002.0;1939.7;;;;-0.01840973;0.70706946;-0.040580753;;;;;;;;;;;;;;;
2002.0;1944.0;257982;262143;10368;;;;;;;;;;;;;;;;;;
2062.0;1949.3;;;;;;;;;;11.810663;-124.881744;70.89449;;;;;;;;;
2062.0;1949.3;;;;;;;1.1333964;-1.122837;0.57222205;;;;;;;;;;;;
2062.0;1949.3;;;;;;;;;;12.649922;-124.881744;65.34776;;;;;;;;;
2062.0;1949.3;;;;;;;1.1292459;-1.0902432;0.56575215;;;;;;;;;;;;
2062.0;1949.8;;;;-0.011444093;0.7037812;-0.035694126;;;;;;;;;;;;;;;
2062.0;1949.8;;;;-0.0047874455;0.70117956;-0.03205872;;;;;;;;;;;;;;;
2062.0;1949.8;;;;0.0016517641;0.6980706;-0.029548649;;;;;;;;;;;;;;;
2062.0;1949.8;;;;0.007965089;0.69606405;-0.027164463;;;;;;;;;;;;;;;
2062.0;1949.8;;;;0.017059328;0.6959992;-0.024299625;;;;;;;;;;;;;;;
2062.0;1959.0;;;;;;;;;;13.492996;-124.881744;59.911648;;;;;;;;;
2062.0;1959.0;;;;;;;1.1263771;-1.0542924;0.5546434;;;;;;;;;;;;
2062.0;1959.0;;;;;;;;;;14.450515;-124.881744;54.692986;;;;;;;;;
2062.0;1959.0;;;;;;;1.1196631;-1.0186468;0.53743094;;;;;;;;;;;;
2062.0;1959.9;;;;0.026649479;0.69575125;-0.02107239;;;;;;;;;;;;;;;
2062.0;1959.9;;;;0.03760529;0.69635016;-0.020053865;;;;;;;;;;;;;;;
2062.0;1959.9;;;;0.049263008;0.69888693;-0.017459871;;;;;;;;;;;;;;;
2062.0;1959.9;;;;0.061191566;0.7029725;-0.017902376;;;;;;;;;;;;;;;
2062.0;1959.9;;;;0.07494355;0.7070313;-0.017456057;;;;;;;;;;;;;;;
2062.0;1964.3;258237;262143;10376;;;;;;;;;;;;;;;;;;
2062.0;1968.6;;;;;;;;;;15.484328;-124.881744;49.619278;;;;;;;;;
2062.0;1968.6;;;;;;;1.1106906;-0.98556477;0.516068;;;;;;;;;;;;
2062.0;1968.6;;;;;;;;;;16.510515;-124.881744;44.85076;;;;;;;;;
2062.0;1968.6;;;;;;;1.106418;-0.9483932;0.4943388;;;;;;;;;;;;
2071.0;1970.0;;;;0.09015275;0.71070105;-0.016342165;;;;;;;;;;;;;;;
2071.0;1970.0;;;;0.10495378;0.71519476;-0.014396669;;;;;;;;;;;;;;;
2071.0;1970.0;;;;0.117870346;0.7212029;-0.013351442;;;;;;;;;;;;;;;
2071.0;1970.0;;;;0.12794115;0.7279015;-0.013710024;;;;;;;;;;;;;;;
2071.0;1970.0;;;;0.13714601;0.73546225;-0.013328554;;;;;;;;;;;;;;;
2071.0;1970.3;;;;;;;;;;;;;1726;;;;;;;;
2071.0;1970.3;;;;;;;;;;;;;2706;;;;;;;;
2071.0;1970.3;;;;;;;;;;;;;3562;;;;;;;;
2071.0;1970.3;;;;;;;;;;;;;4553;;;;;;;;
2071.0;1970.3;;;;;;;;;;;;;5909;;;;;;;;
2071.0;1974.2;;;;;;;;;;;;;;;;;12.833034;-52.308727;14.141514;;1850.9
2071.0;1974.2;;;;;;;;;;;;;;-0.8191168;-1.2968535;-0.4148076;;;;;1850.9
2071.0;1974.2;;;;;;;;;;;;;;;;;8.239998;-52.522354;17.082735;;1850.9
2071.0;1974.2;;;;;;;;;;;;;;-0.7706534;-1.3326212;-0.34217352;;;;;1850.9
2071.0;1974.2;;;;;;;;;;;;;;;;;-10.502182;-54.456467;-4.669332;;1860.5
2071.0;1974.2;;;;;;;;;;;;;;-0.70711386;-1.4287546;-0.3884396;;;;;1860.5
2071.0;1974.2;;;;;;;;;;;;;;;;;-3.5554063;-53.979614;-26.280252;;1860.5
2071.0;1974.2;;;;;;;;;;;;;;-0.6483352;-1.4098331;-0.3325297;;;;;1860.5
2071.0;1974.2;;;;;;;;;;;;;;;;;0.24796289;-52.610096;-38.55251;;1869.9
2071.0;1974.2;;;;;;;;;;;;;;-0.6009705;-1.4519486;-0.2563555;;;;;1869.9
2071.0;1974.2;;;;;;;;;;;;;;;;;-1.8578143;-55.471203;-49.874874;;1869.9
2071.0;1974.2;;;;;;;;;;;;;;-0.5616627;-1.6179082;-0.2976165;;;;;1869.9
2073.0;1975.0;;;;;;;;;;;;;;;;;-15.182959;-54.77691;-80.60701;;1879.4
2073.0;1975.0;;;;;;;;;;;;;;-0.47480696;-1.6578875;-0.27442244;;;;;1879.4
2073.0;1975.0;;;;;;;;;;;;;;;;;-40.5858;-58.88165;-116.30604;;1879.4
2073.0;1975.0;;;;;;;;;;;;;;-0.3704947;-1.6090579;-0.4631489;;;;;1879.4
2073.0;1975.0;;;;;;;;;;;;;;;;;-36.118656;-49.76806;-124.09589;;1888.9
2073.0;1975.0;;;;;;;;;;;;;;-0.3878292;-1.6332285;-0.46473587;;;;;1888.9
2073.0;1975.0;;;;;;;;;;;;;;;;;-21.813105;-55.059204;-121.810814;;1888.9
2073.0;1975.0;;;;;;;;;;;;;;-0.3933836;-1.6377453;-0.4486831;;;;;1888.9
2073.0;1975.0;;;;;;;;;;;;;;;;;-24.777214;-54.250465;-124.29044;;1898.5
2073.0;1975.0;;;;;;;;;;;;;;-0.2821131;-1.7585375;-0.54701376;;;;;1898.5
2073.0;1975.0;;;;;;;;;;;;;;;;;-17.246773;-42.39021;-124.988556;;1898.5
2073.0;1975.0;;;;;;;;;;;;;;-0.16907254;-1.8833582;-0.5454268;;;;;1898.5
2073.0;1978.0;;;;;;;;;;17.319254;-124.881744;40.45991;;;;;;;;;
2073.0;1978.0;;;;;;;1.101474;-0.91348004;0.47639394;;;;;;;;;;;;
2073.0;1978.0;;;;;;;;;;17.967772;-124.87411;36.03473;;;;;;;;;
2073.0;1978.0;;;;;;;1.089938;-0.87618643;0.45735037;;;;;;;;;;;;
2073.0;1980.0;;;;0.14416124;0.74394614;-0.012329103;;;;;;;;;;;;;;;
2073.0;1980.0;;;;0.14698412;0.7542535;-0.012985231;;;;;;;;;;;;;;;
2073.0;1980.0;;;;0.14862062;0.7645837;-0.016323091;;;;;;;;;;;;;;;
2073.0;1980.0;;;;0.14944078;0.77785885;-0.023822788;;;;;;;;;;;;;;;
2073.0;1980.0;;;;0.14894487;0.7903367;-0.0371666;;;;;;;;;;;;;;;
2073.0;1984.2;258425;262143;10382;;;;;;;;;;;;;;;;;;
2074.0;1987.5;;;;;;;;;;18.711662;-124.72915;31.785027;;;;;;;;;
2074.0;1987.5;;;;;;;1.0920134;-0.8325449;0.4384289;;;;;;;;;;;;
2074.0;1987.5;;;;;;;;;;19.363995;-123.867;27.584917;;;;;;;;;
2074.0;1987.5;;;;;;;1.0928068;-0.786401;0.42200994;;;;;;;;;;;;
2074.0;1990.0;;;;0.1480179;0.8039018;-0.054683693;;;;;;;;;;;;;;;
2074.0;1990.0;;;;0.14775468;0.8185502;-0.07187653;;;;;;;;;;;;;;;
2074.0;1990.0;;;;0.1447983;0.83438504;-0.086486824;;;;;;;;;;;;;;;
2074.0;1990.0;;;;0.1377144;0.850319;-0.09925462;;;;;;;;;;;;;;;
2074.0;1990.0;;;;0.12911989;0.86444485;-0.11181642;;;;;;;;;;;;;;;
2074.0;1997.0;;;;;;;;;;19.718771;-121.26911;23.392437;;;;;;;;;
2074.0;1997.0;;;;;;;1.0951262;-0.7378155;0.410596;;;;;;;;;;;;
2074.0;1997.0;;;;;;;;;;19.901882;-117.56493;19.688253;;;;;;;;;
2074.0;1997.0;;;;;;;1.0950041;-0.69325846;0.402295;;;;;;;;;;;;
2074.0;1999.9;;;;0.11930849;0.8770906;-0.122425094;;;;;;;;;;;;;;;
2074.0;1999.9;;;;0.108547226;0.8896142;-0.13158418;;;;;;;;;;;;;;;
2074.0;1999.9;;;;0.09675218;0.90002453;-0.13911058;;;;;;;;;;;;;;;
2074.0;1999.9;;;;0.08347703;0.9098054;-0.14563371;;;;;;;;;;;;;;;
2074.0;1999.9;;;;0.07020951;0.9194528;-0.14998247;;;;;;;;;;;;;;;
2074.0;2004.4;258461;262143;10380;;;;;;;;;;;;;;;;;;
2074.0;2006.7;;;;;;;;;;19.840845;-113.62422;16.239662;;;;;;;;;
2074.0;2006.7;;;;;;;1.0993377;-0.64406264;0.39661855;;;;;;;;;;;;
2074.0;2006.7;;;;;;;;;;19.230476;-108.333084;12.810144;;;;;;;;;
2074.0;2006.7;;;;;;;1.0998261;-0.5982238;0.39613026;;;;;;;;;;;;
2076.0;2010.1;;;;0.05620957;0.9275819;-0.15130235;;;;;;;;;;;;;;;
2076.0;2010.1;;;;0.042350773;0.9350778;-0.1512871;;;;;;;;;;;;;;;
2076.0;2010.1;;;;0.028987888;0.94036496;-0.14904405;;;;;;;;;;;;;;;
2076.0;2010.1;;;;0.014125826;0.9454156;-0.14662935;;;;;;;;;;;;;;;
2076.0;2010.1;;;;6.866456E-5;0.9491998;-0.14248277;;;;;;;;;;;;;;;
2076.0;2010.4;;;;;;;;;;;;;6740;;;;;;;;
2076.0;2010.4;;;;;;;;;;;;;6272;;;;;;;;
2076.0;2010.4;;;;;;;;;;;;;5018;;;;;;;;
2076.0;2010.4;;;;;;;;;;;;;3786;;;;;;;;
2076.0;2010.4;;;;;;;;;;;;;2930;;;;;;;;
2076.0;2016.3;;;;;;;;;;18.410292;-101.68004;9.353924;;;;;;;;;
2076.0;2016.3;;;;;;;1.0955534;-0.5544603;0.3996704;;;;;;;;;;;;
2076.0;2016.3;;;;;;;;;;17.376476;-93.98175;6.0312204;;;;;;;;;
2076.0;2016.3;;;;;;;1.0887784;-0.51222265;0.40375987;;;;;;;;;;;;
2076.0;2020.2;;;;-0.014286043;0.9521829;-0.13574602;;;;;;;;;;;;;;;
2076.0;2020.2;;;;-0.026737217;0.9557153;-0.12750627;;;;;;;;;;;;;;;
2076.0;2020.2;;;;-0.03823853;0.9599916;-0.1179619;;;;;;;;;;;;;;;
2076.0;2020.2;;;;-0.04950715;0.9639398;-0.10796358;;;;;;;;;;;;;;;
2076.0;2020.2;;;;-0.059356697;0.96891034;-0.09651567;;;;;;;;;;;;;;;
2076.0;2024.6;258166;262143;10354;;;;;;;;;;;;;;;;;;
2076.0;2025.9;;;;;;;;;;16.109959;-86.02786;3.0823696;;;;;;;;;
2076.0;2025.9;;;;;;;1.0784631;-0.473159;0.4062624;;;;;;;;;;;;
2076.0;2025.9;;;;;;;;;;14.702292;-77.73446;0.16403699;;;;;;;;;
2076.0;2025.9;;;;;;;1.069979;-0.4375744;0.40351573;;;;;;;;;;;;
2077.0;2026.3;;;;;;;;;;;;;;;;;-16.556292;-28.607288;-124.988556;;1908.2
2077.0;2026.3;;;;;;;;;;;;;;-0.053529467;-1.8785363;-0.61293375;;;;;1908.2
2077.0;2026.3;;;;;;;;;;;;;;;;;-8.625294;-10.837886;-124.988556;;1908.2
2077.0;2026.3;;;;;;;;;;;;;;0.034974214;-1.9860225;-0.6098819;;;;;1908.2
2077.0;2026.3;;;;;;;;;;;;;;;;;12.57744;4.5739617;-124.381996;;1917.8
2077.0;2026.3;;;;;;;;;;;;;;0.18915372;-1.9217505;-0.74056214;;;;;1917.8
2077.0;2026.3;;;;;;;;;;;;;;;;;30.934324;22.923216;-106.13575;;1917.8
2077.0;2026.3;;;;;;;;;;;;;;0.30317086;-1.8972747;-0.76564837;;;;;1917.8
2077.0;2026.3;;;;;;;;;;;;;;;;;49.42473;31.937622;-68.6819;;1927.4
2077.0;2026.3;;;;;;;;;;;;;;0.268746;-1.7253945;-0.8421888;;;;;1927.4
2077.0;2026.3;;;;;;;;;;;;;;;;;62.639244;53.765984;-49.951168;;1927.4
2077.0;2026.3;;;;;;;;;;;;;;-0.05023347;-1.5600451;-0.8550066;;;;;1927.4
2077.0;2027.0;;;;;;;;;;;;;;;;;71.470535;74.99161;-58.0958;;1937.1
2077.0;2027.0;;;;;;;;;;;;;;-0.12213507;-1.507065;-0.9013947;;;;;1937.1
2077.0;2027.0;;;;;;;;;;;;;;;;;78.63475;84.89868;-65.954315;;1937.1
2077.0;2027.0;;;;;;;;;;;;;;-0.10852382;-1.4151433;-1.0356761;;;;;1937.1
2077.0;2027.0;;;;;;;;;;;;;;;;;84.06705;100.40208;-72.22968;;1946.8
2077.0;2027.0;;;;;;;;;;;;;;-0.16895047;-1.2734764;-1.0988494;;;;;1946.8
2077.0;2027.0;;;;;;;;;;;;;;;;;90.10971;113.09396;-76.28101;;1946.8
2077.0;2027.0;;;;;;;;;;;;;;-0.3482162;-1.0657674;-1.0444044;;;;;1946.8
2077.0;2027.0;;;;;;;;;;;;;;;;;97.12516;118.70937;-79.63042;;1956.4
2077.0;2027.0;;;;;;;;;;;;;;-0.5642262;-0.8430433;-0.9391766;;;;;1956.4
2077.0;2027.0;;;;;;;;;;;;;;;;;96.980194;121.90237;-87.27531;;1956.4
2077.0;2027.0;;;;;;;;;;;;;;-0.69954526;-0.73543507;-0.845851;;;;;1956.4
2078.0;2030.2;;;;-0.06994248;0.97545636;-0.08501435;;;;;;;;;;;;;;;
2078.0;2030.2;;;;-0.08230973;0.9818231;-0.072120674;;;;;;;;;;;;;;;
2078.0;2030.2;;;;-0.09604265;0.98736584;-0.05906678;;;;;;;;;;;;;;;
2078.0;2030.2;;;;-0.11058046;0.9932443;-0.04577637;;;;;;;;;;;;;;;
2078.0;2030.2;;;;-0.12365724;0.9976312;-0.03257752;;;;;;;;;;;;;;;
2078.0;2035.4;;;;;;;;;;12.99707;-69.0672;-2.45674;;;;;;;;;
2078.0;2035.4;;;;;;;1.0702231;-0.39875484;0.40223396;;;;;;;;;;;;
2078.0;2035.4;;;;;;;;;;11.127811;-61.368908;-5.11948;;;;;;;;;
2078.0;2035.4;;;;;;;1.063509;-0.3645741;0.4008301;;;;;;;;;;;;
2078.0;2040.2;;;;-0.13761903;1.001774;-0.01949692;;;;;;;;;;;;;;;
2078.0;2040.2;;;;-0.15118028;1.0078584;-0.0063591013;;;;;;;;;;;;;;;
2078.0;2040.2;;;;-0.1631241;1.0120698;0.006084443;;;;;;;;;;;;;;;
2078.0;2040.2;;;;-0.1777878;1.0196267;0.019721987;;;;;;;;;;;;;;;
2078.0;2040.2;;;;-0.19295886;1.0308343;0.0336113;;;;;;;;;;;;;;;
2078.0;2044.9;;;;;;;;;;9.6667385;-54.47554;-7.881405;;;;;;;;;
2078.0;2044.9;;;;;;;1.0540483;-0.32642597;0.39204076;;;;;;;;;;;;
2078.0;2044.9;;;;;;;;;;9.0983305;-47.776726;-10.937071;;;;;;;;;
2078.0;2044.9;;;;;;;1.0340892;-0.29779962;0.38019958;;;;;;;;;;;;
2078.0;2044.7;257535;262143;10313;;;;;;;;;;;;;;;;;;
2122.0;2050.2;;;;-0.20709994;1.0400277;0.045635227;;;;;;;;;;;;;;;
2122.0;2050.2;;;;-0.21808627;1.0482599;0.059036262;;;;;;;;;;;;;;;
2122.0;2050.2;;;;-0.23284915;1.059971;0.072551735;;;;;;;;;;;;;;;
2122.0;2050.2;;;;-0.24834445;1.0722123;0.08569718;;;;;;;;;;;;;;;
2122.0;2050.2;;;;-0.2546387;1.0771791;0.096282974;;;;;;;;;;;;;;;
2122.0;2050.6;;;;;;;;;;;;;2776;;;;;;;;
2122.0;2050.6;;;;;;;;;;;;;3874;;;;;;;;
2122.0;2050.6;;;;;;;;;;;;;5643;;;;;;;;
2122.0;2050.6;;;;;;;;;;;;;6209;;;;;;;;
2122.0;2050.6;;;;;;;;;;;;;4078;;;;;;;;
2122.0;2054.2;;;;;;;;;;8.930479;-41.928616;-14.366589;;;;;;;;;
2122.0;2054.2;;;;;;;1.0149236;-0.258858;0.3670156;;;;;;;;;;;;
2122.0;2054.2;;;;;;;;;;8.724479;-37.385174;-17.91055;;;;;;;;;
2122.0;2054.2;;;;;;;0.99502546;-0.2233955;0.35474715;;;;;;;;;;;;
2122.0;2059.7;;;;-0.26578525;1.0856401;0.11091234;;;;;;;;;;;;;;;
2122.0;2059.7;;;;-0.28011325;1.1008073;0.12345125;;;;;;;;;;;;;;;
2122.0;2059.7;;;;-0.29160693;1.114628;0.13183595;;;;;;;;;;;;;;;
2122.0;2059.7;;;;-0.29884723;1.1271173;0.14599611;;;;;;;;;;;;;;;
2122.0;2059.7;;;;-0.30488208;1.1384431;0.15880205;;;;;;;;;;;;;;;
2122.0;2063.5;;;;;;;;;;8.125553;-33.833584;-20.641956;;;;;;;;;
2122.0;2063.5;;;;;;;0.9894101;-0.18921477;0.3382061;;;;;;;;;;;;
2122.0;2063.5;;;;;;;;;;6.5080724;-32.147434;-23.65566;;;;;;;;;
2122.0;2063.5;;;;;;;0.98690754;-0.1358684;0.3202002;;;;;;;;;;;;
2122.0;2064.3;256489;262143;10258;;;;;;;;;;;;;;;;;;
2124.0;2069.8;;;;-0.30721286;1.1480523;0.17237474;;;;;;;;;;;;;;;
2124.0;2069.8;;;;-0.31605914;1.1612931;0.18693163;;;;;;;;;;;;;;;
2124.0;2069.8;;;;-0.323288;1.1731912;0.20215228;;;;;;;;;;;;;;;
2124.0;2069.8;;;;-0.33253863;1.1916353;0.213707;;;;;;;;;;;;;;;
2124.0;2069.8;;;;-0.3360367;1.2053758;0.22376636;;;;;;;;;;;;;;;
2124.0;2073.2;;;;;;;;;;4.1695914;-32.124546;-27.775658;;;;;;;;;
2124.0;2073.2;;;;;;;0.96694845;-0.07190161;0.29798272;;;;;;;;;;;;
2124.0;2073.2;;;;;;;;;;1.8578143;-30.873287;-31.250954;;;;;;;;;
2124.0;2073.2;;;;;;;0.9559007;-0.0237434;0.2715537;;;;;;;;;;;;
2124.0;2080.0;;;;-0.339798;1.2155839;0.23812106;;;;;;;;;;;;;;;
2124.0;2080.0;;;;-0.3478928;1.2281495;0.25244525;;;;;;;;;;;;;;;
2124.0;2080.0;;;;-0.35911945;1.2348748;0.26745227;;;;;;;;;;;;;;;
2124.0;2080.0;;;;-0.38034445;1.2589608;0.27635577;;;;;;;;;;;;;;;
2124.0;2080.0;;;;-0.39942175;1.2769281;0.29705432;;;;;;;;;;;;;;;
2124.0;2082.8;;;;;;;;;;-0.6981109;-28.378399;-34.43632;;;;;;;;;
2124.0;2082.8;;;;;;;0.9652394;0.020935697;0.25721;;;;;;;;;;;;
2124.0;2082.8;;;;;;;;;;-3.3379622;-26.467178;-38.472397;;;;;;;;;
2124.0;2082.8;;;;;;;0.97323525;0.081118196;0.24933623;;;;;;;;;;;;
2124.0;2084.6;255469;262143;10234;;;;;;;;;;;;;;;;;;
2127.0;2086.1;;;;;;;;;;;;;;;;;91.61656;119.76989;-98.20475;;1966.1
2127.0;2086.1;;;;;;;;;;;;;;-0.7710807;-0.7027192;-0.7862789;;;;;1966.1
2127.0;2086.1;;;;;;;;;;;;;;;;;81.102936;115.44008;-109.878075;;1966.1
2127.0;2086.1;;;;;;;;;;;;;;-0.7675405;-0.72963655;-0.8271126;;;;;1966.1
2127.0;2086.1;;;;;;;;;;;;;;;;;70.57405;118.83908;-117.77474;;1975.6
2127.0;2086.1;;;;;;;;;;;;;;-0.77205724;-0.78456986;-0.85909605;;;;;1975.6
2127.0;2086.1;;;;;;;;;;;;;;;;;67.060616;122.28385;-123.23756;;1975.6
2127.0;2086.1;;;;;;;;;;;;;;-0.82467115;-0.8072756;-0.8733787;;;;;1975.6
2127.0;2086.1;;;;;;;;;;;;;;;;;69.43342;123.39777;-124.85122;;1985.3
2127.0;2086.1;;;;;;;;;;;;;;-0.93325603;-0.8092288;-0.85549486;;;;;1985.3
2127.0;2086.1;;;;;;;;;;;;;;;;;74.96872;123.62285;-124.9733;;1985.3
2127.0;2086.1;;;;;;;;;;;;;;-1.076571;-0.84145635;-0.8124027;;;;;1985.3
2127.0;2087.3;;;;;;;;;;;;;;;;;88.32057;116.53493;-124.988556;;1994.9
2127.0;2087.3;;;;;;;;;;;;;;-1.1988281;-0.86214787;-0.7608875;;;;;1994.9
2127.0;2087.3;;;;;;;;;;;;;;;;;99.974815;100.84841;-124.988556;;1994.9
2127.0;2087.3;;;;;;;;;;;;;;-1.3140659;-0.8107547;-0.6630451;;;;;1994.9
2127.0;2087.3;;;;;;;;;;;;;;;;;96.94586;86.30253;-124.96948;;2004.6
2127.0;2087.3;;;;;;;;;;;;;;-1.4604328;-0.72359383;-0.6526078;;;;;2004.6
2127.0;2087.3;;;;;;;;;;;;;;;;;81.05716;77.17368;-123.98526;;2004.6
2127.0;2087.3;;;;;;;;;;;;;;-1.698294;-0.72457045;-0.5829035;;;;;2004.6
2127.0;2087.3;;;;;;;;;;;;;;;;;62.673576;48.5168;-124.13785;;2014.2
2127.0;2087.3;;;;;;;;;;;;;;-1.7394329;-0.5855892;-0.66872156;;;;;2014.2
2127.0;2087.3;;;;;;;;;;;;;;;;;59.94598;34.287544;-107.06657;;2014.2
2127.0;2087.3;;;;;;;;;;;;;;-1.8084658;-0.36646625;-0.5562914;;;;;2014.2
2128.0;2089.9;;;;-0.42390066;1.2914354;0.31003955;;;;;;;;;;;;;;;
2128.0;2089.9;;;;-0.46062857;1.32053;0.31976703;;;;;;;;;;;;;;;
2128.0;2089.9;;;;-0.48634344;1.3377458;0.3293877;;;;;;;;;;;;;;;
2128.0;2089.9;;;;-0.5097695;1.3435632;0.3474503;;;;;;;;;;;;;;;
2128.0;2089.9;;;;-0.5380402;1.3560601;0.35906985;;;;;;;;;;;;;;;
2128.0;2090.4;;;;;;;;;;;;;-1839;;;;;;;;
2128.0;2090.4;;;;;;;;;;;;;-10367;;;;;;;;
2128.0;2090.4;;;;;;;;;;;;;-16108;;;;;;;;
2128.0;2090.4;;;;;;;;;;;;;-13624;;;;;;;;
2128.0;2090.4;;;;;;;;;;;;;-4081;;;;;;;;
2128.0;2092.3;;;;;;;;;;-5.8671837;-24.182104;-41.77984;;;;;;;;;
2128.0;2092.3;;;;;;;0.98764;0.12140263;0.24030274;;;;;;;;;;;;
2128.0;2092.3;;;;;;;;;;-8.537553;-21.008179;-44.90417;;;;;;;;;
2128.0;2092.3;;;;;;;1.0146794;0.13812678;0.21576586;;;;;;;;;;;;
2128.0;2100.0;;;;-0.5623322;1.3747712;0.36614612;;;;;;;;;;;;;;;
2128.0;2100.0;;;;-0.58557135;1.393139;0.37530905;;;;;;;;;;;;;;;
2128.0;2100.0;;;;-0.60875326;1.4086229;0.3864327;;;;;;;;;;;;;;;
2128.0;2100.0;;;;-0.63309866;1.4249955;0.39510733;;;;;;;;;;;;;;;
2128.0;2100.0;;;;-0.6548653;1.4402658;0.4039498;;;;;;;;;;;;;;;
2129.0;2101.0;;;;;;;;;;;;;;;;;66.167946;28.56914;-71.65364;;2023.8
2129.0;2101.0;;;;;;;;;;;;;;-1.9345073;-0.19586779;-0.5070956;;;;;2023.8
2129.0;2101.0;;;;;;;;;;;;;;;;;36.69088;40.215763;-58.790096;;2023.8
2129.0;2101.0;;;;;;;;;;;;;;-1.9998169;-0.06457717;-0.6584063;;;;;2023.8
2129.0;2101.0;;;;;;;;;;;;;;;;;30.022583;66.35487;-35.1001;;2033.4
2129.0;2101.0;;;;;;;;;;;;;;-1.9998169;-0.027527696;-0.64803004;;;;;2033.4
2129.0;2101.0;;;;;;;;;;;;;;;;;46.422466;76.50609;-1.0109257;;2033.4
2129.0;2101.0;;;;;;;;;;;;;;-1.9998169;0.075441755;-0.3645741;;;;;2033.4
2129.0;2101.0;;;;;;;;;;;;;;;;;9.643849;71.80242;0.49211097;;2043.0
2129.0;2101.0;;;;;;;;;;;;;;-1.9998169;0.1462447;-0.33985412;;;;;2043.0
2129.0;2101.0;;;;;;;;;;;;;;;;;-16.18244;65.382095;-30.08362;;2043.0
2129.0;2101.0;;;;;;;;;;;;;;-1.9998169;0.09668264;-0.17236854;;;;;2043.0
2129.0;2101.6;;;;;;;;;;-11.37196;-16.464737;-49.100468;;;;;;;;;
2129.0;2101.6;;;;;;;1.0417799;0.14935759;0.19330424;;;;;;;;;;;;
2129.0;2101.6;;;;;;;;;;-14.397107;-10.265663;-52.869503;;;;;;;;;
2129.0;2101.6;;;;;;;1.0748008;0.16840114;0.17450483;;;;;;;;;;;;
2129.0;2104.4;255122;262143;10213;;;;;;;;;;;;;;;;;;
2129.0;2109.8;;;;-0.67783743;1.4520379;0.4174233;;;;;;;;;;;;;;;
2129.0;2109.8;;;;-0.6936341;1.4678384;0.42747122;;;;;;;;;;;;;;;
2129.0;2109.8;;;;-0.7115937;1.4842798;0.44237524;;;;;;;;;;;;;;;
2129.0;2109.8;;;;-0.7353249;1.4941636;0.45841604;;;;;;;;;;;;;;;
2129.0;2109.8;;;;-0.7905084;1.5100405;0.47884756;;;;;;;;;;;;;;;
2181.0;2111.2;;;;;;;;;;-17.860958;-2.7619252;-56.455425;;;;;;;;;
2181.0;2111.2;;;;;;;1.1077609;0.18860438;0.14557329;;;;;;;;;;;;
2181.0;2111.2;;;;;;;;;;-21.656698;5.386517;-60.613575;;;;;;;;;
2181.0;2111.2;;;;;;;1.1196021;0.1737724;0.12390515;;;;;;;;;;;;
2181.0;2119.5;;;;-0.8341218;1.549164;0.48437124;;;;;;;;;;;;;;;
2181.0;2119.5;;;;-0.8407556;1.5639765;0.48756415;;;;;;;;;;;;;;;
2181.0;2119.5;;;;-0.7887689;1.5618212;0.50051504;;;;;;;;;;;;;;;
2181.0;2119.5;;;;-0.730732;1.5717051;0.49937826;;;;;;;;;;;;;;;
2181.0;2119.5;;;;-0.7093697;1.5786784;0.49605185;;;;;;;;;;;;;;;
2181.0;2120.4;;;;;;;;;;-25.257881;13.496811;-65.19517;;;;;;;;;
2181.0;2120.4;;;;;;;1.1280862;0.15979491;0.09601123;;;;;;;;;;;;
2181.0;2120.4;;;;;;;;;;-28.828547;22.492142;-69.60509;;;;;;;;;
2181.0;2120.4;;;;;;;1.1287576;0.1690115;0.06805628;;;;;;;;;;;;
2181.0;2124.2;255221;262143;10222;;;;;;;;;;;;;;;;;;
2181.0;2129.6;;;;-0.70792395;1.5821497;0.487938;;;;;;;;;;;;;;;
2181.0;2129.6;;;;-0.6972428;1.6119196;0.4927941;;;;;;;;;;;;;;;
2181.0;2129.6;;;;-0.6940957;1.6387866;0.48165518;;;;;;;;;;;;;;;
2181.0;2129.6;;;;-0.65788275;1.667042;0.49366385;;;;;;;;;;;;;;;
2181.0;2129.6;;;;-0.6443482;1.6756785;0.5023766;;;;;;;;;;;;;;;
2181.0;2130.0;;;;;;;;;;-32.685326;32.330547;-73.343605;;;;;;;;;
2181.0;2130.0;;;;;;;1.1293069;0.19318217;0.042115543;;;;;;;;;;;;
2181.0;2130.0;;;;;;;;;;-36.702324;41.81036;-78.3906;;;;;;;;;
2181.0;2130.0;;;;;;;1.1047701;0.16138189;0.010132145;;;;;;;;;;;;
2183.0;2130.2;;;;;;;;;;;;;4634;;;;;;;;
2183.0;2130.2;;;;;;;;;;;;;6499;;;;;;;;
2183.0;2130.2;;;;;;;;;;;;;3238;;;;;;;;
2183.0;2130.2;;;;;;;;;;;;;-84;;;;;;;;
2183.0;2130.2;;;;;;;;;;;;;-1718;;;;;;;;
2183.0;2139.6;;;;;;;;;;-40.051727;51.03076;-85.00549;;;;;;;;;
2183.0;2139.6;;;;;;;1.073336;0.1474044;-0.007934812;;;;;;;;;;;;
2183.0;2139.6;;;;;;;;;;-44.015324;60.678425;-88.62956;;;;;;;;;
2183.0;2139.6;;;;;;;1.0743126;0.12988678;-0.023255104;;;;;;;;;;;;
2183.0;2139.7;;;;-0.62951666;1.7093508;0.50552374;;;;;;;;;;;;;;;
2183.0;2139.7;;;;-0.66057974;1.708214;0.49911505;;;;;;;;;;;;;;;
2183.0;2139.7;;;;-0.62253577;1.7295649;0.49940115;;;;;;;;;;;;;;;
2183.0;2139.7;;;;-0.6677857;1.6655161;0.50407034;;;;;;;;;;;;;;;
2183.0;2139.7;;;;-0.76182187;1.5846522;0.5009118;;;;;;;;;;;;;;;
2183.0;2144.5;255620;262143;10251;;;;;;;;;;;;;;;;;;
2185.0;2146.0;;;;;;;;;;;;;;;;;-21.40492;35.07721;-100.867485;;2052.7
2185.0;2146.0;;;;;;;;;;;;;;-1.9318827;0.53694266;-0.38740197;;;;;2052.7
2185.0;2146.0;;;;;;;;;;;;;;;;;-37.339397;63.989685;-121.46748;;2052.7
2185.0;2146.0;;;;;;;;;;;;;;-1.9998169;0.2840663;-0.4234138;;;;;2052.7
2185.0;2146.0;;;;;;;;;;;;;;;;;-6.44322;72.500534;-123.83648;;2062.3
2185.0;2146.0;;;;;;;;;;;;;;-1.9998169;0.042847987;0.027466659;;;;;2062.3
2185.0;2146.0;;;;;;;;;;;;;;;;;15.858181;16.49907;-124.988556;;2062.3
2185.0;2146.0;;;;;;;;;;;;;;-1.8904386;-0.0015259255;-0.02642903;;;;;2062.3
2185.0;2146.0;;;;;;;;;;;;;;;;;29.763178;1.0795922;-124.988556;;2071.9
2185.0;2146.0;;;;;;;;;;;;;;-1.6690573;-0.0017090365;-0.05426191;;;;;2071.9
2185.0;2146.0;;;;;;;;;;;;;;;;;41.276283;12.329478;-124.988556;;2071.9
2185.0;2146.0;;;;;;;;;;;;;;-1.5306864;-0.14020203;-0.11719108;;;;;2071.9
2185.0;2149.2;;;;;;;;;;-47.757652;68.64375;-92.028564;;;;;;;;;
2185.0;2149.2;;;;;;;1.0796227;0.11737419;-0.029358806;;;;;;;;;;;;
2185.0;2149.2;;;;;;;;;;-50.992615;76.036865;-96.76275;;;;;;;;;
2185.0;2149.2;;;;;;;1.0664388;0.09161656;-0.026795251;;;;;;;;;;;;
2185.0;2149.7;;;;-0.8400918;1.572098;0.5037499;;;;;;;;;;;;;;;
2185.0;2149.7;;;;-0.89157116;1.6036913;0.4946404;;;;;;;;;;;;;;;
2185.0;2149.7;;;;-0.8979684;1.585911;0.50611883;;;;;;;;;;;;;;;
2185.0;2149.7;;;;-0.89457715;1.5650485;0.5018845;;;;;;;;;;;;;;;
2185.0;2149.7;;;;-0.85074246;1.5745013;0.49150854;;;;;;;;;;;;;;;
2185.0;2158.8;;;;;;;;;;-54.296246;84.00983;-101.54271;;;;;;;;;
2185.0;2158.8;;;;;;;1.0583819;0.0568865;-0.021546068;;;;;;;;;;;;
2185.0;2158.8;;;;;;;;;;-57.775352;92.1659;-105.52919;;;;;;;;;
2185.0;2158.8;;;;;;;1.0633869;0.013122959;-0.01678518;;;;;;;;;;;;
2187.0;2159.8;;;;-0.79239666;1.5766184;0.4918862;;;;;;;;;;;;;;;
2187.0;2159.8;;;;-0.76303494;1.5758402;0.49254614;;;;;;;;;;;;;;;
2187.0;2159.8;;;;-0.76443493;1.568188;0.48555762;;;;;;;;;;;;;;;
2187.0;2159.8;;;;-0.7807847;1.566376;0.48099524;;;;;;;;;;;;;;;
2187.0;2159.8;;;;-0.78644574;1.5698969;0.47621924;;;;;;;;;;;;;;;
2187.0;2161.4;;;;;;;;;;;;;;;;;59.732353;19.898067;-124.988556;;2081.5
2187.0;2161.4;;;;;;;;;;;;;;-1.4758751;-0.24536882;-0.32361826;;;;;2081.5
2187.0;2161.4;;;;;;;;;;;;;;;;;80.389565;27.596361;-124.988556;;2081.5
2187.0;2161.4;;;;;;;;;;;;;;-1.5278786;-0.3665273;-0.48915067;;;;;2081.5
2187.0;2161.4;;;;;;;;;;;;;;;;;109.35164;18.280588;-124.988556;;2091.2
2187.0;2161.4;;;;;;;;;;;;;;-1.5978271;-0.4367809;-0.5022736;;;;;2091.2
2187.0;2161.4;;;;;;;;;;;;;;;;;124.58037;-8.945738;-124.988556;;2091.2
2187.0;2161.4;;;;;;;;;;;;;;-1.5621204;-0.33466598;-0.50807214;;;;;2091.2
2187.0;2161.4;;;;;;;;;;;;;;;;;122.18085;-22.446363;-124.988556;;2100.7
2187.0;2161.4;;;;;;;;;;;;;;-1.482406;-0.23798333;-0.5695975;;;;;2100.7
2187.0;2161.4;;;;;;;;;;;;;;;;;102.30567;-16.254921;-124.988556;;2100.7
2187.0;2161.4;;;;;;;;;;;;;;-1.3928038;-0.010010071;-0.6584063;;;;;2100.7
2187.0;2164.4;256027;262143;10279;;;;;;;;;;;;;;;;;;
2187.0;2168.2;;;;;;;;;;-60.796684;99.639114;-108.80994;;;;;;;;;
2187.0;2168.2;;;;;;;1.0702231;-0.046815395;-0.01391644;;;;;;;;;;;;
2187.0;2168.2;;;;;;;;;;-63.42128;107.17338;-111.278114;;;;;;;;;
2187.0;2168.2;;;;;;;1.0797448;-0.116641745;-0.012024293;;;;;;;;;;;;
2241.0;2169.6;;;;-0.776436;1.568474;0.47323996;;;;;;;;;;;;;;;
2241.0;2169.6;;;;-0.7745439;1.5642931;0.47063452;;;;;;;;;;;;;;;
2241.0;2169.6;;;;-0.7688066;1.5814135;0.48003393;;;;;;;;;;;;;;;
2241.0;2169.6;;;;-0.76300824;1.6166079;0.48911673;;;;;;;;;;;;;;;
2241.0;2169.6;;;;-0.63537985;1.6252635;0.49312598;;;;;;;;;;;;;;;
2241.0;2170.3;;;;;;;;;;;;;-3236;;;;;;;;
2241.0;2170.3;;;;;;;;;;;;;-5005;;;;;;;;
2241.0;2170.3;;;;;;;;;;;;;-6114;;;;;;;;
2241.0;2170.3;;;;;;;;;;;;;-6620;;;;;;;;
2241.0;2170.3;;;;;;;;;;;;;-6982;;;;;;;;
2241.0;2177.4;;;;;;;;;;-65.42024;114.72671;-113.26182;;;;;;;;;
2241.0;2177.4;;;;;;;1.0982391;-0.18378246;-0.016296884;;;;;;;;;;;;
2241.0;2177.4;;;;;;;;;;-67.01483;122.21137;-114.22315;;;;;;;;;
2241.0;2177.4;;;;;;;1.1163671;-0.2540971;-0.021423994;;;;;;;;;;;;
2241.0;2179.4;;;;-0.45362097;1.539696;0.49750906;;;;;;;;;;;;;;;
2241.0;2179.4;;;;-0.603798;1.5515177;0.43954474;;;;;;;;;;;;;;;
2241.0;2179.4;;;;-0.9238702;1.5170176;0.38346487;;;;;;;;;;;;;;;
2241.0;2179.4;;;;-1.087452;1.5206149;0.37110904;;;;;;;;;;;;;;;
2241.0;2179.4;;;;-1.178219;1.5574152;0.40886313;;;;;;;;;;;;;;;
2241.0;2184.3;256508;262143;10289;;;;;;;;;;;;;;;;;;
2241.0;2187.0;;;;;;;;;;-68.056274;124.84359;-115.09674;;;;;;;;;
2241.0;2187.0;;;;;;;1.1441389;-0.31946775;-0.019409772;;;;;;;;;;;;
2241.0;2187.0;;;;;;;;;;-68.59798;124.881744;-115.649895;;;;;;;;;
2241.0;2187.0;;;;;;;1.1697744;-0.3850215;-0.016235847;;;;;;;;;;;;
2248.0;2189.5;;;;-1.0737458;1.6025546;0.42563254;;;;;;;;;;;;;;;
2248.0;2189.5;;;;-0.9286767;1.5946124;0.45320898;;;;;;;;;;;;;;;
2248.0;2189.5;;;;-0.82021725;1.5740435;0.45325476;;;;;;;;;;;;;;;
2248.0;2189.5;;;;-0.7411309;1.5467379;0.45536047;;;;;;;;;;;;;;;
2248.0;2189.5;;;;-0.72656256;1.5092089;0.46459967;;;;;;;;;;;;;;;
2248.0;2196.7;;;;;;;;;;-68.777275;124.881744;-116.229744;;;;;;;;;
2248.0;2196.7;;;;;;;1.1910154;-0.4506363;-0.0019531846;;;;;;;;;;;;
2248.0;2196.7;;;;;;;;;;-68.41105;124.881744;-116.98889;;;;;;;;;
2248.0;2196.7;;;;;;;1.2055422;-0.52375865;0.020630512;;;;;;;;;;;;
2248.0;2199.6;;;;-0.7611543;1.4731904;0.47206122;;;;;;;;;;;;;;;
2248.0;2199.6;;;;-0.81182873;1.4311448;0.4728356;;;;;;;;;;;;;;;
2248.0;2199.6;;;;-0.84064114;1.38723;0.4783135;;;;;;;;;;;;;;;
2248.0;2199.6;;;;-0.8423921;1.3580133;0.47953802;;;;;;;;;;;;;;;
2248.0;2199.6;;;;-0.84238064;1.3420526;0.4796067;;;;;;;;;;;;;;;
2248.0;2204.6;257240;262143;10324;;;;;;;;;;;;;;;;;;
2249.0;2206.3;;;;;;;;;;;;;;;;;76.12461;10.502182;-124.988556;;2110.4
2249.0;2206.3;;;;;;;;;;;;;;-1.3621022;0.119754635;-0.67989135;;;;;2110.4
2249.0;2206.3;;;;;;;;;;;;;;;;;58.835873;42.91284;-124.988556;;2110.4
2249.0;2206.3;;;;;;;;;;;;;;-1.4191717;0.21442305;-0.620014;;;;;2110.4
2249.0;2206.3;;;;;;;;;;;;;;;;;44.38917;68.491165;-124.988556;;2120.0
2249.0;2206.3;;;;;;;;;;;;;;-1.4914396;0.2351146;-0.5117954;;;;;2120.0
2249.0;2206.3;;;;;;;;;;;;;;;;;29.339733;78.352455;-124.97711;;2120.0
2249.0;2206.3;;;;;;;;;;;;;;-1.4949187;0.2120426;-0.42091128;;;;;2120.0
2249.0;2206.3;;;;;;;;;;;;;;;;;12.081515;81.61412;-124.59944;;2129.6
2249.0;2206.3;;;;;;;;;;;;;;-1.4155705;0.22589801;-0.33832818;;;;;2129.6
2249.0;2206.3;;;;;;;;;;;;;;;;;-19.53566;89.377266;-122.837;;2129.6
2249.0;2206.3;;;;;;;;;;;;;;-1.2899563;0.22199164;-0.3671987;;;;;2129.6
2249.0;2206.2;;;;;;;;;;-67.57943;124.881744;-118.11808;;;;;;;;;
2249.0;2206.2;;;;;;;1.2096927;-0.59114355;0.0397351;;;;;;;;;;;;
2249.0;2206.2;;;;;;;;;;-66.58376;124.881744;-119.27397;;;;;;;;;
2249.0;2206.2;;;;;;;1.1994385;-0.65779597;0.056703392;;;;;;;;;;;;
2249.0;2209.5;;;;-0.85896313;1.3269235;0.47422796;;;;;;;;;;;;;;;
2249.0;2209.5;;;;-0.9046594;1.3269235;0.47458273;;;;;;;;;;;;;;;
2249.0;2209.5;;;;-0.93836606;1.3258439;0.47616583;;;;;;;;;;;;;;;
2249.0;2209.5;;;;-0.9801065;1.2991487;0.46903616;;;;;;;;;;;;;;;
2249.0;2209.5;;;;-1.0247155;1.2551194;0.4813462;;;;;;;;;;;;;;;
2249.0;2210.3;;;;;;;;;;;;;-7245;;;;;;;;
2249.0;2210.3;;;;;;;;;;;;;-7424;;;;;;;;
2249.0;2210.3;;;;;;;;;;;;;-7883;;;;;;;;
2249.0;2210.3;;;;;;;;;;;;;-8572;;;;;;;;
2249.0;2210.3;;;;;;;;;;;;;-8741;;;;;;;;
2251.0;2215.7;;;;;;;;;;-65.30579;124.881744;-120.30396;;;;;;;;;
2251.0;2215.7;;;;;;;1.1742302;-0.71913815;0.07000946;;;;;;;;;;;;
2251.0;2215.7;;;;;;;;;;-63.56624;124.881744;-121.34922;;;;;;;;;
2251.0;2215.7;;;;;;;1.1403546;-0.77584153;0.08172857;;;;;;;;;;;;
2251.0;2219.6;;;;-1.0108682;1.2771951;0.50160986;;;;;;;;;;;;;;;
2251.0;2219.6;;;;-0.9893228;1.317917;0.49851996;;;;;;;;;;;;;;;
2251.0;2219.6;;;;-0.96634686;1.3439866;0.48437506;;;;;;;;;;;;;;;
2251.0;2219.6;;;;-0.9604684;1.3350946;0.48993307;;;;;;;;;;;;;;;
2251.0;2219.6;;;;-0.9613;1.3150979;0.4985314;;;;;;;;;;;;;;;
2251.0;2220.9;;;;;;;;;;;;;;;;;-56.920834;106.72323;-118.05323;;2139.2
2251.0;2220.9;;;;;;;;;;;;;;-1.2331309;0.17554247;-0.4159673;;;;;2139.2
2251.0;2220.9;;;;;;;;;;;;;;;;;-80.42008;118.842896;-111.278114;;2139.2
2251.0;2220.9;;;;;;;;;;;;;;-1.2336192;0.11139256;-0.44575334;;;;;2139.2
2251.0;2220.9;;;;;;;;;;;;;;;;;-86.2949;123.317665;-104.5793;;2148.9
2251.0;2220.9;;;;;;;;;;;;;;-1.238258;0.037781917;-0.42603838;;;;;2148.9
2251.0;2220.9;;;;;;;;;;;;;;;;;-80.88549;119.55245;-98.58242;;2148.9
2251.0;2220.9;;;;;;;;;;;;;;-1.1960814;0.029236732;-0.41199988;;;;;2148.9
2251.0;2220.9;;;;;;;;;;;;;;;;;-70.93646;112.43782;-91.04816;;2158.6
2251.0;2220.9;;;;;;;;;;;;;;-1.1561632;-0.028199103;-0.4297006;;;;;2158.6
2251.0;2220.9;;;;;;;;;;;;;;;;;-56.825466;107.02841;-84.318825;;2158.6
2251.0;2220.9;;;;;;;;;;;;;;-1.1311991;-0.032532733;-0.4250618;;;;;2158.6
2251.0;2224.4;257721;262143;10330;;;;;;;;;;;;;;;;;;
2300.0;2225.1;;;;;;;;;;-61.731316;124.881744;-122.47841;;;;;;;;;
2300.0;2225.1;;;;;;;1.1086764;-0.83175147;0.09228797;;;;;;;;;;;;
2300.0;2225.1;;;;;;;;;;-60.15961;124.881744;-123.43211;;;;;;;;;
2300.0;2225.1;;;;;;;1.0896329;-0.8935209;0.10065004;;;;;;;;;;;;
2300.0;2229.5;;;;-0.9739572;1.2890702;0.50248724;;;;;;;;;;;;;;;
2300.0;2229.5;;;;-0.98814404;1.2704889;0.5021401;;;;;;;;;;;;;;;
2300.0;2229.5;;;;-1.005623;1.2519494;0.50523;;;;;;;;;;;;;;;
2300.0;2229.5;;;;-1.01997;1.2315065;0.5031014;;;;;;;;;;;;;;;
2300.0;2229.5;;;;-1.0301095;1.218052;0.5012093;;;;;;;;;;;;;;;
2300.0;2234.4;;;;;;;;;;-58.58791;124.881744;-124.33622;;;;;;;;;
2300.0;2234.4;;;;;;;1.0675985;-0.95126194;0.10998871;;;;;;;;;;;;
2300.0;2234.4;;;;;;;;;;-56.54698;124.881744;-124.80163;;;;;;;;;
2300.0;2234.4;;;;;;;1.0393994;-1.0072939;0.10669271;;;;;;;;;;;;
2300.0;2239.2;;;;-1.0290147;1.2170678;0.49938208;;;;;;;;;;;;;;;
2300.0;2239.2;;;;-1.0238725;1.2056657;0.49240118;;;;;;;;;;;;;;;
2300.0;2239.2;;;;-1.0222093;1.1900712;0.4893723;;;;;;;;;;;;;;;
2300.0;2239.2;;;;-1.0164529;1.177559;0.4846459;;;;;;;;;;;;;;;
2300.0;2239.2;;;;-0.9990617;1.1719018;0.4776116;;;;;;;;;;;;;;;
2300.0;2244.0;;;;;;;;;;-54.73876;124.881744;-124.87029;;;;;;;;;
2300.0;2244.0;;;;;;;1.0148015;-1.0550249;0.104373306;;;;;;;;;;;;
2300.0;2244.0;;;;;;;;;;-53.289135;124.881744;-124.881744;;;;;;;;;
2300.0;2244.0;;;;;;;0.98934907;-1.0911587;0.10577715;;;;;;;;;;;;
2300.0;2244.3;258012;262143;10333;;;;;;;;;;;;;;;;;;
2302.0;2249.4;;;;-0.984398;1.1604959;0.47518927;;;;;;;;;;;;;;;
2302.0;2249.4;;;;-0.97927487;1.1431237;0.473095;;;;;;;;;;;;;;;
2302.0;2249.4;;;;-0.9759599;1.1236154;0.4658242;;;;;;;;;;;;;;;
2302.0;2249.4;;;;-0.97296154;1.1096193;0.45847708;;;;;;;;;;;;;;;
2302.0;2249.4;;;;-0.9651109;1.0904428;0.44515616;;;;;;;;;;;;;;;
2302.0;2250.2;;;;;;;;;;;;;-7955;;;;;;;;
2302.0;2250.2;;;;;;;;;;;;;-6320;;;;;;;;
2302.0;2250.2;;;;;;;;;;;;;-4132;;;;;;;;
2302.0;2250.2;;;;;;;;;;;;;-1865;;;;;;;;
2302.0;2250.2;;;;;;;;;;;;;-47;;;;;;;;
2302.0;2253.6;;;;;;;;;;-52.484207;124.881744;-124.881744;;;;;;;;;
2302.0;2253.6;;;;;;;0.97091585;-1.1053804;0.11047701;;;;;;;;;;;;
2302.0;2253.6;;;;;;;;;;-51.984467;124.881744;-124.881744;;;;;;;;;
2302.0;2253.6;;;;;;;0.96511734;-1.1108127;0.11365093;;;;;;;;;;;;
2302.0;2259.5;;;;-0.9524385;1.0687677;0.42911536;;;;;;;;;;;;;;;
2302.0;2259.5;;;;-0.941681;1.0523301;0.415474;;;;;;;;;;;;;;;
2302.0;2259.5;;;;-0.9305917;1.031109;0.403637;;;;;;;;;;;;;;;
2302.0;2259.5;;;;-0.92079556;1.0197221;0.39472204;;;;;;;;;;;;;;;
2302.0;2259.5;;;;-0.91425335;1.0013505;0.3836289;;;;;;;;;;;;;;;
2302.0;2263.2;;;;;;;;;;-51.564835;124.881744;-124.881744;;;;;;;;;
2302.0;2263.2;;;;;;;0.96407974;-1.124546;0.11841182;;;;;;;;;;;;
2302.0;2263.2;;;;;;;;;;-51.21769;124.881744;-124.881744;;;;;;;;;
2302.0;2263.2;;;;;;;0.96298105;-1.126194;0.12140263;;;;;;;;;;;;
2302.0;2264.5;257932;262143;10319;;;;;;;;;;;;;;;;;;
2304.0;2265.9;;;;;;;;;;;;;;;;;-41.905727;99.059265;-78.737755;;2168.1
2304.0;2265.9;;;;;;;;;;;;;;-1.1297952;-0.088137455;-0.3968627;;;;;2168.1
2304.0;2265.9;;;;;;;;;;;;;;;;;-29.343548;87.469864;-74.37361;;2168.1
2304.0;2265.9;;;;;;;;;;;;;;-1.0695517;0.01965392;-0.37183753;;;;;2168.1
2304.0;2265.9;;;;;;;;;;;;;;;;;-15.869625;75.28916;-63.62728;;2177.6
2304.0;2265.9;;;;;;;;;;;;;;-0.9592578;0.05780206;-0.37110507;;;;;2177.6
2304.0;2265.9;;;;;;;;;;;;;;;;;-7.3664055;76.96005;-52.964874;;2177.6
2304.0;2265.9;;;;;;;;;;;;;;-0.93905455;0.15381329;-0.3315531;;;;;2177.6
2304.0;2265.9;;;;;;;;;;;;;;;;;5.882443;77.83365;-43.542286;;2187.3
2304.0;2265.9;;;;;;;;;;;;;;-0.9635914;0.17712943;-0.21637623;;;;;2187.3
2304.0;2265.9;;;;;;;;;;;;;;;;;25.509659;69.948425;-35.412914;;2187.3
2304.0;2265.9;;;;;;;;;;;;;;-0.9479659;0.16425061;-0.12927641;;;;;2187.3
2304.0;2269.5;;;;-0.9118234;0.97963345;0.37405398;;;;;;;;;;;;;;;
2304.0;2269.5;;;;-0.9174768;0.95832455;0.36639026;;;;;;;;;;;;;;;
2304.0;2269.5;;;;-0.92419064;0.9400445;0.3595238;;;;;;;;;;;;;;;
2304.0;2269.5;;;;-0.9288713;0.9232408;0.35390857;;;;;;;;;;;;;;;
2304.0;2269.5;;;;-0.93655026;0.907982;0.3482056;;;;;;;;;;;;;;;
