patientId;holterMac;flexMac;;;;;;;;;;;;;;;;;;;;
;CA:F3:0B:1E:33:78;D3:4A:5C:52:80:78;;;;;;;;;;;;;;;;;;;;
receivedTimeStamp;timeStamp;red;ir;green;adxl_accX;adxl_accY;adxl_accZ;lsm_accelX;lsm_accelY;lsm_accelZ;lsm_gyroX;lsm_gyroY;lsm_gyroZ;ecg;flex_lsm_accelX;flex_lsm_accelY;flex_lsm_accelZ;flex_lsm_gyroX;flex_lsm_gyroY;flex_lsm_gyroZ;flex_cmd;flexTimeStamp
251.0;212.6;;;;;;;;;;;;;;;;;;;;17;0.1
251.0;212.6;;;;;;;;;;;;;;;;;13.618885;0.37385175;1.2550737;;127.6
251.0;212.6;;;;;;;;;;;;;;-0.9206824;-0.23926511;-0.38642538;;;;;127.6
251.0;212.6;;;;;;;;;;;;;;;;;-5.771813;-18.261513;-7.4465165;;127.6
251.0;212.6;;;;;;;;;;;;;;-0.95864743;-0.24976349;-0.41145054;;;;;127.6
251.0;212.6;;;;;;;;;;;;;;;;;-64.07361;-84.910126;-60.06424;;137.2
251.0;212.6;;;;;;;;;;;;;;-0.95919675;-0.2531205;-0.41590625;;;;;137.2
251.0;212.6;;;;;;;;;;;;;;;;;-122.27622;-124.988556;-119.15189;;137.2
251.0;212.6;;;;;;;;;;;;;;-0.98208565;-0.25214392;-0.40937528;;;;;137.2
313.0;213.4;;;;;;;;;;;;;;;;;-58.091984;-124.88556;-72.492905;;146.7
313.0;213.4;;;;;;;;;;;;;;-0.9983825;-0.2609943;-0.40058595;;;;;146.7
313.0;213.4;;;;;;;;;;;;;;;;;7.889035;-124.988556;-17.42607;;146.7
313.0;213.4;;;;;;;;;;;;;;-1.0141912;-0.2696005;-0.3958861;;;;;146.7
313.0;213.4;;;;;;;;;;;;;;;;;1.8158513;-100.09308;-7.0917387;;156.4
313.0;213.4;;;;;;;;;;;;;;-1.0265816;-0.25916317;-0.38593706;;;;;156.4
313.0;213.4;;;;;;;;;;;;;;;;;-7.797479;-16.6097;17.410809;;156.4
313.0;213.4;;;;;;;;;;;;;;-1.0395825;-0.2519608;-0.3700064;;;;;156.4
313.0;213.4;;;;;;;;;;;;;;;;;-11.257515;-9.910886;18.177588;;166.0
313.0;213.4;;;;;;;;;;;;;;-1.0620441;-0.27234718;-0.36255988;;;;;166.0
313.0;213.4;;;;;;;;;;;;;;;;;-14.030885;-11.013368;16.9187;;166.0
313.0;213.4;;;;;;;;;;;;;;-1.0685751;-0.2764977;-0.3449202;;;;;166.0
313.0;273.1;;;;;;;;;;;;;;;;;-17.323069;-12.245552;15.7284775;;175.7
313.0;273.1;;;;;;;;;;;;;;-1.0799279;-0.30249947;-0.33936584;;;;;175.7
313.0;273.1;;;;;;;;;;;;;;;;;-20.630512;-13.733329;13.9317;;175.7
313.0;273.1;;;;;;;;;;;;;;-1.0878627;-0.32007813;-0.33314005;;;;;175.7
313.0;273.1;;;;;;;;;;;;;;;;;-24.300364;-15.999329;11.677145;;185.3
313.0;273.1;;;;;;;;;;;;;;-1.0835291;-0.34223455;-0.3333842;;;;;185.3
313.0;273.1;;;;;;;;;;;;;;;;;-28.374584;-18.189032;9.441664;;185.3
313.0;273.1;;;;;;;;;;;;;;-1.0809656;-0.3969848;-0.3424177;;;;;185.3
313.0;273.1;;;;;;;;;;;;;;;;;-32.02536;-21.355328;6.309702;;194.9
313.0;273.1;;;;;;;;;;;;;;-1.0573443;-0.45258948;-0.31897947;;;;;194.9
313.0;273.1;;;;;;;;;;;;;;;;;-33.845028;-23.529772;4.0246286;;194.9
313.0;273.1;;;;;;;;;;;;;;-1.0415357;-0.5159459;-0.2883999;;;;;194.9
373.0;274.3;;;;;;;;;;;;;;;;;-34.203617;-24.903103;1.2016664;;204.5
373.0;274.3;;;;;;;;;;;;;;-1.0418409;-0.58082825;-0.28827783;;;;;204.5
373.0;274.3;;;;;;;;;;;;;;;;;-32.79977;-26.093327;-2.254555;;204.5
373.0;274.3;;;;;;;;;;;;;;-1.048738;-0.63954586;-0.30622274;;;;;204.5
373.0;274.3;;;;;;;;;;;;;;;;;-30.018768;-27.60399;-6.145665;;214.2
373.0;274.3;;;;;;;;;;;;;;-1.0490433;-0.6980193;-0.3299051;;;;;214.2
373.0;274.3;;;;;;;;;;;;;;;;;-26.23066;-28.202917;-10.54033;;214.2
373.0;274.3;;;;;;;;;;;;;;-1.0590533;-0.746971;-0.34467605;;;;;214.2
373.0;274.3;;;;;;;;;;;;;;;;;-22.480696;-28.36314;-15.633106;;223.9
373.0;274.3;;;;;;;;;;;;;;-1.0737022;-0.77388835;-0.34253976;;;;;223.9
373.0;274.3;;;;;;;;;;;;;;;;;-18.642994;-28.55388;-21.034883;;223.9
373.0;274.3;;;;;;;;;;;;;;-1.081637;-0.7776116;-0.33558154;;;;;223.9
373.0;333.6;;;;;;;;;;;;;;;;;-14.595477;-29.862362;-27.3484;;233.5
373.0;333.6;;;;;;;;;;;;;;-1.0725425;-0.745262;-0.3035371;;;;;233.5
373.0;333.6;;;;;;;;;;;;;;;;;-11.867886;-31.361584;-34.382915;;233.5
373.0;333.6;;;;;;;;;;;;;;-1.0492264;-0.7129124;-0.23102511;;;;;233.5
373.0;333.6;;;;;;;;;;;;;;;;;-10.7806635;-32.929474;-41.55858;;243.1
373.0;333.6;;;;;;;;;;;;;;-1.0265816;-0.69502854;-0.13910337;;;;;243.1
373.0;333.6;;;;;;;;;;;;;;;;;-10.101626;-35.752434;-49.100468;;243.1
373.0;333.6;;;;;;;;;;;;;;-1.0260323;-0.6927702;-0.071108125;;;;;243.1
373.0;333.6;;;;;;;;;;;;;;;;;-8.735923;-41.104618;-56.8865;;252.6
373.0;333.6;;;;;;;;;;;;;;-1.0246894;-0.6720176;-0.034730066;;;;;252.6
373.0;333.6;;;;;;;;;;;;;;;;;-6.572924;-48.131504;-64.062164;;252.6
373.0;333.6;;;;;;;;;;;;;;-1.0164495;-0.6253853;-0.019775994;;;;;252.6
435.0;334.3;;;;;;;;;;;;;;;;;-4.139073;-55.188908;-70.53209;;262.2
435.0;334.3;;;;;;;;;;;;;;-0.99954224;-0.57057405;-0.0051271096;;;;;262.2
435.0;334.3;;;;;;;;;;;;;;;;;-1.8578143;-61.6245;-76.487015;;262.2
435.0;334.3;;;;;;;;;;;;;;-0.97976625;-0.53205967;0.015442366;;;;;262.2
435.0;334.3;;;;;;;;;;;;;;;;;0.88122195;-66.618095;-81.846825;;271.7
435.0;334.3;;;;;;;;;;;;;;-0.9548021;-0.50086975;0.047364727;;;;;271.7
435.0;334.3;;;;;;;;;;;;;;;;;4.341258;-70.863976;-87.05024;;271.7
435.0;334.3;;;;;;;;;;;;;;-0.9533982;-0.48609883;0.043397322;;;;;271.7
435.0;334.3;;;;;;;;;;;;;;;;;10.059664;-75.0679;-91.9599;;281.4
435.0;334.3;;;;;;;;;;;;;;-0.94204533;-0.46052432;0.019470809;;;;;281.4
435.0;334.3;;;;;;;;;;;;;;;;;15.636921;-78.360085;-96.71316;;281.4
435.0;334.3;;;;;;;;;;;;;;-0.92605364;-0.39228493;0.007934812;;;;;281.4
435.0;394.0;;;;;;;;;;;;;;;;;18.902403;-79.83642;-102.12256;;291.1
435.0;394.0;;;;;;;;;;;;;;-0.9490036;-0.29554126;-0.018372143;;;;;291.1
435.0;394.0;;;;;;;;;;;;;;;;;20.512253;-81.0152;-107.825714;;291.1
435.0;394.0;;;;;;;;;;;;;;-0.9906308;-0.18372142;-0.036133915;;;;;291.1
435.0;394.0;;;;;;;;;;;;;;;;;19.493698;-80.87786;-112.92612;;300.7
435.0;394.0;;;;;;;;;;;;;;-1.04709;-0.0761742;-0.014770959;;;;;300.7
435.0;394.0;;;;;;;;;;;;;;;;;15.148624;-79.710526;-118.45378;;300.7
435.0;394.0;;;;;;;;;;;;;;-1.1236305;-0.0050660726;0.02313303;;;;;300.7
435.0;394.0;;;;;;;;;;;;;;;;;8.2819605;-77.97098;-123.51222;;310.4
435.0;394.0;;;;;;;;;;;;;;-1.2162846;0.04992828;0.052491836;;;;;310.4
435.0;394.0;;;;;;;;;;;;;;;;;-0.43870357;-75.58291;-124.98474;;310.4
435.0;394.0;;;;;;;;;;;;;;-1.3067416;0.11615345;0.037171546;;;;;310.4
496.0;395.2;;;;;;;;;;;;;;;;;-10.074923;-69.50972;-124.988556;;320.0
496.0;395.2;;;;;;;;;;;;;;-1.4496292;0.17749566;-0.0568865;;;;;320.0
496.0;395.2;;;;;;;;;;;;;;;;;-19.966734;-63.62728;-124.988556;;320.0
496.0;395.2;;;;;;;;;;;;;;-1.5738395;0.27491075;-0.17249061;;;;;320.0
496.0;395.2;;;;;;;;;;;;;;;;;-29.404585;-55.917538;-124.988556;;329.6
496.0;395.2;;;;;;;;;;;;;;-1.7055575;0.39063692;-0.27430037;;;;;329.6
496.0;395.2;;;;;;;;;;;;;;;;;-38.056583;-47.853024;-124.988556;;329.6
496.0;395.2;;;;;;;;;;;;;;-1.8397168;0.49885556;-0.32459486;;;;;329.6
496.0;395.2;;;;;;;;;;;;;;;;;-47.23884;-44.05347;-123.72585;;339.2
496.0;395.2;;;;;;;;;;;;;;-1.9502548;0.64656514;-0.30500197;;;;;339.2
496.0;395.2;;;;;;;;;;;;;;;;;-61.929684;-43.115025;-118.629265;;339.2
496.0;395.2;;;;;;;;;;;;;;-1.9998169;0.74764246;-0.27784052;;;;;339.2
496.0;462.0;;;;;;;;;;;;;;;;;-79.78301;-48.196358;-114.96704;;348.9
496.0;462.0;;;;;;;;;;;;;;-1.9998169;0.73043;-0.2553789;;;;;348.9
496.0;462.0;;;;;;;;;;;;;;;;;-98.91049;-56.62328;-112.83837;;348.9
496.0;462.0;;;;;;;;;;;;;;-1.9992065;0.6229438;-0.20954008;;;;;348.9
496.0;462.0;;;;;;;;;;;;;;;;;-115.93982;-64.226204;-112.28904;;358.5
496.0;462.0;;;;;;;;;;;;;;-1.8897061;0.46113467;-0.17481002;;;;;358.5
496.0;462.0;;;;;;;;;;;;;;;;;-124.19126;-68.3462;-114.05148;;358.5
496.0;462.0;;;;;;;;;;;;;;-1.66863;0.30097353;-0.15588854;;;;;358.5
496.0;462.0;;;;;;;;;;;;;;;;;-124.988556;-66.690575;-115.836815;;368.2
496.0;462.0;;;;;;;;;;;;;;-1.4684896;0.15747552;-0.12683493;;;;;368.2
496.0;462.0;;;;;;;;;;;;;;;;;-124.96948;-59.09528;-117.37419;;368.2
496.0;462.0;;;;;;;;;;;;;;-1.3249916;0.047059543;-0.073549606;;;;;368.2
554.0;462.8;;;;;;;;;;;;;;;;;-124.38581;-49.23017;-118.778046;;377.9
554.0;462.8;;;;;;;;;;;;;;-1.2389904;-0.026490066;-0.03814814;;;;;377.9
554.0;462.8;;;;;;;;;;;;;;;;;-121.967224;-40.143284;-119.60586;;377.9
554.0;462.8;;;;;;;;;;;;;;-1.19718;-0.11548204;-0.01678518;;;;;377.9
554.0;462.8;;;;;;;;;;;;;;;;;-118.45378;-32.387768;-118.78949;;387.5
554.0;462.8;;;;;;;;;;;;;;-1.1846064;-0.14825892;-0.015991699;;;;;387.5
554.0;462.8;;;;;;;;;;;;;;;;;-114.78011;-26.982178;-117.30933;;387.5
554.0;462.8;;;;;;;;;;;;;;-1.1830806;-0.12427137;-0.025025178;;;;;387.5
554.0;462.8;;;;;;;;;;;;;;;;;-111.278114;-23.556475;-116.214485;;397.1
554.0;462.8;;;;;;;;;;;;;;-1.1568956;-0.091921754;-0.01556444;;;;;397.1
554.0;462.8;;;;;;;;;;;;;;;;;-107.89438;-21.176031;-114.58937;;397.1
554.0;462.8;;;;;;;;;;;;;;-1.1016572;-0.051698357;-0.02148503;;;;;397.1
554.0;514.7;;;;;;;;;;;;;;;;;-104.224525;-17.563402;-112.80785;;406.7
554.0;514.7;;;;;;;;;;;;;;-1.0708334;-0.066530354;-0.043946654;;;;;406.7
554.0;514.7;;;;;;;;;;;;;;;;;-99.19278;-14.557329;-110.72497;;406.7
554.0;514.7;;;;;;;;;;;;;;-1.0088809;-0.091921754;-0.061525315;;;;;406.7
554.0;514.7;;;;;;;;;;;;;;;;;-94.492935;-8.30485;-107.76467;;416.4
554.0;514.7;;;;;;;;;;;;;;-1.0181586;-0.11999878;-0.06494339;;;;;416.4
554.0;514.7;;;;;;;;;;;;;;;;;-88.90423;-3.234962;-104.0643;;416.4
554.0;514.7;;;;;;;;;;;;;;-1.0195013;-0.1262856;-0.081118196;;;;;416.4
554.0;514.7;;;;;;;;;;;;;;;;;-82.953125;0.07248146;-101.252785;;426.1
554.0;514.7;;;;;;;;;;;;;;-0.9992981;-0.14166692;-0.09149449;;;;;426.1
554.0;514.7;;;;;;;;;;;;;;;;;-76.79602;1.6441847;-98.723564;;426.1
554.0;514.7;;;;;;;;;;;;;;-0.9907529;-0.13348795;-0.08349864;;;;;426.1
613.0;515.4;;;;;;;;;;;;;;;;;-71.5392;1.1597034;-96.83142;;435.8
613.0;515.4;;;;;;;;;;;;;;-0.9569384;-0.11993774;-0.08075198;;;;;435.8
613.0;515.4;;;;;;;;;;;;;;;;;-67.190315;0.62944424;-94.19157;;435.8
613.0;515.4;;;;;;;;;;;;;;-0.9265419;-0.11511582;-0.05938902;;;;;435.8
613.0;515.4;;;;;;;;;;;;;;;;;-63.425095;0.80111086;-90.36149;;445.5
613.0;515.4;;;;;;;;;;;;;;-0.9209266;-0.12964264;-0.048219245;;;;;445.5
613.0;515.4;;;;;;;;;;;;;;;;;-59.19828;0.6981109;-86.0622;;445.5
613.0;515.4;;;;;;;;;;;;;;-0.9157384;-0.15985595;-0.02661214;;;;;445.5
613.0;515.4;;;;;;;;;;;;;;;;;-53.956726;-0.8278146;-81.774345;;455.1
613.0;515.4;;;;;;;;;;;;;;-0.9126865;-0.1779229;0.0042115543;;;;;455.1
613.0;515.4;;;;;;;;;;;;;;;;;-47.822506;-3.3417768;-77.894684;;455.1
613.0;515.4;;;;;;;;;;;;;;-0.898648;-0.17242958;0.03241066;;;;;455.1
613.0;530.1;;;;;;;;;;;;;;;;;-41.444138;-5.9053316;-74.343094;;464.7
613.0;530.1;;;;;;;;;;;;;;-0.8792993;-0.16657002;0.07251198;;;;;464.7
613.0;530.1;;;;;;;;;;;;;;;;;-34.94369;-8.049257;-70.63127;;464.7
613.0;530.1;;;;;;;;;;;;;;-0.860683;-0.17700736;0.09851375;;;;;464.7
613.0;530.1;;;;;;;;;;;;;;;;;-28.527176;-9.178442;-66.64098;;474.3
613.0;530.1;;;;;;;;;;;;;;-0.8446913;-0.1871395;0.12042604;;;;;474.3
613.0;530.1;;;;;;;;;;;;;;;;;-22.431105;-10.528886;-63.169502;;474.3
613.0;530.1;;;;;;;;;;;;;;-0.8171636;-0.19782098;0.14026307;;;;;474.3
613.0;530.1;;;;;;;;;;;;;;;;;-17.578661;-11.06296;-60.029907;;484.0
613.0;530.1;;;;;;;;;;;;;;-0.8005005;-0.20136112;0.14185004;;;;;484.0
613.0;530.1;;;;;;;;;;;;;;;;;-13.920255;-10.803553;-57.62276;;484.0
613.0;530.1;;;;;;;;;;;;;;-0.7826777;-0.21051668;0.1246376;;;;;484.0
678.0;575.0;;;;;;;;;;;;;;;;;-10.948516;-10.296182;-55.993835;;493.7
678.0;575.0;;;;;;;;;;;;;;-0.748619;-0.22632527;0.08868679;;;;;493.7
678.0;575.0;;;;;;;;;;;;;;;;;-9.277627;-7.942442;-54.525135;;493.7
678.0;575.0;;;;;;;;;;;;;;-0.71340066;-0.23975341;0.03338725;;;;;493.7
678.0;575.0;;;;;;;;;;;;;;;;;-8.972442;-3.6202583;-52.9458;;503.3
678.0;575.0;;;;;;;;;;;;;;-0.6904508;-0.25269327;-0.022278512;;;;;503.3
678.0;575.0;;;;;;;;;;;;;;;;;-10.212256;0.92318493;-51.507614;;503.3
678.0;575.0;;;;;;;;;;;;;;-0.68117315;-0.24280526;-0.059327982;;;;;503.3
678.0;575.0;;;;;;;;;;;;;;;;;-11.658071;4.837184;-49.37132;;513.0
678.0;575.0;;;;;;;;;;;;;;-0.7008881;-0.20960112;-0.071779534;;;;;513.0
678.0;575.0;;;;;;;;;;;;;;;;;-12.741478;4.932554;-47.05191;;513.0
678.0;575.0;;;;;;;;;;;;;;-0.73158973;-0.19452497;-0.06408887;;;;;513.0
678.0;590.0;;;;;;;;;;;;;;;;;-12.260812;2.517777;-43.866543;;522.6
678.0;590.0;;;;;;;;;;;;;;-0.7458724;-0.15344706;-0.03875851;;;;;522.6
678.0;590.0;;;;;;;;;;;;;;;;;-9.361553;-0.8125553;-40.43321;;522.6
678.0;590.0;;;;;;;;;;;;;;-0.7679067;-0.12390515;0.006836146;;;;;522.6
678.0;590.0;;;;;;;;;;;;;;;;;-4.116184;-5.218665;-36.576435;;532.2
678.0;590.0;;;;;;;;;;;;;;-0.7926878;-0.13623463;0.0684225;;;;;532.2
678.0;590.0;;;;;;;;;;;;;;;;;2.8992584;-9.31196;-31.991028;;532.2
678.0;590.0;;;;;;;;;;;;;;-0.79879147;-0.18109684;0.09552293;;;;;532.2
678.0;590.0;;;;;;;;;;;;;;;;;10.9904785;-11.4978485;-27.096622;;541.8
678.0;590.0;;;;;;;;;;;;;;-0.8042238;-0.23474838;0.11224708;;;;;541.8
678.0;590.0;;;;;;;;;;;;;;;;;18.147068;-12.546922;-22.82403;;541.8
678.0;590.0;;;;;;;;;;;;;;-0.7912229;-0.22760704;0.10754723;;;;;541.8
738.0;635.5;;;;;;;;;;;;;;;;;22.72103;-13.138219;-19.951475;;551.3
738.0;635.5;;;;;;;;;;;;;;-0.79976803;-0.20892972;0.10303049;;;;;551.3
738.0;635.5;;;;;;;;;;;;;;;;;25.1854;-15.228736;-19.016848;;551.3
738.0;635.5;;;;;;;;;;;;;;-0.79445785;-0.21332438;0.097170934;;;;;551.3
738.0;635.5;;;;;;;;;;;;;;;;;26.436659;-17.18955;-18.692587;;560.9
738.0;635.5;;;;;;;;;;;;;;-0.7810297;-0.19183935;0.082461014;;;;;560.9
738.0;635.5;;;;;;;;;;;;;;;;;25.460066;-19.165625;-18.21192;;560.9
738.0;635.5;;;;;;;;;;;;;;-0.7677236;-0.17767876;0.075441755;;;;;560.9
738.0;635.5;;;;;;;;;;;;;;;;;23.819696;-21.446882;-17.590105;;570.6
738.0;635.5;;;;;;;;;;;;;;-0.74666584;-0.17224647;0.0672628;;;;;570.6
738.0;635.5;;;;;;;;;;;;;;;;;23.003326;-23.182623;-16.445662;;570.6
738.0;635.5;;;;;;;;;;;;;;-0.7390362;-0.17560351;0.066530354;;;;;570.6
738.0;650.9;;;;;;;;;;;;;;;;;23.293253;-24.792473;-14.561144;;580.3
738.0;650.9;;;;;;;;;;;;;;-0.74269843;-0.19037446;0.06579791;;;;;580.3
738.0;650.9;;;;;;;;;;;;;;;;;24.655142;-26.253548;-11.703849;;580.3
738.0;650.9;;;;;;;;;;;;;;-0.7375103;-0.18836024;0.057069615;;;;;580.3
738.0;650.9;;;;;;;;;;;;;;;;;26.0094;-27.073734;-9.483627;;589.9
738.0;650.9;;;;;;;;;;;;;;-0.7251808;-0.15527818;0.034363844;;;;;589.9
738.0;650.9;;;;;;;;;;;;;;;;;25.48677;-26.806696;-7.0574055;;589.9
738.0;650.9;;;;;;;;;;;;;;-0.722129;-0.13556322;0.010193182;;;;;589.9
738.0;650.9;;;;;;;;;;;;;;;;;23.01477;-26.169622;-5.4818873;;599.5
738.0;650.9;;;;;;;;;;;;;;-0.7101047;-0.098941006;-0.022461623;;;;;599.5
738.0;650.9;;;;;;;;;;;;;;;;;18.269142;-25.06714;-4.299295;;599.5
738.0;650.9;;;;;;;;;;;;;;-0.7068697;-0.08362072;-0.049134802;;;;;599.5
793.0;695.8;;;;;;;;;;;;;;;;;12.123478;-24.315622;-2.8763695;;609.2
793.0;695.8;;;;;;;;;;;;;;-0.70943326;-0.09234901;-0.07116917;;;;;609.2
793.0;695.8;;;;;;;;;;;;;;;;;5.668813;-23.297068;-2.0256662;;609.2
793.0;695.8;;;;;;;;;;;;;;-0.708945;-0.106753744;-0.085329756;;;;;609.2
793.0;695.8;;;;;;;;;;;;;;;;;-2.166814;-22.087772;-1.2169256;;618.8
793.0;695.8;;;;;;;;;;;;;;-0.7071749;-0.1474044;-0.10333567;;;;;618.8
793.0;695.8;;;;;;;;;;;;;;;;;-10.441145;-20.252846;-0.6904813;;618.8
793.0;695.8;;;;;;;;;;;;;;-0.7109592;-0.20471816;-0.12262337;;;;;618.8
793.0;695.8;;;;;;;;;;;;;;;;;-19.333477;-18.406477;-0.24414808;;628.5
793.0;695.8;;;;;;;;;;;;;;-0.7043062;-0.23541978;-0.13794367;;;;;628.5
793.0;695.8;;;;;;;;;;;;;;;;;-29.374065;-15.545365;0.18692587;;628.5
793.0;695.8;;;;;;;;;;;;;;-0.7014374;-0.27008882;-0.15851314;;;;;628.5
793.0;703.3;;;;;;;;;;;;;;;;;-39.151432;-12.283701;0.46540728;;638.1
793.0;703.3;;;;;;;;;;;;;;-0.7066866;-0.3228248;-0.16602069;;;;;638.1
793.0;703.3;;;;;;;;;;;;;;;;;-47.81869;-8.457442;1.781518;;638.1
793.0;703.3;;;;;;;;;;;;;;-0.70741904;-0.3501694;-0.17035432;;;;;638.1
793.0;703.3;;;;;;;;;;;;;;;;;-56.585133;-4.890591;2.685629;;647.8
793.0;703.3;;;;;;;;;;;;;;-0.70424515;-0.4043092;-0.1693167;;;;;647.8
793.0;703.3;;;;;;;;;;;;;;;;;-62.65069;-1.4229255;4.039888;;647.8
793.0;703.3;;;;;;;;;;;;;;-0.7102268;-0.4570452;-0.1643727;;;;;647.8
793.0;703.3;;;;;;;;;;;;;;;;;-65.93906;1.4076662;5.9244056;;657.3
793.0;703.3;;;;;;;;;;;;;;-0.6983856;-0.48518327;-0.15497299;;;;;657.3
793.0;703.3;;;;;;;;;;;;;;;;;-67.40013;3.9178138;7.629627;;657.3
793.0;703.3;;;;;;;;;;;;;;-0.6938078;-0.5126499;-0.14307077;;;;;657.3
854.0;756.1;;;;;;;;;;;;;;;;;-66.96524;5.5619984;9.189886;;666.8
854.0;756.1;;;;;;;;;;;;;;-0.70101017;-0.53621024;-0.11401715;;;;;666.8
854.0;756.1;;;;;;;;;;;;;;;;;-65.233315;5.664998;10.475478;;666.8
854.0;756.1;;;;;;;;;;;;;;-0.69539475;-0.56740016;-0.079897456;;;;;666.8
854.0;756.1;;;;;;;;;;;;;;;;;-62.501907;5.138554;11.520738;;676.2
854.0;756.1;;;;;;;;;;;;;;-0.67860955;-0.6105533;-0.061586354;;;;;676.2
854.0;756.1;;;;;;;;;;;;;;;;;-59.21354;4.4289985;12.337108;;676.2
854.0;756.1;;;;;;;;;;;;;;-0.6642659;-0.6520585;-0.04956206;;;;;676.2
854.0;756.1;;;;;;;;;;;;;;;;;-55.471203;4.016999;12.890255;;685.8
854.0;756.1;;;;;;;;;;;;;;-0.6466262;-0.6906339;-0.050294504;;;;;685.8
854.0;756.1;;;;;;;;;;;;;;;;;-51.33595;3.9788508;13.393811;;685.8
854.0;756.1;;;;;;;;;;;;;;-0.633137;-0.7116916;-0.04895169;;;;;685.8
854.0;763.6;;;;;;;;;;;;;;;;;-47.20069;3.6584065;13.481552;;695.5
854.0;763.6;;;;;;;;;;;;;;-0.61836606;-0.74977875;-0.047242653;;;;;695.5
854.0;763.6;;;;;;;;;;;;;;;;;-42.573322;3.6355176;13.515885;;695.5
854.0;763.6;;;;;;;;;;;;;;-0.6108585;-0.7450178;-0.04937895;;;;;695.5
854.0;763.6;;;;;;;;;;;;;;;;;-38.07947;3.5897398;13.431959;;705.1
854.0;763.6;;;;;;;;;;;;;;-0.6065249;-0.72603536;-0.05200354;;;;;705.1
854.0;763.6;;;;;;;;;;;;;;;;;-33.516956;3.6698508;12.810144;;705.1
854.0;763.6;;;;;;;;;;;;;;-0.59797966;-0.692404;-0.05658132;;;;;705.1
854.0;763.6;;;;;;;;;;;;;;;;;-28.843807;4.676962;12.081515;;714.8
854.0;763.6;;;;;;;;;;;;;;-0.5982238;-0.64589375;-0.0590228;;;;;714.8
854.0;763.6;;;;;;;;;;;;;;;;;-23.789179;6.0960727;11.581775;;714.8
854.0;763.6;;;;;;;;;;;;;;-0.5998108;-0.60567033;-0.059511095;;;;;714.8
912.0;816.6;;;;;;;;;;;;;;;;;-18.223366;7.595294;11.37196;;724.3
912.0;816.6;;;;;;;;;;;;;;-0.5988342;-0.5717948;-0.059450056;;;;;724.3
912.0;816.6;;;;;;;;;;;;;;;;;-12.089145;9.128849;11.200293;;724.3
912.0;816.6;;;;;;;;;;;;;;-0.58857995;-0.54158145;-0.06085391;;;;;724.3
912.0;816.6;;;;;;;;;;;;;;;;;-5.447554;10.837886;11.154515;;733.9
912.0;816.6;;;;;;;;;;;;;;-0.5761284;-0.5133824;-0.065309614;;;;;733.9
912.0;816.6;;;;;;;;;;;;;;;;;1.9264809;12.176886;11.604663;;733.9
912.0;816.6;;;;;;;;;;;;;;-0.57399213;-0.47492903;-0.06646931;;;;;733.9
912.0;816.6;;;;;;;;;;;;;;;;;9.723961;12.287516;12.310404;;743.6
912.0;816.6;;;;;;;;;;;;;;-0.5495773;-0.43946654;-0.07092502;;;;;743.6
912.0;816.6;;;;;;;;;;;;;;;;;17.788475;12.741478;13.348033;;743.6
912.0;816.6;;;;;;;;;;;;;;-0.5351726;-0.407239;-0.07049776;;;;;743.6
912.0;824.0;;;;;;;;;;;;;;;;;25.563066;12.958922;14.774774;;753.3
912.0;824.0;;;;;;;;;;;;;;-0.52607805;-0.3806879;-0.05981628;;;;;753.3
912.0;824.0;;;;;;;;;;;;;;;;;32.506027;12.79107;16.38081;;753.3
912.0;824.0;;;;;;;;;;;;;;-0.5116123;-0.3526719;-0.054933317;;;;;753.3
912.0;824.0;;;;;;;;;;;;;;;;;38.22062;12.928404;17.91055;;763.0
912.0;824.0;;;;;;;;;;;;;;-0.5037385;-0.33094272;-0.05053865;;;;;763.0
912.0;824.0;;;;;;;;;;;;;;;;;42.294838;12.951292;19.38307;;763.0
912.0;824.0;;;;;;;;;;;;;;-0.492996;-0.31696525;-0.051271096;;;;;763.0
912.0;824.0;;;;;;;;;;;;;;;;;45.056763;12.8215885;20.519882;;772.5
912.0;824.0;;;;;;;;;;;;;;-0.49897763;-0.31141087;-0.05328532;;;;;772.5
912.0;824.0;;;;;;;;;;;;;;;;;46.51021;11.932737;21.443068;;772.5
912.0;824.0;;;;;;;;;;;;;;-0.49604785;-0.3084811;-0.055238504;;;;;772.5
972.0;876.8;;;;;;;;;;;;;;;;;46.784874;11.051516;22.362436;;782.3
972.0;876.8;;;;;;;;;;;;;;-0.50416577;-0.30835903;-0.052552875;;;;;782.3
972.0;876.8;;;;;;;;;;;;;;;;;46.32328;10.155034;23.16355;;782.3
972.0;876.8;;;;;;;;;;;;;;-0.5119175;-0.30909148;-0.04730369;;;;;782.3
972.0;876.8;;;;;;;;;;;;;;;;;45.178837;9.777367;23.907438;;791.9
972.0;876.8;;;;;;;;;;;;;;-0.5247963;-0.31354716;-0.03930784;;;;;791.9
972.0;876.8;;;;;;;;;;;;;;;;;43.53847;10.059664;24.777214;;791.9
972.0;876.8;;;;;;;;;;;;;;-0.5398114;-0.3192236;-0.028931547;;;;;791.9
972.0;876.8;;;;;;;;;;;;;;;;;41.447952;11.051516;25.635548;;801.5
972.0;876.8;;;;;;;;;;;;;;-0.55690175;-0.33411664;-0.019898068;;;;;801.5
972.0;876.8;;;;;;;;;;;;;;;;;39.19721;12.668996;26.608326;;801.5
972.0;876.8;;;;;;;;;;;;;;-0.5786309;-0.35029146;-0.008728294;;;;;801.5
972.0;884.2;;;;;;;;;;;;;;;;;36.584064;14.557329;27.512436;;811.2
972.0;884.2;;;;;;;;;;;;;;-0.6075625;-0.3668325;7.324442E-4;;;;;811.2
972.0;884.2;;;;;;;;;;;;;;;;;33.68862;16.266367;28.382214;;811.2
972.0;884.2;;;;;;;;;;;;;;-0.634785;-0.38215277;0.0025635548;;;;;811.2
972.0;884.2;;;;;;;;;;;;;;;;;30.861843;17.845697;29.107029;;820.8
972.0;884.2;;;;;;;;;;;;;;-0.67195654;-0.39252907;0.008484146;;;;;820.8
972.0;884.2;;;;;;;;;;;;;;;;;28.111362;18.555254;29.553362;;820.8
972.0;884.2;;;;;;;;;;;;;;-0.69899595;-0.39796138;0.0144657735;;;;;820.8
972.0;884.2;;;;;;;;;;;;;;;;;25.524918;18.993958;29.633474;;830.5
972.0;884.2;;;;;;;;;;;;;;-0.7376324;-0.4011353;0.024414808;;;;;830.5
972.0;884.2;;;;;;;;;;;;;;;;;23.01477;18.810846;29.194769;;830.5
972.0;884.2;;;;;;;;;;;;;;-0.77053136;-0.39722893;0.031678215;;;;;830.5
1093.0;937.4;;;;;;;;;;;;;;;;;20.142216;18.436995;28.519547;;840.1
1093.0;937.4;;;;;;;;;;;;;;-0.8049562;-0.40003663;0.04113895;;;;;840.1
1093.0;937.4;;;;;;;;;;;;;;;;;16.659292;17.448957;27.451399;;840.1
1093.0;937.4;;;;;;;;;;;;;;-0.82845545;-0.40064698;0.051026948;;;;;840.1
1093.0;937.4;;;;;;;;;;;;;;;;;12.634663;16.384624;25.887325;;849.7
1093.0;937.4;;;;;;;;;;;;;;-0.86196476;-0.41230506;0.06390576;;;;;849.7
1093.0;937.4;;;;;;;;;;;;;;;;;8.518478;14.786219;24.20118;;849.7
1093.0;937.4;;;;;;;;;;;;;;-0.8835108;-0.41389203;0.079348125;;;;;849.7
1093.0;937.4;;;;;;;;;;;;;;;;;3.913999;13.164922;22.350992;;859.4
1093.0;937.4;;;;;;;;;;;;;;-0.9012726;-0.41065708;0.09179968;;;;;859.4
1093.0;937.4;;;;;;;;;;;;;;;;;-1.3962218;11.719108;20.500809;;859.4
1093.0;937.4;;;;;;;;;;;;;;-0.9173864;-0.40595722;0.101626635;;;;;859.4
1093.0;938.2;;;;;;;;;;;;;;;;;-7.0764794;10.471663;18.688772;;868.9
1093.0;938.2;;;;;;;;;;;;;;-0.9297769;-0.40125737;0.12170782;;;;;868.9
1093.0;938.2;;;;;;;;;;;;;;;;;-12.905515;8.770256;16.872921;;868.9
1093.0;938.2;;;;;;;;;;;;;;-0.94222844;-0.39515367;0.14117862;;;;;868.9
1093.0;938.2;;;;;;;;;;;;;;;;;-18.215734;5.897702;14.62981;;878.6
1093.0;938.2;;;;;;;;;;;;;;-0.96493423;-0.39088106;0.17523728;;;;;878.6
1093.0;938.2;;;;;;;;;;;;;;;;;-23.05292;1.0567034;12.150182;;878.6
1093.0;938.2;;;;;;;;;;;;;;-0.97665334;-0.39228493;0.21246986;;;;;878.6
1093.0;938.2;;;;;;;;;;;;;;;;;-26.760918;-3.4524064;10.021515;;888.2
1093.0;938.2;;;;;;;;;;;;;;-0.97183144;-0.38196966;0.25940734;;;;;888.2
1093.0;938.2;;;;;;;;;;;;;;;;;-30.087435;-6.85522;8.159886;;888.2
1093.0;938.2;;;;;;;;;;;;;;-0.9605396;-0.37928402;0.31488997;;;;;888.2
1096.0;997.4;;;;;;;;;;;;;;;;;-34.424877;-8.919034;6.0121465;;897.9
1096.0;997.4;;;;;;;;;;;;;;-0.9403363;-0.38837856;0.34205145;;;;;897.9
1096.0;997.4;;;;;;;;;;;;;;;;;-40.75747;-9.842219;3.4867396;;897.9
1096.0;997.4;;;;;;;;;;;;;;-0.91091645;-0.40961942;0.34742272;;;;;897.9
1096.0;997.4;;;;;;;;;;;;;;;;;-49.951168;-8.362072;0.49592578;;907.4
1096.0;997.4;;;;;;;;;;;;;;-0.89852595;-0.43073824;0.32856226;;;;;907.4
1096.0;997.4;;;;;;;;;;;;;;;;;-61.147648;-5.447554;-2.784814;;907.4
1096.0;997.4;;;;;;;;;;;;;;-0.88680685;-0.45979187;0.29517502;;;;;907.4
1096.0;997.4;;;;;;;;;;;;;;;;;-72.51579;-2.3422956;-5.7451096;;916.9
1096.0;997.4;;;;;;;;;;;;;;-0.87740713;-0.47718742;0.25513473;;;;;916.9
1096.0;997.4;;;;;;;;;;;;;;;;;-82.64794;0.22125919;-8.472701;;916.9
1096.0;997.4;;;;;;;;;;;;;;-0.854091;-0.4646138;0.20764793;;;;;916.9
1096.0;998.2;;;;;;;;;;;;;;;;;-92.04382;3.257851;-10.067293;;926.6
1096.0;998.2;;;;;;;;;;;;;;-0.819361;-0.4613788;0.13373211;;;;;926.6
1096.0;998.2;;;;;;;;;;;;;;;;;-100.26856;6.183813;-10.44496;;926.6
1096.0;998.2;;;;;;;;;;;;;;-0.7939696;-0.45142978;0.07470931;;;;;926.6
1096.0;998.2;;;;;;;;;;;;;;;;;-106.61642;8.526108;-9.628591;;936.3
1096.0;998.2;;;;;;;;;;;;;;-0.77785575;-0.44489884;0.026917325;;;;;936.3
1096.0;998.2;;;;;;;;;;;;;;;;;-110.374;9.42259;-7.9844055;;936.3
1096.0;998.2;;;;;;;;;;;;;;-0.7697989;-0.4323252;-0.019531846;;;;;936.3
1096.0;998.2;;;;;;;;;;;;;;;;;-110.457924;8.255258;-5.939665;;945.9
1096.0;998.2;;;;;;;;;;;;;;-0.74727625;-0.41450238;-0.046449173;;;;;945.9
1096.0;998.2;;;;;;;;;;;;;;;;;-106.23875;6.477554;-2.906888;;945.9
1096.0;998.2;;;;;;;;;;;;;;-0.7467269;-0.37568286;-0.0270394;;;;;945.9
1154.0;1058.1;;;;;;;;;;;;;;;;;-100.14267;4.581591;1.4915922;;955.6
1154.0;1058.1;;;;;;;;;;;;;;-0.73628956;-0.33515427;-0.048890654;;;;;955.6
1154.0;1058.1;;;;;;;;;;;;;;;;;-96.3126;2.7733696;7.084109;;955.6
1154.0;1058.1;;;;;;;;;;;;;;-0.7145604;-0.31232643;-0.08484146;;;;;955.6
1154.0;1058.1;;;;;;;;;;;;;;;;;-94.61883;0.3929258;13.10007;;965.2
1154.0;1058.1;;;;;;;;;;;;;;-0.7571032;-0.27314067;0.0044557024;;;;;965.2
1154.0;1058.1;;;;;;;;;;;;;;;;;-95.80523;4.9172945;20.466475;;965.2
1154.0;1058.1;;;;;;;;;;;;;;-0.88778347;-0.23889889;0.07245094;;;;;965.2
1154.0;1058.1;;;;;;;;;;;;;;;;;-101.94327;18.620106;27.558214;;974.9
1154.0;1058.1;;;;;;;;;;;;;;-1.1045259;-0.19147313;-0.0018311106;;;;;974.9
1154.0;1058.1;;;;;;;;;;;;;;;;;-107.35649;37.80099;37.15247;;974.9
1154.0;1058.1;;;;;;;;;;;;;;-1.6053346;-0.19910276;-0.054933317;;;;;974.9
1154.0;1058.9;;;;;;;;;;;;;;;;;-103.8316;44.48454;48.84106;;984.4
1154.0;1058.9;;;;;;;;;;;;;;-1.9915159;-0.35749382;0.08343761;;;;;984.4
1154.0;1058.9;;;;;;;;;;;;;;;;;-104.89975;39.48332;52.785576;;984.4
1154.0;1058.9;;;;;;;;;;;;;;-1.9989624;-0.51167333;0.092043824;;;;;984.4
1154.0;1058.9;;;;;;;;;;;;;;;;;-119.56771;21.588032;46.025726;;994.0
1154.0;1058.9;;;;;;;;;;;;;;-1.6330454;-0.6359447;-0.6574908;;;;;994.0
1154.0;1058.9;;;;;;;;;;;;;;;;;-119.85381;26.932585;38.361767;;994.0
1154.0;1058.9;;;;;;;;;;;;;;-1.3968322;-0.59218115;-0.9772637;;;;;994.0
1154.0;1058.9;;;;;;;;;;;;;;;;;-89.819786;49.096653;42.195656;;1003.6
1154.0;1058.9;;;;;;;;;;;;;;-1.4867398;-0.5920591;-0.8967559;;;;;1003.6
1154.0;1058.9;;;;;;;;;;;;;;;;;-54.208504;59.70565;41.04358;;1003.6
1154.0;1058.9;;;;;;;;;;;;;;-1.4473709;-0.5601978;-1.0362865;;;;;1003.6
1156.0;1118.1;;;;;;;;;;;;;;;;;-7.1718497;43.00821;38.865322;;1013.2
1156.0;1118.1;;;;;;;;;;;;;;-1.582812;-0.22602008;-0.32142094;;;;;1013.2
1156.0;1118.1;;;;;;;;;;;;;;;;;51.625874;7.4121833;36.229286;;1013.2
1156.0;1118.1;;;;;;;;;;;;;;-1.5897702;-0.016907254;0.338023;;;;;1013.2
1156.0;1118.1;;;;;;;;;;;;;;;;;76.44887;-19.436476;28.923918;;1022.9
1156.0;1118.1;;;;;;;;;;;;;;-1.1769158;0.03668325;0.39582506;;;;;1022.9
1156.0;1118.1;;;;;;;;;;;;;;;;;59.07239;2.910703;32.330547;;1022.9
1156.0;1118.1;;;;;;;;;;;;;;-1.0439161;-0.24347667;-0.111514635;;;;;1022.9
1156.0;1118.1;;;;;;;;;;;;;;;;;34.21506;29.541918;31.52562;;1032.6
1156.0;1118.1;;;;;;;;;;;;;;-1.1826533;-0.4212775;-0.46278268;;;;;1032.6
1156.0;1118.1;;;;;;;;;;;;;;;;;21.176031;34.649952;26.718956;;1032.6
1156.0;1118.1;;;;;;;;;;;;;;-1.3056428;-0.5170446;-0.48481703;;;;;1032.6
1156.0;1118.8;;;;;;;;;;;;;;;;;20.165104;43.778805;23.23603;;1042.2
1156.0;1118.8;;;;;;;;;;;;;;-1.7237464;-0.6511429;-0.33088169;;;;;1042.2
1156.0;1118.8;;;;;;;;;;;;;;;;;18.875698;48.31843;17.464216;;1042.2
1156.0;1118.8;;;;;;;;;;;;;;-1.9998169;-0.9259926;-0.4356212;;;;;1042.2
1156.0;1118.8;;;;;;;;;;;;;;;;;23.04529;31.357769;5.264443;;1051.7
1156.0;1118.8;;;;;;;;;;;;;;-1.9998169;-1.3495284;-0.76113164;;;;;1051.7
1156.0;1118.8;;;;;;;;;;;;;;;;;42.210915;8.342998;-8.388776;;1051.7
1156.0;1118.8;;;;;;;;;;;;;;-1.7977843;-1.5441755;-0.9006012;;;;;1051.7
1156.0;1118.8;;;;;;;;;;;;;;;;;70.25361;3.0823696;-21.694845;;1061.4
1156.0;1118.8;;;;;;;;;;;;;;-1.4783165;-1.5794549;-0.74452955;;;;;1061.4
1156.0;1118.8;;;;;;;;;;;;;;;;;93.485825;2.8191473;-34.321877;;1061.4
1156.0;1118.8;;;;;;;;;;;;;;-1.1624501;-1.4238716;-0.4865871;;;;;1061.4
1215.0;1129.6;;;;0.0;0.0;0.0;;;;;;;;;;;;;;;
1215.0;1129.6;;;;-0.0983925;0.29877856;0.044795994;;;;;;;;;;;;;;;
1215.0;1129.6;;;;-0.43789297;1.4752008;0.072982796;;;;;;;;;;;;;;;
1215.0;1129.6;;;;-0.464634;1.6204302;0.057395943;;;;;;;;;;;;;;;
1215.0;1129.6;;;;-0.451603;1.5886996;0.047069557;;;;;;;;;;;;;;;
1215.0;1139.6;;;;-0.43824393;1.55674;0.036430363;;;;;;;;;;;;;;;
1215.0;1139.6;;;;-0.42457587;1.5249636;0.02638245;;;;;;;;;;;;;;;
1215.0;1139.6;;;;-0.41172796;1.4927827;0.018680574;;;;;;;;;;;;;;;
1215.0;1139.6;;;;-0.39868933;1.4599916;0.0134620685;;;;;;;;;;;;;;;
1215.0;1139.6;;;;-0.38674933;1.4288522;0.011096955;;;;;;;;;;;;;;;
1215.0;1140.7;57522;57526;11986;;;;;;;;;;;;;;;;;;
1215.0;1149.4;;;;-0.37622076;1.3980142;0.009552003;;;;;;;;;;;;;;;
1215.0;1149.4;;;;-0.3674126;1.3690759;0.009429933;;;;;;;;;;;;;;;
1215.0;1149.4;;;;-0.35950854;1.3412629;0.010929109;;;;;;;;;;;;;;;
1215.0;1149.4;;;;-0.35409167;1.3150064;0.012535097;;;;;;;;;;;;;;;
1215.0;1149.4;;;;-0.3486748;1.2894784;0.0161438;;;;;;;;;;;;;;;
1217.0;1159.5;;;;-0.34198382;1.2646028;0.020832064;;;;;;;;;;;;;;;
1217.0;1159.5;;;;-0.336525;1.2407418;0.025028232;;;;;;;;;;;;;;;
1217.0;1159.5;;;;-0.33355334;1.2192804;0.029518131;;;;;;;;;;;;;;;
1217.0;1159.5;;;;-0.32839206;1.1994363;0.036083225;;;;;;;;;;;;;;;
1217.0;1159.5;;;;-0.32188419;1.181614;0.04327393;;;;;;;;;;;;;;;
1217.0;1160.8;73845;73842;11976;;;;;;;;;;;;;;;;;;
1217.0;1167.2;;;;;;;;;;;;;0;;;;;;;;
1217.0;1167.2;;;;;;;;;;;;;0;;;;;;;;
1217.0;1167.2;;;;;;;;;;;;;-1;;;;;;;;
1217.0;1167.2;;;;;;;;;;;;;-2;;;;;;;;
1217.0;1167.2;;;;;;;;;;;;;-3;;;;;;;;
1217.0;1169.7;;;;-0.31639865;1.1646234;0.048561104;;;;;;;;;;;;;;;
1217.0;1169.7;;;;-0.31171802;1.1509172;0.05456925;;;;;;;;;;;;;;;
1217.0;1169.7;;;;-0.307045;1.141163;0.061565407;;;;;;;;;;;;;;;
1217.0;1169.7;;;;-0.3029671;1.1335069;0.06741715;;;;;;;;;;;;;;;
1217.0;1169.7;;;;-0.30068973;1.1270219;0.071594246;;;;;;;;;;;;;;;
1218.0;1178.3;;;;;;;;;;;;;;;;;112.449265;5.2758875;-42.321545;;1071.1
1218.0;1178.3;;;;;;;;;;;;;;-0.9792169;-1.2806787;-0.29505295;;;;;1071.1
1218.0;1178.3;;;;;;;;;;;;;;;;;124.42015;7.415998;-45.903652;;1071.1
1218.0;1178.3;;;;;;;;;;;;;;-0.9083529;-0.83278906;-0.3236793;;;;;1071.1
1218.0;1178.3;;;;;;;;;;;;;;;;;124.988556;10.708182;-49.169136;;1080.7
1218.0;1178.3;;;;;;;;;;;;;;-1.0710166;-0.2656331;-0.32789087;;;;;1080.7
1218.0;1178.3;;;;;;;;;;;;;;;;;124.988556;4.505295;-46.7658;;1080.7
1218.0;1178.3;;;;;;;;;;;;;;-1.0884732;0.16736351;-0.38972136;;;;;1080.7
1218.0;1178.3;;;;;;;;;;;;;;;;;123.310036;-1.7624439;-40.90243;;1090.1
1218.0;1178.3;;;;;;;;;;;;;;-1.1166723;0.38337353;-0.26837978;;;;;1090.1
1218.0;1178.3;;;;;;;;;;;;;;;;;112.220375;-6.8819237;-37.717064;;1090.1
1218.0;1178.3;;;;;;;;;;;;;;-1.1629994;0.5975524;-0.13251136;;;;;1090.1
1218.0;1179.5;;;;;;;;;;;;;;;;;90.97568;-15.4690695;-34.478283;;1099.8
1218.0;1179.5;;;;;;;;;;;;;;-1.0137639;0.789819;-0.2414014;;;;;1099.8
1218.0;1179.5;;;;;;;;;;;;;;;;;69.94079;-14.992217;-29.057436;;1099.8
1218.0;1179.5;;;;;;;;;;;;;;-0.9681692;0.92837304;-0.5043489;;;;;1099.8
1218.0;1179.5;;;;;;;;;;;;;;;;;56.073944;-20.90518;-21.91992;;1109.5
1218.0;1179.5;;;;;;;;;;;;;;-0.89223915;0.9150059;-0.70870084;;;;;1109.5
1218.0;1179.5;;;;;;;;;;;;;;;;;54.383987;-25.902584;-12.199775;;1109.5
1218.0;1179.5;;;;;;;;;;;;;;-0.82052064;0.7175512;-0.64766383;;;;;1109.5
1218.0;1179.5;;;;;;;;;;;;;;;;;49.470505;-23.03003;2.231666;;1119.0
1218.0;1179.5;;;;;;;;;;;;;;-0.77840513;0.58033997;-0.52058476;;;;;1119.0
1218.0;1179.5;;;;;;;;;;;;;;;;;43.019653;-13.252663;joulu.27;;1119.0
1218.0;1179.5;;;;;;;;;;;;;;-0.77205724;0.45368817;-0.40101323;;;;;1119.0
1335.0;1179.6;;;;-0.30385593;1.120865;0.07382584;;;;;;;;;;;;;;;
1335.0;1179.6;;;;-0.3250771;1.1107332;0.066307075;;;;;;;;;;;;;;;
1335.0;1179.6;;;;-0.32553867;1.1129113;0.08184434;;;;;;;;;;;;;;;
1335.0;1179.6;;;;-0.3035355;1.1240197;0.09133149;;;;;;;;;;;;;;;
1335.0;1179.6;;;;-0.2922211;1.1287271;0.08657456;;;;;;;;;;;;;;;
1335.0;1180.9;90233;90289;11986;;;;;;;;;;;;;;;;;;
1335.0;1189.7;;;;-0.29469302;1.1289865;0.08592225;;;;;;;;;;;;;;;
1335.0;1189.7;;;;-0.29968646;1.1308366;0.090896614;;;;;;;;;;;;;;;
1335.0;1189.7;;;;-0.30162814;1.1329232;0.09241868;;;;;;;;;;;;;;;
1335.0;1189.7;;;;-0.30238727;1.1343805;0.09138108;;;;;;;;;;;;;;;
1335.0;1189.7;;;;-0.30347827;1.1339418;0.08997727;;;;;;;;;;;;;;;
1335.0;1199.7;;;;-0.30456546;1.1336786;0.090248115;;;;;;;;;;;;;;;
1335.0;1199.7;;;;-0.30785373;1.1326486;0.09036637;;;;;;;;;;;;;;;
1335.0;1199.7;;;;-0.31570438;1.1289102;0.08789826;;;;;;;;;;;;;;;
1335.0;1199.7;;;;-0.32444385;1.1244622;0.08619691;;;;;;;;;;;;;;;
1335.0;1199.7;;;;-0.333519;1.1196252;0.08635331;;;;;;;;;;;;;;;
1335.0;1201.1;106636;106633;11982;;;;;;;;;;;;;;;;;;
1335.0;1207.3;;;;;;;;;;;;;-7;;;;;;;;
1335.0;1207.3;;;;;;;;;;;;;-6;;;;;;;;
1335.0;1207.3;;;;;;;;;;;;;-8;;;;;;;;
1335.0;1207.3;;;;;;;;;;;;;-17;;;;;;;;
1335.0;1207.3;;;;;;;;;;;;;-15;;;;;;;;
1340.0;1209.7;;;;-0.34407046;1.1134454;0.085788734;;;;;;;;;;;;;;;
1340.0;1209.7;;;;-0.3536339;1.1075555;0.08451844;;;;;;;;;;;;;;;
1340.0;1209.7;;;;-0.3584099;1.103592;0.08472062;;;;;;;;;;;;;;;
1340.0;1209.7;;;;-0.36278918;1.0982896;0.082565315;;;;;;;;;;;;;;;
1340.0;1209.7;;;;-0.3678551;1.0917856;0.08042527;;;;;;;;;;;;;;;
1340.0;1219.7;;;;-0.3731003;1.0861627;0.07918931;;;;;;;;;;;;;;;
1340.0;1219.7;;;;-0.37730032;1.0805284;0.07784272;;;;;;;;;;;;;;;
1340.0;1219.7;;;;-0.38097388;1.0741731;0.07771302;;;;;;;;;;;;;;;
1340.0;1219.7;;;;-0.38672262;1.0665361;0.07450486;;;;;;;;;;;;;;;
1340.0;1219.7;;;;-0.39404684;1.0557786;0.07128907;;;;;;;;;;;;;;;
1340.0;1221.1;123075;123005;11999;;;;;;;;;;;;;;;;;;
1340.0;1229.8;;;;-0.3978539;1.0454751;0.07085801;;;;;;;;;;;;;;;
1340.0;1229.8;;;;-0.39732367;1.0371591;0.071041115;;;;;;;;;;;;;;;
1340.0;1229.8;;;;-0.3989907;1.0276681;0.06753159;;;;;;;;;;;;;;;
1340.0;1229.8;;;;-0.40445334;1.0177957;0.06368256;;;;;;;;;;;;;;;
1340.0;1229.8;;;;-0.41216666;1.0070039;0.061759956;;;;;;;;;;;;;;;
1341.0;1238.6;;;;;;;;;;;;;;;;;31.01825;-2.315592;18.921476;;1128.6
1341.0;1238.6;;;;;;;;;;;;;;-0.82302314;0.36371958;-0.31421858;;;;;1128.6
1341.0;1238.6;;;;;;;;;;;;;;;;;12.974181;8.732108;24.47203;;1128.6
1341.0;1238.6;;;;;;;;;;;;;;-0.9549852;0.31183812;-0.28510392;;;;;1128.6
1341.0;1238.6;;;;;;;;;;;;;;;;;-8.781701;14.881589;28.90103;;1138.3
1341.0;1238.6;;;;;;;;;;;;;;-1.0970794;0.36213264;-0.28809473;;;;;1138.3
1341.0;1238.6;;;;;;;;;;;;;;;;;-31.498917;17.16666;33.845028;;1138.3
1341.0;1238.6;;;;;;;;;;;;;;-1.2482681;0.34321114;-0.29566333;;;;;1138.3
1341.0;1238.6;;;;;;;;;;;;;;;;;-49.748985;15.312662;39.05606;;1147.9
1341.0;1238.6;;;;;;;;;;;;;;-1.3395184;0.34473708;-0.31781974;;;;;1147.9
1341.0;1238.6;;;;;;;;;;;;;;;;;-63.88669;11.76107;44.087803;;1147.9
1341.0;1238.6;;;;;;;;;;;;;;-1.4149601;0.3060396;-0.3144017;;;;;1147.9
1341.0;1239.4;;;;;;;;;;;;;;;;;-75.12513;6.6034427;47.68136;;1157.5
1341.0;1239.4;;;;;;;;;;;;;;-1.4042786;0.2563555;-0.3120823;;;;;1157.5
1341.0;1239.4;;;;;;;;;;;;;;;;;-83.632164;3.3913696;48.2078;;1157.5
1341.0;1239.4;;;;;;;;;;;;;;-1.333964;0.19910276;-0.31177709;;;;;1157.5
1341.0;1239.4;;;;;;;;;;;;;;;;;-88.81649;3.730888;45.20554;;1167.2
1341.0;1239.4;;;;;;;;;;;;;;-1.2813501;0.1413007;-0.32239753;;;;;1167.2
1341.0;1239.4;;;;;;;;;;;;;;;;;-91.49068;4.2306285;39.90295;;1167.2
1341.0;1239.4;;;;;;;;;;;;;;-1.2566912;0.050660726;-0.32502213;;;;;1167.2
1341.0;1239.4;;;;;;;;;;;;;;;;;-93.61171;4.154332;33.642845;;1176.8
1341.0;1239.4;;;;;;;;;;;;;;-1.2047486;-0.06500442;-0.3261208;;;;;1176.8
1341.0;1239.4;;;;;;;;;;;;;;;;;-95.42757;6.9277015;28.050325;;1176.8
1341.0;1239.4;;;;;;;;;;;;;;-1.1720939;-0.20044558;-0.33460495;;;;;1176.8
1342.0;1239.8;;;;-0.41922003;0.9956399;0.06071473;;;;;;;;;;;;;;;
1342.0;1239.8;;;;-0.42464072;0.9835664;0.05920411;;;;;;;;;;;;;;;
1342.0;1239.8;;;;-0.42955786;0.97216046;0.0566063;;;;;;;;;;;;;;;
1342.0;1239.8;;;;-0.4337693;0.9613267;0.05498124;;;;;;;;;;;;;;;
1342.0;1239.8;;;;-0.43780524;0.9517404;0.053401954;;;;;;;;;;;;;;;
1342.0;1241.3;139410;139419;11995;;;;;;;;;;;;;;;;;;
1342.0;1247.6;;;;;;;;;;;;;-29;;;;;;;;
1342.0;1247.6;;;;;;;;;;;;;-26;;;;;;;;
1342.0;1247.6;;;;;;;;;;;;;-12;;;;;;;;
1342.0;1247.6;;;;;;;;;;;;;-93;;;;;;;;
1342.0;1247.6;;;;;;;;;;;;;7;;;;;;;;
1342.0;1249.9;;;;-0.440857;0.9428483;0.051963814;;;;;;;;;;;;;;;
1342.0;1249.9;;;;-0.44333655;0.9347726;0.051284797;;;;;;;;;;;;;;;
1342.0;1249.9;;;;-0.44583136;0.9256784;0.05044175;;;;;;;;;;;;;;;
1342.0;1249.9;;;;-0.447609;0.91739666;0.049163826;;;;;;;;;;;;;;;
1342.0;1249.9;;;;-0.4481545;0.90874875;0.048767097;;;;;;;;;;;;;;;
1342.0;1260.0;;;;-0.4483872;0.9001161;0.048187263;;;;;;;;;;;;;;;
1342.0;1260.0;;;;-0.44752127;0.89258206;0.047573097;;;;;;;;;;;;;;;
1342.0;1260.0;;;;-0.4453774;0.88442624;0.047634132;;;;;;;;;;;;;;;
1342.0;1260.0;;;;-0.44372183;0.87632;0.046512607;;;;;;;;;;;;;;;
1342.0;1260.0;;;;-0.4428864;0.8688241;0.045097355;;;;;;;;;;;;;;;
1342.0;1261.5;155810;155745;11993;;;;;;;;;;;;;;;;;;
1346.0;1269.9;;;;-0.43832785;0.8608514;0.04476166;;;;;;;;;;;;;;;
1346.0;1269.9;;;;-0.43381506;0.85424817;0.043628696;;;;;;;;;;;;;;;
1346.0;1269.9;;;;-0.42905432;0.8474122;0.042995457;;;;;;;;;;;;;;;
1346.0;1269.9;;;;-0.4224587;0.84168637;0.04223633;;;;;;;;;;;;;;;
1346.0;1269.9;;;;-0.41482168;0.8362504;0.042362217;;;;;;;;;;;;;;;
1346.0;1280.0;;;;-0.4060784;0.8298913;0.04221726;;;;;;;;;;;;;;;
1346.0;1280.0;;;;-0.3968354;0.8237802;0.042343143;;;;;;;;;;;;;;;
1346.0;1280.0;;;;-0.38761908;0.818535;0.042984013;;;;;;;;;;;;;;;
1346.0;1280.0;;;;-0.3791619;0.8134004;0.04410935;;;;;;;;;;;;;;;
1346.0;1280.0;;;;-0.367569;0.80841076;0.0470543;;;;;;;;;;;;;;;
1346.0;1281.6;172200;172280;11993;;;;;;;;;;;;;;;;;;
1346.0;1287.9;;;;;;;;;;;;;233;;;;;;;;
1346.0;1287.9;;;;;;;;;;;;;-104;;;;;;;;
1346.0;1287.9;;;;;;;;;;;;;-646;;;;;;;;
1346.0;1287.9;;;;;;;;;;;;;274;;;;;;;;
1346.0;1287.9;;;;;;;;;;;;;3160;;;;;;;;
1346.0;1290.1;;;;-0.36114123;0.8020555;0.04535294;;;;;;;;;;;;;;;
1346.0;1290.1;;;;-0.35896686;0.7953073;0.04445267;;;;;;;;;;;;;;;
1346.0;1290.1;;;;-0.3534203;0.789631;0.046382908;;;;;;;;;;;;;;;
1346.0;1290.1;;;;-0.34632877;0.78463376;0.04684067;;;;;;;;;;;;;;;
1346.0;1290.1;;;;-0.33987048;0.78089917;0.04711152;;;;;;;;;;;;;;;
1348.0;1299.0;;;;;;;;;;;;;;;;;-95.31693;9.945219;22.652363;;1186.3
1348.0;1299.0;;;;;;;;;;;;;;-1.146031;-0.3124485;-0.3472396;;;;;1186.3
1348.0;1299.0;;;;;;;;;;;;;;;;;-93.63842;11.024812;18.326365;;1186.3
1348.0;1299.0;;;;;;;;;;;;;;-1.0923796;-0.39332256;-0.3319193;;;;;1186.3
1348.0;1299.0;;;;;;;;;;;;;;;;;-90.87649;12.550736;15.499588;;1195.9
1348.0;1299.0;;;;;;;;;;;;;;-1.0508744;-0.453444;-0.31189916;;;;;1195.9
1348.0;1299.0;;;;;;;;;;;;;;;;;-87.11509;14.072847;13.473923;;1195.9
1348.0;1299.0;;;;;;;;;;;;;;-1.0101627;-0.49751273;-0.31043428;;;;;1195.9
1348.0;1299.0;;;;;;;;;;;;;;;;;-82.739494;14.641255;11.513107;;1205.6
1348.0;1299.0;;;;;;;;;;;;;;-0.98550373;-0.5354167;-0.32288584;;;;;1205.6
1348.0;1299.0;;;;;;;;;;;;;;;;;-77.35298;13.554033;9.392072;;1205.6
1348.0;1299.0;;;;;;;;;;;;;;-0.98178047;-0.57765436;-0.30677205;;;;;1205.6
1348.0;1300.1;;;;;;;;;;;;;;;;;-71.47435;10.647145;7.7936645;;1215.2
1348.0;1300.1;;;;;;;;;;;;;;-0.93313396;-0.61818296;-0.28339487;;;;;1215.2
1348.0;1300.1;;;;;;;;;;;;;;;;;-64.18043;8.766441;7.3473315;;1215.2
1348.0;1300.1;;;;;;;;;;;;;;-0.9089022;-0.6480911;-0.2854091;;;;;1215.2
1348.0;1300.1;;;;;;;;;;;;;;;;;-55.71535;6.0731835;7.965331;;1224.8
1348.0;1300.1;;;;;;;;;;;;;;-0.8913846;-0.6346629;-0.25684378;;;;;1224.8
1348.0;1300.1;;;;;;;;;;;;;;;;;-48.368023;4.291665;10.532701;;1224.8
1348.0;1300.1;;;;;;;;;;;;;;-0.8325449;-0.60664696;-0.24939726;;;;;1224.8
1348.0;1300.1;;;;;;;;;;;;;;;;;-41.798912;5.6421094;13.714254;;1234.5
1348.0;1300.1;;;;;;;;;;;;;;-0.86239207;-0.54896694;-0.25513473;;;;;1234.5
1348.0;1300.1;;;;;;;;;;;;;;;;;-37.217323;2.6894438;16.735588;;1234.5
1348.0;1300.1;;;;;;;;;;;;;;-0.8982818;-0.48664814;-0.23706779;;;;;1234.5
1349.0;1300.0;;;;-0.33219913;0.7775537;0.049392708;;;;;;;;;;;;;;;
1349.0;1300.0;;;;-0.3234749;0.7742387;0.05219651;;;;;;;;;;;;;;;
1349.0;1300.0;;;;-0.3179207;0.7709428;0.051883705;;;;;;;;;;;;;;;
1349.0;1300.0;;;;-0.31344226;0.7665101;0.0520897;;;;;;;;;;;;;;;
1349.0;1300.0;;;;-0.30703357;0.7626878;0.05394364;;;;;;;;;;;;;;;
1349.0;1301.6;188652;188594;11998;;;;;;;;;;;;;;;;;;
1349.0;1310.1;;;;-0.29743198;0.7595941;0.055446632;;;;;;;;;;;;;;;
1349.0;1310.1;;;;-0.28817752;0.7567903;0.05723191;;;;;;;;;;;;;;;
1349.0;1310.1;;;;-0.27966693;0.7533151;0.05784989;;;;;;;;;;;;;;;
1349.0;1310.1;;;;-0.27027133;0.7498589;0.05957795;;;;;;;;;;;;;;;
1349.0;1310.1;;;;-0.26277927;0.7457543;0.06102372;;;;;;;;;;;;;;;
1349.0;1313.9;;;;;;;;;;;;;;;;;-34.154026;-3.4333322;19.314402;;1244.1
1349.0;1313.9;;;;;;;;;;;;;;-0.85329753;-0.4502701;-0.22400586;;;;;1244.1
1349.0;1313.9;;;;;;;;;;;;;;;;;-31.250954;-6.4127016;21.206549;;1244.1
1349.0;1313.9;;;;;;;;;;;;;;-0.81356245;-0.42365795;-0.19611195;;;;;1244.1
1349.0;1313.9;;;;;;;;;;;;;;;;;-28.397472;-7.0726647;22.427288;;1253.8
1349.0;1313.9;;;;;;;;;;;;;;-0.80556655;-0.40186775;-0.18445387;;;;;1253.8
1349.0;1313.9;;;;;;;;;;;;;;;;;-26.284067;-7.614368;22.892696;;1253.8
1349.0;1313.9;;;;;;;;;;;;;;-0.7856685;-0.37531662;-0.19031343;;;;;1253.8
1349.0;1313.9;;;;;;;;;;;;;;;;;-24.094364;-8.003479;23.678549;;1263.4
1349.0;1313.9;;;;;;;;;;;;;;-0.774865;-0.34876552;-0.19690542;;;;;1263.4
1349.0;1313.9;;;;;;;;;;;;;;;;;-21.900846;-8.7397375;24.502548;;1263.4
1349.0;1313.9;;;;;;;;;;;;;;-0.75917846;-0.3291116;-0.19452497;;;;;1263.4
1392.0;1320.0;;;;-0.25275043;0.7420159;0.06339646;;;;;;;;;;;;;;;
1392.0;1320.0;;;;-0.2519875;0.737011;0.061512;;;;;;;;;;;;;;;
1392.0;1320.0;;;;-0.25423434;0.7322846;0.06274796;;;;;;;;;;;;;;;
1392.0;1320.0;;;;-0.251915;0.7286759;0.06547547;;;;;;;;;;;;;;;
1392.0;1320.0;;;;-0.24640658;0.7276917;0.068004616;;;;;;;;;;;;;;;
1392.0;1321.6;204986;204962;11993;;;;;;;;;;;;;;;;;;
1392.0;1328.0;;;;;;;;;;;;;5940;;;;;;;;
1392.0;1328.0;;;;;;;;;;;;;6404;;;;;;;;
1392.0;1328.0;;;;;;;;;;;;;4729;;;;;;;;
1392.0;1328.0;;;;;;;;;;;;;2939;;;;;;;;
1392.0;1328.0;;;;;;;;;;;;;2809;;;;;;;;
1392.0;1329.9;;;;-0.2403908;0.7272225;0.06979371;;;;;;;;;;;;;;;
1392.0;1329.9;;;;-0.23591617;0.7257386;0.07130433;;;;;;;;;;;;;;;
1392.0;1329.9;;;;-0.23217776;0.72407156;0.071861275;;;;;;;;;;;;;;;
1392.0;1329.9;;;;-0.2285805;0.72219473;0.07246781;;;;;;;;;;;;;;;
1392.0;1329.9;;;;-0.22459415;0.7215348;0.074298866;;;;;;;;;;;;;;;
1392.0;1339.7;;;;-0.22030643;0.7199593;0.075588234;;;;;;;;;;;;;;;
1392.0;1339.7;;;;-0.21644214;0.71747977;0.07622529;;;;;;;;;;;;;;;
1392.0;1339.7;;;;-0.21229938;0.7150689;0.07625199;;;;;;;;;;;;;;;
1392.0;1339.7;;;;-0.2080994;0.7127572;0.07704926;;;;;;;;;;;;;;;
1392.0;1339.7;;;;-0.20347598;0.7100716;0.0788498;;;;;;;;;;;;;;;
1392.0;1341.4;221351;221310;11995;;;;;;;;;;;;;;;;;;
1396.0;1349.8;;;;-0.19521716;0.7079392;0.081501015;;;;;;;;;;;;;;;
1396.0;1349.8;;;;-0.18984225;0.7055779;0.080558784;;;;;;;;;;;;;;;
1396.0;1349.8;;;;-0.1843567;0.70304114;0.08429719;;;;;;;;;;;;;;;
1396.0;1349.8;;;;-0.18423845;0.6974793;0.08147813;;;;;;;;;;;;;;;
1396.0;1349.8;;;;-0.19496539;0.6884728;0.07870103;;;;;;;;;;;;;;;
1396.0;1359.9;;;;-0.1983681;0.68311316;0.081867225;;;;;;;;;;;;;;;
1396.0;1359.9;;;;-0.19532397;0.68040854;0.08383561;;;;;;;;;;;;;;;
1396.0;1359.9;;;;-0.19000247;0.6779519;0.08486176;;;;;;;;;;;;;;;
1396.0;1359.9;;;;-0.1847725;0.6754342;0.08491898;;;;;;;;;;;;;;;
1396.0;1359.9;;;;-0.1811371;0.67306906;0.08530808;;;;;;;;;;;;;;;
1396.0;1361.7;237711;237828;11985;;;;;;;;;;;;;;;;;;
1396.0;1366.3;;;;;;;;;;;;;;;;;-19.119846;-8.449813;25.38377;;1273.0
1396.0;1366.3;;;;;;;;;;;;;;-0.7658925;-0.32050538;-0.17542039;;;;;1273.0
1396.0;1366.3;;;;;;;;;;;;;;;;;-16.888182;-8.18659;26.276438;;1273.0
1396.0;1366.3;;;;;;;;;;;;;;-0.7770623;-0.32355723;-0.1640675;;;;;1273.0
1396.0;1366.3;;;;;;;;;;;;;;;;;-14.751884;-7.87759;27.195808;;1282.5
1396.0;1366.3;;;;;;;;;;;;;;-0.78615683;-0.33515427;-0.17578661;;;;;1282.5
1396.0;1366.3;;;;;;;;;;;;;;;;;-12.649922;-8.1331835;27.92062;;1282.5
1396.0;1366.3;;;;;;;;;;;;;;-0.79030734;-0.35560167;-0.19891964;;;;;1282.5
1396.0;1366.3;;;;;;;;;;;;;;;;;-10.704368;-8.709219;28.275398;;1292.1
1396.0;1366.3;;;;;;;;;;;;;;-0.786462;-0.37818536;-0.22559282;;;;;1292.1
1396.0;1366.3;;;;;;;;;;;;;;;;;-9.144109;-9.678183;28.298288;;1292.1
1396.0;1366.3;;;;;;;;;;;;;;-0.7741325;-0.39814448;-0.23249;;;;;1292.1
1398.0;1367.9;;;;;;;;;;;;;4774;;;;;;;;
1398.0;1367.9;;;;;;;;;;;;;7313;;;;;;;;
1398.0;1367.9;;;;;;;;;;;;;4698;;;;;;;;
1398.0;1367.9;;;;;;;;;;;;;-7947;;;;;;;;
1398.0;1367.9;;;;;;;;;;;;;-23868;;;;;;;;
1398.0;1369.9;;;;-0.1791916;0.66981894;0.08555985;;;;;;;;;;;;;;;
1398.0;1369.9;;;;-0.17776491;0.6656762;0.085033424;;;;;;;;;;;;;;;
1398.0;1369.9;;;;-0.1749611;0.6618081;0.08459092;;;;;;;;;;;;;;;
1398.0;1369.9;;;;-0.17223741;0.6583176;0.08506394;;;;;;;;;;;;;;;
1398.0;1369.9;;;;-0.17029192;0.65427405;0.08451081;;;;;;;;;;;;;;;
1398.0;1373.9;;;;;;;;;;;;;;;;;-8.278146;-10.170293;27.756584;;1301.8
1398.0;1373.9;;;;;;;;;;;;;;-0.7632069;-0.4041261;-0.22705771;;;;;1301.8
1398.0;1373.9;;;;;;;;;;;;;;;;;-8.575701;-10.311441;26.73803;;1301.8
1398.0;1373.9;;;;;;;;;;;;;;-0.74684894;-0.39136937;-0.21741386;;;;;1301.8
1398.0;1373.9;;;;;;;;;;;;;;;;;-9.895626;-10.010071;25.006104;;1311.4
1398.0;1373.9;;;;;;;;;;;;;;-0.73043;-0.36353648;-0.20624408;;;;;1311.4
1398.0;1373.9;;;;;;;;;;;;;;;;;-11.528367;-9.262368;22.888882;;1311.4
1398.0;1373.9;;;;;;;;;;;;;;-0.71614736;-0.33436078;-0.17468795;;;;;1311.4
1398.0;1373.9;;;;;;;;;;;;;;;;;-12.325664;-7.9233685;20.966217;;1321.0
1398.0;1373.9;;;;;;;;;;;;;;-0.7064425;-0.30201116;-0.102053896;;;;;1321.0
1398.0;1373.9;;;;;;;;;;;;;;;;;-11.654256;-5.664998;18.910032;;1321.0
1398.0;1373.9;;;;;;;;;;;;;;-0.69716483;-0.26215398;-0.052980132;;;;;1321.0
1455.0;1379.9;;;;-0.16827394;0.6505509;0.0842743;;;;;;;;;;;;;;;
1455.0;1379.9;;;;-0.1672516;0.6470147;0.08296967;;;;;;;;;;;;;;;
1455.0;1379.9;;;;-0.16646959;0.6426354;0.08286286;;;;;;;;;;;;;;;
1455.0;1379.9;;;;-0.16579057;0.6384507;0.081989296;;;;;;;;;;;;;;;
1455.0;1379.9;;;;-0.16518785;0.6351014;0.08220673;;;;;;;;;;;;;;;
1455.0;1381.7;254087;254047;11991;;;;;;;;;;;;;;;;;;
1455.0;1389.9;;;;-0.16558076;0.6314965;0.08197404;;;;;;;;;;;;;;;
1455.0;1389.9;;;;-0.16583253;0.62769705;0.0817833;;;;;;;;;;;;;;;
1455.0;1389.9;;;;-0.16650392;0.6242829;0.08083726;;;;;;;;;;;;;;;
1455.0;1389.9;;;;-0.16563798;0.6207238;0.079910286;;;;;;;;;;;;;;;
1455.0;1389.9;;;;-0.16345216;0.6179696;0.07984925;;;;;;;;;;;;;;;
1455.0;1399.9;;;;-0.1620064;0.6149445;0.07683564;;;;;;;;;;;;;;;
1455.0;1399.9;;;;-0.14892961;0.61440665;0.08407212;;;;;;;;;;;;;;;
1455.0;1399.9;;;;-0.14556123;0.6114884;0.07667542;;;;;;;;;;;;;;;
1455.0;1399.9;;;;-0.16311647;0.5997086;0.064926155;;;;;;;;;;;;;;;
1455.0;1399.9;;;;-0.17486192;0.5893212;0.06713868;;;;;;;;;;;;;;;
1455.0;1401.7;262143;262143;11987;;;;;;;;;;;;;;;;;;
1455.0;1408.0;;;;;;;;;;;;;-28769;;;;;;;;
1455.0;1408.0;;;;;;;;;;;;;-17937;;;;;;;;
1455.0;1408.0;;;;;;;;;;;;;-2040;;;;;;;;
1455.0;1408.0;;;;;;;;;;;;;6389;;;;;;;;
1455.0;1408.0;;;;;;;;;;;;;6375;;;;;;;;
1457.0;1410.0;;;;-0.17303087;0.5828286;0.069824226;;;;;;;;;;;;;;;
1457.0;1410.0;;;;-0.1692772;0.5795899;0.06991959;;;;;;;;;;;;;;;
1457.0;1410.0;;;;-0.16683199;0.57775885;0.0698433;;;;;;;;;;;;;;;
1457.0;1410.0;;;;-0.16622926;0.5764504;0.070415504;;;;;;;;;;;;;;;
1457.0;1410.0;;;;-0.16746522;0.5741578;0.07095719;;;;;;;;;;;;;;;
1457.0;1420.1;;;;-0.17016222;0.5712891;0.071414955;;;;;;;;;;;;;;;
1457.0;1420.1;;;;-0.17285539;0.5681763;0.071544655;;;;;;;;;;;;;;;
1457.0;1420.1;;;;-0.17523576;0.5646935;0.07179261;;;;;;;;;;;;;;;
1457.0;1420.1;;;;-0.17748262;0.5614243;0.07297135;;;;;;;;;;;;;;;
1457.0;1420.1;;;;-0.1795807;0.558014;0.07412339;;;;;;;;;;;;;;;
1457.0;1422.0;262143;262143;11991;;;;;;;;;;;;;;;;;;
1457.0;1426.6;;;;;;;;;;;;;;;;;-10.029145;-3.8872952;16.628773;;1330.6
1457.0;1426.6;;;;;;;;;;;;;;-0.6888638;-0.23273416;-0.029175695;;;;;1330.6
1457.0;1426.6;;;;;;;;;;;;;;;;;-7.5380716;-3.566851;13.817255;;1330.6
1457.0;1426.6;;;;;;;;;;;;;;-0.6865444;-0.21430098;-0.02069155;;;;;1330.6
1457.0;1426.6;;;;;;;;;;;;;;;;;-5.01648;-5.352184;10.750145;;1340.2
1457.0;1426.6;;;;;;;;;;;;;;-0.67268896;-0.21521653;-0.040406507;;;;;1340.2
1457.0;1426.6;;;;;;;;;;;;;;;;;-4.2458873;-7.6258125;7.9081087;;1340.2
1457.0;1426.6;;;;;;;;;;;;;;-0.6643269;-0.23963134;-0.06457717;;;;;1340.2
1457.0;1426.6;;;;;;;;;;;;;;;;;-5.405591;-10.170293;5.0737023;;1349.7
1457.0;1426.6;;;;;;;;;;;;;;-0.6443678;-0.27350688;-0.072328866;;;;;1349.7
1457.0;1426.6;;;;;;;;;;;;;;;;;-7.316813;-11.902219;1.7700735;;1349.7
1457.0;1426.6;;;;;;;;;;;;;;-0.6228828;-0.31647694;-0.08075198;;;;;1349.7
1512.0;1430.1;;;;-0.18149568;0.55480963;0.074256904;;;;;;;;;;;;;;;
1512.0;1430.1;;;;-0.18355562;0.55115134;0.07489777;;;;;;;;;;;;;;;
1512.0;1430.1;;;;-0.18650438;0.54772574;0.07550431;;;;;;;;;;;;;;;
1512.0;1430.1;;;;-0.1888695;0.5443879;0.075443275;;;;;;;;;;;;;;;
1512.0;1430.1;;;;-0.19124225;0.54058844;0.07547379;;;;;;;;;;;;;;;
1512.0;1440.1;;;;-0.19424823;0.53804404;0.07624436;;;;;;;;;;;;;;;
1512.0;1440.1;;;;-0.19764712;0.5355683;0.07661057;;;;;;;;;;;;;;;
1512.0;1440.1;;;;-0.20023349;0.53355414;0.07703019;;;;;;;;;;;;;;;
1512.0;1440.1;;;;-0.20261768;0.53179175;0.077472694;;;;;;;;;;;;;;;
1512.0;1440.1;;;;-0.20484927;0.53034216;0.07835389;;;;;;;;;;;;;;;
1512.0;1442.0;262143;262143;11984;;;;;;;;;;;;;;;;;;
1512.0;1448.3;;;;;;;;;;;;;4792;;;;;;;;
1512.0;1448.3;;;;;;;;;;;;;5145;;;;;;;;
1512.0;1448.3;;;;;;;;;;;;;5693;;;;;;;;
1512.0;1448.3;;;;;;;;;;;;;5417;;;;;;;;
1512.0;1448.3;;;;;;;;;;;;;5204;;;;;;;;
1512.0;1449.9;;;;-0.20647052;0.5290833;0.07889558;;;;;;;;;;;;;;;
1512.0;1449.9;;;;-0.2072182;0.52868277;0.079154976;;;;;;;;;;;;;;;
1512.0;1449.9;;;;-0.2081528;0.5285073;0.07995225;;;;;;;;;;;;;;;
1512.0;1449.9;;;;-0.2086983;0.52877814;0.080719;;;;;;;;;;;;;;;
1512.0;1449.9;;;;-0.20895389;0.52917486;0.081817634;;;;;;;;;;;;;;;
1515.0;1460.1;;;;-0.20860675;0.5299111;0.082298286;;;;;;;;;;;;;;;
1515.0;1460.1;;;;-0.20874408;0.53116995;0.08298493;;;;;;;;;;;;;;;
1515.0;1460.1;;;;-0.20812228;0.5324097;0.08305741;;;;;;;;;;;;;;;
1515.0;1460.1;;;;-0.2076073;0.53421026;0.082515724;;;;;;;;;;;;;;;
1515.0;1460.1;;;;-0.2074776;0.53589255;0.08252335;;;;;;;;;;;;;;;
1515.0;1462.1;262143;262143;11990;;;;;;;;;;;;;;;;;;
1515.0;1470.2;;;;-0.2074013;0.5378037;0.082386024;;;;;;;;;;;;;;;
1515.0;1470.2;;;;-0.20747378;0.5394059;0.08226777;;;;;;;;;;;;;;;
1515.0;1470.2;;;;-0.20843509;0.5410729;0.082752235;;;;;;;;;;;;;;;
1515.0;1470.2;;;;-0.20992282;0.54290396;0.08287049;;;;;;;;;;;;;;;
1515.0;1470.2;;;;-0.2109566;0.544838;0.08296586;;;;;;;;;;;;;;;
1515.0;1480.3;;;;-0.21200183;0.5463448;0.0830536;;;;;;;;;;;;;;;
1515.0;1480.3;;;;-0.21267703;0.54788977;0.08387757;;;;;;;;;;;;;;;
1515.0;1480.3;;;;-0.2130852;0.5494805;0.0837822;;;;;;;;;;;;;;;
1515.0;1480.3;;;;-0.21335223;0.5509377;0.08437348;;;;;;;;;;;;;;;
1515.0;1480.3;;;;-0.21358112;0.5520745;0.085285194;;;;;;;;;;;;;;;
1515.0;1482.3;262143;262143;11987;;;;;;;;;;;;;;;;;;
1515.0;1488.5;;;;;;;;;;;;;4987;;;;;;;;
1515.0;1488.5;;;;;;;;;;;;;4429;;;;;;;;
1515.0;1488.5;;;;;;;;;;;;;3851;;;;;;;;
1515.0;1488.5;;;;;;;;;;;;;3449;;;;;;;;
1515.0;1488.5;;;;;;;;;;;;;3112;;;;;;;;
1517.0;1490.3;;;;-0.21405032;0.55312735;0.08512116;;;;;;;;;;;;;;;
1517.0;1490.3;;;;-0.21509174;0.55439;0.08502961;;;;;;;;;;;;;;;
1517.0;1490.3;;;;-0.21580127;0.55527884;0.085788734;;;;;;;;;;;;;;;
1517.0;1490.3;;;;-0.21696857;0.55616766;0.08645631;;;;;;;;;;;;;;;
1517.0;1490.3;;;;-0.2174721;0.5568734;0.087169655;;;;;;;;;;;;;;;
1517.0;1494.9;;;;;;;;;;;;;;;;;-9.43022;-13.283181;-2.1591845;;1359.4
1517.0;1494.9;;;;;;;;;;;;;;-0.62483597;-0.3416242;-0.07806635;;;;;1359.4
1517.0;1494.9;;;;;;;;;;;;;;;;;-13.359478;-15.633106;-6.328776;;1359.4
1517.0;1494.9;;;;;;;;;;;;;;-0.59327984;-0.36695457;-0.07202368;;;;;1359.4
1517.0;1494.9;;;;;;;;;;;;;;;;;-18.54381;-16.3007;-10.742516;;1369.0
1517.0;1494.9;;;;;;;;;;;;;;-0.55293435;-0.395703;-0.0623188;;;;;1369.0
1517.0;1494.9;;;;;;;;;;;;;;;;;-22.629475;-14.461959;-14.088107;;1369.0
1517.0;1494.9;;;;;;;;;;;;;;-0.5364544;-0.4090701;-0.047853023;;;;;1369.0
1517.0;1494.9;;;;;;;;;;;;;;;;;-25.360882;-12.966552;-17.414623;;1378.7
1517.0;1494.9;;;;;;;;;;;;;;-0.5421308;-0.36451307;-0.06042665;;;;;1378.7
1517.0;1494.9;;;;;;;;;;;;;;;;;-28.13425;-13.668478;-21.057772;;1378.7
1517.0;1494.9;;;;;;;;;;;;;;-0.55098116;-0.31568345;-0.090456866;;;;;1378.7
1517.0;1495.6;;;;;;;;;;;;;;;;;-30.39262;-16.52196;-24.094364;;1388.3
1517.0;1495.6;;;;;;;;;;;;;;-0.5436567;-0.2766808;-0.11181982;;;;;1388.3
1517.0;1495.6;;;;;;;;;;;;;;;;;-31.365398;-19.692068;-25.894955;;1388.3
1517.0;1495.6;;;;;;;;;;;;;;-0.521012;-0.27613148;-0.110415965;;;;;1388.3
1517.0;1495.6;;;;;;;;;;;;;;;;;-30.762657;-21.71392;-26.554918;;1397.9
1517.0;1495.6;;;;;;;;;;;;;;-0.51442;-0.2929777;-0.1015656;;;;;1397.9
1517.0;1495.6;;;;;;;;;;;;;;;;;-31.140324;-23.285624;-26.745659;;1397.9
1517.0;1495.6;;;;;;;;;;;;;;-0.51728874;-0.31781974;-0.11767937;;;;;1397.9
1517.0;1495.6;;;;;;;;;;;;;;;;;-34.161655;-25.078585;-27.085178;;1407.5
1517.0;1495.6;;;;;;;;;;;;;;-0.5231483;-0.35145116;-0.12610248;;;;;1407.5
1517.0;1495.6;;;;;;;;;;;;;;;;;-37.812435;-26.894438;-27.41325;;1407.5
1517.0;1495.6;;;;;;;;;;;;;;-0.5323649;-0.3975341;-0.12726219;;;;;1407.5
1517.0;1496.4;;;;;;;;;;;;;;;;;-40.94058;-28.14188;-27.718435;;1417.1
1517.0;1496.4;;;;;;;;;;;;;;-0.53956723;-0.42432937;-0.13153477;;;;;1417.1
1517.0;1496.4;;;;;;;;;;;;;;;;;-44.480724;-28.34788;-28.138065;;1417.1
1517.0;1496.4;;;;;;;;;;;;;;-0.5504929;-0.43018892;-0.14056826;;;;;1417.1
1517.0;1496.4;;;;;;;;;;;;;;;;;-48.432877;-28.03125;-29.030733;;1426.8
1517.0;1496.4;;;;;;;;;;;;;;-0.57057405;-0.4210944;-0.1363567;;;;;1426.8
1517.0;1496.4;;;;;;;;;;;;;;;;;-51.351208;-27.787102;-30.48036;;1426.8
1517.0;1496.4;;;;;;;;;;;;;;-0.58375806;-0.4191412;-0.119754635;;;;;1426.8
1517.0;1496.4;;;;;;;;;;;;;;;;;-52.362133;-27.653584;-31.865139;;1436.5
1517.0;1496.4;;;;;;;;;;;;;;-0.61507004;-0.4420301;-0.10303049;;;;;1436.5
1517.0;1496.4;;;;;;;;;;;;;;;;;-51.213875;-28.118992;-33.55129;;1436.5
1517.0;1496.4;;;;;;;;;;;;;;-0.6355174;-0.46320993;-0.10199286;;;;;1436.5
1574.0;1500.0;;;;-0.21828464;0.5579987;0.08758927;;;;;;;;;;;;;;;
1574.0;1500.0;;;;-0.21898654;0.5586358;0.087780006;;;;;;;;;;;;;;;
1574.0;1500.0;;;;-0.21957019;0.5588303;0.08790208;;;;;;;;;;;;;;;
1574.0;1500.0;;;;-0.22042087;0.55868155;0.08797837;;;;;;;;;;;;;;;
1574.0;1500.0;;;;-0.22265628;0.5585175;0.08761979;;;;;;;;;;;;;;;
1574.0;1502.2;262143;262143;11987;;;;;;;;;;;;;;;;;;
1574.0;1510.2;;;;-0.22542194;0.5583268;0.08769608;;;;;;;;;;;;;;;
1574.0;1510.2;;;;-0.22826388;0.557808;0.08731461;;;;;;;;;;;;;;;
1574.0;1510.2;;;;-0.2316666;0.5571824;0.08651353;;;;;;;;;;;;;;;
1574.0;1510.2;;;;-0.23535159;0.5567017;0.08733369;;;;;;;;;;;;;;;
1574.0;1510.2;;;;-0.23896793;0.5560151;0.08750153;;;;;;;;;;;;;;;
1574.0;1520.0;;;;-0.24239352;0.55554205;0.087528236;;;;;;;;;;;;;;;
1574.0;1520.0;;;;-0.24494174;0.5548783;0.087593086;;;;;;;;;;;;;;;
1574.0;1520.0;;;;-0.24711993;0.5537835;0.08758546;;;;;;;;;;;;;;;
1574.0;1520.0;;;;-0.24966434;0.5528794;0.08834077;;;;;;;;;;;;;;;
1574.0;1520.0;;;;-0.25196078;0.5515557;0.08953477;;;;;;;;;;;;;;;
1574.0;1522.2;262143;262143;11984;;;;;;;;;;;;;;;;;;
1574.0;1528.4;;;;;;;;;;;;;2631;;;;;;;;
1574.0;1528.4;;;;;;;;;;;;;2030;;;;;;;;
1574.0;1528.4;;;;;;;;;;;;;1480;;;;;;;;
1574.0;1528.4;;;;;;;;;;;;;1158;;;;;;;;
1574.0;1528.4;;;;;;;;;;;;;1093;;;;;;;;
1577.0;1530.1;;;;-0.25338367;0.5496369;0.09083558;;;;;;;;;;;;;;;
1577.0;1530.1;;;;-0.25459293;0.546711;0.09069825;;;;;;;;;;;;;;;
1577.0;1530.1;;;;-0.25506595;0.54277426;0.09059907;;;;;;;;;;;;;;;
1577.0;1530.1;;;;-0.25544742;0.5385781;0.09071351;;;;;;;;;;;;;;;
1577.0;1530.1;;;;-0.25667956;0.53395087;0.0901146;;;;;;;;;;;;;;;
1577.0;1539.5;;;;;;;;;;;;;;;;;-49.45143;-28.824732;-35.191654;;1446.2
1577.0;1539.5;;;;;;;;;;;;;;-0.6520585;-0.49226356;-0.12543108;;;;;1446.2
1577.0;1539.5;;;;;;;;;;;;;;;;;-47.566914;-30.00351;-36.687065;;1446.2
1577.0;1539.5;;;;;;;;;;;;;;-0.67555773;-0.5231483;-0.14606158;;;;;1446.2
1577.0;1539.5;;;;;;;;;;;;;;;;;-45.594654;-31.74688;-38.445694;;1455.7
1577.0;1539.5;;;;;;;;;;;;;;-0.69502854;-0.54371774;-0.1521653;;;;;1455.7
1577.0;1539.5;;;;;;;;;;;;;;;;;-43.122654;-33.421585;-40.467545;;1455.7
1577.0;1539.5;;;;;;;;;;;;;;-0.71633047;-0.5623951;-0.13251136;;;;;1455.7
1577.0;1539.5;;;;;;;;;;;;;;;;;-41.032135;-35.775322;-43.15699;;1465.4
1577.0;1539.5;;;;;;;;;;;;;;-0.7256081;-0.5640431;-0.107852414;;;;;1465.4
1577.0;1539.5;;;;;;;;;;;;;;;;;-38.430435;-37.53395;-45.66332;;1465.4
1577.0;1539.5;;;;;;;;;;;;;;-0.74037904;-0.55360574;-0.0712302;;;;;1465.4
1577.0;1540.1;;;;-0.2585869;0.52890784;0.08947755;;;;;;;;;;;;;;;
1577.0;1540.1;;;;-0.2609444;0.5251351;0.09027863;;;;;;;;;;;;;;;
1577.0;1540.1;;;;-0.26352695;0.5217057;0.09177781;;;;;;;;;;;;;;;
1577.0;1540.1;;;;-0.2662125;0.51969534;0.09351731;;;;;;;;;;;;;;;
1577.0;1540.1;;;;-0.26898578;0.5188065;0.094448105;;;;;;;;;;;;;;;
1577.0;1542.3;262143;262143;11995;;;;;;;;;;;;;;;;;;
1578.0;1547.3;;;;;;;;;;;;;;;;;-35.905025;-39.147617;-48.593098;;1475.0
1578.0;1547.3;;;;;;;;;;;;;;-0.7480697;-0.5299844;-0.03442488;;;;;1475.0
1578.0;1547.3;;;;;;;;;;;;;;;;;-34.37147;-41.41743;-51.862392;;1475.0
1578.0;1547.3;;;;;;;;;;;;;;-0.74941254;-0.51692253;-0.0075685903;;;;;1475.0
1578.0;1547.3;;;;;;;;;;;;;;;;;-35.07721;-44.400616;-55.410168;;1484.7
1578.0;1547.3;;;;;;;;;;;;;;-0.73647267;-0.5196692;0.003357036;;;;;1484.7
1578.0;1547.3;;;;;;;;;;;;;;;;;-37.648396;-47.04428;-59.49965;;1484.7
1578.0;1547.3;;;;;;;;;;;;;;-0.7039399;-0.51301616;0.012146367;;;;;1484.7
1578.0;1547.3;;;;;;;;;;;;;;;;;-40.31495;-48.970764;-63.55098;;1494.4
1578.0;1547.3;;;;;;;;;;;;;;-0.6720176;-0.52949613;-0.009582812;;;;;1494.4
1578.0;1547.3;;;;;;;;;;;;;;;;;-40.74221;-51.698357;-67.32765;;1494.4
1578.0;1547.3;;;;;;;;;;;;;;-0.6499222;-0.5355388;-0.0076296274;;;;;1494.4
1578.0;1550.1;;;;-0.2720566;0.5185624;0.09541322;;;;;;;;;;;;;;;
1578.0;1550.1;;;;-0.2744179;0.5191117;0.09468843;;;;;;;;;;;;;;;
1578.0;1550.1;;;;-0.27646258;0.52005774;0.093544014;;;;;;;;;;;;;;;
1578.0;1550.1;;;;-0.27775195;0.5208588;0.09244538;;;;;;;;;;;;;;;
1578.0;1550.1;;;;-0.27819446;0.5219651;0.090320595;;;;;;;;;;;;;;;
1578.0;1560.1;;;;-0.27771762;0.5230065;0.087730415;;;;;;;;;;;;;;;
1578.0;1560.1;;;;-0.2770119;0.5252953;0.08484269;;;;;;;;;;;;;;;
1578.0;1560.1;;;;-0.27504733;0.529049;0.08184052;;;;;;;;;;;;;;;
1578.0;1560.1;;;;-0.2738724;0.53573614;0.07925034;;;;;;;;;;;;;;;
1578.0;1560.1;;;;-0.27413943;0.545517;0.077213295;;;;;;;;;;;;;;;
1578.0;1562.4;262143;262143;11999;;;;;;;;;;;;;;;;;;
1631.0;1568.5;;;;;;;;;;;;;906;;;;;;;;
1631.0;1568.5;;;;;;;;;;;;;152;;;;;;;;
1631.0;1568.5;;;;;;;;;;;;;-999;;;;;;;;
1631.0;1568.5;;;;;;;;;;;;;-1854;;;;;;;;
1631.0;1568.5;;;;;;;;;;;;;-1999;;;;;;;;
1631.0;1570.0;;;;-0.27585605;0.5589295;0.07651139;;;;;;;;;;;;;;;
1631.0;1570.0;;;;-0.27859882;0.5761567;0.07733918;;;;;;;;;;;;;;;
1631.0;1570.0;;;;-0.2835236;0.5964852;0.07847596;;;;;;;;;;;;;;;
1631.0;1570.0;;;;-0.2896805;0.6194344;0.07832719;;;;;;;;;;;;;;;
1631.0;1570.0;;;;-0.29760364;0.6434136;0.078334816;;;;;;;;;;;;;;;
1631.0;1580.0;;;;-0.30559924;0.66733176;0.079299934;;;;;;;;;;;;;;;
1631.0;1580.0;;;;-0.31506732;0.6910859;0.07997132;;;;;;;;;;;;;;;
1631.0;1580.0;;;;-0.32418063;0.71306616;0.08087922;;;;;;;;;;;;;;;
1631.0;1580.0;;;;-0.33375934;0.7338677;0.08290864;;;;;;;;;;;;;;;
1631.0;1580.0;;;;-0.34341815;0.7526742;0.0852356;;;;;;;;;;;;;;;
1631.0;1582.3;262143;262143;12008;;;;;;;;;;;;;;;;;;
1631.0;1590.1;;;;-0.35176852;0.76906216;0.087413795;;;;;;;;;;;;;;;
1631.0;1590.1;;;;-0.3584366;0.7851945;0.08900834;;;;;;;;;;;;;;;
1631.0;1590.1;;;;-0.36421588;0.8010675;0.09054948;;;;;;;;;;;;;;;
1631.0;1590.1;;;;-0.37010196;0.8176843;0.092090614;;;;;;;;;;;;;;;
1631.0;1590.1;;;;-0.37544638;0.8357812;0.09395601;;;;;;;;;;;;;;;
1634.0;1599.6;;;;;;;;;;;;;;;;;-38.750877;-54.345837;-71.06235;;1504.0
1634.0;1599.6;;;;;;;;;;;;;;-0.6553545;-0.54390085;0.046815395;;;;;1504.0
1634.0;1599.6;;;;;;;;;;;;;;;;;-35.23362;-57.214577;-74.46135;;1504.0
1634.0;1599.6;;;;;;;;;;;;;;-0.6510208;-0.55024874;0.06970428;;;;;1504.0
1634.0;1599.6;;;;;;;;;;;;;;;;;-33.009583;-59.94598;-78.073975;;1513.5
1634.0;1599.6;;;;;;;;;;;;;;-0.64229256;-0.5241859;0.044007692;;;;;1513.5
1634.0;1599.6;;;;;;;;;;;;;;;;;-32.41829;-62.845238;-81.930756;;1513.5
1634.0;1599.6;;;;;;;;;;;;;;-0.6551103;-0.5517136;0.012390515;;;;;1513.5
1634.0;1599.6;;;;;;;;;;;;;;;;;-31.212805;-65.89328;-86.05075;;1523.2
1634.0;1599.6;;;;;;;;;;;;;;-0.64772487;-0.52821434;-0.027527696;;;;;1523.2
1634.0;1599.6;;;;;;;;;;;;;;;;;-29.335918;-67.43065;-90.86504;;1523.2
1634.0;1599.6;;;;;;;;;;;;;;-0.67574084;-0.5409711;-0.02783288;;;;;1523.2
1634.0;1600.1;;;;-0.38060385;0.8555757;0.096332565;;;;;;;;;;;;;;;
1634.0;1600.1;;;;-0.38631064;0.8760377;0.09855272;;;;;;;;;;;;;;;
1634.0;1600.1;;;;-0.39314276;0.8968965;0.099864975;;;;;;;;;;;;;;;
1634.0;1600.1;;;;-0.39833456;0.92001355;0.10152437;;;;;;;;;;;;;;;
1634.0;1600.1;;;;-0.40390784;0.94392407;0.101627365;;;;;;;;;;;;;;;
1634.0;1602.5;262143;262143;12013;;;;;;;;;;;;;;;;;;
1636.0;1607.0;;;;;;;;;;;;;;;;;-26.688437;-67.5451;-96.41179;;1532.8
1636.0;1607.0;;;;;;;;;;;;;;-0.74691;-0.5733818;0.03302103;;;;;1532.8
1636.0;1607.0;;;;;;;;;;;;;;;;;-25.879696;-66.240425;-102.40104;;1532.8
1636.0;1607.0;;;;;;;;;;;;;;-0.8388317;-0.6415601;0.07892086;;;;;1532.8
1636.0;1607.0;;;;;;;;;;;;;;;;;-25.475325;-63.798943;-109.42412;;1542.4
1636.0;1607.0;;;;;;;;;;;;;;-0.96066165;-0.71340066;0.04077273;;;;;1542.4
1636.0;1607.0;;;;;;;;;;;;;;;;;-23.54503;-61.11713;-116.41286;;1542.4
1636.0;1607.0;;;;;;;;;;;;;;-1.1404157;-0.8006226;-0.005798517;;;;;1542.4
1636.0;1607.0;;;;;;;;;;;;;;;;;-18.780329;-58.702354;-122.581406;;1552.0
1636.0;1607.0;;;;;;;;;;;;;;-1.3276162;-0.86233103;-0.05468917;;;;;1552.0
1636.0;1607.0;;;;;;;;;;;;;;;;;-12.043367;-56.825466;-124.923706;;1552.0
1636.0;1607.0;;;;;;;;;;;;;;-1.5112766;-0.8813135;-0.10443434;;;;;1552.0
1636.0;1608.6;;;;;;;;;;;;;-1656;;;;;;;;
1636.0;1608.6;;;;;;;;;;;;;-1378;;;;;;;;
1636.0;1608.6;;;;;;;;;;;;;-1355;;;;;;;;
1636.0;1608.6;;;;;;;;;;;;;-1184;;;;;;;;
1636.0;1608.6;;;;;;;;;;;;;-528;;;;;;;;
1636.0;1610.1;;;;-0.4110642;0.9667741;0.10084154;;;;;;;;;;;;;;;
1636.0;1610.1;;;;-0.41882712;0.9891969;0.099620834;;;;;;;;;;;;;;;
1636.0;1610.1;;;;-0.42545706;1.0113069;0.09899141;;;;;;;;;;;;;;;
1636.0;1610.1;;;;-0.43135077;1.0320817;0.099182144;;;;;;;;;;;;;;;
1636.0;1610.1;;;;-0.43646628;1.052189;0.09849168;;;;;;;;;;;;;;;
1693.0;1620.1;;;;-0.44177252;1.0713083;0.09812547;;;;;;;;;;;;;;;
1693.0;1620.1;;;;-0.44577032;1.0890199;0.09701158;;;;;;;;;;;;;;;
1693.0;1620.1;;;;-0.45047766;1.106228;0.09622957;;;;;;;;;;;;;;;
1693.0;1620.1;;;;-0.45713812;1.125763;0.09403993;;;;;;;;;;;;;;;
1693.0;1620.1;;;;-0.46461493;1.1441308;0.09091569;;;;;;;;;;;;;;;
1693.0;1622.5;262143;262143;12030;;;;;;;;;;;;;;;;;;
1693.0;1630.1;;;;-0.4730683;1.1626436;0.086399086;;;;;;;;;;;;;;;
1693.0;1630.1;;;;-0.48323447;1.181122;0.080234535;;;;;;;;;;;;;;;
1693.0;1630.1;;;;-0.49657828;1.2011148;0.07453538;;;;;;;;;;;;;;;
1693.0;1630.1;;;;-0.5129128;1.2243768;0.06783677;;;;;;;;;;;;;;;
1693.0;1630.1;;;;-0.5292359;1.2482034;0.056503303;;;;;;;;;;;;;;;
1693.0;1640.0;;;;-0.54554373;1.2727662;0.04695893;;;;;;;;;;;;;;;
1693.0;1640.0;;;;-0.5644074;1.3035051;0.051475532;;;;;;;;;;;;;;;
1693.0;1640.0;;;;-0.58274466;1.3451501;0.060855873;;;;;;;;;;;;;;;
1693.0;1640.0;;;;-0.59707266;1.3917199;0.061370857;;;;;;;;;;;;;;;
1693.0;1640.0;;;;-0.6079636;1.4357377;0.05579377;;;;;;;;;;;;;;;
1693.0;1642.6;262143;262143;12032;;;;;;;;;;;;;;;;;;
1693.0;1648.8;;;;;;;;;;;;;492;;;;;;;;
1693.0;1648.8;;;;;;;;;;;;;1459;;;;;;;;
1693.0;1648.8;;;;;;;;;;;;;2324;;;;;;;;
1693.0;1648.8;;;;;;;;;;;;;3363;;;;;;;;
1693.0;1648.8;;;;;;;;;;;;;4336;;;;;;;;
1700.0;1650.2;;;;-0.61853796;1.476246;0.048164375;;;;;;;;;;;;;;;
1700.0;1650.2;;;;-0.63501745;1.51458;0.041099552;;;;;;;;;;;;;;;
1700.0;1650.2;;;;-0.6523667;1.5491908;0.03513718;;;;;;;;;;;;;;;
1700.0;1650.2;;;;-0.6683541;1.5803492;0.031291965;;;;;;;;;;;;;;;
1700.0;1650.2;;;;-0.6832581;1.6074564;0.027030949;;;;;;;;;;;;;;;
1700.0;1659.8;;;;;;;;;;;;;;;;;-4.2687764;-55.913723;-124.988556;;1561.6
1700.0;1659.8;;;;;;;;;;;;;;-1.698233;-0.8885769;-0.1248207;;;;;1561.6
1700.0;1659.8;;;;;;;;;;;;;;;;;3.6736658;-55.932796;-124.988556;;1561.6
1700.0;1659.8;;;;;;;;;;;;;;-1.8237251;-0.8437147;-0.15796381;;;;;1561.6
1700.0;1659.8;;;;;;;;;;;;;;;;;9.647664;-55.627613;-124.988556;;1571.2
1700.0;1659.8;;;;;;;;;;;;;;-1.9127171;-0.7552721;-0.23096408;;;;;1571.2
1700.0;1659.8;;;;;;;;;;;;;;;;;13.470107;-56.073944;-124.988556;;1571.2
1700.0;1659.8;;;;;;;;;;;;;;-1.9477524;-0.636433;-0.27484968;;;;;1571.2
1700.0;1659.8;;;;;;;;;;;;;;;;;14.885404;-57.695244;-124.41252;;1580.7
1700.0;1659.8;;;;;;;;;;;;;;-1.9263893;-0.49366742;-0.3023774;;;;;1580.7
1700.0;1659.8;;;;;;;;;;;;;;;;;14.43907;-59.541615;-121.909996;;1580.7
1700.0;1659.8;;;;;;;;;;;;;;-1.8563799;-0.3991821;-0.32209235;;;;;1580.7
1700.0;1660.2;;;;-0.69710165;1.6315768;0.023975376;;;;;;;;;;;;;;;
1700.0;1660.2;;;;-0.7106362;1.6516345;0.02283478;;;;;;;;;;;;;;;
1700.0;1660.2;;;;-0.7231026;1.6677592;0.022926332;;;;;;;;;;;;;;;
1700.0;1660.2;;;;-0.73408514;1.6796343;0.023597721;;;;;;;;;;;;;;;
1700.0;1660.2;;;;-0.7446099;1.6851084;0.024570469;;;;;;;;;;;;;;;
1700.0;1662.7;262143;262143;12043;;;;;;;;;;;;;;;;;;
1702.0;1667.3;;;;;;;;;;;;;;;;;12.768181;-60.220646;-117.34367;;1590.3
1702.0;1667.3;;;;;;;;;;;;;;-1.8080386;-0.3394879;-0.30787072;;;;;1590.3
1702.0;1667.3;;;;;;;;;;;;;;;;;10.456405;-60.11383;-112.24708;;1590.3
1702.0;1667.3;;;;;;;;;;;;;;-1.7552415;-0.31556138;-0.29016998;;;;;1590.3
1702.0;1667.3;;;;;;;;;;;;;;;;;8.09122;-58.236946;-105.64745;;1599.9
1702.0;1667.3;;;;;;;;;;;;;;-1.7218543;-0.32898954;-0.27704704;;;;;1599.9
1702.0;1667.3;;;;;;;;;;;;;;;;;5.058443;-55.31861;-98.43364;;1599.9
1702.0;1667.3;;;;;;;;;;;;;;-1.7000641;-0.3670156;-0.2499466;;;;;1599.9
1702.0;1667.3;;;;;;;;;;;;;;;;;2.0256662;-51.213875;-91.48686;;1609.6
1702.0;1667.3;;;;;;;;;;;;;;-1.7051913;-0.39271218;-0.22052675;;;;;1609.6
1702.0;1667.3;;;;;;;;;;;;;;;;;-0.5607776;-44.900356;-84.0022;;1609.6
1702.0;1667.3;;;;;;;;;;;;;;-1.7387005;-0.44367808;-0.1906186;;;;;1609.6
1702.0;1670.2;;;;-0.75706875;1.6821444;0.022613527;;;;;;;;;;;;;;;
1702.0;1670.2;;;;-0.7667161;1.6740496;0.023960117;;;;;;;;;;;;;;;
1702.0;1670.2;;;;-0.7751161;1.6612628;0.028068546;;;;;;;;;;;;;;;
1702.0;1670.2;;;;-0.7823106;1.644295;0.032421116;;;;;;;;;;;;;;;
1702.0;1670.2;;;;-0.7873689;1.6253703;0.036674503;;;;;;;;;;;;;;;
1702.0;1680.2;;;;-0.7903596;1.6037943;0.04351807;;;;;;;;;;;;;;;
1702.0;1680.2;;;;-0.79156506;1.5790827;0.05072785;;;;;;;;;;;;;;;
1702.0;1680.2;;;;-0.7910768;1.5535433;0.05965043;;;;;;;;;;;;;;;
1702.0;1680.2;;;;-0.7909204;1.5275309;0.06940461;;;;;;;;;;;;;;;
1702.0;1680.2;;;;-0.7941438;1.5020602;0.079730995;;;;;;;;;;;;;;;
1702.0;1682.8;262143;262143;12040;;;;;;;;;;;;;;;;;;
1751.0;1688.9;;;;;;;;;;;;;4581;;;;;;;;
1751.0;1688.9;;;;;;;;;;;;;4013;;;;;;;;
1751.0;1688.9;;;;;;;;;;;;;3361;;;;;;;;
1751.0;1688.9;;;;;;;;;;;;;3145;;;;;;;;
1751.0;1688.9;;;;;;;;;;;;;3033;;;;;;;;
1751.0;1690.2;;;;-0.80080044;1.4734613;0.08947373;;;;;;;;;;;;;;;
1751.0;1690.2;;;;-0.80926144;1.4443208;0.09986879;;;;;;;;;;;;;;;
1751.0;1690.2;;;;-0.8194238;1.4201471;0.1066971;;;;;;;;;;;;;;;
1751.0;1690.2;;;;-0.8000375;1.3986436;0.13480379;;;;;;;;;;;;;;;
1751.0;1690.2;;;;-0.77331173;1.3803979;0.14944841;;;;;;;;;;;;;;;
1751.0;1700.2;;;;-0.77168286;1.3564492;0.15421678;;;;;;;;;;;;;;;
1751.0;1700.2;;;;-0.7809793;1.3311273;0.16372682;;;;;;;;;;;;;;;
1751.0;1700.2;;;;-0.7868844;1.306038;0.17737962;;;;;;;;;;;;;;;
1751.0;1700.2;;;;-0.7857667;1.2810212;0.1898804;;;;;;;;;;;;;;;
1751.0;1700.2;;;;-0.78213894;1.2557832;0.2000275;;;;;;;;;;;;;;;
1751.0;1702.9;262143;262143;12032;;;;;;;;;;;;;;;;;;
1751.0;1710.3;;;;-0.7777902;1.2308389;0.20838931;;;;;;;;;;;;;;;
1751.0;1710.3;;;;-0.7741357;1.2079774;0.21809009;;;;;;;;;;;;;;;
1751.0;1710.3;;;;-0.77411664;1.1839296;0.22621158;;;;;;;;;;;;;;;
1751.0;1710.3;;;;-0.7751771;1.1627198;0.2325745;;;;;;;;;;;;;;;
1751.0;1710.3;;;;-0.7757417;1.1440393;0.23847964;;;;;;;;;;;;;;;
1760.0;1720.5;;;;;;;;;;;;;;;;;-3.0594807;-37.7781;-76.72353;;1619.2
1760.0;1720.5;;;;;;;;;;;;;;-1.7852107;-0.5039216;-0.17188025;;;;;1619.2
1760.0;1720.5;;;;;;;;;;;;;;;;;-4.890591;-30.976288;-70.242165;;1619.2
1760.0;1720.5;;;;;;;;;;;;;;-1.8586383;-0.5915708;-0.14960173;;;;;1619.2
1760.0;1720.5;;;;;;;;;;;;;;;;;-5.3140354;-26.825771;-65.22187;;1628.8
1760.0;1720.5;;;;;;;;;;;;;;-1.8546709;-0.631489;-0.12891018;;;;;1628.8
1760.0;1720.5;;;;;;;;;;;;;;;;;-5.645924;-24.239326;-62.349316;;1628.8
1760.0;1720.5;;;;;;;;;;;;;;-1.8048646;-0.65883356;-0.113406785;;;;;1628.8
1760.0;1720.5;;;;;;;;;;;;;;;;;-5.8290353;-22.728659;-59.675133;;1638.5
1760.0;1720.5;;;;;;;;;;;;;;-1.7418745;-0.6969207;-0.08398694;;;;;1638.5
1760.0;1720.5;;;;;;;;;;;;;;;;;-5.794702;-22.690512;-57.805874;;1638.5
1760.0;1720.5;;;;;;;;;;;;;;-1.6450697;-0.7005829;-0.054994356;;;;;1638.5
1760.0;1720.3;;;;-0.77741253;1.1255914;0.24258807;;;;;;;;;;;;;;;
1760.0;1720.3;;;;-0.77902615;1.1064569;0.24659732;;;;;;;;;;;;;;;
1760.0;1720.3;;;;-0.7787057;1.0885507;0.25013354;;;;;;;;;;;;;;;
1760.0;1720.3;;;;-0.7765428;1.0732461;0.25267413;;;;;;;;;;;;;;;
1760.0;1720.3;;;;-0.7742616;1.0580903;0.25511554;;;;;;;;;;;;;;;
1761.0;1721.2;;;;;;;;;;;;;;;;;-5.4399247;-22.194586;-56.5775;;1648.1
1761.0;1721.2;;;;;;;;;;;;;;-1.5428938;-0.65303504;-0.026978362;;;;;1648.1
1761.0;1721.2;;;;;;;;;;;;;;;;;-6.3592944;-20.237587;-55.272835;;1648.1
1761.0;1721.2;;;;;;;;;;;;;;-1.4386425;-0.5390179;0.0037232582;;;;;1648.1
1761.0;1721.2;;;;;;;;;;;;;;;;;-10.219886;-18.154697;-53.0488;;1657.8
1761.0;1721.2;;;;;;;;;;;;;;-1.3412884;-0.45960876;-2.4414808E-4;;;;;1657.8
1761.0;1721.2;;;;;;;;;;;;;;;;;-14.736626;-16.361736;-49.142433;;1657.8
1761.0;1721.2;;;;;;;;;;;;;;-1.2671895;-0.4100467;-0.0027466659;;;;;1657.8
1761.0;1721.2;;;;;;;;;;;;;;;;;-18.704031;-15.175328;-44.47691;;1667.4
1761.0;1721.2;;;;;;;;;;;;;;-1.1855831;-0.3884396;-0.010681478;;;;;1667.4
1761.0;1721.2;;;;;;;;;;;;;;;;;-21.298105;-14.2407;-39.502396;;1667.4
1761.0;1721.2;;;;;;;;;;;;;;-1.1110568;-0.37769708;-0.01721244;;;;;1667.4
1761.0;1722.9;262143;262143;12040;;;;;;;;;;;;;;;;;;
1761.0;1729.1;;;;;;;;;;;;;2509;;;;;;;;
1761.0;1729.1;;;;;;;;;;;;;1777;;;;;;;;
1761.0;1729.1;;;;;;;;;;;;;1376;;;;;;;;
1761.0;1729.1;;;;;;;;;;;;;1382;;;;;;;;
1761.0;1729.1;;;;;;;;;;;;;1731;;;;;;;;
1761.0;1730.3;;;;-0.771;1.0419694;0.2563477;;;;;;;;;;;;;;;
1761.0;1730.3;;;;-0.76617444;1.0271226;0.2566109;;;;;;;;;;;;;;;
1761.0;1730.3;;;;-0.763672;1.0143205;0.25555804;;;;;;;;;;;;;;;
1761.0;1730.3;;;;-0.759369;1.0025064;0.25462726;;;;;;;;;;;;;;;
1761.0;1730.3;;;;-0.7552377;0.99113476;0.2526169;;;;;;;;;;;;;;;
1812.0;1739.9;;;;;;;;;;0.6981109;18.11655;-3.646962;;;;;;;;;
1812.0;1739.9;;;;;;;0.41444135;-1.5256203;0.10834071;;;;;;;;;;;;
1812.0;1739.9;;;;;;;;;;6.0197763;31.922363;8.266702;;;;;;;;;
1812.0;1739.9;;;;;;;0.4297006;-1.6425672;0.096804716;;;;;;;;;;;;
1812.0;1740.3;;;;-0.7490998;0.981331;0.25005725;;;;;;;;;;;;;;;
1812.0;1740.3;;;;-0.7450295;0.9711;0.24455264;;;;;;;;;;;;;;;
1812.0;1740.3;;;;-0.74535376;0.9613725;0.23918918;;;;;;;;;;;;;;;
1812.0;1740.3;;;;-0.74877936;0.9521371;0.2347565;;;;;;;;;;;;;;;
1812.0;1740.3;;;;-0.7537614;0.9431077;0.23118594;;;;;;;;;;;;;;;
1812.0;1743.1;262143;262143;12039;;;;;;;;;;;;;;;;;;
1812.0;1749.5;;;;;;;;;;2.9259622;5.123295;5.1881466;;;;;;;;;
1812.0;1749.5;;;;;;;0.3961913;-1.5651723;0.074648276;;;;;;;;;;;;
1812.0;1749.5;;;;;;;;;;9.910886;18.017365;6.3135166;;;;;;;;;
1812.0;1749.5;;;;;;;0.3655507;-1.4864956;0.06140324;;;;;;;;;;;;
1812.0;1750.4;;;;-0.7553445;0.9351846;0.22921374;;;;;;;;;;;;;;;
1812.0;1750.4;;;;-0.7533723;0.92774975;0.22945026;;;;;;;;;;;;;;;
1812.0;1750.4;;;;-0.74792486;0.9207574;0.2278252;;;;;;;;;;;;;;;
1812.0;1750.4;;;;-0.7412911;0.9131242;0.2271767;;;;;;;;;;;;;;;
1812.0;1750.4;;;;-0.73468405;0.90366375;0.22721484;;;;;;;;;;;;;;;
1812.0;1759.0;;;;;;;;;;13.206885;18.566698;2.7352216;;;;;;;;;
1812.0;1759.0;;;;;;;0.33942688;-1.412885;0.059694204;;;;;;;;;;;;
1812.0;1759.0;;;;;;;;;;10.517442;-18.85281;-24.285105;;;;;;;;;
1812.0;1759.0;;;;;;;0.3233131;-1.3467818;0.064210944;;;;;;;;;;;;
1817.0;1760.4;;;;-0.72930914;0.89239514;0.22783282;;;;;;;;;;;;;;;
1817.0;1760.4;;;;-0.72536093;0.88129056;0.22840121;;;;;;;;;;;;;;;
1817.0;1760.4;;;;-0.72274405;0.8697511;0.22954181;;;;;;;;;;;;;;;
1817.0;1760.4;;;;-0.71783835;0.8586122;0.23170474;;;;;;;;;;;;;;;
1817.0;1760.4;;;;-0.71098715;0.84801114;0.23241046;;;;;;;;;;;;;;;
1817.0;1763.2;262143;262143;12037;;;;;;;;;;;;;;;;;;
1817.0;1768.6;;;;;;;;;;12.279885;-21.82455;-33.658104;;;;;;;;;
1817.0;1768.6;;;;;;;0.30896938;-1.2859279;0.07678457;;;;;;;;;;;;
1817.0;1768.6;;;;;;;;;;13.264108;-25.406658;-44.778282;;;;;;;;;
1817.0;1768.6;;;;;;;0.29963073;-1.2358775;0.090029605;;;;;;;;;;;;
1817.0;1769.3;;;;;;;;;;;;;2265;;;;;;;;
1817.0;1769.3;;;;;;;;;;;;;2361;;;;;;;;
1817.0;1769.3;;;;;;;;;;;;;1550;;;;;;;;
1817.0;1769.3;;;;;;;;;;;;;392;;;;;;;;
1817.0;1769.3;;;;;;;;;;;;;85;;;;;;;;
1817.0;1770.5;;;;-0.70161444;0.83786786;0.23183826;;;;;;;;;;;;;;;
1817.0;1770.5;;;;-0.69086844;0.829178;0.23267749;;;;;;;;;;;;;;;
1817.0;1770.5;;;;-0.68103415;0.8205186;0.23248294;;;;;;;;;;;;;;;
1817.0;1770.5;;;;-0.6740914;0.8116456;0.22977069;;;;;;;;;;;;;;;
1817.0;1770.5;;;;-0.66940695;0.8017999;0.22717288;;;;;;;;;;;;;;;
1817.0;1778.3;;;;;;;;;;12.733848;-21.94281;-50.618763;;;;;;;;;
1817.0;1778.3;;;;;;;0.28815576;-1.1955931;0.10480056;;;;;;;;;;;;
1817.0;1778.3;;;;;;;;;;10.475478;-17.067476;-51.358837;;;;;;;;;
1817.0;1778.3;;;;;;;0.276986;-1.1719108;0.12048708;;;;;;;;;;;;
1818.0;1780.4;;;;;;;;;;;;;;;;;-21.900846;-12.253182;-33.619953;;1677.1
1818.0;1780.4;;;;;;;;;;;;;;-1.0727257;-0.38496047;-0.0040894803;;;;;1677.1
1818.0;1780.4;;;;;;;;;;;;;;;;;-20.386364;-11.078218;-27.500992;;1677.1
1818.0;1780.4;;;;;;;;;;;;;;-1.0228584;-0.37659842;0.008850368;;;;;1677.1
1818.0;1780.4;;;;;;;;;;;;;;;;;-17.456587;-10.364849;-21.820736;;1686.5
1818.0;1780.4;;;;;;;;;;;;;;-0.97183144;-0.34833828;0.029663991;;;;;1686.5
1818.0;1780.4;;;;;;;;;;;;;;;;;-13.832514;-10.208442;-16.640219;;1686.5
1818.0;1780.4;;;;;;;;;;;;;;-0.9220252;-0.33930477;0.054017764;;;;;1686.5
1818.0;1780.4;;;;;;;;;;;;;;;;;-9.334849;-10.597552;-11.535996;;1696.1
1818.0;1780.4;;;;;;;;;;;;;;-0.90145576;-0.32050538;0.080141604;;;;;1696.1
1818.0;1780.4;;;;;;;;;;;;;;;;;-4.9592576;-12.295145;-6.7522206;;1696.1
1818.0;1780.4;;;;;;;;;;;;;;-0.86629844;-0.2811365;0.09765923;;;;;1696.1
1818.0;1780.5;;;;-0.6628075;0.7931253;0.22492221;;;;;;;;;;;;;;;
1818.0;1780.5;;;;-0.65222555;0.7869226;0.22362521;;;;;;;;;;;;;;;
1818.0;1780.5;;;;-0.651825;0.7765542;0.21490481;;;;;;;;;;;;;;;
1818.0;1780.5;;;;-0.65599066;0.7656671;0.20956424;;;;;;;;;;;;;;;
1818.0;1780.5;;;;-0.65567786;0.75743115;0.20704654;;;;;;;;;;;;;;;
1822.0;1781.2;;;;;;;;;;;;;;;;;-1.9989624;-13.958403;-1.9684439;;1705.8
1822.0;1781.2;;;;;;;;;;;;;;-0.8348643;-0.23407696;0.12060915;;;;;1705.8
1822.0;1781.2;;;;;;;;;;;;;;;;;-0.4768517;-15.503403;3.07474;;1705.8
1822.0;1781.2;;;;;;;;;;;;;;-0.7818842;-0.20068972;0.14166692;;;;;1705.8
1822.0;1781.2;;;;;;;;;;;;;;;;;0.29374066;-15.942106;8.262887;;1715.5
1822.0;1781.2;;;;;;;;;;;;;;-0.7367168;-0.17365032;0.16016114;;;;;1715.5
1822.0;1781.2;;;;;;;;;;;;;;;;;0.2822962;-15.518662;13.592181;;1715.5
1822.0;1781.2;;;;;;;;;;;;;;-0.6889859;-0.14911343;0.16284677;;;;;1715.5
1822.0;1781.2;;;;;;;;;;;;;;;;;-0.9117405;-14.034699;18.974884;;1725.1
1822.0;1781.2;;;;;;;;;;;;;;-0.64638203;-0.12921537;0.15558337;;;;;1725.1
1822.0;1781.2;;;;;;;;;;;;;;;;;-3.3494065;-12.157811;24.132511;;1725.1
1822.0;1781.2;;;;;;;;;;;;;;-0.6110416;-0.10480056;0.14307077;;;;;1725.1
1822.0;1783.3;262143;262143;12038;;;;;;;;;;;;;;;;;;
1822.0;1787.7;;;;;;;;;;7.992035;-20.172735;-57.065796;;;;;;;;;
1822.0;1787.7;;;;;;;0.28199103;-1.1535996;0.12781152;;;;;;;;;;;;
1822.0;1787.7;;;;;;;;;;4.9630723;-22.12592;-62.990204;;;;;;;;;
1822.0;1787.7;;;;;;;0.28699607;-1.1534165;0.13953063;;;;;;;;;;;;
1822.0;1790.5;;;;-0.65323645;0.750599;0.20019153;;;;;;;;;;;;;;;
1822.0;1790.5;;;;-0.64945227;0.7453156;0.19479373;;;;;;;;;;;;;;;
1822.0;1790.5;;;;-0.64495856;0.7414208;0.18957904;;;;;;;;;;;;;;;
1822.0;1790.5;;;;-0.6403809;0.7365418;0.18356706;;;;;;;;;;;;;;;
1822.0;1790.5;;;;-0.63296515;0.7319451;0.18035509;;;;;;;;;;;;;;;
1873.0;1797.2;;;;;;;;;;2.5101473;-23.983734;-67.949455;;;;;;;;;
1873.0;1797.2;;;;;;;0.27265236;-1.1639149;0.14123966;;;;;;;;;;;;
1873.0;1797.2;;;;;;;;;;-0.08774071;-25.555437;-71.49724;;;;;;;;;
1873.0;1797.2;;;;;;;0.27875605;-1.1664175;0.14569536;;;;;;;;;;;;
1873.0;1800.5;;;;-0.6242104;0.72707754;0.17579271;;;;;;;;;;;;;;;
1873.0;1800.5;;;;-0.61406714;0.723404;0.17351152;;;;;;;;;;;;;;;
1873.0;1800.5;;;;-0.6021653;0.7213822;0.17188646;;;;;;;;;;;;;;;
1873.0;1800.5;;;;-0.59215933;0.716755;0.16937639;;;;;;;;;;;;;;;
1873.0;1800.5;;;;-0.5823594;0.7113877;0.16746904;;;;;;;;;;;;;;;
1873.0;1803.4;262143;262143;12033;;;;;;;;;;;;;;;;;;
1873.0;1806.8;;;;;;;;;;-2.6245918;-26.955475;-74.850464;;;;;;;;;
1873.0;1806.8;;;;;;;0.28394422;-1.1681265;0.14429152;;;;;;;;;;;;
1873.0;1806.8;;;;;;;;;;-5.1080356;-28.126621;-77.84509;;;;;;;;;
1873.0;1806.8;;;;;;;0.2948088;-1.1617175;0.14142278;;;;;;;;;;;;
1873.0;1809.5;;;;;;;;;;;;;900;;;;;;;;
1873.0;1809.5;;;;;;;;;;;;;1711;;;;;;;;
1873.0;1809.5;;;;;;;;;;;;;1488;;;;;;;;
1873.0;1809.5;;;;;;;;;;;;;500;;;;;;;;
1873.0;1809.5;;;;;;;;;;;;;-232;;;;;;;;
1873.0;1810.5;;;;-0.5720864;0.70768744;0.16648866;;;;;;;;;;;;;;;
1873.0;1810.5;;;;-0.56381994;0.70250326;0.16537859;;;;;;;;;;;;;;;
1873.0;1810.5;;;;-0.5533677;0.6985665;0.16648866;;;;;;;;;;;;;;;
1873.0;1810.5;;;;-0.54280096;0.69617087;0.1677437;;;;;;;;;;;;;;;
1873.0;1810.5;;;;-0.535698;0.6925927;0.167408;;;;;;;;;;;;;;;
1875.0;1816.2;;;;;;;;;;-7.4808497;-28.64162;-80.43534;;;;;;;;;
1875.0;1816.2;;;;;;;0.31940672;-1.1499984;0.13861507;;;;;;;;;;;;
1875.0;1816.2;;;;;;;;;;-9.92233;-28.057955;-82.6632;;;;;;;;;
1875.0;1816.2;;;;;;;0.33973205;-1.1369976;0.13776055;;;;;;;;;;;;
1875.0;1820.4;;;;-0.5293427;0.6892472;0.17018129;;;;;;;;;;;;;;;
1875.0;1820.4;;;;-0.5218392;0.68627554;0.17274477;;;;;;;;;;;;;;;
1875.0;1820.4;;;;-0.51523596;0.68436056;0.17467119;;;;;;;;;;;;;;;
1875.0;1820.4;;;;-0.5110741;0.68259054;0.17690279;;;;;;;;;;;;;;;
1875.0;1820.4;;;;-0.50685126;0.6808434;0.18065263;;;;;;;;;;;;;;;
1875.0;1823.4;262143;262143;12023;;;;;;;;;;;;;;;;;;
1875.0;1825.8;;;;;;;;;;-12.1807;-26.7304;-84.303566;;;;;;;;;
1875.0;1825.8;;;;;;;0.35364848;-1.1216773;0.13245033;;;;;;;;;;;;
1875.0;1825.8;;;;;;;;;;-14.366589;-24.864954;-85.28397;;;;;;;;;
1875.0;1825.8;;;;;;;0.36579487;-1.1085544;0.12927641;;;;;;;;;;;;
1875.0;1830.6;;;;-0.5021363;0.6788178;0.18324281;;;;;;;;;;;;;;;
1875.0;1830.6;;;;-0.49861914;0.6767617;0.18618013;;;;;;;;;;;;;;;
1875.0;1830.6;;;;-0.4944535;0.6754609;0.18973544;;;;;;;;;;;;;;;
1875.0;1830.6;;;;-0.4906655;0.67363745;0.19372562;;;;;;;;;;;;;;;
1875.0;1830.6;;;;-0.4877625;0.67109305;0.19590762;;;;;;;;;;;;;;;
1875.0;1835.4;;;;;;;;;;-16.254921;-22.453993;-85.68453;;;;;;;;;
1875.0;1835.4;;;;;;;0.37995544;-1.0862148;0.12372204;;;;;;;;;;;;
1875.0;1835.4;;;;;;;;;;-17.994476;-19.74929;-85.85239;;;;;;;;;
1875.0;1835.4;;;;;;;0.38605914;-1.0624714;0.11981567;;;;;;;;;;;;
1880.0;1840.6;;;;-0.48476797;0.66756064;0.19913104;;;;;;;;;;;;;;;
1880.0;1840.6;;;;-0.47909933;0.6651841;0.20210269;;;;;;;;;;;;;;;
1880.0;1840.6;;;;-0.47454458;0.6624909;0.20388797;;;;;;;;;;;;;;;
1880.0;1840.6;;;;-0.47282416;0.6585198;0.2046471;;;;;;;;;;;;;;;
1880.0;1840.6;;;;-0.46906668;0.6540795;0.20806506;;;;;;;;;;;;;;;
1880.0;1841.1;;;;;;;;;;;;;;;;;-7.0764794;-10.677664;28.855251;;1734.8
1880.0;1841.1;;;;;;;;;;;;;;-0.58656573;-0.09173864;0.13281655;;;;;1734.8
1880.0;1841.1;;;;;;;;;;;;;;;;;-11.402478;-9.346293;33.59325;;1734.8
1880.0;1841.1;;;;;;;;;;;;;;-0.5721;-0.08990753;0.11413923;;;;;1734.8
1880.0;1841.1;;;;;;;;;;;;;;;;;-15.636921;-8.404035;38.37321;;1744.3
1880.0;1841.1;;;;;;;;;;;;;;-0.55690175;-0.083803825;0.100711085;;;;;1744.3
1880.0;1841.1;;;;;;;;;;;;;;;;;-19.722586;-8.003479;42.6191;;1744.3
1880.0;1841.1;;;;;;;;;;;;;;-0.5426191;-0.09234901;0.086123236;;;;;1744.3
1880.0;1841.1;;;;;;;;;;;;;;;;;-22.94229;-8.095035;46.62084;;1754.0
1880.0;1841.1;;;;;;;;;;;;;;-0.53822446;-0.115543075;0.079775386;;;;;1754.0
1880.0;1841.1;;;;;;;;;;;;;;;;;-25.002289;-8.251442;50.637836;;1754.0
1880.0;1841.1;;;;;;;;;;;;;;-0.5316324;-0.12805566;0.07086398;;;;;1754.0
1882.0;1841.8;;;;;;;;;;;;;;;;;-27.024141;-8.030183;54.46791;;1763.6
1882.0;1841.8;;;;;;;;;;;;;;-0.5205237;-0.12451552;0.0601825;;;;;1763.6
1882.0;1841.8;;;;;;;;;;;;;;;;;-29.96536;-6.9505906;57.912685;;1763.6
1882.0;1841.8;;;;;;;;;;;;;;-0.5085604;-0.11737419;0.037598804;;;;;1763.6
1882.0;1841.8;;;;;;;;;;;;;;;;;-33.734398;-4.863888;60.872982;;1773.3
1882.0;1841.8;;;;;;;;;;;;;;-0.49897763;-0.0987579;0.014404736;;;;;1773.3
1882.0;1841.8;;;;;;;;;;;;;;;;;-38.59447;-2.1401105;63.25724;;1773.3
1882.0;1841.8;;;;;;;;;;;;;;-0.48725852;-0.060975984;-0.018127995;;;;;1773.3
1882.0;1841.8;;;;;;;;;;;;;;;;;-44.770653;0.75914794;64.91669;;1782.9
1882.0;1841.8;;;;;;;;;;;;;;-0.4839015;-0.018677328;-0.044984285;;;;;1782.9
1882.0;1841.8;;;;;;;;;;;;;;;;;-52.476578;2.9869993;65.96576;;1782.9
1882.0;1841.8;;;;;;;;;;;;;;-0.47889644;0.021729179;-0.05694754;;;;;1782.9
1882.0;1843.6;262143;262143;12021;;;;;;;;;;;;;;;;;;
1882.0;1844.9;;;;;;;;;;-19.36781;-16.697441;-85.52431;;;;;;;;;
1882.0;1844.9;;;;;;;0.3991821;-1.0383618;0.1142613;;;;;;;;;;;;
1882.0;1844.9;;;;;;;;;;-20.649586;-12.981811;-85.19242;;;;;;;;;
1882.0;1844.9;;;;;;;0.41126743;-1.0088198;0.108401746;;;;;;;;;;;;
1882.0;1849.6;;;;;;;;;;;;;-231;;;;;;;;
1882.0;1849.6;;;;;;;;;;;;;166;;;;;;;;
1882.0;1849.6;;;;;;;;;;;;;449;;;;;;;;
1882.0;1849.6;;;;;;;;;;;;;380;;;;;;;;
1882.0;1849.6;;;;;;;;;;;;;53;;;;;;;;
1883.0;1850.6;;;;-0.46282202;0.6508103;0.21055987;;;;;;;;;;;;;;;
1883.0;1850.6;;;;-0.4561196;0.64849097;0.21289828;;;;;;;;;;;;;;;
1883.0;1850.6;;;;-0.4512406;0.64594275;0.21410373;;;;;;;;;;;;;;;
1883.0;1850.6;;;;-0.44627005;0.64236075;0.2149544;;;;;;;;;;;;;;;
1883.0;1850.6;;;;-0.44222647;0.63784415;0.21671298;;;;;;;;;;;;;;;
1883.0;1854.5;;;;;;;;;;-21.649069;-8.6405525;-84.94827;;;;;;;;;
1883.0;1854.5;;;;;;;0.42420727;-0.98391676;0.10388501;;;;;;;;;;;;
1883.0;1854.5;;;;;;;;;;-22.408215;-3.5744805;-84.261604;;;;;;;;;
1883.0;1854.5;;;;;;;0.43195897;-0.9617603;0.0994293;;;;;;;;;;;;
1883.0;1860.6;;;;-0.4375382;0.63317496;0.21708682;;;;;;;;;;;;;;;
1883.0;1860.6;;;;-0.43239218;0.62795264;0.21771243;;;;;;;;;;;;;;;
1883.0;1860.6;;;;-0.42939383;0.6230927;0.21826175;;;;;;;;;;;;;;;
1883.0;1860.6;;;;-0.4280396;0.61920935;0.21803287;;;;;;;;;;;;;;;
1883.0;1860.6;;;;-0.42884833;0.61513144;0.2180138;;;;;;;;;;;;;;;
1883.0;1864.1;;;;;;;;;;-22.957548;2.0561848;-83.311714;;;;;;;;;
1883.0;1864.1;;;;;;;0.43537706;-0.94106877;0.09833064;;;;;;;;;;;;
1883.0;1864.1;;;;;;;;;;-23.281807;7.976775;-82.38853;;;;;;;;;
1883.0;1864.1;;;;;;;0.43769646;-0.91976684;0.09582812;;;;;;;;;;;;
1883.0;1863.7;262143;262143;12018;;;;;;;;;;;;;;;;;;
1936.0;1870.5;;;;-0.43038946;0.6107102;0.21770862;;;;;;;;;;;;;;;
1936.0;1870.5;;;;-0.432499;0.6062661;0.2169762;;;;;;;;;;;;;;;
1936.0;1870.5;;;;-0.43492895;0.6013337;0.21520618;;;;;;;;;;;;;;;
1936.0;1870.5;;;;-0.4376908;0.59649664;0.21359637;;;;;;;;;;;;;;;
1936.0;1870.5;;;;-0.44067007;0.5919648;0.2117882;;;;;;;;;;;;;;;
1936.0;1873.3;;;;;;;;;;-23.384808;14.187292;-81.51112;;;;;;;;;
1936.0;1873.3;;;;;;;0.4328135;-0.89999086;0.09533983;;;;;;;;;;;;
1936.0;1873.3;;;;;;;;;;-23.216955;20.451216;-80.42771;;;;;;;;;
1936.0;1873.3;;;;;;;0.42432937;-0.88320565;0.09399701;;;;;;;;;;;;
1936.0;1880.3;;;;-0.443451;0.5872384;0.20964053;;;;;;;;;;;;;;;
1936.0;1880.3;;;;-0.4447556;0.58274466;0.20692447;;;;;;;;;;;;;;;
1936.0;1880.3;;;;-0.4467278;0.57794577;0.20350268;;;;;;;;;;;;;;;
1936.0;1880.3;;;;-0.4481011;0.572918;0.19952396;;;;;;;;;;;;;;;
1936.0;1880.3;;;;-0.4485932;0.5679055;0.19693378;;;;;;;;;;;;;;;
1936.0;1882.8;;;;;;;;;;-22.827845;26.097141;-79.37864;;;;;;;;;
1936.0;1882.8;;;;;;;0.41248816;-0.8658101;0.091677606;;;;;;;;;;;;
1936.0;1882.8;;;;;;;;;;-22.244177;30.93051;-78.352455;;;;;;;;;
1936.0;1882.8;;;;;;;0.39100313;-0.852443;0.08941923;;;;;;;;;;;;
1936.0;1883.5;262143;262143;12008;;;;;;;;;;;;;;;;;;
1936.0;1889.6;;;;;;;;;;;;;-442;;;;;;;;
1936.0;1889.6;;;;;;;;;;;;;-971;;;;;;;;
1936.0;1889.6;;;;;;;;;;;;;-1226;;;;;;;;
1936.0;1889.6;;;;;;;;;;;;;-1024;;;;;;;;
1936.0;1889.6;;;;;;;;;;;;;-414;;;;;;;;
1939.0;1890.5;;;;-0.44779593;0.56301886;0.19372562;;;;;;;;;;;;;;;
1939.0;1890.5;;;;-0.44743353;0.55824286;0.19105151;;;;;;;;;;;;;;;
1939.0;1890.5;;;;-0.44800574;0.5543633;0.18848804;;;;;;;;;;;;;;;
1939.0;1890.5;;;;-0.44839102;0.5501328;0.18674852;;;;;;;;;;;;;;;
1939.0;1890.5;;;;-0.44940192;0.54677206;0.18634035;;;;;;;;;;;;;;;
1939.0;1892.5;;;;;;;;;;-21.488846;35.02762;-77.307205;;;;;;;;;
1939.0;1892.5;;;;;;;0.37189856;-0.8386486;0.090029605;;;;;;;;;;;;
1939.0;1892.5;;;;;;;;;;-20.626698;38.8081;-76.193275;;;;;;;;;
1939.0;1892.5;;;;;;;0.3490707;-0.8252205;0.09454634;;;;;;;;;;;;
1939.0;1900.6;;;;;;;;;;;;;;;;;-60.93783;4.7647023;66.37776;;1792.6
1939.0;1900.6;;;;;;;;;;;;;;-0.48878446;0.07092502;-0.06738487;;;;;1792.6
1939.0;1900.6;;;;;;;;;;;;;;;;;-70.37568;6.2448497;66.2595;;1792.6
1939.0;1900.6;;;;;;;;;;;;;;-0.5056917;0.11603137;-0.07757805;;;;;1792.6
1939.0;1900.6;;;;;;;;;;;;;;;;;-79.94323;7.7288127;66.99957;;1802.3
1939.0;1900.6;;;;;;;;;;;;;;-0.5341349;0.12665181;-0.08856472;;;;;1802.3
1939.0;1900.6;;;;;;;;;;;;;;;;;-89.35056;9.155553;68.613235;;1802.3
1939.0;1900.6;;;;;;;;;;;;;;-0.5670949;0.09460738;-0.101504564;;;;;1802.3
1939.0;1900.6;;;;;;;;;;;;;;;;;-97.55242;10.425886;70.83346;;1811.9
1939.0;1900.6;;;;;;;;;;;;;;-0.5991394;0.012878811;-0.117313154;;;;;1811.9
1939.0;1900.6;;;;;;;;;;;;;;;;;-102.6223;11.566515;74.20576;;1811.9
1939.0;1900.6;;;;;;;;;;;;;;-0.6283151;-0.10925627;-0.11810663;;;;;1811.9
1942.0;1900.5;;;;-0.45024878;0.54401785;0.18508531;;;;;;;;;;;;;;;
1942.0;1900.5;;;;-0.4520951;0.5413285;0.18358995;;;;;;;;;;;;;;;
1942.0;1900.5;;;;-0.45459372;0.5391579;0.18217851;;;;;;;;;;;;;;;
1942.0;1900.5;;;;-0.45711523;0.5372849;0.18117143;;;;;;;;;;;;;;;
1942.0;1900.5;;;;-0.45917898;0.53594977;0.17992403;;;;;;;;;;;;;;;
1942.0;1901.4;;;;;;;;;;;;;;;;;-103.27845;11.810663;78.573715;;1821.6
1942.0;1901.4;;;;;;;;;;;;;;-0.66566974;-0.24561296;-0.10357982;;;;;1821.6
1942.0;1901.4;;;;;;;;;;;;;;;;;-99.20804;10.631886;82.796715;;1821.6
1942.0;1901.4;;;;;;;;;;;;;;-0.68477434;-0.35688344;-0.080446795;;;;;1821.6
1942.0;1901.4;;;;;;;;;;;;;;;;;-90.66286;8.552812;86.41698;;1831.3
1942.0;1901.4;;;;;;;;;;;;;;-0.69075596;-0.44349498;-0.052797023;;;;;1831.3
1942.0;1901.4;;;;;;;;;;;;;;;;;-79.096344;6.0541096;89.2819;;1831.3
1942.0;1901.4;;;;;;;;;;;;;;-0.7053438;-0.52717674;-0.034363844;;;;;1831.3
1942.0;1901.4;;;;;;;;;;;;;;;;;-65.6148;3.2425916;91.25416;;1841.0
1942.0;1901.4;;;;;;;;;;;;;;-0.7115085;-0.5876644;-0.017090365;;;;;1841.0
1942.0;1901.4;;;;;;;;;;;;;;;;;-52.743614;0.93844414;92.036194;;1841.0
1942.0;1901.4;;;;;;;;;;;;;;-0.6916715;-0.6283761;-0.033082064;;;;;1841.0
1942.0;1901.8;;;;;;;;;;-19.810328;42.73736;-75.10224;;;;;;;;;
1942.0;1901.8;;;;;;;0.33759576;-0.80953395;0.09424116;;;;;;;;;;;;
1942.0;1901.8;;;;;;;;;;-19.032106;46.67806;-74.106575;;;;;;;;;
1942.0;1901.8;;;;;;;0.32166508;-0.79989016;0.09619434;;;;;;;;;;;;
1942.0;1903.6;262143;262143;12009;;;;;;;;;;;;;;;;;;
1945.0;1910.3;;;;-0.46096045;0.5352822;0.17988588;;;;;;;;;;;;;;;
1945.0;1910.3;;;;-0.46280295;0.5347329;0.17958833;;;;;;;;;;;;;;;
1945.0;1910.3;;;;-0.4636765;0.53433615;0.17881776;;;;;;;;;;;;;;;
1945.0;1910.3;;;;-0.46496588;0.53504187;0.17904283;;;;;;;;;;;;;;;
1945.0;1910.3;;;;-0.46691138;0.5356522;0.1791382;;;;;;;;;;;;;;;
1945.0;1911.4;;;;;;;;;;-18.03644;50.19913;-73.09946;;;;;;;;;
1945.0;1911.4;;;;;;;0.30463576;-0.7903684;0.10065004;;;;;;;;;;;;
1945.0;1911.4;;;;;;;;;;-17.014069;53.304394;-72.1572;;;;;;;;;
1945.0;1911.4;;;;;;;0.28949857;-0.7820673;0.10199286;;;;;;;;;;;;
1945.0;1920.3;;;;-0.469204;0.536522;0.17881013;;;;;;;;;;;;;;;
1945.0;1920.3;;;;-0.4724198;0.53757864;0.17876054;;;;;;;;;;;;;;;
1945.0;1920.3;;;;-0.4755898;0.5383797;0.17891695;;;;;;;;;;;;;;;
1945.0;1920.3;;;;-0.47951895;0.5396729;0.17835619;;;;;;;;;;;;;;;
1945.0;1920.3;;;;-0.48393255;0.5413552;0.17835619;;;;;;;;;;;;;;;
1945.0;1920.9;;;;;;;;;;-15.758995;55.120243;-71.26835;;;;;;;;;
1945.0;1920.9;;;;;;;0.26618245;-0.77352214;0.1060213;;;;;;;;;;;;
1945.0;1920.9;;;;;;;;;;-14.255959;55.68102;-70.28794;;;;;;;;;
1945.0;1920.9;;;;;;;0.24542986;-0.7660146;0.10901212;;;;;;;;;;;;
1945.0;1923.6;262143;262143;12005;;;;;;;;;;;;;;;;;;
1945.0;1929.6;;;;;;;;;;;;;210;;;;;;;;
1945.0;1929.6;;;;;;;;;;;;;568;;;;;;;;
1945.0;1929.6;;;;;;;;;;;;;651;;;;;;;;
1945.0;1929.6;;;;;;;;;;;;;121;;;;;;;;
1945.0;1929.6;;;;;;;;;;;;;-754;;;;;;;;
1997.0;1930.4;;;;-0.4883576;0.5422326;0.17884828;;;;;;;;;;;;;;;
1997.0;1930.4;;;;-0.492405;0.5436478;0.17855074;;;;;;;;;;;;;;;
1997.0;1930.4;;;;-0.4959107;0.54534155;0.1786957;;;;;;;;;;;;;;;
1997.0;1930.4;;;;-0.49934775;0.54689413;0.17896272;;;;;;;;;;;;;;;
1997.0;1930.4;;;;-0.5021668;0.5484734;0.17898561;;;;;;;;;;;;;;;
1997.0;1930.5;;;;;;;;;;-12.745293;55.410168;-69.32661;;;;;;;;;
1997.0;1930.5;;;;;;;0.23853268;-0.7545396;0.11139256;;;;;;;;;;;;
1997.0;1930.5;;;;;;;;;;-11.379589;54.845573;-68.849754;;;;;;;;;
1997.0;1930.5;;;;;;;0.23206274;-0.74666584;0.116214484;;;;;;;;;;;;
1997.0;1940.0;;;;;;;;;;-9.807885;53.693504;-68.25846;;;;;;;;;
1997.0;1940.0;;;;;;;0.22205268;-0.74434644;0.119205296;;;;;;;;;;;;
1997.0;1940.0;;;;;;;;;;-8.171331;51.957764;-67.37724;;;;;;;;;
1997.0;1940.0;;;;;;;0.21179846;-0.741966;0.12152471;;;;;;;;;;;;
1997.0;1940.4;;;;-0.5053101;0.5503159;0.17900087;;;;;;;;;;;;;;;
1997.0;1940.4;;;;-0.5085259;0.5523415;0.17920686;;;;;;;;;;;;;;;
1997.0;1940.4;;;;-0.5116654;0.5546227;0.17986299;;;;;;;;;;;;;;;
1997.0;1940.4;;;;-0.51523596;0.55675894;0.1796837;;;;;;;;;;;;;;;
1997.0;1940.4;;;;-0.51902395;0.5590058;0.18021394;;;;;;;;;;;;;;;
1997.0;1943.7;262143;262143;12006;;;;;;;;;;;;;;;;;;
1997.0;1949.6;;;;;;;;;;-6.344035;49.607834;-66.37395;;;;;;;;;
1997.0;1949.6;;;;;;;0.20337535;-0.73647267;0.123538926;;;;;;;;;;;;
1997.0;1949.6;;;;;;;;;;-4.589221;46.55217;-65.439316;;;;;;;;;
1997.0;1949.6;;;;;;;0.19263284;-0.73140657;0.12500381;;;;;;;;;;;;
2003.0;1950.5;;;;-0.5228768;0.56130224;0.18019487;;;;;;;;;;;;;;;
2003.0;1950.5;;;;-0.525837;0.5636254;0.18017961;;;;;;;;;;;;;;;
2003.0;1950.5;;;;-0.5287362;0.56618124;0.18087389;;;;;;;;;;;;;;;
2003.0;1950.5;;;;-0.531498;0.56787115;0.1810341;;;;;;;;;;;;;;;
2003.0;1950.5;;;;-0.5338364;0.5699349;0.18166734;;;;;;;;;;;;;;;
2003.0;1959.2;;;;;;;;;;-2.666555;42.836544;-64.4818;;;;;;;;;
2003.0;1959.2;;;;;;;0.17835017;-0.7259133;0.12854396;;;;;;;;;;;;
2003.0;1959.2;;;;;;;;;;-0.6065554;38.346508;-63.310646;;;;;;;;;
2003.0;1959.2;;;;;;;0.1744438;-0.7157811;0.12939848;;;;;;;;;;;;
2003.0;1960.8;;;;;;;;;;;;;;;;;-40.894802;0.3128147;92.03238;;1850.6
2003.0;1960.8;;;;;;;;;;;;;;-0.6740928;-0.6538896;-0.060670797;;;;;1850.6
2003.0;1960.8;;;;;;;;;;;;;;;;;-30.262917;0.26322216;90.91845;;1850.6
2003.0;1960.8;;;;;;;;;;;;;;-0.6537065;-0.6600543;-0.08471938;;;;;1850.6
2003.0;1960.8;;;;;;;;;;;;;;;;;-21.08066;0.0839259;88.73256;;1860.3
2003.0;1960.8;;;;;;;;;;;;;;-0.6156804;-0.65883356;-0.11004975;;;;;1860.3
2003.0;1960.8;;;;;;;;;;;;;;;;;-12.10059;0.96133304;86.59246;;1860.3
2003.0;1960.8;;;;;;;;;;;;;;-0.59315777;-0.65163124;-0.136845;;;;;1860.3
2003.0;1960.8;;;;;;;;;;;;;;;;;-2.9602954;2.9984436;85.83713;;1869.6
2003.0;1960.8;;;;;;;;;;;;;;-0.5944395;-0.6070742;-0.14575641;;;;;1869.6
2003.0;1960.8;;;;;;;;;;;;;;;;;5.043184;4.4099245;84.75753;;1869.6
2003.0;1960.8;;;;;;;;;;;;;;-0.5899228;-0.59279156;-0.13696708;;;;;1869.6
2004.0;1960.6;;;;-0.53565985;0.5717545;0.18268205;;;;;;;;;;;;;;;
2004.0;1960.6;;;;-0.53687674;0.57353216;0.18346407;;;;;;;;;;;;;;;
2004.0;1960.6;;;;-0.53823096;0.57505804;0.1839142;;;;;;;;;;;;;;;
2004.0;1960.6;;;;-0.53927237;0.5771752;0.18432237;;;;;;;;;;;;;;;
2004.0;1960.6;;;;-0.5397721;0.5781632;0.18379976;;;;;;;;;;;;;;;
2004.0;1961.5;;;;;;;;;;;;;;;;;14.118626;4.5739617;83.74279;;1879.3
2004.0;1961.5;;;;;;;;;;;;;;-0.57850885;-0.6407056;-0.090823084;;;;;1879.3
2004.0;1961.5;;;;;;;;;;;;;;;;;21.931364;4.6617026;82.789085;;1879.3
2004.0;1961.5;;;;;;;;;;;;;;-0.5426191;-0.62153995;-0.07061983;;;;;1879.3
2004.0;1961.5;;;;;;;;;;;;;;;;;28.317362;5.954924;80.95798;;1889.0
2004.0;1961.5;;;;;;;;;;;;;;-0.55940425;-0.5991394;-0.03869747;;;;;1889.0
2004.0;1961.5;;;;;;;;;;;;;;;;;32.86462;7.2023683;78.79116;;1889.0
2004.0;1961.5;;;;;;;;;;;;;;-0.57869196;-0.6123234;-0.028199103;;;;;1889.0
2004.0;1961.5;;;;;;;;;;;;;;;;;35.973694;8.819849;76.66631;;1898.6
2004.0;1961.5;;;;;;;;;;;;;;-0.5786309;-0.6354564;-0.03418073;;;;;1898.6
2004.0;1961.5;;;;;;;;;;;;;;;;;36.870174;12.001404;74.25153;;1898.6
2004.0;1961.5;;;;;;;;;;;;;;-0.58107245;-0.65163124;-0.05383465;;;;;1898.6
2004.0;1963.8;262143;262143;12005;;;;;;;;;;;;;;;;;;
2004.0;1968.6;;;;;;;;;;1.2054812;33.867916;-62.623985;;;;;;;;;
2004.0;1968.6;;;;;;;0.18079165;-0.70101017;0.12964264;;;;;;;;;;;;
2004.0;1968.6;;;;;;;;;;3.0709252;29.416029;-62.311165;;;;;;;;;
2004.0;1968.6;;;;;;;0.17188025;-0.6952727;0.131901;;;;;;;;;;;;
2006.0;1969.8;;;;;;;;;;;;;-527;;;;;;;;
2006.0;1969.8;;;;;;;;;;;;;1881;;;;;;;;
2006.0;1969.8;;;;;;;;;;;;;3404;;;;;;;;
2006.0;1969.8;;;;;;;;;;;;;-3161;;;;;;;;
2006.0;1969.8;;;;;;;;;;;;;-18486;;;;;;;;
2006.0;1970.5;;;;-0.5398484;0.57952887;0.1832657;;;;;;;;;;;;;;;
2006.0;1970.5;;;;-0.53926474;0.5805169;0.18322755;;;;;;;;;;;;;;;
2006.0;1970.5;;;;-0.53862005;0.58224875;0.18277742;;;;;;;;;;;;;;;
2006.0;1970.5;;;;-0.5373841;0.58370215;0.18171312;;;;;;;;;;;;;;;
2006.0;1970.5;;;;-0.5359612;0.58465964;0.18034746;;;;;;;;;;;;;;;
2006.0;1978.1;;;;;;;;;;5.0126653;24.655142;-61.45283;;;;;;;;;
2006.0;1978.1;;;;;;;0.16534929;-0.68745995;0.13245033;;;;;;;;;;;;
2006.0;1978.1;;;;;;;;;;7.023072;19.604326;-60.537277;;;;;;;;;
2006.0;1978.1;;;;;;;0.16034424;-0.677633;0.13214515;;;;;;;;;;;;
2006.0;1980.5;;;;-0.5330773;0.5855256;0.1787758;;;;;;;;;;;;;;;
2006.0;1980.5;;;;-0.5292435;0.5867272;0.17767335;;;;;;;;;;;;;;;
2006.0;1980.5;;;;-0.52504355;0.58728033;0.17624284;;;;;;;;;;;;;;;
2006.0;1980.5;;;;-0.52011114;0.5881577;0.17420198;;;;;;;;;;;;;;;
2006.0;1980.5;;;;-0.5144158;0.5888253;0.17239381;;;;;;;;;;;;;;;
2006.0;1983.9;262143;262143;12007;;;;;;;;;;;;;;;;;;
2006.0;1987.8;;;;;;;;;;8.972442;14.305552;-59.846798;;;;;;;;;
2006.0;1987.8;;;;;;;0.15411848;-0.6688436;0.13043611;;;;;;;;;;;;
2006.0;1987.8;;;;;;;;;;10.986664;8.90759;-59.282207;;;;;;;;;
2006.0;1987.8;;;;;;;0.15076144;-0.65883356;0.13031404;;;;;;;;;;;;
2052.0;1990.5;;;;-0.508236;0.5903359;0.1696663;;;;;;;;;;;;;;;
2052.0;1990.5;;;;-0.50199133;0.59185034;0.16792299;;;;;;;;;;;;;;;
2052.0;1990.5;;;;-0.4950791;0.5939446;0.16558076;;;;;;;;;;;;;;;
2052.0;1990.5;;;;-0.48834997;0.59615713;0.16414644;;;;;;;;;;;;;;;
2052.0;1990.5;;;;-0.4816361;0.59904104;0.16351701;;;;;;;;;;;;;;;
2052.0;1997.0;;;;;;;;;;12.916959;3.6812954;-58.759575;;;;;;;;;
2052.0;1997.0;;;;;;;0.15124974;-0.6504715;0.12927641;;;;;;;;;;;;
2052.0;1997.0;;;;;;;;;;14.767144;-1.4038514;-58.17591;;;;;;;;;
2052.0;1997.0;;;;;;;0.14929655;-0.64259773;0.12836085;;;;;;;;;;;;
2052.0;2000.3;;;;-0.4759522;0.6027718;0.16356279;;;;;;;;;;;;;;;
2052.0;2000.3;;;;-0.47096258;0.6064492;0.16304399;;;;;;;;;;;;;;;
2052.0;2000.3;;;;-0.46615988;0.6111565;0.16231538;;;;;;;;;;;;;;;
2052.0;2000.3;;;;-0.4606858;0.61575705;0.16108324;;;;;;;;;;;;;;;
2052.0;2000.3;;;;-0.45426565;0.6209412;0.1596222;;;;;;;;;;;;;;;
2052.0;2003.8;262143;262143;12003;;;;;;;;;;;;;;;;;;
2052.0;2006.6;;;;;;;;;;16.685995;-6.309702;-57.55791;;;;;;;;;
2052.0;2006.6;;;;;;;0.1480758;-0.63472396;0.12659077;;;;;;;;;;;;
2052.0;2006.6;;;;;;;;;;18.74218;-11.318552;-56.863613;;;;;;;;;
2052.0;2006.6;;;;;;;0.1350139;-0.6267281;0.12280648;;;;;;;;;;;;
2052.0;2009.8;;;;;;;;;;;;;-30801;;;;;;;;
2052.0;2009.8;;;;;;;;;;;;;-28093;;;;;;;;
2052.0;2009.8;;;;;;;;;;;;;-12887;;;;;;;;
2052.0;2009.8;;;;;;;;;;;;;901;;;;;;;;
2052.0;2009.8;;;;;;;;;;;;;4728;;;;;;;;
2059.0;2010.5;;;;-0.44662482;0.6257668;0.15755083;;;;;;;;;;;;;;;
2059.0;2010.5;;;;-0.4374047;0.6312447;0.1550522;;;;;;;;;;;;;;;
2059.0;2010.5;;;;-0.42813116;0.6367112;0.15214922;;;;;;;;;;;;;;;
2059.0;2010.5;;;;-0.41839224;0.6424523;0.14767076;;;;;;;;;;;;;;;
2059.0;2010.5;;;;-0.40914923;0.64853674;0.1424904;;;;;;;;;;;;;;;
2059.0;2016.3;;;;;;;;;;20.49318;-16.041292;-56.390575;;;;;;;;;
2059.0;2016.3;;;;;;;0.15588854;-0.6040223;0.11694693;;;;;;;;;;;;
2059.0;2016.3;;;;;;;;;;21.965698;-19.737844;-56.566055;;;;;;;;;
2059.0;2016.3;;;;;;;0.1507004;-0.5940733;0.11877804;;;;;;;;;;;;
2059.0;2020.6;;;;-0.40033728;0.6550141;0.13560487;;;;;;;;;;;;;;;
2059.0;2020.6;;;;-0.39184958;0.6631394;0.12758638;;;;;;;;;;;;;;;
2059.0;2020.6;;;;-0.3843804;0.6729546;0.11979295;;;;;;;;;;;;;;;
2059.0;2020.6;;;;-0.3777085;0.68529135;0.11299898;;;;;;;;;;;;;;;
2059.0;2020.6;;;;-0.37243655;0.7003251;0.10872652;;;;;;;;;;;;;;;
2060.0;2021.0;;;;;;;;;;;;;;;;;35.287025;16.418959;71.142456;;1908.3
2060.0;2021.0;;;;;;;;;;;;;;-0.6009095;-0.6789758;-0.07916501;;;;;1908.3
2060.0;2021.0;;;;;;;;;;;;;;;;;30.514694;20.60381;66.93854;;1908.3
2060.0;2021.0;;;;;;;;;;;;;;-0.5977355;-0.6999725;-0.12237922;;;;;1908.3
2060.0;2021.0;;;;;;;;;;;;;;;;;22.141178;26.062807;62.566757;;1918.0
2060.0;2021.0;;;;;;;;;;;;;;-0.60518205;-0.7037568;-0.18030335;;;;;1918.0
2060.0;2021.0;;;;;;;;;;;;;;;;;10.23896;32.383953;57.412945;;1918.0
2060.0;2021.0;;;;;;;;;;;;;;-0.59132665;-0.7021699;-0.26319164;;;;;1918.0
2060.0;2021.0;;;;;;;;;;;;;;;;;-2.66274;38.44951;52.587208;;1927.7
2060.0;2021.0;;;;;;;;;;;;;;-0.59559923;-0.6927702;-0.3106174;;;;;1927.7
2060.0;2021.0;;;;;;;;;;;;;;;;;-13.496811;43.969543;47.799618;;1927.7
2060.0;2021.0;;;;;;;;;;;;;;-0.586932;-0.6742149;-0.3312479;;;;;1927.7
2060.0;2021.7;;;;;;;;;;;;;;;;;-20.45503;50.77517;43.30958;;1937.2
2060.0;2021.7;;;;;;;;;;;;;;-0.6014588;-0.62862027;-0.30475783;;;;;1937.2
2060.0;2021.7;;;;;;;;;;;;;;;;;-24.75814;54.982906;39.12091;;1937.2
2060.0;2021.7;;;;;;;;;;;;;;-0.61610764;-0.6003601;-0.23426008;;;;;1937.2
2060.0;2021.7;;;;;;;;;;;;;;;;;-28.95825;56.02054;35.878323;;1946.9
2060.0;2021.7;;;;;;;;;;;;;;-0.5942564;-0.57222205;-0.20300913;;;;;1946.9
2060.0;2021.7;;;;;;;;;;;;;;;;;-32.540363;58.717613;33.940395;;1946.9
2060.0;2021.7;;;;;;;;;;;;;;-0.60322887;-0.50447094;-0.15936765;;;;;1946.9
2060.0;2021.7;;;;;;;;;;;;;;;;;-36.45436;61.92587;32.876064;;1956.6
2060.0;2021.7;;;;;;;;;;;;;;-0.6128727;-0.44251838;-0.15192114;;;;;1956.6
2060.0;2021.7;;;;;;;;;;;;;;;;;-40.738396;65.275276;32.6281;;1956.6
2060.0;2021.7;;;;;;;;;;;;;;-0.6256294;-0.38062686;-0.19696645;;;;;1956.6
2062.0;2024.0;262143;262143;12006;;;;;;;;;;;;;;;;;;
2062.0;2025.8;;;;;;;;;;23.724327;-23.03003;-56.222725;;;;;;;;;
2062.0;2025.8;;;;;;;0.15247047;-0.5891293;0.11877804;;;;;;;;;;;;
2062.0;2025.8;;;;;;;;;;25.30366;-25.929289;-55.837425;;;;;;;;;
2062.0;2025.8;;;;;;;0.1568041;-0.58302563;0.11896115;;;;;;;;;;;;
2062.0;2030.5;;;;-0.3699036;0.7180291;0.10639192;;;;;;;;;;;;;;;
2062.0;2030.5;;;;-0.3690987;0.73961264;0.10690309;;;;;;;;;;;;;;;
2062.0;2030.5;;;;-0.37005618;0.764393;0.110145584;;;;;;;;;;;;;;;
2062.0;2030.5;;;;-0.37207034;0.7918397;0.115963;;;;;;;;;;;;;;;
2062.0;2030.5;;;;-0.37495044;0.8224374;0.1208687;;;;;;;;;;;;;;;
2062.0;2035.3;;;;;;;;;;26.879177;-28.626362;-55.654316;;;;;;;;;
2062.0;2035.3;;;;;;;0.16357921;-0.57637256;0.12213507;;;;;;;;;;;;
2062.0;2035.3;;;;;;;;;;28.321177;-31.01825;-55.50554;;;;;;;;;
2062.0;2035.3;;;;;;;0.16943876;-0.56758326;0.12372204;;;;;;;;;;;;
2062.0;2040.5;;;;-0.37790304;0.85553753;0.12596513;;;;;;;;;;;;;;;
2062.0;2040.5;;;;-0.38173681;0.8899957;0.13080598;;;;;;;;;;;;;;;
2062.0;2040.5;;;;-0.38679892;0.9254457;0.13595964;;;;;;;;;;;;;;;
2062.0;2040.5;;;;-0.3923264;0.96263134;0.14057161;;;;;;;;;;;;;;;
2062.0;2040.5;;;;-0.39836127;0.9993173;0.14514925;;;;;;;;;;;;;;;
2062.0;2044.1;262143;262143;12016;;;;;;;;;;;;;;;;;;
2111.0;2044.9;;;;;;;;;;29.728844;-32.979065;-55.082092;;;;;;;;;
2111.0;2044.9;;;;;;;0.17413862;-0.55836666;0.12427137;;;;;;;;;;;;
2111.0;2044.9;;;;;;;;;;31.014435;-34.47447;-54.635765;;;;;;;;;
2111.0;2044.9;;;;;;;0.18146306;-0.55165255;0.12524797;;;;;;;;;;;;
2111.0;2050.1;;;;;;;;;;;;;2449;;;;;;;;
2111.0;2050.1;;;;;;;;;;;;;1378;;;;;;;;
2111.0;2050.1;;;;;;;;;;;;;2629;;;;;;;;
2111.0;2050.1;;;;;;;;;;;;;3271;;;;;;;;
2111.0;2050.1;;;;;;;;;;;;;2883;;;;;;;;
2111.0;2050.5;;;;-0.40419775;1.0356714;0.15090944;;;;;;;;;;;;;;;
2111.0;2050.5;;;;-0.4106217;1.0721551;0.1571808;;;;;;;;;;;;;;;
2111.0;2050.5;;;;-0.4175263;1.1081544;0.16340257;;;;;;;;;;;;;;;
2111.0;2050.5;;;;-0.42522436;1.1434327;0.16933443;;;;;;;;;;;;;;;
2111.0;2050.5;;;;-0.43253714;1.177498;0.17453386;;;;;;;;;;;;;;;
2111.0;2054.3;;;;;;;;;;32.265694;-35.63799;-53.998688;;;;;;;;;
2111.0;2054.3;;;;;;;0.18903165;-0.54609823;0.12573627;;;;;;;;;;;;
2111.0;2054.3;;;;;;;;;;33.345287;-36.427654;-53.296764;;;;;;;;;
2111.0;2054.3;;;;;;;0.19086276;-0.5449385;0.1281167;;;;;;;;;;;;
2111.0;2060.5;;;;-0.43984228;1.2110444;0.18074037;;;;;;;;;;;;;;;
2111.0;2060.5;;;;-0.4468308;1.243065;0.1842766;;;;;;;;;;;;;;;
2111.0;2060.5;;;;-0.45381552;1.2735521;0.18395235;;;;;;;;;;;;;;;
2111.0;2060.5;;;;-0.45932394;1.3006593;0.18158723;;;;;;;;;;;;;;;
2111.0;2060.5;;;;-0.4628449;1.3243066;0.1767235;;;;;;;;;;;;;;;
2111.0;2063.9;;;;;;;;;;34.413433;-36.931213;-52.549057;;;;;;;;;
2111.0;2063.9;;;;;;;0.19452497;-0.5437788;0.13031404;;;;;;;;;;;;
2111.0;2063.9;;;;;;;;;;35.405285;-37.209694;-51.59917;;;;;;;;;
2111.0;2063.9;;;;;;;0.19306009;-0.5465255;0.13165686;;;;;;;;;;;;
2114.0;2064.1;262143;262143;12029;;;;;;;;;;;;;;;;;;
2114.0;2070.6;;;;-0.46457297;1.3470346;0.16845323;;;;;;;;;;;;;;;
2114.0;2070.6;;;;-0.46504217;1.3705331;0.1594124;;;;;;;;;;;;;;;
2114.0;2070.6;;;;-0.46371084;1.3916665;0.14858247;;;;;;;;;;;;;;;
2114.0;2070.6;;;;-0.46158606;1.4079171;0.13354112;;;;;;;;;;;;;;;
2114.0;2070.6;;;;-0.4565354;1.4162904;0.11151506;;;;;;;;;;;;;;;
2114.0;2073.5;;;;;;;;;;36.301765;-37.297436;-50.61495;;;;;;;;;
2114.0;2073.5;;;;;;;0.19238868;-0.5492111;0.13183996;;;;;;;;;;;;
2114.0;2073.5;;;;;;;;;;37.099064;-37.217323;-49.382767;;;;;;;;;
2114.0;2073.5;;;;;;;0.19342631;-0.55494857;0.13129063;;;;;;;;;;;;
2114.0;2080.7;;;;-0.4517861;1.4223748;0.10290529;;;;;;;;;;;;;;;
2114.0;2080.7;;;;-0.45076758;1.4377862;0.11217882;;;;;;;;;;;;;;;
2114.0;2080.7;;;;-0.44874197;1.4613496;0.111770645;;;;;;;;;;;;;;;
2114.0;2080.7;;;;-0.43861777;1.4822656;0.09963609;;;;;;;;;;;;;;;
2114.0;2080.7;;;;-0.42485434;1.496235;0.084083565;;;;;;;;;;;;;;;
2118.0;2081.3;;;;;;;;;;;;;;;;;-44.92706;67.510765;33.360546;;1966.2
2118.0;2081.3;;;;;;;;;;;;;;-0.68184453;-0.32502213;-0.22370067;;;;;1966.2
2118.0;2081.3;;;;;;;;;;;;;;;;;-47.601246;65.48509;34.138767;;1966.2
2118.0;2081.3;;;;;;;;;;;;;;-0.7160863;-0.29486984;-0.16113773;;;;;1966.2
2118.0;2081.3;;;;;;;;;;;;;;;;;-46.81921;62.860497;34.22269;;1975.8
2118.0;2081.3;;;;;;;;;;;;;;-0.745262;-0.29358807;0.012634663;;;;;1975.8
2118.0;2081.3;;;;;;;;;;;;;;;;;-39.262062;63.737907;34.20743;;1975.8
2118.0;2081.3;;;;;;;;;;;;;;-0.8387707;-0.30774865;0.18817712;;;;;1975.8
2118.0;2081.3;;;;;;;;;;;;;;;;;-23.266548;68.81924;34.764397;;1985.5
2118.0;2081.3;;;;;;;;;;;;;;-1.0628986;-0.27784052;0.18677329;;;;;1985.5
2118.0;2081.3;;;;;;;;;;;;;;;;;-2.9030733;74.33164;38.502914;;1985.5
2118.0;2081.3;;;;;;;;;;;;;;-1.4993134;-0.24030274;0.09424116;;;;;1985.5
2118.0;2082.4;;;;;;;;;;;;;;;;;12.432477;77.34535;44.064915;;1995.0
2118.0;2082.4;;;;;;;;;;;;;;-1.9486679;-0.14899136;0.21027254;;;;;1995.0
2118.0;2082.4;;;;;;;;;;;;;;;;;22.70577;75.544754;50.218204;;1995.0
2118.0;2082.4;;;;;;;;;;;;;;-1.9998169;-0.028748436;0.6378369;;;;;1995.0
2118.0;2082.4;;;;;;;;;;;;;;;;;23.365734;49.00128;44.267097;;2004.6
2118.0;2082.4;;;;;;;;;;;;;;-1.9998169;-0.008789331;0.9119541;;;;;2004.6
2118.0;2082.4;;;;;;;;;;;;;;;;;5.123295;27.375103;23.968475;;2004.6
2118.0;2082.4;;;;;;;;;;;;;;-1.8792077;0.025879696;0.5364544;;;;;2004.6
2118.0;2082.4;;;;;;;;;;;;;;;;;-21.702477;34.302803;8.709219;;2014.3
2118.0;2082.4;;;;;;;;;;;;;;-1.5460677;0.033265177;0.12372204;;;;;2014.3
2118.0;2082.4;;;;;;;;;;;;;;;;;-54.25428;34.516434;-3.8644063;;2014.3
2118.0;2082.4;;;;;;;;;;;;;;-1.3587451;0.07837153;-0.27973264;;;;;2014.3
2119.0;2083.0;;;;;;;;;;37.884914;-37.076176;-47.982727;;;;;;;;;
2119.0;2083.0;;;;;;;0.19635609;-0.5579394;0.13061923;;;;;;;;;;;;
2119.0;2083.0;;;;;;;;;;38.58684;-36.736656;-46.563614;;;;;;;;;
2119.0;2083.0;;;;;;;0.19959106;-0.56123537;0.13287759;;;;;;;;;;;;
2119.0;2084.3;262143;262143;12045;;;;;;;;;;;;;;;;;;
2119.0;2090.3;;;;;;;;;;;;;2473;;;;;;;;
2119.0;2090.3;;;;;;;;;;;;;2091;;;;;;;;
2119.0;2090.3;;;;;;;;;;;;;1722;;;;;;;;
2119.0;2090.3;;;;;;;;;;;;;1283;;;;;;;;
2119.0;2090.3;;;;;;;;;;;;;635;;;;;;;;
2119.0;2090.7;;;;-0.41327673;1.5063555;0.06903077;;;;;;;;;;;;;;;
2119.0;2090.7;;;;-0.405037;1.515465;0.057018287;;;;;;;;;;;;;;;
2119.0;2090.7;;;;-0.39968497;1.5234149;0.047000892;;;;;;;;;;;;;;;
2119.0;2090.7;;;;-0.39829642;1.529854;0.038761143;;;;;;;;;;;;;;;
2119.0;2090.7;;;;-0.3995629;1.5373614;0.03184128;;;;;;;;;;;;;;;
2119.0;2092.7;;;;;;;;;;39.345985;-36.41621;-45.03006;;;;;;;;;
2119.0;2092.7;;;;;;;0.20056765;-0.5665456;0.13361004;;;;;;;;;;;;
2119.0;2092.7;;;;;;;;;;40.13184;-36.038544;-43.313396;;;;;;;;;
2119.0;2092.7;;;;;;;0.20081179;-0.570452;0.1347087;;;;;;;;;;;;
2120.0;2096.2;;;;;;;;;;;;;;;;;-78.417305;26.64266;-14.74044;;2024.0
2120.0;2096.2;;;;;;;;;;;;;;-1.2957549;0.14783166;-0.36011842;;;;;2024.0
2120.0;2096.2;;;;;;;;;;;;;;;;;-75.80798;5.409406;-17.551958;;2024.0
2120.0;2096.2;;;;;;;;;;;;;;-1.1615955;0.12140263;-0.119327374;;;;;2024.0
2120.0;2096.2;;;;;;;;;;;;;;;;;-63.287758;-11.406293;-19.119846;;2033.6
2120.0;2096.2;;;;;;;;;;;;;;-0.95437485;0.1098056;-0.08337657;;;;;2033.6
2120.0;2096.2;;;;;;;;;;;;;;;;;-75.0908;-17.147587;-20.172735;;2033.6
2120.0;2096.2;;;;;;;;;;;;;;-0.8509171;0.04834132;-0.122196116;;;;;2033.6
2120.0;2096.2;;;;;;;;;;;;;;;;;-99.82986;-15.484328;-20.020142;;2043.3
2120.0;2096.2;;;;;;;;;;;;;;-0.74996185;-0.11035493;-0.27661976;;;;;2043.3
2120.0;2096.2;;;;;;;;;;;;;;;;;-105.43001;0.5836665;-16.846218;;2043.3
2120.0;2096.2;;;;;;;;;;;;;;-0.75106055;-0.13806574;-0.6189764;;;;;2043.3
2120.0;2100.6;;;;-0.4041596;1.5479434;0.023784641;;;;;;;;;;;;;;;
2120.0;2100.6;;;;-0.4079438;1.5602648;0.016372683;;;;;;;;;;;;;;;
2120.0;2100.6;;;;-0.40982825;1.5743525;0.008399964;;;;;;;;;;;;;;;
2120.0;2100.6;;;;-0.41045767;1.5898478;0.0016174319;;;;;;;;;;;;;;;
2120.0;2100.6;;;;-0.41167456;1.6067584;-0.0033149724;;;;;;;;;;;;;;;
2120.0;2102.0;;;;;;;;;;40.85284;-35.70284;-41.56621;;;;;;;;;
2120.0;2102.0;;;;;;;0.20319223;-0.57155067;0.13531907;;;;;;;;;;;;
2120.0;2102.0;;;;;;;;;;41.524246;-35.447247;-39.72365;;;;;;;;;
2120.0;2102.0;;;;;;;0.2059389;-0.57307655;0.13885921;;;;;;;;;;;;
2120.0;2104.3;262143;262143;12044;;;;;;;;;;;;;;;;;;
2172.0;2110.5;;;;-0.4133759;1.622597;-0.008102418;;;;;;;;;;;;;;;
2172.0;2110.5;;;;-0.41532904;1.6408846;-0.011432649;;;;;;;;;;;;;;;
2172.0;2110.5;;;;-0.4191361;1.6616786;-0.014175417;;;;;;;;;;;;;;;
2172.0;2110.5;;;;-0.4222527;1.6823618;-0.016620638;;;;;;;;;;;;;;;
2172.0;2110.5;;;;-0.42493445;1.7046282;-0.017154695;;;;;;;;;;;;;;;
2172.0;2111.4;;;;;;;;;;42.16132;-35.267952;-37.862026;;;;;;;;;
2172.0;2111.4;;;;;;;0.20685446;-0.57527393;0.136845;;;;;;;;;;;;
2172.0;2111.4;;;;;;;;;;42.886135;-35.11536;-36.057617;;;;;;;;;
2172.0;2111.4;;;;;;;0.21210364;-0.57502973;0.13678396;;;;;;;;;;;;
2172.0;2120.4;;;;-0.42800528;1.7287562;-0.017814638;;;;;;;;;;;;;;;
2172.0;2120.4;;;;-0.43172842;1.7528956;-0.017826082;;;;;;;;;;;;;;;
2172.0;2120.4;;;;-0.43508536;1.7747271;-0.016563417;;;;;;;;;;;;;;;
2172.0;2120.4;;;;-0.4389115;1.7959406;-0.014499666;;;;;;;;;;;;;;;
2172.0;2120.4;;;;-0.44328696;1.8145335;-0.01237488;;;;;;;;;;;;;;;
2172.0;2120.9;;;;;;;;;;43.60332;-34.9971;-34.18836;;;;;;;;;
2172.0;2120.9;;;;;;;0.21839045;-0.5752129;0.13647878;;;;;;;;;;;;
2172.0;2120.9;;;;;;;;;;44.217506;-34.947506;-32.37251;;;;;;;;;
2172.0;2120.9;;;;;;;0.2278512;-0.57307655;0.13733329;;;;;;;;;;;;
2172.0;2124.2;262143;262143;12053;;;;;;;;;;;;;;;;;;
2172.0;2130.2;;;;;;;;;;;;;57;;;;;;;;
2172.0;2130.2;;;;;;;;;;;;;-203;;;;;;;;
2172.0;2130.2;;;;;;;;;;;;;-397;;;;;;;;
2172.0;2130.2;;;;;;;;;;;;;-808;;;;;;;;
2172.0;2130.2;;;;;;;;;;;;;-1471;;;;;;;;
2173.0;2130.5;;;;-0.44779593;1.8294604;-0.009902955;;;;;;;;;;;;;;;
2173.0;2130.5;;;;-0.45283896;1.8416255;-0.008052827;;;;;;;;;;;;;;;
2173.0;2130.5;;;;-0.46002966;1.8477709;-0.0062446604;;;;;;;;;;;;;;;
2173.0;2130.5;;;;-0.46395117;1.8501971;-0.0040473943;;;;;;;;;;;;;;;
2173.0;2130.5;;;;-0.4704209;1.848942;-0.003421784;;;;;;;;;;;;;;;
2173.0;2130.6;;;;;;;;;;44.74395;-34.993286;-30.728323;;;;;;;;;
2173.0;2130.6;;;;;;;0.23401593;-0.57039094;0.13861507;;;;;;;;;;;;
2173.0;2130.6;;;;;;;;;;45.19028;-34.779655;-29.129917;;;;;;;;;
2173.0;2130.6;;;;;;;0.23834956;-0.56862086;0.1398358;;;;;;;;;;;;
2173.0;2140.2;;;;;;;;;;45.621357;-34.581284;-27.623066;;;;;;;;;
2173.0;2140.2;;;;;;;0.24115726;-0.56178474;0.13989685;;;;;;;;;;;;
2173.0;2140.2;;;;;;;;;;45.957058;-34.33332;-26.253548;;;;;;;;;
2173.0;2140.2;;;;;;;0.24311045;-0.5522019;0.14007996;;;;;;;;;;;;
2173.0;2140.6;;;;-0.48738486;1.8408244;-0.0073013315;;;;;;;;;;;;;;;
2173.0;2140.6;;;;-0.49457556;1.8267062;-0.0070266733;;;;;;;;;;;;;;;
2173.0;2140.6;;;;-0.47153097;1.8224833;0.00858307;;;;;;;;;;;;;;;
2173.0;2140.6;;;;-0.45228583;1.8187068;0.006889344;;;;;;;;;;;;;;;
2173.0;2140.6;;;;-0.45654303;1.8008502;-0.006855012;;;;;;;;;;;;;;;
2177.0;2141.3;;;;;;;;;;;;;;;;;-91.727196;16.140476;-9.125034;;2052.8
2177.0;2141.3;;;;;;;;;;;;;;-0.9418622;-0.08685568;-0.7297586;;;;;2052.8
2177.0;2141.3;;;;;;;;;;;;;;;;;-71.16917;20.386364;-7.1298866;;2052.8
2177.0;2141.3;;;;;;;;;;;;;;-1.1486557;0.0021973327;-0.6515702;;;;;2052.8
2177.0;2141.3;;;;;;;;;;;;;;;;;-52.735985;17.51381;-6.2982574;;2062.3
2177.0;2141.3;;;;;;;;;;;;;;-1.3881038;-4.8829615E-4;-0.47401348;;;;;2062.3
2177.0;2141.3;;;;;;;;;;;;;;;;;-35.546432;18.93292;-4.3679614;;2062.3
2177.0;2141.3;;;;;;;;;;;;;;-1.6872463;-0.07013153;-0.38886684;;;;;2062.3
2177.0;2141.3;;;;;;;;;;;;;;;;;-31.685844;18.337809;-3.7919247;;2071.9
2177.0;2141.3;;;;;;;;;;;;;;-1.9375591;-0.19244972;-0.4547258;;;;;2071.9
2177.0;2141.3;;;;;;;;;;;;;;;;;-38.563953;13.584552;-3.3455918;;2071.9
2177.0;2141.3;;;;;;;;;;;;;;-1.9998169;-0.6162908;-0.4060793;;;;;2071.9
2177.0;2144.4;262143;262143;12064;;;;;;;;;;;;;;;;;;
2177.0;2149.7;;;;;;;;;;46.21647;-33.795437;-24.933622;;;;;;;;;
2177.0;2149.7;;;;;;;0.24897;-0.5412763;0.14111759;;;;;;;;;;;;
2177.0;2149.7;;;;;;;;;;46.304207;-33.2194;-23.667105;;;;;;;;;
2177.0;2149.7;;;;;;;0.25379193;-0.53529465;0.14569536;;;;;;;;;;;;
2177.0;2150.6;;;;-0.4617768;1.7768519;-0.009845735;;;;;;;;;;;;;;;
2177.0;2150.6;;;;-0.4559136;1.7529948;-0.009353639;;;;;;;;;;;;;;;
2177.0;2150.6;;;;-0.45188147;1.7274134;-0.017951967;;;;;;;;;;;;;;;
2177.0;2150.6;;;;-0.45088202;1.6997263;-0.025760654;;;;;;;;;;;;;;;
2177.0;2150.6;;;;-0.449318;1.6696932;-0.03210831;;;;;;;;;;;;;;;
2234.0;2159.2;;;;;;;;;;46.26606;-32.605213;-22.442549;;;;;;;;;
2234.0;2159.2;;;;;;;0.26123846;-0.53639334;0.14709921;;;;;;;;;;;;
2234.0;2159.2;;;;;;;;;;46.24317;-32.044437;-21.134068;;;;;;;;;
2234.0;2159.2;;;;;;;0.26416823;-0.53675956;0.14172795;;;;;;;;;;;;
2234.0;2160.6;;;;-0.4461251;1.641022;-0.038585667;;;;;;;;;;;;;;;
2234.0;2160.6;;;;-0.43928152;1.6147845;-0.044723514;;;;;;;;;;;;;;;
2234.0;2160.6;;;;-0.43386847;1.589165;-0.053062446;;;;;;;;;;;;;;;
2234.0;2160.6;;;;-0.43168265;1.5620005;-0.060874946;;;;;;;;;;;;;;;
2234.0;2160.6;;;;-0.4294091;1.5356944;-0.065559395;;;;;;;;;;;;;;;
2234.0;2164.5;262143;262143;12053;;;;;;;;;;;;;;;;;;
2234.0;2168.8;;;;;;;;;;46.212654;-31.708733;-19.512772;;;;;;;;;
2234.0;2168.8;;;;;;;0.2667928;-0.5393841;0.13879818;;;;;;;;;;;;
2234.0;2168.8;;;;;;;;;;46.159245;-31.63625;-17.18955;;;;;;;;;
2234.0;2168.8;;;;;;;0.26630452;-0.5528123;0.13165686;;;;;;;;;;;;
2234.0;2170.4;;;;;;;;;;;;;-2117;;;;;;;;
2234.0;2170.4;;;;;;;;;;;;;-2508;;;;;;;;
2234.0;2170.4;;;;;;;;;;;;;-2880;;;;;;;;
2234.0;2170.4;;;;;;;;;;;;;-3479;;;;;;;;
2234.0;2170.4;;;;;;;;;;;;;-4079;;;;;;;;
2234.0;2170.6;;;;-0.42527014;1.5119898;-0.06541825;;;;;;;;;;;;;;;
2234.0;2170.6;;;;-0.42356497;1.4871789;-0.06860734;;;;;;;;;;;;;;;
2234.0;2170.6;;;;-0.42499548;1.4613687;-0.072811134;;;;;;;;;;;;;;;
2234.0;2170.6;;;;-0.42324072;1.438183;-0.072982796;;;;;;;;;;;;;;;
2234.0;2170.6;;;;-0.42413718;1.4151193;-0.073997505;;;;;;;;;;;;;;;
2238.0;2178.1;;;;;;;;;;45.983765;-31.765953;-14.183477;;;;;;;;;
2238.0;2178.1;;;;;;;0.2692343;-0.5833308;0.12964264;;;;;;;;;;;;
2238.0;2178.1;;;;;;;;;;45.686207;-31.903286;-10.525071;;;;;;;;;
2238.0;2178.1;;;;;;;0.28547013;-0.63344216;0.1312296;;;;;;;;;;;;
2238.0;2180.5;;;;-0.42700583;1.3904382;-0.07359315;;;;;;;;;;;;;;;
2238.0;2180.5;;;;-0.42588812;1.3672258;-0.06917954;;;;;;;;;;;;;;;
2238.0;2180.5;;;;-0.4245873;1.3452073;-0.06708909;;;;;;;;;;;;;;;
2238.0;2180.5;;;;-0.42608267;1.3229142;-0.06519318;;;;;;;;;;;;;;;
2238.0;2180.5;;;;-0.426426;1.3006097;-0.060359962;;;;;;;;;;;;;;;
2238.0;2184.4;262143;262143;12052;;;;;;;;;;;;;;;;;;
2238.0;2187.7;;;;;;;;;;45.491653;-32.06351;-6.416517;;;;;;;;;
2238.0;2187.7;;;;;;;0.30677205;-0.6906339;0.13080233;;;;;;;;;;;;
2238.0;2187.7;;;;;;;;;;45.594654;-32.81503;-1.8158513;;;;;;;;;
2238.0;2187.7;;;;;;;0.32947782;-0.74489576;0.13269448;;;;;;;;;;;;
2238.0;2190.6;;;;-0.4250527;1.2789499;-0.05535508;;;;;;;;;;;;;;;
2238.0;2190.6;;;;-0.42382056;1.2586671;-0.050933845;;;;;;;;;;;;;;;
2238.0;2190.6;;;;-0.42382437;1.2381364;-0.046077732;;;;;;;;;;;;;;;
2238.0;2190.6;;;;-0.42528158;1.2162706;-0.042541508;;;;;;;;;;;;;;;
2238.0;2190.6;;;;-0.4240952;1.1967584;-0.03695679;;;;;;;;;;;;;;;
2238.0;2197.4;;;;;;;;;;45.93417;-34.478283;3.1014435;;;;;;;;;
2238.0;2197.4;;;;;;;0.352855;-0.79067355;0.13757744;;;;;;;;;;;;
2238.0;2197.4;;;;;;;;;;46.388134;-36.664173;8.079776;;;;;;;;;
2238.0;2197.4;;;;;;;0.36872464;-0.8294931;0.14252144;;;;;;;;;;;;
2240.0;2200.7;;;;-0.4212113;1.1786081;-0.03186417;;;;;;;;;;;;;;;
2240.0;2200.7;;;;-0.41883093;1.159855;-0.027721409;;;;;;;;;;;;;;;
2240.0;2200.7;;;;-0.4199143;1.1411897;-0.02416611;;;;;;;;;;;;;;;
2240.0;2200.7;;;;-0.42034918;1.1242067;-0.018970491;;;;;;;;;;;;;;;
2240.0;2200.7;;;;-0.41994482;1.108265;-0.014152529;;;;;;;;;;;;;;;
2240.0;2201.4;;;;;;;;;;;;;;;;;-45.617542;1.3161107;-8.022553;;2081.6
2240.0;2201.4;;;;;;;;;;;;;;-1.9956053;-1.2120731;-0.39088106;;;;;2081.6
2240.0;2201.4;;;;;;;;;;;;;;;;;-43.42784;-5.882443;-13.145848;;2081.6
2240.0;2201.4;;;;;;;;;;;;;;-1.8361766;-1.680166;-0.59022796;;;;;2081.6
2240.0;2201.4;;;;;;;;;;;;;;;;;-27.287363;-11.005738;-17.128513;;2091.2
2240.0;2201.4;;;;;;;;;;;;;;-1.5889157;-1.9723502;-0.7289651;;;;;2091.2
2240.0;2201.4;;;;;;;;;;;;;;;;;-2.8000731;-16.026033;-21.732994;;2091.2
2240.0;2201.4;;;;;;;;;;;;;;-1.1906492;-1.9436018;-0.7642445;;;;;2091.2
2240.0;2201.4;;;;;;;;;;;;;;;;;20.516068;-10.734886;-26.718956;;2100.8
2240.0;2201.4;;;;;;;;;;;;;;-1.0079653;-1.7225868;-0.6754967;;;;;2100.8
2240.0;2201.4;;;;;;;;;;;;;;;;;36.118656;-5.3750725;-34.085358;;2100.8
2240.0;2201.4;;;;;;;;;;;;;;-0.9238563;-1.3067416;-0.48036134;;;;;2100.8
2246.0;2202.6;;;;;;;;;;;;;;;;;47.521133;0.7553331;-36.236916;;2110.5
2246.0;2202.6;;;;;;;;;;;;;;-0.96194345;-0.6879482;-0.3836787;;;;;2110.5
2246.0;2202.6;;;;;;;;;;;;;;;;;50.3708;5.180517;-30.62151;;2110.5
2246.0;2202.6;;;;;;;;;;;;;;-0.97268593;-0.14923552;-0.3723258;;;;;2110.5
2246.0;2202.6;;;;;;;;;;;;;;;;;51.11469;8.247627;-24.529253;;2120.2
2246.0;2202.6;;;;;;;;;;;;;;-1.0544145;0.14612262;-0.42066714;;;;;2120.2
2246.0;2202.6;;;;;;;;;;;;;;;;;53.544727;5.4628134;-21.088291;;2120.2
2246.0;2202.6;;;;;;;;;;;;;;-1.0478225;0.38355663;-0.5020295;;;;;2120.2
2246.0;2202.6;;;;;;;;;;;;;;;;;51.973022;2.0485551;-16.518145;;2129.8
2246.0;2202.6;;;;;;;;;;;;;;-1.0116886;0.4990997;-0.5251625;;;;;2129.8
2246.0;2202.6;;;;;;;;;;;;;;;;;50.630207;0.14496292;-9.392072;;2129.8
2246.0;2202.6;;;;;;;;;;;;;;-1.0299997;0.46845913;-0.5307169;;;;;2129.8
2246.0;2204.6;262143;262143;12065;;;;;;;;;;;;;;;;;;
2246.0;2206.9;;;;;;;;;;46.727654;-39.117096;13.584552;;;;;;;;;
2246.0;2206.9;;;;;;;0.38355663;-0.87423325;0.14764854;;;;;;;;;;;;
2246.0;2206.9;;;;;;;;;;46.99469;-41.577656;19.413588;;;;;;;;;
2246.0;2206.9;;;;;;;0.39820552;-0.92226934;0.14978485;;;;;;;;;;;;
2246.0;2210.4;;;;;;;;;;;;;-4167;;;;;;;;
2246.0;2210.4;;;;;;;;;;;;;-3792;;;;;;;;
2246.0;2210.4;;;;;;;;;;;;;-3576;;;;;;;;
2246.0;2210.4;;;;;;;;;;;;;-3774;;;;;;;;
2246.0;2210.4;;;;;;;;;;;;;-3838;;;;;;;;
2250.0;2210.6;;;;-0.41968924;1.0933725;-0.009849549;;;;;;;;;;;;;;;
2250.0;2210.6;;;;-0.4203568;1.0796129;-0.0064315805;;;;;;;;;;;;;;;
2250.0;2210.6;;;;-0.42220694;1.0658914;-0.0023765566;;;;;;;;;;;;;;;
2250.0;2210.6;;;;-0.42407995;1.0528299;0.0012474061;;;;;;;;;;;;;;;
2250.0;2210.6;;;;-0.42631155;1.0400888;0.0020713808;;;;;;;;;;;;;;;
2250.0;2216.4;;;;;;;;;;;;;;;;;50.778984;-2.4719992;-0.99185157;;2139.4
2250.0;2216.4;;;;;;;;;;;;;;-1.0441602;0.40949735;-0.5978576;;;;;2139.4
2250.0;2216.4;;;;;;;;;;;;;;;;;49.29884;-1.8044069;9.834589;;2139.4
2250.0;2216.4;;;;;;;;;;;;;;-1.076571;0.32343516;-0.64693135;;;;;2139.4
2250.0;2216.4;;;;;;;;;;;;;;;;;44.62569;-0.015259255;21.290476;;2149.1
2250.0;2216.4;;;;;;;;;;;;;;-1.1533555;0.19452497;-0.62477493;;;;;2149.1
2250.0;2216.4;;;;;;;;;;;;;;;;;35.134434;-1.1444441;30.426954;;2149.1
2250.0;2216.4;;;;;;;;;;;;;;-1.1738029;0.017883847;-0.5635548;;;;;2149.1
2250.0;2216.4;;;;;;;;;;;;;;;;;25.242622;-0.65614796;36.832027;;2158.7
2250.0;2216.4;;;;;;;;;;;;;;-1.1718497;-0.08709983;-0.49354532;;;;;2158.7
2250.0;2216.4;;;;;;;;;;;;;;;;;17.70455;2.231666;41.192356;;2158.7
2250.0;2216.4;;;;;;;;;;;;;;-1.1846064;-0.1163976;-0.4557024;;;;;2158.7
2250.0;2216.2;;;;;;;;;;47.12058;-43.805508;25.189215;;;;;;;;;
2250.0;2216.2;;;;;;;0.4130375;-0.9792169;0.15222633;;;;;;;;;;;;
2250.0;2216.2;;;;;;;;;;47.44484;-46.2241;31.144138;;;;;;;;;
2250.0;2216.2;;;;;;;0.43153173;-1.0343944;0.14978485;;;;;;;;;;;;
2293.0;2220.5;;;;-0.4292832;1.0274774;0.0033111577;;;;;;;;;;;;;;;
2293.0;2220.5;;;;-0.43100744;1.0169488;0.0039024358;;;;;;;;;;;;;;;
2293.0;2220.5;;;;-0.43280035;1.0061151;0.002548218;;;;;;;;;;;;;;;
2293.0;2220.5;;;;-0.43596274;0.9947854;0.0016937258;;;;;;;;;;;;;;;
2293.0;2220.5;;;;-0.44005972;0.98256695;2.9754642E-4;;;;;;;;;;;;;;;
2293.0;2224.5;262143;262143;12071;;;;;;;;;;;;;;;;;;
2293.0;2225.8;;;;;;;;;;47.65465;-48.886837;37.327953;;;;;;;;;
2293.0;2225.8;;;;;;;0.44544816;-1.0845668;0.14831996;;;;;;;;;;;;
2293.0;2225.8;;;;;;;;;;47.822506;-51.999725;43.38969;;;;;;;;;
2293.0;2225.8;;;;;;;0.45814386;-1.1290628;0.1477096;;;;;;;;;;;;
2293.0;2230.5;;;;-0.4431725;0.970276;4.2343145E-4;;;;;;;;;;;;;;;
2293.0;2230.5;;;;-0.44538504;0.95847714;0.002170563;;;;;;;;;;;;;;;
2293.0;2230.5;;;;-0.4474755;0.9473077;0.0030479436;;;;;;;;;;;;;;;
2293.0;2230.5;;;;-0.45056158;0.9352304;0.0027770998;;;;;;;;;;;;;;;
2293.0;2230.5;;;;-0.45444494;0.9232789;0.002674103;;;;;;;;;;;;;;;
2293.0;2235.3;;;;;;;;;;47.933136;-55.845055;49.336987;;;;;;;;;
2293.0;2235.3;;;;;;;0.4745018;-1.1742302;0.14166692;;;;;;;;;;;;
2293.0;2235.3;;;;;;;;;;48.07047;-60.40376;55.406353;;;;;;;;;
2293.0;2235.3;;;;;;;0.49952698;-1.220252;0.13153477;;;;;;;;;;;;
2295.0;2240.5;;;;-0.45800024;0.9104272;0.003318787;;;;;;;;;;;;;;;
2295.0;2240.5;;;;-0.461258;0.897339;0.0042076115;;;;;;;;;;;;;;;
2295.0;2240.5;;;;-0.46288306;0.8845178;0.0057220464;;;;;;;;;;;;;;;
2295.0;2240.5;;;;-0.46408468;0.87160504;0.00776291;;;;;;;;;;;;;;;
2295.0;2240.5;;;;-0.46529394;0.85899746;0.009845735;;;;;;;;;;;;;;;
2295.0;2244.8;;;;;;;;;;47.872097;-65.0502;61.548203;;;;;;;;;
2295.0;2244.8;;;;;;;0.53840756;-1.2739036;0.11468856;;;;;;;;;;;;
2295.0;2244.8;;;;;;;;;;47.04428;-69.521164;67.46498;;;;;;;;;
2295.0;2244.8;;;;;;;0.5818659;-1.3451338;0.10858486;;;;;;;;;;;;
2295.0;2244.6;262143;262143;12058;;;;;;;;;;;;;;;;;;
2295.0;2250.5;;;;;;;;;;;;;-3199;;;;;;;;
2295.0;2250.5;;;;;;;;;;;;;-2070;;;;;;;;
2295.0;2250.5;;;;;;;;;;;;;-950;;;;;;;;
2295.0;2250.5;;;;;;;;;;;;;-24;;;;;;;;
2295.0;2250.5;;;;;;;;;;;;;649;;;;;;;;
2295.0;2250.6;;;;-0.46669394;0.8459779;0.011627198;;;;;;;;;;;;;;;
2295.0;2250.6;;;;-0.4684487;0.8335954;0.013591768;;;;;;;;;;;;;;;
2295.0;2250.6;;;;-0.4697953;0.8210832;0.01615906;;;;;;;;;;;;;;;
2295.0;2250.6;;;;-0.47015768;0.8091661;0.018218996;;;;;;;;;;;;;;;
2295.0;2250.6;;;;-0.47014242;0.7962533;0.020584108;;;;;;;;;;;;;;;
2295.0;2254.5;;;;;;;;;;46.609394;-74.45372;73.385574;;;;;;;;;
2295.0;2254.5;;;;;;;0.61836606;-1.449263;0.10736412;;;;;;;;;;;;
2295.0;2254.5;;;;;;;;;;47.441025;-79.92034;79.40916;;;;;;;;;
2295.0;2254.5;;;;;;;0.6527909;-1.546556;0.093142495;;;;;;;;;;;;
2296.0;2260.7;;;;-0.4693337;0.7831689;0.022468569;;;;;;;;;;;;;;;
2296.0;2260.7;;;;-0.46687323;0.771103;0.023250582;;;;;;;;;;;;;;;
2296.0;2260.7;;;;-0.46420676;0.75984204;0.024219517;;;;;;;;;;;;;;;
2296.0;2260.7;;;;-0.46114737;0.74919134;0.025745396;;;;;;;;;;;;;;;
2296.0;2260.7;;;;-0.45818716;0.7380486;0.026973728;;;;;;;;;;;;;;;
2296.0;2261.5;;;;;;;;;;;;;;;;;9.784997;4.566332;44.08399;;2168.3
2296.0;2261.5;;;;;;;;;;;;;;-1.1746575;-0.09985656;-0.4163335;;;;;2168.3
2296.0;2261.5;;;;;;;;;;;;;;;;;2.067629;6.076998;46.00284;;2168.3
2296.0;2261.5;;;;;;;;;;;;;;-1.1529282;-0.061952576;-0.35309917;;;;;2168.3
2296.0;2261.5;;;;;;;;;;;;;;;;;-2.887814;7.6868496;47.658466;;2177.9
2296.0;2261.5;;;;;;;;;;;;;;-1.1434065;-0.071657464;-0.2755211;;;;;2177.9
2296.0;2261.5;;;;;;;;;;;;;;;;;-5.6382947;8.396405;48.67321;;2177.9
2296.0;2261.5;;;;;;;;;;;;;;-1.1008027;-0.089602344;-0.23895992;;;;;2177.9
2296.0;2261.5;;;;;;;;;;;;;;;;;-7.5800347;10.23896;48.93643;;2187.5
2296.0;2261.5;;;;;;;;;;;;;;-1.0896329;-0.08703879;-0.22614215;;;;;2187.5
2296.0;2261.5;;;;;;;;;;;;;;;;;-10.048219;10.475478;47.96747;;2187.5
2296.0;2261.5;;;;;;;;;;;;;;-1.0690024;-0.08264413;-0.2148503;;;;;2187.5
2296.0;2264.0;;;;;;;;;;47.872097;-84.917755;86.13468;;;;;;;;;
2296.0;2264.0;;;;;;;0.69106114;-1.6249275;0.08270516;;;;;;;;;;;;
2296.0;2264.0;;;;;;;;;;48.0781;-89.770195;92.520676;;;;;;;;;
2296.0;2264.0;;;;;;;0.7232276;-1.6835841;0.07629628;;;;;;;;;;;;
2296.0;2264.8;262143;262143;12064;;;;;;;;;;;;;;;;;;
