patientId;holterMac;flexMac;;;;;;;;;;;;;;;;;;;;
;CA:F3:0B:1E:33:78;D3:4A:5C:52:80:78;;;;;;;;;;;;;;;;;;;;
receivedTimeStamp;timeStamp;red;ir;green;adxl_accX;adxl_accY;adxl_accZ;lsm_accelX;lsm_accelY;lsm_accelZ;lsm_gyroX;lsm_gyroY;lsm_gyroZ;ecg;flex_lsm_accelX;flex_lsm_accelY;flex_lsm_accelZ;flex_lsm_gyroX;flex_lsm_gyroY;flex_lsm_gyroZ;flex_cmd;flexTimeStamp
268.0;219.4;;;;;;;;;;;;;;;;;;;;17;0.1
268.0;219.4;;;;;;;;;;;;;;;;;13.40907;0.33951843;0.87740713;;127.6
268.0;219.4;;;;;;;;;;;;;;0.8764306;0.10522782;-0.17004913;;;;;127.6
268.0;219.4;;;;;;;;;;;;;;;;;-6.572924;-18.597218;-6.344035;;127.6
268.0;219.4;;;;;;;;;;;;;;0.9140904;0.11023286;-0.1850032;;;;;127.6
268.0;219.4;;;;;;;;;;;;;;;;;-65.660576;-84.80712;-58.530685;;137.2
268.0;219.4;;;;;;;;;;;;;;0.91488385;0.09967345;-0.19141209;;;;;137.2
268.0;219.4;;;;;;;;;;;;;;;;;-122.60048;-124.988556;-118.04178;;137.2
268.0;219.4;;;;;;;;;;;;;;0.9175695;0.08600116;-0.21613209;;;;;137.2
321.0;220.2;;;;;;;;;;;;;;;;;-64.11558;-124.988556;-64.18043;;146.8
321.0;220.2;;;;;;;;;;;;;;0.9252602;0.054383986;-0.24622333;;;;;146.8
321.0;220.2;;;;;;;;;;;;;;;;;-5.5810723;-124.988556;3.257851;;146.8
321.0;220.2;;;;;;;;;;;;;;0.93417156;0.03216651;-0.2675863;;;;;146.8
321.0;220.2;;;;;;;;;;;;;;;;;-11.226996;-100.203705;20.546587;;156.5
321.0;220.2;;;;;;;;;;;;;;0.9335002;0.0046388134;-0.27784052;;;;;156.5
321.0;220.2;;;;;;;;;;;;;;;;;-16.90344;-16.281626;49.92065;;156.5
321.0;220.2;;;;;;;;;;;;;;0.93295085;-0.036317028;-0.28107548;;;;;156.5
321.0;220.2;;;;;;;;;;;;;;;;;-12.981811;-9.769737;53.941467;;166.0
321.0;220.2;;;;;;;;;;;;;;0.9470504;-0.072878204;-0.2987762;;;;;166.0
321.0;220.2;;;;;;;;;;;;;;;;;-7.26722;-10.124516;57.33665;;166.0
321.0;220.2;;;;;;;;;;;;;;0.9493698;-0.120303966;-0.30787072;;;;;166.0
321.0;279.4;;;;;;;;;;;;;;;;;-4.5854063;-10.563219;59.526356;;175.7
321.0;279.4;;;;;;;;;;;;;;0.9508347;-0.14502396;-0.3211768;;;;;175.7
321.0;279.4;;;;;;;;;;;;;;;;;-3.1586657;-10.395368;60.34272;;175.7
321.0;279.4;;;;;;;;;;;;;;0.94137394;-0.1864681;-0.32490006;;;;;175.7
321.0;279.4;;;;;;;;;;;;;;;;;-0.6485183;-9.399701;59.125797;;185.2
321.0;279.4;;;;;;;;;;;;;;0.9340495;-0.19898069;-0.31537828;;;;;185.2
321.0;279.4;;;;;;;;;;;;;;;;;0.14877774;-9.296701;57.569355;;185.2
321.0;279.4;;;;;;;;;;;;;;0.9394818;-0.20752586;-0.31965086;;;;;185.2
321.0;279.4;;;;;;;;;;;;;;;;;-1.6899625;-9.323405;55.013428;;194.7
321.0;279.4;;;;;;;;;;;;;;0.9322184;-0.2151555;-0.31958982;;;;;194.7
321.0;279.4;;;;;;;;;;;;;;;;;-4.119999;-10.010071;51.28254;;194.7
321.0;279.4;;;;;;;;;;;;;;0.941435;-0.14728233;-0.34388256;;;;;194.7
383.0;280.2;;;;;;;;;;;;;;;;;-5.8099613;-9.067812;51.328316;;204.4
383.0;280.2;;;;;;;;;;;;;;0.9144566;-0.11249123;-0.3455916;;;;;204.4
383.0;280.2;;;;;;;;;;;;;;;;;-7.4808497;-8.419294;50.740837;;204.4
383.0;280.2;;;;;;;;;;;;;;0.9012726;-0.07678457;-0.34101382;;;;;204.4
383.0;280.2;;;;;;;;;;;;;;;;;-9.956663;-7.9462566;49.80239;;214.0
383.0;280.2;;;;;;;;;;;;;;0.90340894;-0.029969176;-0.34626302;;;;;214.0
383.0;280.2;;;;;;;;;;;;;;;;;-11.909848;-6.576739;48.551136;;214.0
383.0;280.2;;;;;;;;;;;;;;0.90987885;0.025635548;-0.35047457;;;;;214.0
383.0;280.2;;;;;;;;;;;;;;;;;-12.749107;-5.9701834;48.01706;;223.7
383.0;280.2;;;;;;;;;;;;;;0.90408033;0.067751095;-0.35486922;;;;;223.7
383.0;280.2;;;;;;;;;;;;;;;;;-13.775291;-4.997406;46.628468;;223.7
383.0;280.2;;;;;;;;;;;;;;0.89907527;0.114322335;-0.36494035;;;;;223.7
383.0;347.7;;;;;;;;;;;;;;;;;-14.217811;-3.7423322;44.873653;;233.3
383.0;347.7;;;;;;;;;;;;;;0.88949245;0.14600055;-0.36805323;;;;;233.3
383.0;347.7;;;;;;;;;;;;;;;;;-14.275033;-2.6932585;43.04636;;233.3
383.0;347.7;;;;;;;;;;;;;;0.8777123;0.17731254;-0.3581042;;;;;233.3
383.0;347.7;;;;;;;;;;;;;;;;;-15.270699;-2.2698143;40.65447;;242.9
383.0;347.7;;;;;;;;;;;;;;0.87606436;0.21338542;-0.32502213;;;;;242.9
383.0;347.7;;;;;;;;;;;;;;;;;-16.529589;-3.971221;38.922546;;242.9
383.0;347.7;;;;;;;;;;;;;;0.86519974;0.25415814;-0.3030488;;;;;242.9
383.0;347.7;;;;;;;;;;;;;;;;;-17.265846;-7.3473315;39.052246;;252.6
383.0;347.7;;;;;;;;;;;;;;0.8615375;0.27362895;-0.29816583;;;;;252.6
383.0;347.7;;;;;;;;;;;;;;;;;-16.96829;-10.395368;40.864285;;252.6
383.0;347.7;;;;;;;;;;;;;;0.84377575;0.26044497;-0.2929777;;;;;252.6
444.0;348.5;;;;;;;;;;;;;;;;;-16.636404;-13.023774;41.63869;;262.2
444.0;348.5;;;;;;;;;;;;;;0.8382214;0.2395703;-0.296762;;;;;262.2
444.0;348.5;;;;;;;;;;;;;;;;;-16.91107;-14.2407;40.429394;;262.2
444.0;348.5;;;;;;;;;;;;;;0.83803827;0.23554185;-0.29902035;;;;;262.2
444.0;348.5;;;;;;;;;;;;;;;;;-18.024994;-14.275033;39.22391;;271.9
444.0;348.5;;;;;;;;;;;;;;0.8402966;0.2301706;-0.29407635;;;;;271.9
444.0;348.5;;;;;;;;;;;;;;;;;-19.421217;-14.206367;37.94214;;271.9
444.0;348.5;;;;;;;;;;;;;;0.847499;0.23371075;-0.28791162;;;;;271.9
444.0;348.5;;;;;;;;;;;;;;;;;-21.553698;-14.374218;37.38899;;281.5
444.0;348.5;;;;;;;;;;;;;;0.8455458;0.20221564;-0.27643666;;;;;281.5
444.0;348.5;;;;;;;;;;;;;;;;;-23.815882;-16.148108;36.99225;;281.5
444.0;348.5;;;;;;;;;;;;;;0.86483353;0.17816706;-0.29010895;;;;;281.5
444.0;400.1;;;;;;;;;;;;;;;;;-24.983213;-16.617329;36.236916;;291.1
444.0;400.1;;;;;;;;;;;;;;0.8714255;0.15533921;-0.29395428;;;;;291.1
444.0;400.1;;;;;;;;;;;;;;;;;-26.520586;-16.449478;35.72573;;291.1
444.0;400.1;;;;;;;;;;;;;;0.87380594;0.13574633;-0.29377118;;;;;291.1
444.0;400.1;;;;;;;;;;;;;;;;;-28.065584;-17.08655;35.340435;;300.7
444.0;400.1;;;;;;;;;;;;;;0.8695944;0.10974456;-0.29706717;;;;;300.7
444.0;400.1;;;;;;;;;;;;;;;;;-29.942472;-17.929625;35.096287;;300.7
444.0;400.1;;;;;;;;;;;;;;0.859035;0.0827662;-0.30280465;;;;;300.7
444.0;400.1;;;;;;;;;;;;;;;;;-32.01773;-19.28007;35.184025;;310.3
444.0;400.1;;;;;;;;;;;;;;0.84829247;0.04669332;-0.30512404;;;;;310.3
444.0;400.1;;;;;;;;;;;;;;;;;-33.455917;-20.695364;35.500656;;310.3
444.0;400.1;;;;;;;;;;;;;;0.8476211;0.011535997;-0.30774865;;;;;310.3
503.0;400.9;;;;;;;;;;;;;;;;;-35.267952;-21.09592;35.584583;;319.9
503.0;400.9;;;;;;;;;;;;;;0.85152745;-0.014038514;-0.3128147;;;;;319.9
503.0;400.9;;;;;;;;;;;;;;;;;-36.835842;-20.60381;35.89358;;319.9
503.0;400.9;;;;;;;;;;;;;;0.8564104;-0.03784295;-0.30152288;;;;;319.9
503.0;400.9;;;;;;;;;;;;;;;;;-38.44188;-20.851772;36.774803;;329.5
503.0;400.9;;;;;;;;;;;;;;0.86587113;-0.0667745;-0.2943205;;;;;329.5
503.0;400.9;;;;;;;;;;;;;;;;;-39.29258;-21.488846;38.270214;;329.5
503.0;400.9;;;;;;;;;;;;;;0.8808252;-0.109622486;-0.29450363;;;;;329.5
503.0;400.9;;;;;;;;;;;;;;;;;-38.659325;-21.61855;39.448986;;339.1
503.0;400.9;;;;;;;;;;;;;;0.89168984;-0.1436201;-0.29419842;;;;;339.1
503.0;400.9;;;;;;;;;;;;;;;;;-37.16773;-21.965698;40.13947;;339.1
503.0;400.9;;;;;;;;;;;;;;0.9115879;-0.16663106;-0.29468673;;;;;339.1
503.0;469.1;;;;;;;;;;;;;;;;;-34.87884;-21.454514;40.63921;;348.8
503.0;469.1;;;;;;;;;;;;;;0.92696923;-0.18561357;-0.28931546;;;;;348.8
503.0;469.1;;;;;;;;;;;;;;;;;-31.487473;-19.978178;41.49373;;348.8
503.0;469.1;;;;;;;;;;;;;;0.93710136;-0.21173742;-0.26984465;;;;;348.8
503.0;469.1;;;;;;;;;;;;;;;;;-27.52388;-17.662586;43.04636;;358.4
503.0;469.1;;;;;;;;;;;;;;0.94119084;-0.24274422;-0.24811548;;;;;358.4
503.0;469.1;;;;;;;;;;;;;;;;;-21.343884;-16.273996;43.45073;;358.4
503.0;469.1;;;;;;;;;;;;;;0.94155705;-0.25324258;-0.24152349;;;;;358.4
503.0;469.1;;;;;;;;;;;;;;;;;-14.885404;-16.266367;42.622913;;368.1
503.0;469.1;;;;;;;;;;;;;;0.94582963;-0.23126927;-0.2491531;;;;;368.1
503.0;469.1;;;;;;;;;;;;;;;;;-9.170813;-15.602588;42.26432;;368.1
503.0;469.1;;;;;;;;;;;;;;0.9369793;-0.22925505;-0.2509232;;;;;368.1
686.0;470.0;;;;;;;;;;;;;;;;;-4.093295;-14.820552;42.07358;;377.7
686.0;470.0;;;;;;;;;;;;;;0.9328898;-0.2120426;-0.26075014;;;;;377.7
686.0;470.0;;;;;;;;;;;;;;;;;0.2822962;-13.7867365;41.730247;;377.7
686.0;470.0;;;;;;;;;;;;;;0.9346599;-0.1871395;-0.27082124;;;;;377.7
686.0;470.0;;;;;;;;;;;;;;;;;3.8758507;-12.745293;41.226692;;387.2
686.0;470.0;;;;;;;;;;;;;;0.92806786;-0.15417951;-0.2783288;;;;;387.2
686.0;470.0;;;;;;;;;;;;;;;;;7.0955534;-11.9747;40.597248;;387.2
686.0;470.0;;;;;;;;;;;;;;0.93777275;-0.10541093;-0.28772852;;;;;387.2
686.0;470.0;;;;;;;;;;;;;;;;;8.987701;-11.333811;40.421764;;396.9
686.0;470.0;;;;;;;;;;;;;;0.93545336;-0.072328866;-0.29779962;;;;;396.9
686.0;470.0;;;;;;;;;;;;;;;;;9.662924;-10.85696;39.746544;;396.9
686.0;470.0;;;;;;;;;;;;;;0.93435466;-0.017090365;-0.3202002;;;;;396.9
686.0;528.4;;;;;;;;;;;;;;;;;10.349589;-10.254219;39.201023;;406.5
686.0;528.4;;;;;;;;;;;;;;0.92916656;0.013733329;-0.33930477;;;;;406.5
686.0;528.4;;;;;;;;;;;;;;;;;10.917997;-10.66622;38.49147;;406.5
686.0;528.4;;;;;;;;;;;;;;0.943083;0.065187536;-0.37244788;;;;;406.5
686.0;528.4;;;;;;;;;;;;;;;;;11.944181;-10.162663;37.53395;;416.2
686.0;528.4;;;;;;;;;;;;;;0.93954283;0.109866634;-0.39332256;;;;;416.2
686.0;528.4;;;;;;;;;;;;;;;;;12.993256;-9.792626;36.877804;;416.2
686.0;528.4;;;;;;;;;;;;;;0.9289224;0.14819789;-0.40778834;;;;;416.2
686.0;528.4;;;;;;;;;;;;;;;;;12.474441;-9.479813;35.840176;;425.8
686.0;528.4;;;;;;;;;;;;;;0.920072;0.18115787;-0.4009522;;;;;425.8
686.0;528.4;;;;;;;;;;;;;;;;;12.173071;-11.230811;35.966064;;425.8
686.0;528.4;;;;;;;;;;;;;;0.8987701;0.20917386;-0.39545885;;;;;425.8
689.0;650.2;;;;;;;;;;;;;;;;;marras.47;-13.840144;35.74862;;435.4
689.0;650.2;;;;;;;;;;;;;;0.8784448;0.23554185;-0.39576402;;;;;435.4
689.0;650.2;;;;;;;;;;;;;;;;;10.967589;-16.113773;36.14536;;435.4
689.0;650.2;;;;;;;;;;;;;;0.86306345;0.25586718;-0.39747307;;;;;435.4
689.0;650.2;;;;;;;;;;;;;;;;;9.887997;-18.047884;36.84347;;445.0
689.0;650.2;;;;;;;;;;;;;;0.8518326;0.28449354;-0.3988769;;;;;445.0
689.0;650.2;;;;;;;;;;;;;;;;;9.063997;-20.302439;36.46962;;445.0
689.0;650.2;;;;;;;;;;;;;;0.86434525;0.32276377;-0.39381084;;;;;445.0
689.0;650.2;;;;;;;;;;;;;;;;;11.162145;-20.920439;37.556843;;454.7
689.0;650.2;;;;;;;;;;;;;;0.86074406;0.3300882;-0.3678091;;;;;454.7
689.0;650.2;;;;;;;;;;;;;;;;;14.847256;-22.32429;35.691395;;454.7
689.0;650.2;;;;;;;;;;;;;;0.8691061;0.36170536;-0.35486922;;;;;454.7
689.0;651.0;;;;;;;;;;;;;;;;;17.994476;-22.682882;32.200844;;464.4
689.0;651.0;;;;;;;;;;;;;;0.8775292;0.4016846;-0.3501694;;;;;464.4
689.0;651.0;;;;;;;;;;;;;;;;;20.348215;-21.69103;28.885769;;464.4
689.0;651.0;;;;;;;;;;;;;;0.88137454;0.4331187;-0.33930477;;;;;464.4
689.0;651.0;;;;;;;;;;;;;;;;;22.991882;-20.821253;26.116215;;474.0
689.0;651.0;;;;;;;;;;;;;;0.8769799;0.45362714;-0.32673118;;;;;474.0
689.0;651.0;;;;;;;;;;;;;;;;;24.941252;-19.703512;24.891659;;474.0
689.0;651.0;;;;;;;;;;;;;;0.8796655;0.4702292;-0.33356732;;;;;474.0
689.0;651.0;;;;;;;;;;;;;;;;;26.543474;-17.670218;26.264992;;483.6
689.0;651.0;;;;;;;;;;;;;;0.86434525;0.42774743;-0.34003723;;;;;483.6
689.0;651.0;;;;;;;;;;;;;;;;;26.635029;-16.067995;25.26551;;483.6
689.0;651.0;;;;;;;;;;;;;;0.87166965;0.36945707;-0.36469617;;;;;483.6
745.0;652.7;;;;;;;;;;;;;;;;;27.428509;-14.328441;22.39677;;493.0
745.0;652.7;;;;;;;;;;;;;;0.88235116;0.3188574;-0.4054689;;;;;493.0
745.0;652.7;;;;;;;;;;;;;;;;;29.793695;-11.795404;17.39555;;493.0
745.0;652.7;;;;;;;;;;;;;;0.897;0.29389325;-0.44227424;;;;;493.0
745.0;652.7;;;;;;;;;;;;;;;;;33.413956;-9.464553;12.6117735;;502.7
745.0;652.7;;;;;;;;;;;;;;0.91909546;0.2789392;-0.47663808;;;;;502.7
745.0;652.7;;;;;;;;;;;;;;;;;37.49199;-6.9544053;8.014924;;502.7
745.0;652.7;;;;;;;;;;;;;;0.948088;0.27149266;-0.5081942;;;;;502.7
745.0;652.7;;;;;;;;;;;;;;;;;41.43269;-3.1128879;4.0246286;;512.3
745.0;652.7;;;;;;;;;;;;;;0.97634816;0.26013976;-0.51637316;;;;;512.3
745.0;652.7;;;;;;;;;;;;;;;;;43.94284;0.61037016;0.45396283;;512.3
745.0;652.7;;;;;;;;;;;;;;1.0168767;0.255562;-0.51026946;;;;;512.3
745.0;702.1;;;;;;;;;;;;;;;;;45.201725;3.8796656;-2.4071476;;522.0
745.0;702.1;;;;;;;;;;;;;;1.0693686;0.2620319;-0.5102084;;;;;522.0
745.0;702.1;;;;;;;;;;;;;;;;;45.44206;7.4045534;-5.7565536;;522.0
745.0;702.1;;;;;;;;;;;;;;1.1255226;0.2715537;-0.5102084;;;;;522.0
745.0;702.1;;;;;;;;;;;;;;;;;46.769615;11.009553;-9.475998;;531.6
745.0;702.1;;;;;;;;;;;;;;1.1893673;0.29059726;-0.5183874;;;;;531.6
745.0;702.1;;;;;;;;;;;;;;;;;51.549576;14.64507;-14.469588;;531.6
745.0;702.1;;;;;;;;;;;;;;1.2564471;0.32837915;-0.53028965;;;;;531.6
745.0;702.1;;;;;;;;;;;;;;;;;60.869167;17.132328;-20.908995;;541.2
745.0;702.1;;;;;;;;;;;;;;1.3098544;0.37104404;-0.5699637;;;;;541.2
745.0;702.1;;;;;;;;;;;;;;;;;69.62416;21.893217;-28.78277;;541.2
745.0;702.1;;;;;;;;;;;;;;1.3448896;0.44495988;-0.5851009;;;;;541.2
747.0;702.8;;;;;;;;;;;;;;;;;75.457016;28.328806;-36.36662;;550.8
747.0;702.8;;;;;;;;;;;;;;1.3336588;0.5147252;-0.5470748;;;;;550.8
747.0;702.8;;;;;;;;;;;;;;;;;80.12634;31.891842;-43.897064;;550.8
747.0;702.8;;;;;;;;;;;;;;1.2899563;0.59273046;-0.50306714;;;;;550.8
747.0;702.8;;;;;;;;;;;;;;;;;81.12964;32.555622;-52.46132;;560.4
747.0;702.8;;;;;;;;;;;;;;1.2067019;0.65919983;-0.45674002;;;;;560.4
747.0;702.8;;;;;;;;;;;;;;;;;75.88428;31.338696;-66.08402;;560.4
747.0;702.8;;;;;;;;;;;;;;1.1366314;0.73897517;-0.4350719;;;;;560.4
747.0;702.8;;;;;;;;;;;;;;;;;66.21754;31.590473;-83.395645;;570.1
747.0;702.8;;;;;;;;;;;;;;1.0982391;0.8438368;-0.43116552;;;;;570.1
747.0;702.8;;;;;;;;;;;;;;;;;53.712578;34.684284;-105.05234;;570.1
747.0;702.8;;;;;;;;;;;;;;1.0505692;0.89724416;-0.4079104;;;;;570.1
747.0;709.4;;;;;;;;;;;;;;;;;38.7814;40.002136;-123.031555;;579.8
747.0;709.4;;;;;;;;;;;;;;1.0480056;1.0115055;-0.3576159;;;;;579.8
747.0;709.4;;;;;;;;;;;;;;;;;21.679586;45.865505;-124.988556;;579.8
747.0;709.4;;;;;;;;;;;;;;1.0244453;1.1628773;-0.23841059;;;;;579.8
747.0;709.4;;;;;;;;;;;;;;;;;4.0017395;47.704247;-124.988556;;589.5
747.0;709.4;;;;;;;;;;;;;;0.9898984;1.2601703;-0.13977477;;;;;589.5
747.0;709.4;;;;;;;;;;;;;;;;;-8.560442;47.12058;-124.988556;;589.5
747.0;709.4;;;;;;;;;;;;;;0.98422194;1.3378704;-0.0220954;;;;;589.5
747.0;709.4;;;;;;;;;;;;;;;;;-21.946625;48.867764;-124.988556;;599.1
747.0;709.4;;;;;;;;;;;;;;1.0043641;1.4009827;-0.04425184;;;;;599.1
747.0;709.4;;;;;;;;;;;;;;;;;-23.224586;50.847652;-124.98093;;599.1
747.0;709.4;;;;;;;;;;;;;;0.9446089;1.3089999;-0.032837916;;;;;599.1
808.0;710.6;;;;;;;;;;;;;;;;;-29.56862;49.157692;-122.83318;;608.7
808.0;710.6;;;;;;;;;;;;;;0.872158;1.2251351;-0.033265177;;;;;608.7
808.0;710.6;;;;;;;;;;;;;;;;;-48.265022;43.79788;-117.92734;;608.7
808.0;710.6;;;;;;;;;;;;;;0.8360851;1.134556;-0.09424116;;;;;608.7
808.0;710.6;;;;;;;;;;;;;;;;;-62.009796;39.07895;-118.907745;;618.1
808.0;710.6;;;;;;;;;;;;;;0.84377575;1.0168157;-0.14148381;;;;;618.1
808.0;710.6;;;;;;;;;;;;;;;;;-67.13691;35.485397;-124.03104;;618.1
808.0;710.6;;;;;;;;;;;;;;0.8504898;0.959624;-0.19635609;;;;;618.1
808.0;710.6;;;;;;;;;;;;;;;;;-72.771385;34.749138;-124.988556;;627.8
808.0;710.6;;;;;;;;;;;;;;0.8141728;0.97738576;-0.21436201;;;;;627.8
808.0;710.6;;;;;;;;;;;;;;;;;-81.41575;30.411694;-124.988556;;627.8
808.0;710.6;;;;;;;;;;;;;;0.78872037;0.971221;-0.1909238;;;;;627.8
808.0;711.4;;;;;;;;;;;;;;;;;-94.88968;22.267067;-124.988556;;637.4
808.0;711.4;;;;;;;;;;;;;;0.86355174;0.9714652;-0.1821955;;;;;637.4
808.0;711.4;;;;;;;;;;;;;;;;;-109.43556;21.408735;-124.988556;;637.4
808.0;711.4;;;;;;;;;;;;;;0.9479659;0.82320625;-0.12689596;;;;;637.4
808.0;711.4;;;;;;;;;;;;;;;;;-121.39881;22.263252;-124.90082;;647.1
808.0;711.4;;;;;;;;;;;;;;1.060335;0.6378369;-0.050050355;;;;;647.1
808.0;711.4;;;;;;;;;;;;;;;;;-124.98474;23.857845;-119.91103;;647.1
808.0;711.4;;;;;;;;;;;;;;1.1611682;0.5376751;-0.07190161;;;;;647.1
808.0;711.4;;;;;;;;;;;;;;;;;-124.988556;32.860806;-105.57497;;656.6
808.0;711.4;;;;;;;;;;;;;;1.2488174;0.46925262;-0.08618427;;;;;656.6
808.0;711.4;;;;;;;;;;;;;;;;;-124.35911;41.539505;-89.43449;;656.6
808.0;711.4;;;;;;;;;;;;;;1.3592334;0.42597735;-0.044373915;;;;;656.6
925.0;762.1;;;;;;;;;;;;;;;;;-122.604294;51.03076;-65.782646;;666.1
925.0;762.1;;;;;;;;;;;;;;1.518479;0.37916195;0.0623188;;;;;666.1
925.0;762.1;;;;;;;;;;;;;;;;;-123.11548;54.822685;-36.896877;;666.1
925.0;762.1;;;;;;;;;;;;;;1.7473677;0.20960112;0.12652974;;;;;666.1
925.0;762.1;;;;;;;;;;;;;;;;;-97.773674;38.979767;2.6894438;;675.7
925.0;762.1;;;;;;;;;;;;;;1.9556872;0.03936888;-0.029053621;;;;;675.7
925.0;762.1;;;;;;;;;;;;;;;;;-43.996246;8.720664;59.289837;;675.7
925.0;762.1;;;;;;;;;;;;;;1.9652089;-0.17633595;-0.26270333;;;;;675.7
925.0;762.1;;;;;;;;;;;;;;;;;0.4463332;-10.887479;83.12479;;685.4
925.0;762.1;;;;;;;;;;;;;;1.9489731;-0.39912108;-0.4177984;;;;;685.4
925.0;762.1;;;;;;;;;;;;;;;;;10.612812;-14.500107;72.90872;;685.4
925.0;762.1;;;;;;;;;;;;;;1.8237861;-0.5955382;-0.46327096;;;;;685.4
925.0;769.5;;;;;;;;;;;;;;;;;-15.4194765;-15.972626;43.362988;;694.9
925.0;769.5;;;;;;;;;;;;;;1.6259041;-0.66316724;-0.5992004;;;;;694.9
925.0;769.5;;;;;;;;;;;;;;;;;-52.625355;-15.015106;10.948516;;694.9
925.0;769.5;;;;;;;;;;;;;;1.4080629;-0.8515885;-0.75624865;;;;;694.9
925.0;769.5;;;;;;;;;;;;;;;;;-59.068577;-36.172062;-35.355694;;704.5
925.0;769.5;;;;;;;;;;;;;;1.1853389;-1.0517288;-0.9832453;;;;;704.5
925.0;769.5;;;;;;;;;;;;;;;;;-38.31599;-68.37672;-101.645706;;704.5
925.0;769.5;;;;;;;;;;;;;;1.157506;-0.8766747;-1.2511978;;;;;704.5
925.0;769.5;;;;;;;;;;;;;;;;;-34.241768;-70.77242;-124.839775;;714.2
925.0;769.5;;;;;;;;;;;;;;1.1762444;-0.36329234;-1.2990509;;;;;714.2
925.0;769.5;;;;;;;;;;;;;;;;;-45.358135;-50.42802;-124.988556;;714.2
925.0;769.5;;;;;;;;;;;;;;1.0533769;-0.21570483;-1.1738029;;;;;714.2
928.0;822.3;;;;;;;;;;;;;;;;;-30.938139;-30.762657;-124.988556;;723.9
928.0;822.3;;;;;;;;;;;;;;1.0246894;-0.16064943;-1.0878017;;;;;723.9
928.0;822.3;;;;;;;;;;;;;;;;;2.4719992;5.527665;-124.988556;;723.9
928.0;822.3;;;;;;;;;;;;;;1.0644245;-0.1589404;-0.97598195;;;;;723.9
928.0;822.3;;;;;;;;;;;;;;;;;39.95254;62.475204;-124.988556;;733.5
928.0;822.3;;;;;;;;;;;;;;1.1379131;-0.18353832;-0.77010405;;;;;733.5
928.0;822.3;;;;;;;;;;;;;;;;;75.72024;113.53267;-124.988556;;733.5
928.0;822.3;;;;;;;;;;;;;;1.2635883;-0.20087282;-0.5692312;;;;;733.5
928.0;822.3;;;;;;;;;;;;;;;;;77.24616;124.988556;-124.988556;;743.1
928.0;822.3;;;;;;;;;;;;;;1.3864559;-0.0496231;0.11243019;;;;;743.1
928.0;822.3;;;;;;;;;;;;;;;;;-5.6382947;124.988556;-124.988556;;743.1
928.0;822.3;;;;;;;;;;;;;;1.3501389;-0.08026368;0.8215583;;;;;743.1
928.0;882.8;;;;;;;;;;;;;;;;;-30.861843;103.59508;-124.988556;;752.7
928.0;882.8;;;;;;;;;;;;;;1.2939848;-0.24951933;0.8968169;;;;;752.7
928.0;882.8;;;;;;;;;;;;;;;;;50.241096;-8.991516;-124.988556;;752.7
928.0;882.8;;;;;;;;;;;;;;1.2222053;-0.050660726;0.61635184;;;;;752.7
928.0;882.8;;;;;;;;;;;;;;;;;42.004913;-95.572525;-124.988556;;762.4
928.0;882.8;;;;;;;;;;;;;;1.2352061;-0.08703879;-0.1765801;;;;;762.4
928.0;882.8;;;;;;;;;;;;;;;;;22.247993;-104.747154;-124.988556;;762.4
928.0;882.8;;;;;;;;;;;;;;1.307352;-0.06268502;-0.70204777;;;;;762.4
928.0;882.8;;;;;;;;;;;;;;;;;23.415327;-70.77242;-124.23322;;772.1
928.0;882.8;;;;;;;;;;;;;;1.2067629;-0.06939909;-0.7762688;;;;;772.1
928.0;882.8;;;;;;;;;;;;;;;;;22.156437;-32.24662;-118.66741;;772.1
928.0;882.8;;;;;;;;;;;;;;0.96926785;-0.122013;-0.5013581;;;;;772.1
987.0;883.6;;;;;;;;;;;;;;;;;13.111515;-20.084993;-115.03189;;781.8
987.0;883.6;;;;;;;;;;;;;;0.8316294;-0.12836085;-0.27661976;;;;;781.8
987.0;883.6;;;;;;;;;;;;;;;;;-1.8578143;-24.094364;-112.39204;;781.8
987.0;883.6;;;;;;;;;;;;;;0.81191444;-0.11200293;-0.24671163;;;;;781.8
987.0;883.6;;;;;;;;;;;;;;;;;-13.870663;-27.813807;-108.23771;;791.3
987.0;883.6;;;;;;;;;;;;;;0.8562273;-0.09790338;-0.30103457;;;;;791.3
987.0;883.6;;;;;;;;;;;;;;;;;-22.179325;-26.448103;-102.65282;;791.3
987.0;883.6;;;;;;;;;;;;;;0.86037785;-0.101260416;-0.31037325;;;;;791.3
987.0;883.6;;;;;;;;;;;;;;;;;-30.3621;-25.379955;-96.70934;;801.0
987.0;883.6;;;;;;;;;;;;;;0.8114261;-0.11322367;-0.25366986;;;;;801.0
987.0;883.6;;;;;;;;;;;;;;;;;-39.9678;-31.888027;-89.30479;;801.0
987.0;883.6;;;;;;;;;;;;;;0.78774375;-0.13171789;-0.24842067;;;;;801.0
987.0;884.3;;;;;;;;;;;;;;;;;-51.404613;-34.646137;-83.72753;;810.7
987.0;884.3;;;;;;;;;;;;;;0.7879879;-0.12878811;-0.2446974;;;;;810.7
987.0;884.3;;;;;;;;;;;;;;;;;-62.97876;-34.72243;-78.25709;;810.7
987.0;884.3;;;;;;;;;;;;;;0.7873165;-0.13251136;-0.25141147;;;;;810.7
987.0;884.3;;;;;;;;;;;;;;;;;-70.307014;-34.77584;-71.11194;;820.3
987.0;884.3;;;;;;;;;;;;;;0.7586901;-0.16254158;-0.23633534;;;;;820.3
987.0;884.3;;;;;;;;;;;;;;;;;-74.40794;-35.119175;-65.27146;;820.3
987.0;884.3;;;;;;;;;;;;;;0.7126072;-0.18005921;-0.21173742;;;;;820.3
987.0;884.3;;;;;;;;;;;;;;;;;-78.23038;-37.003693;-58.332317;;830.0
987.0;884.3;;;;;;;;;;;;;;0.68312633;-0.21662039;-0.1986755;;;;;830.0
987.0;884.3;;;;;;;;;;;;;;;;;-82.23594;-38.285473;-51.61443;;830.0
987.0;884.3;;;;;;;;;;;;;;0.66518146;-0.24970244;-0.20386365;;;;;830.0
1048.0;942.9;;;;;;;;;;;;;;;;;-84.06705;-39.18958;-44.114506;;839.5
1048.0;942.9;;;;;;;;;;;;;;0.61671805;-0.28955963;-0.19281594;;;;;839.5
1048.0;942.9;;;;;;;;;;;;;;;;;-83.967865;-40.612507;-37.949768;;839.5
1048.0;942.9;;;;;;;;;;;;;;0.56263924;-0.30823696;-0.17554247;;;;;839.5
1048.0;942.9;;;;;;;;;;;;;;;;;-84.116646;-42.0278;-30.407879;;849.1
1048.0;942.9;;;;;;;;;;;;;;0.50886565;-0.32782984;-0.16730247;;;;;849.1
1048.0;942.9;;;;;;;;;;;;;;;;;-85.77227;-41.512802;-23.911253;;849.1
1048.0;942.9;;;;;;;;;;;;;;0.4733421;-0.3488876;-0.16956083;;;;;849.1
1048.0;942.9;;;;;;;;;;;;;;;;;-87.0159;-37.04184;-18.12418;;858.7
1048.0;942.9;;;;;;;;;;;;;;0.42164373;-0.36396375;-0.13379315;;;;;858.7
1048.0;942.9;;;;;;;;;;;;;;;;;-87.49657;-35.073395;-13.546404;;858.7
1048.0;942.9;;;;;;;;;;;;;;0.39362773;-0.37580493;-0.119083226;;;;;858.7
1048.0;944.0;;;;;;;;;;;;;;;;;-87.52327;-34.962765;-8.568071;;868.4
1048.0;944.0;;;;;;;;;;;;;;0.38605914;-0.39106417;-0.14465773;;;;;868.4
1048.0;944.0;;;;;;;;;;;;;;;;;-84.13572;-35.256508;-4.093295;;868.4
1048.0;944.0;;;;;;;;;;;;;;0.36713767;-0.4173101;-0.15875728;;;;;868.4
1048.0;944.0;;;;;;;;;;;;;;;;;-79.39771;-36.194954;-1.4915922;;877.9
1048.0;944.0;;;;;;;;;;;;;;0.35554063;-0.40784937;-0.16559343;;;;;877.9
1048.0;944.0;;;;;;;;;;;;;;;;;-75.15183;-36.805325;2.3194067;;877.9
1048.0;944.0;;;;;;;;;;;;;;0.3406476;-0.41450238;-0.1657155;;;;;877.9
1048.0;944.0;;;;;;;;;;;;;;;;;-70.60457;-37.32414;7.5647755;;887.6
1048.0;944.0;;;;;;;;;;;;;;0.34467605;-0.44447157;-0.18243966;;;;;887.6
1048.0;944.0;;;;;;;;;;;;;;;;;-64.19187;-36.839657;13.359478;;887.6
1048.0;944.0;;;;;;;;;;;;;;0.33869442;-0.4725486;-0.19141209;;;;;887.6
1106.0;1003.7;;;;;;;;;;;;;;;;;-54.429764;-36.172062;16.6097;;897.1
1106.0;1003.7;;;;;;;;;;;;;;0.32343516;-0.4834132;-0.17810602;;;;;897.1
1106.0;1003.7;;;;;;;;;;;;;;;;;-43.17225;-35.95462;18.31492;;897.1
1106.0;1003.7;;;;;;;;;;;;;;0.32294688;-0.47859126;-0.15955077;;;;;897.1
1106.0;1003.7;;;;;;;;;;;;;;;;;-32.227547;-36.736656;20.680105;;906.7
1106.0;1003.7;;;;;;;;;;;;;;0.35065767;-0.4496597;-0.13306071;;;;;906.7
1106.0;1003.7;;;;;;;;;;;;;;;;;-23.503067;-38.762325;24.933622;;906.7
1106.0;1003.7;;;;;;;;;;;;;;0.37537766;-0.43354595;-0.13159582;;;;;906.7
1106.0;1003.7;;;;;;;;;;;;;;;;;-16.476181;-40.456097;31.140324;;916.3
1106.0;1003.7;;;;;;;;;;;;;;0.3391827;-0.45954773;-0.1490524;;;;;916.3
1106.0;1003.7;;;;;;;;;;;;;;;;;-11.558886;-42.9281;37.438583;;916.3
1106.0;1003.7;;;;;;;;;;;;;;0.34662923;-0.47572252;-0.16071047;;;;;916.3
1106.0;1004.3;;;;;;;;;;;;;;;;;-9.281442;-44.915615;43.565174;;926.0
1106.0;1004.3;;;;;;;;;;;;;;0.3935667;-0.47297585;-0.18622394;;;;;926.0
1106.0;1004.3;;;;;;;;;;;;;;;;;-9.464553;-36.80914;48.9021;;926.0
1106.0;1004.3;;;;;;;;;;;;;;0.44343394;-0.4776757;-0.07647938;;;;;926.0
1106.0;1004.3;;;;;;;;;;;;;;;;;-12.535478;-26.3184;52.48802;;935.7
1106.0;1004.3;;;;;;;;;;;;;;0.5418866;-0.44636372;0.01660207;;;;;935.7
1106.0;1004.3;;;;;;;;;;;;;;;;;-16.155737;-14.01181;54.616688;;935.7
1106.0;1004.3;;;;;;;;;;;;;;0.61922055;-0.37385175;0.11114841;;;;;935.7
1106.0;1004.3;;;;;;;;;;;;;;;;;-20.588549;-2.8305917;53.79269;;945.2
1106.0;1004.3;;;;;;;;;;;;;;0.7088229;-0.24127933;0.15802485;;;;;945.2
1106.0;1004.3;;;;;;;;;;;;;;;;;-27.932066;12.68807;47.925507;;945.2
1106.0;1004.3;;;;;;;;;;;;;;0.7960448;-0.022278512;0.22284615;;;;;945.2
1167.0;1063.3;;;;;;;;;;;;;;;;;-39.296394;28.500473;38.77377;;954.8
1167.0;1063.3;;;;;;;;;;;;;;0.9211707;0.23004852;0.24976349;;;;;954.8
1167.0;1063.3;;;;;;;;;;;;;;;;;-37.076176;42.573322;24.754326;;954.8
1167.0;1063.3;;;;;;;;;;;;;;0.99038666;0.40974152;0.32343516;;;;;954.8
1167.0;1063.3;;;;;;;;;;;;;;;;;-17.017883;43.11884;2.45674;;964.5
1167.0;1063.3;;;;;;;;;;;;;;1.0379345;0.66658527;0.41621143;;;;;964.5
1167.0;1063.3;;;;;;;;;;;;;;;;;-8.29722;36.393322;-28.22199;;964.5
1167.0;1063.3;;;;;;;;;;;;;;1.101474;0.8544572;0.33448288;;;;;964.5
1167.0;1063.3;;;;;;;;;;;;;;;;;8.548997;34.421062;-55.013428;;974.1
1167.0;1063.3;;;;;;;;;;;;;;1.149205;1.1155126;0.26545;;;;;974.1
1167.0;1063.3;;;;;;;;;;;;;;;;;21.370586;41.96295;-79.2146;;974.1
1167.0;1063.3;;;;;;;;;;;;;;1.1476791;1.5276955;0.15332499;;;;;974.1
1167.0;1064.5;;;;;;;;;;;;;;;;;44.53795;34.34858;-80.374306;;983.7
1167.0;1064.5;;;;;;;;;;;;;;1.0401928;1.9702139;8.5451826E-4;;;;;983.7
1167.0;1064.5;;;;;;;;;;;;;;;;;92.38334;-14.751884;-70.806755;;983.7
1167.0;1064.5;;;;;;;;;;;;;;0.91763055;1.9979857;-0.7378155;;;;;983.7
1167.0;1064.5;;;;;;;;;;;;;;;;;124.217964;-59.83154;-91.43346;;993.4
1167.0;1064.5;;;;;;;;;;;;;;0.9938658;1.9979857;-1.4505447;;;;;993.4
1167.0;1064.5;;;;;;;;;;;;;;;;;124.95804;-88.1222;-103.0076;;993.4
1167.0;1064.5;;;;;;;;;;;;;;1.1694692;1.9979857;-1.7816706;;;;;993.4
1167.0;1064.5;;;;;;;;;;;;;;;;;120.17044;-98.98297;-54.06354;;1003.0
1167.0;1064.5;;;;;;;;;;;;;;1.3293252;1.9979857;-1.5808588;;;;;1003.0
1167.0;1064.5;;;;;;;;;;;;;;;;;83.05231;-94.85153;-9.426405;;1003.0
1167.0;1064.5;;;;;;;;;;;;;;1.3053377;1.9616077;-0.94137394;;;;;1003.0
1170.0;1123.7;;;;;;;;;;;;;;;;;48.74569;-84.47142;-11.085848;;1012.7
1170.0;1123.7;;;;;;;;;;;;;;1.2028565;1.8518631;-0.615009;;;;;1012.7
1170.0;1123.7;;;;;;;;;;;;;;;;;13.721885;-59.354687;-16.338848;;1012.7
1170.0;1123.7;;;;;;;;;;;;;;1.159093;1.9376202;-0.25714895;;;;;1012.7
1170.0;1123.7;;;;;;;;;;;;;;;;;-23.827326;-34.3791;-19.425032;;1022.3
1170.0;1123.7;;;;;;;;;;;;;;1.1130711;1.8287911;0.031922363;;;;;1022.3
1170.0;1123.7;;;;;;;;;;;;;;;;;-41.848507;-15.072329;-9.983367;;1022.3
1170.0;1123.7;;;;;;;;;;;;;;0.96292;1.4637288;0.18048647;;;;;1022.3
1170.0;1123.7;;;;;;;;;;;;;;;;;-37.61025;-6.1189613;-3.482925;;1031.9
1170.0;1123.7;;;;;;;;;;;;;;0.8806421;1.1935179;0.08844264;;;;;1031.9
1170.0;1123.7;;;;;;;;;;;;;;;;;-22.90414;1.9341105;0.84307384;;1031.9
1170.0;1123.7;;;;;;;;;;;;;;0.7726066;1.0295725;-0.0110477;;;;;1031.9
1174.0;1124.5;;;;;;;;;;;;;;;;;-12.527848;1.2627033;6.7445908;;1041.6
1174.0;1124.5;;;;;;;;;;;;;;0.6650594;0.8069704;-0.16229743;;;;;1041.6
1174.0;1124.5;;;;;;;;;;;;;;;;;-3.6774805;-8.125553;10.635701;;1041.6
1174.0;1124.5;;;;;;;;;;;;;;0.6041444;0.5298013;-0.35181737;;;;;1041.6
1174.0;1124.5;;;;;;;;;;;;;;;;;3.5973694;-18.650625;15.030366;;1051.2
1174.0;1124.5;;;;;;;;;;;;;;0.5582446;0.22650838;-0.49195838;;;;;1051.2
1174.0;1124.5;;;;;;;;;;;;;;;;;5.394147;-28.168585;23.34666;;1051.2
1174.0;1124.5;;;;;;;;;;;;;;0.58900726;-0.048585467;-0.606708;;;;;1051.2
1174.0;1124.5;;;;;;;;;;;;;;;;;0.14877774;-35.2031;39.658802;;1060.9
1174.0;1124.5;;;;;;;;;;;;;;0.6925871;-0.3688467;-0.6967986;;;;;1060.9
1174.0;1124.5;;;;;;;;;;;;;;;;;-6.4012575;-40.486618;59.400467;;1060.9
1174.0;1124.5;;;;;;;;;;;;;;0.89223915;-0.6047548;-0.69966733;;;;;1060.9
1174.0;1127.9;;;;0.0;0.0;0.0;;;;;;;;;;;;;;;
1174.0;1127.9;;;;-0.15615465;0.4814034;0.08725358;;;;;;;;;;;;;;;
1174.0;1127.9;;;;-0.5104142;1.3460122;0.1811371;;;;;;;;;;;;;;;
1174.0;1127.9;;;;-0.5298806;1.364216;0.17434694;;;;;;;;;;;;;;;
1174.0;1127.9;;;;-0.5326653;1.3590013;0.176075;;;;;;;;;;;;;;;
1174.0;1138.0;;;;-0.5331078;1.3530236;0.17708208;;;;;;;;;;;;;;;
1174.0;1138.0;;;;-0.5335236;1.3465539;0.17736818;;;;;;;;;;;;;;;
1174.0;1138.0;;;;-0.5345574;1.3399888;0.17747118;;;;;;;;;;;;;;;
1174.0;1138.0;;;;-0.53443533;1.3344537;0.17847826;;;;;;;;;;;;;;;
1174.0;1138.0;;;;-0.53521353;1.3297502;0.1796837;;;;;;;;;;;;;;;
1225.0;1139.2;57403;57453;11162;;;;;;;;;;;;;;;;;;
1225.0;1147.9;;;;-0.5357476;1.3249818;0.1814728;;;;;;;;;;;;;;;
1225.0;1147.9;;;;-0.53607184;1.3208696;0.18377306;;;;;;;;;;;;;;;
1225.0;1147.9;;;;-0.53744894;1.3178369;0.18566896;;;;;;;;;;;;;;;
1225.0;1147.9;;;;-0.5384751;1.3145028;0.1875954;;;;;;;;;;;;;;;
1225.0;1147.9;;;;-0.54123694;1.3112832;0.18883899;;;;;;;;;;;;;;;
1225.0;1157.9;;;;-0.5435601;1.3081018;0.19211963;;;;;;;;;;;;;;;
1225.0;1157.9;;;;-0.5468102;1.3050767;0.19635394;;;;;;;;;;;;;;;
1225.0;1157.9;;;;-0.54907614;1.3016473;0.20067218;;;;;;;;;;;;;;;
1225.0;1157.9;;;;-0.55118185;1.2978784;0.20532611;;;;;;;;;;;;;;;
1225.0;1157.9;;;;-0.553299;1.2932702;0.209034;;;;;;;;;;;;;;;
1225.0;1159.2;73954;73917;11144;;;;;;;;;;;;;;;;;;
1225.0;1165.6;;;;;;;;;;;;;0;;;;;;;;
1225.0;1165.6;;;;;;;;;;;;;0;;;;;;;;
1225.0;1165.6;;;;;;;;;;;;;-1;;;;;;;;
1225.0;1165.6;;;;;;;;;;;;;-3;;;;;;;;
1225.0;1165.6;;;;;;;;;;;;;-3;;;;;;;;
1225.0;1168.0;;;;-0.5549813;1.287922;0.21346286;;;;;;;;;;;;;;;
1225.0;1168.0;;;;-0.55590445;1.2822381;0.21975711;;;;;;;;;;;;;;;
1225.0;1168.0;;;;-0.55806357;1.2752496;0.22488788;;;;;;;;;;;;;;;
1225.0;1168.0;;;;-0.5598412;1.2677232;0.2305794;;;;;;;;;;;;;;;
1225.0;1168.0;;;;-0.5601998;1.2585794;0.23670581;;;;;;;;;;;;;;;
1226.0;1178.1;;;;-0.5611802;1.2489282;0.24253467;;;;;;;;;;;;;;;
1226.0;1178.1;;;;-0.5612145;1.2371446;0.24883273;;;;;;;;;;;;;;;
1226.0;1178.1;;;;-0.56104666;1.224518;0.25537112;;;;;;;;;;;;;;;
1226.0;1178.1;;;;-0.55909353;1.210682;0.2629433;;;;;;;;;;;;;;;
1226.0;1178.1;;;;-0.55582815;1.1956064;0.2715073;;;;;;;;;;;;;;;
1226.0;1179.5;90241;90224;11122;;;;;;;;;;;;;;;;;;
1226.0;1184.0;;;;;;;;;;;;;;;;;-8.857997;-41.24958;81.41575;;1070.6
1226.0;1184.0;;;;;;;;;;;;;;1.1664175;-0.62947476;-0.7044893;;;;;1070.6
1226.0;1184.0;;;;;;;;;;;;;;;;;-8.69396;-34.67284;108.70312;;1070.6
1226.0;1184.0;;;;;;;;;;;;;;1.4165472;-0.63252664;-0.51875365;;;;;1070.6
1226.0;1184.0;;;;;;;;;;;;;;;;;-25.936918;-27.306437;124.24085;;1080.2
1226.0;1184.0;;;;;;;;;;;;;;1.6298105;-0.62318796;-0.3988769;;;;;1080.2
1226.0;1184.0;;;;;;;;;;;;;;;;;-35.973694;-12.058626;124.64141;;1080.2
1226.0;1184.0;;;;;;;;;;;;;;1.5618763;-0.7220069;-0.3717765;;;;;1080.2
1226.0;1184.0;;;;;;;;;;;;;;;;;-27.699362;10.185553;100.05875;;1089.6
1226.0;1184.0;;;;;;;;;;;;;;1.1797845;-0.598529;-0.21045564;;;;;1089.6
1226.0;1184.0;;;;;;;;;;;;;;;;;-1.7128513;17.372662;43.86273;;1089.6
1226.0;1184.0;;;;;;;;;;;;;;0.9439375;0.17157505;0.03112888;;;;;1089.6
1227.0;1184.7;;;;;;;;;;;;;;;;;3.4218879;-0.9155553;20.14603;;1099.3
1227.0;1184.7;;;;;;;;;;;;;;0.90560627;0.5049593;0.037598804;;;;;1099.3
1227.0;1184.7;;;;;;;;;;;;;;;;;6.3058867;-28.000732;1.3542589;;1099.3
1227.0;1184.7;;;;;;;;;;;;;;1.0516678;0.7014374;-0.2405469;;;;;1099.3
1227.0;1184.7;;;;;;;;;;;;;;;;;3.872036;-25.440992;-13.077182;;1108.9
1227.0;1184.7;;;;;;;;;;;;;;1.3019196;0.83816034;-0.37256998;;;;;1108.9
1227.0;1184.7;;;;;;;;;;;;;;;;;-5.264443;0.4768517;-22.350992;;1108.9
1227.0;1184.7;;;;;;;;;;;;;;1.4390087;0.93856627;-0.15057832;;;;;1108.9
1227.0;1184.7;;;;;;;;;;;;;;;;;-19.47844;13.660849;-28.786585;;1118.6
1227.0;1184.7;;;;;;;;;;;;;;1.508713;1.0135807;0.107181005;;;;;1118.6
1227.0;1184.7;;;;;;;;;;;;;;;;;-41.402172;22.52266;-31.144138;;1118.6
1227.0;1184.7;;;;;;;;;;;;;;1.6678365;1.0391552;0.2583697;;;;;1118.6
1227.0;1188.0;;;;-0.55289084;1.1791879;0.2765694;;;;;;;;;;;;;;;
1227.0;1188.0;;;;-0.54975134;1.1614801;0.2817879;;;;;;;;;;;;;;;
1227.0;1188.0;;;;-0.5460053;1.1430894;0.28594592;;;;;;;;;;;;;;;
1227.0;1188.0;;;;-0.5423241;1.1244394;0.29010394;;;;;;;;;;;;;;;
1227.0;1188.0;;;;-0.53906256;1.1043855;0.2942429;;;;;;;;;;;;;;;
1227.0;1198.0;;;;-0.5355492;1.0848542;0.29571155;;;;;;;;;;;;;;;
1227.0;1198.0;;;;-0.5320092;1.0662271;0.29702762;;;;;;;;;;;;;;;
1227.0;1198.0;;;;-0.529152;1.0470315;0.29709247;;;;;;;;;;;;;;;
1227.0;1198.0;;;;-0.5247498;1.0284616;0.29547885;;;;;;;;;;;;;;;
1227.0;1198.0;;;;-0.52068716;1.0110437;0.29221728;;;;;;;;;;;;;;;
1227.0;1199.3;106665;106621;11115;;;;;;;;;;;;;;;;;;
1286.0;1205.7;;;;;;;;;;;;;-3;;;;;;;;
1286.0;1205.7;;;;;;;;;;;;;-9;;;;;;;;
1286.0;1205.7;;;;;;;;;;;;;-14;;;;;;;;
1286.0;1205.7;;;;;;;;;;;;;2;;;;;;;;
1286.0;1205.7;;;;;;;;;;;;;-14;;;;;;;;
1286.0;1207.8;;;;-0.51593024;0.99450696;0.28960422;;;;;;;;;;;;;;;
1286.0;1207.8;;;;-0.51103216;0.97960675;0.28585818;;;;;;;;;;;;;;;
1286.0;1207.8;;;;-0.5068551;0.96561444;0.2800446;;;;;;;;;;;;;;;
1286.0;1207.8;;;;-0.50186163;0.9538919;0.2756386;;;;;;;;;;;;;;;
1286.0;1207.8;;;;-0.49700934;0.94443905;0.27147678;;;;;;;;;;;;;;;
1286.0;1217.8;;;;-0.49221426;0.9367944;0.264946;;;;;;;;;;;;;;;
1286.0;1217.8;;;;-0.48668295;0.9307176;0.25993732;;;;;;;;;;;;;;;
1286.0;1217.8;;;;-0.48247534;0.92777646;0.25479892;;;;;;;;;;;;;;;
1286.0;1217.8;;;;-0.477768;0.9277917;0.25182727;;;;;;;;;;;;;;;
1286.0;1217.8;;;;-0.4740258;0.92975247;0.24950793;;;;;;;;;;;;;;;
1286.0;1219.3;122964;122999;11111;;;;;;;;;;;;;;;;;;
1286.0;1227.9;;;;-0.470707;0.9344598;0.24712375;;;;;;;;;;;;;;;
1286.0;1227.9;;;;-0.46770102;0.94277585;0.24686816;;;;;;;;;;;;;;;
1286.0;1227.9;;;;-0.46574408;0.95323956;0.24517825;;;;;;;;;;;;;;;
1286.0;1227.9;;;;-0.4638062;0.96650326;0.24468616;;;;;;;;;;;;;;;
1286.0;1227.9;;;;-0.46163565;0.98241055;0.2459679;;;;;;;;;;;;;;;
1289.0;1238.0;;;;-0.45919424;1.00058;0.24572757;;;;;;;;;;;;;;;
1289.0;1238.0;;;;-0.45648962;1.0193292;0.24499896;;;;;;;;;;;;;;;
1289.0;1238.0;;;;-0.45387655;1.0396768;0.24442676;;;;;;;;;;;;;;;
1289.0;1238.0;;;;-0.4511147;1.0603563;0.24437335;;;;;;;;;;;;;;;
1289.0;1238.0;;;;-0.44869238;1.081215;0.24543765;;;;;;;;;;;;;;;
1289.0;1239.6;139403;139380;11093;;;;;;;;;;;;;;;;;;
1289.0;1244.5;;;;;;;;;;;;;;;;;-47.978912;27.962584;-21.053957;;1128.2
1289.0;1244.5;;;;;;;;;;;;;;1.7745903;0.89797664;0.31897947;;;;;1128.2
1289.0;1244.5;;;;;;;;;;;;;;;;;-35.142063;5.6611834;-4.3717766;;1128.2
1289.0;1244.5;;;;;;;;;;;;;;1.6248055;0.5083163;0.06024354;;;;;1128.2
1289.0;1244.5;;;;;;;;;;;;;;;;;-31.819363;-10.528886;2.094333;;1137.9
1289.0;1244.5;;;;;;;;;;;;;;1.4768517;0.2826014;-0.16418958;;;;;1137.9
1289.0;1244.5;;;;;;;;;;;;;;;;;-42.13843;-6.0274057;20.947142;;1137.9
1289.0;1244.5;;;;;;;;;;;;;;1.4008607;0.13550219;-0.056215096;;;;;1137.9
1289.0;1244.5;;;;;;;;;;;;;;;;;-60.247353;8.159886;69.112976;;1147.3
1289.0;1244.5;;;;;;;;;;;;;;1.2690207;-0.054750208;0.16150396;;;;;1147.3
1289.0;1244.5;;;;;;;;;;;;;;;;;-59.026615;9.300516;120.22003;;1147.3
1289.0;1244.5;;;;;;;;;;;;;;1.1183202;-0.28632465;0.22974335;;;;;1147.3
1292.0;1245.3;;;;;;;;;;;;;;;;;-51.4275;9.414961;124.988556;;1156.9
1292.0;1245.3;;;;;;;;;;;;;;0.93826103;-0.6192816;0.3202002;;;;;1156.9
1292.0;1245.3;;;;;;;;;;;;;;;;;-34.176914;-5.989258;124.988556;;1156.9
1292.0;1245.3;;;;;;;;;;;;;;0.88894314;-0.8334605;0.15503404;;;;;1156.9
1292.0;1245.3;;;;;;;;;;;;;;;;;21.355328;-18.74981;124.988556;;1166.6
1292.0;1245.3;;;;;;;;;;;;;;0.80416274;-0.9508957;-0.11926634;;;;;1166.6
1292.0;1245.3;;;;;;;;;;;;;;;;;85.37935;-28.199102;124.988556;;1166.6
1292.0;1245.3;;;;;;;;;;;;;;0.5999939;-1.0658895;-0.20770897;;;;;1166.6
1292.0;1245.3;;;;;;;;;;;;;;;;;121.509445;-53.18232;124.988556;;1176.2
1292.0;1245.3;;;;;;;;;;;;;;0.4067507;-1.3347576;-0.23566394;;;;;1176.2
1292.0;1245.3;;;;;;;;;;;;;;;;;124.988556;-90.23942;124.988556;;1176.2
1292.0;1245.3;;;;;;;;;;;;;;0.31141087;-1.3433027;-0.372631;;;;;1176.2
1292.0;1245.8;;;;;;;;;;;;;15;;;;;;;;
1292.0;1245.8;;;;;;;;;;;;;19;;;;;;;;
1292.0;1245.8;;;;;;;;;;;;;-47;;;;;;;;
1292.0;1245.8;;;;;;;;;;;;;159;;;;;;;;
1292.0;1245.8;;;;;;;;;;;;;-16;;;;;;;;
1292.0;1248.0;;;;-0.44653326;1.1022149;0.24676898;;;;;;;;;;;;;;;
1292.0;1248.0;;;;-0.4448281;1.1231271;0.24796298;;;;;;;;;;;;;;;
1292.0;1248.0;;;;-0.44322973;1.1439363;0.25017932;;;;;;;;;;;;;;;
1292.0;1248.0;;;;-0.44126898;1.1648103;0.2516556;;;;;;;;;;;;;;;
1292.0;1248.0;;;;-0.4389344;1.1863481;0.2538109;;;;;;;;;;;;;;;
1346.0;1258.1;;;;-0.4356194;1.2079774;0.25482562;;;;;;;;;;;;;;;
1346.0;1258.1;;;;-0.43189245;1.230034;0.254612;;;;;;;;;;;;;;;
1346.0;1258.1;;;;-0.42685705;1.2523118;0.25408557;;;;;;;;;;;;;;;
1346.0;1258.1;;;;-0.42082602;1.2754403;0.25205997;;;;;;;;;;;;;;;
1346.0;1258.1;;;;-0.41431051;1.2993737;0.24901965;;;;;;;;;;;;;;;
1346.0;1259.5;155859;155820;11104;;;;;;;;;;;;;;;;;;
1346.0;1267.9;;;;-0.4071198;1.3230859;0.24395373;;;;;;;;;;;;;;;
1346.0;1267.9;;;;-0.39958578;1.3475648;0.23879626;;;;;;;;;;;;;;;
1346.0;1267.9;;;;-0.39122778;1.3722574;0.2322655;;;;;;;;;;;;;;;
1346.0;1267.9;;;;-0.38227087;1.3968965;0.22468188;;;;;;;;;;;;;;;
1346.0;1267.9;;;;-0.37315372;1.4211007;0.21736148;;;;;;;;;;;;;;;
1346.0;1277.9;;;;-0.3634949;1.4443055;0.20938495;;;;;;;;;;;;;;;
1346.0;1277.9;;;;-0.35403445;1.4666177;0.20138553;;;;;;;;;;;;;;;
1346.0;1277.9;;;;-0.3431473;1.4876405;0.19292834;;;;;;;;;;;;;;;
1346.0;1277.9;;;;-0.33304217;1.5072405;0.18465425;;;;;;;;;;;;;;;
1346.0;1277.9;;;;-0.32247546;1.5249941;0.17637636;;;;;;;;;;;;;;;
1346.0;1279.6;172124;172239;11100;;;;;;;;;;;;;;;;;;
1346.0;1285.9;;;;;;;;;;;;;-639;;;;;;;;
1346.0;1285.9;;;;;;;;;;;;;31;;;;;;;;
1346.0;1285.9;;;;;;;;;;;;;1314;;;;;;;;
1346.0;1285.9;;;;;;;;;;;;;-377;;;;;;;;
1346.0;1285.9;;;;;;;;;;;;;-6691;;;;;;;;
1349.0;1288.1;;;;-0.31200412;1.5407794;0.1681595;;;;;;;;;;;;;;;
1349.0;1288.1;;;;-0.30194858;1.554043;0.1601639;;;;;;;;;;;;;;;
1349.0;1288.1;;;;-0.29184726;1.5651362;0.15203096;;;;;;;;;;;;;;;
1349.0;1288.1;;;;-0.28161624;1.5741236;0.14361574;;;;;;;;;;;;;;;
1349.0;1288.1;;;;-0.27220157;1.5808909;0.13588335;;;;;;;;;;;;;;;
1349.0;1298.2;;;;-0.26256183;1.5852053;0.1280594;;;;;;;;;;;;;;;
1349.0;1298.2;;;;-0.25369647;1.5878985;0.120597854;;;;;;;;;;;;;;;
1349.0;1298.2;;;;-0.24496844;1.5884478;0.113964096;;;;;;;;;;;;;;;
1349.0;1298.2;;;;-0.23604205;1.5872271;0.10664369;;;;;;;;;;;;;;;
1349.0;1298.2;;;;-0.2280083;1.5842402;0.10020067;;;;;;;;;;;;;;;
1349.0;1299.8;188569;188607;11103;;;;;;;;;;;;;;;;;;
1349.0;1304.2;;;;;;;;;;;;;;;;;124.988556;-106.83768;124.988556;;1185.9
1349.0;1304.2;;;;;;;;;;;;;;0.17743461;-1.2389294;-0.5022126;;;;;1185.9
1349.0;1304.2;;;;;;;;;;;;;;;;;124.91226;-109.76745;124.988556;;1185.9
1349.0;1304.2;;;;;;;;;;;;;;0.03320414;-1.2539445;-0.57533497;;;;;1185.9
1349.0;1304.2;;;;;;;;;;;;;;;;;121.25767;-95.728935;124.988556;;1195.6
1349.0;1304.2;;;;;;;;;;;;;;-0.03503525;-1.3433638;-0.63417464;;;;;1195.6
1349.0;1304.2;;;;;;;;;;;;;;;;;96.88864;-61.658833;116.68371;;1195.6
1349.0;1304.2;;;;;;;;;;;;;;0.10119938;-1.2541887;-0.7043062;;;;;1195.6
1349.0;1304.2;;;;;;;;;;;;;;;;;66.78595;-10.139774;50.14954;;1205.2
1349.0;1304.2;;;;;;;;;;;;;;0.42048404;-1.0212713;-0.74929047;;;;;1205.2
1349.0;1304.2;;;;;;;;;;;;;;;;;33.9671;44.423504;-13.527329;;1205.2
1349.0;1304.2;;;;;;;;;;;;;;0.69832456;-0.81441694;-0.6925871;;;;;1205.2
1406.0;1305.0;;;;;;;;;;;;;;;;;-13.645589;83.26594;-64.42076;;1214.7
1406.0;1305.0;;;;;;;;;;;;;;0.8989532;-0.83870965;-0.6720786;;;;;1214.7
1406.0;1305.0;;;;;;;;;;;;;;;;;-39.899136;98.97916;-114.07056;;1214.7
1406.0;1305.0;;;;;;;;;;;;;;1.0973846;-0.8882107;-0.67397076;;;;;1214.7
1406.0;1305.0;;;;;;;;;;;;;;;;;-15.346995;88.16798;-124.96185;;1224.4
1406.0;1305.0;;;;;;;;;;;;;;1.2986846;-0.87148654;-0.68080693;;;;;1224.4
1406.0;1305.0;;;;;;;;;;;;;;;;;51.236763;56.466873;-124.988556;;1224.4
1406.0;1305.0;;;;;;;;;;;;;;1.419782;-0.74184394;-0.6193426;;;;;1224.4
1406.0;1305.0;;;;;;;;;;;;;;;;;114.814445;8.484145;-124.988556;;1234.1
1406.0;1305.0;;;;;;;;;;;;;;1.4840541;-0.50465405;-0.60121465;;;;;1234.1
1406.0;1305.0;;;;;;;;;;;;;;;;;124.988556;-21.938993;-124.988556;;1234.1
1406.0;1305.0;;;;;;;;;;;;;;1.5140843;-0.19220558;-0.6294137;;;;;1234.1
1406.0;1308.0;;;;-0.22049335;1.5800097;0.09446718;;;;;;;;;;;;;;;
1406.0;1308.0;;;;-0.21369937;1.5737536;0.08884049;;;;;;;;;;;;;;;
1406.0;1308.0;;;;-0.20801547;1.5668643;0.08325196;;;;;;;;;;;;;;;
1406.0;1308.0;;;;-0.2029877;1.5587504;0.077659614;;;;;;;;;;;;;;;
1406.0;1308.0;;;;-0.19903186;1.5500834;0.07188035;;;;;;;;;;;;;;;
1406.0;1318.1;;;;-0.19501117;1.540024;0.06773759;;;;;;;;;;;;;;;
1406.0;1318.1;;;;-0.19248965;1.5289767;0.063537605;;;;;;;;;;;;;;;
1406.0;1318.1;;;;-0.19026187;1.5173304;0.06064988;;;;;;;;;;;;;;;
1406.0;1318.1;;;;-0.18809131;1.5049288;0.057529457;;;;;;;;;;;;;;;
1406.0;1318.1;;;;-0.18679048;1.4914476;0.055076607;;;;;;;;;;;;;;;
1407.0;1319.6;;;;;;;;;;;;;;;;;124.988556;-20.702993;-124.988556;;1243.7
1407.0;1319.6;;;;;;;;;;;;;;1.3942686;0.049012728;-0.47560045;;;;;1243.7
1407.0;1319.6;;;;;;;;;;;;;;;;;124.988556;-24.06003;-124.988556;;1243.7
1407.0;1319.6;;;;;;;;;;;;;;1.2088381;0.22315134;-0.36811426;;;;;1243.7
1407.0;1319.6;;;;;;;;;;;;;;;;;124.988556;-19.287699;-124.988556;;1253.4
1407.0;1319.6;;;;;;;;;;;;;;1.0768762;0.37336344;-0.32093266;;;;;1253.4
1407.0;1319.6;;;;;;;;;;;;;;;;;124.988556;-0.08774071;-124.988556;;1253.4
1407.0;1319.6;;;;;;;;;;;;;;1.017365;0.6095767;-0.2878506;;;;;1253.4
1407.0;1319.6;;;;;;;;;;;;;;;;;122.924736;19.54329;-124.988556;;1263.0
1407.0;1319.6;;;;;;;;;;;;;;1.043794;0.8631245;-0.124332406;;;;;1263.0
1407.0;1319.6;;;;;;;;;;;;;;;;;88.98052;8.29722;-124.988556;;1263.0
1407.0;1319.6;;;;;;;;;;;;;;0.89852595;0.8761254;-0.13733329;;;;;1263.0
1407.0;1319.6;204898;204906;11101;;;;;;;;;;;;;;;;;;
1407.0;1325.9;;;;;;;;;;;;;-14340;;;;;;;;
1407.0;1325.9;;;;;;;;;;;;;-18449;;;;;;;;
1407.0;1325.9;;;;;;;;;;;;;-18247;;;;;;;;
1407.0;1325.9;;;;;;;;;;;;;-17171;;;;;;;;
1407.0;1325.9;;;;;;;;;;;;;-17791;;;;;;;;
1407.0;1327.9;;;;-0.1853142;1.4765397;0.052162178;;;;;;;;;;;;;;;
1407.0;1327.9;;;;-0.18325044;1.4604646;0.049610145;;;;;;;;;;;;;;;
1407.0;1327.9;;;;-0.18125536;1.4433671;0.046516422;;;;;;;;;;;;;;;
1407.0;1327.9;;;;-0.17964174;1.42585;0.043991093;;;;;;;;;;;;;;;
1407.0;1327.9;;;;-0.17935945;1.4077646;0.04111481;;;;;;;;;;;;;;;
1412.0;1337.8;;;;-0.17966081;1.3888208;0.03886414;;;;;;;;;;;;;;;
1412.0;1337.8;;;;-0.17987062;1.3700258;0.037178043;;;;;;;;;;;;;;;
1412.0;1337.8;;;;-0.17988206;1.3506776;0.03557587;;;;;;;;;;;;;;;
1412.0;1337.8;;;;-0.18122865;1.3326722;0.03459168;;;;;;;;;;;;;;;
1412.0;1337.8;;;;-0.18421556;1.3147279;0.034034733;;;;;;;;;;;;;;;
1412.0;1339.6;221353;221307;11107;;;;;;;;;;;;;;;;;;
1412.0;1348.0;;;;-0.1863289;1.2969705;0.033210758;;;;;;;;;;;;;;;
1412.0;1348.0;;;;-0.18751147;1.2793275;0.032405857;;;;;;;;;;;;;;;
1412.0;1348.0;;;;-0.189518;1.2627641;0.03136826;;;;;;;;;;;;;;;
1412.0;1348.0;;;;-0.19147494;1.2472917;0.03035355;;;;;;;;;;;;;;;
1412.0;1348.0;;;;-0.19496158;1.2324945;0.028106693;;;;;;;;;;;;;;;
1412.0;1358.1;;;;-0.195797;1.2172319;0.02593613;;;;;;;;;;;;;;;
1412.0;1358.1;;;;-0.19550326;1.2021943;0.024650577;;;;;;;;;;;;;;;
1412.0;1358.1;;;;-0.19606021;1.187214;0.025222782;;;;;;;;;;;;;;;
1412.0;1358.1;;;;-0.19439319;1.1724511;0.025234226;;;;;;;;;;;;;;;
1412.0;1358.1;;;;-0.19404224;1.15831;0.024780277;;;;;;;;;;;;;;;
1412.0;1359.9;237735;237688;11106;;;;;;;;;;;;;;;;;;
1413.0;1364.3;;;;;;;;;;;;;;;;;51.59154;-44.724873;-124.988556;;1272.7
1413.0;1364.3;;;;;;;;;;;;;;0.7665639;0.85366374;-0.24762718;;;;;1272.7
1413.0;1364.3;;;;;;;;;;;;;;;;;41.932434;-102.79397;-122.05115;;1272.7
1413.0;1364.3;;;;;;;;;;;;;;0.79384744;0.835902;-0.5706351;;;;;1272.7
1413.0;1364.3;;;;;;;;;;;;;;;;;46.411022;-112.792595;-69.45249;;1282.2
1413.0;1364.3;;;;;;;;;;;;;;0.74135566;0.80434585;-0.69472337;;;;;1282.2
1413.0;1364.3;;;;;;;;;;;;;;;;;59.362316;-101.4626;19.432661;;1282.2
1413.0;1364.3;;;;;;;;;;;;;;0.6261788;0.69228184;-0.73537403;;;;;1282.2
1413.0;1364.3;;;;;;;;;;;;;;;;;80.7062;-78.74157;84.2349;;1291.9
1413.0;1364.3;;;;;;;;;;;;;;0.5231483;0.31598866;-0.86233103;;;;;1291.9
1413.0;1364.3;;;;;;;;;;;;;;;;;112.53319;-28.47377;100.383;;1291.9
1413.0;1364.3;;;;;;;;;;;;;;0.5920591;0.18744469;-0.9675588;;;;;1291.9
1413.0;1366.1;;;;;;;;;;;;;-18692;;;;;;;;
1413.0;1366.1;;;;;;;;;;;;;-18402;;;;;;;;
1413.0;1366.1;;;;;;;;;;;;;-17700;;;;;;;;
1413.0;1366.1;;;;;;;;;;;;;-16920;;;;;;;;
1413.0;1366.1;;;;;;;;;;;;;-16162;;;;;;;;
1413.0;1368.1;;;;-0.19161227;1.1445886;0.02462006;;;;;;;;;;;;;;;
1413.0;1368.1;;;;-0.19158557;1.1305505;0.025005344;;;;;;;;;;;;;;;
1413.0;1368.1;;;;-0.19114307;1.1163865;0.025291447;;;;;;;;;;;;;;;
1413.0;1368.1;;;;-0.19192508;1.1032716;0.024971012;;;;;;;;;;;;;;;
1413.0;1368.1;;;;-0.19193271;1.0896264;0.026443485;;;;;;;;;;;;;;;
1526.0;1378.1;;;;-0.19464496;1.0768434;0.025424961;;;;;;;;;;;;;;;
1526.0;1378.1;;;;-0.19382098;1.0633317;0.02662659;;;;;;;;;;;;;;;
1526.0;1378.1;;;;-0.19618991;1.0514222;0.025787357;;;;;;;;;;;;;;;
1526.0;1378.1;;;;-0.20011142;1.0400163;0.025352482;;;;;;;;;;;;;;;
1526.0;1378.1;;;;-0.20417789;1.0289842;0.024398807;;;;;;;;;;;;;;;
1526.0;1379.3;;;;;;;;;;;;;;;;;124.87029;39.26969;112.47597;;1301.5
1526.0;1379.3;;;;;;;;;;;;;;0.6403394;0.19122899;-0.87368387;;;;;1301.5
1526.0;1379.3;;;;;;;;;;;;;;;;;124.988556;88.061165;123.51604;;1301.5
1526.0;1379.3;;;;;;;;;;;;;;0.6996063;0.28022096;-0.72347176;;;;;1301.5
1526.0;1379.3;;;;;;;;;;;;;;;;;122.56615;104.54497;124.988556;;1311.2
1526.0;1379.3;;;;;;;;;;;;;;0.75014496;0.3418073;-0.52424693;;;;;1311.2
1526.0;1379.3;;;;;;;;;;;;;;;;;83.84197;86.14231;124.988556;;1311.2
1526.0;1379.3;;;;;;;;;;;;;;0.83535266;0.3503525;-0.35633412;;;;;1311.2
1526.0;1379.3;;;;;;;;;;;;;;;;;4.127629;52.61391;124.988556;;1320.8
1526.0;1379.3;;;;;;;;;;;;;;0.8944365;0.27723014;-0.34052554;;;;;1320.8
1526.0;1379.3;;;;;;;;;;;;;;;;;-54.57091;21.60329;124.988556;;1320.8
1526.0;1379.3;;;;;;;;;;;;;;0.8784448;0.135197;-0.37995544;;;;;1320.8
1526.0;1379.8;254081;254161;11100;;;;;;;;;;;;;;;;;;
1526.0;1388.0;;;;-0.20810702;1.0180207;0.023891453;;;;;;;;;;;;;;;
1526.0;1388.0;;;;-0.21158603;1.0072747;0.024093632;;;;;;;;;;;;;;;
1526.0;1388.0;;;;-0.21533206;0.9972116;0.022403719;;;;;;;;;;;;;;;
1526.0;1388.0;;;;-0.21912387;0.98747647;0.023056032;;;;;;;;;;;;;;;
1526.0;1388.0;;;;-0.22202304;0.97781765;0.021881105;;;;;;;;;;;;;;;
1528.0;1397.7;;;;-0.22500995;0.96831906;0.020435335;;;;;;;;;;;;;;;
1528.0;1397.7;;;;-0.23204425;0.95990765;0.018234255;;;;;;;;;;;;;;;
1528.0;1397.7;;;;-0.23534778;0.951687;0.018577578;;;;;;;;;;;;;;;
1528.0;1397.7;;;;-0.2390671;0.94368374;0.0179863;;;;;;;;;;;;;;;
1528.0;1397.7;;;;-0.24064258;0.9358827;0.020160677;;;;;;;;;;;;;;;
1528.0;1399.7;262143;262143;11103;;;;;;;;;;;;;;;;;;
1528.0;1406.0;;;;;;;;;;;;;-15630;;;;;;;;
1528.0;1406.0;;;;;;;;;;;;;-15055;;;;;;;;
1528.0;1406.0;;;;;;;;;;;;;-14210;;;;;;;;
1528.0;1406.0;;;;;;;;;;;;;-13030;;;;;;;;
1528.0;1406.0;;;;;;;;;;;;;-11646;;;;;;;;
1528.0;1407.9;;;;-0.24235919;0.9294244;0.02145386;;;;;;;;;;;;;;;
1528.0;1407.9;;;;-0.2458382;0.9227487;0.020370485;;;;;;;;;;;;;;;
1528.0;1407.9;;;;-0.25119784;0.9163896;0.01709366;;;;;;;;;;;;;;;
1528.0;1407.9;;;;-0.25127795;0.9095231;0.016986849;;;;;;;;;;;;;;;
1528.0;1407.9;;;;-0.25577167;0.90394986;0.014648439;;;;;;;;;;;;;;;
1528.0;1418.0;;;;-0.25996402;0.8988;0.013618471;;;;;;;;;;;;;;;
1528.0;1418.0;;;;-0.2624474;0.89357007;0.012275698;;;;;;;;;;;;;;;
1528.0;1418.0;;;;-0.26606372;0.88930905;0.011325837;;;;;;;;;;;;;;;
1528.0;1418.0;;;;-0.27009204;0.8848916;0.008869172;;;;;;;;;;;;;;;
1528.0;1418.0;;;;-0.27185443;0.87977993;0.007896424;;;;;;;;;;;;;;;
1528.0;1420.0;262143;262143;11117;;;;;;;;;;;;;;;;;;
1530.0;1428.1;;;;-0.272934;0.8749658;0.00719452;;;;;;;;;;;;;;;
1530.0;1428.1;;;;-0.27145007;0.87111294;0.0074539194;;;;;;;;;;;;;;;
1530.0;1428.1;;;;-0.27801135;0.8668901;0.0025711062;;;;;;;;;;;;;;;
1530.0;1428.1;;;;-0.28709033;0.8630487;-9.880067E-4;;;;;;;;;;;;;;;
1530.0;1428.1;;;;-0.28981784;0.8595773;-0.0012435914;;;;;;;;;;;;;;;
1530.0;1431.9;;;;;;;;;;;;;;;;;-66.763054;2.578814;124.988556;;1330.4
1530.0;1431.9;;;;;;;;;;;;;;0.88497573;0.05633717;-0.4420301;;;;;1330.4
1530.0;1431.9;;;;;;;;;;;;;;;;;-50.263985;6.782739;124.988556;;1330.4
1530.0;1431.9;;;;;;;;;;;;;;0.854091;0.05859554;-0.34986418;;;;;1330.4
1530.0;1431.9;;;;;;;;;;;;;;;;;-26.30314;2.6474807;124.988556;;1339.9
1530.0;1431.9;;;;;;;;;;;;;;0.80416274;-0.043336283;-0.25141147;;;;;1339.9
1530.0;1431.9;;;;;;;;;;;;;;;;;-2.395703;-3.4524064;123.87844;;1339.9
1530.0;1431.9;;;;;;;;;;;;;;0.87295145;-0.092593156;-0.21771905;;;;;1339.9
1530.0;1431.9;;;;;;;;;;;;;;;;;13.943144;-2.9526658;111.96478;;1349.5
1530.0;1431.9;;;;;;;;;;;;;;0.9147618;-0.10290842;-0.17145298;;;;;1349.5
1530.0;1431.9;;;;;;;;;;;;;;;;;17.738884;-1.8387402;90.91845;;1349.5
1530.0;1431.9;;;;;;;;;;;;;;0.918363;-0.11633656;-0.14679404;;;;;1349.5
1530.0;1438.0;;;;-0.29389194;0.8561059;-0.0027542117;;;;;;;;;;;;;;;
1530.0;1438.0;;;;-0.29449466;0.8528329;-0.002471924;;;;;;;;;;;;;;;
1530.0;1438.0;;;;-0.29973605;0.8500596;-0.005374909;;;;;;;;;;;;;;;
1530.0;1438.0;;;;-0.30360034;0.84707654;-0.0077552805;;;;;;;;;;;;;;;
1530.0;1438.0;;;;-0.3067017;0.8449975;-0.011180879;;;;;;;;;;;;;;;
1533.0;1439.4;;;;;;;;;;;;;;;;;19.520401;-2.822962;69.31135;;1359.2
1533.0;1439.4;;;;;;;;;;;;;;0.9477828;-0.0051271096;-0.19977416;;;;;1359.2
1533.0;1439.4;;;;;;;;;;;;;;;;;23.724327;-1.106296;62.185276;;1359.2
1533.0;1439.4;;;;;;;;;;;;;;0.93325603;0.093264565;-0.23786126;;;;;1359.2
1533.0;1439.4;;;;;;;;;;;;;;;;;23.033844;-0.6027406;62.215797;;1368.8
1533.0;1439.4;;;;;;;;;;;;;;0.9087191;0.11255226;-0.2728965;;;;;1368.8
1533.0;1439.4;;;;;;;;;;;;;;;;;21.397291;-3.4409618;63.226723;;1368.8
1533.0;1439.4;;;;;;;;;;;;;;0.89785457;0.106509596;-0.33692434;;;;;1368.8
1533.0;1439.4;;;;;;;;;;;;;;;;;22.21366;-2.0752587;63.596756;;1378.5
1533.0;1439.4;;;;;;;;;;;;;;0.89309365;0.09595019;-0.3434553;;;;;1378.5
1533.0;1439.4;;;;;;;;;;;;;;;;;23.0224;-2.437666;63.024536;;1378.5
1533.0;1439.4;;;;;;;;;;;;;;0.8904691;0.051087987;-0.3509018;;;;;1378.5
1533.0;1439.9;262143;262143;11122;;;;;;;;;;;;;;;;;;
1533.0;1446.1;;;;;;;;;;;;;-10323;;;;;;;;
1533.0;1446.1;;;;;;;;;;;;;-9092;;;;;;;;
1533.0;1446.1;;;;;;;;;;;;;-7721;;;;;;;;
1533.0;1446.1;;;;;;;;;;;;;-6145;;;;;;;;
1533.0;1446.1;;;;;;;;;;;;;-4626;;;;;;;;
1533.0;1447.8;;;;-0.30764773;0.8420297;-0.0120887775;;;;;;;;;;;;;;;
1533.0;1447.8;;;;-0.30728534;0.8393098;-0.012405397;;;;;;;;;;;;;;;
1533.0;1447.8;;;;-0.30986026;0.83731854;-0.0152893085;;;;;;;;;;;;;;;
1533.0;1447.8;;;;-0.30978015;0.8349649;-0.016117098;;;;;;;;;;;;;;;
1533.0;1447.8;;;;-0.31343845;0.8326837;-0.01891327;;;;;;;;;;;;;;;
1534.0;1457.9;;;;-0.31489947;0.8306657;-0.01911545;;;;;;;;;;;;;;;
1534.0;1457.9;;;;-0.32067493;0.82880414;-0.019844057;;;;;;;;;;;;;;;
1534.0;1457.9;;;;-0.319603;0.82696164;-0.016464235;;;;;;;;;;;;;;;
1534.0;1457.9;;;;-0.31767657;0.8260499;-0.014625551;;;;;;;;;;;;;;;
1534.0;1457.9;;;;-0.31660083;0.8260766;-0.012401583;;;;;;;;;;;;;;;
1534.0;1460.0;262143;262143;11129;;;;;;;;;;;;;;;;;;
1534.0;1468.0;;;;-0.32068637;0.82650006;-0.0144577045;;;;;;;;;;;;;;;
1534.0;1468.0;;;;-0.3203545;0.82699597;-0.013797762;;;;;;;;;;;;;;;
1534.0;1468.0;;;;-0.32516482;0.8276521;-0.016571047;;;;;;;;;;;;;;;
1534.0;1468.0;;;;-0.33142856;0.82935727;-0.018810274;;;;;;;;;;;;;;;
1534.0;1468.0;;;;-0.32704547;0.8304559;-0.015026094;;;;;;;;;;;;;;;
1534.0;1478.1;;;;-0.32434085;0.8324243;-0.015575411;;;;;;;;;;;;;;;
1534.0;1478.1;;;;-0.31937793;0.8351823;-0.01419449;;;;;;;;;;;;;;;
1534.0;1478.1;;;;-0.31702426;0.83815396;-0.01615143;;;;;;;;;;;;;;;
1534.0;1478.1;;;;-0.3185654;0.840397;-0.019020082;;;;;;;;;;;;;;;
1534.0;1478.1;;;;-0.31698993;0.84233105;-0.019210817;;;;;;;;;;;;;;;
1534.0;1480.3;262143;262143;11133;;;;;;;;;;;;;;;;;;
1535.0;1485.1;;;;;;;;;;;;;;;;;25.131992;-3.7957397;60.76998;;1388.0
1535.0;1485.1;;;;;;;;;;;;;;0.88753927;0.05444502;-0.36793116;;;;;1388.0
1535.0;1485.1;;;;;;;;;;;;;;;;;27.542953;-3.6774805;57.828762;;1388.0
1535.0;1485.1;;;;;;;;;;;;;;0.86703086;0.055238504;-0.37256998;;;;;1388.0
1535.0;1485.1;;;;;;;;;;;;;;;;;29.892881;-2.9602954;52.426983;;1397.5
1535.0;1485.1;;;;;;;;;;;;;;0.84322643;0.09686575;-0.3749504;;;;;1397.5
1535.0;1485.1;;;;;;;;;;;;;;;;;31.62862;-1.9989624;48.116245;;1397.5
1535.0;1485.1;;;;;;;;;;;;;;0.82827234;0.12195197;-0.37849057;;;;;1397.5
1535.0;1485.1;;;;;;;;;;;;;;;;;31.861324;-1.453444;44.377728;;1407.2
1535.0;1485.1;;;;;;;;;;;;;;0.82937104;0.14734337;-0.39362773;;;;;1407.2
1535.0;1485.1;;;;;;;;;;;;;;;;;30.861843;1.2359996;39.979248;;1407.2
1535.0;1485.1;;;;;;;;;;;;;;0.82900476;0.16724144;-0.41706595;;;;;1407.2
1535.0;1486.4;;;;;;;;;;;;;-3452;;;;;;;;
1535.0;1486.4;;;;;;;;;;;;;-2714;;;;;;;;
1535.0;1486.4;;;;;;;;;;;;;-2305;;;;;;;;
1535.0;1486.4;;;;;;;;;;;;;-2107;;;;;;;;
1535.0;1486.4;;;;;;;;;;;;;-2012;;;;;;;;
1535.0;1488.1;;;;-0.31407169;0.84456646;-0.019100191;;;;;;;;;;;;;;;
1535.0;1488.1;;;;-0.31218722;0.84690106;-0.01994324;;;;;;;;;;;;;;;
1535.0;1488.1;;;;-0.31169513;0.8487054;-0.020866396;;;;;;;;;;;;;;;
1535.0;1488.1;;;;-0.31234363;0.8499452;-0.024291996;;;;;;;;;;;;;;;
1535.0;1488.1;;;;-0.3103104;0.85099804;-0.026466373;;;;;;;;;;;;;;;
1642.0;1498.2;;;;-0.30825046;0.85273755;-0.027637485;;;;;;;;;;;;;;;
1642.0;1498.2;;;;-0.30288318;0.8541528;-0.027069096;;;;;;;;;;;;;;;
1642.0;1498.2;;;;-0.29849246;0.8556253;-0.027412418;;;;;;;;;;;;;;;
1642.0;1498.2;;;;-0.29508594;0.85762036;-0.02852631;;;;;;;;;;;;;;;
1642.0;1498.2;;;;-0.2939568;0.85889447;-0.030136112;;;;;;;;;;;;;;;
1642.0;1500.4;262143;262143;11133;;;;;;;;;;;;;;;;;;
1642.0;1508.0;;;;-0.29270557;0.8611413;-0.031215671;;;;;;;;;;;;;;;
1642.0;1508.0;;;;-0.2890511;0.8636552;-0.031059269;;;;;;;;;;;;;;;
1642.0;1508.0;;;;-0.28570178;0.86729825;-0.032241825;;;;;;;;;;;;;;;
1642.0;1508.0;;;;-0.28006747;0.8711854;-0.03288651;;;;;;;;;;;;;;;
1642.0;1508.0;;;;-0.27437595;0.8762857;-0.035263065;;;;;;;;;;;;;;;
1642.0;1517.9;;;;-0.26784137;0.88126004;-0.03773499;;;;;;;;;;;;;;;
1642.0;1517.9;;;;-0.26113513;0.88666165;-0.041500095;;;;;;;;;;;;;;;
1642.0;1517.9;;;;-0.25389865;0.8912507;-0.044876102;;;;;;;;;;;;;;;
1642.0;1517.9;;;;-0.24722293;0.89561856;-0.047813423;;;;;;;;;;;;;;;
1642.0;1517.9;;;;-0.24118045;0.89920056;-0.05168534;;;;;;;;;;;;;;;
1642.0;1520.1;262143;262143;11139;;;;;;;;;;;;;;;;;;
1642.0;1526.4;;;;;;;;;;;;;-1903;;;;;;;;
1642.0;1526.4;;;;;;;;;;;;;-1789;;;;;;;;
1642.0;1526.4;;;;;;;;;;;;;-1671;;;;;;;;
1642.0;1526.4;;;;;;;;;;;;;-1431;;;;;;;;
1642.0;1526.4;;;;;;;;;;;;;-960;;;;;;;;
1645.0;1528.0;;;;-0.23531726;0.9018327;-0.05573655;;;;;;;;;;;;;;;
1645.0;1528.0;;;;-0.22975162;0.9040338;-0.060298927;;;;;;;;;;;;;;;
1645.0;1528.0;;;;-0.2242203;0.9059297;-0.06381989;;;;;;;;;;;;;;;
1645.0;1528.0;;;;-0.21856692;0.9066545;-0.06647111;;;;;;;;;;;;;;;
1645.0;1528.0;;;;-0.21289828;0.906788;-0.06931306;;;;;;;;;;;;;;;
1645.0;1538.1;;;;-0.20710376;0.90692914;-0.07255555;;;;;;;;;;;;;;;
1645.0;1538.1;;;;-0.20127872;0.90688336;-0.07536698;;;;;;;;;;;;;;;
1645.0;1538.1;;;;-0.19569018;0.9071084;-0.0779152;;;;;;;;;;;;;;;
1645.0;1538.1;;;;-0.19049075;0.9068719;-0.080543526;;;;;;;;;;;;;;;
1645.0;1538.1;;;;-0.18558885;0.90688336;-0.08258439;;;;;;;;;;;;;;;
1645.0;1540.4;262143;262143;11144;;;;;;;;;;;;;;;;;;
1645.0;1548.2;;;;-0.18126298;0.90760434;-0.08447266;;;;;;;;;;;;;;;
1645.0;1548.2;;;;-0.17723848;0.90885174;-0.085968025;;;;;;;;;;;;;;;
1645.0;1548.2;;;;-0.1739464;0.9106294;-0.08658982;;;;;;;;;;;;;;;
1645.0;1548.2;;;;-0.17085649;0.91394055;-0.08655549;;;;;;;;;;;;;;;
1645.0;1548.2;;;;-0.16817094;0.9174272;-0.08675767;;;;;;;;;;;;;;;
1645.0;1558.3;;;;-0.16500856;0.921631;-0.087097175;;;;;;;;;;;;;;;
1645.0;1558.3;;;;-0.16250993;0.9273187;-0.08712769;;;;;;;;;;;;;;;
1645.0;1558.3;;;;-0.15919496;0.9331552;-0.08776856;;;;;;;;;;;;;;;
1645.0;1558.3;;;;-0.15615083;0.93979275;-0.087242134;;;;;;;;;;;;;;;
1645.0;1558.3;;;;-0.1539116;0.94682705;-0.08663941;;;;;;;;;;;;;;;
1647.0;1560.5;262143;262143;11141;;;;;;;;;;;;;;;;;;
1647.0;1566.7;;;;;;;;;;;;;-330;;;;;;;;
1647.0;1566.7;;;;;;;;;;;;;289;;;;;;;;
1647.0;1566.7;;;;;;;;;;;;;752;;;;;;;;
1647.0;1566.7;;;;;;;;;;;;;1139;;;;;;;;
1647.0;1566.7;;;;;;;;;;;;;1618;;;;;;;;
1647.0;1568.0;;;;-0.1513939;0.9538537;-0.08637238;;;;;;;;;;;;;;;
1647.0;1568.0;;;;-0.1491623;0.9615594;-0.086212166;;;;;;;;;;;;;;;
1647.0;1568.0;;;;-0.14646532;0.9691583;-0.0859871;;;;;;;;;;;;;;;
1647.0;1568.0;;;;-0.14401247;0.97623837;-0.08662797;;;;;;;;;;;;;;;
1647.0;1568.0;;;;-0.14170457;0.9831735;-0.0859871;;;;;;;;;;;;;;;
1647.0;1578.1;;;;-0.13912202;0.9893533;-0.08587266;;;;;;;;;;;;;;;
1647.0;1578.1;;;;-0.13641359;0.9950448;-0.085723884;;;;;;;;;;;;;;;
1647.0;1578.1;;;;-0.13430788;1.0004236;-0.08486176;;;;;;;;;;;;;;;
1647.0;1578.1;;;;-0.13209917;1.0046083;-0.08398057;;;;;;;;;;;;;;;
1647.0;1578.1;;;;-0.13045503;1.0087167;-0.0836258;;;;;;;;;;;;;;;
1647.0;1580.6;262143;262143;11150;;;;;;;;;;;;;;;;;;
1647.0;1588.2;;;;-0.12891008;1.0118638;-0.08353806;;;;;;;;;;;;;;;
1647.0;1588.2;;;;-0.12736131;1.014866;-0.08341981;;;;;;;;;;;;;;;
1647.0;1588.2;;;;-0.12517168;1.0168649;-0.08335877;;;;;;;;;;;;;;;
1647.0;1588.2;;;;-0.12427141;1.0186692;-0.08305741;;;;;;;;;;;;;;;
1647.0;1588.2;;;;-0.12203218;1.0199128;-0.08329392;;;;;;;;;;;;;;;
1651.0;1598.4;;;;-0.120094314;1.0204774;-0.083335884;;;;;;;;;;;;;;;
1651.0;1598.4;;;;-0.11881639;1.0197793;-0.0832367;;;;;;;;;;;;;;;
1651.0;1598.4;;;;-0.11771394;1.0199357;-0.08229447;;;;;;;;;;;;;;;
1651.0;1598.4;;;;-0.11785127;1.0198518;-0.08147431;;;;;;;;;;;;;;;
1651.0;1598.4;;;;-0.11859514;1.020157;-0.0802002;;;;;;;;;;;;;;;
1651.0;1600.8;262143;262143;11141;;;;;;;;;;;;;;;;;;
1651.0;1607.0;;;;;;;;;;;;;2074;;;;;;;;
1651.0;1607.0;;;;;;;;;;;;;2320;;;;;;;;
1651.0;1607.0;;;;;;;;;;;;;2462;;;;;;;;
1651.0;1607.0;;;;;;;;;;;;;2694;;;;;;;;
1651.0;1607.0;;;;;;;;;;;;;2918;;;;;;;;
1651.0;1608.5;;;;-0.11986925;1.0202867;-0.07860566;;;;;;;;;;;;;;;
1651.0;1608.5;;;;-0.12163927;1.0206453;-0.07712556;;;;;;;;;;;;;;;
1651.0;1608.5;;;;-0.12361528;1.0219575;-0.07553101;;;;;;;;;;;;;;;
1651.0;1608.5;;;;-0.12540437;1.0236398;-0.07397843;;;;;;;;;;;;;;;
1651.0;1608.5;;;;-0.1277199;1.0266801;-0.071041115;;;;;;;;;;;;;;;
1651.0;1618.5;;;;-0.13020326;1.0293351;-0.067752846;;;;;;;;;;;;;;;
1651.0;1618.5;;;;-0.13323595;1.0323259;-0.06627274;;;;;;;;;;;;;;;
1651.0;1618.5;;;;-0.13642885;1.0357438;-0.063838966;;;;;;;;;;;;;;;
1651.0;1618.5;;;;-0.14035799;1.0394174;-0.06005097;;;;;;;;;;;;;;;
1651.0;1618.5;;;;-0.14419557;1.0425798;-0.056594856;;;;;;;;;;;;;;;
1653.0;1620.3;;;;;;;;;;;;;;;;;29.80514;6.511887;35.927914;;1416.8
1653.0;1620.3;;;;;;;;;;;;;;0.8143559;0.18799402;-0.40845972;;;;;1416.8
1653.0;1620.3;;;;;;;;;;;;;;;;;26.161993;9.208961;35.01999;;1416.8
1653.0;1620.3;;;;;;;;;;;;;;0.79116184;0.23535874;-0.33399457;;;;;1416.8
1653.0;1620.3;;;;;;;;;;;;;;;;;19.207588;4.0284433;34.932247;;1426.4
1653.0;1620.3;;;;;;;;;;;;;;0.8011719;0.26483962;-0.3134251;;;;;1426.4
1653.0;1620.3;;;;;;;;;;;;;;;;;12.283701;-1.0338145;34.60799;;1426.4
1653.0;1620.3;;;;;;;;;;;;;;0.831019;0.2989593;-0.3188574;;;;;1426.4
1653.0;1620.3;;;;;;;;;;;;;;;;;5.2072206;-3.38374;33.9938;;1436.1
1653.0;1620.3;;;;;;;;;;;;;;0.8387707;0.32587665;-0.32441175;;;;;1436.1
1653.0;1620.3;;;;;;;;;;;;;;;;;-2.1401105;-5.00885;33.272808;;1436.1
1653.0;1620.3;;;;;;;;;;;;;;0.83895385;0.34266183;-0.31055635;;;;;1436.1
1653.0;1621.2;;;;;;;;;;;;;;;;;-10.9904785;-6.698813;31.537064;;1445.7
1653.0;1621.2;;;;;;;;;;;;;;0.83730584;0.38215277;-0.2903531;;;;;1445.7
1653.0;1621.2;;;;;;;;;;;;;;;;;-19.0817;-7.5228124;31.937622;;1445.7
1653.0;1621.2;;;;;;;;;;;;;;0.8116703;0.39527574;-0.26453444;;;;;1445.7
1653.0;1621.2;;;;;;;;;;;;;;;;;-23.65566;-6.820887;35.935543;;1455.2
1653.0;1621.2;;;;;;;;;;;;;;0.78456986;0.39991456;-0.2158269;;;;;1455.2
1653.0;1621.2;;;;;;;;;;;;;;;;;-25.7004;-8.991516;43.20658;;1455.2
1653.0;1621.2;;;;;;;;;;;;;;0.78756064;0.3312479;-0.18842128;;;;;1455.2
1653.0;1621.2;;;;;;;;;;;;;;;;;-24.525438;-13.752403;45.052948;;1464.9
1653.0;1621.2;;;;;;;;;;;;;;0.82827234;0.2773522;-0.21320231;;;;;1464.9
1653.0;1621.2;;;;;;;;;;;;;;;;;-21.370586;-15.743736;44.778282;;1464.9
1653.0;1621.2;;;;;;;;;;;;;;0.85207677;0.25721;-0.23157445;;;;;1464.9
1654.0;1620.9;262143;262143;11139;;;;;;;;;;;;;;;;;;
1654.0;1621.8;;;;;;;;;;;;;;;;;-19.508957;-14.912107;43.81695;;1474.4
1654.0;1621.8;;;;;;;;;;;;;;0.8360851;0.26355785;-0.2351146;;;;;1474.4
1654.0;1621.8;;;;;;;;;;;;;;;;;-15.514847;-15.507217;42.72973;;1474.4
1654.0;1621.8;;;;;;;;;;;;;;0.81295204;0.29175696;-0.24414808;;;;;1474.4
1654.0;1621.8;;;;;;;;;;;;;;;;;-12.550736;-18.848995;42.252876;;1484.1
1654.0;1621.8;;;;;;;;;;;;;;0.79873043;0.29407635;-0.2717368;;;;;1484.1
1654.0;1621.8;;;;;;;;;;;;;;;;;-11.215552;-24.777214;45.018616;;1484.1
1654.0;1621.8;;;;;;;;;;;;;;0.8082522;0.25421917;-0.34388256;;;;;1484.1
1654.0;1621.8;;;;;;;;;;;;;;;;;-10.608997;-29.305399;47.47917;;1493.7
1654.0;1621.8;;;;;;;;;;;;;;0.84627825;0.18213446;-0.45234534;;;;;1493.7
1654.0;1621.8;;;;;;;;;;;;;;;;;-8.239998;-28.656881;47.067173;;1493.7
1654.0;1621.8;;;;;;;;;;;;;;0.87099826;0.18543047;-0.5240028;;;;;1493.7
1655.0;1623.1;;;;;;;;;;;;;;;;;-4.4938507;-27.34077;50.180058;;1503.4
1655.0;1623.1;;;;;;;;;;;;;;0.85042876;0.14813684;-0.5343791;;;;;1503.4
1655.0;1623.1;;;;;;;;;;;;;;;;;-2.422407;-23.812067;48.780025;;1503.4
1655.0;1623.1;;;;;;;;;;;;;;0.90084535;0.11890011;-0.5283975;;;;;1503.4
1655.0;1623.1;;;;;;;;;;;;;;;;;-0.39674062;-18.974884;46.254616;;1512.9
1655.0;1623.1;;;;;;;;;;;;;;0.94589067;0.08862575;-0.47907957;;;;;1512.9
1655.0;1623.1;;;;;;;;;;;;;;;;;0.3357036;-18.581957;43.763546;;1512.9
1655.0;1623.1;;;;;;;;;;;;;;1.0033265;0.11981567;-0.48866236;;;;;1512.9
1655.0;1623.1;;;;;;;;;;;;;;;;;2.231666;-16.376995;42.84036;;1522.5
1655.0;1623.1;;;;;;;;;;;;;;1.0147405;0.110415965;-0.49165317;;;;;1522.5
1655.0;1623.1;;;;;;;;;;;;;;;;;5.6764426;-14.0957365;43.12647;;1522.5
1655.0;1623.1;;;;;;;;;;;;;;1.0097965;0.097170934;-0.502884;;;;;1522.5
1655.0;1623.8;;;;;;;;;;;;;;;;;11.082033;-10.471663;43.298138;;1532.2
1655.0;1623.8;;;;;;;;;;;;;;1.0163274;0.07196265;-0.49165317;;;;;1532.2
1655.0;1623.8;;;;;;;;;;;;;;;;;18.944365;-7.435072;42.542805;;1532.2
1655.0;1623.8;;;;;;;;;;;;;;1.0314035;0.10119938;-0.46980193;;;;;1532.2
1655.0;1623.8;;;;;;;;;;;;;;;;;26.863918;-4.520554;39.864803;;1541.9
1655.0;1623.8;;;;;;;;;;;;;;1.0086367;0.15576647;-0.46998504;;;;;1541.9
1655.0;1623.8;;;;;;;;;;;;;;;;;33.955654;-1.7891476;37.804806;;1541.9
1655.0;1623.8;;;;;;;;;;;;;;0.979461;0.19562365;-0.45319986;;;;;1541.9
1655.0;1623.8;;;;;;;;;;;;;;;;;39.540543;-1.5869625;35.08484;;1551.6
1655.0;1623.8;;;;;;;;;;;;;;0.9751274;0.24353771;-0.46900845;;;;;1551.6
1655.0;1623.8;;;;;;;;;;;;;;;;;44.930874;-1.3008515;32.193214;;1551.6
1655.0;1623.8;;;;;;;;;;;;;;0.9981994;0.28333384;-0.483108;;;;;1551.6
1704.0;1628.1;;;;-0.14791872;1.046261;-0.054012306;;;;;;;;;;;;;;;
1704.0;1628.1;;;;-0.151886;1.0498735;-0.05123139;;;;;;;;;;;;;;;
1704.0;1628.1;;;;-0.15615083;1.0532762;-0.048149116;;;;;;;;;;;;;;;
1704.0;1628.1;;;;-0.16128542;1.0567247;-0.04516602;;;;;;;;;;;;;;;
1704.0;1628.1;;;;-0.16617967;1.0593797;-0.042659763;;;;;;;;;;;;;;;
1704.0;1638.0;;;;-0.17209627;1.0621682;-0.039722446;;;;;;;;;;;;;;;
1704.0;1638.0;;;;-0.17785265;1.0644456;-0.036983494;;;;;;;;;;;;;;;
1704.0;1638.0;;;;-0.1844864;1.0672113;-0.0345192;;;;;;;;;;;;;;;
1704.0;1638.0;;;;-0.19108203;1.0703126;-0.031524662;;;;;;;;;;;;;;;
1704.0;1638.0;;;;-0.19750217;1.0728036;-0.028587345;;;;;;;;;;;;;;;
1704.0;1640.6;262143;262143;11144;;;;;;;;;;;;;;;;;;
1704.0;1646.8;;;;;;;;;;;;;2769;;;;;;;;
1704.0;1646.8;;;;;;;;;;;;;2245;;;;;;;;
1704.0;1646.8;;;;;;;;;;;;;1841;;;;;;;;
1704.0;1646.8;;;;;;;;;;;;;2091;;;;;;;;
1704.0;1646.8;;;;;;;;;;;;;3139;;;;;;;;
1704.0;1648.2;;;;-0.20392612;1.0752298;-0.026050571;;;;;;;;;;;;;;;
1704.0;1648.2;;;;-0.20963672;1.0782434;-0.02443314;;;;;;;;;;;;;;;
1704.0;1648.2;;;;-0.21476367;1.0816613;-0.02307892;;;;;;;;;;;;;;;
1704.0;1648.2;;;;-0.21947482;1.0848924;-0.020729067;;;;;;;;;;;;;;;
1704.0;1648.2;;;;-0.22410586;1.087967;-0.019104006;;;;;;;;;;;;;;;
1705.0;1658.3;;;;-0.22775272;1.0913965;-0.017192842;;;;;;;;;;;;;;;
1705.0;1658.3;;;;-0.23189929;1.0949746;-0.015071871;;;;;;;;;;;;;;;
1705.0;1658.3;;;;-0.23594287;1.0988389;-0.013088228;;;;;;;;;;;;;;;
1705.0;1658.3;;;;-0.2402573;1.1030809;-0.011238099;;;;;;;;;;;;;;;
1705.0;1658.3;;;;-0.24482349;1.1075937;-0.009815217;;;;;;;;;;;;;;;
1705.0;1660.9;262143;262143;11131;;;;;;;;;;;;;;;;;;
1705.0;1665.2;;;;;;;;;;;;;;;;;49.863426;-0.45777765;29.942472;;1561.3
1705.0;1665.2;;;;;;;;;;;;;;1.0235298;0.3101291;-0.47706535;;;;;1561.3
1705.0;1665.2;;;;;;;;;;;;;;;;;52.713097;1.5144811;27.195808;;1561.3
1705.0;1665.2;;;;;;;;;;;;;;1.0738853;0.32691428;-0.4575335;;;;;1561.3
1705.0;1665.2;;;;;;;;;;;;;;;;;54.277172;6.717887;23.403881;;1571.0
1705.0;1665.2;;;;;;;;;;;;;;1.0795617;0.33857235;-0.41145054;;;;;1571.0
1705.0;1665.2;;;;;;;;;;;;;;;;;58.915985;8.777886;20.611439;;1571.0
1705.0;1665.2;;;;;;;;;;;;;;1.0892667;0.27179784;-0.39228493;;;;;1571.0
1705.0;1665.2;;;;;;;;;;;;;;;;;64.92813;8.514664;18.391216;;1580.3
1705.0;1665.2;;;;;;;;;;;;;;1.104587;0.2582476;-0.4153569;;;;;1580.3
1705.0;1665.2;;;;;;;;;;;;;;;;;68.30805;11.749626;14.015625;;1580.3
1705.0;1665.2;;;;;;;;;;;;;;1.0943327;0.2957854;-0.41938534;;;;;1580.3
1705.0;1668.3;;;;-0.24930957;1.1120492;-0.008411408;;;;;;;;;;;;;;;
1705.0;1668.3;;;;-0.25366977;1.1171266;-0.007835389;;;;;;;;;;;;;;;
1705.0;1668.3;;;;-0.25831607;1.1226808;-0.0077667246;;;;;;;;;;;;;;;
1705.0;1668.3;;;;-0.26223376;1.1280366;-0.007621766;;;;;;;;;;;;;;;
1705.0;1668.3;;;;-0.26671222;1.134205;-0.008159638;;;;;;;;;;;;;;;
1767.0;1672.7;;;;;;;;;;;;;;;;;69.227425;14.996032;9.8155155;;1589.9
1767.0;1672.7;;;;;;;;;;;;;;1.0957977;0.3352153;-0.40278327;;;;;1589.9
1767.0;1672.7;;;;;;;;;;;;;;;;;68.25083;15.66744;7.683035;;1589.9
1767.0;1672.7;;;;;;;;;;;;;;1.1440779;0.34894863;-0.39197972;;;;;1589.9
1767.0;1672.7;;;;;;;;;;;;;;;;;66.682945;17.639698;6.1914425;;1599.6
1767.0;1672.7;;;;;;;;;;;;;;1.1517075;0.3501694;-0.38636434;;;;;1599.6
1767.0;1672.7;;;;;;;;;;;;;;;;;65.46983;21.671957;2.906888;;1599.6
1767.0;1672.7;;;;;;;;;;;;;;1.1323588;0.36658832;-0.34473708;;;;;1599.6
1767.0;1672.7;;;;;;;;;;;;;;;;;64.59243;22.122105;0.21744438;;1609.3
1767.0;1672.7;;;;;;;;;;;;;;1.1293069;0.36787012;-0.33100376;;;;;1609.3
1767.0;1672.7;;;;;;;;;;;;;;;;;63.890503;21.881773;-2.1477401;;1609.3
1767.0;1672.7;;;;;;;;;;;;;;1.1275369;0.36774805;-0.32563248;;;;;1609.3
1767.0;1678.2;;;;-0.27063754;1.1406175;-0.008525849;;;;;;;;;;;;;;;
1767.0;1678.2;;;;-0.2742119;1.1468621;-0.009857179;;;;;;;;;;;;;;;
1767.0;1678.2;;;;-0.27769855;1.1533128;-0.011421205;;;;;;;;;;;;;;;
1767.0;1678.2;;;;-0.2812157;1.1599122;-0.013660433;;;;;;;;;;;;;;;
1767.0;1678.2;;;;-0.28437045;1.1664392;-0.01608658;;;;;;;;;;;;;;;
1767.0;1680.8;262143;262143;11140;;;;;;;;;;;;;;;;;;
1767.0;1687.0;;;;;;;;;;;;;4486;;;;;;;;
1767.0;1687.0;;;;;;;;;;;;;5468;;;;;;;;
1767.0;1687.0;;;;;;;;;;;;;5800;;;;;;;;
1767.0;1687.0;;;;;;;;;;;;;5745;;;;;;;;
1767.0;1687.0;;;;;;;;;;;;;5718;;;;;;;;
1769.0;1688.2;;;;-0.28623584;1.172474;-0.01955414;;;;;;;;;;;;;;;
1769.0;1688.2;;;;-0.2882233;1.1793405;-0.022174837;;;;;;;;;;;;;;;
1769.0;1688.2;;;;-0.2892647;1.1850282;-0.026409153;;;;;;;;;;;;;;;
1769.0;1688.2;;;;-0.28847888;1.1905748;-0.029544834;;;;;;;;;;;;;;;
1769.0;1688.2;;;;-0.28726962;1.1953851;-0.03335953;;;;;;;;;;;;;;;
1769.0;1698.2;;;;-0.28605273;1.1992837;-0.038955692;;;;;;;;;;;;;;;
1769.0;1698.2;;;;-0.28474048;1.2034112;-0.044929508;;;;;;;;;;;;;;;
1769.0;1698.2;;;;-0.28385928;1.2060128;-0.051624306;;;;;;;;;;;;;;;
1769.0;1698.2;;;;-0.28278735;1.2073671;-0.058471687;;;;;;;;;;;;;;;
1769.0;1698.2;;;;-0.28127292;1.2077333;-0.06589127;;;;;;;;;;;;;;;
1769.0;1700.9;262143;262143;11144;;;;;;;;;;;;;;;;;;
1769.0;1708.3;;;;-0.2792473;1.2072221;-0.07445527;;;;;;;;;;;;;;;
1769.0;1708.3;;;;-0.27665713;1.2060853;-0.08294297;;;;;;;;;;;;;;;
1769.0;1708.3;;;;-0.2738991;1.2041742;-0.09103013;;;;;;;;;;;;;;;
1769.0;1708.3;;;;-0.2718239;1.2016565;-0.09992601;;;;;;;;;;;;;;;
1769.0;1708.3;;;;-0.2695351;1.198517;-0.10831453;;;;;;;;;;;;;;;
1769.0;1718.4;;;;-0.2675095;1.1948129;-0.1158333;;;;;;;;;;;;;;;
1769.0;1718.4;;;;-0.26643756;1.1905137;-0.12398149;;;;;;;;;;;;;;;
1769.0;1718.4;;;;-0.26627353;1.1863977;-0.13074876;;;;;;;;;;;;;;;
1769.0;1718.4;;;;-0.26659015;1.181923;-0.13645555;;;;;;;;;;;;;;;
1769.0;1718.4;;;;-0.26715854;1.1783258;-0.14071657;;;;;;;;;;;;;;;
1822.0;1721.2;262143;262143;11145;;;;;;;;;;;;;;;;;;
1822.0;1727.4;;;;;;;;;;;;;5803;;;;;;;;
1822.0;1727.4;;;;;;;;;;;;;5654;;;;;;;;
1822.0;1727.4;;;;;;;;;;;;;4952;;;;;;;;
1822.0;1727.4;;;;;;;;;;;;;4385;;;;;;;;
1822.0;1727.4;;;;;;;;;;;;;5037;;;;;;;;
1822.0;1728.5;;;;-0.2682381;1.1747514;-0.14418031;;;;;;;;;;;;;;;
1822.0;1728.5;;;;-0.2694321;1.1719934;-0.14663698;;;;;;;;;;;;;;;
1822.0;1728.5;;;;-0.2703171;1.1698228;-0.1483803;;;;;;;;;;;;;;;
1822.0;1728.5;;;;-0.27161792;1.1688462;-0.14927293;;;;;;;;;;;;;;;
1822.0;1728.5;;;;-0.27346805;1.1685067;-0.14922716;;;;;;;;;;;;;;;
1822.0;1738.6;;;;-0.27547076;1.1685869;-0.1480179;;;;;;;;;;;;;;;
1822.0;1738.6;;;;-0.27762225;1.1696588;-0.14584352;;;;;;;;;;;;;;;
1822.0;1738.6;;;;-0.27959064;1.1713525;-0.14167406;;;;;;;;;;;;;;;
1822.0;1738.6;;;;-0.28270724;1.1737596;-0.134861;;;;;;;;;;;;;;;
1822.0;1738.6;;;;-0.28551868;1.1766435;-0.12617494;;;;;;;;;;;;;;;
1822.0;1738.7;;;;;;;;;;-0.6675924;17.00644;-1.1902219;;;;;;;;;
1822.0;1738.7;;;;;;;0.45631275;-1.253151;0.19037446;;;;;;;;;;;;
1822.0;1738.7;;;;;;;;;;5.142369;31.743065;9.11359;;;;;;;;;
1822.0;1738.7;;;;;;;0.5188757;-1.399945;0.2153386;;;;;;;;;;;;
1822.0;1741.3;262143;262143;11135;;;;;;;;;;;;;;;;;;
1822.0;1748.2;;;;;;;;;;-3.9368877;4.0284433;4.333628;;;;;;;;;
1822.0;1748.2;;;;;;;0.520951;-1.3847468;0.21778008;;;;;;;;;;;;
1822.0;1748.2;;;;;;;;;;-0.22125919;16.159552;12.58507;;;;;;;;;
1822.0;1748.2;;;;;;;0.5218665;-1.3705252;0.22034363;;;;;;;;;;;;
1824.0;1748.6;;;;-0.28950885;1.1798631;-0.11516191;;;;;;;;;;;;;;;
1824.0;1748.6;;;;-0.29384997;1.1833726;-0.10325624;;;;;;;;;;;;;;;
1824.0;1748.6;;;;-0.29763415;1.1870309;-0.08995057;;;;;;;;;;;;;;;
1824.0;1748.6;;;;-0.30161288;1.1906549;-0.076141365;;;;;;;;;;;;;;;
1824.0;1748.6;;;;-0.30514148;1.1947023;-0.060962684;;;;;;;;;;;;;;;
1824.0;1757.7;;;;;;;;;;-4.1238136;17.929625;16.148108;;;;;;;;;
1824.0;1757.7;;;;;;;0.5240028;-1.3600879;0.22376171;;;;;;;;;;;;
1824.0;1757.7;;;;;;;;;;-13.309885;-15.301217;-2.5864437;;;;;;;;;
1824.0;1757.7;;;;;;;0.52467424;-1.3508103;0.22931609;;;;;;;;;;;;
1824.0;1758.5;;;;-0.30960467;1.1983186;-0.04558182;;;;;;;;;;;;;;;
1824.0;1758.5;;;;-0.31466296;1.2017137;-0.029064182;;;;;;;;;;;;;;;
1824.0;1758.5;;;;-0.32047656;1.2047197;-0.011737825;;;;;;;;;;;;;;;
1824.0;1758.5;;;;-0.32750705;1.2068139;0.005920411;;;;;;;;;;;;;;;
1824.0;1758.5;;;;-0.33580783;1.2084848;0.023399355;;;;;;;;;;;;;;;
1824.0;1761.5;262143;262143;11137;;;;;;;;;;;;;;;;;;
1824.0;1767.3;;;;;;;;;;-17.300179;-11.925108;-2.55974;;;;;;;;;
1824.0;1767.3;;;;;;;0.53279215;-1.343791;0.2367626;;;;;;;;;;;;
1824.0;1767.3;;;;;;;;;;-20.844143;-6.328776;-3.566851;;;;;;;;;
1824.0;1767.3;;;;;;;0.53621024;-1.3361614;0.24481948;;;;;;;;;;;;
1824.0;1767.6;;;;;;;;;;;;;5100;;;;;;;;
1824.0;1767.6;;;;;;;;;;;;;-70;;;;;;;;
1824.0;1767.6;;;;;;;;;;;;;-10144;;;;;;;;
1824.0;1767.6;;;;;;;;;;;;;-15777;;;;;;;;
1824.0;1767.6;;;;;;;;;;;;;-8735;;;;;;;;
1827.0;1768.7;;;;-0.34370425;1.210373;0.040916447;;;;;;;;;;;;;;;
1827.0;1768.7;;;;-0.35266498;1.211281;0.05692292;;;;;;;;;;;;;;;
1827.0;1768.7;;;;-0.36098865;1.2114793;0.07279206;;;;;;;;;;;;;;;
1827.0;1768.7;;;;-0.36899188;1.2113725;0.0869484;;;;;;;;;;;;;;;
1827.0;1768.7;;;;-0.37634665;1.2112428;0.09918977;;;;;;;;;;;;;;;
1827.0;1777.0;;;;;;;;;;-23.789179;8.388776;0.19455549;;;;;;;;;
1827.0;1777.0;;;;;;;0.5395062;-1.3227943;0.25659963;;;;;;;;;;;;
1827.0;1777.0;;;;;;;;;;-24.079105;23.350475;3.5859249;;;;;;;;;
1827.0;1777.0;;;;;;;0.54194766;-1.3037508;0.26996672;;;;;;;;;;;;
1827.0;1778.8;;;;-0.38347632;1.2109338;0.11111452;;;;;;;;;;;;;;;
1827.0;1778.8;;;;-0.38988882;1.2105905;0.12165834;;;;;;;;;;;;;;;
1827.0;1778.8;;;;-0.39697272;1.2100412;0.13063432;;;;;;;;;;;;;;;
1827.0;1778.8;;;;-0.40323645;1.20916;0.13882066;;;;;;;;;;;;;;;
1827.0;1778.8;;;;-0.40922934;1.2090989;0.14722826;;;;;;;;;;;;;;;
1827.0;1781.7;262143;262143;11141;;;;;;;;;;;;;;;;;;
1829.0;1786.1;;;;;;;;;;;;;;;;;63.524277;22.442549;-4.036073;;1618.9
1829.0;1786.1;;;;;;;;;;;;;;1.1183813;0.369335;-0.3170263;;;;;1618.9
1829.0;1786.1;;;;;;;;;;;;;;;;;64.35591;22.289955;-5.500962;;1618.9
1829.0;1786.1;;;;;;;;;;;;;;1.1237526;0.3942381;-0.3317362;;;;;1618.9
1829.0;1786.1;;;;;;;;;;;;;;;;;65.46602;21.439253;-6.366924;;1628.4
1829.0;1786.1;;;;;;;;;;;;;;1.1485336;0.43024996;-0.3655507;;;;;1628.4
1829.0;1786.1;;;;;;;;;;;;;;;;;65.87039;20.950956;-7.5037384;;1628.4
1829.0;1786.1;;;;;;;;;;;;;;1.1771599;0.46015808;-0.39930418;;;;;1628.4
1829.0;1786.1;;;;;;;;;;;;;;;;;65.44313;21.240883;-9.147923;;1638.1
1829.0;1786.1;;;;;;;;;;;;;;1.1852168;0.47975096;-0.42103335;;;;;1638.1
1829.0;1786.1;;;;;;;;;;;;;;;;;63.04361;21.904661;-11.806849;;1638.1
1829.0;1786.1;;;;;;;;;;;;;;1.172338;0.5200964;-0.44709617;;;;;1638.1
1829.0;1786.6;;;;;;;;;;-23.018585;29.740288;0.07248146;;;;;;;;;
1829.0;1786.6;;;;;;;0.54335153;-1.2806787;0.28235725;;;;;;;;;;;;
1829.0;1786.6;;;;;;;;;;-21.752068;36.324657;-3.8377025;;;;;;;;;
1829.0;1786.6;;;;;;;0.5425581;-1.2485123;0.29798272;;;;;;;;;;;;
1830.0;1787.1;;;;;;;;;;;;;;;;;57.34428;23.369549;-14.85107;;1647.8
1830.0;1787.1;;;;;;;;;;;;;;1.1264992;0.53639334;-0.4557024;;;;;1647.8
1830.0;1787.1;;;;;;;;;;;;;;;;;48.95932;24.491104;-18.467514;;1647.8
1830.0;1787.1;;;;;;;;;;;;;;1.0714438;0.5406049;-0.4485;;;;;1647.8
1830.0;1787.1;;;;;;;;;;;;;;;;;37.86584;24.506365;-22.682882;;1657.5
1830.0;1787.1;;;;;;;;;;;;;;1.0362254;0.5498215;-0.45020905;;;;;1657.5
1830.0;1787.1;;;;;;;;;;;;;;;;;25.788141;24.716179;-28.813288;;1657.5
1830.0;1787.1;;;;;;;;;;;;;;1.0039369;0.56935334;-0.44465467;;;;;1657.5
1830.0;1787.1;;;;;;;;;;;;;;;;;13.500626;24.071474;-36.530655;;1667.1
1830.0;1787.1;;;;;;;;;;;;;;1.017304;0.615009;-0.44257942;;;;;1667.1
1830.0;1787.1;;;;;;;;;;;;;;;;;2.0447402;23.476364;-43.92758;;1667.1
1830.0;1787.1;;;;;;;;;;;;;;1.033662;0.6270333;-0.43769646;;;;;1667.1
1830.0;1788.0;;;;;;;;;;;;;;;;;-6.75985;23.880733;-52.75506;;1676.7
1830.0;1788.0;;;;;;;;;;;;;;1.0506302;0.64082766;-0.41096225;;;;;1676.7
1830.0;1788.0;;;;;;;;;;;;;;;;;-14.290292;24.502548;-60.678425;;1676.7
1830.0;1788.0;;;;;;;;;;;;;;1.0376904;0.61940366;-0.35395366;;;;;1676.7
1830.0;1788.0;;;;;;;;;;;;;;;;;-20.649586;23.228401;-66.99194;;1686.3
1830.0;1788.0;;;;;;;;;;;;;;1.0373242;0.5648976;-0.29572436;;;;;1686.3
1830.0;1788.0;;;;;;;;;;;;;;;;;-24.658957;21.355328;-74.28968;;1686.3
1830.0;1788.0;;;;;;;;;;;;;;1.0710776;0.5246132;-0.26111636;;;;;1686.3
1830.0;1788.0;;;;;;;;;;;;;;;;;-25.147251;23.174994;-81.34327;;1695.9
1830.0;1788.0;;;;;;;;;;;;;;1.0907315;0.49360636;-0.2026429;;;;;1695.9
1830.0;1788.0;;;;;;;;;;;;;;;;;-23.937956;27.020327;-87.538536;;1695.9
1830.0;1788.0;;;;;;;;;;;;;;1.0986053;0.46510208;-0.15509507;;;;;1695.9
1832.0;1788.8;;;;;;;;;;;;;;;;;-21.969513;31.998657;-92.28034;;1705.6
1832.0;1788.8;;;;;;;;;;;;;;1.0696127;0.37110507;-0.0971099;;;;;1705.6
1832.0;1788.8;;;;;;;;;;;;;;;;;-18.261513;36.385693;-97.415085;;1705.6
1832.0;1788.8;;;;;;;;;;;;;;1.0554521;0.33179724;-0.05285806;;;;;1705.6
1832.0;1788.8;;;;;;;;;;;;;;;;;-13.695181;41.29917;-103.03812;;1715.2
1832.0;1788.8;;;;;;;;;;;;;;1.0218208;0.2993866;-0.0075685903;;;;;1715.2
1832.0;1788.8;;;;;;;;;;;;;;;;;-7.148961;43.359173;-109.43175;;1715.2
1832.0;1788.8;;;;;;;;;;;;;;0.9887997;0.29114658;0.0051271096;;;;;1715.2
1832.0;1788.8;;;;;;;;;;;;;;;;;-0.90029603;43.53084;-116.100044;;1724.9
1832.0;1788.8;;;;;;;;;;;;;;0.9757378;0.3324076;-0.023499252;;;;;1724.9
1832.0;1788.8;;;;;;;;;;;;;;;;;2.845851;43.29051;-121.2157;;1724.9
1832.0;1788.8;;;;;;;;;;;;;;1.0054017;0.3546861;-0.06604206;;;;;1724.9
1832.0;1788.6;;;;-0.41450888;1.2091142;0.15367891;;;;;;;;;;;;;;;
1832.0;1788.6;;;;-0.41952902;1.2095147;0.15893175;;;;;;;;;;;;;;;
1832.0;1788.6;;;;-0.42391974;1.2108308;0.16333772;;;;;;;;;;;;;;;
1832.0;1788.6;;;;-0.42847067;1.2120401;0.16650392;;;;;;;;;;;;;;;
1832.0;1788.6;;;;-0.43228155;1.213543;0.16824724;;;;;;;;;;;;;;;
1832.0;1795.9;;;;;;;;;;-20.302439;42.970062;-8.095035;;;;;;;;;
1832.0;1795.9;;;;;;;0.5337077;-1.2108524;0.31446272;;;;;;;;;;;;
1832.0;1795.9;;;;;;;;;;-18.612476;49.62691;-12.493514;;;;;;;;;
1832.0;1795.9;;;;;;;0.52449113;-1.1650136;0.32453382;;;;;;;;;;;;
1884.0;1798.7;;;;-0.4345551;1.2160722;0.16869737;;;;;;;;;;;;;;;
1884.0;1798.7;;;;-0.43748862;1.2188607;0.16736986;;;;;;;;;;;;;;;
1884.0;1798.7;;;;-0.4391709;1.2215425;0.16518404;;;;;;;;;;;;;;;
1884.0;1798.7;;;;-0.4396668;1.2247163;0.16184236;;;;;;;;;;;;;;;
1884.0;1798.7;;;;-0.4392205;1.2280008;0.15877534;;;;;;;;;;;;;;;
1884.0;1801.6;262143;262143;11149;;;;;;;;;;;;;;;;;;
1884.0;1805.4;;;;;;;;;;-16.842403;56.23417;-17.143772;;;;;;;;;
1884.0;1805.4;;;;;;;0.51417583;-1.1196021;0.33228552;;;;;;;;;;;;
1884.0;1805.4;;;;;;;;;;-14.912107;62.280647;-21.916105;;;;;;;;;
1884.0;1805.4;;;;;;;0.50465405;-1.0719321;0.33136997;;;;;;;;;;;;
1884.0;1807.7;;;;;;;;;;;;;6610;;;;;;;;
1884.0;1807.7;;;;;;;;;;;;;17124;;;;;;;;
1884.0;1807.7;;;;;;;;;;;;;16162;;;;;;;;
1884.0;1807.7;;;;;;;;;;;;;9492;;;;;;;;
1884.0;1807.7;;;;;;;;;;;;;5205;;;;;;;;
1884.0;1808.6;;;;-0.43734366;1.231064;0.15427782;;;;;;;;;;;;;;;
1884.0;1808.6;;;;-0.43378073;1.2337343;0.14906694;;;;;;;;;;;;;;;
1884.0;1808.6;;;;-0.4309159;1.2364541;0.14331056;;;;;;;;;;;;;;;
1884.0;1808.6;;;;-0.42687994;1.2391435;0.13687898;;;;;;;;;;;;;;;
1884.0;1808.6;;;;-0.42034155;1.241192;0.12976076;;;;;;;;;;;;;;;
1884.0;1814.7;;;;;;;;;;-12.9703665;67.82357;-27.008883;;;;;;;;;
1884.0;1814.7;;;;;;;0.49714652;-1.0311594;0.32685325;;;;;;;;;;;;
1884.0;1814.7;;;;;;;;;;-11.074404;72.91635;-32.277138;;;;;;;;;
1884.0;1814.7;;;;;;;0.4850612;-0.9947813;0.3180639;;;;;;;;;;;;
1886.0;1818.4;;;;-0.4133187;1.2432443;0.122043625;;;;;;;;;;;;;;;
1886.0;1818.4;;;;-0.4050904;1.2454416;0.115051284;;;;;;;;;;;;;;;
1886.0;1818.4;;;;-0.39560705;1.2472879;0.107921615;;;;;;;;;;;;;;;
1886.0;1818.4;;;;-0.38726813;1.2485543;0.09930803;;;;;;;;;;;;;;;
1886.0;1818.4;;;;-0.38029867;1.2497369;0.09040833;;;;;;;;;;;;;;;
1886.0;1821.4;262143;262143;11163;;;;;;;;;;;;;;;;;;
1886.0;1824.3;;;;;;;;;;-9.289071;77.78024;-37.289803;;;;;;;;;
1886.0;1824.3;;;;;;;0.4730369;-0.9701224;0.30787072;;;;;;;;;;;;
1886.0;1824.3;;;;;;;;;;-7.621998;82.59071;-42.130802;;;;;;;;;
1886.0;1824.3;;;;;;;0.4618061;-0.95791495;0.29651785;;;;;;;;;;;;
1886.0;1828.5;;;;-0.37199786;1.2505876;0.0827179;;;;;;;;;;;;;;;
1886.0;1828.5;;;;-0.3628693;1.2515184;0.07556916;;;;;;;;;;;;;;;
1886.0;1828.5;;;;-0.35291675;1.2517854;0.06853486;;;;;;;;;;;;;;;
1886.0;1828.5;;;;-0.33807757;1.2532731;0.06390763;;;;;;;;;;;;;;;
1886.0;1828.5;;;;-0.33108142;1.2544328;0.0548668;;;;;;;;;;;;;;;
1886.0;1833.9;;;;;;;;;;-6.2334056;87.561424;-46.47206;;;;;;;;;
1886.0;1833.9;;;;;;;0.45368817;-0.9615772;0.29023102;;;;;;;;;;;;
1886.0;1833.9;;;;;;;;;;-5.0012207;92.95938;-50.33265;;;;;;;;;
1886.0;1833.9;;;;;;;0.4466689;-0.97994936;0.28644672;;;;;;;;;;;;
1944.0;1838.6;;;;-0.32635882;1.2549554;0.047061928;;;;;;;;;;;;;;;
1944.0;1838.6;;;;-0.32120135;1.2545396;0.0412674;;;;;;;;;;;;;;;
1944.0;1838.6;;;;-0.3146439;1.2539827;0.036357883;;;;;;;;;;;;;;;
1944.0;1838.6;;;;-0.3108025;1.2529603;0.030590061;;;;;;;;;;;;;;;
1944.0;1838.6;;;;-0.30625537;1.251362;0.025588993;;;;;;;;;;;;;;;
1944.0;1841.7;262143;262143;11177;;;;;;;;;;;;;;;;;;
1944.0;1843.5;;;;;;;;;;-3.7270732;98.479416;-53.834652;;;;;;;;;
1944.0;1843.5;;;;;;;0.4413587;-1.0118717;0.2849208;;;;;;;;;;;;
1944.0;1843.5;;;;;;;;;;-1.9989624;103.617966;-57.084873;;;;;;;;;
1944.0;1843.5;;;;;;;0.43800166;-1.0581988;0.28388318;;;;;;;;;;;;
1944.0;1846.0;;;;;;;;;;;;;;;;;3.646962;43.931396;-124.26374;;1734.5
1944.0;1846.0;;;;;;;;;;;;;;1.0632038;0.34797204;-0.10803553;;;;;1734.5
1944.0;1846.0;;;;;;;;;;;;;;;;;1.3084811;48.432877;-124.95422;;1734.5
1944.0;1846.0;;;;;;;;;;;;;;1.1073335;0.38209173;-0.14416943;;;;;1734.5
1944.0;1846.0;;;;;;;;;;;;;;;;;-5.558183;55.524612;-124.988556;;1744.1
1944.0;1846.0;;;;;;;;;;;;;;1.2043214;0.4141972;-0.18372142;;;;;1744.1
1944.0;1846.0;;;;;;;;;;;;;;;;;-14.118626;62.07465;-124.946594;;1744.1
1944.0;1846.0;;;;;;;;;;;;;;1.3316447;0.40778834;-0.22443312;;;;;1744.1
1944.0;1846.0;;;;;;;;;;;;;;;;;-21.725365;68.53313;-123.825035;;1753.8
1944.0;1846.0;;;;;;;;;;;;;;1.4512773;0.38740197;-0.27509385;;;;;1753.8
1944.0;1846.0;;;;;;;;;;;;;;;;;-25.467695;71.32557;-122.74926;;1753.8
1944.0;1846.0;;;;;;;;;;;;;;1.5845821;0.38569292;-0.3223365;;;;;1753.8
2002.0;1847.2;;;;;;;;;;;;;;;;;-25.776695;63.87143;-117.328415;;1763.5
2002.0;1847.2;;;;;;;;;;;;;;1.671865;0.35700554;-0.34223455;;;;;1763.5
2002.0;1847.2;;;;;;;;;;;;;;;;;-23.277992;45.281837;-106.860565;;1763.5
2002.0;1847.2;;;;;;;;;;;;;;1.6545916;0.2908414;-0.37659842;;;;;1763.5
2002.0;1847.2;;;;;;;;;;;;;;;;;-17.548143;29.656363;-97.178566;;1773.1
2002.0;1847.2;;;;;;;;;;;;;;1.5304422;0.1539964;-0.44874418;;;;;1773.1
2002.0;1847.2;;;;;;;;;;;;;;;;;2.3461106;18.070772;-91.30756;;1773.1
2002.0;1847.2;;;;;;;;;;;;;;1.4380322;0.086245306;-0.46369824;;;;;1773.1
2002.0;1847.2;;;;;;;;;;;;;;;;;23.644215;6.2524796;-80.103455;;1782.7
2002.0;1847.2;;;;;;;;;;;;;;1.3743706;0.032471694;-0.5247353;;;;;1782.7
2002.0;1847.2;;;;;;;;;;;;;;;;;38.968323;-1.5869625;-72.428055;;1782.7
2002.0;1847.2;;;;;;;;;;;;;;1.3285317;-0.021179846;-0.53889585;;;;;1782.7
2002.0;1847.7;;;;;;;;;;;;;4505;;;;;;;;
2002.0;1847.7;;;;;;;;;;;;;4451;;;;;;;;
2002.0;1847.7;;;;;;;;;;;;;4070;;;;;;;;
2002.0;1847.7;;;;;;;;;;;;;3908;;;;;;;;
2002.0;1847.7;;;;;;;;;;;;;3736;;;;;;;;
2002.0;1848.6;;;;-0.29901507;1.2501184;0.02277756;;;;;;;;;;;;;;;
2002.0;1848.6;;;;-0.2945824;1.2493974;0.01836014;;;;;;;;;;;;;;;
2002.0;1848.6;;;;-0.28926852;1.2482148;0.016033174;;;;;;;;;;;;;;;
2002.0;1848.6;;;;-0.28532794;1.2475435;0.013515474;;;;;;;;;;;;;;;
2002.0;1848.6;;;;-0.28080752;1.2466813;0.012107851;;;;;;;;;;;;;;;
2002.0;1853.0;;;;;;;;;;0.20599994;108.63827;-60.102386;;;;;;;;;
2002.0;1853.0;;;;;;;0.43226418;-1.1091647;0.28370008;;;;;;;;;;;;
2002.0;1853.0;;;;;;;;;;2.784814;113.65856;-62.97113;;;;;;;;;
2002.0;1853.0;;;;;;;0.42695394;-1.157567;0.28510392;;;;;;;;;;;;
2007.0;1858.7;;;;-0.27668002;1.2459527;0.011383058;;;;;;;;;;;;;;;
2007.0;1858.7;;;;-0.27262118;1.2461244;0.010299684;;;;;;;;;;;;;;;
2007.0;1858.7;;;;-0.26982883;1.24609;0.011283875;;;;;;;;;;;;;;;
2007.0;1858.7;;;;-0.2662697;1.2453843;0.011787416;;;;;;;;;;;;;;;
2007.0;1858.7;;;;-0.26464847;1.2447854;0.013347628;;;;;;;;;;;;;;;
2007.0;1861.7;262143;262143;11166;;;;;;;;;;;;;;;;;;
2007.0;1862.5;;;;;;;;;;5.733665;118.46904;-65.65676;;;;;;;;;
2007.0;1862.5;;;;;;;0.42286447;-1.2098758;0.28955963;;;;;;;;;;;;
2007.0;1862.5;;;;;;;;;;9.0983305;122.22663;-68.25846;;;;;;;;;
2007.0;1862.5;;;;;;;0.41425824;-1.261391;0.28907132;;;;;;;;;;;;
2007.0;1868.6;;;;-0.2614937;1.2442514;0.01810837;;;;;;;;;;;;;;;
2007.0;1868.6;;;;-0.2589455;1.2440339;0.021675112;;;;;;;;;;;;;;;
2007.0;1868.6;;;;-0.2568474;1.2438852;0.027217869;;;;;;;;;;;;;;;
2007.0;1868.6;;;;-0.2522278;1.2426988;0.032089237;;;;;;;;;;;;;;;
2007.0;1868.6;;;;-0.24906924;1.241028;0.037189487;;;;;;;;;;;;;;;
2007.0;1872.1;;;;;;;;;;12.981811;124.30952;-70.74572;;;;;;;;;
2007.0;1872.1;;;;;;;0.40357676;-1.3180944;0.28595844;;;;;;;;;;;;
2007.0;1872.1;;;;;;;;;;17.239141;124.78637;-73.065125;;;;;;;;;
2007.0;1872.1;;;;;;;0.38734093;-1.3759575;0.27350688;;;;;;;;;;;;
2008.0;1878.7;;;;-0.24738696;1.239647;0.042968754;;;;;;;;;;;;;;;
2008.0;1878.7;;;;-0.24607089;1.2380563;0.050899513;;;;;;;;;;;;;;;
2008.0;1878.7;;;;-0.24505237;1.2352144;0.057659157;;;;;;;;;;;;;;;
2008.0;1878.7;;;;-0.24401477;1.232155;0.06444169;;;;;;;;;;;;;;;
2008.0;1878.7;;;;-0.24139789;1.2282907;0.07353974;;;;;;;;;;;;;;;
2008.0;1881.7;;;;;;;;;;21.858883;124.84359;-75.357834;;;;;;;;;
2008.0;1881.7;;;;;;;0.36677146;-1.4356518;0.2567217;;;;;;;;;;;;
2008.0;1881.7;;;;;;;;;;26.982178;124.561295;-77.45598;;;;;;;;;
2008.0;1881.7;;;;;;;0.3457747;-1.492233;0.23871578;;;;;;;;;;;;
2008.0;1881.9;262143;262143;11149;;;;;;;;;;;;;;;;;;
2008.0;1888.0;;;;;;;;;;;;;3287;;;;;;;;
2008.0;1888.0;;;;;;;;;;;;;2748;;;;;;;;
2008.0;1888.0;;;;;;;;;;;;;2462;;;;;;;;
2008.0;1888.0;;;;;;;;;;;;;2305;;;;;;;;
2008.0;1888.0;;;;;;;;;;;;;1746;;;;;;;;
2008.0;1888.8;;;;-0.23915866;1.2240449;0.081104286;;;;;;;;;;;;;;;
2008.0;1888.8;;;;-0.23739246;1.2187158;0.08922196;;;;;;;;;;;;;;;
2008.0;1888.8;;;;-0.23615268;1.2126619;0.09831621;;;;;;;;;;;;;;;
2008.0;1888.8;;;;-0.23381808;1.2063943;0.1070862;;;;;;;;;;;;;;;
2008.0;1888.8;;;;-0.23308948;1.1994058;0.11489488;;;;;;;;;;;;;;;
2008.0;1891.3;;;;;;;;;;32.631916;123.02774;-79.359566;;;;;;;;;
2008.0;1891.3;;;;;;;0.32056642;-1.5406353;0.21924497;;;;;;;;;;;;
2008.0;1891.3;;;;;;;;;;38.724174;119.37697;-81.23264;;;;;;;;;
2008.0;1891.3;;;;;;;0.29517502;-1.5807368;0.19788201;;;;;;;;;;;;
2125.0;1898.9;;;;-0.23265079;1.1917421;0.12229158;;;;;;;;;;;;;;;
2125.0;1898.9;;;;-0.23218158;1.1827661;0.12939836;;;;;;;;;;;;;;;
2125.0;1898.9;;;;-0.23179248;1.1738015;0.13518526;;;;;;;;;;;;;;;
2125.0;1898.9;;;;-0.23017123;1.1645547;0.14258195;;;;;;;;;;;;;;;
2125.0;1898.9;;;;-0.23001102;1.1556779;0.14760973;;;;;;;;;;;;;;;
2125.0;1900.9;;;;;;;;;;45.247505;114.11252;-83.15913;;;;;;;;;
2125.0;1900.9;;;;;;;0.27033296;-1.6089358;0.17883846;;;;;;;;;;;;
2125.0;1900.9;;;;;;;;;;51.88528;107.73415;-85.22675;;;;;;;;;
2125.0;1900.9;;;;;;;0.24768822;-1.6223639;0.1605884;;;;;;;;;;;;
2125.0;1902.2;262143;262143;11137;;;;;;;;;;;;;;;;;;
2125.0;1906.3;;;;;;;;;;;;;;;;;45.930355;-6.572924;-73.53435;;1792.3
2125.0;1906.3;;;;;;;;;;;;;;1.3638111;-0.03625599;-0.5447554;;;;;1792.3
2125.0;1906.3;;;;;;;;;;;;;;;;;40.45991;-3.2273324;-75.32732;;1792.3
2125.0;1906.3;;;;;;;;;;;;;;1.3979919;-0.07770012;-0.5114902;;;;;1792.3
2125.0;1906.3;;;;;;;;;;;;;;;;;25.47914;8.705404;-78.344826;;1801.9
2125.0;1906.3;;;;;;;;;;;;;;1.4175237;-0.1439253;-0.4704123;;;;;1801.9
2125.0;1906.3;;;;;;;;;;;;;;;;;6.0464797;32.387768;-97.94916;;1801.9
2125.0;1906.3;;;;;;;;;;;;;;1.5074923;-0.10541093;-0.38056582;;;;;1801.9
2125.0;1906.3;;;;;;;;;;;;;;;;;-19.871365;65.57665;-117.74804;;1811.6
2125.0;1906.3;;;;;;;;;;;;;;1.5803705;-0.006164739;-0.24060793;;;;;1811.6
2125.0;1906.3;;;;;;;;;;;;;;;;;-36.18732;90.88793;-124.111145;;1811.6
2125.0;1906.3;;;;;;;;;;;;;;1.5526596;0.05957213;0.025940733;;;;;1811.6
2128.0;1907.1;;;;;;;;;;;;;;;;;-37.68273;86.809906;-124.790184;;1821.1
2128.0;1907.1;;;;;;;;;;;;;;1.5750602;0.108401746;0.19190039;;;;;1821.1
2128.0;1907.1;;;;;;;;;;;;;;;;;-39.39558;68.81542;-122.65007;;1821.1
2128.0;1907.1;;;;;;;;;;;;;;1.5455184;0.043946654;0.22907193;;;;;1821.1
2128.0;1907.1;;;;;;;;;;;;;;;;;-36.870174;51.042206;-124.10733;;1830.6
2128.0;1907.1;;;;;;;;;;;;;;1.525193;-1.2207404E-4;0.13116856;;;;;1830.6
2128.0;1907.1;;;;;;;;;;;;;;;;;-31.369213;43.683434;-124.988556;;1830.6
2128.0;1907.1;;;;;;;;;;;;;;1.4919279;0.04016236;0.03564562;;;;;1830.6
2128.0;1907.1;;;;;;;;;;;;;;;;;-32.448807;44.27854;-124.988556;;1840.2
2128.0;1907.1;;;;;;;;;;;;;;1.4481643;0.062623985;-0.054017764;;;;;1840.2
2128.0;1907.1;;;;;;;;;;;;;;;;;-36.98462;44.827873;-124.988556;;1840.2
2128.0;1907.1;;;;;;;;;;;;;;1.4184393;0.09363079;-0.11157567;;;;;1840.2
2128.0;1908.8;;;;-0.22892764;1.146473;0.15267564;;;;;;;;;;;;;;;
2128.0;1908.8;;;;-0.22818378;1.1367189;0.15673448;;;;;;;;;;;;;;;
2128.0;1908.8;;;;-0.22693256;1.1265146;0.16045;;;;;;;;;;;;;;;
2128.0;1908.8;;;;-0.2263489;1.1165506;0.16284563;;;;;;;;;;;;;;;
2128.0;1908.8;;;;-0.22573474;1.1067353;0.16567613;;;;;;;;;;;;;;;
2128.0;1910.3;;;;;;;;;;58.40861;100.287636;-87.52709;;;;;;;;;
2128.0;1910.3;;;;;;;0.22510453;-1.6260262;0.1445967;;;;;;;;;;;;
2128.0;1910.3;;;;;;;;;;64.65728;91.90267;-89.85793;;;;;;;;;
2128.0;1910.3;;;;;;;0.20685446;-1.6184576;0.13220619;;;;;;;;;;;;
2129.0;1918.9;;;;-0.22600558;1.0962144;0.16705705;;;;;;;;;;;;;;;
2129.0;1918.9;;;;-0.2259331;1.0856057;0.16729356;;;;;;;;;;;;;;;
2129.0;1918.9;;;;-0.22575763;1.0747606;0.16718675;;;;;;;;;;;;;;;
2129.0;1918.9;;;;-0.22592166;1.0640756;0.16697313;;;;;;;;;;;;;;;
2129.0;1918.9;;;;-0.22622302;1.0531541;0.16570283;;;;;;;;;;;;;;;
2129.0;1919.9;;;;;;;;;;70.43672;82.91498;-92.17353;;;;;;;;;
2129.0;1919.9;;;;;;;0.1909238;-1.6024048;0.118717;;;;;;;;;;;;
2129.0;1919.9;;;;;;;;;;75.86902;73.28257;-94.508194;;;;;;;;;
2129.0;1919.9;;;;;;;0.1793878;-1.5817133;0.10711997;;;;;;;;;;;;
2129.0;1922.1;262143;262143;11131;;;;;;;;;;;;;;;;;;
2129.0;1928.1;;;;;;;;;;;;;770;;;;;;;;
2129.0;1928.1;;;;;;;;;;;;;-312;;;;;;;;
2129.0;1928.1;;;;;;;;;;;;;-1177;;;;;;;;
2129.0;1928.1;;;;;;;;;;;;;-1689;;;;;;;;
2129.0;1928.1;;;;;;;;;;;;;-1862;;;;;;;;
2129.0;1928.9;;;;-0.22669604;1.042492;0.16458894;;;;;;;;;;;;;;;
2129.0;1928.9;;;;-0.22731784;1.0311052;0.16317369;;;;;;;;;;;;;;;
2129.0;1928.9;;;;-0.2282944;1.0195657;0.16117479;;;;;;;;;;;;;;;
2129.0;1928.9;;;;-0.2300835;1.0085298;0.15885545;;;;;;;;;;;;;;;
2129.0;1928.9;;;;-0.23217395;0.9968034;0.1565323;;;;;;;;;;;;;;;
2129.0;1929.4;;;;;;;;;;81.04953;63.41365;-96.96875;;;;;;;;;
2129.0;1929.4;;;;;;;0.17413862;-1.5555284;0.09887997;;;;;;;;;;;;
2129.0;1929.4;;;;;;;;;;85.73412;53.01828;-99.34919;;;;;;;;;
2129.0;1929.4;;;;;;;0.1699881;-1.5212866;0.09472945;;;;;;;;;;;;
2130.0;1938.9;;;;-0.235199;0.98557675;0.15333177;;;;;;;;;;;;;;;
2130.0;1938.9;;;;-0.23900226;0.97387326;0.14982988;;;;;;;;;;;;;;;
2130.0;1938.9;;;;-0.24412158;0.9624597;0.1446686;;;;;;;;;;;;;;;
2130.0;1938.9;;;;-0.24966434;0.9513284;0.13966753;;;;;;;;;;;;;;;
2130.0;1938.9;;;;-0.25535586;0.94033444;0.13521196;;;;;;;;;;;;;;;
2130.0;1939.0;;;;;;;;;;90.08301;42.27195;-101.85552;;;;;;;;;
2130.0;1939.0;;;;;;;0.16498306;-1.4832606;0.08850368;;;;;;;;;;;;
2130.0;1939.0;;;;;;;;;;93.9436;31.292915;-104.34278;;;;;;;;;
2130.0;1939.0;;;;;;;0.16272469;-1.4408399;0.08429212;;;;;;;;;;;;
2130.0;1942.3;262143;262143;11124;;;;;;;;;;;;;;;;;;
2130.0;1948.7;;;;;;;;;;97.16712;20.737328;-106.99408;;;;;;;;;
2130.0;1948.7;;;;;;;0.16150396;-1.3945738;0.08001953;;;;;;;;;;;;
2130.0;1948.7;;;;;;;;;;99.71159;10.849331;-109.93148;;;;;;;;;
2130.0;1948.7;;;;;;;0.1643727;-1.3498337;0.07849361;;;;;;;;;;;;
2130.0;1949.0;;;;-0.26072696;0.9296762;0.13040163;;;;;;;;;;;;;;;
2130.0;1949.0;;;;-0.26445773;0.9196321;0.12673952;;;;;;;;;;;;;;;
2130.0;1949.0;;;;-0.26794437;0.9101411;0.12338258;;;;;;;;;;;;;;;
2130.0;1949.0;;;;-0.2701302;0.9007913;0.122280136;;;;;;;;;;;;;;;
2130.0;1949.0;;;;-0.27133563;0.8924562;0.12036134;;;;;;;;;;;;;;;
2130.0;1958.3;;;;;;;;;;101.88604;1.4915922;-113.006226;;;;;;;;;
2130.0;1958.3;;;;;;;0.16974396;-1.3067416;0.0778222;;;;;;;;;;;;
2130.0;1958.3;;;;;;;;;;103.667564;-7.4312572;-116.07715;;;;;;;;;
2130.0;1958.3;;;;;;;0.17224647;-1.2701193;0.07641835;;;;;;;;;;;;
2133.0;1959.2;;;;-0.27285007;0.8837358;0.117496505;;;;;;;;;;;;;;;
2133.0;1959.2;;;;-0.27386478;0.8750001;0.114280716;;;;;;;;;;;;;;;
2133.0;1959.2;;;;-0.2749634;0.86576474;0.11259462;;;;;;;;;;;;;;;
2133.0;1959.2;;;;-0.27650073;0.85712063;0.110698715;;;;;;;;;;;;;;;
2133.0;1959.2;;;;-0.27891162;0.84832394;0.1105385;;;;;;;;;;;;;;;
2133.0;1962.6;262143;262143;11112;;;;;;;;;;;;;;;;;;
2133.0;1966.8;;;;;;;;;;;;;;;;;-40.383617;39.11328;-124.988556;;1849.9
2133.0;1966.8;;;;;;;;;;;;;;1.4429761;0.15424055;-0.16400647;;;;;1849.9
2133.0;1966.8;;;;;;;;;;;;;;;;;-46.159245;35.18021;-124.988556;;1849.9
2133.0;1966.8;;;;;;;;;;;;;;1.4629964;0.20722067;-0.20422986;;;;;1849.9
2133.0;1966.8;;;;;;;;;;;;;;;;;-52.323986;38.785213;-124.988556;;1859.5
2133.0;1966.8;;;;;;;;;;;;;;1.4371166;0.17987609;-0.20892972;;;;;1859.5
2133.0;1966.8;;;;;;;;;;;;;;;;;-45.20554;44.12595;-124.988556;;1859.5
2133.0;1966.8;;;;;;;;;;;;;;1.383282;0.15540025;-0.14575641;;;;;1859.5
2133.0;1966.8;;;;;;;;;;;;;;;;;-30.07599;43.122654;-124.988556;;1869.2
2133.0;1966.8;;;;;;;;;;;;;;1.310648;0.17572558;-0.06756798;;;;;1869.2
2133.0;1966.8;;;;;;;;;;;;;;;;;-16.129032;30.533768;-124.988556;;1869.2
2133.0;1966.8;;;;;;;;;;;;;;1.2800684;0.21192053;-0.122562334;;;;;1869.2
2134.0;1967.6;;;;;;;;;;;;;;;;;-7.530442;13.843959;-124.988556;;1878.8
2134.0;1967.6;;;;;;;;;;;;;;1.2914823;0.2578814;-0.27295756;;;;;1878.8
2134.0;1967.6;;;;;;;;;;;;;;;;;-7.126072;6.363109;-124.988556;;1878.8
2134.0;1967.6;;;;;;;;;;;;;;1.3057039;0.3094577;-0.41297647;;;;;1878.8
2134.0;1967.6;;;;;;;;;;;;;;;;;-13.42433;14.530625;-124.988556;;1888.3
2134.0;1967.6;;;;;;;;;;;;;;1.2664571;0.33082065;-0.4194464;;;;;1888.3
2134.0;1967.6;;;;;;;;;;;;;;;;;-18.555254;23.712883;-124.988556;;1888.3
2134.0;1967.6;;;;;;;;;;;;;;1.1863155;0.3342387;-0.32654804;;;;;1888.3
2134.0;1967.6;;;;;;;;;;;;;;;;;-25.17014;27.027956;-124.988556;;1897.9
2134.0;1967.6;;;;;;;;;;;;;;1.1369365;0.3124485;-0.24665059;;;;;1897.9
2134.0;1967.6;;;;;;;;;;;;;;;;;-33.684807;25.437178;-124.988556;;1897.9
2134.0;1967.6;;;;;;;;;;;;;;1.1462752;0.29834896;-0.25580615;;;;;1897.9
2134.0;1967.8;;;;;;;;;;104.911194;-15.6788845;-119.24726;;;;;;;;;
2134.0;1967.8;;;;;;;0.17835017;-1.231788;0.07483139;;;;;;;;;;;;
2134.0;1967.8;;;;;;;;;;105.53682;-23.991364;-122.352516;;;;;;;;;
2134.0;1967.8;;;;;;;0.1760918;-1.1962035;0.075441755;;;;;;;;;;;;
2134.0;1968.5;;;;;;;;;;;;;-1624;;;;;;;;
2134.0;1968.5;;;;;;;;;;;;;-942;;;;;;;;
2134.0;1968.5;;;;;;;;;;;;;-53;;;;;;;;
2134.0;1968.5;;;;;;;;;;;;;615;;;;;;;;
2134.0;1968.5;;;;;;;;;;;;;864;;;;;;;;
2134.0;1969.1;;;;-0.28211978;0.84030163;0.11058809;;;;;;;;;;;;;;;
2134.0;1969.1;;;;-0.2852898;0.8324586;0.11091997;;;;;;;;;;;;;;;
2134.0;1969.1;;;;-0.28913882;0.82517254;0.11223604;;;;;;;;;;;;;;;
2134.0;1969.1;;;;-0.2929726;0.8182603;0.11376573;;;;;;;;;;;;;;;
2134.0;1969.1;;;;-0.2971268;0.8119813;0.115871444;;;;;;;;;;;;;;;
2136.0;1977.4;;;;;;;;;;105.861084;-32.193214;-124.36292;;;;;;;;;
2136.0;1977.4;;;;;;;0.17303994;-1.1616565;0.07525864;;;;;;;;;;;;
2136.0;1977.4;;;;;;;;;;105.86871;-39.719837;-124.85885;;;;;;;;;
2136.0;1977.4;;;;;;;0.17151402;-1.1303445;0.076113164;;;;;;;;;;;;
2136.0;1979.2;;;;-0.301693;0.80653393;0.11740495;;;;;;;;;;;;;;;
2136.0;1979.2;;;;-0.3066292;0.8012086;0.11906053;;;;;;;;;;;;;;;
2136.0;1979.2;;;;-0.3112221;0.7969247;0.120834365;;;;;;;;;;;;;;;
2136.0;1979.2;;;;-0.31497958;0.79249966;0.1222458;;;;;;;;;;;;;;;
2136.0;1979.2;;;;-0.31837466;0.7889215;0.12413789;;;;;;;;;;;;;;;
2136.0;1982.6;262143;262143;11107;;;;;;;;;;;;;;;;;;
2136.0;1986.9;;;;;;;;;;105.45671;-46.51021;-124.881744;;;;;;;;;
2136.0;1986.9;;;;;;;0.17542039;-1.0965911;0.078554645;;;;;;;;;;;;
2136.0;1986.9;;;;;;;;;;104.73571;-52.45369;-124.881744;;;;;;;;;
2136.0;1986.9;;;;;;;0.18024231;-1.0664998;0.07702872;;;;;;;;;;;;
2136.0;1989.2;;;;-0.32221225;0.78528607;0.12526704;;;;;;;;;;;;;;;
2136.0;1989.2;;;;-0.32548526;0.78222287;0.12662126;;;;;;;;;;;;;;;
2136.0;1989.2;;;;-0.3281403;0.7789651;0.1278;;;;;;;;;;;;;;;
2136.0;1989.2;;;;-0.33169177;0.7751733;0.12902834;;;;;;;;;;;;;;;
2136.0;1989.2;;;;-0.33498767;0.7716447;0.12953569;;;;;;;;;;;;;;;
2136.0;1996.2;;;;;;;;;;103.88119;-57.958466;-124.881744;;;;;;;;;
2136.0;1996.2;;;;;;;0.19031343;-1.0411085;0.07708976;;;;;;;;;;;;
2136.0;1996.2;;;;;;;;;;102.76345;-62.82998;-124.881744;;;;;;;;;
2136.0;1996.2;;;;;;;0.19837031;-1.0150456;0.07574694;;;;;;;;;;;;
2137.0;1999.0;;;;-0.33802417;0.7682687;0.1311493;;;;;;;;;;;;;;;
2137.0;1999.0;;;;-0.3412018;0.7649194;0.13196947;;;;;;;;;;;;;;;
2137.0;1999.0;;;;-0.34416202;0.7620317;0.13236238;;;;;;;;;;;;;;;
2137.0;1999.0;;;;-0.346756;0.7587892;0.13243867;;;;;;;;;;;;;;;
2137.0;1999.0;;;;-0.34869006;0.7550241;0.13264467;;;;;;;;;;;;;;;
2137.0;2002.6;262143;262143;11100;;;;;;;;;;;;;;;;;;
2137.0;2005.9;;;;;;;;;;101.50075;-66.75924;-124.881744;;;;;;;;;
2137.0;2005.9;;;;;;;0.20587787;-0.9920957;0.07147435;;;;;;;;;;;;
2137.0;2005.9;;;;;;;;;;100.066376;-69.53642;-124.881744;;;;;;;;;
2137.0;2005.9;;;;;;;0.21839045;-0.9714652;0.07129124;;;;;;;;;;;;
2137.0;2008.6;;;;;;;;;;;;;974;;;;;;;;
2137.0;2008.6;;;;;;;;;;;;;1442;;;;;;;;
2137.0;2008.6;;;;;;;;;;;;;2403;;;;;;;;
2137.0;2008.6;;;;;;;;;;;;;3446;;;;;;;;
2137.0;2008.6;;;;;;;;;;;;;4218;;;;;;;;
2137.0;2009.2;;;;-0.35008624;0.7516595;0.13273622;;;;;;;;;;;;;;;
2137.0;2009.2;;;;-0.35125735;0.748745;0.13346483;;;;;;;;;;;;;;;
2137.0;2009.2;;;;-0.3522835;0.74571997;0.13327028;;;;;;;;;;;;;;;
2137.0;2009.2;;;;-0.35335162;0.7422715;0.13357545;;;;;;;;;;;;;;;
2137.0;2009.2;;;;-0.35361484;0.7393418;0.13382722;;;;;;;;;;;;;;;
2137.0;2015.5;;;;;;;;;;98.42601;-71.29124;-124.881744;;;;;;;;;
2137.0;2015.5;;;;;;;0.22467726;-0.952971;0.07257301;;;;;;;;;;;;
2137.0;2015.5;;;;;;;;;;96.86194;-72.6722;-124.881744;;;;;;;;;
2137.0;2015.5;;;;;;;0.23322245;-0.9378338;0.07080294;;;;;;;;;;;;
2138.0;2019.3;;;;-0.35358432;0.7363511;0.13436128;;;;;;;;;;;;;;;
2138.0;2019.3;;;;-0.35436252;0.7334214;0.13403322;;;;;;;;;;;;;;;
2138.0;2019.3;;;;-0.35470966;0.73053366;0.13403703;;;;;;;;;;;;;;;
2138.0;2019.3;;;;-0.3547974;0.72795874;0.13391496;;;;;;;;;;;;;;;
2138.0;2019.3;;;;-0.35504535;0.7255135;0.13382722;;;;;;;;;;;;;;;
2138.0;2022.9;262143;262143;11097;;;;;;;;;;;;;;;;;;
2138.0;2025.1;;;;;;;;;;94.843895;-73.30546;-124.881744;;;;;;;;;
2138.0;2025.1;;;;;;;0.23969238;-0.9243446;0.06836146;;;;;;;;;;;;
2138.0;2025.1;;;;;;;;;;92.33756;-73.09946;-124.881744;;;;;;;;;
2138.0;2025.1;;;;;;;0.24890897;-0.9114658;0.06537065;;;;;;;;;;;;
2138.0;2026.9;;;;;;;;;;;;;;;;;-46.143986;28.733177;-124.988556;;1907.6
2138.0;2026.9;;;;;;;;;;;;;;1.1153295;0.2785119;-0.2565386;;;;;1907.6
2138.0;2026.9;;;;;;;;;;;;;;;;;-56.89413;33.848843;-124.988556;;1907.6
2138.0;2026.9;;;;;;;;;;;;;;1.1002533;0.22132023;-0.30146185;;;;;1907.6
2138.0;2026.9;;;;;;;;;;;;;;;;;-55.05539;41.611988;-124.988556;;1917.3
2138.0;2026.9;;;;;;;;;;;;;;1.0802332;0.21027254;-0.29688406;;;;;1917.3
2138.0;2026.9;;;;;;;;;;;;;;;;;-59.438614;47.15491;-124.988556;;1917.3
2138.0;2026.9;;;;;;;;;;;;;;1.040437;0.29041412;-0.23664053;;;;;1917.3
2138.0;2026.9;;;;;;;;;;;;;;;;;-68.43394;45.297096;-124.988556;;1926.8
2138.0;2026.9;;;;;;;;;;;;;;0.9834895;0.28925443;-0.25055698;;;;;1926.8
2138.0;2026.9;;;;;;;;;;;;;;;;;-72.199165;45.796837;-124.988556;;1926.8
2138.0;2026.9;;;;;;;;;;;;;;0.873928;0.27759635;-0.2156438;;;;;1926.8
2139.0;2027.7;;;;;;;;;;;;;;;;;-74.58724;43.923767;-124.988556;;1936.5
2139.0;2027.7;;;;;;;;;;;;;;0.8302255;0.24854274;-0.18903165;;;;;1936.5
2139.0;2027.7;;;;;;;;;;;;;;;;;-73.90439;40.326393;-124.988556;;1936.5
2139.0;2027.7;;;;;;;;;;;;;;0.8315073;0.20319223;-0.21259193;;;;;1936.5
2139.0;2027.7;;;;;;;;;;;;;;;;;-72.35938;41.898098;-124.988556;;1946.0
2139.0;2027.7;;;;;;;;;;;;;;0.82430494;0.18768883;-0.18115787;;;;;1946.0
2139.0;2027.7;;;;;;;;;;;;;;;;;-68.96801;40.25773;-124.988556;;1946.0
2139.0;2027.7;;;;;;;;;;;;;;0.8184454;0.19452497;-0.16827907;;;;;1946.0
2139.0;2027.7;;;;;;;;;;;;;;;;;-65.816986;38.20536;-124.988556;;1955.7
2139.0;2027.7;;;;;;;;;;;;;;0.79732656;0.20746483;-0.15735343;;;;;1955.7
2139.0;2027.7;;;;;;;;;;;;;;;;;-63.8638;37.217323;-124.57274;;1955.7
2139.0;2027.7;;;;;;;;;;;;;;0.7836543;0.1784112;-0.1472213;;;;;1955.7
2139.0;2029.1;;;;-0.3543282;0.7233582;0.1332512;;;;;;;;;;;;;;;
2139.0;2029.1;;;;-0.3538933;0.72066885;0.13297655;;;;;;;;;;;;;;;
2139.0;2029.1;;;;-0.35305026;0.7189408;0.13262178;;;;;;;;;;;;;;;
2139.0;2029.1;;;;-0.3530312;0.7169152;0.13266756;;;;;;;;;;;;;;;
2139.0;2029.1;;;;-0.35339358;0.714737;0.13360597;;;;;;;;;;;;;;;
2139.0;2034.4;;;;;;;;;;89.762566;-72.06946;-124.881744;;;;;;;;;
2139.0;2034.4;;;;;;;0.25434124;-0.9020661;0.06329539;;;;;;;;;;;;
2139.0;2034.4;;;;;;;;;;87.13798;-69.97894;-124.881744;;;;;;;;;
2139.0;2034.4;;;;;;;0.26056704;-0.8896756;0.05957213;;;;;;;;;;;;
2141.0;2039.1;;;;-0.35325244;0.7128373;0.13537599;;;;;;;;;;;;;;;
2141.0;2039.1;;;;-0.3539696;0.7110253;0.13697816;;;;;;;;;;;;;;;
2141.0;2039.1;;;;-0.35527042;0.7096978;0.13841249;;;;;;;;;;;;;;;
2141.0;2039.1;;;;-0.3556824;0.709179;0.14034654;;;;;;;;;;;;;;;
2141.0;2039.1;;;;-0.3563576;0.7090569;0.14183427;;;;;;;;;;;;;;;
2141.0;2042.7;262143;262143;11099;;;;;;;;;;;;;;;;;;
2141.0;2043.9;;;;;;;;;;84.5439;-67.052986;-124.881744;;;;;;;;;
2141.0;2043.9;;;;;;;0.27381206;-0.8792993;0.052919097;;;;;;;;;;;;
2141.0;2043.9;;;;;;;;;;81.789604;-63.348793;-124.881744;;;;;;;;;
2141.0;2043.9;;;;;;;0.28040406;-0.8709372;0.047975097;;;;;;;;;;;;
2141.0;2048.7;;;;;;;;;;;;;4710;;;;;;;;
2141.0;2048.7;;;;;;;;;;;;;4966;;;;;;;;
2141.0;2048.7;;;;;;;;;;;;;4935;;;;;;;;
2141.0;2048.7;;;;;;;;;;;;;4691;;;;;;;;
2141.0;2048.7;;;;;;;;;;;;;4527;;;;;;;;
2141.0;2049.1;;;;-0.35675433;0.70922476;0.14374925;;;;;;;;;;;;;;;
2141.0;2049.1;;;;-0.35593417;0.7102509;0.14594652;;;;;;;;;;;;;;;
2141.0;2049.1;;;;-0.3557854;0.71139914;0.14667512;;;;;;;;;;;;;;;
2141.0;2049.1;;;;-0.35642245;0.71305853;0.14738084;;;;;;;;;;;;;;;
2141.0;2049.1;;;;-0.35671237;0.7149735;0.14947511;;;;;;;;;;;;;;;
2141.0;2053.5;;;;;;;;;;79.12686;-59.217354;-124.881744;;;;;;;;;
2141.0;2053.5;;;;;;;0.29139072;-0.8651387;0.043763544;;;;;;;;;;;;
2141.0;2053.5;;;;;;;;;;76.41835;-54.38017;-124.881744;;;;;;;;;
2141.0;2053.5;;;;;;;0.29609057;-0.8587909;0.041077916;;;;;;;;;;;;
2142.0;2059.2;;;;-0.35784534;0.71706015;0.15106584;;;;;;;;;;;;;;;
2142.0;2059.2;;;;-0.35866168;0.71965796;0.15221788;;;;;;;;;;;;;;;
2142.0;2059.2;;;;-0.35955814;0.72264487;0.15448762;;;;;;;;;;;;;;;
2142.0;2059.2;;;;-0.3609505;0.7260857;0.15535738;;;;;;;;;;;;;;;
2142.0;2059.2;;;;-0.36103442;0.72910315;0.15739824;;;;;;;;;;;;;;;
2142.0;2063.1;;;;;;;;;;73.8052;-49.058506;-124.881744;;;;;;;;;
2142.0;2063.1;;;;;;;0.2997528;-0.854152;0.03668325;;;;;;;;;;;;
2142.0;2063.1;;;;;;;;;;71.2035;-43.336285;-124.881744;;;;;;;;;
2142.0;2063.1;;;;;;;0.30524614;-0.84951323;0.03399762;;;;;;;;;;;;
2142.0;2062.9;262143;262143;11092;;;;;;;;;;;;;;;;;;
2142.0;2069.3;;;;-0.3606148;0.7330628;0.15832521;;;;;;;;;;;;;;;
2142.0;2069.3;;;;-0.35979083;0.737217;0.15812303;;;;;;;;;;;;;;;
2142.0;2069.3;;;;-0.35788348;0.7414704;0.1582985;;;;;;;;;;;;;;;
2142.0;2069.3;;;;-0.355732;0.74539953;0.15713884;;;;;;;;;;;;;;;
2142.0;2069.3;;;;-0.35348514;0.749157;0.15608217;;;;;;;;;;;;;;;
2142.0;2072.8;;;;;;;;;;68.53694;-36.57262;-124.881744;;;;;;;;;
2142.0;2072.8;;;;;;;0.3035371;-0.8460341;0.041077916;;;;;;;;;;;;
2142.0;2072.8;;;;;;;;;;66.21754;-29.770807;-124.881744;;;;;;;;;
2142.0;2072.8;;;;;;;0.30762658;-0.8478042;0.039857175;;;;;;;;;;;;
2143.0;2079.4;;;;-0.35120776;0.7523309;0.15555193;;;;;;;;;;;;;;;
2143.0;2079.4;;;;-0.34891132;0.75506604;0.15462114;;;;;;;;;;;;;;;
2143.0;2079.4;;;;-0.34619144;0.75766003;0.15340807;;;;;;;;;;;;;;;
2143.0;2079.4;;;;-0.34349826;0.7597772;0.15106203;;;;;;;;;;;;;;;
2143.0;2079.4;;;;-0.34066013;0.76155865;0.1483307;;;;;;;;;;;;;;;
2143.0;2082.4;;;;;;;;;;63.859985;-23.0224;-124.881744;;;;;;;;;
2143.0;2082.4;;;;;;;0.31269264;-0.8504898;0.03564562;;;;;;;;;;;;
2143.0;2082.4;;;;;;;;;;61.47191;-15.709402;-124.881744;;;;;;;;;
2143.0;2082.4;;;;;;;0.3096408;-0.85421306;0.03784295;;;;;;;;;;;;
2143.0;2083.2;262143;262143;11095;;;;;;;;;;;;;;;;;;
2143.0;2087.3;;;;;;;;;;;;;;;;;-61.273537;37.625507;-123.80215;;1965.3
2143.0;2087.3;;;;;;;;;;;;;;0.77480394;0.15405744;-0.12921537;;;;;1965.3
2143.0;2087.3;;;;;;;;;;;;;;;;;-59.144875;38.37321;-123.832664;;1965.3
2143.0;2087.3;;;;;;;;;;;;;;0.7599109;0.14831996;-0.12152471;;;;;1965.3
2143.0;2087.3;;;;;;;;;;;;;;;;;-58.05765;38.319805;-122.95526;;1975.0
2143.0;2087.3;;;;;;;;;;;;;;0.77730644;0.18439284;-0.11389508;;;;;1975.0
2143.0;2087.3;;;;;;;;;;;;;;;;;-56.55461;35.897396;-120.994446;;1975.0
2143.0;2087.3;;;;;;;;;;;;;;0.78164005;0.17871639;-0.16284677;;;;;1975.0
2143.0;2087.3;;;;;;;;;;;;;;;;;-52.480392;34.176914;-120.68544;;1984.6
2143.0;2087.3;;;;;;;;;;;;;;0.7624744;0.16516617;-0.2042909;;;;;1984.6
2143.0;2087.3;;;;;;;;;;;;;;;;;-51.438946;32.17414;-121.39118;;1984.6
2143.0;2087.3;;;;;;;;;;;;;;0.7672964;0.18610187;-0.22260201;;;;;1984.6
2144.0;2088.0;;;;;;;;;;;;;;;;;-51.751762;30.59862;-120.53667;;1994.1
2144.0;2088.0;;;;;;;;;;;;;;0.7769402;0.20392469;-0.24109623;;;;;1994.1
2144.0;2088.0;;;;;;;;;;;;;;;;;-51.67165;29.08414;-119.10612;;1994.1
2144.0;2088.0;;;;;;;;;;;;;;0.7823115;0.16858424;-0.26868495;;;;;1994.1
2144.0;2088.0;;;;;;;;;;;;;;;;;-49.99695;27.981657;-119.21293;;2003.7
2144.0;2088.0;;;;;;;;;;;;;;0.77047026;0.15845211;-0.26239815;;;;;2003.7
2144.0;2088.0;;;;;;;;;;;;;;;;;-51.446575;25.47151;-120.30396;;2003.7
2144.0;2088.0;;;;;;;;;;;;;;0.78456986;0.20453505;-0.25086215;;;;;2003.7
2144.0;2088.0;;;;;;;;;;;;;;;;;-54.414505;23.23603;-119.251076;;2013.4
2144.0;2088.0;;;;;;;;;;;;;;0.8033082;0.2164983;-0.258858;;;;;2013.4
2144.0;2088.0;;;;;;;;;;;;;;;;;-55.604725;23.880733;-118.350784;;2013.4
2144.0;2088.0;;;;;;;;;;;;;;0.7956175;0.25989562;-0.2334666;;;;;2013.4
2144.0;2088.9;;;;;;;;;;;;;4546;;;;;;;;
2144.0;2088.9;;;;;;;;;;;;;4577;;;;;;;;
2144.0;2088.9;;;;;;;;;;;;;4463;;;;;;;;
2144.0;2088.9;;;;;;;;;;;;;4312;;;;;;;;
2144.0;2088.9;;;;;;;;;;;;;4269;;;;;;;;
2144.0;2089.3;;;;-0.33747485;0.7625314;0.1463585;;;;;;;;;;;;;;;
2144.0;2089.3;;;;-0.3345299;0.7638856;0.14427187;;;;;;;;;;;;;;;
2144.0;2089.3;;;;-0.3315697;0.76459897;0.14226915;;;;;;;;;;;;;;;
2144.0;2089.3;;;;-0.32834628;0.764969;0.13959886;;;;;;;;;;;;;;;
2144.0;2089.3;;;;-0.32499698;0.76594555;0.1365967;;;;;;;;;;;;;;;
2144.0;2091.8;;;;;;;;;;59.46913;-8.41548;-124.881744;;;;;;;;;
2144.0;2091.8;;;;;;;0.30823696;-0.860683;0.035950806;;;;;;;;;;;;
2144.0;2091.8;;;;;;;;;;57.5808;-1.3275552;-124.881744;;;;;;;;;
2144.0;2091.8;;;;;;;0.30378124;-0.86605424;0.034913175;;;;;;;;;;;;
2145.0;2099.4;;;;-0.32268527;0.7663156;0.13352586;;;;;;;;;;;;;;;
2145.0;2099.4;;;;-0.31959537;0.76649106;0.13033296;;;;;;;;;;;;;;;
2145.0;2099.4;;;;-0.3167267;0.7673112;0.12710954;;;;;;;;;;;;;;;
2145.0;2099.4;;;;-0.31435016;0.76799023;0.12333299;;;;;;;;;;;;;;;
2145.0;2099.4;;;;-0.31192783;0.76882565;0.11963655;;;;;;;;;;;;;;;
2145.0;2101.4;;;;;;;;;;55.856503;5.5734425;-124.881744;;;;;;;;;
2145.0;2101.4;;;;;;;0.30085146;-0.8694113;0.030640583;;;;;;;;;;;;
2145.0;2101.4;;;;;;;;;;54.1818;12.119663;-124.881744;;;;;;;;;
2145.0;2101.4;;;;;;;0.29590747;-0.87490463;0.026490066;;;;;;;;;;;;
2145.0;2102.6;;;;;;;;;;;;;;;;;-57.264168;24.452957;-117.80908;;2023.1
2145.0;2102.6;;;;;;;;;;;;;;0.7916501;0.2963347;-0.20374157;;;;;2023.1
2145.0;2102.6;;;;;;;;;;;;;;;;;-54.399246;24.426252;-116.149635;;2023.1
2145.0;2102.6;;;;;;;;;;;;;;0.7735832;0.31311992;-0.19690542;;;;;2023.1
2145.0;2102.6;;;;;;;;;;;;;;;;;-49.562057;23.705252;-114.20789;;2032.7
2145.0;2102.6;;;;;;;;;;;;;;0.7591174;0.35407576;-0.1817072;;;;;2032.7
2145.0;2102.6;;;;;;;;;;;;;;;;;-46.838284;22.919401;-111.59093;;2032.7
2145.0;2102.6;;;;;;;;;;;;;;0.713889;0.32209235;-0.18396558;;;;;2032.7
2145.0;2102.6;;;;;;;;;;;;;;;;;-43.55373;21.748253;-108.2606;;2042.3
2145.0;2102.6;;;;;;;;;;;;;;0.67842644;0.33204138;-0.16711935;;;;;2042.3
2145.0;2102.6;;;;;;;;;;;;;;;;;-42.916656;21.359142;-104.79293;;2042.3
2145.0;2102.6;;;;;;;;;;;;;;0.6490066;0.32801294;-0.14191107;;;;;2042.3
2145.0;2103.0;262143;262143;11102;;;;;;;;;;;;;;;;;;
2190.0;2109.2;;;;-0.30991748;0.7698175;0.11645509;;;;;;;;;;;;;;;
2190.0;2109.2;;;;-0.30762485;0.7710687;0.11244203;;;;;;;;;;;;;;;
2190.0;2109.2;;;;-0.30549243;0.77271664;0.108806625;;;;;;;;;;;;;;;
2190.0;2109.2;;;;-0.30308154;0.7741662;0.105396286;;;;;;;;;;;;;;;
2190.0;2109.2;;;;-0.3007584;0.77653515;0.10050203;;;;;;;;;;;;;;;
2190.0;2110.6;;;;;;;;;;52.51091;18.765068;-124.839775;;;;;;;;;
2190.0;2110.6;;;;;;;0.2862636;-0.8764306;0.025269326;;;;;;;;;;;;
2190.0;2110.6;;;;;;;;;;51.103245;24.948881;-123.93567;;;;;;;;;
2190.0;2110.6;;;;;;;0.2814417;-0.882046;0.024292734;;;;;;;;;;;;
2190.0;2118.8;;;;-0.29823688;0.77851117;0.09560014;;;;;;;;;;;;;;;
2190.0;2118.8;;;;-0.29531863;0.78058636;0.08996964;;;;;;;;;;;;;;;
2190.0;2118.8;;;;-0.2917519;0.7822839;0.08454896;;;;;;;;;;;;;;;
2190.0;2118.8;;;;-0.28767017;0.7843896;0.07924653;;;;;;;;;;;;;;;
2190.0;2118.8;;;;-0.28361896;0.7866403;0.07353593;;;;;;;;;;;;;;;
2190.0;2119.7;;;;;;;;;;49.69176;30.491806;-121.19281;;;;;;;;;
2190.0;2119.7;;;;;;;0.27588734;-0.8901639;0.023987548;;;;;;;;;;;;
2190.0;2119.7;;;;;;;;;;48.421432;34.764397;-117.80908;;;;;;;;;
2190.0;2119.7;;;;;;;0.26416823;-0.90047914;0.018127995;;;;;;;;;;;;
2190.0;2122.5;262143;262143;11095;;;;;;;;;;;;;;;;;;
2190.0;2128.0;;;;;;;;;;;;;4230;;;;;;;;
2190.0;2128.0;;;;;;;;;;;;;4143;;;;;;;;
2190.0;2128.0;;;;;;;;;;;;;4030;;;;;;;;
2190.0;2128.0;;;;;;;;;;;;;3859;;;;;;;;
2190.0;2128.0;;;;;;;;;;;;;3743;;;;;;;;
2194.0;2128.3;;;;-0.27923587;0.7883569;0.067703255;;;;;;;;;;;;;;;
2194.0;2128.3;;;;-0.27565387;0.7904321;0.061748512;;;;;;;;;;;;;;;
2194.0;2128.3;;;;-0.27204135;0.79174817;0.05488587;;;;;;;;;;;;;;;
2194.0;2128.3;;;;-0.2686272;0.79272854;0.047554024;;;;;;;;;;;;;;;
2194.0;2128.3;;;;-0.2640877;0.7929536;0.041378025;;;;;;;;;;;;;;;
2194.0;2128.7;;;;;;;;;;47.402874;37.701805;-114.10489;;;;;;;;;
2194.0;2128.7;;;;;;;0.24719992;-0.9121372;0.009582812;;;;;;;;;;;;
2194.0;2128.7;;;;;;;;;;46.456802;40.650654;-110.1413;;;;;;;;;
2194.0;2128.7;;;;;;;0.23151341;-0.9223914;0.0025025178;;;;;;;;;;;;
2194.0;2138.3;;;;-0.25887683;0.79359066;0.034809116;;;;;;;;;;;;;;;
2194.0;2138.3;;;;-0.25374606;0.79441464;0.028228763;;;;;;;;;;;;;;;
2194.0;2138.3;;;;-0.24773028;0.7955781;0.022041323;;;;;;;;;;;;;;;
2194.0;2138.3;;;;-0.24145892;0.79628384;0.016635897;;;;;;;;;;;;;;;
2194.0;2138.3;;;;-0.23547748;0.7984201;0.012660982;;;;;;;;;;;;;;;
2194.0;2138.4;;;;;;;;;;45.55269;43.378246;-105.88779;;;;;;;;;
2194.0;2138.4;;;;;;;0.21778008;-0.92733544;-0.0072634052;;;;;;;;;;;;
2194.0;2138.4;;;;;;;;;;44.57228;45.525986;-101.52745;;;;;;;;;
2194.0;2138.4;;;;;;;0.20581684;-0.9297769;-0.0145878475;;;;;;;;;;;;
2194.0;2142.2;262143;262143;11105;;;;;;;;;;;;;;;;;;
2196.0;2146.3;;;;;;;;;;;;;;;;;-46.09821;21.378216;-101.69149;;2051.7
2196.0;2146.3;;;;;;;;;;;;;;0.60506;0.3230079;-0.109866634;;;;;2051.7
2196.0;2146.3;;;;;;;;;;;;;;;;;-50.3708;18.879513;-96.93442;;2051.7
2196.0;2146.3;;;;;;;;;;;;;;0.58229315;0.286874;-0.10632649;;;;;2051.7
2196.0;2146.3;;;;;;;;;;;;;;;;;-55.814537;17.300179;-91.98279;;2061.3
2196.0;2146.3;;;;;;;;;;;;;;0.58772546;0.30909148;-0.094058044;;;;;2061.3
2196.0;2146.3;;;;;;;;;;;;;;;;;-61.25065;16.9187;-86.5276;;2061.3
2196.0;2146.3;;;;;;;;;;;;;;0.5390179;0.28431043;-0.08038575;;;;;2061.3
2196.0;2146.3;;;;;;;;;;;;;;;;;-67.17887;14.683218;-80.839714;;2071.0
2196.0;2146.3;;;;;;;;;;;;;;0.52162236;0.2764977;-0.05877865;;;;;2071.0
2196.0;2146.3;;;;;;;;;;;;;;;;;-72.29072;11.2384405;-74.35835;;2071.0
2196.0;2146.3;;;;;;;;;;;;;;0.49641407;0.24842067;-0.06024354;;;;;2071.0
2196.0;2147.9;;;;;;;;;;43.542286;46.92602;-97.022156;;;;;;;;;
2196.0;2147.9;;;;;;;0.19177832;-0.931547;-0.020813623;;;;;;;;;;;;
2196.0;2147.9;;;;;;;;;;42.622913;47.799618;-92.36045;;;;;;;;;
2196.0;2147.9;;;;;;;0.17957091;-0.93057036;-0.025879696;;;;;;;;;;;;
2196.0;2148.3;;;;-0.23119357;0.8006555;0.010398866;;;;;;;;;;;;;;;
2196.0;2148.3;;;;-0.22766498;0.80355465;0.009113313;;;;;;;;;;;;;;;
2196.0;2148.3;;;;-0.2249451;0.80731595;0.008235932;;;;;;;;;;;;;;;
2196.0;2148.3;;;;-0.22568896;0.8123933;0.008411408;;;;;;;;;;;;;;;
2196.0;2148.3;;;;-0.22884753;0.8166505;0.010448457;;;;;;;;;;;;;;;
2196.0;2157.4;;;;;;;;;;41.63106;48.39854;-87.626274;;;;;;;;;
2196.0;2157.4;;;;;;;0.16943876;-0.93295085;-0.028992584;;;;;;;;;;;;
2196.0;2157.4;;;;;;;;;;40.593433;48.322247;-82.77764;;;;;;;;;
2196.0;2157.4;;;;;;;0.16278572;-0.9391156;-0.02948088;;;;;;;;;;;;
2198.0;2158.3;;;;-0.23375323;0.8210298;0.01444626;;;;;;;;;;;;;;;
2198.0;2158.3;;;;-0.24166873;0.8257562;0.019866945;;;;;;;;;;;;;;;
2198.0;2158.3;;;;-0.2502289;0.8305093;0.026668552;;;;;;;;;;;;;;;
2198.0;2158.3;;;;-0.26004794;0.83698285;0.034816746;;;;;;;;;;;;;;;
2198.0;2158.3;;;;-0.27084735;0.8425714;0.0416832;;;;;;;;;;;;;;;
2198.0;2161.2;;;;;;;;;;;;;;;;;-75.6592;8.388776;-68.08298;;2080.7
2198.0;2161.2;;;;;;;;;;;;;;0.47376934;0.19257179;-0.08001953;;;;;2080.7
2198.0;2161.2;;;;;;;;;;;;;;;;;-76.96387;5.5963316;-62.33787;;2080.7
2198.0;2161.2;;;;;;;;;;;;;;0.44404432;0.1980041;-0.08185064;;;;;2080.7
2198.0;2161.2;;;;;;;;;;;;;;;;;-77.31102;1.373333;-56.07013;;2090.3
2198.0;2161.2;;;;;;;;;;;;;;0.40797144;0.19299905;-0.09595019;;;;;2090.3
2198.0;2161.2;;;;;;;;;;;;;;;;;-77.265236;-4.7456284;-48.83343;;2090.3
2198.0;2161.2;;;;;;;;;;;;;;0.39484847;0.19177832;-0.11896115;;;;;2090.3
2198.0;2161.2;;;;;;;;;;;;;;;;;-78.74157;-9.842219;-42.046875;;2099.9
2198.0;2161.2;;;;;;;;;;;;;;0.37482834;0.14453566;-0.16693625;;;;;2099.9
2198.0;2161.2;;;;;;;;;;;;;;;;;-79.62279;-13.832514;-35.46251;;2099.9
2198.0;2161.2;;;;;;;;;;;;;;0.35895872;0.17859432;-0.16254158;;;;;2099.9
2198.0;2162.0;262143;262143;11090;;;;;;;;;;;;;;;;;;
2198.0;2166.8;;;;;;;;;;39.391766;47.57073;-77.90994;;;;;;;;;
2198.0;2166.8;;;;;;;0.15619373;-0.9504685;-0.030945769;;;;;;;;;;;;
2198.0;2166.8;;;;;;;;;;38.26258;46.182133;-72.985016;;;;;;;;;
2198.0;2166.8;;;;;;;0.1495407;-0.96804714;-0.030274361;;;;;;;;;;;;
2242.0;2168.0;;;;;;;;;;;;;3836;;;;;;;;
2242.0;2168.0;;;;;;;;;;;;;4095;;;;;;;;
2242.0;2168.0;;;;;;;;;;;;;4228;;;;;;;;
2242.0;2168.0;;;;;;;;;;;;;3877;;;;;;;;
2242.0;2168.0;;;;;;;;;;;;;2975;;;;;;;;
2242.0;2168.1;;;;-0.28177264;0.8469049;0.05051423;;;;;;;;;;;;;;;
2242.0;2168.1;;;;-0.2923012;0.85297024;0.059722908;;;;;;;;;;;;;;;
2242.0;2168.1;;;;-0.304657;0.85831463;0.06884766;;;;;;;;;;;;;;;
2242.0;2168.1;;;;-0.316227;0.8626977;0.07944871;;;;;;;;;;;;;;;
2242.0;2168.1;;;;-0.3276482;0.86665356;0.08936692;;;;;;;;;;;;;;;
2242.0;2176.0;;;;;;;;;;37.07236;44.324318;-67.812126;;;;;;;;;
2242.0;2176.0;;;;;;;0.1462447;-0.9879452;-0.028199103;;;;;;;;;;;;
2242.0;2176.0;;;;;;;;;;35.905025;41.711174;-62.5515;;;;;;;;;
2242.0;2176.0;;;;;;;0.1389813;-1.0030214;-0.027710807;;;;;;;;;;;;
2242.0;2177.9;;;;-0.33700565;0.8694421;0.101131454;;;;;;;;;;;;;;;
2242.0;2177.9;;;;-0.347168;0.87251675;0.11118318;;;;;;;;;;;;;;;
2242.0;2177.9;;;;-0.3567467;0.8741189;0.12049867;;;;;;;;;;;;;;;
2242.0;2177.9;;;;-0.36510852;0.8739587;0.1304741;;;;;;;;;;;;;;;
2242.0;2177.9;;;;-0.37336734;0.8734437;0.14016344;;;;;;;;;;;;;;;
2242.0;2181.9;262143;262143;11088;;;;;;;;;;;;;;;;;;
2242.0;2185.6;;;;;;;;;;34.67284;38.487656;-57.096317;;;;;;;;;
2242.0;2185.6;;;;;;;0.13324381;-1.0194403;-0.028077029;;;;;;;;;;;;
2242.0;2185.6;;;;;;;;;;33.387253;34.810173;-51.358837;;;;;;;;;
2242.0;2185.6;;;;;;;0.12805566;-1.0332958;-0.026490066;;;;;;;;;;;;
2246.0;2188.0;;;;-0.37967688;0.87111294;0.15191652;;;;;;;;;;;;;;;
2246.0;2188.0;;;;-0.38634497;0.8694726;0.16428377;;;;;;;;;;;;;;;
2246.0;2188.0;;;;-0.39074332;0.865944;0.17581941;;;;;;;;;;;;;;;
2246.0;2188.0;;;;-0.39423376;0.8635179;0.18751147;;;;;;;;;;;;;;;
2246.0;2188.0;;;;-0.39638144;0.86021435;0.19989398;;;;;;;;;;;;;;;
2246.0;2195.3;;;;;;;;;;31.937622;30.793177;-45.51454;;;;;;;;;
2246.0;2195.3;;;;;;;0.1257973;-1.0423902;-0.025635548;;;;;;;;;;;;
2246.0;2195.3;;;;;;;;;;30.434584;26.074251;-39.63973;;;;;;;;;
2246.0;2195.3;;;;;;;0.12323374;-1.0475783;-0.024536882;;;;;;;;;;;;
2246.0;2198.1;;;;-0.39651877;0.8581048;0.21195987;;;;;;;;;;;;;;;
2246.0;2198.1;;;;-0.39707953;0.8569032;0.22507098;;;;;;;;;;;;;;;
2246.0;2198.1;;;;-0.39746863;0.85658276;0.2367554;;;;;;;;;;;;;;;
2246.0;2198.1;;;;-0.39710623;0.857319;0.24671558;;;;;;;;;;;;;;;
2246.0;2198.1;;;;-0.39571768;0.861168;0.25579455;;;;;;;;;;;;;;;
2246.0;2202.2;262143;262143;11085;;;;;;;;;;;;;;;;;;
2246.0;2204.9;;;;;;;;;;28.942991;21.07303;-33.761105;;;;;;;;;
2246.0;2204.9;;;;;;;0.11767937;-1.0498368;-0.02417066;;;;;;;;;;;;
2246.0;2204.9;;;;;;;;;;27.15003;15.995514;-27.737509;;;;;;;;;
2246.0;2204.9;;;;;;;0.11609241;-1.0498368;-0.02496414;;;;;;;;;;;;
2252.0;2206.2;;;;;;;;;;;;;;;;;-83.03705;-19.489883;-29.457993;;2109.4
2252.0;2206.2;;;;;;;;;;;;;;0.34894863;0.17975402;-0.18127994;;;;;2109.4
2252.0;2206.2;;;;;;;;;;;;;;;;;-84.87579;-24.124882;-22.045809;;2109.4
2252.0;2206.2;;;;;;;;;;;;;;0.32538834;0.15601063;-0.20752586;;;;;2109.4
2252.0;2206.2;;;;;;;;;;;;;;;;;-85.25727;-27.462843;-16.930143;;2119.0
2252.0;2206.2;;;;;;;;;;;;;;0.31183812;0.18555254;-0.22772911;;;;;2119.0
2252.0;2206.2;;;;;;;;;;;;;;;;;-83.32316;-30.774101;-11.810663;;2119.0
2252.0;2206.2;;;;;;;;;;;;;;0.29126865;0.18933684;-0.22443312;;;;;2119.0
2252.0;2206.2;;;;;;;;;;;;;;;;;-80.675674;-36.671803;-5.371258;;2128.6
2252.0;2206.2;;;;;;;;;;;;;;0.2827235;0.17249061;-0.25501266;;;;;2128.6
2252.0;2206.2;;;;;;;;;;;;;;;;;-76.64724;-40.8681;-0.39674062;;2128.6
2252.0;2206.2;;;;;;;;;;;;;;0.27228615;0.17065951;-0.2642903;;;;;2128.6
2252.0;2208.0;;;;;;;;;;;;;1998;;;;;;;;
2252.0;2208.0;;;;;;;;;;;;;1508;;;;;;;;
2252.0;2208.0;;;;;;;;;;;;;1510;;;;;;;;
2252.0;2208.0;;;;;;;;;;;;;1703;;;;;;;;
2252.0;2208.0;;;;;;;;;;;;;2064;;;;;;;;
2252.0;2208.1;;;;-0.3928414;0.8662416;0.26363757;;;;;;;;;;;;;;;
2252.0;2208.1;;;;-0.38911062;0.8736993;0.27035144;;;;;;;;;;;;;;;
2252.0;2208.1;;;;-0.3822289;0.88261807;0.27780917;;;;;;;;;;;;;;;
2252.0;2208.1;;;;-0.3760224;0.892521;0.2818947;;;;;;;;;;;;;;;
2252.0;2208.1;;;;-0.37005618;0.903885;0.2854996;;;;;;;;;;;;;;;
2252.0;2214.4;;;;;;;;;;25.28077;10.792109;-21.671957;;;;;;;;;
2252.0;2214.4;;;;;;;0.116763815;-1.0481887;-0.01843318;;;;;;;;;;;;
2252.0;2214.4;;;;;;;;;;23.3314;5.565813;-15.659811;;;;;;;;;
2252.0;2214.4;;;;;;;0.12213507;-1.0515457;-0.01574755;;;;;;;;;;;;
2254.0;2218.2;;;;-0.36605075;0.9156724;0.28752902;;;;;;;;;;;;;;;
2254.0;2218.2;;;;-0.36223224;0.9279367;0.2895508;;;;;;;;;;;;;;;
2254.0;2218.2;;;;-0.3596497;0.9405252;0.2890015;;;;;;;;;;;;;;;
2254.0;2218.2;;;;-0.3525696;0.95430386;0.28997043;;;;;;;;;;;;;;;
2254.0;2218.2;;;;-0.3467789;0.9688417;0.28707126;;;;;;;;;;;;;;;
2254.0;2221.6;;;;;;;;;;;;;;;;;-72.935425;-44.3968;4.8791466;;2138.3
2254.0;2221.6;;;;;;;;;;;;;;0.24573503;0.14935759;-0.22492142;;;;;2138.3
2254.0;2221.6;;;;;;;;;;;;;;;;;-67.54128;-50.019836;9.220405;;2138.3
2254.0;2221.6;;;;;;;;;;;;;;0.2120426;0.13000885;-0.19495223;;;;;2138.3
2254.0;2221.6;;;;;;;;;;;;;;;;;-61.151463;-54.597614;13.8363285;;2147.9
2254.0;2221.6;;;;;;;;;;;;;;0.20111698;0.14282663;-0.15594958;;;;;2147.9
2254.0;2221.6;;;;;;;;;;;;;;;;;-53.2815;-57.550278;16.956846;;2147.9
2254.0;2221.6;;;;;;;;;;;;;;0.17694631;0.13000885;-0.12903225;;;;;2147.9
2254.0;2221.6;;;;;;;;;;;;;;;;;-43.904694;-61.048462;19.444107;;2157.5
2254.0;2221.6;;;;;;;;;;;;;;0.13605152;0.14484085;-0.06579791;;;;;2157.5
2254.0;2221.6;;;;;;;;;;;;;;;;;-33.970913;-66.4655;22.350992;;2157.5
2254.0;2221.6;;;;;;;;;;;;;;0.18182927;0.23151341;-0.06769005;;;;;2157.5
2254.0;2222.1;262143;262143;11089;;;;;;;;;;;;;;;;;;
2254.0;2223.8;;;;;;;;;;21.126438;0.4196295;-9.762108;;;;;;;;;
2254.0;2223.8;;;;;;;0.126957;-1.0580157;-0.010986663;;;;;;;;;;;;
2254.0;2223.8;;;;;;;;;;18.795588;-4.6006656;-3.7766654;;;;;;;;;
2254.0;2223.8;;;;;;;0.13324381;-1.0658284;-0.003906369;;;;;;;;;;;;
2303.0;2228.0;;;;-0.34103015;0.9824716;0.2821503;;;;;;;;;;;;;;;
2303.0;2228.0;;;;-0.33406833;0.9953157;0.27528766;;;;;;;;;;;;;;;
2303.0;2228.0;;;;-0.32818988;1.0073358;0.2665253;;;;;;;;;;;;;;;
2303.0;2228.0;;;;-0.32371143;1.0183221;0.25674823;;;;;;;;;;;;;;;
2303.0;2228.0;;;;-0.32018283;1.028412;0.24701312;;;;;;;;;;;;;;;
2303.0;2233.2;;;;;;;;;;16.48381;-9.472182;2.3651845;;;;;;;;;
2303.0;2233.2;;;;;;;0.14416943;-1.0752281;0.0038453322;;;;;;;;;;;;
2303.0;2233.2;;;;;;;;;;14.13007;-14.110995;8.514664;;;;;;;;;
2303.0;2233.2;;;;;;;0.15326396;-1.0842617;0.009643849;;;;;;;;;;;;
2303.0;2237.9;;;;-0.3171883;1.0379487;0.236599;;;;;;;;;;;;;;;
2303.0;2237.9;;;;-0.31643298;1.047001;0.22604373;;;;;;;;;;;;;;;
2303.0;2237.9;;;;-0.3178673;1.0535966;0.21483234;;;;;;;;;;;;;;;
2303.0;2237.9;;;;-0.3207207;1.0588685;0.2039757;;;;;;;;;;;;;;;
2303.0;2237.9;;;;-0.32527927;1.0633699;0.193306;;;;;;;;;;;;;;;
2303.0;2242.0;262143;262143;11094;;;;;;;;;;;;;;;;;;
2303.0;2242.7;;;;;;;;;;11.711478;-18.31492;14.713737;;;;;;;;;
2303.0;2242.7;;;;;;;0.16559343;-1.0907925;0.016052736;;;;;;;;;;;;
2303.0;2242.7;;;;;;;;;;9.285256;-21.83981;20.973846;;;;;;;;;
2303.0;2242.7;;;;;;;0.18018128;-1.0967742;0.022705771;;;;;;;;;;;;
2304.0;2248.0;;;;-0.3302956;1.066887;0.18348695;;;;;;;;;;;;;;;
2304.0;2248.0;;;;-0.33573154;1.0697328;0.17336275;;;;;;;;;;;;;;;
2304.0;2248.0;;;;-0.34085467;1.0729104;0.1626587;;;;;;;;;;;;;;;
2304.0;2248.0;;;;-0.3476601;1.075329;0.15370943;;;;;;;;;;;;;;;
2304.0;2248.0;;;;-0.35477832;1.0780908;0.14663698;;;;;;;;;;;;;;;
2304.0;2248.0;;;;;;;;;;;;;2675;;;;;;;;
2304.0;2248.0;;;;;;;;;;;;;3295;;;;;;;;
2304.0;2248.0;;;;;;;;;;;;;3558;;;;;;;;
2304.0;2248.0;;;;;;;;;;;;;3456;;;;;;;;
2304.0;2248.0;;;;;;;;;;;;;3300;;;;;;;;
2304.0;2252.3;;;;;;;;;;6.733146;-24.655142;27.180548;;;;;;;;;
2304.0;2252.3;;;;;;;0.19458602;-1.1042818;0.028077029;;;;;;;;;;;;
2304.0;2252.3;;;;;;;;;;4.016999;-26.749474;33.242287;;;;;;;;;
2304.0;2252.3;;;;;;;0.20886868;-1.1109958;0.033692434;;;;;;;;;;;;
2304.0;2258.1;;;;-0.36296466;1.0814325;0.14170457;;;;;;;;;;;;;;;
2304.0;2258.1;;;;-0.37495044;1.0834619;0.13720705;;;;;;;;;;;;;;;
2304.0;2258.1;;;;-0.38769156;1.0836602;0.13405229;;;;;;;;;;;;;;;
2304.0;2258.1;;;;-0.39550787;1.0883981;0.13726427;;;;;;;;;;;;;;;
2304.0;2258.1;;;;-0.4089852;1.0938951;0.13767244;;;;;;;;;;;;;;;
2304.0;2262.0;;;;;;;;;;1.2703329;-28.511917;39.254433;;;;;;;;;
2304.0;2262.0;;;;;;;0.22016053;-1.1182592;0.03790399;;;;;;;;;;;;
2304.0;2262.0;;;;;;;;;;-1.5106663;-29.68688;45.21317;;;;;;;;;
2304.0;2262.0;;;;;;;0.23071994;-1.1266212;0.04297006;;;;;;;;;;;;
2304.0;2262.3;262143;262143;11086;;;;;;;;;;;;;;;;;;
2306.0;2266.3;;;;;;;;;;;;;;;;;-22.74392;-69.799644;26.08188;;2167.1
2306.0;2266.3;;;;;;;;;;;;;;0.17102572;0.2400586;-0.06769005;;;;;2167.1
2306.0;2266.3;;;;;;;;;;;;;;;;;-13.4167;-71.56209;30.133213;;2167.1
2306.0;2266.3;;;;;;;;;;;;;;0.16138189;0.29609057;-0.019714957;;;;;2167.1
2306.0;2266.3;;;;;;;;;;;;;;;;;-5.4857025;-75.4532;34.867397;;2176.8
2306.0;2266.3;;;;;;;;;;;;;;0.17883846;0.3521836;-0.0048829615;;;;;2176.8
2306.0;2266.3;;;;;;;;;;;;;;;;;2.8725548;-80.01953;40.269173;;2176.8
2306.0;2266.3;;;;;;;;;;;;;;0.22186956;0.41572315;-0.021607105;;;;;2176.8
2306.0;2266.3;;;;;;;;;;;;;;;;;11.707664;-81.667534;47.08243;;2186.5
2306.0;2266.3;;;;;;;;;;;;;;0.27527696;0.4606464;-0.015259255;;;;;2186.5
2306.0;2266.3;;;;;;;;;;;;;;;;;22.267067;-78.75301;53.533283;;2186.5
2306.0;2266.3;;;;;;;;;;;;;;0.25482956;0.4878689;0.013611255;;;;;2186.5
2306.0;2268.1;;;;-0.42322165;1.0966836;0.13740923;;;;;;;;;;;;;;;
2306.0;2268.1;;;;-0.43664175;1.0981218;0.13978578;;;;;;;;;;;;;;;
2306.0;2268.1;;;;-0.44904333;1.0982744;0.1434517;;;;;;;;;;;;;;;
2306.0;2268.1;;;;-0.460949;1.098858;0.14732744;;;;;;;;;;;;;;;
2306.0;2268.1;;;;-0.47336966;1.0989076;0.1525879;;;;;;;;;;;;;;;
2306.0;2271.5;;;;;;;;;;-4.2611465;-30.079805;51.202427;;;;;;;;;
2306.0;2271.5;;;;;;;0.24036378;-1.1357158;0.048036136;;;;;;;;;;;;
