patientId;holterMac;flexMac;;;;;;;;;;;;;;;;;;;;
stairsdown;CA:F3:0B:1E:33:78;D3:4A:5C:52:80:78;;;;;;;;;;;;;;;;;;;;
receivedTimeStamp;timeStamp;red;ir;green;adxl_accX;adxl_accY;adxl_accZ;lsm_accelX;lsm_accelY;lsm_accelZ;lsm_gyroX;lsm_gyroY;lsm_gyroZ;ecg;flex_lsm_accelX;flex_lsm_accelY;flex_lsm_accelZ;flex_lsm_gyroX;flex_lsm_gyroY;flex_lsm_gyroZ;flex_cmd;flexTimeStamp
303.0;218.7;;;;;;;;;;;;;;;;;;;;17;0.1
303.0;218.7;;;;;;;;;;;;;;;;;13.935514;1.3466293;1.2665181;;127.6
303.0;218.7;;;;;;;;;;;;;;0.6781823;0.6668294;-0.3850215;;;;;127.6
303.0;218.7;;;;;;;;;;;;;;;;;-4.50148;-17.30781;-7.0955534;;127.6
303.0;218.7;;;;;;;;;;;;;;0.64424574;0.74153876;-0.41126743;;;;;127.6
303.0;218.7;;;;;;;;;;;;;;;;;-60.708942;-84.547714;-61.803795;;137.1
303.0;218.7;;;;;;;;;;;;;;0.64766383;0.7569201;-0.4580218;;;;;137.1
303.0;218.7;;;;;;;;;;;;;;;;;-121.517075;-124.988556;-120.23529;;137.1
303.0;218.7;;;;;;;;;;;;;;0.70723593;0.79280984;-0.46070743;;;;;137.1
366.0;219.6;;;;;;;;;;;;;;;;;-41.9248;-124.86266;-79.596085;;146.8
366.0;219.6;;;;;;;;;;;;;;0.74037904;0.766686;-0.4257332;;;;;146.8
366.0;219.6;;;;;;;;;;;;;;;;;45.358135;-124.790184;-35.103916;;146.8
366.0;219.6;;;;;;;;;;;;;;0.7627186;0.7075411;-0.36542863;;;;;146.8
366.0;219.6;;;;;;;;;;;;;;;;;42.947174;-94.428085;-29.354992;;156.5
366.0;219.6;;;;;;;;;;;;;;0.7759636;0.71321756;-0.2614826;;;;;156.5
366.0;219.6;;;;;;;;;;;;;;;;;33.09351;3.4905546;-8.220923;;156.5
366.0;219.6;;;;;;;;;;;;;;0.8033692;0.68532366;-0.1817072;;;;;156.5
366.0;219.6;;;;;;;;;;;;;;;;;30.358286;19.425032;-10.628071;;166.1
366.0;219.6;;;;;;;;;;;;;;0.8034913;0.737022;-0.128605;;;;;166.1
366.0;219.6;;;;;;;;;;;;;;;;;31.891842;28.271584;-15.415662;;166.1
366.0;219.6;;;;;;;;;;;;;;0.8135014;0.7167577;-0.039246805;;;;;166.1
366.0;279.1;;;;;;;;;;;;;;;;;34.68047;29.953917;-18.887142;;175.8
366.0;279.1;;;;;;;;;;;;;;0.93331707;0.741966;-0.116641745;;;;;175.8
366.0;279.1;;;;;;;;;;;;;;;;;42.14606;26.593067;-22.297585;;175.8
366.0;279.1;;;;;;;;;;;;;;1.1731315;0.8239387;-0.25946838;;;;;175.8
366.0;279.1;;;;;;;;;;;;;;;;;61.090424;24.95651;-27.871029;;185.4
366.0;279.1;;;;;;;;;;;;;;1.2706686;0.88106936;-0.32239753;;;;;185.4
366.0;279.1;;;;;;;;;;;;;;;;;95.08804;24.094364;-35.779137;;185.4
366.0;279.1;;;;;;;;;;;;;;1.3436689;0.9494308;-0.2821131;;;;;185.4
366.0;279.1;;;;;;;;;;;;;;;;;121.4484;20.638142;-44.24421;;195.1
366.0;279.1;;;;;;;;;;;;;;1.6006958;0.9076815;-0.2764977;;;;;195.1
366.0;279.1;;;;;;;;;;;;;;;;;124.988556;17.101809;-51.56102;;195.1
366.0;279.1;;;;;;;;;;;;;;1.6627705;0.7118747;-0.6388745;;;;;195.1
429.0;279.9;;;;;;;;;;;;;;;;;124.90082;8.312479;-60.060425;;204.6
429.0;279.9;;;;;;;;;;;;;;0.89022493;0.7860347;-1.2508316;;;;;204.6
429.0;279.9;;;;;;;;;;;;;;;;;116.042816;-30.461287;-59.118168;;204.6
429.0;279.9;;;;;;;;;;;;;;0.046205025;0.58308667;-1.7694021;;;;;204.6
429.0;279.9;;;;;;;;;;;;;;;;;82.31986;-103.60271;-43.084507;;214.3
429.0;279.9;;;;;;;;;;;;;;0.6493728;0.36249885;-1.526719;;;;;214.3
429.0;279.9;;;;;;;;;;;;;;;;;48.50154;-123.97;-25.379955;;214.3
429.0;279.9;;;;;;;;;;;;;;1.8349559;0.08465835;-0.7660146;;;;;214.3
429.0;279.9;;;;;;;;;;;;;;;;;-30.831324;-96.24012;12.138738;;224.0
429.0;279.9;;;;;;;;;;;;;;1.9970702;-0.40961942;0.16815698;;;;;224.0
429.0;279.9;;;;;;;;;;;;;;;;;-118.02652;-60.201572;43.22184;;224.0
429.0;279.9;;;;;;;;;;;;;;1.9970702;-1.256386;0.033143103;;;;;224.0
429.0;346.9;;;;;;;;;;;;;;;;;-116.50441;-16.785181;33.547474;;233.6
429.0;346.9;;;;;;;;;;;;;;1.9483627;-1.4191107;0.44856104;;;;;233.6
429.0;346.9;;;;;;;;;;;;;;;;;-27.367474;26.078066;10.204626;;233.6
429.0;346.9;;;;;;;;;;;;;;1.1677603;-0.94497514;0.1760918;;;;;233.6
429.0;346.9;;;;;;;;;;;;;;;;;54.414505;15.053254;0.6408887;;243.2
429.0;346.9;;;;;;;;;;;;;;0.046998505;-0.19177832;-1.4869229;;;;;243.2
429.0;346.9;;;;;;;;;;;;;;;;;39.48332;-43.446915;13.161107;;243.2
429.0;346.9;;;;;;;;;;;;;;-0.3234962;-0.01556444;-1.9979857;;;;;243.2
429.0;346.9;;;;;;;;;;;;;;;;;49.756615;-89.48027;18.028809;;252.9
429.0;346.9;;;;;;;;;;;;;;0.22864467;0.26343578;-1.6963408;;;;;252.9
429.0;346.9;;;;;;;;;;;;;;;;;89.8503;-75.96057;10.040589;;252.9
429.0;346.9;;;;;;;;;;;;;;0.52290416;0.560564;-0.73409224;;;;;252.9
490.0;347.7;;;;;;;;;;;;;;;;;111.57567;-61.670277;8.056887;;262.4
490.0;347.7;;;;;;;;;;;;;;0.87441635;0.61922055;-0.2755211;;;;;262.4
490.0;347.7;;;;;;;;;;;;;;;;;95.04227;-58.812984;12.543107;;262.4
490.0;347.7;;;;;;;;;;;;;;1.5077364;0.6789148;-0.6114078;;;;;262.4
490.0;347.7;;;;;;;;;;;;;;;;;56.02054;-67.79305;13.42433;;272.1
490.0;347.7;;;;;;;;;;;;;;1.9609363;0.97305214;-1.3678396;;;;;272.1
490.0;347.7;;;;;;;;;;;;;;;;;10.784478;-68.178345;11.211737;;272.1
490.0;347.7;;;;;;;;;;;;;;1.9971312;1.2851955;-1.7755669;;;;;272.1
490.0;347.7;;;;;;;;;;;;;;;;;-10.277108;-32.155064;5.527665;;281.7
490.0;347.7;;;;;;;;;;;;;;1.990112;1.5514389;-0.9377117;;;;;281.7
490.0;347.7;;;;;;;;;;;;;;;;;-21.30955;-9.693442;-1.6365551;;281.7
490.0;347.7;;;;;;;;;;;;;;1.7854549;1.7355266;-0.38343456;;;;;281.7
490.0;399.9;;;;;;;;;;;;;;;;;-38.67077;-7.637257;-1.5602587;;291.4
490.0;399.9;;;;;;;;;;;;;;1.8144474;1.6752831;-0.5106967;;;;;291.4
490.0;399.9;;;;;;;;;;;;;;;;;-69.15494;-2.803888;-0.08011109;;291.4
490.0;399.9;;;;;;;;;;;;;;1.5092013;1.4644002;-0.7169408;;;;;291.4
490.0;399.9;;;;;;;;;;;;;;;;;-105.83056;-3.8033693;7.019257;;301.1
490.0;399.9;;;;;;;;;;;;;;1.4251534;0.97238076;-0.9569384;;;;;301.1
490.0;399.9;;;;;;;;;;;;;;;;;-124.03104;-3.3951843;14.481033;;301.1
490.0;399.9;;;;;;;;;;;;;;1.5038911;0.3751335;-1.0204169;;;;;301.1
490.0;399.9;;;;;;;;;;;;;;;;;-123.916595;8.846553;17.3574;;310.7
490.0;399.9;;;;;;;;;;;;;;1.4532304;-0.15039521;-0.7674795;;;;;310.7
490.0;399.9;;;;;;;;;;;;;;;;;-111.71682;16.159552;17.792292;;310.7
490.0;399.9;;;;;;;;;;;;;;1.368633;-0.46369824;-0.66927093;;;;;310.7
545.0;400.7;;;;;;;;;;;;;;;;;-88.83175;15.037995;18.86044;;320.4
545.0;400.7;;;;;;;;;;;;;;1.2855006;-0.65865046;-0.76277965;;;;;320.4
545.0;400.7;;;;;;;;;;;;;;;;;-62.08228;9.632405;18.63155;;320.4
545.0;400.7;;;;;;;;;;;;;;1.1958373;-0.78853726;-0.8247932;;;;;320.4
545.0;400.7;;;;;;;;;;;;;;;;;-37.945953;2.277444;17.769402;;330.1
545.0;400.7;;;;;;;;;;;;;;1.1399274;-0.8789941;-0.81728566;;;;;330.1
545.0;400.7;;;;;;;;;;;;;;;;;-19.970549;-4.119999;18.284403;;330.1
545.0;400.7;;;;;;;;;;;;;;1.081515;-0.9150059;-0.78969693;;;;;330.1
545.0;400.7;;;;;;;;;;;;;;;;;-7.2519608;-7.232887;21.217995;;339.7
545.0;400.7;;;;;;;;;;;;;;1.0342113;-0.91909546;-0.7480697;;;;;339.7
545.0;400.7;;;;;;;;;;;;;;;;;2.9755547;-8.053072;24.197363;;339.7
545.0;400.7;;;;;;;;;;;;;;0.98525953;-0.8669088;-0.71352273;;;;;339.7
545.0;460.5;;;;;;;;;;;;;;;;;14.255959;-6.6034427;25.448622;;349.4
545.0;460.5;;;;;;;;;;;;;;0.91305274;-0.7895138;-0.65108186;;;;;349.4
545.0;460.5;;;;;;;;;;;;;;;;;30.316324;-6.103702;24.220253;;349.4
545.0;460.5;;;;;;;;;;;;;;0.80306405;-0.62843716;-0.6112247;;;;;349.4
545.0;460.5;;;;;;;;;;;;;;;;;47.624134;-8.854182;21.622364;;359.0
545.0;460.5;;;;;;;;;;;;;;0.71480453;-0.41425824;-0.6416822;;;;;359.0
545.0;460.5;;;;;;;;;;;;;;;;;59.179207;-11.574144;18.711662;;359.0
545.0;460.5;;;;;;;;;;;;;;0.68477434;-0.22540972;-0.67720574;;;;;359.0
545.0;460.5;;;;;;;;;;;;;;;;;65.87802;-10.3267;15.793329;;368.5
545.0;460.5;;;;;;;;;;;;;;0.67989135;-0.066652425;-0.66188544;;;;;368.5
545.0;460.5;;;;;;;;;;;;;;;;;67.48024;-7.3397017;13.451034;;368.5
545.0;460.5;;;;;;;;;;;;;;0.6903897;0.050355542;-0.6491897;;;;;368.5
725.0;461.3;;;;;;;;;;;;;;;;;66.88132;-3.540147;11.524552;;378.2
725.0;461.3;;;;;;;;;;;;;;0.75173193;0.12396619;-0.6506546;;;;;378.2
725.0;461.3;;;;;;;;;;;;;;;;;65.153206;1.2741477;10.12833;;378.2
725.0;461.3;;;;;;;;;;;;;;0.7948851;0.18286692;-0.6421705;;;;;378.2
725.0;461.3;;;;;;;;;;;;;;;;;62.681206;6.076998;9.590442;;387.9
725.0;461.3;;;;;;;;;;;;;;0.8138676;0.2454909;-0.61940366;;;;;387.9
725.0;461.3;;;;;;;;;;;;;;;;;58.896908;10.292367;10.0138855;;387.9
725.0;461.3;;;;;;;;;;;;;;0.8361461;0.3243507;-0.5924863;;;;;387.9
725.0;461.3;;;;;;;;;;;;;;;;;52.808468;14.366589;11.825923;;397.6
725.0;461.3;;;;;;;;;;;;;;0.8222907;0.3552965;-0.5477462;;;;;397.6
725.0;461.3;;;;;;;;;;;;;;;;;46.02191;17.38792;14.801477;;397.6
725.0;461.3;;;;;;;;;;;;;;0.7697989;0.34308907;-0.48554948;;;;;397.6
725.0;648.8;;;;;;;;;;;;;;;;;39.605392;17.78466;18.402662;;407.3
725.0;648.8;;;;;;;;;;;;;;0.7284158;0.30524614;-0.45454267;;;;;407.3
725.0;648.8;;;;;;;;;;;;;;;;;34.15021;16.197699;22.00003;;407.3
725.0;648.8;;;;;;;;;;;;;;0.6986908;0.25598925;-0.44636372;;;;;407.3
725.0;648.8;;;;;;;;;;;;;;;;;29.824215;13.790551;25.288399;;416.9
725.0;648.8;;;;;;;;;;;;;;0.6758019;0.21955016;-0.45051423;;;;;416.9
725.0;648.8;;;;;;;;;;;;;;;;;26.142918;10.65096;28.199102;;416.9
725.0;648.8;;;;;;;;;;;;;;0.67397076;0.19190039;-0.46339306;;;;;416.9
725.0;648.8;;;;;;;;;;;;;;;;;23.182623;7.7707753;30.564287;;426.6
725.0;648.8;;;;;;;;;;;;;;0.6761681;0.17181921;-0.48036134;;;;;426.6
725.0;648.8;;;;;;;;;;;;;;;;;20.393993;5.6993318;32.471695;;426.6
725.0;648.8;;;;;;;;;;;;;;0.6789148;0.18274483;-0.48780787;;;;;426.6
726.0;649.6;;;;;;;;;;;;;;;;;17.92581;4.566332;34.066284;;436.3
726.0;649.6;;;;;;;;;;;;;;0.6690268;0.20044558;-0.4885403;;;;;436.3
726.0;649.6;;;;;;;;;;;;;;;;;16.315958;3.5515916;34.9971;;436.3
726.0;649.6;;;;;;;;;;;;;;0.66566974;0.21143223;-0.4868923;;;;;436.3
726.0;649.6;;;;;;;;;;;;;;;;;15.804773;2.643666;35.374767;;445.9
726.0;649.6;;;;;;;;;;;;;;0.667745;0.23206274;-0.486404;;;;;445.9
726.0;649.6;;;;;;;;;;;;;;;;;15.55681;2.1477401;35.428173;;445.9
726.0;649.6;;;;;;;;;;;;;;0.66420484;0.26947844;-0.47761467;;;;;445.9
726.0;649.6;;;;;;;;;;;;;;;;;15.263069;1.7891476;35.229805;;455.5
726.0;649.6;;;;;;;;;;;;;;0.6608478;0.30298775;-0.46980193;;;;;455.5
726.0;649.6;;;;;;;;;;;;;;;;;14.927366;1.4419996;34.6881;;455.5
726.0;649.6;;;;;;;;;;;;;;0.65181434;0.32636493;-0.46626177;;;;;455.5
726.0;650.4;;;;;;;;;;;;;;;;;14.400922;1.1406293;33.745842;;465.2
726.0;650.4;;;;;;;;;;;;;;0.6458327;0.35834834;-0.45924252;;;;;465.2
726.0;650.4;;;;;;;;;;;;;;;;;13.42433;0.80111086;32.75399;;465.2
726.0;650.4;;;;;;;;;;;;;;0.63814205;0.38569292;-0.45240638;;;;;465.2
726.0;650.4;;;;;;;;;;;;;;;;;12.119663;0.9994812;31.598103;;474.9
726.0;650.4;;;;;;;;;;;;;;0.6275216;0.41706595;-0.4459975;;;;;474.9
726.0;650.4;;;;;;;;;;;;;;;;;10.494553;1.411481;30.51088;;474.9
726.0;650.4;;;;;;;;;;;;;;0.6089053;0.44013795;-0.43513292;;;;;474.9
726.0;650.4;;;;;;;;;;;;;;;;;8.3925905;2.113407;29.39314;;484.6
726.0;650.4;;;;;;;;;;;;;;0.58174384;0.46882534;-0.41773736;;;;;484.6
726.0;650.4;;;;;;;;;;;;;;;;;5.7985168;3.276925;28.256325;;484.6
726.0;650.4;;;;;;;;;;;;;;0.55275124;0.4961089;-0.40009767;;;;;484.6
787.0;651.7;;;;;;;;;;;;;;;;;3.1281471;4.222999;26.909697;;494.3
787.0;651.7;;;;;;;;;;;;;;0.52192754;0.51136816;-0.37733084;;;;;494.3
787.0;651.7;;;;;;;;;;;;;;;;;0.7248146;4.627369;25.254066;;494.3
787.0;651.7;;;;;;;;;;;;;;0.48591572;0.53151035;-0.3406476;;;;;494.3
787.0;651.7;;;;;;;;;;;;;;;;;-1.5945921;4.6540728;23.289438;;503.9
787.0;651.7;;;;;;;;;;;;;;0.4557024;0.5418866;-0.2814417;;;;;503.9
787.0;651.7;;;;;;;;;;;;;;;;;-4.5319986;4.6807766;21.256142;;503.9
787.0;651.7;;;;;;;;;;;;;;0.4413587;0.53529465;-0.21814631;;;;;503.9
787.0;651.7;;;;;;;;;;;;;;;;;-8.053072;5.115665;19.207588;;513.6
787.0;651.7;;;;;;;;;;;;;;0.41529587;0.50807214;-0.18079165;;;;;513.6
787.0;651.7;;;;;;;;;;;;;;;;;-11.4978485;5.4208503;17.113253;;513.6
787.0;651.7;;;;;;;;;;;;;;0.36530656;0.4730369;-0.17865536;;;;;513.6
787.0;652.5;;;;;;;;;;;;;;;;;-14.191107;4.448073;14.969329;;523.2
787.0;652.5;;;;;;;;;;;;;;0.31562242;0.44099247;-0.20068972;;;;;523.2
787.0;652.5;;;;;;;;;;;;;;;;;-16.4037;2.338481;12.913144;;523.2
787.0;652.5;;;;;;;;;;;;;;0.2887051;0.40028077;-0.20667134;;;;;523.2
787.0;652.5;;;;;;;;;;;;;;;;;-18.337809;0.0076296274;11.265144;;532.9
787.0;652.5;;;;;;;;;;;;;;0.2745445;0.36231574;-0.2097232;;;;;532.9
787.0;652.5;;;;;;;;;;;;;;;;;-20.100252;-2.5139623;9.693442;;532.9
787.0;652.5;;;;;;;;;;;;;;0.27027193;0.32190925;-0.21497238;;;;;532.9
787.0;652.5;;;;;;;;;;;;;;;;;-20.596178;-4.8028507;8.320109;;542.5
787.0;652.5;;;;;;;;;;;;;;0.2796716;0.29108554;-0.24628437;;;;;542.5
787.0;652.5;;;;;;;;;;;;;;;;;-19.604326;-7.084109;7.0688496;;542.5
787.0;652.5;;;;;;;;;;;;;;0.28601947;0.2806482;-0.29468673;;;;;542.5
789.0;701.5;;;;;;;;;;;;;;;;;-18.32255;-10.040589;6.065554;;552.2
789.0;701.5;;;;;;;;;;;;;;0.30103457;0.296762;-0.3715934;;;;;552.2
789.0;701.5;;;;;;;;;;;;;;;;;-18.417921;-12.337108;5.603961;;552.2
789.0;701.5;;;;;;;;;;;;;;0.30396435;0.32544938;-0.43287453;;;;;552.2
789.0;701.5;;;;;;;;;;;;;;;;;-20.020142;-14.461959;5.6192203;;561.8
789.0;701.5;;;;;;;;;;;;;;0.303354;0.35346538;-0.4738914;;;;;561.8
789.0;701.5;;;;;;;;;;;;;;;;;-21.755882;-16.518145;5.714591;;561.8
789.0;701.5;;;;;;;;;;;;;;0.30146185;0.38587603;-0.47859126;;;;;561.8
789.0;701.5;;;;;;;;;;;;;;;;;-22.537918;-18.398846;5.527665;;571.5
789.0;701.5;;;;;;;;;;;;;;0.30921355;0.42097232;-0.46162298;;;;;571.5
789.0;701.5;;;;;;;;;;;;;;;;;-23.262733;-21.446882;5.546739;;571.5
789.0;701.5;;;;;;;;;;;;;;0.321543;0.4392224;-0.47126684;;;;;571.5
789.0;702.2;;;;;;;;;;;;;;;;;-24.544512;-24.338512;5.726035;;581.1
789.0;702.2;;;;;;;;;;;;;;0.34546953;0.45167395;-0.48518327;;;;;581.1
789.0;702.2;;;;;;;;;;;;;;;;;-26.886808;-26.31077;5.706961;;581.1
789.0;702.2;;;;;;;;;;;;;;0.3747673;0.47578356;-0.46540728;;;;;581.1
789.0;702.2;;;;;;;;;;;;;;;;;-29.122288;-26.116215;5.466628;;590.8
789.0;702.2;;;;;;;;;;;;;;0.3999756;0.48414564;-0.4405652;;;;;590.8
789.0;702.2;;;;;;;;;;;;;;;;;-26.65029;-25.208288;4.3641467;;590.8
789.0;702.2;;;;;;;;;;;;;;0.43140966;0.5188757;-0.4509415;;;;;590.8
789.0;702.2;;;;;;;;;;;;;;;;;-22.896511;-24.430067;2.639851;;600.3
789.0;702.2;;;;;;;;;;;;;;0.45429853;0.51155126;-0.49391156;;;;;600.3
789.0;702.2;;;;;;;;;;;;;;;;;-23.94177;-20.954771;0.068666644;;600.3
789.0;702.2;;;;;;;;;;;;;;0.42762536;0.5099643;-0.413831;;;;;600.3
845.0;703.3;;;;;;;;;;;;;;;;;-26.963104;-18.112736;-1.6518143;;609.8
845.0;703.3;;;;;;;;;;;;;;0.48445082;0.4900052;-0.33710745;;;;;609.8
845.0;703.3;;;;;;;;;;;;;;;;;-29.530474;-14.366589;-3.3646657;;609.8
845.0;703.3;;;;;;;;;;;;;;0.49665824;0.46156195;-0.34302804;;;;;609.8
845.0;703.3;;;;;;;;;;;;;;;;;-34.29899;-10.23133;-6.3402205;;619.1
845.0;703.3;;;;;;;;;;;;;;0.55146945;0.420423;-0.35999635;;;;;619.1
845.0;703.3;;;;;;;;;;;;;;;;;-36.37425;-5.184332;-11.2880335;;619.1
845.0;703.3;;;;;;;;;;;;;;0.59315777;0.40852076;-0.33448288;;;;;619.1
845.0;703.3;;;;;;;;;;;;;;;;;-33.913692;-1.495407;-17.445143;;628.8
845.0;703.3;;;;;;;;;;;;;;0.6107364;0.39265114;-0.3068331;;;;;628.8
845.0;703.3;;;;;;;;;;;;;;;;;-28.267769;-1.3657033;-23.97992;;628.8
845.0;703.3;;;;;;;;;;;;;;0.6344188;0.35065767;-0.33680227;;;;;628.8
845.0;761.6;;;;;;;;;;;;;;;;;-23.678549;-3.3875546;-30.08362;;638.3
845.0;761.6;;;;;;;;;;;;;;0.659505;0.31055635;-0.40522477;;;;;638.3
845.0;761.6;;;;;;;;;;;;;;;;;-19.814142;-3.2654805;-35.119175;;638.3
845.0;761.6;;;;;;;;;;;;;;0.677694;0.26685384;-0.44703513;;;;;638.3
845.0;761.6;;;;;;;;;;;;;;;;;-16.624958;-2.6894438;-38.50673;;647.9
845.0;761.6;;;;;;;;;;;;;;0.689169;0.2628254;-0.509415;;;;;647.9
845.0;761.6;;;;;;;;;;;;;;;;;-16.045107;-2.25074;-40.265358;;647.9
845.0;761.6;;;;;;;;;;;;;;0.69569993;0.2949919;-0.53706473;;;;;647.9
845.0;761.6;;;;;;;;;;;;;;;;;-19.245735;-2.9984436;-40.5858;;657.5
845.0;761.6;;;;;;;;;;;;;;0.6992401;0.30121768;-0.5106357;;;;;657.5
845.0;761.6;;;;;;;;;;;;;;;;;-22.846918;-4.6464434;-40.677357;;657.5
845.0;761.6;;;;;;;;;;;;;;0.71553695;0.27875605;-0.50990325;;;;;657.5
906.0;762.4;;;;;;;;;;;;;;;;;-25.414288;-4.6578875;-40.421764;;667.1
906.0;762.4;;;;;;;;;;;;;;0.7523423;0.22443312;-0.496292;;;;;667.1
906.0;762.4;;;;;;;;;;;;;;;;;-26.161993;-2.0218513;-39.72365;;667.1
906.0;762.4;;;;;;;;;;;;;;0.7833491;0.16016114;-0.45277262;;;;;667.1
906.0;762.4;;;;;;;;;;;;;;;;;-24.906918;-0.6828517;-39.376507;;676.6
906.0;762.4;;;;;;;;;;;;;;0.81789607;0.15009002;-0.41523483;;;;;676.6
906.0;762.4;;;;;;;;;;;;;;;;;-25.864437;1.7548143;-38.121433;;676.6
906.0;762.4;;;;;;;;;;;;;;0.80880153;0.18494217;-0.43177587;;;;;676.6
906.0;762.4;;;;;;;;;;;;;;;;;-27.23014;3.7423322;-36.01947;;686.2
906.0;762.4;;;;;;;;;;;;;;0.74929047;0.27820674;-0.4596698;;;;;686.2
906.0;762.4;;;;;;;;;;;;;;;;;-25.517288;1.7967772;-35.64562;;686.2
906.0;762.4;;;;;;;;;;;;;;0.6491897;0.36567277;-0.47822505;;;;;686.2
906.0;769.0;;;;;;;;;;;;;;;;;-20.577105;-1.6670736;-36.931213;;695.9
906.0;769.0;;;;;;;;;;;;;;0.63155;0.42469558;-0.4575335;;;;;695.9
906.0;769.0;;;;;;;;;;;;;;;;;-17.0484;3.4104435;-39.647358;;695.9
906.0;769.0;;;;;;;;;;;;;;0.6472365;0.47596666;-0.3691519;;;;;695.9
906.0;769.0;;;;;;;;;;;;;;;;;-15.907774;11.76107;-42.55425;;705.5
906.0;769.0;;;;;;;;;;;;;;0.58101135;0.50282294;-0.37012848;;;;;705.5
906.0;769.0;;;;;;;;;;;;;;;;;-13.80581;19.760735;-45.850246;;705.5
906.0;769.0;;;;;;;;;;;;;;0.48799098;0.5453047;-0.4702292;;;;;705.5
906.0;769.0;;;;;;;;;;;;;;;;;-15.408032;28.183844;-49.584946;;715.2
906.0;769.0;;;;;;;;;;;;;;0.4422132;0.5922422;-0.5377361;;;;;715.2
906.0;769.0;;;;;;;;;;;;;;;;;-20.908995;32.422104;-53.273872;;715.2
906.0;769.0;;;;;;;;;;;;;;0.4488052;0.6491287;-0.57618946;;;;;715.2
966.0;821.7;;;;;;;;;;;;;;;;;-26.696066;35.767693;-58.599354;;724.7
966.0;821.7;;;;;;;;;;;;;;0.47694325;0.7388531;-0.5460372;;;;;724.7
966.0;821.7;;;;;;;;;;;;;;;;;-29.435102;39.662617;-63.661613;;724.7
966.0;821.7;;;;;;;;;;;;;;0.49012727;0.7937864;-0.4721824;;;;;724.7
966.0;821.7;;;;;;;;;;;;;;;;;-28.225805;41.4098;-69.73098;;734.2
966.0;821.7;;;;;;;;;;;;;;0.51564074;0.84090704;-0.41261026;;;;;734.2
966.0;821.7;;;;;;;;;;;;;;;;;-28.843807;41.894283;-73.34742;;734.2
966.0;821.7;;;;;;;;;;;;;;0.5274819;0.91073334;-0.35425887;;;;;734.2
966.0;821.7;;;;;;;;;;;;;;;;;-32.92566;41.348766;-77.02109;;743.8
966.0;821.7;;;;;;;;;;;;;;0.58607745;0.8781396;-0.28266242;;;;;743.8
966.0;821.7;;;;;;;;;;;;;;;;;-35.13062;42.126987;-80.69857;;743.8
966.0;821.7;;;;;;;;;;;;;;0.59974974;0.9135411;-0.26386303;;;;;743.8
966.0;829.5;;;;;;;;;;;;;;;;;-36.988434;43.019653;-85.11231;;753.5
966.0;829.5;;;;;;;;;;;;;;0.6126286;0.89944154;-0.26038393;;;;;753.5
966.0;829.5;;;;;;;;;;;;;;;;;-39.796135;42.26432;-89.67482;;753.5
966.0;829.5;;;;;;;;;;;;;;0.6560259;0.8716086;-0.27246925;;;;;753.5
966.0;829.5;;;;;;;;;;;;;;;;;-41.46321;40.677357;-95.458084;;763.1
966.0;829.5;;;;;;;;;;;;;;0.7588733;0.86196476;-0.30158392;;;;;763.1
966.0;829.5;;;;;;;;;;;;;;;;;-42.95862;39.407024;-100.77212;;763.1
966.0;829.5;;;;;;;;;;;;;;0.8948637;0.83785516;-0.38496047;;;;;763.1
966.0;829.5;;;;;;;;;;;;;;;;;-45.75106;38.911102;-106.17771;;772.7
966.0;829.5;;;;;;;;;;;;;;1.0219429;0.82845545;-0.4961089;;;;;772.7
966.0;829.5;;;;;;;;;;;;;;;;;-51.938686;37.053288;-110.72878;;772.7
966.0;829.5;;;;;;;;;;;;;;1.1847895;0.852504;-0.5807062;;;;;772.7
1025.0;881.9;;;;;;;;;;;;;;;;;-59.652245;34.23795;-112.59422;;782.1
1025.0;881.9;;;;;;;;;;;;;;1.4456618;0.8163091;-0.68025756;;;;;782.1
1025.0;881.9;;;;;;;;;;;;;;;;;-66.30147;33.31477;-112.44545;;782.1
1025.0;881.9;;;;;;;;;;;;;;1.7094028;0.76711327;-0.7736442;;;;;782.1
1025.0;881.9;;;;;;;;;;;;;;;;;-71.1539;31.781212;-111.28193;;791.7
1025.0;881.9;;;;;;;;;;;;;;1.8850673;0.65504926;-0.87203586;;;;;791.7
1025.0;881.9;;;;;;;;;;;;;;;;;-73.38176;30.507065;-110.019226;;791.7
1025.0;881.9;;;;;;;;;;;;;;1.9451277;0.49598682;-0.99923706;;;;;791.7
1025.0;881.9;;;;;;;;;;;;;;;;;-76.071205;33.650475;-110.5533;;801.3
1025.0;881.9;;;;;;;;;;;;;;1.8620564;0.31171605;-1.0408032;;;;;801.3
1025.0;881.9;;;;;;;;;;;;;;;;;-80.63753;37.850582;-112.49504;;801.3
1025.0;881.9;;;;;;;;;;;;;;1.7330241;0.21729179;-1.0078433;;;;;801.3
1025.0;889.4;;;;;;;;;;;;;;;;;-81.53783;39.780876;-112.331;;811.0
1025.0;889.4;;;;;;;;;;;;;;1.6476333;0.12402722;-0.9503464;;;;;811.0
1025.0;889.4;;;;;;;;;;;;;;;;;-84.418015;45.03006;-112.07541;;811.0
1025.0;889.4;;;;;;;;;;;;;;1.6021607;0.109622486;-0.9081698;;;;;811.0
1025.0;889.4;;;;;;;;;;;;;;;;;-86.8862;49.317913;-110.64485;;820.6
1025.0;889.4;;;;;;;;;;;;;;1.5992919;0.10998871;-0.9086581;;;;;820.6
1025.0;889.4;;;;;;;;;;;;;;;;;-87.4279;49.367504;-107.074196;;820.6
1025.0;889.4;;;;;;;;;;;;;;1.7341228;0.17236854;-0.9837947;;;;;820.6
1025.0;889.4;;;;;;;;;;;;;;;;;-87.462234;52.35069;-103.18308;;830.3
1025.0;889.4;;;;;;;;;;;;;;1.9619739;0.24158452;-1.1763664;;;;;830.3
1025.0;889.4;;;;;;;;;;;;;;;;;-83.903015;69.71572;-99.66963;;830.3
1025.0;889.4;;;;;;;;;;;;;;1.4747765;0.18250069;-1.0017395;;;;;830.3
1087.0;942.1;;;;;;;;;;;;;;;;;-73.80901;63.940094;-98.494675;;839.8
1087.0;942.1;;;;;;;;;;;;;;1.243324;0.18176824;-0.6490066;;;;;839.8
1087.0;942.1;;;;;;;;;;;;;;;;;-55.627613;34.5851;-95.92731;;839.8
1087.0;942.1;;;;;;;;;;;;;;1.4399244;0.12500381;-0.92324597;;;;;839.8
1087.0;942.1;;;;;;;;;;;;;;;;;-43.29051;34.550766;-96.52623;;849.4
1087.0;942.1;;;;;;;;;;;;;;1.3956114;0.08130131;-0.8476211;;;;;849.4
1087.0;942.1;;;;;;;;;;;;;;;;;-32.647175;31.712547;-97.85379;;849.4
1087.0;942.1;;;;;;;;;;;;;;1.4252144;0.148381;-0.7840815;;;;;849.4
1087.0;942.1;;;;;;;;;;;;;;;;;-22.659992;26.69988;-99.002045;;859.1
1087.0;942.1;;;;;;;;;;;;;;1.5227516;0.27625355;-0.80849636;;;;;859.1
1087.0;942.1;;;;;;;;;;;;;;;;;-14.023255;26.985992;-99.3263;;859.1
1087.0;942.1;;;;;;;;;;;;;;1.6519059;0.4591815;-0.7399518;;;;;859.1
1087.0;943.2;;;;;;;;;;;;;;;;;-5.3369246;26.50914;-97.37312;;868.7
1087.0;943.2;;;;;;;;;;;;;;1.711478;0.6045717;-0.6955168;;;;;868.7
1087.0;943.2;;;;;;;;;;;;;;;;;-0.16022217;24.739067;-95.664085;;868.7
1087.0;943.2;;;;;;;;;;;;;;1.7243568;0.7218238;-0.70638144;;;;;868.7
1087.0;943.2;;;;;;;;;;;;;;;;;-4.696036;27.577288;-91.32664;;878.4
1087.0;943.2;;;;;;;;;;;;;;1.7515182;0.75936157;-0.63850826;;;;;878.4
1087.0;943.2;;;;;;;;;;;;;;;;;-11.947997;33.982357;-85.596794;;878.4
1087.0;943.2;;;;;;;;;;;;;;1.6954863;0.76058227;-0.49171424;;;;;878.4
1087.0;943.2;;;;;;;;;;;;;;;;;-17.803736;36.397137;-78.53938;;888.0
1087.0;943.2;;;;;;;;;;;;;;1.5853145;0.7545396;-0.42445144;;;;;888.0
1087.0;943.2;;;;;;;;;;;;;;;;;-25.37614;38.67077;-70.36805;;888.0
1087.0;943.2;;;;;;;;;;;;;;1.4174627;0.7032075;-0.39265114;;;;;888.0
1146.0;1002.2;;;;;;;;;;;;;;;;;-31.693474;38.583027;-61.52913;;897.7
1146.0;1002.2;;;;;;;;;;;;;;1.2380139;0.6506546;-0.31238747;;;;;897.7
1146.0;1002.2;;;;;;;;;;;;;;;;;-36.96936;37.236397;-51.6068;;897.7
1146.0;1002.2;;;;;;;;;;;;;;1.1069063;0.5859554;-0.26551104;;;;;897.7
1146.0;1002.2;;;;;;;;;;;;;;;;;-41.04358;38.289288;-42.43599;;907.3
1146.0;1002.2;;;;;;;;;;;;;;0.97219765;0.52699363;-0.16699728;;;;;907.3
1146.0;1002.2;;;;;;;;;;;;;;;;;-42.210915;36.801506;-34.40199;;907.3
1146.0;1002.2;;;;;;;;;;;;;;0.8550676;0.456679;-0.1342204;;;;;907.3
1146.0;1002.2;;;;;;;;;;;;;;;;;-40.82232;33.75729;-28.019806;;916.9
1146.0;1002.2;;;;;;;;;;;;;;0.77987;0.3996704;-0.10242012;;;;;916.9
1146.0;1002.2;;;;;;;;;;;;;;;;;-37.495804;29.217659;-22.148808;;916.9
1146.0;1002.2;;;;;;;;;;;;;;0.75063324;0.3551134;-0.10510575;;;;;916.9
1146.0;1003.0;;;;;;;;;;;;;;;;;-35.12299;26.371807;-16.067995;;926.6
1146.0;1003.0;;;;;;;;;;;;;;0.73696095;0.30048525;-0.08600116;;;;;926.6
1146.0;1003.0;;;;;;;;;;;;;;;;;-33.059177;23.97992;-9.750664;;926.6
1146.0;1003.0;;;;;;;;;;;;;;0.74056214;0.24030274;-0.07495346;;;;;926.6
1146.0;1003.0;;;;;;;;;;;;;;;;;-31.266212;22.03818;-4.0284433;;936.2
1146.0;1003.0;;;;;;;;;;;;;;0.74452955;0.1848201;-0.074892424;;;;;936.2
1146.0;1003.0;;;;;;;;;;;;;;;;;-29.09177;20.916624;0.94225895;;936.2
1146.0;1003.0;;;;;;;;;;;;;;0.75557727;0.1363567;-0.081118196;;;;;936.2
1146.0;1003.0;;;;;;;;;;;;;;;;;-26.51677;20.222326;5.130924;;945.8
1146.0;1003.0;;;;;;;;;;;;;;0.7646107;0.11169775;-0.08789331;;;;;945.8
1146.0;1003.0;;;;;;;;;;;;;;;;;-23.808252;19.688253;8.835109;;945.8
1146.0;1003.0;;;;;;;;;;;;;;0.7725456;0.10113834;-0.09576708;;;;;945.8
1208.0;1062.6;;;;;;;;;;;;;;;;;-21.237068;19.425032;17472;;955.4
1208.0;1062.6;;;;;;;;;;;;;;0.78707236;0.100711085;-0.1010773;;;;;955.4
1208.0;1062.6;;;;;;;;;;;;;;;;;-19.138922;19.669178;14.812922;;955.4
1208.0;1062.6;;;;;;;;;;;;;;0.79659414;0.121890925;-0.09753716;;;;;955.4
1208.0;1062.6;;;;;;;;;;;;;;;;;-17.490921;19.753105;17.769402;;965.1
1208.0;1062.6;;;;;;;;;;;;;;0.80251473;0.122562334;-0.0921659;;;;;965.1
1208.0;1062.6;;;;;;;;;;;;;;;;;-15.598773;18.95581;20.290993;;965.1
1208.0;1062.6;;;;;;;;;;;;;;0.8106937;0.12262337;-0.09607227;;;;;965.1
1208.0;1062.6;;;;;;;;;;;;;;;;;-12.604144;17.948698;22.03818;;974.8
1208.0;1062.6;;;;;;;;;;;;;;0.80111086;0.09228797;-0.13599049;;;;;974.8
1208.0;1062.6;;;;;;;;;;;;;;;;;-5.760369;17.792292;22.18314;;974.8
1208.0;1062.6;;;;;;;;;;;;;;0.77047026;0.03564562;-0.22479934;;;;;974.8
1208.0;1063.4;;;;;;;;;;;;;;;;;5.3903317;18.04407;21.084475;;984.4
1208.0;1063.4;;;;;;;;;;;;;;0.72206795;-0.018738365;-0.30097353;;;;;984.4
1208.0;1063.4;;;;;;;;;;;;;;;;;16.991179;17.117067;20.05829;;984.4
1208.0;1063.4;;;;;;;;;;;;;;0.6642659;-0.04181036;-0.31202126;;;;;984.4
1208.0;1063.4;;;;;;;;;;;;;;;;;27.027956;14.110995;20.191809;;994.1
1208.0;1063.4;;;;;;;;;;;;;;0.62807095;-0.057863094;-0.3009125;;;;;994.1
1208.0;1063.4;;;;;;;;;;;;;;;;;36.35136;10.917997;21.645254;;994.1
1208.0;1063.4;;;;;;;;;;;;;;0.6039613;-0.06823939;-0.29493088;;;;;994.1
1208.0;1063.4;;;;;;;;;;;;;;;;;45.71673;9.594256;23.47255;;1003.7
1208.0;1063.4;;;;;;;;;;;;;;0.59218115;-0.08984649;-0.2954192;;;;;1003.7
1208.0;1063.4;;;;;;;;;;;;;;;;;55.536057;10.456405;24.97177;;1003.7
1208.0;1063.4;;;;;;;;;;;;;;0.56386;-0.112979524;-0.28693503;;;;;1003.7
1209.0;1123.3;;;;;;;;;;;;;;;;;65.06547;11.566515;26.043734;;1013.3
1209.0;1123.3;;;;;;;;;;;;;;0.5249184;-0.14697714;-0.26538897;;;;;1013.3
1209.0;1123.3;;;;;;;;;;;;;;;;;73.156685;12.016664;27.04703;;1013.3
1209.0;1123.3;;;;;;;;;;;;;;0.49732962;-0.17578661;-0.23444319;;;;;1013.3
1209.0;1123.3;;;;;;;;;;;;;;;;;78.60042;12.852107;28.145695;;1022.9
1209.0;1123.3;;;;;;;;;;;;;;0.47285378;-0.20941801;-0.18610187;;;;;1022.9
1209.0;1123.3;;;;;;;;;;;;;;;;;82.60216;14.824367;29.67925;;1022.9
1209.0;1123.3;;;;;;;;;;;;;;0.45881528;-0.23603015;-0.13928647;;;;;1022.9
1209.0;1123.3;;;;;;;;;;;;;;;;;85.29542;17.40318;30.991547;;1032.6
1209.0;1123.3;;;;;;;;;;;;;;0.4496597;-0.23371075;-0.102847375;;;;;1032.6
1209.0;1123.3;;;;;;;;;;;;;;;;;86.504715;20.020142;32.219917;;1032.6
1209.0;1123.3;;;;;;;;;;;;;;0.41224402;-0.21320231;-0.062135685;;;;;1032.6
1212.0;1124.0;;;;;;;;;;;;;;;;;86.78701;20.80218;33.49025;;1042.3
1212.0;1124.0;;;;;;;;;;;;;;0.3747673;-0.17114781;-0.047425766;;;;;1042.3
1212.0;1124.0;;;;;;;;;;;;;;;;;87.18757;19.798882;36.065247;;1042.3
1212.0;1124.0;;;;;;;;;;;;;;0.33576465;-0.13782158;-0.0463271;;;;;1042.3
1212.0;1124.0;;;;;;;;;;;;;;;;;87.79031;17.681662;38.69747;;1052.0
1212.0;1124.0;;;;;;;;;;;;;;0.2652669;-0.12665181;-0.060975984;;;;;1052.0
1212.0;1124.0;;;;;;;;;;;;;;;;;88.87371;14.64507;40.841396;;1052.0
1212.0;1124.0;;;;;;;;;;;;;;0.25379193;-0.07080294;-0.08386487;;;;;1052.0
1212.0;1124.0;;;;;;;;;;;;;;;;;90.3119;12.1654415;43.06162;;1061.6
1212.0;1124.0;;;;;;;;;;;;;;0.23383282;-0.027161473;-0.10852382;;;;;1061.6
1212.0;1124.0;;;;;;;;;;;;;;;;;91.92557;11.299478;45.518356;;1061.6
1212.0;1124.0;;;;;;;;;;;;;;0.21198156;0.019104587;-0.13556322;;;;;1061.6
1212.0;1127.0;;;;0.0;0.0;0.0;;;;;;;;;;;;;;;
1212.0;1127.0;;;;-0.058177955;0.11218645;0.0717125;;;;;;;;;;;;;;;
1212.0;1127.0;;;;-0.27087024;0.37827307;0.24047092;;;;;;;;;;;;;;;
1212.0;1127.0;;;;-0.2988396;0.406025;0.25171283;;;;;;;;;;;;;;;
1212.0;1127.0;;;;-0.3037224;0.40069968;0.2456055;;;;;;;;;;;;;;;
1212.0;1137.0;;;;-0.30822375;0.39474112;0.2390633;;;;;;;;;;;;;;;
1212.0;1137.0;;;;-0.3131447;0.38938147;0.23229983;;;;;;;;;;;;;;;
1212.0;1137.0;;;;-0.31567386;0.3831368;0.22626117;;;;;;;;;;;;;;;
1212.0;1137.0;;;;-0.32027438;0.37715918;0.22003177;;;;;;;;;;;;;;;
1212.0;1137.0;;;;-0.3249474;0.37188724;0.2160187;;;;;;;;;;;;;;;
1266.0;1138.2;57460;57405;14530;;;;;;;;;;;;;;;;;;
1266.0;1147.0;;;;-0.3279076;0.3664284;0.21189883;;;;;;;;;;;;;;;
1266.0;1147.0;;;;-0.3310509;0.36143878;0.20637515;;;;;;;;;;;;;;;
1266.0;1147.0;;;;-0.33456424;0.35603717;0.20053485;;;;;;;;;;;;;;;
1266.0;1147.0;;;;-0.33763126;0.35115817;0.19620898;;;;;;;;;;;;;;;
1266.0;1147.0;;;;-0.34155658;0.3466721;0.19183734;;;;;;;;;;;;;;;
1266.0;1156.9;;;;-0.3451958;0.34224322;0.18809131;;;;;;;;;;;;;;;
1266.0;1156.9;;;;-0.3483124;0.337925;0.18380357;;;;;;;;;;;;;;;
1266.0;1156.9;;;;-0.35336307;0.33466342;0.17956926;;;;;;;;;;;;;;;
1266.0;1156.9;;;;-0.35666278;0.32990268;0.17673875;;;;;;;;;;;;;;;
1266.0;1156.9;;;;-0.35997775;0.3262482;0.1736603;;;;;;;;;;;;;;;
1266.0;1158.2;73895;73820;14518;;;;;;;;;;;;;;;;;;
1266.0;1164.5;;;;;;;;;;;;;0;;;;;;;;
1266.0;1164.5;;;;;;;;;;;;;0;;;;;;;;
1266.0;1164.5;;;;;;;;;;;;;-1;;;;;;;;
1266.0;1164.5;;;;;;;;;;;;;-2;;;;;;;;
1266.0;1164.5;;;;;;;;;;;;;-3;;;;;;;;
1266.0;1167.0;;;;-0.36436847;0.3239098;0.17159273;;;;;;;;;;;;;;;
1266.0;1167.0;;;;-0.37033847;0.32128528;0.16827776;;;;;;;;;;;;;;;
1266.0;1167.0;;;;-0.37484363;0.31845477;0.16707231;;;;;;;;;;;;;;;
1266.0;1167.0;;;;-0.37832266;0.31629947;0.16555025;;;;;;;;;;;;;;;
1266.0;1167.0;;;;-0.38132483;0.3143082;0.16399385;;;;;;;;;;;;;;;
1268.0;1177.1;;;;-0.3851319;0.31336978;0.16222002;;;;;;;;;;;;;;;
1268.0;1177.1;;;;-0.38859183;0.31245425;0.16101839;;;;;;;;;;;;;;;
1268.0;1177.1;;;;-0.39199454;0.31159595;0.16053773;;;;;;;;;;;;;;;
1268.0;1177.1;;;;-0.39555365;0.31151965;0.16000368;;;;;;;;;;;;;;;
1268.0;1177.1;;;;-0.39705282;0.3109055;0.16021349;;;;;;;;;;;;;;;
1268.0;1178.4;90284;90290;14518;;;;;;;;;;;;;;;;;;
1268.0;1183.0;;;;;;;;;;;;;;;;;94.565414;9.868922;47.16254;;1071.3
1268.0;1183.0;;;;;;;;;;;;;;0.16809595;0.042786952;-0.15930662;;;;;1071.3
1268.0;1183.0;;;;;;;;;;;;;;;;;97.701195;5.775628;48.63506;;1071.3
1268.0;1183.0;;;;;;;;;;;;;;0.18640706;0.050111394;-0.20471816;;;;;1071.3
1268.0;1183.0;;;;;;;;;;;;;;;;;99.42167;3.4447768;50.000763;;1081.0
1268.0;1183.0;;;;;;;;;;;;;;0.2151555;0.08270516;-0.20435195;;;;;1081.0
1268.0;1183.0;;;;;;;;;;;;;;;;;99.56282;2.7924435;50.565353;;1081.0
1268.0;1183.0;;;;;;;;;;;;;;0.24695578;0.12756737;-0.20728172;;;;;1081.0
1268.0;1183.0;;;;;;;;;;;;;;;;;100.69963;2.166814;50.79043;;1090.6
1268.0;1183.0;;;;;;;;;;;;;;0.25714895;0.16235848;-0.252266;;;;;1090.6
1268.0;1183.0;;;;;;;;;;;;;;;;;104.35041;2.3232217;50.09613;;1090.6
1268.0;1183.0;;;;;;;;;;;;;;0.25898007;0.19220558;-0.29847103;;;;;1090.6
1270.0;1183.8;;;;;;;;;;;;;;;;;110.88137;2.6131475;48.394726;;1100.3
1270.0;1183.8;;;;;;;;;;;;;;0.23926511;0.24018067;-0.34546953;;;;;1100.3
1270.0;1183.8;;;;;;;;;;;;;;;;;117.29026;1.3847773;47.109135;;1100.3
1270.0;1183.8;;;;;;;;;;;;;;0.24298838;0.26966155;-0.39844966;;;;;1100.3
1270.0;1183.8;;;;;;;;;;;;;;;;;121.059296;1.4000366;46.563614;;1109.9
1270.0;1183.8;;;;;;;;;;;;;;0.29175696;0.3279519;-0.43073824;;;;;1109.9
1270.0;1183.8;;;;;;;;;;;;;;;;;121.13559;4.7227397;47.055725;;1109.9
1270.0;1183.8;;;;;;;;;;;;;;0.3230079;0.38758507;-0.44856104;;;;;1109.9
1270.0;1183.8;;;;;;;;;;;;;;;;;117.35512;7.9004793;47.99417;;1119.6
1270.0;1183.8;;;;;;;;;;;;;;0.34369946;0.46754357;-0.4712058;;;;;1119.6
1270.0;1183.8;;;;;;;;;;;;;;;;;111.10263;9.891811;49.497208;;1119.6
1270.0;1183.8;;;;;;;;;;;;;;0.37202063;0.53724784;-0.47144994;;;;;1119.6
1270.0;1187.0;;;;-0.3987313;0.3104706;0.15973283;;;;;;;;;;;;;;;
1270.0;1187.0;;;;-0.40144354;0.31066516;0.15932848;;;;;;;;;;;;;;;
1270.0;1187.0;;;;-0.40495688;0.31131366;0.15908052;;;;;;;;;;;;;;;
1270.0;1187.0;;;;-0.4072228;0.3121567;0.16008379;;;;;;;;;;;;;;;
1270.0;1187.0;;;;-0.4093514;0.31277087;0.15961458;;;;;;;;;;;;;;;
1270.0;1197.1;;;;-0.4111939;0.31361392;0.1587105;;;;;;;;;;;;;;;
1270.0;1197.1;;;;-0.41260153;0.3148003;0.1587105;;;;;;;;;;;;;;;
1270.0;1197.1;;;;-0.41395956;0.31626514;0.15815736;;;;;;;;;;;;;;;
1270.0;1197.1;;;;-0.41528326;0.31815723;0.15690233;;;;;;;;;;;;;;;
1270.0;1197.1;;;;-0.41600806;0.32004932;0.15581514;;;;;;;;;;;;;;;
1270.0;1198.4;106562;106594;14514;;;;;;;;;;;;;;;;;;
1324.0;1204.7;;;;;;;;;;;;;-5;;;;;;;;
1324.0;1204.7;;;;;;;;;;;;;-6;;;;;;;;
1324.0;1204.7;;;;;;;;;;;;;-11;;;;;;;;
1324.0;1204.7;;;;;;;;;;;;;-11;;;;;;;;
1324.0;1204.7;;;;;;;;;;;;;-11;;;;;;;;
1324.0;1207.0;;;;-0.41717154;0.32223895;0.15519334;;;;;;;;;;;;;;;
1324.0;1207.0;;;;-0.4173928;0.32513812;0.15487672;;;;;;;;;;;;;;;
1324.0;1207.0;;;;-0.41707617;0.32816318;0.15451433;;;;;;;;;;;;;;;
1324.0;1207.0;;;;-0.41680533;0.33075717;0.15434267;;;;;;;;;;;;;;;
1324.0;1207.0;;;;-0.4163323;0.33365253;0.15417482;;;;;;;;;;;;;;;
1324.0;1217.0;;;;-0.41566092;0.33758548;0.15328218;;;;;;;;;;;;;;;
1324.0;1217.0;;;;-0.41509253;0.34143832;0.15336229;;;;;;;;;;;;;;;
1324.0;1217.0;;;;-0.41561896;0.34560397;0.15311433;;;;;;;;;;;;;;;
1324.0;1217.0;;;;-0.4158402;0.35026935;0.15370943;;;;;;;;;;;;;;;
1324.0;1217.0;;;;-0.4158097;0.35486987;0.15359117;;;;;;;;;;;;;;;
1324.0;1218.5;122999;123021;14522;;;;;;;;;;;;;;;;;;
1324.0;1227.1;;;;-0.41570288;0.36044315;0.15451814;;;;;;;;;;;;;;;
1324.0;1227.1;;;;-0.41596228;0.3664818;0.15556337;;;;;;;;;;;;;;;
1324.0;1227.1;;;;-0.41815192;0.3732033;0.15785219;;;;;;;;;;;;;;;
1324.0;1227.1;;;;-0.41954046;0.3809014;0.16009142;;;;;;;;;;;;;;;
1324.0;1227.1;;;;-0.41947943;0.38799292;0.16160204;;;;;;;;;;;;;;;
1326.0;1237.2;;;;-0.41992575;0.39446265;0.16271974;;;;;;;;;;;;;;;
1326.0;1237.2;;;;-0.41963965;0.40137488;0.16446687;;;;;;;;;;;;;;;
1326.0;1237.2;;;;-0.41870886;0.40861517;0.16733934;;;;;;;;;;;;;;;
1326.0;1237.2;;;;-0.4164582;0.41634756;0.17177202;;;;;;;;;;;;;;;
1326.0;1237.2;;;;-0.41341025;0.4238358;0.17669298;;;;;;;;;;;;;;;
1326.0;1238.7;139403;139324;14525;;;;;;;;;;;;;;;;;;
1326.0;1245.0;;;;;;;;;;;;;-15;;;;;;;;
1326.0;1245.0;;;;;;;;;;;;;-9;;;;;;;;
1326.0;1245.0;;;;;;;;;;;;;-17;;;;;;;;
1326.0;1245.0;;;;;;;;;;;;;-19;;;;;;;;
1326.0;1245.0;;;;;;;;;;;;;10;;;;;;;;
1326.0;1247.3;;;;-0.40991598;0.4320565;0.18157198;;;;;;;;;;;;;;;
1326.0;1247.3;;;;-0.4049111;0.4407807;0.1875687;;;;;;;;;;;;;;;
1326.0;1247.3;;;;-0.39801794;0.44972235;0.19407657;;;;;;;;;;;;;;;
1326.0;1247.3;;;;-0.39173132;0.45890433;0.20084003;;;;;;;;;;;;;;;
1326.0;1247.3;;;;-0.38719183;0.4674912;0.20630267;;;;;;;;;;;;;;;
1326.0;1257.4;;;;-0.38314062;0.47721487;0.21227267;;;;;;;;;;;;;;;
1326.0;1257.4;;;;-0.3800431;0.48727423;0.21789935;;;;;;;;;;;;;;;
1326.0;1257.4;;;;-0.3776322;0.49779135;0.22378924;;;;;;;;;;;;;;;
1326.0;1257.4;;;;-0.3763047;0.5081597;0.22865298;;;;;;;;;;;;;;;
1326.0;1257.4;;;;-0.37508017;0.5189324;0.23358539;;;;;;;;;;;;;;;
1327.0;1258.7;;;;;;;;;;;;;;;;;102.324745;12.863552;51.34358;;1129.2
1327.0;1258.7;;;;;;;;;;;;;;0.42323068;0.6211127;-0.4659566;;;;;1129.2
1327.0;1258.7;;;;;;;;;;;;;;;;;91.81112;19.550919;53.327282;;1129.2
1327.0;1258.7;;;;;;;;;;;;;;0.4835963;0.6659749;-0.44032106;;;;;1129.2
1327.0;1258.7;;;;;;;;;;;;;;;;;80.01572;29.755548;54.25428;;1138.9
1327.0;1258.7;;;;;;;;;;;;;;0.53511155;0.73018587;-0.43189794;;;;;1138.9
1327.0;1258.7;;;;;;;;;;;;;;;;;73.97687;40.246284;54.452652;;1138.9
1327.0;1258.7;;;;;;;;;;;;;;0.5382855;0.7404401;-0.45728934;;;;;1138.9
1327.0;1258.7;;;;;;;;;;;;;;;;;73.68313;47.47917;52.93817;;1148.4
1327.0;1258.7;;;;;;;;;;;;;;0.5299234;0.761742;-0.48255867;;;;;1148.4
1327.0;1258.7;;;;;;;;;;;;;;;;;74.72076;51.049835;47.96747;;1148.4
1327.0;1258.7;;;;;;;;;;;;;;0.5049593;0.7713248;-0.50489825;;;;;1148.4
1327.0;1259.6;;;;;;;;;;;;;;;;;76.21235;48.17347;43.5461;;1158.1
1327.0;1259.6;;;;;;;;;;;;;;0.48518327;0.74636066;-0.5465865;;;;;1158.1
1327.0;1259.6;;;;;;;;;;;;;;;;;76.422165;41.726433;38.82336;;1158.1
1327.0;1259.6;;;;;;;;;;;;;;0.48323008;0.73317665;-0.5757622;;;;;1158.1
1327.0;1259.6;;;;;;;;;;;;;;;;;74.24772;33.066807;35.542618;;1167.8
1327.0;1259.6;;;;;;;;;;;;;;0.5072787;0.71626943;-0.60139775;;;;;1167.8
1327.0;1259.6;;;;;;;;;;;;;;;;;68.49498;23.968475;33.98617;;1167.8
1327.0;1259.6;;;;;;;;;;;;;;0.5515305;0.7190161;-0.6023133;;;;;1167.8
1327.0;1259.6;;;;;;;;;;;;;;;;;58.942688;18.894773;32.97525;;1177.4
1327.0;1259.6;;;;;;;;;;;;;;0.55708486;0.7046724;-0.560625;;;;;1177.4
1327.0;1259.6;;;;;;;;;;;;;;;;;48.574024;15.900145;31.983398;;1177.4
1327.0;1259.6;;;;;;;;;;;;;;0.6032899;0.74306464;-0.49525437;;;;;1177.4
1386.0;1258.8;155775;155697;14528;;;;;;;;;;;;;;;;;;
1386.0;1267.2;;;;-0.37341312;0.5296517;0.23934177;;;;;;;;;;;;;;;
1386.0;1267.2;;;;-0.37181857;0.5408593;0.24413684;;;;;;;;;;;;;;;
1386.0;1267.2;;;;-0.36939242;0.5522576;0.2480698;;;;;;;;;;;;;;;
1386.0;1267.2;;;;-0.36783984;0.5644799;0.2521744;;;;;;;;;;;;;;;
1386.0;1267.2;;;;-0.36594394;0.5764962;0.2556;;;;;;;;;;;;;;;
1386.0;1277.1;;;;-0.36524203;0.5894852;0.25900653;;;;;;;;;;;;;;;
1386.0;1277.1;;;;-0.3629723;0.6033135;0.26232532;;;;;;;;;;;;;;;
1386.0;1277.1;;;;-0.36068347;0.6159058;0.26437;;;;;;;;;;;;;;;
1386.0;1277.1;;;;-0.3577805;0.6295014;0.26674274;;;;;;;;;;;;;;;
1386.0;1277.1;;;;-0.35345843;0.64264685;0.2686043;;;;;;;;;;;;;;;
1386.0;1278.7;172172;172180;14536;;;;;;;;;;;;;;;;;;
1386.0;1285.0;;;;;;;;;;;;;-48;;;;;;;;
1386.0;1285.0;;;;;;;;;;;;;-117;;;;;;;;
1386.0;1285.0;;;;;;;;;;;;;16;;;;;;;;
1386.0;1285.0;;;;;;;;;;;;;186;;;;;;;;
1386.0;1285.0;;;;;;;;;;;;;-145;;;;;;;;
1386.0;1287.2;;;;-0.35061648;0.65606314;0.269352;;;;;;;;;;;;;;;
1386.0;1287.2;;;;-0.3481026;0.67099005;0.27034;;;;;;;;;;;;;;;
1386.0;1287.2;;;;-0.34341052;0.68513113;0.27131274;;;;;;;;;;;;;;;
1386.0;1287.2;;;;-0.33970645;0.6990853;0.2709084;;;;;;;;;;;;;;;
1386.0;1287.2;;;;-0.33718875;0.715252;0.2720833;;;;;;;;;;;;;;;
1387.0;1297.3;;;;-0.3343735;0.7311669;0.27180865;;;;;;;;;;;;;;;
1387.0;1297.3;;;;-0.3326607;0.7480851;0.26907733;;;;;;;;;;;;;;;
1387.0;1297.3;;;;-0.32927325;0.76556027;0.2677727;;;;;;;;;;;;;;;
1387.0;1297.3;;;;-0.32659915;0.782982;0.2664185;;;;;;;;;;;;;;;
1387.0;1297.3;;;;-0.32541278;0.8028947;0.2666779;;;;;;;;;;;;;;;
1387.0;1298.9;188596;188647;14541;;;;;;;;;;;;;;;;;;
1387.0;1303.5;;;;;;;;;;;;;;;;;40.288246;14.671774;30.251472;;1187.0
1387.0;1303.5;;;;;;;;;;;;;;0.64101076;0.7803583;-0.42597735;;;;;1187.0
1387.0;1303.5;;;;;;;;;;;;;;;;;37.02658;14.435255;27.886288;;1187.0
1387.0;1303.5;;;;;;;;;;;;;;0.64357436;0.8114261;-0.3822138;;;;;1187.0
1387.0;1303.5;;;;;;;;;;;;;;;;;39.368877;12.955108;23.75866;;1196.6
1387.0;1303.5;;;;;;;;;;;;;;0.5910825;0.86404;-0.37531662;;;;;1196.6
1387.0;1303.5;;;;;;;;;;;;;;;;;44.942318;8.362072;19.24955;;1196.6
1387.0;1303.5;;;;;;;;;;;;;;0.504593;0.8915067;-0.37794122;;;;;1196.6
1387.0;1303.5;;;;;;;;;;;;;;;;;49.565872;-0.15640736;15.526292;;1206.3
1387.0;1303.5;;;;;;;;;;;;;;0.42036194;0.94485307;-0.36567277;;;;;1206.3
1387.0;1303.5;;;;;;;;;;;;;;;;;50.8095;-12.146367;14.992217;;1206.3
1387.0;1303.5;;;;;;;;;;;;;;0.42548907;0.9326457;-0.4001587;;;;;1206.3
1388.0;1304.3;;;;;;;;;;;;;;;;;46.59795;-19.093143;15.362254;;1215.9
1388.0;1304.3;;;;;;;;;;;;;;0.41840875;0.9377117;-0.3745842;;;;;1215.9
1388.0;1304.3;;;;;;;;;;;;;;;;;36.156803;-22.774437;17.017883;;1215.9
1388.0;1304.3;;;;;;;;;;;;;;0.4721824;0.9273965;-0.3698233;;;;;1215.9
1388.0;1304.3;;;;;;;;;;;;;;;;;22.94229;-22.270882;19.234291;;1225.6
1388.0;1304.3;;;;;;;;;;;;;;0.5234535;0.89620656;-0.36378065;;;;;1225.6
1388.0;1304.3;;;;;;;;;;;;;;;;;8.632923;-19.180883;20.878475;;1225.6
1388.0;1304.3;;;;;;;;;;;;;;0.5926084;0.85219884;-0.30494094;;;;;1225.6
1388.0;1304.3;;;;;;;;;;;;;;;;;-5.043184;-14.778588;22.675253;;1235.2
1388.0;1304.3;;;;;;;;;;;;;;0.6308176;0.7951903;-0.23432112;;;;;1235.2
1388.0;1304.3;;;;;;;;;;;;;;;;;-14.690847;-10.696738;23.506882;;1235.2
1388.0;1304.3;;;;;;;;;;;;;;0.6456496;0.77193516;-0.18799402;;;;;1235.2
1388.0;1307.2;;;;-0.32467273;0.8241807;0.2678719;;;;;;;;;;;;;;;
1388.0;1307.2;;;;-0.32271197;0.8466302;0.2713814;;;;;;;;;;;;;;;
1388.0;1307.2;;;;-0.3225403;0.87131894;0.2760544;;;;;;;;;;;;;;;
1388.0;1307.2;;;;-0.32358554;0.89948285;0.28388217;;;;;;;;;;;;;;;
1388.0;1307.2;;;;-0.32608798;0.929741;0.2927132;;;;;;;;;;;;;;;
1388.0;1317.3;;;;-0.33021548;0.9637605;0.30419543;;;;;;;;;;;;;;;
1388.0;1317.3;;;;-0.33592227;1.0004197;0.3159676;;;;;;;;;;;;;;;
1388.0;1317.3;;;;-0.34235004;1.0402986;0.32896045;;;;;;;;;;;;;;;
1388.0;1317.3;;;;-0.35074618;1.0839425;0.34284213;;;;;;;;;;;;;;;
1388.0;1317.3;;;;-0.3594437;1.1307603;0.3566399;;;;;;;;;;;;;;;
1388.0;1318.9;205019;204895;14542;;;;;;;;;;;;;;;;;;
1445.0;1325.2;;;;;;;;;;;;;-1144;;;;;;;;
1445.0;1325.2;;;;;;;;;;;;;-2221;;;;;;;;
1445.0;1325.2;;;;;;;;;;;;;-2674;;;;;;;;
1445.0;1325.2;;;;;;;;;;;;;-2427;;;;;;;;
1445.0;1325.2;;;;;;;;;;;;;-1954;;;;;;;;
1445.0;1327.1;;;;-0.36956027;1.1810609;0.37048343;;;;;;;;;;;;;;;
1445.0;1327.1;;;;-0.3800469;1.2345582;0.3835526;;;;;;;;;;;;;;;
1445.0;1327.1;;;;-0.38990408;1.2914735;0.39648062;;;;;;;;;;;;;;;
1445.0;1327.1;;;;-0.39893347;1.3509027;0.40941626;;;;;;;;;;;;;;;
1445.0;1327.1;;;;-0.40665442;1.4137689;0.42030722;;;;;;;;;;;;;;;
1445.0;1337.0;;;;-0.4142571;1.4792596;0.42957693;;;;;;;;;;;;;;;
1445.0;1337.0;;;;-0.41932303;1.546673;0.43643576;;;;;;;;;;;;;;;
1445.0;1337.0;;;;-0.42272192;1.615021;0.44194418;;;;;;;;;;;;;;;
1445.0;1337.0;;;;-0.42350775;1.6837122;0.44459158;;;;;;;;;;;;;;;
1445.0;1337.0;;;;-0.42202765;1.7520373;0.44613272;;;;;;;;;;;;;;;
1445.0;1338.8;221313;221300;14541;;;;;;;;;;;;;;;;;;
1445.0;1347.1;;;;-0.4177056;1.8197215;0.44644934;;;;;;;;;;;;;;;
1445.0;1347.1;;;;-0.4116097;1.8852122;0.44362646;;;;;;;;;;;;;;;
1445.0;1347.1;;;;-0.4033776;1.9466136;0.4390412;;;;;;;;;;;;;;;
1445.0;1347.1;;;;-0.39315802;1.9999964;0.43211752;;;;;;;;;;;;;;;
1445.0;1347.1;;;;-0.38090903;1.9999964;0.4230805;;;;;;;;;;;;;;;
1447.0;1357.2;;;;-0.3673859;1.9999964;0.41320044;;;;;;;;;;;;;;;
1447.0;1357.2;;;;-0.3550568;1.9999964;0.4011193;;;;;;;;;;;;;;;
1447.0;1357.2;;;;-0.3431969;1.9999964;0.38730627;;;;;;;;;;;;;;;
1447.0;1357.2;;;;-0.3292351;1.9999964;0.37350848;;;;;;;;;;;;;;;
1447.0;1357.2;;;;-0.31315997;1.9999964;0.3579941;;;;;;;;;;;;;;;
1447.0;1359.0;237703;237682;14541;;;;;;;;;;;;;;;;;;
1447.0;1363.5;;;;;;;;;;;;;;;;;-20.657215;-8.713035;22.644733;;1244.8
1447.0;1363.5;;;;;;;;;;;;;;0.6771447;0.73555714;-0.18353832;;;;;1244.8
1447.0;1363.5;;;;;;;;;;;;;;;;;-23.495438;-7.152776;20.416883;;1244.8
1447.0;1363.5;;;;;;;;;;;;;;0.6917325;0.7376324;-0.16516617;;;;;1244.8
1447.0;1363.5;;;;;;;;;;;;;;;;;-24.903103;-7.740257;18.589588;;1254.4
1447.0;1363.5;;;;;;;;;;;;;;0.7381817;0.6895352;-0.14038515;;;;;1254.4
1447.0;1363.5;;;;;;;;;;;;;;;;;-27.897732;-8.819849;18.44081;;1254.4
1447.0;1363.5;;;;;;;;;;;;;;0.8856471;0.59431744;-0.2365795;;;;;1254.4
1447.0;1363.5;;;;;;;;;;;;;;;;;-32.0864;-6.187628;20.001068;;1264.0
1447.0;1363.5;;;;;;;;;;;;;;1.1979736;0.5097812;-0.41163367;;;;;1264.0
1447.0;1363.5;;;;;;;;;;;;;;;;;-28.435621;3.2082584;21.488846;;1264.0
1447.0;1363.5;;;;;;;;;;;;;;1.5099338;0.48231453;-0.53132725;;;;;1264.0
1449.0;1364.8;;;;;;;;;;;;;;;;;-11.329996;21.614735;16.891996;;1273.7
1449.0;1364.8;;;;;;;;;;;;;;1.7008575;0.6367992;-0.34003723;;;;;1273.7
1449.0;1364.8;;;;;;;;;;;;;;;;;21.038698;41.56621;2.7199624;;1273.7
1449.0;1364.8;;;;;;;;;;;;;;1.841731;0.8753319;-0.08398694;;;;;1273.7
1449.0;1364.8;;;;;;;;;;;;;;;;;71.44002;44.198433;-14.5497;;1283.3
1449.0;1364.8;;;;;;;;;;;;;;1.6844386;0.8626362;-0.18628499;;;;;1283.3
1449.0;1364.8;;;;;;;;;;;;;;;;;119.15571;-0.43488875;-30.560472;;1283.3
1449.0;1364.8;;;;;;;;;;;;;;1.4513383;0.89278847;-0.9281289;;;;;1283.3
1449.0;1364.8;;;;;;;;;;;;;;;;;123.67626;-54.971462;-28.912474;;1293.0
1449.0;1364.8;;;;;;;;;;;;;;0.9291055;0.8041017;-1.8380688;;;;;1293.0
1449.0;1364.8;;;;;;;;;;;;;;;;;104.297005;-105.109566;-18.368328;;1293.0
1449.0;1364.8;;;;;;;;;;;;;;0.6739097;0.68855864;-1.7645192;;;;;1293.0
1449.0;1365.2;;;;;;;;;;;;;-1613;;;;;;;;
1449.0;1365.2;;;;;;;;;;;;;-1303;;;;;;;;
1449.0;1365.2;;;;;;;;;;;;;-885;;;;;;;;
1449.0;1365.2;;;;;;;;;;;;;-384;;;;;;;;
1449.0;1365.2;;;;;;;;;;;;;98;;;;;;;;
1449.0;1367.2;;;;-0.29649737;1.9999964;0.34070972;;;;;;;;;;;;;;;
1449.0;1367.2;;;;-0.28071216;1.9999964;0.3198624;;;;;;;;;;;;;;;
1449.0;1367.2;;;;-0.26592258;1.9999964;0.29921725;;;;;;;;;;;;;;;
1449.0;1367.2;;;;-0.2531815;1.9999964;0.27775195;;;;;;;;;;;;;;;
1449.0;1367.2;;;;-0.24316409;1.9999964;0.254921;;;;;;;;;;;;;;;
1504.0;1377.2;;;;-0.23649219;1.9999964;0.2322655;;;;;;;;;;;;;;;
1504.0;1377.2;;;;-0.23369983;1.9999964;0.20919803;;;;;;;;;;;;;;;
1504.0;1377.2;;;;-0.23440173;1.9999964;0.18623354;;;;;;;;;;;;;;;
1504.0;1377.2;;;;-0.23851779;1.9999964;0.16423799;;;;;;;;;;;;;;;
1504.0;1377.2;;;;-0.24589923;1.9999964;0.1425667;;;;;;;;;;;;;;;
1504.0;1378.4;;;;;;;;;;;;;;;;;75.50279;-124.54222;-13.145848;;1302.7
1504.0;1378.4;;;;;;;;;;;;;;1.1266823;0.47779778;-1.0052186;;;;;1302.7
1504.0;1378.4;;;;;;;;;;;;;;;;;36.877804;-124.13022;2.334666;;1302.7
1504.0;1378.4;;;;;;;;;;;;;;1.5852535;0.027100436;-0.5170446;;;;;1302.7
1504.0;1378.4;;;;;;;;;;;;;;;;;-48.837246;-102.5193;31.376842;;1312.4
1504.0;1378.4;;;;;;;;;;;;;;1.5468001;-0.71736807;-0.15051728;;;;;1312.4
1504.0;1378.4;;;;;;;;;;;;;;;;;-95.70223;-66.610466;36.427654;;1312.4
1504.0;1378.4;;;;;;;;;;;;;;1.8046205;-1.2147588;0.31928465;;;;;1312.4
1504.0;1378.4;;;;;;;;;;;;;;;;;-56.56224;-13.641774;29.095585;;1322.0
1504.0;1378.4;;;;;;;;;;;;;;1.8229316;-1.1637928;0.7889035;;;;;1322.0
1504.0;1378.4;;;;;;;;;;;;;;;;;-12.310404;14.397107;29.675436;;1322.0
1504.0;1378.4;;;;;;;;;;;;;;1.0805384;-0.8420667;-0.14777063;;;;;1322.0
1504.0;1378.8;254098;254089;14534;;;;;;;;;;;;;;;;;;
1504.0;1387.0;;;;-0.2550278;1.997021;0.12257768;;;;;;;;;;;;;;;
1504.0;1387.0;;;;-0.26448825;1.9854434;0.10308458;;;;;;;;;;;;;;;
1504.0;1387.0;;;;-0.27412036;1.98119;0.08607484;;;;;;;;;;;;;;;
1504.0;1387.0;;;;-0.28350833;1.9817622;0.07151032;;;;;;;;;;;;;;;
1504.0;1387.0;;;;-0.29228976;1.9878237;0.057594307;;;;;;;;;;;;;;;
1508.0;1397.1;;;;-0.30051807;1.9984553;0.0460434;;;;;;;;;;;;;;;
1508.0;1397.1;;;;-0.30738834;1.9999964;0.036739353;;;;;;;;;;;;;;;
1508.0;1397.1;;;;-0.31443408;1.9999964;0.029819492;;;;;;;;;;;;;;;
1508.0;1397.1;;;;-0.3219147;1.9999964;0.02548981;;;;;;;;;;;;;;;
1508.0;1397.1;;;;-0.32852557;1.9999964;0.02340317;;;;;;;;;;;;;;;
1508.0;1399.0;262143;262143;14534;;;;;;;;;;;;;;;;;;
1508.0;1405.3;;;;;;;;;;;;;276;;;;;;;;
1508.0;1405.3;;;;;;;;;;;;;65;;;;;;;;
1508.0;1405.3;;;;;;;;;;;;;-24;;;;;;;;
1508.0;1405.3;;;;;;;;;;;;;320;;;;;;;;
1508.0;1405.3;;;;;;;;;;;;;712;;;;;;;;
1508.0;1407.2;;;;-0.33337024;1.9999964;0.02214432;;;;;;;;;;;;;;;
1508.0;1407.2;;;;-0.337616;1.9999964;0.0230217;;;;;;;;;;;;;;;
1508.0;1407.2;;;;-0.34054187;1.9999964;0.025955204;;;;;;;;;;;;;;;
1508.0;1407.2;;;;-0.34276965;1.9999964;0.02927399;;;;;;;;;;;;;;;
1508.0;1407.2;;;;-0.3443909;1.9999964;0.034416202;;;;;;;;;;;;;;;
1508.0;1417.3;;;;-0.3469582;1.9999964;0.04025269;;;;;;;;;;;;;;;
1508.0;1417.3;;;;-0.3488007;1.9999964;0.046760563;;;;;;;;;;;;;;;
1508.0;1417.3;;;;-0.35093692;1.9999964;0.053806312;;;;;;;;;;;;;;;
1508.0;1417.3;;;;-0.35335925;1.9999964;0.0629387;;;;;;;;;;;;;;;
1508.0;1417.3;;;;-0.3550339;1.9999964;0.07043458;;;;;;;;;;;;;;;
1508.0;1419.3;262143;262143;14533;;;;;;;;;;;;;;;;;;
1511.0;1423.6;;;;;;;;;;;;;;;;;6.5271463;-6.595813;29.026918;;1331.5
1511.0;1423.6;;;;;;;;;;;;;;0.582049;-0.5073397;-0.9895322;;;;;1331.5
1511.0;1423.6;;;;;;;;;;;;;;;;;35.8211;-57.679985;23.216955;;1331.5
1511.0;1423.6;;;;;;;;;;;;;;0.7408063;-0.34369946;-1.2516861;;;;;1331.5
1511.0;1423.6;;;;;;;;;;;;;;;;;84.7232;-95.11475;14.561144;;1341.1
1511.0;1423.6;;;;;;;;;;;;;;1.0685751;-0.17664114;-1.3267007;;;;;1341.1
1511.0;1423.6;;;;;;;;;;;;;;;;;112.25089;-97.071754;10.551775;;1341.1
1511.0;1423.6;;;;;;;;;;;;;;1.327189;0.020447401;-1.2919706;;;;;1341.1
1511.0;1423.6;;;;;;;;;;;;;;;;;109.641556;-82.46483;7.354961;;1350.8
1511.0;1423.6;;;;;;;;;;;;;;1.6774193;0.20093387;-1.226722;;;;;1350.8
1511.0;1423.6;;;;;;;;;;;;;;;;;98.40694;-64.039276;2.4910734;;1350.8
1511.0;1423.6;;;;;;;;;;;;;;1.9747918;0.5498215;-1.101413;;;;;1350.8
1511.0;1427.2;;;;-0.35613254;1.9999964;0.07857514;;;;;;;;;;;;;;;
1511.0;1427.2;;;;-0.35613635;1.9999964;0.087795265;;;;;;;;;;;;;;;
1511.0;1427.2;;;;-0.35543826;1.9999964;0.09756853;;;;;;;;;;;;;;;
1511.0;1427.2;;;;-0.35302356;1.9999964;0.10760118;;;;;;;;;;;;;;;
1511.0;1427.2;;;;-0.34940723;1.9999964;0.11710359;;;;;;;;;;;;;;;
1511.0;1437.1;;;;-0.3437653;1.9999964;0.12656786;;;;;;;;;;;;;;;
1511.0;1437.1;;;;-0.33755878;1.9798281;0.13510515;;;;;;;;;;;;;;;
1511.0;1437.1;;;;-0.33007434;1.9541171;0.14335252;;;;;;;;;;;;;;;
1511.0;1437.1;;;;-0.3217621;1.9290011;0.15132143;;;;;;;;;;;;;;;
1511.0;1437.1;;;;-0.31208423;1.9042552;0.15970232;;;;;;;;;;;;;;;
1562.0;1438.5;;;;;;;;;;;;;;;;;77.25761;-51.88528;-0.44251838;;1360.5
1562.0;1438.5;;;;;;;;;;;;;;1.9945678;1.0278023;-1.0233467;;;;;1360.5
1562.0;1438.5;;;;;;;;;;;;;;;;;45.80828;-33.352917;-1.1139256;;1360.5
1562.0;1438.5;;;;;;;;;;;;;;1.8331248;1.3574022;-0.78060246;;;;;1360.5
1562.0;1438.5;;;;;;;;;;;;;;;;;23.388622;-13.126774;-3.8605914;;1370.1
1562.0;1438.5;;;;;;;;;;;;;;1.5002289;1.6935942;-0.54664755;;;;;1370.1
1562.0;1438.5;;;;;;;;;;;;;;;;;7.168035;-4.5243692;-3.4676657;;1370.1
1562.0;1438.5;;;;;;;;;;;;;;1.1874142;1.8518631;-0.5235145;;;;;1370.1
1562.0;1438.5;;;;;;;;;;;;;;;;;-7.122257;-1.7509995;-9.331035;;1379.8
1562.0;1438.5;;;;;;;;;;;;;;1.0827357;1.8078555;-0.5959044;;;;;1379.8
1562.0;1438.5;;;;;;;;;;;;;;;;;-33.29188;1.7090366;-15.106662;;1379.8
1562.0;1438.5;;;;;;;;;;;;;;1.099643;1.574694;-0.70473343;;;;;1379.8
1562.0;1438.9;262143;262143;14522;;;;;;;;;;;;;;;;;;
1562.0;1445.2;;;;;;;;;;;;;637;;;;;;;;
1562.0;1445.2;;;;;;;;;;;;;231;;;;;;;;
1562.0;1445.2;;;;;;;;;;;;;186;;;;;;;;
1562.0;1445.2;;;;;;;;;;;;;673;;;;;;;;
1562.0;1445.2;;;;;;;;;;;;;1026;;;;;;;;
1562.0;1447.0;;;;-0.30204013;1.879883;0.16736223;;;;;;;;;;;;;;;
1562.0;1447.0;;;;-0.2910271;1.8565485;0.17496873;;;;;;;;;;;;;;;
1562.0;1447.0;;;;-0.27967075;1.8336642;0.18232347;;;;;;;;;;;;;;;
1562.0;1447.0;;;;-0.26823047;1.8112643;0.19021991;;;;;;;;;;;;;;;
1562.0;1447.0;;;;-0.2573891;1.7891238;0.19621661;;;;;;;;;;;;;;;
1564.0;1456.9;;;;-0.24717334;1.7673228;0.20085528;;;;;;;;;;;;;;;
1564.0;1456.9;;;;-0.23825458;1.7456019;0.20509723;;;;;;;;;;;;;;;
1564.0;1456.9;;;;-0.229332;1.7223704;0.20850757;;;;;;;;;;;;;;;
1564.0;1456.9;;;;-0.22109607;1.6993906;0.21121982;;;;;;;;;;;;;;;
1564.0;1456.9;;;;-0.21369937;1.6764529;0.21338275;;;;;;;;;;;;;;;
1564.0;1459.0;262143;262143;14527;;;;;;;;;;;;;;;;;;
1564.0;1467.1;;;;-0.20719913;1.6536524;0.21414188;;;;;;;;;;;;;;;
1564.0;1467.1;;;;-0.2006531;1.6301539;0.21320346;;;;;;;;;;;;;;;
1564.0;1467.1;;;;-0.19554904;1.6065714;0.21011737;;;;;;;;;;;;;;;
1564.0;1467.1;;;;-0.19249728;1.5833476;0.20837787;;;;;;;;;;;;;;;
1564.0;1467.1;;;;-0.19040683;1.5598567;0.20628741;;;;;;;;;;;;;;;
1564.0;1477.1;;;;-0.18930438;1.537144;0.20173267;;;;;;;;;;;;;;;
1564.0;1477.1;;;;-0.18865207;1.5136797;0.19641116;;;;;;;;;;;;;;;
1564.0;1477.1;;;;-0.18888095;1.490616;0.19061282;;;;;;;;;;;;;;;
1564.0;1477.1;;;;-0.19002536;1.4674646;0.18484117;;;;;;;;;;;;;;;
1564.0;1477.1;;;;-0.1927872;1.4447061;0.17861558;;;;;;;;;;;;;;;
1564.0;1479.3;262143;262143;14520;;;;;;;;;;;;;;;;;;
1565.0;1484.1;;;;;;;;;;;;;;;;;-61.586353;9.411145;-15.053254;;1389.4
1565.0;1484.1;;;;;;;;;;;;;;1.1487167;1.0884732;-0.75936157;;;;;1389.4
1565.0;1484.1;;;;;;;;;;;;;;;;;-77.951904;17.29255;-12.096774;;1389.4
1565.0;1484.1;;;;;;;;;;;;;;1.0925016;0.5628834;-0.8172246;;;;;1389.4
1565.0;1484.1;;;;;;;;;;;;;;;;;-76.265755;23.136845;-11.429182;;1399.0
1565.0;1484.1;;;;;;;;;;;;;;1.0140691;0.2351146;-0.8464003;;;;;1399.0
1565.0;1484.1;;;;;;;;;;;;;;;;;-66.50365;24.548326;-11.658071;;1399.0
1565.0;1484.1;;;;;;;;;;;;;;0.9831843;-0.041261025;-0.88717306;;;;;1399.0
1565.0;1484.1;;;;;;;;;;;;;;;;;-55.017242;22.11066;-10.219886;;1408.7
1565.0;1484.1;;;;;;;;;;;;;;1.0276803;-0.23816645;-0.85958433;;;;;1408.7
1565.0;1484.1;;;;;;;;;;;;;;;;;-45.903652;18.066957;-5.4246655;;1408.7
1565.0;1484.1;;;;;;;;;;;;;;1.042024;-0.43952757;-0.76711327;;;;;1408.7
1565.0;1485.4;;;;;;;;;;;;;711;;;;;;;;
1565.0;1485.4;;;;;;;;;;;;;248;;;;;;;;
1565.0;1485.4;;;;;;;;;;;;;348;;;;;;;;
1565.0;1485.4;;;;;;;;;;;;;782;;;;;;;;
1565.0;1485.4;;;;;;;;;;;;;1199;;;;;;;;
1565.0;1487.1;;;;-0.19657138;1.4217073;0.17123033;;;;;;;;;;;;;;;
1565.0;1487.1;;;;-0.20106128;1.3995668;0.16353227;;;;;;;;;;;;;;;
1565.0;1487.1;;;;-0.20505527;1.377678;0.15949632;;;;;;;;;;;;;;;
1565.0;1487.1;;;;-0.21029285;1.3571702;0.15747072;;;;;;;;;;;;;;;
1565.0;1487.1;;;;-0.21533206;1.3376046;0.15314485;;;;;;;;;;;;;;;
1623.0;1491.2;;;;;;;;;;;;;;;;;-38.502914;12.474441;0.93081456;;1418.3
1623.0;1491.2;;;;;;;;;;;;;;1.0633259;-0.61275065;-0.66225165;;;;;1418.3
1623.0;1491.2;;;;;;;;;;;;;;;;;-33.097324;5.6382947;6.5881834;;1418.3
1623.0;1491.2;;;;;;;;;;;;;;1.0589312;-0.7477645;-0.64394057;;;;;1418.3
1623.0;1491.2;;;;;;;;;;;;;;;;;-26.61977;0.07248146;12.867367;;1428.0
1623.0;1491.2;;;;;;;;;;;;;;1.0063784;-0.760094;-0.6607257;;;;;1428.0
1623.0;1491.2;;;;;;;;;;;;;;;;;-20.275734;-3.460036;19.775993;;1428.0
1623.0;1491.2;;;;;;;;;;;;;;0.9255043;-0.68465227;-0.6729942;;;;;1428.0
1623.0;1491.2;;;;;;;;;;;;;;;;;-13.359478;-6.6034427;23.594624;;1437.6
1623.0;1491.2;;;;;;;;;;;;;;0.8443861;-0.60713524;-0.6814783;;;;;1437.6
1623.0;1491.2;;;;;;;;;;;;;;;;;-3.2082584;-9.441664;24.517809;;1437.6
1623.0;1491.2;;;;;;;;;;;;;;0.8001343;-0.55024874;-0.6832484;;;;;1437.6
1623.0;1497.1;;;;-0.2224541;1.3170053;0.14655305;;;;;;;;;;;;;;;
1623.0;1497.1;;;;-0.23059848;1.2966119;0.14123918;;;;;;;;;;;;;;;
1623.0;1497.1;;;;-0.23955157;1.2774278;0.13681032;;;;;;;;;;;;;;;
1623.0;1497.1;;;;-0.24856952;1.2588197;0.13403703;;;;;;;;;;;;;;;
1623.0;1497.1;;;;-0.25560382;1.2409135;0.13212587;;;;;;;;;;;;;;;
1623.0;1499.2;262143;262143;14523;;;;;;;;;;;;;;;;;;
1623.0;1507.1;;;;-0.26225665;1.2231103;0.13017656;;;;;;;;;;;;;;;
1623.0;1507.1;;;;-0.26894;1.2051011;0.12819673;;;;;;;;;;;;;;;
1623.0;1507.1;;;;-0.27717212;1.1882592;0.1250992;;;;;;;;;;;;;;;
1623.0;1507.1;;;;-0.28584293;1.172455;0.12290956;;;;;;;;;;;;;;;
1623.0;1507.1;;;;-0.29475024;1.1562501;0.12232973;;;;;;;;;;;;;;;
1625.0;1516.9;;;;-0.3019028;1.1417962;0.121021286;;;;;;;;;;;;;;;
1625.0;1516.9;;;;-0.30926135;1.1280061;0.120021835;;;;;;;;;;;;;;;
1625.0;1516.9;;;;-0.315609;1.113968;0.11855699;;;;;;;;;;;;;;;
1625.0;1516.9;;;;-0.3220177;1.100834;0.11766054;;;;;;;;;;;;;;;
1625.0;1516.9;;;;-0.3270035;1.0880738;0.1167679;;;;;;;;;;;;;;;
1625.0;1519.2;262143;262143;14522;;;;;;;;;;;;;;;;;;
1625.0;1525.3;;;;;;;;;;;;;1599;;;;;;;;
1625.0;1525.3;;;;;;;;;;;;;2033;;;;;;;;
1625.0;1525.3;;;;;;;;;;;;;2329;;;;;;;;
1625.0;1525.3;;;;;;;;;;;;;2295;;;;;;;;
1625.0;1525.3;;;;;;;;;;;;;2252;;;;;;;;
1625.0;1527.0;;;;-0.33170322;1.0763322;0.115749374;;;;;;;;;;;;;;;
1625.0;1527.0;;;;-0.33541492;1.0651857;0.115158096;;;;;;;;;;;;;;;
1625.0;1527.0;;;;-0.33725742;1.0544244;0.114490524;;;;;;;;;;;;;;;
1625.0;1527.0;;;;-0.3400536;1.0436136;0.11413957;;;;;;;;;;;;;;;
1625.0;1527.0;;;;-0.34229663;1.033455;0.11342622;;;;;;;;;;;;;;;
1625.0;1537.1;;;;-0.34329227;1.0230294;0.112785354;;;;;;;;;;;;;;;
1625.0;1537.1;;;;-0.3446236;1.0126611;0.11195375;;;;;;;;;;;;;;;
1625.0;1537.1;;;;-0.34613422;1.0018846;0.11071779;;;;;;;;;;;;;;;
1625.0;1537.1;;;;-0.34814075;0.99042904;0.108734146;;;;;;;;;;;;;;;
1625.0;1537.1;;;;-0.3497658;0.97963727;0.10745622;;;;;;;;;;;;;;;
1625.0;1539.4;262143;262143;14520;;;;;;;;;;;;;;;;;;
1686.0;1547.2;;;;-0.3493462;0.96808636;0.10504915;;;;;;;;;;;;;;;
1686.0;1547.2;;;;-0.3505707;0.9565736;0.10296632;;;;;;;;;;;;;;;
1686.0;1547.2;;;;-0.35157397;0.9452058;0.10083009;;;;;;;;;;;;;;;
1686.0;1547.2;;;;-0.3517609;0.9341012;0.09922029;;;;;;;;;;;;;;;
1686.0;1547.2;;;;-0.35138324;0.9236337;0.096900955;;;;;;;;;;;;;;;
1686.0;1557.3;;;;-0.3507004;0.91399014;0.09414293;;;;;;;;;;;;;;;
1686.0;1557.3;;;;-0.3499947;0.9048768;0.09108735;;;;;;;;;;;;;;;
1686.0;1557.3;;;;-0.34832004;0.89587414;0.08833314;;;;;;;;;;;;;;;
1686.0;1557.3;;;;-0.345974;0.8849374;0.08171464;;;;;;;;;;;;;;;
1686.0;1557.3;;;;-0.34235767;0.8780595;0.08279801;;;;;;;;;;;;;;;
1686.0;1559.5;262143;262143;14528;;;;;;;;;;;;;;;;;;
1686.0;1565.7;;;;;;;;;;;;;2138;;;;;;;;
1686.0;1565.7;;;;;;;;;;;;;1480;;;;;;;;
1686.0;1565.7;;;;;;;;;;;;;784;;;;;;;;
1686.0;1565.7;;;;;;;;;;;;;1893;;;;;;;;
1686.0;1565.7;;;;;;;;;;;;;4291;;;;;;;;
1686.0;1567.3;;;;-0.33864978;0.87360775;0.081687935;;;;;;;;;;;;;;;
1686.0;1567.3;;;;-0.3363457;0.868065;0.0776291;;;;;;;;;;;;;;;
1686.0;1567.3;;;;-0.3358765;0.86306393;0.07215882;;;;;;;;;;;;;;;
1686.0;1567.3;;;;-0.33574298;0.8577539;0.06684495;;;;;;;;;;;;;;;
1686.0;1567.3;;;;-0.33353427;0.8524476;0.06440354;;;;;;;;;;;;;;;
1688.0;1577.3;;;;-0.3302994;0.84848416;0.06166459;;;;;;;;;;;;;;;
1688.0;1577.3;;;;-0.32683948;0.8448297;0.056064613;;;;;;;;;;;;;;;
1688.0;1577.3;;;;-0.32333377;0.8397218;0.05126191;;;;;;;;;;;;;;;
1688.0;1577.3;;;;-0.32048038;0.8349725;0.044822697;;;;;;;;;;;;;;;
1688.0;1577.3;;;;-0.31686023;0.8302995;0.040866856;;;;;;;;;;;;;;;
1688.0;1579.7;262143;262143;14540;;;;;;;;;;;;;;;;;;
1688.0;1587.4;;;;-0.31182864;0.82574475;0.03828812;;;;;;;;;;;;;;;
1688.0;1587.4;;;;-0.30561832;0.8212396;0.03741837;;;;;;;;;;;;;;;
1688.0;1587.4;;;;-0.30007938;0.81676495;0.033435825;;;;;;;;;;;;;;;
1688.0;1587.4;;;;-0.29468158;0.8115388;0.028415684;;;;;;;;;;;;;;;
1688.0;1587.4;;;;-0.2905846;0.8054086;0.022464754;;;;;;;;;;;;;;;
1688.0;1597.5;;;;-0.28504184;0.79957974;0.019088747;;;;;;;;;;;;;;;
1688.0;1597.5;;;;-0.27891925;0.79420865;0.017383577;;;;;;;;;;;;;;;
1688.0;1597.5;;;;-0.2784386;0.78912747;0.017021181;;;;;;;;;;;;;;;
1688.0;1597.5;;;;-0.278698;0.78652585;0.019409182;;;;;;;;;;;;;;;
1688.0;1597.5;;;;-0.274704;0.7841836;0.015792849;;;;;;;;;;;;;;;
1688.0;1600.0;262143;262143;14518;;;;;;;;;;;;;;;;;;
1688.0;1606.1;;;;;;;;;;;;;403;;;;;;;;
1688.0;1606.1;;;;;;;;;;;;;-15460;;;;;;;;
1688.0;1606.1;;;;;;;;;;;;;-33335;;;;;;;;
1688.0;1606.1;;;;;;;;;;;;;-35007;;;;;;;;
1688.0;1606.1;;;;;;;;;;;;;-16232;;;;;;;;
1748.0;1607.6;;;;-0.26811603;0.7798883;0.009532929;;;;;;;;;;;;;;;
1748.0;1607.6;;;;-0.26287082;0.7726518;0.0021171572;;;;;;;;;;;;;;;
1748.0;1607.6;;;;-0.2571068;0.7645761;-0.004375458;;;;;;;;;;;;;;;
1748.0;1607.6;;;;-0.24935916;0.75729;-0.009864808;;;;;;;;;;;;;;;
1748.0;1607.6;;;;-0.241581;0.7507707;-0.013442995;;;;;;;;;;;;;;;
1748.0;1617.7;;;;-0.23280719;0.7445641;-0.017189028;;;;;;;;;;;;;;;
1748.0;1617.7;;;;-0.22206119;0.73915106;-0.020511629;;;;;;;;;;;;;;;
1748.0;1617.7;;;;-0.21079257;0.7336884;-0.023860935;;;;;;;;;;;;;;;
1748.0;1617.7;;;;-0.19987872;0.7282639;-0.026271824;;;;;;;;;;;;;;;
1748.0;1617.7;;;;-0.18876651;0.7231255;-0.028110508;;;;;;;;;;;;;;;
1748.0;1620.2;262143;262143;14520;;;;;;;;;;;;;;;;;;
1748.0;1627.5;;;;-0.178154;0.71760947;-0.02960587;;;;;;;;;;;;;;;
1748.0;1627.5;;;;-0.16714479;0.7118073;-0.030937199;;;;;;;;;;;;;;;
1748.0;1627.5;;;;-0.15781786;0.70517737;-0.033119205;;;;;;;;;;;;;;;
1748.0;1627.5;;;;-0.14955522;0.6984711;-0.034793857;;;;;;;;;;;;;;;
1748.0;1627.5;;;;-0.14191438;0.6906968;-0.036415104;;;;;;;;;;;;;;;
1748.0;1637.4;;;;-0.13604356;0.6825982;-0.0386467;;;;;;;;;;;;;;;
1748.0;1637.4;;;;-0.13227464;0.67363745;-0.040718082;;;;;;;;;;;;;;;
1748.0;1637.4;;;;-0.12924577;0.66437155;-0.04243088;;;;;;;;;;;;;;;
1748.0;1637.4;;;;-0.12601472;0.6545258;-0.0437851;;;;;;;;;;;;;;;
1748.0;1637.4;;;;-0.123115554;0.64645773;-0.045867924;;;;;;;;;;;;;;;
1749.0;1640.0;262143;262143;14517;;;;;;;;;;;;;;;;;;
1749.0;1646.1;;;;;;;;;;;;;6791;;;;;;;;
1749.0;1646.1;;;;;;;;;;;;;16391;;;;;;;;
1749.0;1646.1;;;;;;;;;;;;;11961;;;;;;;;
1749.0;1646.1;;;;;;;;;;;;;5156;;;;;;;;
1749.0;1646.1;;;;;;;;;;;;;2868;;;;;;;;
1749.0;1647.5;;;;-0.12125398;0.6387482;-0.049854286;;;;;;;;;;;;;;;
1749.0;1647.5;;;;-0.11872102;0.631424;-0.055690773;;;;;;;;;;;;;;;
1749.0;1647.5;;;;-0.11576845;0.62424856;-0.060466774;;;;;;;;;;;;;;;
1749.0;1647.5;;;;-0.1120453;0.61731726;-0.063838966;;;;;;;;;;;;;;;
1749.0;1647.5;;;;-0.108230606;0.6115151;-0.06746674;;;;;;;;;;;;;;;
1749.0;1657.6;;;;-0.10383226;0.6060181;-0.070465095;;;;;;;;;;;;;;;
1749.0;1657.6;;;;-0.09912111;0.60132986;-0.07413102;;;;;;;;;;;;;;;
1749.0;1657.6;;;;-0.09458543;0.5967713;-0.07793046;;;;;;;;;;;;;;;
1749.0;1657.6;;;;-0.08983994;0.5927239;-0.08161927;;;;;;;;;;;;;;;
1749.0;1657.6;;;;-0.08524705;0.58850485;-0.084255226;;;;;;;;;;;;;;;
1749.0;1660.2;262143;262143;14518;;;;;;;;;;;;;;;;;;
1749.0;1667.7;;;;-0.08040238;0.58388144;-0.08726884;;;;;;;;;;;;;;;
1749.0;1667.7;;;;-0.07675172;0.5794602;-0.09035493;;;;;;;;;;;;;;;
1749.0;1667.7;;;;-0.073169716;0.574791;-0.09383012;;;;;;;;;;;;;;;
1749.0;1667.7;;;;-0.0697403;0.56974417;-0.09686281;;;;;;;;;;;;;;;
1749.0;1667.7;;;;-0.06764222;0.5646401;-0.09984209;;;;;;;;;;;;;;;
1753.0;1672.2;;;;;;;;;;;;;;;;;11.036257;-12.859736;22.717215;;1447.2
1753.0;1672.2;;;;;;;;;;;;;;0.81948304;-0.43452254;-0.70870084;;;;;1447.2
1753.0;1672.2;;;;;;;;;;;;;;;;;24.742882;-15.04181;19.47844;;1447.2
1753.0;1672.2;;;;;;;;;;;;;;0.85830253;-0.35047457;-0.8297983;;;;;1447.2
1753.0;1672.2;;;;;;;;;;;;;;;;;36.729027;-11.215552;16.132847;;1456.9
1753.0;1672.2;;;;;;;;;;;;;;0.85085607;-0.3173925;-0.90285957;;;;;1456.9
1753.0;1672.2;;;;;;;;;;;;;;;;;48.85632;-7.0535903;11.741997;;1456.9
1753.0;1672.2;;;;;;;;;;;;;;0.854091;-0.33136997;-0.9301431;;;;;1456.9
1753.0;1672.2;;;;;;;;;;;;;;;;;60.0795;-2.3079624;7.209998;;1466.5
1753.0;1672.2;;;;;;;;;;;;;;0.8499405;-0.29523605;-0.88125247;;;;;1466.5
1753.0;1672.2;;;;;;;;;;;;;;;;;69.36475;2.5673697;3.238777;;1466.5
1753.0;1672.2;;;;;;;;;;;;;;0.8404187;-0.25446334;-0.8272958;;;;;1466.5
1753.0;1673.0;;;;;;;;;;;;;;;;;75.128944;9.0983305;0.42725915;;1476.1
1753.0;1673.0;;;;;;;;;;;;;;0.79445785;-0.17267373;-0.74813074;;;;;1476.1
1753.0;1673.0;;;;;;;;;;;;;;;;;78.2609;14.919737;-1.3809626;;1476.1
1753.0;1673.0;;;;;;;;;;;;;;0.7365337;-0.11291849;-0.65346235;;;;;1476.1
1753.0;1673.0;;;;;;;;;;;;;;;;;80.19501;17.429884;-1.6060365;;1485.7
1753.0;1673.0;;;;;;;;;;;;;;0.71486557;-0.06872769;-0.60121465;;;;;1485.7
1753.0;1673.0;;;;;;;;;;;;;;;;;80.22172;17.60155;-0.16022217;;1485.7
1753.0;1673.0;;;;;;;;;;;;;;0.69411296;-0.019898068;-0.585284;;;;;1485.7
1753.0;1673.0;;;;;;;;;;;;;;;;;79.710526;17.490921;2.0256662;;1495.4
1753.0;1673.0;;;;;;;;;;;;;;0.67146826;0.07837153;-0.53364664;;;;;1495.4
1753.0;1673.0;;;;;;;;;;;;;;;;;75.9415;13.641774;6.14948;;1495.4
1753.0;1673.0;;;;;;;;;;;;;;0.68568987;0.14911343;-0.5229652;;;;;1495.4
1756.0;1673.8;;;;;;;;;;;;;;;;;71.3332;9.296701;12.653737;;1505.1
1756.0;1673.8;;;;;;;;;;;;;;0.74184394;0.23804438;-0.5211341;;;;;1505.1
1756.0;1673.8;;;;;;;;;;;;;;;;;67.61376;6.576739;18.337809;;1505.1
1756.0;1673.8;;;;;;;;;;;;;;0.74471265;0.32258064;-0.4969634;;;;;1505.1
1756.0;1673.8;;;;;;;;;;;;;;;;;62.589645;2.9984436;21.759699;;1514.7
1756.0;1673.8;;;;;;;;;;;;;;0.77962583;0.4090701;-0.5135655;;;;;1514.7
1756.0;1673.8;;;;;;;;;;;;;;;;;57.22602;0.038148135;26.680807;;1514.7
1756.0;1673.8;;;;;;;;;;;;;;0.8197882;0.46351513;-0.51582384;;;;;1514.7
1756.0;1673.8;;;;;;;;;;;;;;;;;49.783318;-2.254555;31.136509;;1524.3
1756.0;1673.8;;;;;;;;;;;;;;0.8222907;0.50215155;-0.46797082;;;;;1524.3
1756.0;1673.8;;;;;;;;;;;;;;;;;40.952023;-4.3755913;35.267952;;1524.3
1756.0;1673.8;;;;;;;;;;;;;;0.84182256;0.51680046;-0.43537706;;;;;1524.3
1756.0;1674.5;;;;;;;;;;;;;;;;;31.979584;-4.772332;39.033173;;1534.0
1756.0;1674.5;;;;;;;;;;;;;;0.8465834;0.5261391;-0.40632343;;;;;1534.0
1756.0;1674.5;;;;;;;;;;;;;;;;;23.216955;-4.299295;42.21473;;1534.0
1756.0;1674.5;;;;;;;;;;;;;;0.8372448;0.5445723;-0.3818476;;;;;1534.0
1756.0;1674.5;;;;;;;;;;;;;;;;;15.243996;-3.3989992;44.6028;;1543.6
1756.0;1674.5;;;;;;;;;;;;;;0.8246101;0.53621024;-0.36548966;;;;;1543.6
1756.0;1674.5;;;;;;;;;;;;;;;;;8.873257;-2.475814;46.128727;;1543.6
1756.0;1674.5;;;;;;;;;;;;;;0.8085574;0.49439985;-0.36219367;;;;;1543.6
1756.0;1674.5;;;;;;;;;;;;;;;;;4.467147;-1.2855922;46.628468;;1553.2
1756.0;1674.5;;;;;;;;;;;;;;0.78792685;0.46473587;-0.35859248;;;;;1553.2
1756.0;1674.5;;;;;;;;;;;;;;;;;0.82399976;0.37003693;46.697136;;1553.2
1756.0;1674.5;;;;;;;;;;;;;;0.7592395;0.44013795;-0.3457747;;;;;1553.2
1757.0;1675.4;;;;;;;;;;;;;;;;;-2.1629994;1.9112216;46.262245;;1562.9
1757.0;1675.4;;;;;;;;;;;;;;0.73281044;0.4177984;-0.32923368;;;;;1562.9
1757.0;1675.4;;;;;;;;;;;;;;;;;-4.215369;3.8186285;45.567947;;1562.9
1757.0;1675.4;;;;;;;;;;;;;;0.7098605;0.3864864;-0.3197119;;;;;1562.9
1757.0;1675.4;;;;;;;;;;;;;;;;;-4.902035;5.901517;44.4998;;1572.6
1757.0;1675.4;;;;;;;;;;;;;;0.68044066;0.36414686;-0.3119602;;;;;1572.6
1757.0;1675.4;;;;;;;;;;;;;;;;;-4.379406;7.8089237;43.27143;;1572.6
1757.0;1675.4;;;;;;;;;;;;;;0.64082766;0.34681234;-0.31897947;;;;;1572.6
1757.0;1675.4;;;;;;;;;;;;;;;;;-2.5482955;9.380627;41.665394;;1582.3
1757.0;1675.4;;;;;;;;;;;;;;0.5948058;0.3063448;-0.3370464;;;;;1582.3
1757.0;1675.4;;;;;;;;;;;;;;;;;0.8163701;10.124516;39.574875;;1582.3
1757.0;1675.4;;;;;;;;;;;;;;0.5387738;0.30030215;-0.35718864;;;;;1582.3
1757.0;1676.2;;;;;;;;;;;;;;;;;4.6578875;9.403516;37.339397;;1591.9
1757.0;1676.2;;;;;;;;;;;;;;0.49391156;0.29023102;-0.37055573;;;;;1591.9
1757.0;1676.2;;;;;;;;;;;;;;;;;8.030183;8.117924;35.02762;;1591.9
1757.0;1676.2;;;;;;;;;;;;;;0.46681112;0.30890834;-0.35456404;;;;;1591.9
1757.0;1676.2;;;;;;;;;;;;;;;;;9.609516;6.084628;33.127842;;1601.6
1757.0;1676.2;;;;;;;;;;;;;;0.4477676;0.2936491;-0.33692434;;;;;1601.6
1757.0;1676.2;;;;;;;;;;;;;;;;;8.89233;4.50148;31.315807;;1601.6
1757.0;1676.2;;;;;;;;;;;;;;0.44380015;0.29651785;-0.3136082;;;;;1601.6
1757.0;1676.2;;;;;;;;;;;;;;;;;5.8175907;3.3989992;29.931028;;1611.2
1757.0;1676.2;;;;;;;;;;;;;;0.4203009;0.3068331;-0.29755548;;;;;1611.2
1757.0;1676.2;;;;;;;;;;;;;;;;;1.2131108;0.7553331;28.86288;;1611.2
1757.0;1676.2;;;;;;;;;;;;;;0.40101323;0.3154393;-0.32410657;;;;;1611.2
1806.0;1677.5;;;;-0.066558845;0.559681;-0.10406114;;;;;;;;;;;;;;;
1806.0;1677.5;;;;-0.066322334;0.5548287;-0.1084366;;;;;;;;;;;;;;;
1806.0;1677.5;;;;-0.066429146;0.5503617;-0.11291887;;;;;;;;;;;;;;;
1806.0;1677.5;;;;-0.06582261;0.54621893;-0.117446914;;;;;;;;;;;;;;;
1806.0;1677.5;;;;-0.066391;0.5422898;-0.1216736;;;;;;;;;;;;;;;
1806.0;1680.0;262143;262143;14529;;;;;;;;;;;;;;;;;;
1806.0;1686.1;;;;;;;;;;;;;2628;;;;;;;;
1806.0;1686.1;;;;;;;;;;;;;1952;;;;;;;;
1806.0;1686.1;;;;;;;;;;;;;1619;;;;;;;;
1806.0;1686.1;;;;;;;;;;;;;1624;;;;;;;;
1806.0;1686.1;;;;;;;;;;;;;1427;;;;;;;;
1806.0;1687.3;;;;-0.067947395;0.5388184;-0.1263199;;;;;;;;;;;;;;;
1806.0;1687.3;;;;-0.06940461;0.5355492;-0.13203813;;;;;;;;;;;;;;;
1806.0;1687.3;;;;-0.07088471;0.53319937;-0.1380272;;;;;;;;;;;;;;;
1806.0;1687.3;;;;-0.07125092;0.53116614;-0.14186479;;;;;;;;;;;;;;;
1806.0;1687.3;;;;-0.07053376;0.5301247;-0.14504243;;;;;;;;;;;;;;;
1806.0;1697.0;;;;-0.07046891;0.528843;-0.14800645;;;;;;;;;;;;;;;
1806.0;1697.0;;;;-0.06985093;0.5272561;-0.14993669;;;;;;;;;;;;;;;
1806.0;1697.0;;;;-0.06912232;0.5262452;-0.15179445;;;;;;;;;;;;;;;
1806.0;1697.0;;;;-0.06962205;0.5257035;-0.15429308;;;;;;;;;;;;;;;
1806.0;1697.0;;;;-0.069587715;0.52439886;-0.15616609;;;;;;;;;;;;;;;
1806.0;1699.7;262143;262143;14523;;;;;;;;;;;;;;;;;;
1808.0;1707.1;;;;-0.07020951;0.52421194;-0.15675737;;;;;;;;;;;;;;;
1808.0;1707.1;;;;-0.071731575;0.5239602;-0.15736772;;;;;;;;;;;;;;;
1808.0;1707.1;;;;-0.072616585;0.52286154;-0.1578293;;;;;;;;;;;;;;;
1808.0;1707.1;;;;-0.073184974;0.52320105;-0.15796663;;;;;;;;;;;;;;;
1808.0;1707.1;;;;-0.07371522;0.52421194;-0.15734865;;;;;;;;;;;;;;;
1808.0;1717.3;;;;-0.073429115;0.5248185;-0.15684511;;;;;;;;;;;;;;;
1808.0;1717.3;;;;-0.074565895;0.52529913;-0.15578462;;;;;;;;;;;;;;;
1808.0;1717.3;;;;-0.076068886;0.5268441;-0.15472414;;;;;;;;;;;;;;;
1808.0;1717.3;;;;-0.07674409;0.52727515;-0.15334322;;;;;;;;;;;;;;;
1808.0;1717.3;;;;-0.07718659;0.52696997;-0.15234376;;;;;;;;;;;;;;;
1808.0;1720.0;262143;262143;14516;;;;;;;;;;;;;;;;;;
1808.0;1726.1;;;;;;;;;;;;;1019;;;;;;;;
1808.0;1726.1;;;;;;;;;;;;;534;;;;;;;;
1808.0;1726.1;;;;;;;;;;;;;204;;;;;;;;
1808.0;1726.1;;;;;;;;;;;;;-115;;;;;;;;
1808.0;1726.1;;;;;;;;;;;;;-674;;;;;;;;
1808.0;1727.3;;;;-0.077667244;0.52696615;-0.15114214;;;;;;;;;;;;;;;
1808.0;1727.3;;;;-0.078342445;0.52665716;-0.15032579;;;;;;;;;;;;;;;
1808.0;1727.3;;;;-0.079154976;0.52616125;-0.14981462;;;;;;;;;;;;;;;
1808.0;1727.3;;;;-0.08002473;0.52517706;-0.14820863;;;;;;;;;;;;;;;
1808.0;1727.3;;;;-0.08092118;0.5238114;-0.14710237;;;;;;;;;;;;;;;
1810.0;1737.4;;;;-0.081565864;0.5215836;-0.14594652;;;;;;;;;;;;;;;
1810.0;1737.4;;;;-0.08337403;0.5198098;-0.14525224;;;;;;;;;;;;;;;
1810.0;1737.4;;;;-0.08475114;0.5179787;-0.14502718;;;;;;;;;;;;;;;
1810.0;1737.4;;;;-0.08645631;0.5151406;-0.14448167;;;;;;;;;;;;;;;
1810.0;1737.4;;;;-0.088031776;0.5126;-0.14355089;;;;;;;;;;;;;;;
1810.0;1737.5;;;;;;;;;;-0.28992584;18.360699;-2.5292215;;;;;;;;;
1810.0;1737.5;;;;;;;0.25647756;-0.3757439;0.27259132;;;;;;;;;;;;
1810.0;1737.5;;;;;;;;;;7.759331;30.453657;8.011109;;;;;;;;;
1810.0;1737.5;;;;;;;0.29651785;-0.4095584;0.29096347;;;;;;;;;;;;
1810.0;1739.9;;;;;;;;;;;;;;;;;-4.226814;-2.1095922;27.661213;;1620.7
1810.0;1739.9;;;;;;;;;;;;;;0.39014864;0.3305765;-0.35206154;;;;;1620.7
1810.0;1739.9;;;;;;;;;;;;;;;;;-9.9642935;-4.8982205;26.20014;;1620.7
1810.0;1739.9;;;;;;;;;;;;;;0.3852046;0.35743278;-0.36811426;;;;;1620.7
1810.0;1739.9;;;;;;;;;;;;;;;;;-14.378033;-7.435072;24.197363;;1630.3
1810.0;1739.9;;;;;;;;;;;;;;0.38575396;0.38721886;-0.40406507;;;;;1630.3
1810.0;1739.9;;;;;;;;;;;;;;;;;-14.919737;-9.437849;21.031069;;1630.3
1810.0;1739.9;;;;;;;;;;;;;;0.38380077;0.42982268;-0.42579424;;;;;1630.3
1810.0;1739.9;;;;;;;;;;;;;;;;;-14.164403;-11.98996;16.895811;;1639.8
1810.0;1739.9;;;;;;;;;;;;;;0.40913114;0.4897;-0.4676046;;;;;1639.8
1810.0;1739.9;;;;;;;;;;;;;;;;;-12.836848;-13.470107;12.333293;;1639.8
1810.0;1739.9;;;;;;;;;;;;;;0.427076;0.54371774;-0.5122837;;;;;1639.8
1810.0;1740.2;262143;262143;14516;;;;;;;;;;;;;;;;;;
1867.0;1741.1;;;;;;;;;;;;;;;;;-9.796441;-15.484328;7.389294;;1649.5
1867.0;1741.1;;;;;;;;;;;;;;0.43342388;0.6108585;-0.5545213;;;;;1649.5
1867.0;1741.1;;;;;;;;;;;;;;;;;-6.9734793;-17.42607;2.2278512;;1649.5
1867.0;1741.1;;;;;;;;;;;;;;0.43269143;0.6862392;-0.5876034;;;;;1649.5
1867.0;1741.1;;;;;;;;;;;;;;;;;-5.3559985;-19.520401;-2.822962;;1659.2
1867.0;1741.1;;;;;;;;;;;;;;0.42475662;0.74221015;-0.5984069;;;;;1659.2
1867.0;1741.1;;;;;;;;;;;;;;;;;-6.3554797;-21.458328;-7.099368;;1659.2
1867.0;1741.1;;;;;;;;;;;;;;0.43739128;0.77053136;-0.5797296;;;;;1659.2
1867.0;1741.1;;;;;;;;;;;;;;;;;-10.242775;-22.499771;-10.361034;;1668.8
1867.0;1741.1;;;;;;;;;;;;;;0.45136875;0.7663808;-0.54573196;;;;;1668.8
1867.0;1741.1;;;;;;;;;;;;;;;;;-16.07944;-21.767328;-12.88644;;1668.8
1867.0;1741.1;;;;;;;;;;;;;;0.47224343;0.73000276;-0.5044099;;;;;1668.8
1867.0;1746.8;;;;;;;;;;2.0485551;-2.5711844;1.33137;;;;;;;;;
1867.0;1746.8;;;;;;;0.30591753;-0.39594713;0.27564317;;;;;;;;;;;;
1867.0;1746.8;;;;;;;;;;8.007294;-5.367443;3.543962;;;;;;;;;
1867.0;1746.8;;;;;;;0.31470686;-0.38166448;0.26459548;;;;;;;;;;;;
1867.0;1747.1;;;;-0.09009553;0.509636;-0.14342119;;;;;;;;;;;;;;;
1867.0;1747.1;;;;-0.09204865;0.5066529;-0.14224245;;;;;;;;;;;;;;;
1867.0;1747.1;;;;-0.093666084;0.5038987;-0.14171983;;;;;;;;;;;;;;;
1867.0;1747.1;;;;-0.09679033;0.5010529;-0.14176942;;;;;;;;;;;;;;;
1867.0;1747.1;;;;-0.0988846;0.49841315;-0.14192201;;;;;;;;;;;;;;;
1867.0;1756.2;;;;;;;;;;10.036775;-21.893217;-1.3771478;;;;;;;;;
1867.0;1756.2;;;;;;;0.32325205;-0.36945707;0.25305948;;;;;;;;;;;;
1867.0;1756.2;;;;;;;;;;6.7369614;-72.58064;-28.736992;;;;;;;;;
1867.0;1756.2;;;;;;;0.3305765;-0.357799;0.24201179;;;;;;;;;;;;
1868.0;1757.1;;;;-0.100124374;0.49594504;-0.14135744;;;;;;;;;;;;;;;
1868.0;1757.1;;;;-0.10251619;0.4931603;-0.141243;;;;;;;;;;;;;;;
1868.0;1757.1;;;;-0.104217544;0.49102026;-0.14128877;;;;;;;;;;;;;;;
1868.0;1757.1;;;;-0.10522844;0.48913962;-0.14035799;;;;;;;;;;;;;;;
1868.0;1757.1;;;;-0.10691072;0.48699194;-0.13978197;;;;;;;;;;;;;;;
1868.0;1760.0;262143;262143;14514;;;;;;;;;;;;;;;;;;
1868.0;1765.8;;;;;;;;;;7.969146;-85.68072;-34.390545;;;;;;;;;
1868.0;1765.8;;;;;;;0.33845028;-0.34662923;0.23261207;;;;;;;;;;;;
1868.0;1765.8;;;;;;;;;;9.052553;-95.78997;-39.864803;;;;;;;;;
1868.0;1765.8;;;;;;;0.34882656;-0.33698538;0.22418897;;;;;;;;;;;;
1868.0;1766.1;;;;;;;;;;;;;-1327;;;;;;;;
1868.0;1766.1;;;;;;;;;;;;;-1905;;;;;;;;
1868.0;1766.1;;;;;;;;;;;;;-2545;;;;;;;;
1868.0;1766.1;;;;;;;;;;;;;-3423;;;;;;;;
1868.0;1766.1;;;;;;;;;;;;;-4393;;;;;;;;
1868.0;1767.2;;;;-0.108425155;0.48439795;-0.13880159;;;;;;;;;;;;;;;
1868.0;1767.2;;;;-0.11091234;0.48158652;-0.13768007;;;;;;;;;;;;;;;
1868.0;1767.2;;;;-0.1144333;0.4781075;-0.13749315;;;;;;;;;;;;;;;
1868.0;1767.2;;;;-0.11735536;0.47491843;-0.13679124;;;;;;;;;;;;;;;
1868.0;1767.2;;;;-0.12014772;0.47134405;-0.13536073;;;;;;;;;;;;;;;
1868.0;1775.4;;;;;;;;;;9.331035;-93.48201;-39.155247;;;;;;;;;
1868.0;1775.4;;;;;;;0.3587756;-0.3300882;0.21765801;;;;;;;;;;;;
1868.0;1775.4;;;;;;;;;;8.743553;-80.73672;-34.447765;;;;;;;;;
1868.0;1775.4;;;;;;;0.36829737;-0.32447278;0.21356852;;;;;;;;;;;;
1870.0;1777.3;;;;-0.12287523;0.46845633;-0.13324739;;;;;;;;;;;;;;;
1870.0;1777.3;;;;-0.12654497;0.46491247;-0.13241197;;;;;;;;;;;;;;;
1870.0;1777.3;;;;-0.12968828;0.46165472;-0.13079835;;;;;;;;;;;;;;;
1870.0;1777.3;;;;-0.13422395;0.4581948;-0.12956621;;;;;;;;;;;;;;;
1870.0;1777.3;;;;-0.1379738;0.45419317;-0.12816621;;;;;;;;;;;;;;;
1870.0;1780.2;262143;262143;14523;;;;;;;;;;;;;;;;;;
1870.0;1785.0;;;;;;;;;;8.247627;-73.206276;-34.482098;;;;;;;;;
1870.0;1785.0;;;;;;;0.37775812;-0.31989503;0.21002838;;;;;;;;;;;;
1870.0;1785.0;;;;;;;;;;7.698294;-65.08454;-34.432507;;;;;;;;;
1870.0;1785.0;;;;;;;0.38514358;-0.31879634;0.20838039;;;;;;;;;;;;
1870.0;1787.4;;;;-0.14035036;0.45171744;-0.12532426;;;;;;;;;;;;;;;
1870.0;1787.4;;;;-0.14375688;0.44960028;-0.12316896;;;;;;;;;;;;;;;
1870.0;1787.4;;;;-0.14832307;0.44668204;-0.121418014;;;;;;;;;;;;;;;
1870.0;1787.4;;;;-0.15195467;0.44421774;-0.12069704;;;;;;;;;;;;;;;
1870.0;1787.4;;;;-0.15479662;0.4423905;-0.118194595;;;;;;;;;;;;;;;
1871.0;1792.1;;;;;;;;;;;;;;;;;-23.186438;-19.077885;-14.64507;;1678.4
1871.0;1792.1;;;;;;;;;;;;;;0.4664449;0.6783654;-0.44312876;;;;;1678.4
1871.0;1792.1;;;;;;;;;;;;;;;;;-30.137028;-16.872921;-16.224403;;1678.4
1871.0;1792.1;;;;;;;;;;;;;;0.49360636;0.649617;-0.39301735;;;;;1678.4
1871.0;1792.1;;;;;;;;;;;;;;;;;-38.731804;-11.9556265;-17.128513;;1688.0
1871.0;1792.1;;;;;;;;;;;;;;0.5478072;0.59181494;-0.344615;;;;;1688.0
1871.0;1792.1;;;;;;;;;;;;;;;;;-47.029022;-5.989258;-17.693106;;1688.0
1871.0;1792.1;;;;;;;;;;;;;;0.5795465;0.52308726;-0.35242775;;;;;1688.0
1871.0;1792.1;;;;;;;;;;;;;;;;;-51.564835;0.3357036;-19.421217;;1697.5
1871.0;1792.1;;;;;;;;;;;;;;0.5591601;0.47737053;-0.3609119;;;;;1697.5
1871.0;1792.1;;;;;;;;;;;;;;;;;-53.77743;4.951628;-21.835995;;1697.5
1871.0;1792.1;;;;;;;;;;;;;;0.5431684;0.42048404;-0.34943694;;;;;1697.5
1871.0;1792.8;;;;;;;;;;;;;;;;;-55.471203;7.1832943;-25.26551;;1707.2
1871.0;1792.8;;;;;;;;;;;;;;0.5326701;0.34748375;-0.3336894;;;;;1707.2
1871.0;1792.8;;;;;;;;;;;;;;;;;-55.15839;7.3816648;-29.416029;;1707.2
1871.0;1792.8;;;;;;;;;;;;;;0.54158145;0.29169592;-0.31977293;;;;;1707.2
1871.0;1792.8;;;;;;;;;;;;;;;;;-51.45421;8.560442;-33.29188;;1716.8
1871.0;1792.8;;;;;;;;;;;;;;0.5335856;0.25336465;-0.28266242;;;;;1716.8
1871.0;1792.8;;;;;;;;;;;;;;;;;-45.5298;10.284738;-36.86636;;1716.8
1871.0;1792.8;;;;;;;;;;;;;;0.51405376;0.21375164;-0.28315073;;;;;1716.8
1871.0;1792.8;;;;;;;;;;;;;;;;;-38.342693;13.191626;-41.329693;;1726.5
1871.0;1792.8;;;;;;;;;;;;;;0.49201941;0.16608173;-0.2707602;;;;;1726.5
1871.0;1792.8;;;;;;;;;;;;;;;;;-29.755548;13.012329;-45.7358;;1726.5
1871.0;1792.8;;;;;;;;;;;;;;0.47181615;0.14349803;-0.291818;;;;;1726.5
1926.0;1794.4;;;;;;;;;;7.019257;-56.340984;-34.249397;;;;;;;;;
1926.0;1794.4;;;;;;;0.39210182;-0.31666005;0.20850246;;;;;;;;;;;;
1926.0;1794.4;;;;;;;;;;6.2944427;-47.27317;-34.00525;;;;;;;;;
1926.0;1794.4;;;;;;;0.39796138;-0.31849116;0.20825832;;;;;;;;;;;;
1926.0;1797.3;;;;-0.15839387;0.4411164;-0.11601259;;;;;;;;;;;;;;;
1926.0;1797.3;;;;-0.16157915;0.44028097;-0.113086715;;;;;;;;;;;;;;;
1926.0;1797.3;;;;-0.16390611;0.4398957;-0.11021425;;;;;;;;;;;;;;;
1926.0;1797.3;;;;-0.16577913;0.44076544;-0.10788728;;;;;;;;;;;;;;;
1926.0;1797.3;;;;-0.1664734;0.44177634;-0.10554887;;;;;;;;;;;;;;;
1926.0;1800.1;262143;262143;14520;;;;;;;;;;;;;;;;;;
1926.0;1803.9;;;;;;;;;;5.5619984;-37.957397;-33.66192;;;;;;;;;
1926.0;1803.9;;;;;;;0.40278327;-0.32007813;0.2069155;;;;;;;;;;;;
1926.0;1803.9;;;;;;;;;;4.734184;-28.534807;-33.41014;;;;;;;;;
1926.0;1803.9;;;;;;;0.40614033;-0.32453382;0.20551164;;;;;;;;;;;;
1926.0;1806.2;;;;;;;;;;;;;-5278;;;;;;;;
1926.0;1806.2;;;;;;;;;;;;;-6022;;;;;;;;
1926.0;1806.2;;;;;;;;;;;;;-6491;;;;;;;;
1926.0;1806.2;;;;;;;;;;;;;-6570;;;;;;;;
1926.0;1806.2;;;;;;;;;;;;;-6174;;;;;;;;
1926.0;1807.1;;;;-0.16946413;0.442833;-0.10505678;;;;;;;;;;;;;;;
1926.0;1807.1;;;;-0.1712761;0.44347388;-0.10441972;;;;;;;;;;;;;;;
1926.0;1807.1;;;;-0.17188264;0.44567496;-0.1028557;;;;;;;;;;;;;;;
1926.0;1807.1;;;;-0.1728821;0.44725424;-0.101425186;;;;;;;;;;;;;;;
1926.0;1807.1;;;;-0.17217256;0.44944006;-0.099216476;;;;;;;;;;;;;;;
1928.0;1813.3;;;;;;;;;;3.9178138;-19.215218;-33.13547;;;;;;;;;
1928.0;1813.3;;;;;;;0.40815455;-0.32825708;0.20416883;;;;;;;;;;;;
1928.0;1813.3;;;;;;;;;;3.1243324;-9.968108;-32.818844;;;;;;;;;
1928.0;1813.3;;;;;;;0.40931424;-0.3357036;0.2024598;;;;;;;;;;;;
1928.0;1817.1;;;;-0.17269136;0.4517327;-0.09759523;;;;;;;;;;;;;;;
1928.0;1817.1;;;;-0.17122652;0.453991;-0.09586717;;;;;;;;;;;;;;;
1928.0;1817.1;;;;-0.17269517;0.4553643;-0.09597398;;;;;;;;;;;;;;;
1928.0;1817.1;;;;-0.17385866;0.45566565;-0.09551622;;;;;;;;;;;;;;;
1928.0;1817.1;;;;-0.17480852;0.45578772;-0.09427644;;;;;;;;;;;;;;;
1928.0;1820.1;262143;262143;14519;;;;;;;;;;;;;;;;;;
1928.0;1822.9;;;;;;;;;;2.357555;-0.65614796;-32.429733;;;;;;;;;
1928.0;1822.9;;;;;;;0.4104129;-0.342967;0.20227668;;;;;;;;;;;;
1928.0;1822.9;;;;;;;;;;1.6441847;8.529923;-31.910915;;;;;;;;;
1928.0;1822.9;;;;;;;0.40845972;-0.35346538;0.20191047;;;;;;;;;;;;
1928.0;1827.2;;;;-0.17748643;0.45576102;-0.093521126;;;;;;;;;;;;;;;
1928.0;1827.2;;;;-0.17745973;0.45504385;-0.091247566;;;;;;;;;;;;;;;
1928.0;1827.2;;;;-0.17865373;0.45392233;-0.08992768;;;;;;;;;;;;;;;
1928.0;1827.2;;;;-0.1790619;0.45192724;-0.08787537;;;;;;;;;;;;;;;
1928.0;1827.2;;;;-0.17905428;0.44960028;-0.08569337;;;;;;;;;;;;;;;
1928.0;1832.5;;;;;;;;;;0.9346294;17.578661;-31.411175;;;;;;;;;
1928.0;1832.5;;;;;;;0.40852076;-0.36451307;0.2019715;;;;;;;;;;;;
1928.0;1832.5;;;;;;;;;;0.35096285;26.5244;-30.884731;;;;;;;;;
1928.0;1832.5;;;;;;;0.41047394;-0.3805048;0.20398572;;;;;;;;;;;;
1930.0;1837.3;;;;-0.18070985;0.4459229;-0.08398438;;;;;;;;;;;;;;;
1930.0;1837.3;;;;-0.18353273;0.44162756;-0.08348466;;;;;;;;;;;;;;;
1930.0;1837.3;;;;-0.18618013;0.43692404;-0.08228684;;;;;;;;;;;;;;;
1930.0;1837.3;;;;-0.18696977;0.4325791;-0.07900239;;;;;;;;;;;;;;;
1930.0;1837.3;;;;-0.18771365;0.4285584;-0.0762024;;;;;;;;;;;;;;;
1930.0;1840.3;262143;262143;14507;;;;;;;;;;;;;;;;;;
1930.0;1842.1;;;;;;;;;;0.0076296274;35.3061;-30.461287;;;;;;;;;
1930.0;1842.1;;;;;;;0.41291544;-0.39643544;0.20819727;;;;;;;;;;;;
1930.0;1842.1;;;;;;;;;;-0.27466658;43.2638;-30.129398;;;;;;;;;
1930.0;1842.1;;;;;;;0.41297647;-0.41315958;0.21387371;;;;;;;;;;;;
1930.0;1844.6;;;;;;;;;;;;;;;;;-22.167881;11.711478;-49.249245;;1736.1
1930.0;1844.6;;;;;;;;;;;;;;0.45283365;0.13013093;-0.29096347;;;;;1736.1
1930.0;1844.6;;;;;;;;;;;;;;;;;-16.033663;12.882626;-51.507614;;1736.1
1930.0;1844.6;;;;;;;;;;;;;;0.47529528;0.11505478;-0.30872524;;;;;1736.1
1930.0;1844.6;;;;;;;;;;;;;;;;;-10.849331;15.15244;-53.472244;;1745.8
1930.0;1844.6;;;;;;;;;;;;;;0.46192816;0.111880854;-0.33954895;;;;;1745.8
1930.0;1844.6;;;;;;;;;;;;;;;;;-4.6197395;17.08655;-54.815056;;1745.8
1930.0;1844.6;;;;;;;;;;;;;;0.4107181;0.14606158;-0.42103335;;;;;1745.8
1930.0;1844.6;;;;;;;;;;;;;;;;;0.7057405;15.449995;-54.84176;;1755.3
1930.0;1844.6;;;;;;;;;;;;;;0.3881344;0.19031343;-0.509476;;;;;1755.3
1930.0;1844.6;;;;;;;;;;;;;;;;;1.575518;12.489699;-53.533283;;1755.3
1930.0;1844.6;;;;;;;;;;;;;;0.3963744;0.26722008;-0.5126499;;;;;1755.3
1931.0;1845.9;;;;;;;;;;;;;;;;;-0.46922207;10.589923;-50.923946;;1764.9
1931.0;1845.9;;;;;;;;;;;;;;0.44141972;0.34034243;-0.48890653;;;;;1764.9
1931.0;1845.9;;;;;;;;;;;;;;;;;-0.19074069;10.586108;-48.196358;;1764.9
1931.0;1845.9;;;;;;;;;;;;;;0.474868;0.4140141;-0.4939726;;;;;1764.9
1931.0;1845.9;;;;;;;;;;;;;;;;;4.505295;11.082033;-46.636097;;1774.6
1931.0;1845.9;;;;;;;;;;;;;;0.5221717;0.49012727;-0.46632284;;;;;1774.6
1931.0;1845.9;;;;;;;;;;;;;;;;;8.930479;12.80633;-46.555984;;1774.6
1931.0;1845.9;;;;;;;;;;;;;;0.5532395;0.5493942;-0.43574327;;;;;1774.6
1931.0;1845.9;;;;;;;;;;;;;;;;;10.528886;16.254921;-46.880245;;1784.2
1931.0;1845.9;;;;;;;;;;;;;;0.5351726;0.6482742;-0.45222327;;;;;1784.2
1931.0;1845.9;;;;;;;;;;;;;;;;;5.558183;19.882809;-46.338543;;1784.2
1931.0;1845.9;;;;;;;;;;;;;;0.47791985;0.72688985;-0.45796075;;;;;1784.2
1931.0;1846.3;;;;;;;;;;;;;-5336;;;;;;;;
1931.0;1846.3;;;;;;;;;;;;;-4190;;;;;;;;
1931.0;1846.3;;;;;;;;;;;;;-2845;;;;;;;;
1931.0;1846.3;;;;;;;;;;;;;-1401;;;;;;;;
1931.0;1846.3;;;;;;;;;;;;;59;;;;;;;;
1931.0;1847.3;;;;-0.18664934;0.42482764;-0.07248307;;;;;;;;;;;;;;;
1931.0;1847.3;;;;-0.1896973;0.4205361;-0.07044602;;;;;;;;;;;;;;;
1931.0;1847.3;;;;-0.19109729;0.41561896;-0.06815339;;;;;;;;;;;;;;;
1931.0;1847.3;;;;-0.19365314;0.41135794;-0.06540299;;;;;;;;;;;;;;;
1931.0;1847.3;;;;-0.19548419;0.40821463;-0.062343605;;;;;;;;;;;;;;;
1931.0;1851.6;;;;;;;;;;-0.46159247;50.33265;-29.690695;;;;;;;;;
1931.0;1851.6;;;;;;;0.40852076;-0.43220314;0.22400586;;;;;;;;;;;;
1931.0;1851.6;;;;;;;;;;-0.46540728;56.966614;-28.965881;;;;;;;;;
1931.0;1851.6;;;;;;;0.39875484;-0.45057526;0.2351146;;;;;;;;;;;;
1987.0;1857.3;;;;-0.19716647;0.40445715;-0.05963517;;;;;;;;;;;;;;;
1987.0;1857.3;;;;-0.19672397;0.40126425;-0.05513764;;;;;;;;;;;;;;;
1987.0;1857.3;;;;-0.19597629;0.39875418;-0.051925667;;;;;;;;;;;;;;;
1987.0;1857.3;;;;-0.1961365;0.39589697;-0.050380714;;;;;;;;;;;;;;;
1987.0;1857.3;;;;-0.19422916;0.39309317;-0.048694618;;;;;;;;;;;;;;;
1987.0;1860.3;262143;262143;14517;;;;;;;;;;;;;;;;;;
1987.0;1861.1;;;;;;;;;;-0.26703694;63.859985;-27.996918;;;;;;;;;
1987.0;1861.1;;;;;;;0.38392285;-0.4740745;0.2501297;;;;;;;;;;;;
1987.0;1861.1;;;;;;;;;;0.18311106;71.29124;-26.51677;;;;;;;;;
1987.0;1861.1;;;;;;;0.37586597;-0.49769586;0.2626423;;;;;;;;;;;;
1987.0;1867.2;;;;-0.19240955;0.39051443;-0.04716874;;;;;;;;;;;;;;;
1987.0;1867.2;;;;-0.19018176;0.38867575;-0.046031956;;;;;;;;;;;;;;;
1987.0;1867.2;;;;-0.18494798;0.38769156;-0.044910435;;;;;;;;;;;;;;;
1987.0;1867.2;;;;-0.18175127;0.3869744;-0.046356205;;;;;;;;;;;;;;;
1987.0;1867.2;;;;-0.17714311;0.38722616;-0.049026497;;;;;;;;;;;;;;;
1987.0;1870.3;;;;;;;;;;0.7057405;78.653824;-24.819178;;;;;;;;;
1987.0;1870.3;;;;;;;0.3747673;-0.5224769;0.27478865;;;;;;;;;;;;
1987.0;1870.3;;;;;;;;;;1.3657033;85.482346;-22.915585;;;;;;;;;
1987.0;1870.3;;;;;;;0.36976227;-0.550737;0.28614154;;;;;;;;;;;;
1991.0;1877.1;;;;-0.17254259;0.38838202;-0.052738197;;;;;;;;;;;;;;;
1991.0;1877.1;;;;-0.16751863;0.39061743;-0.055408485;;;;;;;;;;;;;;;
1991.0;1877.1;;;;-0.16368486;0.3941117;-0.056732185;;;;;;;;;;;;;;;
1991.0;1877.1;;;;-0.162529;0.39955145;-0.05744935;;;;;;;;;;;;;;;
1991.0;1877.1;;;;-0.16184618;0.40723807;-0.05718995;;;;;;;;;;;;;;;
1991.0;1879.9;;;;;;;;;;2.2698143;91.513565;-20.79455;;;;;;;;;
1991.0;1879.9;;;;;;;0.36597797;-0.5786309;0.29621264;;;;;;;;;;;;
1991.0;1879.9;;;;;;;;;;3.4257026;96.69027;-18.478958;;;;;;;;;
1991.0;1879.9;;;;;;;0.36262092;-0.6082949;0.3039033;;;;;;;;;;;;
1991.0;1880.2;262143;262143;14515;;;;;;;;;;;;;;;;;;
1991.0;1886.3;;;;;;;;;;;;;1373;;;;;;;;
1991.0;1886.3;;;;;;;;;;;;;2513;;;;;;;;
1991.0;1886.3;;;;;;;;;;;;;3675;;;;;;;;
1991.0;1886.3;;;;;;;;;;;;;4747;;;;;;;;
1991.0;1886.3;;;;;;;;;;;;;5294;;;;;;;;
1991.0;1887.2;;;;-0.16363527;0.41574103;-0.057163246;;;;;;;;;;;;;;;
1991.0;1887.2;;;;-0.16728593;0.42660528;-0.057075508;;;;;;;;;;;;;;;
1991.0;1887.2;;;;-0.17557527;0.43898016;-0.056056984;;;;;;;;;;;;;;;
1991.0;1887.2;;;;-0.1844597;0.45262152;-0.05534745;;;;;;;;;;;;;;;
1991.0;1887.2;;;;-0.19715503;0.4671021;-0.053848274;;;;;;;;;;;;;;;
1991.0;1889.6;;;;;;;;;;4.7418137;101.27567;-16.281626;;;;;;;;;
1991.0;1889.6;;;;;;;0.35767692;-0.6419874;0.3094577;;;;;;;;;;;;
1991.0;1889.6;;;;;;;;;;6.0998874;105.24308;-14.065218;;;;;;;;;
1991.0;1889.6;;;;;;;0.35029146;-0.6742149;0.31415755;;;;;;;;;;;;
1993.0;1897.3;;;;-0.21129993;0.48237616;-0.052860267;;;;;;;;;;;;;;;
1993.0;1897.3;;;;-0.22515872;0.4992867;-0.051670082;;;;;;;;;;;;;;;
1993.0;1897.3;;;;-0.2393265;0.5168;-0.050510414;;;;;;;;;;;;;;;
1993.0;1897.3;;;;-0.2537575;0.5339814;-0.050071724;;;;;;;;;;;;;;;
1993.0;1897.3;;;;-0.26581195;0.5512734;-0.04935456;;;;;;;;;;;;;;;
1993.0;1899.2;;;;;;;;;;7.3587756;108.35597;-11.833552;;;;;;;;;
1993.0;1899.2;;;;;;;0.3419904;-0.70961636;0.3144017;;;;;;;;;;;;
1993.0;1899.2;;;;;;;;;;8.671071;110.86611;-9.559923;;;;;;;;;
1993.0;1899.2;;;;;;;0.33545947;-0.74886316;0.31452376;;;;;;;;;;;;
1993.0;1900.5;262143;262143;14518;;;;;;;;;;;;;;;;;;
1993.0;1907.3;;;;-0.27777484;0.56766135;-0.049575813;;;;;;;;;;;;;;;
1993.0;1907.3;;;;-0.28787997;0.5839539;-0.050582893;;;;;;;;;;;;;;;
1993.0;1907.3;;;;-0.29806903;0.599907;-0.050766;;;;;;;;;;;;;;;
1993.0;1907.3;;;;-0.3078728;0.61523825;-0.049587257;;;;;;;;;;;;;;;
1993.0;1907.3;;;;-0.31845096;0.63047796;-0.046703342;;;;;;;;;;;;;;;
1993.0;1908.8;;;;;;;;;;10.059664;112.537;-7.3053684;;;;;;;;;
1993.0;1908.8;;;;;;;0.3299051;-0.79085666;0.31086153;;;;;;;;;;;;
1993.0;1908.8;;;;;;;;;;11.478774;113.155;-5.245369;;;;;;;;;
1993.0;1908.8;;;;;;;0.32581562;-0.83767205;0.30970183;;;;;;;;;;;;
1994.0;1913.1;;;;;;;;;;;;;;;;;-2.2087772;20.180365;-46.636097;;1793.9
1994.0;1913.1;;;;;;;;;;;;;;0.49073765;0.76906645;-0.46882534;;;;;1793.9
1994.0;1913.1;;;;;;;;;;;;;;;;;-12.18833;23.186438;-48.005615;;1793.9
1994.0;1913.1;;;;;;;;;;;;;;0.53218174;0.8252205;-0.4580218;;;;;1793.9
1994.0;1913.1;;;;;;;;;;;;;;;;;-22.518845;28.55388;-49.66506;;1803.4
1994.0;1913.1;;;;;;;;;;;;;;0.5341349;0.8798486;-0.44923246;;;;;1803.4
1994.0;1913.1;;;;;;;;;;;;;;;;;-30.667286;31.964325;-52.808468;;1803.4
1994.0;1913.1;;;;;;;;;;;;;;0.51942503;0.9132359;-0.42725915;;;;;1803.4
1994.0;1913.1;;;;;;;;;;;;;;;;;-34.779655;33.539845;-57.56554;;1813.0
1994.0;1913.1;;;;;;;;;;;;;;0.53578293;0.93673515;-0.3581042;;;;;1813.0
1994.0;1913.1;;;;;;;;;;;;;;;;;-32.170326;34.043396;-63.56624;;1813.0
1994.0;1913.1;;;;;;;;;;;;;;0.56428725;0.9805597;-0.3596301;;;;;1813.0
1994.0;1913.8;;;;;;;;;;;;;;;;;-27.851954;34.024323;-71.34083;;1822.7
1994.0;1913.8;;;;;;;;;;;;;;0.52375865;1.0035707;-0.34601885;;;;;1822.7
1994.0;1913.8;;;;;;;;;;;;;;;;;-26.295511;31.804104;-79.06583;;1822.7
1994.0;1913.8;;;;;;;;;;;;;;0.50508136;0.9930723;-0.3350322;;;;;1822.7
1994.0;1913.8;;;;;;;;;;;;;;;;;-26.440474;31.052584;-85.64257;;1832.3
1994.0;1913.8;;;;;;;;;;;;;;0.48951688;0.9900815;-0.35242775;;;;;1832.3
1994.0;1913.8;;;;;;;;;;;;;;;;;-29.06125;31.735435;-89.991455;;1832.3
1994.0;1913.8;;;;;;;;;;;;;;0.54994357;0.90627766;-0.35206154;;;;;1832.3
1994.0;1913.8;;;;;;;;;;;;;;;;;-34.897915;36.191135;-94.706566;;1842.0
1994.0;1913.8;;;;;;;;;;;;;;0.62990206;0.7894528;-0.26984465;;;;;1842.0
1994.0;1913.8;;;;;;;;;;;;;;;;;-39.464245;38.987396;-100.589005;;1842.0
1994.0;1913.8;;;;;;;;;;;;;;0.73531294;0.7209082;-0.2569048;;;;;1842.0
2045.0;1917.2;;;;-0.33078006;0.64560705;-0.041721348;;;;;;;;;;;;;;;
2045.0;1917.2;;;;-0.34471133;0.6620789;-0.03497315;;;;;;;;;;;;;;;
2045.0;1917.2;;;;-0.36145404;0.6776467;-0.026180271;;;;;;;;;;;;;;;
2045.0;1917.2;;;;-0.37777334;0.69385153;-0.016231539;;;;;;;;;;;;;;;
2045.0;1917.2;;;;-0.39548498;0.7107087;-0.006526948;;;;;;;;;;;;;;;
2045.0;1918.1;;;;;;;;;;13.199256;113.35337;-3.0823696;;;;;;;;;
2045.0;1918.1;;;;;;;0.32453382;-0.8973052;0.31690422;;;;;;;;;;;;
2045.0;1918.1;;;;;;;;;;15.427107;113.7196;-0.6866665;;;;;;;;;
2045.0;1918.1;;;;;;;0.3304544;-0.9690237;0.33729056;;;;;;;;;;;;
2045.0;1920.3;262143;262143;14508;;;;;;;;;;;;;;;;;;
2045.0;1926.4;;;;;;;;;;;;;5166;;;;;;;;
2045.0;1926.4;;;;;;;;;;;;;4722;;;;;;;;
2045.0;1926.4;;;;;;;;;;;;;4512;;;;;;;;
2045.0;1926.4;;;;;;;;;;;;;4558;;;;;;;;
2045.0;1926.4;;;;;;;;;;;;;4341;;;;;;;;
2045.0;1927.1;;;;-0.4119988;0.7278901;0.00485611;;;;;;;;;;;;;;;
2045.0;1927.1;;;;-0.42875296;0.7457848;0.017017366;;;;;;;;;;;;;;;
2045.0;1927.1;;;;-0.44541174;0.76599896;0.027366642;;;;;;;;;;;;;;;
2045.0;1927.1;;;;-0.46133047;0.78714;0.03880692;;;;;;;;;;;;;;;
2045.0;1927.1;;;;-0.47764212;0.808735;0.05041123;;;;;;;;;;;;;;;
2045.0;1927.5;;;;;;;;;;18.532366;114.81063;1.9531846;;;;;;;;;
2045.0;1927.5;;;;;;;0.34369946;-1.0610676;0.3617664;;;;;;;;;;;;
2045.0;1927.5;;;;;;;;;;22.17551;116.48534;4.8486285;;;;;;;;;
2045.0;1927.5;;;;;;;0.36610004;-1.1709952;0.39155248;;;;;;;;;;;;
2165.0;1937.0;;;;;;;;;;26.10477;118.21726;8.056887;;;;;;;;;
2165.0;1937.0;;;;;;;0.39301735;-1.3007599;0.4231086;;;;;;;;;;;;
2165.0;1937.0;;;;;;;;;;30.182806;119.24345;11.5970335;;;;;;;;;
2165.0;1937.0;;;;;;;0.41627246;-1.4479812;0.45179603;;;;;;;;;;;;
2165.0;1937.0;;;;-0.49517447;0.8313333;0.061019905;;;;;;;;;;;;;;;
2165.0;1937.0;;;;-0.5124627;0.85408795;0.07018281;;;;;;;;;;;;;;;
2165.0;1937.0;;;;-0.530407;0.87788403;0.07806016;;;;;;;;;;;;;;;
2165.0;1937.0;;;;-0.5490952;0.9027101;0.083774574;;;;;;;;;;;;;;;
2165.0;1937.0;;;;-0.5665398;0.9274751;0.088420875;;;;;;;;;;;;;;;
2165.0;1940.3;262143;262143;14504;;;;;;;;;;;;;;;;;;
2165.0;1946.6;;;;;;;;;;34.009064;118.73989;15.316477;;;;;;;;;
2165.0;1946.6;;;;;;;0.43159276;-1.6103396;0.4725486;;;;;;;;;;;;
2165.0;1946.6;;;;;;;;;;37.209694;116.14582;18.757439;;;;;;;;;
2165.0;1946.6;;;;;;;0.43519396;-1.7779473;0.48176518;;;;;;;;;;;;
2165.0;1947.1;;;;-0.58393866;0.9526216;0.093017586;;;;;;;;;;;;;;;
2165.0;1947.1;;;;-0.59950644;0.9789125;0.09627916;;;;;;;;;;;;;;;
2165.0;1947.1;;;;-0.61492926;1.0059434;0.10013963;;;;;;;;;;;;;;;
2165.0;1947.1;;;;-0.6278611;1.0326501;0.10454179;;;;;;;;;;;;;;;
2165.0;1947.1;;;;-0.64067465;1.0607835;0.10940172;;;;;;;;;;;;;;;
2165.0;1956.2;;;;;;;;;;39.84191;110.892815;21.858883;;;;;;;;;
2165.0;1956.2;;;;;;;0.4213996;-1.9370708;0.48139897;;;;;;;;;;;;
2165.0;1956.2;;;;;;;;;;42.260506;102.660446;24.262217;;;;;;;;;
2165.0;1956.2;;;;;;;0.39680165;-1.9998169;0.4661397;;;;;;;;;;;;
2169.0;1957.2;;;;-0.6517945;1.0903703;0.11499025;;;;;;;;;;;;;;;
2169.0;1957.2;;;;-0.6616593;1.1202508;0.12140657;;;;;;;;;;;;;;;
2169.0;1957.2;;;;-0.6722565;1.152733;0.12842561;;;;;;;;;;;;;;;
2169.0;1957.2;;;;-0.6809922;1.1864816;0.1375847;;;;;;;;;;;;;;;
2169.0;1957.2;;;;-0.6884003;1.2208863;0.14869691;;;;;;;;;;;;;;;
2169.0;1960.6;262143;262143;14497;;;;;;;;;;;;;;;;;;
2169.0;1965.1;;;;;;;;;;;;;;;;;-40.72695;41.71499;-106.90253;;1851.7
2169.0;1965.1;;;;;;;;;;;;;;0.82595295;0.7066866;-0.35456404;;;;;1851.7
2169.0;1965.1;;;;;;;;;;;;;;;;;-40.79943;46.136356;-113.42967;;1851.7
2169.0;1965.1;;;;;;;;;;;;;;0.8962676;0.7131565;-0.47596666;;;;;1851.7
2169.0;1965.1;;;;;;;;;;;;;;;;;-42.119358;48.100986;-119.60586;;1861.4
2169.0;1965.1;;;;;;;;;;;;;;0.9989318;0.76094854;-0.5882748;;;;;1861.4
2169.0;1965.1;;;;;;;;;;;;;;;;;-43.984802;47.151096;-123.11929;;1861.4
2169.0;1965.1;;;;;;;;;;;;;;1.1435286;0.7431257;-0.6558428;;;;;1861.4
2169.0;1965.1;;;;;;;;;;;;;;;;;-48.38328;46.56743;-124.702446;;1871.0
2169.0;1965.1;;;;;;;;;;;;;;1.380047;0.7215796;-0.72743917;;;;;1871.0
2169.0;1965.1;;;;;;;;;;;;;;;;;-53.52947;45.159763;-124.59563;;1871.0
2169.0;1965.1;;;;;;;;;;;;;;1.6367077;0.7029023;-0.8245491;;;;;1871.0
2171.0;1965.9;;;;;;;;;;;;;;;;;-59.93835;43.057804;-122.97815;;1880.7
2171.0;1965.9;;;;;;;;;;;;;;1.864864;0.65633106;-0.9043855;;;;;1880.7
2171.0;1965.9;;;;;;;;;;;;;;;;;-65.35921;41.44032;-119.52575;;1880.7
2171.0;1965.9;;;;;;;;;;;;;;1.9848018;0.51655626;-0.9825129;;;;;1880.7
2171.0;1965.9;;;;;;;;;;;;;;;;;-69.38764;40.944393;-116.74856;;1890.4
2171.0;1965.9;;;;;;;;;;;;;;1.9971312;0.32508317;-1.0706503;;;;;1890.4
2171.0;1965.9;;;;;;;;;;;;;;;;;-76.3268;43.019653;-116.584526;;1890.4
2171.0;1965.9;;;;;;;;;;;;;;1.9627063;0.21839045;-1.0459304;;;;;1890.4
2171.0;1965.9;;;;;;;;;;;;;;;;;-83.95642;44.92706;-116.092415;;1900.0
2171.0;1965.9;;;;;;;;;;;;;;1.8322703;0.044923246;-1.0374463;;;;;1900.0
2171.0;1965.9;;;;;;;;;;;;;;;;;-90.68193;48.440506;-116.74856;;1900.0
2171.0;1965.9;;;;;;;;;;;;;;1.9235816;0.05059969;-1.0987884;;;;;1900.0
2171.0;1965.7;;;;;;;;;;44.423504;91.456345;25.517288;;;;;;;;;
2171.0;1965.7;;;;;;;0.36506242;-1.9998169;0.44209114;;;;;;;;;;;;
2171.0;1965.7;;;;;;;;;;46.498764;77.04017;25.47151;;;;;;;;;
2171.0;1965.7;;;;;;;0.3305765;-1.9998169;0.41035187;;;;;;;;;;;;
2171.0;1966.4;;;;;;;;;;;;;3751;;;;;;;;
2171.0;1966.4;;;;;;;;;;;;;3315;;;;;;;;
2171.0;1966.4;;;;;;;;;;;;;3416;;;;;;;;
2171.0;1966.4;;;;;;;;;;;;;3728;;;;;;;;
2171.0;1966.4;;;;;;;;;;;;;3775;;;;;;;;
2171.0;1967.1;;;;-0.694027;1.2572328;0.16201784;;;;;;;;;;;;;;;
2171.0;1967.1;;;;-0.69865423;1.2952157;0.17697145;;;;;;;;;;;;;;;
2171.0;1967.1;;;;-0.70127493;1.3337823;0.1937981;;;;;;;;;;;;;;;
2171.0;1967.1;;;;-0.70332724;1.3761293;0.21122363;;;;;;;;;;;;;;;
2171.0;1967.1;;;;-0.70275885;1.419407;0.22880557;;;;;;;;;;;;;;;
2172.0;1975.1;;;;;;;;;;48.699913;59.583576;23.850216;;;;;;;;;
2172.0;1975.1;;;;;;;0.28693503;-1.9998169;0.37043366;;;;;;;;;;;;
2172.0;1975.1;;;;;;;;;;51.309242;40.69643;21.248512;;;;;;;;;
2172.0;1975.1;;;;;;;0.25287637;-1.9998169;0.31727043;;;;;;;;;;;;
2172.0;1977.1;;;;-0.701706;1.4619905;0.24913791;;;;;;;;;;;;;;;
2172.0;1977.1;;;;-0.7002831;1.508343;0.2688103;;;;;;;;;;;;;;;
2172.0;1977.1;;;;-0.6971627;1.5555537;0.28702548;;;;;;;;;;;;;;;
2172.0;1977.1;;;;-0.69329077;1.6024706;0.3059502;;;;;;;;;;;;;;;
2172.0;1977.1;;;;-0.6882592;1.651478;0.32273868;;;;;;;;;;;;;;;
2172.0;1980.4;262143;262143;14497;;;;;;;;;;;;;;;;;;
2172.0;1984.6;;;;;;;;;;54.227577;21.706291;18.070772;;;;;;;;;
2172.0;1984.6;;;;;;;0.23261207;-1.9998169;0.26355785;;;;;;;;;;;;
2172.0;1984.6;;;;;;;;;;57.47017;3.1891842;14.595477;;;;;;;;;
2172.0;1984.6;;;;;;;0.23432112;-1.9998169;0.21149327;;;;;;;;;;;;
2172.0;1987.0;;;;-0.6842194;1.6992915;0.34002307;;;;;;;;;;;;;;;
2172.0;1987.0;;;;-0.68105704;1.7471125;0.356823;;;;;;;;;;;;;;;
2172.0;1987.0;;;;-0.6797982;1.7938159;0.37141803;;;;;;;;;;;;;;;
2172.0;1987.0;;;;-0.68072516;1.8401377;0.38405997;;;;;;;;;;;;;;;
2172.0;1987.0;;;;-0.6790467;1.8807147;0.3994828;;;;;;;;;;;;;;;
2172.0;1994.0;;;;;;;;;;60.54872;-14.526811;10.95996;;;;;;;;;
2172.0;1994.0;;;;;;;0.2527543;-1.9998169;0.1640675;;;;;;;;;;;;
2172.0;1994.0;;;;;;;;;;63.024536;-31.441696;7.461776;;;;;;;;;
2172.0;1994.0;;;;;;;0.27747428;-1.9998169;0.12573627;;;;;;;;;;;;
2173.0;1996.9;;;;-0.67932135;1.9176333;0.41428763;;;;;;;;;;;;;;;
2173.0;1996.9;;;;-0.6788445;1.9521983;0.42719275;;;;;;;;;;;;;;;
2173.0;1996.9;;;;-0.6783028;1.9819033;0.4366799;;;;;;;;;;;;;;;
2173.0;1996.9;;;;-0.6740685;1.9999964;0.44870764;;;;;;;;;;;;;;;
2173.0;1996.9;;;;-0.6691361;1.9999964;0.46070486;;;;;;;;;;;;;;;
2173.0;2000.4;262143;262143;14504;;;;;;;;;;;;;;;;;;
2173.0;2003.7;;;;;;;;;;64.63058;-47.189247;4.100925;;;;;;;;;
2173.0;2003.7;;;;;;;0.29755548;-1.9998169;0.097720265;;;;;;;;;;;;
2173.0;2003.7;;;;;;;;;;65.49654;-61.29261;0.8316294;;;;;;;;;
2173.0;2003.7;;;;;;;0.3122654;-1.9998169;0.079897456;;;;;;;;;;;;
2173.0;2006.4;;;;;;;;;;;;;3596;;;;;;;;
2173.0;2006.4;;;;;;;;;;;;;3488;;;;;;;;
2173.0;2006.4;;;;;;;;;;;;;3594;;;;;;;;
2173.0;2006.4;;;;;;;;;;;;;3931;;;;;;;;
2173.0;2006.4;;;;;;;;;;;;;4500;;;;;;;;
2173.0;2007.0;;;;-0.66258246;1.9999964;0.47295767;;;;;;;;;;;;;;;
2173.0;2007.0;;;;-0.6554299;1.9999964;0.4858933;;;;;;;;;;;;;;;
2173.0;2007.0;;;;-0.6474839;1.9999964;0.49913794;;;;;;;;;;;;;;;
2173.0;2007.0;;;;-0.6399041;1.9999964;0.5126038;;;;;;;;;;;;;;;
2173.0;2007.0;;;;-0.632824;1.9999964;0.5262452;;;;;;;;;;;;;;;
2173.0;2013.3;;;;;;;;;;65.889465;-73.75561;-3.1472213;;;;;;;;;
2173.0;2013.3;;;;;;;0.32441175;-1.9998169;0.07470931;;;;;;;;;;;;
2173.0;2013.3;;;;;;;;;;65.790276;-84.990234;-8.194221;;;;;;;;;
2173.0;2013.3;;;;;;;0.3307596;-1.9998169;0.07824946;;;;;;;;;;;;
2175.0;2017.2;;;;-0.627369;1.9969752;0.5390511;;;;;;;;;;;;;;;
2175.0;2017.2;;;;-0.6241837;1.9800112;0.55172354;;;;;;;;;;;;;;;
2175.0;2017.2;;;;-0.6223298;1.9621966;0.5660477;;;;;;;;;;;;;;;
2175.0;2017.2;;;;-0.6231919;1.9461939;0.5826073;;;;;;;;;;;;;;;
2175.0;2017.2;;;;-0.62403494;1.9316027;0.6006356;;;;;;;;;;;;;;;
2175.0;2020.7;262143;262143;14495;;;;;;;;;;;;;;;;;;
2175.0;2022.9;;;;;;;;;;65.16465;-94.85153;-14.278848;;;;;;;;;
2175.0;2022.9;;;;;;;0.33063754;-1.9998169;0.08825953;;;;;;;;;;;;
2175.0;2022.9;;;;;;;;;;64.275795;-102.87789;-21.118809;;;;;;;;;
2175.0;2022.9;;;;;;;0.33478805;-1.9998169;0.10577715;;;;;;;;;;;;
2175.0;2025.3;;;;;;;;;;;;;;;;;-99.631485;64.046906;-115.74145;;1909.7
2175.0;2025.3;;;;;;;;;;;;;;1.7799616;-0.027710807;-1.0392773;;;;;1909.7
2175.0;2025.3;;;;;;;;;;;;;;;;;-103.91934;81.053345;-112.58659;;1909.7
2175.0;2025.3;;;;;;;;;;;;;;1.2660909;-0.0463271;-0.5056917;;;;;1909.7
2175.0;2025.3;;;;;;;;;;;;;;;;;-97.82709;57.950836;-104.71664;;1919.3
2175.0;2025.3;;;;;;;;;;;;;;1.4103824;0.08929716;-0.5883358;;;;;1919.3
2175.0;2025.3;;;;;;;;;;;;;;;;;-86.8862;41.77984;-93.5049;;1919.3
2175.0;2025.3;;;;;;;;;;;;;;1.4257027;0.052735984;-0.7119358;;;;;1919.3
2175.0;2025.3;;;;;;;;;;;;;;;;;-75.121315;36.584064;-86.603905;;1929.0
2175.0;2025.3;;;;;;;;;;;;;;1.2825098;0.08221687;-0.70674765;;;;;1929.0
2175.0;2025.3;;;;;;;;;;;;;;;;;-63.74935;28.004547;-81.633194;;1929.0
2175.0;2025.3;;;;;;;;;;;;;;1.262978;0.13879818;-0.7729728;;;;;1929.0
2176.0;2026.0;;;;;;;;;;;;;;;;;-51.198612;21.362957;-78.19223;;1938.7
2176.0;2026.0;;;;;;;;;;;;;;1.2884305;0.2207709;-0.77877134;;;;;1938.7
2176.0;2026.0;;;;;;;;;;;;;;;;;-42.34062;19.47844;-76.23905;;1938.7
2176.0;2026.0;;;;;;;;;;;;;;1.2790917;0.26966155;-0.6947844;;;;;1938.7
2176.0;2026.0;;;;;;;;;;;;;;;;;-37.24784;18.009735;-74.343094;;1948.2
2176.0;2026.0;;;;;;;;;;;;;;1.2971587;0.32190925;-0.6605426;;;;;1948.2
2176.0;2026.0;;;;;;;;;;;;;;;;;-35.142063;20.149845;-71.9512;;1948.2
2176.0;2026.0;;;;;;;;;;;;;;1.3224281;0.37122715;-0.59614855;;;;;1948.2
2176.0;2026.0;;;;;;;;;;;;;;;;;-34.001434;22.923216;-68.66664;;1957.9
2176.0;2026.0;;;;;;;;;;;;;;1.3276772;0.39991456;-0.5252846;;;;;1957.9
2176.0;2026.0;;;;;;;;;;;;;;;;;-29.59914;22.083958;-65.86276;;1957.9
2176.0;2026.0;;;;;;;;;;;;;;1.3314005;0.4431898;-0.47834712;;;;;1957.9
2176.0;2027.0;;;;-0.6280404;1.9186366;0.61840826;;;;;;;;;;;;;;;
2176.0;2027.0;;;;-0.63366705;1.9076807;0.63626105;;;;;;;;;;;;;;;
2176.0;2027.0;;;;-0.6420403;1.8978426;0.6536637;;;;;;;;;;;;;;;
2176.0;2027.0;;;;-0.65012366;1.8902438;0.67088705;;;;;;;;;;;;;;;
2176.0;2027.0;;;;-0.66036993;1.8836024;0.68807226;;;;;;;;;;;;;;;
2176.0;2032.3;;;;;;;;;;63.161873;-108.57342;-28.37077;;;;;;;;;
2176.0;2032.3;;;;;;;0.33796197;-1.9998169;0.12335581;;;;;;;;;;;;
2176.0;2032.3;;;;;;;;;;61.731316;-112.228004;-35.786766;;;;;;;;;
2176.0;2032.3;;;;;;;0.3394879;-1.9998169;0.14575641;;;;;;;;;;;;
2177.0;2037.1;;;;-0.67264944;1.8777239;0.70374686;;;;;;;;;;;;;;;
2177.0;2037.1;;;;-0.6853562;1.8725893;0.7193833;;;;;;;;;;;;;;;
2177.0;2037.1;;;;-0.6977425;1.8682101;0.73336416;;;;;;;;;;;;;;;
2177.0;2037.1;;;;-0.7098351;1.8633883;0.7457047;;;;;;;;;;;;;;;
2177.0;2037.1;;;;-0.7204247;1.857918;0.75748837;;;;;;;;;;;;;;;
2177.0;2040.5;262143;262143;14484;;;;;;;;;;;;;;;;;;
2177.0;2041.8;;;;;;;;;;59.96124;-114.478745;-42.77932;;;;;;;;;
2177.0;2041.8;;;;;;;0.33185828;-1.9998169;0.16681418;;;;;;;;;;;;
2177.0;2041.8;;;;;;;;;;58.133945;-115.16541;-49.23017;;;;;;;;;
2177.0;2041.8;;;;;;;0.3185522;-1.9984741;0.18732262;;;;;;;;;;;;
2177.0;2046.5;;;;;;;;;;;;;5077;;;;;;;;
2177.0;2046.5;;;;;;;;;;;;;5040;;;;;;;;
2177.0;2046.5;;;;;;;;;;;;;4305;;;;;;;;
2177.0;2046.5;;;;;;;;;;;;;3450;;;;;;;;
2177.0;2046.5;;;;;;;;;;;;;2868;;;;;;;;
2177.0;2047.1;;;;-0.7326737;1.8515017;0.76524746;;;;;;;;;;;;;;;
2177.0;2047.1;;;;-0.7446366;1.8441775;0.77248394;;;;;;;;;;;;;;;
2177.0;2047.1;;;;-0.7573968;1.8367007;0.7780076;;;;;;;;;;;;;;;
2177.0;2047.1;;;;-0.7709161;1.8272059;0.7809564;;;;;;;;;;;;;;;
2177.0;2047.1;;;;-0.7846643;1.8156016;0.78258145;;;;;;;;;;;;;;;
2177.0;2051.3;;;;;;;;;;56.375317;-114.4406;-55.14313;;;;;;;;;
2177.0;2051.3;;;;;;;0.29737237;-1.9589831;0.2059389;;;;;;;;;;;;
2177.0;2051.3;;;;;;;;;;54.555653;-112.65526;-60.61739;;;;;;;;;
2177.0;2051.3;;;;;;;0.2715537;-1.9021577;0.22327341;;;;;;;;;;;;
2179.0;2057.1;;;;-0.799286;1.802273;0.78144085;;;;;;;;;;;;;;;
2179.0;2057.1;;;;-0.8128892;1.7870448;0.7798501;;;;;;;;;;;;;;;
2179.0;2057.1;;;;-0.8263589;1.7702715;0.7788507;;;;;;;;;;;;;;;
2179.0;2057.1;;;;-0.8403169;1.7523234;0.7775575;;;;;;;;;;;;;;;
2179.0;2057.1;;;;-0.8532449;1.7332842;0.7739259;;;;;;;;;;;;;;;
2179.0;2060.9;;;;;;;;;;52.816097;-110.62578;-65.89328;;;;;;;;;
2179.0;2060.9;;;;;;;0.24585712;-1.8461868;0.2400586;;;;;;;;;;;;
2179.0;2060.9;;;;;;;;;;51.198612;-108.63827;-70.79531;;;;;;;;;
2179.0;2060.9;;;;;;;0.22083193;-1.792169;0.25153357;;;;;;;;;;;;
2179.0;2060.7;262143;262143;14490;;;;;;;;;;;;;;;;;;
2179.0;2067.2;;;;-0.8649522;1.7127612;0.7669717;;;;;;;;;;;;;;;
2179.0;2067.2;;;;-0.87698376;1.6911242;0.7591249;;;;;;;;;;;;;;;
2179.0;2067.2;;;;-0.88800824;1.6679232;0.74950415;;;;;;;;;;;;;;;
2179.0;2067.2;;;;-0.8970109;1.64275;0.7398835;;;;;;;;;;;;;;;
2179.0;2067.2;;;;-0.9036294;1.6180232;0.7257729;;;;;;;;;;;;;;;
2179.0;2070.5;;;;;;;;;;49.844353;-106.51341;-75.685905;;;;;;;;;
2179.0;2070.5;;;;;;;0.20276497;-1.7344279;0.2565386;;;;;;;;;;;;
2179.0;2070.5;;;;;;;;;;48.654137;-104.27793;-80.19119;;;;;;;;;
2179.0;2070.5;;;;;;;0.18494217;-1.6793725;0.2595294;;;;;;;;;;;;
2180.0;2077.3;;;;-0.9079133;1.5931361;0.7116814;;;;;;;;;;;;;;;
2180.0;2077.3;;;;-0.9098283;1.5685503;0.6978074;;;;;;;;;;;;;;;
2180.0;2077.3;;;;-0.90737927;1.5438082;0.68297964;;;;;;;;;;;;;;;
2180.0;2077.3;;;;-0.9022256;1.5193942;0.6672593;;;;;;;;;;;;;;;
2180.0;2077.3;;;;-0.8918878;1.4967881;0.64846045;;;;;;;;;;;;;;;
2180.0;2080.1;;;;;;;;;;47.482986;-102.031006;-84.15861;;;;;;;;;
2180.0;2080.1;;;;;;;0.17712943;-1.6214484;0.25452438;;;;;;;;;;;;
2180.0;2080.1;;;;;;;;;;46.09821;-99.67345;-87.755974;;;;;;;;;
2180.0;2080.1;;;;;;;0.17242958;-1.5667592;0.24634542;;;;;;;;;;;;
2180.0;2081.0;262143;262143;14498;;;;;;;;;;;;;;;;;;
2180.0;2085.2;;;;;;;;;;;;;;;;;-25.055696;20.130772;-63.951538;;1967.5
2180.0;2085.2;;;;;;;;;;;;;;1.3314615;0.51057464;-0.46021912;;;;;1967.5
2180.0;2085.2;;;;;;;;;;;;;;;;;-21.591846;17.81518;-61.773277;;1967.5
2180.0;2085.2;;;;;;;;;;;;;;1.3343914;0.56642354;-0.45954773;;;;;1967.5
2180.0;2085.2;;;;;;;;;;;;;;;;;-19.997253;16.26255;-58.56502;;1977.2
2180.0;2085.2;;;;;;;;;;;;;;1.3226722;0.6059755;-0.4481338;;;;;1977.2
2180.0;2085.2;;;;;;;;;;;;;;;;;-22.568438;17.059847;-54.376354;;1977.2
2180.0;2085.2;;;;;;;;;;;;;;1.3118687;0.60481584;-0.41047394;;;;;1977.2
2180.0;2085.2;;;;;;;;;;;;;;;;;-27.23014;20.741142;-49.710835;;1986.8
2180.0;2085.2;;;;;;;;;;;;;;1.2890408;0.5913877;-0.34681234;;;;;1986.8
2180.0;2085.2;;;;;;;;;;;;;;;;;-34.279915;27.886288;-45.106358;;1986.8
2180.0;2085.2;;;;;;;;;;;;;;1.2239143;0.56495863;-0.25074008;;;;;1986.8
2181.0;2086.0;;;;;;;;;;;;;;;;;-40.92532;34.310432;-41.142765;;1996.5
2181.0;2086.0;;;;;;;;;;;;;;1.1402936;0.5398724;-0.16864528;;;;;1996.5
2181.0;2086.0;;;;;;;;;;;;;;;;;-45.754875;37.5454;-37.633137;;1996.5
2181.0;2086.0;;;;;;;;;;;;;;1.0707114;0.5200354;-0.11572619;;;;;1996.5
2181.0;2086.0;;;;;;;;;;;;;;;;;-47.34184;37.5454;-34.424877;;2006.2
2181.0;2086.0;;;;;;;;;;;;;;1.0284127;0.5059969;-0.09973449;;;;;2006.2
2181.0;2086.0;;;;;;;;;;;;;;;;;-46.533096;36.267433;-31.33488;;2006.2
2181.0;2086.0;;;;;;;;;;;;;;1.007416;0.48780787;-0.097048864;;;;;2006.2
2181.0;2086.0;;;;;;;;;;;;;;;;;-43.412582;33.860287;-27.859583;;2015.8
2181.0;2086.0;;;;;;;;;;;;;;0.9994812;0.4647969;-0.113528855;;;;;2015.8
2181.0;2086.0;;;;;;;;;;;;;;;;;-39.262062;29.866177;-24.044771;;2015.8
2181.0;2086.0;;;;;;;;;;;;;;0.9981994;0.42243722;-0.1462447;;;;;2015.8
2181.0;2086.8;;;;;;;;;;;;;2700;;;;;;;;
2181.0;2086.8;;;;;;;;;;;;;2945;;;;;;;;
2181.0;2086.8;;;;;;;;;;;;;3538;;;;;;;;
2181.0;2086.8;;;;;;;;;;;;;4545;;;;;;;;
2181.0;2086.8;;;;;;;;;;;;;5722;;;;;;;;
2181.0;2087.3;;;;-0.88004315;1.4733392;0.63211447;;;;;;;;;;;;;;;
2181.0;2087.3;;;;-0.86470044;1.4507524;0.6162148;;;;;;;;;;;;;;;
2181.0;2087.3;;;;-0.8465806;1.4287072;0.600071;;;;;;;;;;;;;;;
2181.0;2087.3;;;;-0.8255197;1.4076539;0.58425146;;;;;;;;;;;;;;;
2181.0;2087.3;;;;-0.8025247;1.3873025;0.57038504;;;;;;;;;;;;;;;
2181.0;2089.6;;;;;;;;;;44.629505;-97.77749;-91.10156;;;;;;;;;
2181.0;2089.6;;;;;;;0.17303994;-1.5085299;0.23450422;;;;;;;;;;;;
2181.0;2089.6;;;;;;;;;;42.970062;-95.99216;-94.38994;;;;;;;;;
2181.0;2089.6;;;;;;;0.18079165;-1.4540849;0.21948913;;;;;;;;;;;;
2182.0;2097.3;;;;-0.77827466;1.3679353;0.5571442;;;;;;;;;;;;;;;
2182.0;2097.3;;;;-0.7513505;1.3490564;0.5436097;;;;;;;;;;;;;;;
2182.0;2097.3;;;;-0.7217217;1.3296434;0.5320168;;;;;;;;;;;;;;;
2182.0;2097.3;;;;-0.6915932;1.3105584;0.51858526;;;;;;;;;;;;;;;
2182.0;2097.3;;;;-0.6609269;1.2917176;0.5056191;;;;;;;;;;;;;;;
2182.0;2099.2;;;;;;;;;;41.13132;-93.985565;-97.57531;;;;;;;;;
2182.0;2099.2;;;;;;;0.19244972;-1.4004945;0.20599994;;;;;;;;;;;;
2182.0;2099.2;;;;;;;;;;39.620655;-92.169716;-100.91326;;;;;;;;;
2182.0;2099.2;;;;;;;0.20545061;-1.3509324;0.19415876;;;;;;;;;;;;
2182.0;2100.5;;;;;;;;;;;;;;;;;-34.84069;25.822474;-19.993439;;2025.3
2182.0;2100.5;;;;;;;;;;;;;;1.0075991;0.37720877;-0.18048647;;;;;2025.3
2182.0;2100.5;;;;;;;;;;;;;;;;;-31.258583;22.980438;-15.6788845;;2025.3
2182.0;2100.5;;;;;;;;;;;;;;1.0307322;0.3475448;-0.20130008;;;;;2025.3
2182.0;2100.5;;;;;;;;;;;;;;;;;-28.405102;21.664328;-11.196478;;2034.8
2182.0;2100.5;;;;;;;;;;;;;;1.0463576;0.31116673;-0.20917386;;;;;2034.8
2182.0;2100.5;;;;;;;;;;;;;;;;;-25.341806;21.599476;-7.0726647;;2034.8
2182.0;2100.5;;;;;;;;;;;;;;1.050203;0.27423933;-0.2113712;;;;;2034.8
2182.0;2100.5;;;;;;;;;;;;;;;;;-21.835995;22.492142;-3.6202583;;2044.5
2182.0;2100.5;;;;;;;;;;;;;;1.0442213;0.25171667;-0.20618305;;;;;2044.5
2182.0;2100.5;;;;;;;;;;;;;;;;;-17.891476;24.327068;-0.7477035;;2044.5
2182.0;2100.5;;;;;;;;;;;;;;1.0331125;0.22956023;-0.18683432;;;;;2044.5
2182.0;2100.8;262143;262143;14506;;;;;;;;;;;;;;;;;;
2227.0;2107.2;;;;-0.6308785;1.2724878;0.49491125;;;;;;;;;;;;;;;
2227.0;2107.2;;;;-0.603756;1.2535592;0.4830895;;;;;;;;;;;;;;;
2227.0;2107.2;;;;-0.57827765;1.2356759;0.47181326;;;;;;;;;;;;;;;
2227.0;2107.2;;;;-0.55455786;1.2178613;0.46096808;;;;;;;;;;;;;;;
2227.0;2107.2;;;;-0.5321923;1.2009012;0.44856268;;;;;;;;;;;;;;;
2227.0;2108.5;;;;;;;;;;38.41136;-90.334785;-103.99182;;;;;;;;;
2227.0;2108.5;;;;;;;0.22467726;-1.3036287;0.18439284;;;;;;;;;;;;
2227.0;2108.5;;;;;;;;;;36.988434;-87.42409;-106.975006;;;;;;;;;
2227.0;2108.5;;;;;;;0.2454909;-1.2585223;0.17847225;;;;;;;;;;;;
2227.0;2116.8;;;;-0.51092917;1.183735;0.43721014;;;;;;;;;;;;;;;
2227.0;2116.8;;;;-0.48969656;1.1663858;0.42622;;;;;;;;;;;;;;;
2227.0;2116.8;;;;-0.46906286;1.1497003;0.41626364;;;;;;;;;;;;;;;
2227.0;2116.8;;;;-0.4489594;1.132969;0.40668112;;;;;;;;;;;;;;;
2227.0;2116.8;;;;-0.4287873;1.1172563;0.39866263;;;;;;;;;;;;;;;
2227.0;2117.6;;;;;;;;;;35.50447;-84.04797;-109.5233;;;;;;;;;
2227.0;2117.6;;;;;;;0.26477858;-1.2178106;0.17468795;;;;;;;;;;;;
2227.0;2117.6;;;;;;;;;;33.856472;-80.22935;-111.35822;;;;;;;;;
2227.0;2117.6;;;;;;;0.2855922;-1.1769158;0.17157505;;;;;;;;;;;;
2227.0;2120.2;262143;262143;14496;;;;;;;;;;;;;;;;;;
2227.0;2126.0;;;;;;;;;;;;;6415;;;;;;;;
2227.0;2126.0;;;;;;;;;;;;;6267;;;;;;;;
2227.0;2126.0;;;;;;;;;;;;;5675;;;;;;;;
2227.0;2126.0;;;;;;;;;;;;;5319;;;;;;;;
2227.0;2126.0;;;;;;;;;;;;;5362;;;;;;;;
2229.0;2126.4;;;;-0.40972525;1.1011468;0.38986212;;;;;;;;;;;;;;;
2229.0;2126.4;;;;-0.3917504;1.0859033;0.3818627;;;;;;;;;;;;;;;
2229.0;2126.4;;;;-0.37437823;1.0710565;0.37434772;;;;;;;;;;;;;;;
2229.0;2126.4;;;;-0.35792926;1.0564462;0.36828235;;;;;;;;;;;;;;;
2229.0;2126.4;;;;-0.34279254;1.042019;0.36233523;;;;;;;;;;;;;;;
2229.0;2126.8;;;;;;;;;;32.26951;-76.036865;-112.914665;;;;;;;;;
2229.0;2126.8;;;;;;;0.3054903;-1.1420026;0.16803491;;;;;;;;;;;;
2229.0;2126.8;;;;;;;;;;30.785545;-71.66891;-114.13159;;;;;;;;;
2229.0;2126.8;;;;;;;0.31934568;-1.1127659;0.16577655;;;;;;;;;;;;
2229.0;2136.5;;;;;;;;;;29.595325;-66.846985;-115.07767;;;;;;;;;
2229.0;2136.5;;;;;;;0.32789087;-1.0845668;0.16138189;;;;;;;;;;;;
2229.0;2136.5;;;;;;;;;;28.64162;-61.613056;-115.66515;;;;;;;;;
2229.0;2136.5;;;;;;;0.3336894;-1.0561235;0.16016114;;;;;;;;;;;;
2229.0;2136.5;;;;-0.3289986;1.0272638;0.35647586;;;;;;;;;;;;;;;
2229.0;2136.5;;;;-0.31766132;1.0123292;0.35070422;;;;;;;;;;;;;;;
2229.0;2136.5;;;;-0.30749515;0.99767697;0.346859;;;;;;;;;;;;;;;
2229.0;2136.5;;;;-0.2986069;0.98339856;0.34308246;;;;;;;;;;;;;;;
2229.0;2136.5;;;;-0.2908478;0.96959317;0.3392487;;;;;;;;;;;;;;;
2229.0;2140.3;262143;262143;14505;;;;;;;;;;;;;;;;;;
2230.0;2144.5;;;;;;;;;;;;;;;;;-13.454848;26.108585;1.7738883;;2054.2
2230.0;2144.5;;;;;;;;;;;;;;1.0110172;0.21991637;-0.16803491;;;;;2054.2
2230.0;2144.5;;;;;;;;;;;;;;;;;-8.384961;27.11951;4.074221;;2054.2
2230.0;2144.5;;;;;;;;;;;;;;0.9792779;0.20764793;-0.16370128;;;;;2054.2
2230.0;2144.5;;;;;;;;;;;;;;;;;-2.4681845;27.417065;5.8023314;;2063.8
2230.0;2144.5;;;;;;;;;;;;;;0.9418622;0.19336528;-0.17011017;;;;;2063.8
2230.0;2144.5;;;;;;;;;;;;;;;;;4.299295;26.955475;6.912442;;2063.8
2230.0;2144.5;;;;;;;;;;;;;;0.9065218;0.17731254;-0.18414868;;;;;2063.8
2230.0;2144.5;;;;;;;;;;;;;;;;;11.2384405;26.383251;7.6906643;;2073.5
2230.0;2144.5;;;;;;;;;;;;;;0.86971647;0.16937773;-0.1850032;;;;;2073.5
2230.0;2144.5;;;;;;;;;;;;;;;;;17.693106;25.601213;8.365887;;2073.5
2230.0;2144.5;;;;;;;;;;;;;;0.834315;0.17523728;-0.18372142;;;;;2073.5
2230.0;2146.0;;;;;;;;;;28.004547;-56.1655;-115.9093;;;;;;;;;
2230.0;2146.0;;;;;;;0.33893856;-1.0317087;0.15784173;;;;;;;;;;;;
2230.0;2146.0;;;;;;;;;;27.581102;-50.55391;-115.90549;;;;;;;;;
2230.0;2146.0;;;;;;;0.34070864;-1.0050355;0.15411848;;;;;;;;;;;;
2230.0;2146.5;;;;-0.2836838;0.95619595;0.334713;;;;;;;;;;;;;;;
2230.0;2146.5;;;;-0.2771683;0.9429704;0.33040622;;;;;;;;;;;;;;;
2230.0;2146.5;;;;-0.27097324;0.9304582;0.32660297;;;;;;;;;;;;;;;
2230.0;2146.5;;;;-0.26503757;0.91806805;0.32341388;;;;;;;;;;;;;;;
2230.0;2146.5;;;;-0.2605057;0.90646756;0.3197594;;;;;;;;;;;;;;;
2230.0;2155.5;;;;;;;;;;27.066103;-44.80117;-115.722374;;;;;;;;;
2230.0;2155.5;;;;;;;0.34333324;-0.97598195;0.14862514;;;;;;;;;;;;
2230.0;2155.5;;;;;;;;;;26.676992;-38.87295;-115.264595;;;;;;;;;
2230.0;2155.5;;;;;;;0.34400463;-0.948088;0.14526811;;;;;;;;;;;;
2231.0;2156.5;;;;-0.25662997;0.89483273;0.317421;;;;;;;;;;;;;;;
2231.0;2156.5;;;;-0.25313953;0.88463986;0.3151627;;;;;;;;;;;;;;;
2231.0;2156.5;;;;-0.2503014;0.8757707;0.31318286;;;;;;;;;;;;;;;
2231.0;2156.5;;;;-0.2481766;0.8675729;0.31064227;;;;;;;;;;;;;;;
2231.0;2156.5;;;;-0.2449036;0.85896695;0.30519107;;;;;;;;;;;;;;;
2231.0;2159.5;;;;;;;;;;;;;;;;;24.014252;24.967955;9.044923;;2083.2
2231.0;2159.5;;;;;;;;;;;;;;0.7920774;0.16382337;-0.19757684;;;;;2083.2
2231.0;2159.5;;;;;;;;;;;;;;;;;30.999176;24.338512;9.437849;;2083.2
2231.0;2159.5;;;;;;;;;;;;;;0.7368389;0.15033418;-0.21948913;;;;;2083.2
2231.0;2159.5;;;;;;;;;;;;;;;;;38.277843;23.037659;10.109256;;2092.8
2231.0;2159.5;;;;;;;;;;;;;;0.68959624;0.15045625;-0.22168645;;;;;2092.8
2231.0;2159.5;;;;;;;;;;;;;;;;;44.04584;20.519882;11.425366;;2092.8
2231.0;2159.5;;;;;;;;;;;;;;0.6542558;0.12878811;-0.21491134;;;;;2092.8
2231.0;2159.5;;;;;;;;;;;;;;;;;49.470505;17.391735;12.48207;;2102.5
2231.0;2159.5;;;;;;;;;;;;;;0.6275826;0.10333567;-0.20978424;;;;;2102.5
2231.0;2159.5;;;;;;;;;;;;;;;;;55.993835;14.767144;12.768181;;2102.5
2231.0;2159.5;;;;;;;;;;;;;;0.611713;0.0888699;-0.19824824;;;;;2102.5
2231.0;2160.2;262143;262143;14507;;;;;;;;;;;;;;;;;;
2231.0;2165.0;;;;;;;;;;26.440474;-32.776882;-114.6466;;;;;;;;;
2231.0;2165.0;;;;;;;0.34339428;-0.9259926;0.13794367;;;;;;;;;;;;
2231.0;2165.0;;;;;;;;;;26.406141;-26.467178;-113.864555;;;;;;;;;
2231.0;2165.0;;;;;;;0.33924374;-0.90212715;0.13006988;;;;;;;;;;;;
2289.0;2166.2;;;;;;;;;;;;;5246;;;;;;;;
2289.0;2166.2;;;;;;;;;;;;;4524;;;;;;;;
2289.0;2166.2;;;;;;;;;;;;;3776;;;;;;;;
2289.0;2166.2;;;;;;;;;;;;;3562;;;;;;;;
2289.0;2166.2;;;;;;;;;;;;;3468;;;;;;;;
2289.0;2166.5;;;;-0.24126056;0.85110486;0.30321506;;;;;;;;;;;;;;;
2289.0;2166.5;;;;-0.23915866;0.84536374;0.3037491;;;;;;;;;;;;;;;
2289.0;2166.5;;;;-0.24332431;0.8392526;0.3013573;;;;;;;;;;;;;;;
2289.0;2166.5;;;;-0.25888446;0.8377992;0.30490115;;;;;;;;;;;;;;;
2289.0;2166.5;;;;-0.2691498;0.83882153;0.31130984;;;;;;;;;;;;;;;
2289.0;2174.4;;;;;;;;;;26.585438;-19.596697;-112.59041;;;;;;;;;
2289.0;2174.4;;;;;;;0.33460495;-0.8890652;0.12585834;;;;;;;;;;;;
2289.0;2174.4;;;;;;;;;;27.066103;-13.191626;-110.94622;;;;;;;;;
2289.0;2174.4;;;;;;;0.3307596;-0.8757591;0.11328471;;;;;;;;;;;;
2289.0;2176.4;;;;-0.27040103;0.8347894;0.31001285;;;;;;;;;;;;;;;
2289.0;2176.4;;;;-0.2641144;0.82421124;0.29790118;;;;;;;;;;;;;;;
2289.0;2176.4;;;;-0.2542763;0.81333554;0.28602222;;;;;;;;;;;;;;;
2289.0;2176.4;;;;-0.24172214;0.80508435;0.27936938;;;;;;;;;;;;;;;
2289.0;2176.4;;;;-0.22817615;0.79830945;0.27604678;;;;;;;;;;;;;;;
2289.0;2180.3;262143;262143;14495;;;;;;;;;;;;;;;;;;
2289.0;2184.0;;;;;;;;;;27.485731;-7.0116277;-109.44319;;;;;;;;;
2289.0;2184.0;;;;;;;0.32502213;-0.86342967;0.10699789;;;;;;;;;;;;
2289.0;2184.0;;;;;;;;;;28.096102;-1.1444441;-107.74941;;;;;;;;;
2289.0;2184.0;;;;;;;0.31580552;-0.8522599;0.094058044;;;;;;;;;;;;
2291.0;2186.5;;;;-0.2150307;0.7915269;0.27598956;;;;;;;;;;;;;;;
2291.0;2186.5;;;;-0.20394138;0.78489697;0.27703097;;;;;;;;;;;;;;;
2291.0;2186.5;;;;-0.19633105;0.7770158;0.27803043;;;;;;;;;;;;;;;
2291.0;2186.5;;;;-0.19298175;0.76916516;0.27860644;;;;;;;;;;;;;;;
2291.0;2186.5;;;;-0.19311908;0.7607156;0.2797089;;;;;;;;;;;;;;;
2291.0;2193.6;;;;;;;;;;28.584398;4.463332;-105.960266;;;;;;;;;
2291.0;2193.6;;;;;;;0.30664998;-0.8418836;0.08465835;;;;;;;;;;;;
2291.0;2193.6;;;;;;;;;;29.198584;9.678183;-103.94223;;;;;;;;;
2291.0;2193.6;;;;;;;0.29438153;-0.83077484;0.0783105;;;;;;;;;;;;
2291.0;2196.6;;;;-0.19584277;0.75138485;0.27981952;;;;;;;;;;;;;;;
2291.0;2196.6;;;;-0.20079044;0.7409974;0.27923587;;;;;;;;;;;;;;;
2291.0;2196.6;;;;-0.20626834;0.7301484;0.27842715;;;;;;;;;;;;;;;
2291.0;2196.6;;;;-0.21125796;0.7187043;0.27693942;;;;;;;;;;;;;;;
2291.0;2196.6;;;;-0.21491244;0.70808035;0.27511218;;;;;;;;;;;;;;;
2291.0;2200.6;262143;262143;14491;;;;;;;;;;;;;;;;;;
2291.0;2203.3;;;;;;;;;;29.999695;13.714254;-101.702934;;;;;;;;;
2291.0;2203.3;;;;;;;0.2829066;-0.81624806;0.06878872;;;;;;;;;;;;
2291.0;2203.3;;;;;;;;;;30.777916;16.701256;-99.4293;;;;;;;;;
2291.0;2203.3;;;;;;;0.27332377;-0.8044069;0.066286206;;;;;;;;;;;;
2292.0;2204.7;;;;;;;;;;;;;;;;;62.395092;12.943663;12.657552;;2112.0
2292.0;2204.7;;;;;;;;;;;;;;0.5993225;0.097170934;-0.1944029;;;;;2112.0
2292.0;2204.7;;;;;;;;;;;;;;;;;68.87264;11.700033;12.253182;;2112.0
2292.0;2204.7;;;;;;;;;;;;;;0.57112336;0.114322335;-0.17999817;;;;;2112.0
2292.0;2204.7;;;;;;;;;;;;;;;;;75.06409;9.990996;12.245552;;2121.6
2292.0;2204.7;;;;;;;;;;;;;;0.5366375;0.111514635;-0.17798395;;;;;2121.6
2292.0;2204.7;;;;;;;;;;;;;;;;;80.71764;8.468886;12.905515;;2121.6
2292.0;2204.7;;;;;;;;;;;;;;0.5157018;0.12323374;-0.17194128;;;;;2121.6
2292.0;2204.7;;;;;;;;;;;;;;;;;85.12376;7.4198127;13.988921;;2131.2
2292.0;2204.7;;;;;;;;;;;;;;0.49208045;0.12305063;-0.16657002;;;;;2131.2
2292.0;2204.7;;;;;;;;;;;;;;;;;88.47316;6.9009976;15.411847;;2131.2
2292.0;2204.7;;;;;;;;;;;;;;0.4761498;0.13641773;-0.16113773;;;;;2131.2
2292.0;2206.4;;;;;;;;;;;;;3149;;;;;;;;
2292.0;2206.4;;;;;;;;;;;;;3115;;;;;;;;
2292.0;2206.4;;;;;;;;;;;;;3424;;;;;;;;
2292.0;2206.4;;;;;;;;;;;;;3104;;;;;;;;
2292.0;2206.4;;;;;;;;;;;;;1940;;;;;;;;
2292.0;2206.6;;;;-0.21787265;0.6979943;0.27216724;;;;;;;;;;;;;;;
2292.0;2206.6;;;;-0.22161868;0.68861014;0.26835635;;;;;;;;;;;;;;;
2292.0;2206.6;;;;-0.22534183;0.680729;0.26503757;;;;;;;;;;;;;;;
2292.0;2206.6;;;;-0.22867206;0.67407995;0.26103595;;;;;;;;;;;;;;;
2292.0;2206.6;;;;-0.23162845;0.6675759;0.2573128;;;;;;;;;;;;;;;
2292.0;2212.6;;;;;;;;;;32.1894;18.00592;-97.97586;;;;;;;;;
2292.0;2212.6;;;;;;;0.26343578;-0.7965331;0.0590228;;;;;;;;;;;;
2292.0;2212.6;;;;;;;;;;33.95947;18.566698;-97.14423;;;;;;;;;
2292.0;2212.6;;;;;;;0.25000763;-0.7802362;0.044801172;;;;;;;;;;;;
2293.0;2216.6;;;;-0.23414996;0.6629296;0.25379565;;;;;;;;;;;;;;;
2293.0;2216.6;;;;-0.23754886;0.65863806;0.249939;;;;;;;;;;;;;;;
2293.0;2216.6;;;;-0.24051669;0.65299994;0.24434283;;;;;;;;;;;;;;;
2293.0;2216.6;;;;-0.24167636;0.64630896;0.23836139;;;;;;;;;;;;;;;
2293.0;2216.6;;;;-0.24242404;0.64077765;0.2360268;;;;;;;;;;;;;;;
2293.0;2219.6;;;;;;;;;;;;;;;;;90.327156;7.0345163;17.273476;;2140.9
2293.0;2219.6;;;;;;;;;;;;;;0.47499007;0.16937773;-0.1604053;;;;;2140.9
2293.0;2219.6;;;;;;;;;;;;;;;;;90.04486;8.190405;19.234291;;2140.9
2293.0;2219.6;;;;;;;;;;;;;;0.47560045;0.18890958;-0.15009002;;;;;2140.9
2293.0;2219.6;;;;;;;;;;;;;;;;;88.354904;9.563738;20.825068;;2150.6
2293.0;2219.6;;;;;;;;;;;;;;0.46229437;0.22742394;-0.13550219;;;;;2150.6
2293.0;2219.6;;;;;;;;;;;;;;;;;85.7799;10.441145;22.606585;;2150.6
2293.0;2219.6;;;;;;;;;;;;;;0.44441053;0.26612142;-0.13476974;;;;;2150.6
2293.0;2219.6;;;;;;;;;;;;;;;;;82.83868;10.380108;24.529253;;2160.2
2293.0;2219.6;;;;;;;;;;;;;;0.42774743;0.27845088;-0.15320292;;;;;2160.2
2293.0;2219.6;;;;;;;;;;;;;;;;;80.72527;9.643849;26.127659;;2160.2
2293.0;2219.6;;;;;;;;;;;;;;0.41718802;0.285226;-0.18372142;;;;;2160.2
2293.0;2220.4;262143;262143;14500;;;;;;;;;;;;;;;;;;
2293.0;2222.0;;;;;;;;;;35.05432;19.779808;-95.892975;;;;;;;;;
2293.0;2222.0;;;;;;;0.23102511;-0.7628407;0.035828732;;;;;;;;;;;;
2293.0;2222.0;;;;;;;;;;35.767693;21.40492;-94.00845;;;;;;;;;
2293.0;2222.0;;;;;;;0.20978424;-0.7490463;0.027893918;;;;;;;;;;;;
2407.0;2226.4;;;;-0.24384692;0.6343613;0.23447421;;;;;;;;;;;;;;;
2407.0;2226.4;;;;-0.24247745;0.6260491;0.23189166;;;;;;;;;;;;;;;
2407.0;2226.4;;;;-0.24294665;0.61859137;0.23080066;;;;;;;;;;;;;;;
2407.0;2226.4;;;;-0.24473956;0.6116372;0.22906497;;;;;;;;;;;;;;;
2407.0;2226.4;;;;-0.2470093;0.60454565;0.22717288;;;;;;;;;;;;;;;
2407.0;2231.5;;;;;;;;;;36.160618;22.648548;-91.47923;;;;;;;;;
2407.0;2231.5;;;;;;;0.18262276;-0.7362285;0.024109622;;;;;;;;;;;;
2407.0;2231.5;;;;;;;;;;36.530655;22.82403;-88.526566;;;;;;;;;
2407.0;2231.5;;;;;;;0.15955077;-0.7215186;0.021057772;;;;;;;;;;;;
2407.0;2236.3;;;;-0.25103;0.5971413;0.2248154;;;;;;;;;;;;;;;
2407.0;2236.3;;;;-0.25605395;0.58967596;0.22257999;;;;;;;;;;;;;;;
2407.0;2236.3;;;;-0.26056674;0.5822678;0.22028735;;;;;;;;;;;;;;;
2407.0;2236.3;;;;-0.26555255;0.57431036;0.21834567;;;;;;;;;;;;;;;
2407.0;2236.3;;;;-0.27063373;0.56589895;0.21601108;;;;;;;;;;;;;;;
2407.0;2240.3;262143;262143;14502;;;;;;;;;;;;;;;;;;
2407.0;2241.0;;;;;;;;;;37.1601;21.908476;-85.33739;;;;;;;;;
2407.0;2241.0;;;;;;;0.13843197;-0.7038789;0.015198218;;;;;;;;;;;;
2407.0;2241.0;;;;;;;;;;38.03751;19.989624;-82.08716;;;;;;;;;
2407.0;2241.0;;;;;;;0.12616351;-0.6841639;0.0114139225;;;;;;;;;;;;
2407.0;2246.2;;;;;;;;;;;;;1711;;;;;;;;
2407.0;2246.2;;;;;;;;;;;;;3857;;;;;;;;
2407.0;2246.2;;;;;;;;;;;;;4050;;;;;;;;
2407.0;2246.2;;;;;;;;;;;;;-6031;;;;;;;;
2407.0;2246.2;;;;;;;;;;;;;-24614;;;;;;;;
2412.0;2246.4;;;;-0.27518466;0.5579987;0.21408466;;;;;;;;;;;;;;;
2412.0;2246.4;;;;-0.28057483;0.548523;0.21301273;;;;;;;;;;;;;;;
2412.0;2246.4;;;;-0.2851105;0.5397721;0.21081164;;;;;;;;;;;;;;;
2412.0;2246.4;;;;-0.29017642;0.5320702;0.20934299;;;;;;;;;;;;;;;
2412.0;2246.4;;;;-0.29486468;0.5244637;0.20695117;;;;;;;;;;;;;;;
2412.0;2250.6;;;;;;;;;;38.937805;17.38792;-79.00098;;;;;;;;;
2412.0;2250.6;;;;;;;0.12091433;-0.66096985;0.0055543687;;;;;;;;;;;;
2412.0;2250.6;;;;;;;;;;39.883877;14.217811;-76.31535;;;;;;;;;
2412.0;2250.6;;;;;;;0.112857446;-0.64265877;-0.0037842952;;;;;;;;;;;;
2412.0;2256.5;;;;-0.29885867;0.5169907;0.20616534;;;;;;;;;;;;;;;
2412.0;2256.5;;;;-0.30357745;0.5098763;0.20483401;;;;;;;;;;;;;;;
2412.0;2256.5;;;;-0.30638507;0.5032769;0.2038956;;;;;;;;;;;;;;;
2412.0;2256.5;;;;-0.31150058;0.49898154;0.20382693;;;;;;;;;;;;;;;
2412.0;2256.5;;;;-0.31463245;0.49434286;0.20283511;;;;;;;;;;;;;;;
2412.0;2260.2;;;;;;;;;;40.5858;10.845515;-74.01883;;;;;;;;;
2412.0;2260.2;;;;;;;0.10357982;-0.628193;-0.012207404;;;;;;;;;;;;
2412.0;2260.2;;;;;;;;;;41.192356;7.4312572;-72.00079;;;;;;;;;
2412.0;2260.2;;;;;;;0.09485153;-0.61238444;-0.019898068;;;;;;;;;;;;
2412.0;2260.6;262143;262143;14501;;;;;;;;;;;;;;;;;;
2413.0;2265.1;;;;;;;;;;;;;;;;;79.47783;9.586627;27.26829;;2169.8
2413.0;2265.1;;;;;;;;;;;;;;0.40369883;0.30152288;-0.21893978;;;;;2169.8
2413.0;2265.1;;;;;;;;;;;;;;;;;78.26472;9.689628;28.462324;;2169.8
2413.0;2265.1;;;;;;;;;;;;;;0.40919217;0.2887051;-0.24707785;;;;;2169.8
2413.0;2265.1;;;;;;;;;;;;;;;;;76.55569;10.467849;29.06125;;2179.5
2413.0;2265.1;;;;;;;;;;;;;;0.39692372;0.3043306;-0.2725303;;;;;2179.5
2413.0;2265.1;;;;;;;;;;;;;;;;;75.678276;10.170293;29.305399;;2179.5
2413.0;2265.1;;;;;;;;;;;;;;0.382519;0.27643666;-0.3192236;;;;;2179.5
2413.0;2265.1;;;;;;;;;;;;;;;;;76.26957;9.441664;29.198584;;2189.1
2413.0;2265.1;;;;;;;;;;;;;;0.38056582;0.30182806;-0.3455916;;;;;2189.1
2413.0;2265.1;;;;;;;;;;;;;;;;;77.13172;7.7517014;30.213324;;2189.1
2413.0;2265.1;;;;;;;;;;;;;;0.3818476;0.31134984;-0.36640522;;;;;2189.1
2413.0;2266.4;;;;-0.31792834;0.488926;0.20245364;;;;;;;;;;;;;;;
2413.0;2266.4;;;;-0.32272723;0.48440176;0.20382693;;;;;;;;;;;;;;;
2413.0;2266.4;;;;-0.32781604;0.4809342;0.2052193;;;;;;;;;;;;;;;
2413.0;2266.4;;;;-0.3321152;0.4773026;0.2063866;;;;;;;;;;;;;;;
2413.0;2266.4;;;;-0.33631518;0.47478873;0.20614246;;;;;;;;;;;;;;;
2413.0;2269.7;;;;;;;;;;41.80654;3.688925;-69.799644;;;;;;;;;
2413.0;2269.7;;;;;;;0.08282723;-0.6042054;-0.028565325;;;;;;;;;;;;
2413.0;2269.7;;;;;;;;;;42.394024;-0.23651844;-67.468796;;;;;;;;;
2413.0;2269.7;;;;;;;0.072206795;-0.5924863;-0.036317028;;;;;;;;;;;;
2415.0;2272.2;;;;;;;;;;;;;;;;;77.5628;6.3859982;29.950102;;2198.7
2415.0;2272.2;;;;;;;;;;;;;;0.38422802;0.32789087;-0.37946716;;;;;2198.7
2415.0;2272.2;;;;;;;;;;;;;;;;;77.77643;5.5543685;30.16373;;2198.7
2415.0;2272.2;;;;;;;;;;;;;;0.387463;0.32996613;-0.37775812;;;;;2198.7
2415.0;2272.2;;;;;;;;;;;;;;;;;77.77643;5.3407393;30.549028;;2208.4
