patientId;holterMac;flexMac;;;;;;;;;;;;;;;;;;;;
stairsdown;CA:F3:0B:1E:33:78;D3:4A:5C:52:80:78;;;;;;;;;;;;;;;;;;;;
receivedTimeStamp;timeStamp;red;ir;green;adxl_accX;adxl_accY;adxl_accZ;lsm_accelX;lsm_accelY;lsm_accelZ;lsm_gyroX;lsm_gyroY;lsm_gyroZ;ecg;flex_lsm_accelX;flex_lsm_accelY;flex_lsm_accelZ;flex_lsm_gyroX;flex_lsm_gyroY;flex_lsm_gyroZ;flex_cmd;flexTimeStamp
272.0;214.3;;;;;;;;;;;;;;;;;;;;17;0.1
272.0;214.3;;;;;;;;;;;;;;;;;13.599812;0.76296276;1.3542589;;127.5
272.0;214.3;;;;;;;;;;;;;;1.3775445;-1.1457869;0.37653738;;;;;127.5
272.0;214.3;;;;;;;;;;;;;;;;;-5.733665;-17.727438;-7.0535903;;127.5
272.0;214.3;;;;;;;;;;;;;;1.0596026;-0.75423443;0.20252083;;;;;127.5
272.0;214.3;;;;;;;;;;;;;;;;;-61.643574;-85.18479;-61.36128;;137.1
272.0;214.3;;;;;;;;;;;;;;1.007477;-0.4915311;-0.268746;;;;;137.1
272.0;214.3;;;;;;;;;;;;;;;;;-121.64296;-124.988556;-119.68978;;137.1
272.0;214.3;;;;;;;;;;;;;;1.1125218;-0.18823817;-0.720542;;;;;137.1
336.0;215.1;;;;;;;;;;;;;;;;;-56.52028;-124.988556;-70.150604;;146.8
336.0;215.1;;;;;;;;;;;;;;1.0675985;-0.052735984;-0.33954895;;;;;146.8
336.0;215.1;;;;;;;;;;;;;;;;;0.8278146;-124.988556;-11.772515;;146.8
336.0;215.1;;;;;;;;;;;;;;0.9566332;0.12549211;0.1010773;;;;;146.8
336.0;215.1;;;;;;;;;;;;;;;;;-5.283517;-106.39897;-2.0180366;;156.4
336.0;215.1;;;;;;;;;;;;;;1.0283517;0.29865414;-0.13397625;;;;;156.4
336.0;215.1;;;;;;;;;;;;;;;;;4.974517;-36.393322;20.05829;;156.4
336.0;215.1;;;;;;;;;;;;;;1.050203;0.44526505;-0.29340494;;;;;156.4
336.0;215.1;;;;;;;;;;;;;;;;;16.026033;-18.52092;17.544327;;166.0
336.0;215.1;;;;;;;;;;;;;;0.99862665;0.5019074;-0.20673238;;;;;166.0
336.0;215.1;;;;;;;;;;;;;;;;;6.2944427;-12.0052185;12.630848;;166.0
336.0;215.1;;;;;;;;;;;;;;0.94662315;0.5147252;0.023255104;;;;;166.0
336.0;274.8;;;;;;;;;;;;;;;;;-18.726921;-8.930479;11.642812;;175.6
336.0;274.8;;;;;;;;;;;;;;0.9735404;0.37299722;0.28632465;;;;;175.6
336.0;274.8;;;;;;;;;;;;;;;;;-29.06125;-10.567034;14.782403;;175.6
336.0;274.8;;;;;;;;;;;;;;1.088046;0.13049714;0.3688467;;;;;175.6
336.0;274.8;;;;;;;;;;;;;;;;;-24.788658;-2.582629;18.54381;;185.2
336.0;274.8;;;;;;;;;;;;;;1.1964476;-0.10925627;0.36542863;;;;;185.2
336.0;274.8;;;;;;;;;;;;;;;;;-16.186255;12.760551;21.050142;;185.2
336.0;274.8;;;;;;;;;;;;;;1.1919309;-0.28357798;0.2796716;;;;;185.2
336.0;274.8;;;;;;;;;;;;;;;;;-2.5368512;17.27729;24.899288;;194.9
336.0;274.8;;;;;;;;;;;;;;1.1961424;-0.4604633;0.08471938;;;;;194.9
336.0;274.8;;;;;;;;;;;;;;;;;18.570513;11.196478;32.361065;;194.9
336.0;274.8;;;;;;;;;;;;;;1.2097538;-0.5846736;-0.13599049;;;;;194.9
396.0;275.6;;;;;;;;;;;;;;;;;38.369396;-2.5025177;43.56136;;204.4
396.0;275.6;;;;;;;;;;;;;;1.1858273;-0.6457717;-0.31849116;;;;;204.4
396.0;275.6;;;;;;;;;;;;;;;;;44.980465;-17.29255;56.29139;;204.4
396.0;275.6;;;;;;;;;;;;;;1.1467636;-0.7360454;-0.3895993;;;;;204.4
396.0;275.6;;;;;;;;;;;;;;;;;54.170357;18.292032;69.99802;;214.1
396.0;275.6;;;;;;;;;;;;;;1.4098331;-0.5628834;-1.599475;;;;;214.1
396.0;275.6;;;;;;;;;;;;;;;;;55.921352;118.64452;85.84857;;214.1
396.0;275.6;;;;;;;;;;;;;;0.89767146;-0.8058718;0.8116703;;;;;214.1
396.0;275.6;;;;;;;;;;;;;;;;;16.26255;121.75359;94.88968;;223.8
396.0;275.6;;;;;;;;;;;;;;1.2175055;-0.18720053;-0.12512589;;;;;223.8
396.0;275.6;;;;;;;;;;;;;;;;;-39.872433;122.5013;118.32027;;223.8
396.0;275.6;;;;;;;;;;;;;;0.5710623;-0.38306832;0.37165442;;;;;223.8
396.0;335.1;;;;;;;;;;;;;;;;;-32.42592;106.51723;122.238075;;233.4
396.0;335.1;;;;;;;;;;;;;;0.9351482;-0.903531;0.0794702;;;;;233.4
396.0;335.1;;;;;;;;;;;;;;;;;22.511215;83.07138;90.89556;;233.4
396.0;335.1;;;;;;;;;;;;;;0.8035523;-0.57704395;0.08642842;;;;;233.4
396.0;335.1;;;;;;;;;;;;;;;;;30.426954;31.411175;68.94512;;243.0
396.0;335.1;;;;;;;;;;;;;;0.60121465;0.6047548;-0.173101;;;;;243.0
396.0;335.1;;;;;;;;;;;;;;;;;-61.02176;-14.252144;99.345375;;243.0
396.0;335.1;;;;;;;;;;;;;;0.8701438;-0.12781152;-0.15088351;;;;;243.0
396.0;335.1;;;;;;;;;;;;;;;;;-26.444288;-14.5039215;91.235085;;252.4
396.0;335.1;;;;;;;;;;;;;;0.8139897;-0.47853023;-0.22217475;;;;;252.4
396.0;335.1;;;;;;;;;;;;;;;;;45.274208;-40.93295;43.523212;;252.4
396.0;335.1;;;;;;;;;;;;;;0.52900785;-0.33527634;0.39155248;;;;;252.4
516.0;335.9;;;;;;;;;;;;;;;;;62.204353;-108.8519;-0.2822962;;262.1
516.0;335.9;;;;;;;;;;;;;;0.6936247;-0.0026856288;0.40180668;;;;;262.1
516.0;335.9;;;;;;;;;;;;;;;;;69.97131;-124.988556;-1.5984069;;262.1
516.0;335.9;;;;;;;;;;;;;;0.91683704;-0.19226661;-0.044312876;;;;;262.1
516.0;335.9;;;;;;;;;;;;;;;;;109.96963;-124.988556;6.4355907;;271.7
516.0;335.9;;;;;;;;;;;;;;1.3139439;0.33838925;-0.87185276;;;;;271.7
516.0;335.9;;;;;;;;;;;;;;;;;27.134771;-75.628685;47.345654;;271.7
516.0;335.9;;;;;;;;;;;;;;1.1390729;-0.21106601;-1.7028718;;;;;271.7
516.0;335.9;;;;;;;;;;;;;;;;;-4.91348;69.956055;67.6748;;281.4
516.0;335.9;;;;;;;;;;;;;;0.748558;-0.30219427;-0.009155553;;;;;281.4
516.0;335.9;;;;;;;;;;;;;;;;;-6.1380353;35.19547;59.846798;;281.4
516.0;335.9;;;;;;;;;;;;;;0.7177954;-0.27295756;0.10644856;;;;;281.4
516.0;395.5;;;;;;;;;;;;;;;;;-3.3761103;-15.404218;57.897427;;291.1
516.0;395.5;;;;;;;;;;;;;;0.9284341;-0.23535874;-0.3241676;;;;;291.1
516.0;395.5;;;;;;;;;;;;;;;;;-4.482406;-12.352367;59.259315;;291.1
516.0;395.5;;;;;;;;;;;;;;1.0046083;-0.22199164;-0.43934447;;;;;291.1
516.0;395.5;;;;;;;;;;;;;;;;;-3.5973694;6.6415906;60.323647;;300.7
516.0;395.5;;;;;;;;;;;;;;0.9306314;-0.20551164;-0.2936491;;;;;300.7
516.0;395.5;;;;;;;;;;;;;;;;;-3.4981842;7.4198127;62.726982;;300.7
516.0;395.5;;;;;;;;;;;;;;0.8929716;-0.18555254;-0.24597919;;;;;300.7
516.0;395.5;;;;;;;;;;;;;;;;;-4.116184;4.554888;64.68398;;310.4
516.0;395.5;;;;;;;;;;;;;;0.9450972;-0.17719047;-0.2535478;;;;;310.4
516.0;395.5;;;;;;;;;;;;;;;;;-4.402295;6.851405;66.15269;;310.4
516.0;395.5;;;;;;;;;;;;;;0.9798883;-0.18073061;-0.23438215;;;;;310.4
518.0;396.2;;;;;;;;;;;;;;;;;-5.1461835;9.31196;67.31621;;320.0
518.0;396.2;;;;;;;;;;;;;;0.9997864;-0.16425061;-0.21869564;;;;;320.0
518.0;396.2;;;;;;;;;;;;;;;;;-6.5004425;11.226996;68.319496;;320.0
518.0;396.2;;;;;;;;;;;;;;0.95113987;-0.117313154;-0.25360882;;;;;320.0
518.0;396.2;;;;;;;;;;;;;;;;;-8.533738;14.915922;69.15875;;329.5
518.0;396.2;;;;;;;;;;;;;;0.90591145;-0.116214484;-0.18414868;;;;;329.5
518.0;396.2;;;;;;;;;;;;;;;;;-10.830256;11.1888485;71.34083;;329.5
518.0;396.2;;;;;;;;;;;;;;0.9456465;-0.14148381;-0.20722067;;;;;329.5
518.0;396.2;;;;;;;;;;;;;;;;;-11.692404;11.654256;73.70602;;339.2
518.0;396.2;;;;;;;;;;;;;;0.93856627;-0.19971313;-0.21509446;;;;;339.2
518.0;396.2;;;;;;;;;;;;;;;;;-11.757256;12.37907;74.65591;;339.2
518.0;396.2;;;;;;;;;;;;;;0.9208655;-0.17975402;-0.20319223;;;;;339.2
518.0;456.0;;;;;;;;;;;;;;;;;-12.066256;10.979034;75.27772;;348.8
518.0;456.0;;;;;;;;;;;;;;0.9078036;-0.15674306;-0.1866512;;;;;348.8
518.0;456.0;;;;;;;;;;;;;;;;;-12.977996;7.965331;76.54806;;348.8
518.0;456.0;;;;;;;;;;;;;;0.9065218;-0.16101566;-0.1902524;;;;;348.8
518.0;456.0;;;;;;;;;;;;;;;;;-13.809626;6.706443;77.723015;;358.5
518.0;456.0;;;;;;;;;;;;;;0.90047914;-0.17096469;-0.18182927;;;;;358.5
518.0;456.0;;;;;;;;;;;;;;;;;-16.460922;5.9663687;78.38297;;358.5
518.0;456.0;;;;;;;;;;;;;;0.91305274;-0.16235848;-0.15124974;;;;;358.5
518.0;456.0;;;;;;;;;;;;;;;;;-21.229439;4.238258;79.72961;;367.9
518.0;456.0;;;;;;;;;;;;;;0.92410046;-0.17542039;-0.13415937;;;;;367.9
518.0;456.0;;;;;;;;;;;;;;;;;-24.925991;2.166814;81.102936;;367.9
518.0;456.0;;;;;;;;;;;;;;0.93435466;-0.18451491;-0.13788262;;;;;367.9
577.0;456.8;;;;;;;;;;;;;;;;;-27.184362;1.6098514;81.896416;;377.6
577.0;456.8;;;;;;;;;;;;;;0.9486984;-0.18518631;-0.14831996;;;;;377.6
577.0;456.8;;;;;;;;;;;;;;;;;-29.152807;3.3646657;82.0986;;377.6
577.0;456.8;;;;;;;;;;;;;;0.9512009;-0.17169714;-0.12524797;;;;;377.6
577.0;456.8;;;;;;;;;;;;;;;;;-33.61614;5.142369;81.987976;;387.3
577.0;456.8;;;;;;;;;;;;;;0.94479203;-0.1530198;-0.10858486;;;;;387.3
577.0;456.8;;;;;;;;;;;;;;;;;-38.960693;7.7936645;81.02664;;387.3
577.0;456.8;;;;;;;;;;;;;;0.9239784;-0.13830988;-0.08594012;;;;;387.3
577.0;456.8;;;;;;;;;;;;;;;;;-43.752098;7.1108127;79.74868;;396.9
577.0;456.8;;;;;;;;;;;;;;0.91811883;-0.119876705;-0.097598195;;;;;396.9
577.0;456.8;;;;;;;;;;;;;;;;;-46.98706;5.767998;79.424416;;396.9
577.0;456.8;;;;;;;;;;;;;;0.9112217;-0.10278634;-0.113773;;;;;396.9
577.0;516.3;;;;;;;;;;;;;;;;;-51.557205;6.9963684;78.932304;;406.5
577.0;516.3;;;;;;;;;;;;;;0.9013947;-0.08941923;-0.12823878;;;;;406.5
577.0;516.3;;;;;;;;;;;;;;;;;-55.50554;7.702109;78.653824;;406.5
577.0;516.3;;;;;;;;;;;;;;0.8756981;-0.07373272;-0.13934751;;;;;406.5
577.0;516.3;;;;;;;;;;;;;;;;;-57.538834;7.2443314;78.90179;;416.1
577.0;516.3;;;;;;;;;;;;;;0.8435316;-0.06329539;-0.148381;;;;;416.1
577.0;516.3;;;;;;;;;;;;;;;;;-59.133427;4.8982205;79.596085;;416.1
577.0;516.3;;;;;;;;;;;;;;0.81209755;-0.06860561;-0.16156499;;;;;416.1
577.0;516.3;;;;;;;;;;;;;;;;;-60.73565;2.5864437;79.668564;;425.8
577.0;516.3;;;;;;;;;;;;;;0.7838374;-0.067751095;-0.16687521;;;;;425.8
577.0;516.3;;;;;;;;;;;;;;;;;-63.226723;1.6136662;79.91653;;425.8
577.0;516.3;;;;;;;;;;;;;;0.7590564;-0.08239998;-0.16638692;;;;;425.8
636.0;517.1;;;;;;;;;;;;;;;;;-65.160835;1.5259255;80.67949;;435.4
636.0;517.1;;;;;;;;;;;;;;0.7531358;-0.093264565;-0.13733329;;;;;435.4
636.0;517.1;;;;;;;;;;;;;;;;;-67.4955;0.61037016;81.22501;;435.4
636.0;517.1;;;;;;;;;;;;;;0.77449876;-0.112186044;-0.12512589;;;;;435.4
636.0;517.1;;;;;;;;;;;;;;;;;-67.91131;1.8311106;80.99994;;445.0
636.0;517.1;;;;;;;;;;;;;;0.7972655;-0.14203314;-0.1241493;;;;;445.0
636.0;517.1;;;;;;;;;;;;;;;;;-66.75161;2.4605548;79.710526;;445.0
636.0;517.1;;;;;;;;;;;;;;0.83187354;-0.15692617;-0.13739432;;;;;445.0
636.0;517.1;;;;;;;;;;;;;;;;;-64.0202;1.6289254;78.17697;;454.7
636.0;517.1;;;;;;;;;;;;;;0.86831266;-0.15533921;-0.17664114;;;;;454.7
636.0;517.1;;;;;;;;;;;;;;;;;-60.62502;1.4191107;76.38402;;454.7
636.0;517.1;;;;;;;;;;;;;;0.8810083;-0.14209418;-0.21076083;;;;;454.7
636.0;531.3;;;;;;;;;;;;;;;;;-58.77102;1.6327403;74.606316;;464.4
636.0;531.3;;;;;;;;;;;;;;0.89260536;-0.112979524;-0.2268746;;;;;464.4
636.0;531.3;;;;;;;;;;;;;;;;;-57.5808;-0.21744438;73.4962;;464.4
636.0;531.3;;;;;;;;;;;;;;0.8967559;-0.087343976;-0.24463637;;;;;464.4
636.0;531.3;;;;;;;;;;;;;;;;;-58.05765;-1.5144811;72.500534;;474.0
636.0;531.3;;;;;;;;;;;;;;0.9050569;-0.05365154;-0.23059785;;;;;474.0
636.0;531.3;;;;;;;;;;;;;;;;;-59.827724;-1.8044069;71.99698;;474.0
636.0;531.3;;;;;;;;;;;;;;0.915067;-0.043702506;-0.18445387;;;;;474.0
636.0;531.3;;;;;;;;;;;;;;;;;-61.281166;-1.7128513;70.92883;;483.6
636.0;531.3;;;;;;;;;;;;;;0.93215734;-0.039063692;-0.14105655;;;;;483.6
636.0;531.3;;;;;;;;;;;;;;;;;-60.32746;-3.0632956;69.727165;;483.6
636.0;531.3;;;;;;;;;;;;;;0.94192326;-0.032044437;-0.11090426;;;;;483.6
696.0;583.9;;;;;;;;;;;;;;;;;-57.40913;-5.42848;68.37672;;493.2
696.0;583.9;;;;;;;;;;;;;;0.9535203;-0.030152287;-0.1010773;;;;;493.2
696.0;583.9;;;;;;;;;;;;;;;;;-52.888577;-6.6301465;67.0072;;493.2
696.0;583.9;;;;;;;;;;;;;;0.9566332;-0.04773095;-0.09582812;;;;;493.2
696.0;583.9;;;;;;;;;;;;;;;;;-49.48958;-7.328257;65.32106;;502.8
696.0;583.9;;;;;;;;;;;;;;0.96066165;-0.05224769;-0.09442427;;;;;502.8
696.0;583.9;;;;;;;;;;;;;;;;;-46.983246;-6.939146;63.512833;;502.8
696.0;583.9;;;;;;;;;;;;;;0.95638907;-0.06201361;-0.09479049;;;;;502.8
696.0;583.9;;;;;;;;;;;;;;;;;-44.942318;-7.4846644;61.628315;;512.4
696.0;583.9;;;;;;;;;;;;;;0.95559555;-0.07434309;-0.122013;;;;;512.4
696.0;583.9;;;;;;;;;;;;;;;;;-43.65673;-7.0955534;59.80102;;512.4
696.0;583.9;;;;;;;;;;;;;;0.9561449;-0.07318339;-0.16064943;;;;;512.4
696.0;591.4;;;;;;;;;;;;;;;;;-43.31721;-5.4437394;57.95465;;522.1
696.0;591.4;;;;;;;;;;;;;;0.94875944;-0.0629902;-0.19263284;;;;;522.1
696.0;591.4;;;;;;;;;;;;;;;;;-43.801693;-4.6197395;56.558426;;522.1
696.0;591.4;;;;;;;;;;;;;;0.94320506;-0.05658132;-0.22302927;;;;;522.1
696.0;591.4;;;;;;;;;;;;;;;;;-43.370617;-5.3102207;55.120243;;531.8
696.0;591.4;;;;;;;;;;;;;;0.9335002;-0.04651021;-0.26435134;;;;;531.8
696.0;591.4;;;;;;;;;;;;;;;;;-41.74169;-6.5347757;53.945282;;531.8
696.0;591.4;;;;;;;;;;;;;;0.91799676;-0.052186653;-0.28547013;;;;;531.8
696.0;591.4;;;;;;;;;;;;;;;;;-39.258247;-8.457442;52.701653;;541.3
696.0;591.4;;;;;;;;;;;;;;0.91561633;-0.06317332;-0.28577533;;;;;541.3
696.0;591.4;;;;;;;;;;;;;;;;;-35.985138;-10.055849;51.0918;;541.3
696.0;591.4;;;;;;;;;;;;;;0.9234291;-0.07684561;-0.27643666;;;;;541.3
757.0;644.3;;;;;;;;;;;;;;;;;-31.933807;-11.219367;49.28358;;551.0
757.0;644.3;;;;;;;;;;;;;;0.93331707;-0.09289835;-0.25763726;;;;;551.0
757.0;644.3;;;;;;;;;;;;;;;;;-27.829065;-11.501663;47.345654;;551.0
757.0;644.3;;;;;;;;;;;;;;0.9412519;-0.12567522;-0.22913297;;;;;551.0
757.0;644.3;;;;;;;;;;;;;;;;;-22.30903;-13.126774;45.26658;;560.4
757.0;644.3;;;;;;;;;;;;;;0.9519333;-0.14813684;-0.21497238;;;;;560.4
757.0;644.3;;;;;;;;;;;;;;;;;-18.135624;-14.54207;42.95099;;560.4
757.0;644.3;;;;;;;;;;;;;;0.96804714;-0.16260262;-0.21716972;;;;;560.4
757.0;644.3;;;;;;;;;;;;;;;;;-15.297402;-13.733329;40.597248;;570.0
757.0;644.3;;;;;;;;;;;;;;0.9783624;-0.16650899;-0.20599994;;;;;570.0
757.0;644.3;;;;;;;;;;;;;;;;;-13.367107;-13.420515;37.797176;;570.0
757.0;644.3;;;;;;;;;;;;;;1.0038148;-0.15314189;-0.20892972;;;;;570.0
757.0;651.7;;;;;;;;;;;;;;;;;-11.318552;-13.30607;34.779655;;579.7
757.0;651.7;;;;;;;;;;;;;;1.040437;-0.12048708;-0.2224189;;;;;579.7
757.0;651.7;;;;;;;;;;;;;;;;;-9.495071;-12.607959;31.23188;;579.7
757.0;651.7;;;;;;;;;;;;;;1.0744346;-0.0700705;-0.24176763;;;;;579.7
757.0;651.7;;;;;;;;;;;;;;;;;-7.7059236;-11.3986635;28.004547;;589.3
757.0;651.7;;;;;;;;;;;;;;1.0962249;-0.024109622;-0.250618;;;;;589.3
757.0;651.7;;;;;;;;;;;;;;;;;-6.7369614;-9.132664;24.662771;;589.3
757.0;651.7;;;;;;;;;;;;;;1.0921965;0.025879696;-0.24671163;;;;;589.3
757.0;651.7;;;;;;;;;;;;;;;;;-8.495589;-6.7369614;21.282846;;599.0
757.0;651.7;;;;;;;;;;;;;;1.0888394;0.092043824;-0.24079104;;;;;599.0
757.0;651.7;;;;;;;;;;;;;;;;;-11.635181;-4.314554;19.63866;;599.0
757.0;651.7;;;;;;;;;;;;;;1.0892667;0.15112767;-0.25116733;;;;;599.0
819.0;705.2;;;;;;;;;;;;;;;;;-14.5535145;-0.14877774;17.670218;;608.5
819.0;705.2;;;;;;;;;;;;;;1.0927458;0.20081179;-0.24958037;;;;;608.5
819.0;705.2;;;;;;;;;;;;;;;;;-17.82281;4.1924806;16.876738;;608.5
819.0;705.2;;;;;;;;;;;;;;1.0960418;0.23065889;-0.22571489;;;;;608.5
819.0;705.2;;;;;;;;;;;;;;;;;-20.111698;6.660665;16.60207;;618.2
819.0;705.2;;;;;;;;;;;;;;1.1037325;0.24359874;-0.2097232;;;;;618.2
819.0;705.2;;;;;;;;;;;;;;;;;-22.755363;8.667256;16.537218;;618.2
819.0;705.2;;;;;;;;;;;;;;1.1037325;0.23426008;-0.20575579;;;;;618.2
819.0;705.2;;;;;;;;;;;;;;;;;-26.409956;11.745811;16.628773;;627.9
819.0;705.2;;;;;;;;;;;;;;1.1106296;0.22913297;-0.19257179;;;;;627.9
819.0;705.2;;;;;;;;;;;;;;;;;-27.703176;12.543107;17.26966;;627.9
819.0;705.2;;;;;;;;;;;;;;1.0956755;0.2047792;-0.19293801;;;;;627.9
819.0;757.6;;;;;;;;;;;;;;;;;-28.95825;10.059664;17.117067;;637.5
819.0;757.6;;;;;;;;;;;;;;1.0597247;0.17627491;-0.2578814;;;;;637.5
819.0;757.6;;;;;;;;;;;;;;;;;-33.88699;6.633961;15.526292;;637.5
819.0;757.6;;;;;;;;;;;;;;1.038667;0.17780083;-0.33692434;;;;;637.5
819.0;757.6;;;;;;;;;;;;;;;;;-46.151615;7.255776;14.820552;;647.2
819.0;757.6;;;;;;;;;;;;;;1.0804163;0.17389446;-0.32819605;;;;;647.2
819.0;757.6;;;;;;;;;;;;;;;;;-58.98465;9.32722;13.309885;;647.2
819.0;757.6;;;;;;;;;;;;;;1.1752678;0.17474899;-0.33295694;;;;;647.2
819.0;757.6;;;;;;;;;;;;;;;;;-60.087128;6.2448497;6.595813;;656.9
819.0;757.6;;;;;;;;;;;;;;1.309122;0.18555254;-0.44959867;;;;;656.9
819.0;757.6;;;;;;;;;;;;;;;;;-50.1915;2.929777;0.38148138;;656.9
819.0;757.6;;;;;;;;;;;;;;1.4653157;0.1568041;-0.57564014;;;;;656.9
878.0;758.4;;;;;;;;;;;;;;;;;-40.456097;12.9207735;-0.19074069;;666.5
878.0;758.4;;;;;;;;;;;;;;1.487228;0.050050355;-0.58394116;;;;;666.5
878.0;758.4;;;;;;;;;;;;;;;;;-35.065765;30.457472;-4.127629;;666.5
878.0;758.4;;;;;;;;;;;;;;1.3415326;0.06769005;-0.38666952;;;;;666.5
878.0;758.4;;;;;;;;;;;;;;;;;-28.25251;36.332287;-9.838404;;675.9
878.0;758.4;;;;;;;;;;;;;;1.2651143;0.17639698;-0.120670184;;;;;675.9
878.0;758.4;;;;;;;;;;;;;;;;;-23.33903;32.97525;-14.33607;;675.9
878.0;758.4;;;;;;;;;;;;;;1.2578509;0.227546;0.018127995;;;;;675.9
878.0;758.4;;;;;;;;;;;;;;;;;-15.888699;29.82803;-22.263252;;685.6
878.0;758.4;;;;;;;;;;;;;;1.2091434;0.29126865;0.029541917;;;;;685.6
878.0;758.4;;;;;;;;;;;;;;;;;-12.8711815;26.08188;-30.602434;;685.6
878.0;758.4;;;;;;;;;;;;;;1.1637928;0.32782984;-0.119083226;;;;;685.6
878.0;764.9;;;;;;;;;;;;;;;;;-12.1654415;27.016512;-38.430435;;695.3
878.0;764.9;;;;;;;;;;;;;;1.1483505;0.3558458;-0.25037384;;;;;695.3
878.0;764.9;;;;;;;;;;;;;;;;;-8.217109;32.845547;-45.739616;;695.3
878.0;764.9;;;;;;;;;;;;;;1.1546373;0.37849057;-0.25336465;;;;;695.3
878.0;764.9;;;;;;;;;;;;;;;;;0.30518508;39.128544;-54.70443;;704.9
878.0;764.9;;;;;;;;;;;;;;1.170568;0.4013184;-0.19672231;;;;;704.9
878.0;764.9;;;;;;;;;;;;;;;;;8.648182;48.02469;-64.68398;;704.9
878.0;764.9;;;;;;;;;;;;;;1.1577501;0.4377575;-0.107852414;;;;;704.9
878.0;764.9;;;;;;;;;;;;;;;;;12.508774;58.896908;-71.241646;;714.6
878.0;764.9;;;;;;;;;;;;;;1.1260719;0.40650654;-0.03601184;;;;;714.6
878.0;764.9;;;;;;;;;;;;;;;;;14.049958;69.36094;-78.146454;;714.6
878.0;764.9;;;;;;;;;;;;;;1.0846279;0.32862332;-0.032471694;;;;;714.6
936.0;818.1;;;;;;;;;;;;;;;;;12.318034;79.153564;-86.268196;;724.3
936.0;818.1;;;;;;;;;;;;;;0.99429303;0.2446974;-0.079897456;;;;;724.3
936.0;818.1;;;;;;;;;;;;;;;;;7.194739;78.867455;-93.07382;;724.3
936.0;818.1;;;;;;;;;;;;;;0.9319132;0.17151402;-0.1902524;;;;;724.3
936.0;818.1;;;;;;;;;;;;;;;;;0.6637776;72.771385;-98.38023;;733.9
936.0;818.1;;;;;;;;;;;;;;0.8882107;0.12524797;-0.3480941;;;;;733.9
936.0;818.1;;;;;;;;;;;;;;;;;-6.706443;76.46413;-103.98038;;733.9
936.0;818.1;;;;;;;;;;;;;;0.78078556;0.12720115;-0.31348613;;;;;733.9
936.0;818.1;;;;;;;;;;;;;;;;;-13.439589;70.27268;-106.80715;;743.5
936.0;818.1;;;;;;;;;;;;;;0.7368389;0.09222694;-0.26606035;;;;;743.5
936.0;818.1;;;;;;;;;;;;;;;;;-21.153143;63.810387;-111.30482;;743.5
936.0;818.1;;;;;;;;;;;;;;0.72261727;0.055482652;-0.23505355;;;;;743.5
936.0;832.8;;;;;;;;;;;;;;;;;-31.006805;56.649982;-117.89682;;753.1
936.0;832.8;;;;;;;;;;;;;;0.68349254;0.038270213;-0.23731193;;;;;753.1
936.0;832.8;;;;;;;;;;;;;;;;;-42.69921;44.9881;-123.22611;;753.1
936.0;832.8;;;;;;;;;;;;;;0.6505936;0.011108737;-0.26636556;;;;;753.1
936.0;832.8;;;;;;;;;;;;;;;;;-51.74032;31.22425;-124.95041;;762.7
936.0;832.8;;;;;;;;;;;;;;0.59431744;-0.036439102;-0.34192938;;;;;762.7
936.0;832.8;;;;;;;;;;;;;;;;;-52.20954;16.067995;-124.988556;;762.7
936.0;832.8;;;;;;;;;;;;;;0.53926206;-0.08789331;-0.39033175;;;;;762.7
936.0;832.8;;;;;;;;;;;;;;;;;-41.80654;-3.707999;-124.988556;;772.4
936.0;832.8;;;;;;;;;;;;;;0.5135655;-0.12060915;-0.40534684;;;;;772.4
936.0;832.8;;;;;;;;;;;;;;;;;-22.289955;-29.969175;-124.988556;;772.4
936.0;832.8;;;;;;;;;;;;;;0.5464034;-0.16559343;-0.39478743;;;;;772.4
999.0;878.1;;;;;;;;;;;;;;;;;3.7003694;-58.835873;-124.988556;;782.0
999.0;878.1;;;;;;;;;;;;;;0.6520585;-0.244026;-0.42451248;;;;;782.0
999.0;878.1;;;;;;;;;;;;;;;;;28.187658;-75.25483;-124.988556;;782.0
999.0;878.1;;;;;;;;;;;;;;0.80703145;-0.29456466;-0.44209114;;;;;782.0
999.0;878.1;;;;;;;;;;;;;;;;;37.27073;-73.90057;-124.988556;;791.6
999.0;878.1;;;;;;;;;;;;;;1.124485;-0.30481887;-0.46278268;;;;;791.6
999.0;878.1;;;;;;;;;;;;;;;;;24.723808;-44.042027;-124.988556;;791.6
999.0;878.1;;;;;;;;;;;;;;1.6924344;-0.36371958;-0.45905942;;;;;791.6
999.0;878.1;;;;;;;;;;;;;;;;;18.84518;3.0976286;-124.988556;;801.2
999.0;878.1;;;;;;;;;;;;;;1.9972533;-0.42823574;-0.26783043;;;;;801.2
999.0;878.1;;;;;;;;;;;;;;;;;33.68862;16.930143;-124.988556;;801.2
999.0;878.1;;;;;;;;;;;;;;1.9972533;-0.3025605;-0.15381329;;;;;801.2
999.0;885.5;;;;;;;;;;;;;;;;;56.56224;-4.352702;-123.7907;;810.8
999.0;885.5;;;;;;;;;;;;;;1.9972533;-0.18701743;-0.4123661;;;;;810.8
999.0;885.5;;;;;;;;;;;;;;;;;85.055084;-26.070436;-118.31264;;810.8
999.0;885.5;;;;;;;;;;;;;;1.9972533;-0.1760918;-0.6940519;;;;;810.8
999.0;885.5;;;;;;;;;;;;;;;;;90.80401;-43.72921;-110.02304;;820.5
999.0;885.5;;;;;;;;;;;;;;1.9972533;-0.2719199;-0.96639913;;;;;820.5
999.0;885.5;;;;;;;;;;;;;;;;;50.27543;-12.256997;-115.8063;;820.5
999.0;885.5;;;;;;;;;;;;;;1.8392895;-0.3635975;-1.1833247;;;;;820.5
999.0;885.5;;;;;;;;;;;;;;;;;1.6632588;65.309616;-124.847404;;830.2
999.0;885.5;;;;;;;;;;;;;;1.1899167;-0.18408765;-0.82937104;;;;;830.2
999.0;885.5;;;;;;;;;;;;;;;;;-37.7781;104.0643;-124.988556;;830.2
999.0;885.5;;;;;;;;;;;;;;0.8299814;-0.04571673;-0.33808404;;;;;830.2
1055.0;938.5;;;;;;;;;;;;;;;;;-39.548172;80.57268;-124.46974;;839.7
1055.0;938.5;;;;;;;;;;;;;;0.83321637;-0.15747552;-0.0112918485;;;;;839.7
1055.0;938.5;;;;;;;;;;;;;;;;;-10.338145;27.249214;-122.524185;;839.7
1055.0;938.5;;;;;;;;;;;;;;0.96627706;-0.35200047;-0.042054508;;;;;839.7
1055.0;938.5;;;;;;;;;;;;;;;;;6.859035;-2.4605548;-124.767296;;849.3
1055.0;938.5;;;;;;;;;;;;;;1.0516678;-0.31684315;-0.32483903;;;;;849.3
1055.0;938.5;;;;;;;;;;;;;;;;;4.863888;5.3216653;-124.87792;;849.3
1055.0;938.5;;;;;;;;;;;;;;1.0525833;-0.31238747;-0.3340556;;;;;849.3
1055.0;938.5;;;;;;;;;;;;;;;;;-1.045259;13.657034;-124.439224;;858.8
1055.0;938.5;;;;;;;;;;;;;;1.0540483;-0.36628315;-0.23468734;;;;;858.8
1055.0;938.5;;;;;;;;;;;;;;;;;-1.495407;14.282662;-123.20704;;858.8
1055.0;938.5;;;;;;;;;;;;;;1.0787072;-0.3098239;-0.19171728;;;;;858.8
1055.0;939.6;;;;;;;;;;;;;;;;;-1.1291848;14.889218;-119.54864;;868.4
1055.0;939.6;;;;;;;;;;;;;;1.1099582;-0.36524552;-0.20654927;;;;;868.4
1055.0;939.6;;;;;;;;;;;;;;;;;0.6714072;18.684958;-115.90167;;868.4
1055.0;939.6;;;;;;;;;;;;;;1.1155736;-0.37812433;-0.18744469;;;;;868.4
1055.0;939.6;;;;;;;;;;;;;;;;;3.2921844;17.605364;-109.519485;;878.1
1055.0;939.6;;;;;;;;;;;;;;1.1993774;-0.49940488;-0.20496231;;;;;878.1
1055.0;939.6;;;;;;;;;;;;;;;;;8.224739;16.388441;-104.04523;;878.1
1055.0;939.6;;;;;;;;;;;;;;1.1227149;-0.55360574;-0.25611132;;;;;878.1
1055.0;939.6;;;;;;;;;;;;;;;;;4.4938507;20.054476;-104.731895;;887.7
1055.0;939.6;;;;;;;;;;;;;;0.9566332;-0.48054445;-0.19660024;;;;;887.7
1055.0;939.6;;;;;;;;;;;;;;;;;0.93844414;10.517442;-99.47126;;887.7
1055.0;939.6;;;;;;;;;;;;;;0.96383554;-0.4640034;-0.23902097;;;;;887.7
1175.0;998.8;;;;;;;;;;;;;;;;;-0.7820368;7.232887;-94.99649;;897.4
1175.0;998.8;;;;;;;;;;;;;;0.896939;-0.46772668;-0.24427015;;;;;897.4
1175.0;998.8;;;;;;;;;;;;;;;;;-7.2519608;5.7298503;-91.03671;;897.4
1175.0;998.8;;;;;;;;;;;;;;0.8287606;-0.4794458;-0.20960112;;;;;897.4
1175.0;998.8;;;;;;;;;;;;;;;;;-12.516403;1.083407;-87.21046;;907.0
1175.0;998.8;;;;;;;;;;;;;;0.7797479;-0.47260964;-0.17358929;;;;;907.0
1175.0;998.8;;;;;;;;;;;;;;;;;-17.185736;-5.2301097;-82.54875;;907.0
1175.0;998.8;;;;;;;;;;;;;;0.8049562;-0.40198982;-0.16589862;;;;;907.0
1175.0;998.8;;;;;;;;;;;;;;;;;-24.407179;-7.778405;-79.79064;;916.7
1175.0;998.8;;;;;;;;;;;;;;0.8235725;-0.27051607;-0.18921477;;;;;916.7
1175.0;998.8;;;;;;;;;;;;;;;;;-30.90762;-6.061739;-75.31205;;916.7
1175.0;998.8;;;;;;;;;;;;;;0.8135014;-0.25598925;-0.17621388;;;;;916.7
1175.0;999.7;;;;;;;;;;;;;;;;;-37.675102;-5.203406;-68.93749;;926.4
1175.0;999.7;;;;;;;;;;;;;;0.8202765;-0.21057771;-0.1765801;;;;;926.4
1175.0;999.7;;;;;;;;;;;;;;;;;-45.19791;-2.8687398;-62.303535;;926.4
1175.0;999.7;;;;;;;;;;;;;;0.7756584;-0.21314128;-0.13971373;;;;;926.4
1175.0;999.7;;;;;;;;;;;;;;;;;-52.465134;-3.257851;-56.72628;;936.1
1175.0;999.7;;;;;;;;;;;;;;0.7576525;-0.15930662;-0.12652974;;;;;936.1
1175.0;999.7;;;;;;;;;;;;;;;;;-60.644093;0.32425916;-51.831875;;936.1
1175.0;999.7;;;;;;;;;;;;;;0.68977934;-0.1563158;-0.059938353;;;;;936.1
1175.0;999.7;;;;;;;;;;;;;;;;;-69.578384;-1.2321848;-46.651356;;945.7
1175.0;999.7;;;;;;;;;;;;;;0.7019257;-0.08630635;-0.010925626;;;;;945.7
1175.0;999.7;;;;;;;;;;;;;;;;;-80.27131;-2.0561848;-40.74221;;945.7
1175.0;999.7;;;;;;;;;;;;;;0.6882534;-0.09179968;0.025086215;;;;;945.7
1178.0;1059.3;;;;;;;;;;;;;;;;;-91.063416;-1.5106663;-35.302284;;955.3
1178.0;1059.3;;;;;;;;;;;;;;0.6641438;-0.07074191;0.06634724;;;;;955.3
1178.0;1059.3;;;;;;;;;;;;;;;;;-102.57652;-0.7057405;-28.794214;;955.3
1178.0;1059.3;;;;;;;;;;;;;;0.67647326;-0.047242653;0.09241005;;;;;955.3
1178.0;1059.3;;;;;;;;;;;;;;;;;-115.62319;3.8262582;-22.492142;;964.9
1178.0;1059.3;;;;;;;;;;;;;;0.68068486;-0.029786065;0.13708915;;;;;964.9
1178.0;1059.3;;;;;;;;;;;;;;;;;-124.340034;9.899441;-17.632069;;964.9
1178.0;1059.3;;;;;;;;;;;;;;0.65382856;-0.003906369;0.1975158;;;;;964.9
1178.0;1059.3;;;;;;;;;;;;;;;;;-124.988556;11.6962185;-14.057589;;974.4
1178.0;1059.3;;;;;;;;;;;;;;0.62099063;-0.0053102206;0.15863521;;;;;974.4
1178.0;1059.3;;;;;;;;;;;;;;;;;-124.988556;14.43907;-11.024812;;974.4
1178.0;1059.3;;;;;;;;;;;;;;0.56776637;-0.028321177;0.0926542;;;;;974.4
1178.0;1060.5;;;;;;;;;;;;;;;;;-124.988556;15.709402;-8.335368;;984.1
1178.0;1060.5;;;;;;;;;;;;;;0.5382855;-0.047608875;0.0025635548;;;;;984.1
1178.0;1060.5;;;;;;;;;;;;;;;;;-124.87411;15.400403;-5.760369;;984.1
1178.0;1060.5;;;;;;;;;;;;;;0.52455217;-0.08160649;-0.10400708;;;;;984.1
1178.0;1060.5;;;;;;;;;;;;;;;;;-118.987854;16.052736;-4.379406;;993.7
1178.0;1060.5;;;;;;;;;;;;;;0.4860378;-0.09631642;-0.17181921;;;;;993.7
1178.0;1060.5;;;;;;;;;;;;;;;;;-100.01297;14.297922;-3.3265176;;993.7
1178.0;1060.5;;;;;;;;;;;;;;0.42262033;-0.15271463;-0.25452438;;;;;993.7
1178.0;1060.5;;;;;;;;;;;;;;;;;-72.76757;8.659627;-1.6708884;;1003.4
1178.0;1060.5;;;;;;;;;;;;;;0.35175633;-0.19605091;-0.35407576;;;;;1003.4
1178.0;1060.5;;;;;;;;;;;;;;;;;-45.1178;-3.604999;1.945555;;1003.4
1178.0;1060.5;;;;;;;;;;;;;;0.31385234;-0.24604023;-0.484756;;;;;1003.4
1237.0;1119.8;;;;;;;;;;;;;;;;;-24.006622;-16.613514;7.1031833;;1013.0
1237.0;1119.8;;;;;;;;;;;;;;0.31134984;-0.30146185;-0.55604726;;;;;1013.0
1237.0;1119.8;;;;;;;;;;;;;;;;;-9.117405;-28.736992;14.160588;;1013.0
1237.0;1119.8;;;;;;;;;;;;;;0.32807398;-0.352855;-0.58900726;;;;;1013.0
1237.0;1119.8;;;;;;;;;;;;;;;;;-1.9722588;-39.502396;23.995178;;1022.7
1237.0;1119.8;;;;;;;;;;;;;;0.39930418;-0.36890775;-0.591937;;;;;1022.7
1237.0;1119.8;;;;;;;;;;;;;;;;;-6.2982574;-43.691063;35.17258;;1022.7
1237.0;1119.8;;;;;;;;;;;;;;0.5074618;-0.39020967;-0.46717733;;;;;1022.7
1237.0;1119.8;;;;;;;;;;;;;;;;;-18.12418;-35.5121;44.026768;;1032.4
1237.0;1119.8;;;;;;;;;;;;;;0.600177;-0.3618885;-0.26477858;;;;;1032.4
1237.0;1119.8;;;;;;;;;;;;;;;;;-30.251472;-14.450515;48.162025;;1032.4
1237.0;1119.8;;;;;;;;;;;;;;0.5892514;-0.28595844;-0.024719993;;;;;1032.4
1237.0;1120.6;;;;;;;;;;;;;;;;;-42.020172;3.2807398;48.84106;;1041.9
1237.0;1120.6;;;;;;;;;;;;;;0.5797296;-0.25843075;0.12982574;;;;;1041.9
1237.0;1120.6;;;;;;;;;;;;;;;;;-54.17417;13.695181;47.62795;;1041.9
1237.0;1120.6;;;;;;;;;;;;;;0.64015627;-0.24555193;0.18109684;;;;;1041.9
1237.0;1120.6;;;;;;;;;;;;;;;;;-67.88079;26.802881;45.51454;;1051.5
1237.0;1120.6;;;;;;;;;;;;;;0.70101017;-0.20545061;0.24640645;;;;;1051.5
1237.0;1120.6;;;;;;;;;;;;;;;;;-84.32264;38.258766;42.954803;;1051.5
1237.0;1120.6;;;;;;;;;;;;;;0.776574;-0.15173803;0.34131902;;;;;1051.5
1237.0;1120.6;;;;;;;;;;;;;;;;;-102.6223;44.598984;40.341652;;1061.2
1237.0;1120.6;;;;;;;;;;;;;;0.90157783;-0.12024293;0.42896816;;;;;1061.2
1237.0;1120.6;;;;;;;;;;;;;;;;;-119.08704;49.268322;38.121433;;1061.2
1237.0;1120.6;;;;;;;;;;;;;;1.0647908;-0.059450056;0.49262977;;;;;1061.2
1294.0;1129.4;;;;0.0;0.0;0.0;;;;;;;;;;;;;;;
1294.0;1129.4;;;;-0.09860231;0.3168526;0.1329384;;;;;;;;;;;;;;;
1294.0;1129.4;;;;-0.27464297;0.9305116;0.28919223;;;;;;;;;;;;;;;
1294.0;1129.4;;;;-0.2843552;0.95821774;0.28070834;;;;;;;;;;;;;;;
1294.0;1129.4;;;;-0.28584293;0.96574414;0.27899554;;;;;;;;;;;;;;;
1294.0;1139.4;;;;-0.2872086;0.9720079;0.27798083;;;;;;;;;;;;;;;
1294.0;1139.4;;;;-0.28982928;0.9771043;0.27757648;;;;;;;;;;;;;;;
1294.0;1139.4;;;;-0.2921715;0.9815675;0.27705386;;;;;;;;;;;;;;;
1294.0;1139.4;;;;-0.29405597;0.9854547;0.2763138;;;;;;;;;;;;;;;
1294.0;1139.4;;;;-0.2953072;0.9895402;0.2759209;;;;;;;;;;;;;;;
1294.0;1140.8;57512;57509;13253;;;;;;;;;;;;;;;;;;
1294.0;1149.4;;;;-0.2954102;0.9936944;0.27552417;;;;;;;;;;;;;;;
1294.0;1149.4;;;;-0.29464343;0.9984437;0.27470782;;;;;;;;;;;;;;;
1294.0;1149.4;;;;-0.29414752;1.0034181;0.27416614;;;;;;;;;;;;;;;
1294.0;1149.4;;;;-0.29452518;1.0090562;0.27359012;;;;;;;;;;;;;;;
1294.0;1149.4;;;;-0.29547885;1.0145417;0.27339557;;;;;;;;;;;;;;;
1297.0;1159.5;;;;-0.2964287;1.0202829;0.27286533;;;;;;;;;;;;;;;
1297.0;1159.5;;;;-0.2979088;1.0266153;0.27248004;;;;;;;;;;;;;;;
1297.0;1159.5;;;;-0.29973224;1.033188;0.27183917;;;;;;;;;;;;;;;
1297.0;1159.5;;;;-0.3008385;1.0394098;0.2721024;;;;;;;;;;;;;;;
1297.0;1159.5;;;;-0.3023148;1.0457002;0.27133182;;;;;;;;;;;;;;;
1297.0;1161.0;73818;73891;13240;;;;;;;;;;;;;;;;;;
1297.0;1167.4;;;;;;;;;;;;;0;;;;;;;;
1297.0;1167.4;;;;;;;;;;;;;0;;;;;;;;
1297.0;1167.4;;;;;;;;;;;;;-1;;;;;;;;
1297.0;1167.4;;;;;;;;;;;;;-3;;;;;;;;
1297.0;1167.4;;;;;;;;;;;;;-4;;;;;;;;
1297.0;1169.6;;;;-0.30355838;1.0514642;0.27079394;;;;;;;;;;;;;;;
1297.0;1169.6;;;;-0.30442813;1.0568734;0.26969913;;;;;;;;;;;;;;;
1297.0;1169.6;;;;-0.30570987;1.0618402;0.2683411;;;;;;;;;;;;;;;
1297.0;1169.6;;;;-0.30705264;1.0663224;0.2663727;;;;;;;;;;;;;;;
1297.0;1169.6;;;;-0.3082848;1.0706064;0.2648163;;;;;;;;;;;;;;;
1297.0;1179.7;;;;-0.30942157;1.0750505;0.26306537;;;;;;;;;;;;;;;
1297.0;1179.7;;;;-0.31102374;1.0796853;0.26167682;;;;;;;;;;;;;;;
1297.0;1179.7;;;;-0.3120995;1.0835534;0.2601891;;;;;;;;;;;;;;;
1297.0;1179.7;;;;-0.3135567;1.0865175;0.25928882;;;;;;;;;;;;;;;
1297.0;1179.7;;;;-0.313736;1.0889016;0.2584572;;;;;;;;;;;;;;;
1299.0;1180.3;;;;;;;;;;;;;;;;;-124.923706;56.60802;35.584583;;1070.8
1299.0;1180.3;;;;;;;;;;;;;;1.2169561;0.04242073;0.5102084;;;;;1070.8
1299.0;1180.3;;;;;;;;;;;;;;;;;-124.988556;60.346535;32.437363;;1070.8
1299.0;1180.3;;;;;;;;;;;;;;1.327311;0.19501327;0.3971679;;;;;1070.8
1299.0;1180.3;;;;;;;;;;;;;;;;;-124.988556;55.074463;28.187658;;1080.5
1299.0;1180.3;;;;;;;;;;;;;;1.5123752;0.33515427;0.17297891;;;;;1080.5
1299.0;1180.3;;;;;;;;;;;;;;;;;-124.416336;45.03006;19.238106;;1080.5
1299.0;1180.3;;;;;;;;;;;;;;1.6869411;0.54200876;-0.18182927;;;;;1080.5
1299.0;1180.3;;;;;;;;;;;;;;;;;-109.462265;37.732323;3.9063692;;1090.1
1299.0;1180.3;;;;;;;;;;;;;;1.6964018;0.7429426;-0.62153995;;;;;1090.1
1299.0;1180.3;;;;;;;;;;;;;;;;;-83.28501;26.22303;-7.7936645;;1090.1
1299.0;1180.3;;;;;;;;;;;;;;1.5315409;0.92141485;-0.9443037;;;;;1090.1
1299.0;1181.0;;;;;;;;;;;;;;;;;-68.5522;-2.3537402;-10.906552;;1099.8
1299.0;1181.0;;;;;;;;;;;;;;1.4521928;0.9172033;-1.1627553;;;;;1099.8
1299.0;1181.0;;;;;;;;;;;;;;;;;-60.338905;-26.917326;-10.505997;;1099.8
1299.0;1181.0;;;;;;;;;;;;;;1.4560992;0.7635121;-1.081637;;;;;1099.8
1299.0;1181.0;;;;;;;;;;;;;;;;;-47.12821;-39.559616;-11.707664;;1109.5
1299.0;1181.0;;;;;;;;;;;;;;1.4048281;0.6432081;-0.725547;;;;;1109.5
1299.0;1181.0;;;;;;;;;;;;;;;;;-29.644918;-49.146248;-14.145329;;1109.5
1299.0;1181.0;;;;;;;;;;;;;;1.3963438;0.5268105;-0.44752342;;;;;1109.5
1299.0;1181.0;;;;;;;;;;;;;;;;;-14.938811;-45.94943;-17.151402;;1119.1
1299.0;1181.0;;;;;;;;;;;;;;1.3370159;0.44825587;-0.17749566;;;;;1119.1
1299.0;1181.0;;;;;;;;;;;;;;;;;-4.9401836;-35.649433;-20.06592;;1119.1
1299.0;1181.0;;;;;;;;;;;;;;1.2088381;0.40388197;0.0557268;;;;;1119.1
1300.0;1181.1;90194;90187;13232;;;;;;;;;;;;;;;;;;
1300.0;1189.7;;;;-0.3132477;1.0904161;0.25743106;;;;;;;;;;;;;;;
1300.0;1189.7;;;;-0.312336;1.090458;0.2560692;;;;;;;;;;;;;;;
1300.0;1189.7;;;;-0.31113818;1.088566;0.2538109;;;;;;;;;;;;;;;
1300.0;1189.7;;;;-0.3098412;1.0859414;0.25145724;;;;;;;;;;;;;;;
1300.0;1189.7;;;;-0.30915835;1.0827485;0.24810031;;;;;;;;;;;;;;;
1300.0;1199.7;;;;-0.30881885;1.0795251;0.2446709;;;;;;;;;;;;;;;
1300.0;1199.7;;;;-0.309433;1.0769349;0.23976138;;;;;;;;;;;;;;;
1300.0;1199.7;;;;-0.31047443;1.0755578;0.23292926;;;;;;;;;;;;;;;
1300.0;1199.7;;;;-0.31252673;1.075493;0.22264102;;;;;;;;;;;;;;;
1300.0;1199.7;;;;-0.31526187;1.078396;0.20869067;;;;;;;;;;;;;;;
1300.0;1201.2;106658;106597;13232;;;;;;;;;;;;;;;;;;
1300.0;1207.6;;;;;;;;;;;;;2;;;;;;;;
1300.0;1207.6;;;;;;;;;;;;;-18;;;;;;;;
1300.0;1207.6;;;;;;;;;;;;;-23;;;;;;;;
1300.0;1207.6;;;;;;;;;;;;;30;;;;;;;;
1300.0;1207.6;;;;;;;;;;;;;-28;;;;;;;;
1300.0;1209.7;;;;-0.3189545;1.085579;0.19317248;;;;;;;;;;;;;;;
1300.0;1209.7;;;;-0.32272342;1.099167;0.17884447;;;;;;;;;;;;;;;
1300.0;1209.7;;;;-0.3275185;1.1194688;0.16773607;;;;;;;;;;;;;;;
1300.0;1209.7;;;;-0.333622;1.1473352;0.1598549;;;;;;;;;;;;;;;
1300.0;1209.7;;;;-0.34061816;1.1823922;0.15422823;;;;;;;;;;;;;;;
1301.0;1219.8;;;;-0.34858325;1.222561;0.15115358;;;;;;;;;;;;;;;
1301.0;1219.8;;;;-0.3566132;1.2660524;0.14915468;;;;;;;;;;;;;;;
1301.0;1219.8;;;;-0.3635445;1.3111039;0.14939119;;;;;;;;;;;;;;;
1301.0;1219.8;;;;-0.36903003;1.3549424;0.15084459;;;;;;;;;;;;;;;
1301.0;1219.8;;;;-0.3725281;1.3959428;0.15338136;;;;;;;;;;;;;;;
1301.0;1221.4;123091;123035;13231;;;;;;;;;;;;;;;;;;
1301.0;1229.9;;;;-0.3709717;1.433098;0.15663148;;;;;;;;;;;;;;;
1301.0;1229.9;;;;-0.37131503;1.4657136;0.16131212;;;;;;;;;;;;;;;
1301.0;1229.9;;;;-0.37052158;1.4910089;0.16652681;;;;;;;;;;;;;;;
1301.0;1229.9;;;;-0.36519244;1.5068667;0.17156984;;;;;;;;;;;;;;;
1301.0;1229.9;;;;-0.3597832;1.5143054;0.17616273;;;;;;;;;;;;;;;
1301.0;1240.0;;;;-0.35384753;1.5146143;0.18270113;;;;;;;;;;;;;;;
1301.0;1240.0;;;;-0.3466988;1.5079997;0.19016269;;;;;;;;;;;;;;;
1301.0;1240.0;;;;-0.33900455;1.493786;0.19752505;;;;;;;;;;;;;;;
1301.0;1240.0;;;;-0.33227542;1.4739038;0.20513919;;;;;;;;;;;;;;;
1301.0;1240.0;;;;-0.32634738;1.4485894;0.2138634;;;;;;;;;;;;;;;
1302.0;1241.0;;;;;;;;;;;;;;;;;3.7919247;-27.61162;-22.469252;;1128.8
1302.0;1241.0;;;;;;;;;;;;;;1.088046;0.37775812;0.22553179;;;;;1128.8
1302.0;1241.0;;;;;;;;;;;;;;;;;12.485885;-27.214882;-22.431105;;1128.8
1302.0;1241.0;;;;;;;;;;;;;;0.9832453;0.32966095;0.24396497;;;;;1128.8
1302.0;1241.0;;;;;;;;;;;;;;;;;22.328104;-29.786066;-21.21418;;1138.4
1302.0;1241.0;;;;;;;;;;;;;;0.9169591;0.25421917;0.13440351;;;;;1138.4
1302.0;1241.0;;;;;;;;;;;;;;;;;33.284252;-27.905361;-19.444107;;1138.4
1302.0;1241.0;;;;;;;;;;;;;;0.86233103;0.17035432;0.062746055;;;;;1138.4
1302.0;1241.0;;;;;;;;;;;;;;;;;44.694355;-26.017029;-16.441847;;1147.8
1302.0;1241.0;;;;;;;;;;;;;;0.8135014;0.07739494;-0.029602954;;;;;1147.8
1302.0;1241.0;;;;;;;;;;;;;;;;;56.62328;-24.380474;-12.37907;;1147.8
1302.0;1241.0;;;;;;;;;;;;;;0.7444685;-0.045289468;-0.10174871;;;;;1147.8
1302.0;1241.7;;;;;;;;;;;;;;;;;70.71139;-23.380993;-8.949553;;1157.5
1302.0;1241.7;;;;;;;;;;;;;;0.67775506;-0.15295877;-0.117435224;;;;;1157.5
1302.0;1241.7;;;;;;;;;;;;;;;;;82.98746;-23.34666;-5.706961;;1157.5
1302.0;1241.7;;;;;;;;;;;;;;0.63734853;-0.24982452;-0.06280709;;;;;1157.5
1302.0;1241.7;;;;;;;;;;;;;;;;;84.03653;-25.875881;-1.6632588;;1167.2
1302.0;1241.7;;;;;;;;;;;;;;0.6574908;-0.41749322;-0.04327525;;;;;1167.2
1302.0;1241.7;;;;;;;;;;;;;;;;;61.582535;-34.66521;3.3112583;;1167.2
1302.0;1241.7;;;;;;;;;;;;;;0.84859765;-0.73043;-0.21008942;;;;;1167.2
1302.0;1241.7;;;;;;;;;;;;;;;;;29.309214;-51.21006;9.243294;;1176.9
1302.0;1241.7;;;;;;;;;;;;;;1.3369548;-1.0484328;-0.18372142;;;;;1176.9
1302.0;1241.7;;;;;;;;;;;;;;;;;-1.4610736;-39.532913;21.71392;;1176.9
1302.0;1241.7;;;;;;;;;;;;;;1.8418531;-1.2508316;0.40827662;;;;;1176.9
1355.0;1241.6;139432;139357;13224;;;;;;;;;;;;;;;;;;
1355.0;1247.8;;;;;;;;;;;;;84;;;;;;;;
1355.0;1247.8;;;;;;;;;;;;;39;;;;;;;;
1355.0;1247.8;;;;;;;;;;;;;-98;;;;;;;;
1355.0;1247.8;;;;;;;;;;;;;550;;;;;;;;
1355.0;1247.8;;;;;;;;;;;;;-316;;;;;;;;
1355.0;1249.9;;;;-0.3207741;1.4195939;0.22245792;;;;;;;;;;;;;;;
1355.0;1249.9;;;;-0.31528857;1.3885957;0.23185733;;;;;;;;;;;;;;;
1355.0;1249.9;;;;-0.3107529;1.3549997;0.24076465;;;;;;;;;;;;;;;
1355.0;1249.9;;;;-0.307148;1.3205262;0.24863818;;;;;;;;;;;;;;;
1355.0;1249.9;;;;-0.30313113;1.2857705;0.25657275;;;;;;;;;;;;;;;
1355.0;1259.9;;;;-0.2999077;1.2520295;0.26332095;;;;;;;;;;;;;;;
1355.0;1259.9;;;;-0.29731372;1.2195321;0.26817325;;;;;;;;;;;;;;;
1355.0;1259.9;;;;-0.29500964;1.1884843;0.27133182;;;;;;;;;;;;;;;
1355.0;1259.9;;;;-0.29369357;1.1589624;0.27352527;;;;;;;;;;;;;;;
1355.0;1259.9;;;;-0.29280856;1.1321222;0.27377704;;;;;;;;;;;;;;;
1355.0;1261.6;155706;155813;13237;;;;;;;;;;;;;;;;;;
1355.0;1269.9;;;;-0.29259112;1.1075288;0.27224353;;;;;;;;;;;;;;;
1355.0;1269.9;;;;-0.29404834;1.0856439;0.27047732;;;;;;;;;;;;;;;
1355.0;1269.9;;;;-0.29676822;1.0668298;0.26771548;;;;;;;;;;;;;;;
1355.0;1269.9;;;;-0.30018237;1.0513994;0.26401904;;;;;;;;;;;;;;;
1355.0;1269.9;;;;-0.30495837;1.0396386;0.2595177;;;;;;;;;;;;;;;
1359.0;1279.7;;;;-0.3100243;1.0322953;0.25477603;;;;;;;;;;;;;;;
1359.0;1279.7;;;;-0.31617358;1.0288011;0.25038913;;;;;;;;;;;;;;;
1359.0;1279.7;;;;-0.32221225;1.0298272;0.24602512;;;;;;;;;;;;;;;
1359.0;1279.7;;;;-0.32833102;1.034897;0.24275592;;;;;;;;;;;;;;;
1359.0;1279.7;;;;-0.3338547;1.0436631;0.2403641;;;;;;;;;;;;;;;
1359.0;1281.4;172096;172150;13233;;;;;;;;;;;;;;;;;;
1359.0;1287.8;;;;;;;;;;;;;-1772;;;;;;;;
1359.0;1287.8;;;;;;;;;;;;;892;;;;;;;;
1359.0;1287.8;;;;;;;;;;;;;3697;;;;;;;;
1359.0;1287.8;;;;;;;;;;;;;-2832;;;;;;;;
1359.0;1287.8;;;;;;;;;;;;;-20092;;;;;;;;
1359.0;1289.8;;;;-0.33987048;1.0558015;0.23854831;;;;;;;;;;;;;;;
1359.0;1289.8;;;;-0.3441315;1.0696298;0.23780444;;;;;;;;;;;;;;;
1359.0;1289.8;;;;-0.3495598;1.0844613;0.23781207;;;;;;;;;;;;;;;
1359.0;1289.8;;;;-0.35079578;1.0983735;0.2385712;;;;;;;;;;;;;;;
1359.0;1289.8;;;;-0.35076526;1.1109086;0.23957828;;;;;;;;;;;;;;;
1359.0;1299.9;;;;-0.35076526;1.1213228;0.24123767;;;;;;;;;;;;;;;
1359.0;1299.9;;;;-0.349762;1.1278802;0.24253085;;;;;;;;;;;;;;;
1359.0;1299.9;;;;-0.3484688;1.1299173;0.24391177;;;;;;;;;;;;;;;
1359.0;1299.9;;;;-0.34712604;1.1261789;0.24626926;;;;;;;;;;;;;;;
1359.0;1299.9;;;;-0.3463135;1.1172258;0.24800113;;;;;;;;;;;;;;;
1360.0;1300.6;;;;;;;;;;;;;;;;;-11.734367;-9.743034;24.941252;;1186.5
1360.0;1300.6;;;;;;;;;;;;;;1.8326365;-0.9614551;0.7813349;;;;;1186.5
1360.0;1300.6;;;;;;;;;;;;;;;;;15.259254;-1.0872219;20.519882;;1186.5
1360.0;1300.6;;;;;;;;;;;;;;1.314188;-0.36707664;0.44837794;;;;;1186.5
1360.0;1300.6;;;;;;;;;;;;;;;;;58.542133;-35.56169;28.889584;;1196.2
1360.0;1300.6;;;;;;;;;;;;;;1.2585833;0.015808588;-0.35126805;;;;;1196.2
1360.0;1300.6;;;;;;;;;;;;;;;;;65.03876;-53.73165;37.503433;;1196.2
1360.0;1300.6;;;;;;;;;;;;;;1.3368938;0.31019014;-0.89095736;;;;;1196.2
1360.0;1300.6;;;;;;;;;;;;;;;;;24.220253;-25.875881;39.693134;;1205.8
1360.0;1300.6;;;;;;;;;;;;;;1.1250954;0.291818;-0.20520645;;;;;1205.8
1360.0;1300.6;;;;;;;;;;;;;;;;;13.050478;-32.036804;32.876064;;1205.8
1360.0;1300.6;;;;;;;;;;;;;;1.1629994;0.38953826;0.07519761;;;;;1205.8
1360.0;1301.4;;;;;;;;;;;;;;;;;36.2331;-41.15421;23.678549;;1215.3
1360.0;1301.4;;;;;;;;;;;;;;1.1819819;0.5678274;-0.18066958;;;;;1215.3
1360.0;1301.4;;;;;;;;;;;;;;;;;51.3245;-39.91058;15.694143;;1215.3
1360.0;1301.4;;;;;;;;;;;;;;1.0753502;0.6626789;-0.38904995;;;;;1215.3
1360.0;1301.4;;;;;;;;;;;;;;;;;40.849026;-35.985138;9.994812;;1225.0
1360.0;1301.4;;;;;;;;;;;;;;1.0556352;0.6789148;-0.23358867;;;;;1225.0
1360.0;1301.4;;;;;;;;;;;;;;;;;-1.7509995;-21.69103;6.7522206;;1225.0
1360.0;1301.4;;;;;;;;;;;;;;1.1114231;0.62153995;0.17511521;;;;;1225.0
1360.0;1301.4;;;;;;;;;;;;;;;;;-47.956024;-2.5139623;6.6759243;;1234.7
1360.0;1301.4;;;;;;;;;;;;;;1.1686147;0.3905759;0.49952698;;;;;1234.7
1360.0;1301.4;;;;;;;;;;;;;;;;;-59.40428;11.87933;8.606219;;1234.7
1360.0;1301.4;;;;;;;;;;;;;;1.2881863;0.06921598;0.5164952;;;;;1234.7
1362.0;1301.6;188554;188567;13237;;;;;;;;;;;;;;;;;;
1362.0;1309.9;;;;-0.345974;1.1040155;0.25063708;;;;;;;;;;;;;;;
1362.0;1309.9;;;;-0.34503558;1.0875436;0.25304416;;;;;;;;;;;;;;;
1362.0;1309.9;;;;-0.34420016;1.0684549;0.25376132;;;;;;;;;;;;;;;
1362.0;1309.9;;;;-0.34225085;1.0484163;0.25403598;;;;;;;;;;;;;;;
1362.0;1309.9;;;;-0.3397942;1.0278512;0.25291446;;;;;;;;;;;;;;;
1362.0;1316.0;;;;;;;;;;;;;;;;;-44.591354;21.248512;7.744072;;1244.3
1362.0;1316.0;;;;;;;;;;;;;;1.3415326;-0.13892026;0.20123905;;;;;1244.3
1362.0;1316.0;;;;;;;;;;;;;;;;;-17.769402;16.663107;7.423628;;1244.3
1362.0;1316.0;;;;;;;;;;;;;;1.282815;-0.26386303;-0.30298775;;;;;1244.3
1362.0;1316.0;;;;;;;;;;;;;;;;;10.368664;-2.254555;12.550736;;1253.9
1362.0;1316.0;;;;;;;;;;;;;;1.1817988;-0.30329296;-0.727195;;;;;1253.9
1362.0;1316.0;;;;;;;;;;;;;;;;;22.194586;-22.473066;27.489546;;1253.9
1362.0;1316.0;;;;;;;;;;;;;;1.0683309;-0.45857114;-0.7545396;;;;;1253.9
1362.0;1316.0;;;;;;;;;;;;;;;;;12.699514;-31.144138;44.91943;;1263.5
1362.0;1316.0;;;;;;;;;;;;;;0.99130225;-0.63618886;-0.4740745;;;;;1263.5
1362.0;1316.0;;;;;;;;;;;;;;;;;-18.326365;-20.828882;62.017426;;1263.5
1362.0;1316.0;;;;;;;;;;;;;;0.97268593;-0.8999298;-0.1558275;;;;;1263.5
1362.0;1319.7;;;;-0.33690646;1.008133;0.25067523;;;;;;;;;;;;;;;
1362.0;1319.7;;;;-0.33435443;0.9902154;0.24769214;;;;;;;;;;;;;;;
1362.0;1319.7;;;;-0.33119586;0.97425854;0.24410251;;;;;;;;;;;;;;;
1362.0;1319.7;;;;-0.32925037;0.9617425;0.23935321;;;;;;;;;;;;;;;
1362.0;1319.7;;;;-0.32792285;0.9519044;0.23383334;;;;;;;;;;;;;;;
1417.0;1321.6;205002;204942;13237;;;;;;;;;;;;;;;;;;
1417.0;1327.9;;;;;;;;;;;;;-37380;;;;;;;;
1417.0;1327.9;;;;;;;;;;;;;-43654;;;;;;;;
1417.0;1327.9;;;;;;;;;;;;;-39433;;;;;;;;
1417.0;1327.9;;;;;;;;;;;;;-33346;;;;;;;;
1417.0;1327.9;;;;;;;;;;;;;-31435;;;;;;;;
1417.0;1329.8;;;;-0.3272362;0.94575894;0.22789004;;;;;;;;;;;;;;;
1417.0;1329.8;;;;-0.32643512;0.9431535;0.22177508;;;;;;;;;;;;;;;
1417.0;1329.8;;;;-0.32634357;0.94442;0.2142792;;;;;;;;;;;;;;;
1417.0;1329.8;;;;-0.32662585;0.9481431;0.20637897;;;;;;;;;;;;;;;
1417.0;1329.8;;;;-0.32706836;0.9549142;0.1974335;;;;;;;;;;;;;;;
1417.0;1339.8;;;;-0.32774356;0.96463025;0.18878177;;;;;;;;;;;;;;;
1417.0;1339.8;;;;-0.32855228;0.9764596;0.1813202;;;;;;;;;;;;;;;
1417.0;1339.8;;;;-0.32932284;0.9895364;0.17377855;;;;;;;;;;;;;;;
1417.0;1339.8;;;;-0.33047488;1.0036203;0.16644289;;;;;;;;;;;;;;;
1417.0;1339.8;;;;-0.3316193;1.0183336;0.15926744;;;;;;;;;;;;;;;
1417.0;1341.7;221287;221319;13237;;;;;;;;;;;;;;;;;;
1417.0;1349.9;;;;-0.33269122;1.032261;0.15343858;;;;;;;;;;;;;;;
1417.0;1349.9;;;;-0.33367923;1.0458871;0.14778902;;;;;;;;;;;;;;;
1417.0;1349.9;;;;-0.33451846;1.0585557;0.14243318;;;;;;;;;;;;;;;
1417.0;1349.9;;;;-0.3354645;1.0698358;0.13852312;;;;;;;;;;;;;;;
1417.0;1349.9;;;;-0.33604053;1.0796815;0.13448717;;;;;;;;;;;;;;;
1420.0;1360.0;;;;-0.3362427;1.0883027;0.13080217;;;;;;;;;;;;;;;
1420.0;1360.0;;;;-0.33646396;1.0957795;0.12758256;;;;;;;;;;;;;;;
1420.0;1360.0;;;;-0.33645633;1.1021081;0.12555696;;;;;;;;;;;;;;;
1420.0;1360.0;;;;-0.33541873;1.1074334;0.12314607;;;;;;;;;;;;;;;
1420.0;1360.0;;;;-0.33432773;1.1118432;0.121597305;;;;;;;;;;;;;;;
1420.0;1360.8;;;;;;;;;;;;;;;;;-34.5851;-3.4066288;70.03616;;1273.1
1420.0;1360.8;;;;;;;;;;;;;;0.87362283;-1.0426344;0.1788995;;;;;1273.1
1420.0;1360.8;;;;;;;;;;;;;;;;;-21.279032;-6.8628497;72.378456;;1273.1
1420.0;1360.8;;;;;;;;;;;;;;0.7671743;-0.98709065;0.19238868;;;;;1273.1
1420.0;1360.8;;;;;;;;;;;;;;;;;3.3112583;-20.542772;71.88253;;1282.6
1420.0;1360.8;;;;;;;;;;;;;;0.7496567;-0.78652304;-0.17145298;;;;;1282.6
1420.0;1360.8;;;;;;;;;;;;;;;;;29.164251;-24.021883;70.5092;;1282.6
1420.0;1360.8;;;;;;;;;;;;;;0.6614582;-0.55384994;-0.4730369;;;;;1282.6
1420.0;1360.8;;;;;;;;;;;;;;;;;49.17295;-28.683584;66.45787;;1292.2
1420.0;1360.8;;;;;;;;;;;;;;0.58919036;-0.25659963;-0.55995363;;;;;1292.2
1420.0;1360.8;;;;;;;;;;;;;;;;;52.575764;-33.77255;62.18909;;1292.2
1420.0;1360.8;;;;;;;;;;;;;;0.57509077;-0.025635548;-0.42725915;;;;;1292.2
1420.0;1361.8;237743;237701;13238;;;;;;;;;;;;;;;;;;
1420.0;1368.0;;;;;;;;;;;;;-33509;;;;;;;;
1420.0;1368.0;;;;;;;;;;;;;-39217;;;;;;;;
1420.0;1368.0;;;;;;;;;;;;;-44758;;;;;;;;
1420.0;1368.0;;;;;;;;;;;;;-41711;;;;;;;;
1420.0;1368.0;;;;;;;;;;;;;-30865;;;;;;;;
1476.0;1369.9;;;;-0.33319858;1.1151468;0.11991502;;;;;;;;;;;;;;;
1476.0;1369.9;;;;-0.3311005;1.1183358;0.118503585;;;;;;;;;;;;;;;
1476.0;1369.9;;;;-0.3288956;1.1204149;0.11657716;;;;;;;;;;;;;;;
1476.0;1369.9;;;;-0.32608035;1.1222497;0.11405565;;;;;;;;;;;;;;;
1476.0;1369.9;;;;-0.32320789;1.1239015;0.11210252;;;;;;;;;;;;;;;
1476.0;1375.7;;;;;;;;;;;;;;;;;40.635395;-33.558918;61.61687;;1301.9
1476.0;1375.7;;;;;;;;;;;;;;0.6748253;0.052735984;-0.19293801;;;;;1301.9
1476.0;1375.7;;;;;;;;;;;;;;;;;27.684103;-34.38673;63.013092;;1301.9
1476.0;1375.7;;;;;;;;;;;;;;0.8468276;-0.021668142;-0.16260262;;;;;1301.9
1476.0;1375.7;;;;;;;;;;;;;;;;;24.285105;-28.000732;62.166203;;1311.5
1476.0;1375.7;;;;;;;;;;;;;;0.9339274;-0.09253212;-0.20581684;;;;;1311.5
1476.0;1375.7;;;;;;;;;;;;;;;;;21.473587;-22.759178;60.8272;;1311.5
1476.0;1375.7;;;;;;;;;;;;;;1.0381787;-0.13269448;-0.22925505;;;;;1311.5
1476.0;1375.7;;;;;;;;;;;;;;;;;12.562181;-19.772179;60.52202;;1321.2
1476.0;1375.7;;;;;;;;;;;;;;1.1449324;-0.17108676;-0.26856288;;;;;1321.2
1476.0;1375.7;;;;;;;;;;;;;;;;;2.5063326;-13.027589;59.976498;;1321.2
1476.0;1375.7;;;;;;;;;;;;;;1.1944335;-0.17322306;-0.2804651;;;;;1321.2
1476.0;1379.8;;;;-0.31974033;1.1246186;0.10961534;;;;;;;;;;;;;;;
1476.0;1379.8;;;;-0.31629947;1.1255418;0.10725023;;;;;;;;;;;;;;;
1476.0;1379.8;;;;-0.31251147;1.1262513;0.10465242;;;;;;;;;;;;;;;
1476.0;1379.8;;;;-0.30862048;1.1267358;0.103145614;;;;;;;;;;;;;;;
1476.0;1379.8;;;;-0.3043442;1.127144;0.101318374;;;;;;;;;;;;;;;
1476.0;1381.8;254031;254074;13236;;;;;;;;;;;;;;;;;;
1479.0;1389.7;;;;-0.3006592;1.1279947;0.09999086;;;;;;;;;;;;;;;
1479.0;1389.7;;;;-0.29641727;1.1284066;0.098354355;;;;;;;;;;;;;;;
1479.0;1389.7;;;;-0.29199985;1.1287652;0.09625627;;;;;;;;;;;;;;;
1479.0;1389.7;;;;-0.2896805;1.1288949;0.09417726;;;;;;;;;;;;;;;
1479.0;1389.7;;;;-0.28478244;1.1280671;0.09226609;;;;;;;;;;;;;;;
1479.0;1399.8;;;;-0.27951816;1.1270143;0.08953858;;;;;;;;;;;;;;;
1479.0;1399.8;;;;-0.2748604;1.1263887;0.08714295;;;;;;;;;;;;;;;
1479.0;1399.8;;;;-0.26955417;1.1250802;0.08428956;;;;;;;;;;;;;;;
1479.0;1399.8;;;;-0.26399997;1.1240617;0.08213044;;;;;;;;;;;;;;;
1479.0;1399.8;;;;-0.2581444;1.1226579;0.08035279;;;;;;;;;;;;;;;
1479.0;1401.8;262143;262143;13232;;;;;;;;;;;;;;;;;;
1479.0;1408.1;;;;;;;;;;;;;-21675;;;;;;;;
1479.0;1408.1;;;;;;;;;;;;;-19400;;;;;;;;
1479.0;1408.1;;;;;;;;;;;;;-21276;;;;;;;;
1479.0;1408.1;;;;;;;;;;;;;-21966;;;;;;;;
1479.0;1408.1;;;;;;;;;;;;;-20395;;;;;;;;
1479.0;1409.9;;;;-0.25286487;1.1214143;0.07870484;;;;;;;;;;;;;;;
1479.0;1409.9;;;;-0.24771884;1.1203233;0.07862092;;;;;;;;;;;;;;;
1479.0;1409.9;;;;-0.24219134;1.1189691;0.07851029;;;;;;;;;;;;;;;
1479.0;1409.9;;;;-0.23727039;1.1171838;0.07864381;;;;;;;;;;;;;;;
1479.0;1409.9;;;;-0.23287967;1.1148683;0.07766343;;;;;;;;;;;;;;;
1481.0;1420.0;;;;-0.22902682;1.111847;0.07655717;;;;;;;;;;;;;;;
1481.0;1420.0;;;;-0.2256203;1.1084405;0.074852;;;;;;;;;;;;;;;
1481.0;1420.0;;;;-0.22238162;1.1050569;0.07334901;;;;;;;;;;;;;;;
1481.0;1420.0;;;;-0.21915439;1.1014444;0.07278062;;;;;;;;;;;;;;;
1481.0;1420.0;;;;-0.21618655;1.0975648;0.07180787;;;;;;;;;;;;;;;
1481.0;1420.8;;;;;;;;;;;;;;;;;-5.306406;-6.805628;59.625538;;1330.9
1481.0;1420.8;;;;;;;;;;;;;;1.1915647;-0.14667195;-0.29474777;;;;;1330.9
1481.0;1420.8;;;;;;;;;;;;;;;;;-9.81933;-3.627888;60.40376;;1330.9
1481.0;1420.8;;;;;;;;;;;;;;1.1709952;-0.111636706;-0.32685325;;;;;1330.9
1481.0;1420.8;;;;;;;;;;;;;;;;;-12.0548115;-0.09155553;61.777092;;1340.6
1481.0;1420.8;;;;;;;;;;;;;;1.1300393;-0.0865505;-0.32917264;;;;;1340.6
1481.0;1420.8;;;;;;;;;;;;;;;;;-13.691366;4.234443;62.719353;;1340.6
1481.0;1420.8;;;;;;;;;;;;;;1.0838953;-0.07080294;-0.28547013;;;;;1340.6
1481.0;1420.8;;;;;;;;;;;;;;;;;-17.841883;7.145146;64.18043;;1350.2
1481.0;1420.8;;;;;;;;;;;;;;1.0198065;-0.0634785;-0.2478103;;;;;1350.2
1481.0;1420.8;;;;;;;;;;;;;;;;;-23.674734;7.2176275;65.9772;;1350.2
1481.0;1420.8;;;;;;;;;;;;;;0.9696951;-0.071779534;-0.24463637;;;;;1350.2
1481.0;1421.9;262143;262143;13228;;;;;;;;;;;;;;;;;;
1481.0;1429.9;;;;-0.21263126;1.0932809;0.07125474;;;;;;;;;;;;;;;
1481.0;1429.9;;;;-0.20918277;1.0892602;0.07120896;;;;;;;;;;;;;;;
1481.0;1429.9;;;;-0.20626453;1.0849954;0.070465095;;;;;;;;;;;;;;;
1481.0;1429.9;;;;-0.20352557;1.0804292;0.06982041;;;;;;;;;;;;;;;
1481.0;1429.9;;;;-0.20040897;1.0757943;0.06998444;;;;;;;;;;;;;;;
1537.0;1435.8;;;;;;;;;;;;;;;;;-29.053621;7.2977386;66.45024;;1359.8
1537.0;1435.8;;;;;;;;;;;;;;0.9275796;-0.067445904;-0.25037384;;;;;1359.8
1537.0;1435.8;;;;;;;;;;;;;;;;;-34.314247;8.6405525;66.98813;;1359.8
1537.0;1435.8;;;;;;;;;;;;;;0.91512805;-0.083681755;-0.23596911;;;;;1359.8
1537.0;1435.8;;;;;;;;;;;;;;;;;-36.206398;9.151738;67.060616;;1369.5
1537.0;1435.8;;;;;;;;;;;;;;0.9164098;-0.08709983;-0.24982452;;;;;1369.5
1537.0;1435.8;;;;;;;;;;;;;;;;;-35.473953;12.390514;66.183205;;1369.5
1537.0;1435.8;;;;;;;;;;;;;;0.9036531;-0.054017764;-0.22107609;;;;;1369.5
1537.0;1435.8;;;;;;;;;;;;;;;;;-35.550247;14.042329;65.87802;;1379.0
1537.0;1435.8;;;;;;;;;;;;;;0.88772243;-0.09967345;-0.19623402;;;;;1379.0
1537.0;1435.8;;;;;;;;;;;;;;;;;-35.74862;13.344218;66.1565;;1379.0
1537.0;1435.8;;;;;;;;;;;;;;0.85219884;-0.10687582;-0.20850246;;;;;1379.0
1537.0;1439.7;;;;-0.19768909;1.0713235;0.06889344;;;;;;;;;;;;;;;
1537.0;1439.7;;;;-0.19596484;1.0666925;0.06892014;;;;;;;;;;;;;;;
1537.0;1439.7;;;;-0.19515231;1.0623704;0.068588264;;;;;;;;;;;;;;;
1537.0;1439.7;;;;-0.19419482;1.0578729;0.06885911;;;;;;;;;;;;;;;
1537.0;1439.7;;;;-0.19416049;1.053917;0.069019325;;;;;;;;;;;;;;;
1537.0;1441.9;262143;262143;13216;;;;;;;;;;;;;;;;;;
1537.0;1448.1;;;;;;;;;;;;;-18942;;;;;;;;
1537.0;1448.1;;;;;;;;;;;;;-18361;;;;;;;;
1537.0;1448.1;;;;;;;;;;;;;-17683;;;;;;;;
1537.0;1448.1;;;;;;;;;;;;;-16751;;;;;;;;
1537.0;1448.1;;;;;;;;;;;;;-15931;;;;;;;;
1539.0;1449.7;;;;-0.19458392;1.0501825;0.06897355;;;;;;;;;;;;;;;
1539.0;1449.7;;;;-0.19499972;1.0465661;0.06973649;;;;;;;;;;;;;;;
1539.0;1449.7;;;;-0.19583514;1.043068;0.070579536;;;;;;;;;;;;;;;
1539.0;1449.7;;;;-0.19686893;1.0393754;0.07170106;;;;;;;;;;;;;;;
1539.0;1449.7;;;;-0.19721606;1.036503;0.07337571;;;;;;;;;;;;;;;
1539.0;1459.6;;;;-0.19824222;1.0331193;0.07506562;;;;;;;;;;;;;;;
1539.0;1459.6;;;;-0.19898227;1.0300103;0.07645417;;;;;;;;;;;;;;;
1539.0;1459.6;;;;-0.19949725;1.0271035;0.07808686;;;;;;;;;;;;;;;
1539.0;1459.6;;;;-0.19978717;1.0235864;0.08045197;;;;;;;;;;;;;;;
1539.0;1459.6;;;;-0.20025638;1.0199472;0.08120347;;;;;;;;;;;;;;;
1539.0;1461.8;262143;262143;13221;;;;;;;;;;;;;;;;;;
1539.0;1469.7;;;;-0.20056918;1.0166551;0.08239365;;;;;;;;;;;;;;;
1539.0;1469.7;;;;-0.20068744;1.0130655;0.08346558;;;;;;;;;;;;;;;
1539.0;1469.7;;;;-0.20061114;1.0090486;0.084198005;;;;;;;;;;;;;;;
1539.0;1469.7;;;;-0.20119098;1.0050126;0.0842743;;;;;;;;;;;;;;;
1539.0;1469.7;;;;-0.201664;1.0005265;0.084301;;;;;;;;;;;;;;;
1539.0;1479.8;;;;-0.20152667;0.99606717;0.084342964;;;;;;;;;;;;;;;
1539.0;1479.8;;;;-0.20172122;0.9907838;0.083938606;;;;;;;;;;;;;;;
1539.0;1479.8;;;;-0.20142749;0.9855958;0.08322907;;;;;;;;;;;;;;;
1539.0;1479.8;;;;-0.20122531;0.9804193;0.0826912;;;;;;;;;;;;;;;
1539.0;1479.8;;;;-0.2009621;0.97459805;0.08160401;;;;;;;;;;;;;;;
1540.0;1480.9;;;;;;;;;;;;;;;;;-35.588398;14.946441;66.183205;;1388.6
1540.0;1480.9;;;;;;;;;;;;;;0.7703482;-0.1394696;-0.16614276;;;;;1388.6
1540.0;1480.9;;;;;;;;;;;;;;;;;-36.610767;10.971405;66.3091;;1388.6
1540.0;1480.9;;;;;;;;;;;;;;0.80556655;-0.15393536;-0.15784173;;;;;1388.6
1540.0;1480.9;;;;;;;;;;;;;;;;;-38.159584;8.827478;66.81265;;1398.2
1540.0;1480.9;;;;;;;;;;;;;;0.82900476;-0.19336528;-0.14227729;;;;;1398.2
1540.0;1480.9;;;;;;;;;;;;;;;;;-39.677876;4.7608876;67.68624;;1398.2
1540.0;1480.9;;;;;;;;;;;;;;0.860622;-0.22748497;-0.17499313;;;;;1398.2
1540.0;1480.9;;;;;;;;;;;;;;;;;-39.574875;1.5984069;68.83831;;1407.8
1540.0;1480.9;;;;;;;;;;;;;;0.8989532;-0.2882168;-0.20770897;;;;;1407.8
1540.0;1480.9;;;;;;;;;;;;;;;;;-36.893063;1.2855922;69.16257;;1407.8
1540.0;1480.9;;;;;;;;;;;;;;0.9264809;-0.31122777;-0.19592883;;;;;1407.8
1540.0;1482.0;262143;262143;13205;;;;;;;;;;;;;;;;;;
1541.0;1488.4;;;;;;;;;;;;;;;;;-33.429214;0.50737023;70.41001;;1417.5
1541.0;1488.4;;;;;;;;;;;;;;0.9342326;-0.34058657;-0.17529832;;;;;1417.5
1541.0;1488.4;;;;;;;;;;;;;;;;;-31.125065;-1.8883327;71.61931;;1417.5
1541.0;1488.4;;;;;;;;;;;;;;0.9449141;-0.35676137;-0.16266365;;;;;1417.5
1541.0;1488.4;;;;;;;;;;;;;;;;;-30.983917;-4.20774;72.98883;;1427.1
1541.0;1488.4;;;;;;;;;;;;;;0.9543138;-0.35706657;-0.14612262;;;;;1427.1
1541.0;1488.4;;;;;;;;;;;;;;;;;-31.945251;-6.389813;74.54909;;1427.1
1541.0;1488.4;;;;;;;;;;;;;;0.96804714;-0.36561173;-0.14600055;;;;;1427.1
1541.0;1488.4;;;;;;;;;;;;;;;;;-31.392101;-6.4737387;76.06739;;1436.8
1541.0;1488.4;;;;;;;;;;;;;;0.985992;-0.35480818;-0.13721122;;;;;1436.8
1541.0;1488.4;;;;;;;;;;;;;;;;;-31.899471;-3.8415174;77.13172;;1436.8
1541.0;1488.4;;;;;;;;;;;;;;0.9949644;-0.3376568;-0.11859493;;;;;1436.8
1541.0;1488.2;;;;;;;;;;;;;-15098;;;;;;;;
1541.0;1488.2;;;;;;;;;;;;;-14295;;;;;;;;
1541.0;1488.2;;;;;;;;;;;;;-13820;;;;;;;;
1541.0;1488.2;;;;;;;;;;;;;-13775;;;;;;;;
1541.0;1488.2;;;;;;;;;;;;;-13917;;;;;;;;
1541.0;1489.7;;;;-0.20012668;0.96852505;0.08085633;;;;;;;;;;;;;;;
1541.0;1489.7;;;;-0.19949344;0.9624406;0.07927323;;;;;;;;;;;;;;;
1541.0;1489.7;;;;-0.19896701;0.9562608;0.07811356;;;;;;;;;;;;;;;
1541.0;1489.7;;;;-0.19848636;0.9508096;0.076507576;;;;;;;;;;;;;;;
1541.0;1489.7;;;;-0.19778827;0.945099;0.07420731;;;;;;;;;;;;;;;
1596.0;1499.7;;;;-0.19718555;0.939232;0.072479255;;;;;;;;;;;;;;;
1596.0;1499.7;;;;-0.19724658;0.9339334;0.07026292;;;;;;;;;;;;;;;
1596.0;1499.7;;;;-0.19686893;0.92920315;0.06825257;;;;;;;;;;;;;;;
1596.0;1499.7;;;;-0.19753268;0.92445767;0.06658555;;;;;;;;;;;;;;;
1596.0;1499.7;;;;-0.19829562;0.91991055;0.06422425;;;;;;;;;;;;;;;
1596.0;1502.0;262143;262143;13210;;;;;;;;;;;;;;;;;;
1596.0;1509.8;;;;-0.19950488;0.91635907;0.06169892;;;;;;;;;;;;;;;
1596.0;1509.8;;;;-0.20059207;0.9124795;0.06009675;;;;;;;;;;;;;;;
1596.0;1509.8;;;;-0.20169452;0.9087068;0.057350166;;;;;;;;;;;;;;;
1596.0;1509.8;;;;-0.20339969;0.9053308;0.05472947;;;;;;;;;;;;;;;
1596.0;1509.8;;;;-0.20561984;0.90163815;0.052070625;;;;;;;;;;;;;;;
1596.0;1519.6;;;;-0.20745471;0.89816296;0.049869545;;;;;;;;;;;;;;;
1596.0;1519.6;;;;-0.20928958;0.8947259;0.04748536;;;;;;;;;;;;;;;
1596.0;1519.6;;;;-0.21164706;0.89156353;0.044910435;;;;;;;;;;;;;;;
1596.0;1519.6;;;;-0.2142792;0.8886949;0.042839054;;;;;;;;;;;;;;;
1596.0;1519.6;;;;-0.21686938;0.8861047;0.041343693;;;;;;;;;;;;;;;
1596.0;1522.0;262143;262143;13211;;;;;;;;;;;;;;;;;;
1596.0;1528.3;;;;;;;;;;;;;-13948;;;;;;;;
1596.0;1528.3;;;;;;;;;;;;;-13910;;;;;;;;
1596.0;1528.3;;;;;;;;;;;;;-13820;;;;;;;;
1596.0;1528.3;;;;;;;;;;;;;-13551;;;;;;;;
1596.0;1528.3;;;;;;;;;;;;;-13118;;;;;;;;
1598.0;1529.8;;;;-0.21903232;0.88388836;0.039508823;;;;;;;;;;;;;;;
1598.0;1529.8;;;;-0.2212067;0.8816873;0.03792191;;;;;;;;;;;;;;;
1598.0;1529.8;;;;-0.22282413;0.87944424;0.036758427;;;;;;;;;;;;;;;
1598.0;1529.8;;;;-0.22399524;0.87745297;0.03464127;;;;;;;;;;;;;;;
1598.0;1529.8;;;;-0.22614673;0.87573254;0.033226017;;;;;;;;;;;;;;;
1598.0;1539.9;;;;-0.2274361;0.8742105;0.03137589;;;;;;;;;;;;;;;
1598.0;1539.9;;;;-0.22882083;0.87232983;0.029479984;;;;;;;;;;;;;;;
1598.0;1539.9;;;;-0.23065189;0.8709451;0.027549747;;;;;;;;;;;;;;;
1598.0;1539.9;;;;-0.23237231;0.8696748;0.026630405;;;;;;;;;;;;;;;
1598.0;1539.9;;;;-0.23416522;0.86951077;0.025661472;;;;;;;;;;;;;;;
1598.0;1541.1;;;;;;;;;;;;;;;;;-32.013916;-0.8507035;77.86798;;1446.4
1598.0;1541.1;;;;;;;;;;;;;;0.99484235;-0.31800288;-0.103152566;;;;;1446.4
1598.0;1541.1;;;;;;;;;;;;;;;;;-31.506546;1.7204809;77.97861;;1446.4
1598.0;1541.1;;;;;;;;;;;;;;0.98947114;-0.29779962;-0.1015656;;;;;1446.4
1598.0;1541.1;;;;;;;;;;;;;;;;;-30.838953;4.7456284;77.12409;;1456.0
1598.0;1541.1;;;;;;;;;;;;;;0.96676534;-0.25916317;-0.0954619;;;;;1456.0
1598.0;1541.1;;;;;;;;;;;;;;;;;-30.568102;6.5271463;76.200905;;1456.0
1598.0;1541.1;;;;;;;;;;;;;;0.941496;-0.22864467;-0.109500416;;;;;1456.0
1598.0;1541.1;;;;;;;;;;;;;;;;;-30.278175;8.20185;74.78561;;1465.7
1598.0;1541.1;;;;;;;;;;;;;;0.9162267;-0.1909238;-0.1180456;;;;;1465.7
1598.0;1541.1;;;;;;;;;;;;;;;;;-31.01062;9.31959;73.13761;;1465.7
1598.0;1541.1;;;;;;;;;;;;;;0.89272743;-0.15478988;-0.12610248;;;;;1465.7
1598.0;1542.2;262143;262143;13201;;;;;;;;;;;;;;;;;;
1599.0;1548.5;;;;;;;;;;;;;;;;;-32.15888;9.54085;71.306496;;1475.2
1599.0;1548.5;;;;;;;;;;;;;;0.8645894;-0.11468856;-0.13928647;;;;;1475.2
1599.0;1548.5;;;;;;;;;;;;;;;;;-32.940918;8.846553;70.10864;;1475.2
1599.0;1548.5;;;;;;;;;;;;;;0.832667;-0.08984649;-0.15973388;;;;;1475.2
1599.0;1548.5;;;;;;;;;;;;;;;;;-33.150734;8.388776;68.74676;;1485.0
1599.0;1548.5;;;;;;;;;;;;;;0.80324715;-0.065858945;-0.16113773;;;;;1485.0
1599.0;1548.5;;;;;;;;;;;;;;;;;-34.352394;7.2824793;67.69387;;1485.0
1599.0;1548.5;;;;;;;;;;;;;;0.7851192;-0.044129767;-0.16888943;;;;;1485.0
1599.0;1548.5;;;;;;;;;;;;;;;;;-35.348064;6.3135166;67.339096;;1494.7
1599.0;1548.5;;;;;;;;;;;;;;0.77987;-0.035767693;-0.17548142;;;;;1494.7
1599.0;1548.5;;;;;;;;;;;;;;;;;-36.24836;6.145665;67.289505;;1494.7
1599.0;1548.5;;;;;;;;;;;;;;0.77333903;-0.033936583;-0.16589862;;;;;1494.7
1599.0;1549.7;;;;-0.23585132;0.8688737;0.024448399;;;;;;;;;;;;;;;
1599.0;1549.7;;;;-0.23751834;0.8689271;0.023105623;;;;;;;;;;;;;;;
1599.0;1549.7;;;;-0.23923495;0.8693124;0.022907259;;;;;;;;;;;;;;;
1599.0;1549.7;;;;-0.24079517;0.86981976;0.022029879;;;;;;;;;;;;;;;
1599.0;1549.7;;;;-0.24210742;0.8703195;0.020664217;;;;;;;;;;;;;;;
1599.0;1559.7;;;;-0.2430115;0.87106335;0.019596102;;;;;;;;;;;;;;;
1599.0;1559.7;;;;-0.2444115;0.87189114;0.018505098;;;;;;;;;;;;;;;
1599.0;1559.7;;;;-0.244957;0.8724557;0.016819002;;;;;;;;;;;;;;;
1599.0;1559.7;;;;-0.24564365;0.8731004;0.01502228;;;;;;;;;;;;;;;
1599.0;1559.7;;;;-0.24684909;0.8741647;0.013156893;;;;;;;;;;;;;;;
1599.0;1562.2;262143;262143;13197;;;;;;;;;;;;;;;;;;
1655.0;1568.4;;;;;;;;;;;;;-12459;;;;;;;;
1655.0;1568.4;;;;;;;;;;;;;-11429;;;;;;;;
1655.0;1568.4;;;;;;;;;;;;;-9949;;;;;;;;
1655.0;1568.4;;;;;;;;;;;;;-8220;;;;;;;;
1655.0;1568.4;;;;;;;;;;;;;-6650;;;;;;;;
1655.0;1569.8;;;;-0.2480202;0.8751184;0.011920931;;;;;;;;;;;;;;;
1655.0;1569.8;;;;-0.24803928;0.876011;0.010395051;;;;;;;;;;;;;;;
1655.0;1569.8;;;;-0.24810031;0.877102;0.0076942453;;;;;;;;;;;;;;;
1655.0;1569.8;;;;-0.24903491;0.8781434;0.006473542;;;;;;;;;;;;;;;
1655.0;1569.8;;;;-0.25002673;0.87952816;0.005020142;;;;;;;;;;;;;;;
1655.0;1579.8;;;;-0.25016025;0.88154995;0.003959656;;;;;;;;;;;;;;;
1655.0;1579.8;;;;-0.25054553;0.88298047;0.0031166081;;;;;;;;;;;;;;;
1655.0;1579.8;;;;-0.25068286;0.8851434;0.0019416811;;;;;;;;;;;;;;;
1655.0;1579.8;;;;-0.25086215;0.88723767;0.0012855531;;;;;;;;;;;;;;;
1655.0;1579.8;;;;-0.25017932;0.8894731;1.602173E-4;;;;;;;;;;;;;;;
1655.0;1582.3;262143;262143;13201;;;;;;;;;;;;;;;;;;
1655.0;1589.9;;;;-0.249733;0.8919641;-4.0435797E-4;;;;;;;;;;;;;;;
1655.0;1589.9;;;;-0.24930194;0.89466107;-8.468629E-4;;;;;;;;;;;;;;;
1655.0;1589.9;;;;-0.24839404;0.8974649;-0.0013160707;;;;;;;;;;;;;;;
1655.0;1589.9;;;;-0.24758151;0.8999902;-0.0027427676;;;;;;;;;;;;;;;
1655.0;1589.9;;;;-0.24691013;0.9023248;-0.0034255986;;;;;;;;;;;;;;;
1656.0;1600.0;;;;-0.24633029;0.9047395;-0.0032539372;;;;;;;;;;;;;;;
1656.0;1600.0;;;;-0.24610141;0.9073373;-0.0035285954;;;;;;;;;;;;;;;
1656.0;1600.0;;;;-0.24595645;0.90963376;-0.0039672856;;;;;;;;;;;;;;;
1656.0;1600.0;;;;-0.24540332;0.9118005;-0.0033683782;;;;;;;;;;;;;;;
1656.0;1600.0;;;;-0.24526218;0.91414654;-0.0022315981;;;;;;;;;;;;;;;
1656.0;1602.6;262143;262143;13195;;;;;;;;;;;;;;;;;;
1656.0;1608.8;;;;;;;;;;;;;-5527;;;;;;;;
1656.0;1608.8;;;;;;;;;;;;;-4519;;;;;;;;
1656.0;1608.8;;;;;;;;;;;;;-3253;;;;;;;;
1656.0;1608.8;;;;;;;;;;;;;-2124;;;;;;;;
1656.0;1608.8;;;;;;;;;;;;;-1436;;;;;;;;
1656.0;1610.1;;;;-0.24527362;0.91606915;-0.0014076234;;;;;;;;;;;;;;;
1656.0;1610.1;;;;-0.24451068;0.91827404;-7.2097784E-4;;;;;;;;;;;;;;;
1656.0;1610.1;;;;-0.24437717;0.91928875;5.073548E-4;;;;;;;;;;;;;;;
1656.0;1610.1;;;;-0.24451068;0.92013943;0.0016212466;;;;;;;;;;;;;;;
1656.0;1610.1;;;;-0.24409488;0.9208795;0.002269745;;;;;;;;;;;;;;;
1660.0;1616.8;;;;;;;;;;;;;;;;;-37.659843;4.5167394;66.13361;;1504.3
1660.0;1616.8;;;;;;;;;;;;;;0.7740104;-0.01861629;-0.17999817;;;;;1504.3
1660.0;1616.8;;;;;;;;;;;;;;;;;-38.235878;0.6714072;65.03494;;1504.3
1660.0;1616.8;;;;;;;;;;;;;;0.7954344;-0.0022583697;-0.23139134;;;;;1504.3
1660.0;1616.8;;;;;;;;;;;;;;;;;-38.00699;-2.193518;64.23002;;1513.8
1660.0;1616.8;;;;;;;;;;;;;;0.82503736;0.0017090365;-0.28388318;;;;;1513.8
1660.0;1616.8;;;;;;;;;;;;;;;;;-38.327435;-2.7886288;63.39839;;1513.8
1660.0;1616.8;;;;;;;;;;;;;;0.8534196;0.006897183;-0.30030215;;;;;1513.8
1660.0;1616.8;;;;;;;;;;;;;;;;;-40.780357;-2.5482955;62.58583;;1523.2
1660.0;1616.8;;;;;;;;;;;;;;0.87582016;0.014893033;-0.30408642;;;;;1523.2
1660.0;1616.8;;;;;;;;;;;;;;;;;-44.644764;-1.7624439;62.055573;;1523.2
1660.0;1616.8;;;;;;;;;;;;;;0.89565724;0.025879696;-0.28479874;;;;;1523.2
1660.0;1617.6;;;;;;;;;;;;;;;;;-49.211098;-0.9994812;61.69698;;1532.9
1660.0;1617.6;;;;;;;;;;;;;;0.9175695;0.028809473;-0.25434124;;;;;1532.9
1660.0;1617.6;;;;;;;;;;;;;;;;;-54.20469;0.10299997;61.311684;;1532.9
1660.0;1617.6;;;;;;;;;;;;;;0.93923765;0.020447401;-0.2059389;;;;;1532.9
1660.0;1617.6;;;;;;;;;;;;;;;;;-58.076725;0.12588885;60.613575;;1542.5
1660.0;1617.6;;;;;;;;;;;;;;0.96169925;0.013733329;-0.16101566;;;;;1542.5
1660.0;1617.6;;;;;;;;;;;;;;;;;-59.125797;-1.7777032;59.88876;;1542.5
1660.0;1617.6;;;;;;;;;;;;;;0.9666433;-0.0040284432;-0.13293862;;;;;1542.5
1660.0;1617.6;;;;;;;;;;;;;;;;;-58.78628;-6.1571097;59.701836;;1552.2
1660.0;1617.6;;;;;;;;;;;;;;0.97738576;-0.025208289;-0.12884915;;;;;1552.2
1660.0;1617.6;;;;;;;;;;;;;;;;;-59.793392;-10.265663;59.667503;;1552.2
1660.0;1617.6;;;;;;;;;;;;;;0.98855555;-0.041444138;-0.13483077;;;;;1552.2
1714.0;1619.9;;;;-0.24375537;0.9209558;0.003471375;;;;;;;;;;;;;;;
1714.0;1619.9;;;;-0.24338153;0.9210893;0.0051040654;;;;;;;;;;;;;;;
1714.0;1619.9;;;;-0.24318317;0.9212953;0.0070228586;;;;;;;;;;;;;;;
1714.0;1619.9;;;;-0.24271396;0.92187893;0.008823396;;;;;;;;;;;;;;;
1714.0;1619.9;;;;-0.24204639;0.92201626;0.010181428;;;;;;;;;;;;;;;
1714.0;1622.5;262143;262143;13197;;;;;;;;;;;;;;;;;;
1714.0;1630.0;;;;-0.24169925;0.9222337;0.011787416;;;;;;;;;;;;;;;
1714.0;1630.0;;;;-0.2413216;0.92294323;0.01350403;;;;;;;;;;;;;;;
1714.0;1630.0;;;;-0.24108508;0.923401;0.014633181;;;;;;;;;;;;;;;
1714.0;1630.0;;;;-0.24076083;0.924019;0.01608658;;;;;;;;;;;;;;;
1714.0;1630.0;;;;-0.24054721;0.925213;0.016551973;;;;;;;;;;;;;;;
1714.0;1640.0;;;;-0.2398682;0.92655194;0.017372133;;;;;;;;;;;;;;;
1714.0;1640.0;;;;-0.23897174;0.9278375;0.018756868;;;;;;;;;;;;;;;
1714.0;1640.0;;;;-0.23864368;0.9294473;0.020328524;;;;;;;;;;;;;;;
1714.0;1640.0;;;;-0.23870471;0.93200696;0.021911623;;;;;;;;;;;;;;;
1714.0;1640.0;;;;-0.23745349;0.9348222;0.023563389;;;;;;;;;;;;;;;
1714.0;1642.7;262143;262143;13197;;;;;;;;;;;;;;;;;;
1714.0;1648.8;;;;;;;;;;;;;-879;;;;;;;;
1714.0;1648.8;;;;;;;;;;;;;-282;;;;;;;;
1714.0;1648.8;;;;;;;;;;;;;31;;;;;;;;
1714.0;1648.8;;;;;;;;;;;;;-68;;;;;;;;
1714.0;1648.8;;;;;;;;;;;;;-238;;;;;;;;
1716.0;1650.1;;;;-0.23685077;0.9381219;0.024600986;;;;;;;;;;;;;;;
1716.0;1650.1;;;;-0.23611835;0.9421617;0.027042393;;;;;;;;;;;;;;;
1716.0;1650.1;;;;-0.23573688;0.94602597;0.028106693;;;;;;;;;;;;;;;
1716.0;1650.1;;;;-0.23481753;0.9506875;0.029544834;;;;;;;;;;;;;;;
1716.0;1650.1;;;;-0.2339249;0.9552232;0.03017426;;;;;;;;;;;;;;;
1716.0;1660.2;;;;-0.23319247;0.9593278;0.030445103;;;;;;;;;;;;;;;
1716.0;1660.2;;;;-0.23252109;0.96424115;0.029357914;;;;;;;;;;;;;;;
1716.0;1660.2;;;;-0.23189166;0.9683343;0.02878571;;;;;;;;;;;;;;;
1716.0;1660.2;;;;-0.23106769;0.97213376;0.027717594;;;;;;;;;;;;;;;
1716.0;1660.2;;;;-0.22993091;0.97571194;0.02612305;;;;;;;;;;;;;;;
1716.0;1661.6;;;;;;;;;;;;;;;;;-63.783684;-11.082033;60.407574;;1561.9
1716.0;1661.6;;;;;;;;;;;;;;0.9907529;-0.06683554;-0.11279641;;;;;1561.9
1716.0;1661.6;;;;;;;;;;;;;;;;;-71.11957;-9.0487385;61.45283;;1561.9
1716.0;1661.6;;;;;;;;;;;;;;0.98727375;-0.10400708;-0.06103702;;;;;1561.9
1716.0;1661.6;;;;;;;;;;;;;;;;;-78.81405;-6.7484055;62.784203;;1571.6
1716.0;1661.6;;;;;;;;;;;;;;0.98062074;-0.1490524;-0.015137181;;;;;1571.6
1716.0;1661.6;;;;;;;;;;;;;;;;;-81.31657;-6.4546647;62.509537;;1571.6
1716.0;1661.6;;;;;;;;;;;;;;0.9607837;-0.16748558;-0.016724143;;;;;1571.6
1716.0;1661.6;;;;;;;;;;;;;;;;;-78.64238;-9.502701;61.376537;;1581.2
1716.0;1661.6;;;;;;;;;;;;;;0.95126194;-0.17743461;-0.07440413;;;;;1581.2
1716.0;1661.6;;;;;;;;;;;;;;;;;-72.7485;-10.811182;60.65935;;1581.2
1716.0;1661.6;;;;;;;;;;;;;;0.94351023;-0.19696645;-0.13245033;;;;;1581.2
1716.0;1662.8;262143;262143;13188;;;;;;;;;;;;;;;;;;
1774.0;1670.2;;;;-0.22879794;0.9790002;0.025039677;;;;;;;;;;;;;;;
1774.0;1670.2;;;;-0.22817996;0.98240674;0.02405167;;;;;;;;;;;;;;;
1774.0;1670.2;;;;-0.2276726;0.98547375;0.022979738;;;;;;;;;;;;;;;
1774.0;1670.2;;;;-0.22702411;0.9886285;0.022560121;;;;;;;;;;;;;;;
1774.0;1670.2;;;;-0.22668079;0.99211514;0.022159578;;;;;;;;;;;;;;;
1774.0;1680.3;;;;-0.22508624;0.99510586;0.022289278;;;;;;;;;;;;;;;
1774.0;1680.3;;;;-0.22542575;0.99852765;0.022979738;;;;;;;;;;;;;;;
1774.0;1680.3;;;;-0.2246857;1.0031968;0.022529604;;;;;;;;;;;;;;;
1774.0;1680.3;;;;-0.22337726;1.0072442;0.023033144;;;;;;;;;;;;;;;
1774.0;1680.3;;;;-0.22237018;1.0112649;0.022968294;;;;;;;;;;;;;;;
1774.0;1683.1;262143;262143;13183;;;;;;;;;;;;;;;;;;
1774.0;1689.2;;;;;;;;;;;;;73;;;;;;;;
1774.0;1689.2;;;;;;;;;;;;;965;;;;;;;;
1774.0;1689.2;;;;;;;;;;;;;1799;;;;;;;;
1774.0;1689.2;;;;;;;;;;;;;2189;;;;;;;;
1774.0;1689.2;;;;;;;;;;;;;2427;;;;;;;;
1774.0;1690.2;;;;-0.2210274;1.0148469;0.021839144;;;;;;;;;;;;;;;
1774.0;1690.2;;;;-0.21927646;1.0182306;0.021369936;;;;;;;;;;;;;;;
1774.0;1690.2;;;;-0.21672443;1.0222093;0.020477297;;;;;;;;;;;;;;;
1774.0;1690.2;;;;-0.21476367;1.0255967;0.019893648;;;;;;;;;;;;;;;
1774.0;1690.2;;;;-0.21361926;1.0296518;0.019775392;;;;;;;;;;;;;;;
1777.0;1700.2;;;;-0.212307;1.0330621;0.019756319;;;;;;;;;;;;;;;
1777.0;1700.2;;;;-0.2110596;1.0365945;0.020416262;;;;;;;;;;;;;;;
1777.0;1700.2;;;;-0.20992282;1.0397874;0.021781923;;;;;;;;;;;;;;;
1777.0;1700.2;;;;-0.2084389;1.0423051;0.022605898;;;;;;;;;;;;;;;
1777.0;1700.2;;;;-0.20562747;1.0449525;0.023097994;;;;;;;;;;;;;;;
1777.0;1703.1;262143;262143;13195;;;;;;;;;;;;;;;;;;
1777.0;1710.4;;;;-0.20023349;1.0461084;0.023551945;;;;;;;;;;;;;;;
1777.0;1710.4;;;;-0.20089343;1.048153;0.023323061;;;;;;;;;;;;;;;
1777.0;1710.4;;;;-0.2001343;1.0521165;0.022426607;;;;;;;;;;;;;;;
1777.0;1710.4;;;;-0.1969643;1.0528413;0.021694185;;;;;;;;;;;;;;;
1777.0;1710.4;;;;-0.1960297;1.0521623;0.021133425;;;;;;;;;;;;;;;
1777.0;1720.5;;;;-0.19494632;1.0504152;0.021476747;;;;;;;;;;;;;;;
1777.0;1720.5;;;;-0.19287112;1.048935;0.022403719;;;;;;;;;;;;;;;
1777.0;1720.5;;;;-0.18901446;1.0479013;0.022655489;;;;;;;;;;;;;;;
1777.0;1720.5;;;;-0.18658449;1.0465966;0.022686007;;;;;;;;;;;;;;;
1777.0;1720.5;;;;-0.18441392;1.0447236;0.023239138;;;;;;;;;;;;;;;
1777.0;1723.4;262143;262143;13189;;;;;;;;;;;;;;;;;;
1777.0;1729.5;;;;;;;;;;;;;2627;;;;;;;;
1777.0;1729.5;;;;;;;;;;;;;2679;;;;;;;;
1777.0;1729.5;;;;;;;;;;;;;2901;;;;;;;;
1777.0;1729.5;;;;;;;;;;;;;3445;;;;;;;;
1777.0;1729.5;;;;;;;;;;;;;3709;;;;;;;;
1780.0;1730.5;;;;-0.18216707;1.0426255;0.023700718;;;;;;;;;;;;;;;
1780.0;1730.5;;;;-0.17991258;1.0400544;0.024040226;;;;;;;;;;;;;;;
1780.0;1730.5;;;;-0.17847063;1.036812;0.023700718;;;;;;;;;;;;;;;
1780.0;1730.5;;;;-0.17668153;1.0339776;0.022293093;;;;;;;;;;;;;;;
1780.0;1730.5;;;;-0.17489244;1.0312501;0.019824984;;;;;;;;;;;;;;;
1780.0;1739.8;;;;;;;;;;0.35096285;17.521439;-1.9188513;;;;;;;;;
1780.0;1739.8;;;;;;;0.23468734;-0.86684775;0.28693503;;;;;;;;;;;;
1780.0;1739.8;;;;;;;;;;4.791406;33.375805;10.143589;;;;;;;;;
1780.0;1739.8;;;;;;;0.2709433;-0.9924009;0.32178718;;;;;;;;;;;;
1780.0;1740.6;;;;-0.17289735;1.027958;0.017337801;;;;;;;;;;;;;;;
1780.0;1740.6;;;;-0.17097856;1.0244981;0.014629366;;;;;;;;;;;;;;;
1780.0;1740.6;;;;-0.17003633;1.0208513;0.012969973;;;;;;;;;;;;;;;
1780.0;1740.6;;;;-0.16903307;1.0170747;0.0108299265;;;;;;;;;;;;;;;
1780.0;1740.6;;;;-0.16840364;1.0141298;0.008766175;;;;;;;;;;;;;;;
1780.0;1743.6;262143;262143;13173;;;;;;;;;;;;;;;;;;
1780.0;1749.4;;;;;;;;;;0.15640736;7.3015537;7.6868496;;;;;;;;;
1780.0;1749.4;;;;;;;0.2747276;-1.0069888;0.32062745;;;;;;;;;;;;
1780.0;1749.4;;;;;;;;;;1.2970366;24.235512;12.981811;;;;;;;;;
1780.0;1749.4;;;;;;;0.2783288;-1.0184637;0.31861323;;;;;;;;;;;;
1835.0;1750.7;;;;-0.16835786;1.0116502;0.0071487436;;;;;;;;;;;;;;;
1835.0;1750.7;;;;-0.16746522;1.009636;0.0063056955;;;;;;;;;;;;;;;
1835.0;1750.7;;;;-0.16758348;1.0082208;0.004867554;;;;;;;;;;;;;;;
1835.0;1750.7;;;;-0.16730501;1.008011;0.0033149724;;;;;;;;;;;;;;;
1835.0;1750.7;;;;-0.16695406;1.0090486;-0.0012588502;;;;;;;;;;;;;;;
1835.0;1758.9;;;;;;;;;;-2.0180366;30.728323;16.79281;;;;;;;;;
1835.0;1758.9;;;;;;;0.28107548;-1.0276192;0.31751457;;;;;;;;;;;;
1835.0;1758.9;;;;;;;;;;-10.422071;0.34333324;-0.6637776;;;;;;;;;
1835.0;1758.9;;;;;;;0.27875605;-1.042085;0.31470686;;;;;;;;;;;;
1835.0;1760.7;;;;-0.1662903;1.0120927;-0.008651734;;;;;;;;;;;;;;;
1835.0;1760.7;;;;-0.16574861;1.0178567;-0.01860428;;;;;;;;;;;;;;;
1835.0;1760.7;;;;-0.16508485;1.0258104;-0.028377537;;;;;;;;;;;;;;;
1835.0;1760.7;;;;-0.16594698;1.0372888;-0.0338707;;;;;;;;;;;;;;;
1835.0;1760.7;;;;-0.1687813;1.0534974;-0.03509522;;;;;;;;;;;;;;;
1835.0;1763.7;262143;262143;13186;;;;;;;;;;;;;;;;;;
1835.0;1768.6;;;;;;;;;;-13.546404;4.730369;1.4076662;;;;;;;;;
1835.0;1768.6;;;;;;;0.28186896;-1.0564897;0.31617177;;;;;;;;;;;;
1835.0;1768.6;;;;;;;;;;-16.357922;9.174627;3.0480363;;;;;;;;;
1835.0;1768.6;;;;;;;0.28449354;-1.0712607;0.31513414;;;;;;;;;;;;
1835.0;1769.8;;;;;;;;;;;;;3408;;;;;;;;
1835.0;1769.8;;;;;;;;;;;;;3248;;;;;;;;
1835.0;1769.8;;;;;;;;;;;;;3905;;;;;;;;
1835.0;1769.8;;;;;;;;;;;;;4822;;;;;;;;
1835.0;1769.8;;;;;;;;;;;;;5102;;;;;;;;
1836.0;1770.8;;;;-0.17349245;1.0731698;-0.034084324;;;;;;;;;;;;;;;
1836.0;1770.8;;;;-0.17919542;1.0948259;-0.029678348;;;;;;;;;;;;;;;
1836.0;1770.8;;;;-0.18533327;1.1177598;-0.024063114;;;;;;;;;;;;;;;
1836.0;1770.8;;;;-0.19087604;1.1416284;-0.01761246;;;;;;;;;;;;;;;
1836.0;1770.8;;;;-0.19389728;1.1645395;-0.010856629;;;;;;;;;;;;;;;
1836.0;1778.2;;;;;;;;;;-18.803217;20.496994;9.590442;;;;;;;;;
1836.0;1778.2;;;;;;;0.2870571;-1.084933;0.31171605;;;;;;;;;;;;
1836.0;1778.2;;;;;;;;;;-19.230476;29.80514;15.301217;;;;;;;;;
1836.0;1778.2;;;;;;;0.28955963;-1.0975066;0.30994597;;;;;;;;;;;;
1836.0;1780.9;;;;-0.1926842;1.1837922;-0.00328064;;;;;;;;;;;;;;;
1836.0;1780.9;;;;-0.18914035;1.1970102;0.0075416574;;;;;;;;;;;;;;;
1836.0;1780.9;;;;-0.1907883;1.2149545;0.01590729;;;;;;;;;;;;;;;
1836.0;1780.9;;;;-0.18870547;1.2299081;0.014690401;;;;;;;;;;;;;;;
1836.0;1780.9;;;;-0.18597414;1.2350198;0.020744326;;;;;;;;;;;;;;;
1837.0;1782.7;;;;;;;;;;;;;;;;;-65.15702;-10.925627;59.71328;;1590.9
1837.0;1782.7;;;;;;;;;;;;;;0.92837304;-0.21454512;-0.19263284;;;;;1590.9
1837.0;1782.7;;;;;;;;;;;;;;;;;-56.890316;-9.655293;58.16828;;1590.9
1837.0;1782.7;;;;;;;;;;;;;;0.9157384;-0.20386365;-0.23029268;;;;;1590.9
1837.0;1782.7;;;;;;;;;;;;;;;;;-50.019836;-8.674886;56.550797;;1600.6
1837.0;1782.7;;;;;;;;;;;;;;0.9076205;-0.19135106;-0.22956023;;;;;1600.6
1837.0;1782.7;;;;;;;;;;;;;;;;;-44.827873;-9.708701;54.74639;;1600.6
1837.0;1782.7;;;;;;;;;;;;;;0.9107944;-0.17175817;-0.2365795;;;;;1600.6
1837.0;1782.7;;;;;;;;;;;;;;;;;-40.265358;-11.032442;52.804653;;1610.2
1837.0;1782.7;;;;;;;;;;;;;;0.91152686;-0.1607715;-0.242378;;;;;1610.2
1837.0;1782.7;;;;;;;;;;;;;;;;;-34.6881;-11.890775;51.06128;;1610.2
1837.0;1782.7;;;;;;;;;;;;;;0.9074374;-0.15601063;-0.21472824;;;;;1610.2
1837.0;1783.8;;;;;;;;;;;;;;;;;-28.462324;-12.787255;49.06232;;1619.8
1837.0;1783.8;;;;;;;;;;;;;;0.90029603;-0.17633595;-0.18567461;;;;;1619.8
1837.0;1783.8;;;;;;;;;;;;;;;;;-22.091587;-13.634145;46.769615;;1619.8
1837.0;1783.8;;;;;;;;;;;;;;0.89504683;-0.18982513;-0.17242958;;;;;1619.8
1837.0;1783.8;;;;;;;;;;;;;;;;;-14.610737;-13.847774;43.73684;;1629.3
1837.0;1783.8;;;;;;;;;;;;;;0.88467056;-0.19293801;-0.18158513;;;;;1629.3
1837.0;1783.8;;;;;;;;;;;;;;;;;-5.3102207;-14.5497;40.066986;;1629.3
1837.0;1783.8;;;;;;;;;;;;;;0.8709372;-0.19293801;-0.19940794;;;;;1629.3
1837.0;1783.8;;;;;;;;;;;;;;;;;3.3074436;-15.629292;36.244545;;1639.0
1837.0;1783.8;;;;;;;;;;;;;;0.86373484;-0.18854335;-0.21668142;;;;;1639.0
1837.0;1783.8;;;;;;;;;;;;;;;;;9.32722;-16.762293;32.456436;;1639.0
1837.0;1783.8;;;;;;;;;;;;;;0.87063205;-0.18091373;-0.23767816;;;;;1639.0
1838.0;1784.8;;;;;;;;;;;;;;;;;13.470107;-17.448957;28.504288;;1648.6
1838.0;1784.8;;;;;;;;;;;;;;0.8896756;-0.16583759;-0.2562334;;;;;1648.6
1838.0;1784.8;;;;;;;;;;;;;;;;;15.385143;-16.418959;24.75814;;1648.6
1838.0;1784.8;;;;;;;;;;;;;;0.9162877;-0.1358684;-0.26899013;;;;;1648.6
1838.0;1784.8;;;;;;;;;;;;;;;;;15.583514;-13.454848;21.370586;;1658.3
1838.0;1784.8;;;;;;;;;;;;;;0.94351023;-0.09112827;-0.2626423;;;;;1658.3
1838.0;1784.8;;;;;;;;;;;;;;;;;15.388958;-9.907071;18.02118;;1658.3
1838.0;1784.8;;;;;;;;;;;;;;0.959624;-0.031922363;-0.2531205;;;;;1658.3
1838.0;1784.8;;;;;;;;;;;;;;;;;15.106662;-6.7636647;14.698478;;1667.9
1838.0;1784.8;;;;;;;;;;;;;;0.9637745;0.028504288;-0.25629443;;;;;1667.9
1838.0;1784.8;;;;;;;;;;;;;;;;;14.980773;-3.4333322;11.486403;;1667.9
1838.0;1784.8;;;;;;;;;;;;;;0.9551073;0.08917508;-0.25153357;;;;;1667.9
1838.0;1783.8;262143;262143;13183;;;;;;;;;;;;;;;;;;
1839.0;1785.4;;;;;;;;;;;;;;;;;13.874477;-1.2627033;8.785516;;1677.6
1839.0;1785.4;;;;;;;;;;;;;;0.9438154;0.13940856;-0.24793237;;;;;1677.6
1839.0;1785.4;;;;;;;;;;;;;;;;;12.047182;0.32425916;7.3206277;;1677.6
1839.0;1785.4;;;;;;;;;;;;;;0.9312418;0.1820124;-0.23352763;;;;;1677.6
1839.0;1785.4;;;;;;;;;;;;;;;;;9.983367;1.4458144;7.2367015;;1687.1
1839.0;1785.4;;;;;;;;;;;;;;0.9192175;0.19666128;-0.22254097;;;;;1687.1
1839.0;1785.4;;;;;;;;;;;;;;;;;7.4732203;1.3504441;7.641072;;1687.1
1839.0;1785.4;;;;;;;;;;;;;;0.91549426;0.19989623;-0.22193061;;;;;1687.1
1839.0;1785.4;;;;;;;;;;;;;;;;;3.9597769;0.23651844;8.110294;;1696.8
1839.0;1785.4;;;;;;;;;;;;;;0.93081456;0.19354838;-0.24304941;;;;;1696.8
1839.0;1785.4;;;;;;;;;;;;;;;;;-0.24796289;0.23651844;8.896146;;1696.8
1839.0;1785.4;;;;;;;;;;;;;;0.9502854;0.18042544;-0.26545;;;;;1696.8
1839.0;1786.2;;;;;;;;;;;;;;;;;-5.3025913;0.5340739;9.750664;;1706.5
1839.0;1786.2;;;;;;;;;;;;;;0.9765923;0.1688284;-0.29047516;;;;;1706.5
1839.0;1786.2;;;;;;;;;;;;;;;;;-10.517442;1.064333;10.792109;;1706.5
1839.0;1786.2;;;;;;;;;;;;;;1.0069277;0.15009002;-0.31299785;;;;;1706.5
1839.0;1786.2;;;;;;;;;;;;;;;;;-15.514847;0.59511095;11.841182;;1716.2
1839.0;1786.2;;;;;;;;;;;;;;1.0298166;0.12994781;-0.34534746;;;;;1716.2
1839.0;1786.2;;;;;;;;;;;;;;;;;-20.130772;-2.8763695;12.333293;;1716.2
1839.0;1786.2;;;;;;;;;;;;;;1.0346385;0.13293862;-0.40235603;;;;;1716.2
1839.0;1786.2;;;;;;;;;;;;;;;;;-30.816065;-3.6584065;12.604144;;1725.8
1839.0;1786.2;;;;;;;;;;;;;;1.0710776;0.14288767;-0.40601826;;;;;1725.8
1839.0;1786.2;;;;;;;;;;;;;;;;;-46.50258;4.039888;13.866847;;1725.8
1839.0;1786.2;;;;;;;;;;;;;;1.0975677;0.09973449;-0.3538316;;;;;1725.8
1840.0;1787.4;;;;;;;;;;-18.53618;30.064547;13.9317;;;;;;;;;
1840.0;1787.4;;;;;;;0.29328287;-1.1084323;0.30555132;;;;;;;;;;;;
1840.0;1787.4;;;;;;;;;;-17.731255;30.28962;12.401958;;;;;;;;;
1840.0;1787.4;;;;;;;0.29773858;-1.1188085;0.30249947;;;;;;;;;;;;
1840.0;1790.7;;;;-0.18375398;1.2373124;0.030551914;;;;;;;;;;;;;;;
1840.0;1790.7;;;;-0.18396379;1.2371942;0.039257053;;;;;;;;;;;;;;;
1840.0;1790.7;;;;-0.18280794;1.2336313;0.0481453;;;;;;;;;;;;;;;
1840.0;1790.7;;;;-0.17873766;1.2281457;0.056221016;;;;;;;;;;;;;;;
1840.0;1790.7;;;;-0.17416002;1.2201501;0.06362916;;;;;;;;;;;;;;;
1840.0;1796.9;;;;;;;;;;-17.19718;30.060732;10.66622;;;;;;;;;
1840.0;1796.9;;;;;;;0.29816583;-1.1247292;0.2999359;;;;;;;;;;;;
1840.0;1796.9;;;;;;;;;;-16.846218;29.553362;8.865627;;;;;;;;;
1840.0;1796.9;;;;;;;0.29340494;-1.1200293;0.2973113;;;;;;;;;;;;
1840.0;1800.7;;;;-0.17058183;1.2098962;0.07123948;;;;;;;;;;;;;;;
1840.0;1800.7;;;;-0.16764452;1.1984483;0.07870103;;;;;;;;;;;;;;;
1840.0;1800.7;;;;-0.16482164;1.1861268;0.08644486;;;;;;;;;;;;;;;
1840.0;1800.7;;;;-0.16191866;1.1728212;0.09217835;;;;;;;;;;;;;;;
1840.0;1800.7;;;;-0.15997316;1.158558;0.09807207;;;;;;;;;;;;;;;
1840.0;1803.8;262143;262143;13179;;;;;;;;;;;;;;;;;;
1840.0;1806.6;;;;;;;;;;-16.49144;28.984955;7.187109;;;;;;;;;
1840.0;1806.6;;;;;;;0.29322183;-1.114719;0.29023102;;;;;;;;;;;;
1840.0;1806.6;;;;;;;;;;-16.10233;28.584398;5.348369;;;;;;;;;
1840.0;1806.6;;;;;;;0.29255044;-1.1094699;0.27771842;;;;;;;;;;;;
1896.0;1809.8;;;;;;;;;;;;;4783;;;;;;;;
1896.0;1809.8;;;;;;;;;;;;;4653;;;;;;;;
1896.0;1809.8;;;;;;;;;;;;;5069;;;;;;;;
1896.0;1809.8;;;;;;;;;;;;;5448;;;;;;;;
1896.0;1809.8;;;;;;;;;;;;;5413;;;;;;;;
1896.0;1810.5;;;;-0.15811922;1.1445428;0.10361101;;;;;;;;;;;;;;;
1896.0;1810.5;;;;-0.15631486;1.1308709;0.10891725;;;;;;;;;;;;;;;
1896.0;1810.5;;;;-0.15527345;1.117592;0.113899246;;;;;;;;;;;;;;;
1896.0;1810.5;;;;-0.1549492;1.1041566;0.118713394;;;;;;;;;;;;;;;
1896.0;1810.5;;;;-0.15514375;1.0915071;0.12351228;;;;;;;;;;;;;;;
1896.0;1815.7;;;;;;;;;;-16.0947;28.412733;3.2273324;;;;;;;;;
1896.0;1815.7;;;;;;;0.29609057;-1.1153905;0.25141147;;;;;;;;;;;;
1896.0;1815.7;;;;;;;;;;-16.838589;28.37077;0.7248146;;;;;;;;;
1896.0;1815.7;;;;;;;0.30774865;-1.1485336;0.22058779;;;;;;;;;;;;
1896.0;1820.3;;;;-0.15498735;1.0801164;0.12862016;;;;;;;;;;;;;;;
1896.0;1820.3;;;;-0.15474702;1.069378;0.13245012;;;;;;;;;;;;;;;
1896.0;1820.3;;;;-0.15403749;1.0592958;0.13532259;;;;;;;;;;;;;;;
1896.0;1820.3;;;;-0.15208055;1.0501558;0.13782884;;;;;;;;;;;;;;;
1896.0;1820.3;;;;-0.14990236;1.042225;0.14103319;;;;;;;;;;;;;;;
1896.0;1823.4;262143;262143;13173;;;;;;;;;;;;;;;;;;
1896.0;1825.2;;;;;;;;;;-17.876217;29.038363;-1.842555;;;;;;;;;
1896.0;1825.2;;;;;;;0.32166508;-1.2209846;0.20184942;;;;;;;;;;;;
1896.0;1825.2;;;;;;;;;;-18.677328;31.117435;-4.1047397;;;;;;;;;
1896.0;1825.2;;;;;;;0.342967;-1.3235878;0.1948912;;;;;;;;;;;;
1898.0;1830.4;;;;-0.14786531;1.035576;0.14415742;;;;;;;;;;;;;;;
1898.0;1830.4;;;;-0.14592363;1.029709;0.14769746;;;;;;;;;;;;;;;
1898.0;1830.4;;;;-0.14428712;1.0249559;0.15159608;;;;;;;;;;;;;;;
1898.0;1830.4;;;;-0.14298631;1.020981;0.15576555;;;;;;;;;;;;;;;
1898.0;1830.4;;;;-0.14245607;1.0174791;0.15993883;;;;;;;;;;;;;;;
1898.0;1834.9;;;;;;;;;;-19.100773;33.79925;-5.8290353;;;;;;;;;
1898.0;1834.9;;;;;;;0.35706657;-1.4270455;0.19684438;;;;;;;;;;;;
1898.0;1834.9;;;;;;;;;;-19.054995;35.870693;-6.7484055;;;;;;;;;
1898.0;1834.9;;;;;;;0.3598132;-1.5107273;0.20502335;;;;;;;;;;;;
1898.0;1840.5;;;;-0.14218523;1.0142556;0.16355135;;;;;;;;;;;;;;;
1898.0;1840.5;;;;-0.14207079;1.0103952;0.16777803;;;;;;;;;;;;;;;
1898.0;1840.5;;;;-0.14284135;1.0064851;0.17192842;;;;;;;;;;;;;;;
1898.0;1840.5;;;;-0.14468385;1.001774;0.1755066;;;;;;;;;;;;;;;
1898.0;1840.5;;;;-0.1462288;0.9955827;0.17874528;;;;;;;;;;;;;;;
1898.0;1843.7;262143;262143;13183;;;;;;;;;;;;;;;;;;
1898.0;1844.5;;;;;;;;;;-18.612476;36.946472;-6.6072574;;;;;;;;;
1898.0;1844.5;;;;;;;0.35389262;-1.5515;0.2163152;;;;;;;;;;;;
1898.0;1844.5;;;;;;;;;;-17.780846;37.083805;-5.7412944;;;;;;;;;
1898.0;1844.5;;;;;;;0.34070864;-1.548387;0.23114718;;;;;;;;;;;;
1898.0;1849.8;;;;;;;;;;;;;5347;;;;;;;;
1898.0;1849.8;;;;;;;;;;;;;5425;;;;;;;;
1898.0;1849.8;;;;;;;;;;;;;5346;;;;;;;;
1898.0;1849.8;;;;;;;;;;;;;5029;;;;;;;;
1898.0;1849.8;;;;;;;;;;;;;4760;;;;;;;;
1956.0;1850.6;;;;-0.14715196;0.9883615;0.18198015;;;;;;;;;;;;;;;
1956.0;1850.6;;;;-0.14972307;0.9799577;0.18497469;;;;;;;;;;;;;;;
1956.0;1850.6;;;;-0.15220262;0.9705583;0.18704988;;;;;;;;;;;;;;;
1956.0;1850.6;;;;-0.15623857;0.9604112;0.18968204;;;;;;;;;;;;;;;
1956.0;1850.6;;;;-0.15861513;0.94947445;0.19165805;;;;;;;;;;;;;;;
1956.0;1854.1;;;;;;;;;;-16.640219;36.8511;-4.4557023;;;;;;;;;
1956.0;1854.1;;;;;;;0.3233131;-1.5052339;0.24842067;;;;;;;;;;;;
1956.0;1854.1;;;;;;;;;;-15.278329;36.46199;-3.5973694;;;;;;;;;
1956.0;1854.1;;;;;;;0.30573443;-1.4341868;0.26770836;;;;;;;;;;;;
1956.0;1860.6;;;;-0.16140367;0.93670666;0.19432071;;;;;;;;;;;;;;;
1956.0;1860.6;;;;-0.16535951;0.9232713;0.19739535;;;;;;;;;;;;;;;
1956.0;1860.6;;;;-0.16817857;0.91103756;0.20038608;;;;;;;;;;;;;;;
1956.0;1860.6;;;;-0.17033388;0.8984376;0.20395282;;;;;;;;;;;;;;;
1956.0;1860.6;;;;-0.17228319;0.88588727;0.20778659;;;;;;;;;;;;;;;
1956.0;1863.6;;;;;;;;;;-13.733329;36.18732;-3.7347028;;;;;;;;;
1956.0;1863.6;;;;;;;0.2898648;-1.3544725;0.28827783;;;;;;;;;;;;
1956.0;1863.6;;;;;;;;;;-12.287516;36.07288;-5.2301097;;;;;;;;;
1956.0;1863.6;;;;;;;0.2797937;-1.2726829;0.3060396;;;;;;;;;;;;
1956.0;1863.8;262143;262143;13175;;;;;;;;;;;;;;;;;;
1959.0;1870.6;;;;-0.17520525;0.8726808;0.21218875;;;;;;;;;;;;;;;
1959.0;1870.6;;;;-0.17715456;0.85940564;0.21659091;;;;;;;;;;;;;;;
1959.0;1870.6;;;;-0.17889024;0.8469583;0.2215462;;;;;;;;;;;;;;;
1959.0;1870.6;;;;-0.18042375;0.8342134;0.22610095;;;;;;;;;;;;;;;
1959.0;1870.6;;;;-0.18054964;0.82174313;0.23100665;;;;;;;;;;;;;;;
1959.0;1872.9;;;;;;;;;;-11.173589;36.191135;-7.7326274;;;;;;;;;
1959.0;1872.9;;;;;;;0.27356791;-1.198584;0.3140965;;;;;;;;;;;;
1959.0;1872.9;;;;;;;;;;-10.43733;36.515396;-10.631886;;;;;;;;;
1959.0;1872.9;;;;;;;0.27143162;-1.1362041;0.31531724;;;;;;;;;;;;
1959.0;1880.5;;;;-0.18143846;0.8092843;0.2352257;;;;;;;;;;;;;;;
1959.0;1880.5;;;;-0.18276979;0.79727185;0.23903278;;;;;;;;;;;;;;;
1959.0;1880.5;;;;-0.18140794;0.78628933;0.2421799;;;;;;;;;;;;;;;
1959.0;1880.5;;;;-0.18190385;0.77483;0.24427798;;;;;;;;;;;;;;;
1959.0;1880.5;;;;-0.18327715;0.76340115;0.24617389;;;;;;;;;;;;;;;
1959.0;1882.6;;;;;;;;;;-9.918515;37.141026;-13.492996;;;;;;;;;
1959.0;1882.6;;;;;;;0.28022096;-1.0895718;0.30994597;;;;;;;;;;;;
1959.0;1882.6;;;;;;;;;;-9.411145;37.877285;-16.060366;;;;;;;;;
1959.0;1882.6;;;;;;;0.29090244;-1.0653402;0.29871517;;;;;;;;;;;;
1959.0;1883.9;262143;262143;13176;;;;;;;;;;;;;;;;;;
1959.0;1889.9;;;;;;;;;;;;;4809;;;;;;;;
1959.0;1889.9;;;;;;;;;;;;;5708;;;;;;;;
1959.0;1889.9;;;;;;;;;;;;;7780;;;;;;;;
1959.0;1889.9;;;;;;;;;;;;;9065;;;;;;;;
1959.0;1889.9;;;;;;;;;;;;;5569;;;;;;;;
1960.0;1890.7;;;;-0.18277742;0.7529832;0.24800494;;;;;;;;;;;;;;;
1960.0;1890.7;;;;-0.18211748;0.74224097;0.2490311;;;;;;;;;;;;;;;
1960.0;1890.7;;;;-0.18211748;0.73299414;0.25037768;;;;;;;;;;;;;;;
1960.0;1890.7;;;;-0.18019487;0.7246323;0.2502785;;;;;;;;;;;;;;;
1960.0;1890.7;;;;-0.17954256;0.7156525;0.25053027;;;;;;;;;;;;;;;
1960.0;1892.2;;;;;;;;;;-9.166997;38.743248;-18.482773;;;;;;;;;
1960.0;1892.2;;;;;;;0.3056734;-1.0628376;0.28894925;;;;;;;;;;;;
1960.0;1892.2;;;;;;;;;;-8.850368;40.1738;-20.649586;;;;;;;;;
1960.0;1892.2;;;;;;;0.32032228;-1.0863369;0.28235725;;;;;;;;;;;;
1960.0;1900.8;;;;-0.17930223;0.70735556;0.25083163;;;;;;;;;;;;;;;
1960.0;1900.8;;;;-0.17808916;0.7005082;0.250248;;;;;;;;;;;;;;;
1960.0;1900.8;;;;-0.17592622;0.69388586;0.24897006;;;;;;;;;;;;;;;
1960.0;1900.8;;;;-0.17242433;0.68856055;0.24614337;;;;;;;;;;;;;;;
1960.0;1900.8;;;;-0.17139055;0.68384176;0.24342349;;;;;;;;;;;;;;;
1960.0;1901.8;;;;;;;;;;-8.396405;42.19947;-22.518845;;;;;;;;;
1960.0;1901.8;;;;;;;0.33234656;-1.1200904;0.2807703;;;;;;;;;;;;
1960.0;1901.8;;;;;;;;;;-7.6105533;44.86221;-24.117252;;;;;;;;;
1960.0;1901.8;;;;;;;0.3364971;-1.1491439;0.28131962;;;;;;;;;;;;
1960.0;1904.1;262143;262143;13176;;;;;;;;;;;;;;;;;;
1961.0;1910.8;;;;-0.16970064;0.68020254;0.24102786;;;;;;;;;;;;;;;
1961.0;1910.8;;;;-0.16733934;0.6763306;0.23708728;;;;;;;;;;;;;;;
1961.0;1910.8;;;;-0.1649666;0.6738625;0.2330437;;;;;;;;;;;;;;;
1961.0;1910.8;;;;-0.16264726;0.6731072;0.22826388;;;;;;;;;;;;;;;
1961.0;1910.8;;;;-0.16126253;0.67361456;0.22351459;;;;;;;;;;;;;;;
1961.0;1911.4;;;;;;;;;;-6.6644797;47.639393;-25.06714;;;;;;;;;
1961.0;1911.4;;;;;;;0.33643606;-1.1614734;0.28467667;;;;;;;;;;;;
1961.0;1911.4;;;;;;;;;;-5.272073;50.248726;-25.433363;;;;;;;;;
1961.0;1911.4;;;;;;;0.331431;-1.1449934;0.28913236;;;;;;;;;;;;
1961.0;1920.8;;;;-0.1589203;0.6752396;0.21826938;;;;;;;;;;;;;;;
1961.0;1920.8;;;;-0.15711214;0.67744833;0.21283725;;;;;;;;;;;;;;;
1961.0;1920.8;;;;-0.15522768;0.68010336;0.20683292;;;;;;;;;;;;;;;
1961.0;1920.8;;;;-0.15352632;0.6825829;0.20031741;;;;;;;;;;;;;;;
1961.0;1920.8;;;;-0.15079118;0.6867295;0.19373325;;;;;;;;;;;;;;;
1961.0;1920.9;;;;;;;;;;-3.7041843;52.873318;-25.845362;;;;;;;;;
1961.0;1920.9;;;;;;;0.32898954;-1.1055025;0.29328287;;;;;;;;;;;;
1961.0;1920.9;;;;;;;;;;-2.0523698;55.45976;-26.718956;;;;;;;;;
1961.0;1920.9;;;;;;;0.3239845;-1.0572222;0.29303873;;;;;;;;;;;;
1961.0;1924.3;262143;262143;13177;;;;;;;;;;;;;;;;;;
1961.0;1930.3;;;;;;;;;;;;;-2970;;;;;;;;
1961.0;1930.3;;;;;;;;;;;;;-9520;;;;;;;;
1961.0;1930.3;;;;;;;;;;;;;-6837;;;;;;;;
1961.0;1930.3;;;;;;;;;;;;;3292;;;;;;;;
1961.0;1930.3;;;;;;;;;;;;;11759;;;;;;;;
2013.0;1930.5;;;;;;;;;;-0.5188147;57.821133;-28.06177;;;;;;;;;
2013.0;1930.5;;;;;;;0.31672108;-1.0125431;0.2883999;;;;;;;;;;;;
2013.0;1930.5;;;;;;;;;;0.75914794;60.23209;-29.557177;;;;;;;;;
2013.0;1930.5;;;;;;;0.31141087;-0.9825129;0.27820674;;;;;;;;;;;;
2013.0;1930.9;;;;-0.14807893;0.69193274;0.1861725;;;;;;;;;;;;;;;
2013.0;1930.9;;;;-0.14500429;0.6978455;0.18064882;;;;;;;;;;;;;;;
2013.0;1930.9;;;;-0.14083482;0.70478827;0.17445375;;;;;;;;;;;;;;;
2013.0;1930.9;;;;-0.13770296;0.712864;0.16763307;;;;;;;;;;;;;;;
2013.0;1930.9;;;;-0.13536073;0.7215577;0.16159059;;;;;;;;;;;;;;;
2013.0;1939.7;;;;;;;;;;1.9074068;63.070312;-31.174658;;;;;;;;;
2013.0;1939.7;;;;;;;0.30787072;-0.9716483;0.26288643;;;;;;;;;;;;
2013.0;1939.7;;;;;;;;;;2.8687398;66.27476;-32.898956;;;;;;;;;
2013.0;1939.7;;;;;;;0.3075045;-0.9797052;0.24365978;;;;;;;;;;;;
2013.0;1940.6;;;;-0.1333008;0.73112875;0.15584947;;;;;;;;;;;;;;;
2013.0;1940.6;;;;-0.13222124;0.74194723;0.1512642;;;;;;;;;;;;;;;
2013.0;1940.6;;;;-0.13124849;0.7536279;0.14588167;;;;;;;;;;;;;;;
2013.0;1940.6;;;;-0.1305771;0.7656671;0.14154054;;;;;;;;;;;;;;;
2013.0;1940.6;;;;-0.13061143;0.77838147;0.13711168;;;;;;;;;;;;;;;
2013.0;1944.0;262143;262143;13163;;;;;;;;;;;;;;;;;;
2013.0;1949.3;;;;;;;;;;3.810999;69.74624;-34.26084;;;;;;;;;
2013.0;1949.3;;;;;;;0.31025118;-1.0053407;0.22681357;;;;;;;;;;;;
2013.0;1949.3;;;;;;;;;;4.711295;73.442795;-35.2031;;;;;;;;;
2013.0;1949.3;;;;;;;0.3152562;-1.0383008;0.20801416;;;;;;;;;;;;
2016.0;1950.7;;;;-0.13114168;0.7910615;0.13290025;;;;;;;;;;;;;;;
2016.0;1950.7;;;;-0.13156511;0.8037797;0.12936021;;;;;;;;;;;;;;;
2016.0;1950.7;;;;-0.13166048;0.81592953;0.12509157;;;;;;;;;;;;;;;
2016.0;1950.7;;;;-0.13234712;0.82810223;0.12220766;;;;;;;;;;;;;;;
2016.0;1950.7;;;;-0.13311388;0.8392068;0.11943819;;;;;;;;;;;;;;;
2016.0;1959.0;;;;;;;;;;5.53148;77.35298;-35.592213;;;;;;;;;
2016.0;1959.0;;;;;;;0.31934568;-1.071871;0.19397564;;;;;;;;;;;;
2016.0;1959.0;;;;;;;;;;6.4813685;81.30894;-35.57695;;;;;;;;;
2016.0;1959.0;;;;;;;0.32111576;-1.0998871;0.18292795;;;;;;;;;;;;
2016.0;1960.8;;;;-0.13385393;0.8503152;0.11726762;;;;;;;;;;;;;;;
2016.0;1960.8;;;;-0.13478853;0.8606912;0.115734115;;;;;;;;;;;;;;;
2016.0;1960.8;;;;-0.13560487;0.87038434;0.11447908;;;;;;;;;;;;;;;
2016.0;1960.8;;;;-0.13692094;0.8792268;0.11311342;;;;;;;;;;;;;;;
2016.0;1960.8;;;;-0.13819124;0.88751996;0.112461105;;;;;;;;;;;;;;;
2017.0;1962.8;;;;;;;;;;;;;;;;;-49.851982;0.3357036;9.331035;;1735.4
2017.0;1962.8;;;;;;;;;;;;;;1.172399;0.12738426;-0.4199347;;;;;1735.4
2017.0;1962.8;;;;;;;;;;;;;;;;;-41.745506;-13.889736;4.4976654;;1735.4
2017.0;1962.8;;;;;;;;;;;;;;1.3333536;0.13806574;-0.6071963;;;;;1735.4
2017.0;1962.8;;;;;;;;;;;;;;;;;-35.11536;-11.432997;6.0808134;;1744.7
2017.0;1962.8;;;;;;;;;;;;;;1.4163641;0.05505539;-0.68282115;;;;;1744.7
2017.0;1962.8;;;;;;;;;;;;;;;;;-33.143105;8.621479;5.550554;;1744.7
2017.0;1962.8;;;;;;;;;;;;;;1.2933134;0.02087466;-0.5147252;;;;;1744.7
2017.0;1962.8;;;;;;;;;;;;;;;;;-31.163214;23.476364;-0.5378887;;1754.3
2017.0;1962.8;;;;;;;;;;;;;;1.1540269;0.12701803;-0.2156438;;;;;1754.3
2017.0;1962.8;;;;;;;;;;;;;;;;;-32.074955;24.243141;-5.157628;;1754.3
2017.0;1962.8;;;;;;;;;;;;;;1.1450545;0.19513535;-0.010620441;;;;;1754.3
2017.0;1964.1;;;;;;;;;;;;;;;;;-28.519547;23.060549;-11.326181;;1764.0
2017.0;1964.1;;;;;;;;;;;;;;1.1423078;0.25830868;0.047853023;;;;;1764.0
2017.0;1964.1;;;;;;;;;;;;;;;;;-15.057069;17.960142;-18.902403;;1764.0
2017.0;1964.1;;;;;;;;;;;;;;1.0851772;0.29041412;-0.06537065;;;;;1764.0
2017.0;1964.1;;;;;;;;;;;;;;;;;-6.9009976;14.618366;-26.570177;;1773.7
2017.0;1964.1;;;;;;;;;;;;;;1.0736412;0.32239753;-0.2125309;;;;;1773.7
2017.0;1964.1;;;;;;;;;;;;;;;;;-4.776147;19.623402;-32.547993;;1773.7
2017.0;1964.1;;;;;;;;;;;;;;1.1053804;0.33985412;-0.20142217;;;;;1773.7
2017.0;1964.1;;;;;;;;;;;;;;;;;0.93844414;26.356548;-39.433727;;1783.4
2017.0;1964.1;;;;;;;;;;;;;;1.1518296;0.34406567;-0.08484146;;;;;1783.4
2017.0;1964.1;;;;;;;;;;;;;;;;;10.219886;33.10114;-48.814358;;1783.4
2017.0;1964.1;;;;;;;;;;;;;;1.1958373;0.36335337;0.002990814;;;;;1783.4
2020.0;1964.9;;;;;;;;;;;;;;;;;17.780846;42.05451;-58.225502;;1793.0
2020.0;1964.9;;;;;;;;;;;;;;1.206946;0.37659842;0.0712302;;;;;1793.0
2020.0;1964.9;;;;;;;;;;;;;;;;;23.819696;45.678577;-67.56417;;1793.0
2020.0;1964.9;;;;;;;;;;;;;;1.1979126;0.3745842;0.040101323;;;;;1793.0
2020.0;1964.9;;;;;;;;;;;;;;;;;26.917326;46.666615;-76.66631;;1802.6
2020.0;1964.9;;;;;;;;;;;;;;1.2237922;0.3325297;-0.05566576;;;;;1802.6
2020.0;1964.9;;;;;;;;;;;;;;;;;28.374584;54.750206;-85.73412;;1802.6
2020.0;1964.9;;;;;;;;;;;;;;1.2292856;0.25287637;-0.10089419;;;;;1802.6
2020.0;1964.9;;;;;;;;;;;;;;;;;32.502213;69.570755;-94.41664;;1812.1
2020.0;1964.9;;;;;;;;;;;;;;1.1636708;0.15808588;-0.0054933317;;;;;1812.1
2020.0;1964.9;;;;;;;;;;;;;;;;;32.139805;71.67272;-102.86263;;1812.1
2020.0;1964.9;;;;;;;;;;;;;;1.1398664;0.063417464;-0.014282662;;;;;1812.1
2020.0;1964.2;262143;262143;13165;;;;;;;;;;;;;;;;;;
2021.0;1965.7;;;;;;;;;;;;;;;;;27.310251;70.85253;-111.54515;;1821.7
2021.0;1965.7;;;;;;;;;;;;;;1.0674764;0.020325327;-0.12121952;;;;;1821.7
2021.0;1965.7;;;;;;;;;;;;;;;;;25.532547;70.16586;-118.758965;;1821.7
2021.0;1965.7;;;;;;;;;;;;;;0.9949644;0.020203253;-0.12842189;;;;;1821.7
2021.0;1965.7;;;;;;;;;;;;;;;;;24.216438;60.61739;-123.332924;;1831.3
2021.0;1965.7;;;;;;;;;;;;;;0.9845271;-0.015503403;-0.1739555;;;;;1831.3
2021.0;1965.7;;;;;;;;;;;;;;;;;22.186956;56.7835;-124.95422;;1831.3
2021.0;1965.7;;;;;;;;;;;;;;0.93325603;-0.024842067;-0.20136112;;;;;1831.3
2021.0;1965.7;;;;;;;;;;;;;;;;;21.847439;50.645466;-124.988556;;1841.0
2021.0;1965.7;;;;;;;;;;;;;;0.90395826;-0.033875547;-0.17950988;;;;;1841.0
2021.0;1965.7;;;;;;;;;;;;;;;;;21.340069;39.19721;-124.988556;;1841.0
2021.0;1965.7;;;;;;;;;;;;;;0.91470075;-0.046449173;-0.2327952;;;;;1841.0
2021.0;1966.5;;;;;;;;;;;;;;;;;21.866512;33.68862;-124.988556;;1850.7
2021.0;1966.5;;;;;;;;;;;;;;0.87459946;-0.058290355;-0.22583698;;;;;1850.7
2021.0;1966.5;;;;;;;;;;;;;;;;;21.431623;24.456772;-124.988556;;1850.7
2021.0;1966.5;;;;;;;;;;;;;;0.86196476;-0.08026368;-0.21985534;;;;;1850.7
2021.0;1966.5;;;;;;;;;;;;;;;;;22.21366;8.472701;-124.988556;;1860.4
2021.0;1966.5;;;;;;;;;;;;;;0.9042024;-0.08581805;-0.2830897;;;;;1860.4
2021.0;1966.5;;;;;;;;;;;;;;;;;25.585955;-8.129368;-124.988556;;1860.4
2021.0;1966.5;;;;;;;;;;;;;;0.9449141;-0.13885921;-0.36317027;;;;;1860.4
2021.0;1966.5;;;;;;;;;;;;;;;;;29.225288;-21.179846;-124.988556;;1869.9
2021.0;1966.5;;;;;;;;;;;;;;1.000946;-0.17053743;-0.3864864;;;;;1869.9
2021.0;1966.5;;;;;;;;;;;;;;;;;28.580584;-30.823694;-124.988556;;1869.9
2021.0;1966.5;;;;;;;;;;;;;;1.1071504;-0.22461623;-0.3815424;;;;;1869.9
2022.0;1968.2;;;;;;;;;;7.4961085;85.18861;-35.2031;;;;;;;;;
2022.0;1968.2;;;;;;;0.32209235;-1.1222266;0.1739555;;;;;;;;;;;;
2022.0;1968.2;;;;;;;;;;8.610034;88.75164;-34.68047;;;;;;;;;
2022.0;1968.2;;;;;;;0.3227027;-1.1363262;0.16742454;;;;;;;;;;;;
2022.0;1970.0;;;;;;;;;;;;;12933;;;;;;;;
2022.0;1970.0;;;;;;;;;;;;;9497;;;;;;;;
2022.0;1970.0;;;;;;;;;;;;;6667;;;;;;;;
2022.0;1970.0;;;;;;;;;;;;;6062;;;;;;;;
2022.0;1970.0;;;;;;;;;;;;;6111;;;;;;;;
2022.0;1970.4;;;;;;;;;;;;;;;;;25.120548;-31.586658;-124.988556;;1879.6
2022.0;1970.4;;;;;;;;;;;;;;1.2911161;-0.2946257;-0.34266183;;;;;1879.6
2022.0;1970.4;;;;;;;;;;;;;;;;;23.770103;-18.528551;-124.95422;;1879.6
2022.0;1970.4;;;;;;;;;;;;;;1.5519272;-0.39551988;-0.26136053;;;;;1879.6
2022.0;1970.4;;;;;;;;;;;;;;;;;34.485916;-0.4997406;-124.71389;;1889.2
2022.0;1970.4;;;;;;;;;;;;;;1.8209784;-0.4878689;-0.13708915;;;;;1889.2
2022.0;1970.4;;;;;;;;;;;;;;;;;61.826683;-5.752739;-124.610886;;1889.2
2022.0;1970.4;;;;;;;;;;;;;;1.9409772;-0.52266;-0.115543075;;;;;1889.2
2022.0;1970.4;;;;;;;;;;;;;;;;;92.78008;-37.759026;-124.64141;;1898.9
2022.0;1970.4;;;;;;;;;;;;;;1.9343241;-0.45619068;-0.34205145;;;;;1898.9
2022.0;1970.4;;;;;;;;;;;;;;;;;112.41874;-69.47157;-124.16456;;1898.9
2022.0;1970.4;;;;;;;;;;;;;;1.8740196;-0.37598804;-0.60713524;;;;;1898.9
2022.0;1970.3;;;;-0.13909914;0.89485943;0.1124344;;;;;;;;;;;;;;;
2022.0;1970.3;;;;-0.13923265;0.9023744;0.11274339;;;;;;;;;;;;;;;
2022.0;1970.3;;;;-0.13938905;0.90973675;0.113403335;;;;;;;;;;;;;;;
2022.0;1970.3;;;;-0.1394539;0.9164964;0.1158867;;;;;;;;;;;;;;;
2022.0;1970.3;;;;-0.13949205;0.92286694;0.11870958;;;;;;;;;;;;;;;
2072.0;1977.6;;;;;;;;;;9.762108;92.13156;-34.06247;;;;;;;;;
2072.0;1977.6;;;;;;;0.3187353;-1.1468246;0.16510513;;;;;;;;;;;;
2072.0;1977.6;;;;;;;;;;10.9408865;94.843895;-33.524586;;;;;;;;;
2072.0;1977.6;;;;;;;0.31385234;-1.152562;0.15948974;;;;;;;;;;;;
2072.0;1980.4;;;;-0.13924791;0.9290582;0.12298204;;;;;;;;;;;;;;;
2072.0;1980.4;;;;-0.13868715;0.9354135;0.12679674;;;;;;;;;;;;;;;
2072.0;1980.4;;;;-0.13835146;0.9403039;0.13111497;;;;;;;;;;;;;;;
2072.0;1980.4;;;;-0.13776018;0.94575894;0.13520433;;;;;;;;;;;;;;;
2072.0;1980.4;;;;-0.13722993;0.9499856;0.13992693;;;;;;;;;;;;;;;
2072.0;1984.0;262143;262143;13163;;;;;;;;;;;;;;;;;;
2072.0;1987.2;;;;;;;;;;12.157811;96.88864;-33.13547;;;;;;;;;
2072.0;1987.2;;;;;;;0.30689412;-1.1563463;0.15552233;;;;;;;;;;;;
2072.0;1987.2;;;;;;;;;;13.496811;98.02164;-32.67388;;;;;;;;;
2072.0;1987.2;;;;;;;0.29963073;-1.1586047;0.1495407;;;;;;;;;;;;
2072.0;1990.4;;;;-0.13637544;0.9538537;0.14496996;;;;;;;;;;;;;;;
2072.0;1990.4;;;;-0.13549806;0.95697796;0.14939882;;;;;;;;;;;;;;;
2072.0;1990.4;;;;-0.1345215;0.95915234;0.15458299;;;;;;;;;;;;;;;
2072.0;1990.4;;;;-0.13354112;0.9604455;0.15998079;;;;;;;;;;;;;;;
2072.0;1990.4;;;;-0.1324959;0.9607507;0.1649933;;;;;;;;;;;;;;;
2072.0;1996.4;;;;;;;;;;14.812922;98.414566;-32.185585;;;;;;;;;
2072.0;1996.4;;;;;;;0.2882168;-1.1596423;0.1474044;;;;;;;;;;;;
2072.0;1996.4;;;;;;;;;;16.266367;98.41838;-31.609547;;;;;;;;;
2072.0;1996.4;;;;;;;0.27875605;-1.1601306;0.1403241;;;;;;;;;;;;
2074.0;2000.1;;;;-0.13131334;0.96068203;0.17006303;;;;;;;;;;;;;;;
2074.0;2000.1;;;;-0.13013841;0.9587976;0.17522813;;;;;;;;;;;;;;;
2074.0;2000.1;;;;-0.12877275;0.956318;0.17990877;;;;;;;;;;;;;;;
2074.0;2000.1;;;;-0.12733842;0.9530984;0.1847954;;;;;;;;;;;;;;;
2074.0;2000.1;;;;-0.12628557;0.9487039;0.18910602;;;;;;;;;;;;;;;
2074.0;2003.7;262143;262143;13156;;;;;;;;;;;;;;;;;;
2074.0;2006.0;;;;;;;;;;17.723623;98.03309;-31.281471;;;;;;;;;
2074.0;2006.0;;;;;;;0.2682577;-1.1583606;0.13751641;;;;;;;;;;;;
2074.0;2006.0;;;;;;;;;;18.990143;97.28156;-31.067842;;;;;;;;;
2074.0;2006.0;;;;;;;0.255562;-1.1570787;0.13159582;;;;;;;;;;;;
2074.0;2009.8;;;;;;;;;;;;;5919;;;;;;;;
2074.0;2009.8;;;;;;;;;;;;;5512;;;;;;;;
2074.0;2009.8;;;;;;;;;;;;;4741;;;;;;;;
2074.0;2009.8;;;;;;;;;;;;;4070;;;;;;;;
2074.0;2009.8;;;;;;;;;;;;;4046;;;;;;;;
2074.0;2010.2;;;;-0.1252556;0.9433404;0.1935158;;;;;;;;;;;;;;;
2074.0;2010.2;;;;-0.123554245;0.93784726;0.19810107;;;;;;;;;;;;;;;
2074.0;2010.2;;;;-0.12155153;0.93254864;0.20383838;;;;;;;;;;;;;;;
2074.0;2010.2;;;;-0.11948778;0.9276124;0.208725;;;;;;;;;;;;;;;
2074.0;2010.2;;;;-0.117755905;0.9234582;0.21458438;;;;;;;;;;;;;;;
2074.0;2015.6;;;;;;;;;;20.275734;96.22486;-30.850397;;;;;;;;;
2074.0;2015.6;;;;;;;0.24225593;-1.1532944;0.12689596;;;;;;;;;;;;
2074.0;2015.6;;;;;;;;;;21.668142;94.89731;-30.59099;;;;;;;;;
2074.0;2015.6;;;;;;;0.22815637;-1.1509751;0.12427137;;;;;;;;;;;;
2075.0;2020.3;;;;-0.11661531;0.91872036;0.21977237;;;;;;;;;;;;;;;
2075.0;2020.3;;;;-0.11605455;0.9142724;0.22371677;;;;;;;;;;;;;;;
2075.0;2020.3;;;;-0.11664201;0.90927136;0.22836688;;;;;;;;;;;;;;;
2075.0;2020.3;;;;-0.11810686;0.9039155;0.2323685;;;;;;;;;;;;;;;
2075.0;2020.3;;;;-0.11956026;0.8982202;0.23616031;;;;;;;;;;;;;;;
2075.0;2023.0;;;;;;;;;;;;;;;;;107.28019;-77.822205;-124.01578;;1908.5
2075.0;2023.0;;;;;;;;;;;;;;1.709708;-0.35987428;-0.7797479;;;;;1908.5
2075.0;2023.0;;;;;;;;;;;;;;;;;82.13675;-52.034058;-124.90082;;1908.5
2075.0;2023.0;;;;;;;;;;;;;;1.4422437;-0.3175756;-0.76418346;;;;;1908.5
2075.0;2023.0;;;;;;;;;;;;;;;;;44.270912;-7.98822;-124.988556;;1918.2
2075.0;2023.0;;;;;;;;;;;;;;1.2145146;-0.24897;-0.595172;;;;;1918.2
2075.0;2023.0;;;;;;;;;;;;;;;;;16.18244;24.212624;-124.988556;;1918.2
2075.0;2023.0;;;;;;;;;;;;;;1.1798456;-0.16705832;-0.26831874;;;;;1918.2
2075.0;2023.0;;;;;;;;;;;;;;;;;4.5396285;23.194067;-124.988556;;1927.6
2075.0;2023.0;;;;;;;;;;;;;;1.1619617;-0.17566454;-0.0629902;;;;;1927.6
2075.0;2023.0;;;;;;;;;;;;;;;;;8.308664;11.070589;-124.988556;;1927.6
2075.0;2023.0;;;;;;;;;;;;;;1.0691855;-0.13159582;-0.031373028;;;;;1927.6
2076.0;2023.7;;;;;;;;;;;;;;;;;14.839625;-0.32044435;-124.988556;;1937.3
2076.0;2023.7;;;;;;;;;;;;;;1.1482894;-0.08087405;-0.10559405;;;;;1937.3
2076.0;2023.7;;;;;;;;;;;;;;;;;18.677328;-6.5195165;-124.988556;;1937.3
2076.0;2023.7;;;;;;;;;;;;;;1.3195593;-0.11243019;-0.20795313;;;;;1937.3
2076.0;2023.7;;;;;;;;;;;;;;;;;18.658255;0.34333324;-124.988556;;1947.0
2076.0;2023.7;;;;;;;;;;;;;;1.264504;-0.1259804;-0.2327952;;;;;1947.0
2076.0;2023.7;;;;;;;;;;;;;;;;;8.453628;10.509811;-124.988556;;1947.0
2076.0;2023.7;;;;;;;;;;;;;;1.1371197;-0.11243019;-0.17798395;;;;;1947.0
2076.0;2023.7;;;;;;;;;;;;;;;;;2.1324809;8.617663;-124.988556;;1956.6
2076.0;2023.7;;;;;;;;;;;;;;1.1728263;-0.14300974;-0.15784173;;;;;1956.6
2076.0;2023.7;;;;;;;;;;;;;;;;;1.7509995;6.0121465;-124.85885;;1956.6
2076.0;2023.7;;;;;;;;;;;;;;1.1720328;-0.20777002;-0.20160528;;;;;1956.6
2076.0;2023.8;262143;262143;13149;;;;;;;;;;;;;;;;;;
2076.0;2025.0;;;;;;;;;;23.113956;93.272194;-30.38499;;;;;;;;;
2076.0;2025.0;;;;;;;0.21619312;-1.146092;0.1241493;;;;;;;;;;;;
2076.0;2025.0;;;;;;;;;;24.517809;91.30756;-30.339212;;;;;;;;;
2076.0;2025.0;;;;;;;0.20838039;-1.13773;0.120548114;;;;;;;;;;;;
2076.0;2030.2;;;;-0.120410934;0.8926431;0.24163821;;;;;;;;;;;;;;;
2076.0;2030.2;;;;-0.12171556;0.88759243;0.24699786;;;;;;;;;;;;;;;
2076.0;2030.2;;;;-0.123367324;0.8822938;0.2519875;;;;;;;;;;;;;;;
2076.0;2030.2;;;;-0.12544252;0.8773004;0.2569733;;;;;;;;;;;;;;;
2076.0;2030.2;;;;-0.12754823;0.8732034;0.26221088;;;;;;;;;;;;;;;
2133.0;2034.6;;;;;;;;;;25.791956;88.77071;-30.423138;;;;;;;;;
2133.0;2034.6;;;;;;;0.20227668;-1.1293069;0.12060915;;;;;;;;;;;;
2133.0;2034.6;;;;;;;;;;27.06992;85.61587;-30.62151;;;;;;;;;
2133.0;2034.6;;;;;;;0.19275491;-1.1192359;0.11816767;;;;;;;;;;;;
2133.0;2040.2;;;;-0.13031389;0.8688508;0.2670441;;;;;;;;;;;;;;;
2133.0;2040.2;;;;-0.13327028;0.8647691;0.271328;;;;;;;;;;;;;;;
2133.0;2040.2;;;;-0.13703538;0.861271;0.27533725;;;;;;;;;;;;;;;
2133.0;2040.2;;;;-0.14078905;0.85813916;0.2785416;;;;;;;;;;;;;;;
2133.0;2040.2;;;;-0.1455269;0.85502636;0.28211597;;;;;;;;;;;;;;;
2133.0;2044.1;;;;;;;;;;28.431807;81.91931;-30.78936;;;;;;;;;
2133.0;2044.1;;;;;;;0.18555254;-1.1080661;0.118533894;;;;;;;;;;;;
2133.0;2044.1;;;;;;;;;;29.644918;77.95572;-30.957212;;;;;;;;;
2133.0;2044.1;;;;;;;0.17957091;-1.0972015;0.117313154;;;;;;;;;;;;
2133.0;2043.9;262143;262143;13147;;;;;;;;;;;;;;;;;;
2133.0;2049.8;;;;;;;;;;;;;4422;;;;;;;;
2133.0;2049.8;;;;;;;;;;;;;4381;;;;;;;;
2133.0;2049.8;;;;;;;;;;;;;3677;;;;;;;;
2133.0;2049.8;;;;;;;;;;;;;2899;;;;;;;;
2133.0;2049.8;;;;;;;;;;;;;2583;;;;;;;;
2133.0;2050.2;;;;-0.15002443;0.852707;0.28447345;;;;;;;;;;;;;;;
2133.0;2050.2;;;;-0.15501787;0.8500062;0.28722766;;;;;;;;;;;;;;;
2133.0;2050.2;;;;-0.16055681;0.8478967;0.28982547;;;;;;;;;;;;;;;
2133.0;2050.2;;;;-0.16550447;0.8458482;0.29088596;;;;;;;;;;;;;;;
2133.0;2050.2;;;;-0.17061998;0.8429338;0.2925034;;;;;;;;;;;;;;;
2135.0;2053.5;;;;;;;;;;30.999176;73.8319;-31.262398;;;;;;;;;
2135.0;2053.5;;;;;;;0.1775567;-1.0870082;0.11841182;;;;;;;;;;;;
2135.0;2053.5;;;;;;;;;;32.19703;69.67757;-31.723991;;;;;;;;;
2135.0;2053.5;;;;;;;0.17749566;-1.07651;0.11780145;;;;;;;;;;;;
2135.0;2060.0;;;;-0.1773224;0.8405191;0.2934647;;;;;;;;;;;;;;;
2135.0;2060.0;;;;-0.1876755;0.84017956;0.2934914;;;;;;;;;;;;;;;
2135.0;2060.0;;;;-0.19776538;0.8406297;0.2919121;;;;;;;;;;;;;;;
2135.0;2060.0;;;;-0.19236758;0.8320695;0.29335025;;;;;;;;;;;;;;;
2135.0;2060.0;;;;-0.19683841;0.8235742;0.29330066;;;;;;;;;;;;;;;
2135.0;2063.0;;;;;;;;;;33.303326;65.48509;-32.35725;;;;;;;;;
2135.0;2063.0;;;;;;;0.1805475;-1.0687582;0.120303966;;;;;;;;;;;;
2135.0;2063.0;;;;;;;;;;34.485916;61.170536;-33.104954;;;;;;;;;
2135.0;2063.0;;;;;;;0.18164617;-1.0607014;0.12518692;;;;;;;;;;;;
2135.0;2063.8;262143;262143;13148;;;;;;;;;;;;;;;;;;
2135.0;2070.2;;;;-0.19692233;0.82323086;0.28942874;;;;;;;;;;;;;;;
2135.0;2070.2;;;;-0.20918277;0.82366955;0.29302981;;;;;;;;;;;;;;;
2135.0;2070.2;;;;-0.21133044;0.8240472;0.29122165;;;;;;;;;;;;;;;
2135.0;2070.2;;;;-0.21987918;0.8218957;0.28915408;;;;;;;;;;;;;;;
2135.0;2070.2;;;;-0.22910312;0.81894696;0.28698733;;;;;;;;;;;;;;;
2135.0;2072.6;;;;;;;;;;35.64562;56.855984;-33.982357;;;;;;;;;
2135.0;2072.6;;;;;;;0.18256173;-1.0532548;0.12768945;;;;;;;;;;;;
2135.0;2072.6;;;;;;;;;;36.946472;52.80084;-34.76821;;;;;;;;;
2135.0;2072.6;;;;;;;0.18341625;-1.0448316;0.13086337;;;;;;;;;;;;
2136.0;2080.3;;;;-0.23712543;0.8155633;0.28553012;;;;;;;;;;;;;;;
2136.0;2080.3;;;;-0.24444965;0.81320584;0.28359988;;;;;;;;;;;;;;;
2136.0;2080.3;;;;-0.24972156;0.8110086;0.28218082;;;;;;;;;;;;;;;
2136.0;2080.3;;;;-0.25340274;0.80799115;0.28116992;;;;;;;;;;;;;;;
2136.0;2080.3;;;;-0.25546268;0.80409634;0.2803307;;;;;;;;;;;;;;;
2136.0;2082.2;;;;;;;;;;38.151955;48.703728;-35.68758;;;;;;;;;
2136.0;2082.2;;;;;;;0.1848201;-1.0356761;0.13135166;;;;;;;;;;;;
2136.0;2082.2;;;;;;;;;;39.414654;44.85076;-36.606953;;;;;;;;;
2136.0;2082.2;;;;;;;0.18396558;-1.023896;0.13183996;;;;;;;;;;;;
2136.0;2082.8;;;;;;;;;;;;;;;;;-1.7891476;12.192145;-124.49263;;1966.3
2136.0;2082.8;;;;;;;;;;;;;;1.0874355;-0.25385296;-0.18311106;;;;;1966.3
2136.0;2082.8;;;;;;;;;;;;;;;;;-9.243294;17.349771;-123.06207;;1966.3
2136.0;2082.8;;;;;;;;;;;;;;1.0428785;-0.2553789;-0.1518601;;;;;1966.3
2136.0;2082.8;;;;;;;;;;;;;;;;;-14.591662;18.002106;-120.67018;;1975.9
2136.0;2082.8;;;;;;;;;;;;;;1.0367748;-0.24018067;-0.13385418;;;;;1975.9
2136.0;2082.8;;;;;;;;;;;;;;;;;-16.426588;16.624958;-115.22645;;1975.9
2136.0;2082.8;;;;;;;;;;;;;;1.0070498;-0.30951872;-0.13232826;;;;;1975.9
2136.0;2082.8;;;;;;;;;;;;;;;;;-16.28544;12.012849;-108.767975;;1985.6
2136.0;2082.8;;;;;;;;;;;;;;1.041902;-0.36280406;-0.14526811;;;;;1985.6
2136.0;2082.8;;;;;;;;;;;;;;;;;-15.67507;10.116886;-103.995636;;1985.6
2136.0;2082.8;;;;;;;;;;;;;;1.022126;-0.36365855;-0.15540025;;;;;1985.6
2138.0;2083.5;;;;;;;;;;;;;;;;;-17.502365;11.391033;-100.55467;;1995.2
2138.0;2083.5;;;;;;;;;;;;;;0.9660329;-0.38178656;-0.14203314;;;;;1995.2
2138.0;2083.5;;;;;;;;;;;;;;;;;-20.809809;9.147923;-92.45201;;1995.2
2138.0;2083.5;;;;;;;;;;;;;;0.9510178;-0.3780633;-0.11566515;;;;;1995.2
2138.0;2083.5;;;;;;;;;;;;;;;;;-24.983213;7.904294;-85.53575;;2004.8
2138.0;2083.5;;;;;;;;;;;;;;0.898648;-0.39039278;-0.12152471;;;;;2004.8
2138.0;2083.5;;;;;;;;;;;;;;;;;-27.886288;7.3587756;-81.38142;;2004.8
2138.0;2083.5;;;;;;;;;;;;;;0.87148654;-0.34730065;-0.10364086;;;;;2004.8
2138.0;2083.5;;;;;;;;;;;;;;;;;-30.007324;5.386517;-76.82272;;2014.4
2138.0;2083.5;;;;;;;;;;;;;;0.80898464;-0.34321114;-0.08581805;;;;;2014.4
2138.0;2083.5;;;;;;;;;;;;;;;;;-32.795956;3.051851;-73.53053;;2014.4
2138.0;2083.5;;;;;;;;;;;;;;0.773278;-0.28601947;-0.06671346;;;;;2014.4
2138.0;2084.0;262143;262143;13146;;;;;;;;;;;;;;;;;;
2138.0;2089.9;;;;;;;;;;;;;2864;;;;;;;;
2138.0;2089.9;;;;;;;;;;;;;3150;;;;;;;;
2138.0;2089.9;;;;;;;;;;;;;2894;;;;;;;;
2138.0;2089.9;;;;;;;;;;;;;2663;;;;;;;;
2138.0;2089.9;;;;;;;;;;;;;3039;;;;;;;;
2138.0;2090.2;;;;-0.25586703;0.80067456;0.27941516;;;;;;;;;;;;;;;
2138.0;2090.2;;;;-0.25490192;0.7980386;0.278183;;;;;;;;;;;;;;;
2138.0;2090.2;;;;-0.25179675;0.7952157;0.27640918;;;;;;;;;;;;;;;
2138.0;2090.2;;;;-0.24910358;0.79281247;0.27458575;;;;;;;;;;;;;;;
2138.0;2090.2;;;;-0.24721912;0.79006207;0.2723923;;;;;;;;;;;;;;;
2194.0;2091.7;;;;;;;;;;40.635395;41.119877;-37.69799;;;;;;;;;
2194.0;2091.7;;;;;;;0.18298899;-1.0108951;0.13019197;;;;;;;;;;;;
2194.0;2091.7;;;;;;;;;;41.840878;37.19062;-38.796658;;;;;;;;;
2194.0;2091.7;;;;;;;0.18335521;-0.9978942;0.12915434;;;;;;;;;;;;
2194.0;2098.0;;;;;;;;;;;;;;;;;-35.489212;0.9155553;-70.90975;;2024.1
2194.0;2098.0;;;;;;;;;;;;;;0.7671743;-0.25086215;-0.05383465;;;;;2024.1
2194.0;2098.0;;;;;;;;;;;;;;;;;-37.507248;-2.0142217;-67.835014;;2024.1
2194.0;2098.0;;;;;;;;;;;;;;0.76827294;-0.22553179;-0.061952576;;;;;2024.1
2194.0;2098.0;;;;;;;;;;;;;;;;;-38.953064;-3.3265176;-65.03494;;2033.7
2194.0;2098.0;;;;;;;;;;;;;;0.73085725;-0.21350749;-0.061769463;;;;;2033.7
2194.0;2098.0;;;;;;;;;;;;;;;;;-40.959656;-4.467147;-62.29209;;2033.7
2194.0;2098.0;;;;;;;;;;;;;;0.7112644;-0.20722067;-0.040650655;;;;;2033.7
2194.0;2098.0;;;;;;;;;;;;;;;;;-43.870358;-5.767998;-59.244057;;2043.3
2194.0;2098.0;;;;;;;;;;;;;;0.69569993;-0.1970275;-0.032593768;;;;;2043.3
2194.0;2098.0;;;;;;;;;;;;;;;;;-47.532578;-4.9439983;-56.051056;;2043.3
2194.0;2098.0;;;;;;;;;;;;;;0.65895563;-0.18207343;-0.0038453322;;;;;2043.3
2194.0;2100.1;;;;-0.24595645;0.7869035;0.27012256;;;;;;;;;;;;;;;
2194.0;2100.1;;;;-0.24605563;0.78370297;0.26671603;;;;;;;;;;;;;;;
2194.0;2100.1;;;;-0.24745944;0.7802392;0.26389697;;;;;;;;;;;;;;;
2194.0;2100.1;;;;-0.24959186;0.7769853;0.2616463;;;;;;;;;;;;;;;
2194.0;2100.1;;;;-0.25187686;0.77350247;0.2600365;;;;;;;;;;;;;;;
2194.0;2101.1;;;;;;;;;;42.870876;33.238472;-39.948727;;;;;;;;;
2194.0;2101.1;;;;;;;0.18060854;-0.98312324;0.1259804;;;;;;;;;;;;
2194.0;2101.1;;;;;;;;;;44.003876;29.25962;-41.15421;;;;;;;;;
2194.0;2101.1;;;;;;;0.17902158;-0.97054964;0.123111665;;;;;;;;;;;;
2197.0;2104.0;262143;262143;13145;;;;;;;;;;;;;;;;;;
2197.0;2110.1;;;;-0.2547455;0.76999676;0.25910953;;;;;;;;;;;;;;;
2197.0;2110.1;;;;-0.25699618;0.76620114;0.25940707;;;;;;;;;;;;;;;
2197.0;2110.1;;;;-0.25911716;0.763096;0.26117328;;;;;;;;;;;;;;;
2197.0;2110.1;;;;-0.2615395;0.75976956;0.26249316;;;;;;;;;;;;;;;
2197.0;2110.1;;;;-0.26340106;0.75633633;0.26391223;;;;;;;;;;;;;;;
2197.0;2110.5;;;;;;;;;;44.839317;25.37614;-42.432175;;;;;;;;;
2197.0;2110.5;;;;;;;0.17688528;-0.9560228;0.11792352;;;;;;;;;;;;
2197.0;2110.5;;;;;;;;;;45.602283;21.649069;-43.76736;;;;;;;;;
2197.0;2110.5;;;;;;;0.17780083;-0.9461348;0.11413923;;;;;;;;;;;;
2197.0;2119.8;;;;-0.26534274;0.75221646;0.26607516;;;;;;;;;;;;;;;
2197.0;2119.8;;;;-0.26737598;0.74729544;0.26806644;;;;;;;;;;;;;;;
2197.0;2119.8;;;;-0.26947787;0.7423478;0.27063373;;;;;;;;;;;;;;;
2197.0;2119.8;;;;-0.27148822;0.7369614;0.2730637;;;;;;;;;;;;;;;
2197.0;2119.8;;;;-0.27429584;0.7315636;0.27536395;;;;;;;;;;;;;;;
2197.0;2119.9;;;;;;;;;;46.277504;18.253883;-45.24369;;;;;;;;;
2197.0;2119.9;;;;;;;0.18213446;-0.93655205;0.10687582;;;;;;;;;;;;
2197.0;2119.9;;;;;;;;;;46.796318;15.018921;-46.617023;;;;;;;;;
2197.0;2119.9;;;;;;;0.18659016;-0.92916656;0.10229804;;;;;;;;;;;;
2197.0;2123.8;262143;262143;13142;;;;;;;;;;;;;;;;;;
2200.0;2129.5;;;;;;;;;;47.14728;12.104404;-47.982727;;;;;;;;;
2200.0;2129.5;;;;;;;0.19190039;-0.91909546;0.098025456;;;;;;;;;;;;
2200.0;2129.5;;;;;;;;;;47.5631;9.323405;-49.214912;;;;;;;;;
2200.0;2129.5;;;;;;;0.19592883;-0.911771;0.09241005;;;;;;;;;;;;
2200.0;2129.8;;;;;;;;;;;;;3835;;;;;;;;
2200.0;2129.8;;;;;;;;;;;;;4489;;;;;;;;
2200.0;2129.8;;;;;;;;;;;;;4772;;;;;;;;
2200.0;2129.8;;;;;;;;;;;;;5138;;;;;;;;
2200.0;2129.8;;;;;;;;;;;;;5814;;;;;;;;
2200.0;2130.0;;;;-0.28102496;0.72757727;0.27692035;;;;;;;;;;;;;;;
2200.0;2130.0;;;;-0.2822304;0.7280312;0.27285007;;;;;;;;;;;;;;;
2200.0;2130.0;;;;-0.28085712;0.71236044;0.28166965;;;;;;;;;;;;;;;
2200.0;2130.0;;;;-0.28148654;0.701603;0.28757098;;;;;;;;;;;;;;;
2200.0;2130.0;;;;-0.28328326;0.69795233;0.28722003;;;;;;;;;;;;;;;
2200.0;2139.2;;;;;;;;;;47.872097;6.85522;-50.45091;;;;;;;;;
2200.0;2139.2;;;;;;;0.20252083;-0.9053621;0.086794645;;;;;;;;;;;;
2200.0;2139.2;;;;;;;;;;48.192543;4.623554;-51.652576;;;;;;;;;
2200.0;2139.2;;;;;;;0.20569475;-0.90194404;0.0844142;;;;;;;;;;;;
2200.0;2140.1;;;;-0.28587344;0.69759756;0.28703693;;;;;;;;;;;;;;;
2200.0;2140.1;;;;-0.2890053;0.69591147;0.28904727;;;;;;;;;;;;;;;
2200.0;2140.1;;;;-0.29328158;0.6903725;0.29247668;;;;;;;;;;;;;;;
2200.0;2140.1;;;;-0.30006412;0.6858025;0.29392245;;;;;;;;;;;;;;;
2200.0;2140.1;;;;-0.3054085;0.68154913;0.29597476;;;;;;;;;;;;;;;
2201.0;2142.5;;;;;;;;;;;;;;;;;-52.15613;-5.283517;-52.09128;;2053.0
2201.0;2142.5;;;;;;;;;;;;;;0.6516923;-0.15771966;0.015442366;;;;;2053.0
2201.0;2142.5;;;;;;;;;;;;;;;;;-58.111057;-5.157628;-47.566914;;2053.0
2201.0;2142.5;;;;;;;;;;;;;;0.6405225;-0.14001893;0.017578661;;;;;2053.0
2201.0;2142.5;;;;;;;;;;;;;;;;;-63.859985;-4.100925;-42.577137;;2062.7
2201.0;2142.5;;;;;;;;;;;;;;0.6020081;-0.12537004;0.021423994;;;;;2062.7
2201.0;2142.5;;;;;;;;;;;;;;;;;-67.075874;-4.4518876;-37.47673;;2062.7
2201.0;2142.5;;;;;;;;;;;;;;0.54536575;-0.119876705;-0.006714072;;;;;2062.7
2201.0;2142.5;;;;;;;;;;;;;;;;;-67.22846;-6.103702;-32.05588;;2072.4
2201.0;2142.5;;;;;;;;;;;;;;0.48329112;-0.14551225;-0.06445509;;;;;2072.4
2201.0;2142.5;;;;;;;;;;;;;;;;;-66.896576;-6.557665;-26.806696;;2072.4
2201.0;2142.5;;;;;;;;;;;;;;0.41975158;-0.17011017;-0.08764916;;;;;2072.4
2201.0;2143.9;262143;262143;13149;;;;;;;;;;;;;;;;;;
2201.0;2148.6;;;;;;;;;;48.39091;2.906888;-52.751244;;;;;;;;;
2201.0;2148.6;;;;;;;0.2106998;-0.89889216;0.0806299;;;;;;;;;;;;
2201.0;2148.6;;;;;;;;;;48.54732;1.4992218;-53.868984;;;;;;;;;
2201.0;2148.6;;;;;;;0.21295816;-0.89455855;0.076540425;;;;;;;;;;;;
2201.0;2150.0;;;;-0.30931857;0.6786843;0.29996875;;;;;;;;;;;;;;;
2201.0;2150.0;;;;-0.30959323;0.67685705;0.30313876;;;;;;;;;;;;;;;
2201.0;2150.0;;;;-0.3020287;0.67550284;0.30293277;;;;;;;;;;;;;;;
2201.0;2150.0;;;;-0.30770114;0.67042166;0.3107567;;;;;;;;;;;;;;;
2201.0;2150.0;;;;-0.3136597;0.66603094;0.3193436;;;;;;;;;;;;;;;
2202.0;2157.6;;;;;;;;;;;;;;;;;-68.18979;-5.752739;-21.004364;;2082.0
2202.0;2157.6;;;;;;;;;;;;;;0.36988434;-0.21423994;-0.0865505;;;;;2082.0
2202.0;2157.6;;;;;;;;;;;;;;;;;-69.65468;-3.2425916;-15.274514;;2082.0
2202.0;2157.6;;;;;;;;;;;;;;0.3051851;-0.26734215;-0.0794702;;;;;2082.0
2202.0;2157.6;;;;;;;;;;;;;;;;;-69.929344;-1.411481;-9.788812;;2091.7
2202.0;2157.6;;;;;;;;;;;;;;0.24115726;-0.30414745;-0.07904294;;;;;2091.7
2202.0;2157.6;;;;;;;;;;;;;;;;;-68.277534;-1.5717032;-4.2611465;;2091.7
2202.0;2157.6;;;;;;;;;;;;;;0.2047792;-0.31202126;-0.09430219;;;;;2091.7
2202.0;2157.6;;;;;;;;;;;;;;;;;-64.63439;-0.7438887;0.8354442;;2101.4
2202.0;2157.6;;;;;;;;;;;;;;0.16705832;-0.31690422;-0.10199286;;;;;2101.4
2202.0;2157.6;;;;;;;;;;;;;;;;;-57.73339;0.7095553;5.7031465;;2101.4
2202.0;2157.6;;;;;;;;;;;;;;0.12555315;-0.31830806;-0.11792352;;;;;2101.4
2202.0;2158.0;;;;;;;;;;48.57021;0.5760369;-54.93713;;;;;;;;;
2202.0;2158.0;;;;;;;0.21802424;-0.89242226;0.074892424;;;;;;;;;;;;
2202.0;2158.0;;;;;;;;;;48.524433;-0.03051851;-55.92898;;;;;;;;;
2202.0;2158.0;;;;;;;0.22260201;-0.8955962;0.072878204;;;;;;;;;;;;
2202.0;2159.9;;;;-0.31795123;0.66922385;0.3206978;;;;;;;;;;;;;;;
2202.0;2159.9;;;;-0.3070412;0.6658631;0.32223895;;;;;;;;;;;;;;;
2202.0;2159.9;;;;-0.2965813;0.66114813;0.32296374;;;;;;;;;;;;;;;
2202.0;2159.9;;;;-0.29109958;0.6565476;0.3246422;;;;;;;;;;;;;;;
2202.0;2159.9;;;;-0.29069903;0.6566735;0.33243564;;;;;;;;;;;;;;;
2202.0;2164.0;262143;262143;13153;;;;;;;;;;;;;;;;;;
2252.0;2167.7;;;;;;;;;;48.471024;-0.40055543;-56.92465;;;;;;;;;
2252.0;2167.7;;;;;;;0.22602008;-0.8966338;0.06964324;;;;;;;;;;;;
2252.0;2167.7;;;;;;;;;;48.432877;-0.3929258;-57.775352;;;;;;;;;
2252.0;2167.7;;;;;;;0.22608112;-0.89938045;0.067873165;;;;;;;;;;;;
2252.0;2169.9;;;;;;;;;;;;;6343;;;;;;;;
2252.0;2169.9;;;;;;;;;;;;;6305;;;;;;;;
2252.0;2169.9;;;;;;;;;;;;;5869;;;;;;;;
2252.0;2169.9;;;;;;;;;;;;;5511;;;;;;;;
2252.0;2169.9;;;;;;;;;;;;;5418;;;;;;;;
2252.0;2170.0;;;;-0.2874184;0.65876395;0.33278278;;;;;;;;;;;;;;;
2252.0;2170.0;;;;-0.28872302;0.65744406;0.331646;;;;;;;;;;;;;;;
2252.0;2170.0;;;;-0.29433444;0.6554032;0.33217242;;;;;;;;;;;;;;;
2252.0;2170.0;;;;-0.2983246;0.6529885;0.33315662;;;;;;;;;;;;;;;
2252.0;2170.0;;;;-0.30186847;0.64999014;0.33428958;;;;;;;;;;;;;;;
2252.0;2176.8;;;;;;;;;;48.417618;-0.14496292;-58.549763;;;;;;;;;
2252.0;2176.8;;;;;;;0.22943816;-0.9010895;0.061281167;;;;;;;;;;;;
2252.0;2176.8;;;;;;;;;;48.150578;0.2784814;-59.240242;;;;;;;;;
2252.0;2176.8;;;;;;;0.22962126;-0.90157783;0.059266947;;;;;;;;;;;;
2252.0;2179.7;;;;-0.30401233;0.6484223;0.33514026;;;;;;;;;;;;;;;
2252.0;2179.7;;;;-0.3072739;0.6473389;0.33571628;;;;;;;;;;;;;;;
2252.0;2179.7;;;;-0.30886462;0.64744955;0.33674243;;;;;;;;;;;;;;;
2252.0;2179.7;;;;-0.30975345;0.6457749;0.3383713;;;;;;;;;;;;;;;
2252.0;2179.7;;;;-0.31008914;0.64539725;0.33882144;;;;;;;;;;;;;;;
2252.0;2183.8;262143;262143;13146;;;;;;;;;;;;;;;;;;
2255.0;2186.4;;;;;;;;;;47.864468;0.84688866;-59.778133;;;;;;;;;
2255.0;2186.4;;;;;;;0.23310037;-0.906888;0.056154057;;;;;;;;;;;;
2255.0;2186.4;;;;;;;;;;47.51732;1.6708884;-60.289314;;;;;;;;;
2255.0;2186.4;;;;;;;0.23224586;-0.91152686;0.053773616;;;;;;;;;;;;
2255.0;2189.8;;;;-0.30622867;0.643261;0.33768848;;;;;;;;;;;;;;;
2255.0;2189.8;;;;-0.30121234;0.64044577;0.33420184;;;;;;;;;;;;;;;
2255.0;2189.8;;;;-0.29778293;0.63875586;0.33176807;;;;;;;;;;;;;;;
2255.0;2189.8;;;;-0.29351428;0.6384583;0.32735828;;;;;;;;;;;;;;;
2255.0;2189.8;;;;-0.2919083;0.6390267;0.32084277;;;;;;;;;;;;;;;
2255.0;2196.1;;;;;;;;;;47.08243;2.6779993;-60.68987;;;;;;;;;
2255.0;2196.1;;;;;;;0.23108615;-0.9161046;0.052308727;;;;;;;;;;;;
2255.0;2196.1;;;;;;;;;;46.62084;3.7270732;-61.02176;;;;;;;;;
2255.0;2196.1;;;;;;;0.23108615;-0.923307;0.051087987;;;;;;;;;;;;
2255.0;2199.9;;;;-0.296402;0.6409722;0.31335452;;;;;;;;;;;;;;;
2255.0;2199.9;;;;-0.30686954;0.6436768;0.30624774;;;;;;;;;;;;;;;
2255.0;2199.9;;;;-0.3204842;0.645176;0.30103686;;;;;;;;;;;;;;;
2255.0;2199.9;;;;-0.3373032;0.6461106;0.297596;;;;;;;;;;;;;;;
2255.0;2199.9;;;;-0.3544388;0.64794546;0.29355243;;;;;;;;;;;;;;;
2256.0;2202.5;;;;;;;;;;;;;;;;;-47.647022;-0.28992584;10.380108;;2110.9
2256.0;2202.5;;;;;;;;;;;;;;0.08343761;-0.3322245;-0.12323374;;;;;2110.9
2256.0;2202.5;;;;;;;;;;;;;;;;;-34.51262;-4.3107395;15.194403;;2110.9
2256.0;2202.5;;;;;;;;;;;;;;0.061525315;-0.32880643;-0.13794367;;;;;2110.9
2256.0;2202.5;;;;;;;;;;;;;;;;;-20.195623;-7.362591;20.237587;;2120.4
2256.0;2202.5;;;;;;;;;;;;;;0.025757622;-0.30591753;-0.14423047;;;;;2120.4
2256.0;2202.5;;;;;;;;;;;;;;;;;-4.333628;-12.157811;26.482437;;2120.4
2256.0;2202.5;;;;;;;;;;;;;;0.019348735;-0.29047516;-0.13861507;;;;;2120.4
2256.0;2202.5;;;;;;;;;;;;;;;;;11.101108;-22.51503;33.970913;;2130.0
2256.0;2202.5;;;;;;;;;;;;;;0.063966796;-0.25849178;-0.13837092;;;;;2130.0
2256.0;2202.5;;;;;;;;;;;;;;;;;23.205511;-32.658623;41.93625;;2130.0
2256.0;2202.5;;;;;;;;;;;;;;0.100833155;-0.23224586;-0.12512589;;;;;2130.0
2256.0;2203.9;262143;262143;13145;;;;;;;;;;;;;;;;;;
2256.0;2205.6;;;;;;;;;;46.11347;4.795221;-61.178165;;;;;;;;;
2256.0;2205.6;;;;;;;0.22766808;-0.92825097;0.049867246;;;;;;;;;;;;
2256.0;2205.6;;;;;;;;;;45.571762;6.069369;-61.304054;;;;;;;;;
2256.0;2205.6;;;;;;;0.22815637;-0.9352092;0.04876858;;;;;;;;;;;;
2256.0;2209.7;;;;;;;;;;;;;5641;;;;;;;;
2256.0;2209.7;;;;;;;;;;;;;6177;;;;;;;;
2256.0;2209.7;;;;;;;;;;;;;6724;;;;;;;;
2256.0;2209.7;;;;;;;;;;;;;6981;;;;;;;;
2256.0;2209.7;;;;;;;;;;;;;6865;;;;;;;;
2259.0;2209.8;;;;-0.3718529;0.650158;0.29246143;;;;;;;;;;;;;;;
2259.0;2209.8;;;;-0.38846594;0.6531449;0.29187396;;;;;;;;;;;;;;;
2259.0;2209.8;;;;-0.40511328;0.6552544;0.29312518;;;;;;;;;;;;;;;
2259.0;2209.8;;;;-0.42213064;0.6591721;0.29494098;;;;;;;;;;;;;;;
2259.0;2209.8;;;;-0.4385987;0.6646691;0.29638675;;;;;;;;;;;;;;;
2259.0;2215.1;;;;;;;;;;45.010986;7.4465165;-61.273537;;;;;;;;;
2259.0;2215.1;;;;;;;0.22894986;-0.9392987;0.051026948;;;;;;;;;;;;
2259.0;2215.1;;;;;;;;;;44.415874;8.9991455;-61.113316;;;;;;;;;
2259.0;2215.1;;;;;;;0.22815637;-0.9433271;0.052125614;;;;;;;;;;;;
2259.0;2217.9;;;;;;;;;;;;;;;;;31.85751;-39.48332;49.20347;;2139.7
2259.0;2217.9;;;;;;;;;;;;;;0.12903225;-0.20996734;-0.09320353;;;;;2139.7
2259.0;2217.9;;;;;;;;;;;;;;;;;37.35084;-45.03006;55.15839;;2139.7
2259.0;2217.9;;;;;;;;;;;;;;0.16888943;-0.18176824;-0.057618946;;;;;2139.7
2259.0;2217.9;;;;;;;;;;;;;;;;;37.392803;-46.697136;59.057133;;2149.4
2259.0;2217.9;;;;;;;;;;;;;;0.23432112;-0.14899136;-0.0020752586;;;;;2149.4
2259.0;2217.9;;;;;;;;;;;;;;;;;31.609547;-42.39784;61.490982;;2149.4
2259.0;2217.9;;;;;;;;;;;;;;0.31867427;-0.116641745;0.08978546;;;;;2149.4
2259.0;2217.9;;;;;;;;;;;;;;;;;20.527512;-32.326733;63.188576;;2159.0
2259.0;2217.9;;;;;;;;;;;;;;0.41029084;-0.08551286;0.19672231;;;;;2159.0
2259.0;2217.9;;;;;;;;;;;;;;;;;5.489517;-17.81518;64.22239;;2159.0
2259.0;2217.9;;;;;;;;;;;;;;0.51203954;-0.037171546;0.30286568;;;;;2159.0
2370.0;2219.7;;;;-0.459549;0.67164236;0.29898074;;;;;;;;;;;;;;;
2370.0;2219.7;;;;-0.48273093;0.67776877;0.29893497;;;;;;;;;;;;;;;
2370.0;2219.7;;;;-0.5076142;0.6828347;0.2989693;;;;;;;;;;;;;;;
2370.0;2219.7;;;;-0.5202752;0.68334967;0.30103686;;;;;;;;;;;;;;;
2370.0;2219.7;;;;-0.5330544;0.68238074;0.30326083;;;;;;;;;;;;;;;
2370.0;2223.9;262143;262143;13146;;;;;;;;;;;;;;;;;;
2370.0;2224.6;;;;;;;;;;43.794064;10.5822935;-60.899685;;;;;;;;;
2370.0;2224.6;;;;;;;0.22742394;-0.9454634;0.055360578;;;;;;;;;;;;
2370.0;2224.6;;;;;;;;;;43.286694;12.253182;-60.518204;;;;;;;;;
2370.0;2224.6;;;;;;;0.22589801;-0.9471114;0.05963317;;;;;;;;;;;;
2370.0;2229.7;;;;-0.5437241;0.68822867;0.30442432;;;;;;;;;;;;;;;
2370.0;2229.7;;;;-0.5525399;0.6956597;0.30564883;;;;;;;;;;;;;;;
2370.0;2229.7;;;;-0.55943304;0.7019349;0.30645373;;;;;;;;;;;;;;;
2370.0;2229.7;;;;-0.5638619;0.7080422;0.30627826;;;;;;;;;;;;;;;
2370.0;2229.7;;;;-0.56452566;0.71565634;0.30448917;;;;;;;;;;;;;;;
2370.0;2234.0;;;;;;;;;;42.752617;14.084292;-60.06424;;;;;;;;;
2370.0;2234.0;;;;;;;0.22516556;-0.94845426;0.062440872;;;;;;;;;;;;
2370.0;2234.0;;;;;;;;;;42.188026;15.942106;-59.52254;;;;;;;;;
2370.0;2234.0;;;;;;;0.22479934;-0.9485153;0.06573687;;;;;;;;;;;;
2374.0;2239.8;;;;-0.55984885;0.72596365;0.3028336;;;;;;;;;;;;;;;
2374.0;2239.8;;;;-0.5504723;0.7389336;0.30044177;;;;;;;;;;;;;;;
2374.0;2239.8;;;;-0.5349007;0.7543832;0.29659656;;;;;;;;;;;;;;;
2374.0;2239.8;;;;-0.5145493;0.7718507;0.2924042;;;;;;;;;;;;;;;
2374.0;2239.8;;;;-0.49188238;0.7901193;0.28615192;;;;;;;;;;;;;;;
2374.0;2243.6;;;;;;;;;;41.54332;17.78466;-58.908356;;;;;;;;;
2374.0;2243.6;;;;;;;0.22486039;-0.9510178;0.070192575;;;;;;;;;;;;
2374.0;2243.6;;;;;;;;;;40.913876;19.596697;-58.214058;;;;;;;;;
2374.0;2243.6;;;;;;;0.22174749;-0.9542528;0.071535386;;;;;;;;;;;;
2374.0;2244.0;262143;262143;13138;;;;;;;;;;;;;;;;;;
2374.0;2249.9;;;;-0.4668389;0.8096086;0.27970126;;;;;;;;;;;;;;;
2374.0;2249.9;;;;-0.44102484;0.82921994;0.2718239;;;;;;;;;;;;;;;
2374.0;2249.9;;;;-0.41424948;0.84978116;0.26427844;;;;;;;;;;;;;;;
2374.0;2249.9;;;;-0.3881188;0.86922467;0.25535586;;;;;;;;;;;;;;;
2374.0;2249.9;;;;-0.3621483;0.8885728;0.24761203;;;;;;;;;;;;;;;
2374.0;2250.0;;;;;;;;;;;;;6754;;;;;;;;
2374.0;2250.0;;;;;;;;;;;;;7001;;;;;;;;
2374.0;2250.0;;;;;;;;;;;;;7303;;;;;;;;
2374.0;2250.0;;;;;;;;;;;;;7323;;;;;;;;
2374.0;2250.0;;;;;;;;;;;;;7152;;;;;;;;
2374.0;2253.3;;;;;;;;;;40.29206;21.362957;-57.428204;;;;;;;;;
2374.0;2253.3;;;;;;;0.22156438;-0.9584033;0.07312235;;;;;;;;;;;;
2374.0;2253.3;;;;;;;;;;39.66643;23.110142;-56.653797;;;;;;;;;
2374.0;2253.3;;;;;;;0.22095402;-0.9684744;0.078005314;;;;;;;;;;;;
2377.0;2260.0;;;;-0.3363228;0.9077264;0.24094775;;;;;;;;;;;;;;;
2377.0;2260.0;;;;-0.31118777;0.92606366;0.23476794;;;;;;;;;;;;;;;
2377.0;2260.0;;;;-0.28753284;0.94355404;0.22958758;;;;;;;;;;;;;;;
2377.0;2260.0;;;;-0.2647095;0.9606477;0.22386554;;;;;;;;;;;;;;;
2377.0;2260.0;;;;-0.24364093;0.97634137;0.21943668;;;;;;;;;;;;;;;
2377.0;2262.7;;;;;;;;;;;;;;;;;-9.796441;-2.2583697;64.497055;;2168.6
2377.0;2262.7;;;;;;;;;;;;;;0.59633166;0.007873775;0.37256998;;;;;2168.6
2377.0;2262.7;;;;;;;;;;;;;;;;;-22.675253;10.124516;63.798943;;2168.6
2377.0;2262.7;;;;;;;;;;;;;;0.6700644;0.06390576;0.40205085;;;;;2168.6
2377.0;2262.7;;;;;;;;;;;;;;;;;-31.56377;17.796106;63.169502;;2178.3
2377.0;2262.7;;;;;;;;;;;;;;0.71535385;0.09778131;0.3805048;;;;;2178.3
2377.0;2262.7;;;;;;;;;;;;;;;;;-35.2031;20.878475;62.18146;;2178.3
2377.0;2262.7;;;;;;;;;;;;;;0.78328806;0.14697714;0.29627368;;;;;2178.3
2377.0;2262.7;;;;;;;;;;;;;;;;;-33.66192;20.386364;61.017944;;2187.9
2377.0;2262.7;;;;;;;;;;;;;;0.83980834;0.18909268;0.17981505;;;;;2187.9
2377.0;2262.7;;;;;;;;;;;;;;;;;-26.284067;17.399364;59.94598;;2187.9
2377.0;2262.7;;;;;;;;;;;;;;0.90084535;0.22650838;0.068544574;;;;;2187.9
2377.0;2262.8;;;;;;;;;;39.094208;24.815363;-55.70772;;;;;;;;;
2377.0;2262.8;;;;;;;0.21955016;-0.9774468;0.08185064;;;;;;;;;;;;
2377.0;2262.8;;;;;;;;;;38.480026;26.257362;-54.670097;;;;;;;;;
2377.0;2262.8;;;;;;;0.21851254;-0.99002045;0.08215583;;;;;;;;;;;;
2377.0;2264.2;262143;262143;13161;;;;;;;;;;;;;;;;;;
2378.0;2270.0;;;;-0.2248688;0.99009335;0.2155495;;;;;;;;;;;;;;;
2378.0;2270.0;;;;-0.20780566;1.003399;0.21295932;;;;;;;;;;;;;;;
2378.0;2270.0;;;;-0.19228747;1.015484;0.21075442;;;;;;;;;;;;;;;
2378.0;2270.0;;;;-0.17901231;1.0258104;0.20959094;;;;;;;;;;;;;;;
2378.0;2270.0;;;;-0.16729738;1.0345231;0.20923617;;;;;;;;;;;;;;;
2378.0;2272.4;;;;;;;;;;37.884914;27.394176;-53.44554;;;;;;;;;
2378.0;2272.4;;;;;;;0.21704765;-0.99880975;0.07910398;;;;;;;;;;;;
