patientId;holterMac;flexMac;;;;;;;;;;;;;;;;;;;;
;CA:F3:0B:1E:33:78;D3:4A:5C:52:80:78;;;;;;;;;;;;;;;;;;;;
receivedTimeStamp;timeStamp;red;ir;green;adxl_accX;adxl_accY;adxl_accZ;lsm_accelX;lsm_accelY;lsm_accelZ;lsm_gyroX;lsm_gyroY;lsm_gyroZ;ecg;flex_lsm_accelX;flex_lsm_accelY;flex_lsm_accelZ;flex_lsm_gyroX;flex_lsm_gyroY;flex_lsm_gyroZ;flex_cmd;flexTimeStamp
289.0;212.9;;;;;;;;;;;;;;;;;;;;17;0.1
289.0;212.9;;;;;;;;;;;;;;;;;13.554033;0.8659627;0.03051851;;127.8
289.0;212.9;;;;;;;;;;;;;;-1.0976287;-0.39515367;-0.2763146;;;;;127.8
289.0;212.9;;;;;;;;;;;;;;;;;-4.737999;-17.757957;-7.698294;;127.8
289.0;212.9;;;;;;;;;;;;;;-1.1395001;-0.38264108;-0.2602008;;;;;127.8
289.0;212.9;;;;;;;;;;;;;;;;;-61.761833;-85.4442;-62.80709;;137.4
289.0;212.9;;;;;;;;;;;;;;-1.1396832;-0.3533433;-0.21063875;;;;;137.4
289.0;212.9;;;;;;;;;;;;;;;;;-121.76122;-124.988556;-120.86474;;137.4
289.0;212.9;;;;;;;;;;;;;;-1.1255226;-0.32917264;-0.18060854;;;;;137.4
350.0;213.7;;;;;;;;;;;;;;;;;-45.03769;-124.988556;-86.35594;;147.0
350.0;213.7;;;;;;;;;;;;;;-1.106296;-0.29407635;-0.17047639;;;;;147.0
350.0;213.7;;;;;;;;;;;;;;;;;43.359173;-124.988556;-55.162205;;147.0
350.0;213.7;;;;;;;;;;;;;;-1.0807215;-0.2614826;-0.17493209;;;;;147.0
350.0;213.7;;;;;;;;;;;;;;;;;50.138096;-109.340195;-58.553577;;156.7
350.0;213.7;;;;;;;;;;;;;;-1.0707114;-0.22199164;-0.17975402;;;;;156.7
350.0;213.7;;;;;;;;;;;;;;;;;47.78817;-55.654316;-42.48558;;156.7
350.0;213.7;;;;;;;;;;;;;;-1.0489212;-0.20355846;-0.19055757;;;;;156.7
350.0;213.7;;;;;;;;;;;;;;;;;46.929836;-51.736504;-46.784874;;166.3
350.0;213.7;;;;;;;;;;;;;;-1.0310373;-0.18768883;-0.18964201;;;;;166.3
350.0;213.7;;;;;;;;;;;;;;;;;46.17069;-52.67113;-52.9458;;166.3
350.0;213.7;;;;;;;;;;;;;;-1.0127872;-0.19006927;-0.17865536;;;;;166.3
350.0;273.3;;;;;;;;;;;;;;;;;45.564133;-53.70495;-58.435318;;176.0
350.0;273.3;;;;;;;;;;;;;;-0.99166846;-0.20032349;-0.18561357;;;;;176.0
350.0;273.3;;;;;;;;;;;;;;;;;46.338543;-55.478832;-63.951538;;176.0
350.0;273.3;;;;;;;;;;;;;;-0.96646017;-0.21149327;-0.2024598;;;;;176.0
350.0;273.3;;;;;;;;;;;;;;;;;48.78384;-57.927948;-68.77346;;185.6
350.0;273.3;;;;;;;;;;;;;;-0.9314249;-0.19165625;-0.2174749;;;;;185.6
350.0;273.3;;;;;;;;;;;;;;;;;51.221504;-59.942165;-73.435165;;185.6
350.0;273.3;;;;;;;;;;;;;;-0.89028597;-0.13843197;-0.2245552;;;;;185.6
350.0;273.3;;;;;;;;;;;;;;;;;52.28965;-60.197758;-78.93993;;195.3
350.0;273.3;;;;;;;;;;;;;;-0.8411512;-0.080141604;-0.22443312;;;;;195.3
350.0;273.3;;;;;;;;;;;;;;;;;51.862392;-58.01187;-84.2349;;195.3
350.0;273.3;;;;;;;;;;;;;;-0.821192;-0.03234962;-0.20960112;;;;;195.3
414.0;274.1;;;;;;;;;;;;;;;;;49.672688;-54.177986;-89.44593;;204.9
414.0;274.1;;;;;;;;;;;;;;-0.8084353;-0.0145268105;-0.19287698;;;;;204.9
414.0;274.1;;;;;;;;;;;;;;;;;46.3271;-48.54732;-93.85204;;204.9
414.0;274.1;;;;;;;;;;;;;;-0.83870965;-0.010742515;-0.17108676;;;;;204.9
414.0;274.1;;;;;;;;;;;;;;;;;41.96295;-42.100285;-98.151344;;214.6
414.0;274.1;;;;;;;;;;;;;;-0.9022492;-0.0253914;-0.1396527;;;;;214.6
414.0;274.1;;;;;;;;;;;;;;;;;37.743767;-36.847286;-101.45116;;214.6
414.0;274.1;;;;;;;;;;;;;;-0.9806818;-0.04687643;-0.112308115;;;;;214.6
414.0;274.1;;;;;;;;;;;;;;;;;32.6014;-32.528915;-104.606;;224.3
414.0;274.1;;;;;;;;;;;;;;-1.0625935;-0.07348857;-0.114322335;;;;;224.3
414.0;274.1;;;;;;;;;;;;;;;;;28.34788;-28.706472;-106.933044;;224.3
414.0;274.1;;;;;;;;;;;;;;-1.1401715;-0.081667535;-0.11841182;;;;;224.3
414.0;341.2;;;;;;;;;;;;;;;;;24.36903;-24.819178;-108.07749;;233.9
414.0;341.2;;;;;;;;;;;;;;-1.2311167;-0.09796441;-0.13672292;;;;;233.9
414.0;341.2;;;;;;;;;;;;;;;;;20.420698;-21.061586;-108.84427;;233.9
414.0;341.2;;;;;;;;;;;;;;-1.3203528;-0.09967345;-0.16046633;;;;;233.9
414.0;341.2;;;;;;;;;;;;;;;;;15.602588;-17.597734;-109.61104;;243.5
414.0;341.2;;;;;;;;;;;;;;-1.4025086;-0.100833155;-0.1892758;;;;;243.5
414.0;341.2;;;;;;;;;;;;;;;;;10.54796;-15.331736;-110.2443;;243.5
414.0;341.2;;;;;;;;;;;;;;-1.475692;-0.089602344;-0.21552171;;;;;243.5
414.0;341.2;;;;;;;;;;;;;;;;;5.142369;-14.511552;-110.66011;;253.2
414.0;341.2;;;;;;;;;;;;;;-1.5199438;-0.07281716;-0.23493148;;;;;253.2
414.0;341.2;;;;;;;;;;;;;;;;;0.37385175;-14.637441;-110.99582;;253.2
414.0;341.2;;;;;;;;;;;;;;-1.5289162;-0.053773616;-0.24390393;;;;;253.2
473.0;342.4;;;;;;;;;;;;;;;;;-3.4638507;-15.526292;-110.86611;;262.8
473.0;342.4;;;;;;;;;;;;;;-1.5110935;-0.041627247;-0.25086215;;;;;262.8
473.0;342.4;;;;;;;;;;;;;;;;;-6.44322;-16.468552;-110.23667;;262.8
473.0;342.4;;;;;;;;;;;;;;-1.477462;-0.029969176;-0.24671163;;;;;262.8
473.0;342.4;;;;;;;;;;;;;;;;;-8.747368;-17.31544;-109.2906;;272.5
473.0;342.4;;;;;;;;;;;;;;-1.4291208;-0.020630512;-0.21491134;;;;;272.5
473.0;342.4;;;;;;;;;;;;;;;;;-11.154515;-17.921995;-109.2143;;272.5
473.0;342.4;;;;;;;;;;;;;;-1.3638722;-0.01043733;-0.18457595;;;;;272.5
473.0;342.4;;;;;;;;;;;;;;;;;-13.172552;-17.365032;-109.126564;;282.2
473.0;342.4;;;;;;;;;;;;;;-1.3159581;-0.0110477;-0.13110752;;;;;282.2
473.0;342.4;;;;;;;;;;;;;;;;;-15.46144;-16.838589;-109.13419;;282.2
473.0;342.4;;;;;;;;;;;;;;-1.2449111;-0.008239998;-0.1010773;;;;;282.2
473.0;394.0;;;;;;;;;;;;;;;;;-17.342142;-15.476699;-108.87097;;291.8
473.0;394.0;;;;;;;;;;;;;;-1.1963866;-0.036744285;-0.08087405;;;;;291.8
473.0;394.0;;;;;;;;;;;;;;;;;-18.417921;-13.2793665;-107.86005;;291.8
473.0;394.0;;;;;;;;;;;;;;-1.1581774;-0.083254494;-0.08996857;;;;;291.8
473.0;394.0;;;;;;;;;;;;;;;;;-18.63155;-10.307627;-107.02841;;301.5
473.0;394.0;;;;;;;;;;;;;;-1.1234474;-0.11346782;-0.10522782;;;;;301.5
473.0;394.0;;;;;;;;;;;;;;;;;-18.837551;-7.461776;-106.46382;;301.5
473.0;394.0;;;;;;;;;;;;;;-1.0929289;-0.116641745;-0.11102634;;;;;301.5
473.0;394.0;;;;;;;;;;;;;;;;;-18.887142;-5.11948;-105.8649;;311.1
473.0;394.0;;;;;;;;;;;;;;-1.0565507;-0.1604053;-0.115421005;;;;;311.1
473.0;394.0;;;;;;;;;;;;;;;;;-18.356884;-2.4071476;-105.04089;;311.1
473.0;394.0;;;;;;;;;;;;;;-1.0381176;-0.16296884;-0.119754635;;;;;311.1
535.0;394.8;;;;;;;;;;;;;;;;;-18.44081;-0.015259255;-105.239265;;320.8
535.0;394.8;;;;;;;;;;;;;;-1.0268258;-0.17188025;-0.11224708;;;;;320.8
535.0;394.8;;;;;;;;;;;;;;;;;-18.555254;0.553148;-104.960785;;320.8
535.0;394.8;;;;;;;;;;;;;;-1.0112003;-0.20697653;-0.13373211;;;;;320.8
535.0;394.8;;;;;;;;;;;;;;;;;-17.899105;0.77822196;-104.48393;;330.4
535.0;394.8;;;;;;;;;;;;;;-0.99923706;-0.2111881;-0.14123966;;;;;330.4
535.0;394.8;;;;;;;;;;;;;;;;;-17.242958;1.3428144;-104.12916;;330.4
535.0;394.8;;;;;;;;;;;;;;-0.9939268;-0.20471816;-0.1347087;;;;;330.4
535.0;394.8;;;;;;;;;;;;;;;;;-16.781366;2.1248512;-103.71334;;340.1
535.0;394.8;;;;;;;;;;;;;;-0.99288917;-0.20844142;-0.14221625;;;;;340.1
535.0;394.8;;;;;;;;;;;;;;;;;-16.209145;2.9335918;-103.003784;;340.1
535.0;394.8;;;;;;;;;;;;;;-1.0075991;-0.19873653;-0.14612262;;;;;340.1
535.0;454.2;;;;;;;;;;;;;;;;;-15.892513;3.212073;-102.34382;;349.7
535.0;454.2;;;;;;;;;;;;;;-0.9964293;-0.19153416;-0.15228736;;;;;349.7
535.0;454.2;;;;;;;;;;;;;;;;;-14.561144;3.5325174;-100.802635;;349.7
535.0;454.2;;;;;;;;;;;;;;-0.9873959;-0.22974335;-0.15295877;;;;;349.7
535.0;454.2;;;;;;;;;;;;;;;;;-12.359997;4.1962953;-98.822754;;359.4
535.0;454.2;;;;;;;;;;;;;;-0.9693289;-0.23157445;-0.15625477;;;;;359.4
535.0;454.2;;;;;;;;;;;;;;;;;-10.082552;5.546739;-97.17475;;359.4
535.0;454.2;;;;;;;;;;;;;;-0.9568163;-0.22650838;-0.1612598;;;;;359.4
535.0;454.2;;;;;;;;;;;;;;;;;-7.7669606;6.3325906;-95.26734;;369.0
535.0;454.2;;;;;;;;;;;;;;-0.94717246;-0.21857357;-0.16968292;;;;;369.0
535.0;454.2;;;;;;;;;;;;;;;;;-5.035554;6.660665;-93.02423;;369.0
535.0;454.2;;;;;;;;;;;;;;-0.9409467;-0.28223518;-0.17371136;;;;;369.0
589.0;455.4;;;;;;;;;;;;;;;;;-0.96133304;7.5380716;-90.25849;;378.6
589.0;455.4;;;;;;;;;;;;;;-0.93527025;-0.30890834;-0.19080172;;;;;378.6
589.0;455.4;;;;;;;;;;;;;;;;;3.6660361;8.938108;-87.969604;;378.6
589.0;455.4;;;;;;;;;;;;;;-0.94894254;-0.32343516;-0.16492203;;;;;378.6
589.0;455.4;;;;;;;;;;;;;;;;;7.7517014;8.571886;-85.867645;;388.3
589.0;455.4;;;;;;;;;;;;;;-0.9311808;-0.3289285;-0.1530198;;;;;388.3
589.0;455.4;;;;;;;;;;;;;;;;;11.539811;8.976256;-83.903015;;388.3
589.0;455.4;;;;;;;;;;;;;;-0.9190344;-0.3399762;-0.14911343;;;;;388.3
589.0;455.4;;;;;;;;;;;;;;;;;15.560625;10.418256;-82.8196;;398.0
589.0;455.4;;;;;;;;;;;;;;-0.9025544;-0.3299051;-0.13080233;;;;;398.0
589.0;455.4;;;;;;;;;;;;;;;;;18.791773;11.505478;-82.44957;;398.0
589.0;455.4;;;;;;;;;;;;;;-0.95724356;-0.2929777;-0.13544114;;;;;398.0
589.0;514.6;;;;;;;;;;;;;;;;;19.737844;12.18833;-78.787346;;407.6
589.0;514.6;;;;;;;;;;;;;;-0.9965514;-0.30317086;-0.15912351;;;;;407.6
589.0;514.6;;;;;;;;;;;;;;;;;23.129215;10.956145;-76.05595;;407.6
589.0;514.6;;;;;;;;;;;;;;-0.9452803;-0.3109836;-0.11780145;;;;;407.6
589.0;514.6;;;;;;;;;;;;;;;;;27.432323;11.867886;-73.54579;;417.3
589.0;514.6;;;;;;;;;;;;;;-0.9450362;-0.30359814;-0.09454634;;;;;417.3
589.0;514.6;;;;;;;;;;;;;;;;;32.250435;13.286996;-69.51735;;417.3
589.0;514.6;;;;;;;;;;;;;;-0.95706046;-0.31232643;-0.08209479;;;;;417.3
589.0;514.6;;;;;;;;;;;;;;;;;37.701805;13.977477;-65.37828;;427.0
589.0;514.6;;;;;;;;;;;;;;-0.9748222;-0.31678212;-0.057252724;;;;;427.0
589.0;514.6;;;;;;;;;;;;;;;;;43.225655;13.370922;-61.80761;;427.0
589.0;514.6;;;;;;;;;;;;;;-0.9681082;-0.31830806;-0.03418073;;;;;427.0
649.0;515.4;;;;;;;;;;;;;;;;;48.471024;12.123478;-58.57265;;436.5
649.0;515.4;;;;;;;;;;;;;;-0.9569994;-0.3119602;-0.0048219245;;;;;436.5
649.0;515.4;;;;;;;;;;;;;;;;;52.823727;10.536515;-55.391094;;436.5
649.0;515.4;;;;;;;;;;;;;;-0.9443648;-0.3046968;-3.662221E-4;;;;;436.5
649.0;515.4;;;;;;;;;;;;;;;;;56.752983;9.0487385;-52.61391;;446.2
649.0;515.4;;;;;;;;;;;;;;-0.93057036;-0.30292672;0.013367107;;;;;446.2
649.0;515.4;;;;;;;;;;;;;;;;;59.171577;7.194739;-50.2678;;446.2
649.0;515.4;;;;;;;;;;;;;;-0.9175695;-0.29358807;0.019165624;;;;;446.2
649.0;515.4;;;;;;;;;;;;;;;;;60.052795;5.0050354;-48.413803;;455.9
649.0;515.4;;;;;;;;;;;;;;-0.89278847;-0.27826777;0.02069155;;;;;455.9
649.0;515.4;;;;;;;;;;;;;;;;;59.59502;3.4714804;-47.34947;;455.9
649.0;515.4;;;;;;;;;;;;;;-0.8710593;-0.27112645;0.02435377;;;;;455.9
649.0;529.5;;;;;;;;;;;;;;;;;58.202614;1.6937773;-46.483505;;465.5
649.0;529.5;;;;;;;;;;;;;;-0.84127325;-0.25629443;0.01391644;;;;;465.5
649.0;529.5;;;;;;;;;;;;;;;;;55.31098;1.0147405;-45.754875;;465.5
649.0;529.5;;;;;;;;;;;;;;-0.82381666;-0.23566394;-0.00695822;;;;;465.5
649.0;529.5;;;;;;;;;;;;;;;;;50.576797;1.5221107;-44.774467;;475.2
649.0;529.5;;;;;;;;;;;;;;-0.8135014;-0.19727165;-0.03662221;;;;;475.2
649.0;529.5;;;;;;;;;;;;;;;;;44.46165;2.2621846;-43.336285;;475.2
649.0;529.5;;;;;;;;;;;;;;-0.819422;-0.15784173;-0.062623985;;;;;475.2
649.0;529.5;;;;;;;;;;;;;;;;;37.701805;2.7924435;-41.524246;;484.7
649.0;529.5;;;;;;;;;;;;;;-0.8261971;-0.1314127;-0.08020265;;;;;484.7
649.0;529.5;;;;;;;;;;;;;;;;;30.884731;3.5096285;-39.29258;;484.7
649.0;529.5;;;;;;;;;;;;;;-0.83205664;-0.11810663;-0.09418012;;;;;484.7
715.0;582.3;;;;;;;;;;;;;;;;;25.124363;3.9902954;-37.339397;;494.1
715.0;582.3;;;;;;;;;;;;;;-0.8398694;-0.112979524;-0.09186071;;;;;494.1
715.0;582.3;;;;;;;;;;;;;;;;;19.917141;3.8338878;-35.515915;;494.1
715.0;582.3;;;;;;;;;;;;;;-0.84054077;-0.100405894;-0.08819849;;;;;494.1
715.0;582.3;;;;;;;;;;;;;;;;;15.083773;3.563036;-33.825954;;503.7
715.0;582.3;;;;;;;;;;;;;;-0.8401135;-0.106387526;-0.08404797;;;;;503.7
715.0;582.3;;;;;;;;;;;;;;;;;10.551775;3.1853695;-32.185585;;503.7
715.0;582.3;;;;;;;;;;;;;;-0.83693963;-0.11883908;-0.07562487;;;;;503.7
715.0;582.3;;;;;;;;;;;;;;;;;5.8061466;2.7695546;-30.579546;;513.3
715.0;582.3;;;;;;;;;;;;;;-0.8328501;-0.1314127;-0.06939909;;;;;513.3
715.0;582.3;;;;;;;;;;;;;;;;;1.064333;2.5978882;-29.026918;;513.3
715.0;582.3;;;;;;;;;;;;;;-0.82790613;-0.15814692;-0.06372265;;;;;513.3
715.0;590.1;;;;;;;;;;;;;;;;;-3.1357768;2.2164068;-27.478102;;522.9
715.0;590.1;;;;;;;;;;;;;;-0.8159429;-0.19006927;-0.0590228;;;;;522.9
715.0;590.1;;;;;;;;;;;;;;;;;-7.045961;2.212592;-25.875881;;522.9
715.0;590.1;;;;;;;;;;;;;;-0.80886257;-0.21478927;-0.058107242;;;;;522.9
715.0;590.1;;;;;;;;;;;;;;;;;-10.448774;2.0828884;-24.033327;;532.6
715.0;590.1;;;;;;;;;;;;;;-0.7991577;-0.25739312;-0.057863094;;;;;532.6
715.0;590.1;;;;;;;;;;;;;;;;;-12.977996;1.9722588;-22.11066;;532.6
715.0;590.1;;;;;;;;;;;;;;-0.7943968;-0.28614154;-0.05426191;;;;;532.6
715.0;590.1;;;;;;;;;;;;;;;;;-15.1104765;1.7357402;-20.298624;;542.1
715.0;590.1;;;;;;;;;;;;;;-0.7802362;-0.31531724;-0.051942505;;;;;542.1
715.0;590.1;;;;;;;;;;;;;;;;;-16.781366;1.53737;-18.436995;;542.1
715.0;590.1;;;;;;;;;;;;;;-0.768395;-0.33936584;-0.049134802;;;;;542.1
773.0;635.1;;;;;;;;;;;;;;;;;-18.070772;1.4076662;-16.655478;;551.8
773.0;635.1;;;;;;;;;;;;;;-0.75624865;-0.3678091;-0.040101323;;;;;551.8
773.0;635.1;;;;;;;;;;;;;;;;;-19.135107;1.4458144;-14.679403;;551.8
773.0;635.1;;;;;;;;;;;;;;-0.7538072;-0.39728996;-0.030823695;;;;;551.8
773.0;635.1;;;;;;;;;;;;;;;;;-19.276255;1.1787775;-12.49733;;561.4
773.0;635.1;;;;;;;;;;;;;;-0.7472152;-0.4196295;-0.022827845;;;;;561.4
773.0;635.1;;;;;;;;;;;;;;;;;-19.077885;0.82018495;-10.303812;;561.4
773.0;635.1;;;;;;;;;;;;;;-0.73641163;-0.43110445;-0.013122959;;;;;561.4
773.0;635.1;;;;;;;;;;;;;;;;;-18.63918;0.34714803;-8.247627;;571.0
773.0;635.1;;;;;;;;;;;;;;-0.7298807;-0.46040222;-9.155553E-4;;;;;571.0
773.0;635.1;;;;;;;;;;;;;;;;;-17.288734;-0.4196295;-5.733665;;571.0
773.0;635.1;;;;;;;;;;;;;;-0.7228004;-0.49568164;0.0112308115;;;;;571.0
773.0;650.2;;;;;;;;;;;;;;;;;-15.102847;-1.3771478;-2.9221473;;580.7
773.0;650.2;;;;;;;;;;;;;;-0.70906705;-0.52290416;0.01495407;;;;;580.7
773.0;650.2;;;;;;;;;;;;;;;;;-12.096774;-2.334666;-0.12207404;;580.7
773.0;650.2;;;;;;;;;;;;;;-0.69771415;-0.5364544;0.022156438;;;;;580.7
773.0;650.2;;;;;;;;;;;;;;;;;-8.785516;-3.3722954;2.4910734;;590.4
773.0;650.2;;;;;;;;;;;;;;-0.67860955;-0.54084903;0.022766808;;;;;590.4
773.0;650.2;;;;;;;;;;;;;;;;;-5.4780726;-3.9178138;5.1271095;;590.4
773.0;650.2;;;;;;;;;;;;;;-0.66389966;-0.5437788;0.015625477;;;;;590.4
773.0;650.2;;;;;;;;;;;;;;;;;-2.010407;-4.1581473;7.6067386;;600.0
773.0;650.2;;;;;;;;;;;;;;-0.64571065;-0.5381024;0.0036622211;;;;;600.0
773.0;650.2;;;;;;;;;;;;;;;;;1.22837;-3.9254432;10.280923;;600.0
773.0;650.2;;;;;;;;;;;;;;-0.6283151;-0.52650535;-0.0075075533;;;;;600.0
833.0;695.5;;;;;;;;;;;;;;;;;4.154332;-3.322703;12.80633;;609.6
833.0;695.5;;;;;;;;;;;;;;-0.6053041;-0.5113071;-0.014648885;;;;;609.6
833.0;695.5;;;;;;;;;;;;;;;;;6.698813;-2.2888882;15.24781;;609.6
833.0;695.5;;;;;;;;;;;;;;-0.58143866;-0.48780787;-0.019409772;;;;;609.6
833.0;695.5;;;;;;;;;;;;;;;;;8.571886;-0.8507035;17.620625;;619.2
833.0;695.5;;;;;;;;;;;;;;-0.5658742;-0.46510208;-0.019714957;;;;;619.2
833.0;695.5;;;;;;;;;;;;;;;;;9.762108;0.65233314;19.882809;;619.2
833.0;695.5;;;;;;;;;;;;;;-0.5555589;-0.4445326;-0.015259255;;;;;619.2
833.0;695.5;;;;;;;;;;;;;;;;;10.24659;2.2431104;22.221289;;628.9
833.0;695.5;;;;;;;;;;;;;;-0.5411542;-0.43043306;-0.01330607;;;;;628.9
833.0;695.5;;;;;;;;;;;;;;;;;10.292367;4.20774;24.704735;;628.9
833.0;695.5;;;;;;;;;;;;;;-0.5350505;-0.41743216;-0.01574755;;;;;628.9
833.0;703.3;;;;;;;;;;;;;;;;;9.743034;5.5200357;27.367474;;638.6
833.0;703.3;;;;;;;;;;;;;;-0.52803123;-0.4064455;-0.02764977;;;;;638.6
833.0;703.3;;;;;;;;;;;;;;;;;8.697775;6.3783684;29.995878;;638.6
833.0;703.3;;;;;;;;;;;;;;-0.51796013;-0.39558092;-0.040040284;;;;;638.6
833.0;703.3;;;;;;;;;;;;;;;;;7.461776;7.160405;32.471695;;648.3
833.0;703.3;;;;;;;;;;;;;;-0.511063;-0.38117617;-0.04669332;;;;;648.3
833.0;703.3;;;;;;;;;;;;;;;;;5.432295;7.942442;34.588913;;648.3
833.0;703.3;;;;;;;;;;;;;;-0.49470505;-0.36976227;-0.06482132;;;;;648.3
833.0;703.3;;;;;;;;;;;;;;;;;3.215888;9.155553;36.523026;;657.9
833.0;703.3;;;;;;;;;;;;;;-0.4822535;-0.35950804;-0.08740501;;;;;657.9
833.0;703.3;;;;;;;;;;;;;;;;;0.7057405;10.704368;38.38084;;657.9
833.0;703.3;;;;;;;;;;;;;;-0.4771264;-0.35102388;-0.106631674;;;;;657.9
888.0;756.2;;;;;;;;;;;;;;;;;-2.090518;12.058626;40.246284;;667.4
888.0;756.2;;;;;;;;;;;;;;-0.48152104;-0.34369946;-0.115543075;;;;;667.4
888.0;756.2;;;;;;;;;;;;;;;;;-5.413221;12.840663;41.65395;;667.4
888.0;756.2;;;;;;;;;;;;;;-0.47572252;-0.3361919;-0.12903225;;;;;667.4
888.0;756.2;;;;;;;;;;;;;;;;;-9.163182;13.988921;42.622913;;677.1
888.0;756.2;;;;;;;;;;;;;;-0.46882534;-0.33246863;-0.13989685;;;;;677.1
888.0;756.2;;;;;;;;;;;;;;;;;-12.562181;15.125736;43.588062;;677.1
888.0;756.2;;;;;;;;;;;;;;-0.4746849;-0.3289285;-0.13391522;;;;;677.1
888.0;756.2;;;;;;;;;;;;;;;;;-15.511032;15.945921;44.69054;;686.8
888.0;756.2;;;;;;;;;;;;;;-0.4760277;-0.33014923;-0.13165686;;;;;686.8
888.0;756.2;;;;;;;;;;;;;;;;;-17.445143;16.70507;45.899837;;686.8
888.0;756.2;;;;;;;;;;;;;;-0.4824366;-0.3312479;-0.12524797;;;;;686.8
888.0;763.3;;;;;;;;;;;;;;;;;-18.24244;17.19718;47.166355;;696.5
888.0;763.3;;;;;;;;;;;;;;-0.48847926;-0.33216345;-0.119876705;;;;;696.5
888.0;763.3;;;;;;;;;;;;;;;;;-17.838068;17.517624;48.68084;;696.5
888.0;763.3;;;;;;;;;;;;;;-0.5017243;-0.3317362;-0.11328471;;;;;696.5
888.0;763.3;;;;;;;;;;;;;;;;;-16.235847;17.849512;50.30976;;706.2
888.0;763.3;;;;;;;;;;;;;;-0.5103305;-0.33906063;-0.10693686;;;;;706.2
888.0;763.3;;;;;;;;;;;;;;;;;-13.267922;18.246254;52.186653;;706.2
888.0;763.3;;;;;;;;;;;;;;-0.5218665;-0.33576465;-0.09228797;;;;;706.2
888.0;763.3;;;;;;;;;;;;;;;;;-9.613331;18.257698;54.49843;;715.8
888.0;763.3;;;;;;;;;;;;;;-0.5465255;-0.3491928;-0.06781213;;;;;715.8
888.0;763.3;;;;;;;;;;;;;;;;;-5.5619984;17.883846;56.867428;;715.8
888.0;763.3;;;;;;;;;;;;;;-0.57020783;-0.36664936;-0.055238504;;;;;715.8
950.0;816.2;;;;;;;;;;;;;;;;;-1.0147405;17.120884;59.339428;;725.4
950.0;816.2;;;;;;;;;;;;;;-0.5868099;-0.38550982;-0.050355542;;;;;725.4
950.0;816.2;;;;;;;;;;;;;;;;;3.5782952;16.624958;62.08228;;725.4
950.0;816.2;;;;;;;;;;;;;;-0.6164739;-0.40382093;-0.039796136;;;;;725.4
950.0;816.2;;;;;;;;;;;;;;;;;7.648701;16.056551;64.439835;;735.1
950.0;816.2;;;;;;;;;;;;;;-0.6460158;-0.4189581;-0.039246805;;;;;735.1
950.0;816.2;;;;;;;;;;;;;;;;;11.333811;14.996032;66.48839;;735.1
950.0;816.2;;;;;;;;;;;;;;-0.66536456;-0.43317974;-0.03112888;;;;;735.1
950.0;816.2;;;;;;;;;;;;;;;;;14.229255;14.568773;68.08679;;744.7
950.0;816.2;;;;;;;;;;;;;;-0.6913663;-0.4466689;-0.018982513;;;;;744.7
950.0;816.2;;;;;;;;;;;;;;;;;16.655478;14.210181;69.357124;;744.7
950.0;816.2;;;;;;;;;;;;;;-0.7144383;-0.46388134;-0.012207404;;;;;744.7
950.0;823.7;;;;;;;;;;;;;;;;;18.917662;14.469588;70.48631;;754.4
950.0;823.7;;;;;;;;;;;;;;-0.7460555;-0.4730369;4.2725913E-4;;;;;754.4
950.0;823.7;;;;;;;;;;;;;;;;;20.733513;14.435255;71.48198;;754.4
950.0;823.7;;;;;;;;;;;;;;-0.7747429;-0.48536637;0.013611255;;;;;754.4
950.0;823.7;;;;;;;;;;;;;;;;;22.129734;14.5039215;72.38991;;764.1
950.0;823.7;;;;;;;;;;;;;;-0.81136507;-0.49452192;0.02722251;;;;;764.1
950.0;823.7;;;;;;;;;;;;;;;;;23.155918;14.767144;73.34742;;764.1
950.0;823.7;;;;;;;;;;;;;;-0.85366374;-0.50038147;0.053346355;;;;;764.1
950.0;823.7;;;;;;;;;;;;;;;;;22.60277;14.839625;73.69457;;773.7
950.0;823.7;;;;;;;;;;;;;;-0.88015383;-0.50398266;0.054994356;;;;;773.7
950.0;823.7;;;;;;;;;;;;;;;;;20.9624;15.308847;73.53816;;773.7
950.0;823.7;;;;;;;;;;;;;;-0.9001129;-0.50148016;0.039429914;;;;;773.7
1010.0;877.2;;;;;;;;;;;;;;;;;19.096958;16.003143;72.85912;;783.3
1010.0;877.2;;;;;;;;;;;;;;-0.9358806;-0.5033723;0.038331248;;;;;783.3
1010.0;877.2;;;;;;;;;;;;;;;;;16.857662;15.774254;71.73376;;783.3
1010.0;877.2;;;;;;;;;;;;;;-0.97238076;-0.5053255;0.03442488;;;;;783.3
1010.0;877.2;;;;;;;;;;;;;;;;;14.065218;14.74044;70.15823;;793.0
1010.0;877.2;;;;;;;;;;;;;;-1.0063784;-0.5074618;0.030579546;;;;;793.0
1010.0;877.2;;;;;;;;;;;;;;;;;10.723441;13.4891815;67.95327;;793.0
1010.0;877.2;;;;;;;;;;;;;;-1.0215766;-0.50972015;0.01147496;;;;;793.0
1010.0;877.2;;;;;;;;;;;;;;;;;6.4394054;13.073366;65.27909;;802.5
1010.0;877.2;;;;;;;;;;;;;;-1.0451369;-0.49598682;0.009643849;;;;;802.5
1010.0;877.2;;;;;;;;;;;;;;;;;1.4038514;12.279885;61.819054;;802.5
1010.0;877.2;;;;;;;;;;;;;;-1.0665609;-0.47114474;0.011169774;;;;;802.5
1010.0;878.0;;;;;;;;;;;;;;;;;-3.5248878;11.2384405;58.194984;;812.1
1010.0;878.0;;;;;;;;;;;;;;-1.0965301;-0.44441053;0.021729179;;;;;812.1
1010.0;878.0;;;;;;;;;;;;;;;;;-8.224739;9.628591;54.509876;;812.1
1010.0;878.0;;;;;;;;;;;;;;-1.1144139;-0.41926327;0.032654807;;;;;812.1
1010.0;878.0;;;;;;;;;;;;;;;;;-12.730033;8.198035;50.6798;;821.8
1010.0;878.0;;;;;;;;;;;;;;-1.1210059;-0.3922239;0.040406507;;;;;821.8
1010.0;878.0;;;;;;;;;;;;;;;;;-17.723623;6.6682944;46.220284;;821.8
1010.0;878.0;;;;;;;;;;;;;;-1.1182592;-0.36121708;0.042298656;;;;;821.8
1010.0;878.0;;;;;;;;;;;;;;;;;-23.388622;4.753258;40.890987;;831.4
1010.0;878.0;;;;;;;;;;;;;;-1.0968353;-0.32966095;0.0496231;;;;;831.4
1010.0;878.0;;;;;;;;;;;;;;;;;-29.725029;3.2464066;35.157322;;831.4
1010.0;878.0;;;;;;;;;;;;;;-1.0781579;-0.2949919;0.03851436;;;;;831.4
1073.0;937.0;;;;;;;;;;;;;;;;;-36.091953;2.1820734;29.255806;;841.0
1073.0;937.0;;;;;;;;;;;;;;-1.058504;-0.25745416;0.03790399;;;;;841.0
1073.0;937.0;;;;;;;;;;;;;;;;;-43.404953;2.0790737;23.64803;;841.0
1073.0;937.0;;;;;;;;;;;;;;-1.019013;-0.23303933;0.029053621;;;;;841.0
1073.0;937.0;;;;;;;;;;;;;;;;;-50.843838;2.7008882;18.669699;;850.6
1073.0;937.0;;;;;;;;;;;;;;-1.0000305;-0.2146672;0.044801172;;;;;850.6
1073.0;937.0;;;;;;;;;;;;;;;;;-58.40861;3.5515916;14.477218;;850.6
1073.0;937.0;;;;;;;;;;;;;;-0.9688406;-0.18445387;0.0672628;;;;;850.6
1073.0;937.0;;;;;;;;;;;;;;;;;-67.23991;5.989258;11.246071;;860.2
1073.0;937.0;;;;;;;;;;;;;;-0.9245277;-0.17926572;0.02764977;;;;;860.2
1073.0;937.0;;;;;;;;;;;;;;;;;-75.43413;8.819849;8.426924;;860.2
1073.0;937.0;;;;;;;;;;;;;;-0.8646504;-0.16974396;-0.009460738;;;;;860.2
1073.0;937.8;;;;;;;;;;;;;;;;;-80.07675;13.008514;6.55385;;869.8
1073.0;937.8;;;;;;;;;;;;;;-0.8445082;-0.15338603;0.06103702;;;;;869.8
1073.0;937.8;;;;;;;;;;;;;;;;;-84.5706;17.262032;5.649739;;869.8
1073.0;937.8;;;;;;;;;;;;;;-0.83602405;-0.15405744;0.13672292;;;;;869.8
1073.0;937.8;;;;;;;;;;;;;;;;;-89.09497;21.706291;5.2911468;;879.5
1073.0;937.8;;;;;;;;;;;;;;-0.8429823;-0.14331493;0.18817712;;;;;879.5
1073.0;937.8;;;;;;;;;;;;;;;;;-91.86071;29.801325;6.2982574;;879.5
1073.0;937.8;;;;;;;;;;;;;;-0.92501605;-0.11316264;0.08807642;;;;;879.5
1073.0;937.8;;;;;;;;;;;;;;;;;-86.50853;44.392986;12.405774;;889.1
1073.0;937.8;;;;;;;;;;;;;;-1.1924192;-0.09784234;-0.038209174;;;;;889.1
1073.0;937.8;;;;;;;;;;;;;;;;;-77.494125;51.931057;22.560808;;889.1
1073.0;937.8;;;;;;;;;;;;;;-1.5420393;-0.18811609;-0.10052797;;;;;889.1
1134.0;997.7;;;;;;;;;;;;;;;;;-76.49083;41.15421;28.019806;;898.8
1134.0;997.7;;;;;;;;;;;;;;-1.6712546;-0.30298775;-0.21179846;;;;;898.8
1134.0;997.7;;;;;;;;;;;;;;;;;-79.24894;23.380993;25.425734;;898.8
1134.0;997.7;;;;;;;;;;;;;;-1.5964843;-0.34089175;-0.27881712;;;;;898.8
1134.0;997.7;;;;;;;;;;;;;;;;;-82.354195;8.785516;20.096437;;908.4
1134.0;997.7;;;;;;;;;;;;;;-1.3500168;-0.31708732;-0.41645557;;;;;908.4
1134.0;997.7;;;;;;;;;;;;;;;;;-72.37464;8.831293;17.208624;;908.4
1134.0;997.7;;;;;;;;;;;;;;-1.2918485;-0.23914304;-0.28370008;;;;;908.4
1134.0;997.7;;;;;;;;;;;;;;;;;-60.361794;14.698478;15.057069;;918.0
1134.0;997.7;;;;;;;;;;;;;;-1.3149816;-0.2080752;-0.16541032;;;;;918.0
1134.0;997.7;;;;;;;;;;;;;;;;;-58.458206;11.4978485;12.119663;;918.0
1134.0;997.7;;;;;;;;;;;;;;-1.243263;-0.22437209;-0.25244913;;;;;918.0
1134.0;998.5;;;;;;;;;;;;;;;;;-56.703392;4.8333693;8.171331;;927.7
1134.0;998.5;;;;;;;;;;;;;;-1.0738853;-0.31611073;-0.42548907;;;;;927.7
1134.0;998.5;;;;;;;;;;;;;;;;;-46.300392;2.3728142;3.1395917;;927.7
1134.0;998.5;;;;;;;;;;;;;;-0.9317911;-0.29963073;-0.48866236;;;;;927.7
1134.0;998.5;;;;;;;;;;;;;;;;;-30.938139;1.53737;-1.3542589;;937.4
1134.0;998.5;;;;;;;;;;;;;;-0.9306314;-0.28107548;-0.35254982;;;;;937.4
1134.0;998.5;;;;;;;;;;;;;;;;;-18.864254;1.9684439;-6.195257;;937.4
1134.0;998.5;;;;;;;;;;;;;;-0.9640187;-0.21216469;-0.21887875;;;;;937.4
1134.0;998.5;;;;;;;;;;;;;;;;;-16.232033;2.7695546;-12.859736;;947.1
1134.0;998.5;;;;;;;;;;;;;;-0.9092685;-0.29438153;-0.2903531;;;;;947.1
1134.0;998.5;;;;;;;;;;;;;;;;;-15.812403;6.405072;-18.471329;;947.1
1134.0;998.5;;;;;;;;;;;;;;-0.8406018;-0.3897824;-0.5024567;;;;;947.1
1193.0;1057.6;;;;;;;;;;;;;;;;;-12.9207735;12.49733;-21.744438;;956.8
1193.0;1057.6;;;;;;;;;;;;;;-0.86806846;-0.45844904;-0.59431744;;;;;956.8
1193.0;1057.6;;;;;;;;;;;;;;;;;-6.168554;18.63918;-21.397291;;956.8
1193.0;1057.6;;;;;;;;;;;;;;-1.0160222;-0.5312052;-0.5717338;;;;;956.8
1193.0;1057.6;;;;;;;;;;;;;;;;;2.2049623;23.174994;-18.780329;;966.4
1193.0;1057.6;;;;;;;;;;;;;;-1.230079;-0.5898007;-0.51948607;;;;;966.4
1193.0;1057.6;;;;;;;;;;;;;;;;;3.5134435;25.77288;-16.861477;;966.4
1193.0;1057.6;;;;;;;;;;;;;;-1.4026917;-0.615009;-0.5456709;;;;;966.4
1193.0;1057.6;;;;;;;;;;;;;;;;;-2.7733696;27.53151;-16.49144;;976.1
1193.0;1057.6;;;;;;;;;;;;;;-1.5489365;-0.67305523;-0.5791803;;;;;976.1
1193.0;1057.6;;;;;;;;;;;;;;;;;-11.2880335;26.970734;-17.769402;;976.1
1193.0;1057.6;;;;;;;;;;;;;;-1.7065951;-0.72493666;-0.5874813;;;;;976.1
1193.0;1065.2;;;;;;;;;;;;;;;;;-17.281105;20.527512;-19.814142;;985.8
1193.0;1065.2;;;;;;;;;;;;;;-1.7710501;-0.8236946;-0.61256754;;;;;985.8
1193.0;1065.2;;;;;;;;;;;;;;;;;-14.603107;13.576922;-21.897032;;985.8
1193.0;1065.2;;;;;;;;;;;;;;-1.8032777;-0.93038726;-0.5762505;;;;;985.8
1193.0;1065.2;;;;;;;;;;;;;;;;;-6.4546647;4.387036;-23.583178;;995.5
1193.0;1065.2;;;;;;;;;;;;;;-1.640553;-1.0182196;-0.55165255;;;;;995.5
1193.0;1065.2;;;;;;;;;;;;;;;;;4.0246286;-2.0142217;-25.204473;;995.5
1193.0;1065.2;;;;;;;;;;;;;;-1.3476974;-1.0366527;-0.55165255;;;;;995.5
1193.0;1065.2;;;;;;;;;;;;;;;;;14.820552;-3.1014435;-26.360363;;1005.0
1193.0;1065.2;;;;;;;;;;;;;;-1.1572008;-0.9411298;-0.5481735;;;;;1005.0
1193.0;1065.2;;;;;;;;;;;;;;;;;24.983213;-3.0709252;-27.645954;;1005.0
1193.0;1065.2;;;;;;;;;;;;;;-1.040376;-0.732017;-0.52986234;;;;;1005.0
1198.0;1118.1;;;;;;;;;;;;;;;;;34.32569;-2.8496659;-29.293955;;1014.7
1198.0;1118.1;;;;;;;;;;;;;;-0.9774468;-0.47761467;-0.48005617;;;;;1014.7
1198.0;1118.1;;;;;;;;;;;;;;;;;41.837063;-2.66274;-29.953917;;1014.7
1198.0;1118.1;;;;;;;;;;;;;;-0.9684744;-0.17987609;-0.4433729;;;;;1014.7
1198.0;1118.1;;;;;;;;;;;;;;;;;45.819725;-3.8567767;-28.962067;;1024.3
1198.0;1118.1;;;;;;;;;;;;;;-0.97738576;0.054628134;-0.435255;;;;;1024.3
1198.0;1118.1;;;;;;;;;;;;;;;;;46.498764;-6.0922575;-26.253548;;1024.3
1198.0;1118.1;;;;;;;;;;;;;;-0.9862972;0.18341625;-0.4232917;;;;;1024.3
1198.0;1118.1;;;;;;;;;;;;;;;;;43.286694;-7.450331;-22.373882;;1034.0
1198.0;1118.1;;;;;;;;;;;;;;-0.99179053;0.24622333;-0.42957854;;;;;1034.0
1198.0;1118.1;;;;;;;;;;;;;;;;;35.64562;-7.27485;-17.73507;;1034.0
1198.0;1118.1;;;;;;;;;;;;;;-0.9894101;0.24707785;-0.4646138;;;;;1034.0
1198.0;1119.3;;;;;;;;;;;;;;;;;26.573992;-7.087924;-11.722922;;1043.7
1198.0;1119.3;;;;;;;;;;;;;;-0.9723197;0.21900083;-0.50923187;;;;;1043.7
1198.0;1119.3;;;;;;;;;;;;;;;;;19.24955;-6.8170724;-4.3908505;;1043.7
1198.0;1119.3;;;;;;;;;;;;;;-0.9462569;0.16193122;-0.50923187;;;;;1043.7
1198.0;1119.3;;;;;;;;;;;;;;;;;14.069033;-5.0279245;4.135258;;1053.3
1198.0;1119.3;;;;;;;;;;;;;;-0.918363;0.09698782;-0.48402357;;;;;1053.3
1198.0;1119.3;;;;;;;;;;;;;;;;;10.193182;-1.0528886;12.955108;;1053.3
1198.0;1119.3;;;;;;;;;;;;;;-0.91866815;0.039246805;-0.45448163;;;;;1053.3
1198.0;1119.3;;;;;;;;;;;;;;;;;6.7636647;3.360851;20.90518;;1063.0
1198.0;1119.3;;;;;;;;;;;;;;-0.9337443;0.008911405;-0.4382458;;;;;1063.0
1198.0;1119.3;;;;;;;;;;;;;;;;;3.3722954;7.7478867;27.703176;;1063.0
1198.0;1119.3;;;;;;;;;;;;;;-0.97140414;-0.012451552;-0.41175574;;;;;1063.0
1254.0;1128.9;;;;0.0;0.0;0.0;;;;;;;;;;;;;;;
1254.0;1128.9;;;;-0.14384843;-0.0034370427;-0.019977571;;;;;;;;;;;;;;;
1254.0;1128.9;;;;-0.75660336;-0.14741899;-0.27505496;;;;;;;;;;;;;;;
1254.0;1128.9;;;;-0.8365747;-0.18076707;-0.31769565;;;;;;;;;;;;;;;
1254.0;1128.9;;;;-0.83474743;-0.18762591;-0.31371692;;;;;;;;;;;;;;;
1254.0;1138.9;;;;-0.83363354;-0.19416812;-0.30955508;;;;;;;;;;;;;;;
1254.0;1138.9;;;;-0.8338777;-0.20003513;-0.30817035;;;;;;;;;;;;;;;
1254.0;1138.9;;;;-0.83475506;-0.20546344;-0.30503848;;;;;;;;;;;;;;;
1254.0;1138.9;;;;-0.83615506;-0.21027377;-0.3033524;;;;;;;;;;;;;;;
1254.0;1138.9;;;;-0.8360826;-0.21386722;-0.30235675;;;;;;;;;;;;;;;
1254.0;1140.2;57512;57626;13321;;;;;;;;;;;;;;;;;;
1254.0;1148.9;;;;-0.83441174;-0.21764758;-0.3010178;;;;;;;;;;;;;;;
1254.0;1148.9;;;;-0.8309289;-0.22077563;-0.29841235;;;;;;;;;;;;;;;
1254.0;1148.9;;;;-0.82748806;-0.22389606;-0.2957001;;;;;;;;;;;;;;;
1254.0;1148.9;;;;-0.82333386;-0.2274361;-0.29337314;;;;;;;;;;;;;;;
1254.0;1148.9;;;;-0.8204652;-0.23074725;-0.29048923;;;;;;;;;;;;;;;
1256.0;1158.9;;;;-0.81689847;-0.23342898;-0.28669742;;;;;;;;;;;;;;;
1256.0;1158.9;;;;-0.8141328;-0.23594287;-0.2825394;;;;;;;;;;;;;;;
1256.0;1158.9;;;;-0.8115846;-0.23904803;-0.27844623;;;;;;;;;;;;;;;
1256.0;1158.9;;;;-0.80918515;-0.24184039;-0.27360538;;;;;;;;;;;;;;;
1256.0;1158.9;;;;-0.8070642;-0.24406436;-0.26450732;;;;;;;;;;;;;;;
1256.0;1160.3;73826;73819;13320;;;;;;;;;;;;;;;;;;
1256.0;1166.7;;;;;;;;;;;;;0;;;;;;;;
1256.0;1166.7;;;;;;;;;;;;;0;;;;;;;;
1256.0;1166.7;;;;;;;;;;;;;-1;;;;;;;;
1256.0;1166.7;;;;;;;;;;;;;-2;;;;;;;;
1256.0;1166.7;;;;;;;;;;;;;-4;;;;;;;;
1256.0;1169.0;;;;-0.80558026;-0.24602893;-0.2559586;;;;;;;;;;;;;;;
1256.0;1169.0;;;;-0.8042108;-0.24803928;-0.24723056;;;;;;;;;;;;;;;
1256.0;1169.0;;;;-0.80291;-0.25031283;-0.23839572;;;;;;;;;;;;;;;
1256.0;1169.0;;;;-0.8006822;-0.25306323;-0.23250201;;;;;;;;;;;;;;;
1256.0;1169.0;;;;-0.79823315;-0.2555733;-0.22822955;;;;;;;;;;;;;;;
1257.0;1178.4;;;;;;;;;;;;;;;;;-0.9765923;11.650441;33.436844;;1072.7
1257.0;1178.4;;;;;;;;;;;;;;-1.0050966;-0.03546251;-0.39197972;;;;;1072.7
1257.0;1178.4;;;;;;;;;;;;;;;;;-6.111332;15.167699;38.827175;;1072.7
1257.0;1178.4;;;;;;;;;;;;;;-1.0395215;-0.06079287;-0.3830073;;;;;1072.7
1257.0;1178.4;;;;;;;;;;;;;;;;;-10.986664;18.288218;43.94284;;1082.2
1257.0;1178.4;;;;;;;;;;;;;;-1.07828;-0.08807642;-0.37238684;;;;;1082.2
1257.0;1178.4;;;;;;;;;;;;;;;;;-15.8772545;20.481735;47.92169;;1082.2
1257.0;1178.4;;;;;;;;;;;;;;-1.1037325;-0.11700796;-0.35425887;;;;;1082.2
1257.0;1178.4;;;;;;;;;;;;;;;;;-21.233253;21.645254;50.881985;;1091.8
1257.0;1178.4;;;;;;;;;;;;;;-1.1073946;-0.146733;-0.3501694;;;;;1091.8
1257.0;1178.4;;;;;;;;;;;;;;;;;-26.291697;22.419659;53.07932;;1091.8
1257.0;1178.4;;;;;;;;;;;;;;-1.107944;-0.1817072;-0.34736168;;;;;1091.8
1257.0;1179.2;;;;;;;;;;;;;;;;;-30.30488;22.83166;54.170357;;1101.4
1257.0;1179.2;;;;;;;;;;;;;;-1.1011689;-0.22272408;-0.33393353;;;;;1101.4
1257.0;1179.2;;;;;;;;;;;;;;;;;-32.944733;22.541733;54.07117;;1101.4
1257.0;1179.2;;;;;;;;;;;;;;-1.0986663;-0.25775933;-0.32691428;;;;;1101.4
1257.0;1179.2;;;;;;;;;;;;;;;;;-34.306618;21.29429;52.625355;;1111.0
1257.0;1179.2;;;;;;;;;;;;;;-1.0862758;-0.31916258;-0.3202002;;;;;1111.0
1257.0;1179.2;;;;;;;;;;;;;;;;;-33.841213;19.482254;50.145725;;1111.0
1257.0;1179.2;;;;;;;;;;;;;;-1.0553911;-0.3998535;-0.30738243;;;;;1111.0
1257.0;1179.2;;;;;;;;;;;;;;;;;-32.250435;18.555254;47.284615;;1120.7
1257.0;1179.2;;;;;;;;;;;;;;-1.023835;-0.4701071;-0.28565326;;;;;1120.7
1257.0;1179.2;;;;;;;;;;;;;;;;;-29.747917;17.689291;44.267097;;1120.7
1257.0;1179.2;;;;;;;;;;;;;;-0.98764;-0.51545763;-0.26490065;;;;;1120.7
1312.0;1179.0;;;;-0.7946359;-0.25798038;-0.22285846;;;;;;;;;;;;;;;
1312.0;1179.0;;;;-0.7888452;-0.2596245;-0.21854785;;;;;;;;;;;;;;;
1312.0;1179.0;;;;-0.780655;-0.26096728;-0.21678928;;;;;;;;;;;;;;;
1312.0;1179.0;;;;-0.7718278;-0.26106647;-0.21535495;;;;;;;;;;;;;;;
1312.0;1179.0;;;;-0.7638284;-0.26109698;-0.2136307;;;;;;;;;;;;;;;
1312.0;1180.4;90269;90228;13318;;;;;;;;;;;;;;;;;;
1312.0;1189.1;;;;-0.7576829;-0.25979617;-0.21021274;;;;;;;;;;;;;;;
1312.0;1189.1;;;;-0.75491345;-0.25801852;-0.20841983;;;;;;;;;;;;;;;
1312.0;1189.1;;;;-0.755005;-0.2561684;-0.2059975;;;;;;;;;;;;;;;
1312.0;1189.1;;;;-0.75706494;-0.2540436;-0.20214084;;;;;;;;;;;;;;;
1312.0;1189.1;;;;-0.7607385;-0.25187686;-0.19765094;;;;;;;;;;;;;;;
1312.0;1199.2;;;;-0.76485074;-0.24936679;-0.19139865;;;;;;;;;;;;;;;
1312.0;1199.2;;;;-0.77026;-0.24633029;-0.18510057;;;;;;;;;;;;;;;
1312.0;1199.2;;;;-0.7771722;-0.24318698;-0.1795006;;;;;;;;;;;;;;;
1312.0;1199.2;;;;-0.78390896;-0.23977283;-0.1750107;;;;;;;;;;;;;;;
1312.0;1199.2;;;;-0.7908975;-0.23622516;-0.17202379;;;;;;;;;;;;;;;
1312.0;1200.7;106623;106654;13330;;;;;;;;;;;;;;;;;;
1312.0;1206.9;;;;;;;;;;;;;-4;;;;;;;;
1312.0;1206.9;;;;;;;;;;;;;-4;;;;;;;;
1312.0;1206.9;;;;;;;;;;;;;-15;;;;;;;;
1312.0;1206.9;;;;;;;;;;;;;-14;;;;;;;;
1312.0;1206.9;;;;;;;;;;;;;2;;;;;;;;
1316.0;1209.0;;;;-0.7970773;-0.23251727;-0.16971971;;;;;;;;;;;;;;;
1316.0;1209.0;;;;-0.8007623;-0.22882846;-0.16842653;;;;;;;;;;;;;;;
1316.0;1209.0;;;;-0.8020097;-0.22503284;-0.16859819;;;;;;;;;;;;;;;
1316.0;1209.0;;;;-0.80030453;-0.22178271;-0.16798021;;;;;;;;;;;;;;;
1316.0;1209.0;;;;-0.7965051;-0.21883014;-0.1665497;;;;;;;;;;;;;;;
1316.0;1219.0;;;;-0.7926103;-0.21645358;-0.16510011;;;;;;;;;;;;;;;
1316.0;1219.0;;;;-0.78907406;-0.2152901;-0.16374208;;;;;;;;;;;;;;;
1316.0;1219.0;;;;-0.7862779;-0.21491244;-0.16090776;;;;;;;;;;;;;;;
1316.0;1219.0;;;;-0.7841722;-0.21510318;-0.15657426;;;;;;;;;;;;;;;
1316.0;1219.0;;;;-0.7824632;-0.21618274;-0.15411378;;;;;;;;;;;;;;;
1316.0;1220.5;123002;123057;13323;;;;;;;;;;;;;;;;;;
1316.0;1229.1;;;;-0.7813798;-0.21660998;-0.15362932;;;;;;;;;;;;;;;
1316.0;1229.1;;;;-0.77959836;-0.21750644;-0.15314867;;;;;;;;;;;;;;;
1316.0;1229.1;;;;-0.7753717;-0.21939853;-0.15329362;;;;;;;;;;;;;;;
1316.0;1229.1;;;;-0.7693063;-0.22042468;-0.15393068;;;;;;;;;;;;;;;
1316.0;1229.1;;;;-0.7623025;-0.22091296;-0.15370561;;;;;;;;;;;;;;;
1319.0;1238.6;;;;;;;;;;;;;;;;;-26.829586;16.82333;41.268654;;1130.3
1319.0;1238.6;;;;;;;;;;;;;;-0.946379;-0.54866177;-0.25714895;;;;;1130.3
1319.0;1238.6;;;;;;;;;;;;;;;;;-23.499252;16.20533;38.7051;;1130.3
1319.0;1238.6;;;;;;;;;;;;;;-0.91201514;-0.5643483;-0.25959045;;;;;1130.3
1319.0;1238.6;;;;;;;;;;;;;;;;;-19.451736;15.861996;36.584064;;1140.0
1319.0;1238.6;;;;;;;;;;;;;;-0.8921781;-0.56715596;-0.26294747;;;;;1140.0
1319.0;1238.6;;;;;;;;;;;;;;;;;-14.969329;15.072329;34.73388;;1140.0
1319.0;1238.6;;;;;;;;;;;;;;-0.85476243;-0.5644093;-0.25379193;;;;;1140.0
1319.0;1238.6;;;;;;;;;;;;;;;;;-10.658589;14.423811;33.07062;;1149.6
1319.0;1238.6;;;;;;;;;;;;;;-0.81209755;-0.56556904;-0.25208288;;;;;1149.6
1319.0;1238.6;;;;;;;;;;;;;;;;;-6.221961;14.175848;31.735435;;1149.6
1319.0;1238.6;;;;;;;;;;;;;;-0.79482406;-0.5645314;-0.23737296;;;;;1149.6
1319.0;1239.1;;;;-0.75540555;-0.22118762;-0.15399934;;;;;;;;;;;;;;;
1319.0;1239.1;;;;-0.74862677;-0.22106174;-0.15522768;;;;;;;;;;;;;;;
1319.0;1239.1;;;;-0.74342734;-0.22021487;-0.1568947;;;;;;;;;;;;;;;
1319.0;1239.1;;;;-0.7391587;-0.21903232;-0.15696718;;;;;;;;;;;;;;;
1319.0;1239.1;;;;-0.73489386;-0.21730426;-0.15644838;;;;;;;;;;;;;;;
1320.0;1239.8;;;;;;;;;;;;;;;;;-1.9379253;13.397626;30.453657;;1159.2
1320.0;1239.8;;;;;;;;;;;;;;-0.7900021;-0.54518265;-0.23584704;;;;;1159.2
1320.0;1239.8;;;;;;;;;;;;;;;;;2.2469254;12.173071;29.28251;;1159.2
1320.0;1239.8;;;;;;;;;;;;;;-0.79213846;-0.5172277;-0.23535874;;;;;1159.2
1320.0;1239.8;;;;;;;;;;;;;;;;;6.557665;10.120701;28.931547;;1168.9
1320.0;1239.8;;;;;;;;;;;;;;-0.7807245;-0.47279274;-0.23358867;;;;;1168.9
1320.0;1239.8;;;;;;;;;;;;;;;;;10.631886;8.1827755;28.908659;;1168.9
1320.0;1239.8;;;;;;;;;;;;;;-0.7637562;-0.4364147;-0.20569475;;;;;1168.9
1320.0;1239.8;;;;;;;;;;;;;;;;;13.946959;6.5424056;28.828547;;1178.6
1320.0;1239.8;;;;;;;;;;;;;;-0.738731;-0.39777824;-0.18359935;;;;;1178.6
1320.0;1239.8;;;;;;;;;;;;;;;;;16.476181;5.3750725;28.75225;;1178.6
1320.0;1239.8;;;;;;;;;;;;;;-0.7267678;-0.3683584;-0.17078158;;;;;1178.6
1320.0;1240.6;139446;139408;13331;;;;;;;;;;;;;;;;;;
1320.0;1247.0;;;;;;;;;;;;;-5;;;;;;;;
1320.0;1247.0;;;;;;;;;;;;;19;;;;;;;;
1320.0;1247.0;;;;;;;;;;;;;-15;;;;;;;;
1320.0;1247.0;;;;;;;;;;;;;-44;;;;;;;;
1320.0;1247.0;;;;;;;;;;;;;162;;;;;;;;
1320.0;1249.2;;;;-0.73032004;-0.21515277;-0.1562996;;;;;;;;;;;;;;;
1320.0;1249.2;;;;-0.72560126;-0.21233371;-0.15701295;;;;;;;;;;;;;;;
1320.0;1249.2;;;;-0.72089773;-0.20981601;-0.1563492;;;;;;;;;;;;;;;
1320.0;1249.2;;;;-0.71731955;-0.20785907;-0.15452577;;;;;;;;;;;;;;;
1320.0;1249.2;;;;-0.7133294;-0.20579532;-0.15295793;;;;;;;;;;;;;;;
1376.0;1259.1;;;;-0.71083075;-0.20475772;-0.15265276;;;;;;;;;;;;;;;
1376.0;1259.1;;;;-0.7093888;-0.20408633;-0.15084459;;;;;;;;;;;;;;;
1376.0;1259.1;;;;-0.70895773;-0.2030411;-0.14817049;;;;;;;;;;;;;;;
1376.0;1259.1;;;;-0.70872504;-0.20260623;-0.14527132;;;;;;;;;;;;;;;
1376.0;1259.1;;;;-0.708149;-0.2015877;-0.14367677;;;;;;;;;;;;;;;
1376.0;1260.8;155700;155852;13346;;;;;;;;;;;;;;;;;;
1376.0;1269.0;;;;-0.7070542;-0.20031741;-0.14141847;;;;;;;;;;;;;;;
1376.0;1269.0;;;;-0.7050591;-0.19869617;-0.13670732;;;;;;;;;;;;;;;
1376.0;1269.0;;;;-0.7016755;-0.19685367;-0.13022615;;;;;;;;;;;;;;;
1376.0;1269.0;;;;-0.69896704;-0.19464114;-0.124732986;;;;;;;;;;;;;;;
1376.0;1269.0;;;;-0.6971398;-0.1912575;-0.118373886;;;;;;;;;;;;;;;
1376.0;1279.1;;;;-0.69590384;-0.18833163;-0.11377336;;;;;;;;;;;;;;;
1376.0;1279.1;;;;-0.69624335;-0.18511201;-0.111251846;;;;;;;;;;;;;;;
1376.0;1279.1;;;;-0.6969605;-0.18273546;-0.10777284;;;;;;;;;;;;;;;
1376.0;1279.1;;;;-0.69657904;-0.18071748;-0.10323717;;;;;;;;;;;;;;;
1376.0;1279.1;;;;-0.6953812;-0.17840578;-0.10005571;;;;;;;;;;;;;;;
1376.0;1280.8;172191;172175;13346;;;;;;;;;;;;;;;;;;
1376.0;1287.1;;;;;;;;;;;;;-250;;;;;;;;
1376.0;1287.1;;;;;;;;;;;;;-964;;;;;;;;
1376.0;1287.1;;;;;;;;;;;;;554;;;;;;;;
1376.0;1287.1;;;;;;;;;;;;;2338;;;;;;;;
1376.0;1287.1;;;;;;;;;;;;;-2204;;;;;;;;
1380.0;1289.2;;;;-0.6930314;-0.17600633;-0.097908035;;;;;;;;;;;;;;;
1380.0;1289.2;;;;-0.69012076;-0.17508699;-0.0975876;;;;;;;;;;;;;;;
1380.0;1289.2;;;;-0.6884461;-0.17398454;-0.09888841;;;;;;;;;;;;;;;
1380.0;1289.2;;;;-0.6875153;-0.17422487;-0.100498214;;;;;;;;;;;;;;;
1380.0;1289.2;;;;-0.68794256;-0.17454149;-0.10271837;;;;;;;;;;;;;;;
1380.0;1298.8;;;;;;;;;;;;;;;;;17.952513;3.8415174;28.607288;;1188.2
1380.0;1298.8;;;;;;;;;;;;;;-0.7114475;-0.34601885;-0.16296884;;;;;1188.2
1380.0;1298.8;;;;;;;;;;;;;;;;;18.482773;2.4109623;28.267769;;1188.2
1380.0;1298.8;;;;;;;;;;;;;;-0.69502854;-0.3274636;-0.14844203;;;;;1188.2
1380.0;1298.8;;;;;;;;;;;;;;;;;17.990662;1.209296;27.645954;;1197.9
1380.0;1298.8;;;;;;;;;;;;;;-0.6747032;-0.3086642;-0.13495284;;;;;1197.9
1380.0;1298.8;;;;;;;;;;;;;;;;;16.49907;0.6866665;26.486252;;1197.9
1380.0;1298.8;;;;;;;;;;;;;;-0.6585284;-0.29822686;-0.125309;;;;;1197.9
1380.0;1298.8;;;;;;;;;;;;;;;;;14.126255;0.48448133;24.742882;;1207.4
1380.0;1298.8;;;;;;;;;;;;;;-0.64729756;-0.2887051;-0.11627552;;;;;1207.4
1380.0;1298.8;;;;;;;;;;;;;;;;;11.024812;-0.18311106;22.518845;;1207.4
1380.0;1298.8;;;;;;;;;;;;;;-0.6371654;-0.27576524;-0.11951049;;;;;1207.4
1380.0;1299.2;;;;-0.6887055;-0.17484285;-0.10545732;;;;;;;;;;;;;;;
1380.0;1299.2;;;;-0.68881994;-0.17474367;-0.10712053;;;;;;;;;;;;;;;
1380.0;1299.2;;;;-0.68765646;-0.17334367;-0.10901643;;;;;;;;;;;;;;;
1380.0;1299.2;;;;-0.68622214;-0.17159654;-0.112216964;;;;;;;;;;;;;;;
1380.0;1299.2;;;;-0.6849671;-0.16925813;-0.11486055;;;;;;;;;;;;;;;
1381.0;1299.6;;;;;;;;;;;;;;;;;7.9958496;-0.7553331;20.489365;;1216.9
1381.0;1299.6;;;;;;;;;;;;;;-0.6349681;-0.26111636;-0.12652974;;;;;1216.9
1381.0;1299.6;;;;;;;;;;;;;;;;;5.3636284;-1.6899625;18.581957;;1216.9
1381.0;1299.6;;;;;;;;;;;;;;-0.6295968;-0.2562334;-0.1309244;;;;;1216.9
1381.0;1299.6;;;;;;;;;;;;;;;;;3.47911;-2.6093326;16.949217;;1226.6
1381.0;1299.6;;;;;;;;;;;;;;-0.6229438;-0.26715904;-0.10852382;;;;;1226.6
1381.0;1299.6;;;;;;;;;;;;;;;;;1.4992218;-2.7733696;15.5796995;;1226.6
1381.0;1299.6;;;;;;;;;;;;;;-0.6283151;-0.2874233;-0.09131138;;;;;1226.6
1381.0;1299.6;;;;;;;;;;;;;;;;;0.37385175;-2.910703;14.221625;;1236.2
1381.0;1299.6;;;;;;;;;;;;;;-0.64149904;-0.29786065;-0.08075198;;;;;1236.2
1381.0;1299.6;;;;;;;;;;;;;;;;;0.20599994;-2.8916287;12.550736;;1236.2
1381.0;1299.6;;;;;;;;;;;;;;-0.6477859;-0.30292672;-0.06799524;;;;;1236.2
1381.0;1300.8;188576;188599;13344;;;;;;;;;;;;;;;;;;
1381.0;1309.1;;;;-0.6839104;-0.1657181;-0.11627962;;;;;;;;;;;;;;;
1381.0;1309.1;;;;-0.68347555;-0.16271593;-0.116359726;;;;;;;;;;;;;;;
1381.0;1309.1;;;;-0.68308645;-0.16022493;-0.1172104;;;;;;;;;;;;;;;
1381.0;1309.1;;;;-0.6830178;-0.15861513;-0.12012865;;;;;;;;;;;;;;;
1381.0;1309.1;;;;-0.6812783;-0.15785219;-0.121906295;;;;;;;;;;;;;;;
1383.0;1313.6;;;;;;;;;;;;;;;;;1.2665181;-1.8730735;10.956145;;1245.9
1383.0;1313.6;;;;;;;;;;;;;;-0.66292304;-0.2964568;-0.048890654;;;;;1245.9
1383.0;1313.6;;;;;;;;;;;;;;;;;2.189703;-0.44251838;9.247108;;1245.9
1383.0;1313.6;;;;;;;;;;;;;;-0.6803186;-0.29401532;-0.047181617;;;;;1245.9
1383.0;1313.6;;;;;;;;;;;;;;;;;2.8000731;0.34714803;7.3473315;;1255.5
1383.0;1313.6;;;;;;;;;;;;;;-0.6863002;-0.29755548;-0.06439406;;;;;1255.5
1383.0;1313.6;;;;;;;;;;;;;;;;;4.421369;0.6981109;6.084628;;1255.5
1383.0;1313.6;;;;;;;;;;;;;;-0.69472337;-0.2987762;-0.06799524;;;;;1255.5
1383.0;1313.6;;;;;;;;;;;;;;;;;6.4851832;0.29374066;5.203406;;1265.2
1383.0;1313.6;;;;;;;;;;;;;;-0.69649345;-0.30738243;-0.07324442;;;;;1265.2
1383.0;1313.6;;;;;;;;;;;;;;;;;8.1827755;-0.095370345;4.3565173;;1265.2
1383.0;1313.6;;;;;;;;;;;;;;-0.68581194;-0.32374036;-0.10681479;;;;;1265.2
1383.0;1319.0;;;;-0.6783715;-0.15779115;-0.12242891;;;;;;;;;;;;;;;
1383.0;1319.0;;;;-0.67521673;-0.15835191;-0.12309648;;;;;;;;;;;;;;;
1383.0;1319.0;;;;-0.67127997;-0.1591797;-0.124626175;;;;;;;;;;;;;;;
1383.0;1319.0;;;;-0.6671944;-0.15945818;-0.12528993;;;;;;;;;;;;;;;
1383.0;1319.0;;;;-0.6635857;-0.15977098;-0.12607576;;;;;;;;;;;;;;;
1383.0;1320.8;204894;204980;13351;;;;;;;;;;;;;;;;;;
1383.0;1327.1;;;;;;;;;;;;;-12711;;;;;;;;
1383.0;1327.1;;;;;;;;;;;;;-18784;;;;;;;;
1383.0;1327.1;;;;;;;;;;;;;-12482;;;;;;;;
1383.0;1327.1;;;;;;;;;;;;;1066;;;;;;;;
1383.0;1327.1;;;;;;;;;;;;;10075;;;;;;;;
1431.0;1328.9;;;;-0.6607972;-0.15991975;-0.12713243;;;;;;;;;;;;;;;
1431.0;1328.9;;;;-0.6587754;-0.15991212;-0.12777711;;;;;;;;;;;;;;;
1431.0;1328.9;;;;-0.6574212;-0.15986635;-0.12916948;;;;;;;;;;;;;;;
1431.0;1328.9;;;;-0.65751654;-0.15945436;-0.13019182;;;;;;;;;;;;;;;
1431.0;1328.9;;;;-0.6579934;-0.15897371;-0.13262941;;;;;;;;;;;;;;;
1431.0;1338.9;;;;-0.65884024;-0.15830614;-0.13487245;;;;;;;;;;;;;;;
1431.0;1338.9;;;;-0.659607;-0.1569481;-0.13647081;;;;;;;;;;;;;;;
1431.0;1338.9;;;;-0.65936667;-0.15559389;-0.13805391;;;;;;;;;;;;;;;
1431.0;1338.9;;;;-0.65909964;-0.15459825;-0.13929369;;;;;;;;;;;;;;;
1431.0;1338.9;;;;-0.65878683;-0.152977;-0.14027025;;;;;;;;;;;;;;;
1431.0;1340.8;221290;221421;13341;;;;;;;;;;;;;;;;;;
1431.0;1349.0;;;;-0.6584092;-0.15134431;-0.14230348;;;;;;;;;;;;;;;
1431.0;1349.0;;;;-0.6578217;-0.14989473;-0.144722;;;;;;;;;;;;;;;
1431.0;1349.0;;;;-0.6579018;-0.149292;-0.14670946;;;;;;;;;;;;;;;
1431.0;1349.0;;;;-0.6585389;-0.14904024;-0.14745714;;;;;;;;;;;;;;;
1431.0;1349.0;;;;-0.6585465;-0.1493416;-0.14856721;;;;;;;;;;;;;;;
1436.0;1358.8;;;;;;;;;;;;;;;;;9.876553;-0.6027406;3.4676657;;1274.9
1436.0;1358.8;;;;;;;;;;;;;;-0.68117315;-0.33606982;-0.13904233;;;;;1274.9
1436.0;1358.8;;;;;;;;;;;;;;;;;11.5970335;-1.6441847;2.4452956;;1274.9
1436.0;1358.8;;;;;;;;;;;;;;-0.66731775;-0.34644613;-0.17236854;;;;;1274.9
1436.0;1358.8;;;;;;;;;;;;;;;;;13.939329;-2.9259622;1.1597034;;1284.4
1436.0;1358.8;;;;;;;;;;;;;;-0.636433;-0.34882656;-0.18720053;;;;;1284.4
1436.0;1358.8;;;;;;;;;;;;;;;;;15.76281;-3.3150733;-0.4158147;;1284.4
1436.0;1358.8;;;;;;;;;;;;;;-0.61592454;-0.33661917;-0.19690542;;;;;1284.4
1436.0;1358.8;;;;;;;;;;;;;;;;;15.980255;-3.521073;-2.3728142;;1294.1
1436.0;1358.8;;;;;;;;;;;;;;-0.59297466;-0.3209937;-0.22058779;;;;;1294.1
1436.0;1358.8;;;;;;;;;;;;;;;;;15.442366;-3.6507769;-4.4557023;;1294.1
1436.0;1358.8;;;;;;;;;;;;;;-0.5652028;-0.29749444;-0.21686453;;;;;1294.1
1436.0;1359.0;;;;-0.6589547;-0.14961626;-0.150589;;;;;;;;;;;;;;;
1436.0;1359.0;;;;-0.6591988;-0.15024187;-0.15244295;;;;;;;;;;;;;;;
1436.0;1359.0;;;;-0.6588784;-0.15096284;-0.15485002;;;;;;;;;;;;;;;
1436.0;1359.0;;;;-0.65762717;-0.15133668;-0.15699007;;;;;;;;;;;;;;;
1436.0;1359.0;;;;-0.6558953;-0.15157701;-0.15873338;;;;;;;;;;;;;;;
1436.0;1360.9;237685;237749;13346;;;;;;;;;;;;;;;;;;
1436.0;1367.2;;;;;;;;;;;;;10618;;;;;;;;
1436.0;1367.2;;;;;;;;;;;;;8694;;;;;;;;
1436.0;1367.2;;;;;;;;;;;;;8838;;;;;;;;
1436.0;1367.2;;;;;;;;;;;;;9310;;;;;;;;
1436.0;1367.2;;;;;;;;;;;;;8800;;;;;;;;
1492.0;1369.1;;;;-0.65403754;-0.15143968;-0.16115953;;;;;;;;;;;;;;;
1492.0;1369.1;;;;-0.65362936;-0.15132906;-0.16419984;;;;;;;;;;;;;;;
1492.0;1369.1;;;;-0.6553536;-0.15102006;-0.16767885;;;;;;;;;;;;;;;
1492.0;1369.1;;;;-0.6584855;-0.15024568;-0.17105104;;;;;;;;;;;;;;;
1492.0;1369.1;;;;-0.6612511;-0.14978029;-0.1730385;;;;;;;;;;;;;;;
1492.0;1373.9;;;;;;;;;;;;;;;;;14.6641445;-3.8453321;-6.370739;;1303.8
1492.0;1373.9;;;;;;;;;;;;;;-0.54481643;-0.27558213;-0.20337535;;;;;1303.8
1492.0;1373.9;;;;;;;;;;;;;;;;;12.405774;-4.3107395;-8.167517;;1303.8
1492.0;1373.9;;;;;;;;;;;;;;-0.5253456;-0.2580645;-0.21686453;;;;;1303.8
1492.0;1373.9;;;;;;;;;;;;;;;;;9.563738;-5.0469985;-10.082552;;1313.4
1492.0;1373.9;;;;;;;;;;;;;;-0.4949492;-0.24323252;-0.23419905;;;;;1313.4
1492.0;1373.9;;;;;;;;;;;;;;;;;7.2443314;-5.1728873;-11.722922;;1313.4
1492.0;1373.9;;;;;;;;;;;;;;-0.48268074;-0.23255104;-0.23633534;;;;;1313.4
1492.0;1373.9;;;;;;;;;;;;;;;;;6.263924;-4.8333693;-13.203071;;1322.9
1492.0;1373.9;;;;;;;;;;;;;;-0.484756;-0.22846156;-0.21790215;;;;;1322.9
1492.0;1373.9;;;;;;;;;;;;;;;;;5.508591;-4.50911;-14.461959;;1322.9
1492.0;1373.9;;;;;;;;;;;;;;-0.49720755;-0.23413801;-0.20654927;;;;;1322.9
1492.0;1379.1;;;;-0.6633454;-0.14932252;-0.17455293;;;;;;;;;;;;;;;
1492.0;1379.1;;;;-0.6642762;-0.14888765;-0.1752968;;;;;;;;;;;;;;;
1492.0;1379.1;;;;-0.665783;-0.14814378;-0.17788316;;;;;;;;;;;;;;;
1492.0;1379.1;;;;-0.6684647;-0.14765169;-0.18007661;;;;;;;;;;;;;;;
1492.0;1379.1;;;;-0.67247015;-0.14734651;-0.18143465;;;;;;;;;;;;;;;
1492.0;1381.1;254112;254141;13337;;;;;;;;;;;;;;;;;;
1498.0;1389.2;;;;-0.6774636;-0.14749147;-0.18269731;;;;;;;;;;;;;;;
1498.0;1389.2;;;;-0.68267065;-0.14706041;-0.1837845;;;;;;;;;;;;;;;
1498.0;1389.2;;;;-0.68858725;-0.146904;-0.1866379;;;;;;;;;;;;;;;
1498.0;1389.2;;;;-0.6949082;-0.1462021;-0.18771365;;;;;;;;;;;;;;;
1498.0;1389.2;;;;-0.69998175;-0.14493181;-0.18830112;;;;;;;;;;;;;;;
1498.0;1399.2;;;;-0.7057343;-0.14177324;-0.18895343;;;;;;;;;;;;;;;
1498.0;1399.2;;;;-0.7124749;-0.13895418;-0.18903354;;;;;;;;;;;;;;;
1498.0;1399.2;;;;-0.71937186;-0.13591005;-0.18981937;;;;;;;;;;;;;;;
1498.0;1399.2;;;;-0.72562796;-0.1326027;-0.18983462;;;;;;;;;;;;;;;
1498.0;1399.2;;;;-0.7331162;-0.12915803;-0.19000629;;;;;;;;;;;;;;;
1498.0;1401.2;262143;262143;13342;;;;;;;;;;;;;;;;;;
1498.0;1407.5;;;;;;;;;;;;;8303;;;;;;;;
1498.0;1407.5;;;;;;;;;;;;;7825;;;;;;;;
1498.0;1407.5;;;;;;;;;;;;;7206;;;;;;;;
1498.0;1407.5;;;;;;;;;;;;;6688;;;;;;;;
1498.0;1407.5;;;;;;;;;;;;;6196;;;;;;;;
1498.0;1409.3;;;;-0.74111944;-0.12660982;-0.19078448;;;;;;;;;;;;;;;
1498.0;1409.3;;;;-0.74947363;-0.12438966;-0.19075778;;;;;;;;;;;;;;;
1498.0;1409.3;;;;-0.7577287;-0.12289049;-0.19075397;;;;;;;;;;;;;;;
1498.0;1409.3;;;;-0.7655412;-0.122035995;-0.1905556;;;;;;;;;;;;;;;
1498.0;1409.3;;;;-0.77276623;-0.12152101;-0.19128421;;;;;;;;;;;;;;;
1501.0;1419.2;;;;;;;;;;;;;;;;;3.3951843;-4.902035;-15.926847;;1332.6
1501.0;1419.2;;;;;;;;;;;;;;-0.5125278;-0.23902097;-0.20068972;;;;;1332.6
1501.0;1419.2;;;;;;;;;;;;;;;;;-0.3128147;-5.6955166;-17.654957;;1332.6
1501.0;1419.2;;;;;;;;;;;;;;-0.529252;-0.26288643;-0.20606098;;;;;1332.6
1501.0;1419.2;;;;;;;;;;;;;;;;;-3.0671103;-6.599628;-18.993958;;1342.3
1501.0;1419.2;;;;;;;;;;;;;;-0.5584277;-0.2952971;-0.2059389;;;;;1342.3
1501.0;1419.2;;;;;;;;;;;;;;;;;-5.2110357;-8.213294;-20.489365;;1342.3
1501.0;1419.2;;;;;;;;;;;;;;-0.5868709;-0.31366923;-0.22370067;;;;;1342.3
1501.0;1419.2;;;;;;;;;;;;;;;;;-7.4694057;-9.876553;-22.766808;;1352.0
1501.0;1419.2;;;;;;;;;;;;;;-0.6194647;-0.32337412;-0.22205268;;;;;1352.0
1501.0;1419.2;;;;;;;;;;;;;;;;;-9.796441;-11.490219;-25.578325;;1352.0
1501.0;1419.2;;;;;;;;;;;;;;-0.6491897;-0.329722;-0.19922483;;;;;1352.0
1501.0;1419.3;;;;-0.77996075;-0.12072374;-0.19222263;;;;;;;;;;;;;;;
1501.0;1419.3;;;;-0.788025;-0.119545;-0.19376376;;;;;;;;;;;;;;;
1501.0;1419.3;;;;-0.796528;-0.11703111;-0.19710925;;;;;;;;;;;;;;;
1501.0;1419.3;;;;-0.80747235;-0.11452104;-0.20097354;;;;;;;;;;;;;;;
1501.0;1419.3;;;;-0.8203126;-0.11153795;-0.2027016;;;;;;;;;;;;;;;
1501.0;1421.4;262143;262143;13337;;;;;;;;;;;;;;;;;;
1501.0;1429.4;;;;-0.8286897;-0.108814254;-0.20293048;;;;;;;;;;;;;;;
1501.0;1429.4;;;;-0.83113873;-0.10676958;-0.20096973;;;;;;;;;;;;;;;
1501.0;1429.4;;;;-0.8305818;-0.105583206;-0.19946674;;;;;;;;;;;;;;;
1501.0;1429.4;;;;-0.8299562;-0.10575105;-0.20066455;;;;;;;;;;;;;;;
1501.0;1429.4;;;;-0.829651;-0.10721971;-0.20155337;;;;;;;;;;;;;;;
1503.0;1434.2;;;;;;;;;;;;;;;;;-11.944181;-13.492996;-28.55388;;1361.6
1503.0;1434.2;;;;;;;;;;;;;;-0.6724448;-0.32825708;-0.17865536;;;;;1361.6
1503.0;1434.2;;;;;;;;;;;;;;;;;-13.050478;-15.789515;-31.51799;;1361.6
1503.0;1434.2;;;;;;;;;;;;;;-0.68929106;-0.32386243;-0.18659016;;;;;1361.6
1503.0;1434.2;;;;;;;;;;;;;;;;;-13.065737;-18.864254;-34.34858;;1371.3
1503.0;1434.2;;;;;;;;;;;;;;-0.68923;-0.3230079;-0.20831935;;;;;1371.3
1503.0;1434.2;;;;;;;;;;;;;;;;;-12.833034;-22.782066;-36.950287;;1371.3
1503.0;1434.2;;;;;;;;;;;;;;-0.67824334;-0.33741266;-0.21063875;;;;;1371.3
1503.0;1434.2;;;;;;;;;;;;;;;;;-13.294626;-26.894438;-39.914394;;1381.0
1503.0;1434.2;;;;;;;;;;;;;;-0.66273993;-0.35175633;-0.16992706;;;;;1381.0
1503.0;1434.2;;;;;;;;;;;;;;;;;-15.8391075;-30.156101;-43.351543;;1381.0
1503.0;1434.2;;;;;;;;;;;;;;-0.6513871;-0.38691366;-0.11890011;;;;;1381.0
1503.0;1439.3;;;;-0.8298875;-0.11002351;-0.20183185;;;;;;;;;;;;;;;
1503.0;1439.3;;;;-0.8304559;-0.11400606;-0.20083621;;;;;;;;;;;;;;;
1503.0;1439.3;;;;-0.83020794;-0.118495956;-0.19905093;;;;;;;;;;;;;;;
1503.0;1439.3;;;;-0.8292085;-0.123115554;-0.19768146;;;;;;;;;;;;;;;
1503.0;1439.3;;;;-0.82645047;-0.12739564;-0.19749454;;;;;;;;;;;;;;;
1503.0;1441.4;262143;262143;13337;;;;;;;;;;;;;;;;;;
1503.0;1447.6;;;;;;;;;;;;;5626;;;;;;;;
1503.0;1447.6;;;;;;;;;;;;;4979;;;;;;;;
1503.0;1447.6;;;;;;;;;;;;;4450;;;;;;;;
1503.0;1447.6;;;;;;;;;;;;;4105;;;;;;;;
1503.0;1447.6;;;;;;;;;;;;;3793;;;;;;;;
1550.0;1449.4;;;;-0.8234979;-0.13188554;-0.19602588;;;;;;;;;;;;;;;
1550.0;1449.4;;;;-0.8211595;-0.13681032;-0.19340137;;;;;;;;;;;;;;;
1550.0;1449.4;;;;-0.8183366;-0.14270784;-0.19013217;;;;;;;;;;;;;;;
1550.0;1449.4;;;;-0.8159028;-0.15029527;-0.18807986;;;;;;;;;;;;;;;
1550.0;1449.4;;;;-0.81411374;-0.1589966;-0.18629457;;;;;;;;;;;;;;;
1550.0;1459.2;;;;-0.81398785;-0.16831209;-0.1824608;;;;;;;;;;;;;;;
1550.0;1459.2;;;;-0.8187524;-0.17851259;-0.1789818;;;;;;;;;;;;;;;
1550.0;1459.2;;;;-0.8281404;-0.18895343;-0.17605211;;;;;;;;;;;;;;;
1550.0;1459.2;;;;-0.8398591;-0.19921115;-0.1728058;;;;;;;;;;;;;;;
1550.0;1459.2;;;;-0.8532945;-0.20840839;-0.16955568;;;;;;;;;;;;;;;
1550.0;1461.4;262143;262143;13341;;;;;;;;;;;;;;;;;;
1550.0;1469.3;;;;-0.8669435;-0.21665195;-0.16617586;;;;;;;;;;;;;;;
1550.0;1469.3;;;;-0.8788644;-0.2238045;-0.16246416;;;;;;;;;;;;;;;
1550.0;1469.3;;;;-0.89183056;-0.22950748;-0.15949251;;;;;;;;;;;;;;;
1550.0;1469.3;;;;-0.9049417;-0.23350528;-0.15940477;;;;;;;;;;;;;;;
1550.0;1469.3;;;;-0.91609967;-0.23718265;-0.15561296;;;;;;;;;;;;;;;
1554.0;1479.4;;;;;;;;;;;;;;;;;-20.187994;-32.82266;-47.85684;;1390.5
1554.0;1479.4;;;;;;;;;;;;;;-0.6336863;-0.42219305;-0.09967345;;;;;1390.5
1554.0;1479.4;;;;;;;;;;;;;;;;;-24.639883;-35.454876;-53.041172;;1390.5
1554.0;1479.4;;;;;;;;;;;;;;-0.6240425;-0.47193822;-0.108401746;;;;;1390.5
1554.0;1479.4;;;;;;;;;;;;;;;;;-25.536362;-37.53395;-59.92309;;1400.1
1554.0;1479.4;;;;;;;;;;;;;;-0.6342967;-0.484756;-0.080568865;;;;;1400.1
1554.0;1479.4;;;;;;;;;;;;;;;;;-25.269325;-40.5858;-67.66335;;1400.1
1554.0;1479.4;;;;;;;;;;;;;;-0.6639607;-0.4776757;-0.025879696;;;;;1400.1
1554.0;1479.4;;;;;;;;;;;;;;;;;-25.292213;-44.770653;-75.914795;;1409.7
1554.0;1479.4;;;;;;;;;;;;;;-0.6758019;-0.49751273;-0.037171546;;;;;1409.7
1554.0;1479.4;;;;;;;;;;;;;;;;;-24.28892;-49.375134;-84.28831;;1409.7
1554.0;1479.4;;;;;;;;;;;;;;-0.68422496;-0.52290416;-0.098269604;;;;;1409.7
1554.0;1479.3;;;;-0.9253427;-0.23988345;-0.15359499;;;;;;;;;;;;;;;
1554.0;1479.3;;;;-0.93602383;-0.24095157;-0.15079881;;;;;;;;;;;;;;;
1554.0;1479.3;;;;-0.9489213;-0.2406235;-0.14680101;;;;;;;;;;;;;;;
1554.0;1479.3;;;;-0.9655343;-0.23930743;-0.14617921;;;;;;;;;;;;;;;
1554.0;1479.3;;;;-0.9876901;-0.23647311;-0.14624025;;;;;;;;;;;;;;;
1554.0;1481.6;262143;262143;13350;;;;;;;;;;;;;;;;;;
1556.0;1487.2;;;;;;;;;;;;;;;;;-22.171696;-54.391617;-92.478714;;1419.2
1556.0;1487.2;;;;;;;;;;;;;;-0.6923429;-0.54304636;-0.16528825;;;;;1419.2
1556.0;1487.2;;;;;;;;;;;;;;;;;-19.524216;-58.40861;-100.88656;;1419.2
1556.0;1487.2;;;;;;;;;;;;;;-0.7300638;-0.5656911;-0.19812617;;;;;1419.2
1556.0;1487.2;;;;;;;;;;;;;;;;;-15.938292;-61.510056;-110.33204;;1428.9
1556.0;1487.2;;;;;;;;;;;;;;-0.79232156;-0.5939512;-0.1734672;;;;;1428.9
1556.0;1487.2;;;;;;;;;;;;;;;;;-13.023774;-64.47798;-119.99878;;1428.9
1556.0;1487.2;;;;;;;;;;;;;;-0.85580003;-0.626545;-0.15802485;;;;;1428.9
1556.0;1487.2;;;;;;;;;;;;;;;;;-10.250404;-66.73254;-124.75204;;1438.5
1556.0;1487.2;;;;;;;;;;;;;;-0.9446089;-0.6728721;-0.15570544;;;;;1438.5
1556.0;1487.2;;;;;;;;;;;;;;;;;-5.7298503;-66.55706;-124.988556;;1438.5
1556.0;1487.2;;;;;;;;;;;;;;-1.0967742;-0.71614736;-0.112186044;;;;;1438.5
1556.0;1487.7;;;;;;;;;;;;;3440;;;;;;;;
1556.0;1487.7;;;;;;;;;;;;;3105;;;;;;;;
1556.0;1487.7;;;;;;;;;;;;;2882;;;;;;;;
1556.0;1487.7;;;;;;;;;;;;;2778;;;;;;;;
1556.0;1487.7;;;;;;;;;;;;;2790;;;;;;;;
1556.0;1489.3;;;;-1.0140458;-0.23193362;-0.14662172;;;;;;;;;;;;;;;
1556.0;1489.3;;;;-1.0452844;-0.22698215;-0.14676286;;;;;;;;;;;;;;;
1556.0;1489.3;;;;-1.0767556;-0.2216492;-0.14980699;;;;;;;;;;;;;;;
1556.0;1489.3;;;;-1.1038057;-0.21661761;-0.15446092;;;;;;;;;;;;;;;
1556.0;1489.3;;;;-1.1253549;-0.2116318;-0.15785982;;;;;;;;;;;;;;;
1613.0;1499.3;;;;-1.1436654;-0.20723727;-0.16404726;;;;;;;;;;;;;;;
1613.0;1499.3;;;;-1.1596338;-0.20313647;-0.16889574;;;;;;;;;;;;;;;
1613.0;1499.3;;;;-1.173916;-0.1986542;-0.17390062;;;;;;;;;;;;;;;
1613.0;1499.3;;;;-1.1847917;-0.19401172;-0.17682268;;;;;;;;;;;;;;;
1613.0;1499.3;;;;-1.192669;-0.189518;-0.1781006;;;;;;;;;;;;;;;
1613.0;1501.6;262143;262143;13340;;;;;;;;;;;;;;;;;;
1613.0;1509.4;;;;-1.2002298;-0.18579485;-0.18027116;;;;;;;;;;;;;;;
1613.0;1509.4;;;;-1.2101442;-0.18245699;-0.18629839;;;;;;;;;;;;;;;
1613.0;1509.4;;;;-1.2190286;-0.17936708;-0.19122317;;;;;;;;;;;;;;;
1613.0;1509.4;;;;-1.2273408;-0.1761284;-0.19389346;;;;;;;;;;;;;;;
1613.0;1509.4;;;;-1.2351228;-0.17291643;-0.19584659;;;;;;;;;;;;;;;
1613.0;1519.4;;;;-1.2433358;-0.17108537;-0.19667056;;;;;;;;;;;;;;;
1613.0;1519.4;;;;-1.2524263;-0.17030336;-0.19874194;;;;;;;;;;;;;;;
1613.0;1519.4;;;;-1.2630616;-0.17064287;-0.20201495;;;;;;;;;;;;;;;
1613.0;1519.4;;;;-1.2753831;-0.1725998;-0.20522311;;;;;;;;;;;;;;;
1613.0;1519.4;;;;-1.29068;-0.17583467;-0.2092438;;;;;;;;;;;;;;;
1613.0;1521.8;262143;262143;13347;;;;;;;;;;;;;;;;;;
1613.0;1528.0;;;;;;;;;;;;;2799;;;;;;;;
1613.0;1528.0;;;;;;;;;;;;;2672;;;;;;;;
1613.0;1528.0;;;;;;;;;;;;;2524;;;;;;;;
1613.0;1528.0;;;;;;;;;;;;;2531;;;;;;;;
1613.0;1528.0;;;;;;;;;;;;;2720;;;;;;;;
1614.0;1529.5;;;;-1.3070794;-0.17945482;-0.21416476;;;;;;;;;;;;;;;
1614.0;1529.5;;;;-1.3243715;-0.18394472;-0.22010806;;;;;;;;;;;;;;;
1614.0;1529.5;;;;-1.3442994;-0.18806079;-0.22720721;;;;;;;;;;;;;;;
1614.0;1529.5;;;;-1.365883;-0.19120029;-0.233902;;;;;;;;;;;;;;;
1614.0;1529.5;;;;-1.3881646;-0.19274524;-0.24349979;;;;;;;;;;;;;;;
1614.0;1539.7;;;;;;;;;;;;;;;;;-1.7853328;-64.07361;-124.988556;;1448.1
1614.0;1539.7;;;;;;;;;;;;;;-1.32078;-0.7434309;-0.076235235;;;;;1448.1
1614.0;1539.7;;;;;;;;;;;;;;;;;1.045259;-61.586353;-124.988556;;1448.1
1614.0;1539.7;;;;;;;;;;;;;;-1.5892819;-0.7729118;-0.072634056;;;;;1448.1
1614.0;1539.7;;;;;;;;;;;;;;;;;2.784814;-59.858242;-124.988556;;1457.5
1614.0;1539.7;;;;;;;;;;;;;;-1.8532059;-0.79299295;-0.1264687;;;;;1457.5
1614.0;1539.7;;;;;;;;;;;;;;;;;2.7809992;-60.37324;-124.988556;;1457.5
1614.0;1539.7;;;;;;;;;;;;;;-1.9990845;-0.75661486;-0.22565386;;;;;1457.5
1614.0;1539.7;;;;;;;;;;;;;;;;;1.0147405;-62.437054;-124.988556;;1467.1
1614.0;1539.7;;;;;;;;;;;;;;-1.9998169;-0.6473586;-0.3180639;;;;;1467.1
1614.0;1539.7;;;;;;;;;;;;;;;;;0.51499987;-70.45198;-124.988556;;1467.1
1614.0;1539.7;;;;;;;;;;;;;;-1.9998169;-0.5418866;-0.34339428;;;;;1467.1
1614.0;1539.5;;;;-1.4134523;-0.19509509;-0.25389102;;;;;;;;;;;;;;;
1614.0;1539.5;;;;-1.4408036;-0.19428638;-0.2605324;;;;;;;;;;;;;;;
1614.0;1539.5;;;;-1.4700395;-0.19116595;-0.26833728;;;;;;;;;;;;;;;
1614.0;1539.5;;;;-1.5003207;-0.18530275;-0.27481464;;;;;;;;;;;;;;;
1614.0;1539.5;;;;-1.5308917;-0.17672731;-0.2809601;;;;;;;;;;;;;;;
1614.0;1541.9;262143;262143;13353;;;;;;;;;;;;;;;;;;
1617.0;1547.1;;;;;;;;;;;;;;;;;1.1329997;-81.13345;-124.988556;;1476.8
1617.0;1547.1;;;;;;;;;;;;;;-1.9998169;-0.45265055;-0.33039337;;;;;1476.8
1617.0;1547.1;;;;;;;;;;;;;;;;;1.1940367;-87.41646;-124.988556;;1476.8
1617.0;1547.1;;;;;;;;;;;;;;-1.9252297;-0.34339428;-0.32490006;;;;;1476.8
1617.0;1547.1;;;;;;;;;;;;;;;;;0.3013703;-90.41871;-124.988556;;1486.4
1617.0;1547.1;;;;;;;;;;;;;;-1.7455367;-0.29786065;-0.28058717;;;;;1486.4
1617.0;1547.1;;;;;;;;;;;;;;;;;-2.5864437;-90.26231;-124.988556;;1486.4
1617.0;1547.1;;;;;;;;;;;;;;-1.5917233;-0.2893765;-0.21338542;;;;;1486.4
1617.0;1547.1;;;;;;;;;;;;;;;;;-8.1827755;-85.7532;-124.988556;;1496.1
1617.0;1547.1;;;;;;;;;;;;;;-1.5135349;-0.3255104;-0.19177832;;;;;1496.1
1617.0;1547.1;;;;;;;;;;;;;;;;;-13.225959;-79.48164;-124.988556;;1496.1
1617.0;1547.1;;;;;;;;;;;;;;-1.4916227;-0.34992522;-0.13299966;;;;;1496.1
1617.0;1549.5;;;;-1.5591547;-0.16524507;-0.28533176;;;;;;;;;;;;;;;
1617.0;1549.5;;;;-1.5848505;-0.1521187;-0.28852084;;;;;;;;;;;;;;;
1617.0;1549.5;;;;-1.5970118;-0.13525774;-0.2878876;;;;;;;;;;;;;;;
1617.0;1549.5;;;;-1.5823443;-0.10893251;-0.268055;;;;;;;;;;;;;;;
1617.0;1549.5;;;;-1.611275;-0.09562303;-0.29257205;;;;;;;;;;;;;;;
1617.0;1559.5;;;;-1.6790621;-0.09886934;-0.30752948;;;;;;;;;;;;;;;
1617.0;1559.5;;;;-1.7039607;-0.09719469;-0.29450992;;;;;;;;;;;;;;;
1617.0;1559.5;;;;-1.6885302;-0.0880127;-0.2902756;;;;;;;;;;;;;;;
1617.0;1559.5;;;;-1.6679003;-0.07629777;-0.28657153;;;;;;;;;;;;;;;
1617.0;1559.5;;;;-1.6484034;-0.06643296;-0.28335193;;;;;;;;;;;;;;;
1617.0;1562.0;262143;262143;13349;;;;;;;;;;;;;;;;;;
1671.0;1568.2;;;;;;;;;;;;;2733;;;;;;;;
1671.0;1568.2;;;;;;;;;;;;;2314;;;;;;;;
1671.0;1568.2;;;;;;;;;;;;;2107;;;;;;;;
1671.0;1568.2;;;;;;;;;;;;;2579;;;;;;;;
1671.0;1568.2;;;;;;;;;;;;;3018;;;;;;;;
1671.0;1569.5;;;;-1.6285594;-0.059875496;-0.2832146;;;;;;;;;;;;;;;
1671.0;1569.5;;;;-1.6102145;-0.05624009;-0.27953342;;;;;;;;;;;;;;;
1671.0;1569.5;;;;-1.5923121;-0.053352363;-0.26936343;;;;;;;;;;;;;;;
1671.0;1569.5;;;;-1.5739558;-0.050834663;-0.2572861;;;;;;;;;;;;;;;
1671.0;1569.5;;;;-1.5532534;-0.048694618;-0.24591449;;;;;;;;;;;;;;;
1671.0;1579.5;;;;-1.5294039;-0.048084266;-0.23846439;;;;;;;;;;;;;;;
1671.0;1579.5;;;;-1.5035517;-0.04837037;-0.23536304;;;;;;;;;;;;;;;
1671.0;1579.5;;;;-1.4801255;-0.048255928;-0.22976688;;;;;;;;;;;;;;;
1671.0;1579.5;;;;-1.4591752;-0.04886628;-0.22163394;;;;;;;;;;;;;;;
1671.0;1579.5;;;;-1.4391786;-0.05094529;-0.21310046;;;;;;;;;;;;;;;
1671.0;1582.0;262143;262143;13346;;;;;;;;;;;;;;;;;;
1671.0;1589.6;;;;-1.4183084;-0.0534401;-0.20436862;;;;;;;;;;;;;;;
1671.0;1589.6;;;;-1.3961793;-0.05592347;-0.19583514;;;;;;;;;;;;;;;
1671.0;1589.6;;;;-1.3769952;-0.058273323;-0.1887894;;;;;;;;;;;;;;;
1671.0;1589.6;;;;-1.3592836;-0.060466774;-0.17928316;;;;;;;;;;;;;;;
1671.0;1589.6;;;;-1.3390123;-0.06273652;-0.17128374;;;;;;;;;;;;;;;
1674.0;1599.9;;;;;;;;;;;;;;;;;-18.63918;-73.19865;-124.89319;;1505.8
1674.0;1599.9;;;;;;;;;;;;;;-1.4835048;-0.3081149;-0.09179968;;;;;1505.8
1674.0;1599.9;;;;;;;;;;;;;;;;;-25.749992;-65.80936;-121.63533;;1505.8
1674.0;1599.9;;;;;;;;;;;;;;-1.5233619;-0.3606067;-0.08575701;;;;;1505.8
1674.0;1599.9;;;;;;;;;;;;;;;;;-32.170326;-58.03476;-112.556076;;1515.3
1674.0;1599.9;;;;;;;;;;;;;;-1.5921507;-0.5083163;-0.09552293;;;;;1515.3
1674.0;1599.9;;;;;;;;;;;;;;;;;-37.938324;-52.167576;-103.0343;;1515.3
1674.0;1599.9;;;;;;;;;;;;;;-1.6143681;-0.6541948;-0.15155491;;;;;1515.3
1674.0;1599.9;;;;;;;;;;;;;;;;;-42.15369;-45.064392;-94.79049;;1525.0
1674.0;1599.9;;;;;;;;;;;;;;-1.6414685;-0.7561876;-0.22412793;;;;;1525.0
1674.0;1599.9;;;;;;;;;;;;;;;;;-45.785393;-38.510544;-88.57234;;1525.0
1674.0;1599.9;;;;;;;;;;;;;;-1.6347544;-0.8102054;-0.28894925;;;;;1525.0
1674.0;1599.7;;;;-1.3187829;-0.06647492;-0.16451265;;;;;;;;;;;;;;;
1674.0;1599.7;;;;-1.3008958;-0.07107545;-0.15768053;;;;;;;;;;;;;;;
1674.0;1599.7;;;;-1.2863656;-0.07551957;-0.15114976;;;;;;;;;;;;;;;
1674.0;1599.7;;;;-1.2774125;-0.07944489;-0.14550401;;;;;;;;;;;;;;;
1674.0;1599.7;;;;-1.2727929;-0.08323289;-0.14063264;;;;;;;;;;;;;;;
1674.0;1602.2;262143;262143;13349;;;;;;;;;;;;;;;;;;
1676.0;1607.7;;;;;;;;;;;;;;;;;-48.699913;-33.570362;-84.04416;;1534.7
1676.0;1607.7;;;;;;;;;;;;;;-1.5817744;-0.86831266;-0.33680227;;;;;1534.7
1676.0;1607.7;;;;;;;;;;;;;;;;;-48.623615;-29.759363;-80.58794;;1534.7
1676.0;1607.7;;;;;;;;;;;;;;-1.490402;-0.9062166;-0.35853145;;;;;1534.7
1676.0;1607.7;;;;;;;;;;;;;;;;;-44.64858;-26.058992;-78.31812;;1544.3
1676.0;1607.7;;;;;;;;;;;;;;-1.4250313;-0.8995636;-0.34229562;;;;;1544.3
1676.0;1607.7;;;;;;;;;;;;;;;;;-37.24021;-25.444807;-77.21946;;1544.3
1676.0;1607.7;;;;;;;;;;;;;;-1.3494674;-0.8530534;-0.2829066;;;;;1544.3
1676.0;1607.7;;;;;;;;;;;;;;;;;-29.107029;-26.963104;-75.60961;;1554.0
1676.0;1607.7;;;;;;;;;;;;;;-1.27781;-0.81160927;-0.21192053;;;;;1554.0
1676.0;1607.7;;;;;;;;;;;;;;;;;-21.271402;-29.213844;-72.88965;;1554.0
1676.0;1607.7;;;;;;;;;;;;;;-1.2231818;-0.74330884;-0.13324381;;;;;1554.0
1676.0;1608.2;;;;;;;;;;;;;2782;;;;;;;;
1676.0;1608.2;;;;;;;;;;;;;2354;;;;;;;;
1676.0;1608.2;;;;;;;;;;;;;2452;;;;;;;;
1676.0;1608.2;;;;;;;;;;;;;2773;;;;;;;;
1676.0;1608.2;;;;;;;;;;;;;2552;;;;;;;;
1676.0;1609.6;;;;-1.2723504;-0.08637238;-0.13649751;;;;;;;;;;;;;;;
1676.0;1609.6;;;;-1.2738076;-0.08974076;-0.13240053;;;;;;;;;;;;;;;
1676.0;1609.6;;;;-1.2756768;-0.09434511;-0.1284752;;;;;;;;;;;;;;;
1676.0;1609.6;;;;-1.2767297;-0.09935762;-0.12427904;;;;;;;;;;;;;;;
1676.0;1609.6;;;;-1.2750283;-0.10552217;-0.119785324;;;;;;;;;;;;;;;
1731.0;1619.5;;;;-1.2729455;-0.11320497;-0.11413194;;;;;;;;;;;;;;;
1731.0;1619.5;;;;-1.27063;-0.120533004;-0.107612625;;;;;;;;;;;;;;;
1731.0;1619.5;;;;-1.2679139;-0.12739946;-0.101253524;;;;;;;;;;;;;;;
1731.0;1619.5;;;;-1.2628213;-0.1335106;-0.094512954;;;;;;;;;;;;;;;
1731.0;1619.5;;;;-1.2571718;-0.1392708;-0.089248665;;;;;;;;;;;;;;;
1731.0;1622.2;262143;262143;13355;;;;;;;;;;;;;;;;;;
1731.0;1629.6;;;;-1.2543107;-0.14443208;-0.083904274;;;;;;;;;;;;;;;
1731.0;1629.6;;;;-1.2538148;-0.14944841;-0.07641984;;;;;;;;;;;;;;;
1731.0;1629.6;;;;-1.2523996;-0.15444566;-0.070213325;;;;;;;;;;;;;;;
1731.0;1629.6;;;;-1.2489091;-0.1595154;-0.06420518;;;;;;;;;;;;;;;
1731.0;1629.6;;;;-1.2441179;-0.16446687;-0.057529457;;;;;;;;;;;;;;;
1731.0;1639.5;;;;-1.239422;-0.1689377;-0.050380714;;;;;;;;;;;;;;;
1731.0;1639.5;;;;-1.234871;-0.17300798;-0.044872288;;;;;;;;;;;;;;;
1731.0;1639.5;;;;-1.2281915;-0.17768098;-0.039379124;;;;;;;;;;;;;;;
1731.0;1639.5;;;;-1.2207261;-0.18280794;-0.0334549;;;;;;;;;;;;;;;
1731.0;1639.5;;;;-1.2126962;-0.18757632;-0.027374271;;;;;;;;;;;;;;;
1731.0;1642.2;262143;262143;13349;;;;;;;;;;;;;;;;;;
1731.0;1648.4;;;;;;;;;;;;;1718;;;;;;;;
1731.0;1648.4;;;;;;;;;;;;;895;;;;;;;;
1731.0;1648.4;;;;;;;;;;;;;455;;;;;;;;
1731.0;1648.4;;;;;;;;;;;;;3;;;;;;;;
1731.0;1648.4;;;;;;;;;;;;;-413;;;;;;;;
1733.0;1649.6;;;;-1.2034074;-0.19195941;-0.021911623;;;;;;;;;;;;;;;
1733.0;1649.6;;;;-1.1938325;-0.19666675;-0.017124178;;;;;;;;;;;;;;;
1733.0;1649.6;;;;-1.1850854;-0.20096591;-0.013591768;;;;;;;;;;;;;;;
1733.0;1649.6;;;;-1.1767617;-0.20481494;-0.0093956;;;;;;;;;;;;;;;
1733.0;1649.6;;;;-1.169182;-0.20802692;-0.0036392217;;;;;;;;;;;;;;;
1733.0;1659.7;;;;-1.1620866;-0.21056369;0.0013656617;;;;;;;;;;;;;;;
1733.0;1659.7;;;;-1.154625;-0.2131615;0.0063781748;;;;;;;;;;;;;;;
1733.0;1659.7;;;;-1.1477891;-0.21579745;0.009677888;;;;;;;;;;;;;;;
1733.0;1659.7;;;;-1.140297;-0.2177315;0.011535645;;;;;;;;;;;;;;;
1733.0;1659.7;;;;-1.1323625;-0.21984866;0.0142936725;;;;;;;;;;;;;;;
1733.0;1660.2;;;;;;;;;;;;;;;;;-15.186773;-32.898956;-69.15875;;1563.7
1733.0;1660.2;;;;;;;;;;;;;;-1.134495;-0.6574908;-0.085573904;;;;;1563.7
1733.0;1660.2;;;;;;;;;;;;;;;;;-11.165959;-35.714287;-64.710686;;1563.7
1733.0;1660.2;;;;;;;;;;;;;;-1.038789;-0.5719169;-0.05304117;;;;;1563.7
1733.0;1660.2;;;;;;;;;;;;;;;;;-8.457442;-37.30888;-59.846798;;1573.3
1733.0;1660.2;;;;;;;;;;;;;;-0.95669425;-0.51442;-0.025513474;;;;;1573.3
1733.0;1660.2;;;;;;;;;;;;;;;;;-7.312998;-36.435284;-54.387802;;1573.3
1733.0;1660.2;;;;;;;;;;;;;;-0.9124424;-0.46662802;-0.015259255;;;;;1573.3
1733.0;1660.2;;;;;;;;;;;;;;;;;-7.4198127;-34.962765;-48.95932;;1583.0
1733.0;1660.2;;;;;;;;;;;;;;-0.87496567;-0.44874418;-0.0010986663;;;;;1583.0
1733.0;1660.2;;;;;;;;;;;;;;;;;-8.171331;-33.29188;-43.794064;;1583.0
1733.0;1660.2;;;;;;;;;;;;;;-0.8523209;-0.4265267;0.012146367;;;;;1583.0
1733.0;1662.4;262143;262143;13351;;;;;;;;;;;;;;;;;;
1735.0;1669.7;;;;-1.1245462;-0.22265247;0.018127443;;;;;;;;;;;;;;;
1735.0;1669.7;;;;-1.1173593;-0.22575381;0.020240786;;;;;;;;;;;;;;;
1735.0;1669.7;;;;-1.1103135;-0.22871783;0.01937485;;;;;;;;;;;;;;;
1735.0;1669.7;;;;-1.1043779;-0.23218158;0.018405916;;;;;;;;;;;;;;;
1735.0;1669.7;;;;-1.1009904;-0.23565295;0.016471865;;;;;;;;;;;;;;;
1735.0;1675.2;;;;;;;;;;;;;;;;;-9.392072;-31.44551;-38.777584;;1592.6
1735.0;1675.2;;;;;;;;;;;;;;-0.83425397;-0.42316964;0.023499252;;;;;1592.6
1735.0;1675.2;;;;;;;;;;;;;;;;;-10.509811;-29.156622;-33.604694;;1592.6
1735.0;1675.2;;;;;;;;;;;;;;-0.8352916;-0.38453323;0.03485214;;;;;1592.6
1735.0;1675.2;;;;;;;;;;;;;;;;;-13.035218;-27.41325;-28.75988;;1602.3
1735.0;1675.2;;;;;;;;;;;;;;-0.84902495;-0.35969114;0.042542804;;;;;1602.3
1735.0;1675.2;;;;;;;;;;;;;;;;;-16.136662;-26.42903;-24.079105;;1602.3
1735.0;1675.2;;;;;;;;;;;;;;-0.85695976;-0.3564562;0.051637318;;;;;1602.3
1735.0;1675.2;;;;;;;;;;;;;;;;;-19.27244;-25.498215;-19.627216;;1612.0
1735.0;1675.2;;;;;;;;;;;;;;-0.86953336;-0.35224465;0.0540788;;;;;1612.0
1735.0;1675.2;;;;;;;;;;;;;;;;;-21.725365;-25.448622;-15.251625;;1612.0
1735.0;1675.2;;;;;;;;;;;;;;-0.86123234;-0.3505356;0.056093022;;;;;1612.0
1735.0;1679.7;;;;-1.0979768;-0.23826984;0.01262665;;;;;;;;;;;;;;;
1735.0;1679.7;;;;-1.0932199;-0.24056247;0.010692597;;;;;;;;;;;;;;;
1735.0;1679.7;;;;-1.0854989;-0.24122241;0.011554719;;;;;;;;;;;;;;;
1735.0;1679.7;;;;-1.0743066;-0.24057391;0.012821199;;;;;;;;;;;;;;;
1735.0;1679.7;;;;-1.0622941;-0.23881152;0.013805391;;;;;;;;;;;;;;;
1735.0;1682.6;262143;262143;13348;;;;;;;;;;;;;;;;;;
1791.0;1688.7;;;;;;;;;;;;;-143;;;;;;;;
1791.0;1688.7;;;;;;;;;;;;;482;;;;;;;;
1791.0;1688.7;;;;;;;;;;;;;799;;;;;;;;
1791.0;1688.7;;;;;;;;;;;;;898;;;;;;;;
1791.0;1688.7;;;;;;;;;;;;;767;;;;;;;;
1791.0;1689.7;;;;-1.0518152;-0.23630527;0.0152092;;;;;;;;;;;;;;;
1791.0;1689.7;;;;-1.0430185;-0.23261264;0.017925264;;;;;;;;;;;;;;;
1791.0;1689.7;;;;-1.0364763;-0.22970966;0.019702913;;;;;;;;;;;;;;;
1791.0;1689.7;;;;-1.0317231;-0.22792056;0.02239609;;;;;;;;;;;;;;;
1791.0;1689.7;;;;-1.0267793;-0.22748569;0.02276993;;;;;;;;;;;;;;;
1791.0;1699.7;;;;-1.023491;-0.22771457;0.022586824;;;;;;;;;;;;;;;
1791.0;1699.7;;;;-1.0211831;-0.22884753;0.022010805;;;;;;;;;;;;;;;
1791.0;1699.7;;;;-1.0179712;-0.2303429;0.019851686;;;;;;;;;;;;;;;
1791.0;1699.7;;;;-1.0126001;-0.23161319;0.017177584;;;;;;;;;;;;;;;
1791.0;1699.7;;;;-1.0053178;-0.23143008;0.013423922;;;;;;;;;;;;;;;
1791.0;1702.6;262143;262143;13343;;;;;;;;;;;;;;;;;;
1791.0;1709.8;;;;-0.9973947;-0.23076251;0.010433198;;;;;;;;;;;;;;;
1791.0;1709.8;;;;-0.98975;-0.2287369;0.009830476;;;;;;;;;;;;;;;
1791.0;1709.8;;;;-0.9825593;-0.2257767;0.008049012;;;;;;;;;;;;;;;
1791.0;1709.8;;;;-0.97605145;-0.22275928;0.006019593;;;;;;;;;;;;;;;
1791.0;1709.8;;;;-0.9688226;-0.21956256;0.0024795535;;;;;;;;;;;;;;;
1808.0;1719.9;;;;-0.95993435;-0.21650699;-0.0013160707;;;;;;;;;;;;;;;
1808.0;1719.9;;;;-0.95142376;-0.21335223;-0.0056457524;;;;;;;;;;;;;;;
1808.0;1719.9;;;;-0.94355786;-0.21073917;-0.010581971;;;;;;;;;;;;;;;
1808.0;1719.9;;;;-0.9385263;-0.20848468;-0.014133455;;;;;;;;;;;;;;;
1808.0;1719.9;;;;-0.9336244;-0.20642474;-0.0166626;;;;;;;;;;;;;;;
1808.0;1720.4;;;;;;;;;;;;;;;;;-23.319956;-25.643177;-10.689108;;1621.5
1808.0;1720.4;;;;;;;;;;;;;;-0.8418836;-0.36115605;0.04626606;;;;;1621.5
1808.0;1720.4;;;;;;;;;;;;;;;;;-23.438215;-25.715658;-5.645924;;1621.5
1808.0;1720.4;;;;;;;;;;;;;;-0.82540363;-0.38685262;0.04565569;;;;;1621.5
1808.0;1720.4;;;;;;;;;;;;;;;;;-21.954254;-26.20014;-0.37766656;;1631.1
1808.0;1720.4;;;;;;;;;;;;;;-0.81154823;-0.39808345;0.047608875;;;;;1631.1
1808.0;1720.4;;;;;;;;;;;;;;;;;-19.451736;-26.703697;5.203406;;1631.1
1808.0;1720.4;;;;;;;;;;;;;;-0.79879147;-0.4161504;0.051332135;;;;;1631.1
1808.0;1720.4;;;;;;;;;;;;;;;;;-16.109959;-26.795252;10.853146;;1640.7
1808.0;1720.4;;;;;;;;;;;;;;-0.78591263;-0.43867305;0.056215096;;;;;1640.7
1808.0;1720.4;;;;;;;;;;;;;;;;;-11.848811;-26.589252;16.735588;;1640.7
1808.0;1720.4;;;;;;;;;;;;;;-0.77535325;-0.44544816;0.057924133;;;;;1640.7
1810.0;1721.1;;;;;;;;;;;;;;;;;-6.7712946;-26.39088;22.659992;;1650.3
1810.0;1721.1;;;;;;;;;;;;;;-0.7594226;-0.43208104;0.06329539;;;;;1650.3
1810.0;1721.1;;;;;;;;;;;;;;;;;-2.2621846;-25.849178;28.302103;;1650.3
1810.0;1721.1;;;;;;;;;;;;;;-0.73805964;-0.40070802;0.06811731;;;;;1650.3
1810.0;1721.1;;;;;;;;;;;;;;;;;1.2207403;-24.777214;33.64666;;1660.0
1810.0;1721.1;;;;;;;;;;;;;;-0.7198096;-0.37714773;0.08038575;;;;;1660.0
1810.0;1721.1;;;;;;;;;;;;;;;;;2.7962584;-23.380993;38.20536;;1660.0
1810.0;1721.1;;;;;;;;;;;;;;-0.69966733;-0.359447;0.09143346;;;;;1660.0
1810.0;1721.1;;;;;;;;;;;;;;;;;1.2627033;-21.099735;41.356396;;1669.6
1810.0;1721.1;;;;;;;;;;;;;;-0.6714072;-0.33613086;0.095156714;;;;;1669.6
1810.0;1721.1;;;;;;;;;;;;;;;;;-4.276406;-17.799921;42.970062;;1669.6
1810.0;1721.1;;;;;;;;;;;;;;-0.628193;-0.31049532;0.07147435;;;;;1669.6
1810.0;1722.6;262143;262143;13358;;;;;;;;;;;;;;;;;;
1810.0;1728.7;;;;;;;;;;;;;394;;;;;;;;
1810.0;1728.7;;;;;;;;;;;;;852;;;;;;;;
1810.0;1728.7;;;;;;;;;;;;;3461;;;;;;;;
1810.0;1728.7;;;;;;;;;;;;;5989;;;;;;;;
1810.0;1728.7;;;;;;;;;;;;;1467;;;;;;;;
1810.0;1729.8;;;;-0.9286424;-0.20488742;-0.02006531;;;;;;;;;;;;;;;
1810.0;1729.8;;;;-0.9241525;-0.20364001;-0.024101261;;;;;;;;;;;;;;;
1810.0;1729.8;;;;-0.92039883;-0.2016106;-0.026329044;;;;;;;;;;;;;;;
1810.0;1729.8;;;;-0.91731274;-0.19892123;-0.02933884;;;;;;;;;;;;;;;
1810.0;1729.8;;;;-0.9152261;-0.19633105;-0.032718662;;;;;;;;;;;;;;;
1852.0;1739.8;;;;-0.91212094;-0.19295886;-0.035804752;;;;;;;;;;;;;;;
1852.0;1739.8;;;;-0.90825284;-0.18985751;-0.040126804;;;;;;;;;;;;;;;
1852.0;1739.8;;;;-0.9032861;-0.18695451;-0.043426517;;;;;;;;;;;;;;;
1852.0;1739.8;;;;-0.8988992;-0.1840439;-0.04553223;;;;;;;;;;;;;;;
1852.0;1739.8;;;;-0.89330685;-0.18199159;-0.046535496;;;;;;;;;;;;;;;
1852.0;1739.9;;;;;;;;;;0.32807398;15.8772545;-2.4605548;;;;;;;;;
1852.0;1739.9;;;;;;;0.75081635;0.15924558;-0.23358867;;;;;;;;;;;;
1852.0;1739.9;;;;;;;;;;6.130406;33.185066;6.698813;;;;;;;;;
1852.0;1739.9;;;;;;;0.83260596;0.19318217;-0.25165564;;;;;;;;;;;;
1852.0;1742.8;262143;262143;13351;;;;;;;;;;;;;;;;;;
1852.0;1749.5;;;;;;;;;;-0.32425916;5.2110357;-0.4463332;;;;;;;;;
1852.0;1749.5;;;;;;;0.83046967;0.20685446;-0.24622333;;;;;;;;;;;;
1852.0;1749.5;;;;;;;;;;9.479813;14.263588;4.8829613;;;;;;;;;
1852.0;1749.5;;;;;;;0.83352154;0.2186346;-0.24195075;;;;;;;;;;;;
1852.0;1749.9;;;;-0.8875009;-0.18043901;-0.048194893;;;;;;;;;;;;;;;
1852.0;1749.9;;;;-0.8810502;-0.17877962;-0.05038453;;;;;;;;;;;;;;;
1852.0;1749.9;;;;-0.87417614;-0.17701723;-0.053337105;;;;;;;;;;;;;;;
1852.0;1749.9;;;;-0.8688928;-0.17520143;-0.05753327;;;;;;;;;;;;;;;
1852.0;1749.9;;;;-0.8617517;-0.17354967;-0.060550697;;;;;;;;;;;;;;;
1852.0;1759.0;;;;;;;;;;14.625996;19.310587;7.4999237;;;;;;;;;
1852.0;1759.0;;;;;;;0.8288827;0.22907193;-0.23645741;;;;;;;;;;;;
1852.0;1759.0;;;;;;;;;;12.833034;-18.63918;-15.060884;;;;;;;;;
1852.0;1759.0;;;;;;;0.8199103;0.23847163;-0.23047578;;;;;;;;;;;;
1853.0;1759.9;;;;-0.85686505;-0.17061235;-0.065292366;;;;;;;;;;;;;;;
1853.0;1759.9;;;;-0.8533021;-0.16826631;-0.068767555;;;;;;;;;;;;;;;
1853.0;1759.9;;;;-0.84620297;-0.16635515;-0.0711403;;;;;;;;;;;;;;;
1853.0;1759.9;;;;-0.8387071;-0.1645241;-0.07508088;;;;;;;;;;;;;;;
1853.0;1759.9;;;;-0.82984936;-0.16222383;-0.07564927;;;;;;;;;;;;;;;
1853.0;1762.9;262143;262143;13352;;;;;;;;;;;;;;;;;;
1853.0;1768.6;;;;;;;;;;16.186255;-19.882809;-16.472366;;;;;;;;;
1853.0;1768.6;;;;;;;0.81295204;0.24372081;-0.22254097;;;;;;;;;;;;
1853.0;1768.6;;;;;;;;;;19.52803;-20.05829;-17.170475;;;;;;;;;
1853.0;1768.6;;;;;;;0.8069094;0.25067905;-0.20990631;;;;;;;;;;;;
1853.0;1769.0;;;;;;;;;;;;;-12595;;;;;;;;
1853.0;1769.0;;;;;;;;;;;;;-26240;;;;;;;;
1853.0;1769.0;;;;;;;;;;;;;-26547;;;;;;;;
1853.0;1769.0;;;;;;;;;;;;;-13727;;;;;;;;
1853.0;1769.0;;;;;;;;;;;;;-507;;;;;;;;
1853.0;1770.0;;;;-0.8232347;-0.15955354;-0.077018745;;;;;;;;;;;;;;;
1853.0;1770.0;;;;-0.8175813;-0.15794756;-0.07800294;;;;;;;;;;;;;;;
1853.0;1770.0;;;;-0.8133241;-0.15564348;-0.080558784;;;;;;;;;;;;;;;
1853.0;1770.0;;;;-0.80996335;-0.15382768;-0.08369828;;;;;;;;;;;;;;;
1853.0;1770.0;;;;-0.80474484;-0.15322496;-0.084659584;;;;;;;;;;;;;;;
1853.0;1778.2;;;;;;;;;;22.076328;-13.203071;-12.440107;;;;;;;;;
1853.0;1778.2;;;;;;;0.80343026;0.2562334;-0.1909238;;;;;;;;;;;;
1853.0;1778.2;;;;;;;;;;22.717215;-2.6131475;-4.421369;;;;;;;;;
1853.0;1778.2;;;;;;;0.79964596;0.2614826;-0.17383343;;;;;;;;;;;;
1857.0;1780.1;;;;-0.7980348;-0.15178682;-0.083896644;;;;;;;;;;;;;;;
1857.0;1780.1;;;;-0.79195035;-0.1497841;-0.084026344;;;;;;;;;;;;;;;
1857.0;1780.1;;;;-0.78502667;-0.1479416;-0.08500672;;;;;;;;;;;;;;;
1857.0;1780.1;;;;-0.77830136;-0.14613725;-0.08595658;;;;;;;;;;;;;;;
1857.0;1780.1;;;;-0.7708322;-0.14522554;-0.08689881;;;;;;;;;;;;;;;
1857.0;1781.0;;;;;;;;;;;;;;;;;-11.898404;-13.439589;43.8818;;1679.3
1857.0;1781.0;;;;;;;;;;;;;;-0.59218115;-0.28791162;0.043763544;;;;;1679.3
1857.0;1781.0;;;;;;;;;;;;;;;;;-20.405437;-8.896146;44.614243;;1679.3
1857.0;1781.0;;;;;;;;;;;;;;-0.5627613;-0.25659963;0.017151402;;;;;1679.3
1857.0;1781.0;;;;;;;;;;;;;;;;;-30.00351;-4.676962;45.2208;;1688.8
1857.0;1781.0;;;;;;;;;;;;;;-0.5307169;-0.2247383;-0.019714957;;;;;1688.8
1857.0;1781.0;;;;;;;;;;;;;;;;;-40.223396;-0.51118505;45.97232;;1688.8
1857.0;1781.0;;;;;;;;;;;;;;-0.51167333;-0.19891964;-0.04425184;;;;;1688.8
1857.0;1781.0;;;;;;;;;;;;;;;;;-50.63402;3.0060732;47.078617;;1698.4
1857.0;1781.0;;;;;;;;;;;;;;-0.49934384;-0.17883846;-0.07074191;;;;;1698.4
1857.0;1781.0;;;;;;;;;;;;;;;;;-60.720387;5.8061466;48.413803;;1698.4
1857.0;1781.0;;;;;;;;;;;;;;-0.4983062;-0.14093448;-0.080996126;;;;;1698.4
1859.0;1781.8;;;;;;;;;;;;;;;;;-71.4362;7.8852196;49.790947;;1708.0
1859.0;1781.8;;;;;;;;;;;;;;-0.49464402;-0.107058935;-0.0954619;;;;;1708.0
1859.0;1781.8;;;;;;;;;;;;;;;;;-82.46483;9.8155155;51.25202;;1708.0
1859.0;1781.8;;;;;;;;;;;;;;-0.49543747;-0.07696768;-0.09552293;;;;;1708.0
1859.0;1781.8;;;;;;;;;;;;;;;;;-93.81008;11.589404;52.69021;;1717.7
1859.0;1781.8;;;;;;;;;;;;;;-0.50361645;-0.05835139;-0.091372415;;;;;1717.7
1859.0;1781.8;;;;;;;;;;;;;;;;;-105.08667;12.638477;53.91858;;1717.7
1859.0;1781.8;;;;;;;;;;;;;;-0.5103305;-0.06433302;-0.07293924;;;;;1717.7
1859.0;1781.8;;;;;;;;;;;;;;;;;-115.44008;13.4891815;55.612354;;1727.4
1859.0;1781.8;;;;;;;;;;;;;;-0.51655626;-0.089602344;-0.08215583;;;;;1727.4
1859.0;1781.8;;;;;;;;;;;;;;;;;-122.974335;13.4167;58.599354;;1727.4
1859.0;1781.8;;;;;;;;;;;;;;-0.53444016;-0.15387432;-0.09027375;;;;;1727.4
1859.0;1783.0;262143;262143;13340;;;;;;;;;;;;;;;;;;
1859.0;1787.7;;;;;;;;;;22.93466;-1.0719626;-2.9564807;;;;;;;;;
1859.0;1787.7;;;;;;;0.7928709;0.26715904;-0.16119877;;;;;;;;;;;;
1859.0;1787.7;;;;;;;;;;23.068178;-0.40437025;-1.1635182;;;;;;;;;
1859.0;1787.7;;;;;;;0.77535325;0.26978362;-0.15485092;;;;;;;;;;;;
1859.0;1790.0;;;;-0.7684709;-0.14554979;-0.09109498;;;;;;;;;;;;;;;
1859.0;1790.0;;;;-0.7665483;-0.14795686;-0.09335328;;;;;;;;;;;;;;;
1859.0;1790.0;;;;-0.74610144;-0.14850618;-0.08449174;;;;;;;;;;;;;;;
1859.0;1790.0;;;;-0.7076989;-0.13961793;-0.073932655;;;;;;;;;;;;;;;
1859.0;1790.0;;;;-0.69204336;-0.1286049;-0.07697297;;;;;;;;;;;;;;;
1913.0;1797.2;;;;;;;;;;23.21314;-1.1902219;0.46540728;;;;;;;;;
1913.0;1797.2;;;;;;;0.7575915;0.26856288;-0.14862514;;;;;;;;;;;;
1913.0;1797.2;;;;;;;;;;23.300882;-2.8725548;1.5984069;;;;;;;;;
1913.0;1797.2;;;;;;;0.75441754;0.26355785;-0.1431318;;;;;;;;;;;;
1913.0;1799.9;;;;-0.70091635;-0.12321474;-0.07912446;;;;;;;;;;;;;;;
1913.0;1799.9;;;;-0.7079659;-0.123878494;-0.07975388;;;;;;;;;;;;;;;
1913.0;1799.9;;;;-0.7076226;-0.1287079;-0.07944489;;;;;;;;;;;;;;;
1913.0;1799.9;;;;-0.71007925;-0.1349907;-0.084003456;;;;;;;;;;;;;;;
1913.0;1799.9;;;;-0.70704657;-0.14022066;-0.082824714;;;;;;;;;;;;;;;
1913.0;1803.1;262143;262143;13348;;;;;;;;;;;;;;;;;;
1913.0;1806.8;;;;;;;;;;23.609882;-4.6388135;2.2049623;;;;;;;;;
1913.0;1806.8;;;;;;;0.76058227;0.25812554;-0.13257241;;;;;;;;;;;;
1913.0;1806.8;;;;;;;;;;23.97992;-6.0541096;2.4071476;;;;;;;;;
1913.0;1806.8;;;;;;;0.77571946;0.25074008;-0.117313154;;;;;;;;;;;;
1913.0;1809.1;;;;;;;;;;;;;4020;;;;;;;;
1913.0;1809.1;;;;;;;;;;;;;2443;;;;;;;;
1913.0;1809.1;;;;;;;;;;;;;1405;;;;;;;;
1913.0;1809.1;;;;;;;;;;;;;2374;;;;;;;;
1913.0;1809.1;;;;;;;;;;;;;2895;;;;;;;;
1913.0;1810.0;;;;-0.6894837;-0.13737108;-0.075752266;;;;;;;;;;;;;;;
1913.0;1810.0;;;;-0.6790009;-0.13016893;-0.07811356;;;;;;;;;;;;;;;
1913.0;1810.0;;;;-0.68315893;-0.12404634;-0.08052445;;;;;;;;;;;;;;;
1913.0;1810.0;;;;-0.6885987;-0.12205507;-0.08041001;;;;;;;;;;;;;;;
1913.0;1810.0;;;;-0.687069;-0.12274553;-0.079788215;;;;;;;;;;;;;;;
1916.0;1816.2;;;;;;;;;;24.182104;-6.7026277;2.521592;;;;;;;;;
1916.0;1816.2;;;;;;;0.7911008;0.24134037;-0.11017182;;;;;;;;;;;;
1916.0;1816.2;;;;;;;;;;24.140142;-6.183813;2.4338512;;;;;;;;;
1916.0;1816.2;;;;;;;0.7992187;0.23194067;-0.10943937;;;;;;;;;;;;
1916.0;1819.9;;;;-0.6840554;-0.12508012;-0.08065797;;;;;;;;;;;;;;;
1916.0;1819.9;;;;-0.6836243;-0.12725069;-0.080802925;;;;;;;;;;;;;;;
1916.0;1819.9;;;;-0.68339545;-0.12763597;-0.07995988;;;;;;;;;;;;;;;
1916.0;1819.9;;;;-0.68534476;-0.12731554;-0.07982636;;;;;;;;;;;;;;;
1916.0;1819.9;;;;-0.69313055;-0.12739946;-0.08132935;;;;;;;;;;;;;;;
1916.0;1823.1;262143;262143;13340;;;;;;;;;;;;;;;;;;
1916.0;1825.8;;;;;;;;;;24.071474;-4.9058504;2.422407;;;;;;;;;
1916.0;1825.8;;;;;;;0.7917722;0.22577593;-0.10736412;;;;;;;;;;;;
1916.0;1825.8;;;;;;;;;;24.040956;-3.5096285;2.6551104;;;;;;;;;
1916.0;1825.8;;;;;;;0.78273875;0.22095402;-0.102725305;;;;;;;;;;;;
1916.0;1830.0;;;;-0.7031365;-0.13002397;-0.08393098;;;;;;;;;;;;;;;
1916.0;1830.0;;;;-0.6898919;-0.12960054;-0.07382584;;;;;;;;;;;;;;;
1916.0;1830.0;;;;-0.6677361;-0.12257005;-0.07082368;;;;;;;;;;;;;;;
1916.0;1830.0;;;;-0.6693154;-0.11690523;-0.07708741;;;;;;;;;;;;;;;
1916.0;1830.0;;;;-0.6810227;-0.114913955;-0.0747757;;;;;;;;;;;;;;;
1916.0;1835.4;;;;;;;;;;24.296549;-2.3842587;2.750481;;;;;;;;;
1916.0;1835.4;;;;;;;0.7768792;0.2233955;-0.094485305;;;;;;;;;;;;
1916.0;1835.4;;;;;;;;;;24.300364;-1.2703329;2.4262216;;;;;;;;;
1916.0;1835.4;;;;;;;0.7718741;0.22571489;-0.092837304;;;;;;;;;;;;
1918.0;1840.1;;;;-0.6873589;-0.115928665;-0.072486885;;;;;;;;;;;;;;;
1918.0;1840.1;;;;-0.6907502;-0.119258896;-0.07331086;;;;;;;;;;;;;;;
1918.0;1840.1;;;;-0.69393164;-0.122856155;-0.073818214;;;;;;;;;;;;;;;
1918.0;1840.1;;;;-0.69783026;-0.12450029;-0.07276536;;;;;;;;;;;;;;;
1918.0;1840.1;;;;-0.7025185;-0.12513734;-0.07098771;;;;;;;;;;;;;;;
1918.0;1840.9;;;;;;;;;;;;;;;;;-124.9733;12.432477;62.76513;;1737.1
1918.0;1840.9;;;;;;;;;;;;;;-0.54585403;-0.24042481;-0.092471085;;;;;1737.1
1918.0;1840.9;;;;;;;;;;;;;;;;;-124.988556;10.334331;67.86553;;1737.1
1918.0;1840.9;;;;;;;;;;;;;;-0.55671865;-0.34003723;-0.08545183;;;;;1737.1
1918.0;1840.9;;;;;;;;;;;;;;;;;-124.96567;7.133702;73.54579;;1746.5
1918.0;1840.9;;;;;;;;;;;;;;-0.5618458;-0.43006682;-0.08252205;;;;;1746.5
1918.0;1840.9;;;;;;;;;;;;;;;;;-123.13074;3.2006288;79.195526;;1746.5
1918.0;1840.9;;;;;;;;;;;;;;-0.5512253;-0.5206458;-0.08160649;;;;;1746.5
1918.0;1840.9;;;;;;;;;;;;;;;;;-115.3943;-0.9193701;84.70794;;1756.0
1918.0;1840.9;;;;;;;;;;;;;;-0.53956723;-0.6151311;-0.07238991;;;;;1756.0
1918.0;1840.9;;;;;;;;;;;;;;;;;-104.18256;-5.558183;89.07971;;1756.0
1918.0;1840.9;;;;;;;;;;;;;;-0.514481;-0.6960051;-0.08600116;;;;;1756.0
1919.0;1841.6;;;;;;;;;;;;;;;;;-91.143524;-8.365887;92.2956;;1765.7
1919.0;1841.6;;;;;;;;;;;;;;-0.51045257;-0.7849971;-0.112186044;;;;;1765.7
1919.0;1841.6;;;;;;;;;;;;;;;;;-77.05161;-10.185553;94.53108;;1765.7
1919.0;1841.6;;;;;;;;;;;;;;-0.5172277;-0.8551897;-0.13397625;;;;;1765.7
1919.0;1841.6;;;;;;;;;;;;;;;;;-62.36839;-11.505478;96.46901;;1775.3
1919.0;1841.6;;;;;;;;;;;;;;-0.53242594;-0.9175085;-0.15143284;;;;;1775.3
1919.0;1841.6;;;;;;;;;;;;;;;;;-47.414318;-12.691885;97.33879;;1775.3
1919.0;1841.6;;;;;;;;;;;;;;-0.52919096;-0.96212655;-0.15222633;;;;;1775.3
1919.0;1841.6;;;;;;;;;;;;;;;;;-33.08588;-12.356182;97.4456;;1784.9
1919.0;1841.6;;;;;;;;;;;;;;-0.5208289;-0.961272;-0.14209418;;;;;1784.9
1919.0;1841.6;;;;;;;;;;;;;;;;;-20.47792;-11.1507;96.97638;;1784.9
1919.0;1841.6;;;;;;;;;;;;;;-0.52015746;-0.9499191;-0.13153477;;;;;1784.9
1919.0;1843.2;262143;262143;13338;;;;;;;;;;;;;;;;;;
1919.0;1844.8;;;;;;;;;;24.330883;-0.12970367;2.0218513;;;;;;;;;
1919.0;1844.8;;;;;;;0.758446;0.22858363;-0.09479049;;;;;;;;;;;;
1919.0;1844.8;;;;;;;;;;24.407179;1.1215552;1.8807031;;;;;;;;;
1919.0;1844.8;;;;;;;0.74288154;0.22675252;-0.09533983;;;;;;;;;;;;
1919.0;1849.2;;;;;;;;;;;;;2593;;;;;;;;
1919.0;1849.2;;;;;;;;;;;;;2323;;;;;;;;
1919.0;1849.2;;;;;;;;;;;;;1942;;;;;;;;
1919.0;1849.2;;;;;;;;;;;;;1467;;;;;;;;
1919.0;1849.2;;;;;;;;;;;;;1148;;;;;;;;
1920.0;1850.0;;;;-0.7079087;-0.12501909;-0.07044984;;;;;;;;;;;;;;;
1920.0;1850.0;;;;-0.71298224;-0.1236725;-0.070018776;;;;;;;;;;;;;;;
1920.0;1850.0;;;;-0.71765524;-0.12311174;-0.0709343;;;;;;;;;;;;;;;
1920.0;1850.0;;;;-0.7220002;-0.123115554;-0.073184974;;;;;;;;;;;;;;;
1920.0;1850.0;;;;-0.7256852;-0.12371446;-0.074264534;;;;;;;;;;;;;;;
1920.0;1854.4;;;;;;;;;;24.2584;2.0638144;1.6556292;;;;;;;;;
1920.0;1854.4;;;;;;;0.7307962;0.22418897;-0.09631642;;;;;;;;;;;;
1920.0;1854.4;;;;;;;;;;24.246956;2.8153324;1.167333;;;;;;;;;
1920.0;1854.4;;;;;;;0.7187109;0.21625416;-0.09833064;;;;;;;;;;;;
1920.0;1860.0;;;;-0.72996527;-0.124626175;-0.07605744;;;;;;;;;;;;;;;
1920.0;1860.0;;;;-0.7341996;-0.12503816;-0.077140816;;;;;;;;;;;;;;;
1920.0;1860.0;;;;-0.7380486;-0.12533952;-0.07964326;;;;;;;;;;;;;;;
1920.0;1860.0;;;;-0.74277884;-0.12601854;-0.0804596;;;;;;;;;;;;;;;
1920.0;1860.0;;;;-0.7489663;-0.12762834;-0.081005104;;;;;;;;;;;;;;;
1920.0;1863.3;262143;262143;13343;;;;;;;;;;;;;;;;;;
1920.0;1864.0;;;;;;;;;;24.39192;3.402814;0.6027406;;;;;;;;;
1920.0;1864.0;;;;;;;0.709006;0.21289712;-0.0954619;;;;;;;;;;;;
1920.0;1864.0;;;;;;;;;;24.704735;3.688925;0.19837031;;;;;;;;;
1920.0;1864.0;;;;;;;0.702353;0.20954008;-0.09210486;;;;;;;;;;;;
1970.0;1870.1;;;;-0.7543222;-0.12903215;-0.08113862;;;;;;;;;;;;;;;
1970.0;1870.1;;;;-0.7595483;-0.12989046;-0.082263954;;;;;;;;;;;;;;;
1970.0;1870.1;;;;-0.7658349;-0.13126375;-0.08322907;;;;;;;;;;;;;;;
1970.0;1870.1;;;;-0.7716943;-0.13288881;-0.0851059;;;;;;;;;;;;;;;
1970.0;1870.1;;;;-0.77694714;-0.13484193;-0.08592225;;;;;;;;;;;;;;;
1970.0;1873.4;;;;;;;;;;24.998474;3.8987396;-0.25559253;;;;;;;;;
1970.0;1873.4;;;;;;;0.70113224;0.20764793;-0.087343976;;;;;;;;;;;;
1970.0;1873.4;;;;;;;;;;25.368511;4.1238136;-0.77822196;;;;;;;;;
1970.0;1873.4;;;;;;;0.69844663;0.20484024;-0.08105716;;;;;;;;;;;;
1970.0;1879.8;;;;-0.78198636;-0.13745119;-0.08588029;;;;;;;;;;;;;;;
1970.0;1879.8;;;;-0.7868806;-0.13950731;-0.08685685;;;;;;;;;;;;;;;
1970.0;1879.8;;;;-0.7911111;-0.14200212;-0.08736802;;;;;;;;;;;;;;;
1970.0;1879.8;;;;-0.7954904;-0.14359285;-0.08714677;;;;;;;;;;;;;;;
1970.0;1879.8;;;;-0.80075467;-0.14579774;-0.08857346;;;;;;;;;;;;;;;
1970.0;1882.8;;;;;;;;;;25.822474;4.1123695;-1.411481;;;;;;;;;
1970.0;1882.8;;;;;;;0.69338053;0.1988586;-0.06781213;;;;;;;;;;;;
1970.0;1882.8;;;;;;;;;;26.242104;4.4976654;-2.0027773;;;;;;;;;
1970.0;1882.8;;;;;;;0.6882534;0.19220558;-0.054933317;;;;;;;;;;;;
1970.0;1883.2;262143;262143;13334;;;;;;;;;;;;;;;;;;
1970.0;1889.3;;;;;;;;;;;;;809;;;;;;;;
1970.0;1889.3;;;;;;;;;;;;;290;;;;;;;;
1970.0;1889.3;;;;;;;;;;;;;-89;;;;;;;;
1970.0;1889.3;;;;;;;;;;;;;-244;;;;;;;;
1970.0;1889.3;;;;;;;;;;;;;-405;;;;;;;;
1972.0;1889.9;;;;-0.8066598;-0.1478615;-0.089134224;;;;;;;;;;;;;;;
1972.0;1889.9;;;;-0.8132287;-0.1496811;-0.089233406;;;;;;;;;;;;;;;
1972.0;1889.9;;;;-0.82044613;-0.1519127;-0.09017182;;;;;;;;;;;;;;;
1972.0;1889.9;;;;-0.8275796;-0.1540146;-0.09139634;;;;;;;;;;;;;;;
1972.0;1889.9;;;;-0.8353921;-0.15557863;-0.09322358;;;;;;;;;;;;;;;
1972.0;1892.5;;;;;;;;;;26.551104;5.0889616;-2.6589253;;;;;;;;;
1972.0;1892.5;;;;;;;0.6902676;0.1859798;-0.04687643;;;;;;;;;;;;
1972.0;1892.5;;;;;;;;;;26.940214;5.767998;-3.2654805;;;;;;;;;
1972.0;1892.5;;;;;;;0.685873;0.18182927;-0.03930784;;;;;;;;;;;;
1972.0;1900.0;;;;-0.8421174;-0.15704729;-0.09427644;;;;;;;;;;;;;;;
1972.0;1900.0;;;;-0.84676373;-0.15864564;-0.09572984;;;;;;;;;;;;;;;
1972.0;1900.0;;;;-0.8493997;-0.15951158;-0.096714035;;;;;;;;;;;;;;;
1972.0;1900.0;;;;-0.8501588;-0.16067888;-0.0978203;;;;;;;;;;;;;;;
1972.0;1900.0;;;;-0.8501245;-0.16159059;-0.09853746;;;;;;;;;;;;;;;
1973.0;1901.3;;;;;;;;;;;;;;;;;-10.0177;-10.0138855;94.70275;;1794.6
1973.0;1901.3;;;;;;;;;;;;;;-0.46040222;-0.906888;-0.12152471;;;;;1794.6
1973.0;1901.3;;;;;;;;;;;;;;;;;-1.8807031;-6.172369;91.60512;;1794.6
1973.0;1901.3;;;;;;;;;;;;;;-0.4356212;-0.8681906;-0.1126133;;;;;1794.6
1973.0;1901.3;;;;;;;;;;;;;;;;;5.3750725;-0.8964812;89.30097;;1804.2
1973.0;1901.3;;;;;;;;;;;;;;-0.42561114;-0.819422;-0.089358196;;;;;1804.2
1973.0;1901.3;;;;;;;;;;;;;;;;;10.956145;4.9401836;87.7636;;1804.2
1973.0;1901.3;;;;;;;;;;;;;;-0.40882596;-0.7637562;-0.08941923;;;;;1804.2
1973.0;1901.3;;;;;;;;;;;;;;;;;15.614033;12.024293;86.69927;;1813.7
1973.0;1901.3;;;;;;;;;;;;;;-0.4239021;-0.7111423;-0.08209479;;;;;1813.7
1973.0;1901.3;;;;;;;;;;;;;;;;;19.73403;19.089329;86.5009;;1813.7
1973.0;1901.3;;;;;;;;;;;;;;-0.46528518;-0.6740928;-0.06811731;;;;;1813.7
1973.0;1902.2;;;;;;;;;;;;;;;;;23.609882;24.746696;86.882385;;1823.4
1973.0;1902.2;;;;;;;;;;;;;;-0.49836725;-0.6543779;-0.06079287;;;;;1823.4
1973.0;1902.2;;;;;;;;;;;;;;;;;26.665548;30.175175;87.35161;;1823.4
1973.0;1902.2;;;;;;;;;;;;;;-0.5418256;-0.63075656;-0.071535386;;;;;1823.4
1973.0;1902.2;;;;;;;;;;;;;;;;;28.344065;35.737175;87.55761;;1833.0
1973.0;1902.2;;;;;;;;;;;;;;-0.5957213;-0.59559923;-0.08172857;;;;;1833.0
1973.0;1902.2;;;;;;;;;;;;;;;;;28.218176;40.364544;87.038795;;1833.0
1973.0;1902.2;;;;;;;;;;;;;;-0.6523026;-0.56532484;-0.09619434;;;;;1833.0
1973.0;1902.2;;;;;;;;;;;;;;;;;26.596882;44.042027;85.31068;;1842.7
1973.0;1902.2;;;;;;;;;;;;;;-0.6949675;-0.51332134;-0.09741508;;;;;1842.7
1973.0;1902.2;;;;;;;;;;;;;;;;;23.461103;46.88406;82.6632;;1842.7
1973.0;1902.2;;;;;;;;;;;;;;-0.7328715;-0.48567155;-0.09418012;;;;;1842.7
1978.0;1902.0;;;;;;;;;;27.23777;6.8933682;-3.7575915;;;;;;;;;
1978.0;1902.0;;;;;;;0.67989135;0.17853329;-0.04199347;;;;;;;;;;;;
1978.0;1902.0;;;;;;;;;;27.302622;8.3925905;-4.325999;;;;;;;;;
1978.0;1902.0;;;;;;;0.6803186;0.17902158;-0.047425766;;;;;;;;;;;;
1978.0;1903.3;262143;262143;13339;;;;;;;;;;;;;;;;;;
1978.0;1910.0;;;;-0.8498422;-0.16281511;-0.10019685;;;;;;;;;;;;;;;
1978.0;1910.0;;;;-0.8502008;-0.16405107;-0.10193254;;;;;;;;;;;;;;;
1978.0;1910.0;;;;-0.8512422;-0.16547395;-0.103195205;;;;;;;;;;;;;;;
1978.0;1910.0;;;;-0.85239804;-0.16679384;-0.10432817;;;;;;;;;;;;;;;
1978.0;1910.0;;;;-0.85505307;-0.16825487;-0.104412094;;;;;;;;;;;;;;;
1978.0;1911.6;;;;;;;;;;27.401806;10.204626;-5.043184;;;;;;;;;
1978.0;1911.6;;;;;;;0.67921996;0.17731254;-0.052186653;;;;;;;;;;;;
1978.0;1911.6;;;;;;;;;;27.550583;12.062441;-5.7298503;;;;;;;;;
1978.0;1911.6;;;;;;;0.6758629;0.17236854;-0.057374798;;;;;;;;;;;;
1978.0;1920.0;;;;-0.85847104;-0.16944887;-0.105079666;;;;;;;;;;;;;;;
1978.0;1920.0;;;;-0.8624917;-0.17025377;-0.105461136;;;;;;;;;;;;;;;
1978.0;1920.0;;;;-0.86623776;-0.1703911;-0.107116714;;;;;;;;;;;;;;;
1978.0;1920.0;;;;-0.8693582;-0.17045595;-0.109130874;;;;;;;;;;;;;;;
1978.0;1920.0;;;;-0.8721734;-0.1703911;-0.11028291;;;;;;;;;;;;;;;
1978.0;1921.1;;;;;;;;;;27.653584;14.004181;-6.241035;;;;;;;;;
1978.0;1921.1;;;;;;;0.67415386;0.1657155;-0.059450056;;;;;;;;;;;;
1978.0;1921.1;;;;;;;;;;27.809992;16.07944;-6.824702;;;;;;;;;
1978.0;1921.1;;;;;;;0.6715293;0.16138189;-0.06402783;;;;;;;;;;;;
2032.0;1923.5;262143;262143;13341;;;;;;;;;;;;;;;;;;
2032.0;1929.4;;;;;;;;;;;;;-668;;;;;;;;
2032.0;1929.4;;;;;;;;;;;;;-967;;;;;;;;
2032.0;1929.4;;;;;;;;;;;;;-1020;;;;;;;;
2032.0;1929.4;;;;;;;;;;;;;-917;;;;;;;;
2032.0;1929.4;;;;;;;;;;;;;-913;;;;;;;;
2032.0;1930.0;;;;-0.87451565;-0.17026903;-0.111583725;;;;;;;;;;;;;;;
2032.0;1930.0;;;;-0.87511075;-0.16995241;-0.11265184;;;;;;;;;;;;;;;
2032.0;1930.0;;;;-0.8740884;-0.17025758;-0.11235429;;;;;;;;;;;;;;;
2032.0;1930.0;;;;-0.8709794;-0.17025377;-0.1132393;;;;;;;;;;;;;;;
2032.0;1930.0;;;;-0.8675157;-0.17028047;-0.11444093;;;;;;;;;;;;;;;
2032.0;1930.5;;;;;;;;;;28.019806;18.284403;-7.37022;;;;;;;;;
2032.0;1930.5;;;;;;;0.6631062;0.16180913;-0.06573687;;;;;;;;;;;;
2032.0;1930.5;;;;;;;;;;28.229622;20.260475;-7.698294;;;;;;;;;
2032.0;1930.5;;;;;;;0.6535234;0.16364025;-0.0679342;;;;;;;;;;;;
2032.0;1939.7;;;;-0.8641969;-0.17094423;-0.114921585;;;;;;;;;;;;;;;
2032.0;1939.7;;;;-0.86125576;-0.17155458;-0.11519624;;;;;;;;;;;;;;;
2032.0;1939.7;;;;-0.85845196;-0.17256166;-0.11469652;;;;;;;;;;;;;;;
2032.0;1939.7;;;;-0.8565675;-0.17439653;-0.1152115;;;;;;;;;;;;;;;
2032.0;1939.7;;;;-0.8546754;-0.17649843;-0.115936294;;;;;;;;;;;;;;;
2032.0;1939.9;;;;;;;;;;28.408916;21.931364;-8.136998;;;;;;;;;
2032.0;1939.9;;;;;;;0.6499222;0.16498306;-0.06939909;;;;;;;;;;;;
2032.0;1939.9;;;;;;;;;;28.496658;23.285624;-8.671071;;;;;;;;;
2032.0;1939.9;;;;;;;0.6499222;0.1645558;-0.07367168;;;;;;;;;;;;
2032.0;1943.3;262143;262143;13336;;;;;;;;;;;;;;;;;;
2034.0;1949.5;;;;;;;;;;28.683584;24.681845;-9.193701;;;;;;;;;
2034.0;1949.5;;;;;;;0.65236366;0.16168706;-0.078981906;;;;;;;;;;;;
2034.0;1949.5;;;;;;;;;;28.874325;25.91403;-9.613331;;;;;;;;;
2034.0;1949.5;;;;;;;0.64986116;0.15710929;-0.080568865;;;;;;;;;;;;
2034.0;1949.9;;;;-0.85227597;-0.17863084;-0.115871444;;;;;;;;;;;;;;;
2034.0;1949.9;;;;-0.8514749;-0.17995073;-0.11754228;;;;;;;;;;;;;;;
2034.0;1949.9;;;;-0.8524591;-0.18085481;-0.119827285;;;;;;;;;;;;;;;
2034.0;1949.9;;;;-0.8542863;-0.18247987;-0.121791855;;;;;;;;;;;;;;;
2034.0;1949.9;;;;-0.85512173;-0.18373491;-0.12241365;;;;;;;;;;;;;;;
2034.0;1959.1;;;;;;;;;;29.015472;27.241585;-9.868922;;;;;;;;;
2034.0;1959.1;;;;;;;0.64925075;0.15436262;-0.08575701;;;;;;;;;;;;
2034.0;1959.1;;;;;;;;;;29.217659;28.523361;-10.12833;;;;;;;;;
2034.0;1959.1;;;;;;;0.6494339;0.15393536;-0.0888699;;;;;;;;;;;;
2034.0;1960.0;;;;-0.8544961;-0.18527986;-0.123863235;;;;;;;;;;;;;;;
2034.0;1960.0;;;;-0.8544847;-0.18727495;-0.12616731;;;;;;;;;;;;;;;
2034.0;1960.0;;;;-0.85592663;-0.19081119;-0.13048936;;;;;;;;;;;;;;;
2034.0;1960.0;;;;-0.85990536;-0.19620135;-0.1358452;;;;;;;;;;;;;;;
2034.0;1960.0;;;;-0.865307;-0.20353702;-0.14295198;;;;;;;;;;;;;;;
2035.0;1960.9;;;;;;;;;;;;;;;;;20.306253;49.478134;79.61516;;1852.4
2035.0;1960.9;;;;;;;;;;;;;;-0.78597367;-0.44593647;-0.095706046;;;;;1852.4
2035.0;1960.9;;;;;;;;;;;;;;;;;16.28544;51.667835;76.12461;;1852.4
2035.0;1960.9;;;;;;;;;;;;;;-0.8469497;-0.38770714;-0.09863582;;;;;1852.4
2035.0;1960.9;;;;;;;;;;;;;;;;;10.509811;52.28965;72.336494;;1861.9
2035.0;1960.9;;;;;;;;;;;;;;-0.89492476;-0.35157323;-0.1142613;;;;;1861.9
2035.0;1960.9;;;;;;;;;;;;;;;;;3.2731102;51.61443;67.98379;;1861.9
2035.0;1960.9;;;;;;;;;;;;;;-0.91726434;-0.33167517;-0.12799463;;;;;1861.9
2035.0;1960.9;;;;;;;;;;;;;;;;;-3.215888;50.12665;63.966797;;1871.6
2035.0;1960.9;;;;;;;;;;;;;;-0.9477218;-0.32258064;-0.09588916;;;;;1871.6
2035.0;1960.9;;;;;;;;;;;;;;;;;-10.097812;47.29606;60.331276;;1871.6
2035.0;1960.9;;;;;;;;;;;;;;-0.96639913;-0.31434065;-0.076540425;;;;;1871.6
2035.0;1961.7;;;;;;;;;;;;;;;;;-15.854366;42.180397;57.134464;;1881.2
2035.0;1961.7;;;;;;;;;;;;;;-0.9582202;-0.32294688;-0.0740379;;;;;1881.2
2035.0;1961.7;;;;;;;;;;;;;;;;;-19.848475;36.9274;54.01013;;1881.2
2035.0;1961.7;;;;;;;;;;;;;;-0.9483932;-0.34662923;-0.040833768;;;;;1881.2
2035.0;1961.7;;;;;;;;;;;;;;;;;-22.70577;32.544178;50.778984;;1890.8
2035.0;1961.7;;;;;;;;;;;;;;-0.92446667;-0.36988434;0.019226661;;;;;1890.8
2035.0;1961.7;;;;;;;;;;;;;;;;;-26.245918;30.58336;47.42958;;1890.8
2035.0;1961.7;;;;;;;;;;;;;;-0.8980987;-0.4076052;0.025696585;;;;;1890.8
2035.0;1961.7;;;;;;;;;;;;;;;;;-31.189917;30.40025;43.248543;;1900.5
2035.0;1961.7;;;;;;;;;;;;;;-0.85189366;-0.44160283;-0.015137181;;;;;1900.5
2035.0;1961.7;;;;;;;;;;;;;;;;;-35.74099;33.75729;38.6021;;1900.5
2035.0;1961.7;;;;;;;;;;;;;;-0.824366;-0.45411542;-0.01843318;;;;;1900.5
2037.0;1963.4;262143;262143;13350;;;;;;;;;;;;;;;;;;
2037.0;1968.4;;;;;;;;;;29.534288;29.59914;-10.425886;;;;;;;;;
2037.0;1968.4;;;;;;;0.6511429;0.15381329;-0.093935974;;;;;;;;;;;;
2037.0;1968.4;;;;;;;;;;29.869991;30.636768;-10.692923;;;;;;;;;
2037.0;1968.4;;;;;;;0.64949495;0.15552233;-0.0994293;;;;;;;;;;;;
2037.0;1969.3;;;;;;;;;;;;;-830;;;;;;;;
2037.0;1969.3;;;;;;;;;;;;;-639;;;;;;;;
2037.0;1969.3;;;;;;;;;;;;;-572;;;;;;;;
2037.0;1969.3;;;;;;;;;;;;;-600;;;;;;;;
2037.0;1969.3;;;;;;;;;;;;;-659;;;;;;;;
2037.0;1969.7;;;;-0.8712808;-0.2114487;-0.14945985;;;;;;;;;;;;;;;
2037.0;1969.7;;;;-0.8795968;-0.21953204;-0.15413286;;;;;;;;;;;;;;;
2037.0;1969.7;;;;-0.8900262;-0.22701266;-0.15832902;;;;;;;;;;;;;;;
2037.0;1969.7;;;;-0.9015504;-0.23274997;-0.16247179;;;;;;;;;;;;;;;
2037.0;1969.7;;;;-0.91425717;-0.23581317;-0.166523;;;;;;;;;;;;;;;
2037.0;1977.9;;;;;;;;;;30.220953;31.483658;-11.001924;;;;;;;;;
2037.0;1977.9;;;;;;;0.6440016;0.15735343;-0.10467849;;;;;;;;;;;;
2037.0;1977.9;;;;;;;;;;30.690176;32.177956;-11.204107;;;;;;;;;
2037.0;1977.9;;;;;;;0.6491287;0.15540025;-0.110721156;;;;;;;;;;;;
2037.0;1979.7;;;;-0.9277917;-0.23725513;-0.17010118;;;;;;;;;;;;;;;
2037.0;1979.7;;;;-0.94065106;-0.23702243;-0.17413332;;;;;;;;;;;;;;;
2037.0;1979.7;;;;-0.9532281;-0.2361832;-0.17761613;;;;;;;;;;;;;;;
2037.0;1979.7;;;;-0.96644986;-0.2350693;-0.18091966;;;;;;;;;;;;;;;
2037.0;1979.7;;;;-0.9810449;-0.23399737;-0.18503954;;;;;;;;;;;;;;;
2037.0;1983.4;262143;262143;13340;;;;;;;;;;;;;;;;;;
2092.0;1987.5;;;;;;;;;;31.098362;32.757805;-11.509293;;;;;;;;;
2092.0;1987.5;;;;;;;0.6567583;0.1518601;-0.11651967;;;;;;;;;;;;
2092.0;1987.5;;;;;;;;;;31.601917;33.047733;-11.806849;;;;;;;;;
2092.0;1987.5;;;;;;;0.65895563;0.1528367;-0.12024293;;;;;;;;;;;;
2092.0;1989.8;;;;-0.9978715;-0.23408511;-0.19030002;;;;;;;;;;;;;;;
2092.0;1989.8;;;;-1.015793;-0.23609164;-0.19512561;;;;;;;;;;;;;;;
2092.0;1989.8;;;;-1.034588;-0.23959735;-0.20058444;;;;;;;;;;;;;;;
2092.0;1989.8;;;;-1.0534974;-0.24393466;-0.2056885;;;;;;;;;;;;;;;
2092.0;1989.8;;;;-1.0709878;-0.24835971;-0.21092227;;;;;;;;;;;;;;;
2092.0;1997.0;;;;;;;;;;32.07114;33.21177;-12.043367;;;;;;;;;
2092.0;1997.0;;;;;;;0.6713462;0.1528367;-0.123661004;;;;;;;;;;;;
2092.0;1997.0;;;;;;;;;;32.609028;33.35673;-12.325664;;;;;;;;;
2092.0;1997.0;;;;;;;0.68422496;0.15204321;-0.12732323;;;;;;;;;;;;
2092.0;1999.8;;;;-1.088257;-0.25203708;-0.21512988;;;;;;;;;;;;;;;
2092.0;1999.8;;;;-1.1033632;-0.25439075;-0.21879199;;;;;;;;;;;;;;;
2092.0;1999.8;;;;-1.1172601;-0.25522617;-0.22132495;;;;;;;;;;;;;;;
2092.0;1999.8;;;;-1.1296426;-0.25426868;-0.22453693;;;;;;;;;;;;;;;
2092.0;1999.8;;;;-1.1404878;-0.25127795;-0.22803882;;;;;;;;;;;;;;;
2092.0;2003.5;262143;262143;13338;;;;;;;;;;;;;;;;;;
2092.0;2006.7;;;;;;;;;;33.242287;33.40251;-12.615588;;;;;;;;;
2092.0;2006.7;;;;;;;0.70082706;0.14667195;-0.12897122;;;;;;;;;;;;
2092.0;2006.7;;;;;;;;;;33.98617;33.15455;-12.779626;;;;;;;;;
2092.0;2006.7;;;;;;;0.71596426;0.1398358;-0.13043611;;;;;;;;;;;;
2096.0;2009.5;;;;;;;;;;;;;-442;;;;;;;;
2096.0;2009.5;;;;;;;;;;;;;342;;;;;;;;
2096.0;2009.5;;;;;;;;;;;;;1145;;;;;;;;
2096.0;2009.5;;;;;;;;;;;;;1321;;;;;;;;
2096.0;2009.5;;;;;;;;;;;;;994;;;;;;;;
2096.0;2009.9;;;;-1.1497003;-0.24693683;-0.23053744;;;;;;;;;;;;;;;
2096.0;2009.9;;;;-1.1584855;-0.24223712;-0.23316959;;;;;;;;;;;;;;;
2096.0;2009.9;;;;-1.1669465;-0.23754886;-0.23604968;;;;;;;;;;;;;;;
2096.0;2009.9;;;;-1.1740991;-0.23334506;-0.23817447;;;;;;;;;;;;;;;
2096.0;2009.9;;;;-1.1798707;-0.22962192;-0.23989871;;;;;;;;;;;;;;;
2096.0;2016.3;;;;;;;;;;34.619434;33.18125;-12.916959;;;;;;;;;
2096.0;2016.3;;;;;;;0.7312845;0.13171789;-0.13129063;;;;;;;;;;;;
2096.0;2016.3;;;;;;;;;;35.309914;33.150734;-13.351849;;;;;;;;;
2096.0;2016.3;;;;;;;0.75191504;0.12720115;-0.13312174;;;;;;;;;;;;
2096.0;2020.0;;;;-1.18388;-0.22679904;-0.24253467;;;;;;;;;;;;;;;
2096.0;2020.0;;;;-1.1857492;-0.22454074;-0.24582675;;;;;;;;;;;;;;;
2096.0;2020.0;;;;-1.1863061;-0.22188571;-0.25032428;;;;;;;;;;;;;;;
2096.0;2020.0;;;;-1.1867601;-0.22039035;-0.25501254;;;;;;;;;;;;;;;
2096.0;2020.0;;;;-1.1870843;-0.21859363;-0.25856784;;;;;;;;;;;;;;;
2100.0;2021.1;;;;;;;;;;;;;;;;;-40.91006;37.53395;33.013397;;1910.1
2100.0;2021.1;;;;;;;;;;;;;;-0.86056095;-0.4610126;0.018311106;;;;;1910.1
2100.0;2021.1;;;;;;;;;;;;;;;;;-45.621357;39.151432;26.23066;;1910.1
2100.0;2021.1;;;;;;;;;;;;;;-0.8926664;-0.4456923;0.10333567;;;;;1910.1
2100.0;2021.1;;;;;;;;;;;;;;;;;-49.81002;43.67962;19.65392;;1919.8
2100.0;2021.1;;;;;;;;;;;;;;-0.98568684;-0.41010773;0.16394544;;;;;1919.8
2100.0;2021.1;;;;;;;;;;;;;;;;;-53.659172;50.95828;14.568773;;1919.8
2100.0;2021.1;;;;;;;;;;;;;;-1.1588489;-0.36872464;0.01965392;;;;;1919.8
2100.0;2021.1;;;;;;;;;;;;;;;;;-54.555653;58.133945;12.035737;;1929.4
2100.0;2021.1;;;;;;;;;;;;;;-1.3857235;-0.3606067;-0.30909148;;;;;1929.4
2100.0;2021.1;;;;;;;;;;;;;;;;;-46.59032;62.440872;11.997589;;1929.4
2100.0;2021.1;;;;;;;;;;;;;;-1.803766;-0.3719596;-0.4405652;;;;;1929.4
2100.0;2022.3;;;;;;;;;;;;;;;;;-36.06143;50.75228;7.526627;;1939.0
2100.0;2022.3;;;;;;;;;;;;;;-1.9998169;-0.38080996;-0.25782037;;;;;1939.0
2100.0;2022.3;;;;;;;;;;;;;;;;;-26.272621;30.327768;-2.418592;;1939.0
2100.0;2022.3;;;;;;;;;;;;;;-1.9970702;-0.30872524;0.09747612;;;;;1939.0
2100.0;2022.3;;;;;;;;;;;;;;;;;-30.00351;14.072847;-12.817774;;1948.7
2100.0;2022.3;;;;;;;;;;;;;;-1.9097873;-0.2560503;0.31019014;;;;;1948.7
2100.0;2022.3;;;;;;;;;;;;;;;;;-39.868618;8.087405;-20.008698;;1948.7
2100.0;2022.3;;;;;;;;;;;;;;-1.6532487;-0.1607715;0.50807214;;;;;1948.7
2100.0;2022.3;;;;;;;;;;;;;;;;;-51.236763;16.865292;-22.167881;;1958.4
2100.0;2022.3;;;;;;;;;;;;;;-1.3238319;-0.055482652;0.34553057;;;;;1958.4
2100.0;2022.3;;;;;;;;;;;;;;;;;-55.60854;18.532366;-20.359661;;1958.4
2100.0;2022.3;;;;;;;;;;;;;;-1.1324809;0.020813623;-0.032898955;;;;;1958.4
2101.0;2023.6;262143;262143;13345;;;;;;;;;;;;;;;;;;
2101.0;2025.7;;;;;;;;;;36.030914;33.3224;-14.02707;;;;;;;;;
2101.0;2025.7;;;;;;;0.76845604;0.12591937;-0.13183996;;;;;;;;;;;;
2101.0;2025.7;;;;;;;;;;36.614582;33.635216;-14.980773;;;;;;;;;
2101.0;2025.7;;;;;;;0.7885983;0.1208533;-0.1347087;;;;;;;;;;;;
2101.0;2029.9;;;;-1.1864816;-0.21825793;-0.2634659;;;;;;;;;;;;;;;
2101.0;2029.9;;;;-1.1843683;-0.21800616;-0.26692203;;;;;;;;;;;;;;;
2101.0;2029.9;;;;-1.1807977;-0.21759799;-0.2695084;;;;;;;;;;;;;;;
2101.0;2029.9;;;;-1.1755754;-0.21729663;-0.27209857;;;;;;;;;;;;;;;
2101.0;2029.9;;;;-1.171322;-0.21725085;-0.27608493;;;;;;;;;;;;;;;
2101.0;2035.3;;;;;;;;;;37.038025;33.913692;-16.235847;;;;;;;;;
2101.0;2035.3;;;;;;;0.81405073;0.11523789;-0.14087345;;;;;;;;;;;;
2101.0;2035.3;;;;;;;;;;37.453842;34.424877;-17.708364;;;;;;;;;
2101.0;2035.3;;;;;;;0.8247322;0.10943937;-0.14111759;;;;;;;;;;;;
2101.0;2039.9;;;;-1.1688348;-0.21788028;-0.2800484;;;;;;;;;;;;;;;
2101.0;2039.9;;;;-1.1667596;-0.21780398;-0.28276065;;;;;;;;;;;;;;;
2101.0;2039.9;;;;-1.1659356;-0.21870425;-0.28675082;;;;;;;;;;;;;;;
2101.0;2039.9;;;;-1.1664582;-0.21973804;-0.2909203;;;;;;;;;;;;;;;
2101.0;2039.9;;;;-1.1666833;-0.22015002;-0.29534152;;;;;;;;;;;;;;;
2101.0;2043.7;262143;262143;13347;;;;;;;;;;;;;;;;;;
2150.0;2044.8;;;;;;;;;;37.91162;35.3328;-19.142736;;;;;;;;;
2150.0;2044.8;;;;;;;0.8238777;0.113101594;-0.14038515;;;;;;;;;;;;
2150.0;2044.8;;;;;;;;;;38.28166;36.44673;-20.26429;;;;;;;;;
2150.0;2044.8;;;;;;;0.824366;0.11938841;-0.13928647;;;;;;;;;;;;
2150.0;2049.6;;;;;;;;;;;;;612;;;;;;;;
2150.0;2049.6;;;;;;;;;;;;;333;;;;;;;;
2150.0;2049.6;;;;;;;;;;;;;133;;;;;;;;
2150.0;2049.6;;;;;;;;;;;;;2;;;;;;;;
2150.0;2049.6;;;;;;;;;;;;;-228;;;;;;;;
2150.0;2050.0;;;;-1.1664888;-0.22174457;-0.2989426;;;;;;;;;;;;;;;
2150.0;2050.0;;;;-1.1653558;-0.22334674;-0.3043709;;;;;;;;;;;;;;;
2150.0;2050.0;;;;-1.1642762;-0.22460559;-0.31165698;;;;;;;;;;;;;;;
2150.0;2050.0;;;;-1.163479;-0.22658923;-0.3175812;;;;;;;;;;;;;;;
2150.0;2050.0;;;;-1.164219;-0.22784045;-0.3222237;;;;;;;;;;;;;;;
2150.0;2054.1;;;;;;;;;;38.487656;37.60262;-21.298105;;;;;;;;;
2150.0;2054.1;;;;;;;0.8221076;0.13043611;-0.13739432;;;;;;;;;;;;
2150.0;2054.1;;;;;;;;;;38.7814;38.232063;-22.148808;;;;;;;;;
2150.0;2054.1;;;;;;;0.8149052;0.1431318;-0.13287759;;;;;;;;;;;;
2150.0;2059.7;;;;-1.1647416;-0.23062518;-0.32475284;;;;;;;;;;;;;;;
2150.0;2059.7;;;;-1.1675912;-0.23300937;-0.32869342;;;;;;;;;;;;;;;
2150.0;2059.7;;;;-1.1721078;-0.2349396;-0.33497623;;;;;;;;;;;;;;;
2150.0;2059.7;;;;-1.1781389;-0.2375603;-0.34164432;;;;;;;;;;;;;;;
2150.0;2059.7;;;;-1.1845094;-0.24106982;-0.34726337;;;;;;;;;;;;;;;
2150.0;2063.7;;;;;;;;;;39.19721;38.186287;-22.606585;;;;;;;;;
2150.0;2063.7;;;;;;;0.8135014;0.15930662;-0.1271401;;;;;;;;;;;;
2150.0;2063.7;;;;;;;;;;39.70458;37.94214;-22.63329;;;;;;;;;
2150.0;2063.7;;;;;;;0.81966615;0.18414868;-0.12012085;;;;;;;;;;;;
2153.0;2063.7;262143;262143;13342;;;;;;;;;;;;;;;;;;
2153.0;2069.9;;;;-1.1914064;-0.24336246;-0.35087207;;;;;;;;;;;;;;;
2153.0;2069.9;;;;-1.1972467;-0.24507526;-0.3554993;;;;;;;;;;;;;;;
2153.0;2069.9;;;;-1.2044832;-0.24633029;-0.36288074;;;;;;;;;;;;;;;
2153.0;2069.9;;;;-1.2166978;-0.2454491;-0.3711014;;;;;;;;;;;;;;;
2153.0;2069.9;;;;-1.2325517;-0.24468616;-0.376072;;;;;;;;;;;;;;;
2153.0;2073.4;;;;;;;;;;40.311134;37.285988;-22.095402;;;;;;;;;
2153.0;2073.4;;;;;;;0.84292126;0.21002838;-0.11383404;;;;;;;;;;;;
2153.0;2073.4;;;;;;;;;;41.02069;36.324657;-21.33244;;;;;;;;;
2153.0;2073.4;;;;;;;0.87874997;0.2301706;-0.10522782;;;;;;;;;;;;
2153.0;2080.0;;;;-1.251072;-0.24261096;-0.38296515;;;;;;;;;;;;;;;
2153.0;2080.0;;;;-1.269642;-0.23926929;-0.39098746;;;;;;;;;;;;;;;
2153.0;2080.0;;;;-1.2920266;-0.23339847;-0.40069205;;;;;;;;;;;;;;;
2153.0;2080.0;;;;-1.3161737;-0.22739413;-0.41328436;;;;;;;;;;;;;;;
2153.0;2080.0;;;;-1.3420678;-0.21945575;-0.42369086;;;;;;;;;;;;;;;
2156.0;2081.2;;;;;;;;;;;;;;;;;-50.60732;4.1581473;-17.471846;;1968.0
2156.0;2081.2;;;;;;;;;;;;;;-0.88717306;0.064210944;-0.42347485;;;;;1968.0
2156.0;2081.2;;;;;;;;;;;;;;;;;-37.148655;-5.565813;-11.795404;;1968.0
2156.0;2081.2;;;;;;;;;;;;;;-0.8146611;0.016846217;-0.46143988;;;;;1968.0
2156.0;2081.2;;;;;;;;;;;;;;;;;-21.11118;-10.093997;-6.3325906;;1977.6
2156.0;2081.2;;;;;;;;;;;;;;-0.91219825;-0.032227546;-0.070558794;;;;;1977.6
2156.0;2081.2;;;;;;;;;;;;;;;;;-33.35673;-17.26966;-8.20185;;1977.6
2156.0;2081.2;;;;;;;;;;;;;;-0.93612474;-0.114322335;0.09253212;;;;;1977.6
2156.0;2081.2;;;;;;;;;;;;;;;;;-61.040833;-24.979399;-14.236885;;1987.3
2156.0;2081.2;;;;;;;;;;;;;;-0.7817621;-0.28882718;-0.16760765;;;;;1987.3
2156.0;2081.2;;;;;;;;;;;;;;;;;-76.54043;-23.983734;-19.547104;;1987.3
2156.0;2081.2;;;;;;;;;;;;;;-0.6297189;-0.33661917;-0.4116947;;;;;1987.3
2156.0;2082.0;;;;;;;;;;;;;;;;;-80.95798;-14.545885;-22.679068;;1996.8
2156.0;2082.0;;;;;;;;;;;;;;-0.65218055;-0.2334666;-0.6077456;;;;;1996.8
2156.0;2082.0;;;;;;;;;;;;;;;;;-71.00131;-8.342998;-23.14066;;1996.8
2156.0;2082.0;;;;;;;;;;;;;;-0.7429426;-0.09472945;-0.73213905;;;;;1996.8
2156.0;2082.0;;;;;;;;;;;;;;;;;-49.29121;-3.8605914;-23.041475;;2006.5
2156.0;2082.0;;;;;;;;;;;;;;-0.8654439;-0.03357036;-0.6432081;;;;;2006.5
2156.0;2082.0;;;;;;;;;;;;;;;;;-29.721214;2.5940733;-24.563585;;2006.5
2156.0;2082.0;;;;;;;;;;;;;;-0.9913633;-0.015381329;-0.53743094;;;;;2006.5
2156.0;2082.0;;;;;;;;;;;;;;;;;-13.088626;11.528367;-22.553179;;2016.1
2156.0;2082.0;;;;;;;;;;;;;;-1.1577501;-0.11828975;-0.49012727;;;;;2016.1
2156.0;2082.0;;;;;;;;;;;;;;;;;-5.32548;20.29481;-19.077885;;2016.1
2156.0;2082.0;;;;;;;;;;;;;;-1.3155919;-0.2943205;-0.5449385;;;;;2016.1
2158.0;2082.7;;;;;;;;;;41.844692;35.428173;-20.172735;;;;;;;;;
2158.0;2082.7;;;;;;;0.90951264;0.24335459;-0.100161746;;;;;;;;;;;;
2158.0;2082.7;;;;;;;;;;42.83273;34.802544;-18.337809;;;;;;;;;
2158.0;2082.7;;;;;;;0.9369793;0.25043488;-0.093142495;;;;;;;;;;;;
2158.0;2083.7;262143;262143;13339;;;;;;;;;;;;;;;;;;
2158.0;2089.6;;;;;;;;;;;;;-591;;;;;;;;
2158.0;2089.6;;;;;;;;;;;;;-1065;;;;;;;;
2158.0;2089.6;;;;;;;;;;;;;-1478;;;;;;;;
2158.0;2089.6;;;;;;;;;;;;;-1455;;;;;;;;
2158.0;2089.6;;;;;;;;;;;;;-1209;;;;;;;;
2158.0;2089.8;;;;-1.3680001;-0.21019366;-0.43492132;;;;;;;;;;;;;;;
2158.0;2089.8;;;;-1.3935815;-0.2001839;-0.4459229;;;;;;;;;;;;;;;
2158.0;2089.8;;;;-1.4168473;-0.18999866;-0.4557839;;;;;;;;;;;;;;;
2158.0;2089.8;;;;-1.435486;-0.17998125;-0.46435934;;;;;;;;;;;;;;;
2158.0;2089.8;;;;-1.4462243;-0.1695862;-0.4727326;;;;;;;;;;;;;;;
2158.0;2092.4;;;;;;;;;;43.858913;33.49025;-15.964996;;;;;;;;;
2158.0;2092.4;;;;;;;0.97116;0.24787134;-0.08630635;;;;;;;;;;;;
2158.0;2092.4;;;;;;;;;;45.049133;31.575214;-13.897366;;;;;;;;;
2158.0;2092.4;;;;;;;1.0276803;0.2402417;-0.087588124;;;;;;;;;;;;
2161.0;2096.3;;;;;;;;;;;;;;;;;-8.209479;26.051363;-14.198736;;2025.7
2161.0;2096.3;;;;;;;;;;;;;;-1.5305643;-0.6209296;-0.61738944;;;;;2025.7
2161.0;2096.3;;;;;;;;;;;;;;;;;-15.018921;25.490585;-10.093997;;2025.7
2161.0;2096.3;;;;;;;;;;;;;;-1.7452925;-0.9718925;-0.57387006;;;;;2025.7
2161.0;2096.3;;;;;;;;;;;;;;;;;-22.797327;15.934477;-9.773552;;2035.3
2161.0;2096.3;;;;;;;;;;;;;;-1.8226265;-1.40318;-0.5809503;;;;;2035.3
2161.0;2096.3;;;;;;;;;;;;;;;;;-22.442549;1.1787775;-17.761772;;2035.3
2161.0;2096.3;;;;;;;;;;;;;;-1.574694;-1.7732475;-0.6432691;;;;;2035.3
2161.0;2096.3;;;;;;;;;;;;;;;;;-10.002441;-8.301035;-22.431105;;2044.9
2161.0;2096.3;;;;;;;;;;;;;;-1.170507;-1.9204078;-0.7442854;;;;;2044.9
2161.0;2096.3;;;;;;;;;;;;;;;;;14.221625;-8.438369;-19.447922;;2044.9
2161.0;2096.3;;;;;;;;;;;;;;-1.0002747;-1.8188422;-0.6573687;;;;;2044.9
2161.0;2099.8;;;;-1.4494096;-0.15923692;-0.47956854;;;;;;;;;;;;;;;
2161.0;2099.8;;;;-1.4460641;-0.15059282;-0.48479468;;;;;;;;;;;;;;;
2161.0;2099.8;;;;-1.4383546;-0.14350511;-0.4891625;;;;;;;;;;;;;;;
2161.0;2099.8;;;;-1.4276162;-0.1361313;-0.49230582;;;;;;;;;;;;;;;
2161.0;2099.8;;;;-1.4131967;-0.12955858;-0.4942246;;;;;;;;;;;;;;;
2161.0;2101.9;;;;;;;;;;46.121098;29.889067;-12.798699;;;;;;;;;
2161.0;2101.9;;;;;;;1.0991546;0.22644734;-0.09338664;;;;;;;;;;;;
2161.0;2101.9;;;;;;;;;;47.067173;29.038363;-12.047182;;;;;;;;;
2161.0;2101.9;;;;;;;1.1530503;0.21552171;-0.105166785;;;;;;;;;;;;
2161.0;2103.9;262143;262143;13340;;;;;;;;;;;;;;;;;;
2211.0;2109.9;;;;-1.394497;-0.12492372;-0.49363333;;;;;;;;;;;;;;;
2211.0;2109.9;;;;-1.3735543;-0.12107469;-0.49279028;;;;;;;;;;;;;;;
2211.0;2109.9;;;;-1.3516465;-0.11822893;-0.49208838;;;;;;;;;;;;;;;
2211.0;2109.9;;;;-1.3302842;-0.11690904;-0.4879151;;;;;;;;;;;;;;;
2211.0;2109.9;;;;-1.3082467;-0.11610414;-0.48063284;;;;;;;;;;;;;;;
2211.0;2111.3;;;;;;;;;;48.028503;28.454695;-10.738701;;;;;;;;;
2211.0;2111.3;;;;;;;1.1882076;0.20496231;-0.11529893;;;;;;;;;;;;
2211.0;2111.3;;;;;;;;;;48.940247;27.310251;-9.220405;;;;;;;;;
2211.0;2111.3;;;;;;;1.2096927;0.19446394;-0.118533894;;;;;;;;;;;;
2211.0;2119.8;;;;-1.2861062;-0.11521532;-0.4747582;;;;;;;;;;;;;;;
2211.0;2119.8;;;;-1.2617913;-0.11407091;-0.4697228;;;;;;;;;;;;;;;
2211.0;2119.8;;;;-1.2353631;-0.11301805;-0.4640351;;;;;;;;;;;;;;;
2211.0;2119.8;;;;-1.2059594;-0.112720504;-0.45883566;;;;;;;;;;;;;;;
2211.0;2119.8;;;;-1.1760026;-0.112453476;-0.4551354;;;;;;;;;;;;;;;
2211.0;2120.8;;;;;;;;;;49.71465;25.27314;-8.152257;;;;;;;;;
2211.0;2120.8;;;;;;;1.2319711;0.18640706;-0.12927641;;;;;;;;;;;;
2211.0;2120.8;;;;;;;;;;50.119022;22.415844;-7.57622;;;;;;;;;
2211.0;2120.8;;;;;;;1.2519302;0.17902158;-0.133549;;;;;;;;;;;;
2211.0;2123.8;262143;262143;13340;;;;;;;;;;;;;;;;;;
2211.0;2129.8;;;;;;;;;;;;;-1069;;;;;;;;
2211.0;2129.8;;;;;;;;;;;;;-663;;;;;;;;
2211.0;2129.8;;;;;;;;;;;;;336;;;;;;;;
2211.0;2129.8;;;;;;;;;;;;;1471;;;;;;;;
2211.0;2129.8;;;;;;;;;;;;;2032;;;;;;;;
2213.0;2129.9;;;;-1.1469003;-0.11314775;-0.45319372;;;;;;;;;;;;;;;
2213.0;2129.9;;;;-1.117901;-0.115180984;-0.44985968;;;;;;;;;;;;;;;
2213.0;2129.9;;;;-1.0900537;-0.11681749;-0.44512182;;;;;;;;;;;;;;;
2213.0;2129.9;;;;-1.0617906;-0.118682876;-0.4402085;;;;;;;;;;;;;;;
2213.0;2129.9;;;;-1.0325509;-0.12067033;-0.43589407;;;;;;;;;;;;;;;
2213.0;2130.5;;;;;;;;;;50.74465;18.837551;-7.148961;;;;;;;;;
2213.0;2130.5;;;;;;;1.2767724;0.17871639;-0.14020203;;;;;;;;;;;;
2213.0;2130.5;;;;;;;;;;51.40843;14.667959;-6.4737387;;;;;;;;;
2213.0;2130.5;;;;;;;1.310709;0.18439284;-0.14661092;;;;;;;;;;;;
2213.0;2140.0;;;;-1.0039293;-0.12279512;-0.43120962;;;;;;;;;;;;;;;
2213.0;2140.0;;;;-0.97779477;-0.12446596;-0.42505652;;;;;;;;;;;;;;;
2213.0;2140.0;;;;-0.9551927;-0.1273079;-0.4206124;;;;;;;;;;;;;;;
2213.0;2140.0;;;;-0.9357034;-0.13035204;-0.41740042;;;;;;;;;;;;;;;
2213.0;2140.0;;;;-0.9190141;-0.13362505;-0.41286093;;;;;;;;;;;;;;;
2213.0;2140.1;;;;;;;;;;51.801353;9.971923;-5.306406;;;;;;;;;
2213.0;2140.1;;;;;;;1.3572191;0.19550157;-0.15985595;;;;;;;;;;;;
2213.0;2140.1;;;;;;;;;;51.95395;4.8257394;-3.4295175;;;;;;;;;
2213.0;2140.1;;;;;;;1.411359;0.20154424;-0.1779229;;;;;;;;;;;;
2214.0;2141.8;;;;;;;;;;;;;;;;;39.30784;-5.733665;-21.889402;;2054.5
2214.0;2141.8;;;;;;;;;;;;;;-0.88265634;-1.5046235;-0.5070956;;;;;2054.5
2214.0;2141.8;;;;;;;;;;;;;;;;;62.29972;-2.7886288;-27.947325;;2054.5
2214.0;2141.8;;;;;;;;;;;;;;-0.76577044;-1.147557;-0.3916135;;;;;2054.5
2214.0;2141.8;;;;;;;;;;;;;;;;;80.91601;0.45014802;-36.782433;;2064.1
2214.0;2141.8;;;;;;;;;;;;;;-0.6701254;-0.7121189;-0.46290475;;;;;2064.1
2214.0;2141.8;;;;;;;;;;;;;;;;;93.87112;5.138554;-37.408062;;2064.1
2214.0;2141.8;;;;;;;;;;;;;;-0.8399304;-0.1805475;-0.38337353;;;;;2064.1
2214.0;2141.8;;;;;;;;;;;;;;;;;93.02423;7.271035;-32.68151;;2073.7
2214.0;2141.8;;;;;;;;;;;;;;-0.9437544;0.1081576;-0.44898832;;;;;2073.7
2214.0;2141.8;;;;;;;;;;;;;;;;;87.07313;10.105441;-25.555437;;2073.7
2214.0;2141.8;;;;;;;;;;;;;;-1.0143743;0.24976349;-0.47834712;;;;;2073.7
2214.0;2144.0;262143;262143;13327;;;;;;;;;;;;;;;;;;
2214.0;2149.6;;;;;;;;;;51.896725;-0.5798517;-1.1101108;;;;;;;;;
2214.0;2149.6;;;;;;;1.4758751;0.20288706;-0.19629505;;;;;;;;;;;;
2214.0;2149.6;;;;;;;;;;51.477097;-5.466628;1.6975921;;;;;;;;;
2214.0;2149.6;;;;;;;1.5472274;0.18762779;-0.21161534;;;;;;;;;;;;
2214.0;2150.0;;;;-0.90472806;-0.13832094;-0.4084664;;;;;;;;;;;;;;;
2214.0;2150.0;;;;-0.8934251;-0.14246751;-0.40396506;;;;;;;;;;;;;;;
2214.0;2150.0;;;;-0.8857919;-0.14465334;-0.39817435;;;;;;;;;;;;;;;
2214.0;2150.0;;;;-0.87781155;-0.14807512;-0.3925324;;;;;;;;;;;;;;;
2214.0;2150.0;;;;-0.869671;-0.15053941;-0.38738257;;;;;;;;;;;;;;;
2220.0;2156.5;;;;;;;;;;;;;;;;;79.00479;11.364329;-17.178104;;2083.4
2220.0;2156.5;;;;;;;;;;;;;;-1.1180761;0.30310982;-0.4911649;;;;;2083.4
2220.0;2156.5;;;;;;;;;;;;;;;;;68.08298;10.689108;-8.949553;;2083.4
2220.0;2156.5;;;;;;;;;;;;;;-1.1987671;0.33063754;-0.6237373;;;;;2083.4
2220.0;2156.5;;;;;;;;;;;;;;;;;59.369946;7.9615164;1.4229255;;2093.0
2220.0;2156.5;;;;;;;;;;;;;;-1.1906492;0.3327128;-0.6956389;;;;;2093.0
2220.0;2156.5;;;;;;;;;;;;;;;;;53.533283;3.8148136;11.337626;;2093.0
2220.0;2156.5;;;;;;;;;;;;;;-1.1305887;0.275338;-0.6115909;;;;;2093.0
2220.0;2156.5;;;;;;;;;;;;;;;;;43.40114;3.8262582;19.093143;;2102.6
2220.0;2156.5;;;;;;;;;;;;;;-1.1026947;0.14612262;-0.5091098;;;;;2102.6
2220.0;2156.5;;;;;;;;;;;;;;;;;31.205175;5.714591;24.849695;;2102.6
2220.0;2156.5;;;;;;;;;;;;;;-1.0975677;0.043519396;-0.4321421;;;;;2102.6
2220.0;2159.0;;;;;;;;;;50.86291;-9.468368;4.3717766;;;;;;;;;
2220.0;2159.0;;;;;;;1.6149784;0.15674306;-0.22046572;;;;;;;;;;;;
2220.0;2159.0;;;;;;;;;;50.347908;-12.798699;7.637257;;;;;;;;;
2220.0;2159.0;;;;;;;1.6324961;0.11127049;-0.21839045;;;;;;;;;;;;
2220.0;2159.9;;;;-0.86376584;-0.15317155;-0.38283163;;;;;;;;;;;;;;;
2220.0;2159.9;;;;-0.85935986;-0.155468;-0.3777352;;;;;;;;;;;;;;;
2220.0;2159.9;;;;-0.8551332;-0.15861131;-0.37230304;;;;;;;;;;;;;;;
2220.0;2159.9;;;;-0.8510896;-0.16153719;-0.36843875;;;;;;;;;;;;;;;
2220.0;2159.9;;;;-0.84872067;-0.16482545;-0.36506274;;;;;;;;;;;;;;;
2220.0;2164.1;262143;262143;13322;;;;;;;;;;;;;;;;;;
2270.0;2168.7;;;;;;;;;;49.710835;-15.44618;11.089663;;;;;;;;;
2270.0;2168.7;;;;;;;1.7177649;0.10034486;-0.22772911;;;;;;;;;;;;
2270.0;2168.7;;;;;;;;;;47.837765;-15.835291;11.844996;;;;;;;;;
2270.0;2168.7;;;;;;;1.6870022;0.07843257;-0.21985534;;;;;;;;;;;;
2270.0;2169.8;;;;;;;;;;;;;1651;;;;;;;;
2270.0;2169.8;;;;;;;;;;;;;653;;;;;;;;
2270.0;2169.8;;;;;;;;;;;;;225;;;;;;;;
2270.0;2169.8;;;;;;;;;;;;;1903;;;;;;;;
2270.0;2169.8;;;;;;;;;;;;;5279;;;;;;;;
2270.0;2169.8;;;;-0.84684765;-0.16881181;-0.3615189;;;;;;;;;;;;;;;
2270.0;2169.8;;;;-0.84443295;-0.17275621;-0.35968402;;;;;;;;;;;;;;;
2270.0;2169.8;;;;-0.8473245;-0.17664339;-0.3584824;;;;;;;;;;;;;;;
2270.0;2169.8;;;;-0.85541165;-0.17941286;-0.35717013;;;;;;;;;;;;;;;
2270.0;2169.8;;;;-0.862816;-0.18104555;-0.35577014;;;;;;;;;;;;;;;
2270.0;2177.7;;;;;;;;;;46.64754;-16.08707;13.214515;;;;;;;;;
2270.0;2177.7;;;;;;;1.6408582;0.062440872;-0.20978424;;;;;;;;;;;;
2270.0;2177.7;;;;;;;;;;44.36628;-16.785181;14.179663;;;;;;;;;
2270.0;2177.7;;;;;;;1.5905637;0.055238504;-0.1897641;;;;;;;;;;;;
2270.0;2179.5;;;;-0.8677827;-0.18354799;-0.35377124;;;;;;;;;;;;;;;
2270.0;2179.5;;;;-0.87157834;-0.18592073;-0.35203937;;;;;;;;;;;;;;;
2270.0;2179.5;;;;-0.87565625;-0.18774036;-0.35091785;;;;;;;;;;;;;;;
2270.0;2179.5;;;;-0.8783456;-0.1912575;-0.34936145;;;;;;;;;;;;;;;
2270.0;2179.5;;;;-0.8810693;-0.19387439;-0.347065;;;;;;;;;;;;;;;
2270.0;2183.8;262143;262143;13325;;;;;;;;;;;;;;;;;;
2274.0;2187.3;;;;;;;;;;42.725914;-18.566698;13.557848;;;;;;;;;
2274.0;2187.3;;;;;;;1.5342876;0.052125614;-0.17157505;;;;;;;;;;;;
2274.0;2187.3;;;;;;;;;;41.253395;-20.260475;12.295145;;;;;;;;;
2274.0;2187.3;;;;;;;1.4800256;0.05139317;-0.15710929;;;;;;;;;;;;
2274.0;2189.6;;;;-0.885296;-0.19707492;-0.3456078;;;;;;;;;;;;;;;
2274.0;2189.6;;;;-0.8895494;-0.19969562;-0.34361652;;;;;;;;;;;;;;;
2274.0;2189.6;;;;-0.89427197;-0.20224765;-0.3417969;;;;;;;;;;;;;;;
2274.0;2189.6;;;;-0.8987428;-0.20623401;-0.33922198;;;;;;;;;;;;;;;
2274.0;2189.6;;;;-0.9030267;-0.21077731;-0.33638385;;;;;;;;;;;;;;;
2274.0;2197.0;;;;;;;;;;39.23917;-21.988586;11.3986635;;;;;;;;;
2274.0;2197.0;;;;;;;1.4310739;0.05633717;-0.1347087;;;;;;;;;;;;
2274.0;2197.0;;;;;;;;;;37.114323;-23.968475;11.799219;;;;;;;;;
2274.0;2197.0;;;;;;;1.3843806;0.0629902;-0.11511582;;;;;;;;;;;;
2274.0;2199.7;;;;-0.9093019;-0.21439365;-0.33246997;;;;;;;;;;;;;;;
2274.0;2199.7;;;;-0.91801846;-0.21799472;-0.32951358;;;;;;;;;;;;;;;
2274.0;2199.7;;;;-0.9256059;-0.22254565;-0.3260155;;;;;;;;;;;;;;;
2274.0;2199.7;;;;-0.9283906;-0.22658923;-0.32201007;;;;;;;;;;;;;;;
2274.0;2199.7;;;;-0.92972577;-0.23082736;-0.3194199;;;;;;;;;;;;;;;
2275.0;2201.3;;;;;;;;;;;;;;;;;20.130772;8.587145;29.4084;;2112.3
2275.0;2201.3;;;;;;;;;;;;;;-1.1313212;-0.022583697;-0.3662221;;;;;2112.3
2275.0;2201.3;;;;;;;;;;;;;;;;;7.507553;10.441145;32.06351;;2112.3
2275.0;2201.3;;;;;;;;;;;;;;-1.130894;-0.07892086;-0.36237678;;;;;2112.3
2275.0;2201.3;;;;;;;;;;;;;;;;;-4.0513325;12.421033;34.53932;;2122.0
2275.0;2201.3;;;;;;;;;;;;;;-1.145909;-0.10425123;-0.35834834;;;;;2122.0
2275.0;2201.3;;;;;;;;;;;;;;;;;-14.213996;13.088626;36.786247;;2122.0
2275.0;2201.3;;;;;;;;;;;;;;-1.1465805;-0.0806299;-0.3291116;;;;;2122.0
2275.0;2201.3;;;;;;;;;;;;;;;;;-23.304697;13.016145;38.66314;;2131.6
2275.0;2201.3;;;;;;;;;;;;;;-1.1442;-0.050965913;-0.2982879;;;;;2131.6
2275.0;2201.3;;;;;;;;;;;;;;;;;-31.20899;13.103885;39.963985;;2131.6
2275.0;2201.3;;;;;;;;;;;;;;-1.1578722;-0.05487228;-0.28748435;;;;;2131.6
2275.0;2203.9;262143;262143;13317;;;;;;;;;;;;;;;;;;
2275.0;2206.5;;;;;;;;;;34.897915;-25.902584;12.691885;;;;;;;;;
2275.0;2206.5;;;;;;;1.3323771;0.067873165;-0.096499525;;;;;;;;;;;;
2275.0;2206.5;;;;;;;;;;32.528915;-28.187658;12.29896;;;;;;;;;
2275.0;2206.5;;;;;;;1.2951446;0.078676715;-0.08252205;;;;;;;;;;;;
2275.0;2209.7;;;;-0.930668;-0.23496631;-0.31633762;;;;;;;;;;;;;;;
2275.0;2209.7;;;;-0.9328233;-0.23840335;-0.31224063;;;;;;;;;;;;;;;
2275.0;2209.7;;;;-0.93543255;-0.24129489;-0.3098183;;;;;;;;;;;;;;;
2275.0;2209.7;;;;-0.9347421;-0.24424365;-0.30786136;;;;;;;;;;;;;;;
2275.0;2209.7;;;;-0.9310075;-0.24658969;-0.30554202;;;;;;;;;;;;;;;
2280.0;2209.8;;;;;;;;;;;;;4694;;;;;;;;
2280.0;2209.8;;;;;;;;;;;;;-5858;;;;;;;;
2280.0;2209.8;;;;;;;;;;;;;-21399;;;;;;;;
2280.0;2209.8;;;;;;;;;;;;;-28136;;;;;;;;
2280.0;2209.8;;;;;;;;;;;;;-19352;;;;;;;;
2280.0;2216.1;;;;;;;;;;30.19425;-30.579546;11.825923;;;;;;;;;
2280.0;2216.1;;;;;;;1.284402;0.0883816;-0.071108125;;;;;;;;;;;;
2280.0;2216.1;;;;;;;;;;27.970213;-32.35725;12.0052185;;;;;;;;;
2280.0;2216.1;;;;;;;1.2897732;0.098941006;-0.06164739;;;;;;;;;;;;
2280.0;2216.4;;;;;;;;;;;;;;;;;-37.194435;12.371441;40.52095;;2141.3
2280.0;2216.4;;;;;;;;;;;;;;-1.157567;-0.09320353;-0.29755548;;;;;2141.3
2280.0;2216.4;;;;;;;;;;;;;;;;;-41.203804;10.536515;40.559097;;2141.3
2280.0;2216.4;;;;;;;;;;;;;;-1.1369365;-0.14252144;-0.31336406;;;;;2141.3
2280.0;2216.4;;;;;;;;;;;;;;;;;-43.22947;8.430738;39.77706;;2150.9
2280.0;2216.4;;;;;;;;;;;;;;-1.1051363;-0.23468734;-0.31647694;;;;;2150.9
2280.0;2216.4;;;;;;;;;;;;;;;;;-43.477432;6.538591;38.319805;;2150.9
2280.0;2216.4;;;;;;;;;;;;;;-1.0616779;-0.329722;-0.3236793;;;;;2150.9
2280.0;2216.4;;;;;;;;;;;;;;;;;-42.020172;5.5543685;36.347546;;2160.6
2280.0;2216.4;;;;;;;;;;;;;;-1.0052797;-0.42518386;-0.33198035;;;;;2160.6
2280.0;2216.4;;;;;;;;;;;;;;;;;-38.8844;6.2562943;34.016693;;2160.6
2280.0;2216.4;;;;;;;;;;;;;;-0.95113987;-0.49201941;-0.31397444;;;;;2160.6
2280.0;2219.6;;;;-0.92525876;-0.24823764;-0.30245975;;;;;;;;;;;;;;;
2280.0;2219.6;;;;-0.9229661;-0.24959949;-0.2993088;;;;;;;;;;;;;;;
2280.0;2219.6;;;;-0.92318356;-0.2496567;-0.29462436;;;;;;;;;;;;;;;
2280.0;2219.6;;;;-0.92274487;-0.25044635;-0.2899857;;;;;;;;;;;;;;;
2280.0;2219.6;;;;-0.9241258;-0.25129703;-0.28494647;;;;;;;;;;;;;;;
2332.0;2224.0;262143;262143;13316;;;;;;;;;;;;;;;;;;
2332.0;2225.5;;;;;;;;;;25.830103;-32.65099;12.6117735;;;;;;;;;
2332.0;2225.5;;;;;;;1.286172;0.11224708;-0.050721765;;;;;;;;;;;;
2332.0;2225.5;;;;;;;;;;23.823511;-31.62099;13.3137;;;;;;;;;
2332.0;2225.5;;;;;;;1.279397;0.13049714;-0.038453322;;;;;;;;;;;;
2332.0;2229.6;;;;-0.92387784;-0.25215533;-0.2809067;;;;;;;;;;;;;;;
2332.0;2229.6;;;;-0.9208566;-0.25243762;-0.2761307;;;;;;;;;;;;;;;
2332.0;2229.6;;;;-0.9170648;-0.25283816;-0.27112582;;;;;;;;;;;;;;;
2332.0;2229.6;;;;-0.91531765;-0.2538605;-0.26632312;;;;;;;;;;;;;;;
2332.0;2229.6;;;;-0.9146997;-0.25522235;-0.26167682;;;;;;;;;;;;;;;
2332.0;2234.7;;;;;;;;;;21.904661;-29.499954;14.156774;;;;;;;;;
2332.0;2234.7;;;;;;;1.2688986;0.1441084;-0.024903104;;;;;;;;;;;;
2332.0;2234.7;;;;;;;;;;20.046844;-27.092808;14.965514;;;;;;;;;
2332.0;2234.7;;;;;;;1.2634662;0.1568041;-0.010376293;;;;;;;;;;;;
2332.0;2239.4;;;;-0.91277707;-0.25638202;-0.25635532;;;;;;;;;;;;;;;
2332.0;2239.4;;;;-0.90999234;-0.25719836;-0.25125125;;;;;;;;;;;;;;;
2332.0;2239.4;;;;-0.90573514;-0.25823215;-0.24634174;;;;;;;;;;;;;;;
2332.0;2239.4;;;;-0.90075314;-0.2588425;-0.2424126;;;;;;;;;;;;;;;
2332.0;2239.4;;;;-0.8968469;-0.2588196;-0.23819736;;;;;;;;;;;;;;;
2332.0;2243.9;262143;262143;13309;;;;;;;;;;;;;;;;;;
2336.0;2244.4;;;;;;;;;;18.311106;-24.38429;15.312662;;;;;;;;;
2336.0;2244.4;;;;;;;1.25309;0.1699881;0.0043336283;;;;;;;;;;;;
2336.0;2244.4;;;;;;;;;;16.701256;-21.526995;15.282144;;;;;;;;;
2336.0;2244.4;;;;;;;1.2405775;0.1812189;0.020020142;;;;;;;;;;;;
2336.0;2249.6;;;;-0.89299405;-0.25804523;-0.23516467;;;;;;;;;;;;;;;
2336.0;2249.6;;;;-0.8898126;-0.25750354;-0.23216632;;;;;;;;;;;;;;;
2336.0;2249.6;;;;-0.8880044;-0.2572594;-0.2280083;;;;;;;;;;;;;;;
2336.0;2249.6;;;;-0.88513577;-0.2563477;-0.2237244;;;;;;;;;;;;;;;
2336.0;2249.6;;;;-0.8802835;-0.25493625;-0.22085193;;;;;;;;;;;;;;;
2336.0;2249.7;;;;;;;;;;;;;-3837;;;;;;;;
2336.0;2249.7;;;;;;;;;;;;;5027;;;;;;;;
2336.0;2249.7;;;;;;;;;;;;;4642;;;;;;;;
2336.0;2249.7;;;;;;;;;;;;;2094;;;;;;;;
2336.0;2249.7;;;;;;;;;;;;;2243;;;;;;;;
2336.0;2254.0;;;;;;;;;;15.190588;-19.032106;15.0112915;;;;;;;;;
2336.0;2254.0;;;;;;;1.2236091;0.19214454;0.031434067;;;;;;;;;;;;
2336.0;2254.0;;;;;;;;;;13.893551;-17.082735;14.908293;;;;;;;;;
2336.0;2254.0;;;;;;;1.2016969;0.20404676;0.04242073;;;;;;;;;;;;
2336.0;2259.7;;;;-0.87327206;-0.2531357;-0.21777728;;;;;;;;;;;;;;;
2336.0;2259.7;;;;-0.86825955;-0.25143054;-0.21424106;;;;;;;;;;;;;;;
2336.0;2259.7;;;;-0.8658258;-0.2491608;-0.21131137;;;;;;;;;;;;;;;
2336.0;2259.7;;;;-0.86317456;-0.24708942;-0.20743564;;;;;;;;;;;;;;;
2336.0;2259.7;;;;-0.8584634;-0.24538806;-0.20458606;;;;;;;;;;;;;;;
2337.0;2261.4;;;;;;;;;;;;;;;;;-35.4091;7.942442;31.582844;;2170.3
