patientId;holterMac;flexMac;;;;;;;;;;;;;;;;;;;;
;CA:F3:0B:1E:33:78;D3:4A:5C:52:80:78;;;;;;;;;;;;;;;;;;;;
receivedTimeStamp;timeStamp;red;ir;green;adxl_accX;adxl_accY;adxl_accZ;lsm_accelX;lsm_accelY;lsm_accelZ;lsm_gyroX;lsm_gyroY;lsm_gyroZ;ecg;flex_lsm_accelX;flex_lsm_accelY;flex_lsm_accelZ;flex_lsm_gyroX;flex_lsm_gyroY;flex_lsm_gyroZ;flex_cmd;flexTimeStamp
269.0;214.2;;;;;;;;;;;;;;;;;;;;17;0.1
269.0;214.2;;;;;;;;;;;;;;;;;13.81344;1.3275552;1.247444;;127.6
269.0;214.2;;;;;;;;;;;;;;0.86355174;0.13324381;-0.342967;;;;;127.6
269.0;214.2;;;;;;;;;;;;;;;;;-6.2944427;-18.108921;-8.472701;;127.6
269.0;214.2;;;;;;;;;;;;;;0.8989532;0.13715018;-0.3541368;;;;;127.6
269.0;214.2;;;;;;;;;;;;;;;;;-65.454575;-84.95972;-62.40272;;137.2
269.0;214.2;;;;;;;;;;;;;;0.8999298;0.13702811;-0.35291603;;;;;137.2
269.0;214.2;;;;;;;;;;;;;;;;;-122.49367;-124.988556;-120.475624;;137.2
269.0;214.2;;;;;;;;;;;;;;0.9021882;0.13611256;-0.35444197;;;;;137.2
329.0;215.0;;;;;;;;;;;;;;;;;-59.31654;-124.74441;-77.55517;;146.9
329.0;215.0;;;;;;;;;;;;;;0.9021882;0.1358684;-0.35163426;;;;;146.9
329.0;215.0;;;;;;;;;;;;;;;;;6.004517;-124.95804;-30.266731;;146.9
329.0;215.0;;;;;;;;;;;;;;0.9007233;0.13556322;-0.3516953;;;;;146.9
329.0;215.0;;;;;;;;;;;;;;;;;1.6060365;-97.84235;-22.52266;;156.5
329.0;215.0;;;;;;;;;;;;;;0.90163887;0.13464767;-0.34931487;;;;;156.5
329.0;215.0;;;;;;;;;;;;;;;;;-5.706961;-9.678183;1.9150364;;156.5
329.0;215.0;;;;;;;;;;;;;;0.89919734;0.1350139;-0.34882656;;;;;156.5
329.0;215.0;;;;;;;;;;;;;;;;;-6.4394054;-2.2698143;3.807184;;166.2
329.0;215.0;;;;;;;;;;;;;;0.89767146;0.13379315;-0.34778893;;;;;166.2
329.0;215.0;;;;;;;;;;;;;;;;;-6.5691094;-2.231666;3.8453321;;166.2
329.0;215.0;;;;;;;;;;;;;;0.8976104;0.13312174;-0.34894863;;;;;166.2
329.0;275.1;;;;;;;;;;;;;;;;;-6.8933682;-2.3079624;4.272591;;175.8
329.0;275.1;;;;;;;;;;;;;;0.8971831;0.13373211;-0.3471175;;;;;175.8
329.0;275.1;;;;;;;;;;;;;;;;;-7.0917387;-2.5444808;4.272591;;175.8
329.0;275.1;;;;;;;;;;;;;;0.89706105;0.13183996;-0.34852138;;;;;175.8
329.0;275.1;;;;;;;;;;;;;;;;;-7.37022;-2.582629;4.4366283;;185.5
329.0;275.1;;;;;;;;;;;;;;0.89889216;0.13129063;-0.34943694;;;;;185.5
329.0;275.1;;;;;;;;;;;;;;;;;-7.633442;-2.727592;4.8219247;;185.5
329.0;275.1;;;;;;;;;;;;;;0.90145576;0.13147373;-0.34846035;;;;;185.5
329.0;275.1;;;;;;;;;;;;;;;;;-7.980591;-2.8611102;4.928739;;195.2
329.0;275.1;;;;;;;;;;;;;;0.9022492;0.13000885;-0.35010836;;;;;195.2
329.0;275.1;;;;;;;;;;;;;;;;;-8.171331;-2.9221473;5.142369;;195.2
329.0;275.1;;;;;;;;;;;;;;0.9021882;0.13080233;-0.35084078;;;;;195.2
390.0;275.9;;;;;;;;;;;;;;;;;-8.381146;-2.9526658;5.4208503;;204.9
390.0;275.9;;;;;;;;;;;;;;0.90267646;0.12994781;-0.3477279;;;;;204.9
390.0;275.9;;;;;;;;;;;;;;;;;-8.602405;-3.0289621;5.5352945;;204.9
390.0;275.9;;;;;;;;;;;;;;0.90145576;0.12836085;-0.34498122;;;;;204.9
390.0;275.9;;;;;;;;;;;;;;;;;-8.762627;-3.131962;5.706961;;214.6
390.0;275.9;;;;;;;;;;;;;;0.8998688;0.12604144;-0.34473708;;;;;214.6
390.0;275.9;;;;;;;;;;;;;;;;;-8.754997;-3.257851;5.9511094;;214.6
390.0;275.9;;;;;;;;;;;;;;0.90047914;0.12689596;-0.34302804;;;;;214.6
390.0;275.9;;;;;;;;;;;;;;;;;-8.762627;-3.3684807;6.023591;;224.3
390.0;275.9;;;;;;;;;;;;;;0.9013947;0.12775049;-0.3439436;;;;;224.3
390.0;275.9;;;;;;;;;;;;;;;;;-8.800775;-3.5592213;6.111332;;224.3
390.0;275.9;;;;;;;;;;;;;;0.8998688;0.12640767;-0.34253976;;;;;224.3
390.0;335.0;;;;;;;;;;;;;;;;;-8.823664;-3.711814;6.195257;;233.8
390.0;335.0;;;;;;;;;;;;;;0.9012726;0.12469863;-0.34095278;;;;;233.8
390.0;335.0;;;;;;;;;;;;;;;;;-9.01822;-3.7499619;6.282998;;233.8
390.0;335.0;;;;;;;;;;;;;;0.9016999;0.12512589;-0.34174627;;;;;233.8
390.0;335.0;;;;;;;;;;;;;;;;;-9.1975155;-3.8987396;6.4203315;;243.4
390.0;335.0;;;;;;;;;;;;;;0.9027375;0.124210335;-0.34131902;;;;;243.4
390.0;335.0;;;;;;;;;;;;;;;;;-9.220405;-4.0284433;6.55385;;243.4
390.0;335.0;;;;;;;;;;;;;;0.90267646;0.12427137;-0.34089175;;;;;243.4
390.0;335.0;;;;;;;;;;;;;;;;;-9.388257;-4.074221;6.5843687;;253.1
390.0;335.0;;;;;;;;;;;;;;0.90231025;0.12262337;-0.34302804;;;;;253.1
390.0;335.0;;;;;;;;;;;;;;;;;-9.559923;-4.1657767;6.717887;;253.1
390.0;335.0;;;;;;;;;;;;;;0.9011505;0.12280648;-0.34174627;;;;;253.1
453.0;335.7;;;;;;;;;;;;;;;;;-9.834589;-4.3717766;6.740776;;262.7
453.0;335.7;;;;;;;;;;;;;;0.8997467;0.12207404;-0.3411359;;;;;262.7
453.0;335.7;;;;;;;;;;;;;;;;;-10.0138855;-4.5510726;6.851405;;262.7
453.0;335.7;;;;;;;;;;;;;;0.900235;0.12146367;-0.34247872;;;;;262.7
453.0;335.7;;;;;;;;;;;;;;;;;-10.193182;-4.6044803;6.9009976;;272.3
453.0;335.7;;;;;;;;;;;;;;0.90035707;0.11957152;-0.3434553;;;;;272.3
453.0;335.7;;;;;;;;;;;;;;;;;-10.338145;-4.627369;6.931516;;272.3
453.0;335.7;;;;;;;;;;;;;;0.90017396;0.11816767;-0.34430984;;;;;272.3
453.0;335.7;;;;;;;;;;;;;;;;;-10.578479;-4.7685175;6.9009976;;282.0
453.0;335.7;;;;;;;;;;;;;;0.9011505;0.11713004;-0.34632406;;;;;282.0
453.0;335.7;;;;;;;;;;;;;;;;;-10.76159;-4.8333693;6.9009976;;282.0
453.0;335.7;;;;;;;;;;;;;;0.90121156;0.115970336;-0.3471175;;;;;282.0
453.0;395.3;;;;;;;;;;;;;;;;;-10.799738;-4.9401836;6.76748;;291.6
453.0;395.3;;;;;;;;;;;;;;0.90102845;0.11450545;-0.3488876;;;;;291.6
453.0;395.3;;;;;;;;;;;;;;;;;-10.906552;-5.0469985;6.6682944;;291.6
453.0;395.3;;;;;;;;;;;;;;0.9005402;0.11267434;-0.349559;;;;;291.6
453.0;395.3;;;;;;;;;;;;;;;;;-10.841701;-5.096591;6.4661093;;301.3
453.0;395.3;;;;;;;;;;;;;;0.90066224;0.11053804;-0.35029146;;;;;301.3
453.0;395.3;;;;;;;;;;;;;;;;;-10.769219;-5.2568135;6.3058867;;301.3
453.0;395.3;;;;;;;;;;;;;;0.9027375;0.10901212;-0.35139012;;;;;301.3
453.0;395.3;;;;;;;;;;;;;;;;;-10.696738;-5.306406;6.2334056;;310.9
453.0;395.3;;;;;;;;;;;;;;0.903531;0.10754723;-0.34998626;;;;;310.9
453.0;395.3;;;;;;;;;;;;;;;;;-10.55559;-5.3559985;6.0350356;;310.9
453.0;395.3;;;;;;;;;;;;;;0.9045076;0.105288856;-0.35114598;;;;;310.9
514.0;396.1;;;;;;;;;;;;;;;;;-10.319071;-5.352184;5.878628;;320.5
514.0;396.1;;;;;;;;;;;;;;0.90462965;0.104739524;-0.35023043;;;;;320.5
514.0;396.1;;;;;;;;;;;;;;;;;-10.196997;-5.272073;5.726035;;320.5
514.0;396.1;;;;;;;;;;;;;;0.90340894;0.104739524;-0.35010836;;;;;320.5
514.0;396.1;;;;;;;;;;;;;;;;;-10.1130705;-5.283517;5.645924;;330.2
514.0;396.1;;;;;;;;;;;;;;0.9040193;0.102725305;-0.3526719;;;;;330.2
514.0;396.1;;;;;;;;;;;;;;;;;-9.994812;-5.3140354;5.5200357;;330.2
514.0;396.1;;;;;;;;;;;;;;0.9047517;0.10229804;-0.35102388;;;;;330.2
514.0;396.1;;;;;;;;;;;;;;;;;-9.80407;-5.3102207;5.466628;;339.8
514.0;396.1;;;;;;;;;;;;;;0.90737635;0.1010773;-0.35407576;;;;;339.8
514.0;396.1;;;;;;;;;;;;;;;;;-9.701072;-5.2415543;5.3979616;;339.8
514.0;396.1;;;;;;;;;;;;;;0.90542316;0.09930723;-0.3546861;;;;;339.8
514.0;455.6;;;;;;;;;;;;;;;;;-9.529405;-5.2758875;5.264443;;349.5
514.0;455.6;;;;;;;;;;;;;;0.90591145;0.098269604;-0.35767692;;;;;349.5
514.0;455.6;;;;;;;;;;;;;;;;;-9.43022;-5.1881466;5.096591;;349.5
514.0;455.6;;;;;;;;;;;;;;0.90517896;0.09735405;-0.35688344;;;;;349.5
514.0;455.6;;;;;;;;;;;;;;;;;-9.193701;-5.226295;5.0126653;;359.2
514.0;455.6;;;;;;;;;;;;;;0.90542316;0.098269604;-0.35743278;;;;;359.2
514.0;455.6;;;;;;;;;;;;;;;;;-9.086886;-5.306406;4.8677025;;359.2
514.0;455.6;;;;;;;;;;;;;;0.9062166;0.0994293;-0.3581042;;;;;359.2
514.0;455.6;;;;;;;;;;;;;;;;;-8.903775;-5.264443;4.8333693;;368.5
514.0;455.6;;;;;;;;;;;;;;0.9042024;0.0987579;-0.3598132;;;;;368.5
514.0;455.6;;;;;;;;;;;;;;;;;-8.781701;-5.2491837;4.7685175;;368.5
514.0;455.6;;;;;;;;;;;;;;0.900235;0.09973449;-0.3587756;;;;;368.5
573.0;456.4;;;;;;;;;;;;;;;;;-8.823664;-5.3369246;4.749443;;378.2
573.0;456.4;;;;;;;;;;;;;;0.8980377;0.10010071;-0.35541856;;;;;378.2
573.0;456.4;;;;;;;;;;;;;;;;;-8.716849;-5.4170356;4.7189245;;378.2
573.0;456.4;;;;;;;;;;;;;;0.8967559;0.10065004;-0.36048463;;;;;378.2
573.0;456.4;;;;;;;;;;;;;;;;;-8.636738;-5.512406;4.7189245;;387.9
573.0;456.4;;;;;;;;;;;;;;0.89687794;0.10058901;-0.36170536;;;;;387.9
573.0;456.4;;;;;;;;;;;;;;;;;-8.716849;-5.6993318;4.711295;;387.9
573.0;456.4;;;;;;;;;;;;;;0.89785457;0.10260323;-0.3645741;;;;;387.9
573.0;456.4;;;;;;;;;;;;;;;;;-8.716849;-5.8900723;4.753258;;397.5
573.0;456.4;;;;;;;;;;;;;;0.893643;0.101931825;-0.36787012;;;;;397.5
573.0;456.4;;;;;;;;;;;;;;;;;-8.655812;-5.9930725;4.696036;;397.5
573.0;456.4;;;;;;;;;;;;;;0.8928495;0.10168768;-0.3673818;;;;;397.5
573.0;516.0;;;;;;;;;;;;;;;;;-8.499405;-6.1380353;4.71511;;407.1
573.0;516.0;;;;;;;;;;;;;;0.89400923;0.10242012;-0.3698233;;;;;407.1
573.0;516.0;;;;;;;;;;;;;;;;;-8.411665;-6.2944427;4.7036653;;407.1
573.0;516.0;;;;;;;;;;;;;;0.8949858;0.10357982;-0.37092197;;;;;407.1
573.0;516.0;;;;;;;;;;;;;;;;;-8.140813;-6.4546647;4.6998506;;416.8
573.0;516.0;;;;;;;;;;;;;;0.8975494;0.10608234;-0.36878568;;;;;416.8
573.0;516.0;;;;;;;;;;;;;;;;;-7.98822;-6.477554;4.6807766;;416.8
573.0;516.0;;;;;;;;;;;;;;0.89370406;0.10467849;-0.36762595;;;;;416.8
573.0;516.0;;;;;;;;;;;;;;;;;-7.9233685;-6.5462203;4.6845913;;426.4
573.0;516.0;;;;;;;;;;;;;;0.89114046;0.10400708;-0.3648793;;;;;426.4
573.0;516.0;;;;;;;;;;;;;;;;;-7.759331;-6.75985;4.6197395;;426.4
573.0;516.0;;;;;;;;;;;;;;0.89291054;0.10565508;-0.36713767;;;;;426.4
634.0;517.2;;;;;;;;;;;;;;;;;-7.5800347;-6.95822;4.4976654;;435.9
634.0;517.2;;;;;;;;;;;;;;0.8954741;0.10632649;-0.36310923;;;;;435.9
634.0;517.2;;;;;;;;;;;;;;;;;-7.362591;-7.1565905;4.543443;;435.9
634.0;517.2;;;;;;;;;;;;;;0.89785457;0.10864589;-0.3632313;;;;;435.9
634.0;517.2;;;;;;;;;;;;;;;;;-7.2862945;-7.4007387;4.554888;;445.6
634.0;517.2;;;;;;;;;;;;;;0.8982818;0.10925627;-0.36530656;;;;;445.6
634.0;517.2;;;;;;;;;;;;;;;;;-7.37022;-7.37785;4.6006656;;445.6
634.0;517.2;;;;;;;;;;;;;;0.89815974;0.110965304;-0.36237678;;;;;445.6
634.0;517.2;;;;;;;;;;;;;;;;;-7.488479;-7.312998;4.634999;;455.2
634.0;517.2;;;;;;;;;;;;;;0.8946806;0.112979524;-0.36170536;;;;;455.2
634.0;517.2;;;;;;;;;;;;;;;;;-7.6906643;-7.3664055;4.7799616;;455.2
634.0;517.2;;;;;;;;;;;;;;0.8944975;0.11560412;-0.36451307;;;;;455.2
634.0;531.0;;;;;;;;;;;;;;;;;-7.9462566;-7.4808497;4.8142953;;464.9
634.0;531.0;;;;;;;;;;;;;;0.8987701;0.11566515;-0.36371958;;;;;464.9
634.0;531.0;;;;;;;;;;;;;;;;;-8.171331;-7.698294;4.875332;;464.9
634.0;531.0;;;;;;;;;;;;;;0.901883;0.11841182;-0.36494035;;;;;464.9
634.0;531.0;;;;;;;;;;;;;;;;;-8.3925905;-7.7860346;5.0012207;;474.5
634.0;531.0;;;;;;;;;;;;;;0.9000519;0.11713004;-0.3653676;;;;;474.5
634.0;531.0;;;;;;;;;;;;;;;;;-8.674886;-7.805109;5.11948;;474.5
634.0;531.0;;;;;;;;;;;;;;0.9013947;0.11835078;-0.36848047;;;;;474.5
634.0;531.0;;;;;;;;;;;;;;;;;-8.800775;-7.7097383;5.176702;;484.2
634.0;531.0;;;;;;;;;;;;;;0.89919734;0.119083226;-0.36902982;;;;;484.2
634.0;531.0;;;;;;;;;;;;;;;;;-8.838923;-7.7326274;5.3102207;;484.2
634.0;531.0;;;;;;;;;;;;;;0.89724416;0.11883908;-0.37037262;;;;;484.2
693.0;576.4;;;;;;;;;;;;;;;;;-8.877071;-7.9004793;5.367443;;493.8
693.0;576.4;;;;;;;;;;;;;;0.8946196;0.119083226;-0.36902982;;;;;493.8
693.0;576.4;;;;;;;;;;;;;;;;;-9.060183;-8.117924;5.4017763;;493.8
693.0;576.4;;;;;;;;;;;;;;0.8946196;0.11713004;-0.3714713;;;;;493.8
693.0;576.4;;;;;;;;;;;;;;;;;-9.037293;-8.236183;5.455184;;503.3
693.0;576.4;;;;;;;;;;;;;;0.8951689;0.1159093;-0.37110507;;;;;503.3
693.0;576.4;;;;;;;;;;;;;;;;;-9.075441;-8.29722;5.5543685;;503.3
693.0;576.4;;;;;;;;;;;;;;0.89651173;0.11517686;-0.3696402;;;;;503.3
693.0;576.4;;;;;;;;;;;;;;;;;-9.117405;-8.350628;5.645924;;513.0
693.0;576.4;;;;;;;;;;;;;;0.89492476;0.11578722;-0.3719596;;;;;513.0
693.0;576.4;;;;;;;;;;;;;;;;;-9.346293;-8.350628;5.7222204;;513.0
693.0;576.4;;;;;;;;;;;;;;0.89187294;0.11645863;-0.3717765;;;;;513.0
693.0;591.3;;;;;;;;;;;;;;;;;-9.563738;-8.457442;5.7641835;;522.7
693.0;591.3;;;;;;;;;;;;;;0.8896145;0.11682486;-0.37043366;;;;;522.7
693.0;591.3;;;;;;;;;;;;;;;;;-9.857478;-8.518478;5.882443;;522.7
693.0;591.3;;;;;;;;;;;;;;0.8868679;0.11651967;-0.3725089;;;;;522.7
693.0;591.3;;;;;;;;;;;;;;;;;-10.235145;-8.621479;6.0121465;;532.3
693.0;591.3;;;;;;;;;;;;;;0.8858913;0.11737419;-0.374279;;;;;532.3
693.0;591.3;;;;;;;;;;;;;;;;;-10.54033;-8.59859;6.1914425;;532.3
693.0;591.3;;;;;;;;;;;;;;0.88534194;0.11609241;-0.37580493;;;;;532.3
693.0;591.3;;;;;;;;;;;;;;;;;-10.956145;-8.697775;6.3783684;;541.9
693.0;591.3;;;;;;;;;;;;;;0.8872341;0.11609241;-0.37867367;;;;;541.9
693.0;591.3;;;;;;;;;;;;;;;;;-11.448256;-8.911405;6.515702;;541.9
693.0;591.3;;;;;;;;;;;;;;0.88912624;0.11560412;-0.37903988;;;;;541.9
752.0;637.0;;;;;;;;;;;;;;;;;-11.925108;-9.31196;6.6873684;;551.6
752.0;637.0;;;;;;;;;;;;;;0.89010286;0.11633656;-0.37946716;;;;;551.6
752.0;637.0;;;;;;;;;;;;;;;;;-12.302774;-9.472182;6.923887;;551.6
752.0;637.0;;;;;;;;;;;;;;0.88808864;0.11511582;-0.3831904;;;;;551.6
752.0;637.0;;;;;;;;;;;;;;;;;-12.653737;-9.62096;7.0116277;;561.3
752.0;637.0;;;;;;;;;;;;;;0.88381606;0.11651967;-0.3795282;;;;;561.3
752.0;637.0;;;;;;;;;;;;;;;;;-12.977996;-9.846034;7.1718497;;561.3
752.0;637.0;;;;;;;;;;;;;;0.8808252;0.11627552;-0.38264108;;;;;561.3
752.0;637.0;;;;;;;;;;;;;;;;;-13.1801815;-9.92233;7.2595906;;570.9
752.0;637.0;;;;;;;;;;;;;;0.872158;0.11828975;-0.3787347;;;;;570.9
752.0;637.0;;;;;;;;;;;;;;;;;-13.508256;-10.387737;7.293924;;570.9
752.0;637.0;;;;;;;;;;;;;;0.87246317;0.12146367;-0.3822138;;;;;570.9
752.0;651.7;;;;;;;;;;;;;;;;;-13.733329;-10.95996;7.2634053;;580.6
752.0;651.7;;;;;;;;;;;;;;0.8748436;0.12494278;-0.3842891;;;;;580.6
752.0;651.7;;;;;;;;;;;;;;;;;-13.882107;-11.383404;7.2252574;;580.6
752.0;651.7;;;;;;;;;;;;;;0.87960446;0.126957;-0.387463;;;;;580.6
752.0;651.7;;;;;;;;;;;;;;;;;-13.977477;-11.574144;7.160405;;590.2
752.0;651.7;;;;;;;;;;;;;;0.87801754;0.12775049;-0.38807335;;;;;590.2
752.0;651.7;;;;;;;;;;;;;;;;;-14.103366;-11.883144;7.084109;;590.2
752.0;651.7;;;;;;;;;;;;;;0.8796655;0.12775049;-0.39063692;;;;;590.2
752.0;651.7;;;;;;;;;;;;;;;;;-14.12244;-12.146367;6.9963684;;599.9
752.0;651.7;;;;;;;;;;;;;;0.87978756;0.13275552;-0.38789025;;;;;599.9
752.0;651.7;;;;;;;;;;;;;;;;;-14.191107;-12.474441;6.878109;;599.9
752.0;651.7;;;;;;;;;;;;;;0.88137454;0.13489181;-0.3881344;;;;;599.9
813.0;705.4;;;;;;;;;;;;;;;;;-14.2407;-12.775811;6.778924;;609.5
813.0;705.4;;;;;;;;;;;;;;0.88393813;0.13525803;-0.38972136;;;;;609.5
813.0;705.4;;;;;;;;;;;;;;;;;-14.32081;-12.932219;6.7560353;;609.5
813.0;705.4;;;;;;;;;;;;;;0.88448745;0.1347087;-0.38886684;;;;;609.5
813.0;705.4;;;;;;;;;;;;;;;;;-14.427626;-12.913144;6.7484055;;619.2
813.0;705.4;;;;;;;;;;;;;;0.88265634;0.13385418;-0.3876461;;;;;619.2
813.0;705.4;;;;;;;;;;;;;;;;;-14.530625;-13.008514;6.75985;;619.2
813.0;705.4;;;;;;;;;;;;;;0.88369393;0.1345256;-0.38789025;;;;;619.2
813.0;705.4;;;;;;;;;;;;;;;;;-14.702292;-13.142034;6.7484055;;628.8
813.0;705.4;;;;;;;;;;;;;;0.88253427;0.13397625;-0.387463;;;;;628.8
813.0;705.4;;;;;;;;;;;;;;;;;-14.927366;-13.275552;6.805628;;628.8
813.0;705.4;;;;;;;;;;;;;;0.88283944;0.13623463;-0.38850063;;;;;628.8
813.0;706.2;;;;;;;;;;;;;;;;;-15.160069;-13.2107;6.8895535;;638.5
813.0;706.2;;;;;;;;;;;;;;0.8847926;0.13489181;-0.38673055;;;;;638.5
813.0;706.2;;;;;;;;;;;;;;;;;-15.480514;-13.298441;7.0764794;;638.5
813.0;706.2;;;;;;;;;;;;;;0.8846095;0.13531907;-0.38666952;;;;;638.5
813.0;706.2;;;;;;;;;;;;;;;;;-15.739922;-13.466292;7.1985536;;648.1
813.0;706.2;;;;;;;;;;;;;;0.88717306;0.13397625;-0.3894162;;;;;648.1
813.0;706.2;;;;;;;;;;;;;;;;;-16.041292;-13.363293;7.37022;;648.1
813.0;706.2;;;;;;;;;;;;;;0.88882107;0.13458663;-0.39228493;;;;;648.1
813.0;706.2;;;;;;;;;;;;;;;;;-16.388441;-13.183996;7.633442;;657.8
813.0;706.2;;;;;;;;;;;;;;0.88735616;0.13336588;-0.39033175;;;;;657.8
813.0;706.2;;;;;;;;;;;;;;;;;-16.853848;-13.084811;7.8508863;;657.8
813.0;706.2;;;;;;;;;;;;;;0.8840602;0.12775049;-0.38947722;;;;;657.8
871.0;757.3;;;;;;;;;;;;;;;;;-17.19718;-13.042848;8.041628;;667.4
871.0;757.3;;;;;;;;;;;;;;0.88216805;0.12286752;-0.3895993;;;;;667.4
871.0;757.3;;;;;;;;;;;;;;;;;-17.597734;-12.882626;8.331553;;667.4
871.0;757.3;;;;;;;;;;;;;;0.87777334;0.12079226;-0.39100313;;;;;667.4
871.0;757.3;;;;;;;;;;;;;;;;;-17.967772;-12.981811;8.659627;;677.0
871.0;757.3;;;;;;;;;;;;;;0.87563705;0.116214484;-0.39204076;;;;;677.0
871.0;757.3;;;;;;;;;;;;;;;;;-18.318735;-13.134403;8.991516;;677.0
871.0;757.3;;;;;;;;;;;;;;0.8719748;0.11560412;-0.3935667;;;;;677.0
871.0;757.3;;;;;;;;;;;;;;;;;-18.570513;-13.199256;9.411145;;686.7
871.0;757.3;;;;;;;;;;;;;;0.8751488;0.1114536;-0.39509264;;;;;686.7
871.0;757.3;;;;;;;;;;;;;;;;;-18.959625;-13.19544;9.807885;;686.7
871.0;757.3;;;;;;;;;;;;;;0.8773461;0.109866634;-0.39942625;;;;;686.7
871.0;765.2;;;;;;;;;;;;;;;;;-19.245735;-13.214515;10.155034;;696.3
871.0;765.2;;;;;;;;;;;;;;0.87887204;0.10943937;-0.40473646;;;;;696.3
871.0;765.2;;;;;;;;;;;;;;;;;-19.405958;-13.183996;10.406812;;696.3
871.0;765.2;;;;;;;;;;;;;;0.8767968;0.1076693;-0.4069338;;;;;696.3
871.0;765.2;;;;;;;;;;;;;;;;;-19.333477;-13.19544;10.643331;;705.9
871.0;765.2;;;;;;;;;;;;;;0.8741722;0.10425123;-0.41132846;;;;;705.9
871.0;765.2;;;;;;;;;;;;;;;;;-19.257181;-13.187811;10.658589;;705.9
871.0;765.2;;;;;;;;;;;;;;0.87246317;0.10278634;-0.41340372;;;;;705.9
871.0;765.2;;;;;;;;;;;;;;;;;-19.089329;-13.092441;10.631886;;715.5
871.0;765.2;;;;;;;;;;;;;;0.8692892;0.10010071;-0.41346475;;;;;715.5
871.0;765.2;;;;;;;;;;;;;;;;;-18.841366;-13.103885;10.551775;;715.5
871.0;765.2;;;;;;;;;;;;;;0.8680074;0.0966216;-0.41444135;;;;;715.5
931.0;825.5;;;;;;;;;;;;;;;;;-18.456068;-13.176367;10.475478;;725.1
931.0;825.5;;;;;;;;;;;;;;0.8671529;0.09430219;-0.41297647;;;;;725.1
931.0;825.5;;;;;;;;;;;;;;;;;-18.173773;-13.191626;10.387737;;725.1
931.0;825.5;;;;;;;;;;;;;;0.8684347;0.09399701;-0.41425824;;;;;725.1
931.0;825.5;;;;;;;;;;;;;;;;;-17.857143;-13.172552;10.258034;;734.7
931.0;825.5;;;;;;;;;;;;;;0.8678243;0.09418012;-0.41462448;;;;;734.7
931.0;825.5;;;;;;;;;;;;;;;;;-17.48329;-13.138219;10.12833;;734.7
931.0;825.5;;;;;;;;;;;;;;0.8671529;0.09344768;-0.41792047;;;;;734.7
931.0;825.5;;;;;;;;;;;;;;;;;-17.185736;-12.8711815;9.979552;;744.4
931.0;825.5;;;;;;;;;;;;;;0.8685568;0.09466842;-0.4196295;;;;;744.4
931.0;825.5;;;;;;;;;;;;;;;;;-16.876738;-12.722404;9.807885;;744.4
931.0;825.5;;;;;;;;;;;;;;0.8642231;0.094912566;-0.4203009;;;;;744.4
931.0;826.3;;;;;;;;;;;;;;;;;-16.6097;-12.596515;9.605701;;754.1
931.0;826.3;;;;;;;;;;;;;;0.85958433;0.09582812;-0.42152166;;;;;754.1
931.0;826.3;;;;;;;;;;;;;;;;;-16.350292;-12.405774;9.414961;;754.1
931.0;826.3;;;;;;;;;;;;;;0.85512865;0.095278785;-0.42146063;;;;;754.1
931.0;826.3;;;;;;;;;;;;;;;;;-16.109959;-12.222664;9.269998;;763.7
931.0;826.3;;;;;;;;;;;;;;0.8518326;0.09595019;-0.41737112;;;;;763.7
931.0;826.3;;;;;;;;;;;;;;;;;-16.041292;-12.0052185;9.239479;;763.7
931.0;826.3;;;;;;;;;;;;;;0.8465224;0.09595019;-0.41688284;;;;;763.7
931.0;826.3;;;;;;;;;;;;;;;;;-16.052736;-11.909848;9.193701;;773.3
931.0;826.3;;;;;;;;;;;;;;0.84859765;0.09778131;-0.4151738;;;;;773.3
931.0;826.3;;;;;;;;;;;;;;;;;-16.178625;-11.883144;9.201331;;773.3
931.0;826.3;;;;;;;;;;;;;;0.8572039;0.09985656;-0.4215827;;;;;773.3
992.0;878.3;;;;;;;;;;;;;;;;;-16.296885;-11.295663;9.380627;;783.0
992.0;878.3;;;;;;;;;;;;;;0.8578753;0.10376293;-0.42249826;;;;;783.0
992.0;878.3;;;;;;;;;;;;;;;;;-16.495255;-10.551775;9.598072;;783.0
992.0;878.3;;;;;;;;;;;;;;0.85836357;0.10913419;-0.42762536;;;;;783.0
992.0;878.3;;;;;;;;;;;;;;;;;-16.68218;-9.750664;9.762108;;792.6
992.0;878.3;;;;;;;;;;;;;;0.8542741;0.11737419;-0.4283578;;;;;792.6
992.0;878.3;;;;;;;;;;;;;;;;;-17.0484;-8.896146;9.910886;;792.6
992.0;878.3;;;;;;;;;;;;;;0.85097814;0.1271401;-0.4318369;;;;;792.6
992.0;878.3;;;;;;;;;;;;;;;;;-17.677847;-8.301035;10.185553;;802.1
992.0;878.3;;;;;;;;;;;;;;0.8501846;0.13238929;-0.43604848;;;;;802.1
992.0;878.3;;;;;;;;;;;;;;;;;-18.677328;-7.889035;10.43733;;802.1
992.0;878.3;;;;;;;;;;;;;;0.8479873;0.13257241;-0.44087037;;;;;802.1
992.0;886.2;;;;;;;;;;;;;;;;;-19.505142;-7.827998;10.765405;;811.7
992.0;886.2;;;;;;;;;;;;;;0.85335857;0.13153477;-0.44514298;;;;;811.7
992.0;886.2;;;;;;;;;;;;;;;;;-20.138401;-7.816553;10.95996;;811.7
992.0;886.2;;;;;;;;;;;;;;0.85634935;0.12512589;-0.45582446;;;;;811.7
992.0;886.2;;;;;;;;;;;;;;;;;-20.69155;-7.442702;11.112552;;821.3
992.0;886.2;;;;;;;;;;;;;;0.8560442;0.12787256;-0.4594867;;;;;821.3
992.0;886.2;;;;;;;;;;;;;;;;;-21.469772;-7.0917387;11.532182;;821.3
992.0;886.2;;;;;;;;;;;;;;0.84987944;0.14154485;-0.46290475;;;;;821.3
992.0;886.2;;;;;;;;;;;;;;;;;-22.682882;-6.805628;12.157811;;831.0
992.0;886.2;;;;;;;;;;;;;;0.83669543;0.14044619;-0.47035128;;;;;831.0
992.0;886.2;;;;;;;;;;;;;;;;;-23.56029;-6.550035;12.665181;;831.0
992.0;886.2;;;;;;;;;;;;;;0.8238777;0.1345256;-0.46888638;;;;;831.0
1110.0;946.3;;;;;;;;;;;;;;;;;-24.39192;-6.7369614;13.077182;;840.7
1110.0;946.3;;;;;;;;;;;;;;0.8182623;0.12793359;-0.4685812;;;;;840.7
1110.0;946.3;;;;;;;;;;;;;;;;;-24.937437;-7.2176275;13.462478;;840.7
1110.0;946.3;;;;;;;;;;;;;;0.8166143;0.12207404;-0.47132787;;;;;840.7
1110.0;946.3;;;;;;;;;;;;;;;;;-25.311289;-7.6715903;13.809626;;850.2
1110.0;946.3;;;;;;;;;;;;;;0.8229621;0.11957152;-0.48170415;;;;;850.2
1110.0;946.3;;;;;;;;;;;;;;;;;-25.650806;-7.6105533;14.191107;;850.2
1110.0;946.3;;;;;;;;;;;;;;0.82546467;0.11877804;-0.48988312;;;;;850.2
1110.0;946.3;;;;;;;;;;;;;;;;;-26.093327;-7.534257;14.557329;;859.9
1110.0;946.3;;;;;;;;;;;;;;0.8269295;0.11993774;-0.50160223;;;;;859.9
1110.0;946.3;;;;;;;;;;;;;;;;;-26.474808;-7.4045534;14.831996;;859.9
1110.0;946.3;;;;;;;;;;;;;;0.82558674;0.12152471;-0.5101474;;;;;859.9
1110.0;947.0;;;;;;;;;;;;;;;;;-26.795252;-7.3015537;15.064699;;869.6
1110.0;947.0;;;;;;;;;;;;;;0.82149726;0.11999878;-0.51948607;;;;;869.6
1110.0;947.0;;;;;;;;;;;;;;;;;-27.012697;-7.3854795;15.167699;;869.6
1110.0;947.0;;;;;;;;;;;;;;0.8156377;0.11627552;-0.5301065;;;;;869.6
1110.0;947.0;;;;;;;;;;;;;;;;;-27.012697;-7.595294;15.13718;;879.2
1110.0;947.0;;;;;;;;;;;;;;0.80916774;0.11023286;-0.53315836;;;;;879.2
1110.0;947.0;;;;;;;;;;;;;;;;;-26.772364;-8.068331;15.118106;;879.2
1110.0;947.0;;;;;;;;;;;;;;0.806238;0.10657064;-0.5373089;;;;;879.2
1110.0;947.0;;;;;;;;;;;;;;;;;-26.30314;-8.594775;14.996032;;888.9
1110.0;947.0;;;;;;;;;;;;;;0.80501723;0.10254219;-0.537492;;;;;888.9
1110.0;947.0;;;;;;;;;;;;;;;;;-25.723288;-9.11359;14.919737;;888.9
1110.0;947.0;;;;;;;;;;;;;;0.8074587;0.098818935;-0.539201;;;;;888.9
1115.0;1059.5;;;;;;;;;;;;;;;;;-25.040436;-9.453109;14.828181;;898.5
1115.0;1059.5;;;;;;;;;;;;;;0.80758077;0.097170934;-0.53871274;;;;;898.5
1115.0;1059.5;;;;;;;;;;;;;;;;;-24.380474;-9.781182;14.709922;;898.5
1115.0;1059.5;;;;;;;;;;;;;;0.81136507;0.09656057;-0.53675956;;;;;898.5
1115.0;1059.5;;;;;;;;;;;;;;;;;-23.731956;-9.9642935;14.618366;;908.2
1115.0;1059.5;;;;;;;;;;;;;;0.8149052;0.09350871;-0.53529465;;;;;908.2
1115.0;1059.5;;;;;;;;;;;;;;;;;-23.026215;-9.979552;14.481033;;908.2
1115.0;1059.5;;;;;;;;;;;;;;0.8170415;0.09363079;-0.5305338;;;;;908.2
1115.0;1059.5;;;;;;;;;;;;;;;;;-22.400585;-10.204626;14.213996;;917.8
1115.0;1059.5;;;;;;;;;;;;;;0.82180244;0.09442427;-0.5294351;;;;;917.8
1115.0;1059.5;;;;;;;;;;;;;;;;;-21.64144;-10.055849;13.893551;;917.8
1115.0;1059.5;;;;;;;;;;;;;;0.82558674;0.09625538;-0.5268105;;;;;917.8
1115.0;1060.4;;;;;;;;;;;;;;;;;-20.954771;-9.998627;13.641774;;927.5
1115.0;1060.4;;;;;;;;;;;;;;0.83187354;0.09985656;-0.5285196;;;;;927.5
1115.0;1060.4;;;;;;;;;;;;;;;;;-20.18418;-9.651479;13.355663;;927.5
1115.0;1060.4;;;;;;;;;;;;;;0.8352306;0.10296945;-0.5278481;;;;;927.5
1115.0;1060.4;;;;;;;;;;;;;;;;;-19.444107;-9.331035;13.023774;;937.2
1115.0;1060.4;;;;;;;;;;;;;;0.84200567;0.10968352;-0.5251625;;;;;937.2
1115.0;1060.4;;;;;;;;;;;;;;;;;-18.837551;-8.89233;12.634663;;937.2
1115.0;1060.4;;;;;;;;;;;;;;0.8469497;0.11328471;-0.5215003;;;;;937.2
1115.0;1060.4;;;;;;;;;;;;;;;;;-18.147068;-8.350628;12.310404;;946.9
1115.0;1060.4;;;;;;;;;;;;;;0.8478042;0.11694693;-0.5150304;;;;;946.9
1115.0;1060.4;;;;;;;;;;;;;;;;;-17.590105;-7.87759;12.016664;;946.9
1115.0;1060.4;;;;;;;;;;;;;;0.85085607;0.12207404;-0.5124668;;;;;946.9
1174.0;1061.5;;;;;;;;;;;;;;;;;-17.170475;-7.3664055;11.757256;;956.5
1174.0;1061.5;;;;;;;;;;;;;;0.85024565;0.12701803;-0.50679034;;;;;956.5
1174.0;1061.5;;;;;;;;;;;;;;;;;-16.842403;-6.9734793;11.608478;;956.5
1174.0;1061.5;;;;;;;;;;;;;;0.8506119;0.13098544;-0.50398266;;;;;956.5
1174.0;1061.5;;;;;;;;;;;;;;;;;-16.701256;-6.6263313;11.3986635;;966.2
1174.0;1061.5;;;;;;;;;;;;;;0.85006255;0.1345256;-0.50178534;;;;;966.2
1174.0;1061.5;;;;;;;;;;;;;;;;;-16.598255;-6.3135166;11.272774;;966.2
1174.0;1061.5;;;;;;;;;;;;;;0.8462172;0.13727225;-0.49543747;;;;;966.2
1174.0;1061.5;;;;;;;;;;;;;;;;;-16.613514;-6.0731835;11.185034;;975.7
1174.0;1061.5;;;;;;;;;;;;;;0.8438978;0.13995789;-0.48799098;;;;;975.7
1174.0;1061.5;;;;;;;;;;;;;;;;;-16.777552;-6.0579243;11.070589;;975.7
1174.0;1061.5;;;;;;;;;;;;;;0.84163946;0.14209418;-0.48493913;;;;;975.7
1174.0;1062.3;;;;;;;;;;;;;;;;;-17.029327;-6.042665;11.013368;;985.3
1174.0;1062.3;;;;;;;;;;;;;;0.8387707;0.14484085;-0.47859126;;;;;985.3
1174.0;1062.3;;;;;;;;;;;;;;;;;-17.097994;-6.069369;10.883664;;985.3
1174.0;1062.3;;;;;;;;;;;;;;0.84127325;0.14874722;-0.47621083;;;;;985.3
1174.0;1062.3;;;;;;;;;;;;;;;;;-17.162846;-5.989258;10.883664;;995.0
1174.0;1062.3;;;;;;;;;;;;;;0.8396863;0.1539964;-0.4727317;;;;;995.0
1174.0;1062.3;;;;;;;;;;;;;;;;;-17.239141;-5.8900723;10.792109;;995.0
1174.0;1062.3;;;;;;;;;;;;;;0.84035766;0.15619373;-0.47376934;;;;;995.0
1174.0;1062.3;;;;;;;;;;;;;;;;;-17.250587;-5.821406;10.757775;;1004.7
1174.0;1062.3;;;;;;;;;;;;;;0.8361461;0.1617481;-0.47102267;;;;;1004.7
1174.0;1062.3;;;;;;;;;;;;;;;;;-17.200994;-5.7985168;10.734886;;1004.7
1174.0;1062.3;;;;;;;;;;;;;;0.8351085;0.16595966;-0.46919155;;;;;1004.7
1179.0;1120.2;;;;;;;;;;;;;;;;;-17.185736;-5.7832575;10.715812;;1014.3
1179.0;1120.2;;;;;;;;;;;;;;0.8348643;0.17114781;-0.46852016;;;;;1014.3
1179.0;1120.2;;;;;;;;;;;;;;;;;-17.242958;-5.787072;10.738701;;1014.3
1179.0;1120.2;;;;;;;;;;;;;;0.83535266;0.1734672;-0.4669332;;;;;1014.3
1179.0;1120.2;;;;;;;;;;;;;;;;;-17.399364;-5.779443;10.826442;;1024.0
1179.0;1120.2;;;;;;;;;;;;;;0.83999145;0.17737357;-0.46790978;;;;;1024.0
1179.0;1120.2;;;;;;;;;;;;;;;;;-17.582476;-5.7641835;10.898923;;1024.0
1179.0;1120.2;;;;;;;;;;;;;;0.8412122;0.17975402;-0.46638387;;;;;1024.0
1179.0;1120.2;;;;;;;;;;;;;;;;;-17.754143;-5.787072;11.024812;;1033.4
1179.0;1120.2;;;;;;;;;;;;;;0.8427992;0.17932676;-0.46418652;;;;;1033.4
1179.0;1120.2;;;;;;;;;;;;;;;;;-18.002106;-5.901517;11.131626;;1033.4
1179.0;1120.2;;;;;;;;;;;;;;0.8415174;0.17993714;-0.46302682;;;;;1033.4
1179.0;1121.0;;;;;;;;;;;;;;;;;-18.150883;-6.126591;11.249886;;1043.1
1179.0;1121.0;;;;;;;;;;;;;;0.8451186;0.18134098;-0.4618061;;;;;1043.1
1179.0;1121.0;;;;;;;;;;;;;;;;;-18.356884;-6.145665;11.429182;;1043.1
1179.0;1121.0;;;;;;;;;;;;;;0.84560686;0.17944884;-0.45857114;;;;;1043.1
1179.0;1121.0;;;;;;;;;;;;;;;;;-18.490402;-6.324961;11.532182;;1052.7
1179.0;1121.0;;;;;;;;;;;;;;0.845851;0.18042544;-0.4594867;;;;;1052.7
1179.0;1121.0;;;;;;;;;;;;;;;;;-18.719292;-6.431776;11.692404;;1052.7
1179.0;1121.0;;;;;;;;;;;;;;0.84951323;0.1784112;-0.458388;;;;;1052.7
1179.0;1121.0;;;;;;;;;;;;;;;;;-18.967255;-6.3745537;11.818293;;1062.3
1179.0;1121.0;;;;;;;;;;;;;;0.8478652;0.17847225;-0.45826593;;;;;1062.3
1179.0;1121.0;;;;;;;;;;;;;;;;;-19.24192;-6.363109;11.875515;;1062.3
1179.0;1121.0;;;;;;;;;;;;;;0.8469497;0.17694631;-0.45789972;;;;;1062.3
1232.0;1129.6;;;;0.0;0.0;0.0;;;;;;;;;;;;;;;
1232.0;1129.6;;;;-0.14891435;-0.07208253;0.29586795;;;;;;;;;;;;;;;
1232.0;1129.6;;;;-0.46506888;-0.2572861;0.79187024;;;;;;;;;;;;;;;
1232.0;1129.6;;;;-0.47939306;-0.26667026;0.7968446;;;;;;;;;;;;;;;
1232.0;1129.6;;;;-0.47977453;-0.266964;0.79813397;;;;;;;;;;;;;;;
1232.0;1139.6;;;;-0.48009878;-0.26781467;0.7993585;;;;;;;;;;;;;;;
1232.0;1139.6;;;;-0.48070914;-0.26868823;0.8002206;;;;;;;;;;;;;;;
1232.0;1139.6;;;;-0.47994238;-0.26955417;0.8013307;;;;;;;;;;;;;;;
1232.0;1139.6;;;;-0.47785956;-0.2707062;0.8019639;;;;;;;;;;;;;;;
1232.0;1139.6;;;;-0.47579962;-0.27113345;0.80194485;;;;;;;;;;;;;;;
1232.0;1140.9;57548;57487;13142;;;;;;;;;;;;;;;;;;
1232.0;1149.5;;;;-0.47742468;-0.2687569;0.8029138;;;;;;;;;;;;;;;
1232.0;1149.5;;;;-0.4710732;-0.26838306;0.8060838;;;;;;;;;;;;;;;
1232.0;1149.5;;;;-0.46661764;-0.26885608;0.80638516;;;;;;;;;;;;;;;
1232.0;1149.5;;;;-0.46797186;-0.2698975;0.80833447;;;;;;;;;;;;;;;
1232.0;1149.5;;;;-0.46890265;-0.27043536;0.810608;;;;;;;;;;;;;;;
1235.0;1159.6;;;;-0.46879965;-0.2695618;0.8126985;;;;;;;;;;;;;;;
1235.0;1159.6;;;;-0.47175986;-0.26803592;0.8144227;;;;;;;;;;;;;;;
1235.0;1159.6;;;;-0.47212607;-0.26697543;0.8165246;;;;;;;;;;;;;;;
1235.0;1159.6;;;;-0.47083288;-0.26663592;0.81665814;;;;;;;;;;;;;;;
1235.0;1159.6;;;;-0.4687844;-0.2661858;0.8163301;;;;;;;;;;;;;;;
1235.0;1161.0;73846;73855;13132;;;;;;;;;;;;;;;;;;
1235.0;1167.4;;;;;;;;;;;;;0;;;;;;;;
1235.0;1167.4;;;;;;;;;;;;;0;;;;;;;;
1235.0;1167.4;;;;;;;;;;;;;-1;;;;;;;;
1235.0;1167.4;;;;;;;;;;;;;-3;;;;;;;;
1235.0;1167.4;;;;;;;;;;;;;-4;;;;;;;;
1235.0;1169.7;;;;-0.4653321;-0.26629642;0.81787884;;;;;;;;;;;;;;;
1235.0;1169.7;;;;-0.4614144;-0.2660103;0.81839764;;;;;;;;;;;;;;;
1235.0;1169.7;;;;-0.45883185;-0.26658252;0.81852734;;;;;;;;;;;;;;;
1235.0;1169.7;;;;-0.45599753;-0.26777652;0.8204843;;;;;;;;;;;;;;;
1235.0;1169.7;;;;-0.45317847;-0.26895145;0.82131207;;;;;;;;;;;;;;;
1235.0;1179.8;;;;-0.4517861;-0.270134;0.821602;;;;;;;;;;;;;;;
1235.0;1179.8;;;;-0.45049673;-0.2713051;0.82239926;;;;;;;;;;;;;;;
1235.0;1179.8;;;;-0.44967276;-0.27229312;0.82161343;;;;;;;;;;;;;;;
1235.0;1179.8;;;;-0.45001227;-0.273037;0.82219326;;;;;;;;;;;;;;;
1235.0;1179.8;;;;-0.4515763;-0.27282718;0.8225976;;;;;;;;;;;;;;;
1235.0;1181.2;90176;90285;13135;;;;;;;;;;;;;;;;;;
1236.0;1189.9;;;;-0.4533921;-0.27255252;0.8213388;;;;;;;;;;;;;;;
1236.0;1189.9;;;;-0.45515066;-0.27220538;0.8206903;;;;;;;;;;;;;;;
1236.0;1189.9;;;;-0.45589453;-0.2728081;0.8189279;;;;;;;;;;;;;;;
1236.0;1189.9;;;;-0.4557572;-0.27399066;0.8169404;;;;;;;;;;;;;;;
1236.0;1189.9;;;;-0.45573813;-0.2752991;0.8165437;;;;;;;;;;;;;;;
1236.0;1195.6;;;;;;;;;;;;;;;;;-19.54329;-6.4546647;11.944181;;1072.0
1236.0;1195.6;;;;;;;;;;;;;;0.8473159;0.17700736;-0.4596698;;;;;1072.0
1236.0;1195.6;;;;;;;;;;;;;;;;;-19.87518;-6.6301465;12.062441;;1072.0
1236.0;1195.6;;;;;;;;;;;;;;0.8484756;0.17548142;-0.46186712;;;;;1072.0
1236.0;1195.6;;;;;;;;;;;;;;;;;-20.123142;-6.576739;12.10059;;1081.6
1236.0;1195.6;;;;;;;;;;;;;;0.84719384;0.17596972;-0.45893735;;;;;1081.6
1236.0;1195.6;;;;;;;;;;;;;;;;;-20.36729;-6.4813685;12.161627;;1081.6
1236.0;1195.6;;;;;;;;;;;;;;0.8460341;0.17615284;-0.46272165;;;;;1081.6
1236.0;1195.6;;;;;;;;;;;;;;;;;-20.680105;-6.515702;12.325664;;1091.2
1236.0;1195.6;;;;;;;;;;;;;;0.84841454;0.17645802;-0.46394238;;;;;1091.2
1236.0;1195.6;;;;;;;;;;;;;;;;;-20.832697;-6.5691094;12.4134035;;1091.2
1236.0;1195.6;;;;;;;;;;;;;;0.8467666;0.17651907;-0.46510208;;;;;1091.2
1292.0;1196.5;;;;;;;;;;;;;;;;;-21.046328;-6.366924;12.489699;;1100.8
1292.0;1196.5;;;;;;;;;;;;;;0.8446913;0.17481002;-0.47004607;;;;;1100.8
1292.0;1196.5;;;;;;;;;;;;;;;;;-21.374401;-6.1151466;12.474441;;1100.8
1292.0;1196.5;;;;;;;;;;;;;;0.8434706;0.17627491;-0.47212133;;;;;1100.8
1292.0;1196.5;;;;;;;;;;;;;;;;;-21.778772;-6.000702;12.562181;;1110.5
1292.0;1196.5;;;;;;;;;;;;;;0.84432507;0.17554247;-0.47596666;;;;;1110.5
1292.0;1196.5;;;;;;;;;;;;;;;;;-22.255623;-5.794702;12.6117735;;1110.5
1292.0;1196.5;;;;;;;;;;;;;;0.8438368;0.17542039;-0.47975096;;;;;1110.5
1292.0;1196.5;;;;;;;;;;;;;;;;;-22.606585;-5.550554;12.581255;;1120.1
1292.0;1196.5;;;;;;;;;;;;;;0.84047973;0.17334513;-0.47950682;;;;;1120.1
1292.0;1196.5;;;;;;;;;;;;;;;;;-22.995697;-5.298776;12.6117735;;1120.1
1292.0;1196.5;;;;;;;;;;;;;;0.8318125;0.16925566;-0.47907957;;;;;1120.1
1292.0;1199.9;;;;-0.45512396;-0.2772179;0.81502926;;;;;;;;;;;;;;;
1292.0;1199.9;;;;-0.45366675;-0.2793999;0.8143312;;;;;;;;;;;;;;;
1292.0;1199.9;;;;-0.4526139;-0.28227618;0.81485;;;;;;;;;;;;;;;
1292.0;1199.9;;;;-0.45190054;-0.2851105;0.81536114;;;;;;;;;;;;;;;
1292.0;1199.9;;;;-0.4519959;-0.2875748;0.8159715;;;;;;;;;;;;;;;
1292.0;1201.4;106598;106648;13134;;;;;;;;;;;;;;;;;;
1292.0;1207.7;;;;;;;;;;;;;-1;;;;;;;;
1292.0;1207.7;;;;;;;;;;;;;-19;;;;;;;;
1292.0;1207.7;;;;;;;;;;;;;-10;;;;;;;;
1292.0;1207.7;;;;;;;;;;;;;19;;;;;;;;
1292.0;1207.7;;;;;;;;;;;;;-40;;;;;;;;
1295.0;1209.9;;;;-0.45181662;-0.2898102;0.8156816;;;;;;;;;;;;;;;
1295.0;1209.9;;;;-0.45124823;-0.29096988;0.8157388;;;;;;;;;;;;;;;
1295.0;1209.9;;;;-0.45013815;-0.29268268;0.81596005;;;;;;;;;;;;;;;
1295.0;1209.9;;;;-0.44987494;-0.29400638;0.8176576;;;;;;;;;;;;;;;
1295.0;1209.9;;;;-0.44998175;-0.29407886;0.8192674;;;;;;;;;;;;;;;
1295.0;1220.0;;;;-0.45086676;-0.29397967;0.8217813;;;;;;;;;;;;;;;
1295.0;1220.0;;;;-0.45166022;-0.29386523;0.8242532;;;;;;;;;;;;;;;
1295.0;1220.0;;;;-0.45291525;-0.29383853;0.8252145;;;;;;;;;;;;;;;
1295.0;1220.0;;;;-0.45457464;-0.29390338;0.8256303;;;;;;;;;;;;;;;
1295.0;1220.0;;;;-0.45624548;-0.29480746;0.82515347;;;;;;;;;;;;;;;
1295.0;1221.6;123044;123039;13129;;;;;;;;;;;;;;;;;;
1295.0;1230.2;;;;-0.45898825;-0.297699;0.82382977;;;;;;;;;;;;;;;
1295.0;1230.2;;;;-0.46028906;-0.29987338;0.82406247;;;;;;;;;;;;;;;
1295.0;1230.2;;;;-0.45714957;-0.30222705;0.8247224;;;;;;;;;;;;;;;
1295.0;1230.2;;;;-0.46057898;-0.2974358;0.8248445;;;;;;;;;;;;;;;
1295.0;1230.2;;;;-0.4537621;-0.3022881;0.82860196;;;;;;;;;;;;;;;
1295.0;1240.3;;;;-0.45015723;-0.30822757;0.82530606;;;;;;;;;;;;;;;
1295.0;1240.3;;;;-0.45216376;-0.30936816;0.82322323;;;;;;;;;;;;;;;
1295.0;1240.3;;;;-0.45443732;-0.31385425;0.8220979;;;;;;;;;;;;;;;
1295.0;1240.3;;;;-0.4547463;-0.3160706;0.8202821;;;;;;;;;;;;;;;
1295.0;1240.3;;;;-0.45779806;-0.31849292;0.81858456;;;;;;;;;;;;;;;
1297.0;1240.7;;;;;;;;;;;;;;;;;-23.319956;-5.4971466;12.668996;;1129.8
1297.0;1240.7;;;;;;;;;;;;;;0.8306528;0.164861;-0.47773674;;;;;1129.8
1297.0;1240.7;;;;;;;;;;;;;;;;;-23.56029;-5.6154056;12.684256;;1129.8
1297.0;1240.7;;;;;;;;;;;;;;0.8313242;0.16180913;-0.48158208;;;;;1129.8
1297.0;1240.7;;;;;;;;;;;;;;;;;-23.9494;-5.6344795;12.730033;;1139.5
1297.0;1240.7;;;;;;;;;;;;;;0.8305307;0.15973388;-0.48304698;;;;;1139.5
1297.0;1240.7;;;;;;;;;;;;;;;;;-24.224068;-5.7222204;12.802515;;1139.5
1297.0;1240.7;;;;;;;;;;;;;;0.8291879;0.15424055;-0.4857326;;;;;1139.5
1297.0;1240.7;;;;;;;;;;;;;;;;;-24.533068;-5.7985168;12.833034;;1149.1
1297.0;1240.7;;;;;;;;;;;;;;0.82528156;0.14996795;-0.4801172;;;;;1149.1
1297.0;1240.7;;;;;;;;;;;;;;;;;-24.88403;-6.221961;12.936033;;1149.1
1297.0;1240.7;;;;;;;;;;;;;;0.8297983;0.14307077;-0.48707542;;;;;1149.1
1297.0;1241.5;;;;;;;;;;;;;;;;;-25.143436;-6.3974423;12.981811;;1158.8
1297.0;1241.5;;;;;;;;;;;;;;0.82924896;0.13690603;-0.48963895;;;;;1158.8
1297.0;1241.5;;;;;;;;;;;;;;;;;-25.292213;-6.263924;12.966552;;1158.8
1297.0;1241.5;;;;;;;;;;;;;;0.82430494;0.1307413;-0.48768577;;;;;1158.8
1297.0;1241.5;;;;;;;;;;;;;;;;;-25.372326;-6.469924;12.874996;;1168.4
1297.0;1241.5;;;;;;;;;;;;;;0.8183233;0.12408826;-0.48701438;;;;;1168.4
1297.0;1241.5;;;;;;;;;;;;;;;;;-25.444807;-6.9544053;12.768181;;1168.4
1297.0;1241.5;;;;;;;;;;;;;;0.8213752;0.11700796;-0.48878446;;;;;1168.4
1297.0;1241.5;;;;;;;;;;;;;;;;;-25.276955;-7.206183;12.623219;;1178.1
1297.0;1241.5;;;;;;;;;;;;;;0.82302314;0.10876797;-0.4928129;;;;;1178.1
1297.0;1241.5;;;;;;;;;;;;;;;;;-25.002289;-7.1642203;12.443922;;1178.1
1297.0;1241.5;;;;;;;;;;;;;;0.82180244;0.10187078;-0.49208045;;;;;1178.1
1352.0;1241.7;139462;139397;13130;;;;;;;;;;;;;;;;;;
1352.0;1248.1;;;;;;;;;;;;;57;;;;;;;;
1352.0;1248.1;;;;;;;;;;;;;-38;;;;;;;;
1352.0;1248.1;;;;;;;;;;;;;-80;;;;;;;;
1352.0;1248.1;;;;;;;;;;;;;372;;;;;;;;
1352.0;1248.1;;;;;;;;;;;;;-518;;;;;;;;
1352.0;1250.2;;;;-0.45795828;-0.32068256;0.81725705;;;;;;;;;;;;;;;
1352.0;1250.2;;;;-0.4577561;-0.32307056;0.8177568;;;;;;;;;;;;;;;
1352.0;1250.2;;;;-0.45893484;-0.32506183;0.81777966;;;;;;;;;;;;;;;
1352.0;1250.2;;;;-0.45968634;-0.32680896;0.8190576;;;;;;;;;;;;;;;
1352.0;1250.2;;;;-0.46095663;-0.32955936;0.8165132;;;;;;;;;;;;;;;
1352.0;1260.2;;;;-0.4619637;-0.3315926;0.81707776;;;;;;;;;;;;;;;
1352.0;1260.2;;;;-0.4624558;-0.33321765;0.81627285;;;;;;;;;;;;;;;
1352.0;1260.2;;;;-0.46261984;-0.33457187;0.8164216;;;;;;;;;;;;;;;
1352.0;1260.2;;;;-0.46357733;-0.3354111;0.81640255;;;;;;;;;;;;;;;
1352.0;1260.2;;;;-0.46440512;-0.33563235;0.81743634;;;;;;;;;;;;;;;
1352.0;1261.9;155813;155832;13143;;;;;;;;;;;;;;;;;;
1352.0;1270.2;;;;-0.46472555;-0.33568576;0.81761944;;;;;;;;;;;;;;;
1352.0;1270.2;;;;-0.46483618;-0.33563617;0.81775296;;;;;;;;;;;;;;;
1352.0;1270.2;;;;-0.4658547;-0.3359261;0.81879437;;;;;;;;;;;;;;;
1352.0;1270.2;;;;-0.46658713;-0.33548358;0.8195535;;;;;;;;;;;;;;;
1352.0;1270.2;;;;-0.46691138;-0.33547214;0.81977856;;;;;;;;;;;;;;;
1353.0;1280.2;;;;-0.46649557;-0.33475116;0.819729;;;;;;;;;;;;;;;
1353.0;1280.2;;;;-0.46579748;-0.33485416;0.82040036;;;;;;;;;;;;;;;
1353.0;1280.2;;;;-0.46472555;-0.33464816;0.82016003;;;;;;;;;;;;;;;
1353.0;1280.2;;;;-0.46357352;-0.335228;0.81899655;;;;;;;;;;;;;;;
1353.0;1280.2;;;;-0.46301657;-0.33526996;0.8188554;;;;;;;;;;;;;;;
1353.0;1281.9;172198;172234;13153;;;;;;;;;;;;;;;;;;
1353.0;1288.3;;;;;;;;;;;;;-971;;;;;;;;
1353.0;1288.3;;;;;;;;;;;;;1415;;;;;;;;
1353.0;1288.3;;;;;;;;;;;;;1888;;;;;;;;
1353.0;1288.3;;;;;;;;;;;;;-3804;;;;;;;;
1353.0;1288.3;;;;;;;;;;;;;-12107;;;;;;;;
1353.0;1290.3;;;;-0.4633599;-0.33575824;0.81881344;;;;;;;;;;;;;;;
1353.0;1290.3;;;;-0.463749;-0.3360329;0.8182603;;;;;;;;;;;;;;;
1353.0;1290.3;;;;-0.46371084;-0.33624652;0.8175279;;;;;;;;;;;;;;;
1353.0;1290.3;;;;-0.46266562;-0.33643344;0.81614697;;;;;;;;;;;;;;;
1353.0;1290.3;;;;-0.46093374;-0.3365288;0.8149682;;;;;;;;;;;;;;;
1353.0;1300.4;;;;-0.45945364;-0.33698657;0.81401455;;;;;;;;;;;;;;;
1353.0;1300.4;;;;-0.45822912;-0.33760455;0.81354916;;;;;;;;;;;;;;;
1353.0;1300.4;;;;-0.45740896;-0.33803943;0.8133203;;;;;;;;;;;;;;;
1353.0;1300.4;;;;-0.45756155;-0.33983615;0.81341946;;;;;;;;;;;;;;;
1353.0;1300.4;;;;-0.45837408;-0.3414345;0.813099;;;;;;;;;;;;;;;
1355.0;1301.0;;;;;;;;;;;;;;;;;-24.575031;-7.160405;12.184515;;1187.7
1355.0;1301.0;;;;;;;;;;;;;;0.82253486;0.09619434;-0.49372846;;;;;1187.7
1355.0;1301.0;;;;;;;;;;;;;;;;;-24.021883;-7.309183;11.9556265;;1187.7
1355.0;1301.0;;;;;;;;;;;;;;0.827662;0.0926542;-0.49922177;;;;;1187.7
1355.0;1301.0;;;;;;;;;;;;;;;;;-23.628956;-7.126072;11.658071;;1197.4
1355.0;1301.0;;;;;;;;;;;;;;0.83175147;0.08984649;-0.50483716;;;;;1197.4
1355.0;1301.0;;;;;;;;;;;;;;;;;-23.174994;-6.8437757;11.303292;;1197.4
1355.0;1301.0;;;;;;;;;;;;;;0.83498645;0.0865505;-0.5100253;;;;;1197.4
1355.0;1301.0;;;;;;;;;;;;;;;;;-22.52266;-6.611072;10.9408865;;1206.8
1355.0;1301.0;;;;;;;;;;;;;;0.83370465;0.08355968;-0.5152135;;;;;1206.8
1355.0;1301.0;;;;;;;;;;;;;;;;;-21.931364;-6.3745537;10.605183;;1206.8
1355.0;1301.0;;;;;;;;;;;;;;0.8328501;0.081362344;-0.52034056;;;;;1206.8
1355.0;1302.2;;;;;;;;;;;;;;;;;-21.263771;-6.267739;10.227515;;1216.4
1355.0;1302.2;;;;;;;;;;;;;;0.8341319;0.08087405;-0.527665;;;;;1216.4
1355.0;1302.2;;;;;;;;;;;;;;;;;-20.527512;-5.9053316;9.758293;;1216.4
1355.0;1302.2;;;;;;;;;;;;;;0.83077484;0.08069094;-0.5328532;;;;;1216.4
1355.0;1302.2;;;;;;;;;;;;;;;;;-19.886623;-5.6230354;9.331035;;1226.0
1355.0;1302.2;;;;;;;;;;;;;;0.8294931;0.08075198;-0.53724784;;;;;1226.0
1355.0;1302.2;;;;;;;;;;;;;;;;;-19.257181;-5.3369246;8.953367;;1226.0
1355.0;1302.2;;;;;;;;;;;;;;0.82595295;0.08215583;-0.5377361;;;;;1226.0
1355.0;1302.2;;;;;;;;;;;;;;;;;-18.627735;-5.1957765;8.617663;;1235.7
1355.0;1302.2;;;;;;;;;;;;;;0.82381666;0.08349864;-0.5427412;;;;;1235.7
1355.0;1302.2;;;;;;;;;;;;;;;;;-18.162329;-4.928739;8.232368;;1235.7
1355.0;1302.2;;;;;;;;;;;;;;0.8192999;0.08465835;-0.54084903;;;;;1235.7
1410.0;1302.0;188513;188552;13150;;;;;;;;;;;;;;;;;;
1410.0;1310.4;;;;-0.45926672;-0.34238055;0.81359494;;;;;;;;;;;;;;;
1410.0;1310.4;;;;-0.4592057;-0.34302142;0.81339276;;;;;;;;;;;;;;;
1410.0;1310.4;;;;-0.4593659;-0.34404758;0.81271374;;;;;;;;;;;;;;;
1410.0;1310.4;;;;-0.4587441;-0.34451297;0.81217587;;;;;;;;;;;;;;;
1410.0;1310.4;;;;-0.45740134;-0.3447037;0.81128705;;;;;;;;;;;;;;;
1410.0;1320.4;;;;-0.45540243;-0.3448029;0.8108331;;;;;;;;;;;;;;;
1410.0;1320.4;;;;-0.4532166;-0.34473422;0.8101045;;;;;;;;;;;;;;;
1410.0;1320.4;;;;-0.45188528;-0.3452187;0.8092042;;;;;;;;;;;;;;;
1410.0;1320.4;;;;-0.4505654;-0.34562686;0.808262;;;;;;;;;;;;;;;
1410.0;1320.4;;;;-0.4496804;-0.34580997;0.80684674;;;;;;;;;;;;;;;
1410.0;1322.2;204977;204931;13150;;;;;;;;;;;;;;;;;;
1410.0;1328.5;;;;;;;;;;;;;-15030;;;;;;;;
1410.0;1328.5;;;;;;;;;;;;;-10426;;;;;;;;
1410.0;1328.5;;;;;;;;;;;;;-4676;;;;;;;;
1410.0;1328.5;;;;;;;;;;;;;-3680;;;;;;;;
1410.0;1328.5;;;;;;;;;;;;;-5909;;;;;;;;
1410.0;1330.5;;;;-0.44808966;-0.34653857;0.8058435;;;;;;;;;;;;;;;
1410.0;1330.5;;;;-0.44641882;-0.3472214;0.80553067;;;;;;;;;;;;;;;
1410.0;1330.5;;;;-0.4453507;-0.34813312;0.8053285;;;;;;;;;;;;;;;
1410.0;1330.5;;;;-0.44554144;-0.34928516;0.8043519;;;;;;;;;;;;;;;
1410.0;1330.5;;;;-0.4455033;-0.34970096;0.8045999;;;;;;;;;;;;;;;
1412.0;1340.5;;;;-0.44487387;-0.35024646;0.8049356;;;;;;;;;;;;;;;
1412.0;1340.5;;;;-0.44437796;-0.3505974;0.8056451;;;;;;;;;;;;;;;
1412.0;1340.5;;;;-0.4441567;-0.35096362;0.80500805;;;;;;;;;;;;;;;
1412.0;1340.5;;;;-0.4444123;-0.3516617;0.8050004;;;;;;;;;;;;;;;
1412.0;1340.5;;;;-0.44489676;-0.3520241;0.8054048;;;;;;;;;;;;;;;
1412.0;1342.3;221362;221335;13154;;;;;;;;;;;;;;;;;;
1412.0;1350.6;;;;-0.445427;-0.3522263;0.8054124;;;;;;;;;;;;;;;
1412.0;1350.6;;;;-0.44616324;-0.35224918;0.8060647;;;;;;;;;;;;;;;
1412.0;1350.6;;;;-0.44701773;-0.3525162;0.8065835;;;;;;;;;;;;;;;
1412.0;1350.6;;;;-0.44767004;-0.35278323;0.807129;;;;;;;;;;;;;;;
1412.0;1350.6;;;;-0.44805533;-0.3533211;0.8071977;;;;;;;;;;;;;;;
1412.0;1360.7;;;;-0.44826895;-0.35309604;0.8073312;;;;;;;;;;;;;;;
1412.0;1360.7;;;;-0.44836813;-0.35403064;0.8063394;;;;;;;;;;;;;;;
1412.0;1360.7;;;;-0.44966894;-0.3549538;0.80617917;;;;;;;;;;;;;;;
1412.0;1360.7;;;;-0.44493872;-0.35107425;0.80817425;;;;;;;;;;;;;;;
1412.0;1360.7;;;;-0.44481283;-0.35252002;0.8074075;;;;;;;;;;;;;;;
1412.0;1362.6;237693;237736;13160;;;;;;;;;;;;;;;;;;
1418.0;1368.9;;;;;;;;;;;;;;;;;-17.69692;-4.772332;7.889035;;1245.3
1418.0;1368.9;;;;;;;;;;;;;;0.8166143;0.08514664;-0.54139835;;;;;1245.3
1418.0;1368.9;;;;;;;;;;;;;;;;;-17.227697;-4.799036;7.526627;;1245.3
1418.0;1368.9;;;;;;;;;;;;;;0.8147221;0.08142339;-0.537492;;;;;1245.3
1418.0;1368.9;;;;;;;;;;;;;;;;;-16.72033;-4.9401836;7.0345163;;1255.0
1418.0;1368.9;;;;;;;;;;;;;;0.814539;0.08038575;-0.5340739;;;;;1255.0
1418.0;1368.9;;;;;;;;;;;;;;;;;-16.067995;-5.0012207;6.6492205;;1255.0
1418.0;1368.9;;;;;;;;;;;;;;0.8152104;0.078676715;-0.5305948;;;;;1255.0
1418.0;1368.9;;;;;;;;;;;;;;;;;-15.289773;-5.0737023;6.2181463;;1264.7
1418.0;1368.9;;;;;;;;;;;;;;0.8181402;0.076906644;-0.527665;;;;;1264.7
1418.0;1368.9;;;;;;;;;;;;;;;;;-14.484848;-5.123295;5.8023314;;1264.7
1418.0;1368.9;;;;;;;;;;;;;;0.8240608;0.07562487;-0.5254677;;;;;1264.7
1418.0;1368.8;;;;;;;;;;;;;-6120;;;;;;;;
1418.0;1368.8;;;;;;;;;;;;;-5209;;;;;;;;
1418.0;1368.8;;;;;;;;;;;;;-5617;;;;;;;;
1418.0;1368.8;;;;;;;;;;;;;-5815;;;;;;;;
1418.0;1368.8;;;;;;;;;;;;;-5733;;;;;;;;
1419.0;1369.6;;;;;;;;;;;;;;;;;-13.676107;-4.947813;5.3292947;;1274.2
1419.0;1369.6;;;;;;;;;;;;;;0.8291269;0.07641835;-0.52449113;;;;;1274.2
1419.0;1369.6;;;;;;;;;;;;;;;;;-12.878811;-4.589221;4.8333693;;1274.2
1419.0;1369.6;;;;;;;;;;;;;;0.83095795;0.0756859;-0.51979125;;;;;1274.2
1419.0;1369.6;;;;;;;;;;;;;;;;;-12.218848;-4.276406;4.352702;;1283.9
1419.0;1369.6;;;;;;;;;;;;;;0.83303326;0.07739494;-0.5200964;;;;;1283.9
1419.0;1369.6;;;;;;;;;;;;;;;;;-11.539811;-3.9979248;3.9292583;;1283.9
1419.0;1369.6;;;;;;;;;;;;;;0.8370617;0.07593005;-0.51637316;;;;;1283.9
1419.0;1369.6;;;;;;;;;;;;;;;;;-10.937071;-3.6507769;3.5325174;;1293.5
1419.0;1369.6;;;;;;;;;;;;;;0.83602405;0.07562487;-0.51515245;;;;;1293.5
1419.0;1369.6;;;;;;;;;;;;;;;;;-10.227515;-3.151036;3.1243324;;1293.5
1419.0;1369.6;;;;;;;;;;;;;;0.8354747;0.07525864;-0.5103305;;;;;1293.5
1419.0;1370.5;;;;-0.44614416;-0.35208896;0.8076669;;;;;;;;;;;;;;;
1419.0;1370.5;;;;-0.4453507;-0.35137942;0.80786526;;;;;;;;;;;;;;;
1419.0;1370.5;;;;-0.4458962;-0.350441;0.8075639;;;;;;;;;;;;;;;
1419.0;1370.5;;;;-0.44707495;-0.34980014;0.8072473;;;;;;;;;;;;;;;
1419.0;1370.5;;;;-0.4464112;-0.34907535;0.80754864;;;;;;;;;;;;;;;
1419.0;1380.5;;;;-0.446724;-0.34813693;0.8078958;;;;;;;;;;;;;;;
1419.0;1380.5;;;;-0.44595724;-0.34712985;0.8076745;;;;;;;;;;;;;;;
1419.0;1380.5;;;;-0.4442826;-0.34622958;0.8075563;;;;;;;;;;;;;;;
1419.0;1380.5;;;;-0.4429894;-0.34513095;0.8071939;;;;;;;;;;;;;;;
1419.0;1380.5;;;;-0.44223028;-0.34408954;0.8069726;;;;;;;;;;;;;;;
1419.0;1382.5;254113;254070;13152;;;;;;;;;;;;;;;;;;
1473.0;1390.5;;;;-0.4411965;-0.34297946;0.80682385;;;;;;;;;;;;;;;
1473.0;1390.5;;;;-0.44030768;-0.34152225;0.806862;;;;;;;;;;;;;;;
1473.0;1390.5;;;;-0.4405175;-0.34006503;0.80747616;;;;;;;;;;;;;;;
1473.0;1390.5;;;;-0.43977743;-0.33903506;0.8072206;;;;;;;;;;;;;;;
1473.0;1390.5;;;;-0.4388581;-0.33750919;0.807026;;;;;;;;;;;;;;;
1473.0;1400.5;;;;-0.4383965;-0.336319;0.8073846;;;;;;;;;;;;;;;
1473.0;1400.5;;;;-0.43842322;-0.3347397;0.8081018;;;;;;;;;;;;;;;
1473.0;1400.5;;;;-0.43943793;-0.33340076;0.80931485;;;;;;;;;;;;;;;
1473.0;1400.5;;;;-0.44118506;-0.33179095;0.8102418;;;;;;;;;;;;;;;
1473.0;1400.5;;;;-0.44230658;-0.3304787;0.811226;;;;;;;;;;;;;;;
1473.0;1402.5;262143;262143;13148;;;;;;;;;;;;;;;;;;
1473.0;1408.8;;;;;;;;;;;;;-5734;;;;;;;;
1473.0;1408.8;;;;;;;;;;;;;-5594;;;;;;;;
1473.0;1408.8;;;;;;;;;;;;;-5680;;;;;;;;
1473.0;1408.8;;;;;;;;;;;;;-5808;;;;;;;;
1473.0;1408.8;;;;;;;;;;;;;-5814;;;;;;;;
1473.0;1410.6;;;;-0.44271475;-0.3292885;0.81240094;;;;;;;;;;;;;;;
1473.0;1410.6;;;;-0.44264227;-0.32818606;0.81289685;;;;;;;;;;;;;;;
1473.0;1410.6;;;;-0.44292074;-0.3266106;0.8130685;;;;;;;;;;;;;;;
1473.0;1410.6;;;;-0.44313055;-0.32561496;0.8133546;;;;;;;;;;;;;;;
1473.0;1410.6;;;;-0.4430619;-0.3248444;0.8131715;;;;;;;;;;;;;;;
1477.0;1420.7;;;;-0.44284445;-0.32387546;0.8127328;;;;;;;;;;;;;;;
1477.0;1420.7;;;;-0.4432984;-0.32338718;0.812214;;;;;;;;;;;;;;;
1477.0;1420.7;;;;-0.44384772;-0.3226166;0.8126527;;;;;;;;;;;;;;;
1477.0;1420.7;;;;-0.4445954;-0.32205585;0.81245434;;;;;;;;;;;;;;;
1477.0;1420.7;;;;-0.4452744;-0.32109454;0.81201184;;;;;;;;;;;;;;;
1477.0;1422.8;262143;262143;13146;;;;;;;;;;;;;;;;;;
1477.0;1429.1;;;;;;;;;;;;;;;;;-9.582812;-2.9335918;2.7771842;;1303.1
1477.0;1429.1;;;;;;;;;;;;;;0.8337657;0.07593005;-0.5056917;;;;;1303.1
1477.0;1429.1;;;;;;;;;;;;;;;;;-9.063997;-2.8305917;2.4414806;;1303.1
1477.0;1429.1;;;;;;;;;;;;;;0.83932006;0.07580798;-0.5001373;;;;;1303.1
1477.0;1429.1;;;;;;;;;;;;;;;;;-8.495589;-2.5292215;2.273629;;1312.7
1477.0;1429.1;;;;;;;;;;;;;;0.83553576;0.075319685;-0.49739066;;;;;1312.7
1477.0;1429.1;;;;;;;;;;;;;;;;;-8.18659;-2.212592;2.1477401;;1312.7
1477.0;1429.1;;;;;;;;;;;;;;0.83498645;0.07586902;-0.4918363;;;;;1312.7
1477.0;1429.1;;;;;;;;;;;;;;;;;-7.9958496;-2.0867033;2.0638144;;1322.3
1477.0;1429.1;;;;;;;;;;;;;;0.8402356;0.07708976;-0.48817408;;;;;1322.3
1477.0;1429.1;;;;;;;;;;;;;;;;;-7.869961;-1.9569995;2.0027773;;1322.3
1477.0;1429.1;;;;;;;;;;;;;;0.8454848;0.078554645;-0.4885403;;;;;1322.3
1478.0;1430.3;;;;;;;;;;;;;;;;;-7.797479;-1.5984069;1.9989624;;1331.9
1478.0;1430.3;;;;;;;;;;;;;;0.8472549;0.07885983;-0.48579362;;;;;1331.9
1478.0;1430.3;;;;;;;;;;;;;;;;;-7.797479;-1.2436292;1.903592;;1331.9
1478.0;1430.3;;;;;;;;;;;;;;0.8451186;0.077883236;-0.48194832;;;;;1331.9
1478.0;1430.3;;;;;;;;;;;;;;;;;-7.7059236;-1.0795922;1.8463699;;1341.5
1478.0;1430.3;;;;;;;;;;;;;;0.84487444;0.080446795;-0.47932371;;;;;1341.5
1478.0;1430.3;;;;;;;;;;;;;;;;;-7.740257;-0.96896267;1.7891476;;1341.5
1478.0;1430.3;;;;;;;;;;;;;;0.8438978;0.08032472;-0.47621083;;;;;1341.5
1478.0;1430.3;;;;;;;;;;;;;;;;;-7.7249975;-0.98803675;1.8196661;;1351.1
1478.0;1430.3;;;;;;;;;;;;;;0.8451186;0.08203375;-0.47608876;;;;;1351.1
1478.0;1430.3;;;;;;;;;;;;;;;;;-7.942442;-0.7553331;1.8578143;;1351.1
1478.0;1430.3;;;;;;;;;;;;;;0.84707177;0.08191168;-0.47639394;;;;;1351.1
1478.0;1430.7;;;;-0.44712836;-0.3202553;0.81149304;;;;;;;;;;;;;;;
1478.0;1430.7;;;;-0.44810492;-0.31855777;0.81124127;;;;;;;;;;;;;;;
1478.0;1430.7;;;;-0.44948584;-0.31724933;0.8108369;;;;;;;;;;;;;;;
1478.0;1430.7;;;;-0.4500237;-0.3158913;0.8100244;;;;;;;;;;;;;;;
1478.0;1430.7;;;;-0.44966894;-0.3145409;0.80840695;;;;;;;;;;;;;;;
1481.0;1436.5;;;;;;;;;;;;;;;;;-8.140813;-0.63325906;1.9646292;;1360.8
1481.0;1436.5;;;;;;;;;;;;;;0.84719384;0.08539079;-0.47401348;;;;;1360.8
1481.0;1436.5;;;;;;;;;;;;;;;;;-8.434553;-0.48829615;1.9913328;;1360.8
1481.0;1436.5;;;;;;;;;;;;;;0.8478042;0.08850368;-0.47151098;;;;;1360.8
1481.0;1436.5;;;;;;;;;;;;;;;;;-8.644367;-0.46540728;2.1553698;;1370.4
1481.0;1436.5;;;;;;;;;;;;;;0.84670556;0.090578936;-0.4689474;;;;;1370.4
1481.0;1436.5;;;;;;;;;;;;;;;;;-9.083072;-0.5836665;2.3308513;;1370.4
1481.0;1436.5;;;;;;;;;;;;;;0.847438;0.09198279;-0.46717733;;;;;1370.4
1481.0;1436.5;;;;;;;;;;;;;;;;;-9.445479;-0.7286294;2.5711844;;1380.1
1481.0;1436.5;;;;;;;;;;;;;;0.8465834;0.095583975;-0.46632284;;;;;1380.1
1481.0;1436.5;;;;;;;;;;;;;;;;;-9.865108;-0.94225895;2.8153324;;1380.1
1481.0;1436.5;;;;;;;;;;;;;;0.8448134;0.09808649;-0.46351513;;;;;1380.1
1481.0;1440.6;;;;-0.4489289;-0.31340793;0.80837643;;;;;;;;;;;;;;;
1481.0;1440.6;;;;-0.4482842;-0.3125153;0.8070489;;;;;;;;;;;;;;;
1481.0;1440.6;;;;-0.4481812;-0.3123398;0.80620587;;;;;;;;;;;;;;;
1481.0;1440.6;;;;-0.44812018;-0.3122864;0.8060876;;;;;;;;;;;;;;;
1481.0;1440.6;;;;-0.44862372;-0.31258014;0.8054315;;;;;;;;;;;;;;;
1481.0;1442.7;262143;262143;13152;;;;;;;;;;;;;;;;;;
1481.0;1448.9;;;;;;;;;;;;;-5873;;;;;;;;
1481.0;1448.9;;;;;;;;;;;;;-6142;;;;;;;;
1481.0;1448.9;;;;;;;;;;;;;-6581;;;;;;;;
1481.0;1448.9;;;;;;;;;;;;;-6998;;;;;;;;
1481.0;1448.9;;;;;;;;;;;;;-7261;;;;;;;;
1530.0;1450.4;;;;-0.44933707;-0.31310657;0.8047296;;;;;;;;;;;;;;;
1530.0;1450.4;;;;-0.45064932;-0.31403354;0.80477536;;;;;;;;;;;;;;;
1530.0;1450.4;;;;-0.45162207;-0.31469348;0.8043672;;;;;;;;;;;;;;;
1530.0;1450.4;;;;-0.45174032;-0.31501392;0.8047563;;;;;;;;;;;;;;;
1530.0;1450.4;;;;-0.45116812;-0.31482318;0.8049356;;;;;;;;;;;;;;;
1530.0;1460.4;;;;-0.4501496;-0.3146706;0.80516446;;;;;;;;;;;;;;;
1530.0;1460.4;;;;-0.44891745;-0.3145447;0.80581677;;;;;;;;;;;;;;;
1530.0;1460.4;;;;-0.44827658;-0.3140793;0.80633175;;;;;;;;;;;;;;;
1530.0;1460.4;;;;-0.44817358;-0.31383136;0.8069879;;;;;;;;;;;;;;;
1530.0;1460.4;;;;-0.44810873;-0.3137093;0.8086473;;;;;;;;;;;;;;;
1530.0;1462.6;262143;262143;13148;;;;;;;;;;;;;;;;;;
1530.0;1470.5;;;;-0.44798666;-0.31304553;0.810856;;;;;;;;;;;;;;;
1530.0;1470.5;;;;-0.4477616;-0.31250003;0.812359;;;;;;;;;;;;;;;
1530.0;1470.5;;;;-0.4468804;-0.31167606;0.8133851;;;;;;;;;;;;;;;
1530.0;1470.5;;;;-0.4457093;-0.311245;0.813923;;;;;;;;;;;;;;;
1530.0;1470.5;;;;-0.4450646;-0.3109856;0.8144227;;;;;;;;;;;;;;;
1530.0;1480.6;;;;-0.4441834;-0.31091312;0.8141557;;;;;;;;;;;;;;;
1530.0;1480.6;;;;-0.44318396;-0.31084827;0.8145944;;;;;;;;;;;;;;;
1530.0;1480.6;;;;-0.44271475;-0.31113055;0.8138658;;;;;;;;;;;;;;;
1530.0;1480.6;;;;-0.4427567;-0.31092837;0.8137361;;;;;;;;;;;;;;;
1530.0;1480.6;;;;-0.44310004;-0.31105044;0.81461346;;;;;;;;;;;;;;;
1590.0;1482.9;262143;262143;13135;;;;;;;;;;;;;;;;;;
1590.0;1489.2;;;;;;;;;;;;;-7383;;;;;;;;
1590.0;1489.2;;;;;;;;;;;;;-7437;;;;;;;;
1590.0;1489.2;;;;;;;;;;;;;-7386;;;;;;;;
1590.0;1489.2;;;;;;;;;;;;;-7192;;;;;;;;
1590.0;1489.2;;;;;;;;;;;;;-6835;;;;;;;;
1590.0;1490.7;;;;-0.44300467;-0.3109894;0.8150445;;;;;;;;;;;;;;;
1590.0;1490.7;;;;-0.4428826;-0.3104401;0.81572354;;;;;;;;;;;;;;;
1590.0;1490.7;;;;-0.4426766;-0.30992892;0.81632245;;;;;;;;;;;;;;;
1590.0;1490.7;;;;-0.44274527;-0.30871966;0.8161317;;;;;;;;;;;;;;;
1590.0;1490.7;;;;-0.44274145;-0.3081856;0.8154794;;;;;;;;;;;;;;;
1590.0;1500.7;;;;-0.4420777;-0.30715182;0.81476223;;;;;;;;;;;;;;;
1590.0;1500.7;;;;-0.4416886;-0.30606464;0.8148042;;;;;;;;;;;;;;;
1590.0;1500.7;;;;-0.4418717;-0.30533603;0.81466305;;;;;;;;;;;;;;;
1590.0;1500.7;;;;-0.44224554;-0.30415347;0.8141366;;;;;;;;;;;;;;;
1590.0;1500.7;;;;-0.44278342;-0.30350497;0.8142663;;;;;;;;;;;;;;;
1590.0;1503.0;262143;262143;13132;;;;;;;;;;;;;;;;;;
1590.0;1510.6;;;;-0.4438401;-0.30344394;0.81307614;;;;;;;;;;;;;;;
1590.0;1510.6;;;;-0.44359213;-0.30279163;0.81258404;;;;;;;;;;;;;;;
1590.0;1510.6;;;;-0.4425736;-0.3027344;0.8115541;;;;;;;;;;;;;;;
1590.0;1510.6;;;;-0.4414521;-0.3034363;0.81043637;;;;;;;;;;;;;;;
1590.0;1510.6;;;;-0.44022375;-0.30363467;0.8099214;;;;;;;;;;;;;;;
1593.0;1520.7;;;;-0.4405251;-0.30373386;0.81004727;;;;;;;;;;;;;;;
1593.0;1520.7;;;;-0.44251257;-0.30408862;0.81009305;;;;;;;;;;;;;;;
1593.0;1520.7;;;;-0.44390112;-0.30428317;0.8101655;;;;;;;;;;;;;;;
1593.0;1520.7;;;;-0.44442755;-0.30471805;0.8104974;;;;;;;;;;;;;;;
1593.0;1520.7;;;;-0.4442864;-0.30466846;0.81092846;;;;;;;;;;;;;;;
1593.0;1523.1;262143;262143;13142;;;;;;;;;;;;;;;;;;
1593.0;1529.4;;;;;;;;;;;;;-6295;;;;;;;;
1593.0;1529.4;;;;;;;;;;;;;-5483;;;;;;;;
1593.0;1529.4;;;;;;;;;;;;;-4283;;;;;;;;
1593.0;1529.4;;;;;;;;;;;;;-2838;;;;;;;;
1593.0;1529.4;;;;;;;;;;;;;-1518;;;;;;;;
1593.0;1530.9;;;;-0.44339758;-0.30487064;0.810753;;;;;;;;;;;;;;;
1593.0;1530.9;;;;-0.44189078;-0.30458835;0.81164944;;;;;;;;;;;;;;;
1593.0;1530.9;;;;-0.44076163;-0.3049889;0.81227124;;;;;;;;;;;;;;;
1593.0;1530.9;;;;-0.4397965;-0.304863;0.8125802;;;;;;;;;;;;;;;
1593.0;1530.9;;;;-0.4402123;-0.30512622;0.8129846;;;;;;;;;;;;;;;
1593.0;1541.0;;;;-0.44092566;-0.30585864;0.8137208;;;;;;;;;;;;;;;
1593.0;1541.0;;;;-0.44172674;-0.30595782;0.8139192;;;;;;;;;;;;;;;
1593.0;1541.0;;;;-0.44258505;-0.30629733;0.8144113;;;;;;;;;;;;;;;
1593.0;1541.0;;;;-0.44279867;-0.30723956;0.8146554;;;;;;;;;;;;;;;
1593.0;1541.0;;;;-0.44232565;-0.30786136;0.8147317;;;;;;;;;;;;;;;
1596.0;1542.9;;;;;;;;;;;;;;;;;-10.319071;-1.1749626;3.0823696;;1389.6
1596.0;1542.9;;;;;;;;;;;;;;0.84487444;0.098025456;-0.46491897;;;;;1389.6
1596.0;1542.9;;;;;;;;;;;;;;;;;-10.803553;-1.4152958;3.3150733;;1389.6
1596.0;1542.9;;;;;;;;;;;;;;0.8440809;0.09887997;-0.4638203;;;;;1389.6
1596.0;1542.9;;;;;;;;;;;;;;;;;-11.2384405;-1.7357402;3.5172582;;1399.3
1596.0;1542.9;;;;;;;;;;;;;;0.8448134;0.09955138;-0.46455276;;;;;1399.3
1596.0;1542.9;;;;;;;;;;;;;;;;;-11.558886;-1.8463699;3.6965547;;1399.3
1596.0;1542.9;;;;;;;;;;;;;;0.84249395;0.09765923;-0.46662802;;;;;1399.3
1596.0;1542.9;;;;;;;;;;;;;;;;;-11.726737;-2.0332959;3.868221;;1409.0
1596.0;1542.9;;;;;;;;;;;;;;0.8422498;0.097170934;-0.47053438;;;;;1409.0
1596.0;1542.9;;;;;;;;;;;;;;;;;-11.772515;-2.113407;4.013184;;1409.0
1596.0;1542.9;;;;;;;;;;;;;;0.8409681;0.09320353;-0.47083956;;;;;1409.0
1596.0;1543.8;;;;;;;;;;;;;;;;;-11.837367;-2.193518;4.093295;;1418.6
1596.0;1543.8;;;;;;;;;;;;;;0.8390149;0.09222694;-0.47572252;;;;;1418.6
1596.0;1543.8;;;;;;;;;;;;;;;;;-11.726737;-2.2431104;4.139073;;1418.6
1596.0;1543.8;;;;;;;;;;;;;;0.8363292;0.08807642;-0.4770043;;;;;1418.6
1596.0;1543.8;;;;;;;;;;;;;;;;;-11.429182;-2.1629994;4.203925;;1428.3
1596.0;1543.8;;;;;;;;;;;;;;0.8348643;0.08233894;-0.48194832;;;;;1428.3
1596.0;1543.8;;;;;;;;;;;;;;;;;-11.059145;-2.0218513;4.2649617;;1428.3
1596.0;1543.8;;;;;;;;;;;;;;0.8332774;0.07837153;-0.4840846;;;;;1428.3
1596.0;1543.8;;;;;;;;;;;;;;;;;-10.662404;-2.1019626;4.360332;;1438.0
1596.0;1543.8;;;;;;;;;;;;;;0.8344371;0.07458724;-0.48695335;;;;;1438.0
1596.0;1543.8;;;;;;;;;;;;;;;;;-10.315256;-2.0523698;4.360332;;1438.0
1596.0;1543.8;;;;;;;;;;;;;;0.8354747;0.06805628;-0.4888455;;;;;1438.0
1597.0;1543.4;262143;262143;13142;;;;;;;;;;;;;;;;;;
1597.0;1544.6;;;;;;;;;;;;;;;;;-9.762108;-1.7509995;4.4442577;;1447.7
1597.0;1544.6;;;;;;;;;;;;;;0.8360851;0.061342206;-0.4892117;;;;;1447.7
1597.0;1544.6;;;;;;;;;;;;;;;;;-9.21659;-1.5984069;4.463332;;1447.7
1597.0;1544.6;;;;;;;;;;;;;;0.83767205;0.05529954;-0.49147007;;;;;1447.7
1597.0;1544.6;;;;;;;;;;;;;;;;;-8.465072;-1.4572588;4.3450727;;1457.4
1597.0;1544.6;;;;;;;;;;;;;;0.8402356;0.052369762;-0.49311808;;;;;1457.4
1597.0;1544.6;;;;;;;;;;;;;;;;;-7.641072;-1.1864071;4.291665;;1457.4
1597.0;1544.6;;;;;;;;;;;;;;0.84249395;0.049195837;-0.49421674;;;;;1457.4
1597.0;1544.6;;;;;;;;;;;;;;;;;-6.8132577;-0.98803675;4.2191844;;1467.1
1597.0;1544.6;;;;;;;;;;;;;;0.8472549;0.047059543;-0.49446088;;;;;1467.1
1597.0;1544.6;;;;;;;;;;;;;;;;;-5.920591;-0.7324442;4.0665917;;1467.1
1597.0;1544.6;;;;;;;;;;;;;;0.84987944;0.04693747;-0.49598682;;;;;1467.1
1598.0;1549.5;;;;;;;;;;;;;;;;;-5.0012207;-0.42725915;3.9979248;;1476.7
1598.0;1549.5;;;;;;;;;;;;;;0.8512833;0.04547258;-0.49568164;;;;;1476.7
1598.0;1549.5;;;;;;;;;;;;;;;;;-4.1314435;-0.057222206;3.7499619;;1476.7
1598.0;1549.5;;;;;;;;;;;;;;0.8525651;0.047059543;-0.49488816;;;;;1476.7
1598.0;1549.5;;;;;;;;;;;;;;;;;-3.3150733;0.25559253;3.456221;;1486.3
1598.0;1549.5;;;;;;;;;;;;;;0.8510392;0.04589984;-0.49244666;;;;;1486.3
1598.0;1549.5;;;;;;;;;;;;;;;;;-2.399518;0.5607776;3.1090732;;1486.3
1598.0;1549.5;;;;;;;;;;;;;;0.84841454;0.04364147;-0.4901883;;;;;1486.3
1598.0;1549.5;;;;;;;;;;;;;;;;;-1.2970366;0.84307384;2.6093326;;1496.0
1598.0;1549.5;;;;;;;;;;;;;;0.847438;0.04608295;-0.48768577;;;;;1496.0
1598.0;1549.5;;;;;;;;;;;;;;;;;-0.34714803;1.0223701;2.090518;;1496.0
1598.0;1549.5;;;;;;;;;;;;;;0.8460341;0.052735984;-0.48591572;;;;;1496.0
1598.0;1550.8;;;;-0.44170004;-0.3087006;0.81469357;;;;;;;;;;;;;;;
1598.0;1550.8;;;;-0.44053656;-0.30868152;0.8141061;;;;;;;;;;;;;;;
1598.0;1550.8;;;;-0.43949133;-0.30863956;0.8134042;;;;;;;;;;;;;;;
1598.0;1550.8;;;;-0.43856436;-0.30913928;0.8133584;;;;;;;;;;;;;;;
1598.0;1550.8;;;;-0.4381562;-0.30969623;0.8131677;;;;;;;;;;;;;;;
1598.0;1560.8;;;;-0.4384194;-0.31009296;0.8121339;;;;;;;;;;;;;;;
1598.0;1560.8;;;;-0.43827826;-0.3103409;0.8118783;;;;;;;;;;;;;;;
1598.0;1560.8;;;;-0.43821722;-0.3108864;0.81139004;;;;;;;;;;;;;;;
1598.0;1560.8;;;;-0.43870932;-0.31154254;0.811123;;;;;;;;;;;;;;;
1598.0;1560.8;;;;-0.43898016;-0.31141666;0.8114778;;;;;;;;;;;;;;;
1598.0;1563.3;262143;262143;13142;;;;;;;;;;;;;;;;;;
1650.0;1569.5;;;;;;;;;;;;;-475;;;;;;;;
1650.0;1569.5;;;;;;;;;;;;;380;;;;;;;;
1650.0;1569.5;;;;;;;;;;;;;1086;;;;;;;;
1650.0;1569.5;;;;;;;;;;;;;1532;;;;;;;;
1650.0;1569.5;;;;;;;;;;;;;1681;;;;;;;;
1650.0;1570.8;;;;-0.4384194;-0.31148914;0.8113519;;;;;;;;;;;;;;;
1650.0;1570.8;;;;-0.43817145;-0.31172183;0.81217587;;;;;;;;;;;;;;;
1650.0;1570.8;;;;-0.4380799;-0.31118777;0.81258786;;;;;;;;;;;;;;;
1650.0;1570.8;;;;-0.43778235;-0.31047443;0.8125802;;;;;;;;;;;;;;;
1650.0;1570.8;;;;-0.43760687;-0.3098183;0.8130647;;;;;;;;;;;;;;;
1650.0;1580.6;;;;-0.4375916;-0.30965045;0.81317914;;;;;;;;;;;;;;;
1650.0;1580.6;;;;-0.43754202;-0.30913928;0.81297696;;;;;;;;;;;;;;;
1650.0;1580.6;;;;-0.43733603;-0.30828097;0.81320584;;;;;;;;;;;;;;;
1650.0;1580.6;;;;-0.43705755;-0.30783847;0.8129808;;;;;;;;;;;;;;;
1650.0;1580.6;;;;-0.43711478;-0.30739596;0.81269467;;;;;;;;;;;;;;;
1650.0;1583.1;262143;262143;13137;;;;;;;;;;;;;;;;;;
1650.0;1590.7;;;;-0.43741614;-0.30713275;0.81279004;;;;;;;;;;;;;;;
1650.0;1590.7;;;;-0.43768317;-0.30680087;0.812462;;;;;;;;;;;;;;;
1650.0;1590.7;;;;-0.4376107;-0.30656055;0.81204236;;;;;;;;;;;;;;;
1650.0;1590.7;;;;-0.4368325;-0.30651858;0.81115735;;;;;;;;;;;;;;;
1650.0;1590.7;;;;-0.43619543;-0.30638507;0.81118405;;;;;;;;;;;;;;;
1708.0;1600.8;;;;-0.43532568;-0.3061371;0.8106538;;;;;;;;;;;;;;;
1708.0;1600.8;;;;-0.4345017;-0.30630496;0.81029904;;;;;;;;;;;;;;;
1708.0;1600.8;;;;-0.43399817;-0.30667117;0.8097688;;;;;;;;;;;;;;;
1708.0;1600.8;;;;-0.4345742;-0.30701068;0.80942166;;;;;;;;;;;;;;;
1708.0;1600.8;;;;-0.43472296;-0.30683902;0.80957425;;;;;;;;;;;;;;;
1708.0;1603.4;262143;262143;13143;;;;;;;;;;;;;;;;;;
1708.0;1609.6;;;;;;;;;;;;;1643;;;;;;;;
1708.0;1609.6;;;;;;;;;;;;;1503;;;;;;;;
1708.0;1609.6;;;;;;;;;;;;;1318;;;;;;;;
1708.0;1609.6;;;;;;;;;;;;;1148;;;;;;;;
1708.0;1609.6;;;;;;;;;;;;;1099;;;;;;;;
1708.0;1610.9;;;;-0.4346543;-0.30669025;0.8099519;;;;;;;;;;;;;;;
1708.0;1610.9;;;;-0.43486792;-0.30707934;0.81030667;;;;;;;;;;;;;;;
1708.0;1610.9;;;;-0.43495947;-0.30717853;0.8107606;;;;;;;;;;;;;;;
1708.0;1610.9;;;;-0.4354363;-0.3072777;0.81102765;;;;;;;;;;;;;;;
1708.0;1610.9;;;;-0.43536383;-0.30712512;0.8111764;;;;;;;;;;;;;;;
1708.0;1620.9;;;;-0.43511587;-0.30703738;0.8116456;;;;;;;;;;;;;;;
1708.0;1620.9;;;;-0.43440634;-0.30679706;0.8129655;;;;;;;;;;;;;;;
1708.0;1620.9;;;;-0.43408972;-0.3071213;0.81375515;;;;;;;;;;;;;;;
1708.0;1620.9;;;;-0.43370062;-0.30728915;0.81445706;;;;;;;;;;;;;;;
1708.0;1620.9;;;;-0.43352515;-0.3070641;0.8155023;;;;;;;;;;;;;;;
1708.0;1623.5;262143;262143;13136;;;;;;;;;;;;;;;;;;
1711.0;1630.9;;;;-0.4338494;-0.30730823;0.81570065;;;;;;;;;;;;;;;
1711.0;1630.9;;;;-0.43328863;-0.30729297;0.815529;;;;;;;;;;;;;;;
1711.0;1630.9;;;;-0.43314368;-0.30793765;0.81551754;;;;;;;;;;;;;;;
1711.0;1630.9;;;;-0.43305594;-0.30812457;0.81583416;;;;;;;;;;;;;;;
1711.0;1630.9;;;;-0.43282706;-0.30853274;0.81606305;;;;;;;;;;;;;;;
1711.0;1641.0;;;;-0.43330008;-0.30845264;0.8169786;;;;;;;;;;;;;;;
1711.0;1641.0;;;;-0.43389517;-0.30890658;0.8172265;;;;;;;;;;;;;;;
1711.0;1641.0;;;;-0.43460852;-0.30898288;0.8179704;;;;;;;;;;;;;;;
1711.0;1641.0;;;;-0.43540198;-0.30907443;0.818493;;;;;;;;;;;;;;;
1711.0;1641.0;;;;-0.43641287;-0.30873492;0.8192216;;;;;;;;;;;;;;;
1711.0;1643.7;262143;262143;13152;;;;;;;;;;;;;;;;;;
1711.0;1649.9;;;;;;;;;;;;;1238;;;;;;;;
1711.0;1649.9;;;;;;;;;;;;;1410;;;;;;;;
1711.0;1649.9;;;;;;;;;;;;;1447;;;;;;;;
1711.0;1649.9;;;;;;;;;;;;;1369;;;;;;;;
1711.0;1649.9;;;;;;;;;;;;;1318;;;;;;;;
1711.0;1651.1;;;;-0.43700415;-0.30959705;0.8193666;;;;;;;;;;;;;;;
1711.0;1651.1;;;;-0.4367028;-0.30930713;0.8193437;;;;;;;;;;;;;;;
1711.0;1651.1;;;;-0.436184;-0.3096123;0.8197633;;;;;;;;;;;;;;;
1711.0;1651.1;;;;-0.4360276;-0.31003192;0.82022107;;;;;;;;;;;;;;;
1711.0;1651.1;;;;-0.43585593;-0.3101082;0.8203584;;;;;;;;;;;;;;;
1714.0;1661.3;;;;-0.435566;-0.3098679;0.81979764;;;;;;;;;;;;;;;
1714.0;1661.3;;;;-0.43477255;-0.30941394;0.8192178;;;;;;;;;;;;;;;
1714.0;1661.3;;;;-0.43417746;-0.30877307;0.81933606;;;;;;;;;;;;;;;
1714.0;1661.3;;;;-0.43378454;-0.30843356;0.81900036;;;;;;;;;;;;;;;
1714.0;1661.3;;;;-0.4339066;-0.30811694;0.819111;;;;;;;;;;;;;;;
1714.0;1662.6;;;;;;;;;;;;;;;;;0.54933316;1.1329997;1.6365551;;1505.6
1714.0;1662.6;;;;;;;;;;;;;;0.84670556;0.059266947;-0.48451185;;;;;1505.6
1714.0;1662.6;;;;;;;;;;;;;;;;;1.2550737;1.2359996;1.2016664;;1505.6
1714.0;1662.6;;;;;;;;;;;;;;0.8443861;0.06738487;-0.48554948;;;;;1505.6
1714.0;1662.6;;;;;;;;;;;;;;;;;1.7662587;1.2550737;0.7477035;;1515.2
1714.0;1662.6;;;;;;;;;;;;;;0.842555;0.07184057;-0.48323008;;;;;1515.2
1714.0;1662.6;;;;;;;;;;;;;;;;;2.1515548;1.2932218;0.38148138;;1515.2
1714.0;1662.6;;;;;;;;;;;;;;0.84182256;0.078127384;-0.48097172;;;;;1515.2
1714.0;1662.6;;;;;;;;;;;;;;;;;2.521592;1.453444;-0.08774071;;1524.8
1714.0;1662.6;;;;;;;;;;;;;;0.8421888;0.081789605;-0.47840816;;;;;1524.8
1714.0;1662.6;;;;;;;;;;;;;;;;;2.6322215;1.5602587;-0.35477766;;1524.8
1714.0;1662.6;;;;;;;;;;;;;;0.8415174;0.08526871;-0.47462386;;;;;1524.8
1716.0;1664.3;;;;;;;;;;;;;;;;;2.7542956;1.659444;-0.5569628;;1534.5
1716.0;1664.3;;;;;;;;;;;;;;0.8422498;0.08697775;-0.4751732;;;;;1534.5
1716.0;1664.3;;;;;;;;;;;;;;;;;2.6894438;1.7204809;-0.74007386;;1534.5
1716.0;1664.3;;;;;;;;;;;;;;0.84035766;0.090029605;-0.4727317;;;;;1534.5
1716.0;1664.3;;;;;;;;;;;;;;;;;2.6131475;1.7548143;-0.8278146;;1544.2
1716.0;1664.3;;;;;;;;;;;;;;0.8422498;0.09186071;-0.47346416;;;;;1544.2
1716.0;1664.3;;;;;;;;;;;;;;;;;2.5559251;1.7777032;-0.93844414;;1544.2
1716.0;1664.3;;;;;;;;;;;;;;0.842555;0.09564501;-0.47383037;;;;;1544.2
1716.0;1664.3;;;;;;;;;;;;;;;;;2.3918884;1.7929624;-0.8659627;;1553.8
1716.0;1664.3;;;;;;;;;;;;;;0.8427992;0.09906308;-0.47456282;;;;;1553.8
1716.0;1664.3;;;;;;;;;;;;;;;;;2.1477401;1.7929624;-0.8545183;;1553.8
1716.0;1664.3;;;;;;;;;;;;;;0.83950317;0.10180975;-0.47456282;;;;;1553.8
1716.0;1664.0;262143;262143;13140;;;;;;;;;;;;;;;;;;
1717.0;1665.9;;;;;;;;;;;;;;;;;1.9150364;1.6937773;-0.7705924;;1563.5
1717.0;1665.9;;;;;;;;;;;;;;0.83870965;0.103946045;-0.47492903;;;;;1563.5
1717.0;1665.9;;;;;;;;;;;;;;;;;1.739555;1.6403699;-0.7095553;;1563.5
1717.0;1665.9;;;;;;;;;;;;;;0.8385876;0.10589923;-0.4753563;;;;;1563.5
1717.0;1665.9;;;;;;;;;;;;;;;;;1.5297403;1.6403699;-0.6027406;;1573.1
1717.0;1665.9;;;;;;;;;;;;;;0.83687854;0.10711997;-0.4750511;;;;;1573.1
1717.0;1665.9;;;;;;;;;;;;;;;;;1.1902219;1.5297403;-0.50737023;;1573.1
1717.0;1665.9;;;;;;;;;;;;;;0.83932006;0.107974485;-0.47547838;;;;;1573.1
1717.0;1665.9;;;;;;;;;;;;;;;;;0.90411085;1.4572588;-0.44251838;;1582.8
1717.0;1665.9;;;;;;;;;;;;;;0.83834344;0.10858486;-0.47688222;;;;;1582.8
1717.0;1665.9;;;;;;;;;;;;;;;;;0.59129614;1.411481;-0.32807398;;1582.8
1717.0;1665.9;;;;;;;;;;;;;;0.8386486;0.110721156;-0.47895747;;;;;1582.8
1717.0;1671.1;;;;-0.4341393;-0.3081551;0.8179666;;;;;;;;;;;;;;;
1717.0;1671.1;;;;-0.43412405;-0.30783847;0.8178903;;;;;;;;;;;;;;;
1717.0;1671.1;;;;-0.43478018;-0.30742267;0.81715024;;;;;;;;;;;;;;;
1717.0;1671.1;;;;-0.43557745;-0.30746463;0.81611645;;;;;;;;;;;;;;;
1717.0;1671.1;;;;-0.43643576;-0.3073273;0.814911;;;;;;;;;;;;;;;
1717.0;1681.1;;;;-0.4379235;-0.30689242;0.8143045;;;;;;;;;;;;;;;
1717.0;1681.1;;;;-0.43909842;-0.3068619;0.81414044;;;;;;;;;;;;;;;
1717.0;1681.1;;;;-0.43928915;-0.30641177;0.81347287;;;;;;;;;;;;;;;
1717.0;1681.1;;;;-0.43890768;-0.30624393;0.81325924;;;;;;;;;;;;;;;
1717.0;1681.1;;;;-0.43762594;-0.30636218;0.81422436;;;;;;;;;;;;;;;
1717.0;1683.9;262143;262143;13147;;;;;;;;;;;;;;;;;;
1771.0;1689.9;;;;;;;;;;;;;1362;;;;;;;;
1771.0;1689.9;;;;;;;;;;;;;1387;;;;;;;;
1771.0;1689.9;;;;;;;;;;;;;1354;;;;;;;;
1771.0;1689.9;;;;;;;;;;;;;1411;;;;;;;;
1771.0;1689.9;;;;;;;;;;;;;1659;;;;;;;;
1771.0;1691.1;;;;-0.43674475;-0.30635837;0.81481946;;;;;;;;;;;;;;;
1771.0;1691.1;;;;-0.4375916;-0.30692676;0.8158456;;;;;;;;;;;;;;;
1771.0;1691.1;;;;-0.43931586;-0.3076363;0.8174516;;;;;;;;;;;;;;;
1771.0;1691.1;;;;-0.44118506;-0.30810168;0.81874096;;;;;;;;;;;;;;;
1771.0;1691.1;;;;-0.44203955;-0.30806735;0.8199235;;;;;;;;;;;;;;;
1771.0;1701.0;;;;-0.44184119;-0.3073807;0.8212701;;;;;;;;;;;;;;;
1771.0;1701.0;;;;-0.4422341;-0.30668262;0.82166684;;;;;;;;;;;;;;;
1771.0;1701.0;;;;-0.44216925;-0.30606082;0.82218945;;;;;;;;;;;;;;;
1771.0;1701.0;;;;-0.44151312;-0.3048325;0.82218945;;;;;;;;;;;;;;;
1771.0;1701.0;;;;-0.4403916;-0.30398563;0.8226205;;;;;;;;;;;;;;;
1771.0;1703.9;262143;262143;13152;;;;;;;;;;;;;;;;;;
1771.0;1711.1;;;;-0.43931204;-0.30368426;0.8223764;;;;;;;;;;;;;;;
1771.0;1711.1;;;;-0.43846518;-0.30310443;0.8225099;;;;;;;;;;;;;;;
1771.0;1711.1;;;;-0.43880087;-0.30315402;0.82177365;;;;;;;;;;;;;;;
1771.0;1711.1;;;;-0.43920523;-0.30340198;0.8218347;;;;;;;;;;;;;;;
1771.0;1711.1;;;;-0.4389344;-0.30373767;0.82242596;;;;;;;;;;;;;;;
1774.0;1721.3;;;;-0.43882757;-0.30406573;0.8230401;;;;;;;;;;;;;;;
1774.0;1721.3;;;;-0.4384461;-0.30399707;0.8237077;;;;;;;;;;;;;;;
1774.0;1721.3;;;;-0.43840414;-0.30417255;0.82452404;;;;;;;;;;;;;;;
1774.0;1721.3;;;;-0.43879324;-0.3045464;0.8242799;;;;;;;;;;;;;;;
1774.0;1721.3;;;;-0.43902975;-0.30464175;0.8243333;;;;;;;;;;;;;;;
1774.0;1724.2;262143;262143;13148;;;;;;;;;;;;;;;;;;
1774.0;1730.3;;;;;;;;;;;;;2010;;;;;;;;
1774.0;1730.3;;;;;;;;;;;;;2141;;;;;;;;
1774.0;1730.3;;;;;;;;;;;;;1968;;;;;;;;
1774.0;1730.3;;;;;;;;;;;;;1797;;;;;;;;
1774.0;1730.3;;;;;;;;;;;;;1815;;;;;;;;
1774.0;1731.4;;;;-0.4394341;-0.3041344;0.82447064;;;;;;;;;;;;;;;
1774.0;1731.4;;;;-0.4389115;-0.30398563;0.82514966;;;;;;;;;;;;;;;
1774.0;1731.4;;;;-0.4376641;-0.30378726;0.8260919;;;;;;;;;;;;;;;
1774.0;1731.4;;;;-0.43629462;-0.30325702;0.826439;;;;;;;;;;;;;;;
1774.0;1731.4;;;;-0.43431097;-0.30341724;0.82743466;;;;;;;;;;;;;;;
1776.0;1737.7;;;;;;;;;;;;;;;;;0.3357036;1.3275552;-0.19455549;;1592.5
1776.0;1737.7;;;;;;;;;;;;;;0.83803827;0.11035493;-0.47987303;;;;;1592.5
1776.0;1737.7;;;;;;;;;;;;;;;;;0.14877774;1.3466293;-0.095370345;;1592.5
1776.0;1737.7;;;;;;;;;;;;;;0.8366344;0.10968352;-0.47810298;;;;;1592.5
1776.0;1737.7;;;;;;;;;;;;;;;;;0.07248146;1.2627033;0.011444441;;1602.2
1776.0;1737.7;;;;;;;;;;;;;;0.8364513;0.10925627;-0.47871333;;;;;1602.2
1776.0;1737.7;;;;;;;;;;;;;;;;;-0.12588885;1.2169256;0.10299997;;1602.2
1776.0;1737.7;;;;;;;;;;;;;;0.8385876;0.10858486;-0.48054445;;;;;1602.2
1776.0;1737.7;;;;;;;;;;;;;;;;;-0.15640736;1.1520737;0.11444441;;1611.7
1776.0;1737.7;;;;;;;;;;;;;;0.84017456;0.10699789;-0.48036134;;;;;1611.7
1776.0;1737.7;;;;;;;;;;;;;;;;;-0.110629596;1.1177404;0.06103702;;1611.7
1776.0;1737.7;;;;;;;;;;;;;;0.83870965;0.10522782;-0.48036134;;;;;1611.7
1776.0;1738.5;;;;;;;;;;;;;;;;;-0.11444441;1.083407;0.045777764;;1621.5
1776.0;1738.5;;;;;;;;;;;;;;0.83980834;0.10425123;-0.48158208;;;;;1621.5
1776.0;1738.5;;;;;;;;;;;;;;;;;-0.08011109;1.045259;0.11444441;;1621.5
1776.0;1738.5;;;;;;;;;;;;;;0.8390759;0.10174871;-0.47926268;;;;;1621.5
1776.0;1738.5;;;;;;;;;;;;;;;;;0.0839259;0.96133304;0.09155553;;1631.1
1776.0;1738.5;;;;;;;;;;;;;;0.84066284;0.10065004;-0.47975096;;;;;1631.1
1776.0;1738.5;;;;;;;;;;;;;;;;;0.15259254;0.94225895;0.16403699;;1631.1
1776.0;1738.5;;;;;;;;;;;;;;0.84267706;0.098941006;-0.47877437;;;;;1631.1
1776.0;1738.5;;;;;;;;;;;;;;;;;0.24414808;0.90029603;0.11444441;;1640.7
1776.0;1738.5;;;;;;;;;;;;;;0.84267706;0.09936827;-0.48066652;;;;;1640.7
1776.0;1738.5;;;;;;;;;;;;;;;;;0.34333324;0.9460738;0.07248146;;1640.7
1776.0;1738.5;;;;;;;;;;;;;;0.84145635;0.09930723;-0.47816402;;;;;1640.7
1777.0;1739.3;;;;;;;;;;;;;;;;;0.5226295;0.93081456;0.015259255;;1650.4
1777.0;1739.3;;;;;;;;;;;;;;0.84145635;0.09955138;-0.47798088;;;;;1650.4
1777.0;1739.3;;;;;;;;;;;;;;;;;0.6027406;0.86214787;-0.064851835;;1650.4
1777.0;1739.3;;;;;;;;;;;;;;0.8424329;0.101626635;-0.4766991;;;;;1650.4
1777.0;1739.3;;;;;;;;;;;;;;;;;0.79729605;0.85833305;-0.12588885;;1660.0
1777.0;1739.3;;;;;;;;;;;;;;0.8429823;0.10565508;-0.47627187;;;;;1660.0
1777.0;1739.3;;;;;;;;;;;;;;;;;0.85833305;0.93081456;-0.14877774;;1660.0
1777.0;1739.3;;;;;;;;;;;;;;0.83980834;0.10736412;-0.47456282;;;;;1660.0
1777.0;1739.3;;;;;;;;;;;;;;;;;0.86214787;0.9346294;-0.18311106;;1669.7
1777.0;1739.3;;;;;;;;;;;;;;0.83657336;0.110415965;-0.47169408;;;;;1669.7
1777.0;1739.3;;;;;;;;;;;;;;;;;0.8964812;0.74007386;-0.23270364;;1669.7
1777.0;1739.3;;;;;;;;;;;;;;0.8374279;0.112979524;-0.47053438;;;;;1669.7
1777.0;1740.6;;;;;;;;;;0.026703697;19.413588;-2.9869993;;;;;;;;;
1777.0;1740.6;;;;;;;0.42396313;0.24329355;0.7442854;;;;;;;;;;;;
1777.0;1740.6;;;;;;;;;;4.5129247;30.90762;8.049257;;;;;;;;;
1777.0;1740.6;;;;;;;0.4751732;0.26966155;0.8382214;;;;;;;;;;;;
1777.0;1741.1;;;;-0.43270117;-0.30375293;0.8280183;;;;;;;;;;;;;;;
1777.0;1741.1;;;;-0.43186575;-0.30460742;0.8282739;;;;;;;;;;;;;;;
1777.0;1741.1;;;;-0.43144995;-0.30556872;0.8282777;;;;;;;;;;;;;;;
1777.0;1741.1;;;;-0.43225104;-0.30704883;0.8285295;;;;;;;;;;;;;;;
1777.0;1741.1;;;;-0.43321615;-0.3073769;0.82881176;;;;;;;;;;;;;;;
1777.0;1744.1;262143;262143;13150;;;;;;;;;;;;;;;;;;
1830.0;1750.2;;;;;;;;;;-1.9493698;8.308664;4.1695914;;;;;;;;;
1830.0;1750.2;;;;;;;0.4763329;0.2727134;0.8420667;;;;;;;;;;;;
1830.0;1750.2;;;;;;;;;;4.5777764;18.917662;4.379406;;;;;;;;;
1830.0;1750.2;;;;;;;0.47364727;0.27362895;0.84328747;;;;;;;;;;;;
1830.0;1751.2;;;;-0.43393713;-0.3079529;0.8284761;;;;;;;;;;;;;;;
1830.0;1751.2;;;;-0.4344483;-0.30850223;0.82844937;;;;;;;;;;;;;;;
1830.0;1751.2;;;;-0.43547827;-0.30874637;0.8281404;;;;;;;;;;;;;;;
1830.0;1751.2;;;;-0.4367028;-0.3083382;0.8271409;;;;;;;;;;;;;;;
1830.0;1751.2;;;;-0.4372788;-0.30845645;0.82658017;;;;;;;;;;;;;;;
1830.0;1759.7;;;;;;;;;;4.352702;20.268105;1.8997772;;;;;;;;;
1830.0;1759.7;;;;;;;0.46815392;0.27130955;0.84701073;;;;;;;;;;;;
1830.0;1759.7;;;;;;;;;;-1.1444441;-15.24018;-21.324808;;;;;;;;;
1830.0;1759.7;;;;;;;0.4640034;0.27430037;0.8499405;;;;;;;;;;;;
1830.0;1761.2;;;;-0.43754584;-0.30816653;0.8257867;;;;;;;;;;;;;;;
1830.0;1761.2;;;;-0.43783194;-0.30838016;0.82447064;;;;;;;;;;;;;;;
1830.0;1761.2;;;;-0.43754965;-0.3089104;0.82356656;;;;;;;;;;;;;;;
1830.0;1761.2;;;;-0.43715292;-0.30983737;0.8226701;;;;;;;;;;;;;;;
1830.0;1761.2;;;;-0.43674856;-0.3106232;0.8218385;;;;;;;;;;;;;;;
1830.0;1764.2;262143;262143;13156;;;;;;;;;;;;;;;;;;
1830.0;1769.3;;;;;;;;;;-1.4152958;-15.75518;-24.25077;;;;;;;;;
1830.0;1769.3;;;;;;;0.46705526;0.27210304;0.85586107;;;;;;;;;;;;
1830.0;1769.3;;;;;;;;;;-1.5182959;-16.129032;-26.676992;;;;;;;;;
1830.0;1769.3;;;;;;;0.4674215;0.2699057;0.85830253;;;;;;;;;;;;
1849.0;1770.4;;;;;;;;;;;;;1961;;;;;;;;
1849.0;1770.4;;;;;;;;;;;;;2099;;;;;;;;
1849.0;1770.4;;;;;;;;;;;;;2183;;;;;;;;
1849.0;1770.4;;;;;;;;;;;;;2293;;;;;;;;
1849.0;1770.4;;;;;;;;;;;;;2401;;;;;;;;
1849.0;1771.3;;;;-0.4359551;-0.31177905;0.82125485;;;;;;;;;;;;;;;
1849.0;1771.3;;;;-0.43472296;-0.31227878;0.82070553;;;;;;;;;;;;;;;
1849.0;1771.3;;;;-0.43399817;-0.3130379;0.8204385;;;;;;;;;;;;;;;
1849.0;1771.3;;;;-0.43407446;-0.31356433;0.8197595;;;;;;;;;;;;;;;
1849.0;1771.3;;;;-0.4338532;-0.31364825;0.82003415;;;;;;;;;;;;;;;
1849.0;1778.9;;;;;;;;;;-1.7357402;-9.117405;-22.499771;;;;;;;;;
1849.0;1778.9;;;;;;;0.46357617;0.26972258;0.8592181;;;;;;;;;;;;
1849.0;1778.9;;;;;;;;;;-1.5182959;-1.4381847;-15.388958;;;;;;;;;
1849.0;1778.9;;;;;;;0.45295572;0.27124852;0.86104923;;;;;;;;;;;;
1849.0;1781.4;;;;-0.43420798;-0.31320575;0.8204614;;;;;;;;;;;;;;;
1849.0;1781.4;;;;-0.43412787;-0.3127289;0.8199922;;;;;;;;;;;;;;;
1849.0;1781.4;;;;-0.43342596;-0.31283954;0.8193704;;;;;;;;;;;;;;;
1849.0;1781.4;;;;-0.43297964;-0.31259158;0.8194314;;;;;;;;;;;;;;;
1849.0;1781.4;;;;-0.43275458;-0.3127022;0.819378;;;;;;;;;;;;;;;
1861.0;1782.9;;;;;;;;;;;;;;;;;0.6904813;0.62944424;-0.3013703;;1679.4
1861.0;1782.9;;;;;;;;;;;;;;0.84054077;0.114749596;-0.46980193;;;;;1679.4
1861.0;1782.9;;;;;;;;;;;;;;;;;0.4463332;0.59511095;-0.28611103;;1679.4
1861.0;1782.9;;;;;;;;;;;;;;0.8407239;0.115848266;-0.46864223;;;;;1679.4
1861.0;1782.9;;;;;;;;;;;;;;;;;0.18311106;0.614185;-0.3128147;;1689.0
1861.0;1782.9;;;;;;;;;;;;;;0.8397473;0.119449444;-0.46522415;;;;;1689.0
1861.0;1782.9;;;;;;;;;;;;;;;;;-0.0038148137;0.49592578;-0.25940734;;1689.0
1861.0;1782.9;;;;;;;;;;;;;;0.8417005;0.11963256;-0.46449172;;;;;1689.0
1861.0;1782.9;;;;;;;;;;;;;;;;;-0.22507401;0.46159247;-0.22125919;;1698.5
1861.0;1782.9;;;;;;;;;;;;;;0.8422498;0.12121952;-0.4659566;;;;;1698.5
1861.0;1782.9;;;;;;;;;;;;;;;;;-0.5378887;0.6065554;-0.15259254;;1698.5
1861.0;1782.9;;;;;;;;;;;;;;0.83730584;0.12115848;-0.46388134;;;;;1698.5
1861.0;1784.1;;;;;;;;;;;;;;;;;-0.8163701;0.553148;-0.16022217;;1708.2
1861.0;1784.1;;;;;;;;;;;;;;0.8410291;0.12140263;-0.46589556;;;;;1708.2
1861.0;1784.1;;;;;;;;;;;;;;;;;-1.0719626;0.43488875;-0.038148135;;1708.2
1861.0;1784.1;;;;;;;;;;;;;;0.8440809;0.121768855;-0.46620074;;;;;1708.2
1861.0;1784.1;;;;;;;;;;;;;;;;;-1.4458144;0.6179998;0.038148135;;1717.8
1861.0;1784.1;;;;;;;;;;;;;;0.84231085;0.12103641;-0.46418652;;;;;1717.8
1861.0;1784.1;;;;;;;;;;;;;;;;;-1.7662587;0.61037016;0.09155553;;1717.8
1861.0;1784.1;;;;;;;;;;;;;;0.84426403;0.11951049;-0.46827602;;;;;1717.8
1861.0;1784.1;;;;;;;;;;;;;;;;;-2.006592;0.65614796;0.1411481;;1727.5
1861.0;1784.1;;;;;;;;;;;;;;0.845851;0.11938841;-0.47016814;;;;;1727.5
1861.0;1784.1;;;;;;;;;;;;;;;;;-2.2850735;0.7858516;0.22507401;;1727.5
1861.0;1784.1;;;;;;;;;;;;;;0.84212774;0.117862485;-0.46821496;;;;;1727.5
1862.0;1784.3;262143;262143;13143;;;;;;;;;;;;;;;;;;
1862.0;1788.3;;;;;;;;;;-0.8278146;-2.2621846;-14.500107;;;;;;;;;
1862.0;1788.3;;;;;;;0.44691306;0.27246925;0.8627583;;;;;;;;;;;;
1862.0;1788.3;;;;;;;;;;-0.24796289;-3.173925;-13.6875515;;;;;;;;;
1862.0;1788.3;;;;;;;0.4461806;0.27619252;0.8630024;;;;;;;;;;;;
1862.0;1791.3;;;;-0.43311316;-0.31262973;0.8191148;;;;;;;;;;;;;;;
1862.0;1791.3;;;;-0.43301016;-0.31313327;0.818596;;;;;;;;;;;;;;;
1862.0;1791.3;;;;-0.43280798;-0.31419757;0.8185121;;;;;;;;;;;;;;;
1862.0;1791.3;;;;-0.43280798;-0.3149605;0.8182794;;;;;;;;;;;;;;;
1862.0;1791.3;;;;-0.43253714;-0.31622317;0.81715405;;;;;;;;;;;;;;;
1862.0;1797.8;;;;;;;;;;0.30518508;-3.8453321;-13.031404;;;;;;;;;
1862.0;1797.8;;;;;;;0.44886625;0.27661976;0.8626362;;;;;;;;;;;;
1862.0;1797.8;;;;;;;;;;0.90029603;-4.3221836;-12.401958;;;;;;;;;
1862.0;1797.8;;;;;;;0.45283365;0.27619252;0.86056095;;;;;;;;;;;;
1862.0;1801.3;;;;-0.4320107;-0.31704333;0.81702816;;;;;;;;;;;;;;;
1862.0;1801.3;;;;-0.43241507;-0.3179207;0.8158113;;;;;;;;;;;;;;;
1862.0;1801.3;;;;-0.43236166;-0.31863788;0.8148805;;;;;;;;;;;;;;;
1862.0;1801.3;;;;-0.43259817;-0.31915668;0.81481946;;;;;;;;;;;;;;;
1862.0;1801.3;;;;-0.43397528;-0.31930926;0.81505597;;;;;;;;;;;;;;;
1862.0;1804.4;262143;262143;13142;;;;;;;;;;;;;;;;;;
1890.0;1807.5;;;;;;;;;;1.5335552;-4.791406;-11.6962185;;;;;;;;;
1890.0;1807.5;;;;;;;0.4509415;0.27881712;0.85854673;;;;;;;;;;;;
1890.0;1807.5;;;;;;;;;;2.1553698;-5.512406;-10.9408865;;;;;;;;;
1890.0;1807.5;;;;;;;0.44782862;0.2854091;0.85634935;;;;;;;;;;;;
1890.0;1810.5;;;;;;;;;;;;;2419;;;;;;;;
1890.0;1810.5;;;;;;;;;;;;;2296;;;;;;;;
1890.0;1810.5;;;;;;;;;;;;;2156;;;;;;;;
1890.0;1810.5;;;;;;;;;;;;;2072;;;;;;;;
1890.0;1810.5;;;;;;;;;;;;;2064;;;;;;;;
1890.0;1811.3;;;;-0.43650442;-0.31925967;0.8150102;;;;;;;;;;;;;;;
1890.0;1811.3;;;;-0.4382134;-0.3189049;0.8145448;;;;;;;;;;;;;;;
1890.0;1811.3;;;;-0.43988806;-0.31800845;0.8139459;;;;;;;;;;;;;;;
1890.0;1811.3;;;;-0.4414788;-0.31723025;0.8136407;;;;;;;;;;;;;;;
1890.0;1811.3;;;;-0.44217306;-0.31637958;0.81356823;;;;;;;;;;;;;;;
1890.0;1816.8;;;;;;;;;;2.7008882;-6.263924;-10.181738;;;;;;;;;
1890.0;1816.8;;;;;;;0.44752342;0.29224524;0.85726494;;;;;;;;;;;;
1890.0;1816.8;;;;;;;;;;3.1853695;-7.000183;-9.537035;;;;;;;;;
1890.0;1816.8;;;;;;;0.4448378;0.29554126;0.8586688;;;;;;;;;;;;
1890.0;1821.2;;;;-0.4424401;-0.31571582;0.81279004;;;;;;;;;;;;;;;
1890.0;1821.2;;;;-0.44170767;-0.3152657;0.8122827;;;;;;;;;;;;;;;
1890.0;1821.2;;;;-0.4412499;-0.314827;0.812214;;;;;;;;;;;;;;;
1890.0;1821.2;;;;-0.44070822;-0.31493;0.8122331;;;;;;;;;;;;;;;
1890.0;1821.2;;;;-0.44019324;-0.3150368;0.8117906;;;;;;;;;;;;;;;
1890.0;1824.4;262143;262143;13156;;;;;;;;;;;;;;;;;;
1892.0;1826.5;;;;;;;;;;3.5744805;-7.6639605;-8.987701;;;;;;;;;
1892.0;1826.5;;;;;;;0.44538713;0.29865414;0.86288035;;;;;;;;;;;;
1892.0;1826.5;;;;;;;;;;3.9597769;-8.194221;-8.465072;;;;;;;;;
1892.0;1826.5;;;;;;;0.44819483;0.2976165;0.86593217;;;;;;;;;;;;
1892.0;1831.4;;;;-0.4397927;-0.31510928;0.81221783;;;;;;;;;;;;;;;
1892.0;1831.4;;;;-0.43894964;-0.31544116;0.81248486;;;;;;;;;;;;;;;
1892.0;1831.4;;;;-0.4384995;-0.31552508;0.81258404;;;;;;;;;;;;;;;
1892.0;1831.4;;;;-0.4392205;-0.31587222;0.8130342;;;;;;;;;;;;;;;
1892.0;1831.4;;;;-0.43991095;-0.316021;0.8130151;;;;;;;;;;;;;;;
1892.0;1836.1;;;;;;;;;;4.3298135;-8.560442;-8.102665;;;;;;;;;
1892.0;1836.1;;;;;;;0.45039216;0.29822686;0.86867887;;;;;;;;;;;;
1892.0;1836.1;;;;;;;;;;4.5739617;-8.6901455;-7.8241825;;;;;;;;;
1892.0;1836.1;;;;;;;0.45521408;0.3051851;0.8671529;;;;;;;;;;;;
1892.0;1841.5;;;;-0.4408608;-0.3164139;0.81430066;;;;;;;;;;;;;;;
1892.0;1841.5;;;;-0.44240195;-0.3163071;0.81533825;;;;;;;;;;;;;;;
1892.0;1841.5;;;;-0.44419104;-0.31553653;0.81637967;;;;;;;;;;;;;;;
1892.0;1841.5;;;;-0.44552618;-0.31439593;0.8168794;;;;;;;;;;;;;;;
1892.0;1841.5;;;;-0.44596106;-0.3133469;0.8168565;;;;;;;;;;;;;;;
1893.0;1843.1;;;;;;;;;;;;;;;;;-2.4491103;0.7553331;0.24414808;;1737.1
1893.0;1843.1;;;;;;;;;;;;;;0.8437147;0.11560412;-0.4701071;;;;;1737.1
1893.0;1843.1;;;;;;;;;;;;;;;;;-2.517777;0.79729605;0.2822962;;1737.1
1893.0;1843.1;;;;;;;;;;;;;;0.8455458;0.11548204;-0.47413558;;;;;1737.1
1893.0;1843.1;;;;;;;;;;;;;;;;;-2.6474807;0.9765923;0.37003693;;1746.8
1893.0;1843.1;;;;;;;;;;;;;;0.84524065;0.114749596;-0.47431868;;;;;1746.8
1893.0;1843.1;;;;;;;;;;;;;;;;;-2.7314067;1.0223701;0.3089999;;1746.8
1893.0;1843.1;;;;;;;;;;;;;;0.84200567;0.113956116;-0.47291481;;;;;1746.8
1893.0;1843.1;;;;;;;;;;;;;;;;;-2.7390363;1.1329997;0.3128147;;1756.4
1893.0;1843.1;;;;;;;;;;;;;;0.8413953;0.113406785;-0.47444075;;;;;1756.4
1893.0;1843.1;;;;;;;;;;;;;;;;;-2.7390363;1.1291848;0.27466658;;1756.4
1893.0;1843.1;;;;;;;;;;;;;;0.8402966;0.11358989;-0.4750511;;;;;1756.4
1893.0;1844.0;;;;;;;;;;;;;;;;;-2.746666;1.167333;0.25940734;;1766.1
1893.0;1844.0;;;;;;;;;;;;;;0.8415784;0.112125;-0.47621083;;;;;1766.1
1893.0;1844.0;;;;;;;;;;;;;;;;;-2.6551104;1.2016664;0.22888882;;1766.1
1893.0;1844.0;;;;;;;;;;;;;;0.8418836;0.11169775;-0.47578356;;;;;1766.1
1893.0;1844.0;;;;;;;;;;;;;;;;;-2.5864437;1.2054812;0.17929624;;1775.7
1893.0;1844.0;;;;;;;;;;;;;;0.8435316;0.110415965;-0.47639394;;;;;1775.7
1893.0;1844.0;;;;;;;;;;;;;;;;;-2.582629;1.2169256;0.09155553;;1775.7
1893.0;1844.0;;;;;;;;;;;;;;0.8451186;0.10864589;-0.47688222;;;;;1775.7
1893.0;1844.0;;;;;;;;;;;;;;;;;-2.5330362;1.2627033;0.057222206;;1785.4
1893.0;1844.0;;;;;;;;;;;;;;0.8467666;0.10943937;-0.47724846;;;;;1785.4
1893.0;1844.0;;;;;;;;;;;;;;;;;-2.3270364;1.3542589;0.04196295;;1785.4
1893.0;1844.0;;;;;;;;;;;;;;0.8447524;0.10821863;-0.47810298;;;;;1785.4
1894.0;1844.5;262143;262143;13156;;;;;;;;;;;;;;;;;;
1894.0;1845.5;;;;;;;;;;4.6617026;-8.728293;-7.2786646;;;;;;;;;
1894.0;1845.5;;;;;;;0.4499649;0.3063448;0.8695944;;;;;;;;;;;;
1894.0;1845.5;;;;;;;;;;4.9249244;-9.491257;-7.2023683;;;;;;;;;
1894.0;1845.5;;;;;;;0.44593647;0.31397444;0.8661763;;;;;;;;;;;;
1894.0;1850.5;;;;;;;;;;;;;2265;;;;;;;;
1894.0;1850.5;;;;;;;;;;;;;2464;;;;;;;;
1894.0;1850.5;;;;;;;;;;;;;2352;;;;;;;;
1894.0;1850.5;;;;;;;;;;;;;2066;;;;;;;;
1894.0;1850.5;;;;;;;;;;;;;1759;;;;;;;;
1894.0;1851.2;;;;-0.44577795;-0.31216052;0.8166963;;;;;;;;;;;;;;;
1894.0;1851.2;;;;-0.44475943;-0.310936;0.8171731;;;;;;;;;;;;;;;
1894.0;1851.2;;;;-0.44469076;-0.30990604;0.8173944;;;;;;;;;;;;;;;
1894.0;1851.2;;;;-0.444542;-0.30948642;0.816681;;;;;;;;;;;;;;;
1894.0;1851.2;;;;-0.44491202;-0.3094063;0.81663525;;;;;;;;;;;;;;;
1894.0;1855.0;;;;;;;;;;5.1347394;-9.735405;-7.2367015;;;;;;;;;
1894.0;1855.0;;;;;;;0.45039216;0.3211768;0.86373484;;;;;;;;;;;;
1894.0;1855.0;;;;;;;;;;5.115665;-9.979552;-7.2176275;;;;;;;;;
1894.0;1855.0;;;;;;;0.45185706;0.32563248;0.86288035;;;;;;;;;;;;
1894.0;1861.2;;;;-0.4463883;-0.30993655;0.8171426;;;;;;;;;;;;;;;
1894.0;1861.2;;;;-0.4478417;-0.30987933;0.81679547;;;;;;;;;;;;;;;
1894.0;1861.2;;;;-0.4487;-0.31033328;0.81713116;;;;;;;;;;;;;;;
1894.0;1861.2;;;;-0.44889838;-0.31030276;0.8169862;;;;;;;;;;;;;;;
1894.0;1861.2;;;;-0.44843298;-0.30993655;0.81707394;;;;;;;;;;;;;;;
1954.0;1864.5;;;;;;;;;;5.0737023;-10.143589;-7.1642203;;;;;;;;;
1954.0;1864.5;;;;;;;0.4542375;0.33356732;0.8627583;;;;;;;;;;;;
1954.0;1864.5;;;;;;;;;;4.837184;-10.155034;-7.122257;;;;;;;;;
1954.0;1864.5;;;;;;;0.45735037;0.33729056;0.85976744;;;;;;;;;;;;
1954.0;1864.5;262143;262143;13162;;;;;;;;;;;;;;;;;;
1954.0;1871.3;;;;-0.4470635;-0.30957416;0.8171197;;;;;;;;;;;;;;;
1954.0;1871.3;;;;-0.44593817;-0.30908206;0.81723416;;;;;;;;;;;;;;;
1954.0;1871.3;;;;-0.44519812;-0.30886462;0.8179132;;;;;;;;;;;;;;;
1954.0;1871.3;;;;-0.4457894;-0.3091965;0.81803906;;;;;;;;;;;;;;;
1954.0;1871.3;;;;-0.4473763;-0.30986407;0.8184396;;;;;;;;;;;;;;;
1954.0;1874.1;;;;;;;;;;4.581591;-10.036775;-7.152776;;;;;;;;;
1954.0;1874.1;;;;;;;0.4580218;0.34034243;0.86111027;;;;;;;;;;;;
1954.0;1874.1;;;;;;;;;;4.2420726;-9.807885;-7.213813;;;;;;;;;
1954.0;1874.1;;;;;;;0.45698416;0.34028137;0.86233103;;;;;;;;;;;;
1954.0;1881.3;;;;-0.44888312;-0.3104706;0.8188478;;;;;;;;;;;;;;;
1954.0;1881.3;;;;-0.45088202;-0.3105469;0.81896603;;;;;;;;;;;;;;;
1954.0;1881.3;;;;-0.45239645;-0.31030658;0.81928265;;;;;;;;;;;;;;;
1954.0;1881.3;;;;-0.45319754;-0.31024554;0.8199655;;;;;;;;;;;;;;;
1954.0;1881.3;;;;-0.45248038;-0.3091736;0.8200685;;;;;;;;;;;;;;;
1954.0;1883.6;;;;;;;;;;3.8567767;-9.460738;-7.4694057;;;;;;;;;
1954.0;1883.6;;;;;;;0.45924252;0.33906063;0.86342967;;;;;;;;;;;;
1954.0;1883.6;;;;;;;;;;3.4905546;-9.067812;-7.763146;;;;;;;;;
1954.0;1883.6;;;;;;;0.4598529;0.3389996;0.86519974;;;;;;;;;;;;
1956.0;1884.6;262143;262143;13163;;;;;;;;;;;;;;;;;;
1956.0;1890.8;;;;;;;;;;;;;1373;;;;;;;;
1956.0;1890.8;;;;;;;;;;;;;888;;;;;;;;
1956.0;1890.8;;;;;;;;;;;;;633;;;;;;;;
1956.0;1890.8;;;;;;;;;;;;;860;;;;;;;;
1956.0;1890.8;;;;;;;;;;;;;1472;;;;;;;;
1956.0;1891.4;;;;-0.45190436;-0.30791476;0.8201486;;;;;;;;;;;;;;;
1956.0;1891.4;;;;-0.45146567;-0.30656436;0.82011425;;;;;;;;;;;;;;;
1956.0;1891.4;;;;-0.45023733;-0.30528262;0.8197137;;;;;;;;;;;;;;;
1956.0;1891.4;;;;-0.44937903;-0.3042107;0.81910336;;;;;;;;;;;;;;;
1956.0;1891.4;;;;-0.44850928;-0.30358508;0.81829846;;;;;;;;;;;;;;;
1956.0;1893.3;;;;;;;;;;3.1052582;-8.617663;-8.068331;;;;;;;;;
1956.0;1893.3;;;;;;;0.45765558;0.33893856;0.8631855;;;;;;;;;;;;
1956.0;1893.3;;;;;;;;;;2.6703696;-8.198035;-8.48796;;;;;;;;;
1956.0;1893.3;;;;;;;0.4553972;0.34009826;0.8634907;;;;;;;;;;;;
1956.0;1901.5;;;;-0.44730002;-0.30313495;0.8183404;;;;;;;;;;;;;;;
1956.0;1901.5;;;;-0.44707114;-0.30292514;0.818596;;;;;;;;;;;;;;;
1956.0;1901.5;;;;-0.44676977;-0.30274585;0.8199922;;;;;;;;;;;;;;;
1956.0;1901.5;;;;-0.44696814;-0.30297092;0.82075894;;;;;;;;;;;;;;;
1956.0;1901.5;;;;-0.4473496;-0.30269626;0.8216287;;;;;;;;;;;;;;;
1956.0;1902.9;;;;;;;;;;2.1820734;-7.7517014;-8.919034;;;;;;;;;
1956.0;1902.9;;;;;;;0.45429853;0.3411359;0.8634907;;;;;;;;;;;;
1956.0;1902.9;;;;;;;;;;1.6861477;-7.2862945;-9.3577385;;;;;;;;;
1956.0;1902.9;;;;;;;0.45204017;0.34174627;0.8584857;;;;;;;;;;;;
1957.0;1903.3;;;;;;;;;;;;;;;;;-2.1744437;1.3771478;0.0038148137;;1795.0
1957.0;1903.3;;;;;;;;;;;;;;0.84292126;0.10657064;-0.47798088;;;;;1795.0
1957.0;1903.3;;;;;;;;;;;;;;;;;-2.0599995;1.373333;-0.064851835;;1795.0
1957.0;1903.3;;;;;;;;;;;;;;0.842616;0.1048616;-0.47596666;;;;;1795.0
1957.0;1903.3;;;;;;;;;;;;;;;;;-1.7281106;1.2398144;-0.13351847;;1804.7
1957.0;1903.3;;;;;;;;;;;;;;0.84249395;0.10235908;-0.47755364;;;;;1804.7
1957.0;1903.3;;;;;;;;;;;;;;;;;-1.5945921;1.1825923;-0.08011109;;1804.7
1957.0;1903.3;;;;;;;;;;;;;;0.84163946;0.1010773;-0.476516;;;;;1804.7
1957.0;1903.3;;;;;;;;;;;;;;;;;-1.4419996;1.0910367;-0.13351847;;1814.4
1957.0;1903.3;;;;;;;;;;;;;;0.842555;0.100711085;-0.4760277;;;;;1814.4
1957.0;1903.3;;;;;;;;;;;;;;;;;-1.1787775;1.1368145;-0.18692587;;1814.4
1957.0;1903.3;;;;;;;;;;;;;;0.84054077;0.10168768;-0.47511217;;;;;1814.4
1957.0;1904.8;262143;262143;13160;;;;;;;;;;;;;;;;;;
1957.0;1910.9;;;;;;;;;;;;;;;;;-0.9498886;1.0910367;-0.20599994;;1823.9
1957.0;1910.9;;;;;;;;;;;;;;0.8390759;0.10101627;-0.47596666;;;;;1823.9
1957.0;1910.9;;;;;;;;;;;;;;;;;-0.7553331;1.0872219;-0.2822962;;1823.9
1957.0;1910.9;;;;;;;;;;;;;;0.83962524;0.10242012;-0.47437972;;;;;1823.9
1957.0;1910.9;;;;;;;;;;;;;;;;;-0.6904813;1.0185553;-0.34714803;;1833.6
1957.0;1910.9;;;;;;;;;;;;;;0.839259;0.103518784;-0.47279274;;;;;1833.6
1957.0;1910.9;;;;;;;;;;;;;;;;;-0.5340739;0.9804071;-0.34333324;;1833.6
1957.0;1910.9;;;;;;;;;;;;;;0.83999145;0.10431226;-0.47462386;;;;;1833.6
1957.0;1910.9;;;;;;;;;;;;;;;;;-0.37385175;0.9727775;-0.40437025;;1843.3
1957.0;1910.9;;;;;;;;;;;;;;0.84109014;0.1060213;-0.47376934;;;;;1843.3
1957.0;1910.9;;;;;;;;;;;;;;;;;-0.33951843;0.9346294;-0.37385175;;1843.3
1957.0;1910.9;;;;;;;;;;;;;;0.84267706;0.107181005;-0.47444075;;;;;1843.3
1957.0;1911.4;;;;-0.44757086;-0.30248263;0.82231915;;;;;;;;;;;;;;;
1957.0;1911.4;;;;-0.44686514;-0.3016396;0.82324994;;;;;;;;;;;;;;;
1957.0;1911.4;;;;-0.44590384;-0.3002129;0.8239862;;;;;;;;;;;;;;;
1957.0;1911.4;;;;-0.44471747;-0.29997256;0.8243753;;;;;;;;;;;;;;;
1957.0;1911.4;;;;-0.4434548;-0.299511;0.8243104;;;;;;;;;;;;;;;
1957.0;1912.3;;;;;;;;;;1.2207403;-6.859035;-9.762108;;;;;;;;;
1957.0;1912.3;;;;;;;0.44959867;0.3424177;0.85830253;;;;;;;;;;;;
1957.0;1912.3;;;;;;;;;;0.7057405;-6.2906275;-10.132145;;;;;;;;;
1957.0;1912.3;;;;;;;0.45118564;0.34546953;0.85854673;;;;;;;;;;;;
2013.0;1921.4;;;;-0.44198614;-0.29933932;0.8244363;;;;;;;;;;;;;;;
2013.0;1921.4;;;;-0.4411927;-0.29946902;0.82485974;;;;;;;;;;;;;;;
2013.0;1921.4;;;;-0.44041067;-0.30036548;0.8257333;;;;;;;;;;;;;;;
2013.0;1921.4;;;;-0.4405976;-0.30067065;0.82553494;;;;;;;;;;;;;;;
2013.0;1921.4;;;;-0.44038397;-0.3015671;0.82606137;;;;;;;;;;;;;;;
2013.0;1921.8;;;;;;;;;;0.2517777;-5.6382947;-10.536515;;;;;;;;;
2013.0;1921.8;;;;;;;0.45222327;0.3483993;0.8577532;;;;;;;;;;;;
2013.0;1921.8;;;;;;;;;;-0.20599994;-5.035554;-10.917997;;;;;;;;;
2013.0;1921.8;;;;;;;0.4488052;0.3493759;0.85836357;;;;;;;;;;;;
2013.0;1924.9;262143;262143;13156;;;;;;;;;;;;;;;;;;
2013.0;1930.9;;;;;;;;;;;;;2139;;;;;;;;
2013.0;1930.9;;;;;;;;;;;;;2427;;;;;;;;
2013.0;1930.9;;;;;;;;;;;;;2390;;;;;;;;
2013.0;1930.9;;;;;;;;;;;;;2229;;;;;;;;
2013.0;1930.9;;;;;;;;;;;;;1904;;;;;;;;
2013.0;1931.4;;;;;;;;;;-0.6408887;-4.482406;-11.204107;;;;;;;;;
2013.0;1931.4;;;;;;;0.446791;0.3515122;0.8550676;;;;;;;;;;;;
2013.0;1931.4;;;;;;;;;;-1.0490738;-4.0093694;-11.425366;;;;;;;;;
2013.0;1931.4;;;;;;;0.4423963;0.3521836;0.85262614;;;;;;;;;;;;
2013.0;1931.5;;;;-0.44067007;-0.30245593;0.8267213;;;;;;;;;;;;;;;
2013.0;1931.5;;;;-0.4415055;-0.303566;0.82673657;;;;;;;;;;;;;;;
2013.0;1931.5;;;;-0.44157797;-0.30373004;0.82626736;;;;;;;;;;;;;;;
2013.0;1931.5;;;;-0.44009405;-0.30384067;0.8268243;;;;;;;;;;;;;;;
2013.0;1931.5;;;;-0.43911368;-0.30409625;0.82662594;;;;;;;;;;;;;;;
2016.0;1940.8;;;;;;;;;;-1.5411848;-3.521073;-11.566515;;;;;;;;;
2016.0;1940.8;;;;;;;0.4379406;0.3524888;0.8510392;;;;;;;;;;;;
2016.0;1940.8;;;;;;;;;;-1.9150364;-2.8572955;-11.795404;;;;;;;;;
2016.0;1940.8;;;;;;;0.43787956;0.35358745;0.8518326;;;;;;;;;;;;
2016.0;1941.4;;;;-0.4392777;-0.30357364;0.82660306;;;;;;;;;;;;;;;
2016.0;1941.4;;;;-0.43917853;-0.30349353;0.82652676;;;;;;;;;;;;;;;
2016.0;1941.4;;;;-0.43885428;-0.30310825;0.8260385;;;;;;;;;;;;;;;
2016.0;1941.4;;;;-0.4395066;-0.30295947;0.82530606;;;;;;;;;;;;;;;
2016.0;1941.4;;;;-0.4403878;-0.30297092;0.82460415;;;;;;;;;;;;;;;
2016.0;1944.9;262143;262143;13158;;;;;;;;;;;;;;;;;;
2016.0;1950.4;;;;;;;;;;-2.273629;-2.2698143;-12.104404;;;;;;;;;
2016.0;1950.4;;;;;;;0.43665883;0.35608998;0.8509171;;;;;;;;;;;;
2016.0;1950.4;;;;;;;;;;-2.666555;-1.7853328;-12.314219;;;;;;;;;
2016.0;1950.4;;;;;;;0.43592638;0.3566393;0.84951323;;;;;;;;;;;;
2016.0;1951.5;;;;-0.44089895;-0.30235294;0.82382596;;;;;;;;;;;;;;;
2016.0;1951.5;;;;-0.4416657;-0.30181125;0.8233491;;;;;;;;;;;;;;;
2016.0;1951.5;;;;-0.44287497;-0.3017731;0.8231317;;;;;;;;;;;;;;;
2016.0;1951.5;;;;-0.44435507;-0.30198672;0.82288754;;;;;;;;;;;;;;;
2016.0;1951.5;;;;-0.44624335;-0.30212787;0.8224946;;;;;;;;;;;;;;;
2016.0;1960.1;;;;;;;;;;-3.0442214;-1.1711478;-12.359997;;;;;;;;;
2016.0;1960.1;;;;;;;0.4372692;0.3573107;0.85079503;;;;;;;;;;;;
2016.0;1960.1;;;;;;;;;;-3.3112583;-0.71337014;-12.436293;;;;;;;;;
2016.0;1960.1;;;;;;;0.4397717;0.35956907;0.85348064;;;;;;;;;;;;
2016.0;1961.6;;;;-0.44779974;-0.30214694;0.8227922;;;;;;;;;;;;;;;
2016.0;1961.6;;;;-0.44806677;-0.302681;0.82343304;;;;;;;;;;;;;;;
2016.0;1961.6;;;;-0.4483605;-0.30287173;0.8238374;;;;;;;;;;;;;;;
2016.0;1961.6;;;;-0.44826132;-0.30357745;0.8244325;;;;;;;;;;;;;;;
2016.0;1961.6;;;;-0.4481278;-0.30409244;0.8250314;;;;;;;;;;;;;;;
2016.0;1964.0;;;;;;;;;;;;;;;;;-0.20981476;0.9193701;-0.38911098;;1852.9
2016.0;1964.0;;;;;;;;;;;;;;0.8401135;0.10901212;-0.47425765;;;;;1852.9
2016.0;1964.0;;;;;;;;;;;;;;;;;-0.0839259;0.9537034;-0.3089999;;1852.9
2016.0;1964.0;;;;;;;;;;;;;;0.8393811;0.10858486;-0.474868;;;;;1852.9
2016.0;1964.0;;;;;;;;;;;;;;;;;-0.110629596;0.9537034;-0.26703694;;1862.6
2016.0;1964.0;;;;;;;;;;;;;;0.8393811;0.10992767;-0.47285378;;;;;1862.6
2016.0;1964.0;;;;;;;;;;;;;;;;;-0.19455549;0.92699975;-0.22507401;;1862.6
2016.0;1964.0;;;;;;;;;;;;;;0.8377331;0.11023286;-0.4740745;;;;;1862.6
2016.0;1964.0;;;;;;;;;;;;;;;;;-0.17548142;0.8888516;-0.19455549;;1872.1
2016.0;1964.0;;;;;;;;;;;;;;0.837611;0.111087374;-0.47425765;;;;;1872.1
2016.0;1964.0;;;;;;;;;;;;;;;;;-0.3128147;0.8354442;-0.045777764;;1872.1
2016.0;1964.0;;;;;;;;;;;;;;0.8387707;0.11200293;-0.47309792;;;;;1872.1
2017.0;1964.8;;;;;;;;;;;;;;;;;-0.48448133;0.79348123;0.08011109;;1881.7
2017.0;1964.8;;;;;;;;;;;;;;0.84035766;0.112186044;-0.47169408;;;;;1881.7
2017.0;1964.8;;;;;;;;;;;;;;;;;-0.6637776;0.73625904;0.14496292;;1881.7
2017.0;1964.8;;;;;;;;;;;;;;0.8415784;0.113956116;-0.47212133;;;;;1881.7
2017.0;1964.8;;;;;;;;;;;;;;;;;-0.84307384;0.82399976;0.26322216;;1891.3
2017.0;1964.8;;;;;;;;;;;;;;0.8409681;0.112186044;-0.47199926;;;;;1891.3
2017.0;1964.8;;;;;;;;;;;;;;;;;-1.003296;0.8087405;0.3624073;;1891.3
2017.0;1964.8;;;;;;;;;;;;;;0.84127325;0.11328471;-0.47267067;;;;;1891.3
2017.0;1964.8;;;;;;;;;;;;;;;;;-1.1825923;0.7896664;0.43488875;;1900.9
2017.0;1964.8;;;;;;;;;;;;;;0.84127325;0.111636706;-0.47035128;;;;;1900.9
2017.0;1964.8;;;;;;;;;;;;;;;;;-1.2703329;0.7286294;0.5569628;;1900.9
2017.0;1964.8;;;;;;;;;;;;;;0.8393811;0.1119419;-0.46803185;;;;;1900.9
2017.0;1965.0;262143;262143;13156;;;;;;;;;;;;;;;;;;
2017.0;1969.6;;;;;;;;;;-3.5706656;-0.37003693;-12.524033;;;;;;;;;
2017.0;1969.6;;;;;;;0.44245735;0.35840937;0.8522599;;;;;;;;;;;;
2017.0;1969.6;;;;;;;;;;-3.7385175;0.022888882;-12.558367;;;;;;;;;
2017.0;1969.6;;;;;;;0.43885615;0.35865352;0.8545183;;;;;;;;;;;;
2017.0;1971.1;;;;;;;;;;;;;1920;;;;;;;;
2017.0;1971.1;;;;;;;;;;;;;3333;;;;;;;;
2017.0;1971.1;;;;;;;;;;;;;4828;;;;;;;;
2017.0;1971.1;;;;;;;;;;;;;278;;;;;;;;
2017.0;1971.1;;;;;;;;;;;;;-13494;;;;;;;;
2017.0;1971.5;;;;-0.44850165;-0.30454257;0.8246728;;;;;;;;;;;;;;;
2017.0;1971.5;;;;-0.4484864;-0.30487826;0.8251344;;;;;;;;;;;;;;;
2017.0;1971.5;;;;-0.44791037;-0.30508426;0.825245;;;;;;;;;;;;;;;
2017.0;1971.5;;;;-0.44814306;-0.30573276;0.82613003;;;;;;;;;;;;;;;
2017.0;1971.5;;;;-0.44813162;-0.3058968;0.8264009;;;;;;;;;;;;;;;
2017.0;1979.1;;;;;;;;;;-3.9788508;0.20599994;-12.535478;;;;;;;;;
2017.0;1979.1;;;;;;;0.4380627;0.35767692;0.85335857;;;;;;;;;;;;
2017.0;1979.1;;;;;;;;;;-4.142888;0.3662221;-12.382885;;;;;;;;;
2017.0;1979.1;;;;;;;0.43934447;0.35499132;0.8529313;;;;;;;;;;;;
2017.0;1981.5;;;;-0.44852453;-0.30619052;0.82628644;;;;;;;;;;;;;;;
2017.0;1981.5;;;;-0.4492417;-0.3063126;0.82756436;;;;;;;;;;;;;;;
2017.0;1981.5;;;;-0.4492913;-0.30646136;0.8281671;;;;;;;;;;;;;;;
2017.0;1981.5;;;;-0.4491616;-0.3063965;0.8288804;;;;;;;;;;;;;;;
2017.0;1981.5;;;;-0.4487992;-0.30636218;0.829548;;;;;;;;;;;;;;;
2017.0;1985.2;262143;262143;13153;;;;;;;;;;;;;;;;;;
2017.0;1988.7;;;;;;;;;;-4.2649617;0.59511095;-12.272256;;;;;;;;;
2017.0;1988.7;;;;;;;0.4395886;0.352855;0.8523209;;;;;;;;;;;;
2017.0;1988.7;;;;;;;;;;-4.3717766;0.79729605;-12.222664;;;;;;;;;
2017.0;1988.7;;;;;;;0.4372692;0.35120702;0.8514054;;;;;;;;;;;;
2070.0;1991.5;;;;-0.44810492;-0.306057;0.8295785;;;;;;;;;;;;;;;
2070.0;1991.5;;;;-0.44777304;-0.30569842;0.82948315;;;;;;;;;;;;;;;
2070.0;1991.5;;;;-0.44802862;-0.30544665;0.82958996;;;;;;;;;;;;;;;
2070.0;1991.5;;;;-0.4483567;-0.3051987;0.83025753;;;;;;;;;;;;;;;
2070.0;1991.5;;;;-0.44878775;-0.30485538;0.830845;;;;;;;;;;;;;;;
2070.0;1997.8;;;;;;;;;;-4.39848;0.98422194;-11.997589;;;;;;;;;
2070.0;1997.8;;;;;;;0.4337901;0.34852138;0.852443;;;;;;;;;;;;
2070.0;1997.8;;;;;;;;;;-4.4175544;1.0605181;-11.780145;;;;;;;;;
2070.0;1997.8;;;;;;;0.43391216;0.34504226;0.8504898;;;;;;;;;;;;
2070.0;2001.3;;;;-0.44884115;-0.30461887;0.8303224;;;;;;;;;;;;;;;
2070.0;2001.3;;;;-0.44968802;-0.3041382;0.8308221;;;;;;;;;;;;;;;
2070.0;2001.3;;;;-0.450409;-0.30312732;0.8312532;;;;;;;;;;;;;;;
2070.0;2001.3;;;;-0.45028692;-0.3019562;0.8302423;;;;;;;;;;;;;;;
2070.0;2001.3;;;;-0.44980627;-0.30129626;0.82896435;;;;;;;;;;;;;;;
2070.0;2005.0;262143;262143;13160;;;;;;;;;;;;;;;;;;
2070.0;2007.5;;;;;;;;;;-4.3832207;0.99185157;-11.5970335;;;;;;;;;
2070.0;2007.5;;;;;;;0.4323252;0.3424177;0.85079503;;;;;;;;;;;;
2070.0;2007.5;;;;;;;;;;-4.3069243;0.8697775;-11.421552;;;;;;;;;
2070.0;2007.5;;;;;;;0.4334849;0.3391827;0.854091;;;;;;;;;;;;
2070.0;2011.0;;;;;;;;;;;;;-27686;;;;;;;;
2070.0;2011.0;;;;;;;;;;;;;-29043;;;;;;;;
2070.0;2011.0;;;;;;;;;;;;;-15820;;;;;;;;
2070.0;2011.0;;;;;;;;;;;;;-338;;;;;;;;
2070.0;2011.0;;;;;;;;;;;;;6084;;;;;;;;
2072.0;2011.4;;;;-0.44896322;-0.30094913;0.827942;;;;;;;;;;;;;;;
2072.0;2011.4;;;;-0.4475556;-0.3003159;0.82730114;;;;;;;;;;;;;;;
2072.0;2011.4;;;;-0.44673163;-0.30023578;0.82644284;;;;;;;;;;;;;;;
2072.0;2011.4;;;;-0.44611746;-0.29994205;0.8261415;;;;;;;;;;;;;;;
2072.0;2011.4;;;;-0.4453469;-0.30047992;0.8251344;;;;;;;;;;;;;;;
2072.0;2017.1;;;;;;;;;;-4.2191844;0.7095553;-11.211737;;;;;;;;;
2072.0;2017.1;;;;;;;0.4367809;0.3357036;0.85586107;;;;;;;;;;;;
2072.0;2017.1;;;;;;;;;;-4.0475173;0.51118505;-11.059145;;;;;;;;;
2072.0;2017.1;;;;;;;0.43635365;0.3315531;0.8559221;;;;;;;;;;;;
2072.0;2021.5;;;;-0.4445687;-0.30032733;0.82413495;;;;;;;;;;;;;;;
2072.0;2021.5;;;;-0.4435349;-0.30043033;0.8231584;;;;;;;;;;;;;;;
2072.0;2021.5;;;;-0.44261175;-0.30084994;0.8225671;;;;;;;;;;;;;;;
2072.0;2021.5;;;;-0.44261557;-0.30113605;0.8222085;;;;;;;;;;;;;;;
2072.0;2021.5;;;;-0.44352347;-0.3009682;0.8220941;;;;;;;;;;;;;;;
2072.0;2025.2;262143;262143;13168;;;;;;;;;;;;;;;;;;
2072.0;2026.7;;;;;;;;;;-3.9178138;0.21362957;-10.826442;;;;;;;;;
2072.0;2026.7;;;;;;;0.4354381;0.32984406;0.85708183;;;;;;;;;;;;
2072.0;2026.7;;;;;;;;;;-3.68511;-0.068666644;-10.692923;;;;;;;;;
2072.0;2026.7;;;;;;;0.43568224;0.32770777;0.8575701;;;;;;;;;;;;
2073.0;2031.3;;;;;;;;;;;;;;;;;-1.3389996;0.67903686;0.6714072;;1910.6
2073.0;2031.3;;;;;;;;;;;;;;0.83980834;0.111880854;-0.4674215;;;;;1910.6
2073.0;2031.3;;;;;;;;;;;;;;;;;-1.4801477;0.67903686;0.7477035;;1910.6
2073.0;2031.3;;;;;;;;;;;;;;0.84035766;0.11358989;-0.46803185;;;;;1910.6
2073.0;2031.3;;;;;;;;;;;;;;;;;-1.6212958;0.6408887;0.8888516;;1920.3
2073.0;2031.3;;;;;;;;;;;;;;0.8427381;0.11389508;-0.46888638;;;;;1920.3
2073.0;2031.3;;;;;;;;;;;;;;;;;-1.7319254;0.6179998;0.90792567;;1920.3
2073.0;2031.3;;;;;;;;;;;;;;0.84163946;0.11505478;-0.46998504;;;;;1920.3
2073.0;2031.3;;;;;;;;;;;;;;;;;-1.8807031;0.6370739;1.064333;;1929.6
2073.0;2031.3;;;;;;;;;;;;;;0.8428602;0.11523789;-0.46925262;;;;;1929.6
2073.0;2031.3;;;;;;;;;;;;;;;;;-1.9226661;0.6065554;1.1024811;;1929.6
2073.0;2031.3;;;;;;;;;;;;;;0.84322643;0.11444441;-0.46949676;;;;;1929.6
2073.0;2031.6;;;;-0.44483954;-0.30110934;0.82135403;;;;;;;;;;;;;;;
2073.0;2031.6;;;;-0.44535452;-0.30098727;0.8203889;;;;;;;;;;;;;;;
2073.0;2031.6;;;;-0.44615942;-0.30062488;0.8195001;;;;;;;;;;;;;;;
2073.0;2031.6;;;;-0.44683844;-0.30101016;0.818596;;;;;;;;;;;;;;;
2073.0;2031.6;;;;-0.44808203;-0.30103305;0.81805813;;;;;;;;;;;;;;;
2073.0;2036.3;;;;;;;;;;-3.4752953;-0.37003693;-10.498367;;;;;;;;;
2073.0;2036.3;;;;;;;0.4389172;0.32605976;0.8567156;;;;;;;;;;;;
2073.0;2036.3;;;;;;;;;;-3.276925;-0.38148138;-10.254219;;;;;;;;;
2073.0;2036.3;;;;;;;0.44215217;0.32355723;0.8548845;;;;;;;;;;;;
2130.0;2041.7;;;;-0.44850546;-0.30170825;0.8173257;;;;;;;;;;;;;;;
2130.0;2041.7;;;;-0.4483109;-0.30225757;0.8165971;;;;;;;;;;;;;;;
2130.0;2041.7;;;;-0.44726187;-0.30273822;0.8166696;;;;;;;;;;;;;;;
2130.0;2041.7;;;;-0.44657522;-0.30354694;0.81707394;;;;;;;;;;;;;;;
2130.0;2041.7;;;;-0.4459954;-0.30399325;0.8169824;;;;;;;;;;;;;;;
2130.0;2045.9;;;;;;;;;;-3.1357768;-0.45396283;-10.006256;;;;;;;;;
2130.0;2045.9;;;;;;;0.4453261;0.3190405;0.854091;;;;;;;;;;;;
2130.0;2045.9;;;;;;;;;;-2.948851;-0.5874813;-9.727776;;;;;;;;;
2130.0;2045.9;;;;;;;0.4417249;0.31745353;0.8510392;;;;;;;;;;;;
2130.0;2045.5;262143;262143;13164;;;;;;;;;;;;;;;;;;
2130.0;2051.4;;;;;;;;;;;;;4712;;;;;;;;
2130.0;2051.4;;;;;;;;;;;;;3044;;;;;;;;
2130.0;2051.4;;;;;;;;;;;;;3746;;;;;;;;
2130.0;2051.4;;;;;;;;;;;;;4424;;;;;;;;
2130.0;2051.4;;;;;;;;;;;;;4206;;;;;;;;
2130.0;2051.7;;;;-0.44494253;-0.30438998;0.81761944;;;;;;;;;;;;;;;
2130.0;2051.7;;;;-0.4439202;-0.30448535;0.8178445;;;;;;;;;;;;;;;
2130.0;2051.7;;;;-0.44303137;-0.3044472;0.81785977;;;;;;;;;;;;;;;
2130.0;2051.7;;;;-0.44255453;-0.3044739;0.81780255;;;;;;;;;;;;;;;
2130.0;2051.7;;;;-0.4421082;-0.3043404;0.81723034;;;;;;;;;;;;;;;
2130.0;2055.3;;;;;;;;;;-2.6932585;-0.59511095;-9.495071;;;;;;;;;
2130.0;2055.3;;;;;;;0.44141972;0.31727043;0.8496353;;;;;;;;;;;;
2130.0;2055.3;;;;;;;;;;-2.578814;-0.40818506;-9.331035;;;;;;;;;
2130.0;2055.3;;;;;;;0.44410536;0.31824702;0.8497574;;;;;;;;;;;;
2131.0;2061.6;;;;-0.44142157;-0.30406955;0.8169023;;;;;;;;;;;;;;;
2131.0;2061.6;;;;-0.44029623;-0.30381778;0.81647885;;;;;;;;;;;;;;;
2131.0;2061.6;;;;-0.43932348;-0.30394748;0.81671536;;;;;;;;;;;;;;;
2131.0;2061.6;;;;-0.43760306;-0.30372623;0.81683743;;;;;;;;;;;;;;;
2131.0;2061.6;;;;-0.43623358;-0.30383685;0.81663144;;;;;;;;;;;;;;;
2131.0;2064.9;;;;;;;;;;-2.4529252;-0.22888882;-9.300516;;;;;;;;;
2131.0;2064.9;;;;;;;0.446791;0.3192236;0.8498184;;;;;;;;;;;;
2131.0;2064.9;;;;;;;;;;-2.3041475;-0.18692587;-9.033479;;;;;;;;;
2131.0;2064.9;;;;;;;0.44441053;0.3173925;0.84951323;;;;;;;;;;;;
2131.0;2065.5;262143;262143;13160;;;;;;;;;;;;;;;;;;
2131.0;2071.8;;;;-0.4350739;-0.30394748;0.81653225;;;;;;;;;;;;;;;
2131.0;2071.8;;;;-0.43481833;-0.30479434;0.81619656;;;;;;;;;;;;;;;
2131.0;2071.8;;;;-0.4336205;-0.30492786;0.81546795;;;;;;;;;;;;;;;
2131.0;2071.8;;;;-0.43238074;-0.3052483;0.81562054;;;;;;;;;;;;;;;
2131.0;2071.8;;;;-0.4312325;-0.3059807;0.8152658;;;;;;;;;;;;;;;
2131.0;2074.6;;;;;;;;;;-2.25074;-0.20218512;-8.705404;;;;;;;;;
2131.0;2074.6;;;;;;;0.44215217;0.3188574;0.85189366;;;;;;;;;;;;
2131.0;2074.6;;;;;;;;;;-2.0790737;-0.08774071;-8.556626;;;;;;;;;
2131.0;2074.6;;;;;;;0.44093144;0.31684315;0.8564104;;;;;;;;;;;;
2135.0;2081.9;;;;-0.4308129;-0.3056946;0.81510556;;;;;;;;;;;;;;;
2135.0;2081.9;;;;-0.42994314;-0.3049889;0.8143922;;;;;;;;;;;;;;;
2135.0;2081.9;;;;-0.42890936;-0.3047333;0.81385434;;;;;;;;;;;;;;;
2135.0;2081.9;;;;-0.42823416;-0.30392078;0.8138124;;;;;;;;;;;;;;;
2135.0;2081.9;;;;-0.4280663;-0.30381015;0.8131181;;;;;;;;;;;;;;;
2135.0;2084.2;;;;;;;;;;;;;;;;;-1.9646292;0.5264443;1.1024811;;1939.3
2135.0;2084.2;;;;;;;;;;;;;;0.8445082;0.11322367;-0.47016814;;;;;1939.3
2135.0;2084.2;;;;;;;;;;;;;;;;;-1.8883327;0.5378887;1.1978515;;1939.3
2135.0;2084.2;;;;;;;;;;;;;;0.84572893;0.113406785;-0.47102267;;;;;1939.3
2135.0;2084.2;;;;;;;;;;;;;;;;;-1.8921475;0.51118505;1.2131108;;1949.0
2135.0;2084.2;;;;;;;;;;;;;;0.8468276;0.11371197;-0.47193822;;;;;1949.0
2135.0;2084.2;;;;;;;;;;;;;;;;;-1.8730735;0.553148;1.2588885;;1949.0
2135.0;2084.2;;;;;;;;;;;;;;0.8449355;0.112857446;-0.4718772;;;;;1949.0
2135.0;2084.2;;;;;;;;;;;;;;;;;-1.8539995;0.57222205;1.22837;;1958.6
2135.0;2084.2;;;;;;;;;;;;;;0.84591204;0.11175878;-0.4727317;;;;;1958.6
2135.0;2084.2;;;;;;;;;;;;;;;;;-1.7662587;0.5798517;1.1444441;;1958.6
2135.0;2084.2;;;;;;;;;;;;;;0.8438978;0.11004975;-0.47126684;;;;;1958.6
2135.0;2084.2;;;;;;;;;;-1.9226661;-0.13351847;-8.388776;;;;;;;;;
2135.0;2084.2;;;;;;;0.43916136;0.31537828;0.85891294;;;;;;;;;;;;
2135.0;2084.2;;;;;;;;;;-1.8005921;-0.3662221;-8.068331;;;;;;;;;
2135.0;2084.2;;;;;;;0.43836787;0.31446272;0.8593402;;;;;;;;;;;;
2136.0;2085.3;;;;;;;;;;;;;;;;;-1.7090366;0.5226295;1.0757774;;1968.2
2136.0;2085.3;;;;;;;;;;;;;;0.8440809;0.10925627;-0.47322002;;;;;1968.2
2136.0;2085.3;;;;;;;;;;;;;;;;;-1.6022217;0.45777765;1.1024811;;1968.2
2136.0;2085.3;;;;;;;;;;;;;;0.8428602;0.1093173;-0.47053438;;;;;1968.2
2136.0;2085.3;;;;;;;;;;;;;;;;;-1.5182959;0.4463332;0.99185157;;1977.8
2136.0;2085.3;;;;;;;;;;;;;;0.84212774;0.1076693;-0.469924;;;;;1977.8
2136.0;2085.3;;;;;;;;;;;;;;;;;-1.4000366;0.50737023;0.94225895;;1977.8
2136.0;2085.3;;;;;;;;;;;;;;0.8410291;0.1081576;-0.46919155;;;;;1977.8
2136.0;2085.3;;;;;;;;;;;;;;;;;-1.3161107;0.49592578;0.90029603;;1987.5
2136.0;2085.3;;;;;;;;;;;;;;0.84054077;0.10803553;-0.4687643;;;;;1987.5
2136.0;2085.3;;;;;;;;;;;;;;;;;-1.2359996;0.40818506;0.7705924;;1987.5
2136.0;2085.3;;;;;;;;;;;;;;0.8407849;0.10864589;-0.4674215;;;;;1987.5
2136.0;2086.1;;;;;;;;;;;;;;;;;-1.1597034;0.45014802;0.7248146;;1996.9
2136.0;2086.1;;;;;;;;;;;;;;0.84292126;0.11023286;-0.4685812;;;;;1996.9
2136.0;2086.1;;;;;;;;;;;;;;;;;-1.106296;0.51118505;0.71718496;;1996.9
2136.0;2086.1;;;;;;;;;;;;;;0.84505755;0.112979524;-0.46919155;;;;;1996.9
2136.0;2086.1;;;;;;;;;;;;;;;;;-1.0872219;0.5340739;0.67522204;;2006.5
2136.0;2086.1;;;;;;;;;;;;;;0.84560686;0.11450545;-0.46906948;;;;;2006.5
2136.0;2086.1;;;;;;;;;;;;;;;;;-1.0223701;0.59892577;0.6256294;;2006.5
2136.0;2086.1;;;;;;;;;;;;;;0.8449965;0.11828975;-0.46833706;;;;;2006.5
2136.0;2086.1;;;;;;;;;;;;;;;;;-1.0986663;0.6675924;0.59511095;;2016.2
2136.0;2086.1;;;;;;;;;;;;;;0.8436537;0.11816767;-0.46913052;;;;;2016.2
2136.0;2086.1;;;;;;;;;;;;;;;;;-1.1597034;0.65614796;0.57222205;;2016.2
2136.0;2086.1;;;;;;;;;;;;;;0.84377575;0.11859493;-0.4693747;;;;;2016.2
2138.0;2085.6;262143;262143;13168;;;;;;;;;;;;;;;;;;
2138.0;2091.5;;;;;;;;;;;;;4035;;;;;;;;
2138.0;2091.5;;;;;;;;;;;;;3829;;;;;;;;
2138.0;2091.5;;;;;;;;;;;;;3521;;;;;;;;
2138.0;2091.5;;;;;;;;;;;;;3282;;;;;;;;
2138.0;2091.5;;;;;;;;;;;;;3006;;;;;;;;
2138.0;2091.7;;;;-0.42835623;-0.30331424;0.81227505;;;;;;;;;;;;;;;
2138.0;2091.7;;;;-0.42871863;-0.30318454;0.8116914;;;;;;;;;;;;;;;
2138.0;2091.7;;;;-0.42841345;-0.3025284;0.8106004;;;;;;;;;;;;;;;
2138.0;2091.7;;;;-0.428505;-0.3028145;0.80980694;;;;;;;;;;;;;;;
2138.0;2091.7;;;;-0.42856604;-0.30323032;0.8100282;;;;;;;;;;;;;;;
2138.0;2093.6;;;;;;;;;;-1.7242957;-0.59511095;-7.698294;;;;;;;;;
2138.0;2093.6;;;;;;;0.4367809;0.31690422;0.8600116;;;;;;;;;;;;
2138.0;2093.6;;;;;;;;;;-1.6098514;-0.88122195;-7.312998;;;;;;;;;
2138.0;2093.6;;;;;;;0.43531603;0.31482893;0.85995054;;;;;;;;;;;;
2138.0;2099.1;;;;;;;;;;;;;;;;;-1.2817774;0.6637776;0.6408887;;2025.9
2138.0;2099.1;;;;;;;;;;;;;;0.8427381;0.11749626;-0.46919155;;;;;2025.9
2138.0;2099.1;;;;;;;;;;;;;;;;;-1.4000366;0.6637776;0.67903686;;2025.9
2138.0;2099.1;;;;;;;;;;;;;;0.8415174;0.11725211;-0.4695578;;;;;2025.9
2138.0;2099.1;;;;;;;;;;;;;;;;;-1.5869625;0.553148;0.69429606;;2035.5
2138.0;2099.1;;;;;;;;;;;;;;0.83980834;0.117069006;-0.46815392;;;;;2035.5
2138.0;2099.1;;;;;;;;;;;;;;;;;-1.6441847;0.5340739;0.6981109;;2035.5
2138.0;2099.1;;;;;;;;;;;;;;0.8411512;0.11609241;-0.46998504;;;;;2035.5
2138.0;2099.1;;;;;;;;;;;;;;;;;-1.8921475;0.46159247;0.8278146;;2045.2
2138.0;2099.1;;;;;;;;;;;;;;0.840846;0.11719108;-0.46845913;;;;;2045.2
2138.0;2099.1;;;;;;;;;;;;;;;;;-2.0561848;0.4158147;0.8888516;;2045.2
2138.0;2099.1;;;;;;;;;;;;;;0.8402356;0.11609241;-0.4689474;;;;;2045.2
2138.0;2101.6;;;;-0.42869574;-0.30340198;0.8097383;;;;;;;;;;;;;;;
2138.0;2101.6;;;;-0.42941672;-0.30347064;0.8095895;;;;;;;;;;;;;;;
2138.0;2101.6;;;;-0.42979056;-0.30321887;0.8098947;;;;;;;;;;;;;;;
2138.0;2101.6;;;;-0.43061453;-0.30334857;0.80949795;;;;;;;;;;;;;;;
2138.0;2101.6;;;;-0.4307595;-0.30253986;0.80913556;;;;;;;;;;;;;;;
2138.0;2103.0;;;;;;;;;;-1.5640736;-1.106296;-6.8857384;;;;;;;;;
2138.0;2103.0;;;;;;;0.438612;0.31464583;0.8598285;;;;;;;;;;;;
2138.0;2103.0;;;;;;;;;;-1.4915922;-1.3542589;-6.5881834;;;;;;;;;
2138.0;2103.0;;;;;;;0.4365978;0.3120823;0.8582415;;;;;;;;;;;;
2138.0;2105.6;262143;262143;13160;;;;;;;;;;;;;;;;;;
2190.0;2111.7;;;;-0.43048483;-0.30212024;0.8092691;;;;;;;;;;;;;;;
2190.0;2111.7;;;;-0.4303475;-0.3021584;0.8091775;;;;;;;;;;;;;;;
2190.0;2111.7;;;;-0.43053824;-0.30184558;0.80908597;;;;;;;;;;;;;;;
2190.0;2111.7;;;;-0.43054968;-0.30197147;0.8086549;;;;;;;;;;;;;;;
2190.0;2111.7;;;;-0.43124396;-0.3022881;0.808323;;;;;;;;;;;;;;;
2190.0;2112.6;;;;;;;;;;-1.5182959;-1.5945921;-6.3173313;;;;;;;;;
2190.0;2112.6;;;;;;;0.43531603;0.30976287;0.8592181;;;;;;;;;;;;
2190.0;2112.6;;;;;;;;;;-1.453444;-1.7738883;-6.111332;;;;;;;;;
2190.0;2112.6;;;;;;;0.43733025;0.3068331;0.8580584;;;;;;;;;;;;
2190.0;2121.4;;;;-0.43129355;-0.30244067;0.80840313;;;;;;;;;;;;;;;
2190.0;2121.4;;;;-0.431408;-0.30271152;0.8093225;;;;;;;;;;;;;;;
2190.0;2121.4;;;;-0.43220907;-0.3028374;0.8101083;;;;;;;;;;;;;;;
2190.0;2121.4;;;;-0.43328863;-0.30276874;0.8109132;;;;;;;;;;;;;;;
2190.0;2121.4;;;;-0.43439108;-0.3027039;0.81199276;;;;;;;;;;;;;;;
2190.0;2121.8;;;;;;;;;;-1.4496292;-1.9722588;-5.981628;;;;;;;;;
2190.0;2121.8;;;;;;;0.43684193;0.30597857;0.857387;;;;;;;;;;;;
2190.0;2121.8;;;;;;;;;;-1.373333;-2.2164068;-5.787072;;;;;;;;;
2190.0;2121.8;;;;;;;0.4354381;0.30787072;0.8548845;;;;;;;;;;;;
2190.0;2125.4;262143;262143;13155;;;;;;;;;;;;;;;;;;
2190.0;2131.4;;;;;;;;;;;;;2653;;;;;;;;
2190.0;2131.4;;;;;;;;;;;;;2277;;;;;;;;
2190.0;2131.4;;;;;;;;;;;;;1982;;;;;;;;
2190.0;2131.4;;;;;;;;;;;;;1739;;;;;;;;
2190.0;2131.4;;;;;;;;;;;;;1430;;;;;;;;
2192.0;2131.5;;;;;;;;;;-1.5106663;-2.3537402;-5.542924;;;;;;;;;
2192.0;2131.5;;;;;;;0.43549913;0.30927458;0.85476243;;;;;;;;;;;;
2192.0;2131.5;;;;;;;;;;-1.5335552;-2.3041475;-5.4589987;;;;;;;;;
2192.0;2131.5;;;;;;;0.43885615;0.3096408;0.8560442;;;;;;;;;;;;
2192.0;2131.5;;;;-0.4348374;-0.30241016;0.812317;;;;;;;;;;;;;;;
2192.0;2131.5;;;;-0.43519598;-0.30220035;0.81282055;;;;;;;;;;;;;;;
2192.0;2131.5;;;;-0.43458563;-0.30199435;0.8137971;;;;;;;;;;;;;;;
2192.0;2131.5;;;;-0.43450552;-0.30197147;0.81336606;;;;;;;;;;;;;;;
2192.0;2131.5;;;;-0.4344445;-0.30206683;0.81406796;;;;;;;;;;;;;;;
2192.0;2141.1;;;;;;;;;;-1.6136662;-2.3232217;-5.287332;;;;;;;;;
2192.0;2141.1;;;;;;;0.4365978;0.3094577;0.8565325;;;;;;;;;;;;
2192.0;2141.1;;;;;;;;;;-1.6899625;-2.3728142;-5.203406;;;;;;;;;
2192.0;2141.1;;;;;;;0.43372905;0.3094577;0.85830253;;;;;;;;;;;;
2192.0;2141.6;;;;-0.43441015;-0.30219653;0.8149301;;;;;;;;;;;;;;;
2192.0;2141.6;;;;-0.43415838;-0.3029442;0.81554425;;;;;;;;;;;;;;;
2192.0;2141.6;;;;-0.4343453;-0.30331424;0.8163606;;;;;;;;;;;;;;;
2192.0;2141.6;;;;-0.43505102;-0.30398944;0.817608;;;;;;;;;;;;;;;
2192.0;2141.6;;;;-0.43542486;-0.30441287;0.81814206;;;;;;;;;;;;;;;
2193.0;2144.1;;;;;;;;;;;;;;;;;-2.2698143;0.43488875;0.9193701;;2054.7
2193.0;2144.1;;;;;;;;;;;;;;0.8417615;0.11389508;-0.46607867;;;;;2054.7
2193.0;2144.1;;;;;;;;;;;;;;;;;-2.3842587;0.37385175;0.90792567;;2054.7
2193.0;2144.1;;;;;;;;;;;;;;0.8440199;0.11279641;-0.46784875;;;;;2054.7
2193.0;2144.1;;;;;;;;;;;;;;;;;-2.4796288;0.42725915;0.9575182;;2064.2
2193.0;2144.1;;;;;;;;;;;;;;0.844203;0.112308115;-0.46821496;;;;;2064.2
2193.0;2144.1;;;;;;;;;;;;;;;;;-2.4910734;0.35477766;1.0223701;;2064.2
2193.0;2144.1;;;;;;;;;;;;;;0.84560686;0.110415965;-0.46931365;;;;;2064.2
2193.0;2144.1;;;;;;;;;;;;;;;;;-2.5292215;0.3662221;1.0490738;;2073.8
2193.0;2144.1;;;;;;;;;;;;;;0.84542376;0.10791345;-0.46949676;;;;;2073.8
2193.0;2144.1;;;;;;;;;;;;;;;;;-2.4834437;0.32425916;1.064333;;2073.8
2193.0;2144.1;;;;;;;;;;;;;;0.8440809;0.10742515;-0.4689474;;;;;2073.8
2193.0;2145.6;262143;262143;13158;;;;;;;;;;;;;;;;;;
2193.0;2150.6;;;;;;;;;;-1.7471846;-2.3461106;-5.096591;;;;;;;;;
2193.0;2150.6;;;;;;;0.43556017;0.31055635;0.859035;;;;;;;;;;;;
2193.0;2150.6;;;;;;;;;;-1.8196661;-2.277444;-5.0393686;;;;;;;;;
2193.0;2150.6;;;;;;;0.4361095;0.31134984;0.8597064;;;;;;;;;;;;
2193.0;2151.6;;;;-0.43573385;-0.3043938;0.81855404;;;;;;;;;;;;;;;
2193.0;2151.6;;;;-0.43599325;-0.30393222;0.8185884;;;;;;;;;;;;;;;
2193.0;2151.6;;;;-0.4363137;-0.30310443;0.8189813;;;;;;;;;;;;;;;
2193.0;2151.6;;;;-0.43629843;-0.30234912;0.819214;;;;;;;;;;;;;;;
2193.0;2151.6;;;;-0.43596655;-0.30141833;0.8192102;;;;;;;;;;;;;;;
2250.0;2160.1;;;;;;;;;;-1.8730735;-2.334666;-4.932554;;;;;;;;;
2250.0;2160.1;;;;;;;0.43556017;0.31238747;0.85836357;;;;;;;;;;;;
2250.0;2160.1;;;;;;;;;;-1.9379253;-2.3613698;-4.642628;;;;;;;;;
2250.0;2160.1;;;;;;;0.43275246;0.3128147;0.85927916;;;;;;;;;;;;
2250.0;2161.6;;;;-0.4359246;-0.30067828;0.8190347;;;;;;;;;;;;;;;
2250.0;2161.6;;;;-0.43660742;-0.29994586;0.81910336;;;;;;;;;;;;;;;
2250.0;2161.6;;;;-0.43749624;-0.29911807;0.8196145;;;;;;;;;;;;;;;
2250.0;2161.6;;;;-0.4380265;-0.2985802;0.8196794;;;;;;;;;;;;;;;
2250.0;2161.6;;;;-0.43827444;-0.2982178;0.81995404;;;;;;;;;;;;;;;
2250.0;2165.7;262143;262143;13154;;;;;;;;;;;;;;;;;;
2250.0;2169.7;;;;;;;;;;-2.0485551;-2.3804438;-4.4099245;;;;;;;;;
2250.0;2169.7;;;;;;;0.43092135;0.31373027;0.8567156;;;;;;;;;;;;
2250.0;2169.7;;;;;;;;;;-2.1401105;-2.3270364;-4.2878504;;;;;;;;;
2250.0;2169.7;;;;;;;0.43354595;0.31531724;0.85708183;;;;;;;;;;;;
2250.0;2171.6;;;;;;;;;;;;;1002;;;;;;;;
2250.0;2171.6;;;;;;;;;;;;;355;;;;;;;;
2250.0;2171.6;;;;;;;;;;;;;-445;;;;;;;;
2250.0;2171.6;;;;;;;;;;;;;-1207;;;;;;;;
2250.0;2171.6;;;;;;;;;;;;;-1742;;;;;;;;
2250.0;2171.6;;;;-0.4383698;-0.2974663;0.8199388;;;;;;;;;;;;;;;
2250.0;2171.6;;;;-0.43842703;-0.29728702;0.8204118;;;;;;;;;;;;;;;
2250.0;2171.6;;;;-0.43819052;-0.2968941;0.8203012;;;;;;;;;;;;;;;
2250.0;2171.6;;;;-0.43778998;-0.29654697;0.820305;;;;;;;;;;;;;;;
2250.0;2171.6;;;;-0.43772513;-0.2967377;0.8195993;;;;;;;;;;;;;;;
2252.0;2179.0;;;;;;;;;;-2.2431104;-2.2659993;-4.203925;;;;;;;;;
2252.0;2179.0;;;;;;;0.4333018;0.31598866;0.8562273;;;;;;;;;;;;
2252.0;2179.0;;;;;;;;;;-2.3728142;-2.166814;-4.142888;;;;;;;;;
2252.0;2179.0;;;;;;;0.42976165;0.3145848;0.85854673;;;;;;;;;;;;
2252.0;2181.5;;;;-0.4380532;-0.2967911;0.8192102;;;;;;;;;;;;;;;
2252.0;2181.5;;;;-0.43807226;-0.2975197;0.81956494;;;;;;;;;;;;;;;
2252.0;2181.5;;;;-0.43833548;-0.29820254;0.8201753;;;;;;;;;;;;;;;
2252.0;2181.5;;;;-0.43830115;-0.29906467;0.8209344;;;;;;;;;;;;;;;
2252.0;2181.5;;;;-0.43853003;-0.29984286;0.82130826;;;;;;;;;;;;;;;
2252.0;2185.7;262143;262143;13143;;;;;;;;;;;;;;;;;;
2252.0;2188.6;;;;;;;;;;-2.498703;-2.1553698;-3.9674063;;;;;;;;;
2252.0;2188.6;;;;;;;0.4297006;0.3120823;0.8579363;;;;;;;;;;;;
2252.0;2188.6;;;;;;;;;;-2.5521104;-2.1324809;-3.8186285;;;;;;;;;
2252.0;2188.6;;;;;;;0.4293344;0.31311992;0.85799736;;;;;;;;;;;;
2252.0;2191.6;;;;-0.4391175;-0.30053714;0.8219186;;;;;;;;;;;;;;;
2252.0;2191.6;;;;-0.43968588;-0.30096057;0.82338345;;;;;;;;;;;;;;;
2252.0;2191.6;;;;-0.44017798;-0.30059436;0.8252374;;;;;;;;;;;;;;;
2252.0;2191.6;;;;-0.44060522;-0.30035022;0.8262788;;;;;;;;;;;;;;;
2252.0;2191.6;;;;-0.440857;-0.3002167;0.8270799;;;;;;;;;;;;;;;
2252.0;2198.3;;;;;;;;;;-2.6589253;-2.1172216;-3.707999;;;;;;;;;
2252.0;2198.3;;;;;;;0.42957854;0.3108005;0.8579363;;;;;;;;;;;;
2252.0;2198.3;;;;;;;;;;-2.7199624;-1.9913328;-3.5935545;;;;;;;;;
2252.0;2198.3;;;;;;;0.43122655;0.31043428;0.85763115;;;;;;;;;;;;
2255.0;2201.7;;;;-0.43970877;-0.3002167;0.8273164;;;;;;;;;;;;;;;
2255.0;2201.7;;;;-0.4388085;-0.30063632;0.82789624;;;;;;;;;;;;;;;
2255.0;2201.7;;;;-0.4383698;-0.30100253;0.8288499;;;;;;;;;;;;;;;
2255.0;2201.7;;;;-0.43799978;-0.3017731;0.82960904;;;;;;;;;;;;;;;
2255.0;2201.7;;;;-0.43795782;-0.30252078;0.8309442;;;;;;;;;;;;;;;
2255.0;2204.7;;;;;;;;;;;;;;;;;-2.4796288;0.29755548;1.0376294;;2083.5
2255.0;2204.7;;;;;;;;;;;;;;0.84310436;0.108401746;-0.4704123;;;;;2083.5
2255.0;2204.7;;;;;;;;;;;;;;;;;-2.3880734;0.3929258;1.0490738;;2083.5
2255.0;2204.7;;;;;;;;;;;;;;0.84328747;0.10730308;-0.4697409;;;;;2083.5
2255.0;2204.7;;;;;;;;;;;;;;;;;-2.3499253;0.3852962;1.064333;;2093.2
2255.0;2204.7;;;;;;;;;;;;;;0.84432507;0.10779138;-0.47016814;;;;;2093.2
2255.0;2204.7;;;;;;;;;;;;;;;;;-2.3308513;0.33951843;1.0299997;;2093.2
2255.0;2204.7;;;;;;;;;;;;;;0.8431654;0.10754723;-0.47004607;;;;;2093.2
2255.0;2204.7;;;;;;;;;;;;;;;;;-2.2431104;0.38911098;1.0795922;;2102.7
2255.0;2204.7;;;;;;;;;;;;;;0.84426403;0.10681479;-0.471572;;;;;2102.7
2255.0;2204.7;;;;;;;;;;;;;;;;;-2.1820734;0.42725915;1.0299997;;2102.7
2255.0;2204.7;;;;;;;;;;;;;;0.8455458;0.10779138;-0.4707175;;;;;2102.7
2256.0;2205.8;;;;;;;;;;;;;;;;;-2.2278512;0.4158147;1.0528886;;2112.4
2256.0;2205.8;;;;;;;;;;;;;;0.8459731;0.10699789;-0.47047335;;;;;2112.4
2256.0;2205.8;;;;;;;;;;;;;;;;;-2.1439252;0.40055543;0.9575182;;2112.4
2256.0;2205.8;;;;;;;;;;;;;;0.8447524;0.10577715;-0.4701071;;;;;2112.4
2256.0;2205.8;;;;;;;;;;;;;;;;;-1.9951477;0.46922207;0.96514785;;2122.0
2256.0;2205.8;;;;;;;;;;;;;;0.8467666;0.107608266;-0.47053438;;;;;2122.0
2256.0;2205.8;;;;;;;;;;;;;;;;;-1.9379253;0.45777765;0.9575182;;2122.0
2256.0;2205.8;;;;;;;;;;;;;;0.8445692;0.10559405;-0.46925262;;;;;2122.0
2256.0;2205.8;;;;;;;;;;;;;;;;;-1.8692588;0.43870357;0.87740713;;2131.6
2256.0;2205.8;;;;;;;;;;;;;;0.8455458;0.10480056;-0.47029024;;;;;2131.6
2256.0;2205.8;;;;;;;;;;;;;;;;;-1.6251106;0.40055543;0.8125553;;2131.6
2256.0;2205.8;;;;;;;;;;;;;;0.84572893;0.1060213;-0.47047335;;;;;2131.6
2256.0;2205.7;262143;262143;13150;;;;;;;;;;;;;;;;;;
2256.0;2207.7;;;;;;;;;;-2.8077028;-1.9646292;-3.4485915;;;;;;;;;
2256.0;2207.7;;;;;;;0.42683187;0.31086153;0.8567156;;;;;;;;;;;;
2256.0;2207.7;;;;;;;;;;-2.8954437;-1.8883327;-3.3150733;;;;;;;;;
2256.0;2207.7;;;;;;;0.4268929;0.3098239;0.8550676;;;;;;;;;;;;
2256.0;2211.6;;;;-0.4381867;-0.30303577;0.8320428;;;;;;;;;;;;;;;
2256.0;2211.6;;;;-0.43925482;-0.30358508;0.8333856;;;;;;;;;;;;;;;
2256.0;2211.6;;;;-0.4396668;-0.3033295;0.8339807;;;;;;;;;;;;;;;
2256.0;2211.6;;;;-0.44018942;-0.3031731;0.8340837;;;;;;;;;;;;;;;
2256.0;2211.6;;;;-0.44021612;-0.3022118;0.83355725;;;;;;;;;;;;;;;
2309.0;2211.6;;;;;;;;;;;;;-2035;;;;;;;;
2309.0;2211.6;;;;;;;;;;;;;-2329;;;;;;;;
2309.0;2211.6;;;;;;;;;;;;;-2741;;;;;;;;
2309.0;2211.6;;;;;;;;;;;;;-3146;;;;;;;;
2309.0;2211.6;;;;;;;;;;;;;-3329;;;;;;;;
2309.0;2217.3;;;;;;;;;;-2.967925;-1.8158513;-3.131962;;;;;;;;;
2309.0;2217.3;;;;;;;0.42921233;0.30976287;0.8559221;;;;;;;;;;;;
2309.0;2217.3;;;;;;;;;;-3.07474;-1.7319254;-3.0671103;;;;;;;;;
2309.0;2217.3;;;;;;;0.42664877;0.31073946;0.8559221;;;;;;;;;;;;
2309.0;2221.7;;;;-0.44063956;-0.30134967;0.83202755;;;;;;;;;;;;;;;
2309.0;2221.7;;;;-0.44038397;-0.3003731;0.830948;;;;;;;;;;;;;;;
2309.0;2221.7;;;;-0.43886954;-0.29975513;0.83003247;;;;;;;;;;;;;;;
2309.0;2221.7;;;;-0.43703848;-0.2994385;0.8294107;;;;;;;;;;;;;;;
2309.0;2221.7;;;;-0.43575674;-0.29963687;0.82880414;;;;;;;;;;;;;;;
2309.0;2225.9;262143;262143;13158;;;;;;;;;;;;;;;;;;
2309.0;2226.9;;;;;;;;;;-3.234962;-1.6022217;-2.9869993;;;;;;;;;
2309.0;2226.9;;;;;;;0.42841884;0.31055635;0.8562273;;;;;;;;;;;;
2309.0;2226.9;;;;;;;;;;-3.3417768;-1.5182959;-2.822962;;;;;;;;;
2309.0;2226.9;;;;;;;0.42823574;0.3111057;0.85842466;;;;;;;;;;;;
2309.0;2231.7;;;;-0.43531042;-0.30017093;0.82771313;;;;;;;;;;;;;;;
2309.0;2231.7;;;;-0.4351197;-0.30102542;0.82694256;;;;;;;;;;;;;;;
2309.0;2231.7;;;;-0.4351235;-0.3014908;0.8263856;;;;;;;;;;;;;;;
2309.0;2231.7;;;;-0.4351731;-0.30231097;0.82621396;;;;;;;;;;;;;;;
2309.0;2231.7;;;;-0.43548208;-0.30266193;0.8256227;;;;;;;;;;;;;;;
2314.0;2235.9;;;;;;;;;;-3.4371471;-1.4458144;-2.6932585;;;;;;;;;
2314.0;2235.9;;;;;;;0.42719808;0.31189916;0.8613544;;;;;;;;;;;;
2314.0;2235.9;;;;;;;;;;-3.5325174;-1.33137;-2.6169622;;;;;;;;;
2314.0;2235.9;;;;;;;0.42658773;0.31019014;0.860622;;;;;;;;;;;;
2314.0;2241.3;;;;-0.43536764;-0.3027077;0.82550824;;;;;;;;;;;;;;;
2314.0;2241.3;;;;-0.43492132;-0.30251697;0.8258897;;;;;;;;;;;;;;;
2314.0;2241.3;;;;-0.43495947;-0.30236056;0.8259202;;;;;;;;;;;;;;;
2314.0;2241.3;;;;-0.43428046;-0.3021622;0.82668316;;;;;;;;;;;;;;;
2314.0;2241.3;;;;-0.4337235;-0.30153278;0.8268815;;;;;;;;;;;;;;;
2314.0;2245.6;;;;;;;;;;-3.711814;-1.4381847;-2.498703;;;;;;;;;
2314.0;2245.6;;;;;;;0.4267098;0.31220436;0.8608661;;;;;;;;;;;;
2314.0;2245.6;;;;;;;;;;-3.8224432;-1.53737;-2.4452956;;;;;;;;;
2314.0;2245.6;;;;;;;0.4276864;0.31238747;0.86355174;;;;;;;;;;;;
2314.0;2245.6;262143;262143;13151;;;;;;;;;;;;;;;;;;
2314.0;2251.4;;;;-0.4331742;-0.30141833;0.8270265;;;;;;;;;;;;;;;
2314.0;2251.4;;;;-0.43256384;-0.301487;0.8273736;;;;;;;;;;;;;;;
2314.0;2251.4;;;;-0.43122107;-0.30181888;0.8282205;;;;;;;;;;;;;;;
2314.0;2251.4;;;;-0.42975622;-0.3022423;0.8287889;;;;;;;;;;;;;;;
2314.0;2251.4;;;;-0.42862326;-0.30272678;0.82927716;;;;;;;;;;;;;;;
2314.0;2251.6;;;;;;;;;;;;;-3215;;;;;;;;
2314.0;2251.6;;;;;;;;;;;;;-2963;;;;;;;;
2314.0;2251.6;;;;;;;;;;;;;-2473;;;;;;;;
2314.0;2251.6;;;;;;;;;;;;;-1419;;;;;;;;
2314.0;2251.6;;;;;;;;;;;;;196;;;;;;;;
2316.0;2255.2;;;;;;;;;;-3.9063692;-1.5717032;-2.2850735;;;;;;;;;
2316.0;2255.2;;;;;;;0.42872402;0.31336406;0.86391795;;;;;;;;;;;;
2316.0;2255.2;;;;;;;;;;-4.0284433;-1.6327403;-2.2431104;;;;;;;;;
2316.0;2255.2;;;;;;;0.43061617;0.31311992;0.8651387;;;;;;;;;;;;
2316.0;2261.5;;;;-0.42752463;-0.3029633;0.8301736;;;;;;;;;;;;;;;
2316.0;2261.5;;;;-0.42704016;-0.3035126;0.83026516;;;;;;;;;;;;;;;
2316.0;2261.5;;;;-0.42697912;-0.3040314;0.83010113;;;;;;;;;;;;;;;
2316.0;2261.5;;;;-0.4277497;-0.30464938;0.8295518;;;;;;;;;;;;;;;
2316.0;2261.5;;;;-0.42804343;-0.30426028;0.8294755;;;;;;;;;;;;;;;
2316.0;2264.8;;;;;;;;;;-4.1047397;-1.6708884;-2.1095922;;;;;;;;;
2316.0;2264.8;;;;;;;0.42939544;0.3140965;0.8662374;;;;;;;;;;;;
2316.0;2264.8;;;;;;;;;;-4.2115545;-1.7777032;-1.9341105;;;;;;;;;
2316.0;2264.8;;;;;;;0.42994475;0.31391338;0.863979;;;;;;;;;;;;
2316.0;2265.9;262143;262143;13143;;;;;;;;;;;;;;;;;;
2316.0;2271.6;;;;-0.42766196;-0.30454257;0.82888806;;;;;;;;;;;;;;;
2316.0;2271.6;;;;-0.42737585;-0.30468372;0.8278619;;;;;;;;;;;;;;;
2316.0;2271.6;;;;-0.4266625;-0.30471805;0.82722104;;;;;;;;;;;;;;;
2316.0;2271.6;;;;-0.4260941;-0.3050423;0.8268701;;;;;;;;;;;;;;;
2316.0;2271.6;;;;-0.42638785;-0.30541232;0.82686627;;;;;;;;;;;;;;;
2316.0;2274.4;;;;;;;;;;-4.3641467;-1.9150364;-1.6937773;;;;;;;;;
2316.0;2274.4;;;;;;;0.4278695;0.313242;0.86208683;;;;;;;;;;;;
2316.0;2274.4;;;;;;;;;;-4.4557023;-1.9112216;-1.575518;;;;;;;;;
2316.0;2274.4;;;;;;;0.42774743;0.31177709;0.86269724;;;;;;;;;;;;
2317.0;2279.4;;;;;;;;;;;;;;;;;-1.5945921;0.48066652;0.7667776;;2141.3
2317.0;2279.4;;;;;;;;;;;;;;0.8456679;0.105960265;-0.4704123;;;;;2141.3
2317.0;2279.4;;;;;;;;;;;;;;;;;-1.495407;0.5302591;0.79729605;;2141.3
2317.0;2279.4;;;;;;;;;;;;;;0.8451186;0.10541093;-0.47065645;;;;;2141.3
2317.0;2279.4;;;;;;;;;;;;;;;;;-1.495407;0.5302591;0.75914794;;2150.9
2317.0;2279.4;;;;;;;;;;;;;;0.8460341;0.105838194;-0.4707175;;;;;2150.9
2317.0;2279.4;;;;;;;;;;;;;;;;;-1.4458144;0.5417035;0.6828517;;2150.9
2317.0;2279.4;;;;;;;;;;;;;;0.8461562;0.106631674;-0.47065645;;;;;2150.9
2317.0;2279.4;;;;;;;;;;;;;;;;;-1.4076662;0.5798517;0.63325906;;2160.6
2317.0;2279.4;;;;;;;;;;;;;;0.8454848;0.107608266;-0.46906948;;;;;2160.6
2317.0;2279.4;;;;;;;;;;;;;;;;;-1.4381847;0.5378887;0.5836665;;2160.6
2317.0;2279.4;;;;;;;;;;;;;;0.8443861;0.10742515;-0.46961883;;;;;2160.6
2317.0;2280.2;;;;;;;;;;;;;;;;;-1.4458144;0.5607776;0.48448133;;2170.1
2317.0;2280.2;;;;;;;;;;;;;;0.8440199;0.10791345;-0.46998504;;;;;2170.1
2317.0;2280.2;;;;;;;;;;;;;;;;;-1.4343699;0.54551834;0.37385175;;2170.1
2317.0;2280.2;;;;;;;;;;;;;;0.84249395;0.107852414;-0.46949676;;;;;2170.1
