patientId;holterMac;flexMac;;;;;;;;;;;;;;;;;;;;
;CA:F3:0B:1E:33:78;D3:4A:5C:52:80:78;;;;;;;;;;;;;;;;;;;;
receivedTimeStamp;timeStamp;red;ir;green;adxl_accX;adxl_accY;adxl_accZ;lsm_accelX;lsm_accelY;lsm_accelZ;lsm_gyroX;lsm_gyroY;lsm_gyroZ;ecg;flex_lsm_accelX;flex_lsm_accelY;flex_lsm_accelZ;flex_lsm_gyroX;flex_lsm_gyroY;flex_lsm_gyroZ;flex_cmd;flexTimeStamp
280.0;221.1;;;;;;;;;;;;;;;;;;;;17;0.1
280.0;221.1;;;;;;;;;;;;;;;;;13.962218;1.9188513;1.0299997;;127.6
280.0;221.1;;;;;;;;;;;;;;-0.2169866;0.9917295;-0.2963347;;;;;127.6
280.0;221.1;;;;;;;;;;;;;;;;;-4.7074804;-15.64455;-7.442702;;127.6
280.0;221.1;;;;;;;;;;;;;;-0.2229072;1.0021669;-0.30933562;;;;;127.6
280.0;221.1;;;;;;;;;;;;;;;;;-63.680687;-83.65505;-63.84854;;137.2
280.0;221.1;;;;;;;;;;;;;;-0.22461623;0.9805597;-0.30762658;;;;;137.2
280.0;221.1;;;;;;;;;;;;;;;;;-122.21519;-124.988556;-121.42933;;137.2
280.0;221.1;;;;;;;;;;;;;;-0.23450422;0.96499527;-0.30445266;;;;;137.2
339.0;221.9;;;;;;;;;;;;;;;;;-61.040833;-122.42881;-94.15342;;146.9
339.0;221.9;;;;;;;;;;;;;;-0.2491531;0.9609668;-0.29786065;;;;;146.9
339.0;221.9;;;;;;;;;;;;;;;;;2.1210363;-112.125;-74.78561;;146.9
339.0;221.9;;;;;;;;;;;;;;-0.2707602;0.95956296;-0.2906583;;;;;146.9
339.0;221.9;;;;;;;;;;;;;;;;;-2.9641104;-69.02142;-83.41472;;156.5
339.0;221.9;;;;;;;;;;;;;;-0.29340494;0.95956296;-0.27692497;;;;;156.5
339.0;221.9;;;;;;;;;;;;;;;;;-10.498367;31.20899;-69.09772;;156.5
339.0;221.9;;;;;;;;;;;;;;-0.3200171;0.9540696;-0.26502272;;;;;156.5
339.0;221.9;;;;;;;;;;;;;;;;;-11.421552;43.79788;-72.45857;;166.1
339.0;221.9;;;;;;;;;;;;;;-0.35120702;0.94485307;-0.25086215;;;;;166.1
339.0;221.9;;;;;;;;;;;;;;;;;-11.154515;48.84869;-77.24235;;166.1
339.0;221.9;;;;;;;;;;;;;;-0.3827021;0.94204533;-0.235786;;;;;166.1
339.0;274.3;;;;;;;;;;;;;;;;;-10.364849;53.30058;-80.980865;;175.8
339.0;274.3;;;;;;;;;;;;;;-0.40565202;0.9409467;-0.21558276;;;;;175.8
339.0;274.3;;;;;;;;;;;;;;;;;-9.9642935;57.214577;-85.27253;;175.8
339.0;274.3;;;;;;;;;;;;;;-0.45350504;0.9425947;-0.18366039;;;;;175.8
339.0;274.3;;;;;;;;;;;;;;;;;-10.055849;59.408096;-89.14456;;185.5
339.0;274.3;;;;;;;;;;;;;;-0.50917083;0.9162877;-0.15509507;;;;;185.5
339.0;274.3;;;;;;;;;;;;;;;;;-10.670034;59.80865;-92.08197;;185.5
339.0;274.3;;;;;;;;;;;;;;-0.5186316;0.8717307;-0.13782158;;;;;185.5
339.0;274.3;;;;;;;;;;;;;;;;;-10.010071;59.42717;-93.52779;;195.1
339.0;274.3;;;;;;;;;;;;;;-0.47065645;0.8465834;-0.12817775;;;;;195.1
339.0;274.3;;;;;;;;;;;;;;;;;-8.48796;59.125797;-94.08856;;195.1
339.0;274.3;;;;;;;;;;;;;;-0.48432875;0.83333844;-0.09814753;;;;;195.1
404.0;281.4;;;;;;;;;;;;;;;;;-8.2819605;57.9165;-94.98886;;204.8
404.0;281.4;;;;;;;;;;;;;;-0.49427778;0.79787594;-0.06591998;;;;;204.8
404.0;281.4;;;;;;;;;;;;;;;;;-8.156072;56.04724;-96.49571;;204.8
404.0;281.4;;;;;;;;;;;;;;-0.5086825;0.77480394;-0.049867246;;;;;204.8
404.0;281.4;;;;;;;;;;;;;;;;;0.3624073;52.62917;-98.68923;;214.4
404.0;281.4;;;;;;;;;;;;;;-0.49464402;0.79964596;-0.07953124;;;;;214.4
404.0;281.4;;;;;;;;;;;;;;;;;14.328441;48.566395;-100.13504;;214.4
404.0;281.4;;;;;;;;;;;;;;-0.43403423;0.86214787;-0.10846278;;;;;214.4
404.0;281.4;;;;;;;;;;;;;;;;;21.526995;46.47969;-101.523636;;224.1
404.0;281.4;;;;;;;;;;;;;;-0.38496047;0.8806421;-0.079348125;;;;;224.1
404.0;281.4;;;;;;;;;;;;;;;;;22.938475;45.255135;-103.33567;;224.1
404.0;281.4;;;;;;;;;;;;;;-0.34546953;0.8649556;-0.04565569;;;;;224.1
404.0;334.1;;;;;;;;;;;;;;;;;25.349436;43.488876;-104.953156;;233.7
404.0;334.1;;;;;;;;;;;;;;-0.31092256;0.88430434;-0.02642903;;;;;233.7
404.0;334.1;;;;;;;;;;;;;;;;;27.024141;39.5558;-106.15482;;233.7
404.0;334.1;;;;;;;;;;;;;;-0.26746422;0.918424;-0.022461623;;;;;233.7
404.0;334.1;;;;;;;;;;;;;;;;;28.378399;34.78347;-106.73467;;243.4
404.0;334.1;;;;;;;;;;;;;;-0.2108829;0.9577929;-0.021851253;;;;;243.4
404.0;334.1;;;;;;;;;;;;;;;;;30.335398;28.813288;-106.72704;;243.4
404.0;334.1;;;;;;;;;;;;;;-0.1556444;0.99148536;-0.024719993;;;;;243.4
404.0;334.1;;;;;;;;;;;;;;;;;32.227547;21.320993;-105.92212;;253.0
404.0;334.1;;;;;;;;;;;;;;-0.10748619;1.0197455;-0.033326212;;;;;253.0
404.0;334.1;;;;;;;;;;;;;;;;;35.09247;12.855922;-104.25123;;253.0
404.0;334.1;;;;;;;;;;;;;;-0.050355542;1.0538652;-0.043397322;;;;;253.0
464.0;335.0;;;;;;;;;;;;;;;;;37.507248;2.643666;-102.14163;;262.7
464.0;335.0;;;;;;;;;;;;;;-0.0054933317;1.094943;-0.047853023;;;;;262.7
464.0;335.0;;;;;;;;;;;;;;;;;38.83099;-7.904294;-99.37208;;262.7
464.0;335.0;;;;;;;;;;;;;;0.06494339;1.1272317;-0.0839259;;;;;262.7
464.0;335.0;;;;;;;;;;;;;;;;;40.68117;-16.6097;-94.68749;;272.2
464.0;335.0;;;;;;;;;;;;;;0.14087345;1.1714225;-0.11059908;;;;;272.2
464.0;335.0;;;;;;;;;;;;;;;;;39.891506;-25.421919;-90.693375;;272.2
464.0;335.0;;;;;;;;;;;;;;0.18237862;1.1911985;-0.12402722;;;;;272.2
464.0;335.0;;;;;;;;;;;;;;;;;38.00699;-33.715324;-85.989716;;281.9
464.0;335.0;;;;;;;;;;;;;;0.25086215;1.2344737;-0.15649892;;;;;281.9
464.0;335.0;;;;;;;;;;;;;;;;;37.915436;-39.48332;-79.85168;;281.9
464.0;335.0;;;;;;;;;;;;;;0.29944763;1.2532121;-0.19428083;;;;;281.9
464.0;402.9;;;;;;;;;;;;;;;;;40.143284;-45.701466;-73.51146;;291.5
464.0;402.9;;;;;;;;;;;;;;0.33845028;1.2647481;-0.22534868;;;;;291.5
464.0;402.9;;;;;;;;;;;;;;;;;38.701286;-49.18058;-67.88079;;291.5
464.0;402.9;;;;;;;;;;;;;;0.35853145;1.1824092;-0.26416823;;;;;291.5
464.0;402.9;;;;;;;;;;;;;;;;;39.27732;-49.405655;-65.4355;;301.2
464.0;402.9;;;;;;;;;;;;;;0.37403485;1.1839961;-0.30085146;;;;;301.2
464.0;402.9;;;;;;;;;;;;;;;;;46.64754;-45.976135;-61.960205;;301.2
464.0;402.9;;;;;;;;;;;;;;0.3772698;1.1812494;-0.33375043;;;;;301.2
464.0;402.9;;;;;;;;;;;;;;;;;49.974056;-39.6321;-59.965054;;310.8
464.0;402.9;;;;;;;;;;;;;;0.37647635;1.1945555;-0.3651845;;;;;310.8
464.0;402.9;;;;;;;;;;;;;;;;;53.212837;-29.560991;-58.99228;;310.8
464.0;402.9;;;;;;;;;;;;;;0.34357738;1.1450545;-0.38227484;;;;;310.8
583.0;403.7;;;;;;;;;;;;;;;;;53.08695;-15.858181;-62.90628;;320.4
583.0;403.7;;;;;;;;;;;;;;0.29798272;1.1186254;-0.3700064;;;;;320.4
583.0;403.7;;;;;;;;;;;;;;;;;58.732872;-0.43107393;-65.50798;;320.4
583.0;403.7;;;;;;;;;;;;;;0.25330362;1.168981;-0.34931487;;;;;320.4
583.0;403.7;;;;;;;;;;;;;;;;;63.066498;14.355144;-67.24372;;330.0
583.0;403.7;;;;;;;;;;;;;;0.1953795;1.2212287;-0.32563248;;;;;330.0
583.0;403.7;;;;;;;;;;;;;;;;;63.226723;27.214882;-70.15823;;330.0
583.0;403.7;;;;;;;;;;;;;;0.13806574;1.2472304;-0.31336406;;;;;330.0
583.0;403.7;;;;;;;;;;;;;;;;;64.57717;36.996063;-74.32401;;339.7
583.0;403.7;;;;;;;;;;;;;;0.085329756;1.2354503;-0.31250954;;;;;339.7
583.0;403.7;;;;;;;;;;;;;;;;;65.71398;47.040466;-78.65001;;339.7
583.0;403.7;;;;;;;;;;;;;;0.043092135;1.2016358;-0.328135;;;;;339.7
583.0;462.4;;;;;;;;;;;;;;;;;70.10864;55.11261;-80.26368;;349.4
583.0;462.4;;;;;;;;;;;;;;0.012451552;1.2125614;-0.3518784;;;;;349.4
583.0;462.4;;;;;;;;;;;;;;;;;72.09616;61.422314;-80.94653;;349.4
583.0;462.4;;;;;;;;;;;;;;-0.006775109;1.200354;-0.37403485;;;;;349.4
583.0;462.4;;;;;;;;;;;;;;;;;70.29557;66.20228;-81.72094;;359.1
583.0;462.4;;;;;;;;;;;;;;-0.020630512;1.1598254;-0.37836847;;;;;359.1
583.0;462.4;;;;;;;;;;;;;;;;;70.20783;69.30753;-80.26368;;359.1
583.0;462.4;;;;;;;;;;;;;;0.026306955;1.1308328;-0.3925901;;;;;359.1
583.0;462.4;;;;;;;;;;;;;;;;;70.39475;71.67654;-78.35627;;368.8
583.0;462.4;;;;;;;;;;;;;;-0.1262856;1.1535386;-0.33857235;;;;;368.8
583.0;462.4;;;;;;;;;;;;;;;;;60.54872;68.449196;-80.95035;;368.8
583.0;462.4;;;;;;;;;;;;;;-0.110965304;1.1442;-0.32575458;;;;;368.8
585.0;463.2;;;;;;;;;;;;;;;;;47.135838;65.7712;-80.153046;;378.3
585.0;463.2;;;;;;;;;;;;;;-0.095156714;1.078402;-0.35389262;;;;;378.3
585.0;463.2;;;;;;;;;;;;;;;;;47.29606;58.08817;-77.73446;;378.3
585.0;463.2;;;;;;;;;;;;;;-0.08905301;1.1322978;-0.3800775;;;;;378.3
585.0;463.2;;;;;;;;;;;;;;;;;42.22999;49.05469;-74.522385;;388.0
585.0;463.2;;;;;;;;;;;;;;-0.076662496;1.1569567;-0.36579487;;;;;388.0
585.0;463.2;;;;;;;;;;;;;;;;;34.18836;40.864285;-70.82583;;388.0
585.0;463.2;;;;;;;;;;;;;;-0.068300426;1.1302224;-0.32941678;;;;;388.0
585.0;463.2;;;;;;;;;;;;;;;;;29.633474;33.398697;-66.675316;;397.7
585.0;463.2;;;;;;;;;;;;;;-0.06372265;1.1097751;-0.29212317;;;;;397.7
585.0;463.2;;;;;;;;;;;;;;;;;25.078585;25.593584;-61.456646;;397.7
585.0;463.2;;;;;;;;;;;;;;-0.070192575;1.1001313;-0.2553789;;;;;397.7
585.0;515.3;;;;;;;;;;;;;;;;;19.417402;17.105623;-55.654316;;407.4
585.0;515.3;;;;;;;;;;;;;;-0.056703392;1.0850551;-0.20868556;;;;;407.4
585.0;515.3;;;;;;;;;;;;;;;;;15.102847;8.030183;-49.638355;;407.4
585.0;515.3;;;;;;;;;;;;;;-0.051515244;1.0675985;-0.15948974;;;;;407.4
585.0;515.3;;;;;;;;;;;;;;;;;12.134923;-0.25559253;-43.889435;;417.0
585.0;515.3;;;;;;;;;;;;;;-0.042054508;1.0327463;-0.11389508;;;;;417.0
585.0;515.3;;;;;;;;;;;;;;;;;11.67333;-8.30485;-38.659325;;417.0
585.0;515.3;;;;;;;;;;;;;;-0.024475845;1.0193793;-0.06335643;;;;;417.0
585.0;515.3;;;;;;;;;;;;;;;;;12.546922;-15.747551;-33.913692;;426.6
585.0;515.3;;;;;;;;;;;;;;-0.03485214;1.0131534;-0.010864589;;;;;426.6
585.0;515.3;;;;;;;;;;;;;;;;;13.42433;-23.113956;-29.354992;;426.6
585.0;515.3;;;;;;;;;;;;;;-0.040284432;1.0198675;0.03234962;;;;;426.6
641.0;516.5;;;;;;;;;;;;;;;;;15.022736;-29.961546;-24.735252;;436.2
641.0;516.5;;;;;;;;;;;;;;-0.048219245;1.0223091;0.07074191;;;;;436.2
641.0;516.5;;;;;;;;;;;;;;;;;16.19007;-36.22547;-20.46266;;436.2
641.0;516.5;;;;;;;;;;;;;;-0.04382458;0.99038666;0.09643849;;;;;436.2
641.0;516.5;;;;;;;;;;;;;;;;;18.166143;-42.07358;-16.834774;;445.9
641.0;516.5;;;;;;;;;;;;;;-0.055360578;0.9672536;0.112979524;;;;;445.9
641.0;516.5;;;;;;;;;;;;;;;;;22.061068;-47.11295;-13.7371435;;445.9
641.0;516.5;;;;;;;;;;;;;;-0.057924133;0.9524827;0.11658071;;;;;445.9
641.0;516.5;;;;;;;;;;;;;;;;;25.929289;-52.06076;-10.399182;;455.6
641.0;516.5;;;;;;;;;;;;;;-0.06402783;0.94875944;0.12799463;;;;;455.6
641.0;516.5;;;;;;;;;;;;;;;;;27.649769;-57.718132;-7.221442;;455.6
641.0;516.5;;;;;;;;;;;;;;-0.07074191;0.9208655;0.121768855;;;;;455.6
641.0;583.3;;;;;;;;;;;;;;;;;26.600697;-63.39839;-4.799036;;465.2
641.0;583.3;;;;;;;;;;;;;;-0.0738548;0.9098178;0.13159582;;;;;465.2
641.0;583.3;;;;;;;;;;;;;;;;;26.715141;-70.38712;-2.7161474;;465.2
641.0;583.3;;;;;;;;;;;;;;-0.07708976;0.9038362;0.14233834;;;;;465.2
641.0;583.3;;;;;;;;;;;;;;;;;26.39088;-78.87127;0.12588885;;474.7
641.0;583.3;;;;;;;;;;;;;;-0.06683554;0.87673575;0.14203314;;;;;474.7
641.0;583.3;;;;;;;;;;;;;;;;;26.219215;-88.03828;3.501999;;474.7
641.0;583.3;;;;;;;;;;;;;;-0.08038575;0.8773461;0.13385418;;;;;474.7
641.0;583.3;;;;;;;;;;;;;;;;;26.69988;-95.950195;6.164739;;484.4
641.0;583.3;;;;;;;;;;;;;;-0.09790338;0.8708762;0.12573627;;;;;484.4
641.0;583.3;;;;;;;;;;;;;;;;;26.974548;-100.82934;7.507553;;484.4
641.0;583.3;;;;;;;;;;;;;;-0.10889004;0.84951323;0.109622486;;;;;484.4
702.0;584.1;;;;;;;;;;;;;;;;;30.110323;-104.57167;8.808405;;494.0
702.0;584.1;;;;;;;;;;;;;;-0.1175573;0.8281503;0.08740501;;;;;494.0
702.0;584.1;;;;;;;;;;;;;;;;;34.413433;-109.347824;11.88696;;494.0
702.0;584.1;;;;;;;;;;;;;;-0.11578722;0.8109378;0.058290355;;;;;494.0
702.0;584.1;;;;;;;;;;;;;;;;;42.512283;-114.192635;16.63259;;503.6
702.0;584.1;;;;;;;;;;;;;;-0.14252144;0.81392866;0.030152287;;;;;503.6
702.0;584.1;;;;;;;;;;;;;;;;;53.70495;-118.50719;19.234291;;503.6
702.0;584.1;;;;;;;;;;;;;;-0.1347087;0.77681816;-0.01782281;;;;;503.6
702.0;584.1;;;;;;;;;;;;;;;;;60.281685;-119.60204;18.070772;;513.3
702.0;584.1;;;;;;;;;;;;;;-0.104617454;0.78884244;-0.058839686;;;;;513.3
702.0;584.1;;;;;;;;;;;;;;;;;59.862057;-113.18171;19.493698;;513.3
702.0;584.1;;;;;;;;;;;;;;-0.15619373;0.82168037;-0.034546953;;;;;513.3
702.0;636.2;;;;;;;;;;;;;;;;;37.549213;-92.15445;16.144293;;523.0
702.0;636.2;;;;;;;;;;;;;;-0.032593768;0.76943266;-0.17438276;;;;;523.0
702.0;636.2;;;;;;;;;;;;;;;;;43.72921;-60.88061;26.528215;;523.0
702.0;636.2;;;;;;;;;;;;;;0.034302805;0.6652425;-0.3342387;;;;;523.0
702.0;636.2;;;;;;;;;;;;;;;;;76.74642;-41.80654;33.55129;;532.6
702.0;636.2;;;;;;;;;;;;;;-0.038880583;0.7104709;-0.3272805;;;;;532.6
702.0;636.2;;;;;;;;;;;;;;;;;76.300095;-25.742363;26.295511;;532.6
702.0;636.2;;;;;;;;;;;;;;-0.030030213;0.849147;-0.324778;;;;;532.6
702.0;636.2;;;;;;;;;;;;;;;;;44.17173;-2.8534806;26.53203;;542.2
702.0;636.2;;;;;;;;;;;;;;0.0112918485;0.8634907;-0.35883662;;;;;542.2
702.0;636.2;;;;;;;;;;;;;;;;;18.684958;16.045107;30.903805;;542.2
702.0;636.2;;;;;;;;;;;;;;0.02990814;0.82235175;-0.36426893;;;;;542.2
758.0;637.3;;;;;;;;;;;;;;;;;28.843807;24.063845;31.55614;;551.7
758.0;637.3;;;;;;;;;;;;;;0.04712058;0.5895566;-0.6394238;;;;;551.7
758.0;637.3;;;;;;;;;;;;;;;;;61.18198;46.15543;21.343884;;551.7
758.0;637.3;;;;;;;;;;;;;;0.05017243;0.6967986;-0.5777154;;;;;551.7
758.0;637.3;;;;;;;;;;;;;;;;;46.300392;65.454575;19.589067;;561.4
758.0;637.3;;;;;;;;;;;;;;0.066530354;0.72634053;-0.6153752;;;;;561.4
758.0;637.3;;;;;;;;;;;;;;;;;25.315104;80.80538;21.217995;;561.4
758.0;637.3;;;;;;;;;;;;;;0.100405894;0.6684774;-0.67397076;;;;;561.4
758.0;637.3;;;;;;;;;;;;;;;;;12.524033;93.28364;18.829922;;571.0
758.0;637.3;;;;;;;;;;;;;;0.1093173;0.6567583;-0.62642294;;;;;571.0
758.0;637.3;;;;;;;;;;;;;;;;;-7.9462566;105.65127;14.5039215;;571.0
758.0;637.3;;;;;;;;;;;;;;0.11035493;0.6482742;-0.62465286;;;;;571.0
758.0;704.1;;;;;;;;;;;;;;;;;-13.954588;117.481;13.267922;;580.7
758.0;704.1;;;;;;;;;;;;;;0.14069033;0.5981628;-0.6767174;;;;;580.7
758.0;704.1;;;;;;;;;;;;;;;;;-9.42259;124.58037;14.839625;;580.7
758.0;704.1;;;;;;;;;;;;;;0.11633656;0.5701468;-0.68099004;;;;;580.7
758.0;704.1;;;;;;;;;;;;;;;;;-0.49592578;124.988556;16.994993;;590.3
758.0;704.1;;;;;;;;;;;;;;0.095583975;0.5256508;-0.75588244;;;;;590.3
758.0;704.1;;;;;;;;;;;;;;;;;20.283363;124.988556;20.275734;;590.3
758.0;704.1;;;;;;;;;;;;;;0.06024354;0.54811245;-0.7013764;;;;;590.3
758.0;704.1;;;;;;;;;;;;;;;;;21.130253;124.30952;20.851772;;599.9
758.0;704.1;;;;;;;;;;;;;;-0.015869625;0.5582446;-0.5602588;;;;;599.9
758.0;704.1;;;;;;;;;;;;;;;;;6.111332;114.307076;18.795588;;599.9
758.0;704.1;;;;;;;;;;;;;;-0.041444138;0.62495804;-0.5200964;;;;;599.9
816.0;704.8;;;;;;;;;;;;;;;;;0.22125919;99.33393;20.943327;;609.5
816.0;704.8;;;;;;;;;;;;;;-0.17413862;0.67793816;-0.32953885;;;;;609.5
816.0;704.8;;;;;;;;;;;;;;;;;-9.331035;82.19016;12.588885;;609.5
816.0;704.8;;;;;;;;;;;;;;-0.125309;0.77089757;-0.38264108;;;;;609.5
816.0;704.8;;;;;;;;;;;;;;;;;-10.456405;84.31501;8.522293;;619.1
816.0;704.8;;;;;;;;;;;;;;-0.17419966;0.7322001;-0.3838618;;;;;619.1
816.0;704.8;;;;;;;;;;;;;;;;;10.082552;99.71541;1.6403699;;619.1
816.0;704.8;;;;;;;;;;;;;;-0.22284615;0.7478866;-0.45149082;;;;;619.1
816.0;704.8;;;;;;;;;;;;;;;;;35.237434;104.895935;3.0785549;;628.8
816.0;704.8;;;;;;;;;;;;;;-0.30890834;0.8915067;-0.23877682;;;;;628.8
816.0;704.8;;;;;;;;;;;;;;;;;25.276955;86.741234;5.611591;;628.8
816.0;704.8;;;;;;;;;;;;;;-0.34742272;0.89437544;-0.3094577;;;;;628.8
816.0;711.5;;;;;;;;;;;;;;;;;20.36729;73.500015;1.1215552;;638.5
816.0;711.5;;;;;;;;;;;;;;-0.38526568;0.89388716;-0.1859798;;;;;638.5
816.0;711.5;;;;;;;;;;;;;;;;;2.254555;54.464096;-6.1571097;;638.5
816.0;711.5;;;;;;;;;;;;;;-0.39606923;0.8604999;-0.14777063;;;;;638.5
816.0;711.5;;;;;;;;;;;;;;;;;-9.468368;41.516617;-11.577959;;648.2
816.0;711.5;;;;;;;;;;;;;;-0.46491897;0.8056887;-0.28131962;;;;;648.2
816.0;711.5;;;;;;;;;;;;;;;;;4.9821467;34.78347;-13.847774;;648.2
816.0;711.5;;;;;;;;;;;;;;-0.5482345;0.83352154;-0.29340494;;;;;648.2
816.0;711.5;;;;;;;;;;;;;;;;;12.421033;27.645954;-13.290812;;657.8
816.0;711.5;;;;;;;;;;;;;;-0.61775565;0.85598314;-0.3292947;;;;;657.8
816.0;711.5;;;;;;;;;;;;;;;;;11.337626;19.093143;-13.679922;;657.8
816.0;711.5;;;;;;;;;;;;;;-0.6925871;0.8716086;-0.37702566;;;;;657.8
878.0;756.7;;;;;;;;;;;;;;;;;16.376995;10.9408865;-15.25544;;667.4
878.0;756.7;;;;;;;;;;;;;;-0.7467879;0.80849636;-0.5085604;;;;;667.4
878.0;756.7;;;;;;;;;;;;;;;;;34.760582;8.354443;-13.7371435;;667.4
878.0;756.7;;;;;;;;;;;;;;-0.78817105;0.8285775;-0.51661736;;;;;667.4
878.0;756.7;;;;;;;;;;;;;;;;;34.68047;2.883999;-11.082033;;676.9
878.0;756.7;;;;;;;;;;;;;;-0.7981811;0.8650777;-0.3533433;;;;;676.9
878.0;756.7;;;;;;;;;;;;;;;;;6.515702;-8.529923;-17.6664;;676.9
878.0;756.7;;;;;;;;;;;;;;-0.7936033;0.8434706;-0.37580493;;;;;676.9
878.0;756.7;;;;;;;;;;;;;;;;;3.1205175;-17.365032;-25.66225;;686.6
878.0;756.7;;;;;;;;;;;;;;-0.7761467;0.81496626;-0.44856104;;;;;686.6
878.0;756.7;;;;;;;;;;;;;;;;;8.648182;-9.891811;-32.948547;;686.6
878.0;756.7;;;;;;;;;;;;;;-0.81081575;0.7860347;-0.40455335;;;;;686.6
878.0;817.3;;;;;;;;;;;;;;;;;13.1801815;-11.097293;-36.58788;;696.3
878.0;817.3;;;;;;;;;;;;;;-0.83693963;0.8294321;-0.43055514;;;;;696.3
878.0;817.3;;;;;;;;;;;;;;;;;19.63866;-20.077364;-38.098545;;696.3
878.0;817.3;;;;;;;;;;;;;;-0.9540086;0.8105716;-0.42609942;;;;;696.3
878.0;817.3;;;;;;;;;;;;;;;;;25.524918;-34.890285;-42.72973;;705.8
878.0;817.3;;;;;;;;;;;;;;-0.94320506;0.84145635;-0.49342325;;;;;705.8
878.0;817.3;;;;;;;;;;;;;;;;;34.955135;-44.6028;-34.817802;;705.8
878.0;817.3;;;;;;;;;;;;;;-0.9501022;0.7509384;-0.6565752;;;;;705.8
878.0;817.3;;;;;;;;;;;;;;;;;44.22132;-34.12351;-31.338696;;715.5
878.0;817.3;;;;;;;;;;;;;;-1.0137029;0.68709373;-0.72981966;;;;;715.5
878.0;817.3;;;;;;;;;;;;;;;;;50.984985;-13.317514;-37.21351;;715.5
878.0;817.3;;;;;;;;;;;;;;-1.0031434;0.6979583;-0.75337994;;;;;715.5
944.0;818.2;;;;;;;;;;;;;;;;;56.756798;4.5510726;-48.67321;;725.0
944.0;818.2;;;;;;;;;;;;;;-1.0475783;0.77449876;-0.64375746;;;;;725.0
944.0;818.2;;;;;;;;;;;;;;;;;59.83154;-5.043184;-50.54628;;725.0
944.0;818.2;;;;;;;;;;;;;;-1.0342723;0.80239266;-0.5876034;;;;;725.0
944.0;818.2;;;;;;;;;;;;;;;;;45.407726;-23.827326;-47.421947;;734.6
944.0;818.2;;;;;;;;;;;;;;-1.0243843;0.8593402;-0.46906948;;;;;734.6
944.0;818.2;;;;;;;;;;;;;;;;;26.760918;-49.260693;-33.77255;;734.6
944.0;818.2;;;;;;;;;;;;;;-1.0268868;0.8265633;-0.55403304;;;;;734.6
944.0;818.2;;;;;;;;;;;;;;;;;23.728142;-54.055912;-21.588032;;744.2
944.0;818.2;;;;;;;;;;;;;;-0.9857479;0.8770409;-0.56990266;;;;;744.2
944.0;818.2;;;;;;;;;;;;;;;;;19.585253;-42.91284;-2.582629;;744.2
944.0;818.2;;;;;;;;;;;;;;-0.89944154;0.9211707;-0.46223333;;;;;744.2
944.0;831.8;;;;;;;;;;;;;;;;;6.0579243;-34.836876;19.394514;;753.9
944.0;831.8;;;;;;;;;;;;;;-0.70363474;0.86342967;-0.38215277;;;;;753.9
944.0;831.8;;;;;;;;;;;;;;;;;-8.991516;-29.641104;27.23777;;753.9
944.0;831.8;;;;;;;;;;;;;;-0.5363323;0.85402995;-0.33887753;;;;;753.9
944.0;831.8;;;;;;;;;;;;;;;;;-15.65218;-29.7174;29.503769;;763.6
944.0;831.8;;;;;;;;;;;;;;-0.436964;0.8568377;-0.33954895;;;;;763.6
944.0;831.8;;;;;;;;;;;;;;;;;-10.525071;-37.91162;29.698326;;763.6
944.0;831.8;;;;;;;;;;;;;;-0.34662923;0.8876003;-0.35956907;;;;;763.6
944.0;831.8;;;;;;;;;;;;;;;;;-5.516221;-49.756615;31.95288;;773.2
944.0;831.8;;;;;;;;;;;;;;-0.27362895;0.8833277;-0.38691366;;;;;773.2
944.0;831.8;;;;;;;;;;;;;;;;;-4.6578875;-60.781425;36.1301;;773.2
944.0;831.8;;;;;;;;;;;;;;-0.19721061;0.87130344;-0.398999;;;;;773.2
1000.0;877.1;;;;;;;;;;;;;;;;;-6.916257;-69.46394;42.828915;;782.6
1000.0;877.1;;;;;;;;;;;;;;-0.13391522;0.8708762;-0.37202063;;;;;782.6
1000.0;877.1;;;;;;;;;;;;;;;;;-10.795923;-78.94375;53.727837;;782.6
1000.0;877.1;;;;;;;;;;;;;;-0.0651265;0.8728294;-0.3615833;;;;;782.6
1000.0;877.1;;;;;;;;;;;;;;;;;-12.073886;-84.30738;63.87143;;792.2
1000.0;877.1;;;;;;;;;;;;;;0.0012207404;0.86141545;-0.37769708;;;;;792.2
1000.0;877.1;;;;;;;;;;;;;;;;;-6.9086275;-86.03549;70.242165;;792.2
1000.0;877.1;;;;;;;;;;;;;;0.05383465;0.8642231;-0.4364147;;;;;792.2
1000.0;877.1;;;;;;;;;;;;;;;;;-1.678518;-81.946014;82.72805;;801.9
1000.0;877.1;;;;;;;;;;;;;;0.10913419;0.86336863;-0.37769708;;;;;801.9
1000.0;877.1;;;;;;;;;;;;;;;;;-4.2115545;-89.548935;101.29856;;801.9
1000.0;877.1;;;;;;;;;;;;;;0.15192114;0.8417615;-0.35395366;;;;;801.9
1000.0;892.5;;;;;;;;;;;;;;;;;-6.931516;-103.58363;116.74474;;811.5
1000.0;892.5;;;;;;;;;;;;;;0.1607715;0.8255257;-0.32935575;;;;;811.5
1000.0;892.5;;;;;;;;;;;;;;;;;-8.465072;-116.7333;122.760704;;811.5
1000.0;892.5;;;;;;;;;;;;;;0.20221564;0.8764306;-0.30561236;;;;;811.5
1000.0;892.5;;;;;;;;;;;;;;;;;-5.6382947;-121.74978;124.96948;;821.1
1000.0;892.5;;;;;;;;;;;;;;0.2609943;0.87185276;-0.2855922;;;;;821.1
1000.0;892.5;;;;;;;;;;;;;;;;;-9.5675535;-116.08096;124.988556;;821.1
1000.0;892.5;;;;;;;;;;;;;;0.2829066;0.9394818;-0.2113712;;;;;821.1
1000.0;892.5;;;;;;;;;;;;;;;;;-25.437178;-105.32319;124.988556;;830.8
1000.0;892.5;;;;;;;;;;;;;;0.31867427;0.9838557;-0.24304941;;;;;830.8
1000.0;892.5;;;;;;;;;;;;;;;;;-33.36436;-86.92053;124.988556;;830.8
1000.0;892.5;;;;;;;;;;;;;;0.35608998;0.99594104;-0.22577593;;;;;830.8
1120.0;937.5;;;;;;;;;;;;;;;;;-27.41325;-79.31379;124.988556;;840.5
1120.0;937.5;;;;;;;;;;;;;;0.41370893;0.9848933;-0.22064883;;;;;840.5
1120.0;937.5;;;;;;;;;;;;;;;;;-22.579882;-74.850464;124.988556;;840.5
1120.0;937.5;;;;;;;;;;;;;;0.43531603;0.99179053;-0.2273629;;;;;840.5
1120.0;937.5;;;;;;;;;;;;;;;;;-26.871548;-67.78924;124.897;;850.1
1120.0;937.5;;;;;;;;;;;;;;0.48323008;0.98440504;-0.31171605;;;;;850.1
1120.0;937.5;;;;;;;;;;;;;;;;;-26.92114;-54.517506;111.52226;;850.1
1120.0;937.5;;;;;;;;;;;;;;0.4417249;0.98513746;-0.37434003;;;;;850.1
1120.0;937.5;;;;;;;;;;;;;;;;;-24.227882;-39.13236;70.86779;;859.8
1120.0;937.5;;;;;;;;;;;;;;0.22644734;1.1606799;-0.32312998;;;;;859.8
1120.0;937.5;;;;;;;;;;;;;;;;;-26.84103;-31.125065;56.112095;;859.8
1120.0;937.5;;;;;;;;;;;;;;0.003173925;1.1961424;-0.31989503;;;;;859.8
1120.0;944.9;;;;;;;;;;;;;;;;;-28.519547;-19.585253;57.397686;;869.3
1120.0;944.9;;;;;;;;;;;;;;-0.12964264;1.1687368;-0.27680287;;;;;869.3
1120.0;944.9;;;;;;;;;;;;;;;;;-27.169104;-7.1375165;55.009613;;869.3
1120.0;944.9;;;;;;;;;;;;;;-0.23645741;1.1152073;-0.2797937;;;;;869.3
1120.0;944.9;;;;;;;;;;;;;;;;;-19.310587;6.183813;41.98584;;879.0
1120.0;944.9;;;;;;;;;;;;;;-0.33344522;1.084811;-0.32074952;;;;;879.0
1120.0;944.9;;;;;;;;;;;;;;;;;-8.911405;20.508438;19.230476;;879.0
1120.0;944.9;;;;;;;;;;;;;;-0.43592638;1.0924406;-0.37549976;;;;;879.0
1120.0;944.9;;;;;;;;;;;;;;;;;5.22248;26.394695;1.7281106;;888.7
1120.0;944.9;;;;;;;;;;;;;;-0.58931243;1.229896;-0.37128818;;;;;888.7
1120.0;944.9;;;;;;;;;;;;;;;;;12.8215885;22.39677;-2.2278512;;888.7
1120.0;944.9;;;;;;;;;;;;;;-0.6587115;1.3030183;-0.5087435;;;;;888.7
1122.0;997.7;;;;;;;;;;;;;;;;;15.552996;36.885433;-9.464553;;898.3
1122.0;997.7;;;;;;;;;;;;;;-0.64754176;1.307413;-0.53218174;;;;;898.3
1122.0;997.7;;;;;;;;;;;;;;;;;12.726218;52.86569;-22.946104;;898.3
1122.0;997.7;;;;;;;;;;;;;;-0.63307595;1.4966887;-0.331431;;;;;898.3
1122.0;997.7;;;;;;;;;;;;;;;;;-7.126072;36.904507;-14.908293;;907.8
1122.0;997.7;;;;;;;;;;;;;;-0.61146885;1.6678976;-0.26343578;;;;;907.8
1122.0;997.7;;;;;;;;;;;;;;;;;-32.383953;13.233589;17.361216;;907.8
1122.0;997.7;;;;;;;;;;;;;;-0.47810298;1.5946531;-0.34778893;;;;;907.8
1122.0;997.7;;;;;;;;;;;;;;;;;-43.683434;6.0808134;44.34339;;917.4
1122.0;997.7;;;;;;;;;;;;;;-0.27710807;1.3335367;-0.37336344;;;;;917.4
1122.0;997.7;;;;;;;;;;;;;;;;;-38.11762;-1.8311106;40.566727;;917.4
1122.0;997.7;;;;;;;;;;;;;;-0.22302927;1.2272713;-0.47285378;;;;;917.4
1122.0;1005.2;;;;;;;;;;;;;;;;;-26.161993;-15.179143;32.26951;;927.1
1122.0;1005.2;;;;;;;;;;;;;;-0.25617236;1.2538835;-0.58143866;;;;;927.1
1122.0;1005.2;;;;;;;;;;;;;;;;;-21.996216;-27.26829;32.067326;;927.1
1122.0;1005.2;;;;;;;;;;;;;;-0.22034363;1.2126224;-0.6747642;;;;;927.1
1122.0;1005.2;;;;;;;;;;;;;;;;;-25.19303;-35.321358;32.39921;;936.6
1122.0;1005.2;;;;;;;;;;;;;;-0.1690115;1.1354107;-0.6219672;;;;;936.6
1122.0;1005.2;;;;;;;;;;;;;;;;;-33.444473;-46.09821;34.43632;;936.6
1122.0;1005.2;;;;;;;;;;;;;;-0.092593156;1.0440382;-0.5652638;;;;;936.6
1122.0;1005.2;;;;;;;;;;;;;;;;;-40.34547;-55.677204;40.547653;;946.3
1122.0;1005.2;;;;;;;;;;;;;;-0.006408887;0.97647023;-0.507828;;;;;946.3
1122.0;1005.2;;;;;;;;;;;;;;;;;-49.93591;-62.143314;46.456802;;946.3
1122.0;1005.2;;;;;;;;;;;;;;0.08545183;0.9396649;-0.42121646;;;;;946.3
1241.0;1058.4;;;;;;;;;;;;;;;;;-61.468094;-68.185974;50.847652;;955.9
1241.0;1058.4;;;;;;;;;;;;;;0.17188025;0.9135411;-0.34583575;;;;;955.9
1241.0;1058.4;;;;;;;;;;;;;;;;;-70.26887;-75.4532;56.56224;;955.9
1241.0;1058.4;;;;;;;;;;;;;;0.21924497;0.85763115;-0.2618488;;;;;955.9
1241.0;1058.4;;;;;;;;;;;;;;;;;-77.7459;-79.63042;60.018463;;965.6
1241.0;1058.4;;;;;;;;;;;;;;0.2696005;0.79549545;-0.20398572;;;;;965.6
1241.0;1058.4;;;;;;;;;;;;;;;;;-81.73238;-78.3372;60.213017;;965.6
1241.0;1058.4;;;;;;;;;;;;;;0.321543;0.732017;-0.12451552;;;;;965.6
1241.0;1058.4;;;;;;;;;;;;;;;;;-80.84353;-76.75024;57.508316;;975.3
1241.0;1058.4;;;;;;;;;;;;;;0.35883662;0.71321756;-0.07715079;;;;;975.3
1241.0;1058.4;;;;;;;;;;;;;;;;;-73.786125;-68.4759;50.39369;;975.3
1241.0;1058.4;;;;;;;;;;;;;;0.3509018;0.7235328;-0.050904874;;;;;975.3
1241.0;1065.4;;;;;;;;;;;;;;;;;-62.82998;-54.837944;40.215763;;985.0
1241.0;1065.4;;;;;;;;;;;;;;0.3114719;0.7845088;-0.059327982;;;;;985.0
1241.0;1065.4;;;;;;;;;;;;;;;;;-50.168613;-37.232582;37.575916;;985.0
1241.0;1065.4;;;;;;;;;;;;;;0.26606035;0.8056887;-0.11133152;;;;;985.0
1241.0;1065.4;;;;;;;;;;;;;;;;;-36.3361;-20.218512;37.7781;;994.7
1241.0;1065.4;;;;;;;;;;;;;;0.23944822;0.8366344;-0.16357921;;;;;994.7
1241.0;1065.4;;;;;;;;;;;;;;;;;-23.297068;-6.8323317;38.56014;;994.7
1241.0;1065.4;;;;;;;;;;;;;;0.20886868;0.8714255;-0.21381268;;;;;994.7
1241.0;1065.4;;;;;;;;;;;;;;;;;-15.732292;5.9053316;37.69036;;1004.2
1241.0;1065.4;;;;;;;;;;;;;;0.15619373;0.9020661;-0.23255104;;;;;1004.2
1241.0;1065.4;;;;;;;;;;;;;;;;;-16.560106;17.71218;36.84347;;1004.2
1241.0;1065.4;;;;;;;;;;;;;;0.0966216;0.8816187;-0.21112704;;;;;1004.2
1249.0;1118.3;;;;;;;;;;;;;;;;;-19.013033;26.367992;37.488174;;1013.9
1249.0;1118.3;;;;;;;;;;;;;;0.047853023;0.8600726;-0.17462692;;;;;1013.9
1249.0;1118.3;;;;;;;;;;;;;;;;;-17.185736;34.01288;39.487133;;1013.9
1249.0;1118.3;;;;;;;;;;;;;;0.0045777764;0.863979;-0.1408124;;;;;1013.9
1249.0;1118.3;;;;;;;;;;;;;;;;;-12.57744;41.54332;41.608173;;1023.5
1249.0;1118.3;;;;;;;;;;;;;;-0.025452437;0.8763085;-0.15100558;;;;;1023.5
1249.0;1118.3;;;;;;;;;;;;;;;;;-7.9233685;47.79199;43.62621;;1023.5
1249.0;1118.3;;;;;;;;;;;;;;-0.046205025;0.88070315;-0.17963195;;;;;1023.5
1249.0;1118.3;;;;;;;;;;;;;;;;;-3.0289621;51.801353;45.55269;;1033.1
1249.0;1118.3;;;;;;;;;;;;;;-0.06451613;0.8795434;-0.19617298;;;;;1033.1
1249.0;1118.3;;;;;;;;;;;;;;;;;1.3962218;53.338726;47.357098;;1033.1
1249.0;1118.3;;;;;;;;;;;;;;-0.08465835;0.89584035;-0.20465712;;;;;1033.1
1249.0;1119.1;;;;;;;;;;;;;;;;;3.38374;53.388317;48.734245;;1042.6
1249.0;1119.1;;;;;;;;;;;;;;-0.09851375;0.9067049;-0.20050661;;;;;1042.6
1249.0;1119.1;;;;;;;;;;;;;;;;;3.0175178;52.068394;49.59639;;1042.6
1249.0;1119.1;;;;;;;;;;;;;;-0.107058935;0.9059725;-0.18720053;;;;;1042.6
1249.0;1119.1;;;;;;;;;;;;;;;;;2.006592;48.90973;49.882504;;1052.3
1249.0;1119.1;;;;;;;;;;;;;;-0.11365093;0.903531;-0.17670217;;;;;1052.3
1249.0;1119.1;;;;;;;;;;;;;;;;;1.6060365;44.328133;49.550613;;1052.3
1249.0;1119.1;;;;;;;;;;;;;;-0.12152471;0.9170202;-0.18726158;;;;;1052.3
1249.0;1119.1;;;;;;;;;;;;;;;;;2.6551104;38.89203;48.276466;;1062.0
1249.0;1119.1;;;;;;;;;;;;;;-0.121768855;0.9406415;-0.19367047;;;;;1062.0
1249.0;1119.1;;;;;;;;;;;;;;;;;3.482925;32.532734;46.185947;;1062.0
1249.0;1119.1;;;;;;;;;;;;;;-0.1281167;0.9394818;-0.2395703;;;;;1062.0
1250.0;1128.8;;;;0.0;0.0;0.0;;;;;;;;;;;;;;;
1250.0;1128.8;;;;-0.054256447;0.1918793;0.037578586;;;;;;;;;;;;;;;
1250.0;1128.8;;;;-0.12824251;1.0070459;0.0334816;;;;;;;;;;;;;;;
1250.0;1128.8;;;;-0.12641145;1.135872;0.023860935;;;;;;;;;;;;;;;
1250.0;1128.8;;;;-0.12724306;1.1420327;0.022773745;;;;;;;;;;;;;;;
1250.0;1138.8;;;;-0.12836076;1.147957;0.020248415;;;;;;;;;;;;;;;
1250.0;1138.8;;;;-0.13121797;1.1554338;0.019210817;;;;;;;;;;;;;;;
1250.0;1138.8;;;;-0.133873;1.1617128;0.019775392;;;;;;;;;;;;;;;
1250.0;1138.8;;;;-0.13344575;1.1642152;0.019317629;;;;;;;;;;;;;;;
1250.0;1138.8;;;;-0.13043596;1.1694642;0.0140419025;;;;;;;;;;;;;;;
1250.0;1140.1;57491;57452;7519;;;;;;;;;;;;;;;;;;
1250.0;1148.7;;;;-0.12635042;1.1760026;0.00958252;;;;;;;;;;;;;;;
1250.0;1148.7;;;;-0.12277223;1.1825448;0.007335664;;;;;;;;;;;;;;;
1250.0;1148.7;;;;-0.12031175;1.1898271;0.005886079;;;;;;;;;;;;;;;
1250.0;1148.7;;;;-0.120784774;1.197529;0.0046234136;;;;;;;;;;;;;;;
1250.0;1148.7;;;;-0.12124254;1.2061731;0.0059165964;;;;;;;;;;;;;;;
1251.0;1158.8;;;;-0.12140657;1.2167474;0.0061302194;;;;;;;;;;;;;;;
1251.0;1158.8;;;;-0.122287765;1.2276994;0.006538392;;;;;;;;;;;;;;;
1251.0;1158.8;;;;-0.120777145;1.2379495;0.006565095;;;;;;;;;;;;;;;
1251.0;1158.8;;;;-0.11797334;1.2485048;0.00479126;;;;;;;;;;;;;;;
1251.0;1158.8;;;;-0.115596786;1.2611314;0.004375458;;;;;;;;;;;;;;;
1251.0;1160.2;73939;73817;7528;;;;;;;;;;;;;;;;;;
1251.0;1166.5;;;;;;;;;;;;;0;;;;;;;;
1251.0;1166.5;;;;;;;;;;;;;0;;;;;;;;
1251.0;1166.5;;;;;;;;;;;;;-1;;;;;;;;
1251.0;1166.5;;;;;;;;;;;;;-3;;;;;;;;
1251.0;1166.5;;;;;;;;;;;;;-5;;;;;;;;
1251.0;1168.9;;;;-0.114669815;1.2731324;0.005046845;;;;;;;;;;;;;;;
1251.0;1168.9;;;;-0.114410415;1.2840768;0.008483888;;;;;;;;;;;;;;;
1251.0;1168.9;;;;-0.11496736;1.2942048;0.0112457285;;;;;;;;;;;;;;;
1251.0;1168.9;;;;-0.11400224;1.3040391;0.0137519855;;;;;;;;;;;;;;;
1251.0;1168.9;;;;-0.11135484;1.3156549;0.013980867;;;;;;;;;;;;;;;
1252.0;1179.0;;;;;;;;;;;;;;;;;4.3946652;26.715141;44.263283;;1071.5
1252.0;1179.0;;;;;;;;;;;;;;-0.12537004;0.9666433;-0.29023102;;;;;1071.5
1252.0;1179.0;;;;;;;;;;;;;;;;;3.7156286;20.397808;42.909027;;1071.5
1252.0;1179.0;;;;;;;;;;;;;;-0.11133152;1.0094302;-0.33198035;;;;;1071.5
1252.0;1179.0;;;;;;;;;;;;;;;;;1.1444441;14.168218;42.748802;;1081.2
1252.0;1179.0;;;;;;;;;;;;;;-0.09967345;1.0546587;-0.35120702;;;;;1081.2
1252.0;1179.0;;;;;;;;;;;;;;;;;-5.3292947;8.365887;41.928616;;1081.2
1252.0;1179.0;;;;;;;;;;;;;;-0.091250345;1.022248;-0.36610004;;;;;1081.2
1252.0;1179.0;;;;;;;;;;;;;;;;;-9.266183;3.1205175;41.230507;;1090.8
1252.0;1179.0;;;;;;;;;;;;;;-0.056703392;0.98062074;-0.374279;;;;;1090.8
1252.0;1179.0;;;;;;;;;;;;;;;;;-11.524552;-1.9798884;40.387432;;1090.8
1252.0;1179.0;;;;;;;;;;;;;;-0.026856288;0.9443037;-0.38904995;;;;;1090.8
1252.0;1178.9;;;;-0.11022951;1.3276712;0.015003206;;;;;;;;;;;;;;;
1252.0;1178.9;;;;-0.103389755;1.3361131;0.015193941;;;;;;;;;;;;;;;
1252.0;1178.9;;;;-0.10370256;1.345894;0.014064791;;;;;;;;;;;;;;;
1252.0;1178.9;;;;-0.10137178;1.3552285;0.012012484;;;;;;;;;;;;;;;
1252.0;1178.9;;;;-0.10228349;1.3630983;0.009696961;;;;;;;;;;;;;;;
1253.0;1179.7;;;;;;;;;;;;;;;;;-14.965514;-7.827998;39.601578;;1100.4
1253.0;1179.7;;;;;;;;;;;;;;-0.0014648885;0.94479203;-0.397351;;;;;1100.4
1253.0;1179.7;;;;;;;;;;;;;;;;;-19.207588;-12.993256;39.265877;;1100.4
1253.0;1179.7;;;;;;;;;;;;;;0.020813623;0.93758965;-0.3914304;;;;;1100.4
1253.0;1179.7;;;;;;;;;;;;;;;;;-23.697622;-16.9187;38.716545;;1110.0
1253.0;1179.7;;;;;;;;;;;;;;0.041077916;0.90878016;-0.38215277;;;;;1110.0
1253.0;1179.7;;;;;;;;;;;;;;;;;-25.223547;-19.363995;38.30073;;1110.0
1253.0;1179.7;;;;;;;;;;;;;;0.05694754;0.8963286;-0.3688467;;;;;1110.0
1253.0;1179.7;;;;;;;;;;;;;;;;;-25.246437;-20.207067;38.27403;;1119.7
1253.0;1179.7;;;;;;;;;;;;;;0.05957213;0.89309365;-0.3582873;;;;;1119.7
1253.0;1179.7;;;;;;;;;;;;;;;;;-25.379955;-20.928068;38.048954;;1119.7
1253.0;1179.7;;;;;;;;;;;;;;0.060060427;0.89437544;-0.34583575;;;;;1119.7
1253.0;1180.2;90286;90267;7582;;;;;;;;;;;;;;;;;;
1253.0;1188.9;;;;-0.104656234;1.3698007;0.009891511;;;;;;;;;;;;;;;
1253.0;1188.9;;;;-0.10573579;1.3725587;0.008918763;;;;;;;;;;;;;;;
1253.0;1188.9;;;;-0.10435106;1.3774148;0.0029373174;;;;;;;;;;;;;;;
1253.0;1188.9;;;;-0.09912874;1.3820459;-0.003990174;;;;;;;;;;;;;;;
1253.0;1188.9;;;;-0.10124208;1.3823091;-0.0056419377;;;;;;;;;;;;;;;
1253.0;1198.9;;;;-0.09909059;1.380169;-0.0063285837;;;;;;;;;;;;;;;
1253.0;1198.9;;;;-0.09631349;1.3804704;-0.009693147;;;;;;;;;;;;;;;
1253.0;1198.9;;;;-0.09251023;1.3776323;-0.015586855;;;;;;;;;;;;;;;
1253.0;1198.9;;;;-0.09178544;1.3743249;-0.019729616;;;;;;;;;;;;;;;
1253.0;1198.9;;;;-0.09612276;1.3705751;-0.021606447;;;;;;;;;;;;;;;
1302.0;1200.4;106658;106750;7596;;;;;;;;;;;;;;;;;;
1302.0;1206.7;;;;;;;;;;;;;11;;;;;;;;
1302.0;1206.7;;;;;;;;;;;;;-29;;;;;;;;
1302.0;1206.7;;;;;;;;;;;;;-38;;;;;;;;
1302.0;1206.7;;;;;;;;;;;;;81;;;;;;;;
1302.0;1206.7;;;;;;;;;;;;;-36;;;;;;;;
1302.0;1208.9;;;;-0.0933075;1.3696443;-0.024021152;;;;;;;;;;;;;;;
1302.0;1208.9;;;;-0.09243394;1.3687288;-0.028652195;;;;;;;;;;;;;;;
1302.0;1208.9;;;;-0.09562303;1.361435;-0.032081608;;;;;;;;;;;;;;;
1302.0;1208.9;;;;-0.09990694;1.3499223;-0.033702854;;;;;;;;;;;;;;;
1302.0;1208.9;;;;-0.10015108;1.342846;-0.040462498;;;;;;;;;;;;;;;
1302.0;1218.8;;;;-0.09911348;1.3377534;-0.04543305;;;;;;;;;;;;;;;
1302.0;1218.8;;;;-0.10090257;1.3238527;-0.04595566;;;;;;;;;;;;;;;
1302.0;1218.8;;;;-0.106281295;1.3206292;-0.04678345;;;;;;;;;;;;;;;
1302.0;1218.8;;;;-0.10822679;1.3096544;-0.052028663;;;;;;;;;;;;;;;
1302.0;1218.8;;;;-0.11063005;1.2964174;-0.05609513;;;;;;;;;;;;;;;
1302.0;1220.3;122970;123077;7620;;;;;;;;;;;;;;;;;;
1302.0;1228.9;;;;-0.113224044;1.2819711;-0.05829621;;;;;;;;;;;;;;;
1302.0;1228.9;;;;-0.10916139;1.2753183;-0.061618812;;;;;;;;;;;;;;;
1302.0;1228.9;;;;-0.1166382;1.2625467;-0.05975724;;;;;;;;;;;;;;;
1302.0;1228.9;;;;-0.117054;1.2437288;-0.062374122;;;;;;;;;;;;;;;
1302.0;1228.9;;;;-0.12147142;1.2382928;-0.065486915;;;;;;;;;;;;;;;
1304.0;1238.7;;;;;;;;;;;;;;;;;-26.097141;-21.275217;37.74758;;1129.3
1304.0;1238.7;;;;;;;;;;;;;;0.052797023;0.89638966;-0.32959992;;;;;1129.3
1304.0;1238.7;;;;;;;;;;;;;;;;;-26.455732;-21.10355;37.514877;;1129.3
1304.0;1238.7;;;;;;;;;;;;;;0.043519396;0.9022492;-0.3183691;;;;;1129.3
1304.0;1238.7;;;;;;;;;;;;;;;;;-26.440474;-19.989624;37.244026;;1139.0
1304.0;1238.7;;;;;;;;;;;;;;0.035889767;0.9081698;-0.3112888;;;;;1139.0
1304.0;1238.7;;;;;;;;;;;;;;;;;-25.616474;-17.708364;36.885433;;1139.0
1304.0;1238.7;;;;;;;;;;;;;;0.024292734;0.9078036;-0.31562242;;;;;1139.0
1304.0;1238.7;;;;;;;;;;;;;;;;;-23.94177;-14.973144;36.656544;;1148.6
1304.0;1238.7;;;;;;;;;;;;;;0.016968291;0.91451764;-0.31940672;;;;;1148.6
1304.0;1238.7;;;;;;;;;;;;;;;;;-23.380993;-12.924589;36.99225;;1148.6
1304.0;1238.7;;;;;;;;;;;;;;0.009338664;0.9175695;-0.31501207;;;;;1148.6
1304.0;1238.9;;;;-0.12783433;1.226883;-0.06833268;;;;;;;;;;;;;;;
1304.0;1238.9;;;;-0.12738802;1.2096826;-0.071529396;;;;;;;;;;;;;;;
1304.0;1238.9;;;;-0.13080217;1.1990968;-0.07450486;;;;;;;;;;;;;;;
1304.0;1238.9;;;;-0.13455965;1.1901475;-0.07308961;;;;;;;;;;;;;;;
1304.0;1238.9;;;;-0.13288118;1.184414;-0.07812882;;;;;;;;;;;;;;;
1305.0;1239.5;;;;;;;;;;;;;;;;;-22.968992;-12.096774;37.347027;;1158.2
1305.0;1239.5;;;;;;;;;;;;;;0.016724143;0.9197058;-0.30744347;;;;;1158.2
1305.0;1239.5;;;;;;;;;;;;;;;;;-22.18314;-11.127811;37.575916;;1158.2
1305.0;1239.5;;;;;;;;;;;;;;0.03173925;0.92208624;-0.3007294;;;;;1158.2
1305.0;1239.5;;;;;;;;;;;;;;;;;-21.340069;-9.239479;37.369915;;1167.9
1305.0;1239.5;;;;;;;;;;;;;;0.030640583;0.92605364;-0.2896817;;;;;1167.9
1305.0;1239.5;;;;;;;;;;;;;;;;;-20.657215;-7.587664;37.312695;;1167.9
1305.0;1239.5;;;;;;;;;;;;;;0.03503525;0.92574847;-0.2865688;;;;;1167.9
1305.0;1239.5;;;;;;;;;;;;;;;;;-19.375439;-6.126591;37.362286;;1177.5
1305.0;1239.5;;;;;;;;;;;;;;0.043519396;0.9263588;-0.28083134;;;;;1177.5
1305.0;1239.5;;;;;;;;;;;;;;;;;-18.066957;-5.489517;37.438583;;1177.5
1305.0;1239.5;;;;;;;;;;;;;;0.043458357;0.92733544;-0.28321177;;;;;1177.5
1305.0;1240.4;139395;139403;7639;;;;;;;;;;;;;;;;;;
1305.0;1246.7;;;;;;;;;;;;;205;;;;;;;;
1305.0;1246.7;;;;;;;;;;;;;123;;;;;;;;
1305.0;1246.7;;;;;;;;;;;;;-190;;;;;;;;
1305.0;1246.7;;;;;;;;;;;;;1227;;;;;;;;
1305.0;1246.7;;;;;;;;;;;;;-551;;;;;;;;
1305.0;1248.9;;;;-0.13287355;1.1758462;-0.079845436;;;;;;;;;;;;;;;
1305.0;1248.9;;;;-0.13516618;1.1717798;-0.0804596;;;;;;;;;;;;;;;
1305.0;1248.9;;;;-0.13571931;1.1562501;-0.07641221;;;;;;;;;;;;;;;
1305.0;1248.9;;;;-0.13782884;1.1551896;-0.08216096;;;;;;;;;;;;;;;
1305.0;1248.9;;;;-0.14176561;1.1383439;-0.08485413;;;;;;;;;;;;;;;
1365.0;1258.9;;;;-0.1379471;1.1311914;-0.08599473;;;;;;;;;;;;;;;
1365.0;1258.9;;;;-0.14104082;1.1261598;-0.08517838;;;;;;;;;;;;;;;
1365.0;1258.9;;;;-0.14408113;1.120308;-0.085327156;;;;;;;;;;;;;;;
1365.0;1258.9;;;;-0.14279558;1.1029397;-0.086406715;;;;;;;;;;;;;;;
1365.0;1258.9;;;;-0.14409257;1.090458;-0.087528236;;;;;;;;;;;;;;;
1365.0;1260.5;155833;155795;7637;;;;;;;;;;;;;;;;;;
1365.0;1268.8;;;;-0.14548875;1.0822297;-0.08441544;;;;;;;;;;;;;;;
1365.0;1268.8;;;;-0.14406206;1.0678521;-0.08498002;;;;;;;;;;;;;;;
1365.0;1268.8;;;;-0.15053941;1.0623246;-0.085269935;;;;;;;;;;;;;;;
1365.0;1268.8;;;;-0.15350725;1.0582391;-0.087421425;;;;;;;;;;;;;;;
1365.0;1268.8;;;;-0.1549759;1.0504037;-0.08821488;;;;;;;;;;;;;;;
1365.0;1278.8;;;;-0.15385057;1.0443269;-0.08867646;;;;;;;;;;;;;;;
1365.0;1278.8;;;;-0.14952089;1.0387574;-0.08979798;;;;;;;;;;;;;;;
1365.0;1278.8;;;;-0.153286;1.0286714;-0.0874672;;;;;;;;;;;;;;;
1365.0;1278.8;;;;-0.15599443;1.0171777;-0.0841446;;;;;;;;;;;;;;;
1365.0;1278.8;;;;-0.15310289;1.0078965;-0.086536415;;;;;;;;;;;;;;;
1365.0;1280.5;172177;172178;7651;;;;;;;;;;;;;;;;;;
1365.0;1286.8;;;;;;;;;;;;;-3902;;;;;;;;
1365.0;1286.8;;;;;;;;;;;;;1636;;;;;;;;
1365.0;1286.8;;;;;;;;;;;;;8280;;;;;;;;
1365.0;1286.8;;;;;;;;;;;;;-5460;;;;;;;;
1365.0;1286.8;;;;;;;;;;;;;-44612;;;;;;;;
1367.0;1289.0;;;;-0.15968706;0.99850476;-0.08710099;;;;;;;;;;;;;;;
1367.0;1289.0;;;;-0.164917;0.99470913;-0.08722306;;;;;;;;;;;;;;;
1367.0;1289.0;;;;-0.16662599;0.9870225;-0.0852089;;;;;;;;;;;;;;;
1367.0;1289.0;;;;-0.16830446;0.97939694;-0.08477784;;;;;;;;;;;;;;;
1367.0;1289.0;;;;-0.17126466;0.97124493;-0.08455277;;;;;;;;;;;;;;;
1367.0;1298.8;;;;;;;;;;;;;;;;;-17.097994;-5.3636284;37.503433;;1187.1
1367.0;1298.8;;;;;;;;;;;;;;0.05084384;0.92880034;-0.28846094;;;;;1187.1
1367.0;1298.8;;;;;;;;;;;;;;;;;-16.907255;-5.050813;37.04184;;1187.1
1367.0;1298.8;;;;;;;;;;;;;;0.056093022;0.9277627;-0.28974274;;;;;1187.1
1367.0;1298.8;;;;;;;;;;;;;;;;;-16.464737;-4.3450727;36.885433;;1196.7
1367.0;1298.8;;;;;;;;;;;;;;0.06500442;0.9189123;-0.29108554;;;;;1196.7
1367.0;1298.8;;;;;;;;;;;;;;;;;-14.728996;-3.0060732;36.45436;;1196.7
1367.0;1298.8;;;;;;;;;;;;;;0.07037568;0.9246498;-0.29987487;;;;;1196.7
1367.0;1298.8;;;;;;;;;;;;;;;;;-13.985106;-1.6289254;36.206398;;1206.2
1367.0;1298.8;;;;;;;;;;;;;;0.07916501;0.92031616;-0.3071383;;;;;1206.2
1367.0;1298.8;;;;;;;;;;;;;;;;;-13.962218;-0.65233314;35.775322;;1206.2
1367.0;1298.8;;;;;;;;;;;;;;0.081118196;0.9164098;-0.30445266;;;;;1206.2
1367.0;1299.0;;;;-0.17324068;0.9615861;-0.08264161;;;;;;;;;;;;;;;
1367.0;1299.0;;;;-0.1735573;0.95988095;-0.08398057;;;;;;;;;;;;;;;
1367.0;1299.0;;;;-0.17796327;0.96125424;-0.08006287;;;;;;;;;;;;;;;
1367.0;1299.0;;;;-0.17992403;0.95318615;-0.07962418;;;;;;;;;;;;;;;
1367.0;1299.0;;;;-0.18185426;0.9422113;-0.079730995;;;;;;;;;;;;;;;
1368.0;1300.0;;;;;;;;;;;;;;;;;-14.076662;-0.13733329;35.584583;;1215.9
1368.0;1300.0;;;;;;;;;;;;;;0.08783227;0.9137852;-0.30121768;;;;;1215.9
1368.0;1300.0;;;;;;;;;;;;;;;;;-15.114291;0.42344433;35.348064;;1215.9
1368.0;1300.0;;;;;;;;;;;;;;0.088808864;0.9107944;-0.2944426;;;;;1215.9
1368.0;1300.0;;;;;;;;;;;;;;;;;-16.106144;1.3657033;34.810173;;1225.5
1368.0;1300.0;;;;;;;;;;;;;;0.097720265;0.9009674;-0.28577533;;;;;1225.5
1368.0;1300.0;;;;;;;;;;;;;;;;;-16.510515;2.7428513;34.131138;;1225.5
1368.0;1300.0;;;;;;;;;;;;;;0.09790338;0.9011505;-0.27478865;;;;;1225.5
1368.0;1300.0;;;;;;;;;;;;;;;;;-16.506699;4.333628;33.486435;;1235.2
1368.0;1300.0;;;;;;;;;;;;;;0.0954619;0.89944154;-0.2725303;;;;;1235.2
1368.0;1300.0;;;;;;;;;;;;;;;;;-17.09418;5.344554;32.35725;;1235.2
1368.0;1300.0;;;;;;;;;;;;;;0.08215583;0.9073153;-0.2692343;;;;;1235.2
1368.0;1300.5;188578;188461;7654;;;;;;;;;;;;;;;;;;
1368.0;1308.9;;;;-0.1825371;0.93761456;-0.07913209;;;;;;;;;;;;;;;
1368.0;1308.9;;;;-0.18298341;0.93730557;-0.07827378;;;;;;;;;;;;;;;
1368.0;1308.9;;;;-0.18482591;0.93286145;-0.07979966;;;;;;;;;;;;;;;
1368.0;1308.9;;;;-0.18778613;0.9289857;-0.07805253;;;;;;;;;;;;;;;
1368.0;1308.9;;;;-0.1889992;0.9264451;-0.07704926;;;;;;;;;;;;;;;
1368.0;1318.9;;;;-0.19335178;0.9228822;-0.07854081;;;;;;;;;;;;;;;
1368.0;1318.9;;;;-0.19640353;0.91902554;-0.079227455;;;;;;;;;;;;;;;
1368.0;1318.9;;;;-0.20127872;0.91399395;-0.081111915;;;;;;;;;;;;;;;
1368.0;1318.9;;;;-0.20394138;0.9083711;-0.08071519;;;;;;;;;;;;;;;
1368.0;1318.9;;;;-0.20690921;0.90327466;-0.081817634;;;;;;;;;;;;;;;
1423.0;1320.7;205009;205047;7662;;;;;;;;;;;;;;;;;;
1423.0;1326.9;;;;;;;;;;;;;-85291;;;;;;;;
1423.0;1326.9;;;;;;;;;;;;;-100842;;;;;;;;
1423.0;1326.9;;;;;;;;;;;;;-92631;;;;;;;;
1423.0;1326.9;;;;;;;;;;;;;-82396;;;;;;;;
1423.0;1326.9;;;;;;;;;;;;;-81915;;;;;;;;
1423.0;1328.8;;;;-0.20842364;0.89881146;-0.082752235;;;;;;;;;;;;;;;
1423.0;1328.8;;;;-0.20872882;0.8948251;-0.084449776;;;;;;;;;;;;;;;
1423.0;1328.8;;;;-0.20949939;0.8896867;-0.08528138;;;;;;;;;;;;;;;
1423.0;1328.8;;;;-0.21066669;0.884884;-0.08595658;;;;;;;;;;;;;;;
1423.0;1328.8;;;;-0.21491244;0.8814851;-0.088851936;;;;;;;;;;;;;;;
1423.0;1338.6;;;;-0.21850207;0.87885296;-0.09111787;;;;;;;;;;;;;;;
1423.0;1338.6;;;;-0.22156909;0.8759767;-0.092716224;;;;;;;;;;;;;;;
1423.0;1338.6;;;;-0.2244263;0.8707963;-0.09487535;;;;;;;;;;;;;;;
1423.0;1338.6;;;;-0.22827151;0.8652612;-0.096973434;;;;;;;;;;;;;;;
1423.0;1338.6;;;;-0.23012164;0.86003506;-0.10063173;;;;;;;;;;;;;;;
1423.0;1340.4;213138;221398;7676;;;;;;;;;;;;;;;;;;
1423.0;1348.7;;;;-0.2314606;0.8556825;-0.10254289;;;;;;;;;;;;;;;
1423.0;1348.7;;;;-0.23544696;0.8491212;-0.10481645;;;;;;;;;;;;;;;
1423.0;1348.7;;;;-0.24173358;0.8441392;-0.10788728;;;;;;;;;;;;;;;
1423.0;1348.7;;;;-0.24649051;0.8391458;-0.110080734;;;;;;;;;;;;;;;
1423.0;1348.7;;;;-0.24969867;0.83617795;-0.11249162;;;;;;;;;;;;;;;
1425.0;1358.9;;;;;;;;;;;;;;;;;-18.051699;6.267739;31.361584;;1244.8
1425.0;1358.9;;;;;;;;;;;;;;0.07086398;0.9124424;-0.2652669;;;;;1244.8
1425.0;1358.9;;;;;;;;;;;;;;;;;-17.49855;8.037812;30.617695;;1244.8
1425.0;1358.9;;;;;;;;;;;;;;0.065065466;0.91811883;-0.26178777;;;;;1244.8
1425.0;1358.9;;;;;;;;;;;;;;;;;-17.28492;10.189367;29.957731;;1254.3
1425.0;1358.9;;;;;;;;;;;;;;0.054017764;0.9234901;-0.24805444;;;;;1254.3
1425.0;1358.9;;;;;;;;;;;;;;;;;-17.818995;11.207922;29.175695;;1254.3
1425.0;1358.9;;;;;;;;;;;;;;0.041444138;0.9160436;-0.24378185;;;;;1254.3
1425.0;1358.9;;;;;;;;;;;;;;;;;-18.356884;12.276071;28.56151;;1264.0
1425.0;1358.9;;;;;;;;;;;;;;0.03601184;0.90841395;-0.22821741;;;;;1264.0
1425.0;1358.9;;;;;;;;;;;;;;;;;-18.215734;13.477737;28.408916;;1264.0
1425.0;1358.9;;;;;;;;;;;;;;0.031678215;0.895352;-0.21375164;;;;;1264.0
1425.0;1358.8;;;;-0.25239947;0.83298504;-0.11342241;;;;;;;;;;;;;;;
1425.0;1358.8;;;;-0.25503924;0.82935345;-0.115417495;;;;;;;;;;;;;;;
1425.0;1358.8;;;;-0.2586594;0.8248178;-0.117382064;;;;;;;;;;;;;;;
1425.0;1358.8;;;;-0.26036456;0.82151425;-0.118583694;;;;;;;;;;;;;;;
1425.0;1358.8;;;;-0.26239398;0.8190423;-0.12026979;;;;;;;;;;;;;;;
1426.0;1359.5;;;;;;;;;;;;;;;;;-18.04407;13.542589;28.34788;;1273.6
1426.0;1359.5;;;;;;;;;;;;;;0.0369274;0.8890652;-0.20599994;;;;;1273.6
1426.0;1359.5;;;;;;;;;;;;;;;;;-18.040255;13.70281;28.199102;;1273.6
1426.0;1359.5;;;;;;;;;;;;;;0.045228433;0.88778347;-0.19098483;;;;;1273.6
1426.0;1359.5;;;;;;;;;;;;;;;;;-17.311625;13.237404;28.302103;;1283.3
1426.0;1359.5;;;;;;;;;;;;;;0.059755243;0.8935209;-0.18420972;;;;;1283.3
1426.0;1359.5;;;;;;;;;;;;;;;;;-16.407515;12.474441;28.313547;;1283.3
1426.0;1359.5;;;;;;;;;;;;;;0.07599109;0.9112827;-0.17883846;;;;;1283.3
1426.0;1359.5;;;;;;;;;;;;;;;;;-15.297402;12.089145;28.786585;;1292.9
1426.0;1359.5;;;;;;;;;;;;;;0.0860622;0.9238563;-0.18494217;;;;;1292.9
1426.0;1359.5;;;;;;;;;;;;;;;;;-14.332255;11.505478;29.412214;;1292.9
1426.0;1359.5;;;;;;;;;;;;;;0.09851375;0.93325603;-0.1850032;;;;;1292.9
1426.0;1360.5;212780;237742;7671;;;;;;;;;;;;;;;;;;
1426.0;1366.7;;;;;;;;;;;;;-81874;;;;;;;;
1426.0;1366.7;;;;;;;;;;;;;-77710;;;;;;;;
1426.0;1366.7;;;;;;;;;;;;;-74849;;;;;;;;
1426.0;1366.7;;;;;;;;;;;;;-72050;;;;;;;;
1426.0;1366.7;;;;;;;;;;;;;-68421;;;;;;;;
1426.0;1368.7;;;;-0.26383975;0.81614316;-0.121971145;;;;;;;;;;;;;;;
1426.0;1368.7;;;;-0.26557162;0.81303036;-0.12333681;;;;;;;;;;;;;;;
1426.0;1368.7;;;;-0.26876834;0.80962;-0.12559511;;;;;;;;;;;;;;;
1426.0;1368.7;;;;-0.27048495;0.80674374;-0.127697;;;;;;;;;;;;;;;
1426.0;1368.7;;;;-0.27317813;0.80271924;-0.12982942;;;;;;;;;;;;;;;
1486.0;1378.7;;;;-0.27551654;0.79742825;-0.1311493;;;;;;;;;;;;;;;
1486.0;1378.7;;;;-0.2798653;0.79421246;-0.13246538;;;;;;;;;;;;;;;
1486.0;1378.7;;;;-0.28421786;0.7910272;-0.13303758;;;;;;;;;;;;;;;
1486.0;1378.7;;;;-0.28594974;0.78826916;-0.13365175;;;;;;;;;;;;;;;
1486.0;1378.7;;;;-0.28664783;0.78588116;-0.1347046;;;;;;;;;;;;;;;
1486.0;1380.6;212882;254095;7673;;;;;;;;;;;;;;;;;;
1486.0;1388.6;;;;-0.2879372;0.78322995;-0.13558961;;;;;;;;;;;;;;;
1486.0;1388.6;;;;-0.29247287;0.77959454;-0.13562013;;;;;;;;;;;;;;;
1486.0;1388.6;;;;-0.29721835;0.77666104;-0.1351433;;;;;;;;;;;;;;;
1486.0;1388.6;;;;-0.30002597;0.77415097;-0.13444902;;;;;;;;;;;;;;;
1486.0;1388.6;;;;-0.30118945;0.7729341;-0.13473131;;;;;;;;;;;;;;;
1486.0;1398.6;;;;-0.27436832;0.79836667;-0.14635088;;;;;;;;;;;;;;;
1486.0;1398.6;;;;-0.2985573;0.81425107;-0.13159563;;;;;;;;;;;;;;;
1486.0;1398.6;;;;-0.32063678;0.765751;-0.12671663;;;;;;;;;;;;;;;
1486.0;1398.6;;;;-0.3134804;0.75490963;-0.12339021;;;;;;;;;;;;;;;
1486.0;1398.6;;;;-0.3198624;0.75563824;-0.12855531;;;;;;;;;;;;;;;
1486.0;1400.6;212943;262143;7676;;;;;;;;;;;;;;;;;;
1486.0;1406.9;;;;;;;;;;;;;-65175;;;;;;;;
1486.0;1406.9;;;;;;;;;;;;;-61726;;;;;;;;
1486.0;1406.9;;;;;;;;;;;;;-58314;;;;;;;;
1486.0;1406.9;;;;;;;;;;;;;-54934;;;;;;;;
1486.0;1406.9;;;;;;;;;;;;;-51489;;;;;;;;
1488.0;1408.8;;;;-0.3241425;0.7485886;-0.12677385;;;;;;;;;;;;;;;
1488.0;1408.8;;;;-0.32196048;0.7438088;-0.12262346;;;;;;;;;;;;;;;
1488.0;1408.8;;;;-0.32389072;0.7450028;-0.12190248;;;;;;;;;;;;;;;
1488.0;1408.8;;;;-0.32612613;0.7496453;-0.12037279;;;;;;;;;;;;;;;
1488.0;1408.8;;;;-0.3285065;0.752247;-0.11733629;;;;;;;;;;;;;;;
1488.0;1419.1;;;;;;;;;;;;;;;;;-14.313181;10.23133;30.0531;;1302.5
1488.0;1419.1;;;;;;;;;;;;;;0.10876797;0.943144;-0.19812617;;;;;1302.5
1488.0;1419.1;;;;;;;;;;;;;;;;;-14.889218;9.247108;30.766472;;1302.5
1488.0;1419.1;;;;;;;;;;;;;;0.12732323;0.9512009;-0.20026246;;;;;1302.5
1488.0;1419.1;;;;;;;;;;;;;;;;;-15.36607;7.7860346;31.502731;;1312.1
1488.0;1419.1;;;;;;;;;;;;;;0.14087345;0.9533372;-0.2029481;;;;;1312.1
1488.0;1419.1;;;;;;;;;;;;;;;;;-15.274514;6.782739;32.23136;;1312.1
1488.0;1419.1;;;;;;;;;;;;;;0.14996795;0.9607837;-0.20130008;;;;;1312.1
1488.0;1419.1;;;;;;;;;;;;;;;;;-14.709922;5.4399247;33.03629;;1321.8
1488.0;1419.1;;;;;;;;;;;;;;0.17004913;0.9594409;-0.20105594;;;;;1321.8
1488.0;1419.1;;;;;;;;;;;;;;;;;-14.004181;4.757073;33.787807;;1321.8
1488.0;1419.1;;;;;;;;;;;;;;0.17627491;0.96371347;-0.1993469;;;;;1321.8
1488.0;1418.8;;;;-0.3302422;0.75636303;-0.11734773;;;;;;;;;;;;;;;
1488.0;1418.8;;;;-0.32885745;0.75992596;-0.11651231;;;;;;;;;;;;;;;
1488.0;1418.8;;;;-0.32805255;0.76254666;-0.11381151;;;;;;;;;;;;;;;
1488.0;1418.8;;;;-0.3282967;0.7663194;-0.11023714;;;;;;;;;;;;;;;
1488.0;1418.8;;;;-0.32827;0.77009594;-0.10880281;;;;;;;;;;;;;;;
1490.0;1420.2;;;;;;;;;;;;;;;;;-14.458144;4.2687764;34.203617;;1331.4
1490.0;1420.2;;;;;;;;;;;;;;0.18317209;0.9600513;-0.19977416;;;;;1331.4
1490.0;1420.2;;;;;;;;;;;;;;;;;-14.812922;3.9826655;34.421062;;1331.4
1490.0;1420.2;;;;;;;;;;;;;;0.18683432;0.9568163;-0.19098483;;;;;1331.4
1490.0;1420.2;;;;;;;;;;;;;;;;;-14.080477;3.5821102;34.44395;;1341.0
1490.0;1420.2;;;;;;;;;;;;;;0.18744469;0.9548021;-0.19135106;;;;;1341.0
1490.0;1420.2;;;;;;;;;;;;;;;;;-13.740958;3.4485915;34.15784;;1341.0
1490.0;1420.2;;;;;;;;;;;;;;0.1932432;0.95290995;-0.19617298;;;;;1341.0
1490.0;1420.2;;;;;;;;;;;;;;;;;-13.309885;4.757073;34.024323;;1350.5
1490.0;1420.2;;;;;;;;;;;;;;0.19116795;0.9441206;-0.19306009;;;;;1350.5
1490.0;1420.2;;;;;;;;;;;;;;;;;-12.768181;6.061739;33.555103;;1350.5
1490.0;1420.2;;;;;;;;;;;;;;0.1850032;0.9439375;-0.1948912;;;;;1350.5
1490.0;1420.8;212950;262143;7665;;;;;;;;;;;;;;;;;;
1490.0;1428.8;;;;-0.32835773;0.77204144;-0.1078911;;;;;;;;;;;;;;;
1490.0;1428.8;;;;-0.32938007;0.77422345;-0.106605545;;;;;;;;;;;;;;;
1490.0;1428.8;;;;-0.3297005;0.7780191;-0.10414888;;;;;;;;;;;;;;;
1490.0;1428.8;;;;-0.3291016;0.7826005;-0.10120393;;;;;;;;;;;;;;;
1490.0;1428.8;;;;-0.32748416;0.78590024;-0.101360336;;;;;;;;;;;;;;;
1490.0;1438.8;;;;-0.32730487;0.78831494;-0.1007805;;;;;;;;;;;;;;;
1490.0;1438.8;;;;-0.32626727;0.7898599;-0.098857895;;;;;;;;;;;;;;;
1490.0;1438.8;;;;-0.3245087;0.7917901;-0.097217575;;;;;;;;;;;;;;;
1490.0;1438.8;;;;-0.3222008;0.7949449;-0.096519485;;;;;;;;;;;;;;;
1490.0;1438.8;;;;-0.32088473;0.79680264;-0.095771804;;;;;;;;;;;;;;;
1544.0;1440.9;212974;262143;7671;;;;;;;;;;;;;;;;;;
1544.0;1447.0;;;;;;;;;;;;;-48197;;;;;;;;
1544.0;1447.0;;;;;;;;;;;;;-45085;;;;;;;;
1544.0;1447.0;;;;;;;;;;;;;-42169;;;;;;;;
1544.0;1447.0;;;;;;;;;;;;;-39680;;;;;;;;
1544.0;1447.0;;;;;;;;;;;;;-37778;;;;;;;;
1544.0;1448.8;;;;-0.31669238;0.8001329;-0.093929306;;;;;;;;;;;;;;;
1544.0;1448.8;;;;-0.30967715;0.80427563;-0.092197426;;;;;;;;;;;;;;;
1544.0;1448.8;;;;-0.30555728;0.8067895;-0.09184266;;;;;;;;;;;;;;;
1544.0;1448.8;;;;-0.30046085;0.8102876;-0.09187699;;;;;;;;;;;;;;;
1544.0;1448.8;;;;-0.2961693;0.8115922;-0.09185792;;;;;;;;;;;;;;;
1544.0;1458.8;;;;-0.2912369;0.8126184;-0.09111405;;;;;;;;;;;;;;;
1544.0;1458.8;;;;-0.28585055;0.8153306;-0.09095765;;;;;;;;;;;;;;;
1544.0;1458.8;;;;-0.28205493;0.818081;-0.08997346;;;;;;;;;;;;;;;
1544.0;1458.8;;;;-0.27778247;0.8191339;-0.08897019;;;;;;;;;;;;;;;
1544.0;1458.8;;;;-0.27050784;0.82343686;-0.08845521;;;;;;;;;;;;;;;
1544.0;1460.9;212951;262143;7683;;;;;;;;;;;;;;;;;;
1544.0;1468.9;;;;-0.26620105;0.8275987;-0.08825684;;;;;;;;;;;;;;;
1544.0;1468.9;;;;-0.2624474;0.8305093;-0.08736039;;;;;;;;;;;;;;;
1544.0;1468.9;;;;-0.25662234;0.8332559;-0.08701325;;;;;;;;;;;;;;;
1544.0;1468.9;;;;-0.2513428;0.83771527;-0.086528786;;;;;;;;;;;;;;;
1544.0;1468.9;;;;-0.24588397;0.8410188;-0.085716255;;;;;;;;;;;;;;;
1547.0;1479.3;;;;;;;;;;;;;;;;;-12.462996;7.6639605;33.165993;;1360.2
1547.0;1479.3;;;;;;;;;;;;;;0.16956083;0.9393597;-0.19910276;;;;;1360.2
1547.0;1479.3;;;;;;;;;;;;;;;;;-11.936552;9.258553;32.547993;;1360.2
1547.0;1479.3;;;;;;;;;;;;;;0.15472884;0.9407636;-0.20435195;;;;;1360.2
1547.0;1479.3;;;;;;;;;;;;;;;;;-11.585589;11.047701;31.693474;;1369.8
1547.0;1479.3;;;;;;;;;;;;;;0.13678396;0.94265574;-0.2146672;;;;;1369.8
1547.0;1479.3;;;;;;;;;;;;;;;;;-11.616108;12.916959;30.774101;;1369.8
1547.0;1479.3;;;;;;;;;;;;;;0.11102634;0.93649095;-0.22174749;;;;;1369.8
1547.0;1479.3;;;;;;;;;;;;;;;;;-11.558886;14.412366;29.801325;;1379.4
1547.0;1479.3;;;;;;;;;;;;;;0.08282723;0.93630785;-0.23590808;;;;;1379.4
1547.0;1479.3;;;;;;;;;;;;;;;;;-11.9556265;15.636921;28.908659;;1379.4
1547.0;1479.3;;;;;;;;;;;;;;0.06207465;0.9360027;-0.24951933;;;;;1379.4
1547.0;1479.0;;;;-0.24144366;0.84406674;-0.08464814;;;;;;;;;;;;;;;
1547.0;1479.0;;;;-0.23810962;0.8473321;-0.08399583;;;;;;;;;;;;;;;
1547.0;1479.0;;;;-0.23410419;0.84851086;-0.08321763;;;;;;;;;;;;;;;
1547.0;1479.0;;;;-0.23057559;0.85030377;-0.081615455;;;;;;;;;;;;;;;
1547.0;1479.0;;;;-0.22789386;0.85229886;-0.08119965;;;;;;;;;;;;;;;
1598.0;1480.1;;;;;;;;;;;;;;;;;-12.794885;17.311625;27.71462;;1389.1
1598.0;1480.1;;;;;;;;;;;;;;0.04016236;0.92684716;-0.26105532;;;;;1389.1
1598.0;1480.1;;;;;;;;;;;;;;;;;-13.508256;19.222847;26.34129;;1389.1
1598.0;1480.1;;;;;;;;;;;;;;0.01678518;0.92281866;-0.26996672;;;;;1389.1
1598.0;1480.1;;;;;;;;;;;;;;;;;-14.473403;20.947142;25.017548;;1398.7
1598.0;1480.1;;;;;;;;;;;;;;-0.0079958495;0.9214759;-0.27784052;;;;;1398.7
1598.0;1480.1;;;;;;;;;;;;;;;;;-15.671255;22.972807;23.67092;;1398.7
1598.0;1480.1;;;;;;;;;;;;;;-0.037049472;0.9213538;-0.28150272;;;;;1398.7
1598.0;1480.1;;;;;;;;;;;;;;;;;-16.647848;24.967955;22.442549;;1408.3
1598.0;1480.1;;;;;;;;;;;;;;-0.06366161;0.9190344;-0.28223518;;;;;1408.3
1598.0;1480.1;;;;;;;;;;;;;;;;;-17.50618;26.036104;21.248512;;1408.3
1598.0;1480.1;;;;;;;;;;;;;;-0.087588124;0.92031616;-0.28107548;;;;;1408.3
1598.0;1481.1;212911;262143;7676;;;;;;;;;;;;;;;;;;
1598.0;1487.3;;;;;;;;;;;;;-36161;;;;;;;;
1598.0;1487.3;;;;;;;;;;;;;-34398;;;;;;;;
1598.0;1487.3;;;;;;;;;;;;;-32437;;;;;;;;
1598.0;1487.3;;;;;;;;;;;;;-30521;;;;;;;;
1598.0;1487.3;;;;;;;;;;;;;-28751;;;;;;;;
1598.0;1489.0;;;;-0.22525027;0.8551942;-0.08026505;;;;;;;;;;;;;;;
1598.0;1489.0;;;;-0.22252658;0.8585206;-0.07913972;;;;;;;;;;;;;;;
1598.0;1489.0;;;;-0.21900943;0.86166394;-0.07815934;;;;;;;;;;;;;;;
1598.0;1489.0;;;;-0.21504977;0.86480725;-0.07769395;;;;;;;;;;;;;;;
1598.0;1489.0;;;;-0.21211246;0.86859906;-0.07633973;;;;;;;;;;;;;;;
1603.0;1499.0;;;;-0.20819858;0.87184155;-0.07511521;;;;;;;;;;;;;;;
1603.0;1499.0;;;;-0.20468524;0.87560666;-0.07307053;;;;;;;;;;;;;;;
1603.0;1499.0;;;;-0.20084384;0.87993634;-0.071105964;;;;;;;;;;;;;;;
1603.0;1499.0;;;;-0.19747928;0.88377774;-0.069141395;;;;;;;;;;;;;;;
1603.0;1499.0;;;;-0.1939545;0.8875581;-0.067371376;;;;;;;;;;;;;;;
1603.0;1501.2;212875;262143;7679;;;;;;;;;;;;;;;;;;
1603.0;1509.1;;;;-0.18932346;0.8912164;-0.064861305;;;;;;;;;;;;;;;
1603.0;1509.1;;;;-0.18649293;0.89476025;-0.06293488;;;;;;;;;;;;;;;
1603.0;1509.1;;;;-0.18295671;0.89878094;-0.060531624;;;;;;;;;;;;;;;
1603.0;1509.1;;;;-0.17917635;0.90179837;-0.057834633;;;;;;;;;;;;;;;
1603.0;1509.1;;;;-0.17567064;0.9039804;-0.05436326;;;;;;;;;;;;;;;
1603.0;1519.0;;;;-0.1725731;0.906685;-0.052028663;;;;;;;;;;;;;;;
1603.0;1519.0;;;;-0.17053224;0.9099275;-0.05012513;;;;;;;;;;;;;;;
1603.0;1519.0;;;;-0.16741945;0.91147244;-0.04815293;;;;;;;;;;;;;;;
1603.0;1519.0;;;;-0.16373827;0.91302884;-0.045707706;;;;;;;;;;;;;;;
1603.0;1519.0;;;;-0.1608925;0.9161569;-0.043483738;;;;;;;;;;;;;;;
1603.0;1521.3;212863;262143;7668;;;;;;;;;;;;;;;;;;
1603.0;1527.6;;;;;;;;;;;;;-26921;;;;;;;;
1603.0;1527.6;;;;;;;;;;;;;-24735;;;;;;;;
1603.0;1527.6;;;;;;;;;;;;;-22236;;;;;;;;
1603.0;1527.6;;;;;;;;;;;;;-19974;;;;;;;;
1603.0;1527.6;;;;;;;;;;;;;-18293;;;;;;;;
1604.0;1529.2;;;;-0.15836336;0.92040646;-0.04220963;;;;;;;;;;;;;;;
1604.0;1529.2;;;;-0.15546037;0.92541134;-0.0402031;;;;;;;;;;;;;;;
1604.0;1529.2;;;;-0.15259553;0.9284593;-0.038673405;;;;;;;;;;;;;;;
1604.0;1529.2;;;;-0.14854814;0.93145;-0.03673554;;;;;;;;;;;;;;;
1604.0;1529.2;;;;-0.14556123;0.93343747;-0.03433991;;;;;;;;;;;;;;;
1604.0;1539.3;;;;-0.1429558;0.93673337;-0.03351975;;;;;;;;;;;;;;;
1604.0;1539.3;;;;-0.13988115;0.9387475;-0.031578068;;;;;;;;;;;;;;;
1604.0;1539.3;;;;-0.13757707;0.93859494;-0.028865818;;;;;;;;;;;;;;;
1604.0;1539.3;;;;-0.13505556;0.9396745;-0.026348118;;;;;;;;;;;;;;;
1604.0;1539.3;;;;-0.13202287;0.9410325;-0.024086002;;;;;;;;;;;;;;;
1604.0;1539.5;;;;;;;;;;;;;;;;;-18.108921;26.135288;19.95529;;1418.0
1604.0;1539.5;;;;;;;;;;;;;;-0.106387526;0.92324597;-0.2794885;;;;;1418.0
1604.0;1539.5;;;;;;;;;;;;;;;;;-18.402662;25.894955;18.826105;;1418.0
1604.0;1539.5;;;;;;;;;;;;;;-0.12164678;0.9278237;-0.27692497;;;;;1418.0
1604.0;1539.5;;;;;;;;;;;;;;;;;-18.452253;25.17014;17.941069;;1427.7
1604.0;1539.5;;;;;;;;;;;;;;-0.1276284;0.9326457;-0.28022096;;;;;1427.7
1604.0;1539.5;;;;;;;;;;;;;;;;;-17.73507;24.231697;16.79281;;1427.7
1604.0;1539.5;;;;;;;;;;;;;;-0.1353801;0.9302652;-0.2827235;;;;;1427.7
1604.0;1539.5;;;;;;;;;;;;;;;;;-16.331219;23.018585;15.503403;;1437.3
1604.0;1539.5;;;;;;;;;;;;;;-0.14880826;0.9356975;-0.28040406;;;;;1437.3
1604.0;1539.5;;;;;;;;;;;;;;;;;-14.915922;21.355328;14.347514;;1437.3
1604.0;1539.5;;;;;;;;;;;;;;-0.14679404;0.9403973;-0.28284556;;;;;1437.3
1660.0;1540.4;;;;;;;;;;;;;;;;;-13.748589;20.401623;12.775811;;1446.9
1660.0;1540.4;;;;;;;;;;;;;;-0.14087345;0.94662315;-0.2837611;;;;;1446.9
1660.0;1540.4;;;;;;;;;;;;;;;;;-13.294626;20.695364;9.754478;;1446.9
1660.0;1540.4;;;;;;;;;;;;;;-0.14398633;0.95651114;-0.28058717;;;;;1446.9
1660.0;1540.4;;;;;;;;;;;;;;;;;-12.226479;21.279032;6.611072;;1456.5
1660.0;1540.4;;;;;;;;;;;;;;-0.15692617;0.9651784;-0.27771842;;;;;1456.5
1660.0;1540.4;;;;;;;;;;;;;;;;;-10.917997;21.259956;7.0345163;;1456.5
1660.0;1540.4;;;;;;;;;;;;;;-0.16754662;0.9713431;-0.2804651;;;;;1456.5
1660.0;1540.4;;;;;;;;;;;;;;;;;-9.949034;21.633808;6.7522206;;1466.2
1660.0;1540.4;;;;;;;;;;;;;;-0.17169714;0.98641926;-0.27216408;;;;;1466.2
1660.0;1540.4;;;;;;;;;;;;;;;;;-10.074923;22.423473;5.7908874;;1466.2
1660.0;1540.4;;;;;;;;;;;;;;-0.18066958;0.98532057;-0.26422927;;;;;1466.2
1660.0;1541.4;212828;262143;7666;;;;;;;;;;;;;;;;;;
1660.0;1549.1;;;;-0.1302147;0.94381726;-0.021743776;;;;;;;;;;;;;;;
1660.0;1549.1;;;;-0.12773897;0.94498837;-0.019401552;;;;;;;;;;;;;;;
1660.0;1549.1;;;;-0.125515;0.94552624;-0.018005373;;;;;;;;;;;;;;;
1660.0;1549.1;;;;-0.122676864;0.9461938;-0.015010836;;;;;;;;;;;;;;;
1660.0;1549.1;;;;-0.120841995;0.9482194;-0.013095858;;;;;;;;;;;;;;;
1663.0;1554.5;;;;;;;;;;;;;;;;;-10.917997;23.403881;4.4709616;;1475.9
1663.0;1554.5;;;;;;;;;;;;;;-0.19318217;0.9767144;-0.25397503;;;;;1475.9
1663.0;1554.5;;;;;;;;;;;;;;;;;-11.429182;23.796808;2.9564807;;1475.9
1663.0;1554.5;;;;;;;;;;;;;;-0.19745475;0.95468;-0.24976349;;;;;1475.9
1663.0;1554.5;;;;;;;;;;;;;;;;;-11.211737;23.281807;1.4343699;;1485.5
1663.0;1554.5;;;;;;;;;;;;;;-0.19495223;0.92287976;-0.25452438;;;;;1485.5
1663.0;1554.5;;;;;;;;;;;;;;;;;-10.059664;21.61092;0.07248146;;1485.5
1663.0;1554.5;;;;;;;;;;;;;;-0.19183935;0.89779353;-0.27607045;;;;;1485.5
1663.0;1554.5;;;;;;;;;;;;;;;;;-8.396405;19.428846;-1.3237404;;1495.1
1663.0;1554.5;;;;;;;;;;;;;;-0.18573564;0.8775292;-0.30182806;;;;;1495.1
1663.0;1554.5;;;;;;;;;;;;;;;;;-6.9620347;17.288734;-2.6894438;;1495.1
1663.0;1554.5;;;;;;;;;;;;;;-0.18866542;0.85348064;-0.3319193;;;;;1495.1
1663.0;1559.0;;;;-0.118179336;0.9511529;-0.011383058;;;;;;;;;;;;;;;
1663.0;1559.0;;;;-0.115612045;0.95412076;-0.009265901;;;;;;;;;;;;;;;
1663.0;1559.0;;;;-0.11342622;0.9568826;-0.0071525583;;;;;;;;;;;;;;;
1663.0;1559.0;;;;-0.10996248;0.9598619;-0.0041809087;;;;;;;;;;;;;;;
1663.0;1559.0;;;;-0.10705568;0.963215;-0.002433777;;;;;;;;;;;;;;;
1663.0;1561.4;212748;262143;7660;;;;;;;;;;;;;;;;;;
1663.0;1567.6;;;;;;;;;;;;;-16893;;;;;;;;
1663.0;1567.6;;;;;;;;;;;;;-15532;;;;;;;;
1663.0;1567.6;;;;;;;;;;;;;-14255;;;;;;;;
1663.0;1567.6;;;;;;;;;;;;;-13138;;;;;;;;
1663.0;1567.6;;;;;;;;;;;;;-12061;;;;;;;;
1665.0;1569.0;;;;-0.10513307;0.96649563;6.103516E-4;;;;;;;;;;;;;;;
1665.0;1569.0;;;;-0.102268234;0.97140896;0.0040931706;;;;;;;;;;;;;;;
1665.0;1569.0;;;;-0.09987642;0.97698987;0.0070762644;;;;;;;;;;;;;;;
1665.0;1569.0;;;;-0.09851457;0.98355114;0.010303498;;;;;;;;;;;;;;;
1665.0;1569.0;;;;-0.09679796;0.99045956;0.012680056;;;;;;;;;;;;;;;
1665.0;1579.0;;;;-0.09581758;0.9976312;0.015796663;;;;;;;;;;;;;;;
1665.0;1579.0;;;;-0.09568025;1.0050889;0.019287111;;;;;;;;;;;;;;;
1665.0;1579.0;;;;-0.09586717;1.0135728;0.02188492;;;;;;;;;;;;;;;
1665.0;1579.0;;;;-0.09601976;1.022709;0.026714329;;;;;;;;;;;;;;;
1665.0;1579.0;;;;-0.09694292;1.0307695;0.030776981;;;;;;;;;;;;;;;
1665.0;1581.4;212768;262143;7666;;;;;;;;;;;;;;;;;;
1665.0;1589.1;;;;-0.09724428;1.0404245;0.03488541;;;;;;;;;;;;;;;
1665.0;1589.1;;;;-0.09818269;1.0500566;0.03860474;;;;;;;;;;;;;;;
1665.0;1589.1;;;;-0.09927751;1.0580064;0.042465214;;;;;;;;;;;;;;;
1665.0;1589.1;;;;-0.100612655;1.066845;0.04688645;;;;;;;;;;;;;;;
1665.0;1589.1;;;;-0.102893844;1.0748216;0.049682625;;;;;;;;;;;;;;;
1665.0;1599.2;;;;-0.10548784;1.0837632;0.052162178;;;;;;;;;;;;;;;
1665.0;1599.2;;;;-0.106346145;1.0924188;0.055950172;;;;;;;;;;;;;;;
1665.0;1599.2;;;;-0.10761644;1.1016427;0.058666237;;;;;;;;;;;;;;;
1665.0;1599.2;;;;-0.10911943;1.1114236;0.05971528;;;;;;;;;;;;;;;
1665.0;1599.2;;;;-0.11065294;1.1220094;0.06163407;;;;;;;;;;;;;;;
1666.0;1601.7;212773;262143;7669;;;;;;;;;;;;;;;;;;
1666.0;1607.3;;;;;;;;;;;;;;;;;-5.6001463;15.259254;-4.1924806;;1504.6
1666.0;1607.3;;;;;;;;;;;;;;-0.19605091;0.8399304;-0.35920286;;;;;1504.6
1666.0;1607.3;;;;;;;;;;;;;;;;;-4.520554;13.508256;-5.8671837;;1504.6
1666.0;1607.3;;;;;;;;;;;;;;-0.20575579;0.83077484;-0.38471633;;;;;1504.6
1666.0;1607.3;;;;;;;;;;;;;;;;;-3.4714804;12.150182;-7.9233685;;1514.1
1666.0;1607.3;;;;;;;;;;;;;;-0.21906187;0.82381666;-0.40961942;;;;;1514.1
1666.0;1607.3;;;;;;;;;;;;;;;;;-2.8992584;11.2384405;-10.189367;;1514.1
1666.0;1607.3;;;;;;;;;;;;;;-0.23548082;0.83315533;-0.43519396;;;;;1514.1
1666.0;1607.3;;;;;;;;;;;;;;;;;-2.7733696;11.028626;-12.897885;;1523.7
1666.0;1607.3;;;;;;;;;;;;;;-0.2598346;0.84627825;-0.46351513;;;;;1523.7
1666.0;1607.3;;;;;;;;;;;;;;;;;-2.967925;11.2880335;-16.022219;;1523.7
1666.0;1607.3;;;;;;;;;;;;;;-0.29242834;0.86434525;-0.5034944;;;;;1523.7
1666.0;1607.8;;;;;;;;;;;;;-10595;;;;;;;;
1666.0;1607.8;;;;;;;;;;;;;-8742;;;;;;;;
1666.0;1607.8;;;;;;;;;;;;;-7173;;;;;;;;
1666.0;1607.8;;;;;;;;;;;;;-6116;;;;;;;;
1666.0;1607.8;;;;;;;;;;;;;-5395;;;;;;;;
1666.0;1609.2;;;;-0.11255266;1.1326791;0.06371308;;;;;;;;;;;;;;;
1666.0;1609.2;;;;-0.11424257;1.1442453;0.0648346;;;;;;;;;;;;;;;
1666.0;1609.2;;;;-0.11599733;1.1553994;0.06640244;;;;;;;;;;;;;;;
1666.0;1609.2;;;;-0.11777879;1.1661874;0.06649781;;;;;;;;;;;;;;;
1666.0;1609.2;;;;-0.11853029;1.1771051;0.06788636;;;;;;;;;;;;;;;
1782.0;1619.2;;;;-0.11972429;1.1882554;0.06861878;;;;;;;;;;;;;;;
1782.0;1619.2;;;;-0.122085586;1.1992303;0.06962968;;;;;;;;;;;;;;;
1782.0;1619.2;;;;-0.124950424;1.2087861;0.0697136;;;;;;;;;;;;;;;
1782.0;1619.2;;;;-0.1279793;1.218094;0.071163185;;;;;;;;;;;;;;;
1782.0;1619.2;;;;-0.13227464;1.2261392;0.07156754;;;;;;;;;;;;;;;
1782.0;1621.7;212822;262143;7670;;;;;;;;;;;;;;;;;;
1782.0;1629.2;;;;-0.13575365;1.2323762;0.073192604;;;;;;;;;;;;;;;
1782.0;1629.2;;;;-0.13913728;1.2381479;0.074184425;;;;;;;;;;;;;;;
1782.0;1629.2;;;;-0.14429475;1.2434999;0.0759697;;;;;;;;;;;;;;;
1782.0;1629.2;;;;-0.14992906;1.2478715;0.078170784;;;;;;;;;;;;;;;
1782.0;1629.2;;;;-0.15429308;1.2502481;0.08000184;;;;;;;;;;;;;;;
1782.0;1639.1;;;;-0.15784456;1.2508165;0.08342362;;;;;;;;;;;;;;;
1782.0;1639.1;;;;-0.162838;1.2508699;0.08752442;;;;;;;;;;;;;;;
1782.0;1639.1;;;;-0.16714479;1.2498437;0.09318925;;;;;;;;;;;;;;;
1782.0;1639.1;;;;-0.17095949;1.2483789;0.098720565;;;;;;;;;;;;;;;
1782.0;1639.1;;;;-0.17559434;1.2450639;0.103008285;;;;;;;;;;;;;;;
1782.0;1641.7;212879;262143;7670;;;;;;;;;;;;;;;;;;
1782.0;1647.9;;;;;;;;;;;;;-4666;;;;;;;;
1782.0;1647.9;;;;;;;;;;;;;-3183;;;;;;;;
1782.0;1647.9;;;;;;;;;;;;;-1115;;;;;;;;
1782.0;1647.9;;;;;;;;;;;;;101;;;;;;;;
1782.0;1647.9;;;;;;;;;;;;;-1826;;;;;;;;
1901.0;1649.2;;;;-0.18019487;1.2396089;0.10709001;;;;;;;;;;;;;;;
1901.0;1649.2;;;;-0.18395616;1.2341272;0.11208345;;;;;;;;;;;;;;;
1901.0;1649.2;;;;-0.18937686;1.227192;0.11936571;;;;;;;;;;;;;;;
1901.0;1649.2;;;;-0.19580081;1.219021;0.12673952;;;;;;;;;;;;;;;
1901.0;1649.2;;;;-0.20162585;1.2112504;0.1340027;;;;;;;;;;;;;;;
1901.0;1659.3;;;;-0.2040787;1.2044603;0.14057542;;;;;;;;;;;;;;;
1901.0;1659.3;;;;-0.20880893;1.196396;0.14695741;;;;;;;;;;;;;;;
1901.0;1659.3;;;;-0.21326831;1.1882402;0.15482332;;;;;;;;;;;;;;;
1901.0;1659.3;;;;-0.22022632;1.1800843;0.1622696;;;;;;;;;;;;;;;
1901.0;1659.3;;;;-0.22272876;1.1730958;0.16854097;;;;;;;;;;;;;;;
1901.0;1662.0;213141;262143;7670;;;;;;;;;;;;;;;;;;
1901.0;1669.4;;;;-0.2317467;1.165207;0.17673494;;;;;;;;;;;;;;;
1901.0;1669.4;;;;-0.23534778;1.157509;0.18803409;;;;;;;;;;;;;;;
1901.0;1669.4;;;;-0.24328235;1.1497918;0.19997409;;;;;;;;;;;;;;;
1901.0;1669.4;;;;-0.24925235;1.1403733;0.2108002;;;;;;;;;;;;;;;
1901.0;1669.4;;;;-0.254921;1.13266;0.22179034;;;;;;;;;;;;;;;
1901.0;1679.4;;;;-0.2597008;1.1241876;0.22883227;;;;;;;;;;;;;;;
1901.0;1679.4;;;;-0.26628497;1.1135713;0.23560718;;;;;;;;;;;;;;;
1901.0;1679.4;;;;-0.2751427;1.1020166;0.24242404;;;;;;;;;;;;;;;
1901.0;1679.4;;;;-0.2833176;1.0891038;0.25055316;;;;;;;;;;;;;;;
1901.0;1679.4;;;;-0.29351047;1.0773965;0.2575455;;;;;;;;;;;;;;;
1906.0;1682.1;213458;262143;7649;;;;;;;;;;;;;;;;;;
1906.0;1688.3;;;;;;;;;;;;;-8737;;;;;;;;
1906.0;1688.3;;;;;;;;;;;;;-17149;;;;;;;;
1906.0;1688.3;;;;;;;;;;;;;-19160;;;;;;;;
1906.0;1688.3;;;;;;;;;;;;;-11157;;;;;;;;
1906.0;1688.3;;;;;;;;;;;;;1612;;;;;;;;
1906.0;1689.4;;;;-0.29922107;1.064766;0.26579288;;;;;;;;;;;;;;;
1906.0;1689.4;;;;-0.3065224;1.0521585;0.2749634;;;;;;;;;;;;;;;
1906.0;1689.4;;;;-0.30607226;1.041298;0.2815056;;;;;;;;;;;;;;;
1906.0;1689.4;;;;-0.3141289;1.0305177;0.28926852;;;;;;;;;;;;;;;
1906.0;1689.4;;;;-0.31730655;1.0202256;0.29909137;;;;;;;;;;;;;;;
1906.0;1699.5;;;;-0.32155612;1.0047189;0.30864337;;;;;;;;;;;;;;;
1906.0;1699.5;;;;-0.3309441;0.9906579;0.31414416;;;;;;;;;;;;;;;
1906.0;1699.5;;;;-0.3322716;0.9839364;0.3189545;;;;;;;;;;;;;;;
1906.0;1699.5;;;;-0.3338547;0.974743;0.3239403;;;;;;;;;;;;;;;
1906.0;1699.5;;;;-0.3424454;0.9625741;0.33028415;;;;;;;;;;;;;;;
1906.0;1702.3;213538;262143;7623;;;;;;;;;;;;;;;;;;
1906.0;1709.7;;;;-0.3428879;0.9547845;0.34078982;;;;;;;;;;;;;;;
1906.0;1709.7;;;;-0.3436089;0.94770825;0.34812167;;;;;;;;;;;;;;;
1906.0;1709.7;;;;-0.35798267;0.9381181;0.35201648;;;;;;;;;;;;;;;
1906.0;1709.7;;;;-0.36777118;0.9276773;0.36026385;;;;;;;;;;;;;;;
1906.0;1709.7;;;;-0.35992053;0.92539227;0.36347964;;;;;;;;;;;;;;;
1908.0;1719.7;;;;-0.36091998;0.9226457;0.36589053;;;;;;;;;;;;;;;
1908.0;1719.7;;;;-0.3639641;0.92147076;0.36903003;;;;;;;;;;;;;;;
1908.0;1719.7;;;;-0.36872485;0.9144174;0.37540442;;;;;;;;;;;;;;;
1908.0;1719.7;;;;-0.36766055;0.9065629;0.3800698;;;;;;;;;;;;;;;
1908.0;1719.7;;;;-0.3714638;0.90213406;0.38531882;;;;;;;;;;;;;;;
1908.0;1720.4;;;;;;;;;;;;;;;;;-3.3455918;11.185034;-19.688253;;1533.4
1908.0;1720.4;;;;;;;;;;;;;;-0.33088169;0.8862575;-0.5414594;;;;;1533.4
1908.0;1720.4;;;;;;;;;;;;;;;;;-4.40611;11.001924;-23.594624;;1533.4
1908.0;1720.4;;;;;;;;;;;;;;-0.3681753;0.908536;-0.5726493;;;;;1533.4
1908.0;1720.4;;;;;;;;;;;;;;;;;-5.813776;11.318552;-27.768028;;1543.0
1908.0;1720.4;;;;;;;;;;;;;;-0.40119633;0.93313396;-0.60316783;;;;;1543.0
1908.0;1720.4;;;;;;;;;;;;;;;;;-7.229072;12.226479;-32.193214;;1543.0
1908.0;1720.4;;;;;;;;;;;;;;-0.44013795;0.956267;-0.62581253;;;;;1543.0
1908.0;1720.4;;;;;;;;;;;;;;;;;-8.735923;14.126255;-36.97699;;1552.6
1908.0;1720.4;;;;;;;;;;;;;;-0.484756;0.9691458;-0.6441847;;;;;1552.6
1908.0;1720.4;;;;;;;;;;;;;;;;;-9.895626;17.040771;-42.195656;;1552.6
1908.0;1720.4;;;;;;;;;;;;;;-0.53474534;0.97341835;-0.6642659;;;;;1552.6
1909.0;1721.3;;;;;;;;;;;;;;;;;-10.597552;20.634327;-48.116245;;1562.2
1909.0;1721.3;;;;;;;;;;;;;;-0.59694207;0.9772637;-0.6715903;;;;;1562.2
1909.0;1721.3;;;;;;;;;;;;;;;;;-11.383404;24.410994;-54.616688;;1562.2
1909.0;1721.3;;;;;;;;;;;;;;-0.6608478;0.9823908;-0.6573077;;;;;1562.2
1909.0;1721.3;;;;;;;;;;;;;;;;;-12.646107;28.56151;-61.5215;;1571.8
1909.0;1721.3;;;;;;;;;;;;;;-0.72505873;0.97885066;-0.6164129;;;;;1571.8
1909.0;1721.3;;;;;;;;;;;;;;;;;-13.248848;33.40251;-68.54457;;1571.8
1909.0;1721.3;;;;;;;;;;;;;;-0.7983642;0.9643239;-0.55342263;;;;;1571.8
1909.0;1721.3;;;;;;;;;;;;;;;;;-11.909848;37.923065;-75.392166;;1581.5
1909.0;1721.3;;;;;;;;;;;;;;-0.86391795;0.95522934;-0.49067658;;;;;1581.5
1909.0;1721.3;;;;;;;;;;;;;;;;;-8.0835905;41.222878;-82.31223;;1581.5
1909.0;1721.3;;;;;;;;;;;;;;-0.9241615;0.9602344;-0.44099247;;;;;1581.5
1909.0;1722.5;;;;;;;;;;;;;;;;;-2.6894438;43.034916;-89.71678;;1591.1
1909.0;1722.5;;;;;;;;;;;;;;-1.0229194;0.969573;-0.3850215;;;;;1591.1
1909.0;1722.5;;;;;;;;;;;;;;;;;4.6578875;41.657764;-97.17475;;1591.1
1909.0;1722.5;;;;;;;;;;;;;;-1.0258492;1.0367748;-0.33875546;;;;;1591.1
1909.0;1722.5;;;;;;;;;;;;;;;;;10.44496;42.188026;-101.73727;;1600.8
1909.0;1722.5;;;;;;;;;;;;;;-0.9284341;1.170629;-0.29206213;;;;;1600.8
1909.0;1722.5;;;;;;;;;;;;;;;;;9.544664;46.071503;-106.26545;;1600.8
1909.0;1722.5;;;;;;;;;;;;;;-0.9543138;1.2040162;-0.2580645;;;;;1600.8
1909.0;1722.5;;;;;;;;;;;;;;;;;10.23896;44.17173;-109.97344;;1610.4
1909.0;1722.5;;;;;;;;;;;;;;-0.9222083;1.208716;-0.27161473;;;;;1610.4
1909.0;1722.5;;;;;;;;;;;;;;;;;16.251106;38.1901;-113.3343;;1610.4
1909.0;1722.5;;;;;;;;;;;;;;-0.8777123;1.2241584;-0.3112888;;;;;1610.4
1912.0;1722.3;213722;262143;7575;;;;;;;;;;;;;;;;;;
1912.0;1723.3;;;;;;;;;;;;;;;;;21.916105;30.19425;-116.62267;;1620.1
1912.0;1723.3;;;;;;;;;;;;;;-0.81856745;1.2039552;-0.3442488;;;;;1620.1
1912.0;1723.3;;;;;;;;;;;;;;;;;29.057436;22.682882;-118.987854;;1620.1
1912.0;1723.3;;;;;;;;;;;;;;-0.6938078;1.1713004;-0.3979003;;;;;1620.1
1912.0;1723.3;;;;;;;;;;;;;;;;;37.24021;17.143772;-121.131775;;1629.5
1912.0;1723.3;;;;;;;;;;;;;;-0.61867124;1.1488388;-0.3882565;;;;;1629.5
1912.0;1723.3;;;;;;;;;;;;;;;;;40.28443;9.548479;-123.85937;;1629.5
1912.0;1723.3;;;;;;;;;;;;;;-0.5880917;1.1834468;-0.3043306;;;;;1629.5
1912.0;1723.3;;;;;;;;;;;;;;;;;40.444653;-0.49211097;-124.85122;;1639.2
1912.0;1723.3;;;;;;;;;;;;;;-0.54414505;1.2178106;-0.21692556;;;;;1639.2
1912.0;1723.3;;;;;;;;;;;;;;;;;37.37373;-13.374737;-124.96185;;1639.2
1912.0;1723.3;;;;;;;;;;;;;;-0.46821496;1.2544938;-0.1612598;;;;;1639.2
1961.0;1727.7;;;;;;;;;;;;;;;;;33.471176;-27.958769;-124.9733;;1648.9
1961.0;1727.7;;;;;;;;;;;;;;-0.34913176;1.2723777;-0.1655324;;;;;1648.9
1961.0;1727.7;;;;;;;;;;;;;;;;;33.734398;-41.24195;-124.946594;;1648.9
1961.0;1727.7;;;;;;;;;;;;;;-0.21558276;1.3232216;-0.15997803;;;;;1648.9
1961.0;1727.7;;;;;;;;;;;;;;;;;33.69625;-54.990536;-124.31333;;1658.5
1961.0;1727.7;;;;;;;;;;;;;;-0.054628134;1.3787652;-0.16241951;;;;;1658.5
1961.0;1727.7;;;;;;;;;;;;;;;;;33.059177;-67.73583;-122.16177;;1658.5
1961.0;1727.7;;;;;;;;;;;;;;0.08008057;1.4316232;-0.17102572;;;;;1658.5
1961.0;1727.7;;;;;;;;;;;;;;;;;32.59377;-80.111084;-116.9126;;1668.1
1961.0;1727.7;;;;;;;;;;;;;;0.2334666;1.4947966;-0.1902524;;;;;1668.1
1961.0;1727.7;;;;;;;;;;;;;;;;;29.67925;-93.142494;-109.48515;;1668.1
1961.0;1727.7;;;;;;;;;;;;;;0.36732078;1.5582141;-0.2616657;;;;;1668.1
1961.0;1728.2;;;;;;;;;;;;;10245;;;;;;;;
1961.0;1728.2;;;;;;;;;;;;;11158;;;;;;;;
1961.0;1728.2;;;;;;;;;;;;;8275;;;;;;;;
1961.0;1728.2;;;;;;;;;;;;;7309;;;;;;;;
1961.0;1728.2;;;;;;;;;;;;;8949;;;;;;;;
1961.0;1729.4;;;;-0.37676245;0.90003216;0.3825875;;;;;;;;;;;;;;;
1961.0;1729.4;;;;-0.38322455;0.8938371;0.386715;;;;;;;;;;;;;;;
1961.0;1729.4;;;;-0.38151938;0.89623654;0.3950463;;;;;;;;;;;;;;;
1961.0;1729.4;;;;-0.37308505;0.9013635;0.40016943;;;;;;;;;;;;;;;
1961.0;1729.4;;;;-0.37375644;0.9059907;0.3949967;;;;;;;;;;;;;;;
1961.0;1738.9;;;;;;;;;;0.9498886;13.611256;-0.4463332;;;;;;;;;
1961.0;1738.9;;;;;;;0.09552293;-1.0243232;0.050965913;;;;;;;;;;;;
1961.0;1738.9;;;;;;;;;;6.6873684;33.833584;9.788812;;;;;;;;;
1961.0;1738.9;;;;;;;0.106387526;-1.1643422;0.058107242;;;;;;;;;;;;
1964.0;1739.4;;;;-0.36471942;0.91339886;0.3979798;;;;;;;;;;;;;;;
1964.0;1739.4;;;;-0.362381;0.9143945;0.39718634;;;;;;;;;;;;;;;
1964.0;1739.4;;;;-0.3688927;0.9149972;0.4147492;;;;;;;;;;;;;;;
1964.0;1739.4;;;;-0.351635;0.93244946;0.48231512;;;;;;;;;;;;;;;
1964.0;1739.4;;;;-0.3320847;0.9547311;0.56713873;;;;;;;;;;;;;;;
1964.0;1742.3;212702;262143;7564;;;;;;;;;;;;;;;;;;
1964.0;1748.6;;;;;;;;;;4.5319986;13.695181;6.2448497;;;;;;;;;
1964.0;1748.6;;;;;;;0.10998871;-1.1822871;0.054628134;;;;;;;;;;;;
1964.0;1748.6;;;;;;;;;;18.055513;27.760399;2.4262216;;;;;;;;;
1964.0;1748.6;;;;;;;0.11169775;-1.1932737;0.052369762;;;;;;;;;;;;
1964.0;1749.4;;;;-0.27009967;0.9660989;0.6164399;;;;;;;;;;;;;;;
1964.0;1749.4;;;;-0.15549089;0.95891964;0.5977593;;;;;;;;;;;;;;;
1964.0;1749.4;;;;-0.017208101;0.92632306;0.44442374;;;;;;;;;;;;;;;
1964.0;1749.4;;;;0.09218598;0.87464154;0.29791644;;;;;;;;;;;;;;;
1964.0;1749.4;;;;0.10954286;0.8398782;0.2635651;;;;;;;;;;;;;;;
1964.0;1758.0;;;;;;;;;;33.03629;47.50969;1.1520737;;;;;;;;;
1964.0;1758.0;;;;;;;0.105166785;-1.2087771;0.04571673;;;;;;;;;;;;
1964.0;1758.0;;;;;;;;;;42.123173;17.529068;-29.70977;;;;;;;;;
1964.0;1758.0;;;;;;;0.10229804;-1.2255013;0.041688286;;;;;;;;;;;;
1965.0;1759.4;;;;0.014083864;0.87184155;0.3004723;;;;;;;;;;;;;;;
1965.0;1759.4;;;;-0.10638429;0.97402203;0.418171;;;;;;;;;;;;;;;
1965.0;1759.4;;;;-0.22198871;1.1134416;0.59597784;;;;;;;;;;;;;;;
1965.0;1759.4;;;;-0.3583031;1.2502633;0.752514;;;;;;;;;;;;;;;
1965.0;1759.4;;;;-0.42084128;1.3792917;0.9069711;;;;;;;;;;;;;;;
1965.0;1762.3;212125;262143;7527;;;;;;;;;;;;;;;;;;
1965.0;1767.6;;;;;;;;;;57.43965;22.614216;-38.876766;;;;;;;;;
1965.0;1767.6;;;;;;;0.10235908;-1.2490616;0.041322064;;;;;;;;;;;;
1965.0;1767.6;;;;;;;;;;74.25535;27.554398;-48.028503;;;;;;;;;
1965.0;1767.6;;;;;;;0.10095523;-1.2755517;0.040711693;;;;;;;;;;;;
1965.0;1768.4;;;;;;;;;;;;;10323;;;;;;;;
1965.0;1768.4;;;;;;;;;;;;;10589;;;;;;;;
1965.0;1768.4;;;;;;;;;;;;;10300;;;;;;;;
1965.0;1768.4;;;;;;;;;;;;;10398;;;;;;;;
1965.0;1768.4;;;;;;;;;;;;;11614;;;;;;;;
1965.0;1769.5;;;;-0.37953192;1.5134394;1.062729;;;;;;;;;;;;;;;
1965.0;1769.5;;;;-0.23629382;1.6121752;1.1969224;;;;;;;;;;;;;;;
1965.0;1769.5;;;;0.012470247;1.6588557;1.3529664;;;;;;;;;;;;;;;
1965.0;1769.5;;;;0.30990222;1.6910403;1.476883;;;;;;;;;;;;;;;
1965.0;1769.5;;;;0.65533835;1.7332194;1.5823252;;;;;;;;;;;;;;;
1965.0;1777.2;;;;;;;;;;90.32334;35.794395;-52.701653;;;;;;;;;
1965.0;1777.2;;;;;;;0.09845271;-1.3040559;0.04260384;;;;;;;;;;;;
1965.0;1777.2;;;;;;;;;;98.37642;42.48558;-49.87869;;;;;;;;;
1965.0;1777.2;;;;;;;0.10022279;-1.3284097;0.046143986;;;;;;;;;;;;
1967.0;1779.6;;;;0.9737359;1.7386439;1.6375506;;;;;;;;;;;;;;;
1967.0;1779.6;;;;1.2743722;1.6663096;1.6738894;;;;;;;;;;;;;;;
1967.0;1779.6;;;;1.506737;1.5223887;1.6846201;;;;;;;;;;;;;;;
1967.0;1779.6;;;;1.6523287;1.3913957;1.6932871;;;;;;;;;;;;;;;
1967.0;1779.6;;;;1.6839297;1.2585298;1.6654856;;;;;;;;;;;;;;;
1967.0;1780.5;;;;;;;;;;;;;;;;;33.978542;-105.85727;-100.39063;;1677.6
1967.0;1780.5;;;;;;;;;;;;;;0.54664755;1.6522721;-0.31592762;;;;;1677.6
1967.0;1780.5;;;;;;;;;;;;;;;;;36.301765;-118.76278;-84.826195;;1677.6
1967.0;1780.5;;;;;;;;;;;;;;0.7226783;1.6942656;-0.37562183;;;;;1677.6
1967.0;1780.5;;;;;;;;;;;;;;;;;33.116398;-124.46593;-68.964195;;1687.1
1967.0;1780.5;;;;;;;;;;;;;;0.8344371;1.6584979;-0.42182684;;;;;1687.1
1967.0;1780.5;;;;;;;;;;;;;;;;;29.274881;-124.988556;-61.490982;;1687.1
1967.0;1780.5;;;;;;;;;;;;;;0.87112033;1.513657;-0.51313823;;;;;1687.1
1967.0;1780.5;;;;;;;;;;;;;;;;;30.16373;-124.988556;-61.990723;;1696.7
1967.0;1780.5;;;;;;;;;;;;;;0.88790554;1.3559984;-0.63472396;;;;;1696.7
1967.0;1780.5;;;;;;;;;;;;;;;;;34.932247;-124.59563;-64.512314;;1696.7
1967.0;1780.5;;;;;;;;;;;;;;0.88753927;1.2112796;-0.7068697;;;;;1696.7
1967.0;1782.5;213035;262143;7545;;;;;;;;;;;;;;;;;;
1967.0;1786.7;;;;;;;;;;103.652306;37.15247;-51.854763;;;;;;;;;
1967.0;1786.7;;;;;;;0.09607227;-1.3555101;0.049745172;;;;;;;;;;;;
1967.0;1786.7;;;;;;;;;;109.07316;31.029694;-53.506577;;;;;;;;;
1967.0;1786.7;;;;;;;0.09009064;-1.3762016;0.048646506;;;;;;;;;;;;
1968.0;1788.3;;;;;;;;;;;;;;;;;37.743767;-109.950554;-77.528465;;1706.4
1968.0;1788.3;;;;;;;;;;;;;;0.8407239;0.97201455;-0.7521592;;;;;1706.4
1968.0;1788.3;;;;;;;;;;;;;;;;;44.770653;-75.41887;-95.25208;;1706.4
1968.0;1788.3;;;;;;;;;;;;;;0.7137669;0.9439375;-0.7676626;;;;;1706.4
1968.0;1788.3;;;;;;;;;;;;;;;;;58.80917;-37.77047;-108.75271;;1716.0
1968.0;1788.3;;;;;;;;;;;;;;0.62031925;1.0597247;-0.6977752;;;;;1716.0
1968.0;1788.3;;;;;;;;;;;;;;;;;67.17506;-0.08011109;-109.01212;;1716.0
1968.0;1788.3;;;;;;;;;;;;;;0.66536456;1.0455642;-0.6614582;;;;;1716.0
1968.0;1788.3;;;;;;;;;;;;;;;;;76.2772;40.223396;-107.6426;;1725.6
1968.0;1788.3;;;;;;;;;;;;;;0.5047151;1.0987273;-0.60817283;;;;;1725.6
1968.0;1788.3;;;;;;;;;;;;;;;;;97.27775;71.96265;-118.75515;;1725.6
1968.0;1788.3;;;;;;;;;;;;;;0.35639516;1.073275;-0.5790582;;;;;1725.6
1968.0;1789.5;;;;1.4431459;1.1517564;1.6198847;;;;;;;;;;;;;;;
1968.0;1789.5;;;;1.0960962;1.1873552;1.5428927;;;;;;;;;;;;;;;
1968.0;1789.5;;;;0.83478177;1.2465669;1.503689;;;;;;;;;;;;;;;
1968.0;1789.5;;;;0.5829163;1.2470018;1.4742242;;;;;;;;;;;;;;;
1968.0;1789.5;;;;0.2680588;1.2004815;1.412861;;;;;;;;;;;;;;;
1968.0;1796.1;;;;;;;;;;114.406265;24.571217;-54.990536;;;;;;;;;
1968.0;1796.1;;;;;;;0.09253212;-1.3950621;0.044557024;;;;;;;;;;;;
1968.0;1796.1;;;;;;;;;;119.44563;17.91055;-56.993317;;;;;;;;;
1968.0;1796.1;;;;;;;0.08783227;-1.4045229;0.037415694;;;;;;;;;;;;
1969.0;1799.5;;;;0.0020027163;1.2156831;1.3808519;;;;;;;;;;;;;;;
1969.0;1799.5;;;;-0.10342027;1.2621537;1.3557092;;;;;;;;;;;;;;;
1969.0;1799.5;;;;-0.11969377;1.2861711;1.3318635;;;;;;;;;;;;;;;
1969.0;1799.5;;;;-0.080673225;1.3093492;1.314602;;;;;;;;;;;;;;;
1969.0;1799.5;;;;-0.08790589;1.3501626;1.2705537;;;;;;;;;;;;;;;
1969.0;1802.5;213285;262143;7544;;;;;;;;;;;;;;;;;;
1969.0;1805.8;;;;;;;;;;122.95526;11.089663;-59.36613;;;;;;;;;
1969.0;1805.8;;;;;;;0.087710194;-1.4072084;0.031311993;;;;;;;;;;;;
1969.0;1805.8;;;;;;;;;;124.67574;4.0093694;-61.635944;;;;;;;;;
1969.0;1805.8;;;;;;;0.08117924;-1.4039124;0.023987548;;;;;;;;;;;;
1969.0;1808.6;;;;;;;;;;;;;12802;;;;;;;;
1969.0;1808.6;;;;;;;;;;;;;12982;;;;;;;;
1969.0;1808.6;;;;;;;;;;;;;12764;;;;;;;;
1969.0;1808.6;;;;;;;;;;;;;13002;;;;;;;;
1969.0;1808.6;;;;;;;;;;;;;13786;;;;;;;;
1969.0;1809.6;;;;-0.12584306;1.3980485;1.2077752;;;;;;;;;;;;;;;
1969.0;1809.6;;;;-0.20230487;1.4439698;1.146721;;;;;;;;;;;;;;;
1969.0;1809.6;;;;-0.262188;1.4386178;1.103798;;;;;;;;;;;;;;;
1969.0;1809.6;;;;-0.33250812;1.3793031;1.0615655;;;;;;;;;;;;;;;
1969.0;1809.6;;;;-0.39514548;1.3041612;1.0127488;;;;;;;;;;;;;;;
1969.0;1815.4;;;;;;;;;;124.881744;-3.257851;-63.531906;;;;;;;;;
1969.0;1815.4;;;;;;;0.08197272;-1.3961607;0.017761772;;;;;;;;;;;;
1969.0;1815.4;;;;;;;;;;124.881744;-11.303292;-65.7445;;;;;;;;;
1969.0;1815.4;;;;;;;0.083681755;-1.3873714;0.010132145;;;;;;;;;;;;
1972.0;1819.7;;;;-0.43730932;1.225586;0.96364987;;;;;;;;;;;;;;;
1972.0;1819.7;;;;-0.46680456;1.1493837;0.9211465;;;;;;;;;;;;;;;
1972.0;1819.7;;;;-0.48648077;1.0827104;0.8819772;;;;;;;;;;;;;;;
1972.0;1819.7;;;;-0.49686438;1.0195543;0.85034955;;;;;;;;;;;;;;;
1972.0;1819.7;;;;-0.5207711;0.96133816;0.8207017;;;;;;;;;;;;;;;
1972.0;1822.8;213442;262143;7566;;;;;;;;;;;;;;;;;;
1972.0;1825.0;;;;;;;;;;124.881744;-19.070253;-68.14783;;;;;;;;;
1972.0;1825.0;;;;;;;0.08630635;-1.3676565;0.0024414808;;;;;;;;;;;;
1972.0;1825.0;;;;;;;;;;124.881744;-27.024141;-70.45961;;;;;;;;;
1972.0;1825.0;;;;;;;0.09149449;-1.3467208;-0.0013428144;;;;;;;;;;;;
1972.0;1829.8;;;;-0.54505926;0.9127389;0.7813264;;;;;;;;;;;;;;;
1972.0;1829.8;;;;-0.5755349;0.86846936;0.73629767;;;;;;;;;;;;;;;
1972.0;1829.8;;;;-0.6274758;0.8462564;0.6909142;;;;;;;;;;;;;;;
1972.0;1829.8;;;;-0.66320807;0.83778393;0.64524084;;;;;;;;;;;;;;;
1972.0;1829.8;;;;-0.68135077;0.8319284;0.60137564;;;;;;;;;;;;;;;
1972.0;1834.6;;;;;;;;;;124.881744;-35.45106;-72.57301;;;;;;;;;
1972.0;1834.6;;;;;;;0.10010071;-1.3212683;-0.008972442;;;;;;;;;;;;
1972.0;1834.6;;;;;;;;;;124.881744;-43.984802;-74.579605;;;;;;;;;
1972.0;1834.6;;;;;;;0.10309152;-1.2951446;-0.010498367;;;;;;;;;;;;
1973.0;1839.9;;;;-0.69232947;0.8356515;0.5600701;;;;;;;;;;;;;;;
1973.0;1839.9;;;;-0.7080994;0.8453218;0.52153784;;;;;;;;;;;;;;;
1973.0;1839.9;;;;-0.690075;0.8601724;0.48489767;;;;;;;;;;;;;;;
1973.0;1839.9;;;;-0.6826363;0.86298764;0.45031363;;;;;;;;;;;;;;;
1973.0;1839.9;;;;-0.6668511;0.84749615;0.4159966;;;;;;;;;;;;;;;
1973.0;1843.0;213766;262143;7594;;;;;;;;;;;;;;;;;;
1973.0;1844.2;;;;;;;;;;124.881744;-52.301094;-76.1475;;;;;;;;;
1973.0;1844.2;;;;;;;0.11249123;-1.2618183;-0.014343699;;;;;;;;;;;;
1973.0;1844.2;;;;;;;;;;124.881744;-60.41139;-77.64672;;;;;;;;;
1973.0;1844.2;;;;;;;0.12060915;-1.2324595;-0.018860439;;;;;;;;;;;;
1973.0;1848.5;;;;;;;;;;;;;;;;;114.986115;94.100006;-122.1694;;1735.1
1973.0;1848.5;;;;;;;;;;;;;;0.2644734;0.9931944;-0.6178167;;;;;1735.1
1973.0;1848.5;;;;;;;;;;;;;;;;;124.546036;112.55226;-114.49019;;1735.1
1973.0;1848.5;;;;;;;;;;;;;;0.30243844;1.0434889;-0.65700245;;;;;1735.1
1973.0;1848.5;;;;;;;;;;;;;;;;;124.988556;123.043;-105.746635;;1744.8
1973.0;1848.5;;;;;;;;;;;;;;0.06225776;1.0919523;-0.51454204;;;;;1744.8
1973.0;1848.5;;;;;;;;;;;;;;;;;124.5117;105.67034;-114.31852;;1744.8
1973.0;1848.5;;;;;;;;;;;;;;-0.15033418;1.2870876;-0.38526568;;;;;1744.8
1973.0;1848.5;;;;;;;;;;;;;;;;;106.5096;96.9306;-112.907036;;1754.5
1973.0;1848.5;;;;;;;;;;;;;;-0.019959105;1.2523576;-0.39515367;;;;;1754.5
1973.0;1848.5;;;;;;;;;;;;;;;;;79.653305;92.56645;-98.18949;;1754.5
1973.0;1848.5;;;;;;;;;;;;;;-0.1015656;1.0539873;-0.34217352;;;;;1754.5
1974.0;1849.1;;;;;;;;;;;;;15048;;;;;;;;
1974.0;1849.1;;;;;;;;;;;;;16888;;;;;;;;
1974.0;1849.1;;;;;;;;;;;;;19313;;;;;;;;
1974.0;1849.1;;;;;;;;;;;;;22193;;;;;;;;
1974.0;1849.1;;;;;;;;;;;;;24796;;;;;;;;
1974.0;1849.2;;;;;;;;;;;;;;;;;72.55394;55.46739;-97.10227;;1764.2
1974.0;1849.2;;;;;;;;;;;;;;-0.17950988;1.1999267;-0.4918363;;;;;1764.2
1974.0;1849.2;;;;;;;;;;;;;;;;;56.253242;28.839993;-90.49501;;1764.2
1974.0;1849.2;;;;;;;;;;;;;;-0.17877743;1.1817378;-0.55079806;;;;;1764.2
1974.0;1849.2;;;;;;;;;;;;;;;;;39.170506;11.658071;-84.353165;;1773.9
1974.0;1849.2;;;;;;;;;;;;;;-0.12140263;1.117832;-0.55146945;;;;;1773.9
1974.0;1849.2;;;;;;;;;;;;;;;;;36.095768;1.7357402;-76.16657;;1773.9
1974.0;1849.2;;;;;;;;;;;;;;-0.08642842;1.084872;-0.4953154;;;;;1773.9
1974.0;1849.2;;;;;;;;;;;;;;;;;38.357952;-4.505295;-66.00009;;1783.5
1974.0;1849.2;;;;;;;;;;;;;;-0.041261025;1.1065401;-0.45954773;;;;;1783.5
1974.0;1849.2;;;;;;;;;;;;;;;;;35.70284;-6.7636647;-55.83361;;1783.5
1974.0;1849.2;;;;;;;;;;;;;;0.015381329;1.0613117;-0.4255501;;;;;1783.5
1974.0;1849.8;;;;-0.65868384;0.83742154;0.39210516;;;;;;;;;;;;;;;
1974.0;1849.8;;;;-0.63706213;0.80871975;0.36667255;;;;;;;;;;;;;;;
1974.0;1849.8;;;;-0.6140023;0.77295315;0.34037784;;;;;;;;;;;;;;;
1974.0;1849.8;;;;-0.6090928;0.74132925;0.3184586;;;;;;;;;;;;;;;
1974.0;1849.8;;;;-0.57913977;0.7143479;0.29691318;;;;;;;;;;;;;;;
1974.0;1853.6;;;;;;;;;;124.881744;-69.09009;-79.63042;;;;;;;;;
1974.0;1853.6;;;;;;;0.124881744;-1.2092655;-0.02252266;;;;;;;;;;;;
1974.0;1853.6;;;;;;;;;;124.881744;-77.36061;-81.610306;;;;;;;;;
1974.0;1853.6;;;;;;;0.126957;-1.1923581;-0.023865474;;;;;;;;;;;;
1976.0;1859.8;;;;-0.5555993;0.6933747;0.27544025;;;;;;;;;;;;;;;
1976.0;1859.8;;;;-0.522934;0.664692;0.25506213;;;;;;;;;;;;;;;
1976.0;1859.8;;;;-0.5037957;0.65585333;0.23884967;;;;;;;;;;;;;;;
1976.0;1859.8;;;;-0.47926337;0.65191275;0.2169533;;;;;;;;;;;;;;;
1976.0;1859.8;;;;-0.45240408;0.6542435;0.19289401;;;;;;;;;;;;;;;
1976.0;1863.1;;;;;;;;;;124.881744;-85.58535;-83.1286;;;;;;;;;
1976.0;1863.1;;;;;;;0.13098544;-1.1715446;-0.025330363;;;;;;;;;;;;
1976.0;1863.1;;;;;;;;;;124.881744;-93.85204;-84.65453;;;;;;;;;
1976.0;1863.1;;;;;;;0.13263345;-1.1496322;-0.027710807;;;;;;;;;;;;
1976.0;1863.0;213878;262143;7606;;;;;;;;;;;;;;;;;;
1976.0;1869.8;;;;-0.43560034;0.65673834;0.17115404;;;;;;;;;;;;;;;
1976.0;1869.8;;;;-0.43020254;0.6642304;0.15118028;;;;;;;;;;;;;;;
1976.0;1869.8;;;;-0.4294396;0.6744614;0.13450243;;;;;;;;;;;;;;;
1976.0;1869.8;;;;-0.4250756;0.6820794;0.119518295;;;;;;;;;;;;;;;
1976.0;1869.8;;;;-0.4139443;0.6943322;0.1096573;;;;;;;;;;;;;;;
1976.0;1872.5;;;;;;;;;;124.881744;-101.86697;-86.02023;;;;;;;;;
1976.0;1872.5;;;;;;;0.13666189;-1.1267433;-0.028992584;;;;;;;;;;;;
1976.0;1872.5;;;;;;;;;;124.881744;-109.76363;-87.30965;;;;;;;;;
1976.0;1872.5;;;;;;;0.13696708;-1.0979949;-0.024048585;;;;;;;;;;;;
1977.0;1879.5;;;;-0.40287405;0.7078782;0.108821884;;;;;;;;;;;;;;;
1977.0;1879.5;;;;-0.39192206;0.7149735;0.104152694;;;;;;;;;;;;;;;
1977.0;1879.5;;;;-0.3810578;0.71641165;0.1031685;;;;;;;;;;;;;;;
1977.0;1879.5;;;;-0.37225726;0.71805197;0.09983446;;;;;;;;;;;;;;;
1977.0;1879.5;;;;-0.35781482;0.71983343;0.09114457;;;;;;;;;;;;;;;
1977.0;1881.9;;;;;;;;;;124.881744;-116.86301;-88.57997;;;;;;;;;
1977.0;1881.9;;;;;;;0.14258248;-1.0826136;-0.026123844;;;;;;;;;;;;
1977.0;1881.9;;;;;;;;;;124.881744;-123.03537;-90.29664;;;;;;;;;
1977.0;1881.9;;;;;;;0.14484085;-1.0675985;-0.027893918;;;;;;;;;;;;
1977.0;1882.7;213663;262143;7604;;;;;;;;;;;;;;;;;;
1977.0;1888.8;;;;;;;;;;;;;26323;;;;;;;;
1977.0;1888.8;;;;;;;;;;;;;26651;;;;;;;;
1977.0;1888.8;;;;;;;;;;;;;26049;;;;;;;;
1977.0;1888.8;;;;;;;;;;;;;25129;;;;;;;;
1977.0;1888.8;;;;;;;;;;;;;24467;;;;;;;;
1977.0;1889.6;;;;-0.34232715;0.72409445;0.08397294;;;;;;;;;;;;;;;
1977.0;1889.6;;;;-0.33160022;0.7275582;0.07710267;;;;;;;;;;;;;;;
1977.0;1889.6;;;;-0.3233643;0.72824484;0.06840897;;;;;;;;;;;;;;;
1977.0;1889.6;;;;-0.3140793;0.73042303;0.0629387;;;;;;;;;;;;;;;
1977.0;1889.6;;;;-0.3074608;0.73107153;0.05957032;;;;;;;;;;;;;;;
1977.0;1891.5;;;;;;;;;;124.881744;-124.86648;-91.65852;;;;;;;;;
1977.0;1891.5;;;;;;;0.14813684;-1.0458083;-0.024292734;;;;;;;;;;;;
1977.0;1891.5;;;;;;;;;;124.6643;-124.881744;-92.577896;;;;;;;;;
1977.0;1891.5;;;;;;;0.15210426;-1.0226753;-0.025025178;;;;;;;;;;;;
1979.0;1899.7;;;;-0.30141452;0.7261582;0.052173622;;;;;;;;;;;;;;;
1979.0;1899.7;;;;-0.2947426;0.71988684;0.04503632;;;;;;;;;;;;;;;
1979.0;1899.7;;;;-0.29067233;0.70895773;0.04303742;;;;;;;;;;;;;;;
1979.0;1899.7;;;;-0.2877083;0.68648916;0.04213715;;;;;;;;;;;;;;;
1979.0;1899.7;;;;-0.2971764;0.66841894;0.04062653;;;;;;;;;;;;;;;
1979.0;1900.8;;;;;;;;;;;;;;;;;32.35725;-6.8857384;-45.899837;;1793.1
1979.0;1900.8;;;;;;;;;;;;;;0.060304575;1.002411;-0.38166448;;;;;1793.1
1979.0;1900.8;;;;;;;;;;;;;;;;;33.455917;-5.8671837;-36.8511;;1793.1
1979.0;1900.8;;;;;;;;;;;;;;0.081362344;0.9634693;-0.32831812;;;;;1793.1
1979.0;1900.8;;;;;;;;;;;;;;;;;35.935543;-5.4208503;-29.988249;;1802.8
1979.0;1900.8;;;;;;;;;;;;;;0.08563494;0.9615772;-0.26075014;;;;;1802.8
1979.0;1900.8;;;;;;;;;;;;;;;;;35.06195;-6.851405;-24.70092;;1802.8
1979.0;1900.8;;;;;;;;;;;;;;0.09601123;0.93826103;-0.18042544;;;;;1802.8
1979.0;1900.8;;;;;;;;;;;;;;;;;34.470654;-11.047701;-20.527512;;1812.5
1979.0;1900.8;;;;;;;;;;;;;;0.100833155;0.9450362;-0.112857446;;;;;1812.5
1979.0;1900.8;;;;;;;;;;;;;;;;;36.76336;-17.193365;-16.617329;;1812.5
1979.0;1900.8;;;;;;;;;;;;;;0.13306071;0.93728447;-0.06372265;;;;;1812.5
1979.0;1901.1;;;;;;;;;;122.61192;-124.881744;-93.55449;;;;;;;;;
1979.0;1901.1;;;;;;;0.15912351;-1.0058901;-0.022156438;;;;;;;;;;;;
1979.0;1901.1;;;;;;;;;;118.37749;-124.881744;-94.64553;;;;;;;;;
1979.0;1901.1;;;;;;;0.1650441;-0.9881283;-0.020386364;;;;;;;;;;;;
1983.0;1901.7;;;;;;;;;;;;;;;;;36.931213;-26.074251;-13.542589;;1822.1
1983.0;1901.7;;;;;;;;;;;;;;0.14490189;0.9234901;-0.030945769;;;;;1822.1
1983.0;1901.7;;;;;;;;;;;;;;;;;37.285988;-37.27073;-10.521256;;1822.1
1983.0;1901.7;;;;;;;;;;;;;;0.16083254;0.8900418;-0.0113528855;;;;;1822.1
1983.0;1901.7;;;;;;;;;;;;;;;;;37.686546;-49.325542;-7.942442;;1831.8
1983.0;1901.7;;;;;;;;;;;;;;0.16821803;0.88283944;-0.003051851;;;;;1831.8
1983.0;1901.7;;;;;;;;;;;;;;;;;39.414654;-61.52913;-5.4780726;;1831.8
1983.0;1901.7;;;;;;;;;;;;;;0.16650899;0.8895535;-8.5451826E-4;;;;;1831.8
1983.0;1901.7;;;;;;;;;;;;;;;;;39.38795;-74.308754;-3.1929991;;1841.3
1983.0;1901.7;;;;;;;;;;;;;;0.16888943;0.87459946;-0.01208533;;;;;1841.3
1983.0;1901.7;;;;;;;;;;;;;;;;;38.907288;-88.42357;-0.84688866;;1841.3
1983.0;1901.7;;;;;;;;;;;;;;0.1716361;0.87874997;-0.010010071;;;;;1841.3
1983.0;1902.9;213480;262143;7606;;;;;;;;;;;;;;;;;;
1983.0;1909.7;;;;-0.29970554;0.67265326;0.016780855;;;;;;;;;;;;;;;
1983.0;1909.7;;;;-0.32031253;0.6821366;0.011478425;;;;;;;;;;;;;;;
1983.0;1909.7;;;;-0.32677844;0.666874;0.013736727;;;;;;;;;;;;;;;
1983.0;1909.7;;;;-0.34066394;0.6549378;0.006347657;;;;;;;;;;;;;;;
1983.0;1909.7;;;;-0.3599129;0.66901404;-0.0038681035;;;;;;;;;;;;;;;
1983.0;1910.6;;;;;;;;;;113.68145;-124.881744;-95.32838;;;;;;;;;
1983.0;1910.6;;;;;;;0.17011017;-0.9828791;-0.017273476;;;;;;;;;;;;
1983.0;1910.6;;;;;;;;;;108.741264;-124.881744;-96.03412;;;;;;;;;
1983.0;1910.6;;;;;;;0.17584765;-0.9641408;-0.015686514;;;;;;;;;;;;
1987.0;1919.7;;;;-0.3610802;0.6781426;-0.019069673;;;;;;;;;;;;;;;
1987.0;1919.7;;;;-0.3594933;0.6383782;-0.017433168;;;;;;;;;;;;;;;
1987.0;1919.7;;;;-0.3543854;0.62308127;-0.015312197;;;;;;;;;;;;;;;
1987.0;1919.7;;;;-0.3584061;0.661171;-0.018413546;;;;;;;;;;;;;;;
1987.0;1919.7;;;;-0.38140494;0.68772894;-0.03325272;;;;;;;;;;;;;;;
1987.0;1920.1;;;;;;;;;;103.633224;-124.881744;-96.449936;;;;;;;;;
1987.0;1920.1;;;;;;;0.1760918;-0.9561449;-0.0144657735;;;;;;;;;;;;
1987.0;1920.1;;;;;;;;;;98.34209;-124.881744;-96.5949;;;;;;;;;
1987.0;1920.1;;;;;;;0.18189032;-0.94662315;-0.013183996;;;;;;;;;;;;
1987.0;1923.0;213386;262143;7599;;;;;;;;;;;;;;;;;;
1987.0;1929.0;;;;;;;;;;;;;23726;;;;;;;;
1987.0;1929.0;;;;;;;;;;;;;22346;;;;;;;;
1987.0;1929.0;;;;;;;;;;;;;20746;;;;;;;;
1987.0;1929.0;;;;;;;;;;;;;19450;;;;;;;;
1987.0;1929.0;;;;;;;;;;;;;18357;;;;;;;;
1987.0;1929.7;;;;;;;;;;93.13104;-124.881744;-96.71316;;;;;;;;;
1987.0;1929.7;;;;;;;0.19214454;-0.9387494;-0.017517624;;;;;;;;;;;;
1987.0;1929.7;;;;;;;;;;87.86279;-124.881744;-96.75512;;;;;;;;;
1987.0;1929.7;;;;;;;0.1970275;-0.9265419;-0.019898068;;;;;;;;;;;;
1987.0;1929.7;;;;-0.40377814;0.7044144;-0.04739762;;;;;;;;;;;;;;;
1987.0;1929.7;;;;-0.40565878;0.70932394;-0.05162049;;;;;;;;;;;;;;;
1987.0;1929.7;;;;-0.39334875;0.71093756;-0.054756172;;;;;;;;;;;;;;;
1987.0;1929.7;;;;-0.38293082;0.70621115;-0.05923844;;;;;;;;;;;;;;;
1987.0;1929.7;;;;-0.37131122;0.69639975;-0.06307221;;;;;;;;;;;;;;;
2022.0;1939.0;;;;;;;;;;82.667015;-124.881744;-96.70934;;;;;;;;;
2022.0;1939.0;;;;;;;0.20136112;-0.91384625;-0.022034364;;;;;;;;;;;;
2022.0;1939.0;;;;;;;;;;77.44072;-124.881744;-96.26682;;;;;;;;;
2022.0;1939.0;;;;;;;0.20551164;-0.90499586;-0.025940733;;;;;;;;;;;;
2022.0;1939.5;;;;-0.3549538;0.6821595;-0.0641327;;;;;;;;;;;;;;;
2022.0;1939.5;;;;-0.33064273;0.6739312;-0.0624199;;;;;;;;;;;;;;;
2022.0;1939.5;;;;-0.30390552;0.66777045;-0.066192634;;;;;;;;;;;;;;;
2022.0;1939.5;;;;-0.28190997;0.6646424;-0.07283021;;;;;;;;;;;;;;;
2022.0;1939.5;;;;-0.26840976;0.6618996;-0.07891465;;;;;;;;;;;;;;;
2022.0;1942.7;213289;262143;7598;;;;;;;;;;;;;;;;;;
2022.0;1948.3;;;;;;;;;;72.38227;-124.881744;-95.6412;;;;;;;;;
2022.0;1948.3;;;;;;;0.21472824;-0.89522994;-0.030823695;;;;;;;;;;;;
2022.0;1948.3;;;;;;;;;;67.411575;-124.881744;-95.06134;;;;;;;;;
2022.0;1948.3;;;;;;;0.22083193;-0.8845485;-0.038331248;;;;;;;;;;;;
2022.0;1949.2;;;;-0.2660332;0.66533667;-0.07909394;;;;;;;;;;;;;;;
2022.0;1949.2;;;;-0.24953464;0.6695176;-0.078536995;;;;;;;;;;;;;;;
2022.0;1949.2;;;;-0.24058154;0.6679421;-0.086593635;;;;;;;;;;;;;;;
2022.0;1949.2;;;;-0.24435428;0.66601187;-0.09441377;;;;;;;;;;;;;;;
2022.0;1949.2;;;;-0.2453728;0.6636277;-0.09809114;;;;;;;;;;;;;;;
2022.0;1957.9;;;;;;;;;;62.53624;-124.881744;-94.18012;;;;;;;;;
2022.0;1957.9;;;;;;;0.22956023;-0.8708762;-0.04565569;;;;;;;;;;;;
2022.0;1957.9;;;;;;;;;;57.893612;-124.881744;-92.88308;;;;;;;;;
2022.0;1957.9;;;;;;;0.23902097;-0.85964537;-0.049439985;;;;;;;;;;;;
2024.0;1959.3;;;;-0.24462894;0.6585427;-0.09995653;;;;;;;;;;;;;;;
2024.0;1959.3;;;;-0.24814227;0.654255;-0.101497665;;;;;;;;;;;;;;;
2024.0;1959.3;;;;-0.25010684;0.6532975;-0.10425569;;;;;;;;;;;;;;;
2024.0;1959.3;;;;-0.24888614;0.64801794;-0.10963823;;;;;;;;;;;;;;;
2024.0;1959.3;;;;-0.2431412;0.6401215;-0.11481096;;;;;;;;;;;;;;;
2024.0;1961.0;;;;;;;;;;;;;;;;;37.739952;-102.96182;1.2550737;;1851.0
2024.0;1961.0;;;;;;;;;;;;;;0.18323313;0.87527084;-0.0079958495;;;;;1851.0
2024.0;1961.0;;;;;;;;;;;;;;;;;35.397655;-117.156746;3.7003694;;1851.0
2024.0;1961.0;;;;;;;;;;;;;;0.20001832;0.8600726;-0.012329478;;;;;1851.0
2024.0;1961.0;;;;;;;;;;;;;;;;;34.020508;-124.610886;5.8099613;;1860.6
2024.0;1961.0;;;;;;;;;;;;;;0.20770897;0.8575701;-0.015503403;;;;;1860.6
2024.0;1961.0;;;;;;;;;;;;;;;;;32.2924;-124.988556;7.9348125;;1860.6
2024.0;1961.0;;;;;;;;;;;;;;0.21881771;0.8614765;-0.031922363;;;;;1860.6
2024.0;1961.0;;;;;;;;;;;;;;;;;29.91577;-124.988556;9.8155155;;1870.3
2024.0;1961.0;;;;;;;;;;;;;;0.23883785;0.86141545;-0.05389569;;;;;1870.3
2024.0;1961.0;;;;;;;;;;;;;;;;;26.978363;-124.988556;12.012849;;1870.3
2024.0;1961.0;;;;;;;;;;;;;;0.26319164;0.8424329;-0.08130131;;;;;1870.3
2025.0;1961.6;;;;;;;;;;;;;;;;;24.655142;-124.988556;14.969329;;1880.0
2025.0;1961.6;;;;;;;;;;;;;;0.2837611;0.83895385;-0.099490345;;;;;1880.0
2025.0;1961.6;;;;;;;;;;;;;;;;;21.114994;-124.988556;20.729698;;1880.0
2025.0;1961.6;;;;;;;;;;;;;;0.32459486;0.83565784;-0.12604144;;;;;1880.0
2025.0;1961.6;;;;;;;;;;;;;;;;;15.213477;-124.988556;28.645435;;1889.6
2025.0;1961.6;;;;;;;;;;;;;;0.32673118;0.8664205;-0.12073123;;;;;1889.6
2025.0;1961.6;;;;;;;;;;;;;;;;;4.676962;-124.75204;36.191135;;1889.6
2025.0;1961.6;;;;;;;;;;;;;;0.3328959;0.8417005;-0.10248116;;;;;1889.6
2025.0;1961.6;;;;;;;;;;;;;;;;;0.9193701;-122.89803;48.432877;;1899.2
2025.0;1961.6;;;;;;;;;;;;;;0.41950744;0.6472365;-0.22724082;;;;;1899.2
2025.0;1961.6;;;;;;;;;;;;;;;;;21.046328;-119.14045;57.96991;;1899.2
2025.0;1961.6;;;;;;;;;;;;;;0.385815;0.60823387;-0.23535874;;;;;1899.2
2025.0;1962.5;213269;262143;7577;;;;;;;;;;;;;;;;;;
2025.0;1967.2;;;;;;;;;;53.338726;-124.881744;-91.69286;;;;;;;;;
2025.0;1967.2;;;;;;;0.24646749;-0.8510392;-0.0557268;;;;;;;;;;;;
2025.0;1967.2;;;;;;;;;;49.02799;-124.881744;-90.3119;;;;;;;;;
2025.0;1967.2;;;;;;;0.25165564;-0.84249395;-0.060121465;;;;;;;;;;;;
2025.0;1968.4;;;;;;;;;;;;;17500;;;;;;;;
2025.0;1968.4;;;;;;;;;;;;;17190;;;;;;;;
2025.0;1968.4;;;;;;;;;;;;;17443;;;;;;;;
2025.0;1968.4;;;;;;;;;;;;;17612;;;;;;;;
2025.0;1968.4;;;;;;;;;;;;;17068;;;;;;;;
2026.0;1969.1;;;;-0.23786929;0.63473517;-0.11678697;;;;;;;;;;;;;;;
2026.0;1969.1;;;;-0.22848514;0.62936026;-0.11899568;;;;;;;;;;;;;;;
2026.0;1969.1;;;;-0.22200397;0.6245652;-0.12001802;;;;;;;;;;;;;;;
2026.0;1969.1;;;;-0.21590427;0.6197205;-0.12048723;;;;;;;;;;;;;;;
2026.0;1969.1;;;;-0.21052554;0.6149674;-0.11985017;;;;;;;;;;;;;;;
2026.0;1976.7;;;;;;;;;;44.984283;-124.87029;-88.6906;;;;;;;;;
2026.0;1976.7;;;;;;;0.25696585;-0.8352916;-0.063539535;;;;;;;;;;;;
2026.0;1976.7;;;;;;;;;;41.03595;-123.42067;-86.75649;;;;;;;;;
2026.0;1976.7;;;;;;;0.26355785;-0.8269295;-0.06939909;;;;;;;;;;;;
2026.0;1979.1;;;;-0.2050133;0.611538;-0.11885072;;;;;;;;;;;;;;;
2026.0;1979.1;;;;-0.19681552;0.60589606;-0.11764909;;;;;;;;;;;;;;;
2026.0;1979.1;;;;-0.18929294;0.6016312;-0.11500169;;;;;;;;;;;;;;;
2026.0;1979.1;;;;-0.18340303;0.59912497;-0.1117325;;;;;;;;;;;;;;;
2026.0;1979.1;;;;-0.17871477;0.59766394;-0.107540146;;;;;;;;;;;;;;;
2026.0;1982.6;213223;262143;7582;;;;;;;;;;;;;;;;;;
2026.0;1986.3;;;;;;;;;;37.282173;-117.16056;-84.57823;;;;;;;;;
2026.0;1986.3;;;;;;;0.26770836;-0.8163701;-0.0740379;;;;;;;;;;;;
2026.0;1986.3;;;;;;;;;;33.665733;-108.93201;-82.39998;;;;;;;;;
2026.0;1986.3;;;;;;;0.27686393;-0.80886257;-0.07721183;;;;;;;;;;;;
2084.0;1989.1;;;;-0.17427827;0.5979424;-0.10317613;;;;;;;;;;;;;;;
2084.0;1989.1;;;;-0.16936876;0.59989554;-0.09955217;;;;;;;;;;;;;;;
2084.0;1989.1;;;;-0.1646805;0.60306555;-0.095390335;;;;;;;;;;;;;;;
2084.0;1989.1;;;;-0.16223146;0.606865;-0.09131623;;;;;;;;;;;;;;;
2084.0;1989.1;;;;-0.15958788;0.61090094;-0.08778382;;;;;;;;;;;;;;;
2084.0;1995.7;;;;;;;;;;30.262917;-100.19989;-80.28275;;;;;;;;;
2084.0;1995.7;;;;;;;0.28193;-0.8017823;-0.07794427;;;;;;;;;;;;
2084.0;1995.7;;;;;;;;;;26.867733;-91.25416;-77.68105;;;;;;;;;
2084.0;1995.7;;;;;;;0.2900479;-0.7951903;-0.07837153;;;;;;;;;;;;
2084.0;1999.1;;;;-0.15734865;0.6143418;-0.082695015;;;;;;;;;;;;;;;
2084.0;1999.1;;;;-0.15593721;0.6177407;-0.07801057;;;;;;;;;;;;;;;
2084.0;1999.1;;;;-0.1537819;0.6186486;-0.0728798;;;;;;;;;;;;;;;
2084.0;1999.1;;;;-0.15228654;0.62001806;-0.0678711;;;;;;;;;;;;;;;
2084.0;1999.1;;;;-0.15222551;0.6216813;-0.062107094;;;;;;;;;;;;;;;
2084.0;2002.7;213218;262143;7586;;;;;;;;;;;;;;;;;;
2084.0;2005.4;;;;;;;;;;23.529772;-81.69424;-75.128944;;;;;;;;;
2084.0;2005.4;;;;;;;0.28125858;-0.81514937;-0.081362344;;;;;;;;;;;;
2084.0;2005.4;;;;;;;;;;19.63866;-72.1572;-72.01987;;;;;;;;;
2084.0;2005.4;;;;;;;0.3081149;-0.7895138;-0.070986055;;;;;;;;;;;;
2084.0;2008.7;;;;;;;;;;;;;16095;;;;;;;;
2084.0;2008.7;;;;;;;;;;;;;15229;;;;;;;;
2084.0;2008.7;;;;;;;;;;;;;14423;;;;;;;;
2084.0;2008.7;;;;;;;;;;;;;13504;;;;;;;;
2084.0;2008.7;;;;;;;;;;;;;12558;;;;;;;;
2086.0;2009.3;;;;-0.15332414;0.62341315;-0.05584336;;;;;;;;;;;;;;;
2086.0;2009.3;;;;-0.15652849;0.6234284;-0.05022431;;;;;;;;;;;;;;;
2086.0;2009.3;;;;-0.15839387;0.6213227;-0.045192722;;;;;;;;;;;;;;;
2086.0;2009.3;;;;-0.16640855;0.6219788;-0.039642338;;;;;;;;;;;;;;;
2086.0;2009.3;;;;-0.17230989;0.622448;-0.033939365;;;;;;;;;;;;;;;
2086.0;2015.0;;;;;;;;;;16.994993;-61.97928;-69.299904;;;;;;;;;
2086.0;2015.0;;;;;;;0.31214333;-0.7709586;-0.0712302;;;;;;;;;;;;
2086.0;2015.0;;;;;;;;;;14.397107;-51.438946;-66.61428;;;;;;;;;
2086.0;2015.0;;;;;;;0.31495103;-0.7635121;-0.06683554;;;;;;;;;;;;
2086.0;2019.4;;;;-0.17976381;0.62357336;-0.028884891;;;;;;;;;;;;;;;
2086.0;2019.4;;;;-0.18607713;0.62577444;-0.024009708;;;;;;;;;;;;;;;
2086.0;2019.4;;;;-0.18856052;0.6286507;-0.018829348;;;;;;;;;;;;;;;
2086.0;2019.4;;;;-0.1937218;0.6332093;-0.015247347;;;;;;;;;;;;;;;
2086.0;2019.4;;;;-0.20043948;0.6388474;-0.010951997;;;;;;;;;;;;;;;
2087.0;2020.8;;;;;;;;;;;;;;;;;30.747398;-111.81982;56.30665;;1908.8
2087.0;2020.8;;;;;;;;;;;;;;0.42066714;0.7068087;-0.17120884;;;;;1908.8
2087.0;2020.8;;;;;;;;;;;;;;;;;20.249031;-108.42845;62.64306;;1908.8
2087.0;2020.8;;;;;;;;;;;;;;0.38044375;0.7408063;-0.11725211;;;;;1908.8
2087.0;2020.8;;;;;;;;;;;;;;;;;4.634999;-111.39637;69.60509;;1918.4
2087.0;2020.8;;;;;;;;;;;;;;0.3789178;0.6986908;-0.15698722;;;;;1918.4
2087.0;2020.8;;;;;;;;;;;;;;;;;2.8344066;-109.72548;74.3698;;1918.4
2087.0;2020.8;;;;;;;;;;;;;;0.39728996;0.6732994;-0.16382337;;;;;1918.4
2087.0;2020.8;;;;;;;;;;;;;;;;;6.4355907;-101.68385;79.088715;;1928.0
2087.0;2020.8;;;;;;;;;;;;;;0.41474655;0.6607257;-0.17175817;;;;;1928.0
2087.0;2020.8;;;;;;;;;;;;;;;;;9.00296;-89.13693;83.00653;;1928.0
2087.0;2020.8;;;;;;;;;;;;;;0.43848994;0.71883297;-0.16577655;;;;;1928.0
2087.0;2021.6;;;;;;;;;;;;;;;;;14.744255;-74.83139;87.382126;;1937.7
2087.0;2021.6;;;;;;;;;;;;;;0.4234138;0.5551927;-0.33179724;;;;;1937.7
2087.0;2021.6;;;;;;;;;;;;;;;;;29.175695;-57.54265;81.79723;;1937.7
2087.0;2021.6;;;;;;;;;;;;;;0.418775;0.5874813;-0.16986603;;;;;1937.7
2087.0;2021.6;;;;;;;;;;;;;;;;;-0.6370739;-45.62517;69.112976;;1947.4
2087.0;2021.6;;;;;;;;;;;;;;0.37372968;0.689169;-0.1350139;;;;;1947.4
2087.0;2021.6;;;;;;;;;;;;;;;;;-22.007662;-28.439436;56.104465;;1947.4
2087.0;2021.6;;;;;;;;;;;;;;0.30500197;0.5729545;-0.27942747;;;;;1947.4
2087.0;2021.6;;;;;;;;;;;;;;;;;-12.470626;5.569628;44.671467;;1956.9
2087.0;2021.6;;;;;;;;;;;;;;0.29371014;0.48731956;-0.27014986;;;;;1956.9
2087.0;2021.6;;;;;;;;;;;;;;;;;-1.0299997;34.66521;44.660023;;1956.9
2087.0;2021.6;;;;;;;;;;;;;;0.22589801;0.52424693;-0.2624592;;;;;1956.9
2089.0;2022.9;213262;262143;7595;;;;;;;;;;;;;;;;;;
2089.0;2024.5;;;;;;;;;;11.642812;-40.54384;-63.93628;;;;;;;;;
2089.0;2024.5;;;;;;;0.3211768;-0.77248454;-0.06280709;;;;;;;;;;;;
2089.0;2024.5;;;;;;;;;;8.861812;-29.652548;-61.449017;;;;;;;;;
2089.0;2024.5;;;;;;;0.32190925;-0.7802973;-0.059938353;;;;;;;;;;;;
2089.0;2029.3;;;;-0.20557407;0.6446648;-0.006816865;;;;;;;;;;;;;;;
2089.0;2029.3;;;;-0.21147922;0.6489907;-0.0033531194;;;;;;;;;;;;;;;
2089.0;2029.3;;;;-0.21901324;0.6545792;3.433228E-5;;;;;;;;;;;;;;;
2089.0;2029.3;;;;-0.22558978;0.66097265;0.0030746465;;;;;;;;;;;;;;;
2089.0;2029.3;;;;-0.23250964;0.6675034;0.0070495615;;;;;;;;;;;;;;;
2089.0;2034.1;;;;;;;;;;6.1571097;-18.86044;-58.511612;;;;;;;;;
2089.0;2034.1;;;;;;;0.32319102;-0.7876827;-0.053712577;;;;;;;;;;;;
2089.0;2034.1;;;;;;;;;;3.5477767;-8.339183;-55.25376;;;;;;;;;
2089.0;2034.1;;;;;;;0.32312998;-0.79445785;-0.04992828;;;;;;;;;;;;
2089.0;2039.3;;;;-0.23966983;0.6744233;0.009990693;;;;;;;;;;;;;;;
2089.0;2039.3;;;;-0.24835208;0.6809426;0.012084963;;;;;;;;;;;;;;;
2089.0;2039.3;;;;-0.25707248;0.687645;0.015659334;;;;;;;;;;;;;;;
2089.0;2039.3;;;;-0.26308444;0.6939469;0.018283846;;;;;;;;;;;;;;;
2089.0;2039.3;;;;-0.2698212;0.70044714;0.02372742;;;;;;;;;;;;;;;
2089.0;2043.0;213258;262143;7598;;;;;;;;;;;;;;;;;;
2262.0;2043.6;;;;;;;;;;0.94225895;2.273629;-51.82806;;;;;;;;;
2262.0;2043.6;;;;;;;0.32227546;-0.8057497;-0.04651021;;;;;;;;;;;;
2262.0;2043.6;;;;;;;;;;-1.4687033;12.699514;-48.44432;;;;;;;;;
2262.0;2043.6;;;;;;;0.3213599;-0.80953395;-0.04364147;;;;;;;;;;;;
2262.0;2048.9;;;;;;;;;;;;;11646;;;;;;;;
2262.0;2048.9;;;;;;;;;;;;;10976;;;;;;;;
2262.0;2048.9;;;;;;;;;;;;;11060;;;;;;;;
2262.0;2048.9;;;;;;;;;;;;;12144;;;;;;;;
2262.0;2048.9;;;;;;;;;;;;;13734;;;;;;;;
2262.0;2049.3;;;;-0.27565005;0.7082444;0.028587345;;;;;;;;;;;;;;;
2262.0;2049.3;;;;-0.28309634;0.7161866;0.032211307;;;;;;;;;;;;;;;
2262.0;2049.3;;;;-0.29064563;0.7247086;0.034675602;;;;;;;;;;;;;;;
2262.0;2049.3;;;;-0.29656985;0.731144;0.03783417;;;;;;;;;;;;;;;
2262.0;2049.3;;;;-0.3024979;0.738205;0.040889744;;;;;;;;;;;;;;;
2262.0;2053.0;;;;;;;;;;-3.8453321;22.7134;-45.121616;;;;;;;;;
2262.0;2053.0;;;;;;;0.31690422;-0.8142949;-0.03991821;;;;;;;;;;;;
2262.0;2053.0;;;;;;;;;;-6.1151466;31.949066;-41.901913;;;;;;;;;
2262.0;2053.0;;;;;;;0.30677205;-0.82290107;-0.03546251;;;;;;;;;;;;
2262.0;2059.2;;;;-0.30650333;0.74478537;0.043102268;;;;;;;;;;;;;;;
2262.0;2059.2;;;;-0.31021884;0.7526437;0.045795444;;;;;;;;;;;;;;;
2262.0;2059.2;;;;-0.31525806;0.761551;0.04852677;;;;;;;;;;;;;;;
2262.0;2059.2;;;;-0.31949237;0.77266705;0.050746925;;;;;;;;;;;;;;;
2262.0;2059.2;;;;-0.322876;0.78205884;0.051597603;;;;;;;;;;;;;;;
2262.0;2062.5;;;;;;;;;;-8.220923;40.334023;-38.674583;;;;;;;;;
2262.0;2062.5;;;;;;;0.29572436;-0.8294931;-0.03625599;;;;;;;;;;;;
2262.0;2062.5;;;;;;;;;;-10.315256;48.7228;-35.27558;;;;;;;;;
2262.0;2062.5;;;;;;;0.28052613;-0.8352916;-0.035523545;;;;;;;;;;;;
2265.0;2062.9;213233;262143;7600;;;;;;;;;;;;;;;;;;
2265.0;2069.3;;;;-0.32482532;0.79184735;0.052783974;;;;;;;;;;;;;;;
2265.0;2069.3;;;;-0.3272095;0.8013345;0.05378724;;;;;;;;;;;;;;;
2265.0;2069.3;;;;-0.33002856;0.81105816;0.05614472;;;;;;;;;;;;;;;
2265.0;2069.3;;;;-0.33555225;0.82167447;0.057285316;;;;;;;;;;;;;;;
2265.0;2069.3;;;;-0.3415337;0.8313829;0.05832673;;;;;;;;;;;;;;;
2265.0;2072.2;;;;;;;;;;-12.562181;57.27561;-32.162693;;;;;;;;;
2265.0;2072.2;;;;;;;0.27112645;-0.84054077;-0.03399762;;;;;;;;;;;;
2265.0;2072.2;;;;;;;;;;-14.637441;65.41643;-29.29777;;;;;;;;;
2265.0;2072.2;;;;;;;0.2592242;-0.84939116;-0.031067843;;;;;;;;;;;;
2265.0;2079.4;;;;-0.34518436;0.8408433;0.059257515;;;;;;;;;;;;;;;
2265.0;2079.4;;;;-0.34940723;0.85165036;0.059787758;;;;;;;;;;;;;;;
2265.0;2079.4;;;;-0.35322574;0.86226666;0.060165413;;;;;;;;;;;;;;;
2265.0;2079.4;;;;-0.3569565;0.8736192;0.06087113;;;;;;;;;;;;;;;
2265.0;2079.4;;;;-0.35924533;0.88552105;0.061237343;;;;;;;;;;;;;;;
2266.0;2081.2;;;;;;;;;;;;;;;;;11.37196;54.40306;45.278023;;1966.5
2266.0;2081.2;;;;;;;;;;;;;;0.1770684;0.6604816;-0.25238806;;;;;1966.5
2266.0;2081.2;;;;;;;;;;;;;;;;;14.191107;74.93057;43.83984;;1966.5
2266.0;2081.2;;;;;;;;;;;;;;0.12012085;0.6923429;-0.24897;;;;;1966.5
2266.0;2081.2;;;;;;;;;;;;;;;;;14.675589;90.170746;39.57106;;1976.2
2266.0;2081.2;;;;;;;;;;;;;;0.03875851;0.70607626;-0.21100497;;;;;1976.2
2266.0;2081.2;;;;;;;;;;;;;;;;;15.8772545;95.236824;35.70284;;1976.2
2266.0;2081.2;;;;;;;;;;;;;;-0.06891079;0.78200626;-0.15430158;;;;;1976.2
2266.0;2081.2;;;;;;;;;;;;;;;;;15.018921;96.301155;31.949066;;1985.9
2266.0;2081.2;;;;;;;;;;;;;;-0.17035432;0.83333844;-0.15363018;;;;;1985.9
2266.0;2081.2;;;;;;;;;;;;;;;;;17.479475;95.97308;26.646475;;1985.9
2266.0;2081.2;;;;;;;;;;;;;;-0.26038393;0.8634907;-0.19098483;;;;;1985.9
2266.0;2081.7;;;;;;;;;;-16.743217;72.83242;-26.379436;;;;;;;;;
2266.0;2081.7;;;;;;;0.24756615;-0.8567156;-0.031311993;;;;;;;;;;;;
2266.0;2081.7;;;;;;;;;;-18.814661;79.43586;-23.342844;;;;;;;;;
2266.0;2081.7;;;;;;;0.23499252;-0.86666465;-0.027893918;;;;;;;;;;;;
2268.0;2082.1;;;;;;;;;;;;;;;;;21.736809;93.90927;23.766289;;1995.4
2268.0;2082.1;;;;;;;;;;;;;;-0.34125796;0.83712274;-0.285226;;;;;1995.4
2268.0;2082.1;;;;;;;;;;;;;;;;;30.739769;86.02023;14.709922;;1995.4
2268.0;2082.1;;;;;;;;;;;;;;-0.45179603;0.80813015;-0.39741203;;;;;1995.4
2268.0;2082.1;;;;;;;;;;;;;;;;;41.75695;75.33876;-4.81811;;2005.1
2268.0;2082.1;;;;;;;;;;;;;;-0.53657645;0.8204596;-0.50111395;;;;;2005.1
2268.0;2082.1;;;;;;;;;;;;;;;;;49.69939;66.675316;-30.08362;;2005.1
2268.0;2082.1;;;;;;;;;;;;;;-0.64784694;0.78707236;-0.5731376;;;;;2005.1
2268.0;2082.1;;;;;;;;;;;;;;;;;56.257057;54.540394;-66.86224;;2014.8
2268.0;2082.1;;;;;;;;;;;;;;-0.73970765;0.8065432;-0.6726279;;;;;2014.8
2268.0;2082.1;;;;;;;;;;;;;;;;;59.377575;57.634205;-102.85119;;2014.8
2268.0;2082.1;;;;;;;;;;;;;;-0.83730584;0.80489516;-0.73012483;;;;;2014.8
2268.0;2083.0;213173;262143;7601;;;;;;;;;;;;;;;;;;
2268.0;2088.9;;;;;;;;;;;;;15070;;;;;;;;
2268.0;2088.9;;;;;;;;;;;;;15960;;;;;;;;
2268.0;2088.9;;;;;;;;;;;;;16653;;;;;;;;
2268.0;2088.9;;;;;;;;;;;;;17024;;;;;;;;
2268.0;2088.9;;;;;;;;;;;;;17389;;;;;;;;
2268.0;2089.3;;;;-0.36104205;0.89657605;0.061725624;;;;;;;;;;;;;;;
2268.0;2089.3;;;;-0.36293033;0.90716183;0.06274033;;;;;;;;;;;;;;;
2268.0;2089.3;;;;-0.36696628;0.91672146;0.062126167;;;;;;;;;;;;;;;
2268.0;2089.3;;;;-0.36950687;0.92552197;0.062358864;;;;;;;;;;;;;;;
2268.0;2089.3;;;;-0.37274173;0.9362565;0.06312943;;;;;;;;;;;;;;;
2269.0;2091.2;;;;;;;;;;-20.844143;85.50905;-20.222326;;;;;;;;;
2269.0;2091.2;;;;;;;0.22675252;-0.86965543;-0.026917325;;;;;;;;;;;;
2269.0;2091.2;;;;;;;;;;-22.919401;91.055786;-16.987364;;;;;;;;;
2269.0;2091.2;;;;;;;0.22070986;-0.8758812;-0.024231697;;;;;;;;;;;;
2269.0;2099.3;;;;-0.3764878;0.94516766;0.06329728;;;;;;;;;;;;;;;
2269.0;2099.3;;;;-0.38065344;0.9556619;0.06533051;;;;;;;;;;;;;;;
2269.0;2099.3;;;;-0.3833924;0.9673158;0.06673432;;;;;;;;;;;;;;;
2269.0;2099.3;;;;-0.38348395;0.97869503;0.068279274;;;;;;;;;;;;;;;
2269.0;2099.3;;;;-0.38274008;0.99061215;0.070163734;;;;;;;;;;;;;;;
2269.0;2100.7;;;;;;;;;;-24.903103;95.94638;-13.775291;;;;;;;;;
2269.0;2100.7;;;;;;;0.21167639;-0.88430434;-0.020752586;;;;;;;;;;;;
2269.0;2100.7;;;;;;;;;;-26.760918;100.203705;-10.662404;;;;;;;;;
2269.0;2100.7;;;;;;;0.20514542;-0.8916288;-0.018494217;;;;;;;;;;;;
2269.0;2103.1;213161;262143;7608;;;;;;;;;;;;;;;;;;
2269.0;2109.3;;;;-0.38429266;1.0009347;0.07196427;;;;;;;;;;;;;;;
2269.0;2109.3;;;;-0.3847466;1.0121499;0.07387925;;;;;;;;;;;;;;;
2269.0;2109.3;;;;-0.3867646;1.0227891;0.076133735;;;;;;;;;;;;;;;
2269.0;2109.3;;;;-0.38832098;1.031212;0.07727433;;;;;;;;;;;;;;;
2269.0;2109.3;;;;-0.38938528;1.0389673;0.079170235;;;;;;;;;;;;;;;
2269.0;2110.2;;;;;;;;;;-28.656881;103.88119;-7.560961;;;;;;;;;
2269.0;2110.2;;;;;;;0.19611195;-0.9024323;-0.01574755;;;;;;;;;;;;
2269.0;2110.2;;;;;;;;;;-30.556658;106.92923;-4.4099245;;;;;;;;;
2269.0;2110.2;;;;;;;0.18726158;-0.9114658;-0.009399701;;;;;;;;;;;;
2271.0;2119.4;;;;-0.3907662;1.0469552;0.0814705;;;;;;;;;;;;;;;
2271.0;2119.4;;;;-0.39074713;1.0549966;0.082931526;;;;;;;;;;;;;;;
2271.0;2119.4;;;;-0.39708334;1.0615579;0.083507545;;;;;;;;;;;;;;;
2271.0;2119.4;;;;-0.40098196;1.0669137;0.08713151;;;;;;;;;;;;;;;
2271.0;2119.4;;;;-0.40557867;1.0727273;0.08734513;;;;;;;;;;;;;;;
2271.0;2119.8;;;;;;;;;;-32.47551;109.248634;-1.33137;;;;;;;;;
2271.0;2119.8;;;;;;;0.18048647;-0.92013305;-0.0036622211;;;;;;;;;;;;
2271.0;2119.8;;;;;;;;;;-34.455395;111.06448;1.7357402;;;;;;;;;
2271.0;2119.8;;;;;;;0.17102572;-0.9269082;9.155553E-4;;;;;;;;;;;;
2271.0;2123.3;213182;262143;7598;;;;;;;;;;;;;;;;;;
2271.0;2129.2;;;;;;;;;;;;;18543;;;;;;;;
2271.0;2129.2;;;;;;;;;;;;;19628;;;;;;;;
2271.0;2129.2;;;;;;;;;;;;;18465;;;;;;;;
2271.0;2129.2;;;;;;;;;;;;;12957;;;;;;;;
2271.0;2129.2;;;;;;;;;;;;;3980;;;;;;;;
2271.0;2129.5;;;;;;;;;;-36.420025;112.14789;4.8219247;;;;;;;;;
2271.0;2129.5;;;;;;;0.16333507;-0.93478197;0.0076906644;;;;;;;;;;;;
2271.0;2129.5;;;;;;;;;;-38.422806;112.6896;7.801294;;;;;;;;;
2271.0;2129.5;;;;;;;0.15771966;-0.9387494;0.013000885;;;;;;;;;;;;
2271.0;2129.5;;;;-0.41125113;1.0805856;0.08687974;;;;;;;;;;;;;;;
2271.0;2129.5;;;;-0.41206366;1.0851747;0.08723069;;;;;;;;;;;;;;;
2271.0;2129.5;;;;-0.40642554;1.088524;0.086341865;;;;;;;;;;;;;;;
2271.0;2129.5;;;;-0.4047585;1.0934945;0.08599854;;;;;;;;;;;;;;;
2271.0;2129.5;;;;-0.40560156;1.0984002;0.08638383;;;;;;;;;;;;;;;
2272.0;2139.1;;;;;;;;;;-40.47899;112.58278;10.738701;;;;;;;;;
2272.0;2139.1;;;;;;;0.15094455;-0.9490036;0.01721244;;;;;;;;;;;;
2272.0;2139.1;;;;;;;;;;-42.519913;111.999115;13.63033;;;;;;;;;
2272.0;2139.1;;;;;;;0.14355907;-0.95754874;0.02252266;;;;;;;;;;;;
2272.0;2139.6;;;;-0.40674216;1.102604;0.085918434;;;;;;;;;;;;;;;
2272.0;2139.6;;;;-0.40943533;1.1067315;0.084831245;;;;;;;;;;;;;;;
2272.0;2139.6;;;;-0.3970757;1.1116105;0.08241654;;;;;;;;;;;;;;;
2272.0;2139.6;;;;-0.39041144;1.1157533;0.07950211;;;;;;;;;;;;;;;
2272.0;2139.6;;;;-0.39130026;1.1199723;0.07445527;;;;;;;;;;;;;;;
2272.0;2141.3;;;;;;;;;;;;;;;;;68.727684;61.223946;-122.810295;;2024.4
2272.0;2141.3;;;;;;;;;;;;;;-0.931547;0.8680074;-0.64766383;;;;;2024.4
2272.0;2141.3;;;;;;;;;;;;;;;;;74.88861;40.456097;-124.988556;;2024.4
2272.0;2141.3;;;;;;;;;;;;;;-1.043794;0.8816797;-0.7044893;;;;;2024.4
2272.0;2141.3;;;;;;;;;;;;;;;;;62.559128;30.762657;-124.988556;;2034.0
2272.0;2141.3;;;;;;;;;;;;;;-1.0738243;0.95724356;-0.70906705;;;;;2034.0
2272.0;2141.3;;;;;;;;;;;;;;;;;42.565693;31.132694;-124.988556;;2034.0
2272.0;2141.3;;;;;;;;;;;;;;-1.1263161;0.9477218;-0.7665639;;;;;2034.0
2272.0;2141.3;;;;;;;;;;;;;;;;;28.4814;35.82873;-124.98474;;2043.5
2272.0;2141.3;;;;;;;;;;;;;;-1.1069063;0.8891873;-0.6009095;;;;;2043.5
2272.0;2141.3;;;;;;;;;;;;;;;;;22.267067;9.498886;-111.49556;;2043.5
2272.0;2141.3;;;;;;;;;;;;;;-1.0528886;0.87618643;-0.6078066;;;;;2043.5
2273.0;2142.1;;;;;;;;;;;;;;;;;18.547625;-14.774774;-63.024536;;2053.2
2273.0;2142.1;;;;;;;;;;;;;;-1.0917081;0.7588733;-0.6961882;;;;;2053.2
2273.0;2142.1;;;;;;;;;;;;;;;;;20.836512;-31.876583;-16.785181;;2053.2
2273.0;2142.1;;;;;;;;;;;;;;-1.0458694;0.6732994;-0.6505936;;;;;2053.2
2273.0;2142.1;;;;;;;;;;;;;;;;;26.394695;-63.867615;18.42555;;2062.8
2273.0;2142.1;;;;;;;;;;;;;;-0.9593188;0.732078;-0.7025361;;;;;2062.8
2273.0;2142.1;;;;;;;;;;;;;;;;;23.144474;-85.08561;40.91769;;2062.8
2273.0;2142.1;;;;;;;;;;;;;;-0.88375497;0.73195595;-0.6648152;;;;;2062.8
2273.0;2142.1;;;;;;;;;;;;;;;;;16.289255;-102.553635;41.14658;;2072.5
2273.0;2142.1;;;;;;;;;;;;;;-0.8443861;0.7606433;-0.53511155;;;;;2072.5
2273.0;2142.1;;;;;;;;;;;;;;;;;11.951812;-121.059296;40.150913;;2072.5
2273.0;2142.1;;;;;;;;;;;;;;-0.76815087;0.75179297;-0.45039216;;;;;2072.5
2273.0;2143.4;213164;262143;7605;;;;;;;;;;;;;;;;;;
2273.0;2148.6;;;;;;;;;;-44.591354;110.683;16.37318;;;;;;;;;
2273.0;2148.6;;;;;;;0.13592944;-0.96334726;0.025635548;;;;;;;;;;;;
2273.0;2148.6;;;;;;;;;;-46.739098;109.02738;19.039736;;;;;;;;;
2273.0;2148.6;;;;;;;0.13080233;-0.9647511;0.03173925;;;;;;;;;;;;
2273.0;2149.6;;;;-0.3924256;1.1192056;0.07301713;;;;;;;;;;;;;;;
2273.0;2149.6;;;;-0.3835488;1.1220895;0.06686402;;;;;;;;;;;;;;;
2273.0;2149.6;;;;-0.37896734;1.1274186;0.06182862;;;;;;;;;;;;;;;
2273.0;2149.6;;;;-0.3799706;1.1305047;0.057220466;;;;;;;;;;;;;;;
2273.0;2149.6;;;;-0.3738251;1.1365091;0.05459977;;;;;;;;;;;;;;;
2274.0;2158.1;;;;;;;;;;-48.905914;107.00552;21.80166;;;;;;;;;
2274.0;2158.1;;;;;;;0.124881744;-0.9690237;0.038026065;;;;;;;;;;;;
2274.0;2158.1;;;;;;;;;;-51.202427;104.33515;24.460587;;;;;;;;;
2274.0;2158.1;;;;;;;0.11902219;-0.97116;0.04235969;;;;;;;;;;;;
2274.0;2159.6;;;;-0.36647037;1.143303;0.050209053;;;;;;;;;;;;;;;
2274.0;2159.6;;;;-0.3591881;1.1508828;0.044677738;;;;;;;;;;;;;;;
2274.0;2159.6;;;;-0.3498192;1.1602517;0.042350773;;;;;;;;;;;;;;;
2274.0;2159.6;;;;-0.34448245;1.1649171;0.0357132;;;;;;;;;;;;;;;
2274.0;2159.6;;;;-0.33950046;1.1730653;0.031192783;;;;;;;;;;;;;;;
2274.0;2163.6;213106;262143;7595;;;;;;;;;;;;;;;;;;
2274.0;2167.7;;;;;;;;;;-53.384502;101.16504;27.06992;;;;;;;;;
2274.0;2167.7;;;;;;;0.1126133;-0.9783624;0.047791988;;;;;;;;;;;;
2274.0;2167.7;;;;;;;;;;-55.5475;97.45705;29.503769;;;;;;;;;
2274.0;2167.7;;;;;;;0.1081576;-0.9836726;0.051698357;;;;;;;;;;;;
2274.0;2169.5;;;;;;;;;;;;;-2176;;;;;;;;
2274.0;2169.5;;;;;;;;;;;;;207;;;;;;;;
2274.0;2169.5;;;;;;;;;;;;;9369;;;;;;;;
2274.0;2169.5;;;;;;;;;;;;;17756;;;;;;;;
2274.0;2169.5;;;;;;;;;;;;;19952;;;;;;;;
2274.0;2169.7;;;;-0.3363724;1.1821557;0.02544022;;;;;;;;;;;;;;;
2274.0;2169.7;;;;-0.32610324;1.1923219;0.023696903;;;;;;;;;;;;;;;
2274.0;2169.7;;;;-0.31870273;1.2027055;0.019210817;;;;;;;;;;;;;;;
2274.0;2169.7;;;;-0.31159595;1.2171823;0.017959597;;;;;;;;;;;;;;;
2274.0;2169.7;;;;-0.3037491;1.2272416;0.01376343;;;;;;;;;;;;;;;
2276.0;2177.2;;;;;;;;;;-57.813503;93.23786;31.964325;;;;;;;;;
2276.0;2177.2;;;;;;;0.101931825;-0.99288917;0.059083834;;;;;;;;;;;;
2276.0;2177.2;;;;;;;;;;-60.09857;88.827934;34.516434;;;;;;;;;
2276.0;2177.2;;;;;;;0.09674367;-1.0068667;0.06646931;;;;;;;;;;;;
2276.0;2179.7;;;;-0.29392627;1.2399331;0.013393404;;;;;;;;;;;;;;;
2276.0;2179.7;;;;-0.28823856;1.2516519;0.013225557;;;;;;;;;;;;;;;
2276.0;2179.7;;;;-0.28849033;1.2621957;0.013988497;;;;;;;;;;;;;;;
2276.0;2179.7;;;;-0.28396228;1.2743913;0.018524172;;;;;;;;;;;;;;;
2276.0;2179.7;;;;-0.27700046;1.287079;0.018013002;;;;;;;;;;;;;;;
2276.0;2183.7;213122;262143;7603;;;;;;;;;;;;;;;;;;
2276.0;2186.9;;;;;;;;;;-62.364574;84.0556;37.133396;;;;;;;;;
2276.0;2186.9;;;;;;;0.094485305;-1.0235298;0.07348857;;;;;;;;;;;;
2276.0;2186.9;;;;;;;;;;-64.733574;79.34812;39.826653;;;;;;;;;
2276.0;2186.9;;;;;;;0.09485153;-1.0431226;0.080446795;;;;;;;;;;;;
2276.0;2189.8;;;;-0.2739754;1.3034707;0.020866396;;;;;;;;;;;;;;;
2276.0;2189.8;;;;-0.26379016;1.322529;0.024391178;;;;;;;;;;;;;;;
2276.0;2189.8;;;;-0.255703;1.3406144;0.027790073;;;;;;;;;;;;;;;
2276.0;2189.8;;;;-0.25233462;1.3541147;0.030696873;;;;;;;;;;;;;;;
2276.0;2189.8;;;;-0.25318912;1.3680154;0.035228733;;;;;;;;;;;;;;;
2276.0;2196.5;;;;;;;;;;-67.09876;74.48042;42.54662;;;;;;;;;
2276.0;2196.5;;;;;;;0.09320353;-1.0641193;0.09009064;;;;;;;;;;;;
2276.0;2196.5;;;;;;;;;;-69.498276;69.4792;45.304726;;;;;;;;;
2276.0;2196.5;;;;;;;0.09784234;-1.0873134;0.10095523;;;;;;;;;;;;
2277.0;2199.9;;;;-0.25120547;1.3787843;0.04364777;;;;;;;;;;;;;;;
2277.0;2199.9;;;;-0.24810031;1.3934404;0.050777443;;;;;;;;;;;;;;;
2277.0;2199.9;;;;-0.24259952;1.4080507;0.057235725;;;;;;;;;;;;;;;
2277.0;2199.9;;;;-0.23453143;1.421322;0.062004097;;;;;;;;;;;;;;;
2277.0;2199.9;;;;-0.23237231;1.4282686;0.06707383;;;;;;;;;;;;;;;
2277.0;2201.6;;;;;;;;;;;;;;;;;3.7957397;-124.988556;39.46806;;2082.2
2277.0;2201.6;;;;;;;;;;;;;;-0.68562883;0.7459334;-0.37958923;;;;;2082.2
2277.0;2201.6;;;;;;;;;;;;;;;;;-5.4246655;-124.988556;39.59395;;2082.2
2277.0;2201.6;;;;;;;;;;;;;;-0.5843684;0.73897517;-0.31177709;;;;;2082.2
2277.0;2201.6;;;;;;;;;;;;;;;;;-14.545885;-124.988556;40.62395;;2091.8
2277.0;2201.6;;;;;;;;;;;;;;-0.48060548;0.71749014;-0.25763726;;;;;2091.8
2277.0;2201.6;;;;;;;;;;;;;;;;;-21.542253;-124.89319;42.626728;;2091.8
2277.0;2201.6;;;;;;;;;;;;;;-0.36451307;0.74599445;-0.22510453;;;;;2091.8
2277.0;2201.6;;;;;;;;;;;;;;;;;-28.447065;-124.30952;48.64269;;2101.5
2277.0;2201.6;;;;;;;;;;;;;;-0.24738304;0.7917722;-0.18311106;;;;;2101.5
2277.0;2201.6;;;;;;;;;;;;;;;;;-36.91595;-124.610886;61.06372;;2101.5
2277.0;2201.6;;;;;;;;;;;;;;-0.15497299;0.8734397;-0.12683493;;;;;2101.5
2321.0;2202.8;;;;;;;;;;;;;;;;;-50.710316;-124.93515;84.868164;;2111.1
2321.0;2202.8;;;;;;;;;;;;;;-0.06225776;0.95864743;0.011597034;;;;;2111.1
2321.0;2202.8;;;;;;;;;;;;;;;;;-67.88079;-124.988556;116.092415;;2111.1
2321.0;2202.8;;;;;;;;;;;;;;0.15430158;1.1305887;0.20490128;;;;;2111.1
2321.0;2202.8;;;;;;;;;;;;;;;;;-90.57893;-124.988556;124.988556;;2120.7
2321.0;2202.8;;;;;;;;;;;;;;0.30219427;1.2446059;0.1770684;;;;;2120.7
2321.0;2202.8;;;;;;;;;;;;;;;;;-96.64068;-124.988556;124.988556;;2120.7
2321.0;2202.8;;;;;;;;;;;;;;0.46308786;1.4560381;0.2118595;;;;;2120.7
2321.0;2202.8;;;;;;;;;;;;;;;;;-49.123356;-116.49678;124.988556;;2130.3
2321.0;2202.8;;;;;;;;;;;;;;0.6643269;1.7449874;-0.040406507;;;;;2130.3
2321.0;2202.8;;;;;;;;;;;;;;;;;51.824245;-68.70479;124.988556;;2130.3
2321.0;2202.8;;;;;;;;;;;;;;0.5998108;1.9740592;-0.19617298;;;;;2130.3
2321.0;2203.8;213161;262143;7597;;;;;;;;;;;;;;;;;;
2321.0;2205.9;;;;;;;;;;-71.93213;64.653465;48.131504;;;;;;;;;
2321.0;2205.9;;;;;;;0.10168768;-1.106296;0.10608234;;;;;;;;;;;;
2321.0;2205.9;;;;;;;;;;-74.3202;59.762875;50.904873;;;;;;;;;
2321.0;2205.9;;;;;;;0.105533004;-1.1291848;0.11346782;;;;;;;;;;;;
2321.0;2209.7;;;;;;;;;;;;;17415;;;;;;;;
2321.0;2209.7;;;;;;;;;;;;;14881;;;;;;;;
2321.0;2209.7;;;;;;;;;;;;;14379;;;;;;;;
2321.0;2209.7;;;;;;;;;;;;;14041;;;;;;;;
2321.0;2209.7;;;;;;;;;;;;;12793;;;;;;;;
2325.0;2209.8;;;;-0.22834781;1.4373971;0.0756836;;;;;;;;;;;;;;;
2325.0;2209.8;;;;-0.21723941;1.4467431;0.08512116;;;;;;;;;;;;;;;
2325.0;2209.8;;;;-0.21107104;1.4511377;0.09161759;;;;;;;;;;;;;;;
2325.0;2209.8;;;;-0.21228412;1.4511567;0.09920503;;;;;;;;;;;;;;;
2325.0;2209.8;;;;-0.20609668;1.455597;0.10707475;;;;;;;;;;;;;;;
2325.0;2215.5;;;;;;;;;;-76.715904;54.81887;53.773617;;;;;;;;;
2325.0;2215.5;;;;;;;0.10925627;-1.1536607;0.11926634;;;;;;;;;;;;
2325.0;2215.5;;;;;;;;;;-79.01242;50.01602;56.566055;;;;;;;;;
2325.0;2215.5;;;;;;;0.11529893;-1.180639;0.12146367;;;;;;;;;;;;
2325.0;2219.8;;;;-0.1989403;1.4579393;0.112136856;;;;;;;;;;;;;;;
2325.0;2219.8;;;;-0.1962128;1.4539148;0.118495956;;;;;;;;;;;;;;;
2325.0;2219.8;;;;-0.19180301;1.4454156;0.12570955;;;;;;;;;;;;;;;
2325.0;2219.8;;;;-0.19268802;1.4339677;0.1326027;;;;;;;;;;;;;;;
2325.0;2219.8;;;;-0.18813708;1.4249002;0.14025117;;;;;;;;;;;;;;;
2325.0;2223.9;213145;262143;7593;;;;;;;;;;;;;;;;;;
2325.0;2225.0;;;;;;;;;;-81.324196;45.2208;59.37376;;;;;;;;;
2325.0;2225.0;;;;;;;0.11774041;-1.207007;0.12329478;;;;;;;;;;;;
2325.0;2225.0;;;;;;;;;;-83.62835;40.650654;62.273018;;;;;;;;;
2325.0;2225.0;;;;;;;0.12329478;-1.233253;0.12427137;;;;;;;;;;;;
2326.0;2229.9;;;;-0.18371965;1.4140474;0.14617921;;;;;;;;;;;;;;;
2326.0;2229.9;;;;-0.18229295;1.3999254;0.15157701;;;;;;;;;;;;;;;
2326.0;2229.9;;;;-0.17619707;1.3895456;0.15787508;;;;;;;;;;;;;;;
2326.0;2229.9;;;;-0.16918184;1.374878;0.16069795;;;;;;;;;;;;;;;
2326.0;2229.9;;;;-0.16592027;1.3592721;0.16637422;;;;;;;;;;;;;;;
2326.0;2234.3;;;;;;;;;;-85.9592;36.370434;65.03113;;;;;;;;;
2326.0;2234.3;;;;;;;0.13061923;-1.2541276;0.12610248;;;;;;;;;;;;
2326.0;2234.3;;;;;;;;;;-88.30531;32.448807;67.72439;;;;;;;;;
2326.0;2234.3;;;;;;;0.13879818;-1.271279;0.12866604;;;;;;;;;;;;
2326.0;2239.6;;;;-0.15328218;1.3472558;0.17372896;;;;;;;;;;;;;;;
2326.0;2239.6;;;;-0.15003587;1.3323594;0.17462923;;;;;;;;;;;;;;;
2326.0;2239.6;;;;-0.15328218;1.3116838;0.17888261;;;;;;;;;;;;;;;
2326.0;2239.6;;;;-0.14519884;1.2957994;0.18483354;;;;;;;;;;;;;;;
2326.0;2239.6;;;;-0.14482881;1.2806207;0.1871605;;;;;;;;;;;;;;;
2326.0;2243.6;;;;;;;;;;-90.70864;28.984955;70.307014;;;;;;;;;
2326.0;2243.6;;;;;;;0.14966278;-1.2795801;0.13489181;;;;;;;;;;;;
2326.0;2243.6;;;;;;;;;;-93.26075;25.959806;72.55394;;;;;;;;;
2326.0;2243.6;;;;;;;0.15863521;-1.2799463;0.1436201;;;;;;;;;;;;
2326.0;2243.6;213061;262143;7577;;;;;;;;;;;;;;;;;;
2326.0;2249.5;;;;;;;;;;;;;11643;;;;;;;;
2326.0;2249.5;;;;;;;;;;;;;10712;;;;;;;;
2326.0;2249.5;;;;;;;;;;;;;9861;;;;;;;;
2326.0;2249.5;;;;;;;;;;;;;9144;;;;;;;;
2326.0;2249.5;;;;;;;;;;;;;8383;;;;;;;;
2328.0;2249.5;;;;-0.15190889;1.2622491;0.18774799;;;;;;;;;;;;;;;
2328.0;2249.5;;;;-0.15700914;1.237507;0.18875507;;;;;;;;;;;;;;;
2328.0;2249.5;;;;-0.16093828;1.2163659;0.19319156;;;;;;;;;;;;;;;
2328.0;2249.5;;;;-0.16028978;1.2043229;0.1991997;;;;;;;;;;;;;;;
2328.0;2249.5;;;;-0.159256;1.1869775;0.19688419;;;;;;;;;;;;;;;
2328.0;2253.3;;;;;;;;;;-95.965454;23.56029;74.51857;;;;;;;;;
2328.0;2253.3;;;;;;;0.16827907;-1.2738426;0.15478988;;;;;;;;;;;;
2328.0;2253.3;;;;;;;;;;-98.64727;21.790216;76.15513;;;;;;;;;
2328.0;2253.3;;;;;;;0.17871639;-1.2622455;0.16565447;;;;;;;;;;;;
2328.0;2259.6;;;;-0.15880968;1.1755067;0.1951218;;;;;;;;;;;;;;;
2328.0;2259.6;;;;-0.16203691;1.1589242;0.19382098;;;;;;;;;;;;;;;
2328.0;2259.6;;;;-0.1600113;1.1462175;0.19508746;;;;;;;;;;;;;;;
2328.0;2259.6;;;;-0.15553285;1.138218;0.19394305;;;;;;;;;;;;;;;
2328.0;2259.6;;;;-0.16224672;1.1222993;0.19133762;;;;;;;;;;;;;;;
2329.0;2261.4;;;;;;;;;;;;;;;;;100.16937;-31.876583;124.988556;;2140.0
2329.0;2261.4;;;;;;;;;;;;;;0.6579791;1.9979857;-0.65504926;;;;;2140.0
2329.0;2261.4;;;;;;;;;;;;;;;;;34.20743;38.00699;124.43541;;2140.0
2329.0;2261.4;;;;;;;;;;;;;;0.567217;1.9963378;-0.8220466;;;;;2140.0
2329.0;2261.4;;;;;;;;;;;;;;;;;-42.294838;77.528465;81.01138;;2149.5
2329.0;2261.4;;;;;;;;;;;;;;0.15033418;1.6857204;-0.44178593;;;;;2149.5
2329.0;2261.4;;;;;;;;;;;;;;;;;-62.253944;43.5461;-7.4541464;;2149.5
2329.0;2261.4;;;;;;;;;;;;;;-0.32148197;1.3547777;-0.3632313;;;;;2149.5
2329.0;2261.4;;;;;;;;;;;;;;;;;-46.117283;26.31077;-66.97287;;2159.2
2329.0;2261.4;;;;;;;;;;;;;;-0.59859;1.046907;-0.2791223;;;;;2159.2
2329.0;2261.4;;;;;;;;;;;;;;;;;-39.090393;33.810696;-118.13334;;2159.2
2329.0;2261.4;;;;;;;;;;;;;;-0.79628897;0.85042876;-0.2931608;;;;;2159.2
2329.0;2262.3;;;;;;;;;;;;;;;;;-17.685476;46.54454;-124.988556;;2168.8
2329.0;2262.3;;;;;;;;;;;;;;-0.7467879;0.8020875;-0.4141972;;;;;2168.8
2329.0;2262.3;;;;;;;;;;;;;;;;;-7.587664;44.026768;-124.217964;;2168.8
2329.0;2262.3;;;;;;;;;;;;;;-0.70027775;1.1763054;-0.2837611;;;;;2168.8
2329.0;2262.3;;;;;;;;;;;;;;;;;-25.765251;-10.937071;-75.38454;;2178.4
2329.0;2262.3;;;;;;;;;;;;;;-0.52900785;1.1955931;-0.2164983;;;;;2178.4
2329.0;2262.3;;;;;;;;;;;;;;;;;-44.694355;-63.734093;38.312176;;2178.4
2329.0;2262.3;;;;;;;;;;;;;;0.05859554;0.83999145;-0.30921355;;;;;2178.4
2329.0;2262.3;;;;;;;;;;;;;;;;;-38.289288;-63.947723;100.49364;;2188.1
2329.0;2262.3;;;;;;;;;;;;;;0.34998626;0.94369334;-0.15869625;;;;;2188.1
2329.0;2262.3;;;;;;;;;;;;;;;;;0.6256294;-60.708942;123.85555;;2188.1
2329.0;2262.3;;;;;;;;;;;;;;0.6122623;1.1322367;-0.19971313;;;;;2188.1
2331.0;2262.7;;;;;;;;;;-101.52745;20.710623;77.45216;;;;;;;;;
2331.0;2262.7;;;;;;;0.19122899;-1.2454604;0.18158513;;;;;;;;;;;;
2331.0;2262.7;;;;;;;;;;-104.297005;20.439772;78.40586;;;;;;;;;
2331.0;2262.7;;;;;;;0.20068972;-1.2259285;0.19739372;;;;;;;;;;;;
2331.0;2263.6;212965;262143;7572;;;;;;;;;;;;;;;;;;
2331.0;2269.4;;;;-0.16864397;1.1055337;0.1905556;;;;;;;;;;;;;;;
