patientId;holterMac;flexMac;;;;;;;;;;;;;;;;;;;;
stairsdown;CA:F3:0B:1E:33:78;D3:4A:5C:52:80:78;;;;;;;;;;;;;;;;;;;;
receivedTimeStamp;timeStamp;red;ir;green;adxl_accX;adxl_accY;adxl_accZ;lsm_accelX;lsm_accelY;lsm_accelZ;lsm_gyroX;lsm_gyroY;lsm_gyroZ;ecg;flex_lsm_accelX;flex_lsm_accelY;flex_lsm_accelZ;flex_lsm_gyroX;flex_lsm_gyroY;flex_lsm_gyroZ;flex_cmd;flexTimeStamp
306.0;215.9;;;;;;;;;;;;;;;;;;;;17;0.1
306.0;215.9;;;;;;;;;;;;;;;;;14.278848;1.1825923;0.93844414;;127.6
306.0;215.9;;;;;;;;;;;;;;0.82070374;-0.034119695;-0.40046388;;;;;127.6
306.0;215.9;;;;;;;;;;;;;;;;;-6.9544053;-17.509995;-7.694479;;127.6
306.0;215.9;;;;;;;;;;;;;;0.8798486;-0.12549211;-0.3971679;;;;;127.6
306.0;215.9;;;;;;;;;;;;;;;;;-68.63612;-84.76516;-56.94372;;137.2
306.0;215.9;;;;;;;;;;;;;;0.8725242;-0.14551225;-0.37391278;;;;;137.2
306.0;215.9;;;;;;;;;;;;;;;;;-123.17271;-124.988556;-117.01178;;137.2
306.0;215.9;;;;;;;;;;;;;;0.8885769;-0.15033418;-0.35975218;;;;;137.2
364.0;216.7;;;;;;;;;;;;;;;;;-75.170906;-124.988556;-60.29313;;146.9
364.0;216.7;;;;;;;;;;;;;;0.88991976;-0.14276558;-0.34357738;;;;;146.9
364.0;216.7;;;;;;;;;;;;;;;;;-32.692955;-124.988556;11.959441;;146.9
364.0;216.7;;;;;;;;;;;;;;0.89492476;-0.1480758;-0.33210242;;;;;146.9
364.0;216.7;;;;;;;;;;;;;;;;;-44.778282;-99.08978;29.114658;;156.5
364.0;216.7;;;;;;;;;;;;;;0.89565724;-0.16791284;-0.32374036;;;;;156.5
364.0;216.7;;;;;;;;;;;;;;;;;-52.80084;-12.703329;56.60039;;156.5
364.0;216.7;;;;;;;;;;;;;;0.891995;-0.15619373;-0.31086153;;;;;156.5
364.0;216.7;;;;;;;;;;;;;;;;;-51.587727;-5.474258;57.046722;;166.1
364.0;216.7;;;;;;;;;;;;;;0.8917509;-0.13666189;-0.29725027;;;;;166.1
364.0;216.7;;;;;;;;;;;;;;;;;-50.39369;-5.409406;54.628136;;166.1
364.0;216.7;;;;;;;;;;;;;;0.88882107;-0.07318339;-0.2694174;;;;;166.1
364.0;276.4;;;;;;;;;;;;;;;;;-51.44276;-5.53148;53.060246;;175.8
364.0;276.4;;;;;;;;;;;;;;0.9010895;-0.013245033;-0.25971252;;;;;175.8
364.0;276.4;;;;;;;;;;;;;;;;;-51.82806;-5.1118503;51.969208;;175.8
364.0;276.4;;;;;;;;;;;;;;0.91830194;0.023621326;-0.2496414;;;;;175.8
364.0;276.4;;;;;;;;;;;;;;;;;-52.190468;-5.413221;51.610615;;185.3
364.0;276.4;;;;;;;;;;;;;;0.9798273;0.049256876;-0.26276436;;;;;185.3
364.0;276.4;;;;;;;;;;;;;;;;;-51.595356;-4.8486285;53.495132;;185.3
364.0;276.4;;;;;;;;;;;;;;0.97579885;0.02478103;-0.28247932;;;;;185.3
364.0;276.4;;;;;;;;;;;;;;;;;-50.019836;-4.272591;54.92187;;194.8
364.0;276.4;;;;;;;;;;;;;;0.95211643;0.032044437;-0.2923673;;;;;194.8
364.0;276.4;;;;;;;;;;;;;;;;;-48.661766;-4.886776;56.752983;;194.8
364.0;276.4;;;;;;;;;;;;;;0.93545336;0.028504288;-0.2946257;;;;;194.8
430.0;277.2;;;;;;;;;;;;;;;;;-47.566914;-5.569628;57.840206;;204.5
430.0;277.2;;;;;;;;;;;;;;0.9297769;0.03668325;-0.28894925;;;;;204.5
430.0;277.2;;;;;;;;;;;;;;;;;-46.914577;-5.9739985;58.275093;;204.5
430.0;277.2;;;;;;;;;;;;;;0.9207434;0.030640583;-0.27405623;;;;;204.5
430.0;277.2;;;;;;;;;;;;;;;;;-45.930355;-6.267739;58.202614;;214.1
430.0;277.2;;;;;;;;;;;;;;0.9097568;0.021423994;-0.25971252;;;;;214.1
430.0;277.2;;;;;;;;;;;;;;;;;-45.186466;-6.897183;57.87454;;214.1
430.0;277.2;;;;;;;;;;;;;;0.9060335;0.009582812;-0.2503128;;;;;214.1
430.0;277.2;;;;;;;;;;;;;;;;;-44.35865;-7.5037384;58.19117;;223.7
430.0;277.2;;;;;;;;;;;;;;0.9053621;-0.01147496;-0.24262215;;;;;223.7
430.0;277.2;;;;;;;;;;;;;;;;;-43.599506;-8.335368;58.854946;;223.7
430.0;277.2;;;;;;;;;;;;;;0.91201514;-0.020447401;-0.23450422;;;;;223.7
430.0;337.6;;;;;;;;;;;;;;;;;-43.385876;-8.255258;59.72854;;233.4
430.0;337.6;;;;;;;;;;;;;;0.91665393;-0.03180029;-0.23432112;;;;;233.4
430.0;337.6;;;;;;;;;;;;;;;;;-43.5461;-7.7097383;60.26261;;233.4
430.0;337.6;;;;;;;;;;;;;;0.9178747;-0.02557451;-0.23487045;;;;;233.4
430.0;337.6;;;;;;;;;;;;;;;;;-43.28288;-7.026887;60.636463;;243.0
430.0;337.6;;;;;;;;;;;;;;0.910184;-0.031861324;-0.24152349;;;;;243.0
430.0;337.6;;;;;;;;;;;;;;;;;-42.542805;-6.1342206;61.33457;;243.0
430.0;337.6;;;;;;;;;;;;;;0.9023713;-0.033936583;-0.2550737;;;;;243.0
430.0;337.6;;;;;;;;;;;;;;;;;-41.46321;-5.279702;62.36076;;252.5
430.0;337.6;;;;;;;;;;;;;;0.8971221;-0.049012728;-0.2713706;;;;;252.5
430.0;337.6;;;;;;;;;;;;;;;;;-41.52043;-4.333628;62.170017;;252.5
430.0;337.6;;;;;;;;;;;;;;0.89040804;-0.022888882;-0.28315073;;;;;252.5
548.0;338.3;;;;;;;;;;;;;;;;;-40.8681;-3.4409618;62.444687;;262.2
548.0;338.3;;;;;;;;;;;;;;0.87759024;-0.012207404;-0.29737237;;;;;262.2
548.0;338.3;;;;;;;;;;;;;;;;;-40.101322;-3.7194436;62.391277;;262.2
548.0;338.3;;;;;;;;;;;;;;0.86733603;-0.0022583697;-0.30317086;;;;;262.2
548.0;338.3;;;;;;;;;;;;;;;;;-39.95254;-4.482406;62.566757;;271.6
548.0;338.3;;;;;;;;;;;;;;0.8553728;0.01617481;-0.31019014;;;;;271.6
548.0;338.3;;;;;;;;;;;;;;;;;-40.45991;-5.348369;62.997833;;271.6
548.0;338.3;;;;;;;;;;;;;;0.85238194;0.023499252;-0.31336406;;;;;271.6
548.0;338.3;;;;;;;;;;;;;;;;;-41.55095;-5.6993318;63.383133;;281.2
548.0;338.3;;;;;;;;;;;;;;0.8514054;0.03381451;-0.30439162;;;;;281.2
548.0;338.3;;;;;;;;;;;;;;;;;-43.225655;-6.0541096;63.791313;;281.2
548.0;338.3;;;;;;;;;;;;;;0.8427381;0.043458357;-0.30909148;;;;;281.2
548.0;396.7;;;;;;;;;;;;;;;;;-44.64858;-6.6415906;64.203316;;290.9
548.0;396.7;;;;;;;;;;;;;;0.840846;0.06329539;-0.31598866;;;;;290.9
548.0;396.7;;;;;;;;;;;;;;;;;-46.78106;-7.4045534;65.21424;;290.9
548.0;396.7;;;;;;;;;;;;;;0.8402966;0.08038575;-0.31928465;;;;;290.9
548.0;396.7;;;;;;;;;;;;;;;;;-49.565872;-8.709219;66.14124;;300.5
548.0;396.7;;;;;;;;;;;;;;0.83260596;0.08337657;-0.31531724;;;;;300.5
548.0;396.7;;;;;;;;;;;;;;;;;-51.99591;-10.338145;67.133095;;300.5
548.0;396.7;;;;;;;;;;;;;;0.84090704;0.0888699;-0.32111576;;;;;300.5
548.0;396.7;;;;;;;;;;;;;;;;;-53.590504;-11.814478;68.285164;;310.0
548.0;396.7;;;;;;;;;;;;;;0.84591204;0.07843257;-0.31812495;;;;;310.0
548.0;396.7;;;;;;;;;;;;;;;;;-54.612873;-13.4891815;69.071014;;310.0
548.0;396.7;;;;;;;;;;;;;;0.85329753;0.07599109;-0.324778;;;;;310.0
549.0;397.5;;;;;;;;;;;;;;;;;-55.89465;-15.736107;69.734795;;319.7
549.0;397.5;;;;;;;;;;;;;;0.8559221;0.0712302;-0.32129887;;;;;319.7
549.0;397.5;;;;;;;;;;;;;;;;;-56.428722;-18.23481;70.41764;;319.7
549.0;397.5;;;;;;;;;;;;;;0.8701438;0.06042665;-0.3374737;;;;;319.7
549.0;397.5;;;;;;;;;;;;;;;;;-56.310463;-20.340586;70.58931;;329.4
549.0;397.5;;;;;;;;;;;;;;0.8735618;0.039490953;-0.3509018;;;;;329.4
549.0;397.5;;;;;;;;;;;;;;;;;-54.673912;-22.881252;70.21928;;329.4
549.0;397.5;;;;;;;;;;;;;;0.87740713;0.042664878;-0.35999635;;;;;329.4
549.0;397.5;;;;;;;;;;;;;;;;;-52.751244;-25.208288;69.63179;;339.0
549.0;397.5;;;;;;;;;;;;;;0.8746605;0.025696585;-0.36579487;;;;;339.0
549.0;397.5;;;;;;;;;;;;;;;;;-49.844353;-27.226326;69.013794;;339.0
549.0;397.5;;;;;;;;;;;;;;0.8806421;0.031373028;-0.37965026;;;;;339.0
549.0;457.5;;;;;;;;;;;;;;;;;-46.128727;-28.942991;68.18216;;348.7
549.0;457.5;;;;;;;;;;;;;;0.89291054;0.02764977;-0.39680165;;;;;348.7
549.0;457.5;;;;;;;;;;;;;;;;;-41.24958;-29.847103;67.27425;;348.7
549.0;457.5;;;;;;;;;;;;;;0.9070711;0.018066958;-0.40455335;;;;;348.7
549.0;457.5;;;;;;;;;;;;;;;;;-35.01236;-29.866177;66.16413;;358.3
549.0;457.5;;;;;;;;;;;;;;0.910184;0.021118809;-0.4364147;;;;;358.3
549.0;457.5;;;;;;;;;;;;;;;;;-27.83288;-29.152807;65.35921;;358.3
549.0;457.5;;;;;;;;;;;;;;0.9086581;0.009155553;-0.4497818;;;;;358.3
549.0;457.5;;;;;;;;;;;;;;;;;-20.687735;-27.71462;64.13084;;367.9
549.0;457.5;;;;;;;;;;;;;;0.9020661;0.0048829615;-0.460036;;;;;367.9
549.0;457.5;;;;;;;;;;;;;;;;;-13.492996;-25.429548;62.768944;;367.9
549.0;457.5;;;;;;;;;;;;;;0.9007233;-8.5451826E-4;-0.48097172;;;;;367.9
609.0;464.4;;;;;;;;;;;;;;;;;-6.660665;-22.381512;61.10187;;377.6
609.0;464.4;;;;;;;;;;;;;;0.90414137;-0.008789331;-0.49977112;;;;;377.6
609.0;464.4;;;;;;;;;;;;;;;;;0.32807398;-18.471329;59.10291;;377.6
609.0;464.4;;;;;;;;;;;;;;0.91091645;-0.0051271096;-0.5204016;;;;;377.6
609.0;464.4;;;;;;;;;;;;;;;;;6.8437757;-14.278848;56.649982;;387.3
609.0;464.4;;;;;;;;;;;;;;0.92281866;0.0018921476;-0.5316324;;;;;387.3
609.0;464.4;;;;;;;;;;;;;;;;;13.523515;-9.170813;53.987244;;387.3
609.0;464.4;;;;;;;;;;;;;;0.93887144;0.025635548;-0.5382855;;;;;387.3
609.0;464.4;;;;;;;;;;;;;;;;;20.214697;-3.730888;50.92776;;396.9
609.0;464.4;;;;;;;;;;;;;;0.94912565;0.054322947;-0.5353557;;;;;396.9
609.0;464.4;;;;;;;;;;;;;;;;;26.493881;1.5793328;47.414318;;396.9
609.0;464.4;;;;;;;;;;;;;;0.9577929;0.08709983;-0.5313883;;;;;396.9
609.0;517.3;;;;;;;;;;;;;;;;;32.319103;7.351146;43.61095;;406.5
609.0;517.3;;;;;;;;;;;;;;0.95736563;0.12475967;-0.51710564;;;;;406.5
609.0;517.3;;;;;;;;;;;;;;;;;37.209694;12.646107;39.628284;;406.5
609.0;517.3;;;;;;;;;;;;;;0.9501022;0.16846217;-0.48762473;;;;;406.5
609.0;517.3;;;;;;;;;;;;;;;;;40.364544;16.590626;35.69521;;416.1
609.0;517.3;;;;;;;;;;;;;;0.9406415;0.20917386;-0.4664449;;;;;416.1
609.0;517.3;;;;;;;;;;;;;;;;;41.016876;20.27192;31.998657;;416.1
609.0;517.3;;;;;;;;;;;;;;0.93472093;0.24219489;-0.4477676;;;;;416.1
609.0;517.3;;;;;;;;;;;;;;;;;40.36836;23.174994;28.653065;;425.8
609.0;517.3;;;;;;;;;;;;;;0.92770165;0.2667928;-0.4278695;;;;;425.8
609.0;517.3;;;;;;;;;;;;;;;;;38.861507;25.097658;25.536362;;425.8
609.0;517.3;;;;;;;;;;;;;;0.91744745;0.29981384;-0.41279337;;;;;425.8
669.0;518.1;;;;;;;;;;;;;;;;;36.912136;25.627918;23.365734;;435.5
669.0;518.1;;;;;;;;;;;;;;0.93813896;0.32569355;-0.4096805;;;;;435.5
669.0;518.1;;;;;;;;;;;;;;;;;34.6881;25.749992;21.805475;;435.5
669.0;518.1;;;;;;;;;;;;;;0.9819636;0.3505356;-0.41999573;;;;;435.5
669.0;518.1;;;;;;;;;;;;;;;;;32.818844;26.726585;20.714437;;445.2
669.0;518.1;;;;;;;;;;;;;;0.9688406;0.3071383;-0.430311;;;;;445.2
669.0;518.1;;;;;;;;;;;;;;;;;28.042694;28.015991;15.6788845;;445.2
669.0;518.1;;;;;;;;;;;;;;0.8487198;0.3707999;-0.33265176;;;;;445.2
669.0;518.1;;;;;;;;;;;;;;;;;25.208288;24.403364;12.878811;;454.8
669.0;518.1;;;;;;;;;;;;;;0.96444595;0.3696402;-0.3905759;;;;;454.8
669.0;518.1;;;;;;;;;;;;;;;;;23.842587;24.960325;10.082552;;454.8
669.0;518.1;;;;;;;;;;;;;;0.98788416;0.38306832;-0.41840875;;;;;454.8
669.0;578.2;;;;;;;;;;;;;;;;;20.321512;25.105288;7.3664055;;464.4
669.0;578.2;;;;;;;;;;;;;;1.0079653;0.39844966;-0.440199;;;;;464.4
669.0;578.2;;;;;;;;;;;;;;;;;16.258736;24.750511;4.314554;;464.4
669.0;578.2;;;;;;;;;;;;;;1.0187689;0.40241706;-0.436964;;;;;464.4
669.0;578.2;;;;;;;;;;;;;;;;;12.230293;24.800102;0.74007386;;474.0
669.0;578.2;;;;;;;;;;;;;;1.01883;0.4173101;-0.43848994;;;;;474.0
669.0;578.2;;;;;;;;;;;;;;;;;8.220923;25.143436;-3.4066288;;474.0
669.0;578.2;;;;;;;;;;;;;;0.99758905;0.43006682;-0.43208104;;;;;474.0
669.0;578.2;;;;;;;;;;;;;;;;;3.78811;23.96466;-6.145665;;483.7
669.0;578.2;;;;;;;;;;;;;;1.0268258;0.43250832;-0.42738122;;;;;483.7
669.0;578.2;;;;;;;;;;;;;;;;;-0.011444441;23.293253;-7.9996643;;483.7
669.0;578.2;;;;;;;;;;;;;;1.0270699;0.47676015;-0.41627246;;;;;483.7
730.0;579.0;;;;;;;;;;;;;;;;;-3.9750361;24.021883;-10.2732935;;493.4
730.0;579.0;;;;;;;;;;;;;;1.0178534;0.5099643;-0.40089116;;;;;493.4
730.0;579.0;;;;;;;;;;;;;;;;;-7.9081087;25.791956;-13.19544;;493.4
730.0;579.0;;;;;;;;;;;;;;1.000885;0.5321207;-0.37794122;;;;;493.4
730.0;579.0;;;;;;;;;;;;;;;;;-11.513107;27.756584;-17.29255;;503.1
730.0;579.0;;;;;;;;;;;;;;0.9762871;0.55238503;-0.36219367;;;;;503.1
730.0;579.0;;;;;;;;;;;;;;;;;-14.671774;30.350657;-21.725365;;503.1
730.0;579.0;;;;;;;;;;;;;;0.98934907;0.54768515;-0.34736168;;;;;503.1
730.0;579.0;;;;;;;;;;;;;;;;;-16.731773;34.211246;-26.264992;;512.8
730.0;579.0;;;;;;;;;;;;;;1.0042421;0.58229315;-0.33594775;;;;;512.8
730.0;579.0;;;;;;;;;;;;;;;;;-19.94766;38.750877;-31.693474;;512.8
730.0;579.0;;;;;;;;;;;;;;1.0219429;0.6173284;-0.3164159;;;;;512.8
730.0;645.6;;;;;;;;;;;;;;;;;-24.113438;43.446915;-37.24021;;522.4
730.0;645.6;;;;;;;;;;;;;;1.0497147;0.63704336;-0.28736228;;;;;522.4
730.0;645.6;;;;;;;;;;;;;;;;;-27.130957;47.643208;-42.90521;;522.4
730.0;645.6;;;;;;;;;;;;;;1.0917691;0.6350902;-0.26258126;;;;;522.4
730.0;645.6;;;;;;;;;;;;;;;;;-29.053621;50.687428;-48.532063;;532.1
730.0;645.6;;;;;;;;;;;;;;1.1326029;0.65126497;-0.24427015;;;;;532.1
730.0;645.6;;;;;;;;;;;;;;;;;-30.602434;52.77413;-54.494614;;532.1
730.0;645.6;;;;;;;;;;;;;;1.1296731;0.6610309;-0.22119816;;;;;532.1
730.0;645.6;;;;;;;;;;;;;;;;;-31.23188;55.06302;-60.8005;;541.7
730.0;645.6;;;;;;;;;;;;;;1.1337016;0.6356395;-0.17468795;;;;;541.7
730.0;645.6;;;;;;;;;;;;;;;;;-31.167028;57.267982;-66.789764;;541.7
730.0;645.6;;;;;;;;;;;;;;1.1033661;0.5901059;-0.11877804;;;;;541.7
787.0;646.4;;;;;;;;;;;;;;;;;-30.610065;59.186836;-72.26783;;551.4
787.0;646.4;;;;;;;;;;;;;;1.0329294;0.5330363;-0.086489454;;;;;551.4
787.0;646.4;;;;;;;;;;;;;;;;;-30.419323;59.785763;-77.39876;;551.4
787.0;646.4;;;;;;;;;;;;;;0.9703055;0.47511217;-0.049439985;;;;;551.4
787.0;646.4;;;;;;;;;;;;;;;;;-29.59914;58.26365;-82.55638;;561.1
787.0;646.4;;;;;;;;;;;;;;0.9297769;0.41773736;-0.016235847;;;;;561.1
787.0;646.4;;;;;;;;;;;;;;;;;-29.095585;55.612354;-87.34779;;561.1
787.0;646.4;;;;;;;;;;;;;;0.9320963;0.35505235;0.006897183;;;;;561.1
787.0;646.4;;;;;;;;;;;;;;;;;-30.514694;53.827023;-92.23075;;570.8
787.0;646.4;;;;;;;;;;;;;;0.89815974;0.29688406;0.03485214;;;;;570.8
787.0;646.4;;;;;;;;;;;;;;;;;-33.753475;52.12943;-95.6946;;570.8
787.0;646.4;;;;;;;;;;;;;;0.872219;0.24530777;0.02948088;;;;;570.8
787.0;653.0;;;;;;;;;;;;;;;;;-39.719837;49.29121;-97.0832;;580.5
787.0;653.0;;;;;;;;;;;;;;0.84627825;0.18378246;-9.155553E-4;;;;;580.5
787.0;653.0;;;;;;;;;;;;;;;;;-47.36854;44.518875;-97.74697;;580.5
787.0;653.0;;;;;;;;;;;;;;0.82741785;0.1490524;-0.047608875;;;;;580.5
787.0;653.0;;;;;;;;;;;;;;;;;-56.634724;38.30836;-97.46849;;590.2
787.0;653.0;;;;;;;;;;;;;;0.8402966;0.12359996;-0.09308145;;;;;590.2
787.0;653.0;;;;;;;;;;;;;;;;;-67.43446;31.712547;-96.686455;;590.2
787.0;653.0;;;;;;;;;;;;;;0.8764306;0.08868679;-0.13617359;;;;;590.2
787.0;653.0;;;;;;;;;;;;;;;;;-76.593834;25.566881;-96.40416;;599.8
787.0;653.0;;;;;;;;;;;;;;0.934843;0.05749687;-0.17023225;;;;;599.8
787.0;653.0;;;;;;;;;;;;;;;;;-83.60164;19.631031;-94.96979;;599.8
787.0;653.0;;;;;;;;;;;;;;1.0021669;0.024414808;-0.21063875;;;;;599.8
850.0;698.6;;;;;;;;;;;;;;;;;-88.37398;13.302256;-93.31034;;609.2
850.0;698.6;;;;;;;;;;;;;;1.0735191;-0.0021973327;-0.25550097;;;;;609.2
850.0;698.6;;;;;;;;;;;;;;;;;-90.43778;6.824702;-91.70812;;609.2
850.0;698.6;;;;;;;;;;;;;;1.2029176;-0.01965392;-0.29871517;;;;;609.2
850.0;698.6;;;;;;;;;;;;;;;;;-88.518936;2.3613698;-89.91897;;618.8
850.0;698.6;;;;;;;;;;;;;;1.3177282;-0.028809473;-0.34455398;;;;;618.8
850.0;698.6;;;;;;;;;;;;;;;;;-83.88776;-0.5798517;-87.611015;;618.8
850.0;698.6;;;;;;;;;;;;;;1.4191717;-0.07080294;-0.39307842;;;;;618.8
850.0;698.6;;;;;;;;;;;;;;;;;-75.58291;-2.422407;-86.08509;;628.4
850.0;698.6;;;;;;;;;;;;;;1.5175023;-0.13080233;-0.45728934;;;;;628.4
850.0;698.6;;;;;;;;;;;;;;;;;-64.325386;-0.54933316;-86.58102;;628.4
850.0;698.6;;;;;;;;;;;;;;1.5441755;-0.17340617;-0.48097172;;;;;628.4
850.0;705.6;;;;;;;;;;;;;;;;;-50.66454;2.7352216;-86.310165;;638.1
850.0;705.6;;;;;;;;;;;;;;1.4896694;-0.1683401;-0.49665824;;;;;638.1
850.0;705.6;;;;;;;;;;;;;;;;;-36.889248;3.6660361;-86.42461;;638.1
850.0;705.6;;;;;;;;;;;;;;1.4358959;-0.18726158;-0.49061555;;;;;638.1
850.0;705.6;;;;;;;;;;;;;;;;;-23.506882;4.459517;-88.62956;;647.7
850.0;705.6;;;;;;;;;;;;;;1.3924985;-0.15887935;-0.45698416;;;;;647.7
850.0;705.6;;;;;;;;;;;;;;;;;-12.623219;6.2715535;-89.73586;;647.7
850.0;705.6;;;;;;;;;;;;;;1.3540453;-0.13476974;-0.42219305;;;;;647.7
850.0;705.6;;;;;;;;;;;;;;;;;-3.6088138;9.670553;-88.671524;;657.4
850.0;705.6;;;;;;;;;;;;;;1.3002716;-0.08239998;-0.3645741;;;;;657.4
850.0;705.6;;;;;;;;;;;;;;;;;5.348369;8.491775;-93.314156;;657.4
850.0;705.6;;;;;;;;;;;;;;1.3130894;0.1060213;-0.3762932;;;;;657.4
909.0;758.5;;;;;;;;;;;;;;;;;10.025331;10.265663;-100.55467;;667.0
909.0;758.5;;;;;;;;;;;;;;1.2009643;0.12640767;-0.3452254;;;;;667.0
909.0;758.5;;;;;;;;;;;;;;;;;12.726218;10.288552;-104.747154;;667.0
909.0;758.5;;;;;;;;;;;;;;1.1282083;0.17481002;-0.31629384;;;;;667.0
909.0;758.5;;;;;;;;;;;;;;;;;15.243996;5.893887;-106.29978;;676.6
909.0;758.5;;;;;;;;;;;;;;1.1127049;0.1477096;-0.29590747;;;;;676.6
909.0;758.5;;;;;;;;;;;;;;;;;17.89529;2.0867033;-108.14997;;676.6
909.0;758.5;;;;;;;;;;;;;;1.0904263;0.16296884;-0.27423933;;;;;676.6
909.0;758.5;;;;;;;;;;;;;;;;;20.325327;-0.8926664;-109.4966;;686.2
909.0;758.5;;;;;;;;;;;;;;1.0398877;0.16003907;-0.25098422;;;;;686.2
909.0;758.5;;;;;;;;;;;;;;;;;22.019106;-5.645924;-109.64537;;686.2
909.0;758.5;;;;;;;;;;;;;;1.0328684;0.19550157;-0.22418897;;;;;686.2
909.0;765.9;;;;;;;;;;;;;;;;;22.900326;-10.181738;-107.7723;;695.9
909.0;765.9;;;;;;;;;;;;;;1.0508744;0.2031312;-0.19855343;;;;;695.9
909.0;765.9;;;;;;;;;;;;;;;;;21.996216;-12.417218;-105.99841;;695.9
909.0;765.9;;;;;;;;;;;;;;1.0646688;0.23938718;-0.16699728;;;;;695.9
909.0;765.9;;;;;;;;;;;;;;;;;19.787437;-13.554033;-103.709526;;705.5
909.0;765.9;;;;;;;;;;;;;;1.0711386;0.22797327;-0.14069033;;;;;705.5
909.0;765.9;;;;;;;;;;;;;;;;;16.003143;-14.202551;-102.22938;;705.5
909.0;765.9;;;;;;;;;;;;;;1.0835901;0.24750511;-0.119754635;;;;;705.5
909.0;765.9;;;;;;;;;;;;;;;;;11.394848;-15.182959;-100.47075;;715.2
909.0;765.9;;;;;;;;;;;;;;1.1225928;0.2700278;-0.13220619;;;;;715.2
909.0;765.9;;;;;;;;;;;;;;;;;6.981109;-15.625477;-97.38075;;715.2
909.0;765.9;;;;;;;;;;;;;;1.1836299;0.24646749;-0.16443373;;;;;715.2
970.0;819.1;;;;;;;;;;;;;;;;;1.6556292;-13.935514;-94.878235;;724.9
970.0;819.1;;;;;;;;;;;;;;1.1877193;0.29688406;-0.17224647;;;;;724.9
970.0;819.1;;;;;;;;;;;;;;;;;-2.8534806;-13.695181;-91.4449;;724.9
970.0;819.1;;;;;;;;;;;;;;1.0448927;0.19501327;-0.1521653;;;;;724.9
970.0;819.1;;;;;;;;;;;;;;;;;-7.755516;-16.266367;-90.87267;;734.5
970.0;819.1;;;;;;;;;;;;;;0.9750053;0.2113712;-0.15558337;;;;;734.5
970.0;819.1;;;;;;;;;;;;;;;;;-14.469588;-21.614735;-88.74019;;734.5
970.0;819.1;;;;;;;;;;;;;;1.0402539;0.24134037;-0.20599994;;;;;734.5
970.0;819.1;;;;;;;;;;;;;;;;;-21.908476;-24.166845;-87.36687;;744.1
970.0;819.1;;;;;;;;;;;;;;1.0358592;0.22486039;-0.17151402;;;;;744.1
970.0;819.1;;;;;;;;;;;;;;;;;-24.548326;-29.213844;-83.09808;;744.1
970.0;819.1;;;;;;;;;;;;;;1.1065401;0.21301919;-0.22113712;;;;;744.1
970.0;826.1;;;;;;;;;;;;;;;;;-26.184881;-30.926695;-79.02768;;753.8
970.0;826.1;;;;;;;;;;;;;;1.0840786;0.18262276;-0.23572497;;;;;753.8
970.0;826.1;;;;;;;;;;;;;;;;;-28.56914;-33.52077;-75.14039;;753.8
970.0;826.1;;;;;;;;;;;;;;1.0428785;0.15460677;-0.24732201;;;;;753.8
970.0;826.1;;;;;;;;;;;;;;;;;-33.40251;-35.4091;-71.72994;;763.5
970.0;826.1;;;;;;;;;;;;;;1.088168;0.13336588;-0.26557207;;;;;763.5
970.0;826.1;;;;;;;;;;;;;;;;;-31.73162;-37.575916;-64.39024;;763.5
970.0;826.1;;;;;;;;;;;;;;1.1969969;0.084231086;-0.3357036;;;;;763.5
970.0;826.1;;;;;;;;;;;;;;;;;-32.891323;-31.308174;-62.086094;;773.1
970.0;826.1;;;;;;;;;;;;;;1.0473952;0.039857175;-0.25696585;;;;;773.1
970.0;826.1;;;;;;;;;;;;;;;;;-37.186806;-29.194769;-60.663166;;773.1
970.0;826.1;;;;;;;;;;;;;;0.9831843;0.015137181;-0.19660024;;;;;773.1
1030.0;878.9;;;;;;;;;;;;;;;;;-39.979248;-31.643879;-59.14869;;782.8
1030.0;878.9;;;;;;;;;;;;;;0.91384625;-0.028748436;-0.12335581;;;;;782.8
1030.0;878.9;;;;;;;;;;;;;;;;;-44.91943;-35.83636;-58.01187;;782.8
1030.0;878.9;;;;;;;;;;;;;;0.89272743;-0.024597919;-0.05774102;;;;;782.8
1030.0;878.9;;;;;;;;;;;;;;;;;-51.62969;-39.944912;-56.94372;;792.4
1030.0;878.9;;;;;;;;;;;;;;0.89638966;0.027405621;-0.03875851;;;;;792.4
1030.0;878.9;;;;;;;;;;;;;;;;;-56.62328;-43.866543;-54.58617;;792.4
1030.0;878.9;;;;;;;;;;;;;;0.8791772;0.047242653;-0.030030213;;;;;792.4
1030.0;878.9;;;;;;;;;;;;;;;;;-59.66369;-47.467728;-52.35832;;802.1
1030.0;878.9;;;;;;;;;;;;;;0.8761254;0.1535081;-0.03729362;;;;;802.1
1030.0;878.9;;;;;;;;;;;;;;;;;-63.604393;-48.997467;-49.104282;;802.1
1030.0;878.9;;;;;;;;;;;;;;0.8737449;0.17157505;-0.04669332;;;;;802.1
1030.0;886.3;;;;;;;;;;;;;;;;;-65.67202;-48.46721;-46.6628;;811.8
1030.0;886.3;;;;;;;;;;;;;;0.81264687;0.15918455;-0.0568865;;;;;811.8
1030.0;886.3;;;;;;;;;;;;;;;;;-63.295387;-47.093876;-44.431133;;811.8
1030.0;886.3;;;;;;;;;;;;;;0.8253426;0.11444441;-0.12121952;;;;;811.8
1030.0;886.3;;;;;;;;;;;;;;;;;-62.246315;-42.61147;-42.973877;;821.4
1030.0;886.3;;;;;;;;;;;;;;0.7769402;0.1350139;-0.10052797;;;;;821.4
1030.0;886.3;;;;;;;;;;;;;;;;;-59.957424;-40.025024;-41.49373;;821.4
1030.0;886.3;;;;;;;;;;;;;;0.7685171;0.07226783;-0.1267739;;;;;821.4
1030.0;886.3;;;;;;;;;;;;;;;;;-52.770317;-37.892544;-39.27732;;831.1
1030.0;886.3;;;;;;;;;;;;;;0.8082522;-0.056154057;-0.18524735;;;;;831.1
1030.0;886.3;;;;;;;;;;;;;;;;;-45.342873;-32.31529;-38.62499;;831.1
1030.0;886.3;;;;;;;;;;;;;;0.73445845;-0.0717185;-0.17188025;;;;;831.1
1088.0;946.7;;;;;;;;;;;;;;;;;-42.16132;-26.894438;-39.796135;;840.8
1088.0;946.7;;;;;;;;;;;;;;0.7195654;-0.08545183;-0.17334513;;;;;840.8
1088.0;946.7;;;;;;;;;;;;;;;;;-37.75521;-24.437696;-39.098022;;840.8
1088.0;946.7;;;;;;;;;;;;;;0.6961272;-0.17688528;-0.17908262;;;;;840.8
1088.0;946.7;;;;;;;;;;;;;;;;;-31.01062;-23.606068;-39.73128;;850.4
1088.0;946.7;;;;;;;;;;;;;;0.6393017;-0.1887875;-0.19116795;;;;;850.4
1088.0;946.7;;;;;;;;;;;;;;;;;-24.575031;-24.941252;-41.55095;;850.4
1088.0;946.7;;;;;;;;;;;;;;0.62855923;-0.15478988;-0.20252083;;;;;850.4
1088.0;946.7;;;;;;;;;;;;;;;;;-19.299143;-26.451918;-40.959656;;860.1
1088.0;946.7;;;;;;;;;;;;;;0.63435775;-0.1894589;-0.2019715;;;;;860.1
1088.0;946.7;;;;;;;;;;;;;;;;;-14.622181;-28.122807;-40.158543;;860.1
1088.0;946.7;;;;;;;;;;;;;;0.6374706;-0.20191047;-0.19501327;;;;;860.1
1088.0;947.8;;;;;;;;;;;;;;;;;-11.730552;-29.39314;-38.945435;;869.8
1088.0;947.8;;;;;;;;;;;;;;0.64876246;-0.19873653;-0.16968292;;;;;869.8
1088.0;947.8;;;;;;;;;;;;;;;;;-11.005738;-29.877623;-37.14484;;869.8
1088.0;947.8;;;;;;;;;;;;;;0.6599933;-0.19782098;-0.13971373;;;;;869.8
1088.0;947.8;;;;;;;;;;;;;;;;;-10.361034;-29.17951;-35.145878;;879.3
1088.0;947.8;;;;;;;;;;;;;;0.6705527;-0.19580676;-0.11914426;;;;;879.3
1088.0;947.8;;;;;;;;;;;;;;;;;-8.621479;-28.241066;-33.345287;;879.3
1088.0;947.8;;;;;;;;;;;;;;0.6585284;-0.19544053;-0.106509596;;;;;879.3
1088.0;947.8;;;;;;;;;;;;;;;;;-4.852443;-28.298288;-31.346325;;889.0
1088.0;947.8;;;;;;;;;;;;;;0.6488235;-0.16382337;-0.10858486;;;;;889.0
1088.0;947.8;;;;;;;;;;;;;;;;;-1.739555;-28.656881;-28.942991;;889.0
1088.0;947.8;;;;;;;;;;;;;;0.6412549;-0.14038515;-0.09356975;;;;;889.0
1150.0;999.3;;;;;;;;;;;;;;;;;0.34333324;-29.526659;-26.306955;;898.7
1150.0;999.3;;;;;;;;;;;;;;0.64729756;-0.09320353;-0.08148442;;;;;898.7
1150.0;999.3;;;;;;;;;;;;;;;;;0.45396283;-29.622028;-23.262733;;898.7
1150.0;999.3;;;;;;;;;;;;;;0.6361278;-0.0712302;-0.07190161;;;;;898.7
1150.0;999.3;;;;;;;;;;;;;;;;;0.23651844;-29.175695;-20.496994;;908.3
1150.0;999.3;;;;;;;;;;;;;;0.6358837;-0.0397351;-0.06201361;;;;;908.3
1150.0;999.3;;;;;;;;;;;;;;;;;-0.5760369;-28.851437;-17.49855;;908.3
1150.0;999.3;;;;;;;;;;;;;;0.64009523;-8.5451826E-4;-0.055848874;;;;;908.3
1150.0;999.3;;;;;;;;;;;;;;;;;-1.2817774;-28.546251;-14.641255;;917.9
1150.0;999.3;;;;;;;;;;;;;;0.63557845;0.038941618;-0.046021912;;;;;917.9
1150.0;999.3;;;;;;;;;;;;;;;;;-2.7161474;-28.969696;-11.574144;;917.9
1150.0;999.3;;;;;;;;;;;;;;0.6409497;0.07043672;-0.04815821;;;;;917.9
1150.0;1000.1;;;;;;;;;;;;;;;;;-3.99411;-28.710287;-8.655812;;927.6
1150.0;1000.1;;;;;;;;;;;;;;0.6459548;0.08764916;-0.053407393;;;;;927.6
1150.0;1000.1;;;;;;;;;;;;;;;;;-5.226295;-28.092287;-5.939665;;927.6
1150.0;1000.1;;;;;;;;;;;;;;0.65364546;0.108401746;-0.05114902;;;;;927.6
1150.0;1000.1;;;;;;;;;;;;;;;;;-5.9663687;-27.741325;-3.2464066;;937.2
1150.0;1000.1;;;;;;;;;;;;;;0.6607257;0.14874722;-0.06414991;;;;;937.2
1150.0;1000.1;;;;;;;;;;;;;;;;;-7.2252574;-27.291178;-0.29374066;;937.2
1150.0;1000.1;;;;;;;;;;;;;;0.67592394;0.15381329;-0.073549606;;;;;937.2
1150.0;1000.1;;;;;;;;;;;;;;;;;-8.705404;-26.665548;3.1815546;;946.9
1150.0;1000.1;;;;;;;;;;;;;;0.6775109;0.16827907;-0.09308145;;;;;946.9
1150.0;1000.1;;;;;;;;;;;;;;;;;-10.223701;-25.399029;6.653035;;946.9
1150.0;1000.1;;;;;;;;;;;;;;0.68202764;0.19519639;-0.097720265;;;;;946.9
1209.0;1059.7;;;;;;;;;;;;;;;;;-13.10007;-23.815882;10.517442;;956.5
1209.0;1059.7;;;;;;;;;;;;;;0.6999115;0.19263284;-0.11346782;;;;;956.5
1209.0;1059.7;;;;;;;;;;;;;;;;;-16.136662;-21.969513;14.572589;;956.5
1209.0;1059.7;;;;;;;;;;;;;;0.7008881;0.20508438;-0.11548204;;;;;956.5
1209.0;1059.7;;;;;;;;;;;;;;;;;-19.688253;-20.081179;18.787958;;966.2
1209.0;1059.7;;;;;;;;;;;;;;0.70943326;0.22949919;-0.12933744;;;;;966.2
1209.0;1059.7;;;;;;;;;;;;;;;;;-22.90414;-17.761772;22.801142;;966.2
1209.0;1059.7;;;;;;;;;;;;;;0.7294534;0.21228676;-0.1441084;;;;;966.2
1209.0;1059.7;;;;;;;;;;;;;;;;;-24.6704;-15.213477;26.673178;;975.8
1209.0;1059.7;;;;;;;;;;;;;;0.7257912;0.21002838;-0.15912351;;;;;975.8
1209.0;1059.7;;;;;;;;;;;;;;;;;-25.81103;-12.867367;29.976805;;975.8
1209.0;1059.7;;;;;;;;;;;;;;0.73195595;0.2148503;-0.17407759;;;;;975.8
1209.0;1060.8;;;;;;;;;;;;;;;;;-26.932585;-11.303292;33.31477;;985.5
1209.0;1060.8;;;;;;;;;;;;;;0.7461165;0.27588734;-0.17065951;;;;;985.5
1209.0;1060.8;;;;;;;;;;;;;;;;;-29.522844;-10.250404;35.489212;;985.5
1209.0;1060.8;;;;;;;;;;;;;;0.76345104;0.31141087;-0.16657002;;;;;985.5
1209.0;1060.8;;;;;;;;;;;;;;;;;-31.777397;-9.014404;37.71325;;995.1
1209.0;1060.8;;;;;;;;;;;;;;0.77089757;0.313242;-0.1777398;;;;;995.1
1209.0;1060.8;;;;;;;;;;;;;;;;;-32.45262;-7.675405;39.50621;;995.1
1209.0;1060.8;;;;;;;;;;;;;;0.7653432;0.33625293;-0.21076083;;;;;995.1
1209.0;1060.8;;;;;;;;;;;;;;;;;-31.075472;-8.335368;41.112247;;1004.8
1209.0;1060.8;;;;;;;;;;;;;;0.8019044;0.4066286;-0.2064272;;;;;1004.8
1209.0;1060.8;;;;;;;;;;;;;;;;;-29.660177;-8.40785;41.863766;;1004.8
1209.0;1060.8;;;;;;;;;;;;;;0.81643116;0.46192816;-0.1859798;;;;;1004.8
1210.0;1120.0;;;;;;;;;;;;;;;;;-27.924437;-7.423628;41.46321;;1014.4
1210.0;1120.0;;;;;;;;;;;;;;0.8086184;0.5039216;-0.19788201;;;;;1014.4
1210.0;1120.0;;;;;;;;;;;;;;;;;-23.518326;-7.477035;40.84521;;1014.4
1210.0;1120.0;;;;;;;;;;;;;;0.78872037;0.52211064;-0.2766808;;;;;1014.4
1210.0;1120.0;;;;;;;;;;;;;;;;;-17.422253;-9.411145;40.40269;;1024.1
1210.0;1120.0;;;;;;;;;;;;;;0.79744864;0.567278;-0.32538834;;;;;1024.1
1210.0;1120.0;;;;;;;;;;;;;;;;;-11.738182;-12.447737;40.0708;;1024.1
1210.0;1120.0;;;;;;;;;;;;;;0.839259;0.5771661;-0.3322245;;;;;1024.1
1210.0;1120.0;;;;;;;;;;;;;;;;;-5.981628;-13.645589;39.551987;;1033.8
1210.0;1120.0;;;;;;;;;;;;;;0.8631245;0.7184057;-0.3172094;;;;;1033.8
1210.0;1120.0;;;;;;;;;;;;;;;;;-1.3237404;-11.219367;35.641804;;1033.8
1210.0;1120.0;;;;;;;;;;;;;;0.8332774;0.84737694;-0.31464583;;;;;1033.8
1211.0;1120.7;;;;;;;;;;;;;;;;;2.5063326;-11.127811;31.136509;;1043.4
1211.0;1120.7;;;;;;;;;;;;;;0.8448134;0.92538226;-0.34882656;;;;;1043.4
1211.0;1120.7;;;;;;;;;;;;;;;;;5.2301097;-13.679922;29.663992;;1043.4
1211.0;1120.7;;;;;;;;;;;;;;0.8757591;0.95242167;-0.33497116;;;;;1043.4
1211.0;1120.7;;;;;;;;;;;;;;;;;2.639851;-17.288734;28.195288;;1053.0
1211.0;1120.7;;;;;;;;;;;;;;0.90755945;1.0748008;-0.308298;;;;;1053.0
1211.0;1120.7;;;;;;;;;;;;;;;;;-6.0960727;-18.803217;27.661213;;1053.0
1211.0;1120.7;;;;;;;;;;;;;;0.98513746;1.0950651;-0.28675193;;;;;1053.0
1211.0;1120.7;;;;;;;;;;;;;;;;;-18.20429;-15.4194765;26.902067;;1062.7
1211.0;1120.7;;;;;;;;;;;;;;1.0639362;1.1383404;-0.25959045;;;;;1062.7
1211.0;1120.7;;;;;;;;;;;;;;;;;-30.507065;-8.472701;24.563585;;1062.7
1211.0;1120.7;;;;;;;;;;;;;;1.0802943;1.2084109;-0.2603229;;;;;1062.7
1211.0;1128.3;;;;0.0;0.0;0.0;;;;;;;;;;;;;;;
1211.0;1128.3;;;;-0.113330856;0.34957126;0.16440584;;;;;;;;;;;;;;;
1211.0;1128.3;;;;-0.29314807;1.0179445;0.39801794;;;;;;;;;;;;;;;
1211.0;1128.3;;;;-0.3002968;1.050747;0.39092642;;;;;;;;;;;;;;;
1211.0;1128.3;;;;-0.30411533;1.0628473;0.38779837;;;;;;;;;;;;;;;
1211.0;1138.3;;;;-0.3072777;1.075451;0.38383108;;;;;;;;;;;;;;;
1211.0;1138.3;;;;-0.3113022;1.0874025;0.3796807;;;;;;;;;;;;;;;
1211.0;1138.3;;;;-0.31445697;1.0994264;0.37567526;;;;;;;;;;;;;;;
1211.0;1138.3;;;;-0.31707767;1.111622;0.37117007;;;;;;;;;;;;;;;
1211.0;1138.3;;;;-0.31998065;1.1234132;0.36547092;;;;;;;;;;;;;;;
1273.0;1139.7;57497;57484;14842;;;;;;;;;;;;;;;;;;
1273.0;1148.3;;;;-0.32372668;1.1357728;0.36103442;;;;;;;;;;;;;;;
1273.0;1148.3;;;;-0.32712558;1.1480714;0.3563805;;;;;;;;;;;;;;;
1273.0;1148.3;;;;-0.33083728;1.1602021;0.351841;;;;;;;;;;;;;;;
1273.0;1148.3;;;;-0.33500293;1.1732446;0.3471184;;;;;;;;;;;;;;;
1273.0;1148.3;;;;-0.33893588;1.1864892;0.3421364;;;;;;;;;;;;;;;
1273.0;1158.3;;;;-0.3434296;1.2007295;0.3393555;;;;;;;;;;;;;;;
1273.0;1158.3;;;;-0.3487511;1.21587;0.33472064;;;;;;;;;;;;;;;
1273.0;1158.3;;;;-0.35411075;1.231968;0.32987598;;;;;;;;;;;;;;;
1273.0;1158.3;;;;-0.36036685;1.2488366;0.32595828;;;;;;;;;;;;;;;
1273.0;1158.3;;;;-0.36766818;1.2670861;0.3231087;;;;;;;;;;;;;;;
1273.0;1159.7;73833;73857;14837;;;;;;;;;;;;;;;;;;
1273.0;1165.9;;;;;;;;;;;;;0;;;;;;;;
1273.0;1165.9;;;;;;;;;;;;;0;;;;;;;;
1273.0;1165.9;;;;;;;;;;;;;-1;;;;;;;;
1273.0;1165.9;;;;;;;;;;;;;-2;;;;;;;;
1273.0;1165.9;;;;;;;;;;;;;-3;;;;;;;;
1273.0;1168.4;;;;-0.3756867;1.2874032;0.3213921;;;;;;;;;;;;;;;
1273.0;1168.4;;;;-0.38439947;1.3091584;0.32112888;;;;;;;;;;;;;;;
1273.0;1168.4;;;;-0.3931809;1.3318254;0.32064822;;;;;;;;;;;;;;;
1273.0;1168.4;;;;-0.4028054;1.3555566;0.3217354;;;;;;;;;;;;;;;
1273.0;1168.4;;;;-0.41252524;1.3803407;0.32471088;;;;;;;;;;;;;;;
1275.0;1178.5;;;;-0.4226113;1.4061624;0.32602313;;;;;;;;;;;;;;;
1275.0;1178.5;;;;-0.43296057;1.43182;0.32591632;;;;;;;;;;;;;;;
1275.0;1178.5;;;;-0.44417578;1.4580194;0.32608798;;;;;;;;;;;;;;;
1275.0;1178.5;;;;-0.45502478;1.4841882;0.3266869;;;;;;;;;;;;;;;
1275.0;1178.5;;;;-0.46650702;1.5102389;0.32599643;;;;;;;;;;;;;;;
1275.0;1180.1;;;;;;;;;;;;;;;;;-37.766655;-3.9063692;20.9624;;1072.3
1275.0;1180.1;;;;;;;;;;;;;;1.1341288;1.2599872;-0.26392406;;;;;1072.3
1275.0;1180.1;;;;;;;;;;;;;;;;;-45.171207;0.98422194;15.957365;;1072.3
1275.0;1180.1;;;;;;;;;;;;;;1.134373;1.335429;-0.19049653;;;;;1072.3
1275.0;1180.1;;;;;;;;;;;;;;;;;-51.76702;2.3422956;9.296701;;1081.9
1275.0;1180.1;;;;;;;;;;;;;;1.1107516;1.3887143;-0.14172795;;;;;1081.9
1275.0;1180.1;;;;;;;;;;;;;;;;;-55.730614;1.1329997;2.395703;;1081.9
1275.0;1180.1;;;;;;;;;;;;;;1.0439771;1.3663747;-0.11951049;;;;;1081.9
1275.0;1180.1;;;;;;;;;;;;;;;;;-54.84939;-3.47911;-3.0823696;;1091.5
1275.0;1180.1;;;;;;;;;;;;;;0.96963406;1.2479628;-0.14117862;;;;;1091.5
1275.0;1180.1;;;;;;;;;;;;;;;;;-48.75332;-10.219886;-6.721702;;1091.5
1275.0;1180.1;;;;;;;;;;;;;;0.9306314;1.137669;-0.16315195;;;;;1091.5
1275.0;1179.9;90188;90223;14830;;;;;;;;;;;;;;;;;;
1276.0;1180.9;;;;;;;;;;;;;;;;;-40.50569;-15.396588;-8.59859;;1101.1
1276.0;1180.9;;;;;;;;;;;;;;0.8923002;0.962859;-0.18903165;;;;;1101.1
1276.0;1180.9;;;;;;;;;;;;;;;;;-29.736473;-21.828365;-9.842219;;1101.1
1276.0;1180.9;;;;;;;;;;;;;;0.8996857;0.7697989;-0.28449354;;;;;1101.1
1276.0;1180.9;;;;;;;;;;;;;;;;;-14.915922;-27.294992;-10.75396;;1110.7
1276.0;1180.9;;;;;;;;;;;;;;0.9360637;0.6257515;-0.375927;;;;;1110.7
1276.0;1180.9;;;;;;;;;;;;;;;;;1.9264809;-27.054659;-11.867886;;1110.7
1276.0;1180.9;;;;;;;;;;;;;;0.9861141;0.48316905;-0.4443495;;;;;1110.7
1276.0;1180.9;;;;;;;;;;;;;;;;;22.247993;-22.62566;-12.321849;;1120.4
1276.0;1180.9;;;;;;;;;;;;;;1.0262154;0.34962004;-0.5376751;;;;;1120.4
1276.0;1180.9;;;;;;;;;;;;;;;;;41.066467;-17.956327;-10.517442;;1120.4
1276.0;1180.9;;;;;;;;;;;;;;1.0856044;0.25550097;-0.6025575;;;;;1120.4
1276.0;1188.3;;;;-0.47819144;1.5360682;0.32527164;;;;;;;;;;;;;;;
1276.0;1188.3;;;;-0.49026114;1.5608904;0.32256702;;;;;;;;;;;;;;;
1276.0;1188.3;;;;-0.5025521;1.584141;0.3197327;;;;;;;;;;;;;;;
1276.0;1188.3;;;;-0.51486593;1.6074755;0.3205376;;;;;;;;;;;;;;;
1276.0;1188.3;;;;-0.5268784;1.630482;0.32324603;;;;;;;;;;;;;;;
1276.0;1198.3;;;;-0.5386277;1.6526988;0.3261948;;;;;;;;;;;;;;;
1276.0;1198.3;;;;-0.5500489;1.6734545;0.32817462;;;;;;;;;;;;;;;
1276.0;1198.3;;;;-0.56210333;1.6931612;0.33103564;;;;;;;;;;;;;;;
1276.0;1198.3;;;;-0.57474905;1.7112391;0.33501056;;;;;;;;;;;;;;;
1276.0;1198.3;;;;-0.58795935;1.7278979;0.338913;;;;;;;;;;;;;;;
1276.0;1199.9;106654;106638;14840;;;;;;;;;;;;;;;;;;
1327.0;1205.9;;;;;;;;;;;;;-7;;;;;;;;
1327.0;1205.9;;;;;;;;;;;;;-5;;;;;;;;
1327.0;1205.9;;;;;;;;;;;;;-9;;;;;;;;
1327.0;1205.9;;;;;;;;;;;;;-22;;;;;;;;
1327.0;1205.9;;;;;;;;;;;;;-10;;;;;;;;
1327.0;1208.3;;;;-0.600956;1.742924;0.34284213;;;;;;;;;;;;;;;
1327.0;1208.3;;;;-0.61412054;1.7552645;0.34748462;;;;;;;;;;;;;;;
1327.0;1208.3;;;;-0.62718207;1.765053;0.35150912;;;;;;;;;;;;;;;
1327.0;1208.3;;;;-0.63940054;1.7712138;0.3566399;;;;;;;;;;;;;;;
1327.0;1208.3;;;;-0.65087515;1.773804;0.36067584;;;;;;;;;;;;;;;
1327.0;1218.4;;;;-0.66273504;1.7723734;0.36412433;;;;;;;;;;;;;;;
1327.0;1218.4;;;;-0.67361075;1.7673609;0.36683276;;;;;;;;;;;;;;;
1327.0;1218.4;;;;-0.68344504;1.7590983;0.36882785;;;;;;;;;;;;;;;
1327.0;1218.4;;;;-0.6932183;1.7472651;0.3693848;;;;;;;;;;;;;;;
1327.0;1218.4;;;;-0.7019959;1.7329142;0.3686333;;;;;;;;;;;;;;;
1327.0;1220.0;123016;122994;14838;;;;;;;;;;;;;;;;;;
1327.0;1228.5;;;;-0.70883566;1.7164423;0.36688617;;;;;;;;;;;;;;;
1327.0;1228.5;;;;-0.71461874;1.6986163;0.36322787;;;;;;;;;;;;;;;
1327.0;1228.5;;;;-0.7192994;1.6805079;0.35946277;;;;;;;;;;;;;;;
1327.0;1228.5;;;;-0.7226029;1.663048;0.35639194;;;;;;;;;;;;;;;
1327.0;1228.5;;;;-0.7238694;1.6459544;0.35113147;;;;;;;;;;;;;;;
1329.0;1238.6;;;;-0.72261435;1.6290514;0.34458163;;;;;;;;;;;;;;;
1329.0;1238.6;;;;-0.720398;1.6131403;0.33947757;;;;;;;;;;;;;;;
1329.0;1238.6;;;;-0.7161332;1.5978014;0.33515552;;;;;;;;;;;;;;;
1329.0;1238.6;;;;-0.7090302;1.5822146;0.3294411;;;;;;;;;;;;;;;
1329.0;1238.6;;;;-0.69964606;1.5668871;0.3239098;;;;;;;;;;;;;;;
1329.0;1240.8;;;;;;;;;;;;;;;;;51.587727;-15.381329;-6.511887;;1130.0
1329.0;1240.8;;;;;;;;;;;;;;1.137669;0.18323313;-0.57203895;;;;;1130.0
1329.0;1240.8;;;;;;;;;;;;;;;;;52.96106;-16.537218;-0.82399976;;1130.0
1329.0;1240.8;;;;;;;;;;;;;;1.2125003;0.046754356;-0.44886625;;;;;1130.0
1329.0;1240.8;;;;;;;;;;;;;;;;;52.80084;-20.939512;4.1695914;;1139.7
1329.0;1240.8;;;;;;;;;;;;;;1.3937193;-0.109500416;-0.34333324;;;;;1139.7
1329.0;1240.8;;;;;;;;;;;;;;;;;51.17191;-24.048586;8.159886;;1139.7
1329.0;1240.8;;;;;;;;;;;;;;1.4815515;-0.28992584;-0.2755211;;;;;1139.7
1329.0;1240.8;;;;;;;;;;;;;;;;;47.360912;-29.580067;9.365368;;1149.3
1329.0;1240.8;;;;;;;;;;;;;;1.6787622;-0.37226477;-0.24359874;;;;;1149.3
1329.0;1240.8;;;;;;;;;;;;;;;;;40.32258;-28.916288;9.102145;;1149.3
1329.0;1240.8;;;;;;;;;;;;;;1.782464;-0.32374036;-0.18091373;;;;;1149.3
1329.0;1240.3;139504;139396;14836;;;;;;;;;;;;;;;;;;
1330.0;1241.4;;;;;;;;;;;;;;;;;29.404585;-18.959625;8.915219;;1159.0
1330.0;1241.4;;;;;;;;;;;;;;1.9642934;-0.20178838;-0.03564562;;;;;1159.0
1330.0;1241.4;;;;;;;;;;;;;;;;;17.78466;2.6589253;5.1499987;;1159.0
1330.0;1241.4;;;;;;;;;;;;;;1.9970702;0.02417066;0.1980041;;;;;1159.0
1330.0;1241.4;;;;;;;;;;;;;;;;;13.725699;32.620472;-1.6441847;;1168.7
1330.0;1241.4;;;;;;;;;;;;;;1.9919431;0.35389262;0.3137913;;;;;1168.7
1330.0;1241.4;;;;;;;;;;;;;;;;;23.422956;58.58791;-14.091922;;1168.7
1330.0;1241.4;;;;;;;;;;;;;;1.7202063;0.7005829;0.29395428;;;;;1168.7
1330.0;1241.4;;;;;;;;;;;;;;;;;57.79824;57.10776;-26.8334;;1178.2
1330.0;1241.4;;;;;;;;;;;;;;1.3317057;0.9687185;-0.031373028;;;;;1178.2
1330.0;1241.4;;;;;;;;;;;;;;;;;95.48097;27.508621;-35.058136;;1178.2
1330.0;1241.4;;;;;;;;;;;;;;1.1361431;1.1334574;-0.5848567;;;;;1178.2
1330.0;1246.1;;;;;;;;;;;;;-37;;;;;;;;
1330.0;1246.1;;;;;;;;;;;;;-19;;;;;;;;
1330.0;1246.1;;;;;;;;;;;;;0;;;;;;;;
1330.0;1246.1;;;;;;;;;;;;;-140;;;;;;;;
1330.0;1246.1;;;;;;;;;;;;;95;;;;;;;;
1330.0;1248.4;;;;-0.688736;1.5512965;0.31717685;;;;;;;;;;;;;;;
1330.0;1248.4;;;;-0.67534643;1.5351985;0.31138614;;;;;;;;;;;;;;;
1330.0;1248.4;;;;-0.6604081;1.5182078;0.30661014;;;;;;;;;;;;;;;
1330.0;1248.4;;;;-0.6449776;1.500027;0.30053332;;;;;;;;;;;;;;;
1330.0;1248.4;;;;-0.6273652;1.4807779;0.29156116;;;;;;;;;;;;;;;
1387.0;1258.4;;;;-0.60973364;1.4596177;0.2824364;;;;;;;;;;;;;;;
1387.0;1258.4;;;;-0.5916367;1.4372903;0.27342227;;;;;;;;;;;;;;;
1387.0;1258.4;;;;-0.5730935;1.4141542;0.2662125;;;;;;;;;;;;;;;
1387.0;1258.4;;;;-0.5544587;1.3909417;0.25910953;;;;;;;;;;;;;;;
1387.0;1258.4;;;;-0.5348435;1.3664209;0.2525063;;;;;;;;;;;;;;;
1387.0;1260.1;155816;155741;14849;;;;;;;;;;;;;;;;;;
1387.0;1268.4;;;;-0.5154992;1.3416749;0.2477608;;;;;;;;;;;;;;;
1387.0;1268.4;;;;-0.49537283;1.3175203;0.24339679;;;;;;;;;;;;;;;
1387.0;1268.4;;;;-0.4748116;1.2933198;0.23838046;;;;;;;;;;;;;;;
1387.0;1268.4;;;;-0.45421988;1.2694551;0.23380664;;;;;;;;;;;;;;;
1387.0;1268.4;;;;-0.43458563;1.2457467;0.22996524;;;;;;;;;;;;;;;
1387.0;1278.5;;;;-0.41419607;1.2231218;0.22628024;;;;;;;;;;;;;;;
1387.0;1278.5;;;;-0.39426428;1.2010957;0.22246173;;;;;;;;;;;;;;;
1387.0;1278.5;;;;-0.37453082;1.1794587;0.21712878;;;;;;;;;;;;;;;
1387.0;1278.5;;;;-0.35696796;1.1587716;0.21343616;;;;;;;;;;;;;;;
1387.0;1278.5;;;;-0.3408318;1.1392022;0.2100487;;;;;;;;;;;;;;;
1387.0;1280.3;172179;172225;14849;;;;;;;;;;;;;;;;;;
1387.0;1286.4;;;;;;;;;;;;;329;;;;;;;;
1387.0;1286.4;;;;;;;;;;;;;-389;;;;;;;;
1387.0;1286.4;;;;;;;;;;;;;-786;;;;;;;;
1387.0;1286.4;;;;;;;;;;;;;982;;;;;;;;
1387.0;1286.4;;;;;;;;;;;;;4154;;;;;;;;
1389.0;1288.6;;;;-0.32540134;1.1202699;0.2071915;;;;;;;;;;;;;;;
1389.0;1288.6;;;;-0.31119922;1.1028749;0.20343783;;;;;;;;;;;;;;;
1389.0;1288.6;;;;-0.29849628;1.0863076;0.19960788;;;;;;;;;;;;;;;
1389.0;1288.6;;;;-0.28746417;1.0709001;0.19674304;;;;;;;;;;;;;;;
1389.0;1288.6;;;;-0.2783623;1.0569803;0.1939812;;;;;;;;;;;;;;;
1389.0;1298.7;;;;-0.2699013;1.044758;0.19028857;;;;;;;;;;;;;;;
1389.0;1298.7;;;;-0.26288608;1.0337983;0.18421938;;;;;;;;;;;;;;;
1389.0;1298.7;;;;-0.25737002;1.0249215;0.17795946;;;;;;;;;;;;;;;
1389.0;1298.7;;;;-0.25369266;1.0179101;0.17201997;;;;;;;;;;;;;;;
1389.0;1298.7;;;;-0.25098804;1.0128862;0.16571046;;;;;;;;;;;;;;;
1389.0;1300.7;;;;;;;;;;;;;;;;;110.148926;-1.842555;-38.33125;;1187.8
1389.0;1300.7;;;;;;;;;;;;;;0.98458815;1.1138645;-1.1042818;;;;;1187.8
1389.0;1300.7;;;;;;;;;;;;;;;;;86.03168;-21.08066;-37.81625;;1187.8
1389.0;1300.7;;;;;;;;;;;;;;0.86770225;0.9001129;-1.4073915;;;;;1187.8
1389.0;1300.7;;;;;;;;;;;;;;;;;42.413097;-31.254768;-33.139286;;1197.4
1389.0;1300.7;;;;;;;;;;;;;;0.81856745;0.5759453;-1.3991516;;;;;1197.4
1389.0;1300.7;;;;;;;;;;;;;;;;;2.3194067;-34.527878;-27.996918;;1197.4
1389.0;1300.7;;;;;;;;;;;;;;0.774865;0.2893765;-1.0721152;;;;;1197.4
1389.0;1300.7;;;;;;;;;;;;;;;;;-28.794214;-39.094208;-21.52318;;1207.1
1389.0;1300.7;;;;;;;;;;;;;;0.75698113;0.074221015;-0.5744804;;;;;1207.1
1389.0;1300.7;;;;;;;;;;;;;;;;;-55.37965;-41.88284;-12.749107;;1207.1
1389.0;1300.7;;;;;;;;;;;;;;0.79805905;-0.13293862;-0.06756798;;;;;1207.1
1389.0;1300.5;188548;188602;14854;;;;;;;;;;;;;;;;;;
1391.0;1301.5;;;;;;;;;;;;;;;;;-74.76653;-39.670246;-2.8992584;;1216.8
1391.0;1301.5;;;;;;;;;;;;;;0.75966674;-0.36567277;0.27027193;;;;;1216.8
1391.0;1301.5;;;;;;;;;;;;;;;;;-89.05682;-39.315468;3.3455918;;1216.8
1391.0;1301.5;;;;;;;;;;;;;;0.7388531;-0.5500046;0.34614092;;;;;1216.8
1391.0;1301.5;;;;;;;;;;;;;;;;;-85.90579;-28.881954;8.545182;;1226.4
1391.0;1301.5;;;;;;;;;;;;;;0.81264687;-0.7178564;0.45765558;;;;;1226.4
1391.0;1301.5;;;;;;;;;;;;;;;;;-53.819393;-4.0665917;13.531144;;1226.4
1391.0;1301.5;;;;;;;;;;;;;;0.8153935;-0.7866451;0.5434736;;;;;1226.4
1391.0;1301.5;;;;;;;;;;;;;;;;;-14.923552;19.314402;17.155216;;1236.1
1391.0;1301.5;;;;;;;;;;;;;;0.66566974;-0.7896359;0.34565264;;;;;1236.1
1391.0;1301.5;;;;;;;;;;;;;;;;;14.786219;28.145695;20.474104;;1236.1
1391.0;1301.5;;;;;;;;;;;;;;0.5228431;-0.7174291;0.081118196;;;;;1236.1
1391.0;1308.7;;;;-0.24919131;1.0097963;0.15908815;;;;;;;;;;;;;;;
1391.0;1308.7;;;;-0.24855807;1.0092698;0.15221788;;;;;;;;;;;;;;;
1391.0;1308.7;;;;-0.2489815;1.0103685;0.14533235;;;;;;;;;;;;;;;
1391.0;1308.7;;;;-0.2504311;1.0127717;0.14004518;;;;;;;;;;;;;;;
1391.0;1308.7;;;;-0.25268558;1.0172197;0.13497163;;;;;;;;;;;;;;;
1392.0;1316.0;;;;;;;;;;;;;;;;;42.123173;22.869808;21.80929;;1245.8
1392.0;1316.0;;;;;;;;;;;;;;0.45789972;-0.55165255;-0.18720053;;;;;1245.8
1392.0;1316.0;;;;;;;;;;;;;;;;;67.09113;12.092959;23.64803;;1245.8
1392.0;1316.0;;;;;;;;;;;;;;0.44068727;-0.385815;-0.39973143;;;;;1245.8
1392.0;1316.0;;;;;;;;;;;;;;;;;92.10486;-0.94225895;27.657398;;1255.4
1392.0;1316.0;;;;;;;;;;;;;;0.43812373;-0.23432112;-0.5123447;;;;;1255.4
1392.0;1316.0;;;;;;;;;;;;;;;;;113.898895;-17.788475;32.506027;;1255.4
1392.0;1316.0;;;;;;;;;;;;;;0.50795007;-0.045167394;-0.58302563;;;;;1255.4
1392.0;1316.0;;;;;;;;;;;;;;;;;124.40489;-30.144657;37.736137;;1264.9
1392.0;1316.0;;;;;;;;;;;;;;0.6167791;0.1180456;-0.5351726;;;;;1264.9
1392.0;1316.0;;;;;;;;;;;;;;;;;124.91226;-36.244545;42.023987;;1264.9
1392.0;1316.0;;;;;;;;;;;;;;0.75734735;0.31403548;-0.46925262;;;;;1264.9
1392.0;1318.6;;;;-0.2557526;1.022709;0.129303;;;;;;;;;;;;;;;
1392.0;1318.6;;;;-0.25916675;1.0293771;0.12569048;;;;;;;;;;;;;;;
1392.0;1318.6;;;;-0.26231006;1.0371705;0.12339784;;;;;;;;;;;;;;;
1392.0;1318.6;;;;-0.26565936;1.0457612;0.12157442;;;;;;;;;;;;;;;
1392.0;1318.6;;;;-0.2691498;1.0550348;0.11937334;;;;;;;;;;;;;;;
1392.0;1320.5;204966;204962;14853;;;;;;;;;;;;;;;;;;
1392.0;1326.4;;;;;;;;;;;;;5855;;;;;;;;
1392.0;1326.4;;;;;;;;;;;;;4689;;;;;;;;
1392.0;1326.4;;;;;;;;;;;;;2316;;;;;;;;
1392.0;1326.4;;;;;;;;;;;;;1124;;;;;;;;
1392.0;1326.4;;;;;;;;;;;;;1180;;;;;;;;
1451.0;1328.5;;;;-0.2722092;1.0633699;0.11623384;;;;;;;;;;;;;;;
1451.0;1328.5;;;;-0.27583697;1.0715028;0.11429216;;;;;;;;;;;;;;;
1451.0;1328.5;;;;-0.27931598;1.078251;0.11299516;;;;;;;;;;;;;;;
1451.0;1328.5;;;;-0.28240588;1.0834619;0.11161043;;;;;;;;;;;;;;;
1451.0;1328.5;;;;-0.2855492;1.0877343;0.110137954;;;;;;;;;;;;;;;
1451.0;1338.5;;;;-0.28938296;1.0900842;0.10894777;;;;;;;;;;;;;;;
1451.0;1338.5;;;;-0.29226688;1.0915986;0.108943954;;;;;;;;;;;;;;;
1451.0;1338.5;;;;-0.2949715;1.0926934;0.109424606;;;;;;;;;;;;;;;
1451.0;1338.5;;;;-0.2970734;1.0930749;0.110446945;;;;;;;;;;;;;;;
1451.0;1338.5;;;;-0.29840472;1.092537;0.1104355;;;;;;;;;;;;;;;
1451.0;1340.5;221350;221320;14852;;;;;;;;;;;;;;;;;;
1451.0;1348.6;;;;-0.29960254;1.0919877;0.11106111;;;;;;;;;;;;;;;
1451.0;1348.6;;;;-0.30064014;1.0920106;0.11242296;;;;;;;;;;;;;;;
1451.0;1348.6;;;;-0.30152515;1.0923692;0.114353195;;;;;;;;;;;;;;;
1451.0;1348.6;;;;-0.30190662;1.092785;0.116382614;;;;;;;;;;;;;;;
1451.0;1348.6;;;;-0.30201343;1.0934907;0.1184044;;;;;;;;;;;;;;;
1451.0;1358.7;;;;-0.30210498;1.0946199;0.12051393;;;;;;;;;;;;;;;
1451.0;1358.7;;;;-0.30186847;1.0961152;0.1224518;;;;;;;;;;;;;;;
1451.0;1358.7;;;;-0.30113223;1.0981408;0.12442781;;;;;;;;;;;;;;;
1451.0;1358.7;;;;-0.30049136;1.1000215;0.12478639;;;;;;;;;;;;;;;
1451.0;1358.7;;;;-0.2996216;1.1026994;0.12574007;;;;;;;;;;;;;;;
1452.0;1360.8;;;;;;;;;;;;;;;;;118.99548;-40.574356;45.57939;;1274.6
1452.0;1360.8;;;;;;;;;;;;;;0.8932157;0.4774926;-0.50483716;;;;;1274.6
1452.0;1360.8;;;;;;;;;;;;;;;;;97.23197;-43.305767;48.65795;;1274.6
1452.0;1360.8;;;;;;;;;;;;;;1.0320749;0.5426191;-0.5950499;;;;;1274.6
1452.0;1360.8;;;;;;;;;;;;;;;;;71.764275;-46.121098;48.867764;;1284.3
1452.0;1360.8;;;;;;;;;;;;;;1.1880245;0.50990325;-0.7342143;;;;;1284.3
1452.0;1360.8;;;;;;;;;;;;;;;;;52.697838;-46.056244;44.610428;;1284.3
1452.0;1360.8;;;;;;;;;;;;;;1.3101596;0.48817408;-0.81588185;;;;;1284.3
1452.0;1360.8;;;;;;;;;;;;;;;;;42.142246;-35.454876;38.396103;;1294.0
1452.0;1360.8;;;;;;;;;;;;;;1.3511155;0.45942563;-0.6575518;;;;;1294.0
1452.0;1360.8;;;;;;;;;;;;;;;;;31.048769;-22.698141;35.27558;;1294.0
1452.0;1360.8;;;;;;;;;;;;;;1.2767113;0.42945647;-0.48731956;;;;;1294.0
1452.0;1360.6;237768;237637;14857;;;;;;;;;;;;;;;;;;
1452.0;1366.7;;;;;;;;;;;;;689;;;;;;;;
1452.0;1366.7;;;;;;;;;;;;;-273;;;;;;;;
1452.0;1366.7;;;;;;;;;;;;;-640;;;;;;;;
1452.0;1366.7;;;;;;;;;;;;;-670;;;;;;;;
1452.0;1366.7;;;;;;;;;;;;;-663;;;;;;;;
1452.0;1368.7;;;;-0.298317;1.1052095;0.12763597;;;;;;;;;;;;;;;
1452.0;1368.7;;;;-0.29768375;1.1075517;0.1301346;;;;;;;;;;;;;;;
1452.0;1368.7;;;;-0.29560474;1.1095201;0.12918855;;;;;;;;;;;;;;;
1452.0;1368.7;;;;-0.29423144;1.1119081;0.13047029;;;;;;;;;;;;;;;
1452.0;1368.7;;;;-0.29311374;1.1132241;0.13169481;;;;;;;;;;;;;;;
1508.0;1375.8;;;;;;;;;;;;;;;;;15.346995;-14.652699;35.06195;;1303.6
1508.0;1375.8;;;;;;;;;;;;;;1.17893;0.37903988;-0.41389203;;;;;1303.6
1508.0;1375.8;;;;;;;;;;;;;;;;;-0.6981109;-9.5675535;35.57695;;1303.6
1508.0;1375.8;;;;;;;;;;;;;;1.0834681;0.32703635;-0.36384168;;;;;1303.6
1508.0;1375.8;;;;;;;;;;;;;;;;;-12.783441;-6.740776;35.96225;;1313.3
1508.0;1375.8;;;;;;;;;;;;;;0.9889828;0.23114718;-0.3441267;;;;;1313.3
1508.0;1375.8;;;;;;;;;;;;;;;;;-19.325848;-5.2072206;36.568806;;1313.3
1508.0;1375.8;;;;;;;;;;;;;;0.92996;0.107608266;-0.3452254;;;;;1313.3
1508.0;1375.8;;;;;;;;;;;;;;;;;-20.18418;-5.176702;37.091434;;1323.0
1508.0;1375.8;;;;;;;;;;;;;;0.91402936;0.059327982;-0.33265176;;;;;1323.0
1508.0;1375.8;;;;;;;;;;;;;;;;;-19.032106;-5.3140354;37.20588;;1323.0
1508.0;1375.8;;;;;;;;;;;;;;0.9137852;0.03729362;-0.34070864;;;;;1323.0
1508.0;1378.6;;;;-0.29150394;1.1143495;0.13361742;;;;;;;;;;;;;;;
1508.0;1378.6;;;;-0.2894707;1.1148912;0.13512804;;;;;;;;;;;;;;;
1508.0;1378.6;;;;-0.28844836;1.1147119;0.13663484;;;;;;;;;;;;;;;
1508.0;1378.6;;;;-0.28723148;1.1143609;0.13892366;;;;;;;;;;;;;;;
1508.0;1378.6;;;;-0.2857094;1.1131479;0.14157869;;;;;;;;;;;;;;;
1508.0;1380.6;254086;254002;14852;;;;;;;;;;;;;;;;;;
1508.0;1388.7;;;;-0.2845879;1.112156;0.14400102;;;;;;;;;;;;;;;
1508.0;1388.7;;;;-0.28363422;1.1102754;0.14431764;;;;;;;;;;;;;;;
1508.0;1388.7;;;;-0.28273013;1.1079408;0.14631654;;;;;;;;;;;;;;;
1508.0;1388.7;;;;-0.28171542;1.104767;0.1470566;;;;;;;;;;;;;;;
1508.0;1388.7;;;;-0.2800751;1.1009904;0.14709856;;;;;;;;;;;;;;;
1511.0;1398.7;;;;-0.27894214;1.0967141;0.14694597;;;;;;;;;;;;;;;
1511.0;1398.7;;;;-0.27810672;1.0919725;0.14562227;;;;;;;;;;;;;;;
1511.0;1398.7;;;;-0.27721027;1.0868074;0.14585878;;;;;;;;;;;;;;;
1511.0;1398.7;;;;-0.2752991;1.0814973;0.14511491;;;;;;;;;;;;;;;
1511.0;1398.7;;;;-0.27390292;1.0758134;0.14551164;;;;;;;;;;;;;;;
1511.0;1400.8;262143;262143;14853;;;;;;;;;;;;;;;;;;
1511.0;1406.8;;;;;;;;;;;;;-880;;;;;;;;
1511.0;1406.8;;;;;;;;;;;;;-1639;;;;;;;;
1511.0;1406.8;;;;;;;;;;;;;-2639;;;;;;;;
1511.0;1406.8;;;;;;;;;;;;;-3393;;;;;;;;
1511.0;1406.8;;;;;;;;;;;;;-3840;;;;;;;;
1511.0;1408.8;;;;-0.27297977;1.0703813;0.14620973;;;;;;;;;;;;;;;
1511.0;1408.8;;;;-0.27227023;1.0647317;0.14846422;;;;;;;;;;;;;;;
1511.0;1408.8;;;;-0.27177814;1.0590326;0.14811708;;;;;;;;;;;;;;;
1511.0;1408.8;;;;-0.27109912;1.0532953;0.14797975;;;;;;;;;;;;;;;
1511.0;1408.8;;;;-0.27050403;1.0472184;0.14624406;;;;;;;;;;;;;;;
1511.0;1418.9;;;;-0.2693558;1.0413705;0.14515688;;;;;;;;;;;;;;;
1511.0;1418.9;;;;-0.26791003;1.0347253;0.14388658;;;;;;;;;;;;;;;
1511.0;1418.9;;;;-0.26607898;1.0279924;0.14164354;;;;;;;;;;;;;;;
1511.0;1418.9;;;;-0.2641373;1.0210954;0.1401787;;;;;;;;;;;;;;;
1511.0;1418.9;;;;-0.26142123;1.0141755;0.1394005;;;;;;;;;;;;;;;
1513.0;1421.1;;;;;;;;;;;;;;;;;-14.973144;-4.6121097;37.46147;;1332.7
1513.0;1421.1;;;;;;;;;;;;;;0.90279853;0.05346843;-0.33069858;;;;;1332.7
1513.0;1421.1;;;;;;;;;;;;;;;;;-8.526108;-4.440443;37.76284;;1332.7
1513.0;1421.1;;;;;;;;;;;;;;0.9033479;0.05780206;-0.3154393;;;;;1332.7
1513.0;1421.1;;;;;;;;;;;;;;;;;-1.1482589;-3.6927397;37.621693;;1342.4
1513.0;1421.1;;;;;;;;;;;;;;0.88876003;0.07245094;-0.30951872;;;;;1342.4
1513.0;1421.1;;;;;;;;;;;;;;;;;6.469924;-3.1815546;37.377544;;1342.4
1513.0;1421.1;;;;;;;;;;;;;;0.8716086;0.0430311;-0.34022033;;;;;1342.4
1513.0;1421.1;;;;;;;;;;;;;;;;;14.690847;-2.8992584;36.84347;;1352.0
1513.0;1421.1;;;;;;;;;;;;;;0.8411512;0.065431684;-0.36146122;;;;;1352.0
1513.0;1421.1;;;;;;;;;;;;;;;;;22.854548;-3.6088138;36.06906;;1352.0
1513.0;1421.1;;;;;;;;;;;;;;0.8250984;-0.009277627;-0.37995544;;;;;1352.0
1513.0;1420.9;262143;262143;14856;;;;;;;;;;;;;;;;;;
1513.0;1428.9;;;;-0.2593384;1.0075837;0.13738252;;;;;;;;;;;;;;;
1513.0;1428.9;;;;-0.2556534;1.0000955;0.13638307;;;;;;;;;;;;;;;
1513.0;1428.9;;;;-0.2534714;0.9931375;0.13546373;;;;;;;;;;;;;;;
1513.0;1428.9;;;;-0.25073627;0.9862176;0.13345338;;;;;;;;;;;;;;;
1513.0;1428.9;;;;-0.24842837;0.97864926;0.13172151;;;;;;;;;;;;;;;
1514.0;1436.0;;;;;;;;;;;;;;;;;32.345806;-4.863888;35.142063;;1361.6
1514.0;1436.0;;;;;;;;;;;;;;0.80092776;0.009277627;-0.39582506;;;;;1361.6
1514.0;1436.0;;;;;;;;;;;;;;;;;40.044098;-5.939665;34.642323;;1361.6
1514.0;1436.0;;;;;;;;;;;;;;0.7885983;0.0237434;-0.40217292;;;;;1361.6
1514.0;1436.0;;;;;;;;;;;;;;;;;46.498764;-7.003998;34.390545;;1371.3
1514.0;1436.0;;;;;;;;;;;;;;0.78243357;-0.0073244423;-0.4024781;;;;;1371.3
1514.0;1436.0;;;;;;;;;;;;;;;;;52.10654;-7.614368;34.295174;;1371.3
1514.0;1436.0;;;;;;;;;;;;;;0.7894528;0.020813623;-0.3894162;;;;;1371.3
1514.0;1436.0;;;;;;;;;;;;;;;;;56.127354;-7.953887;34.45158;;1380.9
1514.0;1436.0;;;;;;;;;;;;;;0.8158208;0.015625477;-0.39826655;;;;;1380.9
1514.0;1436.0;;;;;;;;;;;;;;;;;59.58739;-7.869961;34.47447;;1380.9
1514.0;1436.0;;;;;;;;;;;;;;0.8382214;0.0013428144;-0.3894162;;;;;1380.9
1514.0;1438.7;;;;-0.24595264;0.971882;0.13054658;;;;;;;;;;;;;;;
1514.0;1438.7;;;;-0.24355319;0.96473706;0.12906648;;;;;;;;;;;;;;;
1514.0;1438.7;;;;-0.24153522;0.9573442;0.12798692;;;;;;;;;;;;;;;
1514.0;1438.7;;;;-0.23970798;0.94955075;0.12622453;;;;;;;;;;;;;;;
1514.0;1438.7;;;;-0.23772815;0.94215024;0.12368013;;;;;;;;;;;;;;;
1514.0;1441.0;262143;262143;14851;;;;;;;;;;;;;;;;;;
1514.0;1446.9;;;;;;;;;;;;;-4247;;;;;;;;
1514.0;1446.9;;;;;;;;;;;;;-4848;;;;;;;;
1514.0;1446.9;;;;;;;;;;;;;-5683;;;;;;;;
1514.0;1446.9;;;;;;;;;;;;;-6454;;;;;;;;
1514.0;1446.9;;;;;;;;;;;;;-6934;;;;;;;;
1568.0;1448.7;;;;-0.23684695;0.93359387;0.121273056;;;;;;;;;;;;;;;
1568.0;1448.7;;;;-0.23641208;0.924698;0.11826326;;;;;;;;;;;;;;;
1568.0;1448.7;;;;-0.23712161;0.91500485;0.11349489;;;;;;;;;;;;;;;
1568.0;1448.7;;;;-0.23559955;0.90680325;0.11259462;;;;;;;;;;;;;;;
1568.0;1448.7;;;;-0.23479846;0.9015657;0.113014236;;;;;;;;;;;;;;;
1568.0;1458.7;;;;-0.23598483;0.8950273;0.10925676;;;;;;;;;;;;;;;
1568.0;1458.7;;;;-0.23646548;0.8870965;0.10424425;;;;;;;;;;;;;;;
1568.0;1458.7;;;;-0.23673251;0.8795701;0.10008623;;;;;;;;;;;;;;;
1568.0;1458.7;;;;-0.23612979;0.8720628;0.095325485;;;;;;;;;;;;;;;
1568.0;1458.7;;;;-0.23660281;0.8656999;0.092594154;;;;;;;;;;;;;;;
1568.0;1460.9;262143;262143;14846;;;;;;;;;;;;;;;;;;
1568.0;1468.8;;;;-0.23700336;0.8600961;0.08934403;;;;;;;;;;;;;;;
1568.0;1468.8;;;;-0.23679355;0.85359204;0.08473969;;;;;;;;;;;;;;;
1568.0;1468.8;;;;-0.23598865;0.84759533;0.08100892;;;;;;;;;;;;;;;
1568.0;1468.8;;;;-0.2349396;0.842167;0.078098305;;;;;;;;;;;;;;;
1568.0;1468.8;;;;-0.23352054;0.8381921;0.07579041;;;;;;;;;;;;;;;
1568.0;1478.9;;;;-0.23220065;0.8342744;0.07242585;;;;;;;;;;;;;;;
1568.0;1478.9;;;;-0.23075107;0.83098614;0.069263466;;;;;;;;;;;;;;;
1568.0;1478.9;;;;-0.22953418;0.82807934;0.06627656;;;;;;;;;;;;;;;
1568.0;1478.9;;;;-0.22757342;0.82504666;0.063083656;;;;;;;;;;;;;;;
1568.0;1478.9;;;;-0.2254906;0.8222276;0.059307106;;;;;;;;;;;;;;;
1571.0;1481.2;;;;;;;;;;;;;;;;;62.26539;-8.144628;34.29899;;1390.2
1571.0;1481.2;;;;;;;;;;;;;;0.8575091;0.021057772;-0.4096805;;;;;1390.2
1571.0;1481.2;;;;;;;;;;;;;;;;;64.42839;-7.5457015;34.405804;;1390.2
1571.0;1481.2;;;;;;;;;;;;;;0.8572039;0.04651021;-0.4029664;;;;;1390.2
1571.0;1481.2;;;;;;;;;;;;;;;;;65.290535;-7.5571456;34.39436;;1399.8
1571.0;1481.2;;;;;;;;;;;;;;0.8511002;0.08215583;-0.39844966;;;;;1399.8
1571.0;1481.2;;;;;;;;;;;;;;;;;65.65676;-8.610034;33.776363;;1399.8
1571.0;1481.2;;;;;;;;;;;;;;0.84487444;0.07562487;-0.4026612;;;;;1399.8
1571.0;1481.2;;;;;;;;;;;;;;;;;66.42735;-9.350108;32.47551;;1409.5
1571.0;1481.2;;;;;;;;;;;;;;0.8537858;0.09857479;-0.40632343;;;;;1409.5
1571.0;1481.2;;;;;;;;;;;;;;;;;66.755424;-9.472182;30.766472;;1409.5
1571.0;1481.2;;;;;;;;;;;;;;0.8661763;0.12591937;-0.4009522;;;;;1409.5
1571.0;1481.0;262143;262143;14850;;;;;;;;;;;;;;;;;;
1571.0;1487.1;;;;;;;;;;;;;-7215;;;;;;;;
1571.0;1487.1;;;;;;;;;;;;;-7249;;;;;;;;
1571.0;1487.1;;;;;;;;;;;;;-6880;;;;;;;;
1571.0;1487.1;;;;;;;;;;;;;-5988;;;;;;;;
1571.0;1487.1;;;;;;;;;;;;;-4634;;;;;;;;
1628.0;1488.7;;;;;;;;;;;;;;;;;67.16743;-9.159368;29.18714;;1419.1
1628.0;1488.7;;;;;;;;;;;;;;0.87405014;0.14355907;-0.39826655;;;;;1419.1
1628.0;1488.7;;;;;;;;;;;;;;;;;66.82791;-8.518478;27.539139;;1419.1
1628.0;1488.7;;;;;;;;;;;;;;0.87624747;0.14471877;-0.39783928;;;;;1419.1
1628.0;1488.7;;;;;;;;;;;;;;;;;66.85843;-7.8585167;25.986511;;1428.8
1628.0;1488.7;;;;;;;;;;;;;;0.8737449;0.15674306;-0.4098636;;;;;1428.8
1628.0;1488.7;;;;;;;;;;;;;;;;;65.84369;-7.1985536;24.357586;;1428.8
1628.0;1488.7;;;;;;;;;;;;;;0.86074406;0.16589862;-0.41743216;;;;;1428.8
1628.0;1488.7;;;;;;;;;;;;;;;;;64.49324;-7.595294;23.190252;;1438.4
1628.0;1488.7;;;;;;;;;;;;;;0.8562883;0.17590868;-0.42695394;;;;;1438.4
1628.0;1488.7;;;;;;;;;;;;;;;;;61.64739;-7.293924;22.17551;;1438.4
1628.0;1488.7;;;;;;;;;;;;;;0.8517716;0.18097477;-0.4265267;;;;;1438.4
1628.0;1488.7;;;;-0.22424701;0.8197595;0.055000313;;;;;;;;;;;;;;;
1628.0;1488.7;;;;-0.22273257;0.8178636;0.050674446;;;;;;;;;;;;;;;
1628.0;1488.7;;;;-0.22197345;0.81572735;0.04635239;;;;;;;;;;;;;;;
1628.0;1488.7;;;;-0.2213364;0.8139154;0.043407444;;;;;;;;;;;;;;;
1628.0;1488.7;;;;-0.22134021;0.81180584;0.03974915;;;;;;;;;;;;;;;
1628.0;1498.8;;;;-0.22019199;0.8104936;0.03660584;;;;;;;;;;;;;;;
1628.0;1498.8;;;;-0.22004703;0.80885327;0.033035282;;;;;;;;;;;;;;;
1628.0;1498.8;;;;-0.21954349;0.806965;0.02972794;;;;;;;;;;;;;;;
1628.0;1498.8;;;;-0.21874622;0.8052026;0.026302341;;;;;;;;;;;;;;;
1628.0;1498.8;;;;-0.21835712;0.8033792;0.023052217;;;;;;;;;;;;;;;
1628.0;1501.1;262143;262143;14853;;;;;;;;;;;;;;;;;;
1631.0;1508.7;;;;-0.21765903;0.80080426;0.019832613;;;;;;;;;;;;;;;
1631.0;1508.7;;;;-0.21885684;0.7983018;0.01539612;;;;;;;;;;;;;;;
1631.0;1508.7;;;;-0.21846393;0.79591;0.012229921;;;;;;;;;;;;;;;
1631.0;1508.7;;;;-0.21735004;0.7932397;0.008987428;;;;;;;;;;;;;;;
1631.0;1508.7;;;;-0.2174454;0.7912141;0.006248475;;;;;;;;;;;;;;;
1631.0;1518.7;;;;-0.21606067;0.7896081;0.0037918095;;;;;;;;;;;;;;;
1631.0;1518.7;;;;-0.21599582;0.7872163;8.010865E-5;;;;;;;;;;;;;;;
1631.0;1518.7;;;;-0.2175217;0.786255;-0.002384186;;;;;;;;;;;;;;;
1631.0;1518.7;;;;-0.21941379;0.78397;-0.0056953435;;;;;;;;;;;;;;;
1631.0;1518.7;;;;-0.22148898;0.7824861;-0.0091285715;;;;;;;;;;;;;;;
1631.0;1521.2;262143;262143;14847;;;;;;;;;;;;;;;;;;
1631.0;1527.1;;;;;;;;;;;;;-3118;;;;;;;;
1631.0;1527.1;;;;;;;;;;;;;-1574;;;;;;;;
1631.0;1527.1;;;;;;;;;;;;;66;;;;;;;;
1631.0;1527.1;;;;;;;;;;;;;1667;;;;;;;;
1631.0;1527.1;;;;;;;;;;;;;2980;;;;;;;;
1631.0;1528.9;;;;-0.22213748;0.7810708;-0.012645723;;;;;;;;;;;;;;;
1631.0;1528.9;;;;-0.22354892;0.77907956;-0.01578522;;;;;;;;;;;;;;;
1631.0;1528.9;;;;-0.22596362;0.7781526;-0.01911545;;;;;;;;;;;;;;;
1631.0;1528.9;;;;-0.22760013;0.7780572;-0.02099228;;;;;;;;;;;;;;;
1631.0;1528.9;;;;-0.22983173;0.7783166;-0.023342134;;;;;;;;;;;;;;;
1633.0;1538.9;;;;-0.2316437;0.7789613;-0.024784092;;;;;;;;;;;;;;;
1633.0;1538.9;;;;-0.23338702;0.7792932;-0.026054386;;;;;;;;;;;;;;;
1633.0;1538.9;;;;-0.23466495;0.7809144;-0.026992802;;;;;;;;;;;;;;;
1633.0;1538.9;;;;-0.23598483;0.78276074;-0.027824406;;;;;;;;;;;;;;;
1633.0;1538.9;;;;-0.23683932;0.7845155;-0.029491428;;;;;;;;;;;;;;;
1633.0;1541.4;;;;;;;;;;;;;;;;;57.374798;-5.104221;21.370586;;1448.0
1633.0;1541.4;;;;;;;;;;;;;;0.8390759;0.19794305;-0.41261026;;;;;1448.0
1633.0;1541.4;;;;;;;;;;;;;;;;;52.85806;-3.7690358;21.33244;;1448.0
1633.0;1541.4;;;;;;;;;;;;;;0.8763085;0.16962187;-0.43159276;;;;;1448.0
1633.0;1541.4;;;;;;;;;;;;;;;;;50.305946;-1.4343699;21.153143;;1457.7
1633.0;1541.4;;;;;;;;;;;;;;0.7727897;0.2158269;-0.40687278;;;;;1457.7
1633.0;1541.4;;;;;;;;;;;;;;;;;48.837246;-1.106296;20.363476;;1457.7
1633.0;1541.4;;;;;;;;;;;;;;0.71254617;0.2106998;-0.37549976;;;;;1457.7
1633.0;1541.4;;;;;;;;;;;;;;;;;44.9881;-3.99411;19.73403;;1467.4
1633.0;1541.4;;;;;;;;;;;;;;0.7672964;0.19635609;-0.39533678;;;;;1467.4
1633.0;1541.4;;;;;;;;;;;;;;;;;42.08884;-2.6703696;19.070253;;1467.4
1633.0;1541.4;;;;;;;;;;;;;;0.7583239;0.1899472;-0.40382093;;;;;1467.4
1633.0;1541.3;262143;262143;14853;;;;;;;;;;;;;;;;;;
1634.0;1548.9;;;;;;;;;;;;;;;;;39.26969;-1.5335552;18.52092;;1477.1
1634.0;1548.9;;;;;;;;;;;;;;0.75801873;0.18109684;-0.41114536;;;;;1477.1
1634.0;1548.9;;;;;;;;;;;;;;;;;34.50499;-0.7286294;18.414106;;1477.1
1634.0;1548.9;;;;;;;;;;;;;;0.7653432;0.1699881;-0.41407514;;;;;1477.1
1634.0;1548.9;;;;;;;;;;;;;;;;;28.454695;-0.23651844;18.723106;;1486.8
1634.0;1548.9;;;;;;;;;;;;;;0.7693716;0.15948974;-0.42616045;;;;;1486.8
1634.0;1548.9;;;;;;;;;;;;;;;;;23.419142;0.2822962;19.13129;;1486.8
1634.0;1548.9;;;;;;;;;;;;;;0.7710807;0.1528367;-0.4516129;;;;;1486.8
1634.0;1548.9;;;;;;;;;;;;;;;;;19.974363;1.0719626;19.623402;;1496.4
1634.0;1548.9;;;;;;;;;;;;;;0.7714469;0.14355907;-0.45435956;;;;;1496.4
1634.0;1548.9;;;;;;;;;;;;;;;;;17.963957;1.3008515;20.226141;;1496.4
1634.0;1548.9;;;;;;;;;;;;;;0.7788324;0.1340373;-0.45680106;;;;;1496.4
1634.0;1548.8;;;;-0.23817828;0.7873498;-0.03116608;;;;;;;;;;;;;;;
1634.0;1548.8;;;;-0.2390671;0.79039776;-0.03173447;;;;;;;;;;;;;;;
1634.0;1548.8;;;;-0.24053195;0.7939416;-0.032718662;;;;;;;;;;;;;;;
1634.0;1548.8;;;;-0.2416344;0.7978097;-0.034133915;;;;;;;;;;;;;;;
1634.0;1548.8;;;;-0.24252704;0.80225;-0.034599308;;;;;;;;;;;;;;;
1634.0;1558.8;;;;-0.24380115;0.80664456;-0.035694126;;;;;;;;;;;;;;;
1634.0;1558.8;;;;-0.24497226;0.8114816;-0.036373142;;;;;;;;;;;;;;;
1634.0;1558.8;;;;-0.24626926;0.81642926;-0.037063602;;;;;;;;;;;;;;;
1634.0;1558.8;;;;-0.24731448;0.82151043;-0.03766251;;;;;;;;;;;;;;;
1634.0;1558.8;;;;-0.2478638;0.8272859;-0.0375824;;;;;;;;;;;;;;;
1634.0;1561.3;262143;262143;14842;;;;;;;;;;;;;;;;;;
1687.0;1567.3;;;;;;;;;;;;;3979;;;;;;;;
1687.0;1567.3;;;;;;;;;;;;;4899;;;;;;;;
1687.0;1567.3;;;;;;;;;;;;;5710;;;;;;;;
1687.0;1567.3;;;;;;;;;;;;;6053;;;;;;;;
1687.0;1567.3;;;;;;;;;;;;;5770;;;;;;;;
1687.0;1568.9;;;;-0.24885944;0.8325769;-0.03747559;;;;;;;;;;;;;;;
1687.0;1568.9;;;;-0.24948505;0.83810055;-0.037170414;;;;;;;;;;;;;;;
1687.0;1568.9;;;;-0.24971011;0.843403;-0.035896305;;;;;;;;;;;;;;;
1687.0;1568.9;;;;-0.24972537;0.8501245;-0.034847263;;;;;;;;;;;;;;;
1687.0;1568.9;;;;-0.25043872;0.85639966;-0.03350449;;;;;;;;;;;;;;;
1687.0;1578.8;;;;-0.25033954;0.8631631;-0.031471256;;;;;;;;;;;;;;;
1687.0;1578.8;;;;-0.2506638;0.8702699;-0.0302887;;;;;;;;;;;;;;;
1687.0;1578.8;;;;-0.2490044;0.8772088;-0.029380802;;;;;;;;;;;;;;;
1687.0;1578.8;;;;-0.24823001;0.8839799;-0.028156284;;;;;;;;;;;;;;;
1687.0;1578.8;;;;-0.24803546;0.8907281;-0.02643967;;;;;;;;;;;;;;;
1687.0;1581.3;262143;262143;14856;;;;;;;;;;;;;;;;;;
1687.0;1588.9;;;;-0.2477875;0.8978349;-0.024276737;;;;;;;;;;;;;;;
1687.0;1588.9;;;;-0.24657825;0.9038087;-0.022407534;;;;;;;;;;;;;;;
1687.0;1588.9;;;;-0.24483112;0.9092866;-0.021686556;;;;;;;;;;;;;;;
1687.0;1588.9;;;;-0.24304584;0.913952;-0.021068575;;;;;;;;;;;;;;;
1687.0;1588.9;;;;-0.24095538;0.9185792;-0.018859865;;;;;;;;;;;;;;;
1689.0;1599.0;;;;-0.23934177;0.92224133;-0.016197206;;;;;;;;;;;;;;;
1689.0;1599.0;;;;-0.23755649;0.9241487;-0.014308931;;;;;;;;;;;;;;;
1689.0;1599.0;;;;-0.23474887;0.9259683;-0.011524201;;;;;;;;;;;;;;;
1689.0;1599.0;;;;-0.23221591;0.92712414;-0.009323121;;;;;;;;;;;;;;;
1689.0;1599.0;;;;-0.22885516;0.927971;-0.0063934335;;;;;;;;;;;;;;;
1689.0;1601.6;262143;262143;14856;;;;;;;;;;;;;;;;;;
1689.0;1607.5;;;;;;;;;;;;;5138;;;;;;;;
1689.0;1607.5;;;;;;;;;;;;;4621;;;;;;;;
1689.0;1607.5;;;;;;;;;;;;;4429;;;;;;;;
1689.0;1607.5;;;;;;;;;;;;;4403;;;;;;;;
1689.0;1607.5;;;;;;;;;;;;;4364;;;;;;;;
1689.0;1609.1;;;;-0.22612765;0.9290849;-0.0027923586;;;;;;;;;;;;;;;
1689.0;1609.1;;;;-0.22280887;0.9290544;-2.3651126E-4;;;;;;;;;;;;;;;
1689.0;1609.1;;;;-0.22005466;0.92840207;0.002170563;;;;;;;;;;;;;;;
1689.0;1609.1;;;;-0.21706775;0.9274179;0.0041313176;;;;;;;;;;;;;;;
1689.0;1609.1;;;;-0.21482852;0.9260293;0.0069847116;;;;;;;;;;;;;;;
1691.0;1609.5;;;;;;;;;;;;;;;;;17.59392;1.7242957;20.298624;;1506.0
1691.0;1609.5;;;;;;;;;;;;;;0.77407146;0.12817775;-0.45435956;;;;;1506.0
1691.0;1609.5;;;;;;;;;;;;;;;;;18.471329;1.9531846;20.195623;;1506.0
1691.0;1609.5;;;;;;;;;;;;;;0.7719962;0.12720115;-0.45014802;;;;;1506.0
1691.0;1609.5;;;;;;;;;;;;;;;;;19.981993;1.4725181;19.970549;;1515.7
1691.0;1609.5;;;;;;;;;;;;;;0.7803583;0.1353801;-0.4430067;;;;;1515.7
1691.0;1609.5;;;;;;;;;;;;;;;;;21.18366;1.1520737;19.856104;;1515.7
1691.0;1609.5;;;;;;;;;;;;;;0.7857295;0.15442365;-0.42890713;;;;;1515.7
1691.0;1609.5;;;;;;;;;;;;;;;;;21.774958;1.0986663;20.062105;;1525.4
1691.0;1609.5;;;;;;;;;;;;;;0.7912839;0.16223639;-0.43110445;;;;;1525.4
1691.0;1609.5;;;;;;;;;;;;;;;;;22.194586;0.9498886;20.249031;;1525.4
1691.0;1609.5;;;;;;;;;;;;;;0.7985473;0.17273477;-0.42829677;;;;;1525.4
1691.0;1610.2;;;;;;;;;;;;;;;;;21.80166;0.35477766;20.516068;;1535.1
1691.0;1610.2;;;;;;;;;;;;;;0.8074587;0.17645802;-0.42530596;;;;;1535.1
1691.0;1610.2;;;;;;;;;;;;;;;;;20.695364;-0.09155553;20.60381;;1535.1
1691.0;1610.2;;;;;;;;;;;;;;0.8172246;0.20130008;-0.40668964;;;;;1535.1
1691.0;1610.2;;;;;;;;;;;;;;;;;19.062624;-0.67903686;20.77166;;1544.8
1691.0;1610.2;;;;;;;;;;;;;;0.8281503;0.2141789;-0.4032716;;;;;1544.8
1691.0;1610.2;;;;;;;;;;;;;;;;;17.319254;-0.6599628;20.78692;;1544.8
1691.0;1610.2;;;;;;;;;;;;;;0.84145635;0.22394483;-0.40125737;;;;;1544.8
1691.0;1610.2;;;;;;;;;;;;;;;;;15.133366;-0.6637776;20.733513;;1554.3
1691.0;1610.2;;;;;;;;;;;;;;0.84560686;0.22547075;-0.40357676;;;;;1554.3
1691.0;1610.2;;;;;;;;;;;;;;;;;12.859736;-1.0795922;20.496994;;1554.3
1691.0;1610.2;;;;;;;;;;;;;;0.8504898;0.23798333;-0.40223396;;;;;1554.3
1751.0;1618.8;;;;-0.21354297;0.9250566;0.008861543;;;;;;;;;;;;;;;
1751.0;1618.8;;;;-0.21231845;0.92377865;0.010002137;;;;;;;;;;;;;;;
1751.0;1618.8;;;;-0.21126178;0.92211926;0.012081148;;;;;;;;;;;;;;;
1751.0;1618.8;;;;-0.21106341;0.92097485;0.01319504;;;;;;;;;;;;;;;
1751.0;1618.8;;;;-0.21144107;0.9200975;0.014667513;;;;;;;;;;;;;;;
1751.0;1621.5;262143;262143;14860;;;;;;;;;;;;;;;;;;
1751.0;1628.9;;;;-0.2117348;0.91872036;0.016975405;;;;;;;;;;;;;;;
1751.0;1628.9;;;;-0.21285632;0.9181291;0.019161226;;;;;;;;;;;;;;;
1751.0;1628.9;;;;-0.21430972;0.9166337;0.020584108;;;;;;;;;;;;;;;
1751.0;1628.9;;;;-0.21546558;0.9154359;0.02245331;;;;;;;;;;;;;;;
1751.0;1628.9;;;;-0.21733859;0.9144212;0.024154667;;;;;;;;;;;;;;;
1751.0;1638.9;;;;-0.21834567;0.9133264;0.026527409;;;;;;;;;;;;;;;
1751.0;1638.9;;;;-0.21963504;0.912819;0.028671268;;;;;;;;;;;;;;;
1751.0;1638.9;;;;-0.22082141;0.9120523;0.030529026;;;;;;;;;;;;;;;
1751.0;1638.9;;;;-0.22152713;0.91116726;0.03268433;;;;;;;;;;;;;;;
1751.0;1638.9;;;;-0.22263339;0.91098034;0.035156254;;;;;;;;;;;;;;;
1751.0;1641.6;262143;262143;14849;;;;;;;;;;;;;;;;;;
1751.0;1647.6;;;;;;;;;;;;;4211;;;;;;;;
1751.0;1647.6;;;;;;;;;;;;;3875;;;;;;;;
1751.0;1647.6;;;;;;;;;;;;;3494;;;;;;;;
1751.0;1647.6;;;;;;;;;;;;;3330;;;;;;;;
1751.0;1647.6;;;;;;;;;;;;;3380;;;;;;;;
1754.0;1649.0;;;;-0.22319797;0.91154873;0.037685398;;;;;;;;;;;;;;;
1754.0;1649.0;;;;-0.22340778;0.91116345;0.039600376;;;;;;;;;;;;;;;
1754.0;1649.0;;;;-0.22420505;0.911564;0.041427616;;;;;;;;;;;;;;;
1754.0;1649.0;;;;-0.22498325;0.9127275;0.044803623;;;;;;;;;;;;;;;
1754.0;1649.0;;;;-0.22467807;0.9132196;0.046955116;;;;;;;;;;;;;;;
1754.0;1659.1;;;;-0.22513583;0.91394436;0.049049385;;;;;;;;;;;;;;;
1754.0;1659.1;;;;-0.22532657;0.9148675;0.049839027;;;;;;;;;;;;;;;
1754.0;1659.1;;;;-0.22621539;0.91549695;0.05085755;;;;;;;;;;;;;;;
1754.0;1659.1;;;;-0.22662738;0.91632855;0.051315315;;;;;;;;;;;;;;;
1754.0;1659.1;;;;-0.2264252;0.9166719;0.051280983;;;;;;;;;;;;;;;
1754.0;1661.9;262143;262143;14847;;;;;;;;;;;;;;;;;;
1754.0;1669.2;;;;-0.22644046;0.91674435;0.0511818;;;;;;;;;;;;;;;
1754.0;1669.2;;;;-0.22615817;0.91703427;0.052055366;;;;;;;;;;;;;;;
1754.0;1669.2;;;;-0.22548679;0.91741955;0.053913124;;;;;;;;;;;;;;;
1754.0;1669.2;;;;-0.22531131;0.9176637;0.055091865;;;;;;;;;;;;;;;
1754.0;1669.2;;;;-0.22495273;0.91791165;0.05631257;;;;;;;;;;;;;;;
1754.0;1679.2;;;;-0.22386172;0.9177972;0.057147987;;;;;;;;;;;;;;;
1754.0;1679.2;;;;-0.22298816;0.9171487;0.058155067;;;;;;;;;;;;;;;
1754.0;1679.2;;;;-0.22189334;0.91560376;0.058979042;;;;;;;;;;;;;;;
1754.0;1679.2;;;;-0.22006229;0.9133493;0.06027604;;;;;;;;;;;;;;;
1754.0;1679.2;;;;-0.2187424;0.91019833;0.061370857;;;;;;;;;;;;;;;
1806.0;1682.0;262143;262143;14852;;;;;;;;;;;;;;;;;;
1806.0;1687.9;;;;;;;;;;;;;3455;;;;;;;;
1806.0;1687.9;;;;;;;;;;;;;3431;;;;;;;;
1806.0;1687.9;;;;;;;;;;;;;3298;;;;;;;;
1806.0;1687.9;;;;;;;;;;;;;3198;;;;;;;;
1806.0;1687.9;;;;;;;;;;;;;3266;;;;;;;;
1806.0;1689.2;;;;-0.2176781;0.9060861;0.062255867;;;;;;;;;;;;;;;
1806.0;1689.2;;;;-0.21621326;0.9012605;0.06369019;;;;;;;;;;;;;;;
1806.0;1689.2;;;;-0.21529391;0.89506924;0.06424714;;;;;;;;;;;;;;;
1806.0;1689.2;;;;-0.21438602;0.88852704;0.06518937;;;;;;;;;;;;;;;
1806.0;1689.2;;;;-0.21332934;0.8814622;0.06570817;;;;;;;;;;;;;;;
1806.0;1699.3;;;;-0.21199039;0.8732225;0.06647111;;;;;;;;;;;;;;;
1806.0;1699.3;;;;-0.21065906;0.8644639;0.06661988;;;;;;;;;;;;;;;
1806.0;1699.3;;;;-0.20993045;0.8550073;0.06671906;;;;;;;;;;;;;;;
1806.0;1699.3;;;;-0.2088013;0.84523404;0.06622697;;;;;;;;;;;;;;;
1806.0;1699.3;;;;-0.20738986;0.8349649;0.06647492;;;;;;;;;;;;;;;
1806.0;1702.2;262143;262143;14855;;;;;;;;;;;;;;;;;;
1806.0;1709.4;;;;-0.20616534;0.8249017;0.06601716;;;;;;;;;;;;;;;
1806.0;1709.4;;;;-0.2051926;0.81455624;0.06644059;;;;;;;;;;;;;;;
1806.0;1709.4;;;;-0.20393375;0.80459225;0.065811165;;;;;;;;;;;;;;;
1806.0;1709.4;;;;-0.20332721;0.7945825;0.06576157;;;;;;;;;;;;;;;
1806.0;1709.4;;;;-0.20232013;0.7849084;0.06576157;;;;;;;;;;;;;;;
1808.0;1719.5;;;;-0.20171359;0.7759439;0.06555558;;;;;;;;;;;;;;;
1808.0;1719.5;;;;-0.20103458;0.76755536;0.06563569;;;;;;;;;;;;;;;
1808.0;1719.5;;;;-0.20092013;0.758793;0.06488038;;;;;;;;;;;;;;;
1808.0;1719.5;;;;-0.20043567;0.75055707;0.064659126;;;;;;;;;;;;;;;
1808.0;1719.5;;;;-0.20024493;0.7432557;0.06471253;;;;;;;;;;;;;;;
1808.0;1722.2;;;;;;;;;;;;;;;;;9.861293;-1.5602587;20.241402;;1563.9
1808.0;1722.2;;;;;;;;;;;;;;0.8489639;0.25415814;-0.40144047;;;;;1563.9
1808.0;1722.2;;;;;;;;;;;;;;;;;6.977294;-1.7052218;20.14603;;1563.9
1808.0;1722.2;;;;;;;;;;;;;;0.85024565;0.2620319;-0.39606923;;;;;1563.9
1808.0;1722.2;;;;;;;;;;;;;;;;;4.7799616;-1.5259255;20.039215;;1573.5
1808.0;1722.2;;;;;;;;;;;;;;0.84670556;0.28138065;-0.385815;;;;;1573.5
1808.0;1722.2;;;;;;;;;;;;;;;;;1.6556292;-1.4381847;19.901882;;1573.5
1808.0;1722.2;;;;;;;;;;;;;;0.8338267;0.29090244;-0.37775812;;;;;1573.5
1808.0;1722.2;;;;;;;;;;;;;;;;;-1.8044069;-1.4000366;19.905697;;1583.0
1808.0;1722.2;;;;;;;;;;;;;;0.8387707;0.30176702;-0.36896878;;;;;1583.0
1808.0;1722.2;;;;;;;;;;;;;;;;;-5.855739;-1.4038514;19.85229;;1583.0
1808.0;1722.2;;;;;;;;;;;;;;0.8299814;0.29963073;-0.35657826;;;;;1583.0
1811.0;1723.1;;;;;;;;;;;;;;;;;-10.448774;-1.2207403;19.882809;;1592.6
1811.0;1723.1;;;;;;;;;;;;;;0.8402356;0.29474777;-0.3465682;;;;;1592.6
1811.0;1723.1;;;;;;;;;;;;;;;;;-15.869625;-0.77440715;19.314402;;1592.6
1811.0;1723.1;;;;;;;;;;;;;;0.81948304;0.30048525;-0.338023;;;;;1592.6
1811.0;1723.1;;;;;;;;;;;;;;;;;-20.550402;-0.17166662;18.910032;;1602.3
1811.0;1723.1;;;;;;;;;;;;;;0.8175909;0.28888822;-0.31275368;;;;;1602.3
1811.0;1723.1;;;;;;;;;;;;;;;;;-23.327585;0.5188147;18.074587;;1602.3
1811.0;1723.1;;;;;;;;;;;;;;0.81820124;0.27356791;-0.28962067;;;;;1602.3
1811.0;1723.1;;;;;;;;;;;;;;;;;-24.506365;0.3318888;17.555773;;1611.9
1811.0;1723.1;;;;;;;;;;;;;;0.81783503;0.26093325;-0.300119;;;;;1611.9
1811.0;1723.1;;;;;;;;;;;;;;;;;-24.68566;0.34714803;17.452772;;1611.9
1811.0;1723.1;;;;;;;;;;;;;;0.7882321;0.24036378;-0.32685325;;;;;1611.9
1811.0;1722.3;262143;262143;14853;;;;;;;;;;;;;;;;;;
1813.0;1724.3;;;;;;;;;;;;;;;;;-23.812067;0.56840724;16.899626;;1621.6
1813.0;1724.3;;;;;;;;;;;;;;0.7531358;0.2327952;-0.354503;;;;;1621.6
1813.0;1724.3;;;;;;;;;;;;;;;;;-21.980957;1.0757774;16.457108;;1621.6
1813.0;1724.3;;;;;;;;;;;;;;0.7116306;0.21301919;-0.35706657;;;;;1621.6
1813.0;1724.3;;;;;;;;;;;;;;;;;-20.420698;0.9575182;16.155737;;1631.3
1813.0;1724.3;;;;;;;;;;;;;;0.66451;0.21436201;-0.35706657;;;;;1631.3
1813.0;1724.3;;;;;;;;;;;;;;;;;-19.783623;0.3662221;15.774254;;1631.3
1813.0;1724.3;;;;;;;;;;;;;;0.6207465;0.19910276;-0.35798213;;;;;1631.3
1813.0;1724.3;;;;;;;;;;;;;;;;;-19.64629;-0.5798517;15.430922;;1641.0
1813.0;1724.3;;;;;;;;;;;;;;0.58027893;0.19000824;-0.3541368;;;;;1641.0
1813.0;1724.3;;;;;;;;;;;;;;;;;-20.081179;-1.064333;15.572069;;1641.0
1813.0;1724.3;;;;;;;;;;;;;;0.53779715;0.18359935;-0.3513291;;;;;1641.0
1813.0;1725.1;;;;;;;;;;;;;;;;;-21.164587;-1.4343699;15.434736;;1650.6
1813.0;1725.1;;;;;;;;;;;;;;0.5004425;0.18158513;-0.34369946;;;;;1650.6
1813.0;1725.1;;;;;;;;;;;;;;;;;-21.80166;-2.76574;15.930662;;1650.6
1813.0;1725.1;;;;;;;;;;;;;;0.48664814;0.19306009;-0.34138006;;;;;1650.6
1813.0;1725.1;;;;;;;;;;;;;;;;;-22.846918;-3.8644063;16.685995;;1660.3
1813.0;1725.1;;;;;;;;;;;;;;0.48634297;0.1902524;-0.33808404;;;;;1660.3
1813.0;1725.1;;;;;;;;;;;;;;;;;-22.091587;-5.508591;17.109438;;1660.3
1813.0;1725.1;;;;;;;;;;;;;;0.5191809;0.1690115;-0.31550035;;;;;1660.3
1813.0;1725.1;;;;;;;;;;;;;;;;;-19.024477;-6.96585;17.18955;;1669.9
1813.0;1725.1;;;;;;;;;;;;;;0.58772546;0.21753594;-0.30738243;;;;;1669.9
1813.0;1725.1;;;;;;;;;;;;;;;;;-16.674551;-7.0116277;17.334513;;1669.9
1813.0;1725.1;;;;;;;;;;;;;;0.6468093;0.23651844;-0.30628377;;;;;1669.9
1815.0;1728.0;;;;;;;;;;;;;3408;;;;;;;;
1815.0;1728.0;;;;;;;;;;;;;3461;;;;;;;;
1815.0;1728.0;;;;;;;;;;;;;3447;;;;;;;;
1815.0;1728.0;;;;;;;;;;;;;3477;;;;;;;;
1815.0;1728.0;;;;;;;;;;;;;3668;;;;;;;;
1815.0;1729.3;;;;-0.2000008;0.73655325;0.06446839;;;;;;;;;;;;;;;
1815.0;1729.3;;;;-0.20037463;0.73006064;0.06427766;;;;;;;;;;;;;;;
1815.0;1729.3;;;;-0.20051959;0.7238694;0.06475831;;;;;;;;;;;;;;;
1815.0;1729.3;;;;-0.20063022;0.7184449;0.06421281;;;;;;;;;;;;;;;
1815.0;1729.3;;;;-0.20075992;0.7133141;0.06455613;;;;;;;;;;;;;;;
1815.0;1739.3;;;;;;;;;;-0.3357036;17.82281;-1.7204809;;;;;;;;;
1815.0;1739.3;;;;;;;0.26575518;-0.94106877;0.3859981;;;;;;;;;;;;
1815.0;1739.3;;;;;;;;;;5.7298503;33.173622;9.071627;;;;;;;;;
1815.0;1739.3;;;;;;;0.30555132;-1.084811;0.42732018;;;;;;;;;;;;
1815.0;1739.4;;;;-0.20123675;0.708252;0.06488801;;;;;;;;;;;;;;;
1815.0;1739.4;;;;-0.20197299;0.70315176;0.0654564;;;;;;;;;;;;;;;
1815.0;1739.4;;;;-0.20290378;0.69875723;0.06646729;;;;;;;;;;;;;;;
1815.0;1739.4;;;;-0.20364764;0.69440085;0.06672288;;;;;;;;;;;;;;;
1815.0;1739.4;;;;-0.20388415;0.6896172;0.067955025;;;;;;;;;;;;;;;
1815.0;1742.4;262143;262143;14852;;;;;;;;;;;;;;;;;;
1815.0;1748.9;;;;;;;;;;-5.0279245;9.52559;11.284219;;;;;;;;;
1815.0;1748.9;;;;;;;0.31318095;-1.1159399;0.41865292;;;;;;;;;;;;
1815.0;1748.9;;;;;;;;;;-3.5821102;21.771143;36.656544;;;;;;;;;
1815.0;1748.9;;;;;;;0.31989503;-1.1451155;0.40821558;;;;;;;;;;;;
1866.0;1749.4;;;;-0.20434955;0.6848832;0.06896592;;;;;;;;;;;;;;;
1866.0;1749.4;;;;-0.20512775;0.6805344;0.06960679;;;;;;;;;;;;;;;
1866.0;1749.4;;;;-0.20562747;0.6759835;0.070392616;;;;;;;;;;;;;;;
1866.0;1749.4;;;;-0.2055588;0.67184836;0.07227326;;;;;;;;;;;;;;;
1866.0;1749.4;;;;-0.2062569;0.6676255;0.073867805;;;;;;;;;;;;;;;
1866.0;1758.0;;;;;;;;;;-10.093997;24.891659;59.19065;;;;;;;;;
1866.0;1758.0;;;;;;;0.3270974;-1.1753899;0.39674062;;;;;;;;;;;;
1866.0;1758.0;;;;;;;;;;-21.60329;-8.709219;58.751945;;;;;;;;;
1866.0;1758.0;;;;;;;0.33796197;-1.2066408;0.38685262;;;;;;;;;;;;
1866.0;1759.0;;;;-0.20677951;0.6631127;0.075637825;;;;;;;;;;;;;;;
1866.0;1759.0;;;;-0.20705417;0.65824133;0.07686616;;;;;;;;;;;;;;;
1866.0;1759.0;;;;-0.20700458;0.65374;0.0782013;;;;;;;;;;;;;;;
1866.0;1759.0;;;;-0.2071419;0.6486016;0.07959748;;;;;;;;;;;;;;;
1866.0;1759.0;;;;-0.2064896;0.64439017;0.080917366;;;;;;;;;;;;;;;
1866.0;1762.1;262143;262143;14854;;;;;;;;;;;;;;;;;;
1866.0;1767.6;;;;;;;;;;-28.019806;-7.736442;79.28709;;;;;;;;;
1866.0;1767.6;;;;;;;0.34717858;-1.2403333;0.37568286;;;;;;;;;;;;
1866.0;1767.6;;;;;;;;;;-34.001434;-6.504257;99.55138;;;;;;;;;
1866.0;1767.6;;;;;;;0.36201057;-1.2805567;0.3671987;;;;;;;;;;;;
1866.0;1767.9;;;;;;;;;;;;;3908;;;;;;;;
1866.0;1767.9;;;;;;;;;;;;;3865;;;;;;;;
1866.0;1767.9;;;;;;;;;;;;;3472;;;;;;;;
1866.0;1767.9;;;;;;;;;;;;;3104;;;;;;;;
1866.0;1767.9;;;;;;;;;;;;;3008;;;;;;;;
1868.0;1769.2;;;;-0.20645908;0.63992697;0.08215714;;;;;;;;;;;;;;;
1868.0;1769.2;;;;-0.20597842;0.6357041;0.083442695;;;;;;;;;;;;;;;
1868.0;1769.2;;;;-0.20521548;0.63127905;0.08504487;;;;;;;;;;;;;;;
1868.0;1769.2;;;;-0.20509723;0.6264916;0.085586555;;;;;;;;;;;;;;;
1868.0;1769.2;;;;-0.20421603;0.62211233;0.08661271;;;;;;;;;;;;;;;
1868.0;1777.3;;;;;;;;;;-39.139988;2.2812586;118.694115;;;;;;;;;
1868.0;1777.3;;;;;;;0.38111514;-1.330607;0.36335337;;;;;;;;;;;;
1868.0;1777.3;;;;;;;;;;-40.19669;11.020997;124.774925;;;;;;;;;
1868.0;1777.3;;;;;;;0.40235603;-1.3880428;0.36292613;;;;;;;;;;;;
1868.0;1779.3;;;;-0.20334628;0.6177445;0.08789826;;;;;;;;;;;;;;;
1868.0;1779.3;;;;-0.20235446;0.6131936;0.0890236;;;;;;;;;;;;;;;
1868.0;1779.3;;;;-0.2010651;0.60836035;0.09004975;;;;;;;;;;;;;;;
1868.0;1779.3;;;;-0.19986728;0.60374075;0.09098435;;;;;;;;;;;;;;;
1868.0;1779.3;;;;-0.19868472;0.59891516;0.091880806;;;;;;;;;;;;;;;
1868.0;1782.3;262143;262143;14853;;;;;;;;;;;;;;;;;;
1868.0;1786.9;;;;;;;;;;-39.796135;11.513107;124.87029;;;;;;;;;
1868.0;1786.9;;;;;;;0.4262215;-1.447554;0.36634418;;;;;;;;;;;;
1868.0;1786.9;;;;;;;;;;-39.4528;12.081515;124.881744;;;;;;;;;
1868.0;1786.9;;;;;;;0.45149082;-1.5114597;0.3679922;;;;;;;;;;;;
1869.0;1789.3;;;;-0.19687656;0.5944024;0.09298707;;;;;;;;;;;;;;;
1869.0;1789.3;;;;-0.19554141;0.5894318;0.09380342;;;;;;;;;;;;;;;
1869.0;1789.3;;;;-0.19413379;0.5840493;0.094757095;;;;;;;;;;;;;;;
1869.0;1789.3;;;;-0.19247058;0.5785752;0.09445955;;;;;;;;;;;;;;;
1869.0;1789.3;;;;-0.1907883;0.57371145;0.095058456;;;;;;;;;;;;;;;
1869.0;1790.0;;;;;;;;;;;;;;;;;-14.351329;-6.75985;17.075106;;1679.6
1869.0;1790.0;;;;;;;;;;;;;;0.70027775;0.2478103;-0.3382061;;;;;1679.6
1869.0;1790.0;;;;;;;;;;;;;;;;;-11.547441;-7.168035;16.186255;;1679.6
1869.0;1790.0;;;;;;;;;;;;;;0.7305521;0.28577533;-0.40089116;;;;;1679.6
1869.0;1790.0;;;;;;;;;;;;;;;;;-10.391553;-7.293924;15.358439;;1689.0
1869.0;1790.0;;;;;;;;;;;;;;0.7428205;0.31006807;-0.42262033;;;;;1689.0
1869.0;1790.0;;;;;;;;;;;;;;;;;-11.2880335;-7.2023683;14.22544;;1689.0
1869.0;1790.0;;;;;;;;;;;;;;0.7299417;0.3223365;-0.3953978;;;;;1689.0
1869.0;1790.0;;;;;;;;;;;;;;;;;-12.993256;-7.084109;13.172552;;1698.6
1869.0;1790.0;;;;;;;;;;;;;;0.72853786;0.331431;-0.36219367;;;;;1698.6
1869.0;1790.0;;;;;;;;;;;;;;;;;-15.24781;-5.1614428;11.822107;;1698.6
1869.0;1790.0;;;;;;;;;;;;;;0.7052217;0.33478805;-0.31861323;;;;;1698.6
1873.0;1790.5;;;;;;;;;;;;;;;;;-16.68981;-3.5058138;10.456405;;1708.3
1873.0;1790.5;;;;;;;;;;;;;;0.6621906;0.3366802;-0.28388318;;;;;1708.3
1873.0;1790.5;;;;;;;;;;;;;;;;;-18.913847;-2.6551104;9.193701;;1708.3
1873.0;1790.5;;;;;;;;;;;;;;0.6487014;0.31611073;-0.28711814;;;;;1708.3
1873.0;1790.5;;;;;;;;;;;;;;;;;-21.629993;-0.14496292;8.247627;;1718.0
1873.0;1790.5;;;;;;;;;;;;;;0.63899654;0.276986;-0.27594838;;;;;1718.0
1873.0;1790.5;;;;;;;;;;;;;;;;;-22.18314;3.1929991;7.152776;;1718.0
1873.0;1790.5;;;;;;;;;;;;;;0.6021912;0.24707785;-0.25550097;;;;;1718.0
1873.0;1790.5;;;;;;;;;;;;;;;;;-20.199438;5.115665;5.775628;;1727.6
1873.0;1790.5;;;;;;;;;;;;;;0.5747856;0.22681357;-0.2512894;;;;;1727.6
1873.0;1790.5;;;;;;;;;;;;;;;;;-16.914885;6.282998;4.2458873;;1727.6
1873.0;1790.5;;;;;;;;;;;;;;0.54194766;0.20551164;-0.25244913;;;;;1727.6
1873.0;1796.2;;;;;;;;;;-39.384136;12.8711815;124.881744;;;;;;;;;
1873.0;1796.2;;;;;;;0.47920164;-1.5756096;0.3668325;;;;;;;;;;;;
1873.0;1796.2;;;;;;;;;;-39.41084;13.809626;124.87029;;;;;;;;;
1873.0;1796.2;;;;;;;0.50740075;-1.6335337;0.3618885;;;;;;;;;;;;
1873.0;1799.1;;;;-0.18923572;0.5685769;0.09508897;;;;;;;;;;;;;;;
1873.0;1799.1;;;;-0.18745424;0.56301886;0.09437181;;;;;;;;;;;;;;;
1873.0;1799.1;;;;-0.18547441;0.5572701;0.09461214;;;;;;;;;;;;;;;
1873.0;1799.1;;;;-0.18392946;0.5516625;0.094074264;;;;;;;;;;;;;;;
1873.0;1799.1;;;;-0.18249513;0.5461388;0.09376909;;;;;;;;;;;;;;;
1873.0;1802.3;262143;262143;14859;;;;;;;;;;;;;;;;;;
1926.0;1805.8;;;;;;;;;;-39.193394;15.148624;124.652855;;;;;;;;;
1926.0;1805.8;;;;;;;0.53315836;-1.6890163;0.36524552;;;;;;;;;;;;
1926.0;1805.8;;;;;;;;;;-38.460953;17.349771;122.92856;;;;;;;;;
1926.0;1805.8;;;;;;;0.5598926;-1.7363812;0.36976227;;;;;;;;;;;;
1926.0;1808.0;;;;;;;;;;;;;3030;;;;;;;;
1926.0;1808.0;;;;;;;;;;;;;2970;;;;;;;;
1926.0;1808.0;;;;;;;;;;;;;2837;;;;;;;;
1926.0;1808.0;;;;;;;;;;;;;2683;;;;;;;;
1926.0;1808.0;;;;;;;;;;;;;2427;;;;;;;;
1926.0;1809.0;;;;-0.1806717;0.5406037;0.093227394;;;;;;;;;;;;;;;
1926.0;1809.0;;;;-0.1791649;0.53493124;0.091888435;;;;;;;;;;;;;;;
1926.0;1809.0;;;;-0.17793657;0.5292931;0.090133674;;;;;;;;;;;;;;;
1926.0;1809.0;;;;-0.1768303;0.5236054;0.08903504;;;;;;;;;;;;;;;
1926.0;1809.0;;;;-0.17542268;0.5181542;0.08832169;;;;;;;;;;;;;;;
1926.0;1815.0;;;;;;;;;;-37.385174;20.313883;119.59441;;;;;;;;;
1926.0;1815.0;;;;;;;0.5898007;-1.7780083;0.37842953;;;;;;;;;;;;
1926.0;1815.0;;;;;;;;;;-36.259804;23.75103;115.08911;;;;;;;;;
1926.0;1815.0;;;;;;;0.62105167;-1.805475;0.38831753;;;;;;;;;;;;
1926.0;1819.0;;;;-0.17440034;0.512703;0.08618928;;;;;;;;;;;;;;;
1926.0;1819.0;;;;-0.1730652;0.50726324;0.084407814;;;;;;;;;;;;;;;
1926.0;1819.0;;;;-0.1725464;0.50199896;0.08316804;;;;;;;;;;;;;;;
1926.0;1819.0;;;;-0.17190172;0.49713904;0.08102799;;;;;;;;;;;;;;;
1926.0;1819.0;;;;-0.17227556;0.49239355;0.07946015;;;;;;;;;;;;;;;
1926.0;1822.2;262143;262143;14854;;;;;;;;;;;;;;;;;;
1928.0;1824.7;;;;;;;;;;-34.978027;27.748955;109.805595;;;;;;;;;
1928.0;1824.7;;;;;;;0.64839625;-1.8158513;0.39649647;;;;;;;;;;;;
1928.0;1824.7;;;;;;;;;;-33.627583;32.09403;103.82397;;;;;;;;;
1928.0;1824.7;;;;;;;0.6725669;-1.8024842;0.40333262;;;;;;;;;;;;
1928.0;1829.1;;;;-0.17163087;0.48823935;0.078392036;;;;;;;;;;;;;;;
1928.0;1829.1;;;;-0.17094041;0.48424536;0.07725144;;;;;;;;;;;;;;;
1928.0;1829.1;;;;-0.17064668;0.48058325;0.076026924;;;;;;;;;;;;;;;
1928.0;1829.1;;;;-0.17081071;0.47683722;0.073982246;;;;;;;;;;;;;;;
1928.0;1829.1;;;;-0.1717415;0.47391516;0.071861275;;;;;;;;;;;;;;;
1928.0;1834.3;;;;;;;;;;-32.200844;36.702324;97.178566;;;;;;;;;
1928.0;1834.3;;;;;;;0.69338053;-1.772515;0.40333262;;;;;;;;;;;;
1928.0;1834.3;;;;;;;;;;-31.006805;41.47084;89.9762;;;;;;;;;
1928.0;1834.3;;;;;;;0.70619833;-1.7300333;0.39820552;;;;;;;;;;;;
1928.0;1839.2;;;;-0.17224504;0.47077185;0.06967927;;;;;;;;;;;;;;;
1928.0;1839.2;;;;-0.17245866;0.4684258;0.06782914;;;;;;;;;;;;;;;
1928.0;1839.2;;;;-0.17279817;0.46594626;0.0656395;;;;;;;;;;;;;;;
1928.0;1839.2;;;;-0.17334749;0.46386343;0.06307221;;;;;;;;;;;;;;;
1928.0;1839.2;;;;-0.17390062;0.46147543;0.061164863;;;;;;;;;;;;;;;
1929.0;1842.3;;;;;;;;;;;;;;;;;-13.336589;7.0688496;2.7733696;;1737.3
1929.0;1842.3;;;;;;;;;;;;;;0.5328532;0.18256173;-0.26160467;;;;;1737.3
1929.0;1842.3;;;;;;;;;;;;;;;;;-9.258553;7.374035;1.2627033;;1737.3
1929.0;1842.3;;;;;;;;;;;;;;0.51698357;0.16467787;-0.2811365;;;;;1737.3
1929.0;1842.3;;;;;;;;;;;;;;;;;-6.004517;7.477035;-0.034333322;;1746.9
1929.0;1842.3;;;;;;;;;;;;;;0.51637316;0.15540025;-0.27185887;;;;;1746.9
1929.0;1842.3;;;;;;;;;;;;;;;;;-3.5554063;7.816553;-1.1024811;;1746.9
1929.0;1842.3;;;;;;;;;;;;;;0.5503708;0.14398633;-0.24805444;;;;;1746.9
1929.0;1842.3;;;;;;;;;;;;;;;;;-1.1978515;9.025849;-2.3232217;;1756.5
1929.0;1842.3;;;;;;;;;;;;;;0.56123537;0.15045625;-0.22382274;;;;;1756.5
1929.0;1842.3;;;;;;;;;;;;;;;;;1.3580737;9.685812;-3.4524064;;1756.5
1929.0;1842.3;;;;;;;;;;;;;;0.5784478;0.16376232;-0.22138126;;;;;1756.5
1929.0;1842.4;262143;262143;14862;;;;;;;;;;;;;;;;;;
1930.0;1843.6;;;;;;;;;;;;;;;;;2.9412215;9.006775;-4.711295;;1766.2
1930.0;1843.6;;;;;;;;;;;;;;0.61476487;0.1909238;-0.2327952;;;;;1766.2
1930.0;1843.6;;;;;;;;;;;;;;;;;4.890591;8.289591;-6.1532946;;1766.2
1930.0;1843.6;;;;;;;;;;;;;;0.64278084;0.23322245;-0.22363964;;;;;1766.2
1930.0;1843.6;;;;;;;;;;;;;;;;;8.373516;8.20185;-7.740257;;1775.8
1930.0;1843.6;;;;;;;;;;;;;;0.6715903;0.27478865;-0.20911282;;;;;1775.8
1930.0;1843.6;;;;;;;;;;;;;;;;;11.688589;8.819849;-9.228034;;1775.8
1930.0;1843.6;;;;;;;;;;;;;;0.7076632;0.33906063;-0.22882779;;;;;1775.8
1930.0;1843.6;;;;;;;;;;;;;;;;;11.375774;9.849849;-10.559404;;1785.4
1930.0;1843.6;;;;;;;;;;;;;;0.7322001;0.39710686;-0.23889889;;;;;1785.4
1930.0;1843.6;;;;;;;;;;;;;;;;;8.1827755;12.836848;-11.833552;;1785.4
1930.0;1843.6;;;;;;;;;;;;;;0.7885983;0.42860195;-0.20618305;;;;;1785.4
1930.0;1843.8;;;;;;;;;;-30.114138;46.239357;82.453384;;;;;;;;;
1930.0;1843.8;;;;;;;0.7136448;-1.6871243;0.3886227;;;;;;;;;;;;
1930.0;1843.8;;;;;;;;;;-29.381695;50.82476;74.58342;;;;;;;;;
1930.0;1843.8;;;;;;;0.7055269;-1.6498916;0.37733084;;;;;;;;;;;;
1930.0;1848.1;;;;;;;;;;;;;1969;;;;;;;;
1930.0;1848.1;;;;;;;;;;;;;1489;;;;;;;;
1930.0;1848.1;;;;;;;;;;;;;1293;;;;;;;;
1930.0;1848.1;;;;;;;;;;;;;1344;;;;;;;;
1930.0;1848.1;;;;;;;;;;;;;1346;;;;;;;;
1930.0;1849.1;;;;-0.1745949;0.4595948;0.05874253;;;;;;;;;;;;;;;
1930.0;1849.1;;;;-0.17499162;0.45775992;0.05628205;;;;;;;;;;;;;;;
1930.0;1849.1;;;;-0.17552568;0.45619208;0.054035194;;;;;;;;;;;;;;;
1930.0;1849.1;;;;-0.17645647;0.45416266;0.052833565;;;;;;;;;;;;;;;
1930.0;1849.1;;;;-0.17698671;0.45268255;0.05181504;;;;;;;;;;;;;;;
1987.0;1853.4;;;;;;;;;;-28.813288;54.96002;66.48457;;;;;;;;;
1987.0;1853.4;;;;;;;0.68923;-1.6128422;0.3658559;;;;;;;;;;;;
1987.0;1853.4;;;;;;;;;;-28.263954;58.290356;58.179726;;;;;;;;;
1987.0;1853.4;;;;;;;0.6607257;-1.572985;0.35181737;;;;;;;;;;;;
1987.0;1859.3;;;;-0.17712022;0.45091635;0.04990769;;;;;;;;;;;;;;;
1987.0;1859.3;;;;-0.17770387;0.4491654;0.04808808;;;;;;;;;;;;;;;
1987.0;1859.3;;;;-0.17816164;0.4475022;0.046943672;;;;;;;;;;;;;;;
1987.0;1859.3;;;;-0.17735292;0.4457093;0.04553986;;;;;;;;;;;;;;;
1987.0;1859.3;;;;-0.17705537;0.44408423;0.044479374;;;;;;;;;;;;;;;
1987.0;1863.0;;;;;;;;;;-27.649769;61.037018;49.787132;;;;;;;;;
1987.0;1863.0;;;;;;;0.62135684;-1.5295267;0.33558154;;;;;;;;;;;;
1987.0;1863.0;;;;;;;;;;-26.963104;63.146614;41.322063;;;;;;;;;
1987.0;1863.0;;;;;;;0.5769829;-1.4780724;0.31690422;;;;;;;;;;;;
1987.0;1862.6;262143;262143;14851;;;;;;;;;;;;;;;;;;
1987.0;1869.2;;;;-0.17709352;0.4423104;0.043739323;;;;;;;;;;;;;;;
1987.0;1869.2;;;;-0.17625047;0.44055945;0.04330826;;;;;;;;;;;;;;;
1987.0;1869.2;;;;-0.17564775;0.4391709;0.04265595;;;;;;;;;;;;;;;
1987.0;1869.2;;;;-0.1754532;0.43752676;0.041622166;;;;;;;;;;;;;;;
1987.0;1869.2;;;;-0.17534257;0.43564612;0.040809635;;;;;;;;;;;;;;;
1987.0;1872.3;;;;;;;;;;-26.387066;64.74883;32.788326;;;;;;;;;
1987.0;1872.3;;;;;;;0.5343181;-1.4216743;0.29920346;;;;;;;;;;;;
1987.0;1872.3;;;;;;;;;;-25.708029;66.053505;24.380474;;;;;;;;;
1987.0;1872.3;;;;;;;0.48463392;-1.360393;0.28760645;;;;;;;;;;;;
1989.0;1879.2;;;;-0.17517091;0.43357092;0.04012299;;;;;;;;;;;;;;;
1989.0;1879.2;;;;-0.17504884;0.43184286;0.039894108;;;;;;;;;;;;;;;
1989.0;1879.2;;;;-0.17339708;0.43004996;0.03998566;;;;;;;;;;;;;;;
1989.0;1879.2;;;;-0.17348482;0.4283219;0.04018021;;;;;;;;;;;;;;;
1989.0;1879.2;;;;-0.17427064;0.42623907;0.040901188;;;;;;;;;;;;;;;
1989.0;1882.0;;;;;;;;;;-24.830622;67.32765;16.113773;;;;;;;;;
1989.0;1882.0;;;;;;;0.4340953;-1.3036897;0.27625355;;;;;;;;;;;;
1989.0;1882.0;;;;;;;;;;-23.903624;68.670456;8.198035;;;;;;;;;
1989.0;1882.0;;;;;;;0.38398388;-1.2474746;0.26789147;;;;;;;;;;;;
1989.0;1882.6;262143;262143;14856;;;;;;;;;;;;;;;;;;
1989.0;1888.4;;;;;;;;;;;;;1262;;;;;;;;
1989.0;1888.4;;;;;;;;;;;;;1306;;;;;;;;
1989.0;1888.4;;;;;;;;;;;;;1148;;;;;;;;
1989.0;1888.4;;;;;;;;;;;;;250;;;;;;;;
1989.0;1888.4;;;;;;;;;;;;;-627;;;;;;;;
1989.0;1889.3;;;;-0.1751671;0.42413718;0.040134434;;;;;;;;;;;;;;;
1989.0;1889.3;;;;-0.17518236;0.42169195;0.039981846;;;;;;;;;;;;;;;
1989.0;1889.3;;;;-0.17575075;0.41903692;0.041168217;;;;;;;;;;;;;;;
1989.0;1889.3;;;;-0.17634203;0.41662985;0.042110447;;;;;;;;;;;;;;;
1989.0;1889.3;;;;-0.17652132;0.41366202;0.04309464;;;;;;;;;;;;;;;
1989.0;1891.6;;;;;;;;;;-22.961363;70.142975;0.7248146;;;;;;;;;
1989.0;1891.6;;;;;;;0.34101382;-1.1955931;0.25782037;;;;;;;;;;;;
1989.0;1891.6;;;;;;;;;;-22.099216;71.684166;-6.2791834;;;;;;;;;
1989.0;1891.6;;;;;;;0.3030488;-1.149205;0.25055698;;;;;;;;;;;;
1990.0;1899.4;;;;-0.17755128;0.41056448;0.043853763;;;;;;;;;;;;;;;
1990.0;1899.4;;;;-0.1784897;0.40774924;0.04484177;;;;;;;;;;;;;;;
1990.0;1899.4;;;;-0.17928316;0.40455252;0.046398167;;;;;;;;;;;;;;;
1990.0;1899.4;;;;-0.18077852;0.40115362;0.04740525;;;;;;;;;;;;;;;
1990.0;1899.4;;;;-0.18161012;0.39816672;0.048000343;;;;;;;;;;;;;;;
1990.0;1901.2;;;;;;;;;;-21.19129;73.3932;-12.733848;;;;;;;;;
1990.0;1901.2;;;;;;;0.27167577;-1.1072115;0.2418897;;;;;;;;;;;;
1990.0;1901.2;;;;;;;;;;-20.3444;75.07172;-18.498032;;;;;;;;;
1990.0;1901.2;;;;;;;0.2515946;-1.0745567;0.23438215;;;;;;;;;;;;
1990.0;1902.5;;;;;;;;;;;;;;;;;6.107517;17.990662;-13.61507;;1795.0
1990.0;1902.5;;;;;;;;;;;;;;0.8086184;0.47547838;-0.1850032;;;;;1795.0
1990.0;1902.5;;;;;;;;;;;;;;;;;4.3755913;22.648548;-15.404218;;1795.0
1990.0;1902.5;;;;;;;;;;;;;;0.8021485;0.53346354;-0.18213446;;;;;1795.0
1990.0;1902.5;;;;;;;;;;;;;;;;;-0.45777765;26.982178;-17.47566;;1804.6
1990.0;1902.5;;;;;;;;;;;;;;0.7712638;0.5807062;-0.20014039;;;;;1804.6
1990.0;1902.5;;;;;;;;;;;;;;;;;-6.8933682;30.198065;-19.119846;;1804.6
1990.0;1902.5;;;;;;;;;;;;;;0.72762233;0.5979186;-0.21881771;;;;;1804.6
1990.0;1902.5;;;;;;;;;;;;;;;;;-13.298441;31.804104;-20.348215;;1814.3
1990.0;1902.5;;;;;;;;;;;;;;0.6961272;0.57924134;-0.23377179;;;;;1814.3
1990.0;1902.5;;;;;;;;;;;;;;;;;-16.582996;33.36436;-22.068699;;1814.3
1990.0;1902.5;;;;;;;;;;;;;;0.6603595;0.5482345;-0.21710868;;;;;1814.3
1992.0;1903.4;;;;;;;;;;;;;;;;;-17.654957;33.970913;-24.246956;;1824.0
1992.0;1903.4;;;;;;;;;;;;;;0.6769616;0.5080111;-0.2113712;;;;;1824.0
1992.0;1903.4;;;;;;;;;;;;;;;;;-17.559587;35.863064;-26.882992;;1824.0
1992.0;1903.4;;;;;;;;;;;;;;0.67610705;0.47395244;-0.1939146;;;;;1824.0
1992.0;1903.4;;;;;;;;;;;;;;;;;-15.099032;37.99936;-29.427473;;1833.7
1992.0;1903.4;;;;;;;;;;;;;;0.6803186;0.45521408;-0.18860438;;;;;1833.7
1992.0;1903.4;;;;;;;;;;;;;;;;;-11.268959;39.92584;-31.823177;;1833.7
1992.0;1903.4;;;;;;;;;;;;;;0.67720574;0.474868;-0.18512528;;;;;1833.7
1992.0;1903.4;;;;;;;;;;;;;;;;;-8.827478;40.566727;-34.40962;;1843.4
1992.0;1903.4;;;;;;;;;;;;;;0.6754967;0.4704123;-0.18970306;;;;;1843.4
1992.0;1903.4;;;;;;;;;;;;;;;;;-6.931516;42.291023;-37.400433;;1843.4
1992.0;1903.4;;;;;;;;;;;;;;0.68923;0.49794;-0.18488114;;;;;1843.4
1992.0;1902.7;262143;262143;14861;;;;;;;;;;;;;;;;;;
1992.0;1909.3;;;;-0.18366624;0.39469153;0.049594887;;;;;;;;;;;;;;;
1992.0;1909.3;;;;-0.18538286;0.3917809;0.05086518;;;;;;;;;;;;;;;
1992.0;1909.3;;;;-0.1870804;0.38894278;0.051471718;;;;;;;;;;;;;;;
1992.0;1909.3;;;;-0.1892586;0.3859101;0.05275727;;;;;;;;;;;;;;;
1992.0;1909.3;;;;-0.19171527;0.38361746;0.054206856;;;;;;;;;;;;;;;
1992.0;1910.5;;;;;;;;;;-19.60814;76.67013;-23.739586;;;;;;;;;
1992.0;1910.5;;;;;;;0.23847163;-1.0507523;0.22247994;;;;;;;;;;;;
1992.0;1910.5;;;;;;;;;;-18.883327;77.8985;-28.386028;;;;;;;;;
1992.0;1910.5;;;;;;;0.23218483;-1.0379345;0.20789209;;;;;;;;;;;;
2046.0;1919.2;;;;-0.19441989;0.38109213;0.05495835;;;;;;;;;;;;;;;
2046.0;1919.2;;;;-0.19733432;0.37839133;0.055568703;;;;;;;;;;;;;;;
2046.0;1919.2;;;;-0.2003136;0.37540823;0.055992134;;;;;;;;;;;;;;;
2046.0;1919.2;;;;-0.20304874;0.3727112;0.056522377;;;;;;;;;;;;;;;
2046.0;1919.2;;;;-0.20543674;0.36999896;0.056934364;;;;;;;;;;;;;;;
2046.0;1920.0;;;;;;;;;;-18.192846;79.03531;-32.49077;;;;;;;;;
2046.0;1920.0;;;;;;;0.23328349;-1.0363475;0.19135106;;;;;;;;;;;;
2046.0;1920.0;;;;;;;;;;-17.555773;80.202644;-35.973694;;;;;;;;;
2046.0;1920.0;;;;;;;0.23938718;-1.0462356;0.17987609;;;;;;;;;;;;
2046.0;1922.6;262143;262143;14856;;;;;;;;;;;;;;;;;;
2046.0;1928.3;;;;;;;;;;;;;621;;;;;;;;
2046.0;1928.3;;;;;;;;;;;;;3779;;;;;;;;
2046.0;1928.3;;;;;;;;;;;;;1397;;;;;;;;
2046.0;1928.3;;;;;;;;;;;;;-13933;;;;;;;;
2046.0;1928.3;;;;;;;;;;;;;-33978;;;;;;;;
2046.0;1929.2;;;;-0.20717242;0.3678818;0.05672837;;;;;;;;;;;;;;;
2046.0;1929.2;;;;-0.20922473;0.3656197;0.057220466;;;;;;;;;;;;;;;
2046.0;1929.2;;;;-0.21107104;0.36386493;0.05760575;;;;;;;;;;;;;;;
2046.0;1929.2;;;;-0.21260074;0.36278918;0.057106026;;;;;;;;;;;;;;;
2046.0;1929.2;;;;-0.21396258;0.36198047;0.056350715;;;;;;;;;;;;;;;
2046.0;1929.5;;;;;;;;;;-17.040771;81.12964;-38.907288;;;;;;;;;
2046.0;1929.5;;;;;;;0.24762718;-1.0632038;0.17169714;;;;;;;;;;;;
2046.0;1929.5;;;;;;;;;;-16.529589;81.57597;-41.55858;;;;;;;;;
2046.0;1929.5;;;;;;;0.2567217;-1.0840175;0.16547136;;;;;;;;;;;;
2048.0;1938.9;;;;;;;;;;-15.87344;81.68279;-43.96573;;;;;;;;;
2048.0;1938.9;;;;;;;0.26654866;-1.1020234;0.16284677;;;;;;;;;;;;
2048.0;1938.9;;;;;;;;;;-15.175328;81.53401;-46.189762;;;;;;;;;
2048.0;1938.9;;;;;;;0.27460554;-1.1156957;0.15881832;;;;;;;;;;;;
2048.0;1939.0;;;;-0.21551517;0.36169818;0.055805214;;;;;;;;;;;;;;;
2048.0;1939.0;;;;-0.2169495;0.3621407;0.054595955;;;;;;;;;;;;;;;
2048.0;1939.0;;;;-0.21828464;0.36408618;0.05351258;;;;;;;;;;;;;;;
2048.0;1939.0;;;;-0.21939853;0.36639026;0.05193711;;;;;;;;;;;;;;;
2048.0;1939.0;;;;-0.22034839;0.36926654;0.050025947;;;;;;;;;;;;;;;
2048.0;1942.5;262143;262143;14853;;;;;;;;;;;;;;;;;;
2048.0;1948.5;;;;;;;;;;-14.625996;80.95416;-48.36421;;;;;;;;;
2048.0;1948.5;;;;;;;0.2814417;-1.1199073;0.15857418;;;;;;;;;;;;
2048.0;1948.5;;;;;;;;;;-14.103366;80.13016;-50.439465;;;;;;;;;
2048.0;1948.5;;;;;;;0.28882718;-1.1210059;0.15948974;;;;;;;;;;;;
2048.0;1949.1;;;;-0.22131732;0.37343982;0.049236305;;;;;;;;;;;;;;;
2048.0;1949.1;;;;-0.22221377;0.37845618;0.048904426;;;;;;;;;;;;;;;
2048.0;1949.1;;;;-0.22298053;0.38491064;0.048263557;;;;;;;;;;;;;;;
2048.0;1949.1;;;;-0.22354892;0.39233786;0.04735566;;;;;;;;;;;;;;;
2048.0;1949.1;;;;-0.22405627;0.4007607;0.046573643;;;;;;;;;;;;;;;
2048.0;1958.2;;;;;;;;;;-13.607441;79.25657;-52.388836;;;;;;;;;
2048.0;1958.2;;;;;;;0.2910245;-1.1190526;0.16205329;;;;;;;;;;;;
2048.0;1958.2;;;;;;;;;;-13.172552;78.34864;-54.200874;;;;;;;;;
2048.0;1958.2;;;;;;;0.29261148;-1.1200293;0.16461684;;;;;;;;;;;;
2049.0;1959.3;;;;-0.22433475;0.41092688;0.044765476;;;;;;;;;;;;;;;
2049.0;1959.3;;;;-0.22420505;0.4218865;0.043270115;;;;;;;;;;;;;;;
2049.0;1959.3;;;;-0.2235451;0.43428427;0.041305546;;;;;;;;;;;;;;;
2049.0;1959.3;;;;-0.22290805;0.447918;0.03944016;;;;;;;;;;;;;;;
2049.0;1959.3;;;;-0.22181323;0.46298224;0.036491398;;;;;;;;;;;;;;;
2049.0;1962.6;;;;;;;;;;;;;;;;;-4.8486285;45.628986;-40.85284;;1853.0
2049.0;1962.6;;;;;;;;;;;;;;0.6787927;0.5528123;-0.1650441;;;;;1853.0
2049.0;1962.6;;;;;;;;;;;;;;;;;-1.7586291;47.16254;-44.789726;;1853.0
2049.0;1962.6;;;;;;;;;;;;;;0.6857509;0.5813776;-0.09643849;;;;;1853.0
2049.0;1962.6;;;;;;;;;;;;;;;;;-0.65233314;47.5631;-50.153355;;1862.6
2049.0;1962.6;;;;;;;;;;;;;;0.7187109;0.5988342;0.06640828;;;;;1862.6
2049.0;1962.6;;;;;;;;;;;;;;;;;0.93081456;50.176243;-56.936092;;1862.6
2049.0;1962.6;;;;;;;;;;;;;;0.75264746;0.5208289;0.18872647;;;;;1862.6
2049.0;1962.6;;;;;;;;;;;;;;;;;3.1815546;55.90228;-63.577682;;1872.3
2049.0;1962.6;;;;;;;;;;;;;;0.78225046;0.48670918;0.2283395;;;;;1872.3
2049.0;1962.6;;;;;;;;;;;;;;;;;3.9292583;61.71987;-69.39146;;1872.3
2049.0;1962.6;;;;;;;;;;;;;;0.73250526;0.4598529;0.12897122;;;;;1872.3
2049.0;1962.8;262143;262143;14865;;;;;;;;;;;;;;;;;;
2050.0;1963.8;;;;;;;;;;;;;;;;;0.50737023;66.49602;-74.48805;;1881.9
2050.0;1963.8;;;;;;;;;;;;;;0.6850795;0.51796013;0.019592883;;;;;1881.9
2050.0;1963.8;;;;;;;;;;;;;;;;;-5.493332;71.38279;-78.87127;;1881.9
2050.0;1963.8;;;;;;;;;;;;;;0.6513871;0.57185584;-0.088015385;;;;;1881.9
2050.0;1963.8;;;;;;;;;;;;;;;;;-8.610034;78.352455;-83.574936;;1891.5
2050.0;1963.8;;;;;;;;;;;;;;0.6197699;0.6142155;-0.14587848;;;;;1891.5
2050.0;1963.8;;;;;;;;;;;;;;;;;-7.4808497;86.046936;-90.0029;;1891.5
2050.0;1963.8;;;;;;;;;;;;;;0.5894345;0.611713;-0.107852414;;;;;1891.5
2050.0;1963.8;;;;;;;;;;;;;;;;;-3.0022585;91.963715;-97.95679;;1901.2
2050.0;1963.8;;;;;;;;;;;;;;0.5923032;0.57795954;-0.044373915;;;;;1901.2
2050.0;1963.8;;;;;;;;;;;;;;;;;2.666555;96.850494;-106.62405;;1901.2
2050.0;1963.8;;;;;;;;;;;;;;0.63203835;0.4987335;1.8311106E-4;;;;;1901.2
2050.0;1967.6;;;;;;;;;;-12.520218;77.27669;-55.90991;;;;;;;;;
2050.0;1967.6;;;;;;;0.2941374;-1.1235085;0.16968292;;;;;;;;;;;;
2050.0;1967.6;;;;;;;;;;-11.612293;75.83087;-57.611317;;;;;;;;;
2050.0;1967.6;;;;;;;0.29273355;-1.1291848;0.1726127;;;;;;;;;;;;
2050.0;1968.4;;;;;;;;;;;;;-39211;;;;;;;;
2050.0;1968.4;;;;;;;;;;;;;-22423;;;;;;;;
2050.0;1968.4;;;;;;;;;;;;;1617;;;;;;;;
2050.0;1968.4;;;;;;;;;;;;;14018;;;;;;;;
2050.0;1968.4;;;;;;;;;;;;;11900;;;;;;;;
2050.0;1969.2;;;;-0.22119525;0.47879416;0.03367615;;;;;;;;;;;;;;;
2050.0;1969.2;;;;-0.2202492;0.49605185;0.030307774;;;;;;;;;;;;;;;
2050.0;1969.2;;;;-0.2214928;0.51383597;0.026287083;;;;;;;;;;;;;;;
2050.0;1969.2;;;;-0.22390369;0.53113943;0.020290377;;;;;;;;;;;;;;;
2050.0;1969.2;;;;-0.2194443;0.54972464;0.018436434;;;;;;;;;;;;;;;
2106.0;1977.1;;;;;;;;;;-10.380108;73.885315;-59.202095;;;;;;;;;
2106.0;1977.1;;;;;;;0.28949857;-1.1335185;0.17560351;;;;;;;;;;;;
2106.0;1977.1;;;;;;;;;;-8.850368;71.29887;-60.76998;;;;;;;;;
2106.0;1977.1;;;;;;;0.28876615;-1.1390729;0.17682424;;;;;;;;;;;;
2106.0;1979.2;;;;-0.2145119;0.57095724;0.01830292;;;;;;;;;;;;;;;
2106.0;1979.2;;;;-0.21260074;0.59182364;0.01633835;;;;;;;;;;;;;;;
2106.0;1979.2;;;;-0.20792392;0.6132737;0.014877321;;;;;;;;;;;;;;;
2106.0;1979.2;;;;-0.2024956;0.6363755;0.014503481;;;;;;;;;;;;;;;
2106.0;1979.2;;;;-0.20249942;0.6587258;0.008617402;;;;;;;;;;;;;;;
2106.0;1982.8;262143;262143;14857;;;;;;;;;;;;;;;;;;
2106.0;1986.8;;;;;;;;;;-7.0535903;67.91894;-62.246315;;;;;;;;;
2106.0;1986.8;;;;;;;0.28547013;-1.1415143;0.17993714;;;;;;;;;;;;
2106.0;1986.8;;;;;;;;;;-5.1271095;63.898132;-63.577682;;;;;;;;;
2106.0;1986.8;;;;;;;0.2817469;-1.1423078;0.18195136;;;;;;;;;;;;
2106.0;1989.3;;;;-0.19954303;0.68256766;0.0064201364;;;;;;;;;;;;;;;
2106.0;1989.3;;;;-0.19778827;0.70929724;0.006275178;;;;;;;;;;;;;;;
2106.0;1989.3;;;;-0.19300845;0.73807913;0.006088258;;;;;;;;;;;;;;;
2106.0;1989.3;;;;-0.18964007;0.7693101;0.0065345773;;;;;;;;;;;;;;;
2106.0;1989.3;;;;-0.18644716;0.80197537;0.0064544687;;;;;;;;;;;;;;;
2106.0;1996.1;;;;;;;;;;-3.0365918;59.46913;-64.9205;;;;;;;;;
2106.0;1996.1;;;;;;;0.27881712;-1.1380352;0.18811609;;;;;;;;;;;;
2106.0;1996.1;;;;;;;;;;-0.8163701;54.830315;-66.18702;;;;;;;;;
2106.0;1996.1;;;;;;;0.27576524;-1.1330912;0.19013031;;;;;;;;;;;;
2108.0;1999.1;;;;-0.1838875;0.8376504;0.007972718;;;;;;;;;;;;;;;
2108.0;1999.1;;;;-0.18109895;0.87537396;0.006427766;;;;;;;;;;;;;;;
2108.0;1999.1;;;;-0.17672731;0.9165002;0.006767274;;;;;;;;;;;;;;;
2108.0;1999.1;;;;-0.17360689;0.96224606;0.005752564;;;;;;;;;;;;;;;
2108.0;1999.1;;;;-0.17158128;1.0103494;0.0051803594;;;;;;;;;;;;;;;
2108.0;2002.8;262143;262143;14865;;;;;;;;;;;;;;;;;;
2108.0;2005.7;;;;;;;;;;1.3847773;49.703205;-67.575615;;;;;;;;;
2108.0;2005.7;;;;;;;0.27466658;-1.1221656;0.19263284;;;;;;;;;;;;
2108.0;2005.7;;;;;;;;;;3.604999;44.152657;-69.013794;;;;;;;;;
2108.0;2005.7;;;;;;;0.27130955;-1.1105685;0.19006927;;;;;;;;;;;;
2108.0;2008.6;;;;;;;;;;;;;5545;;;;;;;;
2108.0;2008.6;;;;;;;;;;;;;2316;;;;;;;;
2108.0;2008.6;;;;;;;;;;;;;1084;;;;;;;;
2108.0;2008.6;;;;;;;;;;;;;207;;;;;;;;
2108.0;2008.6;;;;;;;;;;;;;605;;;;;;;;
2108.0;2009.3;;;;-0.16907121;1.061886;0.004821778;;;;;;;;;;;;;;;
2108.0;2009.3;;;;-0.1681328;1.1164895;0.0064468393;;;;;;;;;;;;;;;
2108.0;2009.3;;;;-0.16790392;1.1764413;0.008472444;;;;;;;;;;;;;;;
2108.0;2009.3;;;;-0.1696663;1.2408601;0.011665345;;;;;;;;;;;;;;;
2108.0;2009.3;;;;-0.17235567;1.3098565;0.0152015705;;;;;;;;;;;;;;;
2108.0;2015.3;;;;;;;;;;5.7908874;38.289288;-70.34135;;;;;;;;;
2108.0;2015.3;;;;;;;0.26630452;-1.0973846;0.1915952;;;;;;;;;;;;
2108.0;2015.3;;;;;;;;;;8.156072;32.42592;-71.550644;;;;;;;;;
2108.0;2015.3;;;;;;;0.26636556;-1.0841396;0.19257179;;;;;;;;;;;;
2109.0;2019.4;;;;-0.17668535;1.3823472;0.020702364;;;;;;;;;;;;;;;
2109.0;2019.4;;;;-0.18431856;1.46196;0.029384617;;;;;;;;;;;;;;;
2109.0;2019.4;;;;-0.19526675;1.5446818;0.034969334;;;;;;;;;;;;;;;
2109.0;2019.4;;;;-0.2036095;1.633137;0.040004734;;;;;;;;;;;;;;;
2109.0;2019.4;;;;-0.21132281;1.7254908;0.046939857;;;;;;;;;;;;;;;
2109.0;2022.7;;;;;;;;;;;;;;;;;4.8295546;101.42063;-114.70382;;1910.8
2109.0;2022.7;;;;;;;;;;;;;;0.7190771;0.4170049;0.06414991;;;;;1910.8
2109.0;2022.7;;;;;;;;;;;;;;;;;4.737999;102.839745;-121.631516;;1910.8
2109.0;2022.7;;;;;;;;;;;;;;0.81283;0.31171605;0.08899198;;;;;1910.8
2109.0;2022.7;;;;;;;;;;;;;;;;;4.4976654;101.63426;-124.68337;;1920.5
2109.0;2022.7;;;;;;;;;;;;;;0.910123;0.19879757;0.04382458;;;;;1920.5
2109.0;2022.7;;;;;;;;;;;;;;;;;5.630665;98.586235;-124.988556;;1920.5
2109.0;2022.7;;;;;;;;;;;;;;0.97885066;0.17621388;-0.08972442;;;;;1920.5
2109.0;2022.7;;;;;;;;;;;;;;;;;5.3140354;93.94742;-124.988556;;1929.9
2109.0;2022.7;;;;;;;;;;;;;;1.0427564;0.13892026;-0.21491134;;;;;1929.9
2109.0;2022.7;;;;;;;;;;;;;;;;;3.4257026;88.08405;-124.988556;;1929.9
2109.0;2022.7;;;;;;;;;;;;;;1.1103244;0.13873714;-0.310007;;;;;1929.9
2110.0;2023.5;;;;;;;;;;;;;;;;;1.3428144;79.88601;-124.988556;;1939.6
2110.0;2023.5;;;;;;;;;;;;;;1.2061526;0.17603077;-0.40455335;;;;;1939.6
2110.0;2023.5;;;;;;;;;;;;;;;;;-1.3351848;70.33372;-124.988556;;1939.6
2110.0;2023.5;;;;;;;;;;;;;;1.3326212;0.24695578;-0.5170446;;;;;1939.6
2110.0;2023.5;;;;;;;;;;;;;;;;;-3.5859249;59.64843;-124.988556;;1949.3
2110.0;2023.5;;;;;;;;;;;;;;1.5197607;0.25910214;-0.6174505;;;;;1949.3
2110.0;2023.5;;;;;;;;;;;;;;;;;-1.8463699;49.36369;-124.988556;;1949.3
2110.0;2023.5;;;;;;;;;;;;;;1.7104404;0.2866909;-0.741905;;;;;1949.3
2110.0;2023.5;;;;;;;;;;;;;;;;;0.5760369;42.70684;-124.988556;;1958.9
2110.0;2023.5;;;;;;;;;;;;;;1.9299295;0.34943694;-0.92458874;;;;;1958.9
2110.0;2023.5;;;;;;;;;;;;;;;;;-0.21362957;43.351543;-124.988556;;1958.9
2110.0;2023.5;;;;;;;;;;;;;;1.9970702;0.21527757;-1.0182806;;;;;1958.9
2110.0;2023.0;262143;262143;14874;;;;;;;;;;;;;;;;;;
2110.0;2024.7;;;;;;;;;;10.696738;26.020844;-72.96976;;;;;;;;;
2110.0;2024.7;;;;;;;0.26416823;-1.0693686;0.18958098;;;;;;;;;;;;
2110.0;2024.7;;;;;;;;;;13.191626;19.36781;-74.50331;;;;;;;;;
2110.0;2024.7;;;;;;;0.26105532;-1.0533769;0.18585773;;;;;;;;;;;;
2110.0;2029.2;;;;-0.2196236;1.8244555;0.053474434;;;;;;;;;;;;;;;
2110.0;2029.2;;;;-0.2365227;1.9352725;0.05961228;;;;;;;;;;;;;;;
2110.0;2029.2;;;;-0.25577548;1.9999964;0.06539155;;;;;;;;;;;;;;;
2110.0;2029.2;;;;-0.27301028;1.9999964;0.07093049;;;;;;;;;;;;;;;
2110.0;2029.2;;;;-0.29080203;1.9999964;0.07457734;;;;;;;;;;;;;;;
2226.0;2034.4;;;;;;;;;;15.594958;13.317514;-75.89191;;;;;;;;;
2226.0;2034.4;;;;;;;0.25476852;-1.0365306;0.18323313;;;;;;;;;;;;
2226.0;2034.4;;;;;;;;;;17.742699;7.614368;-77.0478;;;;;;;;;
2226.0;2034.4;;;;;;;0.24939726;-1.019013;0.18073061;;;;;;;;;;;;
2226.0;2039.2;;;;-0.31024173;1.9999964;0.08424378;;;;;;;;;;;;;;;
2226.0;2039.2;;;;-0.3289986;1.9999964;0.09637071;;;;;;;;;;;;;;;
2226.0;2039.2;;;;-0.35066226;1.9999964;0.10189821;;;;;;;;;;;;;;;
2226.0;2039.2;;;;-0.37292102;1.9999964;0.11093904;;;;;;;;;;;;;;;
2226.0;2039.2;;;;-0.39768606;1.9999964;0.12353517;;;;;;;;;;;;;;;
2226.0;2043.0;262143;262143;14870;;;;;;;;;;;;;;;;;;
2226.0;2043.9;;;;;;;;;;19.672993;2.1858883;-77.86035;;;;;;;;;
2226.0;2043.9;;;;;;;0.24488053;-1.0012512;0.17883846;;;;;;;;;;;;
2226.0;2043.9;;;;;;;;;;21.40492;-3.2082584;-78.44019;;;;;;;;;
2226.0;2043.9;;;;;;;0.23895992;-0.98409986;0.17548142;;;;;;;;;;;;
2226.0;2048.6;;;;;;;;;;;;;1317;;;;;;;;
2226.0;2048.6;;;;;;;;;;;;;827;;;;;;;;
2226.0;2048.6;;;;;;;;;;;;;-293;;;;;;;;
2226.0;2048.6;;;;;;;;;;;;;-1097;;;;;;;;
2226.0;2048.6;;;;;;;;;;;;;-1297;;;;;;;;
2226.0;2049.2;;;;-0.4250298;1.9999964;0.13766481;;;;;;;;;;;;;;;
2226.0;2049.2;;;;-0.4547997;1.9999964;0.15184022;;;;;;;;;;;;;;;
2226.0;2049.2;;;;-0.48760992;1.9999964;0.16508485;;;;;;;;;;;;;;;
2226.0;2049.2;;;;-0.52428824;1.9999964;0.18159868;;;;;;;;;;;;;;;
2226.0;2049.2;;;;-0.5645333;1.9999964;0.19968036;;;;;;;;;;;;;;;
2228.0;2052.9;;;;;;;;;;23.04529;-8.709219;-78.867455;;;;;;;;;
2228.0;2052.9;;;;;;;0.23261207;-0.9651784;0.17023225;;;;;;;;;;;;
2228.0;2052.9;;;;;;;;;;24.620808;-13.992737;-79.10397;;;;;;;;;
2228.0;2052.9;;;;;;;0.23139134;-0.94570756;0.16479996;;;;;;;;;;;;
2228.0;2058.7;;;;-0.608265;1.9999964;0.2171059;;;;;;;;;;;;;;;
2228.0;2058.7;;;;-0.66024405;1.9999964;0.22986606;;;;;;;;;;;;;;;
2228.0;2058.7;;;;-0.7064095;1.9999964;0.2483559;;;;;;;;;;;;;;;
2228.0;2058.7;;;;-0.7526971;1.9999964;0.26612857;;;;;;;;;;;;;;;
2228.0;2058.7;;;;-0.8020593;1.9999964;0.28224948;;;;;;;;;;;;;;;
2228.0;2062.4;;;;;;;;;;26.062807;-19.020662;-79.210785;;;;;;;;;
2228.0;2062.4;;;;;;;0.23078097;-0.9250771;0.16071047;;;;;;;;;;;;
2228.0;2062.4;;;;;;;;;;27.35603;-23.7434;-79.17645;;;;;;;;;
2228.0;2062.4;;;;;;;0.23340556;-0.90951264;0.15265359;;;;;;;;;;;;
2228.0;2062.6;262143;262143;14844;;;;;;;;;;;;;;;;;;
2228.0;2068.9;;;;-0.8525239;1.9999964;0.30028918;;;;;;;;;;;;;;;
2228.0;2068.9;;;;-0.90288174;1.9999964;0.31360248;;;;;;;;;;;;;;;
2228.0;2068.9;;;;-0.95476544;1.9999964;0.32475665;;;;;;;;;;;;;;;
2228.0;2068.9;;;;-1.0054437;1.9999964;0.3429871;;;;;;;;;;;;;;;
2228.0;2068.9;;;;-1.0544931;1.9999964;0.3658829;;;;;;;;;;;;;;;
2228.0;2072.1;;;;;;;;;;28.603474;-28.378399;-79.088715;;;;;;;;;
2228.0;2072.1;;;;;;;0.23169653;-0.8910794;0.14307077;;;;;;;;;;;;
2228.0;2072.1;;;;;;;;;;29.629658;-32.540363;-78.83312;;;;;;;;;
2228.0;2072.1;;;;;;;0.23126927;-0.87508774;0.13440351;;;;;;;;;;;;
2229.0;2079.0;;;;-1.1015054;1.9999964;0.38921744;;;;;;;;;;;;;;;
2229.0;2079.0;;;;-1.147236;1.9999964;0.41250616;;;;;;;;;;;;;;;
2229.0;2079.0;;;;-1.1912194;1.9999964;0.43855292;;;;;;;;;;;;;;;
2229.0;2079.0;;;;-1.2309457;1.9999964;0.46208578;;;;;;;;;;;;;;;
2229.0;2079.0;;;;-1.2670099;1.9637339;0.48364645;;;;;;;;;;;;;;;
2229.0;2081.7;;;;;;;;;;30.457472;-36.107212;-78.40205;;;;;;;;;
2229.0;2081.7;;;;;;;0.23120824;-0.86391795;0.12567522;;;;;;;;;;;;
2229.0;2081.7;;;;;;;;;;31.09073;-39.10565;-77.85272;;;;;;;;;
2229.0;2081.7;;;;;;;0.22815637;-0.85280925;0.11957152;;;;;;;;;;;;
2229.0;2082.6;;;;;;;;;;;;;;;;;-2.9030733;48.432877;-124.988556;;1968.6
2229.0;2082.6;;;;;;;;;;;;;;1.9925535;0.12494278;-0.981048;;;;;1968.6
2229.0;2082.6;;;;;;;;;;;;;;;;;-6.8742943;50.820946;-124.988556;;1968.6
2229.0;2082.6;;;;;;;;;;;;;;1.8887296;0.063539535;-0.9149449;;;;;1968.6
2229.0;2082.6;;;;;;;;;;;;;;;;;-10.887479;46.456802;-124.988556;;1978.2
2229.0;2082.6;;;;;;;;;;;;;;1.8781701;0.09253212;-0.9483932;;;;;1978.2
2229.0;2082.6;;;;;;;;;;;;;;;;;-14.797663;43.351543;-124.98474;;1978.2
2229.0;2082.6;;;;;;;;;;;;;;1.8503373;0.16144292;-0.9834895;;;;;1978.2
2229.0;2082.6;;;;;;;;;;;;;;;;;-16.777552;39.95254;-124.26374;;1987.9
2229.0;2082.6;;;;;;;;;;;;;;1.9278543;0.22559282;-1.025422;;;;;1987.9
2229.0;2082.6;;;;;;;;;;;;;;;;;-17.010254;39.143803;-122.375404;;1987.9
2229.0;2082.6;;;;;;;;;;;;;;1.9970702;0.38984343;-0.99942017;;;;;1987.9
2230.0;2083.4;;;;;;;;;;;;;;;;;-13.882107;48.34895;-119.59441;;1997.4
2230.0;2083.4;;;;;;;;;;;;;;1.968688;0.527665;-0.77047026;;;;;1997.4
2230.0;2083.4;;;;;;;;;;;;;;;;;-9.735405;39.00647;-117.01941;;1997.4
2230.0;2083.4;;;;;;;;;;;;;;1.6757103;0.69392985;-0.5014191;;;;;1997.4
2230.0;2083.4;;;;;;;;;;;;;;;;;5.2072206;16.365551;-114.94797;;2007.0
2230.0;2083.4;;;;;;;;;;;;;;1.9485458;0.8719748;-0.6910001;;;;;2007.0
2230.0;2083.4;;;;;;;;;;;;;;;;;1.1101108;15.808588;-118.69793;;2007.0
2230.0;2083.4;;;;;;;;;;;;;;1.9970702;0.9389325;-0.70625937;;;;;2007.0
2230.0;2083.4;;;;;;;;;;;;;;;;;-2.3728142;23.113956;-121.601;;2016.7
2230.0;2083.4;;;;;;;;;;;;;;1.9602649;0.68550676;-0.5953551;;;;;2016.7
2230.0;2083.4;;;;;;;;;;;;;;;;;-0.7705924;22.370068;-123.12311;;2016.7
2230.0;2083.4;;;;;;;;;;;;;;1.8853115;0.40577412;-0.5316324;;;;;2016.7
2230.0;2082.8;262143;262143;14839;;;;;;;;;;;;;;;;;;
2230.0;2088.4;;;;;;;;;;;;;-1169;;;;;;;;
2230.0;2088.4;;;;;;;;;;;;;-1227;;;;;;;;
2230.0;2088.4;;;;;;;;;;;;;-1582;;;;;;;;
2230.0;2088.4;;;;;;;;;;;;;-1989;;;;;;;;
2230.0;2088.4;;;;;;;;;;;;;-2592;;;;;;;;
2230.0;2088.9;;;;-1.3015252;1.8635027;0.5158501;;;;;;;;;;;;;;;
2230.0;2088.9;;;;-1.3513337;1.7644312;0.5451165;;;;;;;;;;;;;;;
2230.0;2088.9;;;;-1.3943902;1.6700022;0.58206946;;;;;;;;;;;;;;;
2230.0;2088.9;;;;-1.4202462;1.5806391;0.6085778;;;;;;;;;;;;;;;
2230.0;2088.9;;;;-1.4426423;1.4929773;0.61817557;;;;;;;;;;;;;;;
2234.0;2091.2;;;;;;;;;;31.617176;-41.642506;-77.12791;;;;;;;;;
2234.0;2091.2;;;;;;;0.22461623;-0.8437147;0.11236915;;;;;;;;;;;;
2234.0;2091.2;;;;;;;;;;32.15888;-43.62621;-76.3268;;;;;;;;;
2234.0;2091.2;;;;;;;0.21735282;-0.83816034;0.1032136;;;;;;;;;;;;
2234.0;2097.9;;;;;;;;;;;;;;;;;-2.45674;20.138401;-124.68337;;2026.4
2234.0;2097.9;;;;;;;;;;;;;;1.7331462;0.28644672;-0.37141025;;;;;2026.4
2234.0;2097.9;;;;;;;;;;;;;;;;;-4.276406;17.101809;-121.623886;;2026.4
2234.0;2097.9;;;;;;;;;;;;;;1.5737785;0.23944822;-0.27008882;;;;;2026.4
2234.0;2097.9;;;;;;;;;;;;;;;;;-4.623554;14.912107;-115.35997;;2036.0
2234.0;2097.9;;;;;;;;;;;;;;1.424421;0.14618365;-0.2379223;;;;;2036.0
2234.0;2097.9;;;;;;;;;;;;;;;;;-5.512406;14.145329;-108.6459;;2036.0
2234.0;2097.9;;;;;;;;;;;;;;1.2638936;0.18024231;-0.105166785;;;;;2036.0
2234.0;2097.9;;;;;;;;;;;;;;;;;-5.2072206;10.711997;-98.307755;;2045.6
2234.0;2097.9;;;;;;;;;;;;;;1.1835078;0.18970306;-0.046449173;;;;;2045.6
2234.0;2097.9;;;;;;;;;;;;;;;;;-3.6584065;10.109256;-87.59957;;2045.6
2234.0;2097.9;;;;;;;;;;;;;;1.0276192;0.29621264;0.01861629;;;;;2045.6
2234.0;2098.8;;;;-1.4574548;1.3968736;0.5925599;;;;;;;;;;;;;;;
2234.0;2098.8;;;;-1.4597017;1.2989961;0.55948645;;;;;;;;;;;;;;;
2234.0;2098.8;;;;-1.4352571;1.2043573;0.5213662;;;;;;;;;;;;;;;
2234.0;2098.8;;;;-1.3844873;1.1188203;0.49704748;;;;;;;;;;;;;;;
2234.0;2098.8;;;;-1.3174554;1.047558;0.4987412;;;;;;;;;;;;;;;
2234.0;2100.6;;;;;;;;;;32.59377;-45.48784;-75.50279;;;;;;;;;
2234.0;2100.6;;;;;;;0.21814631;-0.8340098;0.09454634;;;;;;;;;;;;
2234.0;2100.6;;;;;;;;;;32.98288;-47.227394;-74.65209;;;;;;;;;
2234.0;2100.6;;;;;;;0.21314128;-0.82863855;0.08630635;;;;;;;;;;;;
2237.0;2102.8;262143;262143;14851;;;;;;;;;;;;;;;;;;
2237.0;2108.8;;;;-1.2432672;0.994465;0.511036;;;;;;;;;;;;;;;
2237.0;2108.8;;;;-1.164589;0.95780957;0.5248795;;;;;;;;;;;;;;;
2237.0;2108.8;;;;-1.079548;0.9346086;0.5407601;;;;;;;;;;;;;;;
2237.0;2108.8;;;;-0.9957925;0.9210397;0.54970175;;;;;;;;;;;;;;;
2237.0;2108.8;;;;-0.91345227;0.91474545;0.5549393;;;;;;;;;;;;;;;
2237.0;2110.1;;;;;;;;;;33.238472;-48.986023;-73.9082;;;;;;;;;
2237.0;2110.1;;;;;;;0.21283609;-0.8247932;0.07904294;;;;;;;;;;;;
2237.0;2110.1;;;;;;;;;;33.459732;-50.64165;-73.164314;;;;;;;;;
2237.0;2110.1;;;;;;;0.21002838;-0.82039857;0.07104709;;;;;;;;;;;;
2237.0;2118.9;;;;-0.825966;0.9187509;0.5648957;;;;;;;;;;;;;;;
2237.0;2118.9;;;;-0.73510367;0.93869793;0.58097464;;;;;;;;;;;;;;;
2237.0;2118.9;;;;-0.6743508;0.960991;0.57576376;;;;;;;;;;;;;;;
2237.0;2118.9;;;;-0.6363564;0.97504437;0.5525666;;;;;;;;;;;;;;;
2237.0;2118.9;;;;-0.6077538;0.9861375;0.5252648;;;;;;;;;;;;;;;
2237.0;2119.7;;;;;;;;;;33.665733;-52.182835;-72.57683;;;;;;;;;
2237.0;2119.7;;;;;;;0.2106998;-0.8153325;0.06323435;;;;;;;;;;;;
2237.0;2119.7;;;;;;;;;;33.841213;-53.624836;-72.18009;;;;;;;;;
2237.0;2119.7;;;;;;;0.20984527;-0.8092898;0.055604726;;;;;;;;;;;;
2237.0;2122.9;262143;262143;14840;;;;;;;;;;;;;;;;;;
2237.0;2128.6;;;;;;;;;;;;;-3729;;;;;;;;
2237.0;2128.6;;;;;;;;;;;;;-4976;;;;;;;;
2237.0;2128.6;;;;;;;;;;;;;-5648;;;;;;;;
2237.0;2128.6;;;;;;;;;;;;;-5578;;;;;;;;
2237.0;2128.6;;;;;;;;;;;;;-5282;;;;;;;;
2241.0;2129.0;;;;-0.5768624;0.99863446;0.5090409;;;;;;;;;;;;;;;
2241.0;2129.0;;;;-0.5471688;1.0186654;0.51194006;;;;;;;;;;;;;;;
2241.0;2129.0;;;;-0.5119744;1.0439454;0.5240937;;;;;;;;;;;;;;;
2241.0;2129.0;;;;-0.449421;1.0674363;0.51253897;;;;;;;;;;;;;;;
2241.0;2129.0;;;;-0.37827688;1.0936929;0.4849549;;;;;;;;;;;;;;;
2241.0;2129.3;;;;;;;;;;34.146397;-54.96002;-71.65746;;;;;;;;;
2241.0;2129.3;;;;;;;0.2113712;-0.80538344;0.049501024;;;;;;;;;;;;
2241.0;2129.3;;;;;;;;;;34.417248;-56.024353;-71.05853;;;;;;;;;
2241.0;2129.3;;;;;;;0.21491134;-0.8020875;0.040833768;;;;;;;;;;;;
2241.0;2139.0;;;;;;;;;;34.52025;-56.81402;-70.41764;;;;;;;;;
2241.0;2139.0;;;;;;;0.21839045;-0.79732656;0.034302805;;;;;;;;;;;;
2241.0;2139.0;;;;;;;;;;34.60417;-57.065796;-69.63179;;;;;;;;;
2241.0;2139.0;;;;;;;0.22333445;-0.7967162;0.029725028;;;;;;;;;;;;
2241.0;2139.1;;;;-0.3163109;1.1184884;0.47557837;;;;;;;;;;;;;;;
2241.0;2139.1;;;;-0.26142505;1.1359483;0.46258932;;;;;;;;;;;;;;;
2241.0;2139.1;;;;-0.21891406;1.1521226;0.44312292;;;;;;;;;;;;;;;
2241.0;2139.1;;;;-0.18554308;1.1647836;0.42828757;;;;;;;;;;;;;;;
2241.0;2139.1;;;;-0.15771486;1.1726915;0.4188996;;;;;;;;;;;;;;;
2242.0;2142.8;;;;;;;;;;;;;;;;;-4.055147;6.55385;-76.41072;;2055.3
2242.0;2142.8;;;;;;;;;;;;;;0.9848323;0.42982268;0.06317332;;;;;2055.3
2242.0;2142.8;;;;;;;;;;;;;;;;;-11.223182;1.8730735;-65.13413;;2055.3
2242.0;2142.8;;;;;;;;;;;;;;0.897;0.46223333;0.13934751;;;;;2055.3
2242.0;2142.8;;;;;;;;;;;;;;;;;-18.799402;-2.1858883;-53.91858;;2065.0
2242.0;2142.8;;;;;;;;;;;;;;0.84249395;0.4771264;0.18329416;;;;;2065.0
2242.0;2142.8;;;;;;;;;;;;;;;;;-25.387585;-5.0241094;-42.748802;;2065.0
2242.0;2142.8;;;;;;;;;;;;;;0.8055055;0.44447157;0.1986755;;;;;2065.0
2242.0;2142.8;;;;;;;;;;;;;;;;;-30.648212;-6.2906275;-32.99814;;2074.7
2242.0;2142.8;;;;;;;;;;;;;;0.7522202;0.3838618;0.19220558;;;;;2074.7
2242.0;2142.8;;;;;;;;;;;;;;;;;-33.29188;-8.0835905;-24.697105;;2074.7
2242.0;2142.8;;;;;;;;;;;;;;0.7213965;0.3255104;0.1678518;;;;;2074.7
2242.0;2143.1;262143;262143;14836;;;;;;;;;;;;;;;;;;
2242.0;2148.4;;;;;;;;;;34.669025;-56.8865;-68.91842;;;;;;;;;
2242.0;2148.4;;;;;;;0.22534868;-0.7968993;0.025269326;;;;;;;;;;;;
2242.0;2148.4;;;;;;;;;;34.74151;-56.566055;-68.163086;;;;;;;;;
2242.0;2148.4;;;;;;;0.22888882;-0.8042238;0.022156438;;;;;;;;;;;;
2242.0;2149.1;;;;-0.1384163;1.1731454;0.4005738;;;;;;;;;;;;;;;
2242.0;2149.1;;;;-0.12484361;1.1649858;0.379448;;;;;;;;;;;;;;;
2242.0;2149.1;;;;-0.12677003;1.1512834;0.36407474;;;;;;;;;;;;;;;
2242.0;2149.1;;;;-0.14226915;1.1360055;0.36648563;;;;;;;;;;;;;;;
2242.0;2149.1;;;;-0.15934373;1.1189882;0.3572655;;;;;;;;;;;;;;;
2244.0;2157.9;;;;;;;;;;;;;;;;;-34.920803;-10.418256;-17.971586;;2084.3
2244.0;2157.9;;;;;;;;;;;;;;0.7282327;0.30756554;0.14062929;;;;;2084.3
2244.0;2157.9;;;;;;;;;;;;;;;;;-36.172062;-12.691885;-11.757256;;2084.3
2244.0;2157.9;;;;;;;;;;;;;;0.7356182;0.2971282;0.11633656;;;;;2084.3
2244.0;2157.9;;;;;;;;;;;;;;;;;-37.53777;-14.358959;-5.9778132;;2094.0
2244.0;2157.9;;;;;;;;;;;;;;0.7577746;0.29242834;0.109073155;;;;;2094.0
2244.0;2157.9;;;;;;;;;;;;;;;;;-39.548172;-14.927366;-0.43870357;;2094.0
2244.0;2157.9;;;;;;;;;;;;;;0.78597367;0.28467667;0.13159582;;;;;2094.0
2244.0;2157.9;;;;;;;;;;;;;;;;;-41.69973;-15.263069;4.7074804;;2103.6
2244.0;2157.9;;;;;;;;;;;;;;0.83352154;0.27246925;0.14801477;;;;;2103.6
2244.0;2157.9;;;;;;;;;;;;;;;;;-42.39021;-14.9616995;10.307627;;2103.6
2244.0;2157.9;;;;;;;;;;;;;;0.8746605;0.22486039;0.15393536;;;;;2103.6
2244.0;2157.8;;;;;;;;;;34.73388;-55.860317;-67.31239;;;;;;;;;
2244.0;2157.8;;;;;;;0.23419905;-0.80880153;0.019348735;;;;;;;;;;;;
2244.0;2157.8;;;;;;;;;;34.760582;-54.918056;-66.35869;;;;;;;;;
2244.0;2157.8;;;;;;;0.23572497;-0.81789607;0.01678518;;;;;;;;;;;;
2244.0;2159.0;;;;-0.17515184;1.0989038;0.3335648;;;;;;;;;;;;;;;
2244.0;2159.0;;;;-0.19280246;1.0783426;0.3026276;;;;;;;;;;;;;;;
2244.0;2159.0;;;;-0.21055606;1.0580903;0.2779732;;;;;;;;;;;;;;;
2244.0;2159.0;;;;-0.22432712;1.0413247;0.26326755;;;;;;;;;;;;;;;
2244.0;2159.0;;;;-0.2369118;1.0260507;0.24961475;;;;;;;;;;;;;;;
2244.0;2163.1;262143;262143;14829;;;;;;;;;;;;;;;;;;
2286.0;2167.5;;;;;;;;;;34.863583;-53.57143;-65.45076;;;;;;;;;
2286.0;2167.5;;;;;;;0.23926511;-0.8294321;0.013733329;;;;;;;;;;;;
2286.0;2167.5;;;;;;;;;;35.05432;-52.13706;-64.70687;;;;;;;;;
2286.0;2167.5;;;;;;;0.23993652;-0.8423719;0.012268441;;;;;;;;;;;;
2286.0;2168.6;;;;;;;;;;;;;-5384;;;;;;;;
2286.0;2168.6;;;;;;;;;;;;;-5591;;;;;;;;
2286.0;2168.6;;;;;;;;;;;;;-5339;;;;;;;;
2286.0;2168.6;;;;;;;;;;;;;-4769;;;;;;;;
2286.0;2168.6;;;;;;;;;;;;;-4263;;;;;;;;
2286.0;2169.0;;;;-0.2480698;1.0167161;0.23863605;;;;;;;;;;;;;;;
2286.0;2169.0;;;;-0.25498965;1.0087777;0.22371677;;;;;;;;;;;;;;;
2286.0;2169.0;;;;-0.258091;1.0008775;0.2057381;;;;;;;;;;;;;;;
2286.0;2169.0;;;;-0.25945285;0.9939233;0.18812183;;;;;;;;;;;;;;;
2286.0;2169.0;;;;-0.25911334;0.98635113;0.17464449;;;;;;;;;;;;;;;
2286.0;2176.5;;;;;;;;;;35.271767;-50.58824;-63.875244;;;;;;;;;
2286.0;2176.5;;;;;;;0.24341564;-0.85439616;0.013611255;;;;;;;;;;;;
2286.0;2176.5;;;;;;;;;;35.546432;-48.955505;-63.03598;;;;;;;;;
2286.0;2176.5;;;;;;;0.24292734;-0.8698996;0.014893033;;;;;;;;;;;;
2286.0;2178.7;;;;-0.25760654;0.9783708;0.16394426;;;;;;;;;;;;;;;
2286.0;2178.7;;;;-0.25737002;0.9713403;0.14729692;;;;;;;;;;;;;;;
2286.0;2178.7;;;;-0.25756076;0.96361935;0.1263466;;;;;;;;;;;;;;;
2286.0;2178.7;;;;-0.2606621;0.9558412;0.10309602;;;;;;;;;;;;;;;
2286.0;2178.7;;;;-0.26577762;0.94758236;0.07850266;;;;;;;;;;;;;;;
2286.0;2182.7;262143;262143;14842;;;;;;;;;;;;;;;;;;
2288.0;2186.0;;;;;;;;;;35.897396;-47.330395;-62.219612;;;;;;;;;
2288.0;2186.0;;;;;;;0.24146245;-0.88753927;0.018189032;;;;;;;;;;;;
2288.0;2186.0;;;;;;;;;;36.370434;-46.109653;-61.548203;;;;;;;;;
2288.0;2186.0;;;;;;;0.2418897;-0.90267646;0.021973327;;;;;;;;;;;;
2288.0;2188.6;;;;-0.2730179;0.9389268;0.059135444;;;;;;;;;;;;;;;
2288.0;2188.6;;;;-0.2719536;0.9342996;0.05105973;;;;;;;;;;;;;;;
2288.0;2188.6;;;;-0.26634982;0.9332963;0.033287052;;;;;;;;;;;;;;;
2288.0;2188.6;;;;-0.2720299;0.92054;0.008789063;;;;;;;;;;;;;;;
2288.0;2188.6;;;;-0.25853732;0.9160272;0.0057945256;;;;;;;;;;;;;;;
2288.0;2195.7;;;;;;;;;;36.801506;-44.90417;-60.869167;;;;;;;;;
2288.0;2195.7;;;;;;;0.24085207;-0.9206824;0.025513474;;;;;;;;;;;;
2288.0;2195.7;;;;;;;;;;37.472916;-43.988617;-60.40376;;;;;;;;;
2288.0;2195.7;;;;;;;0.23670156;-0.9340495;0.02764977;;;;;;;;;;;;
2288.0;2198.8;;;;-0.22466663;0.90592587;-0.028717045;;;;;;;;;;;;;;;
2288.0;2198.8;;;;-0.16759492;0.89398205;-0.063724525;;;;;;;;;;;;;;;
2288.0;2198.8;;;;-0.12646486;0.87977993;-0.08751679;;;;;;;;;;;;;;;
2288.0;2198.8;;;;-0.10581972;0.868538;-0.0701294;;;;;;;;;;;;;;;
2288.0;2198.8;;;;-0.10173418;0.8696252;-0.012256624;;;;;;;;;;;;;;;
2289.0;2202.6;;;;;;;;;;;;;;;;;-41.253395;-14.526811;15.800959;;2113.1
2289.0;2202.6;;;;;;;;;;;;;;0.9337443;0.15393536;0.14612262;;;;;2113.1
2289.0;2202.6;;;;;;;;;;;;;;;;;-39.098022;-13.10007;20.596178;;2113.1
2289.0;2202.6;;;;;;;;;;;;;;0.96334726;0.098025456;0.13733329;;;;;2113.1
2289.0;2202.6;;;;;;;;;;;;;;;;;-36.641285;-12.455366;25.517288;;2122.8
2289.0;2202.6;;;;;;;;;;;;;;0.9758599;0.010071108;0.098941006;;;;;2122.8
2289.0;2202.6;;;;;;;;;;;;;;;;;-31.064028;-13.031404;29.202398;;2122.8
2289.0;2202.6;;;;;;;;;;;;;;0.99905396;-0.0933256;0.017334513;;;;;2122.8
2289.0;2202.6;;;;;;;;;;;;;;;;;-22.541733;-10.9408865;29.934843;;2132.4
2289.0;2202.6;;;;;;;;;;;;;;0.99880975;-0.1782281;-0.06164739;;;;;2132.4
2289.0;2202.6;;;;;;;;;;;;;;;;;-10.250404;-7.374035;29.8204;;2132.4
2289.0;2202.6;;;;;;;;;;;;;;0.9715262;-0.24951933;-0.12549211;;;;;2132.4
2289.0;2202.9;262143;262143;14842;;;;;;;;;;;;;;;;;;
2289.0;2205.2;;;;;;;;;;38.033695;-43.286694;-60.010834;;;;;;;;;
2289.0;2205.2;;;;;;;0.23071994;-0.9428999;0.03216651;;;;;;;;;;;;
2289.0;2205.2;;;;;;;;;;38.590656;-42.99295;-59.564503;;;;;;;;;
2289.0;2205.2;;;;;;;0.22730187;-0.94863737;0.037171546;;;;;;;;;;;;
2289.0;2208.5;;;;;;;;;;;;;-3744;;;;;;;;
2289.0;2208.5;;;;;;;;;;;;;-2810;;;;;;;;
2289.0;2208.5;;;;;;;;;;;;;-1308;;;;;;;;
2289.0;2208.5;;;;;;;;;;;;;602;;;;;;;;
2289.0;2208.5;;;;;;;;;;;;;2365;;;;;;;;
2290.0;2208.7;;;;-0.108821884;0.8778306;0.04924775;;;;;;;;;;;;;;;
2290.0;2208.7;;;;-0.12796022;0.886757;0.09327317;;;;;;;;;;;;;;;
2290.0;2208.7;;;;-0.14543535;0.89048016;0.100757614;;;;;;;;;;;;;;;
2290.0;2208.7;;;;-0.1553116;0.88970196;0.08316422;;;;;;;;;;;;;;;
2290.0;2208.7;;;;-0.15980913;0.888878;0.07674409;;;;;;;;;;;;;;;
2290.0;2214.8;;;;;;;;;;39.12091;-43.012024;-59.121983;;;;;;;;;
2290.0;2214.8;;;;;;;0.21942808;-0.95077366;0.04510636;;;;;;;;;;;;
2290.0;2214.8;;;;;;;;;;39.62447;-43.233284;-58.610798;;;;;;;;;
2290.0;2214.8;;;;;;;0.21216469;-0.95059055;0.051881466;;;;;;;;;;;;
2290.0;2218.8;;;;-0.15795518;0.8884698;0.0918541;;;;;;;;;;;;;;;
2290.0;2218.8;;;;-0.15369417;0.887272;0.11849977;;;;;;;;;;;;;;;
2290.0;2218.8;;;;-0.15704347;0.8841859;0.13978578;;;;;;;;;;;;;;;
2290.0;2218.8;;;;-0.16461183;0.8801843;0.15498354;;;;;;;;;;;;;;;
2290.0;2218.8;;;;-0.1752472;0.87280667;0.16785051;;;;;;;;;;;;;;;
2290.0;2223.1;262143;262143;14849;;;;;;;;;;;;;;;;;;
2290.0;2224.4;;;;;;;;;;40.0708;-43.321026;-58.061466;;;;;;;;;
2290.0;2224.4;;;;;;;0.20722067;-0.94766074;0.057313763;;;;;;;;;;;;
2290.0;2224.4;;;;;;;;;;40.597248;-43.225655;-57.36717;;;;;;;;;
2290.0;2224.4;;;;;;;0.20471816;-0.94515824;0.0623188;;;;;;;;;;;;
2345.0;2228.8;;;;-0.18866351;0.86389554;0.17900087;;;;;;;;;;;;;;;
2345.0;2228.8;;;;-0.20626071;0.85331357;0.19094852;;;;;;;;;;;;;;;
2345.0;2228.8;;;;-0.22509769;0.8392831;0.20229343;;;;;;;;;;;;;;;
2345.0;2228.8;;;;-0.24749759;0.8304521;0.22681811;;;;;;;;;;;;;;;
2345.0;2228.8;;;;-0.27225116;0.81899655;0.23270038;;;;;;;;;;;;;;;
2345.0;2233.7;;;;;;;;;;40.997803;-42.87469;-56.516464;;;;;;;;;
2345.0;2233.7;;;;;;;0.2031312;-0.9409467;0.06524857;;;;;;;;;;;;
2345.0;2233.7;;;;;;;;;;41.405987;-42.67251;-55.68865;;;;;;;;;
2345.0;2233.7;;;;;;;0.20734276;-0.93856627;0.07104709;;;;;;;;;;;;
2345.0;2238.8;;;;-0.3053513;0.7986871;0.22540286;;;;;;;;;;;;;;;
2345.0;2238.8;;;;-0.33153918;0.7795106;0.22902682;;;;;;;;;;;;;;;
2345.0;2238.8;;;;-0.3482323;0.759884;0.23455814;;;;;;;;;;;;;;;
2345.0;2238.8;;;;-0.35370257;0.7412873;0.2444649;;;;;;;;;;;;;;;
2345.0;2238.8;;;;-0.3553429;0.7251511;0.2515793;;;;;;;;;;;;;;;
2345.0;2243.4;;;;;;;;;;41.77984;-42.497025;-54.65484;;;;;;;;;
2345.0;2243.4;;;;;;;0.21002838;-0.9355144;0.073427536;;;;;;;;;;;;
2345.0;2243.4;;;;;;;;;;42.245247;-42.237617;-53.605762;;;;;;;;;
2345.0;2243.4;;;;;;;0.21314128;-0.9340495;0.07715079;;;;;;;;;;;;
2345.0;2243.1;262143;262143;14848;;;;;;;;;;;;;;;;;;
2345.0;2248.7;;;;;;;;;;;;;3555;;;;;;;;
2345.0;2248.7;;;;;;;;;;;;;4399;;;;;;;;
2345.0;2248.7;;;;;;;;;;;;;5097;;;;;;;;
2345.0;2248.7;;;;;;;;;;;;;5649;;;;;;;;
2345.0;2248.7;;;;;;;;;;;;;5993;;;;;;;;
2347.0;2248.9;;;;-0.35709003;0.710846;0.25603488;;;;;;;;;;;;;;;
2347.0;2248.9;;;;-0.3606873;0.697403;0.25709537;;;;;;;;;;;;;;;
2347.0;2248.9;;;;-0.3641396;0.68562704;0.25804904;;;;;;;;;;;;;;;
2347.0;2248.9;;;;-0.36467746;0.66328436;0.23067096;;;;;;;;;;;;;;;
2347.0;2248.9;;;;-0.3671265;0.6515046;0.25389484;;;;;;;;;;;;;;;
2347.0;2253.0;;;;;;;;;;42.622913;-41.928616;-52.44606;;;;;;;;;
2347.0;2253.0;;;;;;;0.21778008;-0.93343914;0.08337657;;;;;;;;;;;;
2347.0;2253.0;;;;;;;;;;42.996765;-41.52806;-51.229134;;;;;;;;;
2347.0;2253.0;;;;;;;0.21790215;-0.9325846;0.08844264;;;;;;;;;;;;
2347.0;2259.0;;;;-0.34566882;0.65381247;0.27512363;;;;;;;;;;;;;;;
2347.0;2259.0;;;;-0.3388405;0.64682776;0.26902774;;;;;;;;;;;;;;;
2347.0;2259.0;;;;-0.33981326;0.64088064;0.2574425;;;;;;;;;;;;;;;
2347.0;2259.0;;;;-0.34100726;0.6364899;0.25151065;;;;;;;;;;;;;;;
2347.0;2259.0;;;;-0.34701923;0.6286774;0.24650577;;;;;;;;;;;;;;;
2347.0;2262.6;;;;;;;;;;43.362988;-40.997803;-49.909206;;;;;;;;;
2347.0;2262.6;;;;;;;0.2197943;-0.9353313;0.09424116;;;;;;;;;;;;
2347.0;2262.6;;;;;;;;;;43.752098;-40.452282;-48.55495;;;;;;;;;
2347.0;2262.6;;;;;;;0.21948913;-0.9360637;0.099185154;;;;;;;;;;;;
2349.0;2263.3;;;;;;;;;;;;;;;;;3.8224432;-3.8415174;29.103214;;2142.0
2349.0;2263.3;;;;;;;;;;;;;;0.9153722;-0.2862636;-0.14984588;;;;;2142.0
2349.0;2263.3;;;;;;;;;;;;;;;;;17.09418;-0.9193701;28.420362;;2142.0
2349.0;2263.3;;;;;;;;;;;;;;0.8512223;-0.27240822;-0.1445967;;;;;2142.0
2349.0;2263.3;;;;;;;;;;;;;;;;;27.954954;0.7209998;28.576769;;2151.7
2349.0;2263.3;;;;;;;;;;;;;;0.8106937;-0.23786126;-0.1208533;;;;;2151.7
2349.0;2263.3;;;;;;;;;;;;;;;;;36.278877;1.4419996;29.595325;;2151.7
2349.0;2263.3;;;;;;;;;;;;;;0.7853633;-0.23206274;-0.09747612;;;;;2151.7
2349.0;2263.3;;;;;;;;;;;;;;;;;43.874172;2.071444;31.056398;;2161.3
2349.0;2263.3;;;;;;;;;;;;;;0.76827294;-0.24860378;-0.082583085;;;;;2161.3
2349.0;2263.3;;;;;;;;;;;;;;;;;51.446575;2.7428513;32.391582;;2161.3
2349.0;2263.3;;;;;;;;;;;;;;0.7391583;-0.26715904;-0.07238991;;;;;2161.3
2349.0;2264.2;;;;;;;;;;;;;;;;;59.37376;2.5444808;34.234135;;2170.7
2349.0;2264.2;;;;;;;;;;;;;;0.71285135;-0.2804651;-0.0712302;;;;;2170.7
2349.0;2264.2;;;;;;;;;;;;;;;;;67.21702;1.2855922;36.99225;;2170.7
2349.0;2264.2;;;;;;;;;;;;;;0.6772668;-0.29169592;-0.06457717;;;;;2170.7
2349.0;2264.2;;;;;;;;;;;;;;;;;74.35835;-1.0719626;39.937283;;2180.3
2349.0;2264.2;;;;;;;;;;;;;;0.6438185;-0.30726036;-0.06579791;;;;;2180.3
2349.0;2264.2;;;;;;;;;;;;;;;;;80.90075;-3.7423322;43.630024;;2180.3
2349.0;2264.2;;;;;;;;;;;;;;0.6081118;-0.31940672;-0.051942505;;;;;2180.3
2349.0;2264.2;;;;;;;;;;;;;;;;;85.726494;-5.53148;47.32658;;2190.0
2349.0;2264.2;;;;;;;;;;;;;;0.5746025;-0.32502213;-0.033509325;;;;;2190.0
2349.0;2264.2;;;;;;;;;;;;;;;;;89.31623;-5.874813;50.86291;;2190.0
2349.0;2264.2;;;;;;;;;;;;;;0.5348064;-0.32715842;-0.013367107;;;;;2190.0
2351.0;2263.3;262143;262143;14845;;;;;;;;;;;;;;;;;;
2351.0;2269.0;;;;-0.35044864;0.6266518;0.25187305;;;;;;;;;;;;;;;
2351.0;2269.0;;;;-0.4170342;0.6309052;0.26741794;;;;;;;;;;;;;;;
2351.0;2269.0;;;;-0.53337866;0.6695176;0.32307437;;;;;;;;;;;;;;;
2351.0;2269.0;;;;-0.6285134;0.6893807;0.32831958;;;;;;;;;;;;;;;
2351.0;2269.0;;;;-0.6129418;0.65936667;0.27362064;;;;;;;;;;;;;;;
2351.0;2270.4;;;;;;;;;;;;;;;;;92.879265;-7.065035;54.52132;;2199.6
2351.0;2270.4;;;;;;;;;;;;;;0.47639394;-0.33136997;-0.007141331;;;;;2199.6
2351.0;2270.4;;;;;;;;;;;;;;;;;94.89731;-8.003479;57.531204;;2199.6
2351.0;2270.4;;;;;;;;;;;;;;0.43800166;-0.2816248;-0.003173925;;;;;2199.6
