patientId;holterMac;flexMac;;;;;;;;;;;;;;;;;;;;
;CA:F3:0B:1E:33:78;D3:4A:5C:52:80:78;;;;;;;;;;;;;;;;;;;;
receivedTimeStamp;timeStamp;red;ir;green;adxl_accX;adxl_accY;adxl_accZ;lsm_accelX;lsm_accelY;lsm_accelZ;lsm_gyroX;lsm_gyroY;lsm_gyroZ;ecg;flex_lsm_accelX;flex_lsm_accelY;flex_lsm_accelZ;flex_lsm_gyroX;flex_lsm_gyroY;flex_lsm_gyroZ;flex_cmd;flexTimeStamp
296.0;215.4;;;;;;;;;;;;;;;;;;;;17;0.1
296.0;215.4;;;;;;;;;;;;;;;;;13.576922;-0.18692587;1.4610736;;127.4
296.0;215.4;;;;;;;;;;;;;;0.94967496;0.30176702;-0.30951872;;;;;127.4
296.0;215.4;;;;;;;;;;;;;;;;;-4.642628;-18.51329;-8.011109;;127.4
296.0;215.4;;;;;;;;;;;;;;0.94283885;0.32807398;-0.31562242;;;;;127.4
296.0;215.4;;;;;;;;;;;;;;;;;-62.791832;-84.69268;-64.83658;;136.9
296.0;215.4;;;;;;;;;;;;;;0.8910794;0.3472396;-0.3061617;;;;;136.9
296.0;215.4;;;;;;;;;;;;;;;;;-121.94433;-124.988556;-121.71926;;136.9
296.0;215.4;;;;;;;;;;;;;;0.85580003;0.36988434;-0.30994597;;;;;136.9
359.0;216.2;;;;;;;;;;;;;;;;;-51.587727;-124.988556;-95.87009;;146.5
359.0;216.2;;;;;;;;;;;;;;0.8481704;0.4005249;-0.32129887;;;;;146.5
359.0;216.2;;;;;;;;;;;;;;;;;23.728142;-124.988556;-80.488754;;146.5
359.0;216.2;;;;;;;;;;;;;;0.85024565;0.43836787;-0.3364971;;;;;146.5
359.0;216.2;;;;;;;;;;;;;;;;;18.429365;-101.99286;-92.2689;;156.1
359.0;216.2;;;;;;;;;;;;;;0.85439616;0.4712058;-0.34290597;;;;;156.1
359.0;216.2;;;;;;;;;;;;;;;;;6.469924;-25.856808;-83.27738;;156.1
359.0;216.2;;;;;;;;;;;;;;0.8647725;0.4923246;-0.36640522;;;;;156.1
359.0;216.2;;;;;;;;;;;;;;;;;0.19455549;-19.795067;-91.61656;;165.8
359.0;216.2;;;;;;;;;;;;;;0.8789941;0.52162236;-0.36152226;;;;;165.8
359.0;216.2;;;;;;;;;;;;;;;;;-4.4328136;-20.630512;-100.74923;;165.8
359.0;216.2;;;;;;;;;;;;;;0.89565724;0.54750204;-0.35401472;;;;;165.8
359.0;276.3;;;;;;;;;;;;;;;;;-8.037812;-20.672476;-108.20338;;175.5
359.0;276.3;;;;;;;;;;;;;;0.91091645;0.54414505;-0.3188574;;;;;175.5
359.0;276.3;;;;;;;;;;;;;;;;;-9.586627;-21.233253;-114.993744;;175.5
359.0;276.3;;;;;;;;;;;;;;0.92483294;0.5251625;-0.2713706;;;;;175.5
359.0;276.3;;;;;;;;;;;;;;;;;-10.105441;-18.620106;-121.04785;;185.1
359.0;276.3;;;;;;;;;;;;;;0.93813896;0.5258339;-0.20636617;;;;;185.1
359.0;276.3;;;;;;;;;;;;;;;;;-7.2862945;-12.600329;-124.46593;;185.1
359.0;276.3;;;;;;;;;;;;;;0.9340495;0.51545763;-0.12610248;;;;;185.1
359.0;276.3;;;;;;;;;;;;;;;;;-2.994629;-7.1031833;-124.988556;;194.7
359.0;276.3;;;;;;;;;;;;;;0.94204533;0.47328106;-0.04235969;;;;;194.7
359.0;276.3;;;;;;;;;;;;;;;;;6.1799984;-3.238777;-124.988556;;194.7
359.0;276.3;;;;;;;;;;;;;;0.9609058;0.41889706;0.0038453322;;;;;194.7
418.0;277.1;;;;;;;;;;;;;;;;;18.288218;4.81048;-124.988556;;204.5
418.0;277.1;;;;;;;;;;;;;;0.9831843;0.36878568;0.06311228;;;;;204.5
418.0;277.1;;;;;;;;;;;;;;;;;29.389326;14.969329;-124.988556;;204.5
418.0;277.1;;;;;;;;;;;;;;1.0144353;0.3162328;0.1413007;;;;;204.5
418.0;277.1;;;;;;;;;;;;;;;;;36.194954;23.701437;-124.988556;;214.1
418.0;277.1;;;;;;;;;;;;;;1.0770593;0.24536882;0.21234779;;;;;214.1
418.0;277.1;;;;;;;;;;;;;;;;;37.400433;28.660696;-124.988556;;214.1
418.0;277.1;;;;;;;;;;;;;;1.1793573;0.1861629;0.2287057;;;;;214.1
418.0;277.1;;;;;;;;;;;;;;;;;36.931213;34.737694;-124.988556;;223.8
418.0;277.1;;;;;;;;;;;;;;1.3431196;0.15405744;0.23572497;;;;;223.8
418.0;277.1;;;;;;;;;;;;;;;;;40.261543;47.16254;-124.988556;;223.8
418.0;277.1;;;;;;;;;;;;;;1.5337383;0.12689596;0.27521592;;;;;223.8
418.0;335.6;;;;;;;;;;;;;;;;;45.14069;45.70528;-124.988556;;233.4
418.0;335.6;;;;;;;;;;;;;;1.7244788;0.052491836;0.1986755;;;;;233.4
418.0;335.6;;;;;;;;;;;;;;;;;47.37617;34.12351;-124.988556;;233.4
418.0;335.6;;;;;;;;;;;;;;1.9427472;-0.072328866;0.014038514;;;;;233.4
418.0;335.6;;;;;;;;;;;;;;;;;43.86273;44.331947;-124.64904;;243.1
418.0;335.6;;;;;;;;;;;;;;1.9970092;-0.26056704;0.003418073;;;;;243.1
418.0;335.6;;;;;;;;;;;;;;;;;35.454876;60.251167;-115.73382;;243.1
418.0;335.6;;;;;;;;;;;;;;1.9970092;-0.4794458;0.015930662;;;;;243.1
418.0;335.6;;;;;;;;;;;;;;;;;28.389843;62.452316;-97.89575;;252.6
418.0;335.6;;;;;;;;;;;;;;1.9956053;-0.74239326;-0.087343976;;;;;252.6
418.0;335.6;;;;;;;;;;;;;;;;;27.001251;57.603687;-99.10504;;252.6
418.0;335.6;;;;;;;;;;;;;;1.8145086;-0.93942076;-0.18439284;;;;;252.6
479.0;336.4;;;;;;;;;;;;;;;;;31.285286;42.27958;-115.009;;262.2
479.0;336.4;;;;;;;;;;;;;;1.5698111;-0.94662315;-0.22888882;;;;;262.2
479.0;336.4;;;;;;;;;;;;;;;;;29.28251;18.284403;-124.588;;262.2
479.0;336.4;;;;;;;;;;;;;;1.4883877;-0.7363506;-0.28992584;;;;;262.2
479.0;336.4;;;;;;;;;;;;;;;;;20.123142;0.13733329;-124.87029;;271.8
479.0;336.4;;;;;;;;;;;;;;1.4679403;-0.5467696;-0.31891844;;;;;271.8
479.0;336.4;;;;;;;;;;;;;;;;;16.384624;-6.851405;-124.568924;;271.8
479.0;336.4;;;;;;;;;;;;;;1.4018372;-0.47346416;-0.2573321;;;;;271.8
479.0;336.4;;;;;;;;;;;;;;;;;17.834253;-8.404035;-124.897;;281.5
479.0;336.4;;;;;;;;;;;;;;1.3230385;-0.34797204;-0.16565447;;;;;281.5
479.0;336.4;;;;;;;;;;;;;;;;;23.411512;-9.640035;-124.988556;;281.5
479.0;336.4;;;;;;;;;;;;;;1.2911772;-0.25086215;-0.06445509;;;;;281.5
479.0;396.0;;;;;;;;;;;;;;;;;38.65551;-11.98996;-124.98093;;291.2
479.0;396.0;;;;;;;;;;;;;;1.3171788;-0.10242012;0.03357036;;;;;291.2
479.0;396.0;;;;;;;;;;;;;;;;;51.747948;-15.938292;-124.988556;;291.2
479.0;396.0;;;;;;;;;;;;;;1.3626515;0.09320353;0.010498367;;;;;291.2
479.0;396.0;;;;;;;;;;;;;;;;;59.942165;-17.265846;-124.988556;;300.9
479.0;396.0;;;;;;;;;;;;;;1.3743095;0.20532854;-0.05920591;;;;;300.9
479.0;396.0;;;;;;;;;;;;;;;;;69.16638;-9.594256;-124.988556;;300.9
479.0;396.0;;;;;;;;;;;;;;1.330424;0.23212378;-0.06451613;;;;;300.9
479.0;396.0;;;;;;;;;;;;;;;;;77.46742;0.7858516;-124.95422;;310.6
479.0;396.0;;;;;;;;;;;;;;1.2638936;0.24488053;-0.006286813;;;;;310.6
479.0;396.0;;;;;;;;;;;;;;;;;81.81631;5.607776;-124.97711;;310.6
479.0;396.0;;;;;;;;;;;;;;1.1991333;0.3126316;0.012512589;;;;;310.6
540.0;396.7;;;;;;;;;;;;;;;;;76.85324;8.018739;-124.96948;;320.2
540.0;396.7;;;;;;;;;;;;;;1.1454207;0.39728996;-0.023621326;;;;;320.2
540.0;396.7;;;;;;;;;;;;;;;;;67.23991;7.0154424;-122.28004;;320.2
540.0;396.7;;;;;;;;;;;;;;1.131077;0.40595722;-0.057863094;;;;;320.2
540.0;396.7;;;;;;;;;;;;;;;;;63.65017;9.876553;-113.45256;;329.8
540.0;396.7;;;;;;;;;;;;;;1.0811487;0.35041353;-0.014160588;;;;;329.8
540.0;396.7;;;;;;;;;;;;;;;;;52.980133;12.1807;-107.11616;;329.8
540.0;396.7;;;;;;;;;;;;;;0.9969176;0.3345439;0.055360578;;;;;329.8
540.0;396.7;;;;;;;;;;;;;;;;;34.257027;6.6415906;-102.35908;;339.3
540.0;396.7;;;;;;;;;;;;;;0.9422895;0.34962004;0.11114841;;;;;339.3
540.0;396.7;;;;;;;;;;;;;;;;;15.503403;-6.241035;-94.6379;;339.3
540.0;396.7;;;;;;;;;;;;;;0.9178747;0.38013855;0.1356853;;;;;339.3
540.0;457.2;;;;;;;;;;;;;;;;;-2.422407;-19.722586;-85.72268;;349.0
540.0;457.2;;;;;;;;;;;;;;0.8924833;0.35120702;0.08832057;;;;;349.0
540.0;457.2;;;;;;;;;;;;;;;;;-13.061922;-20.29481;-80.71764;;349.0
540.0;457.2;;;;;;;;;;;;;;0.8532365;0.3073214;0.06286813;;;;;349.0
540.0;457.2;;;;;;;;;;;;;;;;;-21.439253;-14.5535145;-80.22553;;358.7
540.0;457.2;;;;;;;;;;;;;;0.8199103;0.3353984;0.0933256;;;;;358.7
540.0;457.2;;;;;;;;;;;;;;;;;-30.068361;-13.122959;-79.4969;;358.7
540.0;457.2;;;;;;;;;;;;;;0.8325449;0.328135;0.11011078;;;;;358.7
540.0;457.2;;;;;;;;;;;;;;;;;-37.003693;-14.770959;-75.06027;;368.2
540.0;457.2;;;;;;;;;;;;;;0.8281503;0.26862392;0.093935974;;;;;368.2
540.0;457.2;;;;;;;;;;;;;;;;;-45.533615;-16.312143;-73.54961;;368.2
540.0;457.2;;;;;;;;;;;;;;0.81514937;0.2400586;0.061586354;;;;;368.2
598.0;463.7;;;;;;;;;;;;;;;;;-53.13654;-17.460402;-71.57735;;377.9
598.0;463.7;;;;;;;;;;;;;;0.8034913;0.20349742;0.042542804;;;;;377.9
598.0;463.7;;;;;;;;;;;;;;;;;-60.758537;-16.529589;-69.48683;;377.9
598.0;463.7;;;;;;;;;;;;;;0.7970824;0.18146306;0.02948088;;;;;377.9
598.0;463.7;;;;;;;;;;;;;;;;;-68.88409;-13.515885;-66.94617;;387.6
598.0;463.7;;;;;;;;;;;;;;0.77700126;0.13892026;0.027893918;;;;;387.6
598.0;463.7;;;;;;;;;;;;;;;;;-75.96057;-9.52559;-64.554276;;387.6
598.0;463.7;;;;;;;;;;;;;;0.7477035;0.12079226;0.03869747;;;;;387.6
598.0;463.7;;;;;;;;;;;;;;;;;-80.34379;-7.0345163;-62.13187;;397.3
598.0;463.7;;;;;;;;;;;;;;0.7136448;0.08594012;0.03173925;;;;;397.3
598.0;463.7;;;;;;;;;;;;;;;;;-82.232124;-4.520554;-60.197758;;397.3
598.0;463.7;;;;;;;;;;;;;;0.67555773;0.07037568;0.022034364;;;;;397.3
598.0;516.6;;;;;;;;;;;;;;;;;-83.63979;-3.3379622;-57.43202;;406.8
598.0;516.6;;;;;;;;;;;;;;0.6358837;0.034058657;0.01739555;;;;;406.8
598.0;516.6;;;;;;;;;;;;;;;;;-83.73516;-4.203925;-54.23139;;406.8
598.0;516.6;;;;;;;;;;;;;;0.5979186;0.028809473;0.00921659;;;;;406.8
598.0;516.6;;;;;;;;;;;;;;;;;-81.68661;-4.9630723;-49.39421;;416.5
598.0;516.6;;;;;;;;;;;;;;0.56068605;-0.032532733;-0.00695822;;;;;416.5
598.0;516.6;;;;;;;;;;;;;;;;;-73.82427;-5.5238504;-48.463394;;416.5
598.0;516.6;;;;;;;;;;;;;;0.54396194;-0.053407393;-0.010986663;;;;;416.5
598.0;516.6;;;;;;;;;;;;;;;;;-69.48302;-4.955443;-47.124393;;426.1
598.0;516.6;;;;;;;;;;;;;;0.53382975;-0.05529954;-0.006714072;;;;;426.1
598.0;516.6;;;;;;;;;;;;;;;;;-69.34568;-2.967925;-41.974396;;426.1
598.0;516.6;;;;;;;;;;;;;;0.51039153;-0.08911405;-1.2207404E-4;;;;;426.1
661.0;517.3;;;;;;;;;;;;;;;;;-67.7282;0.1411481;-38.258766;;435.7
661.0;517.3;;;;;;;;;;;;;;0.48432875;-0.10773034;0.014038514;;;;;435.7
661.0;517.3;;;;;;;;;;;;;;;;;-63.695946;0.8163701;-35.44343;;435.7
661.0;517.3;;;;;;;;;;;;;;0.48371837;-0.09778131;0.020630512;;;;;435.7
661.0;517.3;;;;;;;;;;;;;;;;;-62.334057;0.24796289;-29.255806;;445.4
661.0;517.3;;;;;;;;;;;;;;0.49147007;-0.101931825;0.009155553;;;;;445.4
661.0;517.3;;;;;;;;;;;;;;;;;-61.63213;1.247444;-22.709585;;445.4
661.0;517.3;;;;;;;;;;;;;;0.4911649;-0.14117862;0.0075685903;;;;;445.4
661.0;517.3;;;;;;;;;;;;;;;;;-57.988983;3.0137029;-18.31492;;455.0
661.0;517.3;;;;;;;;;;;;;;0.5000763;-0.13696708;0.019409772;;;;;455.0
661.0;517.3;;;;;;;;;;;;;;;;;-55.536057;3.1128879;-13.462478;;455.0
661.0;517.3;;;;;;;;;;;;;;0.5113071;-0.116214484;0.015137181;;;;;455.0
661.0;531.6;;;;;;;;;;;;;;;;;-54.025394;2.4033327;-8.686331;;464.7
661.0;531.6;;;;;;;;;;;;;;0.5221717;-0.090151675;-0.0050050355;;;;;464.7
661.0;531.6;;;;;;;;;;;;;;;;;-51.854763;1.9875181;-2.193518;;464.7
661.0;531.6;;;;;;;;;;;;;;0.5332194;-0.106387526;-0.0220954;;;;;464.7
661.0;531.6;;;;;;;;;;;;;;;;;-48.066654;1.2970366;3.9483323;;474.2
661.0;531.6;;;;;;;;;;;;;;0.5543382;-0.09930723;-0.045594655;;;;;474.2
661.0;531.6;;;;;;;;;;;;;;;;;-43.3401;1.064333;9.632405;;474.2
661.0;531.6;;;;;;;;;;;;;;0.59035003;-0.08783227;-0.06445509;;;;;474.2
661.0;531.6;;;;;;;;;;;;;;;;;-38.15577;1.8463699;16.056551;;483.9
661.0;531.6;;;;;;;;;;;;;;0.62233347;-0.08038575;-0.08697775;;;;;483.9
661.0;531.6;;;;;;;;;;;;;;;;;-33.040104;5.493332;20.916624;;483.9
661.0;531.6;;;;;;;;;;;;;;0.65578175;-0.05182043;-0.09906308;;;;;483.9
723.0;584.7;;;;;;;;;;;;;;;;;-29.389326;9.9642935;25.959806;;493.6
723.0;584.7;;;;;;;;;;;;;;0.6700644;-0.025086215;-0.102053896;;;;;493.6
723.0;584.7;;;;;;;;;;;;;;;;;-27.787102;13.561663;30.3621;;493.6
723.0;584.7;;;;;;;;;;;;;;0.6906339;0.0048219245;-0.10571612;;;;;493.6
723.0;584.7;;;;;;;;;;;;;;;;;-26.779993;16.457108;35.40147;;503.2
723.0;584.7;;;;;;;;;;;;;;0.7134617;0.04174932;-0.102847375;;;;;503.2
723.0;584.7;;;;;;;;;;;;;;;;;-25.208288;20.329142;40.894802;;503.2
723.0;584.7;;;;;;;;;;;;;;0.72817165;0.08001953;-0.09411909;;;;;503.2
723.0;584.7;;;;;;;;;;;;;;;;;-23.277992;23.7434;46.063873;;512.9
723.0;584.7;;;;;;;;;;;;;;0.7406842;0.11761834;-0.0667745;;;;;512.9
723.0;584.7;;;;;;;;;;;;;;;;;-20.90518;22.061068;51.396984;;512.9
723.0;584.7;;;;;;;;;;;;;;0.76723534;0.15881832;-0.0684225;;;;;512.9
723.0;591.9;;;;;;;;;;;;;;;;;-17.036957;15.24018;57.00476;;522.5
723.0;591.9;;;;;;;;;;;;;;0.7957396;0.21222572;-0.10834071;;;;;522.5
723.0;591.9;;;;;;;;;;;;;;;;;-12.49733;4.4175544;61.994537;;522.5
723.0;591.9;;;;;;;;;;;;;;0.83748895;0.27686393;-0.18988617;;;;;522.5
723.0;591.9;;;;;;;;;;;;;;;;;-7.160405;-2.7314067;65.05783;;532.1
723.0;591.9;;;;;;;;;;;;;;0.9036531;0.36292613;-0.25965148;;;;;532.1
723.0;591.9;;;;;;;;;;;;;;;;;-1.5144811;-0.099185154;66.37395;;532.1
723.0;591.9;;;;;;;;;;;;;;0.95016325;0.47682118;-0.23554185;;;;;532.1
723.0;591.9;;;;;;;;;;;;;;;;;2.8801844;6.984924;65.43169;;541.8
723.0;591.9;;;;;;;;;;;;;;0.9688406;0.5904721;-0.15454574;;;;;541.8
723.0;591.9;;;;;;;;;;;;;;;;;4.3946652;16.125217;62.894836;;541.8
723.0;591.9;;;;;;;;;;;;;;0.9607837;0.74434644;-0.051332135;;;;;541.8
782.0;637.2;;;;;;;;;;;;;;;;;5.771813;19.936216;58.378094;;551.4
782.0;637.2;;;;;;;;;;;;;;0.9580981;0.8805811;0.016724143;;;;;551.4
782.0;637.2;;;;;;;;;;;;;;;;;6.145665;17.380291;54.052097;;551.4
782.0;637.2;;;;;;;;;;;;;;0.96426284;0.9717094;0.013611255;;;;;551.4
782.0;637.2;;;;;;;;;;;;;;;;;4.3298135;13.63033;47.70806;;561.0
782.0;637.2;;;;;;;;;;;;;;1.0021058;1.0795617;0.010864589;;;;;561.0
782.0;637.2;;;;;;;;;;;;;;;;;-2.8611102;7.152776;43.45073;;561.0
782.0;637.2;;;;;;;;;;;;;;1.0934172;1.1207007;-0.0028077029;;;;;561.0
782.0;637.2;;;;;;;;;;;;;;;;;-15.099032;3.807184;38.865322;;570.7
782.0;637.2;;;;;;;;;;;;;;1.157506;1.1669058;-0.054322947;;;;;570.7
782.0;637.2;;;;;;;;;;;;;;;;;-32.04062;11.169774;32.876064;;570.7
782.0;637.2;;;;;;;;;;;;;;1.202002;1.1879025;-0.006714072;;;;;570.7
782.0;652.3;;;;;;;;;;;;;;;;;-45.57939;16.277811;25.730919;;580.4
782.0;652.3;;;;;;;;;;;;;;1.2709128;1.175634;0.024719993;;;;;580.4
782.0;652.3;;;;;;;;;;;;;;;;;-55.345314;23.537401;16.460922;;580.4
782.0;652.3;;;;;;;;;;;;;;1.317423;1.1499374;0.027466659;;;;;580.4
782.0;652.3;;;;;;;;;;;;;;;;;-63.32972;32.319103;5.5543685;;590.0
782.0;652.3;;;;;;;;;;;;;;1.2972198;1.1184423;-0.022888882;;;;;590.0
782.0;652.3;;;;;;;;;;;;;;;;;-67.73202;37.74758;-6.672109;;590.0
782.0;652.3;;;;;;;;;;;;;;1.22013;1.0753502;-0.087710194;;;;;590.0
782.0;652.3;;;;;;;;;;;;;;;;;-69.08246;37.274544;-19.199959;;599.6
782.0;652.3;;;;;;;;;;;;;;1.1164281;1.0042421;-0.17273477;;;;;599.6
782.0;652.3;;;;;;;;;;;;;;;;;-65.14176;31.605732;-27.317883;;599.6
782.0;652.3;;;;;;;;;;;;;;0.9884335;0.9284951;-0.21161534;;;;;599.6
843.0;697.5;;;;;;;;;;;;;;;;;-57.126835;14.275033;-31.670582;;609.3
843.0;697.5;;;;;;;;;;;;;;0.91134375;0.8691061;-0.27594838;;;;;609.3
843.0;697.5;;;;;;;;;;;;;;;;;-49.92828;-4.5854063;-33.25373;;609.3
843.0;697.5;;;;;;;;;;;;;;0.87508774;0.78469193;-0.2923673;;;;;609.3
843.0;697.5;;;;;;;;;;;;;;;;;-44.667652;-18.738365;-31.983398;;619.0
843.0;697.5;;;;;;;;;;;;;;0.83571887;0.666097;-0.22443312;;;;;619.0
843.0;697.5;;;;;;;;;;;;;;;;;-40.486618;-28.828547;-29.759363;;619.0
843.0;697.5;;;;;;;;;;;;;;0.8044679;0.57271034;-0.15533921;;;;;619.0
843.0;697.5;;;;;;;;;;;;;;;;;-36.06906;-34.310432;-25.952177;;628.7
843.0;697.5;;;;;;;;;;;;;;0.7780999;0.45429853;-0.08697775;;;;;628.7
843.0;697.5;;;;;;;;;;;;;;;;;-28.98877;-35.245064;-20.981476;;628.7
843.0;697.5;;;;;;;;;;;;;;0.7329325;0.3444319;0.009277627;;;;;628.7
843.0;705.3;;;;;;;;;;;;;;;;;-20.050661;-34.31806;-14.2941065;;638.3
843.0;705.3;;;;;;;;;;;;;;0.6811121;0.21808527;0.12720115;;;;;638.3
843.0;705.3;;;;;;;;;;;;;;;;;-11.574144;-37.99173;-7.194739;;638.3
843.0;705.3;;;;;;;;;;;;;;0.6868496;0.13721122;0.2038026;;;;;638.3
843.0;705.3;;;;;;;;;;;;;;;;;-3.5363324;-42.7221;0.40055543;;648.0
843.0;705.3;;;;;;;;;;;;;;0.75228125;0.08209479;0.23810542;;;;;648.0
843.0;705.3;;;;;;;;;;;;;;;;;2.9831843;-47.055725;7.820368;;648.0
843.0;705.3;;;;;;;;;;;;;;0.85476243;0.06146428;0.25629443;;;;;648.0
843.0;705.3;;;;;;;;;;;;;;;;;5.0202947;-55.23087;16.560106;;657.6
843.0;705.3;;;;;;;;;;;;;;0.94845426;0.051515244;0.23328349;;;;;657.6
843.0;705.3;;;;;;;;;;;;;;;;;-0.8545183;-73.24824;27.871029;;657.6
843.0;705.3;;;;;;;;;;;;;;1.0243232;0.028015992;0.087588124;;;;;657.6
902.0;757.8;;;;;;;;;;;;;;;;;-13.760033;-92.84493;39.235355;;667.2
902.0;757.8;;;;;;;;;;;;;;1.1027558;-0.037781917;-0.09106723;;;;;667.2
902.0;757.8;;;;;;;;;;;;;;;;;-28.56914;-102.610855;45.953243;;667.2
902.0;757.8;;;;;;;;;;;;;;1.1720328;-0.0667745;-0.21491134;;;;;667.2
902.0;757.8;;;;;;;;;;;;;;;;;-38.811916;-94.485306;49.48958;;676.8
902.0;757.8;;;;;;;;;;;;;;1.1682485;-0.058534503;-0.18518631;;;;;676.8
902.0;757.8;;;;;;;;;;;;;;;;;-43.82458;-76.61672;52.846615;;676.8
902.0;757.8;;;;;;;;;;;;;;1.1238136;-0.08050783;-0.025879696;;;;;676.8
902.0;757.8;;;;;;;;;;;;;;;;;-46.468246;-58.957947;57.149723;;686.5
902.0;757.8;;;;;;;;;;;;;;1.1081882;-0.14709921;0.16473891;;;;;686.5
902.0;757.8;;;;;;;;;;;;;;;;;-40.74221;-47.19306;57.523575;;686.5
902.0;757.8;;;;;;;;;;;;;;1.1945555;-0.13580737;0.26819667;;;;;686.5
902.0;765.2;;;;;;;;;;;;;;;;;-20.870846;-37.96884;55.57039;;696.2
902.0;765.2;;;;;;;;;;;;;;1.2930082;-0.06823939;0.2776574;;;;;696.2
902.0;765.2;;;;;;;;;;;;;;;;;8.072146;-34.478283;45.960876;;696.2
902.0;765.2;;;;;;;;;;;;;;1.3282876;0.1060213;0.07080294;;;;;696.2
902.0;765.2;;;;;;;;;;;;;;;;;39.36506;-27.649769;33.112583;;705.8
902.0;765.2;;;;;;;;;;;;;;1.3562425;0.34852138;-0.09967345;;;;;705.8
902.0;765.2;;;;;;;;;;;;;;;;;66.37395;-23.834957;25.028992;;705.8
902.0;765.2;;;;;;;;;;;;;;1.4075747;0.48731956;-0.0966216;;;;;705.8
902.0;765.2;;;;;;;;;;;;;;;;;71.40568;-37.274544;20.14603;;715.3
902.0;765.2;;;;;;;;;;;;;;1.563158;0.6207465;-0.1991638;;;;;715.3
902.0;765.2;;;;;;;;;;;;;;;;;57.80206;-44.400616;17.860958;;715.3
902.0;765.2;;;;;;;;;;;;;;1.737724;0.6931364;-0.30097353;;;;;715.3
962.0;818.1;;;;;;;;;;;;;;;;;27.497177;-34.60799;15.289773;;724.9
962.0;818.1;;;;;;;;;;;;;;1.779168;0.7447737;-0.36664936;;;;;724.9
962.0;818.1;;;;;;;;;;;;;;;;;-8.5909605;-14.461959;12.787255;;724.9
962.0;818.1;;;;;;;;;;;;;;1.6815088;0.76003295;-0.34894863;;;;;724.9
962.0;818.1;;;;;;;;;;;;;;;;;-41.364025;11.581775;15.930662;;734.6
962.0;818.1;;;;;;;;;;;;;;1.4719688;0.66493726;-0.07129124;;;;;734.6
962.0;818.1;;;;;;;;;;;;;;;;;-75.72024;23.876919;21.30192;;734.6
962.0;818.1;;;;;;;;;;;;;;1.2370983;0.4372692;0.021607105;;;;;734.6
962.0;818.1;;;;;;;;;;;;;;;;;-92.764824;30.549028;22.751549;;744.0
962.0;818.1;;;;;;;;;;;;;;1.0863979;0.25812554;0.0679342;;;;;744.0
962.0;818.1;;;;;;;;;;;;;;;;;-93.70327;33.249916;25.269325;;744.0
962.0;818.1;;;;;;;;;;;;;;0.9864803;0.046205025;0.11066011;;;;;744.0
962.0;825.9;;;;;;;;;;;;;;;;;-85.638756;32.486954;27.726065;;753.7
962.0;825.9;;;;;;;;;;;;;;0.90737635;-0.100161746;0.12439345;;;;;753.7
962.0;825.9;;;;;;;;;;;;;;;;;-75.78127;24.803917;31.819363;;753.7
962.0;825.9;;;;;;;;;;;;;;0.83321637;-0.21784112;0.07721183;;;;;753.7
962.0;825.9;;;;;;;;;;;;;;;;;-62.128056;6.550035;38.78903;;763.4
962.0;825.9;;;;;;;;;;;;;;0.8028199;-0.30664998;-0.051698357;;;;;763.4
962.0;825.9;;;;;;;;;;;;;;;;;-46.815395;-15.194403;48.76095;;763.4
962.0;825.9;;;;;;;;;;;;;;0.7835322;-0.41242713;-0.22278512;;;;;763.4
962.0;825.9;;;;;;;;;;;;;;;;;-29.98062;-32.662437;58.336132;;772.9
962.0;825.9;;;;;;;;;;;;;;0.7856685;-0.4958037;-0.35309917;;;;;772.9
962.0;825.9;;;;;;;;;;;;;;;;;-15.747551;-41.52043;68.59035;;772.9
962.0;825.9;;;;;;;;;;;;;;0.7950682;-0.54487747;-0.40003663;;;;;772.9
1021.0;886.0;;;;;;;;;;;;;;;;;-6.805628;-38.964508;79.03531;;782.6
1021.0;886.0;;;;;;;;;;;;;;0.79482406;-0.5807672;-0.36921293;;;;;782.6
1021.0;886.0;;;;;;;;;;;;;;;;;6.2944427;-32.303844;85.79897;;782.6
1021.0;886.0;;;;;;;;;;;;;;0.79384744;-0.5861385;-0.29212317;;;;;782.6
1021.0;886.0;;;;;;;;;;;;;;;;;19.024477;-30.060732;88.08024;;792.2
1021.0;886.0;;;;;;;;;;;;;;0.80556655;-0.5851619;-0.22730187;;;;;792.2
1021.0;886.0;;;;;;;;;;;;;;;;;29.927214;-30.060732;85.22294;;792.2
1021.0;886.0;;;;;;;;;;;;;;0.8388317;-0.57704395;-0.1690115;;;;;792.2
1021.0;886.0;;;;;;;;;;;;;;;;;37.47673;-30.705435;76.071205;;801.9
1021.0;886.0;;;;;;;;;;;;;;0.9542528;-0.47706535;-0.14569536;;;;;801.9
1021.0;886.0;;;;;;;;;;;;;;;;;40.92532;-24.098179;73.801384;;801.9
1021.0;886.0;;;;;;;;;;;;;;1.0533159;-0.4052858;-0.13605152;;;;;801.9
1021.0;886.8;;;;;;;;;;;;;;;;;45.583206;-13.435774;71.95502;;811.5
1021.0;886.8;;;;;;;;;;;;;;1.1149021;-0.3348491;-0.122318186;;;;;811.5
1021.0;886.8;;;;;;;;;;;;;;;;;50.859097;-5.3102207;67.46117;;811.5
1021.0;886.8;;;;;;;;;;;;;;1.1520127;-0.24610126;-0.1264687;;;;;811.5
1021.0;886.8;;;;;;;;;;;;;;;;;56.66524;1.064333;63.997314;;821.2
1021.0;886.8;;;;;;;;;;;;;;1.1383404;-0.13690603;-0.14661092;;;;;821.2
1021.0;886.8;;;;;;;;;;;;;;;;;61.319313;4.8066654;60.705128;;821.2
1021.0;886.8;;;;;;;;;;;;;;1.1149632;-0.03418073;-0.17682424;;;;;821.2
1021.0;886.8;;;;;;;;;;;;;;;;;62.540054;5.569628;59.11054;;830.9
1021.0;886.8;;;;;;;;;;;;;;1.1153905;0.038331248;-0.19592883;;;;;830.9
1021.0;886.8;;;;;;;;;;;;;;;;;60.754723;5.3788877;56.10828;;830.9
1021.0;886.8;;;;;;;;;;;;;;1.1147801;0.1159093;-0.22119816;;;;;830.9
1081.0;938.9;;;;;;;;;;;;;;;;;53.830837;7.5418863;50.492874;;840.5
1081.0;938.9;;;;;;;;;;;;;;1.1087375;0.20123905;-0.23029268;;;;;840.5
1081.0;938.9;;;;;;;;;;;;;;;;;44.812614;9.846034;45.110172;;840.5
1081.0;938.9;;;;;;;;;;;;;;1.1035494;0.2832728;-0.22638631;;;;;840.5
1081.0;938.9;;;;;;;;;;;;;;;;;35.64562;11.207922;42.42836;;850.2
1081.0;938.9;;;;;;;;;;;;;;1.0843837;0.3573107;-0.19672231;;;;;850.2
1081.0;938.9;;;;;;;;;;;;;;;;;24.97177;11.413922;43.542286;;850.2
1081.0;938.9;;;;;;;;;;;;;;1.0508133;0.4123661;-0.16345714;;;;;850.2
1081.0;938.9;;;;;;;;;;;;;;;;;11.436811;10.078737;46.235542;;859.9
1081.0;938.9;;;;;;;;;;;;;;1.0261544;0.4619892;-0.15057832;;;;;859.9
1081.0;938.9;;;;;;;;;;;;;;;;;-2.4262216;10.448774;51.244392;;859.9
1081.0;938.9;;;;;;;;;;;;;;0.97793514;0.47212133;-0.14099552;;;;;859.9
1081.0;939.7;;;;;;;;;;;;;;;;;-16.563921;10.933256;57.43202;;869.6
1081.0;939.7;;;;;;;;;;;;;;0.9366131;0.47132787;-0.1180456;;;;;869.6
1081.0;939.7;;;;;;;;;;;;;;;;;-28.618732;7.5380716;64.57335;;869.6
1081.0;939.7;;;;;;;;;;;;;;0.90737635;0.3965575;-0.1314127;;;;;869.6
1081.0;939.7;;;;;;;;;;;;;;;;;-36.389507;6.1380353;67.58706;;879.2
1081.0;939.7;;;;;;;;;;;;;;0.9024323;0.33069858;-0.14416943;;;;;879.2
1081.0;939.7;;;;;;;;;;;;;;;;;-42.806026;6.7560353;67.45735;;879.2
1081.0;939.7;;;;;;;;;;;;;;0.90987885;0.31690422;-0.15314189;;;;;879.2
1081.0;939.7;;;;;;;;;;;;;;;;;-49.890133;7.675405;68.0372;;888.9
1081.0;939.7;;;;;;;;;;;;;;0.9045686;0.26612142;-0.18372142;;;;;888.9
1081.0;939.7;;;;;;;;;;;;;;;;;-55.337685;10.887479;69.08627;;888.9
1081.0;939.7;;;;;;;;;;;;;;0.8938261;0.19660024;-0.19244972;;;;;888.9
1141.0;999.7;;;;;;;;;;;;;;;;;-59.549244;13.966033;70.421455;;898.4
1141.0;999.7;;;;;;;;;;;;;;0.8681295;0.12829982;-0.18652913;;;;;898.4
1141.0;999.7;;;;;;;;;;;;;;;;;-62.74224;14.5497;69.399086;;898.4
1141.0;999.7;;;;;;;;;;;;;;0.85152745;0.11090426;-0.19318217;;;;;898.4
1141.0;999.7;;;;;;;;;;;;;;;;;-65.153206;13.32133;70.38331;;908.1
1141.0;999.7;;;;;;;;;;;;;;0.8409681;0.05200354;-0.20416883;;;;;908.1
1141.0;999.7;;;;;;;;;;;;;;;;;-66.64098;12.092959;72.90109;;908.1
1141.0;999.7;;;;;;;;;;;;;;0.83700067;-0.016724143;-0.1975158;;;;;908.1
1141.0;999.7;;;;;;;;;;;;;;;;;-65.14176;11.333811;74.49187;;917.6
1141.0;999.7;;;;;;;;;;;;;;0.8250984;-0.07641835;-0.2070986;;;;;917.6
1141.0;999.7;;;;;;;;;;;;;;;;;-61.4452;11.547441;75.91861;;917.6
1141.0;999.7;;;;;;;;;;;;;;0.7965331;-0.121097445;-0.2019715;;;;;917.6
1141.0;1000.6;;;;;;;;;;;;;;;;;-56.73391;8.724479;71.58879;;927.3
1141.0;1000.6;;;;;;;;;;;;;;0.80636007;-0.11035493;-0.19922483;;;;;927.3
1141.0;1000.6;;;;;;;;;;;;;;;;;-50.466167;2.0638144;70.757164;;927.3
1141.0;1000.6;;;;;;;;;;;;;;0.8261971;-0.08514664;-0.21387371;;;;;927.3
1141.0;1000.6;;;;;;;;;;;;;;;;;-46.491135;-3.0060732;71.35609;;937.0
1141.0;1000.6;;;;;;;;;;;;;;0.8613544;-0.07367168;-0.244026;;;;;937.0
1141.0;1000.6;;;;;;;;;;;;;;;;;-43.38969;-2.8572955;72.07709;;937.0
1141.0;1000.6;;;;;;;;;;;;;;0.88052005;-0.08514664;-0.24762718;;;;;937.0
1141.0;1000.6;;;;;;;;;;;;;;;;;-40.593433;-0.7324442;72.40517;;946.5
1141.0;1000.6;;;;;;;;;;;;;;0.8799707;-0.087466046;-0.22986542;;;;;946.5
1141.0;1000.6;;;;;;;;;;;;;;;;;-38.59447;0.26322216;72.14576;;946.5
1141.0;1000.6;;;;;;;;;;;;;;0.8687399;-0.07391583;-0.22046572;;;;;946.5
1200.0;1059.8;;;;;;;;;;;;;;;;;-37.52632;2.6474807;72.12668;;956.1
1200.0;1059.8;;;;;;;;;;;;;;0.8476821;-0.045777764;-0.19287698;;;;;956.1
1200.0;1059.8;;;;;;;;;;;;;;;;;-36.439102;2.0409255;71.893974;;956.1
1200.0;1059.8;;;;;;;;;;;;;;0.84127325;-0.01843318;-0.18378246;;;;;956.1
1200.0;1059.8;;;;;;;;;;;;;;;;;-34.87884;2.0371106;72.328865;;965.8
1200.0;1059.8;;;;;;;;;;;;;;0.82778406;-0.026245918;-0.17804499;;;;;965.8
1200.0;1059.8;;;;;;;;;;;;;;;;;-32.311474;3.8834803;72.16102;;965.8
1200.0;1059.8;;;;;;;;;;;;;;0.81392866;-0.017151402;-0.14508499;;;;;965.8
1200.0;1059.8;;;;;;;;;;;;;;;;;-30.339212;3.0594807;72.1572;;975.4
1200.0;1059.8;;;;;;;;;;;;;;0.81313515;0.0043946654;-0.1267739;;;;;975.4
1200.0;1059.8;;;;;;;;;;;;;;;;;-27.676472;2.1515548;71.51631;;975.4
1200.0;1059.8;;;;;;;;;;;;;;0.81130403;0.010559404;-0.1391644;;;;;975.4
1200.0;1060.6;;;;;;;;;;;;;;;;;-24.132511;3.4638507;70.6389;;985.0
1200.0;1060.6;;;;;;;;;;;;;;0.8092898;0.026490066;-0.1312296;;;;;985.0
1200.0;1060.6;;;;;;;;;;;;;;;;;-21.580402;2.3422956;69.93316;;985.0
1200.0;1060.6;;;;;;;;;;;;;;0.8206427;0.03320414;-0.14233834;;;;;985.0
1200.0;1060.6;;;;;;;;;;;;;;;;;-18.95581;1.7624439;68.78872;;994.7
1200.0;1060.6;;;;;;;;;;;;;;0.8318125;0.030884732;-0.1480758;;;;;994.7
1200.0;1060.6;;;;;;;;;;;;;;;;;-16.895811;2.517777;67.476425;;994.7
1200.0;1060.6;;;;;;;;;;;;;;0.8487808;0.016418958;-0.13989685;;;;;994.7
1200.0;1060.6;;;;;;;;;;;;;;;;;-15.091403;2.6741846;66.22517;;1004.4
1200.0;1060.6;;;;;;;;;;;;;;0.86288035;0.012817774;-0.1413007;;;;;1004.4
1200.0;1060.6;;;;;;;;;;;;;;;;;-12.981811;4.036073;65.35158;;1004.4
1200.0;1060.6;;;;;;;;;;;;;;0.8674581;-0.014038514;-0.11841182;;;;;1004.4
1202.0;1120.5;;;;;;;;;;;;;;;;;-11.322367;3.688925;64.16898;;1014.0
1202.0;1120.5;;;;;;;;;;;;;;0.88515884;-0.0026245918;-0.105533004;;;;;1014.0
1202.0;1120.5;;;;;;;;;;;;;;;;;-10.43733;3.6355176;63.367874;;1014.0
1202.0;1120.5;;;;;;;;;;;;;;0.8946196;0.0048829615;-0.08520768;;;;;1014.0
1202.0;1120.5;;;;;;;;;;;;;;;;;-10.414441;4.696036;62.45613;;1023.6
1202.0;1120.5;;;;;;;;;;;;;;0.8987701;0.0041505173;-0.064760275;;;;;1023.6
1202.0;1120.5;;;;;;;;;;;;;;;;;-10.269479;5.8099613;61.8305;;1023.6
1202.0;1120.5;;;;;;;;;;;;;;0.89999086;0.006775109;-0.052125614;;;;;1023.6
1202.0;1120.5;;;;;;;;;;;;;;;;;-10.174108;6.8475904;61.185795;;1033.1
1202.0;1120.5;;;;;;;;;;;;;;0.8959014;0.006103702;-0.04608295;;;;;1033.1
1202.0;1120.5;;;;;;;;;;;;;;;;;-9.861293;6.6225166;60.537277;;1033.1
1202.0;1120.5;;;;;;;;;;;;;;0.8939482;0.009521775;-0.035767693;;;;;1033.1
1202.0;1121.3;;;;;;;;;;;;;;;;;-9.632405;5.2072206;60.22446;;1042.8
1202.0;1121.3;;;;;;;;;;;;;;0.8973662;0.012573626;-0.04181036;;;;;1042.8
1202.0;1121.3;;;;;;;;;;;;;;;;;-9.765923;4.3832207;60.21683;;1042.8
1202.0;1121.3;;;;;;;;;;;;;;0.901822;0.010498367;-0.056459244;;;;;1042.8
1202.0;1121.3;;;;;;;;;;;;;;;;;-9.727776;4.2191844;60.068054;;1052.4
1202.0;1121.3;;;;;;;;;;;;;;0.90285957;0.010254219;-0.0672628;;;;;1052.4
1202.0;1121.3;;;;;;;;;;;;;;;;;-10.204626;3.7194436;60.171055;;1052.4
1202.0;1121.3;;;;;;;;;;;;;;0.9038362;7.324442E-4;-0.07538072;;;;;1052.4
1202.0;1121.3;;;;;;;;;;;;;;;;;-10.479293;2.4338512;60.060425;;1062.1
1202.0;1121.3;;;;;;;;;;;;;;0.9058504;-0.007019257;-0.096926786;;;;;1062.1
1202.0;1121.3;;;;;;;;;;;;;;;;;-10.921812;2.4796288;59.747612;;1062.1
1202.0;1121.3;;;;;;;;;;;;;;0.90524;-0.015808588;-0.108401746;;;;;1062.1
1263.0;1130.2;;;;0.0;0.0;0.0;;;;;;;;;;;;;;;
1263.0;1130.2;;;;-0.19908527;0.050041206;-0.17059709;;;;;;;;;;;;;;;
1263.0;1130.2;;;;-0.61931235;0.029716495;-0.6078301;;;;;;;;;;;;;;;
1263.0;1130.2;;;;-0.6416779;0.021522524;-0.6367608;;;;;;;;;;;;;;;
1263.0;1130.2;;;;-0.6471558;0.022399904;-0.64088446;;;;;;;;;;;;;;;
1263.0;1140.2;;;;-0.6518174;0.023414614;-0.64477545;;;;;;;;;;;;;;;
1263.0;1140.2;;;;-0.65412146;0.02437592;-0.6481171;;;;;;;;;;;;;;;
1263.0;1140.2;;;;-0.6544381;0.024780277;-0.6494637;;;;;;;;;;;;;;;
1263.0;1140.2;;;;-0.65507895;0.025653843;-0.65144736;;;;;;;;;;;;;;;
1263.0;1140.2;;;;-0.65730673;0.026920322;-0.6526223;;;;;;;;;;;;;;;
1263.0;1141.4;57416;57467;11424;;;;;;;;;;;;;;;;;;
1263.0;1150.0;;;;-0.6594544;0.029052738;-0.6532555;;;;;;;;;;;;;;;
1263.0;1150.0;;;;-0.6611214;0.031192783;-0.65396506;;;;;;;;;;;;;;;
1263.0;1150.0;;;;-0.66343313;0.032955173;-0.6554261;;;;;;;;;;;;;;;
1263.0;1150.0;;;;-0.66603094;0.035228733;-0.65733343;;;;;;;;;;;;;;;
1263.0;1150.0;;;;-0.66911703;0.03720093;-0.65708166;;;;;;;;;;;;;;;
1264.0;1160.1;;;;-0.6729737;0.0387764;-0.6575776;;;;;;;;;;;;;;;
1264.0;1160.1;;;;-0.6763993;0.039119724;-0.65803915;;;;;;;;;;;;;;;
1264.0;1160.1;;;;-0.6795731;0.038242344;-0.65910727;;;;;;;;;;;;;;;
1264.0;1160.1;;;;-0.6838532;0.037033085;-0.66216666;;;;;;;;;;;;;;;
1264.0;1160.1;;;;-0.6880112;0.035854343;-0.6653138;;;;;;;;;;;;;;;
1264.0;1161.5;73840;73916;11431;;;;;;;;;;;;;;;;;;
1264.0;1167.9;;;;;;;;;;;;;0;;;;;;;;
1264.0;1167.9;;;;;;;;;;;;;0;;;;;;;;
1264.0;1167.9;;;;;;;;;;;;;-1;;;;;;;;
1264.0;1167.9;;;;;;;;;;;;;-2;;;;;;;;
1264.0;1167.9;;;;;;;;;;;;;-3;;;;;;;;
1264.0;1170.2;;;;-0.6931458;0.03413773;-0.6691666;;;;;;;;;;;;;;;
1264.0;1170.2;;;;-0.69925696;0.032085422;-0.6734162;;;;;;;;;;;;;;;
1264.0;1170.2;;;;-0.70672613;0.0304184;-0.6786004;;;;;;;;;;;;;;;
1264.0;1170.2;;;;-0.7144585;0.029098514;-0.6837273;;;;;;;;;;;;;;;
1264.0;1170.2;;;;-0.7224923;0.027740482;-0.68736655;;;;;;;;;;;;;;;
1266.0;1180.3;;;;;;;;;;;;;;;;;-10.75396;2.067629;59.167763;;1071.8
1266.0;1180.3;;;;;;;;;;;;;;0.91055024;-0.00860622;-0.121890925;;;;;1071.8
1266.0;1180.3;;;;;;;;;;;;;;;;;-9.92233;2.2888882;58.732872;;1071.8
1266.0;1180.3;;;;;;;;;;;;;;0.9158605;-0.01678518;-0.1264687;;;;;1071.8
1266.0;1180.3;;;;;;;;;;;;;;;;;-8.045443;2.8534806;58.404797;;1081.3
1266.0;1180.3;;;;;;;;;;;;;;0.9230018;-0.016418958;-0.13489181;;;;;1081.3
1266.0;1180.3;;;;;;;;;;;;;;;;;-5.9053316;3.3265176;57.973724;;1081.3
1266.0;1180.3;;;;;;;;;;;;;;0.9275796;-0.009887997;-0.13574633;;;;;1081.3
1266.0;1180.3;;;;;;;;;;;;;;;;;-3.357036;3.3722954;57.44728;;1090.9
1266.0;1180.3;;;;;;;;;;;;;;0.9230018;-0.0080568865;-0.14069033;;;;;1090.9
1266.0;1180.3;;;;;;;;;;;;;;;;;-1.209296;2.8344066;57.473984;;1090.9
1266.0;1180.3;;;;;;;;;;;;;;0.9225135;-0.012573626;-0.15045625;;;;;1090.9
1266.0;1180.2;;;;-0.72946936;0.025894169;-0.6915665;;;;;;;;;;;;;;;
1266.0;1180.2;;;;-0.73434454;0.023715977;-0.69604117;;;;;;;;;;;;;;;
1266.0;1180.2;;;;-0.73686224;0.02138138;-0.69958884;;;;;;;;;;;;;;;
1266.0;1180.2;;;;-0.73574454;0.019001009;-0.7033883;;;;;;;;;;;;;;;
1266.0;1180.2;;;;-0.731968;0.017154695;-0.70758444;;;;;;;;;;;;;;;
1267.0;1181.0;;;;;;;;;;;;;;;;;1.1291848;2.2049623;57.065796;;1100.5
1267.0;1181.0;;;;;;;;;;;;;;0.9190344;-0.008301035;-0.1685232;;;;;1100.5
1267.0;1181.0;;;;;;;;;;;;;;;;;3.0098882;2.273629;56.77587;;1100.5
1267.0;1181.0;;;;;;;;;;;;;;0.9067049;0.0020142216;-0.1821955;;;;;1100.5
1267.0;1181.0;;;;;;;;;;;;;;;;;4.951628;1.6823329;56.920834;;1110.1
1267.0;1181.0;;;;;;;;;;;;;;0.88912624;0.01660207;-0.19013031;;;;;1110.1
1267.0;1181.0;;;;;;;;;;;;;;;;;7.2367015;-1.678518;57.252724;;1110.1
1267.0;1181.0;;;;;;;;;;;;;;0.8888821;0.019775994;-0.20844142;;;;;1110.1
1267.0;1181.0;;;;;;;;;;;;;;;;;9.365368;-4.39848;57.13065;;1119.7
1267.0;1181.0;;;;;;;;;;;;;;0.90542316;0.042176582;-0.23444319;;;;;1119.7
1267.0;1181.0;;;;;;;;;;;;;;;;;11.383404;-4.413739;56.90176;;1119.7
1267.0;1181.0;;;;;;;;;;;;;;0.8973052;0.06250191;-0.24201179;;;;;1119.7
1267.0;1181.5;90216;90285;11428;;;;;;;;;;;;;;;;;;
1267.0;1190.2;;;;-0.73136145;0.016944887;-0.7106667;;;;;;;;;;;;;;;
1267.0;1190.2;;;;-0.73468405;0.017780306;-0.71427923;;;;;;;;;;;;;;;
1267.0;1190.2;;;;-0.74129874;0.019054415;-0.7179604;;;;;;;;;;;;;;;
1267.0;1190.2;;;;-0.74924475;0.020572664;-0.72191626;;;;;;;;;;;;;;;
1267.0;1190.2;;;;-0.7578355;0.022914888;-0.7245179;;;;;;;;;;;;;;;
1267.0;1200.2;;;;-0.764084;0.02523804;-0.7266007;;;;;;;;;;;;;;;
1267.0;1200.2;;;;-0.7678262;0.027217869;-0.7294846;;;;;;;;;;;;;;;
1267.0;1200.2;;;;-0.77108777;0.029685978;-0.73307425;;;;;;;;;;;;;;;
1267.0;1200.2;;;;-0.7750703;0.032211307;-0.73816687;;;;;;;;;;;;;;;
1267.0;1200.2;;;;-0.77949154;0.035327915;-0.7436257;;;;;;;;;;;;;;;
1322.0;1201.6;106588;106691;11438;;;;;;;;;;;;;;;;;;
1322.0;1207.9;;;;;;;;;;;;;-7;;;;;;;;
1322.0;1207.9;;;;;;;;;;;;;-6;;;;;;;;
1322.0;1207.9;;;;;;;;;;;;;-10;;;;;;;;
1322.0;1207.9;;;;;;;;;;;;;-17;;;;;;;;
1322.0;1207.9;;;;;;;;;;;;;-10;;;;;;;;
1322.0;1209.9;;;;-0.7835847;0.039642338;-0.7493096;;;;;;;;;;;;;;;
1322.0;1209.9;;;;-0.7866479;0.043571476;-0.75555813;;;;;;;;;;;;;;;
1322.0;1209.9;;;;-0.7892457;0.047695167;-0.76178753;;;;;;;;;;;;;;;
1322.0;1209.9;;;;-0.79114926;0.051589973;-0.7672235;;;;;;;;;;;;;;;
1322.0;1209.9;;;;-0.78897107;0.05403138;-0.7720605;;;;;;;;;;;;;;;
1322.0;1219.9;;;;-0.78722394;0.056446083;-0.77734005;;;;;;;;;;;;;;;
1322.0;1219.9;;;;-0.79397976;0.062122352;-0.7789651;;;;;;;;;;;;;;;
1322.0;1219.9;;;;-0.7970582;0.06705857;-0.78216183;;;;;;;;;;;;;;;
1322.0;1219.9;;;;-0.7880937;0.06676484;-0.79392636;;;;;;;;;;;;;;;
1322.0;1219.9;;;;-0.7805482;0.06673432;-0.80303586;;;;;;;;;;;;;;;
1322.0;1221.4;123024;123031;11455;;;;;;;;;;;;;;;;;;
1322.0;1230.1;;;;-0.7793504;0.069538124;-0.8076478;;;;;;;;;;;;;;;
1322.0;1230.1;;;;-0.7829553;0.07425309;-0.81056225;;;;;;;;;;;;;;;
1322.0;1230.1;;;;-0.7905961;0.08070374;-0.8100091;;;;;;;;;;;;;;;
1322.0;1230.1;;;;-0.79898846;0.08866883;-0.8079721;;;;;;;;;;;;;;;
1322.0;1230.1;;;;-0.8061639;0.095058456;-0.8022615;;;;;;;;;;;;;;;
1323.0;1240.4;;;;;;;;;;;;;;;;;13.611256;-4.688406;56.32572;;1129.4
1323.0;1240.4;;;;;;;;;;;;;;0.8847316;0.07483139;-0.22528763;;;;;1129.4
1323.0;1240.4;;;;;;;;;;;;;;;;;15.892513;-7.27485;54.830315;;1129.4
1323.0;1240.4;;;;;;;;;;;;;;0.87636954;0.08642842;-0.21369061;;;;;1129.4
1323.0;1240.4;;;;;;;;;;;;;;;;;17.727438;-9.773552;52.9458;;1139.1
1323.0;1240.4;;;;;;;;;;;;;;0.87777334;0.08594012;-0.19946899;;;;;1139.1
1323.0;1240.4;;;;;;;;;;;;;;;;;19.009216;-11.314737;50.256355;;1139.1
1323.0;1240.4;;;;;;;;;;;;;;0.88876003;0.08868679;-0.17554247;;;;;1139.1
1323.0;1240.4;;;;;;;;;;;;;;;;;19.650105;-11.478774;47.059544;;1148.5
1323.0;1240.4;;;;;;;;;;;;;;0.90102845;0.09118931;-0.16479996;;;;;1148.5
1323.0;1240.4;;;;;;;;;;;;;;;;;19.539474;-9.846034;44.099247;;1148.5
1323.0;1240.4;;;;;;;;;;;;;;0.9189734;0.10034486;-0.14258248;;;;;1148.5
1323.0;1240.1;;;;-0.81082547;0.09814836;-0.79784024;;;;;;;;;;;;;;;
1323.0;1240.1;;;;-0.82301724;0.10430147;-0.79545224;;;;;;;;;;;;;;;
1323.0;1240.1;;;;-0.82641613;0.10756685;-0.7895471;;;;;;;;;;;;;;;
1323.0;1240.1;;;;-0.8213655;0.10871507;-0.78476346;;;;;;;;;;;;;;;
1323.0;1240.1;;;;-0.8113824;0.10718538;-0.78281796;;;;;;;;;;;;;;;
1326.0;1241.5;;;;;;;;;;;;;;;;;17.941069;-8.632923;41.451767;;1158.2
1326.0;1241.5;;;;;;;;;;;;;;0.94967496;0.07885983;-0.14172795;;;;;1158.2
1326.0;1241.5;;;;;;;;;;;;;;;;;16.994993;-5.466628;38.514362;;1158.2
1326.0;1241.5;;;;;;;;;;;;;;0.9706107;0.08471938;-0.15771966;;;;;1158.2
1326.0;1241.5;;;;;;;;;;;;;;;;;16.781366;-0.9117405;35.660877;;1167.9
1326.0;1241.5;;;;;;;;;;;;;;0.9737236;0.07818842;-0.19153416;;;;;1167.9
1326.0;1241.5;;;;;;;;;;;;;;;;;17.330698;3.295999;32.86462;;1167.9
1326.0;1241.5;;;;;;;;;;;;;;0.966155;0.07928709;-0.23023164;;;;;1167.9
1326.0;1241.5;;;;;;;;;;;;;;;;;18.63918;6.221961;30.022583;;1177.6
1326.0;1241.5;;;;;;;;;;;;;;0.94698936;0.09039582;-0.27619252;;;;;1177.6
1326.0;1241.5;;;;;;;;;;;;;;;;;19.013033;7.27485;27.25303;;1177.6
1326.0;1241.5;;;;;;;;;;;;;;0.93856627;0.10736412;-0.3208106;;;;;1177.6
1326.0;1241.5;139440;139437;11455;;;;;;;;;;;;;;;;;;
1326.0;1247.9;;;;;;;;;;;;;-32;;;;;;;;
1326.0;1247.9;;;;;;;;;;;;;-21;;;;;;;;
1326.0;1247.9;;;;;;;;;;;;;-10;;;;;;;;
1326.0;1247.9;;;;;;;;;;;;;-85;;;;;;;;
1326.0;1247.9;;;;;;;;;;;;;77;;;;;;;;
1326.0;1250.1;;;;-0.7987367;0.10480119;-0.7832223;;;;;;;;;;;;;;;
1326.0;1250.1;;;;-0.7890626;0.101741806;-0.7836648;;;;;;;;;;;;;;;
1326.0;1250.1;;;;-0.78408825;0.099548355;-0.7818719;;;;;;;;;;;;;;;
1326.0;1250.1;;;;-0.7815095;0.09879686;-0.77876675;;;;;;;;;;;;;;;
1326.0;1250.1;;;;-0.77853405;0.099475875;-0.7749597;;;;;;;;;;;;;;;
1381.0;1260.2;;;;-0.7775804;0.10165788;-0.7706872;;;;;;;;;;;;;;;
1381.0;1260.2;;;;-0.7754594;0.10393144;-0.76799405;;;;;;;;;;;;;;;
1381.0;1260.2;;;;-0.77463543;0.10636522;-0.7640306;;;;;;;;;;;;;;;
1381.0;1260.2;;;;-0.7774049;0.108871475;-0.75831234;;;;;;;;;;;;;;;
1381.0;1260.2;;;;-0.78234494;0.11262895;-0.7525178;;;;;;;;;;;;;;;
1381.0;1261.8;155768;155784;11457;;;;;;;;;;;;;;;;;;
1381.0;1270.1;;;;-0.78678906;0.11577608;-0.7464791;;;;;;;;;;;;;;;
1381.0;1270.1;;;;-0.7907907;0.118453994;-0.74031454;;;;;;;;;;;;;;;
1381.0;1270.1;;;;-0.7956544;0.12044908;-0.7360268;;;;;;;;;;;;;;;
1381.0;1270.1;;;;-0.80090344;0.12194826;-0.73419195;;;;;;;;;;;;;;;
1381.0;1270.1;;;;-0.8061944;0.12218858;-0.73526007;;;;;;;;;;;;;;;
1381.0;1280.3;;;;-0.8117143;0.12125017;-0.73688895;;;;;;;;;;;;;;;
1381.0;1280.3;;;;-0.8153192;0.11898805;-0.7408295;;;;;;;;;;;;;;;
1381.0;1280.3;;;;-0.81587994;0.11533357;-0.74776083;;;;;;;;;;;;;;;
1381.0;1280.3;;;;-0.8172723;0.1118889;-0.75377285;;;;;;;;;;;;;;;
1381.0;1280.3;;;;-0.8209115;0.10910417;-0.7607881;;;;;;;;;;;;;;;
1381.0;1281.9;172169;172179;11459;;;;;;;;;;;;;;;;;;
1381.0;1288.3;;;;;;;;;;;;;210;;;;;;;;
1381.0;1288.3;;;;;;;;;;;;;-211;;;;;;;;
1381.0;1288.3;;;;;;;;;;;;;-425;;;;;;;;
1381.0;1288.3;;;;;;;;;;;;;478;;;;;;;;
1381.0;1288.3;;;;;;;;;;;;;2254;;;;;;;;
1383.0;1290.4;;;;-0.8260881;0.10717775;-0.7692834;;;;;;;;;;;;;;;
1383.0;1290.4;;;;-0.8305627;0.106525436;-0.7782556;;;;;;;;;;;;;;;
1383.0;1290.4;;;;-0.83330166;0.106491104;-0.7862359;;;;;;;;;;;;;;;
1383.0;1290.4;;;;-0.8352052;0.10781862;-0.79373944;;;;;;;;;;;;;;;
1383.0;1290.4;;;;-0.8347055;0.10978319;-0.80067074;;;;;;;;;;;;;;;
1383.0;1300.7;;;;;;;;;;;;;;;;;17.025513;7.3473315;24.67803;;1187.2
1383.0;1300.7;;;;;;;;;;;;;;0.9350261;0.12237922;-0.35102388;;;;;1187.2
1383.0;1300.7;;;;;;;;;;;;;;;;;13.355663;6.477554;22.358622;;1187.2
1383.0;1300.7;;;;;;;;;;;;;;0.94827116;0.12854396;-0.369335;;;;;1187.2
1383.0;1300.7;;;;;;;;;;;;;;;;;8.747368;4.9172945;20.229956;;1196.9
1383.0;1300.7;;;;;;;;;;;;;;0.9779962;0.13531907;-0.37488937;;;;;1196.9
1383.0;1300.7;;;;;;;;;;;;;;;;;3.238777;2.8801844;18.139439;;1196.9
1383.0;1300.7;;;;;;;;;;;;;;1.018891;0.12439345;-0.37067783;;;;;1196.9
1383.0;1300.7;;;;;;;;;;;;;;;;;-1.1215552;2.1591845;16.277811;;1206.5
1383.0;1300.7;;;;;;;;;;;;;;1.0442213;0.088930935;-0.34150213;;;;;1206.5
1383.0;1300.7;;;;;;;;;;;;;;;;;-3.3341472;1.4877774;14.164403;;1206.5
1383.0;1300.7;;;;;;;;;;;;;;1.0648519;0.036500137;-0.30066836;;;;;1206.5
1383.0;1300.5;;;;-0.83324826;0.11195375;-0.80879986;;;;;;;;;;;;;;;
1383.0;1300.5;;;;-0.8305131;0.11423494;-0.8179475;;;;;;;;;;;;;;;
1383.0;1300.5;;;;-0.82794964;0.11726381;-0.8264123;;;;;;;;;;;;;;;
1383.0;1300.5;;;;-0.8257867;0.12139131;-0.8336755;;;;;;;;;;;;;;;
1383.0;1300.5;;;;-0.8239137;0.1247368;-0.841694;;;;;;;;;;;;;;;
1384.0;1301.4;;;;;;;;;;;;;;;;;-3.1853695;2.4338512;11.932737;;1216.1
1384.0;1301.4;;;;;;;;;;;;;;1.0461135;0.042298656;-0.26831874;;;;;1216.1
1384.0;1301.4;;;;;;;;;;;;;;;;;-2.4071476;3.0365918;9.388257;;1216.1
1384.0;1301.4;;;;;;;;;;;;;;1.0232856;0.035889767;-0.21344645;;;;;1216.1
1384.0;1301.4;;;;;;;;;;;;;;;;;-1.1520737;0.09155553;6.5843687;;1225.8
1384.0;1301.4;;;;;;;;;;;;;;1.0546587;0.04321421;-0.23328349;;;;;1225.8
1384.0;1301.4;;;;;;;;;;;;;;;;;0.8507035;2.094333;3.482925;;1225.8
1384.0;1301.4;;;;;;;;;;;;;;1.0691245;0.06366161;-0.26227608;;;;;1225.8
1384.0;1301.4;;;;;;;;;;;;;;;;;2.8420362;4.387036;-0.08011109;;1235.4
1384.0;1301.4;;;;;;;;;;;;;;1.076571;0.08844264;-0.29999694;;;;;1235.4
1384.0;1301.4;;;;;;;;;;;;;;;;;4.135258;5.5810723;-4.100925;;1235.4
1384.0;1301.4;;;;;;;;;;;;;;1.0769982;0.11407819;-0.3426008;;;;;1235.4
1384.0;1302.0;188603;188622;11467;;;;;;;;;;;;;;;;;;
1384.0;1310.3;;;;-0.82231534;0.12691118;-0.85134137;;;;;;;;;;;;;;;
1384.0;1310.3;;;;-0.8230325;0.12865831;-0.86057293;;;;;;;;;;;;;;;
1384.0;1310.3;;;;-0.82652676;0.13029481;-0.86947644;;;;;;;;;;;;;;;
1384.0;1310.3;;;;-0.8323442;0.13281633;-0.87758267;;;;;;;;;;;;;;;
1384.0;1310.3;;;;-0.8386613;0.13551714;-0.8850175;;;;;;;;;;;;;;;
1439.0;1315.5;;;;;;;;;;;;;;;;;4.902035;6.8742943;-8.404035;;1245.1
1439.0;1315.5;;;;;;;;;;;;;;1.0686972;0.15601063;-0.37519455;;;;;1245.1
1439.0;1315.5;;;;;;;;;;;;;;;;;4.974517;6.3516645;-12.852107;;1245.1
1439.0;1315.5;;;;;;;;;;;;;;1.0669881;0.19684438;-0.41340372;;;;;1245.1
1439.0;1315.5;;;;;;;;;;;;;;;;;4.2420726;4.20011;-17.40318;;1254.7
1439.0;1315.5;;;;;;;;;;;;;;1.0711386;0.23371075;-0.4502701;;;;;1254.7
1439.0;1315.5;;;;;;;;;;;;;;;;;2.6360364;0.9727775;-22.076328;;1254.7
1439.0;1315.5;;;;;;;;;;;;;;1.073336;0.25714895;-0.48060548;;;;;1254.7
1439.0;1315.5;;;;;;;;;;;;;;;;;0.7095553;-2.2354808;-27.283548;;1264.4
1439.0;1315.5;;;;;;;;;;;;;;1.0662557;0.29255044;-0.4893948;;;;;1264.4
1439.0;1315.5;;;;;;;;;;;;;;;;;-1.5488143;-5.3292947;-33.10114;;1264.4
1439.0;1315.5;;;;;;;;;;;;;;1.0524002;0.331431;-0.4925077;;;;;1264.4
1439.0;1320.1;;;;-0.84433377;0.13899995;-0.89125836;;;;;;;;;;;;;;;
1439.0;1320.1;;;;-0.84991467;0.14246751;-0.89559567;;;;;;;;;;;;;;;
1439.0;1320.1;;;;-0.8543664;0.14533235;-0.89937985;;;;;;;;;;;;;;;
1439.0;1320.1;;;;-0.8582994;0.14776613;-0.90181744;;;;;;;;;;;;;;;
1439.0;1320.1;;;;-0.8605882;0.14922334;-0.9039308;;;;;;;;;;;;;;;
1439.0;1321.9;204968;204903;11459;;;;;;;;;;;;;;;;;;
1439.0;1328.1;;;;;;;;;;;;;4138;;;;;;;;
1439.0;1328.1;;;;;;;;;;;;;5532;;;;;;;;
1439.0;1328.1;;;;;;;;;;;;;4013;;;;;;;;
1439.0;1328.1;;;;;;;;;;;;;-3554;;;;;;;;
1439.0;1328.1;;;;;;;;;;;;;-13709;;;;;;;;
1445.0;1330.1;;;;-0.8598558;0.1491089;-0.903309;;;;;;;;;;;;;;;
1445.0;1330.1;;;;-0.85933316;0.14927293;-0.9018098;;;;;;;;;;;;;;;
1445.0;1330.1;;;;-0.86104596;0.14959718;-0.89808667;;;;;;;;;;;;;;;
1445.0;1330.1;;;;-0.8634416;0.15078737;-0.8940202;;;;;;;;;;;;;;;
1445.0;1330.1;;;;-0.8660661;0.15282823;-0.8863336;;;;;;;;;;;;;;;
1445.0;1340.1;;;;-0.8707963;0.15588762;-0.8752786;;;;;;;;;;;;;;;
1445.0;1340.1;;;;-0.8765794;0.15835573;-0.86517346;;;;;;;;;;;;;;;
1445.0;1340.1;;;;-0.88053143;0.1602707;-0.85527813;;;;;;;;;;;;;;;
1445.0;1340.1;;;;-0.8832208;0.16119768;-0.8438455;;;;;;;;;;;;;;;
1445.0;1340.1;;;;-0.88448346;0.1618767;-0.8330575;;;;;;;;;;;;;;;
1445.0;1341.9;221303;221284;11463;;;;;;;;;;;;;;;;;;
1445.0;1350.2;;;;-0.8852273;0.16262819;-0.8225976;;;;;;;;;;;;;;;
1445.0;1350.2;;;;-0.88274395;0.16315843;-0.81217206;;;;;;;;;;;;;;;
1445.0;1350.2;;;;-0.87568295;0.16324998;-0.8004838;;;;;;;;;;;;;;;
1445.0;1350.2;;;;-0.8634912;0.1630974;-0.78784573;;;;;;;;;;;;;;;
1445.0;1350.2;;;;-0.8487855;0.16275407;-0.7772027;;;;;;;;;;;;;;;
1445.0;1360.3;;;;-0.83384717;0.16160585;-0.7681695;;;;;;;;;;;;;;;
1445.0;1360.3;;;;-0.82307065;0.16050722;-0.7587663;;;;;;;;;;;;;;;
1445.0;1360.3;;;;-0.8152238;0.16016008;-0.74797064;;;;;;;;;;;;;;;
1445.0;1360.3;;;;-0.8093606;0.16054155;-0.73704916;;;;;;;;;;;;;;;
1445.0;1360.3;;;;-0.8022424;0.15953447;-0.7308846;;;;;;;;;;;;;;;
1446.0;1361.0;;;;;;;;;;;;;;;;;-3.1586657;-7.6906643;-39.822838;;1274.1
1446.0;1361.0;;;;;;;;;;;;;;1.0430616;0.38343456;-0.4862209;;;;;1274.1
1446.0;1361.0;;;;;;;;;;;;;;;;;-4.3450727;-10.368664;-47.048096;;1274.1
1446.0;1361.0;;;;;;;;;;;;;;1.0340282;0.43122655;-0.47444075;;;;;1274.1
1446.0;1361.0;;;;;;;;;;;;;;;;;-5.2072206;-12.504959;-54.86846;;1283.6
1446.0;1361.0;;;;;;;;;;;;;;1.0265206;0.46211126;-0.48084962;;;;;1283.6
1446.0;1361.0;;;;;;;;;;;;;;;;;-6.2181463;-12.649922;-63.066498;;1283.6
1446.0;1361.0;;;;;;;;;;;;;;1.0113834;0.48451185;-0.49555954;;;;;1283.6
1446.0;1361.0;;;;;;;;;;;;;;;;;-7.8241825;-8.873257;-71.95502;;1293.3
1446.0;1361.0;;;;;;;;;;;;;;0.97811824;0.5091098;-0.4925077;;;;;1293.3
1446.0;1361.0;;;;;;;;;;;;;;;;;-10.9408865;-1.8539995;-81.08386;;1293.3
1446.0;1361.0;;;;;;;;;;;;;;0.93111974;0.54750204;-0.41444135;;;;;1293.3
1446.0;1362.0;237629;237698;11449;;;;;;;;;;;;;;;;;;
1446.0;1368.3;;;;;;;;;;;;;-16331;;;;;;;;
1446.0;1368.3;;;;;;;;;;;;;-6219;;;;;;;;
1446.0;1368.3;;;;;;;;;;;;;8604;;;;;;;;
1446.0;1368.3;;;;;;;;;;;;;15226;;;;;;;;
1446.0;1368.3;;;;;;;;;;;;;11166;;;;;;;;
1446.0;1370.3;;;;-0.7933885;0.15807344;-0.727871;;;;;;;;;;;;;;;
1446.0;1370.3;;;;-0.7843858;0.15681459;-0.72237784;;;;;;;;;;;;;;;
1446.0;1370.3;;;;-0.7795602;0.15591814;-0.715149;;;;;;;;;;;;;;;
1446.0;1370.3;;;;-0.7787324;0.15481187;-0.7107888;;;;;;;;;;;;;;;
1446.0;1370.3;;;;-0.77902615;0.15332414;-0.70880896;;;;;;;;;;;;;;;
1500.0;1380.4;;;;-0.7784158;0.15148546;-0.70616156;;;;;;;;;;;;;;;
1500.0;1380.4;;;;-0.77803814;0.15016939;-0.70219046;;;;;;;;;;;;;;;
1500.0;1380.4;;;;-0.7767564;0.14911653;-0.6991616;;;;;;;;;;;;;;;
1500.0;1380.4;;;;-0.77373517;0.14688493;-0.6953431;;;;;;;;;;;;;;;
1500.0;1380.4;;;;-0.7698289;0.14383318;-0.692154;;;;;;;;;;;;;;;
1500.0;1382.3;254101;254046;11457;;;;;;;;;;;;;;;;;;
1500.0;1390.2;;;;-0.7664491;0.1402321;-0.68931204;;;;;;;;;;;;;;;
1500.0;1390.2;;;;-0.7627717;0.13653566;-0.68571097;;;;;;;;;;;;;;;
1500.0;1390.2;;;;-0.7597543;0.13319017;-0.6823731;;;;;;;;;;;;;;;
1500.0;1390.2;;;;-0.7580148;0.13028719;-0.67984396;;;;;;;;;;;;;;;
1500.0;1390.2;;;;-0.7552644;0.12670518;-0.67828757;;;;;;;;;;;;;;;
1500.0;1400.2;;;;-0.7540628;0.12287904;-0.6765595;;;;;;;;;;;;;;;
1500.0;1400.2;;;;-0.75576794;0.11861421;-0.6759873;;;;;;;;;;;;;;;
1500.0;1400.2;;;;-0.75714886;0.11278154;-0.6772538;;;;;;;;;;;;;;;
1500.0;1400.2;;;;-0.7587396;0.107051864;-0.67584234;;;;;;;;;;;;;;;
1500.0;1400.2;;;;-0.7592584;0.10332872;-0.6742478;;;;;;;;;;;;;;;
1500.0;1402.2;262143;262143;11456;;;;;;;;;;;;;;;;;;
1500.0;1408.5;;;;;;;;;;;;;4456;;;;;;;;
1500.0;1408.5;;;;;;;;;;;;;1499;;;;;;;;
1500.0;1408.5;;;;;;;;;;;;;1478;;;;;;;;
1500.0;1408.5;;;;;;;;;;;;;1478;;;;;;;;
1500.0;1408.5;;;;;;;;;;;;;1099;;;;;;;;
1504.0;1410.3;;;;-0.75952923;0.102016464;-0.67353827;;;;;;;;;;;;;;;
1504.0;1410.3;;;;-0.7579156;0.10261537;-0.6740189;;;;;;;;;;;;;;;
1504.0;1410.3;;;;-0.7542764;0.10442354;-0.6773377;;;;;;;;;;;;;;;
1504.0;1410.3;;;;-0.7521783;0.10725404;-0.68419653;;;;;;;;;;;;;;;
1504.0;1410.3;;;;-0.75091565;0.11128618;-0.6912003;;;;;;;;;;;;;;;
1504.0;1420.4;;;;-0.75141156;0.1154709;-0.6989365;;;;;;;;;;;;;;;
1504.0;1420.4;;;;-0.7519227;0.11908342;-0.70875555;;;;;;;;;;;;;;;
1504.0;1420.4;;;;-0.7538301;0.12125398;-0.7181969;;;;;;;;;;;;;;;
1504.0;1420.4;;;;-0.75587857;0.122150436;-0.7272187;;;;;;;;;;;;;;;
1504.0;1420.4;;;;-0.7594644;0.121963516;-0.73717505;;;;;;;;;;;;;;;
1504.0;1421.9;;;;;;;;;;;;;;;;;-14.793848;1.0376294;-89.465004;;1303.0
1504.0;1421.9;;;;;;;;;;;;;;0.88863796;0.5780816;-0.35139012;;;;;1303.0
1504.0;1421.9;;;;;;;;;;;;;;;;;-16.964476;0.4463332;-98.26197;;1303.0
1504.0;1421.9;;;;;;;;;;;;;;0.8528703;0.5843074;-0.32239753;;;;;1303.0
1504.0;1421.9;;;;;;;;;;;;;;;;;-18.63155;0.79348123;-106.60497;;1312.7
1504.0;1421.9;;;;;;;;;;;;;;0.82290107;0.6184271;-0.28675193;;;;;1312.7
1504.0;1421.9;;;;;;;;;;;;;;;;;-22.1984;3.4752953;-111.37348;;1312.7
1504.0;1421.9;;;;;;;;;;;;;;0.78524125;0.59114355;-0.23523667;;;;;1312.7
1504.0;1421.9;;;;;;;;;;;;;;;;;-23.701437;5.996887;-118.564415;;1322.3
1504.0;1421.9;;;;;;;;;;;;;;0.76473284;0.56483656;-0.16602069;;;;;1322.3
1504.0;1421.9;;;;;;;;;;;;;;;;;-22.907955;7.1832943;-124.32096;;1322.3
1504.0;1421.9;;;;;;;;;;;;;;0.761742;0.5637379;-0.11304056;;;;;1322.3
1508.0;1422.5;;;;;;;;;;;;;;;;;-22.576067;8.884701;-124.988556;;1331.8
1508.0;1422.5;;;;;;;;;;;;;;0.7776116;0.5517747;-0.073427536;;;;;1331.8
1508.0;1422.5;;;;;;;;;;;;;;;;;-22.289955;11.730552;-124.988556;;1331.8
1508.0;1422.5;;;;;;;;;;;;;;0.8235725;0.5429853;-0.034669027;;;;;1331.8
1508.0;1422.5;;;;;;;;;;;;;;;;;-22.83166;14.275033;-124.988556;;1341.4
1508.0;1422.5;;;;;;;;;;;;;;0.88137454;0.47999513;0.011535997;;;;;1341.4
1508.0;1422.5;;;;;;;;;;;;;;;;;-25.166325;15.831476;-124.988556;;1341.4
1508.0;1422.5;;;;;;;;;;;;;;0.96877956;0.43867305;0.041322064;;;;;1341.4
1508.0;1422.5;;;;;;;;;;;;;;;;;-29.999695;22.328104;-124.988556;;1350.9
1508.0;1422.5;;;;;;;;;;;;;;1.0589312;0.3717765;0.08948027;;;;;1350.9
1508.0;1422.5;;;;;;;;;;;;;;;;;-37.854397;30.3621;-124.988556;;1350.9
1508.0;1422.5;;;;;;;;;;;;;;1.1478622;0.28498185;0.13580737;;;;;1350.9
1508.0;1422.4;262143;262143;11448;;;;;;;;;;;;;;;;;;
1508.0;1430.2;;;;-0.76563275;0.12081529;-0.7462807;;;;;;;;;;;;;;;
1508.0;1430.2;;;;-0.7719499;0.11892702;-0.7539102;;;;;;;;;;;;;;;
1508.0;1430.2;;;;-0.7762376;0.116180435;-0.75984585;;;;;;;;;;;;;;;
1508.0;1430.2;;;;-0.7760774;0.113964096;-0.7640039;;;;;;;;;;;;;;;
1508.0;1430.2;;;;-0.7711412;0.111576095;-0.7652017;;;;;;;;;;;;;;;
1563.0;1435.7;;;;;;;;;;;;;;;;;-49.302654;35.050507;-124.988556;;1360.6
1563.0;1435.7;;;;;;;;;;;;;;1.2578509;0.18659016;0.114627525;;;;;1360.6
1563.0;1435.7;;;;;;;;;;;;;;;;;-54.616688;42.73736;-124.988556;;1360.6
1563.0;1435.7;;;;;;;;;;;;;;1.401349;0.11560412;0.098818935;;;;;1360.6
1563.0;1435.7;;;;;;;;;;;;;;;;;-50.44328;52.549057;-124.988556;;1370.3
1563.0;1435.7;;;;;;;;;;;;;;1.54149;0.076662496;0.15204321;;;;;1370.3
1563.0;1435.7;;;;;;;;;;;;;;;;;-47.864468;33.173622;-124.988556;;1370.3
1563.0;1435.7;;;;;;;;;;;;;;1.7350383;0.030579546;0.027466659;;;;;1370.3
1563.0;1435.7;;;;;;;;;;;;;;;;;-50.710316;1.167333;-124.794;;1380.0
1563.0;1435.7;;;;;;;;;;;;;;1.9699087;-0.110721156;-0.27741325;;;;;1380.0
1563.0;1435.7;;;;;;;;;;;;;;;;;-49.23017;10.601367;-115.787224;;1380.0
1563.0;1435.7;;;;;;;;;;;;;;1.9970702;-0.2938322;-0.39307842;;;;;1380.0
1563.0;1440.1;;;;-0.76204693;0.109577194;-0.7646638;;;;;;;;;;;;;;;
1563.0;1440.1;;;;-0.7584306;0.10850145;-0.7613374;;;;;;;;;;;;;;;
1563.0;1440.1;;;;-0.76234066;0.10752489;-0.75665677;;;;;;;;;;;;;;;
1563.0;1440.1;;;;-0.7680551;0.10718919;-0.7535707;;;;;;;;;;;;;;;
1563.0;1440.1;;;;-0.77378094;0.10978319;-0.754429;;;;;;;;;;;;;;;
1563.0;1442.1;262143;262143;11455;;;;;;;;;;;;;;;;;;
1563.0;1448.3;;;;;;;;;;;;;654;;;;;;;;
1563.0;1448.3;;;;;;;;;;;;;23;;;;;;;;
1563.0;1448.3;;;;;;;;;;;;;-493;;;;;;;;
1563.0;1448.3;;;;;;;;;;;;;-686;;;;;;;;
1563.0;1448.3;;;;;;;;;;;;;-720;;;;;;;;
1568.0;1450.0;;;;-0.7766038;0.11543657;-0.7563249;;;;;;;;;;;;;;;
1568.0;1450.0;;;;-0.780491;0.123806015;-0.7573129;;;;;;;;;;;;;;;
1568.0;1450.0;;;;-0.7777978;0.13321306;-0.75961316;;;;;;;;;;;;;;;
1568.0;1450.0;;;;-0.78551114;0.14455797;-0.7596551;;;;;;;;;;;;;;;
1568.0;1450.0;;;;-0.79644024;0.15613939;-0.7605287;;;;;;;;;;;;;;;
1568.0;1460.0;;;;-0.80902493;0.1644211;-0.762581;;;;;;;;;;;;;;;
1568.0;1460.0;;;;-0.82325375;0.16942598;-0.76228344;;;;;;;;;;;;;;;
1568.0;1460.0;;;;-0.84230435;0.1739998;-0.7607919;;;;;;;;;;;;;;;
1568.0;1460.0;;;;-0.857628;0.17623521;-0.76036847;;;;;;;;;;;;;;;
1568.0;1460.0;;;;-0.8739053;0.1770897;-0.75766385;;;;;;;;;;;;;;;
1568.0;1462.2;262143;262143;11458;;;;;;;;;;;;;;;;;;
1568.0;1470.2;;;;-0.894066;0.17806627;-0.75639355;;;;;;;;;;;;;;;
1568.0;1470.2;;;;-0.9101182;0.17958452;-0.7551614;;;;;;;;;;;;;;;
1568.0;1470.2;;;;-0.922577;0.17957689;-0.75358593;;;;;;;;;;;;;;;
1568.0;1470.2;;;;-0.93081677;0.18011476;-0.75146496;;;;;;;;;;;;;;;
1568.0;1470.2;;;;-0.935856;0.17990877;-0.75006497;;;;;;;;;;;;;;;
1568.0;1480.2;;;;-0.93860257;0.17772676;-0.7460137;;;;;;;;;;;;;;;
1568.0;1480.2;;;;-0.93815243;0.17446138;-0.7416039;;;;;;;;;;;;;;;
1568.0;1480.2;;;;-0.9345933;0.17144777;-0.73849493;;;;;;;;;;;;;;;
1568.0;1480.2;;;;-0.9336206;0.1696129;-0.733532;;;;;;;;;;;;;;;
1568.0;1480.2;;;;-0.9340364;0.17058183;-0.7270928;;;;;;;;;;;;;;;
1570.0;1480.9;;;;;;;;;;;;;;;;;-49.893948;37.560658;-92.29179;;1389.6
1570.0;1480.9;;;;;;;;;;;;;;1.9970702;-0.5577563;-0.33417767;;;;;1389.6
1570.0;1480.9;;;;;;;;;;;;;;;;;-56.470688;46.964172;-80.13779;;1389.6
1570.0;1480.9;;;;;;;;;;;;;;1.9813226;-0.8191778;-0.3434553;;;;;1389.6
1570.0;1480.9;;;;;;;;;;;;;;;;;-57.76391;42.695396;-92.11249;;1399.3
1570.0;1480.9;;;;;;;;;;;;;;1.6983551;-0.8380993;-0.385815;;;;;1399.3
1570.0;1480.9;;;;;;;;;;;;;;;;;-54.49843;24.231697;-107.96304;;1399.3
1570.0;1480.9;;;;;;;;;;;;;;1.3960387;-0.72621846;-0.39313945;;;;;1399.3
1570.0;1480.9;;;;;;;;;;;;;;;;;-58.614613;-6.4203315;-117.091896;;1409.0
1570.0;1480.9;;;;;;;;;;;;;;1.3002716;-0.53425705;-0.45435956;;;;;1409.0
1570.0;1480.9;;;;;;;;;;;;;;;;;-66.9538;-29.404585;-113.62041;;1409.0
1570.0;1480.9;;;;;;;;;;;;;;1.2650533;-0.46772668;-0.5429243;;;;;1409.0
1570.0;1482.3;262143;262143;11467;;;;;;;;;;;;;;;;;;
1571.0;1488.3;;;;;;;;;;;;;;;;;-68.10205;-31.529434;-114.57793;;1418.6
1571.0;1488.3;;;;;;;;;;;;;;1.2624286;-0.3961913;-0.52015746;;;;;1418.6
1571.0;1488.3;;;;;;;;;;;;;;;;;-64.1728;-25.753807;-117.3513;;1418.6
1571.0;1488.3;;;;;;;;;;;;;;1.315653;-0.349559;-0.40253913;;;;;1418.6
1571.0;1488.3;;;;;;;;;;;;;;;;;-55.90991;-22.164066;-121.00589;;1428.2
1571.0;1488.3;;;;;;;;;;;;;;1.3132114;-0.28339487;-0.3408307;;;;;1428.2
1571.0;1488.3;;;;;;;;;;;;;;;;;-41.402172;-15.163884;-123.56944;;1428.2
1571.0;1488.3;;;;;;;;;;;;;;1.2507706;-0.19013031;-0.26722008;;;;;1428.2
1571.0;1488.3;;;;;;;;;;;;;;;;;-28.389843;-20.081179;-124.561295;;1437.9
1571.0;1488.3;;;;;;;;;;;;;;1.233314;-0.018921476;-0.23859371;;;;;1437.9
1571.0;1488.3;;;;;;;;;;;;;;;;;-21.317179;-30.957212;-124.45448;;1437.9
1571.0;1488.3;;;;;;;;;;;;;;1.2785424;0.09320353;-0.28418836;;;;;1437.9
1571.0;1488.4;;;;;;;;;;;;;-918;;;;;;;;
1571.0;1488.4;;;;;;;;;;;;;-1294;;;;;;;;
1571.0;1488.4;;;;;;;;;;;;;-1565;;;;;;;;
1571.0;1488.4;;;;;;;;;;;;;-1728;;;;;;;;
1571.0;1488.4;;;;;;;;;;;;;-1993;;;;;;;;
1571.0;1490.1;;;;-0.92712414;0.1723366;-0.7204476;;;;;;;;;;;;;;;
1571.0;1490.1;;;;-0.91972744;0.17331697;-0.71443945;;;;;;;;;;;;;;;
1571.0;1490.1;;;;-0.9119226;0.17289354;-0.7065621;;;;;;;;;;;;;;;
1571.0;1490.1;;;;-0.9081079;0.17163087;-0.6984063;;;;;;;;;;;;;;;
1571.0;1490.1;;;;-0.90364087;0.16949083;-0.69198614;;;;;;;;;;;;;;;
1619.0;1500.1;;;;-0.89787304;0.1660309;-0.686142;;;;;;;;;;;;;;;
1619.0;1500.1;;;;-0.8897592;0.16425706;-0.6806107;;;;;;;;;;;;;;;
1619.0;1500.1;;;;-0.8778688;0.16205598;-0.67524344;;;;;;;;;;;;;;;
1619.0;1500.1;;;;-0.8617364;0.16069414;-0.6730271;;;;;;;;;;;;;;;
1619.0;1500.1;;;;-0.84500134;0.15878679;-0.67101294;;;;;;;;;;;;;;;
1619.0;1502.3;262143;262143;11467;;;;;;;;;;;;;;;;;;
1619.0;1510.0;;;;-0.8282434;0.15532304;-0.66875845;;;;;;;;;;;;;;;
1619.0;1510.0;;;;-0.8117982;0.15043642;-0.66452414;;;;;;;;;;;;;;;
1619.0;1510.0;;;;-0.79849637;0.14606096;-0.66201407;;;;;;;;;;;;;;;
1619.0;1510.0;;;;-0.78776944;0.14214326;-0.65983206;;;;;;;;;;;;;;;
1619.0;1510.0;;;;-0.7819139;0.13999559;-0.65424734;;;;;;;;;;;;;;;
1619.0;1520.0;;;;-0.7781335;0.13774873;-0.6458016;;;;;;;;;;;;;;;
1619.0;1520.0;;;;-0.7687417;0.1363373;-0.64278036;;;;;;;;;;;;;;;
1619.0;1520.0;;;;-0.75281155;0.1326523;-0.6414872;;;;;;;;;;;;;;;
1619.0;1520.0;;;;-0.74200445;0.12683107;-0.638012;;;;;;;;;;;;;;;
1619.0;1520.0;;;;-0.7292405;0.120029464;-0.6358376;;;;;;;;;;;;;;;
1619.0;1522.2;262143;262143;11454;;;;;;;;;;;;;;;;;;
1619.0;1528.5;;;;;;;;;;;;;-2411;;;;;;;;
1619.0;1528.5;;;;;;;;;;;;;-2688;;;;;;;;
1619.0;1528.5;;;;;;;;;;;;;-2546;;;;;;;;
1619.0;1528.5;;;;;;;;;;;;;-2139;;;;;;;;
1619.0;1528.5;;;;;;;;;;;;;-1823;;;;;;;;
1621.0;1530.1;;;;-0.71344763;0.113143936;-0.63452154;;;;;;;;;;;;;;;
1621.0;1530.1;;;;-0.6956864;0.10679628;-0.63372046;;;;;;;;;;;;;;;
1621.0;1530.1;;;;-0.6863976;0.100547805;-0.6320649;;;;;;;;;;;;;;;
1621.0;1530.1;;;;-0.67581564;0.094318405;-0.63273627;;;;;;;;;;;;;;;
1621.0;1530.1;;;;-0.66782385;0.0890503;-0.63509756;;;;;;;;;;;;;;;
1621.0;1540.2;;;;-0.6671601;0.08558274;-0.63247305;;;;;;;;;;;;;;;
1621.0;1540.2;;;;-0.66738516;0.08359147;-0.6327897;;;;;;;;;;;;;;;
1621.0;1540.2;;;;-0.66569525;0.081745155;-0.6351891;;;;;;;;;;;;;;;
1621.0;1540.2;;;;-0.6688538;0.07989121;-0.63346106;;;;;;;;;;;;;;;
1621.0;1540.2;;;;-0.66530615;0.07825852;-0.6341744;;;;;;;;;;;;;;;
1621.0;1540.9;;;;;;;;;;;;;;;;;-9.296701;-31.792656;-122.631;;1447.5
1621.0;1540.9;;;;;;;;;;;;;;1.2950225;0.13049714;-0.36744285;;;;;1447.5
1621.0;1540.9;;;;;;;;;;;;;;;;;4.8829613;-15.526292;-120.273445;;1447.5
1621.0;1540.9;;;;;;;;;;;;;;1.2354503;0.1826838;-0.32007813;;;;;1447.5
1621.0;1540.9;;;;;;;;;;;;;;;;;10.788294;-3.2883694;-114.32996;;1457.1
1621.0;1540.9;;;;;;;;;;;;;;1.1758171;0.16083254;-0.22211371;;;;;1457.1
1621.0;1540.9;;;;;;;;;;;;;;;;;12.096774;1.3618885;-108.88623;;1457.1
1621.0;1540.9;;;;;;;;;;;;;;1.1450545;0.17743461;-0.16296884;;;;;1457.1
1621.0;1540.9;;;;;;;;;;;;;;;;;7.694479;6.8437757;-103.38145;;1466.8
1621.0;1540.9;;;;;;;;;;;;;;1.1675771;0.19031343;-0.16663106;;;;;1466.8
1621.0;1540.9;;;;;;;;;;;;;;;;;-0.26322216;16.750847;-96.5949;;1466.8
1621.0;1540.9;;;;;;;;;;;;;;1.1125828;0.20258187;-0.08020265;;;;;1466.8
1621.0;1542.4;262143;262143;11462;;;;;;;;;;;;;;;;;;
1622.0;1548.3;;;;;;;;;;;;;;;;;-11.009553;18.54381;-95.75945;;1476.4
1622.0;1548.3;;;;;;;;;;;;;;1.0438551;0.24951933;0.029053621;;;;;1476.4
1622.0;1548.3;;;;;;;;;;;;;;;;;-20.76403;8.888515;-91.33427;;1476.4
1622.0;1548.3;;;;;;;;;;;;;;0.9667043;0.24445327;0.070192575;;;;;1476.4
1622.0;1548.3;;;;;;;;;;;;;;;;;-28.107548;-7.6677756;-85.76464;;1486.1
1622.0;1548.3;;;;;;;;;;;;;;0.9367962;0.26416823;0.083254494;;;;;1486.1
1622.0;1548.3;;;;;;;;;;;;;;;;;-35.6151;-22.003847;-81.08386;;1486.1
1622.0;1548.3;;;;;;;;;;;;;;0.9336833;0.25324258;0.07940916;;;;;1486.1
1622.0;1548.3;;;;;;;;;;;;;;;;;-46.685688;-32.280952;-79.87075;;1495.8
1622.0;1548.3;;;;;;;;;;;;;;0.94405955;0.29517502;0.054628134;;;;;1495.8
1622.0;1548.3;;;;;;;;;;;;;;;;;-59.671318;-34.588913;-79.68001;;1495.8
1622.0;1548.3;;;;;;;;;;;;;;0.9319132;0.25189978;0.013428144;;;;;1495.8
1622.0;1550.0;;;;-0.66408926;0.076004036;-0.6302605;;;;;;;;;;;;;;;
1622.0;1550.0;;;;-0.65954214;0.07188035;-0.62660605;;;;;;;;;;;;;;;
1622.0;1550.0;;;;-0.65700155;0.06723023;-0.6247063;;;;;;;;;;;;;;;
1622.0;1550.0;;;;-0.6623154;0.06324769;-0.6194535;;;;;;;;;;;;;;;
1622.0;1550.0;;;;-0.6649323;0.060157783;-0.61661917;;;;;;;;;;;;;;;
1622.0;1560.1;;;;-0.6667977;0.05667878;-0.6121903;;;;;;;;;;;;;;;
1622.0;1560.1;;;;-0.6642533;0.054374702;-0.6108895;;;;;;;;;;;;;;;
1622.0;1560.1;;;;-0.66507345;0.053791054;-0.60678107;;;;;;;;;;;;;;;
1622.0;1560.1;;;;-0.6681519;0.056228645;-0.60688406;;;;;;;;;;;;;;;
1622.0;1560.1;;;;-0.6599503;0.056072243;-0.60190207;;;;;;;;;;;;;;;
1622.0;1562.4;262143;262143;11469;;;;;;;;;;;;;;;;;;
1681.0;1568.6;;;;;;;;;;;;;-1768;;;;;;;;
1681.0;1568.6;;;;;;;;;;;;;-1825;;;;;;;;
1681.0;1568.6;;;;;;;;;;;;;-1698;;;;;;;;
1681.0;1568.6;;;;;;;;;;;;;-1447;;;;;;;;
1681.0;1568.6;;;;;;;;;;;;;-1401;;;;;;;;
1681.0;1570.1;;;;-0.6431542;0.048072822;-0.5933381;;;;;;;;;;;;;;;
1681.0;1570.1;;;;-0.6465798;0.04796601;-0.593895;;;;;;;;;;;;;;;
1681.0;1570.1;;;;-0.64926153;0.050163276;-0.5930367;;;;;;;;;;;;;;;
1681.0;1570.1;;;;-0.6493264;0.05252076;-0.5878907;;;;;;;;;;;;;;;
1681.0;1570.1;;;;-0.64467627;0.053493507;-0.58373266;;;;;;;;;;;;;;;
1681.0;1580.1;;;;-0.64296347;0.05388642;-0.58380514;;;;;;;;;;;;;;;
1681.0;1580.1;;;;-0.646534;0.057106026;-0.5840302;;;;;;;;;;;;;;;
1681.0;1580.1;;;;-0.6506577;0.064430244;-0.58406454;;;;;;;;;;;;;;;
1681.0;1580.1;;;;-0.6333161;0.058227547;-0.5773049;;;;;;;;;;;;;;;
1681.0;1580.1;;;;-0.6350098;0.056957252;-0.5851746;;;;;;;;;;;;;;;
1681.0;1582.5;262143;262143;11470;;;;;;;;;;;;;;;;;;
1681.0;1590.2;;;;-0.6364594;0.05656434;-0.59156424;;;;;;;;;;;;;;;
1681.0;1590.2;;;;-0.6322823;0.0539589;-0.5960694;;;;;;;;;;;;;;;
1681.0;1590.2;;;;-0.6304093;0.05244828;-0.60418326;;;;;;;;;;;;;;;
1681.0;1590.2;;;;-0.6294175;0.054328926;-0.6112748;;;;;;;;;;;;;;;
1681.0;1590.2;;;;-0.6220513;0.05297471;-0.6209641;;;;;;;;;;;;;;;
1682.0;1600.3;;;;-0.6096917;0.041378025;-0.6258431;;;;;;;;;;;;;;;
1682.0;1600.3;;;;-0.6016198;0.03461838;-0.6337777;;;;;;;;;;;;;;;
1682.0;1600.3;;;;-0.5931893;0.029846195;-0.6393853;;;;;;;;;;;;;;;
1682.0;1600.3;;;;-0.58730704;0.028636936;-0.64363486;;;;;;;;;;;;;;;
1682.0;1600.3;;;;-0.58284;0.02677155;-0.64593893;;;;;;;;;;;;;;;
1682.0;1601.1;;;;;;;;;;;;;;;;;-69.2732;-33.562733;-75.10224;;1505.4
1682.0;1601.1;;;;;;;;;;;;;;0.91219825;0.15710929;0.0053102206;;;;;1505.4
1682.0;1601.1;;;;;;;;;;;;;;;;;-76.85324;-34.024323;-72.87438;;1505.4
1682.0;1601.1;;;;;;;;;;;;;;0.92263556;0.18805505;0.018372143;;;;;1505.4
1682.0;1601.1;;;;;;;;;;;;;;;;;-79.83642;-33.318584;-70.8182;;1515.0
1682.0;1601.1;;;;;;;;;;;;;;0.9129917;0.13879818;0.027161473;;;;;1515.0
1682.0;1601.1;;;;;;;;;;;;;;;;;-81.53401;-33.64666;-68.4759;;1515.0
1682.0;1601.1;;;;;;;;;;;;;;0.8977325;0.06646931;0.013245033;;;;;1515.0
1682.0;1601.1;;;;;;;;;;;;;;;;;-85.11613;-33.501694;-66.32054;;1524.7
1682.0;1601.1;;;;;;;;;;;;;;0.8795434;0.025635548;-0.0076296274;;;;;1524.7
1682.0;1601.1;;;;;;;;;;;;;;;;;-88.93856;-29.694511;-64.561905;;1524.7
1682.0;1601.1;;;;;;;;;;;;;;0.8415174;0.0053102206;0.008301035;;;;;1524.7
1682.0;1602.6;262143;262143;11470;;;;;;;;;;;;;;;;;;
1684.0;1609.0;;;;;;;;;;;;;;;;;-92.757195;-26.203955;-62.59346;;1534.4
1684.0;1609.0;;;;;;;;;;;;;;0.8021485;-0.013611255;0.034363844;;;;;1534.4
1684.0;1609.0;;;;;;;;;;;;;;;;;-96.55293;-23.590809;-60.399944;;1534.4
1684.0;1609.0;;;;;;;;;;;;;;0.7557604;-0.051271096;0.03991821;;;;;1534.4
1684.0;1609.0;;;;;;;;;;;;;;;;;-100.089264;-21.561327;-58.339947;;1544.0
1684.0;1609.0;;;;;;;;;;;;;;0.72206795;-0.068544574;0.049501024;;;;;1544.0
1684.0;1609.0;;;;;;;;;;;;;;;;;-102.89315;-20.680105;-55.471203;;1544.0
1684.0;1609.0;;;;;;;;;;;;;;0.68977934;-0.09906308;0.04364147;;;;;1544.0
1684.0;1609.0;;;;;;;;;;;;;;;;;-104.4763;-19.28007;-53.140354;;1553.6
1684.0;1609.0;;;;;;;;;;;;;;0.66335034;-0.11841182;0.043946654;;;;;1553.6
1684.0;1609.0;;;;;;;;;;;;;;;;;-104.63271;-20.004883;-51.160465;;1553.6
1684.0;1609.0;;;;;;;;;;;;;;0.6472365;-0.12756737;0.031189917;;;;;1553.6
1684.0;1608.8;;;;;;;;;;;;;-1565;;;;;;;;
1684.0;1608.8;;;;;;;;;;;;;-1374;;;;;;;;
1684.0;1608.8;;;;;;;;;;;;;-410;;;;;;;;
1684.0;1608.8;;;;;;;;;;;;;847;;;;;;;;
1684.0;1608.8;;;;;;;;;;;;;1528;;;;;;;;
1684.0;1610.1;;;;-0.5885735;0.027908329;-0.6478768;;;;;;;;;;;;;;;
1684.0;1610.1;;;;-0.5880547;0.02276993;-0.6460381;;;;;;;;;;;;;;;
1684.0;1610.1;;;;-0.6002465;0.025012974;-0.6494675;;;;;;;;;;;;;;;
1684.0;1610.1;;;;-0.6051827;0.026508335;-0.6520005;;;;;;;;;;;;;;;
1684.0;1610.1;;;;-0.6048623;0.026237492;-0.652237;;;;;;;;;;;;;;;
1738.0;1620.1;;;;-0.60327536;0.024189;-0.65290076;;;;;;;;;;;;;;;
1738.0;1620.1;;;;-0.6068421;0.02334595;-0.6533814;;;;;;;;;;;;;;;
1738.0;1620.1;;;;-0.6156884;0.0230217;-0.65175253;;;;;;;;;;;;;;;
1738.0;1620.1;;;;-0.6328736;0.02468491;-0.6495896;;;;;;;;;;;;;;;
1738.0;1620.1;;;;-0.64558417;0.023971561;-0.64658743;;;;;;;;;;;;;;;
1738.0;1622.6;262143;262143;11478;;;;;;;;;;;;;;;;;;
1738.0;1630.1;;;;-0.6516076;0.020725252;-0.64303213;;;;;;;;;;;;;;;
1738.0;1630.1;;;;-0.6538697;0.017951967;-0.64131933;;;;;;;;;;;;;;;
1738.0;1630.1;;;;-0.65328985;0.017787935;-0.6398049;;;;;;;;;;;;;;;
1738.0;1630.1;;;;-0.64716345;0.019500734;-0.6391335;;;;;;;;;;;;;;;
1738.0;1630.1;;;;-0.6362229;0.021343233;-0.63919455;;;;;;;;;;;;;;;
1738.0;1640.1;;;;-0.62595373;0.020198824;-0.6409493;;;;;;;;;;;;;;;
1738.0;1640.1;;;;-0.6174012;0.017116548;-0.6444436;;;;;;;;;;;;;;;
1738.0;1640.1;;;;-0.61311346;0.013507845;-0.6463166;;;;;;;;;;;;;;;
1738.0;1640.1;;;;-0.61573416;0.012454988;-0.6511002;;;;;;;;;;;;;;;
1738.0;1640.1;;;;-0.621254;0.013313295;-0.6559029;;;;;;;;;;;;;;;
1738.0;1642.7;262143;262143;11486;;;;;;;;;;;;;;;;;;
1738.0;1648.9;;;;;;;;;;;;;1465;;;;;;;;
1738.0;1648.9;;;;;;;;;;;;;1369;;;;;;;;
1738.0;1648.9;;;;;;;;;;;;;1809;;;;;;;;
1738.0;1648.9;;;;;;;;;;;;;2592;;;;;;;;
1738.0;1648.9;;;;;;;;;;;;;3317;;;;;;;;
1742.0;1650.2;;;;-0.6287194;0.014636995;-0.66289145;;;;;;;;;;;;;;;
1742.0;1650.2;;;;-0.63938147;0.017387392;-0.6716271;;;;;;;;;;;;;;;
1742.0;1650.2;;;;-0.64809424;0.01786423;-0.67770773;;;;;;;;;;;;;;;
1742.0;1650.2;;;;-0.65620047;0.015804293;-0.6845818;;;;;;;;;;;;;;;
1742.0;1650.2;;;;-0.6721001;0.01874161;-0.691475;;;;;;;;;;;;;;;
1742.0;1660.3;;;;-0.6788903;0.017528536;-0.694809;;;;;;;;;;;;;;;
1742.0;1660.3;;;;-0.6779404;0.013565065;-0.69943625;;;;;;;;;;;;;;;
1742.0;1660.3;;;;-0.6785508;0.010795594;-0.7029229;;;;;;;;;;;;;;;
1742.0;1660.3;;;;-0.67879874;0.0075759897;-0.7067223;;;;;;;;;;;;;;;
1742.0;1660.3;;;;-0.6736527;0.0030517583;-0.711567;;;;;;;;;;;;;;;
1742.0;1661.3;;;;;;;;;;;;;;;;;-103.797264;-21.134068;-48.520615;;1563.2
1742.0;1661.3;;;;;;;;;;;;;;0.6333811;-0.14331493;2.4414808E-4;;;;;1563.2
1742.0;1661.3;;;;;;;;;;;;;;;;;-101.63045;-21.351513;-44.763023;;1563.2
1742.0;1661.3;;;;;;;;;;;;;;0.6290475;-0.13940856;-0.006836146;;;;;1563.2
1742.0;1661.3;;;;;;;;;;;;;;;;;-100.417336;-23.224586;-39.101837;;1572.8
1742.0;1661.3;;;;;;;;;;;;;;0.62355417;-0.15149388;-0.034546953;;;;;1572.8
1742.0;1661.3;;;;;;;;;;;;;;;;;-98.51757;-23.52214;-34.66521;;1572.8
1742.0;1661.3;;;;;;;;;;;;;;0.6241646;-0.15424055;-0.04358043;;;;;1572.8
1742.0;1661.3;;;;;;;;;;;;;;;;;-96.736046;-23.262733;-29.869991;;1582.3
1742.0;1661.3;;;;;;;;;;;;;;0.6225166;-0.17682424;-0.048036136;;;;;1582.3
1742.0;1661.3;;;;;;;;;;;;;;;;;-94.843895;-22.808771;-24.899288;;1582.3
1742.0;1661.3;;;;;;;;;;;;;;0.62135684;-0.18158513;-0.047608875;;;;;1582.3
1742.0;1662.8;262143;262143;11480;;;;;;;;;;;;;;;;;;
1796.0;1668.8;;;;;;;;;;;;;;;;;-92.40623;-22.679068;-19.596697;;1591.9
1796.0;1668.8;;;;;;;;;;;;;;0.6191595;-0.18146306;-0.05017243;;;;;1591.9
1796.0;1668.8;;;;;;;;;;;;;;;;;-89.08734;-22.835474;-14.01944;;1591.9
1796.0;1668.8;;;;;;;;;;;;;;0.6252022;-0.1937315;-0.059144873;;;;;1591.9
1796.0;1668.8;;;;;;;;;;;;;;;;;-83.31934;-22.999512;-9.559923;;1601.6
1796.0;1668.8;;;;;;;;;;;;;;0.6394848;-0.1906186;-0.06427198;;;;;1601.6
1796.0;1668.8;;;;;;;;;;;;;;;;;-77.421646;-22.656178;-4.379406;;1601.6
1796.0;1668.8;;;;;;;;;;;;;;0.65431684;-0.1734672;-0.06323435;;;;;1601.6
1796.0;1668.8;;;;;;;;;;;;;;;;;-72.4395;-22.766808;1.6136662;;1611.2
1796.0;1668.8;;;;;;;;;;;;;;0.67281103;-0.1734672;-0.08716086;;;;;1611.2
1796.0;1668.8;;;;;;;;;;;;;;;;;-66.04206;-21.443068;7.3397017;;1611.2
1796.0;1668.8;;;;;;;;;;;;;;0.687582;-0.17090365;-0.10846278;;;;;1611.2
1796.0;1670.2;;;;-0.66875845;-0.0011672975;-0.71744543;;;;;;;;;;;;;;;
1796.0;1670.2;;;;-0.66579825;-0.0024642947;-0.7231484;;;;;;;;;;;;;;;
1796.0;1670.2;;;;-0.6588326;-0.0098342905;-0.7272263;;;;;;;;;;;;;;;
1796.0;1670.2;;;;-0.652649;-0.015506746;-0.73523337;;;;;;;;;;;;;;;
1796.0;1670.2;;;;-0.65113455;-0.014614107;-0.74081045;;;;;;;;;;;;;;;
1796.0;1680.2;;;;-0.64267355;-0.017234804;-0.7450066;;;;;;;;;;;;;;;
1796.0;1680.2;;;;-0.63769156;-0.017208101;-0.7502595;;;;;;;;;;;;;;;
1796.0;1680.2;;;;-0.6332093;-0.014743807;-0.7523881;;;;;;;;;;;;;;;
1796.0;1680.2;;;;-0.6268998;-0.01325226;-0.75400937;;;;;;;;;;;;;;;
1796.0;1680.2;;;;-0.6229592;-0.013641359;-0.7548257;;;;;;;;;;;;;;;
1796.0;1682.9;262143;262143;11481;;;;;;;;;;;;;;;;;;
1799.0;1688.9;;;;;;;;;;;;;3578;;;;;;;;
1799.0;1688.9;;;;;;;;;;;;;3243;;;;;;;;
1799.0;1688.9;;;;;;;;;;;;;2761;;;;;;;;
1799.0;1688.9;;;;;;;;;;;;;2533;;;;;;;;
1799.0;1688.9;;;;;;;;;;;;;2415;;;;;;;;
1799.0;1690.0;;;;-0.61928946;-0.016227724;-0.75532544;;;;;;;;;;;;;;;
1799.0;1690.0;;;;-0.62221915;-0.014247896;-0.7570802;;;;;;;;;;;;;;;
1799.0;1690.0;;;;-0.6269875;-0.011592866;-0.75611126;;;;;;;;;;;;;;;
1799.0;1690.0;;;;-0.6306382;-0.0069122324;-0.75618374;;;;;;;;;;;;;;;
1799.0;1690.0;;;;-0.6266518;-0.008659364;-0.75720227;;;;;;;;;;;;;;;
1799.0;1700.1;;;;-0.62178427;-0.011241914;-0.7584306;;;;;;;;;;;;;;;
1799.0;1700.1;;;;-0.6219445;-0.010776521;-0.76080334;;;;;;;;;;;;;;;
1799.0;1700.1;;;;-0.622696;-0.010513307;-0.7632104;;;;;;;;;;;;;;;
1799.0;1700.1;;;;-0.6234017;-0.0114974985;-0.7674333;;;;;;;;;;;;;;;
1799.0;1700.1;;;;-0.6294709;-0.008655549;-0.77347577;;;;;;;;;;;;;;;
1799.0;1702.9;262143;262143;11490;;;;;;;;;;;;;;;;;;
1799.0;1710.3;;;;-0.6337548;-0.0076293955;-0.7752267;;;;;;;;;;;;;;;
1799.0;1710.3;;;;-0.63327795;-0.009658814;-0.7766801;;;;;;;;;;;;;;;
1799.0;1710.3;;;;-0.632351;-0.00858307;-0.7776948;;;;;;;;;;;;;;;
1799.0;1710.3;;;;-0.6276322;-0.007106782;-0.7803956;;;;;;;;;;;;;;;
1799.0;1710.3;;;;-0.61575323;-0.012458803;-0.7841455;;;;;;;;;;;;;;;
1815.0;1720.4;;;;-0.60480505;-0.019283297;-0.7911111;;;;;;;;;;;;;;;
1815.0;1720.4;;;;-0.59673315;-0.024974827;-0.79605496;;;;;;;;;;;;;;;
1815.0;1720.4;;;;-0.591755;-0.028110508;-0.80202115;;;;;;;;;;;;;;;
1815.0;1720.4;;;;-0.58936316;-0.028491978;-0.8065301;;;;;;;;;;;;;;;
1815.0;1720.4;;;;-0.59011465;-0.026649479;-0.8084756;;;;;;;;;;;;;;;
1815.0;1721.3;;;;;;;;;;;;;;;;;-59.781948;-18.93292;11.890775;;1620.9
1815.0;1721.3;;;;;;;;;;;;;;0.70973843;-0.15979491;-0.124332406;;;;;1620.9
1815.0;1721.3;;;;;;;;;;;;;;;;;-52.678764;-16.090885;17.620625;;1620.9
1815.0;1721.3;;;;;;;;;;;;;;0.7190161;-0.13904233;-0.13788262;;;;;1620.9
1815.0;1721.3;;;;;;;;;;;;;;;;;-46.50258;-12.600329;22.518845;;1630.5
1815.0;1721.3;;;;;;;;;;;;;;0.72939235;-0.10913419;-0.13934751;;;;;1630.5
1815.0;1721.3;;;;;;;;;;;;;;;;;-40.803246;-9.5675535;26.825771;;1630.5
1815.0;1721.3;;;;;;;;;;;;;;0.7384869;-0.07470931;-0.13183996;;;;;1630.5
1815.0;1721.3;;;;;;;;;;;;;;;;;-34.802544;-7.488479;31.102177;;1640.2
1815.0;1721.3;;;;;;;;;;;;;;0.75936157;-0.07373272;-0.12750633;;;;;1640.2
1815.0;1721.3;;;;;;;;;;;;;;;;;-25.379955;-6.7979984;35.83636;;1640.2
1815.0;1721.3;;;;;;;;;;;;;;0.7857295;-0.065858945;-0.13275552;;;;;1640.2
1818.0;1722.5;;;;;;;;;;;;;;;;;-12.726218;-10.528886;42.630543;;1649.8
1818.0;1722.5;;;;;;;;;;;;;;0.8091067;-0.039246805;-0.151677;;;;;1649.8
1818.0;1722.5;;;;;;;;;;;;;;;;;-0.553148;-16.08707;49.241615;;1649.8
1818.0;1722.5;;;;;;;;;;;;;;0.858974;0.012939848;-0.16431166;;;;;1649.8
1818.0;1722.5;;;;;;;;;;;;;;;;;10.204626;-17.765587;55.11643;;1659.4
1818.0;1722.5;;;;;;;;;;;;;;0.9005402;0.08282723;-0.1605884;;;;;1659.4
1818.0;1722.5;;;;;;;;;;;;;;;;;21.130253;-15.949736;58.77102;;1659.4
1818.0;1722.5;;;;;;;;;;;;;;0.92013305;0.18860438;-0.13000885;;;;;1659.4
1818.0;1722.5;;;;;;;;;;;;;;;;;31.147953;-15.659811;61.494797;;1669.1
1818.0;1722.5;;;;;;;;;;;;;;0.88216805;0.2971282;-0.08148442;;;;;1669.1
1818.0;1722.5;;;;;;;;;;;;;;;;;39.07132;-17.990662;61.46046;;1669.1
1818.0;1722.5;;;;;;;;;;;;;;0.86703086;0.45454267;-0.05053865;;;;;1669.1
1818.0;1722.8;262143;262143;11488;;;;;;;;;;;;;;;;;;
1818.0;1729.0;;;;;;;;;;;;;2244;;;;;;;;
1818.0;1729.0;;;;;;;;;;;;;2226;;;;;;;;
1818.0;1729.0;;;;;;;;;;;;;2652;;;;;;;;
1818.0;1729.0;;;;;;;;;;;;;3368;;;;;;;;
1818.0;1729.0;;;;;;;;;;;;;3869;;;;;;;;
1818.0;1730.1;;;;-0.59239966;-0.024391178;-0.80762494;;;;;;;;;;;;;;;
1818.0;1730.1;;;;-0.59383017;-0.023769382;-0.80554974;;;;;;;;;;;;;;;
1818.0;1730.1;;;;-0.59886175;-0.019641878;-0.80443585;;;;;;;;;;;;;;;
1818.0;1730.1;;;;-0.6028481;-0.015373232;-0.8029634;;;;;;;;;;;;;;;
1818.0;1730.1;;;;-0.6032601;-0.012279512;-0.7991334;;;;;;;;;;;;;;;
1856.0;1739.4;;;;;;;;;;-0.21362957;14.831996;-2.166814;;;;;;;;;
1856.0;1739.4;;;;;;;0.5583056;-0.015930662;-0.5023957;;;;;;;;;;;;
1856.0;1739.4;;;;;;;;;;6.9086275;34.924618;7.7249975;;;;;;;;;
1856.0;1739.4;;;;;;;0.6367382;-0.019775994;-0.573809;;;;;;;;;;;;
1856.0;1740.1;;;;-0.6005364;-0.011856081;-0.79896176;;;;;;;;;;;;;;;
1856.0;1740.1;;;;-0.6020356;-0.0099220285;-0.7995645;;;;;;;;;;;;;;;
1856.0;1740.1;;;;-0.60360724;-0.010498048;-0.8003808;;;;;;;;;;;;;;;
1856.0;1740.1;;;;-0.6076241;-0.00946808;-0.8035852;;;;;;;;;;;;;;;
1856.0;1740.1;;;;-0.61217123;-0.007999421;-0.8088838;;;;;;;;;;;;;;;
1856.0;1743.0;262143;262143;11497;;;;;;;;;;;;;;;;;;
1856.0;1748.9;;;;;;;;;;-0.24414808;7.133702;5.0202947;;;;;;;;;
1856.0;1748.9;;;;;;;0.64406264;-0.023377178;-0.582049;;;;;;;;;;;;
1856.0;1748.9;;;;;;;;;;-1.6327403;18.002106;10.830256;;;;;;;;;
1856.0;1748.9;;;;;;;0.64644307;-0.02642903;-0.5849177;;;;;;;;;;;;
1856.0;1750.1;;;;-0.6143761;-0.0069084177;-0.817238;;;;;;;;;;;;;;;
1856.0;1750.1;;;;-0.6130753;-0.005882264;-0.82553875;;;;;;;;;;;;;;;
1856.0;1750.1;;;;-0.6104165;-0.0060005197;-0.8343202;;;;;;;;;;;;;;;
1856.0;1750.1;;;;-0.61074835;-0.0054702763;-0.8456613;;;;;;;;;;;;;;;
1856.0;1750.1;;;;-0.6140786;-0.00271225;-0.8549882;;;;;;;;;;;;;;;
1856.0;1758.3;;;;;;;;;;-6.7369614;25.894955;17.571032;;;;;;;;;
1856.0;1758.3;;;;;;;0.6520585;-0.029663991;-0.5889462;;;;;;;;;;;;
1856.0;1758.3;;;;;;;;;;-17.647327;-9.578998;-0.90411085;;;;;;;;;
1856.0;1758.3;;;;;;;0.6575518;-0.034913175;-0.5890683;;;;;;;;;;;;
1862.0;1760.1;;;;-0.61708456;7.1716314E-4;-0.8618051;;;;;;;;;;;;;;;
1862.0;1760.1;;;;-0.619587;0.0036125188;-0.86844265;;;;;;;;;;;;;;;
1862.0;1760.1;;;;-0.62081534;0.006347657;-0.8730966;;;;;;;;;;;;;;;
1862.0;1760.1;;;;-0.623169;0.009750367;-0.876999;;;;;;;;;;;;;;;
1862.0;1760.1;;;;-0.6262055;0.013256075;-0.88009655;;;;;;;;;;;;;;;
1862.0;1763.0;262143;262143;11502;;;;;;;;;;;;;;;;;;
1862.0;1768.0;;;;;;;;;;-23.155918;-9.296701;1.33137;;;;;;;;;
1862.0;1768.0;;;;;;;0.66670734;-0.037720878;-0.5913877;;;;;;;;;;;;
1862.0;1768.0;;;;;;;;;;-28.382214;-9.258553;3.952147;;;;;;;;;
1862.0;1768.0;;;;;;;0.67647326;-0.035767693;-0.5944395;;;;;;;;;;;;
1862.0;1769.1;;;;;;;;;;;;;4030;;;;;;;;
1862.0;1769.1;;;;;;;;;;;;;3973;;;;;;;;
1862.0;1769.1;;;;;;;;;;;;;3512;;;;;;;;
1862.0;1769.1;;;;;;;;;;;;;2862;;;;;;;;
1862.0;1769.1;;;;;;;;;;;;;3421;;;;;;;;
1862.0;1770.2;;;;-0.63047415;0.017219545;-0.8830873;;;;;;;;;;;;;;;
1862.0;1770.2;;;;-0.63486487;0.020797731;-0.88793194;;;;;;;;;;;;;;;
1862.0;1770.2;;;;-0.63953024;0.023624424;-0.8932687;;;;;;;;;;;;;;;
1862.0;1770.2;;;;-0.64490896;0.025650028;-0.8989259;;;;;;;;;;;;;;;
1862.0;1770.2;;;;-0.65056616;0.027759556;-0.90402997;;;;;;;;;;;;;;;
1862.0;1777.6;;;;;;;;;;-33.09351;-3.2425916;11.291848;;;;;;;;;
1862.0;1777.6;;;;;;;0.6877041;-0.032593768;-0.60554826;;;;;;;;;;;;
1862.0;1777.6;;;;;;;;;;-34.15021;5.2491837;18.875698;;;;;;;;;
1862.0;1777.6;;;;;;;0.7029023;-0.027954955;-0.6161687;;;;;;;;;;;;
1864.0;1780.3;;;;-0.6574097;0.029537205;-0.909546;;;;;;;;;;;;;;;
1864.0;1780.3;;;;-0.6648713;0.031162266;-0.9145814;;;;;;;;;;;;;;;
1864.0;1780.3;;;;-0.673008;0.03250504;-0.9176675;;;;;;;;;;;;;;;
1864.0;1780.3;;;;-0.6801415;0.03369904;-0.9189912;;;;;;;;;;;;;;;
1864.0;1780.3;;;;-0.68583685;0.034904484;-0.9193765;;;;;;;;;;;;;;;
1864.0;1781.6;;;;;;;;;;;;;;;;;44.282356;-17.139957;60.541092;;1678.7
1864.0;1781.6;;;;;;;;;;;;;;0.85799736;0.56910914;-0.029969176;;;;;1678.7
1864.0;1781.6;;;;;;;;;;;;;;;;;47.11295;-11.806849;58.050022;;1678.7
1864.0;1781.6;;;;;;;;;;;;;;0.88680685;0.65773493;0.04260384;;;;;1678.7
1864.0;1781.6;;;;;;;;;;;;;;;;;46.42628;-8.064516;53.91095;;1688.3
1864.0;1781.6;;;;;;;;;;;;;;0.9576708;0.7629017;0.07538072;;;;;1688.3
1864.0;1781.6;;;;;;;;;;;;;;;;;38.83862;0.022888882;49.90539;;1688.3
1864.0;1781.6;;;;;;;;;;;;;;0.9889828;0.816187;0.049256876;;;;;1688.3
1864.0;1781.6;;;;;;;;;;;;;;;;;33.29188;12.703329;43.977173;;1697.9
1864.0;1781.6;;;;;;;;;;;;;;0.9632252;0.8417005;0.024475845;;;;;1697.9
1864.0;1781.6;;;;;;;;;;;;;;;;;25.028992;16.869106;36.545914;;1697.9
1864.0;1781.6;;;;;;;;;;;;;;0.96499527;0.9053011;-0.054750208;;;;;1697.9
1868.0;1782.4;;;;;;;;;;;;;;;;;17.50618;14.751884;29.644918;;1707.5
1868.0;1782.4;;;;;;;;;;;;;;0.9897763;0.9370403;-0.08874783;;;;;1707.5
1868.0;1782.4;;;;;;;;;;;;;;;;;7.648701;6.4813685;23.907438;;1707.5
1868.0;1782.4;;;;;;;;;;;;;;1.0325632;0.9790948;-0.18634602;;;;;1707.5
1868.0;1782.4;;;;;;;;;;;;;;;;;0.13733329;-0.0839259;17.105623;;1717.2
1868.0;1782.4;;;;;;;;;;;;;;1.0899991;0.9878231;-0.23071994;;;;;1717.2
1868.0;1782.4;;;;;;;;;;;;;;;;;-7.4694057;-8.1331835;12.5125885;;1717.2
1868.0;1782.4;;;;;;;;;;;;;;1.1373638;0.9191565;-0.29389325;;;;;1717.2
1868.0;1782.4;;;;;;;;;;;;;;;;;-14.751884;-15.194403;8.663442;;1726.7
1868.0;1782.4;;;;;;;;;;;;;;1.145909;0.8288827;-0.35377055;;;;;1726.7
1868.0;1782.4;;;;;;;;;;;;;;;;;-22.12592;-21.553698;4.6845913;;1726.7
1868.0;1782.4;;;;;;;;;;;;;;1.130955;0.7477035;-0.39082003;;;;;1726.7
1868.0;1783.1;262143;262143;11498;;;;;;;;;;;;;;;;;;
1868.0;1787.1;;;;;;;;;;-33.310955;4.642628;18.452253;;;;;;;;;
1868.0;1787.1;;;;;;;0.7207251;-0.023377178;-0.6275826;;;;;;;;;;;;
1868.0;1787.1;;;;;;;;;;-32.216103;3.8567767;17.887661;;;;;;;;;
1868.0;1787.1;;;;;;;0.7305521;-0.01739555;-0.6355174;;;;;;;;;;;;
1868.0;1790.3;;;;-0.690239;0.03589249;-0.91764843;;;;;;;;;;;;;;;
1868.0;1790.3;;;;-0.69115454;0.035701755;-0.91282666;;;;;;;;;;;;;;;
1868.0;1790.3;;;;-0.68993;0.035320286;-0.90664685;;;;;;;;;;;;;;;
1868.0;1790.3;;;;-0.6897431;0.03609467;-0.89836895;;;;;;;;;;;;;;;
1868.0;1790.3;;;;-0.69216543;0.036911014;-0.8891412;;;;;;;;;;;;;;;
1919.0;1796.6;;;;;;;;;;-31.029694;2.8382213;17.91055;;;;;;;;;
1919.0;1796.6;;;;;;;0.72670674;-0.013183996;-0.64387953;;;;;;;;;;;;
1919.0;1796.6;;;;;;;;;;-29.793695;1.3046663;18.459883;;;;;;;;;
1919.0;1796.6;;;;;;;0.7376934;-0.016541032;-0.65199745;;;;;;;;;;;;
1919.0;1800.2;;;;-0.69510657;0.037944797;-0.8803445;;;;;;;;;;;;;;;
1919.0;1800.2;;;;-0.6969567;0.038887028;-0.8729211;;;;;;;;;;;;;;;
1919.0;1800.2;;;;-0.6966706;0.038757328;-0.8669778;;;;;;;;;;;;;;;
1919.0;1800.2;;;;-0.6948548;0.03818131;-0.85925305;;;;;;;;;;;;;;;
1919.0;1800.2;;;;-0.69507605;0.03733063;-0.8498727;;;;;;;;;;;;;;;
1919.0;1803.3;262143;262143;11507;;;;;;;;;;;;;;;;;;
1919.0;1806.2;;;;;;;;;;-28.534807;-0.6065554;18.471329;;;;;;;;;
1919.0;1806.2;;;;;;;0.75478375;-0.021607105;-0.6596271;;;;;;;;;;;;
1919.0;1806.2;;;;;;;;;;-27.104252;-2.6741846;18.04407;;;;;;;;;
1919.0;1806.2;;;;;;;0.766686;-0.025147252;-0.6659139;;;;;;;;;;;;
1919.0;1809.3;;;;;;;;;;;;;5840;;;;;;;;
1919.0;1809.3;;;;;;;;;;;;;6074;;;;;;;;
1919.0;1809.3;;;;;;;;;;;;;-1420;;;;;;;;
1919.0;1809.3;;;;;;;;;;;;;-13245;;;;;;;;
1919.0;1809.3;;;;;;;;;;;;;-17377;;;;;;;;
1919.0;1810.2;;;;-0.6983796;0.037040714;-0.83869565;;;;;;;;;;;;;;;
1919.0;1810.2;;;;-0.7051049;0.037689213;-0.82325375;;;;;;;;;;;;;;;
1919.0;1810.2;;;;-0.71376806;0.038593296;-0.80542386;;;;;;;;;;;;;;;
1919.0;1810.2;;;;-0.7233048;0.03821564;-0.7917253;;;;;;;;;;;;;;;
1919.0;1810.2;;;;-0.73073965;0.03704453;-0.7791444;;;;;;;;;;;;;;;
1921.0;1815.6;;;;;;;;;;-25.704214;-5.22248;18.147068;;;;;;;;;
1921.0;1815.6;;;;;;;0.77822196;-0.03357036;-0.6785485;;;;;;;;;;;;
1921.0;1815.6;;;;;;;;;;-24.28892;-8.384961;18.65444;;;;;;;;;
1921.0;1815.6;;;;;;;0.7856685;-0.044740137;-0.6922208;;;;;;;;;;;;
1921.0;1820.2;;;;-0.7362557;0.03615952;-0.7651216;;;;;;;;;;;;;;;
1921.0;1820.2;;;;-0.7382546;0.03475571;-0.7520448;;;;;;;;;;;;;;;
1921.0;1820.2;;;;-0.73626715;0.032638554;-0.741108;;;;;;;;;;;;;;;
1921.0;1820.2;;;;-0.7322274;0.029106144;-0.73502356;;;;;;;;;;;;;;;
1921.0;1820.2;;;;-0.72523123;0.023830418;-0.7335091;;;;;;;;;;;;;;;
1921.0;1823.3;262143;262143;11506;;;;;;;;;;;;;;;;;;
1921.0;1825.2;;;;;;;;;;-22.804956;-11.745811;19.27244;;;;;;;;;
1921.0;1825.2;;;;;;;0.78725547;-0.052308727;-0.70332956;;;;;;;;;;;;
1921.0;1825.2;;;;;;;;;;-21.542253;-15.221107;20.039215;;;;;;;;;
1921.0;1825.2;;;;;;;0.7917722;-0.062440872;-0.7126072;;;;;;;;;;;;
1921.0;1830.3;;;;-0.7159348;0.017623903;-0.7336388;;;;;;;;;;;;;;;
1921.0;1830.3;;;;-0.70738226;0.01211548;-0.7344628;;;;;;;;;;;;;;;
1921.0;1830.3;;;;-0.7013436;0.006977082;-0.7364312;;;;;;;;;;;;;;;
1921.0;1830.3;;;;-0.69694144;0.0014915469;-0.7408982;;;;;;;;;;;;;;;
1921.0;1830.3;;;;-0.69058233;-0.0026168826;-0.7471581;;;;;;;;;;;;;;;
1921.0;1834.8;;;;;;;;;;-20.516068;-18.574327;20.714437;;;;;;;;;
1921.0;1834.8;;;;;;;0.78017515;-0.06695761;-0.7309793;;;;;;;;;;;;
1921.0;1834.8;;;;;;;;;;-19.943846;-20.977661;21.645254;;;;;;;;;
1921.0;1834.8;;;;;;;0.77962583;-0.07525864;-0.7401349;;;;;;;;;;;;
1926.0;1840.4;;;;-0.6841889;-0.0062675485;-0.75413907;;;;;;;;;;;;;;;
1926.0;1840.4;;;;-0.6835633;-0.0049171452;-0.76033413;;;;;;;;;;;;;;;
1926.0;1840.4;;;;-0.68682104;-0.006210328;-0.76659787;;;;;;;;;;;;;;;
1926.0;1840.4;;;;-0.6872788;-0.007904054;-0.77368176;;;;;;;;;;;;;;;
1926.0;1840.4;;;;-0.6910706;-0.0062294016;-0.7813684;;;;;;;;;;;;;;;
1926.0;1841.7;;;;;;;;;;;;;;;;;-29.450363;-28.160954;2.1553698;;1736.4
1926.0;1841.7;;;;;;;;;;;;;;1.0681478;0.6659139;-0.43024996;;;;;1736.4
1926.0;1841.7;;;;;;;;;;;;;;;;;-37.415695;-34.23032;1.5221107;;1736.4
1926.0;1841.7;;;;;;;;;;;;;;0.9456465;0.5861995;-0.4577166;;;;;1736.4
1926.0;1841.7;;;;;;;;;;;;;;;;;-44.255653;-42.80221;2.8611102;;1746.0
1926.0;1841.7;;;;;;;;;;;;;;0.79250467;0.47578356;-0.49049348;;;;;1746.0
1926.0;1841.7;;;;;;;;;;;;;;;;;-45.083466;-53.041172;3.1853695;;1746.0
1926.0;1841.7;;;;;;;;;;;;;;0.7104099;0.37165442;-0.4557024;;;;;1746.0
1926.0;1841.7;;;;;;;;;;;;;;;;;-44.79354;-57.229836;3.4104435;;1755.7
1926.0;1841.7;;;;;;;;;;;;;;0.5916318;0.31977293;-0.43617055;;;;;1755.7
1926.0;1841.7;;;;;;;;;;;;;;;;;-42.023987;-61.36128;3.238777;;1755.7
1926.0;1841.7;;;;;;;;;;;;;;0.501175;0.22595905;-0.42817467;;;;;1755.7
1928.0;1842.6;;;;;;;;;;;;;;;;;-35.168766;-64.046906;2.6551104;;1765.4
1928.0;1842.6;;;;;;;;;;;;;;0.4588763;0.14508499;-0.43586534;;;;;1765.4
1928.0;1842.6;;;;;;;;;;;;;;;;;-26.161993;-65.54613;4.932554;;1765.4
1928.0;1842.6;;;;;;;;;;;;;;0.41132846;0.08221687;-0.40449232;;;;;1765.4
1928.0;1842.6;;;;;;;;;;;;;;;;;-20.554216;-67.61376;10.608997;;1775.0
1928.0;1842.6;;;;;;;;;;;;;;0.34479812;0.026856288;-0.33466598;;;;;1775.0
1928.0;1842.6;;;;;;;;;;;;;;;;;-27.623066;-72.191536;16.640219;;1775.0
1928.0;1842.6;;;;;;;;;;;;;;0.29841;-0.040650655;-0.25898007;;;;;1775.0
1928.0;1842.6;;;;;;;;;;;;;;;;;-48.406174;-76.857056;22.347178;;1784.6
1928.0;1842.6;;;;;;;;;;;;;;0.3287454;-0.14923552;-0.16345714;;;;;1784.6
1928.0;1842.6;;;;;;;;;;;;;;;;;-71.40568;-74.96872;28.24488;;1784.6
1928.0;1842.6;;;;;;;;;;;;;;0.48402357;-0.22943816;0.056031983;;;;;1784.6
1928.0;1843.3;262143;262143;11504;;;;;;;;;;;;;;;;;;
1928.0;1844.2;;;;;;;;;;-19.188513;-21.91229;21.80166;;;;;;;;;
1928.0;1844.2;;;;;;;0.7941527;-0.090823084;-0.73512983;;;;;;;;;;;;
1928.0;1844.2;;;;;;;;;;-18.246254;-21.164587;20.867031;;;;;;;;;
1928.0;1844.2;;;;;;;0.81264687;-0.10357982;-0.72688985;;;;;;;;;;;;
1928.0;1849.3;;;;;;;;;;;;;-7737;;;;;;;;
1928.0;1849.3;;;;;;;;;;;;;7235;;;;;;;;
1928.0;1849.3;;;;;;;;;;;;;14354;;;;;;;;
1928.0;1849.3;;;;;;;;;;;;;10799;;;;;;;;
1928.0;1849.3;;;;;;;;;;;;;4438;;;;;;;;
1929.0;1850.2;;;;-0.6952897;-0.0064849863;-0.787346;;;;;;;;;;;;;;;
1929.0;1850.2;;;;-0.6993485;-0.005199433;-0.79187024;;;;;;;;;;;;;;;
1929.0;1850.2;;;;-0.7028962;-0.00302887;-0.7978288;;;;;;;;;;;;;;;
1929.0;1850.2;;;;-0.7021523;-0.0016746523;-0.8072282;;;;;;;;;;;;;;;
1929.0;1850.2;;;;-0.69466406;-0.0037498479;-0.8197633;;;;;;;;;;;;;;;
1929.0;1853.7;;;;;;;;;;-17.471846;-18.84518;20.218512;;;;;;;;;
1929.0;1853.7;;;;;;;0.81173134;-0.10834071;-0.71730703;;;;;;;;;;;;
1929.0;1853.7;;;;;;;;;;-16.727959;-16.956846;20.828882;;;;;;;;;
1929.0;1853.7;;;;;;;0.7905515;-0.10211493;-0.7124241;;;;;;;;;;;;
1929.0;1860.2;;;;-0.68456274;-0.0066452036;-0.8322793;;;;;;;;;;;;;;;
1929.0;1860.2;;;;-0.6773873;-0.00883484;-0.84079754;;;;;;;;;;;;;;;
1929.0;1860.2;;;;-0.6734887;-0.01090622;-0.8437463;;;;;;;;;;;;;;;
1929.0;1860.2;;;;-0.6704827;-0.010810853;-0.8429376;;;;;;;;;;;;;;;
1929.0;1860.2;;;;-0.6688767;-0.008380891;-0.8561784;;;;;;;;;;;;;;;
1929.0;1863.3;;;;;;;;;;-16.319773;-16.861477;22.28614;;;;;;;;;
1929.0;1863.3;;;;;;;0.778283;-0.09967345;-0.7066866;;;;;;;;;;;;
1929.0;1863.3;;;;;;;;;;-16.277811;-18.337809;23.266548;;;;;;;;;
1929.0;1863.3;;;;;;;0.77285075;-0.10412916;-0.69631034;;;;;;;;;;;;
1929.0;1863.4;262143;262143;11496;;;;;;;;;;;;;;;;;;
1977.0;1870.1;;;;-0.6614266;-0.008110047;-0.8910295;;;;;;;;;;;;;;;
1977.0;1870.1;;;;-0.6593514;-0.00971222;-0.9244653;;;;;;;;;;;;;;;
1977.0;1870.1;;;;-0.67247397;-0.007835389;-0.9442941;;;;;;;;;;;;;;;
1977.0;1870.1;;;;-0.6932793;-0.0028686526;-0.9565736;;;;;;;;;;;;;;;
1977.0;1870.1;;;;-0.7150536;0.0025520327;-0.97057736;;;;;;;;;;;;;;;
1977.0;1872.7;;;;;;;;;;-16.235847;-20.6534;24.048586;;;;;;;;;
1977.0;1872.7;;;;;;;0.7740104;-0.11017182;-0.68874174;;;;;;;;;;;;
1977.0;1872.7;;;;;;;;;;-15.945921;-23.01477;24.918362;;;;;;;;;
1977.0;1872.7;;;;;;;0.7865841;-0.11627552;-0.67592394;;;;;;;;;;;;
1977.0;1880.2;;;;-0.7348328;0.0064468393;-0.9879838;;;;;;;;;;;;;;;
1977.0;1880.2;;;;-0.74726874;0.006462098;-1.0048753;;;;;;;;;;;;;;;
1977.0;1880.2;;;;-0.7582971;0.009071351;-1.017006;;;;;;;;;;;;;;;
1977.0;1880.2;;;;-0.7686616;0.014549257;-1.0251542;;;;;;;;;;;;;;;
1977.0;1880.2;;;;-0.7754785;0.019653322;-1.0285531;;;;;;;;;;;;;;;
1977.0;1882.3;;;;;;;;;;-15.385143;-25.543993;25.4944;;;;;;;;;
1977.0;1882.3;;;;;;;0.79494613;-0.121768855;-0.6659139;;;;;;;;;;;;
1977.0;1882.3;;;;;;;;;;-14.591662;-27.703176;26.0094;;;;;;;;;
1977.0;1882.3;;;;;;;0.8077029;-0.12207404;-0.66945404;;;;;;;;;;;;
1977.0;1883.4;262143;262143;11505;;;;;;;;;;;;;;;;;;
1977.0;1889.5;;;;;;;;;;;;;1676;;;;;;;;
1977.0;1889.5;;;;;;;;;;;;;1444;;;;;;;;
1977.0;1889.5;;;;;;;;;;;;;884;;;;;;;;
1977.0;1889.5;;;;;;;;;;;;;151;;;;;;;;
1977.0;1889.5;;;;;;;;;;;;;-107;;;;;;;;
1979.0;1890.3;;;;-0.78154004;0.024642948;-1.0311929;;;;;;;;;;;;;;;
1979.0;1890.3;;;;-0.7849046;0.028789524;-1.0336839;;;;;;;;;;;;;;;
1979.0;1890.3;;;;-0.7840425;0.031974796;-1.0361367;;;;;;;;;;;;;;;
1979.0;1890.3;;;;-0.7807237;0.03423691;-1.0365983;;;;;;;;;;;;;;;
1979.0;1890.3;;;;-0.7768022;0.036521915;-1.034649;;;;;;;;;;;;;;;
1979.0;1891.9;;;;;;;;;;-13.5883665;-29.313028;26.406141;;;;;;;;;
1979.0;1891.9;;;;;;;0.81478316;-0.11456648;-0.68153936;;;;;;;;;;;;
1979.0;1891.9;;;;;;;;;;-12.432477;-30.526138;26.985992;;;;;;;;;
1979.0;1891.9;;;;;;;0.82216865;-0.10754723;-0.7003388;;;;;;;;;;;;
1979.0;1900.4;;;;-0.7724229;0.03892136;-1.0310632;;;;;;;;;;;;;;;
1979.0;1900.4;;;;-0.7670289;0.040580753;-1.0281984;;;;;;;;;;;;;;;
1979.0;1900.4;;;;-0.7624322;0.041931156;-1.0255777;;;;;;;;;;;;;;;
1979.0;1900.4;;;;-0.76158917;0.043197636;-1.0215608;;;;;;;;;;;;;;;
1979.0;1900.4;;;;-0.7637712;0.04448319;-1.0175325;;;;;;;;;;;;;;;
1979.0;1901.5;;;;;;;;;;-11.165959;-31.85751;27.470472;;;;;;;;;
1979.0;1901.5;;;;;;;0.8306528;-0.10699789;-0.71883297;;;;;;;;;;;;
1979.0;1901.5;;;;;;;;;;-9.73922;-33.669548;27.8634;;;;;;;;;
1979.0;1901.5;;;;;;;0.8316294;-0.10925627;-0.7356792;;;;;;;;;;;;
1980.0;1902.4;;;;;;;;;;;;;;;;;-82.22831;-68.15546;38.384655;;1794.2
1980.0;1902.4;;;;;;;;;;;;;;0.6745811;-0.27747428;0.25495163;;;;;1794.2
1980.0;1902.4;;;;;;;;;;;;;;;;;-75.84613;-51.549576;54.30769;;1794.2
1980.0;1902.4;;;;;;;;;;;;;;0.8647725;-0.30646688;0.41462448;;;;;1794.2
1980.0;1902.4;;;;;;;;;;;;;;;;;-61.368908;-40.253914;72.34794;;1803.8
1980.0;1902.4;;;;;;;;;;;;;;1.0746788;-0.37299722;0.5072787;;;;;1803.8
1980.0;1902.4;;;;;;;;;;;;;;;;;-39.66643;-54.097874;78.64238;;1803.8
1980.0;1902.4;;;;;;;;;;;;;;1.3415326;-0.37287515;0.45759454;;;;;1803.8
1980.0;1902.4;;;;;;;;;;;;;;;;;-11.76107;-72.22968;75.6058;;1813.5
1980.0;1902.4;;;;;;;;;;;;;;1.5648671;-0.1518601;0.22425;;;;;1813.5
1980.0;1902.4;;;;;;;;;;;;;;;;;16.758478;-66.38158;73.96542;;1813.5
1980.0;1902.4;;;;;;;;;;;;;;1.601062;0.018921476;-0.017456587;;;;;1813.5
1980.0;1903.2;;;;;;;;;;;;;;;;;38.583027;-46.6628;71.68798;;1823.0
1980.0;1903.2;;;;;;;;;;;;;;1.53679;0.18311106;-0.14758751;;;;;1823.0
1980.0;1903.2;;;;;;;;;;;;;;;;;47.055725;-41.108433;66.62954;;1823.0
1980.0;1903.2;;;;;;;;;;;;;;1.505478;0.3584704;-0.2365795;;;;;1823.0
1980.0;1903.2;;;;;;;;;;;;;;;;;45.957058;-53.3578;54.193245;;1832.7
1980.0;1903.2;;;;;;;;;;;;;;1.569567;0.5084994;-0.39118627;;;;;1832.7
1980.0;1903.2;;;;;;;;;;;;;;;;;52.896206;-60.57924;25.47151;;1832.7
1980.0;1903.2;;;;;;;;;;;;;;1.7249062;0.692465;-0.45558032;;;;;1832.7
1980.0;1903.2;;;;;;;;;;;;;;;;;63.32209;-59.850613;-12.310404;;1842.4
1980.0;1903.2;;;;;;;;;;;;;;1.9094211;0.93844414;-0.4350719;;;;;1842.4
1980.0;1903.2;;;;;;;;;;;;;;;;;58.49254;-65.59191;-48.27265;;1842.4
1980.0;1903.2;;;;;;;;;;;;;;1.9970702;1.4669638;-0.26136053;;;;;1842.4
1982.0;1903.6;262143;262143;11506;;;;;;;;;;;;;;;;;;
1982.0;1910.4;;;;-0.7675668;0.04620743;-1.0116807;;;;;;;;;;;;;;;
1982.0;1910.4;;;;-0.7722627;0.048458107;-1.0036889;;;;;;;;;;;;;;;
1982.0;1910.4;;;;-0.7764894;0.05028916;-0.9951364;;;;;;;;;;;;;;;
1982.0;1910.4;;;;-0.77909863;0.052265175;-0.9867364;;;;;;;;;;;;;;;
1982.0;1910.4;;;;-0.7807237;0.05521775;-0.977234;;;;;;;;;;;;;;;
1982.0;1911.0;;;;;;;;;;-8.266702;-35.260323;28.67214;;;;;;;;;
1982.0;1911.0;;;;;;;0.82631916;-0.11816767;-0.75807977;;;;;;;;;;;;
1982.0;1911.0;;;;;;;;;;-6.778924;-37.331768;29.770807;;;;;;;;;
1982.0;1911.0;;;;;;;0.82149726;-0.1246376;-0.7735832;;;;;;;;;;;;
1982.0;1920.4;;;;-0.78117;0.058055885;-0.96623623;;;;;;;;;;;;;;;
1982.0;1920.4;;;;-0.7813455;0.061286934;-0.955021;;;;;;;;;;;;;;;
1982.0;1920.4;;;;-0.78065884;0.065422066;-0.94425976;;;;;;;;;;;;;;;
1982.0;1920.4;;;;-0.77988064;0.06861497;-0.9338075;;;;;;;;;;;;;;;
1982.0;1920.4;;;;-0.7788507;0.071105964;-0.9252969;;;;;;;;;;;;;;;
1982.0;1920.6;;;;;;;;;;-5.5772576;-39.658802;30.541397;;;;;;;;;
1982.0;1920.6;;;;;;;0.8206427;-0.13013093;-0.79384744;;;;;;;;;;;;
1982.0;1920.6;;;;;;;;;;-4.9439983;-41.72262;30.671103;;;;;;;;;
1982.0;1920.6;;;;;;;0.8336436;-0.13672292;-0.81295204;;;;;;;;;;;;
1982.0;1923.7;262143;262143;11520;;;;;;;;;;;;;;;;;;
1982.0;1929.7;;;;;;;;;;;;;-222;;;;;;;;
1982.0;1929.7;;;;;;;;;;;;;-540;;;;;;;;
1982.0;1929.7;;;;;;;;;;;;;-1169;;;;;;;;
1982.0;1929.7;;;;;;;;;;;;;-1682;;;;;;;;
1982.0;1929.7;;;;;;;;;;;;;-1907;;;;;;;;
2038.0;1930.1;;;;;;;;;;-4.40611;-42.870876;30.327768;;;;;;;;;
2038.0;1930.1;;;;;;;0.8478652;-0.14496292;-0.8255257;;;;;;;;;;;;
2038.0;1930.1;;;;;;;;;;-3.9559617;-43.92758;30.259102;;;;;;;;;
2038.0;1930.1;;;;;;;0.85744804;-0.15057832;-0.8301645;;;;;;;;;;;;
2038.0;1930.5;;;;-0.7776948;0.07276154;-0.9183122;;;;;;;;;;;;;;;
2038.0;1930.5;;;;-0.7764627;0.073364265;-0.91064847;;;;;;;;;;;;;;;
2038.0;1930.5;;;;-0.7752992;0.07421876;-0.9037286;;;;;;;;;;;;;;;
2038.0;1930.5;;;;-0.7731744;0.07439042;-0.8963891;;;;;;;;;;;;;;;
2038.0;1930.5;;;;-0.769333;0.07395173;-0.8908731;;;;;;;;;;;;;;;
2038.0;1939.5;;;;;;;;;;-3.5859249;-45.274208;30.533768;;;;;;;;;
2038.0;1939.5;;;;;;;0.85726494;-0.1495407;-0.82650226;;;;;;;;;;;;
2038.0;1939.5;;;;;;;;;;-3.4981842;-46.594135;31.029694;;;;;;;;;
2038.0;1939.5;;;;;;;0.8608051;-0.1535081;-0.8149052;;;;;;;;;;;;
2038.0;1940.3;;;;-0.7627603;0.072998054;-0.8862039;;;;;;;;;;;;;;;
2038.0;1940.3;;;;-0.75483716;0.071464546;-0.88134396;;;;;;;;;;;;;;;
2038.0;1940.3;;;;-0.74485403;0.070278175;-0.875847;;;;;;;;;;;;;;;
2038.0;1940.3;;;;-0.73432547;0.06936646;-0.8687135;;;;;;;;;;;;;;;
2038.0;1940.3;;;;-0.7238503;0.06838227;-0.86234677;;;;;;;;;;;;;;;
2038.0;1943.7;262143;262143;11520;;;;;;;;;;;;;;;;;;
2038.0;1949.2;;;;;;;;;;-3.6202583;-47.16254;31.052584;;;;;;;;;
2038.0;1949.2;;;;;;;0.8727073;-0.15851314;-0.7932371;;;;;;;;;;;;
2038.0;1949.2;;;;;;;;;;-3.6927397;-45.842617;30.888546;;;;;;;;;
2038.0;1949.2;;;;;;;0.8792993;-0.16309091;-0.7678457;;;;;;;;;;;;
2040.0;1950.4;;;;-0.71444327;0.06777192;-0.8565179;;;;;;;;;;;;;;;
2040.0;1950.4;;;;-0.7072297;0.06702042;-0.8512918;;;;;;;;;;;;;;;
2040.0;1950.4;;;;-0.7011414;0.06629182;-0.84606564;;;;;;;;;;;;;;;
2040.0;1950.4;;;;-0.6958924;0.0654564;-0.84297955;;;;;;;;;;;;;;;
2040.0;1950.4;;;;-0.691063;0.064983375;-0.8408891;;;;;;;;;;;;;;;
2040.0;1958.8;;;;;;;;;;-3.8262582;-43.645287;30.831324;;;;;;;;;
2040.0;1958.8;;;;;;;0.8767968;-0.16443373;-0.74257636;;;;;;;;;;;;
2040.0;1958.8;;;;;;;;;;-4.0437026;-41.608173;30.751213;;;;;;;;;
2040.0;1958.8;;;;;;;0.8586688;-0.16479996;-0.7157811;;;;;;;;;;;;
2040.0;1960.6;;;;-0.6856957;0.06369019;-0.840294;;;;;;;;;;;;;;;
2040.0;1960.6;;;;-0.6810418;0.062068947;-0.8417741;;;;;;;;;;;;;;;
2040.0;1960.6;;;;-0.67659765;0.060573585;-0.8448869;;;;;;;;;;;;;;;
2040.0;1960.6;;;;-0.6721192;0.059299476;-0.84851086;;;;;;;;;;;;;;;
2040.0;1960.6;;;;-0.6676751;0.057373054;-0.85333264;;;;;;;;;;;;;;;
2041.0;1962.2;;;;;;;;;;;;;;;;;32.471695;-78.11975;-65.62243;;1852.0
2041.0;1962.2;;;;;;;;;;;;;;1.9970702;1.9280374;-0.27265236;;;;;1852.0
2041.0;1962.2;;;;;;;;;;;;;;;;;-34.600357;-34.39436;-47.1778;;1852.0
2041.0;1962.2;;;;;;;;;;;;;;1.9805902;1.9831538;-0.2113712;;;;;1852.0
2041.0;1962.2;;;;;;;;;;;;;;;;;-93.192085;42.77932;-11.352885;;1861.7
2041.0;1962.2;;;;;;;;;;;;;;1.423017;1.2806177;0.13605152;;;;;1861.7
2041.0;1962.2;;;;;;;;;;;;;;;;;-119.08323;60.171055;-17.410809;;1861.7
2041.0;1962.2;;;;;;;;;;;;;;1.0407422;0.85659355;0.4741966;;;;;1861.7
2041.0;1962.2;;;;;;;;;;;;;;;;;-124.988556;30.610065;-13.8859215;;1871.3
2041.0;1962.2;;;;;;;;;;;;;;0.96877956;0.4758446;0.37128818;;;;;1871.3
2041.0;1962.2;;;;;;;;;;;;;;;;;-124.988556;13.065737;-2.6779993;;1871.3
2041.0;1962.2;;;;;;;;;;;;;;1.0310984;0.114749596;0.17157505;;;;;1871.3
2041.0;1962.9;;;;;;;;;;;;;;;;;-124.988556;32.082584;5.981628;;1880.9
2041.0;1962.9;;;;;;;;;;;;;;1.0357982;-0.1312296;0.23261207;;;;;1880.9
2041.0;1962.9;;;;;;;;;;;;;;;;;-124.988556;56.94372;12.440107;;1880.9
2041.0;1962.9;;;;;;;;;;;;;;0.92306286;-0.3137913;0.43116552;;;;;1880.9
2041.0;1962.9;;;;;;;;;;;;;;;;;-124.988556;53.99106;15.9878845;;1890.6
2041.0;1962.9;;;;;;;;;;;;;;0.81258583;-0.36530656;0.49024934;;;;;1890.6
2041.0;1962.9;;;;;;;;;;;;;;;;;-124.86266;13.966033;30.129398;;1890.6
2041.0;1962.9;;;;;;;;;;;;;;0.7750481;-0.47126684;0.26728112;;;;;1890.6
2041.0;1962.9;;;;;;;;;;;;;;;;;-111.033966;-38.42662;50.44328;;1900.2
2041.0;1962.9;;;;;;;;;;;;;;0.82284003;-0.5983459;-0.14007996;;;;;1900.2
2041.0;1962.9;;;;;;;;;;;;;;;;;-74.751274;-64.374985;71.993164;;1900.2
2041.0;1962.9;;;;;;;;;;;;;;0.8550066;-0.6953337;-0.39002654;;;;;1900.2
2047.0;1963.8;262143;262143;11505;;;;;;;;;;;;;;;;;;
2047.0;1968.2;;;;;;;;;;-4.1962953;-40.30732;30.89999;;;;;;;;;
2047.0;1968.2;;;;;;;0.82503736;-0.16266365;-0.6910001;;;;;;;;;;;;
2047.0;1968.2;;;;;;;;;;-4.650258;-40.082245;31.182287;;;;;;;;;
2047.0;1968.2;;;;;;;0.8048341;-0.16327402;-0.66554767;;;;;;;;;;;;
2047.0;1969.7;;;;;;;;;;;;;-2225;;;;;;;;
2047.0;1969.7;;;;;;;;;;;;;-2807;;;;;;;;
2047.0;1969.7;;;;;;;;;;;;;-3562;;;;;;;;
2047.0;1969.7;;;;;;;;;;;;;-4261;;;;;;;;
2047.0;1969.7;;;;;;;;;;;;;-4649;;;;;;;;
2047.0;1970.3;;;;-0.6636582;0.056407936;-0.8587457;;;;;;;;;;;;;;;
2047.0;1970.3;;;;-0.6594849;0.054927833;-0.8633348;;;;;;;;;;;;;;;
2047.0;1970.3;;;;-0.65640646;0.053127296;-0.8693162;;;;;;;;;;;;;;;
2047.0;1970.3;;;;-0.6557961;0.053359993;-0.876053;;;;;;;;;;;;;;;
2047.0;1970.3;;;;-0.6554757;0.055133827;-0.8825952;;;;;;;;;;;;;;;
2047.0;1977.6;;;;;;;;;;-5.4857025;-40.795616;30.777916;;;;;;;;;
2047.0;1977.6;;;;;;;0.7833491;-0.16193122;-0.6533403;;;;;;;;;;;;
2047.0;1977.6;;;;;;;;;;-6.7102575;-41.85232;30.064547;;;;;;;;;
2047.0;1977.6;;;;;;;0.7706534;-0.15955077;-0.6390576;;;;;;;;;;;;
2047.0;1980.3;;;;-0.64703757;0.053298958;-0.8871461;;;;;;;;;;;;;;;
2047.0;1980.3;;;;-0.6408692;0.05413819;-0.8946954;;;;;;;;;;;;;;;
2047.0;1980.3;;;;-0.6353188;0.05551911;-0.8993417;;;;;;;;;;;;;;;
2047.0;1980.3;;;;-0.6300126;0.057395943;-0.9036561;;;;;;;;;;;;;;;
2047.0;1980.3;;;;-0.6246529;0.05988694;-0.90947354;;;;;;;;;;;;;;;
2047.0;1983.8;262143;262143;11520;;;;;;;;;;;;;;;;;;
2100.0;1987.2;;;;;;;;;;-7.9081087;-42.657246;29.0994;;;;;;;;;
2100.0;1987.2;;;;;;;0.7693716;-0.1556444;-0.6327708;;;;;;;;;;;;
2100.0;1987.2;;;;;;;;;;-9.071627;-43.11884;27.680288;;;;;;;;;
2100.0;1987.2;;;;;;;0.76723534;-0.1511887;-0.6263009;;;;;;;;;;;;
2100.0;1990.3;;;;-0.62136465;0.062465675;-0.91433346;;;;;;;;;;;;;;;
2100.0;1990.3;;;;-0.6185532;0.064788826;-0.9163972;;;;;;;;;;;;;;;
2100.0;1990.3;;;;-0.6178208;0.066883095;-0.9179002;;;;;;;;;;;;;;;
2100.0;1990.3;;;;-0.6198693;0.069335945;-0.92042935;;;;;;;;;;;;;;;
2100.0;1990.3;;;;-0.62346655;0.07220078;-0.9222032;;;;;;;;;;;;;;;
2100.0;1996.6;;;;;;;;;;-9.968108;-43.931396;26.562548;;;;;;;;;
2100.0;1996.6;;;;;;;0.7608875;-0.14337596;-0.6186102;;;;;;;;;;;;
2100.0;1996.6;;;;;;;;;;-10.708182;-45.415356;25.978882;;;;;;;;;
2100.0;1996.6;;;;;;;0.7543565;-0.1347087;-0.6102481;;;;;;;;;;;;
2100.0;2000.3;;;;-0.62793356;0.07540894;-0.9245645;;;;;;;;;;;;;;;
2100.0;2000.3;;;;-0.6331673;0.07819367;-0.9286958;;;;;;;;;;;;;;;
2100.0;2000.3;;;;-0.6388512;0.07960511;-0.9333154;;;;;;;;;;;;;;;
2100.0;2000.3;;;;-0.64415747;0.08007813;-0.9380952;;;;;;;;;;;;;;;
2100.0;2000.3;;;;-0.6474152;0.0803032;-0.9426843;;;;;;;;;;;;;;;
2100.0;2003.8;262143;262143;11511;;;;;;;;;;;;;;;;;;
2100.0;2006.2;;;;;;;;;;-11.299478;-47.074802;25.727104;;;;;;;;;
2100.0;2006.2;;;;;;;0.7500839;-0.12689596;-0.6075625;;;;;;;;;;;;
2100.0;2006.2;;;;;;;;;;-11.513107;-48.394726;25.814844;;;;;;;;;
2100.0;2006.2;;;;;;;0.75319684;-0.11535997;-0.6075625;;;;;;;;;;;;
2103.0;2009.8;;;;;;;;;;;;;-4627;;;;;;;;
2103.0;2009.8;;;;;;;;;;;;;-4316;;;;;;;;
2103.0;2009.8;;;;;;;;;;;;;-4072;;;;;;;;
2103.0;2009.8;;;;;;;;;;;;;-4226;;;;;;;;
2103.0;2009.8;;;;;;;;;;;;;-4521;;;;;;;;
2103.0;2010.4;;;;-0.64859396;0.07993699;-0.9456674;;;;;;;;;;;;;;;
2103.0;2010.4;;;;-0.647873;0.07990647;-0.9478036;;;;;;;;;;;;;;;
2103.0;2010.4;;;;-0.64706045;0.08049775;-0.9488069;;;;;;;;;;;;;;;
2103.0;2010.4;;;;-0.6496888;0.081550606;-0.95121014;;;;;;;;;;;;;;;
2103.0;2010.4;;;;-0.6555863;0.08343888;-0.95357525;;;;;;;;;;;;;;;
2103.0;2015.8;;;;;;;;;;-11.448256;-49.890133;26.326029;;;;;;;;;
2103.0;2015.8;;;;;;;0.75502795;-0.10504471;-0.60554826;;;;;;;;;;;;
2103.0;2015.8;;;;;;;;;;-11.242255;-51.59917;26.890623;;;;;;;;;
2103.0;2015.8;;;;;;;0.7500839;-0.10504471;-0.6081118;;;;;;;;;;;;
2103.0;2020.5;;;;-0.66304785;0.085952766;-0.95503247;;;;;;;;;;;;;;;
2103.0;2020.5;;;;-0.67057806;0.08895112;-0.95687497;;;;;;;;;;;;;;;
2103.0;2020.5;;;;-0.6763039;0.092269905;-0.9578515;;;;;;;;;;;;;;;
2103.0;2020.5;;;;-0.68072516;0.09609224;-0.9563409;;;;;;;;;;;;;;;
2103.0;2020.5;;;;-0.68547064;0.099922195;-0.95339215;;;;;;;;;;;;;;;
2104.0;2022.8;;;;;;;;;;;;;;;;;-40.8681;-72.70272;95.76327;;1909.9
2104.0;2022.8;;;;;;;;;;;;;;0.86141545;-0.76058227;-0.5071566;;;;;1909.9
2104.0;2022.8;;;;;;;;;;;;;;;;;-17.281105;-70.657974;118.057045;;1909.9
2104.0;2022.8;;;;;;;;;;;;;;0.8070925;-0.83028656;-0.55769527;;;;;1909.9
2104.0;2022.8;;;;;;;;;;;;;;;;;-1.5221107;-60.750908;124.74441;;1919.5
2104.0;2022.8;;;;;;;;;;;;;;0.7926878;-0.8109378;-0.51765496;;;;;1919.5
2104.0;2022.8;;;;;;;;;;;;;;;;;2.2278512;-45.083466;124.87792;;1919.5
2104.0;2022.8;;;;;;;;;;;;;;0.793054;-0.83028656;-0.44447157;;;;;1919.5
2104.0;2022.8;;;;;;;;;;;;;;;;;9.434034;-29.576252;116.47389;;1929.2
2104.0;2022.8;;;;;;;;;;;;;;0.8302255;-0.860622;-0.35804316;;;;;1929.2
2104.0;2022.8;;;;;;;;;;;;;;;;;17.044586;-18.62392;89.50697;;1929.2
2104.0;2022.8;;;;;;;;;;;;;;0.9351482;-0.70851773;-0.21216469;;;;;1929.2
2104.0;2023.4;;;;;;;;;;;;;;;;;8.068331;-10.986664;64.14991;;1938.8
2104.0;2023.4;;;;;;;;;;;;;;1.0431226;-0.48414564;-0.18182927;;;;;1938.8
2104.0;2023.4;;;;;;;;;;;;;;;;;13.508256;-4.20011;47.68136;;1938.8
2104.0;2023.4;;;;;;;;;;;;;;1.075106;-0.32538834;-0.1866512;;;;;1938.8
2104.0;2023.4;;;;;;;;;;;;;;;;;28.927732;-3.6965547;35.431988;;1948.3
2104.0;2023.4;;;;;;;;;;;;;;1.0927458;-0.14612262;-0.18024231;;;;;1948.3
2104.0;2023.4;;;;;;;;;;;;;;;;;32.04062;-7.534257;28.977325;;1948.3
2104.0;2023.4;;;;;;;;;;;;;;1.0967742;-0.01391644;-0.21143223;;;;;1948.3
2104.0;2023.4;;;;;;;;;;;;;;;;;27.188177;-13.843959;23.392437;;1958.0
2104.0;2023.4;;;;;;;;;;;;;;1.1044649;0.08459731;-0.27314067;;;;;1958.0
2104.0;2023.4;;;;;;;;;;;;;;;;;20.99292;-13.946959;9.11359;;1958.0
2104.0;2023.4;;;;;;;;;;;;;;1.1213111;0.21478927;-0.32581562;;;;;1958.0
2106.0;2023.9;262143;262143;11518;;;;;;;;;;;;;;;;;;
2106.0;2025.2;;;;;;;;;;-11.093478;-52.854244;27.592546;;;;;;;;;
2106.0;2025.2;;;;;;;0.7473983;-0.111880854;-0.6225776;;;;;;;;;;;;
2106.0;2025.2;;;;;;;;;;-11.001924;-53.388317;28.118992;;;;;;;;;
2106.0;2025.2;;;;;;;0.74703205;-0.12170782;-0.64265877;;;;;;;;;;;;
2106.0;2030.3;;;;-0.68972784;0.10387041;-0.95116436;;;;;;;;;;;;;;;
2106.0;2030.3;;;;-0.6932755;0.107181564;-0.9496423;;;;;;;;;;;;;;;
2106.0;2030.3;;;;-0.6965485;0.11096956;-0.9454423;;;;;;;;;;;;;;;
2106.0;2030.3;;;;-0.6999245;0.114799514;-0.9387666;;;;;;;;;;;;;;;
2106.0;2030.3;;;;-0.70252234;0.11940004;-0.93102276;;;;;;;;;;;;;;;
2106.0;2034.8;;;;;;;;;;-10.944701;-53.044987;28.408916;;;;;;;;;
2106.0;2034.8;;;;;;;0.75124365;-0.12317271;-0.66518146;;;;;;;;;;;;
2106.0;2034.8;;;;;;;;;;-10.74633;-51.98065;28.321177;;;;;;;;;
2106.0;2034.8;;;;;;;0.7624134;-0.12079226;-0.6868496;;;;;;;;;;;;
2106.0;2040.3;;;;-0.7037812;0.12384416;-0.92256176;;;;;;;;;;;;;;;
2106.0;2040.3;;;;-0.70288855;0.12788011;-0.91494;;;;;;;;;;;;;;;
2106.0;2040.3;;;;-0.7013207;0.13113786;-0.908291;;;;;;;;;;;;;;;
2106.0;2040.3;;;;-0.70049673;0.13470079;-0.9009172;;;;;;;;;;;;;;;
2106.0;2040.3;;;;-0.7009774;0.13881685;-0.8939401;;;;;;;;;;;;;;;
2106.0;2044.3;;;;;;;;;;-10.24659;-49.718464;27.82525;;;;;;;;;
2106.0;2044.3;;;;;;;0.7641224;-0.11481063;-0.69569993;;;;;;;;;;;;
2106.0;2044.3;;;;;;;;;;-9.659109;-47.05191;27.680288;;;;;;;;;
2106.0;2044.3;;;;;;;0.75307477;-0.10882901;-0.6913053;;;;;;;;;;;;
2159.0;2044.0;262143;262143;11514;;;;;;;;;;;;;;;;;;
2159.0;2049.8;;;;;;;;;;;;;-4263;;;;;;;;
2159.0;2049.8;;;;;;;;;;;;;-3345;;;;;;;;
2159.0;2049.8;;;;;;;;;;;;;-2328;;;;;;;;
2159.0;2049.8;;;;;;;;;;;;;-1600;;;;;;;;
2159.0;2049.8;;;;;;;;;;;;;-1095;;;;;;;;
2159.0;2050.3;;;;-0.7025109;0.14307405;-0.8871652;;;;;;;;;;;;;;;
2159.0;2050.3;;;;-0.7048264;0.14659883;-0.881672;;;;;;;;;;;;;;;
2159.0;2050.3;;;;-0.70730597;0.15013506;-0.87877667;;;;;;;;;;;;;;;
2159.0;2050.3;;;;-0.70847327;0.15242769;-0.8769418;;;;;;;;;;;;;;;
2159.0;2050.3;;;;-0.7084542;0.1535225;-0.8767129;;;;;;;;;;;;;;;
2159.0;2053.7;;;;;;;;;;-9.258553;-44.114506;27.996918;;;;;;;;;
2159.0;2053.7;;;;;;;0.7604602;-0.10913419;-0.6864833;;;;;;;;;;;;
2159.0;2053.7;;;;;;;;;;-8.7893305;-41.333508;27.84051;;;;;;;;;
2159.0;2053.7;;;;;;;0.771691;-0.12384411;-0.68636125;;;;;;;;;;;;
2159.0;2060.3;;;;-0.7084237;0.15514375;-0.87448514;;;;;;;;;;;;;;;
2159.0;2060.3;;;;-0.70725256;0.15675737;-0.8707925;;;;;;;;;;;;;;;
2159.0;2060.3;;;;-0.7041512;0.15800478;-0.86835873;;;;;;;;;;;;;;;
2159.0;2060.3;;;;-0.7012406;0.15897371;-0.8672143;;;;;;;;;;;;;;;
2159.0;2060.3;;;;-0.6987;0.16069795;-0.86507046;;;;;;;;;;;;;;;
2159.0;2063.3;;;;;;;;;;-8.529923;-40.64684;27.49336;;;;;;;;;
2159.0;2063.3;;;;;;;0.778283;-0.14825892;-0.69106114;;;;;;;;;;;;
2159.0;2063.3;;;;;;;;;;-8.033998;-39.899136;27.027956;;;;;;;;;
2159.0;2063.3;;;;;;;0.8064211;-0.16937773;-0.6933195;;;;;;;;;;;;
2159.0;2064.0;262143;262143;11533;;;;;;;;;;;;;;;;;;
2161.0;2070.4;;;;-0.6963349;0.1621361;-0.862671;;;;;;;;;;;;;;;
2161.0;2070.4;;;;-0.6931153;0.16390993;-0.8599397;;;;;;;;;;;;;;;
2161.0;2070.4;;;;-0.68824774;0.16541292;-0.8565217;;;;;;;;;;;;;;;
2161.0;2070.4;;;;-0.6834908;0.16682054;-0.85300076;;;;;;;;;;;;;;;
2161.0;2070.4;;;;-0.6787377;0.16781999;-0.84975445;;;;;;;;;;;;;;;
2161.0;2072.9;;;;;;;;;;-7.351146;-38.49147;25.77288;;;;;;;;;
2161.0;2072.9;;;;;;;0.84627825;-0.17950988;-0.692404;;;;;;;;;;;;
2161.0;2072.9;;;;;;;;;;-6.2448497;-35.56932;23.937956;;;;;;;;;
2161.0;2072.9;;;;;;;0.88595235;-0.18042544;-0.6917325;;;;;;;;;;;;
2161.0;2080.5;;;;-0.6745339;0.16925813;-0.8449174;;;;;;;;;;;;;;;
2161.0;2080.5;;;;-0.67050177;0.17033006;-0.8402177;;;;;;;;;;;;;;;
2161.0;2080.5;;;;-0.6664811;0.17117693;-0.83514416;;;;;;;;;;;;;;;
2161.0;2080.5;;;;-0.66198736;0.17179872;-0.83094037;;;;;;;;;;;;;;;
2161.0;2080.5;;;;-0.6564408;0.17144777;-0.82678616;;;;;;;;;;;;;;;
2164.0;2082.5;;;;;;;;;;;;;;;;;16.853848;-5.4017763;-7.683035;;1967.6
2164.0;2082.5;;;;;;;;;;;;;;1.1067842;0.34479812;-0.34736168;;;;;1967.6
2164.0;2082.5;;;;;;;;;;;;;;;;;14.839625;1.8692588;-22.785881;;1967.6
2164.0;2082.5;;;;;;;;;;;;;;1.0375073;0.5064241;-0.29273355;;;;;1967.6
2164.0;2082.5;;;;;;;;;;;;;;;;;4.1085544;1.6327403;-35.2031;;1977.3
2164.0;2082.5;;;;;;;;;;;;;;1.0283517;0.8506119;-0.20618305;;;;;1977.3
2164.0;2082.5;;;;;;;;;;;;;;;;;-7.698294;-5.7412944;-17.323069;;1977.3
2164.0;2082.5;;;;;;;;;;;;;;0.9906308;1.022126;-0.1902524;;;;;1977.3
2164.0;2082.5;;;;;;;;;;;;;;;;;-28.828547;-7.965331;17.380291;;1986.9
2164.0;2082.5;;;;;;;;;;;;;;0.88949245;0.83932006;-0.27118748;;;;;1986.9
2164.0;2082.5;;;;;;;;;;;;;;;;;-48.512985;-4.314554;38.563953;;1986.9
2164.0;2082.5;;;;;;;;;;;;;;0.7953734;0.51832634;-0.3221534;;;;;1986.9
2164.0;2082.5;;;;;;;;;;-4.753258;-31.40736;21.782587;;;;;;;;;
2164.0;2082.5;;;;;;;0.91940063;-0.18195136;-0.68947417;;;;;;;;;;;;
2164.0;2082.5;;;;;;;;;;-2.9450362;-27.596361;19.722586;;;;;;;;;
2164.0;2082.5;;;;;;;0.92953277;-0.17999817;-0.68099004;;;;;;;;;;;;
2165.0;2083.3;;;;;;;;;;;;;;;;;-52.8428;-4.5777764;37.503433;;1996.4
2165.0;2083.3;;;;;;;;;;;;;;0.8555559;0.42091128;-0.28083134;;;;;1996.4
2165.0;2083.3;;;;;;;;;;;;;;;;;-60.750908;-6.3402205;34.035767;;1996.4
2165.0;2083.3;;;;;;;;;;;;;;0.9227576;0.37415692;-0.25818658;;;;;1996.4
2165.0;2083.3;;;;;;;;;;;;;;;;;-71.993164;-5.0012207;32.56325;;2006.1
2165.0;2083.3;;;;;;;;;;;;;;0.9096347;0.344615;-0.25745416;;;;;2006.1
2165.0;2083.3;;;;;;;;;;;;;;;;;-81.77816;-4.425184;30.358286;;2006.1
2165.0;2083.3;;;;;;;;;;;;;;0.8916288;0.3014008;-0.25849178;;;;;2006.1
2165.0;2083.3;;;;;;;;;;;;;;;;;-85.86383;-6.405072;32.532734;;2015.7
2165.0;2083.3;;;;;;;;;;;;;;0.8634907;0.23920408;-0.26636556;;;;;2015.7
2165.0;2083.3;;;;;;;;;;;;;;;;;-89.33149;-4.8257394;32.895138;;2015.7
2165.0;2083.3;;;;;;;;;;;;;;0.8461562;0.18628499;-0.26868495;;;;;2015.7
2165.0;2084.1;262143;262143;11526;;;;;;;;;;;;;;;;;;
2165.0;2090.1;;;;;;;;;;;;;-647;;;;;;;;
2165.0;2090.1;;;;;;;;;;;;;-280;;;;;;;;
2165.0;2090.1;;;;;;;;;;;;;-58;;;;;;;;
2165.0;2090.1;;;;;;;;;;;;;177;;;;;;;;
2165.0;2090.1;;;;;;;;;;;;;480;;;;;;;;
2165.0;2090.5;;;;-0.650425;0.1707039;-0.82260907;;;;;;;;;;;;;;;
2165.0;2090.5;;;;-0.6434708;0.16915514;-0.8190309;;;;;;;;;;;;;;;
2165.0;2090.5;;;;-0.6361695;0.16775133;-0.8150102;;;;;;;;;;;;;;;
2165.0;2090.5;;;;-0.6283112;0.16632082;-0.8104669;;;;;;;;;;;;;;;
2165.0;2090.5;;;;-0.620617;0.16476823;-0.80611813;;;;;;;;;;;;;;;
2166.0;2092.0;;;;;;;;;;-1.1215552;-24.632254;17.544327;;;;;;;;;
2166.0;2092.0;;;;;;;0.9273965;-0.17267373;-0.67232275;;;;;;;;;;;;
2166.0;2092.0;;;;;;;;;;0.80111086;-22.694326;15.297402;;;;;;;;;
2166.0;2092.0;;;;;;;0.92141485;-0.17493209;-0.6570635;;;;;;;;;;;;
2166.0;2097.4;;;;;;;;;;;;;;;;;-90.178375;-0.9994812;35.168766;;2025.3
2166.0;2097.4;;;;;;;;;;;;;;0.84163946;0.13739432;-0.2484817;;;;;2025.3
2166.0;2097.4;;;;;;;;;;;;;;;;;-87.49275;1.701407;43.202766;;2025.3
2166.0;2097.4;;;;;;;;;;;;;;0.8562273;0.09143346;-0.22363964;;;;;2025.3
2166.0;2097.4;;;;;;;;;;;;;;;;;-83.45668;2.9564807;54.013947;;2035.0
2166.0;2097.4;;;;;;;;;;;;;;0.8396863;0.0080568865;-0.22199164;;;;;2035.0
2166.0;2097.4;;;;;;;;;;;;;;;;;-78.802605;4.4289985;60.811943;;2035.0
2166.0;2097.4;;;;;;;;;;;;;;0.7988525;-0.093813896;-0.21057771;;;;;2035.0
2166.0;2097.4;;;;;;;;;;;;;;;;;-72.656944;7.0574055;62.490463;;2044.7
2166.0;2097.4;;;;;;;;;;;;;;0.77242345;-0.17139195;-0.20282601;;;;;2044.7
2166.0;2097.4;;;;;;;;;;;;;;;;;-61.46046;6.1418505;59.19065;;2044.7
2166.0;2097.4;;;;;;;;;;;;;;0.7597888;-0.24628437;-0.20886868;;;;;2044.7
2166.0;2100.3;;;;-0.61427313;0.16374971;-0.79927075;;;;;;;;;;;;;;;
2166.0;2100.3;;;;-0.6077805;0.16360857;-0.79283154;;;;;;;;;;;;;;;
2166.0;2100.3;;;;-0.60098654;0.1630974;-0.78453076;;;;;;;;;;;;;;;
2166.0;2100.3;;;;-0.59428793;0.16220857;-0.77525723;;;;;;;;;;;;;;;
2166.0;2100.3;;;;-0.5878945;0.16173555;-0.76836026;;;;;;;;;;;;;;;
2166.0;2101.4;;;;;;;;;;2.4071476;-21.519365;12.9703665;;;;;;;;;
2166.0;2101.4;;;;;;;0.9038362;-0.1744438;-0.64046144;;;;;;;;;;;;
2166.0;2101.4;;;;;;;;;;3.8987396;-20.168919;10.5822935;;;;;;;;;
2166.0;2101.4;;;;;;;0.8915677;-0.1699881;-0.6247139;;;;;;;;;;;;
2217.0;2104.2;262143;262143;11544;;;;;;;;;;;;;;;;;;
2217.0;2110.3;;;;-0.58214957;0.16143037;-0.76085675;;;;;;;;;;;;;;;
2217.0;2110.3;;;;-0.5771676;0.16032411;-0.7529794;;;;;;;;;;;;;;;
2217.0;2110.3;;;;-0.5726853;0.15955736;-0.745781;;;;;;;;;;;;;;;
2217.0;2110.3;;;;-0.56942755;0.15943529;-0.73852545;;;;;;;;;;;;;;;
2217.0;2110.3;;;;-0.56665426;0.15900041;-0.7297936;;;;;;;;;;;;;;;
2217.0;2110.8;;;;;;;;;;5.2529984;-18.444624;7.656331;;;;;;;;;
2217.0;2110.8;;;;;;;0.8679464;-0.16400647;-0.6103702;;;;;;;;;;;;
2217.0;2110.8;;;;;;;;;;6.263924;-17.262032;5.0202947;;;;;;;;;
2217.0;2110.8;;;;;;;0.8300424;-0.1610767;-0.6035951;;;;;;;;;;;;
2217.0;2120.3;;;;-0.5640717;0.15849306;-0.7208672;;;;;;;;;;;;;;;
2217.0;2120.3;;;;-0.56138235;0.15824892;-0.71199805;;;;;;;;;;;;;;;
2217.0;2120.3;;;;-0.5584336;0.1577263;-0.7020531;;;;;;;;;;;;;;;
2217.0;2120.3;;;;-0.5570794;0.1578827;-0.6920052;;;;;;;;;;;;;;;
2217.0;2120.3;;;;-0.5565682;0.15773012;-0.6834069;;;;;;;;;;;;;;;
2217.0;2120.4;;;;;;;;;;6.977294;-17.571032;2.8801844;;;;;;;;;
2217.0;2120.4;;;;;;;0.793054;-0.15076144;-0.59633166;;;;;;;;;;;;
2217.0;2120.4;;;;;;;;;;7.450331;-17.91818;0.553148;;;;;;;;;
2217.0;2120.4;;;;;;;0.7688223;-0.14307077;-0.5857723;;;;;;;;;;;;
2217.0;2124.1;262143;262143;11553;;;;;;;;;;;;;;;;;;
2219.0;2130.0;;;;;;;;;;7.6868496;-17.853329;-2.2850735;;;;;;;;;
2219.0;2130.0;;;;;;;0.7509384;-0.13623463;-0.57387006;;;;;;;;;;;;
2219.0;2130.0;;;;;;;;;;7.6715903;-17.994476;-4.4938507;;;;;;;;;
2219.0;2130.0;;;;;;;0.72096926;-0.12280648;-0.56843776;;;;;;;;;;;;
2219.0;2130.1;;;;;;;;;;;;;740;;;;;;;;
2219.0;2130.1;;;;;;;;;;;;;941;;;;;;;;
2219.0;2130.1;;;;;;;;;;;;;1056;;;;;;;;
2219.0;2130.1;;;;;;;;;;;;;853;;;;;;;;
2219.0;2130.1;;;;;;;;;;;;;321;;;;;;;;
2219.0;2130.4;;;;-0.55492026;0.15698625;-0.67389685;;;;;;;;;;;;;;;
2219.0;2130.4;;;;-0.5534974;0.15719606;-0.66349417;;;;;;;;;;;;;;;
2219.0;2130.4;;;;-0.55237967;0.1576462;-0.6536446;;;;;;;;;;;;;;;
2219.0;2130.4;;;;-0.5513497;0.15791704;-0.64368063;;;;;;;;;;;;;;;
2219.0;2130.4;;;;-0.55035025;0.15846254;-0.6339837;;;;;;;;;;;;;;;
2219.0;2139.7;;;;;;;;;;7.6601458;-18.11655;-5.787072;;;;;;;;;
2219.0;2139.7;;;;;;;0.68727684;-0.10803553;-0.56428725;;;;;;;;;;;;
2219.0;2139.7;;;;;;;;;;7.4694057;-18.711662;-6.515702;;;;;;;;;
2219.0;2139.7;;;;;;;0.6610919;-0.09350871;-0.5637379;;;;;;;;;;;;
2219.0;2140.5;;;;-0.5490876;0.15850069;-0.6247025;;;;;;;;;;;;;;;
2219.0;2140.5;;;;-0.54853064;0.15840532;-0.6163369;;;;;;;;;;;;;;;
2219.0;2140.5;;;;-0.5501023;0.15810777;-0.6086083;;;;;;;;;;;;;;;
2219.0;2140.5;;;;-0.55354697;0.15768053;-0.60067374;;;;;;;;;;;;;;;
2219.0;2140.5;;;;-0.5569497;0.15747835;-0.5940171;;;;;;;;;;;;;;;
2221.0;2142.9;;;;;;;;;;;;;;;;;-46.3271;4.081851;48.04758;;2054.4
2221.0;2142.9;;;;;;;;;;;;;;0.7801141;-0.26868495;-0.21015045;;;;;2054.4
2221.0;2142.9;;;;;;;;;;;;;;;;;-31.39973;2.9145176;37.354656;;2054.4
2221.0;2142.9;;;;;;;;;;;;;;0.7677236;-0.25055698;-0.23364972;;;;;2054.4
2221.0;2142.9;;;;;;;;;;;;;;;;;-18.024994;0.94225895;29.427473;;2064.0
2221.0;2142.9;;;;;;;;;;;;;;0.7690054;-0.1345256;-0.25995666;;;;;2064.0
2221.0;2142.9;;;;;;;;;;;;;;;;;-8.430738;-1.1406293;30.323954;;2064.0
2221.0;2142.9;;;;;;;;;;;;;;0.74544513;-0.10266427;-0.2997528;;;;;2064.0
2221.0;2142.9;;;;;;;;;;;;;;;;;2.0256662;-3.318888;30.31251;;2073.7
2221.0;2142.9;;;;;;;;;;;;;;0.75606555;-0.049501024;-0.31812495;;;;;2073.7
2221.0;2142.9;;;;;;;;;;;;;;;;;12.714774;-2.5521104;30.339212;;2073.7
2221.0;2142.9;;;;;;;;;;;;;;0.7785272;6.103702E-4;-0.2814417;;;;;2073.7
2221.0;2144.3;262143;262143;11557;;;;;;;;;;;;;;;;;;
2221.0;2149.2;;;;;;;;;;6.9009976;-19.341106;-7.526627;;;;;;;;;
2221.0;2149.2;;;;;;;0.65346235;-0.08551286;-0.5640431;;;;;;;;;;;;
2221.0;2149.2;;;;;;;;;;6.061739;-19.142736;-9.029664;;;;;;;;;
2221.0;2149.2;;;;;;;0.6531571;-0.08319346;-0.5642262;;;;;;;;;;;;
2221.0;2150.5;;;;-0.56119543;0.15644075;-0.5879784;;;;;;;;;;;;;;;
2221.0;2150.5;;;;-0.56615835;0.15570833;-0.58107;;;;;;;;;;;;;;;
2221.0;2150.5;;;;-0.5698357;0.1552086;-0.5748673;;;;;;;;;;;;;;;
2221.0;2150.5;;;;-0.5727387;0.15449907;-0.57020956;;;;;;;;;;;;;;;
2221.0;2150.5;;;;-0.5758591;0.15390779;-0.5658837;;;;;;;;;;;;;;;
2224.0;2157.6;;;;;;;;;;;;;;;;;22.221289;-1.5068514;30.407879;;2083.3
2224.0;2157.6;;;;;;;;;;;;;;0.79012424;0.0380871;-0.22632527;;;;;2083.3
2224.0;2157.6;;;;;;;;;;;;;;;;;27.95114;-0.4463332;29.48851;;2083.3
2224.0;2157.6;;;;;;;;;;;;;;0.7801141;0.07885983;-0.19122899;;;;;2083.3
2224.0;2157.6;;;;;;;;;;;;;;;;;30.968657;1.1368145;27.790916;;2093.0
2224.0;2157.6;;;;;;;;;;;;;;0.75917846;0.12439345;-0.1596118;;;;;2093.0
2224.0;2157.6;;;;;;;;;;;;;;;;;31.735435;1.1406293;27.04703;;2093.0
2224.0;2157.6;;;;;;;;;;;;;;0.7447737;0.16290781;-0.14331493;;;;;2093.0
2224.0;2157.6;;;;;;;;;;;;;;;;;31.96051;1.6518143;26.512955;;2102.5
2224.0;2157.6;;;;;;;;;;;;;;0.7311624;0.18933684;-0.12347789;;;;;2102.5
2224.0;2157.6;;;;;;;;;;;;;;;;;32.345806;2.3270364;25.105288;;2102.5
2224.0;2157.6;;;;;;;;;;;;;;0.71175265;0.21472824;-0.09595019;;;;;2102.5
2224.0;2158.6;;;;;;;;;;5.2491837;-19.150366;-10.505997;;;;;;;;;
2224.0;2158.6;;;;;;;0.6502884;-0.073427536;-0.5568407;;;;;;;;;;;;
2224.0;2158.6;;;;;;;;;;4.50911;-19.333477;-11.478774;;;;;;;;;
2224.0;2158.6;;;;;;;0.6509598;-0.06402783;-0.5501267;;;;;;;;;;;;
2224.0;2160.3;;;;-0.57884985;0.15248872;-0.5617333;;;;;;;;;;;;;;;
2224.0;2160.3;;;;-0.5812302;0.15071107;-0.557602;;;;;;;;;;;;;;;
2224.0;2160.3;;;;-0.58224493;0.14891435;-0.55450445;;;;;;;;;;;;;;;
2224.0;2160.3;;;;-0.5818444;0.14639665;-0.551796;;;;;;;;;;;;;;;
2224.0;2160.3;;;;-0.5793267;0.14363481;-0.5495911;;;;;;;;;;;;;;;
2224.0;2164.3;262143;262143;11558;;;;;;;;;;;;;;;;;;
2280.0;2168.2;;;;;;;;;;3.89111;-19.24192;-12.337108;;;;;;;;;
2280.0;2168.2;;;;;;;0.6549272;-0.05719169;-0.5418256;;;;;;;;;;;;
2280.0;2168.2;;;;;;;;;;3.1815546;-19.26481;-13.168737;;;;;;;;;
2280.0;2168.2;;;;;;;0.654622;-0.05749687;-0.5378582;;;;;;;;;;;;
2280.0;2170.2;;;;;;;;;;;;;-200;;;;;;;;
2280.0;2170.2;;;;;;;;;;;;;-464;;;;;;;;
2280.0;2170.2;;;;;;;;;;;;;-552;;;;;;;;
2280.0;2170.2;;;;;;;;;;;;;-672;;;;;;;;
2280.0;2170.2;;;;;;;;;;;;;-601;;;;;;;;
2280.0;2170.4;;;;-0.5760003;0.14068224;-0.54916006;;;;;;;;;;;;;;;
2280.0;2170.4;;;;-0.57355124;0.13829423;-0.54835516;;;;;;;;;;;;;;;
2280.0;2170.4;;;;-0.5718079;0.13523866;-0.5491219;;;;;;;;;;;;;;;
2280.0;2170.4;;;;-0.56965643;0.13293459;-0.5488816;;;;;;;;;;;;;;;
2280.0;2170.4;;;;-0.5685387;0.13084795;-0.5465737;;;;;;;;;;;;;;;
2280.0;2177.5;;;;;;;;;;2.3270364;-19.013033;-14.110995;;;;;;;;;
2280.0;2177.5;;;;;;;0.6378369;-0.049073763;-0.52626115;;;;;;;;;;;;
2280.0;2177.5;;;;;;;;;;1.7281106;-18.43318;-14.267404;;;;;;;;;
2280.0;2177.5;;;;;;;0.63850826;-0.053346355;-0.52088994;;;;;;;;;;;;
2280.0;2180.3;;;;-0.57002264;0.13039781;-0.54250723;;;;;;;;;;;;;;;
2280.0;2180.3;;;;-0.5730515;0.1299782;-0.53820807;;;;;;;;;;;;;;;
2280.0;2180.3;;;;-0.57687384;0.12912752;-0.5334473;;;;;;;;;;;;;;;
2280.0;2180.3;;;;-0.58050543;0.12865068;-0.5286332;;;;;;;;;;;;;;;
2280.0;2180.3;;;;-0.58391196;0.12807085;-0.52379614;;;;;;;;;;;;;;;
2280.0;2184.3;262143;262143;11566;;;;;;;;;;;;;;;;;;
2282.0;2187.2;;;;;;;;;;1.0414442;-18.181402;-14.580218;;;;;;;;;
2282.0;2187.2;;;;;;;0.63362527;-0.05529954;-0.51442;;;;;;;;;;;;
2282.0;2187.2;;;;;;;;;;0.44251838;-17.773216;-15.091403;;;;;;;;;
2282.0;2187.2;;;;;;;0.6333811;-0.061159093;-0.514481;;;;;;;;;;;;
2282.0;2190.4;;;;-0.5869866;0.12752534;-0.5200234;;;;;;;;;;;;;;;
2282.0;2190.4;;;;-0.5884095;0.1267357;-0.517685;;;;;;;;;;;;;;;
2282.0;2190.4;;;;-0.58822256;0.12470247;-0.5171204;;;;;;;;;;;;;;;
2282.0;2190.4;;;;-0.5873223;0.12282564;-0.5173188;;;;;;;;;;;;;;;
2282.0;2190.4;;;;-0.5863648;0.12121202;-0.5188294;;;;;;;;;;;;;;;
2282.0;2196.8;;;;;;;;;;0.08011109;-17.948698;-15.526292;;;;;;;;;
2282.0;2196.8;;;;;;;0.6253853;-0.05835139;-0.52180547;;;;;;;;;;;;
2282.0;2196.8;;;;;;;;;;-0.049592577;-18.635365;-15.717033;;;;;;;;;
2282.0;2196.8;;;;;;;0.618305;-0.054383986;-0.53596604;;;;;;;;;;;;
2282.0;2200.5;;;;-0.5844498;0.11940767;-0.5199242;;;;;;;;;;;;;;;
2282.0;2200.5;;;;-0.5815354;0.11777116;-0.5225411;;;;;;;;;;;;;;;
2282.0;2200.5;;;;-0.5793076;0.11647417;-0.52642065;;;;;;;;;;;;;;;
2282.0;2200.5;;;;-0.5778428;0.11542131;-0.53083044;;;;;;;;;;;;;;;
2282.0;2200.5;;;;-0.5769349;0.11436845;-0.5354691;;;;;;;;;;;;;;;
2283.0;2202.7;;;;;;;;;;;;;;;;;31.441696;1.7967772;23.010956;;2112.0
2283.0;2202.7;;;;;;;;;;;;;;0.69624925;0.25049594;-0.0799585;;;;;2112.0
2283.0;2202.7;;;;;;;;;;;;;;;;;29.538103;-0.29755548;20.813623;;2112.0
2283.0;2202.7;;;;;;;;;;;;;;0.69832456;0.28662986;-0.060121465;;;;;2112.0
2283.0;2202.7;;;;;;;;;;;;;;;;;27.134771;-5.054628;18.562883;;2121.6
2283.0;2202.7;;;;;;;;;;;;;;0.7376934;0.33179724;-0.068300426;;;;;2121.6
2283.0;2202.7;;;;;;;;;;;;;;;;;23.716698;-9.094516;16.708885;;2121.6
2283.0;2202.7;;;;;;;;;;;;;;0.7937864;0.36677146;-0.101260416;;;;;2121.6
2283.0;2202.7;;;;;;;;;;;;;;;;;19.108402;-9.960478;14.290292;;2131.2
2283.0;2202.7;;;;;;;;;;;;;;0.852443;0.39014864;-0.13892026;;;;;2131.2
2283.0;2202.7;;;;;;;;;;;;;;;;;13.252663;-7.255776;12.913144;;2131.2
2283.0;2202.7;;;;;;;;;;;;;;0.88247323;0.40479752;-0.15900144;;;;;2131.2
2283.0;2204.5;262143;262143;11565;;;;;;;;;;;;;;;;;;
2283.0;2206.3;;;;;;;;;;-0.21744438;-19.531845;-16.445662;;;;;;;;;
2283.0;2206.3;;;;;;;0.6075625;-0.048036136;-0.5535447;;;;;;;;;;;;
2283.0;2206.3;;;;;;;;;;-0.5874813;-20.840326;-16.418959;;;;;;;;;
2283.0;2206.3;;;;;;;0.58656573;-0.030762658;-0.5695975;;;;;;;;;;;;
2283.0;2210.3;;;;;;;;;;;;;-29;;;;;;;;
2283.0;2210.3;;;;;;;;;;;;;708;;;;;;;;
2283.0;2210.3;;;;;;;;;;;;;1041;;;;;;;;
2283.0;2210.3;;;;;;;;;;;;;920;;;;;;;;
2283.0;2210.3;;;;;;;;;;;;;705;;;;;;;;
2287.0;2210.4;;;;-0.5775643;0.11370851;-0.54066473;;;;;;;;;;;;;;;
2287.0;2210.4;;;;-0.5789071;0.112892166;-0.5448342;;;;;;;;;;;;;;;
2287.0;2210.4;;;;-0.58113486;0.11240007;-0.54860693;;;;;;;;;;;;;;;
2287.0;2210.4;;;;-0.58425146;0.1120453;-0.5528794;;;;;;;;;;;;;;;
2287.0;2210.4;;;;-0.5871888;0.11130525;-0.55704504;;;;;;;;;;;;;;;
2287.0;2215.8;;;;;;;;;;-0.9575182;-22.598955;-15.736107;;;;;;;;;
2287.0;2215.8;;;;;;;0.57454145;-0.027527696;-0.5742363;;;;;;;;;;;;
2287.0;2215.8;;;;;;;;;;-1.495407;-23.94177;-15.697958;;;;;;;;;
2287.0;2215.8;;;;;;;0.5818659;-0.023316141;-0.5773492;;;;;;;;;;;;
2287.0;2217.6;;;;;;;;;;;;;;;;;6.645406;-4.3908505;12.756737;;2140.9
2287.0;2217.6;;;;;;;;;;;;;;0.8825953;0.38544878;-0.17859432;;;;;2140.9
2287.0;2217.6;;;;;;;;;;;;;;;;;0.5760369;-2.4262216;12.642292;;2140.9
2287.0;2217.6;;;;;;;;;;;;;;0.8598285;0.34900966;-0.20886868;;;;;2140.9
2287.0;2217.6;;;;;;;;;;;;;;;;;-3.807184;-1.4992218;12.146367;;2150.6
2287.0;2217.6;;;;;;;;;;;;;;0.8239387;0.3122654;-0.19721061;;;;;2150.6
2287.0;2217.6;;;;;;;;;;;;;;;;;-6.733146;-2.9831843;11.764886;;2150.6
2287.0;2217.6;;;;;;;;;;;;;;0.79824215;0.27741325;-0.17670217;;;;;2150.6
2287.0;2217.6;;;;;;;;;;;;;;;;;-8.430738;-4.3908505;11.711478;;2160.3
2287.0;2217.6;;;;;;;;;;;;;;0.7833491;0.23340556;-0.14471877;;;;;2160.3
2287.0;2217.6;;;;;;;;;;;;;;;;;-8.037812;-4.3298135;11.612293;;2160.3
2287.0;2217.6;;;;;;;;;;;;;;0.76381725;0.19275491;-0.09790338;;;;;2160.3
2338.0;2220.3;;;;-0.58943945;0.11067583;-0.56011206;;;;;;;;;;;;;;;
2338.0;2220.3;;;;-0.5909768;0.11028291;-0.5625115;;;;;;;;;;;;;;;
2338.0;2220.3;;;;-0.5913392;0.10966493;-0.5630227;;;;;;;;;;;;;;;
2338.0;2220.3;;;;-0.59128195;0.10876466;-0.5641251;;;;;;;;;;;;;;;
2338.0;2220.3;;;;-0.5912362;0.10819246;-0.5655213;;;;;;;;;;;;;;;
2338.0;2224.4;262143;262143;11568;;;;;;;;;;;;;;;;;;
2338.0;2225.2;;;;;;;;;;-2.128666;-24.586475;-16.476181;;;;;;;;;
2338.0;2225.2;;;;;;;0.5904721;-0.026978362;-0.58125556;;;;;;;;;;;;
2338.0;2225.2;;;;;;;;;;-2.7619252;-24.227882;-17.258217;;;;;;;;;
2338.0;2225.2;;;;;;;0.59761345;-0.022034364;-0.58406323;;;;;;;;;;;;
2338.0;2230.2;;;;-0.59073263;0.107246414;-0.5663796;;;;;;;;;;;;;;;
2338.0;2230.2;;;;-0.59068304;0.106662765;-0.565342;;;;;;;;;;;;;;;
2338.0;2230.2;;;;-0.59083563;0.105972305;-0.56314474;;;;;;;;;;;;;;;
2338.0;2230.2;;;;-0.5897599;0.10495378;-0.5602074;;;;;;;;;;;;;;;
2338.0;2230.2;;;;-0.58689505;0.104217544;-0.55751044;;;;;;;;;;;;;;;
2338.0;2234.6;;;;;;;;;;-3.0365918;-22.221289;-17.811365;;;;;;;;;
2338.0;2234.6;;;;;;;0.6283761;-0.024231697;-0.5799127;;;;;;;;;;;;
2338.0;2234.6;;;;;;;;;;-2.9450362;-19.302958;-18.673513;;;;;;;;;
2338.0;2234.6;;;;;;;0.64247566;-0.017761772;-0.57527393;;;;;;;;;;;;
2343.0;2240.2;;;;-0.58279806;0.10411455;-0.5536919;;;;;;;;;;;;;;;
2343.0;2240.2;;;;-0.5787316;0.103958145;-0.5508538;;;;;;;;;;;;;;;
2343.0;2240.2;;;;-0.5753136;0.103828445;-0.54835135;;;;;;;;;;;;;;;
2343.0;2240.2;;;;-0.5719872;0.103137985;-0.545147;;;;;;;;;;;;;;;
2343.0;2240.2;;;;-0.57051474;0.10248567;-0.54378897;;;;;;;;;;;;;;;
2343.0;2244.2;;;;;;;;;;-2.639851;-15.964996;-18.436995;;;;;;;;;
2343.0;2244.2;;;;;;;0.6344798;-0.019531846;-0.57258826;;;;;;;;;;;;
2343.0;2244.2;;;;;;;;;;-2.4147773;-13.61507;-17.151402;;;;;;;;;
2343.0;2244.2;;;;;;;0.6102481;-0.016479995;-0.57649463;;;;;;;;;;;;
2343.0;2244.4;262143;262143;11576;;;;;;;;;;;;;;;;;;
2343.0;2250.3;;;;;;;;;;;;;400;;;;;;;;
2343.0;2250.3;;;;;;;;;;;;;-184;;;;;;;;
2343.0;2250.3;;;;;;;;;;;;;-382;;;;;;;;
2343.0;2250.3;;;;;;;;;;;;;1199;;;;;;;;
2343.0;2250.3;;;;;;;;;;;;;2367;;;;;;;;
2343.0;2250.3;;;;-0.57065207;0.10112001;-0.54362494;;;;;;;;;;;;;;;
2343.0;2250.3;;;;-0.5710183;0.09907533;-0.5417443;;;;;;;;;;;;;;;
2343.0;2250.3;;;;-0.57282645;0.09787752;-0.540371;;;;;;;;;;;;;;;
2343.0;2250.3;;;;-0.5757256;0.0963669;-0.5382157;;;;;;;;;;;;;;;
2343.0;2250.3;;;;-0.579506;0.09502794;-0.5349961;;;;;;;;;;;;;;;
2343.0;2253.8;;;;;;;;;;-2.3880734;-12.8215885;-15.919218;;;;;;;;;
2343.0;2253.8;;;;;;;0.60805076;-0.011535997;-0.58424634;;;;;;;;;;;;
2343.0;2253.8;;;;;;;;;;-2.6322215;-12.295145;-15.732292;;;;;;;;;
2343.0;2253.8;;;;;;;0.6227607;-0.015442366;-0.5971252;;;;;;;;;;;;
2345.0;2260.5;;;;-0.58323675;0.09397508;-0.5305558;;;;;;;;;;;;;;;
2345.0;2260.5;;;;-0.5864449;0.093471535;-0.5264016;;;;;;;;;;;;;;;
2345.0;2260.5;;;;-0.58889014;0.092887886;-0.5236626;;;;;;;;;;;;;;;
2345.0;2260.5;;;;-0.59122854;0.092132576;-0.5197411;;;;;;;;;;;;;;;
2345.0;2260.5;;;;-0.59376913;0.091945656;-0.5169602;;;;;;;;;;;;;;;
2345.0;2263.2;;;;;;;;;;;;;;;;;-6.260109;-4.119999;11.707664;;2169.9
2345.0;2263.2;;;;;;;;;;;;;;0.7420881;0.16547136;-0.06982635;;;;;2169.9
2345.0;2263.2;;;;;;;;;;;;;;;;;-5.714591;-6.7751093;11.795404;;2169.9
2345.0;2263.2;;;;;;;;;;;;;;0.73232216;0.1485641;-0.09985656;;;;;2169.9
2345.0;2263.2;;;;;;;;;;;;;;;;;-7.5037384;-9.762108;11.822107;;2179.6
2345.0;2263.2;;;;;;;;;;;;;;0.7448347;0.14526811;-0.15503404;;;;;2179.6
2345.0;2263.2;;;;;;;;;;;;;;;;;-9.617146;-8.125553;11.345256;;2179.6
2345.0;2263.2;;;;;;;;;;;;;;0.7439192;0.14093448;-0.17450483;;;;;2179.6
2345.0;2263.2;;;;;;;;;;;;;;;;;-10.044404;-5.115665;10.643331;;2189.2
2345.0;2263.2;;;;;;;;;;;;;;0.7265847;0.14477982;-0.15161596;;;;;2189.2
2345.0;2263.2;;;;;;;;;;;;;;;;;-9.933775;-5.0050354;10.040589;;2189.2
2345.0;2263.2;;;;;;;;;;;;;;0.71120334;0.1612598;-0.14404736;;;;;2189.2
2345.0;2263.3;;;;;;;;;;-2.887814;-11.432997;-16.731773;;;;;;;;;
2345.0;2263.3;;;;;;;0.6451613;-0.013672292;-0.61635184;;;;;;;;;;;;
