patientId;holterMac;flexMac;;;;;;;;;;;;;;;;;;;;
;CA:F3:0B:1E:33:78;D3:4A:5C:52:80:78;;;;;;;;;;;;;;;;;;;;
receivedTimeStamp;timeStamp;red;ir;green;adxl_accX;adxl_accY;adxl_accZ;lsm_accelX;lsm_accelY;lsm_accelZ;lsm_gyroX;lsm_gyroY;lsm_gyroZ;ecg;flex_lsm_accelX;flex_lsm_accelY;flex_lsm_accelZ;flex_lsm_gyroX;flex_lsm_gyroY;flex_lsm_gyroZ;flex_cmd;flexTimeStamp
364.0;258.8;;;;;;;;;;;;;;;;;;;;17;0.1
364.0;258.8;;;;;;;;;;;;;;;;;13.660849;0.5188147;1.2321848;;127.6
364.0;258.8;;;;;;;;;;;;;;0.8380993;0.121097445;-0.4064455;;;;;127.6
364.0;258.8;;;;;;;;;;;;;;;;;-5.7031465;-17.60155;-9.537035;;127.6
364.0;258.8;;;;;;;;;;;;;;0.8708762;0.12640767;-0.42103335;;;;;127.6
364.0;258.8;;;;;;;;;;;;;;;;;-65.01587;-84.97116;-62.7575;;137.2
364.0;258.8;;;;;;;;;;;;;;0.86971647;0.12799463;-0.42005676;;;;;137.2
364.0;258.8;;;;;;;;;;;;;;;;;-122.44026;-124.988556;-120.59007;;137.2
364.0;258.8;;;;;;;;;;;;;;0.8709372;0.12768945;-0.42072818;;;;;137.2
395.0;319.1;;;;;;;;;;;;;;;;;-57.90124;-124.81689;-78.56227;;146.9
395.0;319.1;;;;;;;;;;;;;;0.87228006;0.12994781;-0.4207892;;;;;146.9
395.0;319.1;;;;;;;;;;;;;;;;;9.529405;-124.938965;-32.46788;;146.9
395.0;319.1;;;;;;;;;;;;;;0.87405014;0.13086337;-0.42182684;;;;;146.9
395.0;319.1;;;;;;;;;;;;;;;;;6.023591;-96.77419;-25.04425;;156.6
395.0;319.1;;;;;;;;;;;;;;0.87185276;0.12952055;-0.41822565;;;;;156.6
395.0;319.1;;;;;;;;;;;;;;;;;-0.63325906;-7.3473315;-0.90792567;;156.6
395.0;319.1;;;;;;;;;;;;;;0.87026584;0.12958159;-0.41828668;;;;;156.6
395.0;319.1;;;;;;;;;;;;;;;;;-1.373333;-0.06103702;0.8735923;;166.2
395.0;319.1;;;;;;;;;;;;;;0.8708762;0.12884915;-0.41657767;;;;;166.2
395.0;319.1;;;;;;;;;;;;;;;;;-1.4076662;0.04196295;0.79729605;;166.2
395.0;319.1;;;;;;;;;;;;;;0.8699606;0.12793359;-0.4163335;;;;;166.2
395.0;320.3;;;;;;;;;;;;;;;;;-1.3428144;0.10681479;0.98803675;;175.9
395.0;320.3;;;;;;;;;;;;;;0.87044895;0.12726219;-0.41853085;;;;;175.9
395.0;320.3;;;;;;;;;;;;;;;;;-1.3199255;0.0839259;0.77822196;;175.9
395.0;320.3;;;;;;;;;;;;;;0.870571;0.12701803;-0.41737112;;;;;175.9
395.0;320.3;;;;;;;;;;;;;;;;;-1.289407;0.13351847;0.73625904;;185.6
395.0;320.3;;;;;;;;;;;;;;0.87063205;0.12689596;-0.41755426;;;;;185.6
395.0;320.3;;;;;;;;;;;;;;;;;-1.3008515;0.11444441;0.8888516;;185.6
395.0;320.3;;;;;;;;;;;;;;0.873867;0.12573627;-0.41651663;;;;;185.6
395.0;320.3;;;;;;;;;;;;;;;;;-1.1597034;0.064851835;0.7858516;;195.3
395.0;320.3;;;;;;;;;;;;;;0.8733787;0.12665181;-0.41669974;;;;;195.3
395.0;320.3;;;;;;;;;;;;;;;;;-1.1101108;0.16022217;0.75914794;;195.3
395.0;320.3;;;;;;;;;;;;;;0.8734397;0.12701803;-0.4156621;;;;;195.3
488.0;349.2;;;;;;;;;;;;;;;;;-1.0109257;0.17166662;0.7858516;;204.8
488.0;349.2;;;;;;;;;;;;;;0.8719748;0.12665181;-0.4143803;;;;;204.8
488.0;349.2;;;;;;;;;;;;;;;;;-0.96896267;0.22507401;0.6675924;;204.8
488.0;349.2;;;;;;;;;;;;;;0.87350076;0.1262856;-0.41261026;;;;;204.8
488.0;349.2;;;;;;;;;;;;;;;;;-0.9765923;0.24796289;0.67522204;;214.5
488.0;349.2;;;;;;;;;;;;;;0.87313455;0.1264687;-0.4113895;;;;;214.5
488.0;349.2;;;;;;;;;;;;;;;;;-0.96514785;0.23651844;0.69429606;;214.5
488.0;349.2;;;;;;;;;;;;;;0.8730125;0.12683493;-0.41193885;;;;;214.5
488.0;349.2;;;;;;;;;;;;;;;;;-0.9155553;0.15640736;0.5302591;;224.2
488.0;349.2;;;;;;;;;;;;;;0.8732566;0.12750633;-0.41090122;;;;;224.2
488.0;349.2;;;;;;;;;;;;;;;;;-0.85833305;0.16022217;0.51118505;;224.2
488.0;349.2;;;;;;;;;;;;;;0.8741112;0.12537004;-0.41340372;;;;;224.2
488.0;379.1;;;;;;;;;;;;;;;;;-0.86214787;0.14496292;0.5607776;;233.7
488.0;379.1;;;;;;;;;;;;;;0.8728294;0.1257973;-0.41328165;;;;;233.7
488.0;379.1;;;;;;;;;;;;;;;;;-0.76296276;0.0839259;0.46540728;;233.7
488.0;379.1;;;;;;;;;;;;;;0.87398905;0.12622456;-0.41431928;;;;;233.7
488.0;379.1;;;;;;;;;;;;;;;;;-0.6485183;0.07248146;0.45014802;;243.4
488.0;379.1;;;;;;;;;;;;;;0.873928;0.12537004;-0.41425824;;;;;243.4
488.0;379.1;;;;;;;;;;;;;;;;;-0.6218146;0.09155553;0.39674062;;243.4
488.0;379.1;;;;;;;;;;;;;;0.873928;0.123416856;-0.41315958;;;;;243.4
488.0;379.1;;;;;;;;;;;;;;;;;-0.5836665;0.17929624;0.40818506;;253.1
488.0;379.1;;;;;;;;;;;;;;0.87331766;0.12372204;-0.41212195;;;;;253.1
488.0;379.1;;;;;;;;;;;;;;;;;-0.5798517;0.14496292;0.43870357;;253.1
488.0;379.1;;;;;;;;;;;;;;0.87582016;0.12402722;-0.41315958;;;;;253.1
532.0;440.2;;;;;;;;;;;;;;;;;-0.48829615;0.20218512;0.3852962;;262.7
532.0;440.2;;;;;;;;;;;;;;0.875515;0.12372204;-0.41145054;;;;;262.7
532.0;440.2;;;;;;;;;;;;;;;;;-0.56840724;0.19837031;0.35859248;;262.7
532.0;440.2;;;;;;;;;;;;;;0.87545395;0.12451552;-0.41334268;;;;;262.7
532.0;440.2;;;;;;;;;;;;;;;;;-0.57222205;0.24414808;0.37385175;;272.2
532.0;440.2;;;;;;;;;;;;;;0.8769799;0.12567522;-0.41389203;;;;;272.2
532.0;440.2;;;;;;;;;;;;;;;;;-0.5302591;0.29755548;0.38911098;;272.2
532.0;440.2;;;;;;;;;;;;;;0.875576;0.12591937;-0.41328165;;;;;272.2
532.0;440.2;;;;;;;;;;;;;;;;;-0.5264443;0.24796289;0.37385175;;281.9
532.0;440.2;;;;;;;;;;;;;;0.8758812;0.12652974;-0.4125492;;;;;281.9
532.0;440.2;;;;;;;;;;;;;;;;;-0.5836665;0.23651844;0.38911098;;281.9
532.0;440.2;;;;;;;;;;;;;;0.873928;0.12701803;-0.41126743;;;;;281.9
532.0;469.4;;;;;;;;;;;;;;;;;-0.5645924;0.15640736;0.41199988;;291.5
532.0;469.4;;;;;;;;;;;;;;0.87398905;0.12701803;-0.41273233;;;;;291.5
532.0;469.4;;;;;;;;;;;;;;;;;-0.49592578;0.14877774;0.37385175;;291.5
532.0;469.4;;;;;;;;;;;;;;0.8750267;0.12738426;-0.41163367;;;;;291.5
532.0;469.4;;;;;;;;;;;;;;;;;-0.5302591;0.12970367;0.3929258;;301.0
532.0;469.4;;;;;;;;;;;;;;0.8748436;0.12659077;-0.41065708;;;;;301.0
532.0;469.4;;;;;;;;;;;;;;;;;-0.5760369;0.099185154;0.42344433;;301.0
532.0;469.4;;;;;;;;;;;;;;0.87673575;0.12775049;-0.41242713;;;;;301.0
532.0;469.4;;;;;;;;;;;;;;;;;-0.6065554;0.16403699;0.46159247;;310.7
532.0;469.4;;;;;;;;;;;;;;0.8760033;0.12652974;-0.41132846;;;;;310.7
532.0;469.4;;;;;;;;;;;;;;;;;-0.6828517;0.12970367;0.43107393;;310.7
532.0;469.4;;;;;;;;;;;;;;0.8742943;0.12756737;-0.410596;;;;;310.7
577.0;470.3;;;;;;;;;;;;;;;;;-0.77440715;0.08774071;0.46159247;;320.3
577.0;470.3;;;;;;;;;;;;;;0.8743553;0.12707907;-0.41016877;;;;;320.3
577.0;470.3;;;;;;;;;;;;;;;;;-0.77822196;0.026703697;0.45014802;;320.3
577.0;470.3;;;;;;;;;;;;;;0.87276834;0.12665181;-0.40919217;;;;;320.3
577.0;470.3;;;;;;;;;;;;;;;;;-0.8163701;0.07629627;0.45396283;;330.0
577.0;470.3;;;;;;;;;;;;;;0.87380594;0.12622456;-0.40736106;;;;;330.0
577.0;470.3;;;;;;;;;;;;;;;;;-0.8354442;0.026703697;0.42725915;;330.0
577.0;470.3;;;;;;;;;;;;;;0.8737449;0.12445448;-0.40900907;;;;;330.0
577.0;470.3;;;;;;;;;;;;;;;;;-0.82018495;-0.0038148137;0.4463332;;339.5
577.0;470.3;;;;;;;;;;;;;;0.87423325;0.12543108;-0.40900907;;;;;339.5
577.0;470.3;;;;;;;;;;;;;;;;;-0.79348123;-0.03051851;0.4158147;;339.5
577.0;470.3;;;;;;;;;;;;;;0.8757591;0.12457655;-0.4090701;;;;;339.5
577.0;529.5;;;;;;;;;;;;;;;;;-0.94225895;0.0076296274;0.46540728;;349.2
577.0;529.5;;;;;;;;;;;;;;0.8750267;0.12524797;-0.40754417;;;;;349.2
577.0;529.5;;;;;;;;;;;;;;;;;-0.8926664;0.0038148137;0.43488875;;349.2
577.0;529.5;;;;;;;;;;;;;;0.87618643;0.12494278;-0.4090701;;;;;349.2
577.0;529.5;;;;;;;;;;;;;;;;;-0.90792567;0.064851835;0.40055543;;358.9
577.0;529.5;;;;;;;;;;;;;;0.87398905;0.125309;-0.40900907;;;;;358.9
577.0;529.5;;;;;;;;;;;;;;;;;-0.93081456;0.07248146;0.43488875;;358.9
577.0;529.5;;;;;;;;;;;;;;0.87508774;0.12359996;-0.40998566;;;;;358.9
577.0;529.5;;;;;;;;;;;;;;;;;-0.90411085;0.0076296274;0.44251838;;368.5
577.0;529.5;;;;;;;;;;;;;;0.87496567;0.12292856;-0.40711692;;;;;368.5
577.0;529.5;;;;;;;;;;;;;;;;;-0.9117405;-0.038148135;0.41199988;;368.5
577.0;529.5;;;;;;;;;;;;;;0.8746605;0.12280648;-0.41090122;;;;;368.5
636.0;530.3;;;;;;;;;;;;;;;;;-0.80111086;-0.057222206;0.38148138;;378.2
636.0;530.3;;;;;;;;;;;;;;0.8756981;0.12262337;-0.40998566;;;;;378.2
636.0;530.3;;;;;;;;;;;;;;;;;-0.8087405;-0.06103702;0.35859248;;378.2
636.0;530.3;;;;;;;;;;;;;;0.8753929;0.12195197;-0.41163367;;;;;378.2
636.0;530.3;;;;;;;;;;;;;;;;;-0.8049257;-0.057222206;0.32044435;;387.9
636.0;530.3;;;;;;;;;;;;;;0.8746605;0.12012085;-0.41132846;;;;;387.9
636.0;530.3;;;;;;;;;;;;;;;;;-0.839259;-0.095370345;0.24796289;;387.9
636.0;530.3;;;;;;;;;;;;;;0.87606436;0.12134159;-0.41206092;;;;;387.9
636.0;530.3;;;;;;;;;;;;;;;;;-0.8049257;-0.07629627;0.20218512;;397.5
636.0;530.3;;;;;;;;;;;;;;0.87545395;0.11859493;-0.4118778;;;;;397.5
636.0;530.3;;;;;;;;;;;;;;;;;-0.8735923;-0.019074067;0.16403699;;397.5
636.0;530.3;;;;;;;;;;;;;;0.87478256;0.11737419;-0.41242713;;;;;397.5
636.0;559.5;;;;;;;;;;;;;;;;;-0.80111086;-0.022888882;0.12970367;;407.1
636.0;559.5;;;;;;;;;;;;;;0.87459946;0.118533894;-0.41145054;;;;;407.1
636.0;559.5;;;;;;;;;;;;;;;;;-0.7019257;0.057222206;0.0839259;;407.1
636.0;559.5;;;;;;;;;;;;;;0.8768578;0.115848266;-0.412183;;;;;407.1
636.0;559.5;;;;;;;;;;;;;;;;;-0.6218146;0.19455549;-0.026703697;;416.8
636.0;559.5;;;;;;;;;;;;;;0.875515;0.115848266;-0.4102298;;;;;416.8
636.0;559.5;;;;;;;;;;;;;;;;;-0.6485183;0.17548142;-0.110629596;;416.8
636.0;559.5;;;;;;;;;;;;;;0.8753929;0.11688589;-0.41151157;;;;;416.8
636.0;559.5;;;;;;;;;;;;;;;;;-0.49592578;0.12970367;-0.21744438;;426.3
636.0;559.5;;;;;;;;;;;;;;0.87527084;0.11566515;-0.4126713;;;;;426.3
636.0;559.5;;;;;;;;;;;;;;;;;-0.35859248;0.21362957;-0.32044435;;426.3
636.0;559.5;;;;;;;;;;;;;;0.87368387;0.11517686;-0.4135258;;;;;426.3
696.0;590.0;;;;;;;;;;;;;;;;;-0.23270364;0.095370345;-0.37003693;;436.0
696.0;590.0;;;;;;;;;;;;;;0.87490463;0.11658071;-0.41578418;;;;;436.0
696.0;590.0;;;;;;;;;;;;;;;;;-0.053407393;0.1411481;-0.43488875;;436.0
696.0;590.0;;;;;;;;;;;;;;0.87459946;0.11645863;-0.41737112;;;;;436.0
696.0;590.0;;;;;;;;;;;;;;;;;0.12207404;0.17929624;-0.4730369;;445.7
696.0;590.0;;;;;;;;;;;;;;0.87508774;0.117313154;-0.41645557;;;;;445.7
696.0;590.0;;;;;;;;;;;;;;;;;0.17548142;0.17548142;-0.46159247;;445.7
696.0;590.0;;;;;;;;;;;;;;0.8747215;0.11670278;-0.41608936;;;;;445.7
696.0;590.0;;;;;;;;;;;;;;;;;0.15259254;0.20981476;-0.46922207;;455.3
696.0;590.0;;;;;;;;;;;;;;0.8733787;0.11737419;-0.41456345;;;;;455.3
696.0;590.0;;;;;;;;;;;;;;;;;0.17166662;0.11444441;-0.48066652;;455.3
696.0;590.0;;;;;;;;;;;;;;0.8731956;0.11877804;-0.41541794;;;;;455.3
696.0;649.9;;;;;;;;;;;;;;;;;0.19455549;0.14496292;-0.4158147;;464.9
696.0;649.9;;;;;;;;;;;;;;0.87398905;0.11847285;-0.4153569;;;;;464.9
696.0;649.9;;;;;;;;;;;;;;;;;0.14877774;0.0839259;-0.3852962;;464.9
696.0;649.9;;;;;;;;;;;;;;0.87362283;0.11774041;-0.4156621;;;;;464.9
696.0;649.9;;;;;;;;;;;;;;;;;0.19074069;0.015259255;-0.43107393;;474.6
696.0;649.9;;;;;;;;;;;;;;0.873867;0.118533894;-0.4148076;;;;;474.6
696.0;649.9;;;;;;;;;;;;;;;;;0.20981476;-0.034333322;-0.35477766;;474.6
696.0;649.9;;;;;;;;;;;;;;0.8731956;0.12024293;-0.41474655;;;;;474.6
696.0;649.9;;;;;;;;;;;;;;;;;0.2517777;-0.022888882;-0.33951843;;484.1
696.0;649.9;;;;;;;;;;;;;;0.8730735;0.120365;-0.41309854;;;;;484.1
696.0;649.9;;;;;;;;;;;;;;;;;0.24033326;-0.11444441;-0.31662953;;484.1
696.0;649.9;;;;;;;;;;;;;;0.8734397;0.12103641;-0.41425824;;;;;484.1
758.0;650.7;;;;;;;;;;;;;;;;;0.2822962;-0.038148135;-0.26322216;;493.8
758.0;650.7;;;;;;;;;;;;;;0.87295145;0.12213507;-0.41199988;;;;;493.8
758.0;650.7;;;;;;;;;;;;;;;;;0.26322216;0.0839259;-0.32044435;;493.8
758.0;650.7;;;;;;;;;;;;;;0.87313455;0.120975375;-0.41096225;;;;;493.8
758.0;650.7;;;;;;;;;;;;;;;;;0.3128147;0.015259255;-0.35096285;;503.4
758.0;650.7;;;;;;;;;;;;;;0.8715476;0.122562334;-0.41181678;;;;;503.4
758.0;650.7;;;;;;;;;;;;;;;;;0.35859248;-0.07629627;-0.35477766;;503.4
758.0;650.7;;;;;;;;;;;;;;0.87099826;0.12372204;-0.41297647;;;;;503.4
758.0;650.7;;;;;;;;;;;;;;;;;0.3624073;-0.11825922;-0.3013703;;513.1
758.0;650.7;;;;;;;;;;;;;;0.8717917;0.12469863;-0.41340372;;;;;513.1
758.0;650.7;;;;;;;;;;;;;;;;;0.29755548;-0.11825922;-0.3128147;;513.1
758.0;650.7;;;;;;;;;;;;;;0.8719748;0.12475967;-0.4104129;;;;;513.1
758.0;710.2;;;;;;;;;;;;;;;;;0.19074069;-0.08774071;-0.28992584;;522.8
758.0;710.2;;;;;;;;;;;;;;0.8717917;0.12427137;-0.4110233;;;;;522.8
758.0;710.2;;;;;;;;;;;;;;;;;0.14496292;-0.12588885;-0.27085176;;522.8
758.0;710.2;;;;;;;;;;;;;;0.8717307;0.12323374;-0.41126743;;;;;522.8
758.0;710.2;;;;;;;;;;;;;;;;;0.19837031;-0.08774071;-0.31662953;;532.4
758.0;710.2;;;;;;;;;;;;;;0.8710593;0.122989595;-0.41273233;;;;;532.4
758.0;710.2;;;;;;;;;;;;;;;;;0.14496292;-0.16403699;-0.24033326;;532.4
758.0;710.2;;;;;;;;;;;;;;0.8716086;0.1248207;-0.4123661;;;;;532.4
758.0;710.2;;;;;;;;;;;;;;;;;-0.0076296274;-0.17548142;-0.21362957;;541.9
758.0;710.2;;;;;;;;;;;;;;0.872219;0.1246376;-0.41328165;;;;;541.9
758.0;710.2;;;;;;;;;;;;;;;;;-0.08011109;-0.15640736;-0.23651844;;541.9
758.0;710.2;;;;;;;;;;;;;;0.8717307;0.12384411;-0.41547897;;;;;541.9
817.0;711.3;;;;;;;;;;;;;;;;;-0.09155553;-0.06103702;-0.24033326;;551.6
817.0;711.3;;;;;;;;;;;;;;0.872158;0.123783074;-0.4141972;;;;;551.6
817.0;711.3;;;;;;;;;;;;;;;;;-0.21744438;-0.07248146;-0.22507401;;551.6
817.0;711.3;;;;;;;;;;;;;;0.8717307;0.12402722;-0.4153569;;;;;551.6
817.0;711.3;;;;;;;;;;;;;;;;;-0.20218512;-0.13733329;-0.20599994;;561.2
817.0;711.3;;;;;;;;;;;;;;0.8702048;0.123416856;-0.4136479;;;;;561.2
817.0;711.3;;;;;;;;;;;;;;;;;-0.19074069;-0.16022217;-0.24414808;;561.2
817.0;711.3;;;;;;;;;;;;;;0.8703879;0.123783074;-0.41462448;;;;;561.2
817.0;711.3;;;;;;;;;;;;;;;;;-0.21362957;-0.22888882;-0.20599994;;570.8
817.0;711.3;;;;;;;;;;;;;;0.87130344;0.123783074;-0.41523483;;;;;570.8
817.0;711.3;;;;;;;;;;;;;;;;;-0.27466658;-0.30518508;-0.14877774;;570.8
817.0;711.3;;;;;;;;;;;;;;0.87246317;0.12524797;-0.41334268;;;;;570.8
817.0;770.4;;;;;;;;;;;;;;;;;-0.22125919;-0.29374066;-0.11444441;;580.5
817.0;770.4;;;;;;;;;;;;;;0.8730735;0.12537004;-0.4126713;;;;;580.5
817.0;770.4;;;;;;;;;;;;;;;;;-0.22888882;-0.19074069;-0.11825922;;580.5
817.0;770.4;;;;;;;;;;;;;;0.8742943;0.12622456;-0.41346475;;;;;580.5
817.0;770.4;;;;;;;;;;;;;;;;;-0.2822962;-0.1411481;-0.057222206;;590.1
817.0;770.4;;;;;;;;;;;;;;0.87331766;0.12891018;-0.4118778;;;;;590.1
817.0;770.4;;;;;;;;;;;;;;;;;-0.23651844;-0.18692587;-0.026703697;;590.1
817.0;770.4;;;;;;;;;;;;;;0.87276834;0.13019197;-0.4104129;;;;;590.1
817.0;770.4;;;;;;;;;;;;;;;;;-0.25559253;-0.24033326;-0.03051851;;599.8
817.0;770.4;;;;;;;;;;;;;;0.8744774;0.13086337;-0.41273233;;;;;599.8
817.0;770.4;;;;;;;;;;;;;;;;;-0.18692587;-0.099185154;0.034333322;;599.8
817.0;770.4;;;;;;;;;;;;;;0.87362283;0.13202307;-0.41199988;;;;;599.8
876.0;771.3;;;;;;;;;;;;;;;;;-0.38148138;-0.1678518;0.053407393;;609.4
876.0;771.3;;;;;;;;;;;;;;0.8760033;0.1314127;-0.4126713;;;;;609.4
876.0;771.3;;;;;;;;;;;;;;;;;-0.25940734;-0.19837031;0.034333322;;609.4
876.0;771.3;;;;;;;;;;;;;;0.8737449;0.13153477;-0.41389203;;;;;609.4
876.0;771.3;;;;;;;;;;;;;;;;;-0.34714803;-0.15259254;0.13351847;;619.1
876.0;771.3;;;;;;;;;;;;;;0.87240213;0.13116856;-0.4140141;;;;;619.1
876.0;771.3;;;;;;;;;;;;;;;;;-0.4768517;-0.13351847;0.12970367;;619.1
876.0;771.3;;;;;;;;;;;;;;0.87118137;0.12915434;-0.4140141;;;;;619.1
876.0;771.3;;;;;;;;;;;;;;;;;-0.44251838;-0.15259254;0.12970367;;628.8
876.0;771.3;;;;;;;;;;;;;;0.87051;0.12799463;-0.4143803;;;;;628.8
876.0;771.3;;;;;;;;;;;;;;;;;-0.4730369;-0.25559253;0.18692587;;628.8
876.0;771.3;;;;;;;;;;;;;;0.8670919;0.12665181;-0.4128544;;;;;628.8
876.0;800.6;;;;;;;;;;;;;;;;;-0.5645924;-0.3013703;0.26322216;;638.3
876.0;800.6;;;;;;;;;;;;;;0.8675802;0.12836085;-0.41242713;;;;;638.3
876.0;800.6;;;;;;;;;;;;;;;;;-0.6027406;-0.32807398;0.3318888;;638.3
876.0;800.6;;;;;;;;;;;;;;0.8677633;0.12903225;-0.4141972;;;;;638.3
876.0;800.6;;;;;;;;;;;;;;;;;-0.7553331;-0.48066652;0.4158147;;648.0
876.0;800.6;;;;;;;;;;;;;;0.8694113;0.13000885;-0.41407514;;;;;648.0
876.0;800.6;;;;;;;;;;;;;;;;;-0.8163701;-0.49211097;0.5378887;;648.0
876.0;800.6;;;;;;;;;;;;;;0.8694113;0.13165686;-0.4151738;;;;;648.0
876.0;800.6;;;;;;;;;;;;;;;;;-0.86214787;-0.5226295;0.61037016;;657.7
876.0;800.6;;;;;;;;;;;;;;0.8703269;0.13324381;-0.41657767;;;;;657.7
876.0;800.6;;;;;;;;;;;;;;;;;-1.0109257;-0.4997406;0.7057405;;657.7
876.0;800.6;;;;;;;;;;;;;;0.8703879;0.13476974;-0.41706595;;;;;657.7
938.0;830.6;;;;;;;;;;;;;;;;;-1.1024811;-0.5569628;0.76296276;;667.3
938.0;830.6;;;;;;;;;;;;;;0.86983854;0.135197;-0.41560107;;;;;667.3
938.0;830.6;;;;;;;;;;;;;;;;;-1.1558886;-0.59511095;0.7896664;;667.3
938.0;830.6;;;;;;;;;;;;;;0.8709372;0.13574633;-0.41694388;;;;;667.3
938.0;830.6;;;;;;;;;;;;;;;;;-1.3008515;-0.5607776;0.8545183;;676.9
938.0;830.6;;;;;;;;;;;;;;0.86849576;0.13690603;-0.4156621;;;;;676.9
938.0;830.6;;;;;;;;;;;;;;;;;-1.4267403;-0.48448133;0.8926664;;676.9
938.0;830.6;;;;;;;;;;;;;;0.86849576;0.13715018;-0.4159673;;;;;676.9
938.0;830.6;;;;;;;;;;;;;;;;;-1.6060365;-0.5188147;0.96133304;;686.5
938.0;830.6;;;;;;;;;;;;;;0.8678243;0.13739432;-0.41456345;;;;;686.5
938.0;830.6;;;;;;;;;;;;;;;;;-1.6975921;-0.63325906;1.003296;;686.5
938.0;830.6;;;;;;;;;;;;;;0.86739707;0.13641773;-0.4143803;;;;;686.5
938.0;861.1;;;;;;;;;;;;;;;;;-1.842555;-0.7019257;1.0223701;;696.2
938.0;861.1;;;;;;;;;;;;;;0.86831266;0.13678396;-0.41523483;;;;;696.2
938.0;861.1;;;;;;;;;;;;;;;;;-1.8807031;-0.7324442;1.064333;;696.2
938.0;861.1;;;;;;;;;;;;;;0.86751914;0.13574633;-0.4130375;;;;;696.2
938.0;861.1;;;;;;;;;;;;;;;;;-2.1019626;-0.7705924;1.1558886;;705.8
938.0;861.1;;;;;;;;;;;;;;0.86861783;0.13397625;-0.41151157;;;;;705.8
938.0;861.1;;;;;;;;;;;;;;;;;-2.193518;-0.7896664;1.2016664;;705.8
938.0;861.1;;;;;;;;;;;;;;0.8690451;0.13202307;-0.4115726;;;;;705.8
938.0;861.1;;;;;;;;;;;;;;;;;-2.3461106;-0.90411085;1.2016664;;715.5
938.0;861.1;;;;;;;;;;;;;;0.8699606;0.13153477;-0.41163367;;;;;715.5
938.0;861.1;;;;;;;;;;;;;;;;;-2.475814;-0.8316294;1.3084811;;715.5
938.0;861.1;;;;;;;;;;;;;;0.8702048;0.13110752;-0.41181678;;;;;715.5
997.0;890.9;;;;;;;;;;;;;;;;;-2.6207771;-0.9117405;1.3618885;;725.1
997.0;890.9;;;;;;;;;;;;;;0.87099826;0.12933744;-0.4125492;;;;;725.1
997.0;890.9;;;;;;;;;;;;;;;;;-2.7123327;-0.9346294;1.3161107;;725.1
997.0;890.9;;;;;;;;;;;;;;0.870571;0.12842189;-0.41297647;;;;;725.1
997.0;890.9;;;;;;;;;;;;;;;;;-2.803888;-0.90411085;1.4038514;;734.8
997.0;890.9;;;;;;;;;;;;;;0.87228006;0.12726219;-0.41346475;;;;;734.8
997.0;890.9;;;;;;;;;;;;;;;;;-2.7886288;-0.88503677;1.4610736;;734.8
997.0;890.9;;;;;;;;;;;;;;0.8734397;0.12701803;-0.41273233;;;;;734.8
997.0;890.9;;;;;;;;;;;;;;;;;-2.8344066;-0.839259;1.5068514;;744.4
997.0;890.9;;;;;;;;;;;;;;0.8725242;0.1264687;-0.41206092;;;;;744.4
997.0;890.9;;;;;;;;;;;;;;;;;-2.9526658;-0.87740713;1.5717032;;744.4
997.0;890.9;;;;;;;;;;;;;;0.8725242;0.12567522;-0.41395307;;;;;744.4
997.0;921.0;;;;;;;;;;;;;;;;;-2.8572955;-0.9346294;1.5984069;;754.1
997.0;921.0;;;;;;;;;;;;;;0.873867;0.1257973;-0.4130375;;;;;754.1
997.0;921.0;;;;;;;;;;;;;;;;;-2.9259622;-0.9346294;1.6403699;;754.1
997.0;921.0;;;;;;;;;;;;;;0.87350076;0.12622456;-0.41199988;;;;;754.1
997.0;921.0;;;;;;;;;;;;;;;;;-2.994629;-0.9117405;1.7166661;;763.7
997.0;921.0;;;;;;;;;;;;;;0.8732566;0.12659077;-0.4136479;;;;;763.7
997.0;921.0;;;;;;;;;;;;;;;;;-3.07474;-1.0223701;1.7319254;;763.7
997.0;921.0;;;;;;;;;;;;;;0.87441635;0.1259804;-0.4128544;;;;;763.7
997.0;921.0;;;;;;;;;;;;;;;;;-3.0480363;-0.93081456;1.739555;;773.3
997.0;921.0;;;;;;;;;;;;;;0.8745384;0.124881744;-0.41346475;;;;;773.3
997.0;921.0;;;;;;;;;;;;;;;;;-3.07474;-0.8545183;1.8044069;;773.3
997.0;921.0;;;;;;;;;;;;;;0.87313455;0.12524797;-0.41199988;;;;;773.3
1034.0;951.0;;;;;;;;;;;;;;;;;-3.1395917;-0.90029603;1.781518;;782.9
1034.0;951.0;;;;;;;;;;;;;;0.87258524;0.12500381;-0.4135258;;;;;782.9
1034.0;951.0;;;;;;;;;;;;;;;;;-3.1815546;-0.9193701;1.7967772;;782.9
1034.0;951.0;;;;;;;;;;;;;;0.87313455;0.12280648;-0.41248816;;;;;782.9
1034.0;951.0;;;;;;;;;;;;;;;;;-3.2311473;-0.9994812;1.823481;;792.5
1034.0;951.0;;;;;;;;;;;;;;0.8730125;0.122562334;-0.41053498;;;;;792.5
1034.0;951.0;;;;;;;;;;;;;;;;;-3.3494065;-1.0376294;1.8616291;;792.5
1034.0;951.0;;;;;;;;;;;;;;0.8726463;0.12140263;-0.4113895;;;;;792.5
1034.0;951.0;;;;;;;;;;;;;;;;;-3.3341472;-1.045259;1.8730735;;802.2
1034.0;951.0;;;;;;;;;;;;;;0.87295145;0.12042604;-0.41340372;;;;;802.2
1034.0;951.0;;;;;;;;;;;;;;;;;-3.4485915;-1.0338145;1.9226661;;802.2
1034.0;951.0;;;;;;;;;;;;;;0.87246317;0.12207404;-0.41370893;;;;;802.2
1034.0;981.6;;;;;;;;;;;;;;;;;-3.4676657;-1.0071108;1.9493698;;811.9
1034.0;981.6;;;;;;;;;;;;;;0.8732566;0.121097445;-0.41639453;;;;;811.9
1034.0;981.6;;;;;;;;;;;;;;;;;-3.521073;-0.9727775;2.010407;;811.9
1034.0;981.6;;;;;;;;;;;;;;0.87240213;0.120670184;-0.41645557;;;;;811.9
1034.0;981.6;;;;;;;;;;;;;;;;;-3.5782952;-1.0071108;2.0561848;;821.6
1034.0;981.6;;;;;;;;;;;;;;0.8731956;0.12012085;-0.4166387;;;;;821.6
1034.0;981.6;;;;;;;;;;;;;;;;;-3.6126287;-0.98803675;2.0561848;;821.6
1034.0;981.6;;;;;;;;;;;;;;0.87295145;0.1208533;-0.41853085;;;;;821.6
1034.0;981.6;;;;;;;;;;;;;;;;;-3.5592213;-0.96133304;2.1057773;;831.3
1034.0;981.6;;;;;;;;;;;;;;0.87148654;0.119876705;-0.41950744;;;;;831.3
1034.0;981.6;;;;;;;;;;;;;;;;;-3.5859249;-0.9727775;2.166814;;831.3
1034.0;981.6;;;;;;;;;;;;;;0.8719748;0.12024293;-0.41871396;;;;;831.3
1116.0;982.3;;;;;;;;;;;;;;;;;-3.646962;-1.0490738;2.2087772;;840.8
1116.0;982.3;;;;;;;;;;;;;;0.87118137;0.11993774;-0.41804254;;;;;840.8
1116.0;982.3;;;;;;;;;;;;;;;;;-3.6126287;-1.0948515;2.1629994;;840.8
1116.0;982.3;;;;;;;;;;;;;;0.8717917;0.11914426;-0.418775;;;;;840.8
1116.0;982.3;;;;;;;;;;;;;;;;;-3.6507769;-1.0986663;2.2202215;;850.6
1116.0;982.3;;;;;;;;;;;;;;0.87166965;0.11841182;-0.4185919;;;;;850.6
1116.0;982.3;;;;;;;;;;;;;;;;;-3.707999;-1.1101108;2.3079624;;850.6
1116.0;982.3;;;;;;;;;;;;;;0.8707541;0.11792352;-0.41755426;;;;;850.6
1116.0;982.3;;;;;;;;;;;;;;;;;-3.6545916;-1.1139256;2.3461106;;860.2
1116.0;982.3;;;;;;;;;;;;;;0.870571;0.11651967;-0.4193243;;;;;860.2
1116.0;982.3;;;;;;;;;;;;;;;;;-3.6011841;-1.0757774;2.2812586;;860.2
1116.0;982.3;;;;;;;;;;;;;;0.8712424;0.11651967;-0.41901913;;;;;860.2
1116.0;1011.1;;;;;;;;;;;;;;;;;-3.5821102;-1.0567034;2.277444;;869.8
1116.0;1011.1;;;;;;;;;;;;;;0.8703269;0.11572619;-0.41926327;;;;;869.8
1116.0;1011.1;;;;;;;;;;;;;;;;;-3.521073;-1.0757774;2.277444;;869.8
1116.0;1011.1;;;;;;;;;;;;;;0.87051;0.113956116;-0.41901913;;;;;869.8
1116.0;1011.1;;;;;;;;;;;;;;;;;-3.4409618;-0.9994812;2.189703;;879.4
1116.0;1011.1;;;;;;;;;;;;;;0.870571;0.11346782;-0.42133853;;;;;879.4
1116.0;1011.1;;;;;;;;;;;;;;;;;-3.295999;-0.9765923;2.1820734;;879.4
1116.0;1011.1;;;;;;;;;;;;;;0.8698996;0.11255226;-0.42200994;;;;;879.4
1116.0;1011.1;;;;;;;;;;;;;;;;;-3.1968138;-0.9537034;2.1057773;;889.0
1116.0;1011.1;;;;;;;;;;;;;;0.8701438;0.11200293;-0.42286447;;;;;889.0
1116.0;1011.1;;;;;;;;;;;;;;;;;-3.0861845;-0.8926664;2.010407;;889.0
1116.0;1011.1;;;;;;;;;;;;;;0.87118137;0.11053804;-0.42231512;;;;;889.0
1145.0;1041.1;;;;;;;;;;;;;;;;;-3.0060732;-0.7705924;1.9684439;;898.7
1145.0;1041.1;;;;;;;;;;;;;;0.87044895;0.11090426;-0.42298654;;;;;898.7
1145.0;1041.1;;;;;;;;;;;;;;;;;-2.8725548;-0.7553331;1.8921475;;898.7
1145.0;1041.1;;;;;;;;;;;;;;0.87228006;0.109866634;-0.42170477;;;;;898.7
1145.0;1041.1;;;;;;;;;;;;;;;;;-2.7314067;-0.7019257;1.8959624;;908.3
1145.0;1041.1;;;;;;;;;;;;;;0.86983854;0.10968352;-0.42359692;;;;;908.3
1145.0;1041.1;;;;;;;;;;;;;;;;;-2.5673697;-0.5188147;1.9150364;;908.3
1145.0;1041.1;;;;;;;;;;;;;;0.8677633;0.10730308;-0.42262033;;;;;908.3
1145.0;1041.1;;;;;;;;;;;;;;;;;-2.4796288;-0.5340739;1.8539995;;918.0
1145.0;1041.1;;;;;;;;;;;;;;0.86666465;0.10748619;-0.42133853;;;;;918.0
1145.0;1041.1;;;;;;;;;;;;;;;;;-2.4033327;-0.51118505;1.8463699;;918.0
1145.0;1041.1;;;;;;;;;;;;;;0.8661763;0.10632649;-0.42188787;;;;;918.0
1145.0;1071.2;;;;;;;;;;;;;;;;;-2.3422956;-0.4158147;1.823481;;927.7
1145.0;1071.2;;;;;;;;;;;;;;0.8671529;0.10626545;-0.42207098;;;;;927.7
1145.0;1071.2;;;;;;;;;;;;;;;;;-2.2927032;-0.3318888;1.8082217;;927.7
1145.0;1071.2;;;;;;;;;;;;;;0.8691061;0.10455641;-0.42066714;;;;;927.7
1145.0;1071.2;;;;;;;;;;;;;;;;;-2.193518;-0.34333324;1.8005921;;937.3
1145.0;1071.2;;;;;;;;;;;;;;0.8703269;0.10412916;-0.42017883;;;;;937.3
1145.0;1071.2;;;;;;;;;;;;;;;;;-2.0485551;-0.23651844;1.7471846;;937.3
1145.0;1071.2;;;;;;;;;;;;;;0.87185276;0.10242012;-0.42085025;;;;;937.3
1145.0;1071.2;;;;;;;;;;;;;;;;;-1.9531846;-0.099185154;1.7319254;;946.9
1145.0;1071.2;;;;;;;;;;;;;;0.8728904;0.10376293;-0.42023987;;;;;946.9
1145.0;1071.2;;;;;;;;;;;;;;;;;-1.8578143;0.038148135;1.6556292;;946.9
1145.0;1071.2;;;;;;;;;;;;;;0.87203586;0.10248116;-0.41981262;;;;;946.9
1176.0;1101.7;;;;;;;;;;;;;;;;;-1.842555;0.12970367;1.6441847;;956.5
1176.0;1101.7;;;;;;;;;;;;;;0.8741722;0.10187078;-0.41975158;;;;;956.5
1176.0;1101.7;;;;;;;;;;;;;;;;;-1.8311106;0.38911098;1.5602587;;956.5
1176.0;1101.7;;;;;;;;;;;;;;0.87398905;0.101504564;-0.42152166;;;;;956.5
1176.0;1101.7;;;;;;;;;;;;;;;;;-1.6708884;0.65233314;1.5182959;;966.2
1176.0;1101.7;;;;;;;;;;;;;;0.87295145;0.09973449;-0.42146063;;;;;966.2
1176.0;1101.7;;;;;;;;;;;;;;;;;-1.5984069;0.84688866;1.4915922;;966.2
1176.0;1101.7;;;;;;;;;;;;;;0.8712424;0.100283824;-0.4213996;;;;;966.2
1176.0;1101.7;;;;;;;;;;;;;;;;;-1.3962218;0.84688866;1.3618885;;975.9
1176.0;1101.7;;;;;;;;;;;;;;0.87459946;0.10046694;-0.42005676;;;;;975.9
1176.0;1101.7;;;;;;;;;;;;;;;;;-1.2321848;0.8278146;1.2131108;;975.9
1176.0;1101.7;;;;;;;;;;;;;;0.87746817;0.100283824;-0.42347485;;;;;975.9
1176.0;1127.3;;;;0.0;0.0;0.0;;;;;;;;;;;;;;;
1176.0;1127.3;;;;-0.12516405;0.3178139;0.09268571;;;;;;;;;;;;;;;
1176.0;1127.3;;;;-0.41802984;0.90968335;0.18361284;;;;;;;;;;;;;;;
1176.0;1127.3;;;;-0.43028647;0.9242898;0.17454912;;;;;;;;;;;;;;;
1176.0;1127.3;;;;-0.4288407;0.9233819;0.17465593;;;;;;;;;;;;;;;
1208.0;1131.4;;;;;;;;;;;;;;;;;-1.0376294;1.0605181;1.1139256;;985.5
1208.0;1131.4;;;;;;;;;;;;;;0.877224;0.10211493;-0.423719;;;;;985.5
1208.0;1131.4;;;;;;;;;;;;;;;;;-0.90792567;1.2512589;0.98803675;;985.5
1208.0;1131.4;;;;;;;;;;;;;;0.8752098;0.10229804;-0.4259163;;;;;985.5
1208.0;1131.4;;;;;;;;;;;;;;;;;-0.82399976;1.4000366;0.8926664;;995.1
1208.0;1131.4;;;;;;;;;;;;;;0.8733787;0.1037019;-0.4265267;;;;;995.1
1208.0;1131.4;;;;;;;;;;;;;;;;;-0.7553331;1.6136662;0.82399976;;995.1
1208.0;1131.4;;;;;;;;;;;;;;0.870571;0.10455641;-0.42597735;;;;;995.1
1208.0;1131.4;;;;;;;;;;;;;;;;;-0.553148;1.53737;0.7286294;;1004.8
1208.0;1131.4;;;;;;;;;;;;;;0.870571;0.10577715;-0.4239021;;;;;1004.8
1208.0;1131.4;;;;;;;;;;;;;;;;;-0.4730369;1.3962218;0.6027406;;1004.8
1208.0;1131.4;;;;;;;;;;;;;;0.8713645;0.105288856;-0.42335278;;;;;1004.8
1208.0;1137.2;;;;-0.42757422;0.9221498;0.17412569;;;;;;;;;;;;;;;
1208.0;1137.2;;;;-0.42587668;0.92071545;0.17333604;;;;;;;;;;;;;;;
1208.0;1137.2;;;;-0.4228173;0.91944516;0.17359926;;;;;;;;;;;;;;;
1208.0;1137.2;;;;-0.41987616;0.91827786;0.17333986;;;;;;;;;;;;;;;
1208.0;1137.2;;;;-0.4178887;0.9165765;0.17306139;;;;;;;;;;;;;;;
1208.0;1138.6;57544;57348;12653;;;;;;;;;;;;;;;;;;
1211.0;1147.3;;;;-0.41643912;0.9149667;0.17307664;;;;;;;;;;;;;;;
1211.0;1147.3;;;;-0.41388708;0.9133874;0.17346956;;;;;;;;;;;;;;;
1211.0;1147.3;;;;-0.4121018;0.9125024;0.17393877;;;;;;;;;;;;;;;
1211.0;1147.3;;;;-0.410801;0.9107324;0.17342378;;;;;;;;;;;;;;;
1211.0;1147.3;;;;-0.40951544;0.9092485;0.17380907;;;;;;;;;;;;;;;
1211.0;1157.4;;;;-0.4082871;0.9079286;0.17441179;;;;;;;;;;;;;;;
1211.0;1157.4;;;;-0.40633398;0.90685666;0.17494966;;;;;;;;;;;;;;;
1211.0;1157.4;;;;-0.4054032;0.9057046;0.17568208;;;;;;;;;;;;;;;
1211.0;1157.4;;;;-0.40452582;0.905285;0.17521669;;;;;;;;;;;;;;;
1211.0;1157.4;;;;-0.403328;0.90407956;0.17483522;;;;;;;;;;;;;;;
1211.0;1158.9;73948;73913;12638;;;;;;;;;;;;;;;;;;
1211.0;1161.7;;;;;;;;;;;;;;;;;-0.32807398;1.3504441;0.48829615;;1014.3
1211.0;1161.7;;;;;;;;;;;;;;0.8723411;0.10889004;-0.42286447;;;;;1014.3
1211.0;1161.7;;;;;;;;;;;;;;;;;-0.26322216;1.3389996;0.35859248;;1014.3
1211.0;1161.7;;;;;;;;;;;;;;0.8726463;0.11004975;-0.42384106;;;;;1014.3
1211.0;1161.7;;;;;;;;;;;;;;;;;-0.24796289;1.3161107;0.32044435;;1023.9
1211.0;1161.7;;;;;;;;;;;;;;0.87209696;0.11127049;-0.4232917;;;;;1023.9
1211.0;1161.7;;;;;;;;;;;;;;;;;-0.20218512;1.22837;0.2517777;;1023.9
1211.0;1161.7;;;;;;;;;;;;;;0.87209696;0.11224708;-0.4201178;;;;;1023.9
1211.0;1161.7;;;;;;;;;;;;;;;;;-0.24796289;1.1787775;0.16403699;;1033.6
1211.0;1161.7;;;;;;;;;;;;;;0.870571;0.112735376;-0.42133853;;;;;1033.6
1211.0;1161.7;;;;;;;;;;;;;;;;;-0.08011109;1.0567034;0.08011109;;1033.6
1211.0;1161.7;;;;;;;;;;;;;;0.8678243;0.11529893;-0.42072818;;;;;1033.6
1237.0;1165.1;;;;;;;;;;;;;0;;;;;;;;
1237.0;1165.1;;;;;;;;;;;;;0;;;;;;;;
1237.0;1165.1;;;;;;;;;;;;;-1;;;;;;;;
1237.0;1165.1;;;;;;;;;;;;;-2;;;;;;;;
1237.0;1165.1;;;;;;;;;;;;;-4;;;;;;;;
1237.0;1167.4;;;;-0.4017716;0.9034997;0.17544557;;;;;;;;;;;;;;;
1237.0;1167.4;;;;-0.39967352;0.9037477;0.17620851;;;;;;;;;;;;;;;
1237.0;1167.4;;;;-0.39962393;0.9030229;0.17615129;;;;;;;;;;;;;;;
1237.0;1167.4;;;;-0.39596945;0.903412;0.17868043;;;;;;;;;;;;;;;
1237.0;1167.4;;;;-0.39335257;0.9038278;0.17800523;;;;;;;;;;;;;;;
1237.0;1177.2;;;;-0.39755255;0.90111935;0.1755562;;;;;;;;;;;;;;;
1237.0;1177.2;;;;-0.40176016;0.8984071;0.17553331;;;;;;;;;;;;;;;
1237.0;1177.2;;;;-0.4009934;0.89915097;0.17721178;;;;;;;;;;;;;;;
1237.0;1177.2;;;;-0.39840704;0.9002191;0.17740251;;;;;;;;;;;;;;;
1237.0;1177.2;;;;-0.39598852;0.899624;0.17611696;;;;;;;;;;;;;;;
1237.0;1178.7;90287;90220;12634;;;;;;;;;;;;;;;;;;
1237.0;1187.3;;;;-0.39287573;0.89896023;0.17602922;;;;;;;;;;;;;;;
1237.0;1187.3;;;;-0.38951117;0.8979455;0.17509462;;;;;;;;;;;;;;;
1237.0;1187.3;;;;-0.38773352;0.89678967;0.17369844;;;;;;;;;;;;;;;
1237.0;1187.3;;;;-0.38747412;0.8960153;0.17268755;;;;;;;;;;;;;;;
1237.0;1187.3;;;;-0.38717657;0.8953897;0.17237474;;;;;;;;;;;;;;;
1267.0;1191.5;;;;;;;;;;;;;;;;;-0.038148135;0.9765923;0.0038148137;;1043.2
1267.0;1191.5;;;;;;;;;;;;;;0.8678243;0.11603137;-0.4199347;;;;;1043.2
1267.0;1191.5;;;;;;;;;;;;;;;;;-0.068666644;0.85833305;-0.07629627;;1043.2
1267.0;1191.5;;;;;;;;;;;;;;0.8677633;0.119083226;-0.41792047;;;;;1043.2
1267.0;1191.5;;;;;;;;;;;;;;;;;-0.14877774;0.5417035;-0.11825922;;1052.8
1267.0;1191.5;;;;;;;;;;;;;;0.8690451;0.12024293;-0.4176153;;;;;1052.8
1267.0;1191.5;;;;;;;;;;;;;;;;;-0.17548142;0.4768517;-0.1411481;;1052.8
1267.0;1191.5;;;;;;;;;;;;;;0.8694113;0.12195197;-0.41804254;;;;;1052.8
1267.0;1191.5;;;;;;;;;;;;;;;;;-0.3624073;0.34333324;-0.16403699;;1062.4
1267.0;1191.5;;;;;;;;;;;;;;0.8692892;0.12292856;-0.41511276;;;;;1062.4
1267.0;1191.5;;;;;;;;;;;;;;;;;-0.49592578;0.18692587;-0.1411481;;1062.4
1267.0;1191.5;;;;;;;;;;;;;;0.87044895;0.123783074;-0.41492966;;;;;1062.4
1267.0;1197.2;;;;-0.38644415;0.89463055;0.17110826;;;;;;;;;;;;;;;
1267.0;1197.2;;;;-0.385212;0.8937684;0.1699257;;;;;;;;;;;;;;;
1267.0;1197.2;;;;-0.38442618;0.89311993;0.16941454;;;;;;;;;;;;;;;
1267.0;1197.2;;;;-0.38386542;0.8928453;0.1679764;;;;;;;;;;;;;;;
1267.0;1197.2;;;;-0.38262182;0.8920289;0.1673546;;;;;;;;;;;;;;;
1267.0;1198.7;106665;106608;12621;;;;;;;;;;;;;;;;;;
1267.0;1205.0;;;;;;;;;;;;;-15;;;;;;;;
1267.0;1205.0;;;;;;;;;;;;;14;;;;;;;;
1267.0;1205.0;;;;;;;;;;;;;-21;;;;;;;;
1267.0;1205.0;;;;;;;;;;;;;-57;;;;;;;;
1267.0;1205.0;;;;;;;;;;;;;29;;;;;;;;
1269.0;1207.2;;;;-0.38195807;0.891369;0.16742708;;;;;;;;;;;;;;;
1269.0;1207.2;;;;-0.38166434;0.8911363;0.16735078;;;;;;;;;;;;;;;
1269.0;1207.2;;;;-0.38065344;0.89114773;0.1670189;;;;;;;;;;;;;;;
1269.0;1207.2;;;;-0.3805886;0.8913957;0.16667558;;;;;;;;;;;;;;;
1269.0;1207.2;;;;-0.38128287;0.8916398;0.16690446;;;;;;;;;;;;;;;
1269.0;1217.3;;;;-0.3815499;0.8923646;0.166214;;;;;;;;;;;;;;;
1269.0;1217.3;;;;-0.38085562;0.8929788;0.16653062;;;;;;;;;;;;;;;
1269.0;1217.3;;;;-0.37966162;0.8931161;0.16612627;;;;;;;;;;;;;;;
1269.0;1217.3;;;;-0.37878042;0.89332974;0.16606523;;;;;;;;;;;;;;;
1269.0;1217.3;;;;-0.3784638;0.8941766;0.16622545;;;;;;;;;;;;;;;
1269.0;1218.9;123044;123016;12626;;;;;;;;;;;;;;;;;;
1269.0;1222.1;;;;;;;;;;;;;;;;;-0.71337014;0.038148135;-0.15259254;;1072.1
1269.0;1222.1;;;;;;;;;;;;;;0.8716086;0.12207404;-0.4141972;;;;;1072.1
1269.0;1222.1;;;;;;;;;;;;;;;;;-0.79729605;-0.068666644;-0.1411481;;1072.1
1269.0;1222.1;;;;;;;;;;;;;;0.87228006;0.12396619;-0.41407514;;;;;1072.1
1269.0;1222.1;;;;;;;;;;;;;;;;;-0.93081456;-0.13733329;-0.099185154;;1081.7
1269.0;1222.1;;;;;;;;;;;;;;0.8730125;0.12408826;-0.4140141;;;;;1081.7
1269.0;1222.1;;;;;;;;;;;;;;;;;-1.0414442;-0.21744438;-0.0839259;;1081.7
1269.0;1222.1;;;;;;;;;;;;;;0.87258524;0.12317271;-0.4128544;;;;;1081.7
1269.0;1222.1;;;;;;;;;;;;;;;;;-1.2550737;-0.27466658;-0.015259255;;1091.3
1269.0;1222.1;;;;;;;;;;;;;;0.8734397;0.12268441;-0.41212195;;;;;1091.3
1269.0;1222.1;;;;;;;;;;;;;;;;;-1.5488143;-0.3624073;0.04196295;;1091.3
1269.0;1222.1;;;;;;;;;;;;;;0.8719138;0.12091433;-0.4110233;;;;;1091.3
1297.0;1227.3;;;;-0.37731558;0.89411557;0.16655351;;;;;;;;;;;;;;;
1297.0;1227.3;;;;-0.37736136;0.8936311;0.16651155;;;;;;;;;;;;;;;
1297.0;1227.3;;;;-0.37677008;0.89543927;0.16677476;;;;;;;;;;;;;;;
1297.0;1227.3;;;;-0.37489703;0.8950387;0.16747285;;;;;;;;;;;;;;;
1297.0;1227.3;;;;-0.3745766;0.89501965;0.16865923;;;;;;;;;;;;;;;
1297.0;1237.3;;;;-0.37484363;0.8951837;0.16878892;;;;;;;;;;;;;;;
1297.0;1237.3;;;;-0.37464145;0.89553463;0.1690674;;;;;;;;;;;;;;;
1297.0;1237.3;;;;-0.3753472;0.89605343;0.16965105;;;;;;;;;;;;;;;
1297.0;1237.3;;;;-0.375969;0.8965875;0.17012025;;;;;;;;;;;;;;;
1297.0;1237.3;;;;-0.37533957;0.89745724;0.17045213;;;;;;;;;;;;;;;
1297.0;1238.9;139465;139382;12639;;;;;;;;;;;;;;;;;;
1297.0;1245.2;;;;;;;;;;;;;-168;;;;;;;;
1297.0;1245.2;;;;;;;;;;;;;89;;;;;;;;
1297.0;1245.2;;;;;;;;;;;;;-16;;;;;;;;
1297.0;1245.2;;;;;;;;;;;;;-674;;;;;;;;
1297.0;1245.2;;;;;;;;;;;;;1112;;;;;;;;
1297.0;1247.4;;;;-0.3740616;0.89784634;0.17035295;;;;;;;;;;;;;;;
1297.0;1247.4;;;;-0.37264636;0.8983766;0.17006685;;;;;;;;;;;;;;;
1297.0;1247.4;;;;-0.37176135;0.8988534;0.1703148;;;;;;;;;;;;;;;
1297.0;1247.4;;;;-0.37005237;0.8995935;0.16956331;;;;;;;;;;;;;;;
1297.0;1247.4;;;;-0.36869052;0.8998376;0.16966249;;;;;;;;;;;;;;;
1326.0;1251.8;;;;;;;;;;;;;;;;;-1.7357402;-0.43870357;0.17548142;;1101.0
1326.0;1251.8;;;;;;;;;;;;;;0.87368387;0.12048708;-0.41279337;;;;;1101.0
1326.0;1251.8;;;;;;;;;;;;;;;;;-1.9226661;-0.3929258;0.25940734;;1101.0
1326.0;1251.8;;;;;;;;;;;;;;0.87582016;0.11841182;-0.410596;;;;;1101.0
1326.0;1251.8;;;;;;;;;;;;;;;;;-2.0752587;-0.5569628;0.31662953;;1110.7
1326.0;1251.8;;;;;;;;;;;;;;0.8766137;0.11737419;-0.4125492;;;;;1110.7
1326.0;1251.8;;;;;;;;;;;;;;;;;-2.1629994;-0.54551834;0.34333324;;1110.7
1326.0;1251.8;;;;;;;;;;;;;;0.87820065;0.11688589;-0.4116947;;;;;1110.7
1326.0;1251.8;;;;;;;;;;;;;;;;;-2.3079624;-0.5607776;0.43488875;;1120.4
1326.0;1251.8;;;;;;;;;;;;;;0.87759024;0.11688589;-0.41065708;;;;;1120.4
1326.0;1251.8;;;;;;;;;;;;;;;;;-2.5139623;-0.5836665;0.5340739;;1120.4
1326.0;1251.8;;;;;;;;;;;;;;0.8766137;0.11499374;-0.41334268;;;;;1120.4
1326.0;1257.3;;;;-0.3679581;0.9004785;0.16928484;;;;;;;;;;;;;;;
1326.0;1257.3;;;;-0.36846927;0.90124524;0.16901018;;;;;;;;;;;;;;;
1326.0;1257.3;;;;-0.36568835;0.9030496;0.16711046;;;;;;;;;;;;;;;
1326.0;1257.3;;;;-0.3644829;0.90122235;0.16626741;;;;;;;;;;;;;;;
1326.0;1257.3;;;;-0.3652573;0.90143216;0.16735078;;;;;;;;;;;;;;;
1326.0;1259.0;155860;155825;12628;;;;;;;;;;;;;;;;;;
1326.0;1267.3;;;;-0.36561587;0.90176785;0.16668321;;;;;;;;;;;;;;;
1326.0;1267.3;;;;-0.36547092;0.90114987;0.1655884;;;;;;;;;;;;;;;
1326.0;1267.3;;;;-0.36677173;0.90135205;0.16378023;;;;;;;;;;;;;;;
1326.0;1267.3;;;;-0.36753467;0.90207684;0.16308595;;;;;;;;;;;;;;;
1326.0;1267.3;;;;-0.3660355;0.9018022;0.16278459;;;;;;;;;;;;;;;
1330.0;1277.4;;;;-0.36420062;0.9018251;0.16205598;;;;;;;;;;;;;;;
1330.0;1277.4;;;;-0.36371616;0.9011575;0.16077043;;;;;;;;;;;;;;;
1330.0;1277.4;;;;-0.3624306;0.9015924;0.16040422;;;;;;;;;;;;;;;
1330.0;1277.4;;;;-0.36130145;0.902218;0.15984727;;;;;;;;;;;;;;;
1330.0;1277.4;;;;-0.35948566;0.9020196;0.1594658;;;;;;;;;;;;;;;
1330.0;1279.1;172167;172174;12632;;;;;;;;;;;;;;;;;;
1330.0;1281.8;;;;;;;;;;;;;;;;;-2.578814;-0.6714072;0.6027406;;1130.1
1330.0;1281.8;;;;;;;;;;;;;;0.8779565;0.11407819;-0.41297647;;;;;1130.1
1330.0;1281.8;;;;;;;;;;;;;;;;;-2.6131475;-0.62944424;0.6828517;;1130.1
1330.0;1281.8;;;;;;;;;;;;;;0.8775292;0.112979524;-0.41273233;;;;;1130.1
1330.0;1281.8;;;;;;;;;;;;;;;;;-2.639851;-0.6218146;0.7057405;;1139.7
1330.0;1281.8;;;;;;;;;;;;;;0.8780786;0.11279641;-0.41132846;;;;;1139.7
1330.0;1281.8;;;;;;;;;;;;;;;;;-2.6970735;-0.6637776;0.7667776;;1139.7
1330.0;1281.8;;;;;;;;;;;;;;0.87856686;0.11206397;-0.41242713;;;;;1139.7
1330.0;1281.8;;;;;;;;;;;;;;;;;-2.6474807;-0.7477035;0.7705924;;1149.3
1330.0;1281.8;;;;;;;;;;;;;;0.87838376;0.111636706;-0.41334268;;;;;1149.3
1330.0;1281.8;;;;;;;;;;;;;;;;;-2.6284068;-0.7477035;0.7820368;;1149.3
1330.0;1281.8;;;;;;;;;;;;;;0.8770409;0.111880854;-0.413831;;;;;1149.3
1330.0;1285.2;;;;;;;;;;;;;1240;;;;;;;;
1330.0;1285.2;;;;;;;;;;;;;-2950;;;;;;;;
1330.0;1285.2;;;;;;;;;;;;;-2604;;;;;;;;
1330.0;1285.2;;;;;;;;;;;;;7819;;;;;;;;
1330.0;1285.2;;;;;;;;;;;;;20742;;;;;;;;
1356.0;1287.3;;;;-0.35935977;0.90311825;0.15960695;;;;;;;;;;;;;;;
1356.0;1287.3;;;;-0.3588753;0.9057466;0.15893938;;;;;;;;;;;;;;;
1356.0;1287.3;;;;-0.3572388;0.90431607;0.15857698;;;;;;;;;;;;;;;
1356.0;1287.3;;;;-0.35736087;0.905285;0.16096498;;;;;;;;;;;;;;;
1356.0;1287.3;;;;-0.35921863;0.90674984;0.16041185;;;;;;;;;;;;;;;
1356.0;1297.2;;;;-0.36161807;0.90810025;0.15955736;;;;;;;;;;;;;;;
1356.0;1297.2;;;;-0.36363223;0.9090234;0.15875627;;;;;;;;;;;;;;;
1356.0;1297.2;;;;-0.36399463;0.90993893;0.15857698;;;;;;;;;;;;;;;
1356.0;1297.2;;;;-0.3624268;0.91066754;0.15839006;;;;;;;;;;;;;;;
1356.0;1297.2;;;;-0.3606873;0.9115983;0.15898515;;;;;;;;;;;;;;;
1356.0;1298.9;188576;188685;12616;;;;;;;;;;;;;;;;;;
1356.0;1307.3;;;;-0.35906222;0.91202176;0.1588669;;;;;;;;;;;;;;;
1356.0;1307.3;;;;-0.3559647;0.91152203;0.15849306;;;;;;;;;;;;;;;
1356.0;1307.3;;;;-0.35483173;0.9113885;0.1584511;;;;;;;;;;;;;;;
1356.0;1307.3;;;;-0.3554192;0.9119264;0.15882112;;;;;;;;;;;;;;;
1356.0;1307.3;;;;-0.35575488;0.91303647;0.1589203;;;;;;;;;;;;;;;
1390.0;1311.8;;;;;;;;;;;;;;;;;-2.5940733;-0.6904813;0.80111086;;1158.9
1390.0;1311.8;;;;;;;;;;;;;;0.8756981;0.11139256;-0.41523483;;;;;1158.9
1390.0;1311.8;;;;;;;;;;;;;;;;;-2.4643695;-0.7209998;0.7095553;;1158.9
1390.0;1311.8;;;;;;;;;;;;;;0.87459946;0.1114536;-0.4148076;;;;;1158.9
1390.0;1311.8;;;;;;;;;;;;;;;;;-2.277444;-0.85833305;0.63325906;;1168.5
1390.0;1311.8;;;;;;;;;;;;;;0.87368387;0.11236915;-0.41456345;;;;;1168.5
1390.0;1311.8;;;;;;;;;;;;;;;;;-2.1019626;-0.8926664;0.59129614;;1168.5
1390.0;1311.8;;;;;;;;;;;;;;0.8731956;0.11181982;-0.41578418;;;;;1168.5
1390.0;1311.8;;;;;;;;;;;;;;;;;-1.9760735;-0.9460738;0.50737023;;1178.1
1390.0;1311.8;;;;;;;;;;;;;;0.8730125;0.112125;-0.4140141;;;;;1178.1
1390.0;1311.8;;;;;;;;;;;;;;;;;-1.8692588;-1.0261849;0.40818506;;1178.1
1390.0;1311.8;;;;;;;;;;;;;;0.8725242;0.11358989;-0.4132206;;;;;1178.1
1390.0;1317.2;;;;-0.35530093;0.91323864;0.15903474;;;;;;;;;;;;;;;
1390.0;1317.2;;;;-0.35616687;0.91305935;0.15860368;;;;;;;;;;;;;;;
1390.0;1317.2;;;;-0.35699084;0.9138261;0.1586075;;;;;;;;;;;;;;;
1390.0;1317.2;;;;-0.35658267;0.9142381;0.15866853;;;;;;;;;;;;;;;
1390.0;1317.2;;;;-0.35579684;0.9145814;0.15862276;;;;;;;;;;;;;;;
1390.0;1319.0;204990;204903;12621;;;;;;;;;;;;;;;;;;
1390.0;1325.3;;;;;;;;;;;;;23261;;;;;;;;
1390.0;1325.3;;;;;;;;;;;;;14238;;;;;;;;
1390.0;1325.3;;;;;;;;;;;;;5082;;;;;;;;
1390.0;1325.3;;;;;;;;;;;;;4208;;;;;;;;
1390.0;1325.3;;;;;;;;;;;;;7363;;;;;;;;
1392.0;1327.3;;;;-0.35588458;0.91521084;0.1578293;;;;;;;;;;;;;;;
1392.0;1327.3;;;;-0.35651782;0.91568005;0.15704729;;;;;;;;;;;;;;;
1392.0;1327.3;;;;-0.3568268;0.91643155;0.15726472;;;;;;;;;;;;;;;
1392.0;1327.3;;;;-0.35662845;0.91669476;0.15657808;;;;;;;;;;;;;;;
1392.0;1327.3;;;;-0.35603717;0.91612256;0.15612032;;;;;;;;;;;;;;;
1392.0;1337.4;;;;-0.35532764;0.9161874;0.15604784;;;;;;;;;;;;;;;
1392.0;1337.4;;;;-0.35469058;0.91630566;0.15558244;;;;;;;;;;;;;;;
1392.0;1337.4;;;;-0.35421374;0.91671;0.15531541;;;;;;;;;;;;;;;
1392.0;1337.4;;;;-0.35299304;0.9171754;0.15562059;;;;;;;;;;;;;;;
1392.0;1337.4;;;;-0.35278705;0.91798794;0.15539552;;;;;;;;;;;;;;;
1392.0;1339.3;221368;221336;12617;;;;;;;;;;;;;;;;;;
1392.0;1342.0;;;;;;;;;;;;;;;;;-1.7242957;-1.0147405;0.35477766;;1187.7
1392.0;1342.0;;;;;;;;;;;;;;0.8733787;0.11334574;-0.41712698;;;;;1187.7
1392.0;1342.0;;;;;;;;;;;;;;;;;-1.6327403;-1.0299997;0.3128147;;1187.7
1392.0;1342.0;;;;;;;;;;;;;;0.87118137;0.11358989;-0.41431928;;;;;1187.7
1392.0;1342.0;;;;;;;;;;;;;;;;;-1.5488143;-1.12537;0.26322216;;1197.4
1392.0;1342.0;;;;;;;;;;;;;;0.873867;0.11236915;-0.41291544;;;;;1197.4
1392.0;1342.0;;;;;;;;;;;;;;;;;-1.453444;-1.2016664;0.19455549;;1197.4
1392.0;1342.0;;;;;;;;;;;;;;0.87112033;0.11127049;-0.41328165;;;;;1197.4
1392.0;1342.0;;;;;;;;;;;;;;;;;-1.3885921;-1.2550737;0.16403699;;1207.0
1392.0;1342.0;;;;;;;;;;;;;;0.87228006;0.111880854;-0.41297647;;;;;1207.0
1392.0;1342.0;;;;;;;;;;;;;;;;;-1.3885921;-1.2359996;0.22888882;;1207.0
1392.0;1342.0;;;;;;;;;;;;;;0.87148654;0.111880854;-0.41309854;;;;;1207.0
1416.0;1347.3;;;;-0.35315707;0.91835415;0.15558626;;;;;;;;;;;;;;;
1416.0;1347.3;;;;-0.35291675;0.91819775;0.15560533;;;;;;;;;;;;;;;
1416.0;1347.3;;;;-0.3523827;0.9182321;0.15559389;;;;;;;;;;;;;;;
1416.0;1347.3;;;;-0.35152057;0.91873944;0.15634157;;;;;;;;;;;;;;;
1416.0;1347.3;;;;-0.3498154;0.9202806;0.15498735;;;;;;;;;;;;;;;
1416.0;1357.2;;;;-0.3493767;0.9181024;0.1546097;;;;;;;;;;;;;;;
1416.0;1357.2;;;;-0.35058978;0.91876996;0.15638734;;;;;;;;;;;;;;;
1416.0;1357.2;;;;-0.3517609;0.9196168;0.15663148;;;;;;;;;;;;;;;
1416.0;1357.2;;;;-0.35185245;0.918995;0.15608598;;;;;;;;;;;;;;;
1416.0;1357.2;;;;-0.35302356;0.9185678;0.15630724;;;;;;;;;;;;;;;
1416.0;1359.1;237706;237749;12606;;;;;;;;;;;;;;;;;;
1416.0;1365.3;;;;;;;;;;;;;6637;;;;;;;;
1416.0;1365.3;;;;;;;;;;;;;4967;;;;;;;;
1416.0;1365.3;;;;;;;;;;;;;5153;;;;;;;;
1416.0;1365.3;;;;;;;;;;;;;4427;;;;;;;;
1416.0;1365.3;;;;;;;;;;;;;3563;;;;;;;;
1416.0;1367.2;;;;-0.35416034;0.91868985;0.15677644;;;;;;;;;;;;;;;
1416.0;1367.2;;;;-0.35377887;0.9191934;0.15740205;;;;;;;;;;;;;;;
1416.0;1367.2;;;;-0.3525162;0.9189874;0.15732194;;;;;;;;;;;;;;;
1416.0;1367.2;;;;-0.35218433;0.9186822;0.15729906;;;;;;;;;;;;;;;
1416.0;1367.2;;;;-0.35177234;0.9185487;0.15701677;;;;;;;;;;;;;;;
1445.0;1372.3;;;;;;;;;;;;;;;;;-1.3237404;-1.3962218;0.29755548;;1216.7
1445.0;1372.3;;;;;;;;;;;;;;0.8714255;0.11243019;-0.4115726;;;;;1216.7
1445.0;1372.3;;;;;;;;;;;;;;;;;-1.3161107;-1.4381847;0.19455549;;1216.7
1445.0;1372.3;;;;;;;;;;;;;;0.8712424;0.11169775;-0.4136479;;;;;1216.7
1445.0;1372.3;;;;;;;;;;;;;;;;;-1.3199255;-1.4343699;0.25940734;;1226.4
1445.0;1372.3;;;;;;;;;;;;;;0.87203586;0.111880854;-0.41462448;;;;;1226.4
1445.0;1372.3;;;;;;;;;;;;;;;;;-1.392407;-1.4725181;0.25940734;;1226.4
1445.0;1372.3;;;;;;;;;;;;;;0.87185276;0.11090426;-0.41456345;;;;;1226.4
1445.0;1372.3;;;;;;;;;;;;;;;;;-1.3885921;-1.4610736;0.24796289;;1236.0
1445.0;1372.3;;;;;;;;;;;;;;0.8732566;0.10956145;-0.4177984;;;;;1236.0
1445.0;1372.3;;;;;;;;;;;;;;;;;-1.3657033;-1.411481;0.22888882;;1236.0
1445.0;1372.3;;;;;;;;;;;;;;0.87148654;0.10925627;-0.41773736;;;;;1236.0
1445.0;1377.1;;;;-0.35055545;0.91822064;0.15760423;;;;;;;;;;;;;;;
1445.0;1377.1;;;;-0.34902194;0.9179307;0.15739442;;;;;;;;;;;;;;;
1445.0;1377.1;;;;-0.3482857;0.91736615;0.15732576;;;;;;;;;;;;;;;
1445.0;1377.1;;;;-0.3476601;0.9172288;0.15769197;;;;;;;;;;;;;;;
1445.0;1377.1;;;;-0.3468285;0.9166032;0.15739061;;;;;;;;;;;;;;;
1445.0;1379.1;254112;254201;12607;;;;;;;;;;;;;;;;;;
1445.0;1387.1;;;;-0.34669116;0.9167825;0.15760423;;;;;;;;;;;;;;;
1445.0;1387.1;;;;-0.34787753;0.91725934;0.15789415;;;;;;;;;;;;;;;
1445.0;1387.1;;;;-0.34749988;0.9175912;0.15779878;;;;;;;;;;;;;;;
1445.0;1387.1;;;;-0.34583667;0.91738904;0.15970232;;;;;;;;;;;;;;;
1445.0;1387.1;;;;-0.34682086;0.91698086;0.15906526;;;;;;;;;;;;;;;
1449.0;1397.2;;;;-0.3488846;0.91749966;0.15809251;;;;;;;;;;;;;;;
1449.0;1397.2;;;;-0.35022357;0.9181787;0.15836717;;;;;;;;;;;;;;;
1449.0;1397.2;;;;-0.34977344;0.918049;0.1595688;;;;;;;;;;;;;;;
1449.0;1397.2;;;;-0.34929278;0.9179803;0.16023637;;;;;;;;;;;;;;;
1449.0;1397.2;;;;-0.34706882;0.91767514;0.16028978;;;;;;;;;;;;;;;
1449.0;1399.3;262143;262143;12606;;;;;;;;;;;;;;;;;;
1449.0;1402.0;;;;;;;;;;;;;;;;;-1.3237404;-1.4381847;0.27085176;;1245.5
1449.0;1402.0;;;;;;;;;;;;;;0.8723411;0.10876797;-0.41724905;;;;;1245.5
1449.0;1402.0;;;;;;;;;;;;;;;;;-1.3161107;-1.4458144;0.3128147;;1245.5
1449.0;1402.0;;;;;;;;;;;;;;0.87331766;0.10669271;-0.41865292;;;;;1245.5
1449.0;1402.0;;;;;;;;;;;;;;;;;-1.2855922;-1.411481;0.29374066;;1255.2
1449.0;1402.0;;;;;;;;;;;;;;0.875515;0.10632649;-0.41901913;;;;;1255.2
1449.0;1402.0;;;;;;;;;;;;;;;;;-1.2054812;-1.33137;0.26703694;;1255.2
1449.0;1402.0;;;;;;;;;;;;;;0.8758812;0.10504471;-0.42121646;;;;;1255.2
1449.0;1402.0;;;;;;;;;;;;;;;;;-1.1597034;-1.1825923;0.22888882;;1264.9
1449.0;1402.0;;;;;;;;;;;;;;0.8756981;0.1048616;-0.42085025;;;;;1264.9
1449.0;1402.0;;;;;;;;;;;;;;;;;-1.1291848;-1.0719626;0.17166662;;1264.9
1449.0;1402.0;;;;;;;;;;;;;;0.87459946;0.10309152;-0.4212775;;;;;1264.9
1449.0;1405.3;;;;;;;;;;;;;3239;;;;;;;;
1449.0;1405.3;;;;;;;;;;;;;3137;;;;;;;;
1449.0;1405.3;;;;;;;;;;;;;3538;;;;;;;;
1449.0;1405.3;;;;;;;;;;;;;3901;;;;;;;;
1449.0;1405.3;;;;;;;;;;;;;3893;;;;;;;;
1477.0;1407.1;;;;-0.3439751;0.9176408;0.16027452;;;;;;;;;;;;;;;
1477.0;1407.1;;;;-0.34125903;0.9172441;0.16101839;;;;;;;;;;;;;;;
1477.0;1407.1;;;;-0.3389702;0.9169923;0.16160204;;;;;;;;;;;;;;;
1477.0;1407.1;;;;-0.33464816;0.9151994;0.16213228;;;;;;;;;;;;;;;
1477.0;1407.1;;;;-0.3342438;0.913849;0.16214754;;;;;;;;;;;;;;;
1477.0;1417.0;;;;-0.3392487;0.9158937;0.16337587;;;;;;;;;;;;;;;
1477.0;1417.0;;;;-0.34320834;0.9186059;0.1614876;;;;;;;;;;;;;;;
1477.0;1417.0;;;;-0.3422356;0.9176866;0.16139223;;;;;;;;;;;;;;;
1477.0;1417.0;;;;-0.3415909;0.91785824;0.16342546;;;;;;;;;;;;;;;
1477.0;1417.0;;;;-0.34190372;0.9167863;0.1641884;;;;;;;;;;;;;;;
1477.0;1419.2;262143;262143;12597;;;;;;;;;;;;;;;;;;
1477.0;1427.2;;;;-0.34038928;0.91547406;0.16389467;;;;;;;;;;;;;;;
1477.0;1427.2;;;;-0.33991626;0.91511166;0.16399004;;;;;;;;;;;;;;;
1477.0;1427.2;;;;-0.34030917;0.9156076;0.16450502;;;;;;;;;;;;;;;
1477.0;1427.2;;;;-0.34020236;0.91638196;0.16529848;;;;;;;;;;;;;;;
1477.0;1427.2;;;;-0.3387604;0.916546;0.16550829;;;;;;;;;;;;;;;
1505.0;1432.1;;;;;;;;;;;;;;;;;-1.0338145;-1.0147405;0.21362957;;1274.6
1505.0;1432.1;;;;;;;;;;;;;;0.8744774;0.102725305;-0.42182684;;;;;1274.6
1505.0;1432.1;;;;;;;;;;;;;;;;;-0.85833305;-1.0414442;0.09155553;;1274.6
1505.0;1432.1;;;;;;;;;;;;;;0.87380594;0.10235908;-0.42072818;;;;;1274.6
1505.0;1432.1;;;;;;;;;;;;;;;;;-0.5798517;-0.9460738;0.049592577;;1284.2
1505.0;1432.1;;;;;;;;;;;;;;0.873928;0.10498367;-0.4201178;;;;;1284.2
1505.0;1432.1;;;;;;;;;;;;;;;;;-0.40437025;-0.84688866;-0.0839259;;1284.2
1505.0;1432.1;;;;;;;;;;;;;;0.8733787;0.1053499;-0.41975158;;;;;1284.2
1505.0;1432.1;;;;;;;;;;;;;;;;;-0.37003693;-0.73625904;-0.12207404;;1293.8
1505.0;1432.1;;;;;;;;;;;;;;0.87258524;0.104617454;-0.41981262;;;;;1293.8
1505.0;1432.1;;;;;;;;;;;;;;;;;-0.2784814;-0.67522204;-0.23270364;;1293.8
1505.0;1432.1;;;;;;;;;;;;;;0.8719748;0.10614338;-0.41908017;;;;;1293.8
1505.0;1437.2;;;;-0.33786777;0.91674054;0.16586305;;;;;;;;;;;;;;;
1505.0;1437.2;;;;-0.3369675;0.9169427;0.16624452;;;;;;;;;;;;;;;
1505.0;1437.2;;;;-0.33587268;0.9168016;0.16588213;;;;;;;;;;;;;;;
1505.0;1437.2;;;;-0.33505252;0.9166337;0.16653444;;;;;;;;;;;;;;;
1505.0;1437.2;;;;-0.33474353;0.91625607;0.16665651;;;;;;;;;;;;;;;
1505.0;1439.4;262143;262143;12595;;;;;;;;;;;;;;;;;;
1505.0;1445.5;;;;;;;;;;;;;3775;;;;;;;;
1505.0;1445.5;;;;;;;;;;;;;3541;;;;;;;;
1505.0;1445.5;;;;;;;;;;;;;2916;;;;;;;;
1505.0;1445.5;;;;;;;;;;;;;2354;;;;;;;;
1505.0;1445.5;;;;;;;;;;;;;2947;;;;;;;;
1509.0;1447.1;;;;-0.33453754;0.9158212;0.16711046;;;;;;;;;;;;;;;
1509.0;1447.1;;;;-0.3345833;0.91513073;0.16728593;;;;;;;;;;;;;;;
1509.0;1447.1;;;;-0.33476642;0.9144174;0.16803361;;;;;;;;;;;;;;;
1509.0;1447.1;;;;-0.33446887;0.91417325;0.16802217;;;;;;;;;;;;;;;
1509.0;1447.1;;;;-0.333931;0.91350186;0.16830446;;;;;;;;;;;;;;;
1509.0;1457.2;;;;-0.33361056;0.91292584;0.16899492;;;;;;;;;;;;;;;
1509.0;1457.2;;;;-0.33295444;0.91262066;0.16810228;;;;;;;;;;;;;;;
1509.0;1457.2;;;;-0.3323517;0.91225827;0.16854097;;;;;;;;;;;;;;;
1509.0;1457.2;;;;-0.33157352;0.91183484;0.17063905;;;;;;;;;;;;;;;
1509.0;1457.2;;;;-0.33129123;0.9114953;0.17034914;;;;;;;;;;;;;;;
1509.0;1459.4;262143;262143;12588;;;;;;;;;;;;;;;;;;
1509.0;1462.1;;;;;;;;;;;;;;;;;-0.12588885;-0.59892577;-0.3624073;;1303.5
1509.0;1462.1;;;;;;;;;;;;;;0.8707541;0.106509596;-0.41969055;;;;;1303.5
1509.0;1462.1;;;;;;;;;;;;;;;;;0.06103702;-0.51499987;-0.5226295;;1303.5
1509.0;1462.1;;;;;;;;;;;;;;0.8708762;0.10693686;-0.4185919;;;;;1303.5
1509.0;1462.1;;;;;;;;;;;;;;;;;0.16403699;-0.48448133;-0.553148;;1313.1
1509.0;1462.1;;;;;;;;;;;;;;0.8728294;0.10834071;-0.41908017;;;;;1313.1
1509.0;1462.1;;;;;;;;;;;;;;;;;0.22888882;-0.44251838;-0.6904813;;1313.1
1509.0;1462.1;;;;;;;;;;;;;;0.87362283;0.1093173;-0.4222541;;;;;1313.1
1509.0;1462.1;;;;;;;;;;;;;;;;;0.34714803;-0.32425916;-0.7324442;;1322.6
1509.0;1462.1;;;;;;;;;;;;;;0.873867;0.11169775;-0.42146063;;;;;1322.6
1509.0;1462.1;;;;;;;;;;;;;;;;;0.4768517;-0.13351847;-0.8545183;;1322.6
1509.0;1462.1;;;;;;;;;;;;;;0.87044895;0.112979524;-0.42231512;;;;;1322.6
1534.0;1467.1;;;;-0.33177188;0.91141903;0.17003633;;;;;;;;;;;;;;;
1534.0;1467.1;;;;-0.33197024;0.91139615;0.1712494;;;;;;;;;;;;;;;
1534.0;1467.1;;;;-0.33156207;0.9113275;0.17160799;;;;;;;;;;;;;;;
1534.0;1467.1;;;;-0.32976153;0.9105569;0.17129137;;;;;;;;;;;;;;;
1534.0;1467.1;;;;-0.3271599;0.9096719;0.17131425;;;;;;;;;;;;;;;
1534.0;1477.2;;;;-0.32539752;0.9087602;0.17170335;;;;;;;;;;;;;;;
1534.0;1477.2;;;;-0.32407;0.9079324;0.17216112;;;;;;;;;;;;;;;
1534.0;1477.2;;;;-0.32331088;0.90737545;0.17266466;;;;;;;;;;;;;;;
1534.0;1477.2;;;;-0.3231621;0.9065324;0.17324068;;;;;;;;;;;;;;;
1534.0;1477.2;;;;-0.32326892;0.90626156;0.17388536;;;;;;;;;;;;;;;
1534.0;1479.3;262143;262143;12591;;;;;;;;;;;;;;;;;;
1534.0;1485.6;;;;;;;;;;;;;4682;;;;;;;;
1534.0;1485.6;;;;;;;;;;;;;2914;;;;;;;;
1534.0;1485.6;;;;;;;;;;;;;-8259;;;;;;;;
1534.0;1485.6;;;;;;;;;;;;;-24499;;;;;;;;
1534.0;1485.6;;;;;;;;;;;;;-31977;;;;;;;;
1534.0;1487.2;;;;-0.32367328;0.90607846;0.1744919;;;;;;;;;;;;;;;
1534.0;1487.2;;;;-0.32374576;0.9060823;0.1756096;;;;;;;;;;;;;;;
1534.0;1487.2;;;;-0.3227463;0.906582;0.17589952;;;;;;;;;;;;;;;
1534.0;1487.2;;;;-0.32260516;0.9070054;0.17644884;;;;;;;;;;;;;;;
1534.0;1487.2;;;;-0.32216266;0.9072839;0.1764641;;;;;;;;;;;;;;;
1567.0;1492.6;;;;;;;;;;;;;;;;;0.50737023;0.026703697;-0.8888516;;1332.3
1567.0;1492.6;;;;;;;;;;;;;;0.8674581;0.11499374;-0.42182684;;;;;1332.3
1567.0;1492.6;;;;;;;;;;;;;;;;;0.57222205;0.053407393;-0.92699975;;1332.3
1567.0;1492.6;;;;;;;;;;;;;;0.86538285;0.117069006;-0.42200994;;;;;1332.3
1567.0;1492.6;;;;;;;;;;;;;;;;;0.67522204;-0.03051851;-1.003296;;1342.0
1567.0;1492.6;;;;;;;;;;;;;;0.8653218;0.11670278;-0.4227424;;;;;1342.0
1567.0;1492.6;;;;;;;;;;;;;;;;;0.8316294;-0.053407393;-1.064333;;1342.0
1567.0;1492.6;;;;;;;;;;;;;;0.86593217;0.12005982;-0.42213202;;;;;1342.0
1567.0;1492.6;;;;;;;;;;;;;;;;;0.86214787;-0.06103702;-1.0338145;;1351.7
1567.0;1492.6;;;;;;;;;;;;;;0.8662374;0.121097445;-0.42347485;;;;;1351.7
1567.0;1492.6;;;;;;;;;;;;;;;;;0.8545183;-0.12970367;-1.0910367;;1351.7
1567.0;1492.6;;;;;;;;;;;;;;0.8659932;0.122013;-0.42518386;;;;;1351.7
1567.0;1497.2;;;;-0.3220673;0.9073945;0.17743303;;;;;;;;;;;;;;;
1567.0;1497.2;;;;-0.32200626;0.9073411;0.17847444;;;;;;;;;;;;;;;
1567.0;1497.2;;;;-0.32167056;0.906849;0.178566;;;;;;;;;;;;;;;
1567.0;1497.2;;;;-0.3208733;0.90667355;0.17856218;;;;;;;;;;;;;;;
1567.0;1497.2;;;;-0.3198357;0.9060861;0.1791916;;;;;;;;;;;;;;;
1567.0;1499.5;262143;262143;12584;;;;;;;;;;;;;;;;;;
1567.0;1507.2;;;;-0.31878665;0.90547955;0.17953111;;;;;;;;;;;;;;;
1567.0;1507.2;;;;-0.31808475;0.9042245;0.179348;;;;;;;;;;;;;;;
1567.0;1507.2;;;;-0.3177872;0.90348446;0.17923738;;;;;;;;;;;;;;;
1567.0;1507.2;;;;-0.3176079;0.9020082;0.17993928;;;;;;;;;;;;;;;
1567.0;1507.2;;;;-0.31756595;0.90083706;0.18060686;;;;;;;;;;;;;;;
1569.0;1517.3;;;;-0.31704715;0.899727;0.18112566;;;;;;;;;;;;;;;
1569.0;1517.3;;;;-0.3171158;0.8983537;0.1813698;;;;;;;;;;;;;;;
1569.0;1517.3;;;;-0.31697085;0.89680874;0.18170168;;;;;;;;;;;;;;;
1569.0;1517.3;;;;-0.31675723;0.8959085;0.18213274;;;;;;;;;;;;;;;
1569.0;1517.3;;;;-0.31635287;0.89452755;0.181942;;;;;;;;;;;;;;;
1569.0;1519.7;262143;262143;12567;;;;;;;;;;;;;;;;;;
1569.0;1522.4;;;;;;;;;;;;;;;;;0.92318493;-0.08011109;-1.064333;;1361.2
1569.0;1522.4;;;;;;;;;;;;;;0.8667867;0.12268441;-0.4263436;;;;;1361.2
1569.0;1522.4;;;;;;;;;;;;;;;;;0.93081456;-0.015259255;-1.083407;;1361.2
1569.0;1522.4;;;;;;;;;;;;;;0.8663595;0.124881744;-0.4276864;;;;;1361.2
1569.0;1522.4;;;;;;;;;;;;;;;;;0.90792567;0.019074067;-1.0185553;;1370.9
1569.0;1522.4;;;;;;;;;;;;;;0.8667257;0.12537004;-0.4275033;;;;;1370.9
1569.0;1522.4;;;;;;;;;;;;;;;;;0.88503677;0.064851835;-0.9994812;;1370.9
1569.0;1522.4;;;;;;;;;;;;;;0.8661763;0.1267739;-0.42683187;;;;;1370.9
1569.0;1522.4;;;;;;;;;;;;;;;;;0.90411085;-0.015259255;-1.0147405;;1380.6
1569.0;1522.4;;;;;;;;;;;;;;0.86684775;0.12927641;-0.42530596;;;;;1380.6
1569.0;1522.4;;;;;;;;;;;;;;;;;0.90411085;-0.053407393;-1.003296;;1380.6
1569.0;1522.4;;;;;;;;;;;;;;0.86861783;0.12988678;-0.42493972;;;;;1380.6
1569.0;1525.8;;;;;;;;;;;;;-23328;;;;;;;;
1569.0;1525.8;;;;;;;;;;;;;-6806;;;;;;;;
1569.0;1525.8;;;;;;;;;;;;;3919;;;;;;;;
1569.0;1525.8;;;;;;;;;;;;;5116;;;;;;;;
1569.0;1525.8;;;;;;;;;;;;;3137;;;;;;;;
1594.0;1527.3;;;;-0.31588367;0.8933984;0.18161394;;;;;;;;;;;;;;;
1594.0;1527.3;;;;-0.3145943;0.8925744;0.18154146;;;;;;;;;;;;;;;
1594.0;1527.3;;;;-0.31447223;0.8913957;0.18142702;;;;;;;;;;;;;;;
1594.0;1527.3;;;;-0.31391147;0.89068234;0.18111421;;;;;;;;;;;;;;;
1594.0;1527.3;;;;-0.31375507;0.88917935;0.18143465;;;;;;;;;;;;;;;
1594.0;1537.3;;;;-0.31089786;0.88933194;0.18125536;;;;;;;;;;;;;;;
1594.0;1537.3;;;;-0.30972293;0.88842785;0.18042375;;;;;;;;;;;;;;;
1594.0;1537.3;;;;-0.3106995;0.8872262;0.17978288;;;;;;;;;;;;;;;
1594.0;1537.3;;;;-0.31078342;0.8868524;0.17986299;;;;;;;;;;;;;;;
1594.0;1537.3;;;;-0.31055453;0.8870889;0.17957307;;;;;;;;;;;;;;;
1594.0;1539.6;262143;262143;12573;;;;;;;;;;;;;;;;;;
1594.0;1547.3;;;;-0.31055072;0.88741314;0.1785927;;;;;;;;;;;;;;;
1594.0;1547.3;;;;-0.30967715;0.8871385;0.18024828;;;;;;;;;;;;;;;
1594.0;1547.3;;;;-0.30841067;0.88671124;0.18030931;;;;;;;;;;;;;;;
1594.0;1547.3;;;;-0.30915073;0.8861619;0.17933656;;;;;;;;;;;;;;;
1594.0;1547.3;;;;-0.31034854;0.8859178;0.17972948;;;;;;;;;;;;;;;
1624.0;1552.3;;;;;;;;;;;;;;;;;0.93844414;-0.12588885;-0.92318493;;1390.1
1624.0;1552.3;;;;;;;;;;;;;;0.8683737;0.12988678;-0.4245735;;;;;1390.1
1624.0;1552.3;;;;;;;;;;;;;;;;;0.8087405;-0.13733329;-0.87740713;;1390.1
1624.0;1552.3;;;;;;;;;;;;;;0.8680074;0.13196203;-0.42500076;;;;;1390.1
1624.0;1552.3;;;;;;;;;;;;;;;;;0.74007386;-0.14877774;-0.8697775;;1399.8
1624.0;1552.3;;;;;;;;;;;;;;0.8680074;0.13080233;-0.4223762;;;;;1399.8
1624.0;1552.3;;;;;;;;;;;;;;;;;0.5607776;-0.095370345;-0.7858516;;1399.8
1624.0;1552.3;;;;;;;;;;;;;;0.86605424;0.13159582;-0.42085025;;;;;1399.8
1624.0;1552.3;;;;;;;;;;;;;;;;;0.42344433;-0.095370345;-0.6904813;;1409.4
1624.0;1552.3;;;;;;;;;;;;;;0.8663595;0.13019197;-0.4193243;;;;;1409.4
1624.0;1552.3;;;;;;;;;;;;;;;;;0.25940734;-0.17548142;-0.65614796;;1409.4
1624.0;1552.3;;;;;;;;;;;;;;0.8646504;0.12994781;-0.4181646;;;;;1409.4
1624.0;1557.2;;;;-0.3111649;0.8863374;0.1800728;;;;;;;;;;;;;;;
1624.0;1557.2;;;;-0.31043246;0.8859674;0.17961885;;;;;;;;;;;;;;;
1624.0;1557.2;;;;-0.3087578;0.8854028;0.17950822;;;;;;;;;;;;;;;
1624.0;1557.2;;;;-0.30672076;0.885193;0.1790619;;;;;;;;;;;;;;;
1624.0;1557.2;;;;-0.30508044;0.88440716;0.17919923;;;;;;;;;;;;;;;
1624.0;1559.7;262143;262143;12569;;;;;;;;;;;;;;;;;;
1624.0;1565.8;;;;;;;;;;;;;3264;;;;;;;;
1624.0;1565.8;;;;;;;;;;;;;4271;;;;;;;;
1624.0;1565.8;;;;;;;;;;;;;4107;;;;;;;;
1624.0;1565.8;;;;;;;;;;;;;3722;;;;;;;;
1624.0;1565.8;;;;;;;;;;;;;3535;;;;;;;;
1627.0;1567.2;;;;-0.30451205;0.88360226;0.1790619;;;;;;;;;;;;;;;
1627.0;1567.2;;;;-0.3045235;0.8834878;0.17963411;;;;;;;;;;;;;;;
1627.0;1567.2;;;;-0.3050461;0.8825532;0.18014528;;;;;;;;;;;;;;;
1627.0;1567.2;;;;-0.3061371;0.88274014;0.18021776;;;;;;;;;;;;;;;
1627.0;1567.2;;;;-0.30739596;0.8825151;0.18045045;;;;;;;;;;;;;;;
1627.0;1577.3;;;;-0.3078728;0.88291943;0.18137743;;;;;;;;;;;;;;;
1627.0;1577.3;;;;-0.30876926;0.8833314;0.18140794;;;;;;;;;;;;;;;
1627.0;1577.3;;;;-0.3099213;0.88383496;0.18213274;;;;;;;;;;;;;;;
1627.0;1577.3;;;;-0.31119922;0.88489926;0.182045;;;;;;;;;;;;;;;
1627.0;1577.3;;;;-0.31240466;0.8854486;0.1820984;;;;;;;;;;;;;;;
1627.0;1579.8;262143;262143;12562;;;;;;;;;;;;;;;;;;
1627.0;1582.4;;;;;;;;;;;;;;;;;0.10681479;-0.20599994;-0.65233314;;1419.1
1627.0;1582.4;;;;;;;;;;;;;;0.86538285;0.1312296;-0.41639453;;;;;1419.1
1627.0;1582.4;;;;;;;;;;;;;;;;;-0.09155553;-0.26322216;-0.54933316;;1419.1
1627.0;1582.4;;;;;;;;;;;;;;0.8670919;0.1314127;-0.41901913;;;;;1419.1
1627.0;1582.4;;;;;;;;;;;;;;;;;-0.28992584;-0.23651844;-0.5264443;;1428.7
1627.0;1582.4;;;;;;;;;;;;;;0.8681295;0.13196203;-0.4207892;;;;;1428.7
1627.0;1582.4;;;;;;;;;;;;;;;;;-0.41199988;-0.16022217;-0.4463332;;1428.7
1627.0;1582.4;;;;;;;;;;;;;;0.8671529;0.13214515;-0.4213996;;;;;1428.7
1627.0;1582.4;;;;;;;;;;;;;;;;;-0.6599628;-0.13351847;-0.3662221;;1438.3
1627.0;1582.4;;;;;;;;;;;;;;0.8690451;0.13220619;-0.42115542;;;;;1438.3
1627.0;1582.4;;;;;;;;;;;;;;;;;-0.9498886;-0.11444441;-0.23270364;;1438.3
1627.0;1582.4;;;;;;;;;;;;;;0.86788535;0.1312296;-0.4212775;;;;;1438.3
1716.0;1587.2;;;;-0.31416324;0.885708;0.18142702;;;;;;;;;;;;;;;
1716.0;1587.2;;;;-0.3148537;0.88645566;0.18114091;;;;;;;;;;;;;;;
1716.0;1587.2;;;;-0.3155785;0.88676465;0.18096544;;;;;;;;;;;;;;;
1716.0;1587.2;;;;-0.31668094;0.88715756;0.18083192;;;;;;;;;;;;;;;
1716.0;1587.2;;;;-0.3183594;0.8870965;0.18054964;;;;;;;;;;;;;;;
1716.0;1597.3;;;;-0.32041553;0.88702023;0.18032838;;;;;;;;;;;;;;;
1716.0;1597.3;;;;-0.32249835;0.8871385;0.17984773;;;;;;;;;;;;;;;
1716.0;1597.3;;;;-0.32442477;0.8867837;0.17895128;;;;;;;;;;;;;;;
1716.0;1597.3;;;;-0.3255234;0.8873254;0.17824937;;;;;;;;;;;;;;;
1716.0;1597.3;;;;-0.32673267;0.8870088;0.17783739;;;;;;;;;;;;;;;
1716.0;1599.7;262143;262143;12568;;;;;;;;;;;;;;;;;;
1716.0;1605.9;;;;;;;;;;;;;3157;;;;;;;;
1716.0;1605.9;;;;;;;;;;;;;2805;;;;;;;;
1716.0;1605.9;;;;;;;;;;;;;2509;;;;;;;;
1716.0;1605.9;;;;;;;;;;;;;2145;;;;;;;;
1716.0;1605.9;;;;;;;;;;;;;1778;;;;;;;;
1716.0;1607.3;;;;-0.3270035;0.88715374;0.1777611;;;;;;;;;;;;;;;
1716.0;1607.3;;;;-0.327652;0.8873178;0.17688753;;;;;;;;;;;;;;;
1716.0;1607.3;;;;-0.32854083;0.8871614;0.17632677;;;;;;;;;;;;;;;
1716.0;1607.3;;;;-0.32922366;0.8873254;0.175869;;;;;;;;;;;;;;;
1716.0;1607.3;;;;-0.32917407;0.8872415;0.17547227;;;;;;;;;;;;;;;
1725.0;1612.5;;;;;;;;;;;;;;;;;-1.1101108;-0.095370345;-0.1678518;;1448.0
1725.0;1612.5;;;;;;;;;;;;;;0.86703086;0.12964264;-0.41969055;;;;;1448.0
1725.0;1612.5;;;;;;;;;;;;;;;;;-1.2817774;-0.049592577;-0.12588885;;1448.0
1725.0;1612.5;;;;;;;;;;;;;;0.8664205;0.12939848;-0.41810358;;;;;1448.0
1725.0;1612.5;;;;;;;;;;;;;;;;;-1.5144811;-0.064851835;0.0076296274;;1457.7
1725.0;1612.5;;;;;;;;;;;;;;0.8652608;0.12945952;-0.4191412;;;;;1457.7
1725.0;1612.5;;;;;;;;;;;;;;;;;-1.7433698;-0.13351847;0.09155553;;1457.7
1725.0;1612.5;;;;;;;;;;;;;;0.86355174;0.12921537;-0.41834772;;;;;1457.7
1725.0;1612.5;;;;;;;;;;;;;;;;;-1.9417402;-0.23270364;0.19455549;;1467.3
1725.0;1612.5;;;;;;;;;;;;;;0.8649556;0.1276284;-0.41828668;;;;;1467.3
1725.0;1612.5;;;;;;;;;;;;;;;;;-2.094333;-0.22125919;0.32044435;;1467.3
1725.0;1612.5;;;;;;;;;;;;;;0.86324656;0.12915434;-0.420423;;;;;1467.3
1725.0;1617.2;;;;-0.32991794;0.88746274;0.1755295;;;;;;;;;;;;;;;
1725.0;1617.2;;;;-0.3302422;0.88772976;0.1744423;;;;;;;;;;;;;;;
1725.0;1617.2;;;;-0.33153537;0.88788235;0.17432787;;;;;;;;;;;;;;;
1725.0;1617.2;;;;-0.3320389;0.8880235;0.17452623;;;;;;;;;;;;;;;
1725.0;1617.2;;;;-0.3328133;0.8878709;0.17393495;;;;;;;;;;;;;;;
1725.0;1619.8;262143;262143;12553;;;;;;;;;;;;;;;;;;
1725.0;1627.3;;;;-0.3338242;0.88814175;0.17343904;;;;;;;;;;;;;;;
1725.0;1627.3;;;;-0.33467105;0.88790524;0.17352296;;;;;;;;;;;;;;;
1725.0;1627.3;;;;-0.336113;0.887951;0.17338564;;;;;;;;;;;;;;;
1725.0;1627.3;;;;-0.3376694;0.88829815;0.17377092;;;;;;;;;;;;;;;
1725.0;1627.3;;;;-0.33948138;0.88850796;0.17343523;;;;;;;;;;;;;;;
1726.0;1637.4;;;;-0.34120944;0.888939;0.17324449;;;;;;;;;;;;;;;
1726.0;1637.4;;;;-0.34296802;0.88884366;0.1732483;;;;;;;;;;;;;;;
1726.0;1637.4;;;;-0.34455875;0.8889276;0.17325212;;;;;;;;;;;;;;;
1726.0;1637.4;;;;-0.34617236;0.88923275;0.17317964;;;;;;;;;;;;;;;
1726.0;1637.4;;;;-0.3475571;0.8895837;0.17315675;;;;;;;;;;;;;;;
1726.0;1640.1;262143;262143;12543;;;;;;;;;;;;;;;;;;
1726.0;1642.7;;;;;;;;;;;;;;;;;-2.2888882;-0.22125919;0.3013703;;1477.0
1726.0;1642.7;;;;;;;;;;;;;;0.86404;0.12781152;-0.4189581;;;;;1477.0
1726.0;1642.7;;;;;;;;;;;;;;;;;-2.5101473;-0.31662953;0.32044435;;1477.0
1726.0;1642.7;;;;;;;;;;;;;;0.86391795;0.1264687;-0.41901913;;;;;1477.0
1726.0;1642.7;;;;;;;;;;;;;;;;;-2.6894438;-0.32425916;0.37766656;;1486.6
1726.0;1642.7;;;;;;;;;;;;;;0.8649556;0.12555315;-0.42023987;;;;;1486.6
1726.0;1642.7;;;;;;;;;;;;;;;;;-2.76574;-0.3089999;0.45396283;;1486.6
1726.0;1642.7;;;;;;;;;;;;;;0.8662374;0.12439345;-0.42170477;;;;;1486.6
1726.0;1642.7;;;;;;;;;;;;;;;;;-2.9984436;-0.33951843;0.44251838;;1496.2
1726.0;1642.7;;;;;;;;;;;;;;0.8653218;0.12158574;-0.42146063;;;;;1496.2
1726.0;1642.7;;;;;;;;;;;;;;;;;-3.032777;-0.32425916;0.49592578;;1496.2
1726.0;1642.7;;;;;;;;;;;;;;0.86648154;0.11963256;-0.42188787;;;;;1496.2
1726.0;1646.0;;;;;;;;;;;;;1468;;;;;;;;
1726.0;1646.0;;;;;;;;;;;;;1183;;;;;;;;
1726.0;1646.0;;;;;;;;;;;;;825;;;;;;;;
1726.0;1646.0;;;;;;;;;;;;;384;;;;;;;;
1726.0;1646.0;;;;;;;;;;;;;-80;;;;;;;;
1728.0;1647.3;;;;-0.34915164;0.89024746;0.17310716;;;;;;;;;;;;;;;
1728.0;1647.3;;;;-0.3501511;0.8908311;0.17288972;;;;;;;;;;;;;;;
1728.0;1647.3;;;;-0.35157016;0.89086545;0.17279054;;;;;;;;;;;;;;;
1728.0;1647.3;;;;-0.3522835;0.89112103;0.17282487;;;;;;;;;;;;;;;
1728.0;1647.3;;;;-0.35338977;0.89115155;0.172596;;;;;;;;;;;;;;;
1728.0;1657.2;;;;-0.35395434;0.89120495;0.17185213;;;;;;;;;;;;;;;
1728.0;1657.2;;;;-0.3551865;0.8913232;0.17196275;;;;;;;;;;;;;;;
1728.0;1657.2;;;;-0.35633853;0.89106;0.17125703;;;;;;;;;;;;;;;
1728.0;1657.2;;;;-0.35732272;0.8911897;0.17169191;;;;;;;;;;;;;;;
1728.0;1657.2;;;;-0.35846713;0.8906404;0.17143632;;;;;;;;;;;;;;;
1728.0;1660.0;262143;262143;12526;;;;;;;;;;;;;;;;;;
1728.0;1667.3;;;;-0.36002353;0.89052975;0.17089464;;;;;;;;;;;;;;;
1728.0;1667.3;;;;-0.36106113;0.8904153;0.1710129;;;;;;;;;;;;;;;
1728.0;1667.3;;;;-0.36155704;0.8904153;0.17089082;;;;;;;;;;;;;;;
1728.0;1667.3;;;;-0.36295322;0.89014447;0.1712227;;;;;;;;;;;;;;;
1728.0;1667.3;;;;-0.36424258;0.89014065;0.17109682;;;;;;;;;;;;;;;
1729.0;1672.6;;;;;;;;;;;;;;;;;-3.0823696;-0.3357036;0.5607776;;1505.8
1729.0;1672.6;;;;;;;;;;;;;;0.8682516;0.1180456;-0.42323068;;;;;1505.8
1729.0;1672.6;;;;;;;;;;;;;;;;;-3.0594807;-0.32425916;0.5340739;;1505.8
1729.0;1672.6;;;;;;;;;;;;;;0.8694723;0.11603137;-0.4213996;;;;;1505.8
1729.0;1672.6;;;;;;;;;;;;;;;;;-3.0480363;-0.3128147;0.5417035;;1515.5
1729.0;1672.6;;;;;;;;;;;;;;0.86788535;0.11529893;-0.42231512;;;;;1515.5
1729.0;1672.6;;;;;;;;;;;;;;;;;-2.9869993;-0.27466658;0.5417035;;1515.5
1729.0;1672.6;;;;;;;;;;;;;;0.86935025;0.11316264;-0.42133853;;;;;1515.5
1729.0;1672.6;;;;;;;;;;;;;;;;;-2.9450362;-0.15259254;0.5264443;;1525.1
1729.0;1672.6;;;;;;;;;;;;;;0.8694723;0.11243019;-0.41938534;;;;;1525.1
1729.0;1672.6;;;;;;;;;;;;;;;;;-2.9145176;-0.1411481;0.5798517;;1525.1
1729.0;1672.6;;;;;;;;;;;;;;0.8703879;0.1114536;-0.4210944;;;;;1525.1
1729.0;1677.2;;;;-0.36486056;0.8897363;0.17126466;;;;;;;;;;;;;;;
1729.0;1677.2;;;;-0.36612323;0.88977444;0.17069246;;;;;;;;;;;;;;;
1729.0;1677.2;;;;-0.3670502;0.8901292;0.17002107;;;;;;;;;;;;;;;
1729.0;1677.2;;;;-0.3676186;0.8903886;0.17018129;;;;;;;;;;;;;;;
1729.0;1677.2;;;;-0.36887363;0.8905679;0.17035677;;;;;;;;;;;;;;;
1729.0;1680.0;262143;262143;12526;;;;;;;;;;;;;;;;;;
1729.0;1686.1;;;;;;;;;;;;;-498;;;;;;;;
1729.0;1686.1;;;;;;;;;;;;;-924;;;;;;;;
1729.0;1686.1;;;;;;;;;;;;;-1433;;;;;;;;
1729.0;1686.1;;;;;;;;;;;;;-1999;;;;;;;;
1729.0;1686.1;;;;;;;;;;;;;-2499;;;;;;;;
1745.0;1687.3;;;;-0.37020496;0.8908006;0.16985704;;;;;;;;;;;;;;;
1745.0;1687.3;;;;-0.3713341;0.8913461;0.16921236;;;;;;;;;;;;;;;
1745.0;1687.3;;;;-0.37192538;0.891842;0.16907121;;;;;;;;;;;;;;;
1745.0;1687.3;;;;-0.37300494;0.89208233;0.16898729;;;;;;;;;;;;;;;
1745.0;1687.3;;;;-0.37417606;0.89244473;0.16851427;;;;;;;;;;;;;;;
1745.0;1697.1;;;;-0.37483218;0.8930589;0.16829301;;;;;;;;;;;;;;;
1745.0;1697.1;;;;-0.37575537;0.8934556;0.16855241;;;;;;;;;;;;;;;
1745.0;1697.1;;;;-0.37634665;0.8936311;0.16757967;;;;;;;;;;;;;;;
1745.0;1697.1;;;;-0.37707525;0.8939096;0.16742326;;;;;;;;;;;;;;;
1745.0;1697.1;;;;-0.37762076;0.8949586;0.16678621;;;;;;;;;;;;;;;
1745.0;1700.0;262143;262143;12519;;;;;;;;;;;;;;;;;;
1745.0;1702.5;;;;;;;;;;;;;;;;;-2.8000731;-0.17166662;0.59511095;;1534.7
1745.0;1702.5;;;;;;;;;;;;;;0.8717307;0.1114536;-0.42323068;;;;;1534.7
1745.0;1702.5;;;;;;;;;;;;;;;;;-2.66274;-0.14496292;0.5188147;;1534.7
1745.0;1702.5;;;;;;;;;;;;;;0.87148654;0.110293895;-0.4212775;;;;;1534.7
1745.0;1702.5;;;;;;;;;;;;;;;;;-2.5559251;-0.12970367;0.48066652;;1544.4
1745.0;1702.5;;;;;;;;;;;;;;0.8700827;0.11066011;-0.4232917;;;;;1544.4
1745.0;1702.5;;;;;;;;;;;;;;;;;-2.5025177;-0.095370345;0.43870357;;1544.4
1745.0;1702.5;;;;;;;;;;;;;;0.87081516;0.10937834;-0.42231512;;;;;1544.4
1745.0;1702.5;;;;;;;;;;;;;;;;;-2.2927032;-0.034333322;0.33951843;;1553.9
1745.0;1702.5;;;;;;;;;;;;;;0.8694723;0.10913419;-0.42432937;;;;;1553.9
1745.0;1702.5;;;;;;;;;;;;;;;;;-2.1744437;-0.011444441;0.22888882;;1553.9
1745.0;1702.5;;;;;;;;;;;;;;0.8684347;0.109073155;-0.42200994;;;;;1553.9
1777.0;1707.0;;;;-0.3783303;0.8953477;0.16635515;;;;;;;;;;;;;;;
1777.0;1707.0;;;;-0.37887198;0.8954774;0.16595079;;;;;;;;;;;;;;;
1777.0;1707.0;;;;-0.37908942;0.8959085;0.16576768;;;;;;;;;;;;;;;
1777.0;1707.0;;;;-0.3797379;0.8963891;0.16576006;;;;;;;;;;;;;;;
1777.0;1707.0;;;;-0.3803864;0.89709103;0.16562273;;;;;;;;;;;;;;;
1777.0;1717.0;;;;-0.38124853;0.897545;0.16533281;;;;;;;;;;;;;;;
1777.0;1717.0;;;;-0.38164526;0.89751065;0.16542818;;;;;;;;;;;;;;;
1777.0;1717.0;;;;-0.38182837;0.89826596;0.16510011;;;;;;;;;;;;;;;
1777.0;1717.0;;;;-0.38220984;0.89836514;0.16515733;;;;;;;;;;;;;;;
1777.0;1717.0;;;;-0.38283926;0.8983804;0.1649399;;;;;;;;;;;;;;;
1777.0;1719.9;262143;262143;12522;;;;;;;;;;;;;;;;;;
1777.0;1726.0;;;;;;;;;;;;;-2867;;;;;;;;
1777.0;1726.0;;;;;;;;;;;;;-3066;;;;;;;;
1777.0;1726.0;;;;;;;;;;;;;-3103;;;;;;;;
1777.0;1726.0;;;;;;;;;;;;;-3080;;;;;;;;
1777.0;1726.0;;;;;;;;;;;;;-2994;;;;;;;;
1777.0;1727.1;;;;-0.38315207;0.8982583;0.16515733;;;;;;;;;;;;;;;
1777.0;1727.1;;;;-0.38332754;0.89833844;0.16488649;;;;;;;;;;;;;;;
1777.0;1727.1;;;;-0.3832932;0.8981401;0.16425325;;;;;;;;;;;;;;;
1777.0;1727.1;;;;-0.38421637;0.89787304;0.1639824;;;;;;;;;;;;;;;
1777.0;1727.1;;;;-0.38447577;0.8980218;0.1641884;;;;;;;;;;;;;;;
1809.0;1732.7;;;;;;;;;;;;;;;;;-2.1362956;-0.019074067;0.24414808;;1563.5
1809.0;1732.7;;;;;;;;;;;;;;0.8702048;0.10870693;-0.42304757;;;;;1563.5
1809.0;1732.7;;;;;;;;;;;;;;;;;-2.067629;0.10681479;0.17929624;;1563.5
1809.0;1732.7;;;;;;;;;;;;;;0.86953336;0.10846278;-0.42298654;;;;;1563.5
1809.0;1732.7;;;;;;;;;;;;;;;;;-1.945555;0.12970367;0.12588885;;1573.2
1809.0;1732.7;;;;;;;;;;;;;;0.86898404;0.10925627;-0.4222541;;;;;1573.2
1809.0;1732.7;;;;;;;;;;;;;;;;;-1.9341105;0.16403699;0.110629596;;1573.2
1809.0;1732.7;;;;;;;;;;;;;;0.86703086;0.108401746;-0.41956848;;;;;1573.2
1809.0;1732.7;;;;;;;;;;;;;;;;;-1.9760735;0.16403699;-0.015259255;;1582.9
1809.0;1732.7;;;;;;;;;;;;;;0.86770225;0.11017182;-0.4203009;;;;;1582.9
1809.0;1732.7;;;;;;;;;;;;;;;;;-2.0142217;0.16403699;-0.07248146;;1582.9
1809.0;1732.7;;;;;;;;;;;;;;0.86916715;0.11102634;-0.42213202;;;;;1582.9
1809.0;1735.6;;;;;;;;;;1.0948515;18.73455;-1.5030366;;;;;;;;;
1809.0;1735.6;;;;;;;0.375927;-0.85171056;0.19647816;;;;;;;;;;;;
1809.0;1735.6;;;;;;;;;;5.4704432;31.548508;8.571886;;;;;;;;;
1809.0;1735.6;;;;;;;0.41792047;-0.9527879;0.22034363;;;;;;;;;;;;
1809.0;1737.1;;;;-0.3844872;0.89743054;0.16374971;;;;;;;;;;;;;;;
1809.0;1737.1;;;;-0.38470465;0.8970834;0.16356279;;;;;;;;;;;;;;;
1809.0;1737.1;;;;-0.38483816;0.896351;0.1637459;;;;;;;;;;;;;;;
1809.0;1737.1;;;;-0.38502127;0.89613354;0.16364671;;;;;;;;;;;;;;;
1809.0;1737.1;;;;-0.38548666;0.89606106;0.16341783;;;;;;;;;;;;;;;
1809.0;1740.1;262143;262143;12506;;;;;;;;;;;;;;;;;;
1818.0;1745.3;;;;;;;;;;1.2016664;4.772332;4.276406;;;;;;;;;
1818.0;1745.3;;;;;;;0.4132206;-0.9503464;0.21991637;;;;;;;;;;;;
1818.0;1745.3;;;;;;;;;;5.3827024;18.402662;3.2807398;;;;;;;;;
1818.0;1745.3;;;;;;;0.40748313;-0.9470504;0.21924497;;;;;;;;;;;;
1818.0;1747.1;;;;-0.3857308;0.89619076;0.16294862;;;;;;;;;;;;;;;
1818.0;1747.1;;;;-0.38557822;0.89592755;0.1629944;;;;;;;;;;;;;;;
1818.0;1747.1;;;;-0.385727;0.8956109;0.16315843;;;;;;;;;;;;;;;
1818.0;1747.1;;;;-0.38553625;0.89548886;0.16259386;;;;;;;;;;;;;;;
1818.0;1747.1;;;;-0.38524634;0.8958169;0.16233446;;;;;;;;;;;;;;;
1818.0;1754.8;;;;;;;;;;5.352184;19.85229;-0.7248146;;;;;;;;;
1818.0;1754.8;;;;;;;0.4036378;-0.9422895;0.22046572;;;;;;;;;;;;
1818.0;1754.8;;;;;;;;;;0.23270364;-16.07181;-25.746178;;;;;;;;;
1818.0;1754.8;;;;;;;0.40009767;-0.9402142;0.21942808;;;;;;;;;;;;
1818.0;1757.2;;;;-0.38574606;0.89561856;0.16211702;;;;;;;;;;;;;;;
1818.0;1757.2;;;;-0.38584524;0.89537823;0.16170885;;;;;;;;;;;;;;;
1818.0;1757.2;;;;-0.38576895;0.8952371;0.1612549;;;;;;;;;;;;;;;
1818.0;1757.2;;;;-0.38593298;0.8954164;0.16078188;;;;;;;;;;;;;;;
1818.0;1757.2;;;;-0.38657004;0.895054;0.16059114;;;;;;;;;;;;;;;
1818.0;1760.3;262143;262143;12514;;;;;;;;;;;;;;;;;;
1819.0;1763.1;;;;;;;;;;;;;;;;;-2.1515548;0.32044435;-0.03051851;;1592.5
1819.0;1763.1;;;;;;;;;;;;;;0.86971647;0.11114841;-0.4219489;;;;;1592.5
1819.0;1763.1;;;;;;;;;;;;;;;;;-2.212592;0.51118505;-0.03051851;;1592.5
1819.0;1763.1;;;;;;;;;;;;;;0.87026584;0.11255226;-0.42353588;;;;;1592.5
1819.0;1763.1;;;;;;;;;;;;;;;;;-2.2354808;0.61037016;-0.034333322;;1602.1
1819.0;1763.1;;;;;;;;;;;;;;0.87051;0.11139256;-0.42378002;;;;;1602.1
1819.0;1763.1;;;;;;;;;;;;;;;;;-2.2927032;0.74007386;-0.011444441;;1602.1
1819.0;1763.1;;;;;;;;;;;;;;0.8717307;0.11066011;-0.42445144;;;;;1602.1
1819.0;1763.1;;;;;;;;;;;;;;;;;-2.3461106;0.74007386;-0.049592577;;1611.8
1819.0;1763.1;;;;;;;;;;;;;;0.87044895;0.10968352;-0.42402416;;;;;1611.8
1819.0;1763.1;;;;;;;;;;;;;;;;;-2.315592;0.75914794;-0.08011109;;1611.8
1819.0;1763.1;;;;;;;;;;;;;;0.8694113;0.11011078;-0.42463455;;;;;1611.8
1819.0;1764.0;;;;;;;;;;;;;;;;;-2.2659993;0.79348123;-0.08774071;;1621.4
1819.0;1764.0;;;;;;;;;;;;;;0.86935025;0.110965304;-0.42481765;;;;;1621.4
1819.0;1764.0;;;;;;;;;;;;;;;;;-2.2812586;0.9155553;-0.10681479;;1621.4
1819.0;1764.0;;;;;;;;;;;;;;0.8663595;0.10968352;-0.42548907;;;;;1621.4
1819.0;1764.0;;;;;;;;;;;;;;;;;-2.2850735;0.90792567;-0.18311106;;1631.0
1819.0;1764.0;;;;;;;;;;;;;;0.8665426;0.11169775;-0.42481765;;;;;1631.0
1819.0;1764.0;;;;;;;;;;;;;;;;;-2.1172216;0.7705924;-0.23270364;;1631.0
1819.0;1764.0;;;;;;;;;;;;;;0.8670919;0.111087374;-0.42396313;;;;;1631.0
1819.0;1764.0;;;;;;;;;;;;;;;;;-1.9722588;0.76296276;-0.33951843;;1640.7
1819.0;1764.0;;;;;;;;;;;;;;0.86849576;0.113956116;-0.425367;;;;;1640.7
1819.0;1764.0;;;;;;;;;;;;;;;;;-1.8463699;0.7477035;-0.37766656;;1640.7
1819.0;1764.0;;;;;;;;;;;;;;0.8667867;0.1159093;-0.42774743;;;;;1640.7
1833.0;1764.2;;;;;;;;;;0.20218512;-17.18955;-30.961027;;;;;;;;;
1833.0;1764.2;;;;;;;0.39674062;-0.93472093;0.22211371;;;;;;;;;;;;
1833.0;1764.2;;;;;;;;;;0.3852962;-18.349255;-36.160618;;;;;;;;;
1833.0;1764.2;;;;;;;0.39417708;-0.93331707;0.22162542;;;;;;;;;;;;
1833.0;1766.1;;;;;;;;;;;;;-2662;;;;;;;;
1833.0;1766.1;;;;;;;;;;;;;-1958;;;;;;;;
1833.0;1766.1;;;;;;;;;;;;;-1002;;;;;;;;
1833.0;1766.1;;;;;;;;;;;;;-37;;;;;;;;
1833.0;1766.1;;;;;;;;;;;;;808;;;;;;;;
1833.0;1767.1;;;;-0.38711935;0.89494336;0.16033937;;;;;;;;;;;;;;;
1833.0;1767.1;;;;-0.38732153;0.8949014;0.16004564;;;;;;;;;;;;;;;
1833.0;1767.1;;;;-0.38790518;0.89488614;0.16009523;;;;;;;;;;;;;;;
1833.0;1767.1;;;;-0.38813025;0.8949739;0.15914537;;;;;;;;;;;;;;;
1833.0;1767.1;;;;-0.38842398;0.89507306;0.15905;;;;;;;;;;;;;;;
1833.0;1773.8;;;;;;;;;;0.23651844;-12.142552;-34.74151;;;;;;;;;
1833.0;1773.8;;;;;;;0.39197972;-0.93203527;0.22193061;;;;;;;;;;;;
1833.0;1773.8;;;;;;;;;;0.25559253;-5.1080356;-29.244362;;;;;;;;;
1833.0;1773.8;;;;;;;0.3881344;-0.93020415;0.22260201;;;;;;;;;;;;
1833.0;1777.1;;;;-0.38853842;0.89504254;0.15919115;;;;;;;;;;;;;;;
1833.0;1777.1;;;;-0.38890845;0.8944284;0.15901567;;;;;;;;;;;;;;;
1833.0;1777.1;;;;-0.3891831;0.89424527;0.15901949;;;;;;;;;;;;;;;
1833.0;1777.1;;;;-0.38922507;0.89473355;0.15888216;;;;;;;;;;;;;;;
1833.0;1777.1;;;;-0.38989645;0.8945924;0.1588402;;;;;;;;;;;;;;;
1833.0;1780.1;262143;262143;12502;;;;;;;;;;;;;;;;;;
1837.0;1783.3;;;;;;;;;;0.7324442;-6.241035;-29.450363;;;;;;;;;
1837.0;1783.3;;;;;;;0.38496047;-0.92947173;0.22382274;;;;;;;;;;;;
1837.0;1783.3;;;;;;;;;;1.1139256;-7.328257;-29.858547;;;;;;;;;
1837.0;1783.3;;;;;;;0.38837856;-0.92703027;0.22553179;;;;;;;;;;;;
1837.0;1787.2;;;;-0.3901978;0.8944589;0.15916063;;;;;;;;;;;;;;;
1837.0;1787.2;;;;-0.39054114;0.894539;0.15915681;;;;;;;;;;;;;;;
1837.0;1787.2;;;;-0.39109045;0.89427197;0.15924837;;;;;;;;;;;;;;;
1837.0;1787.2;;;;-0.39156348;0.8939439;0.15906908;;;;;;;;;;;;;;;
1837.0;1787.2;;;;-0.3919068;0.8937875;0.15891649;;;;;;;;;;;;;;;
1837.0;1792.8;;;;;;;;;;;;;;;;;-1.865444;0.6904813;-0.43107393;;1650.4
1837.0;1792.8;;;;;;;;;;;;;;0.86703086;0.11774041;-0.4275033;;;;;1650.4
1837.0;1792.8;;;;;;;;;;;;;;;;;-1.8845179;0.6981109;-0.4196295;;1650.4
1837.0;1792.8;;;;;;;;;;;;;;0.8661153;0.11767937;-0.42603838;;;;;1650.4
1837.0;1792.8;;;;;;;;;;;;;;;;;-1.7777032;0.65233314;-0.46159247;;1659.9
1837.0;1792.8;;;;;;;;;;;;;;0.8653218;0.11816767;-0.4267098;;;;;1659.9
1837.0;1792.8;;;;;;;;;;;;;;;;;-1.7242957;0.6370739;-0.5226295;;1659.9
1837.0;1792.8;;;;;;;;;;;;;;0.8652608;0.11914426;-0.42658773;;;;;1659.9
1837.0;1792.8;;;;;;;;;;;;;;;;;-1.7891476;0.51499987;-0.5264443;;1669.5
1837.0;1792.8;;;;;;;;;;;;;;0.86355174;0.119083226;-0.4250618;;;;;1669.5
1837.0;1792.8;;;;;;;;;;;;;;;;;-1.6518143;0.4768517;-0.5645924;;1669.5
1837.0;1792.8;;;;;;;;;;;;;;0.86471146;0.12012085;-0.4252449;;;;;1669.5
1837.0;1792.6;;;;;;;;;;1.5526291;-8.560442;-30.78936;;;;;;;;;
1837.0;1792.6;;;;;;;0.382519;-0.92684716;0.22278512;;;;;;;;;;;;
1837.0;1792.6;;;;;;;;;;2.1095922;-9.498886;-31.109806;;;;;;;;;
1837.0;1792.6;;;;;;;0.38038272;-0.9243446;0.22254097;;;;;;;;;;;;
1864.0;1797.0;;;;-0.3923264;0.89385617;0.15944292;;;;;;;;;;;;;;;
1864.0;1797.0;;;;-0.39283758;0.8938409;0.15934373;;;;;;;;;;;;;;;
1864.0;1797.0;;;;-0.39331824;0.8940126;0.15893556;;;;;;;;;;;;;;;
1864.0;1797.0;;;;-0.39367682;0.89393246;0.15879442;;;;;;;;;;;;;;;
1864.0;1797.0;;;;-0.39370352;0.8937684;0.15894319;;;;;;;;;;;;;;;
1864.0;1800.2;262143;262143;12503;;;;;;;;;;;;;;;;;;
1864.0;1802.3;;;;;;;;;;2.5482955;-10.727257;-30.972471;;;;;;;;;
1864.0;1802.3;;;;;;;0.37519455;-0.9223304;0.22022156;;;;;;;;;;;;
1864.0;1802.3;;;;;;;;;;2.9564807;-11.848811;-31.083101;;;;;;;;;
1864.0;1802.3;;;;;;;0.37244788;-0.921659;0.21692556;;;;;;;;;;;;
1864.0;1806.3;;;;;;;;;;;;;1523;;;;;;;;
1864.0;1806.3;;;;;;;;;;;;;2081;;;;;;;;
1864.0;1806.3;;;;;;;;;;;;;2438;;;;;;;;
1864.0;1806.3;;;;;;;;;;;;;2579;;;;;;;;
1864.0;1806.3;;;;;;;;;;;;;2574;;;;;;;;
1864.0;1807.1;;;;-0.39399725;0.89390576;0.15861513;;;;;;;;;;;;;;;
1864.0;1807.1;;;;-0.3944512;0.8942834;0.15861894;;;;;;;;;;;;;;;
1864.0;1807.1;;;;-0.39466482;0.894333;0.15857317;;;;;;;;;;;;;;;
1864.0;1807.1;;;;-0.39498907;0.89445126;0.15860368;;;;;;;;;;;;;;;
1864.0;1807.1;;;;-0.395382;0.8944589;0.1582985;;;;;;;;;;;;;;;
1864.0;1811.8;;;;;;;;;;3.3417768;-12.88644;-31.426434;;;;;;;;;
1864.0;1811.8;;;;;;;0.37275308;-0.9185461;0.21423994;;;;;;;;;;;;
1864.0;1811.8;;;;;;;;;;3.6774805;-13.81344;-31.792656;;;;;;;;;
1864.0;1811.8;;;;;;;0.3711661;-0.9168981;0.21228676;;;;;;;;;;;;
1867.0;1817.1;;;;-0.39588934;0.8946458;0.15836336;;;;;;;;;;;;;;;
1867.0;1817.1;;;;-0.39623648;0.89511883;0.15773393;;;;;;;;;;;;;;;
1867.0;1817.1;;;;-0.39680868;0.89479077;0.15769579;;;;;;;;;;;;;;;
1867.0;1817.1;;;;-0.39711004;0.894848;0.15736009;;;;;;;;;;;;;;;
1867.0;1817.1;;;;-0.3974839;0.89520276;0.15767671;;;;;;;;;;;;;;;
1867.0;1820.3;262143;262143;12493;;;;;;;;;;;;;;;;;;
1867.0;1821.4;;;;;;;;;;4.0856657;-14.496292;-31.655323;;;;;;;;;
1867.0;1821.4;;;;;;;0.37086093;-0.91744745;0.21436201;;;;;;;;;;;;
1867.0;1821.4;;;;;;;;;;4.4747763;-15.377514;-31.5714;;;;;;;;;
1867.0;1821.4;;;;;;;0.369335;-0.92104864;0.21436201;;;;;;;;;;;;
1867.0;1822.8;;;;;;;;;;;;;;;;;-1.659444;0.45014802;-0.59892577;;1679.1
1867.0;1822.8;;;;;;;;;;;;;;0.86489457;0.12012085;-0.42530596;;;;;1679.1
1867.0;1822.8;;;;;;;;;;;;;;;;;-1.5678884;0.37385175;-0.6828517;;1679.1
1867.0;1822.8;;;;;;;;;;;;;;0.86593217;0.120975375;-0.42396313;;;;;1679.1
1867.0;1822.8;;;;;;;;;;;;;;;;;-1.7128513;0.33951843;-0.6637776;;1688.6
1867.0;1822.8;;;;;;;;;;;;;;0.86489457;0.12073123;-0.4229255;;;;;1688.6
1867.0;1822.8;;;;;;;;;;;;;;;;;-1.6861477;0.3089999;-0.7057405;;1688.6
1867.0;1822.8;;;;;;;;;;;;;;0.8661763;0.11981567;-0.42231512;;;;;1688.6
1867.0;1822.8;;;;;;;;;;;;;;;;;-1.7624439;0.25940734;-0.7209998;;1698.3
1867.0;1822.8;;;;;;;;;;;;;;0.86648154;0.117984556;-0.42146063;;;;;1698.3
1867.0;1822.8;;;;;;;;;;;;;;;;;-1.7509995;0.2517777;-0.7438887;;1698.3
1867.0;1822.8;;;;;;;;;;;;;;0.8685568;0.12012085;-0.42200994;;;;;1698.3
1896.0;1827.0;;;;-0.39767843;0.8949281;0.15726091;;;;;;;;;;;;;;;
1896.0;1827.0;;;;-0.3980561;0.89515316;0.1570511;;;;;;;;;;;;;;;
1896.0;1827.0;;;;-0.3984185;0.8952142;0.15674211;;;;;;;;;;;;;;;
1896.0;1827.0;;;;-0.39875036;0.89546216;0.15665819;;;;;;;;;;;;;;;
1896.0;1827.0;;;;-0.39895254;0.89548504;0.15678789;;;;;;;;;;;;;;;
1896.0;1830.9;;;;;;;;;;4.757073;-16.113773;-31.815548;;;;;;;;;
1896.0;1830.9;;;;;;;0.3673818;-0.9218421;0.21423994;;;;;;;;;;;;
1896.0;1830.9;;;;;;;;;;5.130924;-16.579182;-31.998657;;;;;;;;;
1896.0;1830.9;;;;;;;0.36481827;-0.9211707;0.21393475;;;;;;;;;;;;
1896.0;1837.0;;;;-0.3990937;0.8959466;0.15620424;;;;;;;;;;;;;;;
1896.0;1837.0;;;;-0.39897925;0.89574444;0.15600969;;;;;;;;;;;;;;;
1896.0;1837.0;;;;-0.3995896;0.89633954;0.15612794;;;;;;;;;;;;;;;
1896.0;1837.0;;;;-0.3997994;0.896103;0.15638734;;;;;;;;;;;;;;;
1896.0;1837.0;;;;-0.39990622;0.8960725;0.15587617;;;;;;;;;;;;;;;
1896.0;1840.3;;;;;;;;;;5.3979616;-17.296364;-32.265694;;;;;;;;;
1896.0;1840.3;;;;;;;0.3635975;-0.9213538;0.21454512;;;;;;;;;;;;
1896.0;1840.3;;;;;;;;;;5.62685;-17.536697;-32.284767;;;;;;;;;
1896.0;1840.3;;;;;;;0.36616108;-0.92263556;0.2169866;;;;;;;;;;;;
1896.0;1840.3;262143;262143;12483;;;;;;;;;;;;;;;;;;
1896.0;1846.3;;;;;;;;;;;;;2494;;;;;;;;
1896.0;1846.3;;;;;;;;;;;;;2349;;;;;;;;
1896.0;1846.3;;;;;;;;;;;;;2150;;;;;;;;
1896.0;1846.3;;;;;;;;;;;;;1962;;;;;;;;
1896.0;1846.3;;;;;;;;;;;;;1787;;;;;;;;
1901.0;1847.1;;;;-0.40007025;0.8964921;0.15529253;;;;;;;;;;;;;;;
1901.0;1847.1;;;;-0.40011603;0.8965341;0.1552353;;;;;;;;;;;;;;;
1901.0;1847.1;;;;-0.39983755;0.8967973;0.15521623;;;;;;;;;;;;;;;
1901.0;1847.1;;;;-0.39996344;0.8963815;0.15518953;;;;;;;;;;;;;;;
1901.0;1847.1;;;;-0.4000817;0.89626324;0.1549988;;;;;;;;;;;;;;;
1901.0;1850.0;;;;;;;;;;5.954924;-17.838068;-31.590473;;;;;;;;;
1901.0;1850.0;;;;;;;0.3648793;-0.9247108;0.21820734;;;;;;;;;;;;
1901.0;1850.0;;;;;;;;;;6.2181463;-18.253883;-31.380657;;;;;;;;;
1901.0;1850.0;;;;;;;0.36182746;-0.92519915;0.21887875;;;;;;;;;;;;
1901.0;1853.2;;;;;;;;;;;;;;;;;-1.8196661;0.21362957;-0.76296276;;1708.0
1901.0;1853.2;;;;;;;;;;;;;;0.86806846;0.11859493;-0.42316964;;;;;1708.0
1901.0;1853.2;;;;;;;;;;;;;;;;;-1.8120365;0.20981476;-0.82018495;;1708.0
1901.0;1853.2;;;;;;;;;;;;;;0.8669088;0.11890011;-0.42475662;;;;;1708.0
1901.0;1853.2;;;;;;;;;;;;;;;;;-1.781518;0.28992584;-0.8697775;;1717.6
1901.0;1853.2;;;;;;;;;;;;;;0.8667867;0.118717;-0.42512283;;;;;1717.6
1901.0;1853.2;;;;;;;;;;;;;;;;;-1.7700735;0.29374066;-0.90029603;;1717.6
1901.0;1853.2;;;;;;;;;;;;;;0.86684775;0.11883908;-0.4239021;;;;;1717.6
1901.0;1853.2;;;;;;;;;;;;;;;;;-1.8501847;0.3013703;-0.9346294;;1727.2
1901.0;1853.2;;;;;;;;;;;;;;0.8692892;0.11993774;-0.42219305;;;;;1727.2
1901.0;1853.2;;;;;;;;;;;;;;;;;-1.8387402;0.3357036;-1.0414442;;1727.2
1901.0;1853.2;;;;;;;;;;;;;;0.86861783;0.120365;-0.42316964;;;;;1727.2
1926.0;1857.0;;;;-0.39996725;0.8963586;0.1549759;;;;;;;;;;;;;;;
1926.0;1857.0;;;;-0.40004355;0.89636624;0.15483858;;;;;;;;;;;;;;;
1926.0;1857.0;;;;-0.40036398;0.8960649;0.15460207;;;;;;;;;;;;;;;
1926.0;1857.0;;;;-0.39993292;0.8960763;0.15390398;;;;;;;;;;;;;;;
1926.0;1857.0;;;;-0.4001885;0.8959352;0.15399553;;;;;;;;;;;;;;;
1926.0;1859.4;;;;;;;;;;6.504257;-18.429365;-31.514175;;;;;;;;;
1926.0;1859.4;;;;;;;0.35987428;-0.92641985;0.2174749;;;;;;;;;;;;
1926.0;1859.4;;;;;;;;;;6.645406;-18.86044;-31.785027;;;;;;;;;
1926.0;1859.4;;;;;;;0.35651723;-0.9284341;0.21668142;;;;;;;;;;;;
1926.0;1860.3;262143;262143;12488;;;;;;;;;;;;;;;;;;
1926.0;1867.0;;;;-0.40033728;0.8960191;0.15422823;;;;;;;;;;;;;;;
1926.0;1867.0;;;;-0.39979178;0.89590085;0.15365602;;;;;;;;;;;;;;;
1926.0;1867.0;;;;-0.39957434;0.89580166;0.15359117;;;;;;;;;;;;;;;
1926.0;1867.0;;;;-0.39978415;0.8959695;0.15322877;;;;;;;;;;;;;;;
1926.0;1867.0;;;;-0.3999787;0.89582455;0.15280153;;;;;;;;;;;;;;;
1926.0;1868.8;;;;;;;;;;6.859035;-19.306772;-32.242805;;;;;;;;;
1926.0;1868.8;;;;;;;0.35474715;-0.9301431;0.21448408;;;;;;;;;;;;
1926.0;1868.8;;;;;;;;;;6.9353313;-19.325848;-32.319103;;;;;;;;;
1926.0;1868.8;;;;;;;0.35560167;-0.928312;0.21460617;;;;;;;;;;;;
1931.0;1877.0;;;;-0.39947134;0.89584744;0.15299608;;;;;;;;;;;;;;;
1931.0;1877.0;;;;-0.39971548;0.8957292;0.15270616;;;;;;;;;;;;;;;
1931.0;1877.0;;;;-0.39968115;0.8958932;0.15206148;;;;;;;;;;;;;;;
1931.0;1877.0;;;;-0.39944082;0.89623654;0.15234758;;;;;;;;;;;;;;;
1931.0;1877.0;;;;-0.39947897;0.8961679;0.15264131;;;;;;;;;;;;;;;
1931.0;1878.4;;;;;;;;;;7.148961;-19.226662;-31.483658;;;;;;;;;
1931.0;1878.4;;;;;;;0.3559679;-0.9288614;0.21234779;;;;;;;;;;;;
1931.0;1878.4;;;;;;;;;;7.2023683;-19.245735;-31.182287;;;;;;;;;
1931.0;1878.4;;;;;;;0.35364848;-0.92880034;0.2125309;;;;;;;;;;;;
1931.0;1880.3;262143;262143;12481;;;;;;;;;;;;;;;;;;
1931.0;1882.9;;;;;;;;;;;;;;;;;-1.8539995;0.37003693;-1.0299997;;1736.9
1931.0;1882.9;;;;;;;;;;;;;;0.8681295;0.12091433;-0.4217658;;;;;1736.9
1931.0;1882.9;;;;;;;;;;;;;;;;;-1.9112216;0.4158147;-1.0986663;;1736.9
1931.0;1882.9;;;;;;;;;;;;;;0.86965543;0.11963256;-0.4210944;;;;;1736.9
1931.0;1882.9;;;;;;;;;;;;;;;;;-2.010407;0.45396283;-1.1444441;;1746.5
1931.0;1882.9;;;;;;;;;;;;;;0.87130344;0.12018189;-0.42005676;;;;;1746.5
1931.0;1882.9;;;;;;;;;;;;;;;;;-1.9837031;0.49592578;-1.1825923;;1746.5
1931.0;1882.9;;;;;;;;;;;;;;0.87099826;0.12158574;-0.4166387;;;;;1746.5
1931.0;1882.9;;;;;;;;;;;;;;;;;-1.9875181;0.6065554;-1.1749626;;1756.1
1931.0;1882.9;;;;;;;;;;;;;;0.87148654;0.12152471;-0.41474655;;;;;1756.1
1931.0;1882.9;;;;;;;;;;;;;;;;;-1.9569995;0.6675924;-1.289407;;1756.1
1931.0;1882.9;;;;;;;;;;;;;;0.87112033;0.12305063;-0.41572315;;;;;1756.1
1958.0;1886.3;;;;;;;;;;;;;1589;;;;;;;;
1958.0;1886.3;;;;;;;;;;;;;1363;;;;;;;;
1958.0;1886.3;;;;;;;;;;;;;1179;;;;;;;;
1958.0;1886.3;;;;;;;;;;;;;1122;;;;;;;;
1958.0;1886.3;;;;;;;;;;;;;1172;;;;;;;;
1958.0;1887.0;;;;-0.39972693;0.89665616;0.15226366;;;;;;;;;;;;;;;
1958.0;1887.0;;;;-0.3998223;0.89717495;0.15247728;;;;;;;;;;;;;;;
1958.0;1887.0;;;;-0.3996964;0.8973695;0.15274812;;;;;;;;;;;;;;;
1958.0;1887.0;;;;-0.39957815;0.8979112;0.15270998;;;;;;;;;;;;;;;
1958.0;1887.0;;;;-0.39932257;0.89758694;0.15247346;;;;;;;;;;;;;;;
1958.0;1887.9;;;;;;;;;;7.229072;-19.180883;-31.33488;;;;;;;;;
1958.0;1887.9;;;;;;;0.34943694;-0.92855614;0.20941801;;;;;;;;;;;;
1958.0;1887.9;;;;;;;;;;7.187109;-19.28007;-31.426434;;;;;;;;;
1958.0;1887.9;;;;;;;0.34644613;-0.931608;0.2074038;;;;;;;;;;;;
1958.0;1896.8;;;;-0.39797217;0.89756405;0.15257265;;;;;;;;;;;;;;;
1958.0;1896.8;;;;-0.39992148;0.8997041;0.15343477;;;;;;;;;;;;;;;
1958.0;1896.8;;;;-0.40219122;0.9009744;0.15381624;;;;;;;;;;;;;;;
1958.0;1896.8;;;;-0.40105826;0.9012567;0.15322115;;;;;;;;;;;;;;;
1958.0;1896.8;;;;-0.40009314;0.9008447;0.15285112;;;;;;;;;;;;;;;
1958.0;1897.3;;;;;;;;;;7.2367015;-19.623402;-31.853695;;;;;;;;;
1958.0;1897.3;;;;;;;0.34400463;-0.9324625;0.20850246;;;;;;;;;;;;
1958.0;1897.3;;;;;;;;;;7.0764794;-19.459366;-32.04062;;;;;;;;;
1958.0;1897.3;;;;;;;0.3488876;-0.9339274;0.20789209;;;;;;;;;;;;
1958.0;1900.3;262143;262143;12472;;;;;;;;;;;;;;;;;;
1964.0;1906.9;;;;;;;;;;7.0154424;-19.203773;-31.392101;;;;;;;;;
1964.0;1906.9;;;;;;;0.35175633;-0.93728447;0.20892972;;;;;;;;;;;;
1964.0;1906.9;;;;;;;;;;6.904813;-19.310587;-31.34251;;;;;;;;;
1964.0;1906.9;;;;;;;0.34882656;-0.9406415;0.20648824;;;;;;;;;;;;
1964.0;1907.0;;;;-0.40092474;0.9020349;0.15272142;;;;;;;;;;;;;;;
1964.0;1907.0;;;;-0.40092474;0.90270627;0.1532364;;;;;;;;;;;;;;;
1964.0;1907.0;;;;-0.40037924;0.9030191;0.15374376;;;;;;;;;;;;;;;
1964.0;1907.0;;;;-0.4007569;0.9034997;0.15371324;;;;;;;;;;;;;;;
1964.0;1907.0;;;;-0.40122992;0.9041177;0.15343858;;;;;;;;;;;;;;;
1964.0;1912.8;;;;;;;;;;;;;;;;;-1.9875181;0.7705924;-1.411481;;1765.7
1964.0;1912.8;;;;;;;;;;;;;;0.87166965;0.12524797;-0.41346475;;;;;1765.7
1964.0;1912.8;;;;;;;;;;;;;;;;;-1.9188513;0.85833305;-1.4839625;;1765.7
1964.0;1912.8;;;;;;;;;;;;;;0.87118137;0.12878811;-0.41230506;;;;;1765.7
1964.0;1912.8;;;;;;;;;;;;;;;;;-1.8768883;0.93844414;-1.5449996;;1775.3
1964.0;1912.8;;;;;;;;;;;;;;0.87240213;0.12897122;-0.40852076;;;;;1775.3
1964.0;1912.8;;;;;;;;;;;;;;;;;-1.8082217;0.9346294;-1.6708884;;1775.3
1964.0;1912.8;;;;;;;;;;;;;;0.87368387;0.1267739;-0.40681174;;;;;1775.3
1964.0;1912.8;;;;;;;;;;;;;;;;;-1.5831476;0.7057405;-1.8501847;;1784.9
1964.0;1912.8;;;;;;;;;;;;;;0.87545395;0.12018189;-0.4041261;;;;;1784.9
1964.0;1912.8;;;;;;;;;;;;;;;;;-1.4038514;0.45396283;-2.0981476;;1784.9
1964.0;1912.8;;;;;;;;;;;;;;0.88033694;0.11401715;-0.40797144;;;;;1784.9
1964.0;1916.3;;;;;;;;;;6.9009976;-18.837551;-31.392101;;;;;;;;;
1964.0;1916.3;;;;;;;0.3449202;-0.93850523;0.20795313;;;;;;;;;;;;
1964.0;1916.3;;;;;;;;;;6.859035;-18.780329;-31.025879;;;;;;;;;
1964.0;1916.3;;;;;;;0.3434553;-0.94192326;0.2074038;;;;;;;;;;;;
1987.0;1916.8;;;;-0.40106207;0.9048997;0.15337755;;;;;;;;;;;;;;;
1987.0;1916.8;;;;-0.4008599;0.90563595;0.15329362;;;;;;;;;;;;;;;
1987.0;1916.8;;;;-0.4013329;0.9058534;0.15298845;;;;;;;;;;;;;;;
1987.0;1916.8;;;;-0.40137106;0.90626156;0.15300371;;;;;;;;;;;;;;;
1987.0;1916.8;;;;-0.40155798;0.9065896;0.15306856;;;;;;;;;;;;;;;
1987.0;1920.3;262143;262143;12461;;;;;;;;;;;;;;;;;;
1987.0;1926.0;;;;;;;;;;6.6873684;-18.570513;-30.934324;;;;;;;;;
1987.0;1926.0;;;;;;;0.3442488;-0.9412519;0.20844142;;;;;;;;;;;;
1987.0;1926.0;;;;;;;;;;6.5462203;-17.986847;-30.793177;;;;;;;;;
1987.0;1926.0;;;;;;;0.34369946;-0.94283885;0.20715964;;;;;;;;;;;;
1987.0;1926.3;;;;;;;;;;;;;1160;;;;;;;;
1987.0;1926.3;;;;;;;;;;;;;1014;;;;;;;;
1987.0;1926.3;;;;;;;;;;;;;915;;;;;;;;
1987.0;1926.3;;;;;;;;;;;;;1010;;;;;;;;
1987.0;1926.3;;;;;;;;;;;;;1148;;;;;;;;
1987.0;1926.9;;;;-0.40209585;0.90677655;0.15320207;;;;;;;;;;;;;;;
1987.0;1926.9;;;;-0.4020005;0.90682995;0.15283968;;;;;;;;;;;;;;;
1987.0;1926.9;;;;-0.4020272;0.9072534;0.15267564;;;;;;;;;;;;;;;
1987.0;1926.9;;;;-0.40232855;0.9070779;0.15239336;;;;;;;;;;;;;;;
1987.0;1926.9;;;;-0.40199667;0.9071313;0.15240099;;;;;;;;;;;;;;;
1987.0;1935.6;;;;;;;;;;6.370739;-17.494736;-30.438398;;;;;;;;;
1987.0;1935.6;;;;;;;0.3442488;-0.94387645;0.20599994;;;;;;;;;;;;
1987.0;1935.6;;;;;;;;;;6.172369;-17.033142;-30.308695;;;;;;;;;
1987.0;1935.6;;;;;;;0.34382153;-0.9452803;0.20545061;;;;;;;;;;;;
1990.0;1937.0;;;;-0.40208822;0.9072343;0.15225221;;;;;;;;;;;;;;;
1990.0;1937.0;;;;-0.40217978;0.907261;0.15257265;;;;;;;;;;;;;;;
1990.0;1937.0;;;;-0.40232092;0.90713894;0.15304948;;;;;;;;;;;;;;;
1990.0;1937.0;;;;-0.4023705;0.90703976;0.1523018;;;;;;;;;;;;;;;
1990.0;1937.0;;;;-0.4023438;0.90708935;0.15244295;;;;;;;;;;;;;;;
1990.0;1940.6;262143;262143;12471;;;;;;;;;;;;;;;;;;
1990.0;1943.1;;;;;;;;;;;;;;;;;-1.5411848;0.29374066;-2.2850735;;1794.6
1990.0;1943.1;;;;;;;;;;;;;;0.8831446;0.11401715;-0.4173101;;;;;1794.6
1990.0;1943.1;;;;;;;;;;;;;;;;;-1.9493698;0.45777765;-2.2164068;;1794.6
1990.0;1943.1;;;;;;;;;;;;;;0.8794824;0.11847285;-0.4283578;;;;;1794.6
1990.0;1943.1;;;;;;;;;;;;;;;;;-2.475814;0.86214787;-1.9646292;;1804.2
1990.0;1943.1;;;;;;;;;;;;;;0.8743553;0.1225013;-0.43574327;;;;;1804.2
1990.0;1943.1;;;;;;;;;;;;;;;;;-2.7695546;1.2398144;-1.7242957;;1804.2
1990.0;1943.1;;;;;;;;;;;;;;0.8650777;0.12591937;-0.428663;;;;;1804.2
1990.0;1943.1;;;;;;;;;;;;;;;;;-2.727592;1.2512589;-1.4839625;;1813.8
1990.0;1943.1;;;;;;;;;;;;;;0.86214787;0.12805566;-0.42420727;;;;;1813.8
1990.0;1943.1;;;;;;;;;;;;;;;;;-2.6284068;1.0605181;-1.3351848;;1813.8
1990.0;1943.1;;;;;;;;;;;;;;0.8584857;0.12652974;-0.42207098;;;;;1813.8
1990.0;1945.1;;;;;;;;;;5.916776;-16.434217;-30.217138;;;;;;;;;
1990.0;1945.1;;;;;;;0.34369946;-0.94448686;0.20441298;;;;;;;;;;;;
1990.0;1945.1;;;;;;;;;;5.664998;-15.900145;-30.014954;;;;;;;;;
1990.0;1945.1;;;;;;;0.34223455;-0.94497514;0.20484024;;;;;;;;;;;;
2015.0;1947.0;;;;-0.4024964;0.90670407;0.15252687;;;;;;;;;;;;;;;
2015.0;1947.0;;;;-0.4023705;0.90654767;0.1526375;;;;;;;;;;;;;;;
2015.0;1947.0;;;;-0.4022103;0.9065324;0.15281297;;;;;;;;;;;;;;;
2015.0;1947.0;;;;-0.40200812;0.90635693;0.15264513;;;;;;;;;;;;;;;
2015.0;1947.0;;;;-0.40261084;0.9059411;0.15265657;;;;;;;;;;;;;;;
2015.0;1954.7;;;;;;;;;;5.4017763;-15.324106;-29.831844;;;;;;;;;
2015.0;1954.7;;;;;;;0.3411359;-0.9456465;0.20435195;;;;;;;;;;;;
2015.0;1954.7;;;;;;;;;;5.1499987;-14.7633295;-29.7174;;;;;;;;;
2015.0;1954.7;;;;;;;0.3389996;-0.9496139;0.2042909;;;;;;;;;;;;
2015.0;1956.9;;;;-0.40253454;0.9058572;0.15278627;;;;;;;;;;;;;;;
2015.0;1956.9;;;;-0.40220648;0.9052278;0.15265657;;;;;;;;;;;;;;;
2015.0;1956.9;;;;-0.40207678;0.90525067;0.15324403;;;;;;;;;;;;;;;
2015.0;1956.9;;;;-0.401928;0.90505993;0.15332033;;;;;;;;;;;;;;;
2015.0;1956.9;;;;-0.40196234;0.90514004;0.15363313;;;;;;;;;;;;;;;
2015.0;1960.4;262143;262143;12444;;;;;;;;;;;;;;;;;;
2015.0;1964.0;;;;;;;;;;4.8257394;-14.54207;-30.049286;;;;;;;;;
2015.0;1964.0;;;;;;;0.338023;-0.9465621;0.2066103;;;;;;;;;;;;
2015.0;1964.0;;;;;;;;;;4.50911;-13.721885;-30.182806;;;;;;;;;
2015.0;1964.0;;;;;;;0.34284493;-0.948088;0.20618305;;;;;;;;;;;;
2015.0;1966.4;;;;;;;;;;;;;1184;;;;;;;;
2015.0;1966.4;;;;;;;;;;;;;1104;;;;;;;;
2015.0;1966.4;;;;;;;;;;;;;1031;;;;;;;;
2015.0;1966.4;;;;;;;;;;;;;1011;;;;;;;;
2015.0;1966.4;;;;;;;;;;;;;962;;;;;;;;
2034.0;1966.9;;;;-0.40170294;0.9047853;0.15391542;;;;;;;;;;;;;;;
2034.0;1966.9;;;;-0.40150076;0.9043466;0.15329744;;;;;;;;;;;;;;;
2034.0;1966.9;;;;-0.40124136;0.9048959;0.15384294;;;;;;;;;;;;;;;
2034.0;1966.9;;;;-0.4013253;0.90483487;0.1540413;;;;;;;;;;;;;;;
2034.0;1966.9;;;;-0.40115362;0.9048501;0.15445329;;;;;;;;;;;;;;;
2034.0;1972.9;;;;;;;;;;;;;;;;;-2.3003328;0.7820368;-1.2779626;;1823.5
2034.0;1972.9;;;;;;;;;;;;;;0.8572039;0.12915434;-0.4213996;;;;;1823.5
2034.0;1972.9;;;;;;;;;;;;;;;;;-2.1019626;0.4158147;-1.2207403;;1823.5
2034.0;1972.9;;;;;;;;;;;;;;0.85872984;0.12842189;-0.4225593;;;;;1823.5
2034.0;1972.9;;;;;;;;;;;;;;;;;-2.2965178;0.015259255;-0.99185157;;1833.2
2034.0;1972.9;;;;;;;;;;;;;;0.8594012;0.12732323;-0.42103335;;;;;1833.2
2034.0;1972.9;;;;;;;;;;;;;;;;;-2.4147773;-0.19074069;-0.8316294;;1833.2
2034.0;1972.9;;;;;;;;;;;;;;0.8631245;0.12555315;-0.42097232;;;;;1833.2
2034.0;1972.9;;;;;;;;;;;;;;;;;-2.5292215;-0.2822962;-0.7019257;;1842.9
2034.0;1972.9;;;;;;;;;;;;;;0.86770225;0.12475967;-0.4210944;;;;;1842.9
2034.0;1972.9;;;;;;;;;;;;;;;;;-2.601703;-0.12588885;-0.51499987;;1842.9
2034.0;1972.9;;;;;;;;;;;;;;0.8678243;0.1208533;-0.41840875;;;;;1842.9
2034.0;1973.4;;;;;;;;;;4.2306285;-12.874996;-29.278696;;;;;;;;;
2034.0;1973.4;;;;;;;0.34351635;-0.94698936;0.20612201;;;;;;;;;;;;
2034.0;1973.4;;;;;;;;;;3.8605914;-12.039553;-28.633991;;;;;;;;;
2034.0;1973.4;;;;;;;0.33851132;-0.9468673;0.20715964;;;;;;;;;;;;
2044.0;1976.8;;;;-0.40092856;0.9050828;0.15421678;;;;;;;;;;;;;;;
2044.0;1976.8;;;;-0.40074164;0.9053842;0.15459444;;;;;;;;;;;;;;;
2044.0;1976.8;;;;-0.40061575;0.9053117;0.1547661;;;;;;;;;;;;;;;
2044.0;1976.8;;;;-0.40009695;0.90551007;0.15469362;;;;;;;;;;;;;;;
2044.0;1976.8;;;;-0.39968115;0.90573895;0.15476228;;;;;;;;;;;;;;;
2044.0;1980.4;262143;262143;12454;;;;;;;;;;;;;;;;;;
2044.0;1983.0;;;;;;;;;;3.604999;-11.211737;-28.431807;;;;;;;;;
2044.0;1983.0;;;;;;;0.3373516;-0.94570756;0.2064272;;;;;;;;;;;;
2044.0;1983.0;;;;;;;;;;3.276925;-10.406812;-28.313547;;;;;;;;;
2044.0;1983.0;;;;;;;0.3345439;-0.94570756;0.20752586;;;;;;;;;;;;
2044.0;1986.9;;;;-0.39970022;0.9055139;0.15444566;;;;;;;;;;;;;;;
2044.0;1986.9;;;;-0.39887625;0.9052774;0.15452577;;;;;;;;;;;;;;;
2044.0;1986.9;;;;-0.39623266;0.90415204;0.15404512;;;;;;;;;;;;;;;
2044.0;1986.9;;;;-0.39854437;0.90631497;0.15509416;;;;;;;;;;;;;;;
2044.0;1986.9;;;;-0.4010468;0.90659726;0.15589906;;;;;;;;;;;;;;;
2044.0;1992.5;;;;;;;;;;2.883999;-9.548479;-28.118992;;;;;;;;;
2044.0;1992.5;;;;;;;0.33533737;-0.9449141;0.20679343;;;;;;;;;;;;
2044.0;1992.5;;;;;;;;;;2.6131475;-8.884701;-28.000732;;;;;;;;;
2044.0;1992.5;;;;;;;0.33625293;-0.9465011;0.20777002;;;;;;;;;;;;
2047.0;1996.9;;;;-0.39921194;0.9069673;0.15539171;;;;;;;;;;;;;;;
2047.0;1996.9;;;;-0.3977204;0.9060937;0.15506746;;;;;;;;;;;;;;;
2047.0;1996.9;;;;-0.39804083;0.90635693;0.15491106;;;;;;;;;;;;;;;
2047.0;1996.9;;;;-0.3975907;0.90678036;0.1553879;;;;;;;;;;;;;;;
2047.0;1996.9;;;;-0.396576;0.90690243;0.1560135;;;;;;;;;;;;;;;
2047.0;2000.6;262143;262143;12450;;;;;;;;;;;;;;;;;;
2047.0;2002.1;;;;;;;;;;2.25074;-7.953887;-27.535324;;;;;;;;;
2047.0;2002.1;;;;;;;0.3360088;-0.9457686;0.20990631;;;;;;;;;;;;
2047.0;2002.1;;;;;;;;;;1.8387402;-7.232887;-27.054659;;;;;;;;;
2047.0;2002.1;;;;;;;0.33832818;-0.94601274;0.20862453;;;;;;;;;;;;
2047.0;2003.4;;;;;;;;;;;;;;;;;-2.475814;-0.08774071;-0.43870357;;1852.6
2047.0;2003.4;;;;;;;;;;;;;;0.87044895;0.11841182;-0.41853085;;;;;1852.6
2047.0;2003.4;;;;;;;;;;;;;;;;;-2.1553698;-0.20599994;-0.38911098;;1852.6
2047.0;2003.4;;;;;;;;;;;;;;0.8725242;0.117313154;-0.4189581;;;;;1852.6
2047.0;2003.4;;;;;;;;;;;;;;;;;-1.7738883;-0.22507401;-0.32425916;;1862.0
2047.0;2003.4;;;;;;;;;;;;;;0.8723411;0.11548204;-0.41773736;;;;;1862.0
2047.0;2003.4;;;;;;;;;;;;;;;;;-1.4839625;-0.20981476;-0.18311106;;1862.0
2047.0;2003.4;;;;;;;;;;;;;;0.8747215;0.11481063;-0.41755426;;;;;1862.0
2047.0;2003.4;;;;;;;;;;;;;;;;;-1.4038514;-0.11444441;-0.06103702;;1871.7
2047.0;2003.4;;;;;;;;;;;;;;0.8760033;0.1126133;-0.41688284;;;;;1871.7
2047.0;2003.4;;;;;;;;;;;;;;;;;-1.3618885;0.057222206;0.13733329;;1871.7
2047.0;2003.4;;;;;;;;;;;;;;0.8761254;0.112735376;-0.4173101;;;;;1871.7
2075.0;2006.4;;;;;;;;;;;;;886;;;;;;;;
2075.0;2006.4;;;;;;;;;;;;;853;;;;;;;;
2075.0;2006.4;;;;;;;;;;;;;878;;;;;;;;
2075.0;2006.4;;;;;;;;;;;;;922;;;;;;;;
2075.0;2006.4;;;;;;;;;;;;;966;;;;;;;;
2075.0;2006.8;;;;-0.39607626;0.9064599;0.15527345;;;;;;;;;;;;;;;
2075.0;2006.8;;;;-0.39591986;0.9063417;0.15518571;;;;;;;;;;;;;;;
2075.0;2006.8;;;;-0.39531714;0.90685284;0.15552141;;;;;;;;;;;;;;;
2075.0;2006.8;;;;-0.3946076;0.9065629;0.15535738;;;;;;;;;;;;;;;
2075.0;2006.8;;;;-0.3943177;0.90625775;0.1556244;;;;;;;;;;;;;;;
2075.0;2011.6;;;;;;;;;;1.5030366;-6.324961;-26.837215;;;;;;;;;
2075.0;2011.6;;;;;;;0.33356732;-0.9466842;0.2097232;;;;;;;;;;;;
2075.0;2011.6;;;;;;;;;;1.247444;-5.565813;-26.520586;;;;;;;;;
2075.0;2011.6;;;;;;;0.328135;-0.9452193;0.21076083;;;;;;;;;;;;
2075.0;2016.8;;;;-0.39382178;0.9062158;0.1556473;;;;;;;;;;;;;;;
2075.0;2016.8;;;;-0.39362723;0.906109;0.15590288;;;;;;;;;;;;;;;
2075.0;2016.8;;;;-0.3935166;0.90594876;0.15610124;;;;;;;;;;;;;;;
2075.0;2016.8;;;;-0.3930512;0.9057046;0.15651323;;;;;;;;;;;;;;;
2075.0;2016.8;;;;-0.39239508;0.9054338;0.15634157;;;;;;;;;;;;;;;
2075.0;2020.4;262143;262143;12448;;;;;;;;;;;;;;;;;;
2075.0;2020.9;;;;;;;;;;0.9346294;-4.9821467;-25.997955;;;;;;;;;
2075.0;2020.9;;;;;;;0.32288584;-0.94204533;0.21314128;;;;;;;;;;;;
2075.0;2020.9;;;;;;;;;;0.6447035;-4.650258;-25.704214;;;;;;;;;
2075.0;2020.9;;;;;;;0.32697532;-0.944731;0.21045564;;;;;;;;;;;;
2079.0;2026.7;;;;-0.3922997;0.90516293;0.15621568;;;;;;;;;;;;;;;
2079.0;2026.7;;;;-0.39155966;0.905182;0.15607454;;;;;;;;;;;;;;;
2079.0;2026.7;;;;-0.39142233;0.9049455;0.15662004;;;;;;;;;;;;;;;
2079.0;2026.7;;;;-0.3909226;0.90486157;0.156559;;;;;;;;;;;;;;;
2079.0;2026.7;;;;-0.39023978;0.9048234;0.15725328;;;;;;;;;;;;;;;
2079.0;2030.6;;;;;;;;;;0.37766656;-3.4333322;-25.902584;;;;;;;;;
2079.0;2030.6;;;;;;;0.3310648;-0.9443037;0.2125309;;;;;;;;;;;;
2079.0;2030.6;;;;;;;;;;0.16022217;-2.1820734;-25.131992;;;;;;;;;
2079.0;2030.6;;;;;;;0.3284402;-0.9432661;0.21362957;;;;;;;;;;;;
2079.0;2032.9;;;;;;;;;;;;;;;;;-1.3962218;0.24033326;0.3089999;;1881.3
2079.0;2032.9;;;;;;;;;;;;;;0.875515;0.11175878;-0.41554004;;;;;1881.3
2079.0;2032.9;;;;;;;;;;;;;;;;;-1.3809626;0.35096285;0.45014802;;1881.3
2079.0;2032.9;;;;;;;;;;;;;;0.87313455;0.11267434;-0.41444135;;;;;1881.3
2079.0;2032.9;;;;;;;;;;;;;;;;;-1.5182959;0.24796289;0.5378887;;1891.0
2079.0;2032.9;;;;;;;;;;;;;;0.87166965;0.11346782;-0.41639453;;;;;1891.0
2079.0;2032.9;;;;;;;;;;;;;;;;;-1.617481;0.11825922;0.6179998;;1891.0
2079.0;2032.9;;;;;;;;;;;;;;0.87276834;0.11322367;-0.4176153;;;;;1891.0
2079.0;2032.9;;;;;;;;;;;;;;;;;-1.6060365;0.08774071;0.62944424;;1900.6
2079.0;2032.9;;;;;;;;;;;;;;0.87246317;0.11346782;-0.41529587;;;;;1900.6
2079.0;2032.9;;;;;;;;;;;;;;;;;-1.5907773;0.08774071;0.6981109;;1900.6
2079.0;2032.9;;;;;;;;;;;;;;0.872219;0.11529893;-0.41395307;;;;;1900.6
2107.0;2036.6;;;;-0.3896523;0.90488064;0.15697862;;;;;;;;;;;;;;;
2107.0;2036.6;;;;-0.38953406;0.9044992;0.15672304;;;;;;;;;;;;;;;
2107.0;2036.6;;;;-0.38922125;0.9039842;0.15732957;;;;;;;;;;;;;;;
2107.0;2036.6;;;;-0.38867193;0.9040605;0.15783693;;;;;;;;;;;;;;;
2107.0;2036.6;;;;-0.38815695;0.90363324;0.15790178;;;;;;;;;;;;;;;
2107.0;2040.0;;;;;;;;;;-0.12588885;-1.4305551;-24.315622;;;;;;;;;
2107.0;2040.0;;;;;;;0.3277688;-0.94534135;0.21362957;;;;;;;;;;;;
2107.0;2040.0;;;;;;;;;;-0.39674062;-0.40055543;-24.075289;;;;;;;;;
2107.0;2040.0;;;;;;;0.32428968;-0.94448686;0.21442305;;;;;;;;;;;;
2107.0;2040.5;262143;262143;12449;;;;;;;;;;;;;;;;;;
2107.0;2046.4;;;;;;;;;;;;;976;;;;;;;;
2107.0;2046.4;;;;;;;;;;;;;881;;;;;;;;
2107.0;2046.4;;;;;;;;;;;;;742;;;;;;;;
2107.0;2046.4;;;;;;;;;;;;;679;;;;;;;;
2107.0;2046.4;;;;;;;;;;;;;689;;;;;;;;
2107.0;2046.7;;;;-0.3881989;0.90345013;0.15810014;;;;;;;;;;;;;;;
2107.0;2046.7;;;;-0.38799292;0.90322506;0.15830232;;;;;;;;;;;;;;;
2107.0;2046.7;;;;-0.38740927;0.9030496;0.1591797;;;;;;;;;;;;;;;
2107.0;2046.7;;;;-0.38685232;0.9028512;0.15881349;;;;;;;;;;;;;;;
2107.0;2046.7;;;;-0.38486487;0.9014131;0.15845491;;;;;;;;;;;;;;;
2107.0;2049.4;;;;;;;;;;-0.6218146;0.40818506;-23.823511;;;;;;;;;
2107.0;2049.4;;;;;;;0.3230079;-0.9441206;0.21607105;;;;;;;;;;;;
2107.0;2049.4;;;;;;;;;;-0.8163701;1.3046663;-23.365734;;;;;;;;;
2107.0;2049.4;;;;;;;0.3218482;-0.9436323;0.21637623;;;;;;;;;;;;
2109.0;2056.6;;;;-0.38486868;0.90265286;0.15952684;;;;;;;;;;;;;;;
2109.0;2056.6;;;;-0.38766867;0.90391934;0.16045381;;;;;;;;;;;;;;;
2109.0;2056.6;;;;-0.3868485;0.90418255;0.16082002;;;;;;;;;;;;;;;
2109.0;2056.6;;;;-0.38517767;0.90311825;0.16048051;;;;;;;;;;;;;;;
2109.0;2056.6;;;;-0.38549048;0.9031564;0.16028596;;;;;;;;;;;;;;;
2109.0;2059.0;;;;;;;;;;-1.0986663;2.113407;-22.873623;;;;;;;;;
2109.0;2059.0;;;;;;;0.3225196;-0.9418622;0.21735282;;;;;;;;;;;;
2109.0;2059.0;;;;;;;;;;-1.2665181;2.8572955;-22.366251;;;;;;;;;
2109.0;2059.0;;;;;;;0.32203132;-0.9402142;0.21790215;;;;;;;;;;;;
2109.0;2060.5;262143;262143;12434;;;;;;;;;;;;;;;;;;
2109.0;2062.9;;;;;;;;;;;;;;;;;-1.6098514;0.15640736;0.6065554;;1910.3
2109.0;2062.9;;;;;;;;;;;;;;0.872219;0.11700796;-0.41431928;;;;;1910.3
2109.0;2062.9;;;;;;;;;;;;;;;;;-1.5030366;0.17548142;0.5378887;;1910.3
2109.0;2062.9;;;;;;;;;;;;;;0.870571;0.11859493;-0.41627246;;;;;1910.3
2109.0;2062.9;;;;;;;;;;;;;;;;;-1.4572588;0.29755548;0.40055543;;1920.0
2109.0;2062.9;;;;;;;;;;;;;;0.87246317;0.12060915;-0.4177984;;;;;1920.0
2109.0;2062.9;;;;;;;;;;;;;;;;;-1.3389996;0.4158147;0.20599994;;1920.0
2109.0;2062.9;;;;;;;;;;;;;;0.8719138;0.121768855;-0.41871396;;;;;1920.0
2109.0;2062.9;;;;;;;;;;;;;;;;;-1.2970366;0.5188147;0.12207404;;1929.5
2109.0;2062.9;;;;;;;;;;;;;;0.870571;0.12292856;-0.41828668;;;;;1929.5
2109.0;2062.9;;;;;;;;;;;;;;;;;-1.0185553;0.5302591;-0.064851835;;1929.5
2109.0;2062.9;;;;;;;;;;;;;;0.86916715;0.122989595;-0.4212775;;;;;1929.5
2135.0;2066.5;;;;-0.385315;0.9035226;0.16067506;;;;;;;;;;;;;;;
2135.0;2066.5;;;;-0.38419348;0.9035417;0.16137315;;;;;;;;;;;;;;;
2135.0;2066.5;;;;-0.38351065;0.90355694;0.1618271;;;;;;;;;;;;;;;
2135.0;2066.5;;;;-0.38268667;0.90363705;0.1613846;;;;;;;;;;;;;;;
2135.0;2066.5;;;;-0.38179785;0.903473;0.16179277;;;;;;;;;;;;;;;
2135.0;2068.4;;;;;;;;;;-1.4610736;3.6774805;-21.881773;;;;;;;;;
2135.0;2068.4;;;;;;;0.3197119;-0.9408246;0.2200995;;;;;;;;;;;;
2135.0;2068.4;;;;;;;;;;-1.7204809;4.421369;-21.351513;;;;;;;;;
2135.0;2068.4;;;;;;;0.3185522;-0.9382;0.21967223;;;;;;;;;;;;
2135.0;2076.6;;;;-0.38132483;0.90335476;0.16199495;;;;;;;;;;;;;;;
2135.0;2076.6;;;;-0.380848;0.9035455;0.16227342;;;;;;;;;;;;;;;
2135.0;2076.6;;;;-0.38044745;0.9039918;0.1621628;;;;;;;;;;;;;;;
2135.0;2076.6;;;;-0.38041312;0.9036752;0.16196825;;;;;;;;;;;;;;;
2135.0;2076.6;;;;-0.37980276;0.9036447;0.1620598;;;;;;;;;;;;;;;
2135.0;2078.0;;;;;;;;;;-1.8921475;5.1080356;-20.817438;;;;;;;;;
2135.0;2078.0;;;;;;;0.3180639;-0.9389935;0.2202826;;;;;;;;;;;;
2135.0;2078.0;;;;;;;;;;-2.010407;5.7412944;-20.279549;;;;;;;;;
2135.0;2078.0;;;;;;;0.31495103;-0.93655205;0.21991637;;;;;;;;;;;;
2135.0;2080.4;262143;262143;12430;;;;;;;;;;;;;;;;;;
2135.0;2086.4;;;;;;;;;;;;;688;;;;;;;;
2135.0;2086.4;;;;;;;;;;;;;622;;;;;;;;
2135.0;2086.4;;;;;;;;;;;;;539;;;;;;;;
2135.0;2086.4;;;;;;;;;;;;;498;;;;;;;;
2135.0;2086.4;;;;;;;;;;;;;490;;;;;;;;
2138.0;2086.6;;;;-0.37962347;0.90348065;0.16267778;;;;;;;;;;;;;;;
2138.0;2086.6;;;;-0.37907034;0.90337;0.16379549;;;;;;;;;;;;;;;
2138.0;2086.6;;;;-0.3791657;0.9033052;0.16355897;;;;;;;;;;;;;;;
2138.0;2086.6;;;;-0.37846;0.9033319;0.1634369;;;;;;;;;;;;;;;
2138.0;2086.6;;;;-0.37802893;0.9033891;0.16383745;;;;;;;;;;;;;;;
2138.0;2087.5;;;;;;;;;;-2.193518;6.3135166;-19.524216;;;;;;;;;
2138.0;2087.5;;;;;;;0.313242;-0.93453777;0.22101505;;;;;;;;;;;;
2138.0;2087.5;;;;;;;;;;-2.25074;6.85522;-18.82229;;;;;;;;;
2138.0;2087.5;;;;;;;0.31189916;-0.93203527;0.22272408;;;;;;;;;;;;
2138.0;2092.9;;;;;;;;;;;;;;;;;-0.8316294;0.5417035;-0.15640736;;1939.2
2138.0;2092.9;;;;;;;;;;;;;;0.8679464;0.12262337;-0.42017883;;;;;1939.2
2138.0;2092.9;;;;;;;;;;;;;;;;;-0.67903686;0.56840724;-0.32044435;;1939.2
2138.0;2092.9;;;;;;;;;;;;;;0.8675802;0.12262337;-0.42023987;;;;;1939.2
2138.0;2092.9;;;;;;;;;;;;;;;;;-0.5378887;0.49592578;-0.45777765;;1948.9
2138.0;2092.9;;;;;;;;;;;;;;0.86849576;0.12244026;-0.4213996;;;;;1948.9
2138.0;2092.9;;;;;;;;;;;;;;;;;-0.32807398;0.46540728;-0.51499987;;1948.9
2138.0;2092.9;;;;;;;;;;;;;;0.8690451;0.12146367;-0.42133853;;;;;1948.9
2138.0;2092.9;;;;;;;;;;;;;;;;;-0.22125919;0.46159247;-0.5302591;;1958.4
2138.0;2092.9;;;;;;;;;;;;;;0.8716086;0.12042604;-0.41956848;;;;;1958.4
2138.0;2092.9;;;;;;;;;;;;;;;;;-0.20599994;0.43870357;-0.553148;;1958.4
2138.0;2092.9;;;;;;;;;;;;;;0.87185276;0.12091433;-0.4159673;;;;;1958.4
2167.0;2096.5;;;;-0.37759405;0.90384686;0.1642914;;;;;;;;;;;;;;;
2167.0;2096.5;;;;-0.37695318;0.903988;0.1639824;;;;;;;;;;;;;;;
2167.0;2096.5;;;;-0.37694556;0.9042169;0.16404344;;;;;;;;;;;;;;;
2167.0;2096.5;;;;-0.3763848;0.9046327;0.16454317;;;;;;;;;;;;;;;
2167.0;2096.5;;;;-0.37590033;0.9044496;0.16475298;;;;;;;;;;;;;;;
2167.0;2097.0;;;;;;;;;;-2.4109623;7.4655905;-18.127995;;;;;;;;;
2167.0;2097.0;;;;;;;0.3108005;-0.93490404;0.22534868;;;;;;;;;;;;
2167.0;2097.0;;;;;;;;;;-2.4414806;8.007294;-17.406994;;;;;;;;;
2167.0;2097.0;;;;;;;0.3108005;-0.9360637;0.22656941;;;;;;;;;;;;
2167.0;2100.5;262143;262143;12427;;;;;;;;;;;;;;;;;;
2167.0;2106.5;;;;;;;;;;-2.5444808;8.465072;-16.621143;;;;;;;;;
2167.0;2106.5;;;;;;;0.31092256;-0.93417156;0.22681357;;;;;;;;;;;;
2167.0;2106.5;;;;;;;;;;-2.6131475;8.774072;-15.892513;;;;;;;;;
2167.0;2106.5;;;;;;;0.30878627;-0.93417156;0.2290109;;;;;;;;;;;;
2167.0;2106.5;;;;-0.37603003;0.9046594;0.16494752;;;;;;;;;;;;;;;
2167.0;2106.5;;;;-0.37590033;0.905018;0.16486742;;;;;;;;;;;;;;;
2167.0;2106.5;;;;-0.37560278;0.9053575;0.16574098;;;;;;;;;;;;;;;
2167.0;2106.5;;;;-0.37504202;0.9049798;0.16595842;;;;;;;;;;;;;;;
2167.0;2106.5;;;;-0.37488177;0.90493786;0.16548158;;;;;;;;;;;;;;;
2167.0;2115.9;;;;;;;;;;-2.666555;9.10596;-15.079958;;;;;;;;;
2167.0;2115.9;;;;;;;0.3061617;-0.9305093;0.22962126;;;;;;;;;;;;
2167.0;2115.9;;;;;;;;;;-2.727592;9.292887;-14.32081;;;;;;;;;
2167.0;2115.9;;;;;;;0.30597857;-0.92983794;0.22956023;;;;;;;;;;;;
2172.0;2116.4;;;;-0.37464526;0.9050828;0.16585924;;;;;;;;;;;;;;;
2172.0;2116.4;;;;-0.37365344;0.90519345;0.16662218;;;;;;;;;;;;;;;
2172.0;2116.4;;;;-0.37347797;0.9054681;0.16680147;;;;;;;;;;;;;;;
2172.0;2116.4;;;;-0.37313464;0.9051286;0.16683961;;;;;;;;;;;;;;;
2172.0;2116.4;;;;-0.3725243;0.904915;0.1668892;;;;;;;;;;;;;;;
2172.0;2120.4;262143;262143;12426;;;;;;;;;;;;;;;;;;
2172.0;2123.1;;;;;;;;;;;;;;;;;-0.14877774;0.5340739;-0.553148;;1968.0
2172.0;2123.1;;;;;;;;;;;;;;0.8726463;0.12115848;-0.4153569;;;;;1968.0
2172.0;2123.1;;;;;;;;;;;;;;;;;-0.16022217;0.5226295;-0.5836665;;1968.0
2172.0;2123.1;;;;;;;;;;;;;;0.8719748;0.12268441;-0.41328165;;;;;1968.0
2172.0;2123.1;;;;;;;;;;;;;;;;;-0.14877774;0.57222205;-0.5264443;;1977.7
2172.0;2123.1;;;;;;;;;;;;;;0.87362283;0.12152471;-0.41230506;;;;;1977.7
2172.0;2123.1;;;;;;;;;;;;;;;;;-0.11825922;0.5302591;-0.54551834;;1977.7
2172.0;2123.1;;;;;;;;;;;;;;0.8731956;0.12268441;-0.4102298;;;;;1977.7
2172.0;2123.1;;;;;;;;;;;;;;;;;-0.12207404;0.5798517;-0.5760369;;1987.2
2172.0;2123.1;;;;;;;;;;;;;;0.8741722;0.123416856;-0.4090701;;;;;1987.2
2172.0;2123.1;;;;;;;;;;;;;;;;;-0.19074069;0.6218146;-0.5378887;;1987.2
2172.0;2123.1;;;;;;;;;;;;;;0.87508774;0.12439345;-0.41077915;;;;;1987.2
2172.0;2125.3;;;;;;;;;;-2.6894438;9.559923;-13.565478;;;;;;;;;
2172.0;2125.3;;;;;;;0.3048799;-0.9264809;0.23194067;;;;;;;;;;;;
2172.0;2125.3;;;;;;;;;;-2.723777;9.63622;-12.798699;;;;;;;;;
2172.0;2125.3;;;;;;;0.3054903;-0.92263556;0.23090304;;;;;;;;;;;;
2198.0;2126.1;;;;;;;;;;;;;435;;;;;;;;
2198.0;2126.1;;;;;;;;;;;;;312;;;;;;;;
2198.0;2126.1;;;;;;;;;;;;;185;;;;;;;;
2198.0;2126.1;;;;;;;;;;;;;-2;;;;;;;;
2198.0;2126.1;;;;;;;;;;;;;-352;;;;;;;;
2198.0;2126.3;;;;-0.37215808;0.9053041;0.16683961;;;;;;;;;;;;;;;
2198.0;2126.3;;;;-0.37131885;0.9052583;0.16702272;;;;;;;;;;;;;;;
2198.0;2126.3;;;;-0.3710747;0.9055635;0.16744615;;;;;;;;;;;;;;;
2198.0;2126.3;;;;-0.3707123;0.90587246;0.16767885;;;;;;;;;;;;;;;
2198.0;2126.3;;;;-0.36994556;0.9060403;0.1682129;;;;;;;;;;;;;;;
2198.0;2134.9;;;;;;;;;;-2.6551104;9.712516;-11.997589;;;;;;;;;
2198.0;2134.9;;;;;;;0.303354;-0.9196448;0.23047578;;;;;;;;;;;;
2198.0;2134.9;;;;;;;;;;-2.6360364;9.800256;-11.139256;;;;;;;;;
2198.0;2134.9;;;;;;;0.3023774;-0.91763055;0.2301706;;;;;;;;;;;;
2198.0;2136.3;;;;-0.36989596;0.9060708;0.16829683;;;;;;;;;;;;;;;
2198.0;2136.3;;;;-0.3694115;0.9060861;0.16852571;;;;;;;;;;;;;;;
2198.0;2136.3;;;;-0.36843494;0.90568554;0.16923143;;;;;;;;;;;;;;;
2198.0;2136.3;;;;-0.36672977;0.9053956;0.16822435;;;;;;;;;;;;;;;
2198.0;2136.3;;;;-0.36879733;0.9070436;0.16968538;;;;;;;;;;;;;;;
2198.0;2140.3;262143;262143;12410;;;;;;;;;;;;;;;;;;
2198.0;2144.4;;;;;;;;;;-2.5635548;9.872738;-10.269479;;;;;;;;;
2198.0;2144.4;;;;;;;0.29944763;-0.9159215;0.22864467;;;;;;;;;;;;
2198.0;2144.4;;;;;;;;;;-2.4910734;9.857478;-9.285256;;;;;;;;;
2198.0;2144.4;;;;;;;0.2995697;-0.9150059;0.2287057;;;;;;;;;;;;
2200.0;2146.3;;;;-0.3698502;0.90724576;0.16987611;;;;;;;;;;;;;;;
2200.0;2146.3;;;;-0.36721042;0.90718853;0.16959383;;;;;;;;;;;;;;;
2200.0;2146.3;;;;-0.36693576;0.9064332;0.16839601;;;;;;;;;;;;;;;
2200.0;2146.3;;;;-0.36712268;0.9062692;0.16854097;;;;;;;;;;;;;;;
2200.0;2146.3;;;;-0.36685184;0.9065324;0.16895296;;;;;;;;;;;;;;;
2200.0;2152.9;;;;;;;;;;;;;;;;;-0.19455549;0.54551834;-0.54551834;;1996.8
2200.0;2152.9;;;;;;;;;;;;;;0.87362283;0.12445448;-0.41181678;;;;;1996.8
2200.0;2152.9;;;;;;;;;;;;;;;;;-0.18692587;0.5607776;-0.59129614;;1996.8
2200.0;2152.9;;;;;;;;;;;;;;0.87398905;0.12445448;-0.41151157;;;;;1996.8
2200.0;2152.9;;;;;;;;;;;;;;;;;-0.24414808;0.6179998;-0.4768517;;2006.5
2200.0;2152.9;;;;;;;;;;;;;;0.8725242;0.12537004;-0.4123661;;;;;2006.5
2200.0;2152.9;;;;;;;;;;;;;;;;;-0.35859248;0.56840724;-0.4997406;;2006.5
2200.0;2152.9;;;;;;;;;;;;;;0.8714255;0.1257973;-0.41199988;;;;;2006.5
2200.0;2152.9;;;;;;;;;;;;;;;;;-0.3852962;0.54933316;-0.45014802;;2016.1
2200.0;2152.9;;;;;;;;;;;;;;0.8708762;0.12634663;-0.41340372;;;;;2016.1
2200.0;2152.9;;;;;;;;;;;;;;;;;-0.42725915;0.5340739;-0.37003693;;2016.1
2200.0;2152.9;;;;;;;;;;;;;;0.8692892;0.12732323;-0.41309854;;;;;2016.1
2200.0;2153.9;;;;;;;;;;-2.4796288;9.727776;-8.40785;;;;;;;;;
2200.0;2153.9;;;;;;;0.29883724;-0.91579944;0.22962126;;;;;;;;;;;;
2200.0;2153.9;;;;;;;;;;-2.4452956;9.521775;-7.614368;;;;;;;;;
2200.0;2153.9;;;;;;;0.29737237;-0.9128086;0.22907193;;;;;;;;;;;;
2226.0;2156.3;;;;-0.36578372;0.9067613;0.16920473;;;;;;;;;;;;;;;
2226.0;2156.3;;;;-0.36558917;0.9063989;0.16944124;;;;;;;;;;;;;;;
2226.0;2156.3;;;;-0.36506274;0.9069978;0.16853715;;;;;;;;;;;;;;;
2226.0;2156.3;;;;-0.36452106;0.9071504;0.16807939;;;;;;;;;;;;;;;
2226.0;2156.3;;;;-0.36402133;0.9072381;0.16835023;;;;;;;;;;;;;;;
2226.0;2160.5;262143;262143;12406;;;;;;;;;;;;;;;;;;
2226.0;2163.5;;;;;;;;;;-2.4491103;9.262368;-6.6644797;;;;;;;;;
2226.0;2163.5;;;;;;;0.30152288;-0.91256446;0.22742394;;;;;;;;;;;;
2226.0;2163.5;;;;;;;;;;-2.3461106;8.903775;-5.7031465;;;;;;;;;
2226.0;2163.5;;;;;;;0.29822686;-0.91201514;0.2285226;;;;;;;;;;;;
2226.0;2166.4;;;;;;;;;;;;;-811;;;;;;;;
2226.0;2166.4;;;;;;;;;;;;;-1125;;;;;;;;
2226.0;2166.4;;;;;;;;;;;;;-1003;;;;;;;;
2226.0;2166.4;;;;;;;;;;;;;-496;;;;;;;;
2226.0;2166.4;;;;;;;;;;;;;4;;;;;;;;
2226.0;2166.4;;;;-0.36404422;0.90703595;0.16794588;;;;;;;;;;;;;;;
2226.0;2166.4;;;;-0.3641663;0.90742505;0.16791154;;;;;;;;;;;;;;;
2226.0;2166.4;;;;-0.36363223;0.9078599;0.16806032;;;;;;;;;;;;;;;
2226.0;2166.4;;;;-0.36340335;0.90786755;0.16856767;;;;;;;;;;;;;;;
2226.0;2166.4;;;;-0.3631592;0.9075662;0.16848375;;;;;;;;;;;;;;;
2226.0;2173.1;;;;;;;;;;-2.231666;8.491775;-4.676962;;;;;;;;;
2226.0;2173.1;;;;;;;0.29438153;-0.9115879;0.22791223;;;;;;;;;;;;
2226.0;2173.1;;;;;;;;;;-2.0828884;7.953887;-3.6126287;;;;;;;;;
2226.0;2173.1;;;;;;;0.29535812;-0.9108554;0.22913297;;;;;;;;;;;;
2230.0;2176.5;;;;-0.36242297;0.90787137;0.16861345;;;;;;;;;;;;;;;
2230.0;2176.5;;;;-0.36177066;0.9077455;0.16900255;;;;;;;;;;;;;;;
2230.0;2176.5;;;;-0.36128238;0.9077531;0.16979219;;;;;;;;;;;;;;;
2230.0;2176.5;;;;-0.3606873;0.9077455;0.17037965;;;;;;;;;;;;;;;
2230.0;2176.5;;;;-0.36051944;0.90770733;0.17078401;;;;;;;;;;;;;;;
2230.0;2180.7;262143;262143;12409;;;;;;;;;;;;;;;;;;
2230.0;2182.7;;;;;;;;;;-1.9341105;7.450331;-2.578814;;;;;;;;;
2230.0;2182.7;;;;;;;0.29639578;-0.9104892;0.23084201;;;;;;;;;;;;
2230.0;2182.7;;;;;;;;;;-1.8539995;6.9467754;-1.5984069;;;;;;;;;
2230.0;2182.7;;;;;;;0.30024108;-0.9114658;0.2323069;;;;;;;;;;;;
2230.0;2183.1;;;;;;;;;;;;;;;;;-0.54551834;0.4730369;-0.34333324;;2025.7
2230.0;2183.1;;;;;;;;;;;;;;0.86867887;0.1267739;-0.4135258;;;;;2025.7
2230.0;2183.1;;;;;;;;;;;;;;;;;-0.5874813;0.48829615;-0.38911098;;2025.7
2230.0;2183.1;;;;;;;;;;;;;;0.86831266;0.12829982;-0.4149907;;;;;2025.7
2230.0;2183.1;;;;;;;;;;;;;;;;;-0.6256294;0.42725915;-0.38911098;;2035.4
2230.0;2183.1;;;;;;;;;;;;;;0.8685568;0.1276284;-0.41425824;;;;;2035.4
2230.0;2183.1;;;;;;;;;;;;;;;;;-0.61037016;0.32807398;-0.3852962;;2035.4
2230.0;2183.1;;;;;;;;;;;;;;0.8671529;0.12567522;-0.41669974;;;;;2035.4
2230.0;2183.1;;;;;;;;;;;;;;;;;-0.61037016;0.32425916;-0.41199988;;2045.1
2230.0;2183.1;;;;;;;;;;;;;;0.86898404;0.12640767;-0.4181646;;;;;2045.1
2230.0;2183.1;;;;;;;;;;;;;;;;;-0.5264443;0.35477766;-0.45396283;;2045.1
2230.0;2183.1;;;;;;;;;;;;;;0.86935025;0.12683493;-0.4194464;;;;;2045.1
2254.0;2186.4;;;;-0.35984805;0.9075395;0.17087556;;;;;;;;;;;;;;;
2254.0;2186.4;;;;-0.35955814;0.9080926;0.17081453;;;;;;;;;;;;;;;
2254.0;2186.4;;;;-0.35964587;0.9080621;0.17108156;;;;;;;;;;;;;;;
2254.0;2186.4;;;;-0.3594437;0.90786374;0.1709633;;;;;;;;;;;;;;;
2254.0;2186.4;;;;-0.35909274;0.9075967;0.17081453;;;;;;;;;;;;;;;
2254.0;2192.2;;;;;;;;;;-1.6975921;6.477554;-0.54551834;;;;;;;;;
2254.0;2192.2;;;;;;;0.30347607;-0.91366315;0.23041475;;;;;;;;;;;;
2254.0;2192.2;;;;;;;;;;-1.5297403;6.042665;0.40437025;;;;;;;;;
2254.0;2192.2;;;;;;;0.30573443;-0.9139073;0.23151341;;;;;;;;;;;;
2254.0;2196.5;;;;-0.35889056;0.9075929;0.1709366;;;;;;;;;;;;;;;
2254.0;2196.5;;;;-0.35855106;0.90773785;0.17069246;;;;;;;;;;;;;;;
2254.0;2196.5;;;;-0.35854343;0.9076959;0.17113496;;;;;;;;;;;;;;;
2254.0;2196.5;;;;-0.35880664;0.9075128;0.17137147;;;;;;;;;;;;;;;
2254.0;2196.5;;;;-0.35868838;0.90773785;0.17113115;;;;;;;;;;;;;;;
2254.0;2200.6;262143;262143;12402;;;;;;;;;;;;;;;;;;
2254.0;2201.6;;;;;;;;;;-1.4610736;5.6382947;1.3161107;;;;;;;;;
2254.0;2201.6;;;;;;;0.30707723;-0.91348004;0.22907193;;;;;;;;;;;;
2254.0;2201.6;;;;;;;;;;-1.3695182;5.367443;2.2659993;;;;;;;;;
2254.0;2201.6;;;;;;;0.31293678;-0.913358;0.229194;;;;;;;;;;;;
2259.0;2206.5;;;;-0.35819247;0.90768445;0.17158128;;;;;;;;;;;;;;;
2259.0;2206.5;;;;-0.3578377;0.90765774;0.17176439;;;;;;;;;;;;;;;
2259.0;2206.5;;;;-0.35714343;0.90773785;0.17182161;;;;;;;;;;;;;;;
2259.0;2206.5;;;;-0.35722736;0.9079057;0.17158128;;;;;;;;;;;;;;;
2259.0;2206.5;;;;-0.35705188;0.9078828;0.17153932;;;;;;;;;;;;;;;
2259.0;2206.5;;;;;;;;;;;;;171;;;;;;;;
2259.0;2206.5;;;;;;;;;;;;;171;;;;;;;;
2259.0;2206.5;;;;;;;;;;;;;149;;;;;;;;
2259.0;2206.5;;;;;;;;;;;;;-183;;;;;;;;
2259.0;2206.5;;;;;;;;;;;;;-581;;;;;;;;
2259.0;2211.3;;;;;;;;;;-1.2512589;5.0660725;3.1052582;;;;;;;;;
2259.0;2211.3;;;;;;;0.31635487;-0.9147618;0.22779016;;;;;;;;;;;;
2259.0;2211.3;;;;;;;;;;-1.1787775;4.753258;3.9483323;;;;;;;;;
2259.0;2211.3;;;;;;;0.3164159;-0.91549426;0.22681357;;;;;;;;;;;;
2259.0;2213.1;;;;;;;;;;;;;;;;;-0.40818506;0.29374066;-0.5340739;;2054.7
2259.0;2213.1;;;;;;;;;;;;;;0.8692282;0.12756737;-0.4194464;;;;;2054.7
2259.0;2213.1;;;;;;;;;;;;;;;;;-0.34333324;0.35477766;-0.56840724;;2054.7
2259.0;2213.1;;;;;;;;;;;;;;0.86788535;0.12707907;-0.42048404;;;;;2054.7
2259.0;2213.1;;;;;;;;;;;;;;;;;-0.3357036;0.31662953;-0.56840724;;2064.4
2259.0;2213.1;;;;;;;;;;;;;;0.86666465;0.1267739;-0.41785944;;;;;2064.4
2259.0;2213.1;;;;;;;;;;;;;;;;;-0.27466658;0.27466658;-0.5264443;;2064.4
2259.0;2213.1;;;;;;;;;;;;;;0.868862;0.12775049;-0.41712698;;;;;2064.4
2259.0;2213.1;;;;;;;;;;;;;;;;;-0.37766656;0.29374066;-0.48829615;;2074.1
2259.0;2213.1;;;;;;;;;;;;;;0.86965543;0.12872708;-0.41468552;;;;;2074.1
2259.0;2213.1;;;;;;;;;;;;;;;;;-0.45777765;0.30518508;-0.37385175;;2074.1
2259.0;2213.1;;;;;;;;;;;;;;0.87148654;0.12884915;-0.4140141;;;;;2074.1
2285.0;2216.4;;;;-0.35643008;0.90794003;0.17155458;;;;;;;;;;;;;;;
2285.0;2216.4;;;;-0.35605243;0.90807736;0.17133333;;;;;;;;;;;;;;;
2285.0;2216.4;;;;-0.35566333;0.90787137;0.17167665;;;;;;;;;;;;;;;
2285.0;2216.4;;;;-0.3553429;0.9074937;0.17160799;;;;;;;;;;;;;;;
2285.0;2216.4;;;;-0.35533908;0.9074365;0.17132951;;;;;;;;;;;;;;;
2285.0;2220.7;;;;;;;;;;-1.0071108;4.5243692;4.8257394;;;;;;;;;
2285.0;2220.7;;;;;;;0.31818599;-0.91598254;0.22449416;;;;;;;;;;;;
2285.0;2220.7;;;;;;;;;;-0.9346294;4.318369;5.687887;;;;;;;;;
2285.0;2220.7;;;;;;;0.31861323;-0.91579944;0.22479934;;;;;;;;;;;;
2285.0;2220.7;262143;262143;12402;;;;;;;;;;;;;;;;;;
2285.0;2226.5;;;;-0.35494235;0.90703595;0.1708603;;;;;;;;;;;;;;;
2285.0;2226.5;;;;-0.35439685;0.9070703;0.1705742;;;;;;;;;;;;;;;
2285.0;2226.5;;;;-0.35408023;0.9070474;0.17031862;;;;;;;;;;;;;;;
2285.0;2226.5;;;;-0.35359576;0.90644467;0.17076112;;;;;;;;;;;;;;;
2285.0;2226.5;;;;-0.35339358;0.9066278;0.17024614;;;;;;;;;;;;;;;
2285.0;2230.2;;;;;;;;;;-0.8316294;4.0665917;6.427961;;;;;;;;;
2285.0;2230.2;;;;;;;0.32178718;-0.91470075;0.22302927;;;;;;;;;;;;
2285.0;2230.2;;;;;;;;;;-0.8316294;3.8605914;7.1832943;;;;;;;;;
2285.0;2230.2;;;;;;;0.3251442;-0.9164708;0.22193061;;;;;;;;;;;;
2290.0;2236.5;;;;-0.35295108;0.90656674;0.1701851;;;;;;;;;;;;;;;
2290.0;2236.5;;;;-0.352253;0.9063951;0.17019273;;;;;;;;;;;;;;;
2290.0;2236.5;;;;-0.3518944;0.9061929;0.1706009;;;;;;;;;;;;;;;
2290.0;2236.5;;;;-0.35190967;0.90626156;0.17036058;;;;;;;;;;;;;;;
2290.0;2236.5;;;;-0.35115436;0.9064714;0.16988756;;;;;;;;;;;;;;;
2290.0;2239.8;;;;;;;;;;-0.7553331;3.7537766;7.854701;;;;;;;;;
2290.0;2239.8;;;;;;;0.32624286;-0.9145787;0.22266304;;;;;;;;;;;;
2290.0;2239.8;;;;;;;;;;-0.74007386;3.5477767;8.499405;;;;;;;;;
2290.0;2239.8;;;;;;;0.3328959;-0.91549426;0.22327341;;;;;;;;;;;;
2290.0;2240.8;262143;262143;12389;;;;;;;;;;;;;;;;;;
2290.0;2243.1;;;;;;;;;;;;;;;;;-0.5226295;0.22888882;-0.27466658;;2083.8
2290.0;2243.1;;;;;;;;;;;;;;0.87148654;0.12952055;-0.41340372;;;;;2083.8
2290.0;2243.1;;;;;;;;;;;;;;;;;-0.69429606;0.28611103;-0.18311106;;2083.8
2290.0;2243.1;;;;;;;;;;;;;;0.87063205;0.12927641;-0.41340372;;;;;2083.8
2290.0;2243.1;;;;;;;;;;;;;;;;;-0.96133304;0.2517777;-0.12970367;;2093.5
2290.0;2243.1;;;;;;;;;;;;;;0.87331766;0.13013093;-0.41291544;;;;;2093.5
2290.0;2243.1;;;;;;;;;;;;;;;;;-1.1902219;0.20218512;-0.08011109;;2093.5
2290.0;2243.1;;;;;;;;;;;;;;0.87209696;0.12982574;-0.41261026;;;;;2093.5
2290.0;2243.1;;;;;;;;;;;;;;;;;-1.33137;0.25940734;0.08774071;;2103.1
2290.0;2243.1;;;;;;;;;;;;;;0.8734397;0.12988678;-0.41163367;;;;;2103.1
2290.0;2243.1;;;;;;;;;;;;;;;;;-1.453444;0.2784814;0.13351847;;2103.1
2290.0;2243.1;;;;;;;;;;;;;;0.87185276;0.12939848;-0.4116947;;;;;2103.1
2317.0;2246.3;;;;-0.35107806;0.9065858;0.17005159;;;;;;;;;;;;;;;
2317.0;2246.3;;;;-0.35062793;0.9062158;0.17045213;;;;;;;;;;;;;;;
2317.0;2246.3;;;;-0.35031894;0.905861;0.1707306;;;;;;;;;;;;;;;
2317.0;2246.3;;;;-0.35050586;0.9064523;0.1708603;;;;;;;;;;;;;;;
2317.0;2246.3;;;;-0.3501282;0.90674984;0.17078783;;;;;;;;;;;;;;;
2317.0;2246.5;;;;;;;;;;;;;-35;;;;;;;;
2317.0;2246.5;;;;;;;;;;;;;1883;;;;;;;;
2317.0;2246.5;;;;;;;;;;;;;1268;;;;;;;;
2317.0;2246.5;;;;;;;;;;;;;-8449;;;;;;;;
2317.0;2246.5;;;;;;;;;;;;;-24751;;;;;;;;
2317.0;2249.2;;;;;;;;;;-0.65233314;3.3532214;9.109776;;;;;;;;;
2317.0;2249.2;;;;;;;0.33643606;-0.91598254;0.22211371;;;;;;;;;;;;
2317.0;2249.2;;;;;;;;;;-0.62944424;3.295999;9.712516;;;;;;;;;
2317.0;2249.2;;;;;;;0.3386334;-0.9175695;0.22363964;;;;;;;;;;;;
2317.0;2256.3;;;;-0.34855655;0.9056741;0.17047884;;;;;;;;;;;;;;;
2317.0;2256.3;;;;-0.3483124;0.9065629;0.17078401;;;;;;;;;;;;;;;
2317.0;2256.3;;;;-0.35223392;0.90812314;0.17213441;;;;;;;;;;;;;;;
2317.0;2256.3;;;;-0.35184482;0.9084321;0.17269136;;;;;;;;;;;;;;;
2317.0;2256.3;;;;-0.34962848;0.90776455;0.17290498;;;;;;;;;;;;;;;
2317.0;2258.6;;;;;;;;;;-0.57222205;3.1624806;10.250404;;;;;;;;;
2317.0;2258.6;;;;;;;0.34156317;-0.918424;0.22266304;;;;;;;;;;;;
2317.0;2258.6;;;;;;;;;;-0.59892577;2.929777;10.834071;;;;;;;;;
2317.0;2258.6;;;;;;;0.34339428;-0.91885126;0.22376171;;;;;;;;;;;;
2317.0;2260.7;262143;262143;12395;;;;;;;;;;;;;;;;;;
2323.0;2266.3;;;;-0.35047534;0.90760434;0.17203905;;;;;;;;;;;;;;;
2323.0;2266.3;;;;-0.35102847;0.907673;0.17269136;;;;;;;;;;;;;;;
2323.0;2266.3;;;;-0.35029987;0.9074098;0.17354585;;;;;;;;;;;;;;;
2323.0;2266.3;;;;-0.35003665;0.9070169;0.17314912;;;;;;;;;;;;;;;
2323.0;2266.3;;;;-0.34961703;0.9066926;0.17332841;;;;;;;;;;;;;;;
2323.0;2268.3;;;;;;;;;;-0.5836665;2.7542956;11.345256;;;;;;;;;
2323.0;2268.3;;;;;;;0.3469344;-0.91830194;0.22186956;;;;;;;;;;;;
2323.0;2268.3;;;;;;;;;;-0.54933316;2.5864437;11.867886;;;;;;;;;
2323.0;2268.3;;;;;;;0.3503525;-0.91634876;0.22138126;;;;;;;;;;;;
2323.0;2273.5;;;;;;;;;;;;;;;;;-1.6403699;0.24796289;0.19837031;;2112.8
2323.0;2273.5;;;;;;;;;;;;;;0.87081516;0.12927641;-0.41084018;;;;;2112.8
2323.0;2273.5;;;;;;;;;;;;;;;;;-1.7166661;0.23651844;0.26322216;;2112.8
2323.0;2273.5;;;;;;;;;;;;;;0.87051;0.128605;-0.40949735;;;;;2112.8
2323.0;2273.5;;;;;;;;;;;;;;;;;-1.7662587;0.20981476;0.26703694;;2122.4
2323.0;2273.5;;;;;;;;;;;;;;0.8703879;0.1281167;-0.41096225;;;;;2122.4
2323.0;2273.5;;;;;;;;;;;;;;;;;-1.8845179;0.17548142;0.35859248;;2122.4
2323.0;2273.5;;;;;;;;;;;;;;0.8697775;0.12775049;-0.4130375;;;;;2122.4
2323.0;2273.5;;;;;;;;;;;;;;;;;-1.9379253;0.12588885;0.38148138;;2131.9
2323.0;2273.5;;;;;;;;;;;;;;0.8692892;0.1257973;-0.41376996;;;;;2131.9
2323.0;2273.5;;;;;;;;;;;;;;;;;-1.8959624;0.18692587;0.46540728;;2131.9
2323.0;2273.5;;;;;;;;;;;;;;0.86849576;0.12457655;-0.4140141;;;;;2131.9
2345.0;2276.2;;;;-0.34905246;0.9063264;0.17370988;;;;;;;;;;;;;;;
2345.0;2276.2;;;;-0.34876254;0.90607846;0.17361833;;;;;;;;;;;;;;;
2345.0;2276.2;;;;-0.34853747;0.9058038;0.17383577;;;;;;;;;;;;;;;
2345.0;2276.2;;;;-0.34806064;0.90493023;0.17379381;;;;;;;;;;;;;;;
2345.0;2276.2;;;;-0.34838107;0.9046937;0.17414476;;;;;;;;;;;;;;;
2345.0;2277.7;;;;;;;;;;-0.5798517;2.4796288;12.333293;;;;;;;;;
2345.0;2277.7;;;;;;;0.35236672;-0.91726434;0.219306;;;;;;;;;;;;
2345.0;2277.7;;;;;;;;;;-0.62944424;2.357555;12.714774;;;;;;;;;
2345.0;2277.7;;;;;;;0.35303813;-0.9180578;0.22052675;;;;;;;;;;;;
2345.0;2280.7;262143;262143;12394;;;;;;;;;;;;;;;;;;
2345.0;2286.3;;;;-0.34819415;0.9041711;0.17427064;;;;;;;;;;;;;;;
2345.0;2286.3;;;;-0.34746173;0.90350354;0.1741295;;;;;;;;;;;;;;;
2345.0;2286.3;;;;-0.34712604;0.9026185;0.17362596;;;;;;;;;;;;;;;
