patientId;holterMac;flexMac;;;;;;;;;;;;;;;;;;;;
stairsup;CA:F3:0B:1E:33:78;D3:4A:5C:52:80:78;;;;;;;;;;;;;;;;;;;;
receivedTimeStamp;timeStamp;red;ir;green;adxl_accX;adxl_accY;adxl_accZ;lsm_accelX;lsm_accelY;lsm_accelZ;lsm_gyroX;lsm_gyroY;lsm_gyroZ;ecg;flex_lsm_accelX;flex_lsm_accelY;flex_lsm_accelZ;flex_lsm_gyroX;flex_lsm_gyroY;flex_lsm_gyroZ;flex_cmd;flexTimeStamp
312.0;216.1;;;;;;;;;;;;;;;;;;;;17;0.1
312.0;216.1;;;;;;;;;;;;;;;;;12.924589;0.90029603;1.5678884;;127.5
312.0;216.1;;;;;;;;;;;;;;0.83291113;0.084902495;-0.21625416;;;;;127.5
312.0;216.1;;;;;;;;;;;;;;;;;-6.061739;-16.685995;-6.4851832;;127.5
312.0;216.1;;;;;;;;;;;;;;0.85097814;0.03955199;-0.25873592;;;;;127.5
312.0;216.1;;;;;;;;;;;;;;;;;-62.509537;-84.21583;-58.1988;;137.1
312.0;216.1;;;;;;;;;;;;;;0.84841454;-0.020569475;-0.29511398;;;;;137.1
312.0;216.1;;;;;;;;;;;;;;;;;-121.99011;-124.988556;-118.064674;;137.1
312.0;216.1;;;;;;;;;;;;;;0.8529313;-0.09143346;-0.3065279;;;;;137.1
373.0;216.9;;;;;;;;;;;;;;;;;-57.18024;-124.794;-65.675835;;146.7
373.0;216.9;;;;;;;;;;;;;;0.8662374;-0.14880826;-0.28736228;;;;;146.7
373.0;216.9;;;;;;;;;;;;;;;;;11.14307;-124.11496;-0.3013703;;146.7
373.0;216.9;;;;;;;;;;;;;;0.8631245;-0.22046572;-0.27295756;;;;;146.7
373.0;216.9;;;;;;;;;;;;;;;;;8.117924;-93.13486;16.003143;;156.4
373.0;216.9;;;;;;;;;;;;;;0.85763115;-0.28217414;-0.25879696;;;;;156.4
373.0;216.9;;;;;;;;;;;;;;;;;1.8501847;-0.011444441;45.144505;;156.4
373.0;216.9;;;;;;;;;;;;;;0.85909605;-0.33314005;-0.25531784;;;;;156.4
373.0;216.9;;;;;;;;;;;;;;;;;2.578814;6.2791834;48.089542;;166.0
373.0;216.9;;;;;;;;;;;;;;0.8670919;-0.38325143;-0.26337475;;;;;166.0
373.0;216.9;;;;;;;;;;;;;;;;;4.7875915;4.634999;48.66558;;166.0
373.0;216.9;;;;;;;;;;;;;;0.8770409;-0.4008301;-0.27655873;;;;;166.0
373.0;276.5;;;;;;;;;;;;;;;;;7.3320723;2.967925;49.462875;;175.7
373.0;276.5;;;;;;;;;;;;;;0.88894314;-0.41639453;-0.2794885;;;;;175.7
373.0;276.5;;;;;;;;;;;;;;;;;10.6814785;0.34714803;49.993134;;175.7
373.0;276.5;;;;;;;;;;;;;;0.89687794;-0.43324077;-0.27509385;;;;;175.7
373.0;276.5;;;;;;;;;;;;;;;;;14.694663;-3.2235177;50.49669;;185.2
373.0;276.5;;;;;;;;;;;;;;0.9047517;-0.44825587;-0.2804651;;;;;185.2
373.0;276.5;;;;;;;;;;;;;;;;;19.627216;-6.263924;50.737022;;185.2
373.0;276.5;;;;;;;;;;;;;;0.90908533;-0.46259958;-0.2832728;;;;;185.2
373.0;276.5;;;;;;;;;;;;;;;;;24.750511;-8.40022;50.611134;;194.9
373.0;276.5;;;;;;;;;;;;;;0.9275796;-0.4640034;-0.26276436;;;;;194.9
373.0;276.5;;;;;;;;;;;;;;;;;29.557177;-9.647664;50.923946;;194.9
373.0;276.5;;;;;;;;;;;;;;0.92281866;-0.45081943;-0.24597919;;;;;194.9
437.0;277.3;;;;;;;;;;;;;;;;;33.742027;-10.414441;51.25202;;204.6
437.0;277.3;;;;;;;;;;;;;;0.89455855;-0.44428846;-0.21613209;;;;;204.6
437.0;277.3;;;;;;;;;;;;;;;;;37.015137;-13.111515;50.847652;;204.6
437.0;277.3;;;;;;;;;;;;;;0.89980775;-0.4229255;-0.2103946;;;;;204.6
437.0;277.3;;;;;;;;;;;;;;;;;40.11658;-15.850552;50.828575;;214.2
437.0;277.3;;;;;;;;;;;;;;0.92410046;-0.4046144;-0.21051668;;;;;214.2
437.0;277.3;;;;;;;;;;;;;;;;;42.87469;-17.532883;50.93539;;214.2
437.0;277.3;;;;;;;;;;;;;;0.9419843;-0.38111514;-0.22418897;;;;;214.2
437.0;277.3;;;;;;;;;;;;;;;;;45.609913;-18.505661;50.72558;;223.8
437.0;277.3;;;;;;;;;;;;;;0.969573;-0.33851132;-0.22412793;;;;;223.8
437.0;277.3;;;;;;;;;;;;;;;;;47.246468;-19.318218;50.49669;;223.8
437.0;277.3;;;;;;;;;;;;;;0.9731742;-0.27777946;-0.24231696;;;;;223.8
437.0;336.8;;;;;;;;;;;;;;;;;47.299873;-19.066439;50.03891;;233.4
437.0;336.8;;;;;;;;;;;;;;0.9821467;-0.2318186;-0.22962126;;;;;233.4
437.0;336.8;;;;;;;;;;;;;;;;;45.53743;-19.333477;49.031803;;233.4
437.0;336.8;;;;;;;;;;;;;;1.0014954;-0.17358929;-0.24530777;;;;;233.4
437.0;336.8;;;;;;;;;;;;;;;;;43.393505;-17.47566;48.22306;;243.1
437.0;336.8;;;;;;;;;;;;;;0.9944151;-0.17206335;-0.24860378;;;;;243.1
437.0;336.8;;;;;;;;;;;;;;;;;41.4098;-15.076143;46.941284;;243.1
437.0;336.8;;;;;;;;;;;;;;0.982696;-0.12042604;-0.24890897;;;;;243.1
437.0;336.8;;;;;;;;;;;;;;;;;38.445694;-12.447737;46.32328;;252.7
437.0;336.8;;;;;;;;;;;;;;0.95254374;-0.08471938;-0.2400586;;;;;252.7
437.0;336.8;;;;;;;;;;;;;;;;;34.245583;-10.750145;45.65569;;252.7
437.0;336.8;;;;;;;;;;;;;;0.92501605;-0.05139317;-0.23834956;;;;;252.7
496.0;337.6;;;;;;;;;;;;;;;;;30.156101;-9.716331;45.5298;;262.3
496.0;337.6;;;;;;;;;;;;;;0.900235;-0.034669027;-0.24512467;;;;;262.3
496.0;337.6;;;;;;;;;;;;;;;;;26.932585;-8.697775;44.763023;;262.3
496.0;337.6;;;;;;;;;;;;;;0.8808252;-0.02294992;-0.25336465;;;;;262.3
496.0;337.6;;;;;;;;;;;;;;;;;24.029512;-7.5457015;44.568466;;271.9
496.0;337.6;;;;;;;;;;;;;;0.868862;-0.015991699;-0.2503128;;;;;271.9
496.0;337.6;;;;;;;;;;;;;;;;;20.561846;-7.8089237;44.568466;;271.9
496.0;337.6;;;;;;;;;;;;;;0.8674581;-0.012756737;-0.25659963;;;;;271.9
496.0;337.6;;;;;;;;;;;;;;;;;16.743217;-7.3244424;44.160286;;281.5
496.0;337.6;;;;;;;;;;;;;;0.87118137;-0.0052491836;-0.24823755;;;;;281.5
496.0;337.6;;;;;;;;;;;;;;;;;11.88696;-6.5271463;44.198433;;281.5
496.0;337.6;;;;;;;;;;;;;;0.87331766;-0.0040284432;-0.22882779;;;;;281.5
496.0;405.5;;;;;;;;;;;;;;;;;7.080294;-6.2982574;44.259468;;291.2
496.0;405.5;;;;;;;;;;;;;;0.88015383;-0.020447401;-0.21063875;;;;;291.2
496.0;405.5;;;;;;;;;;;;;;;;;3.151036;-6.0960727;44.381542;;291.2
496.0;405.5;;;;;;;;;;;;;;0.88631856;-0.030945769;-0.1991638;;;;;291.2
496.0;405.5;;;;;;;;;;;;;;;;;0.7248146;-6.2524796;44.75921;;300.8
496.0;405.5;;;;;;;;;;;;;;0.8924833;-0.04199347;-0.20685446;;;;;300.8
496.0;405.5;;;;;;;;;;;;;;;;;-0.8926664;-6.366924;45.3238;;300.8
496.0;405.5;;;;;;;;;;;;;;0.9036531;-0.038453322;-0.22278512;;;;;300.8
496.0;405.5;;;;;;;;;;;;;;;;;-2.704703;-6.3859982;45.976135;;310.4
496.0;405.5;;;;;;;;;;;;;;0.90340894;-0.05719169;-0.2451857;;;;;310.4
496.0;405.5;;;;;;;;;;;;;;;;;-5.2072206;-5.916776;46.53691;;310.4
496.0;405.5;;;;;;;;;;;;;;0.9006012;-0.06292917;-0.26197088;;;;;310.4
556.0;406.7;;;;;;;;;;;;;;;;;-8.915219;-5.218665;47.143467;;320.1
556.0;406.7;;;;;;;;;;;;;;0.89834285;-0.06427198;-0.26618245;;;;;320.1
556.0;406.7;;;;;;;;;;;;;;;;;-13.840144;-4.791406;47.978912;;320.1
556.0;406.7;;;;;;;;;;;;;;0.9179357;-0.02600177;-0.25336465;;;;;320.1
556.0;406.7;;;;;;;;;;;;;;;;;-21.09592;-4.40611;49.29121;;329.7
556.0;406.7;;;;;;;;;;;;;;0.9189123;-0.06750695;-0.2602008;;;;;329.7
556.0;406.7;;;;;;;;;;;;;;;;;-24.88403;-2.5940733;50.176243;;329.7
556.0;406.7;;;;;;;;;;;;;;0.92880034;-0.128605;-0.22272408;;;;;329.7
556.0;406.7;;;;;;;;;;;;;;;;;-30.00351;-1.9264809;50.55391;;339.4
556.0;406.7;;;;;;;;;;;;;;0.9427778;-0.13043611;-0.20563371;;;;;339.4
556.0;406.7;;;;;;;;;;;;;;;;;-33.92132;-1.3237404;51.034576;;339.4
556.0;406.7;;;;;;;;;;;;;;0.9336833;-0.14026307;-0.19275491;;;;;339.4
556.0;472.6;;;;;;;;;;;;;;;;;-37.179176;-2.685629;51.87765;;349.0
556.0;472.6;;;;;;;;;;;;;;0.95669425;-0.12756737;-0.18573564;;;;;349.0
556.0;472.6;;;;;;;;;;;;;;;;;-39.944912;-3.6355176;52.686394;;349.0
556.0;472.6;;;;;;;;;;;;;;0.96316415;-0.12024293;-0.1939146;;;;;349.0
556.0;472.6;;;;;;;;;;;;;;;;;-40.36073;-4.360332;53.51039;;358.7
556.0;472.6;;;;;;;;;;;;;;0.9603565;-0.13251136;-0.20325327;;;;;358.7
556.0;472.6;;;;;;;;;;;;;;;;;-41.02069;-5.3979616;53.62102;;358.7
556.0;472.6;;;;;;;;;;;;;;0.95999026;-0.109622486;-0.2280343;;;;;358.7
556.0;472.6;;;;;;;;;;;;;;;;;-43.519398;-4.135258;53.441727;;368.3
556.0;472.6;;;;;;;;;;;;;;0.9344157;-0.11566515;-0.23706779;;;;;368.3
556.0;472.6;;;;;;;;;;;;;;;;;-43.473618;-4.0704064;53.559986;;368.3
556.0;472.6;;;;;;;;;;;;;;0.90499586;-0.14764854;-0.22046572;;;;;368.3
677.0;473.4;;;;;;;;;;;;;;;;;-43.38969;-7.194739;53.61339;;378.0
677.0;473.4;;;;;;;;;;;;;;0.9175085;-0.16559343;-0.23328349;;;;;378.0
677.0;473.4;;;;;;;;;;;;;;;;;-42.97769;-9.582812;53.8728;;378.0
677.0;473.4;;;;;;;;;;;;;;0.9289224;-0.17993714;-0.25501266;;;;;378.0
677.0;473.4;;;;;;;;;;;;;;;;;-41.6921;-9.838404;53.659172;;387.7
677.0;473.4;;;;;;;;;;;;;;0.92837304;-0.19318217;-0.25977355;;;;;387.7
677.0;473.4;;;;;;;;;;;;;;;;;-38.407547;-9.6667385;52.51091;;387.7
677.0;473.4;;;;;;;;;;;;;;0.9320963;-0.20587787;-0.25232702;;;;;387.7
677.0;473.4;;;;;;;;;;;;;;;;;-34.108246;-8.560442;50.687428;;397.3
677.0;473.4;;;;;;;;;;;;;;0.92538226;-0.19684438;-0.23865475;;;;;397.3
677.0;473.4;;;;;;;;;;;;;;;;;-29.152807;-8.69396;48.867764;;397.3
677.0;473.4;;;;;;;;;;;;;;0.9234901;-0.17462692;-0.23114718;;;;;397.3
677.0;578.3;;;;;;;;;;;;;;;;;-22.724844;-10.601367;47.647022;;407.0
677.0;578.3;;;;;;;;;;;;;;0.93740654;-0.16705832;-0.2496414;;;;;407.0
677.0;578.3;;;;;;;;;;;;;;;;;-15.316477;-11.135441;45.838802;;407.0
677.0;578.3;;;;;;;;;;;;;;0.94857633;-0.15558337;-0.25782037;;;;;407.0
677.0;578.3;;;;;;;;;;;;;;;;;-9.716331;-11.936552;43.9581;;416.6
677.0;578.3;;;;;;;;;;;;;;0.95687735;-0.13666189;-0.27527696;;;;;416.6
677.0;578.3;;;;;;;;;;;;;;;;;-5.9053316;-12.115849;42.09647;;416.6
677.0;578.3;;;;;;;;;;;;;;0.9681692;-0.119083226;-0.2896817;;;;;416.6
677.0;578.3;;;;;;;;;;;;;;;;;-3.3417768;-11.108737;40.555283;;426.2
677.0;578.3;;;;;;;;;;;;;;0.9769585;-0.10858486;-0.29523605;;;;;426.2
677.0;578.3;;;;;;;;;;;;;;;;;0.25940734;-10.376293;39.487133;;426.2
677.0;578.3;;;;;;;;;;;;;;0.9706717;-0.11181982;-0.29194006;;;;;426.2
681.0;579.5;;;;;;;;;;;;;;;;;4.425184;-10.288552;37.923065;;435.7
681.0;579.5;;;;;;;;;;;;;;0.96371347;-0.09900205;-0.29535812;;;;;435.7
681.0;579.5;;;;;;;;;;;;;;;;;8.095035;-10.0177;36.36662;;435.7
681.0;579.5;;;;;;;;;;;;;;0.95669425;-0.074221015;-0.29407635;;;;;435.7
681.0;579.5;;;;;;;;;;;;;;;;;11.791589;-10.639516;35.06195;;445.3
681.0;579.5;;;;;;;;;;;;;;0.961272;-0.048402358;-0.30744347;;;;;445.3
681.0;579.5;;;;;;;;;;;;;;;;;15.625477;-9.82696;33.310955;;445.3
681.0;579.5;;;;;;;;;;;;;;0.9621876;-0.017273476;-0.31336406;;;;;445.3
681.0;579.5;;;;;;;;;;;;;;;;;19.28007;-8.70159;31.411175;;454.9
681.0;579.5;;;;;;;;;;;;;;0.9486984;0.012268441;-0.3114719;;;;;454.9
681.0;579.5;;;;;;;;;;;;;;;;;21.607105;-7.5189977;29.450363;;454.9
681.0;579.5;;;;;;;;;;;;;;0.93990904;0.03564562;-0.30195013;;;;;454.9
681.0;580.2;;;;;;;;;;;;;;;;;21.843624;-6.679739;27.2454;;464.5
681.0;580.2;;;;;;;;;;;;;;0.9317301;0.06402783;-0.28748435;;;;;464.5
681.0;580.2;;;;;;;;;;;;;;;;;20.413067;-6.408887;25.078585;;464.5
681.0;580.2;;;;;;;;;;;;;;0.9191565;0.092837304;-0.2893765;;;;;464.5
681.0;580.2;;;;;;;;;;;;;;;;;18.581957;-6.023591;23.04529;;474.1
681.0;580.2;;;;;;;;;;;;;;0.9124424;0.11572619;-0.28534806;;;;;474.1
681.0;580.2;;;;;;;;;;;;;;;;;16.964476;-5.569628;21.141697;;474.1
681.0;580.2;;;;;;;;;;;;;;0.9158605;0.13556322;-0.27240822;;;;;474.1
681.0;580.2;;;;;;;;;;;;;;;;;15.274514;-4.8142953;18.745995;;483.7
681.0;580.2;;;;;;;;;;;;;;0.92190313;0.16064943;-0.26551104;;;;;483.7
681.0;580.2;;;;;;;;;;;;;;;;;14.2941065;-3.784295;16.273996;;483.7
681.0;580.2;;;;;;;;;;;;;;0.9306314;0.17908262;-0.25702688;;;;;483.7
736.0;581.1;;;;;;;;;;;;;;;;;13.771477;-2.8611102;13.775291;;493.4
736.0;581.1;;;;;;;;;;;;;;0.9346599;0.18921477;-0.2414014;;;;;493.4
736.0;581.1;;;;;;;;;;;;;;;;;12.661366;-2.2278512;10.97522;;493.4
736.0;581.1;;;;;;;;;;;;;;0.9443037;0.19721061;-0.22663045;;;;;493.4
736.0;581.1;;;;;;;;;;;;;;;;;10.952331;-1.5106663;8.369701;;503.1
736.0;581.1;;;;;;;;;;;;;;0.9582812;0.19330424;-0.21100497;;;;;503.1
736.0;581.1;;;;;;;;;;;;;;;;;10.177923;-0.7705924;5.996887;;503.1
736.0;581.1;;;;;;;;;;;;;;0.9717094;0.17981505;-0.20343639;;;;;503.1
736.0;581.1;;;;;;;;;;;;;;;;;9.205146;-0.12207404;3.707999;;512.8
736.0;581.1;;;;;;;;;;;;;;0.9908139;0.15540025;-0.2038026;;;;;512.8
736.0;581.1;;;;;;;;;;;;;;;;;7.637257;-0.049592577;1.5182959;;512.8
736.0;581.1;;;;;;;;;;;;;;1.0079653;0.13843197;-0.22620319;;;;;512.8
736.0;638.5;;;;;;;;;;;;;;;;;5.4780726;-1.5907773;-0.44251838;;522.4
736.0;638.5;;;;;;;;;;;;;;1.0172429;0.14044619;-0.27607045;;;;;522.4
736.0;638.5;;;;;;;;;;;;;;;;;-0.51118505;-2.7428513;-2.113407;;522.4
736.0;638.5;;;;;;;;;;;;;;1.0632648;0.13245033;-0.31257057;;;;;522.4
736.0;638.5;;;;;;;;;;;;;;;;;-10.952331;1.4229255;-3.1853695;;532.1
736.0;638.5;;;;;;;;;;;;;;1.1394391;0.11578722;-0.2849208;;;;;532.1
736.0;638.5;;;;;;;;;;;;;;;;;-17.170475;4.058962;-4.7036653;;532.1
736.0;638.5;;;;;;;;;;;;;;1.2493057;0.100283824;-0.29969177;;;;;532.1
736.0;638.5;;;;;;;;;;;;;;;;;-14.362774;4.1085544;-7.3816648;;541.5
736.0;638.5;;;;;;;;;;;;;;1.358501;0.036805324;-0.38569292;;;;;541.5
736.0;638.5;;;;;;;;;;;;;;;;;-6.7293315;5.4628134;-10.433516;;541.5
736.0;638.5;;;;;;;;;;;;;;1.3559374;-0.049806207;-0.49427778;;;;;541.5
794.0;639.2;;;;;;;;;;;;;;;;;-1.8501847;12.958922;-13.386182;;551.1
794.0;639.2;;;;;;;;;;;;;;1.3132725;-0.040711693;-0.44935453;;;;;551.1
794.0;639.2;;;;;;;;;;;;;;;;;2.5254066;22.686697;-15.232551;;551.1
794.0;639.2;;;;;;;;;;;;;;1.3494064;-0.0075685903;-0.16760765;;;;;551.1
794.0;639.2;;;;;;;;;;;;;;;;;5.83285;26.478622;-17.6664;;560.8
794.0;639.2;;;;;;;;;;;;;;1.3818781;0.019104587;0.100405894;;;;;560.8
794.0;639.2;;;;;;;;;;;;;;;;;7.133702;20.29481;-21.71392;;560.8
794.0;639.2;;;;;;;;;;;;;;1.3616749;0.0380871;0.07483139;;;;;560.8
794.0;639.2;;;;;;;;;;;;;;;;;7.0574055;15.549181;-26.165808;;570.4
794.0;639.2;;;;;;;;;;;;;;1.3214514;0.0507828;-0.16370128;;;;;570.4
794.0;639.2;;;;;;;;;;;;;;;;;4.970702;20.733513;-30.434584;;570.4
794.0;639.2;;;;;;;;;;;;;;1.2698752;0.06555376;-0.23169653;;;;;570.4
794.0;698.5;;;;;;;;;;;;;;;;;7.3931093;25.66225;-34.745323;;580.0
794.0;698.5;;;;;;;;;;;;;;1.2405775;0.08636738;-0.12756737;;;;;580.0
794.0;698.5;;;;;;;;;;;;;;;;;15.537736;28.389843;-40.01358;;580.0
794.0;698.5;;;;;;;;;;;;;;1.2490005;0.119083226;-0.037720878;;;;;580.0
794.0;698.5;;;;;;;;;;;;;;;;;24.96414;35.44343;-46.41865;;589.6
794.0;698.5;;;;;;;;;;;;;;1.2354503;0.15527818;0.04571673;;;;;589.6
794.0;698.5;;;;;;;;;;;;;;;;;32.15888;42.54662;-53.380688;;589.6
794.0;698.5;;;;;;;;;;;;;;1.2110355;0.18030335;0.09955138;;;;;589.6
794.0;698.5;;;;;;;;;;;;;;;;;38.20536;46.689503;-60.018463;;599.3
794.0;698.5;;;;;;;;;;;;;;1.2229987;0.18463698;0.09521775;;;;;599.3
794.0;698.5;;;;;;;;;;;;;;;;;43.89325;51.190983;-67.197945;;599.3
794.0;698.5;;;;;;;;;;;;;;1.2359996;0.18738365;0.060914945;;;;;599.3
869.0;699.3;;;;;;;;;;;;;;;;;47.20832;54.124577;-74.43083;;609.0
869.0;699.3;;;;;;;;;;;;;;1.231727;0.13690603;-0.017761772;;;;;609.0
869.0;699.3;;;;;;;;;;;;;;;;;47.830135;59.472946;-82.804344;;609.0
869.0;699.3;;;;;;;;;;;;;;1.241493;0.083254494;-0.08471938;;;;;609.0
869.0;699.3;;;;;;;;;;;;;;;;;49.123356;71.68798;-91.58223;;618.7
869.0;699.3;;;;;;;;;;;;;;1.1862545;0.04834132;-0.037965026;;;;;618.7
869.0;699.3;;;;;;;;;;;;;;;;;51.858578;81.87353;-98.45653;;618.7
869.0;699.3;;;;;;;;;;;;;;1.0643635;0.021546068;0.0717185;;;;;618.7
869.0;699.3;;;;;;;;;;;;;;;;;52.68258;77.96335;-103.71334;;628.3
869.0;699.3;;;;;;;;;;;;;;0.9895932;-0.008545183;-0.009704886;;;;;628.3
869.0;699.3;;;;;;;;;;;;;;;;;52.86569;75.88428;-109.03501;;628.3
869.0;699.3;;;;;;;;;;;;;;0.9062166;-0.0347911;-0.10144353;;;;;628.3
869.0;713.7;;;;;;;;;;;;;;;;;48.13532;72.943054;-115.73;;637.9
869.0;713.7;;;;;;;;;;;;;;0.8476211;-0.050355542;-0.16821803;;;;;637.9
869.0;713.7;;;;;;;;;;;;;;;;;41.009247;66.26713;-122.62337;;637.9
869.0;713.7;;;;;;;;;;;;;;0.81643116;-0.06268502;-0.24671163;;;;;637.9
869.0;713.7;;;;;;;;;;;;;;;;;36.576435;63.77987;-124.95422;;647.6
869.0;713.7;;;;;;;;;;;;;;0.723777;-0.07428205;-0.24591815;;;;;647.6
869.0;713.7;;;;;;;;;;;;;;;;;34.421062;55.56276;-124.988556;;647.6
869.0;713.7;;;;;;;;;;;;;;0.65266883;-0.10168768;-0.2547075;;;;;647.6
869.0;713.7;;;;;;;;;;;;;;;;;31.781212;45.339058;-124.988556;;657.3
869.0;713.7;;;;;;;;;;;;;;0.662862;-0.13702811;-0.3045137;;;;;657.3
869.0;713.7;;;;;;;;;;;;;;;;;27.333141;42.83273;-124.988556;;657.3
869.0;713.7;;;;;;;;;;;;;;0.67885375;-0.16858424;-0.27637562;;;;;657.3
912.0;758.9;;;;;;;;;;;;;;;;;25.887325;38.937805;-124.988556;;666.9
912.0;758.9;;;;;;;;;;;;;;0.69466233;-0.19306009;-0.23029268;;;;;666.9
912.0;758.9;;;;;;;;;;;;;;;;;31.09073;30.377361;-124.988556;;666.9
912.0;758.9;;;;;;;;;;;;;;0.7431257;-0.22266304;-0.22827846;;;;;666.9
912.0;758.9;;;;;;;;;;;;;;;;;41.001617;18.337809;-124.988556;;676.5
912.0;758.9;;;;;;;;;;;;;;0.8352916;-0.24762718;-0.2677694;;;;;676.5
912.0;758.9;;;;;;;;;;;;;;;;;54.555653;4.5854063;-124.988556;;676.5
912.0;758.9;;;;;;;;;;;;;;0.96298105;-0.29169592;-0.33533737;;;;;676.5
912.0;758.9;;;;;;;;;;;;;;;;;71.71087;-6.5691094;-124.988556;;686.2
912.0;758.9;;;;;;;;;;;;;;1.1034882;-0.3086642;-0.35724968;;;;;686.2
912.0;758.9;;;;;;;;;;;;;;;;;84.3379;-13.30607;-124.95422;;686.2
912.0;758.9;;;;;;;;;;;;;;1.2998444;-0.333079;-0.34968108;;;;;686.2
912.0;766.7;;;;;;;;;;;;;;;;;89.13312;-9.918515;-122.737816;;695.9
912.0;766.7;;;;;;;;;;;;;;1.5117038;-0.39783928;-0.27808467;;;;;695.9
912.0;766.7;;;;;;;;;;;;;;;;;87.462234;-4.547258;-117.04993;;695.9
912.0;766.7;;;;;;;;;;;;;;1.7087923;-0.44508195;-0.19605091;;;;;695.9
912.0;766.7;;;;;;;;;;;;;;;;;88.53038;-5.344554;-115.17686;;705.4
912.0;766.7;;;;;;;;;;;;;;1.7948545;-0.44801173;-0.2196112;;;;;705.4
912.0;766.7;;;;;;;;;;;;;;;;;93.56975;-8.041628;-115.56596;;705.4
912.0;766.7;;;;;;;;;;;;;;1.7946104;-0.346202;-0.3270974;;;;;705.4
912.0;766.7;;;;;;;;;;;;;;;;;96.54149;-6.8437757;-114.38338;;715.1
912.0;766.7;;;;;;;;;;;;;;1.7619556;-0.24256112;-0.3996704;;;;;715.1
912.0;766.7;;;;;;;;;;;;;;;;;90.68956;-0.8507035;-115.58885;;715.1
912.0;766.7;;;;;;;;;;;;;;1.691763;-0.18475905;-0.42909023;;;;;715.1
974.0;819.2;;;;;;;;;;;;;;;;;78.852196;13.412886;-119.59441;;724.8
974.0;819.2;;;;;;;;;;;;;;1.5096896;-0.16144292;-0.36152226;;;;;724.8
974.0;819.2;;;;;;;;;;;;;;;;;71.43239;23.171179;-123.73348;;724.8
974.0;819.2;;;;;;;;;;;;;;1.2676169;-0.13525803;-0.23151341;;;;;724.8
974.0;819.2;;;;;;;;;;;;;;;;;65.62624;19.676807;-124.98474;;734.5
974.0;819.2;;;;;;;;;;;;;;1.1518906;-0.07885983;-0.119449444;;;;;734.5
974.0;819.2;;;;;;;;;;;;;;;;;57.576984;10.738701;-124.988556;;734.5
974.0;819.2;;;;;;;;;;;;;;1.0986053;-0.08685568;-0.12884915;;;;;734.5
974.0;819.2;;;;;;;;;;;;;;;;;49.92065;9.941404;-124.782555;;744.2
974.0;819.2;;;;;;;;;;;;;;1.0287789;-0.13843197;-0.08575701;;;;;744.2
974.0;819.2;;;;;;;;;;;;;;;;;44.69817;5.939665;-123.416855;;744.2
974.0;819.2;;;;;;;;;;;;;;0.9768975;-0.18750572;-0.06616413;;;;;744.2
974.0;826.6;;;;;;;;;;;;;;;;;40.42558;0.019074067;-120.689255;;753.8
974.0;826.6;;;;;;;;;;;;;;0.9895322;-0.15344706;-0.08905301;;;;;753.8
974.0;826.6;;;;;;;;;;;;;;;;;34.66521;-3.0175178;-116.61123;;753.8
974.0;826.6;;;;;;;;;;;;;;1.0121158;-0.10998871;-0.13251136;;;;;753.8
974.0;826.6;;;;;;;;;;;;;;;;;28.721733;-1.4496292;-112.38441;;763.4
974.0;826.6;;;;;;;;;;;;;;1.0027162;-0.11792352;-0.1495407;;;;;763.4
974.0;826.6;;;;;;;;;;;;;;;;;23.804438;1.0986663;-108.64971;;763.4
974.0;826.6;;;;;;;;;;;;;;0.9930723;-0.13324381;-0.15356915;;;;;763.4
974.0;826.6;;;;;;;;;;;;;;;;;19.959105;4.6578875;-105.861084;;773.0
974.0;826.6;;;;;;;;;;;;;;0.97158724;-0.11413923;-0.14252144;;;;;773.0
974.0;826.6;;;;;;;;;;;;;;;;;15.552996;8.29722;-102.767265;;773.0
974.0;826.6;;;;;;;;;;;;;;0.9335612;-0.14398633;-0.12573627;;;;;773.0
1035.0;879.4;;;;;;;;;;;;;;;;;11.829738;10.879849;-99.10504;;782.6
1035.0;879.4;;;;;;;;;;;;;;0.8942534;-0.17139195;-0.107181005;;;;;782.6
1035.0;879.4;;;;;;;;;;;;;;;;;7.4541464;11.1507;-96.16764;;782.6
1035.0;879.4;;;;;;;;;;;;;;0.9322794;-0.12652974;-0.09131138;;;;;782.6
1035.0;879.4;;;;;;;;;;;;;;;;;1.495407;11.089663;-91.69668;;792.2
1035.0;879.4;;;;;;;;;;;;;;1.0020448;-0.21234779;-0.118655965;;;;;792.2
1035.0;879.4;;;;;;;;;;;;;;;;;-2.3041475;14.030885;-85.38316;;792.2
1035.0;879.4;;;;;;;;;;;;;;1.0390942;-0.27369;-0.14716025;;;;;792.2
1035.0;879.4;;;;;;;;;;;;;;;;;-6.5271463;20.428328;-82.47627;;801.7
1035.0;879.4;;;;;;;;;;;;;;0.8997467;-0.23828852;-0.07751702;;;;;801.7
1035.0;879.4;;;;;;;;;;;;;;;;;-14.114811;15.720848;-78.55464;;801.7
1035.0;879.4;;;;;;;;;;;;;;0.88174075;-0.2285226;-0.03991821;;;;;801.7
1035.0;886.9;;;;;;;;;;;;;;;;;-21.057772;6.939146;-72.72561;;811.3
1035.0;886.9;;;;;;;;;;;;;;0.9983215;-0.2639851;-0.11828975;;;;;811.3
1035.0;886.9;;;;;;;;;;;;;;;;;-27.138586;7.694479;-66.896576;;811.3
1035.0;886.9;;;;;;;;;;;;;;1.0036317;-0.2755211;-0.14093448;;;;;811.3
1035.0;886.9;;;;;;;;;;;;;;;;;-35.191654;10.280923;-62.29972;;820.9
1035.0;886.9;;;;;;;;;;;;;;0.9207434;-0.25244913;-0.084353164;;;;;820.9
1035.0;886.9;;;;;;;;;;;;;;;;;-43.412582;8.545182;-56.939907;;820.9
1035.0;886.9;;;;;;;;;;;;;;0.8731956;-0.23932615;-0.053956725;;;;;820.9
1035.0;886.9;;;;;;;;;;;;;;;;;-50.20676;6.9429607;-50.03128;;830.5
1035.0;886.9;;;;;;;;;;;;;;0.91531116;-0.2278512;-0.09338664;;;;;830.5
1035.0;886.9;;;;;;;;;;;;;;;;;-54.93713;13.859218;-43.328655;;830.5
1035.0;886.9;;;;;;;;;;;;;;0.86111027;-0.2064272;-0.07428205;;;;;830.5
1096.0;940.2;;;;;;;;;;;;;;;;;-58.15302;19.009216;-37.923065;;840.1
1096.0;940.2;;;;;;;;;;;;;;0.8067873;-0.17902158;-0.015503403;;;;;840.1
1096.0;940.2;;;;;;;;;;;;;;;;;-61.532944;18.63918;-32.79214;;840.1
1096.0;940.2;;;;;;;;;;;;;;0.77712333;-0.14728233;0.023682363;;;;;840.1
1096.0;940.2;;;;;;;;;;;;;;;;;-66.789764;18.196661;-28.080843;;849.7
1096.0;940.2;;;;;;;;;;;;;;0.74037904;-0.14300974;0.046632282;;;;;849.7
1096.0;940.2;;;;;;;;;;;;;;;;;-73.99594;18.482773;-22.8164;;849.7
1096.0;940.2;;;;;;;;;;;;;;0.73628956;-0.13428144;0.05835139;;;;;849.7
1096.0;940.2;;;;;;;;;;;;;;;;;-84.4142;20.77929;-17.582476;;859.2
1096.0;940.2;;;;;;;;;;;;;;0.7275002;-0.11969359;0.08703879;;;;;859.2
1096.0;940.2;;;;;;;;;;;;;;;;;-96.98401;23.430586;-13.084811;;859.2
1096.0;940.2;;;;;;;;;;;;;;0.73262733;-0.093142495;0.11938841;;;;;859.2
1096.0;941.0;;;;;;;;;;;;;;;;;-109.30586;25.360882;-8.8999605;;868.8
1096.0;941.0;;;;;;;;;;;;;;0.71883297;-0.07000946;0.12317271;;;;;868.8
1096.0;941.0;;;;;;;;;;;;;;;;;-119.47615;28.859066;-5.1347394;;868.8
1096.0;941.0;;;;;;;;;;;;;;0.6600543;-0.07049776;0.13208412;;;;;868.8
1096.0;941.0;;;;;;;;;;;;;;;;;-123.87081;27.203438;-1.6289254;;878.4
1096.0;941.0;;;;;;;;;;;;;;0.6311838;-0.081667535;0.08905301;;;;;878.4
1096.0;941.0;;;;;;;;;;;;;;;;;-122.93619;21.855068;2.1973326;;878.4
1096.0;941.0;;;;;;;;;;;;;;0.6326487;-0.09021272;0.024048585;;;;;878.4
1096.0;941.0;;;;;;;;;;;;;;;;;-118.54153;18.635365;6.706443;;888.1
1096.0;941.0;;;;;;;;;;;;;;0.65468305;-0.11316264;-0.0380871;;;;;888.1
1096.0;941.0;;;;;;;;;;;;;;;;;-110.35111;20.077364;11.276589;;888.1
1096.0;941.0;;;;;;;;;;;;;;0.60408336;-0.14545122;-0.054322947;;;;;888.1
1152.0;1000.0;;;;;;;;;;;;;;;;;-98.23908;15.797144;16.056551;;897.8
1152.0;1000.0;;;;;;;;;;;;;;0.54701376;-0.18164617;-0.09601123;;;;;897.8
1152.0;1000.0;;;;;;;;;;;;;;;;;-83.590195;4.4938507;20.100252;;897.8
1152.0;1000.0;;;;;;;;;;;;;;0.51008636;-0.19269387;-0.18866542;;;;;897.8
1152.0;1000.0;;;;;;;;;;;;;;;;;-70.57405;-6.653035;23.682364;;907.3
1152.0;1000.0;;;;;;;;;;;;;;0.5069735;-0.18762779;-0.26752526;;;;;907.3
1152.0;1000.0;;;;;;;;;;;;;;;;;-62.192905;-10.750145;27.878658;;907.3
1152.0;1000.0;;;;;;;;;;;;;;0.50679034;-0.1788995;-0.26490065;;;;;907.3
1152.0;1000.0;;;;;;;;;;;;;;;;;-58.85876;-10.860775;32.559437;;916.9
1152.0;1000.0;;;;;;;;;;;;;;0.47724846;-0.17682424;-0.21210364;;;;;916.9
1152.0;1000.0;;;;;;;;;;;;;;;;;-56.54698;-12.783441;37.93451;;916.9
1152.0;1000.0;;;;;;;;;;;;;;0.46882534;-0.2064272;-0.1887875;;;;;916.9
1152.0;1000.9;;;;;;;;;;;;;;;;;-52.46895;-14.316996;43.328655;;926.6
1152.0;1000.9;;;;;;;;;;;;;;0.49177527;-0.24951933;-0.19629505;;;;;926.6
1152.0;1000.9;;;;;;;;;;;;;;;;;-49.16532;-12.295145;48.25358;;926.6
1152.0;1000.9;;;;;;;;;;;;;;0.5249794;-0.29535812;-0.17456588;;;;;926.6
1152.0;1000.9;;;;;;;;;;;;;;;;;-48.21543;-7.805109;52.751244;;936.3
1152.0;1000.9;;;;;;;;;;;;;;0.5870541;-0.30036318;-0.12750633;;;;;936.3
1152.0;1000.9;;;;;;;;;;;;;;;;;-48.64269;-1.247444;56.897945;;936.3
1152.0;1000.9;;;;;;;;;;;;;;0.6360668;-0.2959685;-0.058290355;;;;;936.3
1152.0;1000.9;;;;;;;;;;;;;;;;;-50.183872;5.855739;60.39613;;945.8
1152.0;1000.9;;;;;;;;;;;;;;0.6606647;-0.3018891;0.025757622;;;;;945.8
1152.0;1000.9;;;;;;;;;;;;;;;;;-52.00354;10.803553;63.02072;;945.8
1152.0;1000.9;;;;;;;;;;;;;;0.72292244;-0.30005798;0.09778131;;;;;945.8
1212.0;1060.8;;;;;;;;;;;;;;;;;-53.03354;16.113773;64.146095;;955.5
1212.0;1060.8;;;;;;;;;;;;;;0.78145695;-0.24213386;0.18543047;;;;;955.5
1212.0;1060.8;;;;;;;;;;;;;;;;;-52.777946;19.627216;63.76461;;955.5
1212.0;1060.8;;;;;;;;;;;;;;0.84707177;-0.18323313;0.23718986;;;;;955.5
1212.0;1060.8;;;;;;;;;;;;;;;;;-51.90817;20.390179;62.68502;;965.1
1212.0;1060.8;;;;;;;;;;;;;;0.9195227;-0.14520706;0.20886868;;;;;965.1
1212.0;1060.8;;;;;;;;;;;;;;;;;-52.102726;19.032106;61.162907;;965.1
1212.0;1060.8;;;;;;;;;;;;;;0.9914243;-0.107058935;0.19226661;;;;;965.1
1212.0;1060.8;;;;;;;;;;;;;;;;;-53.37306;13.924069;60.17487;;974.8
1212.0;1060.8;;;;;;;;;;;;;;1.1185033;-0.07190161;0.14899136;;;;;974.8
1212.0;1060.8;;;;;;;;;;;;;;;;;-61.0065;18.593403;58.19117;;974.8
1212.0;1060.8;;;;;;;;;;;;;;1.2044435;0.0025635548;0.19342631;;;;;974.8
1212.0;1061.6;;;;;;;;;;;;;;;;;-74.621574;29.610584;54.437393;;984.4
1212.0;1061.6;;;;;;;;;;;;;;1.2648091;0.09344768;0.30018005;;;;;984.4
1212.0;1061.6;;;;;;;;;;;;;;;;;-87.9429;40.18143;48.772396;;984.4
1212.0;1061.6;;;;;;;;;;;;;;1.3527024;0.24152349;0.375927;;;;;984.4
1212.0;1061.6;;;;;;;;;;;;;;;;;-96.82761;49.00891;41.72262;;994.1
1212.0;1061.6;;;;;;;;;;;;;;1.4279001;0.380871;0.37336344;;;;;994.1
1212.0;1061.6;;;;;;;;;;;;;;;;;-95.16816;53.514206;32.87225;;994.1
1212.0;1061.6;;;;;;;;;;;;;;1.4553667;0.46552935;0.22894986;;;;;994.1
1212.0;1061.6;;;;;;;;;;;;;;;;;-71.58879;49.737537;22.881252;;1003.7
1212.0;1061.6;;;;;;;;;;;;;;1.4279611;0.56807154;-0.0081179235;;;;;1003.7
1212.0;1061.6;;;;;;;;;;;;;;;;;-32.826473;30.064547;13.580737;;1003.7
1212.0;1061.6;;;;;;;;;;;;;;1.4255196;0.6878872;-0.31916258;;;;;1003.7
1215.0;1120.7;;;;;;;;;;;;;;;;;-2.273629;0.2517777;5.691702;;1013.4
1215.0;1120.7;;;;;;;;;;;;;;1.3892026;0.7412336;-0.5843684;;;;;1013.4
1215.0;1120.7;;;;;;;;;;;;;;;;;12.230293;-30.762657;1.1291848;;1013.4
1215.0;1120.7;;;;;;;;;;;;;;1.3288369;0.6477859;-0.63740957;;;;;1013.4
1215.0;1120.7;;;;;;;;;;;;;;;;;21.385845;-54.4908;-1.781518;;1023.0
1215.0;1120.7;;;;;;;;;;;;;;1.2660909;0.5575121;-0.5583056;;;;;1023.0
1215.0;1120.7;;;;;;;;;;;;;;;;;25.963621;-62.54387;-6.3974423;;1023.0
1215.0;1120.7;;;;;;;;;;;;;;1.1999267;0.47242653;-0.3731193;;;;;1023.0
1215.0;1120.7;;;;;;;;;;;;;;;;;29.133732;-61.552017;-11.097293;;1032.6
1215.0;1120.7;;;;;;;;;;;;;;1.159032;0.4170049;-0.19299905;;;;;1032.6
1215.0;1120.7;;;;;;;;;;;;;;;;;30.51088;-54.471725;-16.281626;;1032.6
1215.0;1120.7;;;;;;;;;;;;;;1.1155736;0.37830743;-0.04443495;;;;;1032.6
1216.0;1121.4;;;;;;;;;;;;;;;;;32.242805;-44.957577;-21.008179;;1042.3
1216.0;1121.4;;;;;;;;;;;;;;1.0530107;0.34479812;0.0679342;;;;;1042.3
1216.0;1121.4;;;;;;;;;;;;;;;;;35.096287;-38.04514;-24.647512;;1042.3
1216.0;1121.4;;;;;;;;;;;;;;0.99038666;0.2883999;0.10956145;;;;;1042.3
1216.0;1121.4;;;;;;;;;;;;;;;;;38.14432;-35.618916;-27.12714;;1051.9
1216.0;1121.4;;;;;;;;;;;;;;0.93832207;0.23371075;0.10254219;;;;;1051.9
1216.0;1121.4;;;;;;;;;;;;;;;;;42.023987;-36.160618;-27.306437;;1051.9
1216.0;1121.4;;;;;;;;;;;;;;0.89724416;0.16766869;0.049867246;;;;;1051.9
1216.0;1121.4;;;;;;;;;;;;;;;;;48.932617;-36.656544;-26.326029;;1061.6
1216.0;1121.4;;;;;;;;;;;;;;0.85714287;0.0883816;-0.03424177;;;;;1061.6
1216.0;1121.4;;;;;;;;;;;;;;;;;59.034245;-36.076694;-23.815882;;1061.6
1216.0;1121.4;;;;;;;;;;;;;;0.8230842;0.0145878475;-0.114322335;;;;;1061.6
1216.0;1126.8;;;;0.0;0.0;0.0;;;;;;;;;;;;;;;
1216.0;1126.8;;;;-0.06385804;0.35770038;0.109878555;;;;;;;;;;;;;;;
1216.0;1126.8;;;;-0.22145846;0.9689981;0.24502566;;;;;;;;;;;;;;;
1216.0;1126.8;;;;-0.23184589;0.9945413;0.2279053;;;;;;;;;;;;;;;
1216.0;1126.8;;;;-0.2348328;1.0109903;0.22027972;;;;;;;;;;;;;;;
1216.0;1136.7;;;;-0.23822024;1.0305444;0.21499255;;;;;;;;;;;;;;;
1216.0;1136.7;;;;-0.24192813;1.0526353;0.21153262;;;;;;;;;;;;;;;
1216.0;1136.7;;;;-0.2456055;1.0769387;0.2105141;;;;;;;;;;;;;;;
1216.0;1136.7;;;;-0.24767688;1.1024095;0.21031955;;;;;;;;;;;;;;;
1216.0;1136.7;;;;-0.24884036;1.1281358;0.21128085;;;;;;;;;;;;;;;
1276.0;1138.0;57565;57463;12167;;;;;;;;;;;;;;;;;;
1276.0;1146.8;;;;-0.24922565;1.1523515;0.21329501;;;;;;;;;;;;;;;
1276.0;1146.8;;;;-0.24827197;1.1741754;0.21632007;;;;;;;;;;;;;;;
1276.0;1146.8;;;;-0.24710467;1.1925126;0.2184563;;;;;;;;;;;;;;;
1276.0;1146.8;;;;-0.2463074;1.2074281;0.21945575;;;;;;;;;;;;;;;
1276.0;1146.8;;;;-0.24627307;1.2176896;0.21991351;;;;;;;;;;;;;;;
1276.0;1156.7;;;;-0.2462044;1.2229654;0.22038272;;;;;;;;;;;;;;;
1276.0;1156.7;;;;-0.24711612;1.2238122;0.22011569;;;;;;;;;;;;;;;
1276.0;1156.7;;;;-0.24812701;1.2206384;0.21939471;;;;;;;;;;;;;;;
1276.0;1156.7;;;;-0.24917606;1.2131387;0.21929935;;;;;;;;;;;;;;;
1276.0;1156.7;;;;-0.2511063;1.2019044;0.2175217;;;;;;;;;;;;;;;
1276.0;1158.0;73910;73791;12159;;;;;;;;;;;;;;;;;;
1276.0;1164.4;;;;;;;;;;;;;0;;;;;;;;
1276.0;1164.4;;;;;;;;;;;;;0;;;;;;;;
1276.0;1164.4;;;;;;;;;;;;;-1;;;;;;;;
1276.0;1164.4;;;;;;;;;;;;;-2;;;;;;;;
1276.0;1164.4;;;;;;;;;;;;;-3;;;;;;;;
1276.0;1166.8;;;;-0.2530823;1.1884004;0.21575549;;;;;;;;;;;;;;;
1276.0;1166.8;;;;-0.25551227;1.1730005;0.21422198;;;;;;;;;;;;;;;
1276.0;1166.8;;;;-0.25812533;1.1567689;0.21293643;;;;;;;;;;;;;;;
1276.0;1166.8;;;;-0.26009372;1.1406251;0.21139148;;;;;;;;;;;;;;;
1276.0;1166.8;;;;-0.2618027;1.1245385;0.21038821;;;;;;;;;;;;;;;
1279.0;1176.9;;;;-0.26334003;1.109253;0.20892718;;;;;;;;;;;;;;;
1279.0;1176.9;;;;-0.2649918;1.0954667;0.20756915;;;;;;;;;;;;;;;
1279.0;1176.9;;;;-0.26658633;1.083233;0.20665744;;;;;;;;;;;;;;;
1279.0;1176.9;;;;-0.2680016;1.0721437;0.20589831;;;;;;;;;;;;;;;
1279.0;1176.9;;;;-0.27049258;1.0625612;0.2040253;;;;;;;;;;;;;;;
1279.0;1178.3;90310;90322;12155;;;;;;;;;;;;;;;;;;
1279.0;1180.9;;;;;;;;;;;;;;;;;71.378975;-35.786766;-19.936216;;1071.2
1279.0;1180.9;;;;;;;;;;;;;;0.7849361;-0.076662496;-0.20325327;;;;;1071.2
1279.0;1180.9;;;;;;;;;;;;;;;;;83.689384;-36.065247;-15.598773;;1071.2
1279.0;1180.9;;;;;;;;;;;;;;0.7523423;-0.1474044;-0.25189978;;;;;1071.2
1279.0;1180.9;;;;;;;;;;;;;;;;;89.384895;-34.676655;-10.620441;;1080.8
1279.0;1180.9;;;;;;;;;;;;;;0.71156955;-0.2362743;-0.25745416;;;;;1080.8
1279.0;1180.9;;;;;;;;;;;;;;;;;80.87405;-31.876583;-5.7451096;;1080.8
1279.0;1180.9;;;;;;;;;;;;;;0.7572863;-0.35358745;-0.19995728;;;;;1080.8
1279.0;1180.9;;;;;;;;;;;;;;;;;52.78939;-29.095585;-0.29374066;;1090.4
1279.0;1180.9;;;;;;;;;;;;;;0.97109896;-0.59468365;-0.064760275;;;;;1090.4
1279.0;1180.9;;;;;;;;;;;;;;;;;16.953032;-31.899471;7.915738;;1090.4
1279.0;1180.9;;;;;;;;;;;;;;1.368572;-0.87313455;0.09912412;;;;;1090.4
1280.0;1182.1;;;;;;;;;;;;;;;;;-9.750664;-25.3914;18.94818;;1100.1
1280.0;1182.1;;;;;;;;;;;;;;1.6858425;-1.0320749;0.38422802;;;;;1100.1
1280.0;1182.1;;;;;;;;;;;;;;;;;-21.828365;-6.923887;26.463364;;1100.1
1280.0;1182.1;;;;;;;;;;;;;;1.5963622;-0.83223975;0.6111637;;;;;1100.1
1280.0;1182.1;;;;;;;;;;;;;;;;;-15.423291;1.2741477;30.793177;;1109.8
1280.0;1182.1;;;;;;;;;;;;;;1.3429365;-0.48194832;0.44373912;;;;;1109.8
1280.0;1182.1;;;;;;;;;;;;;;;;;-5.245369;-3.276925;33.848843;;1109.8
1280.0;1182.1;;;;;;;;;;;;;;1.2396008;-0.2200995;0.00695822;;;;;1109.8
1280.0;1182.1;;;;;;;;;;;;;;;;;-5.916776;-7.6906643;34.367657;;1119.4
1280.0;1182.1;;;;;;;;;;;;;;1.2024903;-0.022400586;-0.22113712;;;;;1119.4
1280.0;1182.1;;;;;;;;;;;;;;;;;-16.254921;-8.445998;32.06351;;1119.4
1280.0;1182.1;;;;;;;;;;;;;;1.147496;0.08349864;-0.130253;;;;;1119.4
1280.0;1186.9;;;;-0.27365878;1.0539056;0.20252231;;;;;;;;;;;;;;;
1280.0;1186.9;;;;-0.27769473;1.0472909;0.20078662;;;;;;;;;;;;;;;
1280.0;1186.9;;;;-0.28292087;1.0418473;0.19908145;;;;;;;;;;;;;;;
1280.0;1186.9;;;;-0.28887942;1.0379258;0.19755939;;;;;;;;;;;;;;;
1280.0;1186.9;;;;-0.2946129;1.0346795;0.19578937;;;;;;;;;;;;;;;
1280.0;1196.8;;;;-0.30133823;1.032509;0.19469073;;;;;;;;;;;;;;;
1280.0;1196.8;;;;-0.30702975;1.0314943;0.19414523;;;;;;;;;;;;;;;
1280.0;1196.8;;;;-0.31286243;1.030819;0.19347003;;;;;;;;;;;;;;;
1280.0;1196.8;;;;-0.31864932;1.0321046;0.19293597;;;;;;;;;;;;;;;
1280.0;1196.8;;;;-0.32424548;1.03463;0.19279864;;;;;;;;;;;;;;;
1280.0;1198.3;106582;106569;12141;;;;;;;;;;;;;;;;;;
1331.0;1204.6;;;;;;;;;;;;;-5;;;;;;;;
1331.0;1204.6;;;;;;;;;;;;;-7;;;;;;;;
1331.0;1204.6;;;;;;;;;;;;;-9;;;;;;;;
1331.0;1204.6;;;;;;;;;;;;;-11;;;;;;;;
1331.0;1204.6;;;;;;;;;;;;;-14;;;;;;;;
1331.0;1206.8;;;;-0.32965472;1.0389825;0.19265369;;;;;;;;;;;;;;;
1331.0;1206.8;;;;-0.33418658;1.0444986;0.19254687;;;;;;;;;;;;;;;
1331.0;1206.8;;;;-0.3382149;1.051365;0.19255069;;;;;;;;;;;;;;;
1331.0;1206.8;;;;-0.3420029;1.0596925;0.19372943;;;;;;;;;;;;;;;
1331.0;1206.8;;;;-0.3456078;1.0687562;0.19438174;;;;;;;;;;;;;;;
1331.0;1216.7;;;;-0.34910586;1.0782663;0.19647983;;;;;;;;;;;;;;;
1331.0;1216.7;;;;-0.35255435;1.0879289;0.1989899;;;;;;;;;;;;;;;
1331.0;1216.7;;;;-0.3559914;1.0970498;0.2007027;;;;;;;;;;;;;;;
1331.0;1216.7;;;;-0.36335376;1.1062471;0.20356753;;;;;;;;;;;;;;;
1331.0;1216.7;;;;-0.36517337;1.1132585;0.20522311;;;;;;;;;;;;;;;
1331.0;1218.2;122936;122997;12157;;;;;;;;;;;;;;;;;;
1331.0;1226.8;;;;-0.3589554;1.1183358;0.20691684;;;;;;;;;;;;;;;
1331.0;1226.8;;;;-0.36056522;1.1252595;0.20915225;;;;;;;;;;;;;;;
1331.0;1226.8;;;;-0.36312488;1.1316339;0.21136478;;;;;;;;;;;;;;;
1331.0;1226.8;;;;-0.362896;1.1347772;0.21190265;;;;;;;;;;;;;;;
1331.0;1226.8;;;;-0.36344913;1.1358873;0.21169284;;;;;;;;;;;;;;;
1336.0;1236.9;;;;-0.3658295;1.1356889;0.21143726;;;;;;;;;;;;;;;
1336.0;1236.9;;;;-0.36774448;1.1344339;0.21048358;;;;;;;;;;;;;;;
1336.0;1236.9;;;;-0.3681107;1.1324159;0.20940402;;;;;;;;;;;;;;;
1336.0;1236.9;;;;-0.36807254;1.129963;0.20778659;;;;;;;;;;;;;;;
1336.0;1236.9;;;;-0.36753848;1.1280023;0.20643619;;;;;;;;;;;;;;;
1336.0;1238.5;139394;139403;12152;;;;;;;;;;;;;;;;;;
1336.0;1241.0;;;;;;;;;;;;;;;;;-19.53566;-14.477218;27.073734;;1129.1
1336.0;1241.0;;;;;;;;;;;;;;1.1836909;0.20685446;-0.01965392;;;;;1129.1
1336.0;1241.0;;;;;;;;;;;;;;;;;-8.732108;-20.371105;21.244698;;1129.1
1336.0;1241.0;;;;;;;;;;;;;;1.2029176;0.31727043;-0.12787256;;;;;1129.1
1336.0;1241.0;;;;;;;;;;;;;;;;;7.1565905;-19.302958;15.625477;;1138.7
1336.0;1241.0;;;;;;;;;;;;;;1.1763054;0.43964964;-0.30127874;;;;;1138.7
1336.0;1241.0;;;;;;;;;;;;;;;;;10.643331;-10.261848;10.917997;;1138.7
1336.0;1241.0;;;;;;;;;;;;;;1.0961028;0.52955717;-0.32062745;;;;;1138.7
1336.0;1241.0;;;;;;;;;;;;;;;;;0.3128147;0.20218512;7.488479;;1148.2
1336.0;1241.0;;;;;;;;;;;;;;1.0379956;0.5065462;-0.08789331;;;;;1148.2
1336.0;1241.0;;;;;;;;;;;;;;;;;-15.293588;7.145146;5.62685;;1148.2
1336.0;1241.0;;;;;;;;;;;;;;1.0879849;0.34223455;0.1607715;;;;;1148.2
1338.0;1241.7;;;;;;;;;;;;;;;;;-26.257362;14.576404;6.0960727;;1157.8
1338.0;1241.7;;;;;;;;;;;;;;1.206946;0.09289835;0.25531784;;;;;1157.8
1338.0;1241.7;;;;;;;;;;;;;;;;;-28.202917;23.953215;8.270516;;1157.8
1338.0;1241.7;;;;;;;;;;;;;;1.274514;-0.1657155;0.19910276;;;;;1157.8
1338.0;1241.7;;;;;;;;;;;;;;;;;-22.43492;29.404585;11.337626;;1167.4
1338.0;1241.7;;;;;;;;;;;;;;1.2965484;-0.38953826;0.07428205;;;;;1167.4
1338.0;1241.7;;;;;;;;;;;;;;;;;-8.819849;26.20777;16.075624;;1167.4
1338.0;1241.7;;;;;;;;;;;;;;1.2375866;-0.51814324;-0.1267739;;;;;1167.4
1338.0;1241.7;;;;;;;;;;;;;;;;;8.156072;15.797144;22.225103;;1177.1
1338.0;1241.7;;;;;;;;;;;;;;1.1071504;-0.5652638;-0.29834896;;;;;1177.1
1338.0;1241.7;;;;;;;;;;;;;;;;;20.584734;0.59511095;28.64162;;1177.1
1338.0;1241.7;;;;;;;;;;;;;;0.9894101;-0.6239204;-0.3780633;;;;;1177.1
1338.0;1244.5;;;;;;;;;;;;;-14;;;;;;;;
1338.0;1244.5;;;;;;;;;;;;;-18;;;;;;;;
1338.0;1244.5;;;;;;;;;;;;;-19;;;;;;;;
1338.0;1244.5;;;;;;;;;;;;;-24;;;;;;;;
1338.0;1244.5;;;;;;;;;;;;;-23;;;;;;;;
1338.0;1246.8;;;;-0.36571506;1.1256257;0.20520023;;;;;;;;;;;;;;;
1338.0;1246.8;;;;-0.3639603;1.1237832;0.20407489;;;;;;;;;;;;;;;
1338.0;1246.8;;;;-0.36257938;1.1218301;0.20229343;;;;;;;;;;;;;;;
1338.0;1246.8;;;;-0.36114886;1.1196328;0.20014194;;;;;;;;;;;;;;;
1338.0;1246.8;;;;-0.35972217;1.1170083;0.19770053;;;;;;;;;;;;;;;
1390.0;1256.7;;;;-0.35772327;1.1143419;0.1944237;;;;;;;;;;;;;;;
1390.0;1256.7;;;;-0.35634235;1.1124154;0.19165805;;;;;;;;;;;;;;;
1390.0;1256.7;;;;-0.35478595;1.1095849;0.18992236;;;;;;;;;;;;;;;
1390.0;1256.7;;;;-0.35351565;1.1061746;0.18655397;;;;;;;;;;;;;;;
1390.0;1256.7;;;;-0.35242084;1.1024247;0.18269731;;;;;;;;;;;;;;;
1390.0;1258.4;155820;155814;12155;;;;;;;;;;;;;;;;;;
1390.0;1266.8;;;;-0.3515549;1.0980874;0.17877962;;;;;;;;;;;;;;;
1390.0;1266.8;;;;-0.35102466;1.0939676;0.17626955;;;;;;;;;;;;;;;
1390.0;1266.8;;;;-0.3512459;1.0893327;0.1716881;;;;;;;;;;;;;;;
1390.0;1266.8;;;;-0.35133365;1.0838586;0.16797258;;;;;;;;;;;;;;;
1390.0;1266.8;;;;-0.35162356;1.0785104;0.16304018;;;;;;;;;;;;;;;
1390.0;1276.8;;;;-0.352356;1.0733796;0.15768434;;;;;;;;;;;;;;;
1390.0;1276.8;;;;-0.35239413;1.0681382;0.1525879;;;;;;;;;;;;;;;
1390.0;1276.8;;;;-0.35206226;1.0635263;0.14763261;;;;;;;;;;;;;;;
1390.0;1276.8;;;;-0.3516312;1.0592576;0.14268495;;;;;;;;;;;;;;;
1390.0;1276.8;;;;-0.35092548;1.0557863;0.13793184;;;;;;;;;;;;;;;
1390.0;1278.4;172164;172137;12158;;;;;;;;;;;;;;;;;;
1390.0;1284.7;;;;;;;;;;;;;9;;;;;;;;
1390.0;1284.7;;;;;;;;;;;;;-27;;;;;;;;
1390.0;1284.7;;;;;;;;;;;;;-112;;;;;;;;
1390.0;1284.7;;;;;;;;;;;;;7;;;;;;;;
1390.0;1284.7;;;;;;;;;;;;;416;;;;;;;;
1394.0;1286.9;;;;-0.349865;1.0525438;0.13403322;;;;;;;;;;;;;;;
1394.0;1286.9;;;;-0.34895328;1.0497209;0.1306267;;;;;;;;;;;;;;;
1394.0;1286.9;;;;-0.34717944;1.0483018;0.12725832;;;;;;;;;;;;;;;
1394.0;1286.9;;;;-0.3456116;1.0466729;0.124382034;;;;;;;;;;;;;;;
1394.0;1286.9;;;;-0.34339145;1.0466348;0.12196733;;;;;;;;;;;;;;;
1394.0;1297.0;;;;-0.34043506;1.0474092;0.11952211;;;;;;;;;;;;;;;
1394.0;1297.0;;;;-0.33718494;1.049347;0.11746217;;;;;;;;;;;;;;;
1394.0;1297.0;;;;-0.33319095;1.052025;0.11516191;;;;;;;;;;;;;;;
1394.0;1297.0;;;;-0.32997516;1.055359;0.11250688;;;;;;;;;;;;;;;
1394.0;1297.0;;;;-0.32669833;1.0592576;0.10875322;;;;;;;;;;;;;;;
1394.0;1298.7;188511;188584;12166;;;;;;;;;;;;;;;;;;
1394.0;1301.1;;;;;;;;;;;;;;;;;27.104252;-16.361736;35.90884;;1186.7
1394.0;1301.1;;;;;;;;;;;;;;0.92391735;-0.700705;-0.4350719;;;;;1186.7
1394.0;1301.1;;;;;;;;;;;;;;;;;26.997437;-24.613178;43.301952;;1186.7
1394.0;1301.1;;;;;;;;;;;;;;0.8521378;-0.7702261;-0.39265114;;;;;1186.7
1394.0;1301.1;;;;;;;;;;;;;;;;;22.11829;-25.128178;49.214912;;1196.4
1394.0;1301.1;;;;;;;;;;;;;;0.786401;-0.7965331;-0.29029205;;;;;1196.4
1394.0;1301.1;;;;;;;;;;;;;;;;;17.212439;-20.321512;54.605244;;1196.4
1394.0;1301.1;;;;;;;;;;;;;;0.702353;-0.75124365;-0.17560351;;;;;1196.4
1394.0;1301.1;;;;;;;;;;;;;;;;;15.3202915;-15.907774;57.847836;;1206.0
1394.0;1301.1;;;;;;;;;;;;;;0.6612751;-0.6420484;-0.097598195;;;;;1206.0
1394.0;1301.1;;;;;;;;;;;;;;;;;19.688253;-14.820552;59.125797;;1206.0
1394.0;1301.1;;;;;;;;;;;;;;0.6448561;-0.4761498;-0.0740379;;;;;1206.0
1396.0;1302.3;;;;;;;;;;;;;;;;;27.325512;-16.19007;57.611317;;1215.5
1396.0;1302.3;;;;;;;;;;;;;;0.6460158;-0.2618488;-0.10644856;;;;;1215.5
1396.0;1302.3;;;;;;;;;;;;;;;;;35.237434;-18.55144;53.91858;;1215.5
1396.0;1302.3;;;;;;;;;;;;;;0.68678856;-0.07519761;-0.13623463;;;;;1215.5
1396.0;1302.3;;;;;;;;;;;;;;;;;42.844173;-22.869808;49.901577;;1225.1
1396.0;1302.3;;;;;;;;;;;;;;0.7665639;0.05652028;-0.17749566;;;;;1225.1
1396.0;1302.3;;;;;;;;;;;;;;;;;47.040466;-27.176733;45.571762;;1225.1
1396.0;1302.3;;;;;;;;;;;;;;0.83419293;0.14001893;-0.21442305;;;;;1225.1
1396.0;1302.3;;;;;;;;;;;;;;;;;45.838802;-30.953398;41.100803;;1234.8
1396.0;1302.3;;;;;;;;;;;;;;0.91256446;0.18372142;-0.23328349;;;;;1234.8
1396.0;1302.3;;;;;;;;;;;;;;;;;38.289288;-31.11362;37.221138;;1234.8
1396.0;1302.3;;;;;;;;;;;;;;1.0036927;0.18146306;-0.21808527;;;;;1234.8
1396.0;1306.9;;;;-0.32142642;1.0633851;0.106308;;;;;;;;;;;;;;;
1396.0;1306.9;;;;-0.31824878;1.0682031;0.10353853;;;;;;;;;;;;;;;
1396.0;1306.9;;;;-0.31613925;1.0738107;0.100944534;;;;;;;;;;;;;;;
1396.0;1306.9;;;;-0.31507114;1.0792657;0.09884645;;;;;;;;;;;;;;;
1396.0;1306.9;;;;-0.31533435;1.0844728;0.096462265;;;;;;;;;;;;;;;
1398.0;1316.1;;;;;;;;;;;;;;;;;26.604511;-25.254066;34.424877;;1244.5
1398.0;1316.1;;;;;;;;;;;;;;1.0721152;0.16144292;-0.17194128;;;;;1244.5
1398.0;1316.1;;;;;;;;;;;;;;;;;joulu.57;-14.839625;33.303326;;1244.5
1398.0;1316.1;;;;;;;;;;;;;;1.1270486;0.111636706;-0.0865505;;;;;1244.5
1398.0;1316.1;;;;;;;;;;;;;;;;;0.23651844;-4.5358133;33.692436;;1254.1
1398.0;1316.1;;;;;;;;;;;;;;1.1709342;0.06305124;-0.021057772;;;;;1254.1
1398.0;1316.1;;;;;;;;;;;;;;;;;-9.193701;3.5821102;35.38621;;1254.1
1398.0;1316.1;;;;;;;;;;;;;;1.1625111;0.024719993;-0.01043733;;;;;1254.1
1398.0;1316.1;;;;;;;;;;;;;;;;;-15.823847;7.3244424;37.759026;;1263.7
1398.0;1316.1;;;;;;;;;;;;;;1.1642201;-0.0050050355;-0.049195837;;;;;1263.7
1398.0;1316.1;;;;;;;;;;;;;;;;;-19.135107;8.526108;40.089874;;1263.7
1398.0;1316.1;;;;;;;;;;;;;;1.1499984;-0.01861629;-0.12689596;;;;;1263.7
1398.0;1316.7;;;;-0.31729892;1.0899392;0.09452821;;;;;;;;;;;;;;;
1398.0;1316.7;;;;-0.31999972;1.0960847;0.0932808;;;;;;;;;;;;;;;
1398.0;1316.7;;;;-0.323185;1.1024781;0.09262467;;;;;;;;;;;;;;;
1398.0;1316.7;;;;-0.32637408;1.1085244;0.09160996;;;;;;;;;;;;;;;
1398.0;1316.7;;;;-0.32965854;1.1151468;0.09085084;;;;;;;;;;;;;;;
1398.0;1318.5;204973;204918;12154;;;;;;;;;;;;;;;;;;
1398.0;1324.8;;;;;;;;;;;;;835;;;;;;;;
1398.0;1324.8;;;;;;;;;;;;;805;;;;;;;;
1398.0;1324.8;;;;;;;;;;;;;315;;;;;;;;
1398.0;1324.8;;;;;;;;;;;;;-4;;;;;;;;
1398.0;1324.8;;;;;;;;;;;;;341;;;;;;;;
1453.0;1326.8;;;;-0.3316231;1.1221696;0.08990479;;;;;;;;;;;;;;;
1453.0;1326.8;;;;-0.3327408;1.1286432;0.089996345;;;;;;;;;;;;;;;
1453.0;1326.8;;;;-0.3332825;1.1346627;0.090377815;;;;;;;;;;;;;;;
1453.0;1326.8;;;;-0.33277896;1.1399347;0.09078217;;;;;;;;;;;;;;;
1453.0;1326.8;;;;-0.33209994;1.1449472;0.09151841;;;;;;;;;;;;;;;
1453.0;1336.8;;;;-0.33031085;1.1486093;0.091377266;;;;;;;;;;;;;;;
1453.0;1336.8;;;;-0.3277512;1.1517526;0.09095765;;;;;;;;;;;;;;;
1453.0;1336.8;;;;-0.3253899;1.1534044;0.08987046;;;;;;;;;;;;;;;
1453.0;1336.8;;;;-0.32257465;1.1536294;0.08868409;;;;;;;;;;;;;;;
1453.0;1336.8;;;;-0.3193207;1.1531373;0.08635331;;;;;;;;;;;;;;;
1453.0;1338.6;221346;221294;12165;;;;;;;;;;;;;;;;;;
1453.0;1346.9;;;;-0.31578448;1.1519777;0.083572395;;;;;;;;;;;;;;;
1453.0;1346.9;;;;-0.3124428;1.1505204;0.080673225;;;;;;;;;;;;;;;
1453.0;1346.9;;;;-0.30984882;1.1492692;0.07744218;;;;;;;;;;;;;;;
1453.0;1346.9;;;;-0.3079529;1.1480142;0.07392884;;;;;;;;;;;;;;;
1453.0;1346.9;;;;-0.3065987;1.1469156;0.069149025;;;;;;;;;;;;;;;
1453.0;1357.0;;;;-0.30621722;1.1460229;0.06526948;;;;;;;;;;;;;;;
1453.0;1357.0;;;;-0.30591586;1.1457216;0.06044007;;;;;;;;;;;;;;;
1453.0;1357.0;;;;-0.30637744;1.1450998;0.051200874;;;;;;;;;;;;;;;
1453.0;1357.0;;;;-0.30741504;1.1447335;0.04621506;;;;;;;;;;;;;;;
1453.0;1357.0;;;;-0.30771258;1.1453859;0.04110718;;;;;;;;;;;;;;;
1456.0;1358.9;237706;237699;12164;;;;;;;;;;;;;;;;;;
1456.0;1361.3;;;;;;;;;;;;;;;;;-21.011993;8.968627;42.126987;;1273.3
1456.0;1361.3;;;;;;;;;;;;;;1.1251564;-0.038819544;-0.1767632;;;;;1273.3
1456.0;1361.3;;;;;;;;;;;;;;;;;-22.499771;8.495589;43.549915;;1273.3
1456.0;1361.3;;;;;;;;;;;;;;1.0890225;-0.058717612;-0.19959106;;;;;1273.3
1456.0;1361.3;;;;;;;;;;;;;;;;;-23.613697;8.983886;44.495987;;1282.9
1456.0;1361.3;;;;;;;;;;;;;;1.022248;-0.057924133;-0.19409773;;;;;1282.9
1456.0;1361.3;;;;;;;;;;;;;;;;;-25.505844;7.8127384;45.556503;;1282.9
1456.0;1361.3;;;;;;;;;;;;;;1.020722;-0.068666644;-0.19647816;;;;;1282.9
1456.0;1361.3;;;;;;;;;;;;;;;;;-28.233437;8.007294;46.643726;;1292.5
1456.0;1361.3;;;;;;;;;;;;;;0.97903377;-0.0888699;-0.18988617;;;;;1292.5
1456.0;1361.3;;;;;;;;;;;;;;;;;-30.652027;8.140813;47.471542;;1292.5
1456.0;1361.3;;;;;;;;;;;;;;0.95632803;-0.10290842;-0.18420972;;;;;1292.5
1456.0;1365.0;;;;;;;;;;;;;854;;;;;;;;
1456.0;1365.0;;;;;;;;;;;;;453;;;;;;;;
1456.0;1365.0;;;;;;;;;;;;;-783;;;;;;;;
1456.0;1365.0;;;;;;;;;;;;;-1342;;;;;;;;
1456.0;1365.0;;;;;;;;;;;;;-192;;;;;;;;
1456.0;1367.0;;;;-0.30824664;1.1462747;0.03514481;;;;;;;;;;;;;;;
1456.0;1367.0;;;;-0.31112674;1.147091;0.028636936;;;;;;;;;;;;;;;
1456.0;1367.0;;;;-0.3114281;1.1480943;0.023319246;;;;;;;;;;;;;;;
1456.0;1367.0;;;;-0.313839;1.1467668;0.01853943;;;;;;;;;;;;;;;
1456.0;1367.0;;;;-0.31774524;1.1446;0.01287079;;;;;;;;;;;;;;;
1512.0;1376.3;;;;;;;;;;;;;;;;;-32.16651;8.877071;48.196358;;1302.2
1512.0;1376.3;;;;;;;;;;;;;;0.93942076;-0.12854396;-0.1788995;;;;;1302.2
1512.0;1376.3;;;;;;;;;;;;;;;;;-31.308174;9.926145;49.039433;;1302.2
1512.0;1376.3;;;;;;;;;;;;;;0.90462965;-0.15485092;-0.1683401;;;;;1302.2
1512.0;1376.3;;;;;;;;;;;;;;;;;-29.80514;9.281442;49.939724;;1311.9
1512.0;1376.3;;;;;;;;;;;;;;0.89504683;-0.18738365;-0.17682424;;;;;1311.9
1512.0;1376.3;;;;;;;;;;;;;;;;;-28.397472;9.102145;50.54628;;1311.9
1512.0;1376.3;;;;;;;;;;;;;;0.8883328;-0.18793298;-0.17749566;;;;;1311.9
1512.0;1376.3;;;;;;;;;;;;;;;;;-27.211067;9.060183;50.99643;;1321.4
1512.0;1376.3;;;;;;;;;;;;;;0.87563705;-0.20654927;-0.1820124;;;;;1321.4
1512.0;1376.3;;;;;;;;;;;;;;;;;-26.23066;8.148442;51.973022;;1321.4
1512.0;1376.3;;;;;;;;;;;;;;0.8753929;-0.22699668;-0.19434187;;;;;1321.4
1512.0;1376.9;;;;-0.32117084;1.1423112;0.007736207;;;;;;;;;;;;;;;
1512.0;1376.9;;;;-0.32301715;1.1398546;0.0031356816;;;;;;;;;;;;;;;
1512.0;1376.9;;;;-0.326458;1.136696;-9.5748913E-4;;;;;;;;;;;;;;;
1512.0;1376.9;;;;-0.32970813;1.1327287;-0.0048027043;;;;;;;;;;;;;;;
1512.0;1376.9;;;;-0.33335117;1.1282884;-0.0078086862;;;;;;;;;;;;;;;
1512.0;1378.8;254109;254020;12160;;;;;;;;;;;;;;;;;;
1512.0;1386.9;;;;-0.3372307;1.1229135;-0.010845185;;;;;;;;;;;;;;;
1512.0;1386.9;;;;-0.33992007;1.117222;-0.013645174;;;;;;;;;;;;;;;
1512.0;1386.9;;;;-0.34226993;1.1112291;-0.015762331;;;;;;;;;;;;;;;
1512.0;1386.9;;;;-0.34469226;1.1043626;-0.01766205;;;;;;;;;;;;;;;
1512.0;1386.9;;;;-0.347168;1.0973817;-0.019622805;;;;;;;;;;;;;;;
1515.0;1396.9;;;;-0.34852603;1.0904619;-0.02025223;;;;;;;;;;;;;;;
1515.0;1396.9;;;;-0.34985355;1.0834199;-0.021648409;;;;;;;;;;;;;;;
1515.0;1396.9;;;;-0.35075;1.0757715;-0.023204805;;;;;;;;;;;;;;;
1515.0;1396.9;;;;-0.35203937;1.0682298;-0.023723606;;;;;;;;;;;;;;;
1515.0;1396.9;;;;-0.35326388;1.0607263;-0.024448399;;;;;;;;;;;;;;;
1515.0;1398.9;262143;262143;12157;;;;;;;;;;;;;;;;;;
1515.0;1405.1;;;;;;;;;;;;;1475;;;;;;;;
1515.0;1405.1;;;;;;;;;;;;;1812;;;;;;;;
1515.0;1405.1;;;;;;;;;;;;;878;;;;;;;;
1515.0;1405.1;;;;;;;;;;;;;-53;;;;;;;;
1515.0;1405.1;;;;;;;;;;;;;-508;;;;;;;;
1515.0;1407.0;;;;-0.35378268;1.0535394;-0.023952488;;;;;;;;;;;;;;;
1515.0;1407.0;;;;-0.35457996;1.0475007;-0.022979738;;;;;;;;;;;;;;;
1515.0;1407.0;;;;-0.35548404;1.041977;-0.022312166;;;;;;;;;;;;;;;
1515.0;1407.0;;;;-0.35754398;1.0360719;-0.021106722;;;;;;;;;;;;;;;
1515.0;1407.0;;;;-0.35903934;1.030388;-0.020454409;;;;;;;;;;;;;;;
1515.0;1417.1;;;;-0.36024097;1.0247308;-0.019615175;;;;;;;;;;;;;;;
1515.0;1417.1;;;;-0.36098483;1.0195237;-0.018653871;;;;;;;;;;;;;;;
1515.0;1417.1;;;;-0.36137393;1.0146066;-0.018386843;;;;;;;;;;;;;;;
1515.0;1417.1;;;;-0.36164096;1.0097619;-0.0174675;;;;;;;;;;;;;;;
1515.0;1417.1;;;;-0.36090472;1.0045549;-0.016658785;;;;;;;;;;;;;;;
1515.0;1419.1;262143;262143;12148;;;;;;;;;;;;;;;;;;
1517.0;1421.6;;;;;;;;;;;;;;;;;-25.364697;7.8241825;52.812283;;1331.1
1517.0;1421.6;;;;;;;;;;;;;;0.8778954;-0.23688467;-0.19495223;;;;;1331.1
1517.0;1421.6;;;;;;;;;;;;;;;;;-24.029512;7.7097383;53.68206;;1331.1
1517.0;1421.6;;;;;;;;;;;;;;0.8842433;-0.23584704;-0.19220558;;;;;1331.1
1517.0;1421.6;;;;;;;;;;;;;;;;;-22.419659;6.9887385;54.60143;;1340.7
1517.0;1421.6;;;;;;;;;;;;;;0.8939482;-0.23822749;-0.19830927;;;;;1340.7
1517.0;1421.6;;;;;;;;;;;;;;;;;-20.47792;5.9091463;55.35676;;1340.7
1517.0;1421.6;;;;;;;;;;;;;;0.90414137;-0.24158452;-0.20777002;;;;;1340.7
1517.0;1421.6;;;;;;;;;;;;;;;;;-18.150883;4.4328136;56.1655;;1350.3
1517.0;1421.6;;;;;;;;;;;;;;0.90755945;-0.24079104;-0.21735282;;;;;1350.3
1517.0;1421.6;;;;;;;;;;;;;;;;;-15.854366;2.8572955;57.19169;;1350.3
1517.0;1421.6;;;;;;;;;;;;;;0.91183203;-0.23798333;-0.21460617;;;;;1350.3
1517.0;1427.1;;;;-0.36028293;0.9989282;-0.016433718;;;;;;;;;;;;;;;
1517.0;1427.1;;;;-0.36024097;0.9934617;-0.016193392;;;;;;;;;;;;;;;
1517.0;1427.1;;;;-0.35976794;0.9882928;-0.015312197;;;;;;;;;;;;;;;
1517.0;1427.1;;;;-0.35950473;0.9828836;-0.014141085;;;;;;;;;;;;;;;
1517.0;1427.1;;;;-0.3599625;0.9777032;-0.012905123;;;;;;;;;;;;;;;
1518.0;1436.7;;;;;;;;;;;;;;;;;-14.229255;2.1820734;58.1988;;1359.9
1518.0;1436.7;;;;;;;;;;;;;;0.91286963;-0.22937712;-0.19965209;;;;;1359.9
1518.0;1436.7;;;;;;;;;;;;;;;;;-13.53496;2.0485551;59.057133;;1359.9
1518.0;1436.7;;;;;;;;;;;;;;0.9179357;-0.22070986;-0.18402661;;;;;1359.9
1518.0;1436.7;;;;;;;;;;;;;;;;;-13.508256;2.3194067;59.76669;;1369.6
1518.0;1436.7;;;;;;;;;;;;;;0.9191565;-0.2097232;-0.15973388;;;;;1369.6
1518.0;1436.7;;;;;;;;;;;;;;;;;-13.149663;2.4338512;60.338905;;1369.6
1518.0;1436.7;;;;;;;;;;;;;;0.93856627;-0.1920835;-0.1478927;;;;;1369.6
1518.0;1436.7;;;;;;;;;;;;;;;;;-12.359997;3.6507769;60.37324;;1379.3
1518.0;1436.7;;;;;;;;;;;;;;0.9538255;-0.15869625;-0.14117862;;;;;1379.3
1518.0;1436.7;;;;;;;;;;;;;;;;;-11.76107;5.6955166;60.32746;;1379.3
1518.0;1436.7;;;;;;;;;;;;;;0.9582812;-0.12445448;-0.12622456;;;;;1379.3
1518.0;1437.1;;;;-0.3599091;0.97200024;-0.011875154;;;;;;;;;;;;;;;
1518.0;1437.1;;;;-0.36056903;0.965973;-0.010349275;;;;;;;;;;;;;;;
1518.0;1437.1;;;;-0.36182407;0.96087277;-0.009353639;;;;;;;;;;;;;;;
1518.0;1437.1;;;;-0.36195758;0.95598996;-0.007823945;;;;;;;;;;;;;;;
1518.0;1437.1;;;;-0.36179736;0.94986737;-0.006816865;;;;;;;;;;;;;;;
1518.0;1439.1;262143;262143;12154;;;;;;;;;;;;;;;;;;
1518.0;1445.4;;;;;;;;;;;;;-817;;;;;;;;
1518.0;1445.4;;;;;;;;;;;;;-1082;;;;;;;;
1518.0;1445.4;;;;;;;;;;;;;-1111;;;;;;;;
1518.0;1445.4;;;;;;;;;;;;;-920;;;;;;;;
1518.0;1445.4;;;;;;;;;;;;;-862;;;;;;;;
1572.0;1447.2;;;;-0.3625107;0.94409573;-0.0063171396;;;;;;;;;;;;;;;
1572.0;1447.2;;;;-0.36317828;0.9389764;-0.005374909;;;;;;;;;;;;;;;
1572.0;1447.2;;;;-0.36368945;0.93333066;-0.005069733;;;;;;;;;;;;;;;
1572.0;1447.2;;;;-0.3645058;0.9278871;-0.0041046147;;;;;;;;;;;;;;;
1572.0;1447.2;;;;-0.36456683;0.9218446;-0.0036582951;;;;;;;;;;;;;;;
1572.0;1456.9;;;;-0.36448672;0.9156991;-0.0030860906;;;;;;;;;;;;;;;
1572.0;1456.9;;;;-0.36441043;0.9098741;-0.0027046206;;;;;;;;;;;;;;;
1572.0;1456.9;;;;-0.36415485;0.90425503;-0.0021896365;;;;;;;;;;;;;;;
1572.0;1456.9;;;;-0.363987;0.89847195;-0.001995087;;;;;;;;;;;;;;;
1572.0;1456.9;;;;-0.36475375;0.89205945;-0.001186371;;;;;;;;;;;;;;;
1572.0;1459.0;262143;262143;12156;;;;;;;;;;;;;;;;;;
1572.0;1467.0;;;;-0.3652039;0.886284;-0.0011634828;;;;;;;;;;;;;;;
1572.0;1467.0;;;;-0.36535648;0.88058865;-4.959107E-5;;;;;;;;;;;;;;;
1572.0;1467.0;;;;-0.3658028;0.8752481;0.0012702943;;;;;;;;;;;;;;;
1572.0;1467.0;;;;-0.36550143;0.86960614;0.002536774;;;;;;;;;;;;;;;
1572.0;1467.0;;;;-0.36527637;0.864956;0.0033874516;;;;;;;;;;;;;;;
1572.0;1477.1;;;;-0.36560825;0.8605157;0.005084992;;;;;;;;;;;;;;;
1572.0;1477.1;;;;-0.36579517;0.85660565;0.006336213;;;;;;;;;;;;;;;
1572.0;1477.1;;;;-0.3659592;0.85263836;0.0074157724;;;;;;;;;;;;;;;
1572.0;1477.1;;;;-0.36583713;0.849785;0.008281709;;;;;;;;;;;;;;;
1572.0;1477.1;;;;-0.36597446;0.8473321;0.009552003;;;;;;;;;;;;;;;
1575.0;1479.3;262143;262143;12163;;;;;;;;;;;;;;;;;;
1575.0;1481.6;;;;;;;;;;;;;;;;;-12.443922;7.477035;60.083313;;1388.8
1575.0;1481.6;;;;;;;;;;;;;;0.9565722;-0.09161656;-0.10852382;;;;;1388.8
1575.0;1481.6;;;;;;;;;;;;;;;;;-13.733329;8.350628;59.503464;;1388.8
1575.0;1481.6;;;;;;;;;;;;;;0.96365243;-0.062746055;-0.1015656;;;;;1388.8
1575.0;1481.6;;;;;;;;;;;;;;;;;-13.981292;8.934294;58.664207;;1398.4
1575.0;1481.6;;;;;;;;;;;;;;0.96676534;-0.035279397;-0.112125;;;;;1398.4
1575.0;1481.6;;;;;;;;;;;;;;;;;-13.817255;9.651479;57.73339;;1398.4
1575.0;1481.6;;;;;;;;;;;;;;0.9767754;-0.003601184;-0.1175573;;;;;1398.4
1575.0;1481.6;;;;;;;;;;;;;;;;;-14.721366;11.246071;56.905575;;1407.9
1575.0;1481.6;;;;;;;;;;;;;;0.9785455;0.02069155;-0.10821863;;;;;1407.9
1575.0;1481.6;;;;;;;;;;;;;;;;;-17.330698;13.2107;56.15024;;1407.9
1575.0;1481.6;;;;;;;;;;;;;;0.9663381;0.04425184;-0.084109016;;;;;1407.9
1575.0;1485.3;;;;;;;;;;;;;-1156;;;;;;;;
1575.0;1485.3;;;;;;;;;;;;;-1298;;;;;;;;
1575.0;1485.3;;;;;;;;;;;;;-706;;;;;;;;
1575.0;1485.3;;;;;;;;;;;;;305;;;;;;;;
1575.0;1485.3;;;;;;;;;;;;;840;;;;;;;;
1575.0;1487.0;;;;-0.36659244;0.8456689;0.010448457;;;;;;;;;;;;;;;
1575.0;1487.0;;;;-0.36709216;0.84404385;0.011577607;;;;;;;;;;;;;;;
1575.0;1487.0;;;;-0.3677483;0.84329236;0.012332918;;;;;;;;;;;;;;;
1575.0;1487.0;;;;-0.36820224;0.84295666;0.01300812;;;;;;;;;;;;;;;
1575.0;1487.0;;;;-0.3694611;0.8424264;0.012977602;;;;;;;;;;;;;;;
1634.0;1489.1;;;;;;;;;;;;;;;;;-21.595661;13.515885;55.406353;;1417.6
1634.0;1489.1;;;;;;;;;;;;;;0.95199436;0.05999939;-0.08465835;;;;;1417.6
1634.0;1489.1;;;;;;;;;;;;;;;;;-25.128178;12.68807;54.567097;;1417.6
1634.0;1489.1;;;;;;;;;;;;;;0.94601274;0.0656148;-0.120975375;;;;;1417.6
1634.0;1489.1;;;;;;;;;;;;;;;;;-27.2454;joulu.57;53.640095;;1427.2
1634.0;1489.1;;;;;;;;;;;;;;0.93795586;0.071108125;-0.16235848;;;;;1427.2
1634.0;1489.1;;;;;;;;;;;;;;;;;-29.29777;14.217811;52.80084;;1427.2
1634.0;1489.1;;;;;;;;;;;;;;0.92306286;0.072206795;-0.1721244;;;;;1427.2
1634.0;1489.1;;;;;;;;;;;;;;;;;-32.273323;15.938292;51.770836;;1436.9
1634.0;1489.1;;;;;;;;;;;;;;0.91384625;0.071108125;-0.15570544;;;;;1436.9
1634.0;1489.1;;;;;;;;;;;;;;;;;-36.15299;17.529068;50.637836;;1436.9
1634.0;1489.1;;;;;;;;;;;;;;0.9023713;0.074221015;-0.10852382;;;;;1436.9
1634.0;1496.9;;;;-0.37038806;0.84256375;0.01281357;;;;;;;;;;;;;;;
1634.0;1496.9;;;;-0.3709183;0.8429109;0.013732912;;;;;;;;;;;;;;;
1634.0;1496.9;;;;-0.3724976;0.8433038;0.013408663;;;;;;;;;;;;;;;
1634.0;1496.9;;;;-0.3746262;0.8442613;0.013793947;;;;;;;;;;;;;;;
1634.0;1496.9;;;;-0.37556463;0.8446542;0.014163973;;;;;;;;;;;;;;;
1634.0;1499.1;262143;262143;12155;;;;;;;;;;;;;;;;;;
1634.0;1507.0;;;;-0.377163;0.84495175;0.014556887;;;;;;;;;;;;;;;
1634.0;1507.0;;;;-0.37823874;0.84544003;0.014816286;;;;;;;;;;;;;;;
1634.0;1507.0;;;;-0.37940222;0.84534466;0.0154533405;;;;;;;;;;;;;;;
1634.0;1507.0;;;;-0.3807717;0.8454133;0.017009737;;;;;;;;;;;;;;;
1634.0;1507.0;;;;-0.38203055;0.8454515;0.018386843;;;;;;;;;;;;;;;
1638.0;1516.9;;;;-0.38283545;0.8450471;0.020511629;;;;;;;;;;;;;;;
1638.0;1516.9;;;;-0.38332373;0.8449594;0.022560121;;;;;;;;;;;;;;;
1638.0;1516.9;;;;-0.38399893;0.8446084;0.023689274;;;;;;;;;;;;;;;
1638.0;1516.9;;;;-0.38402945;0.8435594;0.025482181;;;;;;;;;;;;;;;
1638.0;1516.9;;;;-0.3839646;0.84280026;0.027099613;;;;;;;;;;;;;;;
1638.0;1519.1;262143;262143;12151;;;;;;;;;;;;;;;;;;
1638.0;1525.3;;;;;;;;;;;;;218;;;;;;;;
1638.0;1525.3;;;;;;;;;;;;;-824;;;;;;;;
1638.0;1525.3;;;;;;;;;;;;;-521;;;;;;;;
1638.0;1525.3;;;;;;;;;;;;;1191;;;;;;;;
1638.0;1525.3;;;;;;;;;;;;;1464;;;;;;;;
1638.0;1527.0;;;;-0.38364798;0.8416139;0.029262546;;;;;;;;;;;;;;;
1638.0;1527.0;;;;-0.38304144;0.8402864;0.03092194;;;;;;;;;;;;;;;
1638.0;1527.0;;;;-0.3829232;0.83903897;0.032341007;;;;;;;;;;;;;;;
1638.0;1527.0;;;;-0.3824616;0.83724225;0.03335953;;;;;;;;;;;;;;;
1638.0;1527.0;;;;-0.3820458;0.8359376;0.03497315;;;;;;;;;;;;;;;
1638.0;1537.1;;;;-0.3818398;0.83449185;0.03547669;;;;;;;;;;;;;;;
1638.0;1537.1;;;;-0.38130575;0.8327409;0.036434177;;;;;;;;;;;;;;;
1638.0;1537.1;;;;-0.38076407;0.83132184;0.036838535;;;;;;;;;;;;;;;
1638.0;1537.1;;;;-0.37977225;0.82987225;0.03697968;;;;;;;;;;;;;;;
1638.0;1537.1;;;;-0.3790589;0.8286592;0.037830357;;;;;;;;;;;;;;;
1638.0;1539.4;262143;262143;12156;;;;;;;;;;;;;;;;;;
1642.0;1541.7;;;;;;;;;;;;;;;;;-40.715508;17.303995;49.81002;;1446.6
1642.0;1541.7;;;;;;;;;;;;;;0.8980987;0.072328866;-0.08709983;;;;;1446.6
1642.0;1541.7;;;;;;;;;;;;;;;;;-44.85839;15.690329;49.211098;;1446.6
1642.0;1541.7;;;;;;;;;;;;;;0.9072543;0.0740379;-0.09796441;;;;;1446.6
1642.0;1541.7;;;;;;;;;;;;;;;;;-47.25791;14.259773;48.71517;;1456.2
1642.0;1541.7;;;;;;;;;;;;;;0.92458874;0.073427536;-0.11651967;;;;;1456.2
1642.0;1541.7;;;;;;;;;;;;;;;;;-48.06284;13.985106;48.2078;;1456.2
1642.0;1541.7;;;;;;;;;;;;;;0.9406415;0.07306131;-0.10858486;;;;;1456.2
1642.0;1541.7;;;;;;;;;;;;;;;;;-47.93695;13.634145;47.63558;;1465.9
1642.0;1541.7;;;;;;;;;;;;;;0.9387494;0.06836146;-0.098025456;;;;;1465.9
1642.0;1541.7;;;;;;;;;;;;;;;;;-48.154392;11.799219;47.14728;;1465.9
1642.0;1541.7;;;;;;;;;;;;;;0.9479049;0.055787835;-0.10382397;;;;;1465.9
1642.0;1547.0;;;;-0.3782807;0.82771695;0.038486484;;;;;;;;;;;;;;;
1642.0;1547.0;;;;-0.37655646;0.8269998;0.03897095;;;;;;;;;;;;;;;
1642.0;1547.0;;;;-0.3750878;0.82646954;0.038959507;;;;;;;;;;;;;;;
1642.0;1547.0;;;;-0.37269977;0.82616055;0.039211277;;;;;;;;;;;;;;;
1642.0;1547.0;;;;-0.3708115;0.8260881;0.03922272;;;;;;;;;;;;;;;
1643.0;1549.6;;;;;;;;;;;;;;;;;-48.84869;9.983367;46.525467;;1475.4
1643.0;1549.6;;;;;;;;;;;;;;0.9492477;0.027588733;-0.096499525;;;;;1475.4
1643.0;1549.6;;;;;;;;;;;;;;;;;-48.337505;7.553331;46.109653;;1475.4
1643.0;1549.6;;;;;;;;;;;;;;0.9560839;-0.008423109;-0.10773034;;;;;1475.4
1643.0;1549.6;;;;;;;;;;;;;;;;;-46.903133;6.0464797;45.94943;;1485.1
1643.0;1549.6;;;;;;;;;;;;;;0.95327616;-0.040040284;-0.119754635;;;;;1485.1
1643.0;1549.6;;;;;;;;;;;;;;;;;-45.97995;5.157628;46.19739;;1485.1
1643.0;1549.6;;;;;;;;;;;;;;0.9522996;-0.075441755;-0.13574633;;;;;1485.1
1643.0;1549.6;;;;;;;;;;;;;;;;;-46.048615;5.5047765;46.6628;;1494.7
1643.0;1549.6;;;;;;;;;;;;;;0.9369793;-0.11017182;-0.12689596;;;;;1494.7
1643.0;1549.6;;;;;;;;;;;;;;;;;-47.490616;5.2072206;47.36854;;1494.7
1643.0;1549.6;;;;;;;;;;;;;;0.931547;-0.14880826;-0.11914426;;;;;1494.7
1643.0;1556.8;;;;-0.3683205;0.82613003;0.0396843;;;;;;;;;;;;;;;
1643.0;1556.8;;;;-0.36639407;0.82693875;0.03959656;;;;;;;;;;;;;;;
1643.0;1556.8;;;;-0.36428455;0.8278924;0.039802555;;;;;;;;;;;;;;;
1643.0;1556.8;;;;-0.36265185;0.8286096;0.039775852;;;;;;;;;;;;;;;
1643.0;1556.8;;;;-0.3611298;0.82956326;0.03944016;;;;;;;;;;;;;;;
1643.0;1559.2;262143;262143;12155;;;;;;;;;;;;;;;;;;
1643.0;1565.4;;;;;;;;;;;;;-3538;;;;;;;;
1643.0;1565.4;;;;;;;;;;;;;-12786;;;;;;;;
1643.0;1565.4;;;;;;;;;;;;;-18515;;;;;;;;
1643.0;1565.4;;;;;;;;;;;;;-14431;;;;;;;;
1643.0;1565.4;;;;;;;;;;;;;-3232;;;;;;;;
1692.0;1566.9;;;;-0.3600388;0.83064663;0.039524082;;;;;;;;;;;;;;;
1692.0;1566.9;;;;-0.35815814;0.8314172;0.038833622;;;;;;;;;;;;;;;
1692.0;1566.9;;;;-0.35697177;0.832039;0.039096836;;;;;;;;;;;;;;;
1692.0;1566.9;;;;-0.3556595;0.8325578;0.03848267;;;;;;;;;;;;;;;
1692.0;1566.9;;;;-0.35465243;0.83308804;0.03872681;;;;;;;;;;;;;;;
1692.0;1576.7;;;;-0.3536034;0.83293545;0.03905106;;;;;;;;;;;;;;;
1692.0;1576.7;;;;-0.352726;0.83324444;0.039031986;;;;;;;;;;;;;;;
1692.0;1576.7;;;;-0.35120776;0.83314526;0.03953171;;;;;;;;;;;;;;;
1692.0;1576.7;;;;-0.34985736;0.8329431;0.040134434;;;;;;;;;;;;;;;
1692.0;1576.7;;;;-0.34848407;0.83272564;0.041213993;;;;;;;;;;;;;;;
1692.0;1579.1;262143;262143;12151;;;;;;;;;;;;;;;;;;
1692.0;1586.8;;;;-0.34728244;0.83321774;0.042484287;;;;;;;;;;;;;;;
1692.0;1586.8;;;;-0.3456345;0.8342973;0.044563297;;;;;;;;;;;;;;;
1692.0;1586.8;;;;-0.34404758;0.8356782;0.04640198;;;;;;;;;;;;;;;
1692.0;1586.8;;;;-0.34313968;0.8375207;0.048553474;;;;;;;;;;;;;;;
1692.0;1586.8;;;;-0.3409653;0.8394624;0.049842842;;;;;;;;;;;;;;;
1692.0;1596.9;;;;-0.3398743;0.84235775;0.051933296;;;;;;;;;;;;;;;
1692.0;1596.9;;;;-0.33852008;0.8454591;0.054306038;;;;;;;;;;;;;;;
1692.0;1596.9;;;;-0.33662036;0.8493043;0.056884773;;;;;;;;;;;;;;;
1692.0;1596.9;;;;-0.3343201;0.85305035;0.05978013;;;;;;;;;;;;;;;
1692.0;1596.9;;;;-0.331955;0.8576852;0.062442787;;;;;;;;;;;;;;;
1697.0;1599.4;262143;262143;12150;;;;;;;;;;;;;;;;;;
1697.0;1605.5;;;;;;;;;;;;;6017;;;;;;;;
1697.0;1605.5;;;;;;;;;;;;;7838;;;;;;;;
1697.0;1605.5;;;;;;;;;;;;;5087;;;;;;;;
1697.0;1605.5;;;;;;;;;;;;;2912;;;;;;;;
1697.0;1605.5;;;;;;;;;;;;;2373;;;;;;;;
1697.0;1607.0;;;;-0.3302193;0.86195767;0.06508637;;;;;;;;;;;;;;;
1697.0;1607.0;;;;-0.32741168;0.86613476;0.068710335;;;;;;;;;;;;;;;
1697.0;1607.0;;;;-0.3249245;0.8696481;0.07115174;;;;;;;;;;;;;;;
1697.0;1607.0;;;;-0.32299426;0.87240994;0.07386399;;;;;;;;;;;;;;;
1697.0;1607.0;;;;-0.32127383;0.8742372;0.0763588;;;;;;;;;;;;;;;
1697.0;1617.0;;;;-0.31943515;0.87570584;0.07863236;;;;;;;;;;;;;;;
1697.0;1617.0;;;;-0.31740573;0.87555325;0.08120728;;;;;;;;;;;;;;;
1697.0;1617.0;;;;-0.31621173;0.8748094;0.08355332;;;;;;;;;;;;;;;
1697.0;1617.0;;;;-0.31510928;0.87288296;0.086334236;;;;;;;;;;;;;;;
1697.0;1617.0;;;;-0.31367496;0.87009823;0.0894127;;;;;;;;;;;;;;;
1753.0;1617.8;;;;;;;;;;;;;;;;;-50.13428;4.7074804;48.368023;;1504.3
1753.0;1617.8;;;;;;;;;;;;;;0.93398845;-0.18042544;-0.11316264;;;;;1504.3
1753.0;1617.8;;;;;;;;;;;;;;;;;-53.205208;4.8333693;49.71465;;1504.3
1753.0;1617.8;;;;;;;;;;;;;;0.933195;-0.21741386;-0.115421005;;;;;1504.3
1753.0;1617.8;;;;;;;;;;;;;;;;;-54.208504;4.4518876;51.084167;;1513.9
1753.0;1617.8;;;;;;;;;;;;;;0.93472093;-0.24097416;-0.12701803;;;;;1513.9
1753.0;1617.8;;;;;;;;;;;;;;;;;-54.177986;3.1281471;52.30491;;1513.9
1753.0;1617.8;;;;;;;;;;;;;;0.93594164;-0.25592822;-0.15674306;;;;;1513.9
1753.0;1617.8;;;;;;;;;;;;;;;;;-53.823208;1.9302957;53.590504;;1523.5
1753.0;1617.8;;;;;;;;;;;;;;0.93710136;-0.26075014;-0.17950988;;;;;1523.5
1753.0;1617.8;;;;;;;;;;;;;;;;;-54.162727;1.2054812;55.257576;;1523.5
1753.0;1617.8;;;;;;;;;;;;;;0.9400311;-0.26770836;-0.1871395;;;;;1523.5
1753.0;1619.4;262143;262143;12151;;;;;;;;;;;;;;;;;;
1753.0;1627.0;;;;-0.31271365;0.8670312;0.09275056;;;;;;;;;;;;;;;
1753.0;1627.0;;;;-0.31139377;0.8637849;0.09516908;;;;;;;;;;;;;;;
1753.0;1627.0;;;;-0.31024173;0.8601533;0.09793092;;;;;;;;;;;;;;;
1753.0;1627.0;;;;-0.30876544;0.85665905;0.1004944;;;;;;;;;;;;;;;
1753.0;1627.0;;;;-0.30768207;0.8537141;0.10321809;;;;;;;;;;;;;;;
1753.0;1637.0;;;;-0.30606464;0.8510896;0.10454179;;;;;;;;;;;;;;;
1753.0;1637.0;;;;-0.3043137;0.8495294;0.106842056;;;;;;;;;;;;;;;
1753.0;1637.0;;;;-0.30250552;0.8488656;0.108482376;;;;;;;;;;;;;;;
1753.0;1637.0;;;;-0.30071262;0.84884655;0.10979082;;;;;;;;;;;;;;;
1753.0;1637.0;;;;-0.2993851;0.8494607;0.11130525;;;;;;;;;;;;;;;
1757.0;1639.6;262143;262143;12145;;;;;;;;;;;;;;;;;;
1757.0;1645.7;;;;;;;;;;;;;1818;;;;;;;;
1757.0;1645.7;;;;;;;;;;;;;1104;;;;;;;;
1757.0;1645.7;;;;;;;;;;;;;703;;;;;;;;
1757.0;1645.7;;;;;;;;;;;;;228;;;;;;;;
1757.0;1645.7;;;;;;;;;;;;;-32;;;;;;;;
1757.0;1647.1;;;;-0.29798892;0.8506814;0.112209335;;;;;;;;;;;;;;;
1757.0;1647.1;;;;-0.29685977;0.85268795;0.11376192;;;;;;;;;;;;;;;
1757.0;1647.1;;;;-0.29590228;0.8558847;0.11481096;;;;;;;;;;;;;;;
1757.0;1647.1;;;;-0.2952042;0.8593904;0.11660005;;;;;;;;;;;;;;;
1757.0;1647.1;;;;-0.29420856;0.86337674;0.11797716;;;;;;;;;;;;;;;
1757.0;1657.2;;;;-0.29300693;0.8679162;0.120021835;;;;;;;;;;;;;;;
1757.0;1657.2;;;;-0.29247668;0.8725282;0.12200166;;;;;;;;;;;;;;;
1757.0;1657.2;;;;-0.29139712;0.87750256;0.12384035;;;;;;;;;;;;;;;
1757.0;1657.2;;;;-0.2905846;0.88199246;0.12471773;;;;;;;;;;;;;;;
1757.0;1657.2;;;;-0.28940204;0.88736737;0.12586214;;;;;;;;;;;;;;;
1757.0;1659.8;262143;262143;12156;;;;;;;;;;;;;;;;;;
1757.0;1667.2;;;;-0.28787234;0.89146817;0.12654497;;;;;;;;;;;;;;;
1757.0;1667.2;;;;-0.2875748;0.89597714;0.12700655;;;;;;;;;;;;;;;
1757.0;1667.2;;;;-0.28636554;0.90010846;0.12776567;;;;;;;;;;;;;;;
1757.0;1667.2;;;;-0.28463748;0.9040719;0.12846376;;;;;;;;;;;;;;;
1757.0;1667.2;;;;-0.28315738;0.90817654;0.1292534;;;;;;;;;;;;;;;
1813.0;1677.2;;;;-0.2812157;0.9120523;0.12973024;;;;;;;;;;;;;;;
1813.0;1677.2;;;;-0.27884296;0.91583264;0.13040926;;;;;;;;;;;;;;;
1813.0;1677.2;;;;-0.27673724;0.91951764;0.13095476;;;;;;;;;;;;;;;
1813.0;1677.2;;;;-0.27422717;0.92326367;0.13083269;;;;;;;;;;;;;;;
1813.0;1677.2;;;;-0.27160266;0.9264451;0.13043214;;;;;;;;;;;;;;;
1813.0;1679.8;262143;262143;12155;;;;;;;;;;;;;;;;;;
1813.0;1686.0;;;;;;;;;;;;;250;;;;;;;;
1813.0;1686.0;;;;;;;;;;;;;562;;;;;;;;
1813.0;1686.0;;;;;;;;;;;;;304;;;;;;;;
1813.0;1686.0;;;;;;;;;;;;;-638;;;;;;;;
1813.0;1686.0;;;;;;;;;;;;;-1696;;;;;;;;
1813.0;1687.3;;;;-0.2693291;0.92982113;0.1297455;;;;;;;;;;;;;;;
1813.0;1687.3;;;;-0.26749805;0.9334489;0.12960817;;;;;;;;;;;;;;;
1813.0;1687.3;;;;-0.2660561;0.937832;0.12912752;;;;;;;;;;;;;;;
1813.0;1687.3;;;;-0.26441577;0.9417268;0.12905504;;;;;;;;;;;;;;;
1813.0;1687.3;;;;-0.26335528;0.9461328;0.12979127;;;;;;;;;;;;;;;
1813.0;1697.2;;;;-0.26229098;0.95100796;0.13037874;;;;;;;;;;;;;;;
1813.0;1697.2;;;;-0.26095966;0.9564096;0.13159944;;;;;;;;;;;;;;;
1813.0;1697.2;;;;-0.25954822;0.9625169;0.13370134;;;;;;;;;;;;;;;
1813.0;1697.2;;;;-0.2582436;0.9690248;0.13670732;;;;;;;;;;;;;;;
1813.0;1697.2;;;;-0.25641254;0.9755784;0.1394539;;;;;;;;;;;;;;;
1813.0;1699.9;262143;262143;12161;;;;;;;;;;;;;;;;;;
1815.0;1707.3;;;;-0.25757602;0.9847146;0.14093782;;;;;;;;;;;;;;;
1815.0;1707.3;;;;-0.25701907;0.9921609;0.1415024;;;;;;;;;;;;;;;
1815.0;1707.3;;;;-0.25545505;0.9990312;0.14381029;;;;;;;;;;;;;;;
1815.0;1707.3;;;;-0.25397876;1.005005;0.14474489;;;;;;;;;;;;;;;
1815.0;1707.3;;;;-0.2518845;1.0095598;0.14567949;;;;;;;;;;;;;;;
1815.0;1717.5;;;;-0.24873737;1.0139581;0.14714052;;;;;;;;;;;;;;;
1815.0;1717.5;;;;-0.24486163;1.0166398;0.1494713;;;;;;;;;;;;;;;
1815.0;1717.5;;;;-0.2412186;1.0182954;0.15259172;;;;;;;;;;;;;;;
1815.0;1717.5;;;;-0.23831943;1.0183641;0.15579607;;;;;;;;;;;;;;;
1815.0;1717.5;;;;-0.2347298;1.0174714;0.15925981;;;;;;;;;;;;;;;
1815.0;1720.2;262143;262143;12152;;;;;;;;;;;;;;;;;;
1815.0;1726.3;;;;;;;;;;;;;-2591;;;;;;;;
1815.0;1726.3;;;;;;;;;;;;;-3589;;;;;;;;
1815.0;1726.3;;;;;;;;;;;;;-4534;;;;;;;;
1815.0;1726.3;;;;;;;;;;;;;-4782;;;;;;;;
1815.0;1726.3;;;;;;;;;;;;;-4247;;;;;;;;
1815.0;1727.6;;;;-0.230526;1.0151597;0.1622925;;;;;;;;;;;;;;;
1815.0;1727.6;;;;-0.2266083;1.0120851;0.16540147;;;;;;;;;;;;;;;
1815.0;1727.6;;;;-0.22227481;1.0079652;0.16834642;;;;;;;;;;;;;;;
1815.0;1727.6;;;;-0.21803668;1.0028192;0.17133333;;;;;;;;;;;;;;;
1815.0;1727.6;;;;-0.21454242;0.99723446;0.17419435;;;;;;;;;;;;;;;
1817.0;1730.2;;;;;;;;;;;;;;;;;-55.478832;1.5526291;56.878872;;1533.2
1817.0;1730.2;;;;;;;;;;;;;;0.9428999;-0.26606035;-0.1726127;;;;;1533.2
1817.0;1730.2;;;;;;;;;;;;;;;;;-58.27128;2.357555;58.393353;;1533.2
1817.0;1730.2;;;;;;;;;;;;;;0.9441206;-0.26722008;-0.14947966;;;;;1533.2
1817.0;1730.2;;;;;;;;;;;;;;;;;-61.80761;3.6431472;59.892574;;1542.9
1817.0;1730.2;;;;;;;;;;;;;;0.94863737;-0.25775933;-0.128605;;;;;1542.9
1817.0;1730.2;;;;;;;;;;;;;;;;;-64.775536;5.6001463;61.22776;;1542.9
1817.0;1730.2;;;;;;;;;;;;;;0.943144;-0.24268319;-0.10870693;;;;;1542.9
1817.0;1730.2;;;;;;;;;;;;;;;;;-66.75924;6.427961;62.12424;;1552.4
1817.0;1730.2;;;;;;;;;;;;;;0.94747764;-0.2196112;-0.101626635;;;;;1552.4
1817.0;1730.2;;;;;;;;;;;;;;;;;-67.45354;6.44322;62.35313;;1552.4
1817.0;1730.2;;;;;;;;;;;;;;0.94589067;-0.18909268;-0.12451552;;;;;1552.4
1817.0;1731.0;;;;;;;;;;;;;;;;;-66.461685;6.5691094;62.391277;;1562.1
1817.0;1731.0;;;;;;;;;;;;;;0.93081456;-0.16235848;-0.13989685;;;;;1562.1
1817.0;1731.0;;;;;;;;;;;;;;;;;-64.94339;5.2949615;62.208168;;1562.1
1817.0;1731.0;;;;;;;;;;;;;;0.92318493;-0.123661004;-0.16748558;;;;;1562.1
1817.0;1731.0;;;;;;;;;;;;;;;;;-64.73739;4.3565173;61.567276;;1571.7
1817.0;1731.0;;;;;;;;;;;;;;0.9124424;-0.08844264;-0.18335521;;;;;1571.7
1817.0;1731.0;;;;;;;;;;;;;;;;;-65.87421;3.9216285;60.972164;;1571.7
1817.0;1731.0;;;;;;;;;;;;;;0.9096347;-0.061952576;-0.18335521;;;;;1571.7
1817.0;1731.0;;;;;;;;;;;;;;;;;-67.01102;3.5744805;60.178684;;1581.4
1817.0;1731.0;;;;;;;;;;;;;;0.90572834;-0.035950806;-0.18189032;;;;;1581.4
1817.0;1731.0;;;;;;;;;;;;;;;;;-67.484055;3.1052582;58.668022;;1581.4
1817.0;1731.0;;;;;;;;;;;;;;0.90279853;-0.01861629;-0.18402661;;;;;1581.4
1835.0;1732.2;;;;;;;;;;;;;;;;;-66.961426;2.6703696;56.684315;;1591.0
1835.0;1732.2;;;;;;;;;;;;;;0.89474165;0.0017700735;-0.1953795;;;;;1591.0
1835.0;1732.2;;;;;;;;;;;;;;;;;-65.595726;1.5411848;54.414505;;1591.0
1835.0;1732.2;;;;;;;;;;;;;;0.88467056;0.021729179;-0.20404676;;;;;1591.0
1835.0;1732.2;;;;;;;;;;;;;;;;;-64.7412;-0.16022217;51.969208;;1600.7
1835.0;1732.2;;;;;;;;;;;;;;0.88253427;0.027344584;-0.19483016;;;;;1600.7
1835.0;1732.2;;;;;;;;;;;;;;;;;-63.222908;-1.1101108;49.329357;;1600.7
1835.0;1732.2;;;;;;;;;;;;;;0.89815974;0.0081789605;-0.17615284;;;;;1600.7
1835.0;1732.2;;;;;;;;;;;;;;;;;-59.65606;-2.521592;46.296577;;1610.4
1835.0;1732.2;;;;;;;;;;;;;;0.90755945;-0.0019531846;-0.17810602;;;;;1610.4
1835.0;1732.2;;;;;;;;;;;;;;;;;-56.10065;-4.6121097;43.15699;;1610.4
1835.0;1732.2;;;;;;;;;;;;;;0.9205603;-0.013428144;-0.21161534;;;;;1610.4
1835.0;1732.9;;;;;;;;;;;;;;;;;-55.352943;-2.2850735;40.437023;;1620.0
1835.0;1732.9;;;;;;;;;;;;;;0.95504624;-0.04687643;-0.119083226;;;;;1620.0
1835.0;1732.9;;;;;;;;;;;;;;;;;-55.978577;3.521073;37.480545;;1620.0
1835.0;1732.9;;;;;;;;;;;;;;0.9591357;-0.07013153;0.07892086;;;;;1620.0
1835.0;1732.9;;;;;;;;;;;;;;;;;-51.65639;1.0719626;33.730583;;1629.7
1835.0;1732.9;;;;;;;;;;;;;;0.97305214;-0.11328471;-0.0045777764;;;;;1629.7
1835.0;1732.9;;;;;;;;;;;;;;;;;-45.4268;-0.9956664;29.950102;;1629.7
1835.0;1732.9;;;;;;;;;;;;;;0.9992981;-0.14648885;-0.13592944;;;;;1629.7
1835.0;1732.9;;;;;;;;;;;;;;;;;-39.067505;0.3013703;27.26066;;1639.4
1835.0;1732.9;;;;;;;;;;;;;;1.0028993;-0.19562365;-0.18988617;;;;;1639.4
1835.0;1732.9;;;;;;;;;;;;;;;;;-35.081024;2.7314067;25.47914;;1639.4
1835.0;1732.9;;;;;;;;;;;;;;0.98013246;-0.22962126;-0.18720053;;;;;1639.4
1847.0;1733.7;;;;;;;;;;;;;;;;;-34.91699;3.971221;24.16303;;1649.1
1847.0;1733.7;;;;;;;;;;;;;;0.9495529;-0.25611132;-0.17157505;;;;;1649.1
1847.0;1733.7;;;;;;;;;;;;;;;;;-35.824913;3.4142585;22.930845;;1649.1
1847.0;1733.7;;;;;;;;;;;;;;0.91799676;-0.25702688;-0.17688528;;;;;1649.1
1847.0;1733.7;;;;;;;;;;;;;;;;;-35.93173;1.7319254;22.076328;;1658.7
1847.0;1733.7;;;;;;;;;;;;;;0.9057894;-0.24805444;-0.19861446;;;;;1658.7
1847.0;1733.7;;;;;;;;;;;;;;;;;-35.088654;2.2469254;21.473587;;1658.7
1847.0;1733.7;;;;;;;;;;;;;;0.8959014;-0.24787134;-0.18921477;;;;;1658.7
1847.0;1733.7;;;;;;;;;;;;;;;;;-33.26518;3.2044435;20.718252;;1668.4
1847.0;1733.7;;;;;;;;;;;;;;0.8916288;-0.24671163;-0.16394544;;;;;1668.4
1847.0;1733.7;;;;;;;;;;;;;;;;;-31.971954;3.4066288;19.928587;;1668.4
1847.0;1733.7;;;;;;;;;;;;;;0.88485366;-0.25330362;-0.16711935;;;;;1668.4
1847.0;1737.2;;;;-0.21072009;0.99131024;0.17635728;;;;;;;;;;;;;;;
1847.0;1737.2;;;;-0.20776752;0.98474896;0.17840578;;;;;;;;;;;;;;;
1847.0;1737.2;;;;-0.20423129;0.9782754;0.18044664;;;;;;;;;;;;;;;
1847.0;1737.2;;;;-0.2007294;0.9720994;0.1823578;;;;;;;;;;;;;;;
1847.0;1737.2;;;;-0.19772723;0.9658967;0.18358614;;;;;;;;;;;;;;;
1847.0;1737.2;;;;;;;;;;0.2517777;20.249031;-2.029481;;;;;;;;;
1847.0;1737.2;;;;;;;0.18604083;-0.8987701;0.2547075;;;;;;;;;;;;
1847.0;1737.2;;;;;;;;;;5.6230354;31.388287;5.1614428;;;;;;;;;
1847.0;1737.2;;;;;;;0.21521653;-1.0430616;0.26618245;;;;;;;;;;;;
1847.0;1740.0;262143;262143;12151;;;;;;;;;;;;;;;;;;
1873.0;1746.9;;;;;;;;;;1.7166661;3.8262582;3.78811;;;;;;;;;
1873.0;1746.9;;;;;;;0.22614215;-1.0956755;0.25666067;;;;;;;;;;;;
1873.0;1746.9;;;;;;;;;;6.6644797;24.498734;1.1177404;;;;;;;;;
1873.0;1746.9;;;;;;;0.23261207;-1.155797;0.25482956;;;;;;;;;;;;
1873.0;1747.3;;;;-0.19491199;0.9604913;0.18442918;;;;;;;;;;;;;;;
1873.0;1747.3;;;;-0.19198611;0.955433;0.18581773;;;;;;;;;;;;;;;
1873.0;1747.3;;;;-0.18983844;0.95116436;0.18680955;;;;;;;;;;;;;;;
1873.0;1747.3;;;;-0.18798068;0.947487;0.18738176;;;;;;;;;;;;;;;
1873.0;1747.3;;;;-0.18636324;0.9442674;0.1883736;;;;;;;;;;;;;;;
1873.0;1756.0;;;;;;;;;;7.629627;31.765953;-4.6464434;;;;;;;;;
1873.0;1756.0;;;;;;;0.23194067;-1.2104251;0.2603229;;;;;;;;;;;;
1873.0;1756.0;;;;;;;;;;3.566851;1.8463699;-31.025879;;;;;;;;;
1873.0;1756.0;;;;;;;0.23194067;-1.2471694;0.26227608;;;;;;;;;;;;
1873.0;1756.9;;;;-0.18533708;0.9418298;0.18940738;;;;;;;;;;;;;;;
1873.0;1756.9;;;;-0.18428041;0.94023144;0.18941882;;;;;;;;;;;;;;;
1873.0;1756.9;;;;-0.18410493;0.93896496;0.18973163;;;;;;;;;;;;;;;
1873.0;1756.9;;;;-0.18433;0.9383584;0.18997195;;;;;;;;;;;;;;;
1873.0;1756.9;;;;-0.18429185;0.93886197;0.19023898;;;;;;;;;;;;;;;
1873.0;1759.8;262143;262143;12158;;;;;;;;;;;;;;;;;;
1873.0;1765.6;;;;;;;;;;4.7189245;6.7751093;-37.053288;;;;;;;;;
1873.0;1765.6;;;;;;;0.2329783;-1.2592547;0.26252022;;;;;;;;;;;;
1873.0;1765.6;;;;;;;;;;6.0350356;11.581775;-42.622913;;;;;;;;;
1873.0;1765.6;;;;;;;0.2379223;-1.2444838;0.26172674;;;;;;;;;;;;
1874.0;1765.9;;;;;;;;;;;;;-3887;;;;;;;;
1874.0;1765.9;;;;;;;;;;;;;-4537;;;;;;;;
1874.0;1765.9;;;;;;;;;;;;;-5814;;;;;;;;
1874.0;1765.9;;;;;;;;;;;;;-6823;;;;;;;;
1874.0;1765.9;;;;;;;;;;;;;-7242;;;;;;;;
1874.0;1767.0;;;;-0.18489076;0.939644;0.18960574;;;;;;;;;;;;;;;
1874.0;1767.0;;;;-0.18486787;0.9409486;0.18841174;;;;;;;;;;;;;;;
1874.0;1767.0;;;;-0.18459322;0.94394314;0.18742372;;;;;;;;;;;;;;;
1874.0;1767.0;;;;-0.18455125;0.9474412;0.18498994;;;;;;;;;;;;;;;
1874.0;1767.0;;;;-0.18396379;0.9521104;0.18146135;;;;;;;;;;;;;;;
1874.0;1775.2;;;;;;;;;;6.9505906;22.690512;-41.13895;;;;;;;;;
1874.0;1775.2;;;;;;;0.24225593;-1.2129277;0.258858;;;;;;;;;;;;
1874.0;1775.2;;;;;;;;;;7.133702;31.193731;-35.573135;;;;;;;;;
1874.0;1775.2;;;;;;;0.24689475;-1.1731925;0.255562;;;;;;;;;;;;
1874.0;1777.1;;;;-0.18325807;0.9581834;0.17766191;;;;;;;;;;;;;;;
1874.0;1777.1;;;;-0.18302538;0.9659234;0.17369081;;;;;;;;;;;;;;;
1874.0;1777.1;;;;-0.18404008;0.9755746;0.16984178;;;;;;;;;;;;;;;
1874.0;1777.1;;;;-0.18561937;0.9872056;0.16646577;;;;;;;;;;;;;;;
1874.0;1777.1;;;;-0.18799594;1.0009309;0.16362382;;;;;;;;;;;;;;;
1874.0;1780.0;262143;262143;12146;;;;;;;;;;;;;;;;;;
1874.0;1784.8;;;;;;;;;;7.4274426;30.70925;-35.74862;;;;;;;;;
1874.0;1784.8;;;;;;;0.24890897;-1.1358379;0.25360882;;;;;;;;;;;;
1874.0;1784.8;;;;;;;;;;7.6258125;30.39262;-36.194954;;;;;;;;;
1874.0;1784.8;;;;;;;0.2515946;-1.1056246;0.2499466;;;;;;;;;;;;
1875.0;1787.2;;;;-0.1905289;1.0170594;0.1612816;;;;;;;;;;;;;;;
1875.0;1787.2;;;;-0.19249728;1.0345651;0.16006853;;;;;;;;;;;;;;;
1875.0;1787.2;;;;-0.1937752;1.0535928;0.15981676;;;;;;;;;;;;;;;
1875.0;1787.2;;;;-0.19360736;1.072918;0.16027452;;;;;;;;;;;;;;;
1875.0;1787.2;;;;-0.19260028;1.0916177;0.16069414;;;;;;;;;;;;;;;
1875.0;1789.9;;;;;;;;;;;;;;;;;-31.95288;3.7690358;19.302958;;1678.1
1875.0;1789.9;;;;;;;;;;;;;;0.8895535;-0.2730186;-0.17975402;;;;;1678.1
1875.0;1789.9;;;;;;;;;;;;;;;;;-32.319103;4.291665;18.65444;;1678.1
1875.0;1789.9;;;;;;;;;;;;;;0.8996857;-0.2855922;-0.19727165;;;;;1678.1
1875.0;1789.9;;;;;;;;;;;;;;;;;-32.883694;5.4589987;18.265327;;1687.6
1875.0;1789.9;;;;;;;;;;;;;;0.8907132;-0.28766748;-0.2247383;;;;;1687.6
1875.0;1789.9;;;;;;;;;;;;;;;;;-33.658104;6.672109;18.250069;;1687.6
1875.0;1789.9;;;;;;;;;;;;;;0.89059114;-0.27588734;-0.25232702;;;;;1687.6
1875.0;1789.9;;;;;;;;;;;;;;;;;-34.413433;7.3931093;18.150883;;1697.2
1875.0;1789.9;;;;;;;;;;;;;;0.89999086;-0.24665059;-0.2941374;;;;;1697.2
1875.0;1789.9;;;;;;;;;;;;;;;;;-34.981842;8.495589;17.727438;;1697.2
1875.0;1789.9;;;;;;;;;;;;;;0.9030427;-0.19196142;-0.3299051;;;;;1697.2
1876.0;1790.8;;;;;;;;;;;;;;;;;-35.97751;9.212775;17.246773;;1706.8
1876.0;1790.8;;;;;;;;;;;;;;0.9022492;-0.13879818;-0.35657826;;;;;1706.8
1876.0;1790.8;;;;;;;;;;;;;;;;;-36.57262;10.376293;16.449478;;1706.8
1876.0;1790.8;;;;;;;;;;;;;;0.90804774;-0.08264413;-0.34962004;;;;;1706.8
1876.0;1790.8;;;;;;;;;;;;;;;;;-37.003693;marras.17;15.869625;;1716.5
1876.0;1790.8;;;;;;;;;;;;;;0.93252355;-0.03155614;-0.31116673;;;;;1716.5
1876.0;1790.8;;;;;;;;;;;;;;;;;-37.617878;13.401441;15.327921;;1716.5
1876.0;1790.8;;;;;;;;;;;;;;0.9731132;0.018494217;-0.25782037;;;;;1716.5
1876.0;1790.8;;;;;;;;;;;;;;;;;-38.94925;14.786219;15.289773;;1726.1
1876.0;1790.8;;;;;;;;;;;;;;1.0259713;0.04773095;-0.22565386;;;;;1726.1
1876.0;1790.8;;;;;;;;;;;;;;;;;-40.62395;16.045107;15.316477;;1726.1
1876.0;1790.8;;;;;;;;;;;;;;1.0841396;0.078676715;-0.21387371;;;;;1726.1
1876.0;1794.3;;;;;;;;;;7.8356276;30.659657;-36.782433;;;;;;;;;
1876.0;1794.3;;;;;;;0.25849178;-1.084933;0.24665059;;;;;;;;;;;;
1876.0;1794.3;;;;;;;;;;8.053072;31.777397;-37.48436;;;;;;;;;
1876.0;1794.3;;;;;;;0.26984465;-1.0708945;0.24152349;;;;;;;;;;;;
1876.0;1797.2;;;;-0.19099048;1.1091539;0.16238405;;;;;;;;;;;;;;;
1876.0;1797.2;;;;-0.18898395;1.1255037;0.16403963;;;;;;;;;;;;;;;
1876.0;1797.2;;;;-0.18518068;1.1396524;0.16598512;;;;;;;;;;;;;;;
1876.0;1797.2;;;;-0.18493654;1.1502153;0.16911317;;;;;;;;;;;;;;;
1876.0;1797.2;;;;-0.18366624;1.1634866;0.17029192;;;;;;;;;;;;;;;
1876.0;1800.1;262143;262143;12146;;;;;;;;;;;;;;;;;;
1933.0;1803.9;;;;;;;;;;8.266702;33.692436;-38.243507;;;;;;;;;
1933.0;1803.9;;;;;;;0.2849208;-1.0638142;0.2405469;;;;;;;;;;;;
1933.0;1803.9;;;;;;;;;;8.438369;35.653248;-38.888214;;;;;;;;;
1933.0;1803.9;;;;;;;0.30030215;-1.0629597;0.23871578;;;;;;;;;;;;
1933.0;1806.2;;;;;;;;;;;;;-7131;;;;;;;;
1933.0;1806.2;;;;;;;;;;;;;-6280;;;;;;;;
1933.0;1806.2;;;;;;;;;;;;;-4535;;;;;;;;
1933.0;1806.2;;;;;;;;;;;;;-2577;;;;;;;;
1933.0;1806.2;;;;;;;;;;;;;-1380;;;;;;;;
1933.0;1807.3;;;;-0.18293001;1.1728402;0.17111208;;;;;;;;;;;;;;;
1933.0;1807.3;;;;-0.18222047;1.1794091;0.1725998;;;;;;;;;;;;;;;
1933.0;1807.3;;;;-0.18332674;1.1825067;0.17390062;;;;;;;;;;;;;;;
1933.0;1807.3;;;;-0.1819954;1.183056;0.17741396;;;;;;;;;;;;;;;
1933.0;1807.3;;;;-0.17961504;1.1835557;0.17985155;;;;;;;;;;;;;;;
1933.0;1813.3;;;;;;;;;;8.346813;37.736137;-39.330727;;;;;;;;;
1933.0;1813.3;;;;;;;0.31415755;-1.0704062;0.23895992;;;;;;;;;;;;
1933.0;1813.3;;;;;;;;;;8.156072;40.07843;-39.590134;;;;;;;;;
1933.0;1813.3;;;;;;;0.32386243;-1.0847499;0.23932615;;;;;;;;;;;;
1933.0;1817.1;;;;-0.17733766;1.1813127;0.18276598;;;;;;;;;;;;;;;
1933.0;1817.1;;;;-0.17272188;1.1739732;0.18986514;;;;;;;;;;;;;;;
1933.0;1817.1;;;;-0.17402269;1.1733552;0.19236377;;;;;;;;;;;;;;;
1933.0;1817.1;;;;-0.17200853;1.169552;0.18492891;;;;;;;;;;;;;;;
1933.0;1817.1;;;;-0.17312242;1.160843;0.1891518;;;;;;;;;;;;;;;
1933.0;1820.1;262143;262143;12156;;;;;;;;;;;;;;;;;;
1935.0;1822.9;;;;;;;;;;8.129368;42.47032;-39.872433;;;;;;;;;
1935.0;1822.9;;;;;;;0.33277383;-1.1056856;0.24176763;;;;;;;;;;;;
1935.0;1822.9;;;;;;;;;;8.18659;45.049133;-40.150913;;;;;;;;;
1935.0;1822.9;;;;;;;0.34302804;-1.1266212;0.24634542;;;;;;;;;;;;
1935.0;1827.2;;;;-0.17381288;1.1527978;0.1945763;;;;;;;;;;;;;;;
1935.0;1827.2;;;;-0.17467119;1.1438981;0.19677737;;;;;;;;;;;;;;;
1935.0;1827.2;;;;-0.17443086;1.1346399;0.19830325;;;;;;;;;;;;;;;
1935.0;1827.2;;;;-0.17388155;1.125374;0.20009616;;;;;;;;;;;;;;;
1935.0;1827.2;;;;-0.17453004;1.1164438;0.20206454;;;;;;;;;;;;;;;
1935.0;1832.5;;;;;;;;;;8.40022;48.02469;-40.601063;;;;;;;;;
1935.0;1832.5;;;;;;;0.347911;-1.1469467;0.24933623;;;;;;;;;;;;
1935.0;1832.5;;;;;;;;;;8.861812;51.255836;-41.19617;;;;;;;;;
1935.0;1832.5;;;;;;;0.35059664;-1.1635487;0.25342572;;;;;;;;;;;;
1935.0;1837.3;;;;-0.17618181;1.1076318;0.2037659;;;;;;;;;;;;;;;
1935.0;1837.3;;;;-0.1789055;1.0997354;0.205349;;;;;;;;;;;;;;;
1935.0;1837.3;;;;-0.18238069;1.092312;0.20631793;;;;;;;;;;;;;;;
1935.0;1837.3;;;;-0.18490602;1.0864068;0.2073212;;;;;;;;;;;;;;;
1935.0;1837.3;;;;-0.18624116;1.0813676;0.20771411;;;;;;;;;;;;;;;
1935.0;1840.4;262143;262143;12144;;;;;;;;;;;;;;;;;;
1935.0;1842.2;;;;;;;;;;9.434034;54.437393;-41.26484;;;;;;;;;
1935.0;1842.2;;;;;;;0.3518784;-1.1684927;0.25495163;;;;;;;;;;;;
1935.0;1842.2;;;;;;;;;;10.23896;57.287056;-41.268654;;;;;;;;;
1935.0;1842.2;;;;;;;0.35444197;-1.1659291;0.25360882;;;;;;;;;;;;
1941.0;1843.0;;;;;;;;;;;;;;;;;-44.694355;16.926329;15.003662;;1735.7
1941.0;1843.0;;;;;;;;;;;;;;1.137791;0.10382397;-0.2334666;;;;;1735.7
1941.0;1843.0;;;;;;;;;;;;;;;;;-52.75506;20.165104;14.1949215;;1735.7
1941.0;1843.0;;;;;;;;;;;;;;1.2074953;0.11487167;-0.23810542;;;;;1735.7
1941.0;1843.0;;;;;;;;;;;;;;;;;-61.92587;24.922176;12.119663;;1745.3
1941.0;1843.0;;;;;;;;;;;;;;1.2797022;0.11017182;-0.24243905;;;;;1745.3
1941.0;1843.0;;;;;;;;;;;;;;;;;-66.70202;23.228401;9.411145;;1745.3
1941.0;1843.0;;;;;;;;;;;;;;1.3498337;0.09063997;-0.32239753;;;;;1745.3
1941.0;1843.0;;;;;;;;;;;;;;;;;-68.25083;14.446699;7.106998;;1754.8
1941.0;1843.0;;;;;;;;;;;;;;1.4012269;0.06769005;-0.46498;;;;;1754.8
1941.0;1843.0;;;;;;;;;;;;;;;;;-71.970276;9.693442;6.324961;;1754.8
1941.0;1843.0;;;;;;;;;;;;;;1.3893247;0.08362072;-0.56337166;;;;;1754.8
1941.0;1843.8;;;;;;;;;;;;;;;;;-77.09739;13.248848;7.2786646;;1764.4
1941.0;1843.8;;;;;;;;;;;;;;1.3568529;0.11780145;-0.5338908;;;;;1764.4
1941.0;1843.8;;;;;;;;;;;;;;;;;-80.79775;21.290476;7.759331;;1764.4
1941.0;1843.8;;;;;;;;;;;;;;1.3221838;0.17664114;-0.4046144;;;;;1764.4
1941.0;1843.8;;;;;;;;;;;;;;;;;-81.94983;27.455214;6.1761837;;1774.1
1941.0;1843.8;;;;;;;;;;;;;;1.3053987;0.2511063;-0.2626423;;;;;1774.1
1941.0;1843.8;;;;;;;;;;;;;;;;;-80.59175;28.908659;2.0027773;;1774.1
1941.0;1843.8;;;;;;;;;;;;;;1.284463;0.3406476;-0.16827907;;;;;1774.1
1941.0;1843.8;;;;;;;;;;;;;;;;;-78.7263;24.872585;-1.9837031;;1783.8
1941.0;1843.8;;;;;;;;;;;;;;1.2466811;0.40089116;-0.19129002;;;;;1783.8
1941.0;1843.8;;;;;;;;;;;;;;;;;-75.32732;19.405958;-5.3636284;;1783.8
1941.0;1843.8;;;;;;;;;;;;;;1.2219001;0.41047394;-0.27887815;;;;;1783.8
1944.0;1846.2;;;;;;;;;;;;;-962;;;;;;;;
1944.0;1846.2;;;;;;;;;;;;;-417;;;;;;;;
1944.0;1846.2;;;;;;;;;;;;;199;;;;;;;;
1944.0;1846.2;;;;;;;;;;;;;115;;;;;;;;
1944.0;1846.2;;;;;;;;;;;;;46;;;;;;;;
1944.0;1847.2;;;;-0.18722154;1.0771524;0.20876697;;;;;;;;;;;;;;;
1944.0;1847.2;;;;-0.18830112;1.0743829;0.20980838;;;;;;;;;;;;;;;
1944.0;1847.2;;;;-0.18901446;1.0720025;0.21026233;;;;;;;;;;;;;;;
1944.0;1847.2;;;;-0.18989184;1.0704652;0.21100238;;;;;;;;;;;;;;;
1944.0;1847.2;;;;-0.19144824;1.0691224;0.21182635;;;;;;;;;;;;;;;
1944.0;1851.5;;;;;;;;;;10.898923;59.911648;-41.55095;;;;;;;;;
1944.0;1851.5;;;;;;;0.3541368;-1.1606189;0.24958037;;;;;;;;;;;;
1944.0;1851.5;;;;;;;;;;11.661885;62.574387;-41.871395;;;;;;;;;
1944.0;1851.5;;;;;;;0.35108495;-1.1568346;0.24744408;;;;;;;;;;;;
1944.0;1857.2;;;;-0.19270328;1.068287;0.21266559;;;;;;;;;;;;;;;
1944.0;1857.2;;;;-0.19416049;1.0682565;0.21371844;;;;;;;;;;;;;;;
1944.0;1857.2;;;;-0.19506839;1.0676805;0.21512607;;;;;;;;;;;;;;;
1944.0;1857.2;;;;-0.19643405;1.0667917;0.21698001;;;;;;;;;;;;;;;
1944.0;1857.2;;;;-0.19767764;1.0660936;0.2194443;;;;;;;;;;;;;;;
1944.0;1860.3;262143;262143;12153;;;;;;;;;;;;;;;;;;
1944.0;1861.0;;;;;;;;;;12.524033;65.22187;-42.05069;;;;;;;;;
1944.0;1861.0;;;;;;;0.34565264;-1.1501205;0.24335459;;;;;;;;;;;;
1944.0;1861.0;;;;;;;;;;13.363293;67.66335;-42.21473;;;;;;;;;
1944.0;1861.0;;;;;;;0.34205145;-1.1441389;0.23682363;;;;;;;;;;;;
1993.0;1867.3;;;;-0.19962695;1.0645219;0.22178271;;;;;;;;;;;;;;;
1993.0;1867.3;;;;-0.20160297;1.0625993;0.22480395;;;;;;;;;;;;;;;
1993.0;1867.3;;;;-0.20336917;1.0602266;0.22828296;;;;;;;;;;;;;;;
1993.0;1867.3;;;;-0.20479205;1.0564615;0.23161319;;;;;;;;;;;;;;;
1993.0;1867.3;;;;-0.20556644;1.0517732;0.23493579;;;;;;;;;;;;;;;
1993.0;1870.5;;;;;;;;;;14.175848;70.07431;-42.355877;;;;;;;;;
1993.0;1870.5;;;;;;;0.34022033;-1.1379131;0.22956023;;;;;;;;;;;;
1993.0;1870.5;;;;;;;;;;14.881589;72.35175;-42.504654;;;;;;;;;
1993.0;1870.5;;;;;;;0.3378399;-1.1254616;0.22138126;;;;;;;;;;;;
1993.0;1877.0;;;;-0.20569995;1.0460817;0.23817065;;;;;;;;;;;;;;;
1993.0;1877.0;;;;-0.20579532;1.0387613;0.24141315;;;;;;;;;;;;;;;
1993.0;1877.0;;;;-0.20595172;1.0306588;0.24521258;;;;;;;;;;;;;;;
1993.0;1877.0;;;;-0.20499805;1.0215493;0.24967578;;;;;;;;;;;;;;;
1993.0;1877.0;;;;-0.20474246;1.0112077;0.25336078;;;;;;;;;;;;;;;
1993.0;1879.9;;;;;;;;;;15.659811;74.65591;-42.60384;;;;;;;;;
1993.0;1879.9;;;;;;;0.3366802;-1.1154516;0.21308023;;;;;;;;;;;;
1993.0;1879.9;;;;;;;;;;16.342663;76.73116;-42.71447;;;;;;;;;
1993.0;1879.9;;;;;;;0.3376568;-1.1017792;0.20252083;;;;;;;;;;;;
1993.0;1880.2;262143;262143;12152;;;;;;;;;;;;;;;;;;
1993.0;1886.2;;;;;;;;;;;;;968;;;;;;;;
1993.0;1886.2;;;;;;;;;;;;;2322;;;;;;;;
1993.0;1886.2;;;;;;;;;;;;;2958;;;;;;;;
1993.0;1886.2;;;;;;;;;;;;;2551;;;;;;;;
1993.0;1886.2;;;;;;;;;;;;;2052;;;;;;;;
1999.0;1887.1;;;;-0.20438388;0.9999429;0.25747302;;;;;;;;;;;;;;;
1999.0;1887.1;;;;-0.20404819;0.9874612;0.26041034;;;;;;;;;;;;;;;
1999.0;1887.1;;;;-0.20286945;0.97423184;0.2630997;;;;;;;;;;;;;;;
1999.0;1887.1;;;;-0.20208743;0.96055615;0.26651004;;;;;;;;;;;;;;;
1999.0;1887.1;;;;-0.20082095;0.9465219;0.26984408;;;;;;;;;;;;;;;
1999.0;1889.5;;;;;;;;;;16.964476;78.810234;-42.916656;;;;;;;;;
1999.0;1889.5;;;;;;;0.3382061;-1.0906705;0.19037446;;;;;;;;;;;;
1999.0;1889.5;;;;;;;;;;17.620625;81.01138;-42.981506;;;;;;;;;
1999.0;1889.5;;;;;;;0.33753473;-1.0825526;0.17950988;;;;;;;;;;;;
1999.0;1897.2;;;;-0.19976428;0.93211377;0.27300647;;;;;;;;;;;;;;;
1999.0;1897.2;;;;-0.19832233;0.91796124;0.2758408;;;;;;;;;;;;;;;
1999.0;1897.2;;;;-0.1976662;0.9039041;0.27865604;;;;;;;;;;;;;;;
1999.0;1897.2;;;;-0.19614795;0.88941205;0.28133014;;;;;;;;;;;;;;;
1999.0;1897.2;;;;-0.19354251;0.87337506;0.2845383;;;;;;;;;;;;;;;
1999.0;1899.2;;;;;;;;;;18.307291;82.92642;-42.84799;;;;;;;;;
1999.0;1899.2;;;;;;;0.33393353;-1.0771203;0.17462692;;;;;;;;;;;;
1999.0;1899.2;;;;;;;;;;18.967255;84.124275;-42.641987;;;;;;;;;
1999.0;1899.2;;;;;;;0.32563248;-1.0768151;0.16730247;;;;;;;;;;;;
1999.0;1900.5;262143;262143;12149;;;;;;;;;;;;;;;;;;
2000.0;1902.7;;;;;;;;;;;;;;;;;-71.08142;17.139957;-10.986664;;1793.4
2000.0;1902.7;;;;;;;;;;;;;;1.2256234;0.40998566;-0.33893856;;;;;1793.4
2000.0;1902.7;;;;;;;;;;;;;;;;;-66.41591;18.574327;-18.791773;;1793.4
2000.0;1902.7;;;;;;;;;;;;;;1.254738;0.41883603;-0.3327128;;;;;1793.4
2000.0;1902.7;;;;;;;;;;;;;;;;;-61.677906;23.4344;-27.130957;;1802.9
2000.0;1902.7;;;;;;;;;;;;;;1.2955718;0.4141972;-0.28125858;;;;;1802.9
2000.0;1902.7;;;;;;;;;;;;;;;;;-56.77587;31.170843;-36.057617;;1802.9
2000.0;1902.7;;;;;;;;;;;;;;1.3229164;0.41425824;-0.22144231;;;;;1802.9
2000.0;1902.7;;;;;;;;;;;;;;;;;-53.73928;39.548172;-44.59517;;1812.6
2000.0;1902.7;;;;;;;;;;;;;;1.3013092;0.42396313;-0.1652272;;;;;1812.6
2000.0;1902.7;;;;;;;;;;;;;;;;;-52.877132;44.541763;-51.419872;;1812.6
2000.0;1902.7;;;;;;;;;;;;;;1.2699362;0.40290537;-0.16138189;;;;;1812.6
2000.0;1903.6;;;;;;;;;;;;;;;;;-50.485245;51.03839;-58.52687;;1822.3
2000.0;1903.6;;;;;;;;;;;;;;1.2738426;0.37415692;-0.13183996;;;;;1822.3
2000.0;1903.6;;;;;;;;;;;;;;;;;-45.178837;58.832058;-66.04206;;1822.3
2000.0;1903.6;;;;;;;;;;;;;;1.2570574;0.37244788;-0.07879879;;;;;1822.3
2000.0;1903.6;;;;;;;;;;;;;;;;;-41.280098;63.82946;-73.728905;;1831.9
2000.0;1903.6;;;;;;;;;;;;;;1.2606586;0.36805323;-0.019837031;;;;;1831.9
2000.0;1903.6;;;;;;;;;;;;;;;;;-41.405987;66.73254;-80.19501;;1831.9
2000.0;1903.6;;;;;;;;;;;;;;1.282876;0.32856226;-0.012268441;;;;;1831.9
2000.0;1903.6;;;;;;;;;;;;;;;;;-42.577137;73.41228;-87.36305;;1841.5
2000.0;1903.6;;;;;;;;;;;;;;1.2855006;0.300119;0.034669027;;;;;1841.5
2000.0;1903.6;;;;;;;;;;;;;;;;;-45.10254;76.91809;-94.68368;;1841.5
2000.0;1903.6;;;;;;;;;;;;;;1.2798243;0.26270333;0.031067843;;;;;1841.5
2001.0;1907.2;;;;-0.19271472;0.857834;0.28737262;;;;;;;;;;;;;;;
2001.0;1907.2;;;;-0.19142154;0.8433839;0.28907397;;;;;;;;;;;;;;;
2001.0;1907.2;;;;-0.18943027;0.82875454;0.29122165;;;;;;;;;;;;;;;
2001.0;1907.2;;;;-0.1892052;0.81367123;0.2930756;;;;;;;;;;;;;;;
2001.0;1907.2;;;;-0.18999866;0.79851925;0.29464725;;;;;;;;;;;;;;;
2001.0;1908.7;;;;;;;;;;19.806513;84.96735;-42.38258;;;;;;;;;
2001.0;1908.7;;;;;;;0.3188574;-1.0822474;0.1612598;;;;;;;;;;;;
2001.0;1908.7;;;;;;;;;;20.695364;85.425125;-42.226173;;;;;;;;;
2001.0;1908.7;;;;;;;0.30927458;-1.0929289;0.15424055;;;;;;;;;;;;
2001.0;1917.1;;;;-0.18898395;0.783043;0.29669574;;;;;;;;;;;;;;;
2001.0;1917.1;;;;-0.18914416;0.7668077;0.2977486;;;;;;;;;;;;;;;
2001.0;1917.1;;;;-0.19113544;0.75162137;0.2981682;;;;;;;;;;;;;;;
2001.0;1917.1;;;;-0.19063953;0.73764807;0.2986298;;;;;;;;;;;;;;;
2001.0;1917.1;;;;-0.19135287;0.7229882;0.29942325;;;;;;;;;;;;;;;
2001.0;1918.1;;;;;;;;;;21.71392;85.703606;-42.157505;;;;;;;;;
2001.0;1918.1;;;;;;;0.3027436;-1.1040987;0.14777063;;;;;;;;;;;;
2001.0;1918.1;;;;;;;;;;22.759178;85.92868;-41.96295;;;;;;;;;
2001.0;1918.1;;;;;;;0.30268258;-1.1173437;0.14404736;;;;;;;;;;;;
2001.0;1920.5;262143;262143;12148;;;;;;;;;;;;;;;;;;
2001.0;1926.5;;;;;;;;;;;;;2055;;;;;;;;
2001.0;1926.5;;;;;;;;;;;;;1995;;;;;;;;
2001.0;1926.5;;;;;;;;;;;;;1659;;;;;;;;
2001.0;1926.5;;;;;;;;;;;;;1510;;;;;;;;
2001.0;1926.5;;;;;;;;;;;;;1436;;;;;;;;
2055.0;1927.3;;;;-0.19323733;0.70908743;0.29922107;;;;;;;;;;;;;;;
2055.0;1927.3;;;;-0.19436648;0.69636923;0.29835132;;;;;;;;;;;;;;;
2055.0;1927.3;;;;-0.19477084;0.6844025;0.2972603;;;;;;;;;;;;;;;
2055.0;1927.3;;;;-0.19658664;0.67329794;0.29579547;;;;;;;;;;;;;;;
2055.0;1927.3;;;;-0.19755939;0.6640168;0.29268268;;;;;;;;;;;;;;;
2055.0;1927.8;;;;;;;;;;24.113438;85.97064;-41.844692;;;;;;;;;
2055.0;1927.8;;;;;;;0.30860317;-1.132725;0.13812678;;;;;;;;;;;;
2055.0;1927.8;;;;;;;;;;25.456251;85.60061;-41.99347;;;;;;;;;
2055.0;1927.8;;;;;;;0.3160497;-1.1485946;0.13696708;;;;;;;;;;;;
2055.0;1937.1;;;;-0.19874194;0.6556092;0.2895508;;;;;;;;;;;;;;;
2055.0;1937.1;;;;-0.19900134;0.64926916;0.28654864;;;;;;;;;;;;;;;
2055.0;1937.1;;;;-0.19894794;0.64430624;0.28273395;;;;;;;;;;;;;;;
2055.0;1937.1;;;;-0.19821551;0.64176565;0.27842334;;;;;;;;;;;;;;;
2055.0;1937.1;;;;-0.19779971;0.64062506;0.27346423;;;;;;;;;;;;;;;
2055.0;1937.1;;;;;;;;;;26.795252;84.982605;-42.241432;;;;;;;;;
2055.0;1937.1;;;;;;;0.31995606;-1.1636708;0.13580737;;;;;;;;;;;;
2055.0;1937.1;;;;;;;;;;28.466139;84.30738;-42.447433;;;;;;;;;
2055.0;1937.1;;;;;;;0.3173925;-1.1761223;0.13531907;;;;;;;;;;;;
2055.0;1940.4;262143;262143;12152;;;;;;;;;;;;;;;;;;
2055.0;1946.7;;;;;;;;;;30.285805;83.13242;-42.56188;;;;;;;;;
2055.0;1946.7;;;;;;;0.31373027;-1.1841792;0.13483077;;;;;;;;;;;;
2055.0;1946.7;;;;;;;;;;32.097843;81.25172;-42.69158;;;;;;;;;
2055.0;1946.7;;;;;;;0.30664998;-1.1865597;0.13287759;;;;;;;;;;;;
2057.0;1947.2;;;;-0.19746783;0.6412774;0.2686005;;;;;;;;;;;;;;;
2057.0;1947.2;;;;-0.19629672;0.64389807;0.26293185;;;;;;;;;;;;;;;
2057.0;1947.2;;;;-0.19520953;0.6477738;0.25730518;;;;;;;;;;;;;;;
2057.0;1947.2;;;;-0.19350055;0.6539994;0.25143817;;;;;;;;;;;;;;;
2057.0;1947.2;;;;-0.19172671;0.66143805;0.24536899;;;;;;;;;;;;;;;
2057.0;1956.4;;;;;;;;;;33.82977;78.859825;-42.878506;;;;;;;;;
2057.0;1956.4;;;;;;;0.2992645;-1.1807001;0.12738426;;;;;;;;;;;;
2057.0;1956.4;;;;;;;;;;35.56169;76.11317;-43.16462;;;;;;;;;
2057.0;1956.4;;;;;;;0.29474777;-1.1792352;0.118228704;;;;;;;;;;;;
2057.0;1957.3;;;;-0.19137958;0.66982657;0.23921207;;;;;;;;;;;;;;;
2057.0;1957.3;;;;-0.19105533;0.67961127;0.23395923;;;;;;;;;;;;;;;
2057.0;1957.3;;;;-0.19139865;0.6900521;0.22856525;;;;;;;;;;;;;;;
2057.0;1957.3;;;;-0.19202808;0.7014008;0.22383884;;;;;;;;;;;;;;;
2057.0;1957.3;;;;-0.19277957;0.7133599;0.21908191;;;;;;;;;;;;;;;
2057.0;1960.7;262143;262143;12157;;;;;;;;;;;;;;;;;;
2058.0;1963.4;;;;;;;;;;;;;;;;;-50.984985;80.19882;-103.84304;;1851.2
2058.0;1963.4;;;;;;;;;;;;;;1.2423475;0.24445327;0.018311106;;;;;1851.2
2058.0;1963.4;;;;;;;;;;;;;;;;;-58.24076;77.76117;-111.785484;;1851.2
2058.0;1963.4;;;;;;;;;;;;;;1.2679831;0.19403668;-0.034363844;;;;;1851.2
2058.0;1963.4;;;;;;;;;;;;;;;;;-65.34013;73.721275;-119.129005;;1860.7
2058.0;1963.4;;;;;;;;;;;;;;1.2493057;0.16925566;-0.14209418;;;;;1860.7
2058.0;1963.4;;;;;;;;;;;;;;;;;-73.557236;75.88046;-124.51933;;1860.7
2058.0;1963.4;;;;;;;;;;;;;;1.1403546;0.18127994;-0.17023225;;;;;1860.7
2058.0;1963.4;;;;;;;;;;;;;;;;;-80.896935;71.886345;-124.988556;;1870.4
2058.0;1963.4;;;;;;;;;;;;;;1.0557573;0.19013031;-0.21143223;;;;;1870.4
2058.0;1963.4;;;;;;;;;;;;;;;;;-85.860016;65.72924;-124.988556;;1870.4
2058.0;1963.4;;;;;;;;;;;;;;0.9767754;0.19379254;-0.28528702;;;;;1870.4
2058.0;1964.2;;;;;;;;;;;;;;;;;-86.79846;59.907833;-124.988556;;1880.0
2058.0;1964.2;;;;;;;;;;;;;;0.9063387;0.20203254;-0.33558154;;;;;1880.0
2058.0;1964.2;;;;;;;;;;;;;;;;;-83.15913;47.650837;-124.988556;;1880.0
2058.0;1964.2;;;;;;;;;;;;;;0.8567156;0.18970306;-0.41407514;;;;;1880.0
2058.0;1964.2;;;;;;;;;;;;;;;;;-75.0679;29.869991;-124.988556;;1889.6
2058.0;1964.2;;;;;;;;;;;;;;0.7975097;0.1897641;-0.51240575;;;;;1889.6
2058.0;1964.2;;;;;;;;;;;;;;;;;-65.24476;8.251442;-124.988556;;1889.6
2058.0;1964.2;;;;;;;;;;;;;;0.76418346;0.21985534;-0.57136756;;;;;1889.6
2058.0;1964.2;;;;;;;;;;;;;;;;;-58.618427;-12.348553;-124.988556;;1899.3
2058.0;1964.2;;;;;;;;;;;;;;0.7981811;0.23071994;-0.64754176;;;;;1899.3
2058.0;1964.2;;;;;;;;;;;;;;;;;-52.28202;-23.701437;-124.988556;;1899.3
2058.0;1964.2;;;;;;;;;;;;;;0.9021882;0.19190039;-0.6646931;;;;;1899.3
2063.0;1965.9;;;;;;;;;;37.141026;73.10327;-43.66436;;;;;;;;;
2063.0;1965.9;;;;;;;0.2906583;-1.177282;0.107852414;;;;;;;;;;;;
2063.0;1965.9;;;;;;;;;;38.632618;69.841606;-44.495987;;;;;;;;;
2063.0;1965.9;;;;;;;0.29151282;-1.1760613;0.091677606;;;;;;;;;;;;
2063.0;1966.6;;;;;;;;;;;;;880;;;;;;;;
2063.0;1966.6;;;;;;;;;;;;;133;;;;;;;;
2063.0;1966.6;;;;;;;;;;;;;-225;;;;;;;;
2063.0;1966.6;;;;;;;;;;;;;-522;;;;;;;;
2063.0;1966.6;;;;;;;;;;;;;-1057;;;;;;;;
2063.0;1967.3;;;;-0.19355777;0.7255898;0.21430972;;;;;;;;;;;;;;;
2063.0;1967.3;;;;-0.19375613;0.7381707;0.20990375;;;;;;;;;;;;;;;
2063.0;1967.3;;;;-0.19386294;0.75039685;0.20601657;;;;;;;;;;;;;;;
2063.0;1967.3;;;;-0.19324496;0.7630273;0.20222476;;;;;;;;;;;;;;;
2063.0;1967.3;;;;-0.19281009;0.7757379;0.19887927;;;;;;;;;;;;;;;
2063.0;1975.5;;;;;;;;;;40.169987;66.66387;-45.457317;;;;;;;;;
2063.0;1975.5;;;;;;;0.29450363;-1.1789911;0.077883236;;;;;;;;;;;;
2063.0;1975.5;;;;;;;;;;41.539505;63.82946;-46.231728;;;;;;;;;
2063.0;1975.5;;;;;;;0.2995697;-1.1778314;0.066286206;;;;;;;;;;;;
2063.0;1977.4;;;;-0.19236377;0.788334;0.195797;;;;;;;;;;;;;;;
2063.0;1977.4;;;;-0.19154742;0.8004724;0.19253924;;;;;;;;;;;;;;;
2063.0;1977.4;;;;-0.19128802;0.812523;0.19072726;;;;;;;;;;;;;;;
2063.0;1977.4;;;;-0.19112018;0.82499707;0.1896477;;;;;;;;;;;;;;;
2063.0;1977.4;;;;-0.19161609;0.83729565;0.18915942;;;;;;;;;;;;;;;
2063.0;1980.7;262143;262143;12162;;;;;;;;;;;;;;;;;;
2114.0;1985.0;;;;;;;;;;42.531357;61.35365;-46.720024;;;;;;;;;
2114.0;1985.0;;;;;;;0.3096408;-1.1728263;0.05597095;;;;;;;;;;;;
2114.0;1985.0;;;;;;;;;;43.370617;58.931244;-47.055725;;;;;;;;;
2114.0;1985.0;;;;;;;0.31586656;-1.1650746;0.045960877;;;;;;;;;;;;
2114.0;1987.4;;;;-0.19293597;0.849846;0.19043353;;;;;;;;;;;;;;;
2114.0;1987.4;;;;-0.19446185;0.8626214;0.19245532;;;;;;;;;;;;;;;
2114.0;1987.4;;;;-0.19581607;0.8761064;0.19597247;;;;;;;;;;;;;;;
2114.0;1987.4;;;;-0.19745639;0.8898202;0.2005997;;;;;;;;;;;;;;;
2114.0;1987.4;;;;-0.2004967;0.90399563;0.20682529;;;;;;;;;;;;;;;
2114.0;1994.4;;;;;;;;;;44.091618;56.634724;-47.20832;;;;;;;;;
2114.0;1994.4;;;;;;;0.3239845;-1.1543932;0.03955199;;;;;;;;;;;;
2114.0;1994.4;;;;;;;;;;44.57991;54.35728;-47.448654;;;;;;;;;
2114.0;1994.4;;;;;;;0.33021027;-1.1376079;0.03442488;;;;;;;;;;;;
2114.0;1997.3;;;;-0.20335391;0.9188577;0.21372607;;;;;;;;;;;;;;;
2114.0;1997.3;;;;-0.20632175;0.9345819;0.22125629;;;;;;;;;;;;;;;
2114.0;1997.3;;;;-0.2095299;0.9501077;0.22828296;;;;;;;;;;;;;;;
2114.0;1997.3;;;;-0.21281436;0.96584713;0.23577884;;;;;;;;;;;;;;;
2114.0;1997.3;;;;-0.2159386;0.98111737;0.24361423;;;;;;;;;;;;;;;
2114.0;2000.8;262143;262143;12163;;;;;;;;;;;;;;;;;;
2114.0;2004.0;;;;;;;;;;44.854576;52.2248;-48.081913;;;;;;;;;
2114.0;2004.0;;;;;;;0.33411664;-1.1205786;0.03070162;;;;;;;;;;;;
2114.0;2004.0;;;;;;;;;;45.121616;50.31739;-48.85632;;;;;;;;;
2114.0;2004.0;;;;;;;0.3376568;-1.101291;0.031006806;;;;;;;;;;;;
2116.0;2006.8;;;;;;;;;;;;;-1217;;;;;;;;
2116.0;2006.8;;;;;;;;;;;;;-221;;;;;;;;
2116.0;2006.8;;;;;;;;;;;;;1351;;;;;;;;
2116.0;2006.8;;;;;;;;;;;;;1689;;;;;;;;
2116.0;2006.8;;;;;;;;;;;;;562;;;;;;;;
2116.0;2007.4;;;;-0.21836093;0.9965745;0.2522507;;;;;;;;;;;;;;;
2116.0;2007.4;;;;-0.21959308;1.0119325;0.2603722;;;;;;;;;;;;;;;
2116.0;2007.4;;;;-0.22023013;1.0254785;0.2684479;;;;;;;;;;;;;;;
2116.0;2007.4;;;;-0.221077;1.0377618;0.2763405;;;;;;;;;;;;;;;
2116.0;2007.4;;;;-0.22204211;1.049122;0.28466037;;;;;;;;;;;;;;;
2116.0;2013.7;;;;;;;;;;45.159763;48.780025;-49.74517;;;;;;;;;
2116.0;2013.7;;;;;;;0.33832818;-1.0857875;0.028199103;;;;;;;;;;;;
2116.0;2013.7;;;;;;;;;;44.942318;47.482986;-50.60732;;;;;;;;;
2116.0;2013.7;;;;;;;0.34101382;-1.0703452;0.03180029;;;;;;;;;;;;
2116.0;2017.5;;;;-0.22264484;1.0586854;0.29296497;;;;;;;;;;;;;;;
2116.0;2017.5;;;;-0.2229195;1.0665933;0.30009082;;;;;;;;;;;;;;;
2116.0;2017.5;;;;-0.22269443;1.0721055;0.30843738;;;;;;;;;;;;;;;
2116.0;2017.5;;;;-0.22143558;1.075348;0.31572345;;;;;;;;;;;;;;;
2116.0;2017.5;;;;-0.22173694;1.0772973;0.3223267;;;;;;;;;;;;;;;
2116.0;2021.1;262143;262143;12158;;;;;;;;;;;;;;;;;;
2117.0;2023.3;;;;;;;;;;;;;;;;;-39.773247;-29.934843;-124.988556;;1909.0
2117.0;2023.3;;;;;;;;;;;;;;1.0877407;0.13476974;-0.7017426;;;;;1909.0
2117.0;2023.3;;;;;;;;;;;;;;;;;-26.963104;-29.694511;-124.988556;;1909.0
2117.0;2023.3;;;;;;;;;;;;;;1.4057436;0.09424116;-0.69808036;;;;;1909.0
2117.0;2023.3;;;;;;;;;;;;;;;;;-21.72155;-31.273842;-124.988556;;1918.7
2117.0;2023.3;;;;;;;;;;;;;;1.840083;0.017151402;-0.74257636;;;;;1918.7
2117.0;2023.3;;;;;;;;;;;;;;;;;-18.51329;-26.940214;-124.93515;;1918.7
2117.0;2023.3;;;;;;;;;;;;;;1.9971312;-0.084231086;-0.8163091;;;;;1918.7
2117.0;2023.3;;;;;;;;;;;;;;;;;-17.31544;-16.544847;-122.07022;;1928.2
2117.0;2023.3;;;;;;;;;;;;;;1.9971312;-0.16772974;-0.8637959;;;;;1928.2
2117.0;2023.3;;;;;;;;;;;;;;;;;-19.775993;-8.472701;-116.84393;;1928.2
2117.0;2023.3;;;;;;;;;;;;;;1.9971312;-0.2544023;-0.91848505;;;;;1928.2
2117.0;2023.2;;;;;;;;;;44.774467;46.071503;-51.49617;;;;;;;;;
2117.0;2023.2;;;;;;;0.34546953;-1.056856;0.032227546;;;;;;;;;;;;
2117.0;2023.2;;;;;;;;;;44.49217;44.545578;-52.404095;;;;;;;;;
2117.0;2023.2;;;;;;;0.34717858;-1.0447096;0.03521836;;;;;;;;;;;;
2118.0;2024.0;;;;;;;;;;;;;;;;;-26.72277;0.90029603;-116.38997;;1937.9
2118.0;2024.0;;;;;;;;;;;;;;1.9971312;-0.3592639;-0.9812311;;;;;1937.9
2118.0;2024.0;;;;;;;;;;;;;;;;;-46.59032;29.114658;-123.13837;;1937.9
2118.0;2024.0;;;;;;;;;;;;;;1.7753227;-0.46290475;-0.95364237;;;;;1937.9
2118.0;2024.0;;;;;;;;;;;;;;;;;-72.60353;70.93646;-124.988556;;1947.6
2118.0;2024.0;;;;;;;;;;;;;;1.373394;-0.34815517;-0.60444957;;;;;1947.6
2118.0;2024.0;;;;;;;;;;;;;;;;;-82.674644;90.43015;-124.988556;;1947.6
2118.0;2024.0;;;;;;;;;;;;;;1.4020203;-0.24231696;-0.20484024;;;;;1947.6
2118.0;2024.0;;;;;;;;;;;;;;;;;-72.54631;70.20402;-124.988556;;1957.3
2118.0;2024.0;;;;;;;;;;;;;;1.5638905;-0.32856226;-0.07605213;;;;;1957.3
2118.0;2024.0;;;;;;;;;;;;;;;;;-69.02142;51.33595;-124.988556;;1957.3
2118.0;2024.0;;;;;;;;;;;;;;1.549913;-0.24201179;-0.2515946;;;;;1957.3
2118.0;2027.4;;;;-0.22156528;1.077099;0.3292351;;;;;;;;;;;;;;;
2118.0;2027.4;;;;-0.2207146;1.0746843;0.33576205;;;;;;;;;;;;;;;
2118.0;2027.4;;;;-0.22079852;1.071026;0.34199527;;;;;;;;;;;;;;;
2118.0;2027.4;;;;-0.22109225;1.0652658;0.34805682;;;;;;;;;;;;;;;
2118.0;2027.4;;;;-0.22241595;1.0579988;0.3535271;;;;;;;;;;;;;;;
2118.0;2032.7;;;;;;;;;;44.175545;43.256172;-53.30058;;;;;;;;;
2118.0;2032.7;;;;;;;0.34565264;-1.0298166;0.03686636;;;;;;;;;;;;
2118.0;2032.7;;;;;;;;;;43.83984;42.30247;-54.14747;;;;;;;;;
2118.0;2032.7;;;;;;;0.34528643;-1.0192572;0.03747673;;;;;;;;;;;;
2175.0;2037.5;;;;-0.2240639;1.0497895;0.35956958;;;;;;;;;;;;;;;
2175.0;2037.5;;;;-0.22594455;1.040474;0.36522296;;;;;;;;;;;;;;;
2175.0;2037.5;;;;-0.22794345;1.0307733;0.36997226;;;;;;;;;;;;;;;
2175.0;2037.5;;;;-0.23033527;1.0208093;0.37378314;;;;;;;;;;;;;;;
2175.0;2037.5;;;;-0.23298648;1.0109407;0.37779242;;;;;;;;;;;;;;;
2175.0;2041.0;262143;262143;12158;;;;;;;;;;;;;;;;;;
2175.0;2042.2;;;;;;;;;;43.370617;41.337322;-54.92187;;;;;;;;;
2175.0;2042.2;;;;;;;0.34736168;-1.0039979;0.040467545;;;;;;;;;;;;
2175.0;2042.2;;;;;;;;;;42.947174;40.383617;-55.70772;;;;;;;;;
2175.0;2042.2;;;;;;;0.34632406;-0.990936;0.043946654;;;;;;;;;;;;
2175.0;2047.0;;;;;;;;;;;;;-276;;;;;;;;
2175.0;2047.0;;;;;;;;;;;;;59;;;;;;;;
2175.0;2047.0;;;;;;;;;;;;;919;;;;;;;;
2175.0;2047.0;;;;;;;;;;;;;1842;;;;;;;;
2175.0;2047.0;;;;;;;;;;;;;2673;;;;;;;;
2175.0;2047.5;;;;-0.23471072;1.0014459;0.38100058;;;;;;;;;;;;;;;
2175.0;2047.5;;;;-0.23646548;0.9922639;0.38344198;;;;;;;;;;;;;;;
2175.0;2047.5;;;;-0.23762134;0.9838067;0.3859864;;;;;;;;;;;;;;;
2175.0;2047.5;;;;-0.23877719;0.97610104;0.38727194;;;;;;;;;;;;;;;
2175.0;2047.5;;;;-0.2393761;0.96847546;0.38903052;;;;;;;;;;;;;;;
2175.0;2051.6;;;;;;;;;;42.432175;39.63973;-56.550797;;;;;;;;;
2175.0;2051.6;;;;;;;0.3482162;-0.97866756;0.046815395;;;;;;;;;;;;
2175.0;2051.6;;;;;;;;;;41.76458;39.033173;-57.348095;;;;;;;;;
2175.0;2051.6;;;;;;;0.34882656;-0.966155;0.04876858;;;;;;;;;;;;
2176.0;2057.3;;;;-0.23985675;0.96148694;0.39043814;;;;;;;;;;;;;;;
2176.0;2057.3;;;;-0.241169;0.9557687;0.39077765;;;;;;;;;;;;;;;
2176.0;2057.3;;;;-0.24109653;0.95007336;0.39170462;;;;;;;;;;;;;;;
2176.0;2057.3;;;;-0.24226382;0.9446794;0.39223105;;;;;;;;;;;;;;;
2176.0;2057.3;;;;-0.2416344;0.93956006;0.39324957;;;;;;;;;;;;;;;
2176.0;2061.1;;;;;;;;;;41.116062;38.6021;-58.15302;;;;;;;;;
2176.0;2061.1;;;;;;;0.34949797;-0.9517502;0.050355542;;;;;;;;;;;;
2176.0;2061.1;;;;;;;;;;40.498062;38.502914;-58.80917;;;;;;;;;
2176.0;2061.1;;;;;;;0.3503525;-0.9358806;0.051637318;;;;;;;;;;;;
2176.0;2061.0;262143;262143;12161;;;;;;;;;;;;;;;;;;
2176.0;2067.4;;;;-0.24096683;0.934559;0.3940583;;;;;;;;;;;;;;;
2176.0;2067.4;;;;-0.24083713;0.9309999;0.394188;;;;;;;;;;;;;;;
2176.0;2067.4;;;;-0.24080661;0.9270326;0.39387518;;;;;;;;;;;;;;;
2176.0;2067.4;;;;-0.24125293;0.9221536;0.39371878;;;;;;;;;;;;;;;
2176.0;2067.4;;;;-0.24074176;0.91710293;0.3936234;;;;;;;;;;;;;;;
2176.0;2070.8;;;;;;;;;;39.757988;38.571583;-59.26313;;;;;;;;;
2176.0;2070.8;;;;;;;0.3505356;-0.92245245;0.05224769;;;;;;;;;;;;
2176.0;2070.8;;;;;;;;;;39.002655;38.800472;-59.518726;;;;;;;;;
2176.0;2070.8;;;;;;;0.35193944;-0.9088412;0.053956725;;;;;;;;;;;;
2178.0;2077.6;;;;-0.24134067;0.911976;0.39394766;;;;;;;;;;;;;;;
2178.0;2077.6;;;;-0.24237064;0.90721524;0.39489752;;;;;;;;;;;;;;;
2178.0;2077.6;;;;-0.24170688;0.9023019;0.39602286;;;;;;;;;;;;;;;
2178.0;2077.6;;;;-0.24245837;0.8966905;0.39857107;;;;;;;;;;;;;;;
2178.0;2077.6;;;;-0.24356082;0.8919641;0.40214545;;;;;;;;;;;;;;;
2178.0;2080.4;;;;;;;;;;38.25495;39.193394;-59.862057;;;;;;;;;
2178.0;2080.4;;;;;;;0.35254982;-0.89474165;0.057374798;;;;;;;;;;;;
2178.0;2080.4;;;;;;;;;;37.41951;39.57869;-60.094757;;;;;;;;;
2178.0;2080.4;;;;;;;0.35163426;-0.8838771;0.061830502;;;;;;;;;;;;
2178.0;2081.3;262143;262143;12157;;;;;;;;;;;;;;;;;;
2178.0;2083.5;;;;;;;;;;;;;;;;;-74.48424;56.77587;-124.988556;;1967.0
2178.0;2083.5;;;;;;;;;;;;;;1.5122532;-0.20764793;-0.30976287;;;;;1967.0
2178.0;2083.5;;;;;;;;;;;;;;;;;-82.35038;62.746056;-124.988556;;1967.0
2178.0;2083.5;;;;;;;;;;;;;;1.5298929;-0.21570483;-0.2872402;;;;;1967.0
2178.0;2083.5;;;;;;;;;;;;;;;;;-88.4312;62.60109;-124.988556;;1976.7
2178.0;2083.5;;;;;;;;;;;;;;1.4894863;-0.23413801;-0.34913176;;;;;1976.7
2178.0;2083.5;;;;;;;;;;;;;;;;;-94.08093;58.68328;-124.988556;;1976.7
2178.0;2083.5;;;;;;;;;;;;;;1.5604724;-0.22608112;-0.41108432;;;;;1976.7
2178.0;2083.5;;;;;;;;;;;;;;;;;-104.18256;57.641834;-124.988556;;1986.3
2178.0;2083.5;;;;;;;;;;;;;;1.5516831;-0.21637623;-0.51692253;;;;;1986.3
2178.0;2083.5;;;;;;;;;;;;;;;;;-115.764336;62.406536;-124.988556;;1986.3
2178.0;2083.5;;;;;;;;;;;;;;1.5010223;-0.21094394;-0.5343791;;;;;1986.3
2179.0;2084.7;;;;;;;;;;;;;;;;;-123.996704;59.862057;-124.988556;;1995.8
2179.0;2084.7;;;;;;;;;;;;;;1.5032197;-0.21246986;-0.56532484;;;;;1995.8
2179.0;2084.7;;;;;;;;;;;;;;;;;-124.988556;56.5775;-124.988556;;1995.8
2179.0;2084.7;;;;;;;;;;;;;;1.4596393;-0.24707785;-0.56556904;;;;;1995.8
2179.0;2084.7;;;;;;;;;;;;;;;;;-124.988556;54.967648;-124.988556;;2005.5
2179.0;2084.7;;;;;;;;;;;;;;1.4153874;-0.25189978;-0.5315714;;;;;2005.5
2179.0;2084.7;;;;;;;;;;;;;;;;;-124.988556;51.858578;-124.988556;;2005.5
2179.0;2084.7;;;;;;;;;;;;;;1.4012269;-0.27423933;-0.4359874;;;;;2005.5
2179.0;2084.7;;;;;;;;;;;;;;;;;-124.988556;45.33143;-124.988556;;2015.2
2179.0;2084.7;;;;;;;;;;;;;;1.3491622;-0.32447278;-0.43586534;;;;;2015.2
2179.0;2084.7;;;;;;;;;;;;;;;;;-124.988556;40.883358;-124.988556;;2015.2
2179.0;2084.7;;;;;;;;;;;;;;1.2536393;-0.3884396;-0.41444135;;;;;2015.2
2179.0;2087.1;;;;;;;;;;;;;2967;;;;;;;;
2179.0;2087.1;;;;;;;;;;;;;2862;;;;;;;;
2179.0;2087.1;;;;;;;;;;;;;2799;;;;;;;;
2179.0;2087.1;;;;;;;;;;;;;2744;;;;;;;;
2179.0;2087.1;;;;;;;;;;;;;2319;;;;;;;;
2179.0;2087.5;;;;-0.24453357;0.8879396;0.40559393;;;;;;;;;;;;;;;
2179.0;2087.5;;;;-0.24731448;0.8840829;0.40938574;;;;;;;;;;;;;;;
2179.0;2087.5;;;;-0.24971774;0.88066494;0.4131623;;;;;;;;;;;;;;;
2179.0;2087.5;;;;-0.25451663;0.87949765;0.4170876;;;;;;;;;;;;;;;
2179.0;2087.5;;;;-0.25491717;0.8759271;0.42031485;;;;;;;;;;;;;;;
2179.0;2089.9;;;;;;;;;;36.6451;39.937283;-60.235905;;;;;;;;;
2179.0;2089.9;;;;;;;0.35206154;-0.8743553;0.06280709;;;;;;;;;;;;
2179.0;2089.9;;;;;;;;;;35.83636;40.238655;-60.40376;;;;;;;;;
2179.0;2089.9;;;;;;;0.35340434;-0.86916715;0.06482132;;;;;;;;;;;;
2180.0;2097.6;;;;-0.25424197;0.8720552;0.42353445;;;;;;;;;;;;;;;
2180.0;2097.6;;;;-0.25672153;0.86991894;0.4266625;;;;;;;;;;;;;;;
2180.0;2097.6;;;;-0.2576752;0.8708154;0.4289475;;;;;;;;;;;;;;;
2180.0;2097.6;;;;-0.26020053;0.8709527;0.4313355;;;;;;;;;;;;;;;
2180.0;2097.6;;;;-0.26480487;0.8707658;0.4344254;;;;;;;;;;;;;;;
2180.0;2098.4;;;;;;;;;;;;;;;;;-124.988556;35.699024;-124.988556;;2024.8
2180.0;2098.4;;;;;;;;;;;;;;1.1830806;-0.4046144;-0.33411664;;;;;2024.8
2180.0;2098.4;;;;;;;;;;;;;;;;;-124.16456;28.599659;-124.988556;;2024.8
2180.0;2098.4;;;;;;;;;;;;;;1.0967132;-0.40595722;-0.26703694;;;;;2024.8
2180.0;2098.4;;;;;;;;;;;;;;;;;-121.86422;23.167364;-124.988556;;2034.4
2180.0;2098.4;;;;;;;;;;;;;;1.0389721;-0.42219305;-0.19946899;;;;;2034.4
2180.0;2098.4;;;;;;;;;;;;;;;;;-119.121376;21.847439;-124.988556;;2034.4
2180.0;2098.4;;;;;;;;;;;;;;0.97537154;-0.44392225;-0.113528855;;;;;2034.4
2180.0;2098.4;;;;;;;;;;;;;;;;;-115.99704;19.196144;-124.988556;;2044.1
2180.0;2098.4;;;;;;;;;;;;;;0.9195227;-0.4095584;-0.069093905;;;;;2044.1
2180.0;2098.4;;;;;;;;;;;;;;;;;-112.83456;17.132328;-124.988556;;2044.1
2180.0;2098.4;;;;;;;;;;;;;;0.8658101;-0.35254982;-0.029663991;;;;;2044.1
2180.0;2099.3;;;;;;;;;;35.023804;40.604877;-60.40376;;;;;;;;;
2180.0;2099.3;;;;;;;0.3538316;-0.8685568;0.06622516;;;;;;;;;;;;
2180.0;2099.3;;;;;;;;;;34.138767;40.913876;-60.304573;;;;;;;;;
2180.0;2099.3;;;;;;;0.35755485;-0.8674581;0.06762902;;;;;;;;;;;;
2180.0;2101.2;262143;262143;12165;;;;;;;;;;;;;;;;;;
2231.0;2107.5;;;;-0.26918796;0.87026227;0.43692404;;;;;;;;;;;;;;;
2231.0;2107.5;;;;-0.2725716;0.86996853;0.44024664;;;;;;;;;;;;;;;
2231.0;2107.5;;;;-0.27518466;0.8694612;0.44482428;;;;;;;;;;;;;;;
2231.0;2107.5;;;;-0.27688983;0.8692819;0.44926077;;;;;;;;;;;;;;;
2231.0;2107.5;;;;-0.2779465;0.8701898;0.4536286;;;;;;;;;;;;;;;
2231.0;2108.8;;;;;;;;;;33.20414;41.173283;-60.075684;;;;;;;;;
2231.0;2108.8;;;;;;;0.36121708;-0.8667867;0.06811731;;;;;;;;;;;;
2231.0;2108.8;;;;;;;;;;32.322918;41.459396;-59.69802;;;;;;;;;
2231.0;2108.8;;;;;;;0.3640248;-0.86861783;0.07000946;;;;;;;;;;;;
2231.0;2117.2;;;;-0.2791939;0.8715135;0.45814902;;;;;;;;;;;;;;;
2231.0;2117.2;;;;-0.2793465;0.8733064;0.46273428;;;;;;;;;;;;;;;
2231.0;2117.2;;;;-0.28005603;0.87549603;0.46631628;;;;;;;;;;;;;;;
2231.0;2117.2;;;;-0.2808762;0.8772851;0.46898276;;;;;;;;;;;;;;;
2231.0;2117.2;;;;-0.28354266;0.8790704;0.47217566;;;;;;;;;;;;;;;
2231.0;2118.1;;;;;;;;;;31.40736;41.871395;-59.18302;;;;;;;;;
2231.0;2118.1;;;;;;;0.36793116;-0.86880094;0.07043672;;;;;;;;;;;;
2231.0;2118.1;;;;;;;;;;30.51088;42.439804;-58.56502;;;;;;;;;
2231.0;2118.1;;;;;;;0.37067783;-0.86983854;0.074098945;;;;;;;;;;;;
2231.0;2121.0;262143;262143;12169;;;;;;;;;;;;;;;;;;
2231.0;2127.0;;;;;;;;;;;;;1197;;;;;;;;
2231.0;2127.0;;;;;;;;;;;;;-34;;;;;;;;
2231.0;2127.0;;;;;;;;;;;;;-376;;;;;;;;
2231.0;2127.0;;;;;;;;;;;;;85;;;;;;;;
2231.0;2127.0;;;;;;;;;;;;;829;;;;;;;;
2233.0;2127.3;;;;-0.2797623;0.8832284;0.4720841;;;;;;;;;;;;;;;
2233.0;2127.3;;;;-0.28268054;0.88419735;0.47354895;;;;;;;;;;;;;;;
2233.0;2127.3;;;;-0.29153827;0.885399;0.47972113;;;;;;;;;;;;;;;
2233.0;2127.3;;;;-0.29044726;0.8872186;0.47798926;;;;;;;;;;;;;;;
2233.0;2127.3;;;;-0.29319766;0.8907052;0.47517782;;;;;;;;;;;;;;;
2233.0;2127.7;;;;;;;;;;29.618214;43.09595;-57.813503;;;;;;;;;
2233.0;2127.7;;;;;;;0.3704947;-0.8682516;0.0783105;;;;;;;;;;;;
2233.0;2127.7;;;;;;;;;;28.66451;43.702507;-56.951355;;;;;;;;;
2233.0;2127.7;;;;;;;0.37299722;-0.8658101;0.08209479;;;;;;;;;;;;
2233.0;2137.4;;;;;;;;;;27.787102;44.40443;-55.98239;;;;;;;;;
2233.0;2137.4;;;;;;;0.37134922;-0.86410105;0.08685568;;;;;;;;;;;;
2233.0;2137.4;;;;;;;;;;26.924955;45.163578;-55.028687;;;;;;;;;
2233.0;2137.4;;;;;;;0.3729362;-0.860683;0.089236125;;;;;;;;;;;;
2233.0;2137.4;;;;-0.29587176;0.8952066;0.4736405;;;;;;;;;;;;;;;
2233.0;2137.4;;;;-0.29721072;0.89802945;0.47173315;;;;;;;;;;;;;;;
2233.0;2137.4;;;;-0.30004886;0.8987962;0.4696961;;;;;;;;;;;;;;;
2233.0;2137.4;;;;-0.30250934;0.89987195;0.467228;;;;;;;;;;;;;;;
2233.0;2137.4;;;;-0.3021126;0.90111554;0.46370322;;;;;;;;;;;;;;;
2233.0;2141.3;262143;262143;12172;;;;;;;;;;;;;;;;;;
2236.0;2143.4;;;;;;;;;;;;;;;;;-111.320076;13.81344;-124.988556;;2053.8
2236.0;2143.4;;;;;;;;;;;;;;0.8417615;-0.2830897;-0.020386364;;;;;2053.8
2236.0;2143.4;;;;;;;;;;;;;;;;;-109.870445;10.719626;-124.988556;;2053.8
2236.0;2143.4;;;;;;;;;;;;;;0.83291113;-0.20728172;-0.024597919;;;;;2053.8
2236.0;2143.4;;;;;;;;;;;;;;;;;-109.93148;10.021515;-124.988556;;2063.3
2236.0;2143.4;;;;;;;;;;;;;;0.8339488;-0.123783074;-0.01861629;;;;;2063.3
2236.0;2143.4;;;;;;;;;;;;;;;;;-113.357185;11.017182;-124.988556;;2063.3
2236.0;2143.4;;;;;;;;;;;;;;0.8127079;-0.07928709;-0.022644734;;;;;2063.3
2236.0;2143.4;;;;;;;;;;;;;;;;;-117.88156;10.85696;-124.97711;;2073.0
2236.0;2143.4;;;;;;;;;;;;;;0.7772454;-0.06079287;-0.061098058;;;;;2073.0
2236.0;2143.4;;;;;;;;;;;;;;;;;-122.18848;8.674886;-122.87896;;2073.0
2236.0;2143.4;;;;;;;;;;;;;;0.7527085;-0.04809717;-0.107058935;;;;;2073.0
2236.0;2146.9;;;;;;;;;;26.062807;45.789207;-54.033024;;;;;;;;;
2236.0;2146.9;;;;;;;0.37025055;-0.8577532;0.09088412;;;;;;;;;;;;
2236.0;2146.9;;;;;;;;;;25.1854;46.55217;-53.01065;;;;;;;;;
2236.0;2146.9;;;;;;;0.36829737;-0.8547014;0.092471085;;;;;;;;;;;;
2236.0;2147.4;;;;-0.30080798;0.90217984;0.46015555;;;;;;;;;;;;;;;
2236.0;2147.4;;;;-0.29854968;0.9034959;0.45616537;;;;;;;;;;;;;;;
2236.0;2147.4;;;;-0.29695514;0.9035417;0.45185858;;;;;;;;;;;;;;;
2236.0;2147.4;;;;-0.29721072;0.9038774;0.44810492;;;;;;;;;;;;;;;
2236.0;2147.4;;;;-0.295414;0.90420926;0.443348;;;;;;;;;;;;;;;
2236.0;2156.5;;;;;;;;;;24.216438;47.158726;-51.923428;;;;;;;;;
2236.0;2156.5;;;;;;;0.3670156;-0.8509171;0.09472945;;;;;;;;;;;;
2236.0;2156.5;;;;;;;;;;23.247475;47.585987;-50.881985;;;;;;;;;
2236.0;2156.5;;;;;;;0.36127812;-0.8501846;0.09387494;;;;;;;;;;;;
2238.0;2157.5;;;;-0.2921181;0.90231717;0.43847662;;;;;;;;;;;;;;;
2238.0;2157.5;;;;-0.29119495;0.9015733;0.43407065;;;;;;;;;;;;;;;
2238.0;2157.5;;;;-0.29064563;0.90145123;0.42996603;;;;;;;;;;;;;;;
2238.0;2157.5;;;;-0.2900658;0.90143216;0.4254952;;;;;;;;;;;;;;;
2238.0;2157.5;;;;-0.29008105;0.9012109;0.42085272;;;;;;;;;;;;;;;
2238.0;2158.5;;;;;;;;;;;;;;;;;-124.80926;6.7560353;-116.97363;;2082.7
2238.0;2158.5;;;;;;;;;;;;;;0.7242653;-0.057679985;-0.14587848;;;;;2082.7
2238.0;2158.5;;;;;;;;;;;;;;;;;-124.988556;7.168035;-110.885185;;2082.7
2238.0;2158.5;;;;;;;;;;;;;;0.71810055;-0.04052858;-0.15344706;;;;;2082.7
2238.0;2158.5;;;;;;;;;;;;;;;;;-124.988556;11.883144;-104.590744;;2092.3
2238.0;2158.5;;;;;;;;;;;;;;0.712302;-0.0568865;-0.140141;;;;;2092.3
2238.0;2158.5;;;;;;;;;;;;;;;;;-124.988556;18.993958;-98.5252;;2092.3
2238.0;2158.5;;;;;;;;;;;;;;0.66475415;-0.07678457;-0.10876797;;;;;2092.3
2238.0;2158.5;;;;;;;;;;;;;;;;;-124.988556;23.300882;-93.050934;;2102.0
2238.0;2158.5;;;;;;;;;;;;;;0.6267281;-0.1274453;-0.095278785;;;;;2102.0
2238.0;2158.5;;;;;;;;;;;;;;;;;-124.988556;25.666067;-87.98868;;2102.0
2238.0;2158.5;;;;;;;;;;;;;;0.5895566;-0.17505418;-0.08404797;;;;;2102.0
2238.0;2161.2;262143;262143;12170;;;;;;;;;;;;;;;;;;
2238.0;2165.9;;;;;;;;;;22.209845;48.177284;-49.61165;;;;;;;;;
2238.0;2165.9;;;;;;;0.35718864;-0.85079503;0.09387494;;;;;;;;;;;;
2238.0;2165.9;;;;;;;;;;21.156958;48.76858;-48.184914;;;;;;;;;
2238.0;2165.9;;;;;;;0.35236672;-0.854091;0.09363079;;;;;;;;;;;;
2294.0;2167.1;;;;;;;;;;;;;1738;;;;;;;;
2294.0;2167.1;;;;;;;;;;;;;2317;;;;;;;;
2294.0;2167.1;;;;;;;;;;;;;1977;;;;;;;;
2294.0;2167.1;;;;;;;;;;;;;1378;;;;;;;;
2294.0;2167.1;;;;;;;;;;;;;1314;;;;;;;;
2294.0;2167.4;;;;-0.2888451;0.9007646;0.41673285;;;;;;;;;;;;;;;
2294.0;2167.4;;;;-0.28728488;0.9008676;0.4122048;;;;;;;;;;;;;;;
2294.0;2167.4;;;;-0.285553;0.90116894;0.40765387;;;;;;;;;;;;;;;
2294.0;2167.4;;;;-0.28267673;0.9017068;0.40346915;;;;;;;;;;;;;;;
2294.0;2167.4;;;;-0.2785149;0.9018899;0.39849097;;;;;;;;;;;;;;;
2294.0;2175.1;;;;;;;;;;20.157475;49.22254;-46.830654;;;;;;;;;
2294.0;2175.1;;;;;;;0.34943694;-0.8564715;0.09350871;;;;;;;;;;;;
2294.0;2175.1;;;;;;;;;;19.070253;49.70702;-45.449688;;;;;;;;;
2294.0;2175.1;;;;;;;0.34601885;-0.85708183;0.09350871;;;;;;;;;;;;
2294.0;2177.1;;;;-0.27555087;0.90251553;0.3940888;;;;;;;;;;;;;;;
2294.0;2177.1;;;;-0.27151492;0.90360653;0.38894278;;;;;;;;;;;;;;;
2294.0;2177.1;;;;-0.26884463;0.90348446;0.38532645;;;;;;;;;;;;;;;
2294.0;2177.1;;;;-0.26544955;0.903412;0.3818093;;;;;;;;;;;;;;;
2294.0;2177.1;;;;-0.26059726;0.9031297;0.37863547;;;;;;;;;;;;;;;
2294.0;2181.1;262143;262143;12174;;;;;;;;;;;;;;;;;;
2294.0;2184.8;;;;;;;;;;18.047884;50.035095;-44.06873;;;;;;;;;
2294.0;2184.8;;;;;;;0.3442488;-0.8575701;0.09466842;;;;;;;;;;;;
2294.0;2184.8;;;;;;;;;;17.044586;50.233467;-42.630543;;;;;;;;;
2294.0;2184.8;;;;;;;0.33991516;-0.85872984;0.09613331;;;;;;;;;;;;
2296.0;2187.2;;;;-0.2573624;0.9027864;0.37712866;;;;;;;;;;;;;;;
2296.0;2187.2;;;;-0.25516513;0.9039079;0.37606055;;;;;;;;;;;;;;;
2296.0;2187.2;;;;-0.25260928;0.9048921;0.37582022;;;;;;;;;;;;;;;
2296.0;2187.2;;;;-0.25053027;0.90519726;0.37636954;;;;;;;;;;;;;;;
2296.0;2187.2;;;;-0.2489548;0.90589917;0.37572867;;;;;;;;;;;;;;;
2296.0;2194.4;;;;;;;;;;15.972626;50.408947;-41.100803;;;;;;;;;
2296.0;2194.4;;;;;;;0.33674124;-0.85946226;0.098025456;;;;;;;;;;;;
2296.0;2194.4;;;;;;;;;;14.873959;50.477615;-39.540543;;;;;;;;;
2296.0;2194.4;;;;;;;0.33429974;-0.8616596;0.10187078;;;;;;;;;;;;
2296.0;2197.3;;;;-0.24752429;0.9073602;0.37577444;;;;;;;;;;;;;;;
2296.0;2197.3;;;;-0.24676898;0.90870297;0.375866;;;;;;;;;;;;;;;
2296.0;2197.3;;;;-0.24496081;0.9098474;0.37559897;;;;;;;;;;;;;;;
2296.0;2197.3;;;;-0.24392703;0.91080105;0.37610632;;;;;;;;;;;;;;;
2296.0;2197.3;;;;-0.24351504;0.91191113;0.37748343;;;;;;;;;;;;;;;
2296.0;2201.3;262143;262143;12162;;;;;;;;;;;;;;;;;;
2297.0;2203.8;;;;;;;;;;;;;;;;;-124.988556;24.449142;-83.07138;;2111.5
2297.0;2203.8;;;;;;;;;;;;;;0.54249704;-0.20685446;-0.08270516;;;;;2111.5
2297.0;2203.8;;;;;;;;;;;;;;;;;-124.988556;19.940031;-78.131195;;2111.5
2297.0;2203.8;;;;;;;;;;;;;;0.4835963;-0.23047578;-0.097598195;;;;;2111.5
2297.0;2203.8;;;;;;;;;;;;;;;;;-124.988556;15.392773;-73.4695;;2121.1
2297.0;2203.8;;;;;;;;;;;;;;0.4185919;-0.2618488;-0.13116856;;;;;2121.1
2297.0;2203.8;;;;;;;;;;;;;;;;;-124.67574;11.707664;-67.86935;;2121.1
2297.0;2203.8;;;;;;;;;;;;;;0.33857235;-0.27314067;-0.120365;;;;;2121.1
2297.0;2203.8;;;;;;;;;;;;;;;;;-121.53615;11.0400715;-62.444687;;2130.7
2297.0;2203.8;;;;;;;;;;;;;;0.260506;-0.24665059;-0.080141604;;;;;2130.7
2297.0;2203.8;;;;;;;;;;;;;;;;;-116.31367;12.333293;-57.294685;;2130.7
2297.0;2203.8;;;;;;;;;;;;;;0.16962187;-0.23487045;-0.015625477;;;;;2130.7
2297.0;2203.9;;;;;;;;;;13.775291;50.500504;-38.02988;;;;;;;;;
2297.0;2203.9;;;;;;;0.33033234;-0.86751914;0.10773034;;;;;;;;;;;;
2297.0;2203.9;;;;;;;;;;12.691885;50.183872;-36.606953;;;;;;;;;
2297.0;2203.9;;;;;;;0.32636493;-0.87508774;0.112186044;;;;;;;;;;;;
2297.0;2207.1;;;;;;;;;;;;;1558;;;;;;;;
2297.0;2207.1;;;;;;;;;;;;;1782;;;;;;;;
2297.0;2207.1;;;;;;;;;;;;;1880;;;;;;;;
2297.0;2207.1;;;;;;;;;;;;;2008;;;;;;;;
2297.0;2207.1;;;;;;;;;;;;;2491;;;;;;;;
2297.0;2207.3;;;;-0.24300388;0.9129182;0.3786202;;;;;;;;;;;;;;;
2297.0;2207.3;;;;-0.24306491;0.91300976;0.37997442;;;;;;;;;;;;;;;
2297.0;2207.3;;;;-0.24373248;0.91352856;0.3816567;;;;;;;;;;;;;;;
2297.0;2207.3;;;;-0.24450687;0.9136659;0.3831864;;;;;;;;;;;;;;;
2297.0;2207.3;;;;-0.24568942;0.91318905;0.3850518;;;;;;;;;;;;;;;
2303.0;2213.5;;;;;;;;;;11.57033;49.83291;-35.16495;;;;;;;;;
2303.0;2213.5;;;;;;;0.321543;-0.88576925;0.11835078;;;;;;;;;;;;
2303.0;2213.5;;;;;;;;;;10.563219;49.398026;-33.642845;;;;;;;;;
2303.0;2213.5;;;;;;;0.31366923;-0.8957793;0.12457655;;;;;;;;;;;;
2303.0;2217.4;;;;-0.24633792;0.9125825;0.38695914;;;;;;;;;;;;;;;
2303.0;2217.4;;;;-0.24743274;0.91123974;0.38838583;;;;;;;;;;;;;;;
2303.0;2217.4;;;;-0.24814609;0.9100534;0.39034277;;;;;;;;;;;;;;;
2303.0;2217.4;;;;-0.24886706;0.9091073;0.3929711;;;;;;;;;;;;;;;
2303.0;2217.4;;;;-0.24934772;0.9079858;0.39508063;;;;;;;;;;;;;;;
2303.0;2218.6;;;;;;;;;;;;;;;;;-109.103676;9.655293;-51.423687;;2140.3
2303.0;2218.6;;;;;;;;;;;;;;0.084902495;-0.22656941;0.032654807;;;;;2140.3
2303.0;2218.6;;;;;;;;;;;;;;;;;-100.11978;3.8949249;-45.09491;;2140.3
2303.0;2218.6;;;;;;;;;;;;;;0.030579546;-0.22791223;0.051759392;;;;;2140.3
2303.0;2218.6;;;;;;;;;;;;;;;;;-92.192604;-1.0795922;-40.330208;;2150.0
2303.0;2218.6;;;;;;;;;;;;;;0.024719993;-0.1948912;0.081789605;;;;;2150.0
2303.0;2218.6;;;;;;;;;;;;;;;;;-86.69546;-6.0922575;-36.69088;;2150.0
2303.0;2218.6;;;;;;;;;;;;;;0.06750695;-0.13159582;0.12134159;;;;;2150.0
2303.0;2218.6;;;;;;;;;;;;;;;;;-82.63649;-11.642812;-35.01999;;2159.6
2303.0;2218.6;;;;;;;;;;;;;;0.106753744;-0.027710807;0.1309244;;;;;2159.6
2303.0;2218.6;;;;;;;;;;;;;;;;;-77.993866;-18.417921;-34.48973;;2159.6
2303.0;2218.6;;;;;;;;;;;;;;0.15228736;0.10608234;0.13885921;;;;;2159.6
2303.0;2221.3;262143;262143;12164;;;;;;;;;;;;;;;;;;
2365.0;2223.0;;;;;;;;;;9.586627;49.142433;-32.208473;;;;;;;;;
2365.0;2223.0;;;;;;;0.30994597;-0.9011505;0.13177893;;;;;;;;;;;;
2365.0;2223.0;;;;;;;;;;8.728293;48.96695;-30.724508;;;;;;;;;
2365.0;2223.0;;;;;;;0.30671102;-0.90176094;0.136845;;;;;;;;;;;;
2365.0;2227.4;;;;-0.2502022;0.9070703;0.39692312;;;;;;;;;;;;;;;
2365.0;2227.4;;;;-0.2511101;0.9067918;0.3983689;;;;;;;;;;;;;;;
2365.0;2227.4;;;;-0.25232318;0.90677655;0.40023428;;;;;;;;;;;;;;;
2365.0;2227.4;;;;-0.2541695;0.90701306;0.40080267;;;;;;;;;;;;;;;
2365.0;2227.4;;;;-0.25651172;0.9082681;0.40141302;;;;;;;;;;;;;;;
2365.0;2232.4;;;;;;;;;;7.8241825;48.79147;-29.40077;;;;;;;;;
2365.0;2232.4;;;;;;;0.30341503;-0.8959014;0.14252144;;;;;;;;;;;;
2365.0;2232.4;;;;;;;;;;6.923887;48.512985;-28.176214;;;;;;;;;
2365.0;2232.4;;;;;;;0.30182806;-0.88717306;0.15015107;;;;;;;;;;;;
2365.0;2237.2;;;;-0.25940707;0.90984356;0.40217978;;;;;;;;;;;;;;;
2365.0;2237.2;;;;-0.26306918;0.91181576;0.4025498;;;;;;;;;;;;;;;
2365.0;2237.2;;;;-0.2664986;0.914528;0.40333563;;;;;;;;;;;;;;;
2365.0;2237.2;;;;-0.26996616;0.91765225;0.40261465;;;;;;;;;;;;;;;
2365.0;2237.2;;;;-0.27359775;0.92126095;0.40188605;;;;;;;;;;;;;;;
2365.0;2241.3;262143;262143;12162;;;;;;;;;;;;;;;;;;
2365.0;2242.0;;;;;;;;;;6.0731835;48.276466;-27.008883;;;;;;;;;
2365.0;2242.0;;;;;;;0.29700613;-0.88052005;0.1551561;;;;;;;;;;;;
2365.0;2242.0;;;;;;;;;;5.2110357;47.864468;-25.91403;;;;;;;;;
2365.0;2242.0;;;;;;;0.29187903;-0.87405014;0.16119877;;;;;;;;;;;;
2368.0;2247.2;;;;;;;;;;;;;2996;;;;;;;;
2368.0;2247.2;;;;;;;;;;;;;3081;;;;;;;;
2368.0;2247.2;;;;;;;;;;;;;2923;;;;;;;;
2368.0;2247.2;;;;;;;;;;;;;2783;;;;;;;;
2368.0;2247.2;;;;;;;;;;;;;2434;;;;;;;;
2368.0;2247.3;;;;-0.27718738;0.9249879;0.40147406;;;;;;;;;;;;;;;
2368.0;2247.3;;;;-0.28066257;0.9287149;0.40033346;;;;;;;;;;;;;;;
2368.0;2247.3;;;;-0.2837372;0.9333993;0.40001303;;;;;;;;;;;;;;;
2368.0;2247.3;;;;-0.2871361;0.93807995;0.3982926;;;;;;;;;;;;;;;
2368.0;2247.3;;;;-0.29018024;0.94244397;0.3970757;;;;;;;;;;;;;;;
2368.0;2251.6;;;;;;;;;;4.2458873;47.45247;-24.811548;;;;;;;;;
2368.0;2251.6;;;;;;;0.28827783;-0.875515;0.16321298;;;;;;;;;;;;
2368.0;2251.6;;;;;;;;;;3.2502213;46.960358;-23.815882;;;;;;;;;
2368.0;2251.6;;;;;;;0.28595844;-0.87942135;0.1662038;;;;;;;;;;;;
2368.0;2257.4;;;;-0.29295734;0.9472085;0.39513403;;;;;;;;;;;;;;;
2368.0;2257.4;;;;-0.29557422;0.9522706;0.39278418;;;;;;;;;;;;;;;
2368.0;2257.4;;;;-0.29830936;0.95723355;0.39010626;;;;;;;;;;;;;;;
2368.0;2257.4;;;;-0.3006325;0.9626161;0.387394;;;;;;;;;;;;;;;
2368.0;2257.4;;;;-0.3029137;0.96870434;0.38499838;;;;;;;;;;;;;;;
2368.0;2261.2;;;;;;;;;;2.2431104;46.525467;-22.862179;;;;;;;;;
2368.0;2261.2;;;;;;;0.28315073;-0.8876003;0.17029329;;;;;;;;;;;;
2368.0;2261.2;;;;;;;;;;1.3351848;46.201206;-21.771143;;;;;;;;;
2368.0;2261.2;;;;;;;0.2814417;-0.8991363;0.1744438;;;;;;;;;;;;
2368.0;2261.6;262143;262143;12166;;;;;;;;;;;;;;;;;;
2370.0;2263.7;;;;;;;;;;;;;;;;;-70.463425;-29.484695;-32.170326;;2169.2
2370.0;2263.7;;;;;;;;;;;;;;0.21063875;0.23645741;0.12292856;;;;;2169.2
2370.0;2263.7;;;;;;;;;;;;;;;;;-63.41365;-43.012024;-29.354992;;2169.2
2370.0;2263.7;;;;;;;;;;;;;;0.28284556;0.36909086;0.110293895;;;;;2169.2
2370.0;2263.7;;;;;;;;;;;;;;;;;-59.209724;-56.566055;-26.322214;;2178.8
2370.0;2263.7;;;;;;;;;;;;;;0.37910092;0.48365733;0.09595019;;;;;2178.8
2370.0;2263.7;;;;;;;;;;;;;;;;;-58.179726;-64.33302;-23.476364;;2178.8
2370.0;2263.7;;;;;;;;;;;;;;0.47676015;0.5928526;0.09997864;;;;;2178.8
2370.0;2263.7;;;;;;;;;;;;;;;;;-58.790096;-66.09547;-20.390179;;2188.5
2370.0;2263.7;;;;;;;;;;;;;;0.5620289;0.6837977;0.107852414;;;;;2188.5
2370.0;2263.7;;;;;;;;;;;;;;;;;-59.30891;-63.711205;-17.670218;;2188.5
2370.0;2263.7;;;;;;;;;;;;;;0.63374734;0.7630238;0.12787256;;;;;2188.5
2370.0;2267.4;;;;-0.30500033;0.9746171;0.3817063;;;;;;;;;;;;;;;
2370.0;2267.4;;;;-0.3072205;0.9803735;0.37800223;;;;;;;;;;;;;;;
2370.0;2267.4;;;;-0.30935672;0.986725;0.3751374;;;;;;;;;;;;;;;
2370.0;2267.4;;;;-0.3108826;0.9935037;0.37106326;;;;;;;;;;;;;;;
2370.0;2267.4;;;;-0.3126183;1.0002595;0.36745074;;;;;;;;;;;;;;;
2370.0;2270.7;;;;;;;;;;0.42725915;45.98758;-20.668661;;;;;;;;;
2370.0;2270.7;;;;;;;0.27826777;-0.91042817;0.17694631;;;;;;;;;;;;
2370.0;2270.7;;;;;;;;;;-0.57222205;45.781578;-19.505142;;;;;;;;;
2370.0;2270.7;;;;;;;0.27558213;-0.9222083;0.17950988;;;;;;;;;;;;
