patientId;holterMac;flexMac;;;;;;;;;;;;;;;;;;;;
;CA:F3:0B:1E:33:78;D3:4A:5C:52:80:78;;;;;;;;;;;;;;;;;;;;
receivedTimeStamp;timeStamp;red;ir;green;adxl_accX;adxl_accY;adxl_accZ;lsm_accelX;lsm_accelY;lsm_accelZ;lsm_gyroX;lsm_gyroY;lsm_gyroZ;ecg;flex_lsm_accelX;flex_lsm_accelY;flex_lsm_accelZ;flex_lsm_gyroX;flex_lsm_gyroY;flex_lsm_gyroZ;flex_cmd;flexTimeStamp
257.0;213.5;;;;;;;;;;;;;;;;;;;;17;0.1
257.0;213.5;;;;;;;;;;;;;;;;;13.103885;0.9155553;0.94225895;;127.5
257.0;213.5;;;;;;;;;;;;;;0.86092716;0.31373027;-0.07696768;;;;;127.5
257.0;213.5;;;;;;;;;;;;;;;;;-6.5233316;-18.03644;-7.4999237;;127.5
257.0;213.5;;;;;;;;;;;;;;0.9009064;0.3178808;-0.07415998;;;;;127.5
257.0;213.5;;;;;;;;;;;;;;;;;-69.38383;-85.982086;-62.65069;;137.0
257.0;213.5;;;;;;;;;;;;;;0.9022492;0.2987762;-0.06494339;;;;;137.0
257.0;213.5;;;;;;;;;;;;;;;;;-123.35963;-124.988556;-120.71596;;137.0
257.0;213.5;;;;;;;;;;;;;;0.90920746;0.2862636;-0.052797023;;;;;137.0
316.0;221.0;;;;;;;;;;;;;;;;;-83.26975;-124.988556;-81.23264;;146.6
316.0;221.0;;;;;;;;;;;;;;0.90823084;0.27674183;-0.034669027;;;;;146.6
316.0;221.0;;;;;;;;;;;;;;;;;-54.52895;-124.988556;-38.64788;;146.6
316.0;221.0;;;;;;;;;;;;;;0.91256446;0.26410717;-0.017578661;;;;;146.6
316.0;221.0;;;;;;;;;;;;;;;;;-73.91202;-111.77404;-31.308174;;156.3
316.0;221.0;;;;;;;;;;;;;;0.9284951;0.24982452;-0.01208533;;;;;156.3
316.0;221.0;;;;;;;;;;;;;;;;;-86.18427;-63.741722;-5.7832575;;156.3
316.0;221.0;;;;;;;;;;;;;;0.91811883;0.24146245;-0.005798517;;;;;156.3
316.0;221.0;;;;;;;;;;;;;;;;;-86.69927;-56.932278;-2.2240365;;165.9
316.0;221.0;;;;;;;;;;;;;;0.9164098;0.23206274;0.0050050355;;;;;165.9
316.0;221.0;;;;;;;;;;;;;;;;;-85.95157;-54.376354;-0.34333324;;165.9
316.0;221.0;;;;;;;;;;;;;;0.91549426;0.22907193;0.008972442;;;;;165.9
316.0;273.7;;;;;;;;;;;;;;;;;-84.87579;-51.85095;1.6861477;;175.6
316.0;273.7;;;;;;;;;;;;;;0.90792567;0.22425;0.02496414;;;;;175.6
316.0;273.7;;;;;;;;;;;;;;;;;-83.36512;-49.813835;3.2197027;;175.6
316.0;273.7;;;;;;;;;;;;;;0.90414137;0.22186956;0.024658956;;;;;175.6
316.0;273.7;;;;;;;;;;;;;;;;;-81.69424;-47.219765;4.9630723;;185.2
316.0;273.7;;;;;;;;;;;;;;0.8962676;0.22254097;0.030884732;;;;;185.2
316.0;273.7;;;;;;;;;;;;;;;;;-79.588455;-44.40443;6.85522;;185.2
316.0;273.7;;;;;;;;;;;;;;0.8895535;0.23371075;0.034485918;;;;;185.2
316.0;273.7;;;;;;;;;;;;;;;;;-77.55898;-41.402172;8.465072;;194.9
316.0;273.7;;;;;;;;;;;;;;0.88021487;0.23120824;0.044801172;;;;;194.9
316.0;273.7;;;;;;;;;;;;;;;;;-75.50279;-38.89203;10.086368;;194.9
316.0;273.7;;;;;;;;;;;;;;0.87423325;0.2478103;0.041016877;;;;;194.9
378.0;281.2;;;;;;;;;;;;;;;;;-73.3932;-36.168247;11.722922;;204.6
378.0;281.2;;;;;;;;;;;;;;0.8670919;0.25104526;0.0430311;;;;;204.6
378.0;281.2;;;;;;;;;;;;;;;;;-71.06616;-33.9671;13.065737;;204.6
378.0;281.2;;;;;;;;;;;;;;0.85909605;0.2614826;0.03668325;;;;;204.6
378.0;281.2;;;;;;;;;;;;;;;;;-68.6819;-31.52562;14.324625;;214.2
378.0;281.2;;;;;;;;;;;;;;0.85280925;0.27478865;0.03234962;;;;;214.2
378.0;281.2;;;;;;;;;;;;;;;;;-66.44643;-28.7904;15.522477;;214.2
378.0;281.2;;;;;;;;;;;;;;0.8506119;0.2865688;0.030762658;;;;;214.2
378.0;281.2;;;;;;;;;;;;;;;;;-64.26054;-25.627918;16.506699;;223.9
378.0;281.2;;;;;;;;;;;;;;0.8521378;0.2921842;0.037659843;;;;;223.9
378.0;281.2;;;;;;;;;;;;;;;;;-62.002167;-22.320475;17.300179;;223.9
378.0;281.2;;;;;;;;;;;;;;0.8460341;0.30079043;0.044679098;;;;;223.9
378.0;334.4;;;;;;;;;;;;;;;;;-59.854427;-19.997253;17.990662;;233.5
378.0;334.4;;;;;;;;;;;;;;0.8424329;0.30597857;0.047059543;;;;;233.5
378.0;334.4;;;;;;;;;;;;;;;;;-58.36665;-18.4637;18.52092;;233.5
378.0;334.4;;;;;;;;;;;;;;0.84670556;0.3103122;0.038270213;;;;;233.5
378.0;334.4;;;;;;;;;;;;;;;;;-56.978058;-16.788996;19.0817;;243.2
378.0;334.4;;;;;;;;;;;;;;0.8468276;0.31696525;0.025635548;;;;;243.2
378.0;334.4;;;;;;;;;;;;;;;;;-55.36439;-14.797663;19.497513;;243.2
378.0;334.4;;;;;;;;;;;;;;0.85055083;0.32306895;0.011535997;;;;;243.2
378.0;334.4;;;;;;;;;;;;;;;;;-54.006317;-12.680441;19.692068;;252.8
378.0;334.4;;;;;;;;;;;;;;0.8514664;0.32996613;-0.015076144;;;;;252.8
378.0;334.4;;;;;;;;;;;;;;;;;-53.277687;-10.170293;19.798882;;252.8
378.0;334.4;;;;;;;;;;;;;;0.85006255;0.33851132;-0.018921476;;;;;252.8
439.0;335.2;;;;;;;;;;;;;;;;;-52.667316;-8.465072;19.63866;;262.5
439.0;335.2;;;;;;;;;;;;;;0.8415174;0.34400463;-0.010498367;;;;;262.5
439.0;335.2;;;;;;;;;;;;;;;;;-51.36265;-8.709219;19.192327;;262.5
439.0;335.2;;;;;;;;;;;;;;0.8362682;0.34308907;-0.008728294;;;;;262.5
439.0;335.2;;;;;;;;;;;;;;;;;-49.134804;-10.040589;18.505661;;272.1
439.0;335.2;;;;;;;;;;;;;;0.8257088;0.34266183;-0.010498367;;;;;272.1
439.0;335.2;;;;;;;;;;;;;;;;;-46.506393;-11.68096;17.73507;;272.1
439.0;335.2;;;;;;;;;;;;;;0.8197882;0.3439436;-0.011902219;;;;;272.1
439.0;335.2;;;;;;;;;;;;;;;;;-43.454544;-12.928404;16.895811;;281.8
439.0;335.2;;;;;;;;;;;;;;0.8168584;0.34992522;-0.019775994;;;;;281.8
439.0;335.2;;;;;;;;;;;;;;;;;-40.42558;-14.072847;16.109959;;281.8
439.0;335.2;;;;;;;;;;;;;;0.8138066;0.3606067;-0.033265177;;;;;281.8
439.0;394.5;;;;;;;;;;;;;;;;;-37.049473;-15.236365;15.549181;;291.4
439.0;394.5;;;;;;;;;;;;;;0.81209755;0.37653738;-0.052980132;;;;;291.4
439.0;394.5;;;;;;;;;;;;;;;;;-34.634693;-16.129032;15.171514;;291.4
439.0;394.5;;;;;;;;;;;;;;0.81392866;0.39246804;-0.06933805;;;;;291.4
439.0;394.5;;;;;;;;;;;;;;;;;-33.581806;-16.48381;15.236365;;301.1
439.0;394.5;;;;;;;;;;;;;;0.8141728;0.40601826;-0.07391583;;;;;301.1
439.0;394.5;;;;;;;;;;;;;;;;;-33.92895;-16.846218;15.308847;;301.1
439.0;394.5;;;;;;;;;;;;;;0.82125306;0.41645557;-0.07684561;;;;;301.1
439.0;394.5;;;;;;;;;;;;;;;;;-35.481583;-16.628773;15.697958;;310.8
439.0;394.5;;;;;;;;;;;;;;0.8252205;0.41718802;-0.06927702;;;;;310.8
439.0;394.5;;;;;;;;;;;;;;;;;-37.83151;-16.392256;16.148108;;310.8
439.0;394.5;;;;;;;;;;;;;;0.82760096;0.4194464;-0.051637318;;;;;310.8
499.0;395.3;;;;;;;;;;;;;;;;;-40.608692;-16.441847;16.621143;;320.5
499.0;395.3;;;;;;;;;;;;;;0.82882166;0.4206061;-0.030945769;;;;;320.5
499.0;395.3;;;;;;;;;;;;;;;;;-43.248543;-16.19007;16.853848;;320.5
499.0;395.3;;;;;;;;;;;;;;0.83352154;0.42188787;-0.010254219;;;;;320.5
499.0;395.3;;;;;;;;;;;;;;;;;-45.1178;-16.17481;17.029327;;330.2
499.0;395.3;;;;;;;;;;;;;;0.84707177;0.42402416;0.0012207404;;;;;330.2
499.0;395.3;;;;;;;;;;;;;;;;;-46.514023;-16.281626;17.162846;;330.2
499.0;395.3;;;;;;;;;;;;;;0.85695976;0.42542803;0.003418073;;;;;330.2
499.0;395.3;;;;;;;;;;;;;;;;;-47.242653;-16.487625;17.170475;;339.9
499.0;395.3;;;;;;;;;;;;;;0.87130344;0.43220314;0.0050050355;;;;;339.9
499.0;395.3;;;;;;;;;;;;;;;;;-47.872097;-16.453293;17.18955;;339.9
499.0;395.3;;;;;;;;;;;;;;0.880398;0.44044313;0.0048219245;;;;;339.9
499.0;455.4;;;;;;;;;;;;;;;;;-48.29936;-16.79281;17.155216;;349.6
499.0;455.4;;;;;;;;;;;;;;0.8899808;0.44843897;0.006714072;;;;;349.6
499.0;455.4;;;;;;;;;;;;;;;;;-48.772396;-17.178104;17.124699;;349.6
499.0;455.4;;;;;;;;;;;;;;0.90395826;0.458388;0.011658071;;;;;349.6
499.0;455.4;;;;;;;;;;;;;;;;;-49.00891;-17.494736;16.972105;;359.3
499.0;455.4;;;;;;;;;;;;;;0.90920746;0.4701071;0.021546068;;;;;359.3
499.0;455.4;;;;;;;;;;;;;;;;;-49.233986;-18.398846;16.769922;;359.3
499.0;455.4;;;;;;;;;;;;;;0.91579944;0.4766991;0.030213324;;;;;359.3
499.0;455.4;;;;;;;;;;;;;;;;;-49.321728;-19.100773;16.605885;;368.9
499.0;455.4;;;;;;;;;;;;;;0.9240394;0.4856105;0.038819544;;;;;368.9
499.0;455.4;;;;;;;;;;;;;;;;;-49.302654;-18.913847;16.193884;;368.9
499.0;455.4;;;;;;;;;;;;;;0.9326457;0.5033113;0.05023347;;;;;368.9
560.0;456.2;;;;;;;;;;;;;;;;;-49.17295;-18.452253;15.701773;;378.5
560.0;456.2;;;;;;;;;;;;;;0.9427778;0.5213172;0.05713065;;;;;378.5
560.0;456.2;;;;;;;;;;;;;;;;;-48.623615;-17.521439;15.015106;;378.5
560.0;456.2;;;;;;;;;;;;;;0.94552445;0.5453047;0.060487688;;;;;378.5
560.0;456.2;;;;;;;;;;;;;;;;;-47.761467;-16.49144;14.213996;;388.2
560.0;456.2;;;;;;;;;;;;;;0.95437485;0.57258826;0.052552875;;;;;388.2
560.0;456.2;;;;;;;;;;;;;;;;;-47.173985;-15.377514;13.061922;;388.2
560.0;456.2;;;;;;;;;;;;;;0.9613941;0.5960265;0.04449599;;;;;388.2
560.0;456.2;;;;;;;;;;;;;;;;;-46.56743;-14.561144;11.68096;;397.9
560.0;456.2;;;;;;;;;;;;;;0.9588916;0.6250191;0.036317028;;;;;397.9
560.0;456.2;;;;;;;;;;;;;;;;;-46.48732;-14.389478;10.1130705;;397.9
560.0;456.2;;;;;;;;;;;;;;0.9632252;0.6519364;0.0270394;;;;;397.9
560.0;515.4;;;;;;;;;;;;;;;;;-47.025208;-14.275033;8.468886;;407.5
560.0;515.4;;;;;;;;;;;;;;0.96029544;0.66853845;0.022827845;;;;;407.5
560.0;515.4;;;;;;;;;;;;;;;;;-48.051395;-14.13007;6.870479;;407.5
560.0;515.4;;;;;;;;;;;;;;0.9561449;0.6862392;0.013977477;;;;;407.5
560.0;515.4;;;;;;;;;;;;;;;;;-49.34843;-13.817255;5.2339244;;417.1
560.0;515.4;;;;;;;;;;;;;;0.94998014;0.7055269;0.015381329;;;;;417.1
560.0;515.4;;;;;;;;;;;;;;;;;-50.805687;-13.359478;3.7957397;;417.1
560.0;515.4;;;;;;;;;;;;;;0.9462569;0.7201758;0.026062807;;;;;417.1
560.0;515.4;;;;;;;;;;;;;;;;;-52.587208;-12.527848;2.4681845;;426.5
560.0;515.4;;;;;;;;;;;;;;0.9382;0.72505873;0.043336283;;;;;426.5
560.0;515.4;;;;;;;;;;;;;;;;;-54.38017;-11.692404;1.2703329;;426.5
560.0;515.4;;;;;;;;;;;;;;0.9361858;0.72188485;0.062379833;;;;;426.5
620.0;516.2;;;;;;;;;;;;;;;;;-55.604725;-11.017182;0.14496292;;436.3
620.0;516.2;;;;;;;;;;;;;;0.9437544;0.71749014;0.07013153;;;;;436.3
620.0;516.2;;;;;;;;;;;;;;;;;-55.963314;-10.151219;-0.8125553;;436.3
620.0;516.2;;;;;;;;;;;;;;0.9582812;0.7058931;0.07629628;;;;;436.3
620.0;516.2;;;;;;;;;;;;;;;;;-55.60854;-9.331035;-1.6518143;;445.9
620.0;516.2;;;;;;;;;;;;;;0.9704886;0.68459123;0.07550279;;;;;445.9
620.0;516.2;;;;;;;;;;;;;;;;;-54.242836;-8.854182;-2.311777;;445.9
620.0;516.2;;;;;;;;;;;;;;0.99069184;0.6488235;0.0684225;;;;;445.9
620.0;516.2;;;;;;;;;;;;;;;;;-51.755577;-8.651998;-2.7962584;;455.6
620.0;516.2;;;;;;;;;;;;;;1.0267648;0.60121465;0.05346843;;;;;455.6
620.0;516.2;;;;;;;;;;;;;;;;;-48.497726;-8.697775;-3.212073;;455.6
620.0;516.2;;;;;;;;;;;;;;1.0704672;0.55098116;0.06207465;;;;;455.6
620.0;584.3;;;;;;;;;;;;;;;;;-45.041504;-10.124516;-3.6545916;;465.2
620.0;584.3;;;;;;;;;;;;;;1.1407819;0.50508136;0.075441755;;;;;465.2
620.0;584.3;;;;;;;;;;;;;;;;;-40.98636;-13.019959;-3.6011841;;465.2
620.0;584.3;;;;;;;;;;;;;;1.2396618;0.471572;0.06738487;;;;;465.2
620.0;584.3;;;;;;;;;;;;;;;;;-35.493027;-16.17481;-2.967925;;474.8
620.0;584.3;;;;;;;;;;;;;;1.3654592;0.45234534;0.033082064;;;;;474.8
620.0;584.3;;;;;;;;;;;;;;;;;-28.805658;-18.398846;-1.6060365;;474.8
620.0;584.3;;;;;;;;;;;;;;1.4866787;0.43592638;-0.009765923;;;;;474.8
620.0;584.3;;;;;;;;;;;;;;;;;-21.279032;-19.039736;0.1411481;;484.5
620.0;584.3;;;;;;;;;;;;;;1.5701773;0.4076052;-0.060975984;;;;;484.5
620.0;584.3;;;;;;;;;;;;;;;;;-14.137699;-18.436995;1.6937773;;484.5
620.0;584.3;;;;;;;;;;;;;;1.6133305;0.35230568;-0.105838194;;;;;484.5
692.0;585.4;;;;;;;;;;;;;;;;;-8.022553;-16.338848;2.887814;;494.2
692.0;585.4;;;;;;;;;;;;;;1.5930662;0.27460554;-0.14233834;;;;;494.2
692.0;585.4;;;;;;;;;;;;;;;;;-3.6126287;-14.210181;3.4295175;;494.2
692.0;585.4;;;;;;;;;;;;;;1.5422834;0.1904355;-0.1445967;;;;;494.2
692.0;585.4;;;;;;;;;;;;;;;;;-1.7929624;-14.484848;3.357036;;503.8
692.0;585.4;;;;;;;;;;;;;;1.5088351;0.109866634;-0.15790276;;;;;503.8
692.0;585.4;;;;;;;;;;;;;;;;;-1.8807031;-14.706107;2.9145176;;503.8
692.0;585.4;;;;;;;;;;;;;;1.4662312;0.064210944;-0.16754662;;;;;503.8
692.0;585.4;;;;;;;;;;;;;;;;;-3.9445176;-12.878811;1.8807031;;513.5
692.0;585.4;;;;;;;;;;;;;;1.4079409;0.05145421;-0.13434248;;;;;513.5
692.0;585.4;;;;;;;;;;;;;;;;;-7.530442;-9.933775;-0.7057405;;513.5
692.0;585.4;;;;;;;;;;;;;;1.3161412;0.08404797;-0.08667257;;;;;513.5
692.0;636.2;;;;;;;;;;;;;;;;;-10.952331;-8.461257;-5.226295;;523.1
692.0;636.2;;;;;;;;;;;;;;1.2099979;0.135197;-0.050904874;;;;;523.1
692.0;636.2;;;;;;;;;;;;;;;;;-12.890255;-9.460738;-10.509811;;523.1
692.0;636.2;;;;;;;;;;;;;;1.0816981;0.18982513;-0.032105472;;;;;523.1
692.0;636.2;;;;;;;;;;;;;;;;;-13.1077;-13.386182;-16.010773;;532.8
692.0;636.2;;;;;;;;;;;;;;0.92837304;0.2501297;-0.037110507;;;;;532.8
692.0;636.2;;;;;;;;;;;;;;;;;-11.387218;-20.630512;-21.374401;;532.8
692.0;636.2;;;;;;;;;;;;;;0.7719962;0.31348613;-0.04693747;;;;;532.8
692.0;636.2;;;;;;;;;;;;;;;;;-8.011109;-30.331583;-26.005585;;542.4
692.0;636.2;;;;;;;;;;;;;;0.6600543;0.35023043;-0.06891079;;;;;542.4
692.0;636.2;;;;;;;;;;;;;;;;;-4.5930357;-38.67077;-29.217659;;542.4
692.0;636.2;;;;;;;;;;;;;;0.5658132;0.35743278;-0.03216651;;;;;542.4
738.0;637.0;;;;;;;;;;;;;;;;;-3.4981842;-45.937984;-30.106508;;552.0
738.0;637.0;;;;;;;;;;;;;;0.5272378;0.34669027;0.014282662;;;;;552.0
738.0;637.0;;;;;;;;;;;;;;;;;-5.8252206;-49.4438;-28.447065;;552.0
738.0;637.0;;;;;;;;;;;;;;0.5033723;0.30512404;0.06634724;;;;;552.0
738.0;637.0;;;;;;;;;;;;;;;;;-11.074404;-49.241615;-24.712364;;561.7
738.0;637.0;;;;;;;;;;;;;;0.50129706;0.23572497;0.11139256;;;;;561.7
738.0;637.0;;;;;;;;;;;;;;;;;-16.846218;-44.69817;-19.276255;;561.7
738.0;637.0;;;;;;;;;;;;;;0.514481;0.1521653;0.14716025;;;;;561.7
738.0;637.0;;;;;;;;;;;;;;;;;-18.944365;-38.30073;-12.424848;;571.4
738.0;637.0;;;;;;;;;;;;;;0.5139317;0.0926542;0.15247047;;;;;571.4
738.0;637.0;;;;;;;;;;;;;;;;;-17.223883;-32.433548;-4.2115545;;571.4
738.0;637.0;;;;;;;;;;;;;;0.55818355;0.043702506;0.14148381;;;;;571.4
738.0;697.0;;;;;;;;;;;;;;;;;-12.375256;-24.945066;4.7685175;;581.1
738.0;697.0;;;;;;;;;;;;;;0.5965758;-0.009887997;0.12927641;;;;;581.1
738.0;697.0;;;;;;;;;;;;;;;;;-4.486221;-17.433699;13.30607;;581.1
738.0;697.0;;;;;;;;;;;;;;0.6810511;-0.05468917;0.10303049;;;;;581.1
738.0;697.0;;;;;;;;;;;;;;;;;7.4312572;-9.52559;21.206549;;590.7
738.0;697.0;;;;;;;;;;;;;;0.6969207;-0.09613331;0.113773;;;;;590.7
738.0;697.0;;;;;;;;;;;;;;;;;24.563585;-5.2491837;27.775658;;590.7
738.0;697.0;;;;;;;;;;;;;;0.7120579;-0.11651967;0.08197272;;;;;590.7
738.0;697.0;;;;;;;;;;;;;;;;;46.124912;-5.4361095;32.68151;;600.2
738.0;697.0;;;;;;;;;;;;;;0.75698113;-0.09198279;0.005859554;;;;;600.2
738.0;697.0;;;;;;;;;;;;;;;;;67.625206;-6.85522;36.046173;;600.2
738.0;697.0;;;;;;;;;;;;;;0.7556383;-0.06646931;-0.05780206;;;;;600.2
799.0;698.1;;;;;;;;;;;;;;;;;85.03601;-12.325664;39.15906;;609.8
799.0;698.1;;;;;;;;;;;;;;0.8598285;-0.005981628;-0.1953795;;;;;609.8
799.0;698.1;;;;;;;;;;;;;;;;;96.25538;-13.767662;41.45558;;609.8
799.0;698.1;;;;;;;;;;;;;;0.8703879;0.06622516;-0.2636189;;;;;609.8
799.0;698.1;;;;;;;;;;;;;;;;;98.8609;-17.28492;43.73684;;619.4
799.0;698.1;;;;;;;;;;;;;;0.9616382;0.15887935;-0.31897947;;;;;619.4
799.0;698.1;;;;;;;;;;;;;;;;;92.749565;-19.882809;44.69054;;619.4
799.0;698.1;;;;;;;;;;;;;;1.0616779;0.27277443;-0.3322245;;;;;619.4
799.0;698.1;;;;;;;;;;;;;;;;;81.16397;-20.405437;44.15647;;629.1
799.0;698.1;;;;;;;;;;;;;;1.1012299;0.38831753;-0.2797937;;;;;629.1
799.0;698.1;;;;;;;;;;;;;;;;;65.660576;-24.59792;42.115543;;629.1
799.0;698.1;;;;;;;;;;;;;;1.1860714;0.47547838;-0.26355785;;;;;629.1
799.0;711.6;;;;;;;;;;;;;;;;;49.00891;-27.588732;37.743767;;638.8
799.0;711.6;;;;;;;;;;;;;;1.2732322;0.5667287;-0.27741325;;;;;638.8
799.0;711.6;;;;;;;;;;;;;;;;;33.238472;-27.199623;32.45262;;638.8
799.0;711.6;;;;;;;;;;;;;;1.3129673;0.63539535;-0.2699057;;;;;638.8
799.0;711.6;;;;;;;;;;;;;;;;;19.108402;-23.934141;27.939695;;648.5
799.0;711.6;;;;;;;;;;;;;;1.2360606;0.6308786;-0.2224189;;;;;648.5
799.0;711.6;;;;;;;;;;;;;;;;;5.706961;-21.10355;24.899288;;648.5
799.0;711.6;;;;;;;;;;;;;;1.1393781;0.62172306;-0.17639698;;;;;648.5
799.0;711.6;;;;;;;;;;;;;;;;;-7.698294;-18.532366;23.098696;;658.1
799.0;711.6;;;;;;;;;;;;;;1.0364696;0.5825373;-0.14587848;;;;;658.1
799.0;711.6;;;;;;;;;;;;;;;;;-21.088291;-16.197699;22.52266;;658.1
799.0;711.6;;;;;;;;;;;;;;0.97256386;0.5404218;-0.113528855;;;;;658.1
859.0;772.7;;;;;;;;;;;;;;;;;-33.761105;-13.252663;22.091587;;667.6
859.0;772.7;;;;;;;;;;;;;;0.91201514;0.488052;-0.07824946;;;;;667.6
859.0;772.7;;;;;;;;;;;;;;;;;-44.339577;-10.418256;21.023438;;667.6
859.0;772.7;;;;;;;;;;;;;;0.8565325;0.42732018;-0.06305124;;;;;667.6
859.0;772.7;;;;;;;;;;;;;;;;;-50.702686;-8.373516;20.039215;;677.1
859.0;772.7;;;;;;;;;;;;;;0.8120365;0.36494035;-0.06317332;;;;;677.1
859.0;772.7;;;;;;;;;;;;;;;;;-51.927242;-6.85522;19.287699;;677.1
859.0;772.7;;;;;;;;;;;;;;0.7738273;0.30494094;-0.060487688;;;;;677.1
859.0;772.7;;;;;;;;;;;;;;;;;-48.532063;-6.309702;18.787958;;686.7
859.0;772.7;;;;;;;;;;;;;;0.75643176;0.2578814;-0.0629902;;;;;686.7
859.0;772.7;;;;;;;;;;;;;;;;;-41.93625;-5.9053316;18.364513;;686.7
859.0;772.7;;;;;;;;;;;;;;0.7332987;0.23059785;-0.055177465;;;;;686.7
859.0;773.5;;;;;;;;;;;;;;;;;-34.535507;-6.0922575;18.379772;;696.4
859.0;773.5;;;;;;;;;;;;;;0.7345805;0.21179846;-0.059511095;;;;;696.4
859.0;773.5;;;;;;;;;;;;;;;;;-27.775658;-5.8709984;18.913847;;696.4
859.0;773.5;;;;;;;;;;;;;;0.7324442;0.19806513;-0.055543687;;;;;696.4
859.0;773.5;;;;;;;;;;;;;;;;;-22.072514;-6.2105165;19.966734;;706.0
859.0;773.5;;;;;;;;;;;;;;0.7582629;0.1716361;-0.06689657;;;;;706.0
859.0;773.5;;;;;;;;;;;;;;;;;-17.002625;-6.042665;21.473587;;706.0
859.0;773.5;;;;;;;;;;;;;;0.7813349;0.14276558;-0.06811731;;;;;706.0
859.0;773.5;;;;;;;;;;;;;;;;;-11.349071;-6.164739;23.232216;;715.5
859.0;773.5;;;;;;;;;;;;;;0.8080081;0.11761834;-0.081118196;;;;;715.5
859.0;773.5;;;;;;;;;;;;;;;;;-5.344554;-6.5233316;25.337992;;715.5
859.0;773.5;;;;;;;;;;;;;;0.84340954;0.09930723;-0.10724204;;;;;715.5
924.0;817.0;;;;;;;;;;;;;;;;;0.31662953;-7.2862945;27.256845;;725.1
924.0;817.0;;;;;;;;;;;;;;0.8794824;0.098818935;-0.14337596;;;;;725.1
924.0;817.0;;;;;;;;;;;;;;;;;4.9172945;-8.800775;28.962067;;725.1
924.0;817.0;;;;;;;;;;;;;;0.9168981;0.11127049;-0.17926572;;;;;725.1
924.0;817.0;;;;;;;;;;;;;;;;;7.6639605;-9.941404;30.449842;;734.8
924.0;817.0;;;;;;;;;;;;;;0.9466842;0.13055818;-0.20386365;;;;;734.8
924.0;817.0;;;;;;;;;;;;;;;;;8.919034;-10.75396;31.418804;;734.8
924.0;817.0;;;;;;;;;;;;;;0.9687185;0.13788262;-0.21918394;;;;;734.8
924.0;817.0;;;;;;;;;;;;;;;;;9.559923;-11.314737;31.670582;;744.4
924.0;817.0;;;;;;;;;;;;;;0.9767144;0.1314127;-0.22449416;;;;;744.4
924.0;817.0;;;;;;;;;;;;;;;;;11.017182;-12.131108;31.785027;;744.4
924.0;817.0;;;;;;;;;;;;;;0.98031557;0.15027314;-0.21942808;;;;;744.4
924.0;877.8;;;;;;;;;;;;;;;;;12.398144;-12.199775;32.002472;;754.0
924.0;877.8;;;;;;;;;;;;;;0.97561574;0.17169714;-0.19129002;;;;;754.0
924.0;877.8;;;;;;;;;;;;;;;;;13.233589;-12.356182;32.05588;;754.0
924.0;877.8;;;;;;;;;;;;;;0.96877956;0.18366039;-0.17047639;;;;;754.0
924.0;877.8;;;;;;;;;;;;;;;;;14.313181;-12.653737;32.383953;;763.7
924.0;877.8;;;;;;;;;;;;;;0.9682913;0.21289712;-0.16223639;;;;;763.7
924.0;877.8;;;;;;;;;;;;;;;;;14.362774;-12.817774;33.173622;;763.7
924.0;877.8;;;;;;;;;;;;;;0.9708548;0.2525712;-0.14966278;;;;;763.7
924.0;877.8;;;;;;;;;;;;;;;;;13.252663;-12.924589;34.184544;;773.4
924.0;877.8;;;;;;;;;;;;;;0.962859;0.2732017;-0.14850307;;;;;773.4
924.0;877.8;;;;;;;;;;;;;;;;;11.543626;-12.543107;35.07721;;773.4
924.0;877.8;;;;;;;;;;;;;;0.9377117;0.26557207;-0.14465773;;;;;773.4
980.0;878.5;;;;;;;;;;;;;;;;;9.987182;-13.336589;36.14536;;782.9
980.0;878.5;;;;;;;;;;;;;;0.9337443;0.24909207;-0.1480758;;;;;782.9
980.0;878.5;;;;;;;;;;;;;;;;;8.194221;-14.198736;37.511063;;782.9
980.0;878.5;;;;;;;;;;;;;;0.9342936;0.25830868;-0.14886929;;;;;782.9
980.0;878.5;;;;;;;;;;;;;;;;;5.691702;-14.500107;38.804287;;792.5
980.0;878.5;;;;;;;;;;;;;;0.9261757;0.27198097;-0.13434248;;;;;792.5
980.0;878.5;;;;;;;;;;;;;;;;;1.8768883;-15.312662;40.135654;;792.5
980.0;878.5;;;;;;;;;;;;;;0.9242225;0.26728112;-0.1347087;;;;;792.5
980.0;878.5;;;;;;;;;;;;;;;;;-1.2588885;-15.797144;41.12369;;802.2
980.0;878.5;;;;;;;;;;;;;;0.92245245;0.23590808;-0.14123966;;;;;802.2
980.0;878.5;;;;;;;;;;;;;;;;;-4.6845913;-16.552477;42.641987;;802.2
980.0;878.5;;;;;;;;;;;;;;0.9322184;0.2692343;-0.11902219;;;;;802.2
980.0;892.7;;;;;;;;;;;;;;;;;-8.747368;-17.429884;44.034397;;811.8
980.0;892.7;;;;;;;;;;;;;;0.9471114;0.2557451;-0.13440351;;;;;811.8
980.0;892.7;;;;;;;;;;;;;;;;;-12.939848;-17.147587;44.9881;;811.8
980.0;892.7;;;;;;;;;;;;;;0.9411298;0.24481948;-0.14142278;;;;;811.8
980.0;892.7;;;;;;;;;;;;;;;;;-17.42607;-16.949217;45.510727;;821.5
980.0;892.7;;;;;;;;;;;;;;0.9300821;0.25501266;-0.12610248;;;;;821.5
980.0;892.7;;;;;;;;;;;;;;;;;-22.39677;-17.761772;46.411022;;821.5
980.0;892.7;;;;;;;;;;;;;;0.9382;0.24085207;-0.13202307;;;;;821.5
980.0;892.7;;;;;;;;;;;;;;;;;-26.669363;-17.788475;47.021393;;831.1
980.0;892.7;;;;;;;;;;;;;;0.9368572;0.22614215;-0.1350139;;;;;831.1
980.0;892.7;;;;;;;;;;;;;;;;;-30.426954;-17.872402;47.284615;;831.1
980.0;892.7;;;;;;;;;;;;;;0.93508714;0.21503341;-0.13763848;;;;;831.1
1041.0;945.2;;;;;;;;;;;;;;;;;-33.906063;-17.773216;47.521133;;840.6
1041.0;945.2;;;;;;;;;;;;;;0.93490404;0.19910276;-0.13861507;;;;;840.6
1041.0;945.2;;;;;;;;;;;;;;;;;-36.832027;-17.345957;47.540207;;840.6
1041.0;945.2;;;;;;;;;;;;;;0.9281289;0.17303994;-0.14264351;;;;;840.6
1041.0;945.2;;;;;;;;;;;;;;;;;-39.15906;-17.07892;47.27317;;850.2
1041.0;945.2;;;;;;;;;;;;;;0.9154332;0.14404736;-0.14465773;;;;;850.2
1041.0;945.2;;;;;;;;;;;;;;;;;-40.95584;-16.979734;47.132023;;850.2
1041.0;945.2;;;;;;;;;;;;;;0.9081698;0.124210335;-0.14844203;;;;;850.2
1041.0;945.2;;;;;;;;;;;;;;;;;-41.76458;-17.017883;47.025208;;859.8
1041.0;945.2;;;;;;;;;;;;;;0.9067049;0.09088412;-0.14764854;;;;;859.8
1041.0;945.2;;;;;;;;;;;;;;;;;-41.821804;-17.178104;46.975616;;859.8
1041.0;945.2;;;;;;;;;;;;;;0.90517896;0.0717185;-0.14593951;;;;;859.8
1041.0;946.2;;;;;;;;;;;;;;;;;-41.192356;-17.319254;46.956543;;869.5
1041.0;946.2;;;;;;;;;;;;;;0.901883;0.054628134;-0.14868619;;;;;869.5
1041.0;946.2;;;;;;;;;;;;;;;;;-39.643543;-17.921995;46.910763;;869.5
1041.0;946.2;;;;;;;;;;;;;;0.9106723;0.012268441;-0.15704826;;;;;869.5
1041.0;946.2;;;;;;;;;;;;;;;;;-36.988434;-17.830439;46.67043;;879.2
1041.0;946.2;;;;;;;;;;;;;;0.9061556;0.0010986663;-0.15686513;;;;;879.2
1041.0;946.2;;;;;;;;;;;;;;;;;-34.009064;-18.024994;46.689503;;879.2
1041.0;946.2;;;;;;;;;;;;;;0.9067049;-0.01660207;-0.16064943;;;;;879.2
1041.0;946.2;;;;;;;;;;;;;;;;;-30.655842;-18.23481;46.456802;;888.9
1041.0;946.2;;;;;;;;;;;;;;0.9056673;-0.03485214;-0.16943876;;;;;888.9
1041.0;946.2;;;;;;;;;;;;;;;;;-26.890623;-18.490402;46.182133;;888.9
1041.0;946.2;;;;;;;;;;;;;;0.9126255;-0.048585467;-0.17456588;;;;;888.9
1100.0;1005.2;;;;;;;;;;;;;;;;;-23.010956;-18.642994;45.960876;;898.5
1100.0;1005.2;;;;;;;;;;;;;;0.9159215;-0.038941618;-0.1775567;;;;;898.5
1100.0;1005.2;;;;;;;;;;;;;;;;;-19.38307;-18.51329;45.937984;;898.5
1100.0;1005.2;;;;;;;;;;;;;;0.9125034;-0.03442488;-0.17987609;;;;;898.5
1100.0;1005.2;;;;;;;;;;;;;;;;;-16.220589;-18.696402;45.564133;;908.0
1100.0;1005.2;;;;;;;;;;;;;;0.9106113;-0.015015107;-0.17719047;;;;;908.0
1100.0;1005.2;;;;;;;;;;;;;;;;;-13.691366;-18.803217;45.03769;;908.0
1100.0;1005.2;;;;;;;;;;;;;;0.9106113;-0.019348735;-0.17969298;;;;;908.0
1100.0;1005.2;;;;;;;;;;;;;;;;;-10.826442;-18.585773;44.46928;;917.7
1100.0;1005.2;;;;;;;;;;;;;;0.9061556;0.010559404;-0.18005921;;;;;917.7
1100.0;1005.2;;;;;;;;;;;;;;;;;-9.380627;-18.913847;43.79788;;917.7
1100.0;1005.2;;;;;;;;;;;;;;0.9033479;0.034669027;-0.18475905;;;;;917.7
1100.0;1006.0;;;;;;;;;;;;;;;;;-8.011109;-18.532366;42.81747;;927.4
1100.0;1006.0;;;;;;;;;;;;;;0.89602345;0.014709922;-0.18622394;;;;;927.4
1100.0;1006.0;;;;;;;;;;;;;;;;;-6.4203315;-18.265327;41.898098;;927.4
1100.0;1006.0;;;;;;;;;;;;;;0.8955962;0.034974214;-0.19037446;;;;;927.4
1100.0;1006.0;;;;;;;;;;;;;;;;;-6.107517;-18.257698;41.135136;;937.0
1100.0;1006.0;;;;;;;;;;;;;;0.90176094;0.054628134;-0.19348735;;;;;937.0
1100.0;1006.0;;;;;;;;;;;;;;;;;-5.9701834;-18.33018;40.540024;;937.0
1100.0;1006.0;;;;;;;;;;;;;;0.90786463;0.07330546;-0.19745475;;;;;937.0
1100.0;1006.0;;;;;;;;;;;;;;;;;-6.3592944;-18.108921;40.303505;;946.6
1100.0;1006.0;;;;;;;;;;;;;;0.9135411;0.087343976;-0.19653921;;;;;946.6
1100.0;1006.0;;;;;;;;;;;;;;;;;-6.5614796;-17.628254;39.75036;;946.6
1100.0;1006.0;;;;;;;;;;;;;;0.9106113;0.09668264;-0.19116795;;;;;946.6
1160.0;1058.0;;;;;;;;;;;;;;;;;-6.9505906;-17.681662;39.315468;;956.2
1160.0;1058.0;;;;;;;;;;;;;;0.91909546;0.093813896;-0.18536943;;;;;956.2
1160.0;1058.0;;;;;;;;;;;;;;;;;-6.5805535;-17.380291;38.747063;;956.2
1160.0;1058.0;;;;;;;;;;;;;;0.9220252;0.10235908;-0.19269387;;;;;956.2
1160.0;1058.0;;;;;;;;;;;;;;;;;-6.3783684;-16.335033;38.10999;;965.8
1160.0;1058.0;;;;;;;;;;;;;;0.9220252;0.1180456;-0.18811609;;;;;965.8
1160.0;1058.0;;;;;;;;;;;;;;;;;-6.0731835;-15.808588;37.99173;;965.8
1160.0;1058.0;;;;;;;;;;;;;;0.9205603;0.12518692;-0.19739372;;;;;965.8
1160.0;1058.0;;;;;;;;;;;;;;;;;-6.164739;-14.881589;37.80862;;975.3
1160.0;1058.0;;;;;;;;;;;;;;0.9189123;0.12408826;-0.1998352;;;;;975.3
1160.0;1058.0;;;;;;;;;;;;;;;;;-6.2372203;-13.969848;37.354656;;975.3
1160.0;1058.0;;;;;;;;;;;;;;0.91470075;0.11963256;-0.19647816;;;;;975.3
1160.0;1118.5;;;;;;;;;;;;;;;;;-6.0579243;-13.039033;37.19062;;984.9
1160.0;1118.5;;;;;;;;;;;;;;0.90359205;0.11694693;-0.19171728;;;;;984.9
1160.0;1118.5;;;;;;;;;;;;;;;;;-5.8442945;-12.543107;36.862545;;984.9
1160.0;1118.5;;;;;;;;;;;;;;0.8993194;0.10620441;-0.18921477;;;;;984.9
1160.0;1118.5;;;;;;;;;;;;;;;;;-5.6230354;-12.024293;36.48488;;994.6
1160.0;1118.5;;;;;;;;;;;;;;0.8942534;0.09778131;-0.18518631;;;;;994.6
1160.0;1118.5;;;;;;;;;;;;;;;;;-5.3903317;-11.692404;36.328472;;994.6
1160.0;1118.5;;;;;;;;;;;;;;0.8999298;0.09375286;-0.18695639;;;;;994.6
1160.0;1118.5;;;;;;;;;;;;;;;;;-4.776147;-11.368145;36.095768;;1004.2
1160.0;1118.5;;;;;;;;;;;;;;0.9074984;0.085024565;-0.1850032;;;;;1004.2
1160.0;1118.5;;;;;;;;;;;;;;;;;-3.7499619;-10.971405;35.72573;;1004.2
1160.0;1118.5;;;;;;;;;;;;;;0.91311383;0.08075198;-0.1897641;;;;;1004.2
1161.0;1119.7;;;;;;;;;;;;;;;;;-2.4605548;-10.269479;35.45106;;1013.8
1161.0;1119.7;;;;;;;;;;;;;;0.9161046;0.07806635;-0.18842128;;;;;1013.8
1161.0;1119.7;;;;;;;;;;;;;;;;;-0.96133304;-9.372997;35.222176;;1013.8
1161.0;1119.7;;;;;;;;;;;;;;0.9157384;0.0740379;-0.19147313;;;;;1013.8
1161.0;1119.7;;;;;;;;;;;;;;;;;0.6179998;-8.758812;35.000916;;1023.4
1161.0;1119.7;;;;;;;;;;;;;;0.9180578;0.071108125;-0.19763787;;;;;1023.4
1161.0;1119.7;;;;;;;;;;;;;;;;;1.823481;-7.8852196;34.718616;;1023.4
1161.0;1119.7;;;;;;;;;;;;;;0.91927856;0.07202368;-0.19635609;;;;;1023.4
1161.0;1119.7;;;;;;;;;;;;;;;;;2.9831843;-6.897183;34.638508;;1033.1
1161.0;1119.7;;;;;;;;;;;;;;0.91665393;0.074892424;-0.18872647;;;;;1033.1
1161.0;1119.7;;;;;;;;;;;;;;;;;3.6355176;-6.550035;34.56221;;1033.1
1161.0;1119.7;;;;;;;;;;;;;;0.9246498;0.07312235;-0.1892758;;;;;1033.1
1161.0;1130.1;;;;0.0;0.0;0.0;;;;;;;;;;;;;;;
1161.0;1130.1;;;;-0.15772249;-1.3351442E-4;0.05703736;;;;;;;;;;;;;;;
1161.0;1130.1;;;;-0.76801693;-0.13802339;0.17960359;;;;;;;;;;;;;;;
1161.0;1130.1;;;;-0.85579693;-0.16957094;0.18706895;;;;;;;;;;;;;;;
1161.0;1130.1;;;;-0.86052716;-0.17404939;0.1840172;;;;;;;;;;;;;;;
1218.0;1140.1;;;;-0.8638612;-0.17786027;0.18141176;;;;;;;;;;;;;;;
1218.0;1140.1;;;;-0.8673364;-0.18089677;0.17982103;;;;;;;;;;;;;;;
1218.0;1140.1;;;;-0.8695718;-0.18195726;0.17931367;;;;;;;;;;;;;;;
1218.0;1140.1;;;;-0.8702203;-0.18134691;0.18024065;;;;;;;;;;;;;;;
1218.0;1140.1;;;;-0.8700105;-0.17965318;0.18074419;;;;;;;;;;;;;;;
1218.0;1145.7;57421;57473;12840;;;;;;;;;;;;;;;;;;
1218.0;1150.0;;;;-0.86999524;-0.17755128;0.18041994;;;;;;;;;;;;;;;
1218.0;1150.0;;;;-0.8689271;-0.17369844;0.17995454;;;;;;;;;;;;;;;
1218.0;1150.0;;;;-0.870762;-0.17354967;0.1798668;;;;;;;;;;;;;;;
1218.0;1150.0;;;;-0.87187207;-0.17241289;0.17776872;;;;;;;;;;;;;;;
1218.0;1150.0;;;;-0.8726007;-0.172287;0.17578126;;;;;;;;;;;;;;;
1218.0;1160.1;;;;-0.87448514;-0.1741829;0.17340471;;;;;;;;;;;;;;;
1218.0;1160.1;;;;-0.87765896;-0.17668916;0.17131425;;;;;;;;;;;;;;;
1218.0;1160.1;;;;-0.87955487;-0.17967226;0.16902544;;;;;;;;;;;;;;;
1218.0;1160.1;;;;-0.88069546;-0.18215181;0.16729356;;;;;;;;;;;;;;;
1218.0;1160.1;;;;-0.8834077;-0.18592836;0.16685869;;;;;;;;;;;;;;;
1218.0;1165.7;73881;73816;12823;;;;;;;;;;;;;;;;;;
1219.0;1170.2;;;;-0.88497555;-0.18825534;0.16708376;;;;;;;;;;;;;;;
1219.0;1170.2;;;;-0.88404095;-0.19018176;0.16683961;;;;;;;;;;;;;;;
1219.0;1170.2;;;;-0.88388836;-0.1913338;0.16766359;;;;;;;;;;;;;;;
1219.0;1170.2;;;;-0.884472;-0.19079211;0.16954423;;;;;;;;;;;;;;;
1219.0;1170.2;;;;-0.8842546;-0.19018939;0.17044069;;;;;;;;;;;;;;;
1219.0;1171.8;;;;;;;;;;;;;0;;;;;;;;
1219.0;1171.8;;;;;;;;;;;;;0;;;;;;;;
1219.0;1171.8;;;;;;;;;;;;;-1;;;;;;;;
1219.0;1171.8;;;;;;;;;;;;;-2;;;;;;;;
1219.0;1171.8;;;;;;;;;;;;;-3;;;;;;;;
1219.0;1178.7;;;;;;;;;;;;;;;;;4.1657767;-6.4394054;34.44395;;1042.8
1219.0;1178.7;;;;;;;;;;;;;;0.9380779;0.080568865;-0.18805505;;;;;1042.8
1219.0;1178.7;;;;;;;;;;;;;;;;;4.562517;-5.9854426;34.35621;;1042.8
1219.0;1178.7;;;;;;;;;;;;;;0.94949186;0.08948027;-0.1887875;;;;;1042.8
1219.0;1178.7;;;;;;;;;;;;;;;;;4.894406;-5.3750725;34.051025;;1052.4
1219.0;1178.7;;;;;;;;;;;;;;0.95620596;0.09338664;-0.1866512;;;;;1052.4
1219.0;1178.7;;;;;;;;;;;;;;;;;5.5543685;-4.791406;33.71151;;1052.4
1219.0;1178.7;;;;;;;;;;;;;;0.966155;0.09857479;-0.18671224;;;;;1052.4
1219.0;1178.7;;;;;;;;;;;;;;;;;6.324961;-3.4257026;33.30714;;1062.1
1219.0;1178.7;;;;;;;;;;;;;;0.9603565;0.104617454;-0.1815241;;;;;1062.1
1219.0;1178.7;;;;;;;;;;;;;;;;;7.0574055;-2.254555;32.81503;;1062.1
1219.0;1178.7;;;;;;;;;;;;;;0.9567553;0.11066011;-0.17926572;;;;;1062.1
1221.0;1179.6;;;;;;;;;;;;;;;;;7.515183;-1.3161107;32.34962;;1071.7
1221.0;1179.6;;;;;;;;;;;;;;0.9551073;0.11603137;-0.17511521;;;;;1071.7
1221.0;1179.6;;;;;;;;;;;;;;;;;7.675405;-0.46922207;31.888027;;1071.7
1221.0;1179.6;;;;;;;;;;;;;;0.95358133;0.11816767;-0.17426069;;;;;1071.7
1221.0;1179.6;;;;;;;;;;;;;;;;;7.7478867;0.6637776;31.567585;;1081.2
1221.0;1179.6;;;;;;;;;;;;;;0.94766074;0.10864589;-0.16864528;;;;;1081.2
1221.0;1179.6;;;;;;;;;;;;;;;;;7.816553;1.5793328;31.182287;;1081.2
1221.0;1179.6;;;;;;;;;;;;;;0.9441816;0.110965304;-0.16705832;;;;;1081.2
1221.0;1179.6;;;;;;;;;;;;;;;;;7.843257;2.5673697;30.835138;;1090.9
1221.0;1179.6;;;;;;;;;;;;;;0.9378338;0.109195225;-0.16309091;;;;;1090.9
1221.0;1179.6;;;;;;;;;;;;;;;;;7.976775;3.360851;30.48036;;1090.9
1221.0;1179.6;;;;;;;;;;;;;;0.9396649;0.102053896;-0.16241951;;;;;1090.9
1221.0;1180.1;;;;-0.88637936;-0.18879321;0.17052461;;;;;;;;;;;;;;;
1221.0;1180.1;;;;-0.887478;-0.18665315;0.1712494;;;;;;;;;;;;;;;
1221.0;1180.1;;;;-0.8874475;-0.18501665;0.17060854;;;;;;;;;;;;;;;
1221.0;1180.1;;;;-0.8871385;-0.18274309;0.1715851;;;;;;;;;;;;;;;
1221.0;1180.1;;;;-0.89114773;-0.18212129;0.17167284;;;;;;;;;;;;;;;
1221.0;1185.7;90257;90197;12821;;;;;;;;;;;;;;;;;;
1221.0;1190.2;;;;-0.89670956;-0.18331148;0.1702881;;;;;;;;;;;;;;;
1221.0;1190.2;;;;-0.89574444;-0.179554;0.17390825;;;;;;;;;;;;;;;
1221.0;1190.2;;;;-0.8888055;-0.17168428;0.17672731;;;;;;;;;;;;;;;
1221.0;1190.2;;;;-0.8842164;-0.1640854;0.17599107;;;;;;;;;;;;;;;
1221.0;1190.2;;;;-0.8872224;-0.16106035;0.17522432;;;;;;;;;;;;;;;
1278.0;1193.8;;;;;;;;;;;;;;;;;8.384961;4.5510726;30.037842;;1100.6
1278.0;1193.8;;;;;;;;;;;;;;0.93722343;0.097720265;-0.16748558;;;;;1100.6
1278.0;1193.8;;;;;;;;;;;;;;;;;9.12122;5.9778132;29.515215;;1100.6
1278.0;1193.8;;;;;;;;;;;;;;0.9338664;0.09021272;-0.17438276;;;;;1100.6
1278.0;1193.8;;;;;;;;;;;;;;;;;10.334331;7.2824793;28.828547;;1110.2
1278.0;1193.8;;;;;;;;;;;;;;0.9272134;0.09686575;-0.1904355;;;;;1110.2
1278.0;1193.8;;;;;;;;;;;;;;;;;11.387218;8.610034;28.237251;;1110.2
1278.0;1193.8;;;;;;;;;;;;;;0.9164098;0.10589923;-0.20032349;;;;;1110.2
1278.0;1193.8;;;;;;;;;;;;;;;;;11.98233;9.643849;27.809992;;1119.9
1278.0;1193.8;;;;;;;;;;;;;;0.9115879;0.09796441;-0.21094394;;;;;1119.9
1278.0;1193.8;;;;;;;;;;;;;;;;;13.027589;10.261848;27.1424;;1119.9
1278.0;1193.8;;;;;;;;;;;;;;0.90359205;0.097048864;-0.2169866;;;;;1119.9
1278.0;1200.2;;;;-0.8909265;-0.15986253;0.17491914;;;;;;;;;;;;;;;
1278.0;1200.2;;;;-0.8936006;-0.15973283;0.17488863;;;;;;;;;;;;;;;
1278.0;1200.2;;;;-0.8970071;-0.16026689;0.17527391;;;;;;;;;;;;;;;
1278.0;1200.2;;;;-0.899685;-0.16017915;0.17570879;;;;;;;;;;;;;;;
1278.0;1200.2;;;;-0.901127;-0.16015626;0.17567064;;;;;;;;;;;;;;;
1278.0;1205.9;106642;106662;12827;;;;;;;;;;;;;;;;;;
1278.0;1210.0;;;;-0.90332806;-0.15994264;0.17568971;;;;;;;;;;;;;;;
1278.0;1210.0;;;;-0.9064599;-0.15935518;0.17490388;;;;;;;;;;;;;;;
1278.0;1210.0;;;;-0.91160214;-0.15930177;0.1742325;;;;;;;;;;;;;;;
1278.0;1210.0;;;;-0.9168054;-0.15830614;0.17291643;;;;;;;;;;;;;;;
1278.0;1210.0;;;;-0.9224702;-0.15656663;0.1708603;;;;;;;;;;;;;;;
1280.0;1211.5;;;;;;;;;;;;;-7;;;;;;;;
1280.0;1211.5;;;;;;;;;;;;;-6;;;;;;;;
1280.0;1211.5;;;;;;;;;;;;;-8;;;;;;;;
1280.0;1211.5;;;;;;;;;;;;;-18;;;;;;;;
1280.0;1211.5;;;;;;;;;;;;;-11;;;;;;;;
1280.0;1220.0;;;;-0.9299089;-0.1545067;0.16900636;;;;;;;;;;;;;;;
1280.0;1220.0;;;;-0.9363748;-0.15239336;0.1674347;;;;;;;;;;;;;;;
1280.0;1220.0;;;;-0.9418069;-0.15018465;0.1645012;;;;;;;;;;;;;;;
1280.0;1220.0;;;;-0.9463197;-0.1476021;0.16129304;;;;;;;;;;;;;;;
1280.0;1220.0;;;;-0.9507066;-0.14470674;0.15841676;;;;;;;;;;;;;;;
1280.0;1225.8;123010;122978;12835;;;;;;;;;;;;;;;;;;
1280.0;1230.2;;;;-0.9554101;-0.1427765;0.15563585;;;;;;;;;;;;;;;
1280.0;1230.2;;;;-0.9592248;-0.14067079;0.15200044;;;;;;;;;;;;;;;
1280.0;1230.2;;;;-0.9629327;-0.13911821;0.14792253;;;;;;;;;;;;;;;
1280.0;1230.2;;;;-0.96662915;-0.13850023;0.14453126;;;;;;;;;;;;;;;
1280.0;1230.2;;;;-0.9692384;-0.13875581;0.13978578;;;;;;;;;;;;;;;
1280.0;1240.3;;;;-0.97003186;-0.13956453;0.13536073;;;;;;;;;;;;;;;
1280.0;1240.3;;;;-0.96953595;-0.14101793;0.13187028;;;;;;;;;;;;;;;
1280.0;1240.3;;;;-0.9680139;-0.14271928;0.12844087;;;;;;;;;;;;;;;
1280.0;1240.3;;;;-0.9661752;-0.14466096;0.12588884;;;;;;;;;;;;;;;
1280.0;1240.3;;;;-0.96377957;-0.14556886;0.12308504;;;;;;;;;;;;;;;
1280.0;1246.0;139400;139445;12836;;;;;;;;;;;;;;;;;;
1281.0;1247.0;;;;;;;;;;;;;;;;;13.374737;11.482589;26.669363;;1129.5
1281.0;1247.0;;;;;;;;;;;;;;0.8996857;0.0999176;-0.21869564;;;;;1129.5
1281.0;1247.0;;;;;;;;;;;;;;;;;14.187292;12.707144;26.326029;;1129.5
1281.0;1247.0;;;;;;;;;;;;;;0.9038972;0.097720265;-0.23242897;;;;;1129.5
1281.0;1247.0;;;;;;;;;;;;;;;;;15.617847;14.259773;25.818659;;1139.1
1281.0;1247.0;;;;;;;;;;;;;;0.9053011;0.09320353;-0.24866481;;;;;1139.1
1281.0;1247.0;;;;;;;;;;;;;;;;;17.654957;16.121403;25.173954;;1139.1
1281.0;1247.0;;;;;;;;;;;;;;0.9043245;0.09460738;-0.2582476;;;;;1139.1
1281.0;1247.0;;;;;;;;;;;;;;;;;19.16944;17.563402;24.327068;;1148.7
1281.0;1247.0;;;;;;;;;;;;;;0.9073153;0.09485153;-0.2674032;;;;;1148.7
1281.0;1247.0;;;;;;;;;;;;;;;;;20.508438;18.704031;23.678549;;1148.7
1281.0;1247.0;;;;;;;;;;;;;;0.92062134;0.093935974;-0.27558213;;;;;1148.7
1281.0;1247.7;;;;;;;;;;;;;;;;;21.782587;20.268105;23.121586;;1158.5
1281.0;1247.7;;;;;;;;;;;;;;0.9250771;0.100161746;-0.28437147;;;;;1158.5
1281.0;1247.7;;;;;;;;;;;;;;;;;23.16355;21.843624;22.518845;;1158.5
1281.0;1247.7;;;;;;;;;;;;;;0.9220252;0.10925627;-0.28131962;;;;;1158.5
1281.0;1247.7;;;;;;;;;;;;;;;;;24.452957;22.82403;22.289955;;1168.2
1281.0;1247.7;;;;;;;;;;;;;;0.92672503;0.12182989;-0.27686393;;;;;1168.2
1281.0;1247.7;;;;;;;;;;;;;;;;;26.051363;23.873104;22.263252;;1168.2
1281.0;1247.7;;;;;;;;;;;;;;0.9371624;0.14374217;-0.27246925;;;;;1168.2
1281.0;1247.7;;;;;;;;;;;;;;;;;28.271584;25.07477;22.473066;;1177.7
1281.0;1247.7;;;;;;;;;;;;;;0.95040745;0.1652272;-0.27466658;;;;;1177.7
1281.0;1247.7;;;;;;;;;;;;;;;;;31.132694;26.917326;22.717215;;1177.7
1281.0;1247.7;;;;;;;;;;;;;;0.9551683;0.1911069;-0.26996672;;;;;1177.7
1342.0;1250.2;;;;-0.9613954;-0.1467476;0.12012102;;;;;;;;;;;;;;;
1342.0;1250.2;;;;-0.95936596;-0.14791109;0.11737825;;;;;;;;;;;;;;;
1342.0;1250.2;;;;-0.95718396;-0.14848329;0.11465837;;;;;;;;;;;;;;;
1342.0;1250.2;;;;-0.95388424;-0.1484337;0.111518875;;;;;;;;;;;;;;;
1342.0;1250.2;;;;-0.9505311;-0.14860155;0.107849136;;;;;;;;;;;;;;;
1342.0;1251.9;;;;;;;;;;;;;-32;;;;;;;;
1342.0;1251.9;;;;;;;;;;;;;-24;;;;;;;;
1342.0;1251.9;;;;;;;;;;;;;-9;;;;;;;;
1342.0;1251.9;;;;;;;;;;;;;-111;;;;;;;;
1342.0;1251.9;;;;;;;;;;;;;29;;;;;;;;
1342.0;1260.2;;;;-0.94863904;-0.1498871;0.10350038;;;;;;;;;;;;;;;
1342.0;1260.2;;;;-0.9480134;-0.15187456;0.10020067;;;;;;;;;;;;;;;
1342.0;1260.2;;;;-0.94866574;-0.15518571;0.098541275;;;;;;;;;;;;;;;
1342.0;1260.2;;;;-0.9519464;-0.16022493;0.09976961;;;;;;;;;;;;;;;
1342.0;1260.2;;;;-0.9581529;-0.1658478;0.10280229;;;;;;;;;;;;;;;
1342.0;1266.1;155799;155718;12837;;;;;;;;;;;;;;;;;;
1342.0;1270.2;;;;-0.96639264;-0.17247011;0.10716249;;;;;;;;;;;;;;;
1342.0;1270.2;;;;-0.9751016;-0.17947389;0.11307527;;;;;;;;;;;;;;;
1342.0;1270.2;;;;-0.9837533;-0.18647386;0.11886217;;;;;;;;;;;;;;;
1342.0;1270.2;;;;-0.9928132;-0.19350436;0.1235695;;;;;;;;;;;;;;;
1342.0;1270.2;;;;-1.002369;-0.2007828;0.12801363;;;;;;;;;;;;;;;
1398.0;1280.3;;;;-1.01289;-0.20687869;0.13203813;;;;;;;;;;;;;;;
1398.0;1280.3;;;;-1.0265504;-0.21360019;0.13859178;;;;;;;;;;;;;;;
1398.0;1280.3;;;;-1.0433465;-0.21782306;0.1474724;;;;;;;;;;;;;;;
1398.0;1280.3;;;;-1.065075;-0.22134784;0.15750124;;;;;;;;;;;;;;;
1398.0;1280.3;;;;-1.0915147;-0.22232822;0.16992189;;;;;;;;;;;;;;;
1398.0;1286.2;172147;172093;12850;;;;;;;;;;;;;;;;;;
1398.0;1290.4;;;;-1.1200486;-0.21987155;0.18450548;;;;;;;;;;;;;;;
1398.0;1290.4;;;;-1.1488343;-0.21475604;0.19947818;;;;;;;;;;;;;;;
1398.0;1290.4;;;;-1.1781083;-0.20611194;0.21318439;;;;;;;;;;;;;;;
1398.0;1290.4;;;;-1.2067643;-0.19411471;0.22500613;;;;;;;;;;;;;;;
1398.0;1290.4;;;;-1.2329637;-0.17871095;0.23355487;;;;;;;;;;;;;;;
1398.0;1292.2;;;;;;;;;;;;;254;;;;;;;;
1398.0;1292.2;;;;;;;;;;;;;-185;;;;;;;;
1398.0;1292.2;;;;;;;;;;;;;-646;;;;;;;;
1398.0;1292.2;;;;;;;;;;;;;463;;;;;;;;
1398.0;1292.2;;;;;;;;;;;;;3272;;;;;;;;
1461.0;1299.3;;;;;;;;;;;;;;;;;34.085358;28.794214;23.007141;;1187.4
1461.0;1299.3;;;;;;;;;;;;;;0.9667043;0.21741386;-0.2618488;;;;;1187.4
1461.0;1299.3;;;;;;;;;;;;;;;;;37.209694;30.785545;23.1254;;1187.4
1461.0;1299.3;;;;;;;;;;;;;;0.96713156;0.24445327;-0.24842067;;;;;1187.4
1461.0;1299.3;;;;;;;;;;;;;;;;;39.628284;32.53655;23.33903;;1197.0
1461.0;1299.3;;;;;;;;;;;;;;0.9781793;0.26917326;-0.24933623;;;;;1197.0
1461.0;1299.3;;;;;;;;;;;;;;;;;41.6921;34.447765;23.63277;;1197.0
1461.0;1299.3;;;;;;;;;;;;;;0.97781307;0.29737237;-0.24268319;;;;;1197.0
1461.0;1299.3;;;;;;;;;;;;;;;;;43.298138;35.63036;23.945585;;1206.5
1461.0;1299.3;;;;;;;;;;;;;;0.97781307;0.32123783;-0.23071994;;;;;1206.5
1461.0;1299.3;;;;;;;;;;;;;;;;;45.216984;36.389507;24.105808;;1206.5
1461.0;1299.3;;;;;;;;;;;;;;0.9753105;0.35120702;-0.23047578;;;;;1206.5
1461.0;1300.1;;;;;;;;;;;;;;;;;46.918392;37.511063;24.330883;;1216.2
1461.0;1300.1;;;;;;;;;;;;;;0.97915584;0.38001648;-0.22363964;;;;;1216.2
1461.0;1300.1;;;;;;;;;;;;;;;;;46.746727;39.746544;24.2584;;1216.2
1461.0;1300.1;;;;;;;;;;;;;;0.9798883;0.39838862;-0.18543047;;;;;1216.2
1461.0;1300.1;;;;;;;;;;;;;;;;;44.663837;41.88284;23.506882;;1225.8
1461.0;1300.1;;;;;;;;;;;;;;0.98513746;0.41175574;-0.16479996;;;;;1225.8
1461.0;1300.1;;;;;;;;;;;;;;;;;40.883358;43.786434;22.003847;;1225.8
1461.0;1300.1;;;;;;;;;;;;;;0.9987487;0.42799157;-0.1495407;;;;;1225.8
1461.0;1300.1;;;;;;;;;;;;;;;;;35.119175;45.342873;20.07355;;1235.5
1461.0;1300.1;;;;;;;;;;;;;;1.0244453;0.4257332;-0.14111759;;;;;1235.5
1461.0;1300.1;;;;;;;;;;;;;;;;;28.33262;46.2241;16.796625;;1235.5
1461.0;1300.1;;;;;;;;;;;;;;1.0658284;0.4110233;-0.124210335;;;;;1235.5
1464.0;1300.4;;;;-1.2567941;-0.16137697;0.24047473;;;;;;;;;;;;;;;
1464.0;1300.4;;;;-1.2778894;-0.1419182;0.24533084;;;;;;;;;;;;;;;
1464.0;1300.4;;;;-1.2966806;-0.12208177;0.24848941;;;;;;;;;;;;;;;
1464.0;1300.4;;;;-1.3144075;-0.10252763;0.25078967;;;;;;;;;;;;;;;
1464.0;1300.4;;;;-1.3304864;-0.08405305;0.24987414;;;;;;;;;;;;;;;
1464.0;1306.3;188517;188574;12838;;;;;;;;;;;;;;;;;;
1464.0;1310.5;;;;-1.3394929;-0.06485749;0.24845126;;;;;;;;;;;;;;;
1464.0;1310.5;;;;-1.3420945;-0.04408646;0.2470856;;;;;;;;;;;;;;;
1464.0;1310.5;;;;-1.3456231;-0.027473453;0.24224856;;;;;;;;;;;;;;;
1464.0;1310.5;;;;-1.3506738;-0.013038637;0.23828891;;;;;;;;;;;;;;;
1464.0;1310.5;;;;-1.353573;-0.0034027104;0.23429874;;;;;;;;;;;;;;;
1464.0;1320.6;;;;-1.351883;0.005245209;0.23032;;;;;;;;;;;;;;;
1464.0;1320.6;;;;-1.3473855;0.012725832;0.22570041;;;;;;;;;;;;;;;
1464.0;1320.6;;;;-1.3421289;0.01835251;0.22131732;;;;;;;;;;;;;;;
1464.0;1320.6;;;;-1.3368989;0.024982456;0.21824649;;;;;;;;;;;;;;;
1464.0;1320.6;;;;-1.3302613;0.032779697;0.2156525;;;;;;;;;;;;;;;
1464.0;1326.6;204921;204983;12846;;;;;;;;;;;;;;;;;;
1466.0;1330.4;;;;-1.3230363;0.043067936;0.21323779;;;;;;;;;;;;;;;
1466.0;1330.4;;;;-1.3171617;0.054985054;0.2122803;;;;;;;;;;;;;;;
1466.0;1330.4;;;;-1.3132287;0.06759263;0.21212009;;;;;;;;;;;;;;;
1466.0;1330.4;;;;-1.3093187;0.081420906;0.21204379;;;;;;;;;;;;;;;
1466.0;1330.4;;;;-1.3056489;0.095459;0.21200565;;;;;;;;;;;;;;;
1466.0;1332.3;;;;;;;;;;;;;5764;;;;;;;;
1466.0;1332.3;;;;;;;;;;;;;6141;;;;;;;;
1466.0;1332.3;;;;;;;;;;;;;4996;;;;;;;;
1466.0;1332.3;;;;;;;;;;;;;4240;;;;;;;;
1466.0;1332.3;;;;;;;;;;;;;4447;;;;;;;;
1466.0;1340.6;;;;-1.3022233;0.10839082;0.21208957;;;;;;;;;;;;;;;
1466.0;1340.6;;;;-1.2997133;0.1212845;0.21265033;;;;;;;;;;;;;;;
1466.0;1340.6;;;;-1.2983094;0.13341905;0.21315005;;;;;;;;;;;;;;;
1466.0;1340.6;;;;-1.2955209;0.1442299;0.2132912;;;;;;;;;;;;;;;
1466.0;1340.6;;;;-1.2914621;0.15404893;0.21606067;;;;;;;;;;;;;;;
1466.0;1346.6;221320;221313;12848;;;;;;;;;;;;;;;;;;
1466.0;1350.7;;;;-1.2853547;0.16303255;0.21686938;;;;;;;;;;;;;;;
1466.0;1350.7;;;;-1.27726;0.1712227;0.21931079;;;;;;;;;;;;;;;
1466.0;1350.7;;;;-1.26429;0.17754366;0.22092059;;;;;;;;;;;;;;;
1466.0;1350.7;;;;-1.249241;0.18338396;0.22049716;;;;;;;;;;;;;;;
1466.0;1350.7;;;;-1.2353936;0.18991473;0.2217522;;;;;;;;;;;;;;;
1467.0;1359.7;;;;;;;;;;;;;;;;;21.49266;45.69765;11.619923;;1245.2
1467.0;1359.7;;;;;;;;;;;;;;1.1256447;0.37653738;-0.12726219;;;;;1245.2
1467.0;1359.7;;;;;;;;;;;;;;;;;15.968811;44.423504;5.1881466;;1245.2
1467.0;1359.7;;;;;;;;;;;;;;1.182043;0.33564258;-0.13678396;;;;;1245.2
1467.0;1359.7;;;;;;;;;;;;;;;;;11.14307;42.657246;-1.9493698;;1254.8
1467.0;1359.7;;;;;;;;;;;;;;1.2190924;0.29548022;-0.14532915;;;;;1254.8
1467.0;1359.7;;;;;;;;;;;;;;;;;8.453628;41.26484;-9.220405;;1254.8
1467.0;1359.7;;;;;;;;;;;;;;1.2264779;0.2667928;-0.143437;;;;;1254.8
1467.0;1359.7;;;;;;;;;;;;;;;;;6.5805535;41.932434;-16.20533;;1264.5
1467.0;1359.7;;;;;;;;;;;;;;1.1992553;0.25702688;-0.12121952;;;;;1264.5
1467.0;1359.7;;;;;;;;;;;;;;;;;6.111332;43.81695;-22.446363;;1264.5
1467.0;1359.7;;;;;;;;;;;;;;1.157628;0.26343578;-0.09588916;;;;;1264.5
1467.0;1360.5;;;;;;;;;;;;;;;;;5.226295;46.269875;-27.84051;;1273.9
1467.0;1360.5;;;;;;;;;;;;;;1.1144749;0.28150272;-0.07074191;;;;;1273.9
1467.0;1360.5;;;;;;;;;;;;;;;;;3.7499619;48.100986;-32.719658;;1273.9
1467.0;1360.5;;;;;;;;;;;;;;1.0857265;0.29291666;-0.050721765;;;;;1273.9
1467.0;1360.5;;;;;;;;;;;;;;;;;1.9951477;49.199654;-37.156284;;1283.5
1467.0;1360.5;;;;;;;;;;;;;;1.0580157;0.2971282;-0.015076144;;;;;1283.5
1467.0;1360.5;;;;;;;;;;;;;;;;;-1.045259;47.410503;-41.356396;;1283.5
1467.0;1360.5;;;;;;;;;;;;;;1.064974;0.29224524;0.008301035;;;;;1283.5
1467.0;1360.5;;;;;;;;;;;;;;;;;-4.776147;45.499283;-45.506912;;1293.2
1467.0;1360.5;;;;;;;;;;;;;;1.0910367;0.2834559;0.03424177;;;;;1293.2
1467.0;1360.5;;;;;;;;;;;;;;;;;-10.0177;44.434948;-49.848167;;1293.2
1467.0;1360.5;;;;;;;;;;;;;;1.122898;0.26325268;0.0037842952;;;;;1293.2
1521.0;1360.7;;;;-1.2206537;0.19596866;0.22607425;;;;;;;;;;;;;;;
1521.0;1360.7;;;;-1.2044107;0.20114902;0.23130038;;;;;;;;;;;;;;;
1521.0;1360.7;;;;-1.1891862;0.20586017;0.23635867;;;;;;;;;;;;;;;
1521.0;1360.7;;;;-1.1747209;0.21104816;0.24258426;;;;;;;;;;;;;;;
1521.0;1360.7;;;;-1.162346;0.21585086;0.24969867;;;;;;;;;;;;;;;
1521.0;1366.7;237808;237692;12852;;;;;;;;;;;;;;;;;;
1521.0;1370.8;;;;-1.1512719;0.21876529;0.25800326;;;;;;;;;;;;;;;
1521.0;1370.8;;;;-1.142357;0.22083667;0.26593783;;;;;;;;;;;;;;;
1521.0;1370.8;;;;-1.1335527;0.22243503;0.2744904;;;;;;;;;;;;;;;
1521.0;1370.8;;;;-1.1251565;0.2235947;0.2823601;;;;;;;;;;;;;;;
1521.0;1370.8;;;;-1.1187211;0.22381595;0.28955844;;;;;;;;;;;;;;;
1521.0;1372.7;;;;;;;;;;;;;4530;;;;;;;;
1521.0;1372.7;;;;;;;;;;;;;4127;;;;;;;;
1521.0;1372.7;;;;;;;;;;;;;3809;;;;;;;;
1521.0;1372.7;;;;;;;;;;;;;3637;;;;;;;;
1521.0;1372.7;;;;;;;;;;;;;3508;;;;;;;;
1521.0;1380.7;;;;-1.1135179;0.22391894;0.29560474;;;;;;;;;;;;;;;
1521.0;1380.7;;;;-1.1093599;0.22399142;0.30111697;;;;;;;;;;;;;;;
1521.0;1380.7;;;;-1.1042672;0.22315219;0.30530933;;;;;;;;;;;;;;;
1521.0;1380.7;;;;-1.0984498;0.2222977;0.30961612;;;;;;;;;;;;;;;
1521.0;1380.7;;;;-1.0904924;0.22191623;0.3136063;;;;;;;;;;;;;;;
1521.0;1386.9;254073;254127;12852;;;;;;;;;;;;;;;;;;
1524.0;1390.7;;;;-1.0842668;0.22039035;0.31528476;;;;;;;;;;;;;;;
1524.0;1390.7;;;;-1.079918;0.2184563;0.3181763;;;;;;;;;;;;;;;
1524.0;1390.7;;;;-1.0722009;0.21897128;0.32257846;;;;;;;;;;;;;;;
1524.0;1390.7;;;;-1.0622674;0.21971515;0.32476428;;;;;;;;;;;;;;;
1524.0;1390.7;;;;-1.0540735;0.21726611;0.3245125;;;;;;;;;;;;;;;
1524.0;1400.9;;;;-1.0495263;0.21424487;0.32470325;;;;;;;;;;;;;;;
1524.0;1400.9;;;;-1.0460054;0.21291354;0.32683948;;;;;;;;;;;;;;;
1524.0;1400.9;;;;-1.0417825;0.21311572;0.3281403;;;;;;;;;;;;;;;
1524.0;1400.9;;;;-1.0403329;0.2134476;0.32752612;;;;;;;;;;;;;;;
1524.0;1400.9;;;;-1.0402299;0.21255878;0.32781222;;;;;;;;;;;;;;;
1524.0;1407.1;262143;262143;12855;;;;;;;;;;;;;;;;;;
1524.0;1411.0;;;;-1.039425;0.21355823;0.32788852;;;;;;;;;;;;;;;
1524.0;1411.0;;;;-1.0376474;0.21479419;0.32773212;;;;;;;;;;;;;;;
1524.0;1411.0;;;;-1.0360681;0.21639255;0.32653812;;;;;;;;;;;;;;;
1524.0;1411.0;;;;-1.0349427;0.2180672;0.32476047;;;;;;;;;;;;;;;
1524.0;1411.0;;;;-1.0368959;0.22037509;0.3226166;;;;;;;;;;;;;;;
1524.0;1413.0;;;;;;;;;;;;;3291;;;;;;;;
1524.0;1413.0;;;;;;;;;;;;;2897;;;;;;;;
1524.0;1413.0;;;;;;;;;;;;;2608;;;;;;;;
1524.0;1413.0;;;;;;;;;;;;;2522;;;;;;;;
1524.0;1413.0;;;;;;;;;;;;;2353;;;;;;;;
1525.0;1420.1;;;;;;;;;;;;;;;;;-17.017883;45.506912;-55.051575;;1302.9
1525.0;1420.1;;;;;;;;;;;;;;1.1266823;0.2202826;0.008667257;;;;;1302.9
1525.0;1420.1;;;;;;;;;;;;;;;;;-23.697622;46.75817;-60.892056;;1302.9
1525.0;1420.1;;;;;;;;;;;;;;1.1288186;0.124881744;0.030274361;;;;;1302.9
1525.0;1420.1;;;;;;;;;;;;;;;;;-28.4814;48.932617;-67.23609;;1312.6
1525.0;1420.1;;;;;;;;;;;;;;1.1235085;0.007141331;0.04992828;;;;;1312.6
1525.0;1420.1;;;;;;;;;;;;;;;;;-31.262398;52.41554;-73.26731;;1312.6
1525.0;1420.1;;;;;;;;;;;;;;1.1170385;-0.1309244;0.053346355;;;;;1312.6
1525.0;1420.1;;;;;;;;;;;;;;;;;-31.449326;57.702873;-78.47834;;1322.2
1525.0;1420.1;;;;;;;;;;;;;;1.0846279;-0.22516556;0.05468917;;;;;1322.2
1525.0;1420.1;;;;;;;;;;;;;;;;;-30.209509;62.826164;-82.93787;;1322.2
1525.0;1420.1;;;;;;;;;;;;;;1.055208;-0.25086215;0.03601184;;;;;1322.2
1525.0;1420.8;;;;;;;;;;;;;;;;;-28.057955;66.6715;-86.64587;;1331.9
1525.0;1420.8;;;;;;;;;;;;;;1.0213934;-0.2757042;0.021729179;;;;;1331.9
1525.0;1420.8;;;;;;;;;;;;;;;;;-24.941252;68.08679;-90.45686;;1331.9
1525.0;1420.8;;;;;;;;;;;;;;1.0232246;-0.31269264;0.033509325;;;;;1331.9
1525.0;1420.8;;;;;;;;;;;;;;;;;-20.29481;68.13257;-94.42427;;1341.5
1525.0;1420.8;;;;;;;;;;;;;;1.0498368;-0.35389262;0.047975097;;;;;1341.5
1525.0;1420.8;;;;;;;;;;;;;;;;;-13.348033;67.70913;-98.22001;;1341.5
1525.0;1420.8;;;;;;;;;;;;;;1.101413;-0.40913114;0.06805628;;;;;1341.5
1525.0;1420.8;;;;;;;;;;;;;;;;;-4.4175544;65.782646;-102.40867;;1351.1
1525.0;1420.8;;;;;;;;;;;;;;1.1835078;-0.4506363;0.08905301;;;;;1351.1
1525.0;1420.8;;;;;;;;;;;;;;;;;6.637776;63.386948;-106.23875;;1351.1
1525.0;1420.8;;;;;;;;;;;;;;1.2864772;-0.48237556;0.07660146;;;;;1351.1
1527.0;1420.8;;;;-1.0402871;0.2217026;0.32004932;;;;;;;;;;;;;;;
1527.0;1420.8;;;;-1.0440522;0.22431949;0.31696323;;;;;;;;;;;;;;;
1527.0;1420.8;;;;-1.0473596;0.2268143;0.31455615;;;;;;;;;;;;;;;
1527.0;1420.8;;;;-1.0491754;0.2301903;0.31284335;;;;;;;;;;;;;;;
1527.0;1420.8;;;;-1.0505487;0.233902;0.3113022;;;;;;;;;;;;;;;
1527.0;1427.1;262143;262143;12852;;;;;;;;;;;;;;;;;;
1527.0;1430.9;;;;-1.0512086;0.23768237;0.30937198;;;;;;;;;;;;;;;
1527.0;1430.9;;;;-1.0495569;0.24100879;0.30646518;;;;;;;;;;;;;;;
1527.0;1430.9;;;;-1.0445367;0.24399188;0.30321887;;;;;;;;;;;;;;;
1527.0;1430.9;;;;-1.0383111;0.24732593;0.30168536;;;;;;;;;;;;;;;
1527.0;1430.9;;;;-1.0327531;0.2510567;0.29970935;;;;;;;;;;;;;;;
1527.0;1441.0;;;;-1.0268403;0.25431445;0.2993355;;;;;;;;;;;;;;;
1527.0;1441.0;;;;-1.0220186;0.25859836;0.30066684;;;;;;;;;;;;;;;
1527.0;1441.0;;;;-1.0163919;0.26350024;0.29949954;;;;;;;;;;;;;;;
1527.0;1441.0;;;;-1.008217;0.26866916;0.29771426;;;;;;;;;;;;;;;
1527.0;1441.0;;;;-1.000702;0.27473834;0.2975197;;;;;;;;;;;;;;;
1527.0;1447.3;262143;262143;12861;;;;;;;;;;;;;;;;;;
1528.0;1451.0;;;;-0.99375546;0.2808304;0.29655078;;;;;;;;;;;;;;;
1528.0;1451.0;;;;-0.9876634;0.2853394;0.29573825;;;;;;;;;;;;;;;
1528.0;1451.0;;;;-0.98067105;0.2901688;0.29557422;;;;;;;;;;;;;;;
1528.0;1451.0;;;;-0.9757768;0.29457477;0.29578784;;;;;;;;;;;;;;;
1528.0;1451.0;;;;-0.97146237;0.29786685;0.29521564;;;;;;;;;;;;;;;
1528.0;1453.0;;;;;;;;;;;;;1866;;;;;;;;
1528.0;1453.0;;;;;;;;;;;;;1389;;;;;;;;
1528.0;1453.0;;;;;;;;;;;;;1751;;;;;;;;
1528.0;1453.0;;;;;;;;;;;;;3184;;;;;;;;
1528.0;1453.0;;;;;;;;;;;;;4764;;;;;;;;
1528.0;1460.8;;;;-0.96701443;0.30107883;0.29410556;;;;;;;;;;;;;;;
1528.0;1460.8;;;;-0.9653741;0.30267718;0.2925339;;;;;;;;;;;;;;;
1528.0;1460.8;;;;-0.96468365;0.30321506;0.28992847;;;;;;;;;;;;;;;
1528.0;1460.8;;;;-0.9618608;0.3031464;0.28982165;;;;;;;;;;;;;;;
1528.0;1460.8;;;;-0.95751965;0.30306628;0.2896538;;;;;;;;;;;;;;;
1528.0;1467.1;262143;262143;12856;;;;;;;;;;;;;;;;;;
1528.0;1470.9;;;;-0.9501611;0.30237964;0.284977;;;;;;;;;;;;;;;
1528.0;1470.9;;;;-0.9401704;0.3016968;0.28136066;;;;;;;;;;;;;;;
1528.0;1470.9;;;;-0.92722714;0.30155566;0.27949908;;;;;;;;;;;;;;;
1528.0;1470.9;;;;-0.9152032;0.30168155;0.27808383;;;;;;;;;;;;;;;
1528.0;1470.9;;;;-0.903576;0.3021622;0.27647403;;;;;;;;;;;;;;;
1529.0;1480.0;;;;;;;;;;;;;;;;;19.402143;61.597797;-109.61867;;1360.7
1529.0;1480.0;;;;;;;;;;;;;;1.3939024;-0.48133793;0.057679985;;;;;1360.7
1529.0;1480.0;;;;;;;;;;;;;;;;;33.650475;60.84246;-112.41874;;1360.7
1529.0;1480.0;;;;;;;;;;;;;;1.4709922;-0.4511246;0.041505173;;;;;1360.7
1529.0;1480.0;;;;;;;;;;;;;;;;;48.139133;59.163948;-114.85259;;1370.3
1529.0;1480.0;;;;;;;;;;;;;;1.5587023;-0.41792047;0.01678518;;;;;1370.3
1529.0;1480.0;;;;;;;;;;;;;;;;;62.826164;58.511612;-117.107155;;1370.3
1529.0;1480.0;;;;;;;;;;;;;;1.6118046;-0.39399394;0.019959105;;;;;1370.3
1529.0;1480.0;;;;;;;;;;;;;;;;;78.24946;57.96228;-119.15952;;1380.0
1529.0;1480.0;;;;;;;;;;;;;;1.6432997;-0.3460799;0.024719993;;;;;1380.0
1529.0;1480.0;;;;;;;;;;;;;;;;;93.08908;57.36717;-120.62822;;1380.0
1529.0;1480.0;;;;;;;;;;;;;;1.6293832;-0.30762658;0.037720878;;;;;1380.0
1529.0;1480.9;;;;-0.89182293;0.30339435;0.27425006;;;;;;;;;;;;;;;
1529.0;1480.9;;;;-0.8836366;0.3044472;0.27153018;;;;;;;;;;;;;;;
1529.0;1480.9;;;;-0.87858975;0.30416873;0.2668076;;;;;;;;;;;;;;;
1529.0;1480.9;;;;-0.8767625;0.30219272;0.2636185;;;;;;;;;;;;;;;
1529.0;1480.9;;;;-0.87591946;0.2988434;0.26118472;;;;;;;;;;;;;;;
1529.0;1487.2;262143;262143;12840;;;;;;;;;;;;;;;;;;
1530.0;1488.0;;;;;;;;;;;;;;;;;106.12049;56.257057;-121.68492;;1389.7
1530.0;1488.0;;;;;;;;;;;;;;1.5914792;-0.24652852;0.06604206;;;;;1389.7
1530.0;1488.0;;;;;;;;;;;;;;;;;116.000854;54.673912;-122.22282;;1389.7
1530.0;1488.0;;;;;;;;;;;;;;1.506882;-0.16193122;0.10821863;;;;;1389.7
1530.0;1488.0;;;;;;;;;;;;;;;;;122.138885;51.04602;-121.41407;;1399.4
1530.0;1488.0;;;;;;;;;;;;;;1.4235663;-0.08355968;0.12817775;;;;;1399.4
1530.0;1488.0;;;;;;;;;;;;;;;;;124.416336;46.50258;-119.44945;;1399.4
1530.0;1488.0;;;;;;;;;;;;;;1.3407391;-0.0045167394;0.1589404;;;;;1399.4
1530.0;1488.0;;;;;;;;;;;;;;;;;124.504074;42.134617;-116.91641;;1409.0
1530.0;1488.0;;;;;;;;;;;;;;1.2577899;0.06860561;0.18890958;;;;;1409.0
1530.0;1488.0;;;;;;;;;;;;;;;;;123.752556;38.27403;-113.83404;;1409.0
1530.0;1488.0;;;;;;;;;;;;;;1.2016358;0.13226722;0.21350749;;;;;1409.0
1530.0;1490.8;;;;-0.87612545;0.29423907;0.25792316;;;;;;;;;;;;;;;
1530.0;1490.8;;;;-0.8760797;0.28865054;0.25439456;;;;;;;;;;;;;;;
1530.0;1490.8;;;;-0.87518704;0.28364566;0.250824;;;;;;;;;;;;;;;
1530.0;1490.8;;;;-0.8726884;0.27875903;0.24621204;;;;;;;;;;;;;;;
1530.0;1490.8;;;;-0.868683;0.27512744;0.24248508;;;;;;;;;;;;;;;
1530.0;1493.1;;;;;;;;;;;;;5525;;;;;;;;
1530.0;1493.1;;;;;;;;;;;;;5554;;;;;;;;
1530.0;1493.1;;;;;;;;;;;;;5233;;;;;;;;
1530.0;1493.1;;;;;;;;;;;;;4632;;;;;;;;
1530.0;1493.1;;;;;;;;;;;;;4500;;;;;;;;
1581.0;1495.1;;;;;;;;;;;;;;;;;120.72359;35.3061;-110.75167;;1418.7
1581.0;1495.1;;;;;;;;;;;;;;1.1404767;0.19782098;0.24842067;;;;;1418.7
1581.0;1495.1;;;;;;;;;;;;;;;;;114.978485;32.19703;-107.8486;;1418.7
1581.0;1495.1;;;;;;;;;;;;;;1.0785851;0.24713889;0.27460554;;;;;1418.7
1581.0;1495.1;;;;;;;;;;;;;;;;;107.8219;28.557695;-105.54826;;1428.3
1581.0;1495.1;;;;;;;;;;;;;;1.0417799;0.22638631;0.27887815;;;;;1428.3
1581.0;1495.1;;;;;;;;;;;;;;;;;101.12308;26.070436;-103.58363;;1428.3
1581.0;1495.1;;;;;;;;;;;;;;1.0129093;0.23175757;0.27808467;;;;;1428.3
1581.0;1495.1;;;;;;;;;;;;;;;;;94.29075;23.735771;-101.40537;;1438.0
1581.0;1495.1;;;;;;;;;;;;;;0.9978942;0.2351146;0.25800347;;;;;1438.0
1581.0;1495.1;;;;;;;;;;;;;;;;;87.41264;22.045809;-99.196594;;1438.0
1581.0;1495.1;;;;;;;;;;;;;;0.9756768;0.22382274;0.23206274;;;;;1438.0
1581.0;1500.8;;;;-0.86483014;0.27024463;0.23858646;;;;;;;;;;;;;;;
1581.0;1500.8;;;;-0.86101544;0.2654648;0.2343407;;;;;;;;;;;;;;;
1581.0;1500.8;;;;-0.8572732;0.2598572;0.22963336;;;;;;;;;;;;;;;
1581.0;1500.8;;;;-0.85589993;0.25381854;0.22668079;;;;;;;;;;;;;;;
1581.0;1500.8;;;;-0.85354245;0.2485657;0.22351077;;;;;;;;;;;;;;;
1581.0;1507.3;262143;262143;12856;;;;;;;;;;;;;;;;;;
1581.0;1510.9;;;;-0.84882367;0.2460976;0.22207645;;;;;;;;;;;;;;;
1581.0;1510.9;;;;-0.8472024;0.24264148;0.21763995;;;;;;;;;;;;;;;
1581.0;1510.9;;;;-0.8487741;0.23786166;0.21333316;;;;;;;;;;;;;;;
1581.0;1510.9;;;;-0.85040295;0.23237231;0.21053699;;;;;;;;;;;;;;;
1581.0;1510.9;;;;-0.84962475;0.22790912;0.20940402;;;;;;;;;;;;;;;
1583.0;1520.8;;;;-0.8476373;0.22451022;0.20717624;;;;;;;;;;;;;;;
1583.0;1520.8;;;;-0.844803;0.22140887;0.20547488;;;;;;;;;;;;;;;
1583.0;1520.8;;;;-0.84110653;0.21816638;0.20475772;;;;;;;;;;;;;;;
1583.0;1520.8;;;;-0.8395692;0.21387485;0.20201877;;;;;;;;;;;;;;;
1583.0;1520.8;;;;-0.83851254;0.2084885;0.1988602;;;;;;;;;;;;;;;
1583.0;1527.3;262143;262143;12851;;;;;;;;;;;;;;;;;;
1583.0;1530.9;;;;-0.83755505;0.20291904;0.19662479;;;;;;;;;;;;;;;
1583.0;1530.9;;;;-0.84013;0.19615558;0.19456866;;;;;;;;;;;;;;;
1583.0;1530.9;;;;-0.8393823;0.18907931;0.1920586;;;;;;;;;;;;;;;
1583.0;1530.9;;;;-0.83747876;0.18383409;0.19122317;;;;;;;;;;;;;;;
1583.0;1530.9;;;;-0.83532345;0.18078233;0.19067767;;;;;;;;;;;;;;;
1583.0;1533.2;;;;;;;;;;;;;6248;;;;;;;;
1583.0;1533.2;;;;;;;;;;;;;8165;;;;;;;;
1583.0;1533.2;;;;;;;;;;;;;3197;;;;;;;;
1583.0;1533.2;;;;;;;;;;;;;-11862;;;;;;;;
1583.0;1533.2;;;;;;;;;;;;;-27081;;;;;;;;
1584.0;1540.3;;;;;;;;;;;;;;;;;80.80157;21.340069;-97.10609;;1447.5
1584.0;1540.3;;;;;;;;;;;;;;0.9559007;0.2158269;0.2280343;;;;;1447.5
1584.0;1540.3;;;;;;;;;;;;;;;;;74.392685;20.68392;-94.5883;;1447.5
1584.0;1540.3;;;;;;;;;;;;;;0.95468;0.2417066;0.23194067;;;;;1447.5
1584.0;1540.3;;;;;;;;;;;;;;;;;66.67913;20.77166;-91.49831;;1457.2
1584.0;1540.3;;;;;;;;;;;;;;0.94009215;0.24585712;0.24646749;;;;;1457.2
1584.0;1540.3;;;;;;;;;;;;;;;;;58.545948;20.123142;-88.14509;;1457.2
1584.0;1540.3;;;;;;;;;;;;;;0.9366131;0.21295816;0.2395703;;;;;1457.2
1584.0;1540.3;;;;;;;;;;;;;;;;;51.2978;19.211403;-84.98642;;1466.9
1584.0;1540.3;;;;;;;;;;;;;;0.9444258;0.18909268;0.2064272;;;;;1466.9
1584.0;1540.3;;;;;;;;;;;;;;;;;45.804466;19.760735;-81.724754;;1466.9
1584.0;1540.3;;;;;;;;;;;;;;0.94137394;0.19275491;0.1767632;;;;;1466.9
1584.0;1540.9;;;;-0.83300793;0.17850496;0.18881992;;;;;;;;;;;;;;;
1584.0;1540.9;;;;-0.83298886;0.17451479;0.1875191;;;;;;;;;;;;;;;
1584.0;1540.9;;;;-0.8353654;0.16925813;0.1869011;;;;;;;;;;;;;;;
1584.0;1540.9;;;;-0.83830655;0.16374971;0.18670274;;;;;;;;;;;;;;;
1584.0;1540.9;;;;-0.83916485;0.15882112;0.1864319;;;;;;;;;;;;;;;
1584.0;1547.5;262143;262143;12854;;;;;;;;;;;;;;;;;;
1584.0;1551.0;;;;-0.8388101;0.15451814;0.18548585;;;;;;;;;;;;;;;
1584.0;1551.0;;;;-0.84079754;0.1503525;0.1829796;;;;;;;;;;;;;;;
1584.0;1551.0;;;;-0.84149945;0.14540483;0.17985918;;;;;;;;;;;;;;;
1584.0;1551.0;;;;-0.8414575;0.14055254;0.17744447;;;;;;;;;;;;;;;
1584.0;1551.0;;;;-0.8417207;0.13478471;0.17463304;;;;;;;;;;;;;;;
1639.0;1555.4;;;;;;;;;;;;;;;;;41.570026;20.56566;-78.711044;;1476.5
1639.0;1555.4;;;;;;;;;;;;;;0.9292886;0.20203254;0.16180913;;;;;1476.5
1639.0;1555.4;;;;;;;;;;;;;;;;;38.239693;21.229439;-76.02161;;1476.5
1639.0;1555.4;;;;;;;;;;;;;;0.9136021;0.18378246;0.1604053;;;;;1476.5
1639.0;1555.4;;;;;;;;;;;;;;;;;35.863064;21.031069;-73.91965;;1486.2
1639.0;1555.4;;;;;;;;;;;;;;0.9074374;0.16272469;0.15338603;;;;;1486.2
1639.0;1555.4;;;;;;;;;;;;;;;;;33.627583;20.924253;-71.99698;;1486.2
1639.0;1555.4;;;;;;;;;;;;;;0.90737635;0.13959166;0.14545122;;;;;1486.2
1639.0;1555.4;;;;;;;;;;;;;;;;;31.609547;21.580402;-69.93697;;1495.9
1639.0;1555.4;;;;;;;;;;;;;;0.89522994;0.1314127;0.14178899;;;;;1495.9
1639.0;1555.4;;;;;;;;;;;;;;;;;28.87051;23.010956;-67.5985;;1495.9
1639.0;1555.4;;;;;;;;;;;;;;0.88320565;0.124881744;0.13617359;;;;;1495.9
1639.0;1561.0;;;;-0.8411828;0.12924196;0.17216112;;;;;;;;;;;;;;;
1639.0;1561.0;;;;-0.8416368;0.12461473;0.17138292;;;;;;;;;;;;;;;
1639.0;1561.0;;;;-0.8422128;0.11976625;0.1716385;;;;;;;;;;;;;;;
1639.0;1561.0;;;;-0.8418695;0.11607744;0.17213823;;;;;;;;;;;;;;;
1639.0;1561.0;;;;-0.8416444;0.11346437;0.17504121;;;;;;;;;;;;;;;
1639.0;1567.6;262143;262143;12846;;;;;;;;;;;;;;;;;;
1639.0;1571.1;;;;-0.8409997;0.110828415;0.17749788;;;;;;;;;;;;;;;
1639.0;1571.1;;;;-0.8400308;0.10857774;0.1799965;;;;;;;;;;;;;;;
1639.0;1571.1;;;;-0.8388711;0.10568239;0.181839;;;;;;;;;;;;;;;
1639.0;1571.1;;;;-0.83819973;0.10285188;0.18433;;;;;;;;;;;;;;;
1639.0;1571.1;;;;-0.8369714;0.09970476;0.18658067;;;;;;;;;;;;;;;
1641.0;1573.4;;;;;;;;;;;;;-28613;;;;;;;;
1641.0;1573.4;;;;;;;;;;;;;-15300;;;;;;;;
1641.0;1573.4;;;;;;;;;;;;;391;;;;;;;;
1641.0;1573.4;;;;;;;;;;;;;7527;;;;;;;;
1641.0;1573.4;;;;;;;;;;;;;6936;;;;;;;;
1641.0;1581.1;;;;-0.8370477;0.09660722;0.18866733;;;;;;;;;;;;;;;
1641.0;1581.1;;;;-0.837803;0.09349824;0.19048694;;;;;;;;;;;;;;;
1641.0;1581.1;;;;-0.8394815;0.089931495;0.19337848;;;;;;;;;;;;;;;
1641.0;1581.1;;;;-0.8429414;0.08678437;0.19603732;;;;;;;;;;;;;;;
1641.0;1581.1;;;;-0.8449632;0.082363136;0.19764712;;;;;;;;;;;;;;;
1641.0;1587.7;262143;262143;12853;;;;;;;;;;;;;;;;;;
1641.0;1591.2;;;;-0.8473588;0.07776261;0.19843295;;;;;;;;;;;;;;;
1641.0;1591.2;;;;-0.8492433;0.07416535;0.19889835;;;;;;;;;;;;;;;
1641.0;1591.2;;;;-0.8499414;0.07125092;0.19960025;;;;;;;;;;;;;;;
1641.0;1591.2;;;;-0.8507768;0.06809998;0.19977573;;;;;;;;;;;;;;;
1641.0;1591.2;;;;-0.85177624;0.06521989;0.19997028;;;;;;;;;;;;;;;
1641.0;1601.3;;;;-0.85195553;0.06298829;0.20047763;;;;;;;;;;;;;;;
1641.0;1601.3;;;;-0.85268795;0.060890205;0.20102313;;;;;;;;;;;;;;;
1641.0;1601.3;;;;-0.8538705;0.058525093;0.20110324;;;;;;;;;;;;;;;
1641.0;1601.3;;;;-0.8543054;0.05722428;0.20123675;;;;;;;;;;;;;;;
1641.0;1601.3;;;;-0.8539392;0.055564888;0.2029114;;;;;;;;;;;;;;;
1642.0;1607.8;;;;;;;;;;;;;;;;;25.696585;24.609364;-65.15702;;1505.4
1642.0;1607.8;;;;;;;;;;;;;;0.8795434;0.08783227;0.13806574;;;;;1505.4
1642.0;1607.8;;;;;;;;;;;;;;;;;22.915585;26.448103;-63.03598;;1505.4
1642.0;1607.8;;;;;;;;;;;;;;0.86074406;0.073793754;0.14099552;;;;;1505.4
1642.0;1607.8;;;;;;;;;;;;;;;;;20.275734;27.207253;-60.60976;;1515.0
1642.0;1607.8;;;;;;;;;;;;;;0.8478042;0.07849361;0.12707907;;;;;1515.0
1642.0;1607.8;;;;;;;;;;;;;;;;;18.181402;27.314068;-58.252205;;1515.0
1642.0;1607.8;;;;;;;;;;;;;;0.8301645;0.097598195;0.1241493;;;;;1515.0
1642.0;1607.8;;;;;;;;;;;;;;;;;16.876738;26.356548;-55.604725;;1524.6
1642.0;1607.8;;;;;;;;;;;;;;0.83077484;0.117313154;0.120303966;;;;;1524.6
1642.0;1607.8;;;;;;;;;;;;;;;;;16.21296;25.35325;-53.109837;;1524.6
1642.0;1607.8;;;;;;;;;;;;;;0.82778406;0.13110752;0.11938841;;;;;1524.6
1642.0;1607.9;262143;262143;12845;;;;;;;;;;;;;;;;;;
1642.0;1611.3;;;;-0.8533784;0.053703316;0.20551303;;;;;;;;;;;;;;;
1642.0;1611.3;;;;-0.8532411;0.051277168;0.20412448;;;;;;;;;;;;;;;
1642.0;1611.3;;;;-0.85328686;0.048408516;0.20312884;;;;;;;;;;;;;;;
1642.0;1611.3;;;;-0.8553735;0.04415894;0.20453265;;;;;;;;;;;;;;;
1642.0;1611.3;;;;-0.8515016;0.040679935;0.21345904;;;;;;;;;;;;;;;
1642.0;1613.8;;;;;;;;;;;;;5173;;;;;;;;
1642.0;1613.8;;;;;;;;;;;;;4714;;;;;;;;
1642.0;1613.8;;;;;;;;;;;;;4088;;;;;;;;
1642.0;1613.8;;;;;;;;;;;;;3140;;;;;;;;
1642.0;1613.8;;;;;;;;;;;;;2585;;;;;;;;
1704.0;1615.8;;;;;;;;;;;;;;;;;15.465255;24.529253;-50.592056;;1534.3
1704.0;1615.8;;;;;;;;;;;;;;0.82992035;0.14661092;0.11017182;;;;;1534.3
1704.0;1615.8;;;;;;;;;;;;;;;;;14.206367;24.979399;-48.280285;;1534.3
1704.0;1615.8;;;;;;;;;;;;;;0.8255257;0.16138189;0.11133152;;;;;1534.3
1704.0;1615.8;;;;;;;;;;;;;;;;;12.371441;25.91403;-46.254616;;1544.0
1704.0;1615.8;;;;;;;;;;;;;;0.8214362;0.1767632;0.11004975;;;;;1544.0
1704.0;1615.8;;;;;;;;;;;;;;;;;11.028626;25.807215;-44.67528;;1544.0
1704.0;1615.8;;;;;;;;;;;;;;0.80831325;0.19067965;0.0994293;;;;;1544.0
1704.0;1615.8;;;;;;;;;;;;;;;;;9.990996;25.490585;-43.03873;;1553.5
1704.0;1615.8;;;;;;;;;;;;;;0.7948851;0.20813623;0.09198279;;;;;1553.5
1704.0;1615.8;;;;;;;;;;;;;;;;;9.559923;24.632254;-40.864285;;1553.5
1704.0;1615.8;;;;;;;;;;;;;;0.79299295;0.23291726;0.09625538;;;;;1553.5
1704.0;1621.3;;;;-0.8456193;0.039916996;0.21730044;;;;;;;;;;;;;;;
1704.0;1621.3;;;;-0.84157574;0.042881016;0.21064761;;;;;;;;;;;;;;;
1704.0;1621.3;;;;-0.83472455;0.04522324;0.20766452;;;;;;;;;;;;;;;
1704.0;1621.3;;;;-0.83662426;0.038681034;0.2024689;;;;;;;;;;;;;;;
1704.0;1621.3;;;;-0.840973;0.02859116;0.20273212;;;;;;;;;;;;;;;
1704.0;1628.0;262143;262143;12833;;;;;;;;;;;;;;;;;;
1704.0;1631.2;;;;-0.8389703;0.022972109;0.20814899;;;;;;;;;;;;;;;
1704.0;1631.2;;;;-0.8363191;0.019176485;0.20780566;;;;;;;;;;;;;;;
1704.0;1631.2;;;;-0.8362924;0.01590729;0.2075806;;;;;;;;;;;;;;;
1704.0;1631.2;;;;-0.83794415;0.013263704;0.20811465;;;;;;;;;;;;;;;
1704.0;1631.2;;;;-0.8330804;0.013088228;0.20884326;;;;;;;;;;;;;;;
1707.0;1641.2;;;;-0.8296739;0.013805391;0.20853046;;;;;;;;;;;;;;;
1707.0;1641.2;;;;-0.8323518;0.012107851;0.2070885;;;;;;;;;;;;;;;
1707.0;1641.2;;;;-0.83308804;0.011440278;0.20680621;;;;;;;;;;;;;;;
1707.0;1641.2;;;;-0.83407223;0.01097107;0.2047005;;;;;;;;;;;;;;;
1707.0;1641.2;;;;-0.83617795;0.007976533;0.20259479;;;;;;;;;;;;;;;
1707.0;1648.0;262143;262143;12841;;;;;;;;;;;;;;;;;;
1707.0;1651.3;;;;-0.83734906;0.005802155;0.20325473;;;;;;;;;;;;;;;
1707.0;1651.3;;;;-0.8373109;0.0038223271;0.20502475;;;;;;;;;;;;;;;
1707.0;1651.3;;;;-0.83830655;8.354188E-4;0.20461658;;;;;;;;;;;;;;;
1707.0;1651.3;;;;-0.837021;-0.0018005373;0.20528033;;;;;;;;;;;;;;;
1707.0;1651.3;;;;-0.8317987;-0.0022888186;0.20712665;;;;;;;;;;;;;;;
1707.0;1653.9;;;;;;;;;;;;;2237;;;;;;;;
1707.0;1653.9;;;;;;;;;;;;;2149;;;;;;;;
1707.0;1653.9;;;;;;;;;;;;;2356;;;;;;;;
1707.0;1653.9;;;;;;;;;;;;;2400;;;;;;;;
1707.0;1653.9;;;;;;;;;;;;;2150;;;;;;;;
1707.0;1661.4;;;;-0.8293916;-0.0021476748;0.207737;;;;;;;;;;;;;;;
1707.0;1661.4;;;;-0.82691586;-0.002559662;0.2079697;;;;;;;;;;;;;;;
1707.0;1661.4;;;;-0.82646954;-0.0043563847;0.20825198;;;;;;;;;;;;;;;
1707.0;1661.4;;;;-0.8254396;-0.007759095;0.20881656;;;;;;;;;;;;;;;
1707.0;1661.4;;;;-0.8225938;-0.009735108;0.20938113;;;;;;;;;;;;;;;
1710.0;1668.6;;;;;;;;;;;;;;;;;9.434034;23.319956;-38.304546;;1563.0
1710.0;1668.6;;;;;;;;;;;;;;0.7909787;0.23163548;0.08667257;;;;;1563.0
1710.0;1668.6;;;;;;;;;;;;;;;;;9.987182;22.366251;-35.664692;;1563.0
1710.0;1668.6;;;;;;;;;;;;;;0.7838374;0.22254097;0.09344768;;;;;1563.0
1710.0;1668.6;;;;;;;;;;;;;;;;;9.842219;22.3014;-33.032475;;1572.6
1710.0;1668.6;;;;;;;;;;;;;;0.77120274;0.21539964;0.11609241;;;;;1572.6
1710.0;1668.6;;;;;;;;;;;;;;;;;8.720664;22.62566;-30.30488;;1572.6
1710.0;1668.6;;;;;;;;;;;;;;0.7613758;0.20795313;0.14587848;;;;;1572.6
1710.0;1668.6;;;;;;;;;;;;;;;;;6.931516;23.106327;-27.821436;;1582.2
1710.0;1668.6;;;;;;;;;;;;;;0.7563097;0.20734276;0.1770684;;;;;1582.2
1710.0;1668.6;;;;;;;;;;;;;;;;;5.371258;23.037659;-25.654621;;1582.2
1710.0;1668.6;;;;;;;;;;;;;;0.7481918;0.20789209;0.2014832;;;;;1582.2
1710.0;1668.3;262143;262143;12827;;;;;;;;;;;;;;;;;;
1710.0;1671.4;;;;-0.82041943;-0.01066208;0.2094002;;;;;;;;;;;;;;;
1710.0;1671.4;;;;-0.81795895;-0.01180649;0.21017078;;;;;;;;;;;;;;;
1710.0;1671.4;;;;-0.8160554;-0.013237001;0.21111682;;;;;;;;;;;;;;;
1710.0;1671.4;;;;-0.8166925;-0.015987398;0.2107239;;;;;;;;;;;;;;;
1710.0;1671.4;;;;-0.81541455;-0.016685488;0.21317294;;;;;;;;;;;;;;;
1710.0;1681.5;;;;-0.81253064;-0.015739443;0.21482852;;;;;;;;;;;;;;;
1710.0;1681.5;;;;-0.81069577;-0.0146217365;0.21578601;;;;;;;;;;;;;;;
1710.0;1681.5;;;;-0.81012356;-0.01413727;0.21727756;;;;;;;;;;;;;;;
1710.0;1681.5;;;;-0.811638;-0.0149993915;0.21925357;;;;;;;;;;;;;;;
1710.0;1681.5;;;;-0.81308377;-0.016197206;0.22134402;;;;;;;;;;;;;;;
1759.0;1688.4;262143;262143;12835;;;;;;;;;;;;;;;;;;
1759.0;1691.6;;;;-0.81133664;-0.015857698;0.22238925;;;;;;;;;;;;;;;
1759.0;1691.6;;;;-0.8102647;-0.015113832;0.22282794;;;;;;;;;;;;;;;
1759.0;1691.6;;;;-0.8108903;-0.014373781;0.22418597;;;;;;;;;;;;;;;
1759.0;1691.6;;;;-0.8104249;-0.012874605;0.22548679;;;;;;;;;;;;;;;
1759.0;1691.6;;;;-0.8104249;-0.011070252;0.22609714;;;;;;;;;;;;;;;
1759.0;1694.0;;;;;;;;;;;;;1964;;;;;;;;
1759.0;1694.0;;;;;;;;;;;;;1976;;;;;;;;
1759.0;1694.0;;;;;;;;;;;;;1890;;;;;;;;
1759.0;1694.0;;;;;;;;;;;;;1336;;;;;;;;
1759.0;1694.0;;;;;;;;;;;;;408;;;;;;;;
1759.0;1701.5;;;;-0.8103677;-0.010986329;0.22597888;;;;;;;;;;;;;;;
1759.0;1701.5;;;;-0.8106004;-0.01110077;0.22610095;;;;;;;;;;;;;;;
1759.0;1701.5;;;;-0.8113252;-0.011161805;0.2259827;;;;;;;;;;;;;;;
1759.0;1701.5;;;;-0.8133966;-0.012119295;0.22487643;;;;;;;;;;;;;;;
1759.0;1701.5;;;;-0.81463253;-0.012863161;0.22446826;;;;;;;;;;;;;;;
1759.0;1708.5;262143;262143;12826;;;;;;;;;;;;;;;;;;
1759.0;1711.6;;;;-0.8144685;-0.011608125;0.22477725;;;;;;;;;;;;;;;
1759.0;1711.6;;;;-0.81681454;-0.011215211;0.22356418;;;;;;;;;;;;;;;
1759.0;1711.6;;;;-0.8217317;-0.011867525;0.22295383;;;;;;;;;;;;;;;
1759.0;1711.6;;;;-0.82613766;-0.010555268;0.22458652;;;;;;;;;;;;;;;
1759.0;1711.6;;;;-0.8296968;-0.007637025;0.22535709;;;;;;;;;;;;;;;
1760.0;1721.4;;;;;;;;;;;;;;;;;4.074221;23.018585;-23.682364;;1591.9
1760.0;1721.4;;;;;;;;;;;;;;0.73757136;0.20990631;0.21570483;;;;;1591.9
1760.0;1721.4;;;;;;;;;;;;;;;;;3.501999;22.843103;-21.813105;;1591.9
1760.0;1721.4;;;;;;;;;;;;;;0.72743917;0.20233771;0.21539964;;;;;1591.9
1760.0;1721.4;;;;;;;;;;;;;;;;;4.253517;23.087252;-20.252846;;1601.5
1760.0;1721.4;;;;;;;;;;;;;;0.70461136;0.19598986;0.21356852;;;;;1601.5
1760.0;1721.4;;;;;;;;;;;;;;;;;6.2067018;22.92703;-18.982513;;1601.5
1760.0;1721.4;;;;;;;;;;;;;;0.69197667;0.18536943;0.19666128;;;;;1601.5
1760.0;1721.4;;;;;;;;;;;;;;;;;9.601887;22.789696;-17.834253;;1611.2
1760.0;1721.4;;;;;;;;;;;;;;0.67702264;0.17297891;0.18567461;;;;;1611.2
1760.0;1721.4;;;;;;;;;;;;;;;;;14.206367;22.320475;-16.544847;;1611.2
1760.0;1721.4;;;;;;;;;;;;;;0.6632893;0.17511521;0.17700736;;;;;1611.2
1760.0;1721.7;;;;-0.83402646;-0.00587082;0.22378543;;;;;;;;;;;;;;;
1760.0;1721.7;;;;-0.84013;-0.0056076054;0.22235492;;;;;;;;;;;;;;;
1760.0;1721.7;;;;-0.84664166;-0.00650406;0.22312549;;;;;;;;;;;;;;;
1760.0;1721.7;;;;-0.84666073;-0.004665375;0.22491458;;;;;;;;;;;;;;;
1760.0;1721.7;;;;-0.8483583;-0.0015335085;0.22605899;;;;;;;;;;;;;;;
1778.0;1722.2;;;;;;;;;;;;;;;;;19.314402;21.011993;-14.893033;;1620.8
1778.0;1722.2;;;;;;;;;;;;;;0.6651204;0.18195136;0.16199225;;;;;1620.8
1778.0;1722.2;;;;;;;;;;;;;;;;;24.285105;19.489883;-12.924589;;1620.8
1778.0;1722.2;;;;;;;;;;;;;;0.6701254;0.16888943;0.1563158;;;;;1620.8
1778.0;1722.2;;;;;;;;;;;;;;;;;28.454695;17.525253;-10.723441;;1630.3
1778.0;1722.2;;;;;;;;;;;;;;0.68007445;0.17462692;0.15698722;;;;;1630.3
1778.0;1722.2;;;;;;;;;;;;;;;;;30.903805;15.629292;-8.316295;;1630.3
1778.0;1722.2;;;;;;;;;;;;;;0.6981414;0.19672231;0.15222633;;;;;1630.3
1778.0;1722.2;;;;;;;;;;;;;;;;;31.750694;14.530625;-5.607776;;1639.9
1778.0;1722.2;;;;;;;;;;;;;;0.71156955;0.19434187;0.14960173;;;;;1639.9
1778.0;1722.2;;;;;;;;;;;;;;;;;31.979584;14.210181;-2.7123327;;1639.9
1778.0;1722.2;;;;;;;;;;;;;;0.71175265;0.18610187;0.15405744;;;;;1639.9
1778.0;1728.6;262143;262143;12825;;;;;;;;;;;;;;;;;;
1778.0;1731.7;;;;-0.8530084;9.880067E-4;0.22730258;;;;;;;;;;;;;;;
1778.0;1731.7;;;;-0.85540783;0.0030899053;0.23007205;;;;;;;;;;;;;;;
1778.0;1731.7;;;;-0.8576776;0.0051918034;0.23291782;;;;;;;;;;;;;;;
1778.0;1731.7;;;;-0.8616334;0.0061531076;0.23477176;;;;;;;;;;;;;;;
1778.0;1731.7;;;;-0.86751187;0.0058441167;0.23721316;;;;;;;;;;;;;;;
1778.0;1734.4;;;;;;;;;;;;;-272;;;;;;;;
1778.0;1734.4;;;;;;;;;;;;;-394;;;;;;;;
1778.0;1734.4;;;;;;;;;;;;;-383;;;;;;;;
1778.0;1734.4;;;;;;;;;;;;;-705;;;;;;;;
1778.0;1734.4;;;;;;;;;;;;;-1003;;;;;;;;
1817.0;1741.3;;;;;;;;;;0.6828517;19.402143;-1.5984069;;;;;;;;;
1817.0;1741.3;;;;;;;0.75807977;0.14728233;0.21655935;;;;;;;;;;;;
1817.0;1741.3;;;;;;;;;;7.7059236;32.284767;10.544146;;;;;;;;;
1817.0;1741.3;;;;;;;0.86092716;0.17731254;0.23389386;;;;;;;;;;;;
1817.0;1741.7;;;;-0.8727151;0.004779816;0.23756793;;;;;;;;;;;;;;;
1817.0;1741.7;;;;-0.87645733;0.0038719182;0.23912051;;;;;;;;;;;;;;;
1817.0;1741.7;;;;-0.87923825;0.00309372;0.23978809;;;;;;;;;;;;;;;
1817.0;1741.7;;;;-0.88030636;0.0020294192;0.24042895;;;;;;;;;;;;;;;
1817.0;1741.7;;;;-0.8815309;0.0011291505;0.24245456;;;;;;;;;;;;;;;
1817.0;1748.7;262143;262143;12819;;;;;;;;;;;;;;;;;;
1817.0;1750.8;;;;;;;;;;-1.4687033;9.239479;3.3646657;;;;;;;;;
1817.0;1750.8;;;;;;;0.8695944;0.1866512;0.23108615;;;;;;;;;;;;
1817.0;1750.8;;;;;;;;;;7.0116277;19.753105;9.765923;;;;;;;;;
1817.0;1750.8;;;;;;;0.8730125;0.18506424;0.23108615;;;;;;;;;;;;
1817.0;1751.6;;;;-0.88224804;3.8909918E-4;0.24454883;;;;;;;;;;;;;;;
1817.0;1751.6;;;;-0.8830987;-2.3269656E-4;0.2462044;;;;;;;;;;;;;;;
1817.0;1751.6;;;;-0.88354886;1.4114381E-4;0.2484627;;;;;;;;;;;;;;;
1817.0;1751.6;;;;-0.88386166;5.6076056E-4;0.2503548;;;;;;;;;;;;;;;
1817.0;1751.6;;;;-0.88269436;8.811952E-4;0.25251773;;;;;;;;;;;;;;;
1817.0;1760.4;;;;;;;;;;9.00296;22.232733;12.260812;;;;;;;;;
1817.0;1760.4;;;;;;;0.8748436;0.18109684;0.23139134;;;;;;;;;;;;
1817.0;1760.4;;;;;;;;;;5.607776;-11.8564415;-6.221961;;;;;;;;;
1817.0;1760.4;;;;;;;0.87606436;0.17719047;0.22882779;;;;;;;;;;;;
1820.0;1761.7;;;;-0.8803674;0.0013084413;0.25326923;;;;;;;;;;;;;;;
1820.0;1761.7;;;;-0.8772012;7.6293957E-4;0.25431064;;;;;;;;;;;;;;;
1820.0;1761.7;;;;-0.87337124;7.438661E-4;0.25538257;;;;;;;;;;;;;;;
1820.0;1761.7;;;;-0.8702203;9.689332E-4;0.25592807;;;;;;;;;;;;;;;
1820.0;1761.7;;;;-0.86748135;0.0011940004;0.25611117;;;;;;;;;;;;;;;
1820.0;1768.8;262143;262143;12818;;;;;;;;;;;;;;;;;;
1820.0;1770.1;;;;;;;;;;7.2634053;-11.1888485;-4.6845913;;;;;;;;;
1820.0;1770.1;;;;;;;0.8799097;0.18048647;0.22302927;;;;;;;;;;;;
1820.0;1770.1;;;;;;;;;;9.083072;-10.605183;-2.9450362;;;;;;;;;
1820.0;1770.1;;;;;;;0.88552505;0.18781091;0.2191229;;;;;;;;;;;;
1820.0;1771.8;;;;-0.86543286;7.9727184E-4;0.25604632;;;;;;;;;;;;;;;
1820.0;1771.8;;;;-0.8627473;-1.2969972E-4;0.25472263;;;;;;;;;;;;;;;
1820.0;1771.8;;;;-0.8595582;-9.689332E-4;0.25374988;;;;;;;;;;;;;;;
1820.0;1771.8;;;;-0.85520566;-0.002044678;0.2531319;;;;;;;;;;;;;;;
1820.0;1771.8;;;;-0.8502885;-0.0031013493;0.25267795;;;;;;;;;;;;;;;
1820.0;1774.7;;;;;;;;;;;;;-810;;;;;;;;
1820.0;1774.7;;;;;;;;;;;;;-385;;;;;;;;
1820.0;1774.7;;;;;;;;;;;;;-29;;;;;;;;
1820.0;1774.7;;;;;;;;;;;;;273;;;;;;;;
1820.0;1774.7;;;;;;;;;;;;;686;;;;;;;;
1820.0;1779.7;;;;;;;;;;10.338145;-3.0175178;4.631184;;;;;;;;;
1820.0;1779.7;;;;;;;0.88973665;0.19446394;0.21790215;;;;;;;;;;;;
1820.0;1779.7;;;;;;;;;;10.742516;4.6464434;12.241737;;;;;;;;;
1820.0;1779.7;;;;;;;0.8879666;0.19586779;0.22150335;;;;;;;;;;;;
1825.0;1782.1;;;;;;;;;;;;;;;;;31.929993;13.859218;0.08774071;;1649.6
1825.0;1782.1;;;;;;;;;;;;;;0.709006;0.18140203;0.16119877;;;;;1649.6
1825.0;1782.1;;;;;;;;;;;;;;;;;31.994843;13.264108;2.746666;;1649.6
1825.0;1782.1;;;;;;;;;;;;;;0.7091891;0.17871639;0.16870633;;;;;1649.6
1825.0;1782.1;;;;;;;;;;;;;;;;;32.37251;12.741478;5.1919613;;1659.2
1825.0;1782.1;;;;;;;;;;;;;;0.70491654;0.17554247;0.17029329;;;;;1659.2
1825.0;1782.1;;;;;;;;;;;;;;;;;33.452103;12.0052185;7.3206277;;1659.2
1825.0;1782.1;;;;;;;;;;;;;;0.7012543;0.18189032;0.17157505;;;;;1659.2
1825.0;1782.1;;;;;;;;;;;;;;;;;35.149693;10.971405;9.094516;;1668.9
1825.0;1782.1;;;;;;;;;;;;;;0.69771415;0.20007935;0.1645558;;;;;1668.9
1825.0;1782.1;;;;;;;;;;;;;;;;;37.47673;9.296701;10.574664;;1668.9
1825.0;1782.1;;;;;;;;;;;;;;0.70101017;0.20856349;0.1525315;;;;;1668.9
1825.0;1781.9;;;;-0.8439065;-0.0030097966;0.25228122;;;;;;;;;;;;;;;
1825.0;1781.9;;;;-0.83823407;-0.002674103;0.2525902;;;;;;;;;;;;;;;
1825.0;1781.9;;;;-0.8361856;-0.004997254;0.2505913;;;;;;;;;;;;;;;
1825.0;1781.9;;;;-0.83600247;-0.009006501;0.24959949;;;;;;;;;;;;;;;
1825.0;1781.9;;;;-0.8345567;-0.012859346;0.24866107;;;;;;;;;;;;;;;
1826.0;1782.8;;;;;;;;;;;;;;;;;40.604877;7.6639605;11.951812;;1678.4
1826.0;1782.8;;;;;;;;;;;;;;0.6954558;0.23621327;0.14044619;;;;;1678.4
1826.0;1782.8;;;;;;;;;;;;;;;;;44.19462;5.6802573;13.348033;;1678.4
1826.0;1782.8;;;;;;;;;;;;;;0.6988739;0.2743614;0.12134159;;;;;1678.4
1826.0;1782.8;;;;;;;;;;;;;;;;;47.54784;3.7690358;14.854885;;1688.0
1826.0;1782.8;;;;;;;;;;;;;;0.70027775;0.3005463;0.09149449;;;;;1688.0
1826.0;1782.8;;;;;;;;;;;;;;;;;50.660725;2.357555;16.52196;;1688.0
1826.0;1782.8;;;;;;;;;;;;;;0.6936247;0.3270974;0.06524857;;;;;1688.0
1826.0;1782.8;;;;;;;;;;;;;;;;;52.75506;1.4343699;18.337809;;1697.7
1826.0;1782.8;;;;;;;;;;;;;;0.69057286;0.3564562;0.043397322;;;;;1697.7
1826.0;1782.8;;;;;;;;;;;;;;;;;53.51039;0.54933316;20.546587;;1697.7
1826.0;1782.8;;;;;;;;;;;;;;0.687582;0.37965026;0.026734214;;;;;1697.7
1826.0;1789.1;;;;;;;;;;;;;;;;;52.095097;0.12588885;22.73629;;1707.4
1826.0;1789.1;;;;;;;;;;;;;;0.6756798;0.39631337;0.026856288;;;;;1707.4
1826.0;1789.1;;;;;;;;;;;;;;;;;49.470505;-0.7248146;24.689476;;1707.4
1826.0;1789.1;;;;;;;;;;;;;;0.6670736;0.4062624;0.0441908;;;;;1707.4
1826.0;1789.1;;;;;;;;;;;;;;;;;46.548355;-1.9760735;26.242104;;1717.0
1826.0;1789.1;;;;;;;;;;;;;;0.67427593;0.41425824;0.0756859;;;;;1717.0
1826.0;1789.1;;;;;;;;;;;;;;;;;44.21369;-2.948851;27.481916;;1717.0
1826.0;1789.1;;;;;;;;;;;;;;0.6722617;0.41889706;0.109073155;;;;;1717.0
1826.0;1789.1;;;;;;;;;;;;;;;;;42.94336;-3.6507769;28.237251;;1726.7
1826.0;1789.1;;;;;;;;;;;;;;0.6698813;0.42683187;0.14801477;;;;;1726.7
1826.0;1789.1;;;;;;;;;;;;;;;;;42.806026;-4.0894804;28.53099;;1726.7
1826.0;1789.1;;;;;;;;;;;;;;0.66389966;0.43104342;0.1777398;;;;;1726.7
1828.0;1788.9;;;;;;;;;;11.375774;3.952147;13.122959;;;;;;;;;
1828.0;1788.9;;;;;;;0.89095736;0.1942198;0.22400586;;;;;;;;;;;;
1828.0;1788.9;;;;;;;;;;11.959441;3.0060732;13.988921;;;;;;;;;
1828.0;1788.9;;;;;;;0.89187294;0.18793298;0.22376171;;;;;;;;;;;;
1828.0;1788.9;262143;262143;12807;;;;;;;;;;;;;;;;;;
1828.0;1791.6;;;;-0.83155453;-0.016124727;0.24835971;;;;;;;;;;;;;;;
1828.0;1791.6;;;;-0.82777035;-0.018127443;0.24767688;;;;;;;;;;;;;;;
1828.0;1791.6;;;;-0.8245584;-0.01981354;0.24635318;;;;;;;;;;;;;;;
1828.0;1791.6;;;;-0.82231915;-0.020435335;0.24531558;;;;;;;;;;;;;;;
1828.0;1791.6;;;;-0.82159436;-0.020603182;0.2458382;;;;;;;;;;;;;;;
1828.0;1798.4;;;;;;;;;;12.531663;1.945555;14.797663;;;;;;;;;
1828.0;1798.4;;;;;;;0.89980775;0.18536943;0.22394483;;;;;;;;;;;;
1828.0;1798.4;;;;;;;;;;13.122959;1.2054812;15.346995;;;;;;;;;
1828.0;1798.4;;;;;;;0.8918119;0.17383343;0.22913297;;;;;;;;;;;;
1828.0;1801.6;;;;-0.8204843;-0.021270754;0.24571231;;;;;;;;;;;;;;;
1828.0;1801.6;;;;-0.820511;-0.022666933;0.24522403;;;;;;;;;;;;;;;
1828.0;1801.6;;;;-0.8199998;-0.02386475;0.24506763;;;;;;;;;;;;;;;
1828.0;1801.6;;;;-0.81813824;-0.025386814;0.24462512;;;;;;;;;;;;;;;
1828.0;1801.6;;;;-0.81642544;-0.026351932;0.24488452;;;;;;;;;;;;;;;
1828.0;1808.0;;;;;;;;;;13.859218;0.3013703;16.544847;;;;;;;;;
1828.0;1808.0;;;;;;;0.895291;0.16449477;0.22815637;;;;;;;;;;;;
1828.0;1808.0;;;;;;;;;;14.500107;-0.39674062;17.674032;;;;;;;;;
1828.0;1808.0;;;;;;;0.9025544;0.16412854;0.22772911;;;;;;;;;;;;
1876.0;1808.8;262143;262143;12808;;;;;;;;;;;;;;;;;;
1876.0;1811.6;;;;-0.81497586;-0.027824406;0.2445679;;;;;;;;;;;;;;;
1876.0;1811.6;;;;-0.8126031;-0.02890778;0.2453461;;;;;;;;;;;;;;;
1876.0;1811.6;;;;-0.81048214;-0.030342106;0.24593356;;;;;;;;;;;;;;;
1876.0;1811.6;;;;-0.8093263;-0.03156281;0.24623492;;;;;;;;;;;;;;;
1876.0;1811.6;;;;-0.8082925;-0.033531193;0.24544147;;;;;;;;;;;;;;;
1876.0;1814.4;;;;;;;;;;;;;1197;;;;;;;;
1876.0;1814.4;;;;;;;;;;;;;1660;;;;;;;;
1876.0;1814.4;;;;;;;;;;;;;2103;;;;;;;;
1876.0;1814.4;;;;;;;;;;;;;2524;;;;;;;;
1876.0;1814.4;;;;;;;;;;;;;2796;;;;;;;;
1876.0;1817.2;;;;;;;;;;14.996032;-0.8659627;18.280588;;;;;;;;;
1876.0;1817.2;;;;;;;0.906827;0.16528825;0.2283395;;;;;;;;;;;;
1876.0;1817.2;;;;;;;;;;15.537736;-0.82018495;18.642994;;;;;;;;;
1876.0;1817.2;;;;;;;0.91488385;0.16315195;0.22614215;;;;;;;;;;;;
1876.0;1821.4;;;;-0.80737317;-0.03481293;0.24566653;;;;;;;;;;;;;;;
1876.0;1821.4;;;;-0.80734265;-0.036708836;0.24532703;;;;;;;;;;;;;;;
1876.0;1821.4;;;;-0.8065454;-0.03746796;0.24556354;;;;;;;;;;;;;;;
1876.0;1821.4;;;;-0.8096162;-0.04038239;0.24555972;;;;;;;;;;;;;;;
1876.0;1821.4;;;;-0.8124696;-0.043960575;0.2457352;;;;;;;;;;;;;;;
1876.0;1826.9;;;;;;;;;;16.090885;0.19074069;18.959625;;;;;;;;;
1876.0;1826.9;;;;;;;0.92788476;0.16064943;0.22345653;;;;;;;;;;;;
1876.0;1826.9;;;;;;;;;;16.438032;1.6441847;19.177069;;;;;;;;;
1876.0;1826.9;;;;;;;0.9412519;0.15454574;0.21771905;;;;;;;;;;;;
1876.0;1828.7;262143;262143;12807;;;;;;;;;;;;;;;;;;
1878.0;1831.5;;;;-0.8016473;-0.043003086;0.24720004;;;;;;;;;;;;;;;
1878.0;1831.5;;;;-0.7973901;-0.04106522;0.24757007;;;;;;;;;;;;;;;
1878.0;1831.5;;;;-0.7943727;-0.04010773;0.24685672;;;;;;;;;;;;;;;
1878.0;1831.5;;;;-0.79117215;-0.040241245;0.24789432;;;;;;;;;;;;;;;
1878.0;1831.5;;;;-0.7895967;-0.04073334;0.24797824;;;;;;;;;;;;;;;
1878.0;1836.5;;;;;;;;;;16.762293;3.5706656;19.356365;;;;;;;;;
1878.0;1836.5;;;;;;;0.9540086;0.14819789;0.21082187;;;;;;;;;;;;
1878.0;1836.5;;;;;;;;;;17.021698;6.0960727;19.554733;;;;;;;;;
1878.0;1836.5;;;;;;;0.9623707;0.1436201;0.20343639;;;;;;;;;;;;
1878.0;1841.6;;;;;;;;;;;;;;;;;43.267616;-4.989776;28.420362;;1736.3
1878.0;1841.6;;;;;;;;;;;;;;0.66206855;0.43617055;0.19775994;;;;;1736.3
1878.0;1841.6;;;;;;;;;;;;;;;;;43.86273;-6.084628;28.115177;;1736.3
1878.0;1841.6;;;;;;;;;;;;;;0.66261786;0.44856104;0.20777002;;;;;1736.3
1878.0;1841.6;;;;;;;;;;;;;;;;;44.015324;-7.1794796;27.584917;;1745.9
1878.0;1841.6;;;;;;;;;;;;;;0.6670126;0.4499649;0.21210364;;;;;1745.9
1878.0;1841.6;;;;;;;;;;;;;;;;;43.74447;-8.037812;27.138586;;1745.9
1878.0;1841.6;;;;;;;;;;;;;;0.667806;0.46943572;0.20911282;;;;;1745.9
1878.0;1841.6;;;;;;;;;;;;;;;;;42.336803;-9.136478;26.886808;;1755.6
1878.0;1841.6;;;;;;;;;;;;;;0.67268896;0.48286384;0.19629505;;;;;1755.6
1878.0;1841.6;;;;;;;;;;;;;;;;;39.719837;-9.933775;26.7304;;1755.6
1878.0;1841.6;;;;;;;;;;;;;;0.6722007;0.49208045;0.18378246;;;;;1755.6
1879.0;1841.5;;;;-0.7902566;-0.041290287;0.24877551;;;;;;;;;;;;;;;
1879.0;1841.5;;;;-0.79187405;-0.04262543;0.24936298;;;;;;;;;;;;;;;
1879.0;1841.5;;;;-0.7923356;-0.04368973;0.251339;;;;;;;;;;;;;;;
1879.0;1841.5;;;;-0.79351056;-0.045154575;0.25330737;;;;;;;;;;;;;;;
1879.0;1841.5;;;;-0.79604733;-0.045787815;0.25450137;;;;;;;;;;;;;;;
1879.0;1846.0;;;;;;;;;;17.361216;8.808405;19.802696;;;;;;;;;
1879.0;1846.0;;;;;;;0.9723197;0.14166692;0.19348735;;;;;;;;;;;;
1879.0;1846.0;;;;;;;;;;17.509995;11.05533;19.943846;;;;;;;;;
1879.0;1846.0;;;;;;;0.97274697;0.14349803;0.1854915;;;;;;;;;;;;
1879.0;1848.8;262143;262143;12813;;;;;;;;;;;;;;;;;;
1879.0;1850.2;;;;;;;;;;;;;;;;;36.000397;-10.677664;26.623585;;1765.2
1879.0;1850.2;;;;;;;;;;;;;;0.6799524;0.49665824;0.16370128;;;;;1765.2
1879.0;1850.2;;;;;;;;;;;;;;;;;31.544693;-10.902738;26.61214;;1765.2
1879.0;1850.2;;;;;;;;;;;;;;0.6767174;0.49537644;0.14307077;;;;;1765.2
1879.0;1850.2;;;;;;;;;;;;;;;;;26.585438;-10.883664;26.665548;;1774.9
1879.0;1850.2;;;;;;;;;;;;;;0.6723838;0.4865871;0.11981567;;;;;1774.9
1879.0;1850.2;;;;;;;;;;;;;;;;;21.347698;-10.822627;26.757103;;1774.9
1879.0;1850.2;;;;;;;;;;;;;;0.66475415;0.47761467;0.10211493;;;;;1774.9
1879.0;1850.2;;;;;;;;;;;;;;;;;15.957365;-10.826442;27.035585;;1784.6
1879.0;1850.2;;;;;;;;;;;;;;0.6563921;0.45814386;0.088137455;;;;;1784.6
1879.0;1850.2;;;;;;;;;;;;;;;;;10.826442;-11.223182;27.34077;;1784.6
1879.0;1850.2;;;;;;;;;;;;;;0.6477859;0.436964;0.084109016;;;;;1784.6
1886.0;1851.5;;;;-0.798813;-0.046730045;0.2562714;;;;;;;;;;;;;;;
1886.0;1851.5;;;;-0.8022729;-0.048271187;0.25766757;;;;;;;;;;;;;;;
1886.0;1851.5;;;;-0.8037263;-0.04988099;0.25783923;;;;;;;;;;;;;;;
1886.0;1851.5;;;;-0.8036424;-0.051540382;0.25826266;;;;;;;;;;;;;;;
1886.0;1851.5;;;;-0.80342877;-0.05326844;0.25852588;;;;;;;;;;;;;;;
1886.0;1854.5;;;;;;;;;;;;;2833;;;;;;;;
1886.0;1854.5;;;;;;;;;;;;;2624;;;;;;;;
1886.0;1854.5;;;;;;;;;;;;;2229;;;;;;;;
1886.0;1854.5;;;;;;;;;;;;;1710;;;;;;;;
1886.0;1854.5;;;;;;;;;;;;;1385;;;;;;;;
1886.0;1855.5;;;;;;;;;;17.555773;12.897885;20.008698;;;;;;;;;
1886.0;1855.5;;;;;;;0.9683523;0.14862514;0.17816706;;;;;;;;;;;;
1886.0;1855.5;;;;;;;;;;17.487106;14.301737;19.917141;;;;;;;;;
1886.0;1855.5;;;;;;;0.9625538;0.15222633;0.17371136;;;;;;;;;;;;
1886.0;1861.6;;;;-0.8029901;-0.054531105;0.25877765;;;;;;;;;;;;;;;
1886.0;1861.6;;;;-0.80386746;-0.054782875;0.26070789;;;;;;;;;;;;;;;
1886.0;1861.6;;;;-0.80617917;-0.055595405;0.26184085;;;;;;;;;;;;;;;
1886.0;1861.6;;;;-0.8068925;-0.05615998;0.26506045;;;;;;;;;;;;;;;
1886.0;1861.6;;;;-0.8082429;-0.056705482;0.26918796;;;;;;;;;;;;;;;
1886.0;1865.1;;;;;;;;;;17.338327;15.537736;19.753105;;;;;;;;;
1886.0;1865.1;;;;;;;0.9568163;0.1525315;0.16516617;;;;;;;;;;;;
1886.0;1865.1;;;;;;;;;;17.227697;16.365551;19.74929;;;;;;;;;
1886.0;1865.1;;;;;;;0.95144504;0.15601063;0.15741447;;;;;;;;;;;;
1886.0;1869.0;262143;262143;12810;;;;;;;;;;;;;;;;;;
1937.0;1871.6;;;;-0.81243145;-0.0569954;0.27209094;;;;;;;;;;;;;;;
1937.0;1871.6;;;;-0.8209497;-0.058712013;0.27460864;;;;;;;;;;;;;;;
1937.0;1871.6;;;;-0.81876385;-0.057277687;0.27930835;;;;;;;;;;;;;;;
1937.0;1871.6;;;;-0.8182031;-0.05327607;0.284153;;;;;;;;;;;;;;;
1937.0;1871.6;;;;-0.8190881;-0.04990769;0.28735736;;;;;;;;;;;;;;;
1937.0;1874.4;;;;;;;;;;17.15903;17.021698;20.023956;;;;;;;;;
1937.0;1874.4;;;;;;;0.9580371;0.1655324;0.15588854;;;;;;;;;;;;
1937.0;1874.4;;;;;;;;;;17.067476;17.82281;20.474104;;;;;;;;;
1937.0;1874.4;;;;;;;0.9759209;0.17944884;0.16492203;;;;;;;;;;;;
1937.0;1881.4;;;;-0.8185464;-0.0460434;0.2915497;;;;;;;;;;;;;;;
1937.0;1881.4;;;;-0.81884396;-0.045005802;0.29560092;;;;;;;;;;;;;;;
1937.0;1881.4;;;;-0.81936276;-0.044113163;0.29957965;;;;;;;;;;;;;;;
1937.0;1881.4;;;;-0.82081616;-0.043766025;0.3028107;;;;;;;;;;;;;;;
1937.0;1881.4;;;;-0.82183087;-0.043563846;0.30556872;;;;;;;;;;;;;;;
1937.0;1884.0;;;;;;;;;;17.0484;18.391216;21.076845;;;;;;;;;
1937.0;1884.0;;;;;;;0.9994812;0.1980041;0.17865536;;;;;;;;;;;;
1937.0;1884.0;;;;;;;;;;17.19718;17.975403;22.171696;;;;;;;;;
1937.0;1884.0;;;;;;;1.0267037;0.21460617;0.18915372;;;;;;;;;;;;
1937.0;1888.9;262143;262143;12806;;;;;;;;;;;;;;;;;;
1941.0;1891.5;;;;-0.82328045;-0.042896274;0.30938724;;;;;;;;;;;;;;;
1941.0;1891.5;;;;-0.8252069;-0.042530064;0.3128052;;;;;;;;;;;;;;;
1941.0;1891.5;;;;-0.82883465;-0.04201508;0.3159676;;;;;;;;;;;;;;;
1941.0;1891.5;;;;-0.83285916;-0.041427616;0.32038882;;;;;;;;;;;;;;;
1941.0;1891.5;;;;-0.8378068;-0.039802555;0.32323077;;;;;;;;;;;;;;;
1941.0;1893.6;;;;;;;;;;17.3574;17.723623;23.857845;;;;;;;;;
1941.0;1893.6;;;;;;;1.0685751;0.2273629;0.20892972;;;;;;;;;;;;
1941.0;1893.6;;;;;;;;;;17.612995;18.101292;25.845362;;;;;;;;;
1941.0;1893.6;;;;;;;1.1324809;0.22656941;0.23688467;;;;;;;;;;;;
1941.0;1894.7;;;;;;;;;;;;;1406;;;;;;;;
1941.0;1894.7;;;;;;;;;;;;;1511;;;;;;;;
1941.0;1894.7;;;;;;;;;;;;;1465;;;;;;;;
1941.0;1894.7;;;;;;;;;;;;;1325;;;;;;;;
1941.0;1894.7;;;;;;;;;;;;;1311;;;;;;;;
1941.0;1901.7;;;;;;;;;;;;;;;;;5.939665;-12.050997;27.756584;;1794.0
1941.0;1901.7;;;;;;;;;;;;;;0.65022737;0.41865292;0.08716086;;;;;1794.0
1941.0;1901.7;;;;;;;;;;;;;;;;;1.3771478;-12.359997;28.454695;;1794.0
1941.0;1901.7;;;;;;;;;;;;;;0.64625996;0.4080935;0.09479049;;;;;1794.0
1941.0;1901.7;;;;;;;;;;;;;;;;;-3.2921844;-12.48207;29.17188;;1803.7
1941.0;1901.7;;;;;;;;;;;;;;0.64192635;0.37965026;0.100711085;;;;;1803.7
1941.0;1901.7;;;;;;;;;;;;;;;;;-7.5571456;-12.787255;29.984434;;1803.7
1941.0;1901.7;;;;;;;;;;;;;;0.6382641;0.3507187;0.101260416;;;;;1803.7
1941.0;1901.7;;;;;;;;;;;;;;;;;-11.1888485;-13.485367;30.976288;;1813.4
1941.0;1901.7;;;;;;;;;;;;;;0.6391186;0.32306895;0.09851375;;;;;1813.4
1941.0;1901.7;;;;;;;;;;;;;;;;;-13.912625;-14.183477;32.044437;;1813.4
1941.0;1901.7;;;;;;;;;;;;;;0.6484573;0.30512404;0.096926786;;;;;1813.4
1942.0;1901.5;;;;-0.8438417;-0.037738804;0.3267937;;;;;;;;;;;;;;;
1942.0;1901.5;;;;-0.85016644;-0.036514286;0.33031085;;;;;;;;;;;;;;;
1942.0;1901.5;;;;-0.85460675;-0.034984592;0.33399585;;;;;;;;;;;;;;;
1942.0;1901.5;;;;-0.85948193;-0.031269077;0.33699802;;;;;;;;;;;;;;;
1942.0;1901.5;;;;-0.86615765;-0.026901249;0.3397675;;;;;;;;;;;;;;;
1942.0;1902.4;;;;;;;;;;;;;;;;;-15.514847;-14.728996;33.2194;;1823.1
1942.0;1902.4;;;;;;;;;;;;;;0.6646321;0.30079043;0.09460738;;;;;1823.1
1942.0;1902.4;;;;;;;;;;;;;;;;;-16.209145;-14.786219;34.463024;;1823.1
1942.0;1902.4;;;;;;;;;;;;;;0.6667684;0.2880337;0.0994293;;;;;1823.1
1942.0;1902.4;;;;;;;;;;;;;;;;;-16.140476;-15.24018;35.374767;;1832.7
1942.0;1902.4;;;;;;;;;;;;;;0.6827601;0.27491075;0.095706046;;;;;1832.7
1942.0;1902.4;;;;;;;;;;;;;;;;;-14.812922;-15.995514;35.973694;;1832.7
1942.0;1902.4;;;;;;;;;;;;;;0.7087619;0.272042;0.08874783;;;;;1832.7
1942.0;1902.4;;;;;;;;;;;;;;;;;-12.283701;-16.621143;36.221657;;1842.4
1942.0;1902.4;;;;;;;;;;;;;;0.7294534;0.27460554;0.0822779;;;;;1842.4
1942.0;1902.4;;;;;;;;;;;;;;;;;-8.762627;-17.464216;36.252174;;1842.4
1942.0;1902.4;;;;;;;;;;;;;;0.75276953;0.2842494;0.076662496;;;;;1842.4
1942.0;1902.9;;;;;;;;;;18.23481;17.80755;27.874844;;;;;;;;;
1942.0;1902.9;;;;;;;1.2060915;0.20899075;0.26966155;;;;;;;;;;;;
1942.0;1902.9;;;;;;;;;;19.096958;16.476181;30.148472;;;;;;;;;
1942.0;1902.9;;;;;;;1.2706076;0.1723075;0.28913236;;;;;;;;;;;;
1942.0;1908.7;262143;262143;12807;;;;;;;;;;;;;;;;;;
1998.0;1911.3;;;;-0.8663751;-0.02782822;0.34341434;;;;;;;;;;;;;;;
1998.0;1911.3;;;;-0.87026227;-0.02839661;0.34630206;;;;;;;;;;;;;;;
1998.0;1911.3;;;;-0.8761369;-0.027034763;0.34850314;;;;;;;;;;;;;;;
1998.0;1911.3;;;;-0.8793336;-0.022914888;0.35161212;;;;;;;;;;;;;;;
1998.0;1911.3;;;;-0.8838922;-0.018543245;0.35390475;;;;;;;;;;;;;;;
1998.0;1912.4;;;;;;;;;;20.290993;14.5039215;32.433548;;;;;;;;;
1998.0;1912.4;;;;;;;1.3202307;0.12427137;0.2979217;;;;;;;;;;;;
1998.0;1912.4;;;;;;;;;;21.675772;12.409589;34.493546;;;;;;;;;
1998.0;1912.4;;;;;;;1.3560594;0.07794427;0.29779962;;;;;;;;;;;;
1998.0;1921.3;;;;-0.8886682;-0.015392305;0.35621646;;;;;;;;;;;;;;;
1998.0;1921.3;;;;-0.89279187;-0.013069155;0.35842517;;;;;;;;;;;;;;;
1998.0;1921.3;;;;-0.8954774;-0.012462618;0.36031726;;;;;;;;;;;;;;;
1998.0;1921.3;;;;-0.89532864;-0.010013581;0.36345294;;;;;;;;;;;;;;;
1998.0;1921.3;;;;-0.89779675;-0.0066337595;0.36425784;;;;;;;;;;;;;;;
1998.0;1921.9;;;;;;;;;;23.277992;10.311441;36.503952;;;;;;;;;
1998.0;1921.9;;;;;;;1.3705863;0.032105472;0.29322183;;;;;;;;;;;;
1998.0;1921.9;;;;;;;;;;24.895473;7.6601458;38.628803;;;;;;;;;
1998.0;1921.9;;;;;;;1.3722953;0.003295999;0.28388318;;;;;;;;;;;;
1998.0;1928.9;262143;262143;12809;;;;;;;;;;;;;;;;;;
2003.0;1931.3;;;;-0.901127;-0.0034103398;0.3643761;;;;;;;;;;;;;;;
2003.0;1931.3;;;;-0.90340054;-0.001804352;0.365387;;;;;;;;;;;;;;;
2003.0;1931.3;;;;-0.9069711;-0.0015830996;0.3662186;;;;;;;;;;;;;;;
2003.0;1931.3;;;;-0.9122735;-0.0026931765;0.36672977;;;;;;;;;;;;;;;
2003.0;1931.3;;;;-0.9146234;-0.0034866338;0.36753085;;;;;;;;;;;;;;;
2003.0;1931.4;;;;;;;;;;26.249733;4.844814;39.654987;;;;;;;;;
2003.0;1931.4;;;;;;;1.363567;-0.014160588;0.27448347;;;;;;;;;;;;
2003.0;1931.4;;;;;;;;;;27.539139;1.7433698;39.559616;;;;;;;;;
2003.0;1931.4;;;;;;;1.3453779;-0.03442488;0.26691487;;;;;;;;;;;;
2003.0;1934.3;;;;;;;;;;;;;1292;;;;;;;;
2003.0;1934.3;;;;;;;;;;;;;1008;;;;;;;;
2003.0;1934.3;;;;;;;;;;;;;751;;;;;;;;
2003.0;1934.3;;;;;;;;;;;;;765;;;;;;;;
2003.0;1934.3;;;;;;;;;;;;;737;;;;;;;;
2003.0;1940.8;;;;;;;;;;28.794214;-1.9264809;38.621174;;;;;;;;;
2003.0;1940.8;;;;;;;1.3294473;-0.061891537;0.26392406;;;;;;;;;;;;
2003.0;1940.8;;;;;;;;;;29.866177;-5.836665;37.08762;;;;;;;;;
2003.0;1940.8;;;;;;;1.3179723;-0.09668264;0.2644734;;;;;;;;;;;;
2003.0;1941.2;;;;-0.91616833;-0.0032157903;0.36772922;;;;;;;;;;;;;;;
2003.0;1941.2;;;;-0.9186212;-0.0030250554;0.36687472;;;;;;;;;;;;;;;
2003.0;1941.2;;;;-0.92211545;-0.003684998;0.36615375;;;;;;;;;;;;;;;
2003.0;1941.2;;;;-0.92398083;-0.0037040715;0.36599734;;;;;;;;;;;;;;;
2003.0;1941.2;;;;-0.92356884;-0.0031394963;0.36548236;;;;;;;;;;;;;;;
2003.0;1948.8;262143;262143;12807;;;;;;;;;;;;;;;;;;
2005.0;1950.5;;;;;;;;;;30.835138;-9.697257;35.27558;;;;;;;;;
2005.0;1950.5;;;;;;;1.3105869;-0.12836085;0.2642903;;;;;;;;;;;;
2005.0;1950.5;;;;;;;;;;31.651508;-13.138219;33.44066;;;;;;;;;
2005.0;1950.5;;;;;;;1.305948;-0.15393536;0.26715904;;;;;;;;;;;;
2005.0;1951.3;;;;-0.91972744;1.64032E-4;0.36610034;;;;;;;;;;;;;;;
2005.0;1951.3;;;;-0.9220201;0.00220871;0.36304095;;;;;;;;;;;;;;;
2005.0;1951.3;;;;-0.930092;-0.0020904543;0.35942462;;;;;;;;;;;;;;;
2005.0;1951.3;;;;-0.9370004;-0.0075149545;0.35959628;;;;;;;;;;;;;;;
2005.0;1951.3;;;;-0.93756115;-0.011047364;0.3598328;;;;;;;;;;;;;;;
2005.0;1960.1;;;;;;;;;;32.235176;-15.861996;31.529434;;;;;;;;;
2005.0;1960.1;;;;;;;1.2881253;-0.17700736;0.27210304;;;;;;;;;;;;
2005.0;1960.1;;;;;;;;;;32.582325;-17.868587;29.660177;;;;;;;;;
2005.0;1960.1;;;;;;;1.2539445;-0.19348735;0.2732017;;;;;;;;;;;;
2005.0;1961.6;;;;;;;;;;;;;;;;;-4.8677025;-18.658255;36.294136;;1852.0
2005.0;1961.6;;;;;;;;;;;;;;0.7747429;0.29627368;0.07519761;;;;;1852.0
2005.0;1961.6;;;;;;;;;;;;;;;;;-1.0185553;-20.142216;36.160618;;1852.0
2005.0;1961.6;;;;;;;;;;;;;;0.8036744;0.31592762;0.07190161;;;;;1852.0
2005.0;1961.6;;;;;;;;;;;;;;;;;2.4529252;-21.851254;35.973694;;1861.5
2005.0;1961.6;;;;;;;;;;;;;;0.8310801;0.33875546;0.082583085;;;;;1861.5
2005.0;1961.6;;;;;;;;;;;;;;;;;5.2758875;-23.895994;35.817284;;1861.5
2005.0;1961.6;;;;;;;;;;;;;;0.8712424;0.35047457;0.08856472;;;;;1861.5
2005.0;1961.6;;;;;;;;;;;;;;;;;7.9577017;-25.292213;35.5121;;1871.1
2005.0;1961.6;;;;;;;;;;;;;;0.89638966;0.35224465;0.09723197;;;;;1871.1
2005.0;1961.6;;;;;;;;;;;;;;;;;10.0177;-26.963104;34.863583;;1871.1
2005.0;1961.6;;;;;;;;;;;;;;0.93398845;0.34272286;0.09607227;;;;;1871.1
2007.0;1961.4;;;;-0.9341012;-0.014606478;0.35806277;;;;;;;;;;;;;;;
2007.0;1961.4;;;;-0.9361192;-0.0147476215;0.35588458;;;;;;;;;;;;;;;
2007.0;1961.4;;;;-0.93774426;-0.013553621;0.35509494;;;;;;;;;;;;;;;
2007.0;1961.4;;;;-0.938717;-0.011554719;0.353447;;;;;;;;;;;;;;;
2007.0;1961.4;;;;-0.94646084;-0.008781434;0.35050967;;;;;;;;;;;;;;;
2007.0;1962.3;;;;;;;;;;;;;;;;;11.8564415;-28.412733;33.95184;;1880.7
2007.0;1962.3;;;;;;;;;;;;;;0.977691;0.32508317;0.10657064;;;;;1880.7
2007.0;1962.3;;;;;;;;;;;;;;;;;14.324625;-29.572437;32.944733;;1880.7
2007.0;1962.3;;;;;;;;;;;;;;1.0259103;0.31220436;0.11322367;;;;;1880.7
2007.0;1962.3;;;;;;;;;;;;;;;;;17.338327;-29.354992;32.18177;;1890.3
2007.0;1962.3;;;;;;;;;;;;;;1.0724205;0.30921355;0.12323374;;;;;1890.3
2007.0;1962.3;;;;;;;;;;;;;;;;;21.320993;-27.03177;31.41499;;1890.3
2007.0;1962.3;;;;;;;;;;;;;;1.1048311;0.3180639;0.13733329;;;;;1890.3
2007.0;1962.3;;;;;;;;;;;;;;;;;25.89877;-23.44966;30.713064;;1900.0
2007.0;1962.3;;;;;;;;;;;;;;1.1225928;0.33265176;0.14007996;;;;;1900.0
2007.0;1962.3;;;;;;;;;;;;;;;;;31.037325;-19.05118;30.125584;;1900.0
2007.0;1962.3;;;;;;;;;;;;;;1.1282083;0.35419783;0.14020203;;;;;1900.0
2007.0;1968.8;262143;262143;12799;;;;;;;;;;;;;;;;;;
2007.0;1969.5;;;;;;;;;;32.868435;-19.489883;27.71462;;;;;;;;;
2007.0;1969.5;;;;;;;1.2176275;-0.20770897;0.2796716;;;;;;;;;;;;
2007.0;1969.5;;;;;;;;;;33.249916;-20.744957;25.364697;;;;;;;;;
2007.0;1969.5;;;;;;;1.1813104;-0.22034363;0.29377118;;;;;;;;;;;;
2008.0;1971.3;;;;-0.95510495;-0.007877351;0.34878924;;;;;;;;;;;;;;;
2008.0;1971.3;;;;-0.94578564;-0.013469698;0.349556;;;;;;;;;;;;;;;
2008.0;1971.3;;;;-0.9395181;-0.015804293;0.3484917;;;;;;;;;;;;;;;
2008.0;1971.3;;;;-0.9353868;-0.015949251;0.3463402;;;;;;;;;;;;;;;
2008.0;1971.3;;;;-0.9321252;-0.013153078;0.34429172;;;;;;;;;;;;;;;
2008.0;1974.6;;;;;;;;;;;;;340;;;;;;;;
2008.0;1974.6;;;;;;;;;;;;;-19;;;;;;;;
2008.0;1974.6;;;;;;;;;;;;;187;;;;;;;;
2008.0;1974.6;;;;;;;;;;;;;769;;;;;;;;
2008.0;1974.6;;;;;;;;;;;;;1216;;;;;;;;
2008.0;1979.0;;;;;;;;;;33.486435;-21.401106;22.659992;;;;;;;;;
2008.0;1979.0;;;;;;;1.1498764;-0.23029268;0.3124485;;;;;;;;;;;;
2008.0;1979.0;;;;;;;;;;33.768734;-21.504105;19.61577;;;;;;;;;
2008.0;1979.0;;;;;;;1.1293069;-0.23236793;0.33033234;;;;;;;;;;;;
2008.0;1981.3;;;;-0.93236935;-0.011314393;0.34292987;;;;;;;;;;;;;;;
2008.0;1981.3;;;;-0.93254864;-0.011779787;0.34217456;;;;;;;;;;;;;;;
2008.0;1981.3;;;;-0.93211377;-0.013561251;0.3414345;;;;;;;;;;;;;;;
2008.0;1981.3;;;;-0.93140805;-0.01608658;0.33987048;;;;;;;;;;;;;;;
2008.0;1981.3;;;;-0.9305116;-0.017765047;0.33923724;;;;;;;;;;;;;;;
2008.0;1988.6;;;;;;;;;;34.001434;-21.156958;16.52196;;;;;;;;;
2008.0;1988.6;;;;;;;1.1153905;-0.23383282;0.34614092;;;;;;;;;;;;
2008.0;1988.6;;;;;;;;;;34.18836;-20.107882;13.454848;;;;;;;;;
2008.0;1988.6;;;;;;;1.1022675;-0.23389386;0.35816523;;;;;;;;;;;;
2008.0;1989.0;262143;262143;12799;;;;;;;;;;;;;;;;;;
2059.0;1991.2;;;;-0.92831814;-0.020973207;0.3376923;;;;;;;;;;;;;;;
2059.0;1991.2;;;;-0.9273416;-0.025005344;0.3369141;;;;;;;;;;;;;;;
2059.0;1991.2;;;;-0.92200863;-0.026157383;0.33570102;;;;;;;;;;;;;;;
2059.0;1991.2;;;;-0.9208833;-0.027187351;0.33531573;;;;;;;;;;;;;;;
2059.0;1991.2;;;;-0.91559994;-0.026874546;0.3337479;;;;;;;;;;;;;;;
2059.0;1997.7;;;;;;;;;;34.34858;-18.276772;10.635701;;;;;;;;;
2059.0;1997.7;;;;;;;1.0867641;-0.23023164;0.36500138;;;;;;;;;;;;
2059.0;1997.7;;;;;;;;;;34.344765;-15.915403;7.9996643;;;;;;;;;
2059.0;1997.7;;;;;;;1.0704672;-0.22931609;0.3731193;;;;;;;;;;;;
2059.0;2001.0;;;;-0.91210186;-0.027599338;0.3319054;;;;;;;;;;;;;;;
2059.0;2001.0;;;;-0.91116726;-0.028793339;0.33143237;;;;;;;;;;;;;;;
2059.0;2001.0;;;;-0.90947735;-0.03097153;0.33148196;;;;;;;;;;;;;;;
2059.0;2001.0;;;;-0.9072839;-0.032493595;0.33124545;;;;;;;;;;;;;;;
2059.0;2001.0;;;;-0.90639126;-0.033721928;0.33054355;;;;;;;;;;;;;;;
2059.0;2007.4;;;;;;;;;;34.321877;-13.145848;5.6993318;;;;;;;;;
2059.0;2007.4;;;;;;;1.0538652;-0.22504349;0.3751335;;;;;;;;;;;;
2059.0;2007.4;;;;;;;;;;34.20743;-9.968108;3.952147;;;;;;;;;
2059.0;2007.4;;;;;;;1.0439161;-0.22254097;0.3767205;;;;;;;;;;;;
2059.0;2008.8;262143;262143;12797;;;;;;;;;;;;;;;;;;
2060.0;2011.1;;;;-0.90532696;-0.03549576;0.3305054;;;;;;;;;;;;;;;
2060.0;2011.1;;;;-0.9050027;-0.037925724;0.33028033;;;;;;;;;;;;;;;
2060.0;2011.1;;;;-0.90288174;-0.040313724;0.32944873;;;;;;;;;;;;;;;
2060.0;2011.1;;;;-0.90148175;-0.04281998;0.3298531;;;;;;;;;;;;;;;
2060.0;2011.1;;;;-0.89906704;-0.0447197;0.3302727;;;;;;;;;;;;;;;
2060.0;2014.5;;;;;;;;;;;;;1312;;;;;;;;
2060.0;2014.5;;;;;;;;;;;;;1464;;;;;;;;
2060.0;2014.5;;;;;;;;;;;;;1658;;;;;;;;
2060.0;2014.5;;;;;;;;;;;;;1222;;;;;;;;
2060.0;2014.5;;;;;;;;;;;;;818;;;;;;;;
2060.0;2017.0;;;;;;;;;;34.073914;-6.7903686;2.2812586;;;;;;;;;
2060.0;2017.0;;;;;;;1.0426344;-0.22223578;0.37696463;;;;;;;;;;;;
2060.0;2017.0;;;;;;;;;;33.787807;-3.3379622;0.67522204;;;;;;;;;
2060.0;2017.0;;;;;;;1.0407422;-0.22534868;0.3757439;;;;;;;;;;;;
2060.0;2021.2;;;;-0.8963586;-0.046268467;0.32961658;;;;;;;;;;;;;;;
2060.0;2021.2;;;;-0.8927728;-0.04735566;0.329834;;;;;;;;;;;;;;;
2060.0;2021.2;;;;-0.8903352;-0.048191078;0.3297005;;;;;;;;;;;;;;;
2060.0;2021.2;;;;-0.8888818;-0.047760017;0.33030704;;;;;;;;;;;;;;;
2060.0;2021.2;;;;-0.8868638;-0.04726792;0.32995227;;;;;;;;;;;;;;;
2064.0;2022.0;;;;;;;;;;;;;;;;;36.19877;-14.446699;29.412214;;1909.7
2064.0;2022.0;;;;;;;;;;;;;;1.1081271;0.37745294;0.14227729;;;;;1909.7
2064.0;2022.0;;;;;;;;;;;;;;;;;40.627766;-10.742516;28.859066;;1909.7
2064.0;2022.0;;;;;;;;;;;;;;1.0786462;0.4016846;0.1495407;;;;;1909.7
2064.0;2022.0;;;;;;;;;;;;;;;;;43.66436;-9.3577385;28.084658;;1919.3
2064.0;2022.0;;;;;;;;;;;;;;1.0555742;0.40882596;0.1485641;;;;;1919.3
2064.0;2022.0;;;;;;;;;;;;;;;;;45.41917;-9.304331;27.226326;;1919.3
2064.0;2022.0;;;;;;;;;;;;;;1.0303049;0.41712698;0.15637684;;;;;1919.3
2064.0;2022.0;;;;;;;;;;;;;;;;;45.636616;-10.177923;26.566362;;1929.0
2064.0;2022.0;;;;;;;;;;;;;;1.0162663;0.41505173;0.15778069;;;;;1929.0
2064.0;2022.0;;;;;;;;;;;;;;;;;44.621876;-10.830256;26.03229;;1929.0
2064.0;2022.0;;;;;;;;;;;;;;1.0077822;0.41492966;0.15967284;;;;;1929.0
2064.0;2022.8;;;;;;;;;;;;;;;;;42.504654;-11.06296;26.12003;;1938.7
2064.0;2022.8;;;;;;;;;;;;;;0.99899286;0.403943;0.1643727;;;;;1938.7
2064.0;2022.8;;;;;;;;;;;;;;;;;39.658802;-11.0400715;26.562548;;1938.7
2064.0;2022.8;;;;;;;;;;;;;;0.9894101;0.39362773;0.17047639;;;;;1938.7
2064.0;2022.8;;;;;;;;;;;;;;;;;36.44673;-11.15833;27.344585;;1948.3
2064.0;2022.8;;;;;;;;;;;;;;0.98568684;0.37720877;0.1739555;;;;;1948.3
2064.0;2022.8;;;;;;;;;;;;;;;;;33.18888;-11.14307;28.527176;;1948.3
2064.0;2022.8;;;;;;;;;;;;;;0.9839778;0.3587756;0.1906186;;;;;1948.3
2064.0;2022.8;;;;;;;;;;;;;;;;;30.938139;-11.566515;29.763178;;1957.9
2064.0;2022.8;;;;;;;;;;;;;;0.98672444;0.34339428;0.19141209;;;;;1957.9
2064.0;2022.8;;;;;;;;;;;;;;;;;30.125584;-12.028108;30.869473;;1957.9
2064.0;2022.8;;;;;;;;;;;;;;0.9967345;0.338023;0.1815241;;;;;1957.9
2066.0;2026.5;;;;;;;;;;33.566547;0.015259255;-0.39674062;;;;;;;;;
2066.0;2026.5;;;;;;;1.0417799;-0.22986542;0.37073886;;;;;;;;;;;;
2066.0;2026.5;;;;;;;;;;33.14692;3.7766654;-1.045259;;;;;;;;;
2066.0;2026.5;;;;;;;1.0500809;-0.23462631;0.36494035;;;;;;;;;;;;
2066.0;2028.9;262143;262143;12795;;;;;;;;;;;;;;;;;;
2066.0;2031.2;;;;-0.88286984;-0.046268467;0.3290253;;;;;;;;;;;;;;;
2066.0;2031.2;;;;-0.87833035;-0.045837406;0.32796863;;;;;;;;;;;;;;;
2066.0;2031.2;;;;-0.8735925;-0.04595566;0.32659534;;;;;;;;;;;;;;;
2066.0;2031.2;;;;-0.8675195;-0.046199802;0.3256264;;;;;;;;;;;;;;;
2066.0;2031.2;;;;-0.861786;-0.046234135;0.32355884;;;;;;;;;;;;;;;
2066.0;2036.0;;;;;;;;;;32.818844;7.7249975;-1.6823329;;;;;;;;;
2066.0;2036.0;;;;;;;1.0560625;-0.24390393;0.361095;;;;;;;;;;;;
2066.0;2036.0;;;;;;;;;;32.387768;11.318552;-2.113407;;;;;;;;;
2066.0;2036.0;;;;;;;1.0527666;-0.25202185;0.35608998;;;;;;;;;;;;
2066.0;2041.2;;;;-0.85699475;-0.047439583;0.32075122;;;;;;;;;;;;;;;
2066.0;2041.2;;;;-0.8507005;-0.047840126;0.31816867;;;;;;;;;;;;;;;
2066.0;2041.2;;;;-0.8440858;-0.0481186;0.31505206;;;;;;;;;;;;;;;
2066.0;2041.2;;;;-0.83617413;-0.04909516;0.3117905;;;;;;;;;;;;;;;
2066.0;2041.2;;;;-0.8277284;-0.05001069;0.30899432;;;;;;;;;;;;;;;
2066.0;2045.6;;;;;;;;;;31.880398;14.015625;-2.1515548;;;;;;;;;
2066.0;2045.6;;;;;;;1.0402539;-0.25959045;0.35023043;;;;;;;;;;;;
2066.0;2045.6;;;;;;;;;;31.567585;16.098515;-1.8501847;;;;;;;;;
2066.0;2045.6;;;;;;;1.0284127;-0.26917326;0.34949797;;;;;;;;;;;;
2118.0;2049.0;262143;262143;12793;;;;;;;;;;;;;;;;;;
2118.0;2051.1;;;;-0.8196794;-0.052173622;0.30612567;;;;;;;;;;;;;;;
2118.0;2051.1;;;;-0.81172574;-0.054637916;0.30306628;;;;;;;;;;;;;;;
2118.0;2051.1;;;;-0.8049127;-0.057151802;0.2998238;;;;;;;;;;;;;;;
2118.0;2051.1;;;;-0.79989254;-0.05949021;0.2953377;;;;;;;;;;;;;;;
2118.0;2051.1;;;;-0.7938844;-0.06172181;0.29131702;;;;;;;;;;;;;;;
2118.0;2054.3;;;;;;;;;;;;;2078;;;;;;;;
2118.0;2054.3;;;;;;;;;;;;;4242;;;;;;;;
2118.0;2054.3;;;;;;;;;;;;;1642;;;;;;;;
2118.0;2054.3;;;;;;;;;;;;;-10180;;;;;;;;
2118.0;2054.3;;;;;;;;;;;;;-24795;;;;;;;;
2118.0;2054.8;;;;;;;;;;31.34251;17.46803;-1.3885921;;;;;;;;;
2118.0;2054.8;;;;;;;1.0138249;-0.28083134;0.347911;;;;;;;;;;;;
2118.0;2054.8;;;;;;;;;;31.140324;17.754143;-0.6637776;;;;;;;;;
2118.0;2054.8;;;;;;;0.9960631;-0.29639578;0.34687337;;;;;;;;;;;;
2118.0;2060.9;;;;-0.78815854;-0.06401826;0.28773883;;;;;;;;;;;;;;;
2118.0;2060.9;;;;-0.7821275;-0.065925606;0.2837105;;;;;;;;;;;;;;;
2118.0;2060.9;;;;-0.77594006;-0.06782151;0.28044894;;;;;;;;;;;;;;;
2118.0;2060.9;;;;-0.76970303;-0.070594795;0.27682498;;;;;;;;;;;;;;;
2118.0;2060.9;;;;-0.7664453;-0.07345582;0.2736664;;;;;;;;;;;;;;;
2118.0;2064.4;;;;;;;;;;31.071657;17.365032;0.23651844;;;;;;;;;
2118.0;2064.4;;;;;;;0.9836726;-0.30463576;0.34565264;;;;;;;;;;;;
2118.0;2064.4;;;;;;;;;;30.991547;16.457108;0.9498886;;;;;;;;;
2118.0;2064.4;;;;;;;0.9754326;-0.31311992;0.34546953;;;;;;;;;;;;
2118.0;2068.8;262143;262143;12786;;;;;;;;;;;;;;;;;;
2121.0;2071.0;;;;-0.7655946;-0.08120728;0.27048114;;;;;;;;;;;;;;;
2121.0;2071.0;;;;-0.74867254;-0.08330155;0.26942828;;;;;;;;;;;;;;;
2121.0;2071.0;;;;-0.7424508;-0.07963181;0.26665118;;;;;;;;;;;;;;;
2121.0;2071.0;;;;-0.739399;-0.07579041;0.2611809;;;;;;;;;;;;;;;
2121.0;2071.0;;;;-0.7331582;-0.071422584;0.25825885;;;;;;;;;;;;;;;
2121.0;2074.0;;;;;;;;;;30.911434;15.686514;1.659444;;;;;;;;;
2121.0;2074.0;;;;;;;0.96859646;-0.31183812;0.34058657;;;;;;;;;;;;
2121.0;2074.0;;;;;;;;;;31.014435;14.973144;2.3194067;;;;;;;;;
2121.0;2074.0;;;;;;;0.9521775;-0.31275368;0.33393353;;;;;;;;;;;;
2121.0;2081.1;;;;-0.72669226;-0.06937409;0.25553897;;;;;;;;;;;;;;;
2121.0;2081.1;;;;-0.72035986;-0.06873704;0.25168613;;;;;;;;;;;;;;;
2121.0;2081.1;;;;-0.71461874;-0.06880952;0.24715045;;;;;;;;;;;;;;;
2121.0;2081.1;;;;-0.7081681;-0.07037354;0.24250033;;;;;;;;;;;;;;;
2121.0;2081.1;;;;-0.7017022;-0.07162095;0.23728946;;;;;;;;;;;;;;;
2122.0;2081.5;;;;;;;;;;;;;;;;;30.850397;-12.077701;31.68203;;1967.6
2122.0;2081.5;;;;;;;;;;;;;;0.9971618;0.33161414;0.16595966;;;;;1967.6
2122.0;2081.5;;;;;;;;;;;;;;;;;33.3224;-11.730552;32.097843;;1967.6
2122.0;2081.5;;;;;;;;;;;;;;0.9872127;0.32123783;0.15326396;;;;;1967.6
2122.0;2081.5;;;;;;;;;;;;;;;;;37.007507;-11.787774;32.06351;;1977.3
2122.0;2081.5;;;;;;;;;;;;;;0.9688406;0.3056734;0.13580737;;;;;1977.3
2122.0;2081.5;;;;;;;;;;;;;;;;;41.12369;-12.913144;31.575214;;1977.3
2122.0;2081.5;;;;;;;;;;;;;;0.95016325;0.29169592;0.13550219;;;;;1977.3
2122.0;2081.5;;;;;;;;;;;;;;;;;45.6328;-15.388958;30.877102;;1986.9
2122.0;2081.5;;;;;;;;;;;;;;0.9411298;0.27741325;0.1347087;;;;;1986.9
2122.0;2081.5;;;;;;;;;;;;;;;;;50.36317;-17.80755;30.301064;;1986.9
2122.0;2081.5;;;;;;;;;;;;;;0.9538255;0.26325268;0.12494278;;;;;1986.9
2122.0;2082.3;;;;;;;;;;;;;;;;;55.26139;-18.452253;29.755548;;1996.5
2122.0;2082.3;;;;;;;;;;;;;;0.9436323;0.25189978;0.104739524;;;;;1996.5
2122.0;2082.3;;;;;;;;;;;;;;;;;59.93835;-18.509476;29.004028;;1996.5
2122.0;2082.3;;;;;;;;;;;;;;0.92623675;0.24396497;0.10217597;;;;;1996.5
2122.0;2082.3;;;;;;;;;;;;;;;;;63.8638;-19.062624;28.45851;;2006.2
2122.0;2082.3;;;;;;;;;;;;;;0.920011;0.2247383;0.08484146;;;;;2006.2
2122.0;2082.3;;;;;;;;;;;;;;;;;68.27372;-20.203253;27.787102;;2006.2
2122.0;2082.3;;;;;;;;;;;;;;0.9020661;0.2158269;0.028321177;;;;;2006.2
2122.0;2082.3;;;;;;;;;;;;;;;;;71.470535;-21.778772;27.035585;;2015.9
2122.0;2082.3;;;;;;;;;;;;;;0.877224;0.20868556;-0.012878811;;;;;2015.9
2122.0;2082.3;;;;;;;;;;;;;;;;;73.141426;-22.961363;26.165808;;2015.9
2122.0;2082.3;;;;;;;;;;;;;;0.83455914;0.1909238;-0.02148503;;;;;2015.9
2124.0;2083.4;;;;;;;;;;31.140324;14.152959;3.3722954;;;;;;;;;
2124.0;2083.4;;;;;;;0.9274575;-0.31116673;0.3289285;;;;;;;;;;;;
2124.0;2083.4;;;;;;;;;;31.418804;12.546922;4.7227397;;;;;;;;;
2124.0;2083.4;;;;;;;0.8991363;-0.31348613;0.32392347;;;;;;;;;;;;
2124.0;2088.8;262143;262143;12795;;;;;;;;;;;;;;;;;;
2124.0;2091.0;;;;-0.6989594;-0.072624214;0.2313843;;;;;;;;;;;;;;;
2124.0;2091.0;;;;-0.69764715;-0.07523347;0.22494891;;;;;;;;;;;;;;;
2124.0;2091.0;;;;-0.6953736;-0.07962037;0.21894458;;;;;;;;;;;;;;;
2124.0;2091.0;;;;-0.69146353;-0.085643776;0.21241382;;;;;;;;;;;;;;;
2124.0;2091.0;;;;-0.688736;-0.09220124;0.2050133;;;;;;;;;;;;;;;
2124.0;2093.0;;;;;;;;;;31.785027;10.23133;6.1151466;;;;;;;;;
2124.0;2093.0;;;;;;;0.88497573;-0.31305888;0.31434065;;;;;;;;;;;;
2124.0;2093.0;;;;;;;;;;32.09403;7.930998;7.122257;;;;;;;;;
2124.0;2093.0;;;;;;;0.8810083;-0.30323192;0.30823696;;;;;;;;;;;;
2124.0;2094.6;;;;;;;;;;;;;-29308;;;;;;;;
2124.0;2094.6;;;;;;;;;;;;;-19211;;;;;;;;
2124.0;2094.6;;;;;;;;;;;;;-4009;;;;;;;;
2124.0;2094.6;;;;;;;;;;;;;4347;;;;;;;;
2124.0;2094.6;;;;;;;;;;;;;4528;;;;;;;;
2124.0;2101.0;;;;-0.6867638;-0.09948732;0.19747546;;;;;;;;;;;;;;;
2124.0;2101.0;;;;-0.6870919;-0.106174484;0.19134524;;;;;;;;;;;;;;;
2124.0;2101.0;;;;-0.68913275;-0.114215866;0.18511201;;;;;;;;;;;;;;;
2124.0;2101.0;;;;-0.6930924;-0.12296678;0.17884447;;;;;;;;;;;;;;;
2124.0;2101.0;;;;-0.69904333;-0.1313553;0.1732216;;;;;;;;;;;;;;;
2194.0;2102.6;;;;;;;;;;32.376324;5.9244056;7.9004793;;;;;;;;;
2194.0;2102.6;;;;;;;0.8797265;-0.29047516;0.29865414;;;;;;;;;;;;
2194.0;2102.6;;;;;;;;;;32.773064;4.222999;8.552812;;;;;;;;;
2194.0;2102.6;;;;;;;0.8719138;-0.28199103;0.29023102;;;;;;;;;;;;
2194.0;2109.0;262143;262143;12790;;;;;;;;;;;;;;;;;;
2194.0;2111.1;;;;-0.70564276;-0.13974;0.16929628;;;;;;;;;;;;;;;
2194.0;2111.1;;;;-0.71262366;-0.14702226;0.16517259;;;;;;;;;;;;;;;
2194.0;2111.1;;;;-0.7209168;-0.15279008;0.1618538;;;;;;;;;;;;;;;
2194.0;2111.1;;;;-0.7298241;-0.15699388;0.15967561;;;;;;;;;;;;;;;
2194.0;2111.1;;;;-0.7404137;-0.16032793;0.15737917;;;;;;;;;;;;;;;
2194.0;2112.0;;;;;;;;;;33.082066;3.0289621;9.3081455;;;;;;;;;
2194.0;2112.0;;;;;;;0.8636738;-0.26752526;0.28058717;;;;;;;;;;;;
2194.0;2112.0;;;;;;;;;;33.360546;2.2698143;10.277108;;;;;;;;;
2194.0;2112.0;;;;;;;0.85714287;-0.25611132;0.27332377;;;;;;;;;;;;
2194.0;2120.9;;;;-0.75400937;-0.16022874;0.15531923;;;;;;;;;;;;;;;
2194.0;2120.9;;;;-0.7669145;-0.16176988;0.15366365;;;;;;;;;;;;;;;
2194.0;2120.9;;;;-0.78071225;-0.16524889;0.15184022;;;;;;;;;;;;;;;
2194.0;2120.9;;;;-0.7956506;-0.16730882;0.14951326;;;;;;;;;;;;;;;
2194.0;2120.9;;;;-0.8093072;-0.16789629;0.14977266;;;;;;;;;;;;;;;
2194.0;2121.5;;;;;;;;;;33.745842;1.4076662;11.14307;;;;;;;;;
2194.0;2121.5;;;;;;;0.85262614;-0.24689475;0.26618245;;;;;;;;;;;;
2194.0;2121.5;;;;;;;;;;33.963284;0.9155553;11.692404;;;;;;;;;
2194.0;2121.5;;;;;;;0.8512833;-0.23499252;0.260506;;;;;;;;;;;;
2201.0;2129.0;262143;262143;12795;;;;;;;;;;;;;;;;;;
2201.0;2131.1;;;;-0.82260907;-0.166523;0.14963152;;;;;;;;;;;;;;;
2201.0;2131.1;;;;-0.83755887;-0.16590501;0.14775087;;;;;;;;;;;;;;;
2201.0;2131.1;;;;-0.854107;-0.16635515;0.14809038;;;;;;;;;;;;;;;
2201.0;2131.1;;;;-0.87251294;-0.16731645;0.1493416;;;;;;;;;;;;;;;
2201.0;2131.1;;;;-0.8917848;-0.1676407;0.15039445;;;;;;;;;;;;;;;
2201.0;2131.2;;;;;;;;;;34.161655;0.93844414;11.932737;;;;;;;;;
2201.0;2131.2;;;;;;;0.84646136;-0.22663045;0.2548906;;;;;;;;;;;;
2201.0;2131.2;;;;;;;;;;34.279915;1.2550737;12.29896;;;;;;;;;
2201.0;2131.2;;;;;;;0.84035766;-0.21552171;0.25116733;;;;;;;;;;;;
2201.0;2134.7;;;;;;;;;;;;;2873;;;;;;;;
2201.0;2134.7;;;;;;;;;;;;;3066;;;;;;;;
2201.0;2134.7;;;;;;;;;;;;;3622;;;;;;;;
2201.0;2134.7;;;;;;;;;;;;;3212;;;;;;;;
2201.0;2134.7;;;;;;;;;;;;;2743;;;;;;;;
2201.0;2140.8;;;;;;;;;;34.375286;2.254555;12.730033;;;;;;;;;
2201.0;2140.8;;;;;;;0.8435316;-0.19977416;0.24652852;;;;;;;;;;;;
2201.0;2140.8;;;;;;;;;;34.508804;3.2540362;13.027589;;;;;;;;;
2201.0;2140.8;;;;;;;0.83730584;-0.18774988;0.24439223;;;;;;;;;;;;
2201.0;2141.2;;;;-0.91077435;-0.1680031;0.15275575;;;;;;;;;;;;;;;
2201.0;2141.2;;;;-0.9293214;-0.16916658;0.15348436;;;;;;;;;;;;;;;
2201.0;2141.2;;;;-0.94701016;-0.17017366;0.15394212;;;;;;;;;;;;;;;
2201.0;2141.2;;;;-0.96164334;-0.17069246;0.15590669;;;;;;;;;;;;;;;
2201.0;2141.2;;;;-0.97456753;-0.17055894;0.15718843;;;;;;;;;;;;;;;
2203.0;2142.5;;;;;;;;;;;;;;;;;75.15183;-24.395735;25.105288;;2025.5
2203.0;2142.5;;;;;;;;;;;;;;0.7775506;0.1793878;-0.022644734;;;;;2025.5
2203.0;2142.5;;;;;;;;;;;;;;;;;76.54424;-26.799067;23.403881;;2025.5
2203.0;2142.5;;;;;;;;;;;;;;0.7080905;0.17554247;0.021057772;;;;;2025.5
2203.0;2142.5;;;;;;;;;;;;;;;;;74.41557;-31.277657;21.72918;;2035.2
2203.0;2142.5;;;;;;;;;;;;;;0.6631062;0.1666921;0.11767937;;;;;2035.2
2203.0;2142.5;;;;;;;;;;;;;;;;;69.41053;-35.641804;21.607105;;2035.2
2203.0;2142.5;;;;;;;;;;;;;;0.6616413;0.15778069;0.22516556;;;;;2035.2
2203.0;2142.5;;;;;;;;;;;;;;;;;63.34498;-37.99173;22.350992;;2044.8
2203.0;2142.5;;;;;;;;;;;;;;0.65108186;0.13251136;0.32978302;;;;;2044.8
2203.0;2142.5;;;;;;;;;;;;;;;;;54.940945;-42.08121;23.121586;;2044.8
2203.0;2142.5;;;;;;;;;;;;;;0.67293316;0.11004975;0.37641528;;;;;2044.8
2203.0;2143.3;;;;;;;;;;;;;;;;;41.791283;-50.225834;24.372845;;2054.3
2203.0;2143.3;;;;;;;;;;;;;;0.81228065;0.119205296;0.3426008;;;;;2054.3
2203.0;2143.3;;;;;;;;;;;;;;;;;25.627918;-59.644615;27.314068;;2054.3
2203.0;2143.3;;;;;;;;;;;;;;1.030488;0.1511887;0.14471877;;;;;2054.3
2203.0;2143.3;;;;;;;;;;;;;;;;;10.97522;-57.592243;31.270027;;2063.9
2203.0;2143.3;;;;;;;;;;;;;;1.2142094;0.1897641;-0.05774102;;;;;2063.9
2203.0;2143.3;;;;;;;;;;;;;;;;;1.4725181;-42.3101;34.970394;;2063.9
2203.0;2143.3;;;;;;;;;;;;;;1.2307504;0.1944029;0.07049776;;;;;2063.9
2203.0;2143.3;;;;;;;;;;;;;;;;;-7.06122;-29.484695;37.19062;;2073.6
2203.0;2143.3;;;;;;;;;;;;;;1.2116458;0.15692617;0.40021974;;;;;2073.6
2203.0;2143.3;;;;;;;;;;;;;;;;;-12.447737;-24.193548;37.38136;;2073.6
2203.0;2143.3;;;;;;;;;;;;;;1.2629169;0.092471085;0.5612964;;;;;2073.6
2205.0;2149.0;262143;262143;12797;;;;;;;;;;;;;;;;;;
2205.0;2150.2;;;;;;;;;;34.493546;3.4333322;13.328959;;;;;;;;;
2205.0;2150.2;;;;;;;0.83571887;-0.18030335;0.2418897;;;;;;;;;;;;
2205.0;2150.2;;;;;;;;;;34.33332;3.7232583;13.664663;;;;;;;;;
2205.0;2150.2;;;;;;;0.84145635;-0.16693625;0.24011964;;;;;;;;;;;;
2205.0;2151.0;;;;-0.9889833;-0.17173769;0.1575432;;;;;;;;;;;;;;;
2205.0;2151.0;;;;-1.0038949;-0.17250063;0.15940858;;;;;;;;;;;;;;;
2205.0;2151.0;;;;-1.0195352;-0.17203523;0.16217043;;;;;;;;;;;;;;;
2205.0;2151.0;;;;-1.0345613;-0.17091371;0.16412736;;;;;;;;;;;;;;;
2205.0;2151.0;;;;-1.0489274;-0.1702347;0.16575243;;;;;;;;;;;;;;;
2205.0;2159.7;;;;;;;;;;34.127323;3.6812954;13.889736;;;;;;;;;
2205.0;2159.7;;;;;;;0.84182256;-0.15741447;0.23834956;;;;;;;;;;;;
2205.0;2159.7;;;;;;;;;;33.72677;3.460036;13.966033;;;;;;;;;
2205.0;2159.7;;;;;;;0.84322643;-0.1439253;0.23224586;;;;;;;;;;;;
2205.0;2161.0;;;;-1.0629998;-0.16993715;0.16755296;;;;;;;;;;;;;;;
2205.0;2161.0;;;;-1.0773546;-0.16907503;0.1703415;;;;;;;;;;;;;;;
2205.0;2161.0;;;;-1.0918313;-0.16675188;0.17406465;;;;;;;;;;;;;;;
2205.0;2161.0;;;;-1.1079828;-0.16389848;0.17679216;;;;;;;;;;;;;;;
2205.0;2161.0;;;;-1.1232911;-0.1602936;0.18130495;;;;;;;;;;;;;;;
2205.0;2169.3;;;;;;;;;;33.295696;3.2654805;13.946959;;;;;;;;;
2205.0;2169.3;;;;;;;0.84200567;-0.13031404;0.22650838;;;;;;;;;;;;
2205.0;2169.3;;;;;;;;;;32.830288;3.0976286;13.992737;;;;;;;;;
2205.0;2169.3;;;;;;;0.8440809;-0.1208533;0.2273629;;;;;;;;;;;;
2239.0;2169.2;262143;262143;12803;;;;;;;;;;;;;;;;;;
2239.0;2171.1;;;;-1.1414186;-0.15856172;0.1851616;;;;;;;;;;;;;;;
2239.0;2171.1;;;;-1.1607972;-0.15747835;0.18275453;;;;;;;;;;;;;;;
2239.0;2171.1;;;;-1.1765138;-0.15537263;0.18206407;;;;;;;;;;;;;;;
2239.0;2171.1;;;;-1.1914788;-0.1522751;0.18436433;;;;;;;;;;;;;;;
2239.0;2171.1;;;;-1.2096788;-0.14945985;0.18611147;;;;;;;;;;;;;;;
2239.0;2174.8;;;;;;;;;;;;;2546;;;;;;;;
2239.0;2174.8;;;;;;;;;;;;;2251;;;;;;;;
2239.0;2174.8;;;;;;;;;;;;;1794;;;;;;;;
2239.0;2174.8;;;;;;;;;;;;;1236;;;;;;;;
2239.0;2174.8;;;;;;;;;;;;;814;;;;;;;;
2239.0;2178.8;;;;;;;;;;32.403027;2.6894438;14.084292;;;;;;;;;
2239.0;2178.8;;;;;;;0.8418836;-0.115543075;0.23413801;;;;;;;;;;;;
2239.0;2178.8;;;;;;;;;;31.9071;2.0523698;14.233069;;;;;;;;;
2239.0;2178.8;;;;;;;0.84017456;-0.10803553;0.23883785;;;;;;;;;;;;
2239.0;2181.2;;;;-1.2301255;-0.14785387;0.18819049;;;;;;;;;;;;;;;
2239.0;2181.2;;;;-1.247368;-0.1452408;0.19065478;;;;;;;;;;;;;;;
2239.0;2181.2;;;;-1.2602159;-0.14206316;0.19200519;;;;;;;;;;;;;;;
2239.0;2181.2;;;;-1.271145;-0.13783647;0.19470218;;;;;;;;;;;;;;;
2239.0;2181.2;;;;-1.2803231;-0.13343813;0.2011948;;;;;;;;;;;;;;;
2239.0;2188.5;;;;;;;;;;31.506546;1.3161107;14.362774;;;;;;;;;
2239.0;2188.5;;;;;;;0.84054077;-0.100405894;0.2445143;;;;;;;;;;;;
2239.0;2188.5;;;;;;;;;;30.983917;0.51118505;14.309366;;;;;;;;;
2239.0;2188.5;;;;;;;0.84310436;-0.09363079;0.24921414;;;;;;;;;;;;
2239.0;2189.4;262143;262143;12789;;;;;;;;;;;;;;;;;;
2243.0;2191.3;;;;-1.2923776;-0.12983705;0.19934085;;;;;;;;;;;;;;;
2243.0;2191.3;;;;-1.3053781;-0.12747957;0.19247058;;;;;;;;;;;;;;;
2243.0;2191.3;;;;-1.3188249;-0.12528612;0.18828586;;;;;;;;;;;;;;;
2243.0;2191.3;;;;-1.3303643;-0.123287216;0.18907931;;;;;;;;;;;;;;;
2243.0;2191.3;;;;-1.3381387;-0.12088014;0.19013217;;;;;;;;;;;;;;;
2243.0;2198.1;;;;;;;;;;30.499435;-0.28611103;13.954588;;;;;;;;;
2243.0;2198.1;;;;;;;0.84829247;-0.08270516;0.25421917;;;;;;;;;;;;
2243.0;2198.1;;;;;;;;;;30.030212;-0.99185157;13.512071;;;;;;;;;
2243.0;2198.1;;;;;;;0.8521378;-0.075014494;0.25476852;;;;;;;;;;;;
2243.0;2201.4;;;;-1.3436891;-0.11890794;0.19213489;;;;;;;;;;;;;;;
2243.0;2201.4;;;;-1.3467447;-0.11684419;0.19257358;;;;;;;;;;;;;;;
2243.0;2201.4;;;;-1.3484231;-0.114425674;0.1923714;;;;;;;;;;;;;;;
2243.0;2201.4;;;;-1.3505403;-0.11185457;0.19288638;;;;;;;;;;;;;;;
2243.0;2201.4;;;;-1.3524667;-0.109748855;0.19238284;;;;;;;;;;;;;;;
2243.0;2207.7;;;;;;;;;;29.461807;-1.5831476;13.206885;;;;;;;;;
2243.0;2207.7;;;;;;;0.8515885;-0.06604206;0.25592822;;;;;;;;;;;;
2243.0;2207.7;;;;;;;;;;28.927732;-1.9569995;12.745293;;;;;;;;;
2243.0;2207.7;;;;;;;0.8539689;-0.0629902;0.2560503;;;;;;;;;;;;
2247.0;2209.7;;;;;;;;;;;;;;;;;-6.6949983;-14.950255;34.627064;;2083.2
2247.0;2209.7;;;;;;;;;;;;;;1.2982574;0.06408887;0.3707999;;;;;2083.2
2247.0;2209.7;;;;;;;;;;;;;;;;;19.386885;-2.9526658;25.879696;;2083.2
2247.0;2209.7;;;;;;;;;;;;;;1.0978118;0.2379223;-0.0778222;;;;;2083.2
2247.0;2209.7;;;;;;;;;;;;;;;;;34.83306;1.8883327;15.415662;;2092.8
2247.0;2209.7;;;;;;;;;;;;;;0.87777334;0.40021974;-0.3045137;;;;;2092.8
2247.0;2209.7;;;;;;;;;;;;;;;;;27.600176;-7.309183;6.321146;;2092.8
2247.0;2209.7;;;;;;;;;;;;;;0.82931;0.42677084;-0.35181737;;;;;2092.8
2247.0;2209.7;;;;;;;;;;;;;;;;;15.591144;-18.066957;-0.33951843;;2102.3
2247.0;2209.7;;;;;;;;;;;;;;0.8732566;0.44068727;-0.32721946;;;;;2102.3
2247.0;2209.7;;;;;;;;;;;;;;;;;-1.0528886;-16.747032;-3.9368877;;2102.3
2247.0;2209.7;;;;;;;;;;;;;;0.9058504;0.37836847;-0.18420972;;;;;2102.3
2247.0;2209.5;262143;262143;12797;;;;;;;;;;;;;;;;;;
2247.0;2210.4;;;;;;;;;;;;;;;;;-18.51329;-8.465072;-5.6001463;;2111.9
2247.0;2210.4;;;;;;;;;;;;;;0.93508714;0.29016998;-0.09765923;;;;;2111.9
2247.0;2210.4;;;;;;;;;;;;;;;;;-24.922176;-2.0867033;-7.3435163;;2111.9
2247.0;2210.4;;;;;;;;;;;;;;0.9327067;0.2821131;-0.1535081;;;;;2111.9
2247.0;2210.4;;;;;;;;;;;;;;;;;-23.136845;-1.678518;-9.334849;;2121.6
2247.0;2210.4;;;;;;;;;;;;;;0.9457686;0.30561236;-0.26551104;;;;;2121.6
2247.0;2210.4;;;;;;;;;;;;;;;;;-20.249031;-5.752739;-10.34196;;2121.6
2247.0;2210.4;;;;;;;;;;;;;;0.9491867;0.27680287;-0.37238684;;;;;2121.6
2247.0;2210.4;;;;;;;;;;;;;;;;;-18.97107;-11.097293;-9.01059;;2131.2
2247.0;2210.4;;;;;;;;;;;;;;1.0433668;0.18512528;-0.40406507;;;;;2131.2
2247.0;2210.4;;;;;;;;;;;;;;;;;-17.296364;-10.097812;-7.042146;;2131.2
2247.0;2210.4;;;;;;;;;;;;;;1.1122776;0.07361065;-0.32947782;;;;;2131.2
2247.0;2211.2;;;;-1.3552743;-0.1075287;0.19275287;;;;;;;;;;;;;;;
2247.0;2211.2;;;;-1.3587648;-0.10585405;0.1928902;;;;;;;;;;;;;;;
2247.0;2211.2;;;;-1.3639413;-0.1045952;0.19435123;;;;;;;;;;;;;;;
2247.0;2211.2;;;;-1.3703538;-0.10391237;0.19405368;;;;;;;;;;;;;;;
2247.0;2211.2;;;;-1.3765489;-0.10391237;0.19473651;;;;;;;;;;;;;;;
2247.0;2215.1;;;;;;;;;;;;;603;;;;;;;;
2247.0;2215.1;;;;;;;;;;;;;366;;;;;;;;
2247.0;2215.1;;;;;;;;;;;;;-107;;;;;;;;
2247.0;2215.1;;;;;;;;;;;;;-807;;;;;;;;
2247.0;2215.1;;;;;;;;;;;;;-1449;;;;;;;;
2247.0;2217.0;;;;;;;;;;28.386028;-2.1172216;12.131108;;;;;;;;;
2247.0;2217.0;;;;;;;0.854091;-0.05920591;0.25898007;;;;;;;;;;;;
2247.0;2217.0;;;;;;;;;;27.867214;-2.212592;11.402478;;;;;;;;;
2247.0;2217.0;;;;;;;0.854152;-0.05121006;0.25843075;;;;;;;;;;;;
2299.0;2221.2;;;;-1.3811647;-0.10392;0.19611362;;;;;;;;;;;;;;;
2299.0;2221.2;;;;-1.3849908;-0.10380174;0.19689944;;;;;;;;;;;;;;;
2299.0;2221.2;;;;-1.3873445;-0.103626266;0.1977959;;;;;;;;;;;;;;;
2299.0;2221.2;;;;-1.3889276;-0.10305406;0.19940189;;;;;;;;;;;;;;;
2299.0;2221.2;;;;-1.3897783;-0.10241701;0.20105746;;;;;;;;;;;;;;;
2299.0;2226.6;;;;;;;;;;27.23777;-1.8959624;10.74633;;;;;;;;;
2299.0;2226.6;;;;;;;0.84987944;-0.043519396;0.26636556;;;;;;;;;;;;
2299.0;2226.6;;;;;;;;;;26.779993;-2.166814;10.086368;;;;;;;;;
2299.0;2226.6;;;;;;;0.83895385;-0.04608295;0.26276436;;;;;;;;;;;;
2299.0;2229.5;262143;262143;12793;;;;;;;;;;;;;;;;;;
2299.0;2231.2;;;;-1.390442;-0.10139467;0.20280078;;;;;;;;;;;;;;;
2299.0;2231.2;;;;-1.3927041;-0.100440994;0.2051163;;;;;;;;;;;;;;;
2299.0;2231.2;;;;-1.3951722;-0.099491134;0.20804599;;;;;;;;;;;;;;;
2299.0;2231.2;;;;-1.397648;-0.09827043;0.211422;;;;;;;;;;;;;;;
2299.0;2231.2;;;;-1.4005243;-0.09679796;0.21511462;;;;;;;;;;;;;;;
2299.0;2235.9;;;;;;;;;;26.23066;-2.5635548;9.52559;;;;;;;;;
2299.0;2235.9;;;;;;;0.8398694;-0.032227546;0.25891903;;;;;;;;;;;;
2299.0;2235.9;;;;;;;;;;25.765251;-2.6779993;8.777886;;;;;;;;;
2299.0;2235.9;;;;;;;0.8382824;-0.020569475;0.26227608;;;;;;;;;;;;
2303.0;2241.1;;;;-1.4031297;-0.09465028;0.21944812;;;;;;;;;;;;;;;
2303.0;2241.1;;;;-1.4045984;-0.09149171;0.22323993;;;;;;;;;;;;;;;
2303.0;2241.1;;;;-1.4053346;-0.08746339;0.22743991;;;;;;;;;;;;;;;
2303.0;2241.1;;;;-1.4054376;-0.08309174;0.23093417;;;;;;;;;;;;;;;
2303.0;2241.1;;;;-1.4052392;-0.078155525;0.23463443;;;;;;;;;;;;;;;
2303.0;2245.5;;;;;;;;;;25.28077;-2.4300365;8.148442;;;;;;;;;
2303.0;2245.5;;;;;;;0.8350475;-0.015930662;0.26453444;;;;;;;;;;;;
2303.0;2245.5;;;;;;;;;;24.628439;-2.2659993;7.8966646;;;;;;;;;
2303.0;2245.5;;;;;;;0.83333844;-0.014648885;0.26178777;;;;;;;;;;;;
2303.0;2249.5;262143;262143;12791;;;;;;;;;;;;;;;;;;
2303.0;2251.2;;;;-1.4045297;-0.07252122;0.23814014;;;;;;;;;;;;;;;
2303.0;2251.2;;;;-1.4030153;-0.06664277;0.24177936;;;;;;;;;;;;;;;
2303.0;2251.2;;;;-1.4010621;-0.06031037;0.2445412;;;;;;;;;;;;;;;
2303.0;2251.2;;;;-1.3987962;-0.053733833;0.24727252;;;;;;;;;;;;;;;
2303.0;2251.2;;;;-1.395096;-0.046649937;0.25001147;;;;;;;;;;;;;;;
2303.0;2255.1;;;;;;;;;;;;;-1993;;;;;;;;
2303.0;2255.1;;;;;;;;;;;;;-2691;;;;;;;;
2303.0;2255.1;;;;;;;;;;;;;-3177;;;;;;;;
2303.0;2255.1;;;;;;;;;;;;;-2876;;;;;;;;
2303.0;2255.1;;;;;;;;;;;;;-1942;;;;;;;;
2303.0;2255.1;;;;;;;;;;24.040956;-2.2927032;7.5914793;;;;;;;;;
2303.0;2255.1;;;;;;;0.8339488;-0.010864589;0.25873592;;;;;;;;;;;;
2303.0;2255.1;;;;;;;;;;23.44203;-1.9684439;6.920072;;;;;;;;;
2303.0;2255.1;;;;;;;0.8354747;-0.006103702;0.25916317;;;;;;;;;;;;
2305.0;2261.3;;;;-1.3899423;-0.039787296;0.25199512;;;;;;;;;;;;;;;
2305.0;2261.3;;;;-1.3825189;-0.033218388;0.2535515;;;;;;;;;;;;;;;
2305.0;2261.3;;;;-1.3724061;-0.026725773;0.2551346;;;;;;;;;;;;;;;
2305.0;2261.3;;;;-1.3596002;-0.020774843;0.2554932;;;;;;;;;;;;;;;
2305.0;2261.3;;;;-1.3434945;-0.01572037;0.25490192;;;;;;;;;;;;;;;
2305.0;2262.3;;;;;;;;;;;;;;;;;-13.077182;-6.801813;-6.424146;;2140.9
2305.0;2262.3;;;;;;;;;;;;;;1.1006196;0.02496414;-0.2694174;;;;;2140.9
2305.0;2262.3;;;;;;;;;;;;;;;;;-7.328257;-7.3053684;-7.168035;;2140.9
2305.0;2262.3;;;;;;;;;;;;;;1.0961028;0.038331248;-0.30689412;;;;;2140.9
2305.0;2262.3;;;;;;;;;;;;;;;;;-1.4381847;-8.6405525;-8.114109;;2150.5
2305.0;2262.3;;;;;;;;;;;;;;1.1092257;0.07672353;-0.35261086;;;;;2150.5
2305.0;2262.3;;;;;;;;;;;;;;;;;2.9412215;-9.609516;-8.190405;;2150.5
2305.0;2262.3;;;;;;;;;;;;;;1.1627553;0.18720053;-0.3061617;;;;;2150.5
2305.0;2262.3;;;;;;;;;;;;;;;;;5.203406;-11.326181;-6.717887;;2160.2
2305.0;2262.3;;;;;;;;;;;;;;1.3028352;0.25891903;-0.26612142;;;;;2160.2
2305.0;2262.3;;;;;;;;;;;;;;;;;7.744072;-9.533219;-5.558183;;2160.2
2305.0;2262.3;;;;;;;;;;;;;;1.4100162;0.30384228;-0.18793298;;;;;2160.2
2306.0;2263.4;;;;;;;;;;;;;;;;;11.631367;-8.289591;-5.920591;;2169.4
2306.0;2263.4;;;;;;;;;;;;;;1.5167699;0.3640248;-0.119876705;;;;;2169.4
2306.0;2263.4;;;;;;;;;;;;;;;;;17.380291;-8.251442;-7.6029234;;2169.4
2306.0;2263.4;;;;;;;;;;;;;;1.6349376;0.4466689;-0.11658071;;;;;2169.4
2306.0;2263.4;;;;;;;;;;;;;;;;;22.938475;-6.183813;-10.082552;;2179.0
2306.0;2263.4;;;;;;;;;;;;;;1.7231361;0.54664755;-0.14465773;;;;;2179.0
2306.0;2263.4;;;;;;;;;;;;;;;;;24.983213;-1.5068514;-12.882626;;2179.0
2306.0;2263.4;;;;;;;;;;;;;;1.6973175;0.651326;-0.18012024;;;;;2179.0
2306.0;2263.4;;;;;;;;;;;;;;;;;21.710106;3.1586657;-15.911589;;2188.7
2306.0;2263.4;;;;;;;;;;;;;;1.568041;0.7131565;-0.18274483;;;;;2188.7
2306.0;2263.4;;;;;;;;;;;;;;;;;13.5883665;5.775628;-18.841366;;2188.7
2306.0;2263.4;;;;;;;;;;;;;;1.39317;0.7235328;-0.21344645;;;;;2188.7
2306.0;2264.6;;;;;;;;;;22.900326;-1.373333;6.221961;;;;;;;;;
2306.0;2264.6;;;;;;;0.8363292;7.324442E-4;0.26123846;;;;;;;;;;;;
2306.0;2264.6;;;;;;;;;;22.4044;-0.86214787;5.8862576;;;;;;;;;
2306.0;2264.6;;;;;;;0.8296762;0.0017700735;0.26294747;;;;;;;;;;;;
2306.0;2269.6;262143;262143;12784;;;;;;;;;;;;;;;;;;
2306.0;2271.3;;;;-1.3247033;-0.011920931;0.2536812;;;;;;;;;;;;;;;
2306.0;2271.3;;;;-1.3037797;-0.008804322;0.2524033;;;;;;;;;;;;;;;
2306.0;2271.3;;;;-1.2807847;-0.0064582834;0.25039676;;;;;;;;;;;;;;;
2306.0;2271.3;;;;-1.2567331;-0.0055580144;0.24868396;;;;;;;;;;;;;;;
2306.0;2271.3;;;;-1.2319871;-0.0058364873;0.24616626;;;;;;;;;;;;;;;
2307.0;2274.2;;;;;;;;;;21.908476;-0.5035554;5.6840725;;;;;;;;;
2307.0;2274.2;;;;;;;0.8246101;0.0077517014;0.26355785;;;;;;;;;;;;
2307.0;2274.2;;;;;;;;;;21.374401;-0.23651844;5.5238504;;;;;;;;;
