patientId;holterMac;flexMac;;;;;;;;;;;;;;;;;;;;
;CA:F3:0B:1E:33:78;D3:4A:5C:52:80:78;;;;;;;;;;;;;;;;;;;;
receivedTimeStamp;timeStamp;red;ir;green;adxl_accX;adxl_accY;adxl_accZ;lsm_accelX;lsm_accelY;lsm_accelZ;lsm_gyroX;lsm_gyroY;lsm_gyroZ;ecg;flex_lsm_accelX;flex_lsm_accelY;flex_lsm_accelZ;flex_lsm_gyroX;flex_lsm_gyroY;flex_lsm_gyroZ;flex_cmd;flexTimeStamp
469.0;214.7;;;;;;;;;;;;;;;;;;;;17;0.1
469.0;214.7;;;;;;;;;;;;;;;;;13.431959;0.77822196;0.90792567;;127.4
469.0;214.7;;;;;;;;;;;;;;-0.15778069;-1.2222663;-0.3086642;;;;;127.4
469.0;214.7;;;;;;;;;;;;;;;;;-3.6584065;-16.052736;-7.595294;;127.4
469.0;214.7;;;;;;;;;;;;;;-0.2106998;-1.3398846;-0.42005676;;;;;127.4
469.0;214.7;;;;;;;;;;;;;;;;;-61.269722;-84.55534;-63.10846;;137.0
469.0;214.7;;;;;;;;;;;;;;-0.29511398;-1.3754082;-0.4092532;;;;;137.0
469.0;214.7;;;;;;;;;;;;;;;;;-121.79174;-124.988556;-121.124146;;137.0
469.0;214.7;;;;;;;;;;;;;;-0.33991516;-1.3315836;-0.30524614;;;;;137.0
475.0;403.2;;;;;;;;;;;;;;;;;-46.063873;-124.988556;-92.822044;;146.7
475.0;403.2;;;;;;;;;;;;;;-0.32422864;-1.2554704;-0.23340556;;;;;146.7
475.0;403.2;;;;;;;;;;;;;;;;;39.609207;-124.988556;-72.07709;;146.7
475.0;403.2;;;;;;;;;;;;;;-0.28565326;-1.1864986;-0.2191229;;;;;146.7
475.0;403.2;;;;;;;;;;;;;;;;;41.676838;-105.03708;-81.404305;;156.4
475.0;403.2;;;;;;;;;;;;;;-0.24860378;-1.1425519;-0.19037446;;;;;156.4
475.0;403.2;;;;;;;;;;;;;;;;;35.39384;-35.596027;-69.21216;;156.4
475.0;403.2;;;;;;;;;;;;;;-0.2320017;-1.1432844;-0.13013093;;;;;156.4
475.0;403.2;;;;;;;;;;;;;;;;;35.763878;-29.427473;-75.636314;;166.1
475.0;403.2;;;;;;;;;;;;;;-0.23938718;-1.1899167;-0.0314951;;;;;166.1
475.0;403.2;;;;;;;;;;;;;;;;;41.5891;-31.899471;-84.39131;;166.1
475.0;403.2;;;;;;;;;;;;;;-0.24774925;-1.2654805;0.03930784;;;;;166.1
475.0;404.3;;;;;;;;;;;;;;;;;49.771873;-32.876064;-92.69616;;175.6
475.0;404.3;;;;;;;;;;;;;;-0.2816248;-1.3314615;0.09173864;;;;;175.6
475.0;404.3;;;;;;;;;;;;;;;;;57.57317;-31.84988;-100.245674;;175.6
475.0;404.3;;;;;;;;;;;;;;-0.36512345;-1.361919;0.13031404;;;;;175.6
475.0;404.3;;;;;;;;;;;;;;;;;65.56902;-33.25373;-106.39134;;185.3
475.0;404.3;;;;;;;;;;;;;;-0.46821496;-1.3449507;0.1394696;;;;;185.3
475.0;404.3;;;;;;;;;;;;;;;;;74.449905;-39.326912;-111.07593;;185.3
475.0;404.3;;;;;;;;;;;;;;-0.56135744;-1.2634052;0.1309244;;;;;185.3
475.0;404.3;;;;;;;;;;;;;;;;;83.64742;-48.085728;-114.16975;;194.9
475.0;404.3;;;;;;;;;;;;;;-0.64015627;-1.1247902;0.10419019;;;;;194.9
475.0;404.3;;;;;;;;;;;;;;;;;91.42582;-55.932796;-115.67278;;194.9
475.0;404.3;;;;;;;;;;;;;;-0.6961882;-0.9858089;0.052308727;;;;;194.9
477.0;410.5;;;;;;;;;;;;;;;;;97.30827;-60.00702;-116.64556;;204.5
477.0;410.5;;;;;;;;;;;;;;-0.74996185;-0.8562273;-0.0050050355;;;;;204.5
477.0;410.5;;;;;;;;;;;;;;;;;99.10886;-57.13065;-117.04993;;204.5
477.0;410.5;;;;;;;;;;;;;;-0.8173467;-0.7591174;-0.100039676;;;;;204.5
477.0;410.5;;;;;;;;;;;;;;;;;94.5349;-44.736317;-118.04178;;214.2
477.0;410.5;;;;;;;;;;;;;;-0.89205605;-0.6967376;-0.24622333;;;;;214.2
477.0;410.5;;;;;;;;;;;;;;;;;84.826195;-27.043215;-118.980225;;214.2
477.0;410.5;;;;;;;;;;;;;;-0.96212655;-0.7015595;-0.40559098;;;;;214.2
477.0;410.5;;;;;;;;;;;;;;;;;75.73931;-13.1801815;-119.54864;;223.8
477.0;410.5;;;;;;;;;;;;;;-1.0773034;-0.7262795;-0.504593;;;;;223.8
477.0;410.5;;;;;;;;;;;;;;;;;70.921196;-9.81933;-119.42656;;223.8
477.0;410.5;;;;;;;;;;;;;;-1.2115848;-0.7635121;-0.53706473;;;;;223.8
477.0;411.5;;;;;;;;;;;;;;;;;68.72386;-14.168218;-119.09849;;233.5
477.0;411.5;;;;;;;;;;;;;;-1.3030183;-0.8270516;-0.54969937;;;;;233.5
477.0;411.5;;;;;;;;;;;;;;;;;65.87421;-19.722586;-118.01889;;233.5
477.0;411.5;;;;;;;;;;;;;;-1.3168737;-0.87405014;-0.56935334;;;;;233.5
477.0;411.5;;;;;;;;;;;;;;;;;62.059387;-24.098179;-115.56978;;243.2
477.0;411.5;;;;;;;;;;;;;;-1.2710959;-0.89901423;-0.5761284;;;;;243.2
477.0;411.5;;;;;;;;;;;;;;;;;58.774834;-27.581102;-114.700005;;243.2
477.0;411.5;;;;;;;;;;;;;;-1.1644032;-0.93923765;-0.5493942;;;;;243.2
477.0;411.5;;;;;;;;;;;;;;;;;56.257057;-30.156101;-116.08096;;252.8
477.0;411.5;;;;;;;;;;;;;;-0.9929502;-0.9846492;-0.5081332;;;;;252.8
477.0;411.5;;;;;;;;;;;;;;;;;50.09613;-30.499435;-116.83249;;252.8
477.0;411.5;;;;;;;;;;;;;;-0.906827;-0.9971618;-0.4427015;;;;;252.8
529.0;412.1;;;;;;;;;;;;;;;;;37.640766;-28.1724;-117.31697;;262.5
529.0;412.1;;;;;;;;;;;;;;-0.82290107;-1.0083315;-0.38673055;;;;;262.5
529.0;412.1;;;;;;;;;;;;;;;;;23.506882;-25.597399;-119.22437;;262.5
529.0;412.1;;;;;;;;;;;;;;-0.7423322;-1.0414137;-0.33100376;;;;;262.5
529.0;412.1;;;;;;;;;;;;;;;;;11.780145;-23.400066;-121.64296;;272.0
529.0;412.1;;;;;;;;;;;;;;-0.6659139;-1.1104465;-0.27167577;;;;;272.0
529.0;412.1;;;;;;;;;;;;;;;;;6.1914425;-25.017548;-123.85937;;272.0
529.0;412.1;;;;;;;;;;;;;;-0.60176396;-1.1725821;-0.20123905;;;;;272.0
529.0;412.1;;;;;;;;;;;;;;;;;6.851405;-32.0101;-124.931335;;281.6
529.0;412.1;;;;;;;;;;;;;;-0.58394116;-1.2088381;-0.14526811;;;;;281.6
529.0;412.1;;;;;;;;;;;;;;;;;12.012849;-43.46599;-124.988556;;281.6
529.0;412.1;;;;;;;;;;;;;;-0.58406323;-1.2155522;-0.11206397;;;;;281.6
529.0;413.8;;;;;;;;;;;;;;;;;18.978699;-55.398724;-124.988556;;291.3
529.0;413.8;;;;;;;;;;;;;;-0.60243535;-1.1621449;-0.0987579;;;;;291.3
529.0;413.8;;;;;;;;;;;;;;;;;24.6704;-64.17661;-124.988556;;291.3
529.0;413.8;;;;;;;;;;;;;;-0.59511095;-1.0886563;-0.12512589;;;;;291.3
529.0;413.8;;;;;;;;;;;;;;;;;27.61162;-65.85132;-124.988556;;301.0
529.0;413.8;;;;;;;;;;;;;;-0.5881527;-0.99807733;-0.14935759;;;;;301.0
529.0;413.8;;;;;;;;;;;;;;;;;26.92114;-62.086094;-124.988556;;301.0
529.0;413.8;;;;;;;;;;;;;;-0.56013674;-0.9571215;-0.17932676;;;;;301.0
529.0;413.8;;;;;;;;;;;;;;;;;23.75103;-54.53658;-124.988556;;310.6
529.0;413.8;;;;;;;;;;;;;;-0.58656573;-0.8641621;-0.17847225;;;;;310.6
529.0;413.8;;;;;;;;;;;;;;;;;18.318735;-47.51732;-124.988556;;310.6
529.0;413.8;;;;;;;;;;;;;;-0.61867124;-0.8136845;-0.18762779;;;;;310.6
532.0;455.5;;;;;;;;;;;;;;;;;13.473923;-43.084507;-124.988556;;320.3
532.0;455.5;;;;;;;;;;;;;;-0.5974914;-0.7952513;-0.21344645;;;;;320.3
532.0;455.5;;;;;;;;;;;;;;;;;11.402478;-37.4691;-124.988556;;320.3
532.0;455.5;;;;;;;;;;;;;;-0.6212958;-0.7661977;-0.235786;;;;;320.3
532.0;455.5;;;;;;;;;;;;;;;;;11.967071;-33.051548;-124.988556;;329.9
532.0;455.5;;;;;;;;;;;;;;-0.63075656;-0.73281044;-0.25019073;;;;;329.9
532.0;455.5;;;;;;;;;;;;;;;;;15.0112915;-29.541918;-124.98474;;329.9
532.0;455.5;;;;;;;;;;;;;;-0.6267281;-0.70363474;-0.27210304;;;;;329.9
532.0;455.5;;;;;;;;;;;;;;;;;21.011993;-24.136326;-124.69482;;339.5
532.0;455.5;;;;;;;;;;;;;;-0.59315777;-0.6895352;-0.27283546;;;;;339.5
532.0;455.5;;;;;;;;;;;;;;;;;27.008883;-19.795067;-121.688736;;339.5
532.0;455.5;;;;;;;;;;;;;;-0.58949554;-0.6590777;-0.29352704;;;;;339.5
532.0;456.3;;;;;;;;;;;;;;;;;32.45262;-15.476699;-115.478226;;349.2
532.0;456.3;;;;;;;;;;;;;;-0.5755181;-0.6317331;-0.2781457;;;;;349.2
532.0;456.3;;;;;;;;;;;;;;;;;35.00473;-10.773034;-108.4933;;349.2
532.0;456.3;;;;;;;;;;;;;;-0.525956;-0.6197699;-0.29395428;;;;;349.2
532.0;456.3;;;;;;;;;;;;;;;;;37.106693;-3.3761103;-100.882744;;358.7
532.0;456.3;;;;;;;;;;;;;;-0.4983062;-0.60750145;-0.2677694;;;;;358.7
532.0;456.3;;;;;;;;;;;;;;;;;37.053288;3.9178138;-93.88257;;358.7
532.0;456.3;;;;;;;;;;;;;;-0.43745232;-0.61214024;-0.23169653;;;;;358.7
532.0;456.3;;;;;;;;;;;;;;;;;36.790062;14.656514;-86.3712;;368.3
532.0;456.3;;;;;;;;;;;;;;-0.42780846;-0.58790857;-0.1650441;;;;;368.3
532.0;456.3;;;;;;;;;;;;;;;;;34.764397;25.116734;-79.79064;;368.3
532.0;456.3;;;;;;;;;;;;;;-0.37940612;-0.5816828;-0.121890925;;;;;368.3
589.0;457.1;;;;;;;;;;;;;;;;;32.6014;36.111027;-73.385574;;377.6
589.0;457.1;;;;;;;;;;;;;;-0.34235665;-0.59218115;-0.08996857;;;;;377.6
589.0;457.1;;;;;;;;;;;;;;;;;31.117435;47.61269;-67.60232;;377.6
589.0;457.1;;;;;;;;;;;;;;-0.32239753;-0.6021912;-0.057985168;;;;;377.6
589.0;457.1;;;;;;;;;;;;;;;;;28.550066;58.156834;-62.696465;;387.2
589.0;457.1;;;;;;;;;;;;;;-0.31373027;-0.60139775;-0.03302103;;;;;387.2
589.0;457.1;;;;;;;;;;;;;;;;;24.826807;67.97616;-58.545948;;387.2
589.0;457.1;;;;;;;;;;;;;;-0.31391338;-0.6012757;-0.014343699;;;;;387.2
589.0;457.1;;;;;;;;;;;;;;;;;21.298105;74.98398;-54.933315;;396.9
589.0;457.1;;;;;;;;;;;;;;-0.32544938;-0.6099429;-0.0112918485;;;;;396.9
589.0;457.1;;;;;;;;;;;;;;;;;19.554733;78.78353;-51.389355;;396.9
589.0;457.1;;;;;;;;;;;;;;-0.34748375;-0.6054262;-0.0038453322;;;;;396.9
589.0;515.7;;;;;;;;;;;;;;;;;19.520401;80.29038;-48.123875;;406.5
589.0;515.7;;;;;;;;;;;;;;-0.35480818;-0.6021912;0.006714072;;;;;406.5
589.0;515.7;;;;;;;;;;;;;;;;;19.436476;80.22935;-44.709614;;406.5
589.0;515.7;;;;;;;;;;;;;;-0.37391278;-0.5916318;0.0126957;;;;;406.5
589.0;515.7;;;;;;;;;;;;;;;;;19.230476;78.01294;-41.058838;;416.1
589.0;515.7;;;;;;;;;;;;;;-0.37092197;-0.5971862;0.015808588;;;;;416.1
589.0;515.7;;;;;;;;;;;;;;;;;18.215734;75.62487;-37.01895;;416.1
589.0;515.7;;;;;;;;;;;;;;-0.38709676;-0.57490766;0.022034364;;;;;416.1
589.0;515.7;;;;;;;;;;;;;;;;;14.881589;73.75179;-32.34962;;425.7
589.0;515.7;;;;;;;;;;;;;;-0.3833125;-0.5805231;0.01208533;;;;;425.7
589.0;515.7;;;;;;;;;;;;;;;;;10.914183;73.55342;-26.692251;;425.7
589.0;515.7;;;;;;;;;;;;;;-0.39692372;-0.57600635;0.010803552;;;;;425.7
646.0;516.9;;;;;;;;;;;;;;;;;6.5424056;73.82046;-19.665363;;435.4
646.0;516.9;;;;;;;;;;;;;;-0.4231086;-0.5619068;0.0080568865;;;;;435.4
646.0;516.9;;;;;;;;;;;;;;;;;1.6441847;73.62591;-11.67333;;435.4
646.0;516.9;;;;;;;;;;;;;;-0.4295175;-0.5680105;0.003967406;;;;;435.4
646.0;516.9;;;;;;;;;;;;;;;;;-3.357036;73.09183;-3.131962;;445.0
646.0;516.9;;;;;;;;;;;;;;-0.47492903;-0.57289344;0.003234962;;;;;445.0
646.0;516.9;;;;;;;;;;;;;;;;;-7.8852196;70.856346;5.3140354;;445.0
646.0;516.9;;;;;;;;;;;;;;-0.43751335;-0.53547776;-0.008362072;;;;;445.0
646.0;516.9;;;;;;;;;;;;;;;;;-14.191107;70.66179;13.71044;;454.7
646.0;516.9;;;;;;;;;;;;;;-0.4596698;-0.54713583;-0.022339549;;;;;454.7
646.0;516.9;;;;;;;;;;;;;;;;;-18.42555;69.79583;21.694845;;454.7
646.0;516.9;;;;;;;;;;;;;;-0.44380015;-0.50160223;-0.057374798;;;;;454.7
646.0;575.9;;;;;;;;;;;;;;;;;-23.205511;71.085236;30.331583;;464.4
646.0;575.9;;;;;;;;;;;;;;-0.47773674;-0.5617237;-0.05938902;;;;;464.4
646.0;575.9;;;;;;;;;;;;;;;;;-24.796288;69.20834;39.5291;;464.4
646.0;575.9;;;;;;;;;;;;;;-0.58900726;-0.64546645;-0.07586902;;;;;464.4
646.0;575.9;;;;;;;;;;;;;;;;;-13.470107;55.120243;46.03717;;474.0
646.0;575.9;;;;;;;;;;;;;;-0.60603654;-0.5877865;-0.15033418;;;;;474.0
646.0;575.9;;;;;;;;;;;;;;;;;0.82018495;40.68117;49.436172;;474.0
646.0;575.9;;;;;;;;;;;;;;-0.58107245;-0.5122837;-0.17511521;;;;;474.0
646.0;575.9;;;;;;;;;;;;;;;;;7.126072;34.03195;52.7398;;483.6
646.0;575.9;;;;;;;;;;;;;;-0.5241859;-0.45649585;-0.115970336;;;;;483.6
646.0;575.9;;;;;;;;;;;;;;;;;3.276925;37.850582;57.222206;;483.6
646.0;575.9;;;;;;;;;;;;;;-0.4937895;-0.4528947;0.003357036;;;;;483.6
711.0;576.7;;;;;;;;;;;;;;;;;-4.013184;45.453503;61.63213;;493.3
711.0;576.7;;;;;;;;;;;;;;-0.49385053;-0.5024567;0.10187078;;;;;493.3
711.0;576.7;;;;;;;;;;;;;;;;;-6.7560353;48.91736;64.947205;;493.3
711.0;576.7;;;;;;;;;;;;;;-0.501236;-0.5694754;0.14685507;;;;;493.3
711.0;576.7;;;;;;;;;;;;;;;;;-2.8496659;46.159245;66.71346;;502.9
711.0;576.7;;;;;;;;;;;;;;-0.4953154;-0.62587357;0.156621;;;;;502.9
711.0;576.7;;;;;;;;;;;;;;;;;2.1591845;39.838097;66.690575;;502.9
711.0;576.7;;;;;;;;;;;;;;-0.4680929;-0.68007445;0.14850307;;;;;502.9
711.0;576.7;;;;;;;;;;;;;;;;;4.280221;32.98288;65.67965;;512.6
711.0;576.7;;;;;;;;;;;;;;-0.41987365;-0.7514878;0.12988678;;;;;512.6
711.0;576.7;;;;;;;;;;;;;;;;;2.6703696;28.527176;63.718834;;512.6
711.0;576.7;;;;;;;;;;;;;;-0.3696402;-0.8437147;0.12903225;;;;;512.6
711.0;636.3;;;;;;;;;;;;;;;;;-1.9684439;25.81103;60.22446;;522.2
711.0;636.3;;;;;;;;;;;;;;-0.2862636;-0.9823298;0.14636678;;;;;522.2
711.0;636.3;;;;;;;;;;;;;;;;;-7.248146;25.917845;55.68865;;522.2
711.0;636.3;;;;;;;;;;;;;;-0.20654927;-1.1169164;0.17358929;;;;;522.2
711.0;636.3;;;;;;;;;;;;;;;;;-13.61507;28.225805;50.477615;;531.9
711.0;636.3;;;;;;;;;;;;;;-0.11694693;-1.271218;0.17694631;;;;;531.9
711.0;636.3;;;;;;;;;;;;;;;;;-20.607624;32.338177;44.86221;;531.9
711.0;636.3;;;;;;;;;;;;;;-0.019470809;-1.4401075;0.14893033;;;;;531.9
711.0;636.3;;;;;;;;;;;;;;;;;-28.695028;36.206398;38.605915;;541.5
711.0;636.3;;;;;;;;;;;;;;0.0971099;-1.6188848;0.074648276;;;;;541.5
711.0;636.3;;;;;;;;;;;;;;;;;-35.18021;38.42662;31.029694;;541.5
711.0;636.3;;;;;;;;;;;;;;0.20404676;-1.7744682;0.0077517014;;;;;541.5
768.0;637.4;;;;;;;;;;;;;;;;;-41.001617;36.465805;21.877956;;551.2
768.0;637.4;;;;;;;;;;;;;;0.31330302;-1.8840296;-0.067201756;;;;;551.2
768.0;637.4;;;;;;;;;;;;;;;;;-44.392986;31.174658;11.223182;;551.2
768.0;637.4;;;;;;;;;;;;;;0.4021119;-1.9119235;-0.08966338;;;;;551.2
768.0;637.4;;;;;;;;;;;;;;;;;-46.658985;23.506882;0.11444441;;560.9
768.0;637.4;;;;;;;;;;;;;;0.45997497;-1.8733482;-0.057435837;;;;;560.9
768.0;637.4;;;;;;;;;;;;;;;;;-47.04428;15.236365;-10.597552;;560.9
768.0;637.4;;;;;;;;;;;;;;0.4647969;-1.790582;0.023987548;;;;;560.9
768.0;637.4;;;;;;;;;;;;;;;;;-43.877987;7.194739;-19.497513;;570.4
768.0;637.4;;;;;;;;;;;;;;0.43836787;-1.678396;0.11487167;;;;;570.4
768.0;637.4;;;;;;;;;;;;;;;;;-36.52684;0.8507035;-26.570177;;570.4
768.0;637.4;;;;;;;;;;;;;;0.3914304;-1.561449;0.20459609;;;;;570.4
768.0;696.6;;;;;;;;;;;;;;;;;-26.478622;-1.575518;-31.270027;;580.1
768.0;696.6;;;;;;;;;;;;;;0.32673118;-1.4514604;0.26142156;;;;;580.1
768.0;696.6;;;;;;;;;;;;;;;;;-16.52196;1.0338145;-33.95947;;580.1
768.0;696.6;;;;;;;;;;;;;;0.24225593;-1.3424482;0.28284556;;;;;580.1
768.0;696.6;;;;;;;;;;;;;;;;;-8.606219;6.6034427;-35.855434;;589.8
768.0;696.6;;;;;;;;;;;;;;0.13599049;-1.2338023;0.24860378;;;;;589.8
768.0;696.6;;;;;;;;;;;;;;;;;-3.2197027;13.882107;-36.702324;;589.8
768.0;696.6;;;;;;;;;;;;;;0.013428144;-1.1313212;0.13739432;;;;;589.8
768.0;696.6;;;;;;;;;;;;;;;;;-0.8087405;23.667105;-36.328472;;599.4
768.0;696.6;;;;;;;;;;;;;;-0.1345256;-1.0303049;0.024048585;;;;;599.4
768.0;696.6;;;;;;;;;;;;;;;;;-1.2550737;31.926178;-33.81451;;599.4
768.0;696.6;;;;;;;;;;;;;;-0.33698538;-0.97634816;0.012756737;;;;;599.4
828.0;697.4;;;;;;;;;;;;;;;;;-8.751183;33.787807;-28.06177;;609.1
828.0;697.4;;;;;;;;;;;;;;-0.5456099;-1.0508133;0.032654807;;;;;609.1
828.0;697.4;;;;;;;;;;;;;;;;;-35.56169;39.017914;-19.890438;;609.1
828.0;697.4;;;;;;;;;;;;;;-0.72145754;-1.2851955;-0.19141209;;;;;609.1
828.0;697.4;;;;;;;;;;;;;;;;;-77.486496;57.199318;-13.992737;;618.7
828.0;697.4;;;;;;;;;;;;;;-0.95541245;-1.563097;-0.5406659;;;;;618.7
828.0;697.4;;;;;;;;;;;;;;;;;-89.11023;52.110355;-3.7766654;;618.7
828.0;697.4;;;;;;;;;;;;;;-1.2381359;-1.6332896;-0.6222114;;;;;618.7
828.0;697.4;;;;;;;;;;;;;;;;;-59.4348;6.76748;12.104404;;628.3
828.0;697.4;;;;;;;;;;;;;;-1.4250313;-1.5125583;-0.4085818;;;;;628.3
828.0;697.4;;;;;;;;;;;;;;;;;-29.40077;-20.26429;26.95929;;628.3
828.0;697.4;;;;;;;;;;;;;;-1.4891201;-1.2652974;-0.16321298;;;;;628.3
828.0;711.6;;;;;;;;;;;;;;;;;-16.678366;-18.715477;37.503433;;637.9
828.0;711.6;;;;;;;;;;;;;;-1.300882;-1.0016174;-0.11493271;;;;;637.9
828.0;711.6;;;;;;;;;;;;;;;;;-6.8819237;-5.916776;44.22132;;637.9
828.0;711.6;;;;;;;;;;;;;;-1.2090824;-0.89059114;-0.12500381;;;;;637.9
828.0;711.6;;;;;;;;;;;;;;;;;8.960998;8.438369;47.357098;;647.5
828.0;711.6;;;;;;;;;;;;;;-1.1285135;-0.8271737;-0.09601123;;;;;647.5
828.0;711.6;;;;;;;;;;;;;;;;;25.101473;18.272957;46.13254;;647.5
828.0;711.6;;;;;;;;;;;;;;-1.0147405;-0.7578356;-0.049012728;;;;;647.5
828.0;711.6;;;;;;;;;;;;;;;;;34.092987;21.83981;42.08121;;657.2
828.0;711.6;;;;;;;;;;;;;;-0.934843;-0.70278025;-0.0046388134;;;;;657.2
828.0;711.6;;;;;;;;;;;;;;;;;38.377026;17.685476;38.224434;;657.2
828.0;711.6;;;;;;;;;;;;;;-0.8659932;-0.61952573;0.04119999;;;;;657.2
893.0;756.8;;;;;;;;;;;;;;;;;40.82232;8.167517;35.397655;;666.9
893.0;756.8;;;;;;;;;;;;;;-0.7514878;-0.54915005;0.065858945;;;;;666.9
893.0;756.8;;;;;;;;;;;;;;;;;40.94058;-0.32807398;33.276623;;666.9
893.0;756.8;;;;;;;;;;;;;;-0.62746054;-0.49092075;0.1032136;;;;;666.9
893.0;756.8;;;;;;;;;;;;;;;;;33.627583;-4.570147;30.735954;;676.5
893.0;756.8;;;;;;;;;;;;;;-0.5559252;-0.42921233;0.122318186;;;;;676.5
893.0;756.8;;;;;;;;;;;;;;;;;17.162846;-4.776147;29.095585;;676.5
893.0;756.8;;;;;;;;;;;;;;-0.5598926;-0.40852076;0.10632649;;;;;676.5
893.0;756.8;;;;;;;;;;;;;;;;;-3.7919247;-5.115665;29.774622;;686.2
893.0;756.8;;;;;;;;;;;;;;-0.610065;-0.4312876;0.058900725;;;;;686.2
893.0;756.8;;;;;;;;;;;;;;;;;-22.766808;-7.2786646;33.48262;;686.2
893.0;756.8;;;;;;;;;;;;;;-0.68282115;-0.47901854;0.009765923;;;;;686.2
893.0;771.9;;;;;;;;;;;;;;;;;-37.530136;-11.265144;40.1738;;695.8
893.0;771.9;;;;;;;;;;;;;;-0.75423443;-0.5463424;-0.031678215;;;;;695.8
893.0;771.9;;;;;;;;;;;;;;;;;-47.475357;-15.930662;49.043247;;695.8
893.0;771.9;;;;;;;;;;;;;;-0.80056155;-0.6169622;-0.07580798;;;;;695.8
893.0;771.9;;;;;;;;;;;;;;;;;-52.64443;-20.458845;59.362316;;705.4
893.0;771.9;;;;;;;;;;;;;;-0.81923884;-0.656209;-0.12555315;;;;;705.4
893.0;771.9;;;;;;;;;;;;;;;;;-53.96817;-24.872585;69.70809;;705.4
893.0;771.9;;;;;;;;;;;;;;-0.8131962;-0.6567583;-0.18494217;;;;;705.4
893.0;771.9;;;;;;;;;;;;;;;;;-51.59154;-28.233437;79.54649;;715.0
893.0;771.9;;;;;;;;;;;;;;-0.7922605;-0.62862027;-0.2592242;;;;;715.0
893.0;771.9;;;;;;;;;;;;;;;;;-45.75106;-29.953917;89.12167;;715.0
893.0;771.9;;;;;;;;;;;;;;-0.76070434;-0.59450054;-0.33112583;;;;;715.0
951.0;817.1;;;;;;;;;;;;;;;;;-38.361767;-29.90051;98.17042;;724.6
951.0;817.1;;;;;;;;;;;;;;-0.74288154;-0.5831477;-0.37769708;;;;;724.6
951.0;817.1;;;;;;;;;;;;;;;;;-31.735435;-28.191473;105.117195;;724.6
951.0;817.1;;;;;;;;;;;;;;-0.72115237;-0.58857995;-0.37244788;;;;;724.6
951.0;817.1;;;;;;;;;;;;;;;;;-26.604511;-26.306955;109.55382;;734.3
951.0;817.1;;;;;;;;;;;;;;-0.68330944;-0.6098819;-0.34107485;;;;;734.3
951.0;817.1;;;;;;;;;;;;;;;;;-22.133549;-23.13303;111.50319;;734.3
951.0;817.1;;;;;;;;;;;;;;-0.6504105;-0.64259773;-0.29566333;;;;;734.3
951.0;817.1;;;;;;;;;;;;;;;;;-18.292032;-18.21192;111.05304;;743.9
951.0;817.1;;;;;;;;;;;;;;-0.61958677;-0.6816614;-0.2565386;;;;;743.9
951.0;817.1;;;;;;;;;;;;;;;;;-15.747551;-11.322367;109.30205;;743.9
951.0;817.1;;;;;;;;;;;;;;-0.5917539;-0.7335429;-0.23523667;;;;;743.9
951.0;832.1;;;;;;;;;;;;;;;;;-15.293588;-3.8529618;104.77767;;753.5
951.0;832.1;;;;;;;;;;;;;;-0.5400556;-0.791406;-0.24579607;;;;;753.5
951.0;832.1;;;;;;;;;;;;;;;;;-16.399885;4.387036;98.807495;;753.5
951.0;832.1;;;;;;;;;;;;;;-0.47511217;-0.8483535;-0.27564317;;;;;753.5
951.0;832.1;;;;;;;;;;;;;;;;;-19.123661;12.627033;91.74627;;763.2
951.0;832.1;;;;;;;;;;;;;;-0.41181678;-0.9096347;-0.32197028;;;;;763.2
951.0;832.1;;;;;;;;;;;;;;;;;-21.988586;19.669178;83.14005;;763.2
951.0;832.1;;;;;;;;;;;;;;-0.34546953;-0.9655446;-0.37488937;;;;;763.2
951.0;832.1;;;;;;;;;;;;;;;;;-23.384808;24.59029;75.02594;;772.7
951.0;832.1;;;;;;;;;;;;;;-0.28510392;-1.0182806;-0.43043306;;;;;772.7
951.0;832.1;;;;;;;;;;;;;;;;;-20.523697;28.199102;69.90264;;772.7
951.0;832.1;;;;;;;;;;;;;;-0.2478103;-1.0505081;-0.45844904;;;;;772.7
1008.0;877.3;;;;;;;;;;;;;;;;;-14.4047365;30.285805;66.36632;;782.3
1008.0;877.3;;;;;;;;;;;;;;-0.22211371;-1.0538042;-0.44935453;;;;;782.3
1008.0;877.3;;;;;;;;;;;;;;;;;-7.9462566;31.945251;64.25291;;782.3
1008.0;877.3;;;;;;;;;;;;;;-0.21845149;-1.0378735;-0.40931424;;;;;782.3
1008.0;877.3;;;;;;;;;;;;;;;;;-2.8801844;33.692436;63.615837;;791.9
1008.0;877.3;;;;;;;;;;;;;;-0.21893978;-1.0099186;-0.36561173;;;;;791.9
1008.0;877.3;;;;;;;;;;;;;;;;;0.7477035;36.8511;64.27961;;791.9
1008.0;877.3;;;;;;;;;;;;;;-0.23187964;-0.96877956;-0.3272805;;;;;791.9
1008.0;877.3;;;;;;;;;;;;;;;;;3.2731102;41.03595;65.961945;;801.5
1008.0;877.3;;;;;;;;;;;;;;-0.25452438;-0.92818993;-0.3043306;;;;;801.5
1008.0;877.3;;;;;;;;;;;;;;;;;4.7036653;44.923244;68.31568;;801.5
1008.0;877.3;;;;;;;;;;;;;;-0.28351694;-0.8894314;-0.29224524;;;;;801.5
1008.0;892.7;;;;;;;;;;;;;;;;;4.3565173;48.71517;71.12338;;811.1
1008.0;892.7;;;;;;;;;;;;;;-0.32013917;-0.8523209;-0.29047516;;;;;811.1
1008.0;892.7;;;;;;;;;;;;;;;;;2.2850735;51.633503;74.11039;;811.1
1008.0;892.7;;;;;;;;;;;;;;-0.3624378;-0.8192999;-0.3010956;;;;;811.1
1008.0;892.7;;;;;;;;;;;;;;;;;-0.022888882;53.2815;76.72353;;820.7
1008.0;892.7;;;;;;;;;;;;;;-0.37775812;-0.8135014;-0.3208106;;;;;820.7
1008.0;892.7;;;;;;;;;;;;;;;;;-0.90792567;53.79269;79.096344;;820.7
1008.0;892.7;;;;;;;;;;;;;;-0.40253913;-0.7936033;-0.33533737;;;;;820.7
1008.0;892.7;;;;;;;;;;;;;;;;;-0.46540728;52.922913;81.30512;;830.3
1008.0;892.7;;;;;;;;;;;;;;-0.44123662;-0.7644276;-0.3342387;;;;;830.3
1008.0;892.7;;;;;;;;;;;;;;;;;0.4196295;50.565353;82.781456;;830.3
1008.0;892.7;;;;;;;;;;;;;;-0.4611957;-0.74764246;-0.32166508;;;;;830.3
1128.0;937.5;;;;;;;;;;;;;;;;;1.1749626;48.22306;83.56731;;839.9
1128.0;937.5;;;;;;;;;;;;;;-0.47871333;-0.73482466;-0.2989593;;;;;839.9
1128.0;937.5;;;;;;;;;;;;;;;;;0.8964812;46.75054;83.55586;;839.9
1128.0;937.5;;;;;;;;;;;;;;-0.48896757;-0.7349467;-0.27802363;;;;;839.9
1128.0;937.5;;;;;;;;;;;;;;;;;-0.37766656;46.414837;82.76238;;849.5
1128.0;937.5;;;;;;;;;;;;;;-0.5047151;-0.73879206;-0.25049594;;;;;849.5
1128.0;937.5;;;;;;;;;;;;;;;;;-2.5406659;46.231728;81.274605;;849.5
1128.0;937.5;;;;;;;;;;;;;;-0.5199133;-0.7563097;-0.22486039;;;;;849.5
1128.0;937.5;;;;;;;;;;;;;;;;;-4.7799616;46.38432;78.86364;;859.1
1128.0;937.5;;;;;;;;;;;;;;-0.5303507;-0.7730949;-0.20130008;;;;;859.1
1128.0;937.5;;;;;;;;;;;;;;;;;-7.3206277;46.02954;75.83469;;859.1
1128.0;937.5;;;;;;;;;;;;;;-0.54322946;-0.7889035;-0.18591876;;;;;859.1
1128.0;944.9;;;;;;;;;;;;;;;;;-10.010071;44.133583;72.54631;;868.7
1128.0;944.9;;;;;;;;;;;;;;-0.5489059;-0.80452895;-0.16644795;;;;;868.7
1128.0;944.9;;;;;;;;;;;;;;;;;-12.256997;40.608692;69.14349;;868.7
1128.0;944.9;;;;;;;;;;;;;;-0.54988253;-0.8175909;-0.14539018;;;;;868.7
1128.0;944.9;;;;;;;;;;;;;;;;;-13.775291;36.713768;66.00772;;878.3
1128.0;944.9;;;;;;;;;;;;;;-0.54072696;-0.83010346;-0.13507493;;;;;878.3
1128.0;944.9;;;;;;;;;;;;;;;;;-14.618366;33.715324;63.024536;;878.3
1128.0;944.9;;;;;;;;;;;;;;-0.535905;-0.83419293;-0.13208412;;;;;878.3
1128.0;944.9;;;;;;;;;;;;;;;;;-15.430922;32.113102;60.567795;;887.9
1128.0;944.9;;;;;;;;;;;;;;-0.5305338;-0.8443861;-0.13135166;;;;;887.9
1128.0;944.9;;;;;;;;;;;;;;;;;-15.95355;31.868954;58.57265;;887.9
1128.0;944.9;;;;;;;;;;;;;;-0.5296182;-0.85634935;-0.13672292;;;;;887.9
1130.0;997.9;;;;;;;;;;;;;;;;;-15.942106;32.437363;57.195503;;897.5
1130.0;997.9;;;;;;;;;;;;;;-0.53242594;-0.8669088;-0.143437;;;;;897.5
1130.0;997.9;;;;;;;;;;;;;;;;;-15.156255;32.88751;56.321907;;897.5
1130.0;997.9;;;;;;;;;;;;;;-0.53852963;-0.8779565;-0.15625477;;;;;897.5
1130.0;997.9;;;;;;;;;;;;;;;;;-13.569293;33.360546;55.661945;;907.1
1130.0;997.9;;;;;;;;;;;;;;-0.54573196;-0.88125247;-0.17175817;;;;;907.1
1130.0;997.9;;;;;;;;;;;;;;;;;-11.131626;33.673363;55.368206;;907.1
1130.0;997.9;;;;;;;;;;;;;;-0.5485397;-0.87923825;-0.18726158;;;;;907.1
1130.0;997.9;;;;;;;;;;;;;;;;;-7.976775;33.932766;54.975277;;916.5
1130.0;997.9;;;;;;;;;;;;;;-0.56050295;-0.8644673;-0.1942198;;;;;916.5
1130.0;997.9;;;;;;;;;;;;;;;;;-4.463332;34.035767;54.124577;;916.5
1130.0;997.9;;;;;;;;;;;;;;-0.5665456;-0.8503677;-0.20307016;;;;;916.5
1130.0;1005.8;;;;;;;;;;;;;;;;;-1.0299997;33.8641;52.709282;;926.2
1130.0;1005.8;;;;;;;;;;;;;;-0.57655567;-0.82931;-0.20801416;;;;;926.2
1130.0;1005.8;;;;;;;;;;;;;;;;;1.3885921;33.875546;50.96591;;926.2
1130.0;1005.8;;;;;;;;;;;;;;-0.5825373;-0.81624806;-0.2238838;;;;;926.2
1130.0;1005.8;;;;;;;;;;;;;;;;;2.9450362;34.18073;49.207283;;935.8
1130.0;1005.8;;;;;;;;;;;;;;-0.5899228;-0.8044069;-0.24329355;;;;;935.8
1130.0;1005.8;;;;;;;;;;;;;;;;;3.5248878;34.627064;47.47917;;935.8
1130.0;1005.8;;;;;;;;;;;;;;-0.59614855;-0.799707;-0.26105532;;;;;935.8
1130.0;1005.8;;;;;;;;;;;;;;;;;3.6698508;34.661396;45.93417;;945.5
1130.0;1005.8;;;;;;;;;;;;;;-0.59907836;-0.80111086;-0.27069917;;;;;945.5
1130.0;1005.8;;;;;;;;;;;;;;;;;3.6355176;33.459732;44.79354;;945.5
1130.0;1005.8;;;;;;;;;;;;;;-0.59993285;-0.8020875;-0.27692497;;;;;945.5
1187.0;1058.2;;;;;;;;;;;;;;;;;2.97174;31.609547;44.206062;;955.1
1187.0;1058.2;;;;;;;;;;;;;;-0.59401226;-0.80489516;-0.28315073;;;;;955.1
1187.0;1058.2;;;;;;;;;;;;;;;;;1.6365551;29.095585;43.99243;;955.1
1187.0;1058.2;;;;;;;;;;;;;;-0.59169286;-0.80471206;-0.29285562;;;;;955.1
1187.0;1058.2;;;;;;;;;;;;;;;;;0.12588885;26.64266;44.21369;;964.7
1187.0;1058.2;;;;;;;;;;;;;;-0.5926694;-0.8028199;-0.29816583;;;;;964.7
1187.0;1058.2;;;;;;;;;;;;;;;;;-1.4687033;24.571217;44.69054;;964.7
1187.0;1058.2;;;;;;;;;;;;;;-0.59364605;-0.7993408;-0.30317086;;;;;964.7
1187.0;1058.2;;;;;;;;;;;;;;;;;-3.0861845;22.679068;44.972836;;974.2
1187.0;1058.2;;;;;;;;;;;;;;-0.598529;-0.7943358;-0.30310982;;;;;974.2
1187.0;1058.2;;;;;;;;;;;;;;;;;-4.4175544;21.076845;45.24369;;974.2
1187.0;1058.2;;;;;;;;;;;;;;-0.60896635;-0.786462;-0.29584643;;;;;974.2
1187.0;1065.7;;;;;;;;;;;;;;;;;-5.6573687;19.783623;45.41154;;983.8
1187.0;1065.7;;;;;;;;;;;;;;-0.62031925;-0.77932066;-0.28418836;;;;;983.8
1187.0;1065.7;;;;;;;;;;;;;;;;;-7.0307016;18.509476;45.541245;;983.8
1187.0;1065.7;;;;;;;;;;;;;;-0.6301462;-0.7762688;-0.26880702;;;;;983.8
1187.0;1065.7;;;;;;;;;;;;;;;;;-8.190405;17.422253;45.47258;;993.5
1187.0;1065.7;;;;;;;;;;;;;;-0.6342967;-0.7767571;-0.24951933;;;;;993.5
1187.0;1065.7;;;;;;;;;;;;;;;;;-9.094516;15.491959;45.506912;;993.5
1187.0;1065.7;;;;;;;;;;;;;;-0.6301462;-0.78347117;-0.23242897;;;;;993.5
1187.0;1065.7;;;;;;;;;;;;;;;;;-10.044404;14.110995;45.232246;;1003.2
1187.0;1065.7;;;;;;;;;;;;;;-0.6227607;-0.79824215;-0.21655935;;;;;1003.2
1187.0;1065.7;;;;;;;;;;;;;;;;;-11.009553;12.825403;44.949947;;1003.2
1187.0;1065.7;;;;;;;;;;;;;;-0.6025575;-0.82418287;-0.21210364;;;;;1003.2
1247.0;1129.8;;;;0.0;0.0;0.0;;;;;;;;;;;;;;;
1247.0;1129.8;;;;-0.04921723;0.3321953;-0.02145386;;;;;;;;;;;;;;;
1247.0;1129.8;;;;0.006210328;0.9899751;-0.18299104;;;;;;;;;;;;;;;
1247.0;1129.8;;;;0.012886049;1.0044824;-0.20378497;;;;;;;;;;;;;;;
1247.0;1129.8;;;;0.0021362307;0.99380124;-0.19723514;;;;;;;;;;;;;;;
1247.0;1139.7;;;;-0.015857698;0.98402417;-0.197876;;;;;;;;;;;;;;;
1247.0;1139.7;;;;-0.02411652;0.9680635;-0.19563296;;;;;;;;;;;;;;;
1247.0;1139.7;;;;-0.026832584;0.9583703;-0.19573978;;;;;;;;;;;;;;;
1247.0;1139.7;;;;-0.037750248;0.9500772;-0.19417194;;;;;;;;;;;;;;;
1247.0;1139.7;;;;-0.038379673;0.94282925;-0.18831256;;;;;;;;;;;;;;;
1247.0;1141.1;57491;57507;13540;;;;;;;;;;;;;;;;;;
1247.0;1149.7;;;;-0.04988099;0.933159;-0.19458774;;;;;;;;;;;;;;;
1247.0;1149.7;;;;-0.055755623;0.92743313;-0.19494632;;;;;;;;;;;;;;;
1247.0;1149.7;;;;-0.06596375;0.9185525;-0.21973804;;;;;;;;;;;;;;;
1247.0;1149.7;;;;-0.08084489;0.8984338;-0.2516022;;;;;;;;;;;;;;;
1247.0;1149.7;;;;-0.1540909;0.863083;-0.25907138;;;;;;;;;;;;;;;
1250.0;1159.8;;;;-0.1444092;0.86558926;-0.23295978;;;;;;;;;;;;;;;
1250.0;1159.8;;;;-0.056957252;0.8638307;-0.30752948;;;;;;;;;;;;;;;
1250.0;1159.8;;;;-0.1988335;0.8992921;-0.18851855;;;;;;;;;;;;;;;
1250.0;1159.8;;;;-0.11780931;0.8921319;-0.17140199;;;;;;;;;;;;;;;
1250.0;1159.8;;;;-0.21246722;0.87949383;-0.10064699;;;;;;;;;;;;;;;
1250.0;1161.2;73873;73928;13555;;;;;;;;;;;;;;;;;;
1250.0;1167.6;;;;;;;;;;;;;0;;;;;;;;
1250.0;1167.6;;;;;;;;;;;;;0;;;;;;;;
1250.0;1167.6;;;;;;;;;;;;;-1;;;;;;;;
1250.0;1167.6;;;;;;;;;;;;;-2;;;;;;;;
1250.0;1167.6;;;;;;;;;;;;;-1;;;;;;;;
1250.0;1169.9;;;;-0.13861085;0.99582684;-0.20190051;;;;;;;;;;;;;;;
1250.0;1169.9;;;;-0.112346664;1.0667382;-0.23793414;;;;;;;;;;;;;;;
1250.0;1169.9;;;;-0.10614778;1.0236169;-0.21824649;;;;;;;;;;;;;;;
1250.0;1169.9;;;;-0.14129259;1.1180192;-0.18231966;;;;;;;;;;;;;;;
1250.0;1169.9;;;;0.1891785;1.3913728;-0.22986224;;;;;;;;;;;;;;;
1250.0;1180.0;;;;-0.07305146;1.1635934;-0.13650514;;;;;;;;;;;;;;;
1250.0;1180.0;;;;-0.2068825;1.0941545;-0.19238284;;;;;;;;;;;;;;;
1250.0;1180.0;;;;-0.17672731;1.1123163;-0.24953464;;;;;;;;;;;;;;;
1250.0;1180.0;;;;-0.17412569;1.1133729;-0.2296448;;;;;;;;;;;;;;;
1250.0;1180.0;;;;-0.18028261;1.1076547;-0.22518542;;;;;;;;;;;;;;;
1250.0;1181.5;90313;90090;13535;;;;;;;;;;;;;;;;;;
1309.0;1190.1;;;;-0.18890384;1.1018678;-0.22015002;;;;;;;;;;;;;;;
1309.0;1190.1;;;;-0.200367;1.0952493;-0.21215442;;;;;;;;;;;;;;;
1309.0;1190.1;;;;-0.20928958;1.0875741;-0.20866016;;;;;;;;;;;;;;;
1309.0;1190.1;;;;-0.2178345;1.0752298;-0.20520785;;;;;;;;;;;;;;;
1309.0;1190.1;;;;-0.22477344;1.0601388;-0.19952396;;;;;;;;;;;;;;;
1309.0;1194.2;;;;;;;;;;;;;;;;;-11.539811;12.058626;44.52269;;1012.7
1309.0;1194.2;;;;;;;;;;;;;;-0.57490766;-0.8543351;-0.20868556;;;;;1012.7
1309.0;1194.2;;;;;;;;;;;;;;;;;-11.135441;11.616108;43.717766;;1012.7
1309.0;1194.2;;;;;;;;;;;;;;-0.54866177;-0.88338876;-0.20117801;;;;;1012.7
1309.0;1194.2;;;;;;;;;;;;;;;;;-10.193182;10.708182;42.92047;;1022.4
1309.0;1194.2;;;;;;;;;;;;;;-0.522599;-0.9165929;-0.19055757;;;;;1022.4
1309.0;1194.2;;;;;;;;;;;;;;;;;-8.930479;9.380627;41.844692;;1022.4
1309.0;1194.2;;;;;;;;;;;;;;-0.50068665;-0.94534135;-0.17523728;;;;;1022.4
1309.0;1194.2;;;;;;;;;;;;;;;;;-7.6258125;6.981109;40.612507;;1032.1
1309.0;1194.2;;;;;;;;;;;;;;-0.48072755;-0.97451705;-0.15198217;;;;;1032.1
1309.0;1194.2;;;;;;;;;;;;;;;;;-6.740776;3.7690358;39.41847;;1032.1
1309.0;1194.2;;;;;;;;;;;;;;-0.46058536;-1.002411;-0.12500381;;;;;1032.1
1309.0;1200.1;;;;-0.23062518;1.0412904;-0.19133762;;;;;;;;;;;;;;;
1309.0;1200.1;;;;-0.23134235;1.024582;-0.17325975;;;;;;;;;;;;;;;
1309.0;1200.1;;;;-0.22692874;1.0079423;-0.14353563;;;;;;;;;;;;;;;
1309.0;1200.1;;;;-0.24214175;0.97846234;-0.15303423;;;;;;;;;;;;;;;
1309.0;1200.1;;;;-0.25220874;0.9512712;-0.15867616;;;;;;;;;;;;;;;
1309.0;1201.6;106586;106599;13541;;;;;;;;;;;;;;;;;;
1311.0;1207.9;;;;;;;;;;;;;-27;;;;;;;;
1311.0;1207.9;;;;;;;;;;;;;11;;;;;;;;
1311.0;1207.9;;;;;;;;;;;;;30;;;;;;;;
1311.0;1207.9;;;;;;;;;;;;;-127;;;;;;;;
1311.0;1207.9;;;;;;;;;;;;;-5;;;;;;;;
1311.0;1210.0;;;;-0.25109866;0.929104;-0.15726472;;;;;;;;;;;;;;;
1311.0;1210.0;;;;-0.25316623;0.90519726;-0.1548958;;;;;;;;;;;;;;;
1311.0;1210.0;;;;-0.25220874;0.88318264;-0.14702989;;;;;;;;;;;;;;;
1311.0;1210.0;;;;-0.25199893;0.8620988;-0.13964845;;;;;;;;;;;;;;;
1311.0;1210.0;;;;-0.25218204;0.8436929;-0.13227464;;;;;;;;;;;;;;;
1311.0;1220.2;;;;-0.2536774;0.8267976;-0.12568666;;;;;;;;;;;;;;;
1311.0;1220.2;;;;-0.25432208;0.81141293;-0.11688997;;;;;;;;;;;;;;;
1311.0;1220.2;;;;-0.25350955;0.7979547;-0.107791916;;;;;;;;;;;;;;;
1311.0;1220.2;;;;-0.25236133;0.78489316;-0.10050966;;;;;;;;;;;;;;;
1311.0;1220.2;;;;-0.2539406;0.77336895;-0.092075355;;;;;;;;;;;;;;;
1311.0;1221.7;123141;123088;13552;;;;;;;;;;;;;;;;;;
1311.0;1230.3;;;;-0.2554436;0.76208127;-0.08454514;;;;;;;;;;;;;;;
1311.0;1230.3;;;;-0.2560883;0.7507707;-0.07724;;;;;;;;;;;;;;;
1311.0;1230.3;;;;-0.25728992;0.7405129;-0.0708046;;;;;;;;;;;;;;;
1311.0;1230.3;;;;-0.25861362;0.72935873;-0.063781746;;;;;;;;;;;;;;;
1311.0;1230.3;;;;-0.25861743;0.71866614;-0.055500038;;;;;;;;;;;;;;;
1313.0;1240.4;;;;-0.25721362;0.7113648;-0.041240696;;;;;;;;;;;;;;;
1313.0;1240.4;;;;-0.25477985;0.7048302;-0.025413517;;;;;;;;;;;;;;;
1313.0;1240.4;;;;-0.25356677;0.69982916;-0.00940323;;;;;;;;;;;;;;;
1313.0;1240.4;;;;-0.25140384;0.69372565;0.0029449468;;;;;;;;;;;;;;;
1313.0;1240.4;;;;-0.2516785;0.68793875;0.017162325;;;;;;;;;;;;;;;
1313.0;1242.0;139395;139427;13548;;;;;;;;;;;;;;;;;;
1313.0;1247.0;;;;;;;;;;;;;;;;;-5.939665;0.049592577;38.090916;;1041.7
1313.0;1247.0;;;;;;;;;;;;;;-0.44447157;-1.0230415;-0.09582812;;;;;1041.7
1313.0;1247.0;;;;;;;;;;;;;;;;;-5.2529984;-3.9368877;36.43147;;1041.7
1313.0;1247.0;;;;;;;;;;;;;;-0.42609942;-1.0411085;-0.071413316;;;;;1041.7
1313.0;1247.0;;;;;;;;;;;;;;;;;-4.4099245;-7.648701;34.43632;;1051.4
1313.0;1247.0;;;;;;;;;;;;;;-0.408887;-1.0510575;-0.050355542;;;;;1051.4
1313.0;1247.0;;;;;;;;;;;;;;;;;-3.4371471;-10.715812;32.074955;;1051.4
1313.0;1247.0;;;;;;;;;;;;;;-0.394055;-1.0555131;-0.045228433;;;;;1051.4
1313.0;1247.0;;;;;;;;;;;;;;;;;-1.4419996;-12.382885;29.240547;;1061.0
1313.0;1247.0;;;;;;;;;;;;;;-0.37336344;-1.0598468;-0.058534503;;;;;1061.0
1313.0;1247.0;;;;;;;;;;;;;;;;;1.0299997;-12.6957;26.173437;;1061.0
1313.0;1247.0;;;;;;;;;;;;;;-0.36097294;-1.0610676;-0.08630635;;;;;1061.0
1313.0;1248.2;;;;;;;;;;;;;-275;;;;;;;;
1313.0;1248.2;;;;;;;;;;;;;-245;;;;;;;;
1313.0;1248.2;;;;;;;;;;;;;194;;;;;;;;
1313.0;1248.2;;;;;;;;;;;;;-1529;;;;;;;;
1313.0;1248.2;;;;;;;;;;;;;336;;;;;;;;
1369.0;1250.3;;;;-0.2498093;0.6856728;0.03257752;;;;;;;;;;;;;;;
1369.0;1250.3;;;;-0.25400165;0.679432;0.03644562;;;;;;;;;;;;;;;
1369.0;1250.3;;;;-0.31604007;0.6239167;-0.12862016;;;;;;;;;;;;;;;
1369.0;1250.3;;;;-0.32534412;0.61866766;-0.033931736;;;;;;;;;;;;;;;
1369.0;1250.3;;;;-0.2607384;0.63345724;0.0035667424;;;;;;;;;;;;;;;
1369.0;1260.3;;;;-0.26165774;0.6416169;0.035537723;;;;;;;;;;;;;;;
1369.0;1260.3;;;;-0.26715854;0.63205725;0.028579716;;;;;;;;;;;;;;;
1369.0;1260.3;;;;-0.26472095;0.63335043;0.029491428;;;;;;;;;;;;;;;
1369.0;1260.3;;;;-0.25579074;0.64249426;0.034832004;;;;;;;;;;;;;;;
1369.0;1260.3;;;;-0.25704196;0.6430512;0.034984592;;;;;;;;;;;;;;;
1369.0;1262.0;155750;155725;13543;;;;;;;;;;;;;;;;;;
1369.0;1270.2;;;;-0.26780704;0.63857657;0.033039097;;;;;;;;;;;;;;;
1369.0;1270.2;;;;-0.27071002;0.63470465;0.022487642;;;;;;;;;;;;;;;
1369.0;1270.2;;;;-0.25986865;0.635109;0.027175907;;;;;;;;;;;;;;;
1369.0;1270.2;;;;-0.24909213;0.63976294;0.024887089;;;;;;;;;;;;;;;
1369.0;1270.2;;;;-0.23863223;0.6451035;0.024597172;;;;;;;;;;;;;;;
1369.0;1280.3;;;;-0.22946933;0.6496468;0.028495792;;;;;;;;;;;;;;;
1369.0;1280.3;;;;-0.22245029;0.65406424;0.030551914;;;;;;;;;;;;;;;
1369.0;1280.3;;;;-0.22559741;0.6504708;0.018280031;;;;;;;;;;;;;;;
1369.0;1280.3;;;;-0.22348788;0.6483193;0.028820042;;;;;;;;;;;;;;;
1369.0;1280.3;;;;-0.21491244;0.65118414;0.040321354;;;;;;;;;;;;;;;
1371.0;1282.0;172124;172112;13534;;;;;;;;;;;;;;;;;;
1371.0;1288.3;;;;;;;;;;;;;4866;;;;;;;;
1371.0;1288.3;;;;;;;;;;;;;-1382;;;;;;;;
1371.0;1288.3;;;;;;;;;;;;;-10592;;;;;;;;
1371.0;1288.3;;;;;;;;;;;;;4972;;;;;;;;
1371.0;1288.3;;;;;;;;;;;;;54645;;;;;;;;
1371.0;1290.4;;;;-0.2096825;0.656437;0.058372505;;;;;;;;;;;;;;;
1371.0;1290.4;;;;-0.2029343;0.6560555;0.050910957;;;;;;;;;;;;;;;
1371.0;1290.4;;;;-0.21018603;0.65077215;-0.017501833;;;;;;;;;;;;;;;
1371.0;1290.4;;;;-0.22688296;0.6367684;0.025566105;;;;;;;;;;;;;;;
1371.0;1290.4;;;;-0.2024422;0.6324616;0.10260774;;;;;;;;;;;;;;;
1371.0;1299.5;;;;;;;;;;;;;;;;;3.7347028;-12.455366;22.839289;;1070.7
1371.0;1299.5;;;;;;;;;;;;;;-0.34632406;-1.0629597;-0.13000885;;;;;1070.7
1371.0;1299.5;;;;;;;;;;;;;;;;;6.591998;-12.443922;19.150366;;1070.7
1371.0;1299.5;;;;;;;;;;;;;;-0.33021027;-1.058565;-0.16986603;;;;;1070.7
1371.0;1299.5;;;;;;;;;;;;;;;;;9.289071;-13.008514;15.079958;;1080.3
1371.0;1299.5;;;;;;;;;;;;;;-0.30628377;-1.0426344;-0.19434187;;;;;1080.3
1371.0;1299.5;;;;;;;;;;;;;;;;;11.555071;-13.851588;10.803553;;1080.3
1371.0;1299.5;;;;;;;;;;;;;;-0.2773522;-1.0279855;-0.21301919;;;;;1080.3
1371.0;1299.5;;;;;;;;;;;;;;;;;13.077182;-14.904477;6.0808134;;1090.0
1371.0;1299.5;;;;;;;;;;;;;;-0.24304941;-1.0196234;-0.22937712;;;;;1090.0
1371.0;1299.5;;;;;;;;;;;;;;;;;13.748589;-15.640736;0.8049257;;1090.0
1371.0;1299.5;;;;;;;;;;;;;;-0.20770897;-1.0257882;-0.2525712;;;;;1090.0
1375.0;1300.5;;;;;;;;;;;;;;;;;14.22544;-15.766624;-4.8982205;;1099.7
1375.0;1300.5;;;;;;;;;;;;;;-0.17981505;-1.0461135;-0.30317086;;;;;1099.7
1375.0;1300.5;;;;;;;;;;;;;;;;;15.743736;-14.919737;-11.070589;;1099.7
1375.0;1300.5;;;;;;;;;;;;;;-0.156621;-1.0787683;-0.3579211;;;;;1099.7
1375.0;1300.5;;;;;;;;;;;;;;;;;18.761253;-13.599812;-17.490921;;1109.2
1375.0;1300.5;;;;;;;;;;;;;;-0.14288767;-1.1319315;-0.36469617;;;;;1109.2
1375.0;1300.5;;;;;;;;;;;;;;;;;22.92703;-12.619404;-23.819696;;1109.2
1375.0;1300.5;;;;;;;;;;;;;;-0.1271401;-1.2126224;-0.36213264;;;;;1109.2
1375.0;1300.5;;;;;;;;;;;;;;;;;26.913511;-10.048219;-29.934843;;1118.8
1375.0;1300.5;;;;;;;;;;;;;;-0.11511582;-1.2994171;-0.39631337;;;;;1118.8
1375.0;1300.5;;;;;;;;;;;;;;;;;30.90762;-6.248665;-36.08814;;1118.8
1375.0;1300.5;;;;;;;;;;;;;;-0.122196116;-1.373333;-0.4113895;;;;;1118.8
1375.0;1300.4;;;;-0.24190906;0.6440812;0.07441331;;;;;;;;;;;;;;;
1375.0;1300.4;;;;-0.23450091;0.6237336;-0.011314393;;;;;;;;;;;;;;;
1375.0;1300.4;;;;-0.22341159;0.62291723;-0.011562348;;;;;;;;;;;;;;;
1375.0;1300.4;;;;-0.24941638;0.62652975;-0.032283787;;;;;;;;;;;;;;;
1375.0;1300.4;;;;-0.24623874;0.6124459;-0.04288483;;;;;;;;;;;;;;;
1430.0;1301.1;;;;;;;;;;;;;;;;;35.943172;-5.405591;-42.630543;;1128.5
1430.0;1301.1;;;;;;;;;;;;;;-0.13769951;-1.4089786;-0.36066774;;;;;1128.5
1430.0;1301.1;;;;;;;;;;;;;;;;;41.066467;-10.891294;-49.855797;;1128.5
1430.0;1301.1;;;;;;;;;;;;;;-0.13653982;-1.3927428;-0.25971252;;;;;1128.5
1430.0;1301.1;;;;;;;;;;;;;;;;;44.656208;-19.119846;-57.5808;;1138.1
1430.0;1301.1;;;;;;;;;;;;;;-0.11371197;-1.346965;-0.1820124;;;;;1138.1
1430.0;1301.1;;;;;;;;;;;;;;;;;46.651356;-24.55977;-65.6148;;1138.1
1430.0;1301.1;;;;;;;;;;;;;;-0.0783105;-1.307413;-0.13428144;;;;;1138.1
1430.0;1301.1;;;;;;;;;;;;;;;;;48.387096;-26.08188;-73.99213;;1147.7
1430.0;1301.1;;;;;;;;;;;;;;-0.05389569;-1.2937406;-0.069765314;;;;;1147.7
1430.0;1301.1;;;;;;;;;;;;;;;;;51.438946;-23.7434;-82.84249;;1147.7
1430.0;1301.1;;;;;;;;;;;;;;-0.055238504;-1.3097323;-0.039857175;;;;;1147.7
1430.0;1302.0;;;;;;;;;;;;;;;;;56.61565;-17.983032;-92.00568;;1157.3
1430.0;1302.0;;;;;;;;;;;;;;-0.08716086;-1.352092;-0.027954955;;;;;1157.3
1430.0;1302.0;;;;;;;;;;;;;;;;;65.13413;-14.152959;-101.08493;;1157.3
1430.0;1302.0;;;;;;;;;;;;;;-0.15076144;-1.4044619;0.009399701;;;;;1157.3
1430.0;1302.0;;;;;;;;;;;;;;;;;75.8385;-14.812922;-109.90859;;1167.0
1430.0;1302.0;;;;;;;;;;;;;;-0.21228676;-1.4446242;0.06646931;;;;;1167.0
1430.0;1302.0;;;;;;;;;;;;;;;;;85.554825;-15.270699;-117.751854;;1167.0
1430.0;1302.0;;;;;;;;;;;;;;-0.2862636;-1.4644612;0.09503464;;;;;1167.0
1430.0;1302.0;;;;;;;;;;;;;;;;;93.6842;-14.33607;-123.203224;;1176.7
1430.0;1302.0;;;;;;;;;;;;;;-0.39014864;-1.4445632;0.09997864;;;;;1176.7
1430.0;1302.0;;;;;;;;;;;;;;;;;101.302376;-14.015625;-124.931335;;1176.7
1430.0;1302.0;;;;;;;;;;;;;;-0.5002594;-1.3843195;0.071779534;;;;;1176.7
1432.0;1302.0;188587;188548;13555;;;;;;;;;;;;;;;;;;
1432.0;1303.2;;;;;;;;;;;;;;;;;109.17234;-13.271737;-124.988556;;1186.3
1432.0;1303.2;;;;;;;;;;;;;;-0.59633166;-1.289285;0.022278512;;;;;1186.3
1432.0;1303.2;;;;;;;;;;;;;;;;;117.229225;-12.68807;-124.988556;;1186.3
1432.0;1303.2;;;;;;;;;;;;;;-0.69832456;-1.1725211;-0.021179846;;;;;1186.3
1432.0;1303.2;;;;;;;;;;;;;;;;;123.58089;-12.783441;-124.988556;;1195.9
1432.0;1303.2;;;;;;;;;;;;;;-0.7817621;-1.071871;-0.055848874;;;;;1195.9
1432.0;1303.2;;;;;;;;;;;;;;;;;124.97711;-12.115849;-124.988556;;1195.9
1432.0;1303.2;;;;;;;;;;;;;;-0.86605424;-0.98568684;-0.09253212;;;;;1195.9
1432.0;1303.2;;;;;;;;;;;;;;;;;124.22178;-8.930479;-124.988556;;1205.3
1432.0;1303.2;;;;;;;;;;;;;;-0.9382;-0.92306286;-0.1693167;;;;;1205.3
1432.0;1303.2;;;;;;;;;;;;;;;;;117.94641;-2.1095922;-124.988556;;1205.3
1432.0;1303.2;;;;;;;;;;;;;;-1.0025331;-0.86355174;-0.3070162;;;;;1205.3
1433.0;1307.0;;;;;;;;;;;;;;;;;106.696526;6.939146;-124.988556;;1214.9
1433.0;1307.0;;;;;;;;;;;;;;-1.0752891;-0.8239387;-0.4685812;;;;;1214.9
1433.0;1307.0;;;;;;;;;;;;;;;;;96.01886;13.573108;-124.988556;;1214.9
1433.0;1307.0;;;;;;;;;;;;;;-1.1366314;-0.8337657;-0.5991394;;;;;1214.9
1433.0;1307.0;;;;;;;;;;;;;;;;;87.86661;15.881069;-124.74059;;1224.6
1433.0;1307.0;;;;;;;;;;;;;;-1.1808832;-0.83816034;-0.67525256;;;;;1224.6
1433.0;1307.0;;;;;;;;;;;;;;;;;81.59505;15.633106;-122.05878;;1224.6
1433.0;1307.0;;;;;;;;;;;;;;-1.2175665;-0.81893367;-0.7118137;;;;;1224.6
1433.0;1307.0;;;;;;;;;;;;;;;;;77.1775;13.595997;-117.69082;;1234.3
1433.0;1307.0;;;;;;;;;;;;;;-1.212012;-0.7939696;-0.6914884;;;;;1234.3
1433.0;1307.0;;;;;;;;;;;;;;;;;73.52672;9.929959;-116.35182;;1234.3
1433.0;1307.0;;;;;;;;;;;;;;-1.168981;-0.78078556;-0.6025575;;;;;1234.3
1433.0;1310.1;;;;-0.24940112;0.61118704;-0.03279114;;;;;;;;;;;;;;;
1433.0;1310.1;;;;-0.25417712;0.6101456;-0.04237366;;;;;;;;;;;;;;;
1433.0;1310.1;;;;-0.25975803;0.6057816;-0.033477787;;;;;;;;;;;;;;;
1433.0;1310.1;;;;-0.26323703;0.6063462;-0.027320866;;;;;;;;;;;;;;;
1433.0;1310.1;;;;-0.26069644;0.61126715;-0.0073165903;;;;;;;;;;;;;;;
1433.0;1320.1;;;;-0.2614365;0.6198235;0.00857544;;;;;;;;;;;;;;;
1433.0;1320.1;;;;-0.27539065;0.6315728;0.011440278;;;;;;;;;;;;;;;
1433.0;1320.1;;;;-0.28364947;0.64553076;0.011020661;;;;;;;;;;;;;;;
1433.0;1320.1;;;;-0.29724887;0.6593743;0.016174318;;;;;;;;;;;;;;;
1433.0;1320.1;;;;-0.3148308;0.67360693;0.017887117;;;;;;;;;;;;;;;
1433.0;1321.9;204959;204929;13542;;;;;;;;;;;;;;;;;;
1435.0;1328.1;;;;;;;;;;;;;109875;;;;;;;;
1435.0;1328.1;;;;;;;;;;;;;125425;;;;;;;;
1435.0;1328.1;;;;;;;;;;;;;122310;;;;;;;;
1435.0;1328.1;;;;;;;;;;;;;114813;;;;;;;;
1435.0;1328.1;;;;;;;;;;;;;114091;;;;;;;;
1435.0;1329.8;;;;-0.32378772;0.6902428;0.012737276;;;;;;;;;;;;;;;
1435.0;1329.8;;;;-0.3280106;0.7139626;0.019184114;;;;;;;;;;;;;;;
1435.0;1329.8;;;;-0.3323517;0.73886114;0.035232548;;;;;;;;;;;;;;;
1435.0;1329.8;;;;-0.33762744;0.76430523;0.05006028;;;;;;;;;;;;;;;
1435.0;1329.8;;;;-0.34463122;0.79060376;0.06062699;;;;;;;;;;;;;;;
1435.0;1339.8;;;;-0.35024646;0.8197938;0.066989906;;;;;;;;;;;;;;;
1435.0;1339.8;;;;-0.35694507;0.84788525;0.074005134;;;;;;;;;;;;;;;
1435.0;1339.8;;;;-0.36324695;0.8763658;0.08170701;;;;;;;;;;;;;;;
1435.0;1339.8;;;;-0.36978152;0.90413296;0.090621956;;;;;;;;;;;;;;;
1435.0;1339.8;;;;-0.37694174;0.93026364;0.10037996;;;;;;;;;;;;;;;
1435.0;1341.7;221228;221364;13539;;;;;;;;;;;;;;;;;;
1435.0;1350.0;;;;-0.38393027;0.9550706;0.10907747;;;;;;;;;;;;;;;
1435.0;1350.0;;;;-0.38994223;0.97914517;0.12162019;;;;;;;;;;;;;;;
1435.0;1350.0;;;;-0.39646155;1.0017167;0.13811494;;;;;;;;;;;;;;;
1435.0;1350.0;;;;-0.40295416;1.0232698;0.15410616;;;;;;;;;;;;;;;
1435.0;1350.0;;;;-0.41045767;1.0425531;0.16452028;;;;;;;;;;;;;;;
1485.0;1359.5;;;;;;;;;;;;;;;;;69.09772;5.7374797;-117.46956;;1243.9
1485.0;1359.5;;;;;;;;;;;;;;-1.1025116;-0.78615683;-0.48957792;;;;;1243.9
1485.0;1359.5;;;;;;;;;;;;;;;;;60.8005;1.9112216;-119.03364;;1243.9
1485.0;1359.5;;;;;;;;;;;;;;-1.0466628;-0.78487504;-0.3698233;;;;;1243.9
1485.0;1359.5;;;;;;;;;;;;;;;;;47.093876;-2.1019626;-121.41407;;1253.3
1485.0;1359.5;;;;;;;;;;;;;;-0.97128206;-0.81948304;-0.29096347;;;;;1253.3
1485.0;1359.5;;;;;;;;;;;;;;;;;32.330547;-6.241035;-124.41252;;1253.3
1485.0;1359.5;;;;;;;;;;;;;;-0.8963286;-0.87044895;-0.235786;;;;;1253.3
1485.0;1359.5;;;;;;;;;;;;;;;;;20.35203;-12.539292;-124.988556;;1263.0
1485.0;1359.5;;;;;;;;;;;;;;-0.8354137;-0.9310587;-0.20038453;;;;;1263.0
1485.0;1359.5;;;;;;;;;;;;;;;;;13.660849;-20.88992;-124.988556;;1263.0
1485.0;1359.5;;;;;;;;;;;;;;-0.7704092;-0.9784234;-0.16895047;;;;;1263.0
1485.0;1360.0;;;;-0.41623694;1.0579377;0.1778946;;;;;;;;;;;;;;;
1485.0;1360.0;;;;-0.41917425;1.0717088;0.19209674;;;;;;;;;;;;;;;
1485.0;1360.0;;;;-0.420929;1.0835954;0.20869067;;;;;;;;;;;;;;;
1485.0;1360.0;;;;-0.4197312;1.0929452;0.22396472;;;;;;;;;;;;;;;
1485.0;1360.0;;;;-0.41685492;1.0994569;0.23876956;;;;;;;;;;;;;;;
1487.0;1360.2;;;;;;;;;;;;;;;;;11.345256;-31.132694;-124.988556;;1272.7
1487.0;1360.2;;;;;;;;;;;;;;-0.7166967;-0.9967345;-0.14423047;;;;;1272.7
1487.0;1360.2;;;;;;;;;;;;;;;;;10.345775;-41.444138;-124.988556;;1272.7
1487.0;1360.2;;;;;;;;;;;;;;-0.6816614;-0.9790948;-0.1345256;;;;;1272.7
1487.0;1360.2;;;;;;;;;;;;;;;;;8.0835905;-49.01273;-124.988556;;1282.3
1487.0;1360.2;;;;;;;;;;;;;;-0.6610919;-0.9389325;-0.14850307;;;;;1282.3
1487.0;1360.2;;;;;;;;;;;;;;;;;4.791406;-52.362133;-124.988556;;1282.3
1487.0;1360.2;;;;;;;;;;;;;;-0.6142766;-0.9016999;-0.18555254;;;;;1282.3
1487.0;1360.2;;;;;;;;;;;;;;;;;2.338481;-51.683094;-124.988556;;1292.0
1487.0;1360.2;;;;;;;;;;;;;;-0.5748466;-0.86593217;-0.20874661;;;;;1292.0
1487.0;1360.2;;;;;;;;;;;;;;;;;0.16403699;-46.071503;-124.988556;;1292.0
1487.0;1360.2;;;;;;;;;;;;;;-0.5584277;-0.82863855;-0.21063875;;;;;1292.0
1487.0;1361.7;237737;237690;13540;;;;;;;;;;;;;;;;;;
1487.0;1368.0;;;;;;;;;;;;;113586;;;;;;;;
1487.0;1368.0;;;;;;;;;;;;;110764;;;;;;;;
1487.0;1368.0;;;;;;;;;;;;;107844;;;;;;;;
1487.0;1368.0;;;;;;;;;;;;;105334;;;;;;;;
1487.0;1368.0;;;;;;;;;;;;;102584;;;;;;;;
1487.0;1369.9;;;;-0.41708;1.0997239;0.25205234;;;;;;;;;;;;;;;
1487.0;1369.9;;;;-0.4440537;1.1080056;0.25670245;;;;;;;;;;;;;;;
1487.0;1369.9;;;;-0.4682923;1.106949;0.21961978;;;;;;;;;;;;;;;
1487.0;1369.9;;;;-0.45317084;1.0927774;0.2347565;;;;;;;;;;;;;;;
1487.0;1369.9;;;;-0.44937903;1.0869409;0.25140384;;;;;;;;;;;;;;;
1489.0;1379.9;;;;-0.44675452;1.0837594;0.25894168;;;;;;;;;;;;;;;
1489.0;1379.9;;;;-0.4474526;1.0816613;0.25818637;;;;;;;;;;;;;;;
1489.0;1379.9;;;;-0.46758658;1.084385;0.24767306;;;;;;;;;;;;;;;
1489.0;1379.9;;;;-0.46248633;1.0733987;0.23661426;;;;;;;;;;;;;;;
1489.0;1379.9;;;;-0.45779043;1.0658914;0.24268726;;;;;;;;;;;;;;;
1489.0;1381.8;254123;254135;13532;;;;;;;;;;;;;;;;;;
1489.0;1389.9;;;;-0.45963675;1.0627366;0.24311832;;;;;;;;;;;;;;;
1489.0;1389.9;;;;-0.4715119;1.0621797;0.23841098;;;;;;;;;;;;;;;
1489.0;1389.9;;;;-0.47199637;1.0581514;0.23025134;;;;;;;;;;;;;;;
1489.0;1389.9;;;;-0.4675675;1.0580293;0.22934726;;;;;;;;;;;;;;;
1489.0;1389.9;;;;-0.46318442;1.0564386;0.22340396;;;;;;;;;;;;;;;
1489.0;1399.6;;;;-0.45464712;1.0551378;0.22813037;;;;;;;;;;;;;;;
1489.0;1399.6;;;;-0.44636542;1.0558511;0.23549274;;;;;;;;;;;;;;;
1489.0;1399.6;;;;-0.43944556;1.0599672;0.24024585;;;;;;;;;;;;;;;
1489.0;1399.6;;;;-0.43267447;1.0647355;0.2419205;;;;;;;;;;;;;;;
1489.0;1399.6;;;;-0.42864615;1.0689164;0.24056247;;;;;;;;;;;;;;;
1489.0;1401.6;262143;262143;13539;;;;;;;;;;;;;;;;;;
1489.0;1407.9;;;;;;;;;;;;;100142;;;;;;;;
1489.0;1407.9;;;;;;;;;;;;;97569;;;;;;;;
1489.0;1407.9;;;;;;;;;;;;;95102;;;;;;;;
1489.0;1407.9;;;;;;;;;;;;;92800;;;;;;;;
1489.0;1407.9;;;;;;;;;;;;;90503;;;;;;;;
1491.0;1409.7;;;;-0.42374808;1.0727006;0.24000934;;;;;;;;;;;;;;;
1491.0;1409.7;;;;-0.42708594;1.0770646;0.23888019;;;;;;;;;;;;;;;
1491.0;1409.7;;;;-0.42559057;1.076912;0.23277286;;;;;;;;;;;;;;;
1491.0;1409.7;;;;-0.42367178;1.076687;0.22903445;;;;;;;;;;;;;;;
1491.0;1409.7;;;;-0.42417532;1.077675;0.22954562;;;;;;;;;;;;;;;
1491.0;1419.3;;;;;;;;;;;;;;;;;0.8354442;-42.683952;-124.988556;;1301.6
1491.0;1419.3;;;;;;;;;;;;;;-0.5121006;-0.81014436;-0.20184942;;;;;1301.6
1491.0;1419.3;;;;;;;;;;;;;;;;;0.7820368;-38.76614;-124.988556;;1301.6
1491.0;1419.3;;;;;;;;;;;;;;-0.4702292;-0.7939085;-0.19641712;;;;;1301.6
1491.0;1419.3;;;;;;;;;;;;;;;;;-0.5378887;-33.848843;-124.988556;;1311.2
1491.0;1419.3;;;;;;;;;;;;;;-0.47755364;-0.77156895;-0.18524735;;;;;1311.2
1491.0;1419.3;;;;;;;;;;;;;;;;;-3.055666;-28.431807;-124.988556;;1311.2
1491.0;1419.3;;;;;;;;;;;;;;-0.48927274;-0.7579577;-0.19940794;;;;;1311.2
1491.0;1419.3;;;;;;;;;;;;;;;;;-4.589221;-21.80929;-124.988556;;1320.6
1491.0;1419.3;;;;;;;;;;;;;;-0.507828;-0.7441023;-0.21222572;;;;;1320.6
1491.0;1419.3;;;;;;;;;;;;;;;;;-4.642628;-14.339885;-124.847404;;1320.6
1491.0;1419.3;;;;;;;;;;;;;;-0.5338908;-0.72383803;-0.22962126;;;;;1320.6
1491.0;1419.7;;;;-0.42137152;1.0780107;0.22988513;;;;;;;;;;;;;;;
1491.0;1419.7;;;;-0.41941077;1.0779878;0.22950748;;;;;;;;;;;;;;;
1491.0;1419.7;;;;-0.4175759;1.0793649;0.2305527;;;;;;;;;;;;;;;
1491.0;1419.7;;;;-0.41803366;1.0789338;0.22879031;;;;;;;;;;;;;;;
1491.0;1419.7;;;;-0.41636664;1.0773011;0.2289696;;;;;;;;;;;;;;;
1495.0;1420.4;;;;;;;;;;;;;;;;;-3.3455918;-7.255776;-121.35685;;1330.3
1495.0;1420.4;;;;;;;;;;;;;;-0.5652638;-0.6855678;-0.23834956;;;;;1330.3
1495.0;1420.4;;;;;;;;;;;;;;;;;-2.4071476;0.049592577;-114.26893;;1330.3
1495.0;1420.4;;;;;;;;;;;;;;-0.5607471;-0.6465041;-0.2606891;;;;;1330.3
1495.0;1420.4;;;;;;;;;;;;;;;;;-0.6179998;8.339183;-106.46001;;1340.0
1495.0;1420.4;;;;;;;;;;;;;;-0.50935394;-0.65993226;-0.27430037;;;;;1340.0
1495.0;1420.4;;;;;;;;;;;;;;;;;1.6365551;15.903959;-98.2429;;1340.0
1495.0;1420.4;;;;;;;;;;;;;;-0.4803003;-0.6704306;-0.25476852;;;;;1340.0
1495.0;1420.4;;;;;;;;;;;;;;;;;2.193518;21.542253;-90.53316;;1349.6
1495.0;1420.4;;;;;;;;;;;;;;-0.47248757;-0.63374734;-0.2245552;;;;;1349.6
1495.0;1420.4;;;;;;;;;;;;;;;;;0.65614796;27.645954;-83.76568;;1349.6
1495.0;1420.4;;;;;;;;;;;;;;-0.4502701;-0.6211127;-0.2029481;;;;;1349.6
1495.0;1421.5;262143;262143;13533;;;;;;;;;;;;;;;;;;
1495.0;1429.6;;;;-0.41309363;1.0767213;0.23126987;;;;;;;;;;;;;;;
1495.0;1429.6;;;;-0.40694052;1.0736085;0.23474124;;;;;;;;;;;;;;;
1495.0;1429.6;;;;-0.40247732;1.0711519;0.23775485;;;;;;;;;;;;;;;
1495.0;1429.6;;;;-0.39882666;1.0674173;0.23965457;;;;;;;;;;;;;;;
1495.0;1429.6;;;;-0.39688116;1.0632249;0.24292377;;;;;;;;;;;;;;;
1495.0;1439.6;;;;-0.39479452;1.0579873;0.24552158;;;;;;;;;;;;;;;
1495.0;1439.6;;;;-0.39385992;1.0514642;0.24601749;;;;;;;;;;;;;;;
1495.0;1439.6;;;;-0.39007193;1.0446931;0.24711612;;;;;;;;;;;;;;;
1495.0;1439.6;;;;-0.38397223;1.0375444;0.24979022;;;;;;;;;;;;;;;
1495.0;1439.6;;;;-0.3780251;1.03117;0.2541161;;;;;;;;;;;;;;;
1547.0;1441.6;262143;262143;13532;;;;;;;;;;;;;;;;;;
1547.0;1447.8;;;;;;;;;;;;;88327;;;;;;;;
1547.0;1447.8;;;;;;;;;;;;;85925;;;;;;;;
1547.0;1447.8;;;;;;;;;;;;;83637;;;;;;;;
1547.0;1447.8;;;;;;;;;;;;;81931;;;;;;;;
1547.0;1447.8;;;;;;;;;;;;;79895;;;;;;;;
1547.0;1449.5;;;;-0.37236407;1.0233575;0.25716022;;;;;;;;;;;;;;;
1547.0;1449.5;;;;-0.3662224;1.0145227;0.26220706;;;;;;;;;;;;;;;
1547.0;1449.5;;;;-0.36325076;1.0058748;0.26918796;;;;;;;;;;;;;;;
1547.0;1449.5;;;;-0.36119846;0.99687207;0.27611545;;;;;;;;;;;;;;;
1547.0;1449.5;;;;-0.3575249;0.98448956;0.2813721;;;;;;;;;;;;;;;
1547.0;1459.5;;;;-0.3537331;0.9744226;0.2893677;;;;;;;;;;;;;;;
1547.0;1459.5;;;;-0.34866717;0.96413815;0.29983905;;;;;;;;;;;;;;;
1547.0;1459.5;;;;-0.3463898;0.9533807;0.3089104;;;;;;;;;;;;;;;
1547.0;1459.5;;;;-0.34144595;0.9413339;0.31598285;;;;;;;;;;;;;;;
1547.0;1459.5;;;;-0.34203342;0.93036664;0.3246651;;;;;;;;;;;;;;;
1547.0;1461.6;262143;262143;13526;;;;;;;;;;;;;;;;;;
1547.0;1469.6;;;;-0.34297946;0.9203454;0.334034;;;;;;;;;;;;;;;
1547.0;1469.6;;;;-0.34126285;0.9106027;0.34339526;;;;;;;;;;;;;;;
1547.0;1469.6;;;;-0.3426781;0.90225613;0.35429385;;;;;;;;;;;;;;;
1547.0;1469.6;;;;-0.35222247;0.89876187;0.3693085;;;;;;;;;;;;;;;
1547.0;1469.6;;;;-0.35831073;0.8950807;0.38148886;;;;;;;;;;;;;;;
1549.0;1479.3;;;;;;;;;;;;;;;;;-2.7809992;32.98288;-77.3835;;1359.3
1549.0;1479.3;;;;;;;;;;;;;;-0.4361095;-0.6061586;-0.18066958;;;;;1359.3
1549.0;1479.3;;;;;;;;;;;;;;;;;-6.9620347;38.800472;-71.386604;;1359.3
1549.0;1479.3;;;;;;;;;;;;;;-0.4492935;-0.5690481;-0.13391522;;;;;1359.3
1549.0;1479.3;;;;;;;;;;;;;;;;;-11.246071;45.781578;-65.82843;;1369.0
1549.0;1479.3;;;;;;;;;;;;;;-0.45197913;-0.5559862;-0.10504471;;;;;1369.0
1549.0;1479.3;;;;;;;;;;;;;;;;;-12.615588;52.396465;-60.93783;;1369.0
1549.0;1479.3;;;;;;;;;;;;;;-0.4513077;-0.549028;-0.070986055;;;;;1369.0
1549.0;1479.3;;;;;;;;;;;;;;;;;-12.249367;56.691944;-56.207462;;1378.5
1549.0;1479.3;;;;;;;;;;;;;;-0.48176518;-0.50270087;-0.042115543;;;;;1378.5
1549.0;1479.3;;;;;;;;;;;;;;;;;-12.18833;60.62502;-51.824245;;1378.5
1549.0;1479.3;;;;;;;;;;;;;;-0.46125674;-0.49177527;-0.028931547;;;;;1378.5
1549.0;1479.6;;;;-0.36130908;0.89135754;0.3913117;;;;;;;;;;;;;;;
1549.0;1479.6;;;;-0.35714725;0.8859712;0.3996392;;;;;;;;;;;;;;;
1549.0;1479.6;;;;-0.35878757;0.8818704;0.40615088;;;;;;;;;;;;;;;
1549.0;1479.6;;;;-0.35563663;0.87578976;0.41241843;;;;;;;;;;;;;;;
1549.0;1479.6;;;;-0.35642627;0.87147534;0.41843802;;;;;;;;;;;;;;;
1552.0;1480.2;;;;;;;;;;;;;;;;;-11.650441;65.78646;-47.040466;;1388.1
1552.0;1480.2;;;;;;;;;;;;;;-0.4494766;-0.48005617;-0.0042115543;;;;;1388.1
1552.0;1480.2;;;;;;;;;;;;;;;;;-9.746849;71.378975;-41.837063;;1388.1
1552.0;1480.2;;;;;;;;;;;;;;-0.44544816;-0.47340313;0.021423994;;;;;1388.1
1552.0;1480.2;;;;;;;;;;;;;;;;;-5.7184057;76.82654;-36.267433;;1397.8
1552.0;1480.2;;;;;;;;;;;;;;-0.4300058;-0.47529528;0.0557268;;;;;1397.8
1552.0;1480.2;;;;;;;;;;;;;;;;;0.4997406;81.20594;-30.247658;;1397.8
1552.0;1480.2;;;;;;;;;;;;;;-0.4225593;-0.47560045;0.09790338;;;;;1397.8
1552.0;1480.2;;;;;;;;;;;;;;;;;7.1794796;84.73846;-24.17066;;1407.5
1552.0;1480.2;;;;;;;;;;;;;;-0.4231086;-0.46638387;0.13476974;;;;;1407.5
1552.0;1480.2;;;;;;;;;;;;;;;;;13.023774;87.14942;-17.899105;;1407.5
1552.0;1480.2;;;;;;;;;;;;;;-0.41016877;-0.46302682;0.1607715;;;;;1407.5
1552.0;1481.6;262143;262143;13524;;;;;;;;;;;;;;;;;;
1552.0;1487.9;;;;;;;;;;;;;76577;;;;;;;;
1552.0;1487.9;;;;;;;;;;;;;70003;;;;;;;;
1552.0;1487.9;;;;;;;;;;;;;61990;;;;;;;;
1552.0;1487.9;;;;;;;;;;;;;54621;;;;;;;;
1552.0;1487.9;;;;;;;;;;;;;48667;;;;;;;;
1552.0;1489.6;;;;-0.3571587;0.8662263;0.42477423;;;;;;;;;;;;;;;
1552.0;1489.6;;;;-0.3639603;0.86490643;0.43114477;;;;;;;;;;;;;;;
1552.0;1489.6;;;;-0.36063388;0.8624078;0.4388085;;;;;;;;;;;;;;;
1552.0;1489.6;;;;-0.35791782;0.8596612;0.44463354;;;;;;;;;;;;;;;
1552.0;1489.6;;;;-0.36023334;0.8593751;0.44813925;;;;;;;;;;;;;;;
1607.0;1494.4;;;;;;;;;;;;;;;;;18.105106;88.820305;-11.394848;;1417.1
1607.0;1494.4;;;;;;;;;;;;;;-0.3994873;-0.45759454;0.18506424;;;;;1417.1
1607.0;1494.4;;;;;;;;;;;;;;;;;23.186438;89.16745;-4.894406;;1417.1
1607.0;1494.4;;;;;;;;;;;;;;-0.39082003;-0.44123662;0.2115543;;;;;1417.1
1607.0;1494.4;;;;;;;;;;;;;;;;;28.847622;87.446976;1.064333;;1426.6
1607.0;1494.4;;;;;;;;;;;;;;-0.3836787;-0.41248816;0.23682363;;;;;1426.6
1607.0;1494.4;;;;;;;;;;;;;;;;;34.84069;83.04468;6.6644797;;1426.6
1607.0;1494.4;;;;;;;;;;;;;;-0.38032165;-0.37678152;0.25611132;;;;;1426.6
1607.0;1494.4;;;;;;;;;;;;;;;;;39.7351;75.85376;12.192145;;1436.3
1607.0;1494.4;;;;;;;;;;;;;;-0.37043366;-0.3391827;0.26221505;;;;;1436.3
1607.0;1494.4;;;;;;;;;;;;;;;;;41.711174;66.58376;17.792292;;1436.3
1607.0;1494.4;;;;;;;;;;;;;;-0.36262092;-0.3073214;0.24719992;;;;;1436.3
1607.0;1499.6;;;;-0.35637668;0.85868466;0.452385;;;;;;;;;;;;;;;
1607.0;1499.6;;;;-0.35263065;0.8585626;0.4532395;;;;;;;;;;;;;;;
1607.0;1499.6;;;;-0.354229;0.85938275;0.45376974;;;;;;;;;;;;;;;
1607.0;1499.6;;;;-0.3572884;0.8610307;0.45527273;;;;;;;;;;;;;;;
1607.0;1499.6;;;;-0.35884097;0.86405957;0.45827872;;;;;;;;;;;;;;;
1607.0;1501.8;262143;262143;13520;;;;;;;;;;;;;;;;;;
1607.0;1509.5;;;;-0.35989764;0.86870205;0.46028525;;;;;;;;;;;;;;;
1607.0;1509.5;;;;-0.35921863;0.87340176;0.4615937;;;;;;;;;;;;;;;
1607.0;1509.5;;;;-0.35899356;0.8787309;0.45984656;;;;;;;;;;;;;;;
1607.0;1509.5;;;;-0.35628894;0.8830224;0.45589834;;;;;;;;;;;;;;;
1607.0;1509.5;;;;-0.35139087;0.8860513;0.4527207;;;;;;;;;;;;;;;
1608.0;1519.5;;;;-0.34403613;0.8879281;0.45079046;;;;;;;;;;;;;;;
1608.0;1519.5;;;;-0.3452187;0.8907014;0.4490052;;;;;;;;;;;;;;;
1608.0;1519.5;;;;-0.34302905;0.89229596;0.44791037;;;;;;;;;;;;;;;
1608.0;1519.5;;;;-0.33853534;0.8927156;0.44644934;;;;;;;;;;;;;;;
1608.0;1519.5;;;;-0.33248904;0.8926698;0.44559866;;;;;;;;;;;;;;;
1608.0;1521.8;262143;262143;13520;;;;;;;;;;;;;;;;;;
1608.0;1528.1;;;;;;;;;;;;;42990;;;;;;;;
1608.0;1528.1;;;;;;;;;;;;;36034;;;;;;;;
1608.0;1528.1;;;;;;;;;;;;;28132;;;;;;;;
1608.0;1528.1;;;;;;;;;;;;;21245;;;;;;;;
1608.0;1528.1;;;;;;;;;;;;;16747;;;;;;;;
1608.0;1529.6;;;;-0.32485202;0.8918611;0.4441796;;;;;;;;;;;;;;;
1608.0;1529.6;;;;-0.31470492;0.8902093;0.44303137;;;;;;;;;;;;;;;
1608.0;1529.6;;;;-0.3035088;0.88809216;0.44146353;;;;;;;;;;;;;;;
1608.0;1529.6;;;;-0.29246143;0.88570035;0.43825537;;;;;;;;;;;;;;;
1608.0;1529.6;;;;-0.28163913;0.88354504;0.43515784;;;;;;;;;;;;;;;
1609.0;1539.9;;;;;;;;;;;;;;;;;40.215763;55.749687;23.579363;;1446.0
1609.0;1539.9;;;;;;;;;;;;;;-0.36066774;-0.27655873;0.20746483;;;;;1446.0
1609.0;1539.9;;;;;;;;;;;;;;;;;36.065247;43.65673;29.29014;;1446.0
1609.0;1539.9;;;;;;;;;;;;;;-0.35486922;-0.2519608;0.16742454;;;;;1446.0
1609.0;1539.9;;;;;;;;;;;;;;;;;29.957731;30.941954;35.016174;;1455.6
1609.0;1539.9;;;;;;;;;;;;;;-0.34247872;-0.2280343;0.13733329;;;;;1455.6
1609.0;1539.9;;;;;;;;;;;;;;;;;23.518326;18.158514;40.723137;;1455.6
1609.0;1539.9;;;;;;;;;;;;;;-0.33930477;-0.2021546;0.12121952;;;;;1455.6
1609.0;1539.9;;;;;;;;;;;;;;;;;17.80755;6.0388503;46.13254;;1465.3
1609.0;1539.9;;;;;;;;;;;;;;-0.33362836;-0.18207343;0.10357982;;;;;1465.3
1609.0;1539.9;;;;;;;;;;;;;;;;;13.130589;-4.2115545;51.625874;;1465.3
1609.0;1539.9;;;;;;;;;;;;;;-0.3088473;-0.1551561;0.09613331;;;;;1465.3
1609.0;1539.7;;;;-0.27056888;0.8806268;0.43119818;;;;;;;;;;;;;;;
1609.0;1539.7;;;;-0.2608452;0.87747204;0.42574316;;;;;;;;;;;;;;;
1609.0;1539.7;;;;-0.2525368;0.87432873;0.4179917;;;;;;;;;;;;;;;
1609.0;1539.7;;;;-0.24601367;0.8705369;0.41032416;;;;;;;;;;;;;;;
1609.0;1539.7;;;;-0.2425423;0.86701214;0.40092856;;;;;;;;;;;;;;;
1609.0;1541.8;262143;262143;13522;;;;;;;;;;;;;;;;;;
1609.0;1549.6;;;;-0.24015048;0.8633462;0.3928414;;;;;;;;;;;;;;;
1609.0;1549.6;;;;-0.23994067;0.8599855;0.38555914;;;;;;;;;;;;;;;
1609.0;1549.6;;;;-0.240387;0.8564645;0.37732702;;;;;;;;;;;;;;;
1609.0;1549.6;;;;-0.24214175;0.85263836;0.36937335;;;;;;;;;;;;;;;
1609.0;1549.6;;;;-0.24467853;0.84892285;0.362011;;;;;;;;;;;;;;;
1670.0;1554.4;;;;;;;;;;;;;;;;;8.587145;-11.394848;57.119205;;1474.9
1670.0;1554.4;;;;;;;;;;;;;;-0.2995697;-0.1246376;0.07904294;;;;;1474.9
1670.0;1554.4;;;;;;;;;;;;;;;;;4.0017395;-15.820032;62.231056;;1474.9
1670.0;1554.4;;;;;;;;;;;;;;-0.28833887;-0.12909329;0.058046207;;;;;1474.9
1670.0;1554.4;;;;;;;;;;;;;;;;;-0.099185154;-17.841883;66.86987;;1484.5
1670.0;1554.4;;;;;;;;;;;;;;-0.30030215;-0.15131077;0.03418073;;;;;1484.5
1670.0;1554.4;;;;;;;;;;;;;;;;;-4.5968504;-17.090364;70.43672;;1484.5
1670.0;1554.4;;;;;;;;;;;;;;-0.30176702;-0.18921477;0.024475845;;;;;1484.5
1670.0;1554.4;;;;;;;;;;;;;;;;;-9.21659;-13.760033;72.985016;;1494.1
1670.0;1554.4;;;;;;;;;;;;;;-0.30646688;-0.24866481;0.024842067;;;;;1494.1
1670.0;1554.4;;;;;;;;;;;;;;;;;-12.390514;-10.235145;75.41887;;1494.1
1670.0;1554.4;;;;;;;;;;;;;;-0.30890834;-0.3140965;0.008728294;;;;;1494.1
1670.0;1559.5;;;;-0.24890521;0.84524167;0.35517505;;;;;;;;;;;;;;;
1670.0;1559.5;;;;-0.25466922;0.8416711;0.3470154;;;;;;;;;;;;;;;
1670.0;1559.5;;;;-0.26158145;0.8379594;0.33829883;;;;;;;;;;;;;;;
1670.0;1559.5;;;;-0.26931766;0.83478177;0.33131793;;;;;;;;;;;;;;;
1670.0;1559.5;;;;-0.27723697;0.8310052;0.3241997;;;;;;;;;;;;;;;
1670.0;1561.8;262143;262143;13528;;;;;;;;;;;;;;;;;;
1670.0;1568.0;;;;;;;;;;;;;13857;;;;;;;;
1670.0;1568.0;;;;;;;;;;;;;10598;;;;;;;;
1670.0;1568.0;;;;;;;;;;;;;6852;;;;;;;;
1670.0;1568.0;;;;;;;;;;;;;4460;;;;;;;;
1670.0;1568.0;;;;;;;;;;;;;4104;;;;;;;;
1673.0;1569.4;;;;-0.2866631;0.82766736;0.31740573;;;;;;;;;;;;;;;
1673.0;1569.4;;;;-0.29636768;0.82471097;0.31136325;;;;;;;;;;;;;;;
1673.0;1569.4;;;;-0.30584338;0.82172024;0.30609897;;;;;;;;;;;;;;;
1673.0;1569.4;;;;-0.3149338;0.81901944;0.30181888;;;;;;;;;;;;;;;
1673.0;1569.4;;;;-0.32357028;0.8165132;0.29867557;;;;;;;;;;;;;;;
1673.0;1579.5;;;;-0.3315468;0.81464016;0.29591373;;;;;;;;;;;;;;;
1673.0;1579.5;;;;-0.33877566;0.81321347;0.2947426;;;;;;;;;;;;;;;
1673.0;1579.5;;;;-0.3447037;0.8120996;0.2937012;;;;;;;;;;;;;;;
1673.0;1579.5;;;;-0.34990314;0.81123745;0.2929764;;;;;;;;;;;;;;;
1673.0;1579.5;;;;-0.3534012;0.81048214;0.2928734;;;;;;;;;;;;;;;
1673.0;1581.8;262143;262143;13530;;;;;;;;;;;;;;;;;;
1673.0;1589.6;;;;-0.35580447;0.8095933;0.29395297;;;;;;;;;;;;;;;
1673.0;1589.6;;;;-0.3574715;0.80913556;0.29471973;;;;;;;;;;;;;;;
1673.0;1589.6;;;;-0.35859302;0.8084222;0.29610065;;;;;;;;;;;;;;;
1673.0;1589.6;;;;-0.35912707;0.8079301;0.2982979;;;;;;;;;;;;;;;
1673.0;1589.6;;;;-0.3596535;0.8075868;0.30028537;;;;;;;;;;;;;;;
1675.0;1599.6;;;;;;;;;;;;;;;;;-14.446699;-8.495589;77.74972;;1503.7
1675.0;1599.6;;;;;;;;;;;;;;-0.30719933;-0.36347544;-0.014404736;;;;;1503.7
1675.0;1599.6;;;;;;;;;;;;;;;;;-18.406477;-7.507553;79.138306;;1503.7
1675.0;1599.6;;;;;;;;;;;;;;-0.29401532;-0.42518386;-0.027100436;;;;;1503.7
1675.0;1599.6;;;;;;;;;;;;;;;;;-25.990326;-5.9701834;80.33997;;1513.3
1675.0;1599.6;;;;;;;;;;;;;;-0.32691428;-0.47840816;-0.02642903;;;;;1513.3
1675.0;1599.6;;;;;;;;;;;;;;;;;-38.514362;-4.993591;81.51494;;1513.3
1675.0;1599.6;;;;;;;;;;;;;;-0.3374737;-0.5627003;-0.029663991;;;;;1513.3
1675.0;1599.6;;;;;;;;;;;;;;;;;-55.81835;-4.791406;82.4305;;1522.9
1675.0;1599.6;;;;;;;;;;;;;;-0.35059664;-0.66060364;-0.04626606;;;;;1522.9
1675.0;1599.6;;;;;;;;;;;;;;;;;-78.37916;-5.649739;83.03323;;1522.9
1675.0;1599.6;;;;;;;;;;;;;;-0.36384168;-0.7658925;-0.08618427;;;;;1522.9
1675.0;1599.5;;;;-0.35987857;0.8078958;0.30206683;;;;;;;;;;;;;;;
1675.0;1599.5;;;;-0.35994723;0.8081895;0.3048096;;;;;;;;;;;;;;;
1675.0;1599.5;;;;-0.3604546;0.8087007;0.30723193;;;;;;;;;;;;;;;
1675.0;1599.5;;;;-0.36010364;0.80999386;0.31188205;;;;;;;;;;;;;;;
1675.0;1599.5;;;;-0.36013034;0.8114816;0.31782535;;;;;;;;;;;;;;;
1675.0;1602.0;262143;262143;13525;;;;;;;;;;;;;;;;;;
1675.0;1608.2;;;;;;;;;;;;;4228;;;;;;;;
1675.0;1608.2;;;;;;;;;;;;;3217;;;;;;;;
1675.0;1608.2;;;;;;;;;;;;;1138;;;;;;;;
1675.0;1608.2;;;;;;;;;;;;;-1225;;;;;;;;
1675.0;1608.2;;;;;;;;;;;;;-3288;;;;;;;;
1729.0;1609.6;;;;-0.36047748;0.8137857;0.32498935;;;;;;;;;;;;;;;
1729.0;1609.6;;;;-0.3609734;0.8164102;0.33305743;;;;;;;;;;;;;;;
1729.0;1609.6;;;;-0.3619919;0.8192979;0.34173968;;;;;;;;;;;;;;;
1729.0;1609.6;;;;-0.36265185;0.8222581;0.35029987;;;;;;;;;;;;;;;
1729.0;1609.6;;;;-0.36298755;0.8249551;0.3585892;;;;;;;;;;;;;;;
1729.0;1614.5;;;;;;;;;;;;;;;;;-104.216896;-8.636738;82.70516;;1532.5
1729.0;1614.5;;;;;;;;;;;;;;-0.3767205;-0.885403;-0.15381329;;;;;1532.5
1729.0;1614.5;;;;;;;;;;;;;;;;;-122.75689;-14.870144;81.47679;;1532.5
1729.0;1614.5;;;;;;;;;;;;;;-0.38288522;-1.0146794;-0.2296823;;;;;1532.5
1729.0;1614.5;;;;;;;;;;;;;;;;;-124.988556;-24.948881;79.981384;;1542.1
1729.0;1614.5;;;;;;;;;;;;;;-0.4095584;-1.1220435;-0.28498185;;;;;1542.1
1729.0;1614.5;;;;;;;;;;;;;;;;;-124.988556;-38.762325;78.703415;;1542.1
1729.0;1614.5;;;;;;;;;;;;;;-0.427076;-1.20188;-0.31287575;;;;;1542.1
1729.0;1614.5;;;;;;;;;;;;;;;;;-124.988556;-54.124577;78.27616;;1551.8
1729.0;1614.5;;;;;;;;;;;;;;-0.44068727;-1.25486;-0.3045137;;;;;1551.8
1729.0;1614.5;;;;;;;;;;;;;;;;;-124.988556;-68.20123;77.99005;;1551.8
1729.0;1614.5;;;;;;;;;;;;;;-0.42561114;-1.2908719;-0.26899013;;;;;1551.8
1729.0;1619.4;;;;-0.36410525;0.8275491;0.3668442;;;;;;;;;;;;;;;
1729.0;1619.4;;;;-0.36530688;0.8298036;0.37461475;;;;;;;;;;;;;;;
1729.0;1619.4;;;;-0.36443713;0.8313867;0.38248068;;;;;;;;;;;;;;;
1729.0;1619.4;;;;-0.3642502;0.83316433;0.38943487;;;;;;;;;;;;;;;
1729.0;1619.4;;;;-0.36508182;0.8337251;0.3955918;;;;;;;;;;;;;;;
1729.0;1621.9;262143;262143;13527;;;;;;;;;;;;;;;;;;
1730.0;1629.4;;;;-0.36398318;0.83400357;0.40199667;;;;;;;;;;;;;;;
1730.0;1629.4;;;;-0.36431506;0.8341409;0.40842062;;;;;;;;;;;;;;;
1730.0;1629.4;;;;-0.3639107;0.8337785;0.4135514;;;;;;;;;;;;;;;
1730.0;1629.4;;;;-0.36408237;0.83280957;0.41795355;;;;;;;;;;;;;;;
1730.0;1629.4;;;;-0.36480716;0.8319055;0.42186362;;;;;;;;;;;;;;;
1730.0;1639.4;;;;-0.3644028;0.8305322;0.4266091;;;;;;;;;;;;;;;
1730.0;1639.4;;;;-0.36304858;0.8287126;0.4314614;;;;;;;;;;;;;;;
1730.0;1639.4;;;;-0.36159137;0.8271409;0.43524176;;;;;;;;;;;;;;;
1730.0;1639.4;;;;-0.36130908;0.8251573;0.43887335;;;;;;;;;;;;;;;
1730.0;1639.4;;;;-0.360714;0.8233415;0.4423905;;;;;;;;;;;;;;;
1730.0;1641.9;262143;262143;13524;;;;;;;;;;;;;;;;;;
1730.0;1648.2;;;;;;;;;;;;;-4448;;;;;;;;
1730.0;1648.2;;;;;;;;;;;;;-4733;;;;;;;;
1730.0;1648.2;;;;;;;;;;;;;-4989;;;;;;;;
1730.0;1648.2;;;;;;;;;;;;;-5937;;;;;;;;
1730.0;1648.2;;;;;;;;;;;;;-7549;;;;;;;;
1730.0;1649.5;;;;-0.35989;0.82104504;0.44551855;;;;;;;;;;;;;;;
1730.0;1649.5;;;;-0.35886005;0.81842434;0.44886404;;;;;;;;;;;;;;;
1730.0;1649.5;;;;-0.35855487;0.81658566;0.45273596;;;;;;;;;;;;;;;
1730.0;1649.5;;;;-0.35798648;0.8149644;0.45935446;;;;;;;;;;;;;;;
1730.0;1649.5;;;;-0.35634997;0.8135873;0.46794897;;;;;;;;;;;;;;;
1731.0;1659.7;;;;;;;;;;;;;;;;;-124.988556;-78.66908;77.90613;;1561.3
1731.0;1659.7;;;;;;;;;;;;;;-0.3999756;-1.3055208;-0.22046572;;;;;1561.3
1731.0;1659.7;;;;;;;;;;;;;;;;;-124.988556;-83.97931;76.24668;;1561.3
1731.0;1659.7;;;;;;;;;;;;;;-0.34650716;-1.2965484;-0.1826838;;;;;1561.3
1731.0;1659.7;;;;;;;;;;;;;;;;;-124.645226;-88.820305;75.2472;;1570.9
1731.0;1659.7;;;;;;;;;;;;;;-0.2952971;-1.2725608;-0.17639698;;;;;1570.9
1731.0;1659.7;;;;;;;;;;;;;;;;;-122.37922;-87.37831;73.377945;;1570.9
1731.0;1659.7;;;;;;;;;;;;;;-0.23065889;-1.2524797;-0.17737357;;;;;1570.9
1731.0;1659.7;;;;;;;;;;;;;;;;;-117.736595;-79.17264;72.31742;;1580.6
1731.0;1659.7;;;;;;;;;;;;;;-0.17950988;-1.2182989;-0.16223639;;;;;1580.6
1731.0;1659.7;;;;;;;;;;;;;;;;;-112.59422;-64.775536;70.94409;;1580.6
1731.0;1659.7;;;;;;;;;;;;;;-0.135197;-1.1938841;-0.13330485;;;;;1580.6
1731.0;1659.5;;;;-0.35459903;0.81325924;0.47877508;;;;;;;;;;;;;;;
1731.0;1659.5;;;;-0.35236362;0.8140298;0.48945242;;;;;;;;;;;;;;;
1731.0;1659.5;;;;-0.35305026;0.81579983;0.49696356;;;;;;;;;;;;;;;
1731.0;1659.5;;;;-0.35232928;0.81751263;0.5031777;;;;;;;;;;;;;;;
1731.0;1659.5;;;;-0.35121158;0.81957257;0.50734335;;;;;;;;;;;;;;;
1731.0;1662.1;262143;262143;13524;;;;;;;;;;;;;;;;;;
1731.0;1669.6;;;;-0.34884647;0.8215066;0.5108109;;;;;;;;;;;;;;;
1731.0;1669.6;;;;-0.34447864;0.8237649;0.51473624;;;;;;;;;;;;;;;
1731.0;1669.6;;;;-0.3404236;0.8262979;0.5194016;;;;;;;;;;;;;;;
1731.0;1669.6;;;;-0.33592227;0.8293878;0.52483374;;;;;;;;;;;;;;;
1731.0;1669.6;;;;-0.3317528;0.8332292;0.53098685;;;;;;;;;;;;;;;
1786.0;1675.1;;;;;;;;;;;;;;;;;-106.60116;-47.43721;69.1969;;1590.2
1786.0;1675.1;;;;;;;;;;;;;;-0.13617359;-1.1752068;-0.08050783;;;;;1590.2
1786.0;1675.1;;;;;;;;;;;;;;;;;-100.68437;-32.898956;67.9609;;1590.2
1786.0;1675.1;;;;;;;;;;;;;;-0.13397625;-1.1913816;-0.061342206;;;;;1590.2
1786.0;1675.1;;;;;;;;;;;;;;;;;-91.013824;-20.432142;65.553764;;1599.8
1786.0;1675.1;;;;;;;;;;;;;;-0.14062929;-1.1880245;-0.029847102;;;;;1599.8
1786.0;1675.1;;;;;;;;;;;;;;;;;-79.8326;-13.206885;61.365093;;1599.8
1786.0;1675.1;;;;;;;;;;;;;;-0.14539018;-1.1864376;-0.012390515;;;;;1599.8
1786.0;1675.1;;;;;;;;;;;;;;;;;-67.468796;-9.250923;56.501205;;1609.5
1786.0;1675.1;;;;;;;;;;;;;;-0.13544114;-1.1852168;0.006775109;;;;;1609.5
1786.0;1675.1;;;;;;;;;;;;;;;;;-53.7698;-6.5080724;52.10654;;1609.5
1786.0;1675.1;;;;;;;;;;;;;;-0.12518692;-1.1767937;0.037781917;;;;;1609.5
1786.0;1679.5;;;;-0.32884982;0.83812344;0.5368729;;;;;;;;;;;;;;;
1786.0;1679.5;;;;-0.32668307;0.8435823;0.5418282;;;;;;;;;;;;;;;
1786.0;1679.5;;;;-0.32514957;0.84868634;0.54365927;;;;;;;;;;;;;;;
1786.0;1679.5;;;;-0.32358554;0.8533746;0.54362494;;;;;;;;;;;;;;;
1786.0;1679.5;;;;-0.32247546;0.85637295;0.54080206;;;;;;;;;;;;;;;
1786.0;1682.1;262143;262143;13520;;;;;;;;;;;;;;;;;;
1786.0;1688.2;;;;;;;;;;;;;-9244;;;;;;;;
1786.0;1688.2;;;;;;;;;;;;;-10454;;;;;;;;
1786.0;1688.2;;;;;;;;;;;;;-10871;;;;;;;;
1786.0;1688.2;;;;;;;;;;;;;-9846;;;;;;;;
1786.0;1688.2;;;;;;;;;;;;;-6484;;;;;;;;
1790.0;1689.3;;;;-0.32218555;0.85762036;0.5375634;;;;;;;;;;;;;;;
1790.0;1689.3;;;;-0.32289127;0.8575517;0.53415686;;;;;;;;;;;;;;;
1790.0;1689.3;;;;-0.3231888;0.85520947;0.5295983;;;;;;;;;;;;;;;
1790.0;1689.3;;;;-0.32408908;0.85237134;0.52550894;;;;;;;;;;;;;;;
1790.0;1689.3;;;;-0.3253136;0.84799206;0.52159506;;;;;;;;;;;;;;;
1790.0;1699.3;;;;-0.32630923;0.84281933;0.5186387;;;;;;;;;;;;;;;
1790.0;1699.3;;;;-0.32790378;0.8362504;0.5176316;;;;;;;;;;;;;;;
1790.0;1699.3;;;;-0.32906726;0.82839215;0.5177689;;;;;;;;;;;;;;;
1790.0;1699.3;;;;-0.3297806;0.81918347;0.5185204;;;;;;;;;;;;;;;
1790.0;1699.3;;;;-0.33181766;0.8078805;0.52104956;;;;;;;;;;;;;;;
1790.0;1702.0;262143;262143;13527;;;;;;;;;;;;;;;;;;
1790.0;1709.4;;;;-0.3346291;0.794716;0.5237008;;;;;;;;;;;;;;;
1790.0;1709.4;;;;-0.33809283;0.7803422;0.5278092;;;;;;;;;;;;;;;
1790.0;1709.4;;;;-0.3426781;0.7648965;0.5308953;;;;;;;;;;;;;;;
1790.0;1709.4;;;;-0.3479958;0.7475472;0.5320931;;;;;;;;;;;;;;;
1790.0;1709.4;;;;-0.35438922;0.7284394;0.531189;;;;;;;;;;;;;;;
1793.0;1719.6;;;;;;;;;;;;;;;;;-41.3068;-5.8862576;47.71569;;1619.1
1793.0;1719.6;;;;;;;;;;;;;;-0.11713004;-1.1615344;0.079775386;;;;;1619.1
1793.0;1719.6;;;;;;;;;;;;;;;;;-33.421585;-6.599628;43.042545;;1619.1
1793.0;1719.6;;;;;;;;;;;;;;-0.112857446;-1.1497543;0.12445448;;;;;1619.1
1793.0;1719.6;;;;;;;;;;;;;;;;;-30.575731;-7.438887;38.064213;;1628.7
1793.0;1719.6;;;;;;;;;;;;;;-0.13159582;-1.1425519;0.17200232;;;;;1628.7
1793.0;1719.6;;;;;;;;;;;;;;;;;-31.441696;-9.617146;33.062992;;1628.7
1793.0;1719.6;;;;;;;;;;;;;;-0.1563158;-1.1354107;0.20630513;;;;;1628.7
1793.0;1719.6;;;;;;;;;;;;;;;;;-34.131138;-13.283181;28.618732;;1638.4
1793.0;1719.6;;;;;;;;;;;;;;-0.18012024;-1.1219214;0.2224189;;;;;1638.4
1793.0;1719.6;;;;;;;;;;;;;;;;;-36.99225;-17.525253;25.070955;;1638.4
1793.0;1719.6;;;;;;;;;;;;;;-0.20038453;-1.1069063;0.22199164;;;;;1638.4
1793.0;1719.5;;;;-0.36054996;0.7078591;0.5281411;;;;;;;;;;;;;;;
1793.0;1719.5;;;;-0.36717227;0.68523794;0.52135473;;;;;;;;;;;;;;;
1793.0;1719.5;;;;-0.3748131;0.66208655;0.51164633;;;;;;;;;;;;;;;
1793.0;1719.5;;;;-0.38219458;0.6380654;0.5012093;;;;;;;;;;;;;;;
1793.0;1719.5;;;;-0.39041907;0.61441046;0.49081808;;;;;;;;;;;;;;;
1793.0;1722.0;262143;262143;13511;;;;;;;;;;;;;;;;;;
1807.0;1727.1;;;;;;;;;;;;;;;;;-38.548695;-22.751549;22.122105;;1647.9
1807.0;1727.1;;;;;;;;;;;;;;-0.2235786;-1.079989;0.2202826;;;;;1647.9
1807.0;1727.1;;;;;;;;;;;;;;;;;-37.659843;-28.645435;19.61577;;1647.9
1807.0;1727.1;;;;;;;;;;;;;;-0.26654866;-1.0309153;0.22583698;;;;;1647.9
1807.0;1727.1;;;;;;;;;;;;;;;;;-34.245583;-35.222176;17.071291;;1657.6
1807.0;1727.1;;;;;;;;;;;;;;-0.2941374;-0.97396773;0.23999757;;;;;1657.6
1807.0;1727.1;;;;;;;;;;;;;;;;;-28.56151;-42.439804;14.824367;;1657.6
1807.0;1727.1;;;;;;;;;;;;;;-0.32935575;-0.9043245;0.2633137;;;;;1657.6
1807.0;1727.1;;;;;;;;;;;;;;;;;-22.209845;-49.893948;12.642292;;1667.2
1807.0;1727.1;;;;;;;;;;;;;;-0.34571368;-0.82680744;0.28455457;;;;;1667.2
1807.0;1727.1;;;;;;;;;;;;;;;;;-16.49144;-55.986206;11.009553;;1667.2
1807.0;1727.1;;;;;;;;;;;;;;-0.39301735;-0.7694937;0.34400463;;;;;1667.2
1807.0;1728.2;;;;;;;;;;;;;-854;;;;;;;;
1807.0;1728.2;;;;;;;;;;;;;6172;;;;;;;;
1807.0;1728.2;;;;;;;;;;;;;11960;;;;;;;;
1807.0;1728.2;;;;;;;;;;;;;12273;;;;;;;;
1807.0;1728.2;;;;;;;;;;;;;7424;;;;;;;;
1807.0;1729.3;;;;-0.40005118;0.59213644;0.4830132;;;;;;;;;;;;;;;
1807.0;1729.3;;;;-0.4104615;0.572403;0.4784699;;;;;;;;;;;;;;;
1807.0;1729.3;;;;-0.42264944;0.5561028;0.47644812;;;;;;;;;;;;;;;
1807.0;1729.3;;;;-0.4370728;0.5445176;0.4758988;;;;;;;;;;;;;;;
1807.0;1729.3;;;;-0.4548989;0.5386773;0.47799307;;;;;;;;;;;;;;;
1807.0;1739.3;;;;;;;;;;-0.42344433;19.95529;-2.5025177;;;;;;;;;
1807.0;1739.3;;;;;;;-0.028138066;-0.9269082;-0.12799463;;;;;;;;;;;;
1807.0;1739.3;;;;;;;;;;6.7369614;31.586658;7.801294;;;;;;;;;
1807.0;1739.3;;;;;;;-0.01721244;-1.0235908;-0.13531907;;;;;;;;;;;;
1845.0;1739.3;;;;-0.4739228;0.5385285;0.4807816;;;;;;;;;;;;;;;
1845.0;1739.3;;;;-0.4954148;0.54420096;0.4850121;;;;;;;;;;;;;;;
1845.0;1739.3;;;;-0.51936346;0.55540854;0.4889298;;;;;;;;;;;;;;;
1845.0;1739.3;;;;-0.5451012;0.57212836;0.49168783;;;;;;;;;;;;;;;
1845.0;1739.3;;;;-0.57181555;0.5938645;0.4943238;;;;;;;;;;;;;;;
1845.0;1742.1;262143;262143;13516;;;;;;;;;;;;;;;;;;
1845.0;1748.8;;;;;;;;;;4.3107395;2.723777;5.8290353;;;;;;;;;
1845.0;1748.8;;;;;;;0.007934812;-0.9938658;-0.12988678;;;;;;;;;;;;
1845.0;1748.8;;;;;;;;;;14.877774;9.128849;6.65685;;;;;;;;;
1845.0;1748.8;;;;;;;0.022827845;-0.9706717;-0.12768945;;;;;;;;;;;;
1845.0;1749.3;;;;-0.59859854;0.61899954;0.49618155;;;;;;;;;;;;;;;
1845.0;1749.3;;;;-0.62541205;0.6485024;0.49919897;;;;;;;;;;;;;;;
1845.0;1749.3;;;;-0.65157324;0.680275;0.50040823;;;;;;;;;;;;;;;
1845.0;1749.3;;;;-0.67561346;0.7130776;0.4979592;;;;;;;;;;;;;;;
1845.0;1749.3;;;;-0.6972695;0.7469178;0.49368292;;;;;;;;;;;;;;;
1845.0;1758.2;;;;;;;;;;21.431623;1.0338145;6.1609244;;;;;;;;;
1845.0;1758.2;;;;;;;0.048036136;-0.95199436;-0.13715018;;;;;;;;;;;;
1845.0;1758.2;;;;;;;;;;20.928068;-45.590836;-14.374218;;;;;;;;;
1845.0;1758.2;;;;;;;0.106631674;-0.9076815;-0.1683401;;;;;;;;;;;;
1849.0;1759.1;;;;-0.71879965;0.78193295;0.48668677;;;;;;;;;;;;;;;
1849.0;1759.1;;;;-0.7395173;0.81684124;0.47832114;;;;;;;;;;;;;;;
1849.0;1759.1;;;;-0.75903714;0.8519021;0.46924216;;;;;;;;;;;;;;;
1849.0;1759.1;;;;-0.7779046;0.88881314;0.46292502;;;;;;;;;;;;;;;
1849.0;1759.1;;;;-0.7973558;0.9270822;0.4587174;;;;;;;;;;;;;;;
1849.0;1761.9;262143;262143;13525;;;;;;;;;;;;;;;;;;
1849.0;1767.8;;;;;;;;;;21.11118;-60.163425;-14.969329;;;;;;;;;
1849.0;1767.8;;;;;;;0.12518692;-0.90298164;-0.17462692;;;;;;;;;;;;
1849.0;1767.8;;;;;;;;;;18.574327;-76.87613;-13.53496;;;;;;;;;
1849.0;1767.8;;;;;;;0.14276558;-0.91006196;-0.09851375;;;;;;;;;;;;
1849.0;1768.2;;;;;;;;;;;;;4178;;;;;;;;
1849.0;1768.2;;;;;;;;;;;;;7698;;;;;;;;
1849.0;1768.2;;;;;;;;;;;;;14499;;;;;;;;
1849.0;1768.2;;;;;;;;;;;;;16997;;;;;;;;
1849.0;1768.2;;;;;;;;;;;;;13419;;;;;;;;
1849.0;1769.3;;;;-0.81676877;0.9667741;0.45294577;;;;;;;;;;;;;;;
1849.0;1769.3;;;;-0.8361665;1.0066606;0.44283682;;;;;;;;;;;;;;;
1849.0;1769.3;;;;-0.85321057;1.044861;0.42898947;;;;;;;;;;;;;;;
1849.0;1769.3;;;;-0.86615;1.0819017;0.41467673;;;;;;;;;;;;;;;
1849.0;1769.3;;;;-0.87363446;1.1169587;0.39887244;;;;;;;;;;;;;;;
1849.0;1777.4;;;;;;;;;;21.763514;-80.46968;-5.8671837;;;;;;;;;
1849.0;1777.4;;;;;;;0.12335581;-1.0599078;-0.14526811;;;;;;;;;;;;
1849.0;1777.4;;;;;;;;;;18.814661;-78.26853;7.038331;;;;;;;;;
1849.0;1777.4;;;;;;;0.0413831;-1.1483505;-0.15625477;;;;;;;;;;;;
1850.0;1779.4;;;;-0.8755647;1.1500818;0.38027197;;;;;;;;;;;;;;;
1850.0;1779.4;;;;-0.87422955;1.1820184;0.35960773;;;;;;;;;;;;;;;
1850.0;1779.4;;;;-0.8691865;1.2114526;0.3365822;;;;;;;;;;;;;;;
1850.0;1779.4;;;;-0.86345685;1.2388574;0.31301883;;;;;;;;;;;;;;;
1850.0;1779.4;;;;-0.8589593;1.266121;0.28953555;;;;;;;;;;;;;;;
1850.0;1779.7;;;;;;;;;;;;;;;;;-9.849849;-60.434277;10.700553;;1676.7
1850.0;1779.7;;;;;;;;;;;;;;-0.47065645;-0.793054;0.46717733;;;;;1676.7
1850.0;1779.7;;;;;;;;;;;;;;;;;-8.022553;-65.45839;11.131626;;1676.7
1850.0;1779.7;;;;;;;;;;;;;;-0.45033112;-0.87594223;0.4234138;;;;;1676.7
1850.0;1779.7;;;;;;;;;;;;;;;;;-29.786066;-62.997833;13.3785515;;1686.2
1850.0;1779.7;;;;;;;;;;;;;;-0.36664936;-0.95394754;0.13031404;;;;;1686.2
1850.0;1779.7;;;;;;;;;;;;;;;;;-81.67898;-36.793877;18.593403;;1686.2
1850.0;1779.7;;;;;;;;;;;;;;-0.3679922;-1.1863766;-0.3234962;;;;;1686.2
1850.0;1779.7;;;;;;;;;;;;;;;;;-111.9953;-8.022553;26.177252;;1695.8
1850.0;1779.7;;;;;;;;;;;;;;-0.64394057;-1.475631;-0.48463392;;;;;1695.8
1850.0;1779.7;;;;;;;;;;;;;;;;;-86.24149;-21.935179;35.309914;;1695.8
1850.0;1779.7;;;;;;;;;;;;;;-0.78853726;-1.4668417;-0.5074618;;;;;1695.8
1850.0;1782.1;262143;262143;13519;;;;;;;;;;;;;;;;;;
1850.0;1786.9;;;;;;;;;;17.075106;-80.1149;20.943327;;;;;;;;;
1850.0;1786.9;;;;;;;0.1015656;-1.155797;-0.13037507;;;;;;;;;;;;
1850.0;1786.9;;;;;;;;;;20.218512;-79.302345;26.608326;;;;;;;;;
1850.0;1786.9;;;;;;;0.16736351;-1.1431624;-0.17322306;;;;;;;;;;;;
1852.0;1787.4;;;;;;;;;;;;;;;;;-54.898983;-41.135136;41.753136;;1705.4
1852.0;1787.4;;;;;;;;;;;;;;-0.74404126;-1.2539445;-0.5954161;;;;;1705.4
1852.0;1787.4;;;;;;;;;;;;;;;;;-50.904873;-30.793177;43.17225;;1705.4
1852.0;1787.4;;;;;;;;;;;;;;-0.7423322;-1.1435286;-0.70131534;;;;;1705.4
1852.0;1787.4;;;;;;;;;;;;;;;;;-55.322426;-10.387737;39.044617;;1715.0
1852.0;1787.4;;;;;;;;;;;;;;-0.75679797;-1.1631825;-0.71883297;;;;;1715.0
1852.0;1787.4;;;;;;;;;;;;;;;;;-47.032837;-0.28992584;32.013916;;1715.0
1852.0;1787.4;;;;;;;;;;;;;;-0.7549669;-1.1604968;-0.65742975;;;;;1715.0
1852.0;1787.4;;;;;;;;;;;;;;;;;-27.569658;2.0981476;26.276438;;1724.6
1852.0;1787.4;;;;;;;;;;;;;;-0.7177343;-1.0824915;-0.61061436;;;;;1724.6
1852.0;1787.4;;;;;;;;;;;;;;;;;-8.327739;5.4437394;24.25077;;1724.6
1852.0;1787.4;;;;;;;;;;;;;;-0.70198673;-0.9716483;-0.6131779;;;;;1724.6
1852.0;1789.1;;;;-0.8553659;1.292801;0.26742938;;;;;;;;;;;;;;;
1852.0;1789.1;;;;-0.85092556;1.3196527;0.24605182;;;;;;;;;;;;;;;
1852.0;1789.1;;;;-0.84596264;1.3462182;0.22766116;;;;;;;;;;;;;;;
1852.0;1789.1;;;;-0.8391992;1.3731157;0.21118167;;;;;;;;;;;;;;;
1852.0;1789.1;;;;-0.8318597;1.4007379;0.19687656;;;;;;;;;;;;;;;
1852.0;1796.2;;;;;;;;;;19.05881;-84.52101;27.485731;;;;;;;;;
1852.0;1796.2;;;;;;;0.18628499;-1.1311991;-0.1561327;;;;;;;;;;;;
1852.0;1796.2;;;;;;;;;;17.334513;-88.7669;31.35014;;;;;;;;;
1852.0;1796.2;;;;;;;0.2033143;-1.1106296;-0.14185004;;;;;;;;;;;;
1906.0;1799.1;;;;-0.82188046;1.428444;0.18564226;;;;;;;;;;;;;;;
1906.0;1799.1;;;;-0.8104631;1.4556466;0.17557909;;;;;;;;;;;;;;;
1906.0;1799.1;;;;-0.7962152;1.481743;0.16623308;;;;;;;;;;;;;;;
1906.0;1799.1;;;;-0.7811395;1.5066912;0.15742494;;;;;;;;;;;;;;;
1906.0;1799.1;;;;-0.76396954;1.529957;0.14982606;;;;;;;;;;;;;;;
1906.0;1802.0;262143;262143;13504;;;;;;;;;;;;;;;;;;
1906.0;1805.8;;;;;;;;;;14.358959;-92.520676;33.791622;;;;;;;;;
1906.0;1805.8;;;;;;;0.2196112;-1.0738243;-0.122318186;;;;;;;;;;;;
1906.0;1805.8;;;;;;;;;;10.628071;-96.37364;35.256508;;;;;;;;;
1906.0;1805.8;;;;;;;0.22162542;-1.0242622;-0.090456866;;;;;;;;;;;;
1906.0;1808.2;;;;;;;;;;;;;8443;;;;;;;;
1906.0;1808.2;;;;;;;;;;;;;5729;;;;;;;;
1906.0;1808.2;;;;;;;;;;;;;4188;;;;;;;;
1906.0;1808.2;;;;;;;;;;;;;2491;;;;;;;;
1906.0;1808.2;;;;;;;;;;;;;2342;;;;;;;;
1906.0;1809.2;;;;-0.74533087;1.5509722;0.14263155;;;;;;;;;;;;;;;
1906.0;1809.2;;;;-0.7264939;1.5708697;0.13399507;;;;;;;;;;;;;;;
1906.0;1809.2;;;;-0.7063218;1.5876086;0.12741853;;;;;;;;;;;;;;;
1906.0;1809.2;;;;-0.68445593;1.6016276;0.120849624;;;;;;;;;;;;;;;
1906.0;1809.2;;;;-0.6606217;1.6134837;0.115425125;;;;;;;;;;;;;;;
1906.0;1815.2;;;;;;;;;;8.102665;-98.96771;36.713768;;;;;;;;;
1906.0;1815.2;;;;;;;0.23993652;-0.9632252;-0.089602344;;;;;;;;;;;;
1906.0;1815.2;;;;;;;;;;3.521073;-98.723564;38.6021;;;;;;;;;
1906.0;1815.2;;;;;;;0.2445143;-0.9067049;-0.07696768;;;;;;;;;;;;
1908.0;1819.1;;;;-0.63735586;1.6224024;0.1106682;;;;;;;;;;;;;;;
1908.0;1819.1;;;;-0.61612326;1.6306078;0.10461809;;;;;;;;;;;;;;;
1908.0;1819.1;;;;-0.59701544;1.6376307;0.09673311;;;;;;;;;;;;;;;
1908.0;1819.1;;;;-0.57687765;1.643841;0.0890503;;;;;;;;;;;;;;;
1908.0;1819.1;;;;-0.5575982;1.6496775;0.08040238;;;;;;;;;;;;;;;
1908.0;1822.0;262143;262143;13506;;;;;;;;;;;;;;;;;;
1908.0;1824.8;;;;;;;;;;-1.8959624;-96.449936;41.66158;;;;;;;;;
1908.0;1824.8;;;;;;;0.24359874;-0.860622;-0.061098058;;;;;;;;;;;;
1908.0;1824.8;;;;;;;;;;-7.1108127;-92.90979;44.820244;;;;;;;;;
1908.0;1824.8;;;;;;;0.24164556;-0.8247322;-0.04388562;;;;;;;;;;;;
1908.0;1829.2;;;;-0.5388413;1.6561015;0.07111741;;;;;;;;;;;;;;;
1908.0;1829.2;;;;-0.5232735;1.6621325;0.062198646;;;;;;;;;;;;;;;
1908.0;1829.2;;;;-0.51079184;1.6697657;0.05146409;;;;;;;;;;;;;;;
1908.0;1829.2;;;;-0.501133;1.6779482;0.04063416;;;;;;;;;;;;;;;
1908.0;1829.2;;;;-0.49368292;1.6868212;0.027748112;;;;;;;;;;;;;;;
1908.0;1834.4;;;;;;;;;;-11.967071;-89.01105;47.77291;;;;;;;;;
1908.0;1834.4;;;;;;;0.24134037;-0.7948851;-0.025940733;;;;;;;;;;;;
1908.0;1834.4;;;;;;;;;;-16.37318;-84.56679;50.22202;;;;;;;;;
1908.0;1834.4;;;;;;;0.24201179;-0.7663808;-0.008423109;;;;;;;;;;;;
1909.0;1839.3;;;;-0.4885369;1.696068;0.014278414;;;;;;;;;;;;;;;
1909.0;1839.3;;;;-0.48764807;1.7073557;0.0010452272;;;;;;;;;;;;;;;
1909.0;1839.3;;;;-0.4879914;1.7203639;-0.012199404;;;;;;;;;;;;;;;
1909.0;1839.3;;;;-0.49167258;1.7345774;-0.025150303;;;;;;;;;;;;;;;
1909.0;1839.3;;;;-0.4957543;1.749882;-0.03685761;;;;;;;;;;;;;;;
1909.0;1839.8;;;;;;;;;;;;;;;;;5.897702;10.65096;24.632254;;1734.2
1909.0;1839.8;;;;;;;;;;;;;;-0.73897517;-0.877163;-0.59694207;;;;;1734.2
1909.0;1839.8;;;;;;;;;;;;;;;;;18.94055;15.522477;24.204994;;1734.2
1909.0;1839.8;;;;;;;;;;;;;;-0.79964596;-0.87545395;-0.4613788;;;;;1734.2
1909.0;1839.8;;;;;;;;;;;;;;;;;31.548508;26.6274;18.539995;;1743.8
1909.0;1839.8;;;;;;;;;;;;;;-0.77468187;-0.93545336;-0.31488997;;;;;1743.8
1909.0;1839.8;;;;;;;;;;;;;;;;;35.39384;55.29191;10.956145;;1743.8
1909.0;1839.8;;;;;;;;;;;;;;-0.6526078;-1.0383618;-0.30573443;;;;;1743.8
1909.0;1839.8;;;;;;;;;;;;;;;;;30.518509;84.2082;4.1695914;;1753.3
1909.0;1839.8;;;;;;;;;;;;;;-0.6227607;-1.1841792;-0.33362836;;;;;1753.3
1909.0;1839.8;;;;;;;;;;;;;;;;;29.953917;88.74019;0.22888882;;1753.3
1909.0;1839.8;;;;;;;;;;;;;;-0.6351512;-1.2832423;-0.27723014;;;;;1753.3
1909.0;1842.1;262143;262143;13509;;;;;;;;;;;;;;;;;;
1909.0;1843.9;;;;;;;;;;-20.69155;-79.824974;52.041687;;;;;;;;;
1909.0;1843.9;;;;;;;0.24274422;-0.7405011;0.009094516;;;;;;;;;;;;
1909.0;1843.9;;;;;;;;;;-24.689476;-75.121315;53.323467;;;;;;;;;
1909.0;1843.9;;;;;;;0.23767816;-0.72261727;0.03668325;;;;;;;;;;;;
1910.0;1847.1;;;;;;;;;;;;;;;;;35.74862;70.69994;-1.0872219;;1763.0
1910.0;1847.1;;;;;;;;;;;;;;-0.64876246;-1.2963042;-0.14099552;;;;;1763.0
1910.0;1847.1;;;;;;;;;;;;;;;;;40.665913;42.062138;-1.0567034;;1763.0
1910.0;1847.1;;;;;;;;;;;;;;-0.6190985;-1.2162236;-0.058107242;;;;;1763.0
1910.0;1847.1;;;;;;;;;;;;;;;;;38.415176;18.223366;-0.07629627;;1772.6
1910.0;1847.1;;;;;;;;;;;;;;-0.6071963;-1.1010468;-0.09668264;;;;;1772.6
1910.0;1847.1;;;;;;;;;;;;;;;;;31.693474;2.6779993;1.5526291;;1772.6
1910.0;1847.1;;;;;;;;;;;;;;-0.633137;-0.999176;-0.19757684;;;;;1772.6
1910.0;1847.1;;;;;;;;;;;;;;;;;26.181067;-8.785516;2.8115177;;1782.3
1910.0;1847.1;;;;;;;;;;;;;;-0.6672567;-0.92916656;-0.24597919;;;;;1782.3
1910.0;1847.1;;;;;;;;;;;;;;;;;21.629993;-17.365032;4.799036;;1782.3
1910.0;1847.1;;;;;;;;;;;;;;-0.6979583;-0.8867458;-0.22461623;;;;;1782.3
1910.0;1848.2;;;;;;;;;;;;;4977;;;;;;;;
1910.0;1848.2;;;;;;;;;;;;;9398;;;;;;;;
1910.0;1848.2;;;;;;;;;;;;;14185;;;;;;;;
1910.0;1848.2;;;;;;;;;;;;;18515;;;;;;;;
1910.0;1848.2;;;;;;;;;;;;;22451;;;;;;;;
1910.0;1849.1;;;;-0.5023423;1.7665331;-0.04779435;;;;;;;;;;;;;;;
1910.0;1849.1;;;;-0.5093995;1.7837336;-0.058284767;;;;;;;;;;;;;;;
1910.0;1849.1;;;;-0.51694113;1.8016284;-0.06752015;;;;;;;;;;;;;;;
1910.0;1849.1;;;;-0.5241738;1.8186915;-0.07813645;;;;;;;;;;;;;;;
1910.0;1849.1;;;;-0.5325127;1.8353274;-0.088737495;;;;;;;;;;;;;;;
1910.0;1853.4;;;;;;;;;;-26.84866;-69.921715;54.23139;;;;;;;;;
1910.0;1853.4;;;;;;;0.23316142;-0.70961636;0.06524857;;;;;;;;;;;;
1910.0;1853.4;;;;;;;;;;-26.84103;-64.512314;54.95239;;;;;;;;;
1910.0;1853.4;;;;;;;0.25495163;-0.6905118;0.042725913;;;;;;;;;;;;
1969.0;1859.1;;;;-0.5431977;1.8516161;-0.09877397;;;;;;;;;;;;;;;
1969.0;1859.1;;;;-0.55229956;1.866482;-0.099144;;;;;;;;;;;;;;;
1969.0;1859.1;;;;-0.5591355;1.8810122;-0.09539415;;;;;;;;;;;;;;;
1969.0;1859.1;;;;-0.5657578;1.8943942;-0.096599594;;;;;;;;;;;;;;;
1969.0;1859.1;;;;-0.57020193;1.9050868;-0.09876253;;;;;;;;;;;;;;;
1969.0;1862.1;262143;262143;13500;;;;;;;;;;;;;;;;;;
1969.0;1862.9;;;;;;;;;;-31.651508;-62.91391;53.548542;;;;;;;;;
1969.0;1862.9;;;;;;;0.2728965;-0.6428419;0.058290355;;;;;;;;;;;;
1969.0;1862.9;;;;;;;;;;-39.986877;-59.72091;52.381207;;;;;;;;;
1969.0;1862.9;;;;;;;0.24988556;-0.65218055;0.085024565;;;;;;;;;;;;
1969.0;1869.1;;;;-0.82096875;1.8271029;0.17060854;;;;;;;;;;;;;;;
1969.0;1869.1;;;;-0.12580873;0.7786294;0.3355141;;;;;;;;;;;;;;;
1969.0;1869.1;;;;-0.112777725;1.608433;-0.4239121;;;;;;;;;;;;;;;
1969.0;1869.1;;;;-0.97517407;1.7428629;0.13759233;;;;;;;;;;;;;;;
1969.0;1869.1;;;;-0.45810705;1.6374209;-0.14788438;;;;;;;;;;;;;;;
1969.0;1872.4;;;;;;;;;;-43.019653;-53.29295;53.716393;;;;;;;;;
1969.0;1872.4;;;;;;;0.24152349;-0.6608478;0.09228797;;;;;;;;;;;;
1969.0;1872.4;;;;;;;;;;-45.789207;-47.50206;54.273357;;;;;;;;;
1969.0;1872.4;;;;;;;0.25098422;-0.6551103;0.08594012;;;;;;;;;;;;
1971.0;1879.2;;;;-0.61563116;1.8965495;-0.16079332;;;;;;;;;;;;;;;
1971.0;1879.2;;;;-0.6265221;1.8885043;-0.090305336;;;;;;;;;;;;;;;
1971.0;1879.2;;;;-0.600113;1.891125;-0.017963411;;;;;;;;;;;;;;;
1971.0;1879.2;;;;-0.5630265;1.858536;-0.028392795;;;;;;;;;;;;;;;
1971.0;1879.2;;;;-0.56846243;1.8615916;-0.0030021672;;;;;;;;;;;;;;;
1971.0;1882.0;;;;;;;;;;-48.368023;-44.888912;54.10169;;;;;;;;;
1971.0;1882.0;;;;;;;0.23828852;-0.65681934;0.08264413;;;;;;;;;;;;
1971.0;1882.0;;;;;;;;;;-50.202946;-43.698692;56.360058;;;;;;;;;
1971.0;1882.0;;;;;;;0.22083193;-0.66805017;0.08252205;;;;;;;;;;;;
1971.0;1882.2;262143;262143;13499;;;;;;;;;;;;;;;;;;
1971.0;1888.5;;;;;;;;;;;;;26048;;;;;;;;
1971.0;1888.5;;;;;;;;;;;;;27159;;;;;;;;
1971.0;1888.5;;;;;;;;;;;;;21459;;;;;;;;
1971.0;1888.5;;;;;;;;;;;;;7440;;;;;;;;
1971.0;1888.5;;;;;;;;;;;;;-10688;;;;;;;;
1971.0;1889.3;;;;-0.5561295;1.8093913;-0.060478218;;;;;;;;;;;;;;;
1971.0;1889.3;;;;-0.60980994;1.8374941;-2.2888187E-5;;;;;;;;;;;;;;;
1971.0;1889.3;;;;-0.5372773;1.8127329;0.03078461;;;;;;;;;;;;;;;
1971.0;1889.3;;;;-0.5119439;1.8084071;0.05130387;;;;;;;;;;;;;;;
1971.0;1889.3;;;;-0.4912377;1.7690318;-0.00416565;;;;;;;;;;;;;;;
1971.0;1891.6;;;;;;;;;;-51.023132;-41.730247;60.95309;;;;;;;;;
1971.0;1891.6;;;;;;;0.21729179;-0.66451;0.07818842;;;;;;;;;;;;
1971.0;1891.6;;;;;;;;;;-50.984985;-39.44517;66.04969;;;;;;;;;
1971.0;1891.6;;;;;;;0.20722067;-0.67030853;0.09521775;;;;;;;;;;;;
1974.0;1899.3;;;;-0.5155068;1.7296336;-0.023406984;;;;;;;;;;;;;;;
1974.0;1899.3;;;;-0.50391775;1.7002223;0.00694275;;;;;;;;;;;;;;;
1974.0;1899.3;;;;-0.4844361;1.6995661;0.10601808;;;;;;;;;;;;;;;
1974.0;1899.3;;;;-0.4463349;1.6826136;0.08602906;;;;;;;;;;;;;;;
1974.0;1899.3;;;;-0.41167074;1.652878;0.06384278;;;;;;;;;;;;;;;
1974.0;1901.2;;;;;;;;;;-49.264507;-37.209694;72.02368;;;;;;;;;
1974.0;1901.2;;;;;;;0.20484024;-0.6604816;0.07037568;;;;;;;;;;;;
1974.0;1901.2;;;;;;;;;;-49.066135;-32.662437;76.50609;;;;;;;;;
1974.0;1901.2;;;;;;;0.21942808;-0.64906764;0.101931825;;;;;;;;;;;;
1974.0;1902.5;262143;262143;13503;;;;;;;;;;;;;;;;;;
1974.0;1909.4;;;;-0.40460593;1.636658;0.03785706;;;;;;;;;;;;;;;
1974.0;1909.4;;;;-0.37257007;1.6291049;0.045673374;;;;;;;;;;;;;;;
1974.0;1909.4;;;;-0.35732272;1.5838358;0.04281235;;;;;;;;;;;;;;;
1974.0;1909.4;;;;-0.35165408;1.5362093;0.031120304;;;;;;;;;;;;;;;
1974.0;1909.4;;;;-0.34893802;1.5156062;0.05818177;;;;;;;;;;;;;;;
1974.0;1910.8;;;;;;;;;;-46.32328;-29.690695;79.89745;;;;;;;;;
1974.0;1910.8;;;;;;;0.22559282;-0.6419874;0.047242653;;;;;;;;;;;;
1974.0;1910.8;;;;;;;;;;-51.183353;-30.652027;82.52205;;;;;;;;;
1974.0;1910.8;;;;;;;0.23853268;-0.6320994;0.0369274;;;;;;;;;;;;
2024.0;1919.4;;;;-0.317524;1.4932061;0.08094788;;;;;;;;;;;;;;;
2024.0;1919.4;;;;-0.30400088;1.468918;0.07914353;;;;;;;;;;;;;;;
2024.0;1919.4;;;;-0.286274;1.4511987;0.11732866;;;;;;;;;;;;;;;
2024.0;1919.4;;;;-0.2734833;1.4239236;0.11655046;;;;;;;;;;;;;;;
2024.0;1919.4;;;;-0.2794533;1.3961946;0.0896988;;;;;;;;;;;;;;;
2024.0;1920.3;;;;;;;;;;-58.641315;-31.559956;84.73846;;;;;;;;;
2024.0;1920.3;;;;;;;0.24903104;-0.6239204;0.03991821;;;;;;;;;;;;
2024.0;1920.3;;;;;;;;;;-65.56902;-32.250435;87.118904;;;;;;;;;
2024.0;1920.3;;;;;;;0.25336465;-0.63203835;0.061952576;;;;;;;;;;;;
2024.0;1922.6;262143;262143;13506;;;;;;;;;;;;;;;;;;
2024.0;1928.7;;;;;;;;;;;;;-28044;;;;;;;;
2024.0;1928.7;;;;;;;;;;;;;-43678;;;;;;;;
2024.0;1928.7;;;;;;;;;;;;;-58239;;;;;;;;
2024.0;1928.7;;;;;;;;;;;;;-69990;;;;;;;;
2024.0;1928.7;;;;;;;;;;;;;-75615;;;;;;;;
2024.0;1929.4;;;;-0.13170244;1.570885;-0.020908358;;;;;;;;;;;;;;;
2024.0;1929.4;;;;-0.22337726;1.4479829;0.057544716;;;;;;;;;;;;;;;
2024.0;1929.4;;;;-0.27709582;1.2721902;0.13960268;;;;;;;;;;;;;;;
2024.0;1929.4;;;;-0.27016833;1.2549516;0.07333375;;;;;;;;;;;;;;;
2024.0;1929.4;;;;-0.28712848;1.2423135;0.040775303;;;;;;;;;;;;;;;
2024.0;1929.8;;;;;;;;;;-70.020905;-31.994843;89.97238;;;;;;;;;
2024.0;1929.8;;;;;;;0.2764977;-0.66029847;0.07562487;;;;;;;;;;;;
2024.0;1929.8;;;;;;;;;;-73.778496;-33.09351;92.55501;;;;;;;;;
2024.0;1929.8;;;;;;;0.30744347;-0.69631034;0.08307138;;;;;;;;;;;;
2028.0;1939.3;;;;;;;;;;-78.47071;-35.64562;94.32508;;;;;;;;;
2028.0;1939.3;;;;;;;0.32453382;-0.7495346;0.09411909;;;;;;;;;;;;
2028.0;1939.3;;;;;;;;;;-83.166756;-36.96936;96.76656;;;;;;;;;
2028.0;1939.3;;;;;;;0.3376568;-0.8118534;0.119205296;;;;;;;;;;;;
2028.0;1939.4;;;;-0.2888451;1.2110826;0.0649376;;;;;;;;;;;;;;;
2028.0;1939.4;;;;-0.28789142;1.1950456;0.056026466;;;;;;;;;;;;;;;
2028.0;1939.4;;;;-0.29859164;1.1680375;0.050186165;;;;;;;;;;;;;;;
2028.0;1939.4;;;;-0.31078723;1.1390802;0.04054642;;;;;;;;;;;;;;;
2028.0;1939.4;;;;-0.32374194;1.1066781;0.030063633;;;;;;;;;;;;;;;
2028.0;1942.6;262143;262143;13498;;;;;;;;;;;;;;;;;;
2028.0;1949.0;;;;;;;;;;-86.41316;-36.06143;99.82986;;;;;;;;;
2028.0;1949.0;;;;;;;0.35657826;-0.88106936;0.13617359;;;;;;;;;;;;
2028.0;1949.0;;;;;;;;;;-89.39634;-34.98947;103.15638;;;;;;;;;
2028.0;1949.0;;;;;;;0.372631;-0.9467452;0.15485092;;;;;;;;;;;;
2028.0;1949.5;;;;-0.34129718;1.0673448;0.022296907;;;;;;;;;;;;;;;
2028.0;1949.5;;;;-0.3680344;1.0250283;0.041160587;;;;;;;;;;;;;;;
2028.0;1949.5;;;;-0.35431674;1.0210153;0.032394413;;;;;;;;;;;;;;;
2028.0;1949.5;;;;-0.09211732;1.298832;0.1255684;;;;;;;;;;;;;;;
2028.0;1949.5;;;;-0.22285083;1.1370431;0.18605043;;;;;;;;;;;;;;;
2028.0;1958.6;;;;;;;;;;-92.158264;-34.03195;106.6126;;;;;;;;;
2028.0;1958.6;;;;;;;0.387463;-1.0049134;0.17908262;;;;;;;;;;;;
2028.0;1958.6;;;;;;;;;;-93.90927;-32.56325;109.61104;;;;;;;;;
2028.0;1958.6;;;;;;;0.40119633;-1.0559404;0.2066103;;;;;;;;;;;;
2029.0;1959.6;;;;-0.36778644;1.0460855;0.07759858;;;;;;;;;;;;;;;
2029.0;1959.6;;;;-0.32609943;1.0695764;0.026683811;;;;;;;;;;;;;;;
2029.0;1959.6;;;;-0.3343964;1.0531579;0.02588654;;;;;;;;;;;;;;;
2029.0;1959.6;;;;-0.33201984;1.0384141;0.013160707;;;;;;;;;;;;;;;
2029.0;1959.6;;;;-0.32648852;1.0261194;0.005626679;;;;;;;;;;;;;;;
2029.0;1962.8;262143;262143;13492;;;;;;;;;;;;;;;;;;
2029.0;1968.2;;;;;;;;;;-94.279305;-30.18662;111.79311;;;;;;;;;
2029.0;1968.2;;;;;;;0.41413617;-1.0934782;0.23426008;;;;;;;;;;;;
2029.0;1968.2;;;;;;;;;;-93.15394;-27.321697;113.25419;;;;;;;;;
2029.0;1968.2;;;;;;;0.41297647;-1.1171606;0.2644734;;;;;;;;;;;;
2029.0;1969.0;;;;;;;;;;;;;-75343;;;;;;;;
2029.0;1969.0;;;;;;;;;;;;;-74310;;;;;;;;
2029.0;1969.0;;;;;;;;;;;;;-76360;;;;;;;;
2029.0;1969.0;;;;;;;;;;;;;-80415;;;;;;;;
2029.0;1969.0;;;;;;;;;;;;;-83597;;;;;;;;
2029.0;1969.7;;;;-0.3314362;1.0119516;-0.003963471;;;;;;;;;;;;;;;
2029.0;1969.7;;;;-0.34069064;0.9944154;-0.024135593;;;;;;;;;;;;;;;
2029.0;1969.7;;;;-0.33220294;0.98916256;-0.0138855;;;;;;;;;;;;;;;
2029.0;1969.7;;;;-0.3313904;0.978901;-0.020694735;;;;;;;;;;;;;;;
2029.0;1969.7;;;;-0.33441928;0.9676782;-0.024650577;;;;;;;;;;;;;;;
2029.0;1977.6;;;;;;;;;;-90.30808;-22.881252;114.684746;;;;;;;;;
2029.0;1977.6;;;;;;;0.4276864;-1.1315043;0.286874;;;;;;;;;;;;
2029.0;1977.6;;;;;;;;;;-87.68731;-19.184698;114.22315;;;;;;;;;
2029.0;1977.6;;;;;;;0.44282356;-1.1207007;0.28083134;;;;;;;;;;;;
2086.0;1979.7;;;;-0.3352776;0.95845807;-0.028285984;;;;;;;;;;;;;;;
2086.0;1979.7;;;;-0.337513;0.9483682;-0.028491978;;;;;;;;;;;;;;;
2086.0;1979.7;;;;-0.34007266;0.93808377;-0.027309421;;;;;;;;;;;;;;;
2086.0;1979.7;;;;-0.3416176;0.9281732;-0.026824955;;;;;;;;;;;;;;;
2086.0;1979.7;;;;-0.34576038;0.91809475;-0.02625275;;;;;;;;;;;;;;;
2086.0;1983.0;262143;262143;13502;;;;;;;;;;;;;;;;;;
2086.0;1987.3;;;;;;;;;;-87.33635;-17.212439;112.02582;;;;;;;;;
2086.0;1987.3;;;;;;;0.4346446;-1.106479;0.29865414;;;;;;;;;;;;
2086.0;1987.3;;;;;;;;;;-86.25675;-13.9965515;110.07263;;;;;;;;;
2086.0;1987.3;;;;;;;0.45277262;-1.1053194;0.29059726;;;;;;;;;;;;
2086.0;1989.6;;;;-0.34609225;0.90922177;-0.026401524;;;;;;;;;;;;;;;
2086.0;1989.6;;;;-0.3465424;0.8999597;-0.026889805;;;;;;;;;;;;;;;
2086.0;1989.6;;;;-0.34516528;0.890751;-0.028060917;;;;;;;;;;;;;;;
2086.0;1989.6;;;;-0.34406665;0.8832208;-0.029048923;;;;;;;;;;;;;;;
2086.0;1989.6;;;;-0.34328845;0.87386334;-0.031326298;;;;;;;;;;;;;;;
2086.0;1996.7;;;;;;;;;;-86.809906;-13.183996;107.05894;;;;;;;;;
2086.0;1996.7;;;;;;;0.4483169;-1.0912198;0.2916349;;;;;;;;;;;;
2086.0;1996.7;;;;;;;;;;-87.98105;-12.909329;103.63704;;;;;;;;;
2086.0;1996.7;;;;;;;0.45368817;-1.0857265;0.28223518;;;;;;;;;;;;
2091.0;1999.7;;;;-0.34152225;0.8663293;-0.03357697;;;;;;;;;;;;;;;
2091.0;1999.7;;;;-0.33697894;0.85902417;-0.03633118;;;;;;;;;;;;;;;
2091.0;1999.7;;;;-0.32850268;0.8529321;-0.038600925;;;;;;;;;;;;;;;
2091.0;1999.7;;;;-0.324379;0.8437692;-0.04093552;;;;;;;;;;;;;;;
2091.0;1999.7;;;;-0.32323077;0.8343698;-0.043285374;;;;;;;;;;;;;;;
2091.0;2003.1;262143;262143;13496;;;;;;;;;;;;;;;;;;
2091.0;2006.4;;;;;;;;;;-89.97238;-13.763847;99.67345;;;;;;;;;
2091.0;2006.4;;;;;;;0.4415418;-1.0827967;0.27820674;;;;;;;;;;;;
2091.0;2006.4;;;;;;;;;;-91.38386;-13.443404;96.64068;;;;;;;;;
2091.0;2006.4;;;;;;;0.4252449;-1.0887173;0.28485978;;;;;;;;;;;;
2091.0;2009.3;;;;;;;;;;;;;-83761;;;;;;;;
2091.0;2009.3;;;;;;;;;;;;;-80330;;;;;;;;
2091.0;2009.3;;;;;;;;;;;;;-74542;;;;;;;;
2091.0;2009.3;;;;;;;;;;;;;-67803;;;;;;;;
2091.0;2009.3;;;;;;;;;;;;;-60361;;;;;;;;
2091.0;2009.8;;;;-0.32206348;0.82559216;-0.04684067;;;;;;;;;;;;;;;
2091.0;2009.8;;;;-0.3165398;0.81956494;-0.04928208;;;;;;;;;;;;;;;
2091.0;2009.8;;;;-0.31011203;0.8154756;-0.050472267;;;;;;;;;;;;;;;
2091.0;2009.8;;;;-0.30714038;0.8096925;-0.05162049;;;;;;;;;;;;;;;
2091.0;2009.8;;;;-0.304863;0.8018495;-0.05375672;;;;;;;;;;;;;;;
2091.0;2016.0;;;;;;;;;;-91.13971;-11.379589;94.41283;;;;;;;;;
2091.0;2016.0;;;;;;;0.41126743;-1.0991546;0.28388318;;;;;;;;;;;;
2091.0;2016.0;;;;;;;;;;-90.14404;-9.258553;91.94464;;;;;;;;;
2091.0;2016.0;;;;;;;0.40980256;-1.1040376;0.27790156;;;;;;;;;;;;
2148.0;2019.9;;;;-0.30160525;0.79488766;-0.058338173;;;;;;;;;;;;;;;
2148.0;2019.9;;;;-0.29387286;0.7906724;-0.060913093;;;;;;;;;;;;;;;
2148.0;2019.9;;;;-0.28410342;0.78585064;-0.06256486;;;;;;;;;;;;;;;
2148.0;2019.9;;;;-0.27450183;0.779358;-0.06539918;;;;;;;;;;;;;;;
2148.0;2019.9;;;;-0.26633838;0.7703248;-0.0649376;;;;;;;;;;;;;;;
2148.0;2020.6;;;;;;;;;;;;;;;;;14.461959;-21.69103;8.651998;;1791.8
2148.0;2020.6;;;;;;;;;;;;;;-0.7058931;-0.86159855;-0.24250008;;;;;1791.8
2148.0;2020.6;;;;;;;;;;;;;;;;;3.5859249;-17.30781;13.5883665;;1791.8
2148.0;2020.6;;;;;;;;;;;;;;-0.733665;-0.85830253;-0.37983337;;;;;1791.8
2148.0;2020.6;;;;;;;;;;;;;;;;;-7.1108127;-6.050295;18.333994;;1801.4
2148.0;2020.6;;;;;;;;;;;;;;-0.78591263;-0.90908533;-0.5825983;;;;;1801.4
2148.0;2020.6;;;;;;;;;;;;;;;;;-14.904477;6.4394054;22.141178;;1801.4
2148.0;2020.6;;;;;;;;;;;;;;-0.83028656;-1.01236;-0.74288154;;;;;1801.4
2148.0;2020.6;;;;;;;;;;;;;;;;;-16.613514;15.991699;24.140142;;1810.9
2148.0;2020.6;;;;;;;;;;;;;;-0.8515885;-1.1666006;-0.7829829;;;;;1810.9
2148.0;2020.6;;;;;;;;;;;;;;;;;-9.769737;20.577105;24.25077;;1810.9
2148.0;2020.6;;;;;;;;;;;;;;-0.8550676;-1.3493453;-0.69270915;;;;;1810.9
2151.0;2021.6;;;;;;;;;;;;;;;;;1.2703329;21.408735;23.4344;;1820.5
2151.0;2021.6;;;;;;;;;;;;;;-0.8407239;-1.5142064;-0.5475631;;;;;1820.5
2151.0;2021.6;;;;;;;;;;;;;;;;;11.368145;19.199959;20.004883;;1820.5
2151.0;2021.6;;;;;;;;;;;;;;-0.7619251;-1.6031983;-0.41846982;;;;;1820.5
2151.0;2021.6;;;;;;;;;;;;;;;;;18.250069;13.447219;14.774774;;1830.1
2151.0;2021.6;;;;;;;;;;;;;;-0.6027406;-1.5919676;-0.33332315;;;;;1830.1
2151.0;2021.6;;;;;;;;;;;;;;;;;22.492142;6.878109;8.81222;;1830.1
2151.0;2021.6;;;;;;;;;;;;;;-0.47151098;-1.4829555;-0.28357798;;;;;1830.1
2151.0;2021.6;;;;;;;;;;;;;;;;;23.823511;1.5106663;3.1205175;;1839.8
2151.0;2021.6;;;;;;;;;;;;;;-0.41334268;-1.3129673;-0.23450422;;;;;1839.8
2151.0;2021.6;;;;;;;;;;;;;;;;;22.17551;-3.9063692;-2.3308513;;1839.8
2151.0;2021.6;;;;;;;;;;;;;;-0.38453323;-1.1316264;-0.16498306;;;;;1839.8
2151.0;2022.2;;;;;;;;;;;;;;;;;17.414623;-9.128849;-6.6911836;;1849.5
2151.0;2022.2;;;;;;;;;;;;;;-0.36787012;-0.9804987;-0.08581805;;;;;1849.5
2151.0;2022.2;;;;;;;;;;;;;;;;;10.559404;-14.088107;-8.354443;;1849.5
2151.0;2022.2;;;;;;;;;;;;;;-0.38660848;-0.85909605;-0.017029328;;;;;1849.5
2151.0;2022.2;;;;;;;;;;;;;;;;;4.757073;-20.310068;-7.5800347;;1859.1
2151.0;2022.2;;;;;;;;;;;;;;-0.42585528;-0.7513047;0.018066958;;;;;1859.1
2151.0;2022.2;;;;;;;;;;;;;;;;;0.6256294;-27.40562;-5.035554;;1859.1
2151.0;2022.2;;;;;;;;;;;;;;-0.4753563;-0.64888453;0.011169774;;;;;1859.1
2151.0;2022.2;;;;;;;;;;;;;;;;;-3.1701102;-32.788326;-1.4648885;;1868.8
2151.0;2022.2;;;;;;;;;;;;;;-0.54121524;-0.5594653;-0.0496231;;;;;1868.8
2151.0;2022.2;;;;;;;;;;;;;;;;;-7.881405;-36.141544;2.4605548;;1868.8
2151.0;2022.2;;;;;;;;;;;;;;-0.6153752;-0.49885556;-0.15802485;;;;;1868.8
2152.0;2023.1;262143;262143;13507;;;;;;;;;;;;;;;;;;
2152.0;2025.3;;;;;;;;;;-89.32386;-7.7707753;88.74019;;;;;;;;;
2152.0;2025.3;;;;;;;0.4069338;-1.1059908;0.2745445;;;;;;;;;;;;
2152.0;2025.3;;;;;;;;;;-88.827934;-6.572924;85.09705;;;;;;;;;
2152.0;2025.3;;;;;;;0.39936522;-1.1069673;0.2733848;;;;;;;;;;;;
2152.0;2029.8;;;;-0.2567368;0.76446164;-0.06416703;;;;;;;;;;;;;;;
2152.0;2029.8;;;;-0.24820712;0.75950634;-0.06546784;;;;;;;;;;;;;;;
2152.0;2029.8;;;;-0.25125888;0.747696;-0.057724006;;;;;;;;;;;;;;;
2152.0;2029.8;;;;-0.26293185;0.7191506;-0.056201942;;;;;;;;;;;;;;;
2152.0;2029.8;;;;-0.25787738;0.715725;-0.059776314;;;;;;;;;;;;;;;
2152.0;2034.9;;;;;;;;;;-88.23283;-5.0660725;81.09149;;;;;;;;;
2152.0;2034.9;;;;;;;0.3963744;-1.1052583;0.2738731;;;;;;;;;;;;
2152.0;2034.9;;;;;;;;;;-87.77124;-3.8033693;76.799835;;;;;;;;;
2152.0;2034.9;;;;;;;0.3856319;-1.1015961;0.28034303;;;;;;;;;;;;
2152.0;2039.7;;;;-0.24870303;0.72139364;-0.056400307;;;;;;;;;;;;;;;
2152.0;2039.7;;;;-0.24320605;0.726204;-0.072681434;;;;;;;;;;;;;;;
2152.0;2039.7;;;;-0.2539101;0.71127707;-0.114288345;;;;;;;;;;;;;;;
2152.0;2039.7;;;;-0.2620125;0.6865693;-0.04290009;;;;;;;;;;;;;;;
2152.0;2039.7;;;;-0.23664477;0.69074255;-0.027973179;;;;;;;;;;;;;;;
2152.0;2043.2;262143;262143;13495;;;;;;;;;;;;;;;;;;
2155.0;2044.5;;;;;;;;;;-87.07313;-2.315592;72.87057;;;;;;;;;
2155.0;2044.5;;;;;;;0.37965026;-1.0912198;0.2865688;;;;;;;;;;;;
2155.0;2044.5;;;;;;;;;;-86.22242;-0.62944424;68.96801;;;;;;;;;
2155.0;2044.5;;;;;;;0.37525558;-1.076693;0.2900479;;;;;;;;;;;;
2155.0;2049.3;;;;;;;;;;;;;-52122;;;;;;;;
2155.0;2049.3;;;;;;;;;;;;;-43576;;;;;;;;
2155.0;2049.3;;;;;;;;;;;;;-35525;;;;;;;;
2155.0;2049.3;;;;;;;;;;;;;-28628;;;;;;;;
2155.0;2049.3;;;;;;;;;;;;;-22780;;;;;;;;
2155.0;2049.8;;;;-0.24276355;0.691742;-0.048206337;;;;;;;;;;;;;;;
2155.0;2049.8;;;;-0.26311877;0.6745644;-0.114402786;;;;;;;;;;;;;;;
2155.0;2049.8;;;;-0.24707416;0.6613236;-0.11337663;;;;;;;;;;;;;;;
2155.0;2049.8;;;;-0.24748996;0.65570456;-0.09550859;;;;;;;;;;;;;;;
2155.0;2049.8;;;;-0.24143222;0.64952093;-0.08090592;;;;;;;;;;;;;;;
2155.0;2053.9;;;;;;;;;;-85.39842;0.84688866;64.85184;;;;;;;;;
2155.0;2053.9;;;;;;;0.36085087;-1.0596637;0.29602954;;;;;;;;;;;;
2155.0;2053.9;;;;;;;;;;-84.631645;2.5902586;61.16672;;;;;;;;;
2155.0;2053.9;;;;;;;0.3463851;-1.0415968;0.30457473;;;;;;;;;;;;
2155.0;2059.8;;;;-0.23272327;0.6479302;-0.07566834;;;;;;;;;;;;;;;
2155.0;2059.8;;;;-0.21823886;0.65292746;-0.065502174;;;;;;;;;;;;;;;
2155.0;2059.8;;;;-0.22095111;0.6572915;-0.07919312;;;;;;;;;;;;;;;
2155.0;2059.8;;;;-0.23774722;0.64103323;-0.15041353;;;;;;;;;;;;;;;
2155.0;2059.8;;;;-0.23925021;0.614193;-0.16498567;;;;;;;;;;;;;;;
2155.0;2063.5;;;;;;;;;;-83.67794;4.4938507;57.771538;;;;;;;;;
2155.0;2063.5;;;;;;;0.34107485;-1.0179754;0.321543;;;;;;;;;;;;
2155.0;2063.5;;;;;;;;;;-82.61742;6.0350356;54.08643;;;;;;;;;
2155.0;2063.5;;;;;;;0.33112583;-0.9911801;0.33930477;;;;;;;;;;;;
2157.0;2063.3;262143;262143;13494;;;;;;;;;;;;;;;;;;
2157.0;2069.9;;;;-0.22633365;0.61544424;-0.12929918;;;;;;;;;;;;;;;
2157.0;2069.9;;;;-0.21208575;0.6162415;-0.11725618;;;;;;;;;;;;;;;
2157.0;2069.9;;;;-0.20110324;0.6164971;-0.11753465;;;;;;;;;;;;;;;
2157.0;2069.9;;;;-0.19170764;0.617878;-0.12396242;;;;;;;;;;;;;;;
2157.0;2069.9;;;;-0.18379976;0.6183167;-0.13048173;;;;;;;;;;;;;;;
2157.0;2073.2;;;;;;;;;;-81.59123;7.5189977;50.290688;;;;;;;;;
2157.0;2073.2;;;;;;;0.32074952;-0.96530044;0.36249885;;;;;;;;;;;;
2157.0;2073.2;;;;;;;;;;-80.74435;9.281442;46.3271;;;;;;;;;
2157.0;2073.2;;;;;;;0.32123783;-0.94119084;0.38166448;;;;;;;;;;;;
2157.0;2080.0;;;;-0.17908098;0.6159325;-0.13744737;;;;;;;;;;;;;;;
2157.0;2080.0;;;;-0.17395402;0.61334234;-0.14512254;;;;;;;;;;;;;;;
2157.0;2080.0;;;;-0.16833879;0.61145407;-0.15181352;;;;;;;;;;;;;;;
2157.0;2080.0;;;;-0.16222383;0.60986334;-0.15755464;;;;;;;;;;;;;;;
2157.0;2080.0;;;;-0.15494157;0.6088219;-0.16286851;;;;;;;;;;;;;;;
2157.0;2082.8;;;;;;;;;;-80.1149;11.230811;41.81799;;;;;;;;;
2157.0;2082.8;;;;;;;0.32563248;-0.924955;0.40961942;;;;;;;;;;;;
2157.0;2082.8;;;;;;;;;;-78.875084;13.344218;36.614582;;;;;;;;;
2157.0;2082.8;;;;;;;0.33661917;-0.9143956;0.43098238;;;;;;;;;;;;
2157.0;2083.6;262143;262143;13496;;;;;;;;;;;;;;;;;;
2157.0;2089.7;;;;;;;;;;;;;-17682;;;;;;;;
2157.0;2089.7;;;;;;;;;;;;;-13835;;;;;;;;
2157.0;2089.7;;;;;;;;;;;;;-11297;;;;;;;;
2157.0;2089.7;;;;;;;;;;;;;-9174;;;;;;;;
2157.0;2089.7;;;;;;;;;;;;;-7043;;;;;;;;
2159.0;2090.1;;;;-0.14847566;0.6080285;-0.16851045;;;;;;;;;;;;;;;
2159.0;2090.1;;;;-0.1404648;0.6089707;-0.17426683;;;;;;;;;;;;;;;
2159.0;2090.1;;;;-0.13253404;0.61064535;-0.18006136;;;;;;;;;;;;;;;
2159.0;2090.1;;;;-0.124065414;0.6129113;-0.18644716;;;;;;;;;;;;;;;
2159.0;2090.1;;;;-0.11488725;0.6163483;-0.19202808;;;;;;;;;;;;;;;
2159.0;2092.4;;;;;;;;;;-77.07069;15.591144;31.23188;;;;;;;;;
2159.0;2092.4;;;;;;;0.33613086;-0.9026154;0.4497818;;;;;;;;;;;;
2159.0;2092.4;;;;;;;;;;-75.4265;18.177588;26.608326;;;;;;;;;
2159.0;2092.4;;;;;;;0.3382061;-0.89272743;0.46620074;;;;;;;;;;;;
2159.0;2100.1;;;;-0.10565187;0.6208306;-0.19690326;;;;;;;;;;;;;;;
2159.0;2100.1;;;;-0.096714035;0.625145;-0.20089343;;;;;;;;;;;;;;;
2159.0;2100.1;;;;-0.088687904;0.6289864;-0.20447162;;;;;;;;;;;;;;;
2159.0;2100.1;;;;-0.082111366;0.6317597;-0.20819858;;;;;;;;;;;;;;;
2159.0;2100.1;;;;-0.07561494;0.63392645;-0.2124367;;;;;;;;;;;;;;;
2159.0;2101.9;;;;;;;;;;-74.32401;20.798365;22.255623;;;;;;;;;
2159.0;2101.9;;;;;;;0.34107485;-0.8867458;0.48182622;;;;;;;;;;;;
2159.0;2101.9;;;;;;;;;;-73.370316;22.980438;18.475143;;;;;;;;;
2159.0;2101.9;;;;;;;0.34125796;-0.88393813;0.4921415;;;;;;;;;;;;
2159.0;2103.7;262143;262143;13507;;;;;;;;;;;;;;;;;;
2208.0;2110.1;;;;-0.06589509;0.63699347;-0.21570972;;;;;;;;;;;;;;;
2208.0;2110.1;;;;-0.057270057;0.63877875;-0.2174187;;;;;;;;;;;;;;;
2208.0;2110.1;;;;-0.052379616;0.63901144;-0.2197533;;;;;;;;;;;;;;;
2208.0;2110.1;;;;-0.045299534;0.63961416;-0.22290042;;;;;;;;;;;;;;;
2208.0;2110.1;;;;-0.037399296;0.6381646;-0.22405246;;;;;;;;;;;;;;;
2208.0;2111.2;;;;;;;;;;-72.40517;24.6704;15.682699;;;;;;;;;
2208.0;2111.2;;;;;;;0.34101382;-0.88485366;0.49372846;;;;;;;;;;;;
2208.0;2111.2;;;;;;;;;;-71.42857;26.34129;13.397626;;;;;;;;;
2208.0;2111.2;;;;;;;0.34369946;-0.8915677;0.49916074;;;;;;;;;;;;
2208.0;2120.0;;;;-0.03010941;0.6367112;-0.22449496;;;;;;;;;;;;;;;
2208.0;2120.0;;;;-0.023006441;0.63405997;-0.22463611;;;;;;;;;;;;;;;
2208.0;2120.0;;;;-0.015991213;0.6305161;-0.22500995;;;;;;;;;;;;;;;
2208.0;2120.0;;;;-0.010383607;0.6249352;-0.22549823;;;;;;;;;;;;;;;
2208.0;2120.0;;;;-0.005409241;0.61811835;-0.22545627;;;;;;;;;;;;;;;
2208.0;2120.8;;;;;;;;;;-70.142975;27.630695;10.967589;;;;;;;;;
2208.0;2120.8;;;;;;;0.3452254;-0.9042024;0.4990997;;;;;;;;;;;;
2208.0;2120.8;;;;;;;;;;-68.62468;28.729362;8.545182;;;;;;;;;
2208.0;2120.8;;;;;;;0.3350322;-0.9120762;0.49061555;;;;;;;;;;;;
2208.0;2123.6;262143;262143;13498;;;;;;;;;;;;;;;;;;
2208.0;2129.8;;;;;;;;;;;;;-5344;;;;;;;;
2208.0;2129.8;;;;;;;;;;;;;-4614;;;;;;;;
2208.0;2129.8;;;;;;;;;;;;;-4943;;;;;;;;
2208.0;2129.8;;;;;;;;;;;;;-5907;;;;;;;;
2208.0;2129.8;;;;;;;;;;;;;-6756;;;;;;;;
2211.0;2130.1;;;;-0.001350403;0.6106568;-0.22459033;;;;;;;;;;;;;;;
2211.0;2130.1;;;;0.0018730166;0.6016274;-0.2228432;;;;;;;;;;;;;;;
2211.0;2130.1;;;;0.0030403142;0.5926133;-0.21958926;;;;;;;;;;;;;;;
2211.0;2130.1;;;;0.0048866277;0.58416754;-0.21660236;;;;;;;;;;;;;;;
2211.0;2130.1;;;;0.020668032;0.57765585;-0.2168999;;;;;;;;;;;;;;;
2211.0;2130.5;;;;;;;;;;-66.789764;29.457993;6.912442;;;;;;;;;
2211.0;2130.5;;;;;;;0.33039337;-0.9175695;0.48353526;;;;;;;;;;;;
2211.0;2130.5;;;;;;;;;;-64.22239;29.236732;5.8099613;;;;;;;;;
2211.0;2130.5;;;;;;;0.32032228;-0.91763055;0.47987303;;;;;;;;;;;;
2211.0;2140.1;;;;;;;;;;-61.044647;28.103731;4.9439983;;;;;;;;;
2211.0;2140.1;;;;;;;0.2999359;-0.91329694;0.47560045;;;;;;;;;;;;
2211.0;2140.1;;;;;;;;;;-57.39387;26.581623;4.6731467;;;;;;;;;
2211.0;2140.1;;;;;;;0.27234718;-0.908536;0.4701071;;;;;;;;;;;;
2211.0;2140.2;;;;0.019004824;0.565281;-0.21277621;;;;;;;;;;;;;;;
2211.0;2140.2;;;;0.02651978;0.5726052;-0.21959308;;;;;;;;;;;;;;;
2211.0;2140.2;;;;0.0535698;0.5907174;-0.23532489;;;;;;;;;;;;;;;
2211.0;2140.2;;;;0.038951878;0.56101996;-0.19001392;;;;;;;;;;;;;;;
2211.0;2140.2;;;;0.02264023;0.529934;-0.19321445;;;;;;;;;;;;;;;
2211.0;2143.9;262143;262143;13505;;;;;;;;;;;;;;;;;;
2211.0;2149.7;;;;;;;;;;-54.006317;25.109102;4.40611;;;;;;;;;
2211.0;2149.7;;;;;;;0.2461623;-0.9007843;0.45893735;;;;;;;;;;;;
2211.0;2149.7;;;;;;;;;;-51.183353;23.983734;3.849147;;;;;;;;;
2211.0;2149.7;;;;;;;0.22974335;-0.89272743;0.44294566;;;;;;;;;;;;
2266.0;2150.3;;;;0.026046757;0.52283484;-0.20549396;;;;;;;;;;;;;;;
2266.0;2150.3;;;;0.022865297;0.51323324;-0.20159534;;;;;;;;;;;;;;;
2266.0;2150.3;;;;0.019371035;0.504448;-0.19448093;;;;;;;;;;;;;;;
2266.0;2150.3;;;;0.015758516;0.49638373;-0.18935397;;;;;;;;;;;;;;;
2266.0;2150.3;;;;0.012271883;0.48984152;-0.18594743;;;;;;;;;;;;;;;
2266.0;2159.2;;;;;;;;;;-49.146248;23.0224;2.7542956;;;;;;;;;
2266.0;2159.2;;;;;;;0.2247383;-0.885464;0.42445144;;;;;;;;;;;;
2266.0;2159.2;;;;;;;;;;-47.551655;22.457808;1.2779626;;;;;;;;;
2266.0;2159.2;;;;;;;0.22705771;-0.87606436;0.40736106;;;;;;;;;;;;
2266.0;2160.3;;;;0.007469178;0.48439795;-0.18335344;;;;;;;;;;;;;;;
2266.0;2160.3;;;;0.0031471257;0.47936636;-0.18014146;;;;;;;;;;;;;;;
2266.0;2160.3;;;;-4.7683722E-4;0.47508627;-0.1772957;;;;;;;;;;;;;;;
2266.0;2160.3;;;;-0.004493714;0.47021872;-0.17279817;;;;;;;;;;;;;;;
2266.0;2160.3;;;;-0.007587434;0.46521002;-0.1686516;;;;;;;;;;;;;;;
2266.0;2164.0;262143;262143;13501;;;;;;;;;;;;;;;;;;
2266.0;2168.8;;;;;;;;;;-45.96469;22.31666;-0.12588885;;;;;;;;;
2266.0;2168.8;;;;;;;0.23981445;-0.8669698;0.38984343;;;;;;;;;;;;
2266.0;2168.8;;;;;;;;;;-44.46165;23.018585;-1.0223701;;;;;;;;;
2266.0;2168.8;;;;;;;0.25727102;-0.85836357;0.37037262;;;;;;;;;;;;
2266.0;2170.0;;;;;;;;;;;;;-6920;;;;;;;;
2266.0;2170.0;;;;;;;;;;;;;-6606;;;;;;;;
2266.0;2170.0;;;;;;;;;;;;;-6519;;;;;;;;
2266.0;2170.0;;;;;;;;;;;;;-6828;;;;;;;;
2266.0;2170.0;;;;;;;;;;;;;-7013;;;;;;;;
2271.0;2170.2;;;;-0.012538912;0.46012503;-0.16453554;;;;;;;;;;;;;;;
2271.0;2170.2;;;;-0.019077303;0.45348364;-0.16157152;;;;;;;;;;;;;;;
2271.0;2170.2;;;;-0.02826691;0.44284445;-0.16123964;;;;;;;;;;;;;;;
2271.0;2170.2;;;;-0.042293552;0.42425543;-0.16263963;;;;;;;;;;;;;;;
2271.0;2170.2;;;;-0.06065751;0.40322882;-0.15831377;;;;;;;;;;;;;;;
2271.0;2178.2;;;;;;;;;;-43.099766;24.651327;-1.453444;;;;;;;;;
2271.0;2178.2;;;;;;;0.27985474;-0.8500015;0.35724968;;;;;;;;;;;;
2271.0;2178.2;;;;;;;;;;-42.0011;26.917326;-1.3771478;;;;;;;;;
2271.0;2178.2;;;;;;;0.3037202;-0.8423719;0.34601885;;;;;;;;;;;;
2271.0;2180.2;;;;-0.06970597;0.39989477;-0.13496019;;;;;;;;;;;;;;;
2271.0;2180.2;;;;-0.0629654;0.3922463;-0.121353164;;;;;;;;;;;;;;;
2271.0;2180.2;;;;-0.074428566;0.37515265;-0.10580446;;;;;;;;;;;;;;;
2271.0;2180.2;;;;-0.07611848;0.38862234;-0.082695015;;;;;;;;;;;;;;;
2271.0;2180.2;;;;-1.564026E-4;0.46139532;-0.14138414;;;;;;;;;;;;;;;
2271.0;2184.0;262143;262143;13499;;;;;;;;;;;;;;;;;;
2271.0;2187.8;;;;;;;;;;-40.993988;29.267252;-1.1864071;;;;;;;;;
2271.0;2187.8;;;;;;;0.32428968;-0.8387707;0.33887753;;;;;;;;;;;;
2271.0;2187.8;;;;;;;;;;-40.059357;31.762138;-0.86214787;;;;;;;;;
2271.0;2187.8;;;;;;;0.33967102;-0.8357799;0.3386334;;;;;;;;;;;;
2272.0;2190.4;;;;0.019184114;0.44863898;-0.07290269;;;;;;;;;;;;;;;
2272.0;2190.4;;;;-0.020191194;0.41156775;-0.041580204;;;;;;;;;;;;;;;
2272.0;2190.4;;;;-0.023853306;0.4031754;-0.05799485;;;;;;;;;;;;;;;
2272.0;2190.4;;;;-0.031955723;0.39028174;-0.0522461;;;;;;;;;;;;;;;
2272.0;2190.4;;;;-0.03815842;0.37748343;-0.04685593;;;;;;;;;;;;;;;
2272.0;2197.4;;;;;;;;;;-39.08658;34.306618;-0.4158147;;;;;;;;;
2272.0;2197.4;;;;;;;0.3463851;-0.83419293;0.33777887;;;;;;;;;;;;
2272.0;2197.4;;;;;;;;;;-38.22062;36.92358;0.12207404;;;;;;;;;
2272.0;2197.4;;;;;;;0.3501694;-0.83120215;0.3419904;;;;;;;;;;;;
2272.0;2200.5;;;;-0.0402298;0.36956027;-0.042465214;;;;;;;;;;;;;;;
2272.0;2200.5;;;;-0.03858948;0.36514667;-0.037967686;;;;;;;;;;;;;;;
2272.0;2200.5;;;;-0.03872681;0.36182788;-0.032321934;;;;;;;;;;;;;;;
2272.0;2200.5;;;;-0.04143906;0.3599129;-0.029773716;;;;;;;;;;;;;;;
2272.0;2200.5;;;;-0.045867924;0.35974506;-0.02756882;;;;;;;;;;;;;;;
2273.0;2201.6;;;;;;;;;;;;;;;;;-12.058626;-38.81573;6.6911836;;1878.4
2273.0;2201.6;;;;;;;;;;;;;;-0.699118;-0.45783868;-0.26972258;;;;;1878.4
2273.0;2201.6;;;;;;;;;;;;;;;;;-15.316477;-41.062653;11.532182;;1878.4
2273.0;2201.6;;;;;;;;;;;;;;-0.77248454;-0.42878506;-0.3648793;;;;;1878.4
2273.0;2201.6;;;;;;;;;;;;;;;;;-16.20533;-41.177097;16.96066;;1888.1
2273.0;2201.6;;;;;;;;;;;;;;-0.8238777;-0.40876493;-0.4215827;;;;;1888.1
2273.0;2201.6;;;;;;;;;;;;;;;;;-13.683737;-37.575916;22.511215;;1888.1
2273.0;2201.6;;;;;;;;;;;;;;-0.84212774;-0.40479752;-0.41578418;;;;;1888.1
2273.0;2201.6;;;;;;;;;;;;;;;;;-9.544664;-31.365398;28.424177;;1897.8
2273.0;2201.6;;;;;;;;;;;;;;-0.82955414;-0.44251838;-0.35322124;;;;;1897.8
2273.0;2201.6;;;;;;;;;;;;;;;;;-6.2067018;-25.093843;34.508804;;1897.8
2273.0;2201.6;;;;;;;;;;;;;;-0.80239266;-0.5114292;-0.25959045;;;;;1897.8
2273.0;2203.1;;;;;;;;;;;;;;;;;-6.599628;-21.038698;40.753654;;1907.4
2273.0;2203.1;;;;;;;;;;;;;;-0.7747429;-0.611774;-0.17853329;;;;;1907.4
2273.0;2203.1;;;;;;;;;;;;;;;;;-10.704368;-19.329662;46.849728;;1907.4
2273.0;2203.1;;;;;;;;;;;;;;-0.75063324;-0.72640157;-0.15015107;;;;;1907.4
2273.0;2203.1;;;;;;;;;;;;;;;;;-17.765587;-19.421217;51.847134;;1917.1
2273.0;2203.1;;;;;;;;;;;;;;-0.7179785;-0.83169043;-0.15906247;;;;;1917.1
2273.0;2203.1;;;;;;;;;;;;;;;;;-26.779993;-19.985807;54.65484;;1917.1
2273.0;2203.1;;;;;;;;;;;;;;-0.6786706;-0.93111974;-0.20838039;;;;;1917.1
2273.0;2203.1;;;;;;;;;;;;;;;;;-34.73388;-20.466475;54.08643;;1926.8
2273.0;2203.1;;;;;;;;;;;;;;-0.62611777;-1.013886;-0.293466;;;;;1926.8
2273.0;2203.1;;;;;;;;;;;;;;;;;-38.44188;-22.354807;50.7828;;1926.8
2273.0;2203.1;;;;;;;;;;;;;;-0.5634327;-1.0531938;-0.3590808;;;;;1926.8
2276.0;2204.0;;;;;;;;;;;;;;;;;-38.422806;-27.855768;45.171207;;1936.3
2276.0;2204.0;;;;;;;;;;;;;;-0.4931791;-1.0516678;-0.3731193;;;;;1936.3
2276.0;2204.0;;;;;;;;;;;;;;;;;-35.85162;-36.62984;38.52199;;1936.3
2276.0;2204.0;;;;;;;;;;;;;;-0.42579424;-1.0053407;-0.34138006;;;;;1936.3
2276.0;2204.0;;;;;;;;;;;;;;;;;-33.07062;-45.30091;32.04062;;1946.0
2276.0;2204.0;;;;;;;;;;;;;;-0.36878568;-0.9360637;-0.28498185;;;;;1946.0
2276.0;2204.0;;;;;;;;;;;;;;;;;-30.648212;-52.316357;26.718956;;1946.0
2276.0;2204.0;;;;;;;;;;;;;;-0.31830806;-0.8683737;-0.23804438;;;;;1946.0
2276.0;2204.0;;;;;;;;;;;;;;;;;-29.198584;-54.97909;23.255104;;1955.6
2276.0;2204.0;;;;;;;;;;;;;;-0.28632465;-0.81905574;-0.20831935;;;;;1955.6
2276.0;2204.0;;;;;;;;;;;;;;;;;-28.801844;-53.590504;21.706291;;1955.6
2276.0;2204.0;;;;;;;;;;;;;;-0.26532793;-0.7858516;-0.21393475;;;;;1955.6
2276.0;2204.0;262143;262143;13491;;;;;;;;;;;;;;;;;;
2277.0;2205.2;;;;;;;;;;;;;;;;;-28.408916;-49.577316;21.439253;;1965.3
2277.0;2205.2;;;;;;;;;;;;;;-0.25580615;-0.7693716;-0.24274422;;;;;1965.3
2277.0;2205.2;;;;;;;;;;;;;;;;;-27.054659;-43.22947;22.129734;;1965.3
2277.0;2205.2;;;;;;;;;;;;;;-0.25366986;-0.76296276;-0.26087222;;;;;1965.3
2277.0;2205.2;;;;;;;;;;;;;;;;;-25.460066;-36.393322;23.937956;;1974.7
2277.0;2205.2;;;;;;;;;;;;;;-0.2575152;-0.77730644;-0.25910214;;;;;1974.7
2277.0;2205.2;;;;;;;;;;;;;;;;;-23.476364;-29.354992;26.573992;;1974.7
2277.0;2205.2;;;;;;;;;;;;;;-0.26587725;-0.8036744;-0.24762718;;;;;1974.7
2277.0;2205.2;;;;;;;;;;;;;;;;;-20.702993;-22.549362;29.538103;;1984.4
2277.0;2205.2;;;;;;;;;;;;;;-0.27460554;-0.8449355;-0.2428663;;;;;1984.4
2277.0;2205.2;;;;;;;;;;;;;;;;;-17.063662;-15.995514;32.479324;;1984.4
2277.0;2205.2;;;;;;;;;;;;;;-0.27491075;-0.8955352;-0.2334666;;;;;1984.4
2277.0;2206.7;;;;;;;;;;-37.430954;39.567245;0.8888516;;;;;;;;;
2277.0;2206.7;;;;;;;0.35108495;-0.83223975;0.34736168;;;;;;;;;;;;
2277.0;2206.7;;;;;;;;;;-36.8511;42.077396;1.5221107;;;;;;;;;
2277.0;2206.7;;;;;;;0.35059664;-0.83260596;0.35395366;;;;;;;;;;;;
2279.0;2208.8;;;;;;;;;;;;;;;;;-13.245033;-10.258034;34.802544;;1993.9
2279.0;2208.8;;;;;;;;;;;;;;-0.2656331;-0.94552445;-0.21790215;;;;;1993.9
2279.0;2208.8;;;;;;;;;;;;;;;;;-9.4569235;-5.6573687;36.381878;;1993.9
2279.0;2208.8;;;;;;;;;;;;;;-0.25019073;-0.9846492;-0.1976989;;;;;1993.9
2279.0;2208.8;;;;;;;;;;;;;;;;;-5.6764426;-3.1395917;37.209694;;2003.6
2279.0;2208.8;;;;;;;;;;;;;;-0.2285226;-1.0088198;-0.1784112;;;;;2003.6
2279.0;2208.8;;;;;;;;;;;;;;;;;-1.7548143;-2.5482955;37.38899;;2003.6
2279.0;2208.8;;;;;;;;;;;;;;-0.20337535;-1.0212103;-0.15344706;;;;;2003.6
2279.0;2208.8;;;;;;;;;;;;;;;;;2.0447402;-3.9063692;37.08762;;2013.2
2279.0;2208.8;;;;;;;;;;;;;;-0.17560351;-1.0212103;-0.13330485;;;;;2013.2
2279.0;2208.8;;;;;;;;;;;;;;;;;4.9592576;-6.8628497;36.47725;;2013.2
2279.0;2208.8;;;;;;;;;;;;;;-0.15155491;-1.0086367;-0.10773034;;;;;2013.2
2279.0;2209.9;;;;;;;;;;;;;-6812;;;;;;;;
2279.0;2209.9;;;;;;;;;;;;;-6726;;;;;;;;
2279.0;2209.9;;;;;;;;;;;;;-7047;;;;;;;;
2279.0;2209.9;;;;;;;;;;;;;-7417;;;;;;;;
2279.0;2209.9;;;;;;;;;;;;;-7660;;;;;;;;
2279.0;2210.1;;;;-0.0506363;0.36208346;-0.026874546;;;;;;;;;;;;;;;
2279.0;2210.1;;;;-0.054000862;0.3677483;-0.025730137;;;;;;;;;;;;;;;
2279.0;2210.1;;;;-0.05770112;0.37613302;-0.024147037;;;;;;;;;;;;;;;
2279.0;2210.1;;;;-0.06251145;0.3870545;-0.021766664;;;;;;;;;;;;;;;
2279.0;2210.1;;;;-0.06869126;0.4003411;-0.018104555;;;;;;;;;;;;;;;
2279.0;2216.0;;;;;;;;;;-36.29032;44.373913;2.094333;;;;;;;;;
2279.0;2216.0;;;;;;;0.35126805;-0.8368175;0.36750388;;;;;;;;;;;;
2279.0;2216.0;;;;;;;;;;-35.584583;46.311836;2.4414806;;;;;;;;;
2279.0;2216.0;;;;;;;0.35279396;-0.8427381;0.38575396;;;;;;;;;;;;
2327.0;2220.1;;;;-0.07630158;0.41618735;-0.013450624;;;;;;;;;;;;;;;
2327.0;2220.1;;;;-0.085708626;0.4346543;-0.009304048;;;;;;;;;;;;;;;
2327.0;2220.1;;;;-0.09648134;0.45510107;-0.005233765;;;;;;;;;;;;;;;
2327.0;2220.1;;;;-0.108116165;0.475586;-0.0020217898;;;;;;;;;;;;;;;
2327.0;2220.1;;;;-0.12308504;0.49552542;2.8228763E-4;;;;;;;;;;;;;;;
2327.0;2224.0;262143;262143;13491;;;;;;;;;;;;;;;;;;
2327.0;2225.7;;;;;;;;;;-34.3791;47.734764;2.582629;;;;;;;;;
2327.0;2225.7;;;;;;;0.3531602;-0.85134435;0.40260017;;;;;;;;;;;;
2327.0;2225.7;;;;;;;;;;-32.795956;48.34895;2.3461106;;;;;;;;;
2327.0;2225.7;;;;;;;0.35456404;-0.8564715;0.42213202;;;;;;;;;;;;
2327.0;2230.1;;;;-0.13861848;0.5149079;0.0017890933;;;;;;;;;;;;;;;
2327.0;2230.1;;;;-0.15741731;0.53363806;0.0031356816;;;;;;;;;;;;;;;
2327.0;2230.1;;;;-0.17671968;0.5521279;0.005615235;;;;;;;;;;;;;;;
2327.0;2230.1;;;;-0.19921497;0.57173544;0.012405397;;;;;;;;;;;;;;;
2327.0;2230.1;;;;-0.20491031;0.61072546;0.029014591;;;;;;;;;;;;;;;
2327.0;2234.9;;;;;;;;;;-30.919065;48.234505;1.8921475;;;;;;;;;
2327.0;2234.9;;;;;;;0.356151;-0.85830253;0.43501082;;;;;;;;;;;;
2327.0;2234.9;;;;;;;;;;-28.855251;47.71569;1.1940367;;;;;;;;;
2327.0;2234.9;;;;;;;0.3552965;-0.85695976;0.45014802;;;;;;;;;;;;
2332.0;2239.8;;;;-0.2027283;0.6485444;0.04131699;;;;;;;;;;;;;;;
2332.0;2239.8;;;;-0.13250352;0.76171505;0.06911088;;;;;;;;;;;;;;;
2332.0;2239.8;;;;-0.17600633;0.75135815;0.08575059;;;;;;;;;;;;;;;
2332.0;2239.8;;;;-0.26653293;0.7191773;0.08264161;;;;;;;;;;;;;;;
2332.0;2239.8;;;;-0.25696185;0.7643014;0.08771134;;;;;;;;;;;;;;;
2332.0;2243.7;262143;262143;13496;;;;;;;;;;;;;;;;;;
2332.0;2244.4;;;;;;;;;;-26.802881;46.99469;0.40437025;;;;;;;;;
2332.0;2244.4;;;;;;;0.3556627;-0.85598314;0.4621723;;;;;;;;;;;;
2332.0;2244.4;;;;;;;;;;-24.85351;46.071503;-0.4997406;;;;;;;;;
2332.0;2244.4;;;;;;;0.35377055;-0.852504;0.4713889;;;;;;;;;;;;
2332.0;2249.8;;;;;;;;;;;;;-7992;;;;;;;;
2332.0;2249.8;;;;;;;;;;;;;-8716;;;;;;;;
2332.0;2249.8;;;;;;;;;;;;;-9848;;;;;;;;
2332.0;2249.8;;;;;;;;;;;;;-10742;;;;;;;;
2332.0;2249.8;;;;;;;;;;;;;-10549;;;;;;;;
2332.0;2249.9;;;;-0.27339938;0.78774273;0.1133423;;;;;;;;;;;;;;;
2332.0;2249.9;;;;-0.28859714;0.81108487;0.130085;;;;;;;;;;;;;;;
2332.0;2249.9;;;;-0.29796222;0.8389703;0.15556718;;;;;;;;;;;;;;;
2332.0;2249.9;;;;-0.31298068;0.8623239;0.1802025;;;;;;;;;;;;;;;
2332.0;2249.9;;;;-0.322094;0.8895608;0.20266727;;;;;;;;;;;;;;;
2332.0;2254.0;;;;;;;;;;-22.988068;44.9118;-1.3580737;;;;;;;;;
2332.0;2254.0;;;;;;;0.35193944;-0.8480483;0.48060548;;;;;;;;;;;;
2332.0;2254.0;;;;;;;;;;-21.015808;43.404953;-2.0599995;;;;;;;;;
2332.0;2254.0;;;;;;;0.34894863;-0.8443861;0.48823512;;;;;;;;;;;;
2334.0;2260.0;;;;-0.33017352;0.91635525;0.22657779;;;;;;;;;;;;;;;
2334.0;2260.0;;;;-0.3362656;0.9429437;0.24978259;;;;;;;;;;;;;;;
2334.0;2260.0;;;;-0.34037784;0.96979153;0.27224734;;;;;;;;;;;;;;;
2334.0;2260.0;;;;-0.34754947;0.9920465;0.29322818;;;;;;;;;;;;;;;
2334.0;2260.0;;;;-0.35489276;1.0112382;0.31150058;;;;;;;;;;;;;;;
2334.0;2263.6;;;;;;;;;;-18.85281;41.680653;-2.750481;;;;;;;;;
2334.0;2263.6;;;;;;;0.3465682;-0.83834344;0.5020295;;;;;;;;;;;;
2334.0;2263.6;;;;;;;;;;-16.254921;39.963985;-3.3341472;;;;;;;;;
2334.0;2263.6;;;;;;;0.34473708;-0.8384045;0.5223548;;;;;;;;;;;;
2334.0;2263.9;262143;262143;13505;;;;;;;;;;;;;;;;;;
2334.0;2270.1;;;;-0.36075595;1.0301629;0.3253365;;;;;;;;;;;;;;;
2334.0;2270.1;;;;-0.365181;1.0489198;0.33204654;;;;;;;;;;;;;;;
2334.0;2270.1;;;;-0.36758426;1.0690194;0.33658984;;;;;;;;;;;;;;;
2334.0;2270.1;;;;-0.36755756;1.0924188;0.33957294;;;;;;;;;;;;;;;
2334.0;2270.1;;;;-0.36927417;1.1198236;0.3406525;;;;;;;;;;;;;;;
2334.0;2273.3;;;;;;;;;;-13.157292;37.949768;-3.8758507;;;;;;;;;
2334.0;2273.3;;;;;;;0.3449202;-0.842616;0.53993344;;;;;;;;;;;;
2334.0;2273.3;;;;;;;;;;-9.876553;35.065765;-4.3679614;;;;;;;;;
2334.0;2273.3;;;;;;;0.33814508;-0.8476821;0.54933316;;;;;;;;;;;;
2386.0;2280.0;;;;-0.3686829;1.1507188;0.3415108;;;;;;;;;;;;;;;
2386.0;2280.0;;;;-0.37381366;1.1795999;0.33864978;;;;;;;;;;;;;;;
2386.0;2280.0;;;;-0.400631;1.2030946;0.33253863;;;;;;;;;;;;;;;
2386.0;2280.0;;;;-0.43653876;1.2156564;0.30463794;;;;;;;;;;;;;;;
2386.0;2280.0;;;;-0.45327383;1.2363206;0.30319598;;;;;;;;;;;;;;;
2386.0;2282.7;;;;;;;;;;-6.7445908;31.426434;-4.566332;;;;;;;;;
2386.0;2282.7;;;;;;;0.33094272;-0.8528703;0.55940425;;;;;;;;;;;;
2386.0;2282.7;;;;;;;;;;-3.3494065;27.760399;-4.2420726;;;;;;;;;
2386.0;2282.7;;;;;;;0.32166508;-0.8642842;0.57112336;;;;;;;;;;;;
2386.0;2284.1;262143;262143;13499;;;;;;;;;;;;;;;;;;
2386.0;2290.1;;;;-0.45146948;1.2653085;0.29453662;;;;;;;;;;;;;;;
2386.0;2290.1;;;;-0.48881918;1.299286;0.20344165;;;;;;;;;;;;;;;
2386.0;2290.1;;;;-0.56342703;1.3054467;0.23913577;;;;;;;;;;;;;;;
2386.0;2290.1;;;;-0.56691366;1.3340913;0.26611713;;;;;;;;;;;;;;;
2386.0;2290.1;;;;-0.61547476;1.3657686;0.251812;;;;;;;;;;;;;;;
2386.0;2290.1;;;;;;;;;;;;;-9272;;;;;;;;
2386.0;2290.1;;;;;;;;;;;;;-6871;;;;;;;;
2386.0;2290.1;;;;;;;;;;;;;-3996;;;;;;;;
2386.0;2290.1;;;;;;;;;;;;;-4194;;;;;;;;
2386.0;2290.1;;;;;;;;;;;;;-9274;;;;;;;;
2386.0;2292.2;;;;;;;;;;0.6447035;24.372845;-3.5477767;;;;;;;;;
2386.0;2292.2;;;;;;;0.32026124;-0.8753929;0.5746025;;;;;;;;;;;;
2386.0;2292.2;;;;;;;;;;5.0737023;20.645771;-2.5673697;;;;;;;;;
2386.0;2292.2;;;;;;;0.3195288;-0.878811;0.56953645;;;;;;;;;;;;
2390.0;2300.1;;;;-0.61690146;1.3894693;0.22251132;;;;;;;;;;;;;;;
2390.0;2300.1;;;;-0.61303717;1.4203721;0.14812471;;;;;;;;;;;;;;;
2390.0;2300.1;;;;-0.69914633;1.4794389;0.107181564;;;;;;;;;;;;;;;
2390.0;2300.1;;;;-0.7053605;1.4553834;0.13613893;;;;;;;;;;;;;;;
2390.0;2300.1;;;;-0.7050286;1.4818803;0.15374757;;;;;;;;;;;;;;;
2390.0;2301.8;;;;;;;;;;9.81933;15.86581;-1.4381847;;;;;;;;;
2390.0;2301.8;;;;;;;0.3192236;-0.8768578;0.5579394;;;;;;;;;;;;
2390.0;2301.8;;;;;;;;;;15.064699;9.849849;-0.40818506;;;;;;;;;
2390.0;2301.8;;;;;;;0.3238014;-0.8644063;0.54866177;;;;;;;;;;;;
2390.0;2304.2;262143;262143;13509;;;;;;;;;;;;;;;;;;
2390.0;2310.2;;;;-0.7383042;1.5269129;0.13879015;;;;;;;;;;;;;;;
2390.0;2310.2;;;;-0.7694093;1.5711482;0.08568574;;;;;;;;;;;;;;;
2390.0;2310.2;;;;-0.7992822;1.5531847;0.12346651;;;;;;;;;;;;;;;
2390.0;2310.2;;;;-0.82254803;1.569279;0.12677003;;;;;;;;;;;;;;;
2390.0;2310.2;;;;-0.85767376;1.5825236;0.1116295;;;;;;;;;;;;;;;
2390.0;2311.5;;;;;;;;;;20.859402;2.7161474;0.3128147;;;;;;;;;
2390.0;2311.5;;;;;;;0.3263039;-0.8465834;0.5462203;;;;;;;;;;;;
2390.0;2311.5;;;;;;;;;;27.401806;-4.9401836;0.7019257;;;;;;;;;
2390.0;2311.5;;;;;;;0.33002716;-0.81966615;0.54988253;;;;;;;;;;;;
2393.0;2320.3;;;;-0.884205;1.5925333;0.10026933;;;;;;;;;;;;;;;
2393.0;2320.3;;;;-0.90467083;1.5971034;0.09803392;;;;;;;;;;;;;;;
2393.0;2320.3;;;;-0.9250146;1.5954783;0.09980394;;;;;;;;;;;;;;;
2393.0;2320.3;;;;-0.9531251;1.5979578;0.1072426;;;;;;;;;;;;;;;
2393.0;2320.3;;;;-0.9759294;1.5965235;0.110145584;;;;;;;;;;;;;;;
2393.0;2321.1;;;;;;;;;;34.524063;-12.657552;0.7057405;;;;;;;;;
2393.0;2321.1;;;;;;;0.33716848;-0.7838374;0.5577563;;;;;;;;;;;;
2393.0;2321.1;;;;;;;;;;41.69973;-20.302439;0.10681479;;;;;;;;;
2393.0;2321.1;;;;;;;0.3516953;-0.7397687;0.5595874;;;;;;;;;;;;
2393.0;2321.8;;;;;;;;;;;;;;;;;7.0078125;-10.433516;35.855434;;2022.9
2393.0;2321.8;;;;;;;;;;;;;;-0.13312174;-0.9854427;-0.08832057;;;;;2022.9
2393.0;2321.8;;;;;;;;;;;;;;;;;8.369701;-14.316996;35.008545;;2022.9
2393.0;2321.8;;;;;;;;;;;;;;-0.11926634;-0.9569384;-0.088930935;;;;;2022.9
2393.0;2321.8;;;;;;;;;;;;;;;;;9.441664;-18.03644;34.10443;;2032.6
2393.0;2321.8;;;;;;;;;;;;;;-0.10943937;-0.9251381;-0.09723197;;;;;2032.6
2393.0;2321.8;;;;;;;;;;;;;;;;;9.910886;-21.904661;33.242287;;2032.6
2393.0;2321.8;;;;;;;;;;;;;;-0.10187078;-0.89168984;-0.10852382;;;;;2032.6
2393.0;2321.8;;;;;;;;;;;;;;;;;9.365368;-25.509659;32.42592;;2042.1
2393.0;2321.8;;;;;;;;;;;;;;-0.09143346;-0.86404;-0.11700796;;;;;2042.1
2393.0;2321.8;;;;;;;;;;;;;;;;;8.243813;-28.633991;31.548508;;2042.1
2393.0;2321.8;;;;;;;;;;;;;;-0.08252205;-0.83474225;-0.12903225;;;;;2042.1
2394.0;2322.5;;;;;;;;;;;;;;;;;7.122257;-31.56377;30.73214;;2051.8
2394.0;2322.5;;;;;;;;;;;;;;-0.067201756;-0.8067873;-0.14398633;;;;;2051.8
2394.0;2322.5;;;;;;;;;;;;;;;;;5.9930725;-33.64666;29.896696;;2051.8
2394.0;2322.5;;;;;;;;;;;;;;-0.05389569;-0.7826777;-0.15454574;;;;;2051.8
