patientId;holterMac;flexMac;;;;;;;;;;;;;;;;;;;;
;CA:F3:0B:1E:33:78;D3:4A:5C:52:80:78;;;;;;;;;;;;;;;;;;;;
receivedTimeStamp;timeStamp;red;ir;green;adxl_accX;adxl_accY;adxl_accZ;lsm_accelX;lsm_accelY;lsm_accelZ;lsm_gyroX;lsm_gyroY;lsm_gyroZ;ecg;flex_lsm_accelX;flex_lsm_accelY;flex_lsm_accelZ;flex_lsm_gyroX;flex_lsm_gyroY;flex_lsm_gyroZ;flex_cmd;flexTimeStamp
257.0;211.9;;;;;;;;;;;;;;;;;;;;17;0.1
257.0;211.9;;;;;;;;;;;;;;;;;13.752403;0.50737023;1.3237404;;127.4
257.0;211.9;;;;;;;;;;;;;;-1.1322978;-0.31202126;-0.20606098;;;;;127.4
257.0;211.9;;;;;;;;;;;;;;;;;-3.7995543;-16.838589;-9.708701;;127.4
257.0;211.9;;;;;;;;;;;;;;-1.1503646;-0.3745842;-0.22083193;;;;;127.4
257.0;211.9;;;;;;;;;;;;;;;;;-61.532944;-84.13572;-69.89501;;136.9
257.0;211.9;;;;;;;;;;;;;;-1.1454207;-0.40040284;-0.2097232;;;;;136.9
257.0;211.9;;;;;;;;;;;;;;;;;-121.85659;-124.988556;-123.27189;;136.9
257.0;211.9;;;;;;;;;;;;;;-1.1321757;-0.43372905;-0.20374157;;;;;136.9
322.0;212.7;;;;;;;;;;;;;;;;;-50.1648;-124.702446;-115.3943;;146.6
322.0;212.7;;;;;;;;;;;;;;-1.1001313;-0.41950744;-0.19434187;;;;;146.6
322.0;212.7;;;;;;;;;;;;;;;;;35.412914;-123.874626;-117.34367;;146.6
322.0;212.7;;;;;;;;;;;;;;-1.1001923;-0.44062623;-0.1975158;;;;;146.6
322.0;212.7;;;;;;;;;;;;;;;;;49.22254;-91.40293;-121.845146;;156.2
322.0;212.7;;;;;;;;;;;;;;-1.1305887;-0.44288462;-0.19031343;;;;;156.2
322.0;212.7;;;;;;;;;;;;;;;;;57.142094;0.6027406;-114.249855;;156.2
322.0;212.7;;;;;;;;;;;;;;-1.126255;-0.43647572;-0.19135106;;;;;156.2
322.0;212.7;;;;;;;;;;;;;;;;;68.35383;6.424146;-113.38389;;165.8
322.0;212.7;;;;;;;;;;;;;;-1.1210059;-0.44251838;-0.19013031;;;;;165.8
322.0;212.7;;;;;;;;;;;;;;;;;80.28275;5.2758875;-112.556076;;165.8
322.0;212.7;;;;;;;;;;;;;;-1.1274148;-0.4723655;-0.20001832;;;;;165.8
322.0;272.1;;;;;;;;;;;;;;;;;92.72286;3.5973694;-111.762596;;175.4
322.0;272.1;;;;;;;;;;;;;;-1.0984222;-0.5314493;-0.18903165;;;;;175.4
322.0;272.1;;;;;;;;;;;;;;;;;103.267006;2.9755547;-110.85085;;175.4
322.0;272.1;;;;;;;;;;;;;;-1.0810877;-0.48469496;-0.22705771;;;;;175.4
322.0;272.1;;;;;;;;;;;;;;;;;112.68578;4.4366283;-109.74074;;185.0
322.0;272.1;;;;;;;;;;;;;;-1.101352;-0.5039216;-0.22540972;;;;;185.0
322.0;272.1;;;;;;;;;;;;;;;;;121.402626;2.8725548;-109.36308;;185.0
322.0;272.1;;;;;;;;;;;;;;-1.1019013;-0.46943572;-0.22534868;;;;;185.0
322.0;272.1;;;;;;;;;;;;;;;;;124.67574;-0.6904813;-110.12222;;194.5
322.0;272.1;;;;;;;;;;;;;;-1.0494705;-0.35804316;-0.2367626;;;;;194.5
322.0;272.1;;;;;;;;;;;;;;;;;124.91608;-1.9226661;-109.24482;;194.5
322.0;272.1;;;;;;;;;;;;;;-1.040498;-0.4125492;-0.24738304;;;;;194.5
387.0;273.4;;;;;;;;;;;;;;;;;124.988556;-1.3695182;-106.925415;;204.0
387.0;273.4;;;;;;;;;;;;;;-1.0351878;-0.44294566;-0.25794244;;;;;204.0
387.0;273.4;;;;;;;;;;;;;;;;;124.988556;-1.495407;-105.07904;;204.0
387.0;273.4;;;;;;;;;;;;;;-1.015656;-0.4046144;-0.25995666;;;;;204.0
387.0;273.4;;;;;;;;;;;;;;;;;124.988556;-2.76574;-103.64468;;213.7
387.0;273.4;;;;;;;;;;;;;;-0.98391676;-0.34504226;-0.26819667;;;;;213.7
387.0;273.4;;;;;;;;;;;;;;;;;124.988556;-3.5744805;-101.65715;;213.7
387.0;273.4;;;;;;;;;;;;;;-0.9544359;-0.29206213;-0.2535478;;;;;213.7
387.0;273.4;;;;;;;;;;;;;;;;;124.988556;-4.0894804;-99.623856;;223.4
387.0;273.4;;;;;;;;;;;;;;-0.9149449;-0.29352704;-0.2563555;;;;;223.4
387.0;273.4;;;;;;;;;;;;;;;;;124.988556;-3.5515916;-97.76986;;223.4
387.0;273.4;;;;;;;;;;;;;;-0.86056095;-0.28131962;-0.23944822;;;;;223.4
387.0;332.4;;;;;;;;;;;;;;;;;124.988556;-1.9417402;-96.13712;;233.0
387.0;332.4;;;;;;;;;;;;;;-0.82992035;-0.2684408;-0.21216469;;;;;233.0
387.0;332.4;;;;;;;;;;;;;;;;;124.59944;-1.4267403;-94.843895;;233.0
387.0;332.4;;;;;;;;;;;;;;-0.8009888;-0.22498246;-0.1495407;;;;;233.0
387.0;332.4;;;;;;;;;;;;;;;;;121.34922;-3.2464066;-94.508194;;242.6
387.0;332.4;;;;;;;;;;;;;;-0.7432478;-0.18524735;-0.11078219;;;;;242.6
387.0;332.4;;;;;;;;;;;;;;;;;116.38997;-4.238258;-94.10382;;242.6
387.0;332.4;;;;;;;;;;;;;;-0.68996245;-0.1662038;-0.07440413;;;;;242.6
387.0;332.4;;;;;;;;;;;;;;;;;111.114075;-3.8300729;-93.28364;;252.3
387.0;332.4;;;;;;;;;;;;;;-0.6392407;-0.103274636;-0.039613027;;;;;252.3
387.0;332.4;;;;;;;;;;;;;;;;;104.63653;-2.639851;-91.90267;;252.3
387.0;332.4;;;;;;;;;;;;;;-0.59907836;-0.0629902;-0.008667257;;;;;252.3
445.0;333.2;;;;;;;;;;;;;;;;;97.79657;-0.90792567;-90.46449;;261.9
445.0;333.2;;;;;;;;;;;;;;-0.5694144;-0.039246805;0.02026429;;;;;261.9
445.0;333.2;;;;;;;;;;;;;;;;;90.92989;1.1597034;-88.42357;;261.9
445.0;333.2;;;;;;;;;;;;;;-0.5368206;-0.007934812;0.05261391;;;;;261.9
445.0;333.2;;;;;;;;;;;;;;;;;84.31501;3.1853695;-85.95538;;271.4
445.0;333.2;;;;;;;;;;;;;;-0.52229375;-0.016724143;0.078005314;;;;;271.4
445.0;333.2;;;;;;;;;;;;;;;;;78.203674;4.9592576;-82.67846;;271.4
445.0;333.2;;;;;;;;;;;;;;-0.5117954;-0.01782281;0.116641745;;;;;271.4
445.0;333.2;;;;;;;;;;;;;;;;;71.45528;7.1985536;-79.22605;;281.1
445.0;333.2;;;;;;;;;;;;;;-0.50953704;-0.054322947;0.1380047;;;;;281.1
445.0;333.2;;;;;;;;;;;;;;;;;64.84802;9.62096;-75.56001;;281.1
445.0;333.2;;;;;;;;;;;;;;-0.5182653;-0.08154546;0.1474044;;;;;281.1
445.0;392.7;;;;;;;;;;;;;;;;;58.523056;11.204107;-72.641685;;290.7
445.0;392.7;;;;;;;;;;;;;;-0.5186926;-0.11078219;0.15289773;;;;;290.7
445.0;392.7;;;;;;;;;;;;;;;;;52.575764;12.58507;-69.15494;;290.7
445.0;392.7;;;;;;;;;;;;;;-0.5301675;-0.1556444;0.13892026;;;;;290.7
445.0;392.7;;;;;;;;;;;;;;;;;47.753838;13.428144;-65.8208;;300.3
445.0;392.7;;;;;;;;;;;;;;-0.52522355;-0.18317209;0.13055818;;;;;300.3
445.0;392.7;;;;;;;;;;;;;;;;;43.50795;14.168218;-62.505722;;300.3
445.0;392.7;;;;;;;;;;;;;;-0.527604;-0.22742394;0.12317271;;;;;300.3
445.0;392.7;;;;;;;;;;;;;;;;;40.3531;14.7633295;-59.15632;;309.7
445.0;392.7;;;;;;;;;;;;;;-0.5255287;-0.25147253;0.11401715;;;;;309.7
445.0;392.7;;;;;;;;;;;;;;;;;37.675102;15.392773;-56.03961;;309.7
445.0;392.7;;;;;;;;;;;;;;-0.50593585;-0.28528702;0.11627552;;;;;309.7
502.0;393.9;;;;;;;;;;;;;;;;;35.058136;16.388441;-52.476578;;319.4
502.0;393.9;;;;;;;;;;;;;;-0.49568164;-0.3370464;0.118655965;;;;;319.4
502.0;393.9;;;;;;;;;;;;;;;;;33.26136;17.071291;-49.295025;;319.4
502.0;393.9;;;;;;;;;;;;;;-0.4867702;-0.38026062;0.13031404;;;;;319.4
502.0;393.9;;;;;;;;;;;;;;;;;31.865139;17.61681;-45.857876;;329.1
502.0;393.9;;;;;;;;;;;;;;-0.46583453;-0.4085818;0.13727225;;;;;329.1
502.0;393.9;;;;;;;;;;;;;;;;;30.838953;18.787958;-42.67251;;329.1
502.0;393.9;;;;;;;;;;;;;;-0.4516129;-0.46259958;0.13385418;;;;;329.1
502.0;393.9;;;;;;;;;;;;;;;;;30.739769;20.49318;-39.922024;;338.7
502.0;393.9;;;;;;;;;;;;;;-0.4337901;-0.47395244;0.1350139;;;;;338.7
502.0;393.9;;;;;;;;;;;;;;;;;29.427473;22.560808;-36.96173;;338.7
502.0;393.9;;;;;;;;;;;;;;-0.40943632;-0.5158849;0.12939848;;;;;338.7
502.0;453.0;;;;;;;;;;;;;;;;;28.042694;24.674215;-33.673363;;348.4
502.0;453.0;;;;;;;;;;;;;;-0.3836787;-0.5623951;0.117069006;;;;;348.4
502.0;453.0;;;;;;;;;;;;;;;;;25.940733;26.955475;-30.137028;;348.4
502.0;453.0;;;;;;;;;;;;;;-0.36500138;-0.6180608;0.10290842;;;;;348.4
502.0;453.0;;;;;;;;;;;;;;;;;23.21314;29.000214;-26.375622;;358.1
502.0;453.0;;;;;;;;;;;;;;-0.34601885;-0.67665637;0.09411909;;;;;358.1
502.0;453.0;;;;;;;;;;;;;;;;;20.332956;30.69399;-22.061068;;358.1
502.0;453.0;;;;;;;;;;;;;;-0.338023;-0.7359844;0.09509568;;;;;358.1
502.0;453.0;;;;;;;;;;;;;;;;;17.849512;31.861324;-17.448957;;367.7
502.0;453.0;;;;;;;;;;;;;;-0.3452254;-0.8040407;0.09979553;;;;;367.7
502.0;453.0;;;;;;;;;;;;;;;;;16.68218;31.491287;-12.813959;;367.7
502.0;453.0;;;;;;;;;;;;;;-0.35688344;-0.8809473;0.11120945;;;;;367.7
562.0;453.8;;;;;;;;;;;;;;;;;17.002625;30.735954;-8.041628;;377.3
562.0;453.8;;;;;;;;;;;;;;-0.3782464;-0.96188235;0.112979524;;;;;377.3
562.0;453.8;;;;;;;;;;;;;;;;;18.635365;29.38551;-3.868221;;377.3
562.0;453.8;;;;;;;;;;;;;;-0.397351;-1.0472121;0.09253212;;;;;377.3
562.0;453.8;;;;;;;;;;;;;;;;;21.504105;28.420362;-0.3852962;;387.0
562.0;453.8;;;;;;;;;;;;;;-0.40931424;-1.104709;0.060975984;;;;;387.0
562.0;453.8;;;;;;;;;;;;;;;;;24.925991;28.160954;2.7962584;;387.0
562.0;453.8;;;;;;;;;;;;;;-0.41456345;-1.1421247;0.02130192;;;;;387.0
562.0;453.8;;;;;;;;;;;;;;;;;29.675436;28.721733;5.3750725;;396.5
562.0;453.8;;;;;;;;;;;;;;-0.41175574;-1.147435;-0.019409772;;;;;396.5
562.0;453.8;;;;;;;;;;;;;;;;;35.439617;30.018768;7.457961;;396.5
562.0;453.8;;;;;;;;;;;;;;-0.42518386;-1.1291238;-0.034730066;;;;;396.5
562.0;513.3;;;;;;;;;;;;;;;;;42.08884;31.449326;9.1975155;;406.1
562.0;513.3;;;;;;;;;;;;;;-0.43635365;-1.0906705;-0.032532733;;;;;406.1
562.0;513.3;;;;;;;;;;;;;;;;;49.161507;33.68862;10.521256;;406.1
562.0;513.3;;;;;;;;;;;;;;-0.44611958;-1.0398266;-0.0112918485;;;;;406.1
562.0;513.3;;;;;;;;;;;;;;;;;55.978577;36.98462;11.852626;;415.8
562.0;513.3;;;;;;;;;;;;;;-0.45759454;-0.9771416;0.0023194067;;;;;415.8
562.0;513.3;;;;;;;;;;;;;;;;;62.273018;41.211433;12.924589;;415.8
562.0;513.3;;;;;;;;;;;;;;-0.4613788;-0.9240394;0.006653035;;;;;415.8
562.0;513.3;;;;;;;;;;;;;;;;;67.9342;46.525467;13.679922;;425.4
562.0;513.3;;;;;;;;;;;;;;-0.45515305;-0.88137454;0.006103702;;;;;425.4
562.0;513.3;;;;;;;;;;;;;;;;;72.63787;53.24717;14.427626;;425.4
562.0;513.3;;;;;;;;;;;;;;-0.4370861;-0.84414196;-0.0126957;;;;;425.4
622.0;514.1;;;;;;;;;;;;;;;;;75.4265;60.1062;15.202032;;434.8
622.0;514.1;;;;;;;;;;;;;;-0.4458144;-0.8099002;-0.031250954;;;;;434.8
622.0;514.1;;;;;;;;;;;;;;;;;75.32732;63.49376;15.789515;;434.8
622.0;514.1;;;;;;;;;;;;;;-0.4354381;-0.77407146;-0.054017764;;;;;434.8
622.0;514.1;;;;;;;;;;;;;;;;;72.428055;63.917206;16.869106;;444.4
622.0;514.1;;;;;;;;;;;;;;-0.43482772;-0.7399518;-0.05145421;;;;;444.4
622.0;514.1;;;;;;;;;;;;;;;;;67.74728;61.761833;18.135624;;444.4
622.0;514.1;;;;;;;;;;;;;;-0.42432937;-0.71236306;-0.033936583;;;;;444.4
622.0;514.1;;;;;;;;;;;;;;;;;61.487167;59.118168;20.054476;;454.1
622.0;514.1;;;;;;;;;;;;;;-0.418775;-0.71156955;-0.026490066;;;;;454.1
622.0;514.1;;;;;;;;;;;;;;;;;54.09406;55.558945;22.62566;;454.1
622.0;514.1;;;;;;;;;;;;;;-0.42872402;-0.73610646;-0.04388562;;;;;454.1
622.0;528.6;;;;;;;;;;;;;;;;;46.548355;51.62206;25.204473;;463.6
622.0;528.6;;;;;;;;;;;;;;-0.42085025;-0.7818842;-0.10455641;;;;;463.6
622.0;528.6;;;;;;;;;;;;;;;;;41.77984;48.79147;27.283548;;463.6
622.0;528.6;;;;;;;;;;;;;;-0.45545822;-0.84066284;-0.12524797;;;;;463.6
622.0;528.6;;;;;;;;;;;;;;;;;40.143284;46.02191;28.714102;;473.2
622.0;528.6;;;;;;;;;;;;;;-0.50788903;-0.91433454;-0.11938841;;;;;473.2
622.0;528.6;;;;;;;;;;;;;;;;;39.994507;43.378246;30.243843;;473.2
622.0;528.6;;;;;;;;;;;;;;-0.6201972;-0.9897153;-0.09930723;;;;;473.2
622.0;528.6;;;;;;;;;;;;;;;;;40.01358;38.296917;31.426434;;482.9
622.0;528.6;;;;;;;;;;;;;;-0.7475814;-1.0400097;-0.03234962;;;;;482.9
622.0;528.6;;;;;;;;;;;;;;;;;45.701466;31.670582;31.117435;;482.9
622.0;528.6;;;;;;;;;;;;;;-0.920011;-1.0478225;0.16248055;;;;;482.9
683.0;573.4;;;;;;;;;;;;;;;;;57.649464;23.407698;29.366436;;492.5
683.0;573.4;;;;;;;;;;;;;;-1.1443831;-1.0465407;0.43989378;;;;;492.5
683.0;573.4;;;;;;;;;;;;;;;;;68.41105;15.846737;25.330362;;492.5
683.0;573.4;;;;;;;;;;;;;;-1.3143101;-1.0444044;0.6852626;;;;;492.5
683.0;573.4;;;;;;;;;;;;;;;;;75.36546;18.86044;19.634846;;502.2
683.0;573.4;;;;;;;;;;;;;;-1.3802911;-0.9605396;0.7509384;;;;;502.2
683.0;573.4;;;;;;;;;;;;;;;;;75.766014;36.442917;15.823847;;502.2
683.0;573.4;;;;;;;;;;;;;;-1.4136174;-0.80886257;0.64925075;;;;;502.2
683.0;573.4;;;;;;;;;;;;;;;;;70.2002;58.473465;17.365032;;511.8
683.0;573.4;;;;;;;;;;;;;;-1.5363628;-0.61000395;0.42872402;;;;;511.8
683.0;573.4;;;;;;;;;;;;;;;;;63.11991;65.90091;24.056215;;511.8
683.0;573.4;;;;;;;;;;;;;;-1.7084261;-0.44660786;0.28534806;;;;;511.8
683.0;588.4;;;;;;;;;;;;;;;;;49.764244;58.42006;32.223732;;521.5
683.0;588.4;;;;;;;;;;;;;;-1.7687308;-0.32245857;0.2874233;;;;;521.5
683.0;588.4;;;;;;;;;;;;;;;;;30.198065;48.90973;39.719837;;521.5
683.0;588.4;;;;;;;;;;;;;;-1.6180913;-0.28168583;0.29328287;;;;;521.5
683.0;588.4;;;;;;;;;;;;;;;;;7.3473315;46.769615;44.049656;;531.0
683.0;588.4;;;;;;;;;;;;;;-1.3578906;-0.33887753;0.18286692;;;;;531.0
683.0;588.4;;;;;;;;;;;;;;;;;-14.934996;50.904873;45.850246;;531.0
683.0;588.4;;;;;;;;;;;;;;-1.1769158;-0.4326304;0.09442427;;;;;531.0
683.0;588.4;;;;;;;;;;;;;;;;;-35.157322;51.90054;44.442577;;540.7
683.0;588.4;;;;;;;;;;;;;;-0.98208565;-0.48670918;0.016907254;;;;;540.7
683.0;588.4;;;;;;;;;;;;;;;;;-44.289986;52.186653;44.00006;;540.7
683.0;588.4;;;;;;;;;;;;;;-0.80111086;-0.49653614;-0.0966216;;;;;540.7
743.0;633.7;;;;;;;;;;;;;;;;;-42.36732;52.919098;46.269875;;550.2
743.0;633.7;;;;;;;;;;;;;;-0.69270915;-0.46302682;-0.22247994;;;;;550.2
743.0;633.7;;;;;;;;;;;;;;;;;-33.619953;54.574726;51.03076;;550.2
743.0;633.7;;;;;;;;;;;;;;-0.69454026;-0.40498063;-0.22315134;;;;;550.2
743.0;633.7;;;;;;;;;;;;;;;;;-22.091587;56.46306;55.814537;;559.7
743.0;633.7;;;;;;;;;;;;;;-0.7538072;-0.33643606;-0.128605;;;;;559.7
743.0;633.7;;;;;;;;;;;;;;;;;-16.556292;58.431503;59.07239;;559.7
743.0;633.7;;;;;;;;;;;;;;-0.79409164;-0.2796716;-0.035340436;;;;;559.7
743.0;633.7;;;;;;;;;;;;;;;;;-19.810328;60.529648;61.357464;;569.3
743.0;633.7;;;;;;;;;;;;;;-0.8650777;-0.18091373;0.015808588;;;;;569.3
743.0;633.7;;;;;;;;;;;;;;;;;-28.98114;56.90176;63.451797;;569.3
743.0;633.7;;;;;;;;;;;;;;-0.8852199;-0.13269448;0.0045167394;;;;;569.3
743.0;649.0;;;;;;;;;;;;;;;;;-40.272987;52.381207;65.733055;;578.9
743.0;649.0;;;;;;;;;;;;;;-0.85476243;-0.16351818;-0.027100436;;;;;578.9
743.0;649.0;;;;;;;;;;;;;;;;;-51.248207;51.39317;68.227936;;578.9
743.0;649.0;;;;;;;;;;;;;;-0.8556169;-0.23456526;-0.029358806;;;;;578.9
743.0;649.0;;;;;;;;;;;;;;;;;-60.560165;52.888577;70.26887;;588.5
743.0;649.0;;;;;;;;;;;;;;-0.89126253;-0.30738243;-0.06500442;;;;;588.5
743.0;649.0;;;;;;;;;;;;;;;;;-68.483536;54.040653;71.264534;;588.5
743.0;649.0;;;;;;;;;;;;;;-0.93850523;-0.37275308;-0.15521714;;;;;588.5
743.0;649.0;;;;;;;;;;;;;;;;;-72.07327;52.854244;71.5392;;598.1
743.0;649.0;;;;;;;;;;;;;;-0.9939268;-0.41395307;-0.21131016;;;;;598.1
743.0;649.0;;;;;;;;;;;;;;;;;-73.62591;50.66454;71.33701;;598.1
743.0;649.0;;;;;;;;;;;;;;-1.0341502;-0.43568224;-0.27259132;;;;;598.1
802.0;693.9;;;;;;;;;;;;;;;;;-74.92676;48.844875;70.806755;;607.7
802.0;693.9;;;;;;;;;;;;;;-1.0599078;-0.45484787;-0.29841;;;;;607.7
802.0;693.9;;;;;;;;;;;;;;;;;-75.65539;47.1778;70.24598;;607.7
802.0;693.9;;;;;;;;;;;;;;-1.0945158;-0.47016814;-0.29511398;;;;;607.7
802.0;693.9;;;;;;;;;;;;;;;;;-75.80798;44.591354;69.792015;;617.3
802.0;693.9;;;;;;;;;;;;;;-1.1227759;-0.4829249;-0.2849208;;;;;617.3
802.0;693.9;;;;;;;;;;;;;;;;;-75.579094;42.966248;69.53642;;617.3
802.0;693.9;;;;;;;;;;;;;;-1.1487777;-0.50886565;-0.29352704;;;;;617.3
802.0;693.9;;;;;;;;;;;;;;;;;-72.26783;41.280098;69.77294;;627.0
802.0;693.9;;;;;;;;;;;;;;-1.1796014;-0.51857054;-0.2906583;;;;;627.0
802.0;693.9;;;;;;;;;;;;;;;;;-67.27806;39.63973;70.3032;;627.0
802.0;693.9;;;;;;;;;;;;;;-1.2049928;-0.50685143;-0.29090244;;;;;627.0
802.0;708.9;;;;;;;;;;;;;;;;;-63.8142;37.74758;70.799126;;636.7
802.0;708.9;;;;;;;;;;;;;;-1.2078005;-0.5022736;-0.30555132;;;;;636.7
802.0;708.9;;;;;;;;;;;;;;;;;-60.712757;36.267433;70.77242;;636.7
802.0;708.9;;;;;;;;;;;;;;-1.2026124;-0.4875637;-0.29194006;;;;;636.7
802.0;708.9;;;;;;;;;;;;;;;;;-58.20643;34.707172;70.10864;;646.3
802.0;708.9;;;;;;;;;;;;;;-1.1774651;-0.46888638;-0.28827783;;;;;646.3
802.0;708.9;;;;;;;;;;;;;;;;;-56.1655;33.604694;69.16638;;646.3
802.0;708.9;;;;;;;;;;;;;;-1.157628;-0.44904935;-0.29291666;;;;;646.3
802.0;708.9;;;;;;;;;;;;;;;;;-54.68154;32.116917;67.74346;;655.9
802.0;708.9;;;;;;;;;;;;;;-1.1077609;-0.4321421;-0.30176702;;;;;655.9
802.0;708.9;;;;;;;;;;;;;;;;;-54.63195;30.90762;65.79791;;655.9
802.0;708.9;;;;;;;;;;;;;;-1.0478225;-0.42280343;-0.29352704;;;;;655.9
862.0;754.2;;;;;;;;;;;;;;;;;-54.29243;30.533768;64.424576;;665.5
862.0;754.2;;;;;;;;;;;;;;-1.0032045;-0.40736106;-0.25971252;;;;;665.5
862.0;754.2;;;;;;;;;;;;;;;;;-54.30006;29.953917;63.18476;;665.5
862.0;754.2;;;;;;;;;;;;;;-0.9643239;-0.4034547;-0.2369457;;;;;665.5
862.0;754.2;;;;;;;;;;;;;;;;;-54.269543;29.06125;62.566757;;675.0
862.0;754.2;;;;;;;;;;;;;;-0.92965484;-0.40467542;-0.22638631;;;;;675.0
862.0;754.2;;;;;;;;;;;;;;;;;-54.013947;28.267769;62.681206;;675.0
862.0;754.2;;;;;;;;;;;;;;-0.9032258;-0.42066714;-0.22150335;;;;;675.0
862.0;754.2;;;;;;;;;;;;;;;;;-53.23191;27.104252;63.188576;;684.5
862.0;754.2;;;;;;;;;;;;;;-0.8814356;-0.44251838;-0.2125309;;;;;684.5
862.0;754.2;;;;;;;;;;;;;;;;;-51.911983;25.860622;63.959167;;684.5
862.0;754.2;;;;;;;;;;;;;;-0.86556596;-0.46174505;-0.20996734;;;;;684.5
862.0;761.6;;;;;;;;;;;;;;;;;-49.98932;24.697105;64.63058;;694.2
862.0;761.6;;;;;;;;;;;;;;-0.8554338;-0.48463392;-0.2038026;;;;;694.2
862.0;761.6;;;;;;;;;;;;;;;;;-47.50206;23.934141;65.76357;;694.2
862.0;761.6;;;;;;;;;;;;;;-0.8529313;-0.5121006;-0.2033143;;;;;694.2
862.0;761.6;;;;;;;;;;;;;;;;;-44.610428;22.930845;66.58376;;703.8
862.0;761.6;;;;;;;;;;;;;;-0.84109014;-0.5373699;-0.22632527;;;;;703.8
862.0;761.6;;;;;;;;;;;;;;;;;-41.02069;22.5074;67.09495;;703.8
862.0;761.6;;;;;;;;;;;;;;-0.8379162;-0.54268014;-0.23920408;;;;;703.8
862.0;761.6;;;;;;;;;;;;;;;;;-36.973175;21.95044;67.43446;;713.4
862.0;761.6;;;;;;;;;;;;;;-0.84017456;-0.5570238;-0.23468734;;;;;713.4
862.0;761.6;;;;;;;;;;;;;;;;;-32.105473;20.996735;67.999054;;713.4
862.0;761.6;;;;;;;;;;;;;;-0.8463393;-0.5676443;-0.21869564;;;;;713.4
923.0;814.8;;;;;;;;;;;;;;;;;-27.108067;19.997253;68.483536;;722.9
923.0;814.8;;;;;;;;;;;;;;-0.85659355;-0.5593432;-0.22681357;;;;;722.9
923.0;814.8;;;;;;;;;;;;;;;;;-22.556993;18.898588;69.02524;;722.9
923.0;814.8;;;;;;;;;;;;;;-0.86239207;-0.5418256;-0.2318186;;;;;722.9
923.0;814.8;;;;;;;;;;;;;;;;;-18.627735;18.078402;69.61653;;732.5
923.0;814.8;;;;;;;;;;;;;;-0.873867;-0.5321207;-0.21924497;;;;;732.5
923.0;814.8;;;;;;;;;;;;;;;;;-14.988402;17.952513;70.06668;;732.5
923.0;814.8;;;;;;;;;;;;;;-0.88448745;-0.51387066;-0.21625416;;;;;732.5
923.0;814.8;;;;;;;;;;;;;;;;;-11.547441;17.891476;70.44435;;742.2
923.0;814.8;;;;;;;;;;;;;;-0.8924833;-0.4961089;-0.22229682;;;;;742.2
923.0;814.8;;;;;;;;;;;;;;;;;-8.033998;17.864773;71.14627;;742.2
923.0;814.8;;;;;;;;;;;;;;-0.9029206;-0.47608876;-0.21668142;;;;;742.2
923.0;821.9;;;;;;;;;;;;;;;;;-5.180517;17.59392;71.905426;;751.7
923.0;821.9;;;;;;;;;;;;;;-0.90755945;-0.44099247;-0.21192053;;;;;751.7
923.0;821.9;;;;;;;;;;;;;;;;;-3.7499619;17.17429;72.66839;;751.7
923.0;821.9;;;;;;;;;;;;;;-0.90713215;-0.41969055;-0.20850246;;;;;751.7
923.0;821.9;;;;;;;;;;;;;;;;;-2.2240365;17.155216;73.62972;;761.4
923.0;821.9;;;;;;;;;;;;;;-0.9135411;-0.40699485;-0.19452497;;;;;761.4
923.0;821.9;;;;;;;;;;;;;;;;;-1.2436292;16.60207;74.20576;;761.4
923.0;821.9;;;;;;;;;;;;;;-0.91549426;-0.3818476;-0.19318217;;;;;761.4
923.0;821.9;;;;;;;;;;;;;;;;;-1.8539995;15.751366;74.449905;;771.0
923.0;821.9;;;;;;;;;;;;;;-0.9016999;-0.3394879;-0.1894589;;;;;771.0
923.0;821.9;;;;;;;;;;;;;;;;;-2.9183326;15.686514;74.69024;;771.0
923.0;821.9;;;;;;;;;;;;;;-0.897;-0.31006807;-0.18457595;;;;;771.0
983.0;874.5;;;;;;;;;;;;;;;;;-4.055147;15.381329;75.23957;;780.5
983.0;874.5;;;;;;;;;;;;;;-0.8800928;-0.28925443;-0.18652913;;;;;780.5
983.0;874.5;;;;;;;;;;;;;;;;;-4.8677025;14.839625;75.78509;;780.5
983.0;874.5;;;;;;;;;;;;;;-0.8713645;-0.2804651;-0.17273477;;;;;780.5
983.0;874.5;;;;;;;;;;;;;;;;;-6.145665;13.985106;76.33824;;790.2
983.0;874.5;;;;;;;;;;;;;;-0.8550066;-0.27747428;-0.1815241;;;;;790.2
983.0;874.5;;;;;;;;;;;;;;;;;-7.9958496;14.072847;76.773125;;790.2
983.0;874.5;;;;;;;;;;;;;;-0.84939116;-0.25305948;-0.1525315;;;;;790.2
983.0;874.5;;;;;;;;;;;;;;;;;-9.750664;15.015106;77.53991;;799.9
983.0;874.5;;;;;;;;;;;;;;-0.8618427;-0.24835964;-0.16064943;;;;;799.9
983.0;874.5;;;;;;;;;;;;;;;;;-11.410108;14.397107;78.287605;;799.9
983.0;874.5;;;;;;;;;;;;;;-0.84823143;-0.24555193;-0.17590868;;;;;799.9
983.0;882.0;;;;;;;;;;;;;;;;;-12.905515;14.625996;79.34812;;809.5
983.0;882.0;;;;;;;;;;;;;;-0.8518326;-0.25843075;-0.18750572;;;;;809.5
983.0;882.0;;;;;;;;;;;;;;;;;-13.760033;14.500107;80.381935;;809.5
983.0;882.0;;;;;;;;;;;;;;-0.86574906;-0.25702688;-0.1920835;;;;;809.5
983.0;882.0;;;;;;;;;;;;;;;;;-15.282144;13.4167;81.045715;;819.0
983.0;882.0;;;;;;;;;;;;;;-0.8572039;-0.2482986;-0.19428083;;;;;819.0
983.0;882.0;;;;;;;;;;;;;;;;;-18.532366;13.225959;81.40049;;819.0
983.0;882.0;;;;;;;;;;;;;;-0.8514664;-0.25678274;-0.20172735;;;;;819.0
983.0;882.0;;;;;;;;;;;;;;;;;-21.122623;13.477737;81.87353;;828.7
983.0;882.0;;;;;;;;;;;;;;-0.85219884;-0.25397503;-0.20728172;;;;;828.7
983.0;882.0;;;;;;;;;;;;;;;;;-23.678549;13.817255;82.159645;;828.7
983.0;882.0;;;;;;;;;;;;;;-0.87002164;-0.25873592;-0.19824824;;;;;828.7
1041.0;935.2;;;;;;;;;;;;;;;;;-24.719994;13.595997;82.96457;;838.3
1041.0;935.2;;;;;;;;;;;;;;-0.8794824;-0.29841;-0.19910276;;;;;838.3
1041.0;935.2;;;;;;;;;;;;;;;;;-24.945066;12.131108;83.304085;;838.3
1041.0;935.2;;;;;;;;;;;;;;-0.8641621;-0.29572436;-0.21906187;;;;;838.3
1041.0;935.2;;;;;;;;;;;;;;;;;-25.318918;12.432477;83.1515;;847.8
1041.0;935.2;;;;;;;;;;;;;;-0.9006012;-0.23523667;-0.23249;;;;;847.8
1041.0;935.2;;;;;;;;;;;;;;;;;-28.603474;11.440626;81.202126;;847.8
1041.0;935.2;;;;;;;;;;;;;;-0.87594223;-0.164861;-0.23926511;;;;;847.8
1041.0;935.2;;;;;;;;;;;;;;;;;-32.124546;11.722922;79.88601;;857.5
1041.0;935.2;;;;;;;;;;;;;;-0.8876003;-0.18231757;-0.23670156;;;;;857.5
1041.0;935.2;;;;;;;;;;;;;;;;;-34.211246;11.45207;79.41679;;857.5
1041.0;935.2;;;;;;;;;;;;;;-0.9009674;-0.22095402;-0.24384288;;;;;857.5
1041.0;936.0;;;;;;;;;;;;;;;;;-35.222176;11.211737;78.89416;;867.2
1041.0;936.0;;;;;;;;;;;;;;-0.90572834;-0.2367626;-0.23517564;;;;;867.2
1041.0;936.0;;;;;;;;;;;;;;;;;-36.15299;11.223182;77.879425;;867.2
1041.0;936.0;;;;;;;;;;;;;;-0.9136021;-0.2247383;-0.23389386;;;;;867.2
1041.0;936.0;;;;;;;;;;;;;;;;;-37.7781;10.719626;76.128426;;876.8
1041.0;936.0;;;;;;;;;;;;;;-0.8913846;-0.20990631;-0.23255104;;;;;876.8
1041.0;936.0;;;;;;;;;;;;;;;;;-38.895844;9.73159;73.96542;;876.8
1041.0;936.0;;;;;;;;;;;;;;-0.8694723;-0.23969238;-0.2287057;;;;;876.8
1041.0;936.0;;;;;;;;;;;;;;;;;-39.208652;9.491257;72.40135;;886.3
1041.0;936.0;;;;;;;;;;;;;;-0.8758812;-0.24225593;-0.23419905;;;;;886.3
1041.0;936.0;;;;;;;;;;;;;;;;;-39.426098;8.655812;69.85305;;886.3
1041.0;936.0;;;;;;;;;;;;;;-0.8586688;-0.25543994;-0.24713889;;;;;886.3
1098.0;995.1;;;;;;;;;;;;;;;;;-38.30073;8.236183;67.07206;;896.0
1098.0;995.1;;;;;;;;;;;;;;-0.8489029;-0.25666067;-0.24079104;;;;;896.0
1098.0;995.1;;;;;;;;;;;;;;;;;-37.980286;7.7288127;63.917206;;896.0
1098.0;995.1;;;;;;;;;;;;;;-0.8192999;-0.25586718;-0.23773919;;;;;896.0
1098.0;995.1;;;;;;;;;;;;;;;;;-36.973175;7.9119234;61.46046;;905.4
1098.0;995.1;;;;;;;;;;;;;;-0.8130741;-0.27314067;-0.23023164;;;;;905.4
1098.0;995.1;;;;;;;;;;;;;;;;;-35.34425;7.5457015;59.3585;;905.4
1098.0;995.1;;;;;;;;;;;;;;-0.79714346;-0.27637562;-0.23303933;;;;;905.4
1098.0;995.1;;;;;;;;;;;;;;;;;-33.158363;7.6448865;57.84402;;915.0
1098.0;995.1;;;;;;;;;;;;;;-0.8031861;-0.29071933;-0.23474838;;;;;915.0
1098.0;995.1;;;;;;;;;;;;;;;;;-30.58336;7.827998;56.69576;;915.0
1098.0;995.1;;;;;;;;;;;;;;-0.8105106;-0.30036318;-0.23944822;;;;;915.0
1098.0;995.9;;;;;;;;;;;;;;;;;-27.836695;7.7326274;55.635242;;924.6
1098.0;995.9;;;;;;;;;;;;;;-0.82125306;-0.3068331;-0.24292734;;;;;924.6
1098.0;995.9;;;;;;;;;;;;;;;;;-24.96414;7.4465165;54.116947;;924.6
1098.0;995.9;;;;;;;;;;;;;;-0.8282113;-0.319834;-0.24506363;;;;;924.6
1098.0;995.9;;;;;;;;;;;;;;;;;-21.64144;7.1375165;52.64443;;934.3
1098.0;995.9;;;;;;;;;;;;;;-0.83315533;-0.3228248;-0.24524674;;;;;934.3
1098.0;995.9;;;;;;;;;;;;;;;;;-18.066957;6.8666644;51.332134;;934.3
1098.0;995.9;;;;;;;;;;;;;;-0.84359264;-0.33063754;-0.24890897;;;;;934.3
1098.0;995.9;;;;;;;;;;;;;;;;;-14.286477;6.725517;50.17243;;944.0
1098.0;995.9;;;;;;;;;;;;;;-0.8509171;-0.34455398;-0.24585712;;;;;944.0
1098.0;995.9;;;;;;;;;;;;;;;;;-10.223701;7.0116277;48.986023;;944.0
1098.0;995.9;;;;;;;;;;;;;;-0.8650777;-0.34473708;-0.24219489;;;;;944.0
1162.0;1055.4;;;;;;;;;;;;;;;;;-5.8023314;6.9696646;47.90643;;953.7
1162.0;1055.4;;;;;;;;;;;;;;-0.8742943;-0.33832818;-0.24707785;;;;;953.7
1162.0;1055.4;;;;;;;;;;;;;;;;;-1.53737;6.3592944;46.63991;;953.7
1162.0;1055.4;;;;;;;;;;;;;;-0.8725242;-0.3211768;-0.2515946;;;;;953.7
1162.0;1055.4;;;;;;;;;;;;;;;;;2.6779993;6.000702;45.69002;;963.2
1162.0;1055.4;;;;;;;;;;;;;;-0.875515;-0.31141087;-0.24225593;;;;;963.2
1162.0;1055.4;;;;;;;;;;;;;;;;;6.7941833;5.6611834;44.740135;;963.2
1162.0;1055.4;;;;;;;;;;;;;;-0.8683737;-0.29517502;-0.2323069;;;;;963.2
1162.0;1055.4;;;;;;;;;;;;;;;;;11.017182;5.4971466;43.996246;;972.8
1162.0;1055.4;;;;;;;;;;;;;;-0.8680074;-0.27307963;-0.22644734;;;;;972.8
1162.0;1055.4;;;;;;;;;;;;;;;;;14.744255;5.409406;43.72921;;972.8
1162.0;1055.4;;;;;;;;;;;;;;-0.86306345;-0.23761712;-0.21301919;;;;;972.8
1162.0;1056.5;;;;;;;;;;;;;;;;;17.830439;5.5238504;43.488876;;982.4
1162.0;1056.5;;;;;;;;;;;;;;-0.8586688;-0.21094394;-0.20886868;;;;;982.4
1162.0;1056.5;;;;;;;;;;;;;;;;;20.218512;5.565813;43.19895;;982.4
1162.0;1056.5;;;;;;;;;;;;;;-0.86239207;-0.18872647;-0.20441298;;;;;982.4
1162.0;1056.5;;;;;;;;;;;;;;;;;21.462143;5.0279245;42.48558;;992.1
1162.0;1056.5;;;;;;;;;;;;;;-0.86666465;-0.17883846;-0.20752586;;;;;992.1
1162.0;1056.5;;;;;;;;;;;;;;;;;21.694845;4.8295546;41.287727;;992.1
1162.0;1056.5;;;;;;;;;;;;;;-0.8608051;-0.16589862;-0.2125309;;;;;992.1
1162.0;1056.5;;;;;;;;;;;;;;;;;21.69103;4.8066654;39.891506;;1001.6
1162.0;1056.5;;;;;;;;;;;;;;-0.88265634;-0.16730247;-0.21887875;;;;;1001.6
1162.0;1056.5;;;;;;;;;;;;;;;;;21.660513;3.8186285;38.53725;;1001.6
1162.0;1056.5;;;;;;;;;;;;;;-0.8882107;-0.15179907;-0.2191229;;;;;1001.6
1163.0;1115.5;;;;;;;;;;;;;;;;;21.481216;2.750481;38.10236;;1011.2
1163.0;1115.5;;;;;;;;;;;;;;-0.887051;-0.1380047;-0.22540972;;;;;1011.2
1163.0;1115.5;;;;;;;;;;;;;;;;;21.240883;3.0823696;38.579212;;1011.2
1163.0;1115.5;;;;;;;;;;;;;;-0.9045686;-0.14276558;-0.22748497;;;;;1011.2
1163.0;1115.5;;;;;;;;;;;;;;;;;21.336254;3.1968138;38.953064;;1020.8
1163.0;1115.5;;;;;;;;;;;;;;-0.9241615;-0.15063937;-0.23456526;;;;;1020.8
1163.0;1115.5;;;;;;;;;;;;;;;;;21.023438;2.6970735;38.762325;;1020.8
1163.0;1115.5;;;;;;;;;;;;;;-0.9403973;-0.15936765;-0.24433118;;;;;1020.8
1163.0;1115.5;;;;;;;;;;;;;;;;;20.092623;1.6060365;37.945953;;1030.4
1163.0;1115.5;;;;;;;;;;;;;;-0.9360637;-0.15717033;-0.24079104;;;;;1030.4
1163.0;1115.5;;;;;;;;;;;;;;;;;18.761253;1.5030366;36.885433;;1030.4
1163.0;1115.5;;;;;;;;;;;;;;-0.939848;-0.16541032;-0.24378185;;;;;1030.4
1163.0;1116.3;;;;;;;;;;;;;;;;;18.03644;1.5907773;36.01947;;1040.0
1163.0;1116.3;;;;;;;;;;;;;;-0.9466842;-0.1594287;-0.24115726;;;;;1040.0
1163.0;1116.3;;;;;;;;;;;;;;;;;17.303995;1.1368145;34.810173;;1040.0
1163.0;1116.3;;;;;;;;;;;;;;-0.9499191;-0.17145298;-0.23712882;;;;;1040.0
1163.0;1116.3;;;;;;;;;;;;;;;;;17.124699;0.9498886;34.028137;;1049.6
1163.0;1116.3;;;;;;;;;;;;;;-0.9429609;-0.18457595;-0.23834956;;;;;1049.6
1163.0;1116.3;;;;;;;;;;;;;;;;;17.353586;0.8354442;33.368176;;1049.6
1163.0;1116.3;;;;;;;;;;;;;;-0.9469283;-0.2029481;-0.23541978;;;;;1049.6
1163.0;1116.3;;;;;;;;;;;;;;;;;17.323069;1.3962218;32.57851;;1059.3
1163.0;1116.3;;;;;;;;;;;;;;-0.9363689;-0.21723075;-0.2412183;;;;;1059.3
1163.0;1116.3;;;;;;;;;;;;;;;;;17.479475;2.3842587;32.15125;;1059.3
1163.0;1116.3;;;;;;;;;;;;;;-0.94387645;-0.23078097;-0.23932615;;;;;1059.3
1221.0;1127.2;;;;0.0;0.0;0.0;;;;;;;;;;;;;;;
1221.0;1127.2;;;;-0.24797443;0.0331955;-0.22191623;;;;;;;;;;;;;;;
1221.0;1127.2;;;;-0.7598001;0.03862;-0.7053719;;;;;;;;;;;;;;;
1221.0;1127.2;;;;-0.78257;0.035133366;-0.7311478;;;;;;;;;;;;;;;
1221.0;1127.2;;;;-0.78445446;0.03741074;-0.7356301;;;;;;;;;;;;;;;
1221.0;1137.2;;;;-0.7866746;0.039707188;-0.7416077;;;;;;;;;;;;;;;
1221.0;1137.2;;;;-0.78899014;0.04211426;-0.7473183;;;;;;;;;;;;;;;
1221.0;1137.2;;;;-0.7910081;0.04485703;-0.75328076;;;;;;;;;;;;;;;
1221.0;1137.2;;;;-0.79238904;0.046737675;-0.7586976;;;;;;;;;;;;;;;
1221.0;1137.2;;;;-0.79332745;0.04828263;-0.7647363;;;;;;;;;;;;;;;
1221.0;1138.3;57403;57467;13040;;;;;;;;;;;;;;;;;;
1221.0;1147.0;;;;-0.79578793;0.049709328;-0.77064145;;;;;;;;;;;;;;;
1221.0;1147.0;;;;-0.79919446;0.051696785;-0.77557766;;;;;;;;;;;;;;;
1221.0;1147.0;;;;-0.80274975;0.053962715;-0.7804681;;;;;;;;;;;;;;;
1221.0;1147.0;;;;-0.80661786;0.0569954;-0.78600323;;;;;;;;;;;;;;;
1221.0;1147.0;;;;-0.8105279;0.060962684;-0.7909471;;;;;;;;;;;;;;;
1222.0;1157.2;;;;-0.8150445;0.064796455;-0.7953416;;;;;;;;;;;;;;;
1222.0;1157.2;;;;-0.81990063;0.06911851;-0.7990991;;;;;;;;;;;;;;;
1222.0;1157.2;;;;-0.8243791;0.07320023;-0.80328;;;;;;;;;;;;;;;
1222.0;1157.2;;;;-0.8270303;0.07687379;-0.8059312;;;;;;;;;;;;;;;
1222.0;1157.2;;;;-0.8289186;0.080501564;-0.8068048;;;;;;;;;;;;;;;
1222.0;1158.4;73821;73825;13045;;;;;;;;;;;;;;;;;;
1222.0;1164.8;;;;;;;;;;;;;0;;;;;;;;
1222.0;1164.8;;;;;;;;;;;;;0;;;;;;;;
1222.0;1164.8;;;;;;;;;;;;;-1;;;;;;;;
1222.0;1164.8;;;;;;;;;;;;;-2;;;;;;;;
1222.0;1164.8;;;;;;;;;;;;;-3;;;;;;;;
1222.0;1167.3;;;;-0.8305589;0.08339692;-0.80757916;;;;;;;;;;;;;;;
1222.0;1167.3;;;;-0.8316041;0.08575059;-0.8082391;;;;;;;;;;;;;;;
1222.0;1167.3;;;;-0.83395016;0.08805848;-0.8100816;;;;;;;;;;;;;;;
1222.0;1167.3;;;;-0.8372499;0.09046937;-0.81198514;;;;;;;;;;;;;;;
1222.0;1167.3;;;;-0.8412019;0.092823036;-0.81333554;;;;;;;;;;;;;;;
1223.0;1175.7;;;;;;;;;;;;;;;;;17.77703;2.8916287;32.044437;;1068.9
1223.0;1175.7;;;;;;;;;;;;;;-0.9461348;-0.22534868;-0.24512467;;;;;1068.9
1223.0;1175.7;;;;;;;;;;;;;;;;;18.24244;3.0785549;31.598103;;1068.9
1223.0;1175.7;;;;;;;;;;;;;;-0.94912565;-0.24951933;-0.2450026;;;;;1068.9
1223.0;1175.7;;;;;;;;;;;;;;;;;19.665363;3.2464066;31.743065;;1078.6
1223.0;1175.7;;;;;;;;;;;;;;-0.94283885;-0.24542986;-0.24146245;;;;;1078.6
1223.0;1175.7;;;;;;;;;;;;;;;;;21.336254;3.68511;31.96814;;1078.6
1223.0;1175.7;;;;;;;;;;;;;;-0.9526048;-0.23090304;-0.22907193;;;;;1078.6
1223.0;1175.7;;;;;;;;;;;;;;;;;23.010956;3.604999;32.0101;;1088.0
1223.0;1175.7;;;;;;;;;;;;;;-0.9522996;-0.235786;-0.23291726;;;;;1088.0
1223.0;1175.7;;;;;;;;;;;;;;;;;25.097658;3.5897398;32.15125;;1088.0
1223.0;1175.7;;;;;;;;;;;;;;-0.9631031;-0.23999757;-0.23981445;;;;;1088.0
1223.0;1176.9;;;;;;;;;;;;;;;;;26.955475;3.7156286;32.124546;;1097.7
1223.0;1176.9;;;;;;;;;;;;;;-0.9683523;-0.23151341;-0.24115726;;;;;1097.7
1223.0;1176.9;;;;;;;;;;;;;;;;;28.4814;3.9826655;32.109287;;1097.7
1223.0;1176.9;;;;;;;;;;;;;;-0.96963406;-0.22095402;-0.250618;;;;;1097.7
1223.0;1176.9;;;;;;;;;;;;;;;;;30.098879;4.440443;32.223732;;1107.3
1223.0;1176.9;;;;;;;;;;;;;;-0.98654133;-0.20239876;-0.258858;;;;;1107.3
1223.0;1176.9;;;;;;;;;;;;;;;;;31.456955;4.8486285;32.639545;;1107.3
1223.0;1176.9;;;;;;;;;;;;;;-0.99429303;-0.1857967;-0.2667928;;;;;1107.3
1223.0;1176.9;;;;;;;;;;;;;;;;;31.994843;5.4437394;33.097324;;1117.0
1223.0;1176.9;;;;;;;;;;;;;;-1.01059;-0.16705832;-0.27045503;;;;;1117.0
1223.0;1176.9;;;;;;;;;;;;;;;;;32.15888;5.83285;33.776363;;1117.0
1223.0;1176.9;;;;;;;;;;;;;;-1.0202948;-0.15527818;-0.275338;;;;;1117.0
1282.0;1177.2;;;;-0.84422314;0.0953026;-0.81539166;;;;;;;;;;;;;;;
1282.0;1177.2;;;;-0.8469163;0.097534195;-0.8181306;;;;;;;;;;;;;;;
1282.0;1177.2;;;;-0.8496057;0.09955217;-0.82048047;;;;;;;;;;;;;;;
1282.0;1177.2;;;;-0.85110486;0.101928726;-0.82236874;;;;;;;;;;;;;;;
1282.0;1177.2;;;;-0.85180676;0.10474779;-0.8246957;;;;;;;;;;;;;;;
1282.0;1178.4;90276;90235;13042;;;;;;;;;;;;;;;;;;
1282.0;1187.3;;;;-0.8533708;0.10818483;-0.8269006;;;;;;;;;;;;;;;
1282.0;1187.3;;;;-0.85691845;0.11183931;-0.82912457;;;;;;;;;;;;;;;
1282.0;1187.3;;;;-0.8619424;0.115596786;-0.8316728;;;;;;;;;;;;;;;
1282.0;1187.3;;;;-0.8662721;0.119201675;-0.833706;;;;;;;;;;;;;;;
1282.0;1187.3;;;;-0.8700601;0.12236406;-0.83493817;;;;;;;;;;;;;;;
1282.0;1197.3;;;;-0.87432873;0.12613298;-0.83480465;;;;;;;;;;;;;;;
1282.0;1197.3;;;;-0.8778001;0.12952043;-0.83438504;;;;;;;;;;;;;;;
1282.0;1197.3;;;;-0.8823434;0.13291551;-0.8350755;;;;;;;;;;;;;;;
1282.0;1197.3;;;;-0.8875543;0.1360779;-0.8376428;;;;;;;;;;;;;;;
1282.0;1197.3;;;;-0.8923837;0.1391678;-0.8394815;;;;;;;;;;;;;;;
1282.0;1198.6;106620;106659;13052;;;;;;;;;;;;;;;;;;
1282.0;1204.8;;;;;;;;;;;;;-7;;;;;;;;
1282.0;1204.8;;;;;;;;;;;;;-6;;;;;;;;
1282.0;1204.8;;;;;;;;;;;;;-8;;;;;;;;
1282.0;1204.8;;;;;;;;;;;;;-17;;;;;;;;
1282.0;1204.8;;;;;;;;;;;;;-11;;;;;;;;
1286.0;1207.1;;;;-0.8963891;0.14229204;-0.8418313;;;;;;;;;;;;;;;
1286.0;1207.1;;;;-0.89973843;0.1456566;-0.8439294;;;;;;;;;;;;;;;
1286.0;1207.1;;;;-0.9027368;0.14878084;-0.8465463;;;;;;;;;;;;;;;
1286.0;1207.1;;;;-0.904915;0.15205385;-0.84830487;;;;;;;;;;;;;;;
1286.0;1207.1;;;;-0.9068719;0.15518571;-0.8503953;;;;;;;;;;;;;;;
1286.0;1217.1;;;;-0.9087678;0.15852739;-0.8526155;;;;;;;;;;;;;;;
1286.0;1217.1;;;;-0.9120904;0.1630707;-0.8536378;;;;;;;;;;;;;;;
1286.0;1217.1;;;;-0.91661084;0.16710664;-0.8552171;;;;;;;;;;;;;;;
1286.0;1217.1;;;;-0.92174923;0.17169191;-0.85842526;;;;;;;;;;;;;;;
1286.0;1217.1;;;;-0.92823803;0.17683412;-0.86229336;;;;;;;;;;;;;;;
1286.0;1218.5;123030;123015;13052;;;;;;;;;;;;;;;;;;
1286.0;1227.2;;;;-0.93615353;0.1827202;-0.86493695;;;;;;;;;;;;;;;
1286.0;1227.2;;;;-0.94379056;0.18847278;-0.8667871;;;;;;;;;;;;;;;
1286.0;1227.2;;;;-0.951378;0.19348529;-0.8705903;;;;;;;;;;;;;;;
1286.0;1227.2;;;;-0.9579774;0.1987038;-0.87495434;;;;;;;;;;;;;;;
1286.0;1227.2;;;;-0.9617578;0.20300677;-0.87768185;;;;;;;;;;;;;;;
1286.0;1237.3;;;;-0.96330273;0.20772555;-0.87973416;;;;;;;;;;;;;;;
1286.0;1237.3;;;;-0.963276;0.21196368;-0.88385403;;;;;;;;;;;;;;;
1286.0;1237.3;;;;-0.96258175;0.21603015;-0.88850796;;;;;;;;;;;;;;;
1286.0;1237.3;;;;-0.96284115;0.22024539;-0.89341366;;;;;;;;;;;;;;;
1286.0;1237.3;;;;-0.96336377;0.22441867;-0.8983232;;;;;;;;;;;;;;;
1288.0;1238.7;139333;139321;13055;;;;;;;;;;;;;;;;;;
1288.0;1243.5;;;;;;;;;;;;;;;;;32.07877;5.8481092;34.493546;;1126.6
1288.0;1243.5;;;;;;;;;;;;;;-1.0168157;-0.14471877;-0.26899013;;;;;1126.6
1288.0;1243.5;;;;;;;;;;;;;;;;;31.899471;6.2067018;35.260323;;1126.6
1288.0;1243.5;;;;;;;;;;;;;;-1.0314035;-0.13812678;-0.26520586;;;;;1126.6
1288.0;1243.5;;;;;;;;;;;;;;;;;31.815548;6.241035;36.133915;;1136.3
1288.0;1243.5;;;;;;;;;;;;;;-1.0425123;-0.1309244;-0.26947844;;;;;1136.3
1288.0;1243.5;;;;;;;;;;;;;;;;;31.899471;6.2181463;37.022766;;1136.3
1288.0;1243.5;;;;;;;;;;;;;;-1.0500809;-0.1314127;-0.27307963;;;;;1136.3
1288.0;1243.5;;;;;;;;;;;;;;;;;32.002472;6.488998;37.81625;;1145.7
1288.0;1243.5;;;;;;;;;;;;;;-1.0674154;-0.13409834;-0.2760094;;;;;1145.7
1288.0;1243.5;;;;;;;;;;;;;;;;;32.07114;6.405072;38.151955;;1145.7
1288.0;1243.5;;;;;;;;;;;;;;-1.0862148;-0.14227729;-0.2826014;;;;;1145.7
1288.0;1244.1;;;;;;;;;;;;;;;;;32.41829;7.0307016;38.66314;;1155.4
1288.0;1244.1;;;;;;;;;;;;;;-1.1147801;-0.1429487;-0.283639;;;;;1155.4
1288.0;1244.1;;;;;;;;;;;;;;;;;33.20414;7.450331;39.384136;;1155.4
1288.0;1244.1;;;;;;;;;;;;;;-1.1686758;-0.1645558;-0.28418836;;;;;1155.4
1288.0;1244.1;;;;;;;;;;;;;;;;;34.15784;6.9429607;39.582504;;1165.0
1288.0;1244.1;;;;;;;;;;;;;;-1.1979736;-0.16254158;-0.27655873;;;;;1165.0
1288.0;1244.1;;;;;;;;;;;;;;;;;35.01236;6.8666644;39.52147;;1165.0
1288.0;1244.1;;;;;;;;;;;;;;-1.2370373;-0.15851314;-0.27149266;;;;;1165.0
1288.0;1244.1;;;;;;;;;;;;;;;;;35.21836;6.851405;38.960693;;1174.5
1288.0;1244.1;;;;;;;;;;;;;;-1.2768945;-0.15674306;-0.26056704;;;;;1174.5
1288.0;1244.1;;;;;;;;;;;;;;;;;34.535507;5.981628;38.010803;;1174.5
1288.0;1244.1;;;;;;;;;;;;;;-1.2948393;-0.16760765;-0.270394;;;;;1174.5
1288.0;1244.8;;;;;;;;;;;;;-31;;;;;;;;
1288.0;1244.8;;;;;;;;;;;;;-25;;;;;;;;
1288.0;1244.8;;;;;;;;;;;;;-8;;;;;;;;
1288.0;1244.8;;;;;;;;;;;;;-105;;;;;;;;
1288.0;1244.8;;;;;;;;;;;;;31;;;;;;;;
1288.0;1247.2;;;;-0.9644662;0.22879413;-0.9032823;;;;;;;;;;;;;;;
1288.0;1247.2;;;;-0.9663278;0.23318484;-0.9088479;;;;;;;;;;;;;;;
1288.0;1247.2;;;;-0.96901715;0.23719409;-0.91429913;;;;;;;;;;;;;;;
1288.0;1247.2;;;;-0.9721986;0.24133304;-0.92076504;;;;;;;;;;;;;;;
1288.0;1247.2;;;;-0.9757196;0.24596027;-0.92723095;;;;;;;;;;;;;;;
1345.0;1257.1;;;;-0.97945416;0.24989703;-0.9331285;;;;;;;;;;;;;;;
1345.0;1257.1;;;;-0.9834024;0.25423053;-0.9386865;;;;;;;;;;;;;;;
1345.0;1257.1;;;;-0.9866792;0.25796893;-0.9440309;;;;;;;;;;;;;;;
1345.0;1257.1;;;;-0.9895822;0.2620125;-0.9484254;;;;;;;;;;;;;;;
1345.0;1257.1;;;;-0.99248135;0.26583865;-0.9526826;;;;;;;;;;;;;;;
1345.0;1258.6;155816;155794;13034;;;;;;;;;;;;;;;;;;
1345.0;1267.0;;;;-0.99489224;0.26968387;-0.95565045;;;;;;;;;;;;;;;
1345.0;1267.0;;;;-0.99720776;0.27338794;-0.95796597;;;;;;;;;;;;;;;
1345.0;1267.0;;;;-0.99988186;0.27689365;-0.9590951;;;;;;;;;;;;;;;
1345.0;1267.0;;;;-1.0017129;0.2798691;-0.9595529;;;;;;;;;;;;;;;
1345.0;1267.0;;;;-1.0025979;0.2829323;-0.95858014;;;;;;;;;;;;;;;
1345.0;1276.9;;;;-1.0031434;0.2859421;-0.95656216;;;;;;;;;;;;;;;
1345.0;1276.9;;;;-1.0037309;0.28842166;-0.95466244;;;;;;;;;;;;;;;
1345.0;1276.9;;;;-1.0040246;0.290432;-0.9518434;;;;;;;;;;;;;;;
1345.0;1276.9;;;;-1.0036927;0.29241946;-0.94715893;;;;;;;;;;;;;;;
1345.0;1276.9;;;;-1.0021516;0.2940102;-0.9419137;;;;;;;;;;;;;;;
1345.0;1278.4;172130;172178;13009;;;;;;;;;;;;;;;;;;
1345.0;1284.7;;;;;;;;;;;;;239;;;;;;;;
1345.0;1284.7;;;;;;;;;;;;;-169;;;;;;;;
1345.0;1284.7;;;;;;;;;;;;;-593;;;;;;;;
1345.0;1284.7;;;;;;;;;;;;;419;;;;;;;;
1345.0;1284.7;;;;;;;;;;;;;3065;;;;;;;;
1347.0;1287.0;;;;-1.000599;0.29547885;-0.9368478;;;;;;;;;;;;;;;
1347.0;1287.0;;;;-0.9984399;0.2972069;-0.93107235;;;;;;;;;;;;;;;
1347.0;1287.0;;;;-0.9966241;0.29822543;-0.92475903;;;;;;;;;;;;;;;
1347.0;1287.0;;;;-0.9941026;0.29885867;-0.91764843;;;;;;;;;;;;;;;
1347.0;1287.0;;;;-0.9916154;0.29914477;-0.91121686;;;;;;;;;;;;;;;
1347.0;1296.1;;;;;;;;;;;;;;;;;33.436844;5.104221;36.561176;;1184.2
1347.0;1296.1;;;;;;;;;;;;;;-1.3184607;-0.17963195;-0.26471755;;;;;1184.2
1347.0;1296.1;;;;;;;;;;;;;;;;;31.987213;3.540147;34.73388;;1184.2
1347.0;1296.1;;;;;;;;;;;;;;-1.3338419;-0.20514542;-0.2738731;;;;;1184.2
1347.0;1296.1;;;;;;;;;;;;;;;;;31.022064;2.2812586;32.609028;;1193.8
1347.0;1296.1;;;;;;;;;;;;;;-1.3500168;-0.22565386;-0.276986;;;;;1193.8
1347.0;1296.1;;;;;;;;;;;;;;;;;30.209509;0.67522204;30.182806;;1193.8
1347.0;1296.1;;;;;;;;;;;;;;-1.3632008;-0.25049594;-0.28632465;;;;;1193.8
1347.0;1296.1;;;;;;;;;;;;;;;;;29.896696;-0.5188147;27.62688;;1203.5
1347.0;1296.1;;;;;;;;;;;;;;-1.3878597;-0.27063814;-0.28644672;;;;;1203.5
1347.0;1296.1;;;;;;;;;;;;;;;;;30.285805;-2.5482955;24.723808;;1203.5
1347.0;1296.1;;;;;;;;;;;;;;-1.3879207;-0.27393416;-0.29834896;;;;;1203.5
1348.0;1296.8;;;;;;;;;;;;;;;;;30.629139;-4.314554;21.408735;;1212.9
1348.0;1296.8;;;;;;;;;;;;;;-1.3863338;-0.26996672;-0.29285562;;;;;1212.9
1348.0;1296.8;;;;;;;;;;;;;;;;;30.655842;-6.6301465;17.834253;;1212.9
1348.0;1296.8;;;;;;;;;;;;;;-1.3686941;-0.26093325;-0.28766748;;;;;1212.9
1348.0;1296.8;;;;;;;;;;;;;;;;;30.755028;-9.083072;14.347514;;1222.6
1348.0;1296.8;;;;;;;;;;;;;;-1.3587451;-0.24689475;-0.27356791;;;;;1222.6
1348.0;1296.8;;;;;;;;;;;;;;;;;30.575731;-10.639516;10.979034;;1222.6
1348.0;1296.8;;;;;;;;;;;;;;-1.3589282;-0.263802;-0.27124852;;;;;1222.6
1348.0;1296.8;;;;;;;;;;;;;;;;;30.632954;-11.623737;8.121738;;1232.3
1348.0;1296.8;;;;;;;;;;;;;;-1.3748589;-0.27710807;-0.2612995;;;;;1232.3
1348.0;1296.8;;;;;;;;;;;;;;;;;30.388805;-12.752922;5.0202947;;1232.3
1348.0;1296.8;;;;;;;;;;;;;;-1.3955504;-0.29096347;-0.25360882;;;;;1232.3
1348.0;1296.8;;;;-0.98827755;0.29945758;-0.90501034;;;;;;;;;;;;;;;
1348.0;1296.8;;;;-0.9838716;0.2993622;-0.8964578;;;;;;;;;;;;;;;
1348.0;1296.8;;;;-0.97921765;0.29833224;-0.8862802;;;;;;;;;;;;;;;
1348.0;1296.8;;;;-0.97473156;0.29520038;-0.8769685;;;;;;;;;;;;;;;
1348.0;1296.8;;;;-0.9696008;0.29221347;-0.8671495;;;;;;;;;;;;;;;
1348.0;1298.4;188485;188596;12985;;;;;;;;;;;;;;;;;;
1348.0;1306.9;;;;-0.9620706;0.28948215;-0.8560983;;;;;;;;;;;;;;;
1348.0;1306.9;;;;-0.9510232;0.2864571;-0.84360516;;;;;;;;;;;;;;;
1348.0;1306.9;;;;-0.9385873;0.2840233;-0.8310853;;;;;;;;;;;;;;;
1348.0;1306.9;;;;-0.92725;0.28150943;-0.8183633;;;;;;;;;;;;;;;
1348.0;1306.9;;;;-0.91775525;0.2793236;-0.80402386;;;;;;;;;;;;;;;
1400.0;1311.0;;;;;;;;;;;;;;;;;30.51088;-14.7557;1.6327403;;1241.9
1400.0;1311.0;;;;;;;;;;;;;;-1.4039124;-0.30976287;-0.24622333;;;;;1241.9
1400.0;1311.0;;;;;;;;;;;;;;;;;30.793177;-17.361216;-2.273629;;1241.9
1400.0;1311.0;;;;;;;;;;;;;;-1.3946959;-0.31965086;-0.22864467;;;;;1241.9
1400.0;1311.0;;;;;;;;;;;;;;;;;30.93051;-21.156958;-7.389294;;1251.4
1400.0;1311.0;;;;;;;;;;;;;;-1.3489791;-0.33845028;-0.20819727;;;;;1251.4
1400.0;1311.0;;;;;;;;;;;;;;;;;30.465101;-24.906918;-13.767662;;1251.4
1400.0;1311.0;;;;;;;;;;;;;;-1.2875149;-0.34229562;-0.19367047;;;;;1251.4
1400.0;1311.0;;;;;;;;;;;;;;;;;28.98114;-27.851954;-20.821253;;1261.0
1400.0;1311.0;;;;;;;;;;;;;;-1.2339854;-0.35077974;-0.18488114;;;;;1261.0
1400.0;1311.0;;;;;;;;;;;;;;;;;26.600697;-29.526659;-27.821436;;1261.0
1400.0;1311.0;;;;;;;;;;;;;;-1.1780756;-0.36365855;-0.1826838;;;;;1261.0
1400.0;1316.8;;;;-0.9093629;0.27782825;-0.7891618;;;;;;;;;;;;;;;
1400.0;1316.8;;;;-0.89915097;0.27526096;-0.773327;;;;;;;;;;;;;;;
1400.0;1316.8;;;;-0.8863603;0.27196124;-0.7574426;;;;;;;;;;;;;;;
1400.0;1316.8;;;;-0.87290204;0.26959613;-0.7409783;;;;;;;;;;;;;;;
1400.0;1316.8;;;;-0.86024487;0.26547244;-0.7245713;;;;;;;;;;;;;;;
1400.0;1318.4;204951;204955;12972;;;;;;;;;;;;;;;;;;
1400.0;1324.6;;;;;;;;;;;;;5699;;;;;;;;
1400.0;1324.6;;;;;;;;;;;;;6420;;;;;;;;
1400.0;1324.6;;;;;;;;;;;;;5105;;;;;;;;
1400.0;1324.6;;;;;;;;;;;;;3579;;;;;;;;
1400.0;1324.6;;;;;;;;;;;;;3104;;;;;;;;
1402.0;1326.7;;;;-0.84162533;0.26157382;-0.7066155;;;;;;;;;;;;;;;
1402.0;1326.7;;;;-0.82196057;0.2587662;-0.6911431;;;;;;;;;;;;;;;
1402.0;1326.7;;;;-0.80500805;0.25708774;-0.67812353;;;;;;;;;;;;;;;
1402.0;1326.7;;;;-0.7903558;0.25612643;-0.66406256;;;;;;;;;;;;;;;
1402.0;1326.7;;;;-0.7792779;0.25426868;-0.6515847;;;;;;;;;;;;;;;
1402.0;1336.6;;;;-0.7727891;0.25202945;-0.64028937;;;;;;;;;;;;;;;
1402.0;1336.6;;;;-0.77147686;0.24988177;-0.6314431;;;;;;;;;;;;;;;
1402.0;1336.6;;;;-0.772133;0.24702457;-0.6254845;;;;;;;;;;;;;;;
1402.0;1336.6;;;;-0.77204907;0.24449924;-0.61964804;;;;;;;;;;;;;;;
1402.0;1336.6;;;;-0.7720834;0.24187091;-0.614399;;;;;;;;;;;;;;;
1402.0;1338.2;221349;221383;12948;;;;;;;;;;;;;;;;;;
1402.0;1346.7;;;;-0.77199185;0.24019626;-0.6112748;;;;;;;;;;;;;;;
1402.0;1346.7;;;;-0.7716676;0.23893741;-0.6089631;;;;;;;;;;;;;;;
1402.0;1346.7;;;;-0.771557;0.23888782;-0.6086388;;;;;;;;;;;;;;;
1402.0;1346.7;;;;-0.771618;0.23975375;-0.60846335;;;;;;;;;;;;;;;
1402.0;1346.7;;;;-0.7726594;0.24135593;-0.6104241;;;;;;;;;;;;;;;
1404.0;1355.5;;;;;;;;;;;;;;;;;23.960846;-30.678732;-34.184544;;1270.7
1404.0;1355.5;;;;;;;;;;;;;;-1.1307107;-0.38587603;-0.17340617;;;;;1270.7
1404.0;1355.5;;;;;;;;;;;;;;;;;21.176031;-31.46077;-39.811394;;1270.7
1404.0;1355.5;;;;;;;;;;;;;;-1.0956755;-0.4123661;-0.14874722;;;;;1270.7
1404.0;1355.5;;;;;;;;;;;;;;;;;19.005402;-31.987213;-44.938503;;1280.3
1404.0;1355.5;;;;;;;;;;;;;;-1.0542314;-0.4488052;-0.12012085;;;;;1280.3
1404.0;1355.5;;;;;;;;;;;;;;;;;18.547625;-31.79647;-49.329357;;1280.3
1404.0;1355.5;;;;;;;;;;;;;;-1.0370799;-0.48237556;-0.0865505;;;;;1280.3
1404.0;1355.5;;;;;;;;;;;;;;;;;20.046844;-31.685844;-53.228096;;1289.8
1404.0;1355.5;;;;;;;;;;;;;;-1.0302439;-0.51875365;-0.060731836;;;;;1289.8
1404.0;1355.5;;;;;;;;;;;;;;;;;22.888882;-31.29673;-56.69576;;1289.8
1404.0;1355.5;;;;;;;;;;;;;;-1.0441602;-0.5235145;-0.043153174;;;;;1289.8
1404.0;1356.7;;;;-0.77489865;0.24277881;-0.613247;;;;;;;;;;;;;;;
1404.0;1356.7;;;;-0.77850735;0.24345782;-0.6141091;;;;;;;;;;;;;;;
1404.0;1356.7;;;;-0.7805215;0.2429314;-0.61752707;;;;;;;;;;;;;;;
1404.0;1356.7;;;;-0.78169644;0.24277881;-0.6216851;;;;;;;;;;;;;;;
1404.0;1356.7;;;;-0.7829286;0.24211124;-0.6242905;;;;;;;;;;;;;;;
1404.0;1358.4;237690;237679;12937;;;;;;;;;;;;;;;;;;
1404.0;1364.7;;;;;;;;;;;;;3126;;;;;;;;
1404.0;1364.7;;;;;;;;;;;;;3289;;;;;;;;
1404.0;1364.7;;;;;;;;;;;;;3256;;;;;;;;
1404.0;1364.7;;;;;;;;;;;;;2290;;;;;;;;
1404.0;1364.7;;;;;;;;;;;;;702;;;;;;;;
1464.0;1366.8;;;;-0.7843324;0.24228671;-0.6273461;;;;;;;;;;;;;;;
1464.0;1366.8;;;;-0.78627026;0.24240115;-0.63060004;;;;;;;;;;;;;;;
1464.0;1366.8;;;;-0.78782666;0.2430382;-0.6333657;;;;;;;;;;;;;;;
1464.0;1366.8;;;;-0.7887689;0.24365237;-0.63693243;;;;;;;;;;;;;;;
1464.0;1366.8;;;;-0.7897645;0.2443619;-0.6420441;;;;;;;;;;;;;;;
1464.0;1370.5;;;;;;;;;;;;;;;;;25.421919;-29.931028;-59.949795;;1299.5
1464.0;1370.5;;;;;;;;;;;;;;-1.056795;-0.5429243;-0.06811731;;;;;1299.5
1464.0;1370.5;;;;;;;;;;;;;;;;;27.600176;-26.95166;-63.352608;;1299.5
1464.0;1370.5;;;;;;;;;;;;;;-1.0961639;-0.5615406;-0.11334574;;;;;1299.5
1464.0;1370.5;;;;;;;;;;;;;;;;;28.588213;-23.365734;-67.411575;;1309.1
1464.0;1370.5;;;;;;;;;;;;;;-1.1072115;-0.5727714;-0.21259193;;;;;1309.1
1464.0;1370.5;;;;;;;;;;;;;;;;;28.191473;-18.070772;-71.38279;;1309.1
1464.0;1370.5;;;;;;;;;;;;;;-1.1073946;-0.5719169;-0.34284493;;;;;1309.1
1464.0;1370.5;;;;;;;;;;;;;;;;;26.497696;-12.050997;-75.31969;;1318.8
1464.0;1370.5;;;;;;;;;;;;;;-1.0975066;-0.56361586;-0.47175512;;;;;1318.8
1464.0;1370.5;;;;;;;;;;;;;;;;;26.356548;-6.45085;-78.82931;;1318.8
1464.0;1370.5;;;;;;;;;;;;;;-1.0886563;-0.55494857;-0.56495863;;;;;1318.8
1464.0;1376.7;;;;-0.79119885;0.2479401;-0.646946;;;;;;;;;;;;;;;
1464.0;1376.7;;;;-0.7950021;0.2532387;-0.64485174;;;;;;;;;;;;;;;
1464.0;1376.7;;;;-0.799965;0.2570763;-0.6436997;;;;;;;;;;;;;;;
1464.0;1376.7;;;;-0.80458844;0.2584038;-0.64498526;;;;;;;;;;;;;;;
1464.0;1376.7;;;;-0.808674;0.25854877;-0.6444817;;;;;;;;;;;;;;;
1464.0;1378.4;254066;254068;12936;;;;;;;;;;;;;;;;;;
1467.0;1386.6;;;;-0.808674;0.25717166;-0.6442757;;;;;;;;;;;;;;;
1467.0;1386.6;;;;-0.8052865;0.25445178;-0.6469994;;;;;;;;;;;;;;;
1467.0;1386.6;;;;-0.8002702;0.25201038;-0.65084845;;;;;;;;;;;;;;;
1467.0;1386.6;;;;-0.7954484;0.25041965;-0.65370566;;;;;;;;;;;;;;;
1467.0;1386.6;;;;-0.79164517;0.2509499;-0.65717703;;;;;;;;;;;;;;;
1467.0;1396.5;;;;-0.7900735;0.2534447;-0.66175085;;;;;;;;;;;;;;;
1467.0;1396.5;;;;-0.79166424;0.25733188;-0.66382223;;;;;;;;;;;;;;;
1467.0;1396.5;;;;-0.79472363;0.26077273;-0.6640664;;;;;;;;;;;;;;;
1467.0;1396.5;;;;-0.79810345;0.2632294;-0.663456;;;;;;;;;;;;;;;
1467.0;1396.5;;;;-0.8013116;0.26458362;-0.6623612;;;;;;;;;;;;;;;
1467.0;1398.2;262143;262143;12935;;;;;;;;;;;;;;;;;;
1467.0;1404.6;;;;;;;;;;;;;-743;;;;;;;;
1467.0;1404.6;;;;;;;;;;;;;-1680;;;;;;;;
1467.0;1404.6;;;;;;;;;;;;;-1893;;;;;;;;
1467.0;1404.6;;;;;;;;;;;;;-1601;;;;;;;;
1467.0;1404.6;;;;;;;;;;;;;-1285;;;;;;;;
1467.0;1406.6;;;;-0.8041383;0.26423648;-0.66131216;;;;;;;;;;;;;;;
1467.0;1406.6;;;;-0.8039361;0.2623978;-0.65943533;;;;;;;;;;;;;;;
1467.0;1406.6;;;;-0.80249417;0.25901034;-0.6588288;;;;;;;;;;;;;;;
1467.0;1406.6;;;;-0.79992306;0.25529864;-0.6573449;;;;;;;;;;;;;;;
1467.0;1406.6;;;;-0.79610074;0.25173572;-0.65510184;;;;;;;;;;;;;;;
1471.0;1415.5;;;;;;;;;;;;;;;;;29.145178;-2.231666;-81.92694;;1328.2
1471.0;1415.5;;;;;;;;;;;;;;-1.0862758;-0.52705467;-0.5958434;;;;;1328.2
1471.0;1415.5;;;;;;;;;;;;;;;;;33.906063;0.022888882;-84.58586;;1328.2
1471.0;1415.5;;;;;;;;;;;;;;-1.0828577;-0.49519333;-0.58174384;;;;;1328.2
1471.0;1415.5;;;;;;;;;;;;;;;;;39.010284;0.15259254;-87.02734;;1337.8
1471.0;1415.5;;;;;;;;;;;;;;-1.0934172;-0.46638387;-0.5373699;;;;;1337.8
1471.0;1415.5;;;;;;;;;;;;;;;;;45.40391;-1.12537;-88.85464;;1337.8
1471.0;1415.5;;;;;;;;;;;;;;-1.1122776;-0.46388134;-0.47102267;;;;;1337.8
1471.0;1415.5;;;;;;;;;;;;;;;;;52.709282;-3.3761103;-90.70483;;1347.5
1471.0;1415.5;;;;;;;;;;;;;;-1.1164892;-0.44746238;-0.4066286;;;;;1347.5
1471.0;1415.5;;;;;;;;;;;;;;;;;59.781948;-4.4442577;-92.314674;;1347.5
1471.0;1415.5;;;;;;;;;;;;;;-1.1341898;-0.41572315;-0.349559;;;;;1347.5
1471.0;1416.6;;;;-0.79330456;0.24906161;-0.6532708;;;;;;;;;;;;;;;
1471.0;1416.6;;;;-0.7904626;0.24735644;-0.6512833;;;;;;;;;;;;;;;
1471.0;1416.6;;;;-0.78826535;0.24554828;-0.64957815;;;;;;;;;;;;;;;
1471.0;1416.6;;;;-0.78657925;0.24380115;-0.6475106;;;;;;;;;;;;;;;
1471.0;1416.6;;;;-0.7839891;0.2418175;-0.6443177;;;;;;;;;;;;;;;
1471.0;1418.4;262143;262143;12940;;;;;;;;;;;;;;;;;;
1471.0;1426.7;;;;-0.78047574;0.23947528;-0.6406365;;;;;;;;;;;;;;;
1471.0;1426.7;;;;-0.77606976;0.23733523;-0.63649756;;;;;;;;;;;;;;;
1471.0;1426.7;;;;-0.7723619;0.2346535;-0.632042;;;;;;;;;;;;;;;
1471.0;1426.7;;;;-0.7683412;0.23172382;-0.6269875;;;;;;;;;;;;;;;
1471.0;1426.7;;;;-0.7646562;0.22831348;-0.6213952;;;;;;;;;;;;;;;
1472.0;1431.0;;;;;;;;;;;;;;;;;64.546646;-4.3107395;-93.935974;;1357.2
1472.0;1431.0;;;;;;;;;;;;;;-1.1621449;-0.39252907;-0.32703635;;;;;1357.2
1472.0;1431.0;;;;;;;;;;;;;;;;;66.65624;-4.325999;-95.73275;;1357.2
1472.0;1431.0;;;;;;;;;;;;;;-1.1567736;-0.37659842;-0.3439436;;;;;1357.2
1472.0;1431.0;;;;;;;;;;;;;;;;;66.71728;-3.2197027;-97.6249;;1366.8
1472.0;1431.0;;;;;;;;;;;;;;-1.1511582;-0.374279;-0.38776818;;;;;1366.8
1472.0;1431.0;;;;;;;;;;;;;;;;;65.35921;-0.5798517;-99.459816;;1366.8
1472.0;1431.0;;;;;;;;;;;;;;-1.1504258;-0.35786003;-0.4159673;;;;;1366.8
1472.0;1431.0;;;;;;;;;;;;;;;;;63.520462;2.6207771;-101.82882;;1376.5
1472.0;1431.0;;;;;;;;;;;;;;-1.1545763;-0.35425887;-0.4243904;;;;;1376.5
1472.0;1431.0;;;;;;;;;;;;;;;;;63.97824;5.00885;-103.15638;;1376.5
1472.0;1431.0;;;;;;;;;;;;;;-1.1597034;-0.38001648;-0.4163335;;;;;1376.5
1472.0;1436.6;;;;-0.7608453;0.22480014;-0.6157189;;;;;;;;;;;;;;;
1472.0;1436.6;;;;-0.7575227;0.22065738;-0.60984045;;;;;;;;;;;;;;;
1472.0;1436.6;;;;-0.7544633;0.21614078;-0.60298544;;;;;;;;;;;;;;;
1472.0;1436.6;;;;-0.7517816;0.21138003;-0.59628683;;;;;;;;;;;;;;;
1472.0;1436.6;;;;-0.7485047;0.20669559;-0.590107;;;;;;;;;;;;;;;
1472.0;1438.5;262143;262143;12945;;;;;;;;;;;;;;;;;;
1472.0;1444.7;;;;;;;;;;;;;-965;;;;;;;;
1472.0;1444.7;;;;;;;;;;;;;-364;;;;;;;;
1472.0;1444.7;;;;;;;;;;;;;657;;;;;;;;
1472.0;1444.7;;;;;;;;;;;;;1922;;;;;;;;
1472.0;1444.7;;;;;;;;;;;;;2934;;;;;;;;
1519.0;1446.5;;;;-0.7452164;0.20190051;-0.5847855;;;;;;;;;;;;;;;
1519.0;1446.5;;;;-0.74075705;0.19685367;-0.5799027;;;;;;;;;;;;;;;
1519.0;1446.5;;;;-0.73588187;0.19213489;-0.57453924;;;;;;;;;;;;;;;
1519.0;1446.5;;;;-0.7312165;0.1881943;-0.5690766;;;;;;;;;;;;;;;
1519.0;1446.5;;;;-0.72806555;0.18412782;-0.564663;;;;;;;;;;;;;;;
1519.0;1456.4;;;;-0.72466284;0.18038179;-0.55977637;;;;;;;;;;;;;;;
1519.0;1456.4;;;;-0.7212487;0.1760254;-0.55488974;;;;;;;;;;;;;;;
1519.0;1456.4;;;;-0.7183266;0.17216875;-0.55053717;;;;;;;;;;;;;;;
1519.0;1456.4;;;;-0.7159501;0.16817857;-0.54736716;;;;;;;;;;;;;;;
1519.0;1456.4;;;;-0.71340567;0.16409303;-0.54435354;;;;;;;;;;;;;;;
1519.0;1458.3;262143;262143;12961;;;;;;;;;;;;;;;;;;
1519.0;1466.5;;;;-0.71155554;0.1607361;-0.5424195;;;;;;;;;;;;;;;
1519.0;1466.5;;;;-0.7105141;0.15751268;-0.5405541;;;;;;;;;;;;;;;
1519.0;1466.5;;;;-0.7086449;0.1539345;-0.5377732;;;;;;;;;;;;;;;
1519.0;1466.5;;;;-0.70644003;0.15083314;-0.5347596;;;;;;;;;;;;;;;
1519.0;1466.5;;;;-0.7047196;0.14733125;-0.5320588;;;;;;;;;;;;;;;
1535.0;1475.6;;;;;;;;;;;;;;;;;66.389206;5.4437394;-103.69045;;1386.1
1535.0;1475.6;;;;;;;;;;;;;;-1.159154;-0.37696463;-0.37659842;;;;;1386.1
1535.0;1475.6;;;;;;;;;;;;;;;;;69.67757;5.558183;-103.75912;;1386.1
1535.0;1475.6;;;;;;;;;;;;;;-1.1580553;-0.3818476;-0.3243507;;;;;1386.1
1535.0;1475.6;;;;;;;;;;;;;;;;;74.064606;5.1461835;-103.289894;;1395.8
1535.0;1475.6;;;;;;;;;;;;;;-1.1600696;-0.37946716;-0.25318155;;;;;1395.8
1535.0;1475.6;;;;;;;;;;;;;;;;;79.18027;4.020814;-102.79015;;1395.8
1535.0;1475.6;;;;;;;;;;;;;;-1.1672109;-0.39051485;-0.18182927;;;;;1395.8
1535.0;1475.6;;;;;;;;;;;;;;;;;84.852905;2.4452956;-101.91656;;1405.3
1535.0;1475.6;;;;;;;;;;;;;;-1.1799676;-0.39649647;-0.12921537;;;;;1405.3
1535.0;1475.6;;;;;;;;;;;;;;;;;91.635635;0.42725915;-100.939964;;1405.3
1535.0;1475.6;;;;;;;;;;;;;;-1.1664175;-0.42420727;-0.08362072;;;;;1405.3
1535.0;1476.5;;;;-0.70285803;0.1437111;-0.53072363;;;;;;;;;;;;;;;
1535.0;1476.5;;;;-0.6989556;0.14041139;-0.530201;;;;;;;;;;;;;;;
1535.0;1476.5;;;;-0.69546133;0.13805772;-0.52899176;;;;;;;;;;;;;;;
1535.0;1476.5;;;;-0.6938439;0.13592531;-0.52872473;;;;;;;;;;;;;;;
1535.0;1476.5;;;;-0.69411856;0.13339998;-0.5284806;;;;;;;;;;;;;;;
1535.0;1478.4;262143;262143;12969;;;;;;;;;;;;;;;;;;
1535.0;1484.7;;;;;;;;;;;;;3387;;;;;;;;
1535.0;1484.7;;;;;;;;;;;;;3635;;;;;;;;
1535.0;1484.7;;;;;;;;;;;;;3839;;;;;;;;
1535.0;1484.7;;;;;;;;;;;;;3603;;;;;;;;
1535.0;1484.7;;;;;;;;;;;;;2945;;;;;;;;
1582.0;1486.6;;;;-0.6941262;0.13053896;-0.5288926;;;;;;;;;;;;;;;
1582.0;1486.6;;;;-0.69255835;0.12789537;-0.52984244;;;;;;;;;;;;;;;
1582.0;1486.6;;;;-0.6908837;0.12540437;-0.5300217;;;;;;;;;;;;;;;
1582.0;1486.6;;;;-0.68848044;0.12248613;-0.53208166;;;;;;;;;;;;;;;
1582.0;1486.6;;;;-0.6866532;0.12035753;-0.5343476;;;;;;;;;;;;;;;
1582.0;1490.7;;;;;;;;;;;;;;;;;99.051636;-0.4158147;-99.62004;;1414.9
1582.0;1490.7;;;;;;;;;;;;;;-1.0901212;-0.4263436;-0.06372265;;;;;1414.9
1582.0;1490.7;;;;;;;;;;;;;;;;;105.7886;3.6660361;-96.70171;;1414.9
1582.0;1490.7;;;;;;;;;;;;;;-1.2123172;-0.3546861;-0.06439406;;;;;1414.9
1582.0;1490.7;;;;;;;;;;;;;;;;;109.412674;-0.26703694;-94.43953;;1424.6
1582.0;1490.7;;;;;;;;;;;;;;-1.2526017;-0.25763726;-0.088930935;;;;;1424.6
1582.0;1490.7;;;;;;;;;;;;;;;;;113.42967;-5.706961;-95.62212;;1424.6
1582.0;1490.7;;;;;;;;;;;;;;-1.1824702;-0.24195075;-0.09656057;;;;;1424.6
1582.0;1490.7;;;;;;;;;;;;;;;;;117.59545;-8.40022;-96.49571;;1434.2
1582.0;1490.7;;;;;;;;;;;;;;-1.124363;-0.22498246;-0.0999176;;;;;1434.2
1582.0;1490.7;;;;;;;;;;;;;;;;;119.36934;-10.177923;-96.66357;;1434.2
1582.0;1490.7;;;;;;;;;;;;;;-1.1139256;-0.19013031;-0.10467849;;;;;1434.2
1582.0;1496.6;;;;-0.68427664;0.11785127;-0.5365487;;;;;;;;;;;;;;;
1582.0;1496.6;;;;-0.68168265;0.115676895;-0.5381089;;;;;;;;;;;;;;;
1582.0;1496.6;;;;-0.6778603;0.11312486;-0.53853995;;;;;;;;;;;;;;;
1582.0;1496.6;;;;-0.67407995;0.111000076;-0.53885275;;;;;;;;;;;;;;;
1582.0;1496.6;;;;-0.6705666;0.108821884;-0.538559;;;;;;;;;;;;;;;
1582.0;1498.6;262143;262143;12981;;;;;;;;;;;;;;;;;;
1584.0;1506.5;;;;-0.6685601;0.1057625;-0.5384179;;;;;;;;;;;;;;;
1584.0;1506.5;;;;-0.66711813;0.10338594;-0.5378037;;;;;;;;;;;;;;;
1584.0;1506.5;;;;-0.6677094;0.101043716;-0.53732306;;;;;;;;;;;;;;;
1584.0;1506.5;;;;-0.6706391;0.098670974;-0.53604895;;;;;;;;;;;;;;;
1584.0;1506.5;;;;-0.67116934;0.095893875;-0.5374146;;;;;;;;;;;;;;;
1584.0;1516.5;;;;-0.6672898;0.093723305;-0.5388947;;;;;;;;;;;;;;;
1584.0;1516.5;;;;-0.6624375;0.092254646;-0.5382157;;;;;;;;;;;;;;;
1584.0;1516.5;;;;-0.66096884;0.09022904;-0.5367051;;;;;;;;;;;;;;;
1584.0;1516.5;;;;-0.66071707;0.08722306;-0.5363007;;;;;;;;;;;;;;;
1584.0;1516.5;;;;-0.66008383;0.08380891;-0.535328;;;;;;;;;;;;;;;
1584.0;1518.5;262143;262143;12989;;;;;;;;;;;;;;;;;;
1584.0;1524.8;;;;;;;;;;;;;2378;;;;;;;;
1584.0;1524.8;;;;;;;;;;;;;2385;;;;;;;;
1584.0;1524.8;;;;;;;;;;;;;2922;;;;;;;;
1584.0;1524.8;;;;;;;;;;;;;3315;;;;;;;;
1584.0;1524.8;;;;;;;;;;;;;3121;;;;;;;;
1584.0;1526.6;;;;-0.6582833;0.08045579;-0.53475195;;;;;;;;;;;;;;;
1584.0;1526.6;;;;-0.6567269;0.078018196;-0.53368765;;;;;;;;;;;;;;;
1584.0;1526.6;;;;-0.65600973;0.07633973;-0.53339773;;;;;;;;;;;;;;;
1584.0;1526.6;;;;-0.6559678;0.07429505;-0.5332642;;;;;;;;;;;;;;;
1584.0;1526.6;;;;-0.6556969;0.071731575;-0.5329743;;;;;;;;;;;;;;;
1586.0;1535.8;;;;;;;;;;;;;;;;;117.89682;-12.99707;-97.266304;;1443.7
1586.0;1535.8;;;;;;;;;;;;;;-1.0917691;-0.15820795;-0.11999878;;;;;1443.7
1586.0;1535.8;;;;;;;;;;;;;;;;;114.471115;-15.842922;-97.979675;;1443.7
1586.0;1535.8;;;;;;;;;;;;;;-1.0607624;-0.17297891;-0.13672292;;;;;1443.7
1586.0;1535.8;;;;;;;;;;;;;;;;;110.18326;-16.869106;-98.23145;;1453.4
1586.0;1535.8;;;;;;;;;;;;;;-1.0537431;-0.17474899;-0.14545122;;;;;1453.4
1586.0;1535.8;;;;;;;;;;;;;;;;;104.37331;-17.719809;-97.90338;;1453.4
1586.0;1535.8;;;;;;;;;;;;;;-1.0315866;-0.17627491;-0.14825892;;;;;1453.4
1586.0;1535.8;;;;;;;;;;;;;;;;;97.42653;-18.467514;-97.61727;;1463.1
1586.0;1535.8;;;;;;;;;;;;;;-1.0032655;-0.1899472;-0.13861507;;;;;1463.1
1586.0;1535.8;;;;;;;;;;;;;;;;;89.35819;-17.82281;-97.33498;;1463.1
1586.0;1535.8;;;;;;;;;;;;;;-0.99197364;-0.20056765;-0.12854396;;;;;1463.1
1586.0;1536.6;;;;-0.6538735;0.069522865;-0.5305787;;;;;;;;;;;;;;;
1586.0;1536.6;;;;-0.651516;0.06753159;-0.528122;;;;;;;;;;;;;;;
1586.0;1536.6;;;;-0.65028006;0.06595231;-0.52660376;;;;;;;;;;;;;;;
1586.0;1536.6;;;;-0.6501847;0.064357765;-0.5248757;;;;;;;;;;;;;;;
1586.0;1536.6;;;;-0.65053946;0.062717445;-0.52247244;;;;;;;;;;;;;;;
1586.0;1538.7;262143;262143;12988;;;;;;;;;;;;;;;;;;
1587.0;1543.6;;;;;;;;;;;;;;;;;80.05005;-16.972105;-96.91153;;1472.6
1587.0;1543.6;;;;;;;;;;;;;;-0.9806818;-0.18640706;-0.12866604;;;;;1472.6
1587.0;1543.6;;;;;;;;;;;;;;;;;69.8912;-16.10233;-96.46901;;1472.6
1587.0;1543.6;;;;;;;;;;;;;;-0.9718925;-0.17188025;-0.12359996;;;;;1472.6
1587.0;1543.6;;;;;;;;;;;;;;;;;60.01465;-15.850552;-96.572014;;1482.3
1587.0;1543.6;;;;;;;;;;;;;;-0.94283885;-0.17737357;-0.12573627;;;;;1482.3
1587.0;1543.6;;;;;;;;;;;;;;;;;51.7098;-14.698478;-97.10227;;1482.3
1587.0;1543.6;;;;;;;;;;;;;;-0.9319132;-0.18951994;-0.13104647;;;;;1482.3
1587.0;1543.6;;;;;;;;;;;;;;;;;45.167393;-13.7371435;-97.37694;;1492.0
1587.0;1543.6;;;;;;;;;;;;;;-0.9275796;-0.2268746;-0.13476974;;;;;1492.0
1587.0;1543.6;;;;;;;;;;;;;;;;;40.22721;-12.981811;-98.029274;;1492.0
1587.0;1543.6;;;;;;;;;;;;;;-0.9112827;-0.19891964;-0.13037507;;;;;1492.0
1587.0;1546.6;;;;-0.65193564;0.061042793;-0.52133185;;;;;;;;;;;;;;;
1587.0;1546.6;;;;-0.6534501;0.059494026;-0.5200768;;;;;;;;;;;;;;;
1587.0;1546.6;;;;-0.6557427;0.057365425;-0.51913077;;;;;;;;;;;;;;;
1587.0;1546.6;;;;-0.6570626;0.05590058;-0.5184594;;;;;;;;;;;;;;;
1587.0;1546.6;;;;-0.65774924;0.05377961;-0.51713187;;;;;;;;;;;;;;;
1587.0;1556.6;;;;-0.6580735;0.052013405;-0.5158501;;;;;;;;;;;;;;;
1587.0;1556.6;;;;-0.65811926;0.0506363;-0.5137444;;;;;;;;;;;;;;;
1587.0;1556.6;;;;-0.6573296;0.048950203;-0.5112534;;;;;;;;;;;;;;;
1587.0;1556.6;;;;-0.6562272;0.046928413;-0.5077935;;;;;;;;;;;;;;;
1587.0;1556.6;;;;-0.6557732;0.04522324;-0.50480276;;;;;;;;;;;;;;;
1587.0;1558.7;262143;262143;13002;;;;;;;;;;;;;;;;;;
1639.0;1564.8;;;;;;;;;;;;;2413;;;;;;;;
1639.0;1564.8;;;;;;;;;;;;;1896;;;;;;;;
1639.0;1564.8;;;;;;;;;;;;;2242;;;;;;;;
1639.0;1564.8;;;;;;;;;;;;;2855;;;;;;;;
1639.0;1564.8;;;;;;;;;;;;;2765;;;;;;;;
1639.0;1566.4;;;;-0.6563378;0.042579655;-0.50233084;;;;;;;;;;;;;;;
1639.0;1566.4;;;;-0.654152;0.040161137;-0.501278;;;;;;;;;;;;;;;
1639.0;1566.4;;;;-0.6501084;0.038299564;-0.49885184;;;;;;;;;;;;;;;
1639.0;1566.4;;;;-0.648964;0.03667069;-0.495102;;;;;;;;;;;;;;;
1639.0;1566.4;;;;-0.65134054;0.034854893;-0.49169546;;;;;;;;;;;;;;;
1639.0;1576.3;;;;-0.65357596;0.032707218;-0.48883444;;;;;;;;;;;;;;;
1639.0;1576.3;;;;-0.654316;0.030254368;-0.48490912;;;;;;;;;;;;;;;
1639.0;1576.3;;;;-0.654152;0.02821732;-0.48160177;;;;;;;;;;;;;;;
1639.0;1576.3;;;;-0.6532288;0.026924137;-0.47793585;;;;;;;;;;;;;;;
1639.0;1576.3;;;;-0.6530381;0.025341038;-0.47485358;;;;;;;;;;;;;;;
1639.0;1578.4;262143;262143;13010;;;;;;;;;;;;;;;;;;
1639.0;1586.4;;;;-0.6529084;0.024112705;-0.47222906;;;;;;;;;;;;;;;
1639.0;1586.4;;;;-0.65347296;0.022754671;-0.47013098;;;;;;;;;;;;;;;
1639.0;1586.4;;;;-0.65520483;0.020954134;-0.4668122;;;;;;;;;;;;;;;
1639.0;1586.4;;;;-0.65559775;0.019176485;-0.46363455;;;;;;;;;;;;;;;
1639.0;1586.4;;;;-0.65639883;0.01721573;-0.46001822;;;;;;;;;;;;;;;
1644.0;1595.7;;;;;;;;;;;;;;;;;35.874508;-12.215034;-98.96008;;1501.6
1644.0;1595.7;;;;;;;;;;;;;;-0.89565724;-0.19873653;-0.13727225;;;;;1501.6
1644.0;1595.7;;;;;;;;;;;;;;;;;32.898956;-11.421552;-99.75356;;1501.6
1644.0;1595.7;;;;;;;;;;;;;;-0.88155764;-0.1871395;-0.13843197;;;;;1501.6
1644.0;1595.7;;;;;;;;;;;;;;;;;29.728844;-10.303812;-99.12793;;1511.2
1644.0;1595.7;;;;;;;;;;;;;;-0.85836357;-0.13110752;-0.1640675;;;;;1511.2
1644.0;1595.7;;;;;;;;;;;;;;;;;27.233955;-8.358257;-96.327866;;1511.2
1644.0;1595.7;;;;;;;;;;;;;;-0.873928;-0.18915372;-0.12781152;;;;;1511.2
1644.0;1595.7;;;;;;;;;;;;;;;;;27.027956;-8.266702;-95.53438;;1520.8
1644.0;1595.7;;;;;;;;;;;;;;-0.81569874;-0.15192114;-0.13495284;;;;;1520.8
1644.0;1595.7;;;;;;;;;;;;;;;;;27.161474;-6.9620347;-95.25208;;1520.8
1644.0;1595.7;;;;;;;;;;;;;;-0.81099886;-0.2200995;-0.11023286;;;;;1520.8
1644.0;1596.4;;;;-0.65842444;0.0150375385;-0.45639044;;;;;;;;;;;;;;;
1644.0;1596.4;;;;-0.6572724;0.012653353;-0.4546166;;;;;;;;;;;;;;;
1644.0;1596.4;;;;-0.6505242;0.010299684;-0.45371252;;;;;;;;;;;;;;;
1644.0;1596.4;;;;-0.6456261;0.008319856;-0.4503556;;;;;;;;;;;;;;;
1644.0;1596.4;;;;-0.64519507;0.0058326726;-0.44704062;;;;;;;;;;;;;;;
1644.0;1598.6;262143;262143;13015;;;;;;;;;;;;;;;;;;
1648.0;1603.1;;;;;;;;;;;;;;;;;30.526138;-6.084628;-94.38612;;1530.4
1648.0;1603.1;;;;;;;;;;;;;;-0.8127079;-0.26392406;-0.08563494;;;;;1530.4
1648.0;1603.1;;;;;;;;;;;;;;;;;34.7148;-7.7288127;-94.07712;;1530.4
1648.0;1603.1;;;;;;;;;;;;;;-0.7943358;-0.26886806;-0.07678457;;;;;1530.4
1648.0;1603.1;;;;;;;;;;;;;;;;;38.44188;-9.559923;-93.86349;;1540.1
1648.0;1603.1;;;;;;;;;;;;;;-0.7807245;-0.2822962;-0.065981016;;;;;1540.1
1648.0;1603.1;;;;;;;;;;;;;;;;;41.291542;-12.237923;-93.5049;;1540.1
1648.0;1603.1;;;;;;;;;;;;;;-0.75539416;-0.33112583;-0.055177465;;;;;1540.1
1648.0;1603.1;;;;;;;;;;;;;;;;;43.813137;-14.221625;-92.95175;;1549.7
1648.0;1603.1;;;;;;;;;;;;;;-0.73641163;-0.3861812;-0.050965913;;;;;1549.7
1648.0;1603.1;;;;;;;;;;;;;;;;;46.803947;-15.423291;-92.314674;;1549.7
1648.0;1603.1;;;;;;;;;;;;;;-0.7202979;-0.42451248;-0.04809717;;;;;1549.7
1648.0;1604.7;;;;;;;;;;;;;2065;;;;;;;;
1648.0;1604.7;;;;;;;;;;;;;1616;;;;;;;;
1648.0;1604.7;;;;;;;;;;;;;1936;;;;;;;;
1648.0;1604.7;;;;;;;;;;;;;2777;;;;;;;;
1648.0;1604.7;;;;;;;;;;;;;3448;;;;;;;;
1648.0;1606.4;;;;-0.64685065;0.0032997136;-0.44413763;;;;;;;;;;;;;;;
1648.0;1606.4;;;;-0.64778525;-3.433228E-5;-0.44379812;;;;;;;;;;;;;;;
1648.0;1606.4;;;;-0.6471825;-0.0036659245;-0.44403464;;;;;;;;;;;;;;;
1648.0;1606.4;;;;-0.6450158;-0.006050111;-0.4446488;;;;;;;;;;;;;;;
1648.0;1606.4;;;;-0.6431542;-0.008190156;-0.44495016;;;;;;;;;;;;;;;
1699.0;1616.3;;;;-0.64241034;-0.01015091;-0.4462548;;;;;;;;;;;;;;;
1699.0;1616.3;;;;-0.64326483;-0.011283875;-0.44815832;;;;;;;;;;;;;;;
1699.0;1616.3;;;;-0.6447602;-0.012523653;-0.44836432;;;;;;;;;;;;;;;
1699.0;1616.3;;;;-0.64596564;-0.013782503;-0.4491616;;;;;;;;;;;;;;;
1699.0;1616.3;;;;-0.6475869;-0.015090944;-0.45003134;;;;;;;;;;;;;;;
1699.0;1618.6;262143;262143;13004;;;;;;;;;;;;;;;;;;
1699.0;1626.2;;;;-0.6495934;-0.01659012;-0.45109946;;;;;;;;;;;;;;;
1699.0;1626.2;;;;-0.6479531;-0.018169405;-0.45379263;;;;;;;;;;;;;;;
1699.0;1626.2;;;;-0.64495856;-0.019290926;-0.45657736;;;;;;;;;;;;;;;
1699.0;1626.2;;;;-0.6436539;-0.0201149;-0.45650488;;;;;;;;;;;;;;;
1699.0;1626.2;;;;-0.6442147;-0.021286013;-0.4572373;;;;;;;;;;;;;;;
1699.0;1636.2;;;;-0.6445771;-0.022914888;-0.45829016;;;;;;;;;;;;;;;
1699.0;1636.2;;;;-0.6439515;-0.024517063;-0.4590531;;;;;;;;;;;;;;;
1699.0;1636.2;;;;-0.64303595;-0.025989536;-0.46018988;;;;;;;;;;;;;;;
1699.0;1636.2;;;;-0.6434174;-0.02700806;-0.46123892;;;;;;;;;;;;;;;
1699.0;1636.2;;;;-0.64469534;-0.028018955;-0.4630738;;;;;;;;;;;;;;;
1699.0;1638.5;262143;262143;13021;;;;;;;;;;;;;;;;;;
1699.0;1644.7;;;;;;;;;;;;;3151;;;;;;;;
1699.0;1644.7;;;;;;;;;;;;;1940;;;;;;;;
1699.0;1644.7;;;;;;;;;;;;;1254;;;;;;;;
1699.0;1644.7;;;;;;;;;;;;;3100;;;;;;;;
1699.0;1644.7;;;;;;;;;;;;;5658;;;;;;;;
1704.0;1646.3;;;;-0.646988;-0.029369358;-0.46575934;;;;;;;;;;;;;;;
1704.0;1646.3;;;;-0.6482354;-0.030204777;-0.46741492;;;;;;;;;;;;;;;
1704.0;1646.3;;;;-0.6494675;-0.03079224;-0.4700547;;;;;;;;;;;;;;;
1704.0;1646.3;;;;-0.6504784;-0.031002048;-0.47183996;;;;;;;;;;;;;;;
1704.0;1646.3;;;;-0.6511918;-0.03072739;-0.47404486;;;;;;;;;;;;;;;
1704.0;1655.7;;;;;;;;;;;;;;;;;49.268322;-16.026033;-91.9332;;1559.3
1704.0;1655.7;;;;;;;;;;;;;;-0.70595413;-0.4321421;-0.047853023;;;;;1559.3
1704.0;1655.7;;;;;;;;;;;;;;;;;51.080353;-15.820032;-91.422005;;1559.3
1704.0;1655.7;;;;;;;;;;;;;;-0.710593;-0.44941556;-0.045228433;;;;;1559.3
1704.0;1655.7;;;;;;;;;;;;;;;;;51.95395;-16.067995;-91.31519;;1568.9
1704.0;1655.7;;;;;;;;;;;;;;-0.6946013;-0.43519396;-0.045960877;;;;;1568.9
1704.0;1655.7;;;;;;;;;;;;;;;;;52.056946;-15.614033;-90.94134;;1568.9
1704.0;1655.7;;;;;;;;;;;;;;-0.695822;-0.43482772;-0.04297006;;;;;1568.9
1704.0;1655.7;;;;;;;;;;;;;;;;;52.71691;-15.02655;-90.34623;;1578.6
1704.0;1655.7;;;;;;;;;;;;;;-0.6900845;-0.4239021;-0.049501024;;;;;1578.6
1704.0;1655.7;;;;;;;;;;;;;;;;;53.62102;-13.943144;-89.457375;;1578.6
1704.0;1655.7;;;;;;;;;;;;;;-0.6961272;-0.40455335;-0.045167394;;;;;1578.6
1704.0;1656.3;;;;-0.65227515;-0.030559544;-0.47557837;;;;;;;;;;;;;;;
1704.0;1656.3;;;;-0.65523535;-0.030704502;-0.47722632;;;;;;;;;;;;;;;
1704.0;1656.3;;;;-0.66024786;-0.030834202;-0.47790915;;;;;;;;;;;;;;;
1704.0;1656.3;;;;-0.66673285;-0.030242924;-0.478283;;;;;;;;;;;;;;;
1704.0;1656.3;;;;-0.6736184;-0.030300144;-0.47851568;;;;;;;;;;;;;;;
1704.0;1658.6;262143;262143;13021;;;;;;;;;;;;;;;;;;
1705.0;1663.1;;;;;;;;;;;;;;;;;53.91858;-13.046663;-88.45027;;1588.3
1705.0;1663.1;;;;;;;;;;;;;;-0.69588304;-0.36237678;-0.034485918;;;;;1588.3
1705.0;1663.1;;;;;;;;;;;;;;;;;53.05643;-12.524033;-87.49657;;1588.3
1705.0;1663.1;;;;;;;;;;;;;;-0.69472337;-0.34076968;-0.024597919;;;;;1588.3
1705.0;1663.1;;;;;;;;;;;;;;;;;52.46132;-12.08533;-86.19953;;1597.9
1705.0;1663.1;;;;;;;;;;;;;;-0.69093907;-0.3134251;-0.013672292;;;;;1597.9
1705.0;1663.1;;;;;;;;;;;;;;;;;52.2248;-12.237923;-84.48668;;1597.9
1705.0;1663.1;;;;;;;;;;;;;;-0.6884976;-0.3160497;-0.010803552;;;;;1597.9
1705.0;1663.1;;;;;;;;;;;;;;;;;52.575764;-12.840663;-82.274086;;1607.5
1705.0;1663.1;;;;;;;;;;;;;;-0.6848354;-0.31482893;-0.0037842952;;;;;1607.5
1705.0;1663.1;;;;;;;;;;;;;;;;;52.808468;-13.82107;-79.9089;;1607.5
1705.0;1663.1;;;;;;;;;;;;;;-0.67659533;-0.2946257;-0.003418073;;;;;1607.5
1705.0;1666.2;;;;-0.67935187;-0.03053284;-0.47968298;;;;;;;;;;;;;;;
1705.0;1666.2;;;;-0.6819497;-0.030841831;-0.4804383;;;;;;;;;;;;;;;
1705.0;1666.2;;;;-0.6830407;-0.030635837;-0.4792214;;;;;;;;;;;;;;;
1705.0;1666.2;;;;-0.6832581;-0.030563358;-0.47933584;;;;;;;;;;;;;;;
1705.0;1666.2;;;;-0.68280417;-0.030319218;-0.48066717;;;;;;;;;;;;;;;
1705.0;1676.2;;;;-0.6818276;-0.030189518;-0.4815789;;;;;;;;;;;;;;;
1705.0;1676.2;;;;-0.6806832;-0.02940369;-0.48222739;;;;;;;;;;;;;;;
1705.0;1676.2;;;;-0.68090445;-0.029026035;-0.48358542;;;;;;;;;;;;;;;
1705.0;1676.2;;;;-0.682705;-0.028083805;-0.48466498;;;;;;;;;;;;;;;
1705.0;1676.2;;;;-0.6850739;-0.027057651;-0.48632437;;;;;;;;;;;;;;;
1705.0;1678.6;262143;262143;13023;;;;;;;;;;;;;;;;;;
1759.0;1684.8;;;;;;;;;;;;;1214;;;;;;;;
1759.0;1684.8;;;;;;;;;;;;;-12801;;;;;;;;
1759.0;1684.8;;;;;;;;;;;;;-25653;;;;;;;;
1759.0;1684.8;;;;;;;;;;;;;-24800;;;;;;;;
1759.0;1684.8;;;;;;;;;;;;;-11098;;;;;;;;
1759.0;1686.3;;;;-0.6881333;-0.025779728;-0.48852545;;;;;;;;;;;;;;;
1759.0;1686.3;;;;-0.6908074;-0.024333958;-0.49113852;;;;;;;;;;;;;;;
1759.0;1686.3;;;;-0.6931916;-0.02302933;-0.49337393;;;;;;;;;;;;;;;
1759.0;1686.3;;;;-0.69499975;-0.02238083;-0.49586874;;;;;;;;;;;;;;;
1759.0;1686.3;;;;-0.6970139;-0.021499636;-0.49737936;;;;;;;;;;;;;;;
1759.0;1696.3;;;;-0.6987305;-0.021091463;-0.4991303;;;;;;;;;;;;;;;
1759.0;1696.3;;;;-0.7006493;-0.020477297;-0.50152975;;;;;;;;;;;;;;;
1759.0;1696.3;;;;-0.7037659;-0.0201149;-0.5042115;;;;;;;;;;;;;;;
1759.0;1696.3;;;;-0.7069283;-0.019821169;-0.5070954;;;;;;;;;;;;;;;
1759.0;1696.3;;;;-0.7100869;-0.019855501;-0.5089837;;;;;;;;;;;;;;;
1759.0;1698.7;262143;262143;13022;;;;;;;;;;;;;;;;;;
1759.0;1706.4;;;;-0.7133103;-0.019287111;-0.5107346;;;;;;;;;;;;;;;
1759.0;1706.4;;;;-0.71669775;-0.018955233;-0.5144349;;;;;;;;;;;;;;;
1759.0;1706.4;;;;-0.7191239;-0.018180849;-0.51761633;;;;;;;;;;;;;;;
1759.0;1706.4;;;;-0.72079474;-0.017665865;-0.52091986;;;;;;;;;;;;;;;
1759.0;1706.4;;;;-0.72232825;-0.01654053;-0.52410895;;;;;;;;;;;;;;;
1762.0;1716.3;;;;;;;;;;;;;;;;;53.28532;-14.427626;-77.71157;;1617.3
1762.0;1716.3;;;;;;;;;;;;;;-0.6738487;-0.2747276;0.0016479995;;;;;1617.3
1762.0;1716.3;;;;;;;;;;;;;;;;;53.685875;-15.202032;-75.48372;;1617.3
1762.0;1716.3;;;;;;;;;;;;;;-0.65846735;-0.27063814;-0.0043946654;;;;;1617.3
1762.0;1716.3;;;;;;;;;;;;;;;;;54.635765;-15.930662;-72.93924;;1626.9
1762.0;1716.3;;;;;;;;;;;;;;-0.6487014;-0.27588734;-6.714072E-4;;;;;1626.9
1762.0;1716.3;;;;;;;;;;;;;;;;;56.230354;-16.727959;-69.80346;;1626.9
1762.0;1716.3;;;;;;;;;;;;;;-0.64857936;-0.27906126;0.0048219245;;;;;1626.9
1762.0;1716.3;;;;;;;;;;;;;;;;;58.40098;-17.300179;-66.625725;;1636.5
1762.0;1716.3;;;;;;;;;;;;;;-0.6488235;-0.26276436;0.029053621;;;;;1636.5
1762.0;1716.3;;;;;;;;;;;;;;;;;60.57924;-18.444624;-63.37932;;1636.5
1762.0;1716.3;;;;;;;;;;;;;;-0.63124484;-0.2728965;0.02887051;;;;;1636.5
1762.0;1716.4;;;;-0.7236977;-0.01590729;-0.5269509;;;;;;;;;;;;;;;
1762.0;1716.4;;;;-0.7253342;-0.014774324;-0.5303727;;;;;;;;;;;;;;;
1762.0;1716.4;;;;-0.72637945;-0.013740541;-0.53345877;;;;;;;;;;;;;;;
1762.0;1716.4;;;;-0.7267495;-0.012966158;-0.53685766;;;;;;;;;;;;;;;
1762.0;1716.4;;;;-0.7273713;-0.012268068;-0.54011923;;;;;;;;;;;;;;;
1766.0;1717.1;;;;;;;;;;;;;;;;;62.623985;-18.528551;-59.94598;;1646.1
1766.0;1717.1;;;;;;;;;;;;;;-0.6236152;-0.27655873;0.044373915;;;;;1646.1
1766.0;1717.1;;;;;;;;;;;;;;;;;63.955353;-18.692587;-56.398205;;1646.1
1766.0;1717.1;;;;;;;;;;;;;;-0.6169622;-0.28034303;0.05999939;;;;;1646.1
1766.0;1717.1;;;;;;;;;;;;;;;;;64.947205;-18.635365;-52.819912;;1655.8
1766.0;1717.1;;;;;;;;;;;;;;-0.61214024;-0.2847377;0.06799524;;;;;1655.8
1766.0;1717.1;;;;;;;;;;;;;;;;;65.59191;-18.528551;-49.226357;;1655.8
1766.0;1717.1;;;;;;;;;;;;;;-0.6106754;-0.29725027;0.07373272;;;;;1655.8
1766.0;1717.1;;;;;;;;;;;;;;;;;65.91235;-18.681143;-45.358135;;1665.5
1766.0;1717.1;;;;;;;;;;;;;;-0.6045717;-0.31177709;0.07983642;;;;;1665.5
1766.0;1717.1;;;;;;;;;;;;;;;;;65.75594;-18.65444;-41.69973;;1665.5
1766.0;1717.1;;;;;;;;;;;;;;-0.5930357;-0.3249611;0.07214576;;;;;1665.5
1766.0;1718.8;262143;262143;13004;;;;;;;;;;;;;;;;;;
1766.0;1725.0;;;;;;;;;;;;;2673;;;;;;;;
1766.0;1725.0;;;;;;;;;;;;;7159;;;;;;;;
1766.0;1725.0;;;;;;;;;;;;;4994;;;;;;;;
1766.0;1725.0;;;;;;;;;;;;;3295;;;;;;;;
1766.0;1725.0;;;;;;;;;;;;;3703;;;;;;;;
1766.0;1726.4;;;;-0.7287293;-0.011440278;-0.5438767;;;;;;;;;;;;;;;
1766.0;1726.4;;;;-0.7307244;-0.010490418;-0.5477181;;;;;;;;;;;;;;;
1766.0;1726.4;;;;-0.7333756;-0.009475709;-0.5517579;;;;;;;;;;;;;;;
1766.0;1726.4;;;;-0.7352715;-0.008678437;-0.5539132;;;;;;;;;;;;;;;
1766.0;1726.4;;;;-0.7352753;-0.007946015;-0.5530854;;;;;;;;;;;;;;;
1820.0;1735.7;;;;;;;;;;2.2659993;17.914366;-2.338481;;;;;;;;;
1820.0;1735.7;;;;;;;0.6886197;-0.025635548;-0.5874203;;;;;;;;;;;;
1820.0;1735.7;;;;;;;;;;7.6601458;32.403027;7.515183;;;;;;;;;
1820.0;1735.7;;;;;;;0.77785575;-0.034669027;-0.66927093;;;;;;;;;;;;
1820.0;1736.5;;;;-0.735714;-0.007141114;-0.5616036;;;;;;;;;;;;;;;
1820.0;1736.5;;;;-0.73927313;-0.006340028;-0.5693398;;;;;;;;;;;;;;;
1820.0;1736.5;;;;-0.74482733;-0.0053520207;-0.57313544;;;;;;;;;;;;;;;
1820.0;1736.5;;;;-0.75102246;-0.0042076115;-0.57620627;;;;;;;;;;;;;;;
1820.0;1736.5;;;;-0.7561265;-0.003131867;-0.5807839;;;;;;;;;;;;;;;
1820.0;1739.0;262143;262143;12998;;;;;;;;;;;;;;;;;;
1820.0;1745.3;;;;;;;;;;-0.45014802;5.1957765;4.2611465;;;;;;;;;
1820.0;1745.3;;;;;;;0.7817621;-0.038392287;-0.6841029;;;;;;;;;;;;
1820.0;1745.3;;;;;;;;;;-0.65614796;18.436995;14.099551;;;;;;;;;
1820.0;1745.3;;;;;;;0.7884152;-0.043702506;-0.6964324;;;;;;;;;;;;
1820.0;1746.6;;;;-0.7595979;-0.002159119;-0.5861741;;;;;;;;;;;;;;;
1820.0;1746.6;;;;-0.762745;-8.659364E-4;-0.5901986;;;;;;;;;;;;;;;
1820.0;1746.6;;;;-0.7661172;-2.7847293E-4;-0.59260947;;;;;;;;;;;;;;;
1820.0;1746.6;;;;-0.76908886;3.738404E-4;-0.59974295;;;;;;;;;;;;;;;
1820.0;1746.6;;;;-0.7739297;7.362367E-4;-0.6070023;;;;;;;;;;;;;;;
1820.0;1754.8;;;;;;;;;;-5.3178506;20.825068;20.027771;;;;;;;;;
1820.0;1754.8;;;;;;;0.7936033;-0.049439985;-0.7088229;;;;;;;;;;;;
1820.0;1754.8;;;;;;;;;;-14.736626;-12.798699;5.0660725;;;;;;;;;
1820.0;1754.8;;;;;;;0.8027589;-0.056825466;-0.72164065;;;;;;;;;;;;
1822.0;1756.6;;;;-0.77819455;0.0013885499;-0.610508;;;;;;;;;;;;;;;
1822.0;1756.6;;;;-0.7810899;0.0020484927;-0.61352926;;;;;;;;;;;;;;;
1822.0;1756.6;;;;-0.7835046;0.002498627;-0.61835104;;;;;;;;;;;;;;;
1822.0;1756.6;;;;-0.78622067;0.0028228762;-0.62247473;;;;;;;;;;;;;;;
1822.0;1756.6;;;;-0.78994;0.0026664736;-0.62655646;;;;;;;;;;;;;;;
1822.0;1759.1;262143;262143;12992;;;;;;;;;;;;;;;;;;
1822.0;1764.4;;;;;;;;;;-18.589588;-11.951812;9.510331;;;;;;;;;
1822.0;1764.4;;;;;;;0.8132572;-0.067079686;-0.73165077;;;;;;;;;;;;
1822.0;1764.4;;;;;;;;;;-21.851254;-11.116366;14.084292;;;;;;;;;
1822.0;1764.4;;;;;;;0.8220466;-0.07440413;-0.7390362;;;;;;;;;;;;
1822.0;1765.3;;;;;;;;;;;;;3719;;;;;;;;
1822.0;1765.3;;;;;;;;;;;;;2985;;;;;;;;
1822.0;1765.3;;;;;;;;;;;;;2604;;;;;;;;
1822.0;1765.3;;;;;;;;;;;;;2469;;;;;;;;
1822.0;1765.3;;;;;;;;;;;;;2085;;;;;;;;
1822.0;1766.7;;;;-0.79356396;0.0020599368;-0.6329308;;;;;;;;;;;;;;;
1822.0;1766.7;;;;-0.7942544;0.0017318728;-0.6365586;;;;;;;;;;;;;;;
1822.0;1766.7;;;;-0.7981378;0.0017814639;-0.6397057;;;;;;;;;;;;;;;
1822.0;1766.7;;;;-0.8033792;0.0018234255;-0.6431809;;;;;;;;;;;;;;;
1822.0;1766.7;;;;-0.8078538;0.0013847352;-0.64874274;;;;;;;;;;;;;;;
1822.0;1774.0;;;;;;;;;;-24.613178;-2.7123327;24.08292;;;;;;;;;
1822.0;1774.0;;;;;;;0.8268685;-0.08148442;-0.74019593;;;;;;;;;;;;
1822.0;1774.0;;;;;;;;;;-24.716179;5.8519244;31.701103;;;;;;;;;
1822.0;1774.0;;;;;;;0.8323008;-0.08667257;-0.74422437;;;;;;;;;;;;
1823.0;1776.3;;;;;;;;;;;;;;;;;64.85947;-17.998291;-38.10236;;1675.0
1823.0;1776.3;;;;;;;;;;;;;;-0.58674884;-0.34308907;0.0717185;;;;;1675.0
1823.0;1776.3;;;;;;;;;;;;;;;;;63.13517;-17.303995;-34.752953;;1675.0
1823.0;1776.3;;;;;;;;;;;;;;-0.58442944;-0.3607898;0.076235235;;;;;1675.0
1823.0;1776.3;;;;;;;;;;;;;;;;;61.365093;-16.441847;-31.613361;;1684.7
1823.0;1776.3;;;;;;;;;;;;;;-0.58589435;-0.38282418;0.0794702;;;;;1684.7
1823.0;1776.3;;;;;;;;;;;;;;;;;60.197758;-15.404218;-28.317362;;1684.7
1823.0;1776.3;;;;;;;;;;;;;;-0.58522296;-0.3864864;0.09094516;;;;;1684.7
1823.0;1776.3;;;;;;;;;;;;;;;;;58.751945;-15.087587;-25.341806;;1694.3
1823.0;1776.3;;;;;;;;;;;;;;-0.5663625;-0.38612017;0.09857479;;;;;1694.3
1823.0;1776.3;;;;;;;;;;;;;;;;;57.03528;-14.01944;-22.579882;;1694.3
1823.0;1776.3;;;;;;;;;;;;;;-0.53914;-0.38196966;0.105166785;;;;;1694.3
1823.0;1776.7;;;;-0.81115353;0.001350403;-0.6532975;;;;;;;;;;;;;;;
1823.0;1776.7;;;;-0.8130914;9.2315685E-4;-0.65808874;;;;;;;;;;;;;;;
1823.0;1776.7;;;;-0.8128587;3.4713748E-4;-0.6632958;;;;;;;;;;;;;;;
1823.0;1776.7;;;;-0.81592953;1.3732912E-4;-0.66756827;;;;;;;;;;;;;;;
1823.0;1776.7;;;;-0.82201016;-4.3869024E-4;-0.672371;;;;;;;;;;;;;;;
1824.0;1777.0;;;;;;;;;;;;;;;;;54.60906;-12.398144;-20.180365;;1703.9
1824.0;1777.0;;;;;;;;;;;;;;-0.5059969;-0.37531662;0.11206397;;;;;1703.9
1824.0;1777.0;;;;;;;;;;;;;;;;;51.183353;-10.13596;-17.731255;;1703.9
1824.0;1777.0;;;;;;;;;;;;;;-0.47553942;-0.38557085;0.118533894;;;;;1703.9
1824.0;1777.0;;;;;;;;;;;;;;;;;47.566914;-7.396924;-15.66744;;1713.5
1824.0;1777.0;;;;;;;;;;;;;;-0.4379406;-0.39649647;0.12891018;;;;;1713.5
1824.0;1777.0;;;;;;;;;;;;;;;;;43.607136;-4.222999;-13.611256;;1713.5
1824.0;1777.0;;;;;;;;;;;;;;-0.39448225;-0.42347485;0.14661092;;;;;1713.5
1824.0;1777.0;;;;;;;;;;;;;;;;;39.39558;-0.8545183;-11.547441;;1723.2
1824.0;1777.0;;;;;;;;;;;;;;-0.35395366;-0.42854092;0.17273477;;;;;1723.2
1824.0;1777.0;;;;;;;;;;;;;;;;;34.23795;2.7008882;-9.083072;;1723.2
1824.0;1777.0;;;;;;;;;;;;;;-0.30823696;-0.4290292;0.18146306;;;;;1723.2
1824.0;1779.1;262143;262143;12986;;;;;;;;;;;;;;;;;;
1824.0;1783.4;;;;;;;;;;-23.609882;6.004517;31.785027;;;;;;;;;
1824.0;1783.4;;;;;;;0.8406018;-0.092837304;-0.7498398;;;;;;;;;;;;
1824.0;1783.4;;;;;;;;;;-22.297585;5.8252206;31.941437;;;;;;;;;
1824.0;1783.4;;;;;;;0.8451186;-0.100833155;-0.7540513;;;;;;;;;;;;
1824.0;1786.6;;;;-0.82922757;-0.0011329652;-0.6777764;;;;;;;;;;;;;;;
1824.0;1786.6;;;;-0.83301175;-0.0025405886;-0.6837769;;;;;;;;;;;;;;;
1824.0;1786.6;;;;-0.83311856;-0.0033149724;-0.68770224;;;;;;;;;;;;;;;
1824.0;1786.6;;;;-0.8338548;-0.0023651125;-0.69123465;;;;;;;;;;;;;;;
1824.0;1786.6;;;;-0.83742154;-0.0010871888;-0.6944962;;;;;;;;;;;;;;;
1880.0;1793.0;;;;;;;;;;-20.939512;5.6611834;32.303844;;;;;;;;;
1880.0;1793.0;;;;;;;0.84987944;-0.10846278;-0.7599719;;;;;;;;;;;;
1880.0;1793.0;;;;;;;;;;-19.52803;5.5772576;32.6281;;;;;;;;;
1880.0;1793.0;;;;;;;0.8600726;-0.114200264;-0.7661977;;;;;;;;;;;;
1880.0;1796.7;;;;-0.8424684;-7.2479255E-5;-0.6986161;;;;;;;;;;;;;;;
1880.0;1796.7;;;;-0.84764874;9.155275E-5;-0.70330054;;;;;;;;;;;;;;;
1880.0;1796.7;;;;-0.85182583;4.5776374E-5;-0.70735556;;;;;;;;;;;;;;;
1880.0;1796.7;;;;-0.85517514;-6.103516E-4;-0.71145636;;;;;;;;;;;;;;;
1880.0;1796.7;;;;-0.85935223;-0.0011634828;-0.71667105;;;;;;;;;;;;;;;
1880.0;1799.3;262143;262143;12985;;;;;;;;;;;;;;;;;;
1880.0;1802.6;;;;;;;;;;-18.21192;5.7412944;32.940918;;;;;;;;;
1880.0;1802.6;;;;;;;0.868862;-0.12347789;-0.76796776;;;;;;;;;;;;
1880.0;1802.6;;;;;;;;;;-16.895811;5.962554;33.310955;;;;;;;;;
1880.0;1802.6;;;;;;;0.87887204;-0.13086337;-0.7690054;;;;;;;;;;;;
1880.0;1805.4;;;;;;;;;;;;;1096;;;;;;;;
1880.0;1805.4;;;;;;;;;;;;;-160;;;;;;;;
1880.0;1805.4;;;;;;;;;;;;;-744;;;;;;;;
1880.0;1805.4;;;;;;;;;;;;;-1005;;;;;;;;
1880.0;1805.4;;;;;;;;;;;;;-2012;;;;;;;;
1880.0;1806.5;;;;-0.8656465;-0.0013275148;-0.72180563;;;;;;;;;;;;;;;
1880.0;1806.5;;;;-0.87251294;-0.0015182497;-0.72612387;;;;;;;;;;;;;;;
1880.0;1806.5;;;;-0.87920773;-0.0012283326;-0.72975165;;;;;;;;;;;;;;;
1880.0;1806.5;;;;-0.8838006;-9.4985974E-4;-0.73326117;;;;;;;;;;;;;;;
1880.0;1806.5;;;;-0.88746655;-1.10626235E-4;-0.7375794;;;;;;;;;;;;;;;
1882.0;1811.8;;;;;;;;;;-15.526292;6.511887;33.63903;;;;;;;;;
1882.0;1811.8;;;;;;;0.8912015;-0.14105655;-0.77303386;;;;;;;;;;;;
1882.0;1811.8;;;;;;;;;;-14.118626;7.084109;33.867916;;;;;;;;;
1882.0;1811.8;;;;;;;0.89797664;-0.14783166;-0.7790155;;;;;;;;;;;;
1882.0;1816.5;;;;-0.89143;0.0014533998;-0.741108;;;;;;;;;;;;;;;
1882.0;1816.5;;;;-0.89527905;0.0025520327;-0.7446595;;;;;;;;;;;;;;;
1882.0;1816.5;;;;-0.8997041;0.0036621098;-0.7475968;;;;;;;;;;;;;;;
1882.0;1816.5;;;;-0.90462506;0.0043945317;-0.7505342;;;;;;;;;;;;;;;
1882.0;1816.5;;;;-0.9082223;0.0039329533;-0.75356305;;;;;;;;;;;;;;;
1882.0;1819.2;262143;262143;12982;;;;;;;;;;;;;;;;;;
1882.0;1821.4;;;;;;;;;;-12.596515;7.396924;34.169285;;;;;;;;;
1882.0;1821.4;;;;;;;0.90414137;-0.15527818;-0.784814;;;;;;;;;;;;
1882.0;1821.4;;;;;;;;;;-11.085848;7.4274426;34.43632;;;;;;;;;
1882.0;1821.4;;;;;;;0.9115879;-0.16589862;-0.78811;;;;;;;;;;;;
1882.0;1826.6;;;;-0.91066754;0.003044129;-0.7559663;;;;;;;;;;;;;;;
1882.0;1826.6;;;;-0.91256726;0.0025024416;-0.7581712;;;;;;;;;;;;;;;
1882.0;1826.6;;;;-0.9138833;0.0015640261;-0.761799;;;;;;;;;;;;;;;
1882.0;1826.6;;;;-0.91435254;4.997254E-4;-0.7667886;;;;;;;;;;;;;;;
1882.0;1826.6;;;;-0.91410077;3.166199E-4;-0.7699853;;;;;;;;;;;;;;;
1882.0;1831.1;;;;;;;;;;-9.548479;7.450331;34.649952;;;;;;;;;
1882.0;1831.1;;;;;;;0.9267861;-0.17761773;-0.79500717;;;;;;;;;;;;
1882.0;1831.1;;;;;;;;;;-8.045443;7.9996643;34.981842;;;;;;;;;
1882.0;1831.1;;;;;;;0.9439985;-0.1911069;-0.8016602;;;;;;;;;;;;
1883.0;1836.7;;;;;;;;;;;;;;;;;27.466658;7.187109;-6.3592944;;1732.8
1883.0;1836.7;;;;;;;;;;;;;;-0.27539903;-0.42445144;0.18085268;;;;;1732.8
1883.0;1836.7;;;;;;;;;;;;;;;;;18.356884;12.390514;-3.7690358;;1732.8
1883.0;1836.7;;;;;;;;;;;;;;-0.25977355;-0.43513292;0.17505418;;;;;1732.8
1883.0;1836.7;;;;;;;;;;;;;;;;;7.0345163;18.208105;-1.6441847;;1742.3
1883.0;1836.7;;;;;;;;;;;;;;-0.24579607;-0.4761498;0.1518601;;;;;1742.3
1883.0;1836.7;;;;;;;;;;;;;;;;;-5.5619984;24.781029;-0.034333322;;1742.3
1883.0;1836.7;;;;;;;;;;;;;;-0.25080112;-0.5206458;0.13135166;;;;;1742.3
1883.0;1836.7;;;;;;;;;;;;;;;;;-17.983032;32.052067;1.6479995;;1752.0
1883.0;1836.7;;;;;;;;;;;;;;-0.26123846;-0.5790582;0.11566515;;;;;1752.0
1883.0;1836.7;;;;;;;;;;;;;;;;;-29.347363;38.995026;3.6736658;;1752.0
1883.0;1836.7;;;;;;;;;;;;;;-0.29486984;-0.65071565;0.10846278;;;;;1752.0
1883.0;1836.6;;;;-0.91363156;2.5558475E-4;-0.77166;;;;;;;;;;;;;;;
1883.0;1836.6;;;;-0.913376;2.8610232E-4;-0.77435696;;;;;;;;;;;;;;;
1883.0;1836.6;;;;-0.9143487;4.2724615E-4;-0.77816784;;;;;;;;;;;;;;;
1883.0;1836.6;;;;-0.91811764;3.089905E-4;-0.7863122;;;;;;;;;;;;;;;
1883.0;1836.6;;;;-0.9222833;-8.1634533E-4;-0.78969204;;;;;;;;;;;;;;;
1886.0;1837.5;;;;;;;;;;;;;;;;;-38.674583;43.740654;6.6873684;;1761.7
1886.0;1837.5;;;;;;;;;;;;;;-0.33576465;-0.7233497;0.067751095;;;;;1761.7
1886.0;1837.5;;;;;;;;;;;;;;;;;-44.255653;46.47206;10.433516;;1761.7
1886.0;1837.5;;;;;;;;;;;;;;-0.37299722;-0.786462;0.049806207;;;;;1761.7
1886.0;1837.5;;;;;;;;;;;;;;;;;-46.14017;47.784355;14.980773;;1771.3
1886.0;1837.5;;;;;;;;;;;;;;-0.3912473;-0.8608661;0.00634785;;;;;1771.3
1886.0;1837.5;;;;;;;;;;;;;;;;;-44.354836;48.47484;20.317698;;1771.3
1886.0;1837.5;;;;;;;;;;;;;;-0.42799157;-0.94424266;-0.074892424;;;;;1771.3
1886.0;1837.5;;;;;;;;;;;;;;;;;-39.822838;45.583206;25.643177;;1780.9
1886.0;1837.5;;;;;;;;;;;;;;-0.46662802;-1.023896;-0.16034424;;;;;1780.9
1886.0;1837.5;;;;;;;;;;;;;;;;;-33.50551;39.39558;31.903286;;1780.9
1886.0;1837.5;;;;;;;;;;;;;;-0.46882534;-1.0768762;-0.27503282;;;;;1780.9
1886.0;1839.2;262143;262143;12989;;;;;;;;;;;;;;;;;;
1886.0;1840.4;;;;;;;;;;-6.477554;8.4421835;35.35951;;;;;;;;;
1886.0;1840.4;;;;;;;0.95986813;-0.2031312;-0.8103885;;;;;;;;;;;;
1886.0;1840.4;;;;;;;;;;-4.7074804;8.762627;35.74099;;;;;;;;;
1886.0;1840.4;;;;;;;0.9632862;-0.21326335;-0.81820124;;;;;;;;;;;;
1886.0;1845.3;;;;;;;;;;;;;-3603;;;;;;;;
1886.0;1845.3;;;;;;;;;;;;;-4503;;;;;;;;
1886.0;1845.3;;;;;;;;;;;;;-3988;;;;;;;;
1886.0;1845.3;;;;;;;;;;;;;-2701;;;;;;;;
1886.0;1845.3;;;;;;;;;;;;;-1642;;;;;;;;
1887.0;1846.6;;;;-0.9235002;-0.002220154;-0.7906648;;;;;;;;;;;;;;;
1887.0;1846.6;;;;-0.92198193;-0.003482819;-0.79216397;;;;;;;;;;;;;;;
1887.0;1846.6;;;;-0.9192277;-0.004493714;-0.7950746;;;;;;;;;;;;;;;
1887.0;1846.6;;;;-0.9172555;-0.0055694585;-0.79999554;;;;;;;;;;;;;;;
1887.0;1846.6;;;;-0.9163171;-0.00712967;-0.8025209;;;;;;;;;;;;;;;
1887.0;1850.0;;;;;;;;;;-2.9526658;8.964812;36.15299;;;;;;;;;
1887.0;1850.0;;;;;;;0.9632862;-0.22327341;-0.8274789;;;;;;;;;;;;
1887.0;1850.0;;;;;;;;;;-1.1825923;8.831293;36.59551;;;;;;;;;
1887.0;1850.0;;;;;;;0.96658224;-0.23364972;-0.84054077;;;;;;;;;;;;
1887.0;1856.6;;;;-0.9154893;-0.009349824;-0.80412686;;;;;;;;;;;;;;;
1887.0;1856.6;;;;-0.9145967;-0.011596681;-0.80666745;;;;;;;;;;;;;;;
1887.0;1856.6;;;;-0.9142114;-0.014053347;-0.80986035;;;;;;;;;;;;;;;
1887.0;1856.6;;;;-0.9143144;-0.017002108;-0.81258404;;;;;;;;;;;;;;;
1887.0;1856.6;;;;-0.9155389;-0.019752504;-0.815632;;;;;;;;;;;;;;;
1887.0;1859.5;;;;;;;;;;0.63325906;8.499405;36.942657;;;;;;;;;
1887.0;1859.5;;;;;;;0.9720756;-0.24591815;-0.85348064;;;;;;;;;;;;
1887.0;1859.5;;;;;;;;;;2.3804438;7.889035;37.2631;;;;;;;;;
1887.0;1859.5;;;;;;;0.9807428;-0.25495163;-0.8679464;;;;;;;;;;;;
1887.0;1859.3;262143;262143;12981;;;;;;;;;;;;;;;;;;
1938.0;1866.7;;;;-0.9171792;-0.022598268;-0.8188058;;;;;;;;;;;;;;;
1938.0;1866.7;;;;-0.9189569;-0.025112156;-0.8231088;;;;;;;;;;;;;;;
1938.0;1866.7;;;;-0.9201356;-0.028068546;-0.8286439;;;;;;;;;;;;;;;
1938.0;1866.7;;;;-0.9207269;-0.029823307;-0.83485806;;;;;;;;;;;;;;;
1938.0;1866.7;;;;-0.9231988;-0.031517033;-0.839779;;;;;;;;;;;;;;;
1938.0;1868.9;;;;;;;;;;4.1314435;6.8132577;37.35847;;;;;;;;;
1938.0;1868.9;;;;;;;0.9886776;-0.26648763;-0.8806421;;;;;;;;;;;;
1938.0;1868.9;;;;;;;;;;5.787072;6.004517;37.35084;;;;;;;;;
1938.0;1868.9;;;;;;;0.99545276;-0.27405623;-0.8874172;;;;;;;;;;;;
1938.0;1876.6;;;;-0.9266931;-0.032657627;-0.8469087;;;;;;;;;;;;;;;
1938.0;1876.6;;;;-0.9298135;-0.034095768;-0.8547746;;;;;;;;;;;;;;;
1938.0;1876.6;;;;-0.9331857;-0.034996036;-0.86193097;;;;;;;;;;;;;;;
1938.0;1876.6;;;;-0.93470395;-0.035205845;-0.8698083;;;;;;;;;;;;;;;
1938.0;1876.6;;;;-0.93618023;-0.03572083;-0.8794786;;;;;;;;;;;;;;;
1938.0;1878.6;;;;;;;;;;7.1909237;5.6154056;37.312695;;;;;;;;;
1938.0;1878.6;;;;;;;1.0005188;-0.28199103;-0.88930935;;;;;;;;;;;;
1938.0;1878.6;;;;;;;;;;8.350628;5.2072206;37.091434;;;;;;;;;
1938.0;1878.6;;;;;;;1.000885;-0.29090244;-0.8860744;;;;;;;;;;;;
1938.0;1879.4;262143;262143;12985;;;;;;;;;;;;;;;;;;
1938.0;1885.5;;;;;;;;;;;;;-1167;;;;;;;;
1938.0;1885.5;;;;;;;;;;;;;-878;;;;;;;;
1938.0;1885.5;;;;;;;;;;;;;-222;;;;;;;;
1938.0;1885.5;;;;;;;;;;;;;596;;;;;;;;
1938.0;1885.5;;;;;;;;;;;;;1042;;;;;;;;
1941.0;1886.7;;;;-0.93722165;-0.0362587;-0.8912927;;;;;;;;;;;;;;;
1941.0;1886.7;;;;-0.9370805;-0.03641129;-0.90272915;;;;;;;;;;;;;;;
1941.0;1886.7;;;;-0.9370614;-0.03538132;-0.91217816;;;;;;;;;;;;;;;
1941.0;1886.7;;;;-0.9404832;-0.034320835;-0.9204484;;;;;;;;;;;;;;;
1941.0;1886.7;;;;-0.94462216;-0.033206943;-0.92985165;;;;;;;;;;;;;;;
1941.0;1888.2;;;;;;;;;;9.323405;4.71511;36.7481;;;;;;;;;
1941.0;1888.2;;;;;;;1.002472;-0.29621264;-0.87887204;;;;;;;;;;;;
1941.0;1888.2;;;;;;;;;;10.151219;4.3450727;36.103397;;;;;;;;;
1941.0;1888.2;;;;;;;0.99777216;-0.30030215;-0.8681906;;;;;;;;;;;;
1941.0;1896.4;;;;;;;;;;;;;;;;;-22.675253;34.600357;38.247322;;1790.5
1941.0;1896.4;;;;;;;;;;;;;;-0.45362714;-1.0756553;-0.30384228;;;;;1790.5
1941.0;1896.4;;;;;;;;;;;;;;;;;-5.733665;34.028137;44.49217;;1790.5
1941.0;1896.4;;;;;;;;;;;;;;-0.5065462;-0.9983825;-0.24671163;;;;;1790.5
1941.0;1896.4;;;;;;;;;;;;;;;;;15.385143;30.316324;51.5038;;1800.1
1941.0;1896.4;;;;;;;;;;;;;;-0.6038392;-0.8665426;-0.057985168;;;;;1800.1
1941.0;1896.4;;;;;;;;;;;;;;;;;38.11762;22.526474;58.16828;;1800.1
1941.0;1896.4;;;;;;;;;;;;;;-0.61323893;-0.710593;0.21173742;;;;;1800.1
1941.0;1896.4;;;;;;;;;;;;;;;;;52.57958;26.459549;61.79235;;1809.6
1941.0;1896.4;;;;;;;;;;;;;;-0.61653495;-0.60768455;0.4854274;;;;;1809.6
1941.0;1896.4;;;;;;;;;;;;;;;;;50.33265;42.50084;62.253944;;1809.6
1941.0;1896.4;;;;;;;;;;;;;;-0.68581194;-0.58412427;0.6684774;;;;;1809.6
1942.0;1896.6;;;;-0.94882596;-0.033355717;-0.9395639;;;;;;;;;;;;;;;
1942.0;1896.6;;;;-0.9522401;-0.033401493;-0.94848263;;;;;;;;;;;;;;;
1942.0;1896.6;;;;-0.9548341;-0.033824924;-0.95549786;;;;;;;;;;;;;;;
1942.0;1896.6;;;;-0.9548532;-0.033988956;-0.9615861;;;;;;;;;;;;;;;
1942.0;1896.6;;;;-0.9537202;-0.034233097;-0.968506;;;;;;;;;;;;;;;
1942.0;1897.3;;;;;;;;;;;;;;;;;32.57851;60.338905;62.654503;;1819.2
1942.0;1897.3;;;;;;;;;;;;;;-0.8289437;-0.5790582;0.72688985;;;;;1819.2
1942.0;1897.3;;;;;;;;;;;;;;;;;11.364329;68.685715;67.07969;;1819.2
1942.0;1897.3;;;;;;;;;;;;;;-0.91567737;-0.49653614;0.43763542;;;;;1819.2
1942.0;1897.3;;;;;;;;;;;;;;;;;-4.0627766;71.363716;74.38887;;1828.9
1942.0;1897.3;;;;;;;;;;;;;;-0.90231025;-0.3683584;0.10101627;;;;;1828.9
1942.0;1897.3;;;;;;;;;;;;;;;;;-23.007141;77.421646;80.75579;;1828.9
1942.0;1897.3;;;;;;;;;;;;;;-0.9787896;-0.3706168;0.07556383;;;;;1828.9
1942.0;1897.3;;;;;;;;;;;;;;;;;-48.68084;86.97394;84.852905;;1838.6
1942.0;1897.3;;;;;;;;;;;;;;-1.1561632;-0.4395886;0.0036622211;;;;;1838.6
1942.0;1897.3;;;;;;;;;;;;;;;;;-69.43342;92.69616;90.02579;;1838.6
1942.0;1897.3;;;;;;;;;;;;;;-1.3693656;-0.46882534;-0.07861568;;;;;1838.6
1942.0;1897.6;;;;;;;;;;10.700553;4.215369;35.328987;;;;;;;;;
1942.0;1897.6;;;;;;;0.99343854;-0.30133978;-0.8514664;;;;;;;;;;;;
1942.0;1897.6;;;;;;;;;;10.971405;4.3298135;34.382915;;;;;;;;;
1942.0;1897.6;;;;;;;0.98513746;-0.3053682;-0.8370617;;;;;;;;;;;;
1942.0;1899.4;262143;262143;12988;;;;;;;;;;;;;;;;;;
1943.0;1906.6;;;;-0.9535104;-0.034042362;-0.9763032;;;;;;;;;;;;;;;
1943.0;1906.6;;;;-0.9548112;-0.032463077;-0.98433316;;;;;;;;;;;;;;;
1943.0;1906.6;;;;-0.95637906;-0.03097153;-0.993992;;;;;;;;;;;;;;;
1943.0;1906.6;;;;-0.9586679;-0.02902985;-1.0047418;;;;;;;;;;;;;;;
1943.0;1906.6;;;;-0.9611589;-0.026908878;-1.0150377;;;;;;;;;;;;;;;
1943.0;1907.2;;;;;;;;;;11.051516;4.463332;33.352917;;;;;;;;;
1943.0;1907.2;;;;;;;0.9742729;-0.30310982;-0.81496626;;;;;;;;;;;;
1943.0;1907.2;;;;;;;;;;10.85696;4.8219247;32.07114;;;;;;;;;
1943.0;1907.2;;;;;;;0.9595019;-0.2957854;-0.79067355;;;;;;;;;;;;
1943.0;1916.6;;;;-0.96346295;-0.023643497;-1.0257341;;;;;;;;;;;;;;;
1943.0;1916.6;;;;-0.9670068;-0.020294191;-1.0377122;;;;;;;;;;;;;;;
1943.0;1916.6;;;;-0.97251904;-0.015552523;-1.0494806;;;;;;;;;;;;;;;
1943.0;1916.6;;;;-0.97911084;-0.009304048;-1.0612146;;;;;;;;;;;;;;;
1943.0;1916.6;;;;-0.9863931;-0.0021781924;-1.073021;;;;;;;;;;;;;;;
1943.0;1916.7;;;;;;;;;;loka.67;5.260628;30.59862;;;;;;;;;
1943.0;1916.7;;;;;;;0.9342326;-0.28962067;-0.7628407;;;;;;;;;;;;
1943.0;1916.7;;;;;;;;;;9.613331;6.069369;29.17951;;;;;;;;;
1943.0;1916.7;;;;;;;0.90676594;-0.2842494;-0.73000276;;;;;;;;;;;;
1943.0;1919.5;262143;262143;12997;;;;;;;;;;;;;;;;;;
1943.0;1925.5;;;;;;;;;;;;;1029;;;;;;;;
1943.0;1925.5;;;;;;;;;;;;;741;;;;;;;;
1943.0;1925.5;;;;;;;;;;;;;361;;;;;;;;
1943.0;1925.5;;;;;;;;;;;;;15;;;;;;;;
1943.0;1925.5;;;;;;;;;;;;;-286;;;;;;;;
2003.0;1926.1;;;;;;;;;;8.713035;6.923887;27.718435;;;;;;;;;
2003.0;1926.1;;;;;;;0.88448745;-0.2800989;-0.6944182;;;;;;;;;;;;
2003.0;1926.1;;;;;;;;;;7.621998;7.3244424;26.352734;;;;;;;;;
2003.0;1926.1;;;;;;;0.852443;-0.27118748;-0.6548051;;;;;;;;;;;;
2003.0;1926.6;;;;-0.99443066;0.005283356;-1.0844117;;;;;;;;;;;;;;;
2003.0;1926.6;;;;-1.0025445;0.0125618;-1.0956231;;;;;;;;;;;;;;;
2003.0;1926.6;;;;-1.0114785;0.0199852;-1.1061975;;;;;;;;;;;;;;;
2003.0;1926.6;;;;-1.0205613;0.027091984;-1.1158983;;;;;;;;;;;;;;;
2003.0;1926.6;;;;-1.0295411;0.03375626;-1.1236078;;;;;;;;;;;;;;;
2003.0;1935.5;;;;;;;;;;6.4394054;7.1184425;24.70092;;;;;;;;;
2003.0;1935.5;;;;;;;0.8069704;-0.26557207;-0.61818296;;;;;;;;;;;;
2003.0;1935.5;;;;;;;;;;5.01648;6.492813;22.690512;;;;;;;;;
2003.0;1935.5;;;;;;;0.77425456;-0.26190984;-0.5857723;;;;;;;;;;;;
2003.0;1936.4;;;;-1.0368539;0.039314274;-1.1301233;;;;;;;;;;;;;;;
2003.0;1936.4;;;;-1.0414582;0.04628754;-1.1344377;;;;;;;;;;;;;;;
2003.0;1936.4;;;;-1.0440866;0.052417763;-1.1376573;;;;;;;;;;;;;;;
2003.0;1936.4;;;;-1.0452119;0.058479317;-1.138199;;;;;;;;;;;;;;;
2003.0;1936.4;;;;-1.0453035;0.06331254;-1.1354829;;;;;;;;;;;;;;;
2003.0;1939.4;262143;262143;12980;;;;;;;;;;;;;;;;;;
2003.0;1945.1;;;;;;;;;;3.7003694;5.8175907;20.973846;;;;;;;;;
2003.0;1945.1;;;;;;;0.7614368;-0.25812554;-0.56282234;;;;;;;;;;;;
2003.0;1945.1;;;;;;;;;;2.475814;5.5772576;19.405958;;;;;;;;;
2003.0;1945.1;;;;;;;0.7622303;-0.2482986;-0.54951626;;;;;;;;;;;;
2006.0;1946.5;;;;-1.0441285;0.0657158;-1.1347047;;;;;;;;;;;;;;;
2006.0;1946.5;;;;-1.0432664;0.06715775;-1.1373864;;;;;;;;;;;;;;;
2006.0;1946.5;;;;-1.0420305;0.06931306;-1.1369859;;;;;;;;;;;;;;;
2006.0;1946.5;;;;-1.03751;0.07281876;-1.1339036;;;;;;;;;;;;;;;
2006.0;1946.5;;;;-1.0291635;0.077831276;-1.1276628;;;;;;;;;;;;;;;
2006.0;1954.7;;;;;;;;;;1.3657033;6.0541096;17.71218;;;;;;;;;
2006.0;1954.7;;;;;;;0.76094854;-0.24604023;-0.54286325;;;;;;;;;;;;
2006.0;1954.7;;;;;;;;;;0.46159247;6.7522206;15.831476;;;;;;;;;
2006.0;1954.7;;;;;;;0.7589343;-0.24604023;-0.5417035;;;;;;;;;;;;
2006.0;1956.5;;;;;;;;;;;;;;;;;-84.990234;87.86661;95.278786;;1848.2
2006.0;1956.5;;;;;;;;;;;;;;-1.5467391;-0.4588763;-0.0629902;;;;;1848.2
2006.0;1956.5;;;;;;;;;;;;;;;;;-90.63234;75.678276;99.16608;;1848.2
2006.0;1956.5;;;;;;;;;;;;;;-1.5307474;-0.40797144;-0.20520645;;;;;1848.2
2006.0;1956.5;;;;;;;;;;;;;;;;;-84.50575;67.43446;103.29752;;1857.7
2006.0;1956.5;;;;;;;;;;;;;;-1.4618976;-0.3937498;-0.33478805;;;;;1857.7
2006.0;1956.5;;;;;;;;;;;;;;;;;-77.13172;67.92657;108.19193;;1857.7
2006.0;1956.5;;;;;;;;;;;;;;-1.4311349;-0.4212775;-0.4453261;;;;;1857.7
2006.0;1956.5;;;;;;;;;;;;;;;;;-71.035645;72.44713;109.6263;;1867.3
2006.0;1956.5;;;;;;;;;;;;;;-1.5315409;-0.47492903;-0.39991456;;;;;1867.3
2006.0;1956.5;;;;;;;;;;;;;;;;;-66.58758;70.806755;104.95697;;1867.3
2006.0;1956.5;;;;;;;;;;;;;;-1.665456;-0.5371868;-0.24433118;;;;;1867.3
2007.0;1956.6;;;;-1.0202371;0.08436967;-1.1192361;;;;;;;;;;;;;;;
2007.0;1956.6;;;;-1.013466;0.09061814;-1.1074792;;;;;;;;;;;;;;;
2007.0;1956.6;;;;-1.0083085;0.094139114;-1.0915223;;;;;;;;;;;;;;;
2007.0;1956.6;;;;-1.002102;0.09446718;-1.0725976;;;;;;;;;;;;;;;
2007.0;1956.6;;;;-0.993538;0.09143067;-1.0562783;;;;;;;;;;;;;;;
2007.0;1957.7;;;;;;;;;;;;;;;;;-72.786644;64.275795;94.30601;;1877.0
2007.0;1957.7;;;;;;;;;;;;;;-1.6761986;-0.67885375;-0.21723075;;;;;1877.0
2007.0;1957.7;;;;;;;;;;;;;;;;;-83.067566;59.232613;81.19831;;1877.0
2007.0;1957.7;;;;;;;;;;;;;;-1.6404309;-0.7874996;-0.23645741;;;;;1877.0
2007.0;1957.7;;;;;;;;;;;;;;;;;-87.389755;54.80361;70.448166;;1886.6
2007.0;1957.7;;;;;;;;;;;;;;-1.5496079;-0.8402356;-0.27405623;;;;;1886.6
2007.0;1957.7;;;;;;;;;;;;;;;;;-81.59505;50.733208;63.0932;;1886.6
2007.0;1957.7;;;;;;;;;;;;;;-1.4288156;-0.8568987;-0.27344584;;;;;1886.6
2007.0;1957.7;;;;;;;;;;;;;;;;;-70.05905;46.31565;58.503983;;1896.1
2007.0;1957.7;;;;;;;;;;;;;;-1.2955108;-0.9213538;-0.22717978;;;;;1896.1
2007.0;1957.7;;;;;;;;;;;;;;;;;-60.419018;42.760246;55.742058;;1896.1
2007.0;1957.7;;;;;;;;;;;;;;-1.1927854;-0.946318;-0.15192114;;;;;1896.1
2007.0;1959.5;262143;262143;12984;;;;;;;;;;;;;;;;;;
2007.0;1964.2;;;;;;;;;;-0.11444441;7.614368;13.920255;;;;;;;;;
2007.0;1964.2;;;;;;;0.76613665;-0.24872585;-0.54829556;;;;;;;;;;;;
2007.0;1964.2;;;;;;;;;;-0.37766656;8.48033;12.325664;;;;;;;;;
2007.0;1964.2;;;;;;;0.7718741;-0.24860378;-0.55525374;;;;;;;;;;;;
2008.0;1965.6;;;;;;;;;;;;;-389;;;;;;;;
2008.0;1965.6;;;;;;;;;;;;;-256;;;;;;;;
2008.0;1965.6;;;;;;;;;;;;;-280;;;;;;;;
2008.0;1965.6;;;;;;;;;;;;;-546;;;;;;;;
2008.0;1965.6;;;;;;;;;;;;;-697;;;;;;;;
2008.0;1966.6;;;;-0.98573315;0.0861435;-1.0398179;;;;;;;;;;;;;;;
2008.0;1966.6;;;;-0.97664654;0.07699204;-1.0229188;;;;;;;;;;;;;;;
2008.0;1966.6;;;;-0.96419156;0.07017899;-1.0098535;;;;;;;;;;;;;;;
2008.0;1966.6;;;;-0.95484173;0.065063484;-0.99873364;;;;;;;;;;;;;;;
2008.0;1966.6;;;;-0.94402707;0.06197358;-0.98526776;;;;;;;;;;;;;;;
2008.0;1973.8;;;;;;;;;;-0.4997406;9.361553;11.120181;;;;;;;;;
2008.0;1973.8;;;;;;;0.77663505;-0.24768822;-0.5628834;;;;;;;;;;;;
2008.0;1973.8;;;;;;;;;;-0.3852962;9.907071;9.941404;;;;;;;;;
2008.0;1973.8;;;;;;;0.7803583;-0.25019073;-0.5711844;;;;;;;;;;;;
2008.0;1976.7;;;;-0.93289196;0.060489662;-0.97238934;;;;;;;;;;;;;;;
2008.0;1976.7;;;;-0.92136395;0.059734352;-0.9607774;;;;;;;;;;;;;;;
2008.0;1976.7;;;;-0.90984356;0.058372505;-0.948475;;;;;;;;;;;;;;;
2008.0;1976.7;;;;-0.8982507;0.054920204;-0.9376184;;;;;;;;;;;;;;;
2008.0;1976.7;;;;-0.88416684;0.04988099;-0.92847836;;;;;;;;;;;;;;;
2008.0;1979.7;262143;262143;12979;;;;;;;;;;;;;;;;;;
2008.0;1983.4;;;;;;;;;;-0.12970367;10.052033;8.8999605;;;;;;;;;
2008.0;1983.4;;;;;;;0.78420365;-0.25366986;-0.58143866;;;;;;;;;;;;
2008.0;1983.4;;;;;;;;;;0.5798517;10.097812;7.8241825;;;;;;;;;
2008.0;1983.4;;;;;;;0.79549545;-0.26221505;-0.5800348;;;;;;;;;;;;
2061.0;1986.6;;;;-0.87023175;0.04448319;-0.91952145;;;;;;;;;;;;;;;
2061.0;1986.6;;;;-0.85858166;0.039649967;-0.91064084;;;;;;;;;;;;;;;
2061.0;1986.6;;;;-0.8502275;0.035457615;-0.9030343;;;;;;;;;;;;;;;
2061.0;1986.6;;;;-0.84363186;0.030639652;-0.8990556;;;;;;;;;;;;;;;
2061.0;1986.6;;;;-0.8380891;0.026100162;-0.89530575;;;;;;;;;;;;;;;
2061.0;1992.7;;;;;;;;;;1.3046663;10.093997;6.511887;;;;;;;;;
2061.0;1992.7;;;;;;;0.8019654;-0.26154363;-0.5778985;;;;;;;;;;;;
2061.0;1992.7;;;;;;;;;;1.392407;9.712516;5.3636284;;;;;;;;;
2061.0;1992.7;;;;;;;0.7922605;-0.25678274;-0.5838191;;;;;;;;;;;;
2061.0;1996.6;;;;-0.8321687;0.02169037;-0.89065564;;;;;;;;;;;;;;;
2061.0;1996.6;;;;-0.82319653;0.017349245;-0.8856126;;;;;;;;;;;;;;;
2061.0;1996.6;;;;-0.8116914;0.013011934;-0.88141644;;;;;;;;;;;;;;;
2061.0;1996.6;;;;-0.80147946;0.009738923;-0.87810147;;;;;;;;;;;;;;;
2061.0;1996.6;;;;-0.7932931;0.005790711;-0.8741571;;;;;;;;;;;;;;;
2061.0;1999.6;262143;262143;12963;;;;;;;;;;;;;;;;;;
2061.0;2002.3;;;;;;;;;;1.392407;8.751183;4.5510726;;;;;;;;;
2061.0;2002.3;;;;;;;0.78487504;-0.25757623;-0.5937071;;;;;;;;;;;;
2061.0;2002.3;;;;;;;;;;1.7166661;7.7517014;3.6965547;;;;;;;;;
2061.0;2002.3;;;;;;;0.78688926;-0.26545;-0.5984069;;;;;;;;;;;;
2061.0;2005.7;;;;;;;;;;;;;-560;;;;;;;;
2061.0;2005.7;;;;;;;;;;;;;-289;;;;;;;;
2061.0;2005.7;;;;;;;;;;;;;-387;;;;;;;;
2061.0;2005.7;;;;;;;;;;;;;-1024;;;;;;;;
2061.0;2005.7;;;;;;;;;;;;;-1261;;;;;;;;
2063.0;2006.7;;;;-0.78727734;0.0022735598;-0.8690301;;;;;;;;;;;;;;;
2063.0;2006.7;;;;-0.78348553;-0.001464844;-0.8633882;;;;;;;;;;;;;;;
2063.0;2006.7;;;;-0.7798883;-0.005035401;-0.8579637;;;;;;;;;;;;;;;
2063.0;2006.7;;;;-0.7768022;-0.008781434;-0.85369503;;;;;;;;;;;;;;;
2063.0;2006.7;;;;-0.773388;-0.01193619;-0.8508264;;;;;;;;;;;;;;;
2063.0;2012.0;;;;;;;;;;2.3461106;7.019257;2.6093326;;;;;;;;;
2063.0;2012.0;;;;;;;0.79500717;-0.26801354;-0.59663683;;;;;;;;;;;;
2063.0;2012.0;;;;;;;;;;3.0022585;6.5652943;1.5259255;;;;;;;;;
2063.0;2012.0;;;;;;;0.7952513;-0.26630452;-0.593585;;;;;;;;;;;;
2063.0;2016.8;;;;;;;;;;;;;;;;;-54.963833;38.777584;53.06406;;1905.8
2063.0;2016.8;;;;;;;;;;;;;;-1.098056;-0.931547;-0.1551561;;;;;1905.8
2063.0;2016.8;;;;;;;;;;;;;;;;;-48.081913;34.16547;51.103245;;1905.8
2063.0;2016.8;;;;;;;;;;;;;;-0.98263496;-0.8600116;-0.20172735;;;;;1905.8
2063.0;2016.8;;;;;;;;;;;;;;;;;-38.689842;30.831324;51.168095;;1915.4
2063.0;2016.8;;;;;;;;;;;;;;-0.88106936;-0.78621787;-0.17639698;;;;;1915.4
2063.0;2016.8;;;;;;;;;;;;;;;;;-31.338696;29.660177;52.972504;;1915.4
2063.0;2016.8;;;;;;;;;;;;;;-0.8100833;-0.6961882;-0.13226722;;;;;1915.4
2063.0;2016.8;;;;;;;;;;;;;;;;;-29.534288;29.774622;55.51317;;1925.0
2063.0;2016.8;;;;;;;;;;;;;;-0.7516709;-0.60444957;-0.16638692;;;;;1925.0
2063.0;2016.8;;;;;;;;;;;;;;;;;-29.17188;30.30488;59.30891;;1925.0
2063.0;2016.8;;;;;;;;;;;;;;-0.7262795;-0.53425705;-0.22540972;;;;;1925.0
2065.0;2016.8;;;;-0.7701379;-0.013874056;-0.8478776;;;;;;;;;;;;;;;
2065.0;2016.8;;;;-0.7659875;-0.015483858;-0.8472253;;;;;;;;;;;;;;;
2065.0;2016.8;;;;-0.75989926;-0.01659012;-0.84700024;;;;;;;;;;;;;;;
2065.0;2016.8;;;;-0.7518159;-0.018138887;-0.84814465;;;;;;;;;;;;;;;
2065.0;2016.8;;;;-0.74392706;-0.018829348;-0.849846;;;;;;;;;;;;;;;
2065.0;2017.6;;;;;;;;;;;;;;;;;-27.397991;29.923399;63.776054;;1934.6
2065.0;2017.6;;;;;;;;;;;;;;-0.71877193;-0.4680929;-0.25543994;;;;;1934.6
2065.0;2017.6;;;;;;;;;;;;;;;;;-24.945066;29.248177;68.51024;;1934.6
2065.0;2017.6;;;;;;;;;;;;;;-0.7269509;-0.42182684;-0.25965148;;;;;1934.6
2065.0;2017.6;;;;;;;;;;;;;;;;;-24.807732;29.725029;72.843864;;1944.3
2065.0;2017.6;;;;;;;;;;;;;;-0.75606555;-0.40418714;-0.26618245;;;;;1944.3
2065.0;2017.6;;;;;;;;;;;;;;;;;-25.227362;30.335398;76.69683;;1944.3
2065.0;2017.6;;;;;;;;;;;;;;-0.7934202;-0.38032165;-0.27307963;;;;;1944.3
2065.0;2017.6;;;;;;;;;;;;;;;;;-25.357065;30.373547;80.2179;;1953.9
2065.0;2017.6;;;;;;;;;;;;;;-0.8451796;-0.36970124;-0.2667928;;;;;1953.9
2065.0;2017.6;;;;;;;;;;;;;;;;;-25.864437;29.728844;83.082825;;1953.9
2065.0;2017.6;;;;;;;;;;;;;;-0.88357186;-0.36664936;-0.2827235;;;;;1953.9
2065.0;2019.8;262143;262143;12975;;;;;;;;;;;;;;;;;;
2065.0;2021.4;;;;;;;;;;3.4485915;6.1609244;0.5340739;;;;;;;;;
2065.0;2021.4;;;;;;;0.78865933;-0.25708792;-0.5908384;;;;;;;;;;;;
2065.0;2021.4;;;;;;;;;;3.8644063;5.4971466;-0.5302591;;;;;;;;;
2065.0;2021.4;;;;;;;0.78182316;-0.25232702;-0.5847346;;;;;;;;;;;;
2067.0;2026.6;;;;-0.7374955;-0.020580294;-0.85180676;;;;;;;;;;;;;;;
2067.0;2026.6;;;;-0.7313691;-0.022624971;-0.8554269;;;;;;;;;;;;;;;
2067.0;2026.6;;;;-0.72666556;-0.024150852;-0.8584672;;;;;;;;;;;;;;;
2067.0;2026.6;;;;-0.72206885;-0.026496891;-0.86047375;;;;;;;;;;;;;;;
2067.0;2026.6;;;;-0.71744543;-0.028991703;-0.86207974;;;;;;;;;;;;;;;
2067.0;2030.9;;;;;;;;;;4.3565173;4.8257394;-1.6060365;;;;;;;;;
2067.0;2030.9;;;;;;;0.7759636;-0.24506363;-0.57850885;;;;;;;;;;;;
2067.0;2030.9;;;;;;;;;;4.7189245;4.0971103;-2.6512957;;;;;;;;;
2067.0;2030.9;;;;;;;0.76741844;-0.24030274;-0.57026887;;;;;;;;;;;;
2067.0;2036.6;;;;-0.7127114;-0.031448368;-0.8650819;;;;;;;;;;;;;;;
2067.0;2036.6;;;;-0.70763785;-0.03459168;-0.8677827;;;;;;;;;;;;;;;
2067.0;2036.6;;;;-0.7024804;-0.03751755;-0.8705331;;;;;;;;;;;;;;;
2067.0;2036.6;;;;-0.69756323;-0.039257053;-0.87142575;;;;;;;;;;;;;;;
2067.0;2036.6;;;;-0.6945382;-0.039916996;-0.87155545;;;;;;;;;;;;;;;
2067.0;2039.8;262143;262143;12972;;;;;;;;;;;;;;;;;;
2067.0;2040.4;;;;;;;;;;5.138554;3.4295175;-3.6584065;;;;;;;;;
2067.0;2040.4;;;;;;;0.7577746;-0.2356029;-0.55922115;;;;;;;;;;;;
2067.0;2040.4;;;;;;;;;;5.5963316;3.0022585;-4.448073;;;;;;;;;
2067.0;2040.4;;;;;;;0.7500839;-0.22547075;-0.54469436;;;;;;;;;;;;
2067.0;2045.8;;;;;;;;;;;;;-442;;;;;;;;
2067.0;2045.8;;;;;;;;;;;;;644;;;;;;;;
2067.0;2045.8;;;;;;;;;;;;;1161;;;;;;;;
2067.0;2045.8;;;;;;;;;;;;;881;;;;;;;;
2067.0;2045.8;;;;;;;;;;;;;70;;;;;;;;
2121.0;2046.7;;;;-0.69333273;-0.040290836;-0.871338;;;;;;;;;;;;;;;
2121.0;2046.7;;;;-0.69281393;-0.04079056;-0.8706361;;;;;;;;;;;;;;;
2121.0;2046.7;;;;-0.6923867;-0.041507725;-0.86846554;;;;;;;;;;;;;;;
2121.0;2046.7;;;;-0.6907769;-0.042881016;-0.8651887;;;;;;;;;;;;;;;
2121.0;2046.7;;;;-0.68835074;-0.04394913;-0.86438763;;;;;;;;;;;;;;;
2121.0;2050.0;;;;;;;;;;5.996887;2.6932585;-5.237739;;;;;;;;;
2121.0;2050.0;;;;;;;0.7426374;-0.21381268;-0.5310831;;;;;;;;;;;;
2121.0;2050.0;;;;;;;;;;6.389813;2.5635548;-6.0731835;;;;;;;;;
2121.0;2050.0;;;;;;;0.73397017;-0.20111698;-0.5178991;;;;;;;;;;;;
2121.0;2056.6;;;;-0.6842957;-0.044673923;-0.86236966;;;;;;;;;;;;;;;
2121.0;2056.6;;;;-0.678875;-0.04568482;-0.8600923;;;;;;;;;;;;;;;
2121.0;2056.6;;;;-0.6726609;-0.04589844;-0.8575517;;;;;;;;;;;;;;;
2121.0;2056.6;;;;-0.6689568;-0.046241764;-0.85398114;;;;;;;;;;;;;;;
2121.0;2056.6;;;;-0.66704947;-0.045562748;-0.8503839;;;;;;;;;;;;;;;
2121.0;2059.5;;;;;;;;;;6.8666644;2.475814;-6.839961;;;;;;;;;
2121.0;2059.5;;;;;;;0.7228004;-0.19171728;-0.5064241;;;;;;;;;;;;
2121.0;2059.5;;;;;;;;;;7.3244424;2.3499253;-7.621998;;;;;;;;;
2121.0;2059.5;;;;;;;0.7145604;-0.18182927;-0.49342325;;;;;;;;;;;;
2121.0;2059.8;262143;262143;12984;;;;;;;;;;;;;;;;;;
2124.0;2066.7;;;;-0.66481787;-0.04533005;-0.8466798;;;;;;;;;;;;;;;
2124.0;2066.7;;;;-0.66073614;-0.046112064;-0.8425256;;;;;;;;;;;;;;;
2124.0;2066.7;;;;-0.6565133;-0.047264107;-0.8380853;;;;;;;;;;;;;;;
2124.0;2066.7;;;;-0.6533509;-0.047985084;-0.8348237;;;;;;;;;;;;;;;
2124.0;2066.7;;;;-0.6525269;-0.048957832;-0.8317872;;;;;;;;;;;;;;;
2124.0;2069.1;;;;;;;;;;7.7517014;2.3194067;-8.465072;;;;;;;;;
2124.0;2069.1;;;;;;;0.7066256;-0.17114781;-0.48371837;;;;;;;;;;;;
2124.0;2069.1;;;;;;;;;;8.239998;2.3003328;-9.193701;;;;;;;;;
2124.0;2069.1;;;;;;;0.7021088;-0.16266365;-0.47810298;;;;;;;;;;;;
2124.0;2076.9;;;;;;;;;;;;;;;;;-26.596882;29.183325;85.947754;;1963.5
2124.0;2076.9;;;;;;;;;;;;;;-0.921659;-0.35975218;-0.3101291;;;;;1963.5
2124.0;2076.9;;;;;;;;;;;;;;;;;-26.974548;28.714102;88.62575;;1963.5
2124.0;2076.9;;;;;;;;;;;;;;-0.97238076;-0.35499132;-0.3246559;;;;;1963.5
2124.0;2076.9;;;;;;;;;;;;;;;;;-27.367474;27.283548;90.70483;;1973.2
2124.0;2076.9;;;;;;;;;;;;;;-1.0082705;-0.34174627;-0.3259377;;;;;1973.2
2124.0;2076.9;;;;;;;;;;;;;;;;;-27.600176;25.753807;92.59697;;1973.2
2124.0;2076.9;;;;;;;;;;;;;;-1.0380566;-0.34272286;-0.33063754;;;;;1973.2
2124.0;2076.9;;;;;;;;;;;;;;;;;-27.95114;24.277475;93.66131;;1982.8
2124.0;2076.9;;;;;;;;;;;;;;-1.0526444;-0.35627308;-0.3411359;;;;;1982.8
2124.0;2076.9;;;;;;;;;;;;;;;;;-27.905361;23.049105;93.70327;;1982.8
2124.0;2076.9;;;;;;;;;;;;;;-1.0649129;-0.35273293;-0.33259073;;;;;1982.8
2126.0;2076.7;;;;-0.6532212;-0.049350746;-0.8285676;;;;;;;;;;;;;;;
2126.0;2076.7;;;;-0.65359503;-0.049388893;-0.8250276;;;;;;;;;;;;;;;
2126.0;2076.7;;;;-0.65323645;-0.049518593;-0.82196057;;;;;;;;;;;;;;;
2126.0;2076.7;;;;-0.6509705;-0.049221046;-0.81850445;;;;;;;;;;;;;;;
2126.0;2076.7;;;;-0.64645773;-0.049198158;-0.81515896;;;;;;;;;;;;;;;
2126.0;2078.0;;;;;;;;;;;;;;;;;-27.26066;22.240362;92.61986;;1992.3
2126.0;2078.0;;;;;;;;;;;;;;-1.07828;-0.3670156;-0.3249611;;;;;1992.3
2126.0;2078.0;;;;;;;;;;;;;;;;;-26.169622;21.645254;90.777306;;1992.3
2126.0;2078.0;;;;;;;;;;;;;;-1.07181;-0.38380077;-0.32673118;;;;;1992.3
2126.0;2078.0;;;;;;;;;;;;;;;;;-24.346142;21.557512;88.6143;;2001.9
2126.0;2078.0;;;;;;;;;;;;;;-1.0746788;-0.40937528;-0.32026124;;;;;2001.9
2126.0;2078.0;;;;;;;;;;;;;;;;;-22.003847;21.885588;85.75701;;2001.9
2126.0;2078.0;;;;;;;;;;;;;;-1.0782189;-0.40943632;-0.31727043;;;;;2001.9
2126.0;2078.0;;;;;;;;;;;;;;;;;-19.459366;21.607105;82.52968;;2011.6
2126.0;2078.0;;;;;;;;;;;;;;-1.0628376;-0.4128544;-0.31104466;;;;;2011.6
2126.0;2078.0;;;;;;;;;;;;;;;;;-16.769922;21.450697;79.40153;;2011.6
2126.0;2078.0;;;;;;;;;;;;;;-1.0483108;-0.42036194;-0.30146185;;;;;2011.6
2126.0;2078.5;;;;;;;;;;8.762627;2.3270364;-9.9147005;;;;;;;;;
2126.0;2078.5;;;;;;;0.69820243;-0.15424055;-0.47230446;;;;;;;;;;;;
2126.0;2078.5;;;;;;;;;;9.31959;2.2011476;-10.597552;;;;;;;;;
2126.0;2078.5;;;;;;;0.6933195;-0.14557329;-0.46803185;;;;;;;;;;;;
2126.0;2079.8;262143;262143;12985;;;;;;;;;;;;;;;;;;
2128.0;2085.9;;;;;;;;;;;;;-141;;;;;;;;
2128.0;2085.9;;;;;;;;;;;;;1444;;;;;;;;
2128.0;2085.9;;;;;;;;;;;;;4473;;;;;;;;
2128.0;2085.9;;;;;;;;;;;;;3695;;;;;;;;
2128.0;2085.9;;;;;;;;;;;;;-7330;;;;;;;;
2128.0;2086.7;;;;-0.63997275;-0.048927315;-0.8113481;;;;;;;;;;;;;;;
2128.0;2086.7;;;;-0.63332754;-0.048797615;-0.8087312;;;;;;;;;;;;;;;
2128.0;2086.7;;;;-0.6263581;-0.04831315;-0.80643094;;;;;;;;;;;;;;;
2128.0;2086.7;;;;-0.6201325;-0.048172005;-0.8031846;;;;;;;;;;;;;;;
2128.0;2086.7;;;;-0.6138001;-0.047401436;-0.799389;;;;;;;;;;;;;;;
2128.0;2088.1;;;;;;;;;;9.777367;1.9112216;-11.3986635;;;;;;;;;
2128.0;2088.1;;;;;;;0.68745995;-0.13885921;-0.4655904;;;;;;;;;;;;
2128.0;2088.1;;;;;;;;;;10.269479;1.3275552;-11.9747;;;;;;;;;
2128.0;2088.1;;;;;;;0.6850185;-0.13293862;-0.4640034;;;;;;;;;;;;
2128.0;2091.9;;;;;;;;;;;;;;;;;-14.267404;21.122623;76.40309;;2021.2
2128.0;2091.9;;;;;;;;;;;;;;-1.0307322;-0.43653676;-0.27954954;;;;;2021.2
2128.0;2091.9;;;;;;;;;;;;;;;;;-11.574144;20.531326;73.63735;;2021.2
2128.0;2091.9;;;;;;;;;;;;;;-1.0014343;-0.4513077;-0.24787134;;;;;2021.2
2128.0;2091.9;;;;;;;;;;;;;;;;;-9.487442;19.932402;70.85253;;2030.9
2128.0;2091.9;;;;;;;;;;;;;;-0.9615772;-0.44380015;-0.2252266;;;;;2030.9
2128.0;2091.9;;;;;;;;;;;;;;;;;-8.060701;19.432661;68.61705;;2030.9
2128.0;2091.9;;;;;;;;;;;;;;-0.9165929;-0.4312876;-0.21478927;;;;;2030.9
2128.0;2091.9;;;;;;;;;;;;;;;;;-7.549516;19.573809;66.87369;;2040.4
2128.0;2091.9;;;;;;;;;;;;;;-0.88778347;-0.40705588;-0.21228676;;;;;2040.4
2128.0;2091.9;;;;;;;;;;;;;;;;;-7.37785;19.821772;65.93906;;2040.4
2128.0;2091.9;;;;;;;;;;;;;;-0.8577532;-0.3882565;-0.21668142;;;;;2040.4
2181.0;2096.7;;;;-0.607956;-0.04640961;-0.7955018;;;;;;;;;;;;;;;
2181.0;2096.7;;;;-0.6022149;-0.04541779;-0.7916757;;;;;;;;;;;;;;;
2181.0;2096.7;;;;-0.5981713;-0.044933323;-0.78759015;;;;;;;;;;;;;;;
2181.0;2096.7;;;;-0.59484106;-0.043670658;-0.78442395;;;;;;;;;;;;;;;
2181.0;2096.7;;;;-0.5928803;-0.042865757;-0.78081906;;;;;;;;;;;;;;;
2181.0;2097.6;;;;;;;;;;10.670034;0.7553331;-12.489699;;;;;;;;;
2181.0;2097.6;;;;;;;0.6812342;-0.1246376;-0.4671163;;;;;;;;;;;;
2181.0;2097.6;;;;;;;;;;11.051516;0.27085176;-13.035218;;;;;;;;;
2181.0;2097.6;;;;;;;0.67659533;-0.1208533;-0.469924;;;;;;;;;;;;
2181.0;2100.0;262143;262143;12989;;;;;;;;;;;;;;;;;;
2181.0;2106.5;;;;-0.59141546;-0.042610172;-0.77684414;;;;;;;;;;;;;;;
2181.0;2106.5;;;;-0.589737;-0.042823795;-0.77302945;;;;;;;;;;;;;;;
2181.0;2106.5;;;;-0.58811575;-0.043304447;-0.7704164;;;;;;;;;;;;;;;
2181.0;2106.5;;;;-0.58637625;-0.04362488;-0.7670175;;;;;;;;;;;;;;;
2181.0;2106.5;;;;-0.5841637;-0.043693546;-0.76401913;;;;;;;;;;;;;;;
2181.0;2106.9;;;;;;;;;;11.345256;-0.43488875;-13.447219;;;;;;;;;
2181.0;2106.9;;;;;;;0.6704306;-0.11517686;-0.47474593;;;;;;;;;;;;
2181.0;2106.9;;;;;;;;;;11.757256;-1.3199255;-13.668478;;;;;;;;;
2181.0;2106.9;;;;;;;0.66158026;-0.1076693;-0.4730369;;;;;;;;;;;;
2181.0;2116.4;;;;;;;;;;11.978516;-2.1248512;-13.859218;;;;;;;;;
2181.0;2116.4;;;;;;;0.6587115;-0.10254219;-0.4730369;;;;;;;;;;;;
2181.0;2116.4;;;;;;;;;;12.112034;-2.9335918;-14.156774;;;;;;;;;
2181.0;2116.4;;;;;;;0.6603595;-0.09698782;-0.4720603;;;;;;;;;;;;
2183.0;2116.5;;;;-0.5804139;-0.04356766;-0.7610513;;;;;;;;;;;;;;;
2183.0;2116.5;;;;-0.5761605;-0.042915348;-0.7581941;;;;;;;;;;;;;;;
2183.0;2116.5;;;;-0.57163244;-0.04174805;-0.7552835;;;;;;;;;;;;;;;
2183.0;2116.5;;;;-0.56880957;-0.041175846;-0.7528535;;;;;;;;;;;;;;;
2183.0;2116.5;;;;-0.56644446;-0.040134434;-0.7504693;;;;;;;;;;;;;;;
2183.0;2119.8;262143;262143;12961;;;;;;;;;;;;;;;;;;
2183.0;2125.9;;;;;;;;;;;;;-23988;;;;;;;;
2183.0;2125.9;;;;;;;;;;;;;-31532;;;;;;;;
2183.0;2125.9;;;;;;;;;;;;;-22318;;;;;;;;
2183.0;2125.9;;;;;;;;;;;;;-5376;;;;;;;;
2183.0;2125.9;;;;;;;;;;;;;5100;;;;;;;;
2183.0;2126.0;;;;;;;;;;12.249367;-3.6698508;-14.408551;;;;;;;;;
2183.0;2126.0;;;;;;;0.6524857;-0.09295938;-0.47328106;;;;;;;;;;;;
2183.0;2126.0;;;;;;;;;;12.424848;-4.50148;-14.316996;;;;;;;;;
2183.0;2126.0;;;;;;;0.6518754;-0.084109016;-0.46919155;;;;;;;;;;;;
2183.0;2126.6;;;;-0.56423956;-0.040344242;-0.74789053;;;;;;;;;;;;;;;
2183.0;2126.6;;;;-0.5608826;-0.04012299;-0.74480444;;;;;;;;;;;;;;;
2183.0;2126.6;;;;-0.55686194;-0.040336613;-0.7416344;;;;;;;;;;;;;;;
2183.0;2126.6;;;;-0.55253226;-0.04030991;-0.7381936;;;;;;;;;;;;;;;
2183.0;2126.6;;;;-0.5458031;-0.039527897;-0.7350159;;;;;;;;;;;;;;;
2183.0;2135.6;;;;;;;;;;12.436293;-5.180517;-14.271218;;;;;;;;;
2183.0;2135.6;;;;;;;0.64803004;-0.07702872;-0.46888638;;;;;;;;;;;;
2183.0;2135.6;;;;;;;;;;12.409589;-5.9930725;-14.210181;;;;;;;;;
2183.0;2135.6;;;;;;;0.64638203;-0.071413316;-0.46784875;;;;;;;;;;;;
2185.0;2136.9;;;;;;;;;;;;;;;;;-7.122257;19.894253;66.16413;;2050.1
2185.0;2136.9;;;;;;;;;;;;;;-0.83797723;-0.3658559;-0.2080752;;;;;2050.1
2185.0;2136.9;;;;;;;;;;;;;;;;;-7.255776;20.05829;67.0568;;2050.1
2185.0;2136.9;;;;;;;;;;;;;;-0.8363292;-0.35084078;-0.17804499;;;;;2050.1
2185.0;2136.9;;;;;;;;;;;;;;;;;-7.797479;20.004883;68.49498;;2059.6
2185.0;2136.9;;;;;;;;;;;;;;-0.83755;-0.35651723;-0.15668203;;;;;2059.6
2185.0;2136.9;;;;;;;;;;;;;;;;;-8.270516;19.974363;70.07431;;2059.6
2185.0;2136.9;;;;;;;;;;;;;;-0.83040863;-0.33716848;-0.15973388;;;;;2059.6
2185.0;2136.9;;;;;;;;;;;;;;;;;-8.331553;19.821772;71.836754;;2069.3
2185.0;2136.9;;;;;;;;;;;;;;-0.8274789;-0.30738243;-0.1530198;;;;;2069.3
2185.0;2136.9;;;;;;;;;;;;;;;;;-8.40785;19.52803;73.68694;;2069.3
2185.0;2136.9;;;;;;;;;;;;;;-0.83602405;-0.26477858;-0.15375225;;;;;2069.3
2185.0;2136.7;;;;-0.53895193;-0.038383488;-0.7316819;;;;;;;;;;;;;;;
2185.0;2136.7;;;;-0.53358847;-0.037204746;-0.7275849;;;;;;;;;;;;;;;
2185.0;2136.7;;;;-0.53049475;-0.036796574;-0.724022;;;;;;;;;;;;;;;
2185.0;2136.7;;;;-0.5279084;-0.036247257;-0.71984106;;;;;;;;;;;;;;;
2185.0;2136.7;;;;-0.52519995;-0.035911564;-0.71653754;;;;;;;;;;;;;;;
2185.0;2139.9;262143;262143;12955;;;;;;;;;;;;;;;;;;
2185.0;2145.1;;;;;;;;;;12.295145;-6.7293315;-14.042329;;;;;;;;;
2185.0;2145.1;;;;;;;0.64314705;-0.06714072;-0.46278268;;;;;;;;;;;;
2185.0;2145.1;;;;;;;;;;12.157811;-7.507553;-14.007996;;;;;;;;;
2185.0;2145.1;;;;;;;0.641377;-0.06524857;-0.45881528;;;;;;;;;;;;
2186.0;2146.7;;;;-0.5220147;-0.036212925;-0.71326834;;;;;;;;;;;;;;;
2186.0;2146.7;;;;-0.5188752;-0.036487583;-0.7104798;;;;;;;;;;;;;;;
2186.0;2146.7;;;;-0.51728064;-0.03634644;-0.7076722;;;;;;;;;;;;;;;
2186.0;2146.7;;;;-0.5152207;-0.036239628;-0.70485693;;;;;;;;;;;;;;;
2186.0;2146.7;;;;-0.5092202;-0.035991672;-0.7038842;;;;;;;;;;;;;;;
2186.0;2154.6;;;;;;;;;;11.98233;-8.064516;-13.893551;;;;;;;;;
2186.0;2154.6;;;;;;;0.643086;-0.05999939;-0.45411542;;;;;;;;;;;;
2186.0;2154.6;;;;;;;;;;11.741997;-8.545182;-13.7867365;;;;;;;;;
2186.0;2154.6;;;;;;;0.64876246;-0.056154057;-0.45197913;;;;;;;;;;;;
2186.0;2156.6;;;;-0.503151;-0.034873966;-0.70096976;;;;;;;;;;;;;;;
2186.0;2156.6;;;;-0.49959952;-0.03450394;-0.6974755;;;;;;;;;;;;;;;
2186.0;2156.6;;;;-0.49797446;-0.033996586;-0.69432074;;;;;;;;;;;;;;;
2186.0;2156.6;;;;-0.49643332;-0.033988956;-0.6917344;;;;;;;;;;;;;;;
2186.0;2156.6;;;;-0.49482733;-0.034061436;-0.6898957;;;;;;;;;;;;;;;
2186.0;2160.0;262143;262143;12946;;;;;;;;;;;;;;;;;;
2186.0;2164.2;;;;;;;;;;11.486403;-8.964812;-13.81344;;;;;;;;;
2186.0;2164.2;;;;;;;0.6494339;-0.052491836;-0.44843897;;;;;;;;;;;;
2186.0;2164.2;;;;;;;;;;11.120181;-9.205146;-13.8859215;;;;;;;;;
2186.0;2164.2;;;;;;;0.6471755;-0.04834132;-0.44257942;;;;;;;;;;;;
2186.0;2166.0;;;;;;;;;;;;;5731;;;;;;;;
2186.0;2166.0;;;;;;;;;;;;;3293;;;;;;;;
2186.0;2166.0;;;;;;;;;;;;;3092;;;;;;;;
2186.0;2166.0;;;;;;;;;;;;;3651;;;;;;;;
2186.0;2166.0;;;;;;;;;;;;;2954;;;;;;;;
2242.0;2166.7;;;;-0.4933663;-0.034160618;-0.68643194;;;;;;;;;;;;;;;
2242.0;2166.7;;;;-0.49114996;-0.033924107;-0.6838456;;;;;;;;;;;;;;;
2242.0;2166.7;;;;-0.4868508;-0.0334549;-0.6818543;;;;;;;;;;;;;;;
2242.0;2166.7;;;;-0.48250586;-0.032802586;-0.67937094;;;;;;;;;;;;;;;
2242.0;2166.7;;;;-0.4808808;-0.03198624;-0.6757851;;;;;;;;;;;;;;;
2242.0;2173.4;;;;;;;;;;10.689108;-9.498886;-13.912625;;;;;;;;;
2242.0;2173.4;;;;;;;0.64625996;-0.041932434;-0.43574327;;;;;;;;;;;;
2242.0;2173.4;;;;;;;;;;10.196997;-9.594256;-14.007996;;;;;;;;;
2242.0;2173.4;;;;;;;0.64192635;-0.036744285;-0.43098238;;;;;;;;;;;;
2242.0;2176.5;;;;-0.48135763;-0.031257633;-0.67215353;;;;;;;;;;;;;;;
2242.0;2176.5;;;;-0.481968;-0.03092194;-0.66826254;;;;;;;;;;;;;;;
2242.0;2176.5;;;;-0.48117834;-0.030578617;-0.66509634;;;;;;;;;;;;;;;
2242.0;2176.5;;;;-0.47853476;-0.030494694;-0.6624375;;;;;;;;;;;;;;;
2242.0;2176.5;;;;-0.47628027;-0.030033115;-0.6602631;;;;;;;;;;;;;;;
2242.0;2179.9;262143;262143;12931;;;;;;;;;;;;;;;;;;
2242.0;2183.1;;;;;;;;;;9.674368;-9.81933;-13.82107;;;;;;;;;
2242.0;2183.1;;;;;;;0.6445509;-0.032532733;-0.423719;;;;;;;;;;;;
2242.0;2183.1;;;;;;;;;;9.125034;-9.723961;-13.935514;;;;;;;;;
2242.0;2183.1;;;;;;;0.643025;-0.028138066;-0.4135258;;;;;;;;;;;;
2243.0;2186.6;;;;-0.4749108;-0.029796604;-0.6582795;;;;;;;;;;;;;;;
2243.0;2186.6;;;;-0.47476584;-0.0290947;-0.6569329;;;;;;;;;;;;;;;
2243.0;2186.6;;;;-0.4757195;-0.02833939;-0.65422446;;;;;;;;;;;;;;;
2243.0;2186.6;;;;-0.47602087;-0.027637485;-0.65253836;;;;;;;;;;;;;;;
2243.0;2186.6;;;;-0.47708517;-0.026897434;-0.65011984;;;;;;;;;;;;;;;
2243.0;2192.7;;;;;;;;;;8.50322;-9.521775;-14.13007;;;;;;;;;
2243.0;2192.7;;;;;;;0.64394057;-0.02435377;-0.40656757;;;;;;;;;;;;
2243.0;2192.7;;;;;;;;;;7.904294;-9.083072;-14.217811;;;;;;;;;
2243.0;2192.7;;;;;;;0.6456496;-0.02026429;-0.40046388;;;;;;;;;;;;
2243.0;2196.6;;;;-0.4780274;-0.025653843;-0.6475411;;;;;;;;;;;;;;;
2243.0;2196.6;;;;-0.4791718;-0.02493668;-0.6449624;;;;;;;;;;;;;;;
2243.0;2196.6;;;;-0.48078924;-0.023975376;-0.6433602;;;;;;;;;;;;;;;
2243.0;2196.6;;;;-0.48289114;-0.022750856;-0.64202124;;;;;;;;;;;;;;;
2243.0;2196.6;;;;-0.4853974;-0.022087099;-0.6403008;;;;;;;;;;;;;;;
2244.0;2197.0;;;;;;;;;;;;;;;;;-8.510849;18.528551;75.86902;;2078.8
2244.0;2197.0;;;;;;;;;;;;;;-0.8413343;-0.24213386;-0.1462447;;;;;2078.8
2244.0;2197.0;;;;;;;;;;;;;;;;;-9.281442;17.410809;77.822205;;2078.8
2244.0;2197.0;;;;;;;;;;;;;;-0.84902495;-0.21509446;-0.14972381;;;;;2078.8
2244.0;2197.0;;;;;;;;;;;;;;;;;-10.708182;16.239662;79.88601;;2088.5
2244.0;2197.0;;;;;;;;;;;;;;-0.84902495;-0.21350749;-0.16730247;;;;;2088.5
2244.0;2197.0;;;;;;;;;;;;;;;;;-12.321849;15.0112915;81.82012;;2088.5
2244.0;2197.0;;;;;;;;;;;;;;-0.85860777;-0.20752586;-0.16986603;;;;;2088.5
2244.0;2197.0;;;;;;;;;;;;;;;;;-14.0957365;13.859218;83.311714;;2098.0
2244.0;2197.0;;;;;;;;;;;;;;-0.8631245;-0.20093387;-0.16156499;;;;;2098.0
2244.0;2197.0;;;;;;;;;;;;;;;;;-15.659811;12.874996;84.78042;;2098.0
2244.0;2197.0;;;;;;;;;;;;;;-0.8559221;-0.19458602;-0.16626485;;;;;2098.0
2244.0;2197.8;;;;;;;;;;;;;;;;;-17.635883;12.459181;85.79516;;2107.7
2244.0;2197.8;;;;;;;;;;;;;;-0.8570208;-0.1246376;-0.1777398;;;;;2107.7
2244.0;2197.8;;;;;;;;;;;;;;;;;-21.763514;11.921293;86.02786;;2107.7
2244.0;2197.8;;;;;;;;;;;;;;-0.8644063;-0.10492264;-0.18573564;;;;;2107.7
2244.0;2197.8;;;;;;;;;;;;;;;;;-23.792994;10.731071;87.42027;;2117.3
2244.0;2197.8;;;;;;;;;;;;;;-0.88338876;-0.13202307;-0.16217536;;;;;2117.3
2244.0;2197.8;;;;;;;;;;;;;;;;;-24.037142;8.30485;88.19468;;2117.3
2244.0;2197.8;;;;;;;;;;;;;;-0.88772243;-0.18958098;-0.16357921;;;;;2117.3
2244.0;2197.8;;;;;;;;;;;;;;;;;-24.128696;6.0579243;87.7865;;2127.0
2244.0;2197.8;;;;;;;;;;;;;;-0.86013365;-0.17493209;-0.1854915;;;;;2127.0
2244.0;2197.8;;;;;;;;;;;;;;;;;-25.0824;6.34785;87.30965;;2127.0
2244.0;2197.8;;;;;;;;;;;;;;-0.88534194;-0.18085268;-0.16663106;;;;;2127.0
2245.0;2200.0;262143;262143;12931;;;;;;;;;;;;;;;;;;
2245.0;2202.2;;;;;;;;;;7.2443314;-8.808405;-14.477218;;;;;;;;;
2245.0;2202.2;;;;;;;0.6471755;-0.014709922;-0.3932005;;;;;;;;;;;;
2245.0;2202.2;;;;;;;;;;6.599628;-8.362072;-14.889218;;;;;;;;;
2245.0;2202.2;;;;;;;0.64113283;-0.008667257;-0.3872799;;;;;;;;;;;;
2245.0;2206.1;;;;;;;;;;;;;2163;;;;;;;;
2245.0;2206.1;;;;;;;;;;;;;1750;;;;;;;;
2245.0;2206.1;;;;;;;;;;;;;1379;;;;;;;;
2245.0;2206.1;;;;;;;;;;;;;1019;;;;;;;;
2245.0;2206.1;;;;;;;;;;;;;491;;;;;;;;
2245.0;2206.6;;;;-0.48745733;-0.021522524;-0.6386376;;;;;;;;;;;;;;;
2245.0;2206.6;;;;-0.48847204;-0.021179201;-0.63628775;;;;;;;;;;;;;;;
2245.0;2206.6;;;;-0.488617;-0.021213533;-0.63353735;;;;;;;;;;;;;;;
2245.0;2206.6;;;;-0.48867422;-0.020915987;-0.6314774;;;;;;;;;;;;;;;
2245.0;2206.6;;;;-0.48893744;-0.020828249;-0.62931067;;;;;;;;;;;;;;;
2245.0;2211.7;;;;;;;;;;5.9930725;-7.980591;-15.007477;;;;;;;;;
2245.0;2211.7;;;;;;;0.6369213;-0.0049439985;-0.3813593;;;;;;;;;;;;
2245.0;2211.7;;;;;;;;;;5.413221;-7.5838494;-14.9616995;;;;;;;;;
2245.0;2211.7;;;;;;;0.6377148;0.0041505173;-0.37842953;;;;;;;;;;;;
2246.0;2212.3;;;;;;;;;;;;;;;;;-26.417585;5.512406;86.55431;;2136.6
2246.0;2212.3;;;;;;;;;;;;;;-0.87166965;-0.1723075;-0.1688284;;;;;2136.6
2246.0;2212.3;;;;;;;;;;;;;;;;;-26.547289;4.642628;86.83661;;2136.6
2246.0;2212.3;;;;;;;;;;;;;;-0.8789941;-0.25959045;-0.17682424;;;;;2136.6
2246.0;2212.3;;;;;;;;;;;;;;;;;-24.967955;3.3913696;86.653496;;2146.3
2246.0;2212.3;;;;;;;;;;;;;;-0.9045076;-0.21613209;-0.18213446;;;;;2146.3
2246.0;2212.3;;;;;;;;;;;;;;;;;-23.792994;0.96133304;83.42235;;2146.3
2246.0;2212.3;;;;;;;;;;;;;;-0.8617206;-0.20343639;-0.18164617;;;;;2146.3
2246.0;2212.3;;;;;;;;;;;;;;;;;-21.526995;-0.48066652;81.175415;;2155.9
2246.0;2212.3;;;;;;;;;;;;;;-0.849147;-0.22382274;-0.17340617;;;;;2155.9
2246.0;2212.3;;;;;;;;;;;;;;;;;-18.791773;-2.0485551;79.59227;;2155.9
2246.0;2212.3;;;;;;;;;;;;;;-0.8385876;-0.25782037;-0.1739555;;;;;2155.9
2246.0;2216.5;;;;-0.48954397;-0.020801546;-0.6266671;;;;;;;;;;;;;;;
2246.0;2216.5;;;;-0.49016958;-0.020595552;-0.6251603;;;;;;;;;;;;;;;
2246.0;2216.5;;;;-0.49128348;-0.020416262;-0.6246224;;;;;;;;;;;;;;;
2246.0;2216.5;;;;-0.49245077;-0.019981386;-0.624836;;;;;;;;;;;;;;;
2246.0;2216.5;;;;-0.49294287;-0.019416811;-0.6231156;;;;;;;;;;;;;;;
2246.0;2220.0;262143;262143;12932;;;;;;;;;;;;;;;;;;
2246.0;2221.1;;;;;;;;;;4.9058504;-7.087924;-15.053254;;;;;;;;;
2246.0;2221.1;;;;;;;0.6319163;0.009887997;-0.38038272;;;;;;;;;;;;
2246.0;2221.1;;;;;;;;;;4.4785914;-6.76748;-15.0112915;;;;;;;;;
2246.0;2221.1;;;;;;;0.6352733;0.014343699;-0.38294625;;;;;;;;;;;;
2300.0;2226.6;;;;-0.4930268;-0.018699648;-0.62043387;;;;;;;;;;;;;;;
2300.0;2226.6;;;;-0.49280936;-0.017761232;-0.61881644;;;;;;;;;;;;;;;
2300.0;2226.6;;;;-0.49303824;-0.016445162;-0.618023;;;;;;;;;;;;;;;
2300.0;2226.6;;;;-0.49288565;-0.015392305;-0.6174355;;;;;;;;;;;;;;;
2300.0;2226.6;;;;-0.4930001;-0.014400484;-0.61526114;;;;;;;;;;;;;;;
2300.0;2230.6;;;;;;;;;;4.055147;-6.4851832;-14.976958;;;;;;;;;
2300.0;2230.6;;;;;;;0.6378369;0.018372143;-0.38361767;;;;;;;;;;;;
2300.0;2230.6;;;;;;;;;;3.5706656;-6.065554;-15.030366;;;;;;;;;
2300.0;2230.6;;;;;;;0.63753164;0.020996734;-0.38850063;;;;;;;;;;;;
2300.0;2236.5;;;;-0.49275595;-0.0137519855;-0.61334616;;;;;;;;;;;;;;;
2300.0;2236.5;;;;-0.49246222;-0.01293564;-0.61201483;;;;;;;;;;;;;;;
2300.0;2236.5;;;;-0.49272925;-0.012207033;-0.6117402;;;;;;;;;;;;;;;
2300.0;2236.5;;;;-0.49322134;-0.011779787;-0.61009985;;;;;;;;;;;;;;;
2300.0;2236.5;;;;-0.49373633;-0.011322022;-0.6074448;;;;;;;;;;;;;;;
2300.0;2240.2;;;;;;;;;;2.994629;-5.7184057;-14.881589;;;;;;;;;
2300.0;2240.2;;;;;;;0.6341136;0.023255104;-0.3935667;;;;;;;;;;;;
2300.0;2240.2;;;;;;;;;;2.578814;-5.367443;-14.587848;;;;;;;;;
2300.0;2240.2;;;;;;;0.63435775;0.025879696;-0.39265114;;;;;;;;;;;;
2300.0;2240.1;262143;262143;12929;;;;;;;;;;;;;;;;;;
2300.0;2246.1;;;;;;;;;;;;;-99;;;;;;;;
2300.0;2246.1;;;;;;;;;;;;;-800;;;;;;;;
2300.0;2246.1;;;;;;;;;;;;;-1708;;;;;;;;
2300.0;2246.1;;;;;;;;;;;;;-2611;;;;;;;;
2300.0;2246.1;;;;;;;;;;;;;-3377;;;;;;;;
2302.0;2246.6;;;;-0.49340063;-0.01078415;-0.6076432;;;;;;;;;;;;;;;
2302.0;2246.6;;;;-0.49306875;-0.010204316;-0.6087876;;;;;;;;;;;;;;;
2302.0;2246.6;;;;-0.49355322;-0.009513856;-0.6077042;;;;;;;;;;;;;;;
2302.0;2246.6;;;;-0.49441153;-0.008274079;-0.6077538;;;;;;;;;;;;;;;
2302.0;2246.6;;;;-0.49563223;-0.0071525583;-0.6073037;;;;;;;;;;;;;;;
2302.0;2249.8;;;;;;;;;;2.1095922;-4.6807766;-14.328441;;;;;;;;;
2302.0;2249.8;;;;;;;0.6340526;0.029358806;-0.39667958;;;;;;;;;;;;
2302.0;2249.8;;;;;;;;;;1.5411848;-4.0284433;-14.004181;;;;;;;;;
2302.0;2249.8;;;;;;;0.63734853;0.032044437;-0.40241706;;;;;;;;;;;;
2302.0;2256.7;;;;-0.49673468;-0.006175996;-0.60654074;;;;;;;;;;;;;;;
2302.0;2256.7;;;;-0.49792486;-0.005084992;-0.6080895;;;;;;;;;;;;;;;
2302.0;2256.7;;;;-0.4990235;-0.0045242314;-0.6088334;;;;;;;;;;;;;;;
2302.0;2256.7;;;;-0.49973685;-0.003986359;-0.6096764;;;;;;;;;;;;;;;
2302.0;2256.7;;;;-0.49956137;-0.0033340459;-0.60923773;;;;;;;;;;;;;;;
2303.0;2257.2;;;;;;;;;;;;;;;;;-16.319773;-2.910703;77.429276;;2165.5
2303.0;2257.2;;;;;;;;;;;;;;-0.81905574;-0.24884793;-0.17505418;;;;;2165.5
2303.0;2257.2;;;;;;;;;;;;;;;;;-14.973144;-2.4796288;74.6292;;2165.5
2303.0;2257.2;;;;;;;;;;;;;;-0.80434585;-0.24097416;-0.18048647;;;;;2165.5
2303.0;2257.2;;;;;;;;;;;;;;;;;-13.569293;-1.9646292;72.18391;;2175.1
2303.0;2257.2;;;;;;;;;;;;;;-0.7961669;-0.2200995;-0.19238868;;;;;2175.1
2303.0;2257.2;;;;;;;;;;;;;;;;;-11.314737;-1.9150364;70.085754;;2175.1
2303.0;2257.2;;;;;;;;;;;;;;-0.78939176;-0.2151555;-0.21234779;;;;;2175.1
