patientId;holterMac;flexMac;;;;;;;;;;;;;;;;;;;;
;CA:F3:0B:1E:33:78;D3:4A:5C:52:80:78;;;;;;;;;;;;;;;;;;;;
receivedTimeStamp;timeStamp;red;ir;green;adxl_accX;adxl_accY;adxl_accZ;lsm_accelX;lsm_accelY;lsm_accelZ;lsm_gyroX;lsm_gyroY;lsm_gyroZ;ecg;flex_lsm_accelX;flex_lsm_accelY;flex_lsm_accelZ;flex_lsm_gyroX;flex_lsm_gyroY;flex_lsm_gyroZ;flex_cmd;flexTimeStamp
283.0;222.2;;;;;;;;;;;;;;;;;;;;17;0.1
283.0;222.2;;;;;;;;;;;;;;;;;13.451034;-0.1411481;0.8545183;;127.5
283.0;222.2;;;;;;;;;;;;;;0.95773184;0.042725913;-0.0380871;;;;;127.5
283.0;222.2;;;;;;;;;;;;;;;;;-5.603961;-18.185217;-6.3058867;;127.5
283.0;222.2;;;;;;;;;;;;;;0.99325544;0.044679098;-0.0369274;;;;;127.5
283.0;222.2;;;;;;;;;;;;;;;;;-64.75265;-84.35698;-61.555832;;137.1
283.0;222.2;;;;;;;;;;;;;;0.9951476;0.044923246;-0.03460799;;;;;137.1
283.0;222.2;;;;;;;;;;;;;;;;;-122.46315;-124.988556;-120.12848;;137.1
283.0;222.2;;;;;;;;;;;;;;0.9953917;0.047791988;-0.03381451;;;;;137.1
356.0;228.5;;;;;;;;;;;;;;;;;-60.66698;-124.70626;-77.829834;;146.7
356.0;228.5;;;;;;;;;;;;;;0.99905396;0.0507828;-0.028138066;;;;;146.7
356.0;228.5;;;;;;;;;;;;;;;;;2.887814;-123.996704;-30.70162;;146.7
356.0;228.5;;;;;;;;;;;;;;1.0017395;0.05487228;-0.027527696;;;;;146.7
356.0;228.5;;;;;;;;;;;;;;;;;-2.0409255;-92.80297;-22.835474;;156.4
356.0;228.5;;;;;;;;;;;;;;1.0058901;0.05774102;-0.029419843;;;;;156.4
356.0;228.5;;;;;;;;;;;;;;;;;-9.00296;0.59892577;1.6518143;;156.4
356.0;228.5;;;;;;;;;;;;;;1.0054628;0.06079287;-0.031067843;;;;;156.4
356.0;228.5;;;;;;;;;;;;;;;;;-9.041108;8.556626;3.3494065;;166.0
356.0;228.5;;;;;;;;;;;;;;1.0015564;0.06146428;-0.03357036;;;;;166.0
356.0;228.5;;;;;;;;;;;;;;;;;-8.255258;8.972442;3.1586657;;166.0
356.0;228.5;;;;;;;;;;;;;;0.9994812;0.06433302;-0.0369274;;;;;166.0
356.0;281.4;;;;;;;;;;;;;;;;;-7.5228124;9.258553;3.3036287;;175.4
356.0;281.4;;;;;;;;;;;;;;0.99575794;0.066652425;-0.036561176;;;;;175.4
356.0;281.4;;;;;;;;;;;;;;;;;-6.805628;9.277627;2.9335918;;175.4
356.0;281.4;;;;;;;;;;;;;;0.9899594;0.06756798;-0.035584584;;;;;175.4
356.0;281.4;;;;;;;;;;;;;;;;;-6.344035;9.331035;2.784814;;185.0
356.0;281.4;;;;;;;;;;;;;;0.98532057;0.06836146;-0.034730066;;;;;185.0
356.0;281.4;;;;;;;;;;;;;;;;;-5.878628;9.399701;2.784814;;185.0
356.0;281.4;;;;;;;;;;;;;;0.9808649;0.06811731;-0.0314951;;;;;185.0
356.0;281.4;;;;;;;;;;;;;;;;;-5.4780726;9.376812;2.5635548;;194.7
356.0;281.4;;;;;;;;;;;;;;0.9767754;0.069765314;-0.026734214;;;;;194.7
356.0;281.4;;;;;;;;;;;;;;;;;-5.348369;9.392072;2.5521104;;194.7
356.0;281.4;;;;;;;;;;;;;;0.97555465;0.06915494;-0.02130192;;;;;194.7
407.0;288.8;;;;;;;;;;;;;;;;;-5.3025913;9.350108;2.494888;;204.3
407.0;288.8;;;;;;;;;;;;;;0.97579885;0.0695822;-0.01574755;;;;;204.3
407.0;288.8;;;;;;;;;;;;;;;;;-5.455184;9.437849;2.315592;;204.3
407.0;288.8;;;;;;;;;;;;;;0.9774468;0.06921598;-0.009399701;;;;;204.3
407.0;288.8;;;;;;;;;;;;;;;;;-5.7412944;9.628591;2.1782587;;214.0
407.0;288.8;;;;;;;;;;;;;;0.9789117;0.06799524;-0.006042665;;;;;214.0
407.0;288.8;;;;;;;;;;;;;;;;;-6.004517;9.956663;2.0981476;;214.0
407.0;288.8;;;;;;;;;;;;;;0.9792169;0.06769005;-0.0017700735;;;;;214.0
407.0;288.8;;;;;;;;;;;;;;;;;-6.405072;10.258034;1.8959624;;223.6
407.0;288.8;;;;;;;;;;;;;;0.981048;0.06805628;7.324442E-4;;;;;223.6
407.0;288.8;;;;;;;;;;;;;;;;;-6.672109;10.471663;1.6747032;;223.6
407.0;288.8;;;;;;;;;;;;;;0.9807428;0.06946013;0.0015259255;;;;;223.6
407.0;334.1;;;;;;;;;;;;;;;;;-6.931516;10.700553;1.575518;;233.1
407.0;334.1;;;;;;;;;;;;;;0.9821467;0.07025361;0.003540147;;;;;233.1
407.0;334.1;;;;;;;;;;;;;;;;;-7.122257;10.914183;1.3389996;;233.1
407.0;334.1;;;;;;;;;;;;;;0.9820246;0.07367168;0.0021362957;;;;;233.1
407.0;334.1;;;;;;;;;;;;;;;;;-7.1184425;10.986664;1.2016664;;242.7
407.0;334.1;;;;;;;;;;;;;;0.9836116;0.07538072;0.0028077029;;;;;242.7
407.0;334.1;;;;;;;;;;;;;;;;;-7.2824793;11.047701;1.003296;;242.7
407.0;334.1;;;;;;;;;;;;;;0.9836726;0.078981906;0.0042115543;;;;;242.7
407.0;334.1;;;;;;;;;;;;;;;;;-7.515183;11.26133;0.82399976;;252.4
407.0;334.1;;;;;;;;;;;;;;0.9832453;0.08197272;0.0023194067;;;;;252.4
407.0;334.1;;;;;;;;;;;;;;;;;-7.9119234;11.482589;0.6828517;;252.4
407.0;334.1;;;;;;;;;;;;;;0.9830622;0.087466046;0.0021362957;;;;;252.4
465.0;349.0;;;;;;;;;;;;;;;;;-8.430738;11.757256;0.4768517;;262.1
465.0;349.0;;;;;;;;;;;;;;0.9806818;0.093691826;0.0015259255;;;;;262.1
465.0;349.0;;;;;;;;;;;;;;;;;-9.182257;12.028108;0.29374066;;262.1
465.0;349.0;;;;;;;;;;;;;;0.97933894;0.10058901;0.0036622211;;;;;262.1
465.0;349.0;;;;;;;;;;;;;;;;;-9.990996;12.337108;0.068666644;;271.7
465.0;349.0;;;;;;;;;;;;;;0.9786065;0.10632649;0.0076906644;;;;;271.7
465.0;349.0;;;;;;;;;;;;;;;;;-10.876034;12.531663;-0.27085176;;271.7
465.0;349.0;;;;;;;;;;;;;;0.97897273;0.11438338;0.01330607;;;;;271.7
465.0;349.0;;;;;;;;;;;;;;;;;-11.661885;12.802515;-0.6218146;;281.4
465.0;349.0;;;;;;;;;;;;;;0.9816584;0.120670184;0.01843318;;;;;281.4
465.0;349.0;;;;;;;;;;;;;;;;;-12.367626;13.122959;-0.99185157;;281.4
465.0;349.0;;;;;;;;;;;;;;0.9823298;0.12952055;0.021423994;;;;;281.4
465.0;402.0;;;;;;;;;;;;;;;;;-13.1801815;13.241219;-1.4877774;;291.0
465.0;402.0;;;;;;;;;;;;;;0.9808649;0.13855404;0.024475845;;;;;291.0
465.0;402.0;;;;;;;;;;;;;;;;;-14.069033;13.428144;-1.9302957;;291.0
465.0;402.0;;;;;;;;;;;;;;0.9814753;0.14587848;0.026367992;;;;;291.0
465.0;402.0;;;;;;;;;;;;;;;;;-15.04181;13.698996;-2.3842587;;300.4
465.0;402.0;;;;;;;;;;;;;;0.9812311;0.15356915;0.029663991;;;;;300.4
465.0;402.0;;;;;;;;;;;;;;;;;-15.968811;13.794366;-2.8687398;;300.4
465.0;402.0;;;;;;;;;;;;;;0.97976625;0.16132084;0.033509325;;;;;300.4
465.0;402.0;;;;;;;;;;;;;;;;;-16.96066;14.030885;-3.4676657;;310.1
465.0;402.0;;;;;;;;;;;;;;0.97720265;0.16687521;0.036988433;;;;;310.1
465.0;402.0;;;;;;;;;;;;;;;;;-17.91818;14.328441;-4.1047397;;310.1
465.0;402.0;;;;;;;;;;;;;;0.9767754;0.1739555;0.041016877;;;;;310.1
524.0;402.8;;;;;;;;;;;;;;;;;-19.07407;14.7557;-4.749443;;319.7
524.0;402.8;;;;;;;;;;;;;;0.9729911;0.17877743;0.04382458;;;;;319.7
524.0;402.8;;;;;;;;;;;;;;;;;-20.29481;15.308847;-5.5200357;;319.7
524.0;402.8;;;;;;;;;;;;;;0.96694845;0.18195136;0.049195837;;;;;319.7
524.0;402.8;;;;;;;;;;;;;;;;;-21.553698;15.7284775;-6.4737387;;329.3
524.0;402.8;;;;;;;;;;;;;;0.9618213;0.18408765;0.0524308;;;;;329.3
524.0;402.8;;;;;;;;;;;;;;;;;-22.843103;16.159552;-7.4999237;;329.3
524.0;402.8;;;;;;;;;;;;;;0.9560228;0.18756676;0.057008576;;;;;329.3
524.0;402.8;;;;;;;;;;;;;;;;;-24.029512;16.628773;-8.777886;;338.9
524.0;402.8;;;;;;;;;;;;;;0.9528489;0.18890958;0.059327982;;;;;338.9
524.0;402.8;;;;;;;;;;;;;;;;;-25.196844;17.26966;-10.258034;;338.9
524.0;402.8;;;;;;;;;;;;;;0.94766074;0.19190039;0.06445509;;;;;338.9
524.0;454.9;;;;;;;;;;;;;;;;;-26.234474;17.780846;-11.852626;;348.5
524.0;454.9;;;;;;;;;;;;;;0.94497514;0.19367047;0.069765314;;;;;348.5
524.0;454.9;;;;;;;;;;;;;;;;;-27.06992;18.280588;-13.657034;;348.5
524.0;454.9;;;;;;;;;;;;;;0.9418622;0.19171728;0.072878204;;;;;348.5
524.0;454.9;;;;;;;;;;;;;;;;;-27.661213;18.913847;-15.709402;;358.1
524.0;454.9;;;;;;;;;;;;;;0.9338664;0.19226661;0.07538072;;;;;358.1
524.0;454.9;;;;;;;;;;;;;;;;;-28.14951;19.547104;-17.914366;;358.1
524.0;454.9;;;;;;;;;;;;;;0.92947173;0.1942198;0.07708976;;;;;358.1
524.0;454.9;;;;;;;;;;;;;;;;;-28.271584;20.18418;-20.107882;;367.4
524.0;454.9;;;;;;;;;;;;;;0.9212928;0.19727165;0.082888275;;;;;367.4
524.0;454.9;;;;;;;;;;;;;;;;;-28.145695;20.744957;-22.606585;;367.4
524.0;454.9;;;;;;;;;;;;;;0.91238135;0.20032349;0.0865505;;;;;367.4
587.0;462.8;;;;;;;;;;;;;;;;;-27.916805;21.317179;-25.204473;;377.1
587.0;462.8;;;;;;;;;;;;;;0.89944154;0.20581684;0.09009064;;;;;377.1
587.0;462.8;;;;;;;;;;;;;;;;;-27.62688;21.767328;-27.886288;;377.1
587.0;462.8;;;;;;;;;;;;;;0.8885769;0.20679343;0.09356975;;;;;377.1
587.0;462.8;;;;;;;;;;;;;;;;;-27.191994;22.305214;-30.78936;;386.8
587.0;462.8;;;;;;;;;;;;;;0.87582016;0.21369061;0.10095523;;;;;386.8
587.0;462.8;;;;;;;;;;;;;;;;;-26.932585;22.938475;-33.856472;;386.8
587.0;462.8;;;;;;;;;;;;;;0.8627583;0.21594897;0.11206397;;;;;386.8
587.0;462.8;;;;;;;;;;;;;;;;;-26.497696;23.350475;-37.244026;;396.5
587.0;462.8;;;;;;;;;;;;;;0.854152;0.21832941;0.11926634;;;;;396.5
587.0;462.8;;;;;;;;;;;;;;;;;-25.92166;24.204994;-40.810875;;396.5
587.0;462.8;;;;;;;;;;;;;;0.8433485;0.22437209;0.13245033;;;;;396.5
587.0;515.1;;;;;;;;;;;;;;;;;-25.17777;25.16251;-44.656208;;406.2
587.0;515.1;;;;;;;;;;;;;;0.83333844;0.22724082;0.14679404;;;;;406.2
587.0;515.1;;;;;;;;;;;;;;;;;-24.342327;26.364178;-48.772396;;406.2
587.0;515.1;;;;;;;;;;;;;;0.8278451;0.23249;0.16583759;;;;;406.2
587.0;515.1;;;;;;;;;;;;;;;;;-23.518326;27.733694;-53.235725;;415.8
587.0;515.1;;;;;;;;;;;;;;0.82412183;0.23780023;0.18677329;;;;;415.8
587.0;515.1;;;;;;;;;;;;;;;;;-22.759178;29.332104;-57.85165;;415.8
587.0;515.1;;;;;;;;;;;;;;0.82924896;0.23737296;0.20679343;;;;;415.8
587.0;515.1;;;;;;;;;;;;;;;;;-22.18314;31.495102;-62.612534;;425.5
587.0;515.1;;;;;;;;;;;;;;0.8384045;0.23969238;0.22150335;;;;;425.5
587.0;515.1;;;;;;;;;;;;;;;;;-21.706291;34.226505;-67.39632;;425.5
587.0;515.1;;;;;;;;;;;;;;0.8462172;0.23920408;0.23780023;;;;;425.5
646.0;515.9;;;;;;;;;;;;;;;;;-21.50792;36.725212;-72.26783;;435.1
646.0;515.9;;;;;;;;;;;;;;0.8681906;0.24134037;0.23261207;;;;;435.1
646.0;515.9;;;;;;;;;;;;;;;;;-20.275734;39.38795;-77.10883;;435.1
646.0;515.9;;;;;;;;;;;;;;0.8954741;0.24884793;0.22022156;;;;;435.1
646.0;515.9;;;;;;;;;;;;;;;;;-15.858181;40.87573;-81.82394;;444.8
646.0;515.9;;;;;;;;;;;;;;0.91293067;0.25940734;0.16595966;;;;;444.8
646.0;515.9;;;;;;;;;;;;;;;;;-9.243294;38.10999;-86.14231;;444.8
646.0;515.9;;;;;;;;;;;;;;0.933195;0.2730186;0.037354656;;;;;444.8
646.0;515.9;;;;;;;;;;;;;;;;;-2.9374065;32.067326;-89.70534;;454.4
646.0;515.9;;;;;;;;;;;;;;0.9554735;0.27753532;-0.03155614;;;;;454.4
646.0;515.9;;;;;;;;;;;;;;;;;1.6899625;23.52214;-91.99805;;454.4
646.0;515.9;;;;;;;;;;;;;;1.0121769;0.25452438;-0.015808588;;;;;454.4
646.0;583.0;;;;;;;;;;;;;;;;;5.1881466;15.030366;-92.33375;;464.0
646.0;583.0;;;;;;;;;;;;;;1.1000702;0.24317148;0.015320292;;;;;464.0
646.0;583.0;;;;;;;;;;;;;;;;;6.4012575;10.357219;-90.93752;;464.0
646.0;583.0;;;;;;;;;;;;;;1.1846675;0.24317148;0.06671346;;;;;464.0
646.0;583.0;;;;;;;;;;;;;;;;;5.9701834;9.250923;-88.91186;;473.7
646.0;583.0;;;;;;;;;;;;;;1.2137212;0.26654866;0.118717;;;;;473.7
646.0;583.0;;;;;;;;;;;;;;;;;4.0437026;9.613331;-86.47801;;473.7
646.0;583.0;;;;;;;;;;;;;;1.215247;0.32325205;0.17584765;;;;;473.7
646.0;583.0;;;;;;;;;;;;;;;;;1.2131108;9.781182;-83.8992;;483.3
646.0;583.0;;;;;;;;;;;;;;1.1973022;0.36310923;0.20801416;;;;;483.3
646.0;583.0;;;;;;;;;;;;;;;;;-2.0638144;9.609516;-81.88116;;483.3
646.0;583.0;;;;;;;;;;;;;;1.1677603;0.4067507;0.24066897;;;;;483.3
708.0;590.5;;;;;;;;;;;;;;;;;-5.386517;7.06122;-80.62227;;492.9
708.0;590.5;;;;;;;;;;;;;;1.140965;0.42316964;0.23590808;;;;;492.9
708.0;590.5;;;;;;;;;;;;;;;;;-8.869442;3.0976286;-79.96231;;492.9
708.0;590.5;;;;;;;;;;;;;;1.1227149;0.43043306;0.21442305;;;;;492.9
708.0;590.5;;;;;;;;;;;;;;;;;-13.183996;-1.209296;-79.29853;;502.5
708.0;590.5;;;;;;;;;;;;;;1.116184;0.4252449;0.18512528;;;;;502.5
708.0;590.5;;;;;;;;;;;;;;;;;-17.334513;-5.184332;-78.76446;;502.5
708.0;590.5;;;;;;;;;;;;;;1.1080661;0.41743216;0.17236854;;;;;502.5
708.0;590.5;;;;;;;;;;;;;;;;;-19.688253;-10.040589;-78.60423;;512.2
708.0;590.5;;;;;;;;;;;;;;1.1140476;0.38850063;0.18439284;;;;;512.2
708.0;590.5;;;;;;;;;;;;;;;;;-18.311106;-15.705587;-78.95138;;512.2
708.0;590.5;;;;;;;;;;;;;;1.1268654;0.34925383;0.21503341;;;;;512.2
708.0;636.3;;;;;;;;;;;;;;;;;-14.12244;-21.126438;-78.83312;;521.8
708.0;636.3;;;;;;;;;;;;;;1.1468246;0.3361919;0.22089297;;;;;521.8
708.0;636.3;;;;;;;;;;;;;;;;;-10.048219;-22.759178;-77.70013;;521.8
708.0;636.3;;;;;;;;;;;;;;1.1438338;0.37665945;0.22486039;;;;;521.8
708.0;636.3;;;;;;;;;;;;;;;;;-10.460219;-20.57329;-75.44939;;531.4
708.0;636.3;;;;;;;;;;;;;;1.1457869;0.42182684;0.20526749;;;;;531.4
708.0;636.3;;;;;;;;;;;;;;;;;-14.870144;-15.259254;-72.39372;;531.4
708.0;636.3;;;;;;;;;;;;;;1.1346171;0.46223333;0.15881832;;;;;531.4
708.0;636.3;;;;;;;;;;;;;;;;;-22.21366;-9.796441;-68.899345;;540.9
708.0;636.3;;;;;;;;;;;;;;1.1003144;0.50904876;0.12244026;;;;;540.9
708.0;636.3;;;;;;;;;;;;;;;;;-31.151768;-8.522293;-65.17991;;540.9
708.0;636.3;;;;;;;;;;;;;;1.0758995;0.5350505;0.08825953;;;;;540.9
764.0;637.0;;;;;;;;;;;;;;;;;-39.3498;-9.983367;-61.769463;;550.6
764.0;637.0;;;;;;;;;;;;;;1.0559404;0.54268014;0.08209479;;;;;550.6
764.0;637.0;;;;;;;;;;;;;;;;;-44.888912;-13.119144;-58.523056;;550.6
764.0;637.0;;;;;;;;;;;;;;1.0480666;0.5379192;0.09808649;;;;;550.6
764.0;637.0;;;;;;;;;;;;;;;;;-47.753838;-15.934477;-55.66576;;560.3
764.0;637.0;;;;;;;;;;;;;;1.035493;0.517777;0.12610248;;;;;560.3
764.0;637.0;;;;;;;;;;;;;;;;;-48.87158;-17.525253;-53.060246;;560.3
764.0;637.0;;;;;;;;;;;;;;1.0088809;0.47871333;0.15430158;;;;;560.3
764.0;637.0;;;;;;;;;;;;;;;;;-48.558765;-18.494217;-51.057465;;569.9
764.0;637.0;;;;;;;;;;;;;;0.97518843;0.43867305;0.19226661;;;;;569.9
764.0;637.0;;;;;;;;;;;;;;;;;-47.402874;-20.363476;-49.52391;;569.9
764.0;637.0;;;;;;;;;;;;;;0.941435;0.38917205;0.21814631;;;;;569.9
764.0;696.3;;;;;;;;;;;;;;;;;-45.71291;-22.92703;-48.471024;;579.6
764.0;696.3;;;;;;;;;;;;;;0.9202551;0.35377055;0.23358867;;;;;579.6
764.0;696.3;;;;;;;;;;;;;;;;;-43.77499;-25.708029;-47.894985;;579.6
764.0;696.3;;;;;;;;;;;;;;0.8897977;0.32392347;0.2278512;;;;;579.6
764.0;696.3;;;;;;;;;;;;;;;;;-42.481766;-28.55388;-47.734764;;589.0
764.0;696.3;;;;;;;;;;;;;;0.8770409;0.30323192;0.22003846;;;;;589.0
764.0;696.3;;;;;;;;;;;;;;;;;-41.627247;-31.079287;-47.528763;;589.0
764.0;696.3;;;;;;;;;;;;;;0.86336863;0.2887051;0.19605091;;;;;589.0
764.0;696.3;;;;;;;;;;;;;;;;;-41.20762;-32.437363;-47.25791;;598.7
764.0;696.3;;;;;;;;;;;;;;0.8406018;0.28315073;0.16943876;;;;;598.7
764.0;696.3;;;;;;;;;;;;;;;;;-41.428875;-33.40251;-46.65517;;598.7
764.0;696.3;;;;;;;;;;;;;;0.82680744;0.28510392;0.13989685;;;;;598.7
828.0;697.1;;;;;;;;;;;;;;;;;-42.268135;-34.478283;-45.678577;;608.3
828.0;697.1;;;;;;;;;;;;;;0.8016602;0.2883999;0.101260416;;;;;608.3
828.0;697.1;;;;;;;;;;;;;;;;;-43.08832;-35.55406;-44.35102;;608.3
828.0;697.1;;;;;;;;;;;;;;0.7932371;0.29242834;0.06524857;;;;;608.3
828.0;697.1;;;;;;;;;;;;;;;;;-43.42784;-36.523026;-42.775505;;618.0
828.0;697.1;;;;;;;;;;;;;;0.7813349;0.27784052;0.034974214;;;;;618.0
828.0;697.1;;;;;;;;;;;;;;;;;-43.10358;-36.980804;-41.08936;;618.0
828.0;697.1;;;;;;;;;;;;;;0.7642445;0.2796716;0.029602954;;;;;618.0
828.0;697.1;;;;;;;;;;;;;;;;;-42.981506;-39.17432;-39.04843;;627.6
828.0;697.1;;;;;;;;;;;;;;0.76778466;0.27283546;0.01330607;;;;;627.6
828.0;697.1;;;;;;;;;;;;;;;;;-42.638172;-41.37547;-36.912136;;627.6
828.0;697.1;;;;;;;;;;;;;;0.77028716;0.26288643;6.103702E-5;;;;;627.6
828.0;757.1;;;;;;;;;;;;;;;;;-42.7221;-42.023987;-35.023804;;637.3
828.0;757.1;;;;;;;;;;;;;;0.76924956;0.26728112;0.012024293;;;;;637.3
828.0;757.1;;;;;;;;;;;;;;;;;-42.45125;-43.294323;-32.639545;;637.3
828.0;757.1;;;;;;;;;;;;;;0.7658925;0.2636189;0.00982696;;;;;637.3
828.0;757.1;;;;;;;;;;;;;;;;;-42.630543;-43.82458;-30.430769;;646.9
828.0;757.1;;;;;;;;;;;;;;0.7725456;0.26514482;0.013672292;;;;;646.9
828.0;757.1;;;;;;;;;;;;;;;;;-42.615284;-44.370094;-28.180029;;646.9
828.0;757.1;;;;;;;;;;;;;;0.7905515;0.2689291;0.023865474;;;;;646.9
828.0;757.1;;;;;;;;;;;;;;;;;-42.81747;-44.549393;-26.394695;;656.5
828.0;757.1;;;;;;;;;;;;;;0.7957396;0.270394;0.030457472;;;;;656.5
828.0;757.1;;;;;;;;;;;;;;;;;-43.137913;-43.90088;-24.55977;;656.5
828.0;757.1;;;;;;;;;;;;;;0.7998291;0.27466658;0.046449173;;;;;656.5
883.0;757.8;;;;;;;;;;;;;;;;;-43.683434;-43.8551;-23.186438;;666.1
883.0;757.8;;;;;;;;;;;;;;0.8071535;0.29096347;0.050965913;;;;;666.1
883.0;757.8;;;;;;;;;;;;;;;;;-43.446915;-43.393505;-21.668142;;666.1
883.0;757.8;;;;;;;;;;;;;;0.8094119;0.30182806;0.0590228;;;;;666.1
883.0;757.8;;;;;;;;;;;;;;;;;-43.279064;-42.798397;-20.49318;;675.8
883.0;757.8;;;;;;;;;;;;;;0.8080691;0.30347607;0.06634724;;;;;675.8
883.0;757.8;;;;;;;;;;;;;;;;;-42.687767;-42.04306;-19.35255;;675.8
883.0;757.8;;;;;;;;;;;;;;0.8133793;0.32508317;0.057252724;;;;;675.8
883.0;757.8;;;;;;;;;;;;;;;;;-42.497025;-40.54384;-18.33018;;685.5
883.0;757.8;;;;;;;;;;;;;;0.81258583;0.2763146;0.078981906;;;;;685.5
883.0;757.8;;;;;;;;;;;;;;;;;-40.707874;-40.72695;-17.639698;;685.5
883.0;757.8;;;;;;;;;;;;;;0.7992187;0.28907132;0.10290842;;;;;685.5
883.0;817.1;;;;;;;;;;;;;;;;;-38.754692;-42.115543;-16.701256;;695.1
883.0;817.1;;;;;;;;;;;;;;0.80739766;0.30133978;0.09179968;;;;;695.1
883.0;817.1;;;;;;;;;;;;;;;;;-37.35084;-42.27958;-15.816217;;695.1
883.0;817.1;;;;;;;;;;;;;;0.8108768;0.30494094;0.09228797;;;;;695.1
883.0;817.1;;;;;;;;;;;;;;;;;-36.210213;-41.444138;-14.790033;;704.8
883.0;817.1;;;;;;;;;;;;;;0.8100833;0.30872524;0.09106723;;;;;704.8
883.0;817.1;;;;;;;;;;;;;;;;;-35.950806;-40.826134;-13.542589;;704.8
883.0;817.1;;;;;;;;;;;;;;0.81154823;0.29621264;0.083010346;;;;;704.8
883.0;817.1;;;;;;;;;;;;;;;;;-36.59551;-40.09369;-12.5125885;;714.4
883.0;817.1;;;;;;;;;;;;;;0.8166753;0.2956023;0.06811731;;;;;714.4
883.0;817.1;;;;;;;;;;;;;;;;;-37.236397;-38.716545;-11.047701;;714.4
883.0;817.1;;;;;;;;;;;;;;0.81875056;0.29194006;0.072634056;;;;;714.4
950.0;817.9;;;;;;;;;;;;;;;;;-38.258766;-38.04514;-9.52559;;724.0
950.0;817.9;;;;;;;;;;;;;;0.8263802;0.2830897;0.067873165;;;;;724.0
950.0;817.9;;;;;;;;;;;;;;;;;-38.41136;-37.38899;-8.018739;;724.0
950.0;817.9;;;;;;;;;;;;;;0.83095795;0.26038393;0.065309614;;;;;724.0
950.0;817.9;;;;;;;;;;;;;;;;;-38.384655;-36.339916;-6.324961;;733.6
950.0;817.9;;;;;;;;;;;;;;0.83046967;0.2707602;0.06280709;;;;;733.6
950.0;817.9;;;;;;;;;;;;;;;;;-38.106174;-35.596027;-4.6731467;;733.6
950.0;817.9;;;;;;;;;;;;;;0.8324839;0.2664266;0.062135685;;;;;733.6
950.0;817.9;;;;;;;;;;;;;;;;;-36.889248;-35.550247;-3.1395917;;743.1
950.0;817.9;;;;;;;;;;;;;;0.83291113;0.27198097;0.054383986;;;;;743.1
950.0;817.9;;;;;;;;;;;;;;;;;-35.29847;-35.161137;-1.7281106;;743.1
950.0;817.9;;;;;;;;;;;;;;0.8313242;0.27546006;0.05859554;;;;;743.1
950.0;877.4;;;;;;;;;;;;;;;;;-33.158363;-35.229805;-0.25940734;;752.8
950.0;877.4;;;;;;;;;;;;;;0.8357799;0.27973264;0.057985168;;;;;752.8
950.0;877.4;;;;;;;;;;;;;;;;;-30.945768;-35.653248;1.2016664;;752.8
950.0;877.4;;;;;;;;;;;;;;0.8334605;0.28693503;0.048890654;;;;;752.8
950.0;877.4;;;;;;;;;;;;;;;;;-28.592028;-36.008026;2.6169622;;762.4
950.0;877.4;;;;;;;;;;;;;;0.82955414;0.30426955;0.053956725;;;;;762.4
950.0;877.4;;;;;;;;;;;;;;;;;-26.497696;-36.99225;4.253517;;762.4
950.0;877.4;;;;;;;;;;;;;;0.83321637;0.3173925;0.046449173;;;;;762.4
950.0;877.4;;;;;;;;;;;;;;;;;-24.117252;-37.354656;5.710776;;772.0
950.0;877.4;;;;;;;;;;;;;;0.8314463;0.33808404;0.040833768;;;;;772.0
950.0;877.4;;;;;;;;;;;;;;;;;-22.057253;-37.446213;7.2252574;;772.0
950.0;877.4;;;;;;;;;;;;;;0.8323008;0.34992522;0.046205025;;;;;772.0
1007.0;878.2;;;;;;;;;;;;;;;;;-20.069735;-37.457657;8.819849;;781.6
1007.0;878.2;;;;;;;;;;;;;;0.83437604;0.36939603;0.043092135;;;;;781.6
1007.0;878.2;;;;;;;;;;;;;;;;;-17.872402;-36.847286;10.456405;;781.6
1007.0;878.2;;;;;;;;;;;;;;0.8302255;0.38544878;0.049745172;;;;;781.6
1007.0;878.2;;;;;;;;;;;;;;;;;-15.97644;-36.44673;11.822107;;791.2
1007.0;878.2;;;;;;;;;;;;;;0.8338267;0.40650654;0.059083834;;;;;791.2
1007.0;878.2;;;;;;;;;;;;;;;;;-14.469588;-35.47014;13.088626;;791.2
1007.0;878.2;;;;;;;;;;;;;;0.83803827;0.4194464;0.07312235;;;;;791.2
1007.0;878.2;;;;;;;;;;;;;;;;;-12.913144;-33.795437;14.183477;;800.8
1007.0;878.2;;;;;;;;;;;;;;0.8377331;0.42896816;0.08105716;;;;;800.8
1007.0;878.2;;;;;;;;;;;;;;;;;-10.647145;-32.05588;14.908293;;800.8
1007.0;878.2;;;;;;;;;;;;;;0.83602405;0.43671986;0.097598195;;;;;800.8
1007.0;937.9;;;;;;;;;;;;;;;;;-8.30485;-30.678732;15.186773;;810.4
1007.0;937.9;;;;;;;;;;;;;;0.8335826;0.4585101;0.10571612;;;;;810.4
1007.0;937.9;;;;;;;;;;;;;;;;;-6.9086275;-29.705956;15.396588;;810.4
1007.0;937.9;;;;;;;;;;;;;;0.8372448;0.4746849;0.108401746;;;;;810.4
1007.0;937.9;;;;;;;;;;;;;;;;;-5.3140354;-28.87814;15.449995;;820.1
1007.0;937.9;;;;;;;;;;;;;;0.8440809;0.49739066;0.09887997;;;;;820.1
1007.0;937.9;;;;;;;;;;;;;;;;;-3.7003694;-27.53151;15.411847;;820.1
1007.0;937.9;;;;;;;;;;;;;;0.84646136;0.52125615;0.101260416;;;;;820.1
1007.0;937.9;;;;;;;;;;;;;;;;;-2.723777;-27.115696;15.339366;;829.7
1007.0;937.9;;;;;;;;;;;;;;0.8479873;0.5488449;0.08429212;;;;;829.7
1007.0;937.9;;;;;;;;;;;;;;;;;-2.727592;-26.50151;15.0112915;;829.7
1007.0;937.9;;;;;;;;;;;;;;0.8566546;0.57155067;0.06848354;;;;;829.7
1070.0;938.7;;;;;;;;;;;;;;;;;-3.2616658;-25.597399;14.355144;;839.2
1070.0;938.7;;;;;;;;;;;;;;0.8655049;0.59364605;0.056154057;;;;;839.2
1070.0;938.7;;;;;;;;;;;;;;;;;-4.3641467;-25.57451;13.5197;;839.2
1070.0;938.7;;;;;;;;;;;;;;0.87099826;0.60621965;0.037598804;;;;;839.2
1070.0;938.7;;;;;;;;;;;;;;;;;-5.9778132;-25.490585;12.466811;;848.9
1070.0;938.7;;;;;;;;;;;;;;0.86935025;0.61635184;0.018799402;;;;;848.9
1070.0;938.7;;;;;;;;;;;;;;;;;-7.778405;-25.563066;11.246071;;848.9
1070.0;938.7;;;;;;;;;;;;;;0.8666036;0.62135684;0.012573626;;;;;848.9
1070.0;938.7;;;;;;;;;;;;;;;;;-10.345775;-26.581623;9.998627;;858.5
1070.0;938.7;;;;;;;;;;;;;;0.860683;0.6142766;0.0054322947;;;;;858.5
1070.0;938.7;;;;;;;;;;;;;;;;;-13.668478;-27.53151;8.48033;;858.5
1070.0;938.7;;;;;;;;;;;;;;0.85818046;0.6075625;0.010193182;;;;;858.5
1070.0;952.8;;;;;;;;;;;;;;;;;-17.42607;-27.783287;7.122257;;868.2
1070.0;952.8;;;;;;;;;;;;;;0.8512223;0.5962096;0.020996734;;;;;868.2
1070.0;952.8;;;;;;;;;;;;;;;;;-21.557512;-27.607805;5.9701834;;868.2
1070.0;952.8;;;;;;;;;;;;;;0.8501236;0.5798517;0.021607105;;;;;868.2
1070.0;952.8;;;;;;;;;;;;;;;;;-25.769066;-26.551104;5.1538134;;877.8
1070.0;952.8;;;;;;;;;;;;;;0.8396863;0.5663625;0.021057772;;;;;877.8
1070.0;952.8;;;;;;;;;;;;;;;;;-30.18662;-25.566881;4.81811;;877.8
1070.0;952.8;;;;;;;;;;;;;;0.8278451;0.5519578;0.014893033;;;;;877.8
1070.0;952.8;;;;;;;;;;;;;;;;;-34.501175;-25.448622;4.5129247;;887.4
1070.0;952.8;;;;;;;;;;;;;;0.82290107;0.53975034;0.013367107;;;;;887.4
1070.0;952.8;;;;;;;;;;;;;;;;;-38.922546;-25.540176;4.7875915;;887.4
1070.0;952.8;;;;;;;;;;;;;;0.8249153;0.5274819;-7.324442E-4;;;;;887.4
1127.0;998.4;;;;;;;;;;;;;;;;;-43.393505;-25.387585;5.4170356;;897.1
1127.0;998.4;;;;;;;;;;;;;;0.8278451;0.51301616;-0.008423109;;;;;897.1
1127.0;998.4;;;;;;;;;;;;;;;;;-47.624134;-25.536362;6.2181463;;897.1
1127.0;998.4;;;;;;;;;;;;;;0.82882166;0.50593585;-0.012390515;;;;;897.1
1127.0;998.4;;;;;;;;;;;;;;;;;-51.68691;-25.440992;7.374035;;906.8
1127.0;998.4;;;;;;;;;;;;;;0.8355968;0.49238563;-0.0074465163;;;;;906.8
1127.0;998.4;;;;;;;;;;;;;;;;;-55.059204;-25.219732;8.709219;;906.8
1127.0;998.4;;;;;;;;;;;;;;0.84823143;0.48347422;-0.0027466659;;;;;906.8
1127.0;998.4;;;;;;;;;;;;;;;;;-57.53502;-24.307993;10.334331;;916.4
1127.0;998.4;;;;;;;;;;;;;;0.8584857;0.48121586;0.01043733;;;;;916.4
1127.0;998.4;;;;;;;;;;;;;;;;;-59.53017;-23.709066;12.062441;;916.4
1127.0;998.4;;;;;;;;;;;;;;0.86666465;0.4835963;0.023804437;;;;;916.4
1127.0;1013.2;;;;;;;;;;;;;;;;;-61.151463;-23.22077;13.634145;;926.0
1127.0;1013.2;;;;;;;;;;;;;;0.8777123;0.49568164;0.028015992;;;;;926.0
1127.0;1013.2;;;;;;;;;;;;;;;;;-62.517166;-22.48451;14.908293;;926.0
1127.0;1013.2;;;;;;;;;;;;;;0.8890042;0.5013581;0.032593768;;;;;926.0
1127.0;1013.2;;;;;;;;;;;;;;;;;-62.990204;-21.549883;15.911589;;935.6
1127.0;1013.2;;;;;;;;;;;;;;0.8946806;0.50972015;0.049439985;;;;;935.6
1127.0;1013.2;;;;;;;;;;;;;;;;;-63.047424;-21.340069;16.693626;;935.6
1127.0;1013.2;;;;;;;;;;;;;;0.90878016;0.5081332;0.054017764;;;;;935.6
1127.0;1013.2;;;;;;;;;;;;;;;;;-62.173832;-21.160772;16.853848;;945.2
1127.0;1013.2;;;;;;;;;;;;;;0.92208624;0.50666827;0.06079287;;;;;945.2
1127.0;1013.2;;;;;;;;;;;;;;;;;-60.89587;-21.267586;16.628773;;945.2
1127.0;1013.2;;;;;;;;;;;;;;0.9374676;0.5022126;0.06646931;;;;;945.2
1185.0;1058.6;;;;;;;;;;;;;;;;;-59.743797;-22.518845;16.407515;;954.8
1185.0;1058.6;;;;;;;;;;;;;;0.97897273;0.49024934;0.0783105;;;;;954.8
1185.0;1058.6;;;;;;;;;;;;;;;;;-59.305096;-23.895994;15.64455;;954.8
1185.0;1058.6;;;;;;;;;;;;;;1.0589923;0.48567155;0.0954619;;;;;954.8
1185.0;1058.6;;;;;;;;;;;;;;;;;-59.21354;-24.452957;14.675589;;964.4
1185.0;1058.6;;;;;;;;;;;;;;1.172399;0.4807886;0.10589923;;;;;964.4
1185.0;1058.6;;;;;;;;;;;;;;;;;-58.828243;-23.55266;14.210181;;964.4
1185.0;1058.6;;;;;;;;;;;;;;1.3021637;0.47560045;0.08264413;;;;;964.4
1185.0;1058.6;;;;;;;;;;;;;;;;;-57.355724;-22.858364;13.309885;;974.0
1185.0;1058.6;;;;;;;;;;;;;;1.4421216;0.46021912;0.014343699;;;;;974.0
1185.0;1058.6;;;;;;;;;;;;;;;;;-53.30821;-21.271402;11.455885;;974.0
1185.0;1058.6;;;;;;;;;;;;;;1.5372174;0.4196295;-0.037781917;;;;;974.0
1185.0;1073.6;;;;;;;;;;;;;;;;;-47.36854;-18.997772;8.70159;;983.7
1185.0;1073.6;;;;;;;;;;;;;;1.5763421;0.34736168;-0.07715079;;;;;983.7
1185.0;1073.6;;;;;;;;;;;;;;;;;-40.719322;-15.8772545;4.989776;;983.7
1185.0;1073.6;;;;;;;;;;;;;;1.5127414;0.25348675;-0.057435837;;;;;983.7
1185.0;1073.6;;;;;;;;;;;;;;;;;-34.001434;-14.690847;0.29374066;;993.4
1185.0;1073.6;;;;;;;;;;;;;;1.4128239;0.1678518;-0.006836146;;;;;993.4
1185.0;1073.6;;;;;;;;;;;;;;;;;-28.1724;-15.690329;-4.4938507;;993.4
1185.0;1073.6;;;;;;;;;;;;;;1.3014923;0.10113834;0.040467545;;;;;993.4
1185.0;1073.6;;;;;;;;;;;;;;;;;-23.419142;-17.067476;-8.556626;;1003.0
1185.0;1073.6;;;;;;;;;;;;;;1.1850947;0.052919097;0.06140324;;;;;1003.0
1185.0;1073.6;;;;;;;;;;;;;;;;;-18.318735;-18.879513;-11.539811;;1003.0
1185.0;1073.6;;;;;;;;;;;;;;1.1153905;0.04504532;0.041077916;;;;;1003.0
1188.0;1119.3;;;;;;;;;;;;;;;;;-13.134403;-18.03644;-13.542589;;1012.5
1188.0;1119.3;;;;;;;;;;;;;;1.0245063;0.045228433;0.11066011;;;;;1012.5
1188.0;1119.3;;;;;;;;;;;;;;;;;-9.350108;-18.761253;-14.881589;;1012.5
1188.0;1119.3;;;;;;;;;;;;;;0.943083;0.0474868;0.10724204;;;;;1012.5
1188.0;1119.3;;;;;;;;;;;;;;;;;-6.740776;-19.16944;-15.427107;;1022.1
1188.0;1119.3;;;;;;;;;;;;;;0.863979;0.07306131;0.08337657;;;;;1022.1
1188.0;1119.3;;;;;;;;;;;;;;;;;-3.1701102;-19.699697;-15.25544;;1022.1
1188.0;1119.3;;;;;;;;;;;;;;0.80721456;0.13556322;0.06903287;;;;;1022.1
1188.0;1119.3;;;;;;;;;;;;;;;;;-0.6675924;-17.639698;-14.118626;;1031.8
1188.0;1119.3;;;;;;;;;;;;;;0.77968687;0.20850246;0.08630635;;;;;1031.8
1188.0;1119.3;;;;;;;;;;;;;;;;;1.0605181;-13.641774;-12.215034;;1031.8
1188.0;1119.3;;;;;;;;;;;;;;0.74831384;0.28296763;0.09900205;;;;;1031.8
1188.0;1129.8;;;;0.0;0.0;0.0;;;;;;;;;;;;;;;
1188.0;1129.8;;;;-0.3542786;0.004329682;0.13685228;;;;;;;;;;;;;;;
1188.0;1129.8;;;;-1.0549508;-0.022666933;0.33078387;;;;;;;;;;;;;;;
1188.0;1129.8;;;;-1.072918;-0.026294712;0.32620242;;;;;;;;;;;;;;;
1188.0;1129.8;;;;-1.0672647;-0.026916508;0.3260651;;;;;;;;;;;;;;;
1248.0;1134.0;;;;;;;;;;;;;;;;;2.0790737;-10.464034;-9.655293;;1041.5
1248.0;1134.0;;;;;;;;;;;;;;0.74056214;0.3472396;0.106631674;;;;;1041.5
1248.0;1134.0;;;;;;;;;;;;;;;;;3.6965547;-7.2443314;-6.0350356;;1041.5
1248.0;1134.0;;;;;;;;;;;;;;0.7431257;0.3785516;0.061342206;;;;;1041.5
1248.0;1134.0;;;;;;;;;;;;;;;;;6.405072;-2.9221473;-1.4915922;;1051.1
1248.0;1134.0;;;;;;;;;;;;;;0.7244484;0.3805048;0.023316141;;;;;1051.1
1248.0;1134.0;;;;;;;;;;;;;;;;;9.685812;-0.4196295;3.0632956;;1051.1
1248.0;1134.0;;;;;;;;;;;;;;0.6977752;0.35718864;0.014709922;;;;;1051.1
1248.0;1134.0;;;;;;;;;;;;;;;;;13.389997;-1.8311106;7.2176275;;1060.7
1248.0;1134.0;;;;;;;;;;;;;;0.6779992;0.33906063;0.008423109;;;;;1060.7
1248.0;1134.0;;;;;;;;;;;;;;;;;17.548143;-6.8666644;10.307627;;1060.7
1248.0;1134.0;;;;;;;;;;;;;;0.68459123;0.33295694;-0.028565325;;;;;1060.7
1248.0;1139.7;;;;-1.0605661;-0.027111057;0.32603458;;;;;;;;;;;;;;;
1248.0;1139.7;;;;-1.0546533;-0.027572636;0.3256493;;;;;;;;;;;;;;;
1248.0;1139.7;;;;-1.049183;-0.02840424;0.32425693;;;;;;;;;;;;;;;
1248.0;1139.7;;;;-1.0427514;-0.029834751;0.32256702;;;;;;;;;;;;;;;
1248.0;1139.7;;;;-1.0364877;-0.031085972;0.32133868;;;;;;;;;;;;;;;
1248.0;1141.1;57474;57540;12737;;;;;;;;;;;;;;;;;;
1249.0;1149.7;;;;-1.028885;-0.031837467;0.32020572;;;;;;;;;;;;;;;
1249.0;1149.7;;;;-1.0214692;-0.031883243;0.31920245;;;;;;;;;;;;;;;
1249.0;1149.7;;;;-1.0139467;-0.032867435;0.31829074;;;;;;;;;;;;;;;
1249.0;1149.7;;;;-1.006775;-0.033336643;0.31745914;;;;;;;;;;;;;;;
1249.0;1149.7;;;;-0.9997636;-0.034004215;0.31695178;;;;;;;;;;;;;;;
1249.0;1159.8;;;;-0.9939271;-0.034732822;0.31555942;;;;;;;;;;;;;;;
1249.0;1159.8;;;;-0.98824704;-0.03509522;0.3133736;;;;;;;;;;;;;;;
1249.0;1159.8;;;;-0.9827577;-0.036212925;0.3112755;;;;;;;;;;;;;;;
1249.0;1159.8;;;;-0.97706234;-0.03728104;0.30941394;;;;;;;;;;;;;;;
1249.0;1159.8;;;;-0.97125256;-0.037315372;0.30764392;;;;;;;;;;;;;;;
1249.0;1161.3;73939;73827;12738;;;;;;;;;;;;;;;;;;
1249.0;1167.6;;;;;;;;;;;;;0;;;;;;;;
1249.0;1167.6;;;;;;;;;;;;;0;;;;;;;;
1249.0;1167.6;;;;;;;;;;;;;-1;;;;;;;;
1249.0;1167.6;;;;;;;;;;;;;-2;;;;;;;;
1249.0;1167.6;;;;;;;;;;;;;-3;;;;;;;;
1249.0;1169.9;;;;-0.96657574;-0.037147526;0.30611423;;;;;;;;;;;;;;;
1249.0;1169.9;;;;-0.9623796;-0.037429813;0.3040047;;;;;;;;;;;;;;;
1249.0;1169.9;;;;-0.9594537;-0.037738804;0.30139926;;;;;;;;;;;;;;;
1249.0;1169.9;;;;-0.95806134;-0.037563328;0.29918674;;;;;;;;;;;;;;;
1249.0;1169.9;;;;-0.95835507;-0.038253788;0.29647067;;;;;;;;;;;;;;;
1250.0;1180.0;;;;-0.95967877;-0.038505558;0.29389194;;;;;;;;;;;;;;;
1250.0;1180.0;;;;-0.96165097;-0.03846741;0.2908173;;;;;;;;;;;;;;;
1250.0;1180.0;;;;-0.9636041;-0.038089756;0.28771594;;;;;;;;;;;;;;;
1250.0;1180.0;;;;-0.96707165;-0.038234714;0.2851334;;;;;;;;;;;;;;;
1250.0;1180.0;;;;-0.97060406;-0.038818363;0.28232196;;;;;;;;;;;;;;;
1250.0;1181.5;90242;90239;12731;;;;;;;;;;;;;;;;;;
1250.0;1186.8;;;;;;;;;;;;;;;;;22.320475;-13.714254;12.730033;;1070.3
1250.0;1186.8;;;;;;;;;;;;;;0.6951506;0.31849116;-0.080996126;;;;;1070.3
1250.0;1186.8;;;;;;;;;;;;;;;;;26.760918;-21.336254;14.996032;;1070.3
1250.0;1186.8;;;;;;;;;;;;;;0.7213355;0.30524614;-0.12121952;;;;;1070.3
1250.0;1186.8;;;;;;;;;;;;;;;;;29.580067;-29.087955;17.685476;;1079.8
1250.0;1186.8;;;;;;;;;;;;;;0.76924956;0.28858304;-0.16364025;;;;;1079.8
1250.0;1186.8;;;;;;;;;;;;;;;;;28.859066;-35.2031;20.710623;;1079.8
1250.0;1186.8;;;;;;;;;;;;;;0.84017456;0.27161473;-0.21265298;;;;;1079.8
1250.0;1186.8;;;;;;;;;;;;;;;;;23.94177;-38.293102;23.548845;;1089.6
1250.0;1186.8;;;;;;;;;;;;;;0.9012726;0.2646565;-0.24768822;;;;;1089.6
1250.0;1186.8;;;;;;;;;;;;;;;;;14.931181;-39.12473;26.291697;;1089.6
1250.0;1186.8;;;;;;;;;;;;;;0.959685;0.25281534;-0.2296823;;;;;1089.6
1251.0;1187.6;;;;;;;;;;;;;;;;;4.3031096;-39.620655;28.305918;;1099.3
1251.0;1187.6;;;;;;;;;;;;;;1.0229194;0.2583697;-0.20465712;;;;;1099.3
1251.0;1187.6;;;;;;;;;;;;;;;;;-6.469924;-40.246284;29.454178;;1099.3
1251.0;1187.6;;;;;;;;;;;;;;1.0704672;0.28662986;-0.1947081;;;;;1099.3
1251.0;1187.6;;;;;;;;;;;;;;;;;-16.479996;-40.948208;30.110323;;1108.9
1251.0;1187.6;;;;;;;;;;;;;;1.0986663;0.31202126;-0.20172735;;;;;1108.9
1251.0;1187.6;;;;;;;;;;;;;;;;;-25.490585;-40.92532;30.73214;;1108.9
1251.0;1187.6;;;;;;;;;;;;;;1.1176488;0.328135;-0.2070986;;;;;1108.9
1251.0;1187.6;;;;;;;;;;;;;;;;;-33.963284;-38.811916;30.961027;;1118.5
1251.0;1187.6;;;;;;;;;;;;;;1.1090426;0.32605976;-0.18182927;;;;;1118.5
1251.0;1187.6;;;;;;;;;;;;;;;;;-42.085026;-35.927914;30.823694;;1118.5
1251.0;1187.6;;;;;;;;;;;;;;1.1073946;0.31025118;-0.16113773;;;;;1118.5
1251.0;1189.9;;;;-0.97345364;-0.03944779;0.27920917;;;;;;;;;;;;;;;
1251.0;1189.9;;;;-0.9777299;-0.039371494;0.2755051;;;;;;;;;;;;;;;
1251.0;1189.9;;;;-0.98368084;-0.040271763;0.2722359;;;;;;;;;;;;;;;
1251.0;1189.9;;;;-0.98916256;-0.039989475;0.27035907;;;;;;;;;;;;;;;
1251.0;1189.9;;;;-0.9956132;-0.0384903;0.26795962;;;;;;;;;;;;;;;
1251.0;1199.9;;;;-1.002617;-0.036918644;0.2657967;;;;;;;;;;;;;;;
1251.0;1199.9;;;;-1.0099832;-0.034935;0.2627869;;;;;;;;;;;;;;;
1251.0;1199.9;;;;-1.0176545;-0.032436375;0.25962833;;;;;;;;;;;;;;;
1251.0;1199.9;;;;-1.0245477;-0.029006962;0.257;;;;;;;;;;;;;;;
1251.0;1199.9;;;;-1.0313646;-0.025329594;0.25448993;;;;;;;;;;;;;;;
1251.0;1201.5;106734;106619;12710;;;;;;;;;;;;;;;;;;
1305.0;1207.8;;;;;;;;;;;;;-8;;;;;;;;
1305.0;1207.8;;;;;;;;;;;;;-6;;;;;;;;
1305.0;1207.8;;;;;;;;;;;;;-7;;;;;;;;
1305.0;1207.8;;;;;;;;;;;;;-22;;;;;;;;
1305.0;1207.8;;;;;;;;;;;;;-12;;;;;;;;
1305.0;1209.9;;;;-1.0378419;-0.02176285;0.2521706;;;;;;;;;;;;;;;
1305.0;1209.9;;;;-1.0437928;-0.017257692;0.2502518;;;;;;;;;;;;;;;
1305.0;1209.9;;;;-1.0490075;-0.012599947;0.248436;;;;;;;;;;;;;;;
1305.0;1209.9;;;;-1.0530587;-0.007961274;0.24613574;;;;;;;;;;;;;;;
1305.0;1209.9;;;;-1.0559198;-0.0031204228;0.24420932;;;;;;;;;;;;;;;
1305.0;1220.0;;;;-1.0573617;0.0023651125;0.24265674;;;;;;;;;;;;;;;
1305.0;1220.0;;;;-1.05748;0.0070648203;0.24178699;;;;;;;;;;;;;;;
1305.0;1220.0;;;;-1.0575219;0.011020661;0.24003604;;;;;;;;;;;;;;;
1305.0;1220.0;;;;-1.0575067;0.014675142;0.23809436;;;;;;;;;;;;;;;
1305.0;1220.0;;;;-1.0587732;0.01815796;0.23701099;;;;;;;;;;;;;;;
1305.0;1221.6;122949;123037;12714;;;;;;;;;;;;;;;;;;
1305.0;1230.1;;;;-1.060917;0.02100754;0.23614505;;;;;;;;;;;;;;;
1305.0;1230.1;;;;-1.0637246;0.023975376;0.23432162;;;;;;;;;;;;;;;
1305.0;1230.1;;;;-1.0674211;0.027149204;0.2322922;;;;;;;;;;;;;;;
1305.0;1230.1;;;;-1.0719072;0.030464176;0.23007587;;;;;;;;;;;;;;;
1305.0;1230.1;;;;-1.0773584;0.03366852;0.2274895;;;;;;;;;;;;;;;
1308.0;1239.6;;;;;;;;;;;;;;;;;-50.397503;-31.495102;30.014954;;1128.1
1308.0;1239.6;;;;;;;;;;;;;;1.0960418;0.28565326;-0.12494278;;;;;1128.1
1308.0;1239.6;;;;;;;;;;;;;;;;;-58.37428;-26.242104;28.191473;;1128.1
1308.0;1239.6;;;;;;;;;;;;;;1.0773034;0.26783043;-0.07306131;;;;;1128.1
1308.0;1239.6;;;;;;;;;;;;;;;;;-64.561905;-21.607105;25.315104;;1137.6
1308.0;1239.6;;;;;;;;;;;;;;1.0598468;0.24750511;-0.046449173;;;;;1137.6
1308.0;1239.6;;;;;;;;;;;;;;;;;-68.25083;-18.02118;21.855068;;1137.6
1308.0;1239.6;;;;;;;;;;;;;;1.0498978;0.22742394;-0.033265177;;;;;1137.6
1308.0;1239.6;;;;;;;;;;;;;;;;;-69.48683;-16.014587;18.459883;;1147.3
1308.0;1239.6;;;;;;;;;;;;;;1.0513016;0.19672231;-0.051576283;;;;;1147.3
1308.0;1239.6;;;;;;;;;;;;;;;;;-68.50261;-13.771477;15.621662;;1147.3
1308.0;1239.6;;;;;;;;;;;;;;1.0439161;0.17365032;-0.074892424;;;;;1147.3
1308.0;1240.1;;;;-1.0825311;0.037059788;0.22550967;;;;;;;;;;;;;;;
1308.0;1240.1;;;;-1.08733;0.041095737;0.2231293;;;;;;;;;;;;;;;
1308.0;1240.1;;;;-1.0913125;0.045314793;0.22047046;;;;;;;;;;;;;;;
1308.0;1240.1;;;;-1.0950738;0.049194343;0.21741107;;;;;;;;;;;;;;;
1308.0;1240.1;;;;-1.0989724;0.05247117;0.2144852;;;;;;;;;;;;;;;
1308.0;1241.7;139440;139382;12721;;;;;;;;;;;;;;;;;;
1309.0;1247.4;;;;;;;;;;;;;;;;;-65.93524;-11.814478;13.286996;;1156.9
1309.0;1247.4;;;;;;;;;;;;;;1.0394604;0.15155491;-0.10388501;;;;;1156.9
1309.0;1247.4;;;;;;;;;;;;;;;;;-62.002167;-9.990996;11.257515;;1156.9
1309.0;1247.4;;;;;;;;;;;;;;1.0146794;0.12506485;-0.10211493;;;;;1156.9
1309.0;1247.4;;;;;;;;;;;;;;;;;-56.3448;-9.353924;9.502701;;1166.6
1309.0;1247.4;;;;;;;;;;;;;;0.9983215;0.103396714;-0.10895108;;;;;1166.6
1309.0;1247.4;;;;;;;;;;;;;;;;;-48.9021;-9.00296;8.075961;;1166.6
1309.0;1247.4;;;;;;;;;;;;;;0.972808;0.075319685;-0.113528855;;;;;1166.6
1309.0;1247.4;;;;;;;;;;;;;;;;;-40.1471;-9.094516;7.621998;;1176.3
1309.0;1247.4;;;;;;;;;;;;;;0.9540696;0.045594655;-0.11688589;;;;;1176.3
1309.0;1247.4;;;;;;;;;;;;;;;;;-31.04114;-9.315775;8.018739;;1176.3
1309.0;1247.4;;;;;;;;;;;;;;0.9349651;0.003234962;-0.122989595;;;;;1176.3
1309.0;1247.9;;;;;;;;;;;;;-43;;;;;;;;
1309.0;1247.9;;;;;;;;;;;;;-30;;;;;;;;
1309.0;1247.9;;;;;;;;;;;;;1;;;;;;;;
1309.0;1247.9;;;;;;;;;;;;;-166;;;;;;;;
1309.0;1247.9;;;;;;;;;;;;;53;;;;;;;;
1309.0;1250.1;;;;-1.1016809;0.055828102;0.21076205;;;;;;;;;;;;;;;
1309.0;1250.1;;;;-1.1041528;0.059055336;0.20611957;;;;;;;;;;;;;;;
1309.0;1250.1;;;;-1.1067659;0.062042244;0.20178226;;;;;;;;;;;;;;;
1309.0;1250.1;;;;-1.1086007;0.06406022;0.19899753;;;;;;;;;;;;;;;
1309.0;1250.1;;;;-1.1113588;0.0657425;0.19579318;;;;;;;;;;;;;;;
1371.0;1260.1;;;;-1.1146585;0.06695176;0.19364169;;;;;;;;;;;;;;;
1371.0;1260.1;;;;-1.1185495;0.06792832;0.18976596;;;;;;;;;;;;;;;
1371.0;1260.1;;;;-1.1224557;0.06864167;0.18660356;;;;;;;;;;;;;;;
1371.0;1260.1;;;;-1.1260453;0.06925965;0.1834488;;;;;;;;;;;;;;;
1371.0;1260.1;;;;-1.1280862;0.069271095;0.18033601;;;;;;;;;;;;;;;
1371.0;1261.8;155719;155793;12699;;;;;;;;;;;;;;;;;;
1371.0;1270.0;;;;-1.1294023;0.06991578;0.17822649;;;;;;;;;;;;;;;
1371.0;1270.0;;;;-1.1303407;0.06996537;0.1766739;;;;;;;;;;;;;;;
1371.0;1270.0;;;;-1.1310617;0.06941605;0.17447664;;;;;;;;;;;;;;;
1371.0;1270.0;;;;-1.1294557;0.06980134;0.17242815;;;;;;;;;;;;;;;
1371.0;1270.0;;;;-1.1278764;0.07042313;0.17177965;;;;;;;;;;;;;;;
1371.0;1280.1;;;;-1.1275865;0.07183076;0.17061235;;;;;;;;;;;;;;;
1371.0;1280.1;;;;-1.1265603;0.07261277;0.1690407;;;;;;;;;;;;;;;
1371.0;1280.1;;;;-1.1264344;0.07220841;0.16809084;;;;;;;;;;;;;;;
1371.0;1280.1;;;;-1.1260453;0.07146073;0.16684724;;;;;;;;;;;;;;;
1371.0;1280.1;;;;-1.1234552;0.07125092;0.16567613;;;;;;;;;;;;;;;
1371.0;1281.8;172252;172184;12727;;;;;;;;;;;;;;;;;;
1371.0;1288.1;;;;;;;;;;;;;416;;;;;;;;
1371.0;1288.1;;;;;;;;;;;;;-263;;;;;;;;
1371.0;1288.1;;;;;;;;;;;;;-976;;;;;;;;
1371.0;1288.1;;;;;;;;;;;;;714;;;;;;;;
1371.0;1288.1;;;;;;;;;;;;;5100;;;;;;;;
1372.0;1290.2;;;;-1.1195298;0.07100678;0.16474153;;;;;;;;;;;;;;;
1372.0;1290.2;;;;-1.1153947;0.07011414;0.16292574;;;;;;;;;;;;;;;
1372.0;1290.2;;;;-1.1110421;0.06843568;0.16132738;;;;;;;;;;;;;;;
1372.0;1290.2;;;;-1.1048852;0.06659318;0.16009523;;;;;;;;;;;;;;;
1372.0;1290.2;;;;-1.0972863;0.06494141;0.15860368;;;;;;;;;;;;;;;
1372.0;1299.8;;;;;;;;;;;;;;;;;-22.305214;-9.453109;9.075441;;1185.9
1372.0;1299.8;;;;;;;;;;;;;;0.91958374;-0.028382214;-0.1356853;;;;;1185.9
1372.0;1299.8;;;;;;;;;;;;;;;;;-15.083773;-9.193701;10.685293;;1185.9
1372.0;1299.8;;;;;;;;;;;;;;0.89779353;-0.05224769;-0.15149388;;;;;1185.9
1372.0;1299.8;;;;;;;;;;;;;;;;;-9.170813;-9.388257;12.741478;;1195.5
1372.0;1299.8;;;;;;;;;;;;;;0.8878445;-0.064760275;-0.17780083;;;;;1195.5
1372.0;1299.8;;;;;;;;;;;;;;;;;-3.6011841;-9.704886;14.767144;;1195.5
1372.0;1299.8;;;;;;;;;;;;;;0.87508774;-0.06591998;-0.1991638;;;;;1195.5
1372.0;1299.8;;;;;;;;;;;;;;;;;1.7052218;-10.589923;16.869106;;1205.2
1372.0;1299.8;;;;;;;;;;;;;;0.87063205;-0.06823939;-0.22321238;;;;;1205.2
1372.0;1299.8;;;;;;;;;;;;;;;;;6.3516645;-11.978516;18.96344;;1205.2
1372.0;1299.8;;;;;;;;;;;;;;0.8793603;-0.05780206;-0.24195075;;;;;1205.2
1372.0;1300.2;;;;-1.0891877;0.06288911;0.15718462;;;;;;;;;;;;;;;
1372.0;1300.2;;;;-1.0821344;0.05926133;0.15533449;;;;;;;;;;;;;;;
1372.0;1300.2;;;;-1.0741159;0.055686958;0.15498735;;;;;;;;;;;;;;;
1372.0;1300.2;;;;-1.0654756;0.052646644;0.1530266;;;;;;;;;;;;;;;
1372.0;1300.2;;;;-1.0590097;0.049316414;0.15096666;;;;;;;;;;;;;;;
1373.0;1300.6;;;;;;;;;;;;;;;;;9.750664;-13.271737;21.088291;;1214.8
1373.0;1300.6;;;;;;;;;;;;;;0.8905301;-0.045350507;-0.24805444;;;;;1214.8
1373.0;1300.6;;;;;;;;;;;;;;;;;12.817774;-14.252144;23.129215;;1214.8
1373.0;1300.6;;;;;;;;;;;;;;0.9012726;-0.04235969;-0.24384288;;;;;1214.8
1373.0;1300.6;;;;;;;;;;;;;;;;;16.327404;-15.499588;24.838251;;1224.4
1373.0;1300.6;;;;;;;;;;;;;;0.9193396;-0.023438215;-0.2445143;;;;;1224.4
1373.0;1300.6;;;;;;;;;;;;;;;;;19.821772;-16.075624;26.226845;;1224.4
1373.0;1300.6;;;;;;;;;;;;;;0.929899;0.018494217;-0.2367626;;;;;1224.4
1373.0;1300.6;;;;;;;;;;;;;;;;;22.679068;-16.907255;27.336956;;1234.1
1373.0;1300.6;;;;;;;;;;;;;;0.94619584;0.05877865;-0.22467726;;;;;1234.1
1373.0;1300.6;;;;;;;;;;;;;;;;;24.750511;-17.139957;28.073214;;1234.1
1373.0;1300.6;;;;;;;;;;;;;;0.9617603;0.108401746;-0.20081179;;;;;1234.1
1373.0;1301.9;188587;188600;12713;;;;;;;;;;;;;;;;;;
1373.0;1310.1;;;;-1.0535928;0.04522324;0.14949037;;;;;;;;;;;;;;;
1373.0;1310.1;;;;-1.0484124;0.04112244;0.14798357;;;;;;;;;;;;;;;
1373.0;1310.1;;;;-1.0415765;0.037586216;0.14637758;;;;;;;;;;;;;;;
1373.0;1310.1;;;;-1.0361634;0.033420566;0.14409639;;;;;;;;;;;;;;;
1373.0;1310.1;;;;-1.0317994;0.029823307;0.14170839;;;;;;;;;;;;;;;
1373.0;1320.1;;;;-1.0278703;0.026901249;0.13936616;;;;;;;;;;;;;;;
1373.0;1320.1;;;;-1.024151;0.023757938;0.1374283;;;;;;;;;;;;;;;
1373.0;1320.1;;;;-1.0199319;0.020545961;0.13562395;;;;;;;;;;;;;;;
1373.0;1320.1;;;;-1.0144693;0.017253878;0.1334305;;;;;;;;;;;;;;;
1373.0;1320.1;;;;-1.0079271;0.013702394;0.13122179;;;;;;;;;;;;;;;
1426.0;1321.9;204991;204974;12699;;;;;;;;;;;;;;;;;;
1426.0;1328.1;;;;;;;;;;;;;9328;;;;;;;;
1426.0;1328.1;;;;;;;;;;;;;10614;;;;;;;;
1426.0;1328.1;;;;;;;;;;;;;9330;;;;;;;;
1426.0;1328.1;;;;;;;;;;;;;7901;;;;;;;;
1426.0;1328.1;;;;;;;;;;;;;7654;;;;;;;;
1426.0;1330.0;;;;-1.0003663;0.010871888;0.12874605;;;;;;;;;;;;;;;
1426.0;1330.0;;;;-0.99209607;0.007980348;0.12726976;;;;;;;;;;;;;;;
1426.0;1330.0;;;;-0.98360455;0.0043945317;0.12482835;;;;;;;;;;;;;;;
1426.0;1330.0;;;;-0.97335446;0.0010643007;0.12247087;;;;;;;;;;;;;;;
1426.0;1330.0;;;;-0.96240246;-0.0020751955;0.12064363;;;;;;;;;;;;;;;
1426.0;1340.0;;;;-0.9526063;-0.005527497;0.11825563;;;;;;;;;;;;;;;
1426.0;1340.0;;;;-0.9436532;-0.009613038;0.11608125;;;;;;;;;;;;;;;
1426.0;1340.0;;;;-0.93626416;-0.014335634;0.11355211;;;;;;;;;;;;;;;
1426.0;1340.0;;;;-0.9292337;-0.019104006;0.11132814;;;;;;;;;;;;;;;
1426.0;1340.0;;;;-0.921734;-0.023609165;0.109043136;;;;;;;;;;;;;;;
1426.0;1342.0;221334;221348;12696;;;;;;;;;;;;;;;;;;
1426.0;1350.2;;;;-0.9162828;-0.028572086;0.10754396;;;;;;;;;;;;;;;
1426.0;1350.2;;;;-0.90987027;-0.03395844;0.10561754;;;;;;;;;;;;;;;
1426.0;1350.2;;;;-0.9014665;-0.03645325;0.10517122;;;;;;;;;;;;;;;
1426.0;1350.2;;;;-0.89205563;-0.03728867;0.10483934;;;;;;;;;;;;;;;
1426.0;1350.2;;;;-0.88429654;-0.038543705;0.10365678;;;;;;;;;;;;;;;
1427.0;1360.0;;;;;;;;;;;;;;;;;25.769066;-17.242958;28.515732;;1243.7
1427.0;1360.0;;;;;;;;;;;;;;0.9758599;0.15655996;-0.18225653;;;;;1243.7
1427.0;1360.0;;;;;;;;;;;;;;;;;25.727104;-16.949217;28.687399;;1243.7
1427.0;1360.0;;;;;;;;;;;;;;0.98660237;0.20465712;-0.16394544;;;;;1243.7
1427.0;1360.0;;;;;;;;;;;;;;;;;24.819178;-16.117588;28.477585;;1253.3
1427.0;1360.0;;;;;;;;;;;;;;0.997467;0.25708792;-0.15509507;;;;;1253.3
1427.0;1360.0;;;;;;;;;;;;;;;;;22.801142;-15.068514;28.092287;;1253.3
1427.0;1360.0;;;;;;;;;;;;;;0.9931333;0.310007;-0.15082248;;;;;1253.3
1427.0;1360.0;;;;;;;;;;;;;;;;;19.863733;-14.500107;27.451399;;1263.0
1427.0;1360.0;;;;;;;;;;;;;;0.99020356;0.35486922;-0.16394544;;;;;1263.0
1427.0;1360.0;;;;;;;;;;;;;;;;;16.029848;-14.145329;26.585438;;1263.0
1427.0;1360.0;;;;;;;;;;;;;;0.9823908;0.3947264;-0.17218544;;;;;1263.0
1427.0;1360.3;;;;-0.8769685;-0.040477756;0.102577224;;;;;;;;;;;;;;;
1427.0;1360.3;;;;-0.8706933;-0.043243412;0.10196687;;;;;;;;;;;;;;;
1427.0;1360.3;;;;-0.86415493;-0.047271736;0.10162355;;;;;;;;;;;;;;;
1427.0;1360.3;;;;-0.8581468;-0.051536568;0.10132982;;;;;;;;;;;;;;;
1427.0;1360.3;;;;-0.851864;-0.054756172;0.101570144;;;;;;;;;;;;;;;
1428.0;1361.1;;;;;;;;;;;;;;;;;11.410108;-13.584552;25.482956;;1272.7
1428.0;1361.1;;;;;;;;;;;;;;0.9790948;0.4153569;-0.16693625;;;;;1272.7
1428.0;1361.1;;;;;;;;;;;;;;;;;6.2372203;-12.897885;24.3614;;1272.7
1428.0;1361.1;;;;;;;;;;;;;;0.97360146;0.41749322;-0.15448469;;;;;1272.7
1428.0;1361.1;;;;;;;;;;;;;;;;;1.083407;-11.848811;23.094881;;1282.4
1428.0;1361.1;;;;;;;;;;;;;;0.95815915;0.40876493;-0.14075136;;;;;1282.4
1428.0;1361.1;;;;;;;;;;;;;;;;;-3.9826655;-11.169774;21.958069;;1282.4
1428.0;1361.1;;;;;;;;;;;;;;0.9587695;0.38856167;-0.12537004;;;;;1282.4
1428.0;1361.1;;;;;;;;;;;;;;;;;-8.716849;-9.895626;21.145512;;1292.0
1428.0;1361.1;;;;;;;;;;;;;;0.94497514;0.362743;-0.11505478;;;;;1292.0
1428.0;1361.1;;;;;;;;;;;;;;;;;-13.245033;-8.69396;20.725883;;1292.0
1428.0;1361.1;;;;;;;;;;;;;;0.9302652;0.34302804;-0.10229804;;;;;1292.0
1428.0;1362.1;237719;237704;12686;;;;;;;;;;;;;;;;;;
1428.0;1368.4;;;;;;;;;;;;;7533;;;;;;;;
1428.0;1368.4;;;;;;;;;;;;;6939;;;;;;;;
1428.0;1368.4;;;;;;;;;;;;;6402;;;;;;;;
1428.0;1368.4;;;;;;;;;;;;;5856;;;;;;;;
1428.0;1368.4;;;;;;;;;;;;;5385;;;;;;;;
1428.0;1370.2;;;;-0.8457986;-0.0569954;0.10159685;;;;;;;;;;;;;;;
1428.0;1370.2;;;;-0.8414346;-0.059745796;0.102130905;;;;;;;;;;;;;;;
1428.0;1370.2;;;;-0.8396226;-0.063350685;0.10197069;;;;;;;;;;;;;;;
1428.0;1370.2;;;;-0.8377687;-0.06702424;0.1020775;;;;;;;;;;;;;;;
1428.0;1370.2;;;;-0.83530056;-0.07081223;0.10248567;;;;;;;;;;;;;;;
1486.0;1380.2;;;;-0.83264554;-0.0749054;0.10234453;;;;;;;;;;;;;;;
1486.0;1380.2;;;;-0.8291894;-0.079177864;0.1021042;;;;;;;;;;;;;;;
1486.0;1380.2;;;;-0.82590115;-0.0837555;0.1024933;;;;;;;;;;;;;;;
1486.0;1380.2;;;;-0.82265484;-0.08795548;0.10243608;;;;;;;;;;;;;;;
1486.0;1380.2;;;;-0.8198472;-0.09223939;0.10195924;;;;;;;;;;;;;;;
1486.0;1382.3;254105;254072;12684;;;;;;;;;;;;;;;;;;
1486.0;1390.2;;;;-0.81803906;-0.09648515;0.10248949;;;;;;;;;;;;;;;
1486.0;1390.2;;;;-0.8159791;-0.10037996;0.10227968;;;;;;;;;;;;;;;
1486.0;1390.2;;;;-0.8158952;-0.10462572;0.10221101;;;;;;;;;;;;;;;
1486.0;1390.2;;;;-0.816044;-0.11005022;0.10169603;;;;;;;;;;;;;;;
1486.0;1390.2;;;;-0.8139726;-0.11355211;0.10159685;;;;;;;;;;;;;;;
1486.0;1400.2;;;;-0.81263745;-0.11619951;0.10167314;;;;;;;;;;;;;;;
1486.0;1400.2;;;;-0.8129426;-0.117641464;0.10042192;;;;;;;;;;;;;;;
1486.0;1400.2;;;;-0.8152429;-0.11987688;0.09847261;;;;;;;;;;;;;;;
1486.0;1400.2;;;;-0.8183824;-0.12284471;0.09705736;;;;;;;;;;;;;;;
1486.0;1400.2;;;;-0.8204423;-0.12658311;0.09679033;;;;;;;;;;;;;;;
1486.0;1402.3;262143;262143;12671;;;;;;;;;;;;;;;;;;
1486.0;1408.6;;;;;;;;;;;;;5011;;;;;;;;
1486.0;1408.6;;;;;;;;;;;;;4424;;;;;;;;
1486.0;1408.6;;;;;;;;;;;;;3791;;;;;;;;
1486.0;1408.6;;;;;;;;;;;;;3467;;;;;;;;
1486.0;1408.6;;;;;;;;;;;;;3317;;;;;;;;
1489.0;1410.3;;;;-0.8220445;-0.1305771;0.096065536;;;;;;;;;;;;;;;
1489.0;1410.3;;;;-0.82483685;-0.13391115;0.09502031;;;;;;;;;;;;;;;
1489.0;1410.3;;;;-0.8292047;-0.13832857;0.09442903;;;;;;;;;;;;;;;
1489.0;1410.3;;;;-0.83143246;-0.14113237;0.09466936;;;;;;;;;;;;;;;
1489.0;1410.3;;;;-0.83301556;-0.14239503;0.09470369;;;;;;;;;;;;;;;
1489.0;1420.3;;;;;;;;;;;;;;;;;-17.227697;-7.4083686;20.718252;;1301.6
1489.0;1420.3;;;;;;;;;;;;;;0.9211097;0.31037325;-0.08069094;;;;;1301.6
1489.0;1420.3;;;;;;;;;;;;;;;;;-20.317698;-6.2372203;20.878475;;1301.6
1489.0;1420.3;;;;;;;;;;;;;;0.9126865;0.2846156;-0.0629902;;;;;1301.6
1489.0;1420.3;;;;;;;;;;;;;;;;;-22.545547;-5.0126653;21.168402;;1311.2
1489.0;1420.3;;;;;;;;;;;;;;0.90908533;0.27088228;-0.04077273;;;;;1311.2
1489.0;1420.3;;;;;;;;;;;;;;;;;-23.97229;-3.9902954;21.572771;;1311.2
1489.0;1420.3;;;;;;;;;;;;;;0.9083529;0.26337475;-0.029725028;;;;;1311.2
1489.0;1420.3;;;;;;;;;;;;;;;;;-24.395735;-3.2731102;21.893217;;1320.8
1489.0;1420.3;;;;;;;;;;;;;;0.9053621;0.250618;-0.024475845;;;;;1320.8
1489.0;1420.3;;;;;;;;;;;;;;;;;-23.674734;-3.0709252;22.228918;;1320.8
1489.0;1420.3;;;;;;;;;;;;;;0.90517896;0.23712882;-0.035828732;;;;;1320.8
1489.0;1420.4;;;;-0.83402646;-0.14286043;0.09292603;;;;;;;;;;;;;;;
1489.0;1420.4;;;;-0.8374711;-0.1438637;0.091060646;;;;;;;;;;;;;;;
1489.0;1420.4;;;;-0.84059536;-0.14542772;0.09000779;;;;;;;;;;;;;;;
1489.0;1420.4;;;;-0.8433229;-0.14657213;0.090126045;;;;;;;;;;;;;;;
1489.0;1420.4;;;;-0.8459741;-0.14774705;0.09083939;;;;;;;;;;;;;;;
1491.0;1421.1;;;;;;;;;;;;;;;;;-22.354807;-3.2311473;22.400585;;1330.5
1491.0;1421.1;;;;;;;;;;;;;;0.9023713;0.22266304;-0.054811243;;;;;1330.5
1491.0;1421.1;;;;;;;;;;;;;;;;;-20.977661;-3.9597769;22.690512;;1330.5
1491.0;1421.1;;;;;;;;;;;;;;0.9056673;0.21210364;-0.079897456;;;;;1330.5
1491.0;1421.1;;;;;;;;;;;;;;;;;-19.196144;-4.81811;22.972807;;1340.2
1491.0;1421.1;;;;;;;;;;;;;;0.9038362;0.20654927;-0.10724204;;;;;1340.2
1491.0;1421.1;;;;;;;;;;;;;;;;;-17.3574;-5.279702;23.190252;;1340.2
1491.0;1421.1;;;;;;;;;;;;;;0.9059725;0.19501327;-0.11438338;;;;;1340.2
1491.0;1421.1;;;;;;;;;;;;;;;;;-15.121922;-5.6611834;23.525955;;1349.8
1491.0;1421.1;;;;;;;;;;;;;;0.9136021;0.18720053;-0.10657064;;;;;1349.8
1491.0;1421.1;;;;;;;;;;;;;;;;;-12.249367;-5.893887;23.621326;;1349.8
1491.0;1421.1;;;;;;;;;;;;;;0.9126255;0.18683432;-0.10559405;;;;;1349.8
1491.0;1422.5;262143;262143;12671;;;;;;;;;;;;;;;;;;
1491.0;1430.4;;;;-0.8489038;-0.14800645;0.09188462;;;;;;;;;;;;;;;
1491.0;1430.4;;;;-0.8511621;-0.14828493;0.093536384;;;;;;;;;;;;;;;
1491.0;1430.4;;;;-0.8521081;-0.14855196;0.095268264;;;;;;;;;;;;;;;
1491.0;1430.4;;;;-0.85269177;-0.1485901;0.09606172;;;;;;;;;;;;;;;
1491.0;1430.4;;;;-0.8530885;-0.1489258;0.09568025;;;;;;;;;;;;;;;
1491.0;1440.4;;;;-0.8555223;-0.14839174;0.09632112;;;;;;;;;;;;;;;
1491.0;1440.4;;;;-0.85804;-0.15027238;0.09706499;;;;;;;;;;;;;;;
1491.0;1440.4;;;;-0.86065686;-0.1516266;0.097274795;;;;;;;;;;;;;;;
1491.0;1440.4;;;;-0.8634225;-0.15361406;0.09813692;;;;;;;;;;;;;;;
1491.0;1440.4;;;;-0.86711514;-0.15506364;0.09989931;;;;;;;;;;;;;;;
1545.0;1442.6;262143;262143;12665;;;;;;;;;;;;;;;;;;
1545.0;1448.7;;;;;;;;;;;;;2888;;;;;;;;
1545.0;1448.7;;;;;;;;;;;;;2316;;;;;;;;
1545.0;1448.7;;;;;;;;;;;;;2070;;;;;;;;
1545.0;1448.7;;;;;;;;;;;;;2167;;;;;;;;
1545.0;1448.7;;;;;;;;;;;;;2249;;;;;;;;
1545.0;1450.4;;;;-0.87138;-0.15608598;0.10077287;;;;;;;;;;;;;;;
1545.0;1450.4;;;;-0.87672055;-0.15594102;0.10148622;;;;;;;;;;;;;;;
1545.0;1450.4;;;;-0.8821794;-0.15610887;0.10194017;;;;;;;;;;;;;;;
1545.0;1450.4;;;;-0.88791287;-0.15594102;0.10225679;;;;;;;;;;;;;;;
1545.0;1450.4;;;;-0.893612;-0.1558838;0.10253908;;;;;;;;;;;;;;;
1545.0;1460.4;;;;-0.89961255;-0.15517427;0.10317995;;;;;;;;;;;;;;;
1545.0;1460.4;;;;-0.90506375;-0.1543007;0.10367204;;;;;;;;;;;;;;;
1545.0;1460.4;;;;-0.90906537;-0.15258028;0.1036873;;;;;;;;;;;;;;;
1545.0;1460.4;;;;-0.9125482;-0.15147401;0.10387041;;;;;;;;;;;;;;;
1545.0;1460.4;;;;-0.91457;-0.1495247;0.10367586;;;;;;;;;;;;;;;
1545.0;1462.6;262143;262143;12660;;;;;;;;;;;;;;;;;;
1545.0;1470.5;;;;-0.9161798;-0.14816667;0.10315706;;;;;;;;;;;;;;;
1545.0;1470.5;;;;-0.91741574;-0.14692308;0.103267685;;;;;;;;;;;;;;;
1545.0;1470.5;;;;-0.9191247;-0.14636995;0.103267685;;;;;;;;;;;;;;;
1545.0;1470.5;;;;-0.92154324;-0.1458397;0.10361864;;;;;;;;;;;;;;;
1545.0;1470.5;;;;-0.9235803;-0.14649965;0.104526535;;;;;;;;;;;;;;;
1547.0;1480.6;;;;-0.925583;-0.14741518;0.10445787;;;;;;;;;;;;;;;
1547.0;1480.6;;;;-0.9275819;-0.14807893;0.10496141;;;;;;;;;;;;;;;
1547.0;1480.6;;;;-0.9292718;-0.14911272;0.10619737;;;;;;;;;;;;;;;
1547.0;1480.6;;;;-0.93066037;-0.14983751;0.106857315;;;;;;;;;;;;;;;
1547.0;1480.6;;;;-0.93249524;-0.15069582;0.1065941;;;;;;;;;;;;;;;
1547.0;1481.0;;;;;;;;;;;;;;;;;-9.475998;-6.0960727;23.590809;;1359.5
1547.0;1481.0;;;;;;;;;;;;;;0.91909546;0.18744469;-0.11102634;;;;;1359.5
1547.0;1481.0;;;;;;;;;;;;;;;;;-7.351146;-6.14948;23.594624;;1359.5
1547.0;1481.0;;;;;;;;;;;;;;0.92190313;0.18353832;-0.11322367;;;;;1359.5
1547.0;1481.0;;;;;;;;;;;;;;;;;-5.489517;-5.939665;23.701437;;1369.0
1547.0;1481.0;;;;;;;;;;;;;;0.9278237;0.17926572;-0.11700796;;;;;1369.0
1547.0;1481.0;;;;;;;;;;;;;;;;;-4.058962;-5.2491837;23.838772;;1369.0
1547.0;1481.0;;;;;;;;;;;;;;0.92281866;0.18359935;-0.12073123;;;;;1369.0
1547.0;1481.0;;;;;;;;;;;;;;;;;-2.8496659;-4.6388135;23.880733;;1378.5
1547.0;1481.0;;;;;;;;;;;;;;0.9265419;0.19019136;-0.11883908;;;;;1378.5
1547.0;1481.0;;;;;;;;;;;;;;;;;-1.064333;-4.291665;23.64803;;1378.5
1547.0;1481.0;;;;;;;;;;;;;;0.93362224;0.1904355;-0.117435224;;;;;1378.5
1549.0;1481.8;;;;;;;;;;;;;;;;;1.1520737;-4.0055547;23.01477;;1388.1
1549.0;1481.8;;;;;;;;;;;;;;0.9454634;0.20075075;-0.11651967;;;;;1388.1
1549.0;1481.8;;;;;;;;;;;;;;;;;2.6818142;-3.8529618;22.263252;;1388.1
1549.0;1481.8;;;;;;;;;;;;;;0.96426284;0.22022156;-0.114749596;;;;;1388.1
1549.0;1481.8;;;;;;;;;;;;;;;;;3.0709252;-2.948851;21.557512;;1397.7
1549.0;1481.8;;;;;;;;;;;;;;0.9732963;0.23798333;-0.11035493;;;;;1397.7
1549.0;1481.8;;;;;;;;;;;;;;;;;2.990814;-1.8501847;21.225624;;1397.7
1549.0;1481.8;;;;;;;;;;;;;;0.98513746;0.23877682;-0.10199286;;;;;1397.7
1549.0;1481.8;;;;;;;;;;;;;;;;;4.39848;-0.57222205;20.828882;;1407.4
1549.0;1481.8;;;;;;;;;;;;;;0.9823908;0.23328349;-0.100833155;;;;;1407.4
1549.0;1481.8;;;;;;;;;;;;;;;;;6.611072;0.34714803;19.611956;;1407.4
1549.0;1481.8;;;;;;;;;;;;;;0.9526048;0.23407696;-0.10223701;;;;;1407.4
1549.0;1482.8;262143;262143;12658;;;;;;;;;;;;;;;;;;
1549.0;1489.0;;;;;;;;;;;;;1988;;;;;;;;
1549.0;1489.0;;;;;;;;;;;;;1629;;;;;;;;
1549.0;1489.0;;;;;;;;;;;;;1588;;;;;;;;
1549.0;1489.0;;;;;;;;;;;;;1827;;;;;;;;
1549.0;1489.0;;;;;;;;;;;;;2005;;;;;;;;
1549.0;1490.6;;;;-0.93509305;-0.15149309;0.10729982;;;;;;;;;;;;;;;
1549.0;1490.6;;;;-0.93947995;-0.15316011;0.10778047;;;;;;;;;;;;;;;
1549.0;1490.6;;;;-0.9449426;-0.15601732;0.10762788;;;;;;;;;;;;;;;
1549.0;1490.6;;;;-0.9454652;-0.15546037;0.10873796;;;;;;;;;;;;;;;
1549.0;1490.6;;;;-0.9447862;-0.15270616;0.110374466;;;;;;;;;;;;;;;
1605.0;1500.6;;;;-0.94817364;-0.1491356;0.10914613;;;;;;;;;;;;;;;
1605.0;1500.6;;;;-0.9552423;-0.147316;0.10816194;;;;;;;;;;;;;;;
1605.0;1500.6;;;;-0.96299374;-0.1468506;0.10787965;;;;;;;;;;;;;;;
1605.0;1500.6;;;;-0.96875393;-0.14730836;0.10756685;;;;;;;;;;;;;;;
1605.0;1500.6;;;;-0.97325146;-0.14898683;0.10720064;;;;;;;;;;;;;;;
1605.0;1502.9;262143;262143;12650;;;;;;;;;;;;;;;;;;
1605.0;1510.6;;;;-0.97745526;-0.1508484;0.1068535;;;;;;;;;;;;;;;
1605.0;1510.6;;;;-0.98347104;-0.15314867;0.106216446;;;;;;;;;;;;;;;
1605.0;1510.6;;;;-0.9878694;-0.1552353;0.10581972;;;;;;;;;;;;;;;
1605.0;1510.6;;;;-0.98944867;-0.15648653;0.10653688;;;;;;;;;;;;;;;
1605.0;1510.6;;;;-0.9892503;-0.15577318;0.10770799;;;;;;;;;;;;;;;
1605.0;1520.6;;;;-0.9916345;-0.15543748;0.10977556;;;;;;;;;;;;;;;
1605.0;1520.6;;;;-0.9956361;-0.1565056;0.10807039;;;;;;;;;;;;;;;
1605.0;1520.6;;;;-0.9965364;-0.15727235;0.1052437;;;;;;;;;;;;;;;
1605.0;1520.6;;;;-0.99632275;-0.15807344;0.103820816;;;;;;;;;;;;;;;
1605.0;1520.6;;;;-0.9980699;-0.15950014;0.103202835;;;;;;;;;;;;;;;
1605.0;1523.1;262143;262143;12655;;;;;;;;;;;;;;;;;;
1605.0;1529.3;;;;;;;;;;;;;1863;;;;;;;;
1605.0;1529.3;;;;;;;;;;;;;1521;;;;;;;;
1605.0;1529.3;;;;;;;;;;;;;1248;;;;;;;;
1605.0;1529.3;;;;;;;;;;;;;1097;;;;;;;;
1605.0;1529.3;;;;;;;;;;;;;923;;;;;;;;
1610.0;1530.8;;;;-1.00206;-0.1607361;0.10425188;;;;;;;;;;;;;;;
1610.0;1530.8;;;;-1.00626;-0.161541;0.10510637;;;;;;;;;;;;;;;
1610.0;1530.8;;;;-1.0081712;-0.16197206;0.105266586;;;;;;;;;;;;;;;
1610.0;1530.8;;;;-1.0075189;-0.16209032;0.10696031;;;;;;;;;;;;;;;
1610.0;1530.8;;;;-1.006447;-0.16268922;0.10731508;;;;;;;;;;;;;;;
1610.0;1540.9;;;;-1.0062181;-0.16339876;0.107223526;;;;;;;;;;;;;;;
1610.0;1540.9;;;;-1.0057298;-0.16292574;0.107368484;;;;;;;;;;;;;;;
1610.0;1540.9;;;;-1.005562;-0.16271211;0.108684555;;;;;;;;;;;;;;;
1610.0;1540.9;;;;-1.0077974;-0.16329958;0.10990526;;;;;;;;;;;;;;;
1610.0;1540.9;;;;-1.0112993;-0.16540147;0.10984422;;;;;;;;;;;;;;;
1610.0;1541.4;;;;;;;;;;;;;;;;;8.266702;-0.79348123;18.017365;;1417.0
1610.0;1541.4;;;;;;;;;;;;;;0.9472335;0.2412183;-0.12555315;;;;;1417.0
1610.0;1541.4;;;;;;;;;;;;;;;;;9.079257;-2.25074;16.598255;;1417.0
1610.0;1541.4;;;;;;;;;;;;;;0.94192326;0.23053682;-0.15424055;;;;;1417.0
1610.0;1541.4;;;;;;;;;;;;;;;;;8.331553;-2.4414806;15.682699;;1426.7
1610.0;1541.4;;;;;;;;;;;;;;0.9470504;0.26081118;-0.15204321;;;;;1426.7
1610.0;1541.4;;;;;;;;;;;;;;;;;5.6344795;-2.1820734;15.411847;;1426.7
1610.0;1541.4;;;;;;;;;;;;;;0.94387645;0.26319164;-0.1694998;;;;;1426.7
1610.0;1541.4;;;;;;;;;;;;;;;;;2.521592;-1.2665181;15.625477;;1436.4
1610.0;1541.4;;;;;;;;;;;;;;0.92916656;0.26386303;-0.16479996;;;;;1436.4
1610.0;1541.4;;;;;;;;;;;;;;;;;-0.4730369;-1.1978515;16.07944;;1436.4
1610.0;1541.4;;;;;;;;;;;;;;0.9220252;0.26416823;-0.15717033;;;;;1436.4
1611.0;1542.2;;;;;;;;;;;;;;;;;-3.0175178;-1.6251106;16.659292;;1446.0
1611.0;1542.2;;;;;;;;;;;;;;0.92373425;0.26435134;-0.15112767;;;;;1446.0
1611.0;1542.2;;;;;;;;;;;;;;;;;-5.4170356;-2.2888882;17.3574;;1446.0
1611.0;1542.2;;;;;;;;;;;;;;0.9358806;0.2590411;-0.14606158;;;;;1446.0
1611.0;1542.2;;;;;;;;;;;;;;;;;-7.438887;-2.3613698;17.937254;;1455.6
1611.0;1542.2;;;;;;;;;;;;;;0.94192326;0.25220495;-0.14532915;;;;;1455.6
1611.0;1542.2;;;;;;;;;;;;;;;;;-9.125034;-2.498703;18.288218;;1455.6
1611.0;1542.2;;;;;;;;;;;;;;0.9423505;0.252266;-0.13245033;;;;;1455.6
1611.0;1542.2;;;;;;;;;;;;;;;;;-10.563219;-3.7041843;18.528551;;1465.3
1611.0;1542.2;;;;;;;;;;;;;;0.95815915;0.24909207;-0.12164678;;;;;1465.3
1611.0;1542.2;;;;;;;;;;;;;;;;;-11.295663;-4.634999;18.696402;;1465.3
1611.0;1542.2;;;;;;;;;;;;;;0.96511734;0.25000763;-0.12207404;;;;;1465.3
1611.0;1543.2;262143;262143;12647;;;;;;;;;;;;;;;;;;
1611.0;1550.9;;;;-1.0130769;-0.16772844;0.109764114;;;;;;;;;;;;;;;
1611.0;1550.9;;;;-1.0129625;-0.16905214;0.11148454;;;;;;;;;;;;;;;
1611.0;1550.9;;;;-1.0124589;-0.1704712;0.11143114;;;;;;;;;;;;;;;
1611.0;1550.9;;;;-1.0125962;-0.17214967;0.11126329;;;;;;;;;;;;;;;
1611.0;1550.9;;;;-1.012932;-0.17401887;0.11303331;;;;;;;;;;;;;;;
1611.0;1560.9;;;;-1.0130616;-0.17605211;0.11424257;;;;;;;;;;;;;;;
1611.0;1560.9;;;;-1.012478;-0.17762376;0.11463548;;;;;;;;;;;;;;;
1611.0;1560.9;;;;-1.0123292;-0.17900468;0.114532486;;;;;;;;;;;;;;;
1611.0;1560.9;;;;-1.012024;-0.1803589;0.11587526;;;;;;;;;;;;;;;
1611.0;1560.9;;;;-1.0107576;-0.18099214;0.11658861;;;;;;;;;;;;;;;
1666.0;1563.4;262143;262143;12640;;;;;;;;;;;;;;;;;;
1666.0;1569.5;;;;;;;;;;;;;590;;;;;;;;
1666.0;1569.5;;;;;;;;;;;;;192;;;;;;;;
1666.0;1569.5;;;;;;;;;;;;;-297;;;;;;;;
1666.0;1569.5;;;;;;;;;;;;;-931;;;;;;;;
1666.0;1569.5;;;;;;;;;;;;;-1353;;;;;;;;
1666.0;1570.8;;;;-1.0099527;-0.1820717;0.11723329;;;;;;;;;;;;;;;
1666.0;1570.8;;;;-1.0099603;-0.18313219;0.12026979;;;;;;;;;;;;;;;
1666.0;1570.8;;;;-1.0098191;-0.18325807;0.12257768;;;;;;;;;;;;;;;
1666.0;1570.8;;;;-1.0070611;-0.18464662;0.11615373;;;;;;;;;;;;;;;
1666.0;1570.8;;;;-1.000477;-0.18585588;0.11136247;;;;;;;;;;;;;;;
1666.0;1580.7;;;;-0.9940721;-0.18716814;0.11235048;;;;;;;;;;;;;;;
1666.0;1580.7;;;;-0.9915048;-0.18975452;0.11327745;;;;;;;;;;;;;;;
1666.0;1580.7;;;;-0.99038327;-0.19162753;0.114021316;;;;;;;;;;;;;;;
1666.0;1580.7;;;;-0.98669446;-0.19325641;0.11673738;;;;;;;;;;;;;;;
1666.0;1580.7;;;;-0.98173916;-0.19433978;0.11904146;;;;;;;;;;;;;;;
1666.0;1583.3;262143;262143;12641;;;;;;;;;;;;;;;;;;
1666.0;1590.9;;;;-0.9772531;-0.19567874;0.11961366;;;;;;;;;;;;;;;
1666.0;1590.9;;;;-0.9712335;-0.19657138;0.120597854;;;;;;;;;;;;;;;
1666.0;1590.9;;;;-0.9663774;-0.19715503;0.12247087;;;;;;;;;;;;;;;
1666.0;1590.9;;;;-0.9626771;-0.1973801;0.12303163;;;;;;;;;;;;;;;
1666.0;1590.9;;;;-0.96146786;-0.1983414;0.12285234;;;;;;;;;;;;;;;
1668.0;1601.3;;;;;;;;;;;;;;;;;-11.494034;-5.0050354;18.791773;;1474.9
1668.0;1601.3;;;;;;;;;;;;;;0.9679251;0.24414808;-0.13580737;;;;;1474.9
1668.0;1601.3;;;;;;;;;;;;;;;;;-11.547441;-5.054628;18.97107;;1474.9
1668.0;1601.3;;;;;;;;;;;;;;0.9647511;0.23865475;-0.140141;;;;;1474.9
1668.0;1601.3;;;;;;;;;;;;;;;;;-12.104404;-5.2682576;19.302958;;1484.6
1668.0;1601.3;;;;;;;;;;;;;;0.9632252;0.22699668;-0.13061923;;;;;1484.6
1668.0;1601.3;;;;;;;;;;;;;;;;;-12.9207735;-5.954924;19.711142;;1484.6
1668.0;1601.3;;;;;;;;;;;;;;0.96731466;0.21094394;-0.13507493;;;;;1484.6
1668.0;1601.3;;;;;;;;;;;;;;;;;-13.71044;-6.4203315;20.023956;;1494.1
1668.0;1601.3;;;;;;;;;;;;;;0.9631031;0.2026429;-0.13788262;;;;;1494.1
1668.0;1601.3;;;;;;;;;;;;;;;;;-14.656514;-6.85522;20.275734;;1494.1
1668.0;1601.3;;;;;;;;;;;;;;0.9656056;0.18243966;-0.13989685;;;;;1494.1
1668.0;1601.0;;;;-0.9612466;-0.19911197;0.12355043;;;;;;;;;;;;;;;
1668.0;1601.0;;;;-0.96185315;-0.20036319;0.12482835;;;;;;;;;;;;;;;
1668.0;1601.0;;;;-0.9623338;-0.20122531;0.12451173;;;;;;;;;;;;;;;
1668.0;1601.0;;;;-0.9624444;-0.20317844;0.124366775;;;;;;;;;;;;;;;
1668.0;1601.0;;;;-0.96126187;-0.20450595;0.12476732;;;;;;;;;;;;;;;
1669.0;1602.0;;;;;;;;;;;;;;;;;-15.343181;-6.7712946;20.748772;;1503.7
1669.0;1602.0;;;;;;;;;;;;;;0.9715262;0.16632588;-0.1386761;;;;;1503.7
1669.0;1602.0;;;;;;;;;;;;;;;;;-15.5796995;-6.5805535;21.50029;;1503.7
1669.0;1602.0;;;;;;;;;;;;;;0.97793514;0.14612262;-0.1398358;;;;;1503.7
1669.0;1602.0;;;;;;;;;;;;;;;;;-15.572069;-6.591998;22.087772;;1513.4
1669.0;1602.0;;;;;;;;;;;;;;0.9750053;0.13159582;-0.14777063;;;;;1513.4
1669.0;1602.0;;;;;;;;;;;;;;;;;-15.640736;-6.7445908;22.652363;;1513.4
1669.0;1602.0;;;;;;;;;;;;;;0.9754936;0.12182989;-0.15149388;;;;;1513.4
1669.0;1602.0;;;;;;;;;;;;;;;;;-16.144293;-6.9429607;23.426771;;1523.0
1669.0;1602.0;;;;;;;;;;;;;;0.97665334;0.10974456;-0.15002899;;;;;1523.0
1669.0;1602.0;;;;;;;;;;;;;;;;;-16.243477;-7.06122;24.109623;;1523.0
1669.0;1602.0;;;;;;;;;;;;;;0.9785455;0.1142613;-0.14893033;;;;;1523.0
1669.0;1603.5;262143;262143;12645;;;;;;;;;;;;;;;;;;
1669.0;1609.6;;;;;;;;;;;;;-1183;;;;;;;;
1669.0;1609.6;;;;;;;;;;;;;-522;;;;;;;;
1669.0;1609.6;;;;;;;;;;;;;22;;;;;;;;
1669.0;1609.6;;;;;;;;;;;;;41;;;;;;;;
1669.0;1609.6;;;;;;;;;;;;;-106;;;;;;;;
1669.0;1610.9;;;;-0.95910275;-0.20593646;0.12585832;;;;;;;;;;;;;;;
1669.0;1610.9;;;;-0.9566308;-0.20783237;0.12771226;;;;;;;;;;;;;;;
1669.0;1610.9;;;;-0.95375454;-0.20957568;0.12974168;;;;;;;;;;;;;;;
1669.0;1610.9;;;;-0.9510232;-0.21075442;0.1315613;;;;;;;;;;;;;;;
1669.0;1610.9;;;;-0.9483987;-0.21179202;0.13349535;;;;;;;;;;;;;;;
1725.0;1620.9;;;;-0.94591534;-0.21306613;0.13592531;;;;;;;;;;;;;;;
1725.0;1620.9;;;;-0.9436723;-0.21390918;0.13813783;;;;;;;;;;;;;;;
1725.0;1620.9;;;;-0.9417268;-0.21461871;0.1409569;;;;;;;;;;;;;;;
1725.0;1620.9;;;;-0.93891156;-0.21520618;0.14307787;;;;;;;;;;;;;;;
1725.0;1620.9;;;;-0.93603146;-0.21519473;0.14508058;;;;;;;;;;;;;;;
1725.0;1623.6;262143;262143;12638;;;;;;;;;;;;;;;;;;
1725.0;1631.0;;;;-0.9336854;-0.21515277;0.14632799;;;;;;;;;;;;;;;
1725.0;1631.0;;;;-0.9315988;-0.21503833;0.14851762;;;;;;;;;;;;;;;
1725.0;1631.0;;;;-0.9304925;-0.2153168;0.14989091;;;;;;;;;;;;;;;
1725.0;1631.0;;;;-0.9296113;-0.21510318;0.15163423;;;;;;;;;;;;;;;
1725.0;1631.0;;;;-0.92892087;-0.2152138;0.15272905;;;;;;;;;;;;;;;
1725.0;1640.9;;;;-0.9276544;-0.21546558;0.15488054;;;;;;;;;;;;;;;
1725.0;1640.9;;;;-0.92681515;-0.21524814;0.15613557;;;;;;;;;;;;;;;
1725.0;1640.9;;;;-0.9255601;-0.21531299;0.15750886;;;;;;;;;;;;;;;
1725.0;1640.9;;;;-0.92476666;-0.2146683;0.15849306;;;;;;;;;;;;;;;
1725.0;1640.9;;;;-0.9238969;-0.21450427;0.16009904;;;;;;;;;;;;;;;
1725.0;1643.7;262143;262143;12627;;;;;;;;;;;;;;;;;;
1725.0;1649.8;;;;;;;;;;;;;-19;;;;;;;;
1725.0;1649.8;;;;;;;;;;;;;-96;;;;;;;;
1725.0;1649.8;;;;;;;;;;;;;-538;;;;;;;;
1725.0;1649.8;;;;;;;;;;;;;-233;;;;;;;;
1725.0;1649.8;;;;;;;;;;;;;1814;;;;;;;;
1727.0;1651.0;;;;-0.9235498;-0.21442416;0.16075517;;;;;;;;;;;;;;;
1727.0;1651.0;;;;-0.9211122;-0.21325305;0.16199495;;;;;;;;;;;;;;;
1727.0;1651.0;;;;-0.91848004;-0.21278384;0.16240312;;;;;;;;;;;;;;;
1727.0;1651.0;;;;-0.91638577;-0.21252063;0.1634598;;;;;;;;;;;;;;;
1727.0;1651.0;;;;-0.9148675;-0.21223834;0.16414644;;;;;;;;;;;;;;;
1727.0;1661.2;;;;-0.91358197;-0.21159366;0.16456987;;;;;;;;;;;;;;;
1727.0;1661.2;;;;-0.9134828;-0.21134189;0.16542818;;;;;;;;;;;;;;;
1727.0;1661.2;;;;-0.9130517;-0.21108249;0.1661072;;;;;;;;;;;;;;;
1727.0;1661.2;;;;-0.9127656;-0.21086887;0.16668703;;;;;;;;;;;;;;;
1727.0;1661.2;;;;-0.912285;-0.21022037;0.16749956;;;;;;;;;;;;;;;
1727.0;1661.8;;;;;;;;;;;;;;;;;-15.4194765;-7.0917387;24.796288;;1532.7
1727.0;1661.8;;;;;;;;;;;;;;0.984344;0.11023286;-0.15900144;;;;;1532.7
1727.0;1661.8;;;;;;;;;;;;;;;;;-14.191107;-6.981109;25.19303;;1532.7
1727.0;1661.8;;;;;;;;;;;;;;0.98568684;0.1159093;-0.15985595;;;;;1532.7
1727.0;1661.8;;;;;;;;;;;;;;;;;-12.665181;-7.0955534;25.563066;;1542.4
1727.0;1661.8;;;;;;;;;;;;;;0.9864803;0.117313154;-0.16089359;;;;;1542.4
1727.0;1661.8;;;;;;;;;;;;;;;;;-11.104922;-7.0154424;25.635548;;1542.4
1727.0;1661.8;;;;;;;;;;;;;;0.9883114;0.12329478;-0.15912351;;;;;1542.4
1727.0;1661.8;;;;;;;;;;;;;;;;;-9.300516;-6.8170724;25.734734;;1551.9
1727.0;1661.8;;;;;;;;;;;;;;0.99575794;0.13556322;-0.16425061;;;;;1551.9
1727.0;1661.8;;;;;;;;;;;;;;;;;-8.167517;-6.042665;25.448622;;1551.9
1727.0;1661.8;;;;;;;;;;;;;;0.985931;0.13336588;-0.15521714;;;;;1551.9
1727.0;1663.8;262143;262143;12629;;;;;;;;;;;;;;;;;;
1728.0;1669.0;;;;;;;;;;;;;;;;;-7.0917387;-5.6611834;25.06714;;1561.6
1728.0;1669.0;;;;;;;;;;;;;;0.97885066;0.13342692;-0.15625477;;;;;1561.6
1728.0;1669.0;;;;;;;;;;;;;;;;;-5.9701834;-5.180517;24.628439;;1561.6
1728.0;1669.0;;;;;;;;;;;;;;0.9656056;0.13495284;-0.1556444;;;;;1561.6
1728.0;1669.0;;;;;;;;;;;;;;;;;-5.0889616;-5.050813;23.77392;;1571.3
1728.0;1669.0;;;;;;;;;;;;;;0.9541307;0.140141;-0.15973388;;;;;1571.3
1728.0;1669.0;;;;;;;;;;;;;;;;;-4.100925;-5.1499987;23.110142;;1571.3
1728.0;1669.0;;;;;;;;;;;;;;0.9505295;0.14270455;-0.17011017;;;;;1571.3
1728.0;1669.0;;;;;;;;;;;;;;;;;-3.1472213;-4.520554;22.39677;;1580.9
1728.0;1669.0;;;;;;;;;;;;;;0.9346599;0.15655996;-0.17505418;;;;;1580.9
1728.0;1669.0;;;;;;;;;;;;;;;;;-3.0632956;-4.280221;21.423994;;1580.9
1728.0;1669.0;;;;;;;;;;;;;;0.9198889;0.1617481;-0.17847225;;;;;1580.9
1728.0;1671.0;;;;-0.9115449;-0.20989993;0.16729356;;;;;;;;;;;;;;;
1728.0;1671.0;;;;-0.9100152;-0.20900348;0.16747667;;;;;;;;;;;;;;;
1728.0;1671.0;;;;-0.9082376;-0.20850757;0.16773225;;;;;;;;;;;;;;;
1728.0;1671.0;;;;-0.90664303;-0.20801547;0.16866685;;;;;;;;;;;;;;;
1728.0;1671.0;;;;-0.90592587;-0.20747378;0.16955186;;;;;;;;;;;;;;;
1728.0;1681.0;;;;-0.9054452;-0.20690158;0.17008974;;;;;;;;;;;;;;;
1728.0;1681.0;;;;-0.90532315;-0.20635608;0.17058946;;;;;;;;;;;;;;;
1728.0;1681.0;;;;-0.9054681;-0.20575717;0.17153169;;;;;;;;;;;;;;;
1728.0;1681.0;;;;-0.9051858;-0.20534137;0.17284395;;;;;;;;;;;;;;;
1728.0;1681.0;;;;-0.90470135;-0.2043648;0.17409517;;;;;;;;;;;;;;;
1728.0;1683.9;262143;262143;12624;;;;;;;;;;;;;;;;;;
1785.0;1690.0;;;;;;;;;;;;;2333;;;;;;;;
1785.0;1690.0;;;;;;;;;;;;;-5617;;;;;;;;
1785.0;1690.0;;;;;;;;;;;;;-21748;;;;;;;;
1785.0;1690.0;;;;;;;;;;;;;-33619;;;;;;;;
1785.0;1690.0;;;;;;;;;;;;;-29815;;;;;;;;
1785.0;1691.0;;;;-0.9044;-0.20380786;0.17523195;;;;;;;;;;;;;;;
1785.0;1691.0;;;;-0.9038888;-0.202961;0.17605974;;;;;;;;;;;;;;;
1785.0;1691.0;;;;-0.9033929;-0.20160678;0.1778412;;;;;;;;;;;;;;;
1785.0;1691.0;;;;-0.90319836;-0.20050433;0.18011476;;;;;;;;;;;;;;;
1785.0;1691.0;;;;-0.9020349;-0.199482;0.1810074;;;;;;;;;;;;;;;
1785.0;1700.9;;;;-0.90023816;-0.19798282;0.18216707;;;;;;;;;;;;;;;
1785.0;1700.9;;;;-0.89797604;-0.19677737;0.18334962;;;;;;;;;;;;;;;
1785.0;1700.9;;;;-0.8952943;-0.19516376;0.18373872;;;;;;;;;;;;;;;
1785.0;1700.9;;;;-0.8925363;-0.19416049;0.18420793;;;;;;;;;;;;;;;
1785.0;1700.9;;;;-0.8900491;-0.19264224;0.18480302;;;;;;;;;;;;;;;
1785.0;1703.8;262143;262143;12618;;;;;;;;;;;;;;;;;;
1785.0;1711.0;;;;-0.887581;-0.19146731;0.18524934;;;;;;;;;;;;;;;
1785.0;1711.0;;;;-0.8849908;-0.18983081;0.18524934;;;;;;;;;;;;;;;
1785.0;1711.0;;;;-0.8830682;-0.18830493;0.1846657;;;;;;;;;;;;;;;
1785.0;1711.0;;;;-0.88131726;-0.18749239;0.18426515;;;;;;;;;;;;;;;
1785.0;1711.0;;;;-0.8788568;-0.18603517;0.18444826;;;;;;;;;;;;;;;
1787.0;1721.1;;;;-0.87553036;-0.18476106;0.18405153;;;;;;;;;;;;;;;
1787.0;1721.1;;;;-0.8721925;-0.18351366;0.18359758;;;;;;;;;;;;;;;
1787.0;1721.1;;;;-0.86957943;-0.18188478;0.18294527;;;;;;;;;;;;;;;
1787.0;1721.1;;;;-0.8667871;-0.18026353;0.18252565;;;;;;;;;;;;;;;
1787.0;1721.1;;;;-0.8643304;-0.17844011;0.181839;;;;;;;;;;;;;;;
1787.0;1721.6;;;;;;;;;;;;;;;;;-3.521073;-4.3031096;20.588549;;1590.6
1787.0;1721.6;;;;;;;;;;;;;;0.9132359;0.16693625;-0.17267373;;;;;1590.6
1787.0;1721.6;;;;;;;;;;;;;;;;;-3.711814;-4.8257394;19.909512;;1590.6
1787.0;1721.6;;;;;;;;;;;;;;0.9147618;0.17303994;-0.18414868;;;;;1590.6
1787.0;1721.6;;;;;;;;;;;;;;;;;-3.2807398;-4.9630723;18.990143;;1600.2
1787.0;1721.6;;;;;;;;;;;;;;0.91561633;0.18543047;-0.17645802;;;;;1600.2
1787.0;1721.6;;;;;;;;;;;;;;;;;-3.456221;-4.9668875;18.318735;;1600.2
1787.0;1721.6;;;;;;;;;;;;;;0.9119541;0.18781091;-0.15833002;;;;;1600.2
1787.0;1721.6;;;;;;;;;;;;;;;;;-3.460036;-4.692221;17.139957;;1609.8
1787.0;1721.6;;;;;;;;;;;;;;0.89999086;0.18134098;-0.11877804;;;;;1609.8
1787.0;1721.6;;;;;;;;;;;;;;;;;-3.234962;-4.6578875;15.800959;;1609.8
1787.0;1721.6;;;;;;;;;;;;;;0.8957183;0.18445387;-0.08130131;;;;;1609.8
1808.0;1722.3;;;;;;;;;;;;;;;;;-2.3918884;-4.7036653;14.671774;;1619.5
1808.0;1722.3;;;;;;;;;;;;;;0.8910184;0.18060854;-0.077455975;;;;;1619.5
1808.0;1722.3;;;;;;;;;;;;;;;;;-1.3389996;-4.013184;13.359478;;1619.5
1808.0;1722.3;;;;;;;;;;;;;;0.8780786;0.18732262;-0.09241005;;;;;1619.5
1808.0;1722.3;;;;;;;;;;;;;;;;;-0.46922207;-2.76574;12.031922;;1629.1
1808.0;1722.3;;;;;;;;;;;;;;0.8560442;0.18445387;-0.09155553;;;;;1629.1
1808.0;1722.3;;;;;;;;;;;;;;;;;0.31662953;-2.750481;10.620441;;1629.1
1808.0;1722.3;;;;;;;;;;;;;;0.85055083;0.18793298;-0.10864589;;;;;1629.1
1808.0;1722.3;;;;;;;;;;;;;;;;;0.43107393;-2.7733696;9.128849;;1638.8
1808.0;1722.3;;;;;;;;;;;;;;0.84054077;0.19476913;-0.12402722;;;;;1638.8
1808.0;1722.3;;;;;;;;;;;;;;;;;-0.0839259;-2.7695546;7.5914793;;1638.8
1808.0;1722.3;;;;;;;;;;;;;;0.83278906;0.20178838;-0.12585834;;;;;1638.8
1808.0;1723.8;262143;262143;12624;;;;;;;;;;;;;;;;;;
1808.0;1729.9;;;;;;;;;;;;;-14001;;;;;;;;
1808.0;1729.9;;;;;;;;;;;;;-303;;;;;;;;
1808.0;1729.9;;;;;;;;;;;;;3373;;;;;;;;
1808.0;1729.9;;;;;;;;;;;;;1393;;;;;;;;
1808.0;1729.9;;;;;;;;;;;;;621;;;;;;;;
1808.0;1730.9;;;;-0.8623582;-0.17731477;0.1812134;;;;;;;;;;;;;;;
1808.0;1730.9;;;;-0.85930645;-0.17531587;0.18125917;;;;;;;;;;;;;;;
1808.0;1730.9;;;;-0.8566476;-0.17356874;0.18130113;;;;;;;;;;;;;;;
1808.0;1730.9;;;;-0.8536378;-0.17181017;0.18066408;;;;;;;;;;;;;;;
1808.0;1730.9;;;;-0.8503648;-0.17030336;0.18013383;;;;;;;;;;;;;;;
1818.0;1736.4;;;;;;;;;;;;;;;;;-0.8163701;-2.9602954;6.2257757;;1648.5
1818.0;1736.4;;;;;;;;;;;;;;0.83059174;0.20838039;-0.12726219;;;;;1648.5
1818.0;1736.4;;;;;;;;;;;;;;;;;-2.1324809;-2.8115177;4.757073;;1648.5
1818.0;1736.4;;;;;;;;;;;;;;0.82418287;0.21344645;-0.125309;;;;;1648.5
1818.0;1736.4;;;;;;;;;;;;;;;;;-3.6317027;-2.887814;3.3341472;;1658.1
1818.0;1736.4;;;;;;;;;;;;;;0.8180792;0.22205268;-0.122989595;;;;;1658.1
1818.0;1736.4;;;;;;;;;;;;;;;;;-4.91348;-2.9564807;2.0027773;;1658.1
1818.0;1736.4;;;;;;;;;;;;;;0.8125248;0.22211371;-0.12390515;;;;;1658.1
1818.0;1736.4;;;;;;;;;;;;;;;;;-5.5352945;-2.4491103;0.45777765;;1667.7
1818.0;1736.4;;;;;;;;;;;;;;0.81264687;0.22016053;-0.1114536;;;;;1667.7
1818.0;1736.4;;;;;;;;;;;;;;;;;-5.882443;-1.2665181;-1.1329997;;1667.7
1818.0;1736.4;;;;;;;;;;;;;;0.8163091;0.22376171;-0.07458724;;;;;1667.7
1818.0;1740.5;;;;;;;;;;1.1940367;19.184698;-2.750481;;;;;;;;;
1818.0;1740.5;;;;;;;0.9686575;0.02252266;0.33356732;;;;;;;;;;;;
1818.0;1740.5;;;;;;;;;;7.232887;31.708733;7.5647755;;;;;;;;;
1818.0;1740.5;;;;;;;1.0738853;0.024903104;0.37452316;;;;;;;;;;;;
1818.0;1740.8;;;;-0.84733593;-0.16957857;0.17989732;;;;;;;;;;;;;;;
1818.0;1740.8;;;;-0.8446771;-0.16898347;0.18006136;;;;;;;;;;;;;;;
1818.0;1740.8;;;;-0.8410722;-0.1680565;0.18039705;;;;;;;;;;;;;;;
1818.0;1740.8;;;;-0.83638394;-0.16688539;0.18085481;;;;;;;;;;;;;;;
1818.0;1740.8;;;;-0.8337289;-0.16612627;0.18019105;;;;;;;;;;;;;;;
1818.0;1743.8;262143;262143;12611;;;;;;;;;;;;;;;;;;
1844.0;1750.1;;;;;;;;;;0.33951843;3.5096285;1.1291848;;;;;;;;;
1844.0;1750.1;;;;;;;1.0576495;0.026551103;0.37281412;;;;;;;;;;;;
1844.0;1750.1;;;;;;;;;;1.6251106;13.664663;3.3074436;;;;;;;;;
1844.0;1750.1;;;;;;;1.0433668;0.029663991;0.37073886;;;;;;;;;;;;
1844.0;1750.9;;;;-0.8309747;-0.16486742;0.1801491;;;;;;;;;;;;;;;
1844.0;1750.9;;;;-0.82717144;-0.16283418;0.18028261;;;;;;;;;;;;;;;
1844.0;1750.9;;;;-0.82338345;-0.16135408;0.18019105;;;;;;;;;;;;;;;
1844.0;1750.9;;;;-0.8197671;-0.16118242;0.17935945;;;;;;;;;;;;;;;
1844.0;1750.9;;;;-0.81655896;-0.16101076;0.17940141;;;;;;;;;;;;;;;
1844.0;1759.6;;;;;;;;;;-1.5831476;12.226479;-0.09155553;;;;;;;;;
1844.0;1759.6;;;;;;;1.0269479;0.031311993;0.3681753;;;;;;;;;;;;
1844.0;1759.6;;;;;;;;;;-9.92233;-25.070955;-24.67803;;;;;;;;;
1844.0;1759.6;;;;;;;1.0088198;0.03180029;0.36744285;;;;;;;;;;;;
1844.0;1760.8;;;;-0.81346905;-0.16133119;0.17984392;;;;;;;;;;;;;;;
1844.0;1760.8;;;;-0.8101846;-0.16156007;0.18010332;;;;;;;;;;;;;;;
1844.0;1760.8;;;;-0.8070184;-0.16110231;0.18084718;;;;;;;;;;;;;;;
1844.0;1760.8;;;;-0.80490506;-0.16043092;0.1805153;;;;;;;;;;;;;;;
1844.0;1760.8;;;;-0.8034936;-0.16020204;0.18084337;;;;;;;;;;;;;;;
1844.0;1763.9;262143;262143;12608;;;;;;;;;;;;;;;;;;
1844.0;1769.3;;;;;;;;;;-13.256477;-26.657919;-29.335918;;;;;;;;;
1844.0;1769.3;;;;;;;0.9947813;0.034730066;0.3634144;;;;;;;;;;;;
1844.0;1769.3;;;;;;;;;;-16.438032;-27.367474;-33.81451;;;;;;;;;
1844.0;1769.3;;;;;;;0.9812921;0.036378063;0.3598132;;;;;;;;;;;;
1856.0;1770.0;;;;;;;;;;;;;1725;;;;;;;;
1856.0;1770.0;;;;;;;;;;;;;2209;;;;;;;;
1856.0;1770.0;;;;;;;;;;;;;1998;;;;;;;;
1856.0;1770.0;;;;;;;;;;;;;1931;;;;;;;;
1856.0;1770.0;;;;;;;;;;;;;1801;;;;;;;;
1856.0;1771.0;;;;-0.80197537;-0.15937807;0.1813431;;;;;;;;;;;;;;;
1856.0;1771.0;;;;-0.8001863;-0.15856935;0.18134691;;;;;;;;;;;;;;;
1856.0;1771.0;;;;-0.79841244;-0.15805437;0.18072893;;;;;;;;;;;;;;;
1856.0;1771.0;;;;-0.7977067;-0.15689851;0.17976762;;;;;;;;;;;;;;;
1856.0;1771.0;;;;-0.79871;-0.15695955;0.17953874;;;;;;;;;;;;;;;
1856.0;1778.9;;;;;;;;;;-19.619585;-19.711142;-31.723991;;;;;;;;;
1856.0;1778.9;;;;;;;0.97006136;0.03668325;0.35633412;;;;;;;;;;;;
1856.0;1778.9;;;;;;;;;;-20.725883;-10.048219;-26.043734;;;;;;;;;
1856.0;1778.9;;;;;;;0.9632862;0.037110507;0.34925383;;;;;;;;;;;;
1856.0;1781.1;;;;-0.7989007;-0.15630342;0.17888261;;;;;;;;;;;;;;;
1856.0;1781.1;;;;-0.7985841;-0.15541078;0.17810442;;;;;;;;;;;;;;;
1856.0;1781.1;;;;-0.7981607;-0.1538582;0.17666246;;;;;;;;;;;;;;;
1856.0;1781.1;;;;-0.79683316;-0.15247346;0.17486192;;;;;;;;;;;;;;;
1856.0;1781.1;;;;-0.7954179;-0.15171815;0.1733513;;;;;;;;;;;;;;;
1857.0;1782.1;;;;;;;;;;;;;;;;;-5.706961;-0.35477766;-2.6245918;;1677.4
1857.0;1782.1;;;;;;;;;;;;;;0.8182623;0.22040467;-0.06268502;;;;;1677.4
1857.0;1782.1;;;;;;;;;;;;;;;;;-4.9859614;1.0986663;-4.0284433;;1677.4
1857.0;1782.1;;;;;;;;;;;;;;0.8222297;0.21784112;-0.06659139;;;;;1677.4
1857.0;1782.1;;;;;;;;;;;;;;;;;-3.3532214;3.1929991;-5.7184057;;1687.0
1857.0;1782.1;;;;;;;;;;;;;;0.8206427;0.22156438;-0.030457472;;;;;1687.0
1857.0;1782.1;;;;;;;;;;;;;;;;;-1.4610736;4.154332;-7.1794796;;1687.0
1857.0;1782.1;;;;;;;;;;;;;;0.8307138;0.22986542;-0.012207404;;;;;1687.0
1857.0;1782.1;;;;;;;;;;;;;;;;;0.14496292;4.71511;-8.312479;;1696.7
1857.0;1782.1;;;;;;;;;;;;;;0.83278906;0.24219489;-0.058900725;;;;;1696.7
1857.0;1782.1;;;;;;;;;;;;;;;;;1.1444441;5.500962;-9.331035;;1696.7
1857.0;1782.1;;;;;;;;;;;;;;0.8250984;0.25360882;-0.08917508;;;;;1696.7
1857.0;1784.1;262143;262143;12599;;;;;;;;;;;;;;;;;;
1857.0;1788.3;;;;;;;;;;-20.870846;-8.663442;-26.036104;;;;;;;;;
1857.0;1788.3;;;;;;;0.9651784;0.03747673;0.34369946;;;;;;;;;;;;
1857.0;1788.3;;;;;;;;;;-20.939512;-7.309183;-25.765251;;;;;;;;;
1857.0;1788.3;;;;;;;0.97109896;0.03747673;0.3357036;;;;;;;;;;;;
1857.0;1791.1;;;;-0.7942773;-0.15172578;0.17107774;;;;;;;;;;;;;;;
1857.0;1791.1;;;;-0.7922212;-0.15104677;0.17004396;;;;;;;;;;;;;;;
1857.0;1791.1;;;;-0.789673;-0.15089037;0.16848756;;;;;;;;;;;;;;;
1857.0;1791.1;;;;-0.78852856;-0.1513672;0.16604616;;;;;;;;;;;;;;;
1857.0;1791.1;;;;-0.787861;-0.15244295;0.16362382;;;;;;;;;;;;;;;
1859.0;1796.7;;;;;;;;;;;;;;;;;1.945555;4.8829613;-9.990996;;1706.3
1859.0;1796.7;;;;;;;;;;;;;;0.82198554;0.2620319;-0.124210335;;;;;1706.3
1859.0;1796.7;;;;;;;;;;;;;;;;;2.6322215;3.8148136;-10.55559;;1706.3
1859.0;1796.7;;;;;;;;;;;;;;0.8188116;0.2649617;-0.15009002;;;;;1706.3
1859.0;1796.7;;;;;;;;;;;;;;;;;2.1973326;2.254555;-10.971405;;1715.9
1859.0;1796.7;;;;;;;;;;;;;;0.8136235;0.2684408;-0.16260262;;;;;1715.9
1859.0;1796.7;;;;;;;;;;;;;;;;;0.4463332;0.76296276;-11.146885;;1715.9
1859.0;1796.7;;;;;;;;;;;;;;0.81478316;0.2680746;-0.16412854;;;;;1715.9
1859.0;1796.7;;;;;;;;;;;;;;;;;-1.4191107;-0.45014802;-11.196478;;1725.6
1859.0;1796.7;;;;;;;;;;;;;;0.8245491;0.26520586;-0.1605884;;;;;1725.6
1859.0;1796.7;;;;;;;;;;;;;;;;;-3.9483323;-0.8926664;-11.082033;;1725.6
1859.0;1796.7;;;;;;;;;;;;;;0.82937104;0.26087222;-0.14111759;;;;;1725.6
1859.0;1797.8;;;;;;;;;;-20.928068;-5.9091463;-25.418102;;;;;;;;;
1859.0;1797.8;;;;;;;0.97976625;0.038941618;0.32905057;;;;;;;;;;;;
1859.0;1797.8;;;;;;;;;;-20.970032;-4.3298135;-24.948881;;;;;;;;;
1859.0;1797.8;;;;;;;0.99343854;0.038392287;0.3239845;;;;;;;;;;;;
1859.0;1801.0;;;;-0.78764355;-0.15330125;0.16197969;;;;;;;;;;;;;;;
1859.0;1801.0;;;;-0.7874185;-0.15338136;0.1599045;;;;;;;;;;;;;;;
1859.0;1801.0;;;;-0.7871896;-0.15444185;0.15826418;;;;;;;;;;;;;;;
1859.0;1801.0;;;;-0.786934;-0.1553116;0.15589906;;;;;;;;;;;;;;;
1859.0;1801.0;;;;-0.7856256;-0.15547945;0.15431978;;;;;;;;;;;;;;;
1859.0;1804.1;262143;262143;12600;;;;;;;;;;;;;;;;;;
1904.0;1807.4;;;;;;;;;;-21.011993;-2.7809992;-24.246956;;;;;;;;;
1904.0;1807.4;;;;;;;1.0081484;0.03686636;0.31727043;;;;;;;;;;;;
1904.0;1807.4;;;;;;;;;;-20.90518;-1.2588885;-23.319956;;;;;;;;;
1904.0;1807.4;;;;;;;1.0276803;0.03338725;0.30957976;;;;;;;;;;;;
1904.0;1810.2;;;;;;;;;;;;;1492;;;;;;;;
1904.0;1810.2;;;;;;;;;;;;;1086;;;;;;;;
1904.0;1810.2;;;;;;;;;;;;;638;;;;;;;;
1904.0;1810.2;;;;;;;;;;;;;314;;;;;;;;
1904.0;1810.2;;;;;;;;;;;;;129;;;;;;;;
1904.0;1811.0;;;;-0.7837564;-0.1556473;0.15172578;;;;;;;;;;;;;;;
1904.0;1811.0;;;;-0.7823869;-0.15558626;0.14947893;;;;;;;;;;;;;;;
1904.0;1811.0;;;;-0.78045285;-0.15539552;0.14703752;;;;;;;;;;;;;;;
1904.0;1811.0;;;;-0.77842724;-0.15537263;0.1450081;;;;;;;;;;;;;;;
1904.0;1811.0;;;;-0.77640545;-0.15541078;0.14294054;;;;;;;;;;;;;;;
1904.0;1816.8;;;;;;;;;;-20.714437;0.2822962;-22.358622;;;;;;;;;
1904.0;1816.8;;;;;;;1.0464187;0.02252266;0.30347607;;;;;;;;;;;;
1904.0;1816.8;;;;;;;;;;-20.58092;1.9379253;-21.328623;;;;;;;;;
1904.0;1816.8;;;;;;;1.0586871;0.012817774;0.2979217;;;;;;;;;;;;
1904.0;1820.9;;;;-0.77411664;-0.15560152;0.14170076;;;;;;;;;;;;;;;
1904.0;1820.9;;;;-0.77170575;-0.15637971;0.14079286;;;;;;;;;;;;;;;
1904.0;1820.9;;;;-0.7688676;-0.15699007;0.14020921;;;;;;;;;;;;;;;
1904.0;1820.9;;;;-0.7675363;-0.15853883;0.13943483;;;;;;;;;;;;;;;
1904.0;1820.9;;;;-0.76565945;-0.16025545;0.13932039;;;;;;;;;;;;;;;
1904.0;1824.1;262143;262143;12598;;;;;;;;;;;;;;;;;;
1907.0;1826.4;;;;;;;;;;-20.336771;3.4447768;-20.17655;;;;;;;;;
1907.0;1826.4;;;;;;;1.0669271;0.0010376293;0.29535812;;;;;;;;;;;;
1907.0;1826.4;;;;;;;;;;-19.943846;4.6807766;-18.871883;;;;;;;;;
1907.0;1826.4;;;;;;;1.0671102;-0.010193182;0.29047516;;;;;;;;;;;;
1907.0;1831.0;;;;-0.7651979;-0.16046907;0.13936235;;;;;;;;;;;;;;;
1907.0;1831.0;;;;-0.765072;-0.16083147;0.1394005;;;;;;;;;;;;;;;
1907.0;1831.0;;;;-0.7651788;-0.16186143;0.13982774;;;;;;;;;;;;;;;
1907.0;1831.0;;;;-0.7646524;-0.16215517;0.14010622;;;;;;;;;;;;;;;
1907.0;1831.0;;;;-0.76379025;-0.16285326;0.14052965;;;;;;;;;;;;;;;
1907.0;1836.0;;;;;;;;;;-19.489883;5.8061466;-17.574846;;;;;;;;;
1907.0;1836.0;;;;;;;1.0683309;-0.018982513;0.28736228;;;;;;;;;;;;
1907.0;1836.0;;;;;;;;;;-19.039736;6.75985;-16.4037;;;;;;;;;
1907.0;1836.0;;;;;;;1.076632;-0.026734214;0.28412732;;;;;;;;;;;;
1907.0;1841.1;;;;-0.7631761;-0.16289522;0.14078523;;;;;;;;;;;;;;;
1907.0;1841.1;;;;-0.76171887;-0.16308214;0.14060976;;;;;;;;;;;;;;;
1907.0;1841.1;;;;-0.7607614;-0.16326143;0.14103319;;;;;;;;;;;;;;;
1907.0;1841.1;;;;-0.7596208;-0.16289903;0.14123537;;;;;;;;;;;;;;;
1907.0;1841.1;;;;-0.75907147;-0.16277696;0.14127733;;;;;;;;;;;;;;;
1908.0;1841.9;;;;;;;;;;;;;;;;;-7.026887;-0.6485183;-10.811182;;1735.2
1908.0;1841.9;;;;;;;;;;;;;;0.8413953;0.25818658;-0.11456648;;;;;1735.2
1908.0;1841.9;;;;;;;;;;;;;;;;;-9.765923;0.16403699;-10.402997;;1735.2
1908.0;1841.9;;;;;;;;;;;;;;0.84859765;0.25165564;-0.091372415;;;;;1735.2
1908.0;1841.9;;;;;;;;;;;;;;;;;-12.142552;1.0147405;-10.109256;;1744.9
1908.0;1841.9;;;;;;;;;;;;;;0.8471328;0.24109623;-0.0568865;;;;;1744.9
1908.0;1841.9;;;;;;;;;;;;;;;;;-14.805292;1.575518;-9.998627;;1744.9
1908.0;1841.9;;;;;;;;;;;;;;0.86410105;0.22614215;-0.021362957;;;;;1744.9
1908.0;1841.9;;;;;;;;;;;;;;;;;-16.666922;3.6622212;-9.857478;;1754.6
1908.0;1841.9;;;;;;;;;;;;;;0.8730735;0.21710868;0.01782281;;;;;1754.6
1908.0;1841.9;;;;;;;;;;;;;;;;;-17.090364;5.882443;-10.059664;;1754.6
1908.0;1841.9;;;;;;;;;;;;;;0.8753929;0.2207709;0.020935697;;;;;1754.6
1908.0;1844.3;262143;262143;12599;;;;;;;;;;;;;;;;;;
1908.0;1845.5;;;;;;;;;;-18.4637;7.354961;-15.533921;;;;;;;;;
1908.0;1845.5;;;;;;;1.0871303;-0.0336314;0.27985474;;;;;;;;;;;;
1908.0;1845.5;;;;;;;;;;-17.887661;7.438887;-14.797663;;;;;;;;;
1908.0;1845.5;;;;;;;1.0970794;-0.043702506;0.27234718;;;;;;;;;;;;
1908.0;1850.3;;;;;;;;;;;;;-79;;;;;;;;
1908.0;1850.3;;;;;;;;;;;;;-372;;;;;;;;
1908.0;1850.3;;;;;;;;;;;;;-626;;;;;;;;
1908.0;1850.3;;;;;;;;;;;;;-817;;;;;;;;
1908.0;1850.3;;;;;;;;;;;;;-1175;;;;;;;;
1909.0;1851.1;;;;-0.7583047;-0.16255952;0.14179231;;;;;;;;;;;;;;;
1909.0;1851.1;;;;-0.7576295;-0.16234209;0.1417389;;;;;;;;;;;;;;;
1909.0;1851.1;;;;-0.757084;-0.16249467;0.14237978;;;;;;;;;;;;;;;
1909.0;1851.1;;;;-0.7563592;-0.16215898;0.14212419;;;;;;;;;;;;;;;
1909.0;1851.1;;;;-0.7555772;-0.1618767;0.14195253;;;;;;;;;;;;;;;
1909.0;1855.2;;;;;;;;;;-17.30781;7.126072;-14.259773;;;;;;;;;
1909.0;1855.2;;;;;;;1.1067232;-0.053590503;0.26789147;;;;;;;;;;;;
1909.0;1855.2;;;;;;;;;;-16.640219;6.5881834;-13.874477;;;;;;;;;
1909.0;1855.2;;;;;;;1.1151463;-0.060487688;0.25818658;;;;;;;;;;;;
1909.0;1857.0;;;;;;;;;;;;;;;;;-17.082735;8.003479;-10.467849;;1764.1
1909.0;1857.0;;;;;;;;;;;;;;0.8716086;0.235786;0.0044557024;;;;;1764.1
1909.0;1857.0;;;;;;;;;;;;;;;;;-17.891476;9.712516;-10.86459;;1764.1
1909.0;1857.0;;;;;;;;;;;;;;0.8628193;0.25385296;-0.026917325;;;;;1764.1
1909.0;1857.0;;;;;;;;;;;;;;;;;-19.35255;10.738701;-11.116366;;1773.8
1909.0;1857.0;;;;;;;;;;;;;;0.85055083;0.27033296;-0.05145421;;;;;1773.8
1909.0;1857.0;;;;;;;;;;;;;;;;;-21.061586;11.429182;-11.307108;;1773.8
1909.0;1857.0;;;;;;;;;;;;;;0.8464003;0.2791223;-0.06494339;;;;;1773.8
1909.0;1857.0;;;;;;;;;;;;;;;;;-22.8164;12.0052185;-11.799219;;1783.4
1909.0;1857.0;;;;;;;;;;;;;;0.82198554;0.2927946;-0.083803825;;;;;1783.4
1909.0;1857.0;;;;;;;;;;;;;;;;;-25.58977;11.646626;-12.256997;;1783.4
1909.0;1857.0;;;;;;;;;;;;;;0.79317605;0.30146185;-0.09753716;;;;;1783.4
1967.0;1861.1;;;;-0.754696;-0.1617241;0.1421776;;;;;;;;;;;;;;;
1967.0;1861.1;;;;-0.7544557;-0.16142274;0.14170839;;;;;;;;;;;;;;;
1967.0;1861.1;;;;-0.7537919;-0.16110612;0.14117433;;;;;;;;;;;;;;;
1967.0;1861.1;;;;-0.7530023;-0.16118242;0.14047243;;;;;;;;;;;;;;;
1967.0;1861.1;;;;-0.75143445;-0.16075899;0.13954546;;;;;;;;;;;;;;;
1967.0;1864.7;;;;;;;;;;-16.014587;5.9930725;-13.485367;;;;;;;;;
1967.0;1864.7;;;;;;;1.1199683;-0.06634724;0.2503128;;;;;;;;;;;;
1967.0;1864.7;;;;;;;;;;-15.392773;5.199591;-13.1077;;;;;;;;;
1967.0;1864.7;;;;;;;1.1280862;-0.06994843;0.24292734;;;;;;;;;;;;
1967.0;1864.4;262143;262143;12594;;;;;;;;;;;;;;;;;;
1967.0;1871.2;;;;-0.74932104;-0.15997697;0.13902284;;;;;;;;;;;;;;;
1967.0;1871.2;;;;-0.74680334;-0.15978624;0.13872148;;;;;;;;;;;;;;;
1967.0;1871.2;;;;-0.74345404;-0.15930177;0.13770677;;;;;;;;;;;;;;;
1967.0;1871.2;;;;-0.73987204;-0.1588669;0.13754274;;;;;;;;;;;;;;;
1967.0;1871.2;;;;-0.73553854;-0.15888979;0.13731767;;;;;;;;;;;;;;;
1967.0;1874.0;;;;;;;;;;-14.774774;4.352702;-12.932219;;;;;;;;;
1967.0;1874.0;;;;;;;1.1358379;-0.07159642;0.23541978;;;;;;;;;;;;
1967.0;1874.0;;;;;;;;;;-14.210181;3.4180732;-12.977996;;;;;;;;;
1967.0;1874.0;;;;;;;1.1412091;-0.072328866;0.22980438;;;;;;;;;;;;
1968.0;1880.9;;;;-0.7314034;-0.15882494;0.136467;;;;;;;;;;;;;;;
1968.0;1880.9;;;;-0.7271958;-0.15903474;0.13610078;;;;;;;;;;;;;;;
1968.0;1880.9;;;;-0.72235876;-0.15926363;0.13585283;;;;;;;;;;;;;;;
1968.0;1880.9;;;;-0.7185326;-0.1593361;0.13554765;;;;;;;;;;;;;;;
1968.0;1880.9;;;;-0.7144051;-0.15943147;0.13460542;;;;;;;;;;;;;;;
1968.0;1883.6;;;;;;;;;;-13.672293;2.517777;-13.176367;;;;;;;;;
1968.0;1883.6;;;;;;;1.1380962;-0.07318339;0.22559282;;;;;;;;;;;;
1968.0;1883.6;;;;;;;;;;-13.2107;1.781518;-13.30607;;;;;;;;;
1968.0;1883.6;;;;;;;1.1358379;-0.07477035;0.22315134;;;;;;;;;;;;
1968.0;1884.3;262143;262143;12594;;;;;;;;;;;;;;;;;;
1968.0;1890.4;;;;;;;;;;;;;-1755;;;;;;;;
1968.0;1890.4;;;;;;;;;;;;;-2226;;;;;;;;
1968.0;1890.4;;;;;;;;;;;;;-2470;;;;;;;;
1968.0;1890.4;;;;;;;;;;;;;-2719;;;;;;;;
1968.0;1890.4;;;;;;;;;;;;;-3158;;;;;;;;
1968.0;1891.1;;;;-0.71088415;-0.15967561;0.1340294;;;;;;;;;;;;;;;
1968.0;1891.1;;;;-0.7076989;-0.15975954;0.13327028;;;;;;;;;;;;;;;
1968.0;1891.1;;;;-0.7046662;-0.1601639;0.1326027;;;;;;;;;;;;;;;
1968.0;1891.1;;;;-0.7028046;-0.16095354;0.13095857;;;;;;;;;;;;;;;
1968.0;1891.1;;;;-0.7017022;-0.161644;0.12994386;;;;;;;;;;;;;;;
1968.0;1893.2;;;;;;;;;;-12.722404;1.5068514;-13.439589;;;;;;;;;
1968.0;1893.2;;;;;;;1.1341288;-0.07470931;0.21955016;;;;;;;;;;;;
1968.0;1893.2;;;;;;;;;;-12.302774;1.2436292;-13.912625;;;;;;;;;
1968.0;1893.2;;;;;;;1.1283303;-0.07293924;0.21674246;;;;;;;;;;;;
1970.0;1901.2;;;;-0.69977194;-0.16173555;0.12881471;;;;;;;;;;;;;;;
1970.0;1901.2;;;;-0.6973954;-0.16134645;0.12703325;;;;;;;;;;;;;;;
1970.0;1901.2;;;;-0.69588095;-0.16155626;0.12570573;;;;;;;;;;;;;;;
1970.0;1901.2;;;;-0.692936;-0.16239168;0.12432481;;;;;;;;;;;;;;;
1970.0;1901.2;;;;-0.68928915;-0.1642151;0.1225052;;;;;;;;;;;;;;;
1970.0;1902.4;;;;;;;;;;;;;;;;;-28.405102;10.429701;-12.672811;;1792.8
1970.0;1902.4;;;;;;;;;;;;;;0.76778466;0.31647694;-0.11157567;;;;;1792.8
1970.0;1902.4;;;;;;;;;;;;;;;;;-29.713585;9.140294;-13.340404;;1792.8
1970.0;1902.4;;;;;;;;;;;;;;0.7460555;0.3150731;-0.12500381;;;;;1792.8
1970.0;1902.4;;;;;;;;;;;;;;;;;-29.034548;9.342479;-13.9965515;;1802.4
1970.0;1902.4;;;;;;;;;;;;;;0.73000276;0.32093266;-0.09338664;;;;;1802.4
1970.0;1902.4;;;;;;;;;;;;;;;;;-29.221474;10.223701;-14.610737;;1802.4
1970.0;1902.4;;;;;;;;;;;;;;0.71303445;0.30555132;-0.031067843;;;;;1802.4
1970.0;1902.4;;;;;;;;;;;;;;;;;-28.550066;11.726737;-15.495773;;1812.1
1970.0;1902.4;;;;;;;;;;;;;;0.7066256;0.27790156;0.017761772;;;;;1812.1
1970.0;1902.4;;;;;;;;;;;;;;;;;-26.188696;13.454848;-16.727959;;1812.1
1970.0;1902.4;;;;;;;;;;;;;;0.6988739;0.2519608;0.01495407;;;;;1812.1
1970.0;1902.7;;;;;;;;;;-11.98996;0.8659627;-14.332255;;;;;;;;;
1970.0;1902.7;;;;;;;1.1182592;-0.0717185;0.21393475;;;;;;;;;;;;
1970.0;1902.7;;;;;;;;;;-11.646626;0.4463332;-14.770959;;;;;;;;;
1970.0;1902.7;;;;;;;1.0998261;-0.066652425;0.20978424;;;;;;;;;;;;
1970.0;1904.5;262143;262143;12583;;;;;;;;;;;;;;;;;;
1971.0;1909.5;;;;;;;;;;;;;;;;;-25.673697;15.4690695;-17.529068;;1821.6
1971.0;1909.5;;;;;;;;;;;;;;0.6826991;0.23438215;-0.021240883;;;;;1821.6
1971.0;1909.5;;;;;;;;;;;;;;;;;-27.111881;16.666922;-17.872402;;1821.6
1971.0;1909.5;;;;;;;;;;;;;;0.6696982;0.22986542;-0.075319685;;;;;1821.6
1971.0;1909.5;;;;;;;;;;;;;;;;;-29.534288;17.040771;-18.051699;;1831.3
1971.0;1909.5;;;;;;;;;;;;;;0.6614582;0.22254097;-0.11670278;;;;;1831.3
1971.0;1909.5;;;;;;;;;;;;;;;;;-32.20466;17.479475;-17.887661;;1831.3
1971.0;1909.5;;;;;;;;;;;;;;0.65974915;0.21503341;-0.12610248;;;;;1831.3
1971.0;1909.5;;;;;;;;;;;;;;;;;-33.37962;18.11655;-17.761772;;1840.9
1971.0;1909.5;;;;;;;;;;;;;;0.66078675;0.20960112;-0.11090426;;;;;1840.9
1971.0;1909.5;;;;;;;;;;;;;;;;;-32.235176;18.185217;-17.826624;;1840.9
1971.0;1909.5;;;;;;;;;;;;;;0.6606647;0.21704765;-0.10748619;;;;;1840.9
1971.0;1911.0;;;;-0.68264395;-0.16516496;0.12142564;;;;;;;;;;;;;;;
1971.0;1911.0;;;;-0.6780434;-0.16749574;0.11895372;;;;;;;;;;;;;;;
1971.0;1911.0;;;;-0.67551047;-0.17042924;0.11693956;;;;;;;;;;;;;;;
1971.0;1911.0;;;;-0.67226034;-0.17322542;0.11578752;;;;;;;;;;;;;;;
1971.0;1911.0;;;;-0.6674195;-0.17609788;0.11441423;;;;;;;;;;;;;;;
1971.0;1912.2;;;;;;;;;;-11.341441;0.18692587;-15.25544;;;;;;;;;
1971.0;1912.2;;;;;;;1.0791955;-0.05774102;0.20734276;;;;;;;;;;;;
1971.0;1912.2;;;;;;;;;;-11.097293;0.03051851;-15.732292;;;;;;;;;
1971.0;1912.2;;;;;;;1.0619221;-0.050294504;0.20368053;;;;;;;;;;;;
2027.0;1921.0;;;;-0.6623612;-0.17910005;0.11298372;;;;;;;;;;;;;;;
2027.0;1921.0;;;;-0.65881354;-0.18304445;0.11211778;;;;;;;;;;;;;;;
2027.0;1921.0;;;;-0.65811926;-0.18648149;0.11099245;;;;;;;;;;;;;;;
2027.0;1921.0;;;;-0.66006476;-0.19002154;0.11057283;;;;;;;;;;;;;;;
2027.0;1921.0;;;;-0.6631852;-0.19310763;0.10951616;;;;;;;;;;;;;;;
2027.0;1921.7;;;;;;;;;;-10.9408865;-0.21744438;-16.376995;;;;;;;;;
2027.0;1921.7;;;;;;;1.0474563;-0.039002657;0.19953002;;;;;;;;;;;;
2027.0;1921.7;;;;;;;;;;-10.887479;-0.3013703;-17.07892;;;;;;;;;
2027.0;1921.7;;;;;;;1.0352489;-0.029847102;0.19574572;;;;;;;;;;;;
2027.0;1924.5;262143;262143;12583;;;;;;;;;;;;;;;;;;
2027.0;1930.4;;;;;;;;;;;;;-3875;;;;;;;;
2027.0;1930.4;;;;;;;;;;;;;-4775;;;;;;;;
2027.0;1930.4;;;;;;;;;;;;;-5676;;;;;;;;
2027.0;1930.4;;;;;;;;;;;;;-6365;;;;;;;;
2027.0;1930.4;;;;;;;;;;;;;-6721;;;;;;;;
2027.0;1931.0;;;;-0.66694266;-0.19474414;0.10865785;;;;;;;;;;;;;;;
2027.0;1931.0;;;;-0.6717339;-0.19690326;0.10763551;;;;;;;;;;;;;;;
2027.0;1931.0;;;;-0.6763268;-0.19912723;0.10583116;;;;;;;;;;;;;;;
2027.0;1931.0;;;;-0.6796265;-0.20053867;0.104389206;;;;;;;;;;;;;;;
2027.0;1931.0;;;;-0.6807137;-0.20193484;0.10303499;;;;;;;;;;;;;;;
2027.0;1931.2;;;;;;;;;;-10.872219;-0.46540728;-17.765587;;;;;;;;;
2027.0;1931.2;;;;;;;1.0259713;-0.022766808;0.19202246;;;;;;;;;;;;
2027.0;1931.2;;;;;;;;;;-10.9408865;-0.57222205;-18.532366;;;;;;;;;
2027.0;1931.2;;;;;;;1.0121158;-0.015015107;0.18622394;;;;;;;;;;;;
2028.0;1940.6;;;;;;;;;;-10.963775;-0.3852962;-19.127476;;;;;;;;;
2028.0;1940.6;;;;;;;0.9931333;-0.006897183;0.18182927;;;;;;;;;;;;
2028.0;1940.6;;;;;;;;;;-11.1507;0.038148135;-19.596697;;;;;;;;;
2028.0;1940.6;;;;;;;0.9676809;0.0017700735;0.17664114;;;;;;;;;;;;
2028.0;1940.9;;;;-0.68072516;-0.2034531;0.10132219;;;;;;;;;;;;;;;
2028.0;1940.9;;;;-0.6807633;-0.20547488;0.09998323;;;;;;;;;;;;;;;
2028.0;1940.9;;;;-0.6804276;-0.20741275;0.0994301;;;;;;;;;;;;;;;
2028.0;1940.9;;;;-0.68062216;-0.20969775;0.09887697;;;;;;;;;;;;;;;
2028.0;1940.9;;;;-0.6824189;-0.21180728;0.098030105;;;;;;;;;;;;;;;
2028.0;1944.4;262143;262143;12582;;;;;;;;;;;;;;;;;;
2028.0;1950.2;;;;;;;;;;-11.272774;0.51118505;-19.886623;;;;;;;;;
2028.0;1950.2;;;;;;;0.94589067;0.00982696;0.1699881;;;;;;;;;;;;
2028.0;1950.2;;;;;;;;;;-11.482589;0.90029603;-20.119328;;;;;;;;;
2028.0;1950.2;;;;;;;0.9273965;0.020996734;0.16614276;;;;;;;;;;;;
2028.0;1951.0;;;;-0.684887;-0.21380618;0.0975609;;;;;;;;;;;;;;;
2028.0;1951.0;;;;-0.68801886;-0.2158089;0.09631349;;;;;;;;;;;;;;;
2028.0;1951.0;;;;-0.69216543;-0.2174454;0.09590532;;;;;;;;;;;;;;;
2028.0;1951.0;;;;-0.6971589;-0.21911243;0.09518434;;;;;;;;;;;;;;;
2028.0;1951.0;;;;-0.70107657;-0.22043613;0.09501268;;;;;;;;;;;;;;;
2028.0;1959.9;;;;;;;;;;-11.799219;1.3237404;-20.49318;;;;;;;;;
2028.0;1959.9;;;;;;;0.91091645;0.032654807;0.16272469;;;;;;;;;;;;
2028.0;1959.9;;;;;;;;;;-12.050997;1.701407;-20.954771;;;;;;;;;
2028.0;1959.9;;;;;;;0.8910184;0.038270213;0.15973388;;;;;;;;;;;;
2030.0;1961.1;;;;-0.70498663;-0.2219353;0.09511186;;;;;;;;;;;;;;;
2030.0;1961.1;;;;-0.70847327;-0.22260669;0.09500505;;;;;;;;;;;;;;;
2030.0;1961.1;;;;-0.7120858;-0.22362521;0.09560777;;;;;;;;;;;;;;;
2030.0;1961.1;;;;-0.7155953;-0.22405246;0.09587099;;;;;;;;;;;;;;;
2030.0;1961.1;;;;-0.71928793;-0.22423938;0.09586717;;;;;;;;;;;;;;;
2030.0;1962.1;;;;;;;;;;;;;;;;;-29.885252;17.658772;-17.803736;;1850.5
2030.0;1962.1;;;;;;;;;;;;;;0.6543779;0.21869564;-0.10968352;;;;;1850.5
2030.0;1962.1;;;;;;;;;;;;;;;;;-26.646475;15.572069;-17.643513;;1850.5
2030.0;1962.1;;;;;;;;;;;;;;0.6613361;0.2240669;-0.13751641;;;;;1850.5
2030.0;1962.1;;;;;;;;;;;;;;;;;-23.415327;13.42433;-17.040771;;1860.0
2030.0;1962.1;;;;;;;;;;;;;;0.67415386;0.23151341;-0.17493209;;;;;1860.0
2030.0;1962.1;;;;;;;;;;;;;;;;;-20.821253;12.211219;-16.10233;;1860.0
2030.0;1962.1;;;;;;;;;;;;;;0.6938078;0.23163548;-0.17523728;;;;;1860.0
2030.0;1962.1;;;;;;;;;;;;;;;;;-19.901882;11.070589;-14.786219;;1869.6
2030.0;1962.1;;;;;;;;;;;;;;0.72963655;0.22717978;-0.1610767;;;;;1869.6
2030.0;1962.1;;;;;;;;;;;;;;;;;-19.211403;10.570848;-13.161107;;1869.6
2030.0;1962.1;;;;;;;;;;;;;;0.77163;0.22644734;-0.14276558;;;;;1869.6
2030.0;1964.6;262143;262143;12580;;;;;;;;;;;;;;;;;;
2030.0;1969.3;;;;;;;;;;-12.314219;1.8959624;-21.237068;;;;;;;;;
2030.0;1969.3;;;;;;;0.8731956;0.04174932;0.15784173;;;;;;;;;;;;
2030.0;1969.3;;;;;;;;;;-12.684256;2.212592;-21.553698;;;;;;;;;
2030.0;1969.3;;;;;;;0.85842466;0.053529467;0.15753655;;;;;;;;;;;;
2031.0;1969.6;;;;;;;;;;;;;;;;;-17.643513;10.742516;-11.707664;;1879.3
2031.0;1969.6;;;;;;;;;;;;;;0.8108768;0.23944822;-0.12872708;;;;;1879.3
2031.0;1969.6;;;;;;;;;;;;;;;;;-15.732292;12.993256;-10.685293;;1879.3
2031.0;1969.6;;;;;;;;;;;;;;0.839198;0.25861385;-0.11517686;;;;;1879.3
2031.0;1969.6;;;;;;;;;;;;;;;;;-13.943144;15.65218;-10.265663;;1888.9
2031.0;1969.6;;;;;;;;;;;;;;0.8443861;0.27491075;-0.11816767;;;;;1888.9
2031.0;1969.6;;;;;;;;;;;;;;;;;-12.642292;16.937773;-10.620441;;1888.9
2031.0;1969.6;;;;;;;;;;;;;;0.84542376;0.27820674;-0.123783074;;;;;1888.9
2031.0;1969.6;;;;;;;;;;;;;;;;;-11.860256;18.215734;-11.478774;;1898.6
2031.0;1969.6;;;;;;;;;;;;;;0.84340954;0.26966155;-0.11255226;;;;;1898.6
2031.0;1969.6;;;;;;;;;;;;;;;;;-10.998108;20.14603;-13.054293;;1898.6
2031.0;1969.6;;;;;;;;;;;;;;0.8253426;0.26313058;-0.09851375;;;;;1898.6
2031.0;1970.5;;;;;;;;;;;;;-6859;;;;;;;;
2031.0;1970.5;;;;;;;;;;;;;-6927;;;;;;;;
2031.0;1970.5;;;;;;;;;;;;;-6782;;;;;;;;
2031.0;1970.5;;;;;;;;;;;;;-6066;;;;;;;;
2031.0;1970.5;;;;;;;;;;;;;-4670;;;;;;;;
2031.0;1971.0;;;;-0.72160345;-0.22447589;0.09590913;;;;;;;;;;;;;;;
2031.0;1971.0;;;;-0.7241631;-0.22511294;0.09599687;;;;;;;;;;;;;;;
2031.0;1971.0;;;;-0.72583014;-0.22518924;0.097030655;;;;;;;;;;;;;;;
2031.0;1971.0;;;;-0.7264443;-0.22550967;0.09812166;;;;;;;;;;;;;;;
2031.0;1971.0;;;;-0.72695166;-0.22619632;0.09933092;;;;;;;;;;;;;;;
2031.0;1978.8;;;;;;;;;;-13.027589;2.498703;-21.847439;;;;;;;;;
2031.0;1978.8;;;;;;;0.8434706;0.05938902;0.15863521;;;;;;;;;;;;
2031.0;1978.8;;;;;;;;;;-13.359478;2.7581105;-21.946625;;;;;;;;;
2031.0;1978.8;;;;;;;0.8384045;0.0672628;0.15692617;;;;;;;;;;;;
2085.0;1981.0;;;;-0.7280045;-0.22705081;0.100749984;;;;;;;;;;;;;;;
2085.0;1981.0;;;;-0.7293473;-0.22773746;0.10127641;;;;;;;;;;;;;;;
2085.0;1981.0;;;;-0.7309609;-0.22853854;0.10239412;;;;;;;;;;;;;;;
2085.0;1981.0;;;;-0.7329255;-0.22949985;0.10333635;;;;;;;;;;;;;;;
2085.0;1981.0;;;;-0.7358704;-0.23055652;0.10422517;;;;;;;;;;;;;;;
2085.0;1984.6;262143;262143;12569;;;;;;;;;;;;;;;;;;
2085.0;1988.4;;;;;;;;;;-13.626515;2.929777;-22.11829;;;;;;;;;
2085.0;1988.4;;;;;;;0.8321787;0.07721183;0.15778069;;;;;;;;;;;;
2085.0;1988.4;;;;;;;;;;-13.817255;3.0671103;-22.17551;;;;;;;;;
2085.0;1988.4;;;;;;;0.824427;0.08752709;0.15778069;;;;;;;;;;;;
2085.0;1991.0;;;;-0.739544;-0.23122409;0.10530855;;;;;;;;;;;;;;;
2085.0;1991.0;;;;-0.7439614;-0.23142627;0.10676958;;;;;;;;;;;;;;;
2085.0;1991.0;;;;-0.748272;-0.2314072;0.10884477;;;;;;;;;;;;;;;
2085.0;1991.0;;;;-0.7528955;-0.2313576;0.111087814;;;;;;;;;;;;;;;
2085.0;1991.0;;;;-0.7567483;-0.23078158;0.11296846;;;;;;;;;;;;;;;
2085.0;1997.4;;;;;;;;;;-14.057589;3.3875546;-22.072514;;;;;;;;;
2085.0;1997.4;;;;;;;0.8169805;0.09863582;0.15936765;;;;;;;;;;;;
2085.0;1997.4;;;;;;;;;;-14.297922;3.6660361;-21.794031;;;;;;;;;
2085.0;1997.4;;;;;;;0.8169805;0.10876797;0.15869625;;;;;;;;;;;;
2087.0;2000.6;;;;-0.7590066;-0.22960666;0.11538698;;;;;;;;;;;;;;;
2087.0;2000.6;;;;-0.7587663;-0.22927478;0.11796571;;;;;;;;;;;;;;;
2087.0;2000.6;;;;-0.75714505;-0.22843173;0.12017824;;;;;;;;;;;;;;;
2087.0;2000.6;;;;-0.75398266;-0.22820285;0.12313844;;;;;;;;;;;;;;;
2087.0;2000.6;;;;-0.7506219;-0.22822955;0.12703706;;;;;;;;;;;;;;;
2087.0;2004.3;262143;262143;12581;;;;;;;;;;;;;;;;;;
2087.0;2007.1;;;;;;;;;;-14.526811;3.9635916;-21.496475;;;;;;;;;
2087.0;2007.1;;;;;;;0.816126;0.118717;0.15814692;;;;;;;;;;;;
2087.0;2007.1;;;;;;;;;;-14.679403;4.1238136;-21.042513;;;;;;;;;
2087.0;2007.1;;;;;;;0.81752986;0.123661004;0.15533921;;;;;;;;;;;;
2087.0;2010.3;;;;;;;;;;;;;-2928;;;;;;;;
2087.0;2010.3;;;;;;;;;;;;;-1147;;;;;;;;
2087.0;2010.3;;;;;;;;;;;;;501;;;;;;;;
2087.0;2010.3;;;;;;;;;;;;;1911;;;;;;;;
2087.0;2010.3;;;;;;;;;;;;;3018;;;;;;;;
2087.0;2010.7;;;;-0.7470322;-0.22907642;0.13150407;;;;;;;;;;;;;;;
2087.0;2010.7;;;;-0.74325186;-0.22977832;0.13507463;;;;;;;;;;;;;;;
2087.0;2010.7;;;;-0.73961645;-0.23081973;0.13927461;;;;;;;;;;;;;;;
2087.0;2010.7;;;;-0.737053;-0.23217776;0.14318468;;;;;;;;;;;;;;;
2087.0;2010.7;;;;-0.73535544;-0.23425677;0.14749528;;;;;;;;;;;;;;;
2087.0;2016.7;;;;;;;;;;-14.927366;4.0627766;-20.523697;;;;;;;;;
2087.0;2016.7;;;;;;;0.8221076;0.13098544;0.15295877;;;;;;;;;;;;
2087.0;2016.7;;;;;;;;;;-15.060884;4.2878504;-20.142216;;;;;;;;;
2087.0;2016.7;;;;;;;0.82955414;0.14172795;0.15210426;;;;;;;;;;;;
2088.0;2020.9;;;;-0.734417;-0.23545459;0.15179445;;;;;;;;;;;;;;;
2088.0;2020.9;;;;-0.7329293;-0.23675159;0.15688325;;;;;;;;;;;;;;;
2088.0;2020.9;;;;-0.73125464;-0.23746112;0.1624756;;;;;;;;;;;;;;;
2088.0;2020.9;;;;-0.7301293;-0.23815921;0.16717912;;;;;;;;;;;;;;;
2088.0;2020.9;;;;-0.7296029;-0.23900607;0.17158891;;;;;;;;;;;;;;;
2088.0;2021.9;;;;;;;;;;;;;;;;;-10.433516;22.812586;-15.266884;;1908.3
2088.0;2021.9;;;;;;;;;;;;;;0.8042848;0.25995666;-0.07770012;;;;;1908.3
2088.0;2021.9;;;;;;;;;;;;;;;;;-9.166997;25.57451;-18.13181;;1908.3
2088.0;2021.9;;;;;;;;;;;;;;0.77462083;0.27283546;-0.07104709;;;;;1908.3
2088.0;2021.9;;;;;;;;;;;;;;;;;-7.461776;27.886288;-21.088291;;1917.8
2088.0;2021.9;;;;;;;;;;;;;;0.75032806;0.28858304;-0.08600116;;;;;1917.8
2088.0;2021.9;;;;;;;;;;;;;;;;;-6.2791834;30.720694;-23.903624;;1917.8
2088.0;2021.9;;;;;;;;;;;;;;0.725486;0.28852198;-0.09375286;;;;;1917.8
2088.0;2021.9;;;;;;;;;;;;;;;;;-5.8023314;33.875546;-26.528215;;1927.5
2088.0;2021.9;;;;;;;;;;;;;;0.70204777;0.28254035;-0.10687582;;;;;1927.5
2088.0;2021.9;;;;;;;;;;;;;;;;;-5.7908874;36.736656;-29.000214;;1927.5
2088.0;2021.9;;;;;;;;;;;;;;0.692404;0.27692497;-0.13525803;;;;;1927.5
2088.0;2024.4;262143;262143;12580;;;;;;;;;;;;;;;;;;
2088.0;2026.1;;;;;;;;;;-15.15244;4.562517;-19.74166;;;;;;;;;
2088.0;2026.1;;;;;;;0.8362682;0.14654988;0.15015107;;;;;;;;;;;;
2088.0;2026.1;;;;;;;;;;-15.13718;4.7265544;-19.119846;;;;;;;;;
2088.0;2026.1;;;;;;;0.8417005;0.14862514;0.14557329;;;;;;;;;;;;
2091.0;2029.4;;;;;;;;;;;;;;;;;-4.135258;41.31443;-31.743065;;1937.1
2091.0;2029.4;;;;;;;;;;;;;;0.6728721;0.27466658;-0.13782158;;;;;1937.1
2091.0;2029.4;;;;;;;;;;;;;;;;;-0.6408887;46.651356;-35.12299;;1937.1
2091.0;2029.4;;;;;;;;;;;;;;0.6504715;0.2773522;-0.119754635;;;;;1937.1
2091.0;2029.4;;;;;;;;;;;;;;;;;2.803888;50.454723;-39.094208;;1946.7
2091.0;2029.4;;;;;;;;;;;;;;0.66273993;0.2719199;-0.115970336;;;;;1946.7
2091.0;2029.4;;;;;;;;;;;;;;;;;5.8671837;55.661945;-43.35536;;1946.7
2091.0;2029.4;;;;;;;;;;;;;;0.6749474;0.2649617;-0.08783227;;;;;1946.7
2091.0;2029.4;;;;;;;;;;;;;;;;;9.23185;61.14002;-47.66228;;1956.4
2091.0;2029.4;;;;;;;;;;;;;;0.6978362;0.25208288;-0.050294504;;;;;1956.4
2091.0;2029.4;;;;;;;;;;;;;;;;;14.072847;68.12494;-51.683094;;1956.4
2091.0;2029.4;;;;;;;;;;;;;;0.700766;0.23993652;0.003051851;;;;;1956.4
2091.0;2030.6;;;;-0.73026663;-0.240078;0.17572404;;;;;;;;;;;;;;;
2091.0;2030.6;;;;-0.73055273;-0.24169162;0.18003465;;;;;;;;;;;;;;;
2091.0;2030.6;;;;-0.7310105;-0.2434273;0.18391801;;;;;;;;;;;;;;;
2091.0;2030.6;;;;-0.72985464;-0.24605945;0.18691255;;;;;;;;;;;;;;;
2091.0;2030.6;;;;-0.7276917;-0.25028232;0.18989566;;;;;;;;;;;;;;;
2091.0;2035.6;;;;;;;;;;-15.175328;5.0813317;-18.482773;;;;;;;;;
2091.0;2035.6;;;;;;;0.8478652;0.1511887;0.14654988;;;;;;;;;;;;
2091.0;2035.6;;;;;;;;;;-15.194403;5.176702;-17.81518;;;;;;;;;
2091.0;2035.6;;;;;;;0.8527482;0.15198217;0.15155491;;;;;;;;;;;;
2146.0;2040.6;;;;-0.7249871;-0.25534442;0.19229129;;;;;;;;;;;;;;;
2146.0;2040.6;;;;-0.7233544;-0.2619095;0.19490054;;;;;;;;;;;;;;;
2146.0;2040.6;;;;-0.722313;-0.2698479;0.19709781;;;;;;;;;;;;;;;
2146.0;2040.6;;;;-0.7218781;-0.27873614;0.19828418;;;;;;;;;;;;;;;
2146.0;2040.6;;;;-0.72412115;-0.28854755;0.19985965;;;;;;;;;;;;;;;
2146.0;2044.4;262143;262143;12578;;;;;;;;;;;;;;;;;;
2146.0;2045.1;;;;;;;;;;-15.133366;4.936369;-17.097994;;;;;;;;;
2146.0;2045.1;;;;;;;0.8572039;0.15247047;0.1511887;;;;;;;;;;;;
2146.0;2045.1;;;;;;;;;;-15.076143;5.0050354;-16.289255;;;;;;;;;
2146.0;2045.1;;;;;;;0.86336863;0.1535081;0.15228736;;;;;;;;;;;;
2146.0;2050.3;;;;;;;;;;;;;3721;;;;;;;;
2146.0;2050.3;;;;;;;;;;;;;4047;;;;;;;;
2146.0;2050.3;;;;;;;;;;;;;4204;;;;;;;;
2146.0;2050.3;;;;;;;;;;;;;4437;;;;;;;;
2146.0;2050.3;;;;;;;;;;;;;4593;;;;;;;;
2146.0;2050.6;;;;-0.7294617;-0.29941943;0.20089725;;;;;;;;;;;;;;;
2146.0;2050.6;;;;-0.73601156;-0.31039813;0.20147327;;;;;;;;;;;;;;;
2146.0;2050.6;;;;-0.744423;-0.32083514;0.2028313;;;;;;;;;;;;;;;
2146.0;2050.6;;;;-0.7550584;-0.33085254;0.20480731;;;;;;;;;;;;;;;
2146.0;2050.6;;;;-0.7683221;-0.3402138;0.2061806;;;;;;;;;;;;;;;
2146.0;2054.6;;;;;;;;;;-14.889218;5.138554;-15.522477;;;;;;;;;
2146.0;2054.6;;;;;;;0.8683737;0.1594287;0.15381329;;;;;;;;;;;;
2146.0;2054.6;;;;;;;;;;-14.603107;4.886776;-14.812922;;;;;;;;;
2146.0;2054.6;;;;;;;0.8789941;0.16150396;0.156621;;;;;;;;;;;;
2148.0;2060.6;;;;-0.7826005;-0.34839633;0.20873263;;;;;;;;;;;;;;;
2148.0;2060.6;;;;-0.7991296;-0.35609058;0.21209338;;;;;;;;;;;;;;;
2148.0;2060.6;;;;-0.81681836;-0.3615761;0.21668246;;;;;;;;;;;;;;;
2148.0;2060.6;;;;-0.8355714;-0.36623004;0.22347644;;;;;;;;;;;;;;;
2148.0;2060.6;;;;-0.854252;-0.3694344;0.23089221;;;;;;;;;;;;;;;
2148.0;2064.1;;;;;;;;;;-14.137699;4.730369;-14.198736;;;;;;;;;
2148.0;2064.1;;;;;;;0.89168984;0.1596118;0.15839106;;;;;;;;;;;;
2148.0;2064.1;;;;;;;;;;-13.672293;4.379406;-13.691366;;;;;;;;;
2148.0;2064.1;;;;;;;0.90694904;0.15955077;0.15924558;;;;;;;;;;;;
2148.0;2064.4;262143;262143;12575;;;;;;;;;;;;;;;;;;
2148.0;2070.7;;;;-0.8720666;-0.37134174;0.2394028;;;;;;;;;;;;;;;
2148.0;2070.7;;;;-0.88882077;-0.37241367;0.24798587;;;;;;;;;;;;;;;
2148.0;2070.7;;;;-0.9030229;-0.37297824;0.2568703;;;;;;;;;;;;;;;
2148.0;2070.7;;;;-0.9162141;-0.37280658;0.2652817;;;;;;;;;;;;;;;
2148.0;2070.7;;;;-0.9273187;-0.37207416;0.27479175;;;;;;;;;;;;;;;
2148.0;2073.8;;;;;;;;;;-13.176367;3.7041843;-13.19544;;;;;;;;;
2148.0;2073.8;;;;;;;0.9172033;0.15655996;0.15900144;;;;;;;;;;;;
2148.0;2073.8;;;;;;;;;;-12.684256;2.822962;-12.607959;;;;;;;;;
2148.0;2073.8;;;;;;;0.9211097;0.15289773;0.15826899;;;;;;;;;;;;
2149.0;2080.8;;;;-0.9382783;-0.37134555;0.28320697;;;;;;;;;;;;;;;
2149.0;2080.8;;;;-0.95090497;-0.36970142;0.2908478;;;;;;;;;;;;;;;
2149.0;2080.8;;;;-0.9665834;-0.36782458;0.29879382;;;;;;;;;;;;;;;
2149.0;2080.8;;;;-0.9860536;-0.36462405;0.30430987;;;;;;;;;;;;;;;
2149.0;2080.8;;;;-1.0064012;-0.36062625;0.30817416;;;;;;;;;;;;;;;
2149.0;2082.1;;;;;;;;;;;;;;;;;19.402143;72.61116;-55.600906;;1965.9
2149.0;2082.1;;;;;;;;;;;;;;0.694235;0.25318155;3.662221E-4;;;;;1965.9
2149.0;2082.1;;;;;;;;;;;;;;;;;23.426771;75.27009;-59.36613;;1965.9
2149.0;2082.1;;;;;;;;;;;;;;0.71572006;0.28278452;-0.01721244;;;;;1965.9
2149.0;2082.1;;;;;;;;;;;;;;;;;26.558733;78.40586;-63.383133;;1975.5
2149.0;2082.1;;;;;;;;;;;;;;0.71791744;0.31354716;-0.0024414808;;;;;1975.5
2149.0;2082.1;;;;;;;;;;;;;;;;;28.107548;80.12253;-67.060616;;1975.5
2149.0;2082.1;;;;;;;;;;;;;;0.7514878;0.32575458;0.007019257;;;;;1975.5
2149.0;2082.1;;;;;;;;;;;;;;;;;28.321177;83.02942;-70.51683;;1985.2
2149.0;2082.1;;;;;;;;;;;;;;0.7884762;0.3304544;0.0025635548;;;;;1985.2
2149.0;2082.1;;;;;;;;;;;;;;;;;28.511917;87.11509;-73.78231;;1985.2
2149.0;2082.1;;;;;;;;;;;;;;0.8042848;0.33985412;-0.012329478;;;;;1985.2
2149.0;2083.3;;;;;;;;;;-12.073886;1.9798884;-11.883144;;;;;;;;;
2149.0;2083.3;;;;;;;0.9264809;0.15124974;0.16016114;;;;;;;;;;;;
2149.0;2083.3;;;;;;;;;;-11.482589;1.1940367;-11.211737;;;;;;;;;
2149.0;2083.3;;;;;;;0.93276775;0.15259255;0.15936765;;;;;;;;;;;;
2149.0;2084.6;262143;262143;12561;;;;;;;;;;;;;;;;;;
2151.0;2089.6;;;;;;;;;;;;;;;;;29.240547;91.357155;-77.7955;;1994.8
2151.0;2089.6;;;;;;;;;;;;;;0.8207648;0.3373516;0.016357921;;;;;1994.8
2151.0;2089.6;;;;;;;;;;;;;;;;;30.636768;93.74905;-82.97983;;1994.8
2151.0;2089.6;;;;;;;;;;;;;;0.8611713;0.30835903;0.05267495;;;;;1994.8
2151.0;2089.6;;;;;;;;;;;;;;;;;34.352394;95.57634;-89.01486;;2004.5
2151.0;2089.6;;;;;;;;;;;;;;0.90102845;0.25782037;0.09533983;;;;;2004.5
2151.0;2089.6;;;;;;;;;;;;;;;;;39.204838;96.098976;-95.67553;;2004.5
2151.0;2089.6;;;;;;;;;;;;;;0.9574877;0.22083193;0.131901;;;;;2004.5
2151.0;2089.6;;;;;;;;;;;;;;;;;44.48454;95.286415;-102.28278;;2014.2
2151.0;2089.6;;;;;;;;;;;;;;1.0505692;0.27277443;0.11267434;;;;;2014.2
2151.0;2089.6;;;;;;;;;;;;;;;;;48.631245;94.90875;-108.34834;;2014.2
2151.0;2089.6;;;;;;;;;;;;;;1.1692861;0.3588977;0.10077212;;;;;2014.2
2151.0;2090.5;;;;;;;;;;;;;4385;;;;;;;;
2151.0;2090.5;;;;;;;;;;;;;3950;;;;;;;;
2151.0;2090.5;;;;;;;;;;;;;3680;;;;;;;;
2151.0;2090.5;;;;;;;;;;;;;3706;;;;;;;;
2151.0;2090.5;;;;;;;;;;;;;3724;;;;;;;;
2151.0;2090.7;;;;-1.0275193;-0.3564377;0.31187442;;;;;;;;;;;;;;;
2151.0;2090.7;;;;-1.0490495;-0.35156634;0.3148003;;;;;;;;;;;;;;;
2151.0;2090.7;;;;-1.0711824;-0.34549335;0.31729892;;;;;;;;;;;;;;;
2151.0;2090.7;;;;-1.0929872;-0.33913043;0.31834033;;;;;;;;;;;;;;;
2151.0;2090.7;;;;-1.1153108;-0.33095935;0.31925967;;;;;;;;;;;;;;;
2151.0;2092.8;;;;;;;;;;-10.891294;0.33951843;-10.605183;;;;;;;;;
2151.0;2092.8;;;;;;;0.93673515;0.15607166;0.16187018;;;;;;;;;;;;
2151.0;2092.8;;;;;;;;;;-10.334331;-0.5798517;-10.086368;;;;;;;;;
2151.0;2092.8;;;;;;;0.9400311;0.15649892;0.16180913;;;;;;;;;;;;
2206.0;2100.7;;;;-1.1353494;-0.32277682;0.32042316;;;;;;;;;;;;;;;
2206.0;2100.7;;;;-1.1545602;-0.31436923;0.32070926;;;;;;;;;;;;;;;
2206.0;2100.7;;;;-1.1719362;-0.30543903;0.32201388;;;;;;;;;;;;;;;
2206.0;2100.7;;;;-1.1858484;-0.29415134;0.32331088;;;;;;;;;;;;;;;
2206.0;2100.7;;;;-1.1971704;-0.28132632;0.32472995;;;;;;;;;;;;;;;
2206.0;2102.3;;;;;;;;;;-9.750664;-1.617481;-9.743034;;;;;;;;;
2206.0;2102.3;;;;;;;0.9501022;0.15967284;0.16241951;;;;;;;;;;;;
2206.0;2102.3;;;;;;;;;;-9.12122;-2.803888;-9.472182;;;;;;;;;
2206.0;2102.3;;;;;;;0.95468;0.15503404;0.16370128;;;;;;;;;;;;
2206.0;2104.6;262143;262143;12560;;;;;;;;;;;;;;;;;;
2206.0;2110.8;;;;-1.2137872;-0.27255633;0.32194522;;;;;;;;;;;;;;;
2206.0;2110.8;;;;-1.2331201;-0.26856616;0.31997302;;;;;;;;;;;;;;;
2206.0;2110.8;;;;-1.2452966;-0.26295474;0.32089236;;;;;;;;;;;;;;;
2206.0;2110.8;;;;-1.2526437;-0.25629428;0.32136157;;;;;;;;;;;;;;;
2206.0;2110.8;;;;-1.2622644;-0.25223926;0.3206139;;;;;;;;;;;;;;;
2206.0;2111.9;;;;;;;;;;-8.411665;-4.1772213;-8.964812;;;;;;;;;
2206.0;2111.9;;;;;;;0.9683523;0.1507004;0.1633961;;;;;;;;;;;;
2206.0;2111.9;;;;;;;;;;-7.7326274;-5.260628;-8.831293;;;;;;;;;
2206.0;2111.9;;;;;;;0.981048;0.15381329;0.16089359;;;;;;;;;;;;
2207.0;2120.7;;;;-1.2719346;-0.2502747;0.32196048;;;;;;;;;;;;;;;
2207.0;2120.7;;;;-1.2806245;-0.24890903;0.32503894;;;;;;;;;;;;;;;
2207.0;2120.7;;;;-1.2894593;-0.24826434;0.3272095;;;;;;;;;;;;;;;
2207.0;2120.7;;;;-1.2998582;-0.24933627;0.32880023;;;;;;;;;;;;;;;
2207.0;2120.7;;;;-1.3122712;-0.2527161;0.33222964;;;;;;;;;;;;;;;
2207.0;2121.4;;;;;;;;;;-7.0764794;-6.168554;-8.651998;;;;;;;;;
2207.0;2121.4;;;;;;;0.9922788;0.15784173;0.1612598;;;;;;;;;;;;
2207.0;2121.4;;;;;;;;;;-6.5652943;-7.045961;-8.457442;;;;;;;;;
2207.0;2121.4;;;;;;;0.99563587;0.1596118;0.16302988;;;;;;;;;;;;
2207.0;2124.7;262143;262143;12556;;;;;;;;;;;;;;;;;;
2207.0;2130.7;;;;;;;;;;;;;3548;;;;;;;;
2207.0;2130.7;;;;;;;;;;;;;3469;;;;;;;;
2207.0;2130.7;;;;;;;;;;;;;3596;;;;;;;;
2207.0;2130.7;;;;;;;;;;;;;3493;;;;;;;;
2207.0;2130.7;;;;;;;;;;;;;2905;;;;;;;;
2207.0;2130.8;;;;-1.3274423;-0.25755695;0.33678058;;;;;;;;;;;;;;;
2207.0;2130.8;;;;-1.3431436;-0.26335528;0.3405762;;;;;;;;;;;;;;;
2207.0;2130.8;;;;-1.3598138;-0.26996997;0.34546664;;;;;;;;;;;;;;;
2207.0;2130.8;;;;-1.3778077;-0.2768555;0.35105518;;;;;;;;;;;;;;;
2207.0;2130.8;;;;-1.3952523;-0.28279498;0.35847858;;;;;;;;;;;;;;;
2207.0;2131.0;;;;;;;;;;-5.954924;-7.854701;-8.117924;;;;;;;;;
2207.0;2131.0;;;;;;;1.0033265;0.16193122;0.16034424;;;;;;;;;;;;
2207.0;2131.0;;;;;;;;;;-5.344554;-8.308664;-7.9195538;;;;;;;;;
2207.0;2131.0;;;;;;;1.0046083;0.16364025;0.15930662;;;;;;;;;;;;
2209.0;2140.6;;;;;;;;;;-4.852443;-8.930479;-7.805109;;;;;;;;;
2209.0;2140.6;;;;;;;1.0140691;0.16632588;0.16095462;;;;;;;;;;;;
2209.0;2140.6;;;;;;;;;;-4.5358133;-10.101626;-7.6639605;;;;;;;;;
2209.0;2140.6;;;;;;;1.0128483;0.16864528;0.16449477;;;;;;;;;;;;
2209.0;2141.0;;;;-1.4138833;-0.28706744;0.36734012;;;;;;;;;;;;;;;
2209.0;2141.0;;;;-1.4343759;-0.28953174;0.37758642;;;;;;;;;;;;;;;
2209.0;2141.0;;;;-1.4544603;-0.28936008;0.3881188;;;;;;;;;;;;;;;
2209.0;2141.0;;;;-1.473324;-0.28704455;0.3996964;;;;;;;;;;;;;;;
2209.0;2141.0;;;;-1.4924089;-0.28131488;0.41125876;;;;;;;;;;;;;;;
2209.0;2142.4;;;;;;;;;;;;;;;;;49.336987;93.97031;-114.72289;;2023.8
2209.0;2142.4;;;;;;;;;;;;;;1.3077182;0.37183753;0.1513718;;;;;2023.8
2209.0;2142.4;;;;;;;;;;;;;;;;;49.890133;91.09775;-120.467995;;2023.8
2209.0;2142.4;;;;;;;;;;;;;;1.4496902;0.3797113;0.16132084;;;;;2023.8
2209.0;2142.4;;;;;;;;;;;;;;;;;47.978912;88.02683;-124.02722;;2033.2
2209.0;2142.4;;;;;;;;;;;;;;1.5833002;0.4316538;0.14502396;;;;;2033.2
2209.0;2142.4;;;;;;;;;;;;;;;;;42.931915;85.40224;-124.94278;;2033.2
2209.0;2142.4;;;;;;;;;;;;;;1.690054;0.46223333;0.1429487;;;;;2033.2
2209.0;2142.4;;;;;;;;;;;;;;;;;38.209175;82.49916;-124.96185;;2042.7
2209.0;2142.4;;;;;;;;;;;;;;1.7513351;0.4680929;0.15448469;;;;;2042.7
2209.0;2142.4;;;;;;;;;;;;;;;;;33.776363;79.596085;-124.988556;;2042.7
2209.0;2142.4;;;;;;;;;;;;;;1.7531053;0.43971068;0.16046633;;;;;2042.7
2210.0;2143.6;;;;;;;;;;;;;;;;;30.686361;76.39165;-124.96567;;2052.3
2210.0;2143.6;;;;;;;;;;;;;;1.7012239;0.43879512;0.17743461;;;;;2052.3
2210.0;2143.6;;;;;;;;;;;;;;;;;27.130957;71.527756;-123.74111;;2052.3
2210.0;2143.6;;;;;;;;;;;;;;1.625843;0.5287027;0.21143223;;;;;2052.3
2210.0;2143.6;;;;;;;;;;;;;;;;;21.10355;63.955353;-118.93063;;2062.0
2210.0;2143.6;;;;;;;;;;;;;;1.569567;0.5314493;0.18231757;;;;;2062.0
2210.0;2143.6;;;;;;;;;;;;;;;;;17.212439;58.9198;-114.04004;;2062.0
2210.0;2143.6;;;;;;;;;;;;;;1.5297709;0.48750266;0.11523789;;;;;2062.0
2210.0;2143.6;;;;;;;;;;;;;;;;;15.381329;57.97754;-109.20667;;2071.6
2210.0;2143.6;;;;;;;;;;;;;;1.4485916;0.49488816;0.1259804;;;;;2071.6
2210.0;2143.6;;;;;;;;;;;;;;;;;13.30607;54.71206;-102.54982;;2071.6
2210.0;2143.6;;;;;;;;;;;;;;1.3821223;0.5607471;0.14056826;;;;;2071.6
2210.0;2144.9;262143;262143;12552;;;;;;;;;;;;;;;;;;
2210.0;2150.1;;;;;;;;;;-4.299295;-11.165959;-7.6067386;;;;;;;;;
2210.0;2150.1;;;;;;;1.0112613;0.16742454;0.16260262;;;;;;;;;;;;
2210.0;2150.1;;;;;;;;;;-4.1314435;-12.0052185;-7.6868496;;;;;;;;;
2210.0;2150.1;;;;;;;1.0160222;0.16913357;0.16589862;;;;;;;;;;;;
2210.0;2150.9;;;;-1.510155;-0.27375796;0.42143637;;;;;;;;;;;;;;;
2210.0;2150.9;;;;-1.5265124;-0.26441196;0.4308167;;;;;;;;;;;;;;;
2210.0;2150.9;;;;-1.5424426;-0.25313953;0.4389611;;;;;;;;;;;;;;;
2210.0;2150.9;;;;-1.5545237;-0.2403107;0.44647223;;;;;;;;;;;;;;;
2210.0;2150.9;;;;-1.5646212;-0.22709277;0.45252615;;;;;;;;;;;;;;;
2266.0;2159.6;;;;;;;;;;-4.039888;-12.703329;-7.9081087;;;;;;;;;
2266.0;2159.6;;;;;;;1.0180975;0.17303994;0.1666921;;;;;;;;;;;;
2266.0;2159.6;;;;;;;;;;-3.8872952;-13.130589;-7.9996643;;;;;;;;;
2266.0;2159.6;;;;;;;1.0162053;0.1779229;0.16699728;;;;;;;;;;;;
2266.0;2160.9;;;;-1.5693591;-0.21345904;0.45759207;;;;;;;;;;;;;;;
2266.0;2160.9;;;;-1.5703623;-0.20032123;0.46140677;;;;;;;;;;;;;;;
2266.0;2160.9;;;;-1.5676425;-0.18807986;0.46466833;;;;;;;;;;;;;;;
2266.0;2160.9;;;;-1.5631678;-0.17692567;0.46670538;;;;;;;;;;;;;;;
2266.0;2160.9;;;;-1.5582049;-0.16722871;0.46752173;;;;;;;;;;;;;;;
2266.0;2165.0;262143;262143;12545;;;;;;;;;;;;;;;;;;
2266.0;2169.3;;;;;;;;;;-3.7347028;-13.317514;-7.965331;;;;;;;;;
2266.0;2169.3;;;;;;;1.0176092;0.1817072;0.16992706;;;;;;;;;;;;
2266.0;2169.3;;;;;;;;;;-3.4752953;-13.496811;-7.9386272;;;;;;;;;
2266.0;2169.3;;;;;;;1.0181586;0.18640706;0.17084262;;;;;;;;;;;;
2266.0;2170.9;;;;;;;;;;;;;2394;;;;;;;;
2266.0;2170.9;;;;;;;;;;;;;2428;;;;;;;;
2266.0;2170.9;;;;;;;;;;;;;2460;;;;;;;;
2266.0;2170.9;;;;;;;;;;;;;2053;;;;;;;;
2266.0;2170.9;;;;;;;;;;;;;1744;;;;;;;;
2266.0;2171.0;;;;-1.5529368;-0.15972139;0.46715933;;;;;;;;;;;;;;;
2266.0;2171.0;;;;-1.5466197;-0.15383913;0.4664727;;;;;;;;;;;;;;;
2266.0;2171.0;;;;-1.5370333;-0.14773943;0.46835715;;;;;;;;;;;;;;;
2266.0;2171.0;;;;-1.5236666;-0.14200975;0.46906668;;;;;;;;;;;;;;;
2266.0;2171.0;;;;-1.5100558;-0.13822939;0.46866232;;;;;;;;;;;;;;;
2270.0;2178.6;;;;;;;;;;-3.4295175;-13.53496;-7.976775;;;;;;;;;
2270.0;2178.6;;;;;;;1.0155339;0.18884854;0.17413862;;;;;;;;;;;;
2270.0;2178.6;;;;;;;;;;-3.1968138;-13.214515;-8.129368;;;;;;;;;
2270.0;2178.6;;;;;;;1.0111393;0.18970306;0.17352824;;;;;;;;;;;;
2270.0;2180.8;;;;-1.4974595;-0.13689043;0.4692803;;;;;;;;;;;;;;;
2270.0;2180.8;;;;-1.4834939;-0.13505937;0.47128683;;;;;;;;;;;;;;;
2270.0;2180.8;;;;-1.468773;-0.13425829;0.47375113;;;;;;;;;;;;;;;
2270.0;2180.8;;;;-1.4540445;-0.1352501;0.4757462;;;;;;;;;;;;;;;
2270.0;2180.8;;;;-1.4404641;-0.13759233;0.47694403;;;;;;;;;;;;;;;
2270.0;2185.0;262143;262143;12547;;;;;;;;;;;;;;;;;;
2270.0;2188.2;;;;;;;;;;-3.051851;-12.543107;-8.228554;;;;;;;;;
2270.0;2188.2;;;;;;;0.99923706;0.19348735;0.1688284;;;;;;;;;;;;
2270.0;2188.2;;;;;;;;;;-3.1968138;-12.115849;-8.140813;;;;;;;;;
2270.0;2188.2;;;;;;;0.99502546;0.19824824;0.17389446;;;;;;;;;;;;
2270.0;2191.0;;;;-1.426529;-0.14006807;0.47940832;;;;;;;;;;;;;;;
2270.0;2191.0;;;;-1.4127504;-0.14348222;0.48206717;;;;;;;;;;;;;;;
2270.0;2191.0;;;;-1.4003183;-0.1478386;0.48403174;;;;;;;;;;;;;;;
2270.0;2191.0;;;;-1.3886949;-0.15274431;0.48653036;;;;;;;;;;;;;;;
2270.0;2191.0;;;;-1.3771135;-0.15773393;0.48894888;;;;;;;;;;;;;;;
2270.0;2197.9;;;;;;;;;;-3.3761103;-12.627033;-7.8737755;;;;;;;;;
2270.0;2197.9;;;;;;;0.9830622;0.20093387;0.1775567;;;;;;;;;;;;
2270.0;2197.9;;;;;;;;;;-3.7347028;-13.229774;-7.831813;;;;;;;;;
2270.0;2197.9;;;;;;;0.96963406;0.20056765;0.1805475;;;;;;;;;;;;
2271.0;2201.1;;;;-1.3666574;-0.16215898;0.49200827;;;;;;;;;;;;;;;
2271.0;2201.1;;;;-1.356865;-0.16679384;0.4957009;;;;;;;;;;;;;;;
2271.0;2201.1;;;;-1.3494874;-0.17240144;0.49784857;;;;;;;;;;;;;;;
2271.0;2201.1;;;;-1.3443376;-0.17853548;0.4999314;;;;;;;;;;;;;;;
2271.0;2201.1;;;;-1.3406373;-0.18465425;0.5022965;;;;;;;;;;;;;;;
2271.0;2205.3;262143;262143;12546;;;;;;;;;;;;;;;;;;
2271.0;2207.5;;;;;;;;;;-4.142888;-13.595997;-7.881405;;;;;;;;;
2271.0;2207.5;;;;;;;0.96761984;0.20416883;0.1810358;;;;;;;;;;;;
2271.0;2207.5;;;;;;;;;;-4.5587025;-14.156774;-7.98822;;;;;;;;;
2271.0;2207.5;;;;;;;0.96761984;0.20825832;0.1817072;;;;;;;;;;;;
2271.0;2210.1;;;;;;;;;;;;;;;;;10.254219;49.50865;-94.786674;;2081.3
2271.0;2210.1;;;;;;;;;;;;;;1.3664968;0.59096044;0.21668142;;;;;2081.3
2271.0;2210.1;;;;;;;;;;;;;;;;;7.1375165;42.95099;-87.889496;;2081.3
2271.0;2210.1;;;;;;;;;;;;;;1.3680227;0.6333811;0.28675193;;;;;2081.3
2271.0;2210.1;;;;;;;;;;;;;;;;;4.40611;35.51973;-80.99994;;2090.9
2271.0;2210.1;;;;;;;;;;;;;;1.383465;0.65779597;0.32526627;;;;;2090.9
2271.0;2210.1;;;;;;;;;;;;;;;;;1.617481;28.099916;-74.949646;;2090.9
2271.0;2210.1;;;;;;;;;;;;;;1.4353465;0.6473586;0.32319102;;;;;2090.9
2271.0;2210.1;;;;;;;;;;;;;;;;;-0.026703697;22.663807;-70.60838;;2100.5
2271.0;2210.1;;;;;;;;;;;;;;1.4792322;0.62215036;0.30378124;;;;;2100.5
2271.0;2210.1;;;;;;;;;;;;;;;;;-0.51118505;18.33018;-66.53417;;2100.5
2271.0;2210.1;;;;;;;;;;;;;;1.5040132;0.5749687;0.28754538;;;;;2100.5
2273.0;2211.0;;;;;;;;;;;;;;;;;-2.0371106;13.7371435;-64.432205;;2110.1
2273.0;2211.0;;;;;;;;;;;;;;1.5039521;0.46626177;0.24384288;;;;;2110.1
2273.0;2211.0;;;;;;;;;;;;;;;;;-1.2779626;10.124516;-62.80709;;2110.1
2273.0;2211.0;;;;;;;;;;;;;;1.480636;0.43592638;0.18439284;;;;;2110.1
2273.0;2211.0;;;;;;;;;;;;;;;;;-0.35477766;7.801294;-59.70565;;2119.8
2273.0;2211.0;;;;;;;;;;;;;;1.409711;0.45234534;0.15021211;;;;;2119.8
2273.0;2211.0;;;;;;;;;;;;;;;;;0.22888882;5.779443;-56.474503;;2119.8
2273.0;2211.0;;;;;;;;;;;;;;1.3293862;0.44917142;0.13080233;;;;;2119.8
2273.0;2211.0;;;;;;;;;;;;;;;;;1.6441847;4.730369;-53.178505;;2129.4
2273.0;2211.0;;;;;;;;;;;;;;1.2618793;0.42988372;0.121097445;;;;;2129.4
2273.0;2211.0;;;;;;;;;;;;;;;;;4.314554;4.696036;-49.645985;;2129.4
2273.0;2211.0;;;;;;;;;;;;;;1.1614124;0.40687278;0.13483077;;;;;2129.4
2273.0;2210.9;;;;-1.337967;-0.19054034;0.5040627;;;;;;;;;;;;;;;
2273.0;2210.9;;;;-1.3377649;-0.19664767;0.50542074;;;;;;;;;;;;;;;
2273.0;2210.9;;;;-1.338173;-0.20200351;0.5056916;;;;;;;;;;;;;;;
2273.0;2210.9;;;;-1.3369256;-0.20666888;0.5039559;;;;;;;;;;;;;;;
2273.0;2210.9;;;;-1.3368684;-0.21153262;0.50280005;;;;;;;;;;;;;;;
2273.0;2211.0;;;;;;;;;;;;;2045;;;;;;;;
2273.0;2211.0;;;;;;;;;;;;;2751;;;;;;;;
2273.0;2211.0;;;;;;;;;;;;;3141;;;;;;;;
2273.0;2211.0;;;;;;;;;;;;;2997;;;;;;;;
2273.0;2211.0;;;;;;;;;;;;;3020;;;;;;;;
2273.0;2216.9;;;;;;;;;;-4.9058504;-14.488663;-8.022553;;;;;;;;;
2273.0;2216.9;;;;;;;0.96395767;0.21161534;0.1826838;;;;;;;;;;;;
2273.0;2216.9;;;;;;;;;;-5.2110357;-14.473403;-7.8508863;;;;;;;;;
2273.0;2216.9;;;;;;;0.95992917;0.21613209;0.18695639;;;;;;;;;;;;
2323.0;2220.9;;;;-1.3349992;-0.21561435;0.5033875;;;;;;;;;;;;;;;
2323.0;2220.9;;;;-1.3298875;-0.21944812;0.50471884;;;;;;;;;;;;;;;
2323.0;2220.9;;;;-1.3226396;-0.2231789;0.50614935;;;;;;;;;;;;;;;
2323.0;2220.9;;;;-1.3141061;-0.22718433;0.506733;;;;;;;;;;;;;;;
2323.0;2220.9;;;;-1.3054315;-0.23022082;0.5067368;;;;;;;;;;;;;;;
2323.0;2225.2;262143;262143;12539;;;;;;;;;;;;;;;;;;
2323.0;2226.4;;;;;;;;;;-5.5352945;-14.069033;-7.4121833;;;;;;;;;
2323.0;2226.4;;;;;;;0.95290995;0.21778008;0.19135106;;;;;;;;;;;;
2323.0;2226.4;;;;;;;;;;-5.916776;-13.6379595;-6.96585;;;;;;;;;
2323.0;2226.4;;;;;;;0.9441816;0.21881771;0.19721061;;;;;;;;;;;;
2323.0;2230.9;;;;-1.2972375;-0.2336388;0.50658804;;;;;;;;;;;;;;;
2323.0;2230.9;;;;-1.2900048;-0.23733142;0.5059777;;;;;;;;;;;;;;;
2323.0;2230.9;;;;-1.2833787;-0.24116138;0.5050011;;;;;;;;;;;;;;;
2323.0;2230.9;;;;-1.2768785;-0.24465564;0.50443655;;;;;;;;;;;;;;;
2323.0;2230.9;;;;-1.2699319;-0.24717715;0.50389105;;;;;;;;;;;;;;;
2323.0;2235.4;;;;;;;;;;-6.260109;-13.199256;-6.717887;;;;;;;;;
2323.0;2235.4;;;;;;;0.93960387;0.21991637;0.20075075;;;;;;;;;;;;
2323.0;2235.4;;;;;;;;;;-6.5805535;-12.691885;-6.618702;;;;;;;;;
2323.0;2235.4;;;;;;;0.9324015;0.21924497;0.20612201;;;;;;;;;;;;
2325.0;2240.6;;;;-1.2622224;-0.24948886;0.5028649;;;;;;;;;;;;;;;
2325.0;2240.6;;;;-1.2540857;-0.25110248;0.5023652;;;;;;;;;;;;;;;
2325.0;2240.6;;;;-1.2448999;-0.25151828;0.5020638;;;;;;;;;;;;;;;
2325.0;2240.6;;;;-1.2359163;-0.25163653;0.5015946;;;;;;;;;;;;;;;
2325.0;2240.6;;;;-1.2272149;-0.25214007;0.5011216;;;;;;;;;;;;;;;
2325.0;2245.1;;;;;;;;;;-7.0116277;-12.218848;-6.4813685;;;;;;;;;
2325.0;2245.1;;;;;;;0.9324015;0.22034363;0.20892972;;;;;;;;;;;;
2325.0;2245.1;;;;;;;;;;-7.3206277;-11.768701;-6.344035;;;;;;;;;
2325.0;2245.1;;;;;;;0.9291055;0.22040467;0.21332438;;;;;;;;;;;;
2325.0;2244.9;262143;262143;12540;;;;;;;;;;;;;;;;;;
2325.0;2250.7;;;;-1.2171174;-0.25055698;0.50056845;;;;;;;;;;;;;;;
2325.0;2250.7;;;;-1.209469;-0.2507477;0.49936682;;;;;;;;;;;;;;;
2325.0;2250.7;;;;-1.2014657;-0.24953464;0.5000878;;;;;;;;;;;;;;;
2325.0;2250.7;;;;-1.193348;-0.24821475;0.4997521;;;;;;;;;;;;;;;
2325.0;2250.7;;;;-1.1852685;-0.24739078;0.49783713;;;;;;;;;;;;;;;
2325.0;2250.8;;;;;;;;;;;;;3662;;;;;;;;
2325.0;2250.8;;;;;;;;;;;;;4469;;;;;;;;
2325.0;2250.8;;;;;;;;;;;;;4974;;;;;;;;
2325.0;2250.8;;;;;;;;;;;;;5259;;;;;;;;
2325.0;2250.8;;;;;;;;;;;;;5359;;;;;;;;
2325.0;2254.7;;;;;;;;;;-7.675405;-11.249886;-6.221961;;;;;;;;;
2325.0;2254.7;;;;;;;0.92770165;0.21924497;0.2163152;;;;;;;;;;;;
2325.0;2254.7;;;;;;;;;;-8.007294;-10.624256;-6.0998874;;;;;;;;;
2325.0;2254.7;;;;;;;0.9250771;0.2197943;0.21784112;;;;;;;;;;;;
2328.0;2260.8;;;;-1.175255;-0.246048;0.49683005;;;;;;;;;;;;;;;
2328.0;2260.8;;;;-1.1628457;-0.24327472;0.4966851;;;;;;;;;;;;;;;
2328.0;2260.8;;;;-1.1493074;-0.2410126;0.49462134;;;;;;;;;;;;;;;
2328.0;2260.8;;;;-1.1349832;-0.2377663;0.49299628;;;;;;;;;;;;;;;
2328.0;2260.8;;;;-1.1218988;-0.2355347;0.49076086;;;;;;;;;;;;;;;
2328.0;2262.4;;;;;;;;;;;;;;;;;7.0154424;3.7270732;-45.888393;;2139.1
2328.0;2262.4;;;;;;;;;;;;;;1.0790734;0.37421796;0.14575641;;;;;2139.1
2328.0;2262.4;;;;;;;;;;;;;;;;;9.781182;2.9259622;-42.08121;;2139.1
2328.0;2262.4;;;;;;;;;;;;;;1.0019226;0.35309917;0.15948974;;;;;2139.1
2328.0;2262.4;;;;;;;;;;;;;;;;;11.909848;1.7242957;-37.987915;;2148.7
2328.0;2262.4;;;;;;;;;;;;;;0.9573046;0.34449294;0.17108676;;;;;2148.7
2328.0;2262.4;;;;;;;;;;;;;;;;;13.599812;0.8049257;-33.795437;;2148.7
2328.0;2262.4;;;;;;;;;;;;;;0.9230018;0.33234656;0.19019136;;;;;2148.7
2328.0;2262.4;;;;;;;;;;;;;;;;;14.5535145;0.20599994;-29.675436;;2158.4
2328.0;2262.4;;;;;;;;;;;;;;0.89785457;0.33039337;0.22095402;;;;;2158.4
2328.0;2262.4;;;;;;;;;;;;;;;;;14.812922;-0.07629627;-25.257881;;2158.4
2328.0;2262.4;;;;;;;;;;;;;;0.8957183;0.33161414;0.258858;;;;;2158.4
2329.0;2263.6;;;;;;;;;;;;;;;;;14.976958;-0.04196295;-20.840326;;2168.1
2329.0;2263.6;;;;;;;;;;;;;;0.903531;0.3432722;0.29407635;;;;;2168.1
2329.0;2263.6;;;;;;;;;;;;;;;;;15.346995;-0.045777764;-16.197699;;2168.1
2329.0;2263.6;;;;;;;;;;;;;;0.91421247;0.3404645;0.32569355;;;;;2168.1
2329.0;2263.6;;;;;;;;;;;;;;;;;16.228218;0.19455549;-11.314737;;2177.7
2329.0;2263.6;;;;;;;;;;;;;;0.93203527;0.34333324;0.34308907;;;;;2177.7
2329.0;2263.6;;;;;;;;;;;;;;;;;17.651142;0.8735923;-6.4127016;;2177.7
2329.0;2263.6;;;;;;;;;;;;;;0.94155705;0.35261086;0.35291603;;;;;2177.7
2329.0;2263.6;;;;;;;;;;;;;;;;;19.356365;1.7128513;-1.5259255;;2187.3
2329.0;2263.6;;;;;;;;;;;;;;0.94424266;0.37208167;0.36805323;;;;;2187.3
2329.0;2263.6;;;;;;;;;;;;;;;;;20.783106;1.3962218;3.5554063;;2187.3
2329.0;2263.6;;;;;;;;;;;;;;0.9605396;0.3850215;0.36597797;;;;;2187.3
2329.0;2264.1;;;;;;;;;;-8.259072;-10.048219;-6.015961;;;;;;;;;
2329.0;2264.1;;;;;;;0.9189123;0.21826838;0.22040467;;;;;;;;;;;;
2329.0;2264.1;;;;;;;;;;-8.594775;-9.434034;-5.8481092;;;;;;;;;
2329.0;2264.1;;;;;;;0.9162267;0.21613209;0.22046572;;;;;;;;;;;;
2329.0;2265.0;262143;262143;12538;;;;;;;;;;;;;;;;;;
2329.0;2270.7;;;;-1.1090547;-0.23245242;0.48750693;;;;;;;;;;;;;;;
2329.0;2270.7;;;;-1.0965387;-0.23007968;0.48332983;;;;;;;;;;;;;;;
