patientId;holterMac;flexMac;;;;;;;;;;;;;;;;;;;;
;CA:F3:0B:1E:33:78;D3:4A:5C:52:80:78;;;;;;;;;;;;;;;;;;;;
receivedTimeStamp;timeStamp;red;ir;green;adxl_accX;adxl_accY;adxl_accZ;lsm_accelX;lsm_accelY;lsm_accelZ;lsm_gyroX;lsm_gyroY;lsm_gyroZ;ecg;flex_lsm_accelX;flex_lsm_accelY;flex_lsm_accelZ;flex_lsm_gyroX;flex_lsm_gyroY;flex_lsm_gyroZ;flex_cmd;flexTimeStamp
301.0;227.0;;;;;;;;;;;;;;;;;;;;17;0.1
301.0;227.0;;;;;;;;;;;;;;;;;13.603626;1.659444;2.071444;;127.3
301.0;227.0;;;;;;;;;;;;;;0.6389355;-0.8850978;-0.11847285;;;;;127.3
301.0;227.0;;;;;;;;;;;;;;;;;-6.6415906;-17.410809;-4.554888;;127.3
301.0;227.0;;;;;;;;;;;;;;0.732017;-0.94106877;-0.20813623;;;;;127.3
301.0;227.0;;;;;;;;;;;;;;;;;-64.3788;-85.22294;-57.287056;;136.8
301.0;227.0;;;;;;;;;;;;;;0.794702;-0.9651784;-0.30426955;;;;;136.8
301.0;227.0;;;;;;;;;;;;;;;;;-122.38303;-124.988556;-117.12623;;136.8
301.0;227.0;;;;;;;;;;;;;;0.8726463;-0.97402877;-0.43482772;;;;;136.8
424.0;227.8;;;;;;;;;;;;;;;;;-56.29902;-124.988556;-57.14591;;146.5
424.0;227.8;;;;;;;;;;;;;;0.9341105;-0.9592578;-0.5799127;;;;;146.5
424.0;227.8;;;;;;;;;;;;;;;;;12.6117735;-124.92752;21.851254;;146.5
424.0;227.8;;;;;;;;;;;;;;0.94222844;-0.92983794;-0.6977752;;;;;146.5
424.0;227.8;;;;;;;;;;;;;;;;;10.03296;-92.43675;45.41917;;156.2
424.0;227.8;;;;;;;;;;;;;;0.92226934;-0.8811304;-0.7430036;;;;;156.2
424.0;227.8;;;;;;;;;;;;;;;;;3.807184;12.279885;77.69631;;156.2
424.0;227.8;;;;;;;;;;;;;;0.850734;-0.82760096;-0.70583206;;;;;156.2
424.0;227.8;;;;;;;;;;;;;;;;;0.3662221;31.95288;78.924675;;165.8
424.0;227.8;;;;;;;;;;;;;;0.7709586;-0.8010498;-0.6443068;;;;;165.8
424.0;227.8;;;;;;;;;;;;;;;;;-5.123295;43.916138;76.54043;;165.8
424.0;227.8;;;;;;;;;;;;;;0.67293316;-0.83962524;-0.5797296;;;;;165.8
424.0;279.5;;;;;;;;;;;;;;;;;-9.437849;55.604725;72.66839;;175.5
424.0;279.5;;;;;;;;;;;;;;0.583636;-0.8971831;-0.4774926;;;;;175.5
424.0;279.5;;;;;;;;;;;;;;;;;-11.242255;65.76739;67.09495;;175.5
424.0;279.5;;;;;;;;;;;;;;0.4975738;-0.9466842;-0.33729056;;;;;175.5
424.0;279.5;;;;;;;;;;;;;;;;;-10.567034;75.243385;61.17435;;185.2
424.0;279.5;;;;;;;;;;;;;;0.38911098;-0.97848445;-0.16516617;;;;;185.2
424.0;279.5;;;;;;;;;;;;;;;;;-8.144628;81.560715;56.13117;;185.2
424.0;279.5;;;;;;;;;;;;;;0.2956023;-0.9713431;-0.025086215;;;;;185.2
424.0;279.5;;;;;;;;;;;;;;;;;-7.980591;86.14994;51.56865;;194.7
424.0;279.5;;;;;;;;;;;;;;0.21350749;-0.93887144;0.08270516;;;;;194.7
424.0;279.5;;;;;;;;;;;;;;;;;-9.212775;85.7532;48.100986;;194.7
424.0;279.5;;;;;;;;;;;;;;0.14307077;-0.9205603;0.11078219;;;;;194.7
426.0;294.6;;;;;;;;;;;;;;;;;-8.060701;81.9155;45.48021;;204.3
426.0;294.6;;;;;;;;;;;;;;0.08496353;-0.908475;0.098391674;;;;;204.3
426.0;294.6;;;;;;;;;;;;;;;;;-6.363109;75.85376;43.397324;;204.3
426.0;294.6;;;;;;;;;;;;;;0.042909026;-0.8819239;0.061830502;;;;;204.3
426.0;294.6;;;;;;;;;;;;;;;;;-9.605701;70.24598;40.72695;;214.0
426.0;294.6;;;;;;;;;;;;;;0.03869747;-0.85482347;-0.03997925;;;;;214.0
426.0;294.6;;;;;;;;;;;;;;;;;-17.040771;70.58168;36.236916;;214.0
426.0;294.6;;;;;;;;;;;;;;0.12018189;-0.8830836;-0.1732841;;;;;214.0
426.0;294.6;;;;;;;;;;;;;;;;;-29.4084;77.1775;30.026398;;223.6
426.0;294.6;;;;;;;;;;;;;;0.19727165;-1.0025941;-0.27307963;;;;;223.6
426.0;294.6;;;;;;;;;;;;;;;;;-44.457836;78.71486;25.242622;;223.6
426.0;294.6;;;;;;;;;;;;;;0.20300913;-1.1941893;-0.38294625;;;;;223.6
426.0;347.5;;;;;;;;;;;;;;;;;-53.7698;69.5555;21.626179;;233.2
426.0;347.5;;;;;;;;;;;;;;0.21662039;-1.3740044;-0.50679034;;;;;233.2
426.0;347.5;;;;;;;;;;;;;;;;;-54.567097;56.539352;18.539995;;233.2
426.0;347.5;;;;;;;;;;;;;;0.24488053;-1.4661092;-0.56953645;;;;;233.2
426.0;347.5;;;;;;;;;;;;;;;;;-48.64269;48.85632;16.518145;;242.8
426.0;347.5;;;;;;;;;;;;;;0.28052613;-1.5345927;-0.5042268;;;;;242.8
426.0;347.5;;;;;;;;;;;;;;;;;-29.911955;46.7658;15.060884;;242.8
426.0;347.5;;;;;;;;;;;;;;0.29847103;-1.5493027;-0.29187903;;;;;242.8
426.0;347.5;;;;;;;;;;;;;;;;;-6.008332;46.964172;13.798181;;252.5
426.0;347.5;;;;;;;;;;;;;;0.26947844;-1.4687338;-0.066652425;;;;;252.5
426.0;347.5;;;;;;;;;;;;;;;;;7.4274426;49.058506;14.32081;;252.5
426.0;347.5;;;;;;;;;;;;;;0.18652913;-1.3971374;0.08783227;;;;;252.5
487.0;349.2;;;;;;;;;;;;;;;;;8.705404;50.26017;15.472884;;262.2
487.0;349.2;;;;;;;;;;;;;;0.09271523;-1.3544115;0.14288767;;;;;262.2
487.0;349.2;;;;;;;;;;;;;;;;;1.2855922;46.36906;16.663107;;262.2
487.0;349.2;;;;;;;;;;;;;;0.046449173;-1.3661306;0.061159093;;;;;262.2
487.0;349.2;;;;;;;;;;;;;;;;;-4.8028507;37.022766;19.13129;;271.8
487.0;349.2;;;;;;;;;;;;;;0.031006806;-1.3415326;-0.06836146;;;;;271.8
487.0;349.2;;;;;;;;;;;;;;;;;-6.2181463;26.703697;21.81692;;271.8
487.0;349.2;;;;;;;;;;;;;;0.04895169;-1.2166508;-0.15204321;;;;;271.8
487.0;349.2;;;;;;;;;;;;;;;;;-6.8857384;22.499771;24.086735;;281.5
487.0;349.2;;;;;;;;;;;;;;0.05267495;-1.083407;-0.16534929;;;;;281.5
487.0;349.2;;;;;;;;;;;;;;;;;-6.6835537;24.437696;26.703697;;281.5
487.0;349.2;;;;;;;;;;;;;;0.039674062;-0.969573;-0.1389813;;;;;281.5
487.0;400.1;;;;;;;;;;;;;;;;;-7.3931093;30.73214;30.232397;;291.2
487.0;400.1;;;;;;;;;;;;;;0.003295999;-0.9083529;-0.09094516;;;;;291.2
487.0;400.1;;;;;;;;;;;;;;;;;-9.941404;38.041325;34.16547;;291.2
487.0;400.1;;;;;;;;;;;;;;-0.06335643;-0.898587;-0.042237617;;;;;291.2
487.0;400.1;;;;;;;;;;;;;;;;;-15.068514;42.210915;38.796658;;300.8
487.0;400.1;;;;;;;;;;;;;;-0.17358929;-0.9274575;-0.048646506;;;;;300.8
487.0;400.1;;;;;;;;;;;;;;;;;-22.408215;42.836544;44.10306;;300.8
487.0;400.1;;;;;;;;;;;;;;-0.2936491;-0.9609668;-0.12158574;;;;;300.8
487.0;400.1;;;;;;;;;;;;;;;;;-29.225288;42.95862;51.065094;;310.5
487.0;400.1;;;;;;;;;;;;;;-0.39436018;-1.0072329;-0.1975158;;;;;310.5
487.0;400.1;;;;;;;;;;;;;;;;;-30.644398;43.95047;59.171577;;310.5
487.0;400.1;;;;;;;;;;;;;;-0.45954773;-1.0444044;-0.21301919;;;;;310.5
548.0;401.0;;;;;;;;;;;;;;;;;-24.704735;45.602283;66.56469;;320.2
548.0;401.0;;;;;;;;;;;;;;-0.48316905;-1.0870082;-0.1551561;;;;;320.2
548.0;401.0;;;;;;;;;;;;;;;;;-13.863032;45.77395;71.150085;;320.2
548.0;401.0;;;;;;;;;;;;;;-0.45594653;-1.119541;-0.081667535;;;;;320.2
548.0;401.0;;;;;;;;;;;;;;;;;-3.0480363;44.057285;73.17194;;329.8
548.0;401.0;;;;;;;;;;;;;;-0.3798944;-1.1332743;-0.05182043;;;;;329.8
548.0;401.0;;;;;;;;;;;;;;;;;2.910703;41.98584;73.86243;;329.8
548.0;401.0;;;;;;;;;;;;;;-0.28730124;-1.1227759;-0.08752709;;;;;329.8
548.0;401.0;;;;;;;;;;;;;;;;;3.89111;41.96295;73.950165;;339.4
548.0;401.0;;;;;;;;;;;;;;-0.19354838;-1.0904874;-0.14123966;;;;;339.4
548.0;401.0;;;;;;;;;;;;;;;;;2.887814;42.94336;73.60301;;339.4
548.0;401.0;;;;;;;;;;;;;;-0.10242012;-1.0593585;-0.18073061;;;;;339.4
548.0;460.3;;;;;;;;;;;;;;;;;2.8115177;44.141212;72.61879;;349.1
548.0;460.3;;;;;;;;;;;;;;-0.0073854793;-1.0203558;-0.19611195;;;;;349.1
548.0;460.3;;;;;;;;;;;;;;;;;3.707999;45.15595;71.600235;;349.1
548.0;460.3;;;;;;;;;;;;;;0.06329539;-0.9823298;-0.20178838;;;;;349.1
548.0;460.3;;;;;;;;;;;;;;;;;2.845851;46.990875;69.34568;;358.7
548.0;460.3;;;;;;;;;;;;;;0.11236915;-0.9457686;-0.21991637;;;;;358.7
548.0;460.3;;;;;;;;;;;;;;;;;0.5645924;49.310284;66.62191;;358.7
548.0;460.3;;;;;;;;;;;;;;0.13068026;-0.9291055;-0.25940734;;;;;358.7
548.0;460.3;;;;;;;;;;;;;;;;;0.26703694;51.85095;63.962982;;368.3
548.0;460.3;;;;;;;;;;;;;;0.11389508;-0.9191565;-0.28034303;;;;;368.3
548.0;460.3;;;;;;;;;;;;;;;;;2.7886288;54.20469;62.13187;;368.3
548.0;460.3;;;;;;;;;;;;;;0.07391583;-0.9221473;-0.26654866;;;;;368.3
607.0;461.5;;;;;;;;;;;;;;;;;6.363109;56.29139;60.79287;;378.0
607.0;461.5;;;;;;;;;;;;;;0.029847102;-0.9427778;-0.23529771;;;;;378.0
607.0;461.5;;;;;;;;;;;;;;;;;10.54033;57.458725;60.27024;;378.0
607.0;461.5;;;;;;;;;;;;;;-0.013672292;-0.96047854;-0.19837031;;;;;378.0
607.0;461.5;;;;;;;;;;;;;;;;;13.309885;58.08817;60.312202;;387.6
607.0;461.5;;;;;;;;;;;;;;-0.058839686;-0.95815915;-0.19647816;;;;;387.6
607.0;461.5;;;;;;;;;;;;;;;;;13.5883665;58.51924;60.96835;;387.6
607.0;461.5;;;;;;;;;;;;;;-0.09967345;-0.9392987;-0.22925505;;;;;387.6
607.0;461.5;;;;;;;;;;;;;;;;;12.203589;58.01187;61.90298;;397.3
607.0;461.5;;;;;;;;;;;;;;-0.13245033;-0.9058504;-0.27112645;;;;;397.3
607.0;461.5;;;;;;;;;;;;;;;;;9.353924;56.573685;62.86431;;397.3
607.0;461.5;;;;;;;;;;;;;;-0.15863521;-0.8761254;-0.29883724;;;;;397.3
607.0;528.3;;;;;;;;;;;;;;;;;6.4470353;54.242836;63.32209;;406.9
607.0;528.3;;;;;;;;;;;;;;-0.19019136;-0.8717307;-0.29401532;;;;;406.9
607.0;528.3;;;;;;;;;;;;;;;;;4.1962953;51.194798;62.704094;;406.9
607.0;528.3;;;;;;;;;;;;;;-0.1904355;-0.8943144;-0.27802363;;;;;406.9
607.0;528.3;;;;;;;;;;;;;;;;;3.627888;47.47917;61.098057;;416.5
607.0;528.3;;;;;;;;;;;;;;-0.1685232;-0.92080444;-0.2636189;;;;;416.5
607.0;528.3;;;;;;;;;;;;;;;;;3.0976286;43.27143;58.85113;;416.5
607.0;528.3;;;;;;;;;;;;;;-0.14654988;-0.94387645;-0.25946838;;;;;416.5
607.0;528.3;;;;;;;;;;;;;;;;;2.906888;39.178135;56.360058;;426.2
607.0;528.3;;;;;;;;;;;;;;-0.12982574;-0.96389663;-0.2573321;;;;;426.2
607.0;528.3;;;;;;;;;;;;;;;;;3.2616658;34.993286;53.724022;;426.2
607.0;528.3;;;;;;;;;;;;;;-0.11767937;-0.97158724;-0.24732201;;;;;426.2
667.0;529.1;;;;;;;;;;;;;;;;;3.6622212;30.636768;51.22532;;435.8
667.0;529.1;;;;;;;;;;;;;;-0.11560412;-0.97109896;-0.2313303;;;;;435.8
667.0;529.1;;;;;;;;;;;;;;;;;3.4104435;25.46388;48.875393;;435.8
667.0;529.1;;;;;;;;;;;;;;-0.11993774;-0.96511734;-0.2278512;;;;;435.8
667.0;529.1;;;;;;;;;;;;;;;;;2.9030733;19.672993;46.491135;;445.5
667.0;529.1;;;;;;;;;;;;;;-0.12439345;-0.9576098;-0.22986542;;;;;445.5
667.0;529.1;;;;;;;;;;;;;;;;;1.5907773;13.431959;44.06873;;445.5
667.0;529.1;;;;;;;;;;;;;;-0.1267739;-0.9499191;-0.23108615;;;;;445.5
667.0;529.1;;;;;;;;;;;;;;;;;-0.9765923;7.229072;41.905727;;455.2
667.0;529.1;;;;;;;;;;;;;;-0.11859493;-0.9483932;-0.2412183;;;;;455.2
667.0;529.1;;;;;;;;;;;;;;;;;-3.9979248;2.1591845;40.00595;;455.2
667.0;529.1;;;;;;;;;;;;;;-0.10577715;-0.9535203;-0.24970244;;;;;455.2
667.0;581.1;;;;;;;;;;;;;;;;;-6.5233316;-1.4496292;38.19773;;464.8
667.0;581.1;;;;;;;;;;;;;;-0.08850368;-0.95437485;-0.25745416;;;;;464.8
667.0;581.1;;;;;;;;;;;;;;;;;-7.820368;-4.333628;36.44673;;464.8
667.0;581.1;;;;;;;;;;;;;;-0.07983642;-0.93960387;-0.26691487;;;;;464.8
667.0;581.1;;;;;;;;;;;;;;;;;-8.144628;-7.534257;34.581284;;474.5
667.0;581.1;;;;;;;;;;;;;;-0.07000946;-0.9209266;-0.27723014;;;;;474.5
667.0;581.1;;;;;;;;;;;;;;;;;-8.40785;-11.3986635;32.624287;;474.5
667.0;581.1;;;;;;;;;;;;;;-0.05896176;-0.9099399;-0.28797266;;;;;474.5
667.0;581.1;;;;;;;;;;;;;;;;;-8.747368;-15.541551;30.541397;;484.1
667.0;581.1;;;;;;;;;;;;;;-0.04608295;-0.9095737;-0.29914242;;;;;484.1
667.0;581.1;;;;;;;;;;;;;;;;;-9.258553;-19.447922;28.462324;;484.1
667.0;581.1;;;;;;;;;;;;;;-0.031067843;-0.91329694;-0.3200171;;;;;484.1
727.0;581.9;;;;;;;;;;;;;;;;;-9.681997;-22.427288;26.451918;;493.7
727.0;581.9;;;;;;;;;;;;;;-0.0126957;-0.9126865;-0.34229562;;;;;493.7
727.0;581.9;;;;;;;;;;;;;;;;;-9.830774;-24.47203;24.58266;;493.7
727.0;581.9;;;;;;;;;;;;;;0.0075685903;-0.9074984;-0.34852138;;;;;493.7
727.0;581.9;;;;;;;;;;;;;;;;;-9.544664;-26.066622;22.812586;;503.3
727.0;581.9;;;;;;;;;;;;;;0.024536882;-0.9076815;-0.34998626;;;;;503.3
727.0;581.9;;;;;;;;;;;;;;;;;-8.533738;-27.176733;21.07303;;503.3
727.0;581.9;;;;;;;;;;;;;;0.041627247;-0.90462965;-0.3355205;;;;;503.3
727.0;581.9;;;;;;;;;;;;;;;;;-8.060701;-27.51625;19.501328;;512.9
727.0;581.9;;;;;;;;;;;;;;0.054994356;-0.9081698;-0.31537828;;;;;512.9
727.0;581.9;;;;;;;;;;;;;;;;;-8.4421835;-27.092808;18.288218;;512.9
727.0;581.9;;;;;;;;;;;;;;0.06360058;-0.92696923;-0.29572436;;;;;512.9
727.0;641.3;;;;;;;;;;;;;;;;;-9.0983305;-26.345104;17.262032;;522.6
727.0;641.3;;;;;;;;;;;;;;0.06891079;-0.9519333;-0.276986;;;;;522.6
727.0;641.3;;;;;;;;;;;;;;;;;-9.403516;-25.776695;16.312143;;522.6
727.0;641.3;;;;;;;;;;;;;;0.06860561;-0.97537154;-0.25446334;;;;;522.6
727.0;641.3;;;;;;;;;;;;;;;;;-8.987701;-25.711843;15.148624;;532.2
727.0;641.3;;;;;;;;;;;;;;0.06964324;-0.9881283;-0.23352763;;;;;532.2
727.0;641.3;;;;;;;;;;;;;;;;;-8.529923;-25.757622;14.076662;;532.2
727.0;641.3;;;;;;;;;;;;;;0.06927702;-0.99557483;-0.22016053;;;;;532.2
727.0;641.3;;;;;;;;;;;;;;;;;-7.7936645;-25.608845;12.916959;;541.6
727.0;641.3;;;;;;;;;;;;;;0.07269509;-0.9938658;-0.2151555;;;;;541.6
727.0;641.3;;;;;;;;;;;;;;;;;-7.06122;-25.07477;11.757256;;541.6
727.0;641.3;;;;;;;;;;;;;;0.07824946;-0.9922178;-0.21082187;;;;;541.6
785.0;642.1;;;;;;;;;;;;;;;;;-6.4355907;-24.296549;10.635701;;551.3
785.0;642.1;;;;;;;;;;;;;;0.08709983;-0.99233985;-0.20606098;;;;;551.3
785.0;642.1;;;;;;;;;;;;;;;;;-6.2372203;-23.590809;9.708701;;551.3
785.0;642.1;;;;;;;;;;;;;;0.09814753;-0.9939268;-0.20996734;;;;;551.3
785.0;642.1;;;;;;;;;;;;;;;;;-6.195257;-22.583696;8.758812;;561.0
785.0;642.1;;;;;;;;;;;;;;0.1119419;-0.9966124;-0.21704765;;;;;561.0
785.0;642.1;;;;;;;;;;;;;;;;;-6.023591;-21.343884;7.9844055;;561.0
785.0;642.1;;;;;;;;;;;;;;0.12506485;-0.99484235;-0.2163152;;;;;561.0
785.0;642.1;;;;;;;;;;;;;;;;;-5.901517;-20.100252;7.3053684;;570.5
785.0;642.1;;;;;;;;;;;;;;0.13806574;-0.99252295;-0.21778008;;;;;570.5
785.0;642.1;;;;;;;;;;;;;;;;;-5.542924;-19.184698;6.389813;;570.5
785.0;642.1;;;;;;;;;;;;;;0.15472884;-0.9877621;-0.21601;;;;;570.5
785.0;716.6;;;;;;;;;;;;;;;;;-5.1347394;-18.456068;5.489517;;580.2
785.0;716.6;;;;;;;;;;;;;;0.17645802;-0.97885066;-0.21387371;;;;;580.2
785.0;716.6;;;;;;;;;;;;;;;;;-4.776147;-17.612995;4.459517;;580.2
785.0;716.6;;;;;;;;;;;;;;0.19782098;-0.9656056;-0.21405682;;;;;580.2
785.0;716.6;;;;;;;;;;;;;;;;;-4.837184;-16.502884;3.2921844;;589.8
785.0;716.6;;;;;;;;;;;;;;0.22510453;-0.9533372;-0.20905179;;;;;589.8
785.0;716.6;;;;;;;;;;;;;;;;;-5.054628;-15.354625;1.7509995;;589.8
785.0;716.6;;;;;;;;;;;;;;0.24976349;-0.9370403;-0.20545061;;;;;589.8
785.0;716.6;;;;;;;;;;;;;;;;;-5.3636284;-13.874477;-0.12970367;;599.5
785.0;716.6;;;;;;;;;;;;;;0.27442244;-0.92373425;-0.20410779;;;;;599.5
785.0;716.6;;;;;;;;;;;;;;;;;-5.4704432;-11.883144;-2.5444808;;599.5
785.0;716.6;;;;;;;;;;;;;;0.29401532;-0.908475;-0.19385357;;;;;599.5
846.0;717.5;;;;;;;;;;;;;;;;;-5.6001463;-9.750664;-5.539109;;609.2
846.0;717.5;;;;;;;;;;;;;;0.3122654;-0.89291054;-0.18176824;;;;;609.2
846.0;717.5;;;;;;;;;;;;;;;;;-6.0350356;-7.675405;-9.109776;;609.2
846.0;717.5;;;;;;;;;;;;;;0.3203833;-0.8789331;-0.17761773;;;;;609.2
846.0;717.5;;;;;;;;;;;;;;;;;-6.824702;-5.584887;-13.477737;;618.9
846.0;717.5;;;;;;;;;;;;;;0.32520524;-0.86208683;-0.18274483;;;;;618.9
846.0;717.5;;;;;;;;;;;;;;;;;-7.717368;-3.5477767;-18.372143;;618.9
846.0;717.5;;;;;;;;;;;;;;0.33033234;-0.8415174;-0.1864681;;;;;618.9
846.0;717.5;;;;;;;;;;;;;;;;;-8.339183;-1.9264809;-23.785364;;628.6
846.0;717.5;;;;;;;;;;;;;;0.33857235;-0.8100223;-0.18689536;;;;;628.6
846.0;717.5;;;;;;;;;;;;;;;;;-8.941923;-0.7858516;-30.060732;;628.6
846.0;717.5;;;;;;;;;;;;;;0.34778893;-0.7644276;-0.18311106;;;;;628.6
846.0;718.6;;;;;;;;;;;;;;;;;-10.307627;0.8888516;-37.480545;;638.2
846.0;718.6;;;;;;;;;;;;;;0.361095;-0.7177954;-0.16449477;;;;;638.2
846.0;718.6;;;;;;;;;;;;;;;;;-11.619923;1.6518143;-45.747246;;638.2
846.0;718.6;;;;;;;;;;;;;;0.38801232;-0.6651204;-0.15100558;;;;;638.2
846.0;718.6;;;;;;;;;;;;;;;;;-12.859736;1.209296;-53.945282;;647.9
846.0;718.6;;;;;;;;;;;;;;0.41407514;-0.6212348;-0.14264351;;;;;647.9
846.0;718.6;;;;;;;;;;;;;;;;;-13.943144;0.5226295;-63.116096;;647.9
846.0;718.6;;;;;;;;;;;;;;0.44093144;-0.5825983;-0.12750633;;;;;647.9
846.0;718.6;;;;;;;;;;;;;;;;;-15.007477;-1.1520737;-72.13812;;657.6
846.0;718.6;;;;;;;;;;;;;;0.46205023;-0.56215096;-0.11200293;;;;;657.6
846.0;718.6;;;;;;;;;;;;;;;;;-17.647327;-2.2431104;-81.202126;;657.6
846.0;718.6;;;;;;;;;;;;;;0.48725852;-0.5505539;-0.11389508;;;;;657.6
907.0;761.8;;;;;;;;;;;;;;;;;-20.050661;-1.0872219;-90.43015;;667.2
907.0;761.8;;;;;;;;;;;;;;0.52589494;-0.5645924;-0.11682486;;;;;667.2
907.0;761.8;;;;;;;;;;;;;;;;;-16.941587;1.7738883;-99.20804;;667.2
907.0;761.8;;;;;;;;;;;;;;0.5611133;-0.5920591;-0.077333905;;;;;667.2
907.0;761.8;;;;;;;;;;;;;;;;;-7.9958496;4.554888;-107.70745;;676.7
907.0;761.8;;;;;;;;;;;;;;0.58571124;-0.63417464;0.016968291;;;;;676.7
907.0;761.8;;;;;;;;;;;;;;;;;2.803888;5.344554;-116.451004;;676.7
907.0;761.8;;;;;;;;;;;;;;0.5813166;-0.6949065;0.1431318;;;;;676.7
907.0;761.8;;;;;;;;;;;;;;;;;11.265144;4.8677025;-123.546555;;686.4
907.0;761.8;;;;;;;;;;;;;;0.5591601;-0.7737663;0.2563555;;;;;686.4
907.0;761.8;;;;;;;;;;;;;;;;;15.186773;5.9511094;-124.988556;;686.4
907.0;761.8;;;;;;;;;;;;;;0.52174443;-0.8730125;0.3515122;;;;;686.4
907.0;776.8;;;;;;;;;;;;;;;;;12.554551;6.9353313;-124.988556;;696.1
907.0;776.8;;;;;;;;;;;;;;0.48469496;-1.0474563;0.3905759;;;;;696.1
907.0;776.8;;;;;;;;;;;;;;;;;4.3679614;5.0012207;-124.988556;;696.1
907.0;776.8;;;;;;;;;;;;;;0.47456282;-1.2806787;0.37269205;;;;;696.1
907.0;776.8;;;;;;;;;;;;;;;;;-8.522293;-1.0605181;-124.988556;;705.6
907.0;776.8;;;;;;;;;;;;;;0.47627187;-1.4911344;0.2971282;;;;;705.6
907.0;776.8;;;;;;;;;;;;;;;;;-17.227697;-8.29722;-124.988556;;705.6
907.0;776.8;;;;;;;;;;;;;;0.45301676;-1.683523;0.21588793;;;;;705.6
907.0;776.8;;;;;;;;;;;;;;;;;-15.106662;-18.074587;-124.988556;;715.3
907.0;776.8;;;;;;;;;;;;;;0.36762595;-1.8115177;0.14221625;;;;;715.3
907.0;776.8;;;;;;;;;;;;;;;;;-5.2415543;-29.572437;-124.988556;;715.3
907.0;776.8;;;;;;;;;;;;;;0.24823755;-1.7513351;0.07837153;;;;;715.3
967.0;822.1;;;;;;;;;;;;;;;;;8.171331;-40.74221;-124.988556;;724.9
967.0;822.1;;;;;;;;;;;;;;0.14044619;-1.5463729;0.048646506;;;;;724.9
967.0;822.1;;;;;;;;;;;;;;;;;14.088107;-51.286354;-124.988556;;724.9
967.0;822.1;;;;;;;;;;;;;;0.026795251;-1.424482;0.047608875;;;;;724.9
967.0;822.1;;;;;;;;;;;;;;;;;11.932737;-63.77224;-124.988556;;734.6
967.0;822.1;;;;;;;;;;;;;;-0.087466046;-1.3696707;-0.008972442;;;;;734.6
967.0;822.1;;;;;;;;;;;;;;;;;8.18659;-78.29905;-124.988556;;734.6
967.0;822.1;;;;;;;;;;;;;;-0.18372142;-1.3137608;-0.061098058;;;;;734.6
967.0;822.1;;;;;;;;;;;;;;;;;-0.17929624;-93.558304;-124.988556;;744.3
967.0;822.1;;;;;;;;;;;;;;-0.26105532;-1.2889187;-0.1119419;;;;;744.3
967.0;822.1;;;;;;;;;;;;;;;;;-9.472182;-108.05842;-124.988556;;744.3
967.0;822.1;;;;;;;;;;;;;;-0.3035371;-1.2986236;-0.17078158;;;;;744.3
967.0;882.8;;;;;;;;;;;;;;;;;-14.076662;-120.101776;-124.988556;;753.9
967.0;882.8;;;;;;;;;;;;;;-0.2985931;-1.332316;-0.20715964;;;;;753.9
967.0;882.8;;;;;;;;;;;;;;;;;-14.507736;-124.832146;-124.988556;;753.9
967.0;882.8;;;;;;;;;;;;;;-0.2515946;-1.3664968;-0.23151341;;;;;753.9
967.0;882.8;;;;;;;;;;;;;;;;;-13.80581;-124.988556;-124.988556;;763.6
967.0;882.8;;;;;;;;;;;;;;-0.20007935;-1.3968933;-0.2606891;;;;;763.6
967.0;882.8;;;;;;;;;;;;;;;;;-14.393292;-124.988556;-124.988556;;763.6
967.0;882.8;;;;;;;;;;;;;;-0.13318278;-1.4143498;-0.2990814;;;;;763.6
967.0;882.8;;;;;;;;;;;;;;;;;-13.191626;-124.23322;-124.83596;;773.2
967.0;882.8;;;;;;;;;;;;;;-0.05749687;-1.4099551;-0.35102388;;;;;773.2
967.0;882.8;;;;;;;;;;;;;;;;;-7.675405;-118.350784;-121.15085;;773.2
967.0;882.8;;;;;;;;;;;;;;0.014221625;-1.406354;-0.39399394;;;;;773.2
1025.0;883.6;;;;;;;;;;;;;;;;;0.7438887;-108.46278;-113.78826;;782.9
1025.0;883.6;;;;;;;;;;;;;;0.10864589;-1.3762627;-0.4265267;;;;;782.9
1025.0;883.6;;;;;;;;;;;;;;;;;6.6072574;-96.0799;-105.803856;;782.9
1025.0;883.6;;;;;;;;;;;;;;0.20068972;-1.3308512;-0.44026002;;;;;782.9
1025.0;883.6;;;;;;;;;;;;;;;;;7.980591;-84.0556;-97.72027;;792.6
1025.0;883.6;;;;;;;;;;;;;;0.27753532;-1.2917875;-0.44892728;;;;;792.6
1025.0;883.6;;;;;;;;;;;;;;;;;8.491775;-74.28968;-89.56419;;792.6
1025.0;883.6;;;;;;;;;;;;;;0.34504226;-1.2632831;-0.42512283;;;;;792.6
1025.0;883.6;;;;;;;;;;;;;;;;;11.333811;-67.567986;-81.44246;;802.3
1025.0;883.6;;;;;;;;;;;;;;0.4095584;-1.2288584;-0.38062686;;;;;802.3
1025.0;883.6;;;;;;;;;;;;;;;;;15.766624;-62.76513;-73.53816;;802.3
1025.0;883.6;;;;;;;;;;;;;;0.46168402;-1.1886959;-0.32959992;;;;;802.3
1025.0;897.5;;;;;;;;;;;;;;;;;18.883327;-58.561207;-65.897095;;811.8
1025.0;897.5;;;;;;;;;;;;;;0.4954985;-1.1539658;-0.29126865;;;;;811.8
1025.0;897.5;;;;;;;;;;;;;;;;;19.295328;-54.368725;-58.9198;;811.8
1025.0;897.5;;;;;;;;;;;;;;0.529313;-1.1158788;-0.27820674;;;;;811.8
1025.0;897.5;;;;;;;;;;;;;;;;;17.029327;-49.882504;-52.57958;;821.5
1025.0;897.5;;;;;;;;;;;;;;0.5648976;-1.0823694;-0.2893765;;;;;821.5
1025.0;897.5;;;;;;;;;;;;;;;;;13.962218;-44.11069;-46.769615;;821.5
1025.0;897.5;;;;;;;;;;;;;;0.5851619;-1.0559404;-0.2882168;;;;;821.5
1025.0;897.5;;;;;;;;;;;;;;;;;11.944181;-37.457657;-41.497543;;831.1
1025.0;897.5;;;;;;;;;;;;;;0.5966979;-1.0249336;-0.252266;;;;;831.1
1025.0;897.5;;;;;;;;;;;;;;;;;11.333811;-30.247658;-36.515396;;831.1
1025.0;897.5;;;;;;;;;;;;;;0.59279156;-0.97036654;-0.1826838;;;;;831.1
1088.0;942.8;;;;;;;;;;;;;;;;;11.036257;-22.495956;-31.144138;;840.7
1088.0;942.8;;;;;;;;;;;;;;0.5847346;-0.908475;-0.10699789;;;;;840.7
1088.0;942.8;;;;;;;;;;;;;;;;;8.606219;-13.454848;-25.27314;;840.7
1088.0;942.8;;;;;;;;;;;;;;0.5877865;-0.8496353;-0.05713065;;;;;840.7
1088.0;942.8;;;;;;;;;;;;;;;;;4.6197395;-2.7581105;-18.490402;;850.3
1088.0;942.8;;;;;;;;;;;;;;0.5868099;-0.794763;-0.029847102;;;;;850.3
1088.0;942.8;;;;;;;;;;;;;;;;;1.0299997;8.79696;-10.517442;;850.3
1088.0;942.8;;;;;;;;;;;;;;0.5716117;-0.74849695;-0.023804437;;;;;850.3
1088.0;942.8;;;;;;;;;;;;;;;;;-0.9994812;20.306253;-1.9646292;;859.9
1088.0;942.8;;;;;;;;;;;;;;0.54158145;-0.70674765;-0.032898955;;;;;859.9
1088.0;942.8;;;;;;;;;;;;;;;;;-1.5221107;31.30436;6.0464797;;859.9
1088.0;942.8;;;;;;;;;;;;;;0.49519333;-0.6629841;-0.04626606;;;;;859.9
1088.0;950.2;;;;;;;;;;;;;;;;;-1.1368145;41.12369;13.302256;;869.5
1088.0;950.2;;;;;;;;;;;;;;0.44361705;-0.6268502;-0.05285806;;;;;869.5
1088.0;950.2;;;;;;;;;;;;;;;;;-0.35096285;49.42473;19.74166;;869.5
1088.0;950.2;;;;;;;;;;;;;;0.38923308;-0.591876;-0.045838803;;;;;869.5
1088.0;950.2;;;;;;;;;;;;;;;;;0.77440715;56.00528;25.379955;;879.1
1088.0;950.2;;;;;;;;;;;;;;0.34302804;-0.5479904;-0.02557451;;;;;879.1
1088.0;950.2;;;;;;;;;;;;;;;;;1.6289254;60.84246;30.766472;;879.1
1088.0;950.2;;;;;;;;;;;;;;0.30213323;-0.5047151;-0.0043336283;;;;;879.1
1088.0;950.2;;;;;;;;;;;;;;;;;2.4719992;63.52809;35.889767;;888.8
1088.0;950.2;;;;;;;;;;;;;;0.26490065;-0.46357617;0.009033479;;;;;888.8
1088.0;950.2;;;;;;;;;;;;;;;;;3.0213325;64.569534;40.79943;;888.8
1088.0;950.2;;;;;;;;;;;;;;0.23670156;-0.42347485;0.028321177;;;;;888.8
1148.0;1003.4;;;;;;;;;;;;;;;;;2.376629;63.71502;45.69765;;898.4
1148.0;1003.4;;;;;;;;;;;;;;0.20728172;-0.3806879;0.035706658;;;;;898.4
1148.0;1003.4;;;;;;;;;;;;;;;;;0.76296276;60.857723;50.622578;;898.4
1148.0;1003.4;;;;;;;;;;;;;;0.1784112;-0.34784997;0.03051851;;;;;898.4
1148.0;1003.4;;;;;;;;;;;;;;;;;-1.0910367;56.1655;55.20035;;908.0
1148.0;1003.4;;;;;;;;;;;;;;0.1604053;-0.32941678;0.006897183;;;;;908.0
1148.0;1003.4;;;;;;;;;;;;;;;;;-1.6747032;50.534836;59.50728;;908.0
1148.0;1003.4;;;;;;;;;;;;;;0.13464767;-0.31653798;-0.010925626;;;;;908.0
1148.0;1003.4;;;;;;;;;;;;;;;;;-1.8845179;43.53084;63.612022;;917.5
1148.0;1003.4;;;;;;;;;;;;;;0.10180975;-0.3060396;-0.032654807;;;;;917.5
1148.0;1003.4;;;;;;;;;;;;;;;;;-1.22837;35.35188;67.73202;;917.5
1148.0;1003.4;;;;;;;;;;;;;;0.0634785;-0.30933562;-0.05658132;;;;;917.5
1148.0;1010.5;;;;;;;;;;;;;;;;;0.48829615;25.60503;71.72994;;927.2
1148.0;1010.5;;;;;;;;;;;;;;0.020935697;-0.31635487;-0.089358196;;;;;927.2
1148.0;1010.5;;;;;;;;;;;;;;;;;3.173925;15.083773;75.342575;;927.2
1148.0;1010.5;;;;;;;;;;;;;;-0.018189032;-0.3255104;-0.12427137;;;;;927.2
1148.0;1010.5;;;;;;;;;;;;;;;;;5.8709984;4.20011;78.95519;;936.9
1148.0;1010.5;;;;;;;;;;;;;;-0.057252724;-0.33228552;-0.1610767;;;;;936.9
1148.0;1010.5;;;;;;;;;;;;;;;;;6.6835537;-6.431776;82.06427;;936.9
1148.0;1010.5;;;;;;;;;;;;;;-0.09039582;-0.3475448;-0.19757684;;;;;936.9
1148.0;1010.5;;;;;;;;;;;;;;;;;6.4661093;-16.20533;84.29594;;946.5
1148.0;1010.5;;;;;;;;;;;;;;-0.10058901;-0.37531662;-0.22656941;;;;;946.5
1148.0;1010.5;;;;;;;;;;;;;;;;;5.5543685;-25.116734;86.26438;;946.5
1148.0;1010.5;;;;;;;;;;;;;;-0.09851375;-0.41126743;-0.2501297;;;;;946.5
1208.0;1063.3;;;;;;;;;;;;;;;;;2.9183326;-32.38014;87.42409;;956.2
1208.0;1063.3;;;;;;;;;;;;;;-0.07025361;-0.45466477;-0.27045503;;;;;956.2
1208.0;1063.3;;;;;;;;;;;;;;;;;0.049592577;-37.93451;88.820305;;956.2
1208.0;1063.3;;;;;;;;;;;;;;-0.025635548;-0.4994659;-0.29328287;;;;;956.2
1208.0;1063.3;;;;;;;;;;;;;;;;;-2.784814;-40.684986;90.685745;;965.8
1208.0;1063.3;;;;;;;;;;;;;;0.024719993;-0.5604419;-0.30762658;;;;;965.8
1208.0;1063.3;;;;;;;;;;;;;;;;;-5.2949615;-40.047913;91.83019;;965.8
1208.0;1063.3;;;;;;;;;;;;;;0.07318339;-0.6122013;-0.29932556;;;;;965.8
1208.0;1063.3;;;;;;;;;;;;;;;;;-6.4394054;-37.179176;93.56212;;975.4
1208.0;1063.3;;;;;;;;;;;;;;0.13037507;-0.67275;-0.26856288;;;;;975.4
1208.0;1063.3;;;;;;;;;;;;;;;;;-6.3859982;-31.853695;94.18012;;975.4
1208.0;1063.3;;;;;;;;;;;;;;0.17493209;-0.74385816;-0.20715964;;;;;975.4
1208.0;1070.8;;;;;;;;;;;;;;;;;-6.801813;-26.703697;92.46727;;985.2
1208.0;1070.8;;;;;;;;;;;;;;0.23718986;-0.8073366;-0.14465773;;;;;985.2
1208.0;1070.8;;;;;;;;;;;;;;;;;-10.090182;-24.39955;89.51842;;985.2
1208.0;1070.8;;;;;;;;;;;;;;0.30890834;-0.8636738;-0.09112827;;;;;985.2
1208.0;1070.8;;;;;;;;;;;;;;;;;-17.670218;-24.960325;85.7799;;994.8
1208.0;1070.8;;;;;;;;;;;;;;0.3844722;-0.91055024;-0.083010346;;;;;994.8
1208.0;1070.8;;;;;;;;;;;;;;;;;-26.955475;-28.02362;81.839195;;994.8
1208.0;1070.8;;;;;;;;;;;;;;0.4430067;-0.95773184;-0.12640767;;;;;994.8
1208.0;1070.8;;;;;;;;;;;;;;;;;-31.270027;-29.39314;77.45598;;1004.4
1208.0;1070.8;;;;;;;;;;;;;;0.49482712;-0.97830135;-0.16693625;;;;;1004.4
1208.0;1070.8;;;;;;;;;;;;;;;;;-27.302622;-28.572954;73.9082;;1004.4
1208.0;1070.8;;;;;;;;;;;;;;0.5055086;-0.9765923;-0.15124974;;;;;1004.4
1211.0;1124.1;;;;;;;;;;;;;;;;;-18.196661;-25.444807;69.570755;;1014.1
1211.0;1124.1;;;;;;;;;;;;;;0.50410473;-0.93130285;-0.0806299;;;;;1014.1
1211.0;1124.1;;;;;;;;;;;;;;;;;-9.376812;-20.012512;65.64532;;1014.1
1211.0;1124.1;;;;;;;;;;;;;;0.48304698;-0.8691061;0.0073854793;;;;;1014.1
1211.0;1124.1;;;;;;;;;;;;;;;;;-4.6006656;-13.355663;62.173832;;1023.7
1211.0;1124.1;;;;;;;;;;;;;;0.45411542;-0.80239266;0.07000946;;;;;1023.7
1211.0;1124.1;;;;;;;;;;;;;;;;;-2.6779993;-6.2372203;59.46913;;1023.7
1211.0;1124.1;;;;;;;;;;;;;;0.42121646;-0.746971;0.105838194;;;;;1023.7
1211.0;1124.1;;;;;;;;;;;;;;;;;-2.395703;0.34333324;57.24891;;1033.4
1211.0;1124.1;;;;;;;;;;;;;;0.39625233;-0.7209082;0.1356853;;;;;1033.4
1211.0;1124.1;;;;;;;;;;;;;;;;;-1.5221107;4.711295;55.49791;;1033.4
1211.0;1124.1;;;;;;;;;;;;;;0.3717765;-0.7063204;0.15472884;;;;;1033.4
1214.0;1124.9;;;;;;;;;;;;;;;;;-0.17548142;6.107517;54.30769;;1043.1
1214.0;1124.9;;;;;;;;;;;;;;0.35108495;-0.69539475;0.17029329;;;;;1043.1
1214.0;1124.9;;;;;;;;;;;;;;;;;-0.12207404;4.7875915;53.216652;;1043.1
1214.0;1124.9;;;;;;;;;;;;;;0.32166508;-0.6926481;0.17004913;;;;;1043.1
1214.0;1124.9;;;;;;;;;;;;;;;;;-0.82399976;0.8507035;52.40791;;1052.7
1214.0;1124.9;;;;;;;;;;;;;;0.2830897;-0.69502854;0.15045625;;;;;1052.7
1214.0;1124.9;;;;;;;;;;;;;;;;;-1.2741477;-5.0851464;51.839504;;1052.7
1214.0;1124.9;;;;;;;;;;;;;;0.2412183;-0.6993011;0.12128056;;;;;1052.7
1214.0;1124.9;;;;;;;;;;;;;;;;;-1.1368145;-12.340922;51.278725;;1062.4
1214.0;1124.9;;;;;;;;;;;;;;0.19177832;-0.7008881;0.09363079;;;;;1062.4
1214.0;1124.9;;;;;;;;;;;;;;;;;-0.21744438;-20.226141;50.908688;;1062.4
1214.0;1124.9;;;;;;;;;;;;;;0.14777063;-0.7017426;0.075014494;;;;;1062.4
1214.0;1127.5;;;;0.0;0.0;0.0;;;;;;;;;;;;;;;
1214.0;1127.5;;;;-0.066875465;0.13857652;0.09750749;;;;;;;;;;;;;;;
1214.0;1127.5;;;;-0.2720528;0.6555901;0.36519244;;;;;;;;;;;;;;;
1214.0;1127.5;;;;-0.29415134;0.7255364;0.39578253;;;;;;;;;;;;;;;
1214.0;1127.5;;;;-0.29613116;0.72022253;0.39518744;;;;;;;;;;;;;;;
1214.0;1137.6;;;;-0.297699;0.7148667;0.39461523;;;;;;;;;;;;;;;
1214.0;1137.6;;;;-0.2988129;0.71036154;0.39387137;;;;;;;;;;;;;;;
1214.0;1137.6;;;;-0.2995415;0.7064362;0.39357382;;;;;;;;;;;;;;;
1214.0;1137.6;;;;-0.30058673;0.7028046;0.3939591;;;;;;;;;;;;;;;
1214.0;1137.6;;;;-0.30190662;0.6993905;0.3939591;;;;;;;;;;;;;;;
1270.0;1138.8;57515;57441;12410;;;;;;;;;;;;;;;;;;
1270.0;1147.5;;;;-0.3036919;0.6963425;0.39417273;;;;;;;;;;;;;;;
1270.0;1147.5;;;;-0.30501178;0.6943589;0.39496619;;;;;;;;;;;;;;;
1270.0;1147.5;;;;-0.30710986;0.69289404;0.3955384;;;;;;;;;;;;;;;
1270.0;1147.5;;;;-0.30871585;0.69141775;0.39519125;;;;;;;;;;;;;;;
1270.0;1147.5;;;;-0.31059268;0.6901513;0.39586645;;;;;;;;;;;;;;;
1270.0;1157.5;;;;-0.31155017;0.68923956;0.39644247;;;;;;;;;;;;;;;
1270.0;1157.5;;;;-0.31291202;0.68861777;0.3959275;;;;;;;;;;;;;;;
1270.0;1157.5;;;;-0.31403354;0.68793875;0.39488226;;;;;;;;;;;;;;;
1270.0;1157.5;;;;-0.31499103;0.68760306;0.39401633;;;;;;;;;;;;;;;
1270.0;1157.5;;;;-0.3157082;0.68690497;0.3926354;;;;;;;;;;;;;;;
1270.0;1158.8;73884;73986;12401;;;;;;;;;;;;;;;;;;
1270.0;1165.2;;;;;;;;;;;;;0;;;;;;;;
1270.0;1165.2;;;;;;;;;;;;;0;;;;;;;;
1270.0;1165.2;;;;;;;;;;;;;-1;;;;;;;;
1270.0;1165.2;;;;;;;;;;;;;-3;;;;;;;;
1270.0;1165.2;;;;;;;;;;;;;-3;;;;;;;;
1270.0;1167.6;;;;-0.31674197;0.68638235;0.390091;;;;;;;;;;;;;;;
1270.0;1167.6;;;;-0.31784442;0.68630606;0.38764578;;;;;;;;;;;;;;;
1270.0;1167.6;;;;-0.31865695;0.6860009;0.38426977;;;;;;;;;;;;;;;
1270.0;1167.6;;;;-0.31919864;0.6854592;0.3815537;;;;;;;;;;;;;;;
1270.0;1167.6;;;;-0.3202248;0.6846772;0.378048;;;;;;;;;;;;;;;
1273.0;1177.7;;;;-0.32027438;0.6838303;0.37531668;;;;;;;;;;;;;;;
1273.0;1177.7;;;;-0.31998828;0.6823006;0.3737946;;;;;;;;;;;;;;;
1273.0;1177.7;;;;-0.3196793;0.6806527;0.37279132;;;;;;;;;;;;;;;
1273.0;1177.7;;;;-0.3184853;0.6785279;0.37147525;;;;;;;;;;;;;;;
1273.0;1177.7;;;;-0.31774524;0.67558676;0.37033847;;;;;;;;;;;;;;;
1273.0;1179.1;90268;90171;12403;;;;;;;;;;;;;;;;;;
1273.0;1183.8;;;;;;;;;;;;;;;;;0.7705924;-28.714102;50.54628;;1072.0
1273.0;1183.8;;;;;;;;;;;;;;0.11181982;-0.7030854;0.05780206;;;;;1072.0
1273.0;1183.8;;;;;;;;;;;;;;;;;1.1940367;-37.285988;49.787132;;1072.0
1273.0;1183.8;;;;;;;;;;;;;;0.08478042;-0.70656455;0.037110507;;;;;1072.0
1273.0;1183.8;;;;;;;;;;;;;;;;;0.8888516;-45.64806;48.707542;;1081.6
1273.0;1183.8;;;;;;;;;;;;;;0.05957213;-0.71156955;5.4933317E-4;;;;;1081.6
1273.0;1183.8;;;;;;;;;;;;;;;;;0.59511095;-52.705467;47.540207;;1081.6
1273.0;1183.8;;;;;;;;;;;;;;0.026551103;-0.7145604;-0.043763544;;;;;1081.6
1273.0;1183.8;;;;;;;;;;;;;;;;;1.3695182;-58.20643;46.666615;;1091.3
1273.0;1183.8;;;;;;;;;;;;;;-0.009094516;-0.7075411;-0.07770012;;;;;1091.3
1273.0;1183.8;;;;;;;;;;;;;;;;;2.2278512;-62.48665;45.903652;;1091.3
1273.0;1183.8;;;;;;;;;;;;;;-0.042481765;-0.69936216;-0.11181982;;;;;1091.3
1274.0;1184.6;;;;;;;;;;;;;;;;;2.8992584;-65.06928;45.02243;;1101.0
1274.0;1184.6;;;;;;;;;;;;;;-0.06750695;-0.6931364;-0.13837092;;;;;1101.0
1274.0;1184.6;;;;;;;;;;;;;;;;;2.8191473;-66.81265;44.206062;;1101.0
1274.0;1184.6;;;;;;;;;;;;;;-0.069765314;-0.69936216;-0.15454574;;;;;1101.0
1274.0;1184.6;;;;;;;;;;;;;;;;;1.5717032;-68.44538;43.370617;;1110.6
1274.0;1184.6;;;;;;;;;;;;;;-0.054994356;-0.7141942;-0.17590868;;;;;1110.6
1274.0;1184.6;;;;;;;;;;;;;;;;;-0.12970367;-70.16968;42.046875;;1110.6
1274.0;1184.6;;;;;;;;;;;;;;-0.034669027;-0.73378706;-0.19263284;;;;;1110.6
1274.0;1184.6;;;;;;;;;;;;;;;;;-1.1482589;-72.03131;40.28443;;1120.3
1274.0;1184.6;;;;;;;;;;;;;;-0.012878811;-0.7464217;-0.20435195;;;;;1120.3
1274.0;1184.6;;;;;;;;;;;;;;;;;-0.9575182;-73.786125;38.32362;;1120.3
1274.0;1184.6;;;;;;;;;;;;;;0.0072634052;-0.75899535;-0.21082187;;;;;1120.3
1274.0;1187.6;;;;-0.31647876;0.6721192;0.36927798;;;;;;;;;;;;;;;
1274.0;1187.6;;;;-0.3149872;0.6678849;0.36755756;;;;;;;;;;;;;;;
1274.0;1187.6;;;;-0.31330875;0.66260916;0.36589816;;;;;;;;;;;;;;;
1274.0;1187.6;;;;-0.311348;0.6569825;0.36323932;;;;;;;;;;;;;;;
1274.0;1187.6;;;;-0.30933765;0.6504021;0.35926822;;;;;;;;;;;;;;;
1274.0;1197.6;;;;-0.30673984;0.64311224;0.35562518;;;;;;;;;;;;;;;
1274.0;1197.6;;;;-0.30458453;0.6360741;0.35159305;;;;;;;;;;;;;;;
1274.0;1197.6;;;;-0.3028145;0.62897116;0.34811786;;;;;;;;;;;;;;;
1274.0;1197.6;;;;-0.30134967;0.62242514;0.3444977;;;;;;;;;;;;;;;
1274.0;1197.6;;;;-0.30002216;0.6162682;0.3412476;;;;;;;;;;;;;;;
1274.0;1199.0;106600;106620;12398;;;;;;;;;;;;;;;;;;
1325.0;1205.3;;;;;;;;;;;;;-4;;;;;;;;
1325.0;1205.3;;;;;;;;;;;;;-10;;;;;;;;
1325.0;1205.3;;;;;;;;;;;;;-10;;;;;;;;
1325.0;1205.3;;;;;;;;;;;;;-6;;;;;;;;
1325.0;1205.3;;;;;;;;;;;;;-15;;;;;;;;
1325.0;1207.5;;;;-0.2989197;0.61113364;0.33811954;;;;;;;;;;;;;;;
1325.0;1207.5;;;;-0.29830936;0.6063233;0.33553317;;;;;;;;;;;;;;;
1325.0;1207.5;;;;-0.29747394;0.60251623;0.33303073;;;;;;;;;;;;;;;
1325.0;1207.5;;;;-0.29677203;0.59958655;0.33092883;;;;;;;;;;;;;;;
1325.0;1207.5;;;;-0.29680637;0.5975953;0.32870486;;;;;;;;;;;;;;;
1325.0;1217.4;;;;-0.2963219;0.5968209;0.3277245;;;;;;;;;;;;;;;
1325.0;1217.4;;;;-0.29600528;0.59686285;0.32673267;;;;;;;;;;;;;;;
1325.0;1217.4;;;;-0.29597476;0.59756476;0.3254967;;;;;;;;;;;;;;;
1325.0;1217.4;;;;-0.2960625;0.5995217;0.3243523;;;;;;;;;;;;;;;
1325.0;1217.4;;;;-0.29568866;0.60259634;0.32444003;;;;;;;;;;;;;;;
1325.0;1218.9;123027;123005;12411;;;;;;;;;;;;;;;;;;
1325.0;1227.5;;;;-0.29586032;0.6072579;0.32395557;;;;;;;;;;;;;;;
1325.0;1227.5;;;;-0.29592517;0.6129151;0.32407382;;;;;;;;;;;;;;;
1325.0;1227.5;;;;-0.29588702;0.61990744;0.3238602;;;;;;;;;;;;;;;
1325.0;1227.5;;;;-0.29611972;0.6282578;0.32448962;;;;;;;;;;;;;;;
1325.0;1227.5;;;;-0.2960854;0.6385537;0.3247452;;;;;;;;;;;;;;;
1328.0;1237.6;;;;-0.29675677;0.6501046;0.32607272;;;;;;;;;;;;;;;
1328.0;1237.6;;;;-0.2973595;0.6639939;0.3272095;;;;;;;;;;;;;;;
1328.0;1237.6;;;;-0.29838565;0.6800347;0.3292885;;;;;;;;;;;;;;;
1328.0;1237.6;;;;-0.2994614;0.6974793;0.331131;;;;;;;;;;;;;;;
1328.0;1237.6;;;;-0.30059436;0.7177926;0.3333054;;;;;;;;;;;;;;;
1328.0;1239.1;139484;139434;12412;;;;;;;;;;;;;;;;;;
1328.0;1244.0;;;;;;;;;;;;;;;;;-0.27085176;-74.892426;36.381878;;1129.9
1328.0;1244.0;;;;;;;;;;;;;;0.030884732;-0.76564837;-0.19660024;;;;;1129.9
1328.0;1244.0;;;;;;;;;;;;;;;;;0.20218512;-74.949646;34.558395;;1129.9
1328.0;1244.0;;;;;;;;;;;;;;0.05206458;-0.7690054;-0.16705832;;;;;1129.9
1328.0;1244.0;;;;;;;;;;;;;;;;;0.4768517;-73.64117;32.883694;;1139.5
1328.0;1244.0;;;;;;;;;;;;;;0.08008057;-0.78096867;-0.11279641;;;;;1139.5
1328.0;1244.0;;;;;;;;;;;;;;;;;3.4142585;-70.47868;31.346325;;1139.5
1328.0;1244.0;;;;;;;;;;;;;;0.09686575;-0.8186895;0.008362072;;;;;1139.5
1328.0;1244.0;;;;;;;;;;;;;;;;;8.373516;-66.45787;29.641104;;1149.1
1328.0;1244.0;;;;;;;;;;;;;;0.12225715;-0.9043855;0.08374279;;;;;1149.1
1328.0;1244.0;;;;;;;;;;;;;;;;;10.814997;-61.059906;28.000732;;1149.1
1328.0;1244.0;;;;;;;;;;;;;;0.17023225;-0.9895932;0.100283824;;;;;1149.1
1331.0;1245.2;;;;;;;;;;;;;;;;;4.9058504;-55.906094;26.726585;;1158.7
1331.0;1245.2;;;;;;;;;;;;;;0.24542986;-1.1051363;0.08484146;;;;;1158.7
1331.0;1245.2;;;;;;;;;;;;;;;;;1.1101108;-55.654316;25.448622;;1158.7
1331.0;1245.2;;;;;;;;;;;;;;0.3305765;-1.2475966;0.09039582;;;;;1158.7
1331.0;1245.2;;;;;;;;;;;;;;;;;5.4017763;-60.37324;23.953215;;1168.4
1331.0;1245.2;;;;;;;;;;;;;;0.4304941;-1.2887967;0.081789605;;;;;1168.4
1331.0;1245.2;;;;;;;;;;;;;;;;;4.50911;-65.19135;22.469252;;1168.4
1331.0;1245.2;;;;;;;;;;;;;;0.5289468;-1.195349;-0.092471085;;;;;1168.4
1331.0;1245.2;;;;;;;;;;;;;;;;;-5.0737023;-58.339947;20.584734;;1178.1
1331.0;1245.2;;;;;;;;;;;;;;0.59859;-1.1168554;-0.31104466;;;;;1178.1
1331.0;1245.2;;;;;;;;;;;;;;;;;-14.313181;-35.72573;18.44081;;1178.1
1331.0;1245.2;;;;;;;;;;;;;;0.60286266;-1.12772;-0.34742272;;;;;1178.1
1331.0;1245.3;;;;;;;;;;;;;0;;;;;;;;
1331.0;1245.3;;;;;;;;;;;;;-6;;;;;;;;
1331.0;1245.3;;;;;;;;;;;;;-30;;;;;;;;
1331.0;1245.3;;;;;;;;;;;;;63;;;;;;;;
1331.0;1245.3;;;;;;;;;;;;;-61;;;;;;;;
1331.0;1247.6;;;;-0.30205157;0.73940665;0.3363724;;;;;;;;;;;;;;;
1331.0;1247.6;;;;-0.3035126;0.76321423;0.34023288;;;;;;;;;;;;;;;
1331.0;1247.6;;;;-0.30541614;0.7887918;0.34430316;;;;;;;;;;;;;;;
1331.0;1247.6;;;;-0.30706027;0.8160745;0.34904483;;;;;;;;;;;;;;;
1331.0;1247.6;;;;-0.30952457;0.8449136;0.35462955;;;;;;;;;;;;;;;
1386.0;1257.6;;;;-0.31240848;0.87604535;0.36116794;;;;;;;;;;;;;;;
1386.0;1257.6;;;;-0.31571963;0.909691;0.36947635;;;;;;;;;;;;;;;
1386.0;1257.6;;;;-0.3186188;0.9455148;0.3785172;;;;;;;;;;;;;;;
1386.0;1257.6;;;;-0.3209038;0.9833528;0.38828284;;;;;;;;;;;;;;;
1386.0;1257.6;;;;-0.3232346;1.023781;0.3985749;;;;;;;;;;;;;;;
1386.0;1259.0;155834;155719;12410;;;;;;;;;;;;;;;;;;
1386.0;1267.4;;;;-0.32578662;1.0662767;0.4093476;;;;;;;;;;;;;;;
1386.0;1267.4;;;;-0.32932666;1.1108209;0.421238;;;;;;;;;;;;;;;
1386.0;1267.4;;;;-0.3322411;1.1564294;0.4329148;;;;;;;;;;;;;;;
1386.0;1267.4;;;;-0.33670047;1.2036515;0.4448815;;;;;;;;;;;;;;;
1386.0;1267.4;;;;-0.34233096;1.2516481;0.458252;;;;;;;;;;;;;;;
1386.0;1277.5;;;;-0.34894565;1.3004457;0.4744416;;;;;;;;;;;;;;;
1386.0;1277.5;;;;-0.34965137;1.3453065;0.48007208;;;;;;;;;;;;;;;
1386.0;1277.5;;;;-0.35260776;1.3915826;0.4865113;;;;;;;;;;;;;;;
1386.0;1277.5;;;;-0.36261752;1.4406129;0.49888998;;;;;;;;;;;;;;;
1386.0;1277.5;;;;-0.36991885;1.4894487;0.5149918;;;;;;;;;;;;;;;
1386.0;1279.1;172208;172080;12430;;;;;;;;;;;;;;;;;;
1386.0;1285.5;;;;;;;;;;;;;-272;;;;;;;;
1386.0;1285.5;;;;;;;;;;;;;97;;;;;;;;
1386.0;1285.5;;;;;;;;;;;;;505;;;;;;;;
1386.0;1285.5;;;;;;;;;;;;;-411;;;;;;;;
1386.0;1285.5;;;;;;;;;;;;;-2912;;;;;;;;
1389.0;1287.6;;;;-0.3772431;1.5382464;0.5265351;;;;;;;;;;;;;;;
1389.0;1287.6;;;;-0.3819428;1.5872767;0.53750235;;;;;;;;;;;;;;;
1389.0;1287.6;;;;-0.39163977;1.6386378;0.5552102;;;;;;;;;;;;;;;
1389.0;1287.6;;;;-0.40169913;1.6906474;0.5734139;;;;;;;;;;;;;;;
1389.0;1287.6;;;;-0.40272528;1.7406619;0.58845145;;;;;;;;;;;;;;;
1389.0;1297.7;;;;-0.4063111;1.7891314;0.6046372;;;;;;;;;;;;;;;
1389.0;1297.7;;;;-0.40965277;1.8332751;0.6176415;;;;;;;;;;;;;;;
1389.0;1297.7;;;;-0.41190344;1.8757403;0.6296006;;;;;;;;;;;;;;;
1389.0;1297.7;;;;-0.40359122;1.91832;0.64501196;;;;;;;;;;;;;;;
1389.0;1297.7;;;;-0.37836844;1.9559138;0.6618348;;;;;;;;;;;;;;;
1389.0;1299.4;188652;188533;12437;;;;;;;;;;;;;;;;;;
1389.0;1304.1;;;;;;;;;;;;;;;;;-16.83096;-5.592517;18.570513;;1187.7
1389.0;1304.1;;;;;;;;;;;;;;0.5489059;-1.2380749;-0.19898069;;;;;1187.7
1389.0;1304.1;;;;;;;;;;;;;;;;;-11.783959;24.918362;22.827845;;1187.7
1389.0;1304.1;;;;;;;;;;;;;;0.47804195;-1.4230781;0.020447401;;;;;1187.7
1389.0;1304.1;;;;;;;;;;;;;;;;;-9.537035;52.678764;27.871029;;1197.3
1389.0;1304.1;;;;;;;;;;;;;;0.40333262;-1.5463729;0.13330485;;;;;1197.3
1389.0;1304.1;;;;;;;;;;;;;;;;;-17.155216;71.14627;35.000916;;1197.3
1389.0;1304.1;;;;;;;;;;;;;;0.21869564;-1.5837275;0.06933805;;;;;1197.3
1389.0;1304.1;;;;;;;;;;;;;;;;;-29.461807;74.88861;45.75106;;1207.0
1389.0;1304.1;;;;;;;;;;;;;;-0.17090365;-1.467452;-0.11951049;;;;;1207.0
1389.0;1304.1;;;;;;;;;;;;;;;;;-46.521652;68.09061;56.8865;;1207.0
1389.0;1304.1;;;;;;;;;;;;;;-0.4826197;-1.3067416;-0.41114536;;;;;1207.0
1390.0;1304.9;;;;;;;;;;;;;;;;;-53.827023;51.84332;68.23175;;1216.5
1390.0;1304.9;;;;;;;;;;;;;;-0.7055269;-1.1981567;-0.60896635;;;;;1216.5
1390.0;1304.9;;;;;;;;;;;;;;;;;-44.763023;27.050844;75.99872;;1216.5
1390.0;1304.9;;;;;;;;;;;;;;-0.84646136;-1.1224707;-0.7070528;;;;;1216.5
1390.0;1304.9;;;;;;;;;;;;;;;;;-30.854214;7.312998;69.627975;;1226.2
1390.0;1304.9;;;;;;;;;;;;;;-0.8492691;-1.0862758;-0.7795648;;;;;1226.2
1390.0;1304.9;;;;;;;;;;;;;;;;;-21.40492;-3.3036287;47.914062;;1226.2
1390.0;1304.9;;;;;;;;;;;;;;-0.61525315;-1.0643024;-0.7867672;;;;;1226.2
1390.0;1304.9;;;;;;;;;;;;;;;;;-20.577105;-7.312998;20.863216;;1235.9
1390.0;1304.9;;;;;;;;;;;;;;-0.23706779;-1.0286568;-0.7133396;;;;;1235.9
1390.0;1304.9;;;;;;;;;;;;;;;;;-27.058474;-8.663442;3.257851;;1235.9
1390.0;1304.9;;;;;;;;;;;;;;0.019165624;-1.1130711;-0.62337106;;;;;1235.9
1390.0;1307.6;;;;-0.36289218;1.9843295;0.66865546;;;;;;;;;;;;;;;
1390.0;1307.6;;;;-0.37139133;1.9999964;0.65827566;;;;;;;;;;;;;;;
1390.0;1307.6;;;;-0.39527136;1.9999964;0.63682944;;;;;;;;;;;;;;;
1390.0;1307.6;;;;-0.41102988;1.9999964;0.62059027;;;;;;;;;;;;;;;
1390.0;1307.6;;;;-0.41172034;1.9999964;0.61246496;;;;;;;;;;;;;;;
1390.0;1317.7;;;;-0.39606482;1.9999964;0.60685736;;;;;;;;;;;;;;;
1390.0;1317.7;;;;-0.37263873;1.9999964;0.5966912;;;;;;;;;;;;;;;
1390.0;1317.7;;;;-0.3483353;1.9999964;0.58645254;;;;;;;;;;;;;;;
1390.0;1317.7;;;;-0.31918338;1.9999964;0.5730286;;;;;;;;;;;;;;;
1390.0;1317.7;;;;-0.2941399;1.9999964;0.5559731;;;;;;;;;;;;;;;
1390.0;1319.3;204897;204953;12439;;;;;;;;;;;;;;;;;;
1445.0;1325.6;;;;;;;;;;;;;-5448;;;;;;;;
1445.0;1325.6;;;;;;;;;;;;;-6355;;;;;;;;
1445.0;1325.6;;;;;;;;;;;;;-5827;;;;;;;;
1445.0;1325.6;;;;;;;;;;;;;-5280;;;;;;;;
1445.0;1325.6;;;;;;;;;;;;;-5295;;;;;;;;
1445.0;1327.7;;;;-0.28309253;1.9999964;0.54043585;;;;;;;;;;;;;;;
1445.0;1327.7;;;;-0.28060535;1.9999964;0.52735907;;;;;;;;;;;;;;;
1445.0;1327.7;;;;-0.2793198;1.9999964;0.5131112;;;;;;;;;;;;;;;
1445.0;1327.7;;;;-0.27485278;1.9999964;0.49681097;;;;;;;;;;;;;;;
1445.0;1327.7;;;;-0.26577762;1.9999964;0.47915655;;;;;;;;;;;;;;;
1445.0;1337.5;;;;-0.25215152;1.9999964;0.4669953;;;;;;;;;;;;;;;
1445.0;1337.5;;;;-0.25688174;1.9999964;0.46059042;;;;;;;;;;;;;;;
1445.0;1337.5;;;;-0.24897006;1.9999964;0.44759756;;;;;;;;;;;;;;;
1445.0;1337.5;;;;-0.25159076;1.9999964;0.44441992;;;;;;;;;;;;;;;
1445.0;1337.5;;;;-0.24336627;1.9999964;0.43133932;;;;;;;;;;;;;;;
1445.0;1339.3;221318;221302;12437;;;;;;;;;;;;;;;;;;
1445.0;1347.6;;;;-0.2071152;1.9999964;0.4221993;;;;;;;;;;;;;;;
1445.0;1347.6;;;;-0.18363191;1.9999964;0.42140204;;;;;;;;;;;;;;;
1445.0;1347.6;;;;-0.17834856;1.9999964;0.41935354;;;;;;;;;;;;;;;
1445.0;1347.6;;;;-0.17256548;1.9999964;0.4170571;;;;;;;;;;;;;;;
1445.0;1347.6;;;;-0.16469957;1.9999964;0.41025168;;;;;;;;;;;;;;;
1447.0;1357.8;;;;-0.15021135;1.9979022;0.40555197;;;;;;;;;;;;;;;
1447.0;1357.8;;;;-0.13391878;1.964268;0.4046746;;;;;;;;;;;;;;;
1447.0;1357.8;;;;-0.124805465;1.927479;0.40217978;;;;;;;;;;;;;;;
1447.0;1357.8;;;;-0.114223495;1.8867991;0.39866263;;;;;;;;;;;;;;;
1447.0;1357.8;;;;-0.099929824;1.8422511;0.39620596;;;;;;;;;;;;;;;
1447.0;1359.6;237683;237656;12436;;;;;;;;;;;;;;;;;;
1447.0;1364.4;;;;;;;;;;;;;;;;;-29.263435;-10.711997;-6.1609244;;1245.5
1447.0;1364.4;;;;;;;;;;;;;;0.11255226;-1.2674947;-0.5271157;;;;;1245.5
1447.0;1364.4;;;;;;;;;;;;;;;;;-23.480179;-16.48381;-15.4194765;;1245.5
1447.0;1364.4;;;;;;;;;;;;;;0.20490128;-1.3741875;-0.4572283;;;;;1245.5
1447.0;1364.4;;;;;;;;;;;;;;;;;-16.075624;-23.667105;-24.056215;;1255.2
1447.0;1364.4;;;;;;;;;;;;;;0.3302713;-1.4775841;-0.5042268;;;;;1255.2
1447.0;1364.4;;;;;;;;;;;;;;;;;-4.7189245;-26.718956;-33.387253;;1255.2
1447.0;1364.4;;;;;;;;;;;;;;0.4594867;-1.5822626;-0.5827204;;;;;1255.2
1447.0;1364.4;;;;;;;;;;;;;;;;;11.928923;-24.67803;-42.165134;;1264.9
1447.0;1364.4;;;;;;;;;;;;;;0.59743035;-1.6806543;-0.6039613;;;;;1264.9
1447.0;1364.4;;;;;;;;;;;;;;;;;25.048065;-20.332956;-47.60506;;1264.9
1447.0;1364.4;;;;;;;;;;;;;;0.74367505;-1.8117008;-0.56862086;;;;;1264.9
1448.0;1365.6;;;;;;;;;;;;;;;;;29.56862;-20.340586;-48.749504;;1274.5
1448.0;1365.6;;;;;;;;;;;;;;0.88467056;-1.9246193;-0.5150304;;;;;1274.5
1448.0;1365.6;;;;;;;;;;;;;;;;;26.707512;-21.179846;-45.86169;;1274.5
1448.0;1365.6;;;;;;;;;;;;;;0.9837947;-1.8603473;-0.48353526;;;;;1274.5
1448.0;1365.6;;;;;;;;;;;;;;;;;23.659475;-17.19718;-39.155247;;1284.1
1448.0;1365.6;;;;;;;;;;;;;;0.9524827;-1.5995971;-0.4676046;;;;;1284.1
1448.0;1365.6;;;;;;;;;;;;;;;;;15.148624;-2.5025177;-34.932247;;1284.1
1448.0;1365.6;;;;;;;;;;;;;;0.8134403;-1.3622242;-0.43177587;;;;;1284.1
1448.0;1365.6;;;;;;;;;;;;;;;;;-0.03051851;16.376995;-32.04062;;1293.8
1448.0;1365.6;;;;;;;;;;;;;;0.6089053;-1.2662129;-0.39411604;;;;;1293.8
1448.0;1365.6;;;;;;;;;;;;;;;;;-10.704368;29.625843;-29.713585;;1293.8
1448.0;1365.6;;;;;;;;;;;;;;0.3467513;-1.2347789;-0.35560167;;;;;1293.8
1448.0;1365.7;;;;;;;;;;;;;-5076;;;;;;;;
1448.0;1365.7;;;;;;;;;;;;;-4409;;;;;;;;
1448.0;1365.7;;;;;;;;;;;;;-3855;;;;;;;;
1448.0;1365.7;;;;;;;;;;;;;-3387;;;;;;;;
1448.0;1365.7;;;;;;;;;;;;;-2921;;;;;;;;
1448.0;1367.7;;;;-0.08283616;1.7931216;0.393982;;;;;;;;;;;;;;;
1448.0;1367.7;;;;-0.06711198;1.7458308;0.39244848;;;;;;;;;;;;;;;
1448.0;1367.7;;;;-0.049324043;1.7008898;0.39007193;;;;;;;;;;;;;;;
1448.0;1367.7;;;;-0.034214024;1.6549761;0.38467413;;;;;;;;;;;;;;;
1448.0;1367.7;;;;-0.029048923;1.6100733;0.37885672;;;;;;;;;;;;;;;
1567.0;1377.8;;;;-0.025020603;1.56757;0.37284854;;;;;;;;;;;;;;;
1567.0;1377.8;;;;-0.019649507;1.5257304;0.36667636;;;;;;;;;;;;;;;
1567.0;1377.8;;;;-0.024387363;1.4836122;0.3577309;;;;;;;;;;;;;;;
1567.0;1377.8;;;;-0.03047562;1.4457399;0.35093692;;;;;;;;;;;;;;;
1567.0;1377.8;;;;-0.024261478;1.410103;0.3407326;;;;;;;;;;;;;;;
1567.0;1379.7;254082;254097;12431;;;;;;;;;;;;;;;;;;
1567.0;1387.8;;;;-0.020462038;1.3850518;0.34564593;;;;;;;;;;;;;;;
1567.0;1387.8;;;;0.0034294133;1.3549844;0.32686237;;;;;;;;;;;;;;;
1567.0;1387.8;;;;-0.008209229;1.3291856;0.31591037;;;;;;;;;;;;;;;
1567.0;1387.8;;;;-0.023990635;1.3044702;0.30360034;;;;;;;;;;;;;;;
1567.0;1387.8;;;;-0.013225557;1.2794877;0.30007175;;;;;;;;;;;;;;;
1567.0;1397.7;;;;0.0041923528;1.2548372;0.29503635;;;;;;;;;;;;;;;
1567.0;1397.7;;;;8.96454E-4;1.2365037;0.28155902;;;;;;;;;;;;;;;
1567.0;1397.7;;;;-0.004455567;1.2175676;0.2657433;;;;;;;;;;;;;;;
1567.0;1397.7;;;;-0.02023697;1.2060205;0.26606753;;;;;;;;;;;;;;;
1567.0;1397.7;;;;-0.012336733;1.1874658;0.26127627;;;;;;;;;;;;;;;
1567.0;1399.6;262143;262143;12425;;;;;;;;;;;;;;;;;;
1567.0;1405.9;;;;;;;;;;;;;-2491;;;;;;;;
1567.0;1405.9;;;;;;;;;;;;;-2077;;;;;;;;
1567.0;1405.9;;;;;;;;;;;;;-1748;;;;;;;;
1567.0;1405.9;;;;;;;;;;;;;-1457;;;;;;;;
1567.0;1405.9;;;;;;;;;;;;;-1161;;;;;;;;
1571.0;1407.8;;;;-0.0018882754;1.1702615;0.26427463;;;;;;;;;;;;;;;
1571.0;1407.8;;;;0.009761811;1.151661;0.2578316;;;;;;;;;;;;;;;
1571.0;1407.8;;;;0.009807588;1.1344033;0.26111987;;;;;;;;;;;;;;;
1571.0;1407.8;;;;0.013927462;1.1162797;0.26261905;;;;;;;;;;;;;;;
1571.0;1407.8;;;;0.024261478;1.0979882;0.2612076;;;;;;;;;;;;;;;
1571.0;1417.9;;;;0.016265871;1.0889169;0.270031;;;;;;;;;;;;;;;
1571.0;1417.9;;;;0.020973207;1.0725442;0.2669144;;;;;;;;;;;;;;;
1571.0;1417.9;;;;0.012073519;1.0669442;0.28489688;;;;;;;;;;;;;;;
1571.0;1417.9;;;;0.019046785;1.0497438;0.27577212;;;;;;;;;;;;;;;
1571.0;1417.9;;;;0.012073519;1.0369645;0.28188327;;;;;;;;;;;;;;;
1571.0;1419.9;262143;262143;12423;;;;;;;;;;;;;;;;;;
1571.0;1424.5;;;;;;;;;;;;;;;;;-12.279885;34.974213;-28.839993;;1303.4
1571.0;1424.5;;;;;;;;;;;;;;0.094058044;-1.224952;-0.29822686;;;;;1303.4
1571.0;1424.5;;;;;;;;;;;;;;;;;-9.403516;33.352917;-29.67925;;1303.4
1571.0;1424.5;;;;;;;;;;;;;;-0.08966338;-1.2034669;-0.23737296;;;;;1303.4
1571.0;1424.5;;;;;;;;;;;;;;;;;-7.89285;26.7304;-30.0531;;1313.1
1571.0;1424.5;;;;;;;;;;;;;;-0.21057771;-1.1481063;-0.22003846;;;;;1313.1
1571.0;1424.5;;;;;;;;;;;;;;;;;-11.051516;17.380291;-26.22303;;1313.1
1571.0;1424.5;;;;;;;;;;;;;;-0.3233131;-1.1088595;-0.22162542;;;;;1313.1
1571.0;1424.5;;;;;;;;;;;;;;;;;-19.928587;5.653554;-20.702993;;1322.6
1571.0;1424.5;;;;;;;;;;;;;;-0.3761101;-1.0621662;-0.2807703;;;;;1322.6
1571.0;1424.5;;;;;;;;;;;;;;;;;-31.949066;-6.1761837;-11.37196;;1322.6
1571.0;1424.5;;;;;;;;;;;;;;-0.43720818;-1.0274972;-0.36768702;;;;;1322.6
1573.0;1425.3;;;;;;;;;;;;;;;;;-41.390728;-17.437513;2.994629;;1332.2
1573.0;1425.3;;;;;;;;;;;;;;-0.51930296;-1.017365;-0.44886625;;;;;1332.2
1573.0;1425.3;;;;;;;;;;;;;;;;;-43.252357;-27.783287;20.149845;;1332.2
1573.0;1425.3;;;;;;;;;;;;;;-0.5948668;-1.0115055;-0.5076449;;;;;1332.2
1573.0;1425.3;;;;;;;;;;;;;;;;;-35.946987;-35.081024;35.06195;;1341.8
1573.0;1425.3;;;;;;;;;;;;;;-0.6219672;-1.0080874;-0.5452437;;;;;1341.8
1573.0;1425.3;;;;;;;;;;;;;;;;;-23.087252;-37.854397;44.373913;;1341.8
1573.0;1425.3;;;;;;;;;;;;;;-0.5933409;-0.9955138;-0.5219886;;;;;1341.8
1573.0;1425.3;;;;;;;;;;;;;;;;;-9.418776;-38.89203;47.971283;;1351.5
1573.0;1425.3;;;;;;;;;;;;;;-0.4788354;-0.9679861;-0.47035128;;;;;1351.5
1573.0;1425.3;;;;;;;;;;;;;;;;;1.3542589;-39.273506;48.90973;;1351.5
1573.0;1425.3;;;;;;;;;;;;;;-0.32013917;-0.9707938;-0.41175574;;;;;1351.5
1573.0;1427.8;;;;6.675721E-4;1.0238343;0.28055575;;;;;;;;;;;;;;;
1573.0;1427.8;;;;-0.013610842;1.0107728;0.28049853;;;;;;;;;;;;;;;
1573.0;1427.8;;;;-0.028278355;0.9977914;0.27882007;;;;;;;;;;;;;;;
1573.0;1427.8;;;;-0.04301453;0.98602307;0.27533343;;;;;;;;;;;;;;;
1573.0;1427.8;;;;-0.05900193;0.97408307;0.27262118;;;;;;;;;;;;;;;
1573.0;1437.8;;;;-0.07624055;0.9625703;0.2725716;;;;;;;;;;;;;;;
1573.0;1437.8;;;;-0.092472084;0.9510118;0.27172855;;;;;;;;;;;;;;;
1573.0;1437.8;;;;-0.10826112;0.9400407;0.2665482;;;;;;;;;;;;;;;
1573.0;1437.8;;;;-0.1273079;0.9285165;0.26338962;;;;;;;;;;;;;;;
1573.0;1437.8;;;;-0.13994218;0.91685116;0.2632523;;;;;;;;;;;;;;;
1573.0;1439.7;262143;262143;12430;;;;;;;;;;;;;;;;;;
1574.0;1445.9;;;;;;;;;;;;;-923;;;;;;;;
1574.0;1445.9;;;;;;;;;;;;;-827;;;;;;;;
1574.0;1445.9;;;;;;;;;;;;;-814;;;;;;;;
1574.0;1445.9;;;;;;;;;;;;;-770;;;;;;;;
1574.0;1445.9;;;;;;;;;;;;;-778;;;;;;;;
1574.0;1447.7;;;;-0.15178682;0.9056016;0.2640305;;;;;;;;;;;;;;;
1574.0;1447.7;;;;-0.17325594;0.8964883;0.26962665;;;;;;;;;;;;;;;
1574.0;1447.7;;;;-0.19152835;0.88775647;0.27390292;;;;;;;;;;;;;;;
1574.0;1447.7;;;;-0.20739368;0.87970746;0.27577594;;;;;;;;;;;;;;;
1574.0;1447.7;;;;-0.22299197;0.87326825;0.27835467;;;;;;;;;;;;;;;
1574.0;1457.7;;;;-0.23763278;0.8675386;0.2794533;;;;;;;;;;;;;;;
1574.0;1457.7;;;;-0.248333;0.8613702;0.27920917;;;;;;;;;;;;;;;
1574.0;1457.7;;;;-0.25628665;0.85432446;0.27657703;;;;;;;;;;;;;;;
1574.0;1457.7;;;;-0.26652148;0.8464433;0.2718735;;;;;;;;;;;;;;;
1574.0;1457.7;;;;-0.2765961;0.8383981;0.26799777;;;;;;;;;;;;;;;
1574.0;1459.8;262143;262143;12431;;;;;;;;;;;;;;;;;;
1574.0;1467.8;;;;-0.2824364;0.8306848;0.26422122;;;;;;;;;;;;;;;
1574.0;1467.8;;;;-0.28647998;0.82361996;0.26148608;;;;;;;;;;;;;;;
1574.0;1467.8;;;;-0.28924564;0.8165513;0.25691608;;;;;;;;;;;;;;;
1574.0;1467.8;;;;-0.28971103;0.80955136;0.2507439;;;;;;;;;;;;;;;
1574.0;1467.8;;;;-0.28517535;0.80298626;0.24379733;;;;;;;;;;;;;;;
1576.0;1477.9;;;;-0.27936938;0.7979585;0.24231723;;;;;;;;;;;;;;;
1576.0;1477.9;;;;-0.2732964;0.79314053;0.23957065;;;;;;;;;;;;;;;
1576.0;1477.9;;;;-0.26747134;0.78912747;0.23608783;;;;;;;;;;;;;;;
1576.0;1477.9;;;;-0.26041034;0.7848512;0.23266605;;;;;;;;;;;;;;;
1576.0;1477.9;;;;-0.252533;0.779461;0.23011401;;;;;;;;;;;;;;;
1576.0;1480.1;262143;262143;12440;;;;;;;;;;;;;;;;;;
1576.0;1484.8;;;;;;;;;;;;;;;;;8.484145;-40.719322;47.963654;;1361.1
1576.0;1484.8;;;;;;;;;;;;;;-0.16412854;-0.9792779;-0.36628315;;;;;1361.1
1576.0;1484.8;;;;;;;;;;;;;;;;;11.482589;-43.065434;46.349987;;1361.1
1576.0;1484.8;;;;;;;;;;;;;;-0.029114658;-0.9692068;-0.34003723;;;;;1361.1
1576.0;1484.8;;;;;;;;;;;;;;;;;12.344738;-45.25895;44.46165;;1370.8
1576.0;1484.8;;;;;;;;;;;;;;0.07519761;-0.9488815;-0.32013917;;;;;1370.8
1576.0;1484.8;;;;;;;;;;;;;;;;;12.115849;-46.124912;41.45558;;1370.8
1576.0;1484.8;;;;;;;;;;;;;;0.15546128;-0.9190344;-0.2870571;;;;;1370.8
1576.0;1484.8;;;;;;;;;;;;;;;;;11.753441;-47.95984;38.224434;;1380.4
1576.0;1484.8;;;;;;;;;;;;;;0.2202826;-0.8860744;-0.26294747;;;;;1380.4
1576.0;1484.8;;;;;;;;;;;;;;;;;11.921293;-50.801872;35.618916;;1380.4
1576.0;1484.8;;;;;;;;;;;;;;0.27546006;-0.8600726;-0.26233712;;;;;1380.4
1577.0;1485.5;;;;;;;;;;;;;;;;;12.668996;-53.147984;32.98288;;1390.0
1577.0;1485.5;;;;;;;;;;;;;;0.32868436;-0.81789607;-0.26136053;;;;;1390.0
1577.0;1485.5;;;;;;;;;;;;;;;;;12.68807;-53.29295;30.270546;;1390.0
1577.0;1485.5;;;;;;;;;;;;;;0.35749382;-0.7940306;-0.2164983;;;;;1390.0
1577.0;1485.5;;;;;;;;;;;;;;;;;12.455366;-52.23243;26.779993;;1399.6
1577.0;1485.5;;;;;;;;;;;;;;0.39368877;-0.78096867;-0.17181921;;;;;1399.6
1577.0;1485.5;;;;;;;;;;;;;;;;;12.7719965;-49.09284;22.972807;;1399.6
1577.0;1485.5;;;;;;;;;;;;;;0.43360698;-0.76650286;-0.13641773;;;;;1399.6
1577.0;1485.5;;;;;;;;;;;;;;;;;13.256477;-43.301952;18.795588;;1409.3
1577.0;1485.5;;;;;;;;;;;;;;0.47267067;-0.75673693;-0.10711997;;;;;1409.3
1577.0;1485.5;;;;;;;;;;;;;;;;;13.744773;-36.378063;14.206367;;1409.3
1577.0;1485.5;;;;;;;;;;;;;;0.5114902;-0.7525254;-0.098391674;;;;;1409.3
1577.0;1486.1;;;;;;;;;;;;;-931;;;;;;;;
1577.0;1486.1;;;;;;;;;;;;;-1197;;;;;;;;
1577.0;1486.1;;;;;;;;;;;;;-1474;;;;;;;;
1577.0;1486.1;;;;;;;;;;;;;-1719;;;;;;;;
1577.0;1486.1;;;;;;;;;;;;;-1972;;;;;;;;
1577.0;1487.8;;;;-0.24645999;0.7731744;0.23047641;;;;;;;;;;;;;;;
1577.0;1487.8;;;;-0.23994067;0.7647439;0.22842792;;;;;;;;;;;;;;;
1577.0;1487.8;;;;-0.22988513;0.7534486;0.21836093;;;;;;;;;;;;;;;
1577.0;1487.8;;;;-0.21930698;0.7412148;0.21050265;;;;;;;;;;;;;;;
1577.0;1487.8;;;;-0.20959857;0.7308236;0.20702747;;;;;;;;;;;;;;;
1623.0;1497.9;;;;-0.19860843;0.7209931;0.20137408;;;;;;;;;;;;;;;
1623.0;1497.9;;;;-0.1848488;0.71220785;0.19399264;;;;;;;;;;;;;;;
1623.0;1497.9;;;;-0.17030336;0.7037583;0.1879349;;;;;;;;;;;;;;;
1623.0;1497.9;;;;-0.15688325;0.6957703;0.18351366;;;;;;;;;;;;;;;
1623.0;1497.9;;;;-0.14427568;0.6891213;0.1790085;;;;;;;;;;;;;;;
1623.0;1500.2;;;;;;;;;;;;;;;;;14.450515;-29.09177;9.437849;;1418.9
1623.0;1500.2;;;;;;;;;;;;;;0.5550096;-0.76052123;-0.10382397;;;;;1418.9
1623.0;1500.2;;;;;;;;;;;;;;;;;15.003662;-23.037659;4.314554;;1418.9
1623.0;1500.2;;;;;;;;;;;;;;0.5963927;-0.7763909;-0.11255226;;;;;1418.9
1623.0;1500.2;;;;;;;;;;;;;;;;;15.484328;-18.986328;-0.5035554;;1428.6
1623.0;1500.2;;;;;;;;;;;;;;0.6300852;-0.80239266;-0.10522782;;;;;1428.6
1623.0;1500.2;;;;;;;;;;;;;;;;;16.678366;-17.571032;-5.4017763;;1428.6
1623.0;1500.2;;;;;;;;;;;;;;0.6524247;-0.82125306;-0.07843257;;;;;1428.6
1623.0;1500.2;;;;;;;;;;;;;;;;;18.135624;-19.207588;-9.811701;;1438.2
1623.0;1500.2;;;;;;;;;;;;;;0.65382856;-0.83797723;-0.05084384;;;;;1438.2
1623.0;1500.2;;;;;;;;;;;;;;;;;19.192327;-22.217474;-14.427626;;1438.2
1623.0;1500.2;;;;;;;;;;;;;;0.6305124;-0.8562883;-0.05023347;;;;;1438.2
1623.0;1500.1;262143;262143;12431;;;;;;;;;;;;;;;;;;
1623.0;1507.9;;;;-0.131691;0.6815873;0.17469789;;;;;;;;;;;;;;;
1623.0;1507.9;;;;-0.12004854;0.67390066;0.17114641;;;;;;;;;;;;;;;
1623.0;1507.9;;;;-0.10845186;0.6682244;0.16764452;;;;;;;;;;;;;;;
1623.0;1507.9;;;;-0.09496309;0.6638451;0.16380312;;;;;;;;;;;;;;;
1623.0;1507.9;;;;-0.08014298;0.6606179;0.16151811;;;;;;;;;;;;;;;
1624.0;1517.5;;;;-0.06481934;0.6569672;0.15937425;;;;;;;;;;;;;;;
1624.0;1517.5;;;;-0.051395424;0.65159994;0.15636446;;;;;;;;;;;;;;;
1624.0;1517.5;;;;-0.04215241;0.6464234;0.15289308;;;;;;;;;;;;;;;
1624.0;1517.5;;;;-0.033092503;0.6423226;0.14990617;;;;;;;;;;;;;;;
1624.0;1517.5;;;;-0.021736147;0.637085;0.14750291;;;;;;;;;;;;;;;
1624.0;1519.7;262143;262143;12445;;;;;;;;;;;;;;;;;;
1624.0;1525.9;;;;;;;;;;;;;-2170;;;;;;;;
1624.0;1525.9;;;;;;;;;;;;;-2138;;;;;;;;
1624.0;1525.9;;;;;;;;;;;;;-1871;;;;;;;;
1624.0;1525.9;;;;;;;;;;;;;-1490;;;;;;;;
1624.0;1525.9;;;;;;;;;;;;;-1013;;;;;;;;
1624.0;1527.6;;;;-0.010490418;0.630642;0.14505006;;;;;;;;;;;;;;;
1624.0;1527.6;;;;-6.484986E-4;0.6237336;0.14086153;;;;;;;;;;;;;;;
1624.0;1527.6;;;;0.00669098;0.61752707;0.13838197;;;;;;;;;;;;;;;
1624.0;1527.6;;;;0.01078415;0.6103707;0.13636018;;;;;;;;;;;;;;;
1624.0;1527.6;;;;0.0140037555;0.60243994;0.13156892;;;;;;;;;;;;;;;
1624.0;1537.7;;;;0.014213564;0.59522635;0.12671281;;;;;;;;;;;;;;;
1624.0;1537.7;;;;0.018653871;0.5878487;0.12270357;;;;;;;;;;;;;;;
1624.0;1537.7;;;;0.02574158;0.5821877;0.11919023;;;;;;;;;;;;;;;
1624.0;1537.7;;;;0.030090336;0.57653815;0.11460878;;;;;;;;;;;;;;;
1624.0;1537.7;;;;0.031795505;0.57052237;0.11024858;;;;;;;;;;;;;;;
1624.0;1540.0;262143;262143;12449;;;;;;;;;;;;;;;;;;
1626.0;1544.7;;;;;;;;;;;;;;;;;19.802696;-24.075289;-19.87518;;1447.9
1626.0;1544.7;;;;;;;;;;;;;;0.6023743;-0.8622089;-0.04870754;;;;;1447.9
1626.0;1544.7;;;;;;;;;;;;;;;;;19.436476;-25.742363;-25.711843;;1447.9
1626.0;1544.7;;;;;;;;;;;;;;0.56624043;-0.8579363;-0.03241066;;;;;1447.9
1626.0;1544.7;;;;;;;;;;;;;;;;;18.269142;-29.21003;-31.868954;;1457.6
1626.0;1544.7;;;;;;;;;;;;;;0.52308726;-0.8494522;-0.0042725913;;;;;1457.6
1626.0;1544.7;;;;;;;;;;;;;;;;;17.73507;-34.405804;-38.384655;;1457.6
1626.0;1544.7;;;;;;;;;;;;;;0.47621083;-0.82900476;0.0145878475;;;;;1457.6
1626.0;1544.7;;;;;;;;;;;;;;;;;17.254402;-40.21195;-45.392467;;1467.3
1626.0;1544.7;;;;;;;;;;;;;;0.45204017;-0.8042848;-0.008301035;;;;;1467.3
1626.0;1544.7;;;;;;;;;;;;;;;;;16.541033;-45.232246;-53.205208;;1467.3
1626.0;1544.7;;;;;;;;;;;;;;0.4634541;-0.77480394;-0.045838803;;;;;1467.3
1626.0;1547.7;;;;0.033248905;0.56394964;0.10575868;;;;;;;;;;;;;;;
1626.0;1547.7;;;;0.03684235;0.5576897;0.102447525;;;;;;;;;;;;;;;
1626.0;1547.7;;;;0.040996555;0.5511361;0.09986879;;;;;;;;;;;;;;;
1626.0;1547.7;;;;0.042198185;0.5441056;0.09716798;;;;;;;;;;;;;;;
1626.0;1547.7;;;;0.044055942;0.53765494;0.09337235;;;;;;;;;;;;;;;
1626.0;1557.8;;;;0.049205787;0.5315781;0.09017945;;;;;;;;;;;;;;;
1626.0;1557.8;;;;0.053237922;0.52579886;0.0870514;;;;;;;;;;;;;;;
1626.0;1557.8;;;;0.055049904;0.5196343;0.08373261;;;;;;;;;;;;;;;
1626.0;1557.8;;;;0.057510383;0.51373297;0.07994843;;;;;;;;;;;;;;;
1626.0;1557.8;;;;0.060550697;0.50864416;0.07635499;;;;;;;;;;;;;;;
1744.0;1559.8;;;;;;;;;;;;;;;;;15.739922;-48.43669;-61.941128;;1477.0
1744.0;1559.8;;;;;;;;;;;;;;0.49201941;-0.7398297;-0.05774102;;;;;1477.0
1744.0;1559.8;;;;;;;;;;;;;;;;;15.671255;-49.981686;-71.100494;;1477.0
1744.0;1559.8;;;;;;;;;;;;;;0.5122837;-0.71138644;-0.024597919;;;;;1477.0
1744.0;1559.8;;;;;;;;;;;;;;;;;17.952513;-50.717945;-80.774864;;1486.7
1744.0;1559.8;;;;;;;;;;;;;;0.5188757;-0.6823328;0.022278512;;;;;1486.7
1744.0;1559.8;;;;;;;;;;;;;;;;;21.549883;-50.786613;-91.49068;;1486.7
1744.0;1559.8;;;;;;;;;;;;;;0.51081884;-0.633137;0.039674062;;;;;1486.7
1744.0;1559.8;;;;;;;;;;;;;;;;;24.212624;-50.469982;-103.488266;;1496.4
1744.0;1559.8;;;;;;;;;;;;;;0.50593585;-0.5717948;0.020813623;;;;;1496.4
1744.0;1559.8;;;;;;;;;;;;;;;;;24.498734;-50.176243;-115.985596;;1496.4
1744.0;1559.8;;;;;;;;;;;;;;0.49464402;-0.50294507;-0.011719108;;;;;1496.4
1744.0;1560.0;262143;262143;12448;;;;;;;;;;;;;;;;;;
1744.0;1566.2;;;;;;;;;;;;;-670;;;;;;;;
1744.0;1566.2;;;;;;;;;;;;;-571;;;;;;;;
1744.0;1566.2;;;;;;;;;;;;;-543;;;;;;;;
1744.0;1566.2;;;;;;;;;;;;;-610;;;;;;;;
1744.0;1566.2;;;;;;;;;;;;;-704;;;;;;;;
1744.0;1567.7;;;;0.06834031;0.5057755;0.0728798;;;;;;;;;;;;;;;
1744.0;1567.7;;;;0.07953263;0.49952704;0.06968308;;;;;;;;;;;;;;;
1744.0;1567.7;;;;0.08432389;0.4896546;0.06557847;;;;;;;;;;;;;;;
1744.0;1567.7;;;;0.08829499;0.47926337;0.06275178;;;;;;;;;;;;;;;
1744.0;1567.7;;;;0.09097672;0.46947104;0.05944825;;;;;;;;;;;;;;;
1747.0;1577.6;;;;0.09391786;0.45782858;0.055877693;;;;;;;;;;;;;;;
1747.0;1577.6;;;;0.101764694;0.44427496;0.056049354;;;;;;;;;;;;;;;
1747.0;1577.6;;;;0.10594179;0.43178183;0.05561448;;;;;;;;;;;;;;;
1747.0;1577.6;;;;0.10412599;0.42046744;0.05385209;;;;;;;;;;;;;;;
1747.0;1577.6;;;;0.08947755;0.40934378;0.049388893;;;;;;;;;;;;;;;
1747.0;1580.0;262143;262143;12442;;;;;;;;;;;;;;;;;;
1747.0;1587.7;;;;0.07838059;0.39738852;0.04661942;;;;;;;;;;;;;;;
1747.0;1587.7;;;;0.07423783;0.3852616;0.04653931;;;;;;;;;;;;;;;
1747.0;1587.7;;;;0.07288743;0.37280658;0.044174198;;;;;;;;;;;;;;;
1747.0;1587.7;;;;0.06415177;0.36257175;0.04346848;;;;;;;;;;;;;;;
1747.0;1587.7;;;;0.05001069;0.35598376;0.045242313;;;;;;;;;;;;;;;
1747.0;1597.8;;;;0.04928208;0.34701923;0.04121018;;;;;;;;;;;;;;;
1747.0;1597.8;;;;0.0479889;0.3419495;0.04193497;;;;;;;;;;;;;;;
1747.0;1597.8;;;;0.0514412;0.3351784;0.040485386;;;;;;;;;;;;;;;
1747.0;1597.8;;;;0.04783631;0.33782962;0.051097877;;;;;;;;;;;;;;;
1747.0;1597.8;;;;0.06485749;0.3303528;0.04305649;;;;;;;;;;;;;;;
1747.0;1600.3;262143;262143;12448;;;;;;;;;;;;;;;;;;
1747.0;1606.4;;;;;;;;;;;;;-717;;;;;;;;
1747.0;1606.4;;;;;;;;;;;;;-241;;;;;;;;
1747.0;1606.4;;;;;;;;;;;;;642;;;;;;;;
1747.0;1606.4;;;;;;;;;;;;;1170;;;;;;;;
1747.0;1606.4;;;;;;;;;;;;;1239;;;;;;;;
1748.0;1607.9;;;;0.06798936;0.32714465;0.041572575;;;;;;;;;;;;;;;
1748.0;1607.9;;;;0.06623078;0.32545856;0.04602814;;;;;;;;;;;;;;;
1748.0;1607.9;;;;0.06403733;0.32907107;0.05509568;;;;;;;;;;;;;;;
1748.0;1607.9;;;;0.07146073;0.3290787;0.04745484;;;;;;;;;;;;;;;
1748.0;1607.9;;;;0.06395722;0.33039096;0.045291904;;;;;;;;;;;;;;;
1748.0;1618.0;;;;0.055816658;0.33274463;0.04936982;;;;;;;;;;;;;;;
1748.0;1618.0;;;;0.05931855;0.33472446;0.048374183;;;;;;;;;;;;;;;
1748.0;1618.0;;;;0.04948426;0.3493767;0.05552674;;;;;;;;;;;;;;;
1748.0;1618.0;;;;0.056766517;0.3661423;0.05949021;;;;;;;;;;;;;;;
1748.0;1618.0;;;;0.06906129;0.36286548;0.048072822;;;;;;;;;;;;;;;
1748.0;1620.4;262143;262143;12459;;;;;;;;;;;;;;;;;;
1748.0;1628.0;;;;0.04187012;0.37008289;0.043617252;;;;;;;;;;;;;;;
1748.0;1628.0;;;;0.04161835;0.37518317;0.051486976;;;;;;;;;;;;;;;
1748.0;1628.0;;;;0.04302979;0.38077933;0.0572548;;;;;;;;;;;;;;;
1748.0;1628.0;;;;0.038551334;0.38878256;0.056072243;;;;;;;;;;;;;;;
1748.0;1628.0;;;;0.03300095;0.40394217;0.050445564;;;;;;;;;;;;;;;
1748.0;1638.1;;;;0.02826691;0.41688544;0.050598152;;;;;;;;;;;;;;;
1748.0;1638.1;;;;0.016551973;0.42638022;0.052345283;;;;;;;;;;;;;;;
1748.0;1638.1;;;;8.0490124E-4;0.4343453;0.050338753;;;;;;;;;;;;;;;
1748.0;1638.1;;;;-0.007534028;0.44411474;0.049537666;;;;;;;;;;;;;;;
1748.0;1638.1;;;;-0.0018539431;0.4546395;0.048206337;;;;;;;;;;;;;;;
1750.0;1640.6;262143;262143;12461;;;;;;;;;;;;;;;;;;
1750.0;1646.8;;;;;;;;;;;;;63;;;;;;;;
1750.0;1646.8;;;;;;;;;;;;;-2903;;;;;;;;
1750.0;1646.8;;;;;;;;;;;;;-5450;;;;;;;;
1750.0;1646.8;;;;;;;;;;;;;-4337;;;;;;;;
1750.0;1646.8;;;;;;;;;;;;;709;;;;;;;;
1750.0;1648.2;;;;0.003711701;0.46599966;0.04691697;;;;;;;;;;;;;;;
1750.0;1648.2;;;;0.004302979;0.47706228;0.044872288;;;;;;;;;;;;;;;
1750.0;1648.2;;;;0.0041465764;0.49049765;0.038902286;;;;;;;;;;;;;;;
1750.0;1648.2;;;;0.007221223;0.50742346;0.030738834;;;;;;;;;;;;;;;
1750.0;1648.2;;;;0.009521485;0.5255776;0.024349216;;;;;;;;;;;;;;;
1750.0;1658.3;;;;0.00630951;0.5420266;0.01633072;;;;;;;;;;;;;;;
1750.0;1658.3;;;;-0.006137849;0.55897146;0.007141114;;;;;;;;;;;;;;;
1750.0;1658.3;;;;-0.015716555;0.57677466;-0.0033378606;;;;;;;;;;;;;;;
1750.0;1658.3;;;;-0.020092012;0.5955735;-0.010967256;;;;;;;;;;;;;;;
1750.0;1658.3;;;;-0.025588993;0.6148835;-0.01836014;;;;;;;;;;;;;;;
1750.0;1660.9;262143;262143;12465;;;;;;;;;;;;;;;;;;
1863.0;1665.6;;;;;;;;;;;;;;;;;23.32377;-53.521835;-124.111145;;1506.1
1863.0;1665.6;;;;;;;;;;;;;;0.48683128;-0.43433943;-0.051698357;;;;;1506.1
1863.0;1665.6;;;;;;;;;;;;;;;;;25.38377;-60.457165;-124.988556;;1506.1
1863.0;1665.6;;;;;;;;;;;;;;0.48036134;-0.40070802;-0.069093905;;;;;1506.1
1863.0;1665.6;;;;;;;;;;;;;;;;;32.76162;-69.006165;-124.988556;;1515.7
1863.0;1665.6;;;;;;;;;;;;;;0.4740745;-0.38306832;-0.052125614;;;;;1515.7
1863.0;1665.6;;;;;;;;;;;;;;;;;42.687767;-77.307205;-124.988556;;1515.7
1863.0;1665.6;;;;;;;;;;;;;;0.43287453;-0.3869747;0.011902219;;;;;1515.7
1863.0;1665.6;;;;;;;;;;;;;;;;;50.22965;-84.20057;-124.988556;;1525.4
1863.0;1665.6;;;;;;;;;;;;;;0.36878568;-0.37739187;0.101260416;;;;;1525.4
1863.0;1665.6;;;;;;;;;;;;;;;;;54.68917;-92.150635;-124.988556;;1525.4
1863.0;1665.6;;;;;;;;;;;;;;0.29969177;-0.36353648;0.16815698;;;;;1525.4
1863.0;1666.8;;;;;;;;;;;;;;;;;56.169315;-101.09256;-124.988556;;1535.0
1863.0;1666.8;;;;;;;;;;;;;;0.22864467;-0.366039;0.15979491;;;;;1535.0
1863.0;1666.8;;;;;;;;;;;;;;;;;56.939907;-108.382675;-124.988556;;1535.0
1863.0;1666.8;;;;;;;;;;;;;;0.16083254;-0.38972136;0.10223701;;;;;1535.0
1863.0;1666.8;;;;;;;;;;;;;;;;;58.290356;-111.93807;-124.988556;;1544.7
1863.0;1666.8;;;;;;;;;;;;;;0.11127049;-0.4066286;0.039857175;;;;;1544.7
1863.0;1666.8;;;;;;;;;;;;;;;;;61.998352;-112.95282;-124.988556;;1544.7
1863.0;1666.8;;;;;;;;;;;;;;0.06622516;-0.4349498;0.022888882;;;;;1544.7
1863.0;1666.8;;;;;;;;;;;;;;;;;69.792015;-114.27656;-124.988556;;1554.4
1863.0;1666.8;;;;;;;;;;;;;;0.0540788;-0.44782862;0.08642842;;;;;1554.4
1863.0;1666.8;;;;;;;;;;;;;;;;;76.86087;-116.98889;-124.988556;;1554.4
1863.0;1666.8;;;;;;;;;;;;;;0.047059543;-0.460036;0.18195136;;;;;1554.4
1867.0;1668.3;;;;-0.037601475;0.6360627;-0.025798801;;;;;;;;;;;;;;;
1867.0;1668.3;;;;-0.053611763;0.65726095;-0.031387333;;;;;;;;;;;;;;;
1867.0;1668.3;;;;-0.07231904;0.67831045;-0.0353241;;;;;;;;;;;;;;;
1867.0;1668.3;;;;-0.09086228;0.6982766;-0.03688431;;;;;;;;;;;;;;;
1867.0;1668.3;;;;-0.109935775;0.7160569;-0.03602219;;;;;;;;;;;;;;;
1867.0;1673.1;;;;;;;;;;;;;;;;;79.8059;-120.403145;-124.988556;;1564.1
1867.0;1673.1;;;;;;;;;;;;;;0.05511643;-0.4873806;0.252266;;;;;1564.1
1867.0;1673.1;;;;;;;;;;;;;;;;;76.92572;-121.89855;-124.988556;;1564.1
1867.0;1673.1;;;;;;;;;;;;;;0.060731836;-0.534196;0.25214392;;;;;1564.1
1867.0;1673.1;;;;;;;;;;;;;;;;;69.16638;-119.36171;-124.988556;;1573.7
1867.0;1673.1;;;;;;;;;;;;;;0.07525864;-0.5767388;0.1604053;;;;;1573.7
1867.0;1673.1;;;;;;;;;;;;;;;;;56.905575;-112.136444;-124.988556;;1573.7
1867.0;1673.1;;;;;;;;;;;;;;0.068300426;-0.6263009;0.0110477;;;;;1573.7
1867.0;1673.1;;;;;;;;;;;;;;;;;42.352062;-101.088745;-124.988556;;1583.4
1867.0;1673.1;;;;;;;;;;;;;;0.03784295;-0.70259714;-0.12128056;;;;;1583.4
1867.0;1673.1;;;;;;;;;;;;;;;;;27.04703;-89.08734;-124.988556;;1583.4
1867.0;1673.1;;;;;;;;;;;;;;0.116214484;-0.8005005;-0.21887875;;;;;1583.4
1867.0;1678.3;;;;-0.13612749;0.73592764;-0.031021122;;;;;;;;;;;;;;;
1867.0;1678.3;;;;-0.1483307;0.74493414;-0.031520847;;;;;;;;;;;;;;;
1867.0;1678.3;;;;-0.16266634;0.7544633;-0.024700169;;;;;;;;;;;;;;;
1867.0;1678.3;;;;-0.17245866;0.76143277;-0.021686556;;;;;;;;;;;;;;;
1867.0;1678.3;;;;-0.18332292;0.77015316;-0.017105104;;;;;;;;;;;;;;;
1867.0;1680.9;262143;262143;12476;;;;;;;;;;;;;;;;;;
1869.0;1687.0;;;;;;;;;;;;;5508;;;;;;;;
1869.0;1687.0;;;;;;;;;;;;;6358;;;;;;;;
1869.0;1687.0;;;;;;;;;;;;;4023;;;;;;;;
1869.0;1687.0;;;;;;;;;;;;;1779;;;;;;;;
1869.0;1687.0;;;;;;;;;;;;;1184;;;;;;;;
1869.0;1688.3;;;;-0.19456866;0.7801057;-0.006477357;;;;;;;;;;;;;;;
1869.0;1688.3;;;;-0.20885852;0.7904779;0.0012168885;;;;;;;;;;;;;;;
1869.0;1688.3;;;;-0.22689441;0.79975903;0.0068206796;;;;;;;;;;;;;;;
1869.0;1688.3;;;;-0.24520877;0.8103906;0.012191774;;;;;;;;;;;;;;;
1869.0;1688.3;;;;-0.26303485;0.8237344;0.019916536;;;;;;;;;;;;;;;
1869.0;1697.9;;;;-0.28398135;0.8384477;0.028514866;;;;;;;;;;;;;;;
1869.0;1697.9;;;;-0.3052483;0.8552705;0.038536076;;;;;;;;;;;;;;;
1869.0;1697.9;;;;-0.32708362;0.8735467;0.05510331;;;;;;;;;;;;;;;
1869.0;1697.9;;;;-0.34494022;0.8922769;0.076969154;;;;;;;;;;;;;;;
1869.0;1697.9;;;;-0.36338046;0.9129678;0.10189058;;;;;;;;;;;;;;;
1869.0;1700.6;262143;262143;12467;;;;;;;;;;;;;;;;;;
1869.0;1708.0;;;;-0.38554007;0.93488705;0.12789156;;;;;;;;;;;;;;;
1869.0;1708.0;;;;-0.4131623;0.95697796;0.15158083;;;;;;;;;;;;;;;
1869.0;1708.0;;;;-0.43716818;0.9795114;0.17517473;;;;;;;;;;;;;;;
1869.0;1708.0;;;;-0.43606573;1.0006944;0.19581988;;;;;;;;;;;;;;;
1869.0;1708.0;;;;-0.4637223;1.042164;0.23344043;;;;;;;;;;;;;;;
1871.0;1718.1;;;;-0.49447638;1.0875398;0.26576236;;;;;;;;;;;;;;;
1871.0;1718.1;;;;-0.5165673;1.1366731;0.299202;;;;;;;;;;;;;;;
1871.0;1718.1;;;;-0.52247244;1.1781312;0.32493976;;;;;;;;;;;;;;;
1871.0;1718.1;;;;-0.52647406;1.2116777;0.34764865;;;;;;;;;;;;;;;
1871.0;1718.1;;;;-0.5437775;1.2419511;0.37953573;;;;;;;;;;;;;;;
1871.0;1720.9;262143;262143;12478;;;;;;;;;;;;;;;;;;
1871.0;1725.5;;;;;;;;;;;;;;;;;12.287516;-77.887054;-124.988556;;1592.9
1871.0;1725.5;;;;;;;;;;;;;;0.09833064;-0.8434706;-0.29981384;;;;;1592.9
1871.0;1725.5;;;;;;;;;;;;;;;;;-1.7128513;-69.185455;-124.988556;;1592.9
1871.0;1725.5;;;;;;;;;;;;;;-6.103702E-4;-0.90609455;-0.32239753;;;;;1592.9
1871.0;1725.5;;;;;;;;;;;;;;;;;-15.36607;-65.897095;-124.988556;;1602.6
1871.0;1725.5;;;;;;;;;;;;;;0.0076296274;-0.9964293;-0.30817592;;;;;1602.6
1871.0;1725.5;;;;;;;;;;;;;;;;;-29.446547;-70.07431;-124.988556;;1602.6
1871.0;1725.5;;;;;;;;;;;;;;0.10608234;-1.1156347;-0.32984406;;;;;1602.6
1871.0;1725.5;;;;;;;;;;;;;;;;;-46.201206;-79.56938;-124.988556;;1612.3
1871.0;1725.5;;;;;;;;;;;;;;0.2517777;-1.2609638;-0.41047394;;;;;1612.3
1871.0;1725.5;;;;;;;;;;;;;;;;;-61.994537;-95.336006;-124.988556;;1612.3
1871.0;1725.5;;;;;;;;;;;;;;0.39527574;-1.4153264;-0.568865;;;;;1612.3
1921.0;1726.2;;;;;;;;;;;;;;;;;-73.81664;-115.24171;-124.988556;;1621.8
1921.0;1726.2;;;;;;;;;;;;;;0.5251015;-1.5281228;-0.78621787;;;;;1621.8
1921.0;1726.2;;;;;;;;;;;;;;;;;-82.74331;-124.67193;-124.988556;;1621.8
1921.0;1726.2;;;;;;;;;;;;;;0.67030853;-1.7400433;-1.1051363;;;;;1621.8
1921.0;1726.2;;;;;;;;;;;;;;;;;-71.44002;-124.98093;-124.988556;;1631.5
1921.0;1726.2;;;;;;;;;;;;;;0.7773675;-1.9651479;-1.2806787;;;;;1631.5
1921.0;1726.2;;;;;;;;;;;;;;;;;-35.058136;-123.57326;-124.988556;;1631.5
1921.0;1726.2;;;;;;;;;;;;;;0.6412549;-1.9998169;-1.0769372;;;;;1631.5
1921.0;1726.2;;;;;;;;;;;;;;;;;9.212775;-112.52174;-124.988556;;1641.2
1921.0;1726.2;;;;;;;;;;;;;;0.70131534;-1.9998169;-0.9939268;;;;;1641.2
1921.0;1726.2;;;;;;;;;;;;;;;;;23.66329;-79.016235;-124.988556;;1641.2
1921.0;1726.2;;;;;;;;;;;;;;0.9016999;-1.9287088;-0.61580247;;;;;1641.2
1921.0;1726.8;;;;;;;;;;;;;1087;;;;;;;;
1921.0;1726.8;;;;;;;;;;;;;1057;;;;;;;;
1921.0;1726.8;;;;;;;;;;;;;1313;;;;;;;;
1921.0;1726.8;;;;;;;;;;;;;1295;;;;;;;;
1921.0;1726.8;;;;;;;;;;;;;1128;;;;;;;;
1921.0;1728.0;;;;-0.5626412;1.2606393;0.40466315;;;;;;;;;;;;;;;
1921.0;1728.0;;;;-0.58443457;1.2734948;0.4245873;;;;;;;;;;;;;;;
1921.0;1728.0;;;;-0.60574347;1.2809678;0.4411202;;;;;;;;;;;;;;;
1921.0;1728.0;;;;-0.63070303;1.2818986;0.46231467;;;;;;;;;;;;;;;
1921.0;1728.0;;;;-0.66146094;1.2764245;0.47860724;;;;;;;;;;;;;;;
1927.0;1738.1;;;;-0.68342215;1.263672;0.48632437;;;;;;;;;;;;;;;
1927.0;1738.1;;;;-0.6994477;1.2475511;0.4918099;;;;;;;;;;;;;;;
1927.0;1738.1;;;;-0.721325;1.2324487;0.5080529;;;;;;;;;;;;;;;
1927.0;1738.1;;;;-0.7440148;1.2141038;0.52086645;;;;;;;;;;;;;;;
1927.0;1738.1;;;;-0.76033795;1.1947061;0.5275765;;;;;;;;;;;;;;;
1927.0;1738.2;;;;;;;;;;0.4463332;15.732292;-1.5030366;;;;;;;;;
1927.0;1738.2;;;;;;;0.24433118;-0.6711631;0.3869747;;;;;;;;;;;;
1927.0;1738.2;;;;;;;;;;4.7227397;32.193214;9.266183;;;;;;;;;
1927.0;1738.2;;;;;;;0.27564317;-0.7408673;0.43482772;;;;;;;;;;;;
1927.0;1740.8;262143;262143;12466;;;;;;;;;;;;;;;;;;
1927.0;1747.6;;;;;;;;;;-3.5058138;7.290109;4.2191844;;;;;;;;;
1927.0;1747.6;;;;;;;0.27936643;-0.72939235;0.43177587;;;;;;;;;;;;
1927.0;1747.6;;;;;;;;;;1.7471846;15.312662;13.4891815;;;;;;;;;
1927.0;1747.6;;;;;;;0.28266242;-0.7202979;0.4333018;;;;;;;;;;;;
1927.0;1748.1;;;;-0.77196515;1.1753923;0.5332795;;;;;;;;;;;;;;;
1927.0;1748.1;;;;-0.776024;1.1553384;0.54002005;;;;;;;;;;;;;;;
1927.0;1748.1;;;;-0.77294934;1.1314203;0.55447394;;;;;;;;;;;;;;;
1927.0;1748.1;;;;-0.77510846;1.1101953;0.563675;;;;;;;;;;;;;;;
1927.0;1748.1;;;;-0.7823564;1.1043168;0.5674401;;;;;;;;;;;;;;;
1927.0;1757.1;;;;;;;;;;-0.29374066;14.038514;17.376476;;;;;;;;;
1927.0;1757.1;;;;;;;0.28583637;-0.7152318;0.43421736;;;;;;;;;;;;
1927.0;1757.1;;;;;;;;;;-7.4465165;-23.590809;-1.3275552;;;;;;;;;
1927.0;1757.1;;;;;;;0.2903531;-0.713889;0.4361095;;;;;;;;;;;;
1928.0;1758.0;;;;-0.78099453;1.0997735;0.5745087;;;;;;;;;;;;;;;
1928.0;1758.0;;;;-0.7693635;1.0925218;0.58040625;;;;;;;;;;;;;;;
1928.0;1758.0;;;;-0.752926;1.0805665;0.5869561;;;;;;;;;;;;;;;
1928.0;1758.0;;;;-0.7379952;1.0661699;0.58941275;;;;;;;;;;;;;;;
1928.0;1758.0;;;;-0.7363854;1.0547448;0.59935385;;;;;;;;;;;;;;;
1928.0;1760.9;262143;262143;12461;;;;;;;;;;;;;;;;;;
1928.0;1766.8;;;;;;;;;;-9.01822;-26.360363;-1.1291848;;;;;;;;;
1928.0;1766.8;;;;;;;0.29322183;-0.71199685;0.43513292;;;;;;;;;;;;
1928.0;1766.8;;;;;;;;;;-9.990996;-28.626362;-1.9112216;;;;;;;;;
1928.0;1766.8;;;;;;;0.296762;-0.709006;0.43360698;;;;;;;;;;;;
1928.0;1767.1;;;;;;;;;;;;;1213;;;;;;;;
1928.0;1767.1;;;;;;;;;;;;;1399;;;;;;;;
1928.0;1767.1;;;;;;;;;;;;;1353;;;;;;;;
1928.0;1767.1;;;;;;;;;;;;;877;;;;;;;;
1928.0;1767.1;;;;;;;;;;;;;391;;;;;;;;
1928.0;1768.2;;;;-0.7115937;1.0376588;0.59702307;;;;;;;;;;;;;;;
1928.0;1768.2;;;;-0.6860581;1.0259134;0.60049826;;;;;;;;;;;;;;;
1928.0;1768.2;;;;-0.66214377;1.0179597;0.608574;;;;;;;;;;;;;;;
1928.0;1768.2;;;;-0.64820105;1.0141755;0.61705405;;;;;;;;;;;;;;;
1928.0;1768.2;;;;-0.60675436;1.0136415;0.60792166;;;;;;;;;;;;;;;
1928.0;1776.4;;;;;;;;;;-10.723441;-22.846918;2.1401105;;;;;;;;;
1928.0;1776.4;;;;;;;0.29981384;-0.70821255;0.42841884;;;;;;;;;;;;
1928.0;1776.4;;;;;;;;;;-10.250404;-14.885404;5.710776;;;;;;;;;
1928.0;1776.4;;;;;;;0.30127874;-0.7064425;0.42182684;;;;;;;;;;;;
1930.0;1778.3;;;;-0.5837632;1.031109;0.632824;;;;;;;;;;;;;;;
1930.0;1778.3;;;;-0.5755196;1.0434076;0.6386071;;;;;;;;;;;;;;;
1930.0;1778.3;;;;-0.5589562;1.0498925;0.6425782;;;;;;;;;;;;;;;
1930.0;1778.3;;;;-0.5149346;1.0558969;0.6466599;;;;;;;;;;;;;;;
1930.0;1778.3;;;;-0.48653418;1.0548288;0.6593018;;;;;;;;;;;;;;;
1930.0;1781.2;262143;262143;12459;;;;;;;;;;;;;;;;;;
1930.0;1785.8;;;;;;;;;;;;;;;;;-1.2932218;-62.623985;-124.988556;;1650.7
1930.0;1785.8;;;;;;;;;;;;;;0.9867855;-1.4855189;-0.3886227;;;;;1650.7
1930.0;1785.8;;;;;;;;;;;;;;;;;-23.957031;-46.239357;-123.51222;;1650.7
1930.0;1785.8;;;;;;;;;;;;;;0.95986813;-1.3658864;-0.2725303;;;;;1650.7
1930.0;1785.8;;;;;;;;;;;;;;;;;-33.76492;-32.013916;-115.01663;;1660.4
1930.0;1785.8;;;;;;;;;;;;;;0.92440563;-1.371807;-0.31690422;;;;;1660.4
1930.0;1785.8;;;;;;;;;;;;;;;;;-20.47792;-22.171696;-102.80541;;1660.4
1930.0;1785.8;;;;;;;;;;;;;;0.89370406;-1.3127842;-0.27314067;;;;;1660.4
1930.0;1785.8;;;;;;;;;;;;;;;;;-9.041108;-12.417218;-88.5609;;1670.0
1930.0;1785.8;;;;;;;;;;;;;;0.88845485;-1.2737815;-0.11969359;;;;;1670.0
1930.0;1785.8;;;;;;;;;;;;;;;;;-14.732811;-2.5406659;-73.07657;;1670.0
1930.0;1785.8;;;;;;;;;;;;;;0.8478652;-1.2643819;0.018982513;;;;;1670.0
1930.0;1785.9;;;;;;;;;;-9.125034;-14.698478;2.5978882;;;;;;;;;
1930.0;1785.9;;;;;;;0.30280465;-0.7058931;0.41724905;;;;;;;;;;;;
1930.0;1785.9;;;;;;;;;;-8.041628;-14.427626;-0.4158147;;;;;;;;;
1930.0;1785.9;;;;;;;0.29987487;-0.7000946;0.41279337;;;;;;;;;;;;
1931.0;1786.5;;;;;;;;;;;;;;;;;-27.703176;6.5004425;-60.9035;;1679.7
1931.0;1786.5;;;;;;;;;;;;;;0.7772454;-1.2693259;0.031922363;;;;;1679.7
1931.0;1786.5;;;;;;;;;;;;;;;;;-37.27836;15.129551;-52.655872;;1679.7
1931.0;1786.5;;;;;;;;;;;;;;0.71596426;-1.2738426;-0.074648276;;;;;1679.7
1931.0;1786.5;;;;;;;;;;;;;;;;;-39.761803;24.231697;-45.209354;;1689.3
1931.0;1786.5;;;;;;;;;;;;;;0.64766383;-1.2889187;-0.13843197;;;;;1689.3
1931.0;1786.5;;;;;;;;;;;;;;;;;-38.235878;32.06351;-37.221138;;1689.3
1931.0;1786.5;;;;;;;;;;;;;;0.58784753;-1.3071078;-0.13513596;;;;;1689.3
1931.0;1786.5;;;;;;;;;;;;;;;;;-35.73336;37.656025;-28.592028;;1699.0
1931.0;1786.5;;;;;;;;;;;;;;0.54414505;-1.3301188;-0.09887997;;;;;1699.0
1931.0;1786.5;;;;;;;;;;;;;;;;;-32.45262;40.94058;-18.898588;;1699.0
1931.0;1786.5;;;;;;;;;;;;;;0.5339518;-1.3409222;-0.06579791;;;;;1699.0
1931.0;1788.1;;;;-0.49137884;1.0472413;0.6678925;;;;;;;;;;;;;;;
1931.0;1788.1;;;;-0.5107766;1.0367624;0.6746598;;;;;;;;;;;;;;;
1931.0;1788.1;;;;-0.52991873;1.02623;0.68061835;;;;;;;;;;;;;;;
1931.0;1788.1;;;;-0.53763205;1.0182954;0.6890755;;;;;;;;;;;;;;;
1931.0;1788.1;;;;-0.5368157;1.0161096;0.6987954;;;;;;;;;;;;;;;
1932.0;1793.1;;;;;;;;;;;;;;;;;-27.64214;43.336285;-8.529923;;1708.7
1932.0;1793.1;;;;;;;;;;;;;;0.5272988;-1.3242592;-0.057313763;;;;;1708.7
1932.0;1793.1;;;;;;;;;;;;;;;;;-21.935179;45.381023;2.0638144;;1708.7
1932.0;1793.1;;;;;;;;;;;;;;0.53297526;-1.2675557;-0.060487688;;;;;1708.7
1932.0;1793.1;;;;;;;;;;;;;;;;;-19.56618;48.0781;12.909329;;1718.3
1932.0;1793.1;;;;;;;;;;;;;;0.5525071;-1.2179937;-0.07593005;;;;;1718.3
1932.0;1793.1;;;;;;;;;;;;;;;;;-19.520401;51.69454;22.938475;;1718.3
1932.0;1793.1;;;;;;;;;;;;;;0.57417524;-1.1973633;-0.08850368;;;;;1718.3
1932.0;1793.1;;;;;;;;;;;;;;;;;-18.490402;56.703392;33.14692;;1727.9
1932.0;1793.1;;;;;;;;;;;;;;0.5647755;-1.1618396;-0.07824946;;;;;1727.9
1932.0;1793.1;;;;;;;;;;;;;;;;;-17.998291;62.459946;44.591354;;1727.9
1932.0;1793.1;;;;;;;;;;;;;;0.54585403;-1.0954924;-0.06762902;;;;;1727.9
1932.0;1795.3;;;;;;;;;;-6.851405;-14.080477;-3.4409618;;;;;;;;;
1932.0;1795.3;;;;;;;0.29804376;-0.69356364;0.40845972;;;;;;;;;;;;
1932.0;1795.3;;;;;;;;;;-5.691702;-13.721885;-6.496628;;;;;;;;;
1932.0;1795.3;;;;;;;0.2933439;-0.68044066;0.40552995;;;;;;;;;;;;
1932.0;1798.1;;;;-0.5261803;1.0168;0.7066956;;;;;;;;;;;;;;;
1932.0;1798.1;;;;-0.51715475;1.0200158;0.71405035;;;;;;;;;;;;;;;
1932.0;1798.1;;;;-0.5161324;1.0252496;0.7192307;;;;;;;;;;;;;;;
1932.0;1798.1;;;;-0.5200158;1.0317804;0.72220236;;;;;;;;;;;;;;;
1932.0;1798.1;;;;-0.5310288;1.0357896;0.72274405;;;;;;;;;;;;;;;
1932.0;1801.0;262143;262143;12447;;;;;;;;;;;;;;;;;;
1934.0;1804.8;;;;;;;;;;-4.623554;-13.443404;-9.498886;;;;;;;;;
1934.0;1804.8;;;;;;;0.28876615;-0.66402173;0.3985107;;;;;;;;;;;;
1934.0;1804.8;;;;;;;;;;-3.6088138;-13.382367;-12.485885;;;;;;;;;
1934.0;1804.8;;;;;;;0.28431043;-0.64674824;0.38947722;;;;;;;;;;;;
1934.0;1807.1;;;;;;;;;;;;;357;;;;;;;;
1934.0;1807.1;;;;;;;;;;;;;583;;;;;;;;
1934.0;1807.1;;;;;;;;;;;;;482;;;;;;;;
1934.0;1807.1;;;;;;;;;;;;;-59;;;;;;;;
1934.0;1807.1;;;;;;;;;;;;;-626;;;;;;;;
1934.0;1808.1;;;;-0.5486756;1.0401956;0.720089;;;;;;;;;;;;;;;
1934.0;1808.1;;;;-0.56846243;1.0426751;0.71789557;;;;;;;;;;;;;;;
1934.0;1808.1;;;;-0.5887261;1.0429689;0.71422964;;;;;;;;;;;;;;;
1934.0;1808.1;;;;-0.6064835;1.0422403;0.7116204;;;;;;;;;;;;;;;
1934.0;1808.1;;;;-0.6196404;1.0385095;0.71078116;;;;;;;;;;;;;;;
1934.0;1814.0;;;;;;;;;;-2.5711844;-13.336589;-15.503403;;;;;;;;;
1934.0;1814.0;;;;;;;0.28058717;-0.63179415;0.38038272;;;;;;;;;;;;
1934.0;1814.0;;;;;;;;;;-1.5030366;-12.9703665;-18.467514;;;;;;;;;
1934.0;1814.0;;;;;;;0.27771842;-0.62153995;0.3749504;;;;;;;;;;;;
1934.0;1817.7;;;;-0.6302834;1.0298806;0.71117026;;;;;;;;;;;;;;;
1934.0;1817.7;;;;-0.6428376;1.0178567;0.7100144;;;;;;;;;;;;;;;
1934.0;1817.7;;;;-0.6564446;1.0053254;0.7101937;;;;;;;;;;;;;;;
1934.0;1817.7;;;;-0.66750723;0.99292004;0.70917135;;;;;;;;;;;;;;;
1934.0;1817.7;;;;-0.6813851;0.97781765;0.70810705;;;;;;;;;;;;;;;
1934.0;1820.8;262143;262143;12447;;;;;;;;;;;;;;;;;;
1936.0;1823.5;;;;;;;;;;-0.45396283;-12.184515;-21.454514;;;;;;;;;
1936.0;1823.5;;;;;;;0.2755211;-0.6159856;0.37043366;;;;;;;;;;;;
1936.0;1823.5;;;;;;;;;;0.5378887;-11.005738;-24.414808;;;;;;;;;
1936.0;1823.5;;;;;;;0.27546006;-0.61635184;0.36768702;;;;;;;;;;;;
1936.0;1827.8;;;;-0.69497687;0.96078885;0.703106;;;;;;;;;;;;;;;
1936.0;1827.8;;;;-0.7055703;0.9500123;0.6975785;;;;;;;;;;;;;;;
1936.0;1827.8;;;;-0.70867544;0.94269955;0.68855673;;;;;;;;;;;;;;;
1936.0;1827.8;;;;-0.6994172;0.9373895;0.67779166;;;;;;;;;;;;;;;
1936.0;1827.8;;;;-0.6893082;0.93371975;0.66585547;;;;;;;;;;;;;;;
1936.0;1833.2;;;;;;;;;;1.4343699;-9.514146;-27.241585;;;;;;;;;
1936.0;1833.2;;;;;;;0.2766808;-0.6237373;0.36671042;;;;;;;;;;;;
1936.0;1833.2;;;;;;;;;;2.2431104;-7.694479;-29.969175;;;;;;;;;
1936.0;1833.2;;;;;;;0.2764977;-0.6377148;0.3665273;;;;;;;;;;;;
1936.0;1837.9;;;;-0.690548;0.93291867;0.65069205;;;;;;;;;;;;;;;
1936.0;1837.9;;;;-0.68568045;0.93420804;0.6333085;;;;;;;;;;;;;;;
1936.0;1837.9;;;;-0.6782914;0.9353982;0.6175881;;;;;;;;;;;;;;;
1936.0;1837.9;;;;-0.66862494;0.9336816;0.6002274;;;;;;;;;;;;;;;
1936.0;1837.9;;;;-0.6613541;0.92575085;0.5828629;;;;;;;;;;;;;;;
1936.0;1841.0;262143;262143;12460;;;;;;;;;;;;;;;;;;
1936.0;1842.8;;;;;;;;;;3.0480363;-5.5352945;-32.35725;;;;;;;;;
1936.0;1842.8;;;;;;;0.27784052;-0.65865046;0.36725974;;;;;;;;;;;;
1936.0;1842.8;;;;;;;;;;3.8338878;-2.887814;-34.56221;;;;;;;;;
1936.0;1842.8;;;;;;;0.27906126;-0.68874174;0.3691519;;;;;;;;;;;;
1985.0;1845.6;;;;;;;;;;;;;;;;;-20.458845;67.97616;57.882168;;1737.6
1985.0;1845.6;;;;;;;;;;;;;;0.49482712;-1.0260323;-0.070558794;;;;;1737.6
1985.0;1845.6;;;;;;;;;;;;;;;;;-22.160252;71.63838;71.63075;;1737.6
1985.0;1845.6;;;;;;;;;;;;;;0.435255;-0.9452803;-0.093935974;;;;;1737.6
1985.0;1845.6;;;;;;;;;;;;;;;;;-22.90414;73.86624;85.18479;;1747.3
1985.0;1845.6;;;;;;;;;;;;;;0.36048463;-0.85616624;-0.10943937;;;;;1747.3
1985.0;1845.6;;;;;;;;;;;;;;;;;-22.366251;74.0112;97.08701;;1747.3
1985.0;1845.6;;;;;;;;;;;;;;0.31220436;-0.7734611;-0.12268441;;;;;1747.3
1985.0;1845.6;;;;;;;;;;;;;;;;;-19.871365;72.89728;108.11945;;1756.7
1985.0;1845.6;;;;;;;;;;;;;;0.27961057;-0.6980193;-0.12268441;;;;;1756.7
1985.0;1845.6;;;;;;;;;;;;;;;;;-15.961182;69.921715;119.41893;;1756.7
1985.0;1845.6;;;;;;;;;;;;;;0.21491134;-0.6313669;-0.11157567;;;;;1756.7
1985.0;1847.0;;;;;;;;;;;;;-938;;;;;;;;
1985.0;1847.0;;;;;;;;;;;;;-1068;;;;;;;;
1985.0;1847.0;;;;;;;;;;;;;-1351;;;;;;;;
1985.0;1847.0;;;;;;;;;;;;;-1874;;;;;;;;
1985.0;1847.0;;;;;;;;;;;;;-2360;;;;;;;;
1985.0;1847.9;;;;-0.66070944;0.9167634;0.56584173;;;;;;;;;;;;;;;
1985.0;1847.9;;;;-0.6575013;0.9117547;0.5467034;;;;;;;;;;;;;;;
1985.0;1847.9;;;;-0.6570893;0.9100152;0.5288468;;;;;;;;;;;;;;;
1985.0;1847.9;;;;-0.6554299;0.9079591;0.5103646;;;;;;;;;;;;;;;
1985.0;1847.9;;;;-0.6565972;0.9068986;0.49245077;;;;;;;;;;;;;;;
1985.0;1852.2;;;;;;;;;;4.7036653;0.38148138;-36.450546;;;;;;;;;
1985.0;1852.2;;;;;;;0.28333384;-0.73482466;0.37366864;;;;;;;;;;;;
1985.0;1852.2;;;;;;;;;;5.565813;4.528184;-37.923065;;;;;;;;;
1985.0;1852.2;;;;;;;0.28778955;-0.7909177;0.38080996;;;;;;;;;;;;
1988.0;1853.0;;;;;;;;;;;;;;;;;-12.80633;64.85565;124.76348;;1766.4
1988.0;1853.0;;;;;;;;;;;;;;0.14764854;-0.5706351;-0.105838194;;;;;1766.4
1988.0;1853.0;;;;;;;;;;;;;;;;;-9.998627;59.934536;124.988556;;1766.4
1988.0;1853.0;;;;;;;;;;;;;;0.08868679;-0.521012;-0.093813896;;;;;1766.4
1988.0;1853.0;;;;;;;;;;;;;;;;;-7.3587756;56.581318;124.988556;;1776.1
1988.0;1853.0;;;;;;;;;;;;;;0.03607288;-0.5019074;-0.047791988;;;;;1776.1
1988.0;1853.0;;;;;;;;;;;;;;;;;-6.088443;48.242134;124.988556;;1776.1
1988.0;1853.0;;;;;;;;;;;;;;-0.021240883;-0.5157628;-0.020813623;;;;;1776.1
1988.0;1853.0;;;;;;;;;;;;;;;;;-5.93585;31.55614;124.988556;;1785.7
1988.0;1853.0;;;;;;;;;;;;;;-0.10559405;-0.52467424;-0.061281167;;;;;1785.7
1988.0;1853.0;;;;;;;;;;;;;;;;;-4.146703;10.166478;124.988556;;1785.7
1988.0;1853.0;;;;;;;;;;;;;;-0.20422986;-0.5246132;-0.12573627;;;;;1785.7
1988.0;1857.9;;;;-0.6550217;0.90428555;0.47285467;;;;;;;;;;;;;;;
1988.0;1857.9;;;;-0.6458588;0.90451825;0.45565802;;;;;;;;;;;;;;;
1988.0;1857.9;;;;-0.64752585;0.90488064;0.44006354;;;;;;;;;;;;;;;
1988.0;1857.9;;;;-0.6611596;0.89883435;0.42251974;;;;;;;;;;;;;;;
1988.0;1857.9;;;;-0.66208273;0.89366925;0.40258795;;;;;;;;;;;;;;;
1988.0;1860.9;262143;262143;12461;;;;;;;;;;;;;;;;;;
1988.0;1861.7;;;;;;;;;;6.5004425;9.483627;-38.865322;;;;;;;;;
1988.0;1861.7;;;;;;;0.29151282;-0.85659355;0.39197972;;;;;;;;;;;;
1988.0;1861.7;;;;;;;;;;7.442702;15.343181;-39.30784;;;;;;;;;
1988.0;1861.7;;;;;;;0.3005463;-0.9337443;0.4076052;;;;;;;;;;;;
1989.0;1867.9;;;;-0.6537705;0.89294064;0.3870774;;;;;;;;;;;;;;;
1989.0;1867.9;;;;-0.65164953;0.89281857;0.3735161;;;;;;;;;;;;;;;
1989.0;1867.9;;;;-0.66182715;0.89393246;0.3602791;;;;;;;;;;;;;;;
1989.0;1867.9;;;;-0.6654702;0.8914224;0.34837726;;;;;;;;;;;;;;;
1989.0;1867.9;;;;-0.67029196;0.88585675;0.34262088;;;;;;;;;;;;;;;
1989.0;1871.1;;;;;;;;;;8.373516;22.31666;-39.094208;;;;;;;;;
1989.0;1871.1;;;;;;;0.30817592;-1.0251167;0.4280526;;;;;;;;;;;;
1989.0;1871.1;;;;;;;;;;9.491257;30.629139;-37.980286;;;;;;;;;
1989.0;1871.1;;;;;;;0.3177587;-1.1269876;0.45179603;;;;;;;;;;;;
1989.0;1877.7;;;;-0.6827546;0.8786241;0.3363686;;;;;;;;;;;;;;;
1989.0;1877.7;;;;-0.6838723;0.87070096;0.3306084;;;;;;;;;;;;;;;
1989.0;1877.7;;;;-0.6831055;0.8615037;0.32788852;;;;;;;;;;;;;;;
1989.0;1877.7;;;;-0.70063025;0.8561746;0.32283786;;;;;;;;;;;;;;;
1989.0;1877.7;;;;-0.66304785;0.83843243;0.32884982;;;;;;;;;;;;;;;
1989.0;1880.5;;;;;;;;;;10.658589;39.80758;-35.985138;;;;;;;;;
1989.0;1880.5;;;;;;;0.3304544;-1.2391735;0.47975096;;;;;;;;;;;;
1989.0;1880.5;;;;;;;;;;11.997589;49.48195;-33.25373;;;;;;;;;
1989.0;1880.5;;;;;;;0.34406567;-1.3564256;0.5075228;;;;;;;;;;;;
1989.0;1880.7;262143;262143;12458;;;;;;;;;;;;;;;;;;
1989.0;1886.8;;;;;;;;;;;;;-2756;;;;;;;;
1989.0;1886.8;;;;;;;;;;;;;-3184;;;;;;;;
1989.0;1886.8;;;;;;;;;;;;;-3427;;;;;;;;
1989.0;1886.8;;;;;;;;;;;;;-3171;;;;;;;;
1989.0;1886.8;;;;;;;;;;;;;-2666;;;;;;;;
1992.0;1887.6;;;;-0.6419793;0.83490765;0.3482819;;;;;;;;;;;;;;;
1992.0;1887.6;;;;-0.6728249;0.832142;0.35788348;;;;;;;;;;;;;;;
1992.0;1887.6;;;;-0.7241059;0.8206521;0.36763003;;;;;;;;;;;;;;;
1992.0;1887.6;;;;-0.7414666;0.81484234;0.3841744;;;;;;;;;;;;;;;
1992.0;1887.6;;;;-0.7359353;0.81063855;0.4062081;;;;;;;;;;;;;;;
1992.0;1890.1;;;;;;;;;;13.3785515;60.1062;-29.728844;;;;;;;;;
1992.0;1890.1;;;;;;;0.35853145;-1.4698324;0.5315714;;;;;;;;;;;;
1992.0;1890.1;;;;;;;;;;14.259773;70.1239;-25.460066;;;;;;;;;
1992.0;1890.1;;;;;;;0.37745294;-1.5897092;0.560564;;;;;;;;;;;;
1992.0;1897.8;;;;-0.7472802;0.8065187;0.42534262;;;;;;;;;;;;;;;
1992.0;1897.8;;;;-0.76049435;0.80342877;0.4438401;;;;;;;;;;;;;;;
1992.0;1897.8;;;;-0.7610284;0.80620205;0.46514517;;;;;;;;;;;;;;;
1992.0;1897.8;;;;-0.75019085;0.8018075;0.48188788;;;;;;;;;;;;;;;
1992.0;1897.8;;;;-0.7392846;0.78673184;0.49543768;;;;;;;;;;;;;;;
1992.0;1899.7;;;;;;;;;;15.518662;78.53557;-21.069216;;;;;;;;;
1992.0;1899.7;;;;;;;0.3952147;-1.7110507;0.59382915;;;;;;;;;;;;
1992.0;1899.7;;;;;;;;;;17.521439;87.2982;-16.857662;;;;;;;;;
1992.0;1899.7;;;;;;;0.40681174;-1.8322092;0.6294137;;;;;;;;;;;;
1992.0;1901.0;262143;262143;12459;;;;;;;;;;;;;;;;;;
1999.0;1905.9;;;;;;;;;;;;;;;;;-2.1782587;-12.134923;124.988556;;1795.4
1999.0;1905.9;;;;;;;;;;;;;;-0.2840663;-0.51661736;-0.19684438;;;;;1795.4
1999.0;1905.9;;;;;;;;;;;;;;;;;-0.9765923;-32.235176;124.988556;;1795.4
1999.0;1905.9;;;;;;;;;;;;;;-0.32966095;-0.52821434;-0.23798333;;;;;1795.4
1999.0;1905.9;;;;;;;;;;;;;;;;;-1.1940367;-45.693836;124.988556;;1805.0
1999.0;1905.9;;;;;;;;;;;;;;-0.30365917;-0.5904721;-0.2741783;;;;;1805.0
1999.0;1905.9;;;;;;;;;;;;;;;;;0.8163701;-49.80239;124.988556;;1805.0
1999.0;1905.9;;;;;;;;;;;;;;-0.18842128;-0.73543507;-0.25263223;;;;;1805.0
1999.0;1905.9;;;;;;;;;;;;;;;;;7.1298866;-47.956024;124.988556;;1814.5
1999.0;1905.9;;;;;;;;;;;;;;-0.02478103;-0.86519974;-0.20343639;;;;;1814.5
1999.0;1905.9;;;;;;;;;;;;;;;;;18.35307;-42.031616;124.988556;;1814.5
1999.0;1905.9;;;;;;;;;;;;;;0.11493271;-0.97720265;-0.10357982;;;;;1814.5
1999.0;1906.8;;;;;;;;;;;;;;;;;26.92114;-34.821617;124.988556;;1824.0
1999.0;1906.8;;;;;;;;;;;;;;0.24597919;-1.0613728;0.026551103;;;;;1824.0
1999.0;1906.8;;;;;;;;;;;;;;;;;23.899809;-27.890102;124.988556;;1824.0
1999.0;1906.8;;;;;;;;;;;;;;0.4013184;-1.0840786;0.14380322;;;;;1824.0
1999.0;1906.8;;;;;;;;;;;;;;;;;9.273812;-26.600697;124.988556;;1833.7
1999.0;1906.8;;;;;;;;;;;;;;0.50343335;-1.1151463;0.1594287;;;;;1833.7
1999.0;1906.8;;;;;;;;;;;;;;;;;-9.708701;-31.308174;124.988556;;1833.7
1999.0;1906.8;;;;;;;;;;;;;;0.57887506;-1.1236305;0.074221015;;;;;1833.7
1999.0;1906.8;;;;;;;;;;;;;;;;;-24.643698;-38.42662;124.988556;;1843.3
1999.0;1906.8;;;;;;;;;;;;;;0.63850826;-1.1108127;-0.05365154;;;;;1843.3
1999.0;1906.8;;;;;;;;;;;;;;;;;-28.145695;-45.449688;124.988556;;1843.3
1999.0;1906.8;;;;;;;;;;;;;;0.68855864;-1.1062349;-0.13202307;;;;;1843.3
2002.0;1907.7;;;;-0.73330694;0.77526104;0.5122109;;;;;;;;;;;;;;;
2002.0;1907.7;;;;-0.7236863;0.7667123;0.529728;;;;;;;;;;;;;;;
2002.0;1907.7;;;;-0.7182618;0.7577287;0.54225165;;;;;;;;;;;;;;;
2002.0;1907.7;;;;-0.71197134;0.7489968;0.5488625;;;;;;;;;;;;;;;
2002.0;1907.7;;;;-0.70210654;0.74148184;0.55406576;;;;;;;;;;;;;;;
2002.0;1909.2;;;;;;;;;;19.65392;95.53056;-13.058107;;;;;;;;;
2002.0;1909.2;;;;;;;0.40931424;-1.9383526;0.6621296;;;;;;;;;;;;
2002.0;1909.2;;;;;;;;;;22.041994;100.959045;-9.056368;;;;;;;;;
2002.0;1909.2;;;;;;;0.37830743;-1.9984741;0.68923;;;;;;;;;;;;
2002.0;1917.8;;;;-0.692566;0.7332917;0.55691534;;;;;;;;;;;;;;;
2002.0;1917.8;;;;-0.68279654;0.72118384;0.5574227;;;;;;;;;;;;;;;
2002.0;1917.8;;;;-0.6718331;0.70753866;0.55564505;;;;;;;;;;;;;;;
2002.0;1917.8;;;;-0.6592904;0.6945191;0.55216223;;;;;;;;;;;;;;;
2002.0;1917.8;;;;-0.6461678;0.6809426;0.54715735;;;;;;;;;;;;;;;
2002.0;1918.8;;;;;;;;;;25.79577;100.60808;-4.4328136;;;;;;;;;
2002.0;1918.8;;;;;;;0.3927732;-1.9998169;0.6684774;;;;;;;;;;;;
2002.0;1918.8;;;;;;;;;;27.74514;99.13556;-3.4409618;;;;;;;;;
2002.0;1918.8;;;;;;;0.39826655;-1.9998169;0.6441847;;;;;;;;;;;;
2002.0;1921.0;262143;262143;12458;;;;;;;;;;;;;;;;;;
2002.0;1927.1;;;;;;;;;;;;;-2309;;;;;;;;
2002.0;1927.1;;;;;;;;;;;;;-1957;;;;;;;;
2002.0;1927.1;;;;;;;;;;;;;-1362;;;;;;;;
2002.0;1927.1;;;;;;;;;;;;;-592;;;;;;;;
2002.0;1927.1;;;;;;;;;;;;;-14;;;;;;;;
2165.0;1927.8;;;;-0.6306496;0.6657601;0.53953177;;;;;;;;;;;;;;;
2165.0;1927.8;;;;-0.61285025;0.6496697;0.53094107;;;;;;;;;;;;;;;
2165.0;1927.8;;;;-0.5905953;0.6365624;0.522461;;;;;;;;;;;;;;;
2165.0;1927.8;;;;-0.5706101;0.6265908;0.51512915;;;;;;;;;;;;;;;
2165.0;1927.8;;;;-0.54814917;0.618187;0.5080758;;;;;;;;;;;;;;;
2165.0;1928.3;;;;;;;;;;28.408916;97.121346;-3.8224432;;;;;;;;;
2165.0;1928.3;;;;;;;0.35523546;-1.9998169;0.619953;;;;;;;;;;;;
2165.0;1928.3;;;;;;;;;;30.51088;90.23942;-1.4915922;;;;;;;;;
2165.0;1928.3;;;;;;;0.30085146;-1.9998169;0.5818049;;;;;;;;;;;;
2165.0;1937.3;;;;-0.5242081;0.60874563;0.4971314;;;;;;;;;;;;;;;
2165.0;1937.3;;;;-0.5028687;0.5998154;0.4863816;;;;;;;;;;;;;;;
2165.0;1937.3;;;;-0.48300558;0.5907555;0.47806174;;;;;;;;;;;;;;;
2165.0;1937.3;;;;-0.4648667;0.5822945;0.47025687;;;;;;;;;;;;;;;
2165.0;1937.3;;;;-0.4480706;0.5735703;0.46181113;;;;;;;;;;;;;;;
2165.0;1937.3;;;;;;;;;;34.295174;79.439674;2.0790737;;;;;;;;;
2165.0;1937.3;;;;;;;0.28003785;-1.9998169;0.54646444;;;;;;;;;;;;
2165.0;1937.3;;;;;;;;;;38.666954;66.911835;2.9641104;;;;;;;;;
2165.0;1937.3;;;;;;;0.25995666;-1.9998169;0.51100194;;;;;;;;;;;;
2165.0;1940.6;262143;262143;12463;;;;;;;;;;;;;;;;;;
2165.0;1947.0;;;;;;;;;;42.405468;54.258095;1.8768883;;;;;;;;;
2165.0;1947.0;;;;;;;0.24079104;-1.9998169;0.48908964;;;;;;;;;;;;
2165.0;1947.0;;;;;;;;;;45.457317;41.886654;-1.209296;;;;;;;;;
2165.0;1947.0;;;;;;;0.22681357;-1.9998169;0.4718772;;;;;;;;;;;;
2171.0;1947.4;;;;-0.43569952;0.56470495;0.45228964;;;;;;;;;;;;;;;
2171.0;1947.4;;;;-0.42485434;0.5570794;0.4437676;;;;;;;;;;;;;;;
2171.0;1947.4;;;;-0.4142037;0.5491219;0.43724447;;;;;;;;;;;;;;;
2171.0;1947.4;;;;-0.40499884;0.53945166;0.4316445;;;;;;;;;;;;;;;
2171.0;1947.4;;;;-0.39809424;0.5280152;0.42570883;;;;;;;;;;;;;;;
2171.0;1956.6;;;;;;;;;;47.81106;28.416548;-5.9472947;;;;;;;;;
2171.0;1956.6;;;;;;;0.1788995;-1.9998169;0.4574114;;;;;;;;;;;;
2171.0;1956.6;;;;;;;;;;50.519577;12.9703665;-8.159886;;;;;;;;;
2171.0;1956.6;;;;;;;0.15881832;-1.9998169;0.44709617;;;;;;;;;;;;
2171.0;1957.5;;;;-0.3933106;0.5165978;0.42033774;;;;;;;;;;;;;;;
2171.0;1957.5;;;;-0.39186102;0.5016671;0.41636282;;;;;;;;;;;;;;;
2171.0;1957.5;;;;-0.39101416;0.48670584;0.4130364;;;;;;;;;;;;;;;
2171.0;1957.5;;;;-0.3918305;0.4712258;0.41073996;;;;;;;;;;;;;;;
2171.0;1957.5;;;;-0.39511877;0.455494;0.40899664;;;;;;;;;;;;;;;
2171.0;1960.9;262143;262143;12462;;;;;;;;;;;;;;;;;;
2173.0;1965.5;;;;;;;;;;;;;;;;;-22.137363;-51.11469;124.988556;;1853.0
2173.0;1965.5;;;;;;;;;;;;;;0.70229197;-1.1395612;-0.12103641;;;;;1853.0
2173.0;1965.5;;;;;;;;;;;;;;;;;-14.992217;-56.398205;124.988556;;1853.0
2173.0;1965.5;;;;;;;;;;;;;;0.70278025;-1.1841182;-0.10303049;;;;;1853.0
2173.0;1965.5;;;;;;;;;;;;;;;;;-9.735405;-59.55306;124.988556;;1862.6
2173.0;1965.5;;;;;;;;;;;;;;0.71700186;-1.1329691;-0.119449444;;;;;1862.6
2173.0;1965.5;;;;;;;;;;;;;;;;;-7.229072;-56.79876;124.988556;;1862.6
2173.0;1965.5;;;;;;;;;;;;;;0.7424543;-1.0233467;-0.14197211;;;;;1862.6
2173.0;1965.5;;;;;;;;;;;;;;;;;-10.097812;-46.00284;123.60759;;1872.2
2173.0;1965.5;;;;;;;;;;;;;;0.73464155;-0.8897977;-0.15100558;;;;;1872.2
2173.0;1965.5;;;;;;;;;;;;;;;;;-15.217292;-30.976288;115.14634;;1872.2
2173.0;1965.5;;;;;;;;;;;;;;0.69502854;-0.7655263;-0.10846278;;;;;1872.2
2173.0;1966.3;;;;;;;;;;;;;;;;;-22.1984;-15.758995;104.48775;;1881.8
2173.0;1966.3;;;;;;;;;;;;;;0.6522416;-0.6468703;-0.090029605;;;;;1881.8
2173.0;1966.3;;;;;;;;;;;;;;;;;-24.2584;-1.373333;94.992676;;1881.8
2173.0;1966.3;;;;;;;;;;;;;;0.6015198;-0.5492111;-0.071108125;;;;;1881.8
2173.0;1966.3;;;;;;;;;;;;;;;;;-21.538439;9.82696;86.58102;;1891.5
2173.0;1966.3;;;;;;;;;;;;;;0.54951626;-0.5129551;-0.01800592;;;;;1891.5
2173.0;1966.3;;;;;;;;;;;;;;;;;-17.185736;16.766108;77.730644;;1891.5
2173.0;1966.3;;;;;;;;;;;;;;0.5024567;-0.47999513;4.8829615E-4;;;;;1891.5
2173.0;1966.3;;;;;;;;;;;;;;;;;-10.631886;21.30192;69.10535;;1901.2
2173.0;1966.3;;;;;;;;;;;;;;0.46192816;-0.45069736;0.013428144;;;;;1901.2
2173.0;1966.3;;;;;;;;;;;;;;;;;-4.5510726;23.983734;61.773277;;1901.2
2173.0;1966.3;;;;;;;;;;;;;;0.427076;-0.41261026;9.155553E-4;;;;;1901.2
2176.0;1966.1;;;;;;;;;;54.20469;-4.543443;-11.375774;;;;;;;;;
2176.0;1966.1;;;;;;;0.12390515;-1.994995;0.43830684;;;;;;;;;;;;
2176.0;1966.1;;;;;;;;;;58.0958;-23.247475;-16.159552;;;;;;;;;
2176.0;1966.1;;;;;;;0.09039582;-1.9214454;0.4337901;;;;;;;;;;;;
2176.0;1966.8;;;;;;;;;;;;;334;;;;;;;;
2176.0;1966.8;;;;;;;;;;;;;791;;;;;;;;
2176.0;1966.8;;;;;;;;;;;;;1239;;;;;;;;
2176.0;1966.8;;;;;;;;;;;;;1387;;;;;;;;
2176.0;1966.8;;;;;;;;;;;;;1549;;;;;;;;
2176.0;1967.5;;;;-0.39908987;0.4383393;0.40744406;;;;;;;;;;;;;;;
2176.0;1967.5;;;;-0.4035378;0.42053992;0.40578848;;;;;;;;;;;;;;;
2176.0;1967.5;;;;-0.41138083;0.40234;0.4044953;;;;;;;;;;;;;;;
2176.0;1967.5;;;;-0.41561896;0.38493353;0.4017411;;;;;;;;;;;;;;;
2176.0;1967.5;;;;-0.41619116;0.36918262;0.39853674;;;;;;;;;;;;;;;
2176.0;1975.7;;;;;;;;;;62.0632;-42.916656;-22.267067;;;;;;;;;
2176.0;1975.7;;;;;;;0.052308727;-1.8077334;0.42915127;;;;;;;;;;;;
2176.0;1975.7;;;;;;;;;;65.99628;-61.826683;-28.630177;;;;;;;;;
2176.0;1975.7;;;;;;;0.015625477;-1.6956084;0.42316964;;;;;;;;;;;;
2176.0;1977.6;;;;-0.42010504;0.35512546;0.39425284;;;;;;;;;;;;;;;
2176.0;1977.6;;;;-0.42290503;0.342701;0.3919068;;;;;;;;;;;;;;;
2176.0;1977.6;;;;-0.42333227;0.33360294;0.3891526;;;;;;;;;;;;;;;
2176.0;1977.6;;;;-0.42095572;0.32830432;0.38698965;;;;;;;;;;;;;;;
2176.0;1977.6;;;;-0.41706473;0.32475284;0.38505942;;;;;;;;;;;;;;;
2176.0;1980.9;262143;262143;12469;;;;;;;;;;;;;;;;;;
2226.0;1985.2;;;;;;;;;;69.66994;-79.210785;-34.26847;;;;;;;;;
2226.0;1985.2;;;;;;;7.9348125E-4;-1.5898312;0.40778834;;;;;;;;;;;;
2226.0;1985.2;;;;;;;;;;73.01553;-95.27497;-40.128025;;;;;;;;;
2226.0;1985.2;;;;;;;-0.0020752586;-1.4909513;0.38911098;;;;;;;;;;;;
2226.0;1987.6;;;;-0.4137612;0.3220177;0.3830796;;;;;;;;;;;;;;;
2226.0;1987.6;;;;-0.41099554;0.32003787;0.38140875;;;;;;;;;;;;;;;
2226.0;1987.6;;;;-0.40829092;0.3182831;0.38074118;;;;;;;;;;;;;;;
2226.0;1987.6;;;;-0.40663916;0.31801608;0.37896734;;;;;;;;;;;;;;;
2226.0;1987.6;;;;-0.40549856;0.31987765;0.37776953;;;;;;;;;;;;;;;
2226.0;1994.6;;;;;;;;;;76.250496;-109.60341;-47.62032;;;;;;;;;
2226.0;1994.6;;;;;;;-0.016052736;-1.4138615;0.37440106;;;;;;;;;;;;
2226.0;1994.6;;;;;;;;;;79.63423;-120.38026;-54.74639;;;;;;;;;
2226.0;1994.6;;;;;;;-0.017090365;-1.3517258;0.35029146;;;;;;;;;;;;
2226.0;1997.5;;;;-0.40336996;0.32314304;0.37657553;;;;;;;;;;;;;;;
2226.0;1997.5;;;;-0.39923865;0.32493594;0.3739014;;;;;;;;;;;;;;;
2226.0;1997.5;;;;-0.3934403;0.32615283;0.3700066;;;;;;;;;;;;;;;
2226.0;1997.5;;;;-0.3887444;0.32826236;0.36459735;;;;;;;;;;;;;;;
2226.0;1997.5;;;;-0.38443;0.33256915;0.35720447;;;;;;;;;;;;;;;
2226.0;2001.0;262143;262143;12475;;;;;;;;;;;;;;;;;;
2226.0;2004.2;;;;;;;;;;81.49968;-124.60707;-61.658833;;;;;;;;;
2226.0;2004.2;;;;;;;-0.030335398;-1.2914823;0.33509323;;;;;;;;;;;;
2226.0;2004.2;;;;;;;;;;82.224495;-124.881744;-68.36146;;;;;;;;;
2226.0;2004.2;;;;;;;-0.023377178;-1.2495499;0.31330302;;;;;;;;;;;;
2228.0;2007.0;;;;;;;;;;;;;2139;;;;;;;;
2228.0;2007.0;;;;;;;;;;;;;2671;;;;;;;;
2228.0;2007.0;;;;;;;;;;;;;2195;;;;;;;;
2228.0;2007.0;;;;;;;;;;;;;1062;;;;;;;;
2228.0;2007.0;;;;;;;;;;;;;498;;;;;;;;
2228.0;2007.6;;;;-0.37653738;0.33863834;0.3505173;;;;;;;;;;;;;;;
2228.0;2007.6;;;;-0.36697772;0.3455887;0.34408572;;;;;;;;;;;;;;;
2228.0;2007.6;;;;-0.35790256;0.35236743;0.33609775;;;;;;;;;;;;;;;
2228.0;2007.6;;;;-0.34962848;0.35974887;0.32766727;;;;;;;;;;;;;;;
2228.0;2007.6;;;;-0.3426552;0.3678017;0.31808093;;;;;;;;;;;;;;;
2228.0;2013.9;;;;;;;;;;81.97272;-124.881744;-75.69735;;;;;;;;;
2228.0;2013.9;;;;;;;-0.029053621;-1.2091434;0.3058565;;;;;;;;;;;;
2228.0;2013.9;;;;;;;;;;82.281715;-124.881744;-83.15531;;;;;;;;;
2228.0;2013.9;;;;;;;-0.043702506;-1.1645863;0.30341503;;;;;;;;;;;;
2228.0;2017.7;;;;-0.33762363;0.37585074;0.30933765;;;;;;;;;;;;;;;
2228.0;2017.7;;;;-0.32925037;0.38394552;0.30076602;;;;;;;;;;;;;;;
2228.0;2017.7;;;;-0.32116702;0.3911019;0.29373172;;;;;;;;;;;;;;;
2228.0;2017.7;;;;-0.31711963;0.3996659;0.28662112;;;;;;;;;;;;;;;
2228.0;2017.7;;;;-0.3142281;0.4080773;0.2793961;;;;;;;;;;;;;;;
2228.0;2021.3;262143;262143;12479;;;;;;;;;;;;;;;;;;
2228.0;2023.5;;;;;;;;;;82.72805;-124.881744;-89.42686;;;;;;;;;
2228.0;2023.5;;;;;;;-0.04931791;-1.124546;0.3071383;;;;;;;;;;;;
2228.0;2023.5;;;;;;;;;;83.44524;-124.881744;-94.68368;;;;;;;;;
2228.0;2023.5;;;;;;;-0.04565569;-1.0929289;0.31690422;;;;;;;;;;;;
2229.0;2026.1;;;;;;;;;;;;;;;;;1.392407;26.696066;54.898983;;1910.9
2229.0;2026.1;;;;;;;;;;;;;;0.39930418;-0.37055573;-0.0253914;;;;;1910.9
2229.0;2026.1;;;;;;;;;;;;;;;;;5.500962;28.97351;48.31843;;1910.9
2229.0;2026.1;;;;;;;;;;;;;;0.38605914;-0.33942688;-0.050355542;;;;;1910.9
2229.0;2026.1;;;;;;;;;;;;;;;;;8.754997;31.01062;41.87521;;1920.5
2229.0;2026.1;;;;;;;;;;;;;;0.34797204;-0.3274636;-0.012573626;;;;;1920.5
2229.0;2026.1;;;;;;;;;;;;;;;;;10.66622;32.773064;35.08484;;1920.5
2229.0;2026.1;;;;;;;;;;;;;;0.329722;-0.31159398;0.042786952;;;;;1920.5
2229.0;2026.1;;;;;;;;;;;;;;;;;9.884182;35.447247;28.622547;;1930.0
2229.0;2026.1;;;;;;;;;;;;;;0.3126316;-0.29987487;0.05841243;;;;;1930.0
2229.0;2026.1;;;;;;;;;;;;;;;;;4.8486285;36.81677;22.827845;;1930.0
2229.0;2026.1;;;;;;;;;;;;;;0.27845088;-0.29737237;0.0040894803;;;;;1930.0
2229.0;2027.0;;;;;;;;;;;;;;;;;2.0332959;34.810173;16.8157;;1939.7
2229.0;2027.0;;;;;;;;;;;;;;0.25995666;-0.3027436;-0.041016877;;;;;1939.7
2229.0;2027.0;;;;;;;;;;;;;;;;;8.81222;28.427992;9.693442;;1939.7
2229.0;2027.0;;;;;;;;;;;;;;0.24762718;-0.26410717;0.06964324;;;;;1939.7
2229.0;2027.0;;;;;;;;;;;;;;;;;joulu.27;16.98355;1.659444;;1949.3
2229.0;2027.0;;;;;;;;;;;;;;0.22809534;-0.17078158;0.14404736;;;;;1949.3
2229.0;2027.0;;;;;;;;;;;;;;;;;6.4584794;5.165258;-5.3178506;;1949.3
2229.0;2027.0;;;;;;;;;;;;;;0.19501327;-0.12707907;0.026551103;;;;;1949.3
2229.0;2027.0;;;;;;;;;;;;;;;;;1.2016664;0.8659627;-11.894589;;1958.8
2229.0;2027.0;;;;;;;;;;;;;;0.1507004;-0.080446795;-0.08966338;;;;;1958.8
2229.0;2027.0;;;;;;;;;;;;;;;;;-0.40055543;4.482406;-18.406477;;1958.8
2229.0;2027.0;;;;;;;;;;;;;;0.12543108;-0.021179846;-0.06640828;;;;;1958.8
2282.0;2027.7;;;;-0.30747607;0.41727072;0.27135852;;;;;;;;;;;;;;;
2282.0;2027.7;;;;-0.2993088;0.42807776;0.26350024;;;;;;;;;;;;;;;
2282.0;2027.7;;;;-0.2917786;0.441742;0.25755695;;;;;;;;;;;;;;;
2282.0;2027.7;;;;-0.28663257;0.4566422;0.25217822;;;;;;;;;;;;;;;
2282.0;2027.7;;;;-0.28036502;0.47452933;0.24730685;;;;;;;;;;;;;;;
2282.0;2032.9;;;;;;;;;;84.60876;-124.881744;-98.89523;;;;;;;;;
2282.0;2032.9;;;;;;;-0.0336314;-1.0613728;0.321543;;;;;;;;;;;;
2282.0;2032.9;;;;;;;;;;85.40224;-124.881744;-101.809746;;;;;;;;;
2282.0;2032.9;;;;;;;-0.003906369;-1.030549;0.3221534;;;;;;;;;;;;
2282.0;2037.8;;;;-0.27330402;0.49646765;0.24372867;;;;;;;;;;;;;;;
2282.0;2037.8;;;;-0.2676659;0.5221749;0.24149325;;;;;;;;;;;;;;;
2282.0;2037.8;;;;-0.26373294;0.5502587;0.24126056;;;;;;;;;;;;;;;
2282.0;2037.8;;;;-0.2625275;0.58248144;0.24355319;;;;;;;;;;;;;;;
2282.0;2037.8;;;;-0.26264957;0.6199761;0.24823764;;;;;;;;;;;;;;;
2282.0;2041.3;262143;262143;12475;;;;;;;;;;;;;;;;;;
2282.0;2042.5;;;;;;;;;;85.93631;-124.881744;-105.5063;;;;;;;;;
2282.0;2042.5;;;;;;;0.031922363;-1.000885;0.31452376;;;;;;;;;;;;
2282.0;2042.5;;;;;;;;;;86.439865;-124.881744;-110.042114;;;;;;;;;
2282.0;2042.5;;;;;;;0.07214576;-0.97238076;0.31141087;;;;;;;;;;;;
2282.0;2047.2;;;;;;;;;;;;;531;;;;;;;;
2282.0;2047.2;;;;;;;;;;;;;260;;;;;;;;
2282.0;2047.2;;;;;;;;;;;;;-283;;;;;;;;
2282.0;2047.2;;;;;;;;;;;;;-251;;;;;;;;
2282.0;2047.2;;;;;;;;;;;;;171;;;;;;;;
2284.0;2047.7;;;;-0.26578143;0.66265494;0.25499347;;;;;;;;;;;;;;;
2284.0;2047.7;;;;-0.26959994;0.70929724;0.26376346;;;;;;;;;;;;;;;
2284.0;2047.7;;;;-0.27439502;0.7589685;0.27385715;;;;;;;;;;;;;;;
2284.0;2047.7;;;;-0.28226474;0.81235516;0.28672412;;;;;;;;;;;;;;;
2284.0;2047.7;;;;-0.29166034;0.8701478;0.30216601;;;;;;;;;;;;;;;
2284.0;2051.9;;;;;;;;;;87.15324;-124.881744;-114.822075;;;;;;;;;
2284.0;2051.9;;;;;;;0.11120945;-0.9437544;0.30408642;;;;;;;;;;;;
2284.0;2051.9;;;;;;;;;;88.19468;-124.881744;-119.53719;;;;;;;;;
2284.0;2051.9;;;;;;;0.14984588;-0.9182409;0.30842006;;;;;;;;;;;;
2284.0;2057.7;;;;-0.30149463;0.93053067;0.3194504;;;;;;;;;;;;;;;
2284.0;2057.7;;;;-0.3105202;0.9947969;0.337513;;;;;;;;;;;;;;;
2284.0;2057.7;;;;-0.31976703;1.0608064;0.35681918;;;;;;;;;;;;;;;
2284.0;2057.7;;;;-0.32953647;1.1286508;0.3753701;;;;;;;;;;;;;;;
2284.0;2057.7;;;;-0.3396187;1.1971399;0.39313513;;;;;;;;;;;;;;;
2284.0;2061.6;;;;;;;;;;89.78545;-124.881744;-123.61522;;;;;;;;;
2284.0;2061.6;;;;;;;0.18897061;-0.89797664;0.31275368;;;;;;;;;;;;
2284.0;2061.6;;;;;;;;;;91.61656;-124.881744;-124.87029;;;;;;;;;
2284.0;2061.6;;;;;;;0.2224189;-0.88375497;0.31550035;;;;;;;;;;;;
2284.0;2061.4;262143;262143;12492;;;;;;;;;;;;;;;;;;
2285.0;2067.8;;;;-0.35142902;1.26392;0.41058356;;;;;;;;;;;;;;;
2285.0;2067.8;;;;-0.36324313;1.3312036;0.42665106;;;;;;;;;;;;;;;
2285.0;2067.8;;;;-0.37446216;1.4013139;0.44133002;;;;;;;;;;;;;;;
2285.0;2067.8;;;;-0.38597876;1.4736673;0.4562493;;;;;;;;;;;;;;;
2285.0;2067.8;;;;-0.39830786;1.545624;0.4691506;;;;;;;;;;;;;;;
2285.0;2071.2;;;;;;;;;;92.86019;-124.881744;-124.881744;;;;;;;;;
2285.0;2071.2;;;;;;;0.24835964;-0.8646504;0.3106174;;;;;;;;;;;;
2285.0;2071.2;;;;;;;;;;93.264565;-124.881744;-124.881744;;;;;;;;;
2285.0;2071.2;;;;;;;0.26593828;-0.8464003;0.30164495;;;;;;;;;;;;
2285.0;2078.0;;;;-0.4062882;1.6152804;0.479168;;;;;;;;;;;;;;;
2285.0;2078.0;;;;-0.4008904;1.6818316;0.49018866;;;;;;;;;;;;;;;
2285.0;2078.0;;;;-0.451603;1.7532961;0.5000382;;;;;;;;;;;;;;;
2285.0;2078.0;;;;-0.4617539;1.8033412;0.506218;;;;;;;;;;;;;;;
2285.0;2078.0;;;;-0.4744721;1.8508341;0.5165749;;;;;;;;;;;;;;;
2285.0;2080.8;;;;;;;;;;93.39427;-124.881744;-124.881744;;;;;;;;;
2285.0;2080.8;;;;;;;0.26929533;-0.8289437;0.2910245;;;;;;;;;;;;
2285.0;2080.8;;;;;;;;;;93.314156;-124.77874;-124.881744;;;;;;;;;
2285.0;2080.8;;;;;;;0.2593463;-0.81478316;0.28101444;;;;;;;;;;;;
2285.0;2081.7;262143;262143;12500;;;;;;;;;;;;;;;;;;
2289.0;2086.2;;;;;;;;;;;;;;;;;-5.1499987;11.246071;-23.216955;;1968.4
2289.0;2086.2;;;;;;;;;;;;;;0.06762902;-0.024842067;0.09344768;;;;;1968.4
2289.0;2086.2;;;;;;;;;;;;;;;;;-19.737844;9.82696;-23.930326;;1968.4
2289.0;2086.2;;;;;;;;;;;;;;-0.009460738;-0.15723136;0.15704826;;;;;1968.4
2289.0;2086.2;;;;;;;;;;;;;;;;;-45.285652;3.2082584;-21.992401;;1978.1
2289.0;2086.2;;;;;;;;;;;;;;-0.06451613;-0.36664936;0.025635548;;;;;1978.1
2289.0;2086.2;;;;;;;;;;;;;;;;;-67.48024;2.1401105;-19.15418;;1978.1
2289.0;2086.2;;;;;;;;;;;;;;-0.15466781;-0.68330944;0.025330363;;;;;1978.1
2289.0;2086.2;;;;;;;;;;;;;;;;;-86.832794;-2.1477401;-12.749107;;1987.7
2289.0;2086.2;;;;;;;;;;;;;;-0.2730186;-0.97140414;0.09454634;;;;;1987.7
2289.0;2086.2;;;;;;;;;;;;;;;;;-119.888145;-19.684439;0.7248146;;1987.7
2289.0;2086.2;;;;;;;;;;;;;;-0.23810542;-1.4292428;-0.49079868;;;;;1987.7
2289.0;2087.0;;;;;;;;;;;;;;;;;-124.988556;-56.134983;30.358286;;1997.4
2289.0;2087.0;;;;;;;;;;;;;;-0.22223578;-1.9980468;-1.5046235;;;;;1997.4
2289.0;2087.0;;;;;;;;;;;;;;;;;-88.17179;-78.70723;59.86587;;1997.4
2289.0;2087.0;;;;;;;;;;;;;;-0.043458357;-1.9998169;-1.9979857;;;;;1997.4
2289.0;2087.0;;;;;;;;;;;;;;;;;71.89779;4.0055547;87.06168;;2007.0
2289.0;2087.0;;;;;;;;;;;;;;-0.41358685;-1.9998169;-1.3498948;;;;;2007.0
2289.0;2087.0;;;;;;;;;;;;;;;;;123.80978;76.76168;57.355724;;2007.0
2289.0;2087.0;;;;;;;;;;;;;;-0.59938353;-1.9487289;0.38282418;;;;;2007.0
2289.0;2087.0;;;;;;;;;;;;;;;;;53.23954;60.117645;-50.729393;;2016.7
2289.0;2087.0;;;;;;;;;;;;;;0.34614092;-1.1877193;0.4104129;;;;;2016.7
2289.0;2087.0;;;;;;;;;;;;;;;;;-94.31364;88.40831;-103.45012;;2016.7
2289.0;2087.0;;;;;;;;;;;;;;0.7919553;-0.93234044;-0.14484085;;;;;2016.7
2344.0;2087.5;;;;;;;;;;;;;-74;;;;;;;;
2344.0;2087.5;;;;;;;;;;;;;-1039;;;;;;;;
2344.0;2087.5;;;;;;;;;;;;;-1663;;;;;;;;
2344.0;2087.5;;;;;;;;;;;;;-1232;;;;;;;;
2344.0;2087.5;;;;;;;;;;;;;-267;;;;;;;;
2344.0;2087.9;;;;-0.4757195;1.8886378;0.52812964;;;;;;;;;;;;;;;
2344.0;2087.9;;;;-0.48972708;1.918484;0.5399323;;;;;;;;;;;;;;;
2344.0;2087.9;;;;-0.50046164;1.9393275;0.5487328;;;;;;;;;;;;;;;
2344.0;2087.9;;;;-0.50622183;1.9567301;0.55562216;;;;;;;;;;;;;;;
2344.0;2087.9;;;;-0.50519186;1.9659617;0.5598412;;;;;;;;;;;;;;;
2344.0;2090.3;;;;;;;;;;93.50108;-122.04733;-124.881744;;;;;;;;;
2344.0;2090.3;;;;;;;0.24408704;-0.80184335;0.2713706;;;;;;;;;;;;
2344.0;2090.3;;;;;;;;;;94.279305;-113.61278;-124.881744;;;;;;;;;
2344.0;2090.3;;;;;;;0.22540972;-0.78719443;0.26575518;;;;;;;;;;;;
2344.0;2098.0;;;;-0.5094071;1.9688609;0.5604058;;;;;;;;;;;;;;;
2344.0;2098.0;;;;-0.5231095;1.9670947;0.55673605;;;;;;;;;;;;;;;
2344.0;2098.0;;;;-0.53765875;1.9600604;0.54622656;;;;;;;;;;;;;;;
2344.0;2098.0;;;;-0.54681784;1.9495738;0.5340958;;;;;;;;;;;;;;;
2344.0;2098.0;;;;-0.56071097;1.9389689;0.5253907;;;;;;;;;;;;;;;
2344.0;2099.9;;;;;;;;;;95.221565;-103.267006;-124.881744;;;;;;;;;
2344.0;2099.9;;;;;;;0.20422986;-0.76180303;0.25543994;;;;;;;;;;;;
2344.0;2099.9;;;;;;;;;;95.3093;-92.95175;-124.881744;;;;;;;;;
2344.0;2099.9;;;;;;;0.17920469;-0.7361675;0.24329355;;;;;;;;;;;;
2344.0;2101.7;262143;262143;12519;;;;;;;;;;;;;;;;;;
2351.0;2108.0;;;;-0.57804495;1.9282229;0.5129433;;;;;;;;;;;;;;;
2351.0;2108.0;;;;-0.59740835;1.9193995;0.5006371;;;;;;;;;;;;;;;
2351.0;2108.0;;;;-0.6152497;1.912617;0.4873467;;;;;;;;;;;;;;;
2351.0;2108.0;;;;-0.63223654;1.9082911;0.47568518;;;;;;;;;;;;;;;
2351.0;2108.0;;;;-0.64672095;1.9083445;0.46659857;;;;;;;;;;;;;;;
2351.0;2109.4;;;;;;;;;;95.33219;-82.73568;-124.881744;;;;;;;;;
2351.0;2109.4;;;;;;;0.14679404;-0.71352273;0.229194;;;;;;;;;;;;
2351.0;2109.4;;;;;;;;;;95.458084;-72.49672;-124.881744;;;;;;;;;
2351.0;2109.4;;;;;;;0.11816767;-0.6964324;0.2197943;;;;;;;;;;;;
2351.0;2117.6;;;;-0.63418967;1.9115374;0.45525748;;;;;;;;;;;;;;;
2351.0;2117.6;;;;-0.6575356;1.9034197;0.45974356;;;;;;;;;;;;;;;
2351.0;2117.6;;;;-0.69469076;1.9067004;0.44686896;;;;;;;;;;;;;;;
2351.0;2117.6;;;;-0.71186453;1.9099276;0.4387818;;;;;;;;;;;;;;;
2351.0;2117.6;;;;-0.6989785;1.923588;0.44040686;;;;;;;;;;;;;;;
2351.0;2118.6;;;;;;;;;;95.55345;-62.391277;-124.881744;;;;;;;;;
2351.0;2118.6;;;;;;;0.09112827;-0.67940307;0.21082187;;;;;;;;;;;;
2351.0;2118.6;;;;;;;;;;95.62212;-52.72454;-124.881744;;;;;;;;;
2351.0;2118.6;;;;;;;0.058290355;-0.6707968;0.20496231;;;;;;;;;;;;
2351.0;2121.4;262143;262143;12503;;;;;;;;;;;;;;;;;;
2351.0;2127.4;;;;;;;;;;;;;407;;;;;;;;
2351.0;2127.4;;;;;;;;;;;;;785;;;;;;;;
2351.0;2127.4;;;;;;;;;;;;;1096;;;;;;;;
2351.0;2127.4;;;;;;;;;;;;;1108;;;;;;;;
2351.0;2127.4;;;;;;;;;;;;;978;;;;;;;;
2353.0;2127.7;;;;-0.6761704;tammi.08;0.4479943;;;;;;;;;;;;;;;
2353.0;2127.7;;;;-0.66667944;1.9584963;0.45686346;;;;;;;;;;;;;;;
2353.0;2127.7;;;;-0.65717703;1.9737704;0.4623261;;;;;;;;;;;;;;;
2353.0;2127.7;;;;-0.63789755;1.9861338;0.47110373;;;;;;;;;;;;;;;
2353.0;2127.7;;;;-0.6122971;1.9953654;0.48252875;;;;;;;;;;;;;;;
2353.0;2128.2;;;;;;;;;;95.8472;-44.209877;-124.881744;;;;;;;;;
2353.0;2128.2;;;;;;;0.027771844;-0.65974915;0.1981872;;;;;;;;;;;;
2353.0;2128.2;;;;;;;;;;96.37746;-36.935028;-124.881744;;;;;;;;;
2353.0;2128.2;;;;;;;0.0045777764;-0.64607686;0.19031343;;;;;;;;;;;;
2353.0;2137.8;;;;;;;;;;97.178566;-30.78173;-124.73296;;;;;;;;;
2353.0;2137.8;;;;;;;-0.016907254;-0.6300852;0.18390454;;;;;;;;;;;;
2353.0;2137.8;;;;;;;;;;98.12464;-26.0094;-122.85226;;;;;;;;;
2353.0;2137.8;;;;;;;-0.026978362;-0.6138493;0.17896055;;;;;;;;;;;;
2353.0;2137.8;;;;-0.58499914;1.9971087;0.4915009;;;;;;;;;;;;;;;
2353.0;2137.8;;;;-0.5638314;1.9917147;0.49977118;;;;;;;;;;;;;;;
2353.0;2137.8;;;;-0.54146963;1.9806788;0.5053559;;;;;;;;;;;;;;;
2353.0;2137.8;;;;-0.5084267;1.9665873;0.5125962;;;;;;;;;;;;;;;
2353.0;2137.8;;;;-0.46823508;1.9497263;0.5228234;;;;;;;;;;;;;;;
2353.0;2141.7;262143;262143;12504;;;;;;;;;;;;;;;;;;
2354.0;2146.2;;;;;;;;;;;;;;;;;-118.70556;83.76949;-113.65475;;2026.4
2354.0;2146.2;;;;;;;;;;;;;;1.2146977;-0.51661736;-0.81136507;;;;;2026.4
2354.0;2146.2;;;;;;;;;;;;;;;;;-73.213905;68.384346;-60.1062;;2026.4
2354.0;2146.2;;;;;;;;;;;;;;1.159154;-0.2362743;-0.88485366;;;;;2026.4
2354.0;2146.2;;;;;;;;;;;;;;;;;-32.12073;46.849728;-13.42433;;2036.0
2354.0;2146.2;;;;;;;;;;;;;;0.49140903;-0.9500412;-0.60823387;;;;;2036.0
2354.0;2146.2;;;;;;;;;;;;;;;;;-33.82214;42.413097;-17.769402;;2036.0
2354.0;2146.2;;;;;;;;;;;;;;0.2247383;-1.3467208;-0.49916074;;;;;2036.0
2354.0;2146.2;;;;;;;;;;;;;;;;;-0.44251838;31.63625;-19.894253;;2045.7
2354.0;2146.2;;;;;;;;;;;;;;0.06360058;-1.3478194;-0.2743614;;;;;2045.7
2354.0;2146.2;;;;;;;;;;;;;;;;;22.373882;23.499252;-18.620106;;2045.7
2354.0;2146.2;;;;;;;;;;;;;;-0.048646506;-1.2803736;0.058473464;;;;;2045.7
2354.0;2147.4;;;;;;;;;;;;;;;;;12.215034;12.882626;-14.5039215;;2055.3
2354.0;2147.4;;;;;;;;;;;;;;-0.059450056;-1.3270059;0.08795434;;;;;2055.3
2354.0;2147.4;;;;;;;;;;;;;;;;;-15.915403;6.6263313;-6.1342206;;2055.3
2354.0;2147.4;;;;;;;;;;;;;;-0.035828732;-1.4990082;-0.19385357;;;;;2055.3
2354.0;2147.4;;;;;;;;;;;;;;;;;-41.737877;5.592517;6.5805535;;2064.8
2354.0;2147.4;;;;;;;;;;;;;;-0.042725913;-1.7745903;-0.50489825;;;;;2064.8
2354.0;2147.4;;;;;;;;;;;;;;;;;-44.217506;5.5200357;15.270699;;2064.8
2354.0;2147.4;;;;;;;;;;;;;;-0.02642903;-1.9906003;-0.71810055;;;;;2064.8
2354.0;2147.4;;;;;;;;;;;;;;;;;-18.09366;13.576922;15.835291;;2074.5
2354.0;2147.4;;;;;;;;;;;;;;-0.03521836;-1.99823;-0.65596485;;;;;2074.5
2354.0;2147.4;;;;;;;;;;;;;;;;;-1.1978515;30.31251;5.306406;;2074.5
2354.0;2147.4;;;;;;;;;;;;;;0.08087405;-1.7067171;-0.45362714;;;;;2074.5
2355.0;2147.3;;;;;;;;;;98.67397;-23.121586;-119.30449;;;;;;;;;
2355.0;2147.3;;;;;;;-0.03357036;-0.59566027;0.16937773;;;;;;;;;;;;
2355.0;2147.3;;;;;;;;;;99.02112;-21.923735;-115.34852;;;;;;;;;
2355.0;2147.3;;;;;;;-0.045228433;-0.5814997;0.15979491;;;;;;;;;;;;
2355.0;2147.8;;;;-0.42449194;1.9280016;0.53169256;;;;;;;;;;;;;;;
2355.0;2147.8;;;;-0.3818665;1.9018939;0.54051214;;;;;;;;;;;;;;;
2355.0;2147.8;;;;-0.3413506;1.8728259;0.5510331;;;;;;;;;;;;;;;
2355.0;2147.8;;;;-0.30146793;1.8391268;0.5558701;;;;;;;;;;;;;;;
2355.0;2147.8;;;;-0.26356128;1.8033373;0.5584908;;;;;;;;;;;;;;;
2355.0;2156.9;;;;;;;;;;99.5323;-21.614735;-111.11789;;;;;;;;;
2355.0;2156.9;;;;;;;-0.05200354;-0.567217;0.1521653;;;;;;;;;;;;
2355.0;2156.9;;;;;;;;;;100.00534;-22.778252;-107.57012;;;;;;;;;
2355.0;2156.9;;;;;;;-0.057863094;-0.55098116;0.14429152;;;;;;;;;;;;
2355.0;2157.9;;;;-0.23194888;1.7687762;0.55907446;;;;;;;;;;;;;;;
2355.0;2157.9;;;;-0.20434573;1.7360728;0.55831915;;;;;;;;;;;;;;;
2355.0;2157.9;;;;-0.17843248;1.704838;0.55541235;;;;;;;;;;;;;;;
2355.0;2157.9;;;;-0.15562822;1.6744807;0.55128866;;;;;;;;;;;;;;;
2355.0;2157.9;;;;-0.13752367;1.6452754;0.5461007;;;;;;;;;;;;;;;
2355.0;2161.7;262143;262143;12501;;;;;;;;;;;;;;;;;;
2355.0;2166.4;;;;;;;;;;100.58519;-24.716179;-104.15205;;;;;;;;;
2355.0;2166.4;;;;;;;-0.06488235;-0.53639334;0.13806574;;;;;;;;;;;;
2355.0;2166.4;;;;;;;;;;101.10019;-26.72277;-100.27619;;;;;;;;;
2355.0;2166.4;;;;;;;-0.07214576;-0.5215003;0.1307413;;;;;;;;;;;;
2356.0;2167.6;;;;;;;;;;;;;1116;;;;;;;;
2356.0;2167.6;;;;;;;;;;;;;1156;;;;;;;;
2356.0;2167.6;;;;;;;;;;;;;1103;;;;;;;;
2356.0;2167.6;;;;;;;;;;;;;850;;;;;;;;
2356.0;2167.6;;;;;;;;;;;;;-1003;;;;;;;;
2356.0;2167.9;;;;-0.11547853;1.6198161;0.5404015;;;;;;;;;;;;;;;
2356.0;2167.9;;;;-0.09807207;1.5959971;0.5365601;;;;;;;;;;;;;;;
2356.0;2167.9;;;;-0.08006287;1.5723765;0.5294495;;;;;;;;;;;;;;;
2356.0;2167.9;;;;-0.06632615;1.549412;0.522728;;;;;;;;;;;;;;;
2356.0;2167.9;;;;-0.06236268;1.5270541;0.515503;;;;;;;;;;;;;;;
2356.0;2175.6;;;;;;;;;;101.5656;-29.4084;-96.392715;;;;;;;;;
2356.0;2175.6;;;;;;;-0.08508561;-0.511063;0.12372204;;;;;;;;;;;;
2356.0;2175.6;;;;;;;;;;101.86697;-34.28373;-92.66183;;;;;;;;;
2356.0;2175.6;;;;;;;-0.10144353;-0.48933378;0.11468856;;;;;;;;;;;;
2356.0;2177.6;;;;-0.061660774;1.5060542;0.51012427;;;;;;;;;;;;;;;
2356.0;2177.6;;;;-0.060035713;1.4846383;0.5040322;;;;;;;;;;;;;;;
2356.0;2177.6;;;;-0.05511094;1.4647866;0.49559408;;;;;;;;;;;;;;;
2356.0;2177.6;;;;-0.053646095;1.4474298;0.48878485;;;;;;;;;;;;;;;
2356.0;2177.6;;;;-0.05225373;1.4304086;0.48253638;;;;;;;;;;;;;;;
2356.0;2181.6;262143;262143;12478;;;;;;;;;;;;;;;;;;
2356.0;2185.3;;;;;;;;;;102.35526;-40.52095;-90.407265;;;;;;;;;
2356.0;2185.3;;;;;;;-0.1142613;-0.4618061;0.11035493;;;;;;;;;;;;
2356.0;2185.3;;;;;;;;;;102.74438;-47.26554;-88.950005;;;;;;;;;
2356.0;2185.3;;;;;;;-0.11835078;-0.43055514;0.1076693;;;;;;;;;;;;
2357.0;2187.7;;;;-0.045673374;1.4149286;0.4774552;;;;;;;;;;;;;;;
2357.0;2187.7;;;;-0.039077763;1.4011842;0.47142416;;;;;;;;;;;;;;;
2357.0;2187.7;;;;-0.038097385;1.390812;0.46822363;;;;;;;;;;;;;;;
2357.0;2187.7;;;;-0.038745884;1.3815118;0.46292502;;;;;;;;;;;;;;;
2357.0;2187.7;;;;-0.039325718;1.3727876;0.4568215;;;;;;;;;;;;;;;
2357.0;2194.9;;;;;;;;;;103.045746;-53.80032;-87.17231;;;;;;;;;
2357.0;2194.9;;;;;;;-0.095706046;-0.40223396;0.10309152;;;;;;;;;;;;
2357.0;2194.9;;;;;;;;;;102.96945;-59.976498;-85.97064;;;;;;;;;
2357.0;2194.9;;;;;;;-0.08563494;-0.3745842;0.099490345;;;;;;;;;;;;
2357.0;2197.8;;;;-0.041412357;1.3644181;0.45031744;;;;;;;;;;;;;;;
2357.0;2197.8;;;;-0.047252662;1.3549043;0.44310385;;;;;;;;;;;;;;;
2357.0;2197.8;;;;-0.05597306;1.3441621;0.43777853;;;;;;;;;;;;;;;
2357.0;2197.8;;;;-0.0664177;1.3341371;0.43394476;;;;;;;;;;;;;;;
2357.0;2197.8;;;;-0.07682038;1.3248941;0.4309426;;;;;;;;;;;;;;;
2357.0;2201.9;262143;262143;12487;;;;;;;;;;;;;;;;;;
2357.0;2204.5;;;;;;;;;;102.79778;-66.06495;-85.02457;;;;;;;;;
2357.0;2204.5;;;;;;;-0.067751095;-0.35419783;0.09814753;;;;;;;;;;;;
2357.0;2204.5;;;;;;;;;;102.73293;-71.50105;-84.70794;;;;;;;;;
2357.0;2204.5;;;;;;;-0.07043672;-0.34321114;0.09796441;;;;;;;;;;;;
2361.0;2206.3;;;;;;;;;;;;;;;;;-0.99185157;38.403732;-4.50148;;2084.1
2361.0;2206.3;;;;;;;;;;;;;;0.23914304;-1.4188665;-0.40748313;;;;;2084.1
2361.0;2206.3;;;;;;;;;;;;;;;;;-5.8519244;39.746544;-10.391553;;2084.1
2361.0;2206.3;;;;;;;;;;;;;;0.1817072;-1.3806573;-0.39863276;;;;;2084.1
2361.0;2206.3;;;;;;;;;;;;;;;;;0.5607776;36.103397;-15.034181;;2093.8
2361.0;2206.3;;;;;;;;;;;;;;0.07727287;-1.3184607;-0.2961516;;;;;2093.8
2361.0;2206.3;;;;;;;;;;;;;;;;;8.636738;30.93051;-15.682699;;2093.8
2361.0;2206.3;;;;;;;;;;;;;;-0.0656148;-1.2790307;-0.15228736;;;;;2093.8
2361.0;2206.3;;;;;;;;;;;;;;;;;11.917479;23.377178;-13.7867365;;2103.4
2361.0;2206.3;;;;;;;;;;;;;;-0.16962187;-1.2505875;-0.07702872;;;;;2103.4
2361.0;2206.3;;;;;;;;;;;;;;;;;8.800775;15.797144;-9.266183;;2103.4
2361.0;2206.3;;;;;;;;;;;;;;-0.24365978;-1.2296518;-0.0994293;;;;;2103.4
2361.0;2207.1;;;;;;;;;;;;;;;;;1.4839625;10.616627;-3.2731102;;2113.0
2361.0;2207.1;;;;;;;;;;;;;;-0.28998688;-1.2001098;-0.16766869;;;;;2113.0
2361.0;2207.1;;;;;;;;;;;;;;;;;-9.315775;6.8094425;4.8333693;;2113.0
2361.0;2207.1;;;;;;;;;;;;;;-0.32227546;-1.1648304;-0.27405623;;;;;2113.0
2361.0;2207.1;;;;;;;;;;;;;;;;;-21.969513;2.1439252;15.312662;;2122.6
2361.0;2207.1;;;;;;;;;;;;;;-0.34473708;-1.1216162;-0.40076905;;;;;2122.6
2361.0;2207.1;;;;;;;;;;;;;;;;;-29.786066;-5.668813;28.22199;;2122.6
2361.0;2207.1;;;;;;;;;;;;;;-0.36640522;-1.0769372;-0.5220496;;;;;2122.6
2361.0;2207.1;;;;;;;;;;;;;;;;;-28.420362;-13.496811;41.42506;;2132.3
2361.0;2207.1;;;;;;;;;;;;;;-0.38807335;-1.0933561;-0.56428725;;;;;2132.3
2361.0;2207.1;;;;;;;;;;;;;;;;;-19.524216;-21.30192;50.59969;;2132.3
2361.0;2207.1;;;;;;;;;;;;;;-0.39436018;-1.1438948;-0.55275124;;;;;2132.3
2365.0;2207.7;;;;;;;;;;;;;-4072;;;;;;;;
2365.0;2207.7;;;;;;;;;;;;;-5070;;;;;;;;
2365.0;2207.7;;;;;;;;;;;;;-1809;;;;;;;;
2365.0;2207.7;;;;;;;;;;;;;3388;;;;;;;;
2365.0;2207.7;;;;;;;;;;;;;6039;;;;;;;;
2365.0;2207.8;;;;-0.08578492;1.3156854;0.4283486;;;;;;;;;;;;;;;
2365.0;2207.8;;;;-0.09363557;1.3068048;0.42493826;;;;;;;;;;;;;;;
2365.0;2207.8;;;;-0.10004808;1.2972108;0.42091376;;;;;;;;;;;;;;;
2365.0;2207.8;;;;-0.10438539;1.2863084;0.41579825;;;;;;;;;;;;;;;
2365.0;2207.8;;;;-0.11005403;1.2746469;0.41060263;;;;;;;;;;;;;;;
2365.0;2214.0;;;;;;;;;;102.95801;-75.415054;-83.960236;;;;;;;;;
2365.0;2214.0;;;;;;;-0.08209479;-0.33436078;0.09503464;;;;;;;;;;;;
2365.0;2214.0;;;;;;;;;;103.061005;-78.43256;-82.30842;;;;;;;;;
2365.0;2214.0;;;;;;;-0.084902495;-0.3333842;0.10254219;;;;;;;;;;;;
2365.0;2217.9;;;;-0.114734665;1.2607957;0.40266424;;;;;;;;;;;;;;;
2365.0;2217.9;;;;-0.12038042;1.2463952;0.39547735;;;;;;;;;;;;;;;
2365.0;2217.9;;;;-0.12804796;1.2313386;0.38916022;;;;;;;;;;;;;;;
2365.0;2217.9;;;;-0.13690187;1.2154199;0.38169485;;;;;;;;;;;;;;;
2365.0;2217.9;;;;-0.14748384;1.1993486;0.37365344;;;;;;;;;;;;;;;
2365.0;2221.9;262143;262143;12480;;;;;;;;;;;;;;;;;;
2365.0;2223.5;;;;;;;;;;103.24412;-82.140564;-81.03427;;;;;;;;;
2365.0;2223.5;;;;;;;-0.079348125;-0.33613086;0.09936827;;;;;;;;;;;;
2365.0;2223.5;;;;;;;;;;103.08771;-86.11561;-80.17975;;;;;;;;;
2365.0;2223.5;;;;;;;-0.07061983;-0.3566393;0.111514635;;;;;;;;;;;;
2366.0;2227.9;;;;-0.15827943;1.1829416;0.3651543;;;;;;;;;;;;;;;
2366.0;2227.9;;;;-0.17081453;1.1657449;0.3557091;;;;;;;;;;;;;;;
2366.0;2227.9;;;;-0.18460847;1.1488076;0.34587482;;;;;;;;;;;;;;;
2366.0;2227.9;;;;-0.19594577;1.1343957;0.3367882;;;;;;;;;;;;;;;
2366.0;2227.9;;;;-0.20520023;1.1193506;0.32898334;;;;;;;;;;;;;;;
2366.0;2232.8;;;;;;;;;;103.38908;-89.541306;-79.031494;;;;;;;;;
2366.0;2232.8;;;;;;;-0.07318339;-0.37104404;0.096804716;;;;;;;;;;;;
2366.0;2232.8;;;;;;;;;;103.47682;-91.16641;-76.38783;;;;;;;;;
2366.0;2232.8;;;;;;;-0.057985168;-0.38587603;0.10644856;;;;;;;;;;;;
2366.0;2237.4;;;;-0.21254733;1.1050836;0.32198337;;;;;;;;;;;;;;;
2366.0;2237.4;;;;-0.21880344;1.0904084;0.31523898;;;;;;;;;;;;;;;
2366.0;2237.4;;;;-0.22635654;1.0762559;0.30985644;;;;;;;;;;;;;;;
2366.0;2237.4;;;;-0.23435596;1.0613099;0.3046036;;;;;;;;;;;;;;;
2366.0;2237.4;;;;-0.24404147;1.0453721;0.29906848;;;;;;;;;;;;;;;
2366.0;2241.5;262143;262143;12489;;;;;;;;;;;;;;;;;;
2366.0;2242.2;;;;;;;;;;103.24412;-92.10104;-74.171425;;;;;;;;;
2366.0;2242.2;;;;;;;-0.04626606;-0.41175574;0.10614338;;;;;;;;;;;;
2366.0;2242.2;;;;;;;;;;102.63756;-92.93649;-71.321754;;;;;;;;;
2366.0;2242.2;;;;;;;-0.025452437;-0.43812373;0.105288856;;;;;;;;;;;;
2366.0;2247.4;;;;;;;;;;;;;4739;;;;;;;;
2366.0;2247.4;;;;;;;;;;;;;2155;;;;;;;;
2366.0;2247.4;;;;;;;;;;;;;1135;;;;;;;;
2366.0;2247.4;;;;;;;;;;;;;1219;;;;;;;;
2366.0;2247.4;;;;;;;;;;;;;934;;;;;;;;
2368.0;2247.5;;;;-0.25429156;1.0298616;0.29293445;;;;;;;;;;;;;;;
2368.0;2247.5;;;;-0.2657471;1.0138856;0.2865868;;;;;;;;;;;;;;;
2368.0;2247.5;;;;-0.27663806;0.99634945;0.2804642;;;;;;;;;;;;;;;
2368.0;2247.5;;;;-0.28961566;0.980034;0.2735634;;;;;;;;;;;;;;;
2368.0;2247.5;;;;-0.30163577;0.96351635;0.2674866;;;;;;;;;;;;;;;
2368.0;2251.8;;;;;;;;;;101.85171;-93.33704;-68.55983;;;;;;;;;
2368.0;2251.8;;;;;;;-0.011780145;-0.46125674;0.10400708;;;;;;;;;;;;
2368.0;2251.8;;;;;;;;;;100.68819;-92.95938;-65.6415;;;;;;;;;
2368.0;2251.8;;;;;;;-0.010315256;-0.48841822;0.0999176;;;;;;;;;;;;
2368.0;2257.6;;;;-0.31443408;0.9454576;0.26284793;;;;;;;;;;;;;;;
2368.0;2257.6;;;;-0.32968906;0.92645276;0.25917438;;;;;;;;;;;;;;;
2368.0;2257.6;;;;-0.34569934;0.9071733;0.25564578;;;;;;;;;;;;;;;
2368.0;2257.6;;;;-0.35908893;0.8884927;0.25327304;;;;;;;;;;;;;;;
2368.0;2257.6;;;;-0.37034228;0.8718988;0.2516251;;;;;;;;;;;;;;;
2368.0;2261.4;;;;;;;;;;98.95627;-92.34519;-60.121464;;;;;;;;;
2368.0;2261.4;;;;;;;-0.010193182;-0.5281533;0.08600116;;;;;;;;;;;;
2368.0;2261.4;;;;;;;;;;96.915344;-91.61656;-52.911465;;;;;;;;;
2368.0;2261.4;;;;;;;0.0026245918;-0.5695975;0.067445904;;;;;;;;;;;;
2368.0;2261.8;262143;262143;12491;;;;;;;;;;;;;;;;;;
2370.0;2266.2;;;;;;;;;;;;;;;;;-5.1461835;-32.906586;54.92187;;2141.9
2370.0;2266.2;;;;;;;;;;;;;;-0.3315531;-1.1468856;-0.5449385;;;;;2141.9
2370.0;2266.2;;;;;;;;;;;;;;;;;6.0350356;-43.786434;55.803093;;2141.9
2370.0;2266.2;;;;;;;;;;;;;;-0.24701682;-1.1568346;-0.5142979;;;;;2141.9
2370.0;2266.2;;;;;;;;;;;;;;;;;10.505997;-52.97632;53.437912;;2151.6
2370.0;2266.2;;;;;;;;;;;;;;-0.13006988;-1.1814935;-0.4888455;;;;;2151.6
2370.0;2266.2;;;;;;;;;;;;;;;;;10.044404;-61.12476;49.741352;;2151.6
2370.0;2266.2;;;;;;;;;;;;;;-0.009949034;-1.210242;-0.4998932;;;;;2151.6
2370.0;2266.2;;;;;;;;;;;;;;;;;9.662924;-69.16257;44.831688;;2161.2
2370.0;2266.2;;;;;;;;;;;;;;0.12329478;-1.2292856;-0.5269326;;;;;2161.2
2370.0;2266.2;;;;;;;;;;;;;;;;;12.916959;-76.1208;39.456615;;2161.2
2370.0;2266.2;;;;;;;;;;;;;;0.2590411;-1.2176275;-0.53114414;;;;;2161.2
2370.0;2267.4;;;;;;;;;;;;;;;;;19.032106;-79.99664;34.10443;;2170.8
2370.0;2267.4;;;;;;;;;;;;;;0.36219367;-1.1612293;-0.49275187;;;;;2170.8
2370.0;2267.4;;;;;;;;;;;;;;;;;23.6404;-80.81301;29.992064;;2170.8
2370.0;2267.4;;;;;;;;;;;;;;0.43122655;-1.0744957;-0.42841884;;;;;2170.8
2370.0;2267.4;;;;;;;;;;;;;;;;;23.85403;-78.9819;27.535324;;2180.5
2370.0;2267.4;;;;;;;;;;;;;;0.4693747;-0.9922178;-0.37208167;;;;;2180.5
2370.0;2267.4;;;;;;;;;;;;;;;;;22.148808;-75.0679;26.50914;;2180.5
2370.0;2267.4;;;;;;;;;;;;;;0.49354532;-0.93002105;-0.32050538;;;;;2180.5
2370.0;2267.4;;;;;;;;;;;;;;;;;18.650625;-68.899345;25.91403;;2190.2
2370.0;2267.4;;;;;;;;;;;;;;0.5058138;-0.8905301;-0.276986;;;;;2190.2
2370.0;2267.4;;;;;;;;;;;;;;;;;14.606922;-61.433758;25.38377;;2190.2
2370.0;2267.4;;;;;;;;;;;;;;0.516068;-0.8539079;-0.23535874;;;;;2190.2
2372.0;2267.6;;;;-0.37987906;0.85598385;0.25070575;;;;;;;;;;;;;;;
2372.0;2267.6;;;;-0.3889237;0.8389474;0.25115207;;;;;;;;;;;;;;;
2372.0;2267.6;;;;-0.3976937;0.82324994;0.25130466;;;;;;;;;;;;;;;
2372.0;2267.6;;;;-0.4043923;0.80720913;0.250515;;;;;;;;;;;;;;;
2372.0;2267.6;;;;-0.40906912;0.7911149;0.24808887;;;;;;;;;;;;;;;
2372.0;2270.9;;;;;;;;;;94.39757;-89.75875;-44.984283;;;;;;;;;
