patientId;holterMac;flexMac;;;;;;;;;;;;;;;;;;;;
;CA:F3:0B:1E:33:78;D3:4A:5C:52:80:78;;;;;;;;;;;;;;;;;;;;
receivedTimeStamp;timeStamp;red;ir;green;adxl_accX;adxl_accY;adxl_accZ;lsm_accelX;lsm_accelY;lsm_accelZ;lsm_gyroX;lsm_gyroY;lsm_gyroZ;ecg;flex_lsm_accelX;flex_lsm_accelY;flex_lsm_accelZ;flex_lsm_gyroX;flex_lsm_gyroY;flex_lsm_gyroZ;flex_cmd;flexTimeStamp
364.0;215.5;;;;;;;;;;;;;;;;;;;;17;0.1
364.0;215.5;;;;;;;;;;;;;;;;;17.26966;-0.77440715;1.2627033;;127.5
364.0;215.5;;;;;;;;;;;;;;0.8793603;-0.3744621;-0.23078097;;;;;127.5
364.0;215.5;;;;;;;;;;;;;;;;;-6.1151466;-15.625477;-5.8900723;;127.5
364.0;215.5;;;;;;;;;;;;;;0.9043855;-0.38343456;-0.25049594;;;;;127.5
364.0;215.5;;;;;;;;;;;;;;;;;-64.718315;-83.78857;-59.81628;;137.3
364.0;215.5;;;;;;;;;;;;;;0.8955352;-0.37122715;-0.25366986;;;;;137.3
364.0;215.5;;;;;;;;;;;;;;;;;-122.35633;-124.988556;-118.980225;;137.3
364.0;215.5;;;;;;;;;;;;;;0.89541304;-0.35975218;-0.2636189;;;;;137.3
482.0;275.7;;;;;;;;;;;;;;;;;-58.252205;-124.26374;-69.799644;;146.8
482.0;275.7;;;;;;;;;;;;;;0.9036531;-0.32563248;-0.2916349;;;;;146.8
482.0;275.7;;;;;;;;;;;;;;;;;8.7893305;-121.26148;-10.174108;;146.8
482.0;275.7;;;;;;;;;;;;;;0.9083529;-0.31238747;-0.31830806;;;;;146.8
482.0;275.7;;;;;;;;;;;;;;;;;6.1189613;-87.82083;2.822962;;156.5
482.0;275.7;;;;;;;;;;;;;;0.9186071;-0.30835903;-0.3467513;;;;;156.5
482.0;275.7;;;;;;;;;;;;;;;;;1.4419996;5.5200357;28.603474;;156.5
482.0;275.7;;;;;;;;;;;;;;0.9124424;-0.3101291;-0.3655507;;;;;156.5
482.0;275.7;;;;;;;;;;;;;;;;;3.4676657;12.382885;28.283028;;166.1
482.0;275.7;;;;;;;;;;;;;;0.8862575;-0.293466;-0.38264108;;;;;166.1
482.0;275.7;;;;;;;;;;;;;;;;;6.5805535;11.844996;26.226845;;166.1
482.0;275.7;;;;;;;;;;;;;;0.85909605;-0.27845088;-0.37440106;;;;;166.1
482.0;276.4;;;;;;;;;;;;;;;;;9.628591;9.716331;24.857325;;175.8
482.0;276.4;;;;;;;;;;;;;;0.84359264;-0.25702688;-0.37488937;;;;;175.8
482.0;276.4;;;;;;;;;;;;;;;;;12.462996;7.8089237;22.900326;;175.8
482.0;276.4;;;;;;;;;;;;;;0.83535266;-0.24256112;-0.37440106;;;;;175.8
482.0;276.4;;;;;;;;;;;;;;;;;15.457625;5.8671837;20.641956;;185.4
482.0;276.4;;;;;;;;;;;;;;0.84017456;-0.21460617;-0.37519455;;;;;185.4
482.0;276.4;;;;;;;;;;;;;;;;;17.941069;4.566332;18.967255;;185.4
482.0;276.4;;;;;;;;;;;;;;0.85006255;-0.18964201;-0.3749504;;;;;185.4
482.0;276.4;;;;;;;;;;;;;;;;;19.27244;3.8377025;17.47566;;194.9
482.0;276.4;;;;;;;;;;;;;;0.86056095;-0.17072055;-0.38080996;;;;;194.9
482.0;276.4;;;;;;;;;;;;;;;;;19.795067;3.604999;16.640219;;194.9
482.0;276.4;;;;;;;;;;;;;;0.86953336;-0.1638844;-0.3762932;;;;;194.9
483.0;397.0;;;;;;;;;;;;;;;;;19.146551;2.9641104;15.758995;;204.5
483.0;397.0;;;;;;;;;;;;;;0.88595235;-0.17072055;-0.38038272;;;;;204.5
483.0;397.0;;;;;;;;;;;;;;;;;18.417921;2.803888;14.671774;;204.5
483.0;397.0;;;;;;;;;;;;;;0.8993194;-0.17188025;-0.37885678;;;;;204.5
483.0;397.0;;;;;;;;;;;;;;;;;17.643513;2.9641104;13.748589;;214.2
483.0;397.0;;;;;;;;;;;;;;0.90347;-0.17249061;-0.37934506;;;;;214.2
483.0;397.0;;;;;;;;;;;;;;;;;17.208624;3.6965547;13.019959;;214.2
483.0;397.0;;;;;;;;;;;;;;0.895352;-0.17200232;-0.37269205;;;;;214.2
483.0;397.0;;;;;;;;;;;;;;;;;17.567217;4.0055547;11.753441;;223.8
483.0;397.0;;;;;;;;;;;;;;0.8891873;-0.16711935;-0.3737907;;;;;223.8
483.0;397.0;;;;;;;;;;;;;;;;;19.066439;3.8338878;10.395368;;223.8
483.0;397.0;;;;;;;;;;;;;;0.8791162;-0.16284677;-0.38404492;;;;;223.8
483.0;397.8;;;;;;;;;;;;;;;;;21.668142;3.2425916;8.831293;;233.4
483.0;397.8;;;;;;;;;;;;;;0.8703879;-0.15442365;-0.3994873;;;;;233.4
483.0;397.8;;;;;;;;;;;;;;;;;24.567402;2.422407;6.6072574;;233.4
483.0;397.8;;;;;;;;;;;;;;0.86373484;-0.13910337;-0.4143803;;;;;233.4
483.0;397.8;;;;;;;;;;;;;;;;;27.359844;1.945555;4.3221836;;243.0
483.0;397.8;;;;;;;;;;;;;;0.8545793;-0.13238929;-0.42262033;;;;;243.0
483.0;397.8;;;;;;;;;;;;;;;;;30.072176;1.4419996;1.6518143;;243.0
483.0;397.8;;;;;;;;;;;;;;0.84701073;-0.1159093;-0.43238625;;;;;243.0
483.0;397.8;;;;;;;;;;;;;;;;;32.170326;1.4076662;-0.5798517;;252.7
483.0;397.8;;;;;;;;;;;;;;0.8411512;-0.11346782;-0.4392224;;;;;252.7
483.0;397.8;;;;;;;;;;;;;;;;;33.60088;1.4877774;-2.6169622;;252.7
483.0;397.8;;;;;;;;;;;;;;0.8384045;-0.11413923;-0.43818477;;;;;252.7
484.0;398.6;;;;;;;;;;;;;;;;;34.01288;1.2970366;-4.2878504;;262.3
484.0;398.6;;;;;;;;;;;;;;0.84377575;-0.11963256;-0.44538713;;;;;262.3
484.0;398.6;;;;;;;;;;;;;;;;;33.463547;1.2627033;-5.5200357;;262.3
484.0;398.6;;;;;;;;;;;;;;0.8476211;-0.13623463;-0.44825587;;;;;262.3
484.0;398.6;;;;;;;;;;;;;;;;;32.16651;0.85833305;-6.187628;;272.0
484.0;398.6;;;;;;;;;;;;;;0.8545183;-0.15173803;-0.45057526;;;;;272.0
484.0;398.6;;;;;;;;;;;;;;;;;30.529953;0.48829615;-6.6225166;;272.0
484.0;398.6;;;;;;;;;;;;;;0.85854673;-0.16699728;-0.4464858;;;;;272.0
484.0;398.6;;;;;;;;;;;;;;;;;28.775139;0.20981476;-7.0307016;;281.6
484.0;398.6;;;;;;;;;;;;;;0.8638569;-0.18280587;-0.4380627;;;;;281.6
484.0;398.6;;;;;;;;;;;;;;;;;27.779472;-0.6218146;-7.290109;;281.6
484.0;398.6;;;;;;;;;;;;;;0.875576;-0.19733268;-0.42915127;;;;;281.6
484.0;399.3;;;;;;;;;;;;;;;;;27.310251;-2.1019626;-7.6258125;;291.2
484.0;399.3;;;;;;;;;;;;;;0.8923002;-0.21063875;-0.42268136;;;;;291.2
484.0;399.3;;;;;;;;;;;;;;;;;26.646475;-3.7804804;-7.9615164;;291.2
484.0;399.3;;;;;;;;;;;;;;0.9112217;-0.23053682;-0.4196295;;;;;291.2
484.0;399.3;;;;;;;;;;;;;;;;;25.99414;-5.5963316;-8.40022;;300.8
484.0;399.3;;;;;;;;;;;;;;0.9322184;-0.25611132;-0.41132846;;;;;300.8
484.0;399.3;;;;;;;;;;;;;;;;;25.57451;-7.133702;-8.888515;;300.8
484.0;399.3;;;;;;;;;;;;;;0.95327616;-0.28107548;-0.40437025;;;;;300.8
484.0;399.3;;;;;;;;;;;;;;;;;25.860622;-8.434553;-9.42259;;310.4
484.0;399.3;;;;;;;;;;;;;;0.9794;-0.29700613;-0.39930418;;;;;310.4
484.0;399.3;;;;;;;;;;;;;;;;;26.764734;-9.178442;-10.433516;;310.4
484.0;399.3;;;;;;;;;;;;;;1.0134586;-0.30573443;-0.38892788;;;;;310.4
545.0;400.1;;;;;;;;;;;;;;;;;28.675955;-10.177923;-12.043367;;320.1
545.0;400.1;;;;;;;;;;;;;;1.0440992;-0.30909148;-0.38752404;;;;;320.1
545.0;400.1;;;;;;;;;;;;;;;;;31.437881;-10.479293;-14.419996;;320.1
545.0;400.1;;;;;;;;;;;;;;1.0633869;-0.29847103;-0.3797113;;;;;320.1
545.0;400.1;;;;;;;;;;;;;;;;;34.501175;-10.799738;-17.437513;;329.6
545.0;400.1;;;;;;;;;;;;;;1.0859706;-0.26715904;-0.38294625;;;;;329.6
545.0;400.1;;;;;;;;;;;;;;;;;36.530655;-11.066774;-20.752586;;329.6
545.0;400.1;;;;;;;;;;;;;;1.1039156;-0.23596911;-0.3876461;;;;;329.6
545.0;400.1;;;;;;;;;;;;;;;;;37.114323;-11.902219;-24.548326;;339.3
545.0;400.1;;;;;;;;;;;;;;1.1084323;-0.19446394;-0.39533678;;;;;339.3
545.0;400.1;;;;;;;;;;;;;;;;;36.458176;-11.753441;-28.405102;;339.3
545.0;400.1;;;;;;;;;;;;;;1.0960418;-0.14850307;-0.39857173;;;;;339.3
545.0;456.9;;;;;;;;;;;;;;;;;34.1731;-11.432997;-31.994843;;349.0
545.0;456.9;;;;;;;;;;;;;;1.074984;-0.105166785;-0.3942381;;;;;349.0
545.0;456.9;;;;;;;;;;;;;;;;;30.064547;-12.077701;-35.348064;;349.0
545.0;456.9;;;;;;;;;;;;;;1.056856;-0.06024354;-0.38972136;;;;;349.0
545.0;456.9;;;;;;;;;;;;;;;;;24.410994;-13.592181;-38.41136;;358.6
545.0;456.9;;;;;;;;;;;;;;1.0308542;-0.025086215;-0.3785516;;;;;358.6
545.0;456.9;;;;;;;;;;;;;;;;;18.147068;-15.511032;-41.386913;;358.6
545.0;456.9;;;;;;;;;;;;;;1.0135196;0.0051271096;-0.3651845;;;;;358.6
545.0;456.9;;;;;;;;;;;;;;;;;11.360515;-17.262032;-44.232765;;367.9
545.0;456.9;;;;;;;;;;;;;;0.9935606;0.039490953;-0.34730065;;;;;367.9
545.0;456.9;;;;;;;;;;;;;;;;;4.3298135;-18.837551;-46.864986;;367.9
545.0;456.9;;;;;;;;;;;;;;0.9762261;0.07306131;-0.3218482;;;;;367.9
605.0;457.7;;;;;;;;;;;;;;;;;-2.7695546;-20.237587;-49.272137;;377.6
605.0;457.7;;;;;;;;;;;;;;0.96017337;0.0949736;-0.30182806;;;;;377.6
605.0;457.7;;;;;;;;;;;;;;;;;-9.414961;-21.33244;-51.75939;;377.6
605.0;457.7;;;;;;;;;;;;;;0.9444258;0.11682486;-0.27729118;;;;;377.6
605.0;457.7;;;;;;;;;;;;;;;;;-15.75518;-22.247993;-54.525135;;387.2
605.0;457.7;;;;;;;;;;;;;;0.9294107;0.13708915;-0.25898007;;;;;387.2
605.0;457.7;;;;;;;;;;;;;;;;;-22.019106;-22.949919;-57.45491;;387.2
605.0;457.7;;;;;;;;;;;;;;0.920011;0.15601063;-0.24323252;;;;;387.2
605.0;457.7;;;;;;;;;;;;;;;;;-27.84051;-24.113438;-60.472424;;396.9
605.0;457.7;;;;;;;;;;;;;;0.9125034;0.15472884;-0.25189978;;;;;396.9
605.0;457.7;;;;;;;;;;;;;;;;;-31.861324;-25.688955;-64.00113;;396.9
605.0;457.7;;;;;;;;;;;;;;0.903531;0.16364025;-0.28748435;;;;;396.9
605.0;525.3;;;;;;;;;;;;;;;;;-33.612324;-27.974028;-67.47261;;406.6
605.0;525.3;;;;;;;;;;;;;;0.9015168;0.15204321;-0.3154393;;;;;406.6
605.0;525.3;;;;;;;;;;;;;;;;;-34.813988;-30.999176;-70.37949;;406.6
605.0;525.3;;;;;;;;;;;;;;0.93728447;0.1248207;-0.3239845;;;;;406.6
605.0;525.3;;;;;;;;;;;;;;;;;-36.397137;-31.056398;-72.935425;;416.1
605.0;525.3;;;;;;;;;;;;;;0.97366256;0.09485153;-0.316599;;;;;416.1
605.0;525.3;;;;;;;;;;;;;;;;;-38.018433;-24.243141;-75.38454;;416.1
605.0;525.3;;;;;;;;;;;;;;0.97140414;0.07147435;-0.24542986;;;;;416.1
605.0;525.3;;;;;;;;;;;;;;;;;-40.066986;-16.441847;-78.62712;;425.6
605.0;525.3;;;;;;;;;;;;;;0.9521775;0.06933805;-0.18329416;;;;;425.6
605.0;525.3;;;;;;;;;;;;;;;;;-41.98584;-12.18833;-82.29316;;425.6
605.0;525.3;;;;;;;;;;;;;;0.9337443;0.065981016;-0.16241951;;;;;425.6
666.0;526.1;;;;;;;;;;;;;;;;;-43.48506;-11.066774;-86.046936;;435.3
666.0;526.1;;;;;;;;;;;;;;0.93130285;0.07751702;-0.17737357;;;;;435.3
666.0;526.1;;;;;;;;;;;;;;;;;-44.373913;-10.902738;-89.01105;;435.3
666.0;526.1;;;;;;;;;;;;;;0.9386273;0.07739494;-0.19342631;;;;;435.3
666.0;526.1;;;;;;;;;;;;;;;;;-43.8818;-10.177923;-91.78442;;445.0
666.0;526.1;;;;;;;;;;;;;;0.9641408;0.08154546;-0.19946899;;;;;445.0
666.0;526.1;;;;;;;;;;;;;;;;;-42.954803;-7.351146;-94.9736;;445.0
666.0;526.1;;;;;;;;;;;;;;0.99649036;0.08716086;-0.18652913;;;;;445.0
666.0;526.1;;;;;;;;;;;;;;;;;-42.36732;-2.9602954;-98.96771;;454.7
666.0;526.1;;;;;;;;;;;;;;1.0143132;0.07293924;-0.16351818;;;;;454.7
666.0;526.1;;;;;;;;;;;;;;;;;-41.524246;1.3847773;-103.724785;;454.7
666.0;526.1;;;;;;;;;;;;;;1.0241401;0.058107242;-0.1403241;;;;;454.7
666.0;585.2;;;;;;;;;;;;;;;;;-40.597248;5.546739;-109.02738;;464.2
666.0;585.2;;;;;;;;;;;;;;1.0215156;0.05017243;-0.14148381;;;;;464.2
666.0;585.2;;;;;;;;;;;;;;;;;-38.026066;10.620441;-113.9523;;464.2
666.0;585.2;;;;;;;;;;;;;;1.0134586;0.037720878;-0.1241493;;;;;464.2
666.0;585.2;;;;;;;;;;;;;;;;;-35.699024;13.42433;-118.472855;;473.9
666.0;585.2;;;;;;;;;;;;;;1.030366;0.036194954;-0.111514635;;;;;473.9
666.0;585.2;;;;;;;;;;;;;;;;;-34.03195;15.919218;-121.30726;;473.9
666.0;585.2;;;;;;;;;;;;;;1.0587481;0.033448286;-0.11505478;;;;;473.9
666.0;585.2;;;;;;;;;;;;;;;;;-32.46025;20.634327;-123.043;;483.5
666.0;585.2;;;;;;;;;;;;;;1.0767541;0.0053712577;-0.09106723;;;;;483.5
666.0;585.2;;;;;;;;;;;;;;;;;-29.29777;24.643698;-123.95093;;483.5
666.0;585.2;;;;;;;;;;;;;;1.0957977;-0.055848874;-0.07586902;;;;;483.5
724.0;586.0;;;;;;;;;;;;;;;;;-23.525955;28.786585;-123.85174;;493.2
724.0;586.0;;;;;;;;;;;;;;1.0991546;-0.15839106;-0.06738487;;;;;493.2
724.0;586.0;;;;;;;;;;;;;;;;;-17.490921;32.948547;-124.24467;;493.2
724.0;586.0;;;;;;;;;;;;;;1.0887173;-0.23322245;-0.044557024;;;;;493.2
724.0;586.0;;;;;;;;;;;;;;;;;-15.86581;33.516956;-124.94278;;502.8
724.0;586.0;;;;;;;;;;;;;;1.0855434;-0.19116795;-0.041688286;;;;;502.8
724.0;586.0;;;;;;;;;;;;;;;;;-15.259254;30.953398;-124.57274;;502.8
724.0;586.0;;;;;;;;;;;;;;1.0611286;-0.22748497;-0.0656148;;;;;502.8
724.0;586.0;;;;;;;;;;;;;;;;;-14.160588;25.28077;-121.97485;;512.5
724.0;586.0;;;;;;;;;;;;;;1.0558794;-0.27484968;-0.10132145;;;;;512.5
724.0;586.0;;;;;;;;;;;;;;;;;-14.835811;17.231512;-118.32027;;512.5
724.0;586.0;;;;;;;;;;;;;;1.0626545;-0.29548022;-0.1734672;;;;;512.5
724.0;646.0;;;;;;;;;;;;;;;;;-15.36607;9.060183;-114.75341;;522.1
724.0;646.0;;;;;;;;;;;;;;1.0658284;-0.3103122;-0.23908201;;;;;522.1
724.0;646.0;;;;;;;;;;;;;;;;;-16.739403;1.392407;-109.664444;;522.1
724.0;646.0;;;;;;;;;;;;;;1.050325;-0.34339428;-0.3071383;;;;;522.1
724.0;646.0;;;;;;;;;;;;;;;;;-17.540512;-5.9587393;-104.32752;;531.8
724.0;646.0;;;;;;;;;;;;;;1.0400708;-0.39466536;-0.32782984;;;;;531.8
724.0;646.0;;;;;;;;;;;;;;;;;-16.163366;-16.575367;-100.29145;;531.8
724.0;646.0;;;;;;;;;;;;;;1.0550859;-0.40736106;-0.3340556;;;;;531.8
724.0;646.0;;;;;;;;;;;;;;;;;-12.9207735;-28.03125;-96.19816;;541.3
724.0;646.0;;;;;;;;;;;;;;1.0903043;-0.42262033;-0.34333324;;;;;541.3
724.0;646.0;;;;;;;;;;;;;;;;;-8.89233;-35.584583;-89.07208;;541.3
724.0;646.0;;;;;;;;;;;;;;1.1003144;-0.47151098;-0.34748375;;;;;541.3
785.0;646.7;;;;;;;;;;;;;;;;;-4.955443;-40.669727;-86.611534;;550.9
785.0;646.7;;;;;;;;;;;;;;1.1187475;-0.52125615;-0.34583575;;;;;550.9
785.0;646.7;;;;;;;;;;;;;;;;;1.1177404;-46.231728;-84.52864;;550.9
785.0;646.7;;;;;;;;;;;;;;1.1071504;-0.5741142;-0.40919217;;;;;550.9
785.0;646.7;;;;;;;;;;;;;;;;;5.4208503;-48.21543;-85.76464;;560.6
785.0;646.7;;;;;;;;;;;;;;1.0708334;-0.5382855;-0.4735252;;;;;560.6
785.0;646.7;;;;;;;;;;;;;;;;;4.932554;-46.338543;-90.18219;;560.6
785.0;646.7;;;;;;;;;;;;;;1.0495926;-0.3945433;-0.51496935;;;;;560.6
785.0;646.7;;;;;;;;;;;;;;;;;3.7995543;-43.29051;-87.28294;;570.2
785.0;646.7;;;;;;;;;;;;;;1.0281686;-0.30408642;-0.50001526;;;;;570.2
785.0;646.7;;;;;;;;;;;;;;;;;2.8534806;-44.324318;-82.9989;;570.2
785.0;646.7;;;;;;;;;;;;;;1.0345165;-0.23395489;-0.49256873;;;;;570.2
785.0;698.3;;;;;;;;;;;;;;;;;1.33137;-44.53795;-80.26368;;579.8
785.0;698.3;;;;;;;;;;;;;;1.0548418;-0.11883908;-0.4683981;;;;;579.8
785.0;698.3;;;;;;;;;;;;;;;;;-2.3422956;-41.768394;-77.24616;;579.8
785.0;698.3;;;;;;;;;;;;;;1.0799279;-0.062623985;-0.44526505;;;;;579.8
785.0;698.3;;;;;;;;;;;;;;;;;-2.006592;-36.355175;-74.14091;;589.5
785.0;698.3;;;;;;;;;;;;;;1.1019013;0.0054322947;-0.38587603;;;;;589.5
785.0;698.3;;;;;;;;;;;;;;;;;-2.910703;-28.874325;-75.51805;;589.5
785.0;698.3;;;;;;;;;;;;;;1.0870082;0.11529893;-0.3606067;;;;;589.5
785.0;698.3;;;;;;;;;;;;;;;;;-3.5744805;-22.438734;-77.77261;;599.0
785.0;698.3;;;;;;;;;;;;;;1.084933;0.18793298;-0.29737237;;;;;599.0
785.0;698.3;;;;;;;;;;;;;;;;;-2.5063326;-27.546768;-72.30598;;599.0
785.0;698.3;;;;;;;;;;;;;;1.1192969;0.22547075;-0.25458542;;;;;599.0
845.0;699.0;;;;;;;;;;;;;;;;;-0.37385175;-32.658623;-72.25257;;608.6
845.0;699.0;;;;;;;;;;;;;;1.1420636;0.2042909;-0.27491075;;;;;608.6
845.0;699.0;;;;;;;;;;;;;;;;;6.366924;-25.055696;-68.15546;;608.6
845.0;699.0;;;;;;;;;;;;;;1.073397;0.120303966;-0.20777002;;;;;608.6
845.0;699.0;;;;;;;;;;;;;;;;;7.5800347;-20.996735;-64.51613;;618.2
845.0;699.0;;;;;;;;;;;;;;1.0428175;0.10095523;-0.17493209;;;;;618.2
845.0;699.0;;;;;;;;;;;;;;;;;5.3903317;-21.52318;-62.421795;;618.2
845.0;699.0;;;;;;;;;;;;;;0.98818934;0.123538926;-0.15222633;;;;;618.2
845.0;699.0;;;;;;;;;;;;;;;;;-0.07248146;-25.04425;-59.83154;;627.9
845.0;699.0;;;;;;;;;;;;;;0.97433394;0.12280648;-0.17944884;;;;;627.9
845.0;699.0;;;;;;;;;;;;;;;;;-4.3832207;-21.50029;-56.592762;;627.9
845.0;699.0;;;;;;;;;;;;;;0.969512;0.105533004;-0.15338603;;;;;627.9
845.0;758.5;;;;;;;;;;;;;;;;;-8.148442;-19.497513;-52.40791;;637.4
845.0;758.5;;;;;;;;;;;;;;0.95577866;0.08856472;-0.11926634;;;;;637.4
845.0;758.5;;;;;;;;;;;;;;;;;-12.80633;-21.851254;-48.066654;;637.4
845.0;758.5;;;;;;;;;;;;;;0.9149449;0.07892086;-0.11609241;;;;;637.4
845.0;758.5;;;;;;;;;;;;;;;;;-19.451736;-24.407179;-43.988617;;647.0
845.0;758.5;;;;;;;;;;;;;;0.8915067;0.055787835;-0.13147373;;;;;647.0
845.0;758.5;;;;;;;;;;;;;;;;;-25.311289;-24.697105;-40.047913;;647.0
845.0;758.5;;;;;;;;;;;;;;0.87246317;0.04571673;-0.1394696;;;;;647.0
845.0;758.5;;;;;;;;;;;;;;;;;-30.247658;-22.381512;-36.675617;;656.7
845.0;758.5;;;;;;;;;;;;;;0.8564104;0.03320414;-0.13483077;;;;;656.7
845.0;758.5;;;;;;;;;;;;;;;;;-33.72677;-19.83703;-32.91803;;656.7
845.0;758.5;;;;;;;;;;;;;;0.83138525;0.01739555;-0.12427137;;;;;656.7
903.0;759.7;;;;;;;;;;;;;;;;;-37.415695;-18.082216;-29.663992;;666.4
903.0;759.7;;;;;;;;;;;;;;0.8107547;0.017273476;-0.13592944;;;;;666.4
903.0;759.7;;;;;;;;;;;;;;;;;-40.11658;-15.339366;-25.948362;;666.4
903.0;759.7;;;;;;;;;;;;;;0.7762688;0.018555254;-0.13910337;;;;;666.4
903.0;759.7;;;;;;;;;;;;;;;;;-42.39021;-13.302256;-22.133549;;675.9
903.0;759.7;;;;;;;;;;;;;;0.7471542;0.012390515;-0.14038515;;;;;675.9
903.0;759.7;;;;;;;;;;;;;;;;;-44.34339;-12.009034;-18.158514;;675.9
903.0;759.7;;;;;;;;;;;;;;0.7215796;0.0114139225;-0.13409834;;;;;675.9
903.0;759.7;;;;;;;;;;;;;;;;;-46.006653;-11.814478;-14.007996;;685.6
903.0;759.7;;;;;;;;;;;;;;0.7010712;0.015869625;-0.135197;;;;;685.6
903.0;759.7;;;;;;;;;;;;;;;;;-46.895504;-12.131108;-9.807885;;685.6
903.0;759.7;;;;;;;;;;;;;;0.6906949;0.012756737;-0.14331493;;;;;685.6
903.0;773.5;;;;;;;;;;;;;;;;;-46.212654;-12.356182;-5.8709984;;695.2
903.0;773.5;;;;;;;;;;;;;;0.6828822;0.012146367;-0.15094455;;;;;695.2
903.0;773.5;;;;;;;;;;;;;;;;;-43.94284;-12.554551;-1.9264809;;695.2
903.0;773.5;;;;;;;;;;;;;;0.6769616;-0.0042115543;-0.15765862;;;;;695.2
903.0;773.5;;;;;;;;;;;;;;;;;-40.162357;-12.478255;1.6823329;;704.8
903.0;773.5;;;;;;;;;;;;;;0.67146826;-0.008484146;-0.16974396;;;;;704.8
903.0;773.5;;;;;;;;;;;;;;;;;-35.035248;-12.035737;4.9439983;;704.8
903.0;773.5;;;;;;;;;;;;;;0.6599933;-0.01330607;-0.17542039;;;;;704.8
903.0;773.5;;;;;;;;;;;;;;;;;-29.156622;-12.409589;8.098849;;714.4
903.0;773.5;;;;;;;;;;;;;;0.64479506;-0.02294992;-0.18384351;;;;;714.4
903.0;773.5;;;;;;;;;;;;;;;;;-23.14066;-13.42433;10.963775;;714.4
903.0;773.5;;;;;;;;;;;;;;0.639729;-0.028382214;-0.1975158;;;;;714.4
976.0;818.7;;;;;;;;;;;;;;;;;-16.49907;-14.282662;13.649404;;724.1
976.0;818.7;;;;;;;;;;;;;;0.6407666;-0.031250954;-0.20966215;;;;;724.1
976.0;818.7;;;;;;;;;;;;;;;;;-9.876553;-14.515367;15.850552;;724.1
976.0;818.7;;;;;;;;;;;;;;0.6465041;-0.037049472;-0.21015045;;;;;724.1
976.0;818.7;;;;;;;;;;;;;;;;;-3.5973694;-13.901181;17.91055;;733.8
976.0;818.7;;;;;;;;;;;;;;0.65468305;-0.04260384;-0.20831935;;;;;733.8
976.0;818.7;;;;;;;;;;;;;;;;;1.5449996;-13.355663;19.833216;;733.8
976.0;818.7;;;;;;;;;;;;;;0.662862;-0.04815821;-0.21271402;;;;;733.8
976.0;818.7;;;;;;;;;;;;;;;;;6.2906275;-13.439589;21.435438;;743.5
976.0;818.7;;;;;;;;;;;;;;0.67018646;-0.05053865;-0.22730187;;;;;743.5
976.0;818.7;;;;;;;;;;;;;;;;;11.67333;-14.275033;22.885067;;743.5
976.0;818.7;;;;;;;;;;;;;;0.6774499;-0.056154057;-0.24689475;;;;;743.5
976.0;833.7;;;;;;;;;;;;;;;;;17.948698;-15.739922;24.220253;;753.1
976.0;833.7;;;;;;;;;;;;;;0.68202764;-0.056459244;-0.26972258;;;;;753.1
976.0;833.7;;;;;;;;;;;;;;;;;24.7734;-18.074587;25.429548;;753.1
976.0;833.7;;;;;;;;;;;;;;0.67049164;-0.033509325;-0.28675193;;;;;753.1
976.0;833.7;;;;;;;;;;;;;;;;;31.277657;-21.855068;26.871548;;762.8
976.0;833.7;;;;;;;;;;;;;;0.66914886;-0.0026245918;-0.3045137;;;;;762.8
976.0;833.7;;;;;;;;;;;;;;;;;36.938843;-25.418102;28.977325;;762.8
976.0;833.7;;;;;;;;;;;;;;0.6734825;0.028077029;-0.3213599;;;;;762.8
976.0;833.7;;;;;;;;;;;;;;;;;40.21195;-27.375103;30.705435;;772.3
976.0;833.7;;;;;;;;;;;;;;0.6839808;0.060487688;-0.33130893;;;;;772.3
976.0;833.7;;;;;;;;;;;;;;;;;41.554764;-26.322214;31.949066;;772.3
976.0;833.7;;;;;;;;;;;;;;0.6969817;0.07513657;-0.32203132;;;;;772.3
1022.0;879.5;;;;;;;;;;;;;;;;;42.80221;-24.807732;33.303326;;781.9
1022.0;879.5;;;;;;;;;;;;;;0.71968746;0.084902495;-0.30597857;;;;;781.9
1022.0;879.5;;;;;;;;;;;;;;;;;43.20658;-23.75103;32.82266;;781.9
1022.0;879.5;;;;;;;;;;;;;;0.73250526;0.10748619;-0.29657888;;;;;781.9
1022.0;879.5;;;;;;;;;;;;;;;;;44.450207;-23.14066;31.243324;;791.6
1022.0;879.5;;;;;;;;;;;;;;0.7462386;0.13666189;-0.30664998;;;;;791.6
1022.0;879.5;;;;;;;;;;;;;;;;;47.761467;-23.23603;30.121769;;791.6
1022.0;879.5;;;;;;;;;;;;;;0.75502795;0.16565447;-0.3253273;;;;;791.6
1022.0;879.5;;;;;;;;;;;;;;;;;53.12891;-25.681326;28.935362;;801.3
1022.0;879.5;;;;;;;;;;;;;;0.7750481;0.22083193;-0.35096285;;;;;801.3
1022.0;879.5;;;;;;;;;;;;;;;;;60.781425;-29.522844;29.499954;;801.3
1022.0;879.5;;;;;;;;;;;;;;0.80202645;0.22748497;-0.40107426;;;;;801.3
1022.0;894.0;;;;;;;;;;;;;;;;;73.51146;-35.16495;29.049807;;810.8
1022.0;894.0;;;;;;;;;;;;;;0.8033082;0.24250008;-0.44709617;;;;;810.8
1022.0;894.0;;;;;;;;;;;;;;;;;89.819786;-43.988617;27.62688;;810.8
1022.0;894.0;;;;;;;;;;;;;;0.73555714;0.27008882;-0.5290689;;;;;810.8
1022.0;894.0;;;;;;;;;;;;;;;;;102.21793;-40.95584;26.306955;;820.5
1022.0;894.0;;;;;;;;;;;;;;0.712302;0.27497178;-0.5434736;;;;;820.5
1022.0;894.0;;;;;;;;;;;;;;;;;116.80959;-40.11658;24.68566;;820.5
1022.0;894.0;;;;;;;;;;;;;;0.7401349;0.2949919;-0.55836666;;;;;820.5
1022.0;894.0;;;;;;;;;;;;;;;;;124.790184;-45.445873;23.24366;;830.1
1022.0;894.0;;;;;;;;;;;;;;0.82558674;0.3144017;-0.5683767;;;;;830.1
1022.0;894.0;;;;;;;;;;;;;;;;;124.988556;-47.353283;22.827845;;830.1
1022.0;894.0;;;;;;;;;;;;;;0.89168984;0.33265176;-0.5808893;;;;;830.1
1087.0;939.3;;;;;;;;;;;;;;;;;124.381996;-39.471874;20.241402;;839.7
1087.0;939.3;;;;;;;;;;;;;;0.9170202;0.372631;-0.5551317;;;;;839.7
1087.0;939.3;;;;;;;;;;;;;;;;;113.08252;-28.145695;12.253182;;839.7
1087.0;939.3;;;;;;;;;;;;;;0.97384566;0.45301676;-0.506241;;;;;839.7
1087.0;939.3;;;;;;;;;;;;;;;;;86.809906;-17.658772;-2.906888;;849.4
1087.0;939.3;;;;;;;;;;;;;;1.0950651;0.53028965;-0.47279274;;;;;849.4
1087.0;939.3;;;;;;;;;;;;;;;;;57.523575;-4.5968504;-19.878994;;849.4
1087.0;939.3;;;;;;;;;;;;;;1.159032;0.5022126;-0.47694325;;;;;849.4
1087.0;939.3;;;;;;;;;;;;;;;;;31.941437;3.5935545;-50.073242;;859.0
1087.0;939.3;;;;;;;;;;;;;;1.2076174;0.5807672;-0.44904935;;;;;859.0
1087.0;939.3;;;;;;;;;;;;;;;;;7.3435163;-7.1146274;-70.26124;;859.0
1087.0;939.3;;;;;;;;;;;;;;1.2801905;0.85384685;-0.45368817;;;;;859.0
1087.0;946.8;;;;;;;;;;;;;;;;;-11.547441;-26.596882;-59.907833;;868.6
1087.0;946.8;;;;;;;;;;;;;;1.2153081;0.9024323;-0.6538896;;;;;868.6
1087.0;946.8;;;;;;;;;;;;;;;;;1.3008515;-45.14832;-39.040802;;868.6
1087.0;946.8;;;;;;;;;;;;;;1.1138035;0.8869289;-0.80916774;;;;;868.6
1087.0;946.8;;;;;;;;;;;;;;;;;5.5543685;-55.585648;-20.611439;;878.2
1087.0;946.8;;;;;;;;;;;;;;1.030549;1.1250343;-0.74092835;;;;;878.2
1087.0;946.8;;;;;;;;;;;;;;;;;-29.423658;-67.777794;12.88644;;878.2
1087.0;946.8;;;;;;;;;;;;;;0.9047517;1.0838343;-1.027192;;;;;878.2
1087.0;946.8;;;;;;;;;;;;;;;;;-55.455944;-49.504837;22.968992;;887.8
1087.0;946.8;;;;;;;;;;;;;;0.86971647;1.1561022;-1.0480056;;;;;887.8
1087.0;946.8;;;;;;;;;;;;;;;;;-75.33113;-14.233069;25.189215;;887.8
1087.0;946.8;;;;;;;;;;;;;;0.8669088;1.0047303;-0.98355055;;;;;887.8
1144.0;999.6;;;;;;;;;;;;;;;;;-74.25535;5.779443;30.533768;;897.4
1144.0;999.6;;;;;;;;;;;;;;0.8647725;0.65810114;-0.79250467;;;;;897.4
1144.0;999.6;;;;;;;;;;;;;;;;;-67.47261;10.464034;34.138767;;897.4
1144.0;999.6;;;;;;;;;;;;;;0.88033694;0.38831753;-0.6695761;;;;;897.4
1144.0;999.6;;;;;;;;;;;;;;;;;-70.8449;11.986145;35.981323;;906.9
1144.0;999.6;;;;;;;;;;;;;;0.8880276;0.2547075;-0.5757012;;;;;906.9
1144.0;999.6;;;;;;;;;;;;;;;;;-79.4473;10.799738;36.01947;;906.9
1144.0;999.6;;;;;;;;;;;;;;0.8799097;0.16864528;-0.5249184;;;;;906.9
1144.0;999.6;;;;;;;;;;;;;;;;;-84.482864;14.801477;41.127506;;916.4
1144.0;999.6;;;;;;;;;;;;;;0.83602405;0.113101594;-0.4115726;;;;;916.4
1144.0;999.6;;;;;;;;;;;;;;;;;-87.34398;15.3202915;53.708763;;916.4
1144.0;999.6;;;;;;;;;;;;;;0.8099002;0.06378368;-0.26325268;;;;;916.4
1144.0;1007.4;;;;;;;;;;;;;;;;;-90.84597;12.722404;74.800865;;926.1
1144.0;1007.4;;;;;;;;;;;;;;0.84035766;0.013367107;-0.15552233;;;;;926.1
1144.0;1007.4;;;;;;;;;;;;;;;;;-92.58934;13.554033;98.25434;;926.1
1144.0;1007.4;;;;;;;;;;;;;;0.9067049;-0.11749626;-0.11316264;;;;;926.1
1144.0;1007.4;;;;;;;;;;;;;;;;;-89.64049;18.009735;117.70226;;935.7
1144.0;1007.4;;;;;;;;;;;;;;0.98764;-0.20575579;-0.037965026;;;;;935.7
1144.0;1007.4;;;;;;;;;;;;;;;;;-94.93164;22.061068;124.87792;;935.7
1144.0;1007.4;;;;;;;;;;;;;;1.051973;-0.3137913;-0.096499525;;;;;935.7
1144.0;1007.4;;;;;;;;;;;;;;;;;-100.61189;33.249916;124.988556;;945.4
1144.0;1007.4;;;;;;;;;;;;;;1.1214331;-0.3831904;-0.09198279;;;;;945.4
1144.0;1007.4;;;;;;;;;;;;;;;;;-105.7123;40.952023;124.988556;;945.4
1144.0;1007.4;;;;;;;;;;;;;;1.1586658;-0.48829615;-0.10223701;;;;;945.4
1204.0;1059.9;;;;;;;;;;;;;;;;;-101.93945;40.723137;124.988556;;955.0
1204.0;1059.9;;;;;;;;;;;;;;1.2017579;-0.6057924;-0.15948974;;;;;955.0
1204.0;1059.9;;;;;;;;;;;;;;;;;-85.50523;34.085358;124.988556;;955.0
1204.0;1059.9;;;;;;;;;;;;;;1.2326427;-0.69124424;-0.21362957;;;;;955.0
1204.0;1059.9;;;;;;;;;;;;;;;;;-69.79583;29.324472;123.03537;;964.6
1204.0;1059.9;;;;;;;;;;;;;;1.2718284;-0.71498764;-0.29474777;;;;;964.6
1204.0;1059.9;;;;;;;;;;;;;;;;;-48.051395;22.30903;102.82067;;964.6
1204.0;1059.9;;;;;;;;;;;;;;1.3222449;-0.7184057;-0.36689353;;;;;964.6
1204.0;1059.9;;;;;;;;;;;;;;;;;-30.560472;20.496994;72.2335;;974.2
1204.0;1059.9;;;;;;;;;;;;;;1.4637898;-0.48213142;-0.40504166;;;;;974.2
1204.0;1059.9;;;;;;;;;;;;;;;;;-17.39555;21.958069;60.544907;;974.2
1204.0;1059.9;;;;;;;;;;;;;;1.5785394;-0.3469344;-0.4445326;;;;;974.2
1204.0;1067.3;;;;;;;;;;;;;;;;;5.0927763;24.16303;53.838467;;983.9
1204.0;1067.3;;;;;;;;;;;;;;1.6384777;-0.2872402;-0.4213996;;;;;983.9
1204.0;1067.3;;;;;;;;;;;;;;;;;29.328289;21.08066;43.76736;;983.9
1204.0;1067.3;;;;;;;;;;;;;;1.6475112;-0.22815637;-0.38758507;;;;;983.9
1204.0;1067.3;;;;;;;;;;;;;;;;;46.784874;10.963775;31.323437;;993.6
1204.0;1067.3;;;;;;;;;;;;;;1.563036;-0.13293862;-0.39033175;;;;;993.6
1204.0;1067.3;;;;;;;;;;;;;;;;;54.548023;1.8768883;19.83703;;993.6
1204.0;1067.3;;;;;;;;;;;;;;1.3946959;-0.02496414;-0.39020967;;;;;993.6
1204.0;1067.3;;;;;;;;;;;;;;;;;55.307167;-2.8687398;10.078737;;1003.2
1204.0;1067.3;;;;;;;;;;;;;;1.2489395;0.10669271;-0.3894162;;;;;1003.2
1204.0;1067.3;;;;;;;;;;;;;;;;;54.265728;-2.8801844;8.472701;;1003.2
1204.0;1067.3;;;;;;;;;;;;;;1.1274759;0.1633961;-0.3925901;;;;;1003.2
1207.0;1120.3;;;;;;;;;;;;;;;;;54.193245;-0.90029603;10.368664;;1012.9
1207.0;1120.3;;;;;;;;;;;;;;0.9996033;0.1445967;-0.38526568;;;;;1012.9
1207.0;1120.3;;;;;;;;;;;;;;;;;54.876095;0.35477766;11.249886;;1012.9
1207.0;1120.3;;;;;;;;;;;;;;0.8872341;0.06366161;-0.38990447;;;;;1012.9
1207.0;1120.3;;;;;;;;;;;;;;;;;56.756798;1.7281106;10.956145;;1022.4
1207.0;1120.3;;;;;;;;;;;;;;0.7976928;-0.041016877;-0.36860254;;;;;1022.4
1207.0;1120.3;;;;;;;;;;;;;;;;;57.34428;-0.095370345;10.406812;;1022.4
1207.0;1120.3;;;;;;;;;;;;;;0.7180395;-0.12042604;-0.37598804;;;;;1022.4
1207.0;1120.3;;;;;;;;;;;;;;;;;57.752464;-4.463332;11.005738;;1032.1
1207.0;1120.3;;;;;;;;;;;;;;0.64296395;-0.1727958;-0.40028077;;;;;1032.1
1207.0;1120.3;;;;;;;;;;;;;;;;;59.82391;-11.669515;14.606922;;1032.1
1207.0;1120.3;;;;;;;;;;;;;;0.5922422;-0.21277505;-0.3977172;;;;;1032.1
1208.0;1121.4;;;;;;;;;;;;;;;;;59.224983;-19.234291;19.791252;;1041.7
1208.0;1121.4;;;;;;;;;;;;;;0.5614185;-0.26026186;-0.38258004;;;;;1041.7
1208.0;1121.4;;;;;;;;;;;;;;;;;54.19706;-21.885588;24.681845;;1041.7
1208.0;1121.4;;;;;;;;;;;;;;0.5346843;-0.3091525;-0.3617664;;;;;1041.7
1208.0;1121.4;;;;;;;;;;;;;;;;;44.248024;-16.331219;27.04703;;1051.4
1208.0;1121.4;;;;;;;;;;;;;;0.53004545;-0.32886747;-0.29352704;;;;;1051.4
1208.0;1121.4;;;;;;;;;;;;;;;;;32.048252;-4.333628;32.99814;;1051.4
1208.0;1121.4;;;;;;;;;;;;;;0.55616933;-0.35102388;-0.18988617;;;;;1051.4
1208.0;1121.4;;;;;;;;;;;;;;;;;28.87814;6.550035;41.169468;;1061.0
1208.0;1121.4;;;;;;;;;;;;;;0.5987732;-0.42542803;-0.08551286;;;;;1061.0
1208.0;1121.4;;;;;;;;;;;;;;;;;43.176064;11.181218;43.248543;;1061.0
1208.0;1121.4;;;;;;;;;;;;;;0.64571065;-0.46510208;0.013489181;;;;;1061.0
1208.0;1129.0;;;;0.0;0.0;0.0;;;;;;;;;;;;;;;
1208.0;1129.0;;;;-0.18389894;0.27367404;0.088500984;;;;;;;;;;;;;;;
1208.0;1129.0;;;;-0.5208283;0.79906857;0.23200229;;;;;;;;;;;;;;;
1208.0;1129.0;;;;-0.5259095;0.824196;0.23070148;;;;;;;;;;;;;;;
1208.0;1129.0;;;;-0.5202332;0.8356172;0.23212817;;;;;;;;;;;;;;;
1208.0;1138.9;;;;-0.51417166;0.8488389;0.23385623;;;;;;;;;;;;;;;
1208.0;1138.9;;;;-0.50905234;0.86465085;0.23497775;;;;;;;;;;;;;;;
1208.0;1138.9;;;;-0.50378424;0.88137066;0.23473361;;;;;;;;;;;;;;;
1208.0;1138.9;;;;-0.49998862;0.89911664;0.23408511;;;;;;;;;;;;;;;
1208.0;1138.9;;;;-0.49630362;0.9177476;0.23245242;;;;;;;;;;;;;;;
1264.0;1140.7;57485;57442;11392;;;;;;;;;;;;;;;;;;
1264.0;1148.8;;;;-0.49371344;0.93633664;0.23004153;;;;;;;;;;;;;;;
1264.0;1148.8;;;;-0.49093634;0.9546815;0.22792438;;;;;;;;;;;;;;;
1264.0;1148.8;;;;-0.4896012;0.97207654;0.22519687;;;;;;;;;;;;;;;
1264.0;1148.8;;;;-0.4880486;0.98889935;0.22210315;;;;;;;;;;;;;;;
1264.0;1148.8;;;;-0.48644263;1.0053254;0.2192879;;;;;;;;;;;;;;;
1264.0;1158.8;;;;-0.48482138;1.0212861;0.21519855;;;;;;;;;;;;;;;
1264.0;1158.8;;;;-0.4839478;1.0362283;0.21211246;;;;;;;;;;;;;;;
1264.0;1158.8;;;;-0.4825669;1.0491296;0.2084885;;;;;;;;;;;;;;;
1264.0;1158.8;;;;-0.48223883;1.0615922;0.20518115;;;;;;;;;;;;;;;
1264.0;1158.8;;;;-0.48231894;1.0741388;0.2023659;;;;;;;;;;;;;;;
1264.0;1160.6;73900;73850;11385;;;;;;;;;;;;;;;;;;
1264.0;1166.7;;;;;;;;;;;;;0;;;;;;;;
1264.0;1166.7;;;;;;;;;;;;;0;;;;;;;;
1264.0;1166.7;;;;;;;;;;;;;-1;;;;;;;;
1264.0;1166.7;;;;;;;;;;;;;-2;;;;;;;;
1264.0;1166.7;;;;;;;;;;;;;-4;;;;;;;;
1264.0;1168.9;;;;-0.48286825;1.086361;0.20029834;;;;;;;;;;;;;;;
1264.0;1168.9;;;;-0.48436362;1.098488;0.1980553;;;;;;;;;;;;;;;
1264.0;1168.9;;;;-0.48646933;1.1115304;0.19633105;;;;;;;;;;;;;;;
1264.0;1168.9;;;;-0.48865515;1.1248285;0.19352344;;;;;;;;;;;;;;;
1264.0;1168.9;;;;-0.4900971;1.138302;0.19094089;;;;;;;;;;;;;;;
1265.0;1179.0;;;;-0.49050146;1.1523973;0.18701936;;;;;;;;;;;;;;;
1265.0;1179.0;;;;-0.48948675;1.1673738;0.18221284;;;;;;;;;;;;;;;
1265.0;1179.0;;;;-0.48781973;1.1827928;0.17704011;;;;;;;;;;;;;;;
1265.0;1179.0;;;;-0.48614508;1.1982576;0.1714821;;;;;;;;;;;;;;;
1265.0;1179.0;;;;-0.48380667;1.2138788;0.16592409;;;;;;;;;;;;;;;
1265.0;1180.2;;;;;;;;;;;;;;;;;63.98587;8.80459;40.444653;;1070.7
1265.0;1180.2;;;;;;;;;;;;;;0.6922208;-0.49391156;-0.0073244423;;;;;1070.7
1265.0;1180.2;;;;;;;;;;;;;;;;;85.12376;4.0055547;36.24073;;1070.7
1265.0;1180.2;;;;;;;;;;;;;;0.7298807;-0.484756;-0.10791345;;;;;1070.7
1265.0;1180.2;;;;;;;;;;;;;;;;;102.41248;-0.8087405;33.82977;;1080.2
1265.0;1180.2;;;;;;;;;;;;;;0.78255564;-0.4491104;-0.22461623;;;;;1080.2
1265.0;1180.2;;;;;;;;;;;;;;;;;113.284706;-5.203406;34.72243;;1080.2
1265.0;1180.2;;;;;;;;;;;;;;0.8338267;-0.42744225;-0.31824702;;;;;1080.2
1265.0;1180.2;;;;;;;;;;;;;;;;;115.24552;-9.601887;35.05432;;1089.8
1265.0;1180.2;;;;;;;;;;;;;;0.89205605;-0.36646625;-0.392407;;;;;1089.8
1265.0;1180.2;;;;;;;;;;;;;;;;;107.03223;-14.931181;35.184025;;1089.8
1265.0;1180.2;;;;;;;;;;;;;;0.911771;-0.28315073;-0.4604633;;;;;1089.8
1266.0;1181.1;;;;;;;;;;;;;;;;;90.91845;-23.247475;30.117952;;1099.5
1266.0;1181.1;;;;;;;;;;;;;;1.070162;-0.12616351;-0.5631275;;;;;1099.5
1266.0;1181.1;;;;;;;;;;;;;;;;;69.41816;-12.710959;21.599476;;1099.5
1266.0;1181.1;;;;;;;;;;;;;;1.1922361;-0.011169774;-0.6256294;;;;;1099.5
1266.0;1181.1;;;;;;;;;;;;;;;;;51.126133;5.5772576;16.49907;;1109.0
1266.0;1181.1;;;;;;;;;;;;;;1.2330089;0.136845;-0.573809;;;;;1109.0
1266.0;1181.1;;;;;;;;;;;;;;;;;34.11206;16.266367;17.162846;;1109.0
1266.0;1181.1;;;;;;;;;;;;;;1.1930906;0.26477858;-0.52833647;;;;;1109.0
1266.0;1181.1;;;;;;;;;;;;;;;;;22.164066;22.331919;21.10355;;1118.7
1266.0;1181.1;;;;;;;;;;;;;;1.0840786;0.34913176;-0.50111395;;;;;1118.7
1266.0;1181.1;;;;;;;;;;;;;;;;;15.533921;28.813288;26.753288;;1118.7
1266.0;1181.1;;;;;;;;;;;;;;0.9684744;0.40278327;-0.4486831;;;;;1118.7
1266.0;1180.7;90276;90231;11386;;;;;;;;;;;;;;;;;;
1266.0;1188.8;;;;-0.48178488;1.2297975;0.16058351;;;;;;;;;;;;;;;
1266.0;1188.8;;;;-0.47861487;1.2446634;0.15544511;;;;;;;;;;;;;;;
1266.0;1188.8;;;;-0.47629172;1.2592813;0.14980699;;;;;;;;;;;;;;;
1266.0;1188.8;;;;-0.4740792;1.2729303;0.14554979;;;;;;;;;;;;;;;
1266.0;1188.8;;;;-0.4736939;1.2864915;0.14263918;;;;;;;;;;;;;;;
1266.0;1198.7;;;;-0.47381598;1.299328;0.13956071;;;;;;;;;;;;;;;
1266.0;1198.7;;;;-0.47526175;1.3118135;0.13717271;;;;;;;;;;;;;;;
1266.0;1198.7;;;;-0.4769135;1.3224946;0.1350136;;;;;;;;;;;;;;;
1266.0;1198.7;;;;-0.4808007;1.3333284;0.13253023;;;;;;;;;;;;;;;
1266.0;1198.7;;;;-0.48549277;1.3426057;0.12966539;;;;;;;;;;;;;;;
1324.0;1200.6;106609;106695;11395;;;;;;;;;;;;;;;;;;
1324.0;1206.7;;;;;;;;;;;;;-5;;;;;;;;
1324.0;1206.7;;;;;;;;;;;;;-7;;;;;;;;
1324.0;1206.7;;;;;;;;;;;;;-12;;;;;;;;
1324.0;1206.7;;;;;;;;;;;;;-9;;;;;;;;
1324.0;1206.7;;;;;;;;;;;;;-12;;;;;;;;
1324.0;1208.6;;;;-0.4890061;1.351906;0.12679674;;;;;;;;;;;;;;;
1324.0;1208.6;;;;-0.49287802;1.3614846;0.12352373;;;;;;;;;;;;;;;
1324.0;1208.6;;;;-0.4967118;1.3700677;0.1186104;;;;;;;;;;;;;;;
1324.0;1208.6;;;;-0.49923712;1.377556;0.113101974;;;;;;;;;;;;;;;
1324.0;1208.6;;;;-0.50000006;1.3851625;0.110080734;;;;;;;;;;;;;;;
1324.0;1218.6;;;;-0.50025946;1.3922464;0.10738374;;;;;;;;;;;;;;;
1324.0;1218.6;;;;-0.499466;1.3988382;0.10462953;;;;;;;;;;;;;;;
1324.0;1218.6;;;;-0.49890524;1.4046975;0.10226442;;;;;;;;;;;;;;;
1324.0;1218.6;;;;-0.4976235;1.4114839;0.10087587;;;;;;;;;;;;;;;
1324.0;1218.6;;;;-0.49503332;1.4180413;0.098793045;;;;;;;;;;;;;;;
1324.0;1220.5;123081;123037;11385;;;;;;;;;;;;;;;;;;
1324.0;1228.7;;;;-0.49226385;1.4241487;0.0981331;;;;;;;;;;;;;;;
1324.0;1228.7;;;;-0.48940665;1.430359;0.096340194;;;;;;;;;;;;;;;
1324.0;1228.7;;;;-0.4854012;1.4358865;0.094390884;;;;;;;;;;;;;;;
1324.0;1228.7;;;;-0.47993857;1.4418069;0.09022523;;;;;;;;;;;;;;;
1324.0;1228.7;;;;-0.47542578;1.4478303;0.08625413;;;;;;;;;;;;;;;
1326.0;1238.8;;;;-0.47050864;1.4534494;0.08222199;;;;;;;;;;;;;;;
1326.0;1238.8;;;;-0.46638876;1.4572603;0.07712937;;;;;;;;;;;;;;;
1326.0;1238.8;;;;-0.4617272;1.4592897;0.07082368;;;;;;;;;;;;;;;
1326.0;1238.8;;;;-0.45726782;1.4610711;0.064414985;;;;;;;;;;;;;;;
1326.0;1238.8;;;;-0.4539376;1.4625512;0.05766297;;;;;;;;;;;;;;;
1326.0;1240.3;;;;;;;;;;;;;;;;;7.698294;33.112583;34.7911;;1128.3
1326.0;1240.3;;;;;;;;;;;;;;0.86538285;0.3945433;-0.3927732;;;;;1128.3
1326.0;1240.3;;;;;;;;;;;;;;;;;-2.6131475;32.876064;40.40269;;1128.3
1326.0;1240.3;;;;;;;;;;;;;;0.7988525;0.35407576;-0.34534746;;;;;1128.3
1326.0;1240.3;;;;;;;;;;;;;;;;;-12.493514;29.148993;41.96295;;1137.9
1326.0;1240.3;;;;;;;;;;;;;;0.76400036;0.31519517;-0.31592762;;;;;1137.9
1326.0;1240.3;;;;;;;;;;;;;;;;;-19.207588;23.78155;43.321026;;1137.9
1326.0;1240.3;;;;;;;;;;;;;;0.73085725;0.23010956;-0.29389325;;;;;1137.9
1326.0;1240.3;;;;;;;;;;;;;;;;;-22.881252;17.349771;43.4431;;1147.5
1326.0;1240.3;;;;;;;;;;;;;;0.7398297;0.16052736;-0.28962067;;;;;1147.5
1326.0;1240.3;;;;;;;;;;;;;;;;;-23.445845;12.604144;43.931396;;1147.5
1326.0;1240.3;;;;;;;;;;;;;;0.7575915;-0.0028077029;-0.296762;;;;;1147.5
1327.0;1241.1;;;;;;;;;;;;;;;;;-19.28007;12.001404;44.71343;;1157.2
1327.0;1241.1;;;;;;;;;;;;;;0.78041935;-0.15625477;-0.2636189;;;;;1157.2
1327.0;1241.1;;;;;;;;;;;;;;;;;-12.359997;11.108737;42.790768;;1157.2
1327.0;1241.1;;;;;;;;;;;;;;0.8031251;-0.2360912;-0.2491531;;;;;1157.2
1327.0;1241.1;;;;;;;;;;;;;;;;;-5.3178506;10.044404;42.275764;;1166.8
1327.0;1241.1;;;;;;;;;;;;;;0.8183233;-0.32355723;-0.27240822;;;;;1166.8
1327.0;1241.1;;;;;;;;;;;;;;;;;0.9193701;10.567034;43.59569;;1166.8
1327.0;1241.1;;;;;;;;;;;;;;0.8357799;-0.3958861;-0.30524614;;;;;1166.8
1327.0;1241.1;;;;;;;;;;;;;;;;;5.3827024;11.967071;43.63384;;1176.4
1327.0;1241.1;;;;;;;;;;;;;;0.82827234;-0.45912045;-0.32642597;;;;;1176.4
1327.0;1241.1;;;;;;;;;;;;;;;;;10.006256;13.477737;44.289986;;1176.4
1327.0;1241.1;;;;;;;;;;;;;;0.82106996;-0.52272105;-0.33448288;;;;;1176.4
1327.0;1240.8;139374;139398;11388;;;;;;;;;;;;;;;;;;
1327.0;1246.8;;;;;;;;;;;;;-14;;;;;;;;
1327.0;1246.8;;;;;;;;;;;;;-7;;;;;;;;
1327.0;1246.8;;;;;;;;;;;;;-20;;;;;;;;
1327.0;1246.8;;;;;;;;;;;;;-9;;;;;;;;
1327.0;1246.8;;;;;;;;;;;;;22;;;;;;;;
1327.0;1248.8;;;;-0.45020682;1.4623796;0.052639015;;;;;;;;;;;;;;;
1327.0;1248.8;;;;-0.44733053;1.4613954;0.047676094;;;;;;;;;;;;;;;
1327.0;1248.8;;;;-0.44326407;1.4581491;0.042289738;;;;;;;;;;;;;;;
1327.0;1248.8;;;;-0.4399758;1.4553491;0.036602024;;;;;;;;;;;;;;;
1327.0;1248.8;;;;-0.43653494;1.4514352;0.03149033;;;;;;;;;;;;;;;
1386.0;1258.7;;;;-0.43256766;1.4464761;0.027328495;;;;;;;;;;;;;;;
1386.0;1258.7;;;;-0.4277497;1.441208;0.02340317;;;;;;;;;;;;;;;
1386.0;1258.7;;;;-0.42404944;1.4346925;0.019428255;;;;;;;;;;;;;;;
1386.0;1258.7;;;;-0.42060477;1.4275018;0.015529634;;;;;;;;;;;;;;;
1386.0;1258.7;;;;-0.41629416;1.419613;0.011859896;;;;;;;;;;;;;;;
1386.0;1260.8;155818;155844;11377;;;;;;;;;;;;;;;;;;
1386.0;1268.8;;;;-0.4123879;1.411255;0.0080070505;;;;;;;;;;;;;;;
1386.0;1268.8;;;;-0.40881354;1.403164;0.0046119695;;;;;;;;;;;;;;;
1386.0;1268.8;;;;-0.40551;1.3946382;0.0011138917;;;;;;;;;;;;;;;
1386.0;1268.8;;;;-0.40194708;1.3854867;-0.0021667483;;;;;;;;;;;;;;;
1386.0;1268.8;;;;-0.39883047;1.3756562;-0.0043487553;;;;;;;;;;;;;;;
1386.0;1278.8;;;;-0.3955155;1.365677;-0.0070610056;;;;;;;;;;;;;;;
1386.0;1278.8;;;;-0.39293295;1.3558313;-0.008609773;;;;;;;;;;;;;;;
1386.0;1278.8;;;;-0.39020163;1.3455125;-0.011089326;;;;;;;;;;;;;;;
1386.0;1278.8;;;;-0.3879624;1.3348924;-0.013408663;;;;;;;;;;;;;;;
1386.0;1278.8;;;;-0.3858376;1.3234025;-0.014846804;;;;;;;;;;;;;;;
1386.0;1280.9;172135;172167;11391;;;;;;;;;;;;;;;;;;
1386.0;1287.0;;;;;;;;;;;;;-94;;;;;;;;
1386.0;1287.0;;;;;;;;;;;;;-142;;;;;;;;
1386.0;1287.0;;;;;;;;;;;;;142;;;;;;;;
1386.0;1287.0;;;;;;;;;;;;;230;;;;;;;;
1386.0;1287.0;;;;;;;;;;;;;-653;;;;;;;;
1390.0;1288.9;;;;-0.3835259;1.3114053;-0.018573763;;;;;;;;;;;;;;;
1390.0;1288.9;;;;-0.3809815;1.2988435;-0.021236422;;;;;;;;;;;;;;;
1390.0;1288.9;;;;-0.378357;1.2870675;-0.022548677;;;;;;;;;;;;;;;
1390.0;1288.9;;;;-0.37645727;1.2757493;-0.02398682;;;;;;;;;;;;;;;
1390.0;1288.9;;;;-0.3751908;1.264805;-0.024662022;;;;;;;;;;;;;;;
1390.0;1299.0;;;;-0.374733;1.2542268;-0.023796085;;;;;;;;;;;;;;;
1390.0;1299.0;;;;-0.3742676;1.2441407;-0.022556307;;;;;;;;;;;;;;;
1390.0;1299.0;;;;-0.37422183;1.2346574;-0.019775392;;;;;;;;;;;;;;;
1390.0;1299.0;;;;-0.3754235;1.2259218;-0.015983583;;;;;;;;;;;;;;;
1390.0;1299.0;;;;-0.3773461;1.2184945;-0.011676789;;;;;;;;;;;;;;;
1390.0;1301.1;;;;;;;;;;;;;;;;;14.606922;14.545885;45.71291;;1185.9
1390.0;1301.1;;;;;;;;;;;;;;0.79641104;-0.58589435;-0.33448288;;;;;1185.9
1390.0;1301.1;;;;;;;;;;;;;;;;;18.616291;13.6227;40.303505;;1185.9
1390.0;1301.1;;;;;;;;;;;;;;0.8082522;-0.5670949;-0.35126805;;;;;1185.9
1390.0;1301.1;;;;;;;;;;;;;;;;;22.732473;13.492996;35.206913;;1195.6
1390.0;1301.1;;;;;;;;;;;;;;0.81460005;-0.4683981;-0.370983;;;;;1195.6
1390.0;1301.1;;;;;;;;;;;;;;;;;26.566362;14.564959;33.2461;;1195.6
1390.0;1301.1;;;;;;;;;;;;;;0.8071535;-0.42048404;-0.3770867;;;;;1195.6
1390.0;1301.1;;;;;;;;;;;;;;;;;30.209509;13.058107;31.540878;;1205.3
1390.0;1301.1;;;;;;;;;;;;;;0.80361336;-0.3655507;-0.38624227;;;;;1205.3
1390.0;1301.1;;;;;;;;;;;;;;;;;32.387768;11.619923;29.183325;;1205.3
1390.0;1301.1;;;;;;;;;;;;;;0.8056276;-0.33661917;-0.4024781;;;;;1205.3
1391.0;1301.8;;;;;;;;;;;;;;;;;34.600357;11.410108;27.813807;;1214.9
1391.0;1301.8;;;;;;;;;;;;;;0.7909787;-0.31043428;-0.39118627;;;;;1214.9
1391.0;1301.8;;;;;;;;;;;;;;;;;35.237434;8.842738;24.39192;;1214.9
1391.0;1301.8;;;;;;;;;;;;;;0.79873043;-0.219306;-0.39649647;;;;;1214.9
1391.0;1301.8;;;;;;;;;;;;;;;;;34.302803;6.611072;22.400585;;1224.6
1391.0;1301.8;;;;;;;;;;;;;;0.81411177;-0.1394696;-0.41370893;;;;;1224.6
1391.0;1301.8;;;;;;;;;;;;;;;;;31.590473;6.6835537;21.897032;;1224.6
1391.0;1301.8;;;;;;;;;;;;;;0.81191444;-0.11023286;-0.41370893;;;;;1224.6
1391.0;1301.8;;;;;;;;;;;;;;;;;28.527176;7.8470716;22.053438;;1234.1
1391.0;1301.8;;;;;;;;;;;;;;0.821131;-0.10046694;-0.40186775;;;;;1234.1
1391.0;1301.8;;;;;;;;;;;;;;;;;26.058992;9.395886;21.717735;;1234.1
1391.0;1301.8;;;;;;;;;;;;;;0.8407849;-0.08319346;-0.39130834;;;;;1234.1
1391.0;1301.1;188628;188535;11375;;;;;;;;;;;;;;;;;;
1391.0;1309.0;;;;-0.37907034;1.2119294;-0.0080719;;;;;;;;;;;;;;;
1391.0;1309.0;;;;-0.37975317;1.2066728;-0.0051155095;;;;;;;;;;;;;;;
1391.0;1309.0;;;;-0.37973028;1.2024957;-0.0032157903;;;;;;;;;;;;;;;
1391.0;1309.0;;;;-0.37901312;1.1990854;-0.0021896365;;;;;;;;;;;;;;;
1391.0;1309.0;;;;-0.37824637;1.1963426;-0.0019340517;;;;;;;;;;;;;;;
1391.0;1319.0;;;;-0.37717444;1.1937715;-0.0023880007;;;;;;;;;;;;;;;
1391.0;1319.0;;;;-0.37588507;1.1903039;-0.0035820012;;;;;;;;;;;;;;;
1391.0;1319.0;;;;-0.37477115;1.1867524;-0.0052642827;;;;;;;;;;;;;;;
1391.0;1319.0;;;;-0.37363055;1.1823312;-0.0072135935;;;;;;;;;;;;;;;
1391.0;1319.0;;;;-0.37284473;1.1766778;-0.009593965;;;;;;;;;;;;;;;
1442.0;1321.1;204940;204858;11367;;;;;;;;;;;;;;;;;;
1442.0;1327.2;;;;;;;;;;;;;-2434;;;;;;;;
1442.0;1327.2;;;;;;;;;;;;;-4017;;;;;;;;
1442.0;1327.2;;;;;;;;;;;;;-4572;;;;;;;;
1442.0;1327.2;;;;;;;;;;;;;-4437;;;;;;;;
1442.0;1327.2;;;;;;;;;;;;;-4433;;;;;;;;
1442.0;1329.0;;;;-0.37206653;1.1711236;-0.012260439;;;;;;;;;;;;;;;
1442.0;1329.0;;;;-0.37100604;1.164055;-0.015888216;;;;;;;;;;;;;;;
1442.0;1329.0;;;;-0.36911777;1.15683;-0.01879883;;;;;;;;;;;;;;;
1442.0;1329.0;;;;-0.36726;1.1489183;-0.021839144;;;;;;;;;;;;;;;
1442.0;1329.0;;;;-0.3652878;1.140194;-0.024333958;;;;;;;;;;;;;;;
1442.0;1339.0;;;;-0.36223605;1.1314164;-0.02669907;;;;;;;;;;;;;;;
1442.0;1339.0;;;;-0.35929492;1.1217881;-0.029258732;;;;;;;;;;;;;;;
1442.0;1339.0;;;;-0.35639194;1.1117936;-0.03192902;;;;;;;;;;;;;;;
1442.0;1339.0;;;;-0.35266498;1.1018182;-0.03390122;;;;;;;;;;;;;;;
1442.0;1339.0;;;;-0.34925082;1.0921403;-0.0366478;;;;;;;;;;;;;;;
1442.0;1341.2;221284;221385;11361;;;;;;;;;;;;;;;;;;
1442.0;1349.1;;;;-0.3458176;1.0817186;-0.03938294;;;;;;;;;;;;;;;
1442.0;1349.1;;;;-0.34305194;1.0718194;-0.041465763;;;;;;;;;;;;;;;
1442.0;1349.1;;;;-0.3396378;1.0615312;-0.04384995;;;;;;;;;;;;;;;
1442.0;1349.1;;;;-0.33746722;1.0517236;-0.046665195;;;;;;;;;;;;;;;
1442.0;1349.1;;;;-0.3354874;1.042183;-0.049278267;;;;;;;;;;;;;;;
1448.0;1359.2;;;;-0.3336754;1.0329896;-0.051471718;;;;;;;;;;;;;;;
1448.0;1359.2;;;;-0.33217624;1.0237848;-0.053646095;;;;;;;;;;;;;;;
1448.0;1359.2;;;;-0.33055118;1.0139886;-0.05649186;;;;;;;;;;;;;;;
1448.0;1359.2;;;;-0.32935718;1.0043069;-0.058914192;;;;;;;;;;;;;;;
1448.0;1359.2;;;;-0.3286896;0.9953462;-0.060676582;;;;;;;;;;;;;;;
1448.0;1361.5;237714;237776;11338;;;;;;;;;;;;;;;;;;
1448.0;1367.6;;;;;;;;;;;;;-4724;;;;;;;;
1448.0;1367.6;;;;;;;;;;;;;-4905;;;;;;;;
1448.0;1367.6;;;;;;;;;;;;;-5023;;;;;;;;
1448.0;1367.6;;;;;;;;;;;;;-5356;;;;;;;;
1448.0;1367.6;;;;;;;;;;;;;-5780;;;;;;;;
1448.0;1368.4;;;;;;;;;;;;;;;;;23.899809;11.436811;21.622364;;1243.8
1448.0;1368.4;;;;;;;;;;;;;;0.8539079;-0.059450056;-0.36909086;;;;;1243.8
1448.0;1368.4;;;;;;;;;;;;;;;;;21.137882;13.183996;22.11829;;1243.8
1448.0;1368.4;;;;;;;;;;;;;;0.8564715;-0.035584584;-0.33655813;;;;;1243.8
1448.0;1368.4;;;;;;;;;;;;;;;;;18.715477;13.679922;24.056215;;1253.4
1448.0;1368.4;;;;;;;;;;;;;;0.8525651;-0.07629628;-0.30573443;;;;;1253.4
1448.0;1368.4;;;;;;;;;;;;;;;;;17.647327;13.286996;25.66225;;1253.4
1448.0;1368.4;;;;;;;;;;;;;;0.8612934;-0.061708428;-0.26734215;;;;;1253.4
1448.0;1368.4;;;;;;;;;;;;;;;;;15.65218;12.138738;26.890623;;1263.1
1448.0;1368.4;;;;;;;;;;;;;;0.88070315;-0.066652425;-0.2509232;;;;;1263.1
1448.0;1368.4;;;;;;;;;;;;;;;;;13.576922;12.134923;28.599659;;1263.1
1448.0;1368.4;;;;;;;;;;;;;;0.887112;-0.09485153;-0.23767816;;;;;1263.1
1502.0;1369.3;;;;;;;;;;;;;;;;;11.295663;12.565996;29.4084;;1272.7
1502.0;1369.3;;;;;;;;;;;;;;0.8955352;-0.10113834;-0.22504349;;;;;1272.7
1502.0;1369.3;;;;;;;;;;;;;;;;;9.472182;12.726218;30.549028;;1272.7
1502.0;1369.3;;;;;;;;;;;;;;0.90176094;-0.118533894;-0.22449416;;;;;1272.7
1502.0;1369.3;;;;;;;;;;;;;;;;;7.4083686;12.318034;31.544693;;1282.3
1502.0;1369.3;;;;;;;;;;;;;;0.9000519;-0.15063937;-0.23584704;;;;;1282.3
1502.0;1369.3;;;;;;;;;;;;;;;;;5.6840725;12.161627;32.24662;;1282.3
1502.0;1369.3;;;;;;;;;;;;;;0.89388716;-0.17224647;-0.24475844;;;;;1282.3
1502.0;1369.3;;;;;;;;;;;;;;;;;3.910184;12.394329;32.921844;;1291.9
1502.0;1369.3;;;;;;;;;;;;;;0.887051;-0.19098483;-0.25598925;;;;;1291.9
1502.0;1369.3;;;;;;;;;;;;;;;;;2.7390363;12.833034;33.60851;;1291.9
1502.0;1369.3;;;;;;;;;;;;;;0.8842433;-0.21173742;-0.26673177;;;;;1291.9
1502.0;1369.1;;;;-0.32820132;0.985798;-0.06305314;;;;;;;;;;;;;;;
1502.0;1369.1;;;;-0.32784656;0.97692883;-0.06399537;;;;;;;;;;;;;;;
1502.0;1369.1;;;;-0.32820132;0.96800244;-0.06430436;;;;;;;;;;;;;;;
1502.0;1369.1;;;;-0.32867053;0.9597665;-0.06448365;;;;;;;;;;;;;;;
1502.0;1369.1;;;;-0.32913974;0.9514619;-0.06439591;;;;;;;;;;;;;;;
1502.0;1379.1;;;;-0.32988742;0.94400036;-0.0633545;;;;;;;;;;;;;;;
1502.0;1379.1;;;;-0.3304291;0.93701565;-0.06388856;;;;;;;;;;;;;;;
1502.0;1379.1;;;;-0.33018115;0.9305078;-0.06350709;;;;;;;;;;;;;;;
1502.0;1379.1;;;;-0.32964328;0.92507946;-0.06381226;;;;;;;;;;;;;;;
1502.0;1379.1;;;;-0.32875827;0.9197885;-0.06478501;;;;;;;;;;;;;;;
1502.0;1381.4;254105;254120;11332;;;;;;;;;;;;;;;;;;
1504.0;1389.0;;;;-0.32793048;0.91466534;-0.066112526;;;;;;;;;;;;;;;
1504.0;1389.0;;;;-0.3264008;0.91012204;-0.067703255;;;;;;;;;;;;;;;
1504.0;1389.0;;;;-0.32555774;0.90545285;-0.070148475;;;;;;;;;;;;;;;
1504.0;1389.0;;;;-0.32493976;0.90057385;-0.073760994;;;;;;;;;;;;;;;
1504.0;1389.0;;;;-0.32460406;0.8958932;-0.077888496;;;;;;;;;;;;;;;
1504.0;1399.1;;;;-0.3254929;0.8910295;-0.081810005;;;;;;;;;;;;;;;
1504.0;1399.1;;;;-0.32755283;0.8854791;-0.08562089;;;;;;;;;;;;;;;
1504.0;1399.1;;;;-0.3314362;0.880787;-0.08943177;;;;;;;;;;;;;;;
1504.0;1399.1;;;;-0.3358498;0.87636197;-0.09336854;;;;;;;;;;;;;;;
1504.0;1399.1;;;;-0.34236148;0.87267697;-0.09788515;;;;;;;;;;;;;;;
1504.0;1401.5;262143;262143;11320;;;;;;;;;;;;;;;;;;
1504.0;1407.6;;;;;;;;;;;;;-6080;;;;;;;;
1504.0;1407.6;;;;;;;;;;;;;-6238;;;;;;;;
1504.0;1407.6;;;;;;;;;;;;;-6445;;;;;;;;
1504.0;1407.6;;;;;;;;;;;;;-6791;;;;;;;;
1504.0;1407.6;;;;;;;;;;;;;-6985;;;;;;;;
1504.0;1409.3;;;;-0.3499489;0.8685113;-0.10231401;;;;;;;;;;;;;;;
1504.0;1409.3;;;;-0.35762408;0.865059;-0.10727693;;;;;;;;;;;;;;;
1504.0;1409.3;;;;-0.36687472;0.8620378;-0.11342241;;;;;;;;;;;;;;;
1504.0;1409.3;;;;-0.37605292;0.85860455;-0.11852266;;;;;;;;;;;;;;;
1504.0;1409.3;;;;-0.38520437;0.85522854;-0.12203218;;;;;;;;;;;;;;;
1508.0;1419.4;;;;-0.3952027;0.85234463;-0.12725069;;;;;;;;;;;;;;;
1508.0;1419.4;;;;-0.40655905;0.8487779;-0.13308717;;;;;;;;;;;;;;;
1508.0;1419.4;;;;-0.41788107;0.8452569;-0.13819887;;;;;;;;;;;;;;;
1508.0;1419.4;;;;-0.42880636;0.8417283;-0.14335634;;;;;;;;;;;;;;;
1508.0;1419.4;;;;-0.4384423;0.83732235;-0.1478348;;;;;;;;;;;;;;;
1508.0;1421.6;;;;;;;;;;;;;;;;;2.395703;13.431959;33.95947;;1301.6
1508.0;1421.6;;;;;;;;;;;;;;0.877163;-0.23322245;-0.26953948;;;;;1301.6
1508.0;1421.6;;;;;;;;;;;;;;;;;2.3880734;13.6379595;34.085358;;1301.6
1508.0;1421.6;;;;;;;;;;;;;;0.87313455;-0.25122836;-0.26819667;;;;;1301.6
1508.0;1421.6;;;;;;;;;;;;;;;;;2.7542956;14.01944;34.51262;;1311.2
1508.0;1421.6;;;;;;;;;;;;;;0.86965543;-0.26996672;-0.2692343;;;;;1311.2
1508.0;1421.6;;;;;;;;;;;;;;;;;3.360851;14.500107;35.19547;;1311.2
1508.0;1421.6;;;;;;;;;;;;;;0.87185276;-0.28437147;-0.27381206;;;;;1311.2
1508.0;1421.6;;;;;;;;;;;;;;;;;5.218665;14.801477;35.767693;;1320.6
1508.0;1421.6;;;;;;;;;;;;;;0.8636738;-0.29328287;-0.27546006;;;;;1320.6
1508.0;1421.6;;;;;;;;;;;;;;;;;7.0116277;14.488663;36.34373;;1320.6
1508.0;1421.6;;;;;;;;;;;;;;0.8544572;-0.2956023;-0.27704704;;;;;1320.6
1510.0;1422.3;;;;;;;;;;;;;;;;;8.7397375;13.71807;37.15247;;1330.2
1510.0;1422.3;;;;;;;;;;;;;;0.85085607;-0.30805382;-0.2837611;;;;;1330.2
1510.0;1422.3;;;;;;;;;;;;;;;;;10.399182;13.298441;37.862026;;1330.2
1510.0;1422.3;;;;;;;;;;;;;;0.85042876;-0.31501207;-0.2882168;;;;;1330.2
1510.0;1422.3;;;;;;;;;;;;;;;;;12.073886;13.752403;38.1634;;1339.9
1510.0;1422.3;;;;;;;;;;;;;;0.8523209;-0.27723014;-0.27430037;;;;;1339.9
1510.0;1422.3;;;;;;;;;;;;;;;;;13.229774;14.332255;38.99884;;1339.9
1510.0;1422.3;;;;;;;;;;;;;;0.8509171;-0.29023102;-0.2682577;;;;;1339.9
1510.0;1422.3;;;;;;;;;;;;;;;;;14.175848;15.396588;39.693134;;1349.5
1510.0;1422.3;;;;;;;;;;;;;;0.86703086;-0.31556138;-0.2527543;;;;;1349.5
1510.0;1422.3;;;;;;;;;;;;;;;;;15.903959;16.258736;40.105137;;1349.5
1510.0;1422.3;;;;;;;;;;;;;;0.88595235;-0.31104466;-0.25122836;;;;;1349.5
1510.0;1421.7;262143;262143;11281;;;;;;;;;;;;;;;;;;
1510.0;1429.2;;;;-0.4463082;0.8333703;-0.15195848;;;;;;;;;;;;;;;
1510.0;1429.2;;;;-0.45095068;0.8288804;-0.15605547;;;;;;;;;;;;;;;
1510.0;1429.2;;;;-0.45367438;0.82554257;-0.15884401;;;;;;;;;;;;;;;
1510.0;1429.2;;;;-0.4540406;0.8227006;-0.16135408;;;;;;;;;;;;;;;
1510.0;1429.2;;;;-0.4529;0.81995785;-0.16402818;;;;;;;;;;;;;;;
1510.0;1439.2;;;;-0.4485665;0.81796277;-0.16496278;;;;;;;;;;;;;;;
1510.0;1439.2;;;;-0.44292074;0.815487;-0.16649248;;;;;;;;;;;;;;;
1510.0;1439.2;;;;-0.43580252;0.81328595;-0.16724779;;;;;;;;;;;;;;;
1510.0;1439.2;;;;-0.42830282;0.81113446;-0.16780473;;;;;;;;;;;;;;;
1510.0;1439.2;;;;-0.42010885;0.8095056;-0.16747285;;;;;;;;;;;;;;;
1563.0;1441.7;262143;262143;11261;;;;;;;;;;;;;;;;;;
1563.0;1447.6;;;;;;;;;;;;;-6742;;;;;;;;
1563.0;1447.6;;;;;;;;;;;;;-6132;;;;;;;;
1563.0;1447.6;;;;;;;;;;;;;-5442;;;;;;;;
1563.0;1447.6;;;;;;;;;;;;;-4843;;;;;;;;
1563.0;1447.6;;;;;;;;;;;;;-4251;;;;;;;;
1563.0;1449.1;;;;-0.4110642;0.8074151;-0.1664467;;;;;;;;;;;;;;;
1563.0;1449.1;;;;-0.4008866;0.8053361;-0.16487123;;;;;;;;;;;;;;;
1563.0;1449.1;;;;-0.39080435;0.8028947;-0.16307832;;;;;;;;;;;;;;;
1563.0;1449.1;;;;-0.37878805;0.79991925;-0.16086961;;;;;;;;;;;;;;;
1563.0;1449.1;;;;-0.36722568;0.79708874;-0.15775682;;;;;;;;;;;;;;;
1563.0;1459.0;;;;-0.35517123;0.7941209;-0.15456773;;;;;;;;;;;;;;;
1563.0;1459.0;;;;-0.34345248;0.7923471;-0.15204622;;;;;;;;;;;;;;;
1563.0;1459.0;;;;-0.3312874;0.7902261;-0.14948274;;;;;;;;;;;;;;;
1563.0;1459.0;;;;-0.31867602;0.78764737;-0.14623262;;;;;;;;;;;;;;;
1563.0;1459.0;;;;-0.30532458;0.78431714;-0.14320756;;;;;;;;;;;;;;;
1563.0;1461.5;262143;262143;11244;;;;;;;;;;;;;;;;;;
1563.0;1469.1;;;;-0.29252627;0.7817651;-0.13973619;;;;;;;;;;;;;;;
1563.0;1469.1;;;;-0.28023914;0.7795106;-0.1371689;;;;;;;;;;;;;;;
1563.0;1469.1;;;;-0.26871875;0.77759564;-0.134079;;;;;;;;;;;;;;;
1563.0;1469.1;;;;-0.25777438;0.7743913;-0.13118364;;;;;;;;;;;;;;;
1563.0;1469.1;;;;-0.24766162;0.7715684;-0.12912752;;;;;;;;;;;;;;;
1565.0;1479.2;;;;-0.2385979;0.7701074;-0.126812;;;;;;;;;;;;;;;
1565.0;1479.2;;;;-0.23076633;0.7680665;-0.12550737;;;;;;;;;;;;;;;
1565.0;1479.2;;;;-0.22309497;0.76540387;-0.12374498;;;;;;;;;;;;;;;
1565.0;1479.2;;;;-0.21602634;0.7626077;-0.1209984;;;;;;;;;;;;;;;
1565.0;1479.2;;;;-0.20985797;0.7597581;-0.11898805;;;;;;;;;;;;;;;
1565.0;1481.1;;;;;;;;;;;;;;;;;17.258217;18.13181;40.658283;;1359.2
1565.0;1481.1;;;;;;;;;;;;;;0.90249336;-0.30738243;-0.23517564;;;;;1359.2
1565.0;1481.1;;;;;;;;;;;;;;;;;18.284403;19.589067;40.627766;;1359.2
1565.0;1481.1;;;;;;;;;;;;;;0.91348004;-0.3025605;-0.2278512;;;;;1359.2
1565.0;1481.1;;;;;;;;;;;;;;;;;20.317698;20.634327;40.498062;;1368.7
1565.0;1481.1;;;;;;;;;;;;;;0.9175695;-0.30030215;-0.22608112;;;;;1368.7
1565.0;1481.1;;;;;;;;;;;;;;;;;23.182623;21.847439;40.43321;;1368.7
1565.0;1481.1;;;;;;;;;;;;;;0.9153722;-0.29779962;-0.22425;;;;;1368.7
1565.0;1481.1;;;;;;;;;;;;;;;;;26.600697;23.274178;40.334023;;1378.3
1565.0;1481.1;;;;;;;;;;;;;;0.9030427;-0.29663992;-0.2247383;;;;;1378.3
1565.0;1481.1;;;;;;;;;;;;;;;;;31.098362;23.617512;40.3531;;1378.3
1565.0;1481.1;;;;;;;;;;;;;;0.88448745;-0.27491075;-0.22132023;;;;;1378.3
1565.0;1481.7;262143;262143;11234;;;;;;;;;;;;;;;;;;
1565.0;1487.8;;;;;;;;;;;;;-3519;;;;;;;;
1565.0;1487.8;;;;;;;;;;;;;-2599;;;;;;;;
1565.0;1487.8;;;;;;;;;;;;;-1556;;;;;;;;
1565.0;1487.8;;;;;;;;;;;;;-556;;;;;;;;
1565.0;1487.8;;;;;;;;;;;;;234;;;;;;;;
1621.0;1488.7;;;;;;;;;;;;;;;;;35.596027;21.958069;40.192875;;1388.0
1621.0;1488.7;;;;;;;;;;;;;;0.877163;-0.27674183;-0.23041475;;;;;1388.0
1621.0;1488.7;;;;;;;;;;;;;;;;;40.166172;19.47844;39.74273;;1388.0
1621.0;1488.7;;;;;;;;;;;;;;0.8855861;-0.24512467;-0.25434124;;;;;1388.0
1621.0;1488.7;;;;;;;;;;;;;;;;;43.076878;18.467514;38.968323;;1397.6
1621.0;1488.7;;;;;;;;;;;;;;0.8844264;-0.20838039;-0.2662435;;;;;1397.6
1621.0;1488.7;;;;;;;;;;;;;;;;;44.392986;16.655478;38.487656;;1397.6
1621.0;1488.7;;;;;;;;;;;;;;0.8767968;-0.17944884;-0.2908414;;;;;1397.6
1621.0;1488.7;;;;;;;;;;;;;;;;;45.51454;14.931181;37.892544;;1407.3
1621.0;1488.7;;;;;;;;;;;;;;0.8670919;-0.16736351;-0.32178718;;;;;1407.3
1621.0;1488.7;;;;;;;;;;;;;;;;;46.78106;14.091922;36.824398;;1407.3
1621.0;1488.7;;;;;;;;;;;;;;0.8459731;-0.14661092;-0.34400463;;;;;1407.3
1621.0;1489.1;;;;-0.20486072;0.7582246;-0.117237106;;;;;;;;;;;;;;;
1621.0;1489.1;;;;-0.19977954;0.7573854;-0.11508562;;;;;;;;;;;;;;;
1621.0;1489.1;;;;-0.19548038;0.75685894;-0.1133423;;;;;;;;;;;;;;;
1621.0;1489.1;;;;-0.19124225;0.7566987;-0.11062242;;;;;;;;;;;;;;;
1621.0;1489.1;;;;-0.18774799;0.7570077;-0.10923006;;;;;;;;;;;;;;;
1621.0;1499.1;;;;-0.1855736;0.7578317;-0.107784286;;;;;;;;;;;;;;;
1621.0;1499.1;;;;-0.18317796;0.7592851;-0.10574724;;;;;;;;;;;;;;;
1621.0;1499.1;;;;-0.18140794;0.76096356;-0.10422517;;;;;;;;;;;;;;;
1621.0;1499.1;;;;-0.1801262;0.7627412;-0.10310365;;;;;;;;;;;;;;;
1621.0;1499.1;;;;-0.17862703;0.76549923;-0.10222246;;;;;;;;;;;;;;;
1621.0;1501.7;262143;262143;11228;;;;;;;;;;;;;;;;;;
1625.0;1509.2;;;;-0.17689516;0.7680322;-0.100856796;;;;;;;;;;;;;;;
1625.0;1509.2;;;;-0.17538454;0.7706109;-0.09908296;;;;;;;;;;;;;;;
1625.0;1509.2;;;;-0.17362978;0.7729989;-0.09791185;;;;;;;;;;;;;;;
1625.0;1509.2;;;;-0.17256929;0.7751962;-0.09680177;;;;;;;;;;;;;;;
1625.0;1509.2;;;;-0.1716118;0.7772676;-0.09577562;;;;;;;;;;;;;;;
1625.0;1519.2;;;;-0.17036058;0.7788545;-0.09473802;;;;;;;;;;;;;;;
1625.0;1519.2;;;;-0.1693535;0.78071606;-0.093479164;;;;;;;;;;;;;;;
1625.0;1519.2;;;;-0.16814424;0.7828828;-0.092090614;;;;;;;;;;;;;;;
1625.0;1519.2;;;;-0.16627122;0.78450024;-0.090003975;;;;;;;;;;;;;;;
1625.0;1519.2;;;;-0.16466524;0.78635037;-0.08819962;;;;;;;;;;;;;;;
1625.0;1521.9;262143;262143;11232;;;;;;;;;;;;;;;;;;
1625.0;1527.9;;;;;;;;;;;;;760;;;;;;;;
1625.0;1527.9;;;;;;;;;;;;;1099;;;;;;;;
1625.0;1527.9;;;;;;;;;;;;;1232;;;;;;;;
1625.0;1527.9;;;;;;;;;;;;;1071;;;;;;;;
1625.0;1527.9;;;;;;;;;;;;;810;;;;;;;;
1625.0;1529.3;;;;-0.16256715;0.78818524;-0.0860138;;;;;;;;;;;;;;;
1625.0;1529.3;;;;-0.16027834;0.790352;-0.08464051;;;;;;;;;;;;;;;
1625.0;1529.3;;;;-0.15898515;0.79299176;-0.08282853;;;;;;;;;;;;;;;
1625.0;1529.3;;;;-0.15813066;0.79604733;-0.08105088;;;;;;;;;;;;;;;
1625.0;1529.3;;;;-0.15784837;0.799183;-0.079616554;;;;;;;;;;;;;;;
1683.0;1539.4;;;;-0.15871431;0.802868;-0.077838905;;;;;;;;;;;;;;;
1683.0;1539.4;;;;-0.16025545;0.8066255;-0.07549668;;;;;;;;;;;;;;;
1683.0;1539.4;;;;-0.16144182;0.8106767;-0.073444374;;;;;;;;;;;;;;;
1683.0;1539.4;;;;-0.16335298;0.81465924;-0.07038117;;;;;;;;;;;;;;;
1683.0;1539.4;;;;-0.16567995;0.819008;-0.06634904;;;;;;;;;;;;;;;
1683.0;1542.1;262143;262143;11230;;;;;;;;;;;;;;;;;;
1683.0;1549.3;;;;-0.16757585;0.8234254;-0.06279374;;;;;;;;;;;;;;;
1683.0;1549.3;;;;-0.16921999;0.8284532;-0.05936814;;;;;;;;;;;;;;;
1683.0;1549.3;;;;-0.16993333;0.8334657;-0.055049904;;;;;;;;;;;;;;;
1683.0;1549.3;;;;-0.17076875;0.8381196;-0.050601967;;;;;;;;;;;;;;;
1683.0;1549.3;;;;-0.17203142;0.8433229;-0.04659653;;;;;;;;;;;;;;;
1683.0;1559.4;;;;-0.17364885;0.8480226;-0.04206467;;;;;;;;;;;;;;;
1683.0;1559.4;;;;-0.17486192;0.8517953;-0.037761692;;;;;;;;;;;;;;;
1683.0;1559.4;;;;-0.17694856;0.8553926;-0.033287052;;;;;;;;;;;;;;;
1683.0;1559.4;;;;-0.17901231;0.8587457;-0.02953339;;;;;;;;;;;;;;;
1683.0;1559.4;;;;-0.18091585;0.8614541;-0.025897983;;;;;;;;;;;;;;;
1683.0;1562.2;262143;262143;11222;;;;;;;;;;;;;;;;;;
1683.0;1568.1;;;;;;;;;;;;;735;;;;;;;;
1683.0;1568.1;;;;;;;;;;;;;847;;;;;;;;
1683.0;1568.1;;;;;;;;;;;;;946;;;;;;;;
1683.0;1568.1;;;;;;;;;;;;;968;;;;;;;;
1683.0;1568.1;;;;;;;;;;;;;1089;;;;;;;;
1685.0;1569.4;;;;-0.18266298;0.8639604;-0.021621706;;;;;;;;;;;;;;;
1685.0;1569.4;;;;-0.1839905;0.8666421;-0.017570497;;;;;;;;;;;;;;;
1685.0;1569.4;;;;-0.18564607;0.8691598;-0.013126375;;;;;;;;;;;;;;;
1685.0;1569.4;;;;-0.18766406;0.8719522;-0.008289338;;;;;;;;;;;;;;;
1685.0;1569.4;;;;-0.18981174;0.8753549;-0.0028610232;;;;;;;;;;;;;;;
1685.0;1579.4;;;;-0.19172671;0.87905514;0.0017089846;;;;;;;;;;;;;;;
1685.0;1579.4;;;;-0.19311908;0.8819696;0.004428864;;;;;;;;;;;;;;;
1685.0;1579.4;;;;-0.19453815;0.88518155;0.007255555;;;;;;;;;;;;;;;
1685.0;1579.4;;;;-0.19626239;0.8886453;0.012149813;;;;;;;;;;;;;;;
1685.0;1579.4;;;;-0.19920734;0.8930017;0.016132357;;;;;;;;;;;;;;;
1685.0;1582.2;262143;262143;11235;;;;;;;;;;;;;;;;;;
1685.0;1589.5;;;;-0.20212558;0.8979455;0.020702364;;;;;;;;;;;;;;;
1685.0;1589.5;;;;-0.20454791;0.90334713;0.02437592;;;;;;;;;;;;;;;
1685.0;1589.5;;;;-0.20754245;0.9088365;0.028308872;;;;;;;;;;;;;;;
1685.0;1589.5;;;;-0.21070102;0.9149095;0.032516483;;;;;;;;;;;;;;;
1685.0;1589.5;;;;-0.21319583;0.9206964;0.03656769;;;;;;;;;;;;;;;
1685.0;1599.6;;;;-0.21533969;0.9265214;0.03987885;;;;;;;;;;;;;;;
1685.0;1599.6;;;;-0.21714404;0.93220913;0.043010715;;;;;;;;;;;;;;;
1685.0;1599.6;;;;-0.21894076;0.9381715;0.045478825;;;;;;;;;;;;;;;
1685.0;1599.6;;;;-0.2201691;0.9439317;0.047885902;;;;;;;;;;;;;;;
1685.0;1599.6;;;;-0.22180942;0.9493867;0.049331672;;;;;;;;;;;;;;;
1686.0;1602.5;262143;262143;11234;;;;;;;;;;;;;;;;;;
1686.0;1608.5;;;;;;;;;;;;;1452;;;;;;;;
1686.0;1608.5;;;;;;;;;;;;;1896;;;;;;;;
1686.0;1608.5;;;;;;;;;;;;;2046;;;;;;;;
1686.0;1608.5;;;;;;;;;;;;;1710;;;;;;;;
1686.0;1608.5;;;;;;;;;;;;;1285;;;;;;;;
1686.0;1609.7;;;;-0.2237015;0.953972;0.050659187;;;;;;;;;;;;;;;
1686.0;1609.7;;;;-0.2248154;0.9587556;0.052719124;;;;;;;;;;;;;;;
1686.0;1609.7;;;;-0.22644046;0.96375287;0.053443916;;;;;;;;;;;;;;;
1686.0;1609.7;;;;-0.22812656;0.9689332;0.053638466;;;;;;;;;;;;;;;
1686.0;1609.7;;;;-0.22924426;0.9743768;0.05429841;;;;;;;;;;;;;;;
1686.0;1617.1;;;;;;;;;;;;;;;;;47.650837;13.897366;35.653248;;1416.8
1686.0;1617.1;;;;;;;;;;;;;;0.82198554;-0.117313154;-0.35883662;;;;;1416.8
1686.0;1617.1;;;;;;;;;;;;;;;;;47.1778;13.309885;34.18073;;1416.8
1686.0;1617.1;;;;;;;;;;;;;;0.7909787;-0.08581805;-0.36567277;;;;;1416.8
1686.0;1617.1;;;;;;;;;;;;;;;;;45.381023;11.505478;32.666252;;1426.5
1686.0;1617.1;;;;;;;;;;;;;;0.77767265;-0.050965913;-0.37269205;;;;;1426.5
1686.0;1617.1;;;;;;;;;;;;;;;;;42.416912;9.708701;31.701103;;1426.5
1686.0;1617.1;;;;;;;;;;;;;;0.7705924;-0.026673177;-0.38056582;;;;;1426.5
1686.0;1617.1;;;;;;;;;;;;;;;;;38.590656;8.50322;30.720694;;1436.2
1686.0;1617.1;;;;;;;;;;;;;;0.7712638;-0.010559404;-0.3747673;;;;;1436.2
1686.0;1617.1;;;;;;;;;;;;;;;;;33.635216;7.889035;29.755548;;1436.2
1686.0;1617.1;;;;;;;;;;;;;;0.7811518;0.0017090365;-0.37519455;;;;;1436.2
1689.0;1617.9;;;;;;;;;;;;;;;;;28.22199;8.419294;28.923918;;1445.8
1689.0;1617.9;;;;;;;;;;;;;;0.79103976;-0.0011597034;-0.3715934;;;;;1445.8
1689.0;1617.9;;;;;;;;;;;;;;;;;22.63329;8.976256;27.901546;;1445.8
1689.0;1617.9;;;;;;;;;;;;;;0.8031861;-0.015381329;-0.3744621;;;;;1445.8
1689.0;1617.9;;;;;;;;;;;;;;;;;17.27729;9.510331;26.69988;;1455.4
1689.0;1617.9;;;;;;;;;;;;;;0.81789607;-0.03930784;-0.37885678;;;;;1455.4
1689.0;1617.9;;;;;;;;;;;;;;;;;12.29896;9.762108;24.822992;;1455.4
1689.0;1617.9;;;;;;;;;;;;;;0.83516955;-0.058046207;-0.39155248;;;;;1455.4
1689.0;1617.9;;;;;;;;;;;;;;;;;9.033479;9.479813;23.36192;;1465.0
1689.0;1617.9;;;;;;;;;;;;;;0.86031675;-0.07757805;-0.41444135;;;;;1465.0
1689.0;1617.9;;;;;;;;;;;;;;;;;6.778924;9.277627;21.462143;;1465.0
1689.0;1617.9;;;;;;;;;;;;;;0.8915677;-0.09552293;-0.44026002;;;;;1465.0
1689.0;1618.7;;;;;;;;;;;;;;;;;5.4589987;8.7893305;19.394514;;1474.6
1689.0;1618.7;;;;;;;;;;;;;;0.91634876;-0.120548114;-0.46290475;;;;;1474.6
1689.0;1618.7;;;;;;;;;;;;;;;;;5.2415543;7.698294;17.654957;;1474.6
1689.0;1618.7;;;;;;;;;;;;;;0.94357127;-0.1342204;-0.4766991;;;;;1474.6
1689.0;1618.7;;;;;;;;;;;;;;;;;4.928739;5.897702;15.999329;;1484.2
1689.0;1618.7;;;;;;;;;;;;;;0.9704886;-0.15247047;-0.49195838;;;;;1484.2
1689.0;1618.7;;;;;;;;;;;;;;;;;4.7456284;3.8453321;14.469588;;1484.2
1689.0;1618.7;;;;;;;;;;;;;;0.98556477;-0.17096469;-0.49342325;;;;;1484.2
1689.0;1618.7;;;;;;;;;;;;;;;;;5.115665;2.1401105;13.019959;;1493.8
1689.0;1618.7;;;;;;;;;;;;;;0.9949644;-0.1805475;-0.48512223;;;;;1493.8
1689.0;1618.7;;;;;;;;;;;;;;;;;6.1571097;0.8697775;11.616108;;1493.8
1689.0;1618.7;;;;;;;;;;;;;;0.99899286;-0.17761773;-0.46852016;;;;;1493.8
1691.0;1619.4;;;;;;;;;;;;;;;;;8.278146;-0.7820368;10.4831085;;1503.4
1691.0;1619.4;;;;;;;;;;;;;;1.0038759;-0.16541032;-0.46009704;;;;;1503.4
1691.0;1619.4;;;;;;;;;;;;;;;;;10.208442;-2.5063326;9.380627;;1503.4
1691.0;1619.4;;;;;;;;;;;;;;1.0143743;-0.15131077;-0.46009704;;;;;1503.4
1691.0;1619.4;;;;;;;;;;;;;;;;;11.57033;-4.5854063;8.117924;;1513.0
1691.0;1619.4;;;;;;;;;;;;;;1.0212713;-0.135197;-0.47395244;;;;;1513.0
1691.0;1619.4;;;;;;;;;;;;;;;;;12.447737;-6.1380353;6.084628;;1513.0
1691.0;1619.4;;;;;;;;;;;;;;1.013886;-0.10608234;-0.49140903;;;;;1513.0
1691.0;1619.4;;;;;;;;;;;;;;;;;13.824884;-7.019257;3.5821102;;1522.6
1691.0;1619.4;;;;;;;;;;;;;;0.99844354;-0.06994843;-0.51039153;;;;;1522.6
1691.0;1619.4;;;;;;;;;;;;;;;;;15.495773;-7.530442;0.24033326;;1522.6
1691.0;1619.4;;;;;;;;;;;;;;0.9787286;-0.014893033;-0.53712577;;;;;1522.6
1691.0;1619.6;;;;-0.22983173;0.97986996;0.054668434;;;;;;;;;;;;;;;
1691.0;1619.6;;;;-0.23094562;0.9859048;0.0540886;;;;;;;;;;;;;;;
1691.0;1619.6;;;;-0.23188403;0.9924737;0.054359443;;;;;;;;;;;;;;;
1691.0;1619.6;;;;-0.23292926;0.9993974;0.054515846;;;;;;;;;;;;;;;
1691.0;1619.6;;;;-0.23361972;1.0061456;0.05431748;;;;;;;;;;;;;;;
1745.0;1620.2;;;;;;;;;;;;;;;;;16.243477;-8.384961;-3.6317027;;1532.3
1745.0;1620.2;;;;;;;;;;;;;;0.9582812;0.04260384;-0.5670339;;;;;1532.3
1745.0;1620.2;;;;;;;;;;;;;;;;;15.1104765;-9.693442;-8.262887;;1532.3
1745.0;1620.2;;;;;;;;;;;;;;0.9328288;0.1032136;-0.57960755;;;;;1532.3
1745.0;1620.2;;;;;;;;;;;;;;;;;11.703849;-11.68096;-12.966552;;1542.0
1745.0;1620.2;;;;;;;;;;;;;;0.910184;0.15552233;-0.5896176;;;;;1542.0
1745.0;1620.2;;;;;;;;;;;;;;;;;6.321146;-14.13007;-17.971586;;1542.0
1745.0;1620.2;;;;;;;;;;;;;;0.8917509;0.19605091;-0.59199804;;;;;1542.0
1745.0;1620.2;;;;;;;;;;;;;;;;;-0.15259254;-17.262032;-23.277992;;1551.7
1745.0;1620.2;;;;;;;;;;;;;;0.8780786;0.23462631;-0.595172;;;;;1551.7
1745.0;1620.2;;;;;;;;;;;;;;;;;-7.065035;-20.432142;-29.107029;;1551.7
1745.0;1620.2;;;;;;;;;;;;;;0.87002164;0.2727134;-0.591937;;;;;1551.7
1745.0;1622.4;262143;262143;11234;;;;;;;;;;;;;;;;;;
1745.0;1629.3;;;;-0.23546603;1.0133058;0.05389405;;;;;;;;;;;;;;;
1745.0;1629.3;;;;-0.2366791;1.020897;0.0538292;;;;;;;;;;;;;;;
1745.0;1629.3;;;;-0.23811343;1.0280267;0.053241737;;;;;;;;;;;;;;;
1745.0;1629.3;;;;-0.24062732;1.0349313;0.052539833;;;;;;;;;;;;;;;
1745.0;1629.3;;;;-0.24324039;1.041485;0.05275727;;;;;;;;;;;;;;;
1745.0;1639.0;;;;-0.24660113;1.0471116;0.053150184;;;;;;;;;;;;;;;
1745.0;1639.0;;;;-0.25084308;1.0513536;0.053737648;;;;;;;;;;;;;;;
1745.0;1639.0;;;;-0.25485614;1.0549699;0.055393226;;;;;;;;;;;;;;;
1745.0;1639.0;;;;-0.25909808;1.0579644;0.057235725;;;;;;;;;;;;;;;
1745.0;1639.0;;;;-0.26226428;1.0600168;0.059249885;;;;;;;;;;;;;;;
1748.0;1642.0;262143;262143;11238;;;;;;;;;;;;;;;;;;
1748.0;1648.0;;;;;;;;;;;;;1132;;;;;;;;
1748.0;1648.0;;;;;;;;;;;;;1151;;;;;;;;
1748.0;1648.0;;;;;;;;;;;;;1059;;;;;;;;
1748.0;1648.0;;;;;;;;;;;;;932;;;;;;;;
1748.0;1648.0;;;;;;;;;;;;;1178;;;;;;;;
1748.0;1649.2;;;;-0.26558307;1.0612375;0.061832435;;;;;;;;;;;;;;;
1748.0;1649.2;;;;-0.26833346;1.0614702;0.06527329;;;;;;;;;;;;;;;
1748.0;1649.2;;;;-0.26895145;1.0609857;0.06924439;;;;;;;;;;;;;;;
1748.0;1649.2;;;;-0.26970294;1.0608178;0.0734253;;;;;;;;;;;;;;;
1748.0;1649.2;;;;-0.27043155;1.0597459;0.077285774;;;;;;;;;;;;;;;
1748.0;1659.3;;;;-0.2707825;1.0571824;0.08145142;;;;;;;;;;;;;;;
1748.0;1659.3;;;;-0.2697411;1.0545808;0.08538438;;;;;;;;;;;;;;;
1748.0;1659.3;;;;-0.26874927;1.0511667;0.08900834;;;;;;;;;;;;;;;
1748.0;1659.3;;;;-0.26814273;1.0478975;0.09210587;;;;;;;;;;;;;;;
1748.0;1659.3;;;;-0.26648334;1.0435945;0.096469894;;;;;;;;;;;;;;;
1750.0;1662.0;;;;;;;;;;;;;;;;;-13.153478;-23.152103;-35.302284;;1561.3
1750.0;1662.0;;;;;;;;;;;;;;0.8699606;0.3084811;-0.58479565;;;;;1561.3
1750.0;1662.0;;;;;;;;;;;;;;;;;-18.086031;-25.917845;-41.894283;;1561.3
1750.0;1662.0;;;;;;;;;;;;;;0.88320565;0.34138006;-0.5800958;;;;;1561.3
1750.0;1662.0;;;;;;;;;;;;;;;;;-22.392956;-28.283028;-48.669395;;1570.9
1750.0;1662.0;;;;;;;;;;;;;;0.9023713;0.37128818;-0.58229315;;;;;1570.9
1750.0;1662.0;;;;;;;;;;;;;;;;;-26.749474;-29.988249;-55.18128;;1570.9
1750.0;1662.0;;;;;;;;;;;;;;0.93276775;0.3998535;-0.5868709;;;;;1570.9
1750.0;1662.0;;;;;;;;;;;;;;;;;-31.929993;-32.35725;-61.948757;;1580.6
1750.0;1662.0;;;;;;;;;;;;;;0.9906308;0.41328165;-0.6029847;;;;;1580.6
1750.0;1662.0;;;;;;;;;;;;;;;;;-36.839657;-35.08484;-69.742424;;1580.6
1750.0;1662.0;;;;;;;;;;;;;;1.0556352;0.41981262;-0.61970884;;;;;1580.6
1750.0;1662.2;262143;262143;11236;;;;;;;;;;;;;;;;;;
1750.0;1669.2;;;;-0.26500323;1.0392343;0.099864975;;;;;;;;;;;;;;;
1750.0;1669.2;;;;-0.2634392;1.0348741;0.102584854;;;;;;;;;;;;;;;
1750.0;1669.2;;;;-0.2616959;1.0297738;0.10495378;;;;;;;;;;;;;;;
1750.0;1669.2;;;;-0.2606621;1.0256082;0.10736467;;;;;;;;;;;;;;;
1750.0;1669.2;;;;-0.2603226;1.0211374;0.110641494;;;;;;;;;;;;;;;
1752.0;1676.7;;;;;;;;;;;;;;;;;-41.43269;-35.02762;-77.936646;;1590.1
1752.0;1676.7;;;;;;;;;;;;;;1.0810267;0.42732018;-0.60963774;;;;;1590.1
1752.0;1676.7;;;;;;;;;;;;;;;;;-46.19739;-31.33488;-84.73464;;1590.1
1752.0;1676.7;;;;;;;;;;;;;;1.0664388;0.43604848;-0.5465255;;;;;1590.1
1752.0;1676.7;;;;;;;;;;;;;;;;;-52.220985;-28.603474;-92.013306;;1599.7
1752.0;1676.7;;;;;;;;;;;;;;1.0560014;0.45564136;-0.47029024;;;;;1599.7
1752.0;1676.7;;;;;;;;;;;;;;;;;-58.34376;-29.263435;-100.50127;;1599.7
1752.0;1676.7;;;;;;;;;;;;;;1.0344554;0.51551867;-0.43934447;;;;;1599.7
1752.0;1676.7;;;;;;;;;;;;;;;;;-62.43324;-32.63573;-107.56631;;1609.4
1752.0;1676.7;;;;;;;;;;;;;;1.0088809;0.562212;-0.43946654;;;;;1609.4
1752.0;1676.7;;;;;;;;;;;;;;;;;-67.68624;-35.454876;-115.26078;;1609.4
1752.0;1676.7;;;;;;;;;;;;;;0.99807733;0.5923032;-0.44819483;;;;;1609.4
1752.0;1679.2;;;;-0.2598572;1.0169793;0.11550905;;;;;;;;;;;;;;;
1752.0;1679.2;;;;-0.2600594;1.0139734;0.11791994;;;;;;;;;;;;;;;
1752.0;1679.2;;;;-0.26238635;1.0103875;0.12081148;;;;;;;;;;;;;;;
1752.0;1679.2;;;;-0.26222232;1.0069886;0.123920456;;;;;;;;;;;;;;;
1752.0;1679.2;;;;-0.2634621;1.0045053;0.12544633;;;;;;;;;;;;;;;
1752.0;1682.3;262143;262143;11238;;;;;;;;;;;;;;;;;;
1752.0;1688.1;;;;;;;;;;;;;1860;;;;;;;;
1752.0;1688.1;;;;;;;;;;;;;2501;;;;;;;;
1752.0;1688.1;;;;;;;;;;;;;2667;;;;;;;;
1752.0;1688.1;;;;;;;;;;;;;2570;;;;;;;;
1752.0;1688.1;;;;;;;;;;;;;2704;;;;;;;;
1802.0;1689.1;;;;-0.26664355;1.0024568;0.12699892;;;;;;;;;;;;;;;
1802.0;1689.1;;;;-0.26910403;1.0009156;0.12956621;;;;;;;;;;;;;;;
1802.0;1689.1;;;;-0.27313235;1.0007745;0.13183214;;;;;;;;;;;;;;;
1802.0;1689.1;;;;-0.2777367;1.0006944;0.1340294;;;;;;;;;;;;;;;
1802.0;1689.1;;;;-0.28127292;1.0015832;0.13653947;;;;;;;;;;;;;;;
1802.0;1699.1;;;;-0.2840691;1.0025216;0.13911821;;;;;;;;;;;;;;;
1802.0;1699.1;;;;-0.2878075;1.0042955;0.13992311;;;;;;;;;;;;;;;
1802.0;1699.1;;;;-0.29072574;1.0063745;0.14219286;;;;;;;;;;;;;;;
1802.0;1699.1;;;;-0.29240802;1.0094339;0.14331056;;;;;;;;;;;;;;;
1802.0;1699.1;;;;-0.29423144;1.0133172;0.14405061;;;;;;;;;;;;;;;
1802.0;1702.3;262143;262143;11233;;;;;;;;;;;;;;;;;;
1802.0;1709.2;;;;-0.2956772;1.018345;0.14493562;;;;;;;;;;;;;;;
1802.0;1709.2;;;;-0.2970772;1.0248109;0.14589693;;;;;;;;;;;;;;;
1802.0;1709.2;;;;-0.29861835;1.0325319;0.1468773;;;;;;;;;;;;;;;
1802.0;1709.2;;;;-0.30080417;1.0413247;0.1477051;;;;;;;;;;;;;;;
1802.0;1709.2;;;;-0.30357745;1.0504228;0.14819337;;;;;;;;;;;;;;;
1802.0;1719.3;;;;-0.30681995;1.0597802;0.14891435;;;;;;;;;;;;;;;
1802.0;1719.3;;;;-0.30939105;1.0701867;0.14989091;;;;;;;;;;;;;;;
1802.0;1719.3;;;;-0.31291583;1.0809823;0.15143205;;;;;;;;;;;;;;;
1802.0;1719.3;;;;-0.3159676;1.0911142;0.15336992;;;;;;;;;;;;;;;
1802.0;1719.3;;;;-0.31888965;1.1013719;0.1552086;;;;;;;;;;;;;;;
1810.0;1721.8;;;;;;;;;;;;;;;;;-71.93976;-34.390545;-122.37159;;1619.1
1810.0;1721.8;;;;;;;;;;;;;;1.0135196;0.59633166;-0.40913114;;;;;1619.1
1810.0;1721.8;;;;;;;;;;;;;;;;;-75.170906;-28.02362;-124.96567;;1619.1
1810.0;1721.8;;;;;;;;;;;;;;1.0326242;0.5976745;-0.32673118;;;;;1619.1
1810.0;1721.8;;;;;;;;;;;;;;;;;-77.51702;-17.582476;-124.988556;;1628.6
1810.0;1721.8;;;;;;;;;;;;;;1.0723594;0.578753;-0.19525743;;;;;1628.6
1810.0;1721.8;;;;;;;;;;;;;;;;;-80.309456;-7.7936645;-124.988556;;1628.6
1810.0;1721.8;;;;;;;;;;;;;;1.1597644;0.5327311;-0.10235908;;;;;1628.6
1810.0;1721.8;;;;;;;;;;;;;;;;;-81.02283;2.9145176;-124.988556;;1638.3
1810.0;1721.8;;;;;;;;;;;;;;1.2969146;0.44209114;-0.03418073;;;;;1638.3
1810.0;1721.8;;;;;;;;;;;;;;;;;-82.62123;17.674032;-124.988556;;1638.3
1810.0;1721.8;;;;;;;;;;;;;;1.4280221;0.31391338;0.008972442;;;;;1638.3
1810.0;1722.4;262143;262143;11235;;;;;;;;;;;;;;;;;;
1810.0;1728.3;;;;;;;;;;;;;2877;;;;;;;;
1810.0;1728.3;;;;;;;;;;;;;2580;;;;;;;;
1810.0;1728.3;;;;;;;;;;;;;2423;;;;;;;;
1810.0;1728.3;;;;;;;;;;;;;3610;;;;;;;;
1810.0;1728.3;;;;;;;;;;;;;4337;;;;;;;;
1812.0;1729.3;;;;;;;;;;;;;;;;;-87.32109;33.9938;-124.988556;;1647.9
1812.0;1729.3;;;;;;;;;;;;;;1.5619373;0.19037446;0.028748436;;;;;1647.9
1812.0;1729.3;;;;;;;;;;;;;;;;;-93.87494;47.124393;-124.988556;;1647.9
1812.0;1729.3;;;;;;;;;;;;;;1.6517228;0.032288585;0.02008118;;;;;1647.9
1812.0;1729.3;;;;;;;;;;;;;;;;;-102.7253;52.655872;-124.988556;;1657.5
1812.0;1729.3;;;;;;;;;;;;;;1.7167271;-0.11346782;-0.013733329;;;;;1657.5
1812.0;1729.3;;;;;;;;;;;;;;;;;-112.38441;49.851982;-124.988556;;1657.5
1812.0;1729.3;;;;;;;;;;;;;;1.8001038;-0.21161534;-0.07428205;;;;;1657.5
1812.0;1729.3;;;;;;;;;;;;;;;;;-118.701744;43.3401;-124.988556;;1667.2
1812.0;1729.3;;;;;;;;;;;;;;1.9232764;-0.3439436;-0.19049653;;;;;1667.2
1812.0;1729.3;;;;;;;;;;;;;;;;;-119.472336;38.968323;-123.603775;;1667.2
1812.0;1729.3;;;;;;;;;;;;;;1.9744254;-0.53675956;-0.35084078;;;;;1667.2
1812.0;1729.1;;;;-0.32137302;1.111683;0.15674211;;;;;;;;;;;;;;;
1812.0;1729.1;;;;-0.32205203;1.12138;0.1587105;;;;;;;;;;;;;;;
1812.0;1729.1;;;;-0.32268527;1.130768;0.16118623;;;;;;;;;;;;;;;
1812.0;1729.1;;;;-0.32350925;1.1403466;0.16258623;;;;;;;;;;;;;;;
1812.0;1729.1;;;;-0.3236504;1.1493188;0.16443254;;;;;;;;;;;;;;;
1812.0;1737.6;;;;;;;;;;0.7209998;17.769402;-2.6779993;;;;;;;;;
1812.0;1737.6;;;;;;;0.46375927;-0.7394635;0.23902097;;;;;;;;;;;;
1812.0;1737.6;;;;;;;;;;7.026887;34.55458;9.323405;;;;;;;;;
1812.0;1737.6;;;;;;;0.5072787;-0.84920806;0.27332377;;;;;;;;;;;;
1861.0;1739.2;;;;-0.32298663;1.1583787;0.166111;;;;;;;;;;;;;;;
1861.0;1739.2;;;;-0.32291415;1.1677591;0.16748048;;;;;;;;;;;;;;;
1861.0;1739.2;;;;-0.3217316;1.1763688;0.1698456;;;;;;;;;;;;;;;
1861.0;1739.2;;;;-0.3208237;1.1853105;0.17110826;;;;;;;;;;;;;;;
1861.0;1739.2;;;;-0.31962588;1.1941415;0.17175676;;;;;;;;;;;;;;;
1861.0;1742.4;262143;262143;11250;;;;;;;;;;;;;;;;;;
1861.0;1747.2;;;;;;;;;;0.5569628;11.207922;-4.40611;;;;;;;;;
1861.0;1747.2;;;;;;;0.49208045;-0.8831446;0.27777946;;;;;;;;;;;;
1861.0;1747.2;;;;;;;;;;3.8338878;36.160618;-17.044586;;;;;;;;;
1861.0;1747.2;;;;;;;0.48121586;-0.9230018;0.27607045;;;;;;;;;;;;
1861.0;1749.3;;;;-0.31837848;1.2033082;0.17285158;;;;;;;;;;;;;;;
1861.0;1749.3;;;;-0.31652835;1.2120363;0.1743622;;;;;;;;;;;;;;;
1861.0;1749.3;;;;-0.31427005;1.2212526;0.17559816;;;;;;;;;;;;;;;
1861.0;1749.3;;;;-0.312645;1.2300454;0.17627718;;;;;;;;;;;;;;;
1861.0;1749.3;;;;-0.3104439;1.2380944;0.17631914;;;;;;;;;;;;;;;
1861.0;1756.6;;;;;;;;;;3.154851;52.846615;-38.22062;;;;;;;;;
1861.0;1756.6;;;;;;;0.47480696;-0.9676809;0.27124852;;;;;;;;;;;;
1861.0;1756.6;;;;;;;;;;-2.094333;32.37251;-81.26316;;;;;;;;;
1861.0;1756.6;;;;;;;0.46931365;-1.0110782;0.2658162;;;;;;;;;;;;
1865.0;1759.1;;;;-0.3092995;1.2457734;0.17611314;;;;;;;;;;;;;;;
1865.0;1759.1;;;;-0.3091164;1.2530977;0.176075;;;;;;;;;;;;;;;
1865.0;1759.1;;;;-0.30928424;1.2601892;0.17645647;;;;;;;;;;;;;;;
1865.0;1759.1;;;;-0.31001285;1.2667581;0.17632295;;;;;;;;;;;;;;;
1865.0;1759.1;;;;-0.30863193;1.2725068;0.17610551;;;;;;;;;;;;;;;
1865.0;1762.4;262143;262143;11253;;;;;;;;;;;;;;;;;;
1865.0;1766.2;;;;;;;;;;-1.7319254;46.11347;-104.33134;;;;;;;;;
1865.0;1766.2;;;;;;;0.46998504;-1.0485549;0.25739312;;;;;;;;;;;;
1865.0;1766.2;;;;;;;;;;-0.5569628;59.736168;-120.66255;;;;;;;;;
1865.0;1766.2;;;;;;;0.46815392;-1.081576;0.2496414;;;;;;;;;;;;
1865.0;1768.4;;;;;;;;;;;;;-282;;;;;;;;
1865.0;1768.4;;;;;;;;;;;;;-10065;;;;;;;;
1865.0;1768.4;;;;;;;;;;;;;-15750;;;;;;;;
1865.0;1768.4;;;;;;;;;;;;;-9332;;;;;;;;
1865.0;1768.4;;;;;;;;;;;;;4725;;;;;;;;
1865.0;1769.3;;;;-0.30785373;1.2772027;0.17626573;;;;;;;;;;;;;;;
1865.0;1769.3;;;;-0.30739215;1.2822152;0.17697908;;;;;;;;;;;;;;;
1865.0;1769.3;;;;-0.30692676;1.2863122;0.17728044;;;;;;;;;;;;;;;
1865.0;1769.3;;;;-0.30524066;1.289589;0.17798235;;;;;;;;;;;;;;;
1865.0;1769.3;;;;-0.30401233;1.2918206;0.1789055;;;;;;;;;;;;;;;
1865.0;1775.8;;;;;;;;;;0.73625904;78.99335;-124.75967;;;;;;;;;
1865.0;1775.8;;;;;;;0.4680929;-1.1108737;0.24164556;;;;;;;;;;;;
1865.0;1775.8;;;;;;;;;;2.2659993;90.69719;-124.87029;;;;;;;;;
1865.0;1775.8;;;;;;;0.47077852;-1.1421857;0.23847163;;;;;;;;;;;;
1867.0;1779.4;;;;-0.30253223;1.2940675;0.1806183;;;;;;;;;;;;;;;
1867.0;1779.4;;;;-0.3017693;1.2951814;0.18157198;;;;;;;;;;;;;;;
1867.0;1779.4;;;;-0.30147937;1.2954942;0.18291475;;;;;;;;;;;;;;;
1867.0;1779.4;;;;-0.30181125;1.2951165;0.18413545;;;;;;;;;;;;;;;
1867.0;1779.4;;;;-0.30240253;1.2937089;0.18566515;;;;;;;;;;;;;;;
1867.0;1782.3;;;;;;;;;;;;;;;;;-121.02496;50.27543;-103.274635;;1676.8
1867.0;1782.3;;;;;;;;;;;;;;1.950682;-0.6913663;-0.36426893;;;;;1676.8
1867.0;1782.3;;;;;;;;;;;;;;;;;-124.77111;53.03354;-64.31394;;1676.8
1867.0;1782.3;;;;;;;;;;;;;;1.6202277;-0.8503067;-0.24115726;;;;;1676.8
1867.0;1782.3;;;;;;;;;;;;;;;;;-124.988556;3.4257026;-41.20762;;1686.3
1867.0;1782.3;;;;;;;;;;;;;;1.4528642;-0.98294014;-0.39808345;;;;;1686.3
1867.0;1782.3;;;;;;;;;;;;;;;;;-120.00641;-42.405468;-42.710655;;1686.3
1867.0;1782.3;;;;;;;;;;;;;;1.5493637;-1.1559801;-0.74221015;;;;;1686.3
1867.0;1782.3;;;;;;;;;;;;;;;;;-92.74575;-65.17228;-60.083313;;1696.0
1867.0;1782.3;;;;;;;;;;;;;;1.6169317;-1.2593768;-0.8822291;;;;;1696.0
1867.0;1782.3;;;;;;;;;;;;;;;;;-79.653305;-55.631428;-89.949486;;1696.0
1867.0;1782.3;;;;;;;;;;;;;;1.5479598;-1.2326427;-0.913419;;;;;1696.0
1867.0;1782.6;262143;262143;11256;;;;;;;;;;;;;;;;;;
1867.0;1785.3;;;;;;;;;;4.291665;91.864525;-124.881744;;;;;;;;;
1867.0;1785.3;;;;;;;0.4753563;-1.1764275;0.23084201;;;;;;;;;;;;
1867.0;1785.3;;;;;;;;;;6.3974423;92.92886;-124.881744;;;;;;;;;
1867.0;1785.3;;;;;;;0.47547838;-1.2117069;0.21991637;;;;;;;;;;;;
1868.0;1789.3;;;;;;;;;;;;;;;;;-79.710526;-21.900846;-110.82415;;1705.6
1868.0;1789.3;;;;;;;;;;;;;;1.2851955;-1.1255836;-0.83120215;;;;;1705.6
1868.0;1789.3;;;;;;;;;;;;;;;;;-76.12461;13.832514;-122.49367;;1705.6
1868.0;1789.3;;;;;;;;;;;;;;1.0954924;-1.0162053;-0.52919096;;;;;1705.6
1868.0;1789.3;;;;;;;;;;;;;;;;;-66.78595;17.529068;-124.988556;;1715.3
1868.0;1789.3;;;;;;;;;;;;;;1.1293069;-0.7715079;-0.33088169;;;;;1715.3
1868.0;1789.3;;;;;;;;;;;;;;;;;-49.87869;0.17929624;-124.988556;;1715.3
1868.0;1789.3;;;;;;;;;;;;;;1.1825312;-0.4953154;-0.33631396;;;;;1715.3
1868.0;1789.3;;;;;;;;;;;;;;;;;-31.548508;-14.9616995;-124.988556;;1724.9
1868.0;1789.3;;;;;;;;;;;;;;1.2123783;-0.35114598;-0.40552995;;;;;1724.9
1868.0;1789.3;;;;;;;;;;;;;;;;;-11.406293;-18.826105;-124.988556;;1724.9
1868.0;1789.3;;;;;;;;;;;;;;1.2756127;-0.25971252;-0.46388134;;;;;1724.9
1868.0;1789.2;;;;-0.30365756;1.290989;0.18829349;;;;;;;;;;;;;;;
1868.0;1789.2;;;;-0.3055916;1.2871324;0.1911278;;;;;;;;;;;;;;;
1868.0;1789.2;;;;-0.30736545;1.2824098;0.19477847;;;;;;;;;;;;;;;
1868.0;1789.2;;;;-0.30974963;1.276806;0.19808581;;;;;;;;;;;;;;;
1868.0;1789.2;;;;-0.31256488;1.270176;0.20164874;;;;;;;;;;;;;;;
1868.0;1794.7;;;;;;;;;;8.339183;94.19157;-124.881744;;;;;;;;;
1868.0;1794.7;;;;;;;0.47193822;-1.2495499;0.20752586;;;;;;;;;;;;
1868.0;1794.7;;;;;;;;;;10.219886;95.27497;-124.881744;;;;;;;;;
1868.0;1794.7;;;;;;;0.46766564;-1.2847072;0.19507432;;;;;;;;;;;;
1924.0;1799.1;;;;-0.31510928;1.2625123;0.20648196;;;;;;;;;;;;;;;
1924.0;1799.1;;;;-0.31834415;1.2546235;0.21127322;;;;;;;;;;;;;;;
1924.0;1799.1;;;;-0.32152942;1.2456857;0.21590045;;;;;;;;;;;;;;;
1924.0;1799.1;;;;-0.32538226;1.2361223;0.22096255;;;;;;;;;;;;;;;
1924.0;1799.1;;;;-0.3293381;1.2263032;0.2247658;;;;;;;;;;;;;;;
1924.0;1802.5;262143;262143;11244;;;;;;;;;;;;;;;;;;
1924.0;1804.2;;;;;;;;;;12.211219;96.32405;-124.881744;;;;;;;;;
1924.0;1804.2;;;;;;;0.4626606;-1.3187659;0.18555254;;;;;;;;;;;;
1924.0;1804.2;;;;;;;;;;14.091922;97.36549;-124.881744;;;;;;;;;
1924.0;1804.2;;;;;;;0.46626177;-1.3480026;0.17847225;;;;;;;;;;;;
1924.0;1808.4;;;;;;;;;;;;;14013;;;;;;;;
1924.0;1808.4;;;;;;;;;;;;;12794;;;;;;;;
1924.0;1808.4;;;;;;;;;;;;;6695;;;;;;;;
1924.0;1808.4;;;;;;;;;;;;;2999;;;;;;;;
1924.0;1808.4;;;;;;;;;;;;;2519;;;;;;;;
1924.0;1809.2;;;;-0.33363345;1.2155038;0.2286568;;;;;;;;;;;;;;;
1924.0;1809.2;;;;-0.33863834;1.2046167;0.23165515;;;;;;;;;;;;;;;
1924.0;1809.2;;;;-0.34368518;1.1935693;0.23491672;;;;;;;;;;;;;;;
1924.0;1809.2;;;;-0.34835437;1.1818544;0.23876575;;;;;;;;;;;;;;;
1924.0;1809.2;;;;-0.352932;1.170067;0.24081424;;;;;;;;;;;;;;;
1924.0;1813.6;;;;;;;;;;15.980255;98.658714;-124.881744;;;;;;;;;
1924.0;1813.6;;;;;;;0.47340313;-1.3735161;0.17383343;;;;;;;;;;;;
1924.0;1813.6;;;;;;;;;;17.81518;99.93285;-124.881744;;;;;;;;;
1924.0;1813.6;;;;;;;0.48402357;-1.3939024;0.16559343;;;;;;;;;;;;
1926.0;1819.1;;;;-0.3568497;1.1580201;0.24237445;;;;;;;;;;;;;;;
1926.0;1819.1;;;;-0.36000445;1.1457902;0.24346927;;;;;;;;;;;;;;;
1926.0;1819.1;;;;-0.36327747;1.133835;0.24377444;;;;;;;;;;;;;;;
1926.0;1819.1;;;;-0.3659859;1.1209337;0.24349979;;;;;;;;;;;;;;;
1926.0;1819.1;;;;-0.36813357;1.1082269;0.24277881;;;;;;;;;;;;;;;
1926.0;1822.6;262143;262143;11238;;;;;;;;;;;;;;;;;;
1926.0;1823.3;;;;;;;;;;19.501328;100.703445;-124.881744;;;;;;;;;
1926.0;1823.3;;;;;;;0.49128696;-1.414716;0.15704826;;;;;;;;;;;;
1926.0;1823.3;;;;;;;;;;21.015808;101.00482;-124.881744;;;;;;;;;
1926.0;1823.3;;;;;;;0.4909818;-1.4293039;0.15002899;;;;;;;;;;;;
1926.0;1829.2;;;;-0.37081912;1.0950738;0.24194339;;;;;;;;;;;;;;;
1926.0;1829.2;;;;-0.37307742;1.0814439;0.24139789;;;;;;;;;;;;;;;
1926.0;1829.2;;;;-0.3751107;1.0667192;0.24102786;;;;;;;;;;;;;;;
1926.0;1829.2;;;;-0.37679297;1.0518419;0.24096301;;;;;;;;;;;;;;;
1926.0;1829.2;;;;-0.37786108;1.0366899;0.24029163;;;;;;;;;;;;;;;
1926.0;1832.9;;;;;;;;;;22.51503;101.00864;-124.881744;;;;;;;;;
1926.0;1832.9;;;;;;;0.4883572;-1.4467604;0.14441359;;;;;;;;;;;;
1926.0;1832.9;;;;;;;;;;23.957031;100.817894;-124.881744;;;;;;;;;
1926.0;1832.9;;;;;;;0.48347422;-1.4610431;0.14288767;;;;;;;;;;;;
1927.0;1839.3;;;;-0.37942892;1.0217096;0.23918155;;;;;;;;;;;;;;;
1927.0;1839.3;;;;-0.38036734;1.0065461;0.23904422;;;;;;;;;;;;;;;
1927.0;1839.3;;;;-0.38143927;0.9915086;0.2385979;;;;;;;;;;;;;;;
1927.0;1839.3;;;;-0.38226706;0.97713864;0.23744968;;;;;;;;;;;;;;;
1927.0;1839.3;;;;-0.38249594;0.96284497;0.23658755;;;;;;;;;;;;;;;
1927.0;1842.0;;;;;;;;;;;;;;;;;5.4361095;-10.639516;-124.988556;;1734.6
1927.0;1842.0;;;;;;;;;;;;;;1.2870265;-0.25043488;-0.5040437;;;;;1734.6
1927.0;1842.0;;;;;;;;;;;;;;;;;13.557848;10.277108;-124.988556;;1734.6
1927.0;1842.0;;;;;;;;;;;;;;1.1863766;-0.15552233;-0.44624165;;;;;1734.6
1927.0;1842.0;;;;;;;;;;;;;;;;;11.226996;21.279032;-124.988556;;1744.1
1927.0;1842.0;;;;;;;;;;;;;;1.0785241;-0.038636435;-0.36707664;;;;;1744.1
1927.0;1842.0;;;;;;;;;;;;;;;;;9.93759;13.462478;-124.988556;;1744.1
1927.0;1842.0;;;;;;;;;;;;;;1.0565507;0.06994843;-0.28528702;;;;;1744.1
1927.0;1842.0;;;;;;;;;;;;;;;;;4.341258;-5.058443;-124.988556;;1753.8
1927.0;1842.0;;;;;;;;;;;;;;1.12302;0.11102634;-0.26819667;;;;;1753.8
1927.0;1842.0;;;;;;;;;;;;;;;;;3.2807398;-22.320475;-124.988556;;1753.8
1927.0;1842.0;;;;;;;;;;;;;;1.183813;0.12494278;-0.27686393;;;;;1753.8
1927.0;1842.4;;;;;;;;;;25.345621;100.33723;-124.881744;;;;;;;;;
1927.0;1842.4;;;;;;;0.47346416;-1.4769738;0.1353801;;;;;;;;;;;;
1927.0;1842.4;;;;;;;;;;26.84866;99.33012;-124.881744;;;;;;;;;
1927.0;1842.4;;;;;;;0.46259958;-1.4886318;0.12573627;;;;;;;;;;;;
1927.0;1842.7;262143;262143;11224;;;;;;;;;;;;;;;;;;
1929.0;1848.6;;;;;;;;;;;;;2441;;;;;;;;
1929.0;1848.6;;;;;;;;;;;;;1840;;;;;;;;
1929.0;1848.6;;;;;;;;;;;;;1403;;;;;;;;
1929.0;1848.6;;;;;;;;;;;;;1283;;;;;;;;
1929.0;1848.6;;;;;;;;;;;;;1371;;;;;;;;
1929.0;1849.3;;;;-0.38250738;0.9494325;0.23360828;;;;;;;;;;;;;;;
1929.0;1849.3;;;;-0.3820153;0.93654263;0.23239902;;;;;;;;;;;;;;;
1929.0;1849.3;;;;-0.38262945;0.92496884;0.23224643;;;;;;;;;;;;;;;
1929.0;1849.3;;;;-0.38359457;0.9135057;0.23063663;;;;;;;;;;;;;;;
1929.0;1849.3;;;;-0.38470465;0.902424;0.23027423;;;;;;;;;;;;;;;
1929.0;1849.6;;;;;;;;;;;;;;;;;4.058962;-19.863733;-124.988556;;1763.5
1929.0;1849.6;;;;;;;;;;;;;;1.266274;0.11926634;-0.24201179;;;;;1763.5
1929.0;1849.6;;;;;;;;;;;;;;;;;4.3221836;-8.957183;-124.988556;;1763.5
1929.0;1849.6;;;;;;;;;;;;;;1.2587664;0.060731836;-0.1431318;;;;;1763.5
1929.0;1849.6;;;;;;;;;;;;;;;;;0.5035554;-9.849849;-124.988556;;1773.1
1929.0;1849.6;;;;;;;;;;;;;;1.231666;0.0015869625;-0.107974485;;;;;1773.1
1929.0;1849.6;;;;;;;;;;;;;;;;;1.5068514;-14.351329;-124.988556;;1773.1
1929.0;1849.6;;;;;;;;;;;;;;1.2482071;-0.010010071;-0.16632588;;;;;1773.1
1929.0;1849.6;;;;;;;;;;;;;;;;;12.028108;-11.829738;-124.988556;;1782.7
1929.0;1849.6;;;;;;;;;;;;;;1.246559;-0.005859554;-0.20612201;;;;;1782.7
1929.0;1849.6;;;;;;;;;;;;;;;;;17.620625;-6.9620347;-124.988556;;1782.7
1929.0;1849.6;;;;;;;;;;;;;;1.1764885;0.029847102;-0.20343639;;;;;1782.7
1929.0;1851.9;;;;;;;;;;28.324991;97.849976;-124.881744;;;;;;;;;
1929.0;1851.9;;;;;;;0.45283365;-1.4934537;0.11175878;;;;;;;;;;;;
1929.0;1851.9;;;;;;;;;;29.694511;95.82049;-124.881744;;;;;;;;;
1929.0;1851.9;;;;;;;0.4423963;-1.4935758;0.098818935;;;;;;;;;;;;
2040.0;1859.2;;;;-0.38576895;0.8927156;0.23095706;;;;;;;;;;;;;;;
2040.0;1859.2;;;;-0.38719565;0.88378155;0.23200992;;;;;;;;;;;;;;;
2040.0;1859.2;;;;-0.38842398;0.8757173;0.23373035;;;;;;;;;;;;;;;
2040.0;1859.2;;;;-0.38952643;0.8682939;0.23575595;;;;;;;;;;;;;;;
2040.0;1859.2;;;;-0.3905068;0.86117184;0.23787692;;;;;;;;;;;;;;;
2040.0;1861.4;;;;;;;;;;31.155582;93.35612;-124.881744;;;;;;;;;
2040.0;1861.4;;;;;;;0.43476668;-1.4891201;0.0867336;;;;;;;;;;;;
2040.0;1861.4;;;;;;;;;;32.521286;90.42252;-124.881744;;;;;;;;;
2040.0;1861.4;;;;;;;0.4245735;-1.4785608;0.07586902;;;;;;;;;;;;
2040.0;1862.7;262143;262143;11232;;;;;;;;;;;;;;;;;;
2040.0;1869.2;;;;-0.39217764;0.8553926;0.24010089;;;;;;;;;;;;;;;
2040.0;1869.2;;;;-0.39493185;0.85004056;0.24341205;;;;;;;;;;;;;;;
2040.0;1869.2;;;;-0.3992234;0.8463403;0.24814227;;;;;;;;;;;;;;;
2040.0;1869.2;;;;-0.4045487;0.84308636;0.25334552;;;;;;;;;;;;;;;
2040.0;1869.2;;;;-0.41040045;0.8402864;0.25769427;;;;;;;;;;;;;;;
2040.0;1870.8;;;;;;;;;;33.738213;87.20283;-124.881744;;;;;;;;;
2040.0;1870.8;;;;;;;0.41554004;-1.4627521;0.065981016;;;;;;;;;;;;
2040.0;1870.8;;;;;;;;;;34.83306;83.77712;-124.881744;;;;;;;;;
2040.0;1870.8;;;;;;;0.40614033;-1.442854;0.057069615;;;;;;;;;;;;
2045.0;1879.0;;;;-0.41657263;0.83901227;0.2630501;;;;;;;;;;;;;;;
2045.0;1879.0;;;;-0.42147833;0.83807385;0.26726153;;;;;;;;;;;;;;;
2045.0;1879.0;;;;-0.42483526;0.8368417;0.27124408;;;;;;;;;;;;;;;
2045.0;1879.0;;;;-0.42854697;0.8365594;0.27574542;;;;;;;;;;;;;;;
2045.0;1879.0;;;;-0.43272406;0.83641446;0.27890018;;;;;;;;;;;;;;;
2045.0;1880.2;;;;;;;;;;35.91647;79.91653;-124.881744;;;;;;;;;
2045.0;1880.2;;;;;;;0.39783928;-1.4238105;0.050111394;;;;;;;;;;;;
2045.0;1880.2;;;;;;;;;;36.870174;75.7355;-124.881744;;;;;;;;;
2045.0;1880.2;;;;;;;0.38831753;-1.4007386;0.044312876;;;;;;;;;;;;
2045.0;1882.6;262143;262143;11225;;;;;;;;;;;;;;;;;;
2045.0;1888.5;;;;;;;;;;;;;1426;;;;;;;;
2045.0;1888.5;;;;;;;;;;;;;1179;;;;;;;;
2045.0;1888.5;;;;;;;;;;;;;734;;;;;;;;
2045.0;1888.5;;;;;;;;;;;;;371;;;;;;;;
2045.0;1888.5;;;;;;;;;;;;;88;;;;;;;;
2045.0;1889.1;;;;-0.43583685;0.8363;0.2820244;;;;;;;;;;;;;;;
2045.0;1889.1;;;;-0.43754965;0.8360101;0.28559497;;;;;;;;;;;;;;;
2045.0;1889.1;;;;-0.43947607;0.83646786;0.28800967;;;;;;;;;;;;;;;
2045.0;1889.1;;;;-0.4405442;0.8370973;0.28968814;;;;;;;;;;;;;;;
2045.0;1889.1;;;;-0.44120795;0.83742535;0.29195026;;;;;;;;;;;;;;;
2045.0;1889.9;;;;;;;;;;37.678917;71.50105;-124.881744;;;;;;;;;
2045.0;1889.9;;;;;;;0.3836787;-1.3746147;0.039063692;;;;;;;;;;;;
2045.0;1889.9;;;;;;;;;;38.58684;66.94617;-124.881744;;;;;;;;;
2045.0;1889.9;;;;;;;0.3782464;-1.3485519;0.034913175;;;;;;;;;;;;
2047.0;1899.2;;;;-0.4413758;0.8380319;0.294014;;;;;;;;;;;;;;;
2047.0;1899.2;;;;-0.4422875;0.8390695;0.29618838;;;;;;;;;;;;;;;
2047.0;1899.2;;;;-0.44411093;0.8404542;0.2979851;;;;;;;;;;;;;;;
2047.0;1899.2;;;;-0.4459229;0.8419572;0.29979327;;;;;;;;;;;;;;;
2047.0;1899.2;;;;-0.4478684;0.8438302;0.30136493;;;;;;;;;;;;;;;
2047.0;1899.5;;;;;;;;;;39.18958;62.135685;-124.881744;;;;;;;;;
2047.0;1899.5;;;;;;;0.3719596;-1.3196814;0.028748436;;;;;;;;;;;;
2047.0;1899.5;;;;;;;;;;39.517654;57.599873;-124.881744;;;;;;;;;
2047.0;1899.5;;;;;;;0.36774805;-1.2916044;0.025452437;;;;;;;;;;;;
2047.0;1902.1;;;;;;;;;;;;;;;;;13.893551;-4.2878504;-124.988556;;1792.4
2047.0;1902.1;;;;;;;;;;;;;;1.0772424;0.029053621;-0.2075869;;;;;1792.4
2047.0;1902.1;;;;;;;;;;;;;;;;;11.623737;-3.9292583;-124.988556;;1792.4
2047.0;1902.1;;;;;;;;;;;;;;0.9977111;-0.003418073;-0.16534929;;;;;1792.4
2047.0;1902.1;;;;;;;;;;;;;;;;;8.327739;-5.53148;-124.988556;;1802.0
2047.0;1902.1;;;;;;;;;;;;;;0.96230966;0.038819544;-0.103152566;;;;;1802.0
2047.0;1902.1;;;;;;;;;;;;;;;;;1.5640736;-8.316295;-124.988556;;1802.0
2047.0;1902.1;;;;;;;;;;;;;;0.91488385;0.050965913;-0.06591998;;;;;1802.0
2047.0;1902.1;;;;;;;;;;;;;;;;;1.4191107;-12.096774;-124.988556;;1811.6
2047.0;1902.1;;;;;;;;;;;;;;0.88876003;0.013733329;-0.06427198;;;;;1811.6
2047.0;1902.1;;;;;;;;;;;;;;;;;-0.59892577;-13.222144;-124.988556;;1811.6
2047.0;1902.1;;;;;;;;;;;;;;0.85439616;0.04242073;-0.06225776;;;;;1811.6
2048.0;1903.2;;;;;;;;;;;;;;;;;-5.4818873;-13.91644;-124.988556;;1821.3
2048.0;1903.2;;;;;;;;;;;;;;0.8463393;0.056825466;-0.08966338;;;;;1821.3
2048.0;1903.2;;;;;;;;;;;;;;;;;-8.312479;-12.401958;-124.988556;;1821.3
2048.0;1903.2;;;;;;;;;;;;;;0.8550066;0.04095584;-0.0966216;;;;;1821.3
2048.0;1903.2;;;;;;;;;;;;;;;;;-14.511552;-8.785516;-124.988556;;1831.0
2048.0;1903.2;;;;;;;;;;;;;;0.840846;0.087710194;-0.09442427;;;;;1831.0
2048.0;1903.2;;;;;;;;;;;;;;;;;-22.881252;-2.2850735;-124.93515;;1831.0
2048.0;1903.2;;;;;;;;;;;;;;0.8915067;0.072206795;-0.16290781;;;;;1831.0
2048.0;1903.2;;;;;;;;;;;;;;;;;-28.874325;19.871365;-124.69863;;1840.6
2048.0;1903.2;;;;;;;;;;;;;;0.82326734;0.096804716;-0.13751641;;;;;1840.6
2048.0;1903.2;;;;;;;;;;;;;;;;;-33.82977;23.03003;-122.48222;;1840.6
2048.0;1903.2;;;;;;;;;;;;;;0.6537065;0.10296945;0.07660146;;;;;1840.6
2048.0;1902.7;262143;262143;11228;;;;;;;;;;;;;;;;;;
2048.0;1908.7;;;;;;;;;;39.963985;53.28532;-124.881744;;;;;;;;;
2048.0;1908.7;;;;;;;0.36677146;-1.267922;0.03009125;;;;;;;;;;;;
2048.0;1908.7;;;;;;;;;;40.45991;49.70702;-124.881744;;;;;;;;;
2048.0;1908.7;;;;;;;0.36878568;-1.2471083;0.0380871;;;;;;;;;;;;
2048.0;1909.0;;;;-0.4493218;0.84533703;0.30305865;;;;;;;;;;;;;;;
2048.0;1909.0;;;;-0.45148093;0.8479425;0.30484393;;;;;;;;;;;;;;;
2048.0;1909.0;;;;-0.45312887;0.8510896;0.30684665;;;;;;;;;;;;;;;
2048.0;1909.0;;;;-0.4551316;0.8535348;0.30796817;;;;;;;;;;;;;;;
2048.0;1909.0;;;;-0.45616537;0.85554516;0.30858997;;;;;;;;;;;;;;;
2050.0;1918.3;;;;;;;;;;40.53621;46.30802;-124.881744;;;;;;;;;
2050.0;1918.3;;;;;;;0.37305826;-1.2336802;0.04712058;;;;;;;;;;;;
2050.0;1918.3;;;;;;;;;;40.566727;42.806026;-124.881744;;;;;;;;;
2050.0;1918.3;;;;;;;0.3688467;-1.2251961;0.048829615;;;;;;;;;;;;
2050.0;1919.0;;;;-0.45640188;0.857319;0.3093529;;;;;;;;;;;;;;;
2050.0;1919.0;;;;-0.45727545;0.85917294;0.31019977;;;;;;;;;;;;;;;
2050.0;1919.0;;;;-0.45785528;0.86005795;0.30994037;;;;;;;;;;;;;;;
2050.0;1919.0;;;;-0.45825964;0.861477;0.30937198;;;;;;;;;;;;;;;
2050.0;1919.0;;;;-0.45877463;0.86281216;0.30846027;;;;;;;;;;;;;;;
2050.0;1922.7;262143;262143;11224;;;;;;;;;;;;;;;;;;
2050.0;1927.7;;;;;;;;;;40.635395;39.853355;-124.881744;;;;;;;;;
2050.0;1927.7;;;;;;;0.36787012;-1.2172003;0.046815395;;;;;;;;;;;;
2050.0;1927.7;;;;;;;;;;40.608692;37.43477;-124.881744;;;;;;;;;
2050.0;1927.7;;;;;;;0.3640248;-1.2074953;0.042481765;;;;;;;;;;;;
2050.0;1928.4;;;;;;;;;;;;;-423;;;;;;;;
2050.0;1928.4;;;;;;;;;;;;;-1171;;;;;;;;
2050.0;1928.4;;;;;;;;;;;;;-1845;;;;;;;;
2050.0;1928.4;;;;;;;;;;;;;-2274;;;;;;;;
2050.0;1928.4;;;;;;;;;;;;;-2453;;;;;;;;
2050.0;1928.8;;;;-0.4586373;0.86400235;0.30655673;;;;;;;;;;;;;;;
2050.0;1928.8;;;;-0.4588967;0.86568844;0.3047562;;;;;;;;;;;;;;;
2050.0;1928.8;;;;-0.4593926;0.86784756;0.30241778;;;;;;;;;;;;;;;
2050.0;1928.8;;;;-0.4599915;0.86970913;0.29911807;;;;;;;;;;;;;;;
2050.0;1928.8;;;;-0.46053702;0.8710557;0.29575732;;;;;;;;;;;;;;;
2053.0;1937.3;;;;;;;;;;40.57817;35.12299;-124.881744;;;;;;;;;
2053.0;1937.3;;;;;;;0.36194953;-1.1935179;0.03607288;;;;;;;;;;;;
2053.0;1937.3;;;;;;;;;;40.551468;32.88751;-124.881744;;;;;;;;;
2053.0;1937.3;;;;;;;0.35822627;-1.1742913;0.028931547;;;;;;;;;;;;
2053.0;1939.0;;;;-0.46166998;0.87228024;0.291935;;;;;;;;;;;;;;;
2053.0;1939.0;;;;-0.4626313;0.8731233;0.28878787;;;;;;;;;;;;;;;
2053.0;1939.0;;;;-0.4637795;0.8742181;0.2852936;;;;;;;;;;;;;;;
2053.0;1939.0;;;;-0.464428;0.87541974;0.28162006;;;;;;;;;;;;;;;
2053.0;1939.0;;;;-0.46498877;0.87622845;0.27907947;;;;;;;;;;;;;;;
2053.0;1942.7;262143;262143;11233;;;;;;;;;;;;;;;;;;
2053.0;1946.9;;;;;;;;;;40.494247;30.70925;-124.881744;;;;;;;;;
2053.0;1946.9;;;;;;;0.35163426;-1.1509751;0.023682363;;;;;;;;;;;;
2053.0;1946.9;;;;;;;;;;40.341652;28.733177;-124.881744;;;;;;;;;
2053.0;1946.9;;;;;;;0.34430984;-1.1279031;0.017761772;;;;;;;;;;;;
2053.0;1949.1;;;;-0.46569067;0.87739956;0.27691653;;;;;;;;;;;;;;;
2053.0;1949.1;;;;-0.466034;0.87926877;0.27614978;;;;;;;;;;;;;;;
2053.0;1949.1;;;;-0.46669394;0.8811914;0.27516177;;;;;;;;;;;;;;;
2053.0;1949.1;;;;-0.46797186;0.884308;0.27487567;;;;;;;;;;;;;;;
2053.0;1949.1;;;;-0.4695893;0.88775647;0.27650073;;;;;;;;;;;;;;;
2053.0;1956.5;;;;;;;;;;40.0708;26.852474;-124.881744;;;;;;;;;
2053.0;1956.5;;;;;;;0.3361919;-1.1050752;0.013183996;;;;;;;;;;;;
2053.0;1956.5;;;;;;;;;;39.487133;25.223547;-124.881744;;;;;;;;;
2053.0;1956.5;;;;;;;0.32636493;-1.0798059;0.007812738;;;;;;;;;;;;
2056.0;1959.2;;;;-0.47148138;0.89211667;0.27824405;;;;;;;;;;;;;;;
2056.0;1959.2;;;;-0.47335058;0.89782345;0.28091815;;;;;;;;;;;;;;;
2056.0;1959.2;;;;-0.4754792;0.9036828;0.28524783;;;;;;;;;;;;;;;
2056.0;1959.2;;;;-0.47690588;0.9105722;0.28977206;;;;;;;;;;;;;;;
2056.0;1959.2;;;;-0.47853476;0.917698;0.29372028;;;;;;;;;;;;;;;
2056.0;1962.2;;;;;;;;;;;;;;;;;-40.311134;7.511368;-117.21397;;1850.3
2056.0;1962.2;;;;;;;;;;;;;;0.7044893;0.1015656;-0.020935697;;;;;1850.3
2056.0;1962.2;;;;;;;;;;;;;;;;;-46.720024;8.556626;-112.49123;;1850.3
2056.0;1962.2;;;;;;;;;;;;;;0.70998263;0.11328471;-0.0717185;;;;;1850.3
2056.0;1962.2;;;;;;;;;;;;;;;;;-53.823208;10.963775;-109.74456;;1859.7
2056.0;1962.2;;;;;;;;;;;;;;0.71352273;0.029114658;-0.20368053;;;;;1859.7
2056.0;1962.2;;;;;;;;;;;;;;;;;-56.230354;15.236365;-106.490524;;1859.7
2056.0;1962.2;;;;;;;;;;;;;;0.6077456;0.079775386;-0.14056826;;;;;1859.7
2056.0;1962.2;;;;;;;;;;;;;;;;;-59.18302;11.318552;-98.601494;;1869.4
2056.0;1962.2;;;;;;;;;;;;;;0.5816828;0.015869625;-0.14404736;;;;;1869.4
2056.0;1962.2;;;;;;;;;;;;;;;;;-58.553577;10.635701;-93.45531;;1869.4
2056.0;1962.2;;;;;;;;;;;;;;0.60768455;0.04156621;-0.13556322;;;;;1869.4
2057.0;1963.0;;;;;;;;;;;;;;;;;-61.593983;12.203589;-88.63719;;1879.1
2057.0;1963.0;;;;;;;;;;;;;;0.60267955;0.06457717;-0.12372204;;;;;1879.1
2057.0;1963.0;;;;;;;;;;;;;;;;;-64.72976;11.146885;-84.04797;;1879.1
2057.0;1963.0;;;;;;;;;;;;;;0.59364605;0.04589984;-0.13995789;;;;;1879.1
2057.0;1963.0;;;;;;;;;;;;;;;;;-64.13465;8.774072;-79.309975;;1888.8
2057.0;1963.0;;;;;;;;;;;;;;0.6007874;0.057924133;-0.17413862;;;;;1888.8
2057.0;1963.0;;;;;;;;;;;;;;;;;-60.934017;7.4274426;-74.33546;;1888.8
2057.0;1963.0;;;;;;;;;;;;;;0.60444957;0.05023347;-0.2069155;;;;;1888.8
2057.0;1963.0;;;;;;;;;;;;;;;;;-56.737724;6.904813;-68.67427;;1898.4
2057.0;1963.0;;;;;;;;;;;;;;0.5978576;0.07928709;-0.2207709;;;;;1898.4
2057.0;1963.0;;;;;;;;;;;;;;;;;-49.58113;6.9963684;-61.677906;;1898.4
2057.0;1963.0;;;;;;;;;;;;;;0.5944395;0.05780206;-0.22632527;;;;;1898.4
2057.0;1962.8;262143;262143;11223;;;;;;;;;;;;;;;;;;
2057.0;1966.0;;;;;;;;;;38.87295;23.960846;-124.881744;;;;;;;;;
2057.0;1966.0;;;;;;;0.32294688;-1.058443;0.0028077029;;;;;;;;;;;;
2057.0;1966.0;;;;;;;;;;38.090916;23.007141;-124.881744;;;;;;;;;
2057.0;1966.0;;;;;;;0.31946775;-1.0351268;-0.003295999;;;;;;;;;;;;
2057.0;1968.7;;;;;;;;;;;;;-2523;;;;;;;;
2057.0;1968.7;;;;;;;;;;;;;-2579;;;;;;;;
2057.0;1968.7;;;;;;;;;;;;;-2528;;;;;;;;
2057.0;1968.7;;;;;;;;;;;;;-2367;;;;;;;;
2057.0;1968.7;;;;;;;;;;;;;-2083;;;;;;;;
2060.0;1969.1;;;;-0.47949225;0.9252168;0.29742816;;;;;;;;;;;;;;;
2060.0;1969.1;;;;-0.47956473;0.9327661;0.3012772;;;;;;;;;;;;;;;
2060.0;1969.1;;;;-0.47824103;0.9404489;0.30497745;;;;;;;;;;;;;;;
2060.0;1969.1;;;;-0.4767266;0.94729626;0.3081284;;;;;;;;;;;;;;;
2060.0;1969.1;;;;-0.47590262;0.9535104;0.31111148;;;;;;;;;;;;;;;
2060.0;1975.6;;;;;;;;;;37.106693;22.358622;-124.881744;;;;;;;;;
2060.0;1975.6;;;;;;;0.3177587;-1.0128483;-0.007019257;;;;;;;;;;;;
2060.0;1975.6;;;;;;;;;;36.084324;22.049623;-124.881744;;;;;;;;;
2060.0;1975.6;;;;;;;0.31763664;-0.99050874;-0.00921659;;;;;;;;;;;;
2060.0;1979.1;;;;-0.47478873;0.9591943;0.3154755;;;;;;;;;;;;;;;
2060.0;1979.1;;;;-0.47370917;0.9649049;0.32075122;;;;;;;;;;;;;;;
2060.0;1979.1;;;;-0.47238165;0.9695436;0.32564548;;;;;;;;;;;;;;;
2060.0;1979.1;;;;-0.47147375;0.9737283;0.33018115;;;;;;;;;;;;;;;
2060.0;1979.1;;;;-0.47111517;0.9773942;0.33399585;;;;;;;;;;;;;;;
2060.0;1983.0;262143;262143;11231;;;;;;;;;;;;;;;;;;
2060.0;1985.1;;;;;;;;;;35.09247;22.068699;-124.881744;;;;;;;;;
2060.0;1985.1;;;;;;;0.319834;-0.97109896;-0.008789331;;;;;;;;;;;;
2060.0;1985.1;;;;;;;;;;33.948025;22.18314;-124.881744;;;;;;;;;
2060.0;1985.1;;;;;;;0.32129887;-0.9544969;-0.006836146;;;;;;;;;;;;
2100.0;1989.2;;;;-0.47142035;0.9809152;0.3362389;;;;;;;;;;;;;;;
2100.0;1989.2;;;;-0.47195822;0.98391354;0.33802798;;;;;;;;;;;;;;;
2100.0;1989.2;;;;-0.4722367;0.988083;0.33921817;;;;;;;;;;;;;;;
2100.0;1989.2;;;;-0.47237402;0.9920541;0.3394356;;;;;;;;;;;;;;;
2100.0;1989.2;;;;-0.47248083;0.99618924;0.337719;;;;;;;;;;;;;;;
2100.0;1994.4;;;;;;;;;;32.64336;22.431105;-124.881744;;;;;;;;;
2100.0;1994.4;;;;;;;0.32013917;-0.94106877;-0.009643849;;;;;;;;;;;;
2100.0;1994.4;;;;;;;;;;31.319622;23.075808;-124.87029;;;;;;;;;
2100.0;1994.4;;;;;;;0.31611073;-0.92934966;-0.01330607;;;;;;;;;;;;
2100.0;1998.9;;;;-0.4721375;1.0010263;0.33514407;;;;;;;;;;;;;;;
2100.0;1998.9;;;;-0.47170645;1.0057145;0.3318558;;;;;;;;;;;;;;;
2100.0;1998.9;;;;-0.4711991;1.0106508;0.32834247;;;;;;;;;;;;;;;
2100.0;1998.9;;;;-0.4703179;1.0153466;0.32519916;;;;;;;;;;;;;;;
2100.0;1998.9;;;;-0.46954733;1.0201455;0.32078174;;;;;;;;;;;;;;;
2100.0;2002.7;262143;262143;11224;;;;;;;;;;;;;;;;;;
2100.0;2003.8;;;;;;;;;;30.068361;23.998993;-124.717705;;;;;;;;;
2100.0;2003.8;;;;;;;0.31586656;-0.91799676;-0.022461623;;;;;;;;;;;;
2100.0;2003.8;;;;;;;;;;28.584398;25.715658;-123.27952;;;;;;;;;
2100.0;2003.8;;;;;;;0.3192236;-0.90524;-0.030762658;;;;;;;;;;;;
2100.0;2008.5;;;;;;;;;;;;;-1539;;;;;;;;
2100.0;2008.5;;;;;;;;;;;;;-663;;;;;;;;
2100.0;2008.5;;;;;;;;;;;;;392;;;;;;;;
2100.0;2008.5;;;;;;;;;;;;;1332;;;;;;;;
2100.0;2008.5;;;;;;;;;;;;;1837;;;;;;;;
2102.0;2008.9;;;;-0.469513;1.024254;0.3162575;;;;;;;;;;;;;;;
2102.0;2008.9;;;;-0.4689408;1.028248;0.311245;;;;;;;;;;;;;;;
2102.0;2008.9;;;;-0.4687081;1.0319024;0.3068085;;;;;;;;;;;;;;;
2102.0;2008.9;;;;-0.46889502;1.0353013;0.30210498;;;;;;;;;;;;;;;
2102.0;2008.9;;;;-0.46887594;1.0386125;0.29799274;;;;;;;;;;;;;;;
2102.0;2013.4;;;;;;;;;;26.711327;29.202398;-120.76556;;;;;;;;;
2102.0;2013.4;;;;;;;0.32953885;-0.893643;-0.04077273;;;;;;;;;;;;
2102.0;2013.4;;;;;;;;;;24.914547;34.867397;-118.23252;;;;;;;;;
2102.0;2013.4;;;;;;;0.3471175;-0.8858913;-0.05389569;;;;;;;;;;;;
2102.0;2019.0;;;;-0.4685021;1.0420991;0.29420856;;;;;;;;;;;;;;;
2102.0;2019.0;;;;-0.46856695;1.0454904;0.2902489;;;;;;;;;;;;;;;
2102.0;2019.0;;;;-0.46830374;1.0495645;0.28703693;;;;;;;;;;;;;;;
2102.0;2019.0;;;;-0.4680596;1.0539781;0.28369525;;;;;;;;;;;;;;;
2102.0;2019.0;;;;-0.46833044;1.0591966;0.2816811;;;;;;;;;;;;;;;
2103.0;2022.1;;;;;;;;;;;;;;;;;-42.947174;8.346813;-57.13065;;1908.0
2103.0;2022.1;;;;;;;;;;;;;;0.59993285;0.10974456;-0.22467726;;;;;1908.0
2103.0;2022.1;;;;;;;;;;;;;;;;;-36.679432;11.387218;-51.984467;;1908.0
2103.0;2022.1;;;;;;;;;;;;;;0.5767388;0.095156714;-0.22327341;;;;;1908.0
2103.0;2022.1;;;;;;;;;;;;;;;;;-31.228065;14.873959;-46.910763;;1917.6
2103.0;2022.1;;;;;;;;;;;;;;0.54896694;0.15692617;-0.18903165;;;;;1917.6
2103.0;2022.1;;;;;;;;;;;;;;;;;-27.51625;16.754663;-42.336803;;1917.6
2103.0;2022.1;;;;;;;;;;;;;;0.4965972;0.105288856;-0.1981872;;;;;1917.6
2103.0;2022.1;;;;;;;;;;;;;;;;;-22.61803;18.784143;-37.453842;;1927.1
2103.0;2022.1;;;;;;;;;;;;;;0.44538713;0.16559343;-0.18396558;;;;;1927.1
2103.0;2022.1;;;;;;;;;;;;;;;;;-18.967255;17.929625;-32.13599;;1927.1
2103.0;2022.1;;;;;;;;;;;;;;0.39930418;0.20587787;-0.19495223;;;;;1927.1
2103.0;2023.0;;;;;;;;;;23.415327;42.863247;-115.67278;;;;;;;;;
2103.0;2023.0;;;;;;;0.37006745;-0.8789331;-0.06732383;;;;;;;;;;;;
2103.0;2023.0;;;;;;;;;;22.099216;52.74743;-112.82311;;;;;;;;;
2103.0;2023.0;;;;;;;0.3960082;-0.87112033;-0.07928709;;;;;;;;;;;;
2109.0;2023.3;;;;;;;;;;;;;;;;;-16.117588;17.212439;-26.711327;;1936.8
2109.0;2023.3;;;;;;;;;;;;;;0.35193944;0.2614826;-0.19507432;;;;;1936.8
2109.0;2023.3;;;;;;;;;;;;;;;;;-13.611256;16.987364;-21.607105;;1936.8
2109.0;2023.3;;;;;;;;;;;;;;0.35065767;0.33277383;-0.19605091;;;;;1936.8
2109.0;2023.3;;;;;;;;;;;;;;;;;-11.246071;16.090885;-15.572069;;1946.5
2109.0;2023.3;;;;;;;;;;;;;;0.35474715;0.40711692;-0.20990631;;;;;1946.5
2109.0;2023.3;;;;;;;;;;;;;;;;;-12.8215885;14.370403;-7.148961;;1946.5
2109.0;2023.3;;;;;;;;;;;;;;0.35456404;0.5355998;-0.21051668;;;;;1946.5
2109.0;2023.3;;;;;;;;;;;;;;;;;-12.802515;8.541368;1.7166661;;1956.0
2109.0;2023.3;;;;;;;;;;;;;;0.37739187;0.50251776;-0.2575152;;;;;1956.0
2109.0;2023.3;;;;;;;;;;;;;;;;;-9.147923;3.3455918;2.357555;;1956.0
2109.0;2023.3;;;;;;;;;;;;;;0.47804195;0.6167791;-0.2865688;;;;;1956.0
2109.0;2022.9;262143;262143;11221;;;;;;;;;;;;;;;;;;
2109.0;2028.9;;;;-0.46850592;1.0643197;0.2804108;;;;;;;;;;;;;;;
2109.0;2028.9;;;;-0.46847922;1.0700265;0.2798691;;;;;;;;;;;;;;;
2109.0;2028.9;;;;-0.46863562;1.0762216;0.27962115;;;;;;;;;;;;;;;
2109.0;2028.9;;;;-0.4690476;1.0823556;0.2809029;;;;;;;;;;;;;;;
2109.0;2028.9;;;;-0.46920782;1.0887529;0.28144458;;;;;;;;;;;;;;;
2109.0;2032.5;;;;;;;;;;20.924253;64.39024;-109.61485;;;;;;;;;
2109.0;2032.5;;;;;;;0.4210944;-0.86233103;-0.090151675;;;;;;;;;;;;
2109.0;2032.5;;;;;;;;;;19.432661;77.15461;-106.14338;;;;;;;;;
2109.0;2032.5;;;;;;;0.43885615;-0.8526872;-0.09820856;;;;;;;;;;;;
2163.0;2039.0;;;;-0.46978766;1.0955888;0.2828026;;;;;;;;;;;;;;;
2163.0;2039.0;;;;-0.47043234;1.1023217;0.2834969;;;;;;;;;;;;;;;
2163.0;2039.0;;;;-0.47184378;1.1097718;0.28432468;;;;;;;;;;;;;;;
2163.0;2039.0;;;;-0.47430044;1.1175042;0.28472903;;;;;;;;;;;;;;;
2163.0;2039.0;;;;-0.47783667;1.1253701;0.2848015;;;;;;;;;;;;;;;
2163.0;2042.1;;;;;;;;;;17.517624;89.491714;-102.33619;;;;;;;;;
2163.0;2042.1;;;;;;;0.4441664;-0.8428602;-0.10382397;;;;;;;;;;;;
2163.0;2042.1;;;;;;;;;;15.682699;100.310524;-98.364975;;;;;;;;;
2163.0;2042.1;;;;;;;0.4367809;-0.8384045;-0.10711997;;;;;;;;;;;;
2163.0;2043.0;262143;262143;11236;;;;;;;;;;;;;;;;;;
2163.0;2048.7;;;;;;;;;;;;;1715;;;;;;;;
2163.0;2048.7;;;;;;;;;;;;;1320;;;;;;;;
2163.0;2048.7;;;;;;;;;;;;;1184;;;;;;;;
2163.0;2048.7;;;;;;;;;;;;;1356;;;;;;;;
2163.0;2048.7;;;;;;;;;;;;;1567;;;;;;;;
2163.0;2049.0;;;;-0.4816323;1.1337129;0.28536227;;;;;;;;;;;;;;;
2163.0;2049.0;;;;-0.48655707;1.1423684;0.2855759;;;;;;;;;;;;;;;
2163.0;2049.0;;;;-0.49217612;1.1519319;0.28545;;;;;;;;;;;;;;;
2163.0;2049.0;;;;-0.49771124;1.1620523;0.2861481;;;;;;;;;;;;;;;
2163.0;2049.0;;;;-0.50331885;1.1723977;0.2867165;;;;;;;;;;;;;;;
2163.0;2051.5;;;;;;;;;;13.954588;110.02304;-94.37468;;;;;;;;;
2163.0;2051.5;;;;;;;0.41865292;-0.83242285;-0.10876797;;;;;;;;;;;;
2163.0;2051.5;;;;;;;;;;12.218848;119.16334;-90.69719;;;;;;;;;
2163.0;2051.5;;;;;;;0.40003663;-0.8296762;-0.10711997;;;;;;;;;;;;
2167.0;2058.8;;;;-0.50819784;1.1828309;0.28713992;;;;;;;;;;;;;;;
2167.0;2058.8;;;;-0.5125199;1.194275;0.28646472;;;;;;;;;;;;;;;
2167.0;2058.8;;;;-0.5158463;1.2059213;0.28702167;;;;;;;;;;;;;;;
2167.0;2058.8;;;;-0.5190354;1.2179681;0.28711703;;;;;;;;;;;;;;;
2167.0;2058.8;;;;-0.52219397;1.2306329;0.2878571;;;;;;;;;;;;;;;
2167.0;2061.0;;;;;;;;;;10.364849;124.416336;-87.4279;;;;;;;;;
2167.0;2061.0;;;;;;;0.37226477;-0.8229621;-0.100711085;;;;;;;;;;;;
2167.0;2061.0;;;;;;;;;;8.243813;124.881744;-84.27305;;;;;;;;;
2167.0;2061.0;;;;;;;0.3449202;-0.8158208;-0.092471085;;;;;;;;;;;;
2167.0;2062.9;262143;262143;11244;;;;;;;;;;;;;;;;;;
2167.0;2068.9;;;;-0.5246354;1.243168;0.28831103;;;;;;;;;;;;;;;
2167.0;2068.9;;;;-0.5256234;1.255787;0.28891757;;;;;;;;;;;;;;;
2167.0;2068.9;;;;-0.52694327;1.2679254;0.2906418;;;;;;;;;;;;;;;
2167.0;2068.9;;;;-0.52670676;1.2807046;0.29132083;;;;;;;;;;;;;;;
2167.0;2068.9;;;;-0.5255013;1.2932054;0.29293063;;;;;;;;;;;;;;;
2167.0;2070.6;;;;;;;;;;5.962554;124.881744;-81.25172;;;;;;;;;
2167.0;2070.6;;;;;;;0.31562242;-0.81099886;-0.0822779;;;;;;;;;;;;
2167.0;2070.6;;;;;;;;;;3.543962;124.881744;-78.41349;;;;;;;;;
2167.0;2070.6;;;;;;;0.2834559;-0.8052614;-0.074648276;;;;;;;;;;;;
2168.0;2079.0;;;;-0.52312094;1.3052484;0.29418185;;;;;;;;;;;;;;;
2168.0;2079.0;;;;-0.5223618;1.3174516;0.29602817;;;;;;;;;;;;;;;
2168.0;2079.0;;;;-0.52122504;1.3294374;0.29726413;;;;;;;;;;;;;;;
2168.0;2079.0;;;;-0.52066046;1.3405763;0.29789737;;;;;;;;;;;;;;;
2168.0;2079.0;;;;-0.51990896;1.3511926;0.29883578;;;;;;;;;;;;;;;
2168.0;2080.2;;;;;;;;;;1.1101108;124.881744;-75.44939;;;;;;;;;
2168.0;2080.2;;;;;;;0.25647756;-0.7992187;-0.06805628;;;;;;;;;;;;
2168.0;2080.2;;;;;;;;;;-1.2741477;124.881744;-72.37083;;;;;;;;;
2168.0;2080.2;;;;;;;0.23303933;-0.79500717;-0.0629902;;;;;;;;;;;;
2168.0;2082.3;;;;;;;;;;;;;;;;;-5.3178506;-0.9346294;3.1205175;;1965.7
2168.0;2082.3;;;;;;;;;;;;;;0.57979065;0.79213846;-0.34302804;;;;;1965.7
2168.0;2082.3;;;;;;;;;;;;;;;;;-1.4191107;-7.820368;7.023072;;1965.7
2168.0;2082.3;;;;;;;;;;;;;;0.6383862;0.86983854;-0.37781915;;;;;1965.7
2168.0;2082.3;;;;;;;;;;;;;;;;;1.6441847;-18.925291;10.258034;;1975.3
2168.0;2082.3;;;;;;;;;;;;;;0.7525254;0.97036654;-0.4390393;;;;;1975.3
2168.0;2082.3;;;;;;;;;;;;;;;;;6.9429607;-30.49562;11.726737;;1975.3
2168.0;2082.3;;;;;;;;;;;;;;0.84591204;1.0501419;-0.51173437;;;;;1975.3
2168.0;2082.3;;;;;;;;;;;;;;;;;17.014069;-38.785213;9.086886;;1984.9
2168.0;2082.3;;;;;;;;;;;;;;0.8366344;1.0228584;-0.55867183;;;;;1984.9
2168.0;2082.3;;;;;;;;;;;;;;;;;24.536882;-47.78054;8.301035;;1984.9
2168.0;2082.3;;;;;;;;;;;;;;0.9088412;1.0653402;-0.5744804;;;;;1984.9
2170.0;2083.0;;;;;;;;;;;;;;;;;25.8034;-52.16376;7.4121833;;1994.4
2170.0;2083.0;;;;;;;;;;;;;;0.94485307;1.0817591;-0.61922055;;;;;1994.4
2170.0;2083.0;;;;;;;;;;;;;;;;;20.123142;-50.59587;7.37022;;1994.4
2170.0;2083.0;;;;;;;;;;;;;;0.93710136;1.0843227;-0.6436964;;;;;1994.4
2170.0;2083.0;;;;;;;;;;;;;;;;;7.4846644;-47.315136;9.273812;;2004.1
2170.0;2083.0;;;;;;;;;;;;;;0.9300821;0.96841335;-0.6440016;;;;;2004.1
2170.0;2083.0;;;;;;;;;;;;;;;;;-16.716515;-40.97873;15.202032;;2004.1
2170.0;2083.0;;;;;;;;;;;;;;0.90267646;0.8451186;-0.61610764;;;;;2004.1
2170.0;2083.0;;;;;;;;;;;;;;;;;-50.25254;-28.893398;20.825068;;2013.8
2170.0;2083.0;;;;;;;;;;;;;;0.8665426;0.7521592;-0.5525071;;;;;2013.8
2170.0;2083.0;;;;;;;;;;;;;;;;;-85.19242;-13.981292;27.95114;;2013.8
2170.0;2083.0;;;;;;;;;;;;;;0.8400525;0.61378825;-0.47474593;;;;;2013.8
2170.0;2082.9;262143;262143;11243;;;;;;;;;;;;;;;;;;
2170.0;2088.7;;;;;;;;;;;;;1574;;;;;;;;
2170.0;2088.7;;;;;;;;;;;;;1306;;;;;;;;
2170.0;2088.7;;;;;;;;;;;;;1063;;;;;;;;
2170.0;2088.7;;;;;;;;;;;;;986;;;;;;;;
2170.0;2088.7;;;;;;;;;;;;;783;;;;;;;;
2170.0;2088.9;;;;-0.51943594;1.3613282;0.30025867;;;;;;;;;;;;;;;
2170.0;2088.9;;;;-0.518673;1.3706666;0.30165866;;;;;;;;;;;;;;;
2170.0;2088.9;;;;-0.51705176;1.3803979;0.30302814;;;;;;;;;;;;;;;
2170.0;2088.9;;;;-0.51523596;1.3886491;0.3037491;;;;;;;;;;;;;;;
2170.0;2088.9;;;;-0.5138131;1.3960191;0.30344394;;;;;;;;;;;;;;;
2223.0;2089.6;;;;;;;;;;-3.7347028;124.881744;-69.24268;;;;;;;;;
2223.0;2089.6;;;;;;;0.21289712;-0.7871334;-0.059938353;;;;;;;;;;;;
2223.0;2089.6;;;;;;;;;;-6.0541096;124.881744;-66.09165;;;;;;;;;
2223.0;2089.6;;;;;;;0.19586779;-0.78078556;-0.05444502;;;;;;;;;;;;
2223.0;2098.9;;;;-0.5128556;1.4034234;0.30188754;;;;;;;;;;;;;;;
2223.0;2098.9;;;;-0.51188666;1.40971;0.3008118;;;;;;;;;;;;;;;
2223.0;2098.9;;;;-0.51170355;1.4157869;0.29993823;;;;;;;;;;;;;;;
2223.0;2098.9;;;;-0.5122376;1.4211999;0.29992297;;;;;;;;;;;;;;;
2223.0;2098.9;;;;-0.5142327;1.4257852;0.29962543;;;;;;;;;;;;;;;
2223.0;2099.1;;;;;;;;;;-8.320109;124.881744;-62.74987;;;;;;;;;
2223.0;2099.1;;;;;;;0.18817712;-0.7790765;-0.049256876;;;;;;;;;;;;
2223.0;2099.1;;;;;;;;;;-10.475478;124.881744;-59.29365;;;;;;;;;
2223.0;2099.1;;;;;;;0.18012024;-0.78127384;-0.046205025;;;;;;;;;;;;
2223.0;2103.0;262143;262143;11250;;;;;;;;;;;;;;;;;;
2223.0;2108.6;;;;;;;;;;-12.5927;124.881744;-55.677204;;;;;;;;;
2223.0;2108.6;;;;;;;0.17529832;-0.7842647;-0.04181036;;;;;;;;;;;;
2223.0;2108.6;;;;;;;;;;-14.717551;124.332405;-51.881466;;;;;;;;;
2223.0;2108.6;;;;;;;0.17206335;-0.78835416;-0.038636435;;;;;;;;;;;;
2223.0;2108.9;;;;-0.5158883;1.4296342;0.29899982;;;;;;;;;;;;;;;
2223.0;2108.9;;;;-0.51676565;1.4329492;0.29708865;;;;;;;;;;;;;;;
2223.0;2108.9;;;;-0.51700217;1.4359285;0.29566577;;;;;;;;;;;;;;;
2223.0;2108.9;;;;-0.51634985;1.4378015;0.2947655;;;;;;;;;;;;;;;
2223.0;2108.9;;;;-0.51504904;1.4393159;0.29311374;;;;;;;;;;;;;;;
2228.0;2117.9;;;;;;;;;;-16.819515;121.066925;-47.894985;;;;;;;;;
2228.0;2117.9;;;;;;;0.17035432;-0.7941527;-0.03607288;;;;;;;;;;;;
2228.0;2117.9;;;;;;;;;;-18.944365;115.543076;-43.630024;;;;;;;;;
2228.0;2117.9;;;;;;;0.16827907;-0.8002564;-0.03338725;;;;;;;;;;;;
2228.0;2118.6;;;;-0.51393133;1.4398957;0.29228976;;;;;;;;;;;;;;;
2228.0;2118.6;;;;-0.51303107;1.4393808;0.2914696;;;;;;;;;;;;;;;
2228.0;2118.6;;;;-0.51219183;1.4379045;0.29164508;;;;;;;;;;;;;;;
2228.0;2118.6;;;;-0.5125428;1.4349481;0.29169086;;;;;;;;;;;;;;;
2228.0;2118.6;;;;-0.5124932;1.432377;0.29285052;;;;;;;;;;;;;;;
2228.0;2122.8;262143;262143;11266;;;;;;;;;;;;;;;;;;
2228.0;2127.5;;;;;;;;;;-21.107365;109.405045;-39.242985;;;;;;;;;
2228.0;2127.5;;;;;;;0.16565447;-0.8039186;-0.030396435;;;;;;;;;;;;
2228.0;2127.5;;;;;;;;;;-23.308512;102.62993;-34.760582;;;;;;;;;
2228.0;2127.5;;;;;;;0.16095462;-0.8094729;-0.027283547;;;;;;;;;;;;
2228.0;2128.6;;;;;;;;;;;;;513;;;;;;;;
2228.0;2128.6;;;;;;;;;;;;;623;;;;;;;;
2228.0;2128.6;;;;;;;;;;;;;1116;;;;;;;;
2228.0;2128.6;;;;;;;;;;;;;1656;;;;;;;;
2228.0;2128.6;;;;;;;;;;;;;1808;;;;;;;;
2228.0;2128.7;;;;-0.5117989;1.4284707;0.29272845;;;;;;;;;;;;;;;
2228.0;2128.7;;;;-0.5101586;1.424038;0.29177096;;;;;;;;;;;;;;;
2228.0;2128.7;;;;-0.50702673;1.4198343;0.29054263;;;;;;;;;;;;;;;
2228.0;2128.7;;;;-0.5029908;1.415001;0.2894707;;;;;;;;;;;;;;;
2228.0;2128.7;;;;-0.4981423;1.4105073;0.2886887;;;;;;;;;;;;;;;
2229.0;2137.1;;;;;;;;;;-25.57451;95.4619;-30.220953;;;;;;;;;
2229.0;2137.1;;;;;;;0.15771966;-0.814478;-0.022339549;;;;;;;;;;;;
2229.0;2137.1;;;;;;;;;;-27.83288;88.08787;-25.543993;;;;;;;;;
2229.0;2137.1;;;;;;;0.15533921;-0.822779;-0.01800592;;;;;;;;;;;;
2229.0;2138.8;;;;-0.49234396;1.4060708;0.28805926;;;;;;;;;;;;;;;
2229.0;2138.8;;;;-0.4869576;1.401539;0.28851703;;;;;;;;;;;;;;;
2229.0;2138.8;;;;-0.48275763;1.3975412;0.28816608;;;;;;;;;;;;;;;
2229.0;2138.8;;;;-0.4795838;1.3933755;0.2887955;;;;;;;;;;;;;;;
2229.0;2138.8;;;;-0.4777184;1.3894082;0.29021457;;;;;;;;;;;;;;;
2229.0;2142.1;;;;;;;;;;;;;;;;;-116.29459;3.1243324;36.8511;;2023.5
2229.0;2142.1;;;;;;;;;;;;;;0.8191168;0.4634541;-0.38093203;;;;;2023.5
2229.0;2142.1;;;;;;;;;;;;;;;;;-124.95804;18.650625;47.078617;;2023.5
2229.0;2142.1;;;;;;;;;;;;;;0.7811518;0.29773858;-0.23987548;;;;;2023.5
2229.0;2142.1;;;;;;;;;;;;;;;;;-124.988556;29.25962;58.17591;;2033.0
2229.0;2142.1;;;;;;;;;;;;;;0.7752312;0.13660085;-0.041505173;;;;;2033.0
2229.0;2142.1;;;;;;;;;;;;;;;;;-124.988556;40.059357;69.83016;;2033.0
2229.0;2142.1;;;;;;;;;;;;;;0.7951903;-0.060548723;0.16577655;;;;;2033.0
2229.0;2142.1;;;;;;;;;;;;;;;;;-124.988556;53.067875;80.82064;;2042.6
2229.0;2142.1;;;;;;;;;;;;;;0.7803583;-0.26673177;0.33790094;;;;;2042.6
2229.0;2142.1;;;;;;;;;;;;;;;;;-124.87411;59.244057;90.735344;;2042.6
2229.0;2142.1;;;;;;;;;;;;;;0.7109592;-0.38831753;0.43665883;;;;;2042.6
2233.0;2142.9;;;;;;;;;;;;;;;;;-108.13853;51.88528;99.76119;;2052.3
2233.0;2142.9;;;;;;;;;;;;;;0.63753164;-0.40992463;0.47871333;;;;;2052.3
2233.0;2142.9;;;;;;;;;;;;;;;;;-53.01828;27.424694;106.08616;;2052.3
2233.0;2142.9;;;;;;;;;;;;;;0.6085391;-0.32044435;0.3192236;;;;;2052.3
2233.0;2142.9;;;;;;;;;;;;;;;;;11.219367;-13.607441;105.20112;;2061.9
2233.0;2142.9;;;;;;;;;;;;;;0.5767998;-0.06915494;0.03540147;;;;;2061.9
2233.0;2142.9;;;;;;;;;;;;;;;;;72.35938;-74.15998;91.79586;;2061.9
2233.0;2142.9;;;;;;;;;;;;;;0.70583206;0.4148076;-0.35462508;;;;;2061.9
2233.0;2142.9;;;;;;;;;;;;;;;;;114.684746;-118.81619;67.5718;;2071.6
2233.0;2142.9;;;;;;;;;;;;;;0.93093663;0.7767571;-0.66176337;;;;;2071.6
2233.0;2142.9;;;;;;;;;;;;;;;;;124.725334;-124.988556;47.212135;;2071.6
2233.0;2142.9;;;;;;;;;;;;;;1.3177892;1.0264596;-1.0104069;;;;;2071.6
2233.0;2142.8;262143;262143;11263;;;;;;;;;;;;;;;;;;
2233.0;2146.5;;;;;;;;;;-29.995878;80.595566;-20.725883;;;;;;;;;
2233.0;2146.5;;;;;;;0.15540025;-0.8305307;-0.013122959;;;;;;;;;;;;
2233.0;2146.5;;;;;;;;;;-32.34199;73.09183;-15.923033;;;;;;;;;
2233.0;2146.5;;;;;;;0.16144292;-0.83950317;-0.008301035;;;;;;;;;;;;
2233.0;2148.7;;;;-0.4759789;1.3862382;0.29246524;;;;;;;;;;;;;;;
2233.0;2148.7;;;;-0.47482306;1.382763;0.29460147;;;;;;;;;;;;;;;
2233.0;2148.7;;;;-0.47450644;1.3788682;0.29522708;;;;;;;;;;;;;;;
2233.0;2148.7;;;;-0.47492224;1.3754846;0.2952614;;;;;;;;;;;;;;;
2233.0;2148.7;;;;-0.47710043;1.372181;0.2928467;;;;;;;;;;;;;;;
2284.0;2156.1;;;;;;;;;;-34.829247;65.86276;-11.112552;;;;;;;;;
2284.0;2156.1;;;;;;;0.16577655;-0.8509171;5.4933317E-4;;;;;;;;;;;;
2284.0;2156.1;;;;;;;;;;-37.331768;58.68328;-6.1151466;;;;;;;;;
2284.0;2156.1;;;;;;;0.1694998;-0.86269724;0.008789331;;;;;;;;;;;;
2284.0;2158.7;;;;-0.48066336;1.3691446;0.28567126;;;;;;;;;;;;;;;
2284.0;2158.7;;;;-0.4861794;1.3657037;0.27571872;;;;;;;;;;;;;;;
2284.0;2158.7;;;;-0.49311072;1.3621866;0.26571658;;;;;;;;;;;;;;;
2284.0;2158.7;;;;-0.50116736;1.3605272;0.2567177;;;;;;;;;;;;;;;
2284.0;2158.7;;;;-0.5085946;1.3593599;0.24434283;;;;;;;;;;;;;;;
2284.0;2163.0;262143;262143;11219;;;;;;;;;;;;;;;;;;
2284.0;2165.6;;;;;;;;;;-39.857174;51.90054;-0.87740713;;;;;;;;;
2284.0;2165.6;;;;;;;0.1726127;-0.8734397;0.017639698;;;;;;;;;;;;
2284.0;2165.6;;;;;;;;;;-42.275764;45.796837;4.581591;;;;;;;;;
2284.0;2165.6;;;;;;;0.17859432;-0.8827174;0.027344584;;;;;;;;;;;;
2284.0;2168.6;;;;;;;;;;;;;1371;;;;;;;;
2284.0;2168.6;;;;;;;;;;;;;706;;;;;;;;
2284.0;2168.6;;;;;;;;;;;;;241;;;;;;;;
2284.0;2168.6;;;;;;;;;;;;;80;;;;;;;;
2284.0;2168.6;;;;;;;;;;;;;317;;;;;;;;
2284.0;2168.6;;;;-0.5162392;1.3567735;0.23088458;;;;;;;;;;;;;;;
2284.0;2168.6;;;;-0.5225182;1.3547822;0.21863559;;;;;;;;;;;;;;;
2284.0;2168.6;;;;-0.5283242;1.3515283;0.21070865;;;;;;;;;;;;;;;
2284.0;2168.6;;;;-0.5334931;1.3484193;0.20903781;;;;;;;;;;;;;;;
2284.0;2168.6;;;;-0.5378724;1.3456041;0.2093468;;;;;;;;;;;;;;;
2286.0;2174.9;;;;;;;;;;-44.763023;40.01358;10.101626;;;;;;;;;
2286.0;2174.9;;;;;;;0.18109684;-0.88845485;0.03625599;;;;;;;;;;;;
2286.0;2174.9;;;;;;;;;;-47.116764;34.661396;15.633106;;;;;;;;;
2286.0;2174.9;;;;;;;0.18573564;-0.896939;0.04571673;;;;;;;;;;;;
2286.0;2178.6;;;;-0.5413018;1.3410188;0.21267322;;;;;;;;;;;;;;;
2286.0;2178.6;;;;-0.54518515;1.3354379;0.21936038;;;;;;;;;;;;;;;
2286.0;2178.6;;;;-0.54931647;1.3293344;0.23281482;;;;;;;;;;;;;;;
2286.0;2178.6;;;;-0.5521012;1.3226053;0.24932483;;;;;;;;;;;;;;;
2286.0;2178.6;;;;-0.55400854;1.3138772;0.2669678;;;;;;;;;;;;;;;
2286.0;2183.0;262143;262143;11083;;;;;;;;;;;;;;;;;;
2286.0;2184.5;;;;;;;;;;-49.256878;29.725029;21.065401;;;;;;;;;
2286.0;2184.5;;;;;;;0.18933684;-0.9022492;0.05719169;;;;;;;;;;;;
2286.0;2184.5;;;;;;;;;;-51.17954;25.017548;26.528215;;;;;;;;;
2286.0;2184.5;;;;;;;0.19293801;-0.9112827;0.06579791;;;;;;;;;;;;
2286.0;2188.7;;;;-0.5557557;1.3035699;0.28255084;;;;;;;;;;;;;;;
2286.0;2188.7;;;;-0.55811316;1.2928125;0.29885867;;;;;;;;;;;;;;;
2286.0;2188.7;;;;-0.56047827;1.2817842;0.3137665;;;;;;;;;;;;;;;
2286.0;2188.7;;;;-0.5607415;1.2693979;0.3320084;;;;;;;;;;;;;;;
2286.0;2188.7;;;;-0.5606881;1.2581025;0.3488579;;;;;;;;;;;;;;;
2286.0;2194.2;;;;;;;;;;-53.36543;20.57329;32.044437;;;;;;;;;
2286.0;2194.2;;;;;;;0.1976989;-0.9218421;0.07495346;;;;;;;;;;;;
2286.0;2194.2;;;;;;;;;;-55.49028;16.655478;37.522507;;;;;;;;;
2286.0;2194.2;;;;;;;0.2059389;-0.9341105;0.08362072;;;;;;;;;;;;
2287.0;2198.8;;;;-0.5588952;1.2474023;0.36487582;;;;;;;;;;;;;;;
2287.0;2198.8;;;;-0.5539437;1.2371217;0.38200766;;;;;;;;;;;;;;;
2287.0;2198.8;;;;-0.54609686;1.2252198;0.39852148;;;;;;;;;;;;;;;
2287.0;2198.8;;;;-0.5350457;1.2119104;0.41194922;;;;;;;;;;;;;;;
2287.0;2198.8;;;;-0.5248452;1.201893;0.4244042;;;;;;;;;;;;;;;
2287.0;2202.7;;;;;;;;;;;;;;;;;123.27952;-124.988556;57.355724;;2081.2
2287.0;2202.7;;;;;;;;;;;;;;1.1980957;0.544023;-1.1420026;;;;;2081.2
2287.0;2202.7;;;;;;;;;;;;;;;;;78.51268;-118.82764;66.29002;;2081.2
2287.0;2202.7;;;;;;;;;;;;;;1.368511;0.25318155;-0.90444654;;;;;2081.2
2287.0;2202.7;;;;;;;;;;;;;;;;;1.5221107;-63.55861;83.91446;;2090.8
2287.0;2202.7;;;;;;;;;;;;;;1.7796564;0.008667257;-0.6715293;;;;;2090.8
2287.0;2202.7;;;;;;;;;;;;;;;;;-33.8641;19.898067;95.458084;;2090.8
2287.0;2202.7;;;;;;;;;;;;;;1.9959716;-0.33912167;-0.3230079;;;;;2090.8
2287.0;2202.7;;;;;;;;;;;;;;;;;-18.86044;67.1598;88.51131;;2100.5
2287.0;2202.7;;;;;;;;;;;;;;1.996765;-0.4623554;0.09552293;;;;;2100.5
2287.0;2202.7;;;;;;;;;;;;;;;;;4.016999;36.919765;68.685715;;2100.5
2287.0;2202.7;;;;;;;;;;;;;;1.9683828;-0.25305948;0.040223397;;;;;2100.5
2289.0;2203.5;;;;;;;;;;;;;;;;;13.412886;-12.565996;54.58617;;2110.1
2289.0;2203.5;;;;;;;;;;;;;;1.78576;0.013733329;-0.32447278;;;;;2110.1
2289.0;2203.5;;;;;;;;;;;;;;;;;13.611256;-24.849695;54.96002;;2110.1
2289.0;2203.5;;;;;;;;;;;;;;1.4946135;0.08026368;-0.48072755;;;;;2110.1
2289.0;2203.5;;;;;;;;;;;;;;;;;14.507736;-23.892178;60.46861;;2119.7
2289.0;2203.5;;;;;;;;;;;;;;1.193701;0.052369762;-0.44404432;;;;;2119.7
2289.0;2203.5;;;;;;;;;;;;;;;;;14.728996;-28.744621;65.36302;;2119.7
2289.0;2203.5;;;;;;;;;;;;;;0.91799676;-0.0027466659;-0.4267098;;;;;2119.7
2289.0;2203.5;;;;;;;;;;;;;;;;;13.027589;-28.019806;66.35106;;2129.2
2289.0;2203.5;;;;;;;;;;;;;;0.6812342;-0.031250954;-0.3971679;;;;;2129.2
2289.0;2203.5;;;;;;;;;;;;;;;;;10.036775;-25.341806;66.1565;;2129.2
2289.0;2203.5;;;;;;;;;;;;;;0.5174108;-0.07519761;-0.34156317;;;;;2129.2
2289.0;2203.6;;;;;;;;;;-57.348095;12.88644;43.00821;;;;;;;;;
2289.0;2203.6;;;;;;;0.21350749;-0.94827116;0.091921754;;;;;;;;;;;;
2289.0;2203.6;;;;;;;;;;-59.11054;9.075441;48.490097;;;;;;;;;
2289.0;2203.6;;;;;;;0.21723075;-0.96169925;0.09930723;;;;;;;;;;;;
2289.0;2203.1;262143;262143;10889;;;;;;;;;;;;;;;;;;
2289.0;2208.7;;;;-0.5162545;1.194069;0.4400292;;;;;;;;;;;;;;;
2289.0;2208.7;;;;-0.5072556;1.1867334;0.45347983;;;;;;;;;;;;;;;
2289.0;2208.7;;;;-0.4981194;1.1785012;0.44918448;;;;;;;;;;;;;;;
2289.0;2208.7;;;;-0.48629004;1.172619;0.45922095;;;;;;;;;;;;;;;
2289.0;2208.7;;;;-0.47308356;1.1675416;0.4701119;;;;;;;;;;;;;;;
2402.0;2208.7;;;;;;;;;;;;;888;;;;;;;;
2402.0;2208.7;;;;;;;;;;;;;1337;;;;;;;;
2402.0;2208.7;;;;;;;;;;;;;1578;;;;;;;;
2402.0;2208.7;;;;;;;;;;;;;1834;;;;;;;;
2402.0;2208.7;;;;;;;;;;;;;1899;;;;;;;;
2402.0;2213.2;;;;;;;;;;-60.79287;5.53148;54.055912;;;;;;;;;
2402.0;2213.2;;;;;;;0.22058779;-0.9742729;0.10425123;;;;;;;;;;;;
2402.0;2213.2;;;;;;;;;;-62.3455;2.4605548;59.621723;;;;;;;;;
2402.0;2213.2;;;;;;;0.22431104;-0.98727375;0.1060213;;;;;;;;;;;;
2402.0;2218.7;;;;-0.46155936;1.162098;0.47131735;;;;;;;;;;;;;;;
2402.0;2218.7;;;;-0.4500466;1.1588899;0.4766236;;;;;;;;;;;;;;;
2402.0;2218.7;;;;-0.43688208;1.1547395;0.48371512;;;;;;;;;;;;;;;
2402.0;2218.7;;;;-0.42420202;1.1502801;0.48694235;;;;;;;;;;;;;;;
2402.0;2218.7;;;;-0.4159432;1.1487275;0.47256857;;;;;;;;;;;;;;;
2402.0;2222.7;;;;;;;;;;-63.680687;-0.42344433;65.11506;;;;;;;;;
2402.0;2222.7;;;;;;;0.22779016;-0.99795526;0.10754723;;;;;;;;;;;;
2402.0;2222.7;;;;;;;;;;-65.06928;-3.1395917;70.55498;;;;;;;;;
2402.0;2222.7;;;;;;;0.22858363;-1.0118717;0.1081576;;;;;;;;;;;;
2402.0;2223.1;262143;262143;10653;;;;;;;;;;;;;;;;;;
2402.0;2228.7;;;;-0.40848166;1.1558458;0.47819906;;;;;;;;;;;;;;;
2402.0;2228.7;;;;-0.39498907;1.1536714;0.47512823;;;;;;;;;;;;;;;
2402.0;2228.7;;;;-0.38586432;1.1536752;0.46903998;;;;;;;;;;;;;;;
2402.0;2228.7;;;;-0.38022238;1.1542512;0.46850973;;;;;;;;;;;;;;;
2402.0;2228.7;;;;-0.37318805;1.1491929;0.4640618;;;;;;;;;;;;;;;
2480.0;2232.1;;;;;;;;;;-66.35869;-5.882443;75.964386;;;;;;;;;
2480.0;2232.1;;;;;;;0.2318186;-1.0298166;0.107181005;;;;;;;;;;;;
2480.0;2232.1;;;;;;;;;;-67.58706;-8.58333;81.423386;;;;;;;;;
2480.0;2232.1;;;;;;;0.2360912;-1.0465407;0.10724204;;;;;;;;;;;;
2480.0;2238.6;;;;-0.3700371;1.1452867;0.45893484;;;;;;;;;;;;;;;
2480.0;2238.6;;;;-0.36615375;1.140114;0.44733435;;;;;;;;;;;;;;;
2480.0;2238.6;;;;-0.36262134;1.1358033;0.4442292;;;;;;;;;;;;;;;
2480.0;2238.6;;;;-0.3622513;1.1333085;0.4379006;;;;;;;;;;;;;;;
2480.0;2238.6;;;;-0.3610268;1.130253;0.43357855;;;;;;;;;;;;;;;
2480.0;2241.6;;;;;;;;;;-68.620865;-11.2384405;86.8862;;;;;;;;;
2480.0;2241.6;;;;;;;0.24042481;-1.0638142;0.105838194;;;;;;;;;;;;
2480.0;2241.6;;;;;;;;;;-69.563126;-14.126255;92.28416;;;;;;;;;
2480.0;2241.6;;;;;;;0.24817652;-1.0753502;0.106631674;;;;;;;;;;;;
2480.0;2243.1;262143;262143;10349;;;;;;;;;;;;;;;;;;
2480.0;2248.7;;;;-0.36418155;1.1282655;0.42696387;;;;;;;;;;;;;;;
2480.0;2248.7;;;;-0.36660007;1.1236688;0.42562872;;;;;;;;;;;;;;;
2480.0;2248.7;;;;-0.37168506;1.1171914;0.4261437;;;;;;;;;;;;;;;
2480.0;2248.7;;;;-0.380951;1.1088563;0.41102988;;;;;;;;;;;;;;;
2480.0;2248.7;;;;-0.3911553;1.1043359;0.41958243;;;;;;;;;;;;;;;
2480.0;2248.8;;;;;;;;;;;;;1752;;;;;;;;
2480.0;2248.8;;;;;;;;;;;;;1614;;;;;;;;
2480.0;2248.8;;;;;;;;;;;;;1162;;;;;;;;
2480.0;2248.8;;;;;;;;;;;;;572;;;;;;;;
2480.0;2248.8;;;;;;;;;;;;;1103;;;;;;;;
2484.0;2251.3;;;;;;;;;;-70.421455;-16.83096;97.54479;;;;;;;;;
2484.0;2251.3;;;;;;;0.25745416;-1.0840175;0.11047701;;;;;;;;;;;;
2484.0;2251.3;;;;;;;;;;-71.51631;-19.363995;102.63756;;;;;;;;;
2484.0;2251.3;;;;;;;0.26502272;-1.0867031;0.115421005;;;;;;;;;;;;
2484.0;2258.8;;;;-0.39196783;1.093319;0.3961907;;;;;;;;;;;;;;;
2484.0;2258.8;;;;-0.40685278;1.0927545;0.4002877;;;;;;;;;;;;;;;
2484.0;2258.8;;;;-0.41545874;1.0883828;0.3693352;;;;;;;;;;;;;;;
2484.0;2258.8;;;;-0.42200094;1.1078149;0.35033038;;;;;;;;;;;;;;;
2484.0;2258.8;;;;-0.42451864;1.1188699;0.3558884;;;;;;;;;;;;;;;
2484.0;2260.9;;;;;;;;;;-72.51198;-21.847439;107.490005;;;;;;;;;
2484.0;2260.9;;;;;;;0.26789147;-1.0889004;0.1246376;;;;;;;;;;;;
2484.0;2260.9;;;;;;;;;;-73.30164;-24.277475;112.178406;;;;;;;;;
2484.0;2260.9;;;;;;;0.26783043;-1.083346;0.13434248;;;;;;;;;;;;
2484.0;2262.3;;;;;;;;;;;;;;;;;8.220923;-27.684103;66.698204;;2138.9
2484.0;2262.3;;;;;;;;;;;;;;0.43751335;-0.15875728;-0.35059664;;;;;2138.9
2484.0;2262.3;;;;;;;;;;;;;;;;;11.993774;-28.374584;65.95813;;2138.9
2484.0;2262.3;;;;;;;;;;;;;;0.44026002;-0.2809534;-0.35145116;;;;;2138.9
2484.0;2262.3;;;;;;;;;;;;;;;;;25.58977;-28.176214;68.08298;;2148.5
2484.0;2262.3;;;;;;;;;;;;;;0.4611957;-0.38569292;-0.3114719;;;;;2148.5
2484.0;2262.3;;;;;;;;;;;;;;;;;46.220284;-30.739769;72.48146;;2148.5
2484.0;2262.3;;;;;;;;;;;;;;0.44557023;-0.46375927;-0.31373027;;;;;2148.5
2484.0;2262.3;;;;;;;;;;;;;;;;;67.640465;-34.61562;73.75179;;2158.2
2484.0;2262.3;;;;;;;;;;;;;;0.4143803;-0.46656698;-0.34205145;;;;;2158.2
2484.0;2262.3;;;;;;;;;;;;;;;;;77.62765;-37.331768;70.00946;;2158.2
2484.0;2262.3;;;;;;;;;;;;;;0.45124668;-0.35059664;-0.43287453;;;;;2158.2
2486.0;2263.2;;;;;;;;;;;;;;;;;81.617935;-34.413433;69.28846;;2167.7
2486.0;2263.2;;;;;;;;;;;;;;0.54585403;-0.22791223;-0.48036134;;;;;2167.7
2486.0;2263.2;;;;;;;;;;;;;;;;;87.6072;-32.780697;71.1272;;2167.7
2486.0;2263.2;;;;;;;;;;;;;;0.67085785;-0.18518631;-0.4875637;;;;;2167.7
2486.0;2263.2;;;;;;;;;;;;;;;;;90.93371;-33.41777;72.264015;;2177.3
2486.0;2263.2;;;;;;;;;;;;;;0.82253486;-0.15375225;-0.5297403;;;;;2177.3
2486.0;2263.2;;;;;;;;;;;;;;;;;90.121155;-31.235695;72.4395;;2177.3
2486.0;2263.2;;;;;;;;;;;;;;0.99807733;-0.103152566;-0.53596604;;;;;2177.3
2486.0;2263.2;;;;;;;;;;;;;;;;;87.05787;-27.768028;71.72231;;2187.0
2486.0;2263.2;;;;;;;;;;;;;;1.1859493;-0.05816828;-0.52339244;;;;;2187.0
2486.0;2263.2;;;;;;;;;;;;;;;;;84.28068;-24.842066;68.40342;;2187.0
2486.0;2263.2;;;;;;;;;;;;;;1.3721732;1.8311106E-4;-0.5022126;;;;;2187.0
2486.0;2263.1;249291;262143;9750;;;;;;;;;;;;;;;;;;
2486.0;2268.7;;;;-0.43290716;1.1250535;0.34339145;;;;;;;;;;;;;;;
2486.0;2268.7;;;;-0.4410668;1.1288034;0.32554248;;;;;;;;;;;;;;;
2486.0;2268.7;;;;-0.44660574;1.138054;0.30758289;;;;;;;;;;;;;;;
2486.0;2268.7;;;;-0.44883353;1.1436464;0.30217364;;;;;;;;;;;;;;;
2486.0;2268.7;;;;-0.45167166;1.1437379;0.2917786;;;;;;;;;;;;;;;
2486.0;2270.2;;;;;;;;;;-73.942535;-26.882992;116.443375;;;;;;;;;
2486.0;2270.2;;;;;;;0.26569414;-1.0760826;0.14239937;;;;;;;;;;;;
2486.0;2270.2;;;;;;;;;;-74.49568;-29.553362;120.35737;;;;;;;;;
