patientId;holterMac;flexMac;;;;;;;;;;;;;;;;;;;;
;CA:F3:0B:1E:33:78;D3:4A:5C:52:80:78;;;;;;;;;;;;;;;;;;;;
receivedTimeStamp;timeStamp;red;ir;green;adxl_accX;adxl_accY;adxl_accZ;lsm_accelX;lsm_accelY;lsm_accelZ;lsm_gyroX;lsm_gyroY;lsm_gyroZ;ecg;flex_lsm_accelX;flex_lsm_accelY;flex_lsm_accelZ;flex_lsm_gyroX;flex_lsm_gyroY;flex_lsm_gyroZ;flex_cmd;flexTimeStamp
274.0;217.8;;;;;;;;;;;;;;;;;;;;17;0.1
274.0;217.8;;;;;;;;;;;;;;;;;13.508256;0.56840724;0.7057405;;127.5
274.0;217.8;;;;;;;;;;;;;;1.2091434;0.2487869;-0.3963744;;;;;127.5
274.0;217.8;;;;;;;;;;;;;;;;;-5.245369;-18.791773;-6.0808134;;127.5
274.0;217.8;;;;;;;;;;;;;;1.2334361;0.46095157;-0.46278268;;;;;127.5
274.0;217.8;;;;;;;;;;;;;;;;;-61.883907;-85.47853;-58.523056;;137.1
274.0;217.8;;;;;;;;;;;;;;1.1606189;0.6358837;-0.49049348;;;;;137.1
274.0;217.8;;;;;;;;;;;;;;;;;-121.860405;-124.988556;-118.251595;;137.1
274.0;217.8;;;;;;;;;;;;;;1.0632038;0.7342143;-0.48548844;;;;;137.1
336.0;218.6;;;;;;;;;;;;;;;;;-46.468246;-124.988556;-67.018654;;146.7
336.0;218.6;;;;;;;;;;;;;;0.95974606;0.7563707;-0.44050416;;;;;146.7
336.0;218.6;;;;;;;;;;;;;;;;;37.07236;-124.988556;-5.3292947;;146.7
336.0;218.6;;;;;;;;;;;;;;0.88216805;0.7571032;-0.3780633;;;;;146.7
336.0;218.6;;;;;;;;;;;;;;;;;36.099583;-98.81131;7.187109;;156.4
336.0;218.6;;;;;;;;;;;;;;0.8373669;0.7404401;-0.32868436;;;;;156.4
336.0;218.6;;;;;;;;;;;;;;;;;25.116734;-13.920255;34.405804;;156.4
336.0;218.6;;;;;;;;;;;;;;0.80751973;0.6950896;-0.3071383;;;;;156.4
336.0;218.6;;;;;;;;;;;;;;;;;16.209145;-11.017182;38.460953;;166.0
336.0;218.6;;;;;;;;;;;;;;0.783227;0.62581253;-0.29981384;;;;;166.0
336.0;218.6;;;;;;;;;;;;;;;;;7.492294;-16.624958;40.948208;;166.0
336.0;218.6;;;;;;;;;;;;;;0.77462083;0.5568407;-0.30323192;;;;;166.0
336.0;277.8;;;;;;;;;;;;;;;;;-0.7705924;-22.43492;43.599506;;175.7
336.0;277.8;;;;;;;;;;;;;;0.78090763;0.49903867;-0.30024108;;;;;175.7
336.0;277.8;;;;;;;;;;;;;;;;;-8.152257;-28.431807;45.89221;;175.7
336.0;277.8;;;;;;;;;;;;;;0.7937864;0.43964964;-0.30048525;;;;;175.7
336.0;277.8;;;;;;;;;;;;;;;;;-14.606922;-34.18073;48.65795;;185.1
336.0;277.8;;;;;;;;;;;;;;0.8124027;0.3822138;-0.3091525;;;;;185.1
336.0;277.8;;;;;;;;;;;;;;;;;-19.699697;-38.819546;51.48854;;185.1
336.0;277.8;;;;;;;;;;;;;;0.8379162;0.3267922;-0.3211768;;;;;185.1
336.0;277.8;;;;;;;;;;;;;;;;;-23.823511;-41.180912;54.0788;;194.6
336.0;277.8;;;;;;;;;;;;;;0.85726494;0.27521592;-0.32789087;;;;;194.6
336.0;277.8;;;;;;;;;;;;;;;;;-26.684622;-41.795097;56.772057;;194.6
336.0;277.8;;;;;;;;;;;;;;0.875576;0.22894986;-0.33460495;;;;;194.6
398.0;278.6;;;;;;;;;;;;;;;;;-28.618732;-41.169468;59.286022;;204.3
398.0;278.6;;;;;;;;;;;;;;0.88412124;0.1902524;-0.34284493;;;;;204.3
398.0;278.6;;;;;;;;;;;;;;;;;-30.259102;-39.46806;61.07898;;204.3
398.0;278.6;;;;;;;;;;;;;;0.8913846;0.1610767;-0.35407576;;;;;204.3
398.0;278.6;;;;;;;;;;;;;;;;;-31.994843;-36.458176;62.467575;;213.9
398.0;278.6;;;;;;;;;;;;;;0.891995;0.13513596;-0.3630482;;;;;213.9
398.0;278.6;;;;;;;;;;;;;;;;;-34.48973;-32.532734;63.245796;;213.9
398.0;278.6;;;;;;;;;;;;;;0.8971831;0.113773;-0.3569445;;;;;213.9
398.0;278.6;;;;;;;;;;;;;;;;;-37.789547;-28.462324;63.497574;;223.6
398.0;278.6;;;;;;;;;;;;;;0.89889216;0.09277627;-0.3388165;;;;;223.6
398.0;278.6;;;;;;;;;;;;;;;;;-41.55095;-25.215918;63.58531;;223.6
398.0;278.6;;;;;;;;;;;;;;0.90298164;0.07373272;-0.3188574;;;;;223.6
398.0;338.4;;;;;;;;;;;;;;;;;-45.274208;-22.92703;63.440353;;233.2
398.0;338.4;;;;;;;;;;;;;;0.90896326;0.059083834;-0.2987762;;;;;233.2
398.0;338.4;;;;;;;;;;;;;;;;;-48.551136;-21.855068;63.131355;;233.2
398.0;338.4;;;;;;;;;;;;;;0.91317487;0.047608875;-0.28595844;;;;;233.2
398.0;338.4;;;;;;;;;;;;;;;;;-51.14139;-21.629993;62.7575;;242.9
398.0;338.4;;;;;;;;;;;;;;0.9157384;0.042542804;-0.27790156;;;;;242.9
398.0;338.4;;;;;;;;;;;;;;;;;-53.273872;-22.164066;62.35313;;242.9
398.0;338.4;;;;;;;;;;;;;;0.91885126;0.040406507;-0.27961057;;;;;242.9
398.0;338.4;;;;;;;;;;;;;;;;;-54.77691;-23.094881;61.887722;;252.6
398.0;338.4;;;;;;;;;;;;;;0.92263556;0.04321421;-0.29023102;;;;;252.6
398.0;338.4;;;;;;;;;;;;;;;;;-55.471203;-24.586475;61.5215;;252.6
398.0;338.4;;;;;;;;;;;;;;0.928312;0.046815395;-0.3035371;;;;;252.6
460.0;339.0;;;;;;;;;;;;;;;;;-55.4445;-26.257362;61.143833;;262.3
460.0;339.0;;;;;;;;;;;;;;0.93343914;0.050965913;-0.32056642;;;;;262.3
460.0;339.0;;;;;;;;;;;;;;;;;-54.799797;-28.088472;60.846275;;262.3
460.0;339.0;;;;;;;;;;;;;;0.9393597;0.054994356;-0.3350322;;;;;262.3
460.0;339.0;;;;;;;;;;;;;;;;;-53.853725;-29.507584;60.73565;;271.9
460.0;339.0;;;;;;;;;;;;;;0.94485307;0.05383465;-0.34595782;;;;;271.9
460.0;339.0;;;;;;;;;;;;;;;;;-52.678764;-30.816065;60.31983;;271.9
460.0;339.0;;;;;;;;;;;;;;0.9454634;0.04791406;-0.35364848;;;;;271.9
460.0;339.0;;;;;;;;;;;;;;;;;-51.47328;-31.91473;59.72091;;281.6
460.0;339.0;;;;;;;;;;;;;;0.94479203;0.038636435;-0.36237678;;;;;281.6
460.0;339.0;;;;;;;;;;;;;;;;;-50.15717;-32.75399;58.896908;;281.6
460.0;339.0;;;;;;;;;;;;;;0.94320506;0.023438215;-0.36347544;;;;;281.6
460.0;398.7;;;;;;;;;;;;;;;;;-48.566395;-33.867916;57.90887;;291.2
460.0;398.7;;;;;;;;;;;;;;0.943083;0.0076296274;-0.36133915;;;;;291.2
460.0;398.7;;;;;;;;;;;;;;;;;-46.555984;-34.95132;56.94372;;291.2
460.0;398.7;;;;;;;;;;;;;;0.9479049;-0.01043733;-0.35425887;;;;;291.2
460.0;398.7;;;;;;;;;;;;;;;;;-44.30906;-35.89358;56.27613;;300.8
460.0;398.7;;;;;;;;;;;;;;0.9532151;-0.02887051;-0.34229562;;;;;300.8
460.0;398.7;;;;;;;;;;;;;;;;;-41.726433;-36.65273;55.696278;;300.8
460.0;398.7;;;;;;;;;;;;;;0.9613941;-0.042298656;-0.33063754;;;;;300.8
460.0;398.7;;;;;;;;;;;;;;;;;-39.18958;-37.37373;55.23087;;310.4
460.0;398.7;;;;;;;;;;;;;;0.9719535;-0.05023347;-0.31861323;;;;;310.4
460.0;398.7;;;;;;;;;;;;;;;;;-36.938843;-37.846767;55.177464;;310.4
460.0;398.7;;;;;;;;;;;;;;0.9837947;-0.05633717;-0.30573443;;;;;310.4
520.0;399.4;;;;;;;;;;;;;;;;;-35.309914;-38.03751;55.536057;;320.0
520.0;399.4;;;;;;;;;;;;;;0.9936827;-0.06060976;-0.2946257;;;;;320.0
520.0;399.4;;;;;;;;;;;;;;;;;-34.66521;-37.64458;55.948055;;320.0
520.0;399.4;;;;;;;;;;;;;;1.0027162;-0.06207465;-0.28400525;;;;;320.0
520.0;399.4;;;;;;;;;;;;;;;;;-34.68047;-36.51921;56.516464;;329.6
520.0;399.4;;;;;;;;;;;;;;1.0055848;-0.06286813;-0.2804651;;;;;329.6
520.0;399.4;;;;;;;;;;;;;;;;;-35.390026;-34.752953;57.02765;;329.6
520.0;399.4;;;;;;;;;;;;;;1.0012512;-0.05627613;-0.272042;;;;;329.6
520.0;399.4;;;;;;;;;;;;;;;;;-36.73284;-32.757805;57.420574;;339.3
520.0;399.4;;;;;;;;;;;;;;0.9924619;-0.047791988;-0.2690512;;;;;339.3
520.0;399.4;;;;;;;;;;;;;;;;;-38.430435;-30.411694;57.660908;;339.3
520.0;399.4;;;;;;;;;;;;;;0.9740898;-0.038331248;-0.26490065;;;;;339.3
520.0;458.9;;;;;;;;;;;;;;;;;-40.379803;-28.687399;57.702873;;348.9
520.0;458.9;;;;;;;;;;;;;;0.9565722;-0.024109622;-0.26966155;;;;;348.9
520.0;458.9;;;;;;;;;;;;;;;;;-42.527542;-27.294992;57.374798;;348.9
520.0;458.9;;;;;;;;;;;;;;0.9377117;-0.013855403;-0.28577533;;;;;348.9
520.0;458.9;;;;;;;;;;;;;;;;;-44.553207;-26.436659;56.94754;;358.6
520.0;458.9;;;;;;;;;;;;;;0.9187902;0.0027466659;-0.2974334;;;;;358.6
520.0;458.9;;;;;;;;;;;;;;;;;-46.845913;-26.448103;56.466873;;358.6
520.0;458.9;;;;;;;;;;;;;;0.89785457;0.013977477;-0.30970183;;;;;358.6
520.0;458.9;;;;;;;;;;;;;;;;;-48.98221;-26.997437;56.073944;;368.2
520.0;458.9;;;;;;;;;;;;;;0.8806421;0.021240883;-0.3227027;;;;;368.2
520.0;458.9;;;;;;;;;;;;;;;;;-51.271095;-28.000732;55.810722;;368.2
520.0;458.9;;;;;;;;;;;;;;0.8692892;0.030823695;-0.34034243;;;;;368.2
579.0;460.1;;;;;;;;;;;;;;;;;-53.437912;-28.954435;55.940426;;377.9
579.0;460.1;;;;;;;;;;;;;;0.86214787;0.03302103;-0.34943694;;;;;377.9
579.0;460.1;;;;;;;;;;;;;;;;;-55.604725;-29.824215;56.54698;;377.9
579.0;460.1;;;;;;;;;;;;;;0.85482347;0.030579546;-0.35444197;;;;;377.9
579.0;460.1;;;;;;;;;;;;;;;;;-57.710503;-30.335398;57.33665;;387.6
579.0;460.1;;;;;;;;;;;;;;0.85189366;0.028199103;-0.34589678;;;;;387.6
579.0;460.1;;;;;;;;;;;;;;;;;-59.549244;-30.995361;58.217873;;387.6
579.0;460.1;;;;;;;;;;;;;;0.8526872;0.024719993;-0.33136997;;;;;387.6
579.0;460.1;;;;;;;;;;;;;;;;;-60.129093;-31.80029;59.3585;;397.2
579.0;460.1;;;;;;;;;;;;;;0.8568987;0.019898068;-0.319834;;;;;397.2
579.0;460.1;;;;;;;;;;;;;;;;;-59.72091;-32.826473;60.583054;;397.2
579.0;460.1;;;;;;;;;;;;;;0.8667257;0.010864589;-0.31446272;;;;;397.2
579.0;519.3;;;;;;;;;;;;;;;;;-58.503983;-33.52077;61.712242;;406.7
579.0;519.3;;;;;;;;;;;;;;0.87563705;-0.002929777;-0.30115664;;;;;406.7
579.0;519.3;;;;;;;;;;;;;;;;;-56.79876;-33.658104;62.68502;;406.7
579.0;519.3;;;;;;;;;;;;;;0.89022493;-0.030030213;-0.28778955;;;;;406.7
579.0;519.3;;;;;;;;;;;;;;;;;-54.250465;-34.066284;63.367874;;416.3
579.0;519.3;;;;;;;;;;;;;;0.9046907;-0.07434309;-0.27423933;;;;;416.3
579.0;519.3;;;;;;;;;;;;;;;;;-51.023132;-34.363842;63.33735;;416.3
579.0;519.3;;;;;;;;;;;;;;0.920011;-0.07129124;-0.27198097;;;;;416.3
579.0;519.3;;;;;;;;;;;;;;;;;-48.06284;-33.68862;62.82998;;425.9
579.0;519.3;;;;;;;;;;;;;;0.92715234;-0.086489454;-0.26911223;;;;;425.9
579.0;519.3;;;;;;;;;;;;;;;;;-45.25132;-32.303844;61.60924;;425.9
579.0;519.3;;;;;;;;;;;;;;0.93099767;-0.117862485;-0.2649617;;;;;425.9
711.0;520.1;;;;;;;;;;;;;;;;;-42.05069;-31.056398;59.686577;;435.6
711.0;520.1;;;;;;;;;;;;;;0.9355144;-0.14380322;-0.26850185;;;;;435.6
711.0;520.1;;;;;;;;;;;;;;;;;-38.850063;-29.705956;57.18787;;435.6
711.0;520.1;;;;;;;;;;;;;;0.9304483;-0.16919462;-0.26557207;;;;;435.6
711.0;520.1;;;;;;;;;;;;;;;;;-35.90121;-29.263435;54.353466;;445.2
711.0;520.1;;;;;;;;;;;;;;0.928312;-0.18762779;-0.26984465;;;;;445.2
711.0;520.1;;;;;;;;;;;;;;;;;-33.268993;-29.633474;51.419872;;445.2
711.0;520.1;;;;;;;;;;;;;;0.92587054;-0.19428083;-0.27130955;;;;;445.2
711.0;520.1;;;;;;;;;;;;;;;;;-30.739769;-30.50325;48.62743;;454.9
711.0;520.1;;;;;;;;;;;;;;0.92440563;-0.20715964;-0.2822962;;;;;454.9
711.0;520.1;;;;;;;;;;;;;;;;;-27.592546;-30.808435;45.842617;;454.9
711.0;520.1;;;;;;;;;;;;;;0.92373425;-0.21460617;-0.2896817;;;;;454.9
711.0;580.2;;;;;;;;;;;;;;;;;-23.384808;-30.873287;43.51558;;464.6
711.0;580.2;;;;;;;;;;;;;;0.92623675;-0.22205268;-0.29389325;;;;;464.6
711.0;580.2;;;;;;;;;;;;;;;;;-18.246254;-30.564287;41.44032;;464.6
711.0;580.2;;;;;;;;;;;;;;0.9350261;-0.2164983;-0.29920346;;;;;464.6
711.0;580.2;;;;;;;;;;;;;;;;;-12.665181;-30.049286;39.91058;;474.2
711.0;580.2;;;;;;;;;;;;;;0.93673515;-0.20673238;-0.31073946;;;;;474.2
711.0;580.2;;;;;;;;;;;;;;;;;-7.3244424;-29.48088;38.792843;;474.2
711.0;580.2;;;;;;;;;;;;;;0.9290445;-0.1854915;-0.33082065;;;;;474.2
711.0;580.2;;;;;;;;;;;;;;;;;-2.212592;-28.866695;38.182472;;483.7
711.0;580.2;;;;;;;;;;;;;;0.92703027;-0.17456588;-0.35084078;;;;;483.7
711.0;580.2;;;;;;;;;;;;;;;;;2.685629;-27.291178;37.430954;;483.7
711.0;580.2;;;;;;;;;;;;;;0.9245277;-0.15131077;-0.3691519;;;;;483.7
713.0;581.4;;;;;;;;;;;;;;;;;7.5189977;-25.040436;36.503952;;493.4
713.0;581.4;;;;;;;;;;;;;;0.9164098;-0.11688589;-0.37586597;;;;;493.4
713.0;581.4;;;;;;;;;;;;;;;;;11.913663;-23.880733;35.309914;;493.4
713.0;581.4;;;;;;;;;;;;;;0.9123203;-0.09149449;-0.38856167;;;;;493.4
713.0;581.4;;;;;;;;;;;;;;;;;16.197699;-22.991882;33.87936;;503.1
713.0;581.4;;;;;;;;;;;;;;0.9135411;-0.057008576;-0.40284434;;;;;503.1
713.0;581.4;;;;;;;;;;;;;;;;;20.325327;-21.71392;32.23899;;503.1
713.0;581.4;;;;;;;;;;;;;;0.9132359;-0.023438215;-0.40815455;;;;;503.1
713.0;581.4;;;;;;;;;;;;;;;;;24.323254;-20.134586;30.369732;;512.8
713.0;581.4;;;;;;;;;;;;;;0.9157384;0.013428144;-0.4049196;;;;;512.8
713.0;581.4;;;;;;;;;;;;;;;;;28.13425;-17.780846;28.33262;;512.8
713.0;581.4;;;;;;;;;;;;;;0.91848505;0.044984285;-0.387463;;;;;512.8
713.0;594.8;;;;;;;;;;;;;;;;;31.55614;-15.099032;26.020844;;522.4
713.0;594.8;;;;;;;;;;;;;;0.92458874;0.09161656;-0.35322124;;;;;522.4
713.0;594.8;;;;;;;;;;;;;;;;;34.00525;-12.665181;23.54503;;522.4
713.0;594.8;;;;;;;;;;;;;;0.9288614;0.12738426;-0.32148197;;;;;522.4
713.0;594.8;;;;;;;;;;;;;;;;;35.706657;-10.43733;21.034883;;532.1
713.0;594.8;;;;;;;;;;;;;;0.9403973;0.19129002;-0.30219427;;;;;532.1
713.0;594.8;;;;;;;;;;;;;;;;;36.26362;-7.759331;18.910032;;532.1
713.0;594.8;;;;;;;;;;;;;;0.94320506;0.23816645;-0.26917326;;;;;532.1
713.0;594.8;;;;;;;;;;;;;;;;;35.874508;-6.4012575;16.991179;;541.7
713.0;594.8;;;;;;;;;;;;;;0.95596176;0.2674032;-0.24164556;;;;;541.7
713.0;594.8;;;;;;;;;;;;;;;;;34.54695;-5.5200357;14.591662;;541.7
713.0;594.8;;;;;;;;;;;;;;0.9729301;0.3218482;-0.23731193;;;;;541.7
763.0;640.1;;;;;;;;;;;;;;;;;31.300545;-4.7074804;12.733848;;551.4
763.0;640.1;;;;;;;;;;;;;;0.97915584;0.35883662;-0.2362743;;;;;551.4
763.0;640.1;;;;;;;;;;;;;;;;;26.295511;-4.40611;11.162145;;551.4
763.0;640.1;;;;;;;;;;;;;;0.99069184;0.40821558;-0.24750511;;;;;551.4
763.0;640.1;;;;;;;;;;;;;;;;;20.130772;-3.379925;9.708701;;560.9
763.0;640.1;;;;;;;;;;;;;;1.0068057;0.4547258;-0.2569048;;;;;560.9
763.0;640.1;;;;;;;;;;;;;;;;;13.725699;-1.5030366;8.621479;;560.9
763.0;640.1;;;;;;;;;;;;;;1.0197455;0.483108;-0.27539903;;;;;560.9
763.0;640.1;;;;;;;;;;;;;;;;;6.931516;2.0599995;7.656331;;570.5
763.0;640.1;;;;;;;;;;;;;;1.0087588;0.5119785;-0.30579546;;;;;570.5
763.0;640.1;;;;;;;;;;;;;;;;;-0.12970367;6.0579243;6.6873684;;570.5
763.0;640.1;;;;;;;;;;;;;;0.9782403;0.5323649;-0.34150213;;;;;570.5
763.0;655.0;;;;;;;;;;;;;;;;;-5.7298503;10.116886;5.714591;;580.2
763.0;655.0;;;;;;;;;;;;;;0.9259316;0.5481735;-0.3658559;;;;;580.2
763.0;655.0;;;;;;;;;;;;;;;;;-9.769737;12.817774;4.4366283;;580.2
763.0;655.0;;;;;;;;;;;;;;0.88198495;0.57747126;-0.40003663;;;;;580.2
763.0;655.0;;;;;;;;;;;;;;;;;-13.760033;14.95407;2.5330362;;589.8
763.0;655.0;;;;;;;;;;;;;;0.8760033;0.60438854;-0.38642538;;;;;589.8
763.0;655.0;;;;;;;;;;;;;;;;;-18.601032;15.121922;-0.5264443;;589.8
763.0;655.0;;;;;;;;;;;;;;0.9330729;0.62550735;-0.40278327;;;;;589.8
763.0;655.0;;;;;;;;;;;;;;;;;-24.555956;12.127293;-4.9249244;;599.5
763.0;655.0;;;;;;;;;;;;;;1.0295725;0.68184453;-0.5256508;;;;;599.5
763.0;655.0;;;;;;;;;;;;;;;;;-31.022064;8.587145;-9.968108;;599.5
763.0;655.0;;;;;;;;;;;;;;1.1202124;0.727134;-0.67165136;;;;;599.5
821.0;700.2;;;;;;;;;;;;;;;;;-34.360023;10.956145;-13.824884;;609.1
821.0;700.2;;;;;;;;;;;;;;1.1810663;0.7129734;-0.72383803;;;;;609.1
821.0;700.2;;;;;;;;;;;;;;;;;-31.640064;21.099735;-17.578661;;609.1
821.0;700.2;;;;;;;;;;;;;;1.1782587;0.6389355;-0.62678915;;;;;609.1
821.0;700.2;;;;;;;;;;;;;;;;;-27.027956;31.979584;-23.33903;;618.8
821.0;700.2;;;;;;;;;;;;;;1.1233253;0.5681936;-0.5123447;;;;;618.8
821.0;700.2;;;;;;;;;;;;;;;;;-26.69988;37.224953;-30.449842;;618.8
821.0;700.2;;;;;;;;;;;;;;1.0885953;0.5173498;-0.41163367;;;;;618.8
821.0;700.2;;;;;;;;;;;;;;;;;-31.483658;38.296917;-37.045654;;628.5
821.0;700.2;;;;;;;;;;;;;;1.1003144;0.49311808;-0.30146185;;;;;628.5
821.0;700.2;;;;;;;;;;;;;;;;;-39.517654;38.583027;-43.01584;;628.5
821.0;700.2;;;;;;;;;;;;;;1.1405988;0.4784692;-0.19733268;;;;;628.5
821.0;708.1;;;;;;;;;;;;;;;;;-49.42473;37.907806;-48.90973;;638.1
821.0;708.1;;;;;;;;;;;;;;1.1959593;0.45204017;-0.13953063;;;;;638.1
821.0;708.1;;;;;;;;;;;;;;;;;-59.739983;38.25495;-54.68154;;638.1
821.0;708.1;;;;;;;;;;;;;;1.252968;0.41560107;-0.12781152;;;;;638.1
821.0;708.1;;;;;;;;;;;;;;;;;-68.50261;42.69921;-60.2855;;647.8
821.0;708.1;;;;;;;;;;;;;;1.310648;0.35767692;-0.115848266;;;;;647.8
821.0;708.1;;;;;;;;;;;;;;;;;-73.065125;53.720207;-65.84369;;647.8
821.0;708.1;;;;;;;;;;;;;;1.3466598;0.27234718;-0.105838194;;;;;647.8
821.0;708.1;;;;;;;;;;;;;;;;;-72.52724;69.59746;-71.89779;;657.5
821.0;708.1;;;;;;;;;;;;;;1.3350627;0.16858424;-0.13306071;;;;;657.5
821.0;708.1;;;;;;;;;;;;;;;;;-68.105865;85.860016;-78.295235;;657.5
821.0;708.1;;;;;;;;;;;;;;1.2670064;0.08343761;-0.18127994;;;;;657.5
881.0;760.4;;;;;;;;;;;;;;;;;-61.887722;98.76935;-84.34553;;667.2
881.0;760.4;;;;;;;;;;;;;;1.1637318;0.003051851;-0.21436201;;;;;667.2
881.0;760.4;;;;;;;;;;;;;;;;;-55.5475;106.52867;-90.37293;;667.2
881.0;760.4;;;;;;;;;;;;;;1.0583209;-0.07477035;-0.2202826;;;;;667.2
881.0;760.4;;;;;;;;;;;;;;;;;-49.42473;109.92385;-96.84668;;676.7
881.0;760.4;;;;;;;;;;;;;;0.985931;-0.11981567;-0.20062868;;;;;676.7
881.0;760.4;;;;;;;;;;;;;;;;;-44.015324;109.2906;-103.45012;;676.7
881.0;760.4;;;;;;;;;;;;;;0.9341105;-0.15601063;-0.17621388;;;;;676.7
881.0;760.4;;;;;;;;;;;;;;;;;-40.337837;102.34763;-110.15274;;686.4
881.0;760.4;;;;;;;;;;;;;;0.9147618;-0.16180913;-0.18951994;;;;;686.4
881.0;760.4;;;;;;;;;;;;;;;;;-38.33125;91.10919;-116.164894;;686.4
881.0;760.4;;;;;;;;;;;;;;0.95706046;-0.17749566;-0.24866481;;;;;686.4
881.0;767.9;;;;;;;;;;;;;;;;;-36.839657;82.23975;-121.30726;;696.0
881.0;767.9;;;;;;;;;;;;;;1.0495316;-0.19458602;-0.31849116;;;;;696.0
881.0;767.9;;;;;;;;;;;;;;;;;-35.912655;78.92849;-124.54985;;696.0
881.0;767.9;;;;;;;;;;;;;;1.1519517;-0.18909268;-0.37366864;;;;;696.0
881.0;767.9;;;;;;;;;;;;;;;;;-36.37425;77.90994;-124.988556;;705.6
881.0;767.9;;;;;;;;;;;;;;1.2351451;-0.16559343;-0.4276864;;;;;705.6
881.0;767.9;;;;;;;;;;;;;;;;;-38.987396;75.44176;-124.988556;;705.6
881.0;767.9;;;;;;;;;;;;;;1.3044832;-0.14709921;-0.48438978;;;;;705.6
881.0;767.9;;;;;;;;;;;;;;;;;-42.25669;72.264015;-124.988556;;715.2
881.0;767.9;;;;;;;;;;;;;;1.3654592;-0.0949736;-0.52919096;;;;;715.2
881.0;767.9;;;;;;;;;;;;;;;;;-44.24421;70.70376;-124.988556;;715.2
881.0;767.9;;;;;;;;;;;;;;1.3879818;-0.05285806;-0.52046263;;;;;715.2
943.0;820.8;;;;;;;;;;;;;;;;;-43.50795;69.21598;-124.988556;;724.8
943.0;820.8;;;;;;;;;;;;;;1.3869442;0.02069155;-0.46967986;;;;;724.8
943.0;820.8;;;;;;;;;;;;;;;;;-40.219578;67.11402;-124.988556;;724.8
943.0;820.8;;;;;;;;;;;;;;1.3900571;0.08716086;-0.3953978;;;;;724.8
943.0;820.8;;;;;;;;;;;;;;;;;-34.74151;64.504684;-124.988556;;734.4
943.0;820.8;;;;;;;;;;;;;;1.3911557;0.09631642;-0.33014923;;;;;734.4
943.0;820.8;;;;;;;;;;;;;;;;;-27.497177;61.29261;-124.988556;;734.4
943.0;820.8;;;;;;;;;;;;;;1.38493;0.073793754;-0.3009125;;;;;734.4
943.0;820.8;;;;;;;;;;;;;;;;;-19.100773;59.26695;-124.988556;;744.1
943.0;820.8;;;;;;;;;;;;;;1.3658864;0.046998505;-0.31122777;;;;;744.1
943.0;820.8;;;;;;;;;;;;;;;;;-11.15833;59.83154;-124.988556;;744.1
943.0;820.8;;;;;;;;;;;;;;1.3292642;0.016479995;-0.3119602;;;;;744.1
943.0;828.7;;;;;;;;;;;;;;;;;-5.3559985;61.91824;-124.988556;;753.7
943.0;828.7;;;;;;;;;;;;;;1.2857448;-0.019104587;-0.28479874;;;;;753.7
943.0;828.7;;;;;;;;;;;;;;;;;-2.0561848;63.341164;-124.988556;;753.7
943.0;828.7;;;;;;;;;;;;;;1.2505875;-0.044373915;-0.25458542;;;;;753.7
943.0;828.7;;;;;;;;;;;;;;;;;-0.94225895;64.3292;-124.988556;;763.4
943.0;828.7;;;;;;;;;;;;;;1.2062136;-0.07269509;-0.22260201;;;;;763.4
943.0;828.7;;;;;;;;;;;;;;;;;-1.6403699;62.63543;-124.988556;;763.4
943.0;828.7;;;;;;;;;;;;;;1.162389;-0.1098056;-0.21509446;;;;;763.4
943.0;828.7;;;;;;;;;;;;;;;;;-2.6970735;58.31706;-124.988556;;773.0
943.0;828.7;;;;;;;;;;;;;;1.1316874;-0.10699789;-0.24329355;;;;;773.0
943.0;828.7;;;;;;;;;;;;;;;;;-2.578814;53.201393;-124.988556;;773.0
943.0;828.7;;;;;;;;;;;;;;1.1056246;-0.087710194;-0.27594838;;;;;773.0
999.0;881.2;;;;;;;;;;;;;;;;;-0.8049257;48.139133;-124.988556;;782.6
999.0;881.2;;;;;;;;;;;;;;1.0857875;-0.058839686;-0.30359814;;;;;782.6
999.0;881.2;;;;;;;;;;;;;;;;;2.212592;44.202248;-124.988556;;782.6
999.0;881.2;;;;;;;;;;;;;;1.0583819;-0.05755791;-0.31397444;;;;;782.6
999.0;881.2;;;;;;;;;;;;;;;;;5.069887;41.16184;-124.988556;;792.1
999.0;881.2;;;;;;;;;;;;;;1.0344554;-0.10913419;-0.32392347;;;;;792.1
999.0;881.2;;;;;;;;;;;;;;;;;8.81222;39.242985;-124.988556;;792.1
999.0;881.2;;;;;;;;;;;;;;1.0196844;-0.076113164;-0.33826715;;;;;792.1
999.0;881.2;;;;;;;;;;;;;;;;;10.887479;40.326393;-124.988556;;801.6
999.0;881.2;;;;;;;;;;;;;;1.00412;-0.031006806;-0.34882656;;;;;801.6
999.0;881.2;;;;;;;;;;;;;;;;;11.822107;43.04636;-124.988556;;801.6
999.0;881.2;;;;;;;;;;;;;;0.97653127;-0.04608295;-0.3516953;;;;;801.6
999.0;888.7;;;;;;;;;;;;;;;;;12.115849;46.143986;-124.988556;;811.2
999.0;888.7;;;;;;;;;;;;;;0.9485153;-0.050965913;-0.3714713;;;;;811.2
999.0;888.7;;;;;;;;;;;;;;;;;12.29133;50.374615;-124.988556;;811.2
999.0;888.7;;;;;;;;;;;;;;0.92043823;-0.005920591;-0.3584704;;;;;811.2
999.0;888.7;;;;;;;;;;;;;;;;;10.998108;52.823727;-124.988556;;820.9
999.0;888.7;;;;;;;;;;;;;;0.89938045;0.023010956;-0.3416242;;;;;820.9
999.0;888.7;;;;;;;;;;;;;;;;;9.727776;52.59865;-124.988556;;820.9
999.0;888.7;;;;;;;;;;;;;;0.87740713;0.058046207;-0.32404554;;;;;820.9
999.0;888.7;;;;;;;;;;;;;;;;;5.7222204;50.702686;-124.988556;;830.5
999.0;888.7;;;;;;;;;;;;;;0.85830253;0.082583085;-0.30048525;;;;;830.5
999.0;888.7;;;;;;;;;;;;;;;;;1.8005921;46.555984;-124.588;;830.5
999.0;888.7;;;;;;;;;;;;;;0.85055083;0.103274636;-0.26831874;;;;;830.5
1059.0;941.5;;;;;;;;;;;;;;;;;-2.4719992;43.305767;-121.852776;;840.2
1059.0;941.5;;;;;;;;;;;;;;0.8481704;0.11682486;-0.2329783;;;;;840.2
1059.0;941.5;;;;;;;;;;;;;;;;;-6.7979984;41.24958;-116.64175;;840.2
1059.0;941.5;;;;;;;;;;;;;;0.8270516;0.12756737;-0.18231757;;;;;840.2
1059.0;941.5;;;;;;;;;;;;;;;;;-12.260812;38.62499;-112.10593;;849.8
1059.0;941.5;;;;;;;;;;;;;;0.8082522;0.1386761;-0.12659077;;;;;849.8
1059.0;941.5;;;;;;;;;;;;;;;;;-19.531845;34.875027;-107.95923;;849.8
1059.0;941.5;;;;;;;;;;;;;;0.79030734;0.1394696;-0.10095523;;;;;849.8
1059.0;941.5;;;;;;;;;;;;;;;;;-28.057955;32.582325;-104.76623;;859.5
1059.0;941.5;;;;;;;;;;;;;;0.766686;0.13751641;-0.07428205;;;;;859.5
1059.0;941.5;;;;;;;;;;;;;;;;;-36.568806;29.786066;-101.32908;;859.5
1059.0;941.5;;;;;;;;;;;;;;0.74153876;0.13702811;-0.048463393;;;;;859.5
1059.0;942.3;;;;;;;;;;;;;;;;;-44.614243;25.814844;-98.30394;;869.2
1059.0;942.3;;;;;;;;;;;;;;0.7132786;0.14331493;-0.020752586;;;;;869.2
1059.0;942.3;;;;;;;;;;;;;;;;;-50.61495;19.539474;-94.91638;;869.2
1059.0;942.3;;;;;;;;;;;;;;0.69569993;0.1760918;-0.013855403;;;;;869.2
1059.0;942.3;;;;;;;;;;;;;;;;;-55.463573;13.355663;-91.05197;;878.8
1059.0;942.3;;;;;;;;;;;;;;0.6920377;0.1976989;-0.0023194067;;;;;878.8
1059.0;942.3;;;;;;;;;;;;;;;;;-60.789055;8.846553;-87.85516;;878.8
1059.0;942.3;;;;;;;;;;;;;;0.6837977;0.21851254;0.021851253;;;;;878.8
1059.0;942.3;;;;;;;;;;;;;;;;;-65.71017;4.562517;-83.94498;;888.5
1059.0;942.3;;;;;;;;;;;;;;0.66963714;0.21955016;0.034974214;;;;;888.5
1059.0;942.3;;;;;;;;;;;;;;;;;-70.242165;0.79348123;-80.12634;;888.5
1059.0;942.3;;;;;;;;;;;;;;0.66060364;0.22528763;0.04730369;;;;;888.5
1121.0;1002.2;;;;;;;;;;;;;;;;;-74.50331;-2.8420362;-76.11317;;898.1
1121.0;1002.2;;;;;;;;;;;;;;0.6486404;0.22821741;0.06781213;;;;;898.1
1121.0;1002.2;;;;;;;;;;;;;;;;;-77.936646;-6.431776;-71.829124;;898.1
1121.0;1002.2;;;;;;;;;;;;;;0.63734853;0.22266304;0.08203375;;;;;898.1
1121.0;1002.2;;;;;;;;;;;;;;;;;-80.38575;-9.929959;-67.281876;;907.5
1121.0;1002.2;;;;;;;;;;;;;;0.6263619;0.21588793;0.08337657;;;;;907.5
1121.0;1002.2;;;;;;;;;;;;;;;;;-81.73238;-12.928404;-62.604904;;907.5
1121.0;1002.2;;;;;;;;;;;;;;0.61848813;0.2047792;0.0700705;;;;;907.5
1121.0;1002.2;;;;;;;;;;;;;;;;;-82.0719;-15.263069;-57.729576;;917.1
1121.0;1002.2;;;;;;;;;;;;;;0.615009;0.19891964;0.04791406;;;;;917.1
1121.0;1002.2;;;;;;;;;;;;;;;;;-81.10675;-17.212439;-52.640614;;917.1
1121.0;1002.2;;;;;;;;;;;;;;0.6079897;0.18518631;0.01556444;;;;;917.1
1121.0;1003.0;;;;;;;;;;;;;;;;;-79.32523;-18.696402;-47.357098;;926.8
1121.0;1003.0;;;;;;;;;;;;;;0.6090884;0.17340617;-0.017456587;;;;;926.8
1121.0;1003.0;;;;;;;;;;;;;;;;;-76.62435;-19.795067;-41.730247;;926.8
1121.0;1003.0;;;;;;;;;;;;;;0.6144597;0.15448469;-0.06146428;;;;;926.8
1121.0;1003.0;;;;;;;;;;;;;;;;;-73.06131;-19.859919;-35.855434;;936.5
1121.0;1003.0;;;;;;;;;;;;;;0.62227243;0.13715018;-0.10730308;;;;;936.5
1121.0;1003.0;;;;;;;;;;;;;;;;;-68.506424;-19.04355;-29.67925;;936.5
1121.0;1003.0;;;;;;;;;;;;;;0.6284982;0.118717;-0.14374217;;;;;936.5
1121.0;1003.0;;;;;;;;;;;;;;;;;-63.318275;-18.03644;-23.21314;;946.1
1121.0;1003.0;;;;;;;;;;;;;;0.6326487;0.08941923;-0.17291787;;;;;946.1
1121.0;1003.0;;;;;;;;;;;;;;;;;-57.397686;-17.872402;-16.979734;;946.1
1121.0;1003.0;;;;;;;;;;;;;;0.63289285;0.05652028;-0.19775994;;;;;946.1
1179.0;1062.3;;;;;;;;;;;;;;;;;-50.97354;-18.719292;-11.421552;;955.8
1179.0;1062.3;;;;;;;;;;;;;;0.6344188;0.03784295;-0.2245552;;;;;955.8
1179.0;1062.3;;;;;;;;;;;;;;;;;-43.62621;-19.970549;-5.0851464;;955.8
1179.0;1062.3;;;;;;;;;;;;;;0.6257515;-0.009765923;-0.23194067;;;;;955.8
1179.0;1062.3;;;;;;;;;;;;;;;;;-35.939358;-23.613697;0.7019257;;965.4
1179.0;1062.3;;;;;;;;;;;;;;0.6444899;-0.043946654;-0.27411726;;;;;965.4
1179.0;1062.3;;;;;;;;;;;;;;;;;-28.328806;-24.857325;6.088443;;965.4
1179.0;1062.3;;;;;;;;;;;;;;0.6171453;-0.077883236;-0.29358807;;;;;965.4
1179.0;1062.3;;;;;;;;;;;;;;;;;-21.023438;-26.436659;11.299478;;975.0
1179.0;1062.3;;;;;;;;;;;;;;0.6113468;-0.08270516;-0.2971282;;;;;975.0
1179.0;1062.3;;;;;;;;;;;;;;;;;-14.568773;-28.76751;16.98355;;975.0
1179.0;1062.3;;;;;;;;;;;;;;0.6010926;-0.12091433;-0.2936491;;;;;975.0
1179.0;1063.1;;;;;;;;;;;;;;;;;-7.293924;-31.125065;22.392956;;984.5
1179.0;1063.1;;;;;;;;;;;;;;0.59566027;-0.1380047;-0.3090304;;;;;984.5
1179.0;1063.1;;;;;;;;;;;;;;;;;0.015259255;-30.78173;27.42088;;984.5
1179.0;1063.1;;;;;;;;;;;;;;0.59150976;-0.1480758;-0.31513414;;;;;984.5
1179.0;1063.1;;;;;;;;;;;;;;;;;7.316813;-29.202398;32.31529;;994.2
1179.0;1063.1;;;;;;;;;;;;;;0.57368696;-0.17749566;-0.30298775;;;;;994.2
1179.0;1063.1;;;;;;;;;;;;;;;;;14.751884;-29.0994;36.679432;;994.2
1179.0;1063.1;;;;;;;;;;;;;;0.5561083;-0.18836024;-0.2684408;;;;;994.2
1179.0;1063.1;;;;;;;;;;;;;;;;;22.385326;-31.834621;40.795616;;1003.8
1179.0;1063.1;;;;;;;;;;;;;;0.5442671;-0.19763787;-0.23731193;;;;;1003.8
1179.0;1063.1;;;;;;;;;;;;;;;;;29.774622;-35.83636;44.557022;;1003.8
1179.0;1063.1;;;;;;;;;;;;;;0.5540941;-0.19501327;-0.21002838;;;;;1003.8
1181.0;1123.2;;;;;;;;;;;;;;;;;36.8511;-38.743248;47.76528;;1013.5
1181.0;1123.2;;;;;;;;;;;;;;0.5813166;-0.18817712;-0.1737724;;;;;1013.5
1181.0;1123.2;;;;;;;;;;;;;;;;;43.149357;-39.662617;50.057983;;1013.5
1181.0;1123.2;;;;;;;;;;;;;;0.60267955;-0.12634663;-0.120303966;;;;;1013.5
1181.0;1123.2;;;;;;;;;;;;;;;;;47.513504;-39.7351;52.331615;;1023.1
1181.0;1123.2;;;;;;;;;;;;;;0.6398511;-0.072206795;-0.062379833;;;;;1023.1
1181.0;1123.2;;;;;;;;;;;;;;;;;50.64165;-37.32414;53.060246;;1023.1
1181.0;1123.2;;;;;;;;;;;;;;0.6789148;0.048524432;0.016663106;;;;;1023.1
1181.0;1123.2;;;;;;;;;;;;;;;;;52.51854;-34.592728;53.346355;;1032.6
1181.0;1123.2;;;;;;;;;;;;;;0.72939235;0.17023225;0.08343761;;;;;1032.6
1181.0;1123.2;;;;;;;;;;;;;;;;;53.823208;-31.598103;53.00302;;1032.6
1181.0;1123.2;;;;;;;;;;;;;;0.78243357;0.29517502;0.13910337;;;;;1032.6
1181.0;1124.0;;;;;;;;;;;;;;;;;55.425426;-29.610584;51.90817;;1042.3
1181.0;1124.0;;;;;;;;;;;;;;0.84487444;0.40571305;0.16797388;;;;;1042.3
1181.0;1124.0;;;;;;;;;;;;;;;;;58.69854;-29.248177;49.432358;;1042.3
1181.0;1124.0;;;;;;;;;;;;;;0.9322794;0.5267495;0.18610187;;;;;1042.3
1181.0;1124.0;;;;;;;;;;;;;;;;;63.72265;-31.006805;46.159245;;1051.9
1181.0;1124.0;;;;;;;;;;;;;;1.025544;0.666158;0.17481002;;;;;1051.9
1181.0;1124.0;;;;;;;;;;;;;;;;;68.71242;-32.788326;39.62447;;1051.9
1181.0;1124.0;;;;;;;;;;;;;;1.1189306;0.90267646;0.2158269;;;;;1051.9
1181.0;1124.0;;;;;;;;;;;;;;;;;71.52013;-36.000397;29.313028;;1061.5
1181.0;1124.0;;;;;;;;;;;;;;1.2030396;1.259743;0.26258126;;;;;1061.5
1181.0;1124.0;;;;;;;;;;;;;;;;;69.277016;-39.609207;18.280588;;1061.5
1181.0;1124.0;;;;;;;;;;;;;;1.2220222;1.5824457;0.2817469;;;;;1061.5
1181.0;1127.6;;;;0.0;0.0;0.0;;;;;;;;;;;;;;;
1181.0;1127.6;;;;-0.18270494;0.11864473;0.038448337;;;;;;;;;;;;;;;
1181.0;1127.6;;;;-0.8782884;0.62847143;-0.037364963;;;;;;;;;;;;;;;
1181.0;1127.6;;;;-0.9791986;0.7110558;-0.057407387;;;;;;;;;;;;;;;
1181.0;1127.6;;;;-0.9822427;0.7195397;-0.056114204;;;;;;;;;;;;;;;
1181.0;1137.6;;;;-0.9825784;0.7266732;-0.053539284;;;;;;;;;;;;;;;
1181.0;1137.6;;;;-0.98015606;0.7336579;-0.050769813;;;;;;;;;;;;;;;
1181.0;1137.6;;;;-0.97908795;0.7412072;-0.048610695;;;;;;;;;;;;;;;
1181.0;1137.6;;;;-0.97905743;0.74820334;-0.04764176;;;;;;;;;;;;;;;
1181.0;1137.6;;;;-0.97781;0.75413907;-0.046512607;;;;;;;;;;;;;;;
1239.0;1138.9;57537;57400;14672;;;;;;;;;;;;;;;;;;
1239.0;1147.5;;;;-0.97921765;0.7587358;-0.04551697;;;;;;;;;;;;;;;
1239.0;1147.5;;;;-0.9804727;0.7615472;-0.04563904;;;;;;;;;;;;;;;
1239.0;1147.5;;;;-0.98640454;0.76467144;-0.045341495;;;;;;;;;;;;;;;
1239.0;1147.5;;;;-0.98995984;0.7677766;-0.04584885;;;;;;;;;;;;;;;
1239.0;1147.5;;;;-0.9928132;0.7692033;-0.04644013;;;;;;;;;;;;;;;
1239.0;1157.4;;;;-0.9956132;0.7692796;-0.046623234;;;;;;;;;;;;;;;
1239.0;1157.4;;;;-0.9979173;0.7697984;-0.0467186;;;;;;;;;;;;;;;
1239.0;1157.4;;;;-0.9999696;0.7692033;-0.04735566;;;;;;;;;;;;;;;
1239.0;1157.4;;;;-0.99692166;0.7669908;-0.04936219;;;;;;;;;;;;;;;
1239.0;1157.4;;;;-0.99489224;0.76472104;-0.052738197;;;;;;;;;;;;;;;
1239.0;1158.8;73916;73857;14668;;;;;;;;;;;;;;;;;;
1239.0;1165.2;;;;;;;;;;;;;0;;;;;;;;
1239.0;1165.2;;;;;;;;;;;;;0;;;;;;;;
1239.0;1165.2;;;;;;;;;;;;;-1;;;;;;;;
1239.0;1165.2;;;;;;;;;;;;;-2;;;;;;;;
1239.0;1165.2;;;;;;;;;;;;;-3;;;;;;;;
1239.0;1167.6;;;;-0.9881326;0.7610017;-0.057514198;;;;;;;;;;;;;;;
1239.0;1167.6;;;;-0.9783441;0.7570878;-0.06319047;;;;;;;;;;;;;;;
1239.0;1167.6;;;;-0.9657899;0.75291455;-0.07220078;;;;;;;;;;;;;;;
1239.0;1167.6;;;;-0.95273983;0.74950796;-0.080032356;;;;;;;;;;;;;;;
1239.0;1167.6;;;;-0.93618405;0.7484055;-0.08984757;;;;;;;;;;;;;;;
1241.0;1177.7;;;;-0.9200822;0.7512742;-0.10037233;;;;;;;;;;;;;;;
1241.0;1177.7;;;;-0.9059564;0.75730145;-0.11083223;;;;;;;;;;;;;;;
1241.0;1177.7;;;;-0.894909;0.7692338;-0.12002565;;;;;;;;;;;;;;;
1241.0;1177.7;;;;-0.886345;0.7848207;-0.12737276;;;;;;;;;;;;;;;
1241.0;1177.7;;;;-0.8760263;0.8211366;-0.12815858;;;;;;;;;;;;;;;
1241.0;1179.1;90209;90207;14677;;;;;;;;;;;;;;;;;;
1241.0;1182.9;;;;;;;;;;;;;;;;;59.438614;-44.59517;7.2519608;;1071.2
1241.0;1182.9;;;;;;;;;;;;;;1.2406995;1.8908658;0.25342572;;;;;1071.2
1241.0;1182.9;;;;;;;;;;;;;;;;;42.313915;-48.71517;-6.939146;;1071.2
1241.0;1182.9;;;;;;;;;;;;;;1.2674947;1.9979857;0.17059846;;;;;1071.2
1241.0;1182.9;;;;;;;;;;;;;;;;;23.32377;-50.20676;-19.501328;;1080.7
1241.0;1182.9;;;;;;;;;;;;;;1.2664571;1.9979857;0.119754635;;;;;1080.7
1241.0;1182.9;;;;;;;;;;;;;;;;;6.214331;-50.923946;-25.761436;;1080.7
1241.0;1182.9;;;;;;;;;;;;;;1.2253792;1.9979857;0.07440413;;;;;1080.7
1241.0;1182.9;;;;;;;;;;;;;;;;;-6.424146;-48.638874;-33.104954;;1090.4
1241.0;1182.9;;;;;;;;;;;;;;1.1543932;1.9550767;0.0014038514;;;;;1090.4
1241.0;1182.9;;;;;;;;;;;;;;;;;-16.49907;-41.058838;-39.986877;;1090.4
1241.0;1182.9;;;;;;;;;;;;;;1.0628986;1.6844386;-0.04815821;;;;;1090.4
1244.0;1183.8;;;;;;;;;;;;;;;;;-23.934141;-32.444992;-43.431656;;1100.1
1244.0;1183.8;;;;;;;;;;;;;;1.0063784;1.3728446;-0.047975097;;;;;1100.1
1244.0;1183.8;;;;;;;;;;;;;;;;;-30.354471;-23.953215;-44.328133;;1100.1
1244.0;1183.8;;;;;;;;;;;;;;0.96859646;1.1059908;-0.03173925;;;;;1100.1
1244.0;1183.8;;;;;;;;;;;;;;;;;-37.12958;-13.000885;-43.931396;;1109.8
1244.0;1183.8;;;;;;;;;;;;;;0.91402936;0.85781425;0.003967406;;;;;1109.8
1244.0;1183.8;;;;;;;;;;;;;;;;;-43.22947;-2.113407;-42.88995;;1109.8
1244.0;1183.8;;;;;;;;;;;;;;0.8588519;0.63850826;0.003601184;;;;;1109.8
1244.0;1183.8;;;;;;;;;;;;;;;;;-48.780025;8.564257;-41.753136;;1119.5
1244.0;1183.8;;;;;;;;;;;;;;0.77224034;0.44703513;-0.026062807;;;;;1119.5
1244.0;1183.8;;;;;;;;;;;;;;;;;-53.170876;14.805292;-40.36073;;1119.5
1244.0;1183.8;;;;;;;;;;;;;;0.7108371;0.276986;-0.07196265;;;;;1119.5
1244.0;1187.6;;;;-0.839203;0.91988385;-0.113597885;;;;;;;;;;;;;;;
1244.0;1187.6;;;;-0.8699647;0.85421383;-0.12516023;;;;;;;;;;;;;;;
1244.0;1187.6;;;;-0.88053906;0.90103924;-0.120655075;;;;;;;;;;;;;;;
1244.0;1187.6;;;;-0.88637173;0.93359387;-0.11542894;;;;;;;;;;;;;;;
1244.0;1187.6;;;;-0.89393246;0.96587384;-0.10821916;;;;;;;;;;;;;;;
1244.0;1197.6;;;;-0.90875256;1.0039293;-0.099613205;;;;;;;;;;;;;;;
1244.0;1197.6;;;;-0.9221307;1.040928;-0.0904007;;;;;;;;;;;;;;;
1244.0;1197.6;;;;-0.93763363;1.0796357;-0.08065034;;;;;;;;;;;;;;;
1244.0;1197.6;;;;-0.95258725;1.1169893;-0.069782265;;;;;;;;;;;;;;;
1244.0;1197.6;;;;-0.9698945;1.1534997;-0.06217576;;;;;;;;;;;;;;;
1244.0;1199.0;106625;106678;14657;;;;;;;;;;;;;;;;;;
1299.0;1205.4;;;;;;;;;;;;;-8;;;;;;;;
1299.0;1205.4;;;;;;;;;;;;;-5;;;;;;;;
1299.0;1205.4;;;;;;;;;;;;;-7;;;;;;;;
1299.0;1205.4;;;;;;;;;;;;;-23;;;;;;;;
1299.0;1205.4;;;;;;;;;;;;;-11;;;;;;;;
1299.0;1207.6;;;;-0.98656094;1.1892091;-0.057380684;;;;;;;;;;;;;;;
1299.0;1207.6;;;;-1.001877;1.2231103;-0.055336006;;;;;;;;;;;;;;;
1299.0;1207.6;;;;-1.0154954;1.2530748;-0.05438996;;;;;;;;;;;;;;;
1299.0;1207.6;;;;-1.0259897;1.2781183;-0.052982338;;;;;;;;;;;;;;;
1299.0;1207.6;;;;-1.0347024;1.2986909;-0.05181504;;;;;;;;;;;;;;;
1299.0;1217.5;;;;-1.0403863;1.3160363;-0.049842842;;;;;;;;;;;;;;;
1299.0;1217.5;;;;-1.0414735;1.3291398;-0.047431953;;;;;;;;;;;;;;;
1299.0;1217.5;;;;-1.0412294;1.3370973;-0.04558945;;;;;;;;;;;;;;;
1299.0;1217.5;;;;-1.0372392;1.3395349;-0.043106083;;;;;;;;;;;;;;;
1299.0;1217.5;;;;-1.0341951;1.3354074;-0.039314274;;;;;;;;;;;;;;;
1299.0;1219.1;122982;122992;14661;;;;;;;;;;;;;;;;;;
1299.0;1227.7;;;;-1.0275422;1.3261415;-0.03162766;;;;;;;;;;;;;;;
1299.0;1227.7;;;;-1.0221406;1.313492;-0.024566654;;;;;;;;;;;;;;;
1299.0;1227.7;;;;-1.0127641;1.2953988;-0.01823044;;;;;;;;;;;;;;;
1299.0;1227.7;;;;-1.0009347;1.2721368;-0.014183046;;;;;;;;;;;;;;;
1299.0;1227.7;;;;-0.98798;1.2442971;-0.011238099;;;;;;;;;;;;;;;
1301.0;1237.8;;;;-0.97721875;1.2125894;-0.010635377;;;;;;;;;;;;;;;
1301.0;1237.8;;;;-0.9614183;1.179741;-0.011840822;;;;;;;;;;;;;;;
1301.0;1237.8;;;;-0.94381344;1.1443597;-0.013496401;;;;;;;;;;;;;;;
1301.0;1237.8;;;;-0.9304811;1.1083757;-0.016185762;;;;;;;;;;;;;;;
1301.0;1237.8;;;;-0.9193002;1.0742303;-0.017829897;;;;;;;;;;;;;;;
1301.0;1239.4;139409;139413;14656;;;;;;;;;;;;;;;;;;
1301.0;1243.3;;;;;;;;;;;;;;;;;-57.57317;19.806513;-37.430954;;1129.2
1301.0;1243.3;;;;;;;;;;;;;;0.69032866;0.073000275;0.027527696;;;;;1129.2
1301.0;1243.3;;;;;;;;;;;;;;;;;-57.348095;29.90814;-33.013397;;1129.2
1301.0;1243.3;;;;;;;;;;;;;;0.70741904;-0.10834071;0.36335337;;;;;1129.2
1301.0;1243.3;;;;;;;;;;;;;;;;;-46.27369;40.253914;-29.683065;;1138.8
1301.0;1243.3;;;;;;;;;;;;;;0.77370524;-0.023194067;0.7543565;;;;;1138.8
1301.0;1243.3;;;;;;;;;;;;;;;;;-20.47029;13.832514;-22.392956;;1138.8
1301.0;1243.3;;;;;;;;;;;;;;1.0043031;0.20068972;0.6203803;;;;;1138.8
1301.0;1243.3;;;;;;;;;;;;;;;;;37.48436;-75.69735;-6.4661093;;1148.5
1301.0;1243.3;;;;;;;;;;;;;;1.5344707;0.4591815;-0.15344706;;;;;1148.5
1301.0;1243.3;;;;;;;;;;;;;;;;;91.92557;-124.3057;13.4167;;1148.5
1301.0;1243.3;;;;;;;;;;;;;;1.996643;0.6436354;-1.4941251;;;;;1148.5
1303.0;1244.5;;;;;;;;;;;;;;;;;87.07313;-123.86318;35.24125;;1158.1
1303.0;1244.5;;;;;;;;;;;;;;1.9971923;0.5299844;-1.9484237;;;;;1158.1
1303.0;1244.5;;;;;;;;;;;;;;;;;37.404247;-78.49742;60.2855;;1158.1
1303.0;1244.5;;;;;;;;;;;;;;1.9971923;0.2806482;-1.0415357;;;;;1158.1
1303.0;1244.5;;;;;;;;;;;;;;;;;-8.228554;5.096591;70.52446;;1167.7
1303.0;1244.5;;;;;;;;;;;;;;1.9971923;-0.15491195;-0.26789147;;;;;1167.7
1303.0;1244.5;;;;;;;;;;;;;;;;;-22.637104;66.79358;45.083466;;1167.7
1303.0;1244.5;;;;;;;;;;;;;;1.8019348;-0.11835078;-0.22638631;;;;;1167.7
1303.0;1244.5;;;;;;;;;;;;;;;;;-36.538284;73.50383;25.61266;;1177.4
1303.0;1244.5;;;;;;;;;;;;;;1.2869045;-0.25305948;-0.16327402;;;;;1177.4
1303.0;1244.5;;;;;;;;;;;;;;;;;-38.571583;48.421432;2.1477401;;1177.4
1303.0;1244.5;;;;;;;;;;;;;;1.1156957;-0.30628377;-0.29737237;;;;;1177.4
1303.0;1245.6;;;;;;;;;;;;;-46;;;;;;;;
1303.0;1245.6;;;;;;;;;;;;;-26;;;;;;;;
1303.0;1245.6;;;;;;;;;;;;;-5;;;;;;;;
1303.0;1245.6;;;;;;;;;;;;;-181;;;;;;;;
1303.0;1245.6;;;;;;;;;;;;;84;;;;;;;;
1303.0;1247.8;;;;-0.90568554;1.0418092;-0.021587374;;;;;;;;;;;;;;;
1303.0;1247.8;;;;-0.89167416;1.0130616;-0.027740482;;;;;;;;;;;;;;;
1303.0;1247.8;;;;-0.8785554;0.98923504;-0.035800938;;;;;;;;;;;;;;;
1303.0;1247.8;;;;-0.85930264;0.97098553;-0.043117527;;;;;;;;;;;;;;;
1303.0;1247.8;;;;-0.84004605;0.9564401;-0.052135475;;;;;;;;;;;;;;;
1358.0;1257.7;;;;-0.8315469;0.94409955;-0.05946351;;;;;;;;;;;;;;;
1358.0;1257.7;;;;-0.8098718;0.9364778;-0.066127785;;;;;;;;;;;;;;;
1358.0;1257.7;;;;-0.7820474;0.93644726;-0.073177345;;;;;;;;;;;;;;;
1358.0;1257.7;;;;-0.7777444;0.9389764;-0.074298866;;;;;;;;;;;;;;;
1358.0;1257.7;;;;-0.76755536;0.9426919;-0.07215119;;;;;;;;;;;;;;;
1358.0;1259.4;155784;155738;14651;;;;;;;;;;;;;;;;;;
1358.0;1267.8;;;;-0.75242627;0.9484483;-0.076644905;;;;;;;;;;;;;;;
1358.0;1267.8;;;;-0.7414971;0.9576608;-0.08115006;;;;;;;;;;;;;;;
1358.0;1267.8;;;;-0.73748785;0.97133267;-0.08588792;;;;;;;;;;;;;;;
1358.0;1267.8;;;;-0.7331353;0.98653424;-0.087665565;;;;;;;;;;;;;;;
1358.0;1267.8;;;;-0.7224732;1.0046579;-0.0910225;;;;;;;;;;;;;;;
1358.0;1277.7;;;;-0.71332175;1.0230371;-0.090240486;;;;;;;;;;;;;;;
1358.0;1277.7;;;;-0.69958884;1.0410844;-0.08971024;;;;;;;;;;;;;;;
1358.0;1277.7;;;;-0.68718725;1.0606691;-0.09077836;;;;;;;;;;;;;;;
1358.0;1277.7;;;;-0.67498404;1.0787965;-0.09051896;;;;;;;;;;;;;;;
1358.0;1277.7;;;;-0.6677094;1.0946771;-0.09576799;;;;;;;;;;;;;;;
1358.0;1279.4;172115;172221;14655;;;;;;;;;;;;;;;;;;
1358.0;1285.8;;;;;;;;;;;;;447;;;;;;;;
1358.0;1285.8;;;;;;;;;;;;;-346;;;;;;;;
1358.0;1285.8;;;;;;;;;;;;;-1053;;;;;;;;
1358.0;1285.8;;;;;;;;;;;;;959;;;;;;;;
1358.0;1285.8;;;;;;;;;;;;;5750;;;;;;;;
1362.0;1287.8;;;;-0.6826249;1.1165849;-0.10944368;;;;;;;;;;;;;;;
1362.0;1287.8;;;;-0.6921006;1.1448556;-0.11574556;;;;;;;;;;;;;;;
1362.0;1287.8;;;;-0.6786843;1.1659471;-0.11287309;;;;;;;;;;;;;;;
1362.0;1287.8;;;;-0.6550179;1.17931;-0.10059358;;;;;;;;;;;;;;;
1362.0;1287.8;;;;-0.6584969;1.1895868;-0.0817566;;;;;;;;;;;;;;;
1362.0;1298.0;;;;-0.6462899;1.2003709;-0.07826234;;;;;;;;;;;;;;;
1362.0;1298.0;;;;-0.6260262;1.2151643;-0.08348084;;;;;;;;;;;;;;;
1362.0;1298.0;;;;-0.61890036;1.2320062;-0.09896089;;;;;;;;;;;;;;;
1362.0;1298.0;;;;-0.62495047;1.2482148;-0.11041261;;;;;;;;;;;;;;;
1362.0;1298.0;;;;-0.62666327;1.2650872;-0.12008287;;;;;;;;;;;;;;;
1362.0;1299.7;188563;188537;14647;;;;;;;;;;;;;;;;;;
1362.0;1303.6;;;;;;;;;;;;;;;;;-34.15021;55.524612;-20.27192;;1187.0
1362.0;1303.6;;;;;;;;;;;;;;0.8991363;-0.24146245;-0.08825953;;;;;1187.0
1362.0;1303.6;;;;;;;;;;;;;;;;;-41.837063;56.52791;-33.791622;;1187.0
1362.0;1303.6;;;;;;;;;;;;;;0.71431625;-0.2733848;0.016479995;;;;;1187.0
1362.0;1303.6;;;;;;;;;;;;;;;;;-56.360058;48.020874;-40.29969;;1196.7
1362.0;1303.6;;;;;;;;;;;;;;0.58735925;-0.3584704;0.019104587;;;;;1196.7
1362.0;1303.6;;;;;;;;;;;;;;;;;-62.868134;36.801506;-43.836025;;1196.7
1362.0;1303.6;;;;;;;;;;;;;;0.545793;-0.4193243;0.06738487;;;;;1196.7
1362.0;1303.6;;;;;;;;;;;;;;;;;-61.170536;28.828547;-46.903133;;1206.2
1362.0;1303.6;;;;;;;;;;;;;;0.57686085;-0.3971679;0.17749566;;;;;1206.2
1362.0;1303.6;;;;;;;;;;;;;;;;;-48.66558;24.277475;-48.802914;;1206.2
1362.0;1303.6;;;;;;;;;;;;;;0.6068911;-0.3253273;0.2033143;;;;;1206.2
1363.0;1304.4;;;;;;;;;;;;;;;;;-24.105808;21.343884;-47.685173;;1215.9
1363.0;1304.4;;;;;;;;;;;;;;0.5955382;-0.25495163;0.09814753;;;;;1215.9
1363.0;1304.4;;;;;;;;;;;;;;;;;3.627888;21.042513;-41.177097;;1215.9
1363.0;1304.4;;;;;;;;;;;;;;0.57655567;-0.24475844;-0.05468917;;;;;1215.9
1363.0;1304.4;;;;;;;;;;;;;;;;;27.550583;24.922176;-27.214882;;1225.6
1363.0;1304.4;;;;;;;;;;;;;;0.5785699;-0.31714836;-0.12018189;;;;;1225.6
1363.0;1304.4;;;;;;;;;;;;;;;;;47.8988;27.638325;-10.792109;;1225.6
1363.0;1304.4;;;;;;;;;;;;;;0.5874813;-0.34430984;-0.08697775;;;;;1225.6
1363.0;1304.4;;;;;;;;;;;;;;;;;68.41868;22.061068;4.3488874;;1235.3
1363.0;1304.4;;;;;;;;;;;;;;0.59181494;-0.32966095;-0.051271096;;;;;1235.3
1363.0;1304.4;;;;;;;;;;;;;;;;;90.6476;6.5080724;17.036957;;1235.3
1363.0;1304.4;;;;;;;;;;;;;;0.60188603;-0.30060732;-0.096377455;;;;;1235.3
1363.0;1307.9;;;;-0.62460715;1.2785913;-0.12799455;;;;;;;;;;;;;;;
1363.0;1307.9;;;;-0.6192475;1.2876626;-0.13047029;;;;;;;;;;;;;;;
1363.0;1307.9;;;;-0.62424856;1.2934648;-0.12861635;;;;;;;;;;;;;;;
1363.0;1307.9;;;;-0.61905295;1.2973138;-0.12545015;;;;;;;;;;;;;;;
1363.0;1307.9;;;;-0.6099549;1.3006631;-0.13010027;;;;;;;;;;;;;;;
1363.0;1318.0;;;;-0.60215;1.3030397;-0.13395692;;;;;;;;;;;;;;;
1363.0;1318.0;;;;-0.5953751;1.3032838;-0.13589098;;;;;;;;;;;;;;;
1363.0;1318.0;;;;-0.5905114;1.3009759;-0.1348839;;;;;;;;;;;;;;;
1363.0;1318.0;;;;-0.58793646;1.2947274;-0.13489152;;;;;;;;;;;;;;;
1363.0;1318.0;;;;-0.583458;1.2879258;-0.13349153;;;;;;;;;;;;;;;
1418.0;1318.6;;;;;;;;;;;;;;;;;108.63064;-15.106662;29.110844;;1244.9
1418.0;1318.6;;;;;;;;;;;;;;0.57435834;-0.28766748;-0.16425061;;;;;1244.9
1418.0;1318.6;;;;;;;;;;;;;;;;;119.53338;-46.42628;41.066467;;1244.9
1418.0;1318.6;;;;;;;;;;;;;;0.5058748;-0.26813564;-0.28736228;;;;;1244.9
1418.0;1318.6;;;;;;;;;;;;;;;;;123.195595;-86.63824;51.77465;;1254.6
1418.0;1318.6;;;;;;;;;;;;;;0.46089053;-0.23871578;-0.46583453;;;;;1254.6
1418.0;1318.6;;;;;;;;;;;;;;;;;122.116;-118.530075;60.708942;;1254.6
1418.0;1318.6;;;;;;;;;;;;;;0.48933378;-0.23023164;-0.6077456;;;;;1254.6
1418.0;1318.6;;;;;;;;;;;;;;;;;118.95352;-124.988556;67.75872;;1264.2
1418.0;1318.6;;;;;;;;;;;;;;0.63637197;-0.23432112;-0.59309673;;;;;1264.2
1418.0;1318.6;;;;;;;;;;;;;;;;;116.3213;-122.74926;73.00409;;1264.2
1418.0;1318.6;;;;;;;;;;;;;;0.87002164;-0.21491134;-0.506241;;;;;1264.2
1418.0;1319.6;205001;204946;14638;;;;;;;;;;;;;;;;;;
1418.0;1325.9;;;;;;;;;;;;;10082;;;;;;;;
1418.0;1325.9;;;;;;;;;;;;;11273;;;;;;;;
1418.0;1325.9;;;;;;;;;;;;;10100;;;;;;;;
1418.0;1325.9;;;;;;;;;;;;;9214;;;;;;;;
1418.0;1325.9;;;;;;;;;;;;;9722;;;;;;;;
1418.0;1327.9;;;;-0.5773011;1.279915;-0.1334305;;;;;;;;;;;;;;;
1418.0;1327.9;;;;-0.56999594;1.273369;-0.13449861;;;;;;;;;;;;;;;
1418.0;1327.9;;;;-0.571251;1.2656595;-0.13486482;;;;;;;;;;;;;;;
1418.0;1327.9;;;;-0.57472616;1.254738;-0.13207628;;;;;;;;;;;;;;;
1418.0;1327.9;;;;-0.5597878;1.2440339;-0.13072206;;;;;;;;;;;;;;;
1420.0;1337.8;;;;-0.5486298;1.2356492;-0.13153078;;;;;;;;;;;;;;;
1420.0;1337.8;;;;-0.54041296;1.2275468;-0.13245393;;;;;;;;;;;;;;;
1420.0;1337.8;;;;-0.5342904;1.2180253;-0.13299944;;;;;;;;;;;;;;;
1420.0;1337.8;;;;-0.5321885;1.2059137;-0.13088228;;;;;;;;;;;;;;;
1420.0;1337.8;;;;-0.5287209;1.1956598;-0.12901308;;;;;;;;;;;;;;;
1420.0;1339.6;221335;221329;14635;;;;;;;;;;;;;;;;;;
1420.0;1347.9;;;;-0.5234414;1.184395;-0.12928392;;;;;;;;;;;;;;;
1420.0;1347.9;;;;-0.51764303;1.1741296;-0.126915;;;;;;;;;;;;;;;
1420.0;1347.9;;;;-0.5095864;1.1657678;-0.12405397;;;;;;;;;;;;;;;
1420.0;1347.9;;;;-0.5001412;1.156582;-0.122093216;;;;;;;;;;;;;;;
1420.0;1347.9;;;;-0.4905892;1.1473962;-0.12020494;;;;;;;;;;;;;;;
1420.0;1358.0;;;;-0.48530966;1.1393548;-0.11778261;;;;;;;;;;;;;;;
1420.0;1358.0;;;;-0.48055655;1.1305772;-0.117195144;;;;;;;;;;;;;;;
1420.0;1358.0;;;;-0.46970755;1.1250268;-0.115116134;;;;;;;;;;;;;;;
1420.0;1358.0;;;;-0.45940405;1.1178361;-0.11191179;;;;;;;;;;;;;;;
1420.0;1358.0;;;;-0.4519425;1.1092988;-0.10809709;;;;;;;;;;;;;;;
1420.0;1359.9;237600;237738;14623;;;;;;;;;;;;;;;;;;
1421.0;1364.1;;;;;;;;;;;;;;;;;112.125;-100.508896;75.90335;;1273.8
1421.0;1364.1;;;;;;;;;;;;;;1.0287789;-0.18903165;-0.43226418;;;;;1273.8
1421.0;1364.1;;;;;;;;;;;;;;;;;101.55797;-62.99402;75.72024;;1273.8
1421.0;1364.1;;;;;;;;;;;;;;1.1050752;-0.15320292;-0.35724968;;;;;1273.8
1421.0;1364.1;;;;;;;;;;;;;;;;;84.318825;-31.476028;70.84872;;1283.4
1421.0;1364.1;;;;;;;;;;;;;;1.1675161;-0.06781213;-0.28339487;;;;;1283.4
1421.0;1364.1;;;;;;;;;;;;;;;;;63.234352;-22.095402;62.29209;;1283.4
1421.0;1364.1;;;;;;;;;;;;;;1.2321543;0.101504564;-0.32410657;;;;;1283.4
1421.0;1364.1;;;;;;;;;;;;;;;;;43.534657;-31.140324;47.948395;;1292.9
1421.0;1364.1;;;;;;;;;;;;;;1.3052766;0.31879634;-0.5670339;;;;;1292.9
1421.0;1364.1;;;;;;;;;;;;;;;;;27.74514;-38.377026;29.49614;;1292.9
1421.0;1364.1;;;;;;;;;;;;;;1.3654592;0.58540606;-0.87478256;;;;;1292.9
1421.0;1366.1;;;;;;;;;;;;;10268;;;;;;;;
1421.0;1366.1;;;;;;;;;;;;;10216;;;;;;;;
1421.0;1366.1;;;;;;;;;;;;;10109;;;;;;;;
1421.0;1366.1;;;;;;;;;;;;;9806;;;;;;;;
1421.0;1366.1;;;;;;;;;;;;;9304;;;;;;;;
1421.0;1368.0;;;;-0.43853384;1.1016809;-0.10392381;;;;;;;;;;;;;;;
1421.0;1368.0;;;;-0.42638785;1.0946618;-0.10107423;;;;;;;;;;;;;;;
1421.0;1368.0;;;;-0.42223746;1.0875474;-0.09572603;;;;;;;;;;;;;;;
1421.0;1368.0;;;;-0.41403586;1.0799333;-0.08858491;;;;;;;;;;;;;;;
1421.0;1368.0;;;;-0.4031754;1.0739747;-0.08317185;;;;;;;;;;;;;;;
1481.0;1378.1;;;;-0.38729483;1.0690881;-0.07849122;;;;;;;;;;;;;;;
1481.0;1378.1;;;;-0.37541205;1.0632669;-0.07396699;;;;;;;;;;;;;;;
1481.0;1378.1;;;;-0.3644562;1.0562059;-0.065933235;;;;;;;;;;;;;;;
1481.0;1378.1;;;;-0.3514748;1.0495225;-0.06171418;;;;;;;;;;;;;;;
1481.0;1378.1;;;;-0.34139255;1.044449;-0.05766297;;;;;;;;;;;;;;;
1481.0;1378.8;;;;;;;;;;;;;;;;;15.934477;-31.167028;11.810663;;1302.6
1481.0;1378.8;;;;;;;;;;;;;;1.3658254;0.8489639;-1.0413526;;;;;1302.6
1481.0;1378.8;;;;;;;;;;;;;;;;;13.80581;-11.410108;-1.2741477;;1302.6
1481.0;1378.8;;;;;;;;;;;;;;1.2571185;1.023957;-0.95272684;;;;;1302.6
1481.0;1378.8;;;;;;;;;;;;;;;;;20.004883;10.54033;-10.258034;;1312.3
1481.0;1378.8;;;;;;;;;;;;;;1.1515855;1.0489823;-0.6979583;;;;;1312.3
1481.0;1378.8;;;;;;;;;;;;;;;;;29.873806;30.537582;-16.888182;;1312.3
1481.0;1378.8;;;;;;;;;;;;;;1.1234474;1.0044252;-0.49244666;;;;;1312.3
1481.0;1378.8;;;;;;;;;;;;;;;;;36.35136;57.29087;-18.318735;;1321.9
1481.0;1378.8;;;;;;;;;;;;;;1.058443;0.9924009;-0.27198097;;;;;1321.9
1481.0;1378.8;;;;;;;;;;;;;;;;;34.15021;77.81839;-12.6957;;1321.9
1481.0;1378.8;;;;;;;;;;;;;;0.9307535;0.9559007;-0.052552875;;;;;1321.9
1481.0;1379.9;254047;254132;14620;;;;;;;;;;;;;;;;;;
1481.0;1388.0;;;;-0.32751468;1.0399629;-0.05516053;;;;;;;;;;;;;;;
1481.0;1388.0;;;;-0.31655887;1.0348588;-0.052955635;;;;;;;;;;;;;;;
1481.0;1388.0;;;;-0.3074837;1.0267946;-0.048286445;;;;;;;;;;;;;;;
1481.0;1388.0;;;;-0.29224017;1.0200578;-0.04489899;;;;;;;;;;;;;;;
1481.0;1388.0;;;;-0.24939731;1.0071336;-0.04173279;;;;;;;;;;;;;;;
1483.0;1397.9;;;;-0.18802264;0.9970399;-0.045795444;;;;;;;;;;;;;;;
1483.0;1397.9;;;;-0.23577884;1.0016595;-0.03509522;;;;;;;;;;;;;;;
1483.0;1397.9;;;;-0.25747302;0.9929353;-0.03489304;;;;;;;;;;;;;;;
1483.0;1397.9;;;;-0.23279956;0.98617566;-0.035694126;;;;;;;;;;;;;;;
1483.0;1397.9;;;;-0.20946887;0.9753419;-0.031845096;;;;;;;;;;;;;;;
1483.0;1400.0;262143;262143;14608;;;;;;;;;;;;;;;;;;
1483.0;1406.3;;;;;;;;;;;;;9043;;;;;;;;
1483.0;1406.3;;;;;;;;;;;;;9082;;;;;;;;
1483.0;1406.3;;;;;;;;;;;;;9205;;;;;;;;
1483.0;1406.3;;;;;;;;;;;;;9086;;;;;;;;
1483.0;1406.3;;;;;;;;;;;;;8703;;;;;;;;
1483.0;1408.1;;;;-0.19953158;0.9654466;-0.030227665;;;;;;;;;;;;;;;
1483.0;1408.1;;;;-0.1947594;0.959015;-0.0300293;;;;;;;;;;;;;;;
1483.0;1408.1;;;;-0.18363191;0.94999325;-0.028862003;;;;;;;;;;;;;;;
1483.0;1408.1;;;;-0.17007448;0.9419099;-0.027801517;;;;;;;;;;;;;;;
1483.0;1408.1;;;;-0.15878297;0.93532956;-0.024650577;;;;;;;;;;;;;;;
1483.0;1418.2;;;;-0.15037157;0.9243928;-0.021865847;;;;;;;;;;;;;;;
1483.0;1418.2;;;;-0.1463051;0.91313946;-0.01790619;;;;;;;;;;;;;;;
1483.0;1418.2;;;;-0.1383629;0.90319073;-0.014881136;;;;;;;;;;;;;;;
1483.0;1418.2;;;;-0.13591005;0.89519894;-0.014198305;;;;;;;;;;;;;;;
1483.0;1418.2;;;;-0.13778307;0.8855554;-0.012100222;;;;;;;;;;;;;;;
1483.0;1420.3;262143;262143;14611;;;;;;;;;;;;;;;;;;
1485.0;1424.0;;;;;;;;;;;;;;;;;25.315104;77.94809;-2.1210363;;1331.6
1485.0;1424.0;;;;;;;;;;;;;;0.83620715;0.84707177;0.037415694;;;;;1331.6
1485.0;1424.0;;;;;;;;;;;;;;;;;17.948698;66.045876;8.655812;;1331.6
1485.0;1424.0;;;;;;;;;;;;;;0.8027589;0.73628956;0.015991699;;;;;1331.6
1485.0;1424.0;;;;;;;;;;;;;;;;;14.526811;53.52947;18.929106;;1341.2
1485.0;1424.0;;;;;;;;;;;;;;0.75557727;0.59682;9.155553E-4;;;;;1341.2
1485.0;1424.0;;;;;;;;;;;;;;;;;13.401441;38.37321;27.417065;;1341.2
1485.0;1424.0;;;;;;;;;;;;;;0.694174;0.59035003;0.0025635548;;;;;1341.2
1485.0;1424.0;;;;;;;;;;;;;;;;;10.895108;20.722069;34.199802;;1350.8
1485.0;1424.0;;;;;;;;;;;;;;0.6300852;0.4430067;-0.019775994;;;;;1350.8
1485.0;1424.0;;;;;;;;;;;;;;;;;9.205146;3.318888;39.025543;;1350.8
1485.0;1424.0;;;;;;;;;;;;;;0.6245918;0.4334849;-0.08764916;;;;;1350.8
1485.0;1428.2;;;;-0.12511064;0.8693391;-0.0105400095;;;;;;;;;;;;;;;
1485.0;1428.2;;;;-0.12059404;0.8612634;-0.014289858;;;;;;;;;;;;;;;
1485.0;1428.2;;;;-0.11708452;0.8500787;-0.014682772;;;;;;;;;;;;;;;
1485.0;1428.2;;;;-0.11619188;0.8368341;-0.012767794;;;;;;;;;;;;;;;
1485.0;1428.2;;;;-0.11404039;0.825657;-0.012969973;;;;;;;;;;;;;;;
1485.0;1438.3;;;;-0.111957565;0.81305325;-0.0144958515;;;;;;;;;;;;;;;
1485.0;1438.3;;;;-0.11196901;0.80266964;-0.016269686;;;;;;;;;;;;;;;
1485.0;1438.3;;;;-0.11437227;0.7924539;-0.020015718;;;;;;;;;;;;;;;
1485.0;1438.3;;;;-0.11304857;0.781582;-0.021747591;;;;;;;;;;;;;;;
1485.0;1438.3;;;;-0.10261156;0.7673303;-0.021987917;;;;;;;;;;;;;;;
1537.0;1439.1;;;;;;;;;;;;;;;;;7.2786646;-8.381146;43.412582;;1360.5
1537.0;1439.1;;;;;;;;;;;;;;0.5910825;0.40424818;-0.17560351;;;;;1360.5
1537.0;1439.1;;;;;;;;;;;;;;;;;5.9129615;-17.437513;47.669914;;1360.5
1537.0;1439.1;;;;;;;;;;;;;;0.5595263;0.33954895;-0.24182867;;;;;1360.5
1537.0;1439.1;;;;;;;;;;;;;;;;;5.3140354;-26.177252;51.2978;;1370.1
1537.0;1439.1;;;;;;;;;;;;;;0.550737;0.31751457;-0.29096347;;;;;1370.1
1537.0;1439.1;;;;;;;;;;;;;;;;;4.7189245;-33.177437;55.017242;;1370.1
1537.0;1439.1;;;;;;;;;;;;;;0.55604726;0.2800989;-0.3023774;;;;;1370.1
1537.0;1439.1;;;;;;;;;;;;;;;;;3.3875546;-39.16669;57.626575;;1379.8
1537.0;1439.1;;;;;;;;;;;;;;0.57185584;0.25104526;-0.30146185;;;;;1379.8
1537.0;1439.1;;;;;;;;;;;;;;;;;0.13733329;-43.218025;58.523056;;1379.8
1537.0;1439.1;;;;;;;;;;;;;;0.588702;0.22974335;-0.32636493;;;;;1379.8
1537.0;1440.2;262143;262143;14598;;;;;;;;;;;;;;;;;;
1537.0;1446.5;;;;;;;;;;;;;9038;;;;;;;;
1537.0;1446.5;;;;;;;;;;;;;9236;;;;;;;;
1537.0;1446.5;;;;;;;;;;;;;5235;;;;;;;;
1537.0;1446.5;;;;;;;;;;;;;-3324;;;;;;;;
1537.0;1446.5;;;;;;;;;;;;;-9689;;;;;;;;
1537.0;1448.2;;;;-0.10334779;0.75634396;-0.0213089;;;;;;;;;;;;;;;
1537.0;1448.2;;;;-0.104080215;0.7443276;-0.02176285;;;;;;;;;;;;;;;
1537.0;1448.2;;;;-0.097778335;0.73149496;-0.022521975;;;;;;;;;;;;;;;
1537.0;1448.2;;;;-0.09572984;0.7198754;-0.021400454;;;;;;;;;;;;;;;
1537.0;1448.2;;;;-0.0962906;0.7110062;-0.0214386;;;;;;;;;;;;;;;
1540.0;1458.0;;;;-0.115936294;0.7095948;-0.029697422;;;;;;;;;;;;;;;
1540.0;1458.0;;;;-0.1521187;0.70468146;-0.05208207;;;;;;;;;;;;;;;
1540.0;1458.0;;;;-0.11180879;0.681923;-0.03236771;;;;;;;;;;;;;;;
1540.0;1458.0;;;;-0.105533615;0.6740685;-0.018375399;;;;;;;;;;;;;;;
1540.0;1458.0;;;;-0.10093309;0.6690827;-0.014953615;;;;;;;;;;;;;;;
1540.0;1460.2;262143;262143;14603;;;;;;;;;;;;;;;;;;
1540.0;1468.1;;;;-0.09651567;0.6615563;-0.01476288;;;;;;;;;;;;;;;
1540.0;1468.1;;;;-0.09829332;0.6583443;-0.012218477;;;;;;;;;;;;;;;
1540.0;1468.1;;;;-0.098102584;0.6540833;-0.009174348;;;;;;;;;;;;;;;
1540.0;1468.1;;;;-0.09763338;0.64970785;-0.007839204;;;;;;;;;;;;;;;
1540.0;1468.1;;;;-0.102813736;0.6475678;-0.0073776254;;;;;;;;;;;;;;;
1540.0;1478.3;;;;-0.13373186;0.6471978;-0.012306215;;;;;;;;;;;;;;;
1540.0;1478.3;;;;-0.12264635;0.642994;-0.0116615305;;;;;;;;;;;;;;;
1540.0;1478.3;;;;-0.11091997;0.6419526;-0.0065803537;;;;;;;;;;;;;;;
1540.0;1478.3;;;;-0.11236192;0.6442223;-0.0058364873;;;;;;;;;;;;;;;
1540.0;1478.3;;;;-0.11154939;0.64448553;-0.0071601877;;;;;;;;;;;;;;;
1540.0;1480.5;262143;262143;14593;;;;;;;;;;;;;;;;;;
1540.0;1486.7;;;;;;;;;;;;;-7679;;;;;;;;
1540.0;1486.7;;;;;;;;;;;;;318;;;;;;;;
1540.0;1486.7;;;;;;;;;;;;;6506;;;;;;;;
1540.0;1486.7;;;;;;;;;;;;;7427;;;;;;;;
1540.0;1486.7;;;;;;;;;;;;;6157;;;;;;;;
1597.0;1488.4;;;;-0.11267473;0.6455918;-0.008445741;;;;;;;;;;;;;;;
1597.0;1488.4;;;;-0.115230575;0.6472855;-0.0076789865;;;;;;;;;;;;;;;
1597.0;1488.4;;;;-0.11594774;0.64853674;-0.00782776;;;;;;;;;;;;;;;
1597.0;1488.4;;;;-0.117870346;0.65061194;-0.008468629;;;;;;;;;;;;;;;
1597.0;1488.4;;;;-0.12137224;0.65326315;-0.010288239;;;;;;;;;;;;;;;
1597.0;1491.9;;;;;;;;;;;;;;;;;-3.7957397;-42.909027;58.02713;;1389.4
1597.0;1491.9;;;;;;;;;;;;;;0.6193426;0.19623402;-0.35395366;;;;;1389.4
1597.0;1491.9;;;;;;;;;;;;;;;;;-5.859554;-37.591175;56.192204;;1389.4
1597.0;1491.9;;;;;;;;;;;;;;0.6521195;0.19531846;-0.35523546;;;;;1389.4
1597.0;1491.9;;;;;;;;;;;;;;;;;-6.424146;-29.622028;53.22428;;1399.1
1597.0;1491.9;;;;;;;;;;;;;;0.67445904;0.22577593;-0.35377055;;;;;1399.1
1597.0;1491.9;;;;;;;;;;;;;;;;;-6.221961;-21.477402;49.46669;;1399.1
1597.0;1491.9;;;;;;;;;;;;;;0.69631034;0.25153357;-0.36262092;;;;;1399.1
1597.0;1491.9;;;;;;;;;;;;;;;;;-6.2067018;-13.53496;44.85839;;1408.7
1597.0;1491.9;;;;;;;;;;;;;;0.7198706;0.2755211;-0.35932493;;;;;1408.7
1597.0;1491.9;;;;;;;;;;;;;;;;;-6.45085;-6.8361464;39.147617;;1408.7
1597.0;1491.9;;;;;;;;;;;;;;0.73299354;0.30097353;-0.3333842;;;;;1408.7
1599.0;1492.7;;;;;;;;;;;;;;;;;-6.733146;-3.2044435;33.08588;;1418.3
1599.0;1492.7;;;;;;;;;;;;;;0.7525864;0.31385234;-0.31611073;;;;;1418.3
1599.0;1492.7;;;;;;;;;;;;;;;;;-5.93585;-0.96514785;27.367474;;1418.3
1599.0;1492.7;;;;;;;;;;;;;;0.77803886;0.32673118;-0.30835903;;;;;1418.3
1599.0;1492.7;;;;;;;;;;;;;;;;;-3.9902954;0.8354442;22.774437;;1428.0
1599.0;1492.7;;;;;;;;;;;;;;0.81771296;0.32129887;-0.2971282;;;;;1428.0
1599.0;1492.7;;;;;;;;;;;;;;;;;-0.62944424;3.318888;19.123661;;1428.0
1599.0;1492.7;;;;;;;;;;;;;;0.85085607;0.30591753;-0.26953948;;;;;1428.0
1599.0;1492.7;;;;;;;;;;;;;;;;;3.9483323;6.6301465;16.106144;;1437.6
1599.0;1492.7;;;;;;;;;;;;;;0.86587113;0.28107548;-0.21729179;;;;;1437.6
1599.0;1492.7;;;;;;;;;;;;;;;;;9.678183;9.903256;13.771477;;1437.6
1599.0;1492.7;;;;;;;;;;;;;;0.88216805;0.27509385;-0.14636678;;;;;1437.6
1599.0;1498.3;;;;-0.12625505;0.65629584;-0.012134554;;;;;;;;;;;;;;;
1599.0;1498.3;;;;-0.13179399;0.65993506;-0.014358522;;;;;;;;;;;;;;;
1599.0;1498.3;;;;-0.13254167;0.6634026;-0.0150375385;;;;;;;;;;;;;;;
1599.0;1498.3;;;;-0.13409807;0.667492;-0.015216829;;;;;;;;;;;;;;;
1599.0;1498.3;;;;-0.13951494;0.673359;-0.015220644;;;;;;;;;;;;;;;
1599.0;1500.5;262143;262143;14584;;;;;;;;;;;;;;;;;;
1599.0;1508.3;;;;-0.14725114;0.6791077;-0.01841736;;;;;;;;;;;;;;;
1599.0;1508.3;;;;-0.15491869;0.6853562;-0.021980288;;;;;;;;;;;;;;;
1599.0;1508.3;;;;-0.15818407;0.6904145;-0.024574284;;;;;;;;;;;;;;;
1599.0;1508.3;;;;-0.16139604;0.69553;-0.02626801;;;;;;;;;;;;;;;
1599.0;1508.3;;;;-0.16415788;0.69988257;-0.026554111;;;;;;;;;;;;;;;
1601.0;1518.2;;;;-0.16768648;0.7046433;-0.027488712;;;;;;;;;;;;;;;
1601.0;1518.2;;;;-0.17211153;0.70937735;-0.028743748;;;;;;;;;;;;;;;
1601.0;1518.2;;;;-0.17741396;0.7146569;-0.029434208;;;;;;;;;;;;;;;
1601.0;1518.2;;;;-0.18130495;0.71898276;-0.030586246;;;;;;;;;;;;;;;
1601.0;1518.2;;;;-0.18471529;0.7236901;-0.03225327;;;;;;;;;;;;;;;
1601.0;1520.5;262143;262143;14589;;;;;;;;;;;;;;;;;;
1601.0;1526.8;;;;;;;;;;;;;5953;;;;;;;;
1601.0;1526.8;;;;;;;;;;;;;6127;;;;;;;;
1601.0;1526.8;;;;;;;;;;;;;5524;;;;;;;;
1601.0;1526.8;;;;;;;;;;;;;5011;;;;;;;;
1601.0;1526.8;;;;;;;;;;;;;4794;;;;;;;;
1601.0;1528.3;;;;-0.18631746;0.72780234;-0.0357132;;;;;;;;;;;;;;;
1601.0;1528.3;;;;-0.18937305;0.7323914;-0.03754807;;;;;;;;;;;;;;;
1601.0;1528.3;;;;-0.19201282;0.7369767;-0.039039616;;;;;;;;;;;;;;;
1601.0;1528.3;;;;-0.19448093;0.7410508;-0.039775852;;;;;;;;;;;;;;;
1601.0;1528.3;;;;-0.19703296;0.7454644;-0.04068375;;;;;;;;;;;;;;;
1601.0;1538.4;;;;-0.19875339;0.75013363;-0.04278565;;;;;;;;;;;;;;;
1601.0;1538.4;;;;-0.19893268;0.7539865;-0.047069557;;;;;;;;;;;;;;;
1601.0;1538.4;;;;-0.19947436;0.75766003;-0.050098427;;;;;;;;;;;;;;;
1601.0;1538.4;;;;-0.20029452;0.7606851;-0.049140938;;;;;;;;;;;;;;;
1601.0;1538.4;;;;-0.20162585;0.7634927;-0.047634132;;;;;;;;;;;;;;;
1601.0;1540.8;262143;262143;14577;;;;;;;;;;;;;;;;;;
1602.0;1548.5;;;;-0.20171359;0.7658578;-0.049091347;;;;;;;;;;;;;;;
1602.0;1548.5;;;;-0.20154575;0.7675668;-0.049400337;;;;;;;;;;;;;;;
1602.0;1548.5;;;;-0.20103458;0.7688333;-0.049350746;;;;;;;;;;;;;;;
1602.0;1548.5;;;;-0.20052722;0.7702333;-0.049713142;;;;;;;;;;;;;;;
1602.0;1548.5;;;;-0.19865802;0.7708894;-0.053043373;;;;;;;;;;;;;;;
1602.0;1558.6;;;;-0.1959267;0.7710115;-0.055122383;;;;;;;;;;;;;;;
1602.0;1558.6;;;;-0.1944733;0.76976025;-0.057201393;;;;;;;;;;;;;;;
1602.0;1558.6;;;;-0.19223407;0.7686349;-0.05955506;;;;;;;;;;;;;;;
1602.0;1558.6;;;;-0.18947986;0.76729596;-0.063236244;;;;;;;;;;;;;;;
1602.0;1558.6;;;;-0.1869507;0.7660638;-0.06558991;;;;;;;;;;;;;;;
1602.0;1559.8;;;;;;;;;;;;;;;;;16.563921;12.287516;12.10059;;1447.3
1602.0;1559.8;;;;;;;;;;;;;;0.89291054;0.24591815;-0.08148442;;;;;1447.3
1602.0;1559.8;;;;;;;;;;;;;;;;;23.97229;13.481552;10.85696;;1447.3
1602.0;1559.8;;;;;;;;;;;;;;0.8915677;0.22717978;-0.025025178;;;;;1447.3
1602.0;1559.8;;;;;;;;;;;;;;;;;30.575731;13.138219;10.349589;;1457.0
1602.0;1559.8;;;;;;;;;;;;;;0.868923;0.20599994;0.01617481;;;;;1457.0
1602.0;1559.8;;;;;;;;;;;;;;;;;35.45869;9.769737;10.361034;;1457.0
1602.0;1559.8;;;;;;;;;;;;;;0.84987944;0.20026246;0.033143103;;;;;1457.0
1602.0;1559.8;;;;;;;;;;;;;;;;;38.72036;5.0889616;11.0400715;;1466.7
1602.0;1559.8;;;;;;;;;;;;;;0.8298593;0.17462692;0.025330363;;;;;1466.7
1602.0;1559.8;;;;;;;;;;;;;;;;;42.313915;0.12588885;11.703849;;1466.7
1602.0;1559.8;;;;;;;;;;;;;;0.8158208;0.17145298;-0.0044557024;;;;;1466.7
1659.0;1560.5;;;;;;;;;;;;;;;;;46.330914;-4.032258;12.405774;;1476.4
1659.0;1560.5;;;;;;;;;;;;;;0.8069704;0.17639698;-0.039063692;;;;;1476.4
1659.0;1560.5;;;;;;;;;;;;;;;;;50.756096;-6.557665;13.214515;;1476.4
1659.0;1560.5;;;;;;;;;;;;;;0.79067355;0.19019136;-0.06750695;;;;;1476.4
1659.0;1560.5;;;;;;;;;;;;;;;;;55.101166;-7.717368;14.168218;;1486.0
1659.0;1560.5;;;;;;;;;;;;;;0.77462083;0.19891964;-0.09857479;;;;;1486.0
1659.0;1560.5;;;;;;;;;;;;;;;;;58.97702;-7.4541464;15.354625;;1486.0
1659.0;1560.5;;;;;;;;;;;;;;0.7620472;0.20282601;-0.13226722;;;;;1486.0
1659.0;1560.5;;;;;;;;;;;;;;;;;62.02887;-5.901517;16.80807;;1495.7
1659.0;1560.5;;;;;;;;;;;;;;0.74831384;0.20020142;-0.16473891;;;;;1495.7
1659.0;1560.5;;;;;;;;;;;;;;;;;64.03165;-3.8987396;18.562883;;1495.7
1659.0;1560.5;;;;;;;;;;;;;;0.741905;0.20007935;-0.19830927;;;;;1495.7
1659.0;1560.9;262143;262143;14557;;;;;;;;;;;;;;;;;;
1659.0;1567.1;;;;;;;;;;;;;4332;;;;;;;;
1659.0;1567.1;;;;;;;;;;;;;3709;;;;;;;;
1659.0;1567.1;;;;;;;;;;;;;3134;;;;;;;;
1659.0;1567.1;;;;;;;;;;;;;2740;;;;;;;;
1659.0;1567.1;;;;;;;;;;;;;2507;;;;;;;;
1659.0;1568.5;;;;-0.18460466;0.7637216;-0.065811165;;;;;;;;;;;;;;;
1659.0;1568.5;;;;-0.18159486;0.7624513;-0.06635667;;;;;;;;;;;;;;;
1659.0;1568.5;;;;-0.17891695;0.7602426;-0.070579536;;;;;;;;;;;;;;;
1659.0;1568.5;;;;-0.17644884;0.75784314;-0.073040016;;;;;;;;;;;;;;;
1659.0;1568.5;;;;-0.17469408;0.75552;-0.07362748;;;;;;;;;;;;;;;
1662.0;1578.3;;;;-0.17243959;0.75319684;-0.0730095;;;;;;;;;;;;;;;
1662.0;1578.3;;;;-0.16993333;0.75057614;-0.073989876;;;;;;;;;;;;;;;
1662.0;1578.3;;;;-0.16669084;0.7487832;-0.0756569;;;;;;;;;;;;;;;
1662.0;1578.3;;;;-0.16313173;0.74641424;-0.076442726;;;;;;;;;;;;;;;
1662.0;1578.3;;;;-0.16000749;0.7441903;-0.07510758;;;;;;;;;;;;;;;
1662.0;1580.9;262143;262143;14565;;;;;;;;;;;;;;;;;;
1662.0;1588.5;;;;-0.15685655;0.74234015;-0.07441331;;;;;;;;;;;;;;;
1662.0;1588.5;;;;-0.15303423;0.7403222;-0.074436195;;;;;;;;;;;;;;;
1662.0;1588.5;;;;-0.1492653;0.7389565;-0.07549668;;;;;;;;;;;;;;;
1662.0;1588.5;;;;-0.1466446;0.73789984;-0.07601548;;;;;;;;;;;;;;;
1662.0;1588.5;;;;-0.1443329;0.737114;-0.075695045;;;;;;;;;;;;;;;
1662.0;1598.6;;;;-0.14133073;0.7372132;-0.07509995;;;;;;;;;;;;;;;
1662.0;1598.6;;;;-0.13803484;0.73701864;-0.07399369;;;;;;;;;;;;;;;
1662.0;1598.6;;;;-0.13568498;0.7370339;-0.07269288;;;;;;;;;;;;;;;
1662.0;1598.6;;;;-0.13322832;0.7365952;-0.071666725;;;;;;;;;;;;;;;
1662.0;1598.6;;;;-0.13080217;0.736435;-0.070529945;;;;;;;;;;;;;;;
1662.0;1601.2;262143;262143;14554;;;;;;;;;;;;;;;;;;
1662.0;1607.3;;;;;;;;;;;;;2291;;;;;;;;
1662.0;1607.3;;;;;;;;;;;;;2114;;;;;;;;
1662.0;1607.3;;;;;;;;;;;;;2039;;;;;;;;
1662.0;1607.3;;;;;;;;;;;;;2063;;;;;;;;
1662.0;1607.3;;;;;;;;;;;;;2300;;;;;;;;
1663.0;1608.7;;;;-0.1291237;0.7362595;-0.06995011;;;;;;;;;;;;;;;
1663.0;1608.7;;;;-0.12658693;0.73556143;-0.06818391;;;;;;;;;;;;;;;
1663.0;1608.7;;;;-0.12424089;0.73509604;-0.06604005;;;;;;;;;;;;;;;
1663.0;1608.7;;;;-0.12192537;0.73432547;-0.063400276;;;;;;;;;;;;;;;
1663.0;1608.7;;;;-0.11936189;0.7333756;-0.060783394;;;;;;;;;;;;;;;
1663.0;1612.5;;;;;;;;;;;;;;;;;65.30579;-1.7166661;20.157475;;1505.4
1663.0;1612.5;;;;;;;;;;;;;;0.7420881;0.19910276;-0.2367626;;;;;1505.4
1663.0;1612.5;;;;;;;;;;;;;;;;;65.41643;0.88503677;21.30192;;1505.4
1663.0;1612.5;;;;;;;;;;;;;;0.74831384;0.20838039;-0.2692343;;;;;1505.4
1663.0;1612.5;;;;;;;;;;;;;;;;;64.22239;3.6698508;22.282326;;1515.1
1663.0;1612.5;;;;;;;;;;;;;;0.76345104;0.22809534;-0.28223518;;;;;1515.1
1663.0;1612.5;;;;;;;;;;;;;;;;;62.295906;6.1609244;23.129215;;1515.1
1663.0;1612.5;;;;;;;;;;;;;;0.78109074;0.2329783;-0.28266242;;;;;1515.1
1663.0;1612.5;;;;;;;;;;;;;;;;;60.85391;7.9195538;23.846401;;1524.7
1663.0;1612.5;;;;;;;;;;;;;;0.80636007;0.24201179;-0.27881712;;;;;1524.7
1663.0;1612.5;;;;;;;;;;;;;;;;;60.457165;9.346293;24.521624;;1524.7
1663.0;1612.5;;;;;;;;;;;;;;0.83700067;0.27503282;-0.2600177;;;;;1524.7
1722.0;1613.7;;;;;;;;;;;;;;;;;60.869167;10.807367;25.292213;;1534.3
1722.0;1613.7;;;;;;;;;;;;;;0.8625752;0.3068331;-0.24384288;;;;;1534.3
1722.0;1613.7;;;;;;;;;;;;;;;;;62.002167;12.802515;26.272621;;1534.3
1722.0;1613.7;;;;;;;;;;;;;;0.8832667;0.3452254;-0.23761712;;;;;1534.3
1722.0;1613.7;;;;;;;;;;;;;;;;;63.238167;15.114291;27.325512;;1544.0
1722.0;1613.7;;;;;;;;;;;;;;0.8906522;0.3761101;-0.24085207;;;;;1544.0
1722.0;1613.7;;;;;;;;;;;;;;;;;64.98917;17.120884;28.435621;;1544.0
1722.0;1613.7;;;;;;;;;;;;;;0.888699;0.4069338;-0.24011964;;;;;1544.0
1722.0;1613.7;;;;;;;;;;;;;;;;;66.69439;18.181402;29.946287;;1553.6
1722.0;1613.7;;;;;;;;;;;;;;0.88412124;0.42085025;-0.237434;;;;;1553.6
1722.0;1613.7;;;;;;;;;;;;;;;;;68.32331;18.559069;31.434067;;1553.6
1722.0;1613.7;;;;;;;;;;;;;;0.87185276;0.42353588;-0.21796319;;;;;1553.6
1722.0;1618.7;;;;-0.117324844;0.7327271;-0.057769783;;;;;;;;;;;;;;;
1722.0;1618.7;;;;-0.11495592;0.7317658;-0.05485154;;;;;;;;;;;;;;;
1722.0;1618.7;;;;-0.112915054;0.7309151;-0.051544197;;;;;;;;;;;;;;;
1722.0;1618.7;;;;-0.11045839;0.73006445;-0.04786683;;;;;;;;;;;;;;;
1722.0;1618.7;;;;-0.107849136;0.72902685;-0.044502262;;;;;;;;;;;;;;;
1722.0;1621.3;262143;262143;14547;;;;;;;;;;;;;;;;;;
1722.0;1628.7;;;;-0.10644914;0.727768;-0.041606907;;;;;;;;;;;;;;;
1722.0;1628.7;;;;-0.105777755;0.7264443;-0.037731174;;;;;;;;;;;;;;;
1722.0;1628.7;;;;-0.105216995;0.72526556;-0.03399277;;;;;;;;;;;;;;;
1722.0;1628.7;;;;-0.105266586;0.72417456;-0.03143311;;;;;;;;;;;;;;;
1722.0;1628.7;;;;-0.10481264;0.722992;-0.028743748;;;;;;;;;;;;;;;
1726.0;1638.5;;;;-0.10544588;0.72180945;-0.026863102;;;;;;;;;;;;;;;
1726.0;1638.5;;;;-0.10548784;0.7203751;-0.025966648;;;;;;;;;;;;;;;
1726.0;1638.5;;;;-0.106109634;0.71903616;-0.023746494;;;;;;;;;;;;;;;
1726.0;1638.5;;;;-0.107410446;0.71742254;-0.022651674;;;;;;;;;;;;;;;
1726.0;1638.5;;;;-0.10901643;0.7156945;-0.020729067;;;;;;;;;;;;;;;
1726.0;1641.2;262143;262143;14539;;;;;;;;;;;;;;;;;;
1726.0;1647.4;;;;;;;;;;;;;2645;;;;;;;;
1726.0;1647.4;;;;;;;;;;;;;2883;;;;;;;;
1726.0;1647.4;;;;;;;;;;;;;3009;;;;;;;;
1726.0;1647.4;;;;;;;;;;;;;3077;;;;;;;;
1726.0;1647.4;;;;;;;;;;;;;3066;;;;;;;;
1726.0;1648.7;;;;-0.10897066;0.7129479;-0.017261507;;;;;;;;;;;;;;;
1726.0;1648.7;;;;-0.11066438;0.71046835;-0.015243532;;;;;;;;;;;;;;;
1726.0;1648.7;;;;-0.11316301;0.70857245;-0.013671877;;;;;;;;;;;;;;;
1726.0;1648.7;;;;-0.11580278;0.70647055;-0.011478425;;;;;;;;;;;;;;;
1726.0;1648.7;;;;-0.11750795;0.7044068;-0.008499146;;;;;;;;;;;;;;;
1726.0;1658.8;;;;-0.119453445;0.70227057;-0.0072250376;;;;;;;;;;;;;;;
1726.0;1658.8;;;;-0.12202074;0.6994248;-0.007045747;;;;;;;;;;;;;;;
1726.0;1658.8;;;;-0.12445833;0.6969529;-0.008808137;;;;;;;;;;;;;;;
1726.0;1658.8;;;;-0.12868501;0.6946488;-0.009159089;;;;;;;;;;;;;;;
1726.0;1658.8;;;;-0.1305504;0.6914864;-0.009372712;;;;;;;;;;;;;;;
1726.0;1661.5;262143;262143;14537;;;;;;;;;;;;;;;;;;
1729.0;1668.9;;;;-0.13450624;0.68894964;-0.0103378305;;;;;;;;;;;;;;;
1729.0;1668.9;;;;-0.13476945;0.68635947;-0.009429933;;;;;;;;;;;;;;;
1729.0;1668.9;;;;-0.13651659;0.68417364;-0.009750367;;;;;;;;;;;;;;;
1729.0;1668.9;;;;-0.13863374;0.6815339;-0.009746552;;;;;;;;;;;;;;;
1729.0;1668.9;;;;-0.14183046;0.6781884;-0.010810853;;;;;;;;;;;;;;;
1729.0;1672.9;;;;;;;;;;;;;;;;;68.78109;17.544327;32.658623;;1563.3
1729.0;1672.9;;;;;;;;;;;;;;0.8531144;0.42353588;-0.18524735;;;;;1563.3
1729.0;1672.9;;;;;;;;;;;;;;;;;68.1936;15.228736;33.46736;;1563.3
1729.0;1672.9;;;;;;;;;;;;;;0.83321637;0.4239021;-0.13592944;;;;;1563.3
1729.0;1672.9;;;;;;;;;;;;;;;;;67.30095;12.630848;33.207954;;1573.0
1729.0;1672.9;;;;;;;;;;;;;;0.81228065;0.40974152;-0.09424116;;;;;1573.0
1729.0;1672.9;;;;;;;;;;;;;;;;;66.167946;9.990996;32.116917;;1573.0
1729.0;1672.9;;;;;;;;;;;;;;0.79622793;0.4034547;-0.0684225;;;;;1573.0
1729.0;1672.9;;;;;;;;;;;;;;;;;64.63821;8.411665;30.78173;;1582.7
1729.0;1672.9;;;;;;;;;;;;;;0.78347117;0.40003663;-0.057069615;;;;;1582.7
1729.0;1672.9;;;;;;;;;;;;;;;;;62.726982;8.636738;28.992584;;1582.7
1729.0;1672.9;;;;;;;;;;;;;;0.77584153;0.38660848;-0.05597095;;;;;1582.7
1730.0;1673.5;;;;;;;;;;;;;;;;;60.907314;marras.67;26.345104;;1592.2
1730.0;1673.5;;;;;;;;;;;;;;0.7768792;0.384167;-0.06939909;;;;;1592.2
1730.0;1673.5;;;;;;;;;;;;;;;;;59.69802;16.109959;23.541216;;1592.2
1730.0;1673.5;;;;;;;;;;;;;;0.7674795;0.3886227;-0.1015656;;;;;1592.2
1730.0;1673.5;;;;;;;;;;;;;;;;;58.85113;21.210365;21.156958;;1601.9
1730.0;1673.5;;;;;;;;;;;;;;0.7577746;0.4079104;-0.1441084;;;;;1601.9
1730.0;1673.5;;;;;;;;;;;;;;;;;56.840725;25.704214;19.150366;;1601.9
1730.0;1673.5;;;;;;;;;;;;;;0.75014496;0.4394055;-0.16089359;;;;;1601.9
1730.0;1673.5;;;;;;;;;;;;;;;;;52.648243;29.145178;17.89529;;1611.6
1730.0;1673.5;;;;;;;;;;;;;;0.75160986;0.4697409;-0.16644795;;;;;1611.6
1730.0;1673.5;;;;;;;;;;;;;;;;;47.05191;32.12836;16.930143;;1611.6
1730.0;1673.5;;;;;;;;;;;;;;0.75319684;0.49305704;-0.18768883;;;;;1611.6
1730.0;1678.8;;;;-0.15459825;0.6780358;-0.014766695;;;;;;;;;;;;;;;
1730.0;1678.8;;;;-0.17118074;0.6778298;-0.015880587;;;;;;;;;;;;;;;
1730.0;1678.8;;;;-0.16289522;0.67112356;-0.009593965;;;;;;;;;;;;;;;
1730.0;1678.8;;;;-0.15603258;0.6610375;-0.011791231;;;;;;;;;;;;;;;
1730.0;1678.8;;;;-0.15633394;0.6554757;-0.013645174;;;;;;;;;;;;;;;
1730.0;1681.4;262143;262143;14528;;;;;;;;;;;;;;;;;;
1730.0;1687.6;;;;;;;;;;;;;2838;;;;;;;;
1730.0;1687.6;;;;;;;;;;;;;2335;;;;;;;;
1730.0;1687.6;;;;;;;;;;;;;1760;;;;;;;;
1730.0;1687.6;;;;;;;;;;;;;1200;;;;;;;;
1730.0;1687.6;;;;;;;;;;;;;704;;;;;;;;
1776.0;1688.7;;;;-0.16170885;0.64820486;-0.013828279;;;;;;;;;;;;;;;
1776.0;1688.7;;;;-0.17468645;0.6271172;-0.014701845;;;;;;;;;;;;;;;
1776.0;1688.7;;;;-0.1820183;0.64443976;-0.012790682;;;;;;;;;;;;;;;
1776.0;1688.7;;;;-0.18002702;0.6373063;-0.009902955;;;;;;;;;;;;;;;
1776.0;1688.7;;;;-0.18053438;0.6351815;-0.0064468393;;;;;;;;;;;;;;;
1776.0;1698.6;;;;-0.18605806;0.62873083;-0.0014076234;;;;;;;;;;;;;;;
1776.0;1698.6;;;;-0.18530656;0.6237717;9.4223034E-4;;;;;;;;;;;;;;;
1776.0;1698.6;;;;-0.1901932;0.61824423;0.0031509404;;;;;;;;;;;;;;;
1776.0;1698.6;;;;-0.18911365;0.61132056;0.008239747;;;;;;;;;;;;;;;
1776.0;1698.6;;;;-0.16294481;0.60366064;0.011009217;;;;;;;;;;;;;;;
1776.0;1701.4;262143;262143;14521;;;;;;;;;;;;;;;;;;
1776.0;1708.7;;;;-0.19594577;0.5995179;0.014305117;;;;;;;;;;;;;;;
1776.0;1708.7;;;;-0.20989612;0.5938149;0.02106476;;;;;;;;;;;;;;;
1776.0;1708.7;;;;-0.20763782;0.58928305;0.02442551;;;;;;;;;;;;;;;
1776.0;1708.7;;;;-0.21265414;0.58313376;0.027427677;;;;;;;;;;;;;;;
1776.0;1708.7;;;;-0.22764209;0.578579;0.031764988;;;;;;;;;;;;;;;
1776.0;1718.9;;;;-0.25748447;0.57967764;0.027767185;;;;;;;;;;;;;;;
1776.0;1718.9;;;;-0.274807;0.5691224;0.022060396;;;;;;;;;;;;;;;
1776.0;1718.9;;;;-0.29246905;0.55663687;0.020217897;;;;;;;;;;;;;;;
1776.0;1718.9;;;;-0.29603198;0.5482293;0.028495792;;;;;;;;;;;;;;;
1776.0;1718.9;;;;-0.3106499;0.5411187;0.044425968;;;;;;;;;;;;;;;
1791.0;1721.7;262143;262143;14527;;;;;;;;;;;;;;;;;;
1791.0;1725.3;;;;;;;;;;;;;;;;;40.414135;35.500656;15.968811;;1621.1
1791.0;1725.3;;;;;;;;;;;;;;0.7475204;0.50776696;-0.20734276;;;;;1621.1
1791.0;1725.3;;;;;;;;;;;;;;;;;33.177437;39.052246;14.713737;;1621.1
1791.0;1725.3;;;;;;;;;;;;;;0.73610646;0.5149083;-0.21326335;;;;;1621.1
1791.0;1725.3;;;;;;;;;;;;;;;;;26.360363;43.42021;12.745293;;1630.7
1791.0;1725.3;;;;;;;;;;;;;;0.72524184;0.5271157;-0.19306009;;;;;1630.7
1791.0;1725.3;;;;;;;;;;;;;;;;;21.10355;49.390396;9.849849;;1630.7
1791.0;1725.3;;;;;;;;;;;;;;0.707358;0.53492844;-0.12787256;;;;;1630.7
1791.0;1725.3;;;;;;;;;;;;;;;;;17.769402;56.707207;5.7489243;;1640.3
1791.0;1725.3;;;;;;;;;;;;;;0.67445904;0.54054385;-0.025696585;;;;;1640.3
1791.0;1725.3;;;;;;;;;;;;;;;;;15.156255;63.196205;0.56840724;;1640.3
1791.0;1725.3;;;;;;;;;;;;;;0.64314705;0.56611836;0.06250191;;;;;1640.3
1793.0;1726.5;;;;;;;;;;;;;;;;;13.779107;69.013794;-5.8709984;;1649.9
1793.0;1726.5;;;;;;;;;;;;;;0.60499895;0.58424634;0.1126133;;;;;1649.9
1793.0;1726.5;;;;;;;;;;;;;;;;;13.138219;74.072235;-13.500626;;1649.9
1793.0;1726.5;;;;;;;;;;;;;;0.57667774;0.60463274;0.15369122;;;;;1649.9
1793.0;1726.5;;;;;;;;;;;;;;;;;12.596515;79.47783;-22.190771;;1659.5
1793.0;1726.5;;;;;;;;;;;;;;0.5689871;0.6158635;0.23126927;;;;;1659.5
1793.0;1726.5;;;;;;;;;;;;;;;;;11.997589;86.08509;-31.819363;;1659.5
1793.0;1726.5;;;;;;;;;;;;;;0.56971955;0.6377148;0.33558154;;;;;1659.5
1793.0;1726.5;;;;;;;;;;;;;;;;;10.956145;92.87545;-42.126987;;1669.2
1793.0;1726.5;;;;;;;;;;;;;;0.57960755;0.6178167;0.40736106;;;;;1669.2
1793.0;1726.5;;;;;;;;;;;;;;;;;10.464034;98.83801;-53.548542;;1669.2
1793.0;1726.5;;;;;;;;;;;;;;0.5908384;0.58046204;0.40949735;;;;;1669.2
1793.0;1727.6;;;;;;;;;;;;;558;;;;;;;;
1793.0;1727.6;;;;;;;;;;;;;1027;;;;;;;;
1793.0;1727.6;;;;;;;;;;;;;1719;;;;;;;;
1793.0;1727.6;;;;;;;;;;;;;1984;;;;;;;;
1793.0;1727.6;;;;;;;;;;;;;1857;;;;;;;;
1793.0;1728.7;;;;-0.32366183;0.52639395;0.059349068;;;;;;;;;;;;;;;
1793.0;1728.7;;;;-0.3613167;0.5403519;0.06514741;;;;;;;;;;;;;;;
1793.0;1728.7;;;;-0.36722186;0.52803427;0.06959916;;;;;;;;;;;;;;;
1793.0;1728.7;;;;-0.37823492;0.52299887;0.068752296;;;;;;;;;;;;;;;
1793.0;1728.7;;;;-0.39630133;0.52006537;0.06911469;;;;;;;;;;;;;;;
1837.0;1738.8;;;;-0.40992743;0.5119477;0.06841279;;;;;;;;;;;;;;;
1837.0;1738.8;;;;-0.4237519;0.5063134;0.062004097;;;;;;;;;;;;;;;
1837.0;1738.8;;;;-0.43552023;0.4964524;0.049766548;;;;;;;;;;;;;;;
1837.0;1738.8;;;;-0.44100195;0.48507696;0.05282975;;;;;;;;;;;;;;;
1837.0;1738.8;;;;-0.45457464;0.48242956;0.05768586;;;;;;;;;;;;;;;
1837.0;1739.0;;;;;;;;;;1.1749626;18.379772;-2.3918884;;;;;;;;;
1837.0;1739.0;;;;;;;0.8697775;-0.64119387;-0.00634785;;;;;;;;;;;;
1837.0;1739.0;;;;;;;;;;5.550554;31.773582;8.278146;;;;;;;;;
1837.0;1739.0;;;;;;;0.9861751;-0.7409894;-0.0055543687;;;;;;;;;;;;
1837.0;1741.6;262143;262143;14519;;;;;;;;;;;;;;;;;;
1837.0;1748.5;;;;;;;;;;-0.08774071;6.6682944;-1.1139256;;;;;;;;;
1837.0;1748.5;;;;;;;0.98550373;-0.75899535;2.4414808E-4;;;;;;;;;;;;
1837.0;1748.5;;;;;;;;;;0.3852962;22.8164;5.3636284;;;;;;;;;
1837.0;1748.5;;;;;;;0.98458815;-0.7752312;0.002929777;;;;;;;;;;;;
1837.0;1748.7;;;;-0.4627686;0.48142248;0.06633759;;;;;;;;;;;;;;;
1837.0;1748.7;;;;-0.478859;0.48361975;0.06982041;;;;;;;;;;;;;;;
1837.0;1748.7;;;;-0.49670416;0.48919684;0.06921006;;;;;;;;;;;;;;;
1837.0;1748.7;;;;-0.5142136;0.4989205;0.06684876;;;;;;;;;;;;;;;
1837.0;1748.7;;;;-0.52901846;0.51100546;0.06397248;;;;;;;;;;;;;;;
1837.0;1757.8;;;;;;;;;;-3.89111;29.950102;4.425184;;;;;;;;;
1837.0;1757.8;;;;;;;0.98892176;-0.7840815;0.0052491836;;;;;;;;;;;;
1837.0;1757.8;;;;;;;;;;-13.477737;1.6251106;-18.326365;;;;;;;;;
1837.0;1757.8;;;;;;;0.99325544;-0.7926878;0.0056154057;;;;;;;;;;;;
1840.0;1758.6;;;;-0.54829794;0.5247765;0.06304551;;;;;;;;;;;;;;;
1840.0;1758.6;;;;-0.5711327;0.5439339;0.06069184;;;;;;;;;;;;;;;
1840.0;1758.6;;;;-0.58905035;0.5662728;0.05842591;;;;;;;;;;;;;;;
1840.0;1758.6;;;;-0.6058541;0.5930787;0.060264595;;;;;;;;;;;;;;;
1840.0;1758.6;;;;-0.62398154;0.6235505;0.06355668;;;;;;;;;;;;;;;
1840.0;1761.6;262143;262143;14521;;;;;;;;;;;;;;;;;;
1840.0;1767.4;;;;;;;;;;-18.250069;9.552294;-21.320993;;;;;;;;;
1840.0;1767.4;;;;;;;0.99795526;-0.7920164;0.005798517;;;;;;;;;;;;
1840.0;1767.4;;;;;;;;;;-23.129215;18.154697;-25.131992;;;;;;;;;
1840.0;1767.4;;;;;;;0.99758905;-0.7901853;0.003173925;;;;;;;;;;;;
1840.0;1767.7;;;;;;;;;;;;;1646;;;;;;;;
1840.0;1767.7;;;;;;;;;;;;;1356;;;;;;;;
1840.0;1767.7;;;;;;;;;;;;;1164;;;;;;;;
1840.0;1767.7;;;;;;;;;;;;;1289;;;;;;;;
1840.0;1767.7;;;;;;;;;;;;;1498;;;;;;;;
1840.0;1768.7;;;;-0.6449471;0.65803915;0.06854249;;;;;;;;;;;;;;;
1840.0;1768.7;;;;-0.6686211;0.6954575;0.07691956;;;;;;;;;;;;;;;
1840.0;1768.7;;;;-0.69494635;0.73605734;0.08196259;;;;;;;;;;;;;;;
1840.0;1768.7;;;;-0.7147179;0.7795068;0.08920289;;;;;;;;;;;;;;;
1840.0;1768.7;;;;-0.73888785;0.8227922;0.10290529;;;;;;;;;;;;;;;
1840.0;1777.1;;;;;;;;;;-28.366955;34.169285;-23.369549;;;;;;;;;
1840.0;1777.1;;;;;;;0.981048;-0.7813349;-0.006042665;;;;;;;;;;;;
1840.0;1777.1;;;;;;;;;;-31.319622;47.551655;-19.257181;;;;;;;;;
1840.0;1777.1;;;;;;;0.95077366;-0.7718741;-0.024658956;;;;;;;;;;;;
1842.0;1778.8;;;;-0.76905453;0.8646661;0.10549547;;;;;;;;;;;;;;;
1842.0;1778.8;;;;-0.79021466;0.90955365;0.11867906;;;;;;;;;;;;;;;
1842.0;1778.8;;;;-0.8027803;0.9509889;0.12891008;;;;;;;;;;;;;;;
1842.0;1778.8;;;;-0.7928926;1.0140382;0.13266374;;;;;;;;;;;;;;;
1842.0;1778.8;;;;-0.7800294;1.0357171;0.1338997;;;;;;;;;;;;;;;
1842.0;1781.9;262143;262143;14504;;;;;;;;;;;;;;;;;;
1842.0;1785.4;;;;;;;;;;;;;;;;;7.736442;105.88397;-67.583244;;1678.9
1842.0;1785.4;;;;;;;;;;;;;;0.6270333;0.6454054;0.35474715;;;;;1678.9
1842.0;1785.4;;;;;;;;;;;;;;;;;1.7967772;115.035706;-80.51546;;1678.9
1842.0;1785.4;;;;;;;;;;;;;;0.64247566;0.6029237;0.33509323;;;;;1678.9
1842.0;1785.4;;;;;;;;;;;;;;;;;-4.3450727;121.803185;-95.39705;;1688.4
1842.0;1785.4;;;;;;;;;;;;;;0.692465;0.5959044;0.2971282;;;;;1688.4
1842.0;1785.4;;;;;;;;;;;;;;;;;-11.028626;124.91226;-114.101074;;1688.4
1842.0;1785.4;;;;;;;;;;;;;;0.7707755;0.6758629;0.22907193;;;;;1688.4
1842.0;1785.4;;;;;;;;;;;;;;;;;-16.758478;124.988556;-124.22559;;1698.1
1842.0;1785.4;;;;;;;;;;;;;;0.85714287;0.702353;0.22089297;;;;;1698.1
1842.0;1785.4;;;;;;;;;;;;;;;;;-21.755882;124.988556;-124.988556;;1698.1
1842.0;1785.4;;;;;;;;;;;;;;0.96121097;0.70625937;0.1861629;;;;;1698.1
1843.0;1786.2;;;;;;;;;;;;;;;;;-23.255104;124.988556;-124.988556;;1707.8
1843.0;1786.2;;;;;;;;;;;;;;1.0882901;0.6618244;0.15124974;;;;;1707.8
1843.0;1786.2;;;;;;;;;;;;;;;;;-22.41203;124.988556;-124.988556;;1707.8
1843.0;1786.2;;;;;;;;;;;;;;1.2354503;0.5346843;0.06567583;;;;;1707.8
1843.0;1786.2;;;;;;;;;;;;;;;;;-20.481735;124.988556;-124.988556;;1717.4
1843.0;1786.2;;;;;;;;;;;;;;1.371807;0.3895993;0.011597034;;;;;1717.4
1843.0;1786.2;;;;;;;;;;;;;;;;;-22.389141;124.988556;-124.988556;;1717.4
1843.0;1786.2;;;;;;;;;;;;;;1.4705038;0.24427015;-0.043763544;;;;;1717.4
1843.0;1786.2;;;;;;;;;;;;;;;;;-27.25303;124.988556;-124.988556;;1727.0
1843.0;1786.2;;;;;;;;;;;;;;1.635548;0.13104647;-0.1535081;;;;;1727.0
1843.0;1786.2;;;;;;;;;;;;;;;;;-33.387253;122.63481;-124.988556;;1727.0
1843.0;1786.2;;;;;;;;;;;;;;1.9169286;0.07312235;-0.3197119;;;;;1727.0
1843.0;1786.5;;;;;;;;;;-33.349102;51.37791;-20.760216;;;;;;;;;
1843.0;1786.5;;;;;;;0.9164098;-0.77571946;-0.047059543;;;;;;;;;;;;
1843.0;1786.5;;;;;;;;;;-35.85925;54.68154;-21.176031;;;;;;;;;
1843.0;1786.5;;;;;;;0.8921781;-0.8070925;-0.065431684;;;;;;;;;;;;
1843.0;1788.7;;;;-0.76757824;1.0884897;0.14253618;;;;;;;;;;;;;;;
1843.0;1788.7;;;;-0.7822;1.0853921;0.13634874;;;;;;;;;;;;;;;
1843.0;1788.7;;;;-0.7736894;1.1303178;0.124195114;;;;;;;;;;;;;;;
1843.0;1788.7;;;;-0.72871405;1.1846772;0.13676454;;;;;;;;;;;;;;;
1843.0;1788.7;;;;-0.74483114;1.1531144;0.13471605;;;;;;;;;;;;;;;
1843.0;1796.0;;;;;;;;;;-38.396103;57.40913;-20.363476;;;;;;;;;
1843.0;1796.0;;;;;;;0.8675802;-0.90279853;-0.0656148;;;;;;;;;;;;
1843.0;1796.0;;;;;;;;;;-39.90295;59.003723;-18.154697;;;;;;;;;
1843.0;1796.0;;;;;;;0.8918119;-0.9472335;-0.06207465;;;;;;;;;;;;
1897.0;1798.7;;;;-0.70807654;1.2076837;0.14486696;;;;;;;;;;;;;;;
1897.0;1798.7;;;;-0.7222138;1.1799394;0.12932588;;;;;;;;;;;;;;;
1897.0;1798.7;;;;-0.724968;1.1969796;0.117553726;;;;;;;;;;;;;;;
1897.0;1798.7;;;;-0.72988135;1.1774598;0.11401369;;;;;;;;;;;;;;;
1897.0;1798.7;;;;-0.7101937;1.1924249;0.10747911;;;;;;;;;;;;;;;
1897.0;1801.7;262143;262143;14507;;;;;;;;;;;;;;;;;;
1897.0;1805.5;;;;;;;;;;-40.69643;59.812466;-16.541033;;;;;;;;;
1897.0;1805.5;;;;;;;0.9191565;-1.0317698;-0.048402358;;;;;;;;;;;;
1897.0;1805.5;;;;;;;;;;-40.540024;60.758537;-14.713737;;;;;;;;;
1897.0;1805.5;;;;;;;0.9533372;-1.1227149;-0.03070162;;;;;;;;;;;;
1897.0;1807.8;;;;;;;;;;;;;1444;;;;;;;;
1897.0;1807.8;;;;;;;;;;;;;1153;;;;;;;;
1897.0;1807.8;;;;;;;;;;;;;1046;;;;;;;;
1897.0;1807.8;;;;;;;;;;;;;1304;;;;;;;;
1897.0;1807.8;;;;;;;;;;;;;1532;;;;;;;;
1897.0;1808.7;;;;-0.6828385;1.1758958;0.11273195;;;;;;;;;;;;;;;
1897.0;1808.7;;;;-0.7228318;1.1316644;0.10801698;;;;;;;;;;;;;;;
1897.0;1808.7;;;;-0.7178803;1.1369859;0.10603334;;;;;;;;;;;;;;;
1897.0;1808.7;;;;-0.7254601;1.0942537;0.109252945;;;;;;;;;;;;;;;
1897.0;1808.7;;;;-0.73666006;1.0428392;0.08840943;;;;;;;;;;;;;;;
1897.0;1814.7;;;;;;;;;;-39.059875;62.51335;-13.077182;;;;;;;;;
1897.0;1814.7;;;;;;;0.99325544;-1.2135991;-0.015869625;;;;;;;;;;;;
1897.0;1814.7;;;;;;;;;;-36.69088;65.52324;-11.803034;;;;;;;;;
1897.0;1814.7;;;;;;;1.0267037;-1.2886746;-0.012207404;;;;;;;;;;;;
1899.0;1818.4;;;;-0.7330819;1.0367852;0.06470109;;;;;;;;;;;;;;;
1899.0;1818.4;;;;-0.7622453;1.043728;0.065876015;;;;;;;;;;;;;;;
1899.0;1818.4;;;;-0.788746;0.9796983;0.05902482;;;;;;;;;;;;;;;
1899.0;1818.4;;;;-0.7874223;1.0340348;0.05856324;;;;;;;;;;;;;;;
1899.0;1818.4;;;;-0.78509915;0.9878198;0.044364933;;;;;;;;;;;;;;;
1899.0;1821.6;262143;262143;14504;;;;;;;;;;;;;;;;;;
1899.0;1824.4;;;;;;;;;;-34.115875;70.28413;-10.814997;;;;;;;;;
1899.0;1824.4;;;;;;;1.0462356;-1.3431807;-0.008239998;;;;;;;;;;;;
1899.0;1824.4;;;;;;;;;;-31.548508;75.94913;-10.43733;;;;;;;;;
1899.0;1824.4;;;;;;;1.0466018;-1.3711966;-0.0043336283;;;;;;;;;;;;
1899.0;1828.6;;;;-0.80258954;0.9666902;0.021800997;;;;;;;;;;;;;;;
1899.0;1828.6;;;;-0.80430615;0.99175656;0.00675583;;;;;;;;;;;;;;;
1899.0;1828.6;;;;-0.8109056;1.0162355;-0.0051803594;;;;;;;;;;;;;;;
1899.0;1828.6;;;;-0.81596005;1.0406419;-0.015781404;;;;;;;;;;;;;;;
1899.0;1828.6;;;;-0.8217813;1.066929;-0.025341038;;;;;;;;;;;;;;;
1899.0;1834.0;;;;;;;;;;-28.614918;81.54164;-11.112552;;;;;;;;;
1899.0;1834.0;;;;;;;1.0346996;-1.3680227;0.00286874;;;;;;;;;;;;
1899.0;1834.0;;;;;;;;;;-25.326548;87.34779;-12.8215885;;;;;;;;;
1899.0;1834.0;;;;;;;1.0152287;-1.3368938;0.016052736;;;;;;;;;;;;
1900.0;1838.7;;;;-0.8268701;1.0968171;-0.029674534;;;;;;;;;;;;;;;
1900.0;1838.7;;;;-0.8295251;1.1294442;-0.033660892;;;;;;;;;;;;;;;
1900.0;1838.7;;;;-0.8356019;1.1639444;-0.03683472;;;;;;;;;;;;;;;
1900.0;1838.7;;;;-0.8408967;1.1998445;-0.038349155;;;;;;;;;;;;;;;
1900.0;1838.7;;;;-0.83890164;1.2350312;-0.040542606;;;;;;;;;;;;;;;
1900.0;1841.9;262143;262143;14503;;;;;;;;;;;;;;;;;;
1900.0;1843.7;;;;;;;;;;-21.629993;93.329414;-15.614033;;;;;;;;;
1900.0;1843.7;;;;;;;0.9861751;-1.2765282;0.028321177;;;;;;;;;;;;
1900.0;1843.7;;;;;;;;;;-18.501846;99.59334;-19.066439;;;;;;;;;
1900.0;1843.7;;;;;;;0.9519333;-1.1972411;0.030945769;;;;;;;;;;;;
1900.0;1845.4;;;;;;;;;;;;;;;;;-41.291542;104.30845;-124.988556;;1736.6
1900.0;1845.4;;;;;;;;;;;;;;1.9972533;0.068300426;-0.49446088;;;;;1736.6
1900.0;1845.4;;;;;;;;;;;;;;;;;-47.963654;94.573044;-124.988556;;1736.6
1900.0;1845.4;;;;;;;;;;;;;;1.9972533;0.103518784;-0.50361645;;;;;1736.6
1900.0;1845.4;;;;;;;;;;;;;;;;;-52.91528;105.918304;-124.988556;;1746.3
1900.0;1845.4;;;;;;;;;;;;;;1.846553;0.09808649;-0.4177984;;;;;1746.3
1900.0;1845.4;;;;;;;;;;;;;;;;;-57.599873;121.04404;-124.988556;;1746.3
1900.0;1845.4;;;;;;;;;;;;;;1.44438;0.0933256;-0.25153357;;;;;1746.3
1900.0;1845.4;;;;;;;;;;;;;;;;;-58.568836;114.0553;-124.988556;;1755.9
1900.0;1845.4;;;;;;;;;;;;;;1.292581;0.046998505;-0.33228552;;;;;1755.9
1900.0;1845.4;;;;;;;;;;;;;;;;;-49.035618;104.46486;-124.988556;;1755.9
1900.0;1845.4;;;;;;;;;;;;;;1.19718;-0.05285806;-0.4243904;;;;;1755.9
1901.0;1846.2;;;;;;;;;;;;;;;;;-31.033508;93.6842;-124.988556;;1765.5
1901.0;1846.2;;;;;;;;;;;;;;1.0905484;-0.23401593;-0.36463514;;;;;1765.5
1901.0;1846.2;;;;;;;;;;;;;;;;;-9.395886;71.78335;-124.988556;;1765.5
1901.0;1846.2;;;;;;;;;;;;;;1.1120335;-0.30127874;-0.36744285;;;;;1765.5
1901.0;1846.2;;;;;;;;;;;;;;;;;16.533403;53.830837;-124.988556;;1775.2
1901.0;1846.2;;;;;;;;;;;;;;1.17893;-0.29090244;-0.4420301;;;;;1775.2
1901.0;1846.2;;;;;;;;;;;;;;;;;40.22721;51.37791;-124.988556;;1775.2
1901.0;1846.2;;;;;;;;;;;;;;1.3274941;-0.21875668;-0.5233314;;;;;1775.2
1901.0;1846.2;;;;;;;;;;;;;;;;;58.149204;64.424576;-124.988556;;1784.9
1901.0;1846.2;;;;;;;;;;;;;;1.4665364;-0.25458542;-0.56233406;;;;;1784.9
1901.0;1846.2;;;;;;;;;;;;;;;;;77.45598;81.36234;-124.988556;;1784.9
1901.0;1846.2;;;;;;;;;;;;;;1.4771569;-0.42793053;-0.5888241;;;;;1784.9
1901.0;1847.7;;;;;;;;;;;;;1340;;;;;;;;
1901.0;1847.7;;;;;;;;;;;;;1033;;;;;;;;
1901.0;1847.7;;;;;;;;;;;;;1263;;;;;;;;
1901.0;1847.7;;;;;;;;;;;;;1931;;;;;;;;
1901.0;1847.7;;;;;;;;;;;;;2188;;;;;;;;
1901.0;1848.6;;;;-0.85060894;1.2725106;-0.037723545;;;;;;;;;;;;;;;
1901.0;1848.6;;;;-0.8656312;1.3074609;-0.031211857;;;;;;;;;;;;;;;
1901.0;1848.6;;;;-0.87760174;1.3393174;-0.025108341;;;;;;;;;;;;;;;
1901.0;1848.6;;;;-0.88246167;1.3657571;-0.018344881;;;;;;;;;;;;;;;
1901.0;1848.6;;;;-0.8908044;1.388115;-0.010761262;;;;;;;;;;;;;;;
1901.0;1853.0;;;;;;;;;;-16.743217;106.3036;-22.221289;;;;;;;;;
1901.0;1853.0;;;;;;;0.9164708;-1.1116062;0.028992584;;;;;;;;;;;;
1901.0;1853.0;;;;;;;;;;-16.453293;113.513596;-25.086214;;;;;;;;;
1901.0;1853.0;;;;;;;0.88576925;-1.0392773;0.021729179;;;;;;;;;;;;
1957.0;1858.7;;;;-0.8985864;1.4019357;-0.0015830996;;;;;;;;;;;;;;;
1957.0;1858.7;;;;-0.90491116;1.4084855;0.0072631845;;;;;;;;;;;;;;;
1957.0;1858.7;;;;-0.9072076;1.4055978;0.01628876;;;;;;;;;;;;;;;
1957.0;1858.7;;;;-0.9090692;1.3949395;0.024536137;;;;;;;;;;;;;;;
1957.0;1858.7;;;;-0.90947735;1.3763505;0.032283787;;;;;;;;;;;;;;;
1957.0;1861.8;262143;262143;14506;;;;;;;;;;;;;;;;;;
1957.0;1862.6;;;;;;;;;;-17.151402;120.75793;-27.64214;;;;;;;;;
1957.0;1862.6;;;;;;;0.8460341;-0.99069184;0.00634785;;;;;;;;;;;;
1957.0;1862.6;;;;;;;;;;-18.486588;124.55748;-29.63729;;;;;;;;;
1957.0;1862.6;;;;;;;0.8065432;-0.9676809;-0.010071108;;;;;;;;;;;;
1957.0;1868.7;;;;-0.8961984;1.4231492;0.054622658;;;;;;;;;;;;;;;
1957.0;1868.7;;;;-0.88305676;1.4016153;0.06545258;;;;;;;;;;;;;;;
1957.0;1868.7;;;;-0.90711987;1.2371789;0.047084816;;;;;;;;;;;;;;;
1957.0;1868.7;;;;-0.8829919;1.2477609;0.053798683;;;;;;;;;;;;;;;
1957.0;1868.7;;;;-0.8904458;1.2013398;0.055725105;;;;;;;;;;;;;;;
1957.0;1872.0;;;;;;;;;;-20.340586;124.881744;-31.086916;;;;;;;;;
1957.0;1872.0;;;;;;;0.769982;-0.9685354;-0.01904355;;;;;;;;;;;;
1957.0;1872.0;;;;;;;;;;-21.599476;124.881744;-31.956696;;;;;;;;;
1957.0;1872.0;;;;;;;0.7414167;-0.9818415;-0.025879696;;;;;;;;;;;;
1958.0;1878.5;;;;-0.89626706;1.1735803;0.06410981;;;;;;;;;;;;;;;
1958.0;1878.5;;;;-0.9075891;1.1487504;0.074680336;;;;;;;;;;;;;;;
1958.0;1878.5;;;;-0.9199525;1.125866;0.08806611;;;;;;;;;;;;;;;
1958.0;1878.5;;;;-0.92391217;1.110634;0.10281755;;;;;;;;;;;;;;;
1958.0;1878.5;;;;-0.9267808;1.0984842;0.11262895;;;;;;;;;;;;;;;
1958.0;1881.5;;;;;;;;;;-22.061068;124.881744;-33.272808;;;;;;;;;
1958.0;1881.5;;;;;;;0.72359383;-1.0165715;-0.033936583;;;;;;;;;;;;
1958.0;1881.5;;;;;;;;;;-22.667622;124.881744;-35.52736;;;;;;;;;
1958.0;1881.5;;;;;;;0.6978362;-1.0600299;-0.03546251;;;;;;;;;;;;
1958.0;1881.8;262143;262143;14509;;;;;;;;;;;;;;;;;;
1958.0;1887.9;;;;;;;;;;;;;1496;;;;;;;;
1958.0;1887.9;;;;;;;;;;;;;112;;;;;;;;
1958.0;1887.9;;;;;;;;;;;;;-1073;;;;;;;;
1958.0;1887.9;;;;;;;;;;;;;-1532;;;;;;;;
1958.0;1887.9;;;;;;;;;;;;;-1715;;;;;;;;
1958.0;1888.6;;;;-0.93291104;1.0905763;0.12161638;;;;;;;;;;;;;;;
1958.0;1888.6;;;;-0.9404565;1.0855294;0.13007738;;;;;;;;;;;;;;;
1958.0;1888.6;;;;-0.9478227;1.0835687;0.13879015;;;;;;;;;;;;;;;
1958.0;1888.6;;;;-0.9568521;1.0840417;0.14823152;;;;;;;;;;;;;;;
1958.0;1888.6;;;;-0.96532834;1.0853692;0.15729524;;;;;;;;;;;;;;;
1958.0;1891.2;;;;;;;;;;-22.785881;124.881744;-38.258766;;;;;;;;;
1958.0;1891.2;;;;;;;0.6712241;-1.1059297;-0.03790399;;;;;;;;;;;;
1958.0;1891.2;;;;;;;;;;-22.789696;124.881744;-40.467545;;;;;;;;;
1958.0;1891.2;;;;;;;0.67506945;-1.1561022;-0.054383986;;;;;;;;;;;;
1961.0;1898.7;;;;-0.97669613;1.0878679;0.16728975;;;;;;;;;;;;;;;
1961.0;1898.7;;;;-0.9890748;1.0906717;0.17633058;;;;;;;;;;;;;;;
1961.0;1898.7;;;;-1.000908;1.0939866;0.18468095;;;;;;;;;;;;;;;
1961.0;1898.7;;;;-1.0113412;1.0968019;0.19235614;;;;;;;;;;;;;;;
1961.0;1898.7;;;;-1.0179254;1.0992242;0.20119098;;;;;;;;;;;;;;;
1961.0;1900.8;;;;;;;;;;-23.419142;124.881744;-42.126987;;;;;;;;;
1961.0;1900.8;;;;;;;0.6648152;-1.205237;-0.05426191;;;;;;;;;;;;
1961.0;1900.8;;;;;;;;;;-22.160252;124.881744;-41.516617;;;;;;;;;
1961.0;1900.8;;;;;;;0.6457717;-1.2311167;-0.04077273;;;;;;;;;;;;
1961.0;1902.1;262143;262143;14506;;;;;;;;;;;;;;;;;;
1961.0;1908.8;;;;-1.0241929;1.1000215;0.20924762;;;;;;;;;;;;;;;
1961.0;1908.8;;;;-1.0303193;1.099991;0.21752933;;;;;;;;;;;;;;;
1961.0;1908.8;;;;-1.0331994;1.0954438;0.22467044;;;;;;;;;;;;;;;
1961.0;1908.8;;;;-1.0378381;1.0985032;0.23088458;;;;;;;;;;;;;;;
1961.0;1908.8;;;;-1.0393068;1.0892602;0.23649982;;;;;;;;;;;;;;;
1961.0;1910.4;;;;;;;;;;-17.471846;124.881744;-39.983063;;;;;;;;;
1961.0;1910.4;;;;;;;0.6231269;-1.2684714;-0.057313763;;;;;;;;;;;;
1961.0;1910.4;;;;;;;;;;-13.9965515;124.881744;-38.792843;;;;;;;;;
1961.0;1910.4;;;;;;;0.62355417;-1.3083895;-0.075014494;;;;;;;;;;;;
1962.0;1913.7;;;;;;;;;;;;;;;;;101.87078;87.18757;-124.988556;;1794.6
1962.0;1913.7;;;;;;;;;;;;;;1.3260902;-0.50795007;-0.6558428;;;;;1794.6
1962.0;1913.7;;;;;;;;;;;;;;;;;122.43644;78.68053;-124.988556;;1794.6
1962.0;1913.7;;;;;;;;;;;;;;1.0813318;-0.33063754;-0.68910795;;;;;1794.6
1962.0;1913.7;;;;;;;;;;;;;;;;;124.988556;60.56398;-124.988556;;1804.3
1962.0;1913.7;;;;;;;;;;;;;;0.8565325;0.06286813;-0.6638386;;;;;1804.3
1962.0;1913.7;;;;;;;;;;;;;;;;;124.988556;43.996246;-124.988556;;1804.3
1962.0;1913.7;;;;;;;;;;;;;;0.73641163;0.4359874;-0.5545213;;;;;1804.3
1962.0;1913.7;;;;;;;;;;;;;;;;;124.988556;29.877623;-124.988556;;1814.0
1962.0;1913.7;;;;;;;;;;;;;;0.84066284;0.65034944;-0.4519181;;;;;1814.0
1962.0;1913.7;;;;;;;;;;;;;;;;;124.988556;30.594805;-124.988556;;1814.0
1962.0;1913.7;;;;;;;;;;;;;;1.0077822;0.7610096;-0.3859981;;;;;1814.0
1962.0;1914.5;;;;;;;;;;;;;;;;;124.988556;43.977173;-124.988556;;1823.5
1962.0;1914.5;;;;;;;;;;;;;;1.0851772;0.8033082;-0.31550035;;;;;1823.5
1962.0;1914.5;;;;;;;;;;;;;;;;;124.91226;55.043945;-124.988556;;1823.5
1962.0;1914.5;;;;;;;;;;;;;;1.0467849;0.7676626;-0.2118595;;;;;1823.5
1962.0;1914.5;;;;;;;;;;;;;;;;;120.53285;51.301613;-124.988556;;1833.2
1962.0;1914.5;;;;;;;;;;;;;;0.97140414;0.64772487;-0.10089419;;;;;1833.2
1962.0;1914.5;;;;;;;;;;;;;;;;;109.82848;30.140842;-124.988556;;1833.2
1962.0;1914.5;;;;;;;;;;;;;;0.91238135;0.53279215;0.01721244;;;;;1833.2
1962.0;1914.5;;;;;;;;;;;;;;;;;94.38994;-1.0910367;-122.42118;;1842.9
1962.0;1914.5;;;;;;;;;;;;;;0.88650167;0.44819483;0.12701803;;;;;1842.9
1962.0;1914.5;;;;;;;;;;;;;;;;;78.53938;-28.98114;-110.747856;;1842.9
1962.0;1914.5;;;;;;;;;;;;;;0.89870906;0.44306773;0.120975375;;;;;1842.9
2017.0;1918.8;;;;-1.0404512;1.0827714;0.24208835;;;;;;;;;;;;;;;
2017.0;1918.8;;;;-1.0389634;1.072281;0.24568942;;;;;;;;;;;;;;;
2017.0;1918.8;;;;-1.0373536;1.0612222;0.24853137;;;;;;;;;;;;;;;
2017.0;1918.8;;;;-1.0378572;1.0485955;0.24995044;;;;;;;;;;;;;;;
2017.0;1918.8;;;;-1.036606;1.034382;0.25034335;;;;;;;;;;;;;;;
2017.0;1919.9;;;;;;;;;;-12.306589;124.881744;-38.55251;;;;;;;;;
2017.0;1919.9;;;;;;;0.61836606;-1.3274331;-0.079348125;;;;;;;;;;;;
2017.0;1919.9;;;;;;;;;;-10.399182;124.881744;-37.789547;;;;;;;;;
2017.0;1919.9;;;;;;;0.6056093;-1.3341472;-0.084902495;;;;;;;;;;;;
2017.0;1922.1;262143;262143;14503;;;;;;;;;;;;;;;;;;
2017.0;1928.2;;;;;;;;;;;;;-1973;;;;;;;;
2017.0;1928.2;;;;;;;;;;;;;-1977;;;;;;;;
2017.0;1928.2;;;;;;;;;;;;;-1313;;;;;;;;
2017.0;1928.2;;;;;;;;;;;;;-258;;;;;;;;
2017.0;1928.2;;;;;;;;;;;;;172;;;;;;;;
2017.0;1928.8;;;;-1.0161439;1.0136071;0.25306705;;;;;;;;;;;;;;;
2017.0;1928.8;;;;-0.98342526;0.9948312;0.24584201;;;;;;;;;;;;;;;
2017.0;1928.8;;;;-1.0206796;0.9793855;0.25522998;;;;;;;;;;;;;;;
2017.0;1928.8;;;;-1.0329019;0.95902646;0.25951388;;;;;;;;;;;;;;;
2017.0;1928.8;;;;-1.012108;0.93872845;0.26612094;;;;;;;;;;;;;;;
2017.0;1929.4;;;;;;;;;;-8.068331;124.881744;-36.317028;;;;;;;;;
2017.0;1929.4;;;;;;;0.5916318;-1.3328043;-0.08697775;;;;;;;;;;;;
2017.0;1929.4;;;;;;;;;;-6.0274057;124.881744;-34.478283;;;;;;;;;
2017.0;1929.4;;;;;;;0.57911927;-1.3169957;-0.0860622;;;;;;;;;;;;
2019.0;1938.7;;;;-1.0034066;0.9164125;0.2735062;;;;;;;;;;;;;;;
2019.0;1938.7;;;;-1.0051461;0.89787304;0.28057864;;;;;;;;;;;;;;;
2019.0;1938.7;;;;-1.0057603;0.8893167;0.2864571;;;;;;;;;;;;;;;
2019.0;1938.7;;;;-1.0007783;0.8843194;0.2904816;;;;;;;;;;;;;;;
2019.0;1938.7;;;;-0.99300396;0.8700181;0.2931824;;;;;;;;;;;;;;;
2019.0;1938.9;;;;;;;;;;-3.9864802;124.881744;-33.516956;;;;;;;;;
2019.0;1938.9;;;;;;;0.56575215;-1.3006989;-0.0867336;;;;;;;;;;;;
2019.0;1938.9;;;;;;;;;;-2.170629;124.881744;-33.429214;;;;;;;;;
2019.0;1938.9;;;;;;;0.5521409;-1.2768945;-0.08270516;;;;;;;;;;;;
2019.0;1942.2;262143;262143;14494;;;;;;;;;;;;;;;;;;
2019.0;1948.5;;;;;;;;;;-0.48448133;124.881744;-33.833584;;;;;;;;;
2019.0;1948.5;;;;;;;0.5321207;-1.2551652;-0.08105716;;;;;;;;;;;;
2019.0;1948.5;;;;;;;;;;0.6485183;124.881744;-33.429214;;;;;;;;;
2019.0;1948.5;;;;;;;0.5233314;-1.2307504;-0.0778222;;;;;;;;;;;;
2019.0;1948.9;;;;-0.98880017;0.84944165;0.29318622;;;;;;;;;;;;;;;
2019.0;1948.9;;;;-0.9846574;0.8251687;0.2912064;;;;;;;;;;;;;;;
2019.0;1948.9;;;;-0.9848329;0.80059445;0.28732303;;;;;;;;;;;;;;;
2019.0;1948.9;;;;-0.98534787;0.7762109;0.28405383;;;;;;;;;;;;;;;
2019.0;1948.9;;;;-0.98481;0.75364316;0.28258517;;;;;;;;;;;;;;;
2019.0;1958.2;;;;;;;;;;1.5793328;124.881744;-32.776882;;;;;;;;;
2019.0;1958.2;;;;;;;0.50788903;-1.205115;-0.07373272;;;;;;;;;;;;
2019.0;1958.2;;;;;;;;;;2.521592;124.881744;-32.841732;;;;;;;;;
2019.0;1958.2;;;;;;;0.48792994;-1.1808832;-0.07000946;;;;;;;;;;;;
2023.0;1959.0;;;;-0.9863435;0.7331429;0.28184512;;;;;;;;;;;;;;;
2023.0;1959.0;;;;-0.99128735;0.71620566;0.28244784;;;;;;;;;;;;;;;
2023.0;1959.0;;;;-0.99570477;0.7026635;0.2813721;;;;;;;;;;;;;;;
2023.0;1959.0;;;;-0.99748623;0.69144446;0.28024295;;;;;;;;;;;;;;;
2023.0;1959.0;;;;-0.99800503;0.6814156;0.27790073;;;;;;;;;;;;;;;
2023.0;1962.5;262143;262143;14491;;;;;;;;;;;;;;;;;;
2023.0;1966.1;;;;;;;;;;;;;;;;;65.47746;-40.597248;-95.52675;;1852.5
2023.0;1966.1;;;;;;;;;;;;;;0.9277627;0.45100254;0.02929777;;;;;1852.5
2023.0;1966.1;;;;;;;;;;;;;;;;;54.6968;-35.378582;-80.01572;;1852.5
2023.0;1966.1;;;;;;;;;;;;;;0.90786463;0.48548844;-0.053102206;;;;;1852.5
2023.0;1966.1;;;;;;;;;;;;;;;;;44.17936;-21.240883;-64.44365;;1862.1
2023.0;1966.1;;;;;;;;;;;;;;0.821131;0.5166784;-0.06573687;;;;;1862.1
2023.0;1966.1;;;;;;;;;;;;;;;;;33.61614;-7.763146;-50.294502;;1862.1
2023.0;1966.1;;;;;;;;;;;;;;0.69356364;0.5519578;-0.026673177;;;;;1862.1
2023.0;1966.1;;;;;;;;;;;;;;;;;24.243141;0.18692587;-37.709435;;1871.7
2023.0;1966.1;;;;;;;;;;;;;;0.6012757;0.55207986;0.060121465;;;;;1871.7
2023.0;1966.1;;;;;;;;;;;;;;;;;15.869625;2.2392957;-25.05188;;1871.7
2023.0;1966.1;;;;;;;;;;;;;;0.5335856;0.5186316;0.16296884;;;;;1871.7
2025.0;1966.9;;;;;;;;;;;;;;;;;3.765221;2.2583697;-12.153996;;1881.4
2025.0;1966.9;;;;;;;;;;;;;;0.4954985;0.47376934;0.22705771;;;;;1881.4
2025.0;1966.9;;;;;;;;;;;;;;;;;-12.520218;4.341258;1.003296;;1881.4
2025.0;1966.9;;;;;;;;;;;;;;0.44727927;0.42017883;0.27820674;;;;;1881.4
2025.0;1966.9;;;;;;;;;;;;;;;;;-29.477066;7.351146;14.114811;;1891.1
2025.0;1966.9;;;;;;;;;;;;;;0.42738122;0.3842891;0.33375043;;;;;1891.1
2025.0;1966.9;;;;;;;;;;;;;;;;;-44.49217;9.575183;27.775658;;1891.1
2025.0;1966.9;;;;;;;;;;;;;;0.41053498;0.36213264;0.3838618;;;;;1891.1
2025.0;1966.9;;;;;;;;;;;;;;;;;-54.208504;10.467849;41.72262;;1900.7
2025.0;1966.9;;;;;;;;;;;;;;0.39185765;0.36268196;0.42316964;;;;;1900.7
2025.0;1966.9;;;;;;;;;;;;;;;;;-56.440166;10.227515;54.151283;;1900.7
2025.0;1966.9;;;;;;;;;;;;;;0.31189916;0.3634144;0.48762473;;;;;1900.7
2025.0;1967.7;;;;;;;;;;3.6545916;124.881744;-32.34199;;;;;;;;;
2025.0;1967.7;;;;;;;0.47193822;-1.1610461;-0.06567583;;;;;;;;;;;;
2025.0;1967.7;;;;;;;;;;4.795221;124.881744;-31.704918;;;;;;;;;
2025.0;1967.7;;;;;;;0.44923246;-1.1450545;-0.059144873;;;;;;;;;;;;
2025.0;1968.4;;;;;;;;;;;;;-513;;;;;;;;
2025.0;1968.4;;;;;;;;;;;;;-1884;;;;;;;;
2025.0;1968.4;;;;;;;;;;;;;-2621;;;;;;;;
2025.0;1968.4;;;;;;;;;;;;;-969;;;;;;;;
2025.0;1968.4;;;;;;;;;;;;;1088;;;;;;;;
2025.0;1969.0;;;;-1.0057374;0.67465216;0.27425388;;;;;;;;;;;;;;;
2025.0;1969.0;;;;-1.0107995;0.66891867;0.2684441;;;;;;;;;;;;;;;
2025.0;1969.0;;;;-1.0125161;0.66252524;0.26324084;;;;;;;;;;;;;;;
2025.0;1969.0;;;;-1.0176584;0.6579514;0.25841907;;;;;;;;;;;;;;;
2025.0;1969.0;;;;-1.0185701;0.6523705;0.25405887;;;;;;;;;;;;;;;
2078.0;1977.3;;;;;;;;;;5.882443;124.881744;-30.90762;;;;;;;;;
2078.0;1977.3;;;;;;;0.4217658;-1.1269876;-0.04937895;;;;;;;;;;;;
2078.0;1977.3;;;;;;;;;;6.8933682;124.881744;-30.48036;;;;;;;;;
2078.0;1977.3;;;;;;;0.40192878;-1.1081271;-0.036439102;;;;;;;;;;;;
2078.0;1979.1;;;;-1.0277978;0.6494828;0.24934772;;;;;;;;;;;;;;;
2078.0;1979.1;;;;-1.03014;0.6458588;0.24530795;;;;;;;;;;;;;;;
2078.0;1979.1;;;;-1.0280153;0.6421929;0.24236682;;;;;;;;;;;;;;;
2078.0;1979.1;;;;-1.025776;0.63957983;0.23963168;;;;;;;;;;;;;;;
2078.0;1979.1;;;;-1.0245515;0.6372681;0.23764041;;;;;;;;;;;;;;;
2078.0;1982.5;262143;262143;14488;;;;;;;;;;;;;;;;;;
2078.0;1986.8;;;;;;;;;;7.9577017;124.881744;-30.808435;;;;;;;;;
2078.0;1986.8;;;;;;;0.37110507;-1.0954924;-0.024231697;;;;;;;;;;;;
2078.0;1986.8;;;;;;;;;;9.304331;124.881744;-31.30436;;;;;;;;;
2078.0;1986.8;;;;;;;0.34070864;-1.0807215;-0.011658071;;;;;;;;;;;;
2078.0;1989.0;;;;-1.0340158;0.6398888;0.23611835;;;;;;;;;;;;;;;
2078.0;1989.0;;;;-1.0398484;0.6441346;0.23576358;;;;;;;;;;;;;;;
2078.0;1989.0;;;;-1.0434037;0.64996344;0.2364159;;;;;;;;;;;;;;;
2078.0;1989.0;;;;-1.040104;0.65502936;0.23853305;;;;;;;;;;;;;;;
2078.0;1989.0;;;;-1.0441667;0.6618996;0.24024203;;;;;;;;;;;;;;;
2078.0;1996.2;;;;;;;;;;10.906552;124.881744;-32.113102;;;;;;;;;
2078.0;1996.2;;;;;;;0.31043428;-1.0677205;-0.0013428144;;;;;;;;;;;;
2078.0;1996.2;;;;;;;;;;12.318034;124.881744;-33.471176;;;;;;;;;
2078.0;1996.2;;;;;;;0.2842494;-1.0501419;0.0056154057;;;;;;;;;;;;
2080.0;1999.0;;;;-1.0420114;0.6683007;0.24118045;;;;;;;;;;;;;;;
2080.0;1999.0;;;;-1.037018;0.67527014;0.2448006;;;;;;;;;;;;;;;
2080.0;1999.0;;;;-1.0316468;0.68212515;0.2525597;;;;;;;;;;;;;;;
2080.0;1999.0;;;;-1.0260698;0.68916327;0.263176;;;;;;;;;;;;;;;
2080.0;1999.0;;;;-1.019127;0.69694906;0.27674487;;;;;;;;;;;;;;;
2080.0;2002.6;262143;262143;14502;;;;;;;;;;;;;;;;;;
2080.0;2005.9;;;;;;;;;;13.706625;124.881744;-33.92132;;;;;;;;;
2080.0;2005.9;;;;;;;0.20874661;-1.0259713;0.010254219;;;;;;;;;;;;
2080.0;2005.9;;;;;;;;;;14.767144;124.881744;-31.888027;;;;;;;;;
2080.0;2005.9;;;;;;;0.22681357;-1.017365;0.016968291;;;;;;;;;;;;
2080.0;2008.6;;;;;;;;;;;;;-1662;;;;;;;;
2080.0;2008.6;;;;;;;;;;;;;-9100;;;;;;;;
2080.0;2008.6;;;;;;;;;;;;;-13528;;;;;;;;
2080.0;2008.6;;;;;;;;;;;;;-9479;;;;;;;;
2080.0;2008.6;;;;;;;;;;;;;-1397;;;;;;;;
2080.0;2009.1;;;;-1.0112993;0.7046738;0.2928696;;;;;;;;;;;;;;;
2080.0;2009.1;;;;-0.9997064;0.71285254;0.30882266;;;;;;;;;;;;;;;
2080.0;2009.1;;;;-0.9881288;0.72100073;0.32590488;;;;;;;;;;;;;;;
2080.0;2009.1;;;;-0.97454846;0.72796637;0.34199145;;;;;;;;;;;;;;;
2080.0;2009.1;;;;-0.9611627;0.7338372;0.3568726;;;;;;;;;;;;;;;
2080.0;2015.5;;;;;;;;;;16.048922;124.881744;-32.79977;;;;;;;;;
2080.0;2015.5;;;;;;;0.18774988;-0.99325544;0.02294992;;;;;;;;;;;;
2080.0;2015.5;;;;;;;;;;17.30781;124.881744;-33.932766;;;;;;;;;
2080.0;2015.5;;;;;;;0.16687521;-0.9747612;0.025757622;;;;;;;;;;;;
2082.0;2019.2;;;;-0.9457017;0.7374268;0.37100986;;;;;;;;;;;;;;;
2082.0;2019.2;;;;-0.92907345;0.7383309;0.3832665;;;;;;;;;;;;;;;
2082.0;2019.2;;;;-0.91679776;0.73896796;0.39475638;;;;;;;;;;;;;;;
2082.0;2019.2;;;;-0.9059411;0.73943716;0.40424353;;;;;;;;;;;;;;;
2082.0;2019.2;;;;-0.89408886;0.7382584;0.4134789;;;;;;;;;;;;;;;
2082.0;2022.9;262143;262143;14503;;;;;;;;;;;;;;;;;;
2082.0;2025.1;;;;;;;;;;18.089846;124.87792;-35.04669;;;;;;;;;
2082.0;2025.1;;;;;;;0.14075136;-0.954619;0.032654807;;;;;;;;;;;;
2082.0;2025.1;;;;;;;;;;18.814661;123.0163;-35.771507;;;;;;;;;
2082.0;2025.1;;;;;;;0.1241493;-0.92983794;0.037965026;;;;;;;;;;;;
2082.0;2026.7;;;;;;;;;;;;;;;;;-54.563282;5.394147;62.52861;;1910.4
2082.0;2026.7;;;;;;;;;;;;;;0.26026186;0.39674062;0.5378582;;;;;1910.4
2082.0;2026.7;;;;;;;;;;;;;;;;;-53.23954;-3.6774805;72.264015;;1910.4
2082.0;2026.7;;;;;;;;;;;;;;0.2414014;0.40705588;0.5415204;;;;;1910.4
2082.0;2026.7;;;;;;;;;;;;;;;;;-51.866207;-10.65096;79.973755;;1920.0
2082.0;2026.7;;;;;;;;;;;;;;0.21216469;0.4262215;0.5442671;;;;;1920.0
2082.0;2026.7;;;;;;;;;;;;;;;;;-49.974056;-16.434217;87.675865;;1920.0
2082.0;2026.7;;;;;;;;;;;;;;0.2106998;0.42445144;0.5126499;;;;;1920.0
2082.0;2026.7;;;;;;;;;;;;;;;;;-46.807762;-18.97107;95.56108;;1929.7
2082.0;2026.7;;;;;;;;;;;;;;0.20929594;0.3831904;0.43006682;;;;;1929.7
2082.0;2026.7;;;;;;;;;;;;;;;;;-38.716545;-16.72033;102.60704;;1929.7
2082.0;2026.7;;;;;;;;;;;;;;0.20075075;0.31043428;0.31965086;;;;;1929.7
2083.0;2027.6;;;;;;;;;;;;;;;;;-24.742882;-12.035737;108.455154;;1939.4
2083.0;2027.6;;;;;;;;;;;;;;0.18329416;0.22620319;0.18408765;;;;;1939.4
2083.0;2027.6;;;;;;;;;;;;;;;;;-5.5810723;-6.611072;113.963745;;1939.4
2083.0;2027.6;;;;;;;;;;;;;;0.14374217;0.12329478;0.054811243;;;;;1939.4
2083.0;2027.6;;;;;;;;;;;;;;;;;17.113253;-2.7771842;119.06797;;1949.1
2083.0;2027.6;;;;;;;;;;;;;;0.109195225;0.0076296274;-0.055848874;;;;;1949.1
2083.0;2027.6;;;;;;;;;;;;;;;;;41.718803;-0.3852962;123.24137;;1949.1
2083.0;2027.6;;;;;;;;;;;;;;0.07446516;-0.11883908;-0.1528367;;;;;1949.1
2083.0;2027.6;;;;;;;;;;;;;;;;;65.85895;1.8005921;124.847404;;1958.7
2083.0;2027.6;;;;;;;;;;;;;;0.04608295;-0.20886868;-0.19714957;;;;;1958.7
2083.0;2027.6;;;;;;;;;;;;;;;;;87.248604;1.9264809;124.988556;;1958.7
2083.0;2027.6;;;;;;;;;;;;;;0.03747673;-0.26746422;-0.23310037;;;;;1958.7
2083.0;2029.1;;;;-0.88009274;0.7337037;0.421856;;;;;;;;;;;;;;;
2083.0;2029.1;;;;-0.8693582;0.72848135;0.43080908;;;;;;;;;;;;;;;
2083.0;2029.1;;;;-0.8556558;0.7221032;0.4398957;;;;;;;;;;;;;;;
2083.0;2029.1;;;;-0.8383218;0.7141419;0.44975287;;;;;;;;;;;;;;;
2083.0;2029.1;;;;-0.82213604;0.7039948;0.46105963;;;;;;;;;;;;;;;
2083.0;2034.5;;;;;;;;;;19.775993;114.692375;-36.81677;;;;;;;;;
2083.0;2034.5;;;;;;;0.11413923;-0.9045686;0.04034547;;;;;;;;;;;;
2083.0;2034.5;;;;;;;;;;20.859402;105.02945;-38.47621;;;;;;;;;
2083.0;2034.5;;;;;;;0.10052797;-0.87777334;0.03869747;;;;;;;;;;;;
2136.0;2039.2;;;;-0.8142396;0.6951104;0.47049338;;;;;;;;;;;;;;;
2136.0;2039.2;;;;-0.78696454;0.6800156;0.47951895;;;;;;;;;;;;;;;
2136.0;2039.2;;;;-0.7410546;0.66296774;0.48504263;;;;;;;;;;;;;;;
2136.0;2039.2;;;;-0.76043713;0.65303427;0.49290472;;;;;;;;;;;;;;;
2136.0;2039.2;;;;-0.7617761;0.641903;0.50459296;;;;;;;;;;;;;;;
2136.0;2042.8;262143;262143;14498;;;;;;;;;;;;;;;;;;
2136.0;2044.0;;;;;;;;;;21.72155;95.500046;-40.101322;;;;;;;;;
2136.0;2044.0;;;;;;;0.09503464;-0.8476211;0.040101323;;;;;;;;;;;;
2136.0;2044.0;;;;;;;;;;22.503586;85.776085;-41.844692;;;;;;;;;
2136.0;2044.0;;;;;;;0.093935974;-0.82033753;0.036317028;;;;;;;;;;;;
2136.0;2048.8;;;;;;;;;;;;;2474;;;;;;;;
2136.0;2048.8;;;;;;;;;;;;;421;;;;;;;;
2136.0;2048.8;;;;;;;;;;;;;-2510;;;;;;;;
2136.0;2048.8;;;;;;;;;;;;;-3014;;;;;;;;
2136.0;2048.8;;;;;;;;;;;;;-3107;;;;;;;;
2136.0;2049.2;;;;-0.747448;0.6274567;0.51391226;;;;;;;;;;;;;;;
2136.0;2049.2;;;;-0.73600394;0.6149903;0.5209237;;;;;;;;;;;;;;;
2136.0;2049.2;;;;-0.7243348;0.6018525;0.5283509;;;;;;;;;;;;;;;
2136.0;2049.2;;;;-0.7116814;0.5893784;0.5365487;;;;;;;;;;;;;;;
2136.0;2049.2;;;;-0.6900292;0.57892615;0.53851706;;;;;;;;;;;;;;;
2136.0;2053.5;;;;;;;;;;22.961363;76.16276;-43.93521;;;;;;;;;
2136.0;2053.5;;;;;;;0.08764916;-0.79299295;0.03485214;;;;;;;;;;;;
2136.0;2053.5;;;;;;;;;;23.194067;67.91131;-45.422985;;;;;;;;;
2136.0;2053.5;;;;;;;0.08404797;-0.7636952;0.031434067;;;;;;;;;;;;
2137.0;2059.0;;;;-0.6792641;0.5660172;0.5410462;;;;;;;;;;;;;;;
2137.0;2059.0;;;;-0.6597176;0.55084234;0.54520804;;;;;;;;;;;;;;;
2137.0;2059.0;;;;-0.64867026;0.53524786;0.5471001;;;;;;;;;;;;;;;
2137.0;2059.0;;;;-0.6316834;0.5213509;0.54783255;;;;;;;;;;;;;;;
2137.0;2059.0;;;;-0.6064454;0.50431067;0.5529099;;;;;;;;;;;;;;;
2137.0;2063.0;;;;;;;;;;23.506882;60.544907;-46.36143;;;;;;;;;
2137.0;2063.0;;;;;;;0.07684561;-0.7365337;0.033875547;;;;;;;;;;;;
2137.0;2063.0;;;;;;;;;;23.480179;53.08695;-47.37617;;;;;;;;;
2137.0;2063.0;;;;;;;0.11346782;-0.72328866;0.021607105;;;;;;;;;;;;
2137.0;2062.8;262143;262143;14495;;;;;;;;;;;;;;;;;;
2137.0;2069.1;;;;-0.60317236;0.49158865;0.5505143;;;;;;;;;;;;;;;
2137.0;2069.1;;;;-0.5908547;0.48167425;0.5496674;;;;;;;;;;;;;;;
2137.0;2069.1;;;;-0.57026297;0.4693299;0.54412466;;;;;;;;;;;;;;;
2137.0;2069.1;;;;-0.5532113;0.45811468;0.5401421;;;;;;;;;;;;;;;
2137.0;2069.1;;;;-0.5286942;0.44464117;0.53739935;;;;;;;;;;;;;;;
2137.0;2072.6;;;;;;;;;;22.061068;45.915096;-48.6198;;;;;;;;;
2137.0;2072.6;;;;;;;0.08832057;-0.69191563;0.035950806;;;;;;;;;;;;
2137.0;2072.6;;;;;;;;;;21.94281;40.776543;-48.234505;;;;;;;;;
2137.0;2072.6;;;;;;;0.07849361;-0.6778771;0.042909026;;;;;;;;;;;;
2139.0;2079.3;;;;-0.5064698;0.42755896;0.53049856;;;;;;;;;;;;;;;
2139.0;2079.3;;;;-0.49369055;0.41238028;0.52556616;;;;;;;;;;;;;;;
2139.0;2079.3;;;;-0.48144156;0.39684302;0.5207177;;;;;;;;;;;;;;;
2139.0;2079.3;;;;-0.46279913;0.38348776;0.5122605;;;;;;;;;;;;;;;
2139.0;2079.3;;;;-0.45357138;0.37305072;0.5041161;;;;;;;;;;;;;;;
2139.0;2082.3;;;;;;;;;;21.629993;35.573135;-48.42906;;;;;;;;;
2139.0;2082.3;;;;;;;0.0799585;-0.6686605;0.047975097;;;;;;;;;;;;
2139.0;2082.3;;;;;;;;;;21.034883;30.064547;-49.024174;;;;;;;;;
2139.0;2082.3;;;;;;;0.10614338;-0.66353345;0.046815395;;;;;;;;;;;;
2139.0;2083.1;262143;262143;14492;;;;;;;;;;;;;;;;;;
2139.0;2086.5;;;;;;;;;;;;;;;;;105.51393;0.82399976;124.988556;;1968.3
2139.0;2086.5;;;;;;;;;;;;;;0.068300426;-0.29340494;-0.2783288;;;;;1968.3
2139.0;2086.5;;;;;;;;;;;;;;;;;119.945366;-1.0872219;124.988556;;1968.3
2139.0;2086.5;;;;;;;;;;;;;;0.12329478;-0.30994597;-0.32856226;;;;;1968.3
2139.0;2086.5;;;;;;;;;;;;;;;;;124.90082;-4.8066654;124.988556;;1978.0
2139.0;2086.5;;;;;;;;;;;;;;0.19611195;-0.31354716;-0.37470627;;;;;1978.0
2139.0;2086.5;;;;;;;;;;;;;;;;;124.988556;-12.684256;124.988556;;1978.0
2139.0;2086.5;;;;;;;;;;;;;;0.3027436;-0.30658895;-0.4199347;;;;;1978.0
2139.0;2086.5;;;;;;;;;;;;;;;;;124.988556;-25.673697;124.988556;;1987.6
2139.0;2086.5;;;;;;;;;;;;;;0.43787956;-0.2973113;-0.49360636;;;;;1987.6
2139.0;2086.5;;;;;;;;;;;;;;;;;124.988556;-44.072544;124.988556;;1987.6
2139.0;2086.5;;;;;;;;;;;;;;0.6255684;-0.26575518;-0.54103214;;;;;1987.6
2140.0;2087.4;;;;;;;;;;;;;;;;;124.988556;-68.00668;124.988556;;1997.2
2140.0;2087.4;;;;;;;;;;;;;;0.8564104;-0.1909238;-0.5995056;;;;;1997.2
2140.0;2087.4;;;;;;;;;;;;;;;;;124.988556;-90.30808;124.988556;;1997.2
2140.0;2087.4;;;;;;;;;;;;;;1.1159399;-0.08142339;-0.5924863;;;;;1997.2
2140.0;2087.4;;;;;;;;;;;;;;;;;124.988556;-105.07141;124.988556;;2006.9
2140.0;2087.4;;;;;;;;;;;;;;1.3671682;0.03747673;-0.5312662;;;;;2006.9
2140.0;2087.4;;;;;;;;;;;;;;;;;124.988556;-112.46071;124.988556;;2006.9
2140.0;2087.4;;;;;;;;;;;;;;1.5554674;0.16327402;-0.39558092;;;;;2006.9
2140.0;2087.4;;;;;;;;;;;;;;;;;124.86648;-122.94;124.988556;;2016.6
2140.0;2087.4;;;;;;;;;;;;;;1.7026887;0.2857143;-0.3360088;;;;;2016.6
2140.0;2087.4;;;;;;;;;;;;;;;;;119.47615;-124.988556;124.988556;;2016.6
2140.0;2087.4;;;;;;;;;;;;;;1.8413647;0.4203009;-0.46223333;;;;;2016.6
2140.0;2088.9;;;;;;;;;;;;;-4015;;;;;;;;
2140.0;2088.9;;;;;;;;;;;;;-4007;;;;;;;;
2140.0;2088.9;;;;;;;;;;;;;-2833;;;;;;;;
2140.0;2088.9;;;;;;;;;;;;;-2044;;;;;;;;
2140.0;2088.9;;;;;;;;;;;;;-1978;;;;;;;;
2140.0;2089.2;;;;-0.43964392;0.36493686;0.49942023;;;;;;;;;;;;;;;
2140.0;2089.2;;;;-0.42503744;0.35489276;0.4934464;;;;;;;;;;;;;;;
2140.0;2089.2;;;;-0.41258246;0.3441544;0.48877722;;;;;;;;;;;;;;;
2140.0;2089.2;;;;-0.39957815;0.3382683;0.48200613;;;;;;;;;;;;;;;
2140.0;2089.2;;;;-0.38364035;0.33398822;0.47760016;;;;;;;;;;;;;;;
2140.0;2091.7;;;;;;;;;;20.302439;24.735252;-49.87869;;;;;;;;;
2140.0;2091.7;;;;;;;0.0971099;-0.6618244;0.047791988;;;;;;;;;;;;
2140.0;2091.7;;;;;;;;;;20.302439;21.065401;-48.66558;;;;;;;;;
2140.0;2091.7;;;;;;;0.09973449;-0.6642659;0.04565569;;;;;;;;;;;;
2198.0;2099.2;;;;-0.37527853;0.32866672;0.47432333;;;;;;;;;;;;;;;
2198.0;2099.2;;;;-0.36599353;0.32706073;0.47105032;;;;;;;;;;;;;;;
2198.0;2099.2;;;;-0.3543358;0.32517627;0.47052008;;;;;;;;;;;;;;;
2198.0;2099.2;;;;-0.3415337;0.32693866;0.47029883;;;;;;;;;;;;;;;
2198.0;2099.2;;;;-0.33474734;0.3241997;0.46941382;;;;;;;;;;;;;;;
2198.0;2101.1;;;;;;;;;;20.504623;18.070772;-47.09769;;;;;;;;;
2198.0;2101.1;;;;;;;0.10254219;-0.6695761;0.043763544;;;;;;;;;;;;
2198.0;2101.1;;;;;;;;;;20.783106;15.099032;-45.503098;;;;;;;;;
2198.0;2101.1;;;;;;;0.113773;-0.67525256;0.04034547;;;;;;;;;;;;
2198.0;2102.9;262143;262143;14488;;;;;;;;;;;;;;;;;;
2198.0;2109.1;;;;-0.3262215;0.32283786;0.46935278;;;;;;;;;;;;;;;
2198.0;2109.1;;;;-0.32938007;0.32859042;0.4679795;;;;;;;;;;;;;;;
2198.0;2109.1;;;;-0.33070377;0.3351746;0.46858984;;;;;;;;;;;;;;;
2198.0;2109.1;;;;-0.33108142;0.33820346;0.47004706;;;;;;;;;;;;;;;
2198.0;2109.1;;;;-0.32481387;0.3450661;0.4711495;;;;;;;;;;;;;;;
2198.0;2110.6;;;;;;;;;;21.092106;12.394329;-43.67199;;;;;;;;;
2198.0;2110.6;;;;;;;0.122562334;-0.6830653;0.036194954;;;;;;;;;;;;
2198.0;2110.6;;;;;;;;;;21.561327;10.23896;-41.36021;;;;;;;;;
2198.0;2110.6;;;;;;;0.13196203;-0.6969817;0.03442488;;;;;;;;;;;;
2200.0;2118.9;;;;-0.3187981;0.34948733;0.47319037;;;;;;;;;;;;;;;
2200.0;2118.9;;;;-0.32326892;0.3526154;0.47523886;;;;;;;;;;;;;;;
2200.0;2118.9;;;;-0.32882312;0.35995486;0.4739228;;;;;;;;;;;;;;;
2200.0;2118.9;;;;-0.33392337;0.36701587;0.4714585;;;;;;;;;;;;;;;
2200.0;2118.9;;;;-0.34041217;0.37249377;0.4704705;;;;;;;;;;;;;;;
2200.0;2120.0;;;;;;;;;;22.068699;8.70159;-39.06369;;;;;;;;;
2200.0;2120.0;;;;;;;0.14642781;-0.70961636;0.028748436;;;;;;;;;;;;
2200.0;2120.0;;;;;;;;;;22.225103;7.457961;-36.839657;;;;;;;;;
2200.0;2120.0;;;;;;;0.15363018;-0.72164065;0.024231697;;;;;;;;;;;;
2200.0;2122.8;262143;262143;14485;;;;;;;;;;;;;;;;;;
2200.0;2128.8;;;;;;;;;;;;;-1648;;;;;;;;
2200.0;2128.8;;;;;;;;;;;;;-882;;;;;;;;
2200.0;2128.8;;;;;;;;;;;;;-426;;;;;;;;
2200.0;2128.8;;;;;;;;;;;;;-661;;;;;;;;
2200.0;2128.8;;;;;;;;;;;;;-1257;;;;;;;;
2200.0;2129.0;;;;-0.34574893;0.3764115;0.46905905;;;;;;;;;;;;;;;
2200.0;2129.0;;;;-0.34990314;0.38057715;0.46306235;;;;;;;;;;;;;;;
2200.0;2129.0;;;;-0.3555489;0.3854447;0.4529038;;;;;;;;;;;;;;;
2200.0;2129.0;;;;-0.36818317;0.38981634;0.44003683;;;;;;;;;;;;;;;
2200.0;2129.0;;;;-0.38092047;0.39315802;0.4253922;;;;;;;;;;;;;;;
2200.0;2129.6;;;;;;;;;;22.339548;6.538591;-34.32569;;;;;;;;;
2200.0;2129.6;;;;;;;0.16626485;-0.7335429;0.022217475;;;;;;;;;;;;
2200.0;2129.6;;;;;;;;;;22.591326;5.767998;-31.826992;;;;;;;;;
2200.0;2129.6;;;;;;;0.1744438;-0.7439802;0.01861629;;;;;;;;;;;;
2204.0;2139.1;;;;-0.39127356;0.3947335;0.4107476;;;;;;;;;;;;;;;
2204.0;2139.1;;;;-0.40227515;0.39632422;0.397564;;;;;;;;;;;;;;;
2204.0;2139.1;;;;-0.41444784;0.39893347;0.38422018;;;;;;;;;;;;;;;
2204.0;2139.1;;;;-0.42537695;0.40118796;0.3698044;;;;;;;;;;;;;;;
2204.0;2139.1;;;;-0.43754202;0.40275198;0.35393527;;;;;;;;;;;;;;;
2204.0;2139.2;;;;;;;;;;22.858364;4.776147;-29.404585;;;;;;;;;
2204.0;2139.2;;;;;;;0.18042544;-0.75734735;0.013672292;;;;;;;;;;;;
2204.0;2139.2;;;;;;;;;;22.988068;3.7995543;-26.795252;;;;;;;;;
2204.0;2139.2;;;;;;;0.18756676;-0.7658925;0.010376293;;;;;;;;;;;;
2204.0;2143.1;262143;262143;14482;;;;;;;;;;;;;;;;;;
2204.0;2146.5;;;;;;;;;;;;;;;;;110.549484;-124.988556;124.988556;;2026.2
2204.0;2146.5;;;;;;;;;;;;;;1.9366436;0.44886625;-0.6493118;;;;;2026.2
2204.0;2146.5;;;;;;;;;;;;;;;;;106.318855;-122.18848;124.988556;;2026.2
2204.0;2146.5;;;;;;;;;;;;;;1.9754632;0.4540544;-0.71480453;;;;;2026.2
2204.0;2146.5;;;;;;;;;;;;;;;;;106.23493;-91.43346;124.988556;;2035.9
2204.0;2146.5;;;;;;;;;;;;;;1.9131444;0.47181615;-0.5841853;;;;;2035.9
2204.0;2146.5;;;;;;;;;;;;;;;;;113.856926;-46.03717;124.988556;;2035.9
2204.0;2146.5;;;;;;;;;;;;;;1.7305826;0.53578293;-0.4194464;;;;;2035.9
2204.0;2146.5;;;;;;;;;;;;;;;;;123.98526;-10.624256;123.61903;;2045.5
2204.0;2146.5;;;;;;;;;;;;;;1.4753258;0.68312633;-0.20068972;;;;;2045.5
2204.0;2146.5;;;;;;;;;;;;;;;;;124.988556;3.9597769;109.43175;;2045.5
2204.0;2146.5;;;;;;;;;;;;;;1.2283089;0.75307477;-0.037049472;;;;;2045.5
2209.0;2147.6;;;;;;;;;;;;;;;;;124.988556;2.1858883;84.7232;;2054.9
2209.0;2147.6;;;;;;;;;;;;;;1.0277413;0.8314463;0.091250345;;;;;2054.9
2209.0;2147.6;;;;;;;;;;;;;;;;;124.988556;-9.128849;59.911648;;2054.9
2209.0;2147.6;;;;;;;;;;;;;;0.90878016;0.9553514;0.23700674;;;;;2054.9
2209.0;2147.6;;;;;;;;;;;;;;;;;124.988556;-26.696066;40.223396;;2064.5
2209.0;2147.6;;;;;;;;;;;;;;0.8337657;1.0550859;0.34986418;;;;;2064.5
2209.0;2147.6;;;;;;;;;;;;;;;;;124.988556;-45.999023;23.392437;;2064.5
2209.0;2147.6;;;;;;;;;;;;;;0.8057497;1.202002;0.40205085;;;;;2064.5
2209.0;2147.6;;;;;;;;;;;;;;;;;124.988556;-62.623985;11.097293;;2074.1
2209.0;2147.6;;;;;;;;;;;;;;0.75283056;1.3450727;0.39417708;;;;;2074.1
2209.0;2147.6;;;;;;;;;;;;;;;;;124.988556;-76.28101;4.902035;;2074.1
2209.0;2147.6;;;;;;;;;;;;;;0.69252604;1.4251534;0.3076876;;;;;2074.1
2209.0;2148.5;;;;;;;;;;23.380993;2.8420362;-24.266031;;;;;;;;;
2209.0;2148.5;;;;;;;0.18842128;-0.7763298;0.0036622211;;;;;;;;;;;;
2209.0;2148.5;;;;;;;;;;23.728142;1.7967772;-21.72155;;;;;;;;;
2209.0;2148.5;;;;;;;0.19037446;-0.7838374;0.0018921476;;;;;;;;;;;;
2209.0;2148.9;;;;-0.45470816;0.40557486;0.33713916;;;;;;;;;;;;;;;
2209.0;2148.9;;;;-0.4677773;0.40975577;0.31948856;;;;;;;;;;;;;;;
2209.0;2148.9;;;;-0.47819906;0.41358572;0.30197147;;;;;;;;;;;;;;;
2209.0;2148.9;;;;-0.4927407;0.41820532;0.2848206;;;;;;;;;;;;;;;
2209.0;2148.9;;;;-0.5059815;0.42366797;0.2682877;;;;;;;;;;;;;;;
2209.0;2158.1;;;;;;;;;;24.464401;0.7019257;-19.222847;;;;;;;;;
2209.0;2158.1;;;;;;;0.19244972;-0.78884244;4.8829615E-4;;;;;;;;;;;;
2209.0;2158.1;;;;;;;;;;25.677511;-0.3662221;-16.762293;;;;;;;;;
2209.0;2158.1;;;;;;;0.19019136;-0.79085666;-0.0025025178;;;;;;;;;;;;
2215.0;2159.0;;;;-0.5195771;0.4304238;0.25221637;;;;;;;;;;;;;;;
2215.0;2159.0;;;;-0.5324288;0.43965155;0.24039462;;;;;;;;;;;;;;;
2215.0;2159.0;;;;-0.5455819;0.45133978;0.22858813;;;;;;;;;;;;;;;
2215.0;2159.0;;;;-0.55959326;0.46614844;0.21872333;;;;;;;;;;;;;;;
2215.0;2159.0;;;;-0.5737;0.4819489;0.20982364;;;;;;;;;;;;;;;
2215.0;2161.5;;;;;;;;;;;;;;;;;124.988556;-83.674126;-0.053407393;;2083.8
2215.0;2161.5;;;;;;;;;;;;;;0.6811121;1.5567492;0.19684438;;;;;2083.8
2215.0;2161.5;;;;;;;;;;;;;;;;;121.116516;-78.5699;0.08774071;;2083.8
2215.0;2161.5;;;;;;;;;;;;;;0.7043062;1.6428725;0.08154546;;;;;2083.8
2215.0;2161.5;;;;;;;;;;;;;;;;;101.424446;-61.067535;7.328257;;2093.5
2215.0;2161.5;;;;;;;;;;;;;;0.765038;1.5538194;0.069765314;;;;;2093.5
2215.0;2161.5;;;;;;;;;;;;;;;;;71.55446;-38.8844;14.309366;;2093.5
2215.0;2161.5;;;;;;;;;;;;;;0.80959505;1.404645;0.095706046;;;;;2093.5
2215.0;2161.5;;;;;;;;;;;;;;;;;38.937805;-19.05118;21.351513;;2103.2
2215.0;2161.5;;;;;;;;;;;;;;0.8123417;1.2265389;0.12005982;;;;;2103.2
2215.0;2161.5;;;;;;;;;;;;;;;;;7.7898498;-3.9864802;26.95929;;2103.2
2215.0;2161.5;;;;;;;;;;;;;;0.83962524;1.1003754;0.23419905;;;;;2103.2
2215.0;2162.9;262143;262143;14480;;;;;;;;;;;;;;;;;;
2215.0;2167.6;;;;;;;;;;27.03177;-1.5869625;-14.255959;;;;;;;;;
2215.0;2167.6;;;;;;;0.18524735;-0.79116184;-0.0056154057;;;;;;;;;;;;
2215.0;2167.6;;;;;;;;;;28.084658;-2.8420362;-11.719108;;;;;;;;;
2215.0;2167.6;;;;;;;0.17651907;-0.78725547;-0.011597034;;;;;;;;;;;;
2257.0;2168.9;;;;;;;;;;;;;-1717;;;;;;;;
2257.0;2168.9;;;;;;;;;;;;;-2177;;;;;;;;
2257.0;2168.9;;;;;;;;;;;;;-2932;;;;;;;;
2257.0;2168.9;;;;;;;;;;;;;-3361;;;;;;;;
2257.0;2168.9;;;;;;;;;;;;;-2590;;;;;;;;
2257.0;2169.0;;;;-0.5867234;0.49885184;0.20067218;;;;;;;;;;;;;;;
2257.0;2169.0;;;;-0.59909827;0.5150185;0.19139484;;;;;;;;;;;;;;;
2257.0;2169.0;;;;-0.60869986;0.5313607;0.181942;;;;;;;;;;;;;;;
2257.0;2169.0;;;;-0.61119086;0.54492575;0.173481;;;;;;;;;;;;;;;
2257.0;2169.0;;;;-0.6023484;0.5574532;0.17248155;;;;;;;;;;;;;;;
2257.0;2176.8;;;;;;;;;;28.859066;-4.333628;-9.31959;;;;;;;;;
2257.0;2176.8;;;;;;;0.17011017;-0.78438675;-0.015442366;;;;;;;;;;;;
2257.0;2176.8;;;;;;;;;;29.744102;-5.989258;-7.271035;;;;;;;;;
2257.0;2176.8;;;;;;;0.1645558;-0.77962583;-0.020386364;;;;;;;;;;;;
2257.0;2178.6;;;;-0.61119086;0.58066183;0.17704393;;;;;;;;;;;;;;;
2257.0;2178.6;;;;-0.6244469;0.6042252;0.17593004;;;;;;;;;;;;;;;
2257.0;2178.6;;;;-0.6378289;0.626545;0.16747667;;;;;;;;;;;;;;;
2257.0;2178.6;;;;-0.6482888;0.6503106;0.15452577;;;;;;;;;;;;;;;
2257.0;2178.6;;;;-0.6550179;0.67495733;0.14469148;;;;;;;;;;;;;;;
2257.0;2182.7;262143;262143;14476;;;;;;;;;;;;;;;;;;
2257.0;2186.4;;;;;;;;;;30.388805;-8.026368;-5.3102207;;;;;;;;;
2257.0;2186.4;;;;;;;0.15845211;-0.77352214;-0.022461623;;;;;;;;;;;;
2257.0;2186.4;;;;;;;;;;31.132694;-10.349589;-3.5325174;;;;;;;;;
2257.0;2186.4;;;;;;;0.15210426;-0.76845604;-0.023071993;;;;;;;;;;;;
2259.0;2188.7;;;;-0.66284186;0.7041703;0.13704301;;;;;;;;;;;;;;;
2259.0;2188.7;;;;-0.6714898;0.7339211;0.13017274;;;;;;;;;;;;;;;
2259.0;2188.7;;;;-0.67879874;0.76347744;0.12167741;;;;;;;;;;;;;;;
2259.0;2188.7;;;;-0.685093;0.7934991;0.115612045;;;;;;;;;;;;;;;
2259.0;2188.7;;;;-0.69234854;0.8250543;0.113101974;;;;;;;;;;;;;;;
2259.0;2196.0;;;;;;;;;;31.750694;-13.241219;-1.8997772;;;;;;;;;
2259.0;2196.0;;;;;;;0.14349803;-0.76235235;-0.02252266;;;;;;;;;;;;
2259.0;2196.0;;;;;;;;;;32.422104;-16.624958;-0.34333324;;;;;;;;;
2259.0;2196.0;;;;;;;0.13562426;-0.7594226;-0.022461623;;;;;;;;;;;;
2259.0;2198.8;;;;-0.6963425;0.85930645;0.11055757;;;;;;;;;;;;;;;
2259.0;2198.8;;;;-0.70135504;0.894745;0.111404434;;;;;;;;;;;;;;;
2259.0;2198.8;;;;-0.7050553;0.9308053;0.11319734;;;;;;;;;;;;;;;
2259.0;2198.8;;;;-0.71163946;0.96475613;0.11543657;;;;;;;;;;;;;;;
2259.0;2198.8;;;;-0.7174035;0.99736416;0.1208687;;;;;;;;;;;;;;;
2259.0;2203.0;262143;262143;14473;;;;;;;;;;;;;;;;;;
2259.0;2205.7;;;;;;;;;;32.876064;-20.424513;1.2932218;;;;;;;;;
2259.0;2205.7;;;;;;;0.13043611;-0.75807977;-0.020630512;;;;;;;;;;;;
2259.0;2205.7;;;;;;;;;;33.173622;-24.628439;2.910703;;;;;;;;;
2259.0;2205.7;;;;;;;0.12390515;-0.75838494;-0.01904355;;;;;;;;;;;;
2259.0;2208.9;;;;;;;;;;;;;-1073;;;;;;;;
2259.0;2208.9;;;;;;;;;;;;;-76;;;;;;;;
2259.0;2208.9;;;;;;;;;;;;;262;;;;;;;;
2259.0;2208.9;;;;;;;;;;;;;671;;;;;;;;
2259.0;2208.9;;;;;;;;;;;;;1291;;;;;;;;
2261.0;2208.9;;;;-0.72533804;1.0292398;0.12698366;;;;;;;;;;;;;;;
2261.0;2208.9;;;;-0.73060614;1.059086;0.1333275;;;;;;;;;;;;;;;
2261.0;2208.9;;;;-0.74140555;1.0865518;0.13982774;;;;;;;;;;;;;;;
2261.0;2208.9;;;;-0.7480088;1.1119462;0.1428795;;;;;;;;;;;;;;;
2261.0;2208.9;;;;-0.75042737;1.1338083;0.14699174;;;;;;;;;;;;;;;
2261.0;2215.3;;;;;;;;;;33.52077;-29.198584;4.5854063;;;;;;;;;
2261.0;2215.3;;;;;;;0.118228704;-0.75679797;-0.015259255;;;;;;;;;;;;
2261.0;2215.3;;;;;;;;;;33.925137;-33.883175;6.2906275;;;;;;;;;
2261.0;2215.3;;;;;;;0.11389508;-0.7549669;-0.010803552;;;;;;;;;;;;
2261.0;2219.0;;;;-0.7538415;1.1518594;0.15407945;;;;;;;;;;;;;;;
2261.0;2219.0;;;;-0.75909436;1.1648256;0.15888216;;;;;;;;;;;;;;;
2261.0;2219.0;;;;-0.7636033;1.1729738;0.16276552;;;;;;;;;;;;;;;
2261.0;2219.0;;;;-0.76530087;1.1765176;0.16539384;;;;;;;;;;;;;;;
2261.0;2219.0;;;;-0.7650567;1.1770135;0.16737367;;;;;;;;;;;;;;;
2261.0;2222.5;;;;;;;;;;;;;;;;;-15.770439;1.1444441;30.407879;;2112.8
2261.0;2222.5;;;;;;;;;;;;;;0.86336863;0.98550373;0.3655507;;;;;2112.8
2261.0;2222.5;;;;;;;;;;;;;;;;;-29.892881;-14.801477;32.937103;;2112.8
2261.0;2222.5;;;;;;;;;;;;;;0.95504624;0.95016325;0.45844904;;;;;2112.8
2261.0;2222.5;;;;;;;;;;;;;;;;;-40.57054;-53.13654;37.217323;;2122.5
2261.0;2222.5;;;;;;;;;;;;;;1.1684316;1.0175481;0.43104342;;;;;2122.5
2261.0;2222.5;;;;;;;;;;;;;;;;;-48.85632;-96.63305;43.38206;;2122.5
2261.0;2222.5;;;;;;;;;;;;;;1.4127629;1.0256051;0.2766808;;;;;2122.5
2261.0;2222.5;;;;;;;;;;;;;;;;;-42.794582;-122.26096;50.218204;;2132.1
2261.0;2222.5;;;;;;;;;;;;;;1.5660878;0.88790554;0.06268502;;;;;2132.1
2261.0;2222.5;;;;;;;;;;;;;;;;;-23.3314;-124.988556;57.44728;;2132.1
2261.0;2222.5;;;;;;;;;;;;;;1.6390882;0.6211127;-0.11926634;;;;;2132.1
2261.0;2223.3;;;;;;;;;;;;;;;;;-6.3173313;-116.97745;63.226723;;2141.7
2261.0;2223.3;;;;;;;;;;;;;;1.6450087;0.3427839;-0.3980224;;;;;2141.7
2261.0;2223.3;;;;;;;;;;;;;;;;;0.09155553;-77.078316;67.09876;;2141.7
2261.0;2223.3;;;;;;;;;;;;;;1.6299936;0.11017182;-0.65614796;;;;;2141.7
2261.0;2223.3;;;;;;;;;;;;;;;;;3.0175178;-25.723288;70.84872;;2151.3
2261.0;2223.3;;;;;;;;;;;;;;1.7051913;-0.16132084;-0.7462996;;;;;2151.3
2261.0;2223.3;;;;;;;;;;;;;;;;;16.201513;22.865993;71.813866;;2151.3
2261.0;2223.3;;;;;;;;;;;;;;1.7502365;-0.45362714;-0.69716483;;;;;2151.3
2261.0;2223.3;;;;;;;;;;;;;;;;;35.420544;63.18476;64.63821;;2161.0
2261.0;2223.3;;;;;;;;;;;;;;1.7060457;-0.8086184;-0.50428784;;;;;2161.0
2261.0;2223.3;;;;;;;;;;;;;;;;;44.6028;79.523605;46.13254;;2161.0
2261.0;2223.3;;;;;;;;;;;;;;1.549791;-1.0554521;-0.37635425;;;;;2161.0
2316.0;2223.1;262143;262143;14466;;;;;;;;;;;;;;;;;;
2316.0;2224.6;;;;;;;;;;34.138767;-38.777584;8.053072;;;;;;;;;
2316.0;2224.6;;;;;;;0.106387526;-0.7524033;-0.0046388134;;;;;;;;;;;;
2316.0;2224.6;;;;;;;;;;34.53932;-44.022953;10.025331;;;;;;;;;
2316.0;2224.6;;;;;;;0.100161746;-0.7508774;9.155553E-4;;;;;;;;;;;;
2316.0;2228.9;;;;-0.76750576;1.1761895;0.16801454;;;;;;;;;;;;;;;
2316.0;2228.9;;;;-0.77069104;1.1710817;0.16765596;;;;;;;;;;;;;;;
2316.0;2228.9;;;;-0.7744638;1.1634485;0.16855623;;;;;;;;;;;;;;;
2316.0;2228.9;;;;-0.77969754;1.1545411;0.17039873;;;;;;;;;;;;;;;
2316.0;2228.9;;;;-0.7848474;1.1451684;0.17339326;;;;;;;;;;;;;;;
2316.0;2234.0;;;;;;;;;;35.09247;-49.157692;12.108219;;;;;;;;;
2316.0;2234.0;;;;;;;0.097048864;-0.7487411;0.0080568865;;;;;;;;;;;;
2316.0;2234.0;;;;;;;;;;35.889767;-54.216133;14.427626;;;;;;;;;
2316.0;2234.0;;;;;;;0.095278785;-0.7446516;0.016907254;;;;;;;;;;;;
2316.0;2238.6;;;;-0.78998196;1.1366655;0.1766472;;;;;;;;;;;;;;;
2316.0;2238.6;;;;-0.79129803;1.1278535;0.17861558;;;;;;;;;;;;;;;
2316.0;2238.6;;;;-0.79236996;1.119835;0.17956163;;;;;;;;;;;;;;;
2316.0;2238.6;;;;-0.7911302;1.1113473;0.17855836;;;;;;;;;;;;;;;
2316.0;2238.6;;;;-0.7670518;1.0965196;0.17570879;;;;;;;;;;;;;;;
2316.0;2242.9;262143;262143;14452;;;;;;;;;;;;;;;;;;
2318.0;2243.5;;;;;;;;;;36.70614;-59.36613;16.922514;;;;;;;;;
2318.0;2243.5;;;;;;;0.095583975;-0.741966;0.022400586;;;;;;;;;;;;
2318.0;2243.5;;;;;;;;;;37.59499;-64.31394;19.53566;;;;;;;;;
2318.0;2243.5;;;;;;;0.096804716;-0.7397687;0.027466659;;;;;;;;;;;;
2318.0;2248.7;;;;-0.69712454;1.0666925;0.19936374;;;;;;;;;;;;;;;
2318.0;2248.7;;;;-0.84998715;1.1221238;0.2203789;;;;;;;;;;;;;;;
2318.0;2248.7;;;;-0.83023846;1.116398;0.19773105;;;;;;;;;;;;;;;
2318.0;2248.7;;;;-0.8275224;1.1166002;0.16582109;;;;;;;;;;;;;;;
2318.0;2248.7;;;;-0.80786145;1.117016;0.13691713;;;;;;;;;;;;;;;
2318.0;2248.8;;;;;;;;;;;;;1675;;;;;;;;
2318.0;2248.8;;;;;;;;;;;;;1777;;;;;;;;
2318.0;2248.8;;;;;;;;;;;;;2239;;;;;;;;
2318.0;2248.8;;;;;;;;;;;;;3221;;;;;;;;
2318.0;2248.8;;;;;;;;;;;;;3532;;;;;;;;
2318.0;2253.2;;;;;;;;;;38.296917;-69.193085;22.347178;;;;;;;;;
2318.0;2253.2;;;;;;;0.10199286;-0.7345805;0.032105472;;;;;;;;;;;;
2318.0;2253.2;;;;;;;;;;38.8844;-73.801384;25.444807;;;;;;;;;
2318.0;2253.2;;;;;;;0.10425123;-0.7300638;0.036988433;;;;;;;;;;;;
2318.0;2258.8;;;;-0.77697;1.1162034;0.118949905;;;;;;;;;;;;;;;
2318.0;2258.8;;;;-0.74969107;1.1176339;0.1134453;;;;;;;;;;;;;;;
2318.0;2258.8;;;;-0.7308808;1.1248666;0.11549379;;;;;;;;;;;;;;;
2318.0;2258.8;;;;-0.7206841;1.1408502;0.1223755;;;;;;;;;;;;;;;
2318.0;2258.8;;;;-0.71475226;1.1641656;0.13117601;;;;;;;;;;;;;;;
2318.0;2262.8;;;;;;;;;;39.59395;-78.04727;28.893398;;;;;;;;;
2318.0;2262.8;;;;;;;0.10913419;-0.72438735;0.041077916;;;;;;;;;;;;
2318.0;2262.8;;;;;;;;;;40.379803;-82.27027;32.437363;;;;;;;;;
2318.0;2262.8;;;;;;;0.11548204;-0.7179785;0.0463271;;;;;;;;;;;;
2320.0;2263.2;262143;262143;14443;;;;;;;;;;;;;;;;;;
2320.0;2267.0;;;;;;;;;;;;;;;;;30.869473;67.770164;11.753441;;2170.5
2320.0;2267.0;;;;;;;;;;;;;;1.2214118;-0.9292886;-0.5742973;;;;;2170.5
2320.0;2267.0;;;;;;;;;;;;;;;;;9.617146;52.01117;-23.54503;;2170.5
2320.0;2267.0;;;;;;;;;;;;;;0.852443;-0.45905942;-0.75966674;;;;;2170.5
2320.0;2267.0;;;;;;;;;;;;;;;;;-6.172369;39.361244;-47.27317;;2180.1
2320.0;2267.0;;;;;;;;;;;;;;0.6438185;0.013672292;-0.6120792;;;;;2180.1
2320.0;2267.0;;;;;;;;;;;;;;;;;-29.957731;26.280252;-62.974945;;2180.1
2320.0;2267.0;;;;;;;;;;;;;;0.57564014;0.3154393;-0.50489825;;;;;2180.1
2320.0;2267.0;;;;;;;;;;;;;;;;;-52.568134;17.548143;-65.389725;;2189.8
2320.0;2267.0;;;;;;;;;;;;;;0.63490707;0.32245857;-0.44001588;;;;;2189.8
2320.0;2267.0;;;;;;;;;;;;;;;;;-75.37691;15.663626;-67.40776;;2189.8
2320.0;2267.0;;;;;;;;;;;;;;0.6911222;0.31531724;-0.39875484;;;;;2189.8
2320.0;2268.8;;;;-0.70672613;1.1936227;0.14105989;;;;;;;;;;;;;;;
2320.0;2268.8;;;;-0.694645;1.2291528;0.14907457;;;;;;;;;;;;;;;
2320.0;2268.8;;;;-0.6787949;1.2673913;0.15459444;;;;;;;;;;;;;;;
2320.0;2268.8;;;;-0.6632462;1.3066255;0.16006471;;;;;;;;;;;;;;;
