patientId;holterMac;flexMac;;;;;;;;;;;;;;;;;;;;
stairsdown;CA:F3:0B:1E:33:78;D3:4A:5C:52:80:78;;;;;;;;;;;;;;;;;;;;
receivedTimeStamp;timeStamp;red;ir;green;adxl_accX;adxl_accY;adxl_accZ;lsm_accelX;lsm_accelY;lsm_accelZ;lsm_gyroX;lsm_gyroY;lsm_gyroZ;ecg;flex_lsm_accelX;flex_lsm_accelY;flex_lsm_accelZ;flex_lsm_gyroX;flex_lsm_gyroY;flex_lsm_gyroZ;flex_cmd;flexTimeStamp
261.0;213.2;;;;;;;;;;;;;;;;;;;;17;0.1
261.0;213.2;;;;;;;;;;;;;;;;;13.580737;-0.2517777;-0.11444441;;127.7
261.0;213.2;;;;;;;;;;;;;;0.72835475;0.11957152;-0.54713583;;;;;127.7
261.0;213.2;;;;;;;;;;;;;;;;;-6.221961;-17.345957;-8.285776;;127.7
261.0;213.2;;;;;;;;;;;;;;0.75820184;0.14069033;-0.5627003;;;;;127.7
261.0;213.2;;;;;;;;;;;;;;;;;-62.482834;-84.55916;-62.40272;;137.3
261.0;213.2;;;;;;;;;;;;;;0.7599719;0.15063937;-0.56196785;;;;;137.3
261.0;213.2;;;;;;;;;;;;;;;;;-121.94051;-124.988556;-120.487076;;137.3
261.0;213.2;;;;;;;;;;;;;;0.760094;0.16168706;-0.5631275;;;;;137.3
320.0;213.8;;;;;;;;;;;;;;;;;-48.589283;-124.65667;-81.167786;;147.0
320.0;213.8;;;;;;;;;;;;;;0.76326793;0.1739555;-0.5597095;;;;;147.0
320.0;213.8;;;;;;;;;;;;;;;;;32.605213;-123.687706;-39.07895;;147.0
320.0;213.8;;;;;;;;;;;;;;0.7626575;0.17780083;-0.55146945;;;;;147.0
320.0;213.8;;;;;;;;;;;;;;;;;32.776882;-91.63182;-32.64336;;156.7
320.0;213.8;;;;;;;;;;;;;;0.76168096;0.18439284;-0.5515305;;;;;156.7
320.0;213.8;;;;;;;;;;;;;;;;;25.15488;2.5444808;-7.969146;;156.7
320.0;213.8;;;;;;;;;;;;;;0.73738825;0.18182927;-0.5670339;;;;;156.7
320.0;213.8;;;;;;;;;;;;;;;;;21.767328;10.204626;-5.077517;;166.2
320.0;213.8;;;;;;;;;;;;;;0.7215186;0.17975402;-0.55739003;;;;;166.2
320.0;213.8;;;;;;;;;;;;;;;;;19.634846;8.865627;-3.9979248;;166.2
320.0;213.8;;;;;;;;;;;;;;0.7167577;0.17542039;-0.55604726;;;;;166.2
320.0;273.3;;;;;;;;;;;;;;;;;17.571032;7.637257;-2.4529252;;175.9
320.0;273.3;;;;;;;;;;;;;;0.71700186;0.17139195;-0.5501877;;;;;175.9
320.0;273.3;;;;;;;;;;;;;;;;;15.816217;6.8170724;-1.2855922;;175.9
320.0;273.3;;;;;;;;;;;;;;0.7046724;0.16748558;-0.54597616;;;;;175.9
320.0;273.3;;;;;;;;;;;;;;;;;14.446699;5.901517;0.16403699;;185.5
320.0;273.3;;;;;;;;;;;;;;0.6983856;0.16254158;-0.55623037;;;;;185.5
320.0;273.3;;;;;;;;;;;;;;;;;13.496811;5.775628;1.7319254;;185.5
320.0;273.3;;;;;;;;;;;;;;0.67665637;0.16162603;-0.56068605;;;;;185.5
320.0;273.3;;;;;;;;;;;;;;;;;12.359997;4.6807766;3.1586657;;195.0
320.0;273.3;;;;;;;;;;;;;;0.662862;0.16919462;-0.5691702;;;;;195.0
320.0;273.3;;;;;;;;;;;;;;;;;10.967589;3.563036;4.50911;;195.0
320.0;273.3;;;;;;;;;;;;;;0.65004426;0.18231757;-0.5778985;;;;;195.0
387.0;274.0;;;;;;;;;;;;;;;;;8.991516;2.4605548;5.94348;;204.7
387.0;274.0;;;;;;;;;;;;;;0.64424574;0.19611195;-0.5851619;;;;;204.7
387.0;274.0;;;;;;;;;;;;;;;;;6.614887;1.4229255;7.2786646;;204.7
387.0;274.0;;;;;;;;;;;;;;0.6466872;0.2097232;-0.5906552;;;;;204.7
387.0;274.0;;;;;;;;;;;;;;;;;3.4981842;1.6975921;8.743553;;214.2
387.0;274.0;;;;;;;;;;;;;;0.6549882;0.227546;-0.6052431;;;;;214.2
387.0;274.0;;;;;;;;;;;;;;;;;0.8888516;2.6360364;10.109256;;214.2
387.0;274.0;;;;;;;;;;;;;;0.6454054;0.23499252;-0.6140934;;;;;214.2
387.0;274.0;;;;;;;;;;;;;;;;;-0.93081456;2.8496659;10.895108;;223.9
387.0;274.0;;;;;;;;;;;;;;0.6506546;0.24488053;-0.62410355;;;;;223.9
387.0;274.0;;;;;;;;;;;;;;;;;-2.5101473;3.1434064;11.402478;;223.9
387.0;274.0;;;;;;;;;;;;;;0.6519364;0.24536882;-0.6267281;;;;;223.9
387.0;348.8;;;;;;;;;;;;;;;;;-3.8644063;3.357036;11.619923;;233.5
387.0;348.8;;;;;;;;;;;;;;0.65895563;0.24353771;-0.6168401;;;;;233.5
387.0;348.8;;;;;;;;;;;;;;;;;-5.4437394;3.8987396;11.535996;;233.5
387.0;348.8;;;;;;;;;;;;;;0.66139716;0.23261207;-0.59279156;;;;;233.5
387.0;348.8;;;;;;;;;;;;;;;;;-7.9615164;4.3031096;11.455885;;243.1
387.0;348.8;;;;;;;;;;;;;;0.66768396;0.22144231;-0.5769219;;;;;243.1
387.0;348.8;;;;;;;;;;;;;;;;;-11.417737;5.53148;11.413922;;243.1
387.0;348.8;;;;;;;;;;;;;;0.65724665;0.22168645;-0.5739311;;;;;243.1
387.0;348.8;;;;;;;;;;;;;;;;;-14.7633295;6.370739;11.234626;;252.8
387.0;348.8;;;;;;;;;;;;;;0.63472396;0.21753594;-0.5592822;;;;;252.8
387.0;348.8;;;;;;;;;;;;;;;;;-16.834774;5.9854426;10.689108;;252.8
387.0;348.8;;;;;;;;;;;;;;0.6358837;0.21607105;-0.5484176;;;;;252.8
445.0;350.0;;;;;;;;;;;;;;;;;-17.494736;5.542924;9.926145;;262.5
445.0;350.0;;;;;;;;;;;;;;0.6434522;0.22650838;-0.54536575;;;;;262.5
445.0;350.0;;;;;;;;;;;;;;;;;-17.3574;5.9129615;8.869442;;262.5
445.0;350.0;;;;;;;;;;;;;;0.63112277;0.23462631;-0.5299234;;;;;262.5
445.0;350.0;;;;;;;;;;;;;;;;;-15.758995;5.394147;7.6029234;;272.0
445.0;350.0;;;;;;;;;;;;;;0.6227607;0.23810542;-0.52705467;;;;;272.0
445.0;350.0;;;;;;;;;;;;;;;;;-13.504441;3.7232583;5.859554;;272.0
445.0;350.0;;;;;;;;;;;;;;0.6092105;0.25421917;-0.5393841;;;;;272.0
445.0;350.0;;;;;;;;;;;;;;;;;-10.692923;1.9951477;3.6774805;;281.7
445.0;350.0;;;;;;;;;;;;;;0.59675896;0.2626423;-0.5512253;;;;;281.7
445.0;350.0;;;;;;;;;;;;;;;;;-7.2443314;-0.20218512;1.5297403;;281.7
445.0;350.0;;;;;;;;;;;;;;0.5912656;0.2763146;-0.5545213;;;;;281.7
445.0;394.0;;;;;;;;;;;;;;;;;-3.746147;-2.0638144;-0.74007386;;291.4
445.0;394.0;;;;;;;;;;;;;;0.5964537;0.30957976;-0.54322946;;;;;291.4
445.0;394.0;;;;;;;;;;;;;;;;;-0.6904813;-3.5134435;-2.746666;;291.4
445.0;394.0;;;;;;;;;;;;;;0.59578234;0.34669027;-0.53444016;;;;;291.4
445.0;394.0;;;;;;;;;;;;;;;;;2.5482955;-4.0475173;-4.799036;;301.0
445.0;394.0;;;;;;;;;;;;;;0.5861385;0.3968627;-0.5067293;;;;;301.0
445.0;394.0;;;;;;;;;;;;;;;;;4.730369;-4.5777764;-6.7903686;;301.0
445.0;394.0;;;;;;;;;;;;;;0.6079287;0.43629262;-0.46388134;;;;;301.0
445.0;394.0;;;;;;;;;;;;;;;;;3.9979248;-4.146703;-8.159886;;310.6
445.0;394.0;;;;;;;;;;;;;;0.6026185;0.4655904;-0.4350719;;;;;310.6
445.0;394.0;;;;;;;;;;;;;;;;;0.46540728;-4.7875915;-9.01822;;310.6
445.0;394.0;;;;;;;;;;;;;;0.5854671;0.47956786;-0.41431928;;;;;310.6
504.0;394.8;;;;;;;;;;;;;;;;;-3.0213325;-4.318369;-10.036775;;320.1
504.0;394.8;;;;;;;;;;;;;;0.62532425;0.46272165;-0.39576402;;;;;320.1
504.0;394.8;;;;;;;;;;;;;;;;;-3.9750361;-1.9379253;-12.012849;;320.1
504.0;394.8;;;;;;;;;;;;;;0.60176396;0.44361705;-0.37995544;;;;;320.1
504.0;394.8;;;;;;;;;;;;;;;;;-3.707999;-2.990814;-14.587848;;329.8
504.0;394.8;;;;;;;;;;;;;;0.60621965;0.4196295;-0.39197972;;;;;329.8
504.0;394.8;;;;;;;;;;;;;;;;;-3.322703;-5.058443;-17.69692;;329.8
504.0;394.8;;;;;;;;;;;;;;0.5910215;0.38624227;-0.4166387;;;;;329.8
504.0;394.8;;;;;;;;;;;;;;;;;-0.3852962;-8.877071;-21.141697;;339.3
504.0;394.8;;;;;;;;;;;;;;0.5874203;0.3651845;-0.45368817;;;;;339.3
504.0;394.8;;;;;;;;;;;;;;;;;2.4681845;-11.944181;-24.197363;;339.3
504.0;394.8;;;;;;;;;;;;;;0.57765436;0.36115605;-0.49665824;;;;;339.3
504.0;454.3;;;;;;;;;;;;;;;;;3.5821102;-13.092441;-26.261177;;349.0
504.0;454.3;;;;;;;;;;;;;;0.53596604;0.3872799;-0.4897;;;;;349.0
504.0;454.3;;;;;;;;;;;;;;;;;1.2665181;-18.429365;-26.635029;;349.0
504.0;454.3;;;;;;;;;;;;;;0.49971008;0.38178656;-0.51442;;;;;349.0
504.0;454.3;;;;;;;;;;;;;;;;;-2.2011476;-24.460587;-26.284067;;358.6
504.0;454.3;;;;;;;;;;;;;;0.50166327;0.40552995;-0.53297526;;;;;358.6
504.0;454.3;;;;;;;;;;;;;;;;;-7.0726647;-28.447065;-24.674215;;358.6
504.0;454.3;;;;;;;;;;;;;;0.5081942;0.39906004;-0.52455217;;;;;358.6
504.0;454.3;;;;;;;;;;;;;;;;;-12.050997;-27.684103;-23.903624;;368.2
504.0;454.3;;;;;;;;;;;;;;0.54628134;0.412183;-0.4695578;;;;;368.2
504.0;454.3;;;;;;;;;;;;;;;;;-19.203773;-19.554733;-23.689993;;368.2
504.0;454.3;;;;;;;;;;;;;;0.57747126;0.40803248;-0.3635975;;;;;368.2
565.0;455.3;;;;;;;;;;;;;;;;;-25.799585;-12.222664;-23.499252;;377.8
565.0;455.3;;;;;;;;;;;;;;0.5601978;0.39399394;-0.25830868;;;;;377.8
565.0;455.3;;;;;;;;;;;;;;;;;-29.786066;-12.798699;-23.060549;;377.8
565.0;455.3;;;;;;;;;;;;;;0.5592822;0.36524552;-0.27100438;;;;;377.8
565.0;455.3;;;;;;;;;;;;;;;;;-29.07651;-11.494034;-23.636585;;387.4
565.0;455.3;;;;;;;;;;;;;;0.621601;0.3725089;-0.30439162;;;;;387.4
565.0;455.3;;;;;;;;;;;;;;;;;-28.099916;-1.2207403;-25.8034;;387.4
565.0;455.3;;;;;;;;;;;;;;0.6756798;0.3505356;-0.23950927;;;;;387.4
565.0;455.3;;;;;;;;;;;;;;;;;-25.963621;6.324961;-29.164251;;397.1
565.0;455.3;;;;;;;;;;;;;;0.6794641;0.2927946;-0.18689536;;;;;397.1
565.0;455.3;;;;;;;;;;;;;;;;;-23.178808;3.6431472;-32.803585;;397.1
565.0;455.3;;;;;;;;;;;;;;0.6392407;0.25080112;-0.33814508;;;;;397.1
565.0;514.3;;;;;;;;;;;;;;;;;-23.66329;1.7433698;-35.664692;;406.7
565.0;514.3;;;;;;;;;;;;;;0.52449113;0.237434;-0.5121616;;;;;406.7
565.0;514.3;;;;;;;;;;;;;;;;;-26.615955;3.276925;-36.576435;;406.7
565.0;514.3;;;;;;;;;;;;;;0.48896757;0.18634602;-0.5343791;;;;;406.7
565.0;514.3;;;;;;;;;;;;;;;;;-27.321697;8.911405;-37.99173;;416.3
565.0;514.3;;;;;;;;;;;;;;0.5328532;0.14307077;-0.4461806;;;;;416.3
565.0;514.3;;;;;;;;;;;;;;;;;-22.846918;14.610737;-40.444653;;416.3
565.0;514.3;;;;;;;;;;;;;;0.5790582;0.120365;-0.41669974;;;;;416.3
565.0;514.3;;;;;;;;;;;;;;;;;-15.171514;18.894773;-43.584248;;425.9
565.0;514.3;;;;;;;;;;;;;;0.59309673;0.08398694;-0.42921233;;;;;425.9
565.0;514.3;;;;;;;;;;;;;;;;;-6.7102575;15.396588;-45.747246;;425.9
565.0;514.3;;;;;;;;;;;;;;0.61110264;0.061708428;-0.511124;;;;;425.9
626.0;515.1;;;;;;;;;;;;;;;;;-0.42344433;10.44496;-45.453503;;435.5
626.0;515.1;;;;;;;;;;;;;;0.6880703;0.08331553;-0.57502973;;;;;435.5
626.0;515.1;;;;;;;;;;;;;;;;;0.61037016;10.963775;-43.645287;;435.5
626.0;515.1;;;;;;;;;;;;;;0.6535234;0.14917448;-0.57020783;;;;;435.5
626.0;515.1;;;;;;;;;;;;;;;;;-0.40818506;13.698996;-41.524246;;445.1
626.0;515.1;;;;;;;;;;;;;;0.63002414;0.20142217;-0.49684134;;;;;445.1
626.0;515.1;;;;;;;;;;;;;;;;;0.099185154;12.88644;-40.780357;;445.1
626.0;515.1;;;;;;;;;;;;;;0.63399154;0.22779016;-0.4835963;;;;;445.1
626.0;515.1;;;;;;;;;;;;;;;;;2.8077028;15.75518;-41.379284;;454.8
626.0;515.1;;;;;;;;;;;;;;0.63600576;0.25550097;-0.4240852;;;;;454.8
626.0;515.1;;;;;;;;;;;;;;;;;4.486221;17.384106;-42.180397;;454.8
626.0;515.1;;;;;;;;;;;;;;0.65993226;0.26239815;-0.36048463;;;;;454.8
626.0;529.3;;;;;;;;;;;;;;;;;5.706961;16.834774;-42.523727;;464.5
626.0;529.3;;;;;;;;;;;;;;0.6791589;0.27607045;-0.35462508;;;;;464.5
626.0;529.3;;;;;;;;;;;;;;;;;4.7418137;14.450515;-42.115543;;464.5
626.0;529.3;;;;;;;;;;;;;;0.64278084;0.3187353;-0.4420301;;;;;464.5
626.0;529.3;;;;;;;;;;;;;;;;;1.2054812;11.925108;-41.34495;;474.2
626.0;529.3;;;;;;;;;;;;;;0.6284982;0.37641528;-0.55110323;;;;;474.2
626.0;529.3;;;;;;;;;;;;;;;;;-3.3265176;13.130589;-41.016876;;474.2
626.0;529.3;;;;;;;;;;;;;;0.60878325;0.42072818;-0.6225776;;;;;474.2
626.0;529.3;;;;;;;;;;;;;;;;;-4.909665;20.07355;-43.137913;;483.7
626.0;529.3;;;;;;;;;;;;;;0.6007874;0.45265055;-0.56678975;;;;;483.7
626.0;529.3;;;;;;;;;;;;;;;;;-2.7314067;24.231697;-46.46443;;483.7
626.0;529.3;;;;;;;;;;;;;;0.60914946;0.44843897;-0.48500016;;;;;483.7
686.0;574.5;;;;;;;;;;;;;;;;;-0.88122195;26.81814;-49.954983;;493.2
686.0;574.5;;;;;;;;;;;;;;0.6206244;0.44233528;-0.47175512;;;;;493.2
686.0;574.5;;;;;;;;;;;;;;;;;-0.43488875;33.37199;-52.659687;;493.2
686.0;574.5;;;;;;;;;;;;;;0.58229315;0.44874418;-0.47871333;;;;;493.2
686.0;574.5;;;;;;;;;;;;;;;;;-0.49211097;38.84625;-54.38017;;502.8
686.0;574.5;;;;;;;;;;;;;;0.565508;0.46821496;-0.50666827;;;;;502.8
686.0;574.5;;;;;;;;;;;;;;;;;-1.8311106;47.853024;-55.917538;;502.8
686.0;574.5;;;;;;;;;;;;;;0.5251625;0.52266;-0.4735252;;;;;502.8
686.0;574.5;;;;;;;;;;;;;;;;;-3.501999;58.015686;-56.974243;;512.5
686.0;574.5;;;;;;;;;;;;;;0.509476;0.5531785;-0.3872799;;;;;512.5
686.0;574.5;;;;;;;;;;;;;;;;;-4.1924806;65.38591;-58.320873;;512.5
686.0;574.5;;;;;;;;;;;;;;0.45789972;0.63484603;-0.34076968;;;;;512.5
686.0;589.9;;;;;;;;;;;;;;;;;-5.1957765;68.39579;-59.66369;;522.2
686.0;589.9;;;;;;;;;;;;;;0.39069796;0.7199927;-0.3653676;;;;;522.2
686.0;589.9;;;;;;;;;;;;;;;;;-5.344554;68.80398;-61.708427;;522.2
686.0;589.9;;;;;;;;;;;;;;0.37208167;0.82631916;-0.41230506;;;;;522.2
686.0;589.9;;;;;;;;;;;;;;;;;-6.778924;70.62746;-64.63058;;531.8
686.0;589.9;;;;;;;;;;;;;;0.4041261;0.9576098;-0.40455335;;;;;531.8
686.0;589.9;;;;;;;;;;;;;;;;;-9.689628;70.734276;-68.456825;;531.8
686.0;589.9;;;;;;;;;;;;;;0.43885615;1.0479445;-0.374279;;;;;531.8
686.0;589.9;;;;;;;;;;;;;;;;;-14.633626;66.36632;-71.40949;;541.4
686.0;589.9;;;;;;;;;;;;;;0.5056307;1.1338236;-0.37659842;;;;;541.4
686.0;589.9;;;;;;;;;;;;;;;;;-21.237068;55.719166;-75.15183;;541.4
686.0;589.9;;;;;;;;;;;;;;0.6012757;1.183874;-0.47035128;;;;;541.4
745.0;634.8;;;;;;;;;;;;;;;;;-29.90051;49.764244;-80.668045;;551.1
745.0;634.8;;;;;;;;;;;;;;0.6896573;1.1302835;-0.54304636;;;;;551.1
745.0;634.8;;;;;;;;;;;;;;;;;-40.032654;47.37617;-85.44801;;551.1
745.0;634.8;;;;;;;;;;;;;;0.81752986;1.0249946;-0.5656301;;;;;551.1
745.0;634.8;;;;;;;;;;;;;;;;;-49.607834;43.187508;-89.35819;;560.7
745.0;634.8;;;;;;;;;;;;;;0.95773184;0.8959624;-0.62355417;;;;;560.7
745.0;634.8;;;;;;;;;;;;;;;;;-59.30891;41.03595;-92.6542;;560.7
745.0;634.8;;;;;;;;;;;;;;1.1088595;0.8285165;-0.67067474;;;;;560.7
745.0;634.8;;;;;;;;;;;;;;;;;-70.13916;39.361244;-94.206825;;570.3
745.0;634.8;;;;;;;;;;;;;;1.2631611;0.7361675;-0.75551623;;;;;570.3
745.0;634.8;;;;;;;;;;;;;;;;;-77.91376;37.27073;-94.58067;;570.3
745.0;634.8;;;;;;;;;;;;;;1.4033021;0.6253853;-0.84774315;;;;;570.3
745.0;649.9;;;;;;;;;;;;;;;;;-83.8496;37.24021;-95.11094;;580.0
745.0;649.9;;;;;;;;;;;;;;1.5148168;0.48518327;-0.9322794;;;;;580.0
745.0;649.9;;;;;;;;;;;;;;;;;-87.96579;38.60973;-95.64883;;580.0
745.0;649.9;;;;;;;;;;;;;;1.6226081;0.3704947;-0.9968566;;;;;580.0
745.0;649.9;;;;;;;;;;;;;;;;;-91.18167;41.226692;-95.04608;;589.7
745.0;649.9;;;;;;;;;;;;;;1.7206335;0.21790215;-1.0527666;;;;;589.7
745.0;649.9;;;;;;;;;;;;;;;;;-93.93216;47.528763;-93.9436;;589.7
745.0;649.9;;;;;;;;;;;;;;1.7925352;0.0568865;-1.0975066;;;;;589.7
745.0;649.9;;;;;;;;;;;;;;;;;-97.99875;58.668022;-93.66512;;599.3
745.0;649.9;;;;;;;;;;;;;;1.7439497;-0.059755243;-1.1311381;;;;;599.3
745.0;649.9;;;;;;;;;;;;;;;;;-102.40867;79.09253;-93.07001;;599.3
745.0;649.9;;;;;;;;;;;;;;1.3422651;-0.18854335;-0.93545336;;;;;599.3
806.0;695.3;;;;;;;;;;;;;;;;;-99.845116;82.75094;-91.53645;;608.9
806.0;695.3;;;;;;;;;;;;;;1.2263558;-0.21173742;-0.65773493;;;;;608.9
806.0;695.3;;;;;;;;;;;;;;;;;-94.40138;66.919464;-88.03446;;608.9
806.0;695.3;;;;;;;;;;;;;;1.2359385;-0.18024231;-0.71431625;;;;;608.9
806.0;695.3;;;;;;;;;;;;;;;;;-89.80071;62.383648;-83.44524;;618.6
806.0;695.3;;;;;;;;;;;;;;1.2524797;-0.21991637;-0.80220956;;;;;618.6
806.0;695.3;;;;;;;;;;;;;;;;;-84.65453;67.1598;-78.87127;;618.6
806.0;695.3;;;;;;;;;;;;;;1.2451552;-0.25147253;-0.77877134;;;;;618.6
806.0;695.3;;;;;;;;;;;;;;;;;-79.64949;68.93368;-75.10987;;628.3
806.0;695.3;;;;;;;;;;;;;;1.2255623;-0.23908201;-0.7359844;;;;;628.3
806.0;695.3;;;;;;;;;;;;;;;;;-74.64446;66.40065;-71.22639;;628.3
806.0;695.3;;;;;;;;;;;;;;1.2218391;-0.23584704;-0.7543565;;;;;628.3
806.0;703.9;;;;;;;;;;;;;;;;;-66.21372;66.14124;-67.22083;;637.9
806.0;703.9;;;;;;;;;;;;;;1.2198248;-0.12506485;-0.7507553;;;;;637.9
806.0;703.9;;;;;;;;;;;;;;;;;-55.082092;62.04413;-62.36839;;637.9
806.0;703.9;;;;;;;;;;;;;;1.1940062;-0.11572619;-0.79732656;;;;;637.9
806.0;703.9;;;;;;;;;;;;;;;;;-43.408768;64.80987;-60.083313;;647.6
806.0;703.9;;;;;;;;;;;;;;1.2073733;-0.09857479;-0.7975097;;;;;647.6
806.0;703.9;;;;;;;;;;;;;;;;;-31.430248;70.69613;-58.99991;;647.6
806.0;703.9;;;;;;;;;;;;;;1.218482;-0.006225776;-0.7494736;;;;;647.6
806.0;703.9;;;;;;;;;;;;;;;;;-19.047365;67.31239;-58.729057;;657.2
806.0;703.9;;;;;;;;;;;;;;1.168981;0.10614338;-0.73445845;;;;;657.2
806.0;703.9;;;;;;;;;;;;;;;;;-8.335368;54.54421;-59.141056;;657.2
806.0;703.9;;;;;;;;;;;;;;1.2015138;0.25360882;-0.78737754;;;;;657.2
865.0;755.5;;;;;;;;;;;;;;;;;-4.0437026;45.81591;-58.1225;;666.7
865.0;755.5;;;;;;;;;;;;;;1.3192542;0.33436078;-0.8200934;;;;;666.7
865.0;755.5;;;;;;;;;;;;;;;;;-6.6263313;47.29606;-55.65813;;666.7
865.0;755.5;;;;;;;;;;;;;;1.4116031;0.3197119;-0.7275002;;;;;666.7
865.0;755.5;;;;;;;;;;;;;;;;;-10.429701;48.54732;-53.449356;;676.2
865.0;755.5;;;;;;;;;;;;;;1.4455397;0.3065279;-0.588641;;;;;676.2
865.0;755.5;;;;;;;;;;;;;;;;;-14.812922;43.50795;-49.7528;;676.2
865.0;755.5;;;;;;;;;;;;;;1.41966;0.2924894;-0.5261391;;;;;676.2
865.0;755.5;;;;;;;;;;;;;;;;;-18.292032;37.65221;-45.18265;;685.8
865.0;755.5;;;;;;;;;;;;;;1.3504441;0.2858974;-0.49372846;;;;;685.8
865.0;755.5;;;;;;;;;;;;;;;;;-20.45503;34.57747;-39.6321;;685.8
865.0;755.5;;;;;;;;;;;;;;1.236427;0.26367992;-0.44343394;;;;;685.8
865.0;762.9;;;;;;;;;;;;;;;;;-20.60381;30.991547;-34.01288;;695.5
865.0;762.9;;;;;;;;;;;;;;1.1297342;0.2738731;-0.36689353;;;;;695.5
865.0;762.9;;;;;;;;;;;;;;;;;-20.119328;24.292734;-28.180029;;695.5
865.0;762.9;;;;;;;;;;;;;;1.042024;0.30927458;-0.32209235;;;;;695.5
865.0;762.9;;;;;;;;;;;;;;;;;-19.650105;17.132328;-21.92755;;705.1
865.0;762.9;;;;;;;;;;;;;;0.976043;0.31684315;-0.29053622;;;;;705.1
865.0;762.9;;;;;;;;;;;;;;;;;-19.119846;10.44496;-15.007477;;705.1
865.0;762.9;;;;;;;;;;;;;;0.9324625;0.30909148;-0.25812554;;;;;705.1
865.0;762.9;;;;;;;;;;;;;;;;;-18.787958;6.122776;-8.58333;;714.7
865.0;762.9;;;;;;;;;;;;;;0.89272743;0.2941374;-0.22089297;;;;;714.7
865.0;762.9;;;;;;;;;;;;;;;;;-18.921476;3.3417768;-2.5749993;;714.7
865.0;762.9;;;;;;;;;;;;;;0.85580003;0.27216408;-0.18390454;;;;;714.7
925.0;815.7;;;;;;;;;;;;;;;;;-19.024477;1.3389996;3.2883694;;724.3
925.0;815.7;;;;;;;;;;;;;;0.81893367;0.25495163;-0.15936765;;;;;724.3
925.0;815.7;;;;;;;;;;;;;;;;;-18.700216;-0.15640736;8.510849;;724.3
925.0;815.7;;;;;;;;;;;;;;0.78853726;0.23780023;-0.13708915;;;;;724.3
925.0;815.7;;;;;;;;;;;;;;;;;-18.34544;-1.6479995;13.000885;;734.0
925.0;815.7;;;;;;;;;;;;;;0.7599109;0.21893978;-0.10168768;;;;;734.0
925.0;815.7;;;;;;;;;;;;;;;;;-18.200476;-4.39848;16.838589;;734.0
925.0;815.7;;;;;;;;;;;;;;0.7356182;0.18390454;-0.093142495;;;;;734.0
925.0;815.7;;;;;;;;;;;;;;;;;-16.010773;-7.1756644;18.669699;;743.6
925.0;815.7;;;;;;;;;;;;;;0.71340066;0.10467849;-0.14447463;;;;;743.6
925.0;815.7;;;;;;;;;;;;;;;;;-8.621479;-5.3788877;17.28492;;743.6
925.0;815.7;;;;;;;;;;;;;;0.70870084;0.011780145;-0.2365795;;;;;743.6
925.0;823.2;;;;;;;;;;;;;;;;;3.5325174;0.98803675;14.667959;;753.3
925.0;823.2;;;;;;;;;;;;;;0.68459123;-0.04565569;-0.2689291;;;;;753.3
925.0;823.2;;;;;;;;;;;;;;;;;17.288734;4.844814;12.340922;;753.3
925.0;823.2;;;;;;;;;;;;;;0.64442885;-0.09363079;-0.2920011;;;;;753.3
925.0;823.2;;;;;;;;;;;;;;;;;31.365398;4.20774;10.258034;;763.0
925.0;823.2;;;;;;;;;;;;;;0.62227243;-0.1175573;-0.30640584;;;;;763.0
925.0;823.2;;;;;;;;;;;;;;;;;43.984802;1.9150364;8.571886;;763.0
925.0;823.2;;;;;;;;;;;;;;0.66078675;-0.12903225;-0.31592762;;;;;763.0
925.0;823.2;;;;;;;;;;;;;;;;;54.330578;2.2278512;7.778405;;772.5
925.0;823.2;;;;;;;;;;;;;;0.7132786;-0.13391522;-0.31104466;;;;;772.5
925.0;823.2;;;;;;;;;;;;;;;;;62.0365;4.8142953;7.7936645;;772.5
925.0;823.2;;;;;;;;;;;;;;0.74257636;-0.14447463;-0.31153294;;;;;772.5
989.0;876.3;;;;;;;;;;;;;;;;;69.193085;7.7097383;7.930998;;782.2
989.0;876.3;;;;;;;;;;;;;;0.7626575;-0.15100558;-0.32142094;;;;;782.2
989.0;876.3;;;;;;;;;;;;;;;;;75.77364;9.403516;7.969146;;782.2
989.0;876.3;;;;;;;;;;;;;;0.78359324;-0.13293862;-0.32227546;;;;;782.2
989.0;876.3;;;;;;;;;;;;;;;;;80.35142;9.617146;7.843257;;791.8
989.0;876.3;;;;;;;;;;;;;;0.81191444;-0.09735405;-0.31696525;;;;;791.8
989.0;876.3;;;;;;;;;;;;;;;;;84.11283;9.895626;8.10648;;791.8
989.0;876.3;;;;;;;;;;;;;;0.82290107;-0.08581805;-0.3086642;;;;;791.8
989.0;876.3;;;;;;;;;;;;;;;;;87.65679;8.7397375;8.854182;;801.5
989.0;876.3;;;;;;;;;;;;;;0.8238777;-0.066286206;-0.31141087;;;;;801.5
989.0;876.3;;;;;;;;;;;;;;;;;91.32282;7.7059236;7.89285;;801.5
989.0;876.3;;;;;;;;;;;;;;0.791406;-0.053163245;-0.3259377;;;;;801.5
989.0;883.3;;;;;;;;;;;;;;;;;95.49623;6.8437757;5.4704432;;811.2
989.0;883.3;;;;;;;;;;;;;;0.7405011;-0.03460799;-0.32599872;;;;;811.2
989.0;883.3;;;;;;;;;;;;;;;;;99.10886;4.757073;4.3717766;;811.2
989.0;883.3;;;;;;;;;;;;;;0.7142552;-0.015930662;-0.33796197;;;;;811.2
989.0;883.3;;;;;;;;;;;;;;;;;100.802635;4.753258;5.0126653;;820.8
989.0;883.3;;;;;;;;;;;;;;0.6929533;-8.5451826E-4;-0.3386334;;;;;820.8
989.0;883.3;;;;;;;;;;;;;;;;;101.5923;6.6682944;6.477554;;820.8
989.0;883.3;;;;;;;;;;;;;;0.6097598;0.009521775;-0.3014008;;;;;820.8
989.0;883.3;;;;;;;;;;;;;;;;;104.36567;4.5243692;8.0835905;;830.4
989.0;883.3;;;;;;;;;;;;;;0.51258886;0.017517624;-0.32618183;;;;;830.4
989.0;883.3;;;;;;;;;;;;;;;;;110.942406;0.14496292;8.59859;;830.4
989.0;883.3;;;;;;;;;;;;;;0.43476668;0.04693747;-0.37165442;;;;;830.4
1045.0;936.1;;;;;;;;;;;;;;;;;119.61349;-6.1418505;7.7707753;;840.1
1045.0;936.1;;;;;;;;;;;;;;0.35883662;0.10449538;-0.41724905;;;;;840.1
1045.0;936.1;;;;;;;;;;;;;;;;;124.5117;-13.11533;6.4127016;;840.1
1045.0;936.1;;;;;;;;;;;;;;0.31232643;0.16528825;-0.435255;;;;;840.1
1045.0;936.1;;;;;;;;;;;;;;;;;124.988556;-19.116032;5.7031465;;849.6
1045.0;936.1;;;;;;;;;;;;;;0.2923673;0.22467726;-0.4365978;;;;;849.6
1045.0;936.1;;;;;;;;;;;;;;;;;124.988556;-23.674734;5.2529984;;849.6
1045.0;936.1;;;;;;;;;;;;;;0.30591753;0.27661976;-0.43360698;;;;;849.6
1045.0;936.1;;;;;;;;;;;;;;;;;124.96185;-25.219732;6.000702;;859.3
1045.0;936.1;;;;;;;;;;;;;;0.32624286;0.3108005;-0.42774743;;;;;859.3
1045.0;936.1;;;;;;;;;;;;;;;;;124.67956;-21.862698;6.8094425;;859.3
1045.0;936.1;;;;;;;;;;;;;;0.316599;0.35395366;-0.3996704;;;;;859.3
1045.0;936.9;;;;;;;;;;;;;;;;;123.63048;-16.79281;8.545182;;869.0
1045.0;936.9;;;;;;;;;;;;;;0.2941374;0.38044375;-0.3749504;;;;;869.0
1045.0;936.9;;;;;;;;;;;;;;;;;120.89144;-12.062441;10.86459;;869.0
1045.0;936.9;;;;;;;;;;;;;;0.2658162;0.39100313;-0.34662923;;;;;869.0
1045.0;936.9;;;;;;;;;;;;;;;;;117.58401;-9.605701;13.355663;;878.5
1045.0;936.9;;;;;;;;;;;;;;0.2553789;0.4076052;-0.32581562;;;;;878.5
1045.0;936.9;;;;;;;;;;;;;;;;;113.471634;-8.369701;16.277811;;878.5
1045.0;936.9;;;;;;;;;;;;;;0.25696585;0.44392225;-0.32258064;;;;;878.5
1045.0;936.9;;;;;;;;;;;;;;;;;108.12327;-6.618702;19.56618;;888.2
1045.0;936.9;;;;;;;;;;;;;;0.26966155;0.4898221;-0.30121768;;;;;888.2
1045.0;936.9;;;;;;;;;;;;;;;;;101.18411;-6.4127016;23.316141;;888.2
1045.0;936.9;;;;;;;;;;;;;;0.29755548;0.54158145;-0.30280465;;;;;888.2
1106.0;996.8;;;;;;;;;;;;;;;;;93.035675;-5.3827024;27.520065;;897.9
1106.0;996.8;;;;;;;;;;;;;;0.3505356;0.58107245;-0.29706717;;;;;897.9
1106.0;996.8;;;;;;;;;;;;;;;;;85.1085;-3.1434064;31.479843;;897.9
1106.0;996.8;;;;;;;;;;;;;;0.38508254;0.60353404;-0.30201116;;;;;897.9
1106.0;996.8;;;;;;;;;;;;;;;;;77.887054;-1.0986663;35.199284;;907.5
1106.0;996.8;;;;;;;;;;;;;;0.40217292;0.61574143;-0.31220436;;;;;907.5
1106.0;996.8;;;;;;;;;;;;;;;;;71.16153;-0.2822962;38.62499;;907.5
1106.0;996.8;;;;;;;;;;;;;;0.42304757;0.61989194;-0.3350322;;;;;907.5
1106.0;996.8;;;;;;;;;;;;;;;;;64.47035;0.07248146;41.547134;;917.0
1106.0;996.8;;;;;;;;;;;;;;0.45649585;0.626545;-0.380871;;;;;917.0
1106.0;996.8;;;;;;;;;;;;;;;;;57.771538;1.8158513;44.1641;;917.0
1106.0;996.8;;;;;;;;;;;;;;0.44288462;0.61091954;-0.4219489;;;;;917.0
1106.0;997.4;;;;;;;;;;;;;;;;;51.080353;3.4218879;45.960876;;926.7
1106.0;997.4;;;;;;;;;;;;;;0.44117558;0.59828484;-0.47126684;;;;;926.7
1106.0;997.4;;;;;;;;;;;;;;;;;44.2938;5.779443;46.727654;;926.7
1106.0;997.4;;;;;;;;;;;;;;0.42890713;0.5568407;-0.5152135;;;;;926.7
1106.0;997.4;;;;;;;;;;;;;;;;;37.675102;8.526108;46.742912;;936.4
1106.0;997.4;;;;;;;;;;;;;;0.41694388;0.5330363;-0.5354167;;;;;936.4
1106.0;997.4;;;;;;;;;;;;;;;;;31.449326;10.189367;46.094395;;936.4
1106.0;997.4;;;;;;;;;;;;;;0.43153173;0.4893948;-0.57502973;;;;;936.4
1106.0;997.4;;;;;;;;;;;;;;;;;27.233955;13.874477;44.606613;;945.9
1106.0;997.4;;;;;;;;;;;;;;0.42628255;0.4504532;-0.59956664;;;;;945.9
1106.0;997.4;;;;;;;;;;;;;;;;;23.903624;17.70455;42.775505;;945.9
1106.0;997.4;;;;;;;;;;;;;;0.43531603;0.47212133;-0.5963927;;;;;945.9
1165.0;1056.5;;;;;;;;;;;;;;;;;21.393476;19.87518;41.05121;;955.5
1165.0;1056.5;;;;;;;;;;;;;;0.41901913;0.45631275;-0.5897397;;;;;955.5
1165.0;1056.5;;;;;;;;;;;;;;;;;20.496994;18.704031;39.26969;;955.5
1165.0;1056.5;;;;;;;;;;;;;;0.42170477;0.4822535;-0.58626056;;;;;955.5
1165.0;1056.5;;;;;;;;;;;;;;;;;20.020142;15.95355;38.022247;;965.2
1165.0;1056.5;;;;;;;;;;;;;;0.42915127;0.48060548;-0.5835139;;;;;965.2
1165.0;1056.5;;;;;;;;;;;;;;;;;20.096437;12.245552;36.481064;;965.2
1165.0;1056.5;;;;;;;;;;;;;;0.45106357;0.49439985;-0.56807154;;;;;965.2
1165.0;1056.5;;;;;;;;;;;;;;;;;19.829401;8.2819605;35.176395;;974.8
1165.0;1056.5;;;;;;;;;;;;;;0.4860378;0.52424693;-0.53889585;;;;;974.8
1165.0;1056.5;;;;;;;;;;;;;;;;;18.944365;2.929777;34.43632;;974.8
1165.0;1056.5;;;;;;;;;;;;;;0.5168615;0.537553;-0.52900785;;;;;974.8
1165.0;1057.3;;;;;;;;;;;;;;;;;16.888182;-1.6212958;33.66192;;984.4
1165.0;1057.3;;;;;;;;;;;;;;0.58064514;0.5645924;-0.4713889;;;;;984.4
1165.0;1057.3;;;;;;;;;;;;;;;;;13.294626;-2.9793696;32.956177;;984.4
1165.0;1057.3;;;;;;;;;;;;;;0.6202582;0.6115299;-0.40144047;;;;;984.4
1165.0;1057.3;;;;;;;;;;;;;;;;;9.292887;-4.1772213;32.273323;;994.1
1165.0;1057.3;;;;;;;;;;;;;;0.649556;0.6505936;-0.34797204;;;;;994.1
1165.0;1057.3;;;;;;;;;;;;;;;;;6.2944427;-5.9091463;31.254768;;994.1
1165.0;1057.3;;;;;;;;;;;;;;0.7348857;0.69179356;-0.33545947;;;;;994.1
1165.0;1057.3;;;;;;;;;;;;;;;;;4.9401836;-2.906888;29.725029;;1003.8
1165.0;1057.3;;;;;;;;;;;;;;0.8184454;0.7152318;-0.2694174;;;;;1003.8
1165.0;1057.3;;;;;;;;;;;;;;;;;5.664998;1.5259255;27.283548;;1003.8
1165.0;1057.3;;;;;;;;;;;;;;0.84737694;0.71846676;-0.17749566;;;;;1003.8
1169.0;1116.6;;;;;;;;;;;;;;;;;9.159368;2.2927032;24.17066;;1013.3
1169.0;1116.6;;;;;;;;;;;;;;0.85384685;0.6927702;-0.14056826;;;;;1013.3
1169.0;1116.6;;;;;;;;;;;;;;;;;13.500626;0.10299997;19.428846;;1013.3
1169.0;1116.6;;;;;;;;;;;;;;0.8386486;0.7093722;-0.1551561;;;;;1013.3
1169.0;1116.6;;;;;;;;;;;;;;;;;17.597734;-3.1128879;13.63033;;1022.9
1169.0;1116.6;;;;;;;;;;;;;;0.8040407;0.7098605;-0.18378246;;;;;1022.9
1169.0;1116.6;;;;;;;;;;;;;;;;;23.503067;-8.949553;7.89285;;1022.9
1169.0;1116.6;;;;;;;;;;;;;;0.77840513;0.69734794;-0.24890897;;;;;1022.9
1169.0;1116.6;;;;;;;;;;;;;;;;;30.449842;-15.861996;2.3232217;;1032.4
1169.0;1116.6;;;;;;;;;;;;;;0.811243;0.6605426;-0.34827724;;;;;1032.4
1169.0;1116.6;;;;;;;;;;;;;;;;;38.247322;-16.70507;-3.051851;;1032.4
1169.0;1116.6;;;;;;;;;;;;;;0.789819;0.6045717;-0.34131902;;;;;1032.4
1169.0;1117.8;;;;;;;;;;;;;;;;;46.136356;-18.410292;-8.987701;;1042.1
1169.0;1117.8;;;;;;;;;;;;;;0.8067873;0.5572069;-0.3501694;;;;;1042.1
1169.0;1117.8;;;;;;;;;;;;;;;;;51.47328;-18.803217;-13.302256;;1042.1
1169.0;1117.8;;;;;;;;;;;;;;1.019013;0.48847926;-0.3965575;;;;;1042.1
1169.0;1117.8;;;;;;;;;;;;;;;;;56.35243;-14.091922;-14.839625;;1051.7
1169.0;1117.8;;;;;;;;;;;;;;1.2441787;0.40754417;-0.48420668;;;;;1051.7
1169.0;1117.8;;;;;;;;;;;;;;;;;66.06876;-0.63325906;-16.8157;;1051.7
1169.0;1117.8;;;;;;;;;;;;;;1.3694266;0.4054689;-0.5635548;;;;;1051.7
1169.0;1117.8;;;;;;;;;;;;;;;;;80.79394;19.63866;-21.217995;;1061.4
1169.0;1117.8;;;;;;;;;;;;;;1.3957945;0.54237497;-0.547441;;;;;1061.4
1169.0;1117.8;;;;;;;;;;;;;;;;;95.57634;37.995544;-26.326029;;1061.4
1169.0;1117.8;;;;;;;;;;;;;;1.4733115;0.67555773;-0.46784875;;;;;1061.4
1226.0;1126.7;;;;0.0;0.0;0.0;;;;;;;;;;;;;;;
1226.0;1126.7;;;;-0.21534732;0.07509614;-0.36563113;;;;;;;;;;;;;;;
1226.0;1126.7;;;;-0.64059836;0.17229845;-1.1576577;;;;;;;;;;;;;;;
1226.0;1126.7;;;;-0.65909964;0.18050386;-1.1910096;;;;;;;;;;;;;;;
1226.0;1126.7;;;;-0.6616097;0.18887714;-1.1898576;;;;;;;;;;;;;;;
1226.0;1136.7;;;;-0.6628991;0.19639972;-1.1886903;;;;;;;;;;;;;;;
1226.0;1136.7;;;;-0.66242224;0.2013245;-1.1856042;;;;;;;;;;;;;;;
1226.0;1136.7;;;;-0.660904;0.20560077;-1.1827546;;;;;;;;;;;;;;;
1226.0;1136.7;;;;-0.6587029;0.20907977;-1.1787034;;;;;;;;;;;;;;;
1226.0;1136.7;;;;-0.6560784;0.21052173;-1.173874;;;;;;;;;;;;;;;
1226.0;1137.9;57547;57435;14728;;;;;;;;;;;;;;;;;;
1226.0;1146.7;;;;-0.65256506;0.21018603;-1.1685296;;;;;;;;;;;;;;;
1226.0;1146.7;;;;-0.64866644;0.20818713;-1.1647187;;;;;;;;;;;;;;;
1226.0;1146.7;;;;-0.6455422;0.20468524;-1.1627618;;;;;;;;;;;;;;;
1226.0;1146.7;;;;-0.6442719;0.20066074;-1.1629258;;;;;;;;;;;;;;;
1226.0;1146.7;;;;-0.64488226;0.19709018;-1.1645242;;;;;;;;;;;;;;;
1228.0;1156.7;;;;-0.64648825;0.19387057;-1.1686784;;;;;;;;;;;;;;;
1228.0;1156.7;;;;-0.64968497;0.18966678;-1.1745454;;;;;;;;;;;;;;;
1228.0;1156.7;;;;-0.65349203;0.1845894;-1.1827279;;;;;;;;;;;;;;;
1228.0;1156.7;;;;-0.6578751;0.17856981;-1.1906472;;;;;;;;;;;;;;;
1228.0;1156.7;;;;-0.6624146;0.17164613;-1.1990052;;;;;;;;;;;;;;;
1228.0;1158.0;73832;73881;14719;;;;;;;;;;;;;;;;;;
1228.0;1164.4;;;;;;;;;;;;;0;;;;;;;;
1228.0;1164.4;;;;;;;;;;;;;0;;;;;;;;
1228.0;1164.4;;;;;;;;;;;;;-1;;;;;;;;
1228.0;1164.4;;;;;;;;;;;;;-2;;;;;;;;
1228.0;1164.4;;;;;;;;;;;;;-3;;;;;;;;
1228.0;1166.8;;;;-0.6666222;0.1643181;-1.2075425;;;;;;;;;;;;;;;
1228.0;1166.8;;;;-0.6720925;0.15737154;-1.2161103;;;;;;;;;;;;;;;
1228.0;1166.8;;;;-0.67996985;0.15159608;-1.2241632;;;;;;;;;;;;;;;
1228.0;1166.8;;;;-0.690239;0.14618303;-1.2324716;;;;;;;;;;;;;;;
1228.0;1166.8;;;;-0.7009545;0.14201356;-1.2399408;;;;;;;;;;;;;;;
1229.0;1176.9;;;;;;;;;;;;;;;;;104.682304;53.55617;-32.35725;;1071.1
1229.0;1176.9;;;;;;;;;;;;;;1.3798028;0.64644307;-0.4570452;;;;;1071.1
1229.0;1176.9;;;;;;;;;;;;;;;;;118.621635;34.470654;-41.032135;;1071.1
1229.0;1176.9;;;;;;;;;;;;;;0.90676594;0.6367992;-0.8263802;;;;;1071.1
1229.0;1176.9;;;;;;;;;;;;;;;;;124.946594;-31.40736;-46.143986;;1080.7
1229.0;1176.9;;;;;;;;;;;;;;0.49897763;0.70973843;-1.421308;;;;;1080.7
1229.0;1176.9;;;;;;;;;;;;;;;;;124.988556;-102.195045;-43.946655;;1080.7
1229.0;1176.9;;;;;;;;;;;;;;0.5591601;0.6977752;-1.6489761;;;;;1080.7
1229.0;1176.9;;;;;;;;;;;;;;;;;124.81689;-124.76348;-39.567245;;1090.3
1229.0;1176.9;;;;;;;;;;;;;;0.95437485;0.633137;-1.4269844;;;;;1090.3
1229.0;1176.9;;;;;;;;;;;;;;;;;103.2403;-124.90845;-21.752068;;1090.3
1229.0;1176.9;;;;;;;;;;;;;;1.3673513;0.26911223;-1.0703452;;;;;1090.3
1229.0;1176.8;;;;-0.7099305;0.13834764;-1.2485429;;;;;;;;;;;;;;;
1229.0;1176.8;;;;-0.7168351;0.13551332;-1.258999;;;;;;;;;;;;;;;
1229.0;1176.8;;;;-0.722477;0.13425066;-1.2706567;;;;;;;;;;;;;;;
1229.0;1176.8;;;;-0.7273064;0.13436128;-1.2830392;;;;;;;;;;;;;;;
1229.0;1176.8;;;;-0.7330323;0.13633348;-1.2988816;;;;;;;;;;;;;;;
1230.0;1177.6;;;;;;;;;;;;;;;;;25.498215;-108.80994;3.7499619;;1099.9
1230.0;1177.6;;;;;;;;;;;;;;1.7243568;-0.16266365;-0.7036958;;;;;1099.9
1230.0;1177.6;;;;;;;;;;;;;;;;;-46.956543;-55.238503;18.379772;;1099.9
1230.0;1177.6;;;;;;;;;;;;;;1.8908048;-0.7048555;-0.11224708;;;;;1099.9
1230.0;1177.6;;;;;;;;;;;;;;;;;-60.419018;3.0709252;13.763847;;1109.6
1230.0;1177.6;;;;;;;;;;;;;;1.9723502;-0.7655263;0.72359383;;;;;1109.6
1230.0;1177.6;;;;;;;;;;;;;;;;;-37.25547;24.609364;12.215034;;1109.6
1230.0;1177.6;;;;;;;;;;;;;;1.5435652;-0.6103091;0.74404126;;;;;1109.6
1230.0;1177.6;;;;;;;;;;;;;;;;;-9.346293;-8.098849;11.360515;;1119.2
1230.0;1177.6;;;;;;;;;;;;;;1.1149021;-0.41199988;-0.28278452;;;;;1119.2
1230.0;1177.6;;;;;;;;;;;;;;;;;13.721885;-44.263283;8.320109;;1119.2
1230.0;1177.6;;;;;;;;;;;;;;1.0126041;-0.032105472;-1.233192;;;;;1119.2
1230.0;1178.0;90148;90316;14711;;;;;;;;;;;;;;;;;;
1230.0;1186.8;;;;-0.7407952;0.13995744;-1.3146707;;;;;;;;;;;;;;;
1230.0;1186.8;;;;-0.74789435;0.14401247;-1.3342096;;;;;;;;;;;;;;;
1230.0;1186.8;;;;-0.7533227;0.14776231;-1.3562738;;;;;;;;;;;;;;;
1230.0;1186.8;;;;-0.75535595;0.14992906;-1.3788835;;;;;;;;;;;;;;;
1230.0;1186.8;;;;-0.75387967;0.15088655;-1.4003793;;;;;;;;;;;;;;;
1230.0;1196.8;;;;-0.75016797;0.15138246;-1.4185792;;;;;;;;;;;;;;;
1230.0;1196.8;;;;-0.74729925;0.15335847;-1.4336091;;;;;;;;;;;;;;;
1230.0;1196.8;;;;-0.74856573;0.15861894;-1.4486352;;;;;;;;;;;;;;;
1230.0;1196.8;;;;-0.7510301;0.16626741;-1.4613382;;;;;;;;;;;;;;;
1230.0;1196.8;;;;-0.7546617;0.17306902;-1.4739496;;;;;;;;;;;;;;;
1287.0;1198.1;106650;106766;14704;;;;;;;;;;;;;;;;;;
1287.0;1204.4;;;;;;;;;;;;;-6;;;;;;;;
1287.0;1204.4;;;;;;;;;;;;;-6;;;;;;;;
1287.0;1204.4;;;;;;;;;;;;;-10;;;;;;;;
1287.0;1204.4;;;;;;;;;;;;;-13;;;;;;;;
1287.0;1204.4;;;;;;;;;;;;;-12;;;;;;;;
1287.0;1206.6;;;;-0.75610363;0.1789818;-1.4855615;;;;;;;;;;;;;;;
1287.0;1206.6;;;;-0.7558595;0.18408968;-1.4976617;;;;;;;;;;;;;;;
1287.0;1206.6;;;;-0.75423443;0.18799213;-1.5089724;;;;;;;;;;;;;;;
1287.0;1206.6;;;;-0.7510606;0.1898537;-1.5203631;;;;;;;;;;;;;;;
1287.0;1206.6;;;;-0.7468987;0.19029239;-1.5303996;;;;;;;;;;;;;;;
1287.0;1216.6;;;;-0.7425881;0.1910477;-1.5370829;;;;;;;;;;;;;;;
1287.0;1216.6;;;;-0.74314886;0.19389728;-1.5391772;;;;;;;;;;;;;;;
1287.0;1216.6;;;;-0.74449164;0.19801715;-1.5345843;;;;;;;;;;;;;;;
1287.0;1216.6;;;;-0.74434286;0.20242313;-1.5276988;;;;;;;;;;;;;;;
1287.0;1216.6;;;;-0.74187857;0.20769885;-1.5210612;;;;;;;;;;;;;;;
1287.0;1218.0;123026;122978;14696;;;;;;;;;;;;;;;;;;
1287.0;1226.7;;;;-0.73629767;0.21463016;-1.5149577;;;;;;;;;;;;;;;
1287.0;1226.7;;;;-0.7278176;0.22404101;-1.5084956;;;;;;;;;;;;;;;
1287.0;1226.7;;;;-0.71719366;0.23474124;-1.50124;;;;;;;;;;;;;;;
1287.0;1226.7;;;;-0.7039414;0.24592212;-1.4948922;;;;;;;;;;;;;;;
1287.0;1226.7;;;;-0.6928864;0.2571831;-1.4889222;;;;;;;;;;;;;;;
1289.0;1236.9;;;;;;;;;;;;;;;;;17.944883;-40.83758;10.95996;;1128.8
1289.0;1236.9;;;;;;;;;;;;;;1.1142918;0.07361065;-1.1624501;;;;;1128.8
1289.0;1236.9;;;;;;;;;;;;;;;;;26.299326;-35.397655;13.649404;;1128.8
1289.0;1236.9;;;;;;;;;;;;;;1.0846889;0.10901212;-0.79134494;;;;;1128.8
1289.0;1236.9;;;;;;;;;;;;;;;;;36.870174;-44.07636;12.058626;;1138.4
1289.0;1236.9;;;;;;;;;;;;;;1.2231818;0.15570544;-0.79744864;;;;;1138.4
1289.0;1236.9;;;;;;;;;;;;;;;;;48.795284;-42.142246;9.399701;;1138.4
1289.0;1236.9;;;;;;;;;;;;;;1.2682883;0.093264565;-0.82595295;;;;;1138.4
1289.0;1236.9;;;;;;;;;;;;;;;;;62.45613;-49.039433;5.8862576;;1148.1
1289.0;1236.9;;;;;;;;;;;;;;1.3094271;0.08453627;-1.0455642;;;;;1148.1
1289.0;1236.9;;;;;;;;;;;;;;;;;70.18494;-57.473984;3.7232583;;1148.1
1289.0;1236.9;;;;;;;;;;;;;;1.4465773;0.16229743;-1.2598652;;;;;1148.1
1289.0;1236.7;;;;-0.6841622;0.26770023;-1.4824487;;;;;;;;;;;;;;;
1289.0;1236.7;;;;-0.67576605;0.2778702;-1.4763643;;;;;;;;;;;;;;;
1289.0;1236.7;;;;-0.66844183;0.2876511;-1.4698793;;;;;;;;;;;;;;;
1289.0;1236.7;;;;-0.66473013;0.29626468;-1.4610063;;;;;;;;;;;;;;;
1289.0;1236.7;;;;-0.6609383;0.30235675;-1.4520532;;;;;;;;;;;;;;;
1290.0;1238.0;;;;;;;;;;;;;;;;;69.81109;-51.461838;3.0251474;;1157.7
1290.0;1238.0;;;;;;;;;;;;;;1.5899533;0.35444197;-1.2884305;;;;;1157.7
1290.0;1238.0;;;;;;;;;;;;;;;;;61.05609;-34.073914;3.4409618;;1157.7
1290.0;1238.0;;;;;;;;;;;;;;1.5258034;0.57997376;-1.1717887;;;;;1157.7
1290.0;1238.0;;;;;;;;;;;;;;;;;47.20832;-21.897032;3.7194436;;1167.3
1290.0;1238.0;;;;;;;;;;;;;;1.3634449;0.71449935;-1.0417799;;;;;1167.3
1290.0;1238.0;;;;;;;;;;;;;;;;;35.85162;-20.077364;1.7586291;;1167.3
1290.0;1238.0;;;;;;;;;;;;;;1.2000488;0.83010346;-0.9983215;;;;;1167.3
1290.0;1238.0;;;;;;;;;;;;;;;;;21.893217;-21.439253;-0.5798517;;1177.0
1290.0;1238.0;;;;;;;;;;;;;;1.0367748;0.9709769;-1.0417799;;;;;1177.0
1290.0;1238.0;;;;;;;;;;;;;;;;;3.7232583;-20.142216;0.3852962;;1177.0
1290.0;1238.0;;;;;;;;;;;;;;0.87209696;1.0168767;-1.0572833;;;;;1177.0
1290.0;1238.0;139412;139319;14701;;;;;;;;;;;;;;;;;;
1290.0;1244.4;;;;;;;;;;;;;-18;;;;;;;;
1290.0;1244.4;;;;;;;;;;;;;-16;;;;;;;;
1290.0;1244.4;;;;;;;;;;;;;-17;;;;;;;;
1290.0;1244.4;;;;;;;;;;;;;-37;;;;;;;;
1290.0;1244.4;;;;;;;;;;;;;2;;;;;;;;
1290.0;1246.6;;;;-0.65620047;0.30689624;-1.4425203;;;;;;;;;;;;;;;
1290.0;1246.6;;;;-0.6512452;0.31038287;-1.4332544;;;;;;;;;;;;;;;
1290.0;1246.6;;;;-0.6453133;0.31414798;-1.4220468;;;;;;;;;;;;;;;
1290.0;1246.6;;;;-0.63828284;0.31739047;-1.4091645;;;;;;;;;;;;;;;
1290.0;1246.6;;;;-0.6312638;0.32094577;-1.3966829;;;;;;;;;;;;;;;
1345.0;1256.6;;;;-0.6228371;0.32407;-1.3837434;;;;;;;;;;;;;;;
1345.0;1256.6;;;;-0.6145478;0.32753375;-1.3702432;;;;;;;;;;;;;;;
1345.0;1256.6;;;;-0.6096726;0.33144763;-1.3569375;;;;;;;;;;;;;;;
1345.0;1256.6;;;;-0.6058884;0.33648303;-1.3423234;;;;;;;;;;;;;;;
1345.0;1256.6;;;;-0.60361105;0.3417931;-1.3269044;;;;;;;;;;;;;;;
1345.0;1258.1;155863;155790;14694;;;;;;;;;;;;;;;;;;
1345.0;1266.7;;;;-0.6004029;0.34711078;-1.3113557;;;;;;;;;;;;;;;
1345.0;1266.7;;;;-0.5969468;0.35140994;-1.2955629;;;;;;;;;;;;;;;
1345.0;1266.7;;;;-0.59289557;0.35554507;-1.2788354;;;;;;;;;;;;;;;
1345.0;1266.7;;;;-0.5882073;0.35865024;-1.2625428;;;;;;;;;;;;;;;
1345.0;1266.7;;;;-0.5835648;0.36098102;-1.2466699;;;;;;;;;;;;;;;
1345.0;1276.6;;;;-0.5798035;0.36210635;-1.232773;;;;;;;;;;;;;;;
1345.0;1276.6;;;;-0.5762482;0.36272052;-1.2178613;;;;;;;;;;;;;;;
1345.0;1276.6;;;;-0.57279974;0.3621445;-1.2039071;;;;;;;;;;;;;;;
1345.0;1276.6;;;;-0.5694352;0.360817;-1.1889421;;;;;;;;;;;;;;;
1345.0;1276.6;;;;-0.566124;0.3589745;-1.175171;;;;;;;;;;;;;;;
1345.0;1278.2;172187;172167;14697;;;;;;;;;;;;;;;;;;
1345.0;1284.6;;;;;;;;;;;;;0;;;;;;;;
1345.0;1284.6;;;;;;;;;;;;;-91;;;;;;;;
1345.0;1284.6;;;;;;;;;;;;;-81;;;;;;;;
1345.0;1284.6;;;;;;;;;;;;;128;;;;;;;;
1345.0;1284.6;;;;;;;;;;;;;394;;;;;;;;
1348.0;1286.7;;;;-0.5632859;0.35589603;-1.1611406;;;;;;;;;;;;;;;
1348.0;1286.7;;;;-0.5597001;0.35305408;-1.1472169;;;;;;;;;;;;;;;
1348.0;1286.7;;;;-0.555069;0.34922412;-1.1336328;;;;;;;;;;;;;;;
1348.0;1286.7;;;;-0.5516358;0.34621814;-1.1208383;;;;;;;;;;;;;;;
1348.0;1286.7;;;;-0.54908377;0.34357074;-1.1090013;;;;;;;;;;;;;;;
1348.0;1296.8;;;;-0.5468522;0.34030536;-1.0989801;;;;;;;;;;;;;;;
1348.0;1296.8;;;;-0.5450936;0.33657077;-1.0886384;;;;;;;;;;;;;;;
1348.0;1296.8;;;;-0.5451737;0.33313373;-1.0779;;;;;;;;;;;;;;;
1348.0;1296.8;;;;-0.54533774;0.3288193;-1.0669137;;;;;;;;;;;;;;;
1348.0;1296.8;;;;-0.5474282;0.32439044;-1.0541764;;;;;;;;;;;;;;;
1348.0;1297.1;;;;;;;;;;;;;;;;;-17.456587;-17.464216;5.22248;;1186.6
1348.0;1297.1;;;;;;;;;;;;;;0.7483749;1.0644245;-1.022126;;;;;1186.6
1348.0;1297.1;;;;;;;;;;;;;;;;;-39.601578;-11.135441;10.731071;;1186.6
1348.0;1297.1;;;;;;;;;;;;;;0.6593219;1.0530717;-0.8712424;;;;;1186.6
1348.0;1297.1;;;;;;;;;;;;;;;;;-55.433056;-8.732108;16.384624;;1196.3
1348.0;1297.1;;;;;;;;;;;;;;0.6698813;0.8937651;-0.7251808;;;;;1196.3
1348.0;1297.1;;;;;;;;;;;;;;;;;-62.997833;-0.8964812;19.886623;;1196.3
1348.0;1297.1;;;;;;;;;;;;;;0.7437971;0.6403394;-0.5771661;;;;;1196.3
1348.0;1297.1;;;;;;;;;;;;;;;;;-61.372723;-6.183813;20.138401;;1205.9
1348.0;1297.1;;;;;;;;;;;;;;0.74202704;0.3836787;-0.6947844;;;;;1205.9
1348.0;1297.1;;;;;;;;;;;;;;;;;-59.37376;-11.780145;20.340586;;1205.9
1348.0;1297.1;;;;;;;;;;;;;;0.842555;0.09576708;-0.8579363;;;;;1205.9
1349.0;1297.8;;;;;;;;;;;;;;;;;-59.362316;-12.134923;20.851772;;1215.6
1349.0;1297.8;;;;;;;;;;;;;;0.97054964;-0.07727287;-0.88430434;;;;;1215.6
1349.0;1297.8;;;;;;;;;;;;;;;;;-62.719353;-6.572924;23.739586;;1215.6
1349.0;1297.8;;;;;;;;;;;;;;1.0462966;-0.38752404;-0.7721183;;;;;1215.6
1349.0;1297.8;;;;;;;;;;;;;;;;;-68.95275;3.3913696;22.534103;;1225.2
1349.0;1297.8;;;;;;;;;;;;;;1.0776086;-0.501175;-0.6283151;;;;;1225.2
1349.0;1297.8;;;;;;;;;;;;;;;;;-70.8182;5.939665;23.54503;;1225.2
1349.0;1297.8;;;;;;;;;;;;;;1.0541704;-0.583636;-0.62825406;;;;;1225.2
1349.0;1297.8;;;;;;;;;;;;;;;;;-63.726463;3.0213325;22.576067;;1234.9
1349.0;1297.8;;;;;;;;;;;;;;0.95437485;-0.54994357;-0.7826777;;;;;1234.9
1349.0;1297.8;;;;;;;;;;;;;;;;;-50.065613;1.842555;18.53618;;1234.9
1349.0;1297.8;;;;;;;;;;;;;;0.7763909;-0.6270333;-0.92104864;;;;;1234.9
1349.0;1298.3;188716;188567;14695;;;;;;;;;;;;;;;;;;
1349.0;1306.7;;;;-0.5556565;0.3222275;-1.0324365;;;;;;;;;;;;;;;
1349.0;1306.7;;;;-0.5614434;0.31941226;-1.0023576;;;;;;;;;;;;;;;
1349.0;1306.7;;;;-0.5580979;0.31118777;-0.9917718;;;;;;;;;;;;;;;
1349.0;1306.7;;;;-0.5442849;0.29813007;-0.99874127;;;;;;;;;;;;;;;
1349.0;1306.7;;;;-0.52564627;0.28888324;-1.0064126;;;;;;;;;;;;;;;
1350.0;1312.0;;;;;;;;;;;;;;;;;-28.630177;1.7166661;9.617146;;1244.6
1350.0;1312.0;;;;;;;;;;;;;;0.6685995;-0.6052431;-0.948088;;;;;1244.6
1350.0;1312.0;;;;;;;;;;;;;;;;;-8.232368;-0.2822962;-0.65233314;;1244.6
1350.0;1312.0;;;;;;;;;;;;;;0.6184271;-0.52803123;-0.9341105;;;;;1244.6
1350.0;1312.0;;;;;;;;;;;;;;;;;8.625294;-1.5678884;-8.663442;;1254.1
1350.0;1312.0;;;;;;;;;;;;;;0.6089053;-0.47151098;-0.8932157;;;;;1254.1
1350.0;1312.0;;;;;;;;;;;;;;;;;21.481216;-1.6098514;-14.416181;;1254.1
1350.0;1312.0;;;;;;;;;;;;;;0.6247139;-0.5287027;-0.8471328;;;;;1254.1
1350.0;1312.0;;;;;;;;;;;;;;;;;30.991547;3.3417768;-20.699179;;1263.7
1350.0;1312.0;;;;;;;;;;;;;;0.64278084;-0.56697285;-0.7691275;;;;;1263.7
1350.0;1312.0;;;;;;;;;;;;;;;;;40.24247;8.957183;-26.982178;;1263.7
1350.0;1312.0;;;;;;;;;;;;;;0.6089053;-0.5383465;-0.68819237;;;;;1263.7
1350.0;1316.6;;;;-0.50757223;0.28535464;-1.0097123;;;;;;;;;;;;;;;
1350.0;1316.6;;;;-0.49245077;0.28448108;-1.010914;;;;;;;;;;;;;;;
1350.0;1316.6;;;;-0.48138815;0.28451923;-1.010029;;;;;;;;;;;;;;;
1350.0;1316.6;;;;-0.47603232;0.28407672;-1.005375;;;;;;;;;;;;;;;
1350.0;1316.6;;;;-0.4753762;0.283268;-0.9946023;;;;;;;;;;;;;;;
1350.0;1318.3;204936;204937;14692;;;;;;;;;;;;;;;;;;
1350.0;1324.5;;;;;;;;;;;;;402;;;;;;;;
1350.0;1324.5;;;;;;;;;;;;;79;;;;;;;;
1350.0;1324.5;;;;;;;;;;;;;-194;;;;;;;;
1350.0;1324.5;;;;;;;;;;;;;-107;;;;;;;;
1350.0;1324.5;;;;;;;;;;;;;200;;;;;;;;
1406.0;1326.5;;;;-0.4799767;0.28205493;-0.9815103;;;;;;;;;;;;;;;
1406.0;1326.5;;;;-0.48746496;0.27987292;-0.9710237;;;;;;;;;;;;;;;
1406.0;1326.5;;;;-0.49496466;0.27587512;-0.9633943;;;;;;;;;;;;;;;
1406.0;1326.5;;;;-0.50066;0.269455;-0.9581758;;;;;;;;;;;;;;;
1406.0;1326.5;;;;-0.5052071;0.26108935;-0.9519311;;;;;;;;;;;;;;;
1406.0;1336.4;;;;-0.50739294;0.2517586;-0.94485486;;;;;;;;;;;;;;;
1406.0;1336.4;;;;-0.5120354;0.24440768;-0.9372407;;;;;;;;;;;;;;;
1406.0;1336.4;;;;-0.5141526;0.23767093;-0.92556775;;;;;;;;;;;;;;;
1406.0;1336.4;;;;-0.5130158;0.23183826;-0.914013;;;;;;;;;;;;;;;
1406.0;1336.4;;;;-0.5138245;0.22946933;-0.90238965;;;;;;;;;;;;;;;
1406.0;1338.1;221310;221284;14690;;;;;;;;;;;;;;;;;;
1406.0;1346.5;;;;-0.5157395;0.22994998;-0.8925477;;;;;;;;;;;;;;;
1406.0;1346.5;;;;-0.51575094;0.23280719;-0.8841897;;;;;;;;;;;;;;;
1406.0;1346.5;;;;-0.5118409;0.23746493;-0.8764535;;;;;;;;;;;;;;;
1406.0;1346.5;;;;-0.5052796;0.24263766;-0.8679315;;;;;;;;;;;;;;;
1406.0;1346.5;;;;-0.49765784;0.2474213;-0.8616258;;;;;;;;;;;;;;;
1406.0;1356.6;;;;-0.48958212;0.2511368;-0.8554231;;;;;;;;;;;;;;;
1406.0;1356.6;;;;-0.48378378;0.25137332;-0.8500825;;;;;;;;;;;;;;;
1406.0;1356.6;;;;-0.47970587;0.24950412;-0.844082;;;;;;;;;;;;;;;
1406.0;1356.6;;;;-0.4775086;0.24551395;-0.8383714;;;;;;;;;;;;;;;
1406.0;1356.6;;;;-0.4785424;0.23891833;-0.833748;;;;;;;;;;;;;;;
1407.0;1357.0;;;;;;;;;;;;;;;;;49.76806;10.608997;-32.273323;;1273.4
1407.0;1357.0;;;;;;;;;;;;;;0.57039094;-0.51417583;-0.6502884;;;;;1273.4
1407.0;1357.0;;;;;;;;;;;;;;;;;57.51976;10.887479;-36.191135;;1273.4
1407.0;1357.0;;;;;;;;;;;;;;0.5762505;-0.438612;-0.6441847;;;;;1273.4
1407.0;1357.0;;;;;;;;;;;;;;;;;63.562424;11.169774;-37.957397;;1283.1
1407.0;1357.0;;;;;;;;;;;;;;0.61903745;-0.3505356;-0.6472365;;;;;1283.1
1407.0;1357.0;;;;;;;;;;;;;;;;;67.8312;11.104922;-37.99173;;1283.1
1407.0;1357.0;;;;;;;;;;;;;;0.70314646;-0.26142156;-0.6797693;;;;;1283.1
1407.0;1357.0;;;;;;;;;;;;;;;;;70.92883;13.046663;-37.015137;;1292.7
1407.0;1357.0;;;;;;;;;;;;;;0.7721793;-0.14447463;-0.70149845;;;;;1292.7
1407.0;1357.0;;;;;;;;;;;;;;;;;72.93924;15.099032;-34.939877;;1292.7
1407.0;1357.0;;;;;;;;;;;;;;0.8133793;-0.0336314;-0.7101047;;;;;1292.7
1407.0;1358.3;237722;237777;14693;;;;;;;;;;;;;;;;;;
1407.0;1364.6;;;;;;;;;;;;;234;;;;;;;;
1407.0;1364.6;;;;;;;;;;;;;-10;;;;;;;;
1407.0;1364.6;;;;;;;;;;;;;-150;;;;;;;;
1407.0;1364.6;;;;;;;;;;;;;-47;;;;;;;;
1407.0;1364.6;;;;;;;;;;;;;115;;;;;;;;
1407.0;1366.6;;;;-0.48031622;0.23196796;-0.826645;;;;;;;;;;;;;;;
1407.0;1366.6;;;;-0.4798928;0.22315219;-0.8193513;;;;;;;;;;;;;;;
1407.0;1366.6;;;;-0.4788819;0.2143555;-0.81300366;;;;;;;;;;;;;;;
1407.0;1366.6;;;;-0.4781037;0.2061272;-0.807377;;;;;;;;;;;;;;;
1407.0;1366.6;;;;-0.4772759;0.20000842;-0.7990457;;;;;;;;;;;;;;;
1465.0;1376.6;;;;-0.47584158;0.1945;-0.7938882;;;;;;;;;;;;;;;
1465.0;1376.6;;;;-0.47298056;0.19034961;-0.7868005;;;;;;;;;;;;;;;
1465.0;1376.6;;;;-0.47264868;0.18762973;-0.7772256;;;;;;;;;;;;;;;
1465.0;1376.6;;;;-0.47365957;0.18554308;-0.76736844;;;;;;;;;;;;;;;
1465.0;1376.6;;;;-0.47516257;0.18444444;-0.759472;;;;;;;;;;;;;;;
1465.0;1378.5;254088;254012;14697;;;;;;;;;;;;;;;;;;
1465.0;1386.7;;;;-0.4760514;0.18464662;-0.75161374;;;;;;;;;;;;;;;
1465.0;1386.7;;;;-0.47384268;0.18532182;-0.74620444;;;;;;;;;;;;;;;
1465.0;1386.7;;;;-0.46928412;0.18640138;-0.74200445;;;;;;;;;;;;;;;
1465.0;1386.7;;;;-0.4622956;0.18715288;-0.73938376;;;;;;;;;;;;;;;
1465.0;1386.7;;;;-0.4528008;0.18656923;-0.7373925;;;;;;;;;;;;;;;
1465.0;1396.8;;;;-0.4408074;0.18473054;-0.7375718;;;;;;;;;;;;;;;
1465.0;1396.8;;;;-0.43147665;0.18202592;-0.73826605;;;;;;;;;;;;;;;
1465.0;1396.8;;;;-0.42374808;0.17879869;-0.7389069;;;;;;;;;;;;;;;
1465.0;1396.8;;;;-0.41857153;0.17581941;-0.7405358;;;;;;;;;;;;;;;
1465.0;1396.8;;;;-0.41689688;0.17326356;-0.7420998;;;;;;;;;;;;;;;
1465.0;1398.7;262143;262143;14695;;;;;;;;;;;;;;;;;;
1465.0;1405.0;;;;;;;;;;;;;15;;;;;;;;
1465.0;1405.0;;;;;;;;;;;;;-152;;;;;;;;
1465.0;1405.0;;;;;;;;;;;;;-68;;;;;;;;
1465.0;1405.0;;;;;;;;;;;;;40;;;;;;;;
1465.0;1405.0;;;;;;;;;;;;;-100;;;;;;;;
1468.0;1406.9;;;;-0.41870505;0.17119218;-0.7435799;;;;;;;;;;;;;;;
1468.0;1406.9;;;;-0.42091757;0.16988374;-0.74325186;;;;;;;;;;;;;;;
1468.0;1406.9;;;;-0.42107397;0.16814806;-0.7428475;;;;;;;;;;;;;;;
1468.0;1406.9;;;;-0.42347723;0.16761018;-0.7422715;;;;;;;;;;;;;;;
1468.0;1406.9;;;;-0.4260102;0.16727068;-0.74184805;;;;;;;;;;;;;;;
1468.0;1416.9;;;;-0.42961127;0.16771318;-0.7409516;;;;;;;;;;;;;;;
1468.0;1416.9;;;;-0.43152243;0.1680031;-0.73984915;;;;;;;;;;;;;;;
1468.0;1416.9;;;;-0.43076712;0.16747667;-0.7413483;;;;;;;;;;;;;;;
1468.0;1416.9;;;;-0.42912298;0.16645433;-0.74304587;;;;;;;;;;;;;;;
1468.0;1416.9;;;;-0.42928702;0.16540529;-0.7433663;;;;;;;;;;;;;;;
1468.0;1418.8;262143;262143;14701;;;;;;;;;;;;;;;;;;
1468.0;1425.4;;;;;;;;;;;;;;;;;73.492386;17.090364;-32.30003;;1302.4
1468.0;1425.4;;;;;;;;;;;;;;0.82381666;0.073549606;-0.6981414;;;;;1302.4
1468.0;1425.4;;;;;;;;;;;;;;;;;72.21824;17.445143;-28.920103;;1302.4
1468.0;1425.4;;;;;;;;;;;;;;0.83291113;0.16364025;-0.6695151;;;;;1302.4
1468.0;1425.4;;;;;;;;;;;;;;;;;69.66612;16.922514;-24.826807;;1312.1
1468.0;1425.4;;;;;;;;;;;;;;0.82430494;0.23548082;-0.64101076;;;;;1312.1
1468.0;1425.4;;;;;;;;;;;;;;;;;66.07639;16.392256;-20.725883;;1312.1
1468.0;1425.4;;;;;;;;;;;;;;0.7960448;0.27045503;-0.6173284;;;;;1312.1
1468.0;1425.4;;;;;;;;;;;;;;;;;62.58583;15.388958;-17.246773;;1321.5
1468.0;1425.4;;;;;;;;;;;;;;0.75881225;0.28675193;-0.5799127;;;;;1321.5
1468.0;1425.4;;;;;;;;;;;;;;;;;59.709465;12.539292;-14.164403;;1321.5
1468.0;1425.4;;;;;;;;;;;;;;0.70656455;0.28241828;-0.5360271;;;;;1321.5
1584.0;1426.2;;;;;;;;;;;;;;;;;57.992798;8.10648;-11.394848;;1331.2
1584.0;1426.2;;;;;;;;;;;;;;0.67146826;0.27887815;-0.4990997;;;;;1331.2
1584.0;1426.2;;;;;;;;;;;;;;;;;56.15787;4.238258;-9.159368;;1331.2
1584.0;1426.2;;;;;;;;;;;;;;0.65926087;0.30512404;-0.48365733;;;;;1331.2
1584.0;1426.2;;;;;;;;;;;;;;;;;53.441727;1.7548143;-7.099368;;1340.9
1584.0;1426.2;;;;;;;;;;;;;;0.6448561;0.33381146;-0.47047335;;;;;1340.9
1584.0;1426.2;;;;;;;;;;;;;;;;;49.98932;-0.7057405;-4.676962;;1340.9
1584.0;1426.2;;;;;;;;;;;;;;0.6396069;0.35578477;-0.46931365;;;;;1340.9
1584.0;1426.2;;;;;;;;;;;;;;;;;45.976135;-2.6741846;-1.9264809;;1350.4
1584.0;1426.2;;;;;;;;;;;;;;0.62874234;0.36329234;-0.46467483;;;;;1350.4
1584.0;1426.2;;;;;;;;;;;;;;;;;41.69973;-4.9401836;0.9193701;;1350.4
1584.0;1426.2;;;;;;;;;;;;;;0.62855923;0.3678091;-0.46113467;;;;;1350.4
1584.0;1426.8;;;;-0.42975622;0.1643448;-0.7420426;;;;;;;;;;;;;;;
1584.0;1426.8;;;;-0.4282418;0.16326143;-0.74013525;;;;;;;;;;;;;;;
1584.0;1426.8;;;;-0.42531973;0.16204073;-0.7384797;;;;;;;;;;;;;;;
1584.0;1426.8;;;;-0.42213827;0.16108705;-0.7362557;;;;;;;;;;;;;;;
1584.0;1426.8;;;;-0.41807562;0.1600609;-0.7317925;;;;;;;;;;;;;;;
1584.0;1436.8;;;;-0.41362768;0.15866853;-0.7272187;;;;;;;;;;;;;;;
1584.0;1436.8;;;;-0.40772635;0.15779497;-0.7216225;;;;;;;;;;;;;;;
1584.0;1436.8;;;;-0.40137488;0.15756227;-0.7161866;;;;;;;;;;;;;;;
1584.0;1436.8;;;;-0.39570242;0.15865327;-0.7095719;;;;;;;;;;;;;;;
1584.0;1436.8;;;;-0.39168173;0.16055681;-0.702015;;;;;;;;;;;;;;;
1584.0;1438.8;262143;262143;14708;;;;;;;;;;;;;;;;;;
1589.0;1445.0;;;;;;;;;;;;;-274;;;;;;;;
1589.0;1445.0;;;;;;;;;;;;;-145;;;;;;;;
1589.0;1445.0;;;;;;;;;;;;;88;;;;;;;;
1589.0;1445.0;;;;;;;;;;;;;57;;;;;;;;
1589.0;1445.0;;;;;;;;;;;;;-132;;;;;;;;
1589.0;1446.9;;;;-0.38957602;0.16351701;-0.6940575;;;;;;;;;;;;;;;
1589.0;1446.9;;;;-0.38909155;0.16659547;-0.68461233;;;;;;;;;;;;;;;
1589.0;1446.9;;;;-0.3894692;0.1680565;-0.67363745;;;;;;;;;;;;;;;
1589.0;1446.9;;;;-0.3902436;0.16828157;-0.66302496;;;;;;;;;;;;;;;
1589.0;1446.9;;;;-0.39212042;0.16658022;-0.652752;;;;;;;;;;;;;;;
1589.0;1456.9;;;;-0.3945008;0.16428758;-0.6428452;;;;;;;;;;;;;;;
1589.0;1456.9;;;;-0.39501578;0.16065218;-0.6345025;;;;;;;;;;;;;;;
1589.0;1456.9;;;;-0.39249045;0.15678407;-0.626587;;;;;;;;;;;;;;;
1589.0;1456.9;;;;-0.3898087;0.15414049;-0.6199685;;;;;;;;;;;;;;;
1589.0;1456.9;;;;-0.38638693;0.15212633;-0.6149598;;;;;;;;;;;;;;;
1589.0;1458.9;262143;262143;14710;;;;;;;;;;;;;;;;;;
1589.0;1467.0;;;;-0.3810807;0.15028764;-0.61217886;;;;;;;;;;;;;;;
1589.0;1467.0;;;;-0.3755837;0.14905931;-0.610714;;;;;;;;;;;;;;;
1589.0;1467.0;;;;-0.37059405;0.14687349;-0.61035925;;;;;;;;;;;;;;;
1589.0;1467.0;;;;-0.36556628;0.14434053;-0.6102143;;;;;;;;;;;;;;;
1589.0;1467.0;;;;-0.36108783;0.14110567;-0.60892874;;;;;;;;;;;;;;;
1590.0;1477.0;;;;-0.35657504;0.13800813;-0.6069756;;;;;;;;;;;;;;;
1590.0;1477.0;;;;-0.35201648;0.13393785;-0.60501486;;;;;;;;;;;;;;;
1590.0;1477.0;;;;-0.34715274;0.13000108;-0.6023484;;;;;;;;;;;;;;;
1590.0;1477.0;;;;-0.34321597;0.1262665;-0.60044867;;;;;;;;;;;;;;;
1590.0;1477.0;;;;-0.340107;0.1232834;-0.59839636;;;;;;;;;;;;;;;
1590.0;1479.1;262143;262143;14721;;;;;;;;;;;;;;;;;;
1590.0;1485.2;;;;;;;;;;;;;;;;;37.87347;-6.5843687;3.6774805;;1360.1
1590.0;1485.2;;;;;;;;;;;;;;0.6300852;0.36164433;-0.46168402;;;;;1360.1
1590.0;1485.2;;;;;;;;;;;;;;;;;35.11536;-6.820887;6.130406;;1360.1
1590.0;1485.2;;;;;;;;;;;;;;0.62245554;0.3524888;-0.45551926;;;;;1360.1
1590.0;1485.2;;;;;;;;;;;;;;;;;32.940918;-6.321146;8.213294;;1369.7
1590.0;1485.2;;;;;;;;;;;;;;0.6187323;0.3277688;-0.45417646;;;;;1369.7
1590.0;1485.2;;;;;;;;;;;;;;;;;31.479843;-4.997406;9.823145;;1369.7
1590.0;1485.2;;;;;;;;;;;;;;0.6038392;0.30939665;-0.4580218;;;;;1369.7
1590.0;1485.2;;;;;;;;;;;;;;;;;29.931028;-2.3804438;10.95996;;1379.4
1590.0;1485.2;;;;;;;;;;;;;;0.57686085;0.31043428;-0.4265267;;;;;1379.4
1590.0;1485.2;;;;;;;;;;;;;;;;;27.233955;-0.43488875;12.062441;;1379.4
1590.0;1485.2;;;;;;;;;;;;;;0.5438398;0.30909148;-0.40101323;;;;;1379.4
1590.0;1485.3;;;;;;;;;;;;;-281;;;;;;;;
1590.0;1485.3;;;;;;;;;;;;;-441;;;;;;;;
1590.0;1485.3;;;;;;;;;;;;;-663;;;;;;;;
1590.0;1485.3;;;;;;;;;;;;;-719;;;;;;;;
1590.0;1485.3;;;;;;;;;;;;;-363;;;;;;;;
1591.0;1485.9;;;;;;;;;;;;;;;;;25.04425;1.5602587;13.054293;;1389.0
1591.0;1485.9;;;;;;;;;;;;;;0.5038606;0.31488997;-0.3884396;;;;;1389.0
1591.0;1485.9;;;;;;;;;;;;;;;;;22.900326;3.2425916;13.904996;;1389.0
1591.0;1485.9;;;;;;;;;;;;;;0.46192816;0.3239845;-0.3602405;;;;;1389.0
1591.0;1485.9;;;;;;;;;;;;;;;;;22.007662;3.3761103;14.721366;;1398.5
1591.0;1485.9;;;;;;;;;;;;;;0.42963958;0.33320108;-0.3554796;;;;;1398.5
1591.0;1485.9;;;;;;;;;;;;;;;;;21.874142;4.1085544;15.686514;;1398.5
1591.0;1485.9;;;;;;;;;;;;;;0.41883603;0.34705648;-0.3620716;;;;;1398.5
1591.0;1485.9;;;;;;;;;;;;;;;;;20.390179;5.83285;17.19718;;1408.2
1591.0;1485.9;;;;;;;;;;;;;;0.40473646;0.38337353;-0.35065767;;;;;1408.2
1591.0;1485.9;;;;;;;;;;;;;;;;;16.991179;5.394147;19.550919;;1408.2
1591.0;1485.9;;;;;;;;;;;;;;0.3925901;0.39777824;-0.37141025;;;;;1408.2
1591.0;1486.9;;;;-0.33851627;0.12079622;-0.5966912;;;;;;;;;;;;;;;
1591.0;1486.9;;;;-0.33885577;0.11912157;-0.5940171;;;;;;;;;;;;;;;
1591.0;1486.9;;;;-0.34020618;0.118007675;-0.5915986;;;;;;;;;;;;;;;
1591.0;1486.9;;;;-0.34124377;0.11597444;-0.5906411;;;;;;;;;;;;;;;
1591.0;1486.9;;;;-0.34149173;0.114345565;-0.5893784;;;;;;;;;;;;;;;
1592.0;1487.2;;;;;;;;;;;;;;;;;13.882107;4.215369;21.561327;;1417.9
1592.0;1487.2;;;;;;;;;;;;;;0.390759;0.41602832;-0.40705588;;;;;1417.9
1592.0;1487.2;;;;;;;;;;;;;;;;;10.586108;3.3989992;23.411512;;1417.9
1592.0;1487.2;;;;;;;;;;;;;;0.3912473;0.42072818;-0.4466689;;;;;1417.9
1592.0;1487.2;;;;;;;;;;;;;;;;;7.0345163;2.8153324;25.097658;;1427.5
1592.0;1487.2;;;;;;;;;;;;;;0.39814448;0.4227424;-0.48036134;;;;;1427.5
1592.0;1487.2;;;;;;;;;;;;;;;;;4.9592576;0.96514785;26.478622;;1427.5
1592.0;1487.2;;;;;;;;;;;;;;0.4067507;0.41468552;-0.51313823;;;;;1427.5
1592.0;1487.2;;;;;;;;;;;;;;;;;4.448073;-0.7515183;26.989807;;1437.2
1592.0;1487.2;;;;;;;;;;;;;;0.43751335;0.3988769;-0.5317545;;;;;1437.2
1592.0;1487.2;;;;;;;;;;;;;;;;;4.2420726;-0.6218146;26.776178;;1437.2
1592.0;1487.2;;;;;;;;;;;;;;0.44904935;0.38770714;-0.5262001;;;;;1437.2
1592.0;1496.8;;;;-0.34103015;0.11312105;-0.588852;;;;;;;;;;;;;;;
1592.0;1496.8;;;;-0.34012988;0.1108513;-0.5882569;;;;;;;;;;;;;;;
1592.0;1496.8;;;;-0.33895496;0.10862352;-0.5877648;;;;;;;;;;;;;;;
1592.0;1496.8;;;;-0.33801273;0.10647966;-0.5864602;;;;;;;;;;;;;;;
1592.0;1496.8;;;;-0.33672336;0.10406877;-0.5851899;;;;;;;;;;;;;;;
1592.0;1498.9;262143;262143;14720;;;;;;;;;;;;;;;;;;
1592.0;1506.8;;;;-0.33533862;0.1016884;-0.5833207;;;;;;;;;;;;;;;
1592.0;1506.8;;;;-0.33316424;0.09977342;-0.58203894;;;;;;;;;;;;;;;
1592.0;1506.8;;;;-0.33041766;0.09786226;-0.58028036;;;;;;;;;;;;;;;
1592.0;1506.8;;;;-0.32712558;0.09592058;-0.5792275;;;;;;;;;;;;;;;
1592.0;1506.8;;;;-0.32371524;0.09470369;-0.57885367;;;;;;;;;;;;;;;
1593.0;1516.9;;;;-0.32052615;0.0937729;-0.5789948;;;;;;;;;;;;;;;
1593.0;1516.9;;;;-0.31724933;0.093406685;-0.5791474;;;;;;;;;;;;;;;
1593.0;1516.9;;;;-0.3140526;0.09355546;-0.580452;;;;;;;;;;;;;;;
1593.0;1516.9;;;;-0.3105164;0.09427644;-0.58208853;;;;;;;;;;;;;;;
1593.0;1516.9;;;;-0.30725482;0.09543611;-0.5841027;;;;;;;;;;;;;;;
1593.0;1519.1;262143;262143;14726;;;;;;;;;;;;;;;;;;
1593.0;1525.3;;;;;;;;;;;;;197;;;;;;;;
1593.0;1525.3;;;;;;;;;;;;;499;;;;;;;;
1593.0;1525.3;;;;;;;;;;;;;594;;;;;;;;
1593.0;1525.3;;;;;;;;;;;;;777;;;;;;;;
1593.0;1525.3;;;;;;;;;;;;;789;;;;;;;;
1593.0;1527.0;;;;-0.30419162;0.096756;-0.5865136;;;;;;;;;;;;;;;
1593.0;1527.0;;;;-0.30109027;0.09787752;-0.58874136;;;;;;;;;;;;;;;
1593.0;1527.0;;;;-0.29832843;0.098590866;-0.5931168;;;;;;;;;;;;;;;
1593.0;1527.0;;;;-0.29453662;0.09897615;-0.59819037;;;;;;;;;;;;;;;
1593.0;1527.0;;;;-0.29020312;0.098548904;-0.6011544;;;;;;;;;;;;;;;
1593.0;1537.0;;;;-0.28483585;0.09766008;-0.6013184;;;;;;;;;;;;;;;
1593.0;1537.0;;;;-0.2813988;0.09574129;-0.5995942;;;;;;;;;;;;;;;
1593.0;1537.0;;;;-0.28229144;0.09313584;-0.5982285;;;;;;;;;;;;;;;
1593.0;1537.0;;;;-0.2854462;0.09148408;-0.59629446;;;;;;;;;;;;;;;
1593.0;1537.0;;;;-0.28759387;0.092277534;-0.5953675;;;;;;;;;;;;;;;
1593.0;1539.2;262143;262143;14736;;;;;;;;;;;;;;;;;;
1602.0;1547.0;;;;-0.2864876;0.093929306;-0.5962487;;;;;;;;;;;;;;;
1602.0;1547.0;;;;-0.28039172;0.096130386;-0.59608465;;;;;;;;;;;;;;;
1602.0;1547.0;;;;-0.27211383;0.09801485;-0.5948029;;;;;;;;;;;;;;;
1602.0;1547.0;;;;-0.26321414;0.09888078;-0.59377676;;;;;;;;;;;;;;;
1602.0;1547.0;;;;-0.2541466;0.09922029;-0.59496313;;;;;;;;;;;;;;;
1602.0;1552.9;;;;;;;;;;;;;;;;;3.5973694;-1.4496292;26.03229;;1446.9
1602.0;1552.9;;;;;;;;;;;;;;0.44068727;0.37122715;-0.52430797;;;;;1446.9
1602.0;1552.9;;;;;;;;;;;;;;;;;2.4834437;-4.955443;25.040436;;1446.9
1602.0;1552.9;;;;;;;;;;;;;;0.41938534;0.35627308;-0.5429853;;;;;1446.9
1602.0;1552.9;;;;;;;;;;;;;;;;;0.3662221;-9.258553;23.911253;;1456.4
1602.0;1552.9;;;;;;;;;;;;;;0.40418714;0.349559;-0.55525374;;;;;1456.4
1602.0;1552.9;;;;;;;;;;;;;;;;;-2.0027773;-13.325145;22.850733;;1456.4
1602.0;1552.9;;;;;;;;;;;;;;0.39289528;0.34339428;-0.5601978;;;;;1456.4
1602.0;1552.9;;;;;;;;;;;;;;;;;-3.4714804;-16.747032;21.629993;;1466.1
1602.0;1552.9;;;;;;;;;;;;;;0.3769036;0.3579211;-0.5642262;;;;;1466.1
1602.0;1552.9;;;;;;;;;;;;;;;;;-4.299295;-20.439772;20.229956;;1466.1
1602.0;1552.9;;;;;;;;;;;;;;0.372631;0.377575;-0.56929225;;;;;1466.1
1605.0;1553.6;;;;;;;;;;;;;;;;;-5.272073;-23.293253;18.63155;;1475.6
1605.0;1553.6;;;;;;;;;;;;;;0.38929412;0.39088106;-0.5797296;;;;;1475.6
1605.0;1553.6;;;;;;;;;;;;;;;;;-6.2067018;-23.995178;16.68981;;1475.6
1605.0;1553.6;;;;;;;;;;;;;;0.4203009;0.41340372;-0.59651476;;;;;1475.6
1605.0;1553.6;;;;;;;;;;;;;;;;;-6.992553;-22.148808;14.511552;;1485.3
1605.0;1553.6;;;;;;;;;;;;;;0.43745232;0.4497818;-0.58784753;;;;;1485.3
1605.0;1553.6;;;;;;;;;;;;;;;;;-7.492294;-19.600512;12.092959;;1485.3
1605.0;1553.6;;;;;;;;;;;;;;0.45204017;0.48957792;-0.5633106;;;;;1485.3
1605.0;1553.6;;;;;;;;;;;;;;;;;-7.1031833;-17.509995;9.552294;;1494.9
1605.0;1553.6;;;;;;;;;;;;;;0.47834712;0.517716;-0.5272378;;;;;1494.9
1605.0;1553.6;;;;;;;;;;;;;;;;;-4.3031096;-15.545365;6.1151466;;1494.9
1605.0;1553.6;;;;;;;;;;;;;;0.51423687;0.5584277;-0.4949492;;;;;1494.9
1605.0;1556.9;;;;-0.24603274;0.09920122;-0.59777075;;;;;;;;;;;;;;;
1605.0;1556.9;;;;-0.23951343;0.10053636;-0.60031515;;;;;;;;;;;;;;;
1605.0;1556.9;;;;-0.23595431;0.10259248;-0.6014672;;;;;;;;;;;;;;;
1605.0;1556.9;;;;-0.23576358;0.105011;-0.60158545;;;;;;;;;;;;;;;
1605.0;1556.9;;;;-0.23813632;0.107662216;-0.60184485;;;;;;;;;;;;;;;
1605.0;1559.2;262143;262143;14742;;;;;;;;;;;;;;;;;;
1605.0;1565.3;;;;;;;;;;;;;343;;;;;;;;
1605.0;1565.3;;;;;;;;;;;;;91;;;;;;;;
1605.0;1565.3;;;;;;;;;;;;;1641;;;;;;;;
1605.0;1565.3;;;;;;;;;;;;;4221;;;;;;;;
1605.0;1565.3;;;;;;;;;;;;;837;;;;;;;;
1642.0;1566.8;;;;-0.24212268;0.11002351;-0.6031571;;;;;;;;;;;;;;;
1642.0;1566.8;;;;-0.24625781;0.11314775;-0.605362;;;;;;;;;;;;;;;
1642.0;1566.8;;;;-0.25013354;0.115871444;-0.60799795;;;;;;;;;;;;;;;
1642.0;1566.8;;;;-0.25276187;0.11852266;-0.6111756;;;;;;;;;;;;;;;
1642.0;1566.8;;;;-0.2537308;0.12153627;-0.6158791;;;;;;;;;;;;;;;
1642.0;1576.6;;;;-0.25376895;0.12416841;-0.62073904;;;;;;;;;;;;;;;
1642.0;1576.6;;;;-0.25311664;0.12593462;-0.62590796;;;;;;;;;;;;;;;
1642.0;1576.6;;;;-0.2526894;0.12760545;-0.6314431;;;;;;;;;;;;;;;
1642.0;1576.6;;;;-0.25281146;0.12932588;-0.636406;;;;;;;;;;;;;;;
1642.0;1576.6;;;;-0.254921;0.1317444;-0.6404343;;;;;;;;;;;;;;;
1642.0;1579.0;262143;262143;14746;;;;;;;;;;;;;;;;;;
1642.0;1586.7;;;;-0.2602196;0.13501741;-0.6436196;;;;;;;;;;;;;;;
1642.0;1586.7;;;;-0.26814654;0.1389084;-0.64620215;;;;;;;;;;;;;;;
1642.0;1586.7;;;;-0.2786484;0.14257051;-0.64729315;;;;;;;;;;;;;;;
1642.0;1586.7;;;;-0.2906609;0.14678194;-0.64737326;;;;;;;;;;;;;;;
1642.0;1586.7;;;;-0.3027306;0.15074159;-0.6469689;;;;;;;;;;;;;;;
1642.0;1596.8;;;;-0.31520846;0.1546631;-0.64506155;;;;;;;;;;;;;;;
1642.0;1596.8;;;;-0.32633212;0.15891649;-0.6416207;;;;;;;;;;;;;;;
1642.0;1596.8;;;;-0.33617786;0.16274644;-0.6362;;;;;;;;;;;;;;;
1642.0;1596.8;;;;-0.34494784;0.16572191;-0.6307679;;;;;;;;;;;;;;;
1642.0;1596.8;;;;-0.35282138;0.168705;-0.624096;;;;;;;;;;;;;;;
1645.0;1599.2;262143;262143;14755;;;;;;;;;;;;;;;;;;
1645.0;1605.4;;;;;;;;;;;;;-13564;;;;;;;;
1645.0;1605.4;;;;;;;;;;;;;-29787;;;;;;;;
1645.0;1605.4;;;;;;;;;;;;;-31392;;;;;;;;
1645.0;1605.4;;;;;;;;;;;;;-14782;;;;;;;;
1645.0;1605.4;;;;;;;;;;;;;5586;;;;;;;;
1645.0;1606.2;;;;;;;;;;;;;;;;;-1.2131108;-13.176367;2.094333;;1504.5
1645.0;1606.2;;;;;;;;;;;;;;0.56514174;0.6172674;-0.45942563;;;;;1504.5
1645.0;1606.2;;;;;;;;;;;;;;;;;-1.6289254;-7.221442;-1.6899625;;1504.5
1645.0;1606.2;;;;;;;;;;;;;;0.62263864;0.6476028;-0.4095584;;;;;1504.5
1645.0;1606.2;;;;;;;;;;;;;;;;;-1.9341105;-1.3542589;-5.8175907;;1514.1
1645.0;1606.2;;;;;;;;;;;;;;0.6385693;0.6682333;-0.3971679;;;;;1514.1
1645.0;1606.2;;;;;;;;;;;;;;;;;-0.3624073;3.9597769;-11.37196;;1514.1
1645.0;1606.2;;;;;;;;;;;;;;0.6745201;0.646321;-0.3848384;;;;;1514.1
1645.0;1606.2;;;;;;;;;;;;;;;;;1.2169256;11.314737;-18.215734;;1523.6
1645.0;1606.2;;;;;;;;;;;;;;0.7169408;0.6124455;-0.35853145;;;;;1523.6
1645.0;1606.2;;;;;;;;;;;;;;;;;1.9875181;17.826624;-24.475845;;1523.6
1645.0;1606.2;;;;;;;;;;;;;;0.65163124;0.5540941;-0.3678091;;;;;1523.6
1645.0;1606.9;;;;-0.3590279;0.1717148;-0.61723334;;;;;;;;;;;;;;;
1645.0;1606.9;;;;-0.36461642;0.17398454;-0.6087647;;;;;;;;;;;;;;;
1645.0;1606.9;;;;-0.36933902;0.17675401;-0.5997048;;;;;;;;;;;;;;;
1645.0;1606.9;;;;-0.37235644;0.17858507;-0.59172827;;;;;;;;;;;;;;;
1645.0;1606.9;;;;-0.37428287;0.17970277;-0.58404547;;;;;;;;;;;;;;;
1705.0;1613.3;;;;;;;;;;;;;;;;;1.3580737;17.250587;-29.91577;;1533.3
1705.0;1613.3;;;;;;;;;;;;;;0.5710623;0.5077059;-0.39838862;;;;;1533.3
1705.0;1613.3;;;;;;;;;;;;;;;;;-0.7438887;14.072847;-34.211246;;1533.3
1705.0;1613.3;;;;;;;;;;;;;;0.5593432;0.49195838;-0.3905759;;;;;1533.3
1705.0;1613.3;;;;;;;;;;;;;;;;;-2.3689995;10.559404;-37.083805;;1542.9
1705.0;1613.3;;;;;;;;;;;;;;0.58662677;0.4685812;-0.38795128;;;;;1542.9
1705.0;1613.3;;;;;;;;;;;;;;;;;-3.4447768;10.422071;-38.59447;;1542.9
1705.0;1613.3;;;;;;;;;;;;;;0.60176396;0.42048404;-0.38953826;;;;;1542.9
1705.0;1613.3;;;;;;;;;;;;;;;;;-5.3178506;13.924069;-38.792843;;1552.6
1705.0;1613.3;;;;;;;;;;;;;;0.6207465;0.3881344;-0.36597797;;;;;1552.6
1705.0;1613.3;;;;;;;;;;;;;;;;;-7.763146;15.968811;-37.877285;;1552.6
1705.0;1613.3;;;;;;;;;;;;;;0.61970884;0.41297647;-0.35139012;;;;;1552.6
1705.0;1616.8;;;;-0.3754502;0.18116762;-0.57630545;;;;;;;;;;;;;;;
1705.0;1616.8;;;;-0.37697226;0.18219377;-0.5680657;;;;;;;;;;;;;;;
1705.0;1616.8;;;;-0.3779183;0.1832657;-0.5589219;;;;;;;;;;;;;;;
1705.0;1616.8;;;;-0.3783608;0.18405153;-0.5482941;;;;;;;;;;;;;;;
1705.0;1616.8;;;;-0.3789063;0.1840973;-0.5380555;;;;;;;;;;;;;;;
1705.0;1619.3;262143;262143;14763;;;;;;;;;;;;;;;;;;
1705.0;1626.8;;;;-0.37951666;0.18507387;-0.52719504;;;;;;;;;;;;;;;
1705.0;1626.8;;;;-0.37905127;0.18606569;-0.51770025;;;;;;;;;;;;;;;
1705.0;1626.8;;;;-0.37829596;0.18655778;-0.5098992;;;;;;;;;;;;;;;
1705.0;1626.8;;;;-0.3769608;0.18721773;-0.50389105;;;;;;;;;;;;;;;
1705.0;1626.8;;;;-0.3748093;0.18841556;-0.49782568;;;;;;;;;;;;;;;
1707.0;1636.8;;;;-0.3727112;0.1893349;-0.49132162;;;;;;;;;;;;;;;
1707.0;1636.8;;;;-0.3717499;0.18976596;-0.48497015;;;;;;;;;;;;;;;
1707.0;1636.8;;;;-0.37210086;0.19072345;-0.47726065;;;;;;;;;;;;;;;
1707.0;1636.8;;;;-0.37438586;0.19221881;-0.46870428;;;;;;;;;;;;;;;
1707.0;1636.8;;;;-0.3790856;0.19396594;-0.46092993;;;;;;;;;;;;;;;
1707.0;1639.3;262143;262143;14763;;;;;;;;;;;;;;;;;;
1707.0;1645.5;;;;;;;;;;;;;14139;;;;;;;;
1707.0;1645.5;;;;;;;;;;;;;10477;;;;;;;;
1707.0;1645.5;;;;;;;;;;;;;4855;;;;;;;;
1707.0;1645.5;;;;;;;;;;;;;3077;;;;;;;;
1707.0;1645.5;;;;;;;;;;;;;2952;;;;;;;;
1707.0;1646.9;;;;-0.3852654;0.19674686;-0.45315176;;;;;;;;;;;;;;;
1707.0;1646.9;;;;-0.3934365;0.19994357;-0.44434363;;;;;;;;;;;;;;;
1707.0;1646.9;;;;-0.40252692;0.20318606;-0.43580252;;;;;;;;;;;;;;;
1707.0;1646.9;;;;-0.4119721;0.2063103;-0.42697912;;;;;;;;;;;;;;;
1707.0;1646.9;;;;-0.42127997;0.21066287;-0.42023474;;;;;;;;;;;;;;;
1707.0;1657.0;;;;-0.42805868;0.2145119;-0.41886526;;;;;;;;;;;;;;;
1707.0;1657.0;;;;-0.43104178;0.21820834;-0.4240647;;;;;;;;;;;;;;;
1707.0;1657.0;;;;-0.43013388;0.22154239;-0.4346848;;;;;;;;;;;;;;;
1707.0;1657.0;;;;-0.42672735;0.2247658;-0.4491616;;;;;;;;;;;;;;;
1707.0;1657.0;;;;-0.42156225;0.22772601;-0.46825033;;;;;;;;;;;;;;;
1710.0;1658.0;;;;;;;;;;;;;;;;;-10.002441;12.062441;-36.038544;;1562.2
1710.0;1658.0;;;;;;;;;;;;;;0.634785;0.4701071;-0.41175574;;;;;1562.2
1710.0;1658.0;;;;;;;;;;;;;;;;;-10.635701;5.2682576;-33.612324;;1562.2
1710.0;1658.0;;;;;;;;;;;;;;0.68239385;0.49971008;-0.50788903;;;;;1562.2
1710.0;1658.0;;;;;;;;;;;;;;;;;-10.3267;0.76296276;-30.518509;;1571.6
1710.0;1658.0;;;;;;;;;;;;;;0.7367168;0.49708548;-0.5452437;;;;;1571.6
1710.0;1658.0;;;;;;;;;;;;;;;;;-10.509811;2.3651845;-27.615435;;1571.6
1710.0;1658.0;;;;;;;;;;;;;;0.81295204;0.5653859;-0.5033723;;;;;1571.6
1710.0;1658.0;;;;;;;;;;;;;;;;;-11.402478;5.260628;-25.143436;;1581.2
1710.0;1658.0;;;;;;;;;;;;;;0.8100833;0.62697226;-0.52180547;;;;;1581.2
1710.0;1658.0;;;;;;;;;;;;;;;;;-14.770959;9.910886;-21.897032;;1581.2
1710.0;1658.0;;;;;;;;;;;;;;0.81508833;0.6187933;-0.48323008;;;;;1581.2
1710.0;1659.4;262143;262143;14772;;;;;;;;;;;;;;;;;;
1710.0;1666.9;;;;-0.4151612;0.23015597;-0.487526;;;;;;;;;;;;;;;
1710.0;1666.9;;;;-0.4122315;0.23252109;-0.50591284;;;;;;;;;;;;;;;
1710.0;1666.9;;;;-0.4126435;0.23472217;-0.52068716;;;;;;;;;;;;;;;
1710.0;1666.9;;;;-0.41803747;0.23715213;-0.5303841;;;;;;;;;;;;;;;
1710.0;1666.9;;;;-0.42870718;0.23981479;-0.53553396;;;;;;;;;;;;;;;
1710.0;1676.9;;;;-0.44328696;0.2432709;-0.53753287;;;;;;;;;;;;;;;
1710.0;1676.9;;;;-0.4589501;0.24758533;-0.54093176;;;;;;;;;;;;;;;
1710.0;1676.9;;;;-0.4747048;0.2517052;-0.5439263;;;;;;;;;;;;;;;
1710.0;1676.9;;;;-0.4881783;0.25535205;-0.54627615;;;;;;;;;;;;;;;
1710.0;1676.9;;;;-0.499363;0.25778583;-0.54936606;;;;;;;;;;;;;;;
1765.0;1679.6;262143;262143;14774;;;;;;;;;;;;;;;;;;
1765.0;1685.6;;;;;;;;;;;;;2406;;;;;;;;
1765.0;1685.6;;;;;;;;;;;;;1874;;;;;;;;
1765.0;1685.6;;;;;;;;;;;;;1421;;;;;;;;
1765.0;1685.6;;;;;;;;;;;;;1118;;;;;;;;
1765.0;1685.6;;;;;;;;;;;;;1091;;;;;;;;
1765.0;1686.9;;;;-0.5081292;0.25984958;-0.55206686;;;;;;;;;;;;;;;
1765.0;1686.9;;;;-0.51437384;0.26052478;-0.55286795;;;;;;;;;;;;;;;
1765.0;1686.9;;;;-0.5201188;0.260273;-0.55227286;;;;;;;;;;;;;;;
1765.0;1686.9;;;;-0.5267449;0.25880435;-0.5517846;;;;;;;;;;;;;;;
1765.0;1686.9;;;;-0.5350304;0.2567406;-0.5512467;;;;;;;;;;;;;;;
1765.0;1696.9;;;;-0.5453988;0.2538872;-0.55126196;;;;;;;;;;;;;;;
1765.0;1696.9;;;;-0.5566674;0.25086215;-0.55302054;;;;;;;;;;;;;;;
1765.0;1696.9;;;;-0.5679665;0.24783328;-0.5549126;;;;;;;;;;;;;;;
1765.0;1696.9;;;;-0.58076864;0.24403384;-0.5564576;;;;;;;;;;;;;;;
1765.0;1696.9;;;;-0.59364706;0.24127582;-0.55725485;;;;;;;;;;;;;;;
1765.0;1699.5;262143;262143;14781;;;;;;;;;;;;;;;;;;
1765.0;1707.0;;;;-0.60565954;0.23860171;-0.5583649;;;;;;;;;;;;;;;
1765.0;1707.0;;;;-0.61705023;0.23723224;-0.5588532;;;;;;;;;;;;;;;
1765.0;1707.0;;;;-0.6284066;0.23726657;-0.5594178;;;;;;;;;;;;;;;
1765.0;1707.0;;;;-0.63951117;0.2381325;-0.55886465;;;;;;;;;;;;;;;
1765.0;1707.0;;;;-0.6499329;0.24079517;-0.55876166;;;;;;;;;;;;;;;
1766.0;1717.0;;;;-0.66063696;0.24434665;-0.5588761;;;;;;;;;;;;;;;
1766.0;1717.0;;;;-0.67103964;0.24833682;-0.5589104;;;;;;;;;;;;;;;
1766.0;1717.0;;;;-0.67955023;0.25299838;-0.5583344;;;;;;;;;;;;;;;
1766.0;1717.0;;;;-0.6881371;0.25786594;-0.5546151;;;;;;;;;;;;;;;
1766.0;1717.0;;;;-0.69758993;0.2639313;-0.5492974;;;;;;;;;;;;;;;
1766.0;1718.1;;;;;;;;;;;;;;;;;-21.893217;16.933958;-18.65444;;1590.8
1766.0;1718.1;;;;;;;;;;;;;;0.9427778;0.60011595;-0.38435012;;;;;1590.8
1766.0;1718.1;;;;;;;;;;;;;;;;;-27.859583;25.26551;-16.758478;;1590.8
1766.0;1718.1;;;;;;;;;;;;;;0.9770806;0.5990173;-0.3419904;;;;;1590.8
1766.0;1718.1;;;;;;;;;;;;;;;;;-33.883175;29.313028;-16.075624;;1600.5
1766.0;1718.1;;;;;;;;;;;;;;0.90542316;0.6024964;-0.41926327;;;;;1600.5
1766.0;1718.1;;;;;;;;;;;;;;;;;-40.784172;34.924618;-15.812403;;1600.5
1766.0;1718.1;;;;;;;;;;;;;;0.8172246;0.6800134;-0.5218665;;;;;1600.5
1766.0;1718.1;;;;;;;;;;;;;;;;;-46.47206;38.945435;-15.869625;;1610.1
1766.0;1718.1;;;;;;;;;;;;;;0.741905;0.67018646;-0.59559923;;;;;1610.1
1766.0;1718.1;;;;;;;;;;;;;;;;;-49.268322;43.301952;-19.524216;;1610.1
1766.0;1718.1;;;;;;;;;;;;;;0.75606555;0.5965758;-0.56251717;;;;;1610.1
1775.0;1719.0;;;;;;;;;;;;;;;;;-49.99695;52.12943;-25.788141;;1619.8
1775.0;1719.0;;;;;;;;;;;;;;0.7840815;0.56660664;-0.45564136;;;;;1619.8
1775.0;1719.0;;;;;;;;;;;;;;;;;-47.79199;58.900726;-32.98288;;1619.8
1775.0;1719.0;;;;;;;;;;;;;;0.77333903;0.54518265;-0.42823574;;;;;1619.8
1775.0;1719.0;;;;;;;;;;;;;;;;;-43.82458;64.63058;-41.386913;;1629.4
1775.0;1719.0;;;;;;;;;;;;;;0.7251808;0.5833308;-0.4685812;;;;;1629.4
1775.0;1719.0;;;;;;;;;;;;;;;;;-41.413616;73.09564;-50.458538;;1629.4
1775.0;1719.0;;;;;;;;;;;;;;0.7176122;0.65449995;-0.40797144;;;;;1629.4
1775.0;1719.0;;;;;;;;;;;;;;;;;-41.615803;81.80868;-58.58791;;1639.0
1775.0;1719.0;;;;;;;;;;;;;;0.774865;0.67806023;-0.30542925;;;;;1639.0
1775.0;1719.0;;;;;;;;;;;;;;;;;-41.634876;95.6412;-67.29332;;1639.0
1775.0;1719.0;;;;;;;;;;;;;;0.7662587;0.70839566;-0.14716025;;;;;1639.0
1775.0;1719.8;;;;;;;;;;;;;;;;;-41.459396;103.633224;-73.70983;;1648.7
1775.0;1719.8;;;;;;;;;;;;;;0.79116184;0.6857509;-0.054322947;;;;;1648.7
1775.0;1719.8;;;;;;;;;;;;;;;;;-41.04358;106.3799;-79.79827;;1648.7
1775.0;1719.8;;;;;;;;;;;;;;0.79891354;0.6241646;-0.03338725;;;;;1648.7
1775.0;1719.8;;;;;;;;;;;;;;;;;-39.281136;104.67849;-87.69875;;1658.2
1775.0;1719.8;;;;;;;;;;;;;;0.8156377;0.5769219;-0.095156714;;;;;1658.2
1775.0;1719.8;;;;;;;;;;;;;;;;;-39.868618;105.99841;-95.7709;;1658.2
1775.0;1719.8;;;;;;;;;;;;;;0.8600116;0.58082825;-0.13855404;;;;;1658.2
1775.0;1719.8;;;;;;;;;;;;;;;;;-41.913357;101.13071;-102.87408;;1667.9
1775.0;1719.8;;;;;;;;;;;;;;0.9510178;0.53364664;-0.26013976;;;;;1667.9
1775.0;1719.8;;;;;;;;;;;;;;;;;-43.04636;95.18342;-110.62196;;1667.9
1775.0;1719.8;;;;;;;;;;;;;;1.0260934;0.48353526;-0.42530596;;;;;1667.9
1778.0;1719.6;262143;262143;14776;;;;;;;;;;;;;;;;;;
1778.0;1725.7;;;;;;;;;;;;;987;;;;;;;;
1778.0;1725.7;;;;;;;;;;;;;743;;;;;;;;
1778.0;1725.7;;;;;;;;;;;;;520;;;;;;;;
1778.0;1725.7;;;;;;;;;;;;;410;;;;;;;;
1778.0;1725.7;;;;;;;;;;;;;292;;;;;;;;
1778.0;1726.9;;;;-0.7072945;0.2699242;-0.54663473;;;;;;;;;;;;;;;
1778.0;1726.9;;;;-0.7167168;0.27597812;-0.54925925;;;;;;;;;;;;;;;
1778.0;1726.9;;;;-0.72529227;0.28192905;-0.5604325;;;;;;;;;;;;;;;
1778.0;1726.9;;;;-0.732441;0.28770068;-0.57973105;;;;;;;;;;;;;;;
1778.0;1726.9;;;;-0.73715216;0.29453662;-0.6047173;;;;;;;;;;;;;;;
1778.0;1736.4;;;;;;;;;;-0.3013703;14.339885;-2.2278512;;;;;;;;;
1778.0;1736.4;;;;;;;0.5780816;-0.14447463;-0.99002045;;;;;;;;;;;;
1778.0;1736.4;;;;;;;;;;3.1853695;31.12888;7.5991087;;;;;;;;;
1778.0;1736.4;;;;;;;0.65761286;-0.18420972;-1.1138035;;;;;;;;;;;;
1778.0;1737.0;;;;-0.7389527;0.3019829;-0.6331673;;;;;;;;;;;;;;;
1778.0;1737.0;;;;-0.7378846;0.31037524;-0.66242224;;;;;;;;;;;;;;;
1778.0;1737.0;;;;-0.7365914;0.31876758;-0.6912957;;;;;;;;;;;;;;;
1778.0;1737.0;;;;-0.7357407;0.32867435;-0.7171059;;;;;;;;;;;;;;;
1778.0;1737.0;;;;-0.7367173;0.33965686;-0.7403298;;;;;;;;;;;;;;;
1778.0;1739.8;262143;262143;14770;;;;;;;;;;;;;;;;;;
1778.0;1745.9;;;;;;;;;;1.7548143;4.6540728;4.0665917;;;;;;;;;
1778.0;1745.9;;;;;;;0.6585284;-0.19977416;-1.1100192;;;;;;;;;;;;
1778.0;1745.9;;;;;;;;;;8.507034;12.8711815;8.499405;;;;;;;;;
1778.0;1745.9;;;;;;;0.6553545;-0.20844142;-1.1004364;;;;;;;;;;;;
1823.0;1747.0;;;;-0.740017;0.35195544;-0.75862134;;;;;;;;;;;;;;;
1823.0;1747.0;;;;-0.7456475;0.36599734;-0.77372754;;;;;;;;;;;;;;;
1823.0;1747.0;;;;-0.7519914;0.37987143;-0.79013073;;;;;;;;;;;;;;;
1823.0;1747.0;;;;-0.7571641;0.39199835;-0.80723584;;;;;;;;;;;;;;;
1823.0;1747.0;;;;-0.7622682;0.40378577;-0.82138836;;;;;;;;;;;;;;;
1823.0;1755.4;;;;;;;;;;12.428662;15.95355;11.337626;;;;;;;;;
1823.0;1755.4;;;;;;;0.64674824;-0.20654927;-1.0906705;;;;;;;;;;;;
1823.0;1755.4;;;;;;;;;;10.544146;-24.040956;-12.249367;;;;;;;;;
1823.0;1755.4;;;;;;;0.64314705;-0.19861446;-1.0876796;;;;;;;;;;;;
1823.0;1756.9;;;;-0.7677156;0.41493994;-0.8319131;;;;;;;;;;;;;;;
1823.0;1756.9;;;;-0.7719041;0.42514426;-0.8440019;;;;;;;;;;;;;;;
1823.0;1756.9;;;;-0.77339184;0.43490607;-0.85606396;;;;;;;;;;;;;;;
1823.0;1756.9;;;;-0.7735292;0.44434363;-0.8722192;;;;;;;;;;;;;;;
1823.0;1756.9;;;;-0.77181256;0.45235068;-0.89527905;;;;;;;;;;;;;;;
1823.0;1759.7;262143;262143;14775;;;;;;;;;;;;;;;;;;
1823.0;1765.0;;;;;;;;;;13.782922;-27.64214;-13.187811;;;;;;;;;
1823.0;1765.0;;;;;;;0.6466872;-0.18982513;-1.0991546;;;;;;;;;;;;
1823.0;1765.0;;;;;;;;;;17.490921;-30.625324;-13.927884;;;;;;;;;
1823.0;1765.0;;;;;;;0.6558428;-0.17578661;-1.1143528;;;;;;;;;;;;
1823.0;1765.9;;;;;;;;;;;;;-43;;;;;;;;
1823.0;1765.9;;;;;;;;;;;;;-516;;;;;;;;
1823.0;1765.9;;;;;;;;;;;;;-879;;;;;;;;
1823.0;1765.9;;;;;;;;;;;;;-1082;;;;;;;;
1823.0;1765.9;;;;;;;;;;;;;-1414;;;;;;;;
1827.0;1767.0;;;;-0.77090466;0.46055228;-0.9139482;;;;;;;;;;;;;;;
1827.0;1767.0;;;;-0.771351;0.46919256;-0.92798626;;;;;;;;;;;;;;;
1827.0;1767.0;;;;-0.77103055;0.47665793;-0.9450723;;;;;;;;;;;;;;;
1827.0;1767.0;;;;-0.7691995;0.48347098;-0.9605943;;;;;;;;;;;;;;;
1827.0;1767.0;;;;-0.76659787;0.49128348;-0.9741365;;;;;;;;;;;;;;;
1827.0;1774.6;;;;;;;;;;20.722069;-26.688437;-9.887997;;;;;;;;;
1827.0;1774.6;;;;;;;0.6664632;-0.15765862;-1.134434;;;;;;;;;;;;
1827.0;1774.6;;;;;;;;;;22.263252;-18.864254;-3.8377025;;;;;;;;;
1827.0;1774.6;;;;;;;0.68477434;-0.14355907;-1.1550035;;;;;;;;;;;;
1827.0;1777.1;;;;-0.76438916;0.5005761;-0.9838258;;;;;;;;;;;;;;;
1827.0;1777.1;;;;-0.76446164;0.51209646;-0.9915353;;;;;;;;;;;;;;;
1827.0;1777.1;;;;-0.76669323;0.52488333;-0.99604046;;;;;;;;;;;;;;;
1827.0;1777.1;;;;-0.7707025;0.5392266;-1.0013353;;;;;;;;;;;;;;;
1827.0;1777.1;;;;-0.7766305;0.55442053;-1.0059358;;;;;;;;;;;;;;;
1828.0;1779.2;;;;;;;;;;;;;;;;;-45.152134;93.65368;-118.43471;;1677.5
1828.0;1779.2;;;;;;;;;;;;;;1.0682088;0.4112064;-0.5190588;;;;;1677.5
1828.0;1779.2;;;;;;;;;;;;;;;;;-47.39906;90.04486;-124.195076;;1677.5
1828.0;1779.2;;;;;;;;;;;;;;1.1550035;0.31891844;-0.56971955;;;;;1677.5
1828.0;1779.2;;;;;;;;;;;;;;;;;-45.991394;79.69908;-124.988556;;1687.0
1828.0;1779.2;;;;;;;;;;;;;;1.2554704;0.20355846;-0.69087803;;;;;1687.0
1828.0;1779.2;;;;;;;;;;;;;;;;;-43.477432;67.80068;-124.988556;;1687.0
1828.0;1779.2;;;;;;;;;;;;;;1.4769738;0.16730247;-0.84426403;;;;;1687.0
1828.0;1779.2;;;;;;;;;;;;;;;;;-42.680138;56.558426;-124.988556;;1696.7
1828.0;1779.2;;;;;;;;;;;;;;1.5711539;0.22656941;-0.98690754;;;;;1696.7
1828.0;1779.2;;;;;;;;;;;;;;;;;-43.86273;49.3141;-124.988556;;1696.7
1828.0;1779.2;;;;;;;;;;;;;;1.4125798;0.125309;-1.076632;;;;;1696.7
1828.0;1779.9;;;;;;;;;;;;;;;;;-43.49269;42.348248;-124.22941;;1706.2
1828.0;1779.9;;;;;;;;;;;;;;1.3045442;-0.0700705;-1.1066622;;;;;1706.2
1828.0;1779.9;;;;;;;;;;;;;;;;;-44.072544;36.79769;-121.76122;;1706.2
1828.0;1779.9;;;;;;;;;;;;;;1.2219001;-0.19910276;-1.1181371;;;;;1706.2
1828.0;1779.9;;;;;;;;;;;;;;;;;-47.975098;33.53603;-118.64452;;1715.9
1828.0;1779.9;;;;;;;;;;;;;;1.1355327;-0.29322183;-1.1643422;;;;;1715.9
1828.0;1779.9;;;;;;;;;;;;;;;;;-51.89291;37.76284;-116.042816;;1715.9
1828.0;1779.9;;;;;;;;;;;;;;1.0447706;-0.32428968;-1.1576891;;;;;1715.9
1828.0;1779.9;;;;;;;;;;;;;;;;;-59.236427;45.575577;-114.13541;;1725.5
1828.0;1779.9;;;;;;;;;;;;;;0.9362468;-0.235786;-1.1105685;;;;;1725.5
1828.0;1779.9;;;;;;;;;;;;;;;;;-65.160835;48.73043;-109.90478;;1725.5
1828.0;1779.9;;;;;;;;;;;;;;0.8575091;-0.03540147;-1.0962859;;;;;1725.5
1831.0;1779.8;262143;262143;14778;;;;;;;;;;;;;;;;;;
1831.0;1784.0;;;;;;;;;;23.804438;-19.386885;-4.253517;;;;;;;;;
1831.0;1784.0;;;;;;;0.7068697;-0.13385418;-1.1744133;;;;;;;;;;;;
1831.0;1784.0;;;;;;;;;;25.58977;-20.012512;-5.22248;;;;;;;;;
1831.0;1784.0;;;;;;;0.7209082;-0.13019197;-1.2026124;;;;;;;;;;;;
1831.0;1786.9;;;;-0.7832986;0.57015616;-1.0095178;;;;;;;;;;;;;;;
1831.0;1786.9;;;;-0.7890359;0.5861321;-1.0137254;;;;;;;;;;;;;;;
1831.0;1786.9;;;;-0.793831;0.6012917;-1.0205842;;;;;;;;;;;;;;;
1831.0;1786.9;;;;-0.79813015;0.61632925;-1.0251962;;;;;;;;;;;;;;;
1831.0;1786.9;;;;-0.80197537;0.6299935;-1.028843;;;;;;;;;;;;;;;
1831.0;1793.5;;;;;;;;;;27.794731;-20.012512;-6.130406;;;;;;;;;
1831.0;1793.5;;;;;;;0.7376324;-0.13409834;-1.2380139;;;;;;;;;;;;
1831.0;1793.5;;;;;;;;;;30.17136;-19.379255;-7.0154424;;;;;;;;;
1831.0;1793.5;;;;;;;0.7525864;-0.14252144;-1.2839748;;;;;;;;;;;;
1831.0;1796.9;;;;-0.80638134;0.6425553;-1.0294534;;;;;;;;;;;;;;;
1831.0;1796.9;;;;-0.8111421;0.65539175;-1.0274316;;;;;;;;;;;;;;;
1831.0;1796.9;;;;-0.8164903;0.6679192;-1.0245095;;;;;;;;;;;;;;;
1831.0;1796.9;;;;-0.82205975;0.6807099;-1.0209848;;;;;;;;;;;;;;;
1831.0;1796.9;;;;-0.82805264;0.6943131;-1.0154687;;;;;;;;;;;;;;;
1831.0;1799.9;262143;262143;14773;;;;;;;;;;;;;;;;;;
1883.0;1803.1;;;;;;;;;;32.433548;-18.726921;-7.675405;;;;;;;;;
1883.0;1803.1;;;;;;;0.75045013;-0.14569536;-1.3340251;;;;;;;;;;;;
1883.0;1803.1;;;;;;;;;;35.153507;-17.967772;-7.6906643;;;;;;;;;
1883.0;1803.1;;;;;;;0.74910736;-0.15442365;-1.3714408;;;;;;;;;;;;
1883.0;1805.9;;;;;;;;;;;;;-2114;;;;;;;;
1883.0;1805.9;;;;;;;;;;;;;-2978;;;;;;;;
1883.0;1805.9;;;;;;;;;;;;;-3671;;;;;;;;
1883.0;1805.9;;;;;;;;;;;;;-4215;;;;;;;;
1883.0;1805.9;;;;;;;;;;;;;-4650;;;;;;;;
1883.0;1807.0;;;;-0.83430874;0.7083016;-1.0097352;;;;;;;;;;;;;;;
1883.0;1807.0;;;;-0.8414308;0.72220236;-1.0023156;;;;;;;;;;;;;;;
1883.0;1807.0;;;;-0.84967816;0.7360497;-0.995144;;;;;;;;;;;;;;;
1883.0;1807.0;;;;-0.8597833;0.7492257;-0.98635113;;;;;;;;;;;;;;;
1883.0;1807.0;;;;-0.8704606;0.7617723;-0.97565854;;;;;;;;;;;;;;;
1883.0;1812.6;;;;;;;;;;37.900173;-17.590105;-7.4045534;;;;;;;;;
1883.0;1812.6;;;;;;;0.75569934;-0.17084262;-1.3987854;;;;;;;;;;;;
1883.0;1812.6;;;;;;;;;;40.280617;-16.804255;-6.9620347;;;;;;;;;
1883.0;1812.6;;;;;;;0.75356305;-0.18353832;-1.4280221;;;;;;;;;;;;
1883.0;1816.9;;;;-0.8811685;0.7734109;-0.96255887;;;;;;;;;;;;;;;
1883.0;1816.9;;;;-0.8912431;0.7837068;-0.9501382;;;;;;;;;;;;;;;
1883.0;1816.9;;;;-0.90076077;0.7922708;-0.93984234;;;;;;;;;;;;;;;
1883.0;1816.9;;;;-0.9076997;0.8004571;-0.93011487;;;;;;;;;;;;;;;
1883.0;1816.9;;;;-0.91274655;0.80744183;-0.9229051;;;;;;;;;;;;;;;
1883.0;1820.0;262143;262143;14770;;;;;;;;;;;;;;;;;;
1885.0;1822.2;;;;;;;;;;42.741173;-15.003662;-6.5080724;;;;;;;;;
1885.0;1822.2;;;;;;;0.74507886;-0.18475905;-1.450972;;;;;;;;;;;;
1885.0;1822.2;;;;;;;;;;45.396282;-12.531663;-6.214331;;;;;;;;;
1885.0;1822.2;;;;;;;0.74111146;-0.1920835;-1.4570757;;;;;;;;;;;;
1885.0;1827.1;;;;-0.91690075;0.8129846;-0.91360104;;;;;;;;;;;;;;;
1885.0;1827.1;;;;-0.92108166;0.8184625;-0.90147793;;;;;;;;;;;;;;;
1885.0;1827.1;;;;-0.92411816;0.82252514;-0.8896409;;;;;;;;;;;;;;;
1885.0;1827.1;;;;-0.92733777;0.82553875;-0.87721646;;;;;;;;;;;;;;;
1885.0;1827.1;;;;-0.93127835;0.82823956;-0.86169827;;;;;;;;;;;;;;;
1885.0;1831.8;;;;;;;;;;48.322247;-9.239479;-6.221961;;;;;;;;;
1885.0;1831.8;;;;;;;0.7378155;-0.20386365;-1.4437697;;;;;;;;;;;;
1885.0;1831.8;;;;;;;;;;51.477097;-5.6192203;-6.2715535;;;;;;;;;
1885.0;1831.8;;;;;;;0.7198096;-0.22412793;-1.4287546;;;;;;;;;;;;
1885.0;1837.2;;;;-0.93650067;0.8313333;-0.8443185;;;;;;;;;;;;;;;
1885.0;1837.2;;;;-0.9415628;0.8348657;-0.8302461;;;;;;;;;;;;;;;
1885.0;1837.2;;;;-0.94536984;0.8379861;-0.822487;;;;;;;;;;;;;;;
1885.0;1837.2;;;;-0.9460145;0.8406373;-0.82231915;;;;;;;;;;;;;;;
1885.0;1837.2;;;;-0.9430696;0.84326184;-0.82810986;;;;;;;;;;;;;;;
1888.0;1838.7;;;;;;;;;;;;;;;;;-66.30528;44.831688;-103.45012;;1735.2
1888.0;1838.7;;;;;;;;;;;;;;0.9070101;0.098025456;-1.0901212;;;;;1735.2
1888.0;1838.7;;;;;;;;;;;;;;;;;-65.13413;43.019653;-98.18568;;1735.2
1888.0;1838.7;;;;;;;;;;;;;;0.92568743;0.17700736;-1.0595416;;;;;1735.2
1888.0;1838.7;;;;;;;;;;;;;;;;;-60.815758;41.36021;-92.99371;;1744.9
1888.0;1838.7;;;;;;;;;;;;;;0.95986813;0.2224189;-1.0819422;;;;;1744.9
1888.0;1838.7;;;;;;;;;;;;;;;;;-57.050537;39.429913;-87.2982;;1744.9
1888.0;1838.7;;;;;;;;;;;;;;1.0861537;0.3098239;-1.1615344;;;;;1744.9
1888.0;1838.7;;;;;;;;;;;;;;;;;-56.272316;48.993652;-81.90023;;1754.5
1888.0;1838.7;;;;;;;;;;;;;;1.1052583;0.3418073;-1.1412091;;;;;1754.5
1888.0;1838.7;;;;;;;;;;;;;;;;;-55.581833;56.17313;-78.00531;;1754.5
1888.0;1838.7;;;;;;;;;;;;;;1.1208838;0.3614002;-1.1025116;;;;;1754.5
1888.0;1839.4;;;;;;;;;;;;;;;;;-53.1518;55.604725;-75.44557;;1764.0
1888.0;1839.4;;;;;;;;;;;;;;1.244728;0.4128544;-1.119541;;;;;1764.0
1888.0;1839.4;;;;;;;;;;;;;;;;;-52.4308;60.914944;-76.72353;;1764.0
1888.0;1839.4;;;;;;;;;;;;;;1.2949615;0.44404432;-1.073336;;;;;1764.0
1888.0;1839.4;;;;;;;;;;;;;;;;;-53.014465;61.349834;-76.96005;;1773.7
1888.0;1839.4;;;;;;;;;;;;;;1.322306;0.40278327;-0.9708548;;;;;1773.7
1888.0;1839.4;;;;;;;;;;;;;;;;;-52.529984;52.73217;-71.79479;;1773.7
1888.0;1839.4;;;;;;;;;;;;;;1.3521531;0.24414808;-0.9209876;;;;;1773.7
1888.0;1839.4;;;;;;;;;;;;;;;;;-50.168613;45.41154;-70.0972;;1783.4
1888.0;1839.4;;;;;;;;;;;;;;1.3108921;0.20398572;-0.8938261;;;;;1783.4
1888.0;1839.4;;;;;;;;;;;;;;;;;-43.83221;35.24125;-72.13812;;1783.4
1888.0;1839.4;;;;;;;;;;;;;;1.3373821;0.2042909;-0.88021487;;;;;1783.4
1890.0;1840.1;262143;262143;14772;;;;;;;;;;;;;;;;;;
1890.0;1841.3;;;;;;;;;;54.582355;-2.4262216;-6.3058867;;;;;;;;;
1890.0;1841.3;;;;;;;0.6926481;-0.25232702;-1.4120914;;;;;;;;;;;;
1890.0;1841.3;;;;;;;;;;57.13828;-0.034333322;-6.382183;;;;;;;;;
1890.0;1841.3;;;;;;;0.66945404;-0.27661976;-1.3943297;;;;;;;;;;;;
1890.0;1846.2;;;;;;;;;;;;;-4650;;;;;;;;
1890.0;1846.2;;;;;;;;;;;;;-4172;;;;;;;;
1890.0;1846.2;;;;;;;;;;;;;-3661;;;;;;;;
1890.0;1846.2;;;;;;;;;;;;;-3315;;;;;;;;
1890.0;1846.2;;;;;;;;;;;;;-2821;;;;;;;;
1890.0;1847.1;;;;-0.93522274;0.8460542;-0.8376695;;;;;;;;;;;;;;;
1890.0;1847.1;;;;-0.92375195;0.84814465;-0.84534466;;;;;;;;;;;;;;;
1890.0;1847.1;;;;-0.9104234;0.8494836;-0.8512727;;;;;;;;;;;;;;;
1890.0;1847.1;;;;-0.89525235;0.8494798;-0.85598385;;;;;;;;;;;;;;;
1890.0;1847.1;;;;-0.8810464;0.8483125;-0.8582803;;;;;;;;;;;;;;;
1890.0;1850.9;;;;;;;;;;59.305096;1.9188513;-6.7369614;;;;;;;;;
1890.0;1850.9;;;;;;;0.65724665;-0.29914242;-1.376873;;;;;;;;;;;;
1890.0;1850.9;;;;;;;;;;61.05609;3.6355176;-7.4541464;;;;;;;;;
1890.0;1850.9;;;;;;;0.64839625;-0.31116673;-1.3531296;;;;;;;;;;;;
1890.0;1857.2;;;;-0.869156;0.8463632;-0.85852444;;;;;;;;;;;;;;;
1890.0;1857.2;;;;-0.8606149;0.8437196;-0.85601056;;;;;;;;;;;;;;;
1890.0;1857.2;;;;-0.85593426;0.8410531;-0.8509332;;;;;;;;;;;;;;;
1890.0;1857.2;;;;-0.85592663;0.8389665;-0.84440625;;;;;;;;;;;;;;;
1890.0;1857.2;;;;-0.85808194;0.83775723;-0.8384172;;;;;;;;;;;;;;;
1944.0;1860.5;;;;;;;;;;62.326427;4.7074804;-8.255258;;;;;;;;;
1944.0;1860.5;;;;;;;0.63124484;-0.31818599;-1.3248085;;;;;;;;;;;;
1944.0;1860.5;;;;;;;;;;63.409836;5.00885;-8.934294;;;;;;;;;
1944.0;1860.5;;;;;;;0.6105533;-0.32789087;-1.2938627;;;;;;;;;;;;
1944.0;1860.3;262143;262143;14779;;;;;;;;;;;;;;;;;;
1944.0;1867.3;;;;-0.863865;0.83679974;-0.8302156;;;;;;;;;;;;;;;
1944.0;1867.3;;;;-0.8676263;0.83449566;-0.81857693;;;;;;;;;;;;;;;
1944.0;1867.3;;;;-0.8709947;0.83031476;-0.8056947;;;;;;;;;;;;;;;
1944.0;1867.3;;;;-0.8753587;0.8241197;-0.7954179;;;;;;;;;;;;;;;
1944.0;1867.3;;;;-0.8790208;0.8170892;-0.7892724;;;;;;;;;;;;;;;
1944.0;1870.0;;;;;;;;;;63.909576;5.062258;-9.624775;;;;;;;;;
1944.0;1870.0;;;;;;;0.600177;-0.33942688;-1.2588274;;;;;;;;;;;;
1944.0;1870.0;;;;;;;;;;63.890503;4.5243692;-10.532701;;;;;;;;;
1944.0;1870.0;;;;;;;0.5928526;-0.35065767;-1.2220222;;;;;;;;;;;;
1944.0;1877.2;;;;-0.8795091;0.81043637;-0.78442395;;;;;;;;;;;;;;;
1944.0;1877.2;;;;-0.8788606;0.80469525;-0.77606213;;;;;;;;;;;;;;;
1944.0;1877.2;;;;-0.879902;0.79763806;-0.76363003;;;;;;;;;;;;;;;
1944.0;1877.2;;;;-0.8809701;0.7902452;-0.74677664;;;;;;;;;;;;;;;
1944.0;1877.2;;;;-0.88137066;0.7836;-0.72858816;;;;;;;;;;;;;;;
1944.0;1879.5;;;;;;;;;;63.516647;3.971221;-11.5970335;;;;;;;;;
1944.0;1879.5;;;;;;;0.5818659;-0.36115605;-1.1848506;;;;;;;;;;;;
1944.0;1879.5;;;;;;;;;;62.894836;3.4142585;-12.493514;;;;;;;;;
1944.0;1879.5;;;;;;;0.57350385;-0.36548966;-1.1479232;;;;;;;;;;;;
1946.0;1880.4;262143;262143;14771;;;;;;;;;;;;;;;;;;
1946.0;1886.4;;;;;;;;;;;;;-1787;;;;;;;;
1946.0;1886.4;;;;;;;;;;;;;-389;;;;;;;;
1946.0;1886.4;;;;;;;;;;;;;853;;;;;;;;
1946.0;1886.4;;;;;;;;;;;;;1891;;;;;;;;
1946.0;1886.4;;;;;;;;;;;;;2911;;;;;;;;
1946.0;1887.3;;;;-0.88216794;0.77728283;-0.7121888;;;;;;;;;;;;;;;
1946.0;1887.3;;;;-0.8799249;0.7730218;-0.69582754;;;;;;;;;;;;;;;
1946.0;1887.3;;;;-0.87370694;0.77030957;-0.6790009;;;;;;;;;;;;;;;
1946.0;1887.3;;;;-0.8652841;0.76739514;-0.6632233;;;;;;;;;;;;;;;
1946.0;1887.3;;;;-0.8521348;0.76451504;-0.64418036;;;;;;;;;;;;;;;
1946.0;1889.1;;;;;;;;;;61.95639;2.9602954;-13.134403;;;;;;;;;
1946.0;1889.1;;;;;;;0.56642354;-0.364391;-1.1137425;;;;;;;;;;;;
1946.0;1889.1;;;;;;;;;;60.655537;2.803888;-13.653218;;;;;;;;;
1946.0;1889.1;;;;;;;0.55922115;-0.36072877;-1.0801722;;;;;;;;;;;;
1946.0;1897.4;;;;-0.8365098;0.76137173;-0.6229134;;;;;;;;;;;;;;;
1946.0;1897.4;;;;-0.81957257;0.75815594;-0.6015931;;;;;;;;;;;;;;;
1946.0;1897.4;;;;-0.8031541;0.75411236;-0.5824509;;;;;;;;;;;;;;;
1946.0;1897.4;;;;-0.7866708;0.7492257;-0.5661774;;;;;;;;;;;;;;;
1946.0;1897.4;;;;-0.7685472;0.7447358;-0.5493813;;;;;;;;;;;;;;;
1946.0;1898.7;;;;;;;;;;59.209724;2.6322215;-14.12244;;;;;;;;;
1946.0;1898.7;;;;;;;0.5495773;-0.35181737;-1.0475173;;;;;;;;;;;;
1946.0;1898.7;;;;;;;;;;57.500687;2.113407;-14.4543295;;;;;;;;;
1946.0;1898.7;;;;;;;0.54158145;-0.3441267;-1.0218208;;;;;;;;;;;;
1948.0;1899.4;;;;;;;;;;;;;;;;;-40.02121;31.582844;-75.20524;;1793.0
1948.0;1899.4;;;;;;;;;;;;;;1.2396008;0.14001893;-0.82808924;;;;;1793.0
1948.0;1899.4;;;;;;;;;;;;;;;;;-34.45158;28.000732;-75.758385;;1793.0
1948.0;1899.4;;;;;;;;;;;;;;1.160802;0.111636706;-0.75045013;;;;;1793.0
1948.0;1899.4;;;;;;;;;;;;;;;;;-29.534288;21.538439;-74.18287;;1802.6
1948.0;1899.4;;;;;;;;;;;;;;1.0840786;0.10211493;-0.690817;;;;;1802.6
1948.0;1899.4;;;;;;;;;;;;;;;;;-25.151066;16.361736;-70.35279;;1802.6
1948.0;1899.4;;;;;;;;;;;;;;1.0614338;0.1477096;-0.6493118;;;;;1802.6
1948.0;1899.4;;;;;;;;;;;;;;;;;-22.312845;16.743217;-64.96246;;1812.1
1948.0;1899.4;;;;;;;;;;;;;;1.0093081;0.21350749;-0.5611133;;;;;1812.1
1948.0;1899.4;;;;;;;;;;;;;;;;;-20.218512;14.099551;-57.9165;;1812.1
1948.0;1899.4;;;;;;;;;;;;;;0.94351023;0.27729118;-0.48304698;;;;;1812.1
1948.0;1900.2;;;;;;;;;;;;;;;;;-18.730736;8.003479;-49.439987;;1821.7
1948.0;1900.2;;;;;;;;;;;;;;0.90755945;0.3211768;-0.41230506;;;;;1821.7
1948.0;1900.2;;;;;;;;;;;;;;;;;-18.890959;2.9145176;-39.769432;;1821.7
1948.0;1900.2;;;;;;;;;;;;;;0.87203586;0.34650716;-0.3249611;;;;;1821.7
1948.0;1900.2;;;;;;;;;;;;;;;;;-21.42018;-1.7853328;-29.06888;;1831.3
1948.0;1900.2;;;;;;;;;;;;;;0.85116124;0.33680227;-0.2602008;;;;;1831.3
1948.0;1900.2;;;;;;;;;;;;;;;;;-25.46388;-4.5167394;-18.429365;;1831.3
1948.0;1900.2;;;;;;;;;;;;;;0.82662433;0.31141087;-0.20599994;;;;;1831.3
1948.0;1900.2;;;;;;;;;;;;;;;;;-29.763178;-5.8175907;-8.720664;;1841.0
1948.0;1900.2;;;;;;;;;;;;;;0.79171115;0.2837611;-0.16376232;;;;;1841.0
1948.0;1900.2;;;;;;;;;;;;;;;;;-32.57851;-7.698294;-0.32044435;;1841.0
1948.0;1900.2;;;;;;;;;;;;;;0.737083;0.237434;-0.12933744;;;;;1841.0
1953.0;1900.5;262143;262143;14775;;;;;;;;;;;;;;;;;;
1953.0;1907.4;;;;-0.7503549;0.73968893;-0.53226095;;;;;;;;;;;;;;;
1953.0;1907.4;;;;-0.73016363;0.7344437;-0.514103;;;;;;;;;;;;;;;
1953.0;1907.4;;;;-0.7088242;0.7299157;-0.49613577;;;;;;;;;;;;;;;
1953.0;1907.4;;;;-0.691269;0.72404486;-0.47712713;;;;;;;;;;;;;;;
1953.0;1907.4;;;;-0.67719656;0.7170716;-0.46083838;;;;;;;;;;;;;;;
1953.0;1908.2;;;;;;;;;;55.65813;1.9608142;-14.835811;;;;;;;;;
1953.0;1908.2;;;;;;;0.53956723;-0.33777887;-0.99502546;;;;;;;;;;;;
1953.0;1908.2;;;;;;;;;;53.823208;2.1019626;-15.327921;;;;;;;;;
1953.0;1908.2;;;;;;;0.54615927;-0.3259377;-0.9647511;;;;;;;;;;;;
1953.0;1917.3;;;;-0.66193396;0.7093125;-0.4445191;;;;;;;;;;;;;;;
1953.0;1917.3;;;;-0.6458016;0.7019082;-0.42436987;;;;;;;;;;;;;;;
1953.0;1917.3;;;;-0.6321755;0.694851;-0.40748602;;;;;;;;;;;;;;;
1953.0;1917.3;;;;-0.617569;0.686081;-0.40170676;;;;;;;;;;;;;;;
1953.0;1917.3;;;;-0.6054078;0.680069;-0.394085;;;;;;;;;;;;;;;
1953.0;1917.7;;;;;;;;;;52.43843;3.322703;-15.86581;;;;;;;;;
1953.0;1917.7;;;;;;;0.55275124;-0.31403548;-0.91763055;;;;;;;;;;;;
1953.0;1917.7;;;;;;;;;;50.534836;4.2497025;-15.808588;;;;;;;;;
1953.0;1917.7;;;;;;;0.5188147;-0.29132968;-0.924894;;;;;;;;;;;;
1953.0;1920.6;262143;262143;14782;;;;;;;;;;;;;;;;;;
1953.0;1926.5;;;;;;;;;;;;;3668;;;;;;;;
1953.0;1926.5;;;;;;;;;;;;;3839;;;;;;;;
1953.0;1926.5;;;;;;;;;;;;;3693;;;;;;;;
1953.0;1926.5;;;;;;;;;;;;;3747;;;;;;;;
1953.0;1926.5;;;;;;;;;;;;;4019;;;;;;;;
2003.0;1927.1;;;;;;;;;;48.123875;2.990814;-15.125736;;;;;;;;;
2003.0;1927.1;;;;;;;0.48121586;-0.2862636;-0.9295938;;;;;;;;;;;;
2003.0;1927.1;;;;;;;;;;46.319466;-0.1678518;-15.083773;;;;;;;;;
2003.0;1927.1;;;;;;;0.46998504;-0.28583637;-0.91293067;;;;;;;;;;;;
2003.0;1927.2;;;;-0.5946656;0.6772614;-0.3802567;;;;;;;;;;;;;;;
2003.0;1927.2;;;;-0.58440024;0.67425543;-0.3619385;;;;;;;;;;;;;;;
2003.0;1927.2;;;;-0.5770646;0.66904837;-0.34253696;;;;;;;;;;;;;;;
2003.0;1927.2;;;;-0.5722237;0.66358954;-0.32400897;;;;;;;;;;;;;;;
2003.0;1927.2;;;;-0.56851584;0.65998465;-0.30510333;;;;;;;;;;;;;;;
2003.0;1936.7;;;;;;;;;;43.717766;-1.9684439;-15.179143;;;;;;;;;
2003.0;1936.7;;;;;;;0.48402357;-0.28138065;-0.8893704;;;;;;;;;;;;
2003.0;1936.7;;;;;;;;;;41.192356;-1.5488143;-15.091403;;;;;;;;;
2003.0;1936.7;;;;;;;0.49586475;-0.2652669;-0.87618643;;;;;;;;;;;;
2003.0;1937.2;;;;-0.56470877;0.6616555;-0.2868462;;;;;;;;;;;;;;;
2003.0;1937.2;;;;-0.561493;0.66455084;-0.27040485;;;;;;;;;;;;;;;
2003.0;1937.2;;;;-0.55772024;0.6675988;-0.24641803;;;;;;;;;;;;;;;
2003.0;1937.2;;;;-0.5440751;0.6669007;-0.2342644;;;;;;;;;;;;;;;
2003.0;1937.2;;;;-0.5152131;0.66309744;-0.23347095;;;;;;;;;;;;;;;
2003.0;1940.6;262143;262143;14778;;;;;;;;;;;;;;;;;;
2003.0;1946.3;;;;;;;;;;39.38032;-0.839259;-14.790033;;;;;;;;;
2003.0;1946.3;;;;;;;0.50630206;-0.24628437;-0.85744804;;;;;;;;;;;;
2003.0;1946.3;;;;;;;;;;37.785732;-0.16403699;-14.515367;;;;;;;;;
2003.0;1946.3;;;;;;;0.5088046;-0.23120824;-0.8316294;;;;;;;;;;;;
2006.0;1947.4;;;;-0.4957314;0.6591721;-0.21573642;;;;;;;;;;;;;;;
2006.0;1947.4;;;;-0.4787255;0.6580239;-0.2040253;;;;;;;;;;;;;;;
2006.0;1947.4;;;;-0.4685784;0.66078955;-0.19601825;;;;;;;;;;;;;;;
2006.0;1947.4;;;;-0.46403128;0.66434485;-0.18606569;;;;;;;;;;;;;;;
2006.0;1947.4;;;;-0.4601441;0.66751486;-0.17336656;;;;;;;;;;;;;;;
2006.0;1955.9;;;;;;;;;;36.252174;0.49211097;-14.419996;;;;;;;;;
2006.0;1955.9;;;;;;;0.509476;-0.23462631;-0.8084353;;;;;;;;;;;;
2006.0;1955.9;;;;;;;;;;34.390545;0.6904813;-14.656514;;;;;;;;;
2006.0;1955.9;;;;;;;0.49916074;-0.24597919;-0.7928709;;;;;;;;;;;;
2006.0;1957.4;;;;-0.4583817;0.6712685;-0.15924455;;;;;;;;;;;;;;;
2006.0;1957.4;;;;-0.45621878;0.6729737;-0.14628984;;;;;;;;;;;;;;;
2006.0;1957.4;;;;-0.4525109;0.6747971;-0.13526918;;;;;;;;;;;;;;;
2006.0;1957.4;;;;-0.44526678;0.6768494;-0.12663652;;;;;;;;;;;;;;;
2006.0;1957.4;;;;-0.43550116;0.6796914;-0.11823274;;;;;;;;;;;;;;;
2007.0;1959.5;;;;;;;;;;;;;;;;;-33.539845;-11.68096;6.7712946;;1850.7
2007.0;1959.5;;;;;;;;;;;;;;0.6899014;0.19342631;-0.12616351;;;;;1850.7
2007.0;1959.5;;;;;;;;;;;;;;;;;-33.30714;-15.465255;13.168737;;1850.7
2007.0;1959.5;;;;;;;;;;;;;;0.65761286;0.14380322;-0.110721156;;;;;1850.7
2007.0;1959.5;;;;;;;;;;;;;;;;;-32.067326;-19.688253;19.444107;;1860.3
2007.0;1959.5;;;;;;;;;;;;;;0.6361278;0.11999878;-0.110293895;;;;;1860.3
2007.0;1959.5;;;;;;;;;;;;;;;;;-29.725029;-23.419142;24.834436;;1860.3
2007.0;1959.5;;;;;;;;;;;;;;0.6259346;0.096499525;-0.12652974;;;;;1860.3
2007.0;1959.5;;;;;;;;;;;;;;;;;-25.37614;-26.375622;29.007843;;1869.9
2007.0;1959.5;;;;;;;;;;;;;;0.6070742;0.06616413;-0.16919462;;;;;1869.9
2007.0;1959.5;;;;;;;;;;;;;;;;;-18.375957;-28.824732;31.872768;;1869.9
2007.0;1959.5;;;;;;;;;;;;;;0.5777154;0.034485918;-0.21045564;;;;;1869.9
2007.0;1960.2;;;;;;;;;;;;;;;;;-9.8155155;-32.47551;34.051025;;1879.5
2007.0;1960.2;;;;;;;;;;;;;;0.5555589;-0.008850368;-0.24091311;;;;;1879.5
2007.0;1960.2;;;;;;;;;;;;;;;;;-1.3771478;-36.81677;36.320843;;1879.5
2007.0;1960.2;;;;;;;;;;;;;;0.5350505;-0.062196724;-0.2511063;;;;;1879.5
2007.0;1960.2;;;;;;;;;;;;;;;;;5.9663687;-40.215763;38.239693;;1889.1
2007.0;1960.2;;;;;;;;;;;;;;0.53798026;-0.10242012;-0.2478103;;;;;1889.1
2007.0;1960.2;;;;;;;;;;;;;;;;;13.153478;-39.74273;39.880062;;1889.1
2007.0;1960.2;;;;;;;;;;;;;;0.54573196;-0.1436201;-0.22779016;;;;;1889.1
2007.0;1960.2;;;;;;;;;;;;;;;;;20.935698;-36.80914;41.57384;;1898.7
2007.0;1960.2;;;;;;;;;;;;;;0.5462203;-0.17242958;-0.20801416;;;;;1898.7
2007.0;1960.2;;;;;;;;;;;;;;;;;29.335918;-33.478806;43.00821;;1898.7
2007.0;1960.2;;;;;;;;;;;;;;0.54573196;-0.19129002;-0.19483016;;;;;1898.7
2008.0;1960.6;262143;262143;14791;;;;;;;;;;;;;;;;;;
2008.0;1965.3;;;;;;;;;;32.757805;1.1368145;-14.656514;;;;;;;;;
2008.0;1965.3;;;;;;;0.48152104;-0.25336465;-0.77718437;;;;;;;;;;;;
2008.0;1965.3;;;;;;;;;;31.014435;1.9837031;-14.0957365;;;;;;;;;
2008.0;1965.3;;;;;;;0.4721824;-0.24646749;-0.76277965;;;;;;;;;;;;
2008.0;1966.6;;;;;;;;;;;;;4139;;;;;;;;
2008.0;1966.6;;;;;;;;;;;;;3831;;;;;;;;
2008.0;1966.6;;;;;;;;;;;;;3229;;;;;;;;
2008.0;1966.6;;;;;;;;;;;;;2683;;;;;;;;
2008.0;1966.6;;;;;;;;;;;;;2439;;;;;;;;
2008.0;1967.3;;;;-0.42135626;0.6829758;-0.10869981;;;;;;;;;;;;;;;
2008.0;1967.3;;;;-0.4062577;0.6874886;-0.104331985;;;;;;;;;;;;;;;
2008.0;1967.3;;;;-0.38899618;0.6916352;-0.10606386;;;;;;;;;;;;;;;
2008.0;1967.3;;;;-0.3705254;0.6975251;-0.10782625;;;;;;;;;;;;;;;
2008.0;1967.3;;;;-0.35406116;0.70071036;-0.106678024;;;;;;;;;;;;;;;
2008.0;1974.8;;;;;;;;;;29.499954;2.990814;-13.63033;;;;;;;;;
2008.0;1974.8;;;;;;;0.47199926;-0.23078097;-0.7509995;;;;;;;;;;;;
2008.0;1974.8;;;;;;;;;;28.317362;4.692221;-13.542589;;;;;;;;;
2008.0;1974.8;;;;;;;0.47163305;-0.20978424;-0.73500776;;;;;;;;;;;;
2008.0;1977.3;;;;-0.33946994;0.701397;-0.10340883;;;;;;;;;;;;;;;
2008.0;1977.3;;;;-0.32839587;0.7015801;-0.101432815;;;;;;;;;;;;;;;
2008.0;1977.3;;;;-0.31871417;0.7030602;-0.10020448;;;;;;;;;;;;;;;
2008.0;1977.3;;;;-0.30671695;0.70410925;-0.09807207;;;;;;;;;;;;;;;
2008.0;1977.3;;;;-0.29503253;0.706749;-0.0961075;;;;;;;;;;;;;;;
2008.0;1980.7;262143;262143;14803;;;;;;;;;;;;;;;;;;
2063.0;1984.4;;;;;;;;;;27.2454;6.591998;-13.405255;;;;;;;;;
2063.0;1984.4;;;;;;;0.46986297;-0.19476913;-0.72078615;;;;;;;;;;;;
2063.0;1984.4;;;;;;;;;;26.585438;8.697775;-13.164922;;;;;;;;;
2063.0;1984.4;;;;;;;0.46650594;-0.18677329;-0.70241404;;;;;;;;;;;;
2063.0;1987.3;;;;-0.28612903;0.710125;-0.09521867;;;;;;;;;;;;;;;
2063.0;1987.3;;;;-0.2842255;0.7130509;-0.09838487;;;;;;;;;;;;;;;
2063.0;1987.3;;;;-0.2842789;0.7160607;-0.103260055;;;;;;;;;;;;;;;
2063.0;1987.3;;;;-0.27980426;0.7168122;-0.10807039;;;;;;;;;;;;;;;
2063.0;1987.3;;;;-0.27208713;0.716507;-0.11067201;;;;;;;;;;;;;;;
2063.0;1993.6;;;;;;;;;;26.242104;10.647145;-13.168737;;;;;;;;;
2063.0;1993.6;;;;;;;0.46790978;-0.1848201;-0.68318737;;;;;;;;;;;;
2063.0;1993.6;;;;;;;;;;25.88351;12.203589;-13.611256;;;;;;;;;
2063.0;1993.6;;;;;;;0.45863217;-0.18720053;-0.67183447;;;;;;;;;;;;
2063.0;1997.1;;;;-0.26385882;0.7172509;-0.11054231;;;;;;;;;;;;;;;
2063.0;1997.1;;;;-0.25688556;0.71758276;-0.11154176;;;;;;;;;;;;;;;
2063.0;1997.1;;;;-0.25423816;0.7171975;-0.11450197;;;;;;;;;;;;;;;
2063.0;1997.1;;;;-0.25387958;0.7164765;-0.118064895;;;;;;;;;;;;;;;
2063.0;1997.1;;;;-0.2528496;0.71472937;-0.118438736;;;;;;;;;;;;;;;
2063.0;2000.6;262143;262143;14796;;;;;;;;;;;;;;;;;;
2063.0;2003.2;;;;;;;;;;25.543993;13.359478;-14.015625;;;;;;;;;
2063.0;2003.2;;;;;;;0.43739128;-0.1866512;-0.6674398;;;;;;;;;;;;
2063.0;2003.2;;;;;;;;;;24.960325;13.977477;-13.756218;;;;;;;;;
2063.0;2003.2;;;;;;;0.41810358;-0.17847225;-0.66835535;;;;;;;;;;;;
2065.0;2006.6;;;;;;;;;;;;;2449;;;;;;;;
2065.0;2006.6;;;;;;;;;;;;;2422;;;;;;;;
2065.0;2006.6;;;;;;;;;;;;;2162;;;;;;;;
2065.0;2006.6;;;;;;;;;;;;;1724;;;;;;;;
2065.0;2006.6;;;;;;;;;;;;;1361;;;;;;;;
2065.0;2007.2;;;;-0.25177005;0.71112067;-0.12457277;;;;;;;;;;;;;;;
2065.0;2007.2;;;;-0.24911883;0.70489126;-0.13354494;;;;;;;;;;;;;;;
2065.0;2007.2;;;;-0.24599841;0.6971322;-0.14317323;;;;;;;;;;;;;;;
2065.0;2007.2;;;;-0.24522403;0.6893082;-0.14967729;;;;;;;;;;;;;;;
2065.0;2007.2;;;;-0.2439461;0.6823197;-0.153183;;;;;;;;;;;;;;;
2065.0;2012.8;;;;;;;;;;24.277475;14.282662;-13.40907;;;;;;;;;
2065.0;2012.8;;;;;;;0.4096805;-0.17200232;-0.67085785;;;;;;;;;;;;
2065.0;2012.8;;;;;;;;;;23.594624;14.038514;-13.878292;;;;;;;;;
2065.0;2012.8;;;;;;;0.41114536;-0.16840114;-0.6722617;;;;;;;;;;;;
2065.0;2017.3;;;;-0.24664691;0.6761437;-0.15804292;;;;;;;;;;;;;;;
2065.0;2017.3;;;;-0.250721;0.67083365;-0.16321184;;;;;;;;;;;;;;;
2065.0;2017.3;;;;-0.25542453;0.6652375;-0.16320802;;;;;;;;;;;;;;;
2065.0;2017.3;;;;-0.26189044;0.6588288;-0.16916658;;;;;;;;;;;;;;;
2065.0;2017.3;;;;-0.2701302;0.65341955;-0.17128374;;;;;;;;;;;;;;;
2066.0;2019.0;;;;;;;;;;;;;;;;;37.369915;-30.301064;44.198433;;1908.4
2066.0;2019.0;;;;;;;;;;;;;;0.54573196;-0.20435195;-0.1779229;;;;;1908.4
2066.0;2019.0;;;;;;;;;;;;;;;;;44.38917;-27.74514;45.22843;;1908.4
2066.0;2019.0;;;;;;;;;;;;;;0.5580615;-0.1939146;-0.16321298;;;;;1908.4
2066.0;2019.0;;;;;;;;;;;;;;;;;49.5468;-26.00177;46.285133;;1918.0
2066.0;2019.0;;;;;;;;;;;;;;0.57405317;-0.17957091;-0.15723136;;;;;1918.0
2066.0;2019.0;;;;;;;;;;;;;;;;;52.854244;-24.616993;47.09769;;1918.0
2066.0;2019.0;;;;;;;;;;;;;;0.60506;-0.15735343;-0.1568041;;;;;1918.0
2066.0;2019.0;;;;;;;;;;;;;;;;;54.311504;-23.13303;47.795803;;1927.7
2066.0;2019.0;;;;;;;;;;;;;;0.6369213;-0.15155491;-0.16699728;;;;;1927.7
2066.0;2019.0;;;;;;;;;;;;;;;;;56.127354;-20.699179;47.92932;;1927.7
2066.0;2019.0;;;;;;;;;;;;;;0.6400342;-0.18543047;-0.19629505;;;;;1927.7
2066.0;2020.2;;;;;;;;;;;;;;;;;59.789577;-18.13181;47.482986;;1937.3
2066.0;2020.2;;;;;;;;;;;;;;0.62227243;-0.23236793;-0.22876675;;;;;1937.3
2066.0;2020.2;;;;;;;;;;;;;;;;;65.504166;-17.109438;47.143467;;1937.3
2066.0;2020.2;;;;;;;;;;;;;;0.6000549;-0.26477858;-0.25800347;;;;;1937.3
2066.0;2020.2;;;;;;;;;;;;;;;;;71.98935;-18.35307;47.261726;;1946.8
2066.0;2020.2;;;;;;;;;;;;;;0.58857995;-0.2840663;-0.28644672;;;;;1946.8
2066.0;2020.2;;;;;;;;;;;;;;;;;78.852196;-20.49318;47.71569;;1946.8
2066.0;2020.2;;;;;;;;;;;;;;0.5796686;-0.27845088;-0.30060732;;;;;1946.8
2066.0;2020.2;;;;;;;;;;;;;;;;;84.89487;-22.00003;47.837765;;1956.5
2066.0;2020.2;;;;;;;;;;;;;;0.55543685;-0.253914;-0.2890103;;;;;1956.5
2066.0;2020.2;;;;;;;;;;;;;;;;;89.36964;-25.27314;48.360394;;1956.5
2066.0;2020.2;;;;;;;;;;;;;;0.5561083;-0.20325327;-0.27777946;;;;;1956.5
2072.0;2020.6;262143;262143;14787;;;;;;;;;;;;;;;;;;
2072.0;2022.2;;;;;;;;;;22.91177;14.13007;-14.824367;;;;;;;;;
2072.0;2022.2;;;;;;;0.4163335;-0.16815698;-0.67195654;;;;;;;;;;;;
2072.0;2022.2;;;;;;;;;;22.331919;14.801477;-15.896328;;;;;;;;;
2072.0;2022.2;;;;;;;0.41920224;-0.16797388;-0.6715293;;;;;;;;;;;;
2072.0;2027.1;;;;-0.28114322;0.6494866;-0.17088701;;;;;;;;;;;;;;;
2072.0;2027.1;;;;-0.29129794;0.64542395;-0.17224886;;;;;;;;;;;;;;;
2072.0;2027.1;;;;-0.30077747;0.64153296;-0.1725464;;;;;;;;;;;;;;;
2072.0;2027.1;;;;-0.31052783;0.6381722;-0.17346193;;;;;;;;;;;;;;;
2072.0;2027.1;;;;-0.31892398;0.63504034;-0.17171861;;;;;;;;;;;;;;;
2072.0;2031.8;;;;;;;;;;21.828365;16.338848;-16.880552;;;;;;;;;
2072.0;2031.8;;;;;;;0.4177984;-0.16614276;-0.67183447;;;;;;;;;;;;
2072.0;2031.8;;;;;;;;;;21.21418;17.693106;-17.872402;;;;;;;;;
2072.0;2031.8;;;;;;;0.4148076;-0.16144292;-0.671041;;;;;;;;;;;;
2072.0;2037.1;;;;-0.32527545;0.6313706;-0.16937639;;;;;;;;;;;;;;;
2072.0;2037.1;;;;-0.3315163;0.6277161;-0.16709138;;;;;;;;;;;;;;;
2072.0;2037.1;;;;-0.33879474;0.62616736;-0.16339494;;;;;;;;;;;;;;;
2072.0;2037.1;;;;-0.34552005;0.62544256;-0.1596451;;;;;;;;;;;;;;;
2072.0;2037.1;;;;-0.35145953;0.62471014;-0.15620805;;;;;;;;;;;;;;;
2072.0;2040.7;262143;262143;14791;;;;;;;;;;;;;;;;;;
2123.0;2041.3;;;;;;;;;;20.729698;19.230476;-19.047365;;;;;;;;;
2123.0;2041.3;;;;;;;0.40833765;-0.16003907;-0.66457105;;;;;;;;;;;;
2123.0;2041.3;;;;;;;;;;20.241402;20.634327;-20.355846;;;;;;;;;
2123.0;2041.3;;;;;;;0.39722893;-0.15784173;-0.65181434;;;;;;;;;;;;
2123.0;2046.6;;;;;;;;;;;;;1225;;;;;;;;
2123.0;2046.6;;;;;;;;;;;;;1225;;;;;;;;
2123.0;2046.6;;;;;;;;;;;;;1216;;;;;;;;
2123.0;2046.6;;;;;;;;;;;;;1105;;;;;;;;
2123.0;2046.6;;;;;;;;;;;;;897;;;;;;;;
2123.0;2047.1;;;;-0.35762408;0.625248;-0.15371706;;;;;;;;;;;;;;;
2123.0;2047.1;;;;-0.36356357;0.6251984;-0.15067293;;;;;;;;;;;;;;;
2123.0;2047.1;;;;-0.36886218;0.62543494;-0.14689638;;;;;;;;;;;;;;;
2123.0;2047.1;;;;-0.3747559;0.6252747;-0.14240648;;;;;;;;;;;;;;;
2123.0;2047.1;;;;-0.3805352;0.6248284;-0.13843156;;;;;;;;;;;;;;;
2123.0;2050.6;;;;;;;;;;19.871365;21.652884;-21.40492;;;;;;;;;
2123.0;2050.6;;;;;;;0.3836787;-0.1596118;-0.63686025;;;;;;;;;;;;
2123.0;2050.6;;;;;;;;;;19.589067;22.465437;-22.350992;;;;;;;;;
2123.0;2050.6;;;;;;;0.37794122;-0.1657155;-0.6168401;;;;;;;;;;;;
2123.0;2056.9;;;;-0.38537985;0.6231347;-0.13567354;;;;;;;;;;;;;;;
2123.0;2056.9;;;;-0.38740164;0.620411;-0.13418199;;;;;;;;;;;;;;;
2123.0;2056.9;;;;-0.38700873;0.616829;-0.1333542;;;;;;;;;;;;;;;
2123.0;2056.9;;;;-0.38655096;0.612526;-0.13412096;;;;;;;;;;;;;;;
2123.0;2056.9;;;;-0.38608557;0.60845953;-0.13424303;;;;;;;;;;;;;;;
2123.0;2060.1;;;;;;;;;;19.222847;23.514511;-23.358105;;;;;;;;;
2123.0;2060.1;;;;;;;0.37775812;-0.16791284;-0.59468365;;;;;;;;;;;;
2123.0;2060.1;;;;;;;;;;19.05118;25.009918;-24.578846;;;;;;;;;
2123.0;2060.1;;;;;;;0.3810541;-0.1617481;-0.57136756;;;;;;;;;;;;
2127.0;2060.5;262143;262143;14783;;;;;;;;;;;;;;;;;;
2127.0;2067.0;;;;-0.3861199;0.60547644;-0.13567735;;;;;;;;;;;;;;;
2127.0;2067.0;;;;-0.38556677;0.6037255;-0.13694383;;;;;;;;;;;;;;;
2127.0;2067.0;;;;-0.38607413;0.6031266;-0.13608171;;;;;;;;;;;;;;;
2127.0;2067.0;;;;-0.3872872;0.6040688;-0.13570406;;;;;;;;;;;;;;;
2127.0;2067.0;;;;-0.3899384;0.6055985;-0.1372452;;;;;;;;;;;;;;;
2127.0;2069.7;;;;;;;;;;19.238106;26.367992;-26.2154;;;;;;;;;
2127.0;2069.7;;;;;;;0.37885678;-0.15344706;-0.5542772;;;;;;;;;;;;
2127.0;2069.7;;;;;;;;;;19.554733;27.226326;-27.802362;;;;;;;;;
2127.0;2069.7;;;;;;;0.36646625;-0.14929655;-0.54573196;;;;;;;;;;;;
2127.0;2077.1;;;;-0.39254004;0.60752875;-0.14006425;;;;;;;;;;;;;;;
2127.0;2077.1;;;;-0.39437872;0.6106873;-0.14289857;;;;;;;;;;;;;;;
2127.0;2077.1;;;;-0.39342886;0.6156121;-0.1452408;;;;;;;;;;;;;;;
2127.0;2077.1;;;;-0.39119726;0.6217423;-0.14693452;;;;;;;;;;;;;;;
2127.0;2077.1;;;;-0.38860327;0.62892157;-0.14989091;;;;;;;;;;;;;;;
2130.0;2079.1;;;;;;;;;;;;;;;;;90.571304;-28.656881;50.25254;;1966.2
2130.0;2079.1;;;;;;;;;;;;;;0.60701317;-0.14575641;-0.24475844;;;;;1966.2
2130.0;2079.1;;;;;;;;;;;;;;;;;88.63338;-28.45088;53.022095;;1966.2
2130.0;2079.1;;;;;;;;;;;;;;0.6231269;-0.07507554;-0.1765801;;;;;1966.2
2130.0;2079.1;;;;;;;;;;;;;;;;;84.39894;-26.169622;55.864132;;1975.9
2130.0;2079.1;;;;;;;;;;;;;;0.61293375;0.0043946654;-0.12079226;;;;;1975.9
2130.0;2079.1;;;;;;;;;;;;;;;;;80.96561;-24.330883;58.046207;;1975.9
2130.0;2079.1;;;;;;;;;;;;;;0.5838191;0.09790338;-0.10748619;;;;;1975.9
2130.0;2079.1;;;;;;;;;;;;;;;;;80.202644;-24.159216;59.64843;;1985.5
2130.0;2079.1;;;;;;;;;;;;;;0.535905;0.17468795;-0.09674367;;;;;1985.5
2130.0;2079.1;;;;;;;;;;;;;;;;;80.21027;-25.276955;60.663166;;1985.5
2130.0;2079.1;;;;;;;;;;;;;;0.5289468;0.2652669;-0.09234901;;;;;1985.5
2130.0;2079.3;;;;;;;;;;19.730215;27.83288;-29.057436;;;;;;;;;
2130.0;2079.3;;;;;;;0.3569445;-0.14416943;-0.54481643;;;;;;;;;;;;
2130.0;2079.3;;;;;;;;;;19.83703;27.996918;-30.18662;;;;;;;;;
2130.0;2079.3;;;;;;;0.3444319;-0.13550219;-0.54091007;;;;;;;;;;;;
2131.0;2079.8;;;;;;;;;;;;;;;;;79.88601;-19.642475;61.475723;;1995.1
2131.0;2079.8;;;;;;;;;;;;;;0.55110323;0.3279519;-0.11609241;;;;;1995.1
2131.0;2079.8;;;;;;;;;;;;;;;;;80.710014;-4.234443;60.7242;;1995.1
2131.0;2079.8;;;;;;;;;;;;;;0.50398266;0.39460433;-0.11902219;;;;;1995.1
2131.0;2079.8;;;;;;;;;;;;;;;;;83.32316;9.727776;59.32417;;2004.7
2131.0;2079.8;;;;;;;;;;;;;;0.42695394;0.45893735;-0.1356853;;;;;2004.7
2131.0;2079.8;;;;;;;;;;;;;;;;;87.21809;18.383587;57.882168;;2004.7
2131.0;2079.8;;;;;;;;;;;;;;0.3706168;0.54701376;-0.15289773;;;;;2004.7
2131.0;2079.8;;;;;;;;;;;;;;;;;89.163635;21.805475;57.561726;;2014.4
2131.0;2079.8;;;;;;;;;;;;;;0.347911;0.5924863;-0.17426069;;;;;2014.4
2131.0;2079.8;;;;;;;;;;;;;;;;;87.49657;25.032806;57.737206;;2014.4
2131.0;2079.8;;;;;;;;;;;;;;0.35773796;0.65663624;-0.17615284;;;;;2014.4
2131.0;2080.6;262143;262143;14774;;;;;;;;;;;;;;;;;;
2131.0;2086.6;;;;;;;;;;;;;812;;;;;;;;
2131.0;2086.6;;;;;;;;;;;;;1002;;;;;;;;
2131.0;2086.6;;;;;;;;;;;;;1216;;;;;;;;
2131.0;2086.6;;;;;;;;;;;;;1113;;;;;;;;
2131.0;2086.6;;;;;;;;;;;;;679;;;;;;;;
2131.0;2087.0;;;;-0.38571936;0.63602835;-0.15157701;;;;;;;;;;;;;;;
2131.0;2087.0;;;;-0.38478857;0.64280707;-0.15226366;;;;;;;;;;;;;;;
2131.0;2087.0;;;;-0.38620764;0.65116507;-0.15313722;;;;;;;;;;;;;;;
2131.0;2087.0;;;;-0.38787848;0.66045004;-0.15695955;;;;;;;;;;;;;;;
2131.0;2087.0;;;;-0.38971716;0.6707192;-0.16284181;;;;;;;;;;;;;;;
2134.0;2088.8;;;;;;;;;;20.004883;27.684103;-31.380657;;;;;;;;;
2134.0;2088.8;;;;;;;0.33314005;-0.1267739;-0.53566086;;;;;;;;;;;;
2134.0;2088.8;;;;;;;;;;20.168919;27.054659;-32.6281;;;;;;;;;
2134.0;2088.8;;;;;;;0.3270974;-0.12073123;-0.53083897;;;;;;;;;;;;
2134.0;2094.0;;;;;;;;;;;;;;;;;82.953125;28.721733;58.17591;;2024.1
2134.0;2094.0;;;;;;;;;;;;;;0.36616108;0.6600543;-0.2115543;;;;;2024.1
2134.0;2094.0;;;;;;;;;;;;;;;;;79.2909;31.205175;57.870724;;2024.1
2134.0;2094.0;;;;;;;;;;;;;;0.34760582;0.65791804;-0.2652669;;;;;2024.1
2134.0;2094.0;;;;;;;;;;;;;;;;;77.84891;30.236212;56.45161;;2033.7
2134.0;2094.0;;;;;;;;;;;;;;0.35114598;0.6396069;-0.35816523;;;;;2033.7
2134.0;2094.0;;;;;;;;;;;;;;;;;78.95138;28.1724;53.22428;;2033.7
2134.0;2094.0;;;;;;;;;;;;;;0.38019958;0.62215036;-0.49501023;;;;;2033.7
2134.0;2094.0;;;;;;;;;;;;;;;;;79.90127;28.012177;48.940247;;2043.3
2134.0;2094.0;;;;;;;;;;;;;;0.41938534;0.60847807;-0.65346235;;;;;2043.3
2134.0;2094.0;;;;;;;;;;;;;;;;;81.03427;30.285805;43.84747;;2043.3
2134.0;2094.0;;;;;;;;;;;;;;0.44935453;0.6031068;-0.76924956;;;;;2043.3
2134.0;2096.9;;;;-0.39257818;0.6815987;-0.17094423;;;;;;;;;;;;;;;
2134.0;2096.9;;;;-0.39610678;0.6917954;-0.17766573;;;;;;;;;;;;;;;
2134.0;2096.9;;;;-0.39918905;0.70164496;-0.18167497;;;;;;;;;;;;;;;
2134.0;2096.9;;;;-0.40233618;0.7108231;-0.18563081;;;;;;;;;;;;;;;
2134.0;2096.9;;;;-0.40640265;0.7200547;-0.18939593;;;;;;;;;;;;;;;
2134.0;2098.2;;;;;;;;;;20.348215;26.402327;-33.909878;;;;;;;;;
2134.0;2098.2;;;;;;;0.32825708;-0.11499374;-0.52504045;;;;;;;;;;;;
2134.0;2098.2;;;;;;;;;;20.649586;25.769066;-35.21836;;;;;;;;;
2134.0;2098.2;;;;;;;0.32819605;-0.11255226;-0.52357554;;;;;;;;;;;;
2180.0;2100.6;262143;262143;14774;;;;;;;;;;;;;;;;;;
2180.0;2107.0;;;;-0.40980917;0.7291756;-0.19230273;;;;;;;;;;;;;;;
2180.0;2107.0;;;;-0.41208273;0.73855597;-0.19375613;;;;;;;;;;;;;;;
2180.0;2107.0;;;;-0.4141503;0.748745;-0.19530109;;;;;;;;;;;;;;;
2180.0;2107.0;;;;-0.41469198;0.7592355;-0.19581988;;;;;;;;;;;;;;;
2180.0;2107.0;;;;-0.41429907;0.76927197;-0.19515231;;;;;;;;;;;;;;;
2180.0;2107.8;;;;;;;;;;21.042513;25.315104;-36.442917;;;;;;;;;
2180.0;2107.8;;;;;;;0.32782984;-0.106753744;-0.5228431;;;;;;;;;;;;
2180.0;2107.8;;;;;;;;;;21.561327;25.028992;-37.617878;;;;;;;;;
2180.0;2107.8;;;;;;;0.32453382;-0.100283824;-0.52070683;;;;;;;;;;;;
2180.0;2116.8;;;;-0.41485602;0.7791978;-0.19456103;;;;;;;;;;;;;;;
2180.0;2116.8;;;;-0.41435248;0.7885858;-0.19667819;;;;;;;;;;;;;;;
2180.0;2116.8;;;;-0.41437918;0.800068;-0.20006946;;;;;;;;;;;;;;;
2180.0;2116.8;;;;-0.41304785;0.81058896;-0.2018967;;;;;;;;;;;;;;;
2180.0;2116.8;;;;-0.41225058;0.8217851;-0.20251086;;;;;;;;;;;;;;;
2180.0;2117.1;;;;;;;;;;22.17551;24.468216;-38.7051;;;;;;;;;
2180.0;2117.1;;;;;;;0.3202002;-0.096377455;-0.516068;;;;;;;;;;;;
2180.0;2117.1;;;;;;;;;;22.79351;23.86929;-39.773247;;;;;;;;;
2180.0;2117.1;;;;;;;0.31214333;-0.0905179;-0.51533556;;;;;;;;;;;;
2180.0;2120.6;262143;262143;14773;;;;;;;;;;;;;;;;;;
2180.0;2126.5;;;;;;;;;;;;;139;;;;;;;;
2180.0;2126.5;;;;;;;;;;;;;-205;;;;;;;;
2180.0;2126.5;;;;;;;;;;;;;-304;;;;;;;;
2180.0;2126.5;;;;;;;;;;;;;-350;;;;;;;;
2180.0;2126.5;;;;;;;;;;;;;-441;;;;;;;;
2184.0;2126.7;;;;;;;;;;23.34666;23.270363;-40.719322;;;;;;;;;
2184.0;2126.7;;;;;;;0.30359814;-0.09143346;-0.51496935;;;;;;;;;;;;
2184.0;2126.7;;;;;;;;;;24.113438;22.400585;-41.59673;;;;;;;;;
2184.0;2126.7;;;;;;;0.2952971;-0.092471085;-0.51893675;;;;;;;;;;;;
2184.0;2126.9;;;;-0.41161734;0.83340466;-0.20203021;;;;;;;;;;;;;;;
2184.0;2126.9;;;;-0.41065603;0.8439523;-0.20368579;;;;;;;;;;;;;;;
2184.0;2126.9;;;;-0.41065603;0.85269177;-0.20535281;;;;;;;;;;;;;;;
2184.0;2126.9;;;;-0.41079336;0.86071026;-0.20674899;;;;;;;;;;;;;;;
2184.0;2126.9;;;;-0.41157156;0.86776364;-0.20522693;;;;;;;;;;;;;;;
2184.0;2136.4;;;;;;;;;;25.002289;21.244698;-42.47795;;;;;;;;;
2184.0;2136.4;;;;;;;0.28852198;-0.094485305;-0.5271157;;;;;;;;;;;;
2184.0;2136.4;;;;;;;;;;26.173437;20.25666;-43.370617;;;;;;;;;
2184.0;2136.4;;;;;;;0.27991578;-0.09521775;-0.5362713;;;;;;;;;;;;
2184.0;2137.0;;;;-0.41180426;0.87383664;-0.20073703;;;;;;;;;;;;;;;
2184.0;2137.0;;;;-0.4134255;0.8797952;-0.19438937;;;;;;;;;;;;;;;
2184.0;2137.0;;;;-0.41456228;0.8872529;-0.18715669;;;;;;;;;;;;;;;
2184.0;2137.0;;;;-0.4152375;0.89550793;-0.18130113;;;;;;;;;;;;;;;
2184.0;2137.0;;;;-0.41634756;0.9034654;-0.17712404;;;;;;;;;;;;;;;
2185.0;2139.4;;;;;;;;;;;;;;;;;82.49153;32.42592;38.827175;;2053.0
2185.0;2139.4;;;;;;;;;;;;;;0.4909818;0.57655567;-0.8238777;;;;;2053.0
2185.0;2139.4;;;;;;;;;;;;;;;;;83.632164;30.73214;34.100616;;2053.0
2185.0;2139.4;;;;;;;;;;;;;;0.5332194;0.5602588;-0.85329753;;;;;2053.0
2185.0;2139.4;;;;;;;;;;;;;;;;;85.4442;22.350992;28.47377;;2062.6
2185.0;2139.4;;;;;;;;;;;;;;0.5584277;0.5572069;-0.9053011;;;;;2062.6
2185.0;2139.4;;;;;;;;;;;;;;;;;86.9892;11.2880335;21.393476;;2062.6
2185.0;2139.4;;;;;;;;;;;;;;0.5609912;0.6056093;-0.9267861;;;;;2062.6
2185.0;2139.4;;;;;;;;;;;;;;;;;89.94567;-1.1635182;14.103366;;2072.2
2185.0;2139.4;;;;;;;;;;;;;;0.53205967;0.6816614;-0.9439375;;;;;2072.2
2185.0;2139.4;;;;;;;;;;;;;;;;;93.836784;-14.072847;8.682516;;2072.2
2185.0;2139.4;;;;;;;;;;;;;;0.5683767;0.6976531;-0.93057036;;;;;2072.2
2185.0;2140.7;262143;262143;14771;;;;;;;;;;;;;;;;;;
2185.0;2145.8;;;;;;;;;;27.695547;19.795067;-43.96573;;;;;;;;;
2185.0;2145.8;;;;;;;0.27149266;-0.09143346;-0.53743094;;;;;;;;;;;;
2185.0;2145.8;;;;;;;;;;29.4084;19.909512;-44.15647;;;;;;;;;
2185.0;2145.8;;;;;;;0.27381206;-0.088015385;-0.532548;;;;;;;;;;;;
2185.0;2147.0;;;;-0.41635138;0.9110185;-0.17271043;;;;;;;;;;;;;;;
2185.0;2147.0;;;;-0.41408545;0.9185678;-0.16723634;;;;;;;;;;;;;;;
2185.0;2147.0;;;;-0.41232687;0.924862;-0.16280366;;;;;;;;;;;;;;;
2185.0;2147.0;;;;-0.4093781;0.9311143;-0.15895464;;;;;;;;;;;;;;;
2185.0;2147.0;;;;-0.40541846;0.9352647;-0.15626909;;;;;;;;;;;;;;;
2187.0;2154.0;;;;;;;;;;;;;;;;;97.16712;-23.792994;4.1848507;;2081.9
2187.0;2154.0;;;;;;;;;;;;;;0.60896635;0.77962583;-0.89510787;;;;;2081.9
2187.0;2154.0;;;;;;;;;;;;;;;;;97.02597;-25.547808;-0.8735923;;2081.9
2187.0;2154.0;;;;;;;;;;;;;;0.5733818;0.8980987;-0.8134403;;;;;2081.9
2187.0;2154.0;;;;;;;;;;;;;;;;;95.34364;-23.335215;-4.692221;;2091.6
2187.0;2154.0;;;;;;;;;;;;;;0.565508;0.95632803;-0.7146214;;;;;2091.6
2187.0;2154.0;;;;;;;;;;;;;;;;;87.57287;-17.761772;-7.9615164;;2091.6
2187.0;2154.0;;;;;;;;;;;;;;0.5314493;1.0457473;-0.562212;;;;;2091.6
2187.0;2154.0;;;;;;;;;;;;;;;;;73.29783;-13.126774;-8.915219;;2101.2
2187.0;2154.0;;;;;;;;;;;;;;0.5067293;1.0757164;-0.43324077;;;;;2101.2
2187.0;2154.0;;;;;;;;;;;;;;;;;56.752983;-12.29896;-7.4198127;;2101.2
2187.0;2154.0;;;;;;;;;;;;;;0.5746025;1.0451369;-0.35737175;;;;;2101.2
2187.0;2155.2;;;;;;;;;;31.144138;19.699697;-44.93469;;;;;;;;;
2187.0;2155.2;;;;;;;0.268746;-0.09173864;-0.53529465;;;;;;;;;;;;
2187.0;2155.2;;;;;;;;;;33.26136;19.348736;-45.667133;;;;;;;;;
2187.0;2155.2;;;;;;;0.25171667;-0.09619434;-0.5343181;;;;;;;;;;;;
2187.0;2156.8;;;;-0.40229422;0.9391862;-0.1538582;;;;;;;;;;;;;;;
2187.0;2156.8;;;;-0.39907843;0.9430276;-0.1529503;;;;;;;;;;;;;;;
2187.0;2156.8;;;;-0.39690024;0.9462129;-0.15420915;;;;;;;;;;;;;;;
2187.0;2156.8;;;;-0.39519125;0.9490434;-0.15736772;;;;;;;;;;;;;;;
2187.0;2156.8;;;;-0.39282995;0.95199597;-0.16165163;;;;;;;;;;;;;;;
2187.0;2160.7;262143;262143;14766;;;;;;;;;;;;;;;;;;
2244.0;2164.8;;;;;;;;;;35.222176;18.768885;-45.339058;;;;;;;;;
2244.0;2164.8;;;;;;;0.23218483;-0.09595019;-0.5357219;;;;;;;;;;;;
2244.0;2164.8;;;;;;;;;;36.801506;17.227697;-44.67528;;;;;;;;;
2244.0;2164.8;;;;;;;0.22602008;-0.10187078;-0.53993344;;;;;;;;;;;;
2244.0;2166.6;;;;;;;;;;;;;-601;;;;;;;;
2244.0;2166.6;;;;;;;;;;;;;-808;;;;;;;;
2244.0;2166.6;;;;;;;;;;;;;-963;;;;;;;;
2244.0;2166.6;;;;;;;;;;;;;-1050;;;;;;;;
2244.0;2166.6;;;;;;;;;;;;;-1088;;;;;;;;
2244.0;2166.9;;;;-0.38975912;0.9552766;-0.1674576;;;;;;;;;;;;;;;
2244.0;2166.9;;;;-0.3851815;0.9600183;-0.17292406;;;;;;;;;;;;;;;
2244.0;2166.9;;;;-0.37965018;0.96710217;-0.17794801;;;;;;;;;;;;;;;
2244.0;2166.9;;;;-0.37241367;0.97724164;-0.18099214;;;;;;;;;;;;;;;
2244.0;2166.9;;;;-0.36615756;0.99089825;-0.18200304;;;;;;;;;;;;;;;
2244.0;2174.0;;;;;;;;;;38.62499;14.912107;-44.442577;;;;;;;;;
2244.0;2174.0;;;;;;;0.23352763;-0.10693686;-0.5418866;;;;;;;;;;;;
2244.0;2174.0;;;;;;;;;;40.269173;12.279885;-44.6028;;;;;;;;;
2244.0;2174.0;;;;;;;0.24231696;-0.114749596;-0.5482345;;;;;;;;;;;;
2244.0;2176.5;;;;-0.35851672;1.007248;-0.18017198;;;;;;;;;;;;;;;
2244.0;2176.5;;;;-0.35253146;1.0261575;-0.17662431;;;;;;;;;;;;;;;
2244.0;2176.5;;;;-0.34782413;1.0478975;-0.17252733;;;;;;;;;;;;;;;
2244.0;2176.5;;;;-0.34375766;1.0728875;-0.16664888;;;;;;;;;;;;;;;
2244.0;2176.5;;;;-0.33914188;1.1019899;-0.16010286;;;;;;;;;;;;;;;
2244.0;2180.5;262143;262143;14772;;;;;;;;;;;;;;;;;;
2248.0;2183.6;;;;;;;;;;41.9248;9.506516;-44.667652;;;;;;;;;
2248.0;2183.6;;;;;;;0.24304941;-0.12079226;-0.55763423;;;;;;;;;;;;
2248.0;2183.6;;;;;;;;;;43.63384;6.614887;-44.47691;;;;;;;;;
2248.0;2183.6;;;;;;;0.24420911;-0.12427137;-0.5696585;;;;;;;;;;;;
2248.0;2186.6;;;;-0.33744815;1.1322366;-0.1540413;;;;;;;;;;;;;;;
2248.0;2186.6;;;;-0.34139255;1.1623842;-0.1493149;;;;;;;;;;;;;;;
2248.0;2186.6;;;;-0.3445244;1.1931001;-0.14543535;;;;;;;;;;;;;;;
2248.0;2186.6;;;;-0.3455849;1.2240411;-0.14363481;;;;;;;;;;;;;;;
2248.0;2186.6;;;;-0.34616092;1.2544595;-0.14354707;;;;;;;;;;;;;;;
2248.0;2193.2;;;;;;;;;;45.274208;3.6698508;-44.202248;;;;;;;;;
2248.0;2193.2;;;;;;;0.24970244;-0.13080233;-0.58015686;;;;;;;;;;;;
2248.0;2193.2;;;;;;;;;;46.93365;1.1444441;-44.10306;;;;;;;;;
2248.0;2193.2;;;;;;;0.27014986;-0.14062929;-0.58424634;;;;;;;;;;;;
2248.0;2196.8;;;;-0.34508517;1.2827913;-0.14445497;;;;;;;;;;;;;;;
2248.0;2196.8;;;;-0.34362414;1.3103753;-0.1444092;;;;;;;;;;;;;;;
2248.0;2196.8;;;;-0.34404758;1.334366;-0.14549638;;;;;;;;;;;;;;;
2248.0;2196.8;;;;-0.34580997;1.3556787;-0.14542772;;;;;;;;;;;;;;;
2248.0;2196.8;;;;-0.34700015;1.3745729;-0.1454239;;;;;;;;;;;;;;;
2249.0;2198.9;;;;;;;;;;;;;;;;;39.845726;-10.216071;-5.1271095;;2110.9
2249.0;2198.9;;;;;;;;;;;;;;0.6306955;0.99990845;-0.2912076;;;;;2110.9
2249.0;2198.9;;;;;;;;;;;;;;;;;24.483475;-5.3750725;-3.8148136;;2110.9
2249.0;2198.9;;;;;;;;;;;;;;0.70625937;0.95272684;-0.2224189;;;;;2110.9
2249.0;2198.9;;;;;;;;;;;;;;;;;11.421552;1.2817774;-4.40611;;2120.6
2249.0;2198.9;;;;;;;;;;;;;;0.7597278;0.89407027;-0.15753655;;;;;2120.6
2249.0;2198.9;;;;;;;;;;;;;;;;;-0.5607776;2.029481;-5.9091463;;2120.6
2249.0;2198.9;;;;;;;;;;;;;;0.98855555;0.7993408;-0.23584704;;;;;2120.6
2249.0;2198.9;;;;;;;;;;;;;;;;;-7.2023683;4.215369;-7.415998;;2130.2
2249.0;2198.9;;;;;;;;;;;;;;1.3002106;0.7003388;-0.4410535;;;;;2130.2
2249.0;2198.9;;;;;;;;;;;;;;;;;-1.7548143;21.423994;-10.937071;;2130.2
2249.0;2198.9;;;;;;;;;;;;;;1.5809199;0.7444075;-0.5371868;;;;;2130.2
2249.0;2200.6;262143;262143;14769;;;;;;;;;;;;;;;;;;
2249.0;2202.7;;;;;;;;;;48.589283;-0.6599628;-44.423504;;;;;;;;;
2249.0;2202.7;;;;;;;0.2985931;-0.15100558;-0.5847346;;;;;;;;;;;;
2249.0;2202.7;;;;;;;;;;50.64928;-1.2855922;-44.97665;;;;;;;;;
2249.0;2202.7;;;;;;;0.32459486;-0.1605884;-0.5769219;;;;;;;;;;;;
2249.0;2206.5;;;;;;;;;;;;;-1012;;;;;;;;
2249.0;2206.5;;;;;;;;;;;;;-827;;;;;;;;
2249.0;2206.5;;;;;;;;;;;;;-817;;;;;;;;
2249.0;2206.5;;;;;;;;;;;;;-1080;;;;;;;;
2249.0;2206.5;;;;;;;;;;;;;-1417;;;;;;;;
2251.0;2206.7;;;;-0.34912494;1.3909265;-0.14638902;;;;;;;;;;;;;;;
2251.0;2206.7;;;;-0.35387042;1.4051172;-0.14868166;;;;;;;;;;;;;;;
2251.0;2206.7;;;;-0.35545352;1.4196016;-0.15053178;;;;;;;;;;;;;;;
2251.0;2206.7;;;;-0.3576813;1.4329683;-0.15213014;;;;;;;;;;;;;;;
2251.0;2206.7;;;;-0.35841754;1.4473077;-0.14857484;;;;;;;;;;;;;;;
2251.0;2212.3;;;;;;;;;;53.037354;-0.88122195;-45.54506;;;;;;;;;
2251.0;2212.3;;;;;;;0.3463851;-0.16827907;-0.56178474;;;;;;;;;;;;
2251.0;2212.3;;;;;;;;;;55.543686;0.03051851;-45.968506;;;;;;;;;
2251.0;2212.3;;;;;;;0.35895872;-0.17322306;-0.54371774;;;;;;;;;;;;
2251.0;2213.9;;;;;;;;;;;;;;;;;18.047884;57.100132;-17.033142;;2139.8
2251.0;2213.9;;;;;;;;;;;;;;1.6120487;0.9239784;-0.24091311;;;;;2139.8
2251.0;2213.9;;;;;;;;;;;;;;;;;52.762688;73.04224;-29.419844;;2139.8
2251.0;2213.9;;;;;;;;;;;;;;1.4419996;1.0246894;-0.06494339;;;;;2139.8
2251.0;2213.9;;;;;;;;;;;;;;;;;98.857086;46.185947;-49.29121;;2149.5
2251.0;2213.9;;;;;;;;;;;;;;0.9124424;0.94894254;-0.68153936;;;;;2149.5
2251.0;2213.9;;;;;;;;;;;;;;;;;124.19889;-30.167545;-66.011536;;2149.5
2251.0;2213.9;;;;;;;;;;;;;;-0.120670184;1.1144139;-1.7858821;;;;;2149.5
2251.0;2213.9;;;;;;;;;;;;;;;;;119.32738;-111.106445;-58.671837;;2159.1
2251.0;2213.9;;;;;;;;;;;;;;-0.44367808;1.0794396;-1.9979857;;;;;2159.1
2251.0;2213.9;;;;;;;;;;;;;;;;;89.957115;-124.988556;-52.42317;;2159.1
2251.0;2213.9;;;;;;;;;;;;;;0.8727073;1.0110172;-1.9951171;;;;;2159.1
2304.0;2216.6;;;;-0.3560982;1.4633218;-0.13713838;;;;;;;;;;;;;;;
2304.0;2216.6;;;;-0.3534203;1.4786683;-0.115028396;;;;;;;;;;;;;;;
2304.0;2216.6;;;;-0.35855106;1.4957353;-0.09804918;;;;;;;;;;;;;;;
2304.0;2216.6;;;;-0.36014178;1.5087245;-0.09646608;;;;;;;;;;;;;;;
2304.0;2216.6;;;;-0.3546143;1.5176661;-0.0946541;;;;;;;;;;;;;;;
2304.0;2220.6;262143;262143;14767;;;;;;;;;;;;;;;;;;
2304.0;2221.7;;;;;;;;;;58.38191;1.1902219;-46.185947;;;;;;;;;
2304.0;2221.7;;;;;;;0.36610004;-0.17572558;-0.52558976;;;;;;;;;;;;
2304.0;2221.7;;;;;;;;;;61.380352;2.5406659;-46.25843;;;;;;;;;
2304.0;2221.7;;;;;;;0.36841944;-0.1815241;-0.50807214;;;;;;;;;;;;
2304.0;2226.6;;;;-0.3432999;1.5249369;-0.09586336;;;;;;;;;;;;;;;
2304.0;2226.6;;;;-0.33206943;1.5320933;-0.103820816;;;;;;;;;;;;;;;
2304.0;2226.6;;;;-0.32380298;1.5401576;-0.10186769;;;;;;;;;;;;;;;
2304.0;2226.6;;;;-0.32187656;1.548878;-0.09178544;;;;;;;;;;;;;;;
2304.0;2226.6;;;;-0.31992725;1.5532382;-0.080989845;;;;;;;;;;;;;;;
2304.0;2230.7;;;;;;;;;;64.62295;4.547258;-46.254616;;;;;;;;;
2304.0;2230.7;;;;;;;0.3721427;-0.18024231;-0.4835963;;;;;;;;;;;;
2304.0;2230.7;;;;;;;;;;68.07153;6.7293315;-45.98758;;;;;;;;;
2304.0;2230.7;;;;;;;0.37128818;-0.18066958;-0.46156195;;;;;;;;;;;;
2307.0;2236.1;;;;-0.32247928;1.5525591;-0.068321235;;;;;;;;;;;;;;;
2307.0;2236.1;;;;-0.32818606;1.5479853;-0.051647194;;;;;;;;;;;;;;;
2307.0;2236.1;;;;-0.33720782;1.5421641;-0.04572678;;;;;;;;;;;;;;;
2307.0;2236.1;;;;-0.34378055;1.536545;-0.04806138;;;;;;;;;;;;;;;
2307.0;2236.1;;;;-0.34407428;1.5314791;-0.047000892;;;;;;;;;;;;;;;
2307.0;2240.3;;;;;;;;;;71.61549;8.594775;-45.556503;;;;;;;;;
2307.0;2240.3;;;;;;;0.36890775;-0.18384351;-0.446791;;;;;;;;;;;;
2307.0;2240.3;;;;;;;;;;75.170906;10.010071;-45.018616;;;;;;;;;
2307.0;2240.3;;;;;;;0.36524552;-0.18732262;-0.42957854;;;;;;;;;;;;
2307.0;2240.2;262143;262143;14761;;;;;;;;;;;;;;;;;;
2307.0;2246.1;;;;;;;;;;;;;-1556;;;;;;;;
2307.0;2246.1;;;;;;;;;;;;;-1371;;;;;;;;
2307.0;2246.1;;;;;;;;;;;;;-1085;;;;;;;;
2307.0;2246.1;;;;;;;;;;;;;-1059;;;;;;;;
2307.0;2246.1;;;;;;;;;;;;;-1338;;;;;;;;
2307.0;2246.2;;;;-0.33839038;1.5274127;-0.045455936;;;;;;;;;;;;;;;
2307.0;2246.2;;;;-0.33050922;1.5239375;-0.044555668;;;;;;;;;;;;;;;
2307.0;2246.2;;;;-0.32393268;1.5201952;-0.040573124;;;;;;;;;;;;;;;
2307.0;2246.2;;;;-0.31727222;1.5134547;-0.037334446;;;;;;;;;;;;;;;
2307.0;2246.2;;;;-0.30983356;1.5046618;-0.034164432;;;;;;;;;;;;;;;
2307.0;2249.9;;;;;;;;;;78.59279;11.322367;-44.289986;;;;;;;;;
2307.0;2249.9;;;;;;;0.369335;-0.1892758;-0.4110233;;;;;;;;;;;;
2307.0;2249.9;;;;;;;;;;81.91168;12.684256;-43.504135;;;;;;;;;
2307.0;2249.9;;;;;;;0.3850215;-0.19586779;-0.39204076;;;;;;;;;;;;
2309.0;2256.3;;;;-0.30287555;1.4945222;-0.026287083;;;;;;;;;;;;;;;
2309.0;2256.3;;;;-0.29711917;1.4840204;-0.018737795;;;;;;;;;;;;;;;
2309.0;2256.3;;;;-0.29005435;1.4745904;-0.014736177;;;;;;;;;;;;;;;
2309.0;2256.3;;;;-0.28114322;1.4677049;-0.009586335;;;;;;;;;;;;;;;
2309.0;2256.3;;;;-0.2738228;1.4634973;-0.006149293;;;;;;;;;;;;;;;
2309.0;2258.6;;;;;;;;;;;;;;;;;58.915985;-123.08115;-45.915096;;2168.7
2309.0;2258.6;;;;;;;;;;;;;;1.9171728;0.8271126;-1.1341898;;;;;2168.7
2309.0;2258.6;;;;;;;;;;;;;;;;;-20.435957;-93.35993;3.4638507;;2168.7
2309.0;2258.6;;;;;;;;;;;;;;1.9970702;0.17151402;0.27100438;;;;;2168.7
2309.0;2258.6;;;;;;;;;;;;;;;;;-117.48482;-62.730797;45.62517;;2178.3
2309.0;2258.6;;;;;;;;;;;;;;1.9970702;-1.2970977;0.15454574;;;;;2178.3
2309.0;2258.6;;;;;;;;;;;;;;;;;-123.72204;-21.050142;20.084993;;2178.3
2309.0;2258.6;;;;;;;;;;;;;;1.9970702;-1.193701;0.24756615;;;;;2178.3
2309.0;2258.6;;;;;;;;;;;;;;;;;-74.308754;50.660725;-1.1406293;;2187.8
2309.0;2258.6;;;;;;;;;;;;;;1.7484665;-0.6855678;0.6949065;;;;;2187.8
2309.0;2258.6;;;;;;;;;;;;;;;;;11.162145;50.84002;-7.980591;;2187.8
2309.0;2258.6;;;;;;;;;;;;;;0.7612537;-0.103946045;0.10834071;;;;;2187.8
2309.0;2259.4;;;;;;;;;;85.18098;13.828699;-42.794582;;;;;;;;;
2309.0;2259.4;;;;;;;0.40943632;-0.20581684;-0.37141025;;;;;;;;;;;;
2309.0;2259.4;;;;;;;;;;88.461716;13.828699;-42.15369;;;;;;;;;
2309.0;2259.4;;;;;;;0.42658773;-0.21393475;-0.36793116;;;;;;;;;;;;
2309.0;2260.4;262143;262143;14755;;;;;;;;;;;;;;;;;;
2310.0;2266.5;;;;;;;;;;;;;;;;;17.838068;-39.23917;-0.26322216;;2197.5
2310.0;2266.5;;;;;;;;;;;;;;0.079775386;0.22193061;-1.5939207;;;;;2197.5
2310.0;2266.5;;;;;;;;;;;;;;;;;-8.762627;-77.43309;4.2115545;;2197.5
2310.0;2266.5;;;;;;;;;;;;;;0.77480394;0.4107181;-1.6954863;;;;;2197.5
2310.0;2266.5;;;;;;;;;;;;;;;;;-4.188666;-49.897762;11.9556265;;2207.1
2310.0;2266.5;;;;;;;;;;;;;;1.2983794;0.611774;-0.56282234;;;;;2207.1
2310.0;2266.5;;;;;;;;;;;;;;;;;-5.0889616;-27.985474;22.671436;;2207.1
2310.0;2266.5;;;;;;;;;;;;;;1.7445601;0.3686636;-0.10309152;;;;;2207.1
2310.0;2266.5;;;;;;;;;;;;;;;;;0.46540728;-17.48329;23.312326;;2216.8
2310.0;2266.5;;;;;;;;;;;;;;1.5910519;0.0020142216;-0.2941374;;;;;2216.8
