patientId;holterMac;flexMac;;;;;;;;;;;;;;;;;;;;
;CA:F3:0B:1E:33:78;D3:4A:5C:52:80:78;;;;;;;;;;;;;;;;;;;;
receivedTimeStamp;timeStamp;red;ir;green;adxl_accX;adxl_accY;adxl_accZ;lsm_accelX;lsm_accelY;lsm_accelZ;lsm_gyroX;lsm_gyroY;lsm_gyroZ;ecg;flex_lsm_accelX;flex_lsm_accelY;flex_lsm_accelZ;flex_lsm_gyroX;flex_lsm_gyroY;flex_lsm_gyroZ;flex_cmd;flexTimeStamp
263.0;219.0;;;;;;;;;;;;;;;;;;;;17;0.1
263.0;219.0;;;;;;;;;;;;;;;;;13.386182;1.1749626;0.25559253;;127.3
263.0;219.0;;;;;;;;;;;;;;0.86556596;-0.003906369;-0.21375164;;;;;127.3
263.0;219.0;;;;;;;;;;;;;;;;;-6.069369;-18.108921;-8.7397375;;127.3
263.0;219.0;;;;;;;;;;;;;;0.83565784;-0.08319346;-0.1760918;;;;;127.3
263.0;219.0;;;;;;;;;;;;;;;;;-66.789764;-85.04364;-61.78472;;136.7
263.0;219.0;;;;;;;;;;;;;;0.83498645;-0.04297006;-0.22064883;;;;;136.7
263.0;219.0;;;;;;;;;;;;;;;;;-122.79504;-124.988556;-120.0293;;136.7
263.0;219.0;;;;;;;;;;;;;;0.8143559;-0.046571247;-0.21778008;;;;;136.7
324.0;226.5;;;;;;;;;;;;;;;;;-64.77172;-124.988556;-75.6592;;146.4
324.0;226.5;;;;;;;;;;;;;;0.8041017;-0.04956206;-0.17487106;;;;;146.4
324.0;226.5;;;;;;;;;;;;;;;;;-5.752739;-124.988556;-25.708029;;146.4
324.0;226.5;;;;;;;;;;;;;;0.80849636;-0.02887051;-0.21729179;;;;;146.4
324.0;226.5;;;;;;;;;;;;;;;;;-8.915219;-101.0773;-17.235327;;156.0
324.0;226.5;;;;;;;;;;;;;;0.7994018;-0.05468917;-0.20319223;;;;;156.0
324.0;226.5;;;;;;;;;;;;;;;;;-12.443922;-24.533068;8.934294;;156.0
324.0;226.5;;;;;;;;;;;;;;0.7663808;-0.01574755;-0.20892972;;;;;156.0
324.0;226.5;;;;;;;;;;;;;;;;;-8.213294;-19.936216;9.846034;;165.7
324.0;226.5;;;;;;;;;;;;;;0.7324442;-0.026795251;-0.23993652;;;;;165.7
324.0;226.5;;;;;;;;;;;;;;;;;-2.685629;-18.105106;5.031739;;165.7
324.0;226.5;;;;;;;;;;;;;;0.72743917;0.047425766;-0.23059785;;;;;165.7
324.0;279.2;;;;;;;;;;;;;;;;;-1.4763329;-16.579182;6.9429607;;175.3
324.0;279.2;;;;;;;;;;;;;;0.75643176;-0.0048829615;-0.11682486;;;;;175.3
324.0;279.2;;;;;;;;;;;;;;;;;0.057222206;-29.133732;12.684256;;175.3
324.0;279.2;;;;;;;;;;;;;;0.8866848;-0.09076205;-0.20191047;;;;;175.3
324.0;279.2;;;;;;;;;;;;;;;;;4.6006656;-26.20014;9.93759;;185.0
324.0;279.2;;;;;;;;;;;;;;0.8856471;7.9348125E-4;-0.24884793;;;;;185.0
324.0;279.2;;;;;;;;;;;;;;;;;7.3053684;-16.18244;6.4851832;;185.0
324.0;279.2;;;;;;;;;;;;;;0.74056214;0.056093022;-0.19135106;;;;;185.0
324.0;279.2;;;;;;;;;;;;;;;;;10.799738;-19.856104;8.934294;;194.7
324.0;279.2;;;;;;;;;;;;;;0.8209479;-0.0018311106;-0.10693686;;;;;194.7
324.0;279.2;;;;;;;;;;;;;;;;;13.363293;-28.004547;9.727776;;194.7
324.0;279.2;;;;;;;;;;;;;;0.85116124;0.04931791;-0.24463637;;;;;194.7
388.0;294.2;;;;;;;;;;;;;;;;;17.887661;-20.611439;7.980591;;204.2
388.0;294.2;;;;;;;;;;;;;;0.8098392;0.07434309;-0.1894589;;;;;204.2
388.0;294.2;;;;;;;;;;;;;;;;;23.468735;-22.766808;10.105441;;204.2
388.0;294.2;;;;;;;;;;;;;;0.81905574;0.07324442;-0.21893978;;;;;204.2
388.0;294.2;;;;;;;;;;;;;;;;;28.565325;-24.025698;9.212775;;213.9
388.0;294.2;;;;;;;;;;;;;;0.8845485;0.07849361;-0.1871395;;;;;213.9
388.0;294.2;;;;;;;;;;;;;;;;;30.816065;-26.211584;9.00296;;213.9
388.0;294.2;;;;;;;;;;;;;;0.89651173;0.116763815;-0.2115543;;;;;213.9
388.0;294.2;;;;;;;;;;;;;;;;;33.75729;-24.536882;9.880367;;223.5
388.0;294.2;;;;;;;;;;;;;;0.8898587;0.119449444;-0.23938718;;;;;223.5
388.0;294.2;;;;;;;;;;;;;;;;;37.297436;-23.888363;11.494034;;223.5
388.0;294.2;;;;;;;;;;;;;;0.92428356;0.11877804;-0.24280526;;;;;223.5
388.0;339.6;;;;;;;;;;;;;;;;;38.792843;-21.637625;8.323924;;233.0
388.0;339.6;;;;;;;;;;;;;;0.91024506;0.18140203;-0.25122836;;;;;233.0
388.0;339.6;;;;;;;;;;;;;;;;;39.4528;-18.230995;4.100925;;233.0
388.0;339.6;;;;;;;;;;;;;;0.8249153;0.25006866;-0.29932556;;;;;233.0
388.0;339.6;;;;;;;;;;;;;;;;;41.24958;-12.588885;1.8845179;;242.7
388.0;339.6;;;;;;;;;;;;;;0.82168037;0.26404613;-0.19171728;;;;;242.7
388.0;339.6;;;;;;;;;;;;;;;;;38.327435;-25.208288;6.5462203;;242.7
388.0;339.6;;;;;;;;;;;;;;0.94985807;0.19244972;-0.31067842;;;;;242.7
388.0;339.6;;;;;;;;;;;;;;;;;36.214027;-23.319956;4.772332;;252.4
388.0;339.6;;;;;;;;;;;;;;0.95901364;0.2616657;-0.36115605;;;;;252.4
388.0;339.6;;;;;;;;;;;;;;;;;32.376324;-16.685995;4.8028507;;252.4
388.0;339.6;;;;;;;;;;;;;;0.9499191;0.24152349;-0.29737237;;;;;252.4
447.0;340.4;;;;;;;;;;;;;;;;;27.554398;-19.28007;7.309183;;262.1
447.0;340.4;;;;;;;;;;;;;;0.9350261;0.28101444;-0.36194953;;;;;262.1
447.0;340.4;;;;;;;;;;;;;;;;;25.063326;-16.762293;4.886776;;262.1
447.0;340.4;;;;;;;;;;;;;;0.90609455;0.3056734;-0.34302804;;;;;262.1
447.0;340.4;;;;;;;;;;;;;;;;;18.53618;-18.528551;7.362591;;271.5
447.0;340.4;;;;;;;;;;;;;;0.9191565;0.24805444;-0.35590684;;;;;271.5
447.0;340.4;;;;;;;;;;;;;;;;;15.907774;-16.716515;5.8519244;;271.5
447.0;340.4;;;;;;;;;;;;;;0.93313396;0.27497178;-0.36841944;;;;;271.5
447.0;340.4;;;;;;;;;;;;;;;;;10.784478;-16.624958;7.89285;;281.2
447.0;340.4;;;;;;;;;;;;;;0.8917509;0.2797937;-0.37415692;;;;;281.2
447.0;340.4;;;;;;;;;;;;;;;;;6.591998;-16.899626;7.904294;;281.2
447.0;340.4;;;;;;;;;;;;;;0.8894314;0.25550097;-0.34900966;;;;;281.2
447.0;400.9;;;;;;;;;;;;;;;;;2.803888;-17.262032;7.4808497;;290.8
447.0;400.9;;;;;;;;;;;;;;0.9001129;0.2710654;-0.36378065;;;;;290.8
447.0;400.9;;;;;;;;;;;;;;;;;-0.25940734;-13.985106;6.8857384;;290.8
447.0;400.9;;;;;;;;;;;;;;0.8742943;0.28675193;-0.33332315;;;;;290.8
447.0;400.9;;;;;;;;;;;;;;;;;-3.624073;-12.489699;6.248665;;300.5
447.0;400.9;;;;;;;;;;;;;;0.865688;0.2995697;-0.30133978;;;;;300.5
447.0;400.9;;;;;;;;;;;;;;;;;-8.064516;-13.2107;8.079776;;300.5
447.0;400.9;;;;;;;;;;;;;;0.8842433;0.29108554;-0.31354716;;;;;300.5
447.0;400.9;;;;;;;;;;;;;;;;;-10.773034;-10.849331;6.5271463;;310.1
447.0;400.9;;;;;;;;;;;;;;0.88497573;0.3035371;-0.3299051;;;;;310.1
447.0;400.9;;;;;;;;;;;;;;;;;-13.1077;-8.095035;5.3292947;;310.1
447.0;400.9;;;;;;;;;;;;;;0.91317487;0.3360088;-0.29718924;;;;;310.1
509.0;407.5;;;;;;;;;;;;;;;;;-15.65218;-9.563738;6.931516;;319.7
509.0;407.5;;;;;;;;;;;;;;0.89815974;0.33576465;-0.31653798;;;;;319.7
509.0;407.5;;;;;;;;;;;;;;;;;-16.258736;-10.498367;7.0917387;;319.7
509.0;407.5;;;;;;;;;;;;;;0.91433454;0.32245857;-0.35010836;;;;;319.7
509.0;407.5;;;;;;;;;;;;;;;;;-17.323069;-10.280923;5.901517;;329.4
509.0;407.5;;;;;;;;;;;;;;0.89260536;0.33356732;-0.35676137;;;;;329.4
509.0;407.5;;;;;;;;;;;;;;;;;-16.479996;-9.544664;3.868221;;329.4
509.0;407.5;;;;;;;;;;;;;;0.8890042;0.34156317;-0.3634144;;;;;329.4
509.0;407.5;;;;;;;;;;;;;;;;;-15.465255;-9.201331;3.0442214;;339.0
509.0;407.5;;;;;;;;;;;;;;0.8938261;0.33729056;-0.37067783;;;;;339.0
509.0;407.5;;;;;;;;;;;;;;;;;-16.724144;-9.716331;3.8567767;;339.0
509.0;407.5;;;;;;;;;;;;;;0.88174075;0.32886747;-0.38148138;;;;;339.0
509.0;460.4;;;;;;;;;;;;;;;;;-17.128513;-11.482589;4.2954803;;348.7
509.0;460.4;;;;;;;;;;;;;;0.8462172;0.29212317;-0.42396313;;;;;348.7
509.0;460.4;;;;;;;;;;;;;;;;;-17.040771;-13.897366;5.9053316;;348.7
509.0;460.4;;;;;;;;;;;;;;0.9368572;0.28388318;-0.3721427;;;;;348.7
509.0;460.4;;;;;;;;;;;;;;;;;-20.031586;-18.21192;7.1832943;;358.2
509.0;460.4;;;;;;;;;;;;;;0.8679464;0.28034303;-0.438612;;;;;358.2
509.0;460.4;;;;;;;;;;;;;;;;;-19.508957;-14.873959;7.2977386;;358.2
509.0;460.4;;;;;;;;;;;;;;0.8841823;0.24433118;-0.36664936;;;;;358.2
509.0;460.4;;;;;;;;;;;;;;;;;-19.661549;-16.655478;7.816553;;367.8
509.0;460.4;;;;;;;;;;;;;;0.9261757;0.23773919;-0.39582506;;;;;367.8
509.0;460.4;;;;;;;;;;;;;;;;;-22.377697;-12.665181;7.526627;;367.8
509.0;460.4;;;;;;;;;;;;;;0.89620656;0.19989623;-0.37586597;;;;;367.8
567.0;461.1;;;;;;;;;;;;;;;;;-22.820215;-10.914183;8.861812;;377.5
567.0;461.1;;;;;;;;;;;;;;0.9446089;0.17090365;-0.3810541;;;;;377.5
567.0;461.1;;;;;;;;;;;;;;;;;-23.075808;-5.645924;9.662924;;377.5
567.0;461.1;;;;;;;;;;;;;;0.95541245;0.16864528;-0.34040347;;;;;377.5
567.0;461.1;;;;;;;;;;;;;;;;;-26.203955;-6.6682944;12.310404;;387.1
567.0;461.1;;;;;;;;;;;;;;0.9208655;0.1490524;-0.34571368;;;;;387.1
567.0;461.1;;;;;;;;;;;;;;;;;-26.844845;-5.916776;12.009034;;387.1
567.0;461.1;;;;;;;;;;;;;;0.8971221;0.13812678;-0.33198035;;;;;387.1
567.0;461.1;;;;;;;;;;;;;;;;;-27.03177;-5.0889616;12.226479;;396.7
567.0;461.1;;;;;;;;;;;;;;0.9119541;0.14062929;-0.36878568;;;;;396.7
567.0;461.1;;;;;;;;;;;;;;;;;-28.401287;-2.5711844;14.809107;;396.7
567.0;461.1;;;;;;;;;;;;;;0.9403973;0.11505478;-0.33112583;;;;;396.7
567.0;521.3;;;;;;;;;;;;;;;;;-31.41499;-2.8725548;16.819515;;406.3
567.0;521.3;;;;;;;;;;;;;;0.8930326;0.13556322;-0.34095278;;;;;406.3
567.0;521.3;;;;;;;;;;;;;;;;;-33.932766;-1.7777032;18.086031;;406.3
567.0;521.3;;;;;;;;;;;;;;0.89168984;0.14581744;-0.31781974;;;;;406.3
567.0;521.3;;;;;;;;;;;;;;;;;-35.817284;-3.7194436;19.440292;;416.0
567.0;521.3;;;;;;;;;;;;;;0.8937651;0.1610767;-0.3688467;;;;;416.0
567.0;521.3;;;;;;;;;;;;;;;;;-35.08484;-3.6088138;20.916624;;416.0
567.0;521.3;;;;;;;;;;;;;;0.9465011;0.15259255;-0.37305826;;;;;416.0
567.0;521.3;;;;;;;;;;;;;;;;;-32.18177;-5.546739;23.697622;;425.6
567.0;521.3;;;;;;;;;;;;;;1.0010071;0.15472884;-0.4168218;;;;;425.6
567.0;521.3;;;;;;;;;;;;;;;;;-28.695028;-4.993591;24.578846;;425.6
567.0;521.3;;;;;;;;;;;;;;1.0043031;0.16742454;-0.43287453;;;;;425.6
627.0;521.9;;;;;;;;;;;;;;;;;-24.36903;-5.836665;25.296028;;435.2
627.0;521.9;;;;;;;;;;;;;;1.0318918;0.16461684;-0.4304941;;;;;435.2
627.0;521.9;;;;;;;;;;;;;;;;;-20.348215;-9.376812;26.322214;;435.2
627.0;521.9;;;;;;;;;;;;;;1.0638752;0.15503404;-0.44557023;;;;;435.2
627.0;521.9;;;;;;;;;;;;;;;;;-15.800959;-12.88644;28.302103;;444.9
627.0;521.9;;;;;;;;;;;;;;1.1313822;0.12543108;-0.43098238;;;;;444.9
627.0;521.9;;;;;;;;;;;;;;;;;-12.615588;-18.612476;30.739769;;444.9
627.0;521.9;;;;;;;;;;;;;;1.1269264;0.096804716;-0.4582049;;;;;444.9
627.0;521.9;;;;;;;;;;;;;;;;;-7.515183;-19.005402;29.450363;;454.6
627.0;521.9;;;;;;;;;;;;;;1.1835078;0.027405621;-0.42347485;;;;;454.6
627.0;521.9;;;;;;;;;;;;;;;;;-4.4785914;-18.82229;28.313547;;454.6
627.0;521.9;;;;;;;;;;;;;;1.2165898;0.028992584;-0.40137944;;;;;454.6
627.0;581.1;;;;;;;;;;;;;;;;;-4.0665917;-15.968811;30.358286;;464.2
627.0;581.1;;;;;;;;;;;;;;1.2195807;-0.046571247;-0.36811426;;;;;464.2
627.0;581.1;;;;;;;;;;;;;;;;;-4.7456284;-10.0138855;30.911434;;464.2
627.0;581.1;;;;;;;;;;;;;;1.177282;0.0015869625;-0.28498185;;;;;464.2
627.0;581.1;;;;;;;;;;;;;;;;;-8.671071;-4.276406;32.09403;;473.9
627.0;581.1;;;;;;;;;;;;;;1.0940275;-0.010620441;-0.21588793;;;;;473.9
627.0;581.1;;;;;;;;;;;;;;;;;-12.462996;0.4768517;31.758324;;473.9
627.0;581.1;;;;;;;;;;;;;;1.0922575;0.015076144;-0.17236854;;;;;473.9
627.0;581.1;;;;;;;;;;;;;;;;;-18.024994;5.5887017;33.127842;;483.5
627.0;581.1;;;;;;;;;;;;;;1.1047701;0.03662221;-0.14819789;;;;;483.5
627.0;581.1;;;;;;;;;;;;;;;;;-27.63451;9.788812;32.23899;;483.5
627.0;581.1;;;;;;;;;;;;;;1.1373638;0.07043672;-0.13855404;;;;;483.5
687.0;581.9;;;;;;;;;;;;;;;;;-38.89203;12.092959;31.720177;;493.1
687.0;581.9;;;;;;;;;;;;;;1.1770378;0.08764916;-0.1607715;;;;;493.1
687.0;581.9;;;;;;;;;;;;;;;;;-48.654137;11.898404;31.727806;;493.1
687.0;581.9;;;;;;;;;;;;;;1.2245246;0.085573904;-0.22272408;;;;;493.1
687.0;581.9;;;;;;;;;;;;;;;;;-55.95187;10.937071;30.625324;;502.8
687.0;581.9;;;;;;;;;;;;;;1.2641988;0.09210486;-0.33161414;;;;;502.8
687.0;581.9;;;;;;;;;;;;;;;;;-60.644093;11.421552;29.396955;;502.8
687.0;581.9;;;;;;;;;;;;;;1.2963653;0.08661153;-0.4066286;;;;;502.8
687.0;581.9;;;;;;;;;;;;;;;;;-64.51613;10.563219;29.271067;;512.4
687.0;581.9;;;;;;;;;;;;;;1.3350627;0.077333905;-0.46143988;;;;;512.4
687.0;581.9;;;;;;;;;;;;;;;;;-68.31187;11.638996;28.98114;;512.4
687.0;581.9;;;;;;;;;;;;;;1.3451948;0.05652028;-0.4624775;;;;;512.4
687.0;641.3;;;;;;;;;;;;;;;;;-72.14194;13.61507;27.176733;;522.1
687.0;641.3;;;;;;;;;;;;;;1.3392743;0.029541917;-0.42097232;;;;;522.1
687.0;641.3;;;;;;;;;;;;;;;;;-73.37413;17.811365;23.857845;;522.1
687.0;641.3;;;;;;;;;;;;;;1.274514;-0.016479995;-0.34186834;;;;;522.1
687.0;641.3;;;;;;;;;;;;;;;;;-69.39527;21.320993;19.802696;;531.7
687.0;641.3;;;;;;;;;;;;;;1.1619006;-0.07843257;-0.26355785;;;;;531.7
687.0;641.3;;;;;;;;;;;;;;;;;-60.235905;23.968475;16.80044;;531.7
687.0;641.3;;;;;;;;;;;;;;1.0328074;-0.16217536;-0.19824824;;;;;531.7
687.0;641.3;;;;;;;;;;;;;;;;;-48.234505;25.906399;15.648365;;541.1
687.0;641.3;;;;;;;;;;;;;;0.92519915;-0.25696585;-0.15668203;;;;;541.1
687.0;641.3;;;;;;;;;;;;;;;;;-33.59325;27.165289;16.617329;;541.1
687.0;641.3;;;;;;;;;;;;;;0.83797723;-0.34504226;-0.1297647;;;;;541.1
745.0;642.5;;;;;;;;;;;;;;;;;-15.003662;26.787622;20.050661;;550.8
745.0;642.5;;;;;;;;;;;;;;0.7606433;-0.4384289;-0.11890011;;;;;550.8
745.0;642.5;;;;;;;;;;;;;;;;;7.145146;23.136845;22.7134;;550.8
745.0;642.5;;;;;;;;;;;;;;0.6812342;-0.52467424;-0.12152471;;;;;550.8
745.0;642.5;;;;;;;;;;;;;;;;;30.755028;14.2941065;23.594624;;560.5
745.0;642.5;;;;;;;;;;;;;;0.6104923;-0.57795954;-0.13928647;;;;;560.5
745.0;642.5;;;;;;;;;;;;;;;;;51.95395;2.1095922;26.219215;;560.5
745.0;642.5;;;;;;;;;;;;;;0.558916;-0.6009095;-0.1528367;;;;;560.5
745.0;642.5;;;;;;;;;;;;;;;;;69.1702;-11.337626;30.541397;;570.1
745.0;642.5;;;;;;;;;;;;;;0.5100253;-0.6366161;-0.17621388;;;;;570.1
745.0;642.5;;;;;;;;;;;;;;;;;82.77383;-23.514511;33.459732;;570.1
745.0;642.5;;;;;;;;;;;;;;0.5034944;-0.6261788;-0.21015045;;;;;570.1
745.0;701.5;;;;;;;;;;;;;;;;;89.23612;-32.612843;36.049988;;579.8
745.0;701.5;;;;;;;;;;;;;;0.5338908;-0.58900726;-0.24176763;;;;;579.8
745.0;701.5;;;;;;;;;;;;;;;;;90.17456;-38.636436;37.850582;;579.8
745.0;701.5;;;;;;;;;;;;;;0.6032899;-0.5355998;-0.26911223;;;;;579.8
745.0;701.5;;;;;;;;;;;;;;;;;88.38161;-42.69921;40.795616;;589.5
745.0;701.5;;;;;;;;;;;;;;0.6933195;-0.45265055;-0.2700278;;;;;589.5
745.0;701.5;;;;;;;;;;;;;;;;;84.50957;-46.201206;42.73736;;589.5
745.0;701.5;;;;;;;;;;;;;;0.80813015;-0.3744621;-0.30164495;;;;;589.5
745.0;701.5;;;;;;;;;;;;;;;;;78.57753;-43.477432;45.14832;;599.0
745.0;701.5;;;;;;;;;;;;;;0.91091645;-0.3106174;-0.32203132;;;;;599.0
745.0;701.5;;;;;;;;;;;;;;;;;70.88686;-35.57695;46.609394;;599.0
745.0;701.5;;;;;;;;;;;;;;1.0016785;-0.2517777;-0.33094272;;;;;599.0
807.0;702.4;;;;;;;;;;;;;;;;;62.97113;-25.688955;46.39958;;608.6
807.0;702.4;;;;;;;;;;;;;;1.0719321;-0.16827907;-0.29059726;;;;;608.6
807.0;702.4;;;;;;;;;;;;;;;;;56.41728;-18.616291;44.518875;;608.6
807.0;702.4;;;;;;;;;;;;;;1.1643422;-0.075441755;-0.30426955;;;;;608.6
807.0;702.4;;;;;;;;;;;;;;;;;52.83517;-11.37196;42.03543;;618.3
807.0;702.4;;;;;;;;;;;;;;1.2355113;0.009704886;-0.29456466;;;;;618.3
807.0;702.4;;;;;;;;;;;;;;;;;50.290688;-5.989258;38.55251;;618.3
807.0;702.4;;;;;;;;;;;;;;1.2773217;0.08929716;-0.30060732;;;;;618.3
807.0;702.4;;;;;;;;;;;;;;;;;48.650322;-1.53737;34.91699;;628.0
807.0;702.4;;;;;;;;;;;;;;1.2735984;0.17242958;-0.31830806;;;;;628.0
807.0;702.4;;;;;;;;;;;;;;;;;46.285133;2.6932585;32.09403;;628.0
807.0;702.4;;;;;;;;;;;;;;1.2388073;0.23310037;-0.3352153;;;;;628.0
807.0;716.5;;;;;;;;;;;;;;;;;41.879025;8.606219;31.4684;;637.6
807.0;716.5;;;;;;;;;;;;;;1.1835078;0.28199103;-0.31556138;;;;;637.6
807.0;716.5;;;;;;;;;;;;;;;;;35.64562;14.248329;32.521286;;637.6
807.0;716.5;;;;;;;;;;;;;;1.1127049;0.2882168;-0.2738731;;;;;637.6
807.0;716.5;;;;;;;;;;;;;;;;;29.999695;17.082735;34.752953;;647.2
807.0;716.5;;;;;;;;;;;;;;1.052034;0.24506363;-0.21820734;;;;;647.2
807.0;716.5;;;;;;;;;;;;;;;;;24.513994;16.224403;36.687065;;647.2
807.0;716.5;;;;;;;;;;;;;;1.0275582;0.18494217;-0.18573564;;;;;647.2
807.0;716.5;;;;;;;;;;;;;;;;;19.47081;14.267404;37.82388;;656.9
807.0;716.5;;;;;;;;;;;;;;1.0132755;0.11371197;-0.17719047;;;;;656.9
807.0;716.5;;;;;;;;;;;;;;;;;15.396588;14.400922;38.384655;;656.9
807.0;716.5;;;;;;;;;;;;;;0.97720265;0.041261025;-0.16803491;;;;;656.9
867.0;762.2;;;;;;;;;;;;;;;;;12.001404;16.209145;38.78903;;666.6
867.0;762.2;;;;;;;;;;;;;;0.9328288;-0.029663991;-0.14062929;;;;;666.6
867.0;762.2;;;;;;;;;;;;;;;;;10.177923;14.9616995;39.23917;;666.6
867.0;762.2;;;;;;;;;;;;;;0.9090243;-0.11487167;-0.1356853;;;;;666.6
867.0;762.2;;;;;;;;;;;;;;;;;11.192663;12.855922;39.540543;;676.0
867.0;762.2;;;;;;;;;;;;;;0.8829615;-0.18652913;-0.16473891;;;;;676.0
867.0;762.2;;;;;;;;;;;;;;;;;14.889218;12.344738;40.52858;;676.0
867.0;762.2;;;;;;;;;;;;;;0.8576922;-0.2664266;-0.18048647;;;;;676.0
867.0;762.2;;;;;;;;;;;;;;;;;20.016327;10.235145;41.89047;;685.7
867.0;762.2;;;;;;;;;;;;;;0.8382214;-0.33564258;-0.19055757;;;;;685.7
867.0;762.2;;;;;;;;;;;;;;;;;24.68566;4.188666;42.92047;;685.7
867.0;762.2;;;;;;;;;;;;;;0.82796717;-0.38209173;-0.1937315;;;;;685.7
867.0;776.8;;;;;;;;;;;;;;;;;26.432844;-1.2741477;44.30906;;695.4
867.0;776.8;;;;;;;;;;;;;;0.87746817;-0.40144047;-0.29627368;;;;;695.4
867.0;776.8;;;;;;;;;;;;;;;;;24.815363;4.013184;47.269356;;695.4
867.0;776.8;;;;;;;;;;;;;;0.87044895;-0.44209114;-0.31672108;;;;;695.4
867.0;776.8;;;;;;;;;;;;;;;;;21.469772;9.266183;49.150063;;704.9
867.0;776.8;;;;;;;;;;;;;;0.8427381;-0.4407483;-0.29029205;;;;;704.9
867.0;776.8;;;;;;;;;;;;;;;;;19.15418;10.059664;50.95828;;704.9
867.0;776.8;;;;;;;;;;;;;;0.8393811;-0.43256935;-0.28534806;;;;;704.9
867.0;776.8;;;;;;;;;;;;;;;;;16.922514;10.525071;52.457504;;714.6
867.0;776.8;;;;;;;;;;;;;;0.847499;-0.4115726;-0.2938322;;;;;714.6
867.0;776.8;;;;;;;;;;;;;;;;;15.568254;12.127293;53.685875;;714.6
867.0;776.8;;;;;;;;;;;;;;0.84719384;-0.38215277;-0.28754538;;;;;714.6
925.0;822.2;;;;;;;;;;;;;;;;;15.442366;13.138219;54.757835;;724.3
925.0;822.2;;;;;;;;;;;;;;0.8587909;-0.3582873;-0.2827235;;;;;724.3
925.0;822.2;;;;;;;;;;;;;;;;;16.617329;12.905515;55.471203;;724.3
925.0;822.2;;;;;;;;;;;;;;0.8822901;-0.3221534;-0.28437147;;;;;724.3
925.0;822.2;;;;;;;;;;;;;;;;;18.097477;12.955108;55.906094;;734.0
925.0;822.2;;;;;;;;;;;;;;0.8959624;-0.2751549;-0.28913236;;;;;734.0
925.0;822.2;;;;;;;;;;;;;;;;;19.157995;13.351849;56.470688;;734.0
925.0;822.2;;;;;;;;;;;;;;0.9218421;-0.2583697;-0.27887815;;;;;734.0
925.0;822.2;;;;;;;;;;;;;;;;;21.023438;14.000366;56.581318;;743.7
925.0;822.2;;;;;;;;;;;;;;0.93832207;-0.2268746;-0.268746;;;;;743.7
925.0;822.2;;;;;;;;;;;;;;;;;23.148289;16.0947;56.40965;;743.7
925.0;822.2;;;;;;;;;;;;;;0.93594164;-0.19690542;-0.26160467;;;;;743.7
925.0;837.2;;;;;;;;;;;;;;;;;24.58266;18.795588;55.921352;;753.2
925.0;837.2;;;;;;;;;;;;;;0.9234291;-0.16870633;-0.24250008;;;;;753.2
925.0;837.2;;;;;;;;;;;;;;;;;24.983213;20.3444;55.803093;;753.2
925.0;837.2;;;;;;;;;;;;;;0.913358;-0.15649892;-0.22211371;;;;;753.2
925.0;837.2;;;;;;;;;;;;;;;;;24.811548;20.798365;55.45213;;762.9
925.0;837.2;;;;;;;;;;;;;;0.90914637;-0.16071047;-0.22247994;;;;;762.9
925.0;837.2;;;;;;;;;;;;;;;;;24.452957;21.897032;55.169834;;762.9
925.0;837.2;;;;;;;;;;;;;;0.89602345;-0.16315195;-0.21411787;;;;;762.9
925.0;837.2;;;;;;;;;;;;;;;;;23.674734;22.408215;54.13984;;772.5
925.0;837.2;;;;;;;;;;;;;;0.8872951;-0.16272469;-0.20783105;;;;;772.5
925.0;837.2;;;;;;;;;;;;;;;;;22.865993;22.473066;52.51091;;772.5
925.0;837.2;;;;;;;;;;;;;;0.8844264;-0.138493;-0.2106998;;;;;772.5
987.0;882.6;;;;;;;;;;;;;;;;;21.30955;22.79351;51.644947;;782.0
987.0;882.6;;;;;;;;;;;;;;0.8795434;-0.15948974;-0.22571489;;;;;782.0
987.0;882.6;;;;;;;;;;;;;;;;;20.069735;23.033844;52.02643;;782.0
987.0;882.6;;;;;;;;;;;;;;0.8642231;-0.2451857;-0.24304941;;;;;782.0
987.0;882.6;;;;;;;;;;;;;;;;;18.951996;23.682364;50.912502;;791.6
987.0;882.6;;;;;;;;;;;;;;0.85976744;-0.2400586;-0.23895992;;;;;791.6
987.0;882.6;;;;;;;;;;;;;;;;;17.281105;25.048065;49.687946;;791.6
987.0;882.6;;;;;;;;;;;;;;0.8591571;-0.24048586;-0.22516556;;;;;791.6
987.0;882.6;;;;;;;;;;;;;;;;;15.690329;26.150547;49.69939;;801.3
987.0;882.6;;;;;;;;;;;;;;0.85958433;-0.25708792;-0.21503341;;;;;801.3
987.0;882.6;;;;;;;;;;;;;;;;;15.312662;26.036104;49.695576;;801.3
987.0;882.6;;;;;;;;;;;;;;0.8553728;-0.2578814;-0.21765801;;;;;801.3
987.0;898.0;;;;;;;;;;;;;;;;;14.873959;24.838251;50.09613;;811.0
987.0;898.0;;;;;;;;;;;;;;0.85634935;-0.25379193;-0.22095402;;;;;811.0
987.0;898.0;;;;;;;;;;;;;;;;;13.470107;23.991364;50.03128;;811.0
987.0;898.0;;;;;;;;;;;;;;0.86214787;-0.2586749;-0.23554185;;;;;811.0
987.0;898.0;;;;;;;;;;;;;;;;;12.829218;25.212103;50.069427;;820.6
987.0;898.0;;;;;;;;;;;;;;0.8577532;-0.26111636;-0.23401593;;;;;820.6
987.0;898.0;;;;;;;;;;;;;;;;;13.309885;26.299326;49.958797;;820.6
987.0;898.0;;;;;;;;;;;;;;0.8528703;-0.27887815;-0.22815637;;;;;820.6
987.0;898.0;;;;;;;;;;;;;;;;;15.415662;26.08188;49.66506;;830.3
987.0;898.0;;;;;;;;;;;;;;0.8382824;-0.2745445;-0.22699668;;;;;830.3
987.0;898.0;;;;;;;;;;;;;;;;;17.437513;25.624104;48.654137;;830.3
987.0;898.0;;;;;;;;;;;;;;0.8351085;-0.26502272;-0.22962126;;;;;830.3
1049.0;943.0;;;;;;;;;;;;;;;;;18.696402;25.048065;49.55443;;839.8
1049.0;943.0;;;;;;;;;;;;;;0.822779;-0.2696005;-0.2238838;;;;;839.8
1049.0;943.0;;;;;;;;;;;;;;;;;19.886623;22.877438;50.035095;;839.8
1049.0;943.0;;;;;;;;;;;;;;0.8229621;-0.2628254;-0.2174749;;;;;839.8
1049.0;943.0;;;;;;;;;;;;;;;;;20.828882;20.046844;49.851982;;849.4
1049.0;943.0;;;;;;;;;;;;;;0.8233284;-0.2590411;-0.22876675;;;;;849.4
1049.0;943.0;;;;;;;;;;;;;;;;;20.840326;18.51329;50.042725;;849.4
1049.0;943.0;;;;;;;;;;;;;;0.8298593;-0.25763726;-0.23914304;;;;;849.4
1049.0;943.0;;;;;;;;;;;;;;;;;20.123142;17.818995;50.519577;;859.1
1049.0;943.0;;;;;;;;;;;;;;0.8300424;-0.27539903;-0.23596911;;;;;859.1
1049.0;943.0;;;;;;;;;;;;;;;;;19.84466;16.567736;51.18717;;859.1
1049.0;943.0;;;;;;;;;;;;;;0.832667;-0.2791223;-0.23371075;;;;;859.1
1049.0;950.4;;;;;;;;;;;;;;;;;19.547104;14.774774;51.831875;;868.8
1049.0;950.4;;;;;;;;;;;;;;0.8306528;-0.26435134;-0.23212378;;;;;868.8
1049.0;950.4;;;;;;;;;;;;;;;;;18.494217;11.642812;52.33543;;868.8
1049.0;950.4;;;;;;;;;;;;;;0.83803827;-0.28534806;-0.22876675;;;;;868.8
1049.0;950.4;;;;;;;;;;;;;;;;;18.94055;8.3925905;52.93817;;878.4
1049.0;950.4;;;;;;;;;;;;;;0.8346202;-0.27729118;-0.24481948;;;;;878.4
1049.0;950.4;;;;;;;;;;;;;;;;;20.37492;6.2906275;53.235725;;878.4
1049.0;950.4;;;;;;;;;;;;;;0.816187;-0.26899013;-0.21076083;;;;;878.4
1049.0;950.4;;;;;;;;;;;;;;;;;22.686697;-0.28611103;52.316357;;888.1
1049.0;950.4;;;;;;;;;;;;;;0.8625752;-0.3164159;-0.260506;;;;;888.1
1049.0;950.4;;;;;;;;;;;;;;;;;22.503586;2.6360364;53.30821;;888.1
1049.0;950.4;;;;;;;;;;;;;;0.8697775;-0.31714836;-0.27234718;;;;;888.1
1107.0;1010.9;;;;;;;;;;;;;;;;;25.807215;3.4257026;52.373577;;897.7
1107.0;1010.9;;;;;;;;;;;;;;0.8618427;-0.3357036;-0.26953948;;;;;897.7
1107.0;1010.9;;;;;;;;;;;;;;;;;27.947325;1.7586291;50.012207;;897.7
1107.0;1010.9;;;;;;;;;;;;;;0.87655264;-0.3183691;-0.2600177;;;;;897.7
1107.0;1010.9;;;;;;;;;;;;;;;;;29.79751;1.0338145;50.160984;;907.3
1107.0;1010.9;;;;;;;;;;;;;;0.9148228;-0.30970183;-0.3056734;;;;;907.3
1107.0;1010.9;;;;;;;;;;;;;;;;;30.343027;5.8519244;50.49669;;907.3
1107.0;1010.9;;;;;;;;;;;;;;0.9089022;-0.32752463;-0.28791162;;;;;907.3
1107.0;1010.9;;;;;;;;;;;;;;;;;32.280952;8.30485;49.890133;;916.9
1107.0;1010.9;;;;;;;;;;;;;;0.90859705;-0.3195288;-0.27594838;;;;;916.9
1107.0;1010.9;;;;;;;;;;;;;;;;;35.088654;9.697257;49.211098;;916.9
1107.0;1010.9;;;;;;;;;;;;;;0.89999086;-0.32441175;-0.27729118;;;;;916.9
1107.0;1064.1;;;;;;;;;;;;;;;;;39.13236;10.818812;48.638874;;926.5
1107.0;1064.1;;;;;;;;;;;;;;0.89187294;-0.31141087;-0.26752526;;;;;926.5
1107.0;1064.1;;;;;;;;;;;;;;;;;43.481247;10.731071;48.219246;;926.5
1107.0;1064.1;;;;;;;;;;;;;;0.89919734;-0.31214333;-0.2666097;;;;;926.5
1107.0;1064.1;;;;;;;;;;;;;;;;;49.153877;10.235145;47.006134;;936.2
1107.0;1064.1;;;;;;;;;;;;;;0.9058504;-0.3051851;-0.2709433;;;;;936.2
1107.0;1064.1;;;;;;;;;;;;;;;;;52.575764;10.261848;45.850246;;936.2
1107.0;1064.1;;;;;;;;;;;;;;0.9049348;-0.27546006;-0.29157385;;;;;936.2
1107.0;1064.1;;;;;;;;;;;;;;;;;53.651543;11.265144;45.41154;;945.9
1107.0;1064.1;;;;;;;;;;;;;;0.8829615;-0.2817469;-0.28620258;;;;;945.9
1107.0;1064.1;;;;;;;;;;;;;;;;;54.40306;10.261848;44.259468;;945.9
1107.0;1064.1;;;;;;;;;;;;;;0.8397473;-0.2722251;-0.27210304;;;;;945.9
1165.0;1064.7;;;;;;;;;;;;;;;;;55.738243;5.664998;42.092655;;955.5
1165.0;1064.7;;;;;;;;;;;;;;0.82808924;-0.23450422;-0.2941374;;;;;955.5
1165.0;1064.7;;;;;;;;;;;;;;;;;56.684315;4.5396285;42.77169;;955.5
1165.0;1064.7;;;;;;;;;;;;;;0.8222297;-0.22528763;-0.32306895;;;;;955.5
1165.0;1064.7;;;;;;;;;;;;;;;;;56.237984;6.088443;42.527542;;965.1
1165.0;1064.7;;;;;;;;;;;;;;0.80001223;-0.22669148;-0.31727043;;;;;965.1
1165.0;1064.7;;;;;;;;;;;;;;;;;55.56276;6.1571097;41.18854;;965.1
1165.0;1064.7;;;;;;;;;;;;;;0.78420365;-0.22211371;-0.30878627;;;;;965.1
1165.0;1064.7;;;;;;;;;;;;;;;;;54.540394;5.7412944;38.99121;;974.7
1165.0;1064.7;;;;;;;;;;;;;;0.7770623;-0.21759698;-0.3178808;;;;;974.7
1165.0;1064.7;;;;;;;;;;;;;;;;;53.052616;5.3636284;36.393322;;974.7
1165.0;1064.7;;;;;;;;;;;;;;0.76870024;-0.22907193;-0.33185828;;;;;974.7
1165.0;1128.1;;;;0.0;0.0;0.0;;;;;;;;;;;;;;;
1165.0;1128.1;;;;-0.06565858;0.387909;0.054206856;;;;;;;;;;;;;;;
1165.0;1128.1;;;;-0.21749118;1.0685731;0.035789493;;;;;;;;;;;;;;;
1165.0;1128.1;;;;-0.22464374;1.087639;0.018703463;;;;;;;;;;;;;;;
1165.0;1128.1;;;;-0.22399905;1.0906602;0.016441347;;;;;;;;;;;;;;;
1228.0;1131.5;;;;;;;;;;;;;;;;;52.198097;5.1347394;33.768734;;984.4
1228.0;1131.5;;;;;;;;;;;;;;0.7571032;-0.24152349;-0.34089175;;;;;984.4
1228.0;1131.5;;;;;;;;;;;;;;;;;51.99591;4.6807766;30.770287;;984.4
1228.0;1131.5;;;;;;;;;;;;;;0.74898523;-0.25189978;-0.35975218;;;;;984.4
1228.0;1131.5;;;;;;;;;;;;;;;;;51.45039;4.5396285;27.768028;;994.1
1228.0;1131.5;;;;;;;;;;;;;;0.7392193;-0.26197088;-0.37324136;;;;;994.1
1228.0;1131.5;;;;;;;;;;;;;;;;;50.469982;3.6698508;24.544512;;994.1
1228.0;1131.5;;;;;;;;;;;;;;0.73537403;-0.28284556;-0.38044375;;;;;994.1
1228.0;1131.5;;;;;;;;;;;;;;;;;49.7528;2.2392957;21.988586;;1003.7
1228.0;1131.5;;;;;;;;;;;;;;0.7424543;-0.2943205;-0.37818536;;;;;1003.7
1228.0;1131.5;;;;;;;;;;;;;;;;;48.29936;1.0376294;19.863733;;1003.7
1228.0;1131.5;;;;;;;;;;;;;;0.75875115;-0.31446272;-0.37916195;;;;;1003.7
1228.0;1132.2;;;;;;;;;;;;;;;;;47.143467;-0.1411481;18.074587;;1013.3
1228.0;1132.2;;;;;;;;;;;;;;0.78292185;-0.3261208;-0.3810541;;;;;1013.3
1228.0;1132.2;;;;;;;;;;;;;;;;;45.48021;-0.71718496;16.315958;;1013.3
1228.0;1132.2;;;;;;;;;;;;;;0.8072756;-0.33771783;-0.37916195;;;;;1013.3
1228.0;1132.2;;;;;;;;;;;;;;;;;43.49269;-0.9727775;14.992217;;1022.8
1228.0;1132.2;;;;;;;;;;;;;;0.82992035;-0.35126805;-0.3729362;;;;;1022.8
1228.0;1132.2;;;;;;;;;;;;;;;;;41.43269;-0.9537034;13.851588;;1022.8
1228.0;1132.2;;;;;;;;;;;;;;0.85366374;-0.35480818;-0.36432996;;;;;1022.8
1228.0;1132.2;;;;;;;;;;;;;;;;;39.090393;-0.9727775;13.248848;;1032.4
1228.0;1132.2;;;;;;;;;;;;;;0.87594223;-0.36072877;-0.3602405;;;;;1032.4
1228.0;1132.2;;;;;;;;;;;;;;;;;36.420025;-0.49592578;12.897885;;1032.4
1228.0;1132.2;;;;;;;;;;;;;;0.8933378;-0.36597797;-0.34925383;;;;;1032.4
1229.0;1133.0;;;;;;;;;;;;;;;;;33.948025;-0.14877774;12.817774;;1042.1
1229.0;1133.0;;;;;;;;;;;;;;0.9152501;-0.37006745;-0.34266183;;;;;1042.1
1229.0;1133.0;;;;;;;;;;;;;;;;;31.929993;0.26703694;12.810144;;1042.1
1229.0;1133.0;;;;;;;;;;;;;;0.9528489;-0.38264108;-0.342967;;;;;1042.1
1229.0;1133.0;;;;;;;;;;;;;;;;;30.823694;0.6675924;12.802515;;1051.8
1229.0;1133.0;;;;;;;;;;;;;;0.9970397;-0.3998535;-0.34913176;;;;;1051.8
1229.0;1133.0;;;;;;;;;;;;;;;;;30.381176;0.92318493;12.661366;;1051.8
1229.0;1133.0;;;;;;;;;;;;;;1.0436109;-0.43061617;-0.36103398;;;;;1051.8
1229.0;1133.0;;;;;;;;;;;;;;;;;31.20899;0.84307384;12.222664;;1061.4
1229.0;1133.0;;;;;;;;;;;;;;1.073397;-0.46394238;-0.36750388;;;;;1061.4
1229.0;1133.0;;;;;;;;;;;;;;;;;32.84936;-0.10299997;marras.17;;1061.4
1229.0;1133.0;;;;;;;;;;;;;;1.0805384;-0.49061555;-0.37531662;;;;;1061.4
1229.0;1137.9;;;;-0.2223244;1.0923997;0.01394272;;;;;;;;;;;;;;;
1229.0;1137.9;;;;-0.22056964;1.0951501;0.011318208;;;;;;;;;;;;;;;
1229.0;1137.9;;;;-0.22034076;1.0987359;0.008407594;;;;;;;;;;;;;;;
1229.0;1137.9;;;;-0.22034839;1.1018754;0.0054817204;;;;;;;;;;;;;;;
1229.0;1137.9;;;;-0.21986392;1.1042825;0.002536774;;;;;;;;;;;;;;;
1229.0;1139.7;57446;57456;11149;;;;;;;;;;;;;;;;;;
1230.0;1147.9;;;;-0.2196236;1.1055375;-6.752015E-4;;;;;;;;;;;;;;;
1230.0;1147.9;;;;-0.21831134;1.1059686;-0.004291535;;;;;;;;;;;;;;;
1230.0;1147.9;;;;-0.21632388;1.1065179;-0.007484437;;;;;;;;;;;;;;;
1230.0;1147.9;;;;-0.21521762;1.1058275;-0.012233736;;;;;;;;;;;;;;;
1230.0;1147.9;;;;-0.21313098;1.1041833;-0.016048433;;;;;;;;;;;;;;;
1230.0;1157.9;;;;-0.21063235;1.1018945;-0.019584658;;;;;;;;;;;;;;;
1230.0;1157.9;;;;-0.20818332;1.0983468;-0.023159029;;;;;;;;;;;;;;;
1230.0;1157.9;;;;-0.20595554;1.0942918;-0.025772098;;;;;;;;;;;;;;;
1230.0;1157.9;;;;-0.2025986;1.0901414;-0.028175358;;;;;;;;;;;;;;;
1230.0;1157.9;;;;-0.19801715;1.0855218;-0.030811314;;;;;;;;;;;;;;;
1230.0;1159.8;73934;73773;11150;;;;;;;;;;;;;;;;;;
1230.0;1166.0;;;;;;;;;;;;;0;;;;;;;;
1230.0;1166.0;;;;;;;;;;;;;0;;;;;;;;
1230.0;1166.0;;;;;;;;;;;;;-1;;;;;;;;
1230.0;1166.0;;;;;;;;;;;;;-2;;;;;;;;
1230.0;1166.0;;;;;;;;;;;;;-4;;;;;;;;
1230.0;1168.0;;;;-0.19319537;1.0809594;-0.03166199;;;;;;;;;;;;;;;
1230.0;1168.0;;;;-0.18674852;1.0768586;-0.031738285;;;;;;;;;;;;;;;
1230.0;1168.0;;;;-0.18127824;1.0726663;-0.033794407;;;;;;;;;;;;;;;
1230.0;1168.0;;;;-0.1762314;1.0695001;-0.036529545;;;;;;;;;;;;;;;
1230.0;1168.0;;;;-0.17203523;1.0662614;-0.039421085;;;;;;;;;;;;;;;
1232.0;1178.1;;;;-0.16780473;1.0631257;-0.04200745;;;;;;;;;;;;;;;
1232.0;1178.1;;;;-0.16402437;1.0611764;-0.044239048;;;;;;;;;;;;;;;
1232.0;1178.1;;;;-0.1614113;1.0603906;-0.046443943;;;;;;;;;;;;;;;
1232.0;1178.1;;;;-0.15859224;1.0600473;-0.048740394;;;;;;;;;;;;;;;
1232.0;1178.1;;;;-0.15554811;1.0610963;-0.05097962;;;;;;;;;;;;;;;
1232.0;1180.1;90384;90253;11146;;;;;;;;;;;;;;;;;;
1232.0;1188.2;;;;-0.15279771;1.0631715;-0.052883156;;;;;;;;;;;;;;;
1232.0;1188.2;;;;-0.14938737;1.065674;-0.054805763;;;;;;;;;;;;;;;
1232.0;1188.2;;;;-0.14617921;1.0670701;-0.05677796;;;;;;;;;;;;;;;
1232.0;1188.2;;;;-0.14426805;1.0698129;-0.0596428;;;;;;;;;;;;;;;
1232.0;1188.2;;;;-0.14296342;1.070675;-0.06278611;;;;;;;;;;;;;;;
1232.0;1198.3;;;;-0.13938142;1.0718919;-0.062725075;;;;;;;;;;;;;;;
1232.0;1198.3;;;;-0.13842012;1.0738641;-0.06407548;;;;;;;;;;;;;;;
1232.0;1198.3;;;;-0.13874055;1.0749742;-0.06583024;;;;;;;;;;;;;;;
1232.0;1198.3;;;;-0.13879015;1.0741884;-0.067394264;;;;;;;;;;;;;;;
1232.0;1198.3;;;;-0.13853075;1.0725061;-0.067775734;;;;;;;;;;;;;;;
1232.0;1199.6;;;;;;;;;;;;;;;;;35.252693;-1.4381847;11.631367;;1071.0
1232.0;1199.6;;;;;;;;;;;;;;1.0678426;-0.49372846;-0.3671987;;;;;1071.0
1232.0;1199.6;;;;;;;;;;;;;;;;;38.42662;-3.4333322;11.196478;;1071.0
1232.0;1199.6;;;;;;;;;;;;;;1.0518509;-0.47492903;-0.36213264;;;;;1071.0
1232.0;1199.6;;;;;;;;;;;;;;;;;41.547134;-5.6230354;10.330516;;1080.7
1232.0;1199.6;;;;;;;;;;;;;;1.0356761;-0.44227424;-0.36500138;;;;;1080.7
1232.0;1199.6;;;;;;;;;;;;;;;;;44.225136;-7.869961;9.174627;;1080.7
1232.0;1199.6;;;;;;;;;;;;;;1.0283517;-0.4054689;-0.36524552;;;;;1080.7
1232.0;1199.6;;;;;;;;;;;;;;;;;45.96469;-9.750664;7.6105533;;1090.3
1232.0;1199.6;;;;;;;;;;;;;;1.033723;-0.35840937;-0.36335337;;;;;1090.3
1232.0;1199.6;;;;;;;;;;;;;;;;;46.079132;-11.177403;5.9320354;;1090.3
1232.0;1199.6;;;;;;;;;;;;;;1.0356761;-0.3200171;-0.36249885;;;;;1090.3
1232.0;1200.5;;;;;;;;;;;;;;;;;45.113987;-12.543107;4.093295;;1100.0
1232.0;1200.5;;;;;;;;;;;;;;1.0231025;-0.27906126;-0.36262092;;;;;1100.0
1232.0;1200.5;;;;;;;;;;;;;;;;;43.5461;-13.70281;2.128666;;1100.0
1232.0;1200.5;;;;;;;;;;;;;;0.9988708;-0.23358867;-0.35871455;;;;;1100.0
1232.0;1200.5;;;;;;;;;;;;;;;;;41.848507;-15.408032;-0.19837031;;1109.6
1232.0;1200.5;;;;;;;;;;;;;;0.9724418;-0.18756676;-0.35370952;;;;;1109.6
1232.0;1200.5;;;;;;;;;;;;;;;;;40.341652;-18.01355;-3.4295175;;1109.6
1232.0;1200.5;;;;;;;;;;;;;;0.9623707;-0.14270455;-0.364391;;;;;1109.6
1232.0;1200.5;;;;;;;;;;;;;;;;;38.682213;-20.371105;-7.56859;;1119.2
1232.0;1200.5;;;;;;;;;;;;;;0.9615772;-0.0910062;-0.3723258;;;;;1119.2
1232.0;1200.5;;;;;;;;;;;;;;;;;35.946987;-22.690512;-12.218848;;1119.2
1232.0;1200.5;;;;;;;;;;;;;;0.9630421;-0.055543687;-0.3882565;;;;;1119.2
1287.0;1200.2;106692;106668;11149;;;;;;;;;;;;;;;;;;
1287.0;1206.2;;;;;;;;;;;;;-5;;;;;;;;
1287.0;1206.2;;;;;;;;;;;;;-7;;;;;;;;
1287.0;1206.2;;;;;;;;;;;;;-12;;;;;;;;
1287.0;1206.2;;;;;;;;;;;;;-10;;;;;;;;
1287.0;1206.2;;;;;;;;;;;;;-12;;;;;;;;
1287.0;1208.1;;;;-0.13834764;1.0703813;-0.06721879;;;;;;;;;;;;;;;
1287.0;1208.1;;;;-0.13806154;1.067669;-0.06681443;;;;;;;;;;;;;;;
1287.0;1208.1;;;;-0.13876344;1.0643998;-0.066688545;;;;;;;;;;;;;;;
1287.0;1208.1;;;;-0.14036943;1.0604287;-0.06575013;;;;;;;;;;;;;;;
1287.0;1208.1;;;;-0.14234544;1.0565072;-0.064155586;;;;;;;;;;;;;;;
1287.0;1217.9;;;;-0.14522173;1.0520059;-0.062263496;;;;;;;;;;;;;;;
1287.0;1217.9;;;;-0.14850236;1.0464784;-0.060279854;;;;;;;;;;;;;;;
1287.0;1217.9;;;;-0.1514168;1.0409852;-0.056243904;;;;;;;;;;;;;;;
1287.0;1217.9;;;;-0.15494157;1.0342256;-0.051849373;;;;;;;;;;;;;;;
1287.0;1217.9;;;;-0.15869142;1.0270921;-0.047409065;;;;;;;;;;;;;;;
1287.0;1220.0;123186;123015;11160;;;;;;;;;;;;;;;;;;
1287.0;1228.0;;;;-0.16243745;1.0194932;-0.04202271;;;;;;;;;;;;;;;
1287.0;1228.0;;;;-0.16598131;1.0109788;-0.038024906;;;;;;;;;;;;;;;
1287.0;1228.0;;;;-0.17000963;1.0018693;-0.03472138;;;;;;;;;;;;;;;
1287.0;1228.0;;;;-0.17396547;0.9919778;-0.031085972;;;;;;;;;;;;;;;
1287.0;1228.0;;;;-0.17710115;0.98189557;-0.026615147;;;;;;;;;;;;;;;
1345.0;1238.2;;;;-0.18016054;0.9713708;-0.02385712;;;;;;;;;;;;;;;
1345.0;1238.2;;;;-0.1832924;0.9606515;-0.020256044;;;;;;;;;;;;;;;
1345.0;1238.2;;;;-0.18616487;0.9498979;-0.016098024;;;;;;;;;;;;;;;
1345.0;1238.2;;;;-0.18853381;0.9385148;-0.012699129;;;;;;;;;;;;;;;
1345.0;1238.2;;;;-0.19079974;0.9277421;-0.008613587;;;;;;;;;;;;;;;
1345.0;1240.3;139324;139454;11156;;;;;;;;;;;;;;;;;;
1345.0;1246.5;;;;;;;;;;;;;-14;;;;;;;;
1345.0;1246.5;;;;;;;;;;;;;-10;;;;;;;;
1345.0;1246.5;;;;;;;;;;;;;-24;;;;;;;;
1345.0;1246.5;;;;;;;;;;;;;-6;;;;;;;;
1345.0;1246.5;;;;;;;;;;;;;-3;;;;;;;;
1345.0;1248.3;;;;-0.19233325;0.9171525;-0.005157471;;;;;;;;;;;;;;;
1345.0;1248.3;;;;-0.19302371;0.9070436;-0.0015335085;;;;;;;;;;;;;;;
1345.0;1248.3;;;;-0.19394305;0.897812;0.0021667483;;;;;;;;;;;;;;;
1345.0;1248.3;;;;-0.1943703;0.88782895;0.0057563786;;;;;;;;;;;;;;;
1345.0;1248.3;;;;-0.19504169;0.87871563;0.009586335;;;;;;;;;;;;;;;
1345.0;1258.3;;;;-0.19619754;0.8694612;0.012435915;;;;;;;;;;;;;;;
1345.0;1258.3;;;;-0.19763568;0.8604623;0.015796663;;;;;;;;;;;;;;;
1345.0;1258.3;;;;-0.19829181;0.8523294;0.018833162;;;;;;;;;;;;;;;
1345.0;1258.3;;;;-0.19887164;0.84520733;0.021903994;;;;;;;;;;;;;;;
1345.0;1258.3;;;;-0.19981006;0.8389207;0.023933414;;;;;;;;;;;;;;;
1345.0;1260.4;155821;155782;11152;;;;;;;;;;;;;;;;;;
1346.0;1268.2;;;;-0.20108417;0.8331758;0.026134495;;;;;;;;;;;;;;;
1346.0;1268.2;;;;-0.20193103;0.8287889;0.029083256;;;;;;;;;;;;;;;
1346.0;1268.2;;;;-0.20392993;0.82436764;0.03092194;;;;;;;;;;;;;;;
1346.0;1268.2;;;;-0.20609286;0.82125485;0.033077244;;;;;;;;;;;;;;;
1346.0;1268.2;;;;-0.20876315;0.8183137;0.035358433;;;;;;;;;;;;;;;
1346.0;1278.3;;;;-0.21207431;0.81596386;0.037502293;;;;;;;;;;;;;;;
1346.0;1278.3;;;;-0.21515658;0.81448376;0.040264133;;;;;;;;;;;;;;;
1346.0;1278.3;;;;-0.21837619;0.8141366;0.041507725;;;;;;;;;;;;;;;
1346.0;1278.3;;;;-0.22177508;0.81517804;0.043178562;;;;;;;;;;;;;;;
1346.0;1278.3;;;;-0.22544101;0.8162347;0.04467011;;;;;;;;;;;;;;;
1346.0;1280.6;172220;172161;11155;;;;;;;;;;;;;;;;;;
1346.0;1286.7;;;;;;;;;;;;;-116;;;;;;;;
1346.0;1286.7;;;;;;;;;;;;;-101;;;;;;;;
1346.0;1286.7;;;;;;;;;;;;;176;;;;;;;;
1346.0;1286.7;;;;;;;;;;;;;129;;;;;;;;
1346.0;1286.7;;;;;;;;;;;;;-882;;;;;;;;
1346.0;1288.4;;;;-0.22647479;0.8184205;0.04793168;;;;;;;;;;;;;;;
1346.0;1288.4;;;;-0.22426227;0.8225442;0.051769264;;;;;;;;;;;;;;;
1346.0;1288.4;;;;-0.22532657;0.82780087;0.053501137;;;;;;;;;;;;;;;
1346.0;1288.4;;;;-0.23018649;0.8320199;0.053134926;;;;;;;;;;;;;;;
1346.0;1288.4;;;;-0.23033145;0.8355943;0.05521775;;;;;;;;;;;;;;;
1347.0;1298.6;;;;-0.22963718;0.84033215;0.05677796;;;;;;;;;;;;;;;
1347.0;1298.6;;;;-0.22866061;0.8455583;0.056957252;;;;;;;;;;;;;;;
1347.0;1298.6;;;;-0.22860721;0.85110486;0.056552894;;;;;;;;;;;;;;;
1347.0;1298.6;;;;-0.22683337;0.8565599;0.05750657;;;;;;;;;;;;;;;
1347.0;1298.6;;;;-0.2250748;0.8627397;0.058158882;;;;;;;;;;;;;;;
1347.0;1300.9;188583;188558;11145;;;;;;;;;;;;;;;;;;
1347.0;1304.9;;;;;;;;;;;;;;;;;32.059696;-24.334698;-17.578661;;1128.8
1347.0;1304.9;;;;;;;;;;;;;;0.96499527;-0.017883847;-0.40668964;;;;;1128.8
1347.0;1304.9;;;;;;;;;;;;;;;;;26.253548;-25.181585;-22.869808;;1128.8
1347.0;1304.9;;;;;;;;;;;;;;0.9630421;0.020142216;-0.4173101;;;;;1128.8
1347.0;1304.9;;;;;;;;;;;;;;;;;18.22718;-26.135288;-27.855768;;1138.4
1347.0;1304.9;;;;;;;;;;;;;;0.959685;0.05627613;-0.4250618;;;;;1138.4
1347.0;1304.9;;;;;;;;;;;;;;;;;8.491775;-27.100437;-32.883694;;1138.4
1347.0;1304.9;;;;;;;;;;;;;;0.9555345;0.089358196;-0.42249826;;;;;1138.4
1347.0;1304.9;;;;;;;;;;;;;;;;;-2.4147773;-28.965881;-37.820065;;1148.1
1347.0;1304.9;;;;;;;;;;;;;;0.9543138;0.10260323;-0.41950744;;;;;1148.1
1347.0;1304.9;;;;;;;;;;;;;;;;;-13.61507;-31.662952;-43.187508;;1148.1
1347.0;1304.9;;;;;;;;;;;;;;0.94766074;0.11279641;-0.42170477;;;;;1148.1
1348.0;1305.6;;;;;;;;;;;;;;;;;-23.876919;-34.649952;-48.84106;;1157.6
1348.0;1305.6;;;;;;;;;;;;;;0.9450972;0.10864589;-0.4176153;;;;;1157.6
1348.0;1305.6;;;;;;;;;;;;;;;;;-33.09351;-37.66366;-55.05539;;1157.6
1348.0;1305.6;;;;;;;;;;;;;;0.94845426;0.0999176;-0.4191412;;;;;1157.6
1348.0;1305.6;;;;;;;;;;;;;;;;;-40.944393;-37.739952;-61.75039;;1167.3
1348.0;1305.6;;;;;;;;;;;;;;0.9356975;0.09698782;-0.39613026;;;;;1167.3
1348.0;1305.6;;;;;;;;;;;;;;;;;-47.11295;-37.568287;-68.342384;;1167.3
1348.0;1305.6;;;;;;;;;;;;;;0.93185216;0.08294931;-0.3587756;;;;;1167.3
1348.0;1305.6;;;;;;;;;;;;;;;;;-51.763206;-38.251137;-75.70879;;1177.0
1348.0;1305.6;;;;;;;;;;;;;;0.91134375;0.088930935;-0.34815517;;;;;1177.0
1348.0;1305.6;;;;;;;;;;;;;;;;;-54.464096;-39.16669;-82.895905;;1177.0
1348.0;1305.6;;;;;;;;;;;;;;0.875515;0.098818935;-0.33631396;;;;;1177.0
1348.0;1306.9;;;;;;;;;;;;;;;;;-56.516464;-42.004913;-89.74731;;1186.7
1348.0;1306.9;;;;;;;;;;;;;;0.84670556;0.11322367;-0.3350322;;;;;1186.7
1348.0;1306.9;;;;;;;;;;;;;;;;;-59.015167;-45.40391;-96.93823;;1186.7
1348.0;1306.9;;;;;;;;;;;;;;0.81691945;0.1312296;-0.33924374;;;;;1186.7
1348.0;1306.9;;;;;;;;;;;;;;;;;-61.811424;-47.70806;-103.7286;;1196.3
1348.0;1306.9;;;;;;;;;;;;;;0.80648214;0.15271463;-0.3152562;;;;;1196.3
1348.0;1306.9;;;;;;;;;;;;;;;;;-65.35158;-49.241615;-110.13367;;1196.3
1348.0;1306.9;;;;;;;;;;;;;;0.8221076;0.13989685;-0.2961516;;;;;1196.3
1348.0;1306.9;;;;;;;;;;;;;;;;;-68.41105;-49.089024;-115.81774;;1205.9
1348.0;1306.9;;;;;;;;;;;;;;0.8566546;0.12701803;-0.26410717;;;;;1205.9
1348.0;1306.9;;;;;;;;;;;;;;;;;-71.035645;-47.109135;-121.52089;;1205.9
1348.0;1306.9;;;;;;;;;;;;;;0.906888;0.11847285;-0.22302927;;;;;1205.9
1350.0;1307.7;;;;;;;;;;;;;;;;;-72.878204;-42.83273;-124.660484;;1215.5
1350.0;1307.7;;;;;;;;;;;;;;0.9800714;0.09277627;-0.17456588;;;;;1215.5
1350.0;1307.7;;;;;;;;;;;;;;;;;-73.500015;-37.751396;-124.988556;;1215.5
1350.0;1307.7;;;;;;;;;;;;;;1.0758384;0.03955199;-0.12836085;;;;;1215.5
1350.0;1307.7;;;;;;;;;;;;;;;;;-72.96213;-30.438398;-124.988556;;1225.2
1350.0;1307.7;;;;;;;;;;;;;;1.1905881;-0.060670797;-0.083254494;;;;;1225.2
1350.0;1307.7;;;;;;;;;;;;;;;;;-69.38001;-20.47792;-124.988556;;1225.2
1350.0;1307.7;;;;;;;;;;;;;;1.3022858;-0.14215522;-0.021546068;;;;;1225.2
1350.0;1307.7;;;;;;;;;;;;;;;;;-64.268166;-11.6962185;-124.988556;;1234.8
1350.0;1307.7;;;;;;;;;;;;;;1.3653982;-0.23041475;-0.0016479995;;;;;1234.8
1350.0;1307.7;;;;;;;;;;;;;;;;;-56.18839;-8.09122;-124.988556;;1234.8
1350.0;1307.7;;;;;;;;;;;;;;1.4254586;-0.28620258;-0.07080294;;;;;1234.8
1350.0;1308.4;;;;-0.22251132;0.8679315;0.05907441;;;;;;;;;;;;;;;
1350.0;1308.4;;;;-0.22000125;0.87285626;0.060359962;;;;;;;;;;;;;;;
1350.0;1308.4;;;;-0.21723178;0.87796795;0.061271675;;;;;;;;;;;;;;;
1350.0;1308.4;;;;-0.21514133;0.8826448;0.061164863;;;;;;;;;;;;;;;
1350.0;1308.4;;;;-0.21229938;0.8877069;0.061645515;;;;;;;;;;;;;;;
1350.0;1318.5;;;;-0.20933154;0.8935014;0.06165696;;;;;;;;;;;;;;;
1350.0;1318.5;;;;-0.20594409;0.89854825;0.06064225;;;;;;;;;;;;;;;
1350.0;1318.5;;;;-0.20296481;0.9042207;0.060222633;;;;;;;;;;;;;;;
1350.0;1318.5;;;;-0.2006531;0.9096757;0.058898933;;;;;;;;;;;;;;;
1350.0;1318.5;;;;-0.19701007;0.9155084;0.05830384;;;;;;;;;;;;;;;
1350.0;1320.7;204944;204959;11152;;;;;;;;;;;;;;;;;;
1408.0;1326.9;;;;;;;;;;;;;-2342;;;;;;;;
1408.0;1326.9;;;;;;;;;;;;;-2948;;;;;;;;
1408.0;1326.9;;;;;;;;;;;;;-2198;;;;;;;;
1408.0;1326.9;;;;;;;;;;;;;-782;;;;;;;;
1408.0;1326.9;;;;;;;;;;;;;380;;;;;;;;
1408.0;1328.5;;;;-0.19422534;0.92146695;0.057357796;;;;;;;;;;;;;;;
1408.0;1328.5;;;;-0.19057086;0.92725766;0.057205208;;;;;;;;;;;;;;;
1408.0;1328.5;;;;-0.18758014;0.93314373;0.05636979;;;;;;;;;;;;;;;
1408.0;1328.5;;;;-0.18541719;0.9392129;0.056041725;;;;;;;;;;;;;;;
1408.0;1328.5;;;;-0.18428423;0.9451486;0.05559922;;;;;;;;;;;;;;;
1408.0;1338.1;;;;-0.18299104;0.9509965;0.05578614;;;;;;;;;;;;;;;
1408.0;1338.1;;;;-0.18122484;0.9564897;0.055633552;;;;;;;;;;;;;;;
1408.0;1338.1;;;;-0.18013765;0.9615594;0.05505372;;;;;;;;;;;;;;;
1408.0;1338.1;;;;-0.17897798;0.9671861;0.055618294;;;;;;;;;;;;;;;
1408.0;1338.1;;;;-0.17819597;0.971882;0.055538185;;;;;;;;;;;;;;;
1408.0;1340.5;221310;221296;11160;;;;;;;;;;;;;;;;;;
1408.0;1348.2;;;;-0.17850114;0.97634137;0.05530549;;;;;;;;;;;;;;;
1408.0;1348.2;;;;-0.17818452;0.9808656;0.0559311;;;;;;;;;;;;;;;
1408.0;1348.2;;;;-0.17839433;0.9853822;0.056758888;;;;;;;;;;;;;;;
1408.0;1348.2;;;;-0.17879106;0.9893228;0.056949623;;;;;;;;;;;;;;;
1408.0;1348.2;;;;-0.17891313;0.9928552;0.05768586;;;;;;;;;;;;;;;
1466.0;1358.3;;;;-0.17993547;0.9962808;0.05854798;;;;;;;;;;;;;;;
1466.0;1358.3;;;;-0.18019487;0.99951184;0.05836869;;;;;;;;;;;;;;;
1466.0;1358.3;;;;-0.18093492;1.0025064;0.058681495;;;;;;;;;;;;;;;
1466.0;1358.3;;;;-0.18258668;1.0045587;0.06020356;;;;;;;;;;;;;;;
1466.0;1358.3;;;;-0.18391038;1.0065309;0.060916908;;;;;;;;;;;;;;;
1466.0;1360.8;237700;237705;11146;;;;;;;;;;;;;;;;;;
1466.0;1366.9;;;;;;;;;;;;;1088;;;;;;;;
1466.0;1366.9;;;;;;;;;;;;;1673;;;;;;;;
1466.0;1366.9;;;;;;;;;;;;;2166;;;;;;;;
1466.0;1366.9;;;;;;;;;;;;;2375;;;;;;;;
1466.0;1366.9;;;;;;;;;;;;;2349;;;;;;;;
1466.0;1368.4;;;;-0.18551256;1.0081903;0.060882576;;;;;;;;;;;;;;;
1466.0;1368.4;;;;-0.18742372;1.0091058;0.061054237;;;;;;;;;;;;;;;
1466.0;1368.4;;;;-0.1887627;1.0090295;0.06211091;;;;;;;;;;;;;;;
1466.0;1368.4;;;;-0.19108585;1.0090448;0.0634575;;;;;;;;;;;;;;;
1466.0;1368.4;;;;-0.19315341;1.0086747;0.064617164;;;;;;;;;;;;;;;
1466.0;1378.5;;;;-0.19536975;1.0080606;0.06556321;;;;;;;;;;;;;;;
1466.0;1378.5;;;;-0.19783404;1.0060502;0.0662613;;;;;;;;;;;;;;;
1466.0;1378.5;;;;-0.2000046;1.0041276;0.06692887;;;;;;;;;;;;;;;
1466.0;1378.5;;;;-0.2027016;1.0017282;0.06702805;;;;;;;;;;;;;;;
1466.0;1378.5;;;;-0.20564654;0.9985696;0.06728745;;;;;;;;;;;;;;;
1466.0;1380.9;254127;254125;11139;;;;;;;;;;;;;;;;;;
1469.0;1388.4;;;;-0.2087746;0.9950181;0.068378456;;;;;;;;;;;;;;;
1469.0;1388.4;;;;-0.2115784;0.99105465;0.070156105;;;;;;;;;;;;;;;
1469.0;1388.4;;;;-0.2141495;0.9863359;0.07211686;;;;;;;;;;;;;;;
1469.0;1388.4;;;;-0.21729282;0.9813539;0.07203675;;;;;;;;;;;;;;;
1469.0;1388.4;;;;-0.22003177;0.976143;0.07209397;;;;;;;;;;;;;;;
1469.0;1398.5;;;;-0.22239688;0.96969235;0.07289887;;;;;;;;;;;;;;;
1469.0;1398.5;;;;-0.22525409;0.96309674;0.07334519;;;;;;;;;;;;;;;
1469.0;1398.5;;;;-0.22821048;0.95645535;0.0751648;;;;;;;;;;;;;;;
1469.0;1398.5;;;;-0.23076633;0.95033276;0.07622147;;;;;;;;;;;;;;;
1469.0;1398.5;;;;-0.23237231;0.9432336;0.077335365;;;;;;;;;;;;;;;
1469.0;1401.1;262143;262143;11144;;;;;;;;;;;;;;;;;;
1469.0;1407.2;;;;;;;;;;;;;2218;;;;;;;;
1469.0;1407.2;;;;;;;;;;;;;2066;;;;;;;;
1469.0;1407.2;;;;;;;;;;;;;1966;;;;;;;;
1469.0;1407.2;;;;;;;;;;;;;1920;;;;;;;;
1469.0;1407.2;;;;;;;;;;;;;1911;;;;;;;;
1469.0;1408.6;;;;-0.23325351;0.93514264;0.07772065;;;;;;;;;;;;;;;
1469.0;1408.6;;;;-0.23448566;0.92772686;0.07849503;;;;;;;;;;;;;;;
1469.0;1408.6;;;;-0.23606113;0.9201776;0.0790825;;;;;;;;;;;;;;;
1469.0;1408.6;;;;-0.23783496;0.9130975;0.07881547;;;;;;;;;;;;;;;
1469.0;1408.6;;;;-0.23866275;0.90542233;0.0793953;;;;;;;;;;;;;;;
1471.0;1418.8;;;;-0.24016574;0.8985673;0.07943345;;;;;;;;;;;;;;;
1471.0;1418.8;;;;-0.24252322;0.8918458;0.079673775;;;;;;;;;;;;;;;
1471.0;1418.8;;;;-0.24446109;0.8851243;0.08035279;;;;;;;;;;;;;;;
1471.0;1418.8;;;;-0.24580005;0.8788148;0.08116151;;;;;;;;;;;;;;;
1471.0;1418.8;;;;-0.247345;0.8724214;0.08197022;;;;;;;;;;;;;;;
1471.0;1421.4;262143;262143;11139;;;;;;;;;;;;;;;;;;
1471.0;1425.6;;;;;;;;;;;;;;;;;-46.632282;-3.627888;-124.988556;;1244.5
1471.0;1425.6;;;;;;;;;;;;;;1.5189062;-0.34363842;-0.11603137;;;;;1244.5
1471.0;1425.6;;;;;;;;;;;;;;;;;-38.708916;-1.0872219;-124.988556;;1244.5
1471.0;1425.6;;;;;;;;;;;;;;1.6197394;-0.46320993;-0.11511582;;;;;1244.5
1471.0;1425.6;;;;;;;;;;;;;;;;;-31.743065;-2.2621846;-124.988556;;1253.9
1471.0;1425.6;;;;;;;;;;;;;;1.7065951;-0.6305124;-0.08355968;;;;;1253.9
1471.0;1425.6;;;;;;;;;;;;;;;;;-25.860622;2.639851;-124.988556;;1253.9
1471.0;1425.6;;;;;;;;;;;;;;1.7150792;-0.7984863;-0.0073244423;;;;;1253.9
1471.0;1425.6;;;;;;;;;;;;;;;;;-19.16944;6.8475904;-124.988556;;1263.4
1471.0;1425.6;;;;;;;;;;;;;;1.6028321;-0.90676594;0.11200293;;;;;1263.4
1471.0;1425.6;;;;;;;;;;;;;;;;;-20.756401;-0.93081456;-124.988556;;1263.4
1471.0;1425.6;;;;;;;;;;;;;;1.4463942;-0.9312418;0.08716086;;;;;1263.4
1472.0;1426.5;;;;;;;;;;;;;;;;;-27.058474;-12.825403;-124.988556;;1273.0
1472.0;1426.5;;;;;;;;;;;;;;1.3500168;-0.81752986;-0.031067843;;;;;1273.0
1472.0;1426.5;;;;;;;;;;;;;;;;;-39.609207;-22.202215;-124.75585;;1273.0
1472.0;1426.5;;;;;;;;;;;;;;1.2499771;-0.7404401;-0.15747552;;;;;1273.0
1472.0;1426.5;;;;;;;;;;;;;;;;;-53.819393;-27.554398;-121.82607;;1282.6
1472.0;1426.5;;;;;;;;;;;;;;1.1571398;-0.69966733;-0.21662039;;;;;1282.6
1472.0;1426.5;;;;;;;;;;;;;;;;;-61.81524;-34.699543;-116.40523;;1282.6
1472.0;1426.5;;;;;;;;;;;;;;1.1382793;-0.6739097;-0.21442305;;;;;1282.6
1472.0;1426.5;;;;;;;;;;;;;;;;;-65.324875;-42.119358;-106.27308;;1292.2
1472.0;1426.5;;;;;;;;;;;;;;1.1283914;-0.7134617;-0.25611132;;;;;1292.2
1472.0;1426.5;;;;;;;;;;;;;;;;;-63.20002;-43.591877;-106.368454;;1292.2
1472.0;1426.5;;;;;;;;;;;;;;1.1152685;-0.5829035;-0.24744408;;;;;1292.2
1472.0;1427.2;;;;;;;;;;;;;;;;;-59.65606;-44.320503;-110.70589;;1301.9
1472.0;1427.2;;;;;;;;;;;;;;1.1120335;-0.45973083;-0.22132023;;;;;1301.9
1472.0;1427.2;;;;;;;;;;;;;;;;;-57.85165;-45.838802;-107.96686;;1301.9
1472.0;1427.2;;;;;;;;;;;;;;1.1170385;-0.3798944;-0.20551164;;;;;1301.9
1472.0;1427.2;;;;;;;;;;;;;;;;;-55.227055;-51.80517;-106.410416;;1311.5
1472.0;1427.2;;;;;;;;;;;;;;1.13773;-0.33729056;-0.2603229;;;;;1311.5
1472.0;1427.2;;;;;;;;;;;;;;;;;-44.52269;-56.897945;-105.689415;;1311.5
1472.0;1427.2;;;;;;;;;;;;;;1.1479232;-0.2781457;-0.29242834;;;;;1311.5
1472.0;1427.2;;;;;;;;;;;;;;;;;-31.754509;-58.194984;-105.582596;;1321.1
1472.0;1427.2;;;;;;;;;;;;;;1.1915647;-0.20093387;-0.2882168;;;;;1321.1
1472.0;1427.2;;;;;;;;;;;;;;;;;-20.523697;-55.15076;-101.67241;;1321.1
1472.0;1427.2;;;;;;;;;;;;;;1.2062746;-0.14252144;-0.24671163;;;;;1321.1
1473.0;1428.0;;;;;;;;;;;;;;;;;-12.489699;-52.472763;-97.19764;;1330.7
1473.0;1428.0;;;;;;;;;;;;;;1.2123172;-0.12280648;-0.1859798;;;;;1330.7
1473.0;1428.0;;;;;;;;;;;;;;;;;-12.501144;-51.6068;-99.61241;;1330.7
1473.0;1428.0;;;;;;;;;;;;;;1.1815546;-0.08233894;-0.1892758;;;;;1330.7
1473.0;1428.0;;;;;;;;;;;;;;;;;-13.451034;-47.52495;-99.09741;;1340.3
1473.0;1428.0;;;;;;;;;;;;;;1.1247902;-0.061586354;-0.1604053;;;;;1340.3
1473.0;1428.0;;;;;;;;;;;;;;;;;-16.747032;-43.06925;-94.107635;;1340.3
1473.0;1428.0;;;;;;;;;;;;;;1.0892056;-0.08716086;-0.14075136;;;;;1340.3
1473.0;1428.0;;;;;;;;;;;;;;;;;-22.656178;-36.40858;-91.00238;;1350.0
1473.0;1428.0;;;;;;;;;;;;;;1.0763879;-0.0738548;-0.1053499;;;;;1350.0
1473.0;1428.0;;;;;;;;;;;;;;;;;-27.996918;-29.622028;-86.9892;;1350.0
1473.0;1428.0;;;;;;;;;;;;;;1.038667;-0.0867336;-0.09607227;;;;;1350.0
1473.0;1428.5;;;;-0.248436;0.8666078;0.08260346;;;;;;;;;;;;;;;
1473.0;1428.5;;;;-0.24992374;0.86093533;0.0824051;;;;;;;;;;;;;;;
1473.0;1428.5;;;;-0.2510071;0.855198;0.08422852;;;;;;;;;;;;;;;
1473.0;1428.5;;;;-0.25259402;0.84975445;0.08498383;;;;;;;;;;;;;;;
1473.0;1428.5;;;;-0.2546349;0.84487927;0.08618546;;;;;;;;;;;;;;;
1473.0;1438.6;;;;-0.2556992;0.8397943;0.08705903;;;;;;;;;;;;;;;
1473.0;1438.6;;;;-0.2578812;0.83493435;0.08580399;;;;;;;;;;;;;;;
1473.0;1438.6;;;;-0.26005176;0.8299905;0.08592225;;;;;;;;;;;;;;;
1473.0;1438.6;;;;-0.26308444;0.82494366;0.08563615;;;;;;;;;;;;;;;
1473.0;1438.6;;;;-0.26573947;0.8207551;0.08536912;;;;;;;;;;;;;;;
1473.0;1441.1;262143;262143;11135;;;;;;;;;;;;;;;;;;
1524.0;1447.2;;;;;;;;;;;;;1972;;;;;;;;
1524.0;1447.2;;;;;;;;;;;;;2122;;;;;;;;
1524.0;1447.2;;;;;;;;;;;;;2236;;;;;;;;
1524.0;1447.2;;;;;;;;;;;;;2166;;;;;;;;
1524.0;1447.2;;;;;;;;;;;;;1930;;;;;;;;
1524.0;1448.5;;;;-0.26869205;0.816723;0.08451081;;;;;;;;;;;;;;;
1524.0;1448.5;;;;-0.27149966;0.8133737;0.083702095;;;;;;;;;;;;;;;
1524.0;1448.5;;;;-0.27486804;0.8090631;0.082832344;;;;;;;;;;;;;;;
1524.0;1448.5;;;;-0.27795795;0.80526364;0.08165742;;;;;;;;;;;;;;;
1524.0;1448.5;;;;-0.28076175;0.80142224;0.08219529;;;;;;;;;;;;;;;
1524.0;1458.2;;;;-0.2841721;0.7982789;0.082118995;;;;;;;;;;;;;;;
1524.0;1458.2;;;;-0.28686908;0.7950555;0.08167649;;;;;;;;;;;;;;;
1524.0;1458.2;;;;-0.28981784;0.79185116;0.08115006;;;;;;;;;;;;;;;
1524.0;1458.2;;;;-0.2932892;0.78857434;0.08005143;;;;;;;;;;;;;;;
1524.0;1458.2;;;;-0.29672626;0.78577054;0.07854081;;;;;;;;;;;;;;;
1524.0;1460.9;262143;262143;11142;;;;;;;;;;;;;;;;;;
1524.0;1468.3;;;;-0.3002396;0.7832185;0.07686616;;;;;;;;;;;;;;;
1524.0;1468.3;;;;-0.30264667;0.7807237;0.07604981;;;;;;;;;;;;;;;
1524.0;1468.3;;;;-0.30596927;0.7789842;0.07484055;;;;;;;;;;;;;;;
1524.0;1468.3;;;;-0.30965808;0.7776643;0.07379914;;;;;;;;;;;;;;;
1524.0;1468.3;;;;-0.31295016;0.77676785;0.0736847;;;;;;;;;;;;;;;
1526.0;1478.4;;;;-0.31528857;0.77640545;0.07252885;;;;;;;;;;;;;;;
1526.0;1478.4;;;;-0.31868365;0.7766992;0.07220841;;;;;;;;;;;;;;;
1526.0;1478.4;;;;-0.32184222;0.77763;0.072155006;;;;;;;;;;;;;;;
1526.0;1478.4;;;;-0.32512668;0.7787782;0.07169724;;;;;;;;;;;;;;;
1526.0;1478.4;;;;-0.32860187;0.7807504;0.071666725;;;;;;;;;;;;;;;
1526.0;1481.2;262143;262143;11133;;;;;;;;;;;;;;;;;;
1526.0;1485.2;;;;;;;;;;;;;;;;;-35.420544;-22.762993;-83.368935;;1359.7
1526.0;1485.2;;;;;;;;;;;;;;1.0016174;-0.100833155;-0.046143986;;;;;1359.7
1526.0;1485.2;;;;;;;;;;;;;;;;;-43.88562;-25.566881;-81.08005;;1359.7
1526.0;1485.2;;;;;;;;;;;;;;1.020661;-0.109195225;-0.054811243;;;;;1359.7
1526.0;1485.2;;;;;;;;;;;;;;;;;-46.651356;-27.962584;-78.37153;;1369.4
1526.0;1485.2;;;;;;;;;;;;;;1.0185248;-0.12537004;-0.090029605;;;;;1369.4
1526.0;1485.2;;;;;;;;;;;;;;;;;-49.951168;-21.053957;-76.4832;;1369.4
1526.0;1485.2;;;;;;;;;;;;;;0.96188235;-0.13006988;-0.09778131;;;;;1369.4
1526.0;1485.2;;;;;;;;;;;;;;;;;-56.508835;-11.951812;-75.20524;;1378.9
1526.0;1485.2;;;;;;;;;;;;;;0.8976104;-0.13873714;-0.08172857;;;;;1378.9
1526.0;1485.2;;;;;;;;;;;;;;;;;-61.69698;-6.511887;-74.14854;;1378.9
1526.0;1485.2;;;;;;;;;;;;;;0.83980834;-0.15643787;-0.08777124;;;;;1378.9
1528.0;1486.0;;;;;;;;;;;;;;;;;-63.898132;-3.3417768;-73.40846;;1388.6
1528.0;1486.0;;;;;;;;;;;;;;0.8465224;-0.15045625;-0.094485305;;;;;1388.6
1528.0;1486.0;;;;;;;;;;;;;;;;;-62.82998;-1.0948515;-71.142456;;1388.6
1528.0;1486.0;;;;;;;;;;;;;;0.8523209;-0.17590868;-0.119083226;;;;;1388.6
1528.0;1486.0;;;;;;;;;;;;;;;;;-61.483353;4.3450727;-69.856865;;1398.3
1528.0;1486.0;;;;;;;;;;;;;;0.8181402;-0.18671224;-0.114200264;;;;;1398.3
1528.0;1486.0;;;;;;;;;;;;;;;;;-61.510056;10.196997;-70.26124;;1398.3
1528.0;1486.0;;;;;;;;;;;;;;0.7788324;-0.18066958;-0.10943937;;;;;1398.3
1528.0;1486.0;;;;;;;;;;;;;;;;;-59.83154;13.843959;-69.284645;;1408.0
1528.0;1486.0;;;;;;;;;;;;;;0.7483749;-0.1726127;-0.11224708;;;;;1408.0
1528.0;1486.0;;;;;;;;;;;;;;;;;-57.084873;13.744773;-67.30476;;1408.0
1528.0;1486.0;;;;;;;;;;;;;;0.7127903;-0.16467787;-0.11883908;;;;;1408.0
1528.0;1487.2;;;;;;;;;;;;;1673;;;;;;;;
1528.0;1487.2;;;;;;;;;;;;;1642;;;;;;;;
1528.0;1487.2;;;;;;;;;;;;;1986;;;;;;;;
1528.0;1487.2;;;;;;;;;;;;;2532;;;;;;;;
1528.0;1487.2;;;;;;;;;;;;;2957;;;;;;;;
1528.0;1488.4;;;;-0.3322945;0.783249;0.07159806;;;;;;;;;;;;;;;
1528.0;1488.4;;;;-0.33719257;0.78644955;0.071414955;;;;;;;;;;;;;;;
1528.0;1488.4;;;;-0.34207538;0.78977215;0.07128907;;;;;;;;;;;;;;;
1528.0;1488.4;;;;-0.3476067;0.7933427;0.071365364;;;;;;;;;;;;;;;
1528.0;1488.4;;;;-0.35304645;0.7974702;0.071212776;;;;;;;;;;;;;;;
1588.0;1498.5;;;;-0.35900882;0.8015214;0.07051469;;;;;;;;;;;;;;;
1588.0;1498.5;;;;-0.3645821;0.8059999;0.0710373;;;;;;;;;;;;;;;
1588.0;1498.5;;;;-0.37012866;0.8105775;0.07144929;;;;;;;;;;;;;;;
1588.0;1498.5;;;;-0.3760491;0.81520474;0.072738655;;;;;;;;;;;;;;;
1588.0;1498.5;;;;-0.3819161;0.820305;0.07494355;;;;;;;;;;;;;;;
1588.0;1500.1;;;;;;;;;;;;;;;;;-54.116947;10.593738;-64.325386;;1417.6
1588.0;1500.1;;;;;;;;;;;;;;0.6726279;-0.16370128;-0.12848292;;;;;1417.6
1588.0;1500.1;;;;;;;;;;;;;;;;;-51.881466;5.4818873;-61.376537;;1417.6
1588.0;1500.1;;;;;;;;;;;;;;0.64296395;-0.16272469;-0.14642781;;;;;1417.6
1588.0;1500.1;;;;;;;;;;;;;;;;;-50.977356;1.7242957;-57.481613;;1427.3
1588.0;1500.1;;;;;;;;;;;;;;0.6387524;-0.16595966;-0.1655324;;;;;1427.3
1588.0;1500.1;;;;;;;;;;;;;;;;;-49.756615;0.48066652;-53.48369;;1427.3
1588.0;1500.1;;;;;;;;;;;;;;0.6283761;-0.16809595;-0.14990692;;;;;1427.3
1588.0;1500.1;;;;;;;;;;;;;;;;;-48.387096;-0.45396283;-48.154392;;1436.9
1588.0;1500.1;;;;;;;;;;;;;;0.6308176;-0.18634602;-0.13837092;;;;;1436.9
1588.0;1500.1;;;;;;;;;;;;;;;;;-45.484024;0.7667776;-43.11884;;1436.9
1588.0;1500.1;;;;;;;;;;;;;;0.6252022;-0.18982513;-0.11651967;;;;;1436.9
1588.0;1501.1;262143;262143;11133;;;;;;;;;;;;;;;;;;
1588.0;1508.4;;;;-0.38766485;0.8261491;0.07712174;;;;;;;;;;;;;;;
1588.0;1508.4;;;;-0.39298636;0.8329469;0.07943345;;;;;;;;;;;;;;;
1588.0;1508.4;;;;-0.3981133;0.8395692;0.082118995;;;;;;;;;;;;;;;
1588.0;1508.4;;;;-0.40217596;0.84689724;0.08515931;;;;;;;;;;;;;;;
1588.0;1508.4;;;;-0.4057122;0.8544961;0.08676148;;;;;;;;;;;;;;;
1590.0;1518.3;;;;-0.40894705;0.86261;0.088623054;;;;;;;;;;;;;;;
1590.0;1518.3;;;;-0.4123574;0.8704988;0.090076454;;;;;;;;;;;;;;;
1590.0;1518.3;;;;-0.41489035;0.8781282;0.092025764;;;;;;;;;;;;;;;
1590.0;1518.3;;;;-0.418171;0.88549435;0.09378435;;;;;;;;;;;;;;;
1590.0;1518.3;;;;-0.4207917;0.89315045;0.09696962;;;;;;;;;;;;;;;
1590.0;1521.2;262143;262143;11130;;;;;;;;;;;;;;;;;;
1590.0;1527.2;;;;;;;;;;;;;3030;;;;;;;;
1590.0;1527.2;;;;;;;;;;;;;2948;;;;;;;;
1590.0;1527.2;;;;;;;;;;;;;2859;;;;;;;;
1590.0;1527.2;;;;;;;;;;;;;2461;;;;;;;;
1590.0;1527.2;;;;;;;;;;;;;1775;;;;;;;;
1590.0;1528.4;;;;-0.42470175;0.90052426;0.09979631;;;;;;;;;;;;;;;
1590.0;1528.4;;;;-0.428196;0.9079324;0.10344316;;;;;;;;;;;;;;;
1590.0;1528.4;;;;-0.43222052;0.91510403;0.107734695;;;;;;;;;;;;;;;
1590.0;1528.4;;;;-0.4361573;0.92224896;0.112346664;;;;;;;;;;;;;;;
1590.0;1528.4;;;;-0.43961722;0.9297296;0.117740646;;;;;;;;;;;;;;;
1590.0;1538.5;;;;-0.4419976;0.9365045;0.123172775;;;;;;;;;;;;;;;
1590.0;1538.5;;;;-0.44337088;0.94321835;0.12807085;;;;;;;;;;;;;;;
1590.0;1538.5;;;;-0.44506842;0.9495317;0.13262178;;;;;;;;;;;;;;;
1590.0;1538.5;;;;-0.44639975;0.95562756;0.13844682;;;;;;;;;;;;;;;
1590.0;1538.5;;;;-0.4478112;0.96135724;0.14351274;;;;;;;;;;;;;;;
1590.0;1541.4;262143;262143;11140;;;;;;;;;;;;;;;;;;
1592.0;1545.7;;;;;;;;;;;;;;;;;-41.238136;3.540147;-37.785732;;1446.5
1592.0;1545.7;;;;;;;;;;;;;;0.6191595;-0.20941801;-0.10022279;;;;;1446.5
1592.0;1545.7;;;;;;;;;;;;;;;;;-36.515396;8.045443;-34.287544;;1446.5
1592.0;1545.7;;;;;;;;;;;;;;0.62105167;-0.20520645;-0.09106723;;;;;1446.5
1592.0;1545.7;;;;;;;;;;;;;;;;;-30.369732;12.527848;-30.259102;;1456.2
1592.0;1545.7;;;;;;;;;;;;;;0.6006043;-0.20532854;-0.06860561;;;;;1456.2
1592.0;1545.7;;;;;;;;;;;;;;;;;-22.1984;13.870663;-26.470993;;1456.2
1592.0;1545.7;;;;;;;;;;;;;;0.5929136;-0.21210364;-0.07806635;;;;;1456.2
1592.0;1545.7;;;;;;;;;;;;;;;;;-14.328441;14.481033;-22.892696;;1465.8
1592.0;1545.7;;;;;;;;;;;;;;0.5681326;-0.22144231;-0.09784234;;;;;1465.8
1592.0;1545.7;;;;;;;;;;;;;;;;;-6.260109;14.507736;-19.890438;;1465.8
1592.0;1545.7;;;;;;;;;;;;;;0.550737;-0.21759698;-0.10943937;;;;;1465.8
1592.0;1548.5;;;;-0.44969946;0.9671556;0.14790346;;;;;;;;;;;;;;;
1592.0;1548.5;;;;-0.4503594;0.9721681;0.15050127;;;;;;;;;;;;;;;
1592.0;1548.5;;;;-0.45099264;0.976761;0.15262224;;;;;;;;;;;;;;;
1592.0;1548.5;;;;-0.45117575;0.9798585;0.15419008;;;;;;;;;;;;;;;
1592.0;1548.5;;;;-0.45188147;0.98287594;0.15617754;;;;;;;;;;;;;;;
1592.0;1558.6;;;;-0.45259863;0.9853059;0.15736009;;;;;;;;;;;;;;;
1592.0;1558.6;;;;-0.45383078;0.9875947;0.15867235;;;;;;;;;;;;;;;
1592.0;1558.6;;;;-0.45501333;0.98939145;0.15960695;;;;;;;;;;;;;;;
1592.0;1558.6;;;;-0.45644766;0.9907304;0.16012956;;;;;;;;;;;;;;;
1592.0;1558.6;;;;-0.4580651;0.99177945;0.16051866;;;;;;;;;;;;;;;
1645.0;1560.3;;;;;;;;;;;;;;;;;1.7166661;12.417218;-16.579182;;1475.4
1645.0;1560.3;;;;;;;;;;;;;;0.529313;-0.21997742;-0.11981567;;;;;1475.4
1645.0;1560.3;;;;;;;;;;;;;;;;;9.079257;5.4170356;-13.6227;;1475.4
1645.0;1560.3;;;;;;;;;;;;;;0.52327037;-0.21283609;-0.15735343;;;;;1475.4
1645.0;1560.3;;;;;;;;;;;;;;;;;16.0947;-2.6703696;-10.132145;;1485.0
1645.0;1560.3;;;;;;;;;;;;;;0.5384686;-0.20636617;-0.22809534;;;;;1485.0
1645.0;1560.3;;;;;;;;;;;;;;;;;24.567402;-6.7369614;-6.7522206;;1485.0
1645.0;1560.3;;;;;;;;;;;;;;0.55867183;-0.19696645;-0.2626423;;;;;1485.0
1645.0;1560.3;;;;;;;;;;;;;;;;;31.487473;-7.889035;-3.9826655;;1494.6
1645.0;1560.3;;;;;;;;;;;;;;0.5759453;-0.1843318;-0.26813564;;;;;1494.6
1645.0;1560.3;;;;;;;;;;;;;;;;;37.060917;-6.488998;-1.1597034;;1494.6
1645.0;1560.3;;;;;;;;;;;;;;0.5872372;-0.1572924;-0.24335459;;;;;1494.6
1645.0;1561.4;262143;262143;11130;;;;;;;;;;;;;;;;;;
1645.0;1567.4;;;;;;;;;;;;;2041;;;;;;;;
1645.0;1567.4;;;;;;;;;;;;;4269;;;;;;;;
1645.0;1567.4;;;;;;;;;;;;;4729;;;;;;;;
1645.0;1567.4;;;;;;;;;;;;;-2572;;;;;;;;
1645.0;1567.4;;;;;;;;;;;;;-14419;;;;;;;;
1645.0;1568.5;;;;-0.4592362;0.9928247;0.16023256;;;;;;;;;;;;;;;
1645.0;1568.5;;;;-0.46022803;0.99395;0.15904237;;;;;;;;;;;;;;;
1645.0;1568.5;;;;-0.46090704;0.9946748;0.15854646;;;;;;;;;;;;;;;
1645.0;1568.5;;;;-0.4607163;0.995453;0.1574402;;;;;;;;;;;;;;;
1645.0;1568.5;;;;-0.46085364;0.9963304;0.15584947;;;;;;;;;;;;;;;
1657.0;1578.4;;;;-0.46073538;0.99715436;0.15499116;;;;;;;;;;;;;;;
1657.0;1578.4;;;;-0.46062094;0.9987298;0.154274;;;;;;;;;;;;;;;
1657.0;1578.4;;;;-0.46072012;0.9998437;0.15327455;;;;;;;;;;;;;;;
1657.0;1578.4;;;;-0.46090323;0.9999734;0.15205385;;;;;;;;;;;;;;;
1657.0;1578.4;;;;-0.4609223;1.0004426;0.1520424;;;;;;;;;;;;;;;
1657.0;1581.5;262143;262143;11133;;;;;;;;;;;;;;;;;;
1657.0;1588.6;;;;-0.46136862;1.0007402;0.15104295;;;;;;;;;;;;;;;
1657.0;1588.6;;;;-0.46205908;1.0011255;0.15125276;;;;;;;;;;;;;;;
1657.0;1588.6;;;;-0.46244055;1.0010759;0.15091325;;;;;;;;;;;;;;;
1657.0;1588.6;;;;-0.46296316;1.0012971;0.15071107;;;;;;;;;;;;;;;
1657.0;1588.6;;;;-0.46286398;1.0009805;0.15097429;;;;;;;;;;;;;;;
1657.0;1598.7;;;;-0.46254355;1.0009195;0.15101625;;;;;;;;;;;;;;;
1657.0;1598.7;;;;-0.46260458;1.0007058;0.15104677;;;;;;;;;;;;;;;
1657.0;1598.7;;;;-0.46269995;1.0003129;0.15161897;;;;;;;;;;;;;;;
1657.0;1598.7;;;;-0.4631806;1.0000497;0.15155031;;;;;;;;;;;;;;;
1657.0;1598.7;;;;-0.46378332;0.9994775;0.15268709;;;;;;;;;;;;;;;
1657.0;1601.8;262143;262143;11129;;;;;;;;;;;;;;;;;;
1660.0;1605.6;;;;;;;;;;;;;;;;;40.57817;-4.4938507;1.5030366;;1504.3
1660.0;1605.6;;;;;;;;;;;;;;0.60621965;-0.12787256;-0.22144231;;;;;1504.3
1660.0;1605.6;;;;;;;;;;;;;;;;;43.504135;-2.6894438;4.5167394;;1504.3
1660.0;1605.6;;;;;;;;;;;;;;0.6351512;-0.10455641;-0.22437209;;;;;1504.3
1660.0;1605.6;;;;;;;;;;;;;;;;;44.30143;0.7324442;7.7059236;;1514.0
1660.0;1605.6;;;;;;;;;;;;;;0.66585284;-0.07147435;-0.23340556;;;;;1514.0
1660.0;1605.6;;;;;;;;;;;;;;;;;41.402172;4.5319986;11.329996;;1514.0
1660.0;1605.6;;;;;;;;;;;;;;0.68581194;-0.046754356;-0.24640645;;;;;1514.0
1660.0;1605.6;;;;;;;;;;;;;;;;;37.659843;5.53148;14.702292;;1523.5
1660.0;1605.6;;;;;;;;;;;;;;0.69832456;-0.02026429;-0.28034303;;;;;1523.5
1660.0;1605.6;;;;;;;;;;;;;;;;;33.738213;1.7281106;17.529068;;1523.5
1660.0;1605.6;;;;;;;;;;;;;;0.71864986;0.022766808;-0.34662923;;;;;1523.5
1660.0;1607.6;;;;;;;;;;;;;-18208;;;;;;;;
1660.0;1607.6;;;;;;;;;;;;;-7573;;;;;;;;
1660.0;1607.6;;;;;;;;;;;;;8286;;;;;;;;
1660.0;1607.6;;;;;;;;;;;;;15374;;;;;;;;
1660.0;1607.6;;;;;;;;;;;;;11232;;;;;;;;
1660.0;1608.7;;;;-0.46430594;0.9982339;0.15342714;;;;;;;;;;;;;;;
1660.0;1608.7;;;;-0.46506888;0.9976274;0.15560152;;;;;;;;;;;;;;;
1660.0;1608.7;;;;-0.466034;0.9969102;0.15865709;;;;;;;;;;;;;;;
1660.0;1608.7;;;;-0.46689993;0.9960481;0.1613846;;;;;;;;;;;;;;;
1660.0;1608.7;;;;-0.46796423;0.9952432;0.16302873;;;;;;;;;;;;;;;
1705.0;1618.8;;;;-0.46928412;0.99437344;0.16529848;;;;;;;;;;;;;;;
1705.0;1618.8;;;;-0.4706002;0.99341977;0.16781999;;;;;;;;;;;;;;;
1705.0;1618.8;;;;-0.47233206;0.99271405;0.17054369;;;;;;;;;;;;;;;
1705.0;1618.8;;;;-0.4741555;0.99222577;0.17346574;;;;;;;;;;;;;;;
1705.0;1618.8;;;;-0.47742468;0.99255764;0.1776848;;;;;;;;;;;;;;;
1705.0;1620.6;;;;;;;;;;;;;;;;;30.865658;-3.7804804;19.459366;;1533.2
1705.0;1620.6;;;;;;;;;;;;;;0.753441;0.07208472;-0.43159276;;;;;1533.2
1705.0;1620.6;;;;;;;;;;;;;;;;;29.595325;-5.9930725;22.095402;;1533.2
1705.0;1620.6;;;;;;;;;;;;;;0.79628897;0.11877804;-0.4828028;;;;;1533.2
1705.0;1620.6;;;;;;;;;;;;;;;;;28.904844;-3.1624806;24.8764;;1542.8
1705.0;1620.6;;;;;;;;;;;;;;0.8174688;0.1939146;-0.45002595;;;;;1542.8
1705.0;1620.6;;;;;;;;;;;;;;;;;27.535324;1.5068514;24.811548;;1542.8
1705.0;1620.6;;;;;;;;;;;;;;0.8382824;0.24665059;-0.4016846;;;;;1542.8
1705.0;1620.6;;;;;;;;;;;;;;;;;29.63729;7.816553;26.08951;;1552.5
1705.0;1620.6;;;;;;;;;;;;;;0.87258524;0.26715904;-0.3493759;;;;;1552.5
1705.0;1620.6;;;;;;;;;;;;;;;;;32.551807;10.052033;29.862362;;1552.5
1705.0;1620.6;;;;;;;;;;;;;;0.87130344;0.28498185;-0.34369946;;;;;1552.5
1705.0;1621.7;262143;262143;11117;;;;;;;;;;;;;;;;;;
1705.0;1628.6;;;;-0.48045355;0.99242795;0.18155672;;;;;;;;;;;;;;;
1705.0;1628.6;;;;-0.48297507;0.9928514;0.18693163;;;;;;;;;;;;;;;
1705.0;1628.6;;;;-0.4857865;0.9930154;0.19177249;;;;;;;;;;;;;;;
1705.0;1628.6;;;;-0.4894219;0.9943124;0.19710162;;;;;;;;;;;;;;;
1705.0;1628.6;;;;-0.4933663;0.9958726;0.20180133;;;;;;;;;;;;;;;
1706.0;1638.6;;;;-0.496872;0.99784863;0.20621112;;;;;;;;;;;;;;;
1706.0;1638.6;;;;-0.5002404;0.9995614;0.21067813;;;;;;;;;;;;;;;
1706.0;1638.6;;;;-0.50376517;1.0020334;0.2150307;;;;;;;;;;;;;;;
1706.0;1638.6;;;;-0.50700766;1.0049325;0.21959308;;;;;;;;;;;;;;;
1706.0;1638.6;;;;-0.5105782;1.0083429;0.22404483;;;;;;;;;;;;;;;
1706.0;1641.8;262143;262143;11114;;;;;;;;;;;;;;;;;;
1706.0;1647.8;;;;;;;;;;;;;4567;;;;;;;;
1706.0;1647.8;;;;;;;;;;;;;1914;;;;;;;;
1706.0;1647.8;;;;;;;;;;;;;1775;;;;;;;;
1706.0;1647.8;;;;;;;;;;;;;1207;;;;;;;;
1706.0;1647.8;;;;;;;;;;;;;461;;;;;;;;
1706.0;1648.7;;;;-0.5143395;1.0109788;0.22816852;;;;;;;;;;;;;;;
1706.0;1648.7;;;;-0.5178147;1.0144082;0.23163989;;;;;;;;;;;;;;;
1706.0;1648.7;;;;-0.5212098;1.0182534;0.23499301;;;;;;;;;;;;;;;
1706.0;1648.7;;;;-0.52465445;1.0219651;0.23742297;;;;;;;;;;;;;;;
1706.0;1648.7;;;;-0.52724844;1.0258294;0.24019626;;;;;;;;;;;;;;;
1706.0;1658.8;;;;-0.5298043;1.0296708;0.24342349;;;;;;;;;;;;;;;
1706.0;1658.8;;;;-0.53194815;1.0338022;0.24541858;;;;;;;;;;;;;;;
1706.0;1658.8;;;;-0.5331002;1.0376626;0.2473183;;;;;;;;;;;;;;;
1706.0;1658.8;;;;-0.53471;1.0416223;0.24897006;;;;;;;;;;;;;;;
1706.0;1658.8;;;;-0.53615576;1.0449716;0.25049594;;;;;;;;;;;;;;;
1706.0;1662.1;262143;262143;11120;;;;;;;;;;;;;;;;;;
1709.0;1666.3;;;;;;;;;;;;;;;;;33.906063;11.967071;28.645435;;1562.2
1709.0;1666.3;;;;;;;;;;;;;;0.8708762;0.34150213;-0.32636493;;;;;1562.2
1709.0;1666.3;;;;;;;;;;;;;;;;;31.601917;14.606922;27.409435;;1562.2
1709.0;1666.3;;;;;;;;;;;;;;0.89327675;0.36390272;-0.30689412;;;;;1562.2
1709.0;1666.3;;;;;;;;;;;;;;;;;26.913511;13.664663;30.89999;;1571.9
1709.0;1666.3;;;;;;;;;;;;;;0.9537034;0.37391278;-0.29932556;;;;;1571.9
1709.0;1666.3;;;;;;;;;;;;;;;;;19.882809;8.629108;34.691914;;1571.9
1709.0;1666.3;;;;;;;;;;;;;;1.0166936;0.36677146;-0.32642597;;;;;1571.9
1709.0;1666.3;;;;;;;;;;;;;;;;;12.096774;6.3859982;35.008545;;1581.6
1709.0;1666.3;;;;;;;;;;;;;;1.1025116;0.4530778;-0.34980315;;;;;1581.6
1709.0;1666.3;;;;;;;;;;;;;;;;;1.865444;12.306589;34.310432;;1581.6
1709.0;1666.3;;;;;;;;;;;;;;1.1403546;0.48780787;-0.33228552;;;;;1581.6
1709.0;1668.8;;;;-0.537571;1.0479623;0.2515526;;;;;;;;;;;;;;;
1709.0;1668.8;;;;-0.53844076;1.0509607;0.25252536;;;;;;;;;;;;;;;
1709.0;1668.8;;;;-0.5390435;1.0532724;0.25397113;;;;;;;;;;;;;;;
1709.0;1668.8;;;;-0.5399819;1.0554353;0.2555695;;;;;;;;;;;;;;;
1709.0;1668.8;;;;-0.54012305;1.0574571;0.256218;;;;;;;;;;;;;;;
1709.0;1678.8;;;;-0.5392991;1.0590745;0.25774768;;;;;;;;;;;;;;;
1709.0;1678.8;;;;-0.5371743;1.0602952;0.25776675;;;;;;;;;;;;;;;
1709.0;1678.8;;;;-0.53405005;1.0609437;0.25869754;;;;;;;;;;;;;;;
1709.0;1678.8;;;;-0.5301972;1.061371;0.2591057;;;;;;;;;;;;;;;
1709.0;1678.8;;;;-0.5258103;1.0614663;0.25978473;;;;;;;;;;;;;;;
1761.0;1680.8;;;;;;;;;;;;;;;;;-5.9739985;17.075106;32.551807;;1591.2
1761.0;1680.8;;;;;;;;;;;;;;1.1570787;0.5431074;-0.3336894;;;;;1591.2
1761.0;1680.8;;;;;;;;;;;;;;;;;-12.867367;17.986847;28.412733;;1591.2
1761.0;1680.8;;;;;;;;;;;;;;1.1791742;0.6026185;-0.39082003;;;;;1591.2
1761.0;1680.8;;;;;;;;;;;;;;;;;-18.532366;15.968811;24.880215;;1600.8
1761.0;1680.8;;;;;;;;;;;;;;1.1939452;0.6277657;-0.46803185;;;;;1600.8
1761.0;1680.8;;;;;;;;;;;;;;;;;-22.061068;12.146367;21.553698;;1600.8
1761.0;1680.8;;;;;;;;;;;;;;1.1827143;0.6480911;-0.5189978;;;;;1600.8
1761.0;1680.8;;;;;;;;;;;;;;;;;-24.330883;5.7832575;19.138922;;1610.4
1761.0;1680.8;;;;;;;;;;;;;;1.1435286;0.6172674;-0.54341257;;;;;1610.4
1761.0;1680.8;;;;;;;;;;;;;;;;;-25.452436;-3.6317027;15.95355;;1610.4
1761.0;1680.8;;;;;;;;;;;;;;1.1361431;0.633137;-0.5413373;;;;;1610.4
1761.0;1681.9;262143;262143;11123;;;;;;;;;;;;;;;;;;
1761.0;1687.8;;;;;;;;;;;;;-32;;;;;;;;
1761.0;1687.8;;;;;;;;;;;;;-577;;;;;;;;
1761.0;1687.8;;;;;;;;;;;;;-1121;;;;;;;;
1761.0;1687.8;;;;;;;;;;;;;-1672;;;;;;;;
1761.0;1687.8;;;;;;;;;;;;;-2240;;;;;;;;
1761.0;1688.7;;;;-0.52143484;1.0611955;0.2597771;;;;;;;;;;;;;;;
1761.0;1688.7;;;;-0.5172234;1.0607568;0.2604027;;;;;;;;;;;;;;;
1761.0;1688.7;;;;-0.51541525;1.0591279;0.26036075;;;;;;;;;;;;;;;
1761.0;1688.7;;;;-0.51411825;1.0567056;0.2590485;;;;;;;;;;;;;;;
1761.0;1688.7;;;;-0.5139008;1.0538751;0.2586098;;;;;;;;;;;;;;;
1767.0;1698.7;;;;-0.5142556;1.0506898;0.25788882;;;;;;;;;;;;;;;
1767.0;1698.7;;;;-0.5149079;1.0471345;0.25683597;;;;;;;;;;;;;;;
1767.0;1698.7;;;;-0.5154496;1.0432359;0.25459674;;;;;;;;;;;;;;;
1767.0;1698.7;;;;-0.5169297;1.0398866;0.25119022;;;;;;;;;;;;;;;
1767.0;1698.7;;;;-0.51902395;1.0377771;0.24597552;;;;;;;;;;;;;;;
1767.0;1702.0;262143;262143;11108;;;;;;;;;;;;;;;;;;
1767.0;1708.8;;;;-0.52221304;1.0370942;0.2391968;;;;;;;;;;;;;;;
1767.0;1708.8;;;;-0.52011114;1.036461;0.23477939;;;;;;;;;;;;;;;
1767.0;1708.8;;;;-0.5204697;1.0365945;0.22958758;;;;;;;;;;;;;;;
1767.0;1708.8;;;;-0.5234261;1.0391008;0.22178653;;;;;;;;;;;;;;;
1767.0;1708.8;;;;-0.5282746;1.0439111;0.21353152;;;;;;;;;;;;;;;
1767.0;1718.9;;;;-0.5319329;1.0498468;0.20857242;;;;;;;;;;;;;;;
1767.0;1718.9;;;;-0.5344239;1.0577279;0.20500186;;;;;;;;;;;;;;;
1767.0;1718.9;;;;-0.5362893;1.0677301;0.20124438;;;;;;;;;;;;;;;
1767.0;1718.9;;;;-0.53957754;1.0782853;0.19739917;;;;;;;;;;;;;;;
1767.0;1718.9;;;;-0.5436631;1.091015;0.19635394;;;;;;;;;;;;;;;
1767.0;1722.3;262143;262143;11115;;;;;;;;;;;;;;;;;;
1785.0;1726.1;;;;;;;;;;;;;;;;;-27.756584;-13.344218;15.3698845;;1620.0
1785.0;1726.1;;;;;;;;;;;;;;1.1154516;0.5926694;-0.5264443;;;;;1620.0
1785.0;1726.1;;;;;;;;;;;;;;;;;-27.680288;-20.977661;14.778588;;1620.0
1785.0;1726.1;;;;;;;;;;;;;;1.0878627;0.5666677;-0.49360636;;;;;1620.0
1785.0;1726.1;;;;;;;;;;;;;;;;;-24.231697;-23.75866;14.770959;;1629.7
1785.0;1726.1;;;;;;;;;;;;;;1.0559404;0.53724784;-0.43873408;;;;;1629.7
1785.0;1726.1;;;;;;;;;;;;;;;;;-17.29255;-22.423473;14.625996;;1629.7
1785.0;1726.1;;;;;;;;;;;;;;1.0327463;0.47376934;-0.37519455;;;;;1629.7
1785.0;1726.1;;;;;;;;;;;;;;;;;-9.929959;-18.517105;13.504441;;1639.3
1785.0;1726.1;;;;;;;;;;;;;;0.99343854;0.4275033;-0.30030215;;;;;1639.3
1785.0;1726.1;;;;;;;;;;;;;;;;;-4.3031096;-15.160069;12.001404;;1639.3
1785.0;1726.1;;;;;;;;;;;;;;0.96365243;0.39344463;-0.20795313;;;;;1639.3
1785.0;1728.1;;;;;;;;;;;;;-2843;;;;;;;;
1785.0;1728.1;;;;;;;;;;;;;-3607;;;;;;;;
1785.0;1728.1;;;;;;;;;;;;;-4440;;;;;;;;
1785.0;1728.1;;;;;;;;;;;;;-5174;;;;;;;;
1785.0;1728.1;;;;;;;;;;;;;-5684;;;;;;;;
1785.0;1728.9;;;;-0.54970556;1.104725;0.19571307;;;;;;;;;;;;;;;
1785.0;1728.9;;;;-0.5559388;1.1182672;0.1961594;;;;;;;;;;;;;;;
1785.0;1728.9;;;;-0.5619164;1.1313478;0.19656375;;;;;;;;;;;;;;;
1785.0;1728.9;;;;-0.5679589;1.1448365;0.19778445;;;;;;;;;;;;;;;
1785.0;1728.9;;;;-0.57399374;1.1576959;0.20079806;;;;;;;;;;;;;;;
1787.0;1733.6;;;;;;;;;;;;;;;;;0.053407393;-12.932219;11.715293;;1649.0
1787.0;1733.6;;;;;;;;;;;;;;0.9405805;0.32947782;-0.115543075;;;;;1649.0
1787.0;1733.6;;;;;;;;;;;;;;;;;3.540147;-13.168737;11.349071;;1649.0
1787.0;1733.6;;;;;;;;;;;;;;0.9461348;0.27790156;-0.072328866;;;;;1649.0
1787.0;1733.6;;;;;;;;;;;;;;;;;6.7293315;-11.913663;11.410108;;1658.5
1787.0;1733.6;;;;;;;;;;;;;;0.9657277;0.20905179;-0.021668142;;;;;1658.5
1787.0;1733.6;;;;;;;;;;;;;;;;;11.646626;-6.920072;11.333811;;1658.5
1787.0;1733.6;;;;;;;;;;;;;;1.004059;0.128605;0.052125614;;;;;1658.5
1787.0;1733.6;;;;;;;;;;;;;;;;;17.349771;-2.2087772;14.084292;;1668.2
1787.0;1733.6;;;;;;;;;;;;;;1.0777307;-0.0043946654;0.09668264;;;;;1668.2
1787.0;1733.6;;;;;;;;;;;;;;;;;21.538439;-0.6599628;17.78466;;1668.2
1787.0;1733.6;;;;;;;;;;;;;;1.1798456;-0.119449444;0.09747612;;;;;1668.2
1787.0;1738.9;;;;-0.58058935;1.1689683;0.20261005;;;;;;;;;;;;;;;
1787.0;1738.9;;;;-0.58613974;1.180031;0.20522693;;;;;;;;;;;;;;;
1787.0;1738.9;;;;-0.59089285;1.1884576;0.20856097;;;;;;;;;;;;;;;
1787.0;1738.9;;;;-0.5945092;1.1961099;0.21241;;;;;;;;;;;;;;;
1787.0;1738.9;;;;-0.596077;1.2021562;0.215004;;;;;;;;;;;;;;;
1787.0;1739.0;;;;;;;;;;2.4491103;17.422253;-2.521592;;;;;;;;;
1787.0;1739.0;;;;;;;0.1984924;-0.9912412;0.061708428;;;;;;;;;;;;
1787.0;1739.0;;;;;;;;;;7.0726647;32.09403;7.351146;;;;;;;;;
1787.0;1739.0;;;;;;;0.21753594;-1.1202735;0.06500442;;;;;;;;;;;;
1787.0;1742.2;262143;262143;11109;;;;;;;;;;;;;;;;;;
1822.0;1748.3;;;;;;;;;;3.0785549;6.9887385;-0.11444441;;;;;;;;;
1822.0;1748.3;;;;;;;0.21576586;-1.1283303;0.059755243;;;;;;;;;;;;
1822.0;1748.3;;;;;;;;;;11.379589;23.300882;-0.8964812;;;;;;;;;
1822.0;1748.3;;;;;;;0.21503341;-1.1354107;0.054750208;;;;;;;;;;;;
1822.0;1748.8;;;;-0.5976334;1.2060281;0.21776965;;;;;;;;;;;;;;;
1822.0;1748.8;;;;-0.5970612;1.207882;0.22012714;;;;;;;;;;;;;;;
1822.0;1748.8;;;;-0.59546286;1.2082406;0.22270206;;;;;;;;;;;;;;;
1822.0;1748.8;;;;-0.5938454;1.2069284;0.22515872;;;;;;;;;;;;;;;
1822.0;1748.8;;;;-0.5909539;1.2047807;0.22790912;;;;;;;;;;;;;;;
1822.0;1757.9;;;;;;;;;;16.022219;27.882473;-6.195257;;;;;;;;;
1822.0;1757.9;;;;;;;0.21362957;-1.1379131;0.04443495;;;;;;;;;;;;
1822.0;1757.9;;;;;;;;;;15.228736;-5.6230354;-31.186102;;;;;;;;;
1822.0;1757.9;;;;;;;0.20874661;-1.1366314;0.034730066;;;;;;;;;;;;
1822.0;1758.8;;;;-0.58786017;1.2022172;0.22985843;;;;;;;;;;;;;;;
1822.0;1758.8;;;;-0.5839005;1.1980821;0.2308617;;;;;;;;;;;;;;;
1822.0;1758.8;;;;-0.5789719;1.1943132;0.23351291;;;;;;;;;;;;;;;
1822.0;1758.8;;;;-0.5744439;1.1900064;0.23495868;;;;;;;;;;;;;;;
1822.0;1758.8;;;;-0.56997305;1.1856691;0.23677066;;;;;;;;;;;;;;;
1822.0;1762.3;262143;262143;11107;;;;;;;;;;;;;;;;;;
1822.0;1767.6;;;;;;;;;;19.089329;-5.508591;-34.85214;;;;;;;;;
1822.0;1767.6;;;;;;;0.2033143;-1.1288186;0.027466659;;;;;;;;;;;;
1822.0;1767.6;;;;;;;;;;22.6104;-6.595813;-37.118137;;;;;;;;;
1822.0;1767.6;;;;;;;0.19653921;-1.1208838;0.022461623;;;;;;;;;;;;
1824.0;1768.2;;;;;;;;;;;;;-6062;;;;;;;;
1824.0;1768.2;;;;;;;;;;;;;-6415;;;;;;;;
1824.0;1768.2;;;;;;;;;;;;;-6412;;;;;;;;
1824.0;1768.2;;;;;;;;;;;;;-5808;;;;;;;;
1824.0;1768.2;;;;;;;;;;;;;-4917;;;;;;;;
1824.0;1768.9;;;;-0.5664292;1.1820337;0.23943713;;;;;;;;;;;;;;;
1824.0;1768.9;;;;-0.5636521;1.1793634;0.24238971;;;;;;;;;;;;;;;
1824.0;1768.9;;;;-0.5626069;1.176674;0.24390414;;;;;;;;;;;;;;;
1824.0;1768.9;;;;-0.5615006;1.1743051;0.24628451;;;;;;;;;;;;;;;
1824.0;1768.9;;;;-0.5614472;1.1728822;0.24951938;;;;;;;;;;;;;;;
1824.0;1777.2;;;;;;;;;;24.70092;-1.3618885;-31.647694;;;;;;;;;
1824.0;1777.2;;;;;;;0.18372142;-1.1076999;0.020325327;;;;;;;;;;;;
1824.0;1777.2;;;;;;;;;;24.292734;3.318888;-22.171696;;;;;;;;;
1824.0;1777.2;;;;;;;0.16968292;-1.0988494;0.015320292;;;;;;;;;;;;
1824.0;1779.0;;;;-0.5623017;1.1729661;0.2513924;;;;;;;;;;;;;;;
1824.0;1779.0;;;;-0.56431204;1.174019;0.25177386;;;;;;;;;;;;;;;
1824.0;1779.0;;;;-0.5668946;1.1755067;0.2513161;;;;;;;;;;;;;;;
1824.0;1779.0;;;;-0.5694466;1.1776353;0.25275043;;;;;;;;;;;;;;;
1824.0;1779.0;;;;-0.5726014;1.1806451;0.25473788;;;;;;;;;;;;;;;
1824.0;1782.6;262143;262143;11103;;;;;;;;;;;;;;;;;;
1825.0;1786.4;;;;;;;;;;;;;;;;;19.413588;-7.122257;22.4044;;1677.8
1825.0;1786.4;;;;;;;;;;;;;;1.2920316;-0.23999757;-0.0023194067;;;;;1677.8
1825.0;1786.4;;;;;;;;;;;;;;;;;10.906552;-21.267586;26.570177;;1677.8
1825.0;1786.4;;;;;;;;;;;;;;1.4122746;-0.3348491;-0.24982452;;;;;1677.8
1825.0;1786.4;;;;;;;;;;;;;;;;;0.7209998;-28.012177;30.659657;;1687.4
1825.0;1786.4;;;;;;;;;;;;;;1.4466994;-0.41853085;-0.4359874;;;;;1687.4
1825.0;1786.4;;;;;;;;;;;;;;;;;-7.515183;-24.712364;32.330547;;1687.4
1825.0;1786.4;;;;;;;;;;;;;;1.3677175;-0.43873408;-0.52424693;;;;;1687.4
1825.0;1786.4;;;;;;;;;;;;;;;;;-10.841701;-14.904477;34.15784;;1697.1
1825.0;1786.4;;;;;;;;;;;;;;1.2264779;-0.39515367;-0.4570452;;;;;1697.1
1825.0;1786.4;;;;;;;;;;;;;;;;;-12.924589;-5.9282207;35.397655;;1697.1
1825.0;1786.4;;;;;;;;;;;;;;1.1105685;-0.35920286;-0.35444197;;;;;1697.1
1825.0;1786.7;;;;;;;;;;23.377178;-0.28611103;-18.181402;;;;;;;;;
1825.0;1786.7;;;;;;;0.16101566;-1.0940275;0.010376293;;;;;;;;;;;;
1825.0;1786.7;;;;;;;;;;22.240362;-4.2306285;-14.286477;;;;;;;;;
1825.0;1786.7;;;;;;;0.1521653;-1.0920134;0.0046998505;;;;;;;;;;;;
1825.0;1789.0;;;;-0.57641226;1.1846315;0.2584801;;;;;;;;;;;;;;;
1825.0;1789.0;;;;-0.58214957;1.1882669;0.26350406;;;;;;;;;;;;;;;
1825.0;1789.0;;;;-0.58860785;1.1926461;0.26984027;;;;;;;;;;;;;;;
1825.0;1789.0;;;;-0.59683615;1.1965562;0.27650073;;;;;;;;;;;;;;;
1825.0;1789.0;;;;-0.60544974;1.1999093;0.2840691;;;;;;;;;;;;;;;
1828.0;1794.2;;;;;;;;;;;;;;;;;-12.421033;1.6975921;33.604694;;1706.8
1828.0;1794.2;;;;;;;;;;;;;;1.0577105;-0.3120823;-0.28693503;;;;;1706.8
1828.0;1794.2;;;;;;;;;;;;;;;;;-7.1909237;8.030183;31.838436;;1706.8
1828.0;1794.2;;;;;;;;;;;;;;1.0716269;-0.27027193;-0.25299844;;;;;1706.8
1828.0;1794.2;;;;;;;;;;;;;;;;;1.8349254;6.0464797;28.817102;;1716.5
1828.0;1794.2;;;;;;;;;;;;;;1.0720541;-0.20752586;-0.28778955;;;;;1716.5
1828.0;1794.2;;;;;;;;;;;;;;;;;11.650441;-4.4557023;24.70092;;1716.5
1828.0;1794.2;;;;;;;;;;;;;;1.0828577;-0.09936827;-0.35840937;;;;;1716.5
1828.0;1794.2;;;;;;;;;;;;;;;;;18.768885;-15.911589;21.637625;;1726.0
1828.0;1794.2;;;;;;;;;;;;;;1.1761223;-0.040650655;-0.38538775;;;;;1726.0
1828.0;1794.2;;;;;;;;;;;;;;;;;21.561327;-21.00055;18.349255;;1726.0
1828.0;1794.2;;;;;;;;;;;;;;1.2805567;-0.009704886;-0.3620716;;;;;1726.0
1828.0;1796.2;;;;;;;;;;21.053957;-8.541368;-10.425886;;;;;;;;;
1828.0;1796.2;;;;;;;0.14508499;-1.0957977;0.0017700735;;;;;;;;;;;;
1828.0;1796.2;;;;;;;;;;19.760735;-12.798699;-6.6034427;;;;;;;;;
1828.0;1796.2;;;;;;;0.13776055;-1.0997651;-0.0038453322;;;;;;;;;;;;
1828.0;1799.0;;;;-0.61397177;1.2015496;0.2919655;;;;;;;;;;;;;;;
1828.0;1799.0;;;;-0.6219178;1.2020952;0.300293;;;;;;;;;;;;;;;
1828.0;1799.0;;;;-0.6294251;1.2022935;0.30928805;;;;;;;;;;;;;;;
1828.0;1799.0;;;;-0.6366425;1.2011949;0.31881717;;;;;;;;;;;;;;;
1828.0;1799.0;;;;-0.6418305;1.197548;0.32768634;;;;;;;;;;;;;;;
1828.0;1802.5;262143;262143;11115;;;;;;;;;;;;;;;;;;
1942.0;1805.7;;;;;;;;;;18.356884;-17.052216;-2.5749993;;;;;;;;;
1942.0;1805.7;;;;;;;0.13391522;-1.1060518;-0.006775109;;;;;;;;;;;;
1942.0;1805.7;;;;;;;;;;16.880552;-21.210365;1.6670736;;;;;;;;;
1942.0;1805.7;;;;;;;0.1314127;-1.1073946;-0.0110477;;;;;;;;;;;;
1942.0;1808.4;;;;;;;;;;;;;-4111;;;;;;;;
1942.0;1808.4;;;;;;;;;;;;;-3410;;;;;;;;
1942.0;1808.4;;;;;;;;;;;;;-2580;;;;;;;;
1942.0;1808.4;;;;;;;;;;;;;-1529;;;;;;;;
1942.0;1808.4;;;;;;;;;;;;;-421;;;;;;;;
1942.0;1809.0;;;;-0.64531714;1.1933748;0.33700565;;;;;;;;;;;;;;;
1942.0;1809.0;;;;-0.6474419;1.1869546;0.34622958;;;;;;;;;;;;;;;
1942.0;1809.0;;;;-0.6486779;1.1790925;0.35454562;;;;;;;;;;;;;;;
1942.0;1809.0;;;;-0.648243;1.1688997;0.36183932;;;;;;;;;;;;;;;
1942.0;1809.0;;;;-0.6474038;1.156788;0.36836627;;;;;;;;;;;;;;;
1942.0;1814.9;;;;;;;;;;15.25544;-25.109102;5.920591;;;;;;;;;
1942.0;1814.9;;;;;;;0.13208412;-1.1025727;-0.0113528855;;;;;;;;;;;;
1942.0;1814.9;;;;;;;;;;13.561663;-28.633991;10.280923;;;;;;;;;
1942.0;1814.9;;;;;;;0.13287759;-1.094821;-0.010193182;;;;;;;;;;;;
1942.0;1818.8;;;;-0.64426047;1.1423341;0.3735886;;;;;;;;;;;;;;;
1942.0;1818.8;;;;-0.6408692;1.1264001;0.3769303;;;;;;;;;;;;;;;
1942.0;1818.8;;;;-0.63734823;1.1088105;0.37860113;;;;;;;;;;;;;;;
1942.0;1818.8;;;;-0.632206;1.090336;0.37874228;;;;;;;;;;;;;;;
1942.0;1818.8;;;;-0.6271134;1.0714914;0.3771134;;;;;;;;;;;;;;;
1942.0;1822.4;262143;262143;11093;;;;;;;;;;;;;;;;;;
1944.0;1824.6;;;;;;;;;;11.734367;-31.846066;14.934996;;;;;;;;;
1944.0;1824.6;;;;;;;0.13910337;-1.0851161;-0.0075075533;;;;;;;;;;;;
1944.0;1824.6;;;;;;;;;;9.975738;-34.90936;19.444107;;;;;;;;;
1944.0;1824.6;;;;;;;0.14471877;-1.0727257;-0.0011597034;;;;;;;;;;;;
1944.0;1828.9;;;;-0.62089926;1.0513726;0.3734856;;;;;;;;;;;;;;;
1944.0;1828.9;;;;-0.61303335;1.0316316;0.36833194;;;;;;;;;;;;;;;
1944.0;1828.9;;;;-0.6033364;1.0116845;0.36154178;;;;;;;;;;;;;;;
1944.0;1828.9;;;;-0.59374624;0.9926492;0.3533211;;;;;;;;;;;;;;;
1944.0;1828.9;;;;-0.5828324;0.9743806;0.3445969;;;;;;;;;;;;;;;
1944.0;1834.2;;;;;;;;;;8.1827755;-38.10999;23.75866;;;;;;;;;
1944.0;1834.2;;;;;;;0.15259255;-1.0561845;0.009582812;;;;;;;;;;;;
1944.0;1834.2;;;;;;;;;;6.45085;-41.08173;27.836695;;;;;;;;;
1944.0;1834.2;;;;;;;0.16205329;-1.0362865;0.020996734;;;;;;;;;;;;
1944.0;1839.0;;;;-0.57139593;0.9573442;0.3360863;;;;;;;;;;;;;;;
1944.0;1839.0;;;;-0.55925757;0.94155514;0.3269768;;;;;;;;;;;;;;;
1944.0;1839.0;;;;-0.54814535;0.9277955;0.31712344;;;;;;;;;;;;;;;
1944.0;1839.0;;;;-0.538086;0.9155961;0.30648807;;;;;;;;;;;;;;;
1944.0;1839.0;;;;-0.5281716;0.9056703;0.2967377;;;;;;;;;;;;;;;
1944.0;1842.7;262143;262143;11092;;;;;;;;;;;;;;;;;;
1944.0;1843.9;;;;;;;;;;4.589221;-43.874172;31.708733;;;;;;;;;
1944.0;1843.9;;;;;;;0.1685232;-1.0127262;0.029358806;;;;;;;;;;;;
1944.0;1843.9;;;;;;;;;;2.784814;-46.55217;35.355694;;;;;;;;;
1944.0;1843.9;;;;;;;0.1775567;-0.9848323;0.038209174;;;;;;;;;;;;
2003.0;1846.4;;;;;;;;;;;;;;;;;22.02292;-20.9624;13.981292;;1735.7
2003.0;1846.4;;;;;;;;;;;;;;1.3480026;-0.022827845;-0.31812495;;;;;1735.7
2003.0;1846.4;;;;;;;;;;;;;;;;;19.489883;-18.21192;9.094516;;1735.7
2003.0;1846.4;;;;;;;;;;;;;;1.3634449;-0.05145421;-0.2583697;;;;;1735.7
2003.0;1846.4;;;;;;;;;;;;;;;;;11.783959;-10.662404;4.119999;;1745.4
2003.0;1846.4;;;;;;;;;;;;;;1.3078402;-0.09112827;-0.18457595;;;;;1745.4
2003.0;1846.4;;;;;;;;;;;;;;;;;3.8567767;1.6861477;0.12970367;;1745.4
2003.0;1846.4;;;;;;;;;;;;;;1.2029786;-0.14831996;-0.106631674;;;;;1745.4
2003.0;1846.4;;;;;;;;;;;;;;;;;1.7929624;15.02655;-1.0071108;;1755.1
2003.0;1846.4;;;;;;;;;;;;;;1.0483718;-0.24512467;-0.019348735;;;;;1755.1
2003.0;1846.4;;;;;;;;;;;;;;;;;5.054628;22.076328;-1.392407;;1755.1
2003.0;1846.4;;;;;;;;;;;;;;0.9155553;-0.33204138;0.03729362;;;;;1755.1
2003.0;1848.5;;;;;;;;;;;;;496;;;;;;;;
2003.0;1848.5;;;;;;;;;;;;;1067;;;;;;;;
2003.0;1848.5;;;;;;;;;;;;;1280;;;;;;;;
2003.0;1848.5;;;;;;;;;;;;;1237;;;;;;;;
2003.0;1848.5;;;;;;;;;;;;;1182;;;;;;;;
2003.0;1849.0;;;;-0.51891714;0.897751;0.28704455;;;;;;;;;;;;;;;
2003.0;1849.0;;;;-0.51006323;0.89242566;0.2774544;;;;;;;;;;;;;;;
2003.0;1849.0;;;;-0.50290686;0.8894502;0.26877978;;;;;;;;;;;;;;;
2003.0;1849.0;;;;-0.49578863;0.888939;0.2620354;;;;;;;;;;;;;;;
2003.0;1849.0;;;;-0.48931128;0.8916894;0.25615695;;;;;;;;;;;;;;;
2003.0;1853.3;;;;;;;;;;0.9575182;-48.5168;38.850063;;;;;;;;;
2003.0;1853.3;;;;;;;0.18146306;-0.95815915;0.045594655;;;;;;;;;;;;
2003.0;1853.3;;;;;;;;;;-0.8049257;-49.77569;42.14606;;;;;;;;;
2003.0;1853.3;;;;;;;0.18402661;-0.9336833;0.054933317;;;;;;;;;;;;
2008.0;1853.8;;;;;;;;;;;;;;;;;13.351849;19.322033;-0.9765923;;1764.7
2008.0;1853.8;;;;;;;;;;;;;;0.7858516;-0.40650654;-0.015015107;;;;;1764.7
2008.0;1853.8;;;;;;;;;;;;;;;;;22.289955;12.260812;0.42344433;;1764.7
2008.0;1853.8;;;;;;;;;;;;;;0.6969817;-0.46320993;-0.0921659;;;;;1764.7
2008.0;1853.8;;;;;;;;;;;;;;;;;29.37788;2.25074;3.299814;;1774.4
2008.0;1853.8;;;;;;;;;;;;;;0.6412549;-0.52449113;-0.18634602;;;;;1774.4
2008.0;1853.8;;;;;;;;;;;;;;;;;36.679432;-6.591998;8.148442;;1774.4
2008.0;1853.8;;;;;;;;;;;;;;0.595233;-0.57148963;-0.21985534;;;;;1774.4
2008.0;1853.8;;;;;;;;;;;;;;;;;44.007694;-16.209145;13.7371435;;1783.9
2008.0;1853.8;;;;;;;;;;;;;;0.5728324;-0.6151921;-0.23108615;;;;;1783.9
2008.0;1853.8;;;;;;;;;;;;;;;;;53.537098;-28.02362;18.894773;;1783.9
2008.0;1853.8;;;;;;;;;;;;;;0.58522296;-0.6418653;-0.27875605;;;;;1783.9
2008.0;1858.9;;;;-0.48379523;0.89725506;0.25177768;;;;;;;;;;;;;;;
2008.0;1858.9;;;;-0.47985846;0.9051286;0.24790195;;;;;;;;;;;;;;;
2008.0;1858.9;;;;-0.47584158;0.9157144;0.24395755;;;;;;;;;;;;;;;
2008.0;1858.9;;;;-0.4728089;0.92902386;0.24182132;;;;;;;;;;;;;;;
2008.0;1858.9;;;;-0.47082144;0.9436265;0.23982623;;;;;;;;;;;;;;;
2008.0;1862.8;;;;;;;;;;-2.6589253;-50.55391;45.239876;;;;;;;;;
2008.0;1862.8;;;;;;;0.18323313;-0.90859705;0.06311228;;;;;;;;;;;;
2008.0;1862.8;;;;;;;;;;-4.5854063;-50.59969;47.978912;;;;;;;;;
2008.0;1862.8;;;;;;;0.18451491;-0.8881497;0.071535386;;;;;;;;;;;;
2008.0;1862.6;262143;262143;11083;;;;;;;;;;;;;;;;;;
2009.0;1868.9;;;;-0.46887976;0.9606744;0.23842624;;;;;;;;;;;;;;;
2009.0;1868.9;;;;-0.46853644;0.97916806;0.23678973;;;;;;;;;;;;;;;
2009.0;1868.9;;;;-0.4682122;0.9984094;0.2368317;;;;;;;;;;;;;;;
2009.0;1868.9;;;;-0.46826178;1.0178834;0.23701862;;;;;;;;;;;;;;;
2009.0;1868.9;;;;-0.4690438;1.0374833;0.23801425;;;;;;;;;;;;;;;
2009.0;1872.3;;;;;;;;;;-6.7102575;-49.97024;50.271614;;;;;;;;;
2009.0;1872.3;;;;;;;0.18555254;-0.8690451;0.07757805;;;;;;;;;;;;
2009.0;1872.3;;;;;;;;;;-8.800775;-48.692284;52.2248;;;;;;;;;
2009.0;1872.3;;;;;;;0.18860438;-0.8561052;0.083010346;;;;;;;;;;;;
2009.0;1879.0;;;;-0.46973044;1.0574533;0.23856738;;;;;;;;;;;;;;;
2009.0;1879.0;;;;-0.470501;1.0770875;0.23939899;;;;;;;;;;;;;;;
2009.0;1879.0;;;;-0.47116095;1.0963556;0.23978809;;;;;;;;;;;;;;;
2009.0;1879.0;;;;-0.4706841;1.1148912;0.23954394;;;;;;;;;;;;;;;
2009.0;1879.0;;;;-0.47016913;1.133011;0.23790744;;;;;;;;;;;;;;;
2009.0;1882.0;;;;;;;;;;-10.788294;-46.578876;54.0788;;;;;;;;;
2009.0;1882.0;;;;;;;0.19251075;-0.8463393;0.08703879;;;;;;;;;;;;
2009.0;1882.0;;;;;;;;;;-12.703329;-43.61858;55.757317;;;;;;;;;
2009.0;1882.0;;;;;;;0.19605091;-0.83913696;0.09210486;;;;;;;;;;;;
2009.0;1882.9;262143;262143;11092;;;;;;;;;;;;;;;;;;
2009.0;1888.7;;;;;;;;;;;;;1239;;;;;;;;
2009.0;1888.7;;;;;;;;;;;;;1333;;;;;;;;
2009.0;1888.7;;;;;;;;;;;;;1426;;;;;;;;
2009.0;1888.7;;;;;;;;;;;;;1431;;;;;;;;
2009.0;1888.7;;;;;;;;;;;;;1363;;;;;;;;
2010.0;1889.2;;;;-0.46959692;1.1501008;0.23711017;;;;;;;;;;;;;;;
2010.0;1889.2;;;;-0.46792608;1.1671907;0.23521426;;;;;;;;;;;;;;;
2010.0;1889.2;;;;-0.46545798;1.183426;0.23266223;;;;;;;;;;;;;;;
2010.0;1889.2;;;;-0.46275717;1.1987191;0.2300339;;;;;;;;;;;;;;;
2010.0;1889.2;;;;-0.45929343;1.2140428;0.22683337;;;;;;;;;;;;;;;
2010.0;1891.6;;;;;;;;;;-14.538255;-39.79995;57.340466;;;;;;;;;
2010.0;1891.6;;;;;;;0.20569475;-0.8397473;0.09656057;;;;;;;;;;;;
2010.0;1891.6;;;;;;;;;;-16.193884;-35.840176;58.877834;;;;;;;;;
2010.0;1891.6;;;;;;;0.20917386;-0.8454848;0.10174871;;;;;;;;;;;;
2010.0;1899.3;;;;-0.45547873;1.228985;0.22251132;;;;;;;;;;;;;;;
2010.0;1899.3;;;;-0.45154196;1.2435838;0.21870807;;;;;;;;;;;;;;;
2010.0;1899.3;;;;-0.4471131;1.2573968;0.21455005;;;;;;;;;;;;;;;
2010.0;1899.3;;;;-0.44408423;1.2709008;0.2087746;;;;;;;;;;;;;;;
2010.0;1899.3;;;;-0.4401856;1.2831956;0.20404437;;;;;;;;;;;;;;;
2010.0;1901.2;;;;;;;;;;-17.685476;-31.918545;60.693684;;;;;;;;;
2010.0;1901.2;;;;;;;0.21277505;-0.8566546;0.10589923;;;;;;;;;;;;
2010.0;1901.2;;;;;;;;;;-19.020662;-28.04651;62.768944;;;;;;;;;
2010.0;1901.2;;;;;;;0.2151555;-0.8646504;0.10699789;;;;;;;;;;;;
2010.0;1903.2;262143;262143;11096;;;;;;;;;;;;;;;;;;
2062.0;1906.9;;;;;;;;;;;;;;;;;63.65017;-39.857174;23.64803;;1793.6
2062.0;1906.9;;;;;;;;;;;;;;0.64082766;-0.6654256;-0.35938597;;;;;1793.6
2062.0;1906.9;;;;;;;;;;;;;;;;;72.107605;-49.562057;28.420362;;1793.6
2062.0;1906.9;;;;;;;;;;;;;;0.768395;-0.6671957;-0.4491104;;;;;1793.6
2062.0;1906.9;;;;;;;;;;;;;;;;;75.75457;-51.15665;33.230843;;1803.2
2062.0;1906.9;;;;;;;;;;;;;;0.97158724;-0.61757255;-0.50843835;;;;;1803.2
2062.0;1906.9;;;;;;;;;;;;;;;;;74.53383;-38.914917;39.73128;;1803.2
2062.0;1906.9;;;;;;;;;;;;;;1.1807001;-0.54518265;-0.45332193;;;;;1803.2
2062.0;1906.9;;;;;;;;;;;;;;;;;69.70428;-19.73403;45.38484;;1812.9
2062.0;1906.9;;;;;;;;;;;;;;1.3181554;-0.4878689;-0.36646625;;;;;1812.9
2062.0;1906.9;;;;;;;;;;;;;;;;;64.91669;0.13733329;46.948914;;1812.9
2062.0;1906.9;;;;;;;;;;;;;;1.378338;-0.43079928;-0.2609943;;;;;1812.9
2062.0;1908.1;;;;;;;;;;;;;;;;;61.78472;13.42433;44.503616;;1822.5
2062.0;1908.1;;;;;;;;;;;;;;1.3705863;-0.31257057;-0.16150396;;;;;1822.5
2062.0;1908.1;;;;;;;;;;;;;;;;;61.185795;13.832514;43.0311;;1822.5
2062.0;1908.1;;;;;;;;;;;;;;1.319071;-0.2075869;-0.13617359;;;;;1822.5
2062.0;1908.1;;;;;;;;;;;;;;;;;62.65069;8.068331;41.905727;;1832.1
2062.0;1908.1;;;;;;;;;;;;;;1.2765893;-0.1276284;-0.16510513;;;;;1832.1
2062.0;1908.1;;;;;;;;;;;;;;;;;63.669243;3.322703;41.291542;;1832.1
2062.0;1908.1;;;;;;;;;;;;;;1.2394177;-0.06146428;-0.2120426;;;;;1832.1
2062.0;1908.1;;;;;;;;;;;;;;;;;61.597797;1.9989624;40.23484;;1841.8
2062.0;1908.1;;;;;;;;;;;;;;1.1977295;-0.006469924;-0.25721;;;;;1841.8
2062.0;1908.1;;;;;;;;;;;;;;;;;56.94372;4.734184;39.51384;;1841.8
2062.0;1908.1;;;;;;;;;;;;;;1.1480453;0.018921476;-0.28876615;;;;;1841.8
2064.0;1909.3;;;;-0.4369927;1.2951089;0.19942096;;;;;;;;;;;;;;;
2064.0;1909.3;;;;-0.43431097;1.306656;0.19363788;;;;;;;;;;;;;;;
2064.0;1909.3;;;;-0.4310456;1.317032;0.186615;;;;;;;;;;;;;;;
2064.0;1909.3;;;;-0.42776877;1.3263818;0.17930986;;;;;;;;;;;;;;;
2064.0;1909.3;;;;-0.42436606;1.3358117;0.17263795;;;;;;;;;;;;;;;
2064.0;1910.7;;;;;;;;;;-20.355846;-24.55977;64.98154;;;;;;;;;
2064.0;1910.7;;;;;;;0.21637623;-0.88003176;0.107852414;;;;;;;;;;;;
2064.0;1910.7;;;;;;;;;;-21.446882;-22.091587;67.255165;;;;;;;;;
2064.0;1910.7;;;;;;;0.21045564;-0.8921171;0.10901212;;;;;;;;;;;;
2064.0;1919.3;;;;-0.42148596;1.3437082;0.16514589;;;;;;;;;;;;;;;
2064.0;1919.3;;;;-0.41883093;1.3510591;0.15671541;;;;;;;;;;;;;;;
2064.0;1919.3;;;;-0.41652685;1.3570291;0.1487198;;;;;;;;;;;;;;;
2064.0;1919.3;;;;-0.41351324;1.3630296;0.14196016;;;;;;;;;;;;;;;
2064.0;1919.3;;;;-0.41185766;1.3679925;0.13283159;;;;;;;;;;;;;;;
2064.0;1920.3;;;;;;;;;;-22.3014;-20.432142;69.46776;;;;;;;;;
2064.0;1920.3;;;;;;;0.20496231;-0.9046907;0.112186044;;;;;;;;;;;;
2064.0;1920.3;;;;;;;;;;-23.136845;-19.138922;71.5392;;;;;;;;;
2064.0;1920.3;;;;;;;0.19708854;-0.91616565;0.1114536;;;;;;;;;;;;
2064.0;1923.1;262143;262143;11103;;;;;;;;;;;;;;;;;;
2064.0;1929.0;;;;;;;;;;;;;1376;;;;;;;;
2064.0;1929.0;;;;;;;;;;;;;1593;;;;;;;;
2064.0;1929.0;;;;;;;;;;;;;1981;;;;;;;;
2064.0;1929.0;;;;;;;;;;;;;2152;;;;;;;;
2064.0;1929.0;;;;;;;;;;;;;1769;;;;;;;;
2069.0;1929.3;;;;-0.4097405;1.3723489;0.12508394;;;;;;;;;;;;;;;
2069.0;1929.3;;;;-0.40762335;1.3760606;0.11706163;;;;;;;;;;;;;;;
2069.0;1929.3;;;;-0.40552527;1.379078;0.109561935;;;;;;;;;;;;;;;
2069.0;1929.3;;;;-0.4021302;1.3807794;0.10162355;;;;;;;;;;;;;;;
2069.0;1929.3;;;;-0.39836127;1.3821412;0.09518434;;;;;;;;;;;;;;;
2069.0;1929.8;;;;;;;;;;-23.915068;-18.261513;73.564865;;;;;;;;;
2069.0;1929.8;;;;;;;0.19202246;-0.92996;0.11169775;;;;;;;;;;;;
2069.0;1929.8;;;;;;;;;;-24.540697;-17.571032;75.51805;;;;;;;;;
2069.0;1929.8;;;;;;;0.18298899;-0.9449141;0.107608266;;;;;;;;;;;;
2069.0;1939.2;;;;-0.39614874;1.38295;0.087802894;;;;;;;;;;;;;;;
2069.0;1939.2;;;;-0.3950463;1.3826295;0.07944489;;;;;;;;;;;;;;;
2069.0;1939.2;;;;-0.3918839;1.3805887;0.07327653;;;;;;;;;;;;;;;
2069.0;1939.2;;;;-0.39040762;1.3786584;0.06669236;;;;;;;;;;;;;;;
2069.0;1939.2;;;;-0.38883597;1.3760644;0.060703285;;;;;;;;;;;;;;;
2069.0;1939.2;;;;;;;;;;-25.234991;-16.766108;77.528465;;;;;;;;;
2069.0;1939.2;;;;;;;0.17731254;-0.9576098;0.1081576;;;;;;;;;;;;
2069.0;1939.2;;;;;;;;;;-25.822474;-16.277811;79.760124;;;;;;;;;
2069.0;1939.2;;;;;;;0.17200232;-0.9726249;0.10577715;;;;;;;;;;;;
2069.0;1943.2;262143;262143;11125;;;;;;;;;;;;;;;;;;
2069.0;1948.9;;;;;;;;;;-26.3184;-16.388441;82.060455;;;;;;;;;
2069.0;1948.9;;;;;;;0.1688284;-0.98525953;0.1060213;;;;;;;;;;;;
2069.0;1948.9;;;;;;;;;;-26.638844;-16.773737;84.42183;;;;;;;;;
2069.0;1948.9;;;;;;;0.16681418;-0.9972839;0.1048616;;;;;;;;;;;;
2070.0;1949.3;;;;-0.388588;1.3721505;0.05414582;;;;;;;;;;;;;;;
2070.0;1949.3;;;;-0.38753134;1.3662263;0.047611244;;;;;;;;;;;;;;;
2070.0;1949.3;;;;-0.38626868;1.3606569;0.04275513;;;;;;;;;;;;;;;
2070.0;1949.3;;;;-0.3855706;1.3549997;0.03795624;;;;;;;;;;;;;;;
2070.0;1949.3;;;;-0.38510138;1.3475267;0.03213883;;;;;;;;;;;;;;;
2070.0;1958.5;;;;;;;;;;-27.027956;-17.265846;86.80609;;;;;;;;;
2070.0;1958.5;;;;;;;0.16730247;-1.0099796;0.10541093;;;;;;;;;;;;
2070.0;1958.5;;;;;;;;;;-27.249214;-17.89529;89.27427;;;;;;;;;
2070.0;1958.5;;;;;;;0.16827907;-1.0187689;0.106753744;;;;;;;;;;;;
2070.0;1959.4;;;;-0.3840676;1.3393785;0.027290348;;;;;;;;;;;;;;;
2070.0;1959.4;;;;-0.38289267;1.3303949;0.022552492;;;;;;;;;;;;;;;
2070.0;1959.4;;;;-0.37998205;1.3201829;0.017990114;;;;;;;;;;;;;;;
2070.0;1959.4;;;;-0.37793738;1.3098298;0.013793947;;;;;;;;;;;;;;;
2070.0;1959.4;;;;-0.375454;1.2990113;0.009601594;;;;;;;;;;;;;;;
2070.0;1963.5;262143;262143;11118;;;;;;;;;;;;;;;;;;
2071.0;1967.2;;;;;;;;;;;;;;;;;52.73217;9.392072;38.399918;;1851.5
2071.0;1967.2;;;;;;;;;;;;;;1.0901822;0.04449599;-0.29016998;;;;;1851.5
2071.0;1967.2;;;;;;;;;;;;;;;;;48.539692;12.550736;38.89966;;1851.5
2071.0;1967.2;;;;;;;;;;;;;;1.033662;0.042542804;-0.29352704;;;;;1851.5
2071.0;1967.2;;;;;;;;;;;;;;;;;44.495987;13.164922;40.80706;;1861.1
2071.0;1967.2;;;;;;;;;;;;;;0.9897763;0.015198218;-0.31488997;;;;;1861.1
2071.0;1967.2;;;;;;;;;;;;;;;;;39.983063;12.569811;43.256172;;1861.1
2071.0;1967.2;;;;;;;;;;;;;;0.9517502;-0.04388562;-0.34583575;;;;;1861.1
2071.0;1967.2;;;;;;;;;;;;;;;;;33.82214;12.665181;45.720543;;1870.7
2071.0;1967.2;;;;;;;;;;;;;;0.9132359;-0.09179968;-0.3416242;;;;;1870.7
2071.0;1967.2;;;;;;;;;;;;;;;;;28.160954;12.550736;48.821987;;1870.7
2071.0;1967.2;;;;;;;;;;;;;;0.8579363;-0.15784173;-0.3037202;;;;;1870.7
2071.0;1968.0;;;;;;;;;;;;;;;;;23.34666;10.963775;51.931057;;1880.4
2071.0;1968.0;;;;;;;;;;;;;;0.831019;-0.21509446;-0.2725303;;;;;1880.4
2071.0;1968.0;;;;;;;;;;;;;;;;;19.737844;9.868922;54.574726;;1880.4
2071.0;1968.0;;;;;;;;;;;;;;0.8268685;-0.27069917;-0.26545;;;;;1880.4
2071.0;1968.0;;;;;;;;;;;;;;;;;17.70455;10.902738;55.94424;;1890.0
2071.0;1968.0;;;;;;;;;;;;;;0.824366;-0.32209235;-0.27027193;;;;;1890.0
2071.0;1968.0;;;;;;;;;;;;;;;;;17.368847;13.851588;56.550797;;1890.0
2071.0;1968.0;;;;;;;;;;;;;;0.8191168;-0.3503525;-0.27130955;;;;;1890.0
2071.0;1968.0;;;;;;;;;;;;;;;;;18.135624;16.82333;57.100132;;1899.7
2071.0;1968.0;;;;;;;;;;;;;;0.81460005;-0.37220374;-0.2829066;;;;;1899.7
2071.0;1968.0;;;;;;;;;;;;;;;;;20.615253;18.608662;57.382427;;1899.7
2071.0;1968.0;;;;;;;;;;;;;;0.8035523;-0.39722893;-0.3056734;;;;;1899.7
2072.0;1968.0;;;;;;;;;;-27.424694;-18.868069;91.82256;;;;;;;;;
2072.0;1968.0;;;;;;;0.17029329;-1.0273141;0.10834071;;;;;;;;;;;;
2072.0;1968.0;;;;;;;;;;-27.489546;-20.111698;94.31364;;;;;;;;;
2072.0;1968.0;;;;;;;0.1726127;-1.032136;0.10943937;;;;;;;;;;;;
2072.0;1969.2;;;;;;;;;;;;;1117;;;;;;;;
2072.0;1969.2;;;;;;;;;;;;;727;;;;;;;;
2072.0;1969.2;;;;;;;;;;;;;671;;;;;;;;
2072.0;1969.2;;;;;;;;;;;;;669;;;;;;;;
2072.0;1969.2;;;;;;;;;;;;;814;;;;;;;;
2072.0;1969.4;;;;-0.37418368;1.2878839;0.005149842;;;;;;;;;;;;;;;
2072.0;1969.4;;;;-0.3719826;1.2760736;9.1171276E-4;;;;;;;;;;;;;;;
2072.0;1969.4;;;;-0.37044147;1.2649766;-0.0014076234;;;;;;;;;;;;;;;
2072.0;1969.4;;;;-0.36841586;1.254345;-0.00403595;;;;;;;;;;;;;;;
2072.0;1969.4;;;;-0.36695102;1.2438737;-0.007930757;;;;;;;;;;;;;;;
2072.0;1977.6;;;;;;;;;;-27.424694;-21.671957;96.72842;;;;;;;;;
2072.0;1977.6;;;;;;;0.17572558;-1.0361644;0.11053804;;;;;;;;;;;;
2072.0;1977.6;;;;;;;;;;-27.306437;-23.64803;99.074524;;;;;;;;;
2072.0;1977.6;;;;;;;0.18042544;-1.0370189;0.11279641;;;;;;;;;;;;
2072.0;1979.5;;;;-0.36526492;1.2337075;-0.011348725;;;;;;;;;;;;;;;
2072.0;1979.5;;;;-0.36448672;1.2241822;-0.014179232;;;;;;;;;;;;;;;
2072.0;1979.5;;;;-0.363884;1.2154428;-0.01659775;;;;;;;;;;;;;;;
2072.0;1979.5;;;;-0.361393;1.2063257;-0.018264772;;;;;;;;;;;;;;;
2072.0;1979.5;;;;-0.35902026;1.1984864;-0.020408632;;;;;;;;;;;;;;;
2072.0;1983.6;262143;262143;11127;;;;;;;;;;;;;;;;;;
2074.0;1987.2;;;;;;;;;;-26.982178;-26.19251;101.20701;;;;;;;;;
2074.0;1987.2;;;;;;;0.18536943;-1.0329294;0.11523789;;;;;;;;;;;;
2074.0;1987.2;;;;;;;;;;-26.535845;-29.133732;103.22123;;;;;;;;;
2074.0;1987.2;;;;;;;0.19122899;-1.0281075;0.11578722;;;;;;;;;;;;
2074.0;1989.6;;;;-0.35784534;1.1909257;-0.02405167;;;;;;;;;;;;;;;
2074.0;1989.6;;;;-0.35642245;1.1840974;-0.025753025;;;;;;;;;;;;;;;
2074.0;1989.6;;;;-0.35270694;1.177086;-0.02569962;;;;;;;;;;;;;;;
2074.0;1989.6;;;;-0.3501244;1.1709558;-0.026782993;;;;;;;;;;;;;;;
2074.0;1989.6;;;;-0.34692386;1.1647569;-0.026966099;;;;;;;;;;;;;;;
2074.0;1996.4;;;;;;;;;;-26.169622;-32.414474;105.19349;;;;;;;;;
2074.0;1996.4;;;;;;;0.19830927;-1.0195624;0.11902219;;;;;;;;;;;;
2074.0;1996.4;;;;;;;;;;-25.7004;-35.78295;106.94449;;;;;;;;;
2074.0;1996.4;;;;;;;0.20679343;-1.0112003;0.119083226;;;;;;;;;;;;
2074.0;1999.3;;;;-0.34487918;1.1587373;-0.027927402;;;;;;;;;;;;;;;
2074.0;1999.3;;;;-0.34383014;1.1538774;-0.02959061;;;;;;;;;;;;;;;
2074.0;1999.3;;;;-0.34178546;1.1482507;-0.031585697;;;;;;;;;;;;;;;
2074.0;1999.3;;;;-0.3388405;1.1434137;-0.0326767;;;;;;;;;;;;;;;
2074.0;1999.3;;;;-0.3366852;1.1387597;-0.034667972;;;;;;;;;;;;;;;
2074.0;2003.4;262143;262143;11133;;;;;;;;;;;;;;;;;;
2074.0;2006.1;;;;;;;;;;-25.128178;-39.464245;108.42082;;;;;;;;;
2074.0;2006.1;;;;;;;0.21222572;-0.994232;0.12274545;;;;;;;;;;;;
2074.0;2006.1;;;;;;;;;;-24.548326;-43.2638;109.71022;;;;;;;;;
2074.0;2006.1;;;;;;;0.21881771;-0.9783624;0.12451552;;;;;;;;;;;;
2075.0;2009.3;;;;;;;;;;;;;1523;;;;;;;;
2075.0;2009.3;;;;;;;;;;;;;2781;;;;;;;;
2075.0;2009.3;;;;;;;;;;;;;3911;;;;;;;;
2075.0;2009.3;;;;;;;;;;;;;4344;;;;;;;;
2075.0;2009.3;;;;;;;;;;;;;4307;;;;;;;;
2075.0;2009.4;;;;-0.3339043;1.135029;-0.03551102;;;;;;;;;;;;;;;
2075.0;2009.4;;;;-0.33187106;1.1307756;-0.036487583;;;;;;;;;;;;;;;
2075.0;2009.4;;;;-0.32984927;1.1262666;-0.038341526;;;;;;;;;;;;;;;
2075.0;2009.4;;;;-0.3299332;1.122799;-0.041793827;;;;;;;;;;;;;;;
2075.0;2009.4;;;;-0.3285599;1.1185304;-0.044090275;;;;;;;;;;;;;;;
2075.0;2015.7;;;;;;;;;;-23.934141;-47.360912;110.72115;;;;;;;;;
2075.0;2015.7;;;;;;;0.21973327;-0.96298105;0.12683493;;;;;;;;;;;;
2075.0;2015.7;;;;;;;;;;-23.308512;-51.484726;111.62526;;;;;;;;;
2075.0;2015.7;;;;;;;0.22382274;-0.9432661;0.12909329;;;;;;;;;;;;
2075.0;2019.6;;;;-0.32895663;1.114647;-0.046356205;;;;;;;;;;;;;;;
2075.0;2019.6;;;;-0.32908633;1.1100465;-0.048732765;;;;;;;;;;;;;;;
2075.0;2019.6;;;;-0.32859805;1.1050836;-0.04990769;;;;;;;;;;;;;;;
2075.0;2019.6;;;;-0.3278084;1.1004182;-0.051540382;;;;;;;;;;;;;;;
2075.0;2019.6;;;;-0.33012775;1.0964471;-0.054954536;;;;;;;;;;;;;;;
2075.0;2023.7;262143;262143;11145;;;;;;;;;;;;;;;;;;
2075.0;2025.3;;;;;;;;;;-22.717215;-55.738243;112.37296;;;;;;;;;
2075.0;2025.3;;;;;;;0.22791223;-0.92574847;0.12958159;;;;;;;;;;;;
2075.0;2025.3;;;;;;;;;;-22.095402;-60.090942;112.777336;;;;;;;;;
2075.0;2025.3;;;;;;;0.2301706;-0.910123;0.12994781;;;;;;;;;;;;
2076.0;2029.6;;;;-0.33087924;1.0915109;-0.05744172;;;;;;;;;;;;;;;
2076.0;2029.6;;;;-0.33161166;1.0874978;-0.059242256;;;;;;;;;;;;;;;
2076.0;2029.6;;;;-0.33334354;1.0828782;-0.060741432;;;;;;;;;;;;;;;
2076.0;2029.6;;;;-0.3334389;1.0777627;-0.061840065;;;;;;;;;;;;;;;
2076.0;2029.6;;;;-0.33519748;1.0732042;-0.065307625;;;;;;;;;;;;;;;
2076.0;2034.8;;;;;;;;;;-21.565142;-64.57717;112.9223;;;;;;;;;
2076.0;2034.8;;;;;;;0.23456526;-0.89492476;0.13275552;;;;;;;;;;;;
2076.0;2034.8;;;;;;;;;;-21.00055;-69.17401;112.857445;;;;;;;;;
2076.0;2034.8;;;;;;;0.23822749;-0.88052005;0.13458663;;;;;;;;;;;;
2076.0;2039.7;;;;-0.33586124;1.0686685;-0.06718827;;;;;;;;;;;;;;;
2076.0;2039.7;;;;-0.3361359;1.0649797;-0.068271644;;;;;;;;;;;;;;;
2076.0;2039.7;;;;-0.3386803;1.061596;-0.07088471;;;;;;;;;;;;;;;
2076.0;2039.7;;;;-0.3404427;1.0584298;-0.07283784;;;;;;;;;;;;;;;
2076.0;2039.7;;;;-0.342289;1.0539819;-0.07416535;;;;;;;;;;;;;;;
2076.0;2043.8;262143;262143;11157;;;;;;;;;;;;;;;;;;
2076.0;2044.4;;;;;;;;;;-20.393993;-73.77468;112.60948;;;;;;;;;
2076.0;2044.4;;;;;;;0.24066897;-0.86684775;0.13733329;;;;;;;;;;;;
2076.0;2044.4;;;;;;;;;;-19.894253;-78.081604;112.20893;;;;;;;;;
2076.0;2044.4;;;;;;;0.24420911;-0.85482347;0.13818781;;;;;;;;;;;;
2076.0;2049.5;;;;;;;;;;;;;4165;;;;;;;;
2076.0;2049.5;;;;;;;;;;;;;3673;;;;;;;;
2076.0;2049.5;;;;;;;;;;;;;3076;;;;;;;;
2076.0;2049.5;;;;;;;;;;;;;3724;;;;;;;;
2076.0;2049.5;;;;;;;;;;;;;5090;;;;;;;;
2125.0;2049.6;;;;-0.34402087;1.0499917;-0.074802406;;;;;;;;;;;;;;;
2125.0;2049.6;;;;-0.3460541;1.046631;-0.075889595;;;;;;;;;;;;;;;
2125.0;2049.6;;;;-0.34809116;1.0435296;-0.07712174;;;;;;;;;;;;;;;
2125.0;2049.6;;;;-0.3505974;1.0410691;-0.07760621;;;;;;;;;;;;;;;
2125.0;2049.6;;;;-0.35330585;1.0383683;-0.07964707;;;;;;;;;;;;;;;
2125.0;2053.9;;;;;;;;;;-19.3907;-82.0986;111.70919;;;;;;;;;
2125.0;2053.9;;;;;;;0.25165564;-0.8443861;0.13782158;;;;;;;;;;;;
2125.0;2053.9;;;;;;;;;;-18.95581;-85.718864;111.24378;;;;;;;;;
2125.0;2053.9;;;;;;;0.25818658;-0.8348033;0.13617359;;;;;;;;;;;;
2125.0;2059.2;;;;-0.35540393;1.0346833;-0.08144761;;;;;;;;;;;;;;;
2125.0;2059.2;;;;-0.35704425;1.0316888;-0.08346177;;;;;;;;;;;;;;;
2125.0;2059.2;;;;-0.35803226;1.0291444;-0.08437348;;;;;;;;;;;;;;;
2125.0;2059.2;;;;-0.35836795;1.0265085;-0.085968025;;;;;;;;;;;;;;;
2125.0;2059.2;;;;-0.36072162;1.0241815;-0.08736802;;;;;;;;;;;;;;;
2125.0;2062.9;;;;;;;;;;-18.64681;-89.06445;110.69063;;;;;;;;;
2125.0;2062.9;;;;;;;0.2636189;-0.8253426;0.13397625;;;;;;;;;;;;
2125.0;2062.9;;;;;;;;;;-18.20429;-92.028564;110.04974;;;;;;;;;
2125.0;2062.9;;;;;;;0.27124852;-0.81728566;0.13324381;;;;;;;;;;;;
2125.0;2063.4;262143;262143;11151;;;;;;;;;;;;;;;;;;
2126.0;2069.2;;;;-0.36248782;1.0212747;-0.087986;;;;;;;;;;;;;;;
2126.0;2069.2;;;;-0.3622246;1.0193635;-0.08927537;;;;;;;;;;;;;;;
2126.0;2069.2;;;;-0.36288074;1.0173036;-0.09041596;;;;;;;;;;;;;;;
2126.0;2069.2;;;;-0.36439517;1.0155526;-0.09212495;;;;;;;;;;;;;;;
2126.0;2069.2;;;;-0.36570743;1.0137597;-0.09293748;;;;;;;;;;;;;;;
2126.0;2072.6;;;;;;;;;;-17.727438;-94.38994;109.48134;;;;;;;;;
2126.0;2072.6;;;;;;;0.27863398;-0.8107547;0.131901;;;;;;;;;;;;
2126.0;2072.6;;;;;;;;;;-17.235327;-96.47664;108.91675;;;;;;;;;
2126.0;2072.6;;;;;;;0.2874233;-0.8019044;0.12866604;;;;;;;;;;;;
2126.0;2079.3;;;;-0.36592868;1.0123445;-0.09435655;;;;;;;;;;;;;;;
2126.0;2079.3;;;;-0.36524585;1.0111085;-0.095188156;;;;;;;;;;;;;;;
2126.0;2079.3;;;;-0.36491778;1.0095445;-0.09591676;;;;;;;;;;;;;;;
2126.0;2079.3;;;;-0.3635178;1.0085412;-0.09688188;;;;;;;;;;;;;;;
2126.0;2079.3;;;;-0.3623543;1.0075761;-0.09780504;;;;;;;;;;;;;;;
2126.0;2082.2;;;;;;;;;;-16.9187;-98.4756;108.439896;;;;;;;;;
2126.0;2082.2;;;;;;;0.29438153;-0.79842526;0.12622456;;;;;;;;;;;;
2126.0;2082.2;;;;;;;;;;-16.621143;-100.09689;107.92108;;;;;;;;;
2126.0;2082.2;;;;;;;0.30103457;-0.7983642;0.123416856;;;;;;;;;;;;
2126.0;2083.7;262143;262143;11157;;;;;;;;;;;;;;;;;;
2127.0;2089.4;;;;-0.36150745;1.0068399;-0.099231735;;;;;;;;;;;;;;;
2127.0;2089.4;;;;-0.3593674;1.0059701;-0.09998323;;;;;;;;;;;;;;;
2127.0;2089.4;;;;-0.35887912;1.0053293;-0.10159685;;;;;;;;;;;;;;;
2127.0;2089.4;;;;-0.35930255;1.0039979;-0.10215761;;;;;;;;;;;;;;;
2127.0;2089.4;;;;-0.3598061;1.0021325;-0.10403825;;;;;;;;;;;;;;;
2127.0;2089.4;;;;;;;;;;;;;2452;;;;;;;;
2127.0;2089.4;;;;;;;;;;;;;-6865;;;;;;;;
2127.0;2089.4;;;;;;;;;;;;;-15573;;;;;;;;
2127.0;2089.4;;;;;;;;;;;;;-12990;;;;;;;;
2127.0;2089.4;;;;;;;;;;;;;756;;;;;;;;
2127.0;2091.8;;;;;;;;;;-16.308329;-101.382484;107.49382;;;;;;;;;
2127.0;2091.8;;;;;;;0.30988494;-0.7989746;0.12469863;;;;;;;;;;;;
2127.0;2091.8;;;;;;;;;;-16.022219;-102.23319;107.146675;;;;;;;;;
2127.0;2091.8;;;;;;;0.31861323;-0.8047731;0.12475967;;;;;;;;;;;;
2127.0;2099.5;;;;-0.35515597;1.0006524;-0.102577224;;;;;;;;;;;;;;;
2127.0;2099.5;;;;-0.35535052;0.9994737;-0.103878036;;;;;;;;;;;;;;;
2127.0;2099.5;;;;-0.35419467;0.9975091;-0.10355379;;;;;;;;;;;;;;;
2127.0;2099.5;;;;-0.3549004;0.9952127;-0.105396286;;;;;;;;;;;;;;;
2127.0;2099.5;;;;-0.35247806;0.99310696;-0.104843155;;;;;;;;;;;;;;;
2127.0;2101.4;;;;;;;;;;-15.774254;-102.75201;106.84149;;;;;;;;;
2127.0;2101.4;;;;;;;0.3319193;-0.8135014;0.123416856;;;;;;;;;;;;
2127.0;2101.4;;;;;;;;;;-15.503403;-102.759636;106.52104;;;;;;;;;
2127.0;2101.4;;;;;;;0.34406567;-0.824366;0.12329478;;;;;;;;;;;;
2128.0;2102.5;;;;;;;;;;;;;;;;;24.868769;18.837551;57.649464;;1909.4
2128.0;2102.5;;;;;;;;;;;;;;0.80159914;-0.42701498;-0.32654804;;;;;1909.4
2128.0;2102.5;;;;;;;;;;;;;;;;;30.3621;17.956327;57.24891;;1909.4
2128.0;2102.5;;;;;;;;;;;;;;0.801355;-0.40552995;-0.35279396;;;;;1909.4
2128.0;2102.5;;;;;;;;;;;;;;;;;35.83636;16.422773;57.077244;;1919.0
2128.0;2102.5;;;;;;;;;;;;;;0.81655324;-0.40784937;-0.38380077;;;;;1919.0
2128.0;2102.5;;;;;;;;;;;;;;;;;40.833767;14.22544;56.627094;;1919.0
2128.0;2102.5;;;;;;;;;;;;;;0.8330943;-0.3551134;-0.40601826;;;;;1919.0
2128.0;2102.5;;;;;;;;;;;;;;;;;43.874172;13.603626;56.01291;;1928.5
2128.0;2102.5;;;;;;;;;;;;;;0.8514664;-0.31678212;-0.41724905;;;;;1928.5
2128.0;2102.5;;;;;;;;;;;;;;;;;45.999023;14.7557;56.539352;;1928.5
2128.0;2102.5;;;;;;;;;;;;;;0.8528703;-0.3418073;-0.40559098;;;;;1928.5
2128.0;2103.2;;;;;;;;;;;;;;;;;47.830135;16.350292;55.45213;;1938.2
2128.0;2103.2;;;;;;;;;;;;;;0.8511002;-0.28278452;-0.3853267;;;;;1938.2
2128.0;2103.2;;;;;;;;;;;;;;;;;48.169655;18.532366;54.097874;;1938.2
2128.0;2103.2;;;;;;;;;;;;;;0.858974;-0.20502335;-0.35938597;;;;;1938.2
2128.0;2103.2;;;;;;;;;;;;;;;;;47.61269;20.18418;54.116947;;1947.8
2128.0;2103.2;;;;;;;;;;;;;;0.8695944;-0.16699728;-0.3475448;;;;;1947.8
2128.0;2103.2;;;;;;;;;;;;;;;;;46.914577;22.11829;54.006317;;1947.8
2128.0;2103.2;;;;;;;;;;;;;;0.86971647;-0.15192114;-0.33436078;;;;;1947.8
2128.0;2103.2;;;;;;;;;;;;;;;;;44.953762;24.239326;54.14747;;1957.4
2128.0;2103.2;;;;;;;;;;;;;;0.87246317;-0.11401715;-0.31763664;;;;;1957.4
2128.0;2103.2;;;;;;;;;;;;;;;;;41.451767;27.83288;54.21232;;1957.4
2128.0;2103.2;;;;;;;;;;;;;;0.8667867;-0.08105716;-0.3010956;;;;;1957.4
2130.0;2103.8;262143;262143;11164;;;;;;;;;;;;;;;;;;
2130.0;2104.5;;;;;;;;;;;;;;;;;37.77047;33.452103;54.437393;;1967.0
2130.0;2104.5;;;;;;;;;;;;;;0.8572039;-0.06671346;-0.2733848;;;;;1967.0
2130.0;2104.5;;;;;;;;;;;;;;;;;35.321358;38.754692;53.998688;;1967.0
2130.0;2104.5;;;;;;;;;;;;;;0.8514054;-0.056093022;-0.2412183;;;;;1967.0
2130.0;2104.5;;;;;;;;;;;;;;;;;34.882656;39.372692;54.700615;;1976.7
2130.0;2104.5;;;;;;;;;;;;;;0.8530534;-0.07806635;-0.22315134;;;;;1976.7
2130.0;2104.5;;;;;;;;;;;;;;;;;36.015656;34.257027;54.883724;;1976.7
2130.0;2104.5;;;;;;;;;;;;;;0.8846095;-0.09778131;-0.24475844;;;;;1976.7
2130.0;2104.5;;;;;;;;;;;;;;;;;36.59551;29.305399;53.11365;;1986.3
2130.0;2104.5;;;;;;;;;;;;;;0.8867458;-0.094912566;-0.29841;;;;;1986.3
2130.0;2104.5;;;;;;;;;;;;;;;;;37.37373;30.587175;51.31687;;1986.3
2130.0;2104.5;;;;;;;;;;;;;;0.8453017;-0.09814753;-0.31580552;;;;;1986.3
2185.0;2105.2;;;;;;;;;;;;;;;;;40.21195;33.349102;49.718464;;1995.8
2185.0;2105.2;;;;;;;;;;;;;;0.79927975;-0.103518784;-0.2865688;;;;;1995.8
2185.0;2105.2;;;;;;;;;;;;;;;;;42.16132;32.0101;47.95221;;1995.8
2185.0;2105.2;;;;;;;;;;;;;;0.783166;-0.11627552;-0.29706717;;;;;1995.8
2185.0;2105.2;;;;;;;;;;;;;;;;;42.878506;31.353954;46.61321;;2005.5
2185.0;2105.2;;;;;;;;;;;;;;0.7932371;-0.14368114;-0.30341503;;;;;2005.5
2185.0;2105.2;;;;;;;;;;;;;;;;;43.370617;31.559956;45.24369;;2005.5
2185.0;2105.2;;;;;;;;;;;;;;0.8037965;-0.17474899;-0.30622274;;;;;2005.5
2185.0;2105.2;;;;;;;;;;;;;;;;;42.798397;31.949066;42.275764;;2015.2
2185.0;2105.2;;;;;;;;;;;;;;0.83077484;-0.20496231;-0.2982879;;;;;2015.2
2185.0;2105.2;;;;;;;;;;;;;;;;;41.913357;31.788841;40.58962;;2015.2
2185.0;2105.2;;;;;;;;;;;;;;0.8523209;-0.18018128;-0.29841;;;;;2015.2
2185.0;2109.3;;;;-0.34910586;0.9909898;-0.103145614;;;;;;;;;;;;;;;
2185.0;2109.3;;;;-0.34824374;0.9883386;-0.10426332;;;;;;;;;;;;;;;
2185.0;2109.3;;;;-0.34806064;0.985386;-0.10422899;;;;;;;;;;;;;;;
2185.0;2109.3;;;;-0.34666827;0.9822694;-0.102878585;;;;;;;;;;;;;;;
2185.0;2109.3;;;;-0.34547427;0.97924817;-0.102066055;;;;;;;;;;;;;;;
2185.0;2110.6;;;;;;;;;;-15.301217;-102.423935;106.28452;;;;;;;;;
2185.0;2110.6;;;;;;;0.35901976;-0.8341319;0.1241493;;;;;;;;;;;;
2185.0;2110.6;;;;;;;;;;-15.251625;-101.42826;106.0976;;;;;;;;;
2185.0;2110.6;;;;;;;0.3714713;-0.84664446;0.12665181;;;;;;;;;;;;
2189.0;2119.0;;;;-0.34365848;0.97615063;-0.1003647;;;;;;;;;;;;;;;
2189.0;2119.0;;;;-0.341507;0.97340024;-0.09846498;;;;;;;;;;;;;;;
2189.0;2119.0;;;;-0.34186938;0.97109234;-0.09769823;;;;;;;;;;;;;;;
2189.0;2119.0;;;;-0.33806613;0.96872723;-0.094310775;;;;;;;;;;;;;;;
2189.0;2119.0;;;;-0.33708575;0.9669877;-0.093715675;;;;;;;;;;;;;;;
2189.0;2119.9;;;;;;;;;;-15.114291;-99.94048;105.95264;;;;;;;;;
2189.0;2119.9;;;;;;;0.38538775;-0.86306345;0.13318278;;;;;;;;;;;;
2189.0;2119.9;;;;;;;;;;-15.057069;-98.21238;105.80767;;;;;;;;;
2189.0;2119.9;;;;;;;0.3952147;-0.8818018;0.1398358;;;;;;;;;;;;
2189.0;2123.4;262143;262143;11165;;;;;;;;;;;;;;;;;;
2189.0;2129.1;;;;-0.3357773;0.96549237;-0.09150315;;;;;;;;;;;;;;;
2189.0;2129.1;;;;-0.336628;0.9643022;-0.09120942;;;;;;;;;;;;;;;
2189.0;2129.1;;;;-0.33550647;0.96331036;-0.08892823;;;;;;;;;;;;;;;
2189.0;2129.1;;;;-0.3353348;0.96226513;-0.087986;;;;;;;;;;;;;;;
2189.0;2129.1;;;;-0.33586124;0.9613763;-0.08702088;;;;;;;;;;;;;;;
2189.0;2129.2;;;;;;;;;;;;;13680;;;;;;;;
2189.0;2129.2;;;;;;;;;;;;;15904;;;;;;;;
2189.0;2129.2;;;;;;;;;;;;;9914;;;;;;;;
2189.0;2129.2;;;;;;;;;;;;;4427;;;;;;;;
2189.0;2129.2;;;;;;;;;;;;;2914;;;;;;;;
2189.0;2129.6;;;;;;;;;;-14.976958;-96.030304;105.75045;;;;;;;;;
2189.0;2129.6;;;;;;;0.40217292;-0.9004181;0.14258248;;;;;;;;;;;;
2189.0;2129.6;;;;;;;;;;-14.934996;-93.35993;105.78478;;;;;;;;;
2189.0;2129.6;;;;;;;0.4100467;-0.9205603;0.14709921;;;;;;;;;;;;
2192.0;2139.2;;;;;;;;;;-14.824367;-90.43778;105.84201;;;;;;;;;
2192.0;2139.2;;;;;;;0.4189581;-0.93758965;0.15491195;;;;;;;;;;;;
2192.0;2139.2;;;;;;;;;;-14.866329;-87.43553;105.681786;;;;;;;;;
2192.0;2139.2;;;;;;;0.4267098;-0.9544969;0.16693625;;;;;;;;;;;;
2192.0;2139.2;;;;-0.33428195;0.9615518;-0.08434678;;;;;;;;;;;;;;;
2192.0;2139.2;;;;-0.33480838;0.96195614;-0.08240891;;;;;;;;;;;;;;;
2192.0;2139.2;;;;-0.33644488;0.96201336;-0.08034135;;;;;;;;;;;;;;;
2192.0;2139.2;;;;-0.33729556;0.9619447;-0.07601548;;;;;;;;;;;;;;;
2192.0;2139.2;;;;-0.3389931;0.96169674;-0.07269669;;;;;;;;;;;;;;;
2192.0;2143.7;262143;262143;11159;;;;;;;;;;;;;;;;;;
2192.0;2148.8;;;;;;;;;;-14.927366;-84.51338;105.296486;;;;;;;;;
2192.0;2148.8;;;;;;;0.43202;-0.9710379;0.17896055;;;;;;;;;;;;
2192.0;2148.8;;;;;;;;;;-14.999847;-81.54164;104.911194;;;;;;;;;
2192.0;2148.8;;;;;;;0.4372692;-0.98727375;0.19074069;;;;;;;;;;;;
2192.0;2149.3;;;;-0.33703616;0.9622499;-0.066883095;;;;;;;;;;;;;;;
2192.0;2149.3;;;;-0.33441928;0.9637109;-0.062809;;;;;;;;;;;;;;;
2192.0;2149.3;;;;-0.33338168;0.9650308;-0.05857087;;;;;;;;;;;;;;;
2192.0;2149.3;;;;-0.33292773;0.9661027;-0.055568703;;;;;;;;;;;;;;;
2192.0;2149.3;;;;-0.33181384;0.9663049;-0.052272804;;;;;;;;;;;;;;;
2192.0;2158.4;;;;;;;;;;-14.976958;-78.80642;104.38475;;;;;;;;;
2192.0;2158.4;;;;;;;0.43818477;-0.9988708;0.19946899;;;;;;;;;;;;
2192.0;2158.4;;;;;;;;;;-14.992217;-76.53279;103.67901;;;;;;;;;
2192.0;2158.4;;;;;;;0.43934447;-1.0077822;0.20319223;;;;;;;;;;;;
2193.0;2159.4;;;;-0.33160022;0.96659863;-0.050315864;;;;;;;;;;;;;;;
2193.0;2159.4;;;;-0.3300362;0.9666673;-0.048007973;;;;;;;;;;;;;;;
2193.0;2159.4;;;;-0.33007053;0.9664613;-0.045326237;;;;;;;;;;;;;;;
2193.0;2159.4;;;;-0.32990268;0.96633923;-0.04368973;;;;;;;;;;;;;;;
2193.0;2159.4;;;;-0.33015826;0.9659158;-0.04250336;;;;;;;;;;;;;;;
2193.0;2162.5;;;;;;;;;;;;;;;;;41.219063;31.044954;42.298656;;2024.9
2193.0;2162.5;;;;;;;;;;;;;;0.867275;-0.21588793;-0.29688406;;;;;2024.9
2193.0;2162.5;;;;;;;;;;;;;;;;;40.47136;30.610065;42.119358;;2024.9
2193.0;2162.5;;;;;;;;;;;;;;0.877224;-0.21948913;-0.30628377;;;;;2024.9
2193.0;2162.5;;;;;;;;;;;;;;;;;39.979248;31.727806;42.023987;;2034.5
2193.0;2162.5;;;;;;;;;;;;;;0.87490463;-0.22174749;-0.29822686;;;;;2034.5
2193.0;2162.5;;;;;;;;;;;;;;;;;39.75036;32.193214;41.554764;;2034.5
2193.0;2162.5;;;;;;;;;;;;;;0.87490463;-0.21308023;-0.28894925;;;;;2034.5
2193.0;2162.5;;;;;;;;;;;;;;;;;40.295876;31.861324;41.29917;;2044.2
2193.0;2162.5;;;;;;;;;;;;;;0.87423325;-0.2021546;-0.2822962;;;;;2044.2
2193.0;2162.5;;;;;;;;;;;;;;;;;41.459396;30.880917;40.982544;;2044.2
2193.0;2162.5;;;;;;;;;;;;;;0.8717307;-0.20484024;-0.27423933;;;;;2044.2
2194.0;2163.3;;;;;;;;;;;;;;;;;43.080692;28.946806;40.456097;;2053.7
2194.0;2163.3;;;;;;;;;;;;;;0.8768578;-0.19483016;-0.26471755;;;;;2053.7
2194.0;2163.3;;;;;;;;;;;;;;;;;44.05347;26.982178;40.158543;;2053.7
2194.0;2163.3;;;;;;;;;;;;;;0.885403;-0.1850032;-0.25641653;;;;;2053.7
2194.0;2163.3;;;;;;;;;;;;;;;;;43.954285;25.559252;39.88769;;2063.3
2194.0;2163.3;;;;;;;;;;;;;;0.89492476;-0.17517625;-0.24262215;;;;;2063.3
2194.0;2163.3;;;;;;;;;;;;;;;;;42.99295;24.334698;39.73128;;2063.3
2194.0;2163.3;;;;;;;;;;;;;;0.9031037;-0.15723136;-0.21845149;;;;;2063.3
2194.0;2163.3;;;;;;;;;;;;;;;;;42.22236;22.068699;39.86099;;2073.0
2194.0;2163.3;;;;;;;;;;;;;;0.9040193;-0.1363567;-0.20935698;;;;;2073.0
2194.0;2163.3;;;;;;;;;;;;;;;;;40.6888;19.634846;39.84191;;2073.0
2194.0;2163.3;;;;;;;;;;;;;;0.9038362;-0.11023286;-0.20502335;;;;;2073.0
2194.0;2163.7;262143;262143;11170;;;;;;;;;;;;;;;;;;
2194.0;2167.8;;;;;;;;;;-14.923552;-74.221016;102.87026;;;;;;;;;
2194.0;2167.8;;;;;;;0.44209114;-1.0155339;0.20636617;;;;;;;;;;;;
2194.0;2167.8;;;;;;;;;;-14.835811;-72.00842;101.87841;;;;;;;;;
2194.0;2167.8;;;;;;;0.44215217;-1.0201117;0.2080752;;;;;;;;;;;;
2194.0;2169.2;;;;-0.3311005;0.96530545;-0.0419426;;;;;;;;;;;;;;;
2194.0;2169.2;;;;-0.33357623;0.9642602;-0.040897373;;;;;;;;;;;;;;;
2194.0;2169.2;;;;-0.333622;0.9630853;-0.03923798;;;;;;;;;;;;;;;
2194.0;2169.2;;;;-0.33098987;0.9636308;-0.035865787;;;;;;;;;;;;;;;
2194.0;2169.2;;;;-0.32979968;0.964512;-0.034515385;;;;;;;;;;;;;;;
2242.0;2169.4;;;;;;;;;;;;;2833;;;;;;;;
2242.0;2169.4;;;;;;;;;;;;;2278;;;;;;;;
2242.0;2169.4;;;;;;;;;;;;;1715;;;;;;;;
2242.0;2169.4;;;;;;;;;;;;;1394;;;;;;;;
2242.0;2169.4;;;;;;;;;;;;;1159;;;;;;;;
2242.0;2176.9;;;;;;;;;;-14.820552;-70.028534;100.817894;;;;;;;;;
2242.0;2176.9;;;;;;;0.44642475;-1.0209662;0.20954008;;;;;;;;;;;;
2242.0;2176.9;;;;;;;;;;-14.759515;-68.50261;99.57045;;;;;;;;;
2242.0;2176.9;;;;;;;0.44837794;-1.0235908;0.20667134;;;;;;;;;;;;
2242.0;2178.9;;;;-0.330452;0.96517575;-0.033946995;;;;;;;;;;;;;;;
2242.0;2178.9;;;;-0.3305321;0.9655534;-0.03286362;;;;;;;;;;;;;;;
2242.0;2178.9;;;;-0.33073428;0.9664613;-0.032444004;;;;;;;;;;;;;;;
2242.0;2178.9;;;;-0.33150867;0.9675523;-0.031780247;;;;;;;;;;;;;;;
2242.0;2178.9;;;;-0.33195117;0.96932614;-0.03097153;;;;;;;;;;;;;;;
2242.0;2183.5;262143;262143;11168;;;;;;;;;;;;;;;;;;
2242.0;2186.5;;;;;;;;;;-14.809107;-67.14454;98.28105;;;;;;;;;
2242.0;2186.5;;;;;;;0.4483169;-1.0253608;0.20355846;;;;;;;;;;;;
2242.0;2186.5;;;;;;;;;;-14.950255;-66.07258;96.972565;;;;;;;;;
2242.0;2186.5;;;;;;;0.44746238;-1.0290841;0.20166631;;;;;;;;;;;;
2242.0;2189.0;;;;-0.33175662;0.97145855;-0.031272892;;;;;;;;;;;;;;;
2242.0;2189.0;;;;-0.33088687;0.97418606;-0.030155186;;;;;;;;;;;;;;;
2242.0;2189.0;;;;-0.32994846;0.97682583;-0.0290947;;;;;;;;;;;;;;;
2242.0;2189.0;;;;-0.32857898;0.9796487;-0.0293541;;;;;;;;;;;;;;;
2242.0;2189.0;;;;-0.3272095;0.98347867;-0.029136661;;;;;;;;;;;;;;;
2244.0;2196.2;;;;;;;;;;-15.076143;-65.12269;95.54582;;;;;;;;;
2244.0;2196.2;;;;;;;0.44898832;-1.0296335;0.1998352;;;;;;;;;;;;
2244.0;2196.2;;;;;;;;;;-15.266884;-64.203316;93.92453;;;;;;;;;
2244.0;2196.2;;;;;;;0.4492935;-1.0301218;0.20020142;;;;;;;;;;;;
2244.0;2199.1;;;;-0.32576755;0.9870378;-0.028301243;;;;;;;;;;;;;;;
2244.0;2199.1;;;;-0.32534793;0.9903184;-0.026687626;;;;;;;;;;;;;;;
2244.0;2199.1;;;;-0.32452396;0.9944459;-0.024024967;;;;;;;;;;;;;;;
2244.0;2199.1;;;;-0.3245621;0.99863446;-0.020816805;;;;;;;;;;;;;;;
2244.0;2199.1;;;;-0.3240929;1.0035173;-0.01652527;;;;;;;;;;;;;;;
2244.0;2203.7;262143;262143;11166;;;;;;;;;;;;;;;;;;
2244.0;2205.8;;;;;;;;;;-15.488144;-63.53572;92.20405;;;;;;;;;
2244.0;2205.8;;;;;;;0.4476455;-1.0285958;0.20136112;;;;;;;;;;;;
2244.0;2205.8;;;;;;;;;;-15.686514;-63.024536;90.36149;;;;;;;;;
2244.0;2205.8;;;;;;;0.4502701;-1.0295725;0.1991638;;;;;;;;;;;;
2244.0;2209.2;;;;-0.32283404;1.009041;-0.012825014;;;;;;;;;;;;;;;
2244.0;2209.2;;;;-0.32155994;1.0150682;-0.009540559;;;;;;;;;;;;;;;
2244.0;2209.2;;;;-0.32010272;1.0221978;-0.005714417;;;;;;;;;;;;;;;
2244.0;2209.2;;;;-0.31853488;1.0289041;-0.0019760134;;;;;;;;;;;;;;;
2244.0;2209.2;;;;-0.31576923;1.0364763;0.0014343263;;;;;;;;;;;;;;;
2244.0;2209.4;;;;;;;;;;;;;886;;;;;;;;
2244.0;2209.4;;;;;;;;;;;;;329;;;;;;;;
2244.0;2209.4;;;;;;;;;;;;;-432;;;;;;;;
2244.0;2209.4;;;;;;;;;;;;;-1156;;;;;;;;
2244.0;2209.4;;;;;;;;;;;;;-1825;;;;;;;;
2246.0;2215.3;;;;;;;;;;;;;;;;;38.583027;18.21192;40.18143;;2082.6
2246.0;2215.3;;;;;;;;;;;;;;0.8935209;-0.09271523;-0.20178838;;;;;2082.6
2246.0;2215.3;;;;;;;;;;;;;;;;;36.75573;17.548143;39.590134;;2082.6
2246.0;2215.3;;;;;;;;;;;;;;0.88033694;-0.06659139;-0.1942198;;;;;2082.6
2246.0;2215.3;;;;;;;;;;;;;;;;;35.073395;16.571552;38.83862;;2092.3
2246.0;2215.3;;;;;;;;;;;;;;0.8706931;-0.059450056;-0.19586779;;;;;2092.3
2246.0;2215.3;;;;;;;;;;;;;;;;;34.592728;15.377514;37.72088;;2092.3
2246.0;2215.3;;;;;;;;;;;;;;0.87148654;-0.050111394;-0.21008942;;;;;2092.3
2246.0;2215.3;;;;;;;;;;;;;;;;;33.818325;15.705587;36.103397;;2101.9
2246.0;2215.3;;;;;;;;;;;;;;0.8849147;-0.03790399;-0.22815637;;;;;2101.9
2246.0;2215.3;;;;;;;;;;;;;;;;;32.99051;16.731773;35.191654;;2101.9
2246.0;2215.3;;;;;;;;;;;;;;0.8883328;-0.05597095;-0.24933623;;;;;2101.9
2246.0;2215.4;;;;;;;;;;-15.923033;-62.646873;88.526566;;;;;;;;;
2246.0;2215.4;;;;;;;0.4513077;-1.0279244;0.20325327;;;;;;;;;;;;
2246.0;2215.4;;;;;;;;;;-16.170996;-62.398907;86.56576;;;;;;;;;
2246.0;2215.4;;;;;;;0.45216224;-1.027192;0.2074038;;;;;;;;;;;;
2247.0;2216.1;;;;;;;;;;;;;;;;;32.444992;17.849512;34.051025;;2111.6
2247.0;2216.1;;;;;;;;;;;;;;0.8939482;-0.0672628;-0.28150272;;;;;2111.6
2247.0;2216.1;;;;;;;;;;;;;;;;;31.861324;19.520401;33.48262;;2111.6
2247.0;2216.1;;;;;;;;;;;;;;0.8939482;-0.09442427;-0.31684315;;;;;2111.6
2247.0;2216.1;;;;;;;;;;;;;;;;;31.533249;21.546068;33.44066;;2121.3
2247.0;2216.1;;;;;;;;;;;;;;0.8814966;-0.15155491;-0.35084078;;;;;2121.3
2247.0;2216.1;;;;;;;;;;;;;;;;;32.353436;23.087252;32.71203;;2121.3
2247.0;2216.1;;;;;;;;;;;;;;0.8652608;-0.20496231;-0.3878292;;;;;2121.3
2247.0;2216.1;;;;;;;;;;;;;;;;;33.49025;23.957031;31.136509;;2131.0
2247.0;2216.1;;;;;;;;;;;;;;0.86208683;-0.24707785;-0.42316964;;;;;2131.0
2247.0;2216.1;;;;;;;;;;;;;;;;;35.44343;24.395735;30.655842;;2131.0
2247.0;2216.1;;;;;;;;;;;;;;0.8608661;-0.29987487;-0.45240638;;;;;2131.0
2247.0;2219.2;;;;-0.3139229;1.0446283;0.00460434;;;;;;;;;;;;;;;
2247.0;2219.2;;;;-0.31233218;1.0529519;0.008045197;;;;;;;;;;;;;;;
2247.0;2219.2;;;;-0.31059268;1.0618173;0.010845185;;;;;;;;;;;;;;;
2247.0;2219.2;;;;-0.30793002;1.0708314;0.013141634;;;;;;;;;;;;;;;
2247.0;2219.2;;;;-0.30500796;1.0794107;0.015083315;;;;;;;;;;;;;;;
2247.0;2223.7;262143;262143;11153;;;;;;;;;;;;;;;;;;
2247.0;2224.8;;;;;;;;;;-16.434217;-62.11661;84.49812;;;;;;;;;
2247.0;2224.8;;;;;;;0.4557024;-1.0231025;0.21301919;;;;;;;;;;;;
2247.0;2224.8;;;;;;;;;;-16.693626;-62.009796;82.361824;;;;;;;;;
2247.0;2224.8;;;;;;;0.458388;-1.022248;0.21845149;;;;;;;;;;;;
2305.0;2229.1;;;;-0.3015671;1.0874826;0.01704407;;;;;;;;;;;;;;;
2305.0;2229.1;;;;-0.29767993;1.0949517;0.018394472;;;;;;;;;;;;;;;
2305.0;2229.1;;;;-0.29308322;1.101185;0.020313265;;;;;;;;;;;;;;;
2305.0;2229.1;;;;-0.28877643;1.1066018;0.021247866;;;;;;;;;;;;;;;
2305.0;2229.1;;;;-0.28468707;1.1113664;0.022773745;;;;;;;;;;;;;;;
2305.0;2234.1;;;;;;;;;;-16.96829;-61.79998;80.1416;;;;;;;;;
2305.0;2234.1;;;;;;;0.4636372;-1.0220649;0.22663045;;;;;;;;;;;;
2305.0;2234.1;;;;;;;;;;-17.410809;-61.490982;77.62765;;;;;;;;;
2305.0;2234.1;;;;;;;0.47004607;-1.0209051;0.23877682;;;;;;;;;;;;
2305.0;2239.0;;;;-0.2807503;1.1144372;0.022708895;;;;;;;;;;;;;;;
2305.0;2239.0;;;;-0.27775195;1.1165849;0.024265293;;;;;;;;;;;;;;;
2305.0;2239.0;;;;-0.27461627;1.1178209;0.026420597;;;;;;;;;;;;;;;
2305.0;2239.0;;;;-0.27142337;1.118332;0.028026585;;;;;;;;;;;;;;;
2305.0;2239.0;;;;-0.2683716;1.11858;0.029399876;;;;;;;;;;;;;;;
2305.0;2243.7;;;;;;;;;;-17.796106;-60.80813;75.16328;;;;;;;;;
2305.0;2243.7;;;;;;;0.47822505;-1.0262765;0.25104526;;;;;;;;;;;;
2305.0;2243.7;;;;;;;;;;-18.33018;-59.972683;72.65313;;;;;;;;;
2305.0;2243.7;;;;;;;0.4885403;-1.0315866;0.26142156;;;;;;;;;;;;
2305.0;2243.7;262143;262143;11142;;;;;;;;;;;;;;;;;;
2307.0;2249.1;;;;-0.2655144;1.1181146;0.030067448;;;;;;;;;;;;;;;
2307.0;2249.1;;;;-0.26178744;1.1169282;0.031909946;;;;;;;;;;;;;;;
2307.0;2249.1;;;;-0.2557793;1.1147081;0.03341675;;;;;;;;;;;;;;;
2307.0;2249.1;;;;-0.24945071;1.1114541;0.034221653;;;;;;;;;;;;;;;
2307.0;2249.1;;;;-0.24470142;1.1088563;0.03286362;;;;;;;;;;;;;;;
2307.0;2249.4;;;;;;;;;;;;;-2472;;;;;;;;
2307.0;2249.4;;;;;;;;;;;;;-3079;;;;;;;;
2307.0;2249.4;;;;;;;;;;;;;-3637;;;;;;;;
2307.0;2249.4;;;;;;;;;;;;;-4081;;;;;;;;
2307.0;2249.4;;;;;;;;;;;;;-4296;;;;;;;;
2307.0;2253.4;;;;;;;;;;-18.757439;-58.797726;70.19257;;;;;;;;;
2307.0;2253.4;;;;;;;0.49519333;-1.0377514;0.27027193;;;;;;;;;;;;
2307.0;2253.4;;;;;;;;;;-19.196144;-57.47017;67.78161;;;;;;;;;
2307.0;2253.4;;;;;;;0.5053255;-1.0447706;0.27997681;;;;;;;;;;;;
2307.0;2259.2;;;;-0.23907092;1.1055719;0.032722477;;;;;;;;;;;;;;;
2307.0;2259.2;;;;-0.23199847;1.1021501;0.03326798;;;;;;;;;;;;;;;
2307.0;2259.2;;;;-0.22575763;1.0984193;0.033523563;;;;;;;;;;;;;;;
2307.0;2259.2;;;;-0.22006992;1.0947877;0.033660892;;;;;;;;;;;;;;;
2307.0;2259.2;;;;-0.2158356;1.0926629;0.034255985;;;;;;;;;;;;;;;
2307.0;2263.0;;;;;;;;;;-19.573809;-56.146427;65.4088;;;;;;;;;
2307.0;2263.0;;;;;;;0.51478624;-1.0557573;0.28711814;;;;;;;;;;;;
2307.0;2263.0;;;;;;;;;;-19.86755;-54.662468;62.990204;;;;;;;;;
2307.0;2263.0;;;;;;;0.5189978;-1.0638142;0.29151282;;;;;;;;;;;;
2307.0;2264.0;262143;262143;11153;;;;;;;;;;;;;;;;;;
2308.0;2267.6;;;;;;;;;;;;;;;;;37.846767;24.975584;28.98114;;2140.6
2308.0;2267.6;;;;;;;;;;;;;;0.8703879;-0.357799;-0.47456282;;;;;2140.6
2308.0;2267.6;;;;;;;;;;;;;;;;;41.93625;25.429548;27.390362;;2140.6
2308.0;2267.6;;;;;;;;;;;;;;0.88003176;-0.40913114;-0.48304698;;;;;2140.6
2308.0;2267.6;;;;;;;;;;;;;;;;;47.10532;25.437178;26.055178;;2150.3
2308.0;2267.6;;;;;;;;;;;;;;0.88302255;-0.44672993;-0.47163305;;;;;2150.3
2308.0;2267.6;;;;;;;;;;;;;;;;;51.549576;24.346142;25.124363;;2150.3
2308.0;2267.6;;;;;;;;;;;;;;0.8844264;-0.47425765;-0.44160283;;;;;2150.3
2308.0;2267.6;;;;;;;;;;;;;;;;;54.853203;22.041994;24.636068;;2159.9
2308.0;2267.6;;;;;;;;;;;;;;0.89114046;-0.4810938;-0.40467542;;;;;2159.9
2308.0;2267.6;;;;;;;;;;;;;;;;;57.531204;19.409773;23.960846;;2159.9
2308.0;2267.6;;;;;;;;;;;;;;0.8987701;-0.48628193;-0.3606067;;;;;2159.9
2308.0;2268.3;;;;;;;;;;;;;;;;;60.50676;16.266367;22.679068;;2169.5
2308.0;2268.3;;;;;;;;;;;;;;0.91170996;-0.47437972;-0.32087162;;;;;2169.5
2308.0;2268.3;;;;;;;;;;;;;;;;;62.654503;13.431959;20.859402;;2169.5
2308.0;2268.3;;;;;;;;;;;;;;0.92190313;-0.44611958;-0.2751549;;;;;2169.5
2308.0;2268.3;;;;;;;;;;;;;;;;;63.867615;11.066774;18.84518;;2179.2
2308.0;2268.3;;;;;;;;;;;;;;0.94204533;-0.41358685;-0.23426008;;;;;2179.2
2308.0;2268.3;;;;;;;;;;;;;;;;;65.725426;9.483627;16.270182;;2179.2
2308.0;2268.3;;;;;;;;;;;;;;0.9621876;-0.38209173;-0.20905179;;;;;2179.2
2308.0;2268.3;;;;;;;;;;;;;;;;;68.08679;7.8585167;13.309885;;2188.9
2308.0;2268.3;;;;;;;;;;;;;;0.9929502;-0.34962004;-0.1932432;;;;;2188.9
2308.0;2268.3;;;;;;;;;;;;;;;;;70.70376;6.595813;10.299997;;2188.9
2308.0;2268.3;;;;;;;;;;;;;;1.0423292;-0.3136082;-0.1937315;;;;;2188.9
2309.0;2269.1;;;;-0.21248248;1.0908014;0.033794407;;;;;;;;;;;;;;;
2309.0;2269.1;;;;-0.21093753;1.0890542;0.033470158;;;;;;;;;;;;;;;
2309.0;2269.1;;;;-0.20865634;1.0874482;0.034854893;;;;;;;;;;;;;;;
2309.0;2269.1;;;;-0.20601657;1.0871278;0.036514286;;;;;;;;;;;;;;;
2309.0;2269.1;;;;-0.20224383;1.0870858;0.038581852;;;;;;;;;;;;;;;
2309.0;2272.4;;;;;;;;;;-20.180365;-52.983948;60.510574;;;;;;;;;
2309.0;2272.4;;;;;;;0.52375865;-1.0744346;0.2961516;;;;;;;;;;;;
2309.0;2272.4;;;;;;;;;;-20.390179;-51.17191;57.939392;;;;;;;;;
