patientId;holterMac;flexMac;;;;;;;;;;;;;;;;;;;;
;CA:F3:0B:1E:33:78;D3:4A:5C:52:80:78;;;;;;;;;;;;;;;;;;;;
receivedTimeStamp;timeStamp;red;ir;green;adxl_accX;adxl_accY;adxl_accZ;lsm_accelX;lsm_accelY;lsm_accelZ;lsm_gyroX;lsm_gyroY;lsm_gyroZ;ecg;flex_lsm_accelX;flex_lsm_accelY;flex_lsm_accelZ;flex_lsm_gyroX;flex_lsm_gyroY;flex_lsm_gyroZ;flex_cmd;flexTimeStamp
279.0;219.2;;;;;;;;;;;;;;;;;;;;17;0.1
279.0;219.2;;;;;;;;;;;;;;;;;13.512071;0.35859248;0.2822962;;127.5
279.0;219.2;;;;;;;;;;;;;;0.7411725;0.27307963;-0.11651967;;;;;127.5
279.0;219.2;;;;;;;;;;;;;;;;;-4.9211097;-18.00592;-6.172369;;127.5
279.0;219.2;;;;;;;;;;;;;;0.7663808;0.26770836;-0.12848292;;;;;127.5
279.0;219.2;;;;;;;;;;;;;;;;;-64.5848;-84.83001;-56.398205;;137.2
279.0;219.2;;;;;;;;;;;;;;0.7662587;0.24982452;-0.146733;;;;;137.2
279.0;219.2;;;;;;;;;;;;;;;;;-122.39448;-124.988556;-116.66845;;137.2
279.0;219.2;;;;;;;;;;;;;;0.77535325;0.23554185;-0.18127994;;;;;137.2
337.0;220.4;;;;;;;;;;;;;;;;;-66.00391;-124.988556;-58.744316;;146.9
337.0;220.4;;;;;;;;;;;;;;0.78127384;0.21643727;-0.2200995;;;;;146.9
337.0;220.4;;;;;;;;;;;;;;;;;-10.620441;-124.988556;15.758995;;146.9
337.0;220.4;;;;;;;;;;;;;;0.7939696;0.1988586;-0.2563555;;;;;146.9
337.0;220.4;;;;;;;;;;;;;;;;;-17.872402;-105.22019;35.073395;;156.6
337.0;220.4;;;;;;;;;;;;;;0.7995239;0.16876736;-0.27027193;;;;;156.6
337.0;220.4;;;;;;;;;;;;;;;;;-23.636585;-36.538284;63.367874;;156.6
337.0;220.4;;;;;;;;;;;;;;0.80721456;0.13336588;-0.25568408;;;;;156.6
337.0;220.4;;;;;;;;;;;;;;;;;-20.512253;-29.793695;63.62728;;166.2
337.0;220.4;;;;;;;;;;;;;;0.8138676;0.10571612;-0.23242897;;;;;166.2
337.0;220.4;;;;;;;;;;;;;;;;;-16.357922;-29.248177;61.544388;;166.2
337.0;220.4;;;;;;;;;;;;;;0.826075;0.08990753;-0.21796319;;;;;166.2
337.0;279.3;;;;;;;;;;;;;;;;;-12.062441;-28.279213;59.583576;;175.7
337.0;279.3;;;;;;;;;;;;;;0.83999145;0.07757805;-0.2038026;;;;;175.7
337.0;279.3;;;;;;;;;;;;;;;;;-7.6792197;-27.001251;57.100132;;175.7
337.0;279.3;;;;;;;;;;;;;;0.8512833;0.07940916;-0.18390454;;;;;175.7
337.0;279.3;;;;;;;;;;;;;;;;;-3.7575915;-25.849178;54.74639;;185.3
337.0;279.3;;;;;;;;;;;;;;0.8708762;0.090701014;-0.17450483;;;;;185.3
337.0;279.3;;;;;;;;;;;;;;;;;-0.13733329;-24.132511;52.797024;;185.3
337.0;279.3;;;;;;;;;;;;;;0.88827175;0.10736412;-0.16589862;;;;;185.3
337.0;279.3;;;;;;;;;;;;;;;;;3.0175178;-22.70577;50.74465;;195.0
337.0;279.3;;;;;;;;;;;;;;0.9043245;0.12683493;-0.16461684;;;;;195.0
337.0;279.3;;;;;;;;;;;;;;;;;5.794702;-21.065401;49.058506;;195.0
337.0;279.3;;;;;;;;;;;;;;0.9162267;0.15143284;-0.16870633;;;;;195.0
398.0;280.1;;;;;;;;;;;;;;;;;7.7860346;-18.00592;47.566914;;204.6
398.0;280.1;;;;;;;;;;;;;;0.92336804;0.17627491;-0.16229743;;;;;204.6
398.0;280.1;;;;;;;;;;;;;;;;;8.766441;-14.324625;45.907467;;204.6
398.0;280.1;;;;;;;;;;;;;;0.9223304;0.19855343;-0.14630574;;;;;204.6
398.0;280.1;;;;;;;;;;;;;;;;;9.151738;-11.204107;44.442577;;214.2
398.0;280.1;;;;;;;;;;;;;;0.9164098;0.21955016;-0.1363567;;;;;214.2
398.0;280.1;;;;;;;;;;;;;;;;;9.044923;-8.495589;43.00058;;214.2
398.0;280.1;;;;;;;;;;;;;;0.9176916;0.23932615;-0.13202307;;;;;214.2
398.0;280.1;;;;;;;;;;;;;;;;;8.80459;-6.023591;41.55858;;223.7
398.0;280.1;;;;;;;;;;;;;;0.9136021;0.26288643;-0.12518692;;;;;223.7
398.0;280.1;;;;;;;;;;;;;;;;;8.205665;-4.4099245;40.437023;;223.7
398.0;280.1;;;;;;;;;;;;;;0.90713215;0.28101444;-0.12848292;;;;;223.7
398.0;347.3;;;;;;;;;;;;;;;;;7.351146;-3.6927397;39.429913;;233.3
398.0;347.3;;;;;;;;;;;;;;0.906888;0.29718924;-0.14099552;;;;;233.3
398.0;347.3;;;;;;;;;;;;;;;;;6.576739;-2.6360364;38.37321;;233.3
398.0;347.3;;;;;;;;;;;;;;0.9011505;0.30842006;-0.14581744;;;;;233.3
398.0;347.3;;;;;;;;;;;;;;;;;5.512406;-2.0371106;37.396618;;243.0
398.0;347.3;;;;;;;;;;;;;;0.89278847;0.3172094;-0.14825892;;;;;243.0
398.0;347.3;;;;;;;;;;;;;;;;;4.650258;-2.1362956;36.35136;;243.0
398.0;347.3;;;;;;;;;;;;;;0.88247323;0.32557145;-0.15143284;;;;;243.0
398.0;347.3;;;;;;;;;;;;;;;;;4.314554;-2.7809992;35.52736;;252.7
398.0;347.3;;;;;;;;;;;;;;0.86898404;0.3345439;-0.1551561;;;;;252.7
398.0;347.3;;;;;;;;;;;;;;;;;4.0284433;-3.9368877;34.760582;;252.7
398.0;347.3;;;;;;;;;;;;;;0.86159855;0.3388165;-0.16394544;;;;;252.7
460.0;348.1;;;;;;;;;;;;;;;;;3.913999;-5.352184;34.04721;;262.2
460.0;348.1;;;;;;;;;;;;;;0.847499;0.3449202;-0.1699881;;;;;262.2
460.0;348.1;;;;;;;;;;;;;;;;;3.7156286;-7.1031833;33.158363;;262.2
460.0;348.1;;;;;;;;;;;;;;0.8454848;0.35505235;-0.17987609;;;;;262.2
460.0;348.1;;;;;;;;;;;;;;;;;3.501999;-8.350628;32.18177;;271.9
460.0;348.1;;;;;;;;;;;;;;0.84859765;0.36597797;-0.18640706;;;;;271.9
460.0;348.1;;;;;;;;;;;;;;;;;2.887814;-9.132664;31.09073;;271.9
460.0;348.1;;;;;;;;;;;;;;0.85219884;0.38129824;-0.1899472;;;;;271.9
460.0;348.1;;;;;;;;;;;;;;;;;1.842555;-9.743034;29.984434;;281.5
460.0;348.1;;;;;;;;;;;;;;0.8663595;0.3965575;-0.19898069;;;;;281.5
460.0;348.1;;;;;;;;;;;;;;;;;0.3318888;-9.331035;28.698843;;281.5
460.0;348.1;;;;;;;;;;;;;;0.87618643;0.4126713;-0.20667134;;;;;281.5
460.0;400.5;;;;;;;;;;;;;;;;;-1.1902219;-8.495589;27.172918;;291.2
460.0;400.5;;;;;;;;;;;;;;0.8885159;0.42323068;-0.20667134;;;;;291.2
460.0;400.5;;;;;;;;;;;;;;;;;-2.4529252;-6.9620347;25.498215;;291.2
460.0;400.5;;;;;;;;;;;;;;0.89651173;0.4223762;-0.20697653;;;;;291.2
460.0;400.5;;;;;;;;;;;;;;;;;-3.566851;-5.0393686;23.930326;;300.8
460.0;400.5;;;;;;;;;;;;;;0.90066224;0.41376996;-0.2064272;;;;;300.8
460.0;400.5;;;;;;;;;;;;;;;;;-4.1695914;-3.4257026;22.32429;;300.8
460.0;400.5;;;;;;;;;;;;;;0.9033479;0.40894803;-0.20557268;;;;;300.8
460.0;400.5;;;;;;;;;;;;;;;;;-4.634999;-2.55974;20.77929;;310.4
460.0;400.5;;;;;;;;;;;;;;0.90347;0.39765617;-0.21411787;;;;;310.4
460.0;400.5;;;;;;;;;;;;;;;;;-4.9172945;-2.4605548;19.672993;;310.4
460.0;400.5;;;;;;;;;;;;;;0.90859705;0.3810541;-0.23255104;;;;;310.4
521.0;407.6;;;;;;;;;;;;;;;;;-5.031739;-2.6932585;18.894773;;319.8
521.0;407.6;;;;;;;;;;;;;;0.9222083;0.3653676;-0.25305948;;;;;319.8
521.0;407.6;;;;;;;;;;;;;;;;;-5.8633685;-3.1891842;18.173773;;319.8
521.0;407.6;;;;;;;;;;;;;;0.9344157;0.36902982;-0.2738731;;;;;319.8
521.0;407.6;;;;;;;;;;;;;;;;;-8.278146;-4.013184;17.399364;;329.4
521.0;407.6;;;;;;;;;;;;;;0.9461348;0.39088106;-0.28052613;;;;;329.4
521.0;407.6;;;;;;;;;;;;;;;;;-12.436293;-4.955443;16.388441;;329.4
521.0;407.6;;;;;;;;;;;;;;0.94821006;0.4189581;-0.2682577;;;;;329.4
521.0;407.6;;;;;;;;;;;;;;;;;-17.60918;-6.0541096;15.068514;;339.0
521.0;407.6;;;;;;;;;;;;;;0.9439375;0.45118564;-0.25586718;;;;;339.0
521.0;407.6;;;;;;;;;;;;;;;;;-22.900326;-6.065554;13.389997;;339.0
521.0;407.6;;;;;;;;;;;;;;0.93093663;0.4741966;-0.23633534;;;;;339.0
521.0;461.1;;;;;;;;;;;;;;;;;-27.645954;-5.584887;11.364329;;348.7
521.0;461.1;;;;;;;;;;;;;;0.91421247;0.4939726;-0.21015045;;;;;348.7
521.0;461.1;;;;;;;;;;;;;;;;;-30.991547;-4.997406;8.941923;;348.7
521.0;461.1;;;;;;;;;;;;;;0.910184;0.50379956;-0.17474899;;;;;348.7
521.0;461.1;;;;;;;;;;;;;;;;;-32.876064;-3.5821102;5.836665;;358.3
521.0;461.1;;;;;;;;;;;;;;0.9062166;0.4990997;-0.13275552;;;;;358.3
521.0;461.1;;;;;;;;;;;;;;;;;-34.184544;-2.128666;2.277444;;358.3
521.0;461.1;;;;;;;;;;;;;;0.90939057;0.4820704;-0.11090426;;;;;358.3
521.0;461.1;;;;;;;;;;;;;;;;;-35.06958;-0.77822196;-1.4496292;;368.0
521.0;461.1;;;;;;;;;;;;;;0.9116489;0.46748254;-0.10095523;;;;;368.0
521.0;461.1;;;;;;;;;;;;;;;;;-35.142063;-0.8278146;-5.2415543;;368.0
521.0;461.1;;;;;;;;;;;;;;0.91708124;0.44953763;-0.12634663;;;;;368.0
582.0;461.7;;;;;;;;;;;;;;;;;-35.24125;-2.494888;-8.651998;;377.4
582.0;461.7;;;;;;;;;;;;;;0.91311383;0.41737112;-0.20636617;;;;;377.4
582.0;461.7;;;;;;;;;;;;;;;;;-36.439102;-4.5358133;-11.268959;;377.4
582.0;461.7;;;;;;;;;;;;;;0.9176916;0.38080996;-0.29468673;;;;;377.4
582.0;461.7;;;;;;;;;;;;;;;;;-37.812435;-0.24796289;-14.248329;;387.1
582.0;461.7;;;;;;;;;;;;;;0.97415084;0.4003418;-0.2669759;;;;;387.1
582.0;461.7;;;;;;;;;;;;;;;;;-38.05277;6.2715535;-18.795588;;387.1
582.0;461.7;;;;;;;;;;;;;;1.0202338;0.4499649;-0.17487106;;;;;387.1
582.0;461.7;;;;;;;;;;;;;;;;;-34.779655;-1.9379253;-23.800623;;396.8
582.0;461.7;;;;;;;;;;;;;;1.1076388;0.5838191;-0.17578661;;;;;396.8
582.0;461.7;;;;;;;;;;;;;;;;;-31.20899;-15.945921;-28.992584;;396.8
582.0;461.7;;;;;;;;;;;;;;1.2379528;0.66536456;-0.30347607;;;;;396.8
582.0;521.4;;;;;;;;;;;;;;;;;-30.228582;-17.19718;-32.2924;;406.3
582.0;521.4;;;;;;;;;;;;;;1.3300576;0.6223945;-0.40058595;;;;;406.3
582.0;521.4;;;;;;;;;;;;;;;;;-29.835659;-4.482406;-36.267433;;406.3
582.0;521.4;;;;;;;;;;;;;;1.3469039;0.5481735;-0.36329234;;;;;406.3
582.0;521.4;;;;;;;;;;;;;;;;;-27.401806;11.444441;-42.157505;;415.9
582.0;521.4;;;;;;;;;;;;;;1.2889798;0.48286384;-0.2320017;;;;;415.9
582.0;521.4;;;;;;;;;;;;;;;;;-22.74392;22.499771;-49.584946;;415.9
582.0;521.4;;;;;;;;;;;;;;1.1796014;0.456679;-0.086123236;;;;;415.9
582.0;521.4;;;;;;;;;;;;;;;;;-16.552477;24.48729;-57.500687;;425.5
582.0;521.4;;;;;;;;;;;;;;1.0735191;0.4784692;-0.0038453322;;;;;425.5
582.0;521.4;;;;;;;;;;;;;;;;;-12.916959;20.123142;-65.5881;;425.5
582.0;521.4;;;;;;;;;;;;;;1.01236;0.49934384;0.010193182;;;;;425.5
639.0;522.2;;;;;;;;;;;;;;;;;-12.977996;15.915403;-74.78561;;435.2
639.0;522.2;;;;;;;;;;;;;;1.0072939;0.51832634;-0.0038453322;;;;;435.2
639.0;522.2;;;;;;;;;;;;;;;;;-15.671255;15.942106;-84.93683;;435.2
639.0;522.2;;;;;;;;;;;;;;1.0249946;0.52107304;-0.0028077029;;;;;435.2
639.0;522.2;;;;;;;;;;;;;;;;;-21.027254;20.596178;-95.73275;;444.9
639.0;522.2;;;;;;;;;;;;;;1.051912;0.49311808;0.013855403;;;;;444.9
639.0;522.2;;;;;;;;;;;;;;;;;-26.7304;28.469954;-106.654564;;444.9
639.0;522.2;;;;;;;;;;;;;;1.0484939;0.42469558;0.031189917;;;;;444.9
639.0;522.2;;;;;;;;;;;;;;;;;-31.4684;35.573135;-117.83197;;454.5
639.0;522.2;;;;;;;;;;;;;;1.0319529;0.3397931;0.013855403;;;;;454.5
639.0;522.2;;;;;;;;;;;;;;;;;-34.676655;40.974915;-124.50026;;454.5
639.0;522.2;;;;;;;;;;;;;;1.0042421;0.25269327;-0.020386364;;;;;454.5
639.0;536.1;;;;;;;;;;;;;;;;;-35.878323;44.392986;-124.988556;;464.1
639.0;536.1;;;;;;;;;;;;;;0.9886166;0.15778069;-0.066530354;;;;;464.1
639.0;536.1;;;;;;;;;;;;;;;;;-34.985657;48.40999;-124.988556;;464.1
639.0;536.1;;;;;;;;;;;;;;0.99301124;0.05285806;-0.07605213;;;;;464.1
639.0;536.1;;;;;;;;;;;;;;;;;-31.331066;51.244392;-124.988556;;473.7
639.0;536.1;;;;;;;;;;;;;;1.019013;-0.033509325;-0.053102206;;;;;473.7
639.0;536.1;;;;;;;;;;;;;;;;;-24.86114;47.2808;-124.988556;;473.7
639.0;536.1;;;;;;;;;;;;;;1.0857265;-0.09228797;-0.050721765;;;;;473.7
639.0;536.1;;;;;;;;;;;;;;;;;-17.265846;33.787807;-124.988556;;483.3
639.0;536.1;;;;;;;;;;;;;;1.2021241;-0.14221625;-0.12384411;;;;;483.3
639.0;536.1;;;;;;;;;;;;;;;;;-7.0307016;13.290812;-124.988556;;483.3
639.0;536.1;;;;;;;;;;;;;;1.3326212;-0.18439284;-0.2677694;;;;;483.3
701.0;581.4;;;;;;;;;;;;;;;;;3.6507769;-9.063997;-124.988556;;492.9
701.0;581.4;;;;;;;;;;;;;;1.4537797;-0.25165564;-0.5202185;;;;;492.9
701.0;581.4;;;;;;;;;;;;;;;;;10.0138855;-14.378033;-124.988556;;492.9
701.0;581.4;;;;;;;;;;;;;;1.5790887;-0.28998688;-0.7093722;;;;;492.9
701.0;581.4;;;;;;;;;;;;;;;;;4.589221;7.7097383;-124.988556;;502.6
701.0;581.4;;;;;;;;;;;;;;1.606006;-0.31501207;-0.65895563;;;;;502.6
701.0;581.4;;;;;;;;;;;;;;;;;-1.6365551;35.580765;-124.988556;;502.6
701.0;581.4;;;;;;;;;;;;;;1.4895474;-0.26978362;-0.43702507;;;;;502.6
701.0;581.4;;;;;;;;;;;;;;;;;3.746147;46.2241;-124.988556;;512.2
701.0;581.4;;;;;;;;;;;;;;1.3752251;-0.16028321;-0.27179784;;;;;512.2
701.0;581.4;;;;;;;;;;;;;;;;;13.4167;38.83862;-124.988556;;512.2
701.0;581.4;;;;;;;;;;;;;;1.4204535;-0.038331248;-0.23603015;;;;;512.2
701.0;596.5;;;;;;;;;;;;;;;;;17.422253;28.75225;-124.988556;;521.9
701.0;596.5;;;;;;;;;;;;;;1.5206763;0.084902495;-0.30695516;;;;;521.9
701.0;596.5;;;;;;;;;;;;;;;;;16.029848;29.953917;-124.988556;;521.9
701.0;596.5;;;;;;;;;;;;;;1.589404;0.2278512;-0.33088169;;;;;521.9
701.0;596.5;;;;;;;;;;;;;;;;;14.2941065;37.289803;-124.988556;;531.4
701.0;596.5;;;;;;;;;;;;;;1.5989257;0.35077974;-0.28266242;;;;;531.4
701.0;596.5;;;;;;;;;;;;;;;;;17.143772;40.337837;-124.988556;;531.4
701.0;596.5;;;;;;;;;;;;;;1.554857;0.46253854;-0.2202826;;;;;531.4
701.0;596.5;;;;;;;;;;;;;;;;;20.538958;35.935543;-124.988556;;541.0
701.0;596.5;;;;;;;;;;;;;;1.474105;0.5167394;-0.20569475;;;;;541.0
701.0;596.5;;;;;;;;;;;;;;;;;20.756401;30.037842;-124.988556;;541.0
701.0;596.5;;;;;;;;;;;;;;1.401471;0.53840756;-0.21820734;;;;;541.0
762.0;642.2;;;;;;;;;;;;;;;;;19.905697;27.64214;-124.988556;;550.7
762.0;642.2;;;;;;;;;;;;;;1.3501389;0.54646444;-0.21033357;;;;;550.7
762.0;642.2;;;;;;;;;;;;;;;;;20.405437;27.176733;-124.988556;;550.7
762.0;642.2;;;;;;;;;;;;;;1.3163854;0.5339518;-0.16217536;;;;;550.7
762.0;642.2;;;;;;;;;;;;;;;;;18.326365;24.243141;-124.988556;;560.4
762.0;642.2;;;;;;;;;;;;;;1.3177892;0.49092075;-0.11066011;;;;;560.4
762.0;642.2;;;;;;;;;;;;;;;;;14.465774;18.795588;-124.988556;;560.4
762.0;642.2;;;;;;;;;;;;;;1.3330485;0.44282356;-0.09869686;;;;;560.4
762.0;642.2;;;;;;;;;;;;;;;;;9.033479;17.09418;-124.988556;;570.0
762.0;642.2;;;;;;;;;;;;;;1.3494674;0.3598132;-0.12018189;;;;;570.0
762.0;642.2;;;;;;;;;;;;;;;;;3.6126287;21.767328;-124.988556;;570.0
762.0;642.2;;;;;;;;;;;;;;1.312479;0.25849178;-0.14001893;;;;;570.0
762.0;656.7;;;;;;;;;;;;;;;;;-1.3504441;30.117952;-124.988556;;579.6
762.0;656.7;;;;;;;;;;;;;;1.2421033;0.21674246;-0.16083254;;;;;579.6
762.0;656.7;;;;;;;;;;;;;;;;;-2.193518;38.251137;-124.98474;;579.6
762.0;656.7;;;;;;;;;;;;;;1.1321146;0.18695639;-0.1793878;;;;;579.6
762.0;656.7;;;;;;;;;;;;;;;;;-1.9302957;44.881283;-123.374886;;589.2
762.0;656.7;;;;;;;;;;;;;;1.035371;0.19196142;-0.14966278;;;;;589.2
762.0;656.7;;;;;;;;;;;;;;;;;-4.20011;48.013245;-117.286446;;589.2
762.0;656.7;;;;;;;;;;;;;;0.9146397;0.21430098;-0.07458724;;;;;589.2
762.0;656.7;;;;;;;;;;;;;;;;;-6.2944427;43.843655;-110.79363;;598.9
762.0;656.7;;;;;;;;;;;;;;0.7945189;0.25861385;0.0270394;;;;;598.9
762.0;656.7;;;;;;;;;;;;;;;;;-9.21659;30.606249;-102.30186;;598.9
762.0;656.7;;;;;;;;;;;;;;0.70345163;0.31708732;0.078127384;;;;;598.9
823.0;702.0;;;;;;;;;;;;;;;;;-16.090885;16.224403;-92.60841;;608.4
823.0;702.0;;;;;;;;;;;;;;0.66280097;0.33204138;0.07574694;;;;;608.4
823.0;702.0;;;;;;;;;;;;;;;;;-23.083437;6.0274057;-84.38368;;608.4
823.0;702.0;;;;;;;;;;;;;;0.6436354;0.29902035;0.085024565;;;;;608.4
823.0;702.0;;;;;;;;;;;;;;;;;-27.653584;-4.8486285;-78.344826;;617.9
823.0;702.0;;;;;;;;;;;;;;0.654561;0.26917326;0.066652425;;;;;617.9
823.0;702.0;;;;;;;;;;;;;;;;;-28.828547;-14.95407;-72.36701;;617.9
823.0;702.0;;;;;;;;;;;;;;0.6618244;0.24182867;0.0036622211;;;;;617.9
823.0;702.0;;;;;;;;;;;;;;;;;-27.901546;-19.482254;-66.65243;;627.6
823.0;702.0;;;;;;;;;;;;;;0.63734853;0.20844142;-0.028992584;;;;;627.6
823.0;702.0;;;;;;;;;;;;;;;;;-26.562548;-20.661032;-61.552017;;627.6
823.0;702.0;;;;;;;;;;;;;;0.6078066;0.17950988;-0.049073763;;;;;627.6
823.0;709.4;;;;;;;;;;;;;;;;;-24.792473;-18.929106;-55.917538;;637.3
823.0;709.4;;;;;;;;;;;;;;0.583697;0.15771966;-0.0634785;;;;;637.3
823.0;709.4;;;;;;;;;;;;;;;;;-22.92703;-14.0957365;-49.50865;;637.3
823.0;709.4;;;;;;;;;;;;;;0.5553758;0.15002899;-0.06164739;;;;;637.3
823.0;709.4;;;;;;;;;;;;;;;;;-21.38203;-8.957183;-42.56188;;646.9
823.0;709.4;;;;;;;;;;;;;;0.5390179;0.17529832;-0.032471694;;;;;646.9
823.0;709.4;;;;;;;;;;;;;;;;;-21.206549;-5.0737023;-35.809654;;646.9
823.0;709.4;;;;;;;;;;;;;;0.53096104;0.2252266;0.015442366;;;;;646.9
823.0;709.4;;;;;;;;;;;;;;;;;-22.8164;-2.5101473;-29.40077;;656.6
823.0;709.4;;;;;;;;;;;;;;0.5528733;0.24903104;0.06439406;;;;;656.6
823.0;709.4;;;;;;;;;;;;;;;;;-25.585955;-0.37766656;-23.499252;;656.6
823.0;709.4;;;;;;;;;;;;;;0.578814;0.24897;0.11279641;;;;;656.6
880.0;762.6;;;;;;;;;;;;;;;;;-29.309214;0.8087405;-18.627735;;666.2
880.0;762.6;;;;;;;;;;;;;;0.59797966;0.24640645;0.12836085;;;;;666.2
880.0;762.6;;;;;;;;;;;;;;;;;-34.00525;2.4109623;-13.939329;;666.2
880.0;762.6;;;;;;;;;;;;;;0.6037782;0.24756615;0.13525803;;;;;666.2
880.0;762.6;;;;;;;;;;;;;;;;;-40.143284;4.676962;-9.537035;;675.7
880.0;762.6;;;;;;;;;;;;;;0.5996887;0.24231696;0.13324381;;;;;675.7
880.0;762.6;;;;;;;;;;;;;;;;;-46.475876;8.033998;-5.500962;;675.7
880.0;762.6;;;;;;;;;;;;;;0.59071624;0.22235785;0.119754635;;;;;675.7
880.0;762.6;;;;;;;;;;;;;;;;;-50.77517;12.455366;-1.903592;;685.4
880.0;762.6;;;;;;;;;;;;;;0.5717338;0.20697653;0.096926786;;;;;685.4
880.0;762.6;;;;;;;;;;;;;;;;;-52.049316;17.178104;1.7357402;;685.4
880.0;762.6;;;;;;;;;;;;;;0.5569628;0.1939146;0.054994356;;;;;685.4
880.0;769.7;;;;;;;;;;;;;;;;;-50.37843;22.076328;5.668813;;695.0
880.0;769.7;;;;;;;;;;;;;;0.5501877;0.17029329;0.0054933317;;;;;695.0
880.0;769.7;;;;;;;;;;;;;;;;;-46.09821;26.947845;9.800256;;695.0
880.0;769.7;;;;;;;;;;;;;;0.5304117;0.13489181;-0.044068728;;;;;695.0
880.0;769.7;;;;;;;;;;;;;;;;;-40.066986;30.739769;13.706625;;704.6
880.0;769.7;;;;;;;;;;;;;;0.50843835;0.09625538;-0.09027375;;;;;704.6
880.0;769.7;;;;;;;;;;;;;;;;;-32.921844;32.96762;17.727438;;704.6
880.0;769.7;;;;;;;;;;;;;;0.4878689;0.0524308;-0.13342692;;;;;704.6
880.0;769.7;;;;;;;;;;;;;;;;;-25.967436;34.649952;21.485031;;714.3
880.0;769.7;;;;;;;;;;;;;;0.46143988;0.013489181;-0.1507004;;;;;714.3
880.0;769.7;;;;;;;;;;;;;;;;;-20.157475;35.309914;25.242622;;714.3
880.0;769.7;;;;;;;;;;;;;;0.43989378;-0.008789331;-0.14557329;;;;;714.3
944.0;822.6;;;;;;;;;;;;;;;;;-15.87344;34.527878;29.499954;;723.9
944.0;822.6;;;;;;;;;;;;;;0.42402416;-0.022156438;-0.12634663;;;;;723.9
944.0;822.6;;;;;;;;;;;;;;;;;-12.283701;32.78451;34.241768;;723.9
944.0;822.6;;;;;;;;;;;;;;0.4136479;-0.030213324;-0.09625538;;;;;723.9
944.0;822.6;;;;;;;;;;;;;;;;;-9.842219;30.465101;38.84625;;733.5
944.0;822.6;;;;;;;;;;;;;;0.40455335;-0.04571673;-0.065981016;;;;;733.5
944.0;822.6;;;;;;;;;;;;;;;;;-8.060701;26.440474;43.298138;;733.5
944.0;822.6;;;;;;;;;;;;;;0.41114536;-0.060060427;-0.048646506;;;;;733.5
944.0;822.6;;;;;;;;;;;;;;;;;-5.500962;21.843624;47.52495;;743.2
944.0;822.6;;;;;;;;;;;;;;0.4207892;-0.07324442;-0.037965026;;;;;743.2
944.0;822.6;;;;;;;;;;;;;;;;;-2.3232217;17.16666;51.20624;;743.2
944.0;822.6;;;;;;;;;;;;;;0.43391216;-0.07843257;-0.027527696;;;;;743.2
944.0;830.1;;;;;;;;;;;;;;;;;2.399518;11.722922;54.34965;;752.8
944.0;830.1;;;;;;;;;;;;;;0.4502701;-0.07739494;-0.022583697;;;;;752.8
944.0;830.1;;;;;;;;;;;;;;;;;9.044923;5.787072;57.02002;;752.8
944.0;830.1;;;;;;;;;;;;;;0.47114474;-0.08630635;-0.04156621;;;;;752.8
944.0;830.1;;;;;;;;;;;;;;;;;17.765587;1.392407;58.88165;;762.5
944.0;830.1;;;;;;;;;;;;;;0.48554948;-0.09308145;-0.05200354;;;;;762.5
944.0;830.1;;;;;;;;;;;;;;;;;28.675955;-3.5325174;59.572132;;762.5
944.0;830.1;;;;;;;;;;;;;;0.5075228;-0.084902495;-0.075014494;;;;;762.5
944.0;830.1;;;;;;;;;;;;;;;;;41.63869;-7.7707753;59.488205;;772.1
944.0;830.1;;;;;;;;;;;;;;0.5349895;-0.06671346;-0.10730308;;;;;772.1
944.0;830.1;;;;;;;;;;;;;;;;;54.441208;-10.43733;59.10291;;772.1
944.0;830.1;;;;;;;;;;;;;;0.558916;-0.035157323;-0.12665181;;;;;772.1
1001.0;883.0;;;;;;;;;;;;;;;;;67.281876;-12.775811;58.41243;;781.8
1001.0;883.0;;;;;;;;;;;;;;0.5778985;-0.010010071;-0.15466781;;;;;781.8
1001.0;883.0;;;;;;;;;;;;;;;;;80.79394;-13.183996;56.40202;;781.8
1001.0;883.0;;;;;;;;;;;;;;0.5979186;0.034669027;-0.16742454;;;;;781.8
1001.0;883.0;;;;;;;;;;;;;;;;;92.978455;-12.260812;53.670616;;791.4
1001.0;883.0;;;;;;;;;;;;;;0.6155583;0.084109016;-0.17523728;;;;;791.4
1001.0;883.0;;;;;;;;;;;;;;;;;104.13679;-11.013368;50.53102;;791.4
1001.0;883.0;;;;;;;;;;;;;;0.6290475;0.15021211;-0.16827907;;;;;791.4
1001.0;883.0;;;;;;;;;;;;;;;;;113.04819;-11.230811;48.56258;;801.0
1001.0;883.0;;;;;;;;;;;;;;0.6455886;0.21277505;-0.17401654;;;;;801.0
1001.0;883.0;;;;;;;;;;;;;;;;;119.09467;-11.566515;48.074284;;801.0
1001.0;883.0;;;;;;;;;;;;;;0.6649983;0.2912076;-0.18689536;;;;;801.0
1001.0;890.9;;;;;;;;;;;;;;;;;120.35737;-10.597552;49.050877;;810.7
1001.0;890.9;;;;;;;;;;;;;;0.67415386;0.32996613;-0.19806513;;;;;810.7
1001.0;890.9;;;;;;;;;;;;;;;;;120.44892;-7.7860346;48.886837;;810.7
1001.0;890.9;;;;;;;;;;;;;;0.6862392;0.40174565;-0.18451491;;;;;810.7
1001.0;890.9;;;;;;;;;;;;;;;;;116.67608;-4.6044803;50.008392;;820.3
1001.0;890.9;;;;;;;;;;;;;;0.7005829;0.48847926;-0.16278572;;;;;820.3
1001.0;890.9;;;;;;;;;;;;;;;;;111.67485;-2.887814;52.735985;;820.3
1001.0;890.9;;;;;;;;;;;;;;0.7029023;0.5274209;-0.15161596;;;;;820.3
1001.0;890.9;;;;;;;;;;;;;;;;;107.06657;-2.9602954;54.151283;;829.9
1001.0;890.9;;;;;;;;;;;;;;0.71321756;0.62428665;-0.13641773;;;;;829.9
1001.0;890.9;;;;;;;;;;;;;;;;;97.74316;-2.97174;57.493057;;829.9
1001.0;890.9;;;;;;;;;;;;;;0.699057;0.65504926;-0.13721122;;;;;829.9
1059.0;943.4;;;;;;;;;;;;;;;;;87.10746;-2.6741846;61.025574;;839.5
1059.0;943.4;;;;;;;;;;;;;;0.67030853;0.6624958;-0.13397625;;;;;839.5
1059.0;943.4;;;;;;;;;;;;;;;;;72.97739;-2.1019626;63.65017;;839.5
1059.0;943.4;;;;;;;;;;;;;;0.63954586;0.6499832;-0.12707907;;;;;839.5
1059.0;943.4;;;;;;;;;;;;;;;;;57.584614;-1.9684439;65.40117;;849.0
1059.0;943.4;;;;;;;;;;;;;;0.6009705;0.6047548;-0.11078219;;;;;849.0
1059.0;943.4;;;;;;;;;;;;;;;;;41.791283;-2.582629;64.88617;;849.0
1059.0;943.4;;;;;;;;;;;;;;0.5686819;0.5798517;-0.07892086;;;;;849.0
1059.0;943.4;;;;;;;;;;;;;;;;;24.75814;-4.341258;64.08124;;858.5
1059.0;943.4;;;;;;;;;;;;;;0.5480514;0.5518357;-0.05505539;;;;;858.5
1059.0;943.4;;;;;;;;;;;;;;;;;7.942442;-5.767998;63.074127;;858.5
1059.0;943.4;;;;;;;;;;;;;;0.53260905;0.5221717;-0.045960877;;;;;858.5
1059.0;944.2;;;;;;;;;;;;;;;;;-7.354961;-6.363109;61.010315;;868.1
1059.0;944.2;;;;;;;;;;;;;;0.5256508;0.5008087;-0.04687643;;;;;868.1
1059.0;944.2;;;;;;;;;;;;;;;;;-19.54329;-4.902035;58.45439;;868.1
1059.0;944.2;;;;;;;;;;;;;;0.519364;0.48634297;-0.036194954;;;;;868.1
1059.0;944.2;;;;;;;;;;;;;;;;;-28.03125;-3.6584065;56.081573;;877.6
1059.0;944.2;;;;;;;;;;;;;;0.525956;0.47938475;-0.030762658;;;;;877.6
1059.0;944.2;;;;;;;;;;;;;;;;;-32.334362;-3.6317027;54.177986;;877.6
1059.0;944.2;;;;;;;;;;;;;;0.5357219;0.48384044;-0.047975097;;;;;877.6
1059.0;944.2;;;;;;;;;;;;;;;;;-33.70388;-4.993591;52.6635;;887.3
1059.0;944.2;;;;;;;;;;;;;;0.5593432;0.49311808;-0.08752709;;;;;887.3
1059.0;944.2;;;;;;;;;;;;;;;;;-33.6314;-6.382183;51.293983;;887.3
1059.0;944.2;;;;;;;;;;;;;;0.578814;0.50489825;-0.12164678;;;;;887.3
1121.0;1003.7;;;;;;;;;;;;;;;;;-32.26951;-8.369701;49.909206;;896.9
1121.0;1003.7;;;;;;;;;;;;;;0.60243535;0.5096591;-0.14227729;;;;;896.9
1121.0;1003.7;;;;;;;;;;;;;;;;;-29.49614;-10.24659;48.921173;;896.9
1121.0;1003.7;;;;;;;;;;;;;;0.6384472;0.5044099;-0.15448469;;;;;896.9
1121.0;1003.7;;;;;;;;;;;;;;;;;-25.467695;-11.425366;48.32606;;906.5
1121.0;1003.7;;;;;;;;;;;;;;0.6740318;0.48713645;-0.14282663;;;;;906.5
1121.0;1003.7;;;;;;;;;;;;;;;;;-20.79455;-13.2107;48.066654;;906.5
1121.0;1003.7;;;;;;;;;;;;;;0.7202979;0.45960876;-0.12970367;;;;;906.5
1121.0;1003.7;;;;;;;;;;;;;;;;;-15.808588;-15.331736;48.29173;;916.1
1121.0;1003.7;;;;;;;;;;;;;;0.77340007;0.41212195;-0.11517686;;;;;916.1
1121.0;1003.7;;;;;;;;;;;;;;;;;-10.03296;-16.487625;48.8258;;916.1
1121.0;1003.7;;;;;;;;;;;;;;0.81673634;0.35401472;-0.083254494;;;;;916.1
1121.0;1004.9;;;;;;;;;;;;;;;;;-3.9178138;-16.624958;49.344616;;925.7
1121.0;1004.9;;;;;;;;;;;;;;0.85329753;0.30860317;-0.03521836;;;;;925.7
1121.0;1004.9;;;;;;;;;;;;;;;;;2.5864437;-15.6788845;49.733723;;925.7
1121.0;1004.9;;;;;;;;;;;;;;0.8773461;0.2702109;0.015381329;;;;;925.7
1121.0;1004.9;;;;;;;;;;;;;;;;;8.651998;-14.507736;50.38606;;935.3
1121.0;1004.9;;;;;;;;;;;;;;0.89742726;0.24463637;0.0590228;;;;;935.3
1121.0;1004.9;;;;;;;;;;;;;;;;;13.30607;-12.947477;51.05365;;935.3
1121.0;1004.9;;;;;;;;;;;;;;0.9171423;0.22144231;0.07818842;;;;;935.3
1121.0;1004.9;;;;;;;;;;;;;;;;;16.041292;-9.754478;51.419872;;945.0
1121.0;1004.9;;;;;;;;;;;;;;0.9230018;0.20599994;0.089236125;;;;;945.0
1121.0;1004.9;;;;;;;;;;;;;;;;;17.639698;-5.962554;51.641132;;945.0
1121.0;1004.9;;;;;;;;;;;;;;0.9355144;0.18329416;0.079226054;;;;;945.0
1181.0;1071.8;;;;;;;;;;;;;;;;;20.611439;5.752739;51.99591;;954.7
1181.0;1071.8;;;;;;;;;;;;;;1.0397046;0.16284677;0.23377179;;;;;954.7
1181.0;1071.8;;;;;;;;;;;;;;;;;26.177252;12.581255;52.96106;;954.7
1181.0;1071.8;;;;;;;;;;;;;;1.1240578;0.17481002;0.3554796;;;;;954.7
1181.0;1071.8;;;;;;;;;;;;;;;;;29.976805;-14.881589;53.12128;;964.3
1181.0;1071.8;;;;;;;;;;;;;;1.2978911;0.2428663;0.10187078;;;;;964.3
1181.0;1071.8;;;;;;;;;;;;;;;;;46.67806;-41.180912;51.374096;;964.3
1181.0;1071.8;;;;;;;;;;;;;;1.6418347;0.36774805;-0.15363018;;;;;964.3
1181.0;1071.8;;;;;;;;;;;;;;;;;77.0745;-34.115875;48.24595;;974.0
1181.0;1071.8;;;;;;;;;;;;;;1.9335307;0.48579362;-0.20026246;;;;;974.0
1181.0;1071.8;;;;;;;;;;;;;;;;;107.66549;-15.915403;45.484024;;974.0
1181.0;1071.8;;;;;;;;;;;;;;1.9417096;0.5648976;-0.19763787;;;;;974.0
1181.0;1072.5;;;;;;;;;;;;;;;;;123.55037;-14.4047365;43.591877;;983.5
1181.0;1072.5;;;;;;;;;;;;;;1.7170935;0.65395063;-0.34272286;;;;;983.5
1181.0;1072.5;;;;;;;;;;;;;;;;;121.15466;-11.852626;39.81521;;983.5
1181.0;1072.5;;;;;;;;;;;;;;1.4385204;0.75624865;-0.29700613;;;;;983.5
1181.0;1072.5;;;;;;;;;;;;;;;;;94.59593;-9.189886;36.507767;;993.2
1181.0;1072.5;;;;;;;;;;;;;;1.3182775;0.7414167;-0.07507554;;;;;993.2
1181.0;1072.5;;;;;;;;;;;;;;;;;55.890835;-7.763146;34.829247;;993.2
1181.0;1072.5;;;;;;;;;;;;;;1.2662129;0.6400342;0.13068026;;;;;993.2
1181.0;1072.5;;;;;;;;;;;;;;;;;20.504623;-5.138554;34.249397;;1002.9
1181.0;1072.5;;;;;;;;;;;;;;1.2354503;0.5334025;0.20783105;;;;;1002.9
1181.0;1072.5;;;;;;;;;;;;;;;;;-3.7614062;2.6169622;33.70388;;1002.9
1181.0;1072.5;;;;;;;;;;;;;;1.2128055;0.35914183;0.1909238;;;;;1002.9
1183.0;1124.6;;;;;;;;;;;;;;;;;-12.928404;6.088443;31.491287;;1012.6
1183.0;1124.6;;;;;;;;;;;;;;1.2398449;0.27423933;0.123538926;;;;;1012.6
1183.0;1124.6;;;;;;;;;;;;;;;;;-11.162145;-1.1558886;27.550583;;1012.6
1183.0;1124.6;;;;;;;;;;;;;;1.2867824;0.29145175;-0.05468917;;;;;1012.6
1183.0;1124.6;;;;;;;;;;;;;;;;;-4.7875915;-16.018402;23.483994;;1022.3
1183.0;1124.6;;;;;;;;;;;;;;1.3100375;0.33887753;-0.3162328;;;;;1022.3
1183.0;1124.6;;;;;;;;;;;;;;;;;-1.3962218;-30.644398;18.555254;;1022.3
1183.0;1124.6;;;;;;;;;;;;;;1.3132725;0.3963744;-0.5247963;;;;;1022.3
1183.0;1124.6;;;;;;;;;;;;;;;;;-3.1472213;-34.161655;9.681997;;1031.8
1183.0;1124.6;;;;;;;;;;;;;;1.248085;0.48042238;-0.57271034;;;;;1031.8
1183.0;1124.6;;;;;;;;;;;;;;;;;-6.9963684;-28.660696;-3.0671103;;1031.8
1183.0;1124.6;;;;;;;;;;;;;;1.1200293;0.59114355;-0.4738914;;;;;1031.8
1183.0;1129.1;;;;0.0;0.0;0.0;;;;;;;;;;;;;;;
1183.0;1129.1;;;;-0.2026749;0.5123177;0.24070361;;;;;;;;;;;;;;;
1183.0;1129.1;;;;-0.5785714;1.4740449;0.5874787;;;;;;;;;;;;;;;
1183.0;1129.1;;;;-0.580597;1.4981309;0.5714722;;;;;;;;;;;;;;;
1183.0;1129.1;;;;-0.5733643;1.4943429;0.55774695;;;;;;;;;;;;;;;
1240.0;1132.1;;;;;;;;;;;;;;;;;-11.98996;-26.860104;-14.442884;;1041.5
1240.0;1132.1;;;;;;;;;;;;;;1.0394604;0.6473586;-0.3497421;;;;;1041.5
1240.0;1132.1;;;;;;;;;;;;;;;;;-16.197699;-35.073395;-19.203773;;1041.5
1240.0;1132.1;;;;;;;;;;;;;;1.0610676;0.62990206;-0.33851132;;;;;1041.5
1240.0;1132.1;;;;;;;;;;;;;;;;;-17.719809;-42.458878;-19.821772;;1051.2
1240.0;1132.1;;;;;;;;;;;;;;1.1423688;0.5868709;-0.44495988;;;;;1051.2
1240.0;1132.1;;;;;;;;;;;;;;;;;-20.611439;-36.618397;-19.27244;;1051.2
1240.0;1132.1;;;;;;;;;;;;;;1.1860104;0.5482345;-0.549089;;;;;1051.2
1240.0;1132.1;;;;;;;;;;;;;;;;;-25.017548;-18.745995;-18.158514;;1060.9
1240.0;1132.1;;;;;;;;;;;;;;1.146031;0.45991394;-0.56593525;;;;;1060.9
1240.0;1132.1;;;;;;;;;;;;;;;;;-27.947325;-4.993591;-15.503403;;1060.9
1240.0;1132.1;;;;;;;;;;;;;;1.0612507;0.33857235;-0.54878384;;;;;1060.9
1240.0;1138.9;;;;-0.5651856;1.490841;0.5425759;;;;;;;;;;;;;;;
1240.0;1138.9;;;;-0.5563889;1.4870416;0.5289002;;;;;;;;;;;;;;;
1240.0;1138.9;;;;-0.5459443;1.4832078;0.51638037;;;;;;;;;;;;;;;
1240.0;1138.9;;;;-0.53659827;1.4796296;0.50412375;;;;;;;;;;;;;;;
1240.0;1138.9;;;;-0.526413;1.4767495;0.49337393;;;;;;;;;;;;;;;
1240.0;1140.3;57621;57453;10880;;;;;;;;;;;;;;;;;;
1242.0;1148.9;;;;-0.51655585;1.4740335;0.48216254;;;;;;;;;;;;;;;
1242.0;1148.9;;;;-0.5078164;1.4703561;0.47003943;;;;;;;;;;;;;;;
1242.0;1148.9;;;;-0.50010306;1.4671785;0.45809942;;;;;;;;;;;;;;;
1242.0;1148.9;;;;-0.4938317;1.4645349;0.4481774;;;;;;;;;;;;;;;
1242.0;1148.9;;;;-0.48837286;1.4606782;0.43793494;;;;;;;;;;;;;;;
1242.0;1159.1;;;;-0.4836617;1.4572488;0.42973334;;;;;;;;;;;;;;;
1242.0;1159.1;;;;-0.4797364;1.4534341;0.4221688;;;;;;;;;;;;;;;
1242.0;1159.1;;;;-0.4766236;1.4491006;0.41641623;;;;;;;;;;;;;;;
1242.0;1159.1;;;;-0.47557074;1.4453393;0.41278464;;;;;;;;;;;;;;;
1242.0;1159.1;;;;-0.47528464;1.4396783;0.40874106;;;;;;;;;;;;;;;
1242.0;1160.4;73803;73835;10871;;;;;;;;;;;;;;;;;;
1242.0;1166.8;;;;;;;;;;;;;0;;;;;;;;
1242.0;1166.8;;;;;;;;;;;;;0;;;;;;;;
1242.0;1166.8;;;;;;;;;;;;;-1;;;;;;;;
1242.0;1166.8;;;;;;;;;;;;;-3;;;;;;;;
1242.0;1166.8;;;;;;;;;;;;;-4;;;;;;;;
1242.0;1169.2;;;;-0.47261816;1.4315988;0.4042359;;;;;;;;;;;;;;;
1242.0;1169.2;;;;-0.46926886;1.4211427;0.39980322;;;;;;;;;;;;;;;
1242.0;1169.2;;;;-0.46632773;1.4090577;0.39596945;;;;;;;;;;;;;;;
1242.0;1169.2;;;;-0.4645577;1.3944284;0.39386374;;;;;;;;;;;;;;;
1242.0;1169.2;;;;-0.464428;1.3792115;0.39290625;;;;;;;;;;;;;;;
1299.0;1179.3;;;;-0.46549994;1.3635103;0.39154822;;;;;;;;;;;;;;;
1299.0;1179.3;;;;-0.4666558;1.3466989;0.3903237;;;;;;;;;;;;;;;
1299.0;1179.3;;;;-0.4680596;1.3292657;0.389412;;;;;;;;;;;;;;;
1299.0;1179.3;;;;-0.46963888;1.3099977;0.38712698;;;;;;;;;;;;;;;
1299.0;1179.3;;;;-0.47084433;1.2894822;0.38538748;;;;;;;;;;;;;;;
1299.0;1180.7;90225;90230;10873;;;;;;;;;;;;;;;;;;
1299.0;1189.4;;;;-0.47277838;1.2696038;0.3855248;;;;;;;;;;;;;;;
1299.0;1189.4;;;;-0.4761086;1.2498552;0.38613135;;;;;;;;;;;;;;;
1299.0;1189.4;;;;-0.48032385;1.2304155;0.38576895;;;;;;;;;;;;;;;
1299.0;1189.4;;;;-0.4813462;1.2102014;0.38656622;;;;;;;;;;;;;;;
1299.0;1189.4;;;;-0.48220068;1.191517;0.3852921;;;;;;;;;;;;;;;
1299.0;1199.4;;;;-0.48500067;1.175068;0.3833161;;;;;;;;;;;;;;;
1299.0;1199.4;;;;-0.4865647;1.157467;0.38166052;;;;;;;;;;;;;;;
1299.0;1199.4;;;;-0.4895783;1.1400605;0.38182455;;;;;;;;;;;;;;;
1299.0;1199.4;;;;-0.49187094;1.122883;0.3834687;;;;;;;;;;;;;;;
1299.0;1199.4;;;;-0.49237067;1.1057702;0.3821221;;;;;;;;;;;;;;;
1299.0;1200.8;106605;106639;10864;;;;;;;;;;;;;;;;;;
1299.0;1207.1;;;;;;;;;;;;;2;;;;;;;;
1299.0;1207.1;;;;;;;;;;;;;-17;;;;;;;;
1299.0;1207.1;;;;;;;;;;;;;-26;;;;;;;;
1299.0;1207.1;;;;;;;;;;;;;29;;;;;;;;
1299.0;1207.1;;;;;;;;;;;;;-20;;;;;;;;
1300.0;1209.3;;;;-0.49143225;1.0904466;0.37931067;;;;;;;;;;;;;;;
1300.0;1209.3;;;;-0.4883843;1.0754815;0.37771612;;;;;;;;;;;;;;;
1300.0;1209.3;;;;-0.48611075;1.0613366;0.37676626;;;;;;;;;;;;;;;
1300.0;1209.3;;;;-0.4851647;1.0484086;0.37620932;;;;;;;;;;;;;;;
1300.0;1209.3;;;;-0.48268896;1.034401;0.37341312;;;;;;;;;;;;;;;
1300.0;1219.3;;;;-0.48110205;1.0225335;0.37194064;;;;;;;;;;;;;;;
1300.0;1219.3;;;;-0.4820252;1.0113603;0.3711281;;;;;;;;;;;;;;;
1300.0;1219.3;;;;-0.4827767;0.9985124;0.36827472;;;;;;;;;;;;;;;
1300.0;1219.3;;;;-0.48265463;0.98539746;0.36726;;;;;;;;;;;;;;;
1300.0;1219.3;;;;-0.4820748;0.9739038;0.36649325;;;;;;;;;;;;;;;
1300.0;1220.8;123035;123074;10883;;;;;;;;;;;;;;;;;;
1300.0;1229.4;;;;-0.48064047;0.9633485;0.3653107;;;;;;;;;;;;;;;
1300.0;1229.4;;;;-0.47790533;0.9534265;0.36460498;;;;;;;;;;;;;;;
1300.0;1229.4;;;;-0.47341925;0.9435159;0.36251453;;;;;;;;;;;;;;;
1300.0;1229.4;;;;-0.4690209;0.93394864;0.36082843;;;;;;;;;;;;;;;
1300.0;1229.4;;;;-0.4652596;0.92414486;0.35857013;;;;;;;;;;;;;;;
1300.0;1239.5;;;;-0.46090704;0.91412365;0.35600665;;;;;;;;;;;;;;;
1300.0;1239.5;;;;-0.45667654;0.90365994;0.35263065;;;;;;;;;;;;;;;
1300.0;1239.5;;;;-0.45263296;0.8932954;0.34962466;;;;;;;;;;;;;;;
1300.0;1239.5;;;;-0.44887167;0.88263714;0.34557346;;;;;;;;;;;;;;;
1300.0;1239.5;;;;-0.4457093;0.8718606;0.34089664;;;;;;;;;;;;;;;
1303.0;1241.0;139383;139447;10882;;;;;;;;;;;;;;;;;;
1303.0;1245.2;;;;;;;;;;;;;;;;;-29.416029;0.79348123;-13.340404;;1070.6
1303.0;1245.2;;;;;;;;;;;;;;1.0154119;0.2586749;-0.53822446;;;;;1070.6
1303.0;1245.2;;;;;;;;;;;;;;;;;-28.778955;5.1118503;-11.810663;;1070.6
1303.0;1245.2;;;;;;;;;;;;;;0.9189734;0.21790215;-0.4788354;;;;;1070.6
1303.0;1245.2;;;;;;;;;;;;;;;;;-27.527695;0.7248146;-10.0177;;1080.1
1303.0;1245.2;;;;;;;;;;;;;;0.8756981;0.16345714;-0.47285378;;;;;1080.1
1303.0;1245.2;;;;;;;;;;;;;;;;;-25.135807;-5.1080356;-8.411665;;1080.1
1303.0;1245.2;;;;;;;;;;;;;;0.87313455;0.14600055;-0.47425765;;;;;1080.1
1303.0;1245.2;;;;;;;;;;;;;;;;;-24.342327;-6.5424056;-6.6415906;;1089.8
1303.0;1245.2;;;;;;;;;;;;;;0.8674581;0.15533921;-0.38966033;;;;;1089.8
1303.0;1245.2;;;;;;;;;;;;;;;;;-23.419142;-11.379589;-3.8834803;;1089.8
1303.0;1245.2;;;;;;;;;;;;;;0.9221473;0.19312114;-0.33875546;;;;;1089.8
1304.0;1246.1;;;;;;;;;;;;;;;;;-21.393476;-19.38307;0.21362957;;1099.5
1304.0;1246.1;;;;;;;;;;;;;;1.0499588;0.23419905;-0.37659842;;;;;1099.5
1304.0;1246.1;;;;;;;;;;;;;;;;;-16.933958;-26.08951;5.203406;;1099.5
1304.0;1246.1;;;;;;;;;;;;;;1.2121341;0.28760645;-0.43617055;;;;;1099.5
1304.0;1246.1;;;;;;;;;;;;;;;;;-11.944181;-28.515732;9.933775;;1109.1
1304.0;1246.1;;;;;;;;;;;;;;1.3869442;0.3526719;-0.4951323;;;;;1109.1
1304.0;1246.1;;;;;;;;;;;;;;;;;-11.169774;-22.644733;13.050478;;1109.1
1304.0;1246.1;;;;;;;;;;;;;;1.5133518;0.42793053;-0.5085604;;;;;1109.1
1304.0;1246.1;;;;;;;;;;;;;;;;;-14.507736;-13.1801815;14.84344;;1118.7
1304.0;1246.1;;;;;;;;;;;;;;1.5627918;0.4828028;-0.43995485;;;;;1118.7
1304.0;1246.1;;;;;;;;;;;;;;;;;-18.017365;-8.754997;16.636404;;1118.7
1304.0;1246.1;;;;;;;;;;;;;;1.5021821;0.49751273;-0.37171546;;;;;1118.7
1304.0;1246.7;;;;;;;;;;;;;;;;;-20.084993;-9.323405;18.967255;;1128.4
1304.0;1246.7;;;;;;;;;;;;;;1.3762016;0.44825587;-0.30854213;;;;;1128.4
1304.0;1246.7;;;;;;;;;;;;;;;;;-21.702477;-13.946959;20.451216;;1128.4
1304.0;1246.7;;;;;;;;;;;;;;1.2887967;0.37684256;-0.24726096;;;;;1128.4
1304.0;1246.7;;;;;;;;;;;;;;;;;-21.83981;-18.883327;21.217995;;1138.1
1304.0;1246.7;;;;;;;;;;;;;;1.2419202;0.29670095;-0.19879757;;;;;1138.1
1304.0;1246.7;;;;;;;;;;;;;;;;;-19.898067;-20.546587;21.320993;;1138.1
1304.0;1246.7;;;;;;;;;;;;;;1.2230598;0.22644734;-0.16217536;;;;;1138.1
1304.0;1246.7;;;;;;;;;;;;;;;;;-16.193884;-19.520401;21.126438;;1147.8
1304.0;1246.7;;;;;;;;;;;;;;1.2128665;0.17554247;-0.1391644;;;;;1147.8
1304.0;1246.7;;;;;;;;;;;;;;;;;-10.887479;-19.188513;21.256142;;1147.8
1304.0;1246.7;;;;;;;;;;;;;;1.2024293;0.15222633;-0.1342204;;;;;1147.8
1307.0;1247.2;;;;;;;;;;;;;86;;;;;;;;
1307.0;1247.2;;;;;;;;;;;;;59;;;;;;;;
1307.0;1247.2;;;;;;;;;;;;;-100;;;;;;;;
1307.0;1247.2;;;;;;;;;;;;;553;;;;;;;;
1307.0;1247.2;;;;;;;;;;;;;-207;;;;;;;;
1307.0;1247.6;;;;;;;;;;;;;;;;;-5.386517;-20.203253;22.255623;;1157.5
1307.0;1247.6;;;;;;;;;;;;;;1.2057253;0.14758751;-0.14752647;;;;;1157.5
1307.0;1247.6;;;;;;;;;;;;;;;;;-1.0948515;-20.47792;23.922697;;1157.5
1307.0;1247.6;;;;;;;;;;;;;;1.1984009;0.15924558;-0.14111759;;;;;1157.5
1307.0;1247.6;;;;;;;;;;;;;;;;;1.0338145;-20.725883;26.074251;;1167.0
1307.0;1247.6;;;;;;;;;;;;;;1.1850337;0.16937773;-0.15247047;;;;;1167.0
1307.0;1247.6;;;;;;;;;;;;;;;;;1.0567034;-19.299143;28.695028;;1167.0
1307.0;1247.6;;;;;;;;;;;;;;1.1595813;0.17371136;-0.16937773;;;;;1167.0
1307.0;1247.6;;;;;;;;;;;;;;;;;-0.65233314;-15.881069;31.311993;;1176.7
1307.0;1247.6;;;;;;;;;;;;;;1.1139866;0.18012024;-0.17011017;;;;;1176.7
1307.0;1247.6;;;;;;;;;;;;;;;;;-3.3951843;-12.680441;33.749657;;1176.7
1307.0;1247.6;;;;;;;;;;;;;;1.0774865;0.18262276;-0.15411848;;;;;1176.7
1307.0;1249.3;;;;-0.44423681;0.86091626;0.33769992;;;;;;;;;;;;;;;
1307.0;1249.3;;;;-0.442627;0.84993756;0.33428577;;;;;;;;;;;;;;;
1307.0;1249.3;;;;-0.44027716;0.8388902;0.33139423;;;;;;;;;;;;;;;
1307.0;1249.3;;;;-0.43843085;0.8281785;0.32833102;;;;;;;;;;;;;;;
1307.0;1249.3;;;;-0.43563086;0.8189889;0.32634357;;;;;;;;;;;;;;;
1359.0;1259.2;;;;-0.4323197;0.8093225;0.32345966;;;;;;;;;;;;;;;
1359.0;1259.2;;;;-0.42836004;0.79976285;0.3205872;;;;;;;;;;;;;;;
1359.0;1259.2;;;;-0.4247437;0.79055035;0.31785586;;;;;;;;;;;;;;;
1359.0;1259.2;;;;-0.42091757;0.7803651;0.31557086;;;;;;;;;;;;;;;
1359.0;1259.2;;;;-0.41685492;0.77035534;0.3123627;;;;;;;;;;;;;;;
1359.0;1260.7;155861;155832;10888;;;;;;;;;;;;;;;;;;
1359.0;1269.2;;;;-0.41346747;0.76065457;0.3109055;;;;;;;;;;;;;;;
1359.0;1269.2;;;;-0.40920264;0.7506105;0.30968478;;;;;;;;;;;;;;;
1359.0;1269.2;;;;-0.4054795;0.7404595;0.3073769;;;;;;;;;;;;;;;
1359.0;1269.2;;;;-0.40185934;0.7303849;0.3043976;;;;;;;;;;;;;;;
1359.0;1269.2;;;;-0.3998986;0.7201882;0.30175403;;;;;;;;;;;;;;;
1359.0;1279.0;;;;-0.39809424;0.71023566;0.30060962;;;;;;;;;;;;;;;
1359.0;1279.0;;;;-0.3955918;0.6996499;0.29872897;;;;;;;;;;;;;;;
1359.0;1279.0;;;;-0.39331442;0.68983465;0.2973328;;;;;;;;;;;;;;;
1359.0;1279.0;;;;-0.39092642;0.6804696;0.29576495;;;;;;;;;;;;;;;
1359.0;1279.0;;;;-0.38852698;0.67062765;0.29389194;;;;;;;;;;;;;;;
1359.0;1280.6;172238;172227;10888;;;;;;;;;;;;;;;;;;
1359.0;1287.0;;;;;;;;;;;;;-1887;;;;;;;;
1359.0;1287.0;;;;;;;;;;;;;587;;;;;;;;
1359.0;1287.0;;;;;;;;;;;;;3982;;;;;;;;
1359.0;1287.0;;;;;;;;;;;;;-2213;;;;;;;;
1359.0;1287.0;;;;;;;;;;;;;-21114;;;;;;;;
1361.0;1289.1;;;;-0.38605124;0.6606217;0.2919388;;;;;;;;;;;;;;;
1361.0;1289.1;;;;-0.38349158;0.6511956;0.29004672;;;;;;;;;;;;;;;
1361.0;1289.1;;;;-0.3810349;0.6414185;0.28826907;;;;;;;;;;;;;;;
1361.0;1289.1;;;;-0.37794882;0.63190466;0.28582767;;;;;;;;;;;;;;;
1361.0;1289.1;;;;-0.37462237;0.62229544;0.2835274;;;;;;;;;;;;;;;
1361.0;1299.2;;;;-0.3707123;0.6128426;0.2823601;;;;;;;;;;;;;;;
1361.0;1299.2;;;;-0.36867526;0.60470587;0.2807236;;;;;;;;;;;;;;;
1361.0;1299.2;;;;-0.36316302;0.597313;0.27863696;;;;;;;;;;;;;;;
1361.0;1299.2;;;;-0.3498688;0.58528906;0.2817116;;;;;;;;;;;;;;;
1361.0;1299.2;;;;-0.3478394;0.57742316;0.2776833;;;;;;;;;;;;;;;
1361.0;1300.9;188683;188471;10893;;;;;;;;;;;;;;;;;;
1361.0;1305.5;;;;;;;;;;;;;;;;;-6.1380353;-10.235145;35.42436;;1186.4
1361.0;1305.5;;;;;;;;;;;;;;1.0544755;0.18726158;-0.14209418;;;;;1186.4
1361.0;1305.5;;;;;;;;;;;;;;;;;-8.674886;-7.6067386;36.22547;;1186.4
1361.0;1305.5;;;;;;;;;;;;;;1.0348216;0.19476913;-0.13434248;;;;;1186.4
1361.0;1305.5;;;;;;;;;;;;;;;;;-10.963775;-4.3755913;36.168247;;1196.1
1361.0;1305.5;;;;;;;;;;;;;;1.0185858;0.20398572;-0.1267739;;;;;1196.1
1361.0;1305.5;;;;;;;;;;;;;;;;;-12.768181;-1.3199255;35.55406;;1196.1
1361.0;1305.5;;;;;;;;;;;;;;0.99826044;0.21350749;-0.12451552;;;;;1196.1
1361.0;1305.5;;;;;;;;;;;;;;;;;-13.927884;1.8196661;35.19547;;1205.6
1361.0;1305.5;;;;;;;;;;;;;;0.97036654;0.21527757;-0.12555315;;;;;1205.6
1361.0;1305.5;;;;;;;;;;;;;;;;;-13.855403;5.1118503;35.031433;;1205.6
1361.0;1305.5;;;;;;;;;;;;;;0.9335002;0.20563371;-0.13055818;;;;;1205.6
1362.0;1306.3;;;;;;;;;;;;;;;;;-12.558367;8.064516;34.95132;;1215.2
1362.0;1306.3;;;;;;;;;;;;;;0.895291;0.20068972;-0.13031404;;;;;1215.2
1362.0;1306.3;;;;;;;;;;;;;;;;;-10.410626;10.494553;34.867397;;1215.2
1362.0;1306.3;;;;;;;;;;;;;;0.85439616;0.1944029;-0.12585834;;;;;1215.2
1362.0;1306.3;;;;;;;;;;;;;;;;;-7.511368;11.860256;34.737694;;1224.8
1362.0;1306.3;;;;;;;;;;;;;;0.81551564;0.1887875;-0.11890011;;;;;1224.8
1362.0;1306.3;;;;;;;;;;;;;;;;;-4.142888;13.050478;34.478283;;1224.8
1362.0;1306.3;;;;;;;;;;;;;;0.7735832;0.19196142;-0.10419019;;;;;1224.8
1362.0;1306.3;;;;;;;;;;;;;;;;;-0.7477035;14.187292;33.65429;;1234.5
1362.0;1306.3;;;;;;;;;;;;;;0.72078615;0.19257179;-0.08545183;;;;;1234.5
1362.0;1306.3;;;;;;;;;;;;;;;;;2.6245918;14.168218;32.216103;;1234.5
1362.0;1306.3;;;;;;;;;;;;;;0.6715903;0.20337535;-0.06848354;;;;;1234.5
1362.0;1309.2;;;;-0.3455086;0.57074744;0.2640114;;;;;;;;;;;;;;;
1362.0;1309.2;;;;-0.34134296;0.5587502;0.2481232;;;;;;;;;;;;;;;
1362.0;1309.2;;;;-0.34427264;0.5462571;0.24849322;;;;;;;;;;;;;;;
1362.0;1309.2;;;;-0.34412387;0.53270346;0.2583504;;;;;;;;;;;;;;;
1362.0;1309.2;;;;-0.33940127;0.5216065;0.26395038;;;;;;;;;;;;;;;
1362.0;1319.3;;;;-0.33461764;0.5133973;0.2592316;;;;;;;;;;;;;;;
1362.0;1319.3;;;;-0.33041766;0.50580984;0.24820712;;;;;;;;;;;;;;;
1362.0;1319.3;;;;-0.32690814;0.4968682;0.24108508;;;;;;;;;;;;;;;
1362.0;1319.3;;;;-0.32456973;0.48821265;0.23856738;;;;;;;;;;;;;;;
1362.0;1319.3;;;;-0.32253268;0.48009115;0.23648837;;;;;;;;;;;;;;;
1418.0;1320.1;;;;;;;;;;;;;;;;;4.6197395;12.936033;30.18662;;1244.1
1418.0;1320.1;;;;;;;;;;;;;;0.6339305;0.21790215;-0.06762902;;;;;1244.1
1418.0;1320.1;;;;;;;;;;;;;;;;;5.4971466;11.211737;27.909176;;1244.1
1418.0;1320.1;;;;;;;;;;;;;;0.59938353;0.23761712;-0.06732383;;;;;1244.1
1418.0;1320.1;;;;;;;;;;;;;;;;;5.767998;9.369183;25.677511;;1253.6
1418.0;1320.1;;;;;;;;;;;;;;0.5742973;0.26313058;-0.06122013;;;;;1253.6
1418.0;1320.1;;;;;;;;;;;;;;;;;5.1347394;7.7135534;23.319956;;1253.6
1418.0;1320.1;;;;;;;;;;;;;;0.553911;0.28876615;-0.052735984;;;;;1253.6
1418.0;1320.1;;;;;;;;;;;;;;;;;4.7418137;6.0197763;21.149328;;1263.3
1418.0;1320.1;;;;;;;;;;;;;;0.5381634;0.31116673;-0.03991821;;;;;1263.3
1418.0;1320.1;;;;;;;;;;;;;;;;;4.875332;3.8796656;18.597218;;1263.3
1418.0;1320.1;;;;;;;;;;;;;;0.5383465;0.33674124;-0.05023347;;;;;1263.3
1418.0;1320.8;204884;204916;10887;;;;;;;;;;;;;;;;;;
1418.0;1327.0;;;;;;;;;;;;;-41515;;;;;;;;
1418.0;1327.0;;;;;;;;;;;;;-50013;;;;;;;;
1418.0;1327.0;;;;;;;;;;;;;-46374;;;;;;;;
1418.0;1327.0;;;;;;;;;;;;;-41060;;;;;;;;
1418.0;1327.0;;;;;;;;;;;;;-40552;;;;;;;;
1418.0;1329.0;;;;-0.3195038;0.47326666;0.23606876;;;;;;;;;;;;;;;
1418.0;1329.0;;;;-0.3155785;0.46625525;0.23296359;;;;;;;;;;;;;;;
1418.0;1329.0;;;;-0.31237033;0.45997244;0.22874454;;;;;;;;;;;;;;;
1418.0;1329.0;;;;-0.3107262;0.4547997;0.22467807;;;;;;;;;;;;;;;
1418.0;1329.0;;;;-0.30965808;0.45052725;0.22058871;;;;;;;;;;;;;;;
1420.0;1339.0;;;;-0.3102341;0.44701773;0.2163277;;;;;;;;;;;;;;;
1420.0;1339.0;;;;-0.3095627;0.44322973;0.21336749;;;;;;;;;;;;;;;
1420.0;1339.0;;;;-0.3073044;0.43978888;0.21165088;;;;;;;;;;;;;;;
1420.0;1339.0;;;;-0.3046761;0.43664175;0.20879367;;;;;;;;;;;;;;;
1420.0;1339.0;;;;-0.30233768;0.43388754;0.2089043;;;;;;;;;;;;;;;
1420.0;1340.8;221335;221316;10896;;;;;;;;;;;;;;;;;;
1420.0;1349.1;;;;-0.30164722;0.43477637;0.21020892;;;;;;;;;;;;;;;
1420.0;1349.1;;;;-0.29825976;0.43663794;0.20628741;;;;;;;;;;;;;;;
1420.0;1349.1;;;;-0.29124454;0.43703848;0.20170596;;;;;;;;;;;;;;;
1420.0;1349.1;;;;-0.28416827;0.43711478;0.1996918;;;;;;;;;;;;;;;
1420.0;1349.1;;;;-0.27808002;0.43778235;0.19828418;;;;;;;;;;;;;;;
1420.0;1359.2;;;;-0.27414325;0.43962485;0.19726184;;;;;;;;;;;;;;;
1420.0;1359.2;;;;-0.27067187;0.44129187;0.19454959;;;;;;;;;;;;;;;
1420.0;1359.2;;;;-0.26737216;0.4424439;0.19106296;;;;;;;;;;;;;;;
1420.0;1359.2;;;;-0.2640076;0.44282156;0.18755725;;;;;;;;;;;;;;;
1420.0;1359.2;;;;-0.26150134;0.44371802;0.18387987;;;;;;;;;;;;;;;
1420.0;1361.1;237829;237714;10899;;;;;;;;;;;;;;;;;;
1421.0;1365.1;;;;;;;;;;;;;;;;;5.0469985;2.76574;16.06418;;1273.0
1421.0;1365.1;;;;;;;;;;;;;;0.5412763;0.3700064;-0.057985168;;;;;1273.0
1421.0;1365.1;;;;;;;;;;;;;;;;;4.7647023;2.6284068;13.229774;;1273.0
1421.0;1365.1;;;;;;;;;;;;;;0.5515915;0.4062624;-0.054811243;;;;;1273.0
1421.0;1365.1;;;;;;;;;;;;;;;;;4.4976654;3.402814;10.280923;;1282.7
1421.0;1365.1;;;;;;;;;;;;;;0.55873287;0.43629262;-0.051026948;;;;;1282.7
1421.0;1365.1;;;;;;;;;;;;;;;;;4.8142953;4.1924806;7.316813;;1282.7
1421.0;1365.1;;;;;;;;;;;;;;0.5678274;0.458388;-0.065065466;;;;;1282.7
1421.0;1365.1;;;;;;;;;;;;;;;;;5.3178506;6.34785;4.2611465;;1292.2
1421.0;1365.1;;;;;;;;;;;;;;0.5731986;0.4702292;-0.080141604;;;;;1292.2
1421.0;1365.1;;;;;;;;;;;;;;;;;5.878628;9.186071;1.2588885;;1292.2
1421.0;1365.1;;;;;;;;;;;;;;0.56483656;0.46906948;-0.078676715;;;;;1292.2
1421.0;1367.2;;;;;;;;;;;;;-40549;;;;;;;;
1421.0;1367.2;;;;;;;;;;;;;-38177;;;;;;;;
1421.0;1367.2;;;;;;;;;;;;;-36032;;;;;;;;
1421.0;1367.2;;;;;;;;;;;;;-34132;;;;;;;;
1421.0;1367.2;;;;;;;;;;;;;-32239;;;;;;;;
1421.0;1369.1;;;;-0.26154712;0.44434744;0.17830278;;;;;;;;;;;;;;;
1421.0;1369.1;;;;-0.2611504;0.4439202;0.17491914;;;;;;;;;;;;;;;
1421.0;1369.1;;;;-0.26174167;0.44341666;0.17050172;;;;;;;;;;;;;;;
1421.0;1369.1;;;;-0.26301196;0.44306952;0.1657982;;;;;;;;;;;;;;;
1421.0;1369.1;;;;-0.26202014;0.4422837;0.16236879;;;;;;;;;;;;;;;
1482.0;1379.2;;;;-0.25992587;0.44123846;0.15858461;;;;;;;;;;;;;;;
1482.0;1379.2;;;;-0.25763324;0.44065863;0.15359499;;;;;;;;;;;;;;;
1482.0;1379.2;;;;-0.25529101;0.44042212;0.15047456;;;;;;;;;;;;;;;
1482.0;1379.2;;;;-0.25215533;0.44061285;0.14810182;;;;;;;;;;;;;;;
1482.0;1379.2;;;;-0.24861148;0.44110495;0.14426424;;;;;;;;;;;;;;;
1482.0;1380.5;;;;;;;;;;;;;;;;;6.4813685;10.868404;-1.701407;;1301.9
1482.0;1380.5;;;;;;;;;;;;;;0.5551927;0.45783868;-0.07647938;;;;;1301.9
1482.0;1380.5;;;;;;;;;;;;;;;;;7.2824793;12.10059;-4.4328136;;1301.9
1482.0;1380.5;;;;;;;;;;;;;;0.53993344;0.43202;-0.07397687;;;;;1301.9
1482.0;1380.5;;;;;;;;;;;;;;;;;8.4421835;12.813959;-6.920072;;1311.6
1482.0;1380.5;;;;;;;;;;;;;;0.5247963;0.402295;-0.0799585;;;;;1311.6
1482.0;1380.5;;;;;;;;;;;;;;;;;10.174108;11.940367;-9.12122;;1311.6
1482.0;1380.5;;;;;;;;;;;;;;0.52107304;0.38477737;-0.10303049;;;;;1311.6
1482.0;1380.5;;;;;;;;;;;;;;;;;11.703849;11.108737;-11.097293;;1321.0
1482.0;1380.5;;;;;;;;;;;;;;0.5335246;0.37488937;-0.11914426;;;;;1321.0
1482.0;1380.5;;;;;;;;;;;;;;;;;12.977996;10.429701;-13.145848;;1321.0
1482.0;1380.5;;;;;;;;;;;;;;0.5484176;0.3658559;-0.11780145;;;;;1321.0
1482.0;1380.9;254137;254045;10892;;;;;;;;;;;;;;;;;;
1482.0;1389.0;;;;-0.24585345;0.44040304;0.14046098;;;;;;;;;;;;;;;
1482.0;1389.0;;;;-0.2439194;0.4395104;0.13791658;;;;;;;;;;;;;;;
1482.0;1389.0;;;;-0.24227527;0.43871313;0.13472368;;;;;;;;;;;;;;;
1482.0;1389.0;;;;-0.24136737;0.43786627;0.1319771;;;;;;;;;;;;;;;
1482.0;1389.0;;;;-0.24156955;0.43710715;0.12786104;;;;;;;;;;;;;;;
1484.0;1398.9;;;;-0.24206927;0.4351197;0.12274934;;;;;;;;;;;;;;;
1484.0;1398.9;;;;-0.24180606;0.43471152;0.12120058;;;;;;;;;;;;;;;
1484.0;1398.9;;;;-0.24208835;0.43339163;0.118007675;;;;;;;;;;;;;;;
1484.0;1398.9;;;;-0.24145511;0.42889792;0.11740877;;;;;;;;;;;;;;;
1484.0;1398.9;;;;-0.244751;0.4274369;0.11903764;;;;;;;;;;;;;;;
1484.0;1400.9;262143;262143;10897;;;;;;;;;;;;;;;;;;
1484.0;1407.2;;;;;;;;;;;;;-31031;;;;;;;;
1484.0;1407.2;;;;;;;;;;;;;-29885;;;;;;;;
1484.0;1407.2;;;;;;;;;;;;;-28435;;;;;;;;
1484.0;1407.2;;;;;;;;;;;;;-26374;;;;;;;;
1484.0;1407.2;;;;;;;;;;;;;-24084;;;;;;;;
1484.0;1409.1;;;;-0.24802783;0.42831427;0.12263109;;;;;;;;;;;;;;;
1484.0;1409.1;;;;-0.24772266;0.4314385;0.12215425;;;;;;;;;;;;;;;
1484.0;1409.1;;;;-0.24603656;0.4341126;0.11752702;;;;;;;;;;;;;;;
1484.0;1409.1;;;;-0.24148181;0.43256766;0.11590959;;;;;;;;;;;;;;;
1484.0;1409.1;;;;-0.23685458;0.43339163;0.11806871;;;;;;;;;;;;;;;
1484.0;1419.2;;;;-0.23449329;0.43603903;0.11743547;;;;;;;;;;;;;;;
1484.0;1419.2;;;;-0.23350528;0.43835074;0.11780931;;;;;;;;;;;;;;;
1484.0;1419.2;;;;-0.23426822;0.44095236;0.118137375;;;;;;;;;;;;;;;
1484.0;1419.2;;;;-0.23570636;0.44277197;0.118957534;;;;;;;;;;;;;;;
1484.0;1419.2;;;;-0.23663333;0.44392782;0.119331375;;;;;;;;;;;;;;;
1484.0;1421.2;262143;262143;10900;;;;;;;;;;;;;;;;;;
1486.0;1425.3;;;;;;;;;;;;;;;;;14.4047365;9.025849;-15.251625;;1330.7
1486.0;1425.3;;;;;;;;;;;;;;0.56776637;0.35407576;-0.11682486;;;;;1330.7
1486.0;1425.3;;;;;;;;;;;;;;;;;15.854366;7.560961;-17.323069;;1330.7
1486.0;1425.3;;;;;;;;;;;;;;0.5895566;0.34321114;-0.10742515;;;;;1330.7
1486.0;1425.3;;;;;;;;;;;;;;;;;17.044586;6.801813;-19.409773;;1340.3
1486.0;1425.3;;;;;;;;;;;;;;0.60567033;0.3319193;-0.08075198;;;;;1340.3
1486.0;1425.3;;;;;;;;;;;;;;;;;17.941069;5.7641835;-21.423994;;1340.3
1486.0;1425.3;;;;;;;;;;;;;;0.62233347;0.3217261;-0.065858945;;;;;1340.3
1486.0;1425.3;;;;;;;;;;;;;;;;;18.677328;4.2191844;-23.205511;;1349.9
1486.0;1425.3;;;;;;;;;;;;;;0.63850826;0.31727043;-0.07721183;;;;;1349.9
1486.0;1425.3;;;;;;;;;;;;;;;;;19.604326;2.5139623;-24.525438;;1349.9
1486.0;1425.3;;;;;;;;;;;;;;0.6547441;0.31849116;-0.11688589;;;;;1349.9
1486.0;1429.2;;;;-0.23696521;0.44390875;0.12007524;;;;;;;;;;;;;;;
1486.0;1429.2;;;;-0.239975;0.44565207;0.12268831;;;;;;;;;;;;;;;
1486.0;1429.2;;;;-0.2415581;0.4482003;0.12718584;;;;;;;;;;;;;;;
1486.0;1429.2;;;;-0.24269488;0.4504395;0.12854387;;;;;;;;;;;;;;;
1486.0;1429.2;;;;-0.243866;0.4529572;0.1285019;;;;;;;;;;;;;;;
1486.0;1439.2;;;;-0.24469379;0.45788962;0.12929918;;;;;;;;;;;;;;;
1486.0;1439.2;;;;-0.24616244;0.46334845;0.13032533;;;;;;;;;;;;;;;
1486.0;1439.2;;;;-0.2494469;0.47048193;0.13032915;;;;;;;;;;;;;;;
1486.0;1439.2;;;;-0.25283816;0.47710425;0.12966157;;;;;;;;;;;;;;;
1486.0;1439.2;;;;-0.2566376;0.48304373;0.12942125;;;;;;;;;;;;;;;
1541.0;1440.4;;;;;;;;;;;;;;;;;21.050142;2.1439252;-25.532547;;1359.6
1541.0;1440.4;;;;;;;;;;;;;;0.6615192;0.32618183;-0.1605884;;;;;1359.6
1541.0;1440.4;;;;;;;;;;;;;;;;;22.495956;2.7809992;-26.322214;;1359.6
1541.0;1440.4;;;;;;;;;;;;;;0.65449995;0.33558154;-0.18494217;;;;;1359.6
1541.0;1440.4;;;;;;;;;;;;;;;;;23.277992;3.5973694;-27.325512;;1369.3
1541.0;1440.4;;;;;;;;;;;;;;0.64394057;0.34681234;-0.20227668;;;;;1369.3
1541.0;1440.4;;;;;;;;;;;;;;;;;22.877438;6.0998874;-27.95114;;1369.3
1541.0;1440.4;;;;;;;;;;;;;;0.6361278;0.35651723;-0.18091373;;;;;1369.3
1541.0;1440.4;;;;;;;;;;;;;;;;;20.80218;10.593738;-28.454695;;1379.0
1541.0;1440.4;;;;;;;;;;;;;;0.62245554;0.36194953;-0.1271401;;;;;1379.0
1541.0;1440.4;;;;;;;;;;;;;;;;;17.040771;13.061922;-29.129917;;1379.0
1541.0;1440.4;;;;;;;;;;;;;;0.5960265;0.37354657;-0.10565508;;;;;1379.0
1541.0;1441.2;262143;262143;10897;;;;;;;;;;;;;;;;;;
1541.0;1447.4;;;;;;;;;;;;;-25331;;;;;;;;
1541.0;1447.4;;;;;;;;;;;;;-32985;;;;;;;;
1541.0;1447.4;;;;;;;;;;;;;-41794;;;;;;;;
1541.0;1447.4;;;;;;;;;;;;;-42437;;;;;;;;
1541.0;1447.4;;;;;;;;;;;;;-32599;;;;;;;;
1541.0;1449.1;;;;-0.26040652;0.4876786;0.12898637;;;;;;;;;;;;;;;
1541.0;1449.1;;;;-0.26062778;0.4913903;0.13045885;;;;;;;;;;;;;;;
1541.0;1449.1;;;;-0.26147845;0.49538428;0.13325502;;;;;;;;;;;;;;;
1541.0;1449.1;;;;-0.26222232;0.50002295;0.13507463;;;;;;;;;;;;;;;
1541.0;1449.1;;;;-0.26297;0.50534827;0.1382065;;;;;;;;;;;;;;;
1543.0;1459.0;;;;-0.26433566;0.5111657;0.14123155;;;;;;;;;;;;;;;
1543.0;1459.0;;;;-0.2658806;0.5180169;0.14491273;;;;;;;;;;;;;;;
1543.0;1459.0;;;;-0.26867297;0.5262299;0.14894105;;;;;;;;;;;;;;;
1543.0;1459.0;;;;-0.27089694;0.5352517;0.15343095;;;;;;;;;;;;;;;
1543.0;1459.0;;;;-0.27317432;0.5436631;0.1553116;;;;;;;;;;;;;;;
1543.0;1461.1;262143;262143;10899;;;;;;;;;;;;;;;;;;
1543.0;1469.1;;;;-0.27674487;0.5530129;0.15987016;;;;;;;;;;;;;;;
1543.0;1469.1;;;;-0.28068927;0.56353384;0.16594698;;;;;;;;;;;;;;;
1543.0;1469.1;;;;-0.2841492;0.57495505;0.17191698;;;;;;;;;;;;;;;
1543.0;1469.1;;;;-0.28810504;0.5861893;0.17696;;;;;;;;;;;;;;;
1543.0;1469.1;;;;-0.2912865;0.5959855;0.18073274;;;;;;;;;;;;;;;
1543.0;1479.2;;;;-0.29365543;0.6040459;0.18569566;;;;;;;;;;;;;;;
1543.0;1479.2;;;;-0.2968674;0.6127358;0.19402698;;;;;;;;;;;;;;;
1543.0;1479.2;;;;-0.30082324;0.62081915;0.20094684;;;;;;;;;;;;;;;
1543.0;1479.2;;;;-0.30401614;0.62785345;0.20659259;;;;;;;;;;;;;;;
1543.0;1479.2;;;;-0.30448154;0.6357499;0.21348193;;;;;;;;;;;;;;;
1543.0;1481.4;262143;262143;10888;;;;;;;;;;;;;;;;;;
1545.0;1485.4;;;;;;;;;;;;;;;;;13.061922;12.329478;-29.160437;;1388.4
1545.0;1485.4;;;;;;;;;;;;;;0.58644366;0.38148138;-0.135197;;;;;1388.4
1545.0;1485.4;;;;;;;;;;;;;;;;;9.094516;11.322367;-28.45851;;1388.4
1545.0;1485.4;;;;;;;;;;;;;;0.5950499;0.3867916;-0.18311106;;;;;1388.4
1545.0;1485.4;;;;;;;;;;;;;;;;;6.4546647;12.237923;-27.211067;;1398.1
1545.0;1485.4;;;;;;;;;;;;;;0.6079897;0.3958861;-0.20880765;;;;;1398.1
1545.0;1485.4;;;;;;;;;;;;;;;;;5.4208503;13.966033;-25.30366;;1398.1
1545.0;1485.4;;;;;;;;;;;;;;0.62086856;0.39063692;-0.20996734;;;;;1398.1
1545.0;1485.4;;;;;;;;;;;;;;;;;5.0851464;15.02655;-23.21314;;1407.7
1545.0;1485.4;;;;;;;;;;;;;;0.6421705;0.37562183;-0.19904172;;;;;1407.7
1545.0;1485.4;;;;;;;;;;;;;;;;;6.061739;17.700735;-21.031069;;1407.7
1545.0;1485.4;;;;;;;;;;;;;;0.67000335;0.36878568;-0.17383343;;;;;1407.7
1545.0;1487.5;;;;;;;;;;;;;-20051;;;;;;;;
1545.0;1487.5;;;;;;;;;;;;;-13367;;;;;;;;
1545.0;1487.5;;;;;;;;;;;;;-12904;;;;;;;;
1545.0;1487.5;;;;;;;;;;;;;-13328;;;;;;;;
1545.0;1487.5;;;;;;;;;;;;;-11953;;;;;;;;
1545.0;1489.2;;;;-0.30451587;0.6430474;0.21877673;;;;;;;;;;;;;;;
1545.0;1489.2;;;;-0.3033562;0.65142065;0.22286227;;;;;;;;;;;;;;;
1545.0;1489.2;;;;-0.30039218;0.65814596;0.22449496;;;;;;;;;;;;;;;
1545.0;1489.2;;;;-0.29560092;0.6657029;0.22627261;;;;;;;;;;;;;;;
1545.0;1489.2;;;;-0.29260638;0.67438895;0.22714618;;;;;;;;;;;;;;;
1599.0;1499.3;;;;-0.29023746;0.68204504;0.22874454;;;;;;;;;;;;;;;
1599.0;1499.3;;;;-0.2898827;0.69004446;0.23052981;;;;;;;;;;;;;;;
1599.0;1499.3;;;;-0.28966907;0.6988831;0.23372653;;;;;;;;;;;;;;;
1599.0;1499.3;;;;-0.29095843;0.70916754;0.23836139;;;;;;;;;;;;;;;
1599.0;1499.3;;;;-0.29534152;0.7207604;0.2417908;;;;;;;;;;;;;;;
1599.0;1501.5;262143;262143;10876;;;;;;;;;;;;;;;;;;
1599.0;1509.4;;;;-0.29975894;0.73390204;0.24518207;;;;;;;;;;;;;;;
1599.0;1509.4;;;;-0.30663303;0.74927527;0.24615481;;;;;;;;;;;;;;;
1599.0;1509.4;;;;-0.3142052;0.76625836;0.24830249;;;;;;;;;;;;;;;
1599.0;1509.4;;;;-0.32225803;0.785164;0.2496567;;;;;;;;;;;;;;;
1599.0;1509.4;;;;-0.32908633;0.8057443;0.25127795;;;;;;;;;;;;;;;
1599.0;1519.3;;;;-0.3363686;0.82688916;0.2514992;;;;;;;;;;;;;;;
1599.0;1519.3;;;;-0.34375384;0.8485223;0.2536774;;;;;;;;;;;;;;;
1599.0;1519.3;;;;-0.35141376;0.870762;0.2564278;;;;;;;;;;;;;;;
1599.0;1519.3;;;;-0.3594437;0.8942338;0.26039127;;;;;;;;;;;;;;;
1599.0;1519.3;;;;-0.36792377;0.9165765;0.26533893;;;;;;;;;;;;;;;
1599.0;1521.6;262143;262143;10861;;;;;;;;;;;;;;;;;;
1599.0;1527.9;;;;;;;;;;;;;-10597;;;;;;;;
1599.0;1527.9;;;;;;;;;;;;;-10123;;;;;;;;
1599.0;1527.9;;;;;;;;;;;;;-9594;;;;;;;;
1599.0;1527.9;;;;;;;;;;;;;-8950;;;;;;;;
1599.0;1527.9;;;;;;;;;;;;;-8468;;;;;;;;
1602.0;1529.5;;;;-0.3756867;0.93761075;0.2723923;;;;;;;;;;;;;;;
1602.0;1529.5;;;;-0.38312536;0.9593469;0.28092197;;;;;;;;;;;;;;;
1602.0;1529.5;;;;-0.39016348;0.97973263;0.2903252;;;;;;;;;;;;;;;
1602.0;1529.5;;;;-0.39734274;0.9994775;0.30119327;;;;;;;;;;;;;;;
1602.0;1529.5;;;;-0.40435034;1.0179597;0.31259158;;;;;;;;;;;;;;;
1602.0;1539.6;;;;-0.41193777;1.0355989;0.32288745;;;;;;;;;;;;;;;
1602.0;1539.6;;;;-0.41914374;1.0526887;0.3334618;;;;;;;;;;;;;;;
1602.0;1539.6;;;;-0.42693716;1.0684129;0.34185794;;;;;;;;;;;;;;;
1602.0;1539.6;;;;-0.4354897;1.0831186;0.3497925;;;;;;;;;;;;;;;
1602.0;1539.6;;;;-0.44482046;1.0961915;0.35720065;;;;;;;;;;;;;;;
1602.0;1541.9;262143;262143;10860;;;;;;;;;;;;;;;;;;
1602.0;1546.0;;;;;;;;;;;;;;;;;7.7936645;22.549362;-18.784143;;1417.3
1602.0;1546.0;;;;;;;;;;;;;;0.68678856;0.36133915;-0.12439345;;;;;1417.3
1602.0;1546.0;;;;;;;;;;;;;;;;;8.968627;25.536362;-17.693106;;1417.3
1602.0;1546.0;;;;;;;;;;;;;;0.6965545;0.37025055;-0.08819849;;;;;1417.3
1602.0;1546.0;;;;;;;;;;;;;;;;;9.083072;24.822992;-17.60918;;1427.0
1602.0;1546.0;;;;;;;;;;;;;;0.71449935;0.3939329;-0.10052797;;;;;1427.0
1602.0;1546.0;;;;;;;;;;;;;;;;;8.140813;22.938475;-18.082216;;1427.0
1602.0;1546.0;;;;;;;;;;;;;;0.745262;0.4217658;-0.1358684;;;;;1427.0
1602.0;1546.0;;;;;;;;;;;;;;;;;7.080294;21.717735;-18.539995;;1436.5
1602.0;1546.0;;;;;;;;;;;;;;0.77101964;0.4390393;-0.16168706;;;;;1436.5
1602.0;1546.0;;;;;;;;;;;;;;;;;5.7374797;21.755882;-19.287699;;1436.5
1602.0;1546.0;;;;;;;;;;;;;;0.7921995;0.43440047;-0.1539964;;;;;1436.5
1659.0;1547.2;;;;;;;;;;;;;;;;;4.6044803;22.328104;-20.607624;;1446.0
1659.0;1547.2;;;;;;;;;;;;;;0.79384744;0.43171483;-0.12836085;;;;;1446.0
1659.0;1547.2;;;;;;;;;;;;;;;;;4.1962953;20.0354;-22.442549;;1446.0
1659.0;1547.2;;;;;;;;;;;;;;0.78182316;0.42365795;-0.1589404;;;;;1446.0
1659.0;1547.2;;;;;;;;;;;;;;;;;4.0017395;19.16181;-24.548326;;1455.6
1659.0;1547.2;;;;;;;;;;;;;;0.78975797;0.4069338;-0.1897641;;;;;1455.6
1659.0;1547.2;;;;;;;;;;;;;;;;;3.9902954;23.628956;-28.336435;;1455.6
1659.0;1547.2;;;;;;;;;;;;;;0.768334;0.4090701;-0.15912351;;;;;1455.6
1659.0;1547.2;;;;;;;;;;;;;;;;;6.1189613;24.632254;-33.818325;;1465.3
1659.0;1547.2;;;;;;;;;;;;;;0.7493515;0.44215217;-0.16595966;;;;;1465.3
1659.0;1547.2;;;;;;;;;;;;;;;;;9.041108;25.757622;-39.838097;;1465.3
1659.0;1547.2;;;;;;;;;;;;;;0.7646718;0.5033113;-0.18463698;;;;;1465.3
1659.0;1549.6;;;;-0.45346457;1.106476;0.36345294;;;;;;;;;;;;;;;
1659.0;1549.6;;;;-0.46119696;1.115059;0.3706055;;;;;;;;;;;;;;;
1659.0;1549.6;;;;-0.4680634;1.1219026;0.379551;;;;;;;;;;;;;;;
1659.0;1549.6;;;;-0.4733811;1.125992;0.38873297;;;;;;;;;;;;;;;
1659.0;1549.6;;;;-0.47722632;1.1285287;0.39788824;;;;;;;;;;;;;;;
1659.0;1559.6;;;;-0.48195273;1.1340257;0.40748602;;;;;;;;;;;;;;;
1659.0;1559.6;;;;-0.4889298;1.1374818;0.41345602;;;;;;;;;;;;;;;
1659.0;1559.6;;;;-0.4973336;1.1346856;0.41633993;;;;;;;;;;;;;;;
1659.0;1559.6;;;;-0.5057183;1.1302148;0.41863257;;;;;;;;;;;;;;;
1659.0;1559.6;;;;-0.5110894;1.1228486;0.4202767;;;;;;;;;;;;;;;
1662.0;1560.9;;;;;;;;;;;;;;;;;11.127811;29.683065;-46.292763;;1474.8
1662.0;1560.9;;;;;;;;;;;;;;0.79909664;0.560625;-0.1739555;;;;;1474.8
1662.0;1560.9;;;;;;;;;;;;;;;;;10.03296;32.14362;-54.269543;;1474.8
1662.0;1560.9;;;;;;;;;;;;;;0.8604999;0.6214179;-0.18231757;;;;;1474.8
1662.0;1560.9;;;;;;;;;;;;;;;;;5.9244056;34.28373;-64.50087;;1484.4
1662.0;1560.9;;;;;;;;;;;;;;0.9380169;0.69685966;-0.21594897;;;;;1484.4
1662.0;1560.9;;;;;;;;;;;;;;;;;0.18311106;37.617878;-77.57424;;1484.4
1662.0;1560.9;;;;;;;;;;;;;;1.0115055;0.77571946;-0.255562;;;;;1484.4
1662.0;1560.9;;;;;;;;;;;;;;;;;-6.9429607;43.481247;-92.49779;;1494.1
1662.0;1560.9;;;;;;;;;;;;;;1.0895718;0.8559221;-0.26477858;;;;;1494.1
1662.0;1560.9;;;;;;;;;;;;;;;;;-10.620441;49.97024;-108.275856;;1494.1
1662.0;1560.9;;;;;;;;;;;;;;1.1938231;0.93325603;-0.23749503;;;;;1494.1
1662.0;1561.8;262143;262143;10845;;;;;;;;;;;;;;;;;;
1662.0;1567.9;;;;;;;;;;;;;-8220;;;;;;;;
1662.0;1567.9;;;;;;;;;;;;;-8139;;;;;;;;
1662.0;1567.9;;;;;;;;;;;;;-7975;;;;;;;;
1662.0;1567.9;;;;;;;;;;;;;-7712;;;;;;;;
1662.0;1567.9;;;;;;;;;;;;;-7511;;;;;;;;
1662.0;1569.4;;;;-0.51303107;1.1140329;0.42253882;;;;;;;;;;;;;;;
1662.0;1569.4;;;;-0.51232153;1.1049997;0.42420584;;;;;;;;;;;;;;;
1662.0;1569.4;;;;-0.5123444;1.0975991;0.42345434;;;;;;;;;;;;;;;
1662.0;1569.4;;;;-0.51429754;1.0908929;0.41820532;;;;;;;;;;;;;;;
1662.0;1569.4;;;;-0.5140839;1.082142;0.4147759;;;;;;;;;;;;;;;
1664.0;1579.4;;;;-0.5124932;1.0737764;0.41174322;;;;;;;;;;;;;;;
1664.0;1579.4;;;;-0.5104371;1.0649453;0.40751272;;;;;;;;;;;;;;;
1664.0;1579.4;;;;-0.50830466;1.0557481;0.40347296;;;;;;;;;;;;;;;
1664.0;1579.4;;;;-0.5082322;1.0465776;0.39812094;;;;;;;;;;;;;;;
1664.0;1579.4;;;;-0.5084992;1.0382158;0.39392096;;;;;;;;;;;;;;;
1664.0;1581.8;262143;262143;10844;;;;;;;;;;;;;;;;;;
1664.0;1589.5;;;;-0.509739;1.0308076;0.38971716;;;;;;;;;;;;;;;
1664.0;1589.5;;;;-0.5126038;1.0238763;0.38541037;;;;;;;;;;;;;;;
1664.0;1589.5;;;;-0.51578146;1.0180475;0.38226706;;;;;;;;;;;;;;;
1664.0;1589.5;;;;-0.5185624;1.0114595;0.37987906;;;;;;;;;;;;;;;
1664.0;1589.5;;;;-0.52349097;1.0053064;0.3785668;;;;;;;;;;;;;;;
1664.0;1599.6;;;;-0.5288964;0.99980557;0.37863165;;;;;;;;;;;;;;;
1664.0;1599.6;;;;-0.5336533;0.9938432;0.37945563;;;;;;;;;;;;;;;
1664.0;1599.6;;;;-0.5381585;0.98934186;0.38273245;;;;;;;;;;;;;;;
1664.0;1599.6;;;;-0.5418969;0.9842111;0.3874169;;;;;;;;;;;;;;;
1664.0;1599.6;;;;-0.5470086;0.9773561;0.3885346;;;;;;;;;;;;;;;
1664.0;1602.1;262143;262143;10855;;;;;;;;;;;;;;;;;;
1664.0;1608.2;;;;;;;;;;;;;-7262;;;;;;;;
1664.0;1608.2;;;;;;;;;;;;;-6650;;;;;;;;
1664.0;1608.2;;;;;;;;;;;;;-5979;;;;;;;;
1664.0;1608.2;;;;;;;;;;;;;-5785;;;;;;;;
1664.0;1608.2;;;;;;;;;;;;;-5796;;;;;;;;
1666.0;1609.6;;;;-0.5513039;0.96920025;0.39112097;;;;;;;;;;;;;;;
1666.0;1609.6;;;;-0.5570069;0.9599725;0.39327627;;;;;;;;;;;;;;;
1666.0;1609.6;;;;-0.5638276;0.95139325;0.39790732;;;;;;;;;;;;;;;
1666.0;1609.6;;;;-0.56945807;0.94137204;0.40461355;;;;;;;;;;;;;;;
1666.0;1609.6;;;;-0.57396704;0.9322854;0.41223532;;;;;;;;;;;;;;;
1666.0;1613.7;;;;;;;;;;;;;;;;;-9.598072;57.51213;-121.45985;;1503.7
1666.0;1613.7;;;;;;;;;;;;;;1.3038118;0.9883114;-0.1777398;;;;;1503.7
1666.0;1613.7;;;;;;;;;;;;;;;;;-7.003998;68.01813;-124.98093;;1503.7
1666.0;1613.7;;;;;;;;;;;;;;1.3927428;0.9631031;-0.08050783;;;;;1503.7
1666.0;1613.7;;;;;;;;;;;;;;;;;-4.669332;78.001495;-124.988556;;1513.2
1666.0;1613.7;;;;;;;;;;;;;;1.4733115;0.910184;0.003601184;;;;;1513.2
1666.0;1613.7;;;;;;;;;;;;;;;;;-4.055147;85.638756;-124.988556;;1513.2
1666.0;1613.7;;;;;;;;;;;;;;1.5220802;0.852443;0.052125614;;;;;1513.2
1666.0;1613.7;;;;;;;;;;;;;;;;;-8.278146;92.33756;-124.988556;;1522.9
1666.0;1613.7;;;;;;;;;;;;;;1.5439924;0.7606433;0.06604206;;;;;1522.9
1666.0;1613.7;;;;;;;;;;;;;;;;;-14.282662;96.98782;-124.988556;;1522.9
1666.0;1613.7;;;;;;;;;;;;;;1.563036;0.6444899;0.06982635;;;;;1522.9
1718.0;1614.3;;;;;;;;;;;;;;;;;-19.96292;97.9606;-124.988556;;1532.5
1718.0;1614.3;;;;;;;;;;;;;;1.57622;0.5328532;0.050477616;;;;;1532.5
1718.0;1614.3;;;;;;;;;;;;;;;;;-25.070955;95.55345;-124.988556;;1532.5
1718.0;1614.3;;;;;;;;;;;;;;1.5833613;0.40253913;0.0076296274;;;;;1532.5
1718.0;1614.3;;;;;;;;;;;;;;;;;-26.947845;90.99094;-124.988556;;1542.2
1718.0;1614.3;;;;;;;;;;;;;;1.5934935;0.3509018;-0.015869625;;;;;1542.2
1718.0;1614.3;;;;;;;;;;;;;;;;;-25.37614;82.52968;-124.988556;;1542.2
1718.0;1614.3;;;;;;;;;;;;;;1.5759147;0.29468673;-0.059450056;;;;;1542.2
1718.0;1614.3;;;;;;;;;;;;;;;;;-21.027254;69.421974;-124.988556;;1551.8
1718.0;1614.3;;;;;;;;;;;;;;1.5330057;0.2565386;-0.11835078;;;;;1551.8
1718.0;1614.3;;;;;;;;;;;;;;;;;-13.5387745;54.975277;-124.988556;;1551.8
1718.0;1614.3;;;;;;;;;;;;;;1.4777672;0.21405682;-0.18359935;;;;;1551.8
1718.0;1619.5;;;;-0.5796624;0.9251138;0.41919714;;;;;;;;;;;;;;;
1718.0;1619.5;;;;-0.58665854;0.9171182;0.42395407;;;;;;;;;;;;;;;
1718.0;1619.5;;;;-0.5921212;0.90890896;0.43095785;;;;;;;;;;;;;;;
1718.0;1619.5;;;;-0.596531;0.902279;0.43887717;;;;;;;;;;;;;;;
1718.0;1619.5;;;;-0.6012345;0.89660656;0.44682318;;;;;;;;;;;;;;;
1718.0;1621.9;262143;262143;10853;;;;;;;;;;;;;;;;;;
1718.0;1629.4;;;;-0.60436636;0.8931886;0.4545632;;;;;;;;;;;;;;;
1718.0;1629.4;;;;-0.6063462;0.89125836;0.46241766;;;;;;;;;;;;;;;
1718.0;1629.4;;;;-0.6088677;0.88881695;0.46932226;;;;;;;;;;;;;;;
1718.0;1629.4;;;;-0.61030585;0.887787;0.4760247;;;;;;;;;;;;;;;
1718.0;1629.4;;;;-0.61158377;0.88741314;0.48313147;;;;;;;;;;;;;;;
1737.0;1639.3;;;;-0.6108361;0.8880731;0.48891455;;;;;;;;;;;;;;;
1737.0;1639.3;;;;-0.6108399;0.89049923;0.4935456;;;;;;;;;;;;;;;
1737.0;1639.3;;;;-0.61127096;0.89338696;0.49639136;;;;;;;;;;;;;;;
1737.0;1639.3;;;;-0.61207587;0.89618313;0.4992066;;;;;;;;;;;;;;;
1737.0;1639.3;;;;-0.61297995;0.89921963;0.5018769;;;;;;;;;;;;;;;
1737.0;1641.9;262143;262143;10859;;;;;;;;;;;;;;;;;;
1737.0;1648.1;;;;;;;;;;;;;-5248;;;;;;;;
1737.0;1648.1;;;;;;;;;;;;;-3822;;;;;;;;
1737.0;1648.1;;;;;;;;;;;;;-2194;;;;;;;;
1737.0;1648.1;;;;;;;;;;;;;-1158;;;;;;;;
1737.0;1648.1;;;;;;;;;;;;;-699;;;;;;;;
1737.0;1649.4;;;;-0.614441;0.90182126;0.50511175;;;;;;;;;;;;;;;
1737.0;1649.4;;;;-0.61544424;0.9042741;0.50860983;;;;;;;;;;;;;;;
1737.0;1649.4;;;;-0.61726385;0.90890896;0.5114556;;;;;;;;;;;;;;;
1737.0;1649.4;;;;-0.62154394;0.91383755;0.5135041;;;;;;;;;;;;;;;
1737.0;1649.4;;;;-0.6265145;0.9178926;0.5172463;;;;;;;;;;;;;;;
1737.0;1659.5;;;;-0.632412;0.92097104;0.5205193;;;;;;;;;;;;;;;
1737.0;1659.5;;;;-0.6388703;0.923195;0.5253449;;;;;;;;;;;;;;;
1737.0;1659.5;;;;-0.6427422;0.92637265;0.53371054;;;;;;;;;;;;;;;
1737.0;1659.5;;;;-0.64726263;0.9284669;0.53646857;;;;;;;;;;;;;;;
1737.0;1659.5;;;;-0.6509896;0.9290849;0.5390015;;;;;;;;;;;;;;;
1737.0;1662.1;262143;262143;10854;;;;;;;;;;;;;;;;;;
1748.0;1666.6;;;;;;;;;;;;;;;;;-2.887814;43.454544;-124.988556;;1561.3
1748.0;1666.6;;;;;;;;;;;;;;1.4255196;0.17664114;-0.27802363;;;;;1561.3
1748.0;1666.6;;;;;;;;;;;;;;;;;9.193701;39.002655;-124.988556;;1561.3
1748.0;1666.6;;;;;;;;;;;;;;1.3835261;0.18848231;-0.30365917;;;;;1561.3
1748.0;1666.6;;;;;;;;;;;;;;;;;20.844143;38.319805;-124.988556;;1571.0
1748.0;1666.6;;;;;;;;;;;;;;1.3484908;0.19775994;-0.28620258;;;;;1571.0
1748.0;1666.6;;;;;;;;;;;;;;;;;33.780178;37.549213;-124.98093;;1571.0
1748.0;1666.6;;;;;;;;;;;;;;1.3230385;0.2573321;-0.27161473;;;;;1571.0
1748.0;1666.6;;;;;;;;;;;;;;;;;46.09058;35.557877;-124.37437;;1580.7
1748.0;1666.6;;;;;;;;;;;;;;1.3055818;0.35676137;-0.2814417;;;;;1580.7
1748.0;1666.6;;;;;;;;;;;;;;;;;58.48491;32.68914;-121.303444;;1580.7
1748.0;1666.6;;;;;;;;;;;;;;1.2911161;0.4585101;-0.3071383;;;;;1580.7
1748.0;1667.4;;;;;;;;;;;;;;;;;70.20783;29.59151;-116.9393;;1590.4
1748.0;1667.4;;;;;;;;;;;;;;1.2855006;0.5604419;-0.32312998;;;;;1590.4
1748.0;1667.4;;;;;;;;;;;;;;;;;78.066345;26.51677;-113.51741;;1590.4
1748.0;1667.4;;;;;;;;;;;;;;1.2665792;0.6548051;-0.3305765;;;;;1590.4
1748.0;1667.4;;;;;;;;;;;;;;;;;81.65227;24.216438;-109.878075;;1600.0
1748.0;1667.4;;;;;;;;;;;;;;1.2359385;0.7354961;-0.30970183;;;;;1600.0
1748.0;1667.4;;;;;;;;;;;;;;;;;80.088196;20.020142;-106.09379;;1600.0
1748.0;1667.4;;;;;;;;;;;;;;1.206885;0.80538344;-0.2527543;;;;;1600.0
1748.0;1667.4;;;;;;;;;;;;;;;;;73.86243;13.946959;-102.0043;;1609.6
1748.0;1667.4;;;;;;;;;;;;;;1.1730094;0.8710593;-0.1911069;;;;;1609.6
1748.0;1667.4;;;;;;;;;;;;;;;;;64.69543;8.102665;-97.86142;;1609.6
1748.0;1667.4;;;;;;;;;;;;;;1.1455427;0.9251381;-0.117435224;;;;;1609.6
1778.0;1669.5;;;;-0.65398794;0.92920697;0.5459977;;;;;;;;;;;;;;;
1778.0;1669.5;;;;-0.6564179;0.9288446;0.5503579;;;;;;;;;;;;;;;
1778.0;1669.5;;;;-0.6571503;0.92932904;0.55862814;;;;;;;;;;;;;;;
1778.0;1669.5;;;;-0.6562615;0.92748654;0.55917364;;;;;;;;;;;;;;;
1778.0;1669.5;;;;-0.65394217;0.9235498;0.5631791;;;;;;;;;;;;;;;
1778.0;1679.6;;;;-0.65300375;0.9186479;0.5687676;;;;;;;;;;;;;;;
1778.0;1679.6;;;;-0.64842993;0.91272366;0.5771676;;;;;;;;;;;;;;;
1778.0;1679.6;;;;-0.64448553;0.9062768;0.58045965;;;;;;;;;;;;;;;
1778.0;1679.6;;;;-0.6409226;0.9006921;0.5849381;;;;;;;;;;;;;;;
1778.0;1679.6;;;;-0.63675696;0.8926965;0.5896645;;;;;;;;;;;;;;;
1778.0;1682.2;262143;262143;10858;;;;;;;;;;;;;;;;;;
1778.0;1688.3;;;;;;;;;;;;;-423;;;;;;;;
1778.0;1688.3;;;;;;;;;;;;;-238;;;;;;;;
1778.0;1688.3;;;;;;;;;;;;;-225;;;;;;;;
1778.0;1688.3;;;;;;;;;;;;;-148;;;;;;;;
1778.0;1688.3;;;;;;;;;;;;;74;;;;;;;;
1778.0;1689.6;;;;-0.6310387;0.8853456;0.59362036;;;;;;;;;;;;;;;
1778.0;1689.6;;;;-0.62476736;0.87804043;0.59930426;;;;;;;;;;;;;;;
1778.0;1689.6;;;;-0.61928946;0.8716508;0.6022988;;;;;;;;;;;;;;;
1778.0;1689.6;;;;-0.61030203;0.86568844;0.60644156;;;;;;;;;;;;;;;
1778.0;1689.6;;;;-0.6017571;0.859295;0.6061707;;;;;;;;;;;;;;;
1780.0;1699.5;;;;-0.59141165;0.85242856;0.60667425;;;;;;;;;;;;;;;
1780.0;1699.5;;;;-0.58061224;0.8463174;0.60709006;;;;;;;;;;;;;;;
1780.0;1699.5;;;;-0.57096106;0.8409692;0.60765845;;;;;;;;;;;;;;;
1780.0;1699.5;;;;-0.56016546;0.8344804;0.6034127;;;;;;;;;;;;;;;
1780.0;1699.5;;;;-0.5493508;0.8269006;0.59759146;;;;;;;;;;;;;;;
1780.0;1702.2;262143;262143;10859;;;;;;;;;;;;;;;;;;
1780.0;1709.7;;;;-0.5389672;0.81920636;0.5942307;;;;;;;;;;;;;;;
1780.0;1709.7;;;;-0.5282517;0.8118745;0.59060293;;;;;;;;;;;;;;;
1780.0;1709.7;;;;-0.51738745;0.80596554;0.58528906;;;;;;;;;;;;;;;
1780.0;1709.7;;;;-0.5078202;0.8009683;0.58048254;;;;;;;;;;;;;;;
1780.0;1709.7;;;;-0.49446112;0.79823315;0.57514197;;;;;;;;;;;;;;;
1780.0;1719.8;;;;-0.4790154;0.7933465;0.5664788;;;;;;;;;;;;;;;
1780.0;1719.8;;;;-0.4626351;0.7881967;0.55938727;;;;;;;;;;;;;;;
1780.0;1719.8;;;;-0.4463883;0.7828256;0.55390555;;;;;;;;;;;;;;;
1780.0;1719.8;;;;-0.4318238;0.7779695;0.54866797;;;;;;;;;;;;;;;
1780.0;1719.8;;;;-0.41675955;0.77367413;0.5450173;;;;;;;;;;;;;;;
1780.0;1722.5;262143;262143;10853;;;;;;;;;;;;;;;;;;
1780.0;1728.7;;;;;;;;;;;;;178;;;;;;;;
1780.0;1728.7;;;;;;;;;;;;;153;;;;;;;;
1780.0;1728.7;;;;;;;;;;;;;10;;;;;;;;
1780.0;1728.7;;;;;;;;;;;;;-219;;;;;;;;
1780.0;1728.7;;;;;;;;;;;;;-427;;;;;;;;
1782.0;1729.9;;;;-0.4016114;0.77222073;0.5411721;;;;;;;;;;;;;;;
1782.0;1729.9;;;;-0.38502127;0.7715837;0.53469855;;;;;;;;;;;;;;;
1782.0;1729.9;;;;-0.3679047;0.7695695;0.5279351;;;;;;;;;;;;;;;
1782.0;1729.9;;;;-0.3519478;0.76641095;0.5192109;;;;;;;;;;;;;;;
1782.0;1729.9;;;;-0.34244922;0.7665025;0.51247793;;;;;;;;;;;;;;;
1782.0;1739.9;;;;-0.33647922;0.76914227;0.5056763;;;;;;;;;;;;;;;
1782.0;1739.9;;;;-0.32311252;0.7675096;0.5018731;;;;;;;;;;;;;;;
1782.0;1739.9;;;;-0.304966;0.76640713;0.5010186;;;;;;;;;;;;;;;
1782.0;1739.9;;;;-0.28605273;0.7680055;0.5001717;;;;;;;;;;;;;;;
1782.0;1739.9;;;;-0.2687302;0.7718965;0.49662405;;;;;;;;;;;;;;;
1782.0;1739.9;;;;;;;;;;1.9302957;18.715477;-3.1853695;;;;;;;;;
1782.0;1739.9;;;;;;;0.5234535;-1.37846;0.5505539;;;;;;;;;;;;
1782.0;1739.9;;;;;;;;;;8.396405;33.13547;8.606219;;;;;;;;;
1782.0;1739.9;;;;;;;0.567217;-1.5378888;0.58931243;;;;;;;;;;;;
1837.0;1741.6;;;;;;;;;;;;;;;;;54.94476;2.6741846;-92.21168;;1619.3
1837.0;1741.6;;;;;;;;;;;;;;1.1255836;0.9600513;-0.033082064;;;;;1619.3
1837.0;1741.6;;;;;;;;;;;;;;;;;43.393505;-2.3079624;-87.02734;;1619.3
1837.0;1741.6;;;;;;;;;;;;;;1.118015;0.95492417;0.01861629;;;;;1619.3
1837.0;1741.6;;;;;;;;;;;;;;;;;31.640064;-4.4175544;-81.389046;;1628.8
1837.0;1741.6;;;;;;;;;;;;;;1.0918303;0.9148228;0.07245094;;;;;1628.8
1837.0;1741.6;;;;;;;;;;;;;;;;;19.398329;-5.7641835;-75.94531;;1628.8
1837.0;1741.6;;;;;;;;;;;;;;1.0503861;0.84609514;0.09363079;;;;;1628.8
1837.0;1741.6;;;;;;;;;;;;;;;;;7.1375165;-6.382183;-70.657974;;1638.4
1837.0;1741.6;;;;;;;;;;;;;;1.0210272;0.7665639;0.10412916;;;;;1638.4
1837.0;1741.6;;;;;;;;;;;;;;;;;-4.3107395;-6.324961;-65.93524;;1638.4
1837.0;1741.6;;;;;;;;;;;;;;0.9933775;0.6869106;0.09143346;;;;;1638.4
1837.0;1742.6;262143;262143;10853;;;;;;;;;;;;;;;;;;
1837.0;1749.3;;;;;;;;;;-1.8005921;5.836665;-3.4638507;;;;;;;;;
1837.0;1749.3;;;;;;;0.5450606;-1.5276955;0.5564745;;;;;;;;;;;;
1837.0;1749.3;;;;;;;;;;6.14948;19.60814;-0.9727775;;;;;;;;;
1837.0;1749.3;;;;;;;0.5216834;-1.5190893;0.52821434;;;;;;;;;;;;
1837.0;1749.8;;;;-0.2560158;0.7770158;0.4911576;;;;;;;;;;;;;;;
1837.0;1749.8;;;;-0.24776843;0.7800485;0.48332602;;;;;;;;;;;;;;;
1837.0;1749.8;;;;-0.2427521;0.78123105;0.47788626;;;;;;;;;;;;;;;
1837.0;1749.8;;;;-0.23782733;0.7812501;0.47311026;;;;;;;;;;;;;;;
1837.0;1749.8;;;;-0.23264697;0.7807771;0.47129065;;;;;;;;;;;;;;;
1839.0;1758.8;;;;;;;;;;8.110294;20.500809;-8.011109;;;;;;;;;
1839.0;1758.8;;;;;;;0.5002594;-1.5112156;0.50160223;;;;;;;;;;;;
1839.0;1758.8;;;;;;;;;;5.2339244;-17.662586;-37.133396;;;;;;;;;
1839.0;1758.8;;;;;;;0.48103276;-1.5040132;0.4760277;;;;;;;;;;;;
1839.0;1759.8;;;;-0.22744372;0.7796861;0.4688645;;;;;;;;;;;;;;;
1839.0;1759.8;;;;-0.22274783;0.78039944;0.46750647;;;;;;;;;;;;;;;
1839.0;1759.8;;;;-0.21818927;0.7808534;0.46352392;;;;;;;;;;;;;;;
1839.0;1759.8;;;;-0.21437076;0.7797357;0.4593392;;;;;;;;;;;;;;;
1839.0;1759.8;;;;-0.21141055;0.7795526;0.4575768;;;;;;;;;;;;;;;
1839.0;1762.6;262143;262143;10867;;;;;;;;;;;;;;;;;;
1839.0;1768.5;;;;;;;;;;8.014924;-23.171179;-47.078617;;;;;;;;;
1839.0;1768.5;;;;;;;0.47151098;-1.4935758;0.45796075;;;;;;;;;;;;
1839.0;1768.5;;;;;;;;;;11.642812;-30.224768;-57.61513;;;;;;;;;
1839.0;1768.5;;;;;;;0.46436965;-1.4857631;0.44538713;;;;;;;;;;;;
1839.0;1768.8;;;;;;;;;;;;;-570;;;;;;;;
1839.0;1768.8;;;;;;;;;;;;;-490;;;;;;;;
1839.0;1768.8;;;;;;;;;;;;;-171;;;;;;;;
1839.0;1768.8;;;;;;;;;;;;;208;;;;;;;;
1839.0;1768.8;;;;;;;;;;;;;598;;;;;;;;
1839.0;1769.9;;;;-0.20888904;0.77746594;0.45688254;;;;;;;;;;;;;;;
1839.0;1769.9;;;;-0.20847705;0.7759553;0.45712668;;;;;;;;;;;;;;;
1839.0;1769.9;;;;-0.20938495;0.7746507;0.4568482;;;;;;;;;;;;;;;
1839.0;1769.9;;;;-0.20982745;0.77238095;0.45656973;;;;;;;;;;;;;;;
1839.0;1769.9;;;;-0.21262744;0.7696878;0.4573441;;;;;;;;;;;;;;;
1841.0;1778.1;;;;;;;;;;15.121922;-30.636768;-61.86865;;;;;;;;;
1841.0;1778.1;;;;;;;0.45979187;-1.4648885;0.4358043;;;;;;;;;;;;
1841.0;1778.1;;;;;;;;;;17.170475;-28.405102;-60.11383;;;;;;;;;
1841.0;1778.1;;;;;;;0.45460373;-1.4340037;0.4288461;;;;;;;;;;;;
1841.0;1780.0;;;;-0.21597674;0.7669908;0.45618445;;;;;;;;;;;;;;;
1841.0;1780.0;;;;-0.21733859;0.7629777;0.45486838;;;;;;;;;;;;;;;
1841.0;1780.0;;;;-0.21961215;0.75784314;0.4524384;;;;;;;;;;;;;;;
1841.0;1780.0;;;;-0.2220917;0.7512437;0.4505387;;;;;;;;;;;;;;;
1841.0;1780.0;;;;-0.22524646;0.74441534;0.44953924;;;;;;;;;;;;;;;
1841.0;1782.9;262143;262143;10869;;;;;;;;;;;;;;;;;;
1841.0;1786.8;;;;;;;;;;;;;;;;;-13.714254;-5.989258;-61.944942;;1648.0
1841.0;1786.8;;;;;;;;;;;;;;0.9630421;0.6252632;0.0999176;;;;;1648.0
1841.0;1786.8;;;;;;;;;;;;;;;;;-21.91229;-6.4355907;-58.664207;;1648.0
1841.0;1786.8;;;;;;;;;;;;;;0.9352092;0.5717948;0.10290842;;;;;1648.0
1841.0;1786.8;;;;;;;;;;;;;;;;;-28.22199;-6.8361464;-54.750206;;1657.7
1841.0;1786.8;;;;;;;;;;;;;;0.90066224;0.5227821;0.122562334;;;;;1657.7
1841.0;1786.8;;;;;;;;;;;;;;;;;-33.158363;-7.953887;-50.366985;;1657.7
1841.0;1786.8;;;;;;;;;;;;;;0.85659355;0.47523424;0.14270455;;;;;1657.7
1841.0;1786.8;;;;;;;;;;;;;;;;;-37.598804;-9.769737;-44.763023;;1667.3
1841.0;1786.8;;;;;;;;;;;;;;0.80782497;0.42518386;0.15692617;;;;;1667.3
1841.0;1786.8;;;;;;;;;;;;;;;;;-41.97821;-11.963256;-38.533436;;1667.3
1841.0;1786.8;;;;;;;;;;;;;;0.7689444;0.37519455;0.16956083;;;;;1667.3
1842.0;1787.8;;;;;;;;;;;;;;;;;-46.189762;-13.672293;-32.37251;;1677.0
1842.0;1787.8;;;;;;;;;;;;;;0.7199927;0.32905057;0.17084262;;;;;1677.0
1842.0;1787.8;;;;;;;;;;;;;;;;;-50.21439;-14.255959;-26.03229;;1677.0
1842.0;1787.8;;;;;;;;;;;;;;0.6648152;0.28632465;0.16290781;;;;;1677.0
1842.0;1787.8;;;;;;;;;;;;;;;;;-53.62102;-14.275033;-20.062105;;1686.6
1842.0;1787.8;;;;;;;;;;;;;;0.6317331;0.25617236;0.14508499;;;;;1686.6
1842.0;1787.8;;;;;;;;;;;;;;;;;-55.3415;-13.817255;-14.229255;;1686.6
1842.0;1787.8;;;;;;;;;;;;;;0.6006043;0.22602008;0.12939848;;;;;1686.6
1842.0;1787.8;;;;;;;;;;;;;;;;;-55.35676;-13.618885;-8.484145;;1696.2
1842.0;1787.8;;;;;;;;;;;;;;0.56215096;0.1944029;0.103274636;;;;;1696.2
1842.0;1787.8;;;;;;;;;;;;;;;;;-53.094578;-13.607441;-2.3880734;;1696.2
1842.0;1787.8;;;;;;;;;;;;;;0.5277871;0.16382337;0.081789605;;;;;1696.2
1842.0;1787.5;;;;;;;;;;19.054995;-33.413956;-63.016907;;;;;;;;;
1842.0;1787.5;;;;;;;0.4549089;-1.394818;0.4250618;;;;;;;;;;;;
1842.0;1787.5;;;;;;;;;;20.851772;-38.03751;-66.3625;;;;;;;;;
1842.0;1787.5;;;;;;;0.45631275;-1.3490402;0.42518386;;;;;;;;;;;;
1845.0;1788.9;;;;;;;;;;;;;;;;;-49.058506;-13.9965515;3.5744805;;1705.9
1845.0;1788.9;;;;;;;;;;;;;;0.5088046;0.13043611;0.051759392;;;;;1705.9
1845.0;1788.9;;;;;;;;;;;;;;;;;-42.88232;-14.072847;9.289071;;1705.9
1845.0;1788.9;;;;;;;;;;;;;;0.48231453;0.10876797;0.02557451;;;;;1705.9
1845.0;1788.9;;;;;;;;;;;;;;;;;-35.7181;-13.370922;15.140995;;1715.6
1845.0;1788.9;;;;;;;;;;;;;;0.46394238;0.08917508;-0.0014038514;;;;;1715.6
1845.0;1788.9;;;;;;;;;;;;;;;;;-27.775658;-11.37196;21.408735;;1715.6
1845.0;1788.9;;;;;;;;;;;;;;0.43220314;0.0672628;-0.022034364;;;;;1715.6
1845.0;1788.9;;;;;;;;;;;;;;;;;-19.970549;-9.025849;27.550583;;1725.2
1845.0;1788.9;;;;;;;;;;;;;;0.40321055;0.04449599;-0.03930784;;;;;1725.2
1845.0;1788.9;;;;;;;;;;;;;;;;;-12.405774;-6.637776;33.673363;;1725.2
1845.0;1788.9;;;;;;;;;;;;;;0.3812372;0.022217475;-0.05328532;;;;;1725.2
1845.0;1789.9;;;;-0.22827914;0.73779684;0.4500199;;;;;;;;;;;;;;;
1845.0;1789.9;;;;-0.23122409;0.732132;0.45000845;;;;;;;;;;;;;;;
1845.0;1789.9;;;;-0.23202518;0.72735983;0.4507218;;;;;;;;;;;;;;;
1845.0;1789.9;;;;-0.231823;0.7201043;0.44991308;;;;;;;;;;;;;;;
1845.0;1789.9;;;;-0.23247913;0.71422964;0.4489022;;;;;;;;;;;;;;;
1845.0;1797.1;;;;;;;;;;22.1984;-41.657764;-69.76531;;;;;;;;;
1845.0;1797.1;;;;;;;0.46205023;-1.3014313;0.42396313;;;;;;;;;;;;
1845.0;1797.1;;;;;;;;;;23.144474;-44.17173;-73.08038;;;;;;;;;
1845.0;1797.1;;;;;;;0.46797082;-1.2539445;0.4248787;;;;;;;;;;;;
1899.0;1800.0;;;;-0.23400119;0.7087708;0.44876486;;;;;;;;;;;;;;;
1899.0;1800.0;;;;-0.23710635;0.70332724;0.44772726;;;;;;;;;;;;;;;
1899.0;1800.0;;;;-0.24082568;0.6976815;0.4468766;;;;;;;;;;;;;;;
1899.0;1800.0;;;;-0.2436333;0.69237524;0.44593817;;;;;;;;;;;;;;;
1899.0;1800.0;;;;-0.24650195;0.6881562;0.4432717;;;;;;;;;;;;;;;
1899.0;1802.8;262143;262143;10869;;;;;;;;;;;;;;;;;;
1899.0;1806.6;;;;;;;;;;23.735771;-46.06006;-76.193275;;;;;;;;;
1899.0;1806.6;;;;;;;0.4723655;-1.2099369;0.4242683;;;;;;;;;;;;
1899.0;1806.6;;;;;;;;;;23.838772;-46.99469;-78.97045;;;;;;;;;
1899.0;1806.6;;;;;;;0.47688222;-1.1667837;0.42414623;;;;;;;;;;;;
1899.0;1808.9;;;;;;;;;;;;;954;;;;;;;;
1899.0;1808.9;;;;;;;;;;;;;1334;;;;;;;;
1899.0;1808.9;;;;;;;;;;;;;1991;;;;;;;;
1899.0;1808.9;;;;;;;;;;;;;3008;;;;;;;;
1899.0;1808.9;;;;;;;;;;;;;4047;;;;;;;;
1899.0;1810.0;;;;-0.24968341;0.684372;0.44095236;;;;;;;;;;;;;;;
1899.0;1810.0;;;;-0.25288394;0.6806298;0.4373284;;;;;;;;;;;;;;;
1899.0;1810.0;;;;-0.25568393;0.6775437;0.4328919;;;;;;;;;;;;;;;
1899.0;1810.0;;;;-0.25959018;0.6742669;0.42784888;;;;;;;;;;;;;;;
1899.0;1810.0;;;;-0.26520923;0.67226034;0.42193228;;;;;;;;;;;;;;;
1899.0;1815.9;;;;;;;;;;23.644215;-47.055725;-81.85827;;;;;;;;;
1899.0;1815.9;;;;;;;0.4771264;-1.1258278;0.4201178;;;;;;;;;;;;
1899.0;1815.9;;;;;;;;;;23.468735;-46.70095;-84.48668;;;;;;;;;
1899.0;1815.9;;;;;;;0.47444075;-1.0925016;0.41688284;;;;;;;;;;;;
1900.0;1819.8;;;;-0.2711487;0.6696244;0.41587073;;;;;;;;;;;;;;;
1900.0;1819.8;;;;-0.27674487;0.6662522;0.41008765;;;;;;;;;;;;;;;
1900.0;1819.8;;;;-0.28229526;0.6634827;0.40548712;;;;;;;;;;;;;;;
1900.0;1819.8;;;;-0.28567508;0.6611405;0.40373617;;;;;;;;;;;;;;;
1900.0;1819.8;;;;-0.28907397;0.65913016;0.4017716;;;;;;;;;;;;;;;
1900.0;1822.8;262143;262143;10877;;;;;;;;;;;;;;;;;;
1900.0;1825.6;;;;;;;;;;23.55266;-46.182133;-86.76794;;;;;;;;;
1900.0;1825.6;;;;;;;0.4693747;-1.0598468;0.4143803;;;;;;;;;;;;
1900.0;1825.6;;;;;;;;;;23.54503;-45.194096;-88.869896;;;;;;;;;
1900.0;1825.6;;;;;;;0.46980193;-1.030549;0.4107181;;;;;;;;;;;;
1900.0;1829.9;;;;-0.2915688;0.6574059;0.39958197;;;;;;;;;;;;;;;
1900.0;1829.9;;;;-0.29423907;0.65640646;0.39711386;;;;;;;;;;;;;;;
1900.0;1829.9;;;;-0.2975388;0.65471655;0.39422232;;;;;;;;;;;;;;;
1900.0;1829.9;;;;-0.30066684;0.65219504;0.39116293;;;;;;;;;;;;;;;
1900.0;1829.9;;;;-0.304657;0.65048987;0.38921362;;;;;;;;;;;;;;;
1900.0;1835.2;;;;;;;;;;23.438215;-43.843655;-90.93371;;;;;;;;;
1900.0;1835.2;;;;;;;0.46931365;-1.0010071;0.40705588;;;;;;;;;;;;
1900.0;1835.2;;;;;;;;;;23.445845;-42.512283;-92.77245;;;;;;;;;
1900.0;1835.2;;;;;;;0.46485794;-0.9754936;0.40595722;;;;;;;;;;;;
1905.0;1840.0;;;;-0.30845645;0.6499863;0.38813406;;;;;;;;;;;;;;;
1905.0;1840.0;;;;-0.31242755;0.6485787;0.38690192;;;;;;;;;;;;;;;
1905.0;1840.0;;;;-0.3160248;0.6465569;0.3860131;;;;;;;;;;;;;;;
1905.0;1840.0;;;;-0.3211861;0.644352;0.38636404;;;;;;;;;;;;;;;
1905.0;1840.0;;;;-0.32600024;0.6413079;0.38540274;;;;;;;;;;;;;;;
1905.0;1843.1;262143;262143;10877;;;;;;;;;;;;;;;;;;
1905.0;1844.8;;;;;;;;;;23.792994;-41.24195;-94.19157;;;;;;;;;
1905.0;1844.8;;;;;;;0.45564136;-0.9506516;0.3986938;;;;;;;;;;;;
1905.0;1844.8;;;;;;;;;;24.189734;-39.761803;-95.19868;;;;;;;;;
1905.0;1844.8;;;;;;;0.44441053;-0.9272134;0.39155248;;;;;;;;;;;;
1905.0;1847.0;;;;;;;;;;;;;;;;;-4.871517;-4.669332;40.11658;;1734.9
1905.0;1847.0;;;;;;;;;;;;;;0.36335337;4.2725913E-4;-0.06567583;;;;;1734.9
1905.0;1847.0;;;;;;;;;;;;;;;;;2.4605548;-3.0976286;46.88406;;1734.9
1905.0;1847.0;;;;;;;;;;;;;;0.3491928;-0.025879696;-0.06823939;;;;;1734.9
1905.0;1847.0;;;;;;;;;;;;;;;;;9.338664;-2.170629;53.609577;;1744.5
1905.0;1847.0;;;;;;;;;;;;;;0.34205145;-0.043397322;-0.06256294;;;;;1744.5
1905.0;1847.0;;;;;;;;;;;;;;;;;15.614033;-2.3041475;60.628834;;1744.5
1905.0;1847.0;;;;;;;;;;;;;;0.34290597;-0.054750208;-0.057863094;;;;;1744.5
1905.0;1847.0;;;;;;;;;;;;;;;;;20.69155;-1.945555;67.88079;;1754.1
1905.0;1847.0;;;;;;;;;;;;;;0.32984406;-0.06280709;-0.045228433;;;;;1754.1
1905.0;1847.0;;;;;;;;;;;;;;;;;24.716179;-1.6747032;74.75509;;1754.1
1905.0;1847.0;;;;;;;;;;;;;;0.34168524;-0.05566576;-0.028321177;;;;;1754.1
1906.0;1847.8;;;;;;;;;;;;;;;;;28.153324;-1.5907773;82.10242;;1763.8
1906.0;1847.8;;;;;;;;;;;;;;0.35798213;-0.05267495;-0.018372143;;;;;1763.8
1906.0;1847.8;;;;;;;;;;;;;;;;;30.800806;-0.3013703;88.354904;;1763.8
1906.0;1847.8;;;;;;;;;;;;;;0.3754387;-0.04321421;-0.0048829615;;;;;1763.8
1906.0;1847.8;;;;;;;;;;;;;;;;;34.04721;1.1177404;94.47768;;1773.5
1906.0;1847.8;;;;;;;;;;;;;;0.3980224;-0.035950806;0.006042665;;;;;1773.5
1906.0;1847.8;;;;;;;;;;;;;;;;;38.19773;2.3422956;99.74975;;1773.5
1906.0;1847.8;;;;;;;;;;;;;;0.40937528;-0.031861324;0.016846217;;;;;1773.5
1906.0;1847.8;;;;;;;;;;;;;;;;;43.279064;2.7199624;103.82778;;1783.2
1906.0;1847.8;;;;;;;;;;;;;;0.42036194;-0.020813623;0.027771844;;;;;1783.2
1906.0;1847.8;;;;;;;;;;;;;;;;;49.6498;1.1368145;107.882935;;1783.2
1906.0;1847.8;;;;;;;;;;;;;;0.44404432;-0.0046388134;0.026795251;;;;;1783.2
1906.0;1849.0;;;;;;;;;;;;;4672;;;;;;;;
1906.0;1849.0;;;;;;;;;;;;;4757;;;;;;;;
1906.0;1849.0;;;;;;;;;;;;;4606;;;;;;;;
1906.0;1849.0;;;;;;;;;;;;;4632;;;;;;;;
1906.0;1849.0;;;;;;;;;;;;;5631;;;;;;;;
1906.0;1849.9;;;;-0.33075717;0.63867956;0.3845902;;;;;;;;;;;;;;;
1906.0;1849.9;;;;-0.33583072;0.6369515;0.384224;;;;;;;;;;;;;;;
1906.0;1849.9;;;;-0.34020236;0.63465506;0.38331228;;;;;;;;;;;;;;;
1906.0;1849.9;;;;-0.34505466;0.6313897;0.38216025;;;;;;;;;;;;;;;
1906.0;1849.9;;;;-0.34888843;0.62821966;0.38239676;;;;;;;;;;;;;;;
1906.0;1854.1;;;;;;;;;;24.643698;-37.789547;-95.98453;;;;;;;;;
1906.0;1854.1;;;;;;;0.43488875;-0.9006012;0.38306832;;;;;;;;;;;;
1906.0;1854.1;;;;;;;;;;24.891659;-35.40147;-96.73986;;;;;;;;;
1906.0;1854.1;;;;;;;0.43018892;-0.87350076;0.37537766;;;;;;;;;;;;
1958.0;1859.9;;;;-0.35343173;0.62569433;0.38203055;;;;;;;;;;;;;;;
1958.0;1859.9;;;;-0.35704806;0.62379843;0.38228232;;;;;;;;;;;;;;;
1958.0;1859.9;;;;-0.36169055;0.6223679;0.38187414;;;;;;;;;;;;;;;
1958.0;1859.9;;;;-0.36705783;0.6198464;0.38061148;;;;;;;;;;;;;;;
1958.0;1859.9;;;;-0.3722382;0.61687475;0.37995917;;;;;;;;;;;;;;;
1958.0;1862.9;262143;262143;10869;;;;;;;;;;;;;;;;;;
1958.0;1863.6;;;;;;;;;;25.101473;-32.631916;-97.49519;;;;;;;;;
1958.0;1863.6;;;;;;;0.42597735;-0.84756005;0.3686636;;;;;;;;;;;;
1958.0;1863.6;;;;;;;;;;25.490585;-29.782251;-98.05598;;;;;;;;;
1958.0;1863.6;;;;;;;0.41694388;-0.82399976;0.3620716;;;;;;;;;;;;
1958.0;1869.9;;;;-0.37724692;0.61529166;0.3800469;;;;;;;;;;;;;;;
1958.0;1869.9;;;;-0.38143927;0.6139069;0.37915045;;;;;;;;;;;;;;;
1958.0;1869.9;;;;-0.38579184;0.6131821;0.37876135;;;;;;;;;;;;;;;
1958.0;1869.9;;;;-0.388691;0.6123391;0.37982184;;;;;;;;;;;;;;;
1958.0;1869.9;;;;-0.39236075;0.6118279;0.38020712;;;;;;;;;;;;;;;
1958.0;1873.1;;;;;;;;;;25.952177;-26.886808;-98.307755;;;;;;;;;
1958.0;1873.1;;;;;;;0.40797144;-0.8005005;0.35749382;;;;;;;;;;;;
1958.0;1873.1;;;;;;;;;;26.444288;-24.006622;-98.23527;;;;;;;;;
1958.0;1873.1;;;;;;;0.40058595;-0.77480394;0.35236672;;;;;;;;;;;;
1962.0;1879.8;;;;-0.39578635;0.6119576;0.38105017;;;;;;;;;;;;;;;
1962.0;1879.8;;;;-0.39888388;0.6111298;0.38088614;;;;;;;;;;;;;;;
1962.0;1879.8;;;;-0.40118796;0.61043173;0.3808747;;;;;;;;;;;;;;;
1962.0;1879.8;;;;-0.4038239;0.6091462;0.38102728;;;;;;;;;;;;;;;
1962.0;1879.8;;;;-0.40668112;0.60809714;0.38154227;;;;;;;;;;;;;;;
1962.0;1882.7;;;;;;;;;;26.985992;-21.22181;-97.88431;;;;;;;;;
1962.0;1882.7;;;;;;;0.39167455;-0.7520371;0.34589678;;;;;;;;;;;;
1962.0;1882.7;;;;;;;;;;27.474287;-18.517105;-97.415085;;;;;;;;;
1962.0;1882.7;;;;;;;0.38666952;-0.7253639;0.34235665;;;;;;;;;;;;
1962.0;1882.9;262143;262143;10875;;;;;;;;;;;;;;;;;;
1962.0;1889.1;;;;;;;;;;;;;7199;;;;;;;;
1962.0;1889.1;;;;;;;;;;;;;4774;;;;;;;;
1962.0;1889.1;;;;;;;;;;;;;-5113;;;;;;;;
1962.0;1889.1;;;;;;;;;;;;;-16735;;;;;;;;
1962.0;1889.1;;;;;;;;;;;;;-19486;;;;;;;;
1962.0;1889.9;;;;-0.40925604;0.60700613;0.38105398;;;;;;;;;;;;;;;
1962.0;1889.9;;;;-0.41104895;0.6069947;0.38070685;;;;;;;;;;;;;;;
1962.0;1889.9;;;;-0.4118653;0.6062699;0.38054663;;;;;;;;;;;;;;;
1962.0;1889.9;;;;-0.4132157;0.6052781;0.38119513;;;;;;;;;;;;;;;
1962.0;1889.9;;;;-0.4149552;0.6058999;0.38089758;;;;;;;;;;;;;;;
1962.0;1892.3;;;;;;;;;;27.993103;-15.850552;-96.86194;;;;;;;;;
1962.0;1892.3;;;;;;;0.38026062;-0.7012543;0.33936584;;;;;;;;;;;;
1962.0;1892.3;;;;;;;;;;28.576769;-13.302256;-96.26682;;;;;;;;;
1962.0;1892.3;;;;;;;0.37372968;-0.67702264;0.3333842;;;;;;;;;;;;
1963.0;1900.1;;;;-0.41704184;0.6070939;0.3808251;;;;;;;;;;;;;;;
1963.0;1900.1;;;;-0.41830832;0.6078759;0.3807984;;;;;;;;;;;;;;;
1963.0;1900.1;;;;-0.4195214;0.60968786;0.37990195;;;;;;;;;;;;;;;
1963.0;1900.1;;;;-0.42124182;0.610817;0.3792115;;;;;;;;;;;;;;;
1963.0;1900.1;;;;-0.4219666;0.61178976;0.38026816;;;;;;;;;;;;;;;
1963.0;1901.9;;;;;;;;;;29.240547;-10.670034;-95.591606;;;;;;;;;
1963.0;1901.9;;;;;;;0.36805323;-0.65346235;0.32996613;;;;;;;;;;;;
1963.0;1901.9;;;;;;;;;;29.98062;-8.220923;-94.80193;;;;;;;;;
1963.0;1901.9;;;;;;;0.36036256;-0.62977993;0.3238014;;;;;;;;;;;;
1963.0;1903.2;262143;262143;10880;;;;;;;;;;;;;;;;;;
1963.0;1907.3;;;;;;;;;;;;;;;;;57.195503;-1.1749626;111.777855;;1792.7
1963.0;1907.3;;;;;;;;;;;;;;0.46687216;0.021973327;0.014221625;;;;;1792.7
1963.0;1907.3;;;;;;;;;;;;;;;;;64.07742;-3.0632956;114.70382;;1792.7
1963.0;1907.3;;;;;;;;;;;;;;0.48304698;0.06164739;0.009643849;;;;;1792.7
1963.0;1907.3;;;;;;;;;;;;;;;;;69.45249;-5.035554;116.22593;;1802.3
1963.0;1907.3;;;;;;;;;;;;;;0.5055086;0.122562334;0.028199103;;;;;1802.3
1963.0;1907.3;;;;;;;;;;;;;;;;;71.73376;-8.949553;117.68319;;1802.3
1963.0;1907.3;;;;;;;;;;;;;;0.5373699;0.17670217;0.022339549;;;;;1802.3
1963.0;1907.3;;;;;;;;;;;;;;;;;72.8019;-11.654256;118.049416;;1811.8
1963.0;1907.3;;;;;;;;;;;;;;0.5691702;0.24048586;0.021423994;;;;;1811.8
1963.0;1907.3;;;;;;;;;;;;;;;;;71.23402;-13.454848;117.87393;;1811.8
1963.0;1907.3;;;;;;;;;;;;;;0.5949889;0.2973113;-0.0024414808;;;;;1811.8
1964.0;1908.4;;;;;;;;;;;;;;;;;68.85738;-13.1801815;117.69845;;1821.5
1964.0;1908.4;;;;;;;;;;;;;;0.6205634;0.33838925;-0.039063692;;;;;1821.5
1964.0;1908.4;;;;;;;;;;;;;;;;;67.5985;-10.708182;117.16819;;1821.5
1964.0;1908.4;;;;;;;;;;;;;;0.63667715;0.3582873;-0.0695822;;;;;1821.5
1964.0;1908.4;;;;;;;;;;;;;;;;;68.28135;-8.098849;115.89404;;1831.1
1964.0;1908.4;;;;;;;;;;;;;;0.654561;0.40137944;-0.08929716;;;;;1831.1
1964.0;1908.4;;;;;;;;;;;;;;;;;69.856865;-6.275368;115.40575;;1831.1
1964.0;1908.4;;;;;;;;;;;;;;0.674398;0.403943;-0.11957152;;;;;1831.1
1964.0;1908.4;;;;;;;;;;;;;;;;;74.5262;-5.043184;113.43349;;1840.7
1964.0;1908.4;;;;;;;;;;;;;;0.70094913;0.42640463;-0.13745537;;;;;1840.7
1964.0;1908.4;;;;;;;;;;;;;;;;;79.68764;-5.7374797;110.64485;;1840.7
1964.0;1908.4;;;;;;;;;;;;;;0.73574024;0.45692313;-0.15912351;;;;;1840.7
1964.0;1910.0;;;;-0.4249764;0.61505514;0.37925726;;;;;;;;;;;;;;;
1964.0;1910.0;;;;-0.4290238;0.6182175;0.37743384;;;;;;;;;;;;;;;
1964.0;1910.0;;;;-0.43280798;0.6220971;0.3772164;;;;;;;;;;;;;;;
1964.0;1910.0;;;;-0.43614203;0.62619406;0.37780386;;;;;;;;;;;;;;;
1964.0;1910.0;;;;-0.43693548;0.6292077;0.37619787;;;;;;;;;;;;;;;
1964.0;1911.4;;;;;;;;;;30.854214;-6.496628;-93.97031;;;;;;;;;
1964.0;1911.4;;;;;;;0.34949797;-0.61000395;0.3227027;;;;;;;;;;;;
1964.0;1911.4;;;;;;;;;;31.991028;-5.760369;-93.03949;;;;;;;;;
1964.0;1911.4;;;;;;;0.3348491;-0.588641;0.31348613;;;;;;;;;;;;
2019.0;1920.1;;;;-0.43729788;0.63159186;0.37601095;;;;;;;;;;;;;;;
2019.0;1920.1;;;;-0.439663;0.63387305;0.3766938;;;;;;;;;;;;;;;
2019.0;1920.1;;;;-0.44379812;0.63703924;0.37617117;;;;;;;;;;;;;;;
2019.0;1920.1;;;;-0.44780356;0.63922507;0.37649542;;;;;;;;;;;;;;;
2019.0;1920.1;;;;-0.45109564;0.64215475;0.37644202;;;;;;;;;;;;;;;
2019.0;1921.0;;;;;;;;;;32.403027;-4.0017395;-91.9599;;;;;;;;;
2019.0;1921.0;;;;;;;0.33069858;-0.5595874;0.2961516;;;;;;;;;;;;
2019.0;1921.0;;;;;;;;;;32.479324;-1.4152958;-90.849785;;;;;;;;;
2019.0;1921.0;;;;;;;0.32862332;-0.5317545;0.30384228;;;;;;;;;;;;
2019.0;1923.2;262143;262143;10870;;;;;;;;;;;;;;;;;;
2019.0;1929.3;;;;;;;;;;;;;-10390;;;;;;;;
2019.0;1929.3;;;;;;;;;;;;;2213;;;;;;;;
2019.0;1929.3;;;;;;;;;;;;;9043;;;;;;;;
2019.0;1929.3;;;;;;;;;;;;;9434;;;;;;;;
2019.0;1929.3;;;;;;;;;;;;;8403;;;;;;;;
2019.0;1930.1;;;;-0.45426565;0.64418036;0.3763848;;;;;;;;;;;;;;;
2019.0;1930.1;;;;-0.45800787;0.64659125;0.37583166;;;;;;;;;;;;;;;
2019.0;1930.1;;;;-0.4598351;0.6505967;0.37779242;;;;;;;;;;;;;;;
2019.0;1930.1;;;;-0.46027;0.6543885;0.37915426;;;;;;;;;;;;;;;
2019.0;1930.1;;;;-0.46155936;0.6570321;0.37917715;;;;;;;;;;;;;;;
2019.0;1930.5;;;;;;;;;;33.90225;-1.8883327;-89.92278;;;;;;;;;
2019.0;1930.5;;;;;;;0.31580552;-0.51155126;0.2878506;;;;;;;;;;;;
2019.0;1930.5;;;;;;;;;;34.752953;-1.4343699;-88.86227;;;;;;;;;
2019.0;1930.5;;;;;;;0.31104466;-0.49287394;0.2809534;;;;;;;;;;;;
2021.0;1939.9;;;;;;;;;;35.374767;-0.40437025;-87.61483;;;;;;;;;
2021.0;1939.9;;;;;;;0.30286568;-0.47572252;0.27582628;;;;;;;;;;;;
2021.0;1939.9;;;;;;;;;;36.057617;0.56840724;-86.06602;;;;;;;;;
2021.0;1939.9;;;;;;;0.29987487;-0.46290475;0.26557207;;;;;;;;;;;;
2021.0;1939.9;;;;-0.4642411;0.6584969;0.37704092;;;;;;;;;;;;;;;
2021.0;1939.9;;;;-0.46674353;0.6610909;0.37834936;;;;;;;;;;;;;;;
2021.0;1939.9;;;;-0.46768957;0.66325766;0.38160712;;;;;;;;;;;;;;;
2021.0;1939.9;;;;-0.4692536;0.6653214;0.38345724;;;;;;;;;;;;;;;
2021.0;1939.9;;;;-0.47170264;0.66766363;0.38343436;;;;;;;;;;;;;;;
2021.0;1943.2;262143;262143;10859;;;;;;;;;;;;;;;;;;
2021.0;1949.5;;;;;;;;;;36.41621;2.067629;-84.52101;;;;;;;;;
2021.0;1949.5;;;;;;;0.29773858;-0.45478684;0.26026186;;;;;;;;;;;;
2021.0;1949.5;;;;;;;;;;36.59551;3.688925;-83.231606;;;;;;;;;
2021.0;1949.5;;;;;;;0.29053622;-0.44758445;0.25696585;;;;;;;;;;;;
2021.0;1950.1;;;;-0.4761315;0.6680222;0.38432318;;;;;;;;;;;;;;;
2021.0;1950.1;;;;-0.48293692;0.6672364;0.38584143;;;;;;;;;;;;;;;
2021.0;1950.1;;;;-0.48979956;0.66631323;0.3866387;;;;;;;;;;;;;;;
2021.0;1950.1;;;;-0.49571997;0.66802984;0.38766104;;;;;;;;;;;;;;;
2021.0;1950.1;;;;-0.49872977;0.6690331;0.3904038;;;;;;;;;;;;;;;
2021.0;1959.2;;;;;;;;;;36.996063;5.069887;-82.0452;;;;;;;;;
2021.0;1959.2;;;;;;;0.2844325;-0.4479507;0.25269327;;;;;;;;;;;;
2021.0;1959.2;;;;;;;;;;37.47673;6.5195165;-80.90838;;;;;;;;;
2021.0;1959.2;;;;;;;0.26862392;-0.44984284;0.24671163;;;;;;;;;;;;
2023.0;1960.2;;;;-0.50059134;0.6702271;0.3944245;;;;;;;;;;;;;;;
2023.0;1960.2;;;;-0.5017281;0.6717263;0.39669043;;;;;;;;;;;;;;;
2023.0;1960.2;;;;-0.5030404;0.67369086;0.39783484;;;;;;;;;;;;;;;
2023.0;1960.2;;;;-0.5063935;0.6740418;0.39789587;;;;;;;;;;;;;;;
2023.0;1960.2;;;;-0.51331335;0.67387396;0.39968878;;;;;;;;;;;;;;;
2023.0;1963.5;262143;262143;10840;;;;;;;;;;;;;;;;;;
2023.0;1967.3;;;;;;;;;;;;;;;;;85.17716;-8.030183;107.54341;;1850.3
2023.0;1967.3;;;;;;;;;;;;;;0.7907346;0.5218665;-0.18494217;;;;;1850.3
2023.0;1967.3;;;;;;;;;;;;;;;;;89.86938;-10.364849;106.410416;;1850.3
2023.0;1967.3;;;;;;;;;;;;;;0.83297217;0.5789361;-0.22486039;;;;;1850.3
2023.0;1967.3;;;;;;;;;;;;;;;;;93.62315;-12.325664;105.55208;;1860.0
2023.0;1967.3;;;;;;;;;;;;;;0.8609882;0.6250801;-0.25971252;;;;;1860.0
2023.0;1967.3;;;;;;;;;;;;;;;;;94.30982;-14.477218;103.08389;;1860.0
2023.0;1967.3;;;;;;;;;;;;;;0.8792993;0.65828425;-0.308298;;;;;1860.0
2023.0;1967.3;;;;;;;;;;;;;;;;;93.07382;-15.343181;99.14319;;1869.4
2023.0;1967.3;;;;;;;;;;;;;;0.8878445;0.7350688;-0.3192236;;;;;1869.4
2023.0;1967.3;;;;;;;;;;;;;;;;;85.53194;-17.071291;97.0336;;1869.4
2023.0;1967.3;;;;;;;;;;;;;;0.88253427;0.77462083;-0.3325297;;;;;1869.4
2024.0;1968.1;;;;;;;;;;;;;;;;;76.044495;-20.226141;96.31642;;1879.0
2024.0;1968.1;;;;;;;;;;;;;;0.8866848;0.7995849;-0.32917264;;;;;1879.0
2024.0;1968.1;;;;;;;;;;;;;;;;;64.75646;-23.373363;95.04608;;1879.0
2024.0;1968.1;;;;;;;;;;;;;;0.8984649;0.8037355;-0.33967102;;;;;1879.0
2024.0;1968.1;;;;;;;;;;;;;;;;;52.838985;-21.851254;92.471085;;1888.7
2024.0;1968.1;;;;;;;;;;;;;;0.92623675;0.8049562;-0.30573443;;;;;1888.7
2024.0;1968.1;;;;;;;;;;;;;;;;;39.864803;-18.898588;90.24705;;1888.7
2024.0;1968.1;;;;;;;;;;;;;;0.9400311;0.84395885;-0.23487045;;;;;1888.7
2024.0;1968.1;;;;;;;;;;;;;;;;;24.132511;-14.568773;89.93804;;1898.4
2024.0;1968.1;;;;;;;;;;;;;;0.9168981;0.8107547;-0.15503404;;;;;1898.4
2024.0;1968.1;;;;;;;;;;;;;;;;;13.920255;-12.710959;86.668755;;1898.4
2024.0;1968.1;;;;;;;;;;;;;;0.8879666;0.8388928;-0.062196724;;;;;1898.4
2024.0;1968.5;;;;;;;;;;37.820065;8.102665;-79.40153;;;;;;;;;
2024.0;1968.5;;;;;;;0.25995666;-0.45301676;0.24201179;;;;;;;;;;;;
2024.0;1968.5;;;;;;;;;;38.369396;9.193701;-77.7955;;;;;;;;;
2024.0;1968.5;;;;;;;0.24970244;-0.45527512;0.23566394;;;;;;;;;;;;
2024.0;1969.4;;;;;;;;;;;;;8501;;;;;;;;
2024.0;1969.4;;;;;;;;;;;;;8435;;;;;;;;
2024.0;1969.4;;;;;;;;;;;;;7788;;;;;;;;
2024.0;1969.4;;;;;;;;;;;;;7351;;;;;;;;
2024.0;1969.4;;;;;;;;;;;;;7264;;;;;;;;
2024.0;1970.0;;;;-0.51889807;0.6764489;0.403431;;;;;;;;;;;;;;;
2024.0;1970.0;;;;-0.5231133;0.6802407;0.40581518;;;;;;;;;;;;;;;
2024.0;1970.0;;;;-0.5257035;0.6845551;0.40715414;;;;;;;;;;;;;;;
2024.0;1970.0;;;;-0.5263024;0.69123846;0.410286;;;;;;;;;;;;;;;
2024.0;1970.0;;;;-0.5268517;0.70034033;0.41294485;;;;;;;;;;;;;;;
2076.0;1978.1;;;;;;;;;;38.98358;10.132145;-76.13987;;;;;;;;;
2076.0;1978.1;;;;;;;0.2501297;-0.45655692;0.22461623;;;;;;;;;;;;
2076.0;1978.1;;;;;;;;;;39.296394;11.013368;-74.465164;;;;;;;;;
2076.0;1978.1;;;;;;;0.25037384;-0.45558032;0.21423994;;;;;;;;;;;;
2076.0;1980.0;;;;-0.5282441;0.70932776;0.41473776;;;;;;;;;;;;;;;
2076.0;1980.0;;;;-0.5293122;0.7173806;0.41776282;;;;;;;;;;;;;;;
2076.0;1980.0;;;;-0.5307732;0.7295914;0.42120367;;;;;;;;;;;;;;;
2076.0;1980.0;;;;-0.5312043;0.7446404;0.4238816;;;;;;;;;;;;;;;
2076.0;1980.0;;;;-0.5295945;0.7600862;0.42753226;;;;;;;;;;;;;;;
2076.0;1983.3;262143;262143;10838;;;;;;;;;;;;;;;;;;
2076.0;1987.6;;;;;;;;;;39.52147;11.76107;-72.634056;;;;;;;;;
2076.0;1987.6;;;;;;;0.24726096;-0.45283365;0.2074038;;;;;;;;;;;;
2076.0;1987.6;;;;;;;;;;39.70458;12.203589;-70.60075;;;;;;;;;
2076.0;1987.6;;;;;;;0.23999757;-0.45338297;0.1986755;;;;;;;;;;;;
2076.0;1990.0;;;;-0.5294152;0.77533734;0.43228155;;;;;;;;;;;;;;;
2076.0;1990.0;;;;-0.5292397;0.79135907;0.43471533;;;;;;;;;;;;;;;
2076.0;1990.0;;;;-0.5303269;0.8102876;0.4395867;;;;;;;;;;;;;;;
2076.0;1990.0;;;;-0.5292817;0.8301889;0.44653708;;;;;;;;;;;;;;;
2076.0;1990.0;;;;-0.5276795;0.84959805;0.45358282;;;;;;;;;;;;;;;
2076.0;1996.9;;;;;;;;;;39.75036;12.48207;-68.563644;;;;;;;;;
2076.0;1996.9;;;;;;;0.23377179;-0.4524674;0.19006927;;;;;;;;;;;;
2076.0;1996.9;;;;;;;;;;39.84191;12.730033;-66.45024;;;;;;;;;
2076.0;1996.9;;;;;;;0.23059785;-0.4504532;0.18250069;;;;;;;;;;;;
2078.0;1999.9;;;;-0.52628714;0.8686067;0.4600907;;;;;;;;;;;;;;;
2078.0;1999.9;;;;-0.52730185;0.8897363;0.4677468;;;;;;;;;;;;;;;
2078.0;1999.9;;;;-0.52880865;0.91134655;0.47651297;;;;;;;;;;;;;;;
2078.0;1999.9;;;;-0.53116614;0.9330636;0.48373038;;;;;;;;;;;;;;;
2078.0;1999.9;;;;-0.5333634;0.9546739;0.48815542;;;;;;;;;;;;;;;
2078.0;2003.3;262143;262143;10837;;;;;;;;;;;;;;;;;;
2078.0;2006.5;;;;;;;;;;39.84191;13.039033;-64.27961;;;;;;;;;
2078.0;2006.5;;;;;;;0.23041475;-0.44721824;0.17462692;;;;;;;;;;;;
2078.0;2006.5;;;;;;;;;;39.567245;13.725699;-62.07465;;;;;;;;;
2078.0;2006.5;;;;;;;0.23126927;-0.44331187;0.17102572;;;;;;;;;;;;
2078.0;2009.4;;;;;;;;;;;;;7597;;;;;;;;
2078.0;2009.4;;;;;;;;;;;;;8055;;;;;;;;
2078.0;2009.4;;;;;;;;;;;;;8086;;;;;;;;
2078.0;2009.4;;;;;;;;;;;;;7779;;;;;;;;
2078.0;2009.4;;;;;;;;;;;;;7434;;;;;;;;
2078.0;2010.0;;;;-0.5359612;0.9766618;0.49280936;;;;;;;;;;;;;;;
2078.0;2010.0;;;;-0.53906256;0.9979974;0.4976731;;;;;;;;;;;;;;;
2078.0;2010.0;;;;-0.54266363;1.0199167;0.50555426;;;;;;;;;;;;;;;
2078.0;2010.0;;;;-0.5459481;1.0429345;0.5130463;;;;;;;;;;;;;;;
2078.0;2010.0;;;;-0.54694754;1.0673219;0.52016455;;;;;;;;;;;;;;;
2078.0;2016.2;;;;;;;;;;39.059875;14.355144;-59.686577;;;;;;;;;
2078.0;2016.2;;;;;;;0.23584704;-0.43995485;0.1727958;;;;;;;;;;;;
2078.0;2016.2;;;;;;;;;;38.99884;14.000366;-57.370983;;;;;;;;;
2078.0;2016.2;;;;;;;0.23358867;-0.44587544;0.17017122;;;;;;;;;;;;
2085.0;2020.1;;;;-0.5476418;1.0914193;0.5286141;;;;;;;;;;;;;;;
2085.0;2020.1;;;;-0.54661185;1.1156503;0.53628165;;;;;;;;;;;;;;;
2085.0;2020.1;;;;-0.5459748;1.1400224;0.5426293;;;;;;;;;;;;;;;
2085.0;2020.1;;;;-0.5478402;1.1638223;0.5483323;;;;;;;;;;;;;;;
2085.0;2020.1;;;;-0.5505143;1.1854974;0.552887;;;;;;;;;;;;;;;
2085.0;2023.6;262143;262143;10831;;;;;;;;;;;;;;;;;;
2085.0;2025.8;;;;;;;;;;38.888214;14.545885;-55.036316;;;;;;;;;
2085.0;2025.8;;;;;;;0.22571489;-0.4456923;0.16864528;;;;;;;;;;;;
2085.0;2025.8;;;;;;;;;;38.4991;15.789515;-52.426983;;;;;;;;;
2085.0;2025.8;;;;;;;0.22180852;-0.45277262;0.17188025;;;;;;;;;;;;
2085.0;2027.6;;;;;;;;;;;;;;;;;3.6088138;-15.373699;83.28501;;1908.0
2085.0;2027.6;;;;;;;;;;;;;;0.8669088;0.86684775;-0.020813623;;;;;1908.0
2085.0;2027.6;;;;;;;;;;;;;;;;;-2.7199624;-17.075106;79.882195;;1908.0
2085.0;2027.6;;;;;;;;;;;;;;0.8400525;0.858974;0.0041505173;;;;;1908.0
2085.0;2027.6;;;;;;;;;;;;;;;;;-4.7875915;-15.648365;74.293495;;1917.7
2085.0;2027.6;;;;;;;;;;;;;;0.8199103;0.8451186;0.032837916;;;;;1917.7
2085.0;2027.6;;;;;;;;;;;;;;;;;-3.8262582;-11.257515;67.59087;;1917.7
2085.0;2027.6;;;;;;;;;;;;;;0.82790613;0.8402966;0.0910062;;;;;1917.7
2085.0;2027.6;;;;;;;;;;;;;;;;;-0.3852962;-4.1734066;60.65935;;1927.0
2085.0;2027.6;;;;;;;;;;;;;;0.8924833;0.8352306;0.24695578;;;;;1927.0
2085.0;2027.6;;;;;;;;;;;;;;;;;1.6518143;-10.620441;53.941467;;1927.0
2085.0;2027.6;;;;;;;;;;;;;;0.95358133;0.85854673;0.22113712;;;;;1927.0
2086.0;2028.2;;;;;;;;;;;;;;;;;-1.2779626;-26.92877;46.746727;;1936.7
2086.0;2028.2;;;;;;;;;;;;;;1.1308328;0.87978756;0.14746544;;;;;1936.7
2086.0;2028.2;;;;;;;;;;;;;;;;;-4.036073;-33.669548;40.82232;;1936.7
2086.0;2028.2;;;;;;;;;;;;;;1.3151647;0.84609514;0.13428144;;;;;1936.7
2086.0;2028.2;;;;;;;;;;;;;;;;;-3.1777399;-32.456436;37.057102;;1946.4
2086.0;2028.2;;;;;;;;;;;;;;1.4515214;0.77498704;0.10431226;;;;;1946.4
2086.0;2028.2;;;;;;;;;;;;;;;;;3.1243324;-28.073214;35.279396;;1946.4
2086.0;2028.2;;;;;;;;;;;;;;1.4491409;0.69631034;0.048036136;;;;;1946.4
2086.0;2028.2;;;;;;;;;;;;;;;;;13.237404;-23.079622;34.26084;;1956.1
2086.0;2028.2;;;;;;;;;;;;;;1.3675954;0.5950499;-0.0347911;;;;;1956.1
2086.0;2028.2;;;;;;;;;;;;;;;;;21.668142;-14.728996;32.63573;;1956.1
2086.0;2028.2;;;;;;;;;;;;;;1.304239;0.49983215;-0.013245033;;;;;1956.1
2086.0;2030.0;;;;-0.5516625;1.2055665;0.5585137;;;;;;;;;;;;;;;
2086.0;2030.0;;;;-0.5497094;1.224003;0.5622559;;;;;;;;;;;;;;;
2086.0;2030.0;;;;-0.5465928;1.2410547;0.5638085;;;;;;;;;;;;;;;
2086.0;2030.0;;;;-0.5431939;1.2546846;0.5621262;;;;;;;;;;;;;;;
2086.0;2030.0;;;;-0.5401612;1.2660447;0.562645;;;;;;;;;;;;;;;
2086.0;2035.2;;;;;;;;;;37.656025;17.422253;-49.99695;;;;;;;;;
2086.0;2035.2;;;;;;;0.22418897;-0.45716727;0.1732841;;;;;;;;;;;;
2086.0;2035.2;;;;;;;;;;36.820583;19.234291;-47.68136;;;;;;;;;
2086.0;2035.2;;;;;;;0.2290109;-0.45979187;0.17883846;;;;;;;;;;;;
2138.0;2040.1;;;;-0.5372315;1.274151;0.56216437;;;;;;;;;;;;;;;
2138.0;2040.1;;;;-0.5325394;1.2811319;0.5638352;;;;;;;;;;;;;;;
2138.0;2040.1;;;;-0.52678305;1.2857019;0.5603562;;;;;;;;;;;;;;;
2138.0;2040.1;;;;-0.5199738;1.2872926;0.5563088;;;;;;;;;;;;;;;
2138.0;2040.1;;;;-0.5148316;1.2862626;0.55157477;;;;;;;;;;;;;;;
2138.0;2043.5;262143;262143;10828;;;;;;;;;;;;;;;;;;
2138.0;2044.7;;;;;;;;;;36.339916;20.664846;-45.041504;;;;;;;;;
2138.0;2044.7;;;;;;;0.23389386;-0.4680929;0.17993714;;;;;;;;;;;;
2138.0;2044.7;;;;;;;;;;36.15299;21.473587;-41.909542;;;;;;;;;
2138.0;2044.7;;;;;;;0.23767816;-0.48060548;0.18115787;;;;;;;;;;;;
2138.0;2049.5;;;;;;;;;;;;;6960;;;;;;;;
2138.0;2049.5;;;;;;;;;;;;;6150;;;;;;;;
2138.0;2049.5;;;;;;;;;;;;;5244;;;;;;;;
2138.0;2049.5;;;;;;;;;;;;;4960;;;;;;;;
2138.0;2049.5;;;;;;;;;;;;;5387;;;;;;;;
2138.0;2050.1;;;;-0.5080643;1.2836381;0.5457497;;;;;;;;;;;;;;;
2138.0;2050.1;;;;-0.50228125;1.2798578;0.538353;;;;;;;;;;;;;;;
2138.0;2050.1;;;;-0.49755102;1.2740632;0.5323258;;;;;;;;;;;;;;;
2138.0;2050.1;;;;-0.49200064;1.2661706;0.5248566;;;;;;;;;;;;;;;
2138.0;2050.1;;;;-0.48781592;1.2599679;0.5206986;;;;;;;;;;;;;;;
2138.0;2054.2;;;;;;;;;;36.0271;22.236547;-38.83862;;;;;;;;;
2138.0;2054.2;;;;;;;0.24591815;-0.4961089;0.18127994;;;;;;;;;;;;
2138.0;2054.2;;;;;;;;;;35.41673;23.335215;-36.01184;;;;;;;;;
2138.0;2054.2;;;;;;;0.24988556;-0.5075228;0.1850032;;;;;;;;;;;;
2143.0;2060.0;;;;-0.4849549;1.2536203;0.5140534;;;;;;;;;;;;;;;
2143.0;2060.0;;;;-0.48376852;1.2475587;0.50684744;;;;;;;;;;;;;;;
2143.0;2060.0;;;;-0.48513418;1.2418481;0.5001908;;;;;;;;;;;;;;;
2143.0;2060.0;;;;-0.4866715;1.2368051;0.4963799;;;;;;;;;;;;;;;
2143.0;2060.0;;;;-0.48944098;1.2327539;0.49434286;;;;;;;;;;;;;;;
2143.0;2063.8;;;;;;;;;;34.703358;24.056215;-33.21177;;;;;;;;;
2143.0;2063.8;;;;;;;0.25360882;-0.5184484;0.18701743;;;;;;;;;;;;
2143.0;2063.8;;;;;;;;;;34.21506;23.97229;-30.167545;;;;;;;;;
2143.0;2063.8;;;;;;;0.25641653;-0.53401285;0.19568469;;;;;;;;;;;;
2143.0;2063.6;262143;262143;10827;;;;;;;;;;;;;;;;;;
2143.0;2070.1;;;;-0.49184805;1.2293206;0.4934426;;;;;;;;;;;;;;;
2143.0;2070.1;;;;-0.49335867;1.2272607;0.49345404;;;;;;;;;;;;;;;
2143.0;2070.1;;;;-0.49468237;1.2250291;0.49325186;;;;;;;;;;;;;;;
2143.0;2070.1;;;;-0.49390036;1.2227136;0.49391943;;;;;;;;;;;;;;;
2143.0;2070.1;;;;-0.4926148;1.2191583;0.4929238;;;;;;;;;;;;;;;
2143.0;2073.4;;;;;;;;;;33.92132;23.667105;-27.26829;;;;;;;;;
2143.0;2073.4;;;;;;;0.26258126;-0.5553148;0.2033143;;;;;;;;;;;;
2143.0;2073.4;;;;;;;;;;33.783993;23.247475;-24.616993;;;;;;;;;
2143.0;2073.4;;;;;;;0.26978362;-0.5773492;0.21283609;;;;;;;;;;;;
2144.0;2080.2;;;;-0.49090582;1.216179;0.4936486;;;;;;;;;;;;;;;
2144.0;2080.2;;;;-0.4898606;1.213833;0.4937325;;;;;;;;;;;;;;;
2144.0;2080.2;;;;-0.4881745;1.2116052;0.49457175;;;;;;;;;;;;;;;
2144.0;2080.2;;;;-0.48799902;1.2094499;0.49425513;;;;;;;;;;;;;;;
2144.0;2080.2;;;;-0.48787695;1.2077409;0.49301535;;;;;;;;;;;;;;;
2144.0;2083.0;;;;;;;;;;33.66192;22.343363;-22.103031;;;;;;;;;
2144.0;2083.0;;;;;;;0.2793054;-0.6041444;0.22559282;;;;;;;;;;;;
2144.0;2083.0;;;;;;;;;;33.619953;20.989105;-19.87518;;;;;;;;;
2144.0;2083.0;;;;;;;0.28479874;-0.62678915;0.23804438;;;;;;;;;;;;
2144.0;2083.8;262143;262143;10829;;;;;;;;;;;;;;;;;;
2144.0;2088.0;;;;;;;;;;;;;;;;;23.525955;-10.13596;31.662952;;1965.7
2144.0;2088.0;;;;;;;;;;;;;;1.2839137;0.40467542;0.07208472;;;;;1965.7
2144.0;2088.0;;;;;;;;;;;;;;;;;20.130772;-10.830256;31.338696;;1965.7
2144.0;2088.0;;;;;;;;;;;;;;1.2725608;0.28266242;0.1539964;;;;;1965.7
2144.0;2088.0;;;;;;;;;;;;;;;;;18.757439;-14.2941065;31.79647;;1975.4
2144.0;2088.0;;;;;;;;;;;;;;1.2743309;0.18427075;0.17450483;;;;;1975.4
2144.0;2088.0;;;;;;;;;;;;;;;;;23.529772;-15.75518;32.906586;;1975.4
2144.0;2088.0;;;;;;;;;;;;;;1.258034;0.10278634;0.14734337;;;;;1975.4
2144.0;2088.0;;;;;;;;;;;;;;;;;31.537064;-15.335551;33.99762;;1984.9
2144.0;2088.0;;;;;;;;;;;;;;1.2259896;0.06781213;0.099490345;;;;;1984.9
2144.0;2088.0;;;;;;;;;;;;;;;;;38.384655;-16.029848;34.920803;;1984.9
2144.0;2088.0;;;;;;;;;;;;;;1.2276986;0.07586902;0.033265177;;;;;1984.9
2145.0;2088.9;;;;;;;;;;;;;;;;;43.027283;-14.820552;34.855953;;1994.6
2145.0;2088.9;;;;;;;;;;;;;;1.2554094;0.13592944;-0.044129767;;;;;1994.6
2145.0;2088.9;;;;;;;;;;;;;;;;;48.875393;-8.648182;32.09403;;1994.6
2145.0;2088.9;;;;;;;;;;;;;;1.2483902;0.24091311;-0.10144353;;;;;1994.6
2145.0;2088.9;;;;;;;;;;;;;;;;;56.60039;-4.856258;27.596361;;2004.3
2145.0;2088.9;;;;;;;;;;;;;;1.1880245;0.33887753;-0.17883846;;;;;2004.3
2145.0;2088.9;;;;;;;;;;;;;;;;;60.750908;-9.273812;23.01477;;2004.3
2145.0;2088.9;;;;;;;;;;;;;;1.1035494;0.4163335;-0.29309976;;;;;2004.3
2145.0;2088.9;;;;;;;;;;;;;;;;;56.405834;-16.63259;18.299662;;2013.9
2145.0;2088.9;;;;;;;;;;;;;;1.0144963;0.46223333;-0.4095584;;;;;2013.9
2145.0;2088.9;;;;;;;;;;;;;;;;;43.080692;-18.765068;13.71807;;2013.9
2145.0;2088.9;;;;;;;;;;;;;;0.94601274;0.48701438;-0.44007692;;;;;2013.9
2145.0;2089.7;;;;;;;;;;;;;5808;;;;;;;;
2145.0;2089.7;;;;;;;;;;;;;6094;;;;;;;;
2145.0;2089.7;;;;;;;;;;;;;6684;;;;;;;;
2145.0;2089.7;;;;;;;;;;;;;7397;;;;;;;;
2145.0;2089.7;;;;;;;;;;;;;7779;;;;;;;;
2145.0;2090.1;;;;-0.48715216;1.2061235;0.49348456;;;;;;;;;;;;;;;
2145.0;2090.1;;;;-0.48675925;1.2043725;0.49286276;;;;;;;;;;;;;;;
2145.0;2090.1;;;;-0.48582846;1.2047921;0.49329;;;;;;;;;;;;;;;
2145.0;2090.1;;;;-0.48440176;1.2054673;0.49276358;;;;;;;;;;;;;;;
2145.0;2090.1;;;;-0.48335654;1.2073594;0.4926949;;;;;;;;;;;;;;;
2145.0;2092.4;;;;;;;;;;33.619953;19.848475;-17.73507;;;;;;;;;
2145.0;2092.4;;;;;;;0.29371014;-0.64528334;0.25336465;;;;;;;;;;;;
2145.0;2092.4;;;;;;;;;;33.734398;18.299662;-15.835291;;;;;;;;;
2145.0;2092.4;;;;;;;0.29548022;-0.6649983;0.26801354;;;;;;;;;;;;
2195.0;2100.2;;;;-0.4819222;1.209881;0.49281317;;;;;;;;;;;;;;;
2195.0;2100.2;;;;-0.4783364;1.2167665;0.49291235;;;;;;;;;;;;;;;
2195.0;2100.2;;;;-0.4740563;1.2261544;0.49275976;;;;;;;;;;;;;;;
2195.0;2100.2;;;;-0.4690438;1.2376901;0.49340826;;;;;;;;;;;;;;;
2195.0;2100.2;;;;-0.46480948;1.2536775;0.49441916;;;;;;;;;;;;;;;
2195.0;2102.0;;;;;;;;;;33.742027;16.495255;-13.904996;;;;;;;;;
2195.0;2102.0;;;;;;;0.29114658;-0.68282115;0.2739952;;;;;;;;;;;;
2195.0;2102.0;;;;;;;;;;33.562733;14.152959;-11.513107;;;;;;;;;
2195.0;2102.0;;;;;;;0.2855922;-0.7028413;0.2791223;;;;;;;;;;;;
2195.0;2102.6;;;;;;;;;;;;;;;;;22.770622;-19.444107;10.769219;;2023.6
2195.0;2102.6;;;;;;;;;;;;;;0.9277627;0.49592578;-0.4156621;;;;;2023.6
2195.0;2102.6;;;;;;;;;;;;;;;;;1.1101108;-22.461622;11.196478;;2023.6
2195.0;2102.6;;;;;;;;;;;;;;0.9201941;0.49031037;-0.40577412;;;;;2023.6
2195.0;2102.6;;;;;;;;;;;;;;;;;-17.151402;-25.490585;14.908293;;2033.1
2195.0;2102.6;;;;;;;;;;;;;;0.94680625;0.44129765;-0.40913114;;;;;2033.1
2195.0;2102.6;;;;;;;;;;;;;;;;;-29.251991;-25.929289;19.394514;;2033.1
2195.0;2102.6;;;;;;;;;;;;;;0.9717094;0.37623218;-0.4222541;;;;;2033.1
2195.0;2102.6;;;;;;;;;;;;;;;;;-34.43632;-25.784325;24.147772;;2042.7
2195.0;2102.6;;;;;;;;;;;;;;1.0039369;0.32428968;-0.44093144;;;;;2042.7
2195.0;2102.6;;;;;;;;;;;;;;;;;-33.516956;-25.971252;28.416548;;2042.7
2195.0;2102.6;;;;;;;;;;;;;;1.094943;0.29914242;-0.44178593;;;;;2042.7
2195.0;2103.6;262143;262143;10834;;;;;;;;;;;;;;;;;;
2200.0;2110.0;;;;-0.46050268;1.2724038;0.49499136;;;;;;;;;;;;;;;
2200.0;2110.0;;;;-0.45839316;1.2924043;0.49573523;;;;;;;;;;;;;;;
2200.0;2110.0;;;;-0.45718008;1.3162042;0.49730688;;;;;;;;;;;;;;;
2200.0;2110.0;;;;-0.45838553;1.3404542;0.49983984;;;;;;;;;;;;;;;
2200.0;2110.0;;;;-0.4602242;1.3673631;0.50506216;;;;;;;;;;;;;;;
2200.0;2111.3;;;;;;;;;;33.10877;11.638996;-8.560442;;;;;;;;;
2200.0;2111.3;;;;;;;0.28528702;-0.72420424;0.28553116;;;;;;;;;;;;
2200.0;2111.3;;;;;;;;;;32.639545;9.792626;-5.2949615;;;;;;;;;
2200.0;2111.3;;;;;;;0.29322183;-0.753441;0.29340494;;;;;;;;;;;;
2200.0;2119.9;;;;-0.46274954;1.3965722;0.51092917;;;;;;;;;;;;;;;
2200.0;2119.9;;;;-0.46623236;1.4265863;0.5193444;;;;;;;;;;;;;;;
2200.0;2119.9;;;;-0.4696923;1.4597284;0.5297738;;;;;;;;;;;;;;;
2200.0;2119.9;;;;-0.47464758;1.4928781;0.545147;;;;;;;;;;;;;;;
2200.0;2119.9;;;;-0.48180014;1.5243609;0.566227;;;;;;;;;;;;;;;
2200.0;2120.8;;;;;;;;;;32.06351;7.7326274;-1.7166661;;;;;;;;;
2200.0;2120.8;;;;;;;0.31452376;-0.79213846;0.2985931;;;;;;;;;;;;
2200.0;2120.8;;;;;;;;;;31.20899;4.9783316;2.2011476;;;;;;;;;
2200.0;2120.8;;;;;;;0.333079;-0.83980834;0.30249947;;;;;;;;;;;;
2200.0;2123.6;262143;262143;10839;;;;;;;;;;;;;;;;;;
2200.0;2129.7;;;;;;;;;;;;;7749;;;;;;;;
2200.0;2129.7;;;;;;;;;;;;;7489;;;;;;;;
2200.0;2129.7;;;;;;;;;;;;;7250;;;;;;;;
2200.0;2129.7;;;;;;;;;;;;;7033;;;;;;;;
2200.0;2129.7;;;;;;;;;;;;;6783;;;;;;;;
2203.0;2130.0;;;;-0.48445517;1.5548251;0.57677466;;;;;;;;;;;;;;;
2203.0;2130.0;;;;-0.48697668;1.5831606;0.58287054;;;;;;;;;;;;;;;
2203.0;2130.0;;;;-0.49088675;1.6058733;0.5910912;;;;;;;;;;;;;;;
2203.0;2130.0;;;;-0.49465948;1.622513;0.5987473;;;;;;;;;;;;;;;
2203.0;2130.0;;;;-0.49553686;1.6351321;0.6061135;;;;;;;;;;;;;;;
2203.0;2130.4;;;;;;;;;;30.205694;1.5907773;6.7712946;;;;;;;;;
2203.0;2130.4;;;;;;;0.35523546;-0.89345986;0.30677205;;;;;;;;;;;;
2203.0;2130.4;;;;;;;;;;29.034548;-2.357555;12.283701;;;;;;;;;
2203.0;2130.4;;;;;;;0.37452316;-0.9490646;0.3178808;;;;;;;;;;;;
2203.0;2140.0;;;;;;;;;;27.977842;-6.550035;18.002106;;;;;;;;;
2203.0;2140.0;;;;;;;0.3945433;-1.0015564;0.336375;;;;;;;;;;;;
2203.0;2140.0;;;;;;;;;;27.016512;-10.731071;23.876919;;;;;;;;;
2203.0;2140.0;;;;;;;0.40980256;-1.0461135;0.35956907;;;;;;;;;;;;
2203.0;2140.1;;;;-0.4907952;1.6420634;0.61111456;;;;;;;;;;;;;;;
2203.0;2140.1;;;;-0.48454672;1.642071;0.6096993;;;;;;;;;;;;;;;
2203.0;2140.1;;;;-0.4833985;1.6402056;0.6037865;;;;;;;;;;;;;;;
2203.0;2140.1;;;;-0.4874726;1.6344187;0.5941048;;;;;;;;;;;;;;;
2203.0;2140.1;;;;-0.4865685;1.624222;0.5840226;;;;;;;;;;;;;;;
2203.0;2143.9;262143;262143;10830;;;;;;;;;;;;;;;;;;
2206.0;2147.7;;;;;;;;;;;;;;;;;-27.085178;-23.911253;32.03299;;2052.4
2206.0;2147.7;;;;;;;;;;;;;;1.2727439;0.3338725;-0.40516374;;;;;2052.4
2206.0;2147.7;;;;;;;;;;;;;;;;;-18.589588;-15.495773;32.65099;;2052.4
2206.0;2147.7;;;;;;;;;;;;;;1.5150609;0.4822535;-0.39051485;;;;;2052.4
2206.0;2147.7;;;;;;;;;;;;;;;;;-8.316295;-1.9341105;27.75277;;2062.1
2206.0;2147.7;;;;;;;;;;;;;;1.8270822;0.7129124;-0.47144994;;;;;2062.1
2206.0;2147.7;;;;;;;;;;;;;;;;;2.338481;0.76296276;9.933775;;2062.1
2206.0;2147.7;;;;;;;;;;;;;;1.996704;0.9377117;-0.78090763;;;;;2062.1
2206.0;2147.7;;;;;;;;;;;;;;;;;5.493332;2.8534806;-25.646992;;2071.7
2206.0;2147.7;;;;;;;;;;;;;;1.9968871;1.1842402;-0.83120215;;;;;2071.7
2206.0;2147.7;;;;;;;;;;;;;;;;;-5.550554;6.8475904;-51.438946;;2071.7
2206.0;2147.7;;;;;;;;;;;;;;1.9526353;1.7274697;-0.70003355;;;;;2071.7
2206.0;2149.5;;;;;;;;;;26.383251;-14.8587;29.51903;;;;;;;;;
2206.0;2149.5;;;;;;;0.42921233;-1.088168;0.38264108;;;;;;;;;;;;
2206.0;2149.5;;;;;;;;;;25.860622;-18.86044;34.69573;;;;;;;;;
2206.0;2149.5;;;;;;;0.44758445;-1.1240578;0.40125737;;;;;;;;;;;;
2206.0;2150.1;;;;-0.47832876;1.6093333;0.575821;;;;;;;;;;;;;;;
2206.0;2150.1;;;;-0.47155386;1.5911486;0.5642243;;;;;;;;;;;;;;;
2206.0;2150.1;;;;-0.46522528;1.5664332;0.5530892;;;;;;;;;;;;;;;
2206.0;2150.1;;;;-0.4634133;1.536751;0.5408974;;;;;;;;;;;;;;;
2206.0;2150.1;;;;-0.4613114;1.5055506;0.53052145;;;;;;;;;;;;;;;
2206.0;2159.1;;;;;;;;;;25.349436;-23.136845;39.38795;;;;;;;;;
2206.0;2159.1;;;;;;;0.46766564;-1.1496933;0.41804254;;;;;;;;;;;;
2206.0;2159.1;;;;;;;;;;24.716179;-26.955475;43.45836;;;;;;;;;
2206.0;2159.1;;;;;;;0.48170415;-1.1600085;0.438612;;;;;;;;;;;;
2208.0;2160.2;;;;-0.46533972;1.4761125;0.5141526;;;;;;;;;;;;;;;
2208.0;2160.2;;;;-0.46620566;1.4469339;0.49807364;;;;;;;;;;;;;;;
2208.0;2160.2;;;;-0.4664536;1.4148942;0.4813195;;;;;;;;;;;;;;;
2208.0;2160.2;;;;-0.46866995;1.3853303;0.46796423;;;;;;;;;;;;;;;
2208.0;2160.2;;;;-0.46796042;1.358204;0.4564095;;;;;;;;;;;;;;;
2208.0;2163.2;;;;;;;;;;;;;;;;;-40.414135;29.431288;-18.074587;;2081.3
2208.0;2163.2;;;;;;;;;;;;;;0.9848323;1.0472732;-0.24213386;;;;;2081.3
2208.0;2163.2;;;;;;;;;;;;;;;;;-61.670277;9.498886;-23.117771;;2081.3
2208.0;2163.2;;;;;;;;;;;;;;0.38001648;0.8377941;0.20184942;;;;;2081.3
2208.0;2163.2;;;;;;;;;;;;;;;;;-77.41783;-29.271067;-30.587175;;2090.9
2208.0;2163.2;;;;;;;;;;;;;;0.21149327;0.6509598;-0.11047701;;;;;2090.9
2208.0;2163.2;;;;;;;;;;;;;;;;;-82.83868;-16.197699;-33.566547;;2090.9
2208.0;2163.2;;;;;;;;;;;;;;0.26947844;0.55256814;-0.11059908;;;;;2090.9
2208.0;2163.2;;;;;;;;;;;;;;;;;-83.78475;0.6675924;-25.963621;;2100.6
2208.0;2163.2;;;;;;;;;;;;;;0.6049379;0.31714836;0.10626545;;;;;2100.6
2208.0;2163.2;;;;;;;;;;;;;;;;;-82.42668;1.1291848;-18.173773;;2100.6
2208.0;2163.2;;;;;;;;;;;;;;0.78164005;0.10144353;-0.013977477;;;;;2100.6
2208.0;2163.8;262143;262143;10839;;;;;;;;;;;;;;;;;;
2208.0;2168.5;;;;;;;;;;24.048586;-29.648733;47.421947;;;;;;;;;
2208.0;2168.5;;;;;;;0.49482712;-1.1686147;0.45777765;;;;;;;;;;;;
2208.0;2168.5;;;;;;;;;;23.289438;-31.96814;51.446575;;;;;;;;;
2208.0;2168.5;;;;;;;0.51100194;-1.1615955;0.46620074;;;;;;;;;;;;
2257.0;2169.8;;;;;;;;;;;;;6794;;;;;;;;
2257.0;2169.8;;;;;;;;;;;;;7224;;;;;;;;
2257.0;2169.8;;;;;;;;;;;;;7549;;;;;;;;
2257.0;2169.8;;;;;;;;;;;;;7466;;;;;;;;
2257.0;2169.8;;;;;;;;;;;;;7467;;;;;;;;
2257.0;2170.1;;;;-0.46652228;1.3341104;0.44297415;;;;;;;;;;;;;;;
2257.0;2170.1;;;;-0.46352392;1.3095208;0.437275;;;;;;;;;;;;;;;
2257.0;2170.1;;;;-0.46350485;1.2860261;0.4301911;;;;;;;;;;;;;;;
2257.0;2170.1;;;;-0.46395117;1.2693673;0.4257241;;;;;;;;;;;;;;;
2257.0;2170.1;;;;-0.46110922;1.2526017;0.41909033;;;;;;;;;;;;;;;
2257.0;2177.7;;;;;;;;;;22.007662;-34.5851;54.78454;;;;;;;;;
2257.0;2177.7;;;;;;;0.51728874;-1.1407819;0.4697409;;;;;;;;;;;;
2257.0;2177.7;;;;;;;;;;20.687735;-37.774284;57.889797;;;;;;;;;
2257.0;2177.7;;;;;;;0.519364;-1.1227149;0.46705526;;;;;;;;;;;;
2257.0;2179.7;;;;-0.45579535;1.2359773;0.41268545;;;;;;;;;;;;;;;
2257.0;2179.7;;;;-0.4530869;1.2184488;0.40442282;;;;;;;;;;;;;;;
2257.0;2179.7;;;;-0.45267874;1.2023126;0.39901358;;;;;;;;;;;;;;;
2257.0;2179.7;;;;-0.45131308;1.1873437;0.39534003;;;;;;;;;;;;;;;
2257.0;2179.7;;;;-0.45069128;1.1699945;0.39149863;;;;;;;;;;;;;;;
2257.0;2183.6;262143;262143;10835;;;;;;;;;;;;;;;;;;
2257.0;2187.3;;;;;;;;;;19.150366;-41.05121;60.773796;;;;;;;;;
2257.0;2187.3;;;;;;;0.51478624;-1.1026337;0.45875424;;;;;;;;;;;;
2257.0;2187.3;;;;;;;;;;17.452772;-44.541763;63.333534;;;;;;;;;
2257.0;2187.3;;;;;;;0.51167333;-1.0786462;0.44953763;;;;;;;;;;;;
2260.0;2189.8;;;;-0.44937903;1.1508905;0.3900643;;;;;;;;;;;;;;;
2260.0;2189.8;;;;-0.44702536;1.1342279;0.3911324;;;;;;;;;;;;;;;
2260.0;2189.8;;;;-0.4433785;1.1187211;0.3921128;;;;;;;;;;;;;;;
2260.0;2189.8;;;;-0.43946844;1.1034242;0.39310843;;;;;;;;;;;;;;;
2260.0;2189.8;;;;-0.43671042;1.087372;0.3929444;;;;;;;;;;;;;;;
2260.0;2196.9;;;;;;;;;;15.648365;-48.24595;66.14124;;;;;;;;;
2260.0;2196.9;;;;;;;0.5134434;-1.0611897;0.44044313;;;;;;;;;;;;
2260.0;2196.9;;;;;;;;;;13.760033;-52.3278;68.842125;;;;;;;;;
2260.0;2196.9;;;;;;;0.52180547;-1.0446485;0.4333018;;;;;;;;;;;;
2260.0;2199.9;;;;-0.43454367;1.0718576;0.39360434;;;;;;;;;;;;;;;
2260.0;2199.9;;;;-0.4331742;1.0578386;0.39335257;;;;;;;;;;;;;;;
2260.0;2199.9;;;;-0.4297791;1.0465547;0.3958245;;;;;;;;;;;;;;;
2260.0;2199.9;;;;-0.42491156;1.0363694;0.39875036;;;;;;;;;;;;;;;
2260.0;2199.9;;;;-0.4180184;1.027157;0.4017411;;;;;;;;;;;;;;;
2260.0;2203.8;262143;262143;10836;;;;;;;;;;;;;;;;;;
2260.0;2206.5;;;;;;;;;;11.722922;-56.604206;71.34464;;;;;;;;;
2260.0;2206.5;;;;;;;0.52882475;-1.0303049;0.43104342;;;;;;;;;;;;
2260.0;2206.5;;;;;;;;;;9.437849;-60.47624;73.206276;;;;;;;;;
2260.0;2206.5;;;;;;;0.53859067;-1.0185248;0.4354381;;;;;;;;;;;;
2261.0;2207.7;;;;;;;;;;;;;;;;;-79.245125;6.820887;-10.3228855;;2110.3
2261.0;2207.7;;;;;;;;;;;;;;0.80459;-0.11322367;-0.019531846;;;;;2110.3
2261.0;2207.7;;;;;;;;;;;;;;;;;-73.229164;-6.2982574;-1.9302957;;2110.3
2261.0;2207.7;;;;;;;;;;;;;;0.83498645;-0.291818;-0.08191168;;;;;2110.3
2261.0;2207.7;;;;;;;;;;;;;;;;;-61.30787;-30.545212;11.017182;;2119.8
2261.0;2207.7;;;;;;;;;;;;;;0.85402995;-0.42756432;-0.21497238;;;;;2119.8
2261.0;2207.7;;;;;;;;;;;;;;;;;-43.53084;-54.033024;26.020844;;2119.8
2261.0;2207.7;;;;;;;;;;;;;;0.88106936;-0.44862208;-0.36133915;;;;;2119.8
2261.0;2207.7;;;;;;;;;;;;;;;;;-26.764734;-66.82791;38.14814;;2129.5
2261.0;2207.7;;;;;;;;;;;;;;0.8860134;-0.38196966;-0.5033113;;;;;2129.5
2261.0;2207.7;;;;;;;;;;;;;;;;;-12.672811;-66.896576;46.823025;;2129.5
2261.0;2207.7;;;;;;;;;;;;;;0.8796655;-0.2906583;-0.58082825;;;;;2129.5
2261.0;2209.8;;;;;;;;;;;;;7572;;;;;;;;
2261.0;2209.8;;;;;;;;;;;;;7299;;;;;;;;
2261.0;2209.8;;;;;;;;;;;;;6777;;;;;;;;
2261.0;2209.8;;;;;;;;;;;;;6495;;;;;;;;
2261.0;2209.8;;;;;;;;;;;;;6766;;;;;;;;
2261.0;2209.9;;;;-0.40871817;1.0194513;0.40572363;;;;;;;;;;;;;;;
2261.0;2209.9;;;;-0.40061575;1.013054;0.40861517;;;;;;;;;;;;;;;
2261.0;2209.9;;;;-0.3925858;1.0065652;0.41097265;;;;;;;;;;;;;;;
2261.0;2209.9;;;;-0.3849793;0.99977887;0.41320044;;;;;;;;;;;;;;;
2261.0;2209.9;;;;-0.37766272;0.9915544;0.41662604;;;;;;;;;;;;;;;
2261.0;2215.9;;;;;;;;;;7.145146;-63.50139;74.457535;;;;;;;;;
2261.0;2215.9;;;;;;;0.54866177;-1.0014343;0.44264045;;;;;;;;;;;;
2261.0;2215.9;;;;;;;;;;4.547258;-64.83658;75.46083;;;;;;;;;
2261.0;2215.9;;;;;;;0.56117433;-0.9803766;0.4511246;;;;;;;;;;;;
2317.0;2219.9;;;;-0.37104037;0.98508847;0.4202233;;;;;;;;;;;;;;;
2317.0;2219.9;;;;-0.36465076;0.98160565;0.42420965;;;;;;;;;;;;;;;
2317.0;2219.9;;;;-0.35672382;0.97885144;0.4281159;;;;;;;;;;;;;;;
2317.0;2219.9;;;;-0.3484955;0.9765512;0.43283087;;;;;;;;;;;;;;;
2317.0;2219.9;;;;-0.340683;0.9739114;0.4365006;;;;;;;;;;;;;;;
2317.0;2223.7;262143;262143;10829;;;;;;;;;;;;;;;;;;
2317.0;2225.5;;;;;;;;;;1.2398144;-63.8638;76.21998;;;;;;;;;
2317.0;2225.5;;;;;;;0.5736259;-0.95852536;0.4677877;;;;;;;;;;;;
2317.0;2225.5;;;;;;;;;;-2.3537402;-61.10187;76.89902;;;;;;;;;
2317.0;2225.5;;;;;;;0.58699304;-0.9396649;0.4839015;;;;;;;;;;;;
2317.0;2229.9;;;;-0.3328667;0.9702951;0.43960196;;;;;;;;;;;;;;;
2317.0;2229.9;;;;-0.3248482;0.96683514;0.44176108;;;;;;;;;;;;;;;
2317.0;2229.9;;;;-0.31855777;0.9625093;0.43724066;;;;;;;;;;;;;;;
2317.0;2229.9;;;;-0.31411746;0.9561044;0.432705;;;;;;;;;;;;;;;
2317.0;2229.9;;;;-0.3091469;0.94908154;0.43302923;;;;;;;;;;;;;;;
2317.0;2234.9;;;;;;;;;;-6.5462203;-56.485947;77.67342;;;;;;;;;
2317.0;2234.9;;;;;;;0.598529;-0.9247108;0.50068665;;;;;;;;;;;;
2317.0;2234.9;;;;;;;;;;-10.948516;-50.32502;78.646194;;;;;;;;;
2317.0;2234.9;;;;;;;0.605121;-0.91811883;0.5200964;;;;;;;;;;;;
2321.0;2239.9;;;;-0.30399707;0.9425355;0.434887;;;;;;;;;;;;;;;
2321.0;2239.9;;;;-0.29955676;0.9361154;0.43493277;;;;;;;;;;;;;;;
2321.0;2239.9;;;;-0.29485705;0.930298;0.437069;;;;;;;;;;;;;;;
2321.0;2239.9;;;;-0.2904053;0.9249803;0.43894202;;;;;;;;;;;;;;;
2321.0;2239.9;;;;-0.28437427;0.91923535;0.4400254;;;;;;;;;;;;;;;
2321.0;2243.9;262143;262143;10827;;;;;;;;;;;;;;;;;;
2321.0;2244.5;;;;;;;;;;-15.66744;-43.218025;80.02716;;;;;;;;;
2321.0;2244.5;;;;;;;0.6081118;-0.9169591;0.53639334;;;;;;;;;;;;
2321.0;2244.5;;;;;;;;;;-20.3444;-35.618916;81.73238;;;;;;;;;
2321.0;2244.5;;;;;;;0.60847807;-0.91817987;0.5464034;;;;;;;;;;;;
2321.0;2249.9;;;;;;;;;;;;;7261;;;;;;;;
2321.0;2249.9;;;;;;;;;;;;;7331;;;;;;;;
2321.0;2249.9;;;;;;;;;;;;;7124;;;;;;;;
2321.0;2249.9;;;;;;;;;;;;;7044;;;;;;;;
2321.0;2249.9;;;;;;;;;;;;;6993;;;;;;;;
2321.0;2250.0;;;;-0.27970126;0.9136239;0.44167715;;;;;;;;;;;;;;;
2321.0;2250.0;;;;-0.27547458;0.9086534;0.44144446;;;;;;;;;;;;;;;
2321.0;2250.0;;;;-0.270443;0.90314114;0.44078833;;;;;;;;;;;;;;;
2321.0;2250.0;;;;-0.26692584;0.8976251;0.4401589;;;;;;;;;;;;;;;
2321.0;2250.0;;;;-0.26319125;0.8922998;0.44076163;;;;;;;;;;;;;;;
2321.0;2254.2;;;;;;;;;;-24.842066;-27.329327;83.754234;;;;;;;;;
2321.0;2254.2;;;;;;;0.6098819;-0.9284341;0.5532395;;;;;;;;;;;;
2321.0;2254.2;;;;;;;;;;-29.389326;-18.4637;85.882904;;;;;;;;;
2321.0;2254.2;;;;;;;0.6130558;-0.9336833;0.5580615;;;;;;;;;;;;
2327.0;2260.1;;;;-0.26095966;0.88637173;0.4397965;;;;;;;;;;;;;;;
2327.0;2260.1;;;;-0.26075366;0.8809625;0.43881994;;;;;;;;;;;;;;;
2327.0;2260.1;;;;-0.2590523;0.8759309;0.43804175;;;;;;;;;;;;;;;
2327.0;2260.1;;;;-0.2571793;0.87080014;0.43451697;;;;;;;;;;;;;;;
2327.0;2260.1;;;;-0.25301364;0.8652879;0.43009192;;;;;;;;;;;;;;;
2327.0;2263.8;;;;;;;;;;-33.77255;-9.472182;87.832275;;;;;;;;;
2327.0;2263.8;;;;;;;0.621601;-0.9452803;0.56392103;;;;;;;;;;;;
2327.0;2263.8;;;;;;;;;;-37.60262;-0.22507401;89.56038;;;;;;;;;
2327.0;2263.8;;;;;;;0.63454086;-0.95290995;0.5723441;;;;;;;;;;;;
2327.0;2264.2;262143;262143;10820;;;;;;;;;;;;;;;;;;
2327.0;2270.2;;;;-0.24855426;0.8608285;0.42710882;;;;;;;;;;;;;;;
2327.0;2270.2;;;;-0.24590686;0.8543893;0.42473608;;;;;;;;;;;;;;;
2327.0;2270.2;;;;-0.24732974;0.84765637;0.41989523;;;;;;;;;;;;;;;
2327.0;2270.2;;;;-0.25094607;0.8407022;0.41592032;;;;;;;;;;;;;;;
2327.0;2270.2;;;;-0.25550845;0.83480084;0.4112969;;;;;;;;;;;;;;;
2327.0;2273.4;;;;;;;;;;-41.253395;9.399701;91.02908;;;;;;;;;
2327.0;2273.4;;;;;;;0.6440016;-0.9578539;0.58357495;;;;;;;;;;;;
2327.0;2273.4;;;;;;;;;;-44.709614;19.589067;92.28797;;;;;;;;;
2327.0;2273.4;;;;;;;0.65303504;-0.95742667;0.5955382;;;;;;;;;;;;
2328.0;2275.6;;;;;;;;;;;;;;;;;0.15640736;-63.37169;55.53224;;2139.2
2328.0;2275.6;;;;;;;;;;;;;;0.9243446;-0.25458542;-0.6387524;;;;;2139.2
2328.0;2275.6;;;;;;;;;;;;;;;;;10.319071;-55.238503;62.719353;;2139.2
2328.0;2275.6;;;;;;;;;;;;;;1.0066836;-0.2118595;-0.66670734;;;;;2139.2
2328.0;2275.6;;;;;;;;;;;;;;;;;10.101626;-39.12473;63.211464;;2148.8
2328.0;2275.6;;;;;;;;;;;;;;1.0892667;-0.08807642;-0.6277047;;;;;2148.8
2328.0;2275.6;;;;;;;;;;;;;;;;;2.0447402;-25.173954;57.103947;;2148.8
2328.0;2275.6;;;;;;;;;;;;;;1.1515244;0.090578936;-0.53230387;;;;;2148.8
2328.0;2275.6;;;;;;;;;;;;;;;;;-5.954924;-22.957548;47.132023;;2158.5
2328.0;2275.6;;;;;;;;;;;;;;1.1918088;0.25324258;-0.5018464;;;;;2158.5
2328.0;2275.6;;;;;;;;;;;;;;;;;-8.1331835;-22.240362;37.4691;;2158.5
2328.0;2275.6;;;;;;;;;;;;;;1.1919919;0.33942688;-0.49238563;;;;;2158.5
2328.0;2276.3;;;;;;;;;;;;;;;;;-3.6736658;-14.149144;29.549547;;2167.9
2328.0;2276.3;;;;;;;;;;;;;;1.1301004;0.37055573;-0.4009522;;;;;2167.9
2328.0;2276.3;;;;;;;;;;;;;;;;;5.8709984;-4.139073;23.396252;;2167.9
2328.0;2276.3;;;;;;;;;;;;;;1.0473952;0.3737907;-0.24738304;;;;;2167.9
2328.0;2276.3;;;;;;;;;;;;;;;;;16.846218;3.3303325;18.993958;;2177.5
2328.0;2276.3;;;;;;;;;;;;;;0.9762871;0.37965026;-0.122989595;;;;;2177.5
2328.0;2276.3;;;;;;;;;;;;;;;;;24.906918;9.094516;16.048922;;2177.5
2328.0;2276.3;;;;;;;;;;;;;;0.9207434;0.39484847;-0.051576283;;;;;2177.5
2328.0;2276.3;;;;;;;;;;;;;;;;;26.623585;12.79107;14.786219;;2187.2
2328.0;2276.3;;;;;;;;;;;;;;0.86501664;0.39118627;0.0076906644;;;;;2187.2
2328.0;2276.3;;;;;;;;;;;;;;;;;22.228918;10.586108;15.045625;;2187.2
2328.0;2276.3;;;;;;;;;;;;;;0.81276894;0.36750388;0.04608295;;;;;2187.2
2330.0;2277.2;;;;;;;;;;;;;;;;;13.10007;1.9913328;16.441847;;2196.8
2330.0;2277.2;;;;;;;;;;;;;;0.78505814;0.33832818;0.044801172;;;;;2196.8
2330.0;2277.2;;;;;;;;;;;;;;;;;1.3580737;-9.42259;18.665884;;2196.8
2330.0;2277.2;;;;;;;;;;;;;;0.7674795;0.32740256;-0.01043733;;;;;2196.8
2330.0;2277.2;;;;;;;;;;;;;;;;;-10.849331;-19.035921;21.446882;;2206.3
2330.0;2277.2;;;;;;;;;;;;;;0.7638783;0.3200171;-0.07837153;;;;;2206.3
2330.0;2277.2;;;;;;;;;;;;;;;;;-21.355328;-24.95651;24.231697;;2206.3
2330.0;2277.2;;;;;;;;;;;;;;0.76973784;0.31202126;-0.14917448;;;;;2206.3
