patientId;holterMac;flexMac;;;;;;;;;;;;;;;;;;;;
;CA:F3:0B:1E:33:78;D3:4A:5C:52:80:78;;;;;;;;;;;;;;;;;;;;
receivedTimeStamp;timeStamp;red;ir;green;adxl_accX;adxl_accY;adxl_accZ;lsm_accelX;lsm_accelY;lsm_accelZ;lsm_gyroX;lsm_gyroY;lsm_gyroZ;ecg;flex_lsm_accelX;flex_lsm_accelY;flex_lsm_accelZ;flex_lsm_gyroX;flex_lsm_gyroY;flex_lsm_gyroZ;flex_cmd;flexTimeStamp
377.0;348.2;;;;;;;;;;;;;;;;;;;;17;0.1
377.0;348.2;;;;;;;;;;;;;;;;;13.962218;0.42725915;0.88122195;;127.6
377.0;348.2;;;;;;;;;;;;;;0.8294321;0.6324656;-0.12909329;;;;;127.6
377.0;348.2;;;;;;;;;;;;;;;;;-5.630665;-17.700735;-8.259072;;127.6
377.0;348.2;;;;;;;;;;;;;;0.8504898;0.639729;-0.1657155;;;;;127.6
377.0;348.2;;;;;;;;;;;;;;;;;-64.7412;-84.77279;-61.0065;;137.1
377.0;348.2;;;;;;;;;;;;;;0.83785516;0.6042054;-0.2283395;;;;;137.1
377.0;348.2;;;;;;;;;;;;;;;;;-122.375404;-124.988556;-119.64019;;137.1
377.0;348.2;;;;;;;;;;;;;;0.8379162;0.57368696;-0.32050538;;;;;137.1
383.0;349.8;;;;;;;;;;;;;;;;;-63.56624;-124.95422;-76.59765;;146.8
383.0;349.8;;;;;;;;;;;;;;0.84664446;0.5566576;-0.42493972;;;;;146.8
383.0;349.8;;;;;;;;;;;;;;;;;-5.9511094;-124.988556;-29.744102;;146.8
383.0;349.8;;;;;;;;;;;;;;0.8625752;0.55763423;-0.5175329;;;;;146.8
383.0;349.8;;;;;;;;;;;;;;;;;-12.569811;-98.78842;-25.597399;;156.5
383.0;349.8;;;;;;;;;;;;;;0.88576925;0.5710013;-0.5868709;;;;;156.5
383.0;349.8;;;;;;;;;;;;;;;;;-16.773737;-11.822107;-4.6464434;;156.5
383.0;349.8;;;;;;;;;;;;;;0.92818993;0.5800958;-0.6161687;;;;;156.5
383.0;349.8;;;;;;;;;;;;;;;;;-12.524033;-4.4709616;-6.5691094;;166.0
383.0;349.8;;;;;;;;;;;;;;0.96530044;0.58265936;-0.5984069;;;;;166.0
383.0;349.8;;;;;;;;;;;;;;;;;-7.328257;-4.1123695;-10.464034;;166.0
383.0;349.8;;;;;;;;;;;;;;0.98733485;0.56880397;-0.55653554;;;;;166.0
383.0;350.7;;;;;;;;;;;;;;;;;-2.6818142;-2.2469254;-12.48207;;175.6
383.0;350.7;;;;;;;;;;;;;;1.0158391;0.5518357;-0.50038147;;;;;175.6
383.0;350.7;;;;;;;;;;;;;;;;;1.8311106;0.79729605;-16.0947;;175.6
383.0;350.7;;;;;;;;;;;;;;1.0176703;0.5595263;-0.46040222;;;;;175.6
383.0;350.7;;;;;;;;;;;;;;;;;5.7412944;4.4442577;-20.577105;;185.3
383.0;350.7;;;;;;;;;;;;;;1.0105289;0.60463274;-0.42316964;;;;;185.3
383.0;350.7;;;;;;;;;;;;;;;;;6.714072;9.163182;-24.864954;;185.3
383.0;350.7;;;;;;;;;;;;;;0.99417096;0.63472396;-0.38038272;;;;;185.3
383.0;350.7;;;;;;;;;;;;;;;;;5.9701834;15.614033;-31.170843;;194.9
383.0;350.7;;;;;;;;;;;;;;0.9704886;0.67415386;-0.32605976;;;;;194.9
383.0;350.7;;;;;;;;;;;;;;;;;4.116184;23.968475;-39.262062;;194.9
383.0;350.7;;;;;;;;;;;;;;0.93111974;0.70796835;-0.25580615;;;;;194.9
441.0;351.5;;;;;;;;;;;;;;;;;3.1929991;32.6281;-50.145725;;204.5
441.0;351.5;;;;;;;;;;;;;;0.88253427;0.74544513;-0.1871395;;;;;204.5
441.0;351.5;;;;;;;;;;;;;;;;;3.627888;41.173283;-61.883907;;204.5
441.0;351.5;;;;;;;;;;;;;;0.83602405;0.7925657;-0.12384411;;;;;204.5
441.0;351.5;;;;;;;;;;;;;;;;;1.2932218;49.687946;-75.09843;;214.1
441.0;351.5;;;;;;;;;;;;;;0.8061159;0.8417615;-0.110415965;;;;;214.1
441.0;351.5;;;;;;;;;;;;;;;;;0.6714072;55.59709;-91.06723;;214.1
441.0;351.5;;;;;;;;;;;;;;0.80361336;0.92226934;-0.14111759;;;;;214.1
441.0;351.5;;;;;;;;;;;;;;;;;-0.5798517;55.242317;-102.160706;;223.8
441.0;351.5;;;;;;;;;;;;;;0.8315073;1.0253608;-0.20105594;;;;;223.8
441.0;351.5;;;;;;;;;;;;;;;;;-11.566515;54.81124;-103.57219;;223.8
441.0;351.5;;;;;;;;;;;;;;0.77803886;1.029023;-0.21619312;;;;;223.8
441.0;408.3;;;;;;;;;;;;;;;;;-27.005066;58.069096;-109.83993;;233.5
441.0;408.3;;;;;;;;;;;;;;0.7202979;1.0198675;-0.20307016;;;;;233.5
441.0;408.3;;;;;;;;;;;;;;;;;-25.963621;61.73513;-118.56823;;233.5
441.0;408.3;;;;;;;;;;;;;;0.6654256;0.9868465;-0.156621;;;;;233.5
441.0;408.3;;;;;;;;;;;;;;;;;-20.569475;63.596756;-124.67193;;243.2
441.0;408.3;;;;;;;;;;;;;;0.6590777;1.0276803;-0.11792352;;;;;243.2
441.0;408.3;;;;;;;;;;;;;;;;;-22.770622;59.29365;-124.988556;;243.2
441.0;408.3;;;;;;;;;;;;;;0.6952727;1.0862148;-0.11560412;;;;;243.2
441.0;408.3;;;;;;;;;;;;;;;;;-31.170843;57.58843;-124.988556;;252.9
441.0;408.3;;;;;;;;;;;;;;0.7464217;1.1341288;-0.11304056;;;;;252.9
441.0;408.3;;;;;;;;;;;;;;;;;-37.549213;60.62502;-124.988556;;252.9
441.0;408.3;;;;;;;;;;;;;;0.81136507;1.1719718;-0.04895169;;;;;252.9
443.0;409.6;;;;;;;;;;;;;;;;;-46.456802;63.4785;-124.988556;;262.5
443.0;409.6;;;;;;;;;;;;;;0.87185276;1.213538;0.055177465;;;;;262.5
443.0;409.6;;;;;;;;;;;;;;;;;-55.257576;61.025574;-124.988556;;262.5
443.0;409.6;;;;;;;;;;;;;;0.9082919;1.1397443;0.16016114;;;;;262.5
443.0;409.6;;;;;;;;;;;;;;;;;-59.0228;52.491837;-124.988556;;272.1
443.0;409.6;;;;;;;;;;;;;;0.9218421;0.8743553;0.19397564;;;;;272.1
443.0;409.6;;;;;;;;;;;;;;;;;-66.633354;49.07758;-124.988556;;272.1
443.0;409.6;;;;;;;;;;;;;;1.0220039;0.78975797;0.09363079;;;;;272.1
443.0;409.6;;;;;;;;;;;;;;;;;-70.77242;49.161507;-124.988556;;281.8
443.0;409.6;;;;;;;;;;;;;;1.112827;0.70961636;0.003234962;;;;;281.8
443.0;409.6;;;;;;;;;;;;;;;;;-75.42268;48.802914;-124.988556;;281.8
443.0;409.6;;;;;;;;;;;;;;1.2231208;0.66585284;-0.09820856;;;;;281.8
443.0;410.4;;;;;;;;;;;;;;;;;-85.1085;50.729393;-124.988556;;291.5
443.0;410.4;;;;;;;;;;;;;;1.3013703;0.59529406;-0.15558337;;;;;291.5
443.0;410.4;;;;;;;;;;;;;;;;;-102.53456;48.650322;-124.988556;;291.5
443.0;410.4;;;;;;;;;;;;;;1.3591723;0.5452437;-0.18781091;;;;;291.5
443.0;410.4;;;;;;;;;;;;;;;;;-120.681625;42.77932;-124.988556;;301.2
443.0;410.4;;;;;;;;;;;;;;1.399884;0.483108;-0.23914304;;;;;301.2
443.0;410.4;;;;;;;;;;;;;;;;;-124.96948;37.739952;-124.58418;;301.2
443.0;410.4;;;;;;;;;;;;;;1.4008607;0.4329966;-0.26685384;;;;;301.2
443.0;410.4;;;;;;;;;;;;;;;;;-124.988556;29.492325;-115.34852;;310.7
443.0;410.4;;;;;;;;;;;;;;1.4680014;0.4229255;-0.37958923;;;;;310.7
443.0;410.4;;;;;;;;;;;;;;;;;-124.988556;23.129215;-95.50386;;310.7
443.0;410.4;;;;;;;;;;;;;;1.6767479;0.4126713;-0.52272105;;;;;310.7
502.0;414.8;;;;;;;;;;;;;;;;;-124.988556;19.363995;-72.88202;;320.2
502.0;414.8;;;;;;;;;;;;;;1.9113742;0.31202126;-0.6753136;;;;;320.2
502.0;414.8;;;;;;;;;;;;;;;;;-124.988556;13.344218;-46.53691;;320.2
502.0;414.8;;;;;;;;;;;;;;1.9969481;0.21436201;-0.7958006;;;;;320.2
502.0;414.8;;;;;;;;;;;;;;;;;-124.618515;1.659444;-15.140995;;329.8
502.0;414.8;;;;;;;;;;;;;;1.9943846;0.0081179235;-0.8850978;;;;;329.8
502.0;414.8;;;;;;;;;;;;;;;;;-106.35701;-21.454514;4.3069243;;329.8
502.0;414.8;;;;;;;;;;;;;;1.846675;-0.21246986;-0.9792779;;;;;329.8
502.0;414.8;;;;;;;;;;;;;;;;;-67.133095;-49.607834;12.909329;;339.5
502.0;414.8;;;;;;;;;;;;;;1.6595966;-0.32575458;-1.1192359;;;;;339.5
502.0;414.8;;;;;;;;;;;;;;;;;-35.454876;-64.088875;15.4194765;;339.5
502.0;414.8;;;;;;;;;;;;;;1.5139623;-0.5056917;-1.2814722;;;;;339.5
502.0;459.8;;;;;;;;;;;;;;;;;-12.649922;-51.31687;-6.916257;;349.1
502.0;459.8;;;;;;;;;;;;;;1.4280832;-0.6113468;-1.3561205;;;;;349.1
502.0;459.8;;;;;;;;;;;;;;;;;-0.03051851;-10.906552;-53.743095;;349.1
502.0;459.8;;;;;;;;;;;;;;1.3143711;-0.6585894;-1.2758569;;;;;349.1
502.0;459.8;;;;;;;;;;;;;;;;;4.3755913;31.559956;-109.28679;;358.8
502.0;459.8;;;;;;;;;;;;;;1.220252;-0.48963895;-1.0331125;;;;;358.8
502.0;459.8;;;;;;;;;;;;;;;;;-5.371258;53.422653;-124.95804;;358.8
502.0;459.8;;;;;;;;;;;;;;1.2087771;-4.2725913E-4;-0.78792685;;;;;358.8
502.0;459.8;;;;;;;;;;;;;;;;;-22.598955;54.177986;-124.988556;;368.3
502.0;459.8;;;;;;;;;;;;;;1.0619831;0.18305002;-0.5790582;;;;;368.3
502.0;459.8;;;;;;;;;;;;;;;;;-21.687216;39.963985;-124.988556;;368.3
502.0;459.8;;;;;;;;;;;;;;0.994232;0.24628437;-0.50691247;;;;;368.3
561.0;461.1;;;;;;;;;;;;;;;;;-9.483627;35.176395;-124.988556;;377.8
561.0;461.1;;;;;;;;;;;;;;1.0207831;0.23249;-0.49220252;;;;;377.8
561.0;461.1;;;;;;;;;;;;;;;;;-4.8257394;39.754173;-124.988556;;377.8
561.0;461.1;;;;;;;;;;;;;;1.0852993;0.1396527;-0.46229437;;;;;377.8
561.0;461.1;;;;;;;;;;;;;;;;;-17.643513;46.14017;-124.988556;;387.5
561.0;461.1;;;;;;;;;;;;;;1.1168554;0.16919462;-0.3614002;;;;;387.5
561.0;461.1;;;;;;;;;;;;;;;;;-36.12247;47.16254;-124.988556;;387.5
561.0;461.1;;;;;;;;;;;;;;1.1084933;0.22382274;-0.24042481;;;;;387.5
561.0;461.1;;;;;;;;;;;;;;;;;-37.560658;36.160618;-124.988556;;397.1
561.0;461.1;;;;;;;;;;;;;;1.0899991;0.22583698;-0.17114781;;;;;397.1
561.0;461.1;;;;;;;;;;;;;;;;;-31.590473;16.60207;-124.988556;;397.1
561.0;461.1;;;;;;;;;;;;;;1.1164281;0.25037384;-0.21778008;;;;;397.1
561.0;520.3;;;;;;;;;;;;;;;;;-32.5251;10.567034;-124.988556;;406.7
561.0;520.3;;;;;;;;;;;;;;1.0950651;0.2974334;-0.23517564;;;;;406.7
561.0;520.3;;;;;;;;;;;;;;;;;-31.956696;7.736442;-123.05063;;406.7
561.0;520.3;;;;;;;;;;;;;;1.0732139;0.29822686;-0.2156438;;;;;406.7
561.0;520.3;;;;;;;;;;;;;;;;;-29.404585;2.3003328;-115.22645;;416.3
561.0;520.3;;;;;;;;;;;;;;1.078402;0.24793237;-0.19611195;;;;;416.3
561.0;520.3;;;;;;;;;;;;;;;;;-29.335918;-2.5978882;-108.44371;;416.3
561.0;520.3;;;;;;;;;;;;;;1.0780358;0.22492142;-0.20862453;;;;;416.3
561.0;520.3;;;;;;;;;;;;;;;;;-29.366436;-3.8262582;-103.96893;;426.0
561.0;520.3;;;;;;;;;;;;;;1.0350047;0.2450026;-0.19122899;;;;;426.0
561.0;520.3;;;;;;;;;;;;;;;;;-31.55614;-6.4355907;-99.00586;;426.0
561.0;520.3;;;;;;;;;;;;;;0.9732963;0.23163548;-0.1612598;;;;;426.0
621.0;521.1;;;;;;;;;;;;;;;;;-35.367138;-10.345775;-93.87494;;435.6
621.0;521.1;;;;;;;;;;;;;;0.91311383;0.18903165;-0.15277566;;;;;435.6
621.0;521.1;;;;;;;;;;;;;;;;;-40.440838;-13.9317;-89.0759;;435.6
621.0;521.1;;;;;;;;;;;;;;0.86483353;0.18726158;-0.12982574;;;;;435.6
621.0;521.1;;;;;;;;;;;;;;;;;-48.56258;-19.28007;-83.90683;;445.1
621.0;521.1;;;;;;;;;;;;;;0.84591204;0.20001832;-0.1257973;;;;;445.1
621.0;521.1;;;;;;;;;;;;;;;;;-58.332317;-25.322733;-77.372055;;445.1
621.0;521.1;;;;;;;;;;;;;;0.8382824;0.20551164;-0.14270455;;;;;445.1
621.0;521.1;;;;;;;;;;;;;;;;;-68.8879;-30.976288;-71.157715;;454.8
621.0;521.1;;;;;;;;;;;;;;0.8427992;0.20777002;-0.17120884;;;;;454.8
621.0;521.1;;;;;;;;;;;;;;;;;-77.40257;-36.5421;-64.50087;;454.8
621.0;521.1;;;;;;;;;;;;;;0.8515885;0.19708854;-0.21002838;;;;;454.8
621.0;535.3;;;;;;;;;;;;;;;;;-83.71609;-41.192356;-58.385723;;464.4
621.0;535.3;;;;;;;;;;;;;;0.835902;0.16614276;-0.23413801;;;;;464.4
621.0;535.3;;;;;;;;;;;;;;;;;-88.5609;-46.09821;-52.926727;;464.4
621.0;535.3;;;;;;;;;;;;;;0.8236946;0.15106662;-0.25385296;;;;;464.4
621.0;535.3;;;;;;;;;;;;;;;;;-93.90546;-49.90539;-47.70043;;474.0
621.0;535.3;;;;;;;;;;;;;;0.8235115;0.1389813;-0.27546006;;;;;474.0
621.0;535.3;;;;;;;;;;;;;;;;;-100.07019;-51.49617;-42.447433;;474.0
621.0;535.3;;;;;;;;;;;;;;0.824366;0.106753744;-0.2840663;;;;;474.0
621.0;535.3;;;;;;;;;;;;;;;;;-106.55156;-50.889614;-37.53395;;483.7
621.0;535.3;;;;;;;;;;;;;;0.80452895;0.05981628;-0.27314067;;;;;483.7
621.0;535.3;;;;;;;;;;;;;;;;;-113.60515;-49.317913;-33.974728;;483.7
621.0;535.3;;;;;;;;;;;;;;0.77028716;0.045777764;-0.2576983;;;;;483.7
684.0;580.5;;;;;;;;;;;;;;;;;-120.8037;-49.65743;-29.793695;;493.3
684.0;580.5;;;;;;;;;;;;;;0.7496567;0.013733329;-0.26764733;;;;;493.3
684.0;580.5;;;;;;;;;;;;;;;;;-124.75585;-48.463394;-25.799585;;493.3
684.0;580.5;;;;;;;;;;;;;;0.7290872;-0.016663106;-0.2583697;;;;;493.3
684.0;580.5;;;;;;;;;;;;;;;;;-124.988556;-46.014282;-22.846918;;502.9
684.0;580.5;;;;;;;;;;;;;;0.7111423;-0.021118809;-0.24036378;;;;;502.9
684.0;580.5;;;;;;;;;;;;;;;;;-124.988556;-45.381023;-19.165625;;502.9
684.0;580.5;;;;;;;;;;;;;;0.70851773;-0.03338725;-0.24665059;;;;;502.9
684.0;580.5;;;;;;;;;;;;;;;;;-124.988556;-44.610428;-15.404218;;512.6
684.0;580.5;;;;;;;;;;;;;;0.6756798;-0.06738487;-0.24555193;;;;;512.6
684.0;580.5;;;;;;;;;;;;;;;;;-124.988556;-45.49547;-11.98996;;512.6
684.0;580.5;;;;;;;;;;;;;;0.64351326;-0.08929716;-0.263802;;;;;512.6
684.0;596.0;;;;;;;;;;;;;;;;;-124.988556;-45.991394;-9.6667385;;522.2
684.0;596.0;;;;;;;;;;;;;;0.6240425;-0.11047701;-0.27777946;;;;;522.2
684.0;596.0;;;;;;;;;;;;;;;;;-124.988556;-47.39143;-7.2176275;;522.2
684.0;596.0;;;;;;;;;;;;;;0.6131779;-0.164861;-0.30695516;;;;;522.2
684.0;596.0;;;;;;;;;;;;;;;;;-124.58037;-47.292244;-5.7298503;;531.9
684.0;596.0;;;;;;;;;;;;;;0.58156073;-0.16681418;-0.30677205;;;;;531.9
684.0;596.0;;;;;;;;;;;;;;;;;-119.67452;-47.688988;-3.093814;;531.9
684.0;596.0;;;;;;;;;;;;;;0.54963833;-0.1650441;-0.29096347;;;;;531.9
684.0;596.0;;;;;;;;;;;;;;;;;-112.6896;-49.29121;-1.0795922;;541.3
684.0;596.0;;;;;;;;;;;;;;0.5446333;-0.13263345;-0.29670095;;;;;541.3
684.0;596.0;;;;;;;;;;;;;;;;;-106.990265;-50.75991;1.2436292;;541.3
684.0;596.0;;;;;;;;;;;;;;0.5592822;-0.15790276;-0.31177709;;;;;541.3
741.0;648.4;;;;;;;;;;;;;;;;;-100.54704;-49.37132;3.276925;;551.0
741.0;648.4;;;;;;;;;;;;;;0.6005432;-0.16229743;-0.2987762;;;;;551.0
741.0;648.4;;;;;;;;;;;;;;;;;-96.293526;-45.880764;4.314554;;551.0
741.0;648.4;;;;;;;;;;;;;;0.63582265;-0.14331493;-0.24018067;;;;;551.0
741.0;648.4;;;;;;;;;;;;;;;;;-93.34849;-43.580433;6.6759243;;560.6
741.0;648.4;;;;;;;;;;;;;;0.64265877;-0.15009002;-0.2024598;;;;;560.6
741.0;648.4;;;;;;;;;;;;;;;;;-90.24323;-42.497025;9.304331;;560.6
741.0;648.4;;;;;;;;;;;;;;0.6636555;-0.16309091;-0.1902524;;;;;560.6
741.0;648.4;;;;;;;;;;;;;;;;;-85.32976;-40.84521;11.230811;;570.2
741.0;648.4;;;;;;;;;;;;;;0.68745995;-0.15833002;-0.17426069;;;;;570.2
741.0;648.4;;;;;;;;;;;;;;;;;-79.36338;-37.08762;12.634663;;570.2
741.0;648.4;;;;;;;;;;;;;;0.68550676;-0.11792352;-0.12701803;;;;;570.2
741.0;701.4;;;;;;;;;;;;;;;;;-74.67498;-35.271767;14.847256;;579.8
741.0;701.4;;;;;;;;;;;;;;0.69753104;-0.07770012;-0.10119938;;;;;579.8
741.0;701.4;;;;;;;;;;;;;;;;;-70.49013;-34.15021;16.97592;;579.8
741.0;701.4;;;;;;;;;;;;;;0.7054048;-0.03814814;-0.09466842;;;;;579.8
741.0;701.4;;;;;;;;;;;;;;;;;-66.69439;-32.58614;19.226662;;589.4
741.0;701.4;;;;;;;;;;;;;;0.7277444;0.02008118;-0.06659139;;;;;589.4
741.0;701.4;;;;;;;;;;;;;;;;;-63.570053;-31.159399;22.068699;;589.4
741.0;701.4;;;;;;;;;;;;;;0.73775446;0.045350507;-0.05780206;;;;;589.4
741.0;701.4;;;;;;;;;;;;;;;;;-58.88928;-29.339733;25.07477;;599.0
741.0;701.4;;;;;;;;;;;;;;0.74782556;0.061769463;-0.04834132;;;;;599.0
741.0;701.4;;;;;;;;;;;;;;;;;-53.930023;-26.661734;28.351696;;599.0
741.0;701.4;;;;;;;;;;;;;;0.7538682;0.06573687;-0.030640583;;;;;599.0
863.0;702.1;;;;;;;;;;;;;;;;;-49.40947;-22.915585;31.476028;;608.6
863.0;702.1;;;;;;;;;;;;;;0.7698599;0.09533983;3.662221E-4;;;;;608.6
863.0;702.1;;;;;;;;;;;;;;;;;-46.288948;-17.883846;34.531693;;608.6
863.0;702.1;;;;;;;;;;;;;;0.7830439;0.119754635;0.024536882;;;;;608.6
863.0;702.1;;;;;;;;;;;;;;;;;-42.790768;-12.092959;37.362286;;618.3
863.0;702.1;;;;;;;;;;;;;;0.789819;0.13666189;0.04388562;;;;;618.3
863.0;702.1;;;;;;;;;;;;;;;;;-38.850063;-6.5652943;39.7351;;618.3
863.0;702.1;;;;;;;;;;;;;;0.78456986;0.17670217;0.043702506;;;;;618.3
863.0;702.1;;;;;;;;;;;;;;;;;-34.40962;-1.3351848;41.66921;;627.8
863.0;702.1;;;;;;;;;;;;;;0.7709586;0.23993652;0.04687643;;;;;627.8
863.0;702.1;;;;;;;;;;;;;;;;;-29.755548;2.311777;43.93521;;627.8
863.0;702.1;;;;;;;;;;;;;;0.75875115;0.29822686;0.047975097;;;;;627.8
863.0;762.1;;;;;;;;;;;;;;;;;-25.997955;4.139073;46.601765;;637.5
863.0;762.1;;;;;;;;;;;;;;0.7471542;0.37995544;0.061586354;;;;;637.5
863.0;762.1;;;;;;;;;;;;;;;;;-24.887844;3.1128879;48.73043;;637.5
863.0;762.1;;;;;;;;;;;;;;0.7324442;0.4804834;0.070986055;;;;;637.5
863.0;762.1;;;;;;;;;;;;;;;;;-26.913511;-0.9994812;49.268322;;647.1
863.0;762.1;;;;;;;;;;;;;;0.7095553;0.6146428;0.0794702;;;;;647.1
863.0;762.1;;;;;;;;;;;;;;;;;-30.087435;-8.568071;49.92828;;647.1
863.0;762.1;;;;;;;;;;;;;;0.69435716;0.73140657;0.065187536;;;;;647.1
863.0;762.1;;;;;;;;;;;;;;;;;-29.7174;-18.501846;47.631763;;656.8
863.0;762.1;;;;;;;;;;;;;;0.70424515;0.86452836;0.07080294;;;;;656.8
863.0;762.1;;;;;;;;;;;;;;;;;-28.237251;-29.248177;41.814175;;656.8
863.0;762.1;;;;;;;;;;;;;;0.7639393;1.0192572;0.07074191;;;;;656.8
864.0;762.9;;;;;;;;;;;;;;;;;-26.2154;-37.125767;38.319805;;666.4
864.0;762.9;;;;;;;;;;;;;;0.8401135;1.1223487;0.12939848;;;;;666.4
864.0;762.9;;;;;;;;;;;;;;;;;-26.360363;-43.31721;39.91058;;666.4
864.0;762.9;;;;;;;;;;;;;;0.92483294;1.1531724;0.20239876;;;;;666.4
864.0;762.9;;;;;;;;;;;;;;;;;-26.982178;-46.525467;42.565693;;676.1
864.0;762.9;;;;;;;;;;;;;;0.9846492;1.1571398;0.26013976;;;;;676.1
864.0;762.9;;;;;;;;;;;;;;;;;-31.178473;-44.141212;42.004913;;676.1
864.0;762.9;;;;;;;;;;;;;;0.96841335;1.1897336;0.33558154;;;;;676.1
864.0;762.9;;;;;;;;;;;;;;;;;-39.78469;-41.150394;40.627766;;685.6
864.0;762.9;;;;;;;;;;;;;;0.9997864;1.1794794;0.36414686;;;;;685.6
864.0;762.9;;;;;;;;;;;;;;;;;-44.789726;-37.74758;41.80654;;685.6
864.0;762.9;;;;;;;;;;;;;;0.981048;1.1134373;0.32520524;;;;;685.6
864.0;769.1;;;;;;;;;;;;;;;;;-43.607136;-29.97299;37.404247;;695.3
864.0;769.1;;;;;;;;;;;;;;0.92898345;1.1237526;0.29584643;;;;;695.3
864.0;769.1;;;;;;;;;;;;;;;;;-36.641285;-26.654104;31.411175;;695.3
864.0;769.1;;;;;;;;;;;;;;0.86629844;1.1685537;0.21826838;;;;;695.3
864.0;769.1;;;;;;;;;;;;;;;;;-23.77392;-27.878658;26.562548;;704.9
864.0;769.1;;;;;;;;;;;;;;0.8071535;1.2012086;0.120548114;;;;;704.9
864.0;769.1;;;;;;;;;;;;;;;;;-10.66622;-31.376842;24.224068;;704.9
864.0;769.1;;;;;;;;;;;;;;0.77730644;1.1734977;-7.9348125E-4;;;;;704.9
864.0;769.1;;;;;;;;;;;;;;;;;-1.1749626;-32.109287;23.209326;;714.6
864.0;769.1;;;;;;;;;;;;;;0.74172187;1.0859706;-0.105838194;;;;;714.6
864.0;769.1;;;;;;;;;;;;;;;;;7.1375165;-31.308174;20.481735;;714.6
864.0;769.1;;;;;;;;;;;;;;0.7267678;1.0179754;-0.18933684;;;;;714.6
923.0;821.7;;;;;;;;;;;;;;;;;14.683218;-30.686361;18.524736;;724.3
923.0;821.7;;;;;;;;;;;;;;0.6971038;0.94119084;-0.27643666;;;;;724.3
923.0;821.7;;;;;;;;;;;;;;;;;20.821253;-30.533768;16.956846;;724.3
923.0;821.7;;;;;;;;;;;;;;0.6690268;0.88790554;-0.34882656;;;;;724.3
923.0;821.7;;;;;;;;;;;;;;;;;24.151587;-30.81225;17.113253;;733.9
923.0;821.7;;;;;;;;;;;;;;0.6620075;0.8119755;-0.37318033;;;;;733.9
923.0;821.7;;;;;;;;;;;;;;;;;22.961363;-30.655842;17.769402;;733.9
923.0;821.7;;;;;;;;;;;;;;0.6632283;0.72981966;-0.3475448;;;;;733.9
923.0;821.7;;;;;;;;;;;;;;;;;19.604326;-30.884731;18.452253;;743.3
923.0;821.7;;;;;;;;;;;;;;0.65993226;0.6398511;-0.33729056;;;;;743.3
923.0;821.7;;;;;;;;;;;;;;;;;16.144293;-32.612843;18.787958;;743.3
923.0;821.7;;;;;;;;;;;;;;0.65651417;0.5476241;-0.34644613;;;;;743.3
923.0;836.7;;;;;;;;;;;;;;;;;13.451034;-34.455395;19.260996;;753.0
923.0;836.7;;;;;;;;;;;;;;0.6761681;0.47260964;-0.35798213;;;;;753.0
923.0;836.7;;;;;;;;;;;;;;;;;11.600848;-37.385174;20.657215;;753.0
923.0;836.7;;;;;;;;;;;;;;0.68910795;0.39045382;-0.38019958;;;;;753.0
923.0;836.7;;;;;;;;;;;;;;;;;8.285776;-42.329174;22.099216;;762.7
923.0;836.7;;;;;;;;;;;;;;0.74898523;0.31958982;-0.3800775;;;;;762.7
923.0;836.7;;;;;;;;;;;;;;;;;5.3903317;-48.589283;23.731956;;762.7
923.0;836.7;;;;;;;;;;;;;;0.84701073;0.22614215;-0.3881344;;;;;762.7
923.0;836.7;;;;;;;;;;;;;;;;;7.9004793;-53.07932;27.451399;;772.4
923.0;836.7;;;;;;;;;;;;;;0.96761984;0.10925627;-0.36463514;;;;;772.4
923.0;836.7;;;;;;;;;;;;;;;;;12.424848;-53.00302;32.39921;;772.4
923.0;836.7;;;;;;;;;;;;;;1.0995818;0.028199103;-0.27051607;;;;;772.4
985.0;882.4;;;;;;;;;;;;;;;;;11.646626;-51.87002;37.49962;;781.9
985.0;882.4;;;;;;;;;;;;;;1.2128055;-0.0056764428;-0.13263345;;;;;781.9
985.0;882.4;;;;;;;;;;;;;;;;;5.043184;-54.166542;41.01306;;781.9
985.0;882.4;;;;;;;;;;;;;;1.2474135;0.009521775;-0.005798517;;;;;781.9
985.0;882.4;;;;;;;;;;;;;;;;;-3.151036;-55.589462;42.527542;;791.6
985.0;882.4;;;;;;;;;;;;;;1.1860104;0.07184057;0.087466046;;;;;791.6
985.0;882.4;;;;;;;;;;;;;;;;;-11.204107;-53.07169;43.897064;;791.6
985.0;882.4;;;;;;;;;;;;;;1.1824702;0.18237862;0.21686453;;;;;791.6
985.0;882.4;;;;;;;;;;;;;;;;;-24.136326;-46.636097;46.712395;;801.2
985.0;882.4;;;;;;;;;;;;;;1.2576067;0.3434553;0.36317027;;;;;801.2
985.0;882.4;;;;;;;;;;;;;;;;;-44.00006;-30.838953;46.95273;;801.2
985.0;882.4;;;;;;;;;;;;;;1.3556322;0.53859067;0.50556964;;;;;801.2
985.0;889.4;;;;;;;;;;;;;;;;;-67.84264;-1.5984069;39.510025;;810.8
985.0;889.4;;;;;;;;;;;;;;1.4074526;0.73317665;0.6784875;;;;;810.8
985.0;889.4;;;;;;;;;;;;;;;;;-78.04346;28.550066;21.313364;;810.8
985.0;889.4;;;;;;;;;;;;;;1.4440749;0.88125247;0.82937104;;;;;810.8
985.0;889.4;;;;;;;;;;;;;;;;;-58.210243;38.800472;-8.972442;;820.5
985.0;889.4;;;;;;;;;;;;;;1.4086734;0.9999695;0.77175206;;;;;820.5
985.0;889.4;;;;;;;;;;;;;;;;;-17.948698;29.023104;-57.943207;;820.5
985.0;889.4;;;;;;;;;;;;;;1.2902005;1.2195807;0.49079868;;;;;820.5
985.0;889.4;;;;;;;;;;;;;;;;;20.527512;10.921812;-105.49104;;830.1
985.0;889.4;;;;;;;;;;;;;;1.3066806;1.5292825;0.057924133;;;;;830.1
985.0;889.4;;;;;;;;;;;;;;;;;52.419353;2.6512957;-122.00537;;830.1
985.0;889.4;;;;;;;;;;;;;;1.4698935;1.764092;-0.25397503;;;;;830.1
1043.0;942.3;;;;;;;;;;;;;;;;;82.37708;1.4152958;-99.8146;;839.7
1043.0;942.3;;;;;;;;;;;;;;1.6014283;1.8258003;-0.21552171;;;;;839.7
1043.0;942.3;;;;;;;;;;;;;;;;;83.960236;-13.477737;-41.394543;;839.7
1043.0;942.3;;;;;;;;;;;;;;1.5286111;1.4843593;-0.2666097;;;;;839.7
1043.0;942.3;;;;;;;;;;;;;;;;;65.740685;-30.297249;-0.88122195;;849.1
1043.0;942.3;;;;;;;;;;;;;;1.1939452;0.74404126;-0.45661795;;;;;849.1
1043.0;942.3;;;;;;;;;;;;;;;;;66.90802;-45.178837;1.4419996;;849.1
1043.0;942.3;;;;;;;;;;;;;;1.0891446;0.52375865;-0.5196692;;;;;849.1
1043.0;942.3;;;;;;;;;;;;;;;;;57.10776;-58.24839;15.610218;;858.8
1043.0;942.3;;;;;;;;;;;;;;1.058626;0.30842006;-0.5620289;;;;;858.8
1043.0;942.3;;;;;;;;;;;;;;;;;37.77047;-63.63491;52.655872;;858.8
1043.0;942.3;;;;;;;;;;;;;;0.9602344;0.06201361;-0.5285806;;;;;858.8
1043.0;943.0;;;;;;;;;;;;;;;;;4.623554;-63.547165;98.06742;;868.5
1043.0;943.0;;;;;;;;;;;;;;0.8661763;-0.07293924;-0.38935515;;;;;868.5
1043.0;943.0;;;;;;;;;;;;;;;;;-46.00284;-65.41261;123.924225;;868.5
1043.0;943.0;;;;;;;;;;;;;;0.7406232;-0.23383282;-0.2445143;;;;;868.5
1043.0;943.0;;;;;;;;;;;;;;;;;-90.227974;-66.763054;124.988556;;878.2
1043.0;943.0;;;;;;;;;;;;;;0.62318796;-0.47529528;-0.18750572;;;;;878.2
1043.0;943.0;;;;;;;;;;;;;;;;;-109.56908;-59.228798;124.988556;;878.2
1043.0;943.0;;;;;;;;;;;;;;0.56862086;-0.59022796;-0.22479934;;;;;878.2
1043.0;943.0;;;;;;;;;;;;;;;;;-107.51289;-39.66643;124.988556;;887.8
1043.0;943.0;;;;;;;;;;;;;;0.53639334;-0.9129917;-0.28199103;;;;;887.8
1043.0;943.0;;;;;;;;;;;;;;;;;-35.935543;-29.38551;124.988556;;887.8
1043.0;943.0;;;;;;;;;;;;;;0.55964845;-1.2388684;-0.34272286;;;;;887.8
1103.0;1002.8;;;;;;;;;;;;;;;;;70.364235;-32.547993;124.988556;;897.4
1103.0;1002.8;;;;;;;;;;;;;;0.5879696;-1.3632008;-0.39759514;;;;;897.4
1103.0;1002.8;;;;;;;;;;;;;;;;;121.41407;-29.419844;124.988556;;897.4
1103.0;1002.8;;;;;;;;;;;;;;0.4659566;-1.6182745;-0.38709676;;;;;897.4
1103.0;1002.8;;;;;;;;;;;;;;;;;124.988556;-49.924465;114.96704;;907.0
1103.0;1002.8;;;;;;;;;;;;;;0.3342387;-1.389813;-0.4024781;;;;;907.0
1103.0;1002.8;;;;;;;;;;;;;;;;;124.637596;-89.76638;60.243538;;907.0
1103.0;1002.8;;;;;;;;;;;;;;0.44044313;-0.6329539;-0.53230387;;;;;907.0
1103.0;1002.8;;;;;;;;;;;;;;;;;102.56889;-93.18064;40.383617;;916.7
1103.0;1002.8;;;;;;;;;;;;;;0.46943572;-0.36426893;-0.6330149;;;;;916.7
1103.0;1002.8;;;;;;;;;;;;;;;;;70.10864;-74.03027;23.129215;;916.7
1103.0;1002.8;;;;;;;;;;;;;;0.519364;-0.34455398;-0.68440807;;;;;916.7
1103.0;1003.7;;;;;;;;;;;;;;;;;70.45961;-49.52391;-16.376995;;926.4
1103.0;1003.7;;;;;;;;;;;;;;0.67934203;-0.22711875;-0.73500776;;;;;926.4
1103.0;1003.7;;;;;;;;;;;;;;;;;83.93735;-21.015808;-52.388836;;926.4
1103.0;1003.7;;;;;;;;;;;;;;0.9009674;-0.113956116;-0.72768337;;;;;926.4
1103.0;1003.7;;;;;;;;;;;;;;;;;95.81286;8.285776;-80.030975;;936.0
1103.0;1003.7;;;;;;;;;;;;;;1.2179937;-0.047608875;-0.6269112;;;;;936.0
1103.0;1003.7;;;;;;;;;;;;;;;;;103.76675;35.145878;-102.96564;;936.0
1103.0;1003.7;;;;;;;;;;;;;;1.6863308;0.10937834;-0.4217658;;;;;936.0
1103.0;1003.7;;;;;;;;;;;;;;;;;115.78341;49.46669;-118.472855;;945.6
1103.0;1003.7;;;;;;;;;;;;;;1.6912748;0.27185887;-0.11902219;;;;;945.6
1103.0;1003.7;;;;;;;;;;;;;;;;;124.15693;24.85351;-124.496445;;945.6
1103.0;1003.7;;;;;;;;;;;;;;1.4040955;0.527665;0.17316203;;;;;945.6
1161.0;1062.7;;;;;;;;;;;;;;;;;102.55745;-19.260996;-124.14166;;955.2
1161.0;1062.7;;;;;;;;;;;;;;1.1976684;0.70113224;0.07000946;;;;;955.2
1161.0;1062.7;;;;;;;;;;;;;;;;;64.603874;-39.345985;-117.49626;;955.2
1161.0;1062.7;;;;;;;;;;;;;;1.0985442;0.737022;-0.25684378;;;;;955.2
1161.0;1062.7;;;;;;;;;;;;;;;;;58.084354;-25.955992;-108.20338;;964.8
1161.0;1062.7;;;;;;;;;;;;;;1.0382397;0.8185064;-0.34815517;;;;;964.8
1161.0;1062.7;;;;;;;;;;;;;;;;;54.143654;1.7357402;-99.26145;;964.8
1161.0;1062.7;;;;;;;;;;;;;;1.0094302;0.9422895;-0.25543994;;;;;964.8
1161.0;1062.7;;;;;;;;;;;;;;;;;38.590656;19.512772;-78.146454;;974.5
1161.0;1062.7;;;;;;;;;;;;;;0.99795526;1.0209662;-0.08844264;;;;;974.5
1161.0;1062.7;;;;;;;;;;;;;;;;;17.674032;15.980255;-39.147617;;974.5
1161.0;1062.7;;;;;;;;;;;;;;0.9577929;1.0690634;0.0507828;;;;;974.5
1161.0;1063.5;;;;;;;;;;;;;;;;;-6.4546647;-0.8316294;6.286813;;984.0
1161.0;1063.5;;;;;;;;;;;;;;0.9139073;1.0102848;0.051637318;;;;;984.0
1161.0;1063.5;;;;;;;;;;;;;;;;;-15.243996;-15.793329;54.551838;;984.0
1161.0;1063.5;;;;;;;;;;;;;;0.82149726;0.6520585;0.00286874;;;;;984.0
1161.0;1063.5;;;;;;;;;;;;;;;;;-16.636404;-23.625141;71.241646;;993.7
1161.0;1063.5;;;;;;;;;;;;;;0.8941313;0.39167455;-0.12829982;;;;;993.7
1161.0;1063.5;;;;;;;;;;;;;;;;;-14.53444;-17.090364;70.68087;;993.7
1161.0;1063.5;;;;;;;;;;;;;;0.90755945;0.33875546;-0.19714957;;;;;993.7
1161.0;1063.5;;;;;;;;;;;;;;;;;-13.920255;-10.376293;71.51631;;1003.3
1161.0;1063.5;;;;;;;;;;;;;;0.8712424;0.2865688;-0.1953795;;;;;1003.3
1161.0;1063.5;;;;;;;;;;;;;;;;;-15.392773;-10.944701;75.18235;;1003.3
1161.0;1063.5;;;;;;;;;;;;;;0.8616596;0.25049594;-0.22333445;;;;;1003.3
1162.0;1127.0;;;;0.0;0.0;0.0;;;;;;;;;;;;;;;
1162.0;1127.0;;;;-0.3769608;0.48824698;0.122726455;;;;;;;;;;;;;;;
1162.0;1127.0;;;;-1.0948335;1.3833925;0.28606418;;;;;;;;;;;;;;;
1162.0;1127.0;;;;-1.1230813;1.4045602;0.27526477;;;;;;;;;;;;;;;
1162.0;1127.0;;;;-1.1314508;1.4023935;0.27144626;;;;;;;;;;;;;;;
1162.0;1137.1;;;;-1.138115;1.4003679;0.2684975;;;;;;;;;;;;;;;
1162.0;1137.1;;;;-1.1428338;1.3981286;0.2639809;;;;;;;;;;;;;;;
1162.0;1137.1;;;;-1.1481057;1.3939096;0.2578011;;;;;;;;;;;;;;;
1162.0;1137.1;;;;-1.150776;1.3925515;0.25602344;;;;;;;;;;;;;;;
1162.0;1137.1;;;;-1.1554567;1.3916475;0.25369266;;;;;;;;;;;;;;;
1163.0;1138.2;;;;;;;;;;;;;;;;;-16.159552;-11.276589;83.246864;;1012.9
1163.0;1138.2;;;;;;;;;;;;;;0.8586688;0.2156438;-0.26856288;;;;;1012.9
1163.0;1138.2;;;;;;;;;;;;;;;;;-16.438032;-13.012329;92.82967;;1012.9
1163.0;1138.2;;;;;;;;;;;;;;0.8354747;0.16370128;-0.30146185;;;;;1012.9
1163.0;1138.2;;;;;;;;;;;;;;;;;-13.653218;-18.658255;101.23371;;1022.5
1163.0;1138.2;;;;;;;;;;;;;;0.8281503;0.09820856;-0.35859248;;;;;1022.5
1163.0;1138.2;;;;;;;;;;;;;;;;;-9.201331;-21.256142;104.25123;;1022.5
1163.0;1138.2;;;;;;;;;;;;;;0.83584094;0.019531846;-0.4100467;;;;;1022.5
1163.0;1138.2;;;;;;;;;;;;;;;;;-6.3783684;-20.447401;101.95853;;1032.2
1163.0;1138.2;;;;;;;;;;;;;;0.8348033;-0.052186653;-0.44111454;;;;;1032.2
1163.0;1138.2;;;;;;;;;;;;;;;;;-5.1347394;-21.084475;95.25208;;1032.2
1163.0;1138.2;;;;;;;;;;;;;;0.8125248;-0.12768945;-0.45661795;;;;;1032.2
1163.0;1138.4;57474;57544;11165;;;;;;;;;;;;;;;;;;
1219.0;1139.3;;;;;;;;;;;;;;;;;-3.4142585;-23.55266;80.35142;;1041.9
1219.0;1139.3;;;;;;;;;;;;;;0.7842647;-0.1662038;-0.48628193;;;;;1041.9
1219.0;1139.3;;;;;;;;;;;;;;;;;-3.0899992;-23.503067;61.098057;;1041.9
1219.0;1139.3;;;;;;;;;;;;;;0.8024537;-0.069887385;-0.517716;;;;;1041.9
1219.0;1139.3;;;;;;;;;;;;;;;;;-5.1538134;-20.027771;54.673912;;1051.6
1219.0;1139.3;;;;;;;;;;;;;;0.8122196;0.016479995;-0.5148473;;;;;1051.6
1219.0;1139.3;;;;;;;;;;;;;;;;;-1.0109257;-20.29481;55.227055;;1051.6
1219.0;1139.3;;;;;;;;;;;;;;0.8351085;0.003112888;-0.47163305;;;;;1051.6
1219.0;1139.3;;;;;;;;;;;;;;;;;4.3641467;-22.015291;53.937653;;1061.3
1219.0;1139.3;;;;;;;;;;;;;;0.8743553;0.024903104;-0.44611958;;;;;1061.3
1219.0;1139.3;;;;;;;;;;;;;;;;;8.663442;-22.194586;52.85806;;1061.3
1219.0;1139.3;;;;;;;;;;;;;;0.90316474;0.039185766;-0.42500076;;;;;1061.3
1219.0;1146.9;;;;-1.1614572;1.3887216;0.24934009;;;;;;;;;;;;;;;
1219.0;1146.9;;;;-1.1665307;1.3832246;0.2473717;;;;;;;;;;;;;;;
1219.0;1146.9;;;;-1.1722566;1.379902;0.24506763;;;;;;;;;;;;;;;
1219.0;1146.9;;;;-1.1770135;1.3735963;0.24479297;;;;;;;;;;;;;;;
1219.0;1146.9;;;;-1.1819535;1.3660928;0.24307635;;;;;;;;;;;;;;;
1219.0;1156.9;;;;-1.1838075;1.3616563;0.24575427;;;;;;;;;;;;;;;
1219.0;1156.9;;;;-1.191475;1.3558351;0.24272922;;;;;;;;;;;;;;;
1219.0;1156.9;;;;-1.1972505;1.3490525;0.2452927;;;;;;;;;;;;;;;
1219.0;1156.9;;;;-1.2046243;1.3422929;0.2460213;;;;;;;;;;;;;;;
1219.0;1156.9;;;;-1.2152559;1.3346139;0.24502185;;;;;;;;;;;;;;;
1219.0;1158.3;73909;73854;11097;;;;;;;;;;;;;;;;;;
1220.0;1164.6;;;;;;;;;;;;;0;;;;;;;;
1220.0;1164.6;;;;;;;;;;;;;0;;;;;;;;
1220.0;1164.6;;;;;;;;;;;;;-1;;;;;;;;
1220.0;1164.6;;;;;;;;;;;;;-3;;;;;;;;
1220.0;1164.6;;;;;;;;;;;;;-4;;;;;;;;
1220.0;1167.0;;;;-1.2190133;1.3271562;0.2487984;;;;;;;;;;;;;;;
1220.0;1167.0;;;;-1.2234918;1.3216554;0.2505379;;;;;;;;;;;;;;;
1220.0;1167.0;;;;-1.2290651;1.3138429;0.2531853;;;;;;;;;;;;;;;
1220.0;1167.0;;;;-1.2323076;1.3044091;0.25794604;;;;;;;;;;;;;;;
1220.0;1167.0;;;;-1.2340776;1.2947503;0.25867847;;;;;;;;;;;;;;;
1220.0;1177.1;;;;-1.2376672;1.2865983;0.25485995;;;;;;;;;;;;;;;
1220.0;1177.1;;;;-1.2379876;1.2770692;0.26129535;;;;;;;;;;;;;;;
1220.0;1177.1;;;;-1.2434312;1.2658349;0.2632332;;;;;;;;;;;;;;;
1220.0;1177.1;;;;-1.2458192;1.2540895;0.27204517;;;;;;;;;;;;;;;
1220.0;1177.1;;;;-1.2506524;1.2433206;0.27811435;;;;;;;;;;;;;;;
1220.0;1178.5;90311;90223;11007;;;;;;;;;;;;;;;;;;
1221.0;1183.2;;;;;;;;;;;;;;;;;13.065737;-21.122623;50.931576;;1070.9
1221.0;1183.2;;;;;;;;;;;;;;0.9273965;0.105838194;-0.42054507;;;;;1070.9
1221.0;1183.2;;;;;;;;;;;;;;;;;15.671255;-18.288218;49.089024;;1070.9
1221.0;1183.2;;;;;;;;;;;;;;0.9231239;0.15875728;-0.39710686;;;;;1070.9
1221.0;1183.2;;;;;;;;;;;;;;;;;17.17429;-16.052736;47.757652;;1080.6
1221.0;1183.2;;;;;;;;;;;;;;0.90823084;0.18982513;-0.36194953;;;;;1080.6
1221.0;1183.2;;;;;;;;;;;;;;;;;17.250587;-16.254921;46.10584;;1080.6
1221.0;1183.2;;;;;;;;;;;;;;0.9073153;0.2174749;-0.34070864;;;;;1080.6
1221.0;1183.2;;;;;;;;;;;;;;;;;16.037477;-17.48329;44.47691;;1090.3
1221.0;1183.2;;;;;;;;;;;;;;0.91116065;0.2334666;-0.32276377;;;;;1090.3
1221.0;1183.2;;;;;;;;;;;;;;;;;14.229255;-18.673513;43.50795;;1090.3
1221.0;1183.2;;;;;;;;;;;;;;0.90560627;0.22962126;-0.3073214;;;;;1090.3
1221.0;1184.1;;;;;;;;;;;;;;;;;13.1077;-19.093143;42.58095;;1100.0
1221.0;1184.1;;;;;;;;;;;;;;0.91201514;0.20874661;-0.3018891;;;;;1100.0
1221.0;1184.1;;;;;;;;;;;;;;;;;12.096774;-18.223366;41.42506;;1100.0
1221.0;1184.1;;;;;;;;;;;;;;0.92287976;0.21143223;-0.2921842;;;;;1100.0
1221.0;1184.1;;;;;;;;;;;;;;;;;11.2384405;-17.311625;40.921505;;1109.6
1221.0;1184.1;;;;;;;;;;;;;;0.90676594;0.20886868;-0.29914242;;;;;1109.6
1221.0;1184.1;;;;;;;;;;;;;;;;;11.0400715;-15.964996;40.36836;;1109.6
1221.0;1184.1;;;;;;;;;;;;;;0.90340894;0.21875668;-0.29749444;;;;;1109.6
1221.0;1184.1;;;;;;;;;;;;;;;;;11.032442;-15.724663;40.8681;;1119.2
1221.0;1184.1;;;;;;;;;;;;;;0.8836329;0.17548142;-0.30872524;;;;;1119.2
1221.0;1184.1;;;;;;;;;;;;;;;;;12.348553;-15.087587;39.773247;;1119.2
1221.0;1184.1;;;;;;;;;;;;;;0.8891873;0.19360943;-0.3109836;;;;;1119.2
1278.0;1187.0;;;;-1.2599107;1.2319833;0.28055194;;;;;;;;;;;;;;;
1278.0;1187.0;;;;-1.2678186;1.2199937;0.28416446;;;;;;;;;;;;;;;
1278.0;1187.0;;;;-1.2758828;1.20776;0.2932625;;;;;;;;;;;;;;;
1278.0;1187.0;;;;-1.2828828;1.1953012;0.29747775;;;;;;;;;;;;;;;
1278.0;1187.0;;;;-1.2864114;1.1827585;0.302784;;;;;;;;;;;;;;;
1278.0;1197.0;;;;-1.2910348;1.1706773;0.3069878;;;;;;;;;;;;;;;
1278.0;1197.0;;;;-1.2964822;1.1590997;0.30990222;;;;;;;;;;;;;;;
1278.0;1197.0;;;;-1.2986604;1.1503335;0.31647876;;;;;;;;;;;;;;;
1278.0;1197.0;;;;-1.298855;1.1432306;0.32888034;;;;;;;;;;;;;;;
1278.0;1197.0;;;;-1.3084909;1.1356546;0.33737567;;;;;;;;;;;;;;;
1278.0;1198.3;106618;106707;10893;;;;;;;;;;;;;;;;;;
1278.0;1204.6;;;;;;;;;;;;;-1;;;;;;;;
1278.0;1204.6;;;;;;;;;;;;;-11;;;;;;;;
1278.0;1204.6;;;;;;;;;;;;;-19;;;;;;;;
1278.0;1204.6;;;;;;;;;;;;;14;;;;;;;;
1278.0;1204.6;;;;;;;;;;;;;-15;;;;;;;;
1278.0;1206.8;;;;-1.31588;1.1268655;0.34079745;;;;;;;;;;;;;;;
1278.0;1206.8;;;;-1.3198282;1.1204606;0.35747913;;;;;;;;;;;;;;;
1278.0;1206.8;;;;-1.3309747;1.1161538;0.37010196;;;;;;;;;;;;;;;
1278.0;1206.8;;;;-1.3433267;1.1133081;0.37513357;;;;;;;;;;;;;;;
1278.0;1206.8;;;;-1.3547403;1.1122895;0.38127142;;;;;;;;;;;;;;;
1279.0;1216.8;;;;-1.3636819;1.1136132;0.3849488;;;;;;;;;;;;;;;
1279.0;1216.8;;;;-1.3713304;1.1165162;0.37998968;;;;;;;;;;;;;;;
1279.0;1216.8;;;;-1.3716584;1.11998;0.3725281;;;;;;;;;;;;;;;
1279.0;1216.8;;;;-1.3673097;1.1245805;0.36713412;;;;;;;;;;;;;;;
1279.0;1216.8;;;;-1.3593637;1.1295778;0.35571674;;;;;;;;;;;;;;;
1279.0;1218.3;123055;123072;10838;;;;;;;;;;;;;;;;;;
1279.0;1226.9;;;;-1.3500749;1.1342431;0.3461075;;;;;;;;;;;;;;;
1279.0;1226.9;;;;-1.3403703;1.1382982;0.33405307;;;;;;;;;;;;;;;
1279.0;1226.9;;;;-1.3311845;1.1392251;0.32208636;;;;;;;;;;;;;;;
1279.0;1226.9;;;;-1.3151094;1.1398355;0.31050113;;;;;;;;;;;;;;;
1279.0;1226.9;;;;-1.2971231;1.1359979;0.2925568;;;;;;;;;;;;;;;
1279.0;1237.0;;;;-1.2807809;1.1297761;0.2857094;;;;;;;;;;;;;;;
1279.0;1237.0;;;;-1.2643014;1.1215326;0.28038028;;;;;;;;;;;;;;;
1279.0;1237.0;;;;-1.2502404;1.1115457;0.27232745;;;;;;;;;;;;;;;
1279.0;1237.0;;;;-1.2356149;1.100712;0.2688599;;;;;;;;;;;;;;;
1279.0;1237.0;;;;-1.2209169;1.0884935;0.26603702;;;;;;;;;;;;;;;
1279.0;1238.6;139365;139371;10828;;;;;;;;;;;;;;;;;;
1282.0;1243.4;;;;;;;;;;;;;;;;;13.050478;-15.594958;39.6321;;1128.8
1282.0;1243.4;;;;;;;;;;;;;;0.90481275;0.18836024;-0.31867427;;;;;1128.8
1282.0;1243.4;;;;;;;;;;;;;;;;;13.748589;-14.660329;38.636436;;1128.8
1282.0;1243.4;;;;;;;;;;;;;;0.8926664;0.19525743;-0.32831812;;;;;1128.8
1282.0;1243.4;;;;;;;;;;;;;;;;;14.999847;-13.389997;37.598804;;1138.5
1282.0;1243.4;;;;;;;;;;;;;;0.8767968;0.21607105;-0.32599872;;;;;1138.5
1282.0;1243.4;;;;;;;;;;;;;;;;;14.904477;-14.137699;36.34373;;1138.5
1282.0;1243.4;;;;;;;;;;;;;;0.8758812;0.24909207;-0.32587665;;;;;1138.5
1282.0;1243.4;;;;;;;;;;;;;;;;;14.12244;-15.4194765;36.01184;;1147.8
1282.0;1243.4;;;;;;;;;;;;;;0.8700827;0.26715904;-0.34882656;;;;;1147.8
1282.0;1243.4;;;;;;;;;;;;;;;;;14.278848;-14.481033;35.878323;;1147.8
1282.0;1243.4;;;;;;;;;;;;;;0.8667257;0.2741783;-0.34797204;;;;;1147.8
1282.0;1244.9;;;;;;;;;;;;;43;;;;;;;;
1282.0;1244.9;;;;;;;;;;;;;39;;;;;;;;
1282.0;1244.9;;;;;;;;;;;;;-71;;;;;;;;
1282.0;1244.9;;;;;;;;;;;;;326;;;;;;;;
1282.0;1244.9;;;;;;;;;;;;;-87;;;;;;;;
1282.0;1247.1;;;;-1.2087556;1.0752145;0.26111987;;;;;;;;;;;;;;;
1282.0;1247.1;;;;-1.1959153;1.0615617;0.2559357;;;;;;;;;;;;;;;
1282.0;1247.1;;;;-1.1823007;1.047577;0.252018;;;;;;;;;;;;;;;
1282.0;1247.1;;;;-1.1673738;1.0329744;0.24600223;;;;;;;;;;;;;;;
1282.0;1247.1;;;;-1.1521608;1.0188142;0.23784259;;;;;;;;;;;;;;;
1336.0;1257.2;;;;-1.134247;1.0042535;0.23007205;;;;;;;;;;;;;;;
1336.0;1257.2;;;;-1.1125718;0.9882661;0.22586825;;;;;;;;;;;;;;;
1336.0;1257.2;;;;-1.0945741;0.97208035;0.22298816;;;;;;;;;;;;;;;
1336.0;1257.2;;;;-1.0757333;0.95720685;0.2254906;;;;;;;;;;;;;;;
1336.0;1257.2;;;;-1.0548822;0.9424211;0.22984698;;;;;;;;;;;;;;;
1336.0;1258.8;155828;155779;10861;;;;;;;;;;;;;;;;;;
1336.0;1267.2;;;;-1.0417138;0.9275094;0.22739413;;;;;;;;;;;;;;;
1336.0;1267.2;;;;-1.0309411;0.9120866;0.22638324;;;;;;;;;;;;;;;
1336.0;1267.2;;;;-1.0211526;0.8971826;0.22395709;;;;;;;;;;;;;;;
1336.0;1267.2;;;;-1.012108;0.88253415;0.21936801;;;;;;;;;;;;;;;
1336.0;1267.2;;;;-1.0006143;0.8682977;0.21511081;;;;;;;;;;;;;;;
1336.0;1277.1;;;;-0.98282254;0.85466015;0.21213534;;;;;;;;;;;;;;;
1336.0;1277.1;;;;-0.9636117;0.8409883;0.2073746;;;;;;;;;;;;;;;
1336.0;1277.1;;;;-0.9435426;0.8263742;0.20252994;;;;;;;;;;;;;;;
1336.0;1277.1;;;;-0.9221231;0.8112756;0.20014194;;;;;;;;;;;;;;;
1336.0;1277.1;;;;-0.9041215;0.7934648;0.19702914;;;;;;;;;;;;;;;
1336.0;1278.8;172177;172205;10922;;;;;;;;;;;;;;;;;;
1336.0;1285.1;;;;;;;;;;;;;-1190;;;;;;;;
1336.0;1285.1;;;;;;;;;;;;;218;;;;;;;;
1336.0;1285.1;;;;;;;;;;;;;2488;;;;;;;;
1336.0;1285.1;;;;;;;;;;;;;-1055;;;;;;;;
1336.0;1285.1;;;;;;;;;;;;;-12925;;;;;;;;
1338.0;1287.2;;;;-0.8710557;0.7785226;0.21060947;;;;;;;;;;;;;;;
1338.0;1287.2;;;;-0.84803784;0.7636491;0.2145119;;;;;;;;;;;;;;;
1338.0;1287.2;;;;-0.8254968;0.7468491;0.21662906;;;;;;;;;;;;;;;
1338.0;1287.2;;;;-0.80293286;0.72954947;0.22237399;;;;;;;;;;;;;;;
1338.0;1287.2;;;;-0.78668606;0.71140295;0.22712329;;;;;;;;;;;;;;;
1338.0;1297.3;;;;-0.7753755;0.6929284;0.23543933;;;;;;;;;;;;;;;
1338.0;1297.3;;;;-0.7681314;0.67503744;0.24810031;;;;;;;;;;;;;;;
1338.0;1297.3;;;;-0.76427853;0.65894705;0.25896457;;;;;;;;;;;;;;;
1338.0;1297.3;;;;-0.7646638;0.6440125;0.26578143;;;;;;;;;;;;;;;
1338.0;1297.3;;;;-0.7643167;0.62992865;0.26567462;;;;;;;;;;;;;;;
1338.0;1299.1;188517;188556;10965;;;;;;;;;;;;;;;;;;
1338.0;1307.4;;;;-0.7613565;0.61539465;0.26025012;;;;;;;;;;;;;;;
1338.0;1307.4;;;;-0.7586061;0.6017533;0.24885944;;;;;;;;;;;;;;;
1338.0;1307.4;;;;-0.7455674;0.5897904;0.24228671;;;;;;;;;;;;;;;
1338.0;1307.4;;;;-0.7270356;0.57825476;0.23198703;;;;;;;;;;;;;;;
1338.0;1307.4;;;;-0.6994744;0.567669;0.22428516;;;;;;;;;;;;;;;
1338.0;1317.4;;;;-0.67089087;0.55751044;0.21485904;;;;;;;;;;;;;;;
1338.0;1317.4;;;;-0.644085;0.54632574;0.20391467;;;;;;;;;;;;;;;
1338.0;1317.4;;;;-0.61856085;0.5340119;0.19813159;;;;;;;;;;;;;;;
1338.0;1317.4;;;;-0.59758;0.5199204;0.19313052;;;;;;;;;;;;;;;
1338.0;1317.4;;;;-0.5833245;0.50493246;0.18862155;;;;;;;;;;;;;;;
1396.0;1319.1;204867;204962;11033;;;;;;;;;;;;;;;;;;
1396.0;1325.3;;;;;;;;;;;;;-26415;;;;;;;;
1396.0;1325.3;;;;;;;;;;;;;-32576;;;;;;;;
1396.0;1325.3;;;;;;;;;;;;;-30572;;;;;;;;
1396.0;1325.3;;;;;;;;;;;;;-26910;;;;;;;;
1396.0;1325.3;;;;;;;;;;;;;-26144;;;;;;;;
1396.0;1327.3;;;;-0.56958014;0.48957068;0.18786624;;;;;;;;;;;;;;;
1396.0;1327.3;;;;-0.55883414;0.47431952;0.18947223;;;;;;;;;;;;;;;
1396.0;1327.3;;;;-0.55455023;0.45836645;0.1928406;;;;;;;;;;;;;;;
1396.0;1327.3;;;;-0.5553017;0.44282538;0.20028308;;;;;;;;;;;;;;;
1396.0;1327.3;;;;-0.5607224;0.42820746;0.20556262;;;;;;;;;;;;;;;
1396.0;1337.3;;;;-0.56991583;0.41471106;0.21009448;;;;;;;;;;;;;;;
1396.0;1337.3;;;;-0.5820275;0.40165716;0.21062854;;;;;;;;;;;;;;;
1396.0;1337.3;;;;-0.59473807;0.3886109;0.20597842;;;;;;;;;;;;;;;
1396.0;1337.3;;;;-0.60262305;0.3760491;0.20119098;;;;;;;;;;;;;;;
1396.0;1337.3;;;;-0.60846335;0.3645859;0.19191363;;;;;;;;;;;;;;;
1396.0;1339.2;221319;221335;11037;;;;;;;;;;;;;;;;;;
1396.0;1347.5;;;;-0.6168557;0.35187152;0.17632677;;;;;;;;;;;;;;;
1396.0;1347.5;;;;-0.5995789;0.33988193;0.17617418;;;;;;;;;;;;;;;
1396.0;1347.5;;;;-0.5748444;0.3320351;0.17619325;;;;;;;;;;;;;;;
1396.0;1347.5;;;;-0.54903036;0.32296374;0.16984178;;;;;;;;;;;;;;;
1396.0;1347.5;;;;-0.52989584;0.31127933;0.1606827;;;;;;;;;;;;;;;
1398.0;1357.6;;;;-0.5164872;0.29683307;0.15430833;;;;;;;;;;;;;;;
1398.0;1357.6;;;;-0.5065461;0.2803612;0.15137102;;;;;;;;;;;;;;;
1398.0;1357.6;;;;-0.5007859;0.2635384;0.14790346;;;;;;;;;;;;;;;
1398.0;1357.6;;;;-0.49703604;0.24532321;0.14359285;;;;;;;;;;;;;;;
1398.0;1357.6;;;;-0.4930039;0.22708896;0.14022447;;;;;;;;;;;;;;;
1398.0;1359.5;237759;237726;11046;;;;;;;;;;;;;;;;;;
1398.0;1364.6;;;;;;;;;;;;;;;;;14.172032;-14.252144;35.367138;;1157.5
1398.0;1364.6;;;;;;;;;;;;;;0.8577532;0.26953948;-0.34992522;;;;;1157.5
1398.0;1364.6;;;;;;;;;;;;;;;;;13.542589;-13.8363285;34.821617;;1157.5
1398.0;1364.6;;;;;;;;;;;;;;0.8467666;0.26252022;-0.3507187;;;;;1157.5
1398.0;1364.6;;;;;;;;;;;;;;;;;13.000885;-13.370922;33.92895;;1167.1
1398.0;1364.6;;;;;;;;;;;;;;0.8384045;0.26422927;-0.34614092;;;;;1167.1
1398.0;1364.6;;;;;;;;;;;;;;;;;11.822107;-13.660849;33.158363;;1167.1
1398.0;1364.6;;;;;;;;;;;;;;0.83785516;0.25745416;-0.34876552;;;;;1167.1
1398.0;1364.6;;;;;;;;;;;;;;;;;10.498367;-13.3137;32.677696;;1176.8
1398.0;1364.6;;;;;;;;;;;;;;0.8285165;0.2417066;-0.3526719;;;;;1176.8
1398.0;1364.6;;;;;;;;;;;;;;;;;9.31196;-12.6957;32.05588;;1176.8
1398.0;1364.6;;;;;;;;;;;;;;0.83584094;0.23975341;-0.3521836;;;;;1176.8
1399.0;1365.3;;;;;;;;;;;;;;;;;8.018739;-12.428662;31.693474;;1186.4
1399.0;1365.3;;;;;;;;;;;;;;0.84969634;0.22766808;-0.35059664;;;;;1186.4
1399.0;1365.3;;;;;;;;;;;;;;;;;6.9620347;-12.153996;31.20136;;1186.4
1399.0;1365.3;;;;;;;;;;;;;;0.8530534;0.22107609;-0.35456404;;;;;1186.4
1399.0;1365.3;;;;;;;;;;;;;;;;;6.2944427;-11.719108;30.949583;;1196.1
1399.0;1365.3;;;;;;;;;;;;;;0.85464036;0.21454512;-0.3482162;;;;;1196.1
1399.0;1365.3;;;;;;;;;;;;;;;;;5.6344795;-12.37907;30.858028;;1196.1
1399.0;1365.3;;;;;;;;;;;;;;0.8638569;0.19910276;-0.34388256;;;;;1196.1
1399.0;1365.3;;;;;;;;;;;;;;;;;5.2682576;-12.726218;30.873287;;1205.7
1399.0;1365.3;;;;;;;;;;;;;;0.8620258;0.1826838;-0.34003723;;;;;1205.7
1399.0;1365.3;;;;;;;;;;;;;;;;;5.157628;-13.019959;31.022064;;1205.7
1399.0;1365.3;;;;;;;;;;;;;;0.8493301;0.15741447;-0.3360088;;;;;1205.7
1399.0;1365.6;;;;;;;;;;;;;-25804;;;;;;;;
1399.0;1365.6;;;;;;;;;;;;;-23744;;;;;;;;
1399.0;1365.6;;;;;;;;;;;;;-21698;;;;;;;;
1399.0;1365.6;;;;;;;;;;;;;-20152;;;;;;;;
1399.0;1365.6;;;;;;;;;;;;;-18917;;;;;;;;
1400.0;1366.3;;;;;;;;;;;;;;;;;4.856258;-14.099551;31.498917;;1215.3
1400.0;1366.3;;;;;;;;;;;;;;0.8446913;0.12884915;-0.33991516;;;;;1215.3
1400.0;1366.3;;;;;;;;;;;;;;;;;4.581591;-14.835811;31.971954;;1215.3
1400.0;1366.3;;;;;;;;;;;;;;0.8418836;0.10132145;-0.34485915;;;;;1215.3
1400.0;1366.3;;;;;;;;;;;;;;;;;4.181036;-15.430922;32.30766;;1225.0
1400.0;1366.3;;;;;;;;;;;;;;0.84664446;0.08075198;-0.3493759;;;;;1225.0
1400.0;1366.3;;;;;;;;;;;;;;;;;3.6774805;-15.526292;32.547993;;1225.0
1400.0;1366.3;;;;;;;;;;;;;;0.8479873;0.06646931;-0.34748375;;;;;1225.0
1400.0;1366.3;;;;;;;;;;;;;;;;;2.910703;-16.193884;32.948547;;1234.6
1400.0;1366.3;;;;;;;;;;;;;;0.85512865;0.042909026;-0.35358745;;;;;1234.6
1400.0;1366.3;;;;;;;;;;;;;;;;;2.1744437;-16.384624;33.08588;;1234.6
1400.0;1366.3;;;;;;;;;;;;;;0.87350076;0.038209174;-0.3576159;;;;;1234.6
1400.0;1366.9;;;;;;;;;;;;;;;;;1.0681478;-15.854366;33.30714;;1244.3
1400.0;1366.9;;;;;;;;;;;;;;0.87856686;0.016846217;-0.35273293;;;;;1244.3
1400.0;1366.9;;;;;;;;;;;;;;;;;0.15259254;-15.591144;33.471176;;1244.3
1400.0;1366.9;;;;;;;;;;;;;;0.8907132;0.0054322947;-0.3509018;;;;;1244.3
1400.0;1366.9;;;;;;;;;;;;;;;;;-0.6904813;-14.786219;33.658104;;1254.0
1400.0;1366.9;;;;;;;;;;;;;;0.89455855;-0.011841182;-0.35303813;;;;;1254.0
1400.0;1366.9;;;;;;;;;;;;;;;;;-0.8278146;-13.5883665;33.494064;;1254.0
1400.0;1366.9;;;;;;;;;;;;;;0.9011505;-0.014709922;-0.3472396;;;;;1254.0
1400.0;1366.9;;;;;;;;;;;;;;;;;-0.79348123;-12.99707;33.581806;;1263.7
1400.0;1366.9;;;;;;;;;;;;;;0.9112217;-0.013733329;-0.35822627;;;;;1263.7
1400.0;1366.9;;;;;;;;;;;;;;;;;-0.10299997;-11.921293;33.684807;;1263.7
1400.0;1366.9;;;;;;;;;;;;;;0.91579944;-0.013672292;-0.35840937;;;;;1263.7
1455.0;1367.4;;;;-0.4879151;0.20762637;0.13638689;;;;;;;;;;;;;;;
1455.0;1367.4;;;;-0.4855309;0.18900302;0.13171388;;;;;;;;;;;;;;;
1455.0;1367.4;;;;-0.48265845;0.17074205;0.12886049;;;;;;;;;;;;;;;
1455.0;1367.4;;;;-0.4790879;0.15345766;0.12614442;;;;;;;;;;;;;;;
1455.0;1367.4;;;;-0.47895437;0.13661958;0.12151338;;;;;;;;;;;;;;;
1455.0;1377.5;;;;-0.47532278;0.12029649;0.12080003;;;;;;;;;;;;;;;
1455.0;1377.5;;;;-0.46936423;0.10468675;0.12332536;;;;;;;;;;;;;;;
1455.0;1377.5;;;;-0.46986395;0.08959962;0.12370683;;;;;;;;;;;;;;;
1455.0;1377.5;;;;-0.47604758;0.074264534;0.12605669;;;;;;;;;;;;;;;
1455.0;1377.5;;;;-0.46604162;0.06144715;0.14699937;;;;;;;;;;;;;;;
1455.0;1379.3;254093;254154;11050;;;;;;;;;;;;;;;;;;
1455.0;1387.2;;;;-0.4530564;0.053085335;0.16983034;;;;;;;;;;;;;;;
1455.0;1387.2;;;;-0.43581396;0.046836857;0.19060138;;;;;;;;;;;;;;;
1455.0;1387.2;;;;-0.42469794;0.041881565;0.2044144;;;;;;;;;;;;;;;
1455.0;1387.2;;;;-0.41842657;0.036621097;0.21341327;;;;;;;;;;;;;;;
1455.0;1387.2;;;;-0.41476828;0.031276707;0.22031024;;;;;;;;;;;;;;;
1455.0;1397.0;;;;-0.4091683;0.02656174;0.22942737;;;;;;;;;;;;;;;
1455.0;1397.0;;;;-0.40134436;0.022701265;0.23997882;;;;;;;;;;;;;;;
1455.0;1397.0;;;;-0.39151388;0.019680025;0.24973682;;;;;;;;;;;;;;;
1455.0;1397.0;;;;-0.38252646;0.016231539;0.25745776;;;;;;;;;;;;;;;
1455.0;1397.0;;;;-0.38002402;0.010734559;0.2582436;;;;;;;;;;;;;;;
1457.0;1399.0;262143;262143;11044;;;;;;;;;;;;;;;;;;
1457.0;1405.3;;;;;;;;;;;;;-18077;;;;;;;;
1457.0;1405.3;;;;;;;;;;;;;-17252;;;;;;;;
1457.0;1405.3;;;;;;;;;;;;;-16346;;;;;;;;
1457.0;1405.3;;;;;;;;;;;;;-15373;;;;;;;;
1457.0;1405.3;;;;;;;;;;;;;-14374;;;;;;;;
1457.0;1407.1;;;;-0.3740044;0.005195618;0.26341632;;;;;;;;;;;;;;;
1457.0;1407.1;;;;-0.36630633;5.149842E-4;0.2734528;;;;;;;;;;;;;;;
1457.0;1407.1;;;;-0.35867313;-0.00441742;0.28200153;;;;;;;;;;;;;;;
1457.0;1407.1;;;;-0.3535042;-0.008708955;0.28928378;;;;;;;;;;;;;;;
1457.0;1407.1;;;;-0.35361865;-0.013973238;0.29400256;;;;;;;;;;;;;;;
1457.0;1417.2;;;;-0.3592148;-0.020229341;0.29207614;;;;;;;;;;;;;;;
1457.0;1417.2;;;;-0.3669701;-0.027492527;0.29174045;;;;;;;;;;;;;;;
1457.0;1417.2;;;;-0.37558752;-0.03551102;0.28919223;;;;;;;;;;;;;;;
1457.0;1417.2;;;;-0.38133246;-0.044052128;0.28699496;;;;;;;;;;;;;;;
1457.0;1417.2;;;;-0.38520056;-0.052753456;0.28340152;;;;;;;;;;;;;;;
1457.0;1419.3;262143;262143;11019;;;;;;;;;;;;;;;;;;
1457.0;1427.3;;;;-0.38454062;-0.062164314;0.28088763;;;;;;;;;;;;;;;
1457.0;1427.3;;;;-0.39770132;-0.07395173;0.2674637;;;;;;;;;;;;;;;
1457.0;1427.3;;;;-0.39283758;-0.0860138;0.26767734;;;;;;;;;;;;;;;
1457.0;1427.3;;;;-0.36760715;-0.09406282;0.27948764;;;;;;;;;;;;;;;
1457.0;1427.3;;;;-0.35416797;-0.10190965;0.27167514;;;;;;;;;;;;;;;
1518.0;1437.4;;;;-0.34817126;-0.11199571;0.26017764;;;;;;;;;;;;;;;
1518.0;1437.4;;;;-0.32931522;-0.12320329;0.25859073;;;;;;;;;;;;;;;
1518.0;1437.4;;;;-0.31313708;-0.13417055;0.25509265;;;;;;;;;;;;;;;
1518.0;1437.4;;;;-0.30062106;-0.14464952;0.25197604;;;;;;;;;;;;;;;
1518.0;1437.4;;;;-0.29107288;-0.15618135;0.24772647;;;;;;;;;;;;;;;
1518.0;1439.4;262143;262143;10998;;;;;;;;;;;;;;;;;;
1518.0;1445.6;;;;;;;;;;;;;-13436;;;;;;;;
1518.0;1445.6;;;;;;;;;;;;;-12594;;;;;;;;
1518.0;1445.6;;;;;;;;;;;;;-11884;;;;;;;;
1518.0;1445.6;;;;;;;;;;;;;-11195;;;;;;;;
1518.0;1445.6;;;;;;;;;;;;;-10389;;;;;;;;
1518.0;1447.4;;;;-0.28953174;-0.16833879;0.23738101;;;;;;;;;;;;;;;
1518.0;1447.4;;;;-0.28112033;-0.17992403;0.23380283;;;;;;;;;;;;;;;
1518.0;1447.4;;;;-0.26432803;-0.18973163;0.23158267;;;;;;;;;;;;;;;
1518.0;1447.4;;;;-0.24239734;-0.19836429;0.2274361;;;;;;;;;;;;;;;
1518.0;1447.4;;;;-0.23220447;-0.20621875;0.21526721;;;;;;;;;;;;;;;
1518.0;1457.4;;;;-0.22267535;-0.21498874;0.21010974;;;;;;;;;;;;;;;
1518.0;1457.4;;;;-0.21217349;-0.2229195;0.21044925;;;;;;;;;;;;;;;
1518.0;1457.4;;;;-0.20098117;-0.2295151;0.21252826;;;;;;;;;;;;;;;
1518.0;1457.4;;;;-0.18906406;-0.23568347;0.21413425;;;;;;;;;;;;;;;
1518.0;1457.4;;;;-0.17458726;-0.24100116;0.21635059;;;;;;;;;;;;;;;
1518.0;1459.5;262143;262143;11002;;;;;;;;;;;;;;;;;;
1519.0;1467.5;;;;-0.15817644;-0.24754336;0.21708682;;;;;;;;;;;;;;;
1519.0;1467.5;;;;-0.14120866;-0.25400546;0.21926501;;;;;;;;;;;;;;;
1519.0;1467.5;;;;-0.12634279;-0.26010135;0.22260287;;;;;;;;;;;;;;;
1519.0;1467.5;;;;-0.11478044;-0.26629642;0.22581103;;;;;;;;;;;;;;;
1519.0;1467.5;;;;-0.10663225;-0.27295688;0.23041919;;;;;;;;;;;;;;;
1519.0;1477.6;;;;-0.1055298;-0.27896884;0.23296359;;;;;;;;;;;;;;;
1519.0;1477.6;;;;-0.110950485;-0.28615192;0.23414615;;;;;;;;;;;;;;;
1519.0;1477.6;;;;-0.10507585;-0.2913933;0.24379352;;;;;;;;;;;;;;;
1519.0;1477.6;;;;-0.08796311;-0.29405215;0.2539368;;;;;;;;;;;;;;;
1519.0;1477.6;;;;-0.06809617;-0.29464343;0.25916675;;;;;;;;;;;;;;;
1519.0;1479.8;262143;262143;11011;;;;;;;;;;;;;;;;;;
1519.0;1486.0;;;;;;;;;;;;;-9546;;;;;;;;
1519.0;1486.0;;;;;;;;;;;;;-8914;;;;;;;;
1519.0;1486.0;;;;;;;;;;;;;-8480;;;;;;;;
1519.0;1486.0;;;;;;;;;;;;;-7943;;;;;;;;
1519.0;1486.0;;;;;;;;;;;;;-6988;;;;;;;;
1519.0;1487.7;;;;-0.05644227;-0.29456332;0.2611008;;;;;;;;;;;;;;;
1519.0;1487.7;;;;-0.05743409;-0.29705814;0.2608414;;;;;;;;;;;;;;;
1519.0;1487.7;;;;-0.064544685;-0.30147174;0.26313785;;;;;;;;;;;;;;;
1519.0;1487.7;;;;-0.076717384;-0.30585483;0.2641106;;;;;;;;;;;;;;;
1519.0;1487.7;;;;-0.09141923;-0.31092837;0.26306155;;;;;;;;;;;;;;;
1578.0;1497.8;;;;-0.10600664;-0.31573108;0.25907138;;;;;;;;;;;;;;;
1578.0;1497.8;;;;-0.11805345;-0.3203278;0.25265506;;;;;;;;;;;;;;;
1578.0;1497.8;;;;-0.12649538;-0.3260384;0.24462894;;;;;;;;;;;;;;;
1578.0;1497.8;;;;-0.13249971;-0.33267978;0.23847201;;;;;;;;;;;;;;;
1578.0;1497.8;;;;-0.13560106;-0.3405724;0.236496;;;;;;;;;;;;;;;
1578.0;1499.9;262143;262143;11000;;;;;;;;;;;;;;;;;;
1578.0;1507.7;;;;-0.13975145;-0.34915164;0.23599246;;;;;;;;;;;;;;;
1578.0;1507.7;;;;-0.14754869;-0.3590851;0.23476031;;;;;;;;;;;;;;;
1578.0;1507.7;;;;-0.16188814;-0.37021258;0.23303607;;;;;;;;;;;;;;;
1578.0;1507.7;;;;-0.18059923;-0.38431937;0.23131564;;;;;;;;;;;;;;;
1578.0;1507.7;;;;-0.1825905;-0.39500052;0.24065784;;;;;;;;;;;;;;;
1578.0;1517.7;;;;-0.16438295;-0.4018708;0.25944522;;;;;;;;;;;;;;;
1578.0;1517.7;;;;-0.16226198;-0.40777594;0.25390628;;;;;;;;;;;;;;;
1578.0;1517.7;;;;-0.15690233;-0.4144402;0.2518845;;;;;;;;;;;;;;;
1578.0;1517.7;;;;-0.14270402;-0.42182547;0.25646976;;;;;;;;;;;;;;;
1578.0;1517.7;;;;-0.13088991;-0.42884833;0.25643924;;;;;;;;;;;;;;;
1578.0;1520.1;262143;262143;10989;;;;;;;;;;;;;;;;;;
1578.0;1526.3;;;;;;;;;;;;;-5763;;;;;;;;
1578.0;1526.3;;;;;;;;;;;;;-4840;;;;;;;;
1578.0;1526.3;;;;;;;;;;;;;-4345;;;;;;;;
1578.0;1526.3;;;;;;;;;;;;;-3842;;;;;;;;
1578.0;1526.3;;;;;;;;;;;;;-3304;;;;;;;;
1581.0;1527.9;;;;-0.12309648;-0.4353333;0.2584;;;;;;;;;;;;;;;
1581.0;1527.9;;;;-0.10796739;-0.44133002;0.26921847;;;;;;;;;;;;;;;
1581.0;1527.9;;;;-0.088859566;-0.44694525;0.2830315;;;;;;;;;;;;;;;
1581.0;1527.9;;;;-0.07403184;-0.45201117;0.29000857;;;;;;;;;;;;;;;
1581.0;1527.9;;;;-0.061466224;-0.45721442;0.2965584;;;;;;;;;;;;;;;
1581.0;1538.0;;;;-0.05049897;-0.46329504;0.30106738;;;;;;;;;;;;;;;
1581.0;1538.0;;;;-0.044132236;-0.46919256;0.3045006;;;;;;;;;;;;;;;
1581.0;1538.0;;;;-0.023586277;-0.47390753;0.31541827;;;;;;;;;;;;;;;
1581.0;1538.0;;;;-0.0073127756;-0.4767037;0.32040408;;;;;;;;;;;;;;;
1581.0;1538.0;;;;0.010925294;-0.4794274;0.3282204;;;;;;;;;;;;;;;
1581.0;1540.3;262143;262143;10997;;;;;;;;;;;;;;;;;;
1581.0;1545.0;;;;;;;;;;;;;;;;;0.76296276;-11.650441;34.218876;;1273.3
1581.0;1545.0;;;;;;;;;;;;;;0.9376507;-0.015076144;-0.36634418;;;;;1273.3
1581.0;1545.0;;;;;;;;;;;;;;;;;2.6818142;-10.708182;34.7148;;1273.3
1581.0;1545.0;;;;;;;;;;;;;;0.9554735;-0.02478103;-0.36524552;;;;;1273.3
1581.0;1545.0;;;;;;;;;;;;;;;;;5.630665;-9.640035;34.67284;;1282.9
1581.0;1545.0;;;;;;;;;;;;;;0.9713431;-0.01904355;-0.36335337;;;;;1282.9
1581.0;1545.0;;;;;;;;;;;;;;;;;9.556108;-8.209479;34.634693;;1282.9
1581.0;1545.0;;;;;;;;;;;;;;0.9746391;-0.02130192;-0.3500473;;;;;1282.9
1581.0;1545.0;;;;;;;;;;;;;;;;;13.508256;-6.698813;34.272285;;1292.6
1581.0;1545.0;;;;;;;;;;;;;;0.9832453;-0.0075685903;-0.33716848;;;;;1292.6
1581.0;1545.0;;;;;;;;;;;;;;;;;17.365032;-5.4361095;33.898434;;1292.6
1581.0;1545.0;;;;;;;;;;;;;;0.9800714;0.002990814;-0.32758567;;;;;1292.6
1584.0;1545.8;;;;;;;;;;;;;;;;;21.320993;-4.0284433;33.272808;;1302.3
1584.0;1545.8;;;;;;;;;;;;;;0.9740898;0.018494217;-0.32306895;;;;;1302.3
1584.0;1545.8;;;;;;;;;;;;;;;;;24.262217;-1.8921475;32.429733;;1302.3
1584.0;1545.8;;;;;;;;;;;;;;0.94845426;0.03851436;-0.3075045;;;;;1302.3
1584.0;1545.8;;;;;;;;;;;;;;;;;27.569658;-0.8964812;31.426434;;1312.0
1584.0;1545.8;;;;;;;;;;;;;;0.9308756;0.06408887;-0.2982879;;;;;1312.0
1584.0;1545.8;;;;;;;;;;;;;;;;;29.858547;-0.034333322;30.587175;;1312.0
1584.0;1545.8;;;;;;;;;;;;;;0.9124424;0.09430219;-0.30066836;;;;;1312.0
1584.0;1545.8;;;;;;;;;;;;;;;;;31.228065;0.6714072;29.70977;;1321.5
1584.0;1545.8;;;;;;;;;;;;;;0.8933378;0.12958159;-0.30542925;;;;;1321.5
1584.0;1545.8;;;;;;;;;;;;;;;;;31.68966;1.1520737;29.095585;;1321.5
1584.0;1545.8;;;;;;;;;;;;;;0.87441635;0.14484085;-0.2985931;;;;;1321.5
1584.0;1547.4;;;;;;;;;;;;;;;;;31.39973;0.42344433;28.412733;;1331.1
1584.0;1547.4;;;;;;;;;;;;;;0.873867;0.1561327;-0.30555132;;;;;1331.1
1584.0;1547.4;;;;;;;;;;;;;;;;;30.884731;0.21362957;27.363659;;1331.1
1584.0;1547.4;;;;;;;;;;;;;;0.8685568;0.19458602;-0.31727043;;;;;1331.1
1584.0;1547.4;;;;;;;;;;;;;;;;;28.775139;-0.049592577;26.955475;;1340.7
1584.0;1547.4;;;;;;;;;;;;;;0.85464036;0.21265298;-0.33118686;;;;;1340.7
1584.0;1547.4;;;;;;;;;;;;;;;;;26.30314;-0.6256294;26.657919;;1340.7
1584.0;1547.4;;;;;;;;;;;;;;0.84487444;0.2153386;-0.33661917;;;;;1340.7
1584.0;1547.4;;;;;;;;;;;;;;;;;23.747215;-1.9760735;26.451918;;1350.4
1584.0;1547.4;;;;;;;;;;;;;;0.84109014;0.21845149;-0.34766686;;;;;1350.4
1584.0;1547.4;;;;;;;;;;;;;;;;;21.217995;-2.990814;26.417585;;1350.4
1584.0;1547.4;;;;;;;;;;;;;;0.82467115;0.2120426;-0.35822627;;;;;1350.4
1585.0;1547.8;;;;0.02131653;-0.4828263;0.32956317;;;;;;;;;;;;;;;
1585.0;1547.8;;;;0.024223331;-0.48704153;0.32932666;;;;;;;;;;;;;;;
1585.0;1547.8;;;;0.023185732;-0.49255377;0.3294411;;;;;;;;;;;;;;;
1585.0;1547.8;;;;0.02207184;-0.4988709;0.33187106;;;;;;;;;;;;;;;
1585.0;1547.8;;;;0.013427736;-0.5054894;0.33378604;;;;;;;;;;;;;;;
1585.0;1548.2;;;;;;;;;;;;;;;;;18.74218;-4.0513325;26.73803;;1360.0
1585.0;1548.2;;;;;;;;;;;;;;0.8143559;0.20404676;-0.3648793;;;;;1360.0
1585.0;1548.2;;;;;;;;;;;;;;;;;16.029848;-5.8442945;27.394176;;1360.0
1585.0;1548.2;;;;;;;;;;;;;;0.8119755;0.1853084;-0.37665945;;;;;1360.0
1585.0;1548.2;;;;;;;;;;;;;;;;;13.2793665;-7.2252574;28.145695;;1369.6
1585.0;1548.2;;;;;;;;;;;;;;0.8135014;0.17114781;-0.38282418;;;;;1369.6
1585.0;1548.2;;;;;;;;;;;;;;;;;10.414441;-8.48033;29.25962;;1369.6
1585.0;1548.2;;;;;;;;;;;;;;0.8159429;0.14874722;-0.3810541;;;;;1369.6
1585.0;1548.2;;;;;;;;;;;;;;;;;8.354443;-10.036775;30.556658;;1379.2
1585.0;1548.2;;;;;;;;;;;;;;0.8273568;0.12268441;-0.37635425;;;;;1379.2
1585.0;1548.2;;;;;;;;;;;;;;;;;6.660665;-11.688589;31.743065;;1379.2
1585.0;1548.2;;;;;;;;;;;;;;0.84322643;0.10956145;-0.38080996;;;;;1379.2
1586.0;1549.0;;;;;;;;;;;;;;;;;5.7832575;-12.199775;32.96762;;1388.9
1586.0;1549.0;;;;;;;;;;;;;;0.85659355;0.090578936;-0.3688467;;;;;1388.9
1586.0;1549.0;;;;;;;;;;;;;;;;;5.489517;-12.646107;33.940395;;1388.9
1586.0;1549.0;;;;;;;;;;;;;;0.88357186;0.0910062;-0.36213264;;;;;1388.9
1586.0;1549.0;;;;;;;;;;;;;;;;;5.9930725;-12.417218;35.000916;;1398.6
1586.0;1549.0;;;;;;;;;;;;;;0.91042817;0.08484146;-0.35541856;;;;;1398.6
1586.0;1549.0;;;;;;;;;;;;;;;;;7.0078125;-10.895108;35.336617;;1398.6
1586.0;1549.0;;;;;;;;;;;;;;0.9290445;0.09863582;-0.3394879;;;;;1398.6
1586.0;1549.0;;;;;;;;;;;;;;;;;8.762627;-8.8999605;35.176395;;1408.3
1586.0;1549.0;;;;;;;;;;;;;;0.9383831;0.10882901;-0.32850122;;;;;1408.3
1586.0;1549.0;;;;;;;;;;;;;;;;;11.543626;-7.2176275;34.470654;;1408.3
1586.0;1549.0;;;;;;;;;;;;;;0.9459517;0.130253;-0.32343516;;;;;1408.3
1586.0;1552.6;;;;;;;;;;;;;;;;;14.053774;-5.447554;33.352917;;1417.9
1586.0;1552.6;;;;;;;;;;;;;;0.94857633;0.16663106;-0.3263039;;;;;1417.9
1586.0;1552.6;;;;;;;;;;;;;;;;;15.392773;-4.058962;32.124546;;1417.9
1586.0;1552.6;;;;;;;;;;;;;;0.9387494;0.18799402;-0.32862332;;;;;1417.9
1586.0;1552.6;;;;;;;;;;;;;;;;;16.052736;-3.1586657;30.861843;;1427.5
1586.0;1552.6;;;;;;;;;;;;;;0.93343914;0.21143223;-0.33198035;;;;;1427.5
1586.0;1552.6;;;;;;;;;;;;;;;;;15.942106;-2.494888;29.522844;;1427.5
1586.0;1552.6;;;;;;;;;;;;;;0.9270913;0.22278512;-0.34174627;;;;;1427.5
1586.0;1552.6;;;;;;;;;;;;;;;;;16.170996;-1.7090366;27.94351;;1437.1
1586.0;1552.6;;;;;;;;;;;;;;0.9148228;0.23242897;-0.34669027;;;;;1437.1
1586.0;1552.6;;;;;;;;;;;;;;;;;16.38081;-1.4572588;26.535845;;1437.1
1586.0;1552.6;;;;;;;;;;;;;;0.908536;0.24262215;-0.352855;;;;;1437.1
1640.0;1553.3;;;;;;;;;;;;;;;;;16.312143;-1.3885921;25.284584;;1446.8
1640.0;1553.3;;;;;;;;;;;;;;0.90285957;0.245674;-0.3571276;;;;;1446.8
1640.0;1553.3;;;;;;;;;;;;;;;;;16.392256;-1.0490738;24.044771;;1446.8
1640.0;1553.3;;;;;;;;;;;;;;0.89889216;0.2492752;-0.35523546;;;;;1446.8
1640.0;1553.3;;;;;;;;;;;;;;;;;16.319773;-0.56840724;22.854548;;1456.5
1640.0;1553.3;;;;;;;;;;;;;;0.8962676;0.2537309;-0.35059664;;;;;1456.5
1640.0;1553.3;;;;;;;;;;;;;;;;;16.239662;-0.43107393;21.992401;;1456.5
1640.0;1553.3;;;;;;;;;;;;;;0.89602345;0.2499466;-0.3515122;;;;;1456.5
1640.0;1553.3;;;;;;;;;;;;;;;;;16.342663;-0.17166662;21.137882;;1466.1
1640.0;1553.3;;;;;;;;;;;;;;0.90157783;0.24683371;-0.35786003;;;;;1466.1
1640.0;1553.3;;;;;;;;;;;;;;;;;16.51433;0.18692587;20.290993;;1466.1
1640.0;1553.3;;;;;;;;;;;;;;0.90939057;0.2405469;-0.3590808;;;;;1466.1
1640.0;1557.7;;;;-0.004783631;-0.51328284;0.33267596;;;;;;;;;;;;;;;
1640.0;1557.7;;;;-0.016185762;-0.52122504;0.33866122;;;;;;;;;;;;;;;
1640.0;1557.7;;;;-0.013145449;-0.5265923;0.34760287;;;;;;;;;;;;;;;
1640.0;1557.7;;;;-0.020397188;-0.5307427;0.34377292;;;;;;;;;;;;;;;
1640.0;1557.7;;;;-0.019157412;-0.5347367;0.34573367;;;;;;;;;;;;;;;
1640.0;1560.0;262143;262143;10990;;;;;;;;;;;;;;;;;;
1640.0;1566.1;;;;;;;;;;;;;-3247;;;;;;;;
1640.0;1566.1;;;;;;;;;;;;;-3520;;;;;;;;
1640.0;1566.1;;;;;;;;;;;;;-2557;;;;;;;;
1640.0;1566.1;;;;;;;;;;;;;-283;;;;;;;;
1640.0;1566.1;;;;;;;;;;;;;-1692;;;;;;;;
1642.0;1567.6;;;;-0.023162844;-0.53947073;0.34785083;;;;;;;;;;;;;;;
1642.0;1567.6;;;;-0.027168278;-0.54482275;0.35296634;;;;;;;;;;;;;;;
1642.0;1567.6;;;;-0.03272629;-0.5496636;0.3578339;;;;;;;;;;;;;;;
1642.0;1567.6;;;;-0.037609104;-0.5550881;0.3638611;;;;;;;;;;;;;;;
1642.0;1567.6;;;;-0.0416832;-0.56000525;0.36984256;;;;;;;;;;;;;;;
1642.0;1577.5;;;;-0.045242313;-0.5643349;0.37513357;;;;;;;;;;;;;;;
1642.0;1577.5;;;;-0.047611244;-0.569645;0.3804093;;;;;;;;;;;;;;;
1642.0;1577.5;;;;-0.04818345;-0.57552344;0.38551718;;;;;;;;;;;;;;;
1642.0;1577.5;;;;-0.047691353;-0.5818482;0.39144903;;;;;;;;;;;;;;;
1642.0;1577.5;;;;-0.046264652;-0.58839804;0.39771277;;;;;;;;;;;;;;;
1642.0;1580.0;262143;262143;10990;;;;;;;;;;;;;;;;;;
1642.0;1587.6;;;;-0.04338837;-0.59499365;0.4041863;;;;;;;;;;;;;;;
1642.0;1587.6;;;;-0.039909367;-0.601471;0.40990454;;;;;;;;;;;;;;;
1642.0;1587.6;;;;-0.03682709;-0.6080094;0.41489035;;;;;;;;;;;;;;;
1642.0;1587.6;;;;-0.033409122;-0.61534506;0.42017752;;;;;;;;;;;;;;;
1642.0;1587.6;;;;-0.032531742;-0.62250525;0.42267615;;;;;;;;;;;;;;;
1642.0;1597.8;;;;-0.032810215;-0.6293221;0.42469412;;;;;;;;;;;;;;;
1642.0;1597.8;;;;-0.03395081;-0.63608176;0.42594534;;;;;;;;;;;;;;;
1642.0;1597.8;;;;-0.03539658;-0.6426278;0.42648703;;;;;;;;;;;;;;;
1642.0;1597.8;;;;-0.037006382;-0.64812857;0.42665488;;;;;;;;;;;;;;;
1642.0;1597.8;;;;-0.03741837;-0.65341955;0.42752844;;;;;;;;;;;;;;;
1699.0;1600.3;262143;262143;10990;;;;;;;;;;;;;;;;;;
1699.0;1606.4;;;;;;;;;;;;;-10941;;;;;;;;
1699.0;1606.4;;;;;;;;;;;;;-21420;;;;;;;;
1699.0;1606.4;;;;;;;;;;;;;-20874;;;;;;;;
1699.0;1606.4;;;;;;;;;;;;;-7181;;;;;;;;
1699.0;1606.4;;;;;;;;;;;;;7982;;;;;;;;
1699.0;1607.9;;;;-0.03672028;-0.6586457;0.42672354;;;;;;;;;;;;;;;
1699.0;1607.9;;;;-0.03802109;-0.66382605;0.42630774;;;;;;;;;;;;;;;
1699.0;1607.9;;;;-0.043514255;-0.66883093;0.425129;;;;;;;;;;;;;;;
1699.0;1607.9;;;;-0.04796601;-0.6746064;0.42802817;;;;;;;;;;;;;;;
1699.0;1607.9;;;;-0.04515839;-0.68160254;0.4374085;;;;;;;;;;;;;;;
1699.0;1617.8;;;;-0.051120766;-0.6873284;0.4394837;;;;;;;;;;;;;;;
1699.0;1617.8;;;;-0.06103898;-0.69339377;0.44233328;;;;;;;;;;;;;;;
1699.0;1617.8;;;;-0.07680131;-0.69839865;0.44395453;;;;;;;;;;;;;;;
1699.0;1617.8;;;;-0.09381105;-0.70265585;0.44618613;;;;;;;;;;;;;;;
1699.0;1617.8;;;;-0.11052705;-0.7059365;0.4482308;;;;;;;;;;;;;;;
1699.0;1620.3;262143;262143;10986;;;;;;;;;;;;;;;;;;
1699.0;1627.8;;;;-0.1255417;-0.7095223;0.44546515;;;;;;;;;;;;;;;
1699.0;1627.8;;;;-0.13920976;-0.713646;0.43988043;;;;;;;;;;;;;;;
1699.0;1627.8;;;;-0.15269472;-0.7188645;0.43704993;;;;;;;;;;;;;;;
1699.0;1627.8;;;;-0.16984941;-0.7232514;0.43505865;;;;;;;;;;;;;;;
1699.0;1627.8;;;;-0.19211963;-0.727356;0.43354803;;;;;;;;;;;;;;;
1760.0;1637.7;;;;-0.21090701;-0.7314301;0.43606573;;;;;;;;;;;;;;;
1760.0;1637.7;;;;-0.2174187;-0.73797613;0.4407578;;;;;;;;;;;;;;;
1760.0;1637.7;;;;-0.22547153;-0.74343497;0.43869787;;;;;;;;;;;;;;;
1760.0;1637.7;;;;-0.2252312;-0.750702;0.43914038;;;;;;;;;;;;;;;
1760.0;1637.7;;;;-0.22014621;-0.75778973;0.4413262;;;;;;;;;;;;;;;
1760.0;1640.3;262143;262143;10985;;;;;;;;;;;;;;;;;;
1760.0;1646.4;;;;;;;;;;;;;12820;;;;;;;;
1760.0;1646.4;;;;;;;;;;;;;8067;;;;;;;;
1760.0;1646.4;;;;;;;;;;;;;2628;;;;;;;;
1760.0;1646.4;;;;;;;;;;;;;1140;;;;;;;;
1760.0;1646.4;;;;;;;;;;;;;1506;;;;;;;;
1760.0;1647.8;;;;-0.22251514;-0.7629472;0.43913656;;;;;;;;;;;;;;;
1760.0;1647.8;;;;-0.21743014;-0.7693101;0.44297415;;;;;;;;;;;;;;;
1760.0;1647.8;;;;-0.21207812;-0.7755929;0.44506842;;;;;;;;;;;;;;;
1760.0;1647.8;;;;-0.2055321;-0.78180325;0.4468766;;;;;;;;;;;;;;;
1760.0;1647.8;;;;-0.19515994;-0.788376;0.44910437;;;;;;;;;;;;;;;
1760.0;1657.9;;;;-0.1851845;-0.7957994;0.44733435;;;;;;;;;;;;;;;
1760.0;1657.9;;;;-0.16547395;-0.80518353;0.44892126;;;;;;;;;;;;;;;
1760.0;1657.9;;;;-0.147213;-0.8138505;0.44375235;;;;;;;;;;;;;;;
1760.0;1657.9;;;;-0.1386223;-0.8181764;0.43555838;;;;;;;;;;;;;;;
1760.0;1657.9;;;;-0.118713394;-0.8272058;0.43850332;;;;;;;;;;;;;;;
1760.0;1660.6;262143;262143;10991;;;;;;;;;;;;;;;;;;
1879.0;1668.0;;;;-0.099971786;-0.83654034;0.43654257;;;;;;;;;;;;;;;
1879.0;1668.0;;;;-0.08094788;-0.84725964;0.43672186;;;;;;;;;;;;;;;
1879.0;1668.0;;;;-0.069408424;-0.8562509;0.4344254;;;;;;;;;;;;;;;
1879.0;1668.0;;;;-0.06251908;-0.86415875;0.43540198;;;;;;;;;;;;;;;
1879.0;1668.0;;;;-0.057689674;-0.87225354;0.43607718;;;;;;;;;;;;;;;
1879.0;1672.8;;;;;;;;;;;;;;;;;16.544847;0.32425916;19.482254;;1475.8
1879.0;1672.8;;;;;;;;;;;;;;0.9187902;0.22858363;-0.36793116;;;;;1475.8
1879.0;1672.8;;;;;;;;;;;;;;;;;16.701256;0.9193701;18.620106;;1475.8
1879.0;1672.8;;;;;;;;;;;;;;0.92880034;0.21753594;-0.36872464;;;;;1475.8
1879.0;1672.8;;;;;;;;;;;;;;;;;16.785181;1.2627033;17.826624;;1485.3
1879.0;1672.8;;;;;;;;;;;;;;0.9393597;0.20575579;-0.37421796;;;;;1485.3
1879.0;1672.8;;;;;;;;;;;;;;;;;17.08655;1.9226661;17.105623;;1485.3
1879.0;1672.8;;;;;;;;;;;;;;0.9519333;0.20209357;-0.38245797;;;;;1485.3
1879.0;1672.8;;;;;;;;;;;;;;;;;17.487106;2.7542956;16.552477;;1495.0
1879.0;1672.8;;;;;;;;;;;;;;0.96169925;0.19843134;-0.38966033;;;;;1495.0
1879.0;1672.8;;;;;;;;;;;;;;;;;18.524736;3.8262582;16.006958;;1495.0
1879.0;1672.8;;;;;;;;;;;;;;0.969573;0.19714957;-0.39033175;;;;;1495.0
1883.0;1673.5;;;;;;;;;;;;;;;;;19.829401;4.6731467;15.434736;;1504.5
1883.0;1673.5;;;;;;;;;;;;;;0.97830135;0.20233771;-0.394055;;;;;1504.5
1883.0;1673.5;;;;;;;;;;;;;;;;;21.595661;5.592517;15.125736;;1504.5
1883.0;1673.5;;;;;;;;;;;;;;0.9834895;0.20221564;-0.39582506;;;;;1504.5
1883.0;1673.5;;;;;;;;;;;;;;;;;23.930326;7.362591;14.622181;;1514.0
1883.0;1673.5;;;;;;;;;;;;;;0.9806818;0.20508438;-0.3899655;;;;;1514.0
1883.0;1673.5;;;;;;;;;;;;;;;;;26.64266;9.155553;13.981292;;1514.0
1883.0;1673.5;;;;;;;;;;;;;;0.9683523;0.2158269;-0.37897885;;;;;1514.0
1883.0;1673.5;;;;;;;;;;;;;;;;;29.011658;10.170293;13.363293;;1523.7
1883.0;1673.5;;;;;;;;;;;;;;0.96169925;0.22223578;-0.37507248;;;;;1523.7
1883.0;1673.5;;;;;;;;;;;;;;;;;30.785545;11.944181;12.565996;;1523.7
1883.0;1673.5;;;;;;;;;;;;;;0.951384;0.23316142;-0.37006745;;;;;1523.7
1883.0;1674.6;;;;;;;;;;;;;;;;;32.67388;13.355663;11.436811;;1533.4
1883.0;1674.6;;;;;;;;;;;;;;0.9389935;0.2553789;-0.36921293;;;;;1533.4
1883.0;1674.6;;;;;;;;;;;;;;;;;33.974728;14.484848;10.380108;;1533.4
1883.0;1674.6;;;;;;;;;;;;;;0.9342936;0.28131962;-0.37665945;;;;;1533.4
1883.0;1674.6;;;;;;;;;;;;;;;;;34.772026;15.400403;9.300516;;1543.0
1883.0;1674.6;;;;;;;;;;;;;;0.92818993;0.30408642;-0.39295632;;;;;1543.0
1883.0;1674.6;;;;;;;;;;;;;;;;;34.45921;15.869625;7.992035;;1543.0
1883.0;1674.6;;;;;;;;;;;;;;0.9279458;0.33228552;-0.40595722;;;;;1543.0
1883.0;1674.6;;;;;;;;;;;;;;;;;32.41066;16.563921;7.5228124;;1552.7
1883.0;1674.6;;;;;;;;;;;;;;0.9276406;0.34852138;-0.41328165;;;;;1552.7
1883.0;1674.6;;;;;;;;;;;;;;;;;29.39314;16.579182;7.0917387;;1552.7
1883.0;1674.6;;;;;;;;;;;;;;0.93166906;0.35358745;-0.4113895;;;;;1552.7
1885.0;1675.5;;;;;;;;;;;;;;;;;26.127659;15.518662;6.389813;;1562.4
1885.0;1675.5;;;;;;;;;;;;;;0.9454634;0.3607898;-0.4219489;;;;;1562.4
1885.0;1675.5;;;;;;;;;;;;;;;;;22.988068;15.179143;6.122776;;1562.4
1885.0;1675.5;;;;;;;;;;;;;;0.9653615;0.3707999;-0.42628255;;;;;1562.4
1885.0;1675.5;;;;;;;;;;;;;;;;;20.062105;16.579182;5.6382947;;1572.1
1885.0;1675.5;;;;;;;;;;;;;;0.9688406;0.38789025;-0.41090122;;;;;1572.1
1885.0;1675.5;;;;;;;;;;;;;;;;;18.108921;17.834253;3.9864802;;1572.1
1885.0;1675.5;;;;;;;;;;;;;;0.94570756;0.4115726;-0.38550982;;;;;1572.1
1885.0;1675.5;;;;;;;;;;;;;;;;;17.128513;17.757957;0.7477035;;1581.7
1885.0;1675.5;;;;;;;;;;;;;;0.9126865;0.44032106;-0.36115605;;;;;1581.7
1885.0;1675.5;;;;;;;;;;;;;;;;;15.957365;16.945402;-3.6812954;;1581.7
1885.0;1675.5;;;;;;;;;;;;;;0.8852199;0.49165317;-0.3552965;;;;;1581.7
1885.0;1677.7;;;;-0.058933266;-0.878193;0.4372788;;;;;;;;;;;;;;;
1885.0;1677.7;;;;-0.063594826;-0.88369;0.4407006;;;;;;;;;;;;;;;
1885.0;1677.7;;;;-0.070652016;-0.887642;0.44468313;;;;;;;;;;;;;;;
1885.0;1677.7;;;;-0.07953263;-0.890236;0.4497376;;;;;;;;;;;;;;;
1885.0;1677.7;;;;-0.08979035;-0.89133084;0.45371252;;;;;;;;;;;;;;;
1888.0;1679.9;;;;;;;;;;;;;;;;;14.343699;16.457108;-8.713035;;1591.3
1888.0;1679.9;;;;;;;;;;;;;;0.8614765;0.5411542;-0.359447;;;;;1591.3
1888.0;1679.9;;;;;;;;;;;;;;;;;12.550736;15.259254;-13.969848;;1591.3
1888.0;1679.9;;;;;;;;;;;;;;0.8473159;0.58876306;-0.37299722;;;;;1591.3
1888.0;1679.9;;;;;;;;;;;;;;;;;8.217109;14.633626;-18.566698;;1601.0
1888.0;1679.9;;;;;;;;;;;;;;0.84328747;0.62477493;-0.40467542;;;;;1601.0
1888.0;1679.9;;;;;;;;;;;;;;;;;1.3122959;14.6641445;-22.801142;;1601.0
1888.0;1679.9;;;;;;;;;;;;;;0.85280925;0.6810511;-0.44245735;;;;;1601.0
1888.0;1679.9;;;;;;;;;;;;;;;;;-7.629627;16.247292;-22.907955;;1610.7
1888.0;1679.9;;;;;;;;;;;;;;0.84578997;0.70607626;-0.4621723;;;;;1610.7
1888.0;1679.9;;;;;;;;;;;;;;;;;-14.7557;15.423291;-22.907955;;1610.7
1888.0;1679.9;;;;;;;;;;;;;;0.84182256;0.68910795;-0.46729943;;;;;1610.7
1888.0;1680.2;262143;262143;10993;;;;;;;;;;;;;;;;;;
1888.0;1686.3;;;;;;;;;;;;;1609;;;;;;;;
1888.0;1686.3;;;;;;;;;;;;;1597;;;;;;;;
1888.0;1686.3;;;;;;;;;;;;;1593;;;;;;;;
1888.0;1686.3;;;;;;;;;;;;;1647;;;;;;;;
1888.0;1686.3;;;;;;;;;;;;;1828;;;;;;;;
1888.0;1687.5;;;;-0.10164644;-0.8916627;0.45800406;;;;;;;;;;;;;;;
1888.0;1687.5;;;;-0.11495973;-0.8904649;0.46311957;;;;;;;;;;;;;;;
1888.0;1687.5;;;;-0.13217928;-0.8889352;0.46710593;;;;;;;;;;;;;;;
1888.0;1687.5;;;;-0.15207292;-0.8862306;0.4717217;;;;;;;;;;;;;;;
1888.0;1687.5;;;;-0.17400362;-0.88359845;0.47595602;;;;;;;;;;;;;;;
1890.0;1697.6;;;;-0.197876;-0.88063824;0.4798699;;;;;;;;;;;;;;;
1890.0;1697.6;;;;-0.22345737;-0.8772508;0.4821244;;;;;;;;;;;;;;;
1890.0;1697.6;;;;-0.25121692;-0.8748208;0.48326117;;;;;;;;;;;;;;;
1890.0;1697.6;;;;-0.27948;-0.87253964;0.48625952;;;;;;;;;;;;;;;
1890.0;1697.6;;;;-0.306572;-0.8697015;0.49053198;;;;;;;;;;;;;;;
1890.0;1700.4;262143;262143;10998;;;;;;;;;;;;;;;;;;
1890.0;1707.7;;;;-0.33114246;-0.86688626;0.4950257;;;;;;;;;;;;;;;
1890.0;1707.7;;;;-0.35188296;-0.8644296;0.49898916;;;;;;;;;;;;;;;
1890.0;1707.7;;;;-0.36756137;-0.86270154;0.501442;;;;;;;;;;;;;;;
1890.0;1707.7;;;;-0.3798371;-0.86187375;0.5043908;;;;;;;;;;;;;;;
1890.0;1707.7;;;;-0.3894959;-0.8609048;0.5085221;;;;;;;;;;;;;;;
1890.0;1717.8;;;;-0.39806753;-0.8598443;0.5136605;;;;;;;;;;;;;;;
1890.0;1717.8;;;;-0.40603262;-0.85897076;0.5189858;;;;;;;;;;;;;;;
1890.0;1717.8;;;;-0.41352087;-0.85795605;0.5238038;;;;;;;;;;;;;;;
1890.0;1717.8;;;;-0.42102438;-0.85623944;0.52771;;;;;;;;;;;;;;;
1890.0;1717.8;;;;-0.42897803;-0.8534967;0.53109366;;;;;;;;;;;;;;;
1890.0;1720.6;262143;262143;11010;;;;;;;;;;;;;;;;;;
1890.0;1726.7;;;;;;;;;;;;;1703;;;;;;;;
1890.0;1726.7;;;;;;;;;;;;;1287;;;;;;;;
1890.0;1726.7;;;;;;;;;;;;;1066;;;;;;;;
1890.0;1726.7;;;;;;;;;;;;;1124;;;;;;;;
1890.0;1726.7;;;;;;;;;;;;;1156;;;;;;;;
1904.0;1727.9;;;;-0.43743902;-0.85006344;0.5346375;;;;;;;;;;;;;;;
1904.0;1727.9;;;;-0.44652563;-0.84559643;0.53828436;;;;;;;;;;;;;;;
1904.0;1727.9;;;;-0.45642096;-0.839615;0.54165655;;;;;;;;;;;;;;;
1904.0;1727.9;;;;-0.467022;-0.83334744;0.54588705;;;;;;;;;;;;;;;
1904.0;1727.9;;;;-0.47674185;-0.8261186;0.55164343;;;;;;;;;;;;;;;
1904.0;1738.0;;;;-0.486023;-0.81777585;0.55577475;;;;;;;;;;;;;;;
1904.0;1738.0;;;;-0.49475485;-0.8092004;0.5578423;;;;;;;;;;;;;;;
1904.0;1738.0;;;;-0.5020867;-0.8004724;0.5578118;;;;;;;;;;;;;;;
1904.0;1738.0;;;;-0.50886923;-0.79161465;0.55588156;;;;;;;;;;;;;;;
1904.0;1738.0;;;;-0.51455694;-0.78292096;0.5549508;;;;;;;;;;;;;;;
1904.0;1738.1;;;;;;;;;;1.3542589;17.91055;-2.784814;;;;;;;;;
1904.0;1738.1;;;;;;;0.99069184;-1.2756127;0.27777946;;;;;;;;;;;;
1904.0;1738.1;;;;;;;;;;6.5347757;31.437881;8.049257;;;;;;;;;
1904.0;1738.1;;;;;;;1.1304666;-1.4283884;0.30555132;;;;;;;;;;;;
1904.0;1740.8;262143;262143;11025;;;;;;;;;;;;;;;;;;
1904.0;1747.5;;;;;;;;;;10.498367;5.077517;-11.074404;;;;;;;;;
1904.0;1747.5;;;;;;;1.1466415;-1.4194769;0.29804376;;;;;;;;;;;;
1904.0;1747.5;;;;;;;;;;36.252174;19.87518;-34.939877;;;;;;;;;
1904.0;1747.5;;;;;;;1.1577501;-1.4148381;0.29078037;;;;;;;;;;;;
1907.0;1747.9;;;;-0.5188065;-0.7750932;0.5552407;;;;;;;;;;;;;;;
1907.0;1747.9;;;;-0.52005774;-0.7680551;0.5551949;;;;;;;;;;;;;;;
1907.0;1747.9;;;;-0.51887137;-0.7619592;0.5549622;;;;;;;;;;;;;;;
1907.0;1747.9;;;;-0.5148354;-0.7578279;0.5540276;;;;;;;;;;;;;;;
1907.0;1747.9;;;;-0.50868994;-0.7555963;0.55094916;;;;;;;;;;;;;;;
1907.0;1757.1;;;;;;;;;;62.01361;21.80929;-70.19639;;;;;;;;;
1907.0;1757.1;;;;;;;1.170629;-1.406415;0.28675193;;;;;;;;;;;;
1907.0;1757.1;;;;;;;;;;81.987976;-14.084292;-118.26304;;;;;;;;;
1907.0;1757.1;;;;;;;1.1835078;-1.391644;0.28528702;;;;;;;;;;;;
1907.0;1758.0;;;;-0.5009156;-0.75523007;0.54764944;;;;;;;;;;;;;;;
1907.0;1758.0;;;;-0.49366766;-0.75618756;0.5449715;;;;;;;;;;;;;;;
1907.0;1758.0;;;;-0.4876061;-0.7573167;0.5428048;;;;;;;;;;;;;;;
1907.0;1758.0;;;;-0.48245245;-0.7586862;0.5413285;;;;;;;;;;;;;;;
1907.0;1758.0;;;;-0.4780541;-0.7599908;0.537468;;;;;;;;;;;;;;;
1907.0;1761.0;262143;262143;11047;;;;;;;;;;;;;;;;;;
1907.0;1766.8;;;;;;;;;;105.590225;-15.766624;-124.832146;;;;;;;;;
1907.0;1766.8;;;;;;;1.1952269;-1.3757133;0.2874233;;;;;;;;;;;;
1907.0;1766.8;;;;;;;;;;121.574295;-17.51381;-124.881744;;;;;;;;;
1907.0;1766.8;;;;;;;1.2128665;-1.3606372;0.28778955;;;;;;;;;;;;
1907.0;1767.1;;;;;;;;;;;;;892;;;;;;;;
1907.0;1767.1;;;;;;;;;;;;;451;;;;;;;;
1907.0;1767.1;;;;;;;;;;;;;245;;;;;;;;
1907.0;1767.1;;;;;;;;;;;;;376;;;;;;;;
1907.0;1767.1;;;;;;;;;;;;;618;;;;;;;;
1908.0;1768.1;;;;-0.47359854;-0.7606851;0.5316735;;;;;;;;;;;;;;;
1908.0;1768.1;;;;-0.46994025;-0.76148236;0.52592856;;;;;;;;;;;;;;;
1908.0;1768.1;;;;-0.46736914;-0.76208127;0.5213433;;;;;;;;;;;;;;;
1908.0;1768.1;;;;-0.46675116;-0.7619325;0.5181504;;;;;;;;;;;;;;;
1908.0;1768.1;;;;-0.4682923;-0.7621194;0.5160714;;;;;;;;;;;;;;;
1908.0;1776.4;;;;;;;;;;124.86648;-11.577959;-124.881744;;;;;;;;;
1908.0;1776.4;;;;;;;1.2288584;-1.3440351;0.29584643;;;;;;;;;;;;
1908.0;1776.4;;;;;;;;;;124.881744;-3.910184;-124.881744;;;;;;;;;
1908.0;1776.4;;;;;;;1.2393566;-1.3219397;0.30396435;;;;;;;;;;;;
1908.0;1778.2;;;;-0.47277838;-0.7610284;0.5140229;;;;;;;;;;;;;;;
1908.0;1778.2;;;;-0.47990042;-0.75973904;0.5124474;;;;;;;;;;;;;;;
1908.0;1778.2;;;;-0.48831183;-0.75813687;0.51053625;;;;;;;;;;;;;;;
1908.0;1778.2;;;;-0.49851614;-0.75761807;0.5078164;;;;;;;;;;;;;;;
1908.0;1778.2;;;;-0.50861746;-0.7568437;0.50630194;;;;;;;;;;;;;;;
1908.0;1781.3;262143;262143;11043;;;;;;;;;;;;;;;;;;
1908.0;1786.0;;;;;;;;;;124.881744;-4.257332;-124.881744;;;;;;;;;
1908.0;1786.0;;;;;;;1.2457045;-1.3022248;0.30420852;;;;;;;;;;;;
1908.0;1786.0;;;;;;;;;;124.881744;-3.1662953;-124.881744;;;;;;;;;
1908.0;1786.0;;;;;;;1.2540056;-1.2736595;0.3177587;;;;;;;;;;;;
1910.0;1788.3;;;;-0.5198365;-0.7573701;0.50409704;;;;;;;;;;;;;;;
1910.0;1788.3;;;;-0.53184515;-0.75758755;0.50241095;;;;;;;;;;;;;;;
1910.0;1788.3;;;;-0.5417481;-0.7584039;0.50088507;;;;;;;;;;;;;;;
1910.0;1788.3;;;;-0.55138785;-0.76018536;0.49800116;;;;;;;;;;;;;;;
1910.0;1788.3;;;;-0.55815893;-0.7624742;0.49574286;;;;;;;;;;;;;;;
1910.0;1795.6;;;;;;;;;;124.881744;-0.5340739;-124.881744;;;;;;;;;
1910.0;1795.6;;;;;;;1.2673116;-1.2468032;0.33149204;;;;;;;;;;;;
1910.0;1795.6;;;;;;;;;;124.881744;2.5559251;-124.881744;;;;;;;;;
1910.0;1795.6;;;;;;;1.2852565;-1.2160405;0.34565264;;;;;;;;;;;;
1910.0;1798.4;;;;-0.56164175;-0.76537335;0.49407965;;;;;;;;;;;;;;;
1910.0;1798.4;;;;-0.5624085;-0.76799786;0.49306494;;;;;;;;;;;;;;;
1910.0;1798.4;;;;-0.5589791;-0.7707406;0.49267584;;;;;;;;;;;;;;;
1910.0;1798.4;;;;-0.55936056;-0.7710153;0.48855597;;;;;;;;;;;;;;;
1910.0;1798.4;;;;-0.55614096;-0.7708703;0.48692328;;;;;;;;;;;;;;;
1910.0;1801.5;262143;262143;11031;;;;;;;;;;;;;;;;;;
1910.0;1805.2;;;;;;;;;;124.881744;6.248665;-124.881744;;;;;;;;;
1910.0;1805.2;;;;;;;1.2981963;-1.1868038;0.35578477;;;;;;;;;;;;
1910.0;1805.2;;;;;;;;;;124.881744;11.249886;-124.881744;;;;;;;;;
1910.0;1805.2;;;;;;;1.3061922;-1.1611682;0.37134922;;;;;;;;;;;;
1910.0;1807.5;;;;;;;;;;;;;846;;;;;;;;
1910.0;1807.5;;;;;;;;;;;;;1183;;;;;;;;
1910.0;1807.5;;;;;;;;;;;;;1598;;;;;;;;
1910.0;1807.5;;;;;;;;;;;;;1837;;;;;;;;
1910.0;1807.5;;;;;;;;;;;;;1935;;;;;;;;
1911.0;1808.5;;;;-0.55587775;-0.7682992;0.48485953;;;;;;;;;;;;;;;
1911.0;1808.5;;;;-0.531189;-0.7706109;0.4963227;;;;;;;;;;;;;;;
1911.0;1808.5;;;;-0.5041962;-0.77196133;0.50124747;;;;;;;;;;;;;;;
1911.0;1808.5;;;;-0.47713476;-0.7723123;0.5036507;;;;;;;;;;;;;;;
1911.0;1808.5;;;;-0.45332342;-0.7709199;0.5043946;;;;;;;;;;;;;;;
1911.0;1814.8;;;;;;;;;;124.881744;17.281105;-124.881744;;;;;;;;;
1911.0;1814.8;;;;;;;1.319071;-1.1435896;0.39063692;;;;;;;;;;;;
1911.0;1814.8;;;;;;;;;;124.881744;24.277475;-124.881744;;;;;;;;;
1911.0;1814.8;;;;;;;1.3367107;-1.1280252;0.41645557;;;;;;;;;;;;
1911.0;1818.6;;;;-0.43695837;-0.76581585;0.5027848;;;;;;;;;;;;;;;
1911.0;1818.6;;;;-0.4203301;-0.7601968;0.5037232;;;;;;;;;;;;;;;
1911.0;1818.6;;;;-0.40402228;-0.7549058;0.504921;;;;;;;;;;;;;;;
1911.0;1818.6;;;;-0.3863755;-0.750435;0.50524145;;;;;;;;;;;;;;;
1911.0;1818.6;;;;-0.36558536;-0.7457734;0.50560004;;;;;;;;;;;;;;;
1911.0;1821.7;262143;262143;11008;;;;;;;;;;;;;;;;;;
1911.0;1824.4;;;;;;;;;;124.66811;31.987213;-124.881744;;;;;;;;;
1911.0;1824.4;;;;;;;1.3661916;-1.1252785;0.43244728;;;;;;;;;;;;
1911.0;1824.4;;;;;;;;;;123.760185;38.66314;-124.881744;;;;;;;;;
1911.0;1824.4;;;;;;;1.3780328;-1.1312602;0.42475662;;;;;;;;;;;;
1912.0;1828.7;;;;-0.34443668;-0.7408944;0.50438315;;;;;;;;;;;;;;;
1912.0;1828.7;;;;-0.32324985;-0.7354203;0.50212103;;;;;;;;;;;;;;;
1912.0;1828.7;;;;-0.3029442;-0.7300568;0.50121313;;;;;;;;;;;;;;;
1912.0;1828.7;;;;-0.2832146;-0.7251244;0.50093466;;;;;;;;;;;;;;;
1912.0;1828.7;;;;-0.26646426;-0.7201691;0.50036246;;;;;;;;;;;;;;;
1912.0;1834.1;;;;;;;;;;121.76504;44.473095;-124.881744;;;;;;;;;
1912.0;1834.1;;;;;;;1.3680227;-1.1416974;0.40375987;;;;;;;;;;;;
1912.0;1834.1;;;;;;;;;;119.35408;49.550613;-124.881744;;;;;;;;;
1912.0;1834.1;;;;;;;1.3445234;-1.1480453;0.377575;;;;;;;;;;;;
1912.0;1838.8;;;;-0.25358203;-0.7154847;0.4973374;;;;;;;;;;;;;;;
1912.0;1838.8;;;;-0.24523929;-0.71067816;0.4939919;;;;;;;;;;;;;;;
1912.0;1838.8;;;;-0.24047855;-0.70569617;0.48910528;;;;;;;;;;;;;;;
1912.0;1838.8;;;;-0.23836902;-0.7007943;0.4820481;;;;;;;;;;;;;;;
1912.0;1838.8;;;;-0.23769;-0.69603735;0.47367102;;;;;;;;;;;;;;;
1912.0;1842.0;262143;262143;11004;;;;;;;;;;;;;;;;;;
1912.0;1843.7;;;;;;;;;;117.14912;54.319134;-124.881744;;;;;;;;;
1912.0;1843.7;;;;;;;1.3053377;-1.1457869;0.34699544;;;;;;;;;;;;
1912.0;1843.7;;;;;;;;;;115.108185;58.957947;-124.881744;;;;;;;;;
1912.0;1843.7;;;;;;;1.2631611;-1.1257057;0.32837915;;;;;;;;;;;;
1912.0;1847.9;;;;;;;;;;;;;2286;;;;;;;;
1912.0;1847.9;;;;;;;;;;;;;3217;;;;;;;;
1912.0;1847.9;;;;;;;;;;;;;4481;;;;;;;;
1912.0;1847.9;;;;;;;;;;;;;5441;;;;;;;;
1912.0;1847.9;;;;;;;;;;;;;5838;;;;;;;;
1915.0;1848.8;;;;-0.23654178;-0.692421;0.4663201;;;;;;;;;;;;;;;
1915.0;1848.8;;;;-0.23518756;-0.68897635;0.45964438;;;;;;;;;;;;;;;
1915.0;1848.8;;;;-0.23283008;-0.6859055;0.45401007;;;;;;;;;;;;;;;
1915.0;1848.8;;;;-0.22933581;-0.6832543;0.44821173;;;;;;;;;;;;;;;
1915.0;1848.8;;;;-0.22558597;-0.68098456;0.44326025;;;;;;;;;;;;;;;
1915.0;1853.2;;;;;;;;;;113.55556;63.417465;-124.881744;;;;;;;;;
1915.0;1853.2;;;;;;;1.2260506;-1.0968963;0.31617177;;;;;;;;;;;;
1915.0;1853.2;;;;;;;;;;112.23945;67.426834;-124.881744;;;;;;;;;
1915.0;1853.2;;;;;;;1.1966918;-1.0628376;0.308298;;;;;;;;;;;;
1915.0;1853.9;;;;;;;;;;;;;;;;;-21.553698;13.71807;-25.307474;;1620.4
1915.0;1853.9;;;;;;;;;;;;;;0.8608661;0.6770837;-0.48628193;;;;;1620.4
1915.0;1853.9;;;;;;;;;;;;;;;;;-27.329327;13.290812;-29.129917;;1620.4
1915.0;1853.9;;;;;;;;;;;;;;0.887112;0.6877041;-0.49665824;;;;;1620.4
1915.0;1853.9;;;;;;;;;;;;;;;;;-33.07825;14.038514;-32.876064;;1629.9
1915.0;1853.9;;;;;;;;;;;;;;0.90212715;0.7016205;-0.48579362;;;;;1629.9
1915.0;1853.9;;;;;;;;;;;;;;;;;-38.41899;14.233069;-36.236916;;1629.9
1915.0;1853.9;;;;;;;;;;;;;;0.91042817;0.7003998;-0.45216224;;;;;1629.9
1915.0;1853.9;;;;;;;;;;;;;;;;;-43.06925;13.985106;-40.238655;;1639.5
1915.0;1853.9;;;;;;;;;;;;;;0.93923765;0.68941313;-0.42054507;;;;;1639.5
1915.0;1853.9;;;;;;;;;;;;;;;;;-47.81106;16.9187;-44.583725;;1639.5
1915.0;1853.9;;;;;;;;;;;;;;0.94875944;0.6830653;-0.37128818;;;;;1639.5
1916.0;1854.9;;;;;;;;;;;;;;;;;-51.637318;20.519882;-49.63454;;1649.1
1916.0;1854.9;;;;;;;;;;;;;;0.96133304;0.6794641;-0.31305888;;;;;1649.1
1916.0;1854.9;;;;;;;;;;;;;;;;;-54.940945;23.75866;-55.169834;;1649.1
1916.0;1854.9;;;;;;;;;;;;;;0.9770806;0.6707358;-0.26837978;;;;;1649.1
1916.0;1854.9;;;;;;;;;;;;;;;;;-58.046207;28.199102;-60.66698;;1658.7
1916.0;1854.9;;;;;;;;;;;;;;0.98672444;0.6604816;-0.19953002;;;;;1658.7
1916.0;1854.9;;;;;;;;;;;;;;;;;-61.258278;32.91803;-66.07639;;1658.7
1916.0;1854.9;;;;;;;;;;;;;;0.95077366;0.60408336;-0.14941862;;;;;1658.7
1916.0;1854.9;;;;;;;;;;;;;;;;;-61.880093;38.468582;-73.05368;;1668.4
1916.0;1854.9;;;;;;;;;;;;;;0.9284951;0.5901669;-0.08740501;;;;;1668.4
1916.0;1854.9;;;;;;;;;;;;;;;;;-63.11991;38.689842;-79.32523;;1668.4
1916.0;1854.9;;;;;;;;;;;;;;0.9750053;0.5634327;-0.10779138;;;;;1668.4
1916.0;1855.9;;;;;;;;;;;;;;;;;-59.621723;45.86169;-85.11231;;1677.9
1916.0;1855.9;;;;;;;;;;;;;;0.89870906;0.45350504;-0.09576708;;;;;1677.9
1916.0;1855.9;;;;;;;;;;;;;;;;;-52.404095;54.815056;-93.39046;;1677.9
1916.0;1855.9;;;;;;;;;;;;;;0.8834498;0.51802117;-0.027283547;;;;;1677.9
1916.0;1855.9;;;;;;;;;;;;;;;;;-49.58113;56.18076;-99.10123;;1687.5
1916.0;1855.9;;;;;;;;;;;;;;0.9060335;0.52485734;-0.010132145;;;;;1687.5
1916.0;1855.9;;;;;;;;;;;;;;;;;-47.34184;59.461502;-106.62405;;1687.5
1916.0;1855.9;;;;;;;;;;;;;;0.9143956;0.5244301;0.026551103;;;;;1687.5
1916.0;1855.9;;;;;;;;;;;;;;;;;-46.525467;60.838646;-113.26182;;1697.2
1916.0;1855.9;;;;;;;;;;;;;;0.90542316;0.46504104;0.054628134;;;;;1697.2
1916.0;1855.9;;;;;;;;;;;;;;;;;-47.688988;56.33717;-117.156746;;1697.2
1916.0;1855.9;;;;;;;;;;;;;;0.9356975;0.40864283;0.050050355;;;;;1697.2
1918.0;1856.8;;;;;;;;;;;;;;;;;-51.492355;48.226875;-119.357895;;1706.8
1918.0;1856.8;;;;;;;;;;;;;;1.0163884;0.33826715;-0.024536882;;;;;1706.8
1918.0;1856.8;;;;;;;;;;;;;;;;;-55.295723;45.106358;-120.47181;;1706.8
1918.0;1856.8;;;;;;;;;;;;;;1.0781579;0.27704704;-0.08807642;;;;;1706.8
1918.0;1856.8;;;;;;;;;;;;;;;;;-59.18302;44.97665;-120.13992;;1716.5
1918.0;1856.8;;;;;;;;;;;;;;1.1003754;0.21918394;-0.13000885;;;;;1716.5
1918.0;1856.8;;;;;;;;;;;;;;;;;-63.737907;44.423504;-116.828674;;1716.5
1918.0;1856.8;;;;;;;;;;;;;;1.1155736;0.17090365;-0.17786187;;;;;1716.5
1918.0;1856.8;;;;;;;;;;;;;;;;;-68.76583;43.19895;-111.335335;;1726.1
1918.0;1856.8;;;;;;;;;;;;;;1.15244;0.122196116;-0.24646749;;;;;1726.1
1918.0;1856.8;;;;;;;;;;;;;;;;;-73.06894;42.565693;-104.84252;;1726.1
1918.0;1856.8;;;;;;;;;;;;;;1.2059695;0.06878872;-0.32190925;;;;;1726.1
1918.0;1857.6;;;;;;;;;;;;;;;;;-73.25205;41.89047;-98.094124;;1735.8
1918.0;1857.6;;;;;;;;;;;;;;1.2859889;0.023499252;-0.36774805;;;;;1735.8
1918.0;1857.6;;;;;;;;;;;;;;;;;-71.249275;38.693657;-90.14404;;1735.8
1918.0;1857.6;;;;;;;;;;;;;;1.3600879;-0.025330363;-0.38148138;;;;;1735.8
1918.0;1857.6;;;;;;;;;;;;;;;;;-67.96853;30.93051;-79.68764;;1745.5
1918.0;1857.6;;;;;;;;;;;;;;1.469039;-0.054383986;-0.43171483;;;;;1745.5
1918.0;1857.6;;;;;;;;;;;;;;;;;-57.237465;22.629475;-68.43012;;1745.5
1918.0;1857.6;;;;;;;;;;;;;;1.5468612;-0.11365093;-0.5067293;;;;;1745.5
1918.0;1857.6;;;;;;;;;;;;;;;;;-33.783993;12.905515;-61.986908;;1755.1
1918.0;1857.6;;;;;;;;;;;;;;1.5670034;-0.1274453;-0.5476241;;;;;1755.1
1918.0;1857.6;;;;;;;;;;;;;;;;;-12.627033;4.860073;-55.48265;;1755.1
1918.0;1857.6;;;;;;;;;;;;;;1.4813074;-0.1788995;-0.58461255;;;;;1755.1
1919.0;1858.6;;;;-0.2218819;-0.6794587;0.43861014;;;;;;;;;;;;;;;
1919.0;1858.6;;;;-0.22013858;-0.6792107;0.43474966;;;;;;;;;;;;;;;
1919.0;1858.6;;;;-0.22190097;-0.67919546;0.43126684;;;;;;;;;;;;;;;
1919.0;1858.6;;;;-0.2273064;-0.67955786;0.4284287;;;;;;;;;;;;;;;
1919.0;1858.6;;;;-0.23382571;-0.67902;0.42674643;;;;;;;;;;;;;;;
1919.0;1861.7;262143;262143;10982;;;;;;;;;;;;;;;;;;
1919.0;1862.4;;;;;;;;;;111.041595;69.956055;-124.881744;;;;;;;;;
1919.0;1862.4;;;;;;;1.1659291;-1.0287789;0.29267251;;;;;;;;;;;;
1919.0;1862.4;;;;;;;;;;109.92385;70.85253;-124.881744;;;;;;;;;
1919.0;1862.4;;;;;;;1.1236305;-0.9912412;0.27973264;;;;;;;;;;;;
1919.0;1868.6;;;;-0.24172214;-0.6789132;0.4253083;;;;;;;;;;;;;;;
1919.0;1868.6;;;;-0.24913028;-0.67817694;0.422947;;;;;;;;;;;;;;;
1919.0;1868.6;;;;-0.25516513;-0.6772767;0.42089087;;;;;;;;;;;;;;;
1919.0;1868.6;;;;-0.25976947;-0.67647177;0.41912848;;;;;;;;;;;;;;;
1919.0;1868.6;;;;-0.263382;-0.67531973;0.41746908;;;;;;;;;;;;;;;
1919.0;1871.7;;;;;;;;;;108.86334;70.16586;-124.881744;;;;;;;;;
1919.0;1871.7;;;;;;;1.0787683;-0.95223856;0.28034303;;;;;;;;;;;;
1919.0;1871.7;;;;;;;;;;108.176674;68.60179;-124.881744;;;;;;;;;
1919.0;1871.7;;;;;;;1.0457473;-0.9149449;0.28040406;;;;;;;;;;;;
1940.0;1878.0;;;;-0.26526645;-0.67530066;0.41459662;;;;;;;;;;;;;;;
1940.0;1878.0;;;;-0.26620868;-0.6754113;0.41392523;;;;;;;;;;;;;;;
1940.0;1878.0;;;;-0.2668381;-0.67657477;0.4134255;;;;;;;;;;;;;;;
1940.0;1878.0;;;;-0.26624683;-0.6779519;0.41339117;;;;;;;;;;;;;;;
1940.0;1878.0;;;;-0.26589587;-0.67960364;0.41416556;;;;;;;;;;;;;;;
1940.0;1880.8;;;;;;;;;;107.69601;65.004425;-124.881744;;;;;;;;;
1940.0;1880.8;;;;;;;1.0215766;-0.8795434;0.27539903;;;;;;;;;;;;
1940.0;1880.8;;;;;;;;;;106.917786;59.984127;-124.881744;;;;;;;;;
1940.0;1880.8;;;;;;;0.98605305;-0.8445692;0.26831874;;;;;;;;;;;;
1940.0;1881.1;262143;262143;10967;;;;;;;;;;;;;;;;;;
1940.0;1886.8;;;;;;;;;;;;;5859;;;;;;;;
1940.0;1886.8;;;;;;;;;;;;;5717;;;;;;;;
1940.0;1886.8;;;;;;;;;;;;;5611;;;;;;;;
1940.0;1886.8;;;;;;;;;;;;;5529;;;;;;;;
1940.0;1886.8;;;;;;;;;;;;;5383;;;;;;;;
1940.0;1887.5;;;;-0.2648354;-0.68178564;0.4150849;;;;;;;;;;;;;;;
1940.0;1887.5;;;;-0.2635155;-0.6839486;0.41686636;;;;;;;;;;;;;;;
1940.0;1887.5;;;;-0.26266482;-0.68617254;0.4209481;;;;;;;;;;;;;;;
1940.0;1887.5;;;;-0.26334766;-0.6883736;0.42404562;;;;;;;;;;;;;;;
1940.0;1887.5;;;;-0.26537326;-0.689972;0.42848974;;;;;;;;;;;;;;;
1940.0;1890.0;;;;;;;;;;105.67797;53.655357;-124.881744;;;;;;;;;
1940.0;1890.0;;;;;;;0.93868834;-0.80867946;0.25659963;;;;;;;;;;;;
1940.0;1890.0;;;;;;;;;;103.94223;48.01706;-124.881744;;;;;;;;;
1940.0;1890.0;;;;;;;0.8829005;-0.7709586;0.26410717;;;;;;;;;;;;
1943.0;1897.7;;;;-0.26863864;-0.6908913;0.43357474;;;;;;;;;;;;;;;
1943.0;1897.7;;;;-0.27219775;-0.6910668;0.43729025;;;;;;;;;;;;;;;
1943.0;1897.7;;;;-0.27536014;-0.6904717;0.44191748;;;;;;;;;;;;;;;
1943.0;1897.7;;;;-0.27868655;-0.68919;0.4488755;;;;;;;;;;;;;;;
1943.0;1897.7;;;;-0.28058246;-0.68809515;0.45618063;;;;;;;;;;;;;;;
1943.0;1899.6;;;;;;;;;;102.626114;43.72921;-124.881744;;;;;;;;;
1943.0;1899.6;;;;;;;0.8255257;-0.73085725;0.27381206;;;;;;;;;;;;
1943.0;1899.6;;;;;;;;;;101.603745;39.609207;-124.881744;;;;;;;;;
1943.0;1899.6;;;;;;;0.7842647;-0.687582;0.29016998;;;;;;;;;;;;
1943.0;1901.0;262143;262143;10940;;;;;;;;;;;;;;;;;;
1943.0;1905.5;;;;;;;;;;;;;;;;;1.4725181;-0.1678518;-58.721428;;1764.6
1943.0;1905.5;;;;;;;;;;;;;;1.3282266;-0.24274422;-0.6155583;;;;;1764.6
1943.0;1905.5;;;;;;;;;;;;;;;;;13.267922;-1.7319254;-73.34742;;1764.6
1943.0;1905.5;;;;;;;;;;;;;;1.2272713;-0.24011964;-0.63618886;;;;;1764.6
1943.0;1905.5;;;;;;;;;;;;;;;;;18.177588;7.6715903;-92.94031;;1774.3
1943.0;1905.5;;;;;;;;;;;;;;1.1183813;-0.22809534;-0.61653495;;;;;1774.3
1943.0;1905.5;;;;;;;;;;;;;;;;;18.028809;21.622364;-112.7163;;1774.3
1943.0;1905.5;;;;;;;;;;;;;;1.0224922;-0.1991638;-0.58143866;;;;;1774.3
1943.0;1905.5;;;;;;;;;;;;;;;;;18.66207;30.678732;-123.897514;;1784.0
1943.0;1905.5;;;;;;;;;;;;;;1.020722;-0.11249123;-0.55635244;;;;;1784.0
1943.0;1905.5;;;;;;;;;;;;;;;;;19.409773;32.76162;-124.988556;;1784.0
1943.0;1905.5;;;;;;;;;;;;;;1.056734;0.04382458;-0.5700247;;;;;1784.0
1944.0;1907.7;;;;-0.27889636;-0.68733984;0.46238333;;;;;;;;;;;;;;;
1944.0;1907.7;;;;-0.2805138;-0.6870652;0.46282583;;;;;;;;;;;;;;;
1944.0;1907.7;;;;-0.28691486;-0.6878205;0.46197516;;;;;;;;;;;;;;;
1944.0;1907.7;;;;-0.26639178;-0.6908532;0.47544867;;;;;;;;;;;;;;;
1944.0;1907.7;;;;-0.25457385;-0.69183356;0.4763146;;;;;;;;;;;;;;;
1944.0;1909.2;;;;;;;;;;100.34486;36.435284;-124.881744;;;;;;;;;
1944.0;1909.2;;;;;;;0.7691275;-0.6457717;0.31330302;;;;;;;;;;;;
1944.0;1909.2;;;;;;;;;;99.501785;33.566547;-124.881744;;;;;;;;;
1944.0;1909.2;;;;;;;0.766625;-0.6128727;0.31464583;;;;;;;;;;;;
1944.0;1917.8;;;;-0.24899295;-0.69313437;0.47795874;;;;;;;;;;;;;;;
1944.0;1917.8;;;;-0.24719241;-0.69645315;0.4809838;;;;;;;;;;;;;;;
1944.0;1917.8;;;;-0.2485123;-0.70060736;0.48312002;;;;;;;;;;;;;;;
1944.0;1917.8;;;;-0.25252536;-0.70475775;0.4840737;;;;;;;;;;;;;;;
1944.0;1917.8;;;;-0.25833133;-0.7089768;0.48566824;;;;;;;;;;;;;;;
1944.0;1918.8;;;;;;;;;;98.521385;28.984955;-124.881744;;;;;;;;;
1944.0;1918.8;;;;;;;0.7511216;-0.5822321;0.29590747;;;;;;;;;;;;
1944.0;1918.8;;;;;;;;;;96.97638;23.426771;-124.881744;;;;;;;;;
1944.0;1918.8;;;;;;;0.6979583;-0.5553758;0.27344584;;;;;;;;;;;;
1944.0;1921.1;262143;262143;10933;;;;;;;;;;;;;;;;;;
1944.0;1927.0;;;;;;;;;;;;;5350;;;;;;;;
1944.0;1927.0;;;;;;;;;;;;;5744;;;;;;;;
1944.0;1927.0;;;;;;;;;;;;;6587;;;;;;;;
1944.0;1927.0;;;;;;;;;;;;;7331;;;;;;;;
1944.0;1927.0;;;;;;;;;;;;;7434;;;;;;;;
2059.0;1927.8;;;;-0.26384357;-0.7121888;0.48810583;;;;;;;;;;;;;;;
2059.0;1927.8;;;;-0.2701073;-0.7142716;0.49013525;;;;;;;;;;;;;;;
2059.0;1927.8;;;;-0.27705386;-0.7149163;0.49240118;;;;;;;;;;;;;;;
2059.0;1927.8;;;;-0.28227237;-0.7145768;0.49609762;;;;;;;;;;;;;;;
2059.0;1927.8;;;;-0.28266528;-0.71366125;0.49882895;;;;;;;;;;;;;;;
2059.0;1928.3;;;;;;;;;;95.450455;18.219551;-124.881744;;;;;;;;;
2059.0;1928.3;;;;;;;0.6353343;-0.5262001;0.25379193;;;;;;;;;;;;
2059.0;1928.3;;;;;;;;;;93.913086;14.458144;-124.881744;;;;;;;;;
2059.0;1928.3;;;;;;;0.58540606;-0.4934843;0.24390393;;;;;;;;;;;;
2059.0;1937.7;;;;-0.28181842;-0.71244055;0.49875647;;;;;;;;;;;;;;;
2059.0;1937.7;;;;-0.2805138;-0.7113953;0.4986573;;;;;;;;;;;;;;;
2059.0;1937.7;;;;-0.28138354;-0.71077734;0.500187;;;;;;;;;;;;;;;
2059.0;1937.7;;;;-0.28491595;-0.71004874;0.50399786;;;;;;;;;;;;;;;
2059.0;1937.7;;;;-0.29207614;-0.7088967;0.50910574;;;;;;;;;;;;;;;
2059.0;1937.8;;;;;;;;;;92.61604;12.550736;-124.881744;;;;;;;;;
2059.0;1937.8;;;;;;;0.5559862;-0.45680106;0.24341564;;;;;;;;;;;;
2059.0;1937.8;;;;;;;;;;91.864525;11.730552;-124.881744;;;;;;;;;
2059.0;1937.8;;;;;;;0.55494857;-0.41846982;0.25501266;;;;;;;;;;;;
2059.0;1941.2;262143;262143;10942;;;;;;;;;;;;;;;;;;
2059.0;1947.4;;;;;;;;;;91.284676;12.050997;-124.881744;;;;;;;;;
2059.0;1947.4;;;;;;;0.58143866;-0.38587603;0.26227608;;;;;;;;;;;;
2059.0;1947.4;;;;;;;;;;90.35767;10.0138855;-124.881744;;;;;;;;;
2059.0;1947.4;;;;;;;0.6054872;-0.35773796;0.24903104;;;;;;;;;;;;
2062.0;1947.8;;;;-0.30295566;-0.7070618;0.51445395;;;;;;;;;;;;;;;
2062.0;1947.8;;;;-0.31681445;-0.7049332;0.5196877;;;;;;;;;;;;;;;
2062.0;1947.8;;;;-0.33246616;-0.70164496;0.5224305;;;;;;;;;;;;;;;
2062.0;1947.8;;;;-0.34806827;-0.69780356;0.5248795;;;;;;;;;;;;;;;
2062.0;1947.8;;;;-0.36203387;-0.6929322;0.5281411;;;;;;;;;;;;;;;
2062.0;1957.0;;;;;;;;;;88.66771;4.1924806;-124.881744;;;;;;;;;
2062.0;1957.0;;;;;;;0.5998108;-0.32782984;0.23194067;;;;;;;;;;;;
2062.0;1957.0;;;;;;;;;;86.996826;-2.334666;-124.881744;;;;;;;;;
2062.0;1957.0;;;;;;;0.549089;-0.30292672;0.21887875;;;;;;;;;;;;
2062.0;1957.9;;;;-0.3722153;-0.6878548;0.529831;;;;;;;;;;;;;;;
2062.0;1957.9;;;;-0.3786927;-0.6839219;0.53047186;;;;;;;;;;;;;;;
2062.0;1957.9;;;;-0.3825379;-0.68036276;0.5313073;;;;;;;;;;;;;;;
2062.0;1957.9;;;;-0.38412482;-0.67807776;0.53173834;;;;;;;;;;;;;;;
2062.0;1957.9;;;;-0.3842774;-0.67701346;0.5327988;;;;;;;;;;;;;;;
2062.0;1961.4;262143;262143;10944;;;;;;;;;;;;;;;;;;
2067.0;1965.5;;;;;;;;;;;;;;;;;24.960325;27.53151;-124.988556;;1793.7
2067.0;1965.5;;;;;;;;;;;;;;1.1045259;0.14355907;-0.59694207;;;;;1793.7
2067.0;1965.5;;;;;;;;;;;;;;;;;31.46077;26.173437;-124.988556;;1793.7
2067.0;1965.5;;;;;;;;;;;;;;1.1468856;0.2113712;-0.58534503;;;;;1793.7
2067.0;1965.5;;;;;;;;;;;;;;;;;35.328987;33.242287;-124.988556;;1803.4
2067.0;1965.5;;;;;;;;;;;;;;1.1655629;0.2417066;-0.50325024;;;;;1803.4
2067.0;1965.5;;;;;;;;;;;;;;;;;33.627583;43.565174;-124.988556;;1803.4
2067.0;1965.5;;;;;;;;;;;;;;1.1711173;0.260506;-0.3291116;;;;;1803.4
2067.0;1965.5;;;;;;;;;;;;;;;;;28.939177;38.819546;-124.1264;;1812.9
2067.0;1965.5;;;;;;;;;;;;;;1.1407819;0.23572497;-0.1853084;;;;;1812.9
2067.0;1965.5;;;;;;;;;;;;;;;;;15.018921;24.365215;-120.81896;;1812.9
2067.0;1965.5;;;;;;;;;;;;;;1.098056;0.20813623;-0.14423047;;;;;1812.9
2067.0;1966.2;;;;;;;;;;;;;;;;;-3.5325174;10.704368;-116.98889;;1822.5
2067.0;1966.2;;;;;;;;;;;;;;1.1192969;0.1984924;-0.19794305;;;;;1822.5
2067.0;1966.2;;;;;;;;;;;;;;;;;-14.198736;-3.6202583;-111.42307;;1822.5
2067.0;1966.2;;;;;;;;;;;;;;1.1732535;0.2074038;-0.3061617;;;;;1822.5
2067.0;1966.2;;;;;;;;;;;;;;;;;-20.80218;-12.810144;-105.0943;;1832.2
2067.0;1966.2;;;;;;;;;;;;;;1.2286142;0.2196112;-0.4441664;;;;;1832.2
2067.0;1966.2;;;;;;;;;;;;;;;;;-28.86288;0.026703697;-107.07038;;1832.2
2067.0;1966.2;;;;;;;;;;;;;;1.2275765;0.2618488;-0.537553;;;;;1832.2
2067.0;1966.2;;;;;;;;;;;;;;;;;-36.2331;22.347178;-111.23234;;1841.8
2067.0;1966.2;;;;;;;;;;;;;;1.1370586;0.36127812;-0.3797113;;;;;1841.8
2067.0;1966.2;;;;;;;;;;;;;;;;;-42.062138;17.372662;-104.63271;;1841.8
2067.0;1966.2;;;;;;;;;;;;;;1.0842617;0.40577412;-0.26441237;;;;;1841.8
2069.0;1966.5;;;;;;;;;;86.20335;-8.140813;-124.881744;;;;;;;;;
2069.0;1966.5;;;;;;;0.51551867;-0.26911223;0.20563371;;;;;;;;;;;;
2069.0;1966.5;;;;;;;;;;85.23057;-12.062441;-124.881744;;;;;;;;;
2069.0;1966.5;;;;;;;0.49739066;-0.22766808;0.19782098;;;;;;;;;;;;
2069.0;1967.2;;;;;;;;;;;;;;;;;-52.0188;-0.5607776;-95.19486;;1851.5
2069.0;1967.2;;;;;;;;;;;;;;1.0970184;0.357799;-0.32819605;;;;;1851.5
2069.0;1967.2;;;;;;;;;;;;;;;;;-57.10776;-10.704368;-87.382126;;1851.5
2069.0;1967.2;;;;;;;;;;;;;;1.0914639;0.30079043;-0.42561114;;;;;1851.5
2069.0;1967.2;;;;;;;;;;;;;;;;;-60.66698;-10.13596;-84.82238;;1861.0
2069.0;1967.2;;;;;;;;;;;;;;1.0514847;0.2872402;-0.43366802;;;;;1861.0
2069.0;1967.2;;;;;;;;;;;;;;;;;-65.65676;-10.639516;-81.1449;;1861.0
2069.0;1967.2;;;;;;;;;;;;;;1.0103458;0.26520586;-0.41950744;;;;;1861.0
2069.0;1967.2;;;;;;;;;;;;;;;;;-70.52446;-12.894071;-76.757866;;1870.7
2069.0;1967.2;;;;;;;;;;;;;;0.9873959;0.25141147;-0.38337353;;;;;1870.7
2069.0;1967.2;;;;;;;;;;;;;;;;;-75.59817;-16.365551;-72.412796;;1870.7
2069.0;1967.2;;;;;;;;;;;;;;0.9651784;0.22113712;-0.3757439;;;;;1870.7
2069.0;1967.3;;;;;;;;;;;;;6968;;;;;;;;
2069.0;1967.3;;;;;;;;;;;;;6418;;;;;;;;
2069.0;1967.3;;;;;;;;;;;;;6089;;;;;;;;
2069.0;1967.3;;;;;;;;;;;;;5880;;;;;;;;
2069.0;1967.3;;;;;;;;;;;;;5862;;;;;;;;
2070.0;1968.0;;;;;;;;;;;;;;;;;-78.65001;-19.623402;-67.0568;;1880.3
2070.0;1968.0;;;;;;;;;;;;;;0.9409467;0.20209357;-0.36939603;;;;;1880.3
2070.0;1968.0;;;;;;;;;;;;;;;;;-83.38039;-21.092106;-62.879578;;1880.3
2070.0;1968.0;;;;;;;;;;;;;;0.92355114;0.19312114;-0.36573383;;;;;1880.3
2070.0;1968.0;;;;;;;;;;;;;;;;;-87.13035;-22.343363;-58.038574;;1889.9
2070.0;1968.0;;;;;;;;;;;;;;0.9007843;0.15570544;-0.36573383;;;;;1889.9
2070.0;1968.0;;;;;;;;;;;;;;;;;-89.47645;-24.681845;-54.437393;;1889.9
2070.0;1968.0;;;;;;;;;;;;;;0.87398905;0.12884915;-0.3685415;;;;;1889.9
2070.0;1968.0;;;;;;;;;;;;;;;;;-91.70049;-27.371288;-52.095097;;1899.5
2070.0;1968.0;;;;;;;;;;;;;;0.86092716;0.13910337;-0.3823359;;;;;1899.5
2070.0;1968.0;;;;;;;;;;;;;;;;;-93.306526;-29.389326;-48.42906;;1899.5
2070.0;1968.0;;;;;;;;;;;;;;0.85317546;0.1523484;-0.4005249;;;;;1899.5
2070.0;1967.7;;;;-0.3825379;-0.67631537;0.5337754;;;;;;;;;;;;;;;
2070.0;1967.7;;;;-0.3792954;-0.67607504;0.53413016;;;;;;;;;;;;;;;
2070.0;1967.7;;;;-0.37517172;-0.6766358;0.53202444;;;;;;;;;;;;;;;
2070.0;1967.7;;;;-0.3693619;-0.67722327;0.53060156;;;;;;;;;;;;;;;
2070.0;1967.7;;;;-0.3618622;-0.6776696;0.53046805;;;;;;;;;;;;;;;
2070.0;1976.0;;;;;;;;;;83.960236;-15.423291;-124.881744;;;;;;;;;
2070.0;1976.0;;;;;;;0.48762473;-0.18237862;0.19013031;;;;;;;;;;;;
2070.0;1976.0;;;;;;;;;;82.21305;-19.28007;-124.881744;;;;;;;;;
2070.0;1976.0;;;;;;;0.47889644;-0.1394696;0.18335521;;;;;;;;;;;;
2071.0;1977.9;;;;-0.35321048;-0.6773644;0.5307389;;;;;;;;;;;;;;;
2071.0;1977.9;;;;-0.34323505;-0.6775208;0.53013235;;;;;;;;;;;;;;;
2071.0;1977.9;;;;-0.33226398;-0.6772767;0.5296441;;;;;;;;;;;;;;;
2071.0;1977.9;;;;-0.32137302;-0.6762658;0.5279427;;;;;;;;;;;;;;;
2071.0;1977.9;;;;-0.3108597;-0.6751557;0.5257874;;;;;;;;;;;;;;;
2071.0;1981.3;262143;262143;10971;;;;;;;;;;;;;;;;;;
2071.0;1985.5;;;;;;;;;;79.973755;-22.865993;-124.881744;;;;;;;;;
2071.0;1985.5;;;;;;;0.4727317;-0.100283824;0.1812189;;;;;;;;;;;;
2071.0;1985.5;;;;;;;;;;77.1775;-25.978882;-124.881744;;;;;;;;;
2071.0;1985.5;;;;;;;0.4685812;-0.06524857;0.18799402;;;;;;;;;;;;
2071.0;1987.7;;;;-0.30224994;-0.6727868;0.52493674;;;;;;;;;;;;;;;
2071.0;1987.7;;;;-0.29485324;-0.66966254;0.52397925;;;;;;;;;;;;;;;
2071.0;1987.7;;;;-0.28787997;-0.66525275;0.5225983;;;;;;;;;;;;;;;
2071.0;1987.7;;;;-0.2816849;-0.66076285;0.5210305;;;;;;;;;;;;;;;
2071.0;1987.7;;;;-0.27577975;-0.65578467;0.5195847;;;;;;;;;;;;;;;
2071.0;1995.0;;;;;;;;;;73.8052;-27.291178;-124.881744;;;;;;;;;
2071.0;1995.0;;;;;;;0.44672993;-0.037781917;0.2280343;;;;;;;;;;;;
2071.0;1995.0;;;;;;;;;;71.30268;-27.375103;-124.881744;;;;;;;;;
2071.0;1995.0;;;;;;;0.42347485;-0.024414808;0.26239815;;;;;;;;;;;;
2117.0;1997.9;;;;-0.2703934;-0.65022284;0.5178147;;;;;;;;;;;;;;;
2117.0;1997.9;;;;-0.26576617;-0.64459234;0.5158425;;;;;;;;;;;;;;;
2117.0;1997.9;;;;-0.26210025;-0.63867575;0.5140572;;;;;;;;;;;;;;;
2117.0;1997.9;;;;-0.26009753;-0.63260275;0.51343924;;;;;;;;;;;;;;;
2117.0;1997.9;;;;-0.25984958;-0.6268731;0.51414114;;;;;;;;;;;;;;;
2117.0;2001.5;262143;262143;10979;;;;;;;;;;;;;;;;;;
2117.0;2004.6;;;;;;;;;;69.31516;-28.611103;-124.881744;;;;;;;;;
2117.0;2004.6;;;;;;;0.40992463;-0.013122959;0.28388318;;;;;;;;;;;;
2117.0;2004.6;;;;;;;;;;66.62191;-30.446028;-124.881744;;;;;;;;;
2117.0;2004.6;;;;;;;0.38856167;-0.005920591;0.30610064;;;;;;;;;;;;
2117.0;2007.4;;;;;;;;;;;;;6250;;;;;;;;
2117.0;2007.4;;;;;;;;;;;;;6848;;;;;;;;
2117.0;2007.4;;;;;;;;;;;;;7280;;;;;;;;
2117.0;2007.4;;;;;;;;;;;;;7293;;;;;;;;
2117.0;2007.4;;;;;;;;;;;;;7076;;;;;;;;
2117.0;2008.0;;;;-0.260994;-0.62069327;0.5174523;;;;;;;;;;;;;;;
2117.0;2008.0;;;;-0.26324084;-0.61590964;0.521843;;;;;;;;;;;;;;;
2117.0;2008.0;;;;-0.26558307;-0.6118203;0.52584845;;;;;;;;;;;;;;;
2117.0;2008.0;;;;-0.26698306;-0.60890585;0.5302468;;;;;;;;;;;;;;;
2117.0;2008.0;;;;-0.26633838;-0.60652167;0.5356789;;;;;;;;;;;;;;;
2117.0;2014.3;;;;;;;;;;64.07361;-31.228065;-124.881744;;;;;;;;;
2117.0;2014.3;;;;;;;0.36921293;0.005798517;0.3172094;;;;;;;;;;;;
2117.0;2014.3;;;;;;;;;;61.178165;-29.160437;-124.881744;;;;;;;;;
2117.0;2014.3;;;;;;;0.35377055;0.01678518;0.33417767;;;;;;;;;;;;
2119.0;2018.1;;;;-0.26351932;-0.6043015;0.5403176;;;;;;;;;;;;;;;
2119.0;2018.1;;;;-0.25766376;-0.6030045;0.5439988;;;;;;;;;;;;;;;
2119.0;2018.1;;;;-0.24998859;-0.6015511;0.54663855;;;;;;;;;;;;;;;
2119.0;2018.1;;;;-0.24070743;-0.60080343;0.5481644;;;;;;;;;;;;;;;
2119.0;2018.1;;;;-0.23084643;-0.60002524;0.54905707;;;;;;;;;;;;;;;
2119.0;2021.7;262143;262143;11007;;;;;;;;;;;;;;;;;;
2119.0;2023.9;;;;;;;;;;58.69854;-26.295511;-124.881744;;;;;;;;;
2119.0;2023.9;;;;;;;0.3518784;0.02990814;0.3452254;;;;;;;;;;;;
2119.0;2023.9;;;;;;;;;;56.38676;-24.20118;-124.881744;;;;;;;;;
2119.0;2023.9;;;;;;;0.3686636;0.046571247;0.34437087;;;;;;;;;;;;
2119.0;2028.2;;;;-0.22121051;-0.5994645;0.5495911;;;;;;;;;;;;;;;
2119.0;2028.2;;;;-0.2113953;-0.5991364;0.5496903;;;;;;;;;;;;;;;
2119.0;2028.2;;;;-0.20177844;-0.5992432;0.5499192;;;;;;;;;;;;;;;
2119.0;2028.2;;;;-0.19333652;-0.5992623;0.5494767;;;;;;;;;;;;;;;
2119.0;2028.2;;;;-0.18561174;-0.59914404;0.54713446;;;;;;;;;;;;;;;
2119.0;2033.5;;;;;;;;;;53.5638;-22.629475;-124.881744;;;;;;;;;
2119.0;2033.5;;;;;;;0.37995544;0.06701865;0.34022033;;;;;;;;;;;;
2119.0;2033.5;;;;;;;;;;50.344093;-21.740623;-124.881744;;;;;;;;;
2119.0;2033.5;;;;;;;0.38612017;0.09344768;0.32721946;;;;;;;;;;;;
2123.0;2038.3;;;;-0.17881013;-0.5985413;0.54222494;;;;;;;;;;;;;;;
2123.0;2038.3;;;;-0.17300798;-0.59766775;0.53768927;;;;;;;;;;;;;;;
2123.0;2038.3;;;;-0.16801454;-0.5967637;0.5331879;;;;;;;;;;;;;;;
2123.0;2038.3;;;;-0.16488267;-0.5967141;0.52907187;;;;;;;;;;;;;;;
2123.0;2038.3;;;;-0.1628113;-0.5965958;0.52457815;;;;;;;;;;;;;;;
2123.0;2042.0;262143;262143;11015;;;;;;;;;;;;;;;;;;
2123.0;2043.1;;;;;;;;;;47.074802;-20.06592;-124.881744;;;;;;;;;
2123.0;2043.1;;;;;;;0.35700554;0.11609241;0.32483903;;;;;;;;;;;;
2123.0;2043.1;;;;;;;;;;44.782097;-18.959625;-124.881744;;;;;;;;;
2123.0;2043.1;;;;;;;0.3249611;0.14075136;0.31189916;;;;;;;;;;;;
2123.0;2047.9;;;;;;;;;;;;;6918;;;;;;;;
2123.0;2047.9;;;;;;;;;;;;;6629;;;;;;;;
2123.0;2047.9;;;;;;;;;;;;;6281;;;;;;;;
2123.0;2047.9;;;;;;;;;;;;;6859;;;;;;;;
2123.0;2047.9;;;;;;;;;;;;;8621;;;;;;;;
2123.0;2048.3;;;;-0.16127016;-0.5983735;0.52081686;;;;;;;;;;;;;;;
2123.0;2048.3;;;;-0.16009523;-0.6013146;0.5176888;;;;;;;;;;;;;;;
2123.0;2048.3;;;;-0.15835954;-0.60574347;0.5148507;;;;;;;;;;;;;;;
2123.0;2048.3;;;;-0.15690614;-0.6117669;0.5140496;;;;;;;;;;;;;;;
2123.0;2048.3;;;;-0.1546364;-0.61835486;0.5130654;;;;;;;;;;;;;;;
2123.0;2052.5;;;;;;;;;;42.680138;-19.310587;-124.881744;;;;;;;;;
2123.0;2052.5;;;;;;;0.29291666;0.16608173;0.30249947;;;;;;;;;;;;
2123.0;2052.5;;;;;;;;;;40.84521;-19.177069;-124.881744;;;;;;;;;
2123.0;2052.5;;;;;;;0.27332377;0.1939146;0.28852198;;;;;;;;;;;;
2125.0;2057.8;;;;-0.15153123;-0.62598044;0.51032263;;;;;;;;;;;;;;;
2125.0;2057.8;;;;-0.14803697;-0.63348013;0.5075646;;;;;;;;;;;;;;;
2125.0;2057.8;;;;-0.14393617;-0.6413613;0.50438696;;;;;;;;;;;;;;;
2125.0;2057.8;;;;-0.13906099;-0.6486893;0.5014382;;;;;;;;;;;;;;;
2125.0;2057.8;;;;-0.13356782;-0.6557427;0.49757773;;;;;;;;;;;;;;;
2125.0;2061.7;;;;;;;;;;38.972137;-18.993958;-124.881744;;;;;;;;;
2125.0;2061.7;;;;;;;0.23316142;0.21558276;0.27954954;;;;;;;;;;;;
2125.0;2061.7;;;;;;;;;;36.675617;-20.870846;-124.881744;;;;;;;;;
2125.0;2061.7;;;;;;;0.20801416;0.23572497;0.27234718;;;;;;;;;;;;
2125.0;2061.6;262143;262143;11027;;;;;;;;;;;;;;;;;;
2125.0;2068.0;;;;-0.12859727;-0.66153723;0.4940911;;;;;;;;;;;;;;;
2125.0;2068.0;;;;-0.123497024;-0.6663514;0.49192435;;;;;;;;;;;;;;;
2125.0;2068.0;;;;-0.118812576;-0.66995245;0.4888993;;;;;;;;;;;;;;;
2125.0;2068.0;;;;-0.114467636;-0.67311865;0.4854012;;;;;;;;;;;;;;;
2125.0;2068.0;;;;-0.10888292;-0.6753693;0.48268133;;;;;;;;;;;;;;;
2125.0;2071.4;;;;;;;;;;33.368176;-23.060549;-124.881744;;;;;;;;;
2125.0;2071.4;;;;;;;0.17737357;0.25049594;0.2743614;;;;;;;;;;;;
2125.0;2071.4;;;;;;;;;;30.343027;-24.605549;-124.881744;;;;;;;;;
2125.0;2071.4;;;;;;;0.1394696;0.26435134;0.27723014;;;;;;;;;;;;
2177.0;2078.1;;;;-0.10323335;-0.6771355;0.48064047;;;;;;;;;;;;;;;
2177.0;2078.1;;;;-0.09873964;-0.67786413;0.48056418;;;;;;;;;;;;;;;
2177.0;2078.1;;;;-0.095756546;-0.6775246;0.48107535;;;;;;;;;;;;;;;
2177.0;2078.1;;;;-0.09633638;-0.6770249;0.48058707;;;;;;;;;;;;;;;
2177.0;2078.1;;;;-0.0982361;-0.67599493;0.47850424;;;;;;;;;;;;;;;
2177.0;2081.0;;;;;;;;;;27.527695;-25.933104;-124.881744;;;;;;;;;
2177.0;2081.0;;;;;;;0.10608234;0.2811365;0.2844325;;;;;;;;;;;;
2177.0;2081.0;;;;;;;;;;24.761955;-26.684622;-124.881744;;;;;;;;;
2177.0;2081.0;;;;;;;0.09521775;0.29474777;0.2938322;;;;;;;;;;;;
2177.0;2081.9;262143;262143;11035;;;;;;;;;;;;;;;;;;
2177.0;2087.8;;;;;;;;;;;;;7630;;;;;;;;
2177.0;2087.8;;;;;;;;;;;;;-896;;;;;;;;
2177.0;2087.8;;;;;;;;;;;;;-12235;;;;;;;;
2177.0;2087.8;;;;;;;;;;;;;-14206;;;;;;;;
2177.0;2087.8;;;;;;;;;;;;;-2669;;;;;;;;
2177.0;2088.2;;;;-0.10216142;-0.6753312;0.47661978;;;;;;;;;;;;;;;
2177.0;2088.2;;;;-0.10736467;-0.6750298;0.47490698;;;;;;;;;;;;;;;
2177.0;2088.2;;;;-0.11166383;-0.6742516;0.47225958;;;;;;;;;;;;;;;
2177.0;2088.2;;;;-0.114994064;-0.67532736;0.47030646;;;;;;;;;;;;;;;
2177.0;2088.2;;;;-0.11804201;-0.67633444;0.468525;;;;;;;;;;;;;;;
2177.0;2090.6;;;;;;;;;;21.835995;-27.787102;-124.881744;;;;;;;;;
2177.0;2090.6;;;;;;;0.08087405;0.3056734;0.3081149;;;;;;;;;;;;
2177.0;2090.6;;;;;;;;;;19.65392;-29.610584;-124.881744;;;;;;;;;
2177.0;2090.6;;;;;;;0.051271096;0.30756554;0.31580552;;;;;;;;;;;;
2180.0;2098.3;;;;-0.12074281;-0.6788674;0.4675675;;;;;;;;;;;;;;;
2180.0;2098.3;;;;-0.12434007;-0.68334967;0.46833044;;;;;;;;;;;;;;;
2180.0;2098.3;;;;-0.12915803;-0.6890717;0.46899801;;;;;;;;;;;;;;;
2180.0;2098.3;;;;-0.13479234;-0.69826514;0.4685822;;;;;;;;;;;;;;;
2180.0;2098.3;;;;-0.14174272;-0.7095948;0.4663468;;;;;;;;;;;;;;;
2180.0;2100.2;;;;;;;;;;18.028809;-31.155582;-124.881744;;;;;;;;;
2180.0;2100.2;;;;;;;0.06402783;0.31769767;0.31910154;;;;;;;;;;;;
2180.0;2100.2;;;;;;;;;;16.346478;-31.804104;-124.881744;;;;;;;;;
2180.0;2100.2;;;;;;;0.09588916;0.32715842;0.31293678;;;;;;;;;;;;
2180.0;2102.0;262143;262143;11038;;;;;;;;;;;;;;;;;;
2180.0;2108.2;;;;-0.15114595;-0.722725;0.4638558;;;;;;;;;;;;;;;
2180.0;2108.2;;;;-0.16299821;-0.73821646;0.46282202;;;;;;;;;;;;;;;
2180.0;2108.2;;;;-0.17678072;-0.754326;0.46194082;;;;;;;;;;;;;;;
2180.0;2108.2;;;;-0.19168857;-0.7721139;0.46269232;;;;;;;;;;;;;;;
2180.0;2108.2;;;;-0.20557025;-0.7902452;0.4642983;;;;;;;;;;;;;;;
2180.0;2109.7;;;;;;;;;;14.900662;-34.146397;-124.881744;;;;;;;;;
2180.0;2109.7;;;;;;;0.12170782;0.34150213;0.29902035;;;;;;;;;;;;
2180.0;2109.7;;;;;;;;;;13.119144;-36.671803;-124.881744;;;;;;;;;
2180.0;2109.7;;;;;;;0.13006988;0.3617664;0.2931608;;;;;;;;;;;;
2183.0;2118.1;;;;-0.22067645;-0.8088037;0.4613152;;;;;;;;;;;;;;;
2183.0;2118.1;;;;-0.2350426;-0.8269044;0.4604302;;;;;;;;;;;;;;;
2183.0;2118.1;;;;-0.24552539;-0.84593594;0.4618798;;;;;;;;;;;;;;;
2183.0;2118.1;;;;-0.266243;-0.86003506;0.45815283;;;;;;;;;;;;;;;
2183.0;2118.1;;;;-0.26589587;-0.878338;0.469101;;;;;;;;;;;;;;;
2183.0;2119.0;;;;;;;;;;10.830256;-36.244545;-124.881744;;;;;;;;;
2183.0;2119.0;;;;;;;0.15552233;0.3848384;0.29071933;;;;;;;;;;;;
2183.0;2119.0;;;;;;;;;;8.0835905;-33.63903;-124.881744;;;;;;;;;
2183.0;2119.0;;;;;;;0.16760765;0.41279337;0.30341503;;;;;;;;;;;;
2183.0;2122.0;262143;262143;11034;;;;;;;;;;;;;;;;;;
2183.0;2127.9;;;;;;;;;;;;;12191;;;;;;;;
2183.0;2127.9;;;;;;;;;;;;;17799;;;;;;;;
2183.0;2127.9;;;;;;;;;;;;;13315;;;;;;;;
2183.0;2127.9;;;;;;;;;;;;;7273;;;;;;;;
2183.0;2127.9;;;;;;;;;;;;;5080;;;;;;;;
2183.0;2128.2;;;;-0.2699814;-0.8930017;0.47025687;;;;;;;;;;;;;;;
2183.0;2128.2;;;;-0.2694092;-0.9069139;0.47323233;;;;;;;;;;;;;;;
2183.0;2128.2;;;;-0.26770785;-0.92013943;0.47686774;;;;;;;;;;;;;;;
2183.0;2128.2;;;;-0.26964572;-0.9301492;0.47784048;;;;;;;;;;;;;;;
2183.0;2128.2;;;;-0.2722321;-0.93724453;0.4798928;;;;;;;;;;;;;;;
2183.0;2128.7;;;;;;;;;;6.065554;-31.68203;-124.794;;;;;;;;;
2183.0;2128.7;;;;;;;0.15308085;0.42658773;0.30872524;;;;;;;;;;;;
2183.0;2128.7;;;;;;;;;;4.325999;-31.395916;-122.25715;;;;;;;;;
2183.0;2128.7;;;;;;;0.12707907;0.4439833;0.31421858;;;;;;;;;;;;
2186.0;2138.3;;;;-0.27222827;-0.9432069;0.48252875;;;;;;;;;;;;;;;
2186.0;2138.3;;;;-0.27425006;-0.94687665;0.48110968;;;;;;;;;;;;;;;
2186.0;2138.3;;;;-0.28604892;-0.9452821;0.47515112;;;;;;;;;;;;;;;
2186.0;2138.3;;;;-0.28122714;-0.94885266;0.48406988;;;;;;;;;;;;;;;
2186.0;2138.3;;;;-0.2715111;-0.9526292;0.4873467;;;;;;;;;;;;;;;
2186.0;2138.3;;;;;;;;;;1.9531846;-30.335398;-115.78341;;;;;;;;;
2186.0;2138.3;;;;;;;0.08996857;0.4580218;0.3336894;;;;;;;;;;;;
2186.0;2138.3;;;;;;;;;;-0.43488875;-27.779472;-108.97015;;;;;;;;;
2186.0;2138.3;;;;;;;0.053346355;0.46961883;0.35230568;;;;;;;;;;;;
2186.0;2142.3;262143;262143;11052;;;;;;;;;;;;;;;;;;
2186.0;2147.9;;;;;;;;;;-2.9450362;-24.952696;-102.79015;;;;;;;;;
2186.0;2147.9;;;;;;;0.0237434;0.48536637;0.36579487;;;;;;;;;;;;
2186.0;2147.9;;;;;;;;;;-5.42848;-21.42018;-97.37694;;;;;;;;;
2186.0;2147.9;;;;;;;-0.017273476;0.49171424;0.37897885;;;;;;;;;;;;
2186.0;2148.4;;;;-0.26656345;-0.9532281;0.4872399;;;;;;;;;;;;;;;
2186.0;2148.4;;;;-0.2608414;-0.9538957;0.48696142;;;;;;;;;;;;;;;
2186.0;2148.4;;;;-0.25893787;-0.9529954;0.48380667;;;;;;;;;;;;;;;
2186.0;2148.4;;;;-0.25826648;-0.9515077;0.4796067;;;;;;;;;;;;;;;
2186.0;2148.4;;;;-0.2570229;-0.9503747;0.47663504;;;;;;;;;;;;;;;
2359.0;2154.1;;;;;;;;;;;;;;;;;-94.90112;-30.00351;-45.670948;;1909.2
2359.0;2154.1;;;;;;;;;;;;;;0.8208258;0.14581744;-0.39783928;;;;;1909.2
2359.0;2154.1;;;;;;;;;;;;;;;;;-95.09568;-33.53603;-42.615284;;1909.2
2359.0;2154.1;;;;;;;;;;;;;;0.7813959;0.11206397;-0.38990447;;;;;1909.2
2359.0;2154.1;;;;;;;;;;;;;;;;;-95.13001;-39.41084;-39.757988;;1918.8
2359.0;2154.1;;;;;;;;;;;;;;0.7653432;0.11200293;-0.42579424;;;;;1918.8
2359.0;2154.1;;;;;;;;;;;;;;;;;-96.48808;-41.02069;-36.702324;;1918.8
2359.0;2154.1;;;;;;;;;;;;;;0.7521592;0.111087374;-0.4334849;;;;;1918.8
2359.0;2154.1;;;;;;;;;;;;;;;;;-98.50993;-41.230507;-33.005768;;1928.3
2359.0;2154.1;;;;;;;;;;;;;;0.74684894;0.100833155;-0.41987365;;;;;1928.3
2359.0;2154.1;;;;;;;;;;;;;;;;;-100.26475;-41.821804;-29.736473;;1928.3
2359.0;2154.1;;;;;;;;;;;;;;0.73970765;0.09930723;-0.40882596;;;;;1928.3
2359.0;2155.9;;;;;;;;;;;;;;;;;-100.79119;-43.454544;-26.41377;;1937.9
2359.0;2155.9;;;;;;;;;;;;;;0.72255623;0.10492264;-0.40241706;;;;;1937.9
2359.0;2155.9;;;;;;;;;;;;;;;;;-102.603226;-44.095432;-23.957031;;1937.9
2359.0;2155.9;;;;;;;;;;;;;;0.71071506;0.11066011;-0.3859981;;;;;1937.9
2359.0;2155.9;;;;;;;;;;;;;;;;;-104.5526;-44.694355;-21.160772;;1947.6
2359.0;2155.9;;;;;;;;;;;;;;0.70198673;0.114627525;-0.37580493;;;;;1947.6
2359.0;2155.9;;;;;;;;;;;;;;;;;-105.38423;-46.109653;-18.841366;;1947.6
2359.0;2155.9;;;;;;;;;;;;;;0.69576097;0.11267434;-0.36994538;;;;;1947.6
2359.0;2155.9;;;;;;;;;;;;;;;;;-104.27412;-47.845394;-17.147587;;1957.2
2359.0;2155.9;;;;;;;;;;;;;;0.6930143;0.12817775;-0.3634144;;;;;1957.2
2359.0;2155.9;;;;;;;;;;;;;;;;;-102.51549;-48.79147;-15.816217;;1957.2
2359.0;2155.9;;;;;;;;;;;;;;0.6987518;0.1445967;-0.3353984;;;;;1957.2
2363.0;2156.8;;;;;;;;;;;;;;;;;-99.72685;-50.58824;-13.889736;;1966.9
2363.0;2156.8;;;;;;;;;;;;;;0.72743917;0.17255165;-0.31897947;;;;;1966.9
2363.0;2156.8;;;;;;;;;;;;;;;;;-97.50282;-51.931057;-12.10059;;1966.9
2363.0;2156.8;;;;;;;;;;;;;;0.73512983;0.19623402;-0.3010956;;;;;1966.9
2363.0;2156.8;;;;;;;;;;;;;;;;;-96.20197;-53.395947;-10.0138855;;1976.6
2363.0;2156.8;;;;;;;;;;;;;;0.7441023;0.19458602;-0.2860805;;;;;1976.6
2363.0;2156.8;;;;;;;;;;;;;;;;;-94.67986;-54.910427;-8.026368;;1976.6
2363.0;2156.8;;;;;;;;;;;;;;0.7532579;0.20581684;-0.26557207;;;;;1976.6
2363.0;2156.8;;;;;;;;;;;;;;;;;-94.11909;-54.99817;-6.714072;;1986.2
2363.0;2156.8;;;;;;;;;;;;;;0.7528916;0.20825832;-0.22943816;;;;;1986.2
2363.0;2156.8;;;;;;;;;;;;;;;;;-92.913605;-55.307167;-5.348369;;1986.2
2363.0;2156.8;;;;;;;;;;;;;;0.7690054;0.20703757;-0.21491134;;;;;1986.2
2363.0;2157.3;;;;;;;;;;-7.0574055;-17.757957;-91.456345;;;;;;;;;
2363.0;2157.3;;;;;;;-0.03521836;0.50129706;0.38142034;;;;;;;;;;;;
2363.0;2157.3;;;;;;;;;;-8.404035;-13.592181;-85.80279;;;;;;;;;
2363.0;2157.3;;;;;;;-0.033448286;0.51545763;0.38441116;;;;;;;;;;;;
2363.0;2158.2;;;;-0.25709155;-0.94747555;0.47367865;;;;;;;;;;;;;;;
2363.0;2158.2;;;;-0.25994495;-0.94264233;0.46919256;;;;;;;;;;;;;;;
2363.0;2158.2;;;;-0.2531853;-0.9413873;0.47026068;;;;;;;;;;;;;;;
2363.0;2158.2;;;;-0.2476311;-0.93815625;0.46835333;;;;;;;;;;;;;;;
2363.0;2158.2;;;;-0.24089053;-0.9346124;0.4688607;;;;;;;;;;;;;;;
2363.0;2162.1;262143;262143;11073;;;;;;;;;;;;;;;;;;
2365.0;2166.8;;;;;;;;;;-9.910886;-8.606219;-81.28605;;;;;;;;;
2365.0;2166.8;;;;;;;-0.0046388134;0.53425705;0.39155248;;;;;;;;;;;;
2365.0;2166.8;;;;;;;;;;-11.360515;-4.1924806;-77.44835;;;;;;;;;
2365.0;2166.8;;;;;;;0.005859554;0.5463424;0.39765617;;;;;;;;;;;;
2365.0;2168.0;;;;;;;;;;;;;5062;;;;;;;;
2365.0;2168.0;;;;;;;;;;;;;4776;;;;;;;;
2365.0;2168.0;;;;;;;;;;;;;4477;;;;;;;;
2365.0;2168.0;;;;;;;;;;;;;4319;;;;;;;;
2365.0;2168.0;;;;;;;;;;;;;3986;;;;;;;;
2365.0;2168.2;;;;-0.23703769;-0.93078625;0.46936804;;;;;;;;;;;;;;;
2365.0;2168.2;;;;-0.23956302;-0.92523205;0.46779257;;;;;;;;;;;;;;;
2365.0;2168.2;;;;-0.24700549;-0.9194375;0.4640923;;;;;;;;;;;;;;;
2365.0;2168.2;;;;-0.258091;-0.9150926;0.4582215;;;;;;;;;;;;;;;
2365.0;2168.2;;;;-0.27091983;-0.912285;0.45089346;;;;;;;;;;;;;;;
2365.0;2176.1;;;;;;;;;;-12.485885;-1.903592;-72.66076;;;;;;;;;
2365.0;2176.1;;;;;;;0.016235847;0.55757314;0.40540788;;;;;;;;;;;;
2365.0;2176.1;;;;;;;;;;-13.691366;0.24414808;-67.22846;;;;;;;;;
2365.0;2176.1;;;;;;;0.026062807;0.57039094;0.41645557;;;;;;;;;;;;
2365.0;2178.0;;;;-0.2840996;-0.91048825;0.44463736;;;;;;;;;;;;;;;
2365.0;2178.0;;;;-0.2985802;-0.9091798;0.43975836;;;;;;;;;;;;;;;
2365.0;2178.0;;;;-0.3127289;-0.90698254;0.4376107;;;;;;;;;;;;;;;
2365.0;2178.0;;;;-0.32680896;-0.90465176;0.4373818;;;;;;;;;;;;;;;
2365.0;2178.0;;;;-0.33911517;-0.90322125;0.43840414;;;;;;;;;;;;;;;
2365.0;2182.1;262143;262143;11080;;;;;;;;;;;;;;;;;;
2367.0;2185.7;;;;;;;;;;-14.530625;3.2921844;-61.975464;;;;;;;;;
2367.0;2185.7;;;;;;;0.034058657;0.583636;0.42988372;;;;;;;;;;;;
2367.0;2185.7;;;;;;;;;;-15.037995;5.8862576;-57.092503;;;;;;;;;
2367.0;2185.7;;;;;;;0.035340436;0.5958434;0.44184697;;;;;;;;;;;;
2367.0;2188.1;;;;-0.34930804;-0.9022752;0.44086844;;;;;;;;;;;;;;;
2367.0;2188.1;;;;-0.35733417;-0.90145504;0.4440537;;;;;;;;;;;;;;;
2367.0;2188.1;;;;-0.36389545;-0.90028393;0.44652563;;;;;;;;;;;;;;;
2367.0;2188.1;;;;-0.36866763;-0.89930356;0.4495545;;;;;;;;;;;;;;;
2367.0;2188.1;;;;-0.37072757;-0.89730465;0.45306402;;;;;;;;;;;;;;;
2367.0;2195.4;;;;;;;;;;-15.537736;7.7249975;-52.396465;;;;;;;;;
2367.0;2195.4;;;;;;;0.033692434;0.6115909;0.45496994;;;;;;;;;;;;
2367.0;2195.4;;;;;;;;;;-15.690329;9.269998;-47.566914;;;;;;;;;
2367.0;2195.4;;;;;;;0.025879696;0.6280099;0.46784875;;;;;;;;;;;;
2367.0;2198.3;;;;-0.37100604;-0.89453137;0.4569779;;;;;;;;;;;;;;;
2367.0;2198.3;;;;-0.36807635;-0.8906442;0.46192175;;;;;;;;;;;;;;;
2367.0;2198.3;;;;-0.36341098;-0.8857118;0.46724325;;;;;;;;;;;;;;;
2367.0;2198.3;;;;-0.35634616;-0.87998974;0.47233206;;;;;;;;;;;;;;;
2367.0;2198.3;;;;-0.34779742;-0.8733827;0.4767533;;;;;;;;;;;;;;;
2367.0;2202.4;262143;262143;11094;;;;;;;;;;;;;;;;;;
2367.0;2205.0;;;;;;;;;;-15.686514;11.082033;-42.783134;;;;;;;;;
2367.0;2205.0;;;;;;;0.02148503;0.6460158;0.47395244;;;;;;;;;;;;
2367.0;2205.0;;;;;;;;;;-15.713217;13.039033;-38.44951;;;;;;;;;
2367.0;2205.0;;;;;;;0.020935697;0.65993226;0.47657704;;;;;;;;;;;;
2368.0;2208.3;;;;;;;;;;;;;3716;;;;;;;;
2368.0;2208.3;;;;;;;;;;;;;3370;;;;;;;;
2368.0;2208.3;;;;;;;;;;;;;2862;;;;;;;;
2368.0;2208.3;;;;;;;;;;;;;2533;;;;;;;;
2368.0;2208.3;;;;;;;;;;;;;2432;;;;;;;;
2368.0;2208.4;;;;-0.33780673;-0.86665356;0.48056418;;;;;;;;;;;;;;;
2368.0;2208.4;;;;-0.32833102;-0.85956204;0.48416525;;;;;;;;;;;;;;;
2368.0;2208.4;;;;-0.31846622;-0.85167325;0.4879418;;;;;;;;;;;;;;;
2368.0;2208.4;;;;-0.3093491;-0.8437196;0.49101645;;;;;;;;;;;;;;;
2368.0;2208.4;;;;-0.30118564;-0.8353158;0.49436575;;;;;;;;;;;;;;;
2368.0;2214.6;;;;;;;;;;-15.717033;14.248329;-34.661396;;;;;;;;;
2368.0;2214.6;;;;;;;0.021179846;0.6724448;0.47718742;;;;;;;;;;;;
2368.0;2214.6;;;;;;;;;;-15.758995;15.312662;-31.178473;;;;;;;;;
2368.0;2214.6;;;;;;;0.02783288;0.68581194;0.4760277;;;;;;;;;;;;
2368.0;2218.5;;;;-0.29423526;-0.8268167;0.49808508;;;;;;;;;;;;;;;
2368.0;2218.5;;;;-0.28862765;-0.8188058;0.5015374;;;;;;;;;;;;;;;
2368.0;2218.5;;;;-0.28447345;-0.811329;0.5044747;;;;;;;;;;;;;;;
2368.0;2218.5;;;;-0.28239444;-0.8054429;0.5065728;;;;;;;;;;;;;;;
2368.0;2218.5;;;;-0.28265384;-0.7997209;0.50827795;;;;;;;;;;;;;;;
2368.0;2222.5;262143;262143;11094;;;;;;;;;;;;;;;;;;
2368.0;2224.1;;;;;;;;;;-15.999329;17.376476;-28.218176;;;;;;;;;
2368.0;2224.1;;;;;;;0.0336314;0.7010712;0.486404;;;;;;;;;;;;
2368.0;2224.1;;;;;;;;;;-15.926847;19.665363;-25.15488;;;;;;;;;
2368.0;2224.1;;;;;;;0.06103702;0.7154759;0.49385053;;;;;;;;;;;;
2370.0;2228.4;;;;-0.28545383;-0.7952539;0.5089837;;;;;;;;;;;;;;;
2370.0;2228.4;;;;-0.28808978;-0.7906343;0.51087195;;;;;;;;;;;;;;;
2370.0;2228.4;;;;-0.28815082;-0.7865335;0.5126954;;;;;;;;;;;;;;;
2370.0;2228.4;;;;-0.28525546;-0.7822038;0.5140801;;;;;;;;;;;;;;;
2370.0;2228.4;;;;-0.27832416;-0.7775384;0.51464087;;;;;;;;;;;;;;;
2370.0;2233.7;;;;;;;;;;-15.747551;20.359661;-22.343363;;;;;;;;;
2370.0;2233.7;;;;;;;0.09912412;0.72511977;0.49665824;;;;;;;;;;;;
2370.0;2233.7;;;;;;;;;;-15.499588;20.27192;-20.119328;;;;;;;;;
2370.0;2233.7;;;;;;;0.13342692;0.7354961;0.48829615;;;;;;;;;;;;
2370.0;2238.5;;;;-0.26902393;-0.77282727;0.51456076;;;;;;;;;;;;;;;
2370.0;2238.5;;;;-0.256588;-0.767727;0.5141297;;;;;;;;;;;;;;;
2370.0;2238.5;;;;-0.24265674;-0.76233685;0.5149384;;;;;;;;;;;;;;;
2370.0;2238.5;;;;-0.22798541;-0.75657284;0.51717;;;;;;;;;;;;;;;
2370.0;2238.5;;;;-0.21330646;-0.7502862;0.52061087;;;;;;;;;;;;;;;
2370.0;2242.8;262143;262143;11097;;;;;;;;;;;;;;;;;;
2370.0;2243.3;;;;;;;;;;-15.202032;22.17551;-17.792292;;;;;;;;;
2370.0;2243.3;;;;;;;0.17767876;0.7466048;0.48091066;;;;;;;;;;;;
2370.0;2243.3;;;;;;;;;;-14.33607;25.91403;-15.121922;;;;;;;;;
2370.0;2243.3;;;;;;;0.21381268;0.760094;0.48579362;;;;;;;;;;;;
2370.0;2248.6;;;;;;;;;;;;;2215;;;;;;;;
2370.0;2248.6;;;;;;;;;;;;;1744;;;;;;;;
2370.0;2248.6;;;;;;;;;;;;;1244;;;;;;;;
2370.0;2248.6;;;;;;;;;;;;;859;;;;;;;;
2370.0;2248.6;;;;;;;;;;;;;536;;;;;;;;
2371.0;2248.6;;;;-0.19903949;-0.74399954;0.52496344;;;;;;;;;;;;;;;
2371.0;2248.6;;;;-0.18613054;-0.7377854;0.52862936;;;;;;;;;;;;;;;
2371.0;2248.6;;;;-0.1750107;-0.7314454;0.53140265;;;;;;;;;;;;;;;
2371.0;2248.6;;;;-0.16574861;-0.72575;0.5345307;;;;;;;;;;;;;;;
2371.0;2248.6;;;;-0.15805437;-0.72048956;0.53758246;;;;;;;;;;;;;;;
2371.0;2253.0;;;;;;;;;;-13.046663;27.84051;-11.436811;;;;;;;;;
2371.0;2253.0;;;;;;;0.21955016;0.77663505;0.48866236;;;;;;;;;;;;
2371.0;2253.0;;;;;;;;;;-12.016664;27.867214;-6.4661093;;;;;;;;;
2371.0;2253.0;;;;;;;0.21423994;0.79280984;0.49226356;;;;;;;;;;;;
2371.0;2258.7;;;;-0.15174104;-0.7151795;0.5404244;;;;;;;;;;;;;;;
2371.0;2258.7;;;;-0.14546587;-0.71049124;0.5423432;;;;;;;;;;;;;;;
2371.0;2258.7;;;;-0.13914491;-0.70611197;0.5434037;;;;;;;;;;;;;;;
2371.0;2258.7;;;;-0.13256837;-0.70180136;0.5435563;;;;;;;;;;;;;;;
2371.0;2258.7;;;;-0.12967302;-0.6973725;0.54298025;;;;;;;;;;;;;;;
2371.0;2262.6;;;;;;;;;;-11.146885;27.497177;-1.6632588;;;;;;;;;
2371.0;2262.6;;;;;;;0.1948912;0.80581075;0.49543747;;;;;;;;;;;;
2371.0;2262.6;;;;;;;;;;-10.052033;26.287882;2.2087772;;;;;;;;;
2371.0;2262.6;;;;;;;0.16089359;0.8262581;0.4967803;;;;;;;;;;;;
2371.0;2263.1;262143;262143;11098;;;;;;;;;;;;;;;;;;
2419.0;2268.8;;;;-0.13074495;-0.6933289;0.5430909;;;;;;;;;;;;;;;
2419.0;2268.8;;;;-0.13721849;-0.69136435;0.54375464;;;;;;;;;;;;;;;
2419.0;2268.8;;;;-0.14776994;-0.69164664;0.5445252;;;;;;;;;;;;;;;
2419.0;2268.8;;;;-0.1614876;-0.693142;0.5466729;;;;;;;;;;;;;;;
2419.0;2268.8;;;;-0.17491914;-0.69643027;0.54876333;;;;;;;;;;;;;;;
2419.0;2272.2;;;;;;;;;;-9.033479;23.960846;5.546739;;;;;;;;;
2419.0;2272.2;;;;;;;0.12115848;0.8435316;0.48829615;;;;;;;;;;;;
2419.0;2272.2;;;;;;;;;;-8.495589;21.549883;8.289591;;;;;;;;;
2419.0;2272.2;;;;;;;0.076662496;0.86373484;0.48518327;;;;;;;;;;;;
2419.0;2278.9;;;;-0.18578722;-0.7012673;0.55099875;;;;;;;;;;;;;;;
2419.0;2278.9;;;;-0.19226459;-0.7061921;0.55179983;;;;;;;;;;;;;;;
2419.0;2278.9;;;;-0.19293597;-0.7104836;0.55257803;;;;;;;;;;;;;;;
2419.0;2278.9;;;;-0.18832019;-0.713646;0.5539971;;;;;;;;;;;;;;;
2419.0;2278.9;;;;-0.17858125;-0.715519;0.554802;;;;;;;;;;;;;;;
2419.0;2281.8;;;;;;;;;;-7.736442;19.047365;11.009553;;;;;;;;;
2419.0;2281.8;;;;;;;0.05114902;0.8882107;0.48567155;;;;;;;;;;;;
2419.0;2281.8;;;;;;;;;;-6.9696646;15.797144;13.512071;;;;;;;;;
2419.0;2281.8;;;;;;;0.0474868;0.9045686;0.491348;;;;;;;;;;;;
2420.0;2282.5;;;;;;;;;;;;;;;;;-91.750084;-54.082615;-4.993591;;1995.9
2420.0;2282.5;;;;;;;;;;;;;;0.7870113;0.22400586;-0.18872647;;;;;1995.9
2420.0;2282.5;;;;;;;;;;;;;;;;;-89.949486;-52.45369;-4.5854063;;1995.9
2420.0;2282.5;;;;;;;;;;;;;;0.80123293;0.2245552;-0.1678518;;;;;1995.9
2420.0;2282.5;;;;;;;;;;;;;;;;;-86.30253;-50.64165;-4.459517;;2005.6
2420.0;2282.5;;;;;;;;;;;;;;0.8122196;0.23102511;-0.15063937;;;;;2005.6
2420.0;2282.5;;;;;;;;;;;;;;;;;-81.774345;-49.199654;-4.463332;;2005.6
2420.0;2282.5;;;;;;;;;;;;;;0.8249763;0.23810542;-0.14593951;;;;;2005.6
2420.0;2282.5;;;;;;;;;;;;;;;;;-77.62383;-47.021393;-4.4785914;;2015.2
2420.0;2282.5;;;;;;;;;;;;;;0.83187354;0.2395703;-0.12274545;;;;;2015.2
2420.0;2282.5;;;;;;;;;;;;;;;;;-73.736534;-46.220284;-4.4900355;;2015.2
2420.0;2282.5;;;;;;;;;;;;;;0.8346812;0.23841059;-0.11304056;;;;;2015.2
2420.0;2283.4;;;;;;;;;;;;;;;;;-70.421455;-45.159763;-4.772332;;2024.9
2420.0;2283.4;;;;;;;;;;;;;;0.8530534;0.25299844;-0.09808649;;;;;2024.9
2420.0;2283.4;;;;;;;;;;;;;;;;;-68.842125;-42.752617;-5.1461835;;2024.9
2420.0;2283.4;;;;;;;;;;;;;;0.86587113;0.25714895;-0.081789605;;;;;2024.9
2420.0;2283.4;;;;;;;;;;;;;;;;;-69.02142;-38.968323;-5.996887;;2034.5
2420.0;2283.4;;;;;;;;;;;;;;0.8636738;0.263802;-0.065187536;;;;;2034.5
2420.0;2283.4;;;;;;;;;;;;;;;;;-69.864494;-35.355694;-6.6949983;;2034.5
2420.0;2283.4;;;;;;;;;;;;;;0.8700827;0.25037384;-0.049256876;;;;;2034.5
2420.0;2283.4;;;;;;;;;;;;;;;;;-68.76583;-33.18888;-7.084109;;2044.2
2420.0;2283.4;;;;;;;;;;;;;;0.8601947;0.23438215;-0.06860561;;;;;2044.2
2420.0;2283.4;;;;;;;;;;;;;;;;;-65.59191;-30.625324;-8.377332;;2044.2
2420.0;2283.4;;;;;;;;;;;;;;0.84231085;0.24488053;-0.08203375;;;;;2044.2
2421.0;2283.1;262143;262143;11097;;;;;;;;;;;;;;;;;;
2421.0;2284.5;;;;;;;;;;;;;;;;;-62.22724;-28.53099;-9.395886;;2053.9
2421.0;2284.5;;;;;;;;;;;;;;0.83474225;0.2583697;-0.08313242;;;;;2053.9
2421.0;2284.5;;;;;;;;;;;;;;;;;-59.572132;-27.695547;-10.364849;;2053.9
2421.0;2284.5;;;;;;;;;;;;;;0.8344371;0.27900022;-0.09363079;;;;;2053.9
2421.0;2284.5;;;;;;;;;;;;;;;;;-58.004242;-26.993622;-10.948516;;2063.5
2421.0;2284.5;;;;;;;;;;;;;;0.82937104;0.29523605;-0.09796441;;;;;2063.5
2421.0;2284.5;;;;;;;;;;;;;;;;;-58.49254;-26.875362;-11.322367;;2063.5
2421.0;2284.5;;;;;;;;;;;;;;0.8281503;0.31116673;-0.09564501;;;;;2063.5
2421.0;2284.5;;;;;;;;;;;;;;;;;-61.231575;-26.4214;-11.249886;;2073.2
2421.0;2284.5;;;;;;;;;;;;;;0.82418287;0.31287575;-0.08594012;;;;;2073.2
2421.0;2284.5;;;;;;;;;;;;;;;;;-64.153725;-26.116215;-11.421552;;2073.2
2421.0;2284.5;;;;;;;;;;;;;;0.81710255;0.32410657;-0.0794702;;;;;2073.2
2421.0;2288.8;;;;-0.16505815;-0.7168847;0.55546194;;;;;;;;;;;;;;;
2421.0;2288.8;;;;-0.14962007;-0.71723944;0.5554314;;;;;;;;;;;;;;;
2421.0;2288.8;;;;-0.13298036;-0.71702963;0.55512625;;;;;;;;;;;;;;;
2421.0;2288.8;;;;-0.11816789;-0.71728903;0.5540238;;;;;;;;;;;;;;;
2421.0;2288.8;;;;-0.106353775;-0.71728903;0.55266577;;;;;;;;;;;;;;;
2421.0;2288.8;;;;;;;;;;;;;331;;;;;;;;
2421.0;2288.8;;;;;;;;;;;;;429;;;;;;;;
2421.0;2288.8;;;;;;;;;;;;;766;;;;;;;;
2421.0;2288.8;;;;;;;;;;;;;1001;;;;;;;;
2421.0;2288.8;;;;;;;;;;;;;869;;;;;;;;
2427.0;2291.0;;;;;;;;;;-6.8132577;11.951812;15.179143;;;;;;;;;
2427.0;2291.0;;;;;;;0.061525315;0.91274756;0.5022126;;;;;;;;;;;;
2427.0;2291.0;;;;;;;;;;-6.9887385;8.030183;16.018402;;;;;;;;;
2427.0;2291.0;;;;;;;0.08709983;0.9150059;0.5133824;;;;;;;;;;;;
2427.0;2298.7;;;;-0.09766008;-0.7172623;0.5510598;;;;;;;;;;;;;;;
2427.0;2298.7;;;;-0.092594154;-0.71583945;0.5493508;;;;;;;;;;;;;;;
2427.0;2298.7;;;;-0.09231187;-0.7145768;0.5464211;;;;;;;;;;;;;;;
2427.0;2298.7;;;;-0.09579469;-0.7127839;0.542759;;;;;;;;;;;;;;;
2427.0;2298.7;;;;-0.10317232;-0.7102547;0.5379029;;;;;;;;;;;;;;;
2427.0;2300.7;;;;;;;;;;-7.4999237;4.4518876;16.506699;;;;;;;;;
2427.0;2300.7;;;;;;;0.12817775;0.9095737;0.52327037;;;;;;;;;;;;
2427.0;2300.7;;;;;;;;;;-8.159886;1.1864071;16.933958;;;;;;;;;
2427.0;2300.7;;;;;;;0.17981505;0.9026154;0.53334147;;;;;;;;;;;;
2427.0;2303.2;262143;262143;11101;;;;;;;;;;;;;;;;;;
2427.0;2308.9;;;;-0.12014772;-0.7048493;0.52857596;;;;;;;;;;;;;;;
2427.0;2308.9;;;;-0.14576341;-0.6948815;0.5202294;;;;;;;;;;;;;;;
2427.0;2308.9;;;;-0.16710664;-0.6849671;0.51596457;;;;;;;;;;;;;;;
2427.0;2308.9;;;;-0.15602876;-0.691536;0.5178643;;;;;;;;;;;;;;;
2427.0;2308.9;;;;-0.15039827;-0.6969605;0.50900656;;;;;;;;;;;;;;;
2427.0;2310.3;;;;;;;;;;-9.033479;-1.6098514;17.212439;;;;;;;;;
2427.0;2310.3;;;;;;;0.24695578;0.89541304;0.5390179;;;;;;;;;;;;
2427.0;2310.3;;;;;;;;;;-9.868922;-3.7690358;17.010254;;;;;;;;;
2427.0;2310.3;;;;;;;0.31134984;0.8880276;0.54738;;;;;;;;;;;;
2429.0;2319.0;;;;-0.15136339;-0.70093924;0.4977799;;;;;;;;;;;;;;;
2429.0;2319.0;;;;-0.16165163;-0.70172125;0.48658758;;;;;;;;;;;;;;;
2429.0;2319.0;;;;-0.17312624;-0.7022324;0.48014456;;;;;;;;;;;;;;;
2429.0;2319.0;;;;-0.1820717;-0.7027169;0.47419363;;;;;;;;;;;;;;;
2429.0;2319.0;;;;-0.19015506;-0.7043343;0.46954733;;;;;;;;;;;;;;;
2429.0;2319.9;;;;;;;;;;-10.513627;-5.6955166;16.666922;;;;;;;;;
