patientId;holterMac;flexMac;;;;;;;;;;;;;;;;;;;;
;CA:F3:0B:1E:33:78;D3:4A:5C:52:80:78;;;;;;;;;;;;;;;;;;;;
receivedTimeStamp;timeStamp;red;ir;green;adxl_accX;adxl_accY;adxl_accZ;lsm_accelX;lsm_accelY;lsm_accelZ;lsm_gyroX;lsm_gyroY;lsm_gyroZ;ecg;flex_lsm_accelX;flex_lsm_accelY;flex_lsm_accelZ;flex_lsm_gyroX;flex_lsm_gyroY;flex_lsm_gyroZ;flex_cmd;flexTimeStamp
283.0;230.0;;;;;;;;;;;;;;;;;;;;17;0.1
283.0;230.0;;;;;;;;;;;;;;;;;13.344218;0.90792567;1.1520737;;127.6
283.0;230.0;;;;;;;;;;;;;;0.92141485;0.11615345;-0.1657155;;;;;127.6
283.0;230.0;;;;;;;;;;;;;;;;;-4.692221;-16.785181;-6.0541096;;127.6
283.0;230.0;;;;;;;;;;;;;;0.9578539;0.123783074;-0.17627491;;;;;127.6
283.0;230.0;;;;;;;;;;;;;;;;;-62.414165;-84.33408;-61.41087;;137.2
283.0;230.0;;;;;;;;;;;;;;0.9595019;0.12573627;-0.18292795;;;;;137.2
283.0;230.0;;;;;;;;;;;;;;;;;-121.94814;-124.988556;-119.95681;;137.2
283.0;230.0;;;;;;;;;;;;;;0.96047854;0.12738426;-0.18970306;;;;;137.2
343.0;230.7;;;;;;;;;;;;;;;;;-53.33491;-124.84359;-78.588974;;146.8
343.0;230.7;;;;;;;;;;;;;;0.9616382;0.12555315;-0.19214454;;;;;146.8
343.0;230.7;;;;;;;;;;;;;;;;;21.366772;-124.618515;-32.662437;;146.8
343.0;230.7;;;;;;;;;;;;;;0.96334726;0.1264687;-0.1932432;;;;;146.8
343.0;230.7;;;;;;;;;;;;;;;;;21.805475;-94.74471;-25.315104;;156.4
343.0;230.7;;;;;;;;;;;;;;0.9624317;0.12768945;-0.19379254;;;;;156.4
343.0;230.7;;;;;;;;;;;;;;;;;17.281105;-2.8077028;-1.0071108;;156.4
343.0;230.7;;;;;;;;;;;;;;0.96114993;0.13458663;-0.19635609;;;;;156.4
343.0;230.7;;;;;;;;;;;;;;;;;17.319254;5.283517;0.7019257;;166.0
343.0;230.7;;;;;;;;;;;;;;0.9589526;0.1391644;-0.19379254;;;;;166.0
343.0;230.7;;;;;;;;;;;;;;;;;17.754143;6.286813;0.59129614;;166.0
343.0;230.7;;;;;;;;;;;;;;0.9559007;0.1429487;-0.1915952;;;;;166.0
343.0;282.8;;;;;;;;;;;;;;;;;17.845697;6.912442;0.77822196;;175.7
343.0;282.8;;;;;;;;;;;;;;0.954619;0.14374217;-0.19214454;;;;;175.7
343.0;282.8;;;;;;;;;;;;;;;;;18.070772;7.4083686;0.5874813;;175.7
343.0;282.8;;;;;;;;;;;;;;0.9527879;0.14600055;-0.19672231;;;;;175.7
343.0;282.8;;;;;;;;;;;;;;;;;18.486588;7.8508863;0.48448133;;185.3
343.0;282.8;;;;;;;;;;;;;;0.9533982;0.1472213;-0.20007935;;;;;185.3
343.0;282.8;;;;;;;;;;;;;;;;;19.047365;8.457442;0.6256294;;185.3
343.0;282.8;;;;;;;;;;;;;;0.95358133;0.14978485;-0.20300913;;;;;185.3
343.0;282.8;;;;;;;;;;;;;;;;;19.61577;9.235664;0.48829615;;194.8
343.0;282.8;;;;;;;;;;;;;;0.9519333;0.15344706;-0.20166631;;;;;194.8
343.0;282.8;;;;;;;;;;;;;;;;;20.363476;9.81933;0.5226295;;194.8
343.0;282.8;;;;;;;;;;;;;;0.94863737;0.15179907;-0.20325327;;;;;194.8
464.0;283.6;;;;;;;;;;;;;;;;;21.09592;10.1130705;0.6370739;;204.5
464.0;283.6;;;;;;;;;;;;;;0.94875944;0.14783166;-0.20789209;;;;;204.5
464.0;283.6;;;;;;;;;;;;;;;;;21.656698;10.311441;0.6637776;;204.5
464.0;283.6;;;;;;;;;;;;;;0.9538865;0.1462447;-0.21723075;;;;;204.5
464.0;283.6;;;;;;;;;;;;;;;;;22.347178;10.349589;0.93081456;;214.2
464.0;283.6;;;;;;;;;;;;;;0.95394754;0.14709921;-0.2273629;;;;;214.2
464.0;283.6;;;;;;;;;;;;;;;;;23.010956;10.34196;1.3847773;;214.2
464.0;283.6;;;;;;;;;;;;;;0.95541245;0.14728233;-0.23786126;;;;;214.2
464.0;283.6;;;;;;;;;;;;;;;;;23.762474;10.380108;1.7433698;;223.9
464.0;283.6;;;;;;;;;;;;;;0.9548021;0.14654988;-0.24536882;;;;;223.9
464.0;283.6;;;;;;;;;;;;;;;;;24.563585;10.44496;2.2011476;;223.9
464.0;283.6;;;;;;;;;;;;;;0.95107883;0.15100558;-0.25385296;;;;;223.9
464.0;396.1;;;;;;;;;;;;;;;;;25.17014;10.456405;2.746666;;233.4
464.0;396.1;;;;;;;;;;;;;;0.9467452;0.1525315;-0.2620319;;;;;233.4
464.0;396.1;;;;;;;;;;;;;;;;;25.769066;10.090182;3.1357768;;233.4
464.0;396.1;;;;;;;;;;;;;;0.9389935;0.15527818;-0.27088228;;;;;233.4
464.0;396.1;;;;;;;;;;;;;;;;;25.997955;9.369183;3.746147;;243.0
464.0;396.1;;;;;;;;;;;;;;0.9349651;0.16272469;-0.28266242;;;;;243.0
464.0;396.1;;;;;;;;;;;;;;;;;25.505844;9.289071;4.2878504;;243.0
464.0;396.1;;;;;;;;;;;;;;0.9274575;0.16272469;-0.28418836;;;;;243.0
464.0;396.1;;;;;;;;;;;;;;;;;24.586475;8.80459;4.634999;;252.5
464.0;396.1;;;;;;;;;;;;;;0.9165929;0.17249061;-0.28455457;;;;;252.5
464.0;396.1;;;;;;;;;;;;;;;;;23.705252;7.965331;5.2339244;;252.5
464.0;396.1;;;;;;;;;;;;;;0.91366315;0.17694631;-0.28791162;;;;;252.5
466.0;397.0;;;;;;;;;;;;;;;;;22.782066;6.7026277;5.5810723;;262.2
466.0;397.0;;;;;;;;;;;;;;0.9114048;0.18634602;-0.29804376;;;;;262.2
466.0;397.0;;;;;;;;;;;;;;;;;21.431623;5.8671837;5.794702;;262.2
466.0;397.0;;;;;;;;;;;;;;0.9037141;0.19306009;-0.29944763;;;;;262.2
466.0;397.0;;;;;;;;;;;;;;;;;20.004883;5.2682576;6.0731835;;271.9
466.0;397.0;;;;;;;;;;;;;;0.90279853;0.20001832;-0.2981048;;;;;271.9
466.0;397.0;;;;;;;;;;;;;;;;;18.730736;5.4628134;6.0998874;;271.9
466.0;397.0;;;;;;;;;;;;;;0.8998688;0.2036195;-0.2860805;;;;;271.9
466.0;397.0;;;;;;;;;;;;;;;;;17.780846;5.500962;5.9930725;;281.5
466.0;397.0;;;;;;;;;;;;;;0.89345986;0.21179846;-0.27265236;;;;;281.5
466.0;397.0;;;;;;;;;;;;;;;;;17.029327;5.0927763;5.9282207;;281.5
466.0;397.0;;;;;;;;;;;;;;0.89022493;0.21906187;-0.26783043;;;;;281.5
466.0;397.6;;;;;;;;;;;;;;;;;16.18244;4.9172945;5.8099613;;291.1
466.0;397.6;;;;;;;;;;;;;;0.88894314;0.22644734;-0.26142156;;;;;291.1
466.0;397.6;;;;;;;;;;;;;;;;;15.484328;4.8486285;5.6993318;;291.1
466.0;397.6;;;;;;;;;;;;;;0.8883938;0.23493148;-0.2552568;;;;;291.1
466.0;397.6;;;;;;;;;;;;;;;;;14.786219;4.776147;5.493332;;300.8
466.0;397.6;;;;;;;;;;;;;;0.8860134;0.242378;-0.24707785;;;;;300.8
466.0;397.6;;;;;;;;;;;;;;;;;13.950773;4.467147;5.1881466;;300.8
466.0;397.6;;;;;;;;;;;;;;0.8892483;0.24622333;-0.2405469;;;;;300.8
466.0;397.6;;;;;;;;;;;;;;;;;13.039033;4.154332;4.9821467;;310.5
466.0;397.6;;;;;;;;;;;;;;0.89657277;0.24939726;-0.23413801;;;;;310.5
466.0;397.6;;;;;;;;;;;;;;;;;12.424848;3.8949249;4.71511;;310.5
466.0;397.6;;;;;;;;;;;;;;0.90755945;0.24890897;-0.23041475;;;;;310.5
526.0;398.4;;;;;;;;;;;;;;;;;12.0052185;4.0055547;4.505295;;320.2
526.0;398.4;;;;;;;;;;;;;;0.92049927;0.24573503;-0.22644734;;;;;320.2
526.0;398.4;;;;;;;;;;;;;;;;;11.77633;4.6044803;4.486221;;320.2
526.0;398.4;;;;;;;;;;;;;;0.93417156;0.23999757;-0.22034363;;;;;320.2
526.0;398.4;;;;;;;;;;;;;;;;;11.650441;5.3750725;4.6845913;;329.8
526.0;398.4;;;;;;;;;;;;;;0.9427168;0.23517564;-0.21637623;;;;;329.8
526.0;398.4;;;;;;;;;;;;;;;;;11.688589;6.0197763;5.0393686;;329.8
526.0;398.4;;;;;;;;;;;;;;0.9455855;0.23004852;-0.20831935;;;;;329.8
526.0;398.4;;;;;;;;;;;;;;;;;11.783959;6.4394054;5.6421094;;339.4
526.0;398.4;;;;;;;;;;;;;;0.948088;0.22205268;-0.20062868;;;;;339.4
526.0;398.4;;;;;;;;;;;;;;;;;12.215034;6.7522206;6.389813;;339.4
526.0;398.4;;;;;;;;;;;;;;0.948149;0.21924497;-0.19873653;;;;;339.4
526.0;464.2;;;;;;;;;;;;;;;;;12.977996;6.6682944;7.080294;;349.0
526.0;464.2;;;;;;;;;;;;;;0.946379;0.21338542;-0.20142217;;;;;349.0
526.0;464.2;;;;;;;;;;;;;;;;;14.065218;6.286813;7.9195538;;349.0
526.0;464.2;;;;;;;;;;;;;;0.94204533;0.21405682;-0.21027254;;;;;349.0
526.0;464.2;;;;;;;;;;;;;;;;;15.198217;6.3516645;8.896146;;358.7
526.0;464.2;;;;;;;;;;;;;;0.9355144;0.21716972;-0.21301919;;;;;358.7
526.0;464.2;;;;;;;;;;;;;;;;;16.10233;6.714072;9.777367;;358.7
526.0;464.2;;;;;;;;;;;;;;0.92226934;0.23438215;-0.21362957;;;;;358.7
526.0;464.2;;;;;;;;;;;;;;;;;17.044586;6.7636647;10.673849;;368.0
526.0;464.2;;;;;;;;;;;;;;0.91152686;0.2496414;-0.22595905;;;;;368.0
526.0;464.2;;;;;;;;;;;;;;;;;17.883846;6.550035;11.608478;;368.0
526.0;464.2;;;;;;;;;;;;;;0.91073334;0.24939726;-0.24335459;;;;;368.0
584.0;465.0;;;;;;;;;;;;;;;;;18.585773;6.2295904;12.340922;;377.7
584.0;465.0;;;;;;;;;;;;;;0.91293067;0.2609943;-0.2569048;;;;;377.7
584.0;465.0;;;;;;;;;;;;;;;;;18.730736;5.939665;13.176367;;377.7
584.0;465.0;;;;;;;;;;;;;;0.913419;0.28223518;-0.26483962;;;;;377.7
584.0;465.0;;;;;;;;;;;;;;;;;17.853329;5.6230354;13.985106;;387.4
584.0;465.0;;;;;;;;;;;;;;0.9119541;0.2963347;-0.26685384;;;;;387.4
584.0;465.0;;;;;;;;;;;;;;;;;16.056551;5.3559985;14.656514;;387.4
584.0;465.0;;;;;;;;;;;;;;0.9076815;0.30628377;-0.26532793;;;;;387.4
584.0;465.0;;;;;;;;;;;;;;;;;13.500626;5.1957765;15.205847;;397.1
584.0;465.0;;;;;;;;;;;;;;0.90017396;0.31751457;-0.2590411;;;;;397.1
584.0;465.0;;;;;;;;;;;;;;;;;10.803553;4.9172945;15.720848;;397.1
584.0;465.0;;;;;;;;;;;;;;0.8915677;0.32361826;-0.25074008;;;;;397.1
584.0;524.1;;;;;;;;;;;;;;;;;8.3925905;3.8453321;16.26255;;406.8
584.0;524.1;;;;;;;;;;;;;;0.88882107;0.3243507;-0.24823755;;;;;406.8
584.0;524.1;;;;;;;;;;;;;;;;;6.344035;2.418592;16.701256;;406.8
584.0;524.1;;;;;;;;;;;;;;0.88808864;0.31830806;-0.24793237;;;;;406.8
584.0;524.1;;;;;;;;;;;;;;;;;4.8409986;0.9765923;17.09418;;416.4
584.0;524.1;;;;;;;;;;;;;;0.89260536;0.308298;-0.24652852;;;;;416.4
584.0;524.1;;;;;;;;;;;;;;;;;3.2654805;-0.057222206;17.380291;;416.4
584.0;524.1;;;;;;;;;;;;;;0.8921781;0.30646688;-0.2360912;;;;;416.4
584.0;524.1;;;;;;;;;;;;;;;;;1.6556292;-0.99185157;17.639698;;426.1
584.0;524.1;;;;;;;;;;;;;;0.8932157;0.30298775;-0.2273629;;;;;426.1
584.0;524.1;;;;;;;;;;;;;;;;;0.057222206;-1.9226661;17.818995;;426.1
584.0;524.1;;;;;;;;;;;;;;0.89724416;0.30439162;-0.22052675;;;;;426.1
648.0;524.9;;;;;;;;;;;;;;;;;-1.5068514;-2.6093326;18.112736;;435.7
648.0;524.9;;;;;;;;;;;;;;0.9046907;0.2993866;-0.21539964;;;;;435.7
648.0;524.9;;;;;;;;;;;;;;;;;-3.0823696;-3.2044435;18.4637;;435.7
648.0;524.9;;;;;;;;;;;;;;0.9129917;0.2949919;-0.21411787;;;;;435.7
648.0;524.9;;;;;;;;;;;;;;;;;-4.7456284;-3.4638507;18.97107;;445.3
648.0;524.9;;;;;;;;;;;;;;0.9253212;0.28498185;-0.21692556;;;;;445.3
648.0;524.9;;;;;;;;;;;;;;;;;-6.6492205;-3.1052582;19.669178;;445.3
648.0;524.9;;;;;;;;;;;;;;0.93093663;0.26728112;-0.2111881;;;;;445.3
648.0;524.9;;;;;;;;;;;;;;;;;-8.465072;-2.639851;20.56566;;454.9
648.0;524.9;;;;;;;;;;;;;;0.9391766;0.25202185;-0.20300913;;;;;454.9
648.0;524.9;;;;;;;;;;;;;;;;;-10.296182;-2.1858883;21.511734;;454.9
648.0;524.9;;;;;;;;;;;;;;0.94979703;0.22974335;-0.19757684;;;;;454.9
648.0;577.2;;;;;;;;;;;;;;;;;-11.844996;-1.8082217;22.450178;;464.5
648.0;577.2;;;;;;;;;;;;;;0.96212655;0.2097232;-0.1948912;;;;;464.5
648.0;577.2;;;;;;;;;;;;;;;;;-13.164922;-1.3885921;23.407698;;464.5
648.0;577.2;;;;;;;;;;;;;;0.97091585;0.19135106;-0.19293801;;;;;464.5
648.0;577.2;;;;;;;;;;;;;;;;;-14.217811;-0.88503677;24.464401;;474.1
648.0;577.2;;;;;;;;;;;;;;0.97915584;0.17072055;-0.1864681;;;;;474.1
648.0;577.2;;;;;;;;;;;;;;;;;-15.362254;-0.22507401;25.330362;;474.1
648.0;577.2;;;;;;;;;;;;;;0.9868465;0.15887935;-0.18164617;;;;;474.1
648.0;577.2;;;;;;;;;;;;;;;;;-16.479996;0.19455549;26.146732;;483.8
648.0;577.2;;;;;;;;;;;;;;0.990997;0.14557329;-0.17767876;;;;;483.8
648.0;577.2;;;;;;;;;;;;;;;;;-17.281105;0.46922207;26.844845;;483.8
648.0;577.2;;;;;;;;;;;;;;0.997528;0.13385418;-0.17712943;;;;;483.8
706.0;578.0;;;;;;;;;;;;;;;;;-17.700735;0.8926664;27.41325;;493.3
706.0;578.0;;;;;;;;;;;;;;1.0027162;0.12402722;-0.17639698;;;;;493.3
706.0;578.0;;;;;;;;;;;;;;;;;-17.82281;1.495407;27.748955;;493.3
706.0;578.0;;;;;;;;;;;;;;1.0061953;0.114627525;-0.17621388;;;;;493.3
706.0;578.0;;;;;;;;;;;;;;;;;-17.448957;2.0256662;28.027435;;503.0
706.0;578.0;;;;;;;;;;;;;;1.0111393;0.1037019;-0.17835017;;;;;503.0
706.0;578.0;;;;;;;;;;;;;;;;;-16.422773;2.3194067;28.027435;;503.0
706.0;578.0;;;;;;;;;;;;;;1.0148015;0.09607227;-0.17767876;;;;;503.0
706.0;578.0;;;;;;;;;;;;;;;;;-15.270699;2.6512957;27.756584;;512.7
706.0;578.0;;;;;;;;;;;;;;1.0187079;0.094485305;-0.18195136;;;;;512.7
706.0;578.0;;;;;;;;;;;;;;;;;-14.110995;3.2692955;27.474287;;512.7
706.0;578.0;;;;;;;;;;;;;;1.0232246;0.093935974;-0.17316203;;;;;512.7
706.0;592.3;;;;;;;;;;;;;;;;;-12.9017;3.6736658;26.909697;;522.3
706.0;592.3;;;;;;;;;;;;;;1.0241401;0.10095523;-0.16986603;;;;;522.3
706.0;592.3;;;;;;;;;;;;;;;;;-11.581775;4.1047397;26.406141;;522.3
706.0;592.3;;;;;;;;;;;;;;1.0232856;0.11499374;-0.1662038;;;;;522.3
706.0;592.3;;;;;;;;;;;;;;;;;-10.498367;4.387036;25.708029;;531.9
706.0;592.3;;;;;;;;;;;;;;1.023835;0.12292856;-0.16168706;;;;;531.9
706.0;592.3;;;;;;;;;;;;;;;;;-9.392072;3.78811;24.777214;;531.9
706.0;592.3;;;;;;;;;;;;;;1.0265206;0.13934751;-0.16608173;;;;;531.9
706.0;592.3;;;;;;;;;;;;;;;;;-8.033998;3.0213325;24.296549;;541.5
706.0;592.3;;;;;;;;;;;;;;1.0334789;0.15271463;-0.17529832;;;;;541.5
706.0;592.3;;;;;;;;;;;;;;;;;-7.3015537;2.727592;23.75103;;541.5
706.0;592.3;;;;;;;;;;;;;;1.0410475;0.16315195;-0.17731254;;;;;541.5
765.0;637.2;;;;;;;;;;;;;;;;;-6.897183;2.4681845;23.266548;;550.9
765.0;637.2;;;;;;;;;;;;;;1.0473342;0.1737724;-0.17615284;;;;;550.9
765.0;637.2;;;;;;;;;;;;;;;;;-6.912442;2.3728142;22.930845;;550.9
765.0;637.2;;;;;;;;;;;;;;1.048738;0.17859432;-0.18060854;;;;;550.9
765.0;637.2;;;;;;;;;;;;;;;;;-6.653035;2.6894438;22.804956;;560.4
765.0;637.2;;;;;;;;;;;;;;1.0458694;0.17688528;-0.1760918;;;;;560.4
765.0;637.2;;;;;;;;;;;;;;;;;-6.0197763;3.0632956;22.621845;;560.4
765.0;637.2;;;;;;;;;;;;;;1.0422682;0.1734672;-0.17358929;;;;;560.4
765.0;637.2;;;;;;;;;;;;;;;;;-5.2911468;3.5897398;22.495956;;570.1
765.0;637.2;;;;;;;;;;;;;;1.0364085;0.16876736;-0.17078158;;;;;570.1
765.0;637.2;;;;;;;;;;;;;;;;;-4.4328136;4.0513325;22.545547;;570.1
765.0;637.2;;;;;;;;;;;;;;1.030549;0.16321298;-0.16870633;;;;;570.1
765.0;697.6;;;;;;;;;;;;;;;;;-3.5515916;4.2687764;22.701956;;579.8
765.0;697.6;;;;;;;;;;;;;;1.0268258;0.15466781;-0.1666921;;;;;579.8
765.0;697.6;;;;;;;;;;;;;;;;;-2.929777;4.360332;22.915585;;579.8
765.0;697.6;;;;;;;;;;;;;;1.0270699;0.13824885;-0.1662038;;;;;579.8
765.0;697.6;;;;;;;;;;;;;;;;;-2.3804438;4.2649617;23.102512;;589.5
765.0;697.6;;;;;;;;;;;;;;1.0249946;0.12518692;-0.16699728;;;;;589.5
765.0;697.6;;;;;;;;;;;;;;;;;-1.903592;4.0513325;23.178808;;589.5
765.0;697.6;;;;;;;;;;;;;;1.0184027;0.115848266;-0.17438276;;;;;589.5
765.0;697.6;;;;;;;;;;;;;;;;;-1.2207403;3.784295;23.121586;;599.1
765.0;697.6;;;;;;;;;;;;;;1.0121158;0.10571612;-0.17578661;;;;;599.1
765.0;697.6;;;;;;;;;;;;;;;;;-0.6179998;2.8649251;23.064363;;599.1
765.0;697.6;;;;;;;;;;;;;;1.0055238;0.112735376;-0.18884854;;;;;599.1
825.0;698.8;;;;;;;;;;;;;;;;;-0.29755548;2.6360364;23.129215;;608.5
825.0;698.8;;;;;;;;;;;;;;1.0003357;0.117313154;-0.19592883;;;;;608.5
825.0;698.8;;;;;;;;;;;;;;;;;-0.31662953;2.6970735;23.121586;;608.5
825.0;698.8;;;;;;;;;;;;;;0.9940489;0.12848292;-0.20368053;;;;;608.5
825.0;698.8;;;;;;;;;;;;;;;;;-0.6218146;2.6207771;23.205511;;618.1
825.0;698.8;;;;;;;;;;;;;;0.9863582;0.14886929;-0.21320231;;;;;618.1
825.0;698.8;;;;;;;;;;;;;;;;;-1.0948515;2.7619252;23.36192;;618.1
825.0;698.8;;;;;;;;;;;;;;0.9800714;0.16168706;-0.22351757;;;;;618.1
825.0;698.8;;;;;;;;;;;;;;;;;-1.6327403;3.0175178;23.514511;;627.8
825.0;698.8;;;;;;;;;;;;;;0.969512;0.17804499;-0.22974335;;;;;627.8
825.0;698.8;;;;;;;;;;;;;;;;;-2.2965178;3.1815546;23.720512;;627.8
825.0;698.8;;;;;;;;;;;;;;0.9580981;0.19415876;-0.2327952;;;;;627.8
825.0;705.0;;;;;;;;;;;;;;;;;-3.0137029;3.3875546;23.83114;;637.5
825.0;705.0;;;;;;;;;;;;;;0.948088;0.20374157;-0.23364972;;;;;637.5
825.0;705.0;;;;;;;;;;;;;;;;;-3.5973694;3.8377025;23.754845;;637.5
825.0;705.0;;;;;;;;;;;;;;0.9376507;0.21387371;-0.23035371;;;;;637.5
825.0;705.0;;;;;;;;;;;;;;;;;-4.020814;4.0704064;23.728142;;647.0
825.0;705.0;;;;;;;;;;;;;;0.9330119;0.22400586;-0.22620319;;;;;647.0
825.0;705.0;;;;;;;;;;;;;;;;;-4.448073;3.9902954;23.667105;;647.0
825.0;705.0;;;;;;;;;;;;;;0.93417156;0.23596911;-0.22589801;;;;;647.0
825.0;705.0;;;;;;;;;;;;;;;;;-5.077517;3.78811;23.628956;;656.7
825.0;705.0;;;;;;;;;;;;;;0.94210637;0.24475844;-0.22571489;;;;;656.7
825.0;705.0;;;;;;;;;;;;;;;;;-6.050295;3.707999;23.693808;;656.7
825.0;705.0;;;;;;;;;;;;;;0.9519333;0.25074008;-0.22742394;;;;;656.7
889.0;758.0;;;;;;;;;;;;;;;;;-7.37785;3.543962;23.651846;;666.3
889.0;758.0;;;;;;;;;;;;;;0.9618213;0.260506;-0.2323069;;;;;666.3
889.0;758.0;;;;;;;;;;;;;;;;;-8.880886;3.4981842;23.628956;;666.3
889.0;758.0;;;;;;;;;;;;;;0.9721366;0.26618245;-0.23236793;;;;;666.3
889.0;758.0;;;;;;;;;;;;;;;;;-10.158849;3.3761103;23.602253;;676.0
889.0;758.0;;;;;;;;;;;;;;0.9792779;0.27069917;-0.23291726;;;;;676.0
889.0;758.0;;;;;;;;;;;;;;;;;-11.085848;3.379925;23.571733;;676.0
889.0;758.0;;;;;;;;;;;;;;0.98892176;0.28205207;-0.23242897;;;;;676.0
889.0;758.0;;;;;;;;;;;;;;;;;-12.092959;3.5897398;23.468735;;685.6
889.0;758.0;;;;;;;;;;;;;;0.99270606;0.29419842;-0.22370067;;;;;685.6
889.0;758.0;;;;;;;;;;;;;;;;;-13.237404;4.181036;23.312326;;685.6
889.0;758.0;;;;;;;;;;;;;;0.9912412;0.3018891;-0.21454512;;;;;685.6
889.0;765.4;;;;;;;;;;;;;;;;;-14.133884;4.2191844;23.190252;;695.2
889.0;765.4;;;;;;;;;;;;;;0.9887997;0.31519517;-0.20026246;;;;;695.2
889.0;765.4;;;;;;;;;;;;;;;;;-14.675589;3.8186285;23.1254;;695.2
889.0;765.4;;;;;;;;;;;;;;0.98837245;0.3259377;-0.19281594;;;;;695.2
889.0;765.4;;;;;;;;;;;;;;;;;-15.095218;3.3989992;23.167364;;704.9
889.0;765.4;;;;;;;;;;;;;;0.9906308;0.32801294;-0.18280587;;;;;704.9
889.0;765.4;;;;;;;;;;;;;;;;;-15.449995;2.5902586;22.972807;;704.9
889.0;765.4;;;;;;;;;;;;;;0.99862665;0.34272286;-0.17383343;;;;;704.9
889.0;765.4;;;;;;;;;;;;;;;;;-15.858181;1.8272958;22.766808;;714.6
889.0;765.4;;;;;;;;;;;;;;1.0013123;0.3471175;-0.17291787;;;;;714.6
889.0;765.4;;;;;;;;;;;;;;;;;-15.968811;0.8316294;22.156437;;714.6
889.0;765.4;;;;;;;;;;;;;;1.0095522;0.35767692;-0.17267373;;;;;714.6
948.0;818.6;;;;;;;;;;;;;;;;;-16.388441;-0.19455549;21.343884;;724.2
948.0;818.6;;;;;;;;;;;;;;1.0108341;0.37073886;-0.18134098;;;;;724.2
948.0;818.6;;;;;;;;;;;;;;;;;-17.384106;-0.7324442;20.3444;;724.2
948.0;818.6;;;;;;;;;;;;;;1.0044252;0.38441116;-0.18799402;;;;;724.2
948.0;818.6;;;;;;;;;;;;;;;;;-18.55144;-0.62944424;19.215218;;733.8
948.0;818.6;;;;;;;;;;;;;;0.99166846;0.3960082;-0.19483016;;;;;733.8
948.0;818.6;;;;;;;;;;;;;;;;;-19.440292;0.022888882;18.341625;;733.8
948.0;818.6;;;;;;;;;;;;;;0.9742729;0.40894803;-0.19312114;;;;;733.8
948.0;818.6;;;;;;;;;;;;;;;;;-20.302439;0.6714072;17.464216;;743.4
948.0;818.6;;;;;;;;;;;;;;0.9668264;0.42066714;-0.19696645;;;;;743.4
948.0;818.6;;;;;;;;;;;;;;;;;-21.496475;1.2245551;16.739403;;743.4
948.0;818.6;;;;;;;;;;;;;;0.9665212;0.43256935;-0.1947081;;;;;743.4
948.0;825.7;;;;;;;;;;;;;;;;;-22.91177;1.0414442;16.125217;;753.1
948.0;825.7;;;;;;;;;;;;;;0.96926785;0.44117558;-0.19403668;;;;;753.1
948.0;825.7;;;;;;;;;;;;;;;;;-25.0824;0.110629596;15.503403;;753.1
948.0;825.7;;;;;;;;;;;;;;0.97775203;0.4441664;-0.19898069;;;;;753.1
948.0;825.7;;;;;;;;;;;;;;;;;-27.53151;-0.40055543;15.160069;;762.7
948.0;825.7;;;;;;;;;;;;;;0.9816584;0.44312876;-0.19971313;;;;;762.7
948.0;825.7;;;;;;;;;;;;;;;;;-29.839474;-0.0076296274;14.912107;;762.7
948.0;825.7;;;;;;;;;;;;;;0.98263496;0.44428846;-0.18140203;;;;;762.7
948.0;825.7;;;;;;;;;;;;;;;;;-32.486954;-0.068666644;14.2941065;;772.2
948.0;825.7;;;;;;;;;;;;;;0.98556477;0.4420301;-0.17334513;;;;;772.2
948.0;825.7;;;;;;;;;;;;;;;;;-35.157322;-0.29755548;13.401441;;772.2
948.0;825.7;;;;;;;;;;;;;;0.99777216;0.43910033;-0.16364025;;;;;772.2
1005.0;878.5;;;;;;;;;;;;;;;;;-38.083286;-1.2932218;11.959441;;781.8
1005.0;878.5;;;;;;;;;;;;;;1.0204779;0.44752342;-0.16980499;;;;;781.8
1005.0;878.5;;;;;;;;;;;;;;;;;-41.3831;-2.578814;9.876553;;781.8
1005.0;878.5;;;;;;;;;;;;;;1.0449538;0.4430067;-0.18677329;;;;;781.8
1005.0;878.5;;;;;;;;;;;;;;;;;-44.21369;-3.3875546;7.442702;;791.5
1005.0;878.5;;;;;;;;;;;;;;1.0631428;0.4389172;-0.20502335;;;;;791.5
1005.0;878.5;;;;;;;;;;;;;;;;;-47.078617;-4.7036653;4.3679614;;791.5
1005.0;878.5;;;;;;;;;;;;;;1.0917691;0.44215217;-0.242378;;;;;791.5
1005.0;878.5;;;;;;;;;;;;;;;;;-48.04758;-4.8295546;0.7286294;;801.0
1005.0;878.5;;;;;;;;;;;;;;1.1098971;0.44367808;-0.2636189;;;;;801.0
1005.0;878.5;;;;;;;;;;;;;;;;;-47.34184;-5.630665;-3.4447768;;801.0
1005.0;878.5;;;;;;;;;;;;;;1.1391339;0.43372905;-0.2990814;;;;;801.0
1005.0;893.5;;;;;;;;;;;;;;;;;-45.785393;-6.344035;-8.121738;;810.6
1005.0;893.5;;;;;;;;;;;;;;1.1751457;0.44477674;-0.33814508;;;;;810.6
1005.0;893.5;;;;;;;;;;;;;;;;;-43.366802;-6.248665;-13.096255;;810.6
1005.0;893.5;;;;;;;;;;;;;;1.2132939;0.46113467;-0.3668325;;;;;810.6
1005.0;893.5;;;;;;;;;;;;;;;;;-40.601063;-5.3216653;-18.589588;;820.1
1005.0;893.5;;;;;;;;;;;;;;1.236488;0.47511217;-0.3933836;;;;;820.1
1005.0;893.5;;;;;;;;;;;;;;;;;-38.239693;-3.711814;-24.605549;;820.1
1005.0;893.5;;;;;;;;;;;;;;1.236488;0.4816431;-0.412183;;;;;820.1
1005.0;893.5;;;;;;;;;;;;;;;;;-36.530655;-1.4915922;-30.560472;;829.8
1005.0;893.5;;;;;;;;;;;;;;1.1982788;0.4862209;-0.42280343;;;;;829.8
1005.0;893.5;;;;;;;;;;;;;;;;;-35.328987;1.7281106;-36.515396;;829.8
1005.0;893.5;;;;;;;;;;;;;;1.12302;0.49238563;-0.41163367;;;;;829.8
1123.0;946.3;;;;;;;;;;;;;;;;;-33.749657;4.333628;-42.962433;;839.4
1123.0;946.3;;;;;;;;;;;;;;1.0393994;0.50215155;-0.38355663;;;;;839.4
1123.0;946.3;;;;;;;;;;;;;;;;;-31.422619;6.0121465;-50.351723;;839.4
1123.0;946.3;;;;;;;;;;;;;;0.95919675;0.5200964;-0.3394879;;;;;839.4
1123.0;946.3;;;;;;;;;;;;;;;;;-28.923918;7.4198127;-59.18302;;849.0
1123.0;946.3;;;;;;;;;;;;;;0.8816187;0.5366985;-0.2846156;;;;;849.0
1123.0;946.3;;;;;;;;;;;;;;;;;-26.314585;9.605701;-69.341866;;849.0
1123.0;946.3;;;;;;;;;;;;;;0.80471206;0.55342263;-0.21735282;;;;;849.0
1123.0;946.3;;;;;;;;;;;;;;;;;-24.056215;12.913144;-81.0686;;858.7
1123.0;946.3;;;;;;;;;;;;;;0.74074525;0.57795954;-0.14984588;;;;;858.7
1123.0;946.3;;;;;;;;;;;;;;;;;-21.782587;16.842403;-93.61171;;858.7
1123.0;946.3;;;;;;;;;;;;;;0.6841639;0.60701317;-0.08948027;;;;;858.7
1123.0;947.5;;;;;;;;;;;;;;;;;-21.271402;22.320475;-106.74612;;868.2
1123.0;947.5;;;;;;;;;;;;;;0.6686605;0.62227243;-0.007812738;;;;;868.2
1123.0;947.5;;;;;;;;;;;;;;;;;-22.209845;29.91577;-119.136635;;868.2
1123.0;947.5;;;;;;;;;;;;;;0.72127444;0.63270974;0.08807642;;;;;868.2
1123.0;947.5;;;;;;;;;;;;;;;;;-24.48729;37.057102;-124.80926;;877.8
1123.0;947.5;;;;;;;;;;;;;;0.83455914;0.6549882;0.11346782;;;;;877.8
1123.0;947.5;;;;;;;;;;;;;;;;;-29.251991;38.384655;-124.988556;;877.8
1123.0;947.5;;;;;;;;;;;;;;0.98818934;0.6720176;0.04510636;;;;;877.8
1123.0;947.5;;;;;;;;;;;;;;;;;-37.17536;34.432507;-124.988556;;887.5
1123.0;947.5;;;;;;;;;;;;;;1.1268044;0.67281103;-0.052797023;;;;;887.5
1123.0;947.5;;;;;;;;;;;;;;;;;-46.174503;24.601734;-124.988556;;887.5
1123.0;947.5;;;;;;;;;;;;;;1.2586443;0.62825406;-0.13702811;;;;;887.5
1127.0;1015.3;;;;;;;;;;;;;;;;;-54.124577;12.241737;-124.988556;;897.1
1127.0;1015.3;;;;;;;;;;;;;;1.4009217;0.5652638;-0.22083193;;;;;897.1
1127.0;1015.3;;;;;;;;;;;;;;;;;-61.162907;6.2791834;-124.988556;;897.1
1127.0;1015.3;;;;;;;;;;;;;;1.4868008;0.5164952;-0.25513473;;;;;897.1
1127.0;1015.3;;;;;;;;;;;;;;;;;-65.93524;3.379925;-124.988556;;906.7
1127.0;1015.3;;;;;;;;;;;;;;1.5124363;0.4865871;-0.2569048;;;;;906.7
1127.0;1015.3;;;;;;;;;;;;;;;;;-65.05783;-5.0012207;-124.988556;;906.7
1127.0;1015.3;;;;;;;;;;;;;;1.5480819;0.4574114;-0.2582476;;;;;906.7
1127.0;1015.3;;;;;;;;;;;;;;;;;-59.3585;-18.715477;-124.988556;;916.1
1127.0;1015.3;;;;;;;;;;;;;;1.6171148;0.42872402;-0.31580552;;;;;916.1
1127.0;1015.3;;;;;;;;;;;;;;;;;-48.46721;-29.766993;-124.988556;;916.1
1127.0;1015.3;;;;;;;;;;;;;;1.68511;0.42530596;-0.390759;;;;;916.1
1127.0;1059.7;;;;;;;;;;;;;;;;;-38.438065;-36.244545;-124.988556;;925.7
1127.0;1059.7;;;;;;;;;;;;;;1.7389446;0.41407514;-0.5043489;;;;;925.7
1127.0;1059.7;;;;;;;;;;;;;;;;;-25.688955;-36.103397;-124.988556;;925.7
1127.0;1059.7;;;;;;;;;;;;;;1.7822199;0.40803248;-0.5789361;;;;;925.7
1127.0;1059.7;;;;;;;;;;;;;;;;;-11.890775;-32.06351;-124.988556;;935.4
1127.0;1059.7;;;;;;;;;;;;;;1.7950988;0.36469617;-0.60621965;;;;;935.4
1127.0;1059.7;;;;;;;;;;;;;;;;;-2.2202215;-26.406141;-124.988556;;935.4
1127.0;1059.7;;;;;;;;;;;;;;1.7843562;0.3227027;-0.58107245;;;;;935.4
1127.0;1059.7;;;;;;;;;;;;;;;;;-0.06103702;-20.687735;-124.988556;;945.0
1127.0;1059.7;;;;;;;;;;;;;;1.7473677;0.23535874;-0.5354167;;;;;945.0
1127.0;1059.7;;;;;;;;;;;;;;;;;1.4725181;-16.605885;-124.988556;;945.0
1127.0;1059.7;;;;;;;;;;;;;;1.6953032;0.12475967;-0.4977569;;;;;945.0
1185.0;1060.4;;;;;;;;;;;;;;;;;5.9701834;-12.813959;-124.988556;;954.7
1185.0;1060.4;;;;;;;;;;;;;;1.6479385;0.05322428;-0.47114474;;;;;954.7
1185.0;1060.4;;;;;;;;;;;;;;;;;11.928923;-7.8470716;-124.988556;;954.7
1185.0;1060.4;;;;;;;;;;;;;;1.6100955;0.09656057;-0.4135258;;;;;954.7
1185.0;1060.4;;;;;;;;;;;;;;;;;13.237404;-0.25940734;-124.988556;;964.4
1185.0;1060.4;;;;;;;;;;;;;;1.5636463;0.118533894;-0.36634418;;;;;964.4
1185.0;1060.4;;;;;;;;;;;;;;;;;17.441328;11.810663;-124.988556;;964.4
1185.0;1060.4;;;;;;;;;;;;;;1.5125583;0.13330485;-0.26972258;;;;;964.4
1185.0;1060.4;;;;;;;;;;;;;;;;;23.899809;20.310068;-124.988556;;974.0
1185.0;1060.4;;;;;;;;;;;;;;1.4778283;0.16199225;-0.19013031;;;;;974.0
1185.0;1060.4;;;;;;;;;;;;;;;;;29.744102;23.598438;-124.988556;;974.0
1185.0;1060.4;;;;;;;;;;;;;;1.4535356;0.22510453;-0.12878811;;;;;974.0
1185.0;1061.6;;;;;;;;;;;;;;;;;32.013916;22.915585;-124.988556;;983.5
1185.0;1061.6;;;;;;;;;;;;;;1.4174017;0.28199103;-0.097170934;;;;;983.5
1185.0;1061.6;;;;;;;;;;;;;;;;;32.223732;21.023438;-124.988556;;983.5
1185.0;1061.6;;;;;;;;;;;;;;1.3773004;0.35572374;-0.08386487;;;;;983.5
1185.0;1061.6;;;;;;;;;;;;;;;;;30.575731;17.456587;-124.988556;;993.2
1185.0;1061.6;;;;;;;;;;;;;;1.3486739;0.4511246;-0.073549606;;;;;993.2
1185.0;1061.6;;;;;;;;;;;;;;;;;26.749474;12.352367;-124.988556;;993.2
1185.0;1061.6;;;;;;;;;;;;;;1.3097323;0.57094026;-0.055238504;;;;;993.2
1185.0;1061.6;;;;;;;;;;;;;;;;;18.803217;4.566332;-124.988556;;1002.9
1185.0;1061.6;;;;;;;;;;;;;;1.2605366;0.6632283;-0.038270213;;;;;1002.9
1185.0;1061.6;;;;;;;;;;;;;;;;;8.983886;-6.241035;-124.988556;;1002.9
1185.0;1061.6;;;;;;;;;;;;;;1.2198248;0.7218238;-0.046632282;;;;;1002.9
1187.0;1120.5;;;;;;;;;;;;;;;;;-1.5068514;-21.458328;-124.988556;;1012.5
1187.0;1120.5;;;;;;;;;;;;;;1.107944;0.7185888;-0.057924133;;;;;1012.5
1187.0;1120.5;;;;;;;;;;;;;;;;;-13.855403;-40.524765;-124.988556;;1012.5
1187.0;1120.5;;;;;;;;;;;;;;1.1581774;0.8631855;-0.19812617;;;;;1012.5
1187.0;1120.5;;;;;;;;;;;;;;;;;-22.114475;-47.021393;-124.988556;;1022.0
1187.0;1120.5;;;;;;;;;;;;;;1.1368145;0.9255043;-0.25080112;;;;;1022.0
1187.0;1120.5;;;;;;;;;;;;;;;;;-36.309395;-47.982727;-124.988556;;1022.0
1187.0;1120.5;;;;;;;;;;;;;;1.0958587;0.9059725;-0.29108554;;;;;1022.0
1187.0;1120.5;;;;;;;;;;;;;;;;;-49.40947;-50.90106;-124.988556;;1031.7
1187.0;1120.5;;;;;;;;;;;;;;1.0053407;0.8744774;-0.30036318;;;;;1031.7
1187.0;1120.5;;;;;;;;;;;;;;;;;-60.075684;-56.40965;-124.988556;;1031.7
1187.0;1120.5;;;;;;;;;;;;;;0.94485307;0.89748836;-0.32581562;;;;;1031.7
1188.0;1121.3;;;;;;;;;;;;;;;;;-68.42249;-59.465317;-124.988556;;1041.3
1188.0;1121.3;;;;;;;;;;;;;;0.9798273;0.9146397;-0.36823633;;;;;1041.3
1188.0;1121.3;;;;;;;;;;;;;;;;;-73.1605;-53.662987;-124.988556;;1041.3
1188.0;1121.3;;;;;;;;;;;;;;0.99148536;0.8942534;-0.3491928;;;;;1041.3
1188.0;1121.3;;;;;;;;;;;;;;;;;-77.429276;-44.717243;-124.988556;;1050.8
1188.0;1121.3;;;;;;;;;;;;;;1.0052186;0.83669543;-0.2964568;;;;;1050.8
1188.0;1121.3;;;;;;;;;;;;;;;;;-79.874565;-36.58788;-124.988556;;1050.8
1188.0;1121.3;;;;;;;;;;;;;;0.997528;0.7714469;-0.24573503;;;;;1050.8
1188.0;1121.3;;;;;;;;;;;;;;;;;-81.03046;-28.572954;-124.988556;;1060.4
1188.0;1121.3;;;;;;;;;;;;;;0.9490036;0.661153;-0.20325327;;;;;1060.4
1188.0;1121.3;;;;;;;;;;;;;;;;;-83.26212;-23.915068;-124.988556;;1060.4
1188.0;1121.3;;;;;;;;;;;;;;0.8988311;0.55568105;-0.14746544;;;;;1060.4
1188.0;1128.9;;;;0.0;0.0;0.0;;;;;;;;;;;;;;;
1188.0;1128.9;;;;-0.22211078;0.14917757;0.072853096;;;;;;;;;;;;;;;
1188.0;1128.9;;;;-0.6491738;0.39341742;0.1165085;;;;;;;;;;;;;;;
1188.0;1128.9;;;;-0.662983;0.3880425;0.10452272;;;;;;;;;;;;;;;
1188.0;1128.9;;;;-0.66411215;0.3785134;0.10245134;;;;;;;;;;;;;;;
1188.0;1138.9;;;;-0.66444784;0.36892703;0.0993004;;;;;;;;;;;;;;;
1188.0;1138.9;;;;-0.665474;0.36019138;0.09671785;;;;;;;;;;;;;;;
1188.0;1138.9;;;;-0.6676217;0.35190204;0.09343339;;;;;;;;;;;;;;;
1188.0;1138.9;;;;-0.66932684;0.34225467;0.090686806;;;;;;;;;;;;;;;
1188.0;1138.9;;;;-0.66945654;0.3336945;0.08914948;;;;;;;;;;;;;;;
1245.0;1141.2;57465;57455;13425;;;;;;;;;;;;;;;;;;
1245.0;1148.8;;;;-0.66969305;0.32482913;0.08793641;;;;;;;;;;;;;;;
1245.0;1148.8;;;;-0.6702805;0.31536868;0.0857544;;;;;;;;;;;;;;;
1245.0;1148.8;;;;-0.6717835;0.30641177;0.083328255;;;;;;;;;;;;;;;
1245.0;1148.8;;;;-0.67127615;0.29796222;0.081542976;;;;;;;;;;;;;;;
1245.0;1148.8;;;;-0.6716805;0.28836825;0.07995988;;;;;;;;;;;;;;;
1245.0;1158.8;;;;-0.6723748;0.27941898;0.07965089;;;;;;;;;;;;;;;
1245.0;1158.8;;;;-0.6731835;0.27048877;0.078861244;;;;;;;;;;;;;;;
1245.0;1158.8;;;;-0.677414;0.26204684;0.078910835;;;;;;;;;;;;;;;
1245.0;1158.8;;;;-0.68173224;0.2532921;0.07847596;;;;;;;;;;;;;;;
1245.0;1158.8;;;;-0.68697363;0.24562839;0.07881547;;;;;;;;;;;;;;;
1245.0;1161.2;73932;73825;13419;;;;;;;;;;;;;;;;;;
1245.0;1167.5;;;;;;;;;;;;;0;;;;;;;;
1245.0;1167.5;;;;;;;;;;;;;0;;;;;;;;
1245.0;1167.5;;;;;;;;;;;;;-1;;;;;;;;
1245.0;1167.5;;;;;;;;;;;;;-2;;;;;;;;
1245.0;1167.5;;;;;;;;;;;;;-3;;;;;;;;
1245.0;1168.9;;;;-0.69401556;0.23799899;0.07863618;;;;;;;;;;;;;;;
1245.0;1168.9;;;;-0.70091635;0.23090366;0.07816697;;;;;;;;;;;;;;;
1245.0;1168.9;;;;-0.70678335;0.22267917;0.07831193;;;;;;;;;;;;;;;
1245.0;1168.9;;;;-0.7119294;0.21620944;0.079227455;;;;;;;;;;;;;;;
1245.0;1168.9;;;;-0.7168351;0.21104816;0.079162605;;;;;;;;;;;;;;;
1246.0;1179.0;;;;-0.7238007;0.20465091;0.07823563;;;;;;;;;;;;;;;
1246.0;1179.0;;;;-0.7305985;0.19890979;0.076961525;;;;;;;;;;;;;;;
1246.0;1179.0;;;;-0.7375718;0.19363025;0.07510377;;;;;;;;;;;;;;;
1246.0;1179.0;;;;-0.7451325;0.18656923;0.07416917;;;;;;;;;;;;;;;
1246.0;1179.0;;;;-0.7523118;0.17892458;0.07295609;;;;;;;;;;;;;;;
1246.0;1180.3;;;;;;;;;;;;;;;;;-85.16572;-24.433882;-124.988556;;1070.1
1246.0;1180.3;;;;;;;;;;;;;;0.85024565;0.46522415;-0.119083226;;;;;1070.1
1246.0;1180.3;;;;;;;;;;;;;;;;;-87.397385;-26.173437;-124.988556;;1070.1
1246.0;1180.3;;;;;;;;;;;;;;0.80666524;0.39271218;-0.080141604;;;;;1070.1
1246.0;1180.3;;;;;;;;;;;;;;;;;-90.83834;-31.895657;-124.988556;;1079.7
1246.0;1180.3;;;;;;;;;;;;;;0.7763909;0.3299051;-0.07647938;;;;;1079.7
1246.0;1180.3;;;;;;;;;;;;;;;;;-94.36705;-35.86688;-124.923706;;1079.7
1246.0;1180.3;;;;;;;;;;;;;;0.7637562;0.2921842;-0.07892086;;;;;1079.7
1246.0;1180.3;;;;;;;;;;;;;;;;;-97.52571;-37.450027;-123.760185;;1089.3
1246.0;1180.3;;;;;;;;;;;;;;0.7622303;0.2725303;-0.07330546;;;;;1089.3
1246.0;1180.3;;;;;;;;;;;;;;;;;-99.34919;-37.07236;-120.57863;;1089.3
1246.0;1180.3;;;;;;;;;;;;;;0.7323832;0.23895992;-0.07391583;;;;;1089.3
1247.0;1181.1;;;;;;;;;;;;;;;;;-98.28868;-36.35899;-116.84775;;1098.9
1247.0;1181.1;;;;;;;;;;;;;;0.7180395;0.22461623;-0.06445509;;;;;1098.9
1247.0;1181.1;;;;;;;;;;;;;;;;;-96.114235;-35.78295;-112.056335;;1098.9
1247.0;1181.1;;;;;;;;;;;;;;0.71199685;0.20856349;-0.077333905;;;;;1098.9
1247.0;1181.1;;;;;;;;;;;;;;;;;-94.15342;-34.752953;-107.42134;;1108.6
1247.0;1181.1;;;;;;;;;;;;;;0.6949065;0.18561357;-0.096926786;;;;;1108.6
1247.0;1181.1;;;;;;;;;;;;;;;;;-94.199196;-33.783993;-103.4196;;1108.6
1247.0;1181.1;;;;;;;;;;;;;;0.64967805;0.19782098;-0.10803553;;;;;1108.6
1247.0;1181.1;;;;;;;;;;;;;;;;;-95.572525;-34.661396;-99.17752;;1118.2
1247.0;1181.1;;;;;;;;;;;;;;0.6184271;0.19721061;-0.10132145;;;;;1118.2
1247.0;1181.1;;;;;;;;;;;;;;;;;-96.800896;-38.140507;-93.470566;;1118.2
1247.0;1181.1;;;;;;;;;;;;;;0.5894345;0.17902158;-0.101931825;;;;;1118.2
1247.0;1181.3;90228;90192;13412;;;;;;;;;;;;;;;;;;
1247.0;1189.0;;;;-0.759781;0.17272188;0.071350105;;;;;;;;;;;;;;;
1247.0;1189.0;;;;-0.76687634;0.16547014;0.06921006;;;;;;;;;;;;;;;
1247.0;1189.0;;;;-0.77048504;0.15792085;0.06747819;;;;;;;;;;;;;;;
1247.0;1189.0;;;;-0.7754632;0.15028001;0.06442643;;;;;;;;;;;;;;;
1247.0;1189.0;;;;-0.7802125;0.14248277;0.06126023;;;;;;;;;;;;;;;
1247.0;1199.0;;;;-0.7831918;0.13410188;0.058906563;;;;;;;;;;;;;;;
1247.0;1199.0;;;;-0.78491604;0.12539293;0.055755623;;;;;;;;;;;;;;;
1247.0;1199.0;;;;-0.7852975;0.11753465;0.053745277;;;;;;;;;;;;;;;
1247.0;1199.0;;;;-0.78623974;0.10877611;0.051754005;;;;;;;;;;;;;;;
1247.0;1199.0;;;;-0.785473;0.10029985;0.050388344;;;;;;;;;;;;;;;
1304.0;1201.5;106637;106605;13414;;;;;;;;;;;;;;;;;;
1304.0;1207.7;;;;;;;;;;;;;-6;;;;;;;;
1304.0;1207.7;;;;;;;;;;;;;-6;;;;;;;;
1304.0;1207.7;;;;;;;;;;;;;-10;;;;;;;;
1304.0;1207.7;;;;;;;;;;;;;-13;;;;;;;;
1304.0;1207.7;;;;;;;;;;;;;-12;;;;;;;;
1304.0;1208.9;;;;-0.78541577;0.09123994;0.04893113;;;;;;;;;;;;;;;
1304.0;1208.9;;;;-0.7866937;0.082016;0.047424324;;;;;;;;;;;;;;;
1304.0;1208.9;;;;-0.788231;0.07307435;0.04679108;;;;;;;;;;;;;;;
1304.0;1208.9;;;;-0.79096234;0.06357575;0.046340946;;;;;;;;;;;;;;;
1304.0;1208.9;;;;-0.7911378;0.054176338;0.046558384;;;;;;;;;;;;;;;
1304.0;1218.9;;;;-0.791752;0.044399265;0.046390537;;;;;;;;;;;;;;;
1304.0;1218.9;;;;-0.79421246;0.035484318;0.04667664;;;;;;;;;;;;;;;
1304.0;1218.9;;;;-0.8003732;0.027374271;0.048423775;;;;;;;;;;;;;;;
1304.0;1218.9;;;;-0.8063394;0.018615725;0.049594887;;;;;;;;;;;;;;;
1304.0;1218.9;;;;-0.81014264;0.009769441;0.052551277;;;;;;;;;;;;;;;
1304.0;1221.5;122983;122972;13412;;;;;;;;;;;;;;;;;;
1304.0;1229.0;;;;-0.81510556;0.002624512;0.05429078;;;;;;;;;;;;;;;
1304.0;1229.0;;;;-0.81946194;-0.0034561162;0.055576332;;;;;;;;;;;;;;;
1304.0;1229.0;;;;-0.82405865;-0.0109558115;0.057975776;;;;;;;;;;;;;;;
1304.0;1229.0;;;;-0.8293916;-0.015983583;0.06046296;;;;;;;;;;;;;;;
1304.0;1229.0;;;;-0.8354455;-0.021369936;0.06320954;;;;;;;;;;;;;;;
1306.0;1239.2;;;;-0.83942425;-0.028697971;0.0665207;;;;;;;;;;;;;;;
1306.0;1239.2;;;;-0.84411633;-0.03424454;0.07094193;;;;;;;;;;;;;;;
1306.0;1239.2;;;;-0.8544122;-0.03912354;0.07290269;;;;;;;;;;;;;;;
1306.0;1239.2;;;;-0.8655473;-0.041912083;0.07497788;;;;;;;;;;;;;;;
1306.0;1239.2;;;;-0.87092984;-0.045520786;0.079967506;;;;;;;;;;;;;;;
1306.0;1240.9;;;;;;;;;;;;;;;;;-97.994934;-41.657764;-87.912384;;1127.9
1306.0;1240.9;;;;;;;;;;;;;;0.565508;0.1734672;-0.100833155;;;;;1127.9
1306.0;1240.9;;;;;;;;;;;;;;;;;-100.05875;-43.404953;-82.02612;;1127.9
1306.0;1240.9;;;;;;;;;;;;;;0.53871274;0.17285684;-0.084353164;;;;;1127.9
1306.0;1240.9;;;;;;;;;;;;;;;;;-100.99338;-45.04532;-75.81561;;1137.4
1306.0;1240.9;;;;;;;;;;;;;;0.529313;0.16742454;-0.06494339;;;;;1137.4
1306.0;1240.9;;;;;;;;;;;;;;;;;-101.05441;-45.89221;-69.97131;;1137.4
1306.0;1240.9;;;;;;;;;;;;;;0.5150914;0.1568041;-0.07715079;;;;;1137.4
1306.0;1240.9;;;;;;;;;;;;;;;;;-100.11215;-43.542286;-64.22239;;1147.0
1306.0;1240.9;;;;;;;;;;;;;;0.4931791;0.14203314;-0.08117924;;;;;1147.0
1306.0;1240.9;;;;;;;;;;;;;;;;;-97.987305;-39.601578;-58.709984;;1147.0
1306.0;1240.9;;;;;;;;;;;;;;0.46229437;0.11688589;-0.08600116;;;;;1147.0
1308.0;1241.8;;;;;;;;;;;;;;;;;-94.050415;-35.97751;-52.777946;;1156.7
1308.0;1241.8;;;;;;;;;;;;;;0.4407483;0.08587909;-0.100405894;;;;;1156.7
1308.0;1241.8;;;;;;;;;;;;;;;;;-88.70586;-33.43303;-47.31132;;1156.7
1308.0;1241.8;;;;;;;;;;;;;;0.41010773;0.05981628;-0.12439345;;;;;1156.7
1308.0;1241.8;;;;;;;;;;;;;;;;;-82.003235;-32.57088;-41.837063;;1166.4
1308.0;1241.8;;;;;;;;;;;;;;0.39228493;0.038941618;-0.14728233;;;;;1166.4
1308.0;1241.8;;;;;;;;;;;;;;;;;-73.55342;-34.146397;-34.95895;;1166.4
1308.0;1241.8;;;;;;;;;;;;;;0.37226477;-2.4414808E-4;-0.19629505;;;;;1166.4
1308.0;1241.8;;;;;;;;;;;;;;;;;-63.87906;-34.638508;-28.56914;;1175.9
1308.0;1241.8;;;;;;;;;;;;;;0.3465682;-0.029541917;-0.23456526;;;;;1175.9
1308.0;1241.8;;;;;;;;;;;;;;;;;-54.082615;-34.295174;-22.057253;;1175.9
1308.0;1241.8;;;;;;;;;;;;;;0.32770777;-0.034669027;-0.23834956;;;;;1175.9
1308.0;1241.6;139386;139423;13400;;;;;;;;;;;;;;;;;;
1308.0;1247.9;;;;;;;;;;;;;-20;;;;;;;;
1308.0;1247.9;;;;;;;;;;;;;-15;;;;;;;;
1308.0;1247.9;;;;;;;;;;;;;-15;;;;;;;;
1308.0;1247.9;;;;;;;;;;;;;-50;;;;;;;;
1308.0;1247.9;;;;;;;;;;;;;14;;;;;;;;
1308.0;1249.1;;;;-0.8796083;-0.049705513;0.08212281;;;;;;;;;;;;;;;
1308.0;1249.1;;;;-0.8834878;-0.05471421;0.08613969;;;;;;;;;;;;;;;
1308.0;1249.1;;;;-0.8892251;-0.057903297;0.08940125;;;;;;;;;;;;;;;
1308.0;1249.1;;;;-0.89735043;-0.062141426;0.09003449;;;;;;;;;;;;;;;
1308.0;1249.1;;;;-0.9052659;-0.066638954;0.09189988;;;;;;;;;;;;;;;
1364.0;1259.1;;;;-0.91103756;-0.071365364;0.09335328;;;;;;;;;;;;;;;
1364.0;1259.1;;;;-0.91617215;-0.07662583;0.0943947;;;;;;;;;;;;;;;
1364.0;1259.1;;;;-0.9212457;-0.082744606;0.09428789;;;;;;;;;;;;;;;
1364.0;1259.1;;;;-0.9255563;-0.08693314;0.09519197;;;;;;;;;;;;;;;
1364.0;1259.1;;;;-0.93008053;-0.0922165;0.09537889;;;;;;;;;;;;;;;
1364.0;1261.7;155815;155806;13417;;;;;;;;;;;;;;;;;;
1364.0;1269.2;;;;-0.9341699;-0.09821321;0.096584335;;;;;;;;;;;;;;;
1364.0;1269.2;;;;-0.93862927;-0.1037903;0.09737398;;;;;;;;;;;;;;;
1364.0;1269.2;;;;-0.9438516;-0.10892488;0.09729387;;;;;;;;;;;;;;;
1364.0;1269.2;;;;-0.9474603;-0.11433031;0.09759523;;;;;;;;;;;;;;;
1364.0;1269.2;;;;-0.95093167;-0.11884309;0.09786607;;;;;;;;;;;;;;;
1364.0;1279.2;;;;-0.954445;-0.12295534;0.097518936;;;;;;;;;;;;;;;
1364.0;1279.2;;;;-0.95964825;-0.12640382;0.09807207;;;;;;;;;;;;;;;
1364.0;1279.2;;;;-0.9639932;-0.12908556;0.09762575;;;;;;;;;;;;;;;
1364.0;1279.2;;;;-0.96585476;-0.13095476;0.096649185;;;;;;;;;;;;;;;
1364.0;1279.2;;;;-0.9688417;-0.1342354;0.09540941;;;;;;;;;;;;;;;
1364.0;1281.9;172225;172153;13425;;;;;;;;;;;;;;;;;;
1364.0;1288.2;;;;;;;;;;;;;44;;;;;;;;
1364.0;1288.2;;;;;;;;;;;;;-136;;;;;;;;
1364.0;1288.2;;;;;;;;;;;;;-162;;;;;;;;
1364.0;1288.2;;;;;;;;;;;;;234;;;;;;;;
1364.0;1288.2;;;;;;;;;;;;;870;;;;;;;;
1366.0;1289.3;;;;-0.970894;-0.1380005;0.09373475;;;;;;;;;;;;;;;
1366.0;1289.3;;;;-0.9719926;-0.14055254;0.09223939;;;;;;;;;;;;;;;
1366.0;1289.3;;;;-0.97237027;-0.14318468;0.09048463;;;;;;;;;;;;;;;
1366.0;1289.3;;;;-0.97524655;-0.14627458;0.08833314;;;;;;;;;;;;;;;
1366.0;1289.3;;;;-0.9768907;-0.1498604;0.08739472;;;;;;;;;;;;;;;
1366.0;1299.4;;;;-0.97911084;-0.1513405;0.08710862;;;;;;;;;;;;;;;
1366.0;1299.4;;;;-0.983204;-0.15358736;0.087055214;;;;;;;;;;;;;;;
1366.0;1299.4;;;;-0.98775876;-0.1559334;0.08711625;;;;;;;;;;;;;;;
1366.0;1299.4;;;;-0.9923898;-0.1580353;0.08732224;;;;;;;;;;;;;;;
1366.0;1299.4;;;;-0.99629605;-0.16012956;0.08698655;;;;;;;;;;;;;;;
1366.0;1300.8;;;;;;;;;;;;;;;;;-45.08728;-36.42384;-13.91644;;1185.5
1366.0;1300.8;;;;;;;;;;;;;;0.331431;-0.048280284;-0.24463637;;;;;1185.5
1366.0;1300.8;;;;;;;;;;;;;;;;;-37.488174;-37.72088;-5.7832575;;1185.5
1366.0;1300.8;;;;;;;;;;;;;;0.3382061;-0.06292917;-0.23633534;;;;;1185.5
1366.0;1300.8;;;;;;;;;;;;;;;;;-32.12836;-36.515396;2.6169622;;1195.2
1366.0;1300.8;;;;;;;;;;;;;;0.3444319;-0.07324442;-0.23120824;;;;;1195.2
1366.0;1300.8;;;;;;;;;;;;;;;;;-27.378918;-34.56221;11.98233;;1195.2
1366.0;1300.8;;;;;;;;;;;;;;0.36353648;-0.065187536;-0.21326335;;;;;1195.2
1366.0;1300.8;;;;;;;;;;;;;;;;;-22.12592;-33.909878;21.752068;;1204.8
1366.0;1300.8;;;;;;;;;;;;;;0.3871578;-0.06549272;-0.19605091;;;;;1204.8
1366.0;1300.8;;;;;;;;;;;;;;;;;-16.144293;-33.60851;30.957212;;1204.8
1366.0;1300.8;;;;;;;;;;;;;;0.40730003;-0.04773095;-0.18726158;;;;;1204.8
1367.0;1301.7;;;;;;;;;;;;;;;;;-9.678183;-32.64336;40.276802;;1214.2
1367.0;1301.7;;;;;;;;;;;;;;0.41865292;-0.030823695;-0.17621388;;;;;1214.2
1367.0;1301.7;;;;;;;;;;;;;;;;;-3.4752953;-30.869473;49.272137;;1214.2
1367.0;1301.7;;;;;;;;;;;;;;0.41853085;-0.021423994;-0.15973388;;;;;1214.2
1367.0;1301.7;;;;;;;;;;;;;;;;;3.0251474;-29.70214;56.981873;;1223.9
1367.0;1301.7;;;;;;;;;;;;;;0.41230506;0.02435377;-0.15442365;;;;;1223.9
1367.0;1301.7;;;;;;;;;;;;;;;;;9.4569235;-28.03888;64.210945;;1223.9
1367.0;1301.7;;;;;;;;;;;;;;0.40290537;0.08209479;-0.1617481;;;;;1223.9
1367.0;1301.7;;;;;;;;;;;;;;;;;15.324106;-25.887325;71.085236;;1233.6
1367.0;1301.7;;;;;;;;;;;;;;0.38868374;0.13562426;-0.17505418;;;;;1233.6
1367.0;1301.7;;;;;;;;;;;;;;;;;19.74166;-24.056215;77.57424;;1233.6
1367.0;1301.7;;;;;;;;;;;;;;0.36927396;0.17743461;-0.17896055;;;;;1233.6
1367.0;1301.9;188589;188521;13421;;;;;;;;;;;;;;;;;;
1367.0;1309.3;;;;-0.9987489;-0.16215135;0.08700562;;;;;;;;;;;;;;;
1367.0;1309.3;;;;-1.0040895;-0.16295625;0.08610154;;;;;;;;;;;;;;;
1367.0;1309.3;;;;-1.0105325;-0.1635399;0.0851822;;;;;;;;;;;;;;;
1367.0;1309.3;;;;-1.0174333;-0.16316225;0.08397294;;;;;;;;;;;;;;;
1367.0;1309.3;;;;-1.026703;-0.16339113;0.08406449;;;;;;;;;;;;;;;
1368.0;1316.2;;;;;;;;;;;;;;;;;20.98529;-22.5074;83.304085;;1243.3
1368.0;1316.2;;;;;;;;;;;;;;0.342967;0.21942808;-0.16687521;;;;;1243.3
1368.0;1316.2;;;;;;;;;;;;;;;;;17.216253;-21.546068;88.15653;;1243.3
1368.0;1316.2;;;;;;;;;;;;;;0.31556138;0.26520586;-0.15448469;;;;;1243.3
1368.0;1316.2;;;;;;;;;;;;;;;;;9.552294;-19.554733;91.185486;;1252.9
1368.0;1316.2;;;;;;;;;;;;;;0.31043428;0.34229562;-0.11957152;;;;;1252.9
1368.0;1316.2;;;;;;;;;;;;;;;;;-1.167333;-14.511552;94.57686;;1252.9
1368.0;1316.2;;;;;;;;;;;;;;0.33887753;0.4346446;-0.050965913;;;;;1252.9
1368.0;1316.2;;;;;;;;;;;;;;;;;-11.768701;-7.7936645;96.94586;;1262.5
1368.0;1316.2;;;;;;;;;;;;;;0.3653676;0.5681936;0.024414808;;;;;1262.5
1368.0;1316.2;;;;;;;;;;;;;;;;;-19.032106;0.9117405;96.41179;;1262.5
1368.0;1316.2;;;;;;;;;;;;;;0.37879574;0.7396466;0.14545122;;;;;1262.5
1368.0;1319.2;;;;-1.0338212;-0.16263582;0.083118446;;;;;;;;;;;;;;;
1368.0;1319.2;;;;-1.0406152;-0.16127016;0.083133705;;;;;;;;;;;;;;;
1368.0;1319.2;;;;-1.0492707;-0.16162492;0.08245469;;;;;;;;;;;;;;;
1368.0;1319.2;;;;-1.0595742;-0.16355516;0.08258439;;;;;;;;;;;;;;;
1368.0;1319.2;;;;-1.0723954;-0.16456987;0.08331681;;;;;;;;;;;;;;;
1368.0;1321.9;204947;204887;13434;;;;;;;;;;;;;;;;;;
1368.0;1328.2;;;;;;;;;;;;;1129;;;;;;;;
1368.0;1328.2;;;;;;;;;;;;;671;;;;;;;;
1368.0;1328.2;;;;;;;;;;;;;114;;;;;;;;
1368.0;1328.2;;;;;;;;;;;;;6;;;;;;;;
1368.0;1328.2;;;;;;;;;;;;;266;;;;;;;;
1426.0;1329.2;;;;-1.0862352;-0.16476823;0.08295823;;;;;;;;;;;;;;;
1426.0;1329.2;;;;-1.100197;-0.16671373;0.08147431;;;;;;;;;;;;;;;
1426.0;1329.2;;;;-1.1152192;-0.16755678;0.08051682;;;;;;;;;;;;;;;
1426.0;1329.2;;;;-1.1312639;-0.16888429;0.080242164;;;;;;;;;;;;;;;
1426.0;1329.2;;;;-1.1479837;-0.1706772;0.079658516;;;;;;;;;;;;;;;
1426.0;1339.1;;;;-1.1663095;-0.17193986;0.080673225;;;;;;;;;;;;;;;
1426.0;1339.1;;;;-1.1887475;-0.17260744;0.08221818;;;;;;;;;;;;;;;
1426.0;1339.1;;;;-1.2115594;-0.17292787;0.08359528;;;;;;;;;;;;;;;
1426.0;1339.1;;;;-1.2347642;-0.17307283;0.08532334;;;;;;;;;;;;;;;
1426.0;1339.1;;;;-1.260769;-0.17162706;0.08710099;;;;;;;;;;;;;;;
1426.0;1341.9;221308;221304;13436;;;;;;;;;;;;;;;;;;
1426.0;1349.2;;;;-1.2888871;-0.17013933;0.089069374;;;;;;;;;;;;;;;
1426.0;1349.2;;;;-1.3199884;-0.16794206;0.09109879;;;;;;;;;;;;;;;
1426.0;1349.2;;;;-1.3559037;-0.16172029;0.09248353;;;;;;;;;;;;;;;
1426.0;1349.2;;;;-1.3948251;-0.15262987;0.09385301;;;;;;;;;;;;;;;
1426.0;1349.2;;;;-1.4356614;-0.13995363;0.093887344;;;;;;;;;;;;;;;
1426.0;1359.3;;;;-1.4764482;-0.125412;0.09434129;;;;;;;;;;;;;;;
1426.0;1359.3;;;;-1.517731;-0.10839464;0.095561996;;;;;;;;;;;;;;;
1426.0;1359.3;;;;-1.5585864;-0.08952714;0.09951021;;;;;;;;;;;;;;;
1426.0;1359.3;;;;-1.6001246;-0.06736756;0.10108568;;;;;;;;;;;;;;;
1426.0;1359.3;;;;-1.6378672;-0.044082645;0.09875871;;;;;;;;;;;;;;;
1428.0;1361.0;;;;;;;;;;;;;;;;;-17.49855;-0.6675924;92.21931;;1272.2
1428.0;1361.0;;;;;;;;;;;;;;0.40559098;0.8615375;0.11481063;;;;;1272.2
1428.0;1361.0;;;;;;;;;;;;;;;;;-3.2425916;-9.170813;86.45131;;1272.2
1428.0;1361.0;;;;;;;;;;;;;;0.38209173;0.86898404;-0.022278512;;;;;1272.2
1428.0;1361.0;;;;;;;;;;;;;;;;;23.533587;-27.40562;81.495865;;1281.7
1428.0;1361.0;;;;;;;;;;;;;;0.44843897;0.84951323;-0.21460617;;;;;1281.7
1428.0;1361.0;;;;;;;;;;;;;;;;;53.407394;-47.67373;81.217384;;1281.7
1428.0;1361.0;;;;;;;;;;;;;;0.58339185;0.80141604;-0.22150335;;;;;1281.7
1428.0;1361.0;;;;;;;;;;;;;;;;;67.20176;-73.3932;81.846825;;1291.4
1428.0;1361.0;;;;;;;;;;;;;;0.8036744;0.7923826;-0.31653798;;;;;1291.4
1428.0;1361.0;;;;;;;;;;;;;;;;;62.51335;-80.046234;82.003235;;1291.4
1428.0;1361.0;;;;;;;;;;;;;;0.9446089;0.6882534;-0.26587725;;;;;1291.4
1428.0;1362.1;237705;237667;13437;;;;;;;;;;;;;;;;;;
1428.0;1368.3;;;;;;;;;;;;;503;;;;;;;;
1428.0;1368.3;;;;;;;;;;;;;467;;;;;;;;
1428.0;1368.3;;;;;;;;;;;;;225;;;;;;;;
1428.0;1368.3;;;;;;;;;;;;;34;;;;;;;;
1428.0;1368.3;;;;;;;;;;;;;336;;;;;;;;
1428.0;1369.3;;;;-1.6702502;-0.019775392;0.09598543;;;;;;;;;;;;;;;
1428.0;1369.3;;;;-1.6987116;0.0058212285;0.09286118;;;;;;;;;;;;;;;
1428.0;1369.3;;;;-1.7239497;0.032020573;0.09255219;;;;;;;;;;;;;;;
1428.0;1369.3;;;;-1.746258;0.060752876;0.09812166;;;;;;;;;;;;;;;
1428.0;1369.3;;;;-1.7659991;0.09243775;0.10410692;;;;;;;;;;;;;;;
1486.0;1376.1;;;;;;;;;;;;;;;;;54.277172;-86.59246;81.667534;;1301.0
1486.0;1376.1;;;;;;;;;;;;;;1.1215552;0.5914487;-0.24677266;;;;;1301.0
1486.0;1376.1;;;;;;;;;;;;;;;;;49.64217;-89.45356;84.80331;;1301.0
1486.0;1376.1;;;;;;;;;;;;;;1.2968535;0.3782464;-0.29212317;;;;;1301.0
1486.0;1376.1;;;;;;;;;;;;;;;;;44.518875;-83.26975;93.04712;;1310.7
1486.0;1376.1;;;;;;;;;;;;;;1.4264961;0.16718039;-0.2517777;;;;;1310.7
1486.0;1376.1;;;;;;;;;;;;;;;;;32.830288;-69.692825;104.52971;;1310.7
1486.0;1376.1;;;;;;;;;;;;;;1.5024873;0.014831996;-0.17731254;;;;;1310.7
1486.0;1376.1;;;;;;;;;;;;;;;;;19.722586;-51.057465;116.100044;;1320.2
1486.0;1376.1;;;;;;;;;;;;;;1.4686117;-0.013794366;-0.09851375;;;;;1320.2
1486.0;1376.1;;;;;;;;;;;;;;;;;12.119663;-38.19773;121.42933;;1320.2
1486.0;1376.1;;;;;;;;;;;;;;1.3198035;-0.012817774;-0.073000275;;;;;1320.2
1486.0;1379.3;;;;-1.7817843;0.125515;0.11002351;;;;;;;;;;;;;;;
1486.0;1379.3;;;;-1.7955859;0.15974809;0.12252809;;;;;;;;;;;;;;;
1486.0;1379.3;;;;-1.8063052;0.19573978;0.13756563;;;;;;;;;;;;;;;
1486.0;1379.3;;;;-1.8163531;0.23278812;0.1568184;;;;;;;;;;;;;;;
1486.0;1379.3;;;;-1.8239253;0.2682877;0.17786409;;;;;;;;;;;;;;;
1486.0;1382.2;254100;254100;13431;;;;;;;;;;;;;;;;;;
1486.0;1389.3;;;;-1.8277514;0.3030472;0.20169452;;;;;;;;;;;;;;;
1486.0;1389.3;;;;-1.826298;0.33893207;0.22461703;;;;;;;;;;;;;;;
1486.0;1389.3;;;;-1.8237498;0.37474063;0.24644473;;;;;;;;;;;;;;;
1486.0;1389.3;;;;-1.821316;0.40897757;0.2681084;;;;;;;;;;;;;;;
1486.0;1389.3;;;;-1.8176882;0.44016653;0.2891884;;;;;;;;;;;;;;;
1488.0;1399.3;;;;-1.8098528;0.46741492;0.31093982;;;;;;;;;;;;;;;
1488.0;1399.3;;;;-1.7975543;0.4908753;0.33239368;;;;;;;;;;;;;;;
1488.0;1399.3;;;;-1.7850993;0.51165396;0.352253;;;;;;;;;;;;;;;
1488.0;1399.3;;;;-1.7718318;0.5275193;0.3714104;;;;;;;;;;;;;;;
1488.0;1399.3;;;;-1.757519;0.5384255;0.38909918;;;;;;;;;;;;;;;
1488.0;1402.3;262143;262143;13442;;;;;;;;;;;;;;;;;;
1488.0;1408.5;;;;;;;;;;;;;1000;;;;;;;;
1488.0;1408.5;;;;;;;;;;;;;1231;;;;;;;;
1488.0;1408.5;;;;;;;;;;;;;826;;;;;;;;
1488.0;1408.5;;;;;;;;;;;;;244;;;;;;;;
1488.0;1408.5;;;;;;;;;;;;;565;;;;;;;;
1488.0;1409.4;;;;-1.741688;0.54596335;0.40591055;;;;;;;;;;;;;;;
1488.0;1409.4;;;;-1.7253497;0.5495606;0.4217263;;;;;;;;;;;;;;;
1488.0;1409.4;;;;-1.709202;0.548317;0.43640524;;;;;;;;;;;;;;;
1488.0;1409.4;;;;-1.6937373;0.54492956;0.45096213;;;;;;;;;;;;;;;
1488.0;1409.4;;;;-1.6741755;0.5366631;0.4635201;;;;;;;;;;;;;;;
1488.0;1419.5;;;;-1.6554224;0.5239335;0.4759484;;;;;;;;;;;;;;;
1488.0;1419.5;;;;-1.6375849;0.5105477;0.48746496;;;;;;;;;;;;;;;
1488.0;1419.5;;;;-1.6187289;0.49526983;0.49614722;;;;;;;;;;;;;;;
1488.0;1419.5;;;;-1.5986979;0.4776879;0.50399405;;;;;;;;;;;;;;;
1488.0;1419.5;;;;-1.5793574;0.46009833;0.5106316;;;;;;;;;;;;;;;
1488.0;1422.5;262143;262143;13431;;;;;;;;;;;;;;;;;;
1492.0;1428.8;;;;;;;;;;;;;;;;;19.817957;-33.2194;111.61;;1329.8
1492.0;1428.8;;;;;;;;;;;;;;1.1503646;0.21082187;-0.14270455;;;;;1329.8
1492.0;1428.8;;;;;;;;;;;;;;;;;28.942991;-26.017029;105.54445;;1329.8
1492.0;1428.8;;;;;;;;;;;;;;0.99398786;0.44123662;-0.25135043;;;;;1329.8
1492.0;1428.8;;;;;;;;;;;;;;;;;35.008545;-14.85107;104.37712;;1339.5
1492.0;1428.8;;;;;;;;;;;;;;0.97054964;0.60243535;-0.25055698;;;;;1339.5
1492.0;1428.8;;;;;;;;;;;;;;;;;39.826653;-5.8023314;103.01904;;1339.5
1492.0;1428.8;;;;;;;;;;;;;;1.0088198;0.73641163;-0.15308085;;;;;1339.5
1492.0;1428.8;;;;;;;;;;;;;;;;;40.864285;-6.061739;101.40537;;1349.2
1492.0;1428.8;;;;;;;;;;;;;;1.0391552;0.78920865;-0.14398633;;;;;1349.2
1492.0;1428.8;;;;;;;;;;;;;;;;;45.121616;-15.02655;99.89852;;1349.2
1492.0;1428.8;;;;;;;;;;;;;;1.0781579;0.7983642;-0.2557451;;;;;1349.2
1492.0;1429.5;;;;-1.5621798;0.44247824;0.5153962;;;;;;;;;;;;;;;
1492.0;1429.5;;;;-1.5442088;0.4248734;0.5203324;;;;;;;;;;;;;;;
1492.0;1429.5;;;;-1.5262034;0.4101029;0.52362067;;;;;;;;;;;;;;;
1492.0;1429.5;;;;-1.5119593;0.39738852;0.5235825;;;;;;;;;;;;;;;
1492.0;1429.5;;;;-1.495514;0.3863259;0.52291113;;;;;;;;;;;;;;;
1494.0;1436.4;;;;;;;;;;;;;;;;;51.58391;-23.056734;97.96823;;1358.8
1494.0;1436.4;;;;;;;;;;;;;;1.1349834;0.80794704;-0.3813593;;;;;1358.8
1494.0;1436.4;;;;;;;;;;;;;;;;;55.49028;-22.068699;95.664085;;1358.8
1494.0;1436.4;;;;;;;;;;;;;;1.1560411;0.78060246;-0.3645741;;;;;1358.8
1494.0;1436.4;;;;;;;;;;;;;;;;;54.815056;-19.779808;92.898346;;1368.5
1494.0;1436.4;;;;;;;;;;;;;;1.1198462;0.73335975;-0.26477858;;;;;1368.5
1494.0;1436.4;;;;;;;;;;;;;;;;;46.48732;-20.432142;91.31138;;1368.5
1494.0;1436.4;;;;;;;;;;;;;;1.0907925;0.65468305;-0.17151402;;;;;1368.5
1494.0;1436.4;;;;;;;;;;;;;;;;;31.495102;-19.173254;90.98331;;1378.0
1494.0;1436.4;;;;;;;;;;;;;;1.0891446;0.5894345;-0.11713004;;;;;1378.0
1494.0;1436.4;;;;;;;;;;;;;;;;;12.882626;-16.48381;92.05145;;1378.0
1494.0;1436.4;;;;;;;;;;;;;;1.0969573;0.5103305;-0.114749596;;;;;1378.0
1494.0;1439.5;;;;-1.4836503;0.3777848;0.52185446;;;;;;;;;;;;;;;
1494.0;1439.5;;;;-1.4729577;0.37048724;0.52107245;;;;;;;;;;;;;;;
1494.0;1439.5;;;;-1.4638368;0.36550525;0.5208512;;;;;;;;;;;;;;;
1494.0;1439.5;;;;-1.4601022;0.36268237;0.5207558;;;;;;;;;;;;;;;
1494.0;1439.5;;;;-1.46056;0.3627129;0.51985556;;;;;;;;;;;;;;;
1494.0;1442.6;262143;262143;13428;;;;;;;;;;;;;;;;;;
1494.0;1448.8;;;;;;;;;;;;;2270;;;;;;;;
1494.0;1448.8;;;;;;;;;;;;;1323;;;;;;;;
1494.0;1448.8;;;;;;;;;;;;;-7497;;;;;;;;
1494.0;1448.8;;;;;;;;;;;;;-20492;;;;;;;;
1494.0;1448.8;;;;;;;;;;;;;-26205;;;;;;;;
1554.0;1449.6;;;;-1.462475;0.36403278;0.51588064;;;;;;;;;;;;;;;
1554.0;1449.6;;;;-1.4638406;0.36627582;0.51155096;;;;;;;;;;;;;;;
1554.0;1449.6;;;;-1.466118;0.36877444;0.504654;;;;;;;;;;;;;;;
1554.0;1449.6;;;;-1.4729692;0.37243274;0.49802023;;;;;;;;;;;;;;;
1554.0;1449.6;;;;-1.4776345;0.37685782;0.49159247;;;;;;;;;;;;;;;
1554.0;1459.5;;;;-1.480034;0.38215262;0.48693472;;;;;;;;;;;;;;;
1554.0;1459.5;;;;-1.4832803;0.38854605;0.48109823;;;;;;;;;;;;;;;
1554.0;1459.5;;;;-1.4839555;0.39579016;0.47443777;;;;;;;;;;;;;;;
1554.0;1459.5;;;;-1.4851953;0.40294653;0.46693808;;;;;;;;;;;;;;;
1554.0;1459.5;;;;-1.4831125;0.41091925;0.46020132;;;;;;;;;;;;;;;
1554.0;1462.7;262143;262143;13432;;;;;;;;;;;;;;;;;;
1554.0;1469.6;;;;-1.4806329;0.41985708;0.4546395;;;;;;;;;;;;;;;
1554.0;1469.6;;;;-1.4791185;0.43111426;0.44967276;;;;;;;;;;;;;;;
1554.0;1469.6;;;;-1.4732972;0.44206244;0.44494635;;;;;;;;;;;;;;;
1554.0;1469.6;;;;-1.4660798;0.4543801;0.4402848;;;;;;;;;;;;;;;
1554.0;1469.6;;;;-1.4575883;0.4660874;0.43603903;;;;;;;;;;;;;;;
1554.0;1479.8;;;;-1.4497911;0.47858816;0.43140036;;;;;;;;;;;;;;;
1554.0;1479.8;;;;-1.4412538;0.49047095;0.42736822;;;;;;;;;;;;;;;
1554.0;1479.8;;;;-1.4307672;0.502266;0.42498404;;;;;;;;;;;;;;;
1554.0;1479.8;;;;-1.4201318;0.51554877;0.42371374;;;;;;;;;;;;;;;
1554.0;1479.8;;;;-1.4081002;0.5284615;0.42246252;;;;;;;;;;;;;;;
1560.0;1481.6;;;;;;;;;;;;;;;;;-2.4719992;-15.46144;93.108154;;1387.6
1560.0;1481.6;;;;;;;;;;;;;;1.114597;0.4395886;-0.2113712;;;;;1387.6
1560.0;1481.6;;;;;;;;;;;;;;;;;-10.567034;-15.263069;92.72668;;1387.6
1560.0;1481.6;;;;;;;;;;;;;;1.1330302;0.42469558;-0.33472702;;;;;1387.6
1560.0;1481.6;;;;;;;;;;;;;;;;;-13.733329;-13.790551;91.36097;;1397.2
1560.0;1481.6;;;;;;;;;;;;;;1.1422467;0.44178593;-0.43421736;;;;;1397.2
1560.0;1481.6;;;;;;;;;;;;;;;;;-11.738182;-10.036775;89.36201;;1397.2
1560.0;1481.6;;;;;;;;;;;;;;1.1446272;0.4702292;-0.45429853;;;;;1397.2
1560.0;1481.6;;;;;;;;;;;;;;;;;-5.4589987;-6.5195165;86.32924;;1406.9
1560.0;1481.6;;;;;;;;;;;;;;1.136021;0.47291481;-0.430311;;;;;1406.9
1560.0;1481.6;;;;;;;;;;;;;;;;;2.8382213;-2.9450362;80.93509;;1406.9
1560.0;1481.6;;;;;;;;;;;;;;1.1072725;0.47065645;-0.37305826;;;;;1406.9
1560.0;1482.8;262143;262143;13441;;;;;;;;;;;;;;;;;;
1562.0;1489.1;;;;;;;;;;;;;;;;;8.655812;-1.12537;75.29679;;1416.4
1562.0;1489.1;;;;;;;;;;;;;;1.0702841;0.46632284;-0.33112583;;;;;1416.4
1562.0;1489.1;;;;;;;;;;;;;;;;;11.486403;0.25940734;72.851494;;1416.4
1562.0;1489.1;;;;;;;;;;;;;;1.0279244;0.43269143;-0.30005798;;;;;1416.4
1562.0;1489.1;;;;;;;;;;;;;;;;;11.703849;1.453444;72.54631;;1426.1
1562.0;1489.1;;;;;;;;;;;;;;0.9867855;0.39332256;-0.28003785;;;;;1426.1
1562.0;1489.1;;;;;;;;;;;;;;;;;12.0052185;2.521592;73.072754;;1426.1
1562.0;1489.1;;;;;;;;;;;;;;0.94247264;0.3370464;-0.2540971;;;;;1426.1
1562.0;1489.1;;;;;;;;;;;;;;;;;13.073366;2.6932585;72.63787;;1435.8
1562.0;1489.1;;;;;;;;;;;;;;0.9180578;0.30640584;-0.26197088;;;;;1435.8
1562.0;1489.1;;;;;;;;;;;;;;;;;15.194403;3.5363324;72.82098;;1435.8
1562.0;1489.1;;;;;;;;;;;;;;0.8921171;0.28400525;-0.2811365;;;;;1435.8
1562.0;1489.0;;;;;;;;;;;;;-18806;;;;;;;;
1562.0;1489.0;;;;;;;;;;;;;-5198;;;;;;;;
1562.0;1489.0;;;;;;;;;;;;;3534;;;;;;;;
1562.0;1489.0;;;;;;;;;;;;;4605;;;;;;;;
1562.0;1489.0;;;;;;;;;;;;;3516;;;;;;;;
1562.0;1489.6;;;;-1.395321;0.54064184;0.4227181;;;;;;;;;;;;;;;
1562.0;1489.6;;;;-1.3842965;0.5544701;0.4224282;;;;;;;;;;;;;;;
1562.0;1489.6;;;;-1.3771173;0.5682984;0.42007452;;;;;;;;;;;;;;;
1562.0;1489.6;;;;-1.3685457;0.5804749;0.41803366;;;;;;;;;;;;;;;
1562.0;1489.6;;;;-1.35944;0.5938378;0.4177056;;;;;;;;;;;;;;;
1601.0;1499.6;;;;-1.3473092;0.60563284;0.4180184;;;;;;;;;;;;;;;
1601.0;1499.6;;;;-1.3360826;0.618023;0.4178887;;;;;;;;;;;;;;;
1601.0;1499.6;;;;-1.325821;0.6301728;0.41920477;;;;;;;;;;;;;;;
1601.0;1499.6;;;;-1.3123552;0.6455155;0.4201966;;;;;;;;;;;;;;;
1601.0;1499.6;;;;-1.3023874;0.65811545;0.4198609;;;;;;;;;;;;;;;
1601.0;1502.9;262143;262143;13440;;;;;;;;;;;;;;;;;;
1601.0;1509.6;;;;-1.2908517;0.6658326;0.42265707;;;;;;;;;;;;;;;
1601.0;1509.6;;;;-1.2739602;0.674305;0.42786413;;;;;;;;;;;;;;;
1601.0;1509.6;;;;-1.2608949;0.6835099;0.4308167;;;;;;;;;;;;;;;
1601.0;1509.6;;;;-1.2551805;0.6915284;0.43225485;;;;;;;;;;;;;;;
1601.0;1509.6;;;;-1.2447969;0.69746023;0.43552023;;;;;;;;;;;;;;;
1601.0;1519.6;;;;-1.231434;0.704403;0.43835074;;;;;;;;;;;;;;;
1601.0;1519.6;;;;-1.2193147;0.7055207;0.4412766;;;;;;;;;;;;;;;
1601.0;1519.6;;;;-1.2076913;0.7083054;0.44482046;;;;;;;;;;;;;;;
1601.0;1519.6;;;;-1.2012559;0.7131043;0.44779593;;;;;;;;;;;;;;;
1601.0;1519.6;;;;-1.1947442;0.7149964;0.45038992;;;;;;;;;;;;;;;
1601.0;1522.9;262143;262143;13445;;;;;;;;;;;;;;;;;;
1601.0;1529.1;;;;;;;;;;;;;3974;;;;;;;;
1601.0;1529.1;;;;;;;;;;;;;4274;;;;;;;;
1601.0;1529.1;;;;;;;;;;;;;3469;;;;;;;;
1601.0;1529.1;;;;;;;;;;;;;3069;;;;;;;;
1601.0;1529.1;;;;;;;;;;;;;3210;;;;;;;;
1604.0;1529.7;;;;-1.183098;0.71498495;0.45490652;;;;;;;;;;;;;;;
1604.0;1529.7;;;;-1.1724321;0.71467215;0.45834738;;;;;;;;;;;;;;;
1604.0;1529.7;;;;-1.1638795;0.71392447;0.4616509;;;;;;;;;;;;;;;
1604.0;1529.7;;;;-1.1572648;0.7120324;0.46425253;;;;;;;;;;;;;;;
1604.0;1529.7;;;;-1.1503488;0.7098504;0.4658509;;;;;;;;;;;;;;;
1604.0;1539.8;;;;-1.1404458;0.7070504;0.4672814;;;;;;;;;;;;;;;
1604.0;1539.8;;;;-1.1321641;0.7032967;0.46988302;;;;;;;;;;;;;;;
1604.0;1539.8;;;;-1.122368;0.7005921;0.4714585;;;;;;;;;;;;;;;
1604.0;1539.8;;;;-1.1128312;0.69622046;0.47151572;;;;;;;;;;;;;;;
1604.0;1539.8;;;;-1.1022073;0.6922036;0.47072607;;;;;;;;;;;;;;;
1604.0;1541.8;;;;;;;;;;;;;;;;;19.260996;4.058962;73.09183;;1445.4
1604.0;1541.8;;;;;;;;;;;;;;0.8753929;0.27576524;-0.30213323;;;;;1445.4
1604.0;1541.8;;;;;;;;;;;;;;;;;24.666586;2.7809992;73.377945;;1445.4
1604.0;1541.8;;;;;;;;;;;;;;0.877163;0.28662986;-0.32374036;;;;;1445.4
1604.0;1541.8;;;;;;;;;;;;;;;;;30.579546;0.7477035;74.007385;;1454.9
1604.0;1541.8;;;;;;;;;;;;;;0.88735616;0.30500197;-0.336375;;;;;1454.9
1604.0;1541.8;;;;;;;;;;;;;;;;;36.095768;-2.315592;74.82375;;1454.9
1604.0;1541.8;;;;;;;;;;;;;;0.90908533;0.3239845;-0.36561173;;;;;1454.9
1604.0;1541.8;;;;;;;;;;;;;;;;;41.09699;-5.4399247;75.78127;;1464.6
1604.0;1541.8;;;;;;;;;;;;;;0.93581957;0.34589678;-0.39936522;;;;;1464.6
1604.0;1541.8;;;;;;;;;;;;;;;;;44.64095;-7.534257;76.53279;;1464.6
1604.0;1541.8;;;;;;;;;;;;;;0.97634816;0.3805048;-0.42152166;;;;;1464.6
1604.0;1543.0;262143;262143;13435;;;;;;;;;;;;;;;;;;
1663.0;1549.2;;;;;;;;;;;;;;;;;47.08243;-8.445998;77.67342;;1474.1
1663.0;1549.2;;;;;;;;;;;;;;0.9888607;0.40784937;-0.435255;;;;;1474.1
1663.0;1549.2;;;;;;;;;;;;;;;;;48.821987;-10.448774;78.90942;;1474.1
1663.0;1549.2;;;;;;;;;;;;;;1.010651;0.41938534;-0.46131778;;;;;1474.1
1663.0;1549.2;;;;;;;;;;;;;;;;;49.3141;-10.727257;80.13397;;1483.9
1663.0;1549.2;;;;;;;;;;;;;;1.0274361;0.4242683;-0.47743157;;;;;1483.9
1663.0;1549.2;;;;;;;;;;;;;;;;;47.433395;-8.980071;80.545975;;1483.9
1663.0;1549.2;;;;;;;;;;;;;;1.0381787;0.43073824;-0.46327096;;;;;1483.9
1663.0;1549.2;;;;;;;;;;;;;;;;;44.770653;-6.8742943;80.43534;;1493.6
1663.0;1549.2;;;;;;;;;;;;;;1.0401928;0.43324077;-0.44935453;;;;;1493.6
1663.0;1549.2;;;;;;;;;;;;;;;;;40.879543;-3.5287027;79.95086;;1493.6
1663.0;1549.2;;;;;;;;;;;;;;1.0249946;0.43360698;-0.4248787;;;;;1493.6
1663.0;1549.6;;;;-1.0906106;0.6868096;0.4690209;;;;;;;;;;;;;;;
1663.0;1549.6;;;;-1.0778123;0.6820031;0.46761328;;;;;;;;;;;;;;;
1663.0;1549.6;;;;-1.0641557;0.67503744;0.46508795;;;;;;;;;;;;;;;
1663.0;1549.6;;;;-1.0521737;0.6687737;0.46347052;;;;;;;;;;;;;;;
1663.0;1549.6;;;;-1.0397569;0.66310126;0.4619332;;;;;;;;;;;;;;;
1663.0;1559.6;;;;-1.0273286;0.6562806;0.45927054;;;;;;;;;;;;;;;
1663.0;1559.6;;;;-1.0122949;0.65074545;0.4572106;;;;;;;;;;;;;;;
1663.0;1559.6;;;;-0.99967587;0.6452103;0.45455557;;;;;;;;;;;;;;;
1663.0;1559.6;;;;-0.98887265;0.6390763;0.45068747;;;;;;;;;;;;;;;
1663.0;1559.6;;;;-0.97750485;0.6349297;0.4471436;;;;;;;;;;;;;;;
1663.0;1563.0;262143;262143;13430;;;;;;;;;;;;;;;;;;
1665.0;1569.1;;;;;;;;;;;;;3391;;;;;;;;
1665.0;1569.1;;;;;;;;;;;;;3404;;;;;;;;
1665.0;1569.1;;;;;;;;;;;;;2827;;;;;;;;
1665.0;1569.1;;;;;;;;;;;;;2030;;;;;;;;
1665.0;1569.1;;;;;;;;;;;;;1451;;;;;;;;
1665.0;1569.6;;;;-0.96929944;0.6309472;0.44231802;;;;;;;;;;;;;;;
1665.0;1569.6;;;;-0.95925915;0.62676245;0.43643957;;;;;;;;;;;;;;;
1665.0;1569.6;;;;-0.94654095;0.6228638;0.4308625;;;;;;;;;;;;;;;
1665.0;1569.6;;;;-0.9368974;0.61954504;0.42514807;;;;;;;;;;;;;;;
1665.0;1569.6;;;;-0.9279138;0.61598593;0.41782385;;;;;;;;;;;;;;;
1665.0;1579.6;;;;-0.91788113;0.6117936;0.41091162;;;;;;;;;;;;;;;
1665.0;1579.6;;;;-0.9073144;0.608265;0.40357977;;;;;;;;;;;;;;;
1665.0;1579.6;;;;-0.8978845;0.60485846;0.3952332;;;;;;;;;;;;;;;
1665.0;1579.6;;;;-0.8883935;0.601883;0.3875695;;;;;;;;;;;;;;;
1665.0;1579.6;;;;-0.87674725;0.59701544;0.38034064;;;;;;;;;;;;;;;
1665.0;1583.0;262143;262143;13429;;;;;;;;;;;;;;;;;;
1665.0;1589.7;;;;-0.8645669;0.5915032;0.37308505;;;;;;;;;;;;;;;
1665.0;1589.7;;;;-0.85351956;0.5855904;0.36643603;;;;;;;;;;;;;;;
1665.0;1589.7;;;;-0.843464;0.57973486;0.35904315;;;;;;;;;;;;;;;
1665.0;1589.7;;;;-0.8339082;0.57355124;0.3502312;;;;;;;;;;;;;;;
1665.0;1589.7;;;;-0.8242074;0.5673714;0.34237674;;;;;;;;;;;;;;;
1667.0;1599.8;;;;-0.8145677;0.5609856;0.33339694;;;;;;;;;;;;;;;
1667.0;1599.8;;;;-0.8051683;0.55579764;0.32617953;;;;;;;;;;;;;;;
1667.0;1599.8;;;;-0.79480755;0.55091864;0.3200951;;;;;;;;;;;;;;;
1667.0;1599.8;;;;-0.7849542;0.5453988;0.31388476;;;;;;;;;;;;;;;
1667.0;1599.8;;;;-0.7751428;0.54005057;0.30790713;;;;;;;;;;;;;;;
1667.0;1602.3;;;;;;;;;;;;;;;;;36.442917;0.32425916;79.237495;;1503.2
1667.0;1602.3;;;;;;;;;;;;;;0.99954224;0.42860195;-0.39564195;;;;;1503.2
1667.0;1602.3;;;;;;;;;;;;;;;;;32.895138;3.0480363;77.76117;;1503.2
1667.0;1602.3;;;;;;;;;;;;;;0.9632862;0.41785944;-0.3757439;;;;;1503.2
1667.0;1602.3;;;;;;;;;;;;;;;;;30.47273;5.447554;76.31917;;1512.8
1667.0;1602.3;;;;;;;;;;;;;;0.9304483;0.40717795;-0.36384168;;;;;1512.8
1667.0;1602.3;;;;;;;;;;;;;;;;;28.576769;7.7936645;75.46846;;1512.8
1667.0;1602.3;;;;;;;;;;;;;;0.8949858;0.39912108;-0.34852138;;;;;1512.8
1667.0;1602.3;;;;;;;;;;;;;;;;;27.172918;9.929959;75.15183;;1522.5
1667.0;1602.3;;;;;;;;;;;;;;0.86831266;0.3844722;-0.3304544;;;;;1522.5
1667.0;1602.3;;;;;;;;;;;;;;;;;26.875362;12.649922;74.90387;;1522.5
1667.0;1602.3;;;;;;;;;;;;;;0.850734;0.3780633;-0.2993866;;;;;1522.5
1667.0;1603.2;262143;262143;13429;;;;;;;;;;;;;;;;;;
1668.0;1609.5;;;;;;;;;;;;;;;;;26.161993;14.412366;74.79705;;1532.1
1668.0;1609.5;;;;;;;;;;;;;;0.83584094;0.37775812;-0.27307963;;;;;1532.1
1668.0;1609.5;;;;;;;;;;;;;;;;;25.334177;14.934996;75.50661;;1532.1
1668.0;1609.5;;;;;;;;;;;;;;0.8249763;0.36182746;-0.25898007;;;;;1532.1
1668.0;1609.5;;;;;;;;;;;;;;;;;24.445328;15.900145;76.24668;;1541.8
1668.0;1609.5;;;;;;;;;;;;;;0.82595295;0.3543199;-0.24439223;;;;;1541.8
1668.0;1609.5;;;;;;;;;;;;;;;;;23.33903;16.926329;76.97531;;1541.8
1668.0;1609.5;;;;;;;;;;;;;;0.8294931;0.34778893;-0.23639637;;;;;1541.8
1668.0;1609.5;;;;;;;;;;;;;;;;;23.304697;17.132328;78.09686;;1551.3
1668.0;1609.5;;;;;;;;;;;;;;0.8352306;0.329722;-0.2356029;;;;;1551.3
1668.0;1609.5;;;;;;;;;;;;;;;;;22.839289;17.841883;79.32142;;1551.3
1668.0;1609.5;;;;;;;;;;;;;;0.83602405;0.31171605;-0.24079104;;;;;1551.3
1668.0;1609.3;;;;;;;;;;;;;1047;;;;;;;;
1668.0;1609.3;;;;;;;;;;;;;730;;;;;;;;
1668.0;1609.3;;;;;;;;;;;;;271;;;;;;;;
1668.0;1609.3;;;;;;;;;;;;;-319;;;;;;;;
1668.0;1609.3;;;;;;;;;;;;;-1018;;;;;;;;
1668.0;1609.7;;;;-0.7666131;0.53465277;0.3018799;;;;;;;;;;;;;;;
1668.0;1609.7;;;;-0.7594148;0.5288773;0.29487994;;;;;;;;;;;;;;;
1668.0;1609.7;;;;-0.75190747;0.52342993;0.2879372;;;;;;;;;;;;;;;
1668.0;1609.7;;;;-0.7452546;0.51842123;0.2786484;;;;;;;;;;;;;;;
1668.0;1609.7;;;;-0.7380982;0.51279074;0.27103046;;;;;;;;;;;;;;;
1723.0;1619.7;;;;-0.730259;0.50746924;0.2622681;;;;;;;;;;;;;;;
1723.0;1619.7;;;;-0.72095114;0.5015221;0.25465015;;;;;;;;;;;;;;;
1723.0;1619.7;;;;-0.71155936;0.495781;0.24718097;;;;;;;;;;;;;;;
1723.0;1619.7;;;;-0.7015076;0.4912644;0.23981479;;;;;;;;;;;;;;;
1723.0;1619.7;;;;-0.69060904;0.48635107;0.23387149;;;;;;;;;;;;;;;
1723.0;1623.2;262143;262143;13431;;;;;;;;;;;;;;;;;;
1723.0;1629.6;;;;-0.67958456;0.4808808;0.22765735;;;;;;;;;;;;;;;
1723.0;1629.6;;;;-0.67011267;0.47578436;0.22267154;;;;;;;;;;;;;;;
1723.0;1629.6;;;;-0.66088873;0.4707299;0.21726993;;;;;;;;;;;;;;;
1723.0;1629.6;;;;-0.6519318;0.46558005;0.2127457;;;;;;;;;;;;;;;
1723.0;1629.6;;;;-0.64431006;0.46027;0.20778278;;;;;;;;;;;;;;;
1723.0;1639.6;;;;-0.63693243;0.4554711;0.20296481;;;;;;;;;;;;;;;
1723.0;1639.6;;;;-0.63075644;0.45096976;0.19708255;;;;;;;;;;;;;;;
1723.0;1639.6;;;;-0.6256371;0.44637686;0.1917496;;;;;;;;;;;;;;;
1723.0;1639.6;;;;-0.62006766;0.4417153;0.18684007;;;;;;;;;;;;;;;
1723.0;1639.6;;;;-0.6140824;0.4369927;0.18128969;;;;;;;;;;;;;;;
1723.0;1643.2;262143;262143;13424;;;;;;;;;;;;;;;;;;
1723.0;1649.4;;;;;;;;;;;;;-1935;;;;;;;;
1723.0;1649.4;;;;;;;;;;;;;-2872;;;;;;;;
1723.0;1649.4;;;;;;;;;;;;;-3362;;;;;;;;
1723.0;1649.4;;;;;;;;;;;;;-3355;;;;;;;;
1723.0;1649.4;;;;;;;;;;;;;-3290;;;;;;;;
1725.0;1649.7;;;;-0.608326;0.43251806;0.1760483;;;;;;;;;;;;;;;
1725.0;1649.7;;;;-0.60195166;0.4286347;0.17183305;;;;;;;;;;;;;;;
1725.0;1649.7;;;;-0.5954667;0.4248734;0.16808702;;;;;;;;;;;;;;;
1725.0;1649.7;;;;-0.58889014;0.42102057;0.16552736;;;;;;;;;;;;;;;
1725.0;1649.7;;;;-0.58312994;0.41646582;0.16314699;;;;;;;;;;;;;;;
1725.0;1659.9;;;;-0.5774422;0.41187674;0.1614113;;;;;;;;;;;;;;;
1725.0;1659.9;;;;-0.5729447;0.4077378;0.15927507;;;;;;;;;;;;;;;
1725.0;1659.9;;;;-0.56810004;0.40267187;0.15748979;;;;;;;;;;;;;;;
1725.0;1659.9;;;;-0.5655289;0.39734656;0.15560152;;;;;;;;;;;;;;;
1725.0;1659.9;;;;-0.56301504;0.39150244;0.15353014;;;;;;;;;;;;;;;
1725.0;1662.1;;;;;;;;;;;;;;;;;20.989105;19.089329;80.6566;;1561.0
1725.0;1662.1;;;;;;;;;;;;;;0.8465224;0.29328287;-0.22974335;;;;;1561.0
1725.0;1662.1;;;;;;;;;;;;;;;;;19.329662;19.779808;82.04901;;1561.0
1725.0;1662.1;;;;;;;;;;;;;;0.85262614;0.26831874;-0.21839045;;;;;1561.0
1725.0;1662.1;;;;;;;;;;;;;;;;;19.009216;21.263771;82.46101;;1570.6
1725.0;1662.1;;;;;;;;;;;;;;0.8501236;0.2542802;-0.20636617;;;;;1570.6
1725.0;1662.1;;;;;;;;;;;;;;;;;19.348736;22.282326;82.37327;;1570.6
1725.0;1662.1;;;;;;;;;;;;;;0.8562273;0.2598346;-0.18707846;;;;;1570.6
1725.0;1662.1;;;;;;;;;;;;;;;;;19.180883;21.599476;83.35749;;1580.2
1725.0;1662.1;;;;;;;;;;;;;;0.85219884;0.26123846;-0.20130008;;;;;1580.2
1725.0;1662.1;;;;;;;;;;;;;;;;;18.452253;21.855068;85.203865;;1580.2
1725.0;1662.1;;;;;;;;;;;;;;0.8684347;0.22638631;-0.20209357;;;;;1580.2
1725.0;1663.4;262143;262143;13422;;;;;;;;;;;;;;;;;;
1788.0;1669.6;;;;;;;;;;;;;;;;;18.54381;22.270882;83.04086;;1589.9
1788.0;1669.6;;;;;;;;;;;;;;0.89022493;0.23590808;-0.22534868;;;;;1589.9
1788.0;1669.6;;;;;;;;;;;;;;;;;19.096958;25.719473;82.81579;;1589.9
1788.0;1669.6;;;;;;;;;;;;;;0.8831446;0.22547075;-0.22058779;;;;;1589.9
1788.0;1669.6;;;;;;;;;;;;;;;;;20.237587;28.984955;82.87682;;1599.5
1788.0;1669.6;;;;;;;;;;;;;;0.8706931;0.21924497;-0.1980041;;;;;1599.5
1788.0;1669.6;;;;;;;;;;;;;;;;;20.935698;29.858547;82.438126;;1599.5
1788.0;1669.6;;;;;;;;;;;;;;0.86178166;0.22058779;-0.18707846;;;;;1599.5
1788.0;1669.6;;;;;;;;;;;;;;;;;21.645254;29.770807;81.831566;;1609.1
1788.0;1669.6;;;;;;;;;;;;;;0.8436537;0.22937712;-0.1892758;;;;;1609.1
1788.0;1669.6;;;;;;;;;;;;;;;;;22.171696;29.984434;81.38523;;1609.1
1788.0;1669.6;;;;;;;;;;;;;;0.84035766;0.24311045;-0.18237862;;;;;1609.1
1788.0;1669.7;;;;-0.561081;0.3860169;0.15174867;;;;;;;;;;;;;;;
1788.0;1669.7;;;;-0.55912024;0.3810578;0.15038301;;;;;;;;;;;;;;;
1788.0;1669.7;;;;-0.55655295;0.37621695;0.14981462;;;;;;;;;;;;;;;
1788.0;1669.7;;;;-0.5536843;0.37092212;0.14885332;;;;;;;;;;;;;;;
1788.0;1669.7;;;;-0.5515824;0.3653336;0.14829256;;;;;;;;;;;;;;;
1788.0;1679.7;;;;-0.5498162;0.35998157;0.14774324;;;;;;;;;;;;;;;
1788.0;1679.7;;;;-0.54730994;0.35497287;0.1485367;;;;;;;;;;;;;;;
1788.0;1679.7;;;;-0.54552084;0.34935763;0.1494446;;;;;;;;;;;;;;;
1788.0;1679.7;;;;-0.544159;0.34539798;0.15127565;;;;;;;;;;;;;;;
1788.0;1679.7;;;;-0.5430985;0.3413811;0.15232469;;;;;;;;;;;;;;;
1788.0;1683.4;262143;262143;13429;;;;;;;;;;;;;;;;;;
1792.0;1689.5;;;;;;;;;;;;;-3130;;;;;;;;
1792.0;1689.5;;;;;;;;;;;;;-2507;;;;;;;;
1792.0;1689.5;;;;;;;;;;;;;-1407;;;;;;;;
1792.0;1689.5;;;;;;;;;;;;;-188;;;;;;;;
1792.0;1689.5;;;;;;;;;;;;;727;;;;;;;;
1792.0;1689.8;;;;-0.54289633;0.33703235;0.15310289;;;;;;;;;;;;;;;
1792.0;1689.8;;;;-0.54279715;0.33298877;0.15393831;;;;;;;;;;;;;;;
1792.0;1689.8;;;;-0.54370123;0.32970813;0.1549988;;;;;;;;;;;;;;;
1792.0;1689.8;;;;-0.5453301;0.32634738;0.15630342;;;;;;;;;;;;;;;
1792.0;1689.8;;;;-0.546238;0.32283404;0.15756609;;;;;;;;;;;;;;;
1792.0;1699.8;;;;-0.54751974;0.31979373;0.15987398;;;;;;;;;;;;;;;
1792.0;1699.8;;;;-0.5487748;0.31744388;0.16131975;;;;;;;;;;;;;;;
1792.0;1699.8;;;;-0.54959494;0.31554416;0.16165926;;;;;;;;;;;;;;;
1792.0;1699.8;;;;-0.55139166;0.31481937;0.16137697;;;;;;;;;;;;;;;
1792.0;1699.8;;;;-0.55424887;0.3138962;0.162941;;;;;;;;;;;;;;;
1792.0;1703.5;262143;262143;13422;;;;;;;;;;;;;;;;;;
1792.0;1709.9;;;;-0.55723196;0.31354144;0.16540529;;;;;;;;;;;;;;;
1792.0;1709.9;;;;-0.5614739;0.31340793;0.1678467;;;;;;;;;;;;;;;
1792.0;1709.9;;;;-0.56755453;0.31400302;0.17008592;;;;;;;;;;;;;;;
1792.0;1709.9;;;;-0.5748597;0.31510165;0.17079546;;;;;;;;;;;;;;;
1792.0;1709.9;;;;-0.5826302;0.3165398;0.17217638;;;;;;;;;;;;;;;
1810.0;1720.0;;;;-0.5899125;0.3180237;0.17507555;;;;;;;;;;;;;;;
1810.0;1720.0;;;;-0.59821707;0.3196526;0.17773439;;;;;;;;;;;;;;;
1810.0;1720.0;;;;-0.60482794;0.32153323;0.18034364;;;;;;;;;;;;;;;
1810.0;1720.0;;;;-0.611599;0.32359698;0.18210985;;;;;;;;;;;;;;;
1810.0;1720.0;;;;-0.6175881;0.3253365;0.18511201;;;;;;;;;;;;;;;
1810.0;1722.8;;;;;;;;;;;;;;;;;22.331919;29.168066;81.67135;;1618.7
1810.0;1722.8;;;;;;;;;;;;;;0.82168037;0.24524674;-0.19721061;;;;;1618.7
1810.0;1722.8;;;;;;;;;;;;;;;;;22.4044;28.584398;81.59886;;1618.7
1810.0;1722.8;;;;;;;;;;;;;;0.7988525;0.25403607;-0.21228676;;;;;1618.7
1810.0;1722.8;;;;;;;;;;;;;;;;;22.797327;26.669363;81.04953;;1628.3
1810.0;1722.8;;;;;;;;;;;;;;0.78310496;0.25659963;-0.21765801;;;;;1628.3
1810.0;1722.8;;;;;;;;;;;;;;;;;22.812586;21.702477;79.84786;;1628.3
1810.0;1722.8;;;;;;;;;;;;;;0.7779778;0.27539903;-0.23487045;;;;;1628.3
1810.0;1722.8;;;;;;;;;;;;;;;;;20.359661;17.376476;78.367714;;1637.8
1810.0;1722.8;;;;;;;;;;;;;;0.7777947;0.2989593;-0.25794244;;;;;1637.8
1810.0;1722.8;;;;;;;;;;;;;;;;;15.610218;14.22544;76.921906;;1637.8
1810.0;1722.8;;;;;;;;;;;;;;0.76906645;0.3444319;-0.25098422;;;;;1637.8
1813.0;1723.6;;;;;;;;;;;;;;;;;12.375256;9.331035;76.31535;;1647.4
1813.0;1723.6;;;;;;;;;;;;;;0.7860347;0.37647635;-0.27198097;;;;;1647.4
1813.0;1723.6;;;;;;;;;;;;;;;;;6.214331;5.6573687;74.308754;;1647.4
1813.0;1723.6;;;;;;;;;;;;;;0.8168584;0.43159276;-0.30426955;;;;;1647.4
1813.0;1723.6;;;;;;;;;;;;;;;;;-2.3041475;4.837184;71.35609;;1657.0
1813.0;1723.6;;;;;;;;;;;;;;0.8402966;0.49751273;-0.31232643;;;;;1657.0
1813.0;1723.6;;;;;;;;;;;;;;;;;-11.528367;3.9559617;68.14401;;1657.0
1813.0;1723.6;;;;;;;;;;;;;;0.85995054;0.58394116;-0.31714836;;;;;1657.0
1813.0;1723.6;;;;;;;;;;;;;;;;;-20.355846;4.4289985;65.26383;;1666.6
1813.0;1723.6;;;;;;;;;;;;;;0.88106936;0.6676229;-0.31153294;;;;;1666.6
1813.0;1723.6;;;;;;;;;;;;;;;;;-27.878658;8.514664;61.90298;;1666.6
1813.0;1723.6;;;;;;;;;;;;;;0.8942534;0.76631975;-0.28980377;;;;;1666.6
1813.0;1723.6;262143;262143;13418;;;;;;;;;;;;;;;;;;
1813.0;1729.7;;;;;;;;;;;;;1277;;;;;;;;
1813.0;1729.7;;;;;;;;;;;;;1630;;;;;;;;
1813.0;1729.7;;;;;;;;;;;;;1820;;;;;;;;
1813.0;1729.7;;;;;;;;;;;;;1821;;;;;;;;
1813.0;1729.7;;;;;;;;;;;;;1819;;;;;;;;
1813.0;1729.9;;;;-0.6240197;0.32690433;0.18756106;;;;;;;;;;;;;;;
1813.0;1729.9;;;;-0.62941366;0.32880405;0.18970492;;;;;;;;;;;;;;;
1813.0;1729.9;;;;-0.63504034;0.3305054;0.1920357;;;;;;;;;;;;;;;
1813.0;1729.9;;;;-0.64155203;0.33259204;0.19398502;;;;;;;;;;;;;;;
1813.0;1729.9;;;;-0.6473771;0.33462146;0.19573978;;;;;;;;;;;;;;;
1848.0;1739.0;;;;;;;;;;1.2359996;19.07407;-2.8534806;;;;;;;;;
1848.0;1739.0;;;;;;;0.5882748;-0.3703116;0.14539018;;;;;;;;;;;;
1848.0;1739.0;;;;;;;;;;6.0274057;30.617695;8.888515;;;;;;;;;
1848.0;1739.0;;;;;;;0.65993226;-0.39344463;0.1605884;;;;;;;;;;;;
1848.0;1739.9;;;;-0.65459067;0.33614352;0.1976662;;;;;;;;;;;;;;;
1848.0;1739.9;;;;-0.6611405;0.33822635;0.19864276;;;;;;;;;;;;;;;
1848.0;1739.9;;;;-0.6672402;0.34062198;0.19983295;;;;;;;;;;;;;;;
1848.0;1739.9;;;;-0.6737214;0.3429146;0.19985583;;;;;;;;;;;;;;;
1848.0;1739.9;;;;-0.67750174;0.34593585;0.19964221;;;;;;;;;;;;;;;
1848.0;1743.7;262143;262143;13406;;;;;;;;;;;;;;;;;;
1848.0;1748.6;;;;;;;;;;7.717368;3.7804804;11.780145;;;;;;;;;
1848.0;1748.6;;;;;;;0.6598712;-0.3695181;0.15472884;;;;;;;;;;;;
1848.0;1748.6;;;;;;;;;;25.89877;14.038514;26.20014;;;;;;;;;
1848.0;1748.6;;;;;;;0.6659139;-0.34882656;0.14972381;;;;;;;;;;;;
1848.0;1750.0;;;;-0.68119437;0.34772494;0.19990161;;;;;;;;;;;;;;;
1848.0;1750.0;;;;-0.68492514;0.34932712;0.20118716;;;;;;;;;;;;;;;
1848.0;1750.0;;;;-0.6868058;0.35107425;0.20350268;;;;;;;;;;;;;;;
1848.0;1750.0;;;;-0.6884957;0.3526192;0.2059708;;;;;;;;;;;;;;;
1848.0;1750.0;;;;-0.6873589;0.35361865;0.20869449;;;;;;;;;;;;;;;
1848.0;1758.1;;;;;;;;;;41.531876;12.642292;41.310616;;;;;;;;;
1848.0;1758.1;;;;;;;0.66566974;-0.32636493;0.14587848;;;;;;;;;;;;
1848.0;1758.1;;;;;;;;;;50.27543;-25.166325;35.09247;;;;;;;;;
1848.0;1758.1;;;;;;;0.6679281;-0.30463576;0.14166692;;;;;;;;;;;;
1849.0;1759.9;;;;-0.68537146;0.3556824;0.21161655;;;;;;;;;;;;;;;
1849.0;1759.9;;;;-0.6855126;0.35665515;0.21359637;;;;;;;;;;;;;;;
1849.0;1759.9;;;;-0.6834145;0.35777667;0.21572879;;;;;;;;;;;;;;;
1849.0;1759.9;;;;-0.6818543;0.35927203;0.21950915;;;;;;;;;;;;;;;
1849.0;1759.9;;;;-0.6781922;0.36244968;0.22304538;;;;;;;;;;;;;;;
1849.0;1763.8;262143;262143;13409;;;;;;;;;;;;;;;;;;
1849.0;1767.7;;;;;;;;;;62.349316;-27.42088;48.43669;;;;;;;;;
1849.0;1767.7;;;;;;;0.66731775;-0.28321177;0.1386761;;;;;;;;;;;;
1849.0;1767.7;;;;;;;;;;73.057495;-28.740807;61.41087;;;;;;;;;
1849.0;1767.7;;;;;;;0.6773278;-0.26093325;0.13879818;;;;;;;;;;;;
1849.0;1769.9;;;;;;;;;;;;;2085;;;;;;;;
1849.0;1769.9;;;;;;;;;;;;;2556;;;;;;;;
1849.0;1769.9;;;;;;;;;;;;;2915;;;;;;;;
1849.0;1769.9;;;;;;;;;;;;;2915;;;;;;;;
1849.0;1769.9;;;;;;;;;;;;;2578;;;;;;;;
1849.0;1770.0;;;;-0.67937857;0.3640671;0.22669604;;;;;;;;;;;;;;;
1849.0;1770.0;;;;-0.676632;0.36609653;0.23088077;;;;;;;;;;;;;;;
1849.0;1770.0;;;;-0.66948706;0.36927035;0.2377167;;;;;;;;;;;;;;;
1849.0;1770.0;;;;-0.66792685;0.3741875;0.24345782;;;;;;;;;;;;;;;
1849.0;1770.0;;;;-0.66751486;0.37959296;0.24634174;;;;;;;;;;;;;;;
1849.0;1777.3;;;;;;;;;;80.14542;-22.160252;77.95572;;;;;;;;;
1849.0;1777.3;;;;;;;0.69252604;-0.24292734;0.140141;;;;;;;;;;;;
1849.0;1777.3;;;;;;;;;;78.787346;-14.255959;86.809906;;;;;;;;;
1849.0;1777.3;;;;;;;0.7069918;-0.22461623;0.1413007;;;;;;;;;;;;
1850.0;1780.2;;;;-0.6665116;0.38605124;0.24944308;;;;;;;;;;;;;;;
1850.0;1780.2;;;;-0.6690293;0.39183432;0.25410846;;;;;;;;;;;;;;;
1850.0;1780.2;;;;-0.66917044;0.39963156;0.2587624;;;;;;;;;;;;;;;
1850.0;1780.2;;;;-0.67293173;0.40704352;0.26441196;;;;;;;;;;;;;;;
1850.0;1780.2;;;;-0.6753922;0.41548926;0.26833346;;;;;;;;;;;;;;;
1850.0;1784.1;262143;262143;13405;;;;;;;;;;;;;;;;;;
1850.0;1786.9;;;;;;;;;;75.50661;-14.614552;86.72979;;;;;;;;;
1850.0;1786.9;;;;;;;0.7208472;-0.21076083;0.14026307;;;;;;;;;;;;
1850.0;1786.9;;;;;;;;;;72.09235;-14.969329;86.69546;;;;;;;;;
1850.0;1786.9;;;;;;;0.7381207;-0.19568469;0.13818781;;;;;;;;;;;;
1850.0;1790.2;;;;-0.6780663;0.42652518;0.2739983;;;;;;;;;;;;;;;
1850.0;1790.2;;;;-0.6804734;0.43648535;0.28038028;;;;;;;;;;;;;;;
1850.0;1790.2;;;;-0.68676764;0.44632345;0.2901154;;;;;;;;;;;;;;;
1850.0;1790.2;;;;-0.6929322;0.4592629;0.30198672;;;;;;;;;;;;;;;
1850.0;1790.2;;;;-0.69997793;0.47272116;0.31460956;;;;;;;;;;;;;;;
1851.0;1791.0;;;;;;;;;;;;;;;;;-34.043396;15.263069;58.709984;;1676.3
1851.0;1791.0;;;;;;;;;;;;;;0.8843654;0.8582415;-0.25415814;;;;;1676.3
1851.0;1791.0;;;;;;;;;;;;;;;;;-40.08606;22.797327;56.760612;;1676.3
1851.0;1791.0;;;;;;;;;;;;;;0.8527482;0.92770165;-0.23474838;;;;;1676.3
1851.0;1791.0;;;;;;;;;;;;;;;;;-45.793022;31.369213;55.501724;;1685.9
1851.0;1791.0;;;;;;;;;;;;;;0.77517015;0.9798273;-0.20166631;;;;;1685.9
1851.0;1791.0;;;;;;;;;;;;;;;;;-50.64928;37.827694;54.50606;;1685.9
1851.0;1791.0;;;;;;;;;;;;;;0.71303445;1.0198065;-0.15778069;;;;;1685.9
1851.0;1791.0;;;;;;;;;;;;;;;;;-53.277687;43.057804;53.102207;;1695.6
1851.0;1791.0;;;;;;;;;;;;;;0.5991394;1.0448927;-0.06610309;;;;;1695.6
1851.0;1791.0;;;;;;;;;;;;;;;;;-54.006317;39.44517;51.873837;;1695.6
1851.0;1791.0;;;;;;;;;;;;;;0.52821434;1.0461135;-0.0441908;;;;;1695.6
1851.0;1796.4;;;;;;;;;;68.39579;-15.65218;86.455124;;;;;;;;;
1851.0;1796.4;;;;;;;0.75673693;-0.17999817;0.13629566;;;;;;;;;;;;
1851.0;1796.4;;;;;;;;;;64.61913;-16.567736;85.97064;;;;;;;;;
1851.0;1796.4;;;;;;;0.7709586;-0.16351818;0.13226722;;;;;;;;;;;;
1851.0;1800.1;;;;-0.71371466;0.4873734;0.3260956;;;;;;;;;;;;;;;
1851.0;1800.1;;;;-0.7236443;0.50254446;0.33665088;;;;;;;;;;;;;;;
1851.0;1800.1;;;;-0.73421866;0.5164147;0.34814838;;;;;;;;;;;;;;;
1851.0;1800.1;;;;-0.7577516;0.5304337;0.35702136;;;;;;;;;;;;;;;
1851.0;1800.1;;;;-0.7694932;0.5437508;0.36708835;;;;;;;;;;;;;;;
1851.0;1804.1;262143;262143;13409;;;;;;;;;;;;;;;;;;
1904.0;1805.9;;;;;;;;;;60.544907;-17.780846;85.60061;;;;;;;;;
1904.0;1805.9;;;;;;;0.7803583;-0.14166692;0.12640767;;;;;;;;;;;;
1904.0;1805.9;;;;;;;;;;56.215096;-19.325848;85.25727;;;;;;;;;
1904.0;1805.9;;;;;;;0.7851192;-0.12164678;0.12207404;;;;;;;;;;;;
1904.0;1810.1;;;;;;;;;;;;;2189;;;;;;;;
1904.0;1810.1;;;;;;;;;;;;;1824;;;;;;;;
1904.0;1810.1;;;;;;;;;;;;;1173;;;;;;;;
1904.0;1810.1;;;;;;;;;;;;;321;;;;;;;;
1904.0;1810.1;;;;;;;;;;;;;-235;;;;;;;;
1904.0;1810.1;;;;-0.783291;0.55694586;0.3783074;;;;;;;;;;;;;;;
1904.0;1810.1;;;;-0.79976666;0.56971747;0.38765723;;;;;;;;;;;;;;;
1904.0;1810.1;;;;-0.81448376;0.58595663;0.3961411;;;;;;;;;;;;;;;
1904.0;1810.1;;;;-0.82997906;0.60114294;0.40131384;;;;;;;;;;;;;;;
1904.0;1810.1;;;;-0.84388745;0.61414725;0.40538412;;;;;;;;;;;;;;;
1904.0;1815.3;;;;;;;;;;51.847134;-20.966217;85.12376;;;;;;;;;
1904.0;1815.3;;;;;;;0.78615683;-0.10095523;0.117984556;;;;;;;;;;;;
1904.0;1815.3;;;;;;;;;;47.39906;-22.896511;84.933014;;;;;;;;;
1904.0;1815.3;;;;;;;0.7880489;-0.08008057;0.11450545;;;;;;;;;;;;
1904.0;1820.1;;;;-0.8573762;0.62676626;0.41118628;;;;;;;;;;;;;;;
1904.0;1820.1;;;;-0.8675958;0.6393624;0.41455847;;;;;;;;;;;;;;;
1904.0;1820.1;;;;-0.87825024;0.6505738;0.41892248;;;;;;;;;;;;;;;
1904.0;1820.1;;;;-0.8951379;0.6606408;0.42113882;;;;;;;;;;;;;;;
1904.0;1820.1;;;;-0.90418637;0.6666985;0.42475134;;;;;;;;;;;;;;;
1904.0;1824.1;262143;262143;13390;;;;;;;;;;;;;;;;;;
1909.0;1824.9;;;;;;;;;;42.855618;-25.208288;84.44853;;;;;;;;;
1909.0;1824.9;;;;;;;0.7890866;-0.056825466;0.113956116;;;;;;;;;;;;
1909.0;1824.9;;;;;;;;;;38.32362;-27.859583;83.746605;;;;;;;;;
1909.0;1824.9;;;;;;;0.7955565;-0.033692434;0.11633656;;;;;;;;;;;;
1909.0;1830.2;;;;-0.9083444;0.671814;0.4299851;;;;;;;;;;;;;;;
1909.0;1830.2;;;;-0.9118844;0.6781197;0.4337502;;;;;;;;;;;;;;;
1909.0;1830.2;;;;-0.9118577;0.6820298;0.43606573;;;;;;;;;;;;;;;
1909.0;1830.2;;;;-0.90944684;0.6832543;0.4398232;;;;;;;;;;;;;;;
1909.0;1830.2;;;;-0.90854657;0.6846619;0.44351965;;;;;;;;;;;;;;;
1909.0;1834.5;;;;;;;;;;33.89462;-30.91525;82.83486;;;;;;;;;
1909.0;1834.5;;;;;;;0.80776393;-0.013000885;0.12024293;;;;;;;;;;;;
1909.0;1834.5;;;;;;;;;;29.713585;-34.089172;81.59886;;;;;;;;;
1909.0;1834.5;;;;;;;0.8185064;0.0040894803;0.12457655;;;;;;;;;;;;
1909.0;1840.3;;;;-0.9065629;0.6831246;0.4454003;;;;;;;;;;;;;;;
1909.0;1840.3;;;;-0.8980104;0.68025976;0.4486428;;;;;;;;;;;;;;;
1909.0;1840.3;;;;-0.8881837;0.67786413;0.4554177;;;;;;;;;;;;;;;
1909.0;1840.3;;;;-0.8786279;0.6740189;0.45743185;;;;;;;;;;;;;;;
1909.0;1840.3;;;;-0.8713037;0.67060477;0.46163565;;;;;;;;;;;;;;;
1909.0;1844.2;;;;;;;;;;25.551622;-37.694176;80.324715;;;;;;;;;
1909.0;1844.2;;;;;;;0.8328501;0.017883847;0.13019197;;;;;;;;;;;;
1909.0;1844.2;;;;;;;;;;21.473587;-41.287727;78.867455;;;;;;;;;
1909.0;1844.2;;;;;;;0.84322643;0.031861324;0.13702811;;;;;;;;;;;;
1909.0;1844.4;262143;262143;13391;;;;;;;;;;;;;;;;;;
1911.0;1850.4;;;;-0.8677255;0.66724783;0.4628983;;;;;;;;;;;;;;;
1911.0;1850.4;;;;-0.86607754;0.6632348;0.46461493;;;;;;;;;;;;;;;
1911.0;1850.4;;;;-0.86324704;0.66211706;0.46741492;;;;;;;;;;;;;;;
1911.0;1850.4;;;;-0.863907;0.660389;0.47071844;;;;;;;;;;;;;;;
1911.0;1850.4;;;;-0.85876477;0.65691;0.47604376;;;;;;;;;;;;;;;
1911.0;1850.4;;;;;;;;;;;;;-381;;;;;;;;
1911.0;1850.4;;;;;;;;;;;;;-324;;;;;;;;
1911.0;1850.4;;;;;;;;;;;;;-255;;;;;;;;
1911.0;1850.4;;;;;;;;;;;;;-311;;;;;;;;
1911.0;1850.4;;;;;;;;;;;;;-355;;;;;;;;
1911.0;1853.8;;;;;;;;;;17.502365;-44.534134;76.99057;;;;;;;;;
1911.0;1853.8;;;;;;;0.8633076;0.042176582;0.14276558;;;;;;;;;;;;
1911.0;1853.8;;;;;;;;;;13.401441;-47.135838;74.892426;;;;;;;;;
1911.0;1853.8;;;;;;;0.87978756;0.052308727;0.15192114;;;;;;;;;;;;
1911.0;1860.4;;;;-0.8596574;0.65564734;0.47902304;;;;;;;;;;;;;;;
1911.0;1860.4;;;;-0.8630105;0.65324026;0.48022848;;;;;;;;;;;;;;;
1911.0;1860.4;;;;-0.8610612;0.6519814;0.48146063;;;;;;;;;;;;;;;
1911.0;1860.4;;;;-0.8573991;0.64994055;0.4828263;;;;;;;;;;;;;;;
1911.0;1860.4;;;;-0.8519212;0.65084463;0.48699576;;;;;;;;;;;;;;;
1911.0;1863.3;;;;;;;;;;9.273812;-49.668873;72.9545;;;;;;;;;
1911.0;1863.3;;;;;;;0.89779353;0.06207465;0.15808588;;;;;;;;;;;;
1911.0;1863.3;;;;;;;;;;4.989776;-52.014984;70.93646;;;;;;;;;
1911.0;1863.3;;;;;;;0.9129917;0.0733665;0.1610767;;;;;;;;;;;;
1911.0;1864.5;262143;262143;13369;;;;;;;;;;;;;;;;;;
1962.0;1870.4;;;;-0.85439694;0.650528;0.4877053;;;;;;;;;;;;;;;
1962.0;1870.4;;;;-0.851143;0.64942557;0.48982245;;;;;;;;;;;;;;;
1962.0;1870.4;;;;-0.8497735;0.65222937;0.49041373;;;;;;;;;;;;;;;
1962.0;1870.4;;;;-0.8433496;0.65274817;0.49148566;;;;;;;;;;;;;;;
1962.0;1870.4;;;;-0.83646405;0.6537476;0.49451452;;;;;;;;;;;;;;;
1962.0;1872.7;;;;;;;;;;0.61037016;-54.02158;69.02142;;;;;;;;;
1962.0;1872.7;;;;;;;0.92355114;0.08667257;0.16309091;;;;;;;;;;;;
1962.0;1872.7;;;;;;;;;;-4.0055547;-55.520798;66.94998;;;;;;;;;
1962.0;1872.7;;;;;;;0.93331707;0.098941006;0.1657155;;;;;;;;;;;;
1962.0;1880.3;;;;-0.8366853;0.65474325;0.49695212;;;;;;;;;;;;;;;
1962.0;1880.3;;;;-0.8311883;0.65443426;0.49844748;;;;;;;;;;;;;;;
1962.0;1880.3;;;;-0.8210336;0.6542893;0.50020224;;;;;;;;;;;;;;;
1962.0;1880.3;;;;-0.8127862;0.65536886;0.5020905;;;;;;;;;;;;;;;
1962.0;1880.3;;;;-0.80965817;0.65403754;0.5019379;;;;;;;;;;;;;;;
1962.0;1882.3;;;;;;;;;;-8.743553;-56.61565;64.39406;;;;;;;;;
1962.0;1882.3;;;;;;;0.9424116;0.11127049;0.16779077;;;;;;;;;;;;
1962.0;1882.3;;;;;;;;;;-13.607441;-57.657093;61.49861;;;;;;;;;
1962.0;1882.3;;;;;;;0.95309305;0.12347789;0.1662038;;;;;;;;;;;;
1962.0;1884.5;262143;262143;13376;;;;;;;;;;;;;;;;;;
1966.0;1890.4;;;;-0.7980195;0.650013;0.5063363;;;;;;;;;;;;;;;
1966.0;1890.4;;;;-0.7908441;0.6465722;0.508812;;;;;;;;;;;;;;;
1966.0;1890.4;;;;-0.78564084;0.64204794;0.5106278;;;;;;;;;;;;;;;
1966.0;1890.4;;;;-0.77972806;0.6374131;0.51419836;;;;;;;;;;;;;;;
1966.0;1890.4;;;;-0.7783929;0.6302338;0.5164071;;;;;;;;;;;;;;;
1966.0;1890.6;;;;;;;;;;;;;-56;;;;;;;;
1966.0;1890.6;;;;;;;;;;;;;632;;;;;;;;
1966.0;1890.6;;;;;;;;;;;;;1193;;;;;;;;
1966.0;1890.6;;;;;;;;;;;;;1189;;;;;;;;
1966.0;1890.6;;;;;;;;;;;;;942;;;;;;;;
1966.0;1891.9;;;;;;;;;;-18.43318;-58.839687;58.46202;;;;;;;;;
1966.0;1891.9;;;;;;;0.9620655;0.13043611;0.16608173;;;;;;;;;;;;
1966.0;1891.9;;;;;;;;;;-23.136845;-60.003204;55.295723;;;;;;;;;
1966.0;1891.9;;;;;;;0.9658498;0.13776055;0.16229743;;;;;;;;;;;;
1966.0;1900.6;;;;-0.7755624;0.6235581;0.5191689;;;;;;;;;;;;;;;
1966.0;1900.6;;;;-0.7707788;0.61736304;0.52200705;;;;;;;;;;;;;;;
1966.0;1900.6;;;;-0.7731668;0.6114388;0.52384573;;;;;;;;;;;;;;;
1966.0;1900.6;;;;-0.78055966;0.6037064;0.52363974;;;;;;;;;;;;;;;
1966.0;1900.6;;;;-0.78141034;0.594513;0.5241547;;;;;;;;;;;;;;;
1966.0;1901.5;;;;;;;;;;-27.890102;-60.956905;52.0455;;;;;;;;;
1966.0;1901.5;;;;;;;0.96823025;0.14319284;0.16028321;;;;;;;;;;;;
1966.0;1901.5;;;;;;;;;;-32.834103;-61.906796;48.60454;;;;;;;;;
1966.0;1901.5;;;;;;;0.9735404;0.15033418;0.15576647;;;;;;;;;;;;
1968.0;1903.4;;;;;;;;;;;;;;;;;-53.403576;34.764397;50.71413;;1705.3
1968.0;1903.4;;;;;;;;;;;;;;0.47492903;1.0077212;-0.016052736;;;;;1705.3
1968.0;1903.4;;;;;;;;;;;;;;;;;-53.632465;26.65029;48.34895;;1705.3
1968.0;1903.4;;;;;;;;;;;;;;0.46284372;0.9844661;-0.0046388134;;;;;1705.3
1968.0;1903.4;;;;;;;;;;;;;;;;;-55.96713;19.196144;45.10254;;1715.0
1968.0;1903.4;;;;;;;;;;;;;;0.44123662;0.94552445;-0.015991699;;;;;1715.0
1968.0;1903.4;;;;;;;;;;;;;;;;;-60.399944;13.317514;41.611988;;1715.0
1968.0;1903.4;;;;;;;;;;;;;;0.4148076;0.911771;-0.009949034;;;;;1715.0
1968.0;1903.4;;;;;;;;;;;;;;;;;-64.52376;5.3750725;37.89636;;1724.5
1968.0;1903.4;;;;;;;;;;;;;;0.43024996;0.8830836;-0.027405621;;;;;1724.5
1968.0;1903.4;;;;;;;;;;;;;;;;;-66.92328;-1.2169256;33.982357;;1724.5
1968.0;1903.4;;;;;;;;;;;;;;0.4623554;0.8523209;-0.049134802;;;;;1724.5
1968.0;1904.2;;;;;;;;;;;;;;;;;-67.04154;-7.457961;29.190954;;1734.2
1968.0;1904.2;;;;;;;;;;;;;;0.5228431;0.83437604;-0.052980132;;;;;1734.2
1968.0;1904.2;;;;;;;;;;;;;;;;;-64.00876;-12.562181;23.25129;;1734.2
1968.0;1904.2;;;;;;;;;;;;;;0.5958434;0.81838435;-0.052980132;;;;;1734.2
1968.0;1904.2;;;;;;;;;;;;;;;;;-58.82443;-15.930662;16.029848;;1743.9
1968.0;1904.2;;;;;;;;;;;;;;0.6886807;0.8135014;-0.052369762;;;;;1743.9
1968.0;1904.2;;;;;;;;;;;;;;;;;-53.437912;-16.281626;7.194739;;1743.9
1968.0;1904.2;;;;;;;;;;;;;;0.7660756;0.8033692;-0.046021912;;;;;1743.9
1968.0;1904.2;;;;;;;;;;;;;;;;;-49.65743;-14.717551;-2.4529252;;1753.5
1968.0;1904.2;;;;;;;;;;;;;;0.8157598;0.7794427;-0.039429914;;;;;1753.5
1968.0;1904.2;;;;;;;;;;;;;;;;;-47.57073;-13.225959;-12.489699;;1753.5
1968.0;1904.2;;;;;;;;;;;;;;0.8483535;0.71626943;-0.05322428;;;;;1753.5
1970.0;1904.7;262143;262143;13356;;;;;;;;;;;;;;;;;;
1970.0;1905.4;;;;;;;;;;;;;;;;;-46.681873;-9.716331;-23.110142;;1763.0
1970.0;1905.4;;;;;;;;;;;;;;0.8675802;0.6376537;-0.067873165;;;;;1763.0
1970.0;1905.4;;;;;;;;;;;;;;;;;-44.835503;-4.562517;-35.050507;;1763.0
1970.0;1905.4;;;;;;;;;;;;;;0.87362283;0.5739311;-0.0717185;;;;;1763.0
1970.0;1905.4;;;;;;;;;;;;;;;;;-41.119877;-1.5335552;-47.78054;;1772.7
1970.0;1905.4;;;;;;;;;;;;;;0.88570815;0.5450606;-0.08941923;;;;;1772.7
1970.0;1905.4;;;;;;;;;;;;;;;;;-36.275063;-0.11825922;-60.46098;;1772.7
1970.0;1905.4;;;;;;;;;;;;;;0.8987701;0.52076787;-0.09033479;;;;;1772.7
1970.0;1905.4;;;;;;;;;;;;;;;;;-31.487473;-0.7324442;-73.04605;;1782.4
1970.0;1905.4;;;;;;;;;;;;;;0.92953277;0.50593585;-0.09302042;;;;;1782.4
1970.0;1905.4;;;;;;;;;;;;;;;;;-27.905361;-0.6637776;-85.48616;;1782.4
1970.0;1905.4;;;;;;;;;;;;;;0.9804987;0.50361645;-0.11120945;;;;;1782.4
1972.0;1906.1;;;;;;;;;;;;;;;;;-25.749992;4.947813;-97.994934;;1792.0
1972.0;1906.1;;;;;;;;;;;;;;1.0086977;0.50160223;-0.109622486;;;;;1792.0
1972.0;1906.1;;;;;;;;;;;;;;;;;-23.899809;13.153478;-111.0683;;1792.0
1972.0;1906.1;;;;;;;;;;;;;;1.0178534;0.499588;-0.09454634;;;;;1792.0
1972.0;1906.1;;;;;;;;;;;;;;;;;-21.80166;18.944365;-122.238075;;1801.6
1972.0;1906.1;;;;;;;;;;;;;;1.0286568;0.50972015;-0.10388501;;;;;1801.6
1972.0;1906.1;;;;;;;;;;;;;;;;;-20.020142;20.798365;-124.988556;;1801.6
1972.0;1906.1;;;;;;;;;;;;;;1.0427564;0.52735984;-0.13434248;;;;;1801.6
1972.0;1906.1;;;;;;;;;;;;;;;;;-19.207588;19.505142;-124.988556;;1811.3
1972.0;1906.1;;;;;;;;;;;;;;1.0524613;0.5470748;-0.17572558;;;;;1811.3
1972.0;1906.1;;;;;;;;;;;;;;;;;-19.508957;16.37318;-124.988556;;1811.3
1972.0;1906.1;;;;;;;;;;;;;;1.0711386;0.5699637;-0.20941801;;;;;1811.3
1972.0;1906.9;;;;;;;;;;;;;;;;;-20.661032;12.565996;-124.988556;;1820.8
1972.0;1906.9;;;;;;;;;;;;;;1.1203345;0.63234353;-0.20978424;;;;;1820.8
1972.0;1906.9;;;;;;;;;;;;;;;;;-22.236547;9.296701;-124.988556;;1820.8
1972.0;1906.9;;;;;;;;;;;;;;1.205176;0.74703205;-0.19525743;;;;;1820.8
1972.0;1906.9;;;;;;;;;;;;;;;;;-24.906918;8.491775;-124.988556;;1830.4
1972.0;1906.9;;;;;;;;;;;;;;1.2921537;0.8809473;-0.17969298;;;;;1830.4
1972.0;1906.9;;;;;;;;;;;;;;;;;-30.579546;8.327739;-124.988556;;1830.4
1972.0;1906.9;;;;;;;;;;;;;;1.3393353;0.9858089;-0.18231757;;;;;1830.4
1972.0;1906.9;;;;;;;;;;;;;;;;;-39.49095;4.6998506;-124.988556;;1840.1
1972.0;1906.9;;;;;;;;;;;;;;1.3900571;1.0401318;-0.21289712;;;;;1840.1
1972.0;1906.9;;;;;;;;;;;;;;;;;-46.571247;-1.6098514;-124.988556;;1840.1
1972.0;1906.9;;;;;;;;;;;;;;1.4769738;1.0992156;-0.26374096;;;;;1840.1
1973.0;1910.2;;;;-0.77746594;0.58515555;0.52639776;;;;;;;;;;;;;;;
1973.0;1910.2;;;;-0.773327;0.575779;0.5295525;;;;;;;;;;;;;;;
1973.0;1910.2;;;;-0.7717515;0.5672837;0.53443533;;;;;;;;;;;;;;;
1973.0;1910.2;;;;-0.7707902;0.55919653;0.5398446;;;;;;;;;;;;;;;
1973.0;1910.2;;;;-0.76670086;0.55204016;0.5464974;;;;;;;;;;;;;;;
1973.0;1910.7;;;;;;;;;;-37.743767;-62.818535;44.766838;;;;;;;;;
1973.0;1910.7;;;;;;;0.9820246;0.1556444;0.15497299;;;;;;;;;;;;
1973.0;1910.7;;;;;;;;;;-42.53517;-63.623466;40.684986;;;;;;;;;
1973.0;1910.7;;;;;;;0.99148536;0.1638844;0.15674306;;;;;;;;;;;;
1973.0;1920.2;;;;-0.7646409;0.5448571;0.5540696;;;;;;;;;;;;;;;
1973.0;1920.2;;;;-0.7633401;0.5380097;0.56083685;;;;;;;;;;;;;;;
1973.0;1920.2;;;;-0.7626916;0.53052145;0.56599814;;;;;;;;;;;;;;;
1973.0;1920.2;;;;-0.7708589;0.5211144;0.5697709;;;;;;;;;;;;;;;
1973.0;1920.2;;;;-0.7716142;0.51196295;0.57472235;;;;;;;;;;;;;;;
1973.0;1920.2;;;;;;;;;;-47.364727;-64.87854;36.561176;;;;;;;;;
1973.0;1920.2;;;;;;;1.0038759;0.16449477;0.15448469;;;;;;;;;;;;
1973.0;1920.2;;;;;;;;;;-51.984467;-66.3091;32.403027;;;;;;;;;
1973.0;1920.2;;;;;;;1.0208441;0.16492203;0.15198217;;;;;;;;;;;;
1973.0;1924.5;262143;262143;13348;;;;;;;;;;;;;;;;;;
1973.0;1929.8;;;;;;;;;;-56.646168;-66.94235;28.118992;;;;;;;;;
1973.0;1929.8;;;;;;;1.0384228;0.16205329;0.14984588;;;;;;;;;;;;
1973.0;1929.8;;;;;;;;;;-61.30787;-66.58376;23.75103;;;;;;;;;
1973.0;1929.8;;;;;;;1.063448;0.164861;0.15106662;;;;;;;;;;;;
2020.0;1930.3;;;;-0.7691575;0.50290304;0.5818978;;;;;;;;;;;;;;;
2020.0;1930.3;;;;-0.77189267;0.49503714;0.58985525;;;;;;;;;;;;;;;
2020.0;1930.3;;;;-0.77723706;0.4884835;0.5969544;;;;;;;;;;;;;;;
2020.0;1930.3;;;;-0.78590405;0.4818154;0.603138;;;;;;;;;;;;;;;
2020.0;1930.3;;;;-0.79403317;0.4761544;0.6090508;;;;;;;;;;;;;;;
2020.0;1930.5;;;;;;;;;;;;;936;;;;;;;;
2020.0;1930.5;;;;;;;;;;;;;1016;;;;;;;;
2020.0;1930.5;;;;;;;;;;;;;818;;;;;;;;
2020.0;1930.5;;;;;;;;;;;;;515;;;;;;;;
2020.0;1930.5;;;;;;;;;;;;;493;;;;;;;;
2020.0;1938.7;;;;;;;;;;-65.93906;-65.969574;19.310587;;;;;;;;;
2020.0;1938.7;;;;;;;1.0999482;0.16907254;0.14984588;;;;;;;;;;;;
2020.0;1938.7;;;;;;;;;;-70.78005;-64.554276;14.988402;;;;;;;;;
2020.0;1938.7;;;;;;;1.1365703;0.1737724;0.1485641;;;;;;;;;;;;
2020.0;1939.7;;;;-0.7988626;0.4705773;0.6159211;;;;;;;;;;;;;;;
2020.0;1939.7;;;;-0.8077699;0.46496588;0.6228867;;;;;;;;;;;;;;;
2020.0;1939.7;;;;-0.8178941;0.45842367;0.62995535;;;;;;;;;;;;;;;
2020.0;1939.7;;;;-0.8263475;0.4516564;0.6359444;;;;;;;;;;;;;;;
2020.0;1939.7;;;;-0.83358777;0.4434052;0.6416741;;;;;;;;;;;;;;;
2020.0;1944.0;262143;262143;13333;;;;;;;;;;;;;;;;;;
2020.0;1948.4;;;;;;;;;;-75.621056;-62.055573;10.807367;;;;;;;;;
2020.0;1948.4;;;;;;;1.1832637;0.17468795;0.14960173;;;;;;;;;;;;
2020.0;1948.4;;;;;;;;;;-80.42771;-58.49254;6.6492205;;;;;;;;;
2020.0;1948.4;;;;;;;1.2408216;0.17615284;0.1525315;;;;;;;;;;;;
2022.0;1949.8;;;;-0.8398973;0.43512732;0.6449662;;;;;;;;;;;;;;;
2022.0;1949.8;;;;-0.8437463;0.4267655;0.6481057;;;;;;;;;;;;;;;
2022.0;1949.8;;;;-0.8442155;0.419056;0.65287405;;;;;;;;;;;;;;;
2022.0;1949.8;;;;-0.84653866;0.41154867;0.6606675;;;;;;;;;;;;;;;
2022.0;1949.8;;;;-0.8525697;0.40486532;0.6683846;;;;;;;;;;;;;;;
2022.0;1958.0;;;;;;;;;;-85.12757;-53.273872;2.578814;;;;;;;;;
2022.0;1958.0;;;;;;;1.3079013;0.17084262;0.15655996;;;;;;;;;;;;
2022.0;1958.0;;;;;;;;;;-89.85412;-46.81921;-1.7090366;;;;;;;;;
2022.0;1958.0;;;;;;;1.3940855;0.15265359;0.15955077;;;;;;;;;;;;
2022.0;1959.9;;;;-0.8561708;0.3979035;0.6749154;;;;;;;;;;;;;;;
2022.0;1959.9;;;;-0.85987866;0.3904038;0.680729;;;;;;;;;;;;;;;
2022.0;1959.9;;;;-0.86444104;0.38280493;0.6838036;;;;;;;;;;;;;;;
2022.0;1959.9;;;;-0.86431515;0.37546545;0.6866799;;;;;;;;;;;;;;;
2022.0;1959.9;;;;-0.8641778;0.36975482;0.688881;;;;;;;;;;;;;;;
2024.0;1963.3;;;;;;;;;;;;;;;;;-50.77517;-5.1728873;-124.988556;;1849.7
2024.0;1963.3;;;;;;;;;;;;;;1.5500962;1.0575885;-0.31415755;;;;;1849.7
2024.0;1963.3;;;;;;;;;;;;;;;;;-52.030243;-5.8175907;-124.988556;;1849.7
2024.0;1963.3;;;;;;;;;;;;;;1.6266365;0.9542528;-0.34107485;;;;;1849.7
2024.0;1963.3;;;;;;;;;;;;;;;;;-51.866207;-7.889035;-124.988556;;1859.3
2024.0;1963.3;;;;;;;;;;;;;;1.7004303;0.8148442;-0.35224465;;;;;1859.3
2024.0;1963.3;;;;;;;;;;;;;;;;;-50.851467;-8.175146;-124.988556;;1859.3
2024.0;1963.3;;;;;;;;;;;;;;1.782464;0.6798303;-0.37653738;;;;;1859.3
2024.0;1963.3;;;;;;;;;;;;;;;;;-49.13862;-3.0251474;-124.988556;;1868.6
2024.0;1963.3;;;;;;;;;;;;;;1.8313547;0.53596604;-0.38734093;;;;;1868.6
2024.0;1963.3;;;;;;;;;;;;;;;;;-39.872433;3.357036;-124.988556;;1868.6
2024.0;1963.3;;;;;;;;;;;;;;1.8510087;0.36640522;-0.39545885;;;;;1868.6
2024.0;1964.5;;;;;;;;;;;;;;;;;-23.064363;5.130924;-124.988556;;1878.3
2024.0;1964.5;;;;;;;;;;;;;;1.8954436;0.29493088;-0.34223455;;;;;1878.3
2024.0;1964.5;;;;;;;;;;;;;;;;;-12.352367;2.7428513;-124.988556;;1878.3
2024.0;1964.5;;;;;;;;;;;;;;1.9016694;0.18213446;-0.3571276;;;;;1878.3
2024.0;1964.5;;;;;;;;;;;;;;;;;-8.987701;7.0078125;-124.988556;;1888.0
2024.0;1964.5;;;;;;;;;;;;;;1.8690755;0.15192114;-0.30231637;;;;;1888.0
2024.0;1964.5;;;;;;;;;;;;;;;;;-10.9904785;16.010773;-124.988556;;1888.0
2024.0;1964.5;;;;;;;;;;;;;;1.830134;-0.011902219;-0.2684408;;;;;1888.0
2024.0;1964.5;;;;;;;;;;;;;;;;;0.0839259;28.44325;-124.988556;;1897.6
2024.0;1964.5;;;;;;;;;;;;;;1.7879574;-0.05304117;-0.14447463;;;;;1897.6
2024.0;1964.5;;;;;;;;;;;;;;;;;4.711295;32.116917;-124.988556;;1897.6
2024.0;1964.5;;;;;;;;;;;;;;1.7598194;-0.05426191;-0.054383986;;;;;1897.6
2026.0;1964.3;262143;262143;13344;;;;;;;;;;;;;;;;;;
2026.0;1967.5;;;;;;;;;;-94.794304;-39.677876;-6.7712946;;;;;;;;;
2026.0;1967.5;;;;;;;1.4929655;0.11792352;0.16180913;;;;;;;;;;;;
2026.0;1967.5;;;;;;;;;;-99.88326;-31.403545;-12.405774;;;;;;;;;
2026.0;1967.5;;;;;;;1.5925169;0.07184057;0.1652272;;;;;;;;;;;;
2026.0;1969.9;;;;-0.8660928;0.3641205;0.69274145;;;;;;;;;;;;;;;
2026.0;1969.9;;;;-0.87119687;0.35751346;0.69876486;;;;;;;;;;;;;;;
2026.0;1969.9;;;;-0.87334454;0.35129932;0.7084618;;;;;;;;;;;;;;;
2026.0;1969.9;;;;-0.87519085;0.34541324;0.71890646;;;;;;;;;;;;;;;
2026.0;1969.9;;;;-0.87762463;0.34067157;0.72754294;;;;;;;;;;;;;;;
2026.0;1970.2;;;;;;;;;;;;;590;;;;;;;;
2026.0;1970.2;;;;;;;;;;;;;483;;;;;;;;
2026.0;1970.2;;;;;;;;;;;;;193;;;;;;;;
2026.0;1970.2;;;;;;;;;;;;;-145;;;;;;;;
2026.0;1970.2;;;;;;;;;;;;;-586;;;;;;;;
2026.0;1977.1;;;;;;;;;;-105.26597;-22.766808;-18.570513;;;;;;;;;
2026.0;1977.1;;;;;;;1.6782739;0.013672292;0.16400647;;;;;;;;;;;;
2026.0;1977.1;;;;;;;;;;-111.44215;-14.02707;-25.189215;;;;;;;;;
2026.0;1977.1;;;;;;;1.7383953;-0.053712577;0.1645558;;;;;;;;;;;;
2026.0;1980.0;;;;-0.8783761;0.3360825;0.73331076;;;;;;;;;;;;;;;
2026.0;1980.0;;;;-0.88178265;0.3322716;0.7406464;;;;;;;;;;;;;;;
2026.0;1980.0;;;;-0.88647854;0.32947162;0.7490311;;;;;;;;;;;;;;;
2026.0;1980.0;;;;-0.8904382;0.32685092;0.7576486;;;;;;;;;;;;;;;
2026.0;1980.0;;;;-0.8927728;0.3246689;0.76547635;;;;;;;;;;;;;;;
2026.0;1984.4;262143;262143;13343;;;;;;;;;;;;;;;;;;
2080.0;1986.7;;;;;;;;;;-117.70226;-4.6197395;-32.662437;;;;;;;;;
2080.0;1986.7;;;;;;;1.7802057;-0.12897122;0.1767632;;;;;;;;;;;;
2080.0;1986.7;;;;;;;;;;-122.71111;6.5805535;-41.36784;;;;;;;;;
2080.0;1986.7;;;;;;;1.8063905;-0.21576586;0.20520645;;;;;;;;;;;;
2080.0;1990.0;;;;-0.896103;0.32173923;0.77266324;;;;;;;;;;;;;;;
2080.0;1990.0;;;;-0.9015428;0.31937793;0.7789041;;;;;;;;;;;;;;;
2080.0;1990.0;;;;-0.90350735;0.31691363;0.7849351;;;;;;;;;;;;;;;
2080.0;1990.0;;;;-0.90465176;0.31641772;0.79166806;;;;;;;;;;;;;;;
2080.0;1990.0;;;;-0.9028894;0.31608966;0.79813397;;;;;;;;;;;;;;;
2080.0;1996.1;;;;;;;;;;-124.782555;17.28492;-51.40843;;;;;;;;;
2080.0;1996.1;;;;;;;1.8225654;-0.3023774;0.2547075;;;;;;;;;;;;
2080.0;1996.1;;;;;;;;;;-124.881744;25.173954;-62.631615;;;;;;;;;
2080.0;1996.1;;;;;;;1.8208563;-0.38886684;0.30494094;;;;;;;;;;;;
2080.0;1999.9;;;;-0.9009477;0.31393817;0.8057405;;;;;;;;;;;;;;;
2080.0;1999.9;;;;-0.90306485;0.31164172;0.8123704;;;;;;;;;;;;;;;
2080.0;1999.9;;;;-0.899418;0.31055072;0.8196031;;;;;;;;;;;;;;;
2080.0;1999.9;;;;-0.894806;0.3063965;0.82701504;;;;;;;;;;;;;;;
2080.0;1999.9;;;;-0.89252865;0.30197528;0.83275616;;;;;;;;;;;;;;;
2080.0;2004.4;262143;262143;13333;;;;;;;;;;;;;;;;;;
2080.0;2005.7;;;;;;;;;;-124.881744;30.266731;-74.571976;;;;;;;;;
2080.0;2005.7;;;;;;;1.812067;-0.46638387;0.35474715;;;;;;;;;;;;
2080.0;2005.7;;;;;;;;;;-124.881744;33.604694;-86.95105;;;;;;;;;
2080.0;2005.7;;;;;;;1.7849666;-0.5213782;0.40144047;;;;;;;;;;;;
2084.0;2010.0;;;;-0.8861886;0.29951862;0.84082425;;;;;;;;;;;;;;;
2084.0;2010.0;;;;-0.88256466;0.29536822;0.8450624;;;;;;;;;;;;;;;
2084.0;2010.0;;;;-0.87861264;0.29141238;0.8493768;;;;;;;;;;;;;;;
2084.0;2010.0;;;;-0.86846554;0.28821567;0.8528253;;;;;;;;;;;;;;;
2084.0;2010.0;;;;-0.86208355;0.28394702;0.8551599;;;;;;;;;;;;;;;
2084.0;2010.5;;;;;;;;;;;;;-1064;;;;;;;;
2084.0;2010.5;;;;;;;;;;;;;-1156;;;;;;;;
2084.0;2010.5;;;;;;;;;;;;;-726;;;;;;;;
2084.0;2010.5;;;;;;;;;;;;;-183;;;;;;;;
2084.0;2010.5;;;;;;;;;;;;;130;;;;;;;;
2084.0;2015.3;;;;;;;;;;-124.881744;35.664692;-99.23093;;;;;;;;;
2084.0;2015.3;;;;;;;1.7519455;-0.553972;0.44141972;;;;;;;;;;;;
2084.0;2015.3;;;;;;;;;;-124.881744;36.98462;-111.22852;;;;;;;;;
2084.0;2015.3;;;;;;;1.7145299;-0.5633106;0.4773095;;;;;;;;;;;;
2084.0;2020.2;;;;-0.8624002;0.2750626;0.85590756;;;;;;;;;;;;;;;
2084.0;2020.2;;;;-0.85785306;0.26625445;0.85645306;;;;;;;;;;;;;;;
2084.0;2020.2;;;;-0.85976803;0.2523308;0.85522854;;;;;;;;;;;;;;;
2084.0;2020.2;;;;-0.85117733;0.24393085;0.8518106;;;;;;;;;;;;;;;
2084.0;2020.2;;;;-0.8343545;0.2376366;0.8537675;;;;;;;;;;;;;;;
2085.0;2024.1;;;;;;;;;;;;;;;;;10.895108;28.786585;-124.988556;;1907.2
2085.0;2024.1;;;;;;;;;;;;;;1.6887112;-0.054383986;-0.038270213;;;;;1907.2
2085.0;2024.1;;;;;;;;;;;;;;;;;18.414106;25.79577;-124.988556;;1907.2
2085.0;2024.1;;;;;;;;;;;;;;1.5757316;0.046143986;-0.07562487;;;;;1907.2
2085.0;2024.1;;;;;;;;;;;;;;;;;28.237251;22.335733;-124.988556;;1916.8
2085.0;2024.1;;;;;;;;;;;;;;1.4601276;0.19086276;-0.07959227;;;;;1916.8
2085.0;2024.1;;;;;;;;;;;;;;;;;32.403027;15.106662;-124.988556;;1916.8
2085.0;2024.1;;;;;;;;;;;;;;1.366863;0.40375987;-0.0992462;;;;;1916.8
2085.0;2024.1;;;;;;;;;;;;;;;;;28.801844;7.255776;-124.988556;;1926.3
2085.0;2024.1;;;;;;;;;;;;;;1.2969756;0.6060976;-0.14252144;;;;;1926.3
2085.0;2024.1;;;;;;;;;;;;;;;;;20.092623;-0.068666644;-124.988556;;1926.3
2085.0;2024.1;;;;;;;;;;;;;;1.2232429;0.7297586;-0.17499313;;;;;1926.3
2085.0;2024.9;;;;;;;;;;;;;;;;;7.6067386;-9.411145;-124.988556;;1936.0
2085.0;2024.9;;;;;;;;;;;;;;1.1674551;0.78237253;-0.2553789;;;;;1936.0
2085.0;2024.9;;;;;;;;;;;;;;;;;-8.457442;-17.799921;-124.988556;;1936.0
2085.0;2024.9;;;;;;;;;;;;;;1.1219825;0.7743156;-0.3233131;;;;;1936.0
2085.0;2024.9;;;;;;;;;;;;;;;;;-27.012697;-25.19303;-124.988556;;1945.7
2085.0;2024.9;;;;;;;;;;;;;;1.112949;0.8105106;-0.36768702;;;;;1945.7
2085.0;2024.9;;;;;;;;;;;;;;;;;-44.270912;-30.667286;-124.988556;;1945.7
2085.0;2024.9;;;;;;;;;;;;;;1.0928679;0.83816034;-0.40455335;;;;;1945.7
2085.0;2024.9;;;;;;;;;;;;;;;;;-56.90176;-33.478806;-124.988556;;1955.3
2085.0;2024.9;;;;;;;;;;;;;;1.0809656;0.84322643;-0.43189794;;;;;1955.3
2085.0;2024.9;;;;;;;;;;;;;;;;;-62.589645;-35.10773;-124.988556;;1955.3
2085.0;2024.9;;;;;;;;;;;;;;1.0643635;0.82973725;-0.43372905;;;;;1955.3
2088.0;2024.7;;;;;;;;;;-124.881744;38.26258;-121.810814;;;;;;;;;
2088.0;2024.7;;;;;;;1.6750389;-0.54750204;0.50776696;;;;;;;;;;;;
2088.0;2024.7;;;;;;;;;;-124.881744;40.517136;-124.87792;;;;;;;;;
2088.0;2024.7;;;;;;;1.6320078;-0.5152135;0.5337687;;;;;;;;;;;;
2088.0;2024.7;262143;262143;13320;;;;;;;;;;;;;;;;;;
2088.0;2029.9;;;;-0.82712185;0.2274132;0.85032666;;;;;;;;;;;;;;;
2088.0;2029.9;;;;-0.81211483;0.22218326;0.8487245;;;;;;;;;;;;;;;
2088.0;2029.9;;;;-0.79919446;0.21725848;0.8477174;;;;;;;;;;;;;;;
2088.0;2029.9;;;;-0.79462063;0.20766833;0.842682;;;;;;;;;;;;;;;
2088.0;2029.9;;;;-0.7924043;0.19666675;0.8374711;;;;;;;;;;;;;;;
2088.0;2034.2;;;;;;;;;;-124.881744;44.042027;-124.881744;;;;;;;;;
2088.0;2034.2;;;;;;;1.5875728;-0.47126684;0.5528123;;;;;;;;;;;;
2088.0;2034.2;;;;;;;;;;-124.881744;49.150063;-124.881744;;;;;;;;;
2088.0;2034.2;;;;;;;1.5457015;-0.428663;0.56410414;;;;;;;;;;;;
2088.0;2039.9;;;;-0.7841188;0.18934253;0.83329785;;;;;;;;;;;;;;;
2088.0;2039.9;;;;-0.78162396;0.17925645;0.8276979;;;;;;;;;;;;;;;
2088.0;2039.9;;;;-0.7789575;0.1712723;0.8219377;;;;;;;;;;;;;;;
2088.0;2039.9;;;;-0.7698556;0.16475298;0.8177148;;;;;;;;;;;;;;;
2088.0;2039.9;;;;-0.7654458;0.15568544;0.81274426;;;;;;;;;;;;;;;
2088.0;2043.7;;;;;;;;;;-124.881744;55.20035;-124.881744;;;;;;;;;
2088.0;2043.7;;;;;;;1.5104831;-0.3952147;0.56758326;;;;;;;;;;;;
2088.0;2043.7;;;;;;;;;;-124.881744;61.0065;-124.881744;;;;;;;;;
2088.0;2043.7;;;;;;;1.4792322;-0.37256998;0.56318855;;;;;;;;;;;;
2143.0;2044.5;262143;262143;13324;;;;;;;;;;;;;;;;;;
2143.0;2049.9;;;;-0.7644464;0.1452408;0.806244;;;;;;;;;;;;;;;
2143.0;2049.9;;;;-0.76106274;0.13519289;0.79774487;;;;;;;;;;;;;;;
2143.0;2049.9;;;;-0.7573396;0.12689592;0.7883264;;;;;;;;;;;;;;;
2143.0;2049.9;;;;-0.7544519;0.11808778;0.7797357;;;;;;;;;;;;;;;
2143.0;2049.9;;;;-0.74981314;0.10977556;0.77245724;;;;;;;;;;;;;;;
2143.0;2050.4;;;;;;;;;;;;;330;;;;;;;;
2143.0;2050.4;;;;;;;;;;;;;565;;;;;;;;
2143.0;2050.4;;;;;;;;;;;;;622;;;;;;;;
2143.0;2050.4;;;;;;;;;;;;;474;;;;;;;;
2143.0;2050.4;;;;;;;;;;;;;546;;;;;;;;
2143.0;2053.1;;;;;;;;;;-124.85885;66.969055;-124.881744;;;;;;;;;
2143.0;2053.1;;;;;;;1.4666585;-0.3620716;0.5614795;;;;;;;;;;;;
2143.0;2053.1;;;;;;;;;;-124.37055;72.87057;-124.881744;;;;;;;;;
2143.0;2053.1;;;;;;;1.4707481;-0.3653676;0.55458236;;;;;;;;;;;;
2143.0;2059.9;;;;-0.7455788;0.10361101;0.76620114;;;;;;;;;;;;;;;
2143.0;2059.9;;;;-0.74280936;0.09755327;0.75945294;;;;;;;;;;;;;;;
2143.0;2059.9;;;;-0.7431374;0.08920289;0.75371563;;;;;;;;;;;;;;;
2143.0;2059.9;;;;-0.74254614;0.08116151;0.7496415;;;;;;;;;;;;;;;
2143.0;2059.9;;;;-0.7442017;0.07297898;0.74322516;;;;;;;;;;;;;;;
2143.0;2062.8;;;;;;;;;;-122.39448;77.9252;-124.881744;;;;;;;;;
2143.0;2062.8;;;;;;;1.4803919;-0.37220374;0.53975034;;;;;;;;;;;;
2143.0;2062.8;;;;;;;;;;-119.563896;82.60216;-124.881744;;;;;;;;;
2143.0;2062.8;;;;;;;1.4913175;-0.38282418;0.5262001;;;;;;;;;;;;
2143.0;2064.6;262143;262143;13317;;;;;;;;;;;;;;;;;;
2145.0;2070.0;;;;-0.74708945;0.062423714;0.7365151;;;;;;;;;;;;;;;
2145.0;2070.0;;;;-0.7501184;0.052223213;0.7305184;;;;;;;;;;;;;;;
2145.0;2070.0;;;;-0.7532731;0.04312134;0.7251168;;;;;;;;;;;;;;;
2145.0;2070.0;;;;-0.7574159;0.03433991;0.71902853;;;;;;;;;;;;;;;
2145.0;2070.0;;;;-0.75813305;0.028118137;0.7135735;;;;;;;;;;;;;;;
2145.0;2072.4;;;;;;;;;;-116.52348;87.012085;-124.881744;;;;;;;;;
2145.0;2072.4;;;;;;;1.4968108;-0.4005249;0.5114292;;;;;;;;;;;;
2145.0;2072.4;;;;;;;;;;-113.55937;91.364784;-124.881744;;;;;;;;;
2145.0;2072.4;;;;;;;1.4914396;-0.42182684;0.49708548;;;;;;;;;;;;
2145.0;2080.2;;;;-0.75989544;0.021934511;0.70753103;;;;;;;;;;;;;;;
2145.0;2080.2;;;;-0.76158917;0.015003206;0.7018662;;;;;;;;;;;;;;;
2145.0;2080.2;;;;-0.7625276;0.007953645;0.6969033;;;;;;;;;;;;;;;
2145.0;2080.2;;;;-0.76265347;-1.3351442E-4;0.69139105;;;;;;;;;;;;;;;
2145.0;2080.2;;;;-0.7621232;-0.009368897;0.68586355;;;;;;;;;;;;;;;
2145.0;2082.1;;;;;;;;;;-110.58763;95.13001;-124.881744;;;;;;;;;
2145.0;2082.1;;;;;;;1.48558;-0.4488052;0.4852443;;;;;;;;;;;;
2145.0;2082.1;;;;;;;;;;-107.432785;97.994934;-124.881744;;;;;;;;;
2145.0;2082.1;;;;;;;1.4668417;-0.4774926;0.47541735;;;;;;;;;;;;
2146.0;2083.4;;;;;;;;;;;;;;;;;-62.795647;-34.535507;-124.988556;;1964.9
2146.0;2083.4;;;;;;;;;;;;;;1.04532;0.7900632;-0.39008757;;;;;1964.9
2146.0;2083.4;;;;;;;;;;;;;;;;;-57.119205;-32.23136;-124.988556;;1964.9
2146.0;2083.4;;;;;;;;;;;;;;1.0135196;0.7433699;-0.31800288;;;;;1964.9
2146.0;2083.4;;;;;;;;;;;;;;;;;-46.269875;-28.271584;-124.988556;;1974.6
2146.0;2083.4;;;;;;;;;;;;;;0.971221;0.70027775;-0.20844142;;;;;1974.6
2146.0;2083.4;;;;;;;;;;;;;;;;;-32.147434;-22.946104;-124.85122;;1974.6
2146.0;2083.4;;;;;;;;;;;;;;0.8967559;0.64644307;-0.07184057;;;;;1974.6
2146.0;2083.4;;;;;;;;;;;;;;;;;-18.578142;-17.036957;-122.23426;;1984.3
2146.0;2083.4;;;;;;;;;;;;;;0.824427;0.5676443;0.077455975;;;;;1984.3
2146.0;2083.4;;;;;;;;;;;;;;;;;-8.293406;-13.286996;-116.51204;;1984.3
2146.0;2083.4;;;;;;;;;;;;;;0.7564928;0.50233465;0.20154424;;;;;1984.3
2146.0;2084.2;;;;;;;;;;;;;;;;;-3.8415174;-12.508774;-109.885704;;1993.7
2146.0;2084.2;;;;;;;;;;;;;;0.7088229;0.443556;0.27393416;;;;;1993.7
2146.0;2084.2;;;;;;;;;;;;;;;;;-7.534257;-16.376995;-103.339485;;1993.7
2146.0;2084.2;;;;;;;;;;;;;;0.6745201;0.3787347;0.24463637;;;;;1993.7
2146.0;2084.2;;;;;;;;;;;;;;;;;-19.60814;-19.325848;-98.56716;;2003.3
2146.0;2084.2;;;;;;;;;;;;;;0.6329539;0.3427839;0.18738365;;;;;2003.3
2146.0;2084.2;;;;;;;;;;;;;;;;;-36.667988;-24.647512;-93.84441;;2003.3
2146.0;2084.2;;;;;;;;;;;;;;0.57289344;0.31696525;0.104373306;;;;;2003.3
2146.0;2084.2;;;;;;;;;;;;;;;;;-52.499466;-31.674397;-88.78979;;2013.0
2146.0;2084.2;;;;;;;;;;;;;;0.51930296;0.2730186;-0.006225776;;;;;2013.0
2146.0;2084.2;;;;;;;;;;;;;;;;;-64.76791;-36.938843;-85.34883;;2013.0
2146.0;2084.2;;;;;;;;;;;;;;0.4901883;0.2662435;-0.10614338;;;;;2013.0
2148.0;2084.7;262143;262143;13343;;;;;;;;;;;;;;;;;;
2148.0;2090.1;;;;-0.76054394;-0.018463137;0.6798745;;;;;;;;;;;;;;;
2148.0;2090.1;;;;-0.76044095;-0.026607517;0.6732674;;;;;;;;;;;;;;;
2148.0;2090.1;;;;-0.76041424;-0.03495026;0.667183;;;;;;;;;;;;;;;
2148.0;2090.1;;;;-0.7592889;-0.044551853;0.6605683;;;;;;;;;;;;;;;
2148.0;2090.1;;;;-0.76017773;-0.05416108;0.6533013;;;;;;;;;;;;;;;
2148.0;2090.7;;;;;;;;;;;;;1671;;;;;;;;
2148.0;2090.7;;;;;;;;;;;;;2576;;;;;;;;
2148.0;2090.7;;;;;;;;;;;;;-1879;;;;;;;;
2148.0;2090.7;;;;;;;;;;;;;-13156;;;;;;;;
2148.0;2090.7;;;;;;;;;;;;;-23020;;;;;;;;
2148.0;2091.5;;;;;;;;;;-104.24741;100.653854;-124.881744;;;;;;;;;
2148.0;2091.5;;;;;;;1.4466994;-0.507828;0.4676046;;;;;;;;;;;;
2148.0;2091.5;;;;;;;;;;-100.72253;102.94656;-124.881744;;;;;;;;;
2148.0;2091.5;;;;;;;1.4210639;-0.53993344;0.4646138;;;;;;;;;;;;
2149.0;2098.7;;;;;;;;;;;;;;;;;-74.1905;-39.582504;-82.167274;;2022.7
2149.0;2098.7;;;;;;;;;;;;;;0.45942563;0.26502272;-0.16541032;;;;;2022.7
2149.0;2098.7;;;;;;;;;;;;;;;;;-81.60649;-42.031616;-80.29801;;2022.7
2149.0;2098.7;;;;;;;;;;;;;;0.45954773;0.28614154;-0.18811609;;;;;2022.7
2149.0;2098.7;;;;;;;;;;;;;;;;;-86.874756;-45.518356;-78.17697;;2032.3
2149.0;2098.7;;;;;;;;;;;;;;0.48286384;0.30408642;-0.1866512;;;;;2032.3
2149.0;2098.7;;;;;;;;;;;;;;;;;-90.548416;-47.51732;-76.46794;;2032.3
2149.0;2098.7;;;;;;;;;;;;;;0.49586475;0.33014923;-0.1607715;;;;;2032.3
2149.0;2098.7;;;;;;;;;;;;;;;;;-93.18827;-48.49391;-73.62972;;2041.7
2149.0;2098.7;;;;;;;;;;;;;;0.50618;0.3378399;-0.11084323;;;;;2041.7
2149.0;2098.7;;;;;;;;;;;;;;;;;-94.30219;-49.09284;-70.26887;;2041.7
2149.0;2098.7;;;;;;;;;;;;;;0.5230262;0.33729056;-0.06164739;;;;;2041.7
2149.0;2100.0;;;;-0.7591516;-0.062011726;0.64817816;;;;;;;;;;;;;;;
2149.0;2100.0;;;;-0.760357;-0.06846238;0.64290243;;;;;;;;;;;;;;;
2149.0;2100.0;;;;-0.76387036;-0.078609474;0.6385117;;;;;;;;;;;;;;;
2149.0;2100.0;;;;-0.7648927;-0.08702088;0.6350327;;;;;;;;;;;;;;;
2149.0;2100.0;;;;-0.7671548;-0.09434129;0.63099295;;;;;;;;;;;;;;;
2149.0;2100.9;;;;;;;;;;-96.56057;104.19782;-124.881744;;;;;;;;;
2149.0;2100.9;;;;;;;1.3975646;-0.5719169;0.4598529;;;;;;;;;;;;
2149.0;2100.9;;;;;;;;;;-92.04001;104.79293;-124.881744;;;;;;;;;
2149.0;2100.9;;;;;;;1.3763847;-0.60335094;0.458388;;;;;;;;;;;;
2149.0;2104.8;262143;262143;13341;;;;;;;;;;;;;;;;;;
2202.0;2110.0;;;;-0.77077496;-0.10056688;0.62694937;;;;;;;;;;;;;;;
2202.0;2110.0;;;;-0.7739793;-0.1084099;0.6211968;;;;;;;;;;;;;;;
2202.0;2110.0;;;;-0.7789575;-0.11670305;0.6155091;;;;;;;;;;;;;;;
2202.0;2110.0;;;;-0.78364575;-0.12666322;0.61134344;;;;;;;;;;;;;;;
2202.0;2110.0;;;;-0.7892114;-0.13615419;0.6068154;;;;;;;;;;;;;;;
2202.0;2110.4;;;;;;;;;;-87.324905;104.40764;-124.881744;;;;;;;;;
2202.0;2110.4;;;;;;;1.3510544;-0.6329539;0.45893735;;;;;;;;;;;;
2202.0;2110.4;;;;;;;;;;-82.48009;103.27845;-124.881744;;;;;;;;;
2202.0;2110.4;;;;;;;1.3252968;-0.66566974;0.46028015;;;;;;;;;;;;
2202.0;2119.9;;;;;;;;;;-77.60476;101.695305;-124.881744;;;;;;;;;
2202.0;2119.9;;;;;;;1.2920316;-0.68568987;0.46931365;;;;;;;;;;;;
2202.0;2119.9;;;;;;;;;;-72.550125;98.84564;-124.881744;;;;;;;;;
2202.0;2119.9;;;;;;;1.2698141;-0.705771;0.47413558;;;;;;;;;;;;
2202.0;2119.9;;;;-0.793152;-0.14476778;0.60226065;;;;;;;;;;;;;;;
2202.0;2119.9;;;;-0.7989541;-0.15179445;0.5976487;;;;;;;;;;;;;;;
2202.0;2119.9;;;;-0.8041383;-0.15930559;0.5935517;;;;;;;;;;;;;;;
2202.0;2119.9;;;;-0.8094293;-0.1670418;0.5896111;;;;;;;;;;;;;;;
2202.0;2119.9;;;;-0.81427777;-0.17406847;0.5860749;;;;;;;;;;;;;;;
2202.0;2124.7;262143;262143;13345;;;;;;;;;;;;;;;;;;
2202.0;2129.5;;;;;;;;;;-67.35817;95.50386;-124.881744;;;;;;;;;
2202.0;2129.5;;;;;;;1.2392956;-0.71480453;0.48054445;;;;;;;;;;;;
2202.0;2129.5;;;;;;;;;;-62.025055;91.50212;-124.881744;;;;;;;;;
2202.0;2129.5;;;;;;;1.218543;-0.7228004;0.48725852;;;;;;;;;;;;
2203.0;2130.1;;;;-0.8191148;-0.18133928;0.5814591;;;;;;;;;;;;;;;
2203.0;2130.1;;;;-0.8238336;-0.18884662;0.57703024;;;;;;;;;;;;;;;
2203.0;2130.1;;;;-0.82836926;-0.19486621;0.57057196;;;;;;;;;;;;;;;
2203.0;2130.1;;;;-0.83308804;-0.20138171;0.56517035;;;;;;;;;;;;;;;
2203.0;2130.1;;;;-0.8363687;-0.20832828;0.5593453;;;;;;;;;;;;;;;
2203.0;2130.7;;;;;;;;;;;;;-21647;;;;;;;;
2203.0;2130.7;;;;;;;;;;;;;-9767;;;;;;;;
2203.0;2130.7;;;;;;;;;;;;;2090;;;;;;;;
2203.0;2130.7;;;;;;;;;;;;;6332;;;;;;;;
2203.0;2130.7;;;;;;;;;;;;;5117;;;;;;;;
2203.0;2139.2;;;;;;;;;;-56.699574;86.75268;-124.881744;;;;;;;;;
2203.0;2139.2;;;;;;;1.1937621;-0.7228004;0.49537644;;;;;;;;;;;;
2203.0;2139.2;;;;;;;;;;-51.431316;81.65608;-124.881744;;;;;;;;;
2203.0;2139.2;;;;;;;1.1751457;-0.7215796;0.50251776;;;;;;;;;;;;
2203.0;2140.2;;;;-0.8377534;-0.21546939;0.5536576;;;;;;;;;;;;;;;
2203.0;2140.2;;;;-0.83893216;-0.22371677;0.5484963;;;;;;;;;;;;;;;
2203.0;2140.2;;;;-0.8390161;-0.23147586;0.54329306;;;;;;;;;;;;;;;
2203.0;2140.2;;;;-0.8390771;-0.23941424;0.538765;;;;;;;;;;;;;;;
2203.0;2140.2;;;;-0.8380853;-0.24675754;0.53420645;;;;;;;;;;;;;;;
2204.0;2143.5;;;;;;;;;;;;;;;;;-94.72564;-48.56258;-66.21372;;2051.2
2204.0;2143.5;;;;;;;;;;;;;;0.53114414;0.33100376;-0.023804437;;;;;2051.2
2204.0;2143.5;;;;;;;;;;;;;;;;;-95.809044;-46.220284;-61.30024;;2051.2
2204.0;2143.5;;;;;;;;;;;;;;0.5310831;0.32569355;0.012817774;;;;;2051.2
2204.0;2143.5;;;;;;;;;;;;;;;;;-97.10609;-44.312874;-55.921352;;2060.7
2204.0;2143.5;;;;;;;;;;;;;;0.53047276;0.30475783;0.04608295;;;;;2060.7
2204.0;2143.5;;;;;;;;;;;;;;;;;-98.9639;-43.17988;-50.798058;;2060.7
2204.0;2143.5;;;;;;;;;;;;;;0.5337687;0.29468673;0.049745172;;;;;2060.7
2204.0;2143.5;;;;;;;;;;;;;;;;;-101.928;-41.169468;-45.609913;;2070.4
2204.0;2143.5;;;;;;;;;;;;;;0.53218174;0.27692497;0.048890654;;;;;2070.4
2204.0;2143.5;;;;;;;;;;;;;;;;;-104.945526;-38.55251;-40.772728;;2070.4
2204.0;2143.5;;;;;;;;;;;;;;0.52705467;0.2602008;0.038331248;;;;;2070.4
2204.0;2144.9;262143;262143;13352;;;;;;;;;;;;;;;;;;
2204.0;2148.7;;;;;;;;;;-46.483505;76.50609;-124.881744;;;;;;;;;
2204.0;2148.7;;;;;;;1.1536607;-0.71352273;0.5055086;;;;;;;;;;;;
2204.0;2148.7;;;;;;;;;;-41.684467;71.03183;-124.881744;;;;;;;;;
2204.0;2148.7;;;;;;;1.1290628;-0.7061373;0.5091098;;;;;;;;;;;;
2204.0;2150.1;;;;-0.83623135;-0.25337222;0.52951056;;;;;;;;;;;;;;;
2204.0;2150.1;;;;-0.8342248;-0.25883487;0.5248566;;;;;;;;;;;;;;;
2204.0;2150.1;;;;-0.8326036;-0.26625445;0.51974493;;;;;;;;;;;;;;;
2204.0;2150.1;;;;-0.8302728;-0.27456668;0.5153237;;;;;;;;;;;;;;;
2204.0;2150.1;;;;-0.8270875;-0.28114322;0.50910956;;;;;;;;;;;;;;;
2205.0;2158.3;;;;;;;;;;-37.27836;65.24476;-124.881744;;;;;;;;;
2205.0;2158.3;;;;;;;1.1034272;-0.694174;0.50666827;;;;;;;;;;;;
2205.0;2158.3;;;;;;;;;;-33.3224;59.667503;-124.881744;;;;;;;;;
2205.0;2158.3;;;;;;;1.0704062;-0.67970824;0.50196844;;;;;;;;;;;;
2205.0;2158.6;;;;;;;;;;;;;;;;;-107.01315;-36.427654;-35.710472;;2080.1
2205.0;2158.6;;;;;;;;;;;;;;0.5216834;0.24274422;0.011658071;;;;;2080.1
2205.0;2158.6;;;;;;;;;;;;;;;;;-107.55486;-34.890285;-30.827509;;2080.1
2205.0;2158.6;;;;;;;;;;;;;;0.51319927;0.22247994;-0.03216651;;;;;2080.1
2205.0;2158.6;;;;;;;;;;;;;;;;;-105.639824;-33.753475;-25.570696;;2089.7
2205.0;2158.6;;;;;;;;;;;;;;0.5175329;0.20838039;-0.08807642;;;;;2089.7
2205.0;2158.6;;;;;;;;;;;;;;;;;-101.35197;-31.926178;-19.966734;;2089.7
2205.0;2158.6;;;;;;;;;;;;;;0.502884;0.17438276;-0.14221625;;;;;2089.7
2205.0;2158.6;;;;;;;;;;;;;;;;;-94.4319;-29.320658;-14.412366;;2099.3
2205.0;2158.6;;;;;;;;;;;;;;0.48274177;0.15387432;-0.17694631;;;;;2099.3
2205.0;2158.6;;;;;;;;;;;;;;;;;-85.18479;-28.599659;-7.648701;;2099.3
2205.0;2158.6;;;;;;;;;;;;;;0.4771264;0.12292856;-0.22125919;;;;;2099.3
2205.0;2160.1;;;;-0.82543194;-0.2862244;0.50334173;;;;;;;;;;;;;;;
2205.0;2160.1;;;;-0.8229104;-0.29487994;0.49924475;;;;;;;;;;;;;;;
2205.0;2160.1;;;;-0.8211328;-0.30225375;0.49494177;;;;;;;;;;;;;;;
2205.0;2160.1;;;;-0.819996;-0.3092766;0.48896796;;;;;;;;;;;;;;;
2205.0;2160.1;;;;-0.81803524;-0.3173218;0.48281485;;;;;;;;;;;;;;;
2205.0;2165.0;262143;262143;13357;;;;;;;;;;;;;;;;;;
2265.0;2167.8;;;;;;;;;;-29.450363;54.42595;-124.881744;;;;;;;;;
2265.0;2167.8;;;;;;;1.0389721;-0.66353345;0.49684134;;;;;;;;;;;;
2265.0;2167.8;;;;;;;;;;-25.658436;49.462875;-124.881744;;;;;;;;;
2265.0;2167.8;;;;;;;1.005829;-0.6507767;0.49061555;;;;;;;;;;;;
2265.0;2170.2;;;;-0.81728375;-0.3253365;0.4758988;;;;;;;;;;;;;;;
2265.0;2170.2;;;;-0.8181344;-0.3337212;0.46832663;;;;;;;;;;;;;;;
2265.0;2170.2;;;;-0.81624234;-0.34133914;0.4611817;;;;;;;;;;;;;;;
2265.0;2170.2;;;;-0.81622326;-0.34663013;0.4534188;;;;;;;;;;;;;;;
2265.0;2170.2;;;;-0.81816494;-0.35290912;0.44523627;;;;;;;;;;;;;;;
2265.0;2171.0;;;;;;;;;;;;;4288;;;;;;;;
2265.0;2171.0;;;;;;;;;;;;;5135;;;;;;;;
2265.0;2171.0;;;;;;;;;;;;;5408;;;;;;;;
2265.0;2171.0;;;;;;;;;;;;;4817;;;;;;;;
2265.0;2171.0;;;;;;;;;;;;;4188;;;;;;;;
2265.0;2177.1;;;;;;;;;;-22.072514;44.736317;-124.881744;;;;;;;;;
2265.0;2177.1;;;;;;;0.98403883;-0.6399121;0.48286384;;;;;;;;;;;;
2265.0;2177.1;;;;;;;;;;-18.936735;40.406506;-124.881744;;;;;;;;;
2265.0;2177.1;;;;;;;0.95864743;-0.63142794;0.4683981;;;;;;;;;;;;
2265.0;2180.1;;;;-0.8181459;-0.3627434;0.43856055;;;;;;;;;;;;;;;
2265.0;2180.1;;;;-0.8186761;-0.3723183;0.43314368;;;;;;;;;;;;;;;
2265.0;2180.1;;;;-0.82057965;-0.3824578;0.4258042;;;;;;;;;;;;;;;
2265.0;2180.1;;;;-0.8239862;-0.39120108;0.42140967;;;;;;;;;;;;;;;
2265.0;2180.1;;;;-0.8280717;-0.39908606;0.41782767;;;;;;;;;;;;;;;
2265.0;2185.0;262143;262143;13375;;;;;;;;;;;;;;;;;;
2268.0;2186.8;;;;;;;;;;-16.029848;36.08051;-124.881744;;;;;;;;;
2268.0;2186.8;;;;;;;0.9339274;-0.6226997;0.4532609;;;;;;;;;;;;
2268.0;2186.8;;;;;;;;;;-13.481552;32.03299;-124.881744;;;;;;;;;
2268.0;2186.8;;;;;;;0.90908533;-0.6143376;0.43531603;;;;;;;;;;;;
2268.0;2190.2;;;;-0.83202755;-0.40637976;0.41657645;;;;;;;;;;;;;;;
2268.0;2190.2;;;;-0.83745587;-0.4109879;0.41508108;;;;;;;;;;;;;;;
2268.0;2190.2;;;;-0.8446008;-0.41494375;0.41405493;;;;;;;;;;;;;;;
2268.0;2190.2;;;;-0.8528863;-0.4185601;0.41410834;;;;;;;;;;;;;;;
2268.0;2190.2;;;;-0.8602563;-0.42172247;0.41585928;;;;;;;;;;;;;;;
2268.0;2196.4;;;;;;;;;;-11.200293;28.324991;-124.881744;;;;;;;;;
2268.0;2196.4;;;;;;;0.8827784;-0.60499895;0.41871396;;;;;;;;;;;;
2268.0;2196.4;;;;;;;;;;-8.90759;25.38377;-124.881744;;;;;;;;;
2268.0;2196.4;;;;;;;0.8564715;-0.58919036;0.4011353;;;;;;;;;;;;
2268.0;2200.3;;;;-0.872368;-0.42440802;0.4165612;;;;;;;;;;;;;;;
2268.0;2200.3;;;;-0.88528836;-0.42924887;0.41865546;;;;;;;;;;;;;;;
2268.0;2200.3;;;;-0.9018632;-0.43090826;0.42342;;;;;;;;;;;;;;;
2268.0;2200.3;;;;-0.92313397;-0.4312783;0.42612845;;;;;;;;;;;;;;;
2268.0;2200.3;;;;-0.94604504;-0.43276602;0.43001562;;;;;;;;;;;;;;;
2270.0;2203.7;;;;;;;;;;;;;;;;;-74.88098;-27.008883;-1.4496292;;2108.9
2270.0;2203.7;;;;;;;;;;;;;;0.4588763;0.09930723;-0.24884793;;;;;2108.9
2270.0;2203.7;;;;;;;;;;;;;;;;;-64.218575;-26.188696;4.844814;;2108.9
2270.0;2203.7;;;;;;;;;;;;;;0.4407483;0.06964324;-0.26917326;;;;;2108.9
2270.0;2203.7;;;;;;;;;;;;;;;;;-54.132206;-25.959806;10.979034;;2118.5
2270.0;2203.7;;;;;;;;;;;;;;0.42170477;0.046815395;-0.29255044;;;;;2118.5
2270.0;2203.7;;;;;;;;;;;;;;;;;-45.033875;-25.50203;18.364513;;2118.5
2270.0;2203.7;;;;;;;;;;;;;;0.41016877;0.007812738;-0.29078037;;;;;2118.5
2270.0;2203.7;;;;;;;;;;;;;;;;;-36.812954;-25.475325;25.746178;;2128.0
2270.0;2203.7;;;;;;;;;;;;;;0.392407;-0.031006806;-0.28186896;;;;;2128.0
2270.0;2203.7;;;;;;;;;;;;;;;;;-29.126102;-25.688955;32.986694;;2128.0
2270.0;2203.7;;;;;;;;;;;;;;0.37775812;-0.05749687;-0.25165564;;;;;2128.0
2270.0;2205.2;262143;262143;13386;;;;;;;;;;;;;;;;;;
2270.0;2205.9;;;;;;;;;;-6.820887;22.900326;-124.881744;;;;;;;;;
2270.0;2205.9;;;;;;;0.8316294;-0.5746025;0.3820307;;;;;;;;;;;;
2270.0;2205.9;;;;;;;;;;-4.9630723;20.47792;-124.881744;;;;;;;;;
2270.0;2205.9;;;;;;;0.8056276;-0.5628834;0.36579487;;;;;;;;;;;;
2270.0;2210.3;;;;-0.972355;-0.43281943;0.43269354;;;;;;;;;;;;;;;
2270.0;2210.3;;;;-0.99668896;-0.43344122;0.4348145;;;;;;;;;;;;;;;
2270.0;2210.3;;;;-1.0252382;-0.4327584;0.43425375;;;;;;;;;;;;;;;
2270.0;2210.3;;;;-1.052662;-0.43246847;0.4327088;;;;;;;;;;;;;;;
2270.0;2210.3;;;;-1.0823365;-0.4338761;0.42898184;;;;;;;;;;;;;;;
2272.0;2211.1;;;;;;;;;;;;;3597;;;;;;;;
2272.0;2211.1;;;;;;;;;;;;;3171;;;;;;;;
2272.0;2211.1;;;;;;;;;;;;;2941;;;;;;;;
2272.0;2211.1;;;;;;;;;;;;;2702;;;;;;;;
2272.0;2211.1;;;;;;;;;;;;;2400;;;;;;;;
2272.0;2215.5;;;;;;;;;;-3.2044435;18.391216;-124.881744;;;;;;;;;
2272.0;2215.5;;;;;;;0.7817621;-0.54915005;0.35157323;;;;;;;;;;;;
2272.0;2215.5;;;;;;;;;;-1.373333;16.70507;-124.881744;;;;;;;;;
2272.0;2215.5;;;;;;;0.7624134;-0.5355388;0.33533737;;;;;;;;;;;;
2272.0;2219.2;;;;;;;;;;;;;;;;;-21.992401;-26.829586;40.936764;;2137.7
2272.0;2219.2;;;;;;;;;;;;;;0.36396375;-0.09063997;-0.21002838;;;;;2137.7
2272.0;2219.2;;;;;;;;;;;;;;;;;-14.816737;-29.244362;49.52391;;2137.7
2272.0;2219.2;;;;;;;;;;;;;;0.37189856;-0.12854396;-0.19293801;;;;;2137.7
2272.0;2219.2;;;;;;;;;;;;;;;;;-6.3173313;-31.922363;59.083836;;2147.4
2272.0;2219.2;;;;;;;;;;;;;;0.37104404;-0.13934751;-0.1793878;;;;;2147.4
2272.0;2219.2;;;;;;;;;;;;;;;;;3.0632956;-34.485916;69.54405;;2147.4
2272.0;2219.2;;;;;;;;;;;;;;0.3782464;-0.156621;-0.16675314;;;;;2147.4
2272.0;2219.2;;;;;;;;;;;;;;;;;13.53496;-36.99225;79.8326;;2157.1
2272.0;2219.2;;;;;;;;;;;;;;0.4013184;-0.15485092;-0.18866542;;;;;2157.1
2272.0;2219.2;;;;;;;;;;;;;;;;;23.583178;-36.267433;89.44593;;2157.1
2272.0;2219.2;;;;;;;;;;;;;;0.40552995;-0.1408124;-0.2120426;;;;;2157.1
2272.0;2220.2;;;;-1.1110765;-0.43495947;0.42670447;;;;;;;;;;;;;;;
2272.0;2220.2;;;;-1.1351625;-0.43759924;0.425129;;;;;;;;;;;;;;;
2272.0;2220.2;;;;-1.156334;-0.4377175;0.4214707;;;;;;;;;;;;;;;
2272.0;2220.2;;;;-1.1795388;-0.43759543;0.41658026;;;;;;;;;;;;;;;
2272.0;2220.2;;;;-1.1985856;-0.43968588;0.41265494;;;;;;;;;;;;;;;
2323.0;2224.9;;;;;;;;;;0.28611103;14.904477;-124.881744;;;;;;;;;
2323.0;2224.9;;;;;;;0.74654377;-0.5228431;0.3178808;;;;;;;;;;;;
2323.0;2224.9;;;;;;;;;;1.3351848;12.867367;-124.881744;;;;;;;;;
2323.0;2224.9;;;;;;;0.72475356;-0.5085604;0.30066836;;;;;;;;;;;;
2323.0;2225.2;262143;262143;13373;;;;;;;;;;;;;;;;;;
2323.0;2230.2;;;;-1.2174417;-0.44038016;0.40928656;;;;;;;;;;;;;;;
2323.0;2230.2;;;;-1.2360307;-0.44145972;0.40616614;;;;;;;;;;;;;;;
2323.0;2230.2;;;;-1.2531472;-0.44200903;0.40440375;;;;;;;;;;;;;;;
2323.0;2230.2;;;;-1.2695352;-0.44197088;0.4017716;;;;;;;;;;;;;;;
2323.0;2230.2;;;;-1.2845651;-0.44300085;0.40056616;;;;;;;;;;;;;;;
2323.0;2234.1;;;;;;;;;;2.0218513;10.971405;-124.881744;;;;;;;;;
2323.0;2234.1;;;;;;;0.6994232;-0.49794;0.28431043;;;;;;;;;;;;
2323.0;2234.1;;;;;;;;;;2.582629;9.743034;-124.881744;;;;;;;;;
2323.0;2234.1;;;;;;;0.6747032;-0.4858547;0.2715537;;;;;;;;;;;;
2323.0;2239.8;;;;-1.2957422;-0.4435616;0.39786536;;;;;;;;;;;;;;;
2323.0;2239.8;;;;-1.3089753;-0.44239432;0.3943482;;;;;;;;;;;;;;;
2323.0;2239.8;;;;-1.3200494;-0.44050223;0.3910256;;;;;;;;;;;;;;;
2323.0;2239.8;;;;-1.3310395;-0.43935782;0.3878327;;;;;;;;;;;;;;;
2323.0;2239.8;;;;-1.3413812;-0.43784338;0.38618094;;;;;;;;;;;;;;;
2323.0;2243.6;;;;;;;;;;3.0442214;8.8999605;-124.881744;;;;;;;;;
2323.0;2243.6;;;;;;;0.6530961;-0.47169408;0.2609943;;;;;;;;;;;;
2323.0;2243.6;;;;;;;;;;3.4371471;8.2819605;-124.87792;;;;;;;;;
2323.0;2243.6;;;;;;;0.6357005;-0.4621723;0.24903104;;;;;;;;;;;;
2326.0;2244.9;262143;262143;13375;;;;;;;;;;;;;;;;;;
2326.0;2249.9;;;;-1.3516237;-0.43463522;0.38478857;;;;;;;;;;;;;;;
2326.0;2249.9;;;;-1.3630944;-0.43150717;0.38348013;;;;;;;;;;;;;;;
2326.0;2249.9;;;;-1.3701402;-0.4293061;0.3828736;;;;;;;;;;;;;;;
2326.0;2249.9;;;;-1.375805;-0.42486197;0.38081366;;;;;;;;;;;;;;;
2326.0;2249.9;;;;-1.3833162;-0.4216004;0.3776093;;;;;;;;;;;;;;;
2326.0;2250.9;;;;;;;;;;;;;2237;;;;;;;;
2326.0;2250.9;;;;;;;;;;;;;2152;;;;;;;;
2326.0;2250.9;;;;;;;;;;;;;1857;;;;;;;;
2326.0;2250.9;;;;;;;;;;;;;1364;;;;;;;;
2326.0;2250.9;;;;;;;;;;;;;804;;;;;;;;
2326.0;2253.2;;;;;;;;;;3.460036;8.007294;-124.710075;;;;;;;;;
2326.0;2253.2;;;;;;;0.62245554;-0.4496597;0.23798333;;;;;;;;;;;;
2326.0;2253.2;;;;;;;;;;3.1357768;7.816553;-123.35963;;;;;;;;;
2326.0;2253.2;;;;;;;0.6065249;-0.43946654;0.22675252;;;;;;;;;;;;
2326.0;2260.1;;;;-1.38892;-0.41693884;0.37440494;;;;;;;;;;;;;;;
2326.0;2260.1;;;;-1.3938638;-0.410698;0.3716698;;;;;;;;;;;;;;;
2326.0;2260.1;;;;-1.3976136;-0.4053765;0.36880115;;;;;;;;;;;;;;;
2326.0;2260.1;;;;-1.4008447;-0.39926535;0.36695102;;;;;;;;;;;;;;;
2326.0;2260.1;;;;-1.4073526;-0.39231497;0.3668976;;;;;;;;;;;;;;;
2326.0;2262.8;;;;;;;;;;2.5482955;8.018739;-120.35355;;;;;;;;;
2326.0;2262.8;;;;;;;0.58986175;-0.4318369;0.2196112;;;;;;;;;;;;
2326.0;2262.8;;;;;;;;;;1.8539995;8.880886;-117.01941;;;;;;;;;
2326.0;2262.8;;;;;;;0.57747126;-0.41969055;0.21283609;;;;;;;;;;;;
2329.0;2263.6;;;;;;;;;;;;;;;;;32.97525;-35.981323;98.12083;;2166.6
2329.0;2263.6;;;;;;;;;;;;;;0.39252907;-0.111880854;-0.20947905;;;;;2166.6
2329.0;2263.6;;;;;;;;;;;;;;;;;39.864803;-37.53777;106.06708;;2166.6
2329.0;2263.6;;;;;;;;;;;;;;0.39185765;-0.09112827;-0.20636617;;;;;2166.6
2329.0;2263.6;;;;;;;;;;;;;;;;;44.686726;-41.074097;113.83785;;2176.2
2329.0;2263.6;;;;;;;;;;;;;;0.39350566;-0.08709983;-0.20654927;;;;;2176.2
2329.0;2263.6;;;;;;;;;;;;;;;;;46.468246;-43.79025;121.51326;;2176.2
2329.0;2263.6;;;;;;;;;;;;;;0.38795128;-0.07251198;-0.1892758;;;;;2176.2
2329.0;2263.6;;;;;;;;;;;;;;;;;45.29328;-43.813137;124.839775;;2185.8
2329.0;2263.6;;;;;;;;;;;;;;0.39674062;-0.018738365;-0.14600055;;;;;2185.8
2329.0;2263.6;;;;;;;;;;;;;;;;;39.819023;-40.143284;124.988556;;2185.8
2329.0;2263.6;;;;;;;;;;;;;;0.3850215;0.052369762;-0.07397687;;;;;2185.8
2329.0;2265.1;262143;262143;13371;;;;;;;;;;;;;;;;;;
2329.0;2270.0;;;;-1.4131356;-0.3862496;0.36709216;;;;;;;;;;;;;;;
2329.0;2270.0;;;;-1.4183046;-0.37892157;0.36975864;;;;;;;;;;;;;;;
2329.0;2270.0;;;;-1.4248391;-0.37303928;0.37228778;;;;;;;;;;;;;;;
2329.0;2270.0;;;;-1.4297067;-0.36587146;0.37180713;;;;;;;;;;;;;;;
2329.0;2270.0;;;;-1.435589;-0.35761264;0.37025073;;;;;;;;;;;;;;;
2330.0;2271.1;;;;;;;;;;;;;;;;;32.242805;-32.193214;124.988556;;2195.4
2330.0;2271.1;;;;;;;;;;;;;;0.39014864;0.17188025;0.044129767;;;;;2195.4
2330.0;2271.1;;;;;;;;;;;;;;;;;28.168585;-20.020142;124.988556;;2195.4
2330.0;2271.1;;;;;;;;;;;;;;0.4161504;0.38209173;0.2047792;;;;;2195.4
2330.0;2271.1;;;;;;;;;;;;;;;;;34.749138;-11.352885;124.988556;;2205.1
2330.0;2271.1;;;;;;;;;;;;;;0.4740745;0.61867124;0.2847377;;;;;2205.1
