patientId;holterMac;flexMac;;;;;;;;;;;;;;;;;;;;
;CA:F3:0B:1E:33:78;D3:4A:5C:52:80:78;;;;;;;;;;;;;;;;;;;;
receivedTimeStamp;timeStamp;red;ir;green;adxl_accX;adxl_accY;adxl_accZ;lsm_accelX;lsm_accelY;lsm_accelZ;lsm_gyroX;lsm_gyroY;lsm_gyroZ;ecg;flex_lsm_accelX;flex_lsm_accelY;flex_lsm_accelZ;flex_lsm_gyroX;flex_lsm_gyroY;flex_lsm_gyroZ;flex_cmd;flexTimeStamp
267.0;217.9;;;;;;;;;;;;;;;;;;;;17;0.1
267.0;217.9;;;;;;;;;;;;;;;;;13.775291;1.2131108;1.1482589;;127.5
267.0;217.9;;;;;;;;;;;;;;0.9275796;0.34174627;0.073549606;;;;;127.5
267.0;217.9;;;;;;;;;;;;;;;;;-6.0731835;-17.120884;-9.075441;;127.5
267.0;217.9;;;;;;;;;;;;;;0.96102786;0.3546861;0.06555376;;;;;127.5
267.0;217.9;;;;;;;;;;;;;;;;;-67.140724;-84.58205;-66.167946;;137.1
267.0;217.9;;;;;;;;;;;;;;0.9508347;0.35676137;0.055543687;;;;;137.1
267.0;217.9;;;;;;;;;;;;;;;;;-122.85607;-124.988556;-122.17322;;137.1
267.0;217.9;;;;;;;;;;;;;;0.95577866;0.3812372;0.036194954;;;;;137.1
328.0;218.8;;;;;;;;;;;;;;;;;-71.26835;-124.83596;-96.736046;;146.8
328.0;218.8;;;;;;;;;;;;;;0.95638907;0.38819546;0.017090365;;;;;146.8
328.0;218.8;;;;;;;;;;;;;;;;;-25.7004;-124.8207;-78.39823;;146.8
328.0;218.8;;;;;;;;;;;;;;0.9552904;0.40021974;0.0145878475;;;;;146.8
328.0;218.8;;;;;;;;;;;;;;;;;-39.883877;-94.31364;-82.632675;;156.4
328.0;218.8;;;;;;;;;;;;;;0.9589526;0.41737112;0.0145268105;;;;;156.4
328.0;218.8;;;;;;;;;;;;;;;;;-51.6068;0.85833305;-63.43654;;156.4
328.0;218.8;;;;;;;;;;;;;;0.9594409;0.4346446;0.01660207;;;;;156.4
328.0;218.8;;;;;;;;;;;;;;;;;-53.30058;11.482589;-61.967834;;166.0
328.0;218.8;;;;;;;;;;;;;;0.9615772;0.4491104;0.01843318;;;;;166.0
328.0;218.8;;;;;;;;;;;;;;;;;-53.50276;13.977477;-62.391277;;166.0
328.0;218.8;;;;;;;;;;;;;;0.9600513;0.45295572;0.010376293;;;;;166.0
328.0;278.1;;;;;;;;;;;;;;;;;-53.533283;16.037477;-62.33787;;175.6
328.0;278.1;;;;;;;;;;;;;;0.95492417;0.44770652;0.006164739;;;;;175.6
328.0;278.1;;;;;;;;;;;;;;;;;-54.509876;17.200994;-62.658318;;175.6
328.0;278.1;;;;;;;;;;;;;;0.953032;0.44386122;-0.0072634052;;;;;175.6
328.0;278.1;;;;;;;;;;;;;;;;;-55.56276;18.715477;-62.9635;;185.3
328.0;278.1;;;;;;;;;;;;;;0.94985807;0.43671986;-0.021057772;;;;;185.3
328.0;278.1;;;;;;;;;;;;;;;;;-57.161167;21.206549;-62.356945;;185.3
328.0;278.1;;;;;;;;;;;;;;0.9490646;0.4306772;-0.02600177;;;;;185.3
328.0;278.1;;;;;;;;;;;;;;;;;-58.69854;25.06714;-61.597797;;195.0
328.0;278.1;;;;;;;;;;;;;;0.9392987;0.4318369;-0.006164739;;;;;195.0
328.0;278.1;;;;;;;;;;;;;;;;;-59.5378;27.249214;-60.61739;;195.0
328.0;278.1;;;;;;;;;;;;;;0.92031616;0.40668964;0.03051851;;;;;195.0
391.0;278.9;;;;;;;;;;;;;;;;;-60.47624;26.81814;-59.480576;;204.5
391.0;278.9;;;;;;;;;;;;;;0.90591145;0.38496047;0.048036136;;;;;204.5
391.0;278.9;;;;;;;;;;;;;;;;;-60.869167;25.757622;-59.049503;;204.5
391.0;278.9;;;;;;;;;;;;;;0.89388716;0.3844722;0.06372265;;;;;204.5
391.0;278.9;;;;;;;;;;;;;;;;;-62.948242;25.048065;-58.996094;;214.2
391.0;278.9;;;;;;;;;;;;;;0.87636954;0.39838862;0.07824946;;;;;214.2
391.0;278.9;;;;;;;;;;;;;;;;;-64.98535;23.205511;-57.939392;;214.2
391.0;278.9;;;;;;;;;;;;;;0.85659355;0.39417708;0.083254494;;;;;214.2
391.0;278.9;;;;;;;;;;;;;;;;;-65.63769;21.011993;-57.11539;;223.8
391.0;278.9;;;;;;;;;;;;;;0.83767205;0.4051027;0.087710194;;;;;223.8
391.0;278.9;;;;;;;;;;;;;;;;;-65.98483;19.520401;-55.978577;;223.8
391.0;278.9;;;;;;;;;;;;;;0.83352154;0.40339366;0.08526871;;;;;223.8
391.0;338.4;;;;;;;;;;;;;;;;;-64.94339;21.004364;-54.95239;;233.4
391.0;338.4;;;;;;;;;;;;;;0.8235115;0.4130375;0.112186044;;;;;233.4
391.0;338.4;;;;;;;;;;;;;;;;;-63.554794;21.973328;-54.258095;;233.4
391.0;338.4;;;;;;;;;;;;;;0.8230842;0.4110233;0.12842189;;;;;233.4
391.0;338.4;;;;;;;;;;;;;;;;;-60.308388;23.174994;-52.90002;;243.0
391.0;338.4;;;;;;;;;;;;;;0.8150273;0.40351573;0.14935759;;;;;243.0
391.0;338.4;;;;;;;;;;;;;;;;;-57.4778;22.72103;-51.76702;;243.0
391.0;338.4;;;;;;;;;;;;;;0.81130403;0.4077273;0.15985595;;;;;243.0
391.0;338.4;;;;;;;;;;;;;;;;;-56.2685;21.51555;-51.221504;;252.5
391.0;338.4;;;;;;;;;;;;;;0.8127079;0.4243904;0.15533921;;;;;252.5
391.0;338.4;;;;;;;;;;;;;;;;;-55.7268;20.893734;-49.932095;;252.5
391.0;338.4;;;;;;;;;;;;;;0.81313515;0.42518386;0.15088351;;;;;252.5
450.0;339.2;;;;;;;;;;;;;;;;;-54.815056;21.343884;-48.814358;;262.2
450.0;339.2;;;;;;;;;;;;;;0.80629903;0.42829677;0.15509507;;;;;262.2
450.0;339.2;;;;;;;;;;;;;;;;;-54.044468;21.496475;-47.402874;;262.2
450.0;339.2;;;;;;;;;;;;;;0.79677725;0.4234138;0.16492203;;;;;262.2
450.0;339.2;;;;;;;;;;;;;;;;;-52.67495;20.851772;-45.567947;;271.8
450.0;339.2;;;;;;;;;;;;;;0.7902463;0.41199988;0.16736351;;;;;271.8
450.0;339.2;;;;;;;;;;;;;;;;;-51.309242;20.825068;-44.034397;;271.8
450.0;339.2;;;;;;;;;;;;;;0.78341013;0.40473646;0.1767632;;;;;271.8
450.0;339.2;;;;;;;;;;;;;;;;;-50.027466;18.818476;-42.149876;;281.5
450.0;339.2;;;;;;;;;;;;;;0.7806635;0.398999;0.17017122;;;;;281.5
450.0;339.2;;;;;;;;;;;;;;;;;-49.01273;18.063143;-40.51332;;281.5
450.0;339.2;;;;;;;;;;;;;;0.78145695;0.39631337;0.16943876;;;;;281.5
450.0;398.8;;;;;;;;;;;;;;;;;-47.93695;18.780329;-38.38847;;291.2
450.0;398.8;;;;;;;;;;;;;;0.774865;0.3864864;0.18243966;;;;;291.2
450.0;398.8;;;;;;;;;;;;;;;;;-47.242653;20.725883;-37.305065;;291.2
450.0;398.8;;;;;;;;;;;;;;0.7751091;0.392407;0.19275491;;;;;291.2
450.0;398.8;;;;;;;;;;;;;;;;;-45.903652;22.080143;-35.8211;;300.9
450.0;398.8;;;;;;;;;;;;;;0.7646107;0.39576402;0.20874661;;;;;300.9
450.0;398.8;;;;;;;;;;;;;;;;;-44.14884;21.496475;-34.60799;;300.9
450.0;398.8;;;;;;;;;;;;;;0.76149786;0.40424818;0.20532854;;;;;300.9
450.0;398.8;;;;;;;;;;;;;;;;;-42.58095;20.039215;-33.337658;;310.5
450.0;398.8;;;;;;;;;;;;;;0.76277965;0.40992463;0.19531846;;;;;310.5
450.0;398.8;;;;;;;;;;;;;;;;;-40.57817;19.421217;-32.07877;;310.5
450.0;398.8;;;;;;;;;;;;;;0.7556383;0.4130375;0.1805475;;;;;310.5
514.0;406.1;;;;;;;;;;;;;;;;;-37.64458;19.611956;-30.800806;;320.1
514.0;406.1;;;;;;;;;;;;;;0.73427534;0.41627246;0.19318217;;;;;320.1
514.0;406.1;;;;;;;;;;;;;;;;;-36.393322;18.395031;-29.629658;;320.1
514.0;406.1;;;;;;;;;;;;;;0.7270119;0.42347485;0.19098483;;;;;320.1
514.0;406.1;;;;;;;;;;;;;;;;;-35.267952;17.342142;-28.057955;;329.7
514.0;406.1;;;;;;;;;;;;;;0.7140111;0.4297006;0.19666128;;;;;329.7
514.0;406.1;;;;;;;;;;;;;;;;;-34.962765;15.903959;-26.444288;;329.7
514.0;406.1;;;;;;;;;;;;;;0.6988739;0.4427015;0.19006927;;;;;329.7
514.0;406.1;;;;;;;;;;;;;;;;;-35.38621;15.140995;-25.090029;;339.4
514.0;406.1;;;;;;;;;;;;;;0.6947844;0.45496994;0.1805475;;;;;339.4
514.0;406.1;;;;;;;;;;;;;;;;;-35.958435;15.518662;-23.041475;;339.4
514.0;406.1;;;;;;;;;;;;;;0.68697166;0.45661795;0.17883846;;;;;339.4
514.0;459.1;;;;;;;;;;;;;;;;;-34.978027;15.694143;-20.46266;;349.0
514.0;459.1;;;;;;;;;;;;;;0.667745;0.4634541;0.19782098;;;;;349.0
514.0;459.1;;;;;;;;;;;;;;;;;-35.035248;14.873959;-19.077885;;349.0
514.0;459.1;;;;;;;;;;;;;;0.6751915;0.47224343;0.20856349;;;;;349.0
514.0;459.1;;;;;;;;;;;;;;;;;-33.80688;12.802515;-16.731773;;358.7
514.0;459.1;;;;;;;;;;;;;;0.6758019;0.47877437;0.21906187;;;;;358.7
514.0;459.1;;;;;;;;;;;;;;;;;-32.48314;10.025331;-14.969329;;358.7
514.0;459.1;;;;;;;;;;;;;;0.6753746;0.4820704;0.20270394;;;;;358.7
514.0;459.1;;;;;;;;;;;;;;;;;-32.12836;8.995331;-13.241219;;368.3
514.0;459.1;;;;;;;;;;;;;;0.6801965;0.49342325;0.18640706;;;;;368.3
514.0;459.1;;;;;;;;;;;;;;;;;-32.8074;10.170293;-11.692404;;368.3
514.0;459.1;;;;;;;;;;;;;;0.67036957;0.491348;0.18091373;;;;;368.3
573.0;459.8;;;;;;;;;;;;;;;;;-32.92566;11.528367;-9.990996;;378.0
573.0;459.8;;;;;;;;;;;;;;0.6530961;0.49110386;0.20648824;;;;;378.0
573.0;459.8;;;;;;;;;;;;;;;;;-33.92132;12.642292;-8.655812;;378.0
573.0;459.8;;;;;;;;;;;;;;0.6543779;0.48384044;0.23071994;;;;;378.0
573.0;459.8;;;;;;;;;;;;;;;;;-34.23032;14.118626;-7.213813;;387.7
573.0;459.8;;;;;;;;;;;;;;0.65144813;0.47956786;0.27014986;;;;;387.7
573.0;459.8;;;;;;;;;;;;;;;;;-33.413956;13.565478;-6.103702;;387.7
573.0;459.8;;;;;;;;;;;;;;0.6518754;0.48512223;0.2882168;;;;;387.7
573.0;459.8;;;;;;;;;;;;;;;;;-31.868954;11.116366;-5.01648;;397.3
573.0;459.8;;;;;;;;;;;;;;0.6585284;0.49690238;0.2903531;;;;;397.3
573.0;459.8;;;;;;;;;;;;;;;;;-29.744102;8.419294;-4.3641467;;397.3
573.0;459.8;;;;;;;;;;;;;;0.6585284;0.51582384;0.27497178;;;;;397.3
573.0;519.4;;;;;;;;;;;;;;;;;-27.016512;7.1031833;-3.456221;;407.0
573.0;519.4;;;;;;;;;;;;;;0.6541948;0.5381024;0.27216408;;;;;407.0
573.0;519.4;;;;;;;;;;;;;;;;;-24.357586;5.787072;-2.067629;;407.0
573.0;519.4;;;;;;;;;;;;;;0.6444899;0.54286325;0.2680746;;;;;407.0
573.0;519.4;;;;;;;;;;;;;;;;;-21.206549;4.852443;-0.6866665;;416.5
573.0;519.4;;;;;;;;;;;;;;0.636433;0.5514084;0.26502272;;;;;416.5
573.0;519.4;;;;;;;;;;;;;;;;;-17.948698;4.058962;1.1520737;;416.5
573.0;519.4;;;;;;;;;;;;;;0.62514114;0.5669118;0.29486984;;;;;416.5
573.0;519.4;;;;;;;;;;;;;;;;;-14.648885;0.099185154;3.0365918;;426.2
573.0;519.4;;;;;;;;;;;;;;0.62318796;0.5742363;0.3096408;;;;;426.2
573.0;519.4;;;;;;;;;;;;;;;;;-11.87933;-4.127629;4.1314435;;426.2
573.0;519.4;;;;;;;;;;;;;;0.63020724;0.59797966;0.3096408;;;;;426.2
630.0;520.6;;;;;;;;;;;;;;;;;-9.136478;-8.194221;5.645924;;435.8
630.0;520.6;;;;;;;;;;;;;;0.6319163;0.6229438;0.321543;;;;;435.8
630.0;520.6;;;;;;;;;;;;;;;;;-6.004517;-12.672811;7.702109;;435.8
630.0;520.6;;;;;;;;;;;;;;0.6346629;0.6357616;0.2870571;;;;;435.8
630.0;520.6;;;;;;;;;;;;;;;;;-2.357555;-16.308329;9.01822;;445.4
630.0;520.6;;;;;;;;;;;;;;0.6136662;0.6535234;0.24304941;;;;;445.4
630.0;520.6;;;;;;;;;;;;;;;;;-0.839259;-19.466995;10.551775;;445.4
630.0;520.6;;;;;;;;;;;;;;0.5910825;0.6789758;0.21552171;;;;;445.4
630.0;520.6;;;;;;;;;;;;;;;;;-2.1553698;-23.659475;13.161107;;455.1
630.0;520.6;;;;;;;;;;;;;;0.58442944;0.6969207;0.23096408;;;;;455.1
630.0;520.6;;;;;;;;;;;;;;;;;-7.354961;-25.925474;15.312662;;455.1
630.0;520.6;;;;;;;;;;;;;;0.60390025;0.73213905;0.25891903;;;;;455.1
630.0;534.4;;;;;;;;;;;;;;;;;-10.258034;-26.116215;18.360699;;464.8
630.0;534.4;;;;;;;;;;;;;;0.60896635;0.7514878;0.28833887;;;;;464.8
630.0;534.4;;;;;;;;;;;;;;;;;-7.87759;-28.416548;21.485031;;464.8
630.0;534.4;;;;;;;;;;;;;;0.60768455;0.76845604;0.26270333;;;;;464.8
630.0;534.4;;;;;;;;;;;;;;;;;-3.0251474;-33.55129;24.323254;;474.4
630.0;534.4;;;;;;;;;;;;;;0.60158086;0.7960448;0.19037446;;;;;474.4
630.0;534.4;;;;;;;;;;;;;;;;;3.0785549;-40.375988;26.654104;;474.4
630.0;534.4;;;;;;;;;;;;;;0.5955382;0.82412183;0.11548204;;;;;474.4
630.0;534.4;;;;;;;;;;;;;;;;;8.606219;-48.83343;30.220953;;483.9
630.0;534.4;;;;;;;;;;;;;;0.61323893;0.8352916;0.039429914;;;;;483.9
630.0;534.4;;;;;;;;;;;;;;;;;9.92233;-54.643394;34.424877;;483.9
630.0;534.4;;;;;;;;;;;;;;0.63234353;0.80239266;-0.013550218;;;;;483.9
692.0;579.7;;;;;;;;;;;;;;;;;6.286813;-58.355206;39.28495;;493.4
692.0;579.7;;;;;;;;;;;;;;0.6128117;0.7035737;0.013611255;;;;;493.4
692.0;579.7;;;;;;;;;;;;;;;;;-4.5510726;-63.93628;42.84036;;493.4
692.0;579.7;;;;;;;;;;;;;;0.5870541;0.5735649;0.106631674;;;;;493.4
692.0;579.7;;;;;;;;;;;;;;;;;-18.810846;-73.61446;45.834984;;503.1
692.0;579.7;;;;;;;;;;;;;;0.5569628;0.45655692;0.12854396;;;;;503.1
692.0;579.7;;;;;;;;;;;;;;;;;-27.100437;-81.81249;50.473797;;503.1
692.0;579.7;;;;;;;;;;;;;;0.57527393;0.3355205;0.0954619;;;;;503.1
692.0;579.7;;;;;;;;;;;;;;;;;-33.43303;-72.73705;54.815056;;512.7
692.0;579.7;;;;;;;;;;;;;;0.60444957;0.22412793;0.27240822;;;;;512.7
692.0;579.7;;;;;;;;;;;;;;;;;-40.566727;-59.984127;58.622242;;512.7
692.0;579.7;;;;;;;;;;;;;;0.5719169;0.13830988;0.6263619;;;;;512.7
692.0;594.8;;;;;;;;;;;;;;;;;-40.627766;-64.84802;61.326942;;522.4
692.0;594.8;;;;;;;;;;;;;;0.69142735;0.19434187;0.8734397;;;;;522.4
692.0;594.8;;;;;;;;;;;;;;;;;-22.587511;-71.363716;61.746574;;522.4
692.0;594.8;;;;;;;;;;;;;;0.96511734;0.42469558;0.865627;;;;;522.4
692.0;594.8;;;;;;;;;;;;;;;;;-6.2372203;-52.83517;57.80206;;532.1
692.0;594.8;;;;;;;;;;;;;;1.1926633;0.6225776;0.967803;;;;;532.1
692.0;594.8;;;;;;;;;;;;;;;;;32.84936;-56.54698;53.876614;;532.1
692.0;594.8;;;;;;;;;;;;;;1.195349;0.7414167;0.80721456;;;;;532.1
692.0;594.8;;;;;;;;;;;;;;;;;87.504196;-109.45845;58.362835;;541.6
692.0;594.8;;;;;;;;;;;;;;1.3739433;0.7194433;0.022827845;;;;;541.6
692.0;594.8;;;;;;;;;;;;;;;;;99.08978;-124.98093;72.35175;;541.6
692.0;594.8;;;;;;;;;;;;;;1.5120701;0.36610004;-0.5832698;;;;;541.6
750.0;640.0;;;;;;;;;;;;;;;;;85.89435;-116.95456;83.05231;;551.3
750.0;640.0;;;;;;;;;;;;;;1.582934;0.077883236;-0.5083163;;;;;551.3
750.0;640.0;;;;;;;;;;;;;;;;;61.147648;-77.028725;86.8595;;551.3
750.0;640.0;;;;;;;;;;;;;;1.5212256;-0.04156621;-0.13061923;;;;;551.3
750.0;640.0;;;;;;;;;;;;;;;;;70.5092;-59.488205;82.99509;;560.8
750.0;640.0;;;;;;;;;;;;;;1.3408612;0.16284677;0.15326396;;;;;560.8
750.0;640.0;;;;;;;;;;;;;;;;;93.45912;-84.646904;76.90283;;560.8
750.0;640.0;;;;;;;;;;;;;;1.1321757;0.32605976;-0.03540147;;;;;560.8
750.0;640.0;;;;;;;;;;;;;;;;;98.658714;-94.16868;77.314835;;570.4
750.0;640.0;;;;;;;;;;;;;;1.0003357;0.27430037;-0.26911223;;;;;570.4
750.0;640.0;;;;;;;;;;;;;;;;;82.25883;-59.984127;77.585686;;570.4
750.0;640.0;;;;;;;;;;;;;;0.96017337;0.2826014;-0.12945952;;;;;570.4
750.0;655.4;;;;;;;;;;;;;;;;;71.52394;-37.549213;71.607864;;580.1
750.0;655.4;;;;;;;;;;;;;;0.8577532;0.43061617;0.14435256;;;;;580.1
750.0;655.4;;;;;;;;;;;;;;;;;73.78994;-68.66664;67.44209;;580.1
750.0;655.4;;;;;;;;;;;;;;0.8809473;0.5647145;-0.021790216;;;;;580.1
750.0;655.4;;;;;;;;;;;;;;;;;69.66612;-90.53697;72.35938;;589.7
750.0;655.4;;;;;;;;;;;;;;1.0224922;0.5040437;-0.25305948;;;;;589.7
750.0;655.4;;;;;;;;;;;;;;;;;55.33387;-61.97928;76.185646;;589.7
750.0;655.4;;;;;;;;;;;;;;1.063448;0.34900966;-0.107058935;;;;;589.7
750.0;655.4;;;;;;;;;;;;;;;;;41.19617;-34.29136;76.01016;;599.4
750.0;655.4;;;;;;;;;;;;;;1.0327463;0.25598925;0.146733;;;;;599.4
750.0;655.4;;;;;;;;;;;;;;;;;43.393505;-41.26484;77.19276;;599.4
750.0;655.4;;;;;;;;;;;;;;1.0345775;0.25336465;0.19568469;;;;;599.4
808.0;700.3;;;;;;;;;;;;;;;;;52.159946;-54.17417;78.99716;;609.1
808.0;700.3;;;;;;;;;;;;;;1.0621662;0.30939665;0.092043824;;;;;609.1
808.0;700.3;;;;;;;;;;;;;;;;;57.355724;-51.095615;81.60649;;609.1
808.0;700.3;;;;;;;;;;;;;;1.076571;0.3552965;0.0220954;;;;;609.1
808.0;700.3;;;;;;;;;;;;;;;;;57.45491;-38.52962;83.90683;;618.8
808.0;700.3;;;;;;;;;;;;;;1.0885342;0.37366864;0.039246805;;;;;618.8
808.0;700.3;;;;;;;;;;;;;;;;;54.685356;-30.064547;87.14942;;618.8
808.0;700.3;;;;;;;;;;;;;;1.0891446;0.34034243;0.05267495;;;;;618.8
808.0;700.3;;;;;;;;;;;;;;;;;51.320686;-29.79751;90.94134;;628.5
808.0;700.3;;;;;;;;;;;;;;1.1071504;0.27759635;-0.008362072;;;;;628.5
808.0;700.3;;;;;;;;;;;;;;;;;47.566914;-28.618732;94.0466;;628.5
808.0;700.3;;;;;;;;;;;;;;1.1399274;0.22913297;-0.08221687;;;;;628.5
808.0;707.7;;;;;;;;;;;;;;;;;45.453503;-21.698662;96.81235;;638.0
808.0;707.7;;;;;;;;;;;;;;1.168981;0.17957091;-0.09698782;;;;;638.0
808.0;707.7;;;;;;;;;;;;;;;;;44.557022;-12.897885;98.23908;;638.0
808.0;707.7;;;;;;;;;;;;;;1.188757;0.12207404;-0.04608295;;;;;638.0
808.0;707.7;;;;;;;;;;;;;;;;;46.395763;-9.014404;98.16279;;647.6
808.0;707.7;;;;;;;;;;;;;;1.1900998;0.07330546;0.0075075533;;;;;647.6
808.0;707.7;;;;;;;;;;;;;;;;;50.637836;-11.745811;95.156715;;647.6
808.0;707.7;;;;;;;;;;;;;;1.1741692;0.08429212;-0.010010071;;;;;647.6
808.0;707.7;;;;;;;;;;;;;;;;;59.53017;-18.539995;92.814415;;657.2
808.0;707.7;;;;;;;;;;;;;;1.1617175;0.103946045;-0.09607227;;;;;657.2
808.0;707.7;;;;;;;;;;;;;;;;;68.685715;-23.1254;90.24323;;657.2
808.0;707.7;;;;;;;;;;;;;;1.1609851;0.1472213;-0.16101566;;;;;657.2
875.0;760.5;;;;;;;;;;;;;;;;;71.913055;-22.11829;86.9892;;666.8
875.0;760.5;;;;;;;;;;;;;;1.1562853;0.18750572;-0.17505418;;;;;666.8
875.0;760.5;;;;;;;;;;;;;;;;;72.29453;-19.417402;83.48338;;666.8
875.0;760.5;;;;;;;;;;;;;;1.1448103;0.21643727;-0.16168706;;;;;666.8
875.0;760.5;;;;;;;;;;;;;;;;;74.50331;-21.21418;79.84405;;676.5
875.0;760.5;;;;;;;;;;;;;;1.1333354;0.25782037;-0.17877743;;;;;676.5
875.0;760.5;;;;;;;;;;;;;;;;;78.76064;-25.158695;76.04831;;676.5
875.0;760.5;;;;;;;;;;;;;;1.1246681;0.2948088;-0.23175757;;;;;676.5
875.0;760.5;;;;;;;;;;;;;;;;;81.98416;-25.837732;73.26731;;686.2
875.0;760.5;;;;;;;;;;;;;;1.1042818;0.30951872;-0.25098422;;;;;686.2
875.0;760.5;;;;;;;;;;;;;;;;;81.617935;-23.556475;70.44054;;686.2
875.0;760.5;;;;;;;;;;;;;;1.0807825;0.32288584;-0.23120824;;;;;686.2
875.0;768.2;;;;;;;;;;;;;;;;;79.889824;-21.50029;67.63665;;695.9
875.0;768.2;;;;;;;;;;;;;;1.0509964;0.33814508;-0.20471816;;;;;695.9
875.0;768.2;;;;;;;;;;;;;;;;;78.424934;-21.965698;64.75265;;695.9
875.0;768.2;;;;;;;;;;;;;;1.0100406;0.37244788;-0.20300913;;;;;695.9
875.0;768.2;;;;;;;;;;;;;;;;;77.70013;-25.093843;62.76513;;705.5
875.0;768.2;;;;;;;;;;;;;;0.97866756;0.4008301;-0.22229682;;;;;705.5
875.0;768.2;;;;;;;;;;;;;;;;;77.25379;-28.160954;62.555313;;705.5
875.0;768.2;;;;;;;;;;;;;;0.9522996;0.40137944;-0.24579607;;;;;705.5
875.0;768.2;;;;;;;;;;;;;;;;;75.38072;-28.401287;62.280647;;715.2
875.0;768.2;;;;;;;;;;;;;;0.9226966;0.4074221;-0.24805444;;;;;715.2
875.0;768.2;;;;;;;;;;;;;;;;;72.115234;-27.134771;61.22013;;715.2
875.0;768.2;;;;;;;;;;;;;;0.8915067;0.4161504;-0.23548082;;;;;715.2
931.0;820.6;;;;;;;;;;;;;;;;;68.09061;-27.020327;62.101353;;724.8
931.0;820.6;;;;;;;;;;;;;;0.87130344;0.4090701;-0.22913297;;;;;724.8
931.0;820.6;;;;;;;;;;;;;;;;;63.409836;-25.982697;63.982056;;724.8
931.0;820.6;;;;;;;;;;;;;;0.8512833;0.3859981;-0.21875668;;;;;724.8
931.0;820.6;;;;;;;;;;;;;;;;;60.441906;-25.35325;65.37828;;734.4
931.0;820.6;;;;;;;;;;;;;;0.8445692;0.36237678;-0.21399578;;;;;734.4
931.0;820.6;;;;;;;;;;;;;;;;;57.90124;-24.06003;65.78646;;734.4
931.0;820.6;;;;;;;;;;;;;;0.83553576;0.35700554;-0.20209357;;;;;734.4
931.0;820.6;;;;;;;;;;;;;;;;;53.91095;-22.328104;65.86276;;743.8
931.0;820.6;;;;;;;;;;;;;;0.82760096;0.36573383;-0.18378246;;;;;743.8
931.0;820.6;;;;;;;;;;;;;;;;;49.703205;-21.244698;66.88132;;743.8
931.0;820.6;;;;;;;;;;;;;;0.81283;0.34473708;-0.17987609;;;;;743.8
931.0;828.1;;;;;;;;;;;;;;;;;46.918392;-20.77929;68.60179;;753.5
931.0;828.1;;;;;;;;;;;;;;0.8132572;0.3185522;-0.18774988;;;;;753.5
931.0;828.1;;;;;;;;;;;;;;;;;44.52269;-19.951475;69.68901;;753.5
931.0;828.1;;;;;;;;;;;;;;0.82125306;0.2804651;-0.21411787;;;;;753.5
931.0;828.1;;;;;;;;;;;;;;;;;42.058323;-16.899626;69.60127;;763.1
931.0;828.1;;;;;;;;;;;;;;0.82863855;0.27790156;-0.20801416;;;;;763.1
931.0;828.1;;;;;;;;;;;;;;;;;40.375988;-14.797663;69.73098;;763.1
931.0;828.1;;;;;;;;;;;;;;0.83913696;0.27741325;-0.18506424;;;;;763.1
931.0;828.1;;;;;;;;;;;;;;;;;39.0141;-14.088107;70.16205;;772.8
931.0;828.1;;;;;;;;;;;;;;0.85744804;0.25434124;-0.1861629;;;;;772.8
931.0;828.1;;;;;;;;;;;;;;;;;38.201546;-12.371441;71.17298;;772.8
931.0;828.1;;;;;;;;;;;;;;0.8745384;0.20941801;-0.18317209;;;;;772.8
993.0;880.9;;;;;;;;;;;;;;;;;36.69088;-9.552294;71.18061;;782.5
993.0;880.9;;;;;;;;;;;;;;0.8980987;0.15576647;-0.16162603;;;;;782.5
993.0;880.9;;;;;;;;;;;;;;;;;35.596027;-6.8094425;70.70757;;782.5
993.0;880.9;;;;;;;;;;;;;;0.9218421;0.14484085;-0.095278785;;;;;782.5
993.0;880.9;;;;;;;;;;;;;;;;;33.9938;-7.309183;69.66994;;792.0
993.0;880.9;;;;;;;;;;;;;;0.93594164;0.09198279;-0.10296945;;;;;792.0
993.0;880.9;;;;;;;;;;;;;;;;;36.12247;-7.351146;68.60942;;792.0
993.0;880.9;;;;;;;;;;;;;;0.9616382;0.082583085;-0.11529893;;;;;792.0
993.0;880.9;;;;;;;;;;;;;;;;;36.988434;-5.413221;66.88895;;801.7
993.0;880.9;;;;;;;;;;;;;;0.9729301;0.0933256;-0.11011078;;;;;801.7
993.0;880.9;;;;;;;;;;;;;;;;;37.42714;-4.1772213;65.332504;;801.7
993.0;880.9;;;;;;;;;;;;;;0.97274697;0.10858486;-0.094485305;;;;;801.7
993.0;888.4;;;;;;;;;;;;;;;;;37.877285;-3.9216285;63.802757;;811.3
993.0;888.4;;;;;;;;;;;;;;0.9733573;0.106509596;-0.09454634;;;;;811.3
993.0;888.4;;;;;;;;;;;;;;;;;38.777584;-3.055666;62.00598;;811.3
993.0;888.4;;;;;;;;;;;;;;0.9621876;0.117313154;-0.0865505;;;;;811.3
993.0;888.4;;;;;;;;;;;;;;;;;39.082764;-2.5330362;59.71328;;820.9
993.0;888.4;;;;;;;;;;;;;;0.95181125;0.136845;-0.082583085;;;;;820.9
993.0;888.4;;;;;;;;;;;;;;;;;39.44517;-2.4491103;57.30613;;820.9
993.0;888.4;;;;;;;;;;;;;;0.93905455;0.1594287;-0.07519761;;;;;820.9
993.0;888.4;;;;;;;;;;;;;;;;;39.929653;-2.8534806;55.15076;;830.6
993.0;888.4;;;;;;;;;;;;;;0.918363;0.17078158;-0.05590991;;;;;830.6
993.0;888.4;;;;;;;;;;;;;;;;;39.532913;-4.8409986;52.373577;;830.6
993.0;888.4;;;;;;;;;;;;;;0.90517896;0.19678335;-0.05450606;;;;;830.6
1049.0;941.6;;;;;;;;;;;;;;;;;38.987396;-8.331553;51.313057;;840.2
1049.0;941.6;;;;;;;;;;;;;;0.89223915;0.18317209;-0.093264565;;;;;840.2
1049.0;941.6;;;;;;;;;;;;;;;;;39.23154;-10.177923;50.466167;;840.2
1049.0;941.6;;;;;;;;;;;;;;0.8838771;0.15430158;-0.12567522;;;;;840.2
1049.0;941.6;;;;;;;;;;;;;;;;;40.02884;-10.124516;49.954983;;849.7
1049.0;941.6;;;;;;;;;;;;;;0.8786279;0.14050722;-0.11090426;;;;;849.7
1049.0;941.6;;;;;;;;;;;;;;;;;41.329693;-10.97522;48.73043;;849.7
1049.0;941.6;;;;;;;;;;;;;;0.86849576;0.12689596;-0.1076693;;;;;849.7
1049.0;941.6;;;;;;;;;;;;;;;;;43.56136;-11.902219;48.00943;;859.3
1049.0;941.6;;;;;;;;;;;;;;0.86703086;0.11383404;-0.095706046;;;;;859.3
1049.0;941.6;;;;;;;;;;;;;;;;;45.819725;-12.852107;47.219765;;859.3
1049.0;941.6;;;;;;;;;;;;;;0.8609882;0.10174871;-0.09112827;;;;;859.3
1049.0;942.4;;;;;;;;;;;;;;;;;47.254097;-13.706625;46.803947;;869.0
1049.0;942.4;;;;;;;;;;;;;;0.84487444;0.09308145;-0.09668264;;;;;869.0
1049.0;942.4;;;;;;;;;;;;;;;;;47.795803;-14.95407;46.815395;;869.0
1049.0;942.4;;;;;;;;;;;;;;0.82418287;0.08874783;-0.10754723;;;;;869.0
1049.0;942.4;;;;;;;;;;;;;;;;;47.978912;-16.663107;47.845394;;878.7
1049.0;942.4;;;;;;;;;;;;;;0.81441694;0.065309614;-0.13226722;;;;;878.7
1049.0;942.4;;;;;;;;;;;;;;;;;48.63506;-17.864773;48.5168;;878.7
1049.0;942.4;;;;;;;;;;;;;;0.8092898;0.05206458;-0.14075136;;;;;878.7
1049.0;942.4;;;;;;;;;;;;;;;;;48.65795;-18.814661;49.100468;;888.3
1049.0;942.4;;;;;;;;;;;;;;0.8102054;0.054750208;-0.13922544;;;;;888.3
1049.0;942.4;;;;;;;;;;;;;;;;;49.058506;-19.436476;50.25254;;888.3
1049.0;942.4;;;;;;;;;;;;;;0.8222907;0.04834132;-0.12213507;;;;;888.3
1110.0;1001.5;;;;;;;;;;;;;;;;;47.860653;-19.84466;50.908688;;898.0
1110.0;1001.5;;;;;;;;;;;;;;0.8463393;0.06567583;-0.09765923;;;;;898.0
1110.0;1001.5;;;;;;;;;;;;;;;;;45.457317;-19.634846;51.90054;;898.0
1110.0;1001.5;;;;;;;;;;;;;;0.8647725;0.07794427;-0.09173864;;;;;898.0
1110.0;1001.5;;;;;;;;;;;;;;;;;43.195137;-19.157995;53.090763;;907.5
1110.0;1001.5;;;;;;;;;;;;;;0.8814356;0.09601123;-0.098391674;;;;;907.5
1110.0;1001.5;;;;;;;;;;;;;;;;;41.219063;-19.508957;54.727318;;907.5
1110.0;1001.5;;;;;;;;;;;;;;0.8829005;0.098941006;-0.13000885;;;;;907.5
1110.0;1001.5;;;;;;;;;;;;;;;;;40.25773;-20.210882;55.322426;;917.1
1110.0;1001.5;;;;;;;;;;;;;;0.93435466;0.12543108;-0.19580676;;;;;917.1
1110.0;1001.5;;;;;;;;;;;;;;;;;39.46806;-15.892513;55.986206;;917.1
1110.0;1001.5;;;;;;;;;;;;;;0.93215734;0.13135166;-0.20746483;;;;;917.1
1110.0;1002.3;;;;;;;;;;;;;;;;;37.85821;-12.588885;56.15024;;926.8
1110.0;1002.3;;;;;;;;;;;;;;0.93972594;0.156621;-0.20795313;;;;;926.8
1110.0;1002.3;;;;;;;;;;;;;;;;;34.257027;-10.662404;56.119724;;926.8
1110.0;1002.3;;;;;;;;;;;;;;0.95223856;0.18256173;-0.2075869;;;;;926.8
1110.0;1002.3;;;;;;;;;;;;;;;;;28.576769;-8.915219;56.375317;;936.5
1110.0;1002.3;;;;;;;;;;;;;;0.9551073;0.16034424;-0.19855343;;;;;936.5
1110.0;1002.3;;;;;;;;;;;;;;;;;23.518326;-8.648182;55.593277;;936.5
1110.0;1002.3;;;;;;;;;;;;;;0.96731466;0.18146306;-0.19409773;;;;;936.5
1110.0;1002.3;;;;;;;;;;;;;;;;;17.456587;-9.388257;54.23902;;946.0
1110.0;1002.3;;;;;;;;;;;;;;0.9864803;0.19806513;-0.22949919;;;;;946.0
1110.0;1002.3;;;;;;;;;;;;;;;;;12.092959;-6.9620347;54.143654;;946.0
1110.0;1002.3;;;;;;;;;;;;;;1.0115665;0.19031343;-0.23120824;;;;;946.0
1171.0;1062.2;;;;;;;;;;;;;;;;;8.156072;-3.6812954;53.559986;;955.7
1171.0;1062.2;;;;;;;;;;;;;;1.0103458;0.1775567;-0.21222572;;;;;955.7
1171.0;1062.2;;;;;;;;;;;;;;;;;4.1314435;-3.2654805;52.21717;;955.7
1171.0;1062.2;;;;;;;;;;;;;;1.0204779;0.18335521;-0.21277505;;;;;955.7
1171.0;1062.2;;;;;;;;;;;;;;;;;0.2784814;-3.2044435;51.690723;;965.3
1171.0;1062.2;;;;;;;;;;;;;;1.025483;0.1810358;-0.22730187;;;;;965.3
1171.0;1062.2;;;;;;;;;;;;;;;;;-3.8033693;-2.0867033;50.30213;;965.3
1171.0;1062.2;;;;;;;;;;;;;;1.0283517;0.19446394;-0.23474838;;;;;965.3
1171.0;1062.2;;;;;;;;;;;;;;;;;-6.637776;-0.85833305;49.39421;;974.8
1171.0;1062.2;;;;;;;;;;;;;;1.0213934;0.18921477;-0.2329783;;;;;974.8
1171.0;1062.2;;;;;;;;;;;;;;;;;-8.430738;-0.25940734;48.295544;;974.8
1171.0;1062.2;;;;;;;;;;;;;;1.0165715;0.17780083;-0.23517564;;;;;974.8
1171.0;1063.0;;;;;;;;;;;;;;;;;-9.31959;-0.10299997;46.651356;;984.5
1171.0;1063.0;;;;;;;;;;;;;;1.0154729;0.17957091;-0.23273416;;;;;984.5
1171.0;1063.0;;;;;;;;;;;;;;;;;-10.929441;-0.37003693;44.7058;;984.5
1171.0;1063.0;;;;;;;;;;;;;;1.0268258;0.19116795;-0.22620319;;;;;984.5
1171.0;1063.0;;;;;;;;;;;;;;;;;-13.214515;-0.32425916;42.744987;;994.1
1171.0;1063.0;;;;;;;;;;;;;;1.0436109;0.2021546;-0.19946899;;;;;994.1
1171.0;1063.0;;;;;;;;;;;;;;;;;-16.8157;-0.44251838;40.52095;;994.1
1171.0;1063.0;;;;;;;;;;;;;;1.0669881;0.24726096;-0.15143284;;;;;994.1
1171.0;1063.0;;;;;;;;;;;;;;;;;-21.286661;-1.1368145;38.56777;;1003.8
1171.0;1063.0;;;;;;;;;;;;;;1.0826136;0.24134037;-0.114200264;;;;;1003.8
1171.0;1063.0;;;;;;;;;;;;;;;;;-25.566881;-3.6011841;36.023285;;1003.8
1171.0;1063.0;;;;;;;;;;;;;;1.1196631;0.2717368;-0.12982574;;;;;1003.8
1173.0;1122.1;;;;;;;;;;;;;;;;;-29.25962;-4.463332;34.161655;;1013.4
1173.0;1122.1;;;;;;;;;;;;;;1.1573229;0.2603229;-0.16968292;;;;;1013.4
1173.0;1122.1;;;;;;;;;;;;;;;;;-32.51747;-3.4142585;32.23899;;1013.4
1173.0;1122.1;;;;;;;;;;;;;;1.1947997;0.29834896;-0.16986603;;;;;1013.4
1173.0;1122.1;;;;;;;;;;;;;;;;;-36.98462;-3.2044435;30.652027;;1023.1
1173.0;1122.1;;;;;;;;;;;;;;1.206885;0.3374737;-0.15509507;;;;;1023.1
1173.0;1122.1;;;;;;;;;;;;;;;;;-41.436504;-5.901517;29.580067;;1023.1
1173.0;1122.1;;;;;;;;;;;;;;1.2320322;0.38093203;-0.16229743;;;;;1023.1
1173.0;1122.1;;;;;;;;;;;;;;;;;-46.514023;-8.579515;28.065584;;1032.7
1173.0;1122.1;;;;;;;;;;;;;;1.2518082;0.42200994;-0.17413862;;;;;1032.7
1173.0;1122.1;;;;;;;;;;;;;;;;;-50.210575;-10.502182;26.81814;;1032.7
1173.0;1122.1;;;;;;;;;;;;;;1.2593157;0.44141972;-0.16534929;;;;;1032.7
1174.0;1122.9;;;;;;;;;;;;;;;;;-51.942505;-13.340404;25.833918;;1042.3
1174.0;1122.9;;;;;;;;;;;;;;1.2545549;0.45863217;-0.1530198;;;;;1042.3
1174.0;1122.9;;;;;;;;;;;;;;;;;-52.11417;-17.983032;25.05188;;1042.3
1174.0;1122.9;;;;;;;;;;;;;;1.26133;0.46656698;-0.16138189;;;;;1042.3
1174.0;1122.9;;;;;;;;;;;;;;;;;-51.5038;-21.328623;24.887844;;1051.9
1174.0;1122.9;;;;;;;;;;;;;;1.2605976;0.45594653;-0.16016114;;;;;1051.9
1174.0;1122.9;;;;;;;;;;;;;;;;;-52.89239;-23.35429;24.494919;;1051.9
1174.0;1122.9;;;;;;;;;;;;;;1.2672505;0.45136875;-0.1389813;;;;;1051.9
1174.0;1122.9;;;;;;;;;;;;;;;;;-57.4015;-24.372845;24.109623;;1061.6
1174.0;1122.9;;;;;;;;;;;;;;1.2801294;0.4389172;-0.113528855;;;;;1061.6
1174.0;1122.9;;;;;;;;;;;;;;;;;-63.21528;-23.83114;23.22077;;1061.6
1174.0;1122.9;;;;;;;;;;;;;;1.2936186;0.43250832;-0.09418012;;;;;1061.6
1174.0;1126.7;;;;0.0;0.0;0.0;;;;;;;;;;;;;;;
1174.0;1126.7;;;;-0.42145926;0.057697304;-0.1184044;;;;;;;;;;;;;;;
1174.0;1126.7;;;;-1.2753335;0.12563325;-0.41059119;;;;;;;;;;;;;;;
1174.0;1126.7;;;;-1.3107301;0.124229446;-0.42745978;;;;;;;;;;;;;;;
1174.0;1126.7;;;;-1.3151132;0.12470247;-0.42796332;;;;;;;;;;;;;;;
1174.0;1136.7;;;;-1.3188516;0.12514116;-0.42735678;;;;;;;;;;;;;;;
1174.0;1136.7;;;;-1.3221132;0.1260605;-0.4273873;;;;;;;;;;;;;;;
1174.0;1136.7;;;;-1.323929;0.12729646;-0.42742544;;;;;;;;;;;;;;;
1174.0;1136.7;;;;-1.3251725;0.1287842;-0.427517;;;;;;;;;;;;;;;
1174.0;1136.7;;;;-1.3251954;0.13052751;-0.42745215;;;;;;;;;;;;;;;
1234.0;1137.9;57536;57511;11870;;;;;;;;;;;;;;;;;;
1234.0;1146.6;;;;-1.3240625;0.13198854;-0.42736822;;;;;;;;;;;;;;;
1234.0;1146.6;;;;-1.3216859;0.13355638;-0.42727286;;;;;;;;;;;;;;;
1234.0;1146.6;;;;-1.3184167;0.13554002;-0.4278565;;;;;;;;;;;;;;;
1234.0;1146.6;;;;-1.3139383;0.13754655;-0.42771536;;;;;;;;;;;;;;;
1234.0;1146.6;;;;-1.3094255;0.13942339;-0.42846304;;;;;;;;;;;;;;;
1234.0;1156.6;;;;-1.304371;0.14136507;-0.4285279;;;;;;;;;;;;;;;
1234.0;1156.6;;;;-1.2989808;0.14309312;-0.42893225;;;;;;;;;;;;;;;
1234.0;1156.6;;;;-1.2935487;0.14490129;-0.42979437;;;;;;;;;;;;;;;
1234.0;1156.6;;;;-1.2882386;0.14670183;-0.4300614;;;;;;;;;;;;;;;
1234.0;1156.6;;;;-1.2823945;0.1480446;-0.42990118;;;;;;;;;;;;;;;
1234.0;1157.9;73816;73716;11867;;;;;;;;;;;;;;;;;;
1234.0;1164.3;;;;;;;;;;;;;0;;;;;;;;
1234.0;1164.3;;;;;;;;;;;;;0;;;;;;;;
1234.0;1164.3;;;;;;;;;;;;;-1;;;;;;;;
1234.0;1164.3;;;;;;;;;;;;;-3;;;;;;;;
1234.0;1164.3;;;;;;;;;;;;;-3;;;;;;;;
1234.0;1166.7;;;;-1.2760507;0.1496277;-0.42830664;;;;;;;;;;;;;;;
1234.0;1166.7;;;;-1.2703019;0.15135194;-0.42804724;;;;;;;;;;;;;;;
1234.0;1166.7;;;;-1.2652742;0.15207292;-0.427002;;;;;;;;;;;;;;;
1234.0;1166.7;;;;-1.2602388;0.15333559;-0.4256516;;;;;;;;;;;;;;;
1234.0;1166.7;;;;-1.2559358;0.15480806;-0.42306525;;;;;;;;;;;;;;;
1236.0;1176.9;;;;-1.2514077;0.1559334;-0.41955954;;;;;;;;;;;;;;;
1236.0;1176.9;;;;-1.2472764;0.15731813;-0.41613013;;;;;;;;;;;;;;;
1236.0;1176.9;;;;-1.2429277;0.15856935;-0.41306692;;;;;;;;;;;;;;;
1236.0;1176.9;;;;-1.2378732;0.15965654;-0.40933615;;;;;;;;;;;;;;;
1236.0;1176.9;;;;-1.2311975;0.16065599;-0.40424734;;;;;;;;;;;;;;;
1236.0;1178.2;90203;90245;11854;;;;;;;;;;;;;;;;;;
1236.0;1182.2;;;;;;;;;;;;;;;;;-68.990906;-21.877956;21.92755;;1071.2
1236.0;1182.2;;;;;;;;;;;;;;1.3065584;0.4116947;-0.08600116;;;;;1071.2
1236.0;1182.2;;;;;;;;;;;;;;;;;-72.66839;-18.868069;18.757439;;1071.2
1236.0;1182.2;;;;;;;;;;;;;;1.3109531;0.40766624;-0.08337657;;;;;1071.2
1236.0;1182.2;;;;;;;;;;;;;;;;;-74.77416;-16.056551;14.366589;;1080.9
1236.0;1182.2;;;;;;;;;;;;;;1.3094271;0.40485856;-0.097048864;;;;;1080.9
1236.0;1182.2;;;;;;;;;;;;;;;;;-72.943054;-14.297922;10.402997;;1080.9
1236.0;1182.2;;;;;;;;;;;;;;1.3090609;0.39643544;-0.11658071;;;;;1080.9
1236.0;1182.2;;;;;;;;;;;;;;;;;-69.78057;-11.87933;5.9739985;;1090.5
1236.0;1182.2;;;;;;;;;;;;;;1.3093051;0.3688467;-0.14270455;;;;;1090.5
1236.0;1182.2;;;;;;;;;;;;;;;;;-66.65243;-7.3244424;0.6637776;;1090.5
1236.0;1182.2;;;;;;;;;;;;;;1.3149205;0.34009826;-0.15570544;;;;;1090.5
1238.0;1183.4;;;;;;;;;;;;;;;;;-63.882874;-2.1782587;-4.2497025;;1100.2
1238.0;1183.4;;;;;;;;;;;;;;1.3280435;0.28479874;-0.16913357;;;;;1100.2
1238.0;1183.4;;;;;;;;;;;;;;;;;-60.758537;4.547258;-9.067812;;1100.2
1238.0;1183.4;;;;;;;;;;;;;;1.3431807;0.2174749;-0.17188025;;;;;1100.2
1238.0;1183.4;;;;;;;;;;;;;;;;;-57.46254;12.222664;-14.252144;;1109.9
1238.0;1183.4;;;;;;;;;;;;;;1.3606372;0.15289773;-0.15863521;;;;;1109.9
1238.0;1183.4;;;;;;;;;;;;;;;;;-54.116947;18.086031;-19.650105;;1109.9
1238.0;1183.4;;;;;;;;;;;;;;1.3861507;0.09228797;-0.15930662;;;;;1109.9
1238.0;1183.4;;;;;;;;;;;;;;;;;-50.218204;23.106327;-25.112917;;1119.3
1238.0;1183.4;;;;;;;;;;;;;;1.4004945;0.045533616;-0.16461684;;;;;1119.3
1238.0;1183.4;;;;;;;;;;;;;;;;;-46.025726;28.855251;-31.754509;;1119.3
1238.0;1183.4;;;;;;;;;;;;;;1.4053774;-0.0036622211;-0.17481002;;;;;1119.3
1238.0;1186.7;;;;-1.2228853;0.16181184;-0.3992043;;;;;;;;;;;;;;;
1238.0;1186.7;;;;-1.2143289;0.16279222;-0.39314276;;;;;;;;;;;;;;;
1238.0;1186.7;;;;-1.2059022;0.16326524;-0.38623053;;;;;;;;;;;;;;;
1238.0;1186.7;;;;-1.196747;0.16413118;-0.37775046;;;;;;;;;;;;;;;
1238.0;1186.7;;;;-1.186432;0.16497804;-0.36942294;;;;;;;;;;;;;;;
1238.0;1196.5;;;;-1.1747094;0.16447832;-0.36139682;;;;;;;;;;;;;;;
1238.0;1196.5;;;;-1.1615716;0.16360857;-0.3532677;;;;;;;;;;;;;;;
1238.0;1196.5;;;;-1.1469423;0.16270067;-0.34512332;;;;;;;;;;;;;;;
1238.0;1196.5;;;;-1.131672;0.16070177;-0.33680347;;;;;;;;;;;;;;;
1238.0;1196.5;;;;-1.1162149;0.15793993;-0.3297272;;;;;;;;;;;;;;;
1238.0;1198.0;106605;106629;11852;;;;;;;;;;;;;;;;;;
1290.0;1204.4;;;;;;;;;;;;;-3;;;;;;;;
1290.0;1204.4;;;;;;;;;;;;;-8;;;;;;;;
1290.0;1204.4;;;;;;;;;;;;;-13;;;;;;;;
1290.0;1204.4;;;;;;;;;;;;;1;;;;;;;;
1290.0;1204.4;;;;;;;;;;;;;-14;;;;;;;;
1290.0;1206.6;;;;-1.1014329;0.15516283;-0.32198718;;;;;;;;;;;;;;;
1290.0;1206.6;;;;-1.0876924;0.15153886;-0.3148003;;;;;;;;;;;;;;;
1290.0;1206.6;;;;-1.075554;0.147007;-0.30856708;;;;;;;;;;;;;;;
1290.0;1206.6;;;;-1.0637971;0.14197923;-0.30158618;;;;;;;;;;;;;;;
1290.0;1206.6;;;;-1.0541803;0.13671495;-0.29571536;;;;;;;;;;;;;;;
1290.0;1216.5;;;;-1.0452806;0.1310196;-0.28984836;;;;;;;;;;;;;;;
1290.0;1216.5;;;;-1.0374986;0.12533952;-0.28422168;;;;;;;;;;;;;;;
1290.0;1216.5;;;;-1.0305063;0.11942293;-0.279583;;;;;;;;;;;;;;;
1290.0;1216.5;;;;-1.0241357;0.113330856;-0.27450183;;;;;;;;;;;;;;;
1290.0;1216.5;;;;-1.0182382;0.10710527;-0.26990893;;;;;;;;;;;;;;;
1290.0;1218.0;122980;122993;11857;;;;;;;;;;;;;;;;;;
1290.0;1226.6;;;;-1.0132371;0.101375595;-0.26570514;;;;;;;;;;;;;;;
1290.0;1226.6;;;;-1.0080796;0.09547807;-0.260479;;;;;;;;;;;;;;;
1290.0;1226.6;;;;-1.0037767;0.0902443;-0.25698093;;;;;;;;;;;;;;;
1290.0;1226.6;;;;-1.0001031;0.085285194;-0.25315097;;;;;;;;;;;;;;;
1290.0;1226.6;;;;-0.9971887;0.08153535;-0.24943927;;;;;;;;;;;;;;;
1294.0;1236.8;;;;-0.99448407;0.077831276;-0.2445679;;;;;;;;;;;;;;;
1294.0;1236.8;;;;-0.991871;0.075012214;-0.23982242;;;;;;;;;;;;;;;
1294.0;1236.8;;;;-0.98850644;0.07324601;-0.23490146;;;;;;;;;;;;;;;
1294.0;1236.8;;;;-0.98435986;0.07168961;-0.22945789;;;;;;;;;;;;;;;
1294.0;1236.8;;;;-0.97911084;0.07097245;-0.22490695;;;;;;;;;;;;;;;
1294.0;1238.3;139391;139446;11854;;;;;;;;;;;;;;;;;;
1294.0;1242.4;;;;;;;;;;;;;;;;;-38.930176;35.760063;-40.871914;;1129.0
1294.0;1242.4;;;;;;;;;;;;;;1.3973815;-0.008850368;-0.15570544;;;;;1129.0
1294.0;1242.4;;;;;;;;;;;;;;;;;-29.869991;41.989655;-51.62206;;1129.0
1294.0;1242.4;;;;;;;;;;;;;;1.3880428;0.016541032;-0.13904233;;;;;1129.0
1294.0;1242.4;;;;;;;;;;;;;;;;;-19.886623;48.615986;-61.510056;;1138.6
1294.0;1242.4;;;;;;;;;;;;;;1.3583789;0.06622516;-0.11670278;;;;;1138.6
1294.0;1242.4;;;;;;;;;;;;;;;;;-8.529923;55.92898;-70.16205;;1138.6
1294.0;1242.4;;;;;;;;;;;;;;1.3033235;0.101626635;-0.06817835;;;;;1138.6
1294.0;1242.4;;;;;;;;;;;;;;;;;3.6965547;59.747612;-78.55083;;1148.3
1294.0;1242.4;;;;;;;;;;;;;;1.2298349;0.16766869;8.5451826E-4;;;;;1148.3
1294.0;1242.4;;;;;;;;;;;;;;;;;13.256477;56.89413;-86.081276;;1148.3
1294.0;1242.4;;;;;;;;;;;;;;1.1537827;0.21875668;0.04052858;;;;;1148.3
1296.0;1243.2;;;;;;;;;;;;;;;;;22.331919;47.4601;-94.058044;;1158.0
1296.0;1243.2;;;;;;;;;;;;;;1.0826746;0.26587725;0.04260384;;;;;1158.0
1296.0;1243.2;;;;;;;;;;;;;;;;;30.610065;32.589954;-103.26319;;1158.0
1296.0;1243.2;;;;;;;;;;;;;;1.0367137;0.3246559;0.020935697;;;;;1158.0
1296.0;1243.2;;;;;;;;;;;;;;;;;35.24888;13.969848;-113.4106;;1167.7
1296.0;1243.2;;;;;;;;;;;;;;1.0177923;0.37934506;-0.044923246;;;;;1167.7
1296.0;1243.2;;;;;;;;;;;;;;;;;37.938324;0.9498886;-122.02826;;1167.7
1296.0;1243.2;;;;;;;;;;;;;;1.0201117;0.43171483;-0.09631642;;;;;1167.7
1296.0;1243.2;;;;;;;;;;;;;;;;;37.19825;-4.020814;-124.95804;;1177.4
1296.0;1243.2;;;;;;;;;;;;;;1.0459914;0.47743157;-0.12134159;;;;;1177.4
1296.0;1243.2;;;;;;;;;;;;;;;;;35.84399;-6.2562943;-124.988556;;1177.4
1296.0;1243.2;;;;;;;;;;;;;;1.1007416;0.4753563;-0.13617359;;;;;1177.4
1296.0;1244.5;;;;;;;;;;;;;10;;;;;;;;
1296.0;1244.5;;;;;;;;;;;;;12;;;;;;;;
1296.0;1244.5;;;;;;;;;;;;;-48;;;;;;;;
1296.0;1244.5;;;;;;;;;;;;;133;;;;;;;;
1296.0;1244.5;;;;;;;;;;;;;-33;;;;;;;;
1296.0;1246.7;;;;-0.9735795;0.07107545;-0.22069553;;;;;;;;;;;;;;;
1296.0;1246.7;;;;-0.96801007;0.07112504;-0.2169495;;;;;;;;;;;;;;;
1296.0;1246.7;;;;-0.9625627;0.07201768;-0.21405414;;;;;;;;;;;;;;;
1296.0;1246.7;;;;-0.9578363;0.07295228;-0.21072009;;;;;;;;;;;;;;;
1296.0;1246.7;;;;-0.9532014;0.07418824;-0.2079468;;;;;;;;;;;;;;;
1351.0;1256.7;;;;-0.94867337;0.07548142;-0.20577243;;;;;;;;;;;;;;;
1351.0;1256.7;;;;-0.94379056;0.07627488;-0.20399097;;;;;;;;;;;;;;;
1351.0;1256.7;;;;-0.9389497;0.077137;-0.20282748;;;;;;;;;;;;;;;
1351.0;1256.7;;;;-0.93494046;0.07792664;-0.20177081;;;;;;;;;;;;;;;
1351.0;1256.7;;;;-0.9311868;0.07901765;-0.20065692;;;;;;;;;;;;;;;
1351.0;1258.2;155754;155797;11859;;;;;;;;;;;;;;;;;;
1351.0;1266.8;;;;-0.9279481;0.079860695;-0.19966128;;;;;;;;;;;;;;;
1351.0;1266.8;;;;-0.9247705;0.0802002;-0.19974521;;;;;;;;;;;;;;;
1351.0;1266.8;;;;-0.9225389;0.08050919;-0.20063785;;;;;;;;;;;;;;;
1351.0;1266.8;;;;-0.92048657;0.081291206;-0.20096973;;;;;;;;;;;;;;;
1351.0;1266.8;;;;-0.9188615;0.08213044;-0.20259479;;;;;;;;;;;;;;;
1351.0;1276.6;;;;-0.91632473;0.08344651;-0.20360568;;;;;;;;;;;;;;;
1351.0;1276.6;;;;-0.9136697;0.08402253;-0.20532611;;;;;;;;;;;;;;;
1351.0;1276.6;;;;-0.9112092;0.085449226;-0.20602801;;;;;;;;;;;;;;;
1351.0;1276.6;;;;-0.90807736;0.08717347;-0.2068024;;;;;;;;;;;;;;;
1351.0;1276.6;;;;-0.9049951;0.08845902;-0.20857623;;;;;;;;;;;;;;;
1351.0;1278.2;172180;172224;11834;;;;;;;;;;;;;;;;;;
1351.0;1284.6;;;;;;;;;;;;;-586;;;;;;;;
1351.0;1284.6;;;;;;;;;;;;;29;;;;;;;;
1351.0;1284.6;;;;;;;;;;;;;1200;;;;;;;;
1351.0;1284.6;;;;;;;;;;;;;-369;;;;;;;;
1351.0;1284.6;;;;;;;;;;;;;-6080;;;;;;;;
1353.0;1286.7;;;;-0.9013406;0.09054948;-0.20910648;;;;;;;;;;;;;;;
1353.0;1286.7;;;;-0.8972131;0.092090614;-0.21002963;;;;;;;;;;;;;;;
1353.0;1286.7;;;;-0.8949548;0.09337617;-0.2114754;;;;;;;;;;;;;;;
1353.0;1286.7;;;;-0.89286816;0.09457399;-0.21286395;;;;;;;;;;;;;;;
1353.0;1286.7;;;;-0.8901292;0.09598924;-0.21405795;;;;;;;;;;;;;;;
1353.0;1296.9;;;;-0.8884164;0.097347274;-0.21492389;;;;;;;;;;;;;;;
1353.0;1296.9;;;;-0.8869287;0.09833147;-0.21573642;;;;;;;;;;;;;;;
1353.0;1296.9;;;;-0.88556683;0.09979631;-0.21663287;;;;;;;;;;;;;;;
1353.0;1296.9;;;;-0.88333523;0.10087587;-0.21770099;;;;;;;;;;;;;;;
1353.0;1296.9;;;;-0.8813478;0.10216142;-0.21851733;;;;;;;;;;;;;;;
1353.0;1298.5;188518;188555;11820;;;;;;;;;;;;;;;;;;
1353.0;1302.6;;;;;;;;;;;;;;;;;33.169807;-4.696036;-124.988556;;1187.1
1353.0;1302.6;;;;;;;;;;;;;;1.1257057;0.46864223;-0.11700796;;;;;1187.1
1353.0;1302.6;;;;;;;;;;;;;;;;;27.130957;-8.621479;-124.988556;;1187.1
1353.0;1302.6;;;;;;;;;;;;;;1.1450545;0.474868;-0.12933744;;;;;1187.1
1353.0;1302.6;;;;;;;;;;;;;;;;;25.372326;-25.456251;-124.988556;;1196.7
1353.0;1302.6;;;;;;;;;;;;;;1.1847285;0.50068665;-0.17096469;;;;;1196.7
1353.0;1302.6;;;;;;;;;;;;;;;;;20.046844;-42.84799;-124.988556;;1196.7
1353.0;1302.6;;;;;;;;;;;;;;1.2296518;0.57026887;-0.23670156;;;;;1196.7
1353.0;1302.6;;;;;;;;;;;;;;;;;6.7026277;-55.043945;-124.988556;;1206.4
1353.0;1302.6;;;;;;;;;;;;;;1.2771386;0.652913;-0.3289285;;;;;1206.4
1353.0;1302.6;;;;;;;;;;;;;;;;;-5.7412944;-61.429943;-124.988556;;1206.4
1353.0;1302.6;;;;;;;;;;;;;;1.300943;0.62910855;-0.43342388;;;;;1206.4
1354.0;1303.8;;;;;;;;;;;;;;;;;-12.039553;-62.246315;-124.988556;;1216.0
1354.0;1303.8;;;;;;;;;;;;;;1.2749412;0.46076846;-0.48121586;;;;;1216.0
1354.0;1303.8;;;;;;;;;;;;;;;;;-14.267404;-66.80121;-123.83648;;1216.0
1354.0;1303.8;;;;;;;;;;;;;;1.3223671;0.32093266;-0.5472579;;;;;1216.0
1354.0;1303.8;;;;;;;;;;;;;;;;;-18.898588;-70.10483;-117.53441;;1225.6
1354.0;1303.8;;;;;;;;;;;;;;1.3844416;0.20233771;-0.63124484;;;;;1225.6
1354.0;1303.8;;;;;;;;;;;;;;;;;-38.312176;-62.52861;-115.60412;;1225.6
1354.0;1303.8;;;;;;;;;;;;;;1.4418775;0.12665181;-0.7030854;;;;;1225.6
1354.0;1303.8;;;;;;;;;;;;;;;;;-66.07639;-43.04636;-115.81011;;1235.3
1354.0;1303.8;;;;;;;;;;;;;;1.4448073;0.04626606;-0.7293313;;;;;1235.3
1354.0;1303.8;;;;;;;;;;;;;;;;;-87.89331;-19.013033;-114.89456;;1235.3
1354.0;1303.8;;;;;;;;;;;;;;1.3904843;0.006103702;-0.65541553;;;;;1235.3
1354.0;1306.8;;;;-0.8783189;0.1034012;-0.21846774;;;;;;;;;;;;;;;
1354.0;1306.8;;;;-0.8750917;0.1051407;-0.21804813;;;;;;;;;;;;;;;
1354.0;1306.8;;;;-0.87194836;0.10688402;-0.21768573;;;;;;;;;;;;;;;
1354.0;1306.8;;;;-0.8684312;0.10894777;-0.21763995;;;;;;;;;;;;;;;
1354.0;1306.8;;;;-0.8646318;0.11139299;-0.21655658;;;;;;;;;;;;;;;
1354.0;1316.9;;;;-0.8613092;0.11378862;-0.21505359;;;;;;;;;;;;;;;
1354.0;1316.9;;;;-0.85751736;0.116352096;-0.21384433;;;;;;;;;;;;;;;
1354.0;1316.9;;;;-0.8535615;0.11916734;-0.21229175;;;;;;;;;;;;;;;
1354.0;1316.9;;;;-0.8497659;0.12204744;-0.20906833;;;;;;;;;;;;;;;
1354.0;1316.9;;;;-0.8457643;0.12477113;-0.20618442;;;;;;;;;;;;;;;
1411.0;1317.5;;;;;;;;;;;;;;;;;-106.574455;0.11825922;-108.74508;;1244.9
1411.0;1317.5;;;;;;;;;;;;;;1.3138218;-0.03564562;-0.5418256;;;;;1244.9
1411.0;1317.5;;;;;;;;;;;;;;;;;-121.99774;15.743736;-100.62715;;1244.9
1411.0;1317.5;;;;;;;;;;;;;;1.2784814;-0.0314951;-0.44044313;;;;;1244.9
1411.0;1317.5;;;;;;;;;;;;;;;;;-124.988556;32.048252;-88.42738;;1254.5
1411.0;1317.5;;;;;;;;;;;;;;1.2453383;-0.043336283;-0.34247872;;;;;1254.5
1411.0;1317.5;;;;;;;;;;;;;;;;;-124.988556;44.568466;-80.1416;;1254.5
1411.0;1317.5;;;;;;;;;;;;;;1.2490005;-0.06311228;-0.2692343;;;;;1254.5
1411.0;1317.5;;;;;;;;;;;;;;;;;-124.988556;54.109318;-80.22172;;1264.1
1411.0;1317.5;;;;;;;;;;;;;;1.2378918;-0.10681479;-0.20422986;;;;;1264.1
1411.0;1317.5;;;;;;;;;;;;;;;;;-124.988556;58.88165;-93.02423;;1264.1
1411.0;1317.5;;;;;;;;;;;;;;1.2231818;-0.068544574;-0.1386761;;;;;1264.1
1411.0;1318.4;204882;204849;11806;;;;;;;;;;;;;;;;;;
1411.0;1324.7;;;;;;;;;;;;;-12480;;;;;;;;
1411.0;1324.7;;;;;;;;;;;;;-14961;;;;;;;;
1411.0;1324.7;;;;;;;;;;;;;-13271;;;;;;;;
1411.0;1324.7;;;;;;;;;;;;;-10887;;;;;;;;
1411.0;1324.7;;;;;;;;;;;;;-9780;;;;;;;;
1411.0;1326.6;;;;-0.84155667;0.12707902;-0.20351794;;;;;;;;;;;;;;;
1411.0;1326.6;;;;-0.83617413;0.12953188;-0.20128635;;;;;;;;;;;;;;;
1411.0;1326.6;;;;-0.8309938;0.13113023;-0.19954303;;;;;;;;;;;;;;;
1411.0;1326.6;;;;-0.8248559;0.13321687;-0.19692996;;;;;;;;;;;;;;;
1411.0;1326.6;;;;-0.81806195;0.13479234;-0.19453815;;;;;;;;;;;;;;;
1413.0;1336.7;;;;-0.8109361;0.13564683;-0.1921654;;;;;;;;;;;;;;;
1413.0;1336.7;;;;-0.80417645;0.13610841;-0.18907169;;;;;;;;;;;;;;;
1413.0;1336.7;;;;-0.79843915;0.13735963;-0.18631364;;;;;;;;;;;;;;;
1413.0;1336.7;;;;-0.79239285;0.13736345;-0.18294527;;;;;;;;;;;;;;;
1413.0;1336.7;;;;-0.78686917;0.13737108;-0.17957689;;;;;;;;;;;;;;;
1413.0;1338.5;221305;221351;11800;;;;;;;;;;;;;;;;;;
1413.0;1346.9;;;;-0.780903;0.13722993;-0.17652132;;;;;;;;;;;;;;;
1413.0;1346.9;;;;-0.7747842;0.1368332;-0.1734276;;;;;;;;;;;;;;;
1413.0;1346.9;;;;-0.76832974;0.13622667;-0.1709366;;;;;;;;;;;;;;;
1413.0;1346.9;;;;-0.76148236;0.13478471;-0.16756059;;;;;;;;;;;;;;;
1413.0;1346.9;;;;-0.7548181;0.13399889;-0.16469194;;;;;;;;;;;;;;;
1413.0;1357.0;;;;-0.7479859;0.13219072;-0.16162492;;;;;;;;;;;;;;;
1413.0;1357.0;;;;-0.740326;0.13028337;-0.15875246;;;;;;;;;;;;;;;
1413.0;1357.0;;;;-0.7324868;0.12837602;-0.1562729;;;;;;;;;;;;;;;
1413.0;1357.0;;;;-0.7248078;0.12638475;-0.15420152;;;;;;;;;;;;;;;
1413.0;1357.0;;;;-0.717434;0.12404634;-0.15158464;;;;;;;;;;;;;;;
1413.0;1358.8;237724;237642;11794;;;;;;;;;;;;;;;;;;
1414.0;1362.8;;;;;;;;;;;;;;;;;-124.988556;58.717613;-111.56804;;1273.8
1414.0;1362.8;;;;;;;;;;;;;;1.1783197;0.003357036;-0.074221015;;;;;1273.8
1414.0;1362.8;;;;;;;;;;;;;;;;;-124.988556;52.762688;-123.80596;;1273.8
1414.0;1362.8;;;;;;;;;;;;;;1.146031;0.14844203;-0.017151402;;;;;1273.8
1414.0;1362.8;;;;;;;;;;;;;;;;;-124.988556;46.830654;-124.988556;;1283.5
1414.0;1362.8;;;;;;;;;;;;;;1.1122776;0.27784052;-4.2725913E-4;;;;;1283.5
1414.0;1362.8;;;;;;;;;;;;;;;;;-124.988556;43.130283;-124.988556;;1283.5
1414.0;1362.8;;;;;;;;;;;;;;1.0796227;0.3582873;-0.009582812;;;;;1283.5
1414.0;1362.8;;;;;;;;;;;;;;;;;-123.43593;43.2371;-124.988556;;1293.1
1414.0;1362.8;;;;;;;;;;;;;;1.0342723;0.40217292;-7.324442E-4;;;;;1293.1
1414.0;1362.8;;;;;;;;;;;;;;;;;-115.66134;45.178837;-124.416336;;1293.1
1414.0;1362.8;;;;;;;;;;;;;;1.0031434;0.38239694;0.007934812;;;;;1293.1
1414.0;1364.9;;;;;;;;;;;;;-8540;;;;;;;;
1414.0;1364.9;;;;;;;;;;;;;-6555;;;;;;;;
1414.0;1364.9;;;;;;;;;;;;;-5408;;;;;;;;
1414.0;1364.9;;;;;;;;;;;;;-5874;;;;;;;;
1414.0;1364.9;;;;;;;;;;;;;-4845;;;;;;;;
1414.0;1366.9;;;;-0.71049505;0.12150194;-0.14970781;;;;;;;;;;;;;;;
1414.0;1366.9;;;;-0.7041474;0.11912157;-0.14828111;;;;;;;;;;;;;;;
1414.0;1366.9;;;;-0.6982079;0.11650087;-0.14649583;;;;;;;;;;;;;;;
1414.0;1366.9;;;;-0.6926194;0.11343767;-0.14502336;;;;;;;;;;;;;;;
1414.0;1366.9;;;;-0.68793875;0.11112596;-0.14380647;;;;;;;;;;;;;;;
1468.0;1377.0;;;;-0.68349844;0.10864259;-0.14170457;;;;;;;;;;;;;;;
1468.0;1377.0;;;;-0.679432;0.10629274;-0.14143373;;;;;;;;;;;;;;;
1468.0;1377.0;;;;-0.6756249;0.1041794;-0.14062501;;;;;;;;;;;;;;;
1468.0;1377.0;;;;-0.6712914;0.10186006;-0.13911058;;;;;;;;;;;;;;;
1468.0;1377.0;;;;-0.6663895;0.09987642;-0.13743974;;;;;;;;;;;;;;;
1468.0;1377.9;;;;;;;;;;;;;;;;;-106.83005;48.543507;-121.31107;;1302.8
1468.0;1377.9;;;;;;;;;;;;;;0.9844661;0.3154393;0.021057772;;;;;1302.8
1468.0;1377.9;;;;;;;;;;;;;;;;;-101.03534;54.303875;-118.14478;;1302.8
1468.0;1377.9;;;;;;;;;;;;;;0.9996033;0.2379223;0.032898955;;;;;1302.8
1468.0;1377.9;;;;;;;;;;;;;;;;;-97.51808;62.051758;-116.206856;;1312.4
1468.0;1377.9;;;;;;;;;;;;;;1.0002136;0.18634602;0.061891537;;;;;1312.4
1468.0;1377.9;;;;;;;;;;;;;;;;;-96.27064;69.128235;-120.7274;;1312.4
1468.0;1377.9;;;;;;;;;;;;;;1.0077822;0.17651907;0.09698782;;;;;1312.4
1468.0;1377.9;;;;;;;;;;;;;;;;;-93.2989;68.77346;-120.33448;;1321.9
1468.0;1377.9;;;;;;;;;;;;;;0.98330635;0.105838194;0.09595019;;;;;1321.9
1468.0;1377.9;;;;;;;;;;;;;;;;;-90.48738;60.865353;-119.72411;;1321.9
1468.0;1377.9;;;;;;;;;;;;;;0.96566665;0.031861324;0.031311993;;;;;1321.9
1468.0;1378.7;254209;254165;11791;;;;;;;;;;;;;;;;;;
1468.0;1386.9;;;;-0.66061026;0.09788133;-0.13655473;;;;;;;;;;;;;;;
1468.0;1386.9;;;;-0.65435416;0.095958725;-0.13423158;;;;;;;;;;;;;;;
1468.0;1386.9;;;;-0.6480904;0.09434129;-0.13265993;;;;;;;;;;;;;;;
1468.0;1386.9;;;;-0.64161307;0.09140397;-0.13162233;;;;;;;;;;;;;;;
1468.0;1386.9;;;;-0.63563925;0.0889206;-0.1304474;;;;;;;;;;;;;;;
1470.0;1396.9;;;;-0.62937933;0.0864296;-0.13019563;;;;;;;;;;;;;;;
1470.0;1396.9;;;;-0.62341315;0.08355714;-0.12950517;;;;;;;;;;;;;;;
1470.0;1396.9;;;;-0.61923224;0.08082963;-0.13053133;;;;;;;;;;;;;;;
1470.0;1396.9;;;;-0.61642843;0.07781602;-0.12941362;;;;;;;;;;;;;;;
1470.0;1396.9;;;;-0.6141549;0.07528687;-0.12830736;;;;;;;;;;;;;;;
1470.0;1398.7;262143;262143;11795;;;;;;;;;;;;;;;;;;
1470.0;1405.0;;;;;;;;;;;;;-1666;;;;;;;;
1470.0;1405.0;;;;;;;;;;;;;-7014;;;;;;;;
1470.0;1405.0;;;;;;;;;;;;;-26686;;;;;;;;
1470.0;1405.0;;;;;;;;;;;;;-45088;;;;;;;;
1470.0;1405.0;;;;;;;;;;;;;-42163;;;;;;;;
1470.0;1407.0;;;;-0.61243445;0.072372444;-0.12817766;;;;;;;;;;;;;;;
1470.0;1407.0;;;;-0.6109963;0.069847114;-0.12746431;;;;;;;;;;;;;;;
1470.0;1407.0;;;;-0.6099892;0.067070015;-0.12802126;;;;;;;;;;;;;;;
1470.0;1407.0;;;;-0.60994345;0.06464768;-0.12854005;;;;;;;;;;;;;;;
1470.0;1407.0;;;;-0.61033636;0.062068947;-0.1294861;;;;;;;;;;;;;;;
1470.0;1417.1;;;;-0.61090857;0.05895234;-0.13062288;;;;;;;;;;;;;;;
1470.0;1417.1;;;;-0.612732;0.05622483;-0.1318741;;;;;;;;;;;;;;;
1470.0;1417.1;;;;-0.61567694;0.053489693;-0.132679;;;;;;;;;;;;;;;
1470.0;1417.1;;;;-0.6189156;0.05036164;-0.13380052;;;;;;;;;;;;;;;
1470.0;1417.1;;;;-0.6225434;0.04738999;-0.13540651;;;;;;;;;;;;;;;
1470.0;1419.0;262143;262143;11797;;;;;;;;;;;;;;;;;;
1472.0;1423.0;;;;;;;;;;;;;;;;;-87.79031;51.763206;-122.089294;;1331.6
1472.0;1423.0;;;;;;;;;;;;;;0.9749443;0.009887997;-0.06671346;;;;;1331.6
1472.0;1423.0;;;;;;;;;;;;;;;;;-84.49049;47.395245;-121.61244;;1331.6
1472.0;1423.0;;;;;;;;;;;;;;0.98178047;-0.015137181;-0.14697714;;;;;1331.6
1472.0;1423.0;;;;;;;;;;;;;;;;;-82.003235;49.058506;-119.72793;;1341.2
1472.0;1423.0;;;;;;;;;;;;;;0.96102786;-0.040833768;-0.19336528;;;;;1341.2
1472.0;1423.0;;;;;;;;;;;;;;;;;-78.409676;56.825466;-119.37697;;1341.2
1472.0;1423.0;;;;;;;;;;;;;;0.9151891;-0.07428205;-0.19879757;;;;;1341.2
1472.0;1423.0;;;;;;;;;;;;;;;;;-72.83242;65.782646;-119.636375;;1350.8
1472.0;1423.0;;;;;;;;;;;;;;0.8532365;-0.044068728;-0.15112767;;;;;1350.8
1472.0;1423.0;;;;;;;;;;;;;;;;;-72.31742;70.856346;-121.498;;1350.8
1472.0;1423.0;;;;;;;;;;;;;;0.84231085;0.011719108;-0.13751641;;;;;1350.8
1472.0;1427.1;;;;-0.62562186;0.044887546;-0.13729097;;;;;;;;;;;;;;;
1472.0;1427.1;;;;-0.6281739;0.042099003;-0.1378174;;;;;;;;;;;;;;;
1472.0;1427.1;;;;-0.63047034;0.039161686;-0.13954927;;;;;;;;;;;;;;;
1472.0;1427.1;;;;-0.63211447;0.036602024;-0.14130022;;;;;;;;;;;;;;;
1472.0;1427.1;;;;-0.6333962;0.033721928;-0.143631;;;;;;;;;;;;;;;
1472.0;1437.1;;;;-0.6353646;0.031013492;-0.14595796;;;;;;;;;;;;;;;
1472.0;1437.1;;;;-0.636982;0.02846146;-0.14766695;;;;;;;;;;;;;;;
1472.0;1437.1;;;;-0.6392098;0.025787357;-0.14929582;;;;;;;;;;;;;;;
1472.0;1437.1;;;;-0.64098746;0.023040773;-0.15042116;;;;;;;;;;;;;;;
1472.0;1437.1;;;;-0.6428605;0.020515444;-0.1512871;;;;;;;;;;;;;;;
1530.0;1438.0;;;;;;;;;;;;;;;;;-71.06235;76.44124;-118.3546;;1360.5
1530.0;1438.0;;;;;;;;;;;;;;0.8077029;0.0053102206;-0.10174871;;;;;1360.5
1530.0;1438.0;;;;;;;;;;;;;;;;;-69.32279;78.06253;-116.76;;1360.5
1530.0;1438.0;;;;;;;;;;;;;;0.79744864;0.043458357;-0.07684561;;;;;1360.5
1530.0;1438.0;;;;;;;;;;;;;;;;;-65.98865;76.96768;-116.271706;;1370.1
1530.0;1438.0;;;;;;;;;;;;;;0.7884152;0.090029605;-0.079348125;;;;;1370.1
1530.0;1438.0;;;;;;;;;;;;;;;;;-60.346535;77.002014;-115.2913;;1370.1
1530.0;1438.0;;;;;;;;;;;;;;0.7788324;0.13098544;-0.06848354;;;;;1370.1
1530.0;1438.0;;;;;;;;;;;;;;;;;-54.635765;80.91219;-113.26945;;1379.8
1530.0;1438.0;;;;;;;;;;;;;;0.76296276;0.11175878;-0.034669027;;;;;1379.8
1530.0;1438.0;;;;;;;;;;;;;;;;;-47.490616;84.097565;-112.59422;;1379.8
1530.0;1438.0;;;;;;;;;;;;;;0.73677784;0.12683493;0.037720878;;;;;1379.8
1530.0;1438.9;262143;262143;11793;;;;;;;;;;;;;;;;;;
1530.0;1445.2;;;;;;;;;;;;;-19392;;;;;;;;
1530.0;1445.2;;;;;;;;;;;;;1382;;;;;;;;
1530.0;1445.2;;;;;;;;;;;;;5372;;;;;;;;
1530.0;1445.2;;;;;;;;;;;;;-605;;;;;;;;
1530.0;1445.2;;;;;;;;;;;;;-3428;;;;;;;;
1530.0;1446.9;;;;-0.64407736;0.01848221;-0.15224458;;;;;;;;;;;;;;;
1530.0;1446.9;;;;-0.6444207;0.01671219;-0.15233232;;;;;;;;;;;;;;;
1530.0;1446.9;;;;-0.6444054;0.015052797;-0.1530266;;;;;;;;;;;;;;;
1530.0;1446.9;;;;-0.6443139;0.013679506;-0.15426637;;;;;;;;;;;;;;;
1530.0;1446.9;;;;-0.6439858;0.012725832;-0.15466692;;;;;;;;;;;;;;;
1534.0;1457.0;;;;-0.6439133;0.012229921;-0.15585329;;;;;;;;;;;;;;;
1534.0;1457.0;;;;-0.64490515;0.011184693;-0.15573885;;;;;;;;;;;;;;;
1534.0;1457.0;;;;-0.6462365;0.010833741;-0.15672304;;;;;;;;;;;;;;;
1534.0;1457.0;;;;-0.647667;0.009578706;-0.1571045;;;;;;;;;;;;;;;
1534.0;1457.0;;;;-0.6493874;0.008747102;-0.15728761;;;;;;;;;;;;;;;
1534.0;1459.0;262143;262143;11799;;;;;;;;;;;;;;;;;;
1534.0;1467.1;;;;-0.6514016;0.007720948;-0.15798952;;;;;;;;;;;;;;;
1534.0;1467.1;;;;-0.6536904;0.006767274;-0.15901186;;;;;;;;;;;;;;;
1534.0;1467.1;;;;-0.65669256;0.0057296758;-0.16101457;;;;;;;;;;;;;;;
1534.0;1467.1;;;;-0.6605645;0.0042076115;-0.16303636;;;;;;;;;;;;;;;
1534.0;1467.1;;;;-0.66546637;0.0028152468;-0.16489793;;;;;;;;;;;;;;;
1534.0;1477.2;;;;-0.6714974;0.0014877322;-0.16697694;;;;;;;;;;;;;;;
1534.0;1477.2;;;;-0.67822653;2.0599368E-4;-0.16815187;;;;;;;;;;;;;;;
1534.0;1477.2;;;;-0.68513495;-0.001110077;-0.17039491;;;;;;;;;;;;;;;
1534.0;1477.2;;;;-0.69222265;-0.0020751955;-0.1725197;;;;;;;;;;;;;;;
1534.0;1477.2;;;;-0.6993409;-0.0031356816;-0.1741295;;;;;;;;;;;;;;;
1534.0;1479.3;262143;262143;11806;;;;;;;;;;;;;;;;;;
1535.0;1483.2;;;;;;;;;;;;;;;;;-41.89047;78.22656;-113.021484;;1389.3
1535.0;1483.2;;;;;;;;;;;;;;0.74056214;0.20862453;0.06781213;;;;;1389.3
1535.0;1483.2;;;;;;;;;;;;;;;;;-39.857174;70.08957;-112.914665;;1389.3
1535.0;1483.2;;;;;;;;;;;;;;0.7519761;0.29639578;0.05780206;;;;;1389.3
1535.0;1483.2;;;;;;;;;;;;;;;;;-42.531357;65.01587;-111.20945;;1398.9
1535.0;1483.2;;;;;;;;;;;;;;0.76058227;0.3408307;0.022461623;;;;;1398.9
1535.0;1483.2;;;;;;;;;;;;;;;;;-47.173985;63.77224;-108.63064;;1398.9
1535.0;1483.2;;;;;;;;;;;;;;0.74385816;0.37885678;0.010986663;;;;;1398.9
1535.0;1483.2;;;;;;;;;;;;;;;;;-55.810722;63.047424;-106.73849;;1408.6
1535.0;1483.2;;;;;;;;;;;;;;0.73824275;0.4215827;-0.0016479995;;;;;1408.6
1535.0;1483.2;;;;;;;;;;;;;;;;;-66.37776;63.791313;-102.931305;;1408.6
1535.0;1483.2;;;;;;;;;;;;;;0.7269509;0.45020905;0.0080568865;;;;;1408.6
1535.0;1485.4;;;;;;;;;;;;;-2005;;;;;;;;
1535.0;1485.4;;;;;;;;;;;;;-1440;;;;;;;;
1535.0;1485.4;;;;;;;;;;;;;-497;;;;;;;;
1535.0;1485.4;;;;;;;;;;;;;1785;;;;;;;;
1535.0;1485.4;;;;;;;;;;;;;2934;;;;;;;;
1535.0;1487.2;;;;-0.7059365;-0.0038566594;-0.17652895;;;;;;;;;;;;;;;
1535.0;1487.2;;;;-0.7128411;-0.0043334966;-0.17898561;;;;;;;;;;;;;;;
1535.0;1487.2;;;;-0.7197953;-0.004806519;-0.18169786;;;;;;;;;;;;;;;
1535.0;1487.2;;;;-0.7267228;-0.0055465703;-0.18413164;;;;;;;;;;;;;;;
1535.0;1487.2;;;;-0.73465353;-0.005725861;-0.18715669;;;;;;;;;;;;;;;
1590.0;1490.7;;;;;;;;;;;;;;;;;-75.88809;63.10083;-98.071236;;1418.1
1590.0;1490.7;;;;;;;;;;;;;;0.718894;0.43153173;0.016052736;;;;;1418.1
1590.0;1490.7;;;;;;;;;;;;;;;;;-85.27253;61.97165;-93.38664;;1418.1
1590.0;1490.7;;;;;;;;;;;;;;0.7077242;0.4275033;0.024597919;;;;;1418.1
1590.0;1490.7;;;;;;;;;;;;;;;;;-94.61883;61.89535;-88.86227;;1427.8
1590.0;1490.7;;;;;;;;;;;;;;0.6888638;0.43324077;0.016968291;;;;;1427.8
1590.0;1490.7;;;;;;;;;;;;;;;;;-104.72808;63.737907;-83.83053;;1427.8
1590.0;1490.7;;;;;;;;;;;;;;0.6763512;0.42420727;0.01965392;;;;;1427.8
1590.0;1490.7;;;;;;;;;;;;;;;;;-114.37574;65.36684;-78.45164;;1437.4
1590.0;1490.7;;;;;;;;;;;;;;0.6625568;0.3965575;0.019470809;;;;;1437.4
1590.0;1490.7;;;;;;;;;;;;;;;;;-121.795555;66.904205;-74.293495;;1437.4
1590.0;1490.7;;;;;;;;;;;;;;0.6308786;0.38044375;0.018127995;;;;;1437.4
1590.0;1497.1;;;;-0.743393;-0.005565644;-0.19001773;;;;;;;;;;;;;;;
1590.0;1497.1;;;;-0.7532617;-0.0053520207;-0.19271854;;;;;;;;;;;;;;;
1590.0;1497.1;;;;-0.763733;-0.004554749;-0.19438937;;;;;;;;;;;;;;;
1590.0;1497.1;;;;-0.7747804;-0.0039558415;-0.1964722;;;;;;;;;;;;;;;
1590.0;1497.1;;;;-0.78569424;-0.0031623845;-0.19823459;;;;;;;;;;;;;;;
1590.0;1499.2;262143;262143;11796;;;;;;;;;;;;;;;;;;
1590.0;1507.1;;;;-0.79654324;-0.0021133425;-0.19986728;;;;;;;;;;;;;;;
1590.0;1507.1;;;;-0.80690396;-9.002687E-4;-0.20148852;;;;;;;;;;;;;;;
1590.0;1507.1;;;;-0.8165132;3.28064E-4;-0.20311359;;;;;;;;;;;;;;;
1590.0;1507.1;;;;-0.8255273;8.96454E-4;-0.20495227;;;;;;;;;;;;;;;
1590.0;1507.1;;;;-0.8336183;0.0010375978;-0.20720294;;;;;;;;;;;;;;;
1592.0;1516.9;;;;-0.84114087;0.0015945437;-0.21031955;;;;;;;;;;;;;;;
1592.0;1516.9;;;;-0.8482133;0.0021858218;-0.21323016;;;;;;;;;;;;;;;
1592.0;1516.9;;;;-0.85523236;0.0023689272;-0.21644595;;;;;;;;;;;;;;;
1592.0;1516.9;;;;-0.86244977;0.002929688;-0.21941379;;;;;;;;;;;;;;;
1592.0;1516.9;;;;-0.8701211;0.0035743718;-0.22227862;;;;;;;;;;;;;;;
1592.0;1519.0;262143;262143;11809;;;;;;;;;;;;;;;;;;
1592.0;1525.3;;;;;;;;;;;;;2957;;;;;;;;
1592.0;1525.3;;;;;;;;;;;;;2720;;;;;;;;
1592.0;1525.3;;;;;;;;;;;;;2401;;;;;;;;
1592.0;1525.3;;;;;;;;;;;;;1996;;;;;;;;
1592.0;1525.3;;;;;;;;;;;;;1288;;;;;;;;
1592.0;1527.0;;;;-0.8777505;0.003986359;-0.22361758;;;;;;;;;;;;;;;
1592.0;1527.0;;;;-0.88513577;0.004829407;-0.22336963;;;;;;;;;;;;;;;
1592.0;1527.0;;;;-0.89185345;0.005512238;-0.22323993;;;;;;;;;;;;;;;
1592.0;1527.0;;;;-0.89784634;0.005886079;-0.2220917;;;;;;;;;;;;;;;
1592.0;1527.0;;;;-0.9034349;0.006599427;-0.22117618;;;;;;;;;;;;;;;
1592.0;1537.1;;;;-0.9081918;0.007308961;-0.22005847;;;;;;;;;;;;;;;
1592.0;1537.1;;;;-0.91162884;0.007961274;-0.21966937;;;;;;;;;;;;;;;
1592.0;1537.1;;;;-0.9149934;0.008491517;-0.21881488;;;;;;;;;;;;;;;
1592.0;1537.1;;;;-0.91874707;0.008556367;-0.21856692;;;;;;;;;;;;;;;
1592.0;1537.1;;;;-0.9220277;0.008567811;-0.21945956;;;;;;;;;;;;;;;
1592.0;1539.3;262143;262143;11821;;;;;;;;;;;;;;;;;;
1596.0;1543.3;;;;;;;;;;;;;;;;;-124.86648;67.70913;-69.1969;;1447.0
1596.0;1543.3;;;;;;;;;;;;;;0.5950499;0.35010836;0.009521775;;;;;1447.0
1596.0;1543.3;;;;;;;;;;;;;;;;;-124.988556;68.06009;-63.524277;;1447.0
1596.0;1543.3;;;;;;;;;;;;;;0.57399213;0.31104466;0.003173925;;;;;1447.0
1596.0;1543.3;;;;;;;;;;;;;;;;;-124.988556;68.29279;-58.656578;;1456.7
1596.0;1543.3;;;;;;;;;;;;;;0.57350385;0.25702688;0.0018311106;;;;;1456.7
1596.0;1543.3;;;;;;;;;;;;;;;;;-124.988556;69.849236;-54.700615;;1456.7
1596.0;1543.3;;;;;;;;;;;;;;0.5652028;0.22540972;0.016846217;;;;;1456.7
1596.0;1543.3;;;;;;;;;;;;;;;;;-124.988556;69.50209;-50.702686;;1466.4
1596.0;1543.3;;;;;;;;;;;;;;0.568865;0.17218544;0.025452437;;;;;1466.4
1596.0;1543.3;;;;;;;;;;;;;;;;;-124.839775;72.09235;-47.482986;;1466.4
1596.0;1543.3;;;;;;;;;;;;;;0.5381024;0.12164678;0.022705771;;;;;1466.4
1596.0;1547.1;;;;-0.9257089;0.0077285776;-0.22070315;;;;;;;;;;;;;;;
1596.0;1547.1;;;;-0.9292375;0.007308961;-0.22162631;;;;;;;;;;;;;;;
1596.0;1547.1;;;;-0.93355954;0.0060920725;-0.22348407;;;;;;;;;;;;;;;
1596.0;1547.1;;;;-0.9378358;0.00517273;-0.22580722;;;;;;;;;;;;;;;
1596.0;1547.1;;;;-0.94311917;0.0039558415;-0.22787479;;;;;;;;;;;;;;;
1602.0;1551.1;;;;;;;;;;;;;;;;;-123.35963;67.29332;-43.81695;;1476.0
1602.0;1551.1;;;;;;;;;;;;;;0.48670918;0.08563494;0.05389569;;;;;1476.0
1602.0;1551.1;;;;;;;;;;;;;;;;;-120.82278;61.319313;-40.555283;;1476.0
1602.0;1551.1;;;;;;;;;;;;;;0.45124668;0.052308727;0.060365614;;;;;1476.0
1602.0;1551.1;;;;;;;;;;;;;;;;;-114.98993;58.30943;-37.396618;;1485.7
1602.0;1551.1;;;;;;;;;;;;;;0.42170477;0.04388562;0.07940916;;;;;1485.7
1602.0;1551.1;;;;;;;;;;;;;;;;;-108.596306;56.51265;-34.53932;;1485.7
1602.0;1551.1;;;;;;;;;;;;;;0.39692372;0.023499252;0.10748619;;;;;1485.7
1602.0;1551.1;;;;;;;;;;;;;;;;;-100.10834;52.777946;-31.292915;;1495.3
1602.0;1551.1;;;;;;;;;;;;;;0.36072877;0.016113773;0.13922544;;;;;1495.3
1602.0;1551.1;;;;;;;;;;;;;;;;;-91.39149;46.929836;-29.526659;;1495.3
1602.0;1551.1;;;;;;;;;;;;;;0.34943694;0.047975097;0.13336588;;;;;1495.3
1602.0;1557.0;;;;-0.94880307;0.0030136113;-0.23077396;;;;;;;;;;;;;;;
1602.0;1557.0;;;;-0.9547616;0.0021362307;-0.23300937;;;;;;;;;;;;;;;
1602.0;1557.0;;;;-0.9603044;0.0018653872;-0.23598102;;;;;;;;;;;;;;;
1602.0;1557.0;;;;-0.9666139;0.0013198854;-0.23888782;;;;;;;;;;;;;;;
1602.0;1557.0;;;;-0.97332394;0.0011825563;-0.24215701;;;;;;;;;;;;;;;
1602.0;1559.2;262143;262143;11829;;;;;;;;;;;;;;;;;;
1602.0;1565.4;;;;;;;;;;;;;298;;;;;;;;
1602.0;1565.4;;;;;;;;;;;;;-784;;;;;;;;
1602.0;1565.4;;;;;;;;;;;;;-1530;;;;;;;;
1602.0;1565.4;;;;;;;;;;;;;-1537;;;;;;;;
1602.0;1565.4;;;;;;;;;;;;;-894;;;;;;;;
1651.0;1566.9;;;;-0.98033917;8.506776E-4;-0.24582675;;;;;;;;;;;;;;;
1651.0;1566.9;;;;-0.9875299;0.0011749269;-0.24883655;;;;;;;;;;;;;;;
1651.0;1566.9;;;;-0.99512875;0.0014457704;-0.25190356;;;;;;;;;;;;;;;
1651.0;1566.9;;;;-1.0029947;0.0018310549;-0.2551041;;;;;;;;;;;;;;;
1651.0;1566.9;;;;-1.0108339;0.0023612978;-0.259182;;;;;;;;;;;;;;;
1651.0;1576.9;;;;-1.0178148;0.0029563908;-0.2634125;;;;;;;;;;;;;;;
1651.0;1576.9;;;;-1.0240785;0.0028686526;-0.2678223;;;;;;;;;;;;;;;
1651.0;1576.9;;;;-1.0296212;0.0031242375;-0.2715073;;;;;;;;;;;;;;;
1651.0;1576.9;;;;-1.0356218;0.003761292;-0.2752724;;;;;;;;;;;;;;;
1651.0;1576.9;;;;-1.0408899;0.0042114262;-0.2794228;;;;;;;;;;;;;;;
1651.0;1579.2;262143;262143;11844;;;;;;;;;;;;;;;;;;
1651.0;1587.0;;;;-1.0460588;0.0046119695;-0.28384402;;;;;;;;;;;;;;;
1651.0;1587.0;;;;-1.0518724;0.0056419377;-0.2877579;;;;;;;;;;;;;;;
1651.0;1587.0;;;;-1.0571939;0.006324769;-0.29199222;;;;;;;;;;;;;;;
1651.0;1587.0;;;;-1.0638963;0.0071029672;-0.29586032;;;;;;;;;;;;;;;
1651.0;1587.0;;;;-1.0703088;0.0077171335;-0.29987338;;;;;;;;;;;;;;;
1651.0;1597.1;;;;-1.0771028;0.008739472;-0.30346683;;;;;;;;;;;;;;;
1651.0;1597.1;;;;-1.0837556;0.0101242075;-0.3075371;;;;;;;;;;;;;;;
1651.0;1597.1;;;;-1.0898896;0.011768343;-0.31128696;;;;;;;;;;;;;;;
1651.0;1597.1;;;;-1.0959321;0.014152529;-0.31494907;;;;;;;;;;;;;;;
1651.0;1597.1;;;;-1.1018068;0.016193392;-0.3184357;;;;;;;;;;;;;;;
1653.0;1599.5;262143;262143;11863;;;;;;;;;;;;;;;;;;
1653.0;1603.4;;;;;;;;;;;;;;;;;-82.17109;40.936764;-26.669363;;1505.0
1653.0;1603.4;;;;;;;;;;;;;;0.33448288;0.09094516;0.13110752;;;;;1505.0
1653.0;1603.4;;;;;;;;;;;;;;;;;-73.05368;33.90225;-22.900326;;1505.0
1653.0;1603.4;;;;;;;;;;;;;;0.31299785;0.15717033;0.13361004;;;;;1505.0
1653.0;1603.4;;;;;;;;;;;;;;;;;-68.81542;26.806696;-20.084993;;1514.6
1653.0;1603.4;;;;;;;;;;;;;;0.3063448;0.2318186;0.12897122;;;;;1514.6
1653.0;1603.4;;;;;;;;;;;;;;;;;-65.93143;21.00055;-16.376995;;1514.6
1653.0;1603.4;;;;;;;;;;;;;;0.29328287;0.2961516;0.13776055;;;;;1514.6
1653.0;1603.4;;;;;;;;;;;;;;;;;-64.497055;13.443404;-12.474441;;1524.1
1653.0;1603.4;;;;;;;;;;;;;;0.2804651;0.36530656;0.16650899;;;;;1524.1
1653.0;1603.4;;;;;;;;;;;;;;;;;-64.51613;2.8496659;-7.000183;;1524.1
1653.0;1603.4;;;;;;;;;;;;;;0.28833887;0.40028077;0.15839106;;;;;1524.1
1653.0;1605.5;;;;;;;;;;;;;79;;;;;;;;
1653.0;1605.5;;;;;;;;;;;;;1167;;;;;;;;
1653.0;1605.5;;;;;;;;;;;;;2248;;;;;;;;
1653.0;1605.5;;;;;;;;;;;;;3076;;;;;;;;
1653.0;1605.5;;;;;;;;;;;;;3373;;;;;;;;
1653.0;1607.1;;;;-1.1081506;0.019023897;-0.32177737;;;;;;;;;;;;;;;
1653.0;1607.1;;;;-1.1145707;0.021953585;-0.32450107;;;;;;;;;;;;;;;
1653.0;1607.1;;;;-1.1219293;0.024398807;-0.3272095;;;;;;;;;;;;;;;
1653.0;1607.1;;;;-1.1301233;0.02707291;-0.32899097;;;;;;;;;;;;;;;
1653.0;1607.1;;;;-1.1382295;0.029502872;-0.331337;;;;;;;;;;;;;;;
1713.0;1610.8;;;;;;;;;;;;;;;;;-63.82946;-5.7451096;-2.0180366;;1533.8
1713.0;1610.8;;;;;;;;;;;;;;0.2943205;0.4334849;0.16162603;;;;;1533.8
1713.0;1610.8;;;;;;;;;;;;;;;;;-63.75698;-11.852626;3.0823696;;1533.8
1713.0;1610.8;;;;;;;;;;;;;;0.30909148;0.4455092;0.18097477;;;;;1533.8
1713.0;1610.8;;;;;;;;;;;;;;;;;-63.917206;-15.65218;8.167517;;1543.5
1713.0;1610.8;;;;;;;;;;;;;;0.31311992;0.46607867;0.21692556;;;;;1543.5
1713.0;1610.8;;;;;;;;;;;;;;;;;-62.932983;-20.279549;12.306589;;1543.5
1713.0;1610.8;;;;;;;;;;;;;;0.31482893;0.5080111;0.25360882;;;;;1543.5
1713.0;1610.8;;;;;;;;;;;;;;;;;-61.212498;-26.825771;16.716515;;1553.2
1713.0;1610.8;;;;;;;;;;;;;;0.31678212;0.54249704;0.26435134;;;;;1553.2
1713.0;1610.8;;;;;;;;;;;;;;;;;-58.53832;-33.92895;20.538958;;1553.2
1713.0;1610.8;;;;;;;;;;;;;;0.33838925;0.5818049;0.2491531;;;;;1553.2
1713.0;1617.1;;;;-1.1459237;0.032394413;-0.33368304;;;;;;;;;;;;;;;
1713.0;1617.1;;;;-1.1532785;0.034603123;-0.33570102;;;;;;;;;;;;;;;
1713.0;1617.1;;;;-1.160122;0.03654862;-0.3368416;;;;;;;;;;;;;;;
1713.0;1617.1;;;;-1.1664735;0.03891373;-0.33710483;;;;;;;;;;;;;;;
1713.0;1617.1;;;;-1.1716043;0.041168217;-0.3368416;;;;;;;;;;;;;;;
1713.0;1619.4;262143;262143;11886;;;;;;;;;;;;;;;;;;
1713.0;1626.9;;;;-1.1760713;0.042739872;-0.3374901;;;;;;;;;;;;;;;
1713.0;1626.9;;;;-1.1799661;0.044933323;-0.33745578;;;;;;;;;;;;;;;
1713.0;1626.9;;;;-1.1834031;0.046665195;-0.33672717;;;;;;;;;;;;;;;
1713.0;1626.9;;;;-1.1873018;0.04782868;-0.3360825;;;;;;;;;;;;;;;
1713.0;1626.9;;;;-1.1906091;0.049407966;-0.3355408;;;;;;;;;;;;;;;
1715.0;1636.9;;;;-1.1942025;0.05070115;-0.3346825;;;;;;;;;;;;;;;
1715.0;1636.9;;;;-1.1974374;0.05179978;-0.3334084;;;;;;;;;;;;;;;
1715.0;1636.9;;;;-1.200348;0.053222664;-0.33284;;;;;;;;;;;;;;;
1715.0;1636.9;;;;-1.2029;0.054313667;-0.33174136;;;;;;;;;;;;;;;
1715.0;1636.9;;;;-1.2053071;0.055530556;-0.33126453;;;;;;;;;;;;;;;
1715.0;1639.4;262143;262143;11904;;;;;;;;;;;;;;;;;;
1715.0;1645.6;;;;;;;;;;;;;3309;;;;;;;;
1715.0;1645.6;;;;;;;;;;;;;3470;;;;;;;;
1715.0;1645.6;;;;;;;;;;;;;3993;;;;;;;;
1715.0;1645.6;;;;;;;;;;;;;4557;;;;;;;;
1715.0;1645.6;;;;;;;;;;;;;5040;;;;;;;;
1715.0;1647.0;;;;-1.2078668;0.056140907;-0.33142856;;;;;;;;;;;;;;;
1715.0;1647.0;;;;-1.2098161;0.057121284;-0.33088306;;;;;;;;;;;;;;;
1715.0;1647.0;;;;-1.2122041;0.057582863;-0.33144;;;;;;;;;;;;;;;
1715.0;1647.0;;;;-1.2144967;0.058437355;-0.33187488;;;;;;;;;;;;;;;
1715.0;1647.0;;;;-1.2167436;0.05849839;-0.33230212;;;;;;;;;;;;;;;
1715.0;1657.1;;;;-1.2194101;0.058193214;-0.33357242;;;;;;;;;;;;;;;
1715.0;1657.1;;;;-1.2214967;0.057731636;-0.3341637;;;;;;;;;;;;;;;
1715.0;1657.1;;;;-1.2232286;0.056701668;-0.3352547;;;;;;;;;;;;;;;
1715.0;1657.1;;;;-1.2248307;0.054740913;-0.33607486;;;;;;;;;;;;;;;
1715.0;1657.1;;;;-1.2265702;0.05272294;-0.3374901;;;;;;;;;;;;;;;
1715.0;1659.6;262143;262143;11912;;;;;;;;;;;;;;;;;;
1717.0;1663.5;;;;;;;;;;;;;;;;;-53.533283;-39.86099;24.025698;;1562.9
1717.0;1663.5;;;;;;;;;;;;;;0.37171546;0.6212348;0.22229682;;;;;1562.9
1717.0;1663.5;;;;;;;;;;;;;;;;;-47.06336;-43.439285;27.081364;;1562.9
1717.0;1663.5;;;;;;;;;;;;;;0.3876461;0.6560869;0.23432112;;;;;1562.9
1717.0;1663.5;;;;;;;;;;;;;;;;;-40.772728;-49.344616;30.663471;;1572.4
1717.0;1663.5;;;;;;;;;;;;;;0.40498063;0.6816614;0.22791223;;;;;1572.4
1717.0;1663.5;;;;;;;;;;;;;;;;;-31.68966;-61.754204;34.531693;;1572.4
1717.0;1663.5;;;;;;;;;;;;;;0.40668964;0.66011536;0.10937834;;;;;1572.4
1717.0;1663.5;;;;;;;;;;;;;;;;;-20.004883;-78.90942;37.69036;;1582.0
1717.0;1663.5;;;;;;;;;;;;;;0.41108432;0.64772487;-0.02435377;;;;;1582.0
1717.0;1663.5;;;;;;;;;;;;;;;;;-14.469588;-95.24064;41.291542;;1582.0
1717.0;1663.5;;;;;;;;;;;;;;0.4528947;0.60499895;-0.11004975;;;;;1582.0
1717.0;1667.1;;;;-1.2284013;0.05023194;-0.33894733;;;;;;;;;;;;;;;
1717.0;1667.1;;;;-1.230755;0.047012337;-0.34082416;;;;;;;;;;;;;;;
1717.0;1667.1;;;;-1.2332536;0.043434147;-0.34191516;;;;;;;;;;;;;;;
1717.0;1667.1;;;;-1.2361757;0.040519718;-0.3446541;;;;;;;;;;;;;;;
1717.0;1667.1;;;;-1.2392198;0.036895756;-0.34650806;;;;;;;;;;;;;;;
1718.0;1671.4;;;;;;;;;;;;;;;;;-17.742699;-102.52312;44.34339;;1591.6
1718.0;1671.4;;;;;;;;;;;;;;0.4710837;0.49427778;-0.06860561;;;;;1591.6
1718.0;1671.4;;;;;;;;;;;;;;;;;-25.387585;-110.385445;47.92169;;1591.6
1718.0;1671.4;;;;;;;;;;;;;;0.46259958;0.36927396;-0.019348735;;;;;1591.6
1718.0;1671.4;;;;;;;;;;;;;;;;;-32.99051;-118.629265;53.430283;;1601.3
1718.0;1671.4;;;;;;;;;;;;;;0.5561083;0.19739372;-4.8829615E-4;;;;;1601.3
1718.0;1671.4;;;;;;;;;;;;;;;;;-41.89047;-107.67312;58.523056;;1601.3
1718.0;1671.4;;;;;;;;;;;;;;0.62318796;0.040406507;0.18555254;;;;;1601.3
1718.0;1671.4;;;;;;;;;;;;;;;;;-49.42473;-89.05301;61.216312;;1611.0
1718.0;1671.4;;;;;;;;;;;;;;0.6816614;-0.03442488;0.56178474;;;;;1611.0
1718.0;1671.4;;;;;;;;;;;;;;;;;-53.498947;-73.83953;64.14991;;1611.0
1718.0;1671.4;;;;;;;;;;;;;;0.87594223;-0.031983398;1.0760216;;;;;1611.0
1718.0;1677.1;;;;-1.2425653;0.03333283;-0.34889606;;;;;;;;;;;;;;;
1718.0;1677.1;;;;-1.2456857;0.029960636;-0.35201648;;;;;;;;;;;;;;;
1718.0;1677.1;;;;-1.2485658;0.026416782;-0.35475162;;;;;;;;;;;;;;;
1718.0;1677.1;;;;-1.252247;0.022689821;-0.35828784;;;;;;;;;;;;;;;
1718.0;1677.1;;;;-1.2563974;0.018672945;-0.3618088;;;;;;;;;;;;;;;
1718.0;1679.5;262143;262143;11919;;;;;;;;;;;;;;;;;;
1718.0;1685.7;;;;;;;;;;;;;5430;;;;;;;;
1718.0;1685.7;;;;;;;;;;;;;5610;;;;;;;;
1718.0;1685.7;;;;;;;;;;;;;5583;;;;;;;;
1718.0;1685.7;;;;;;;;;;;;;5561;;;;;;;;
1718.0;1685.7;;;;;;;;;;;;;5744;;;;;;;;
1769.0;1687.0;;;;-1.2616197;0.015033724;-0.36602786;;;;;;;;;;;;;;;
1769.0;1687.0;;;;-1.2670861;0.011260987;-0.37006763;;;;;;;;;;;;;;;
1769.0;1687.0;;;;-1.2737314;0.0072898874;-0.37451556;;;;;;;;;;;;;;;
1769.0;1687.0;;;;-1.2813684;0.003520966;-0.38026053;;;;;;;;;;;;;;;
1769.0;1687.0;;;;-1.2895204;1.7547609E-4;-0.3851319;;;;;;;;;;;;;;;
1769.0;1696.7;;;;-1.298462;-0.002700806;-0.3903466;;;;;;;;;;;;;;;
1769.0;1696.7;;;;-1.3076364;-0.0050239568;-0.39550024;;;;;;;;;;;;;;;
1769.0;1696.7;;;;-1.3160974;-0.0069122324;-0.4002152;;;;;;;;;;;;;;;
1769.0;1696.7;;;;-1.3243715;-0.00838852;-0.40492636;;;;;;;;;;;;;;;
1769.0;1696.7;;;;-1.3316499;-0.00864792;-0.4089089;;;;;;;;;;;;;;;
1769.0;1699.3;262143;262143;11926;;;;;;;;;;;;;;;;;;
1769.0;1706.8;;;;-1.3386766;-0.007961274;-0.41323858;;;;;;;;;;;;;;;
1769.0;1706.8;;;;-1.3448793;-0.0065460214;-0.41614538;;;;;;;;;;;;;;;
1769.0;1706.8;;;;-1.3499223;-0.0044212346;-0.41783148;;;;;;;;;;;;;;;
1769.0;1706.8;;;;-1.3541223;-0.0014114381;-0.4210053;;;;;;;;;;;;;;;
1769.0;1706.8;;;;-1.3572503;0.0026664736;-0.42342764;;;;;;;;;;;;;;;
1769.0;1716.9;;;;-1.360119;0.0074806223;-0.42641836;;;;;;;;;;;;;;;
1769.0;1716.9;;;;-1.3627359;0.012985231;-0.42947012;;;;;;;;;;;;;;;
1769.0;1716.9;;;;-1.3655778;0.018772127;-0.43209463;;;;;;;;;;;;;;;
1769.0;1716.9;;;;-1.367653;0.02492905;-0.43399817;;;;;;;;;;;;;;;
1769.0;1716.9;;;;-1.3691255;0.031673435;-0.4361573;;;;;;;;;;;;;;;
1774.0;1719.6;262143;262143;11922;;;;;;;;;;;;;;;;;;
1774.0;1723.5;;;;;;;;;;;;;;;;;-40.677357;-64.90524;62.276833;;1620.6
1774.0;1723.5;;;;;;;;;;;;;;1.147435;0.16779077;1.3987243;;;;;1620.6
1774.0;1723.5;;;;;;;;;;;;;;;;;-1.373333;-72.214424;59.041874;;1620.6
1774.0;1723.5;;;;;;;;;;;;;;1.3217566;0.38178656;1.3019806;;;;;1620.6
1774.0;1723.5;;;;;;;;;;;;;;;;;60.228275;-108.76415;55.413982;;1630.1
1774.0;1723.5;;;;;;;;;;;;;;1.3434248;0.47053438;0.69338053;;;;;1630.1
1774.0;1723.5;;;;;;;;;;;;;;;;;112.70867;-124.90845;60.361794;;1630.1
1774.0;1723.5;;;;;;;;;;;;;;1.4564654;0.4730369;-0.2992645;;;;;1630.1
1774.0;1723.5;;;;;;;;;;;;;;;;;124.988556;-124.988556;75.06409;;1639.6
1774.0;1723.5;;;;;;;;;;;;;;1.5593127;0.2451857;-0.8928495;;;;;1639.6
1774.0;1723.5;;;;;;;;;;;;;;;;;124.988556;-122.27241;80.79394;;1639.6
1774.0;1723.5;;;;;;;;;;;;;;1.5224464;0.16187018;-0.6286813;;;;;1639.6
1778.0;1724.3;;;;;;;;;;;;;;;;;124.988556;-100.82171;72.68746;;1649.2
1778.0;1724.3;;;;;;;;;;;;;;1.3614308;0.4232917;-0.113956116;;;;;1649.2
1778.0;1724.3;;;;;;;;;;;;;;;;;124.988556;-112.76208;59.289837;;1649.2
1778.0;1724.3;;;;;;;;;;;;;;1.1222266;0.8033082;-0.054628134;;;;;1649.2
1778.0;1724.3;;;;;;;;;;;;;;;;;124.50789;-124.95422;54.002502;;1658.9
1778.0;1724.3;;;;;;;;;;;;;;1.1908323;0.8917509;-0.35798213;;;;;1658.9
1778.0;1724.3;;;;;;;;;;;;;;;;;107.997375;-118.82382;64.554276;;1658.9
1778.0;1724.3;;;;;;;;;;;;;;1.1506089;0.64333016;-0.19409773;;;;;1658.9
1778.0;1724.3;;;;;;;;;;;;;;;;;73.850975;-108.86334;59.3585;;1668.4
1778.0;1724.3;;;;;;;;;;;;;;1.0119327;0.74513996;0.08478042;;;;;1668.4
1778.0;1724.3;;;;;;;;;;;;;;;;;41.70736;-122.97052;50.805687;;1668.4
1778.0;1724.3;;;;;;;;;;;;;;1.0591754;0.85726494;-0.066530354;;;;;1668.4
1778.0;1725.6;;;;;;;;;;;;;6115;;;;;;;;
1778.0;1725.6;;;;;;;;;;;;;6551;;;;;;;;
1778.0;1725.6;;;;;;;;;;;;;7000;;;;;;;;
1778.0;1725.6;;;;;;;;;;;;;7567;;;;;;;;
1778.0;1725.6;;;;;;;;;;;;;8125;;;;;;;;
1778.0;1726.9;;;;-1.3700258;0.03815842;-0.43753058;;;;;;;;;;;;;;;
1778.0;1726.9;;;;-1.3707734;0.04535294;-0.43861395;;;;;;;;;;;;;;;
1778.0;1726.9;;;;-1.371235;0.05245591;-0.43978125;;;;;;;;;;;;;;;
1778.0;1726.9;;;;-1.3710748;0.059638985;-0.43964773;;;;;;;;;;;;;;;
1778.0;1726.9;;;;-1.3701898;0.06705857;-0.4386521;;;;;;;;;;;;;;;
1778.0;1736.9;;;;;;;;;;0.057222206;19.035921;-2.8687398;;;;;;;;;
1778.0;1736.9;;;;;;;1.170629;-0.11066011;-0.32923368;;;;;;;;;;;;
1778.0;1736.9;;;;;;;;;;5.726035;30.793177;8.911405;;;;;;;;;
1778.0;1736.9;;;;;;;1.3279824;-0.12518692;-0.3679922;;;;;;;;;;;;
1828.0;1737.0;;;;-1.3694726;0.07412339;-0.43743902;;;;;;;;;;;;;;;
1828.0;1737.0;;;;-1.3679391;0.08114243;-0.4364167;;;;;;;;;;;;;;;
1828.0;1737.0;;;;-1.3655587;0.08802796;-0.43598562;;;;;;;;;;;;;;;
1828.0;1737.0;;;;-1.3618127;0.09392549;-0.43653876;;;;;;;;;;;;;;;
1828.0;1737.0;;;;-1.3567506;0.099159256;-0.43797308;;;;;;;;;;;;;;;
1828.0;1739.6;262143;262143;11934;;;;;;;;;;;;;;;;;;
1828.0;1746.4;;;;;;;;;;1.4687033;6.8170724;3.7270732;;;;;;;;;
1828.0;1746.4;;;;;;;1.3352458;-0.12787256;-0.3665273;;;;;;;;;;;;
1828.0;1746.4;;;;;;;;;;5.6382947;13.653218;12.7719965;;;;;;;;;
1828.0;1746.4;;;;;;;1.3384808;-0.13147373;-0.3671987;;;;;;;;;;;;
1828.0;1746.9;;;;-1.3492242;0.10307695;-0.43906027;;;;;;;;;;;;;;;
1828.0;1746.9;;;;-1.339737;0.10693361;-0.43614966;;;;;;;;;;;;;;;
1828.0;1746.9;;;;-1.3270532;0.10982515;-0.4300652;;;;;;;;;;;;;;;
1828.0;1746.9;;;;-1.3109323;0.11203386;-0.4226418;;;;;;;;;;;;;;;
1828.0;1746.9;;;;-1.2905504;0.113647476;-0.41556937;;;;;;;;;;;;;;;
1828.0;1755.7;;;;;;;;;;5.93585;11.600848;17.651142;;;;;;;;;
1828.0;1755.7;;;;;;;1.3329264;-0.1356853;-0.3685415;;;;;;;;;;;;
1828.0;1755.7;;;;;;;;;;1.1635182;-26.554918;1.5221107;;;;;;;;;
1828.0;1755.7;;;;;;;1.32078;-0.14069033;-0.36896878;;;;;;;;;;;;
1831.0;1756.7;;;;-1.2671624;0.1146393;-0.4076386;;;;;;;;;;;;;;;
1831.0;1756.7;;;;-1.2409478;0.11462404;-0.39999396;;;;;;;;;;;;;;;
1831.0;1756.7;;;;-1.2131082;0.11329271;-0.3936196;;;;;;;;;;;;;;;
1831.0;1756.7;;;;-1.18565;0.11092378;-0.38700873;;;;;;;;;;;;;;;
1831.0;1756.7;;;;-1.1598817;0.10835649;-0.38071448;;;;;;;;;;;;;;;
1831.0;1759.5;262143;262143;11932;;;;;;;;;;;;;;;;;;
1831.0;1765.3;;;;;;;;;;1.5678884;-29.961546;4.9439983;;;;;;;;;
1831.0;1765.3;;;;;;;1.3088778;-0.14569536;-0.36970124;;;;;;;;;;;;
1831.0;1765.3;;;;;;;;;;2.1782587;-33.112583;8.220923;;;;;;;;;
1831.0;1765.3;;;;;;;1.2962432;-0.15173803;-0.36994538;;;;;;;;;;;;
1831.0;1765.6;;;;;;;;;;;;;8210;;;;;;;;
1831.0;1765.6;;;;;;;;;;;;;7388;;;;;;;;
1831.0;1765.6;;;;;;;;;;;;;5278;;;;;;;;
1831.0;1765.6;;;;;;;;;;;;;2221;;;;;;;;
1831.0;1765.6;;;;;;;;;;;;;-105;;;;;;;;
1831.0;1766.8;;;;-1.1367952;0.10474016;-0.37409595;;;;;;;;;;;;;;;
1831.0;1766.8;;;;-1.114319;0.10070421;-0.36638644;;;;;;;;;;;;;;;
1831.0;1766.8;;;;-1.0926858;0.09627916;-0.359005;;;;;;;;;;;;;;;
1831.0;1766.8;;;;-1.0719072;0.091083534;-0.35187915;;;;;;;;;;;;;;;
1831.0;1766.8;;;;-1.0517007;0.085529335;-0.34600452;;;;;;;;;;;;;;;
1831.0;1774.9;;;;;;;;;;2.4033327;-28.153324;16.655478;;;;;;;;;
1831.0;1774.9;;;;;;;1.2809229;-0.15314189;-0.36768702;;;;;;;;;;;;
1831.0;1774.9;;;;;;;;;;2.2850735;-20.672476;23.426771;;;;;;;;;
1831.0;1774.9;;;;;;;1.2680441;-0.15704826;-0.36451307;;;;;;;;;;;;
1833.0;1776.9;;;;-1.0330507;0.078990944;-0.34019092;;;;;;;;;;;;;;;
1833.0;1776.9;;;;-1.0170327;0.07263947;-0.335537;;;;;;;;;;;;;;;
1833.0;1776.9;;;;-1.0035859;0.065876015;-0.33210757;;;;;;;;;;;;;;;
1833.0;1776.9;;;;-0.9938241;0.0584755;-0.32955936;;;;;;;;;;;;;;;
1833.0;1776.9;;;;-0.9865838;0.0511818;-0.32808307;;;;;;;;;;;;;;;
1833.0;1779.7;262143;262143;11899;;;;;;;;;;;;;;;;;;
1833.0;1783.5;;;;;;;;;;;;;;;;;15.293588;-117.465744;51.53813;;1678.1
1833.0;1783.5;;;;;;;;;;;;;;1.2538224;0.79622793;-0.114749596;;;;;1678.1
1833.0;1783.5;;;;;;;;;;;;;;;;;-9.735405;-65.40117;54.87228;;1678.1
1833.0;1783.5;;;;;;;;;;;;;;1.2359996;0.5542772;0.14484085;;;;;1678.1
1833.0;1783.5;;;;;;;;;;;;;;;;;-4.188666;-40.032654;55.185093;;1687.5
1833.0;1783.5;;;;;;;;;;;;;;1.2544328;0.42664877;0.44288462;;;;;1687.5
1833.0;1783.5;;;;;;;;;;;;;;;;;18.20429;-66.255684;58.843502;;1687.5
1833.0;1783.5;;;;;;;;;;;;;;1.3466598;0.35621205;0.4308603;;;;;1687.5
1833.0;1783.5;;;;;;;;;;;;;;;;;31.888027;-85.61968;63.013092;;1697.2
1833.0;1783.5;;;;;;;;;;;;;;1.3821223;0.34748375;0.28528702;;;;;1697.2
1833.0;1783.5;;;;;;;;;;;;;;;;;34.970394;-85.154274;63.562424;;1697.2
1833.0;1783.5;;;;;;;;;;;;;;1.2939237;0.46162298;0.1638844;;;;;1697.2
1835.0;1784.3;;;;;;;;;;;;;;;;;34.066284;-82.39234;63.497574;;1706.9
1835.0;1784.3;;;;;;;;;;;;;;1.0956755;0.5202795;-0.041688286;;;;;1706.9
1835.0;1784.3;;;;;;;;;;;;;;;;;33.009583;-77.39113;67.52984;;1706.9
1835.0;1784.3;;;;;;;;;;;;;;0.97183144;0.47462386;-0.17481002;;;;;1706.9
1835.0;1784.3;;;;;;;;;;;;;;;;;23.476364;-70.28031;77.68868;;1716.5
1835.0;1784.3;;;;;;;;;;;;;;0.98855555;0.2982879;-0.21350749;;;;;1716.5
1835.0;1784.3;;;;;;;;;;;;;;;;;13.283181;-58.97702;85.573906;;1716.5
1835.0;1784.3;;;;;;;;;;;;;;1.0119938;0.15710929;-0.14777063;;;;;1716.5
1835.0;1784.3;;;;;;;;;;;;;;;;;8.316295;-50.95828;90.16693;;1726.2
1835.0;1784.3;;;;;;;;;;;;;;0.9836726;0.0667745;-0.07513657;;;;;1726.2
1835.0;1784.3;;;;;;;;;;;;;;;;;11.589404;-49.813835;94.17631;;1726.2
1835.0;1784.3;;;;;;;;;;;;;;0.93545336;-0.012207404;-0.033326212;;;;;1726.2
1835.0;1784.3;;;;;;;;;;2.6055179;-20.943327;22.785881;;;;;;;;;
1835.0;1784.3;;;;;;;1.2567523;-0.16034424;-0.357799;;;;;;;;;;;;
1835.0;1784.3;;;;;;;;;;2.7962584;-21.004364;21.843624;;;;;;;;;
1835.0;1784.3;;;;;;;1.2446669;-0.16351818;-0.34846035;;;;;;;;;;;;
1835.0;1786.8;;;;-0.9826509;0.04335404;-0.32732776;;;;;;;;;;;;;;;
1835.0;1786.8;;;;-0.9805299;0.03530884;-0.32530597;;;;;;;;;;;;;;;
1835.0;1786.8;;;;-0.97958386;0.027801517;-0.32343295;;;;;;;;;;;;;;;
1835.0;1786.8;;;;-0.97937787;0.019969942;-0.3225632;;;;;;;;;;;;;;;
1835.0;1786.8;;;;-0.97828305;0.012973787;-0.32125857;;;;;;;;;;;;;;;
1835.0;1793.9;;;;;;;;;;2.845851;-20.88992;20.6534;;;;;;;;;
1835.0;1793.9;;;;;;;1.2265389;-0.1645558;-0.3370464;;;;;;;;;;;;
1835.0;1793.9;;;;;;;;;;2.9145176;-20.107882;19.36781;;;;;;;;;
1835.0;1793.9;;;;;;;1.2040772;-0.16827907;-0.32056642;;;;;;;;;;;;
1888.0;1796.9;;;;-0.97693264;0.0057601933;-0.319809;;;;;;;;;;;;;;;
1888.0;1796.9;;;;-0.9738771;-0.0017433169;-0.3186722;;;;;;;;;;;;;;;
1888.0;1796.9;;;;-0.9692346;-0.008598329;-0.31775668;;;;;;;;;;;;;;;
1888.0;1796.9;;;;-0.9631158;-0.015010836;-0.3156052;;;;;;;;;;;;;;;
1888.0;1796.9;;;;-0.95796216;-0.020397188;-0.3131638;;;;;;;;;;;;;;;
1888.0;1799.6;262143;262143;11884;;;;;;;;;;;;;;;;;;
1888.0;1803.4;;;;;;;;;;2.727592;-18.784143;17.876217;;;;;;;;;
1888.0;1803.4;;;;;;;1.1783197;-0.1685232;-0.30121768;;;;;;;;;;;;
1888.0;1803.4;;;;;;;;;;2.338481;-17.097994;16.388441;;;;;;;;;
1888.0;1803.4;;;;;;;1.1426741;-0.16742454;-0.28150272;;;;;;;;;;;;
1888.0;1805.7;;;;;;;;;;;;;121;;;;;;;;
1888.0;1805.7;;;;;;;;;;;;;2903;;;;;;;;
1888.0;1805.7;;;;;;;;;;;;;6234;;;;;;;;
1888.0;1805.7;;;;;;;;;;;;;8079;;;;;;;;
1888.0;1805.7;;;;;;;;;;;;;8099;;;;;;;;
1888.0;1806.8;;;;-0.9532281;-0.025226597;-0.3112946;;;;;;;;;;;;;;;
1888.0;1806.8;;;;-0.94994366;-0.029373173;-0.3088303;;;;;;;;;;;;;;;
1888.0;1806.8;;;;-0.9484445;-0.03248215;-0.3058205;;;;;;;;;;;;;;;
1888.0;1806.8;;;;-0.9480783;-0.035133366;-0.30370715;;;;;;;;;;;;;;;
1888.0;1806.8;;;;-0.947487;-0.03640366;-0.30129245;;;;;;;;;;;;;;;
1888.0;1812.8;;;;;;;;;;1.8730735;-15.0112915;14.812922;;;;;;;;;
1888.0;1812.8;;;;;;;1.1048311;-0.15955077;-0.26416823;;;;;;;;;;;;
1888.0;1812.8;;;;;;;;;;1.4152958;-12.722404;13.031404;;;;;;;;;
1888.0;1812.8;;;;;;;1.0735191;-0.14960173;-0.24665059;;;;;;;;;;;;
1890.0;1816.7;;;;-0.94719326;-0.037178043;-0.2993622;;;;;;;;;;;;;;;
1890.0;1816.7;;;;-0.9461137;-0.03710938;-0.29745105;;;;;;;;;;;;;;;
1890.0;1816.7;;;;-0.94449246;-0.03620911;-0.2959099;;;;;;;;;;;;;;;
1890.0;1816.7;;;;-0.9426805;-0.03538895;-0.29472354;;;;;;;;;;;;;;;
1890.0;1816.7;;;;-0.9399568;-0.034084324;-0.29446414;;;;;;;;;;;;;;;
1890.0;1819.6;262143;262143;11840;;;;;;;;;;;;;;;;;;
1890.0;1822.4;;;;;;;;;;0.8964812;-10.441145;11.200293;;;;;;;;;
1890.0;1822.4;;;;;;;1.047029;-0.13892026;-0.23395489;;;;;;;;;;;;
1890.0;1822.4;;;;;;;;;;0.38911098;-8.48796;9.254738;;;;;;;;;
1890.0;1822.4;;;;;;;1.0298777;-0.12457655;-0.2207709;;;;;;;;;;;;
1890.0;1826.8;;;;-0.9371873;-0.03244019;-0.29509357;;;;;;;;;;;;;;;
1890.0;1826.8;;;;-0.9339372;-0.030429844;-0.29627612;;;;;;;;;;;;;;;
1890.0;1826.8;;;;-0.9308015;-0.029304508;-0.29892734;;;;;;;;;;;;;;;
1890.0;1826.8;;;;-0.928589;-0.028289799;-0.30133823;;;;;;;;;;;;;;;
1890.0;1826.8;;;;-0.92655575;-0.028060917;-0.3039017;;;;;;;;;;;;;;;
1890.0;1832.0;;;;;;;;;;-0.045777764;-6.3783684;7.423628;;;;;;;;;
1890.0;1832.0;;;;;;;1.0158391;-0.11023286;-0.20831935;;;;;;;;;;;;
1890.0;1832.0;;;;;;;;;;-0.43107393;-4.2878504;5.6993318;;;;;;;;;
1890.0;1832.0;;;;;;;1.0039369;-0.09375286;-0.19855343;;;;;;;;;;;;
2008.0;1836.9;;;;-0.92520916;-0.02795792;-0.3080788;;;;;;;;;;;;;;;
2008.0;1836.9;;;;-0.9242288;-0.02827454;-0.31195834;;;;;;;;;;;;;;;
2008.0;1836.9;;;;-0.9234773;-0.028671268;-0.31430438;;;;;;;;;;;;;;;
2008.0;1836.9;;;;-0.9222146;-0.02915955;-0.31753543;;;;;;;;;;;;;;;
2008.0;1836.9;;;;-0.9200021;-0.029926304;-0.32005695;;;;;;;;;;;;;;;
2008.0;1839.9;262143;262143;11805;;;;;;;;;;;;;;;;;;
2008.0;1841.7;;;;;;;;;;-0.8049257;-1.9226661;4.116184;;;;;;;;;
2008.0;1841.7;;;;;;;0.9940489;-0.084109016;-0.18939787;;;;;;;;;;;;
2008.0;1841.7;;;;;;;;;;-1.1444441;0.4768517;2.704703;;;;;;;;;
2008.0;1841.7;;;;;;;0.9888607;-0.07757805;-0.17902158;;;;;;;;;;;;
2008.0;1844.4;;;;;;;;;;;;;;;;;21.862698;-51.61443;96.45375;;1735.8
2008.0;1844.4;;;;;;;;;;;;;;0.8847316;-0.06799524;0.003906369;;;;;1735.8
2008.0;1844.4;;;;;;;;;;;;;;;;;33.459732;-55.475018;94.60738;;1735.8
2008.0;1844.4;;;;;;;;;;;;;;0.88503677;-0.056398205;0.017334513;;;;;1735.8
2008.0;1844.4;;;;;;;;;;;;;;;;;46.437725;-59.762875;93.36375;;1745.4
2008.0;1844.4;;;;;;;;;;;;;;0.9088412;-0.030640583;-0.018677328;;;;;1745.4
2008.0;1844.4;;;;;;;;;;;;;;;;;58.49254;-62.673576;91.61656;;1745.4
2008.0;1844.4;;;;;;;;;;;;;;0.95999026;0.030213324;-0.078676715;;;;;1745.4
2008.0;1844.4;;;;;;;;;;;;;;;;;64.69543;-61.052277;90.6743;;1755.1
2008.0;1844.4;;;;;;;;;;;;;;1.0416578;0.11236915;-0.14813684;;;;;1755.1
2008.0;1844.4;;;;;;;;;;;;;;;;;62.95587;-51.854763;89.65956;;1755.1
2008.0;1844.4;;;;;;;;;;;;;;1.1150242;0.20960112;-0.1821955;;;;;1755.1
2010.0;1845.2;;;;;;;;;;;;;;;;;58.16828;-41.13895;88.118385;;1764.6
2010.0;1845.2;;;;;;;;;;;;;;1.1680044;0.28547013;-0.17303994;;;;;1764.6
2010.0;1845.2;;;;;;;;;;;;;;;;;55.875576;-36.065247;85.73031;;1764.6
2010.0;1845.2;;;;;;;;;;;;;;1.1883297;0.3391827;-0.15491195;;;;;1764.6
2010.0;1845.2;;;;;;;;;;;;;;;;;55.07065;-35.973694;83.46431;;1774.3
2010.0;1845.2;;;;;;;;;;;;;;1.1841792;0.3789178;-0.16034424;;;;;1774.3
2010.0;1845.2;;;;;;;;;;;;;;;;;53.403576;-37.049473;82.167274;;1774.3
2010.0;1845.2;;;;;;;;;;;;;;1.1854609;0.41486862;-0.1784112;;;;;1774.3
2010.0;1845.2;;;;;;;;;;;;;;;;;49.966427;-35.13062;81.27079;;1784.0
2010.0;1845.2;;;;;;;;;;;;;;1.1781366;0.42860195;-0.18738365;;;;;1784.0
2010.0;1845.2;;;;;;;;;;;;;;;;;46.56743;-30.724508;80.04242;;1784.0
2010.0;1845.2;;;;;;;;;;;;;;1.1488388;0.43317974;-0.15625477;;;;;1784.0
2010.0;1845.7;;;;;;;;;;;;;6796;;;;;;;;
2010.0;1845.7;;;;;;;;;;;;;5090;;;;;;;;
2010.0;1845.7;;;;;;;;;;;;;6568;;;;;;;;
2010.0;1845.7;;;;;;;;;;;;;9023;;;;;;;;
2010.0;1845.7;;;;;;;;;;;;;-213;;;;;;;;
2010.0;1846.8;;;;-0.91658795;-0.0305481;-0.32276538;;;;;;;;;;;;;;;
2010.0;1846.8;;;;-0.91217816;-0.030521397;-0.3242493;;;;;;;;;;;;;;;
2010.0;1846.8;;;;-0.9075242;-0.031131748;-0.3258057;;;;;;;;;;;;;;;
2010.0;1846.8;;;;-0.9024774;-0.03110123;-0.3279648;;;;;;;;;;;;;;;
2010.0;1846.8;;;;-0.8971597;-0.030490879;-0.33036807;;;;;;;;;;;;;;;
2010.0;1851.0;;;;;;;;;;-1.4152958;2.8992584;1.3580737;;;;;;;;;
2010.0;1851.0;;;;;;;0.9787286;-0.07293924;-0.16748558;;;;;;;;;;;;
2010.0;1851.0;;;;;;;;;;-1.5602587;5.5810723;0.13733329;;;;;;;;;
2010.0;1851.0;;;;;;;0.96395767;-0.07477035;-0.15869625;;;;;;;;;;;;
2013.0;1856.9;;;;-0.8924829;-0.029846195;-0.3322983;;;;;;;;;;;;;;;
2013.0;1856.9;;;;-0.8882562;-0.029521946;-0.33407596;;;;;;;;;;;;;;;
2013.0;1856.9;;;;-0.8841516;-0.028568272;-0.33545306;;;;;;;;;;;;;;;
2013.0;1856.9;;;;-0.88108075;-0.027614597;-0.33682254;;;;;;;;;;;;;;;
2013.0;1856.9;;;;-0.8780824;-0.026817326;-0.3378754;;;;;;;;;;;;;;;
2013.0;1859.8;262143;262143;11783;;;;;;;;;;;;;;;;;;
2013.0;1860.5;;;;;;;;;;-1.7586291;8.648182;-1.0910367;;;;;;;;;
2013.0;1860.5;;;;;;;0.9526048;-0.07629628;-0.15247047;;;;;;;;;;;;
2013.0;1860.5;;;;;;;;;;-1.8845179;11.741997;-2.2354808;;;;;;;;;
2013.0;1860.5;;;;;;;0.9411298;-0.07678457;-0.14557329;;;;;;;;;;;;
2013.0;1866.8;;;;-0.8749162;-0.02537537;-0.33858493;;;;;;;;;;;;;;;
2013.0;1866.8;;;;-0.8718835;-0.024032596;-0.3385735;;;;;;;;;;;;;;;
2013.0;1866.8;;;;-0.8682672;-0.022602083;-0.3384476;;;;;;;;;;;;;;;
2013.0;1866.8;;;;-0.8640901;-0.0219574;-0.3388863;;;;;;;;;;;;;;;
2013.0;1866.8;;;;-0.8598672;-0.020847322;-0.339119;;;;;;;;;;;;;;;
2013.0;1870.0;;;;;;;;;;-1.9226661;14.687033;-3.1968138;;;;;;;;;
2013.0;1870.0;;;;;;;0.93148595;-0.080568865;-0.14441359;;;;;;;;;;;;
2013.0;1870.0;;;;;;;;;;-1.9188513;17.342142;-4.188666;;;;;;;;;
2013.0;1870.0;;;;;;;0.92306286;-0.08148442;-0.14282663;;;;;;;;;;;;
2014.0;1876.9;;;;-0.855404;-0.020481111;-0.33900073;;;;;;;;;;;;;;;
2014.0;1876.9;;;;-0.8518373;-0.019355776;-0.3387299;;;;;;;;;;;;;;;
2014.0;1876.9;;;;-0.8485795;-0.01848221;-0.33912662;;;;;;;;;;;;;;;
2014.0;1876.9;;;;-0.84497845;-0.018123629;-0.33963016;;;;;;;;;;;;;;;
2014.0;1876.9;;;;-0.8423234;-0.017314913;-0.34011844;;;;;;;;;;;;;;;
2014.0;1879.6;;;;;;;;;;-1.9112216;19.577623;-5.01648;;;;;;;;;
2014.0;1879.6;;;;;;;0.9190344;-0.08270516;-0.14355907;;;;;;;;;;;;
2014.0;1879.6;;;;;;;;;;-1.8196661;21.439253;-5.8862576;;;;;;;;;
2014.0;1879.6;;;;;;;0.91293067;-0.08526871;-0.14734337;;;;;;;;;;;;
2014.0;1879.9;262143;262143;11774;;;;;;;;;;;;;;;;;;
2014.0;1886.0;;;;;;;;;;;;;-22609;;;;;;;;
2014.0;1886.0;;;;;;;;;;;;;-38268;;;;;;;;
2014.0;1886.0;;;;;;;;;;;;;-29277;;;;;;;;
2014.0;1886.0;;;;;;;;;;;;;-3146;;;;;;;;
2014.0;1886.0;;;;;;;;;;;;;15982;;;;;;;;
2014.0;1887.0;;;;-0.83994305;-0.015918734;-0.34038165;;;;;;;;;;;;;;;
2014.0;1887.0;;;;-0.8380815;-0.01470566;-0.33953097;;;;;;;;;;;;;;;
2014.0;1887.0;;;;-0.8354341;-0.01300049;-0.33921435;;;;;;;;;;;;;;;
2014.0;1887.0;;;;-0.8329164;-0.011062623;-0.33993152;;;;;;;;;;;;;;;
2014.0;1887.0;;;;-0.8299829;-0.008823396;-0.34093097;;;;;;;;;;;;;;;
2014.0;1889.2;;;;;;;;;;-1.6632588;22.907955;-6.7102575;;;;;;;;;
2014.0;1889.2;;;;;;;0.9090243;-0.087588124;-0.14960173;;;;;;;;;;;;
2014.0;1889.2;;;;;;;;;;-1.4572588;24.147772;-7.4732203;;;;;;;;;
2014.0;1889.2;;;;;;;0.8982208;-0.09253212;-0.15314189;;;;;;;;;;;;
2016.0;1897.1;;;;-0.82616055;-0.0062675485;-0.3407555;;;;;;;;;;;;;;;
2016.0;1897.1;;;;-0.8220712;-0.003963471;-0.33983615;;;;;;;;;;;;;;;
2016.0;1897.1;;;;-0.81691754;-0.0013275148;-0.33922198;;;;;;;;;;;;;;;
2016.0;1897.1;;;;-0.8120729;0.0021934512;-0.3381119;;;;;;;;;;;;;;;
2016.0;1897.1;;;;-0.80695355;0.0052146916;-0.3369904;;;;;;;;;;;;;;;
2016.0;1898.9;;;;;;;;;;-1.2512589;25.345621;-7.980591;;;;;;;;;
2016.0;1898.9;;;;;;;0.8929716;-0.0954619;-0.15540025;;;;;;;;;;;;
2016.0;1898.9;;;;;;;;;;-1.0147405;26.08951;-8.41548;;;;;;;;;
2016.0;1898.9;;;;;;;0.8890652;-0.0992462;-0.15698722;;;;;;;;;;;;
2016.0;1900.2;262143;262143;11777;;;;;;;;;;;;;;;;;;
2016.0;1904.0;;;;;;;;;;;;;;;;;42.703026;-28.67214;78.61186;;1793.7
2016.0;1904.0;;;;;;;;;;;;;;1.1319315;0.43867305;-0.13361004;;;;;1793.7
2016.0;1904.0;;;;;;;;;;;;;;;;;38.91873;-28.103731;77.29576;;1793.7
2016.0;1904.0;;;;;;;;;;;;;;1.1059297;0.43671986;-0.12836085;;;;;1793.7
2016.0;1904.0;;;;;;;;;;;;;;;;;36.000397;-28.366955;77.223274;;1803.4
2016.0;1904.0;;;;;;;;;;;;;;1.0671102;0.40852076;-0.138493;;;;;1803.4
2016.0;1904.0;;;;;;;;;;;;;;;;;33.37199;-27.058474;77.09739;;1803.4
2016.0;1904.0;;;;;;;;;;;;;;1.0206;0.39130834;-0.1356853;;;;;1803.4
2016.0;1904.0;;;;;;;;;;;;;;;;;29.999695;-26.894438;74.78179;;1812.8
2016.0;1904.0;;;;;;;;;;;;;;0.9812311;0.4015015;-0.13080233;;;;;1812.8
2016.0;1904.0;;;;;;;;;;;;;;;;;25.894955;-26.707512;72.79809;;1812.8
2016.0;1904.0;;;;;;;;;;;;;;0.96230966;0.40101323;-0.12775049;;;;;1812.8
2020.0;1904.8;;;;;;;;;;;;;;;;;22.526474;-24.979399;73.36268;;1822.5
2020.0;1904.8;;;;;;;;;;;;;;0.93234044;0.35554063;-0.118533894;;;;;1822.5
2020.0;1904.8;;;;;;;;;;;;;;;;;20.123142;-22.881252;75.65157;;1822.5
2020.0;1904.8;;;;;;;;;;;;;;0.90359205;0.29468673;-0.09979553;;;;;1822.5
2020.0;1904.8;;;;;;;;;;;;;;;;;17.853329;-21.168402;74.78179;;1832.1
2020.0;1904.8;;;;;;;;;;;;;;0.8929716;0.28278452;-0.077455975;;;;;1832.1
2020.0;1904.8;;;;;;;;;;;;;;;;;16.659292;-20.60381;76.04831;;1832.1
2020.0;1904.8;;;;;;;;;;;;;;0.86574906;0.22608112;-0.077333905;;;;;1832.1
2020.0;1904.8;;;;;;;;;;;;;;;;;16.743217;-20.04303;76.65868;;1841.8
2020.0;1904.8;;;;;;;;;;;;;;0.85482347;0.20282601;-0.07684561;;;;;1841.8
2020.0;1904.8;;;;;;;;;;;;;;;;;17.376476;-20.37492;77.429276;;1841.8
2020.0;1904.8;;;;;;;;;;;;;;0.8429823;0.15063937;-0.10736412;;;;;1841.8
2020.0;1907.0;;;;-0.80197155;0.008529664;-0.33631137;;;;;;;;;;;;;;;
2020.0;1907.0;;;;-0.7973138;0.011676789;-0.33444217;;;;;;;;;;;;;;;
2020.0;1907.0;;;;-0.79355633;0.014350893;-0.3327599;;;;;;;;;;;;;;;
2020.0;1907.0;;;;-0.79008496;0.017524721;-0.3312035;;;;;;;;;;;;;;;
2020.0;1907.0;;;;-0.7868272;0.020412447;-0.33012775;;;;;;;;;;;;;;;
2020.0;1908.3;;;;;;;;;;-0.73625904;26.589252;-8.873257;;;;;;;;;
2020.0;1908.3;;;;;;;0.88216805;-0.10174871;-0.15851314;;;;;;;;;;;;
2020.0;1908.3;;;;;;;;;;-0.44251838;27.027956;-9.42259;;;;;;;;;
2020.0;1908.3;;;;;;;0.8783227;-0.105288856;-0.16162603;;;;;;;;;;;;
2021.0;1917.1;;;;-0.784546;0.023258211;-0.32856753;;;;;;;;;;;;;;;
2021.0;1917.1;;;;-0.7812387;0.025703434;-0.32717136;;;;;;;;;;;;;;;
2021.0;1917.1;;;;-0.7781869;0.028709415;-0.32519153;;;;;;;;;;;;;;;
2021.0;1917.1;;;;-0.774212;0.030899052;-0.3229027;;;;;;;;;;;;;;;
2021.0;1917.1;;;;-0.76966107;0.033409122;-0.3205376;;;;;;;;;;;;;;;
2021.0;1917.9;;;;;;;;;;-0.12970367;27.439955;-9.811701;;;;;;;;;
2021.0;1917.9;;;;;;;0.87002164;-0.109500416;-0.16046633;;;;;;;;;;;;
2021.0;1917.9;;;;;;;;;;0.20599994;27.817621;-10.139774;;;;;;;;;
2021.0;1917.9;;;;;;;0.86092716;-0.115421005;-0.15704826;;;;;;;;;;;;
2021.0;1920.2;262143;262143;11793;;;;;;;;;;;;;;;;;;
2021.0;1926.2;;;;;;;;;;;;;17383;;;;;;;;
2021.0;1926.2;;;;;;;;;;;;;11899;;;;;;;;
2021.0;1926.2;;;;;;;;;;;;;11436;;;;;;;;
2021.0;1926.2;;;;;;;;;;;;;13778;;;;;;;;
2021.0;1926.2;;;;;;;;;;;;;13750;;;;;;;;
2021.0;1927.1;;;;-0.764557;0.035751346;-0.3183327;;;;;;;;;;;;;;;
2021.0;1927.1;;;;-0.7580453;0.038356785;-0.31502154;;;;;;;;;;;;;;;
2021.0;1927.1;;;;-0.7508508;0.040088657;-0.3115807;;;;;;;;;;;;;;;
2021.0;1927.1;;;;-0.74361044;0.04179764;-0.3087273;;;;;;;;;;;;;;;
2021.0;1927.1;;;;-0.73536307;0.042919163;-0.30609134;;;;;;;;;;;;;;;
2021.0;1927.4;;;;;;;;;;0.5836665;27.91299;-10.258034;;;;;;;;;
2021.0;1927.4;;;;;;;0.85317546;-0.121097445;-0.1551561;;;;;;;;;;;;
2021.0;1927.4;;;;;;;;;;0.9804071;27.806177;-10.475478;;;;;;;;;
2021.0;1927.4;;;;;;;0.8433485;-0.12732323;-0.14874722;;;;;;;;;;;;
2022.0;1937.0;;;;;;;;;;1.3847773;27.478102;-10.704368;;;;;;;;;
2022.0;1937.0;;;;;;;0.8328501;-0.1347087;-0.143437;;;;;;;;;;;;
2022.0;1937.0;;;;;;;;;;1.7090366;26.764734;-10.971405;;;;;;;;;
2022.0;1937.0;;;;;;;0.8167974;-0.13782158;-0.13678396;;;;;;;;;;;;
2022.0;1937.1;;;;-0.7277222;0.044010166;-0.30337146;;;;;;;;;;;;;;;
2022.0;1937.1;;;;-0.720131;0.04465485;-0.30006412;;;;;;;;;;;;;;;
2022.0;1937.1;;;;-0.71301657;0.045177463;-0.29809955;;;;;;;;;;;;;;;
2022.0;1937.1;;;;-0.70607;0.045063023;-0.29592898;;;;;;;;;;;;;;;
2022.0;1937.1;;;;-0.699421;0.045074467;-0.29327396;;;;;;;;;;;;;;;
2022.0;1940.3;262143;262143;11802;;;;;;;;;;;;;;;;;;
2022.0;1946.6;;;;;;;;;;2.0523698;25.849178;-11.108737;;;;;;;;;
2022.0;1946.6;;;;;;;0.80141604;-0.13977477;-0.13110752;;;;;;;;;;;;
2022.0;1946.6;;;;;;;;;;2.6551104;24.849695;-11.177403;;;;;;;;;
2022.0;1946.6;;;;;;;0.786462;-0.1413007;-0.12372204;;;;;;;;;;;;
2022.0;1947.2;;;;-0.6928521;0.044528965;-0.29111865;;;;;;;;;;;;;;;
2022.0;1947.2;;;;-0.68627554;0.043643955;-0.28844836;;;;;;;;;;;;;;;
2022.0;1947.2;;;;-0.6800614;0.042945866;-0.28639224;;;;;;;;;;;;;;;
2022.0;1947.2;;;;-0.6738053;0.04187012;-0.2840958;;;;;;;;;;;;;;;
2022.0;1947.2;;;;-0.66741186;0.040744785;-0.28228763;;;;;;;;;;;;;;;
2022.0;1956.2;;;;;;;;;;3.2235177;23.731956;-11.116366;;;;;;;;;
2022.0;1956.2;;;;;;;0.7715079;-0.14197211;-0.11633656;;;;;;;;;;;;
2022.0;1956.2;;;;;;;;;;3.7499619;22.511215;-11.028626;;;;;;;;;
2022.0;1956.2;;;;;;;0.7565538;-0.13855404;-0.11157567;;;;;;;;;;;;
2026.0;1957.3;;;;-0.6614571;0.039234165;-0.28086856;;;;;;;;;;;;;;;
2026.0;1957.3;;;;-0.65559393;0.037494663;-0.27952197;;;;;;;;;;;;;;;
2026.0;1957.3;;;;-0.6502114;0.036300663;-0.27832797;;;;;;;;;;;;;;;
2026.0;1957.3;;;;-0.6452065;0.03443146;-0.27738956;;;;;;;;;;;;;;;
2026.0;1957.3;;;;-0.64090735;0.033111576;-0.27651218;;;;;;;;;;;;;;;
2026.0;1960.6;262143;262143;11816;;;;;;;;;;;;;;;;;;
2026.0;1964.6;;;;;;;;;;;;;;;;;20.821253;-20.332956;79.22223;;1851.5
2026.0;1964.6;;;;;;;;;;;;;;0.8366344;0.08093509;-0.14844203;;;;;1851.5
2026.0;1964.6;;;;;;;;;;;;;;;;;24.601734;-16.560106;80.603195;;1851.5
2026.0;1964.6;;;;;;;;;;;;;;0.82699054;0.006225776;-0.12469863;;;;;1851.5
2026.0;1964.6;;;;;;;;;;;;;;;;;27.481916;-13.863032;81.045715;;1861.2
2026.0;1964.6;;;;;;;;;;;;;;0.80886257;-0.02948088;-0.075319685;;;;;1861.2
2026.0;1964.6;;;;;;;;;;;;;;;;;30.438398;-15.259254;80.675674;;1861.2
2026.0;1964.6;;;;;;;;;;;;;;0.803003;-0.045228433;-0.08374279;;;;;1861.2
2026.0;1964.6;;;;;;;;;;;;;;;;;35.515915;-15.331736;80.889305;;1870.9
2026.0;1964.6;;;;;;;;;;;;;;0.8116703;-0.058046207;-0.09387494;;;;;1870.9
2026.0;1964.6;;;;;;;;;;;;;;;;;40.43321;-13.607441;80.69094;;1870.9
2026.0;1964.6;;;;;;;;;;;;;;0.8110599;-0.066652425;-0.090456866;;;;;1870.9
2027.0;1965.5;;;;;;;;;;;;;;;;;44.827873;-12.6117735;79.67619;;1880.5
2027.0;1965.5;;;;;;;;;;;;;;0.8060549;-0.0684225;-0.10974456;;;;;1880.5
2027.0;1965.5;;;;;;;;;;;;;;;;;49.69176;-11.646626;79.29853;;1880.5
2027.0;1965.5;;;;;;;;;;;;;;0.8053224;-0.059877317;-0.12225715;;;;;1880.5
2027.0;1965.5;;;;;;;;;;;;;;;;;53.92621;-10.189367;78.03964;;1890.1
2027.0;1965.5;;;;;;;;;;;;;;0.80581075;-0.04730369;-0.12457655;;;;;1890.1
2027.0;1965.5;;;;;;;;;;;;;;;;;59.625538;-9.487442;77.6925;;1890.1
2027.0;1965.5;;;;;;;;;;;;;;0.80037844;-0.04651021;-0.119205296;;;;;1890.1
2027.0;1965.5;;;;;;;;;;;;;;;;;64.73739;-8.991516;76.757866;;1899.7
2027.0;1965.5;;;;;;;;;;;;;;0.801355;-0.060304575;-0.121768855;;;;;1899.7
2027.0;1965.5;;;;;;;;;;;;;;;;;69.81872;-7.7135534;75.58291;;1899.7
2027.0;1965.5;;;;;;;;;;;;;;0.8085574;-0.044984285;-0.10998871;;;;;1899.7
2027.0;1965.6;;;;;;;;;;4.318369;21.172216;-10.9408865;;;;;;;;;
2027.0;1965.6;;;;;;;0.73824275;-0.13342692;-0.10309152;;;;;;;;;;;;
2027.0;1965.6;;;;;;;;;;5.035554;19.680622;-10.708182;;;;;;;;;
2027.0;1965.6;;;;;;;0.71883297;-0.12805566;-0.0987579;;;;;;;;;;;;
2027.0;1966.4;;;;;;;;;;;;;13349;;;;;;;;
2027.0;1966.4;;;;;;;;;;;;;13398;;;;;;;;
2027.0;1966.4;;;;;;;;;;;;;12582;;;;;;;;
2027.0;1966.4;;;;;;;;;;;;;11318;;;;;;;;
2027.0;1966.4;;;;;;;;;;;;;10096;;;;;;;;
2027.0;1967.2;;;;-0.6375428;0.031536106;-0.27500919;;;;;;;;;;;;;;;
2027.0;1967.2;;;;-0.6346169;0.03041077;-0.274025;;;;;;;;;;;;;;;
2027.0;1967.2;;;;-0.63257605;0.029613499;-0.27287295;;;;;;;;;;;;;;;
2027.0;1967.2;;;;-0.63169485;0.02853394;-0.27139667;;;;;;;;;;;;;;;
2027.0;1967.2;;;;-0.6311112;0.028343204;-0.27019122;;;;;;;;;;;;;;;
2028.0;1975.2;;;;;;;;;;5.653554;18.097477;-10.418256;;;;;;;;;
2028.0;1975.2;;;;;;;0.70473343;-0.12268441;-0.09295938;;;;;;;;;;;;
2028.0;1975.2;;;;;;;;;;6.4127016;16.464737;-10.059664;;;;;;;;;
2028.0;1975.2;;;;;;;0.68996245;-0.11633656;-0.087588124;;;;;;;;;;;;
2028.0;1977.3;;;;-0.63104635;0.028511051;-0.26968768;;;;;;;;;;;;;;;
2028.0;1977.3;;;;-0.6309586;0.02821732;-0.26893237;;;;;;;;;;;;;;;
2028.0;1977.3;;;;-0.6312333;0.027740482;-0.26861957;;;;;;;;;;;;;;;
2028.0;1977.3;;;;-0.63133246;0.027175907;-0.26845172;;;;;;;;;;;;;;;
2028.0;1977.3;;;;-0.6317788;0.026908878;-0.26795962;;;;;;;;;;;;;;;
2028.0;1980.5;262143;262143;11826;;;;;;;;;;;;;;;;;;
2028.0;1984.7;;;;;;;;;;7.0764794;14.6641445;-9.81933;;;;;;;;;
2028.0;1984.7;;;;;;;0.67842644;-0.11059908;-0.086489454;;;;;;;;;;;;
2028.0;1984.7;;;;;;;;;;7.78222;12.867367;-9.651479;;;;;;;;;
2028.0;1984.7;;;;;;;0.66689044;-0.1048616;-0.08459731;;;;;;;;;;;;
2028.0;1987.2;;;;-0.632412;0.026542667;-0.26801303;;;;;;;;;;;;;;;
2028.0;1987.2;;;;-0.6330262;0.026081089;-0.26855853;;;;;;;;;;;;;;;
2028.0;1987.2;;;;-0.6333352;0.02600861;-0.269043;;;;;;;;;;;;;;;
2028.0;1987.2;;;;-0.6337357;0.025733951;-0.26912692;;;;;;;;;;;;;;;
2028.0;1987.2;;;;-0.6339951;0.025463108;-0.2698212;;;;;;;;;;;;;;;
2028.0;1993.9;;;;;;;;;;8.3925905;11.024812;-9.483627;;;;;;;;;
2028.0;1993.9;;;;;;;0.6541948;-0.09997864;-0.08075198;;;;;;;;;;;;
2028.0;1993.9;;;;;;;;;;8.980071;9.022035;-9.166997;;;;;;;;;
2028.0;1993.9;;;;;;;0.63954586;-0.0954619;-0.0761742;;;;;;;;;;;;
2070.0;1996.7;;;;-0.63416296;0.025100712;-0.27074054;;;;;;;;;;;;;;;
2070.0;1996.7;;;;-0.63351446;0.024318699;-0.27097705;;;;;;;;;;;;;;;
2070.0;1996.7;;;;-0.6321221;0.02362061;-0.27128986;;;;;;;;;;;;;;;
2070.0;1996.7;;;;-0.6316071;0.023406984;-0.27147678;;;;;;;;;;;;;;;
2070.0;1996.7;;;;-0.6303101;0.02354813;-0.27201465;;;;;;;;;;;;;;;
2070.0;1999.9;262143;262143;11830;;;;;;;;;;;;;;;;;;
2070.0;2003.0;;;;;;;;;;9.514146;7.106998;-8.6787;;;;;;;;;
2070.0;2003.0;;;;;;;0.6256294;-0.08917508;-0.07348857;;;;;;;;;;;;
2070.0;2003.0;;;;;;;;;;9.929959;5.3292947;-8.098849;;;;;;;;;
2070.0;2003.0;;;;;;;0.6140934;-0.08160649;-0.07330546;;;;;;;;;;;;
2070.0;2005.9;;;;;;;;;;;;;9358;;;;;;;;
2070.0;2005.9;;;;;;;;;;;;;8825;;;;;;;;
2070.0;2005.9;;;;;;;;;;;;;7491;;;;;;;;
2070.0;2005.9;;;;;;;;;;;;;5194;;;;;;;;
2070.0;2005.9;;;;;;;;;;;;;2722;;;;;;;;
2070.0;2006.6;;;;-0.62997824;0.023468021;-0.27253726;;;;;;;;;;;;;;;
2070.0;2006.6;;;;-0.6296807;0.023075106;-0.2737389;;;;;;;;;;;;;;;
2070.0;2006.6;;;;-0.6292954;0.023494724;-0.27466205;;;;;;;;;;;;;;;
2070.0;2006.6;;;;-0.6298409;0.023170473;-0.27621844;;;;;;;;;;;;;;;
2070.0;2006.6;;;;-0.63052756;0.023002626;-0.27637485;;;;;;;;;;;;;;;
2070.0;2012.7;;;;;;;;;;10.368664;3.4142585;-7.587664;;;;;;;;;
2070.0;2012.7;;;;;;;0.6092105;-0.07525864;-0.0717185;;;;;;;;;;;;
2070.0;2012.7;;;;;;;;;;10.826442;1.4191107;-7.1718497;;;;;;;;;
2070.0;2012.7;;;;;;;0.6038392;-0.069887385;-0.07159642;;;;;;;;;;;;
2072.0;2016.7;;;;-0.63122946;0.023429872;-0.27673343;;;;;;;;;;;;;;;
2072.0;2016.7;;;;-0.63233954;0.023780826;-0.2761536;;;;;;;;;;;;;;;
2072.0;2016.7;;;;-0.63364416;0.023967747;-0.2754555;;;;;;;;;;;;;;;
2072.0;2016.7;;;;-0.6349717;0.02492905;-0.27665332;;;;;;;;;;;;;;;
2072.0;2016.7;;;;-0.6362;0.02511597;-0.27949527;;;;;;;;;;;;;;;
2072.0;2020.1;262143;262143;11843;;;;;;;;;;;;;;;;;;
2072.0;2022.3;;;;;;;;;;11.06296;-0.6408887;-6.740776;;;;;;;;;
2072.0;2022.3;;;;;;;0.60567033;-0.063417464;-0.07190161;;;;;;;;;;;;
2072.0;2022.3;;;;;;;;;;11.307108;-2.639851;-6.2562943;;;;;;;;;
2072.0;2022.3;;;;;;;0.6089053;-0.054200873;-0.074892424;;;;;;;;;;;;
2072.0;2023.9;;;;;;;;;;;;;;;;;73.43135;-6.5424056;74.4995;;1909.3
2072.0;2023.9;;;;;;;;;;;;;;0.8153325;-0.018921476;-0.11572619;;;;;1909.3
2072.0;2023.9;;;;;;;;;;;;;;;;;76.07502;-5.157628;72.96976;;1909.3
2072.0;2023.9;;;;;;;;;;;;;;0.81820124;0.0113528855;-0.118228704;;;;;1909.3
2072.0;2023.9;;;;;;;;;;;;;;;;;77.536095;-4.2840357;71.5392;;1919.0
2072.0;2023.9;;;;;;;;;;;;;;0.81374556;0.03442488;-0.1262856;;;;;1919.0
2072.0;2023.9;;;;;;;;;;;;;;;;;78.26853;-3.1205175;69.22361;;1919.0
2072.0;2023.9;;;;;;;;;;;;;;0.81514937;0.08978546;-0.13293862;;;;;1919.0
2072.0;2023.9;;;;;;;;;;;;;;;;;79.05057;-1.9913328;68.36527;;1928.3
2072.0;2023.9;;;;;;;;;;;;;;0.8036744;0.11365093;-0.12878811;;;;;1928.3
2072.0;2023.9;;;;;;;;;;;;;;;;;78.802605;-1.9379253;67.43828;;1928.3
2072.0;2023.9;;;;;;;;;;;;;;0.80416274;0.12427137;-0.13385418;;;;;1928.3
2073.0;2024.7;;;;;;;;;;;;;;;;;78.69197;-0.8354442;66.20609;;1938.0
2073.0;2024.7;;;;;;;;;;;;;;0.7932981;0.14874722;-0.115970336;;;;;1938.0
2073.0;2024.7;;;;;;;;;;;;;;;;;77.45216;-0.3128147;64.16898;;1938.0
2073.0;2024.7;;;;;;;;;;;;;;0.77718437;0.1942198;-0.09063997;;;;;1938.0
2073.0;2024.7;;;;;;;;;;;;;;;;;74.99924;-4.1772213;62.910095;;1947.7
2073.0;2024.7;;;;;;;;;;;;;;0.7648549;0.23816645;-0.10296945;;;;;1947.7
2073.0;2024.7;;;;;;;;;;;;;;;;;70.33753;-7.4808497;62.01361;;1947.7
2073.0;2024.7;;;;;;;;;;;;;;0.77877134;0.27503282;-0.13507493;;;;;1947.7
2073.0;2024.7;;;;;;;;;;;;;;;;;63.901947;-7.5571456;63.54335;;1957.3
2073.0;2024.7;;;;;;;;;;;;;;0.7737663;0.2603229;-0.1445967;;;;;1957.3
2073.0;2024.7;;;;;;;;;;;;;;;;;57.626575;-7.9386272;63.70739;;1957.3
2073.0;2024.7;;;;;;;;;;;;;;0.76168096;0.24805444;-0.14148381;;;;;1957.3
2073.0;2026.7;;;;-0.6373597;0.025299076;-0.28170016;;;;;;;;;;;;;;;
2073.0;2026.7;;;;-0.63901526;0.025630955;-0.28262332;;;;;;;;;;;;;;;
2073.0;2026.7;;;;-0.6402169;0.025974277;-0.2838097;;;;;;;;;;;;;;;
2073.0;2026.7;;;;-0.6419907;0.026096348;-0.28517535;;;;;;;;;;;;;;;
2073.0;2026.7;;;;-0.64384466;0.026798252;-0.28602603;;;;;;;;;;;;;;;
2073.0;2031.6;;;;;;;;;;11.3986635;-4.39848;-5.7489243;;;;;;;;;
2073.0;2031.6;;;;;;;0.616596;-0.04809717;-0.07770012;;;;;;;;;;;;
2073.0;2031.6;;;;;;;;;;11.440626;-5.9244056;-5.2415543;;;;;;;;;
2073.0;2031.6;;;;;;;0.6227607;-0.04058962;-0.08197272;;;;;;;;;;;;
2130.0;2036.7;;;;-0.6468888;0.02719498;-0.287941;;;;;;;;;;;;;;;
2130.0;2036.7;;;;-0.65017706;0.027370457;-0.2894936;;;;;;;;;;;;;;;
2130.0;2036.7;;;;-0.6539307;0.02713776;-0.2919083;;;;;;;;;;;;;;;
2130.0;2036.7;;;;-0.65814215;0.0267067;-0.2943268;;;;;;;;;;;;;;;
2130.0;2036.7;;;;-0.6631356;0.026100162;-0.29738238;;;;;;;;;;;;;;;
2130.0;2040.0;262143;262143;11847;;;;;;;;;;;;;;;;;;
2130.0;2041.2;;;;;;;;;;11.474959;-7.2176275;-4.676962;;;;;;;;;
2130.0;2041.2;;;;;;;0.62965786;-0.03485214;-0.08496353;;;;;;;;;;;;
2130.0;2041.2;;;;;;;;;;11.3986635;-8.152257;-4.0284433;;;;;;;;;
2130.0;2041.2;;;;;;;0.63222146;-0.027344584;-0.08948027;;;;;;;;;;;;
2130.0;2046.0;;;;;;;;;;;;;912;;;;;;;;
2130.0;2046.0;;;;;;;;;;;;;-73;;;;;;;;
2130.0;2046.0;;;;;;;;;;;;;-324;;;;;;;;
2130.0;2046.0;;;;;;;;;;;;;292;;;;;;;;
2130.0;2046.0;;;;;;;;;;;;;1487;;;;;;;;
2130.0;2046.6;;;;-0.668377;0.025688175;-0.30036548;;;;;;;;;;;;;;;
2130.0;2046.6;;;;-0.673935;0.026206974;-0.30189517;;;;;;;;;;;;;;;
2130.0;2046.6;;;;-0.68054205;0.02626801;-0.30396655;;;;;;;;;;;;;;;
2130.0;2046.6;;;;-0.68737036;0.026458744;-0.3061562;;;;;;;;;;;;;;;
2130.0;2046.6;;;;-0.6943055;0.026832584;-0.307457;;;;;;;;;;;;;;;
2130.0;2050.5;;;;;;;;;;11.257515;-8.980071;-3.4066288;;;;;;;;;
2130.0;2050.5;;;;;;;0.63686025;-0.020752586;-0.09411909;;;;;;;;;;;;
2130.0;2050.5;;;;;;;;;;10.9408865;-10.181738;-2.887814;;;;;;;;;
2130.0;2050.5;;;;;;;0.64015627;-0.016663106;-0.09350871;;;;;;;;;;;;
2131.0;2056.4;;;;-0.7015191;0.027774815;-0.3094788;;;;;;;;;;;;;;;
2131.0;2056.4;;;;-0.709179;0.028301243;-0.31104663;;;;;;;;;;;;;;;
2131.0;2056.4;;;;-0.7165032;0.029312138;-0.31288913;;;;;;;;;;;;;;;
2131.0;2056.4;;;;-0.7250901;0.030235294;-0.3157921;;;;;;;;;;;;;;;
2131.0;2056.4;;;;-0.73415;0.03144074;-0.31863406;;;;;;;;;;;;;;;
2131.0;2060.0;;;;;;;;;;10.620441;-11.543626;-2.273629;;;;;;;;;
2131.0;2060.0;;;;;;;0.63850826;-0.014343699;-0.09375286;;;;;;;;;;;;
2131.0;2060.0;;;;;;;;;;10.288552;-12.409589;-1.7624439;;;;;;;;;
2131.0;2060.0;;;;;;;0.6390576;-0.011658071;-0.09674367;;;;;;;;;;;;
2131.0;2059.9;262143;262143;11849;;;;;;;;;;;;;;;;;;
2131.0;2066.5;;;;-0.74397665;0.03216553;-0.3218918;;;;;;;;;;;;;;;
2131.0;2066.5;;;;-0.75428784;0.033386234;-0.32512286;;;;;;;;;;;;;;;
2131.0;2066.5;;;;-0.7650491;0.034652714;-0.3280106;;;;;;;;;;;;;;;
2131.0;2066.5;;;;-0.77663434;0.035800938;-0.3314896;;;;;;;;;;;;;;;
2131.0;2066.5;;;;-0.7883264;0.03720093;-0.33479694;;;;;;;;;;;;;;;
2131.0;2069.6;;;;;;;;;;9.983367;-13.130589;-1.2359996;;;;;;;;;
2131.0;2069.6;;;;;;;0.64210945;-0.009949034;-0.09668264;;;;;;;;;;;;
2131.0;2069.6;;;;;;;;;;9.533219;-13.946959;-0.6485183;;;;;;;;;
2131.0;2069.6;;;;;;;0.64766383;-0.008239998;-0.099185154;;;;;;;;;;;;
2134.0;2076.6;;;;-0.80178463;0.039566044;-0.33827594;;;;;;;;;;;;;;;
2134.0;2076.6;;;;-0.8158723;0.041873936;-0.34142688;;;;;;;;;;;;;;;
2134.0;2076.6;;;;-0.8298608;0.04497147;-0.3442345;;;;;;;;;;;;;;;
2134.0;2076.6;;;;-0.84386075;0.048927315;-0.34857562;;;;;;;;;;;;;;;
2134.0;2076.6;;;;-0.85664;0.05213166;-0.351635;;;;;;;;;;;;;;;
2134.0;2079.3;;;;;;;;;;9.090701;-14.473403;-0.10299997;;;;;;;;;
2134.0;2079.3;;;;;;;0.6547441;-0.0038453322;-0.1048616;;;;;;;;;;;;
2134.0;2079.3;;;;;;;;;;8.713035;-14.580218;0.35477766;;;;;;;;;
2134.0;2079.3;;;;;;;0.6682943;-0.0013428144;-0.10779138;;;;;;;;;;;;
2134.0;2080.1;262143;262143;11866;;;;;;;;;;;;;;;;;;
2134.0;2086.1;;;;;;;;;;;;;2374;;;;;;;;
2134.0;2086.1;;;;;;;;;;;;;2310;;;;;;;;
2134.0;2086.1;;;;;;;;;;;;;1555;;;;;;;;
2134.0;2086.1;;;;;;;;;;;;;745;;;;;;;;
2134.0;2086.1;;;;;;;;;;;;;-68;;;;;;;;
2134.0;2086.7;;;;-0.8682481;0.055984505;-0.35376742;;;;;;;;;;;;;;;
2134.0;2086.7;;;;-0.87960446;0.059833534;-0.35634616;;;;;;;;;;;;;;;
2134.0;2086.7;;;;-0.89037716;0.06410218;-0.35929492;;;;;;;;;;;;;;;
2134.0;2086.7;;;;-0.9010278;0.06820298;-0.36238864;;;;;;;;;;;;;;;
2134.0;2086.7;;;;-0.91162884;0.07219315;-0.3660889;;;;;;;;;;;;;;;
2134.0;2088.8;;;;;;;;;;8.194221;-14.522996;0.7820368;;;;;;;;;
2134.0;2088.8;;;;;;;0.6860561;0.0028077029;-0.111636706;;;;;;;;;;;;
2134.0;2088.8;;;;;;;;;;7.656331;-14.507736;1.2245551;;;;;;;;;
2134.0;2088.8;;;;;;;0.70296335;0.0037842952;-0.11694693;;;;;;;;;;;;
2135.0;2091.3;;;;;;;;;;;;;;;;;52.762688;-10.307627;62.108982;;1966.9
2135.0;2091.3;;;;;;;;;;;;;;0.76253545;0.2669759;-0.148381;;;;;1966.9
2135.0;2091.3;;;;;;;;;;;;;;;;;48.867764;-14.343699;61.25065;;1966.9
2135.0;2091.3;;;;;;;;;;;;;;0.76827294;0.29175696;-0.17987609;;;;;1966.9
2135.0;2091.3;;;;;;;;;;;;;;;;;44.370094;-15.961182;60.975983;;1976.5
2135.0;2091.3;;;;;;;;;;;;;;0.783227;0.3051851;-0.19629505;;;;;1976.5
2135.0;2091.3;;;;;;;;;;;;;;;;;39.323097;-15.66744;60.43809;;1976.5
2135.0;2091.3;;;;;;;;;;;;;;0.7957396;0.30524614;-0.19928586;;;;;1976.5
2135.0;2091.3;;;;;;;;;;;;;;;;;34.211246;-15.583514;60.060425;;1986.2
2135.0;2091.3;;;;;;;;;;;;;;0.80599385;0.30524614;-0.19660024;;;;;1986.2
2135.0;2091.3;;;;;;;;;;;;;;;;;28.500473;-15.335551;59.877316;;1986.2
2135.0;2091.3;;;;;;;;;;;;;;0.80886257;0.2865688;-0.19598986;;;;;1986.2
2135.0;2092.5;;;;;;;;;;;;;;;;;23.590809;-15.133366;59.503464;;1995.8
2135.0;2092.5;;;;;;;;;;;;;;0.79976803;0.27686393;-0.18817712;;;;;1995.8
2135.0;2092.5;;;;;;;;;;;;;;;;;18.097477;-16.109959;59.30128;;1995.8
2135.0;2092.5;;;;;;;;;;;;;;0.80434585;0.26038393;-0.19067965;;;;;1995.8
2135.0;2092.5;;;;;;;;;;;;;;;;;12.321849;-15.717033;59.339428;;2005.5
2135.0;2092.5;;;;;;;;;;;;;;0.8179571;0.24719992;-0.19147313;;;;;2005.5
2135.0;2092.5;;;;;;;;;;;;;;;;;6.477554;-15.327921;59.350872;;2005.5
2135.0;2092.5;;;;;;;;;;;;;;0.8283334;0.2280343;-0.18707846;;;;;2005.5
2135.0;2092.5;;;;;;;;;;;;;;;;;0.3013703;-14.633626;59.797207;;2015.2
2135.0;2092.5;;;;;;;;;;;;;;0.8501846;0.20191047;-0.1767632;;;;;2015.2
2135.0;2092.5;;;;;;;;;;;;;;;;;-4.8791466;-13.725699;60.144352;;2015.2
2135.0;2092.5;;;;;;;;;;;;;;0.86342967;0.19190039;-0.15796381;;;;;2015.2
2137.0;2096.5;;;;-0.92214215;0.07589341;-0.3705292;;;;;;;;;;;;;;;
2137.0;2096.5;;;;-0.9328004;0.07959748;-0.37361148;;;;;;;;;;;;;;;
2137.0;2096.5;;;;-0.9434663;0.083370216;-0.37652212;;;;;;;;;;;;;;;
2137.0;2096.5;;;;-0.9537889;0.086536415;-0.37910086;;;;;;;;;;;;;;;
2137.0;2096.5;;;;-0.9643136;0.08977509;-0.3816796;;;;;;;;;;;;;;;
2137.0;2098.2;;;;;;;;;;7.2023683;-14.358959;1.781518;;;;;;;;;
2137.0;2098.2;;;;;;;0.7220069;0.006775109;-0.1225013;;;;;;;;;;;;
2137.0;2098.2;;;;;;;;;;6.614887;-13.935514;2.395703;;;;;;;;;
2137.0;2098.2;;;;;;;0.73867;0.005920591;-0.13006988;;;;;;;;;;;;
2137.0;2098.7;;;;;;;;;;;;;;;;;-9.063997;-14.584033;60.94546;;2024.9
2137.0;2098.7;;;;;;;;;;;;;;0.8752098;0.18140203;-0.15900144;;;;;2024.9
2137.0;2098.7;;;;;;;;;;;;;;;;;-13.332774;-14.782403;61.81524;;2024.9
2137.0;2098.7;;;;;;;;;;;;;;0.9009674;0.1737724;-0.16345714;;;;;2024.9
2137.0;2098.7;;;;;;;;;;;;;;;;;-15.7857;-13.470107;62.326427;;2034.5
2137.0;2098.7;;;;;;;;;;;;;;0.90951264;0.1782281;-0.17004913;;;;;2034.5
2137.0;2098.7;;;;;;;;;;;;;;;;;-16.167181;-13.031404;62.753685;;2034.5
2137.0;2098.7;;;;;;;;;;;;;;0.92318493;0.18378246;-0.18756676;;;;;2034.5
2137.0;2098.7;;;;;;;;;;;;;;;;;-16.243477;-12.287516;62.932983;;2044.1
2137.0;2098.7;;;;;;;;;;;;;;0.95254374;0.1944029;-0.19220558;;;;;2044.1
2137.0;2098.7;;;;;;;;;;;;;;;;;-17.014069;-11.246071;62.696465;;2044.1
2137.0;2098.7;;;;;;;;;;;;;;0.9822077;0.20990631;-0.17902158;;;;;2044.1
2137.0;2099.9;262143;262143;11880;;;;;;;;;;;;;;;;;;
2190.0;2106.4;;;;-0.9731866;0.09284974;-0.38433844;;;;;;;;;;;;;;;
2190.0;2106.4;;;;-0.9803773;0.095893875;-0.3864861;;;;;;;;;;;;;;;
2190.0;2106.4;;;;-0.98741925;0.09918977;-0.3882485;;;;;;;;;;;;;;;
2190.0;2106.4;;;;-0.9937402;0.102081314;-0.3905297;;;;;;;;;;;;;;;
2190.0;2106.4;;;;-0.9992982;0.1047516;-0.39231116;;;;;;;;;;;;;;;
2190.0;2107.6;;;;;;;;;;6.042665;-13.30607;2.7695546;;;;;;;;;
2190.0;2107.6;;;;;;;0.76296276;0.006103702;-0.13330485;;;;;;;;;;;;
2190.0;2107.6;;;;;;;;;;5.584887;-12.474441;2.990814;;;;;;;;;
2190.0;2107.6;;;;;;;0.7903684;0.003540147;-0.13885921;;;;;;;;;;;;
2190.0;2116.0;;;;-1.0049707;0.10751344;-0.39449316;;;;;;;;;;;;;;;
2190.0;2116.0;;;;-1.0103761;0.11028291;-0.39680105;;;;;;;;;;;;;;;
2190.0;2116.0;;;;-1.0155412;0.112850204;-0.39965063;;;;;;;;;;;;;;;
2190.0;2116.0;;;;-1.0213472;0.115798965;-0.40248114;;;;;;;;;;;;;;;
2190.0;2116.0;;;;-1.0275728;0.118812576;-0.4045983;;;;;;;;;;;;;;;
2190.0;2116.7;;;;;;;;;;5.0813317;-11.474959;3.1281471;;;;;;;;;
2190.0;2116.7;;;;;;;0.81423384;6.714072E-4;-0.14276558;;;;;;;;;;;;
2190.0;2116.7;;;;;;;;;;4.543443;-10.143589;3.2654805;;;;;;;;;
2190.0;2116.7;;;;;;;0.8335826;-0.0012207404;-0.1477096;;;;;;;;;;;;
2190.0;2119.6;262143;262143;11900;;;;;;;;;;;;;;;;;;
2190.0;2125.6;;;;;;;;;;;;;-897;;;;;;;;
2190.0;2125.6;;;;;;;;;;;;;-824;;;;;;;;
2190.0;2125.6;;;;;;;;;;;;;979;;;;;;;;
2190.0;2125.6;;;;;;;;;;;;;3569;;;;;;;;
2190.0;2125.6;;;;;;;;;;;;;5108;;;;;;;;
2191.0;2126.1;;;;-1.0343629;0.12170793;-0.40726095;;;;;;;;;;;;;;;
2191.0;2126.1;;;;-1.0416757;0.124740615;-0.409813;;;;;;;;;;;;;;;
2191.0;2126.1;;;;-1.0495225;0.12843706;-0.41164786;;;;;;;;;;;;;;;
2191.0;2126.1;;;;-1.0581666;0.13129427;-0.4140244;;;;;;;;;;;;;;;
2191.0;2126.1;;;;-1.0662004;0.13457872;-0.41583258;;;;;;;;;;;;;;;
2191.0;2126.4;;;;;;;;;;3.9063692;-8.41548;3.540147;;;;;;;;;
2191.0;2126.4;;;;;;;0.8522599;-7.324442E-4;-0.15411848;;;;;;;;;;;;
2191.0;2126.4;;;;;;;;;;3.2807398;-6.557665;3.8224432;;;;;;;;;
2191.0;2126.4;;;;;;;0.8710593;-0.0026856288;-0.16064943;;;;;;;;;;;;
2191.0;2136.0;;;;;;;;;;2.7619252;-4.7036653;4.016999;;;;;;;;;
2191.0;2136.0;;;;;;;0.88717306;-0.0048829615;-0.16296884;;;;;;;;;;;;
2191.0;2136.0;;;;;;;;;;2.2049623;-3.0022585;4.20774;;;;;;;;;
2191.0;2136.0;;;;;;;0.9016999;-0.0073244423;-0.16168706;;;;;;;;;;;;
2191.0;2136.2;;;;-1.0744783;0.13778307;-0.41689306;;;;;;;;;;;;;;;
2191.0;2136.2;;;;-1.0826303;0.14022829;-0.41827017;;;;;;;;;;;;;;;
2191.0;2136.2;;;;-1.090233;0.14293672;-0.4196549;;;;;;;;;;;;;;;
2191.0;2136.2;;;;-1.0980493;0.14536287;-0.42050177;;;;;;;;;;;;;;;
2191.0;2136.2;;;;-1.1052362;0.14739229;-0.4210053;;;;;;;;;;;;;;;
2191.0;2139.9;262143;262143;11900;;;;;;;;;;;;;;;;;;
2194.0;2143.6;;;;;;;;;;;;;;;;;-18.608662;-10.132145;61.92587;;2053.8
2194.0;2143.6;;;;;;;;;;;;;;1.0148625;0.23310037;-0.17432173;;;;;2053.8
2194.0;2143.6;;;;;;;;;;;;;;;;;-20.027771;-9.132664;60.899685;;2053.8
2194.0;2143.6;;;;;;;;;;;;;;1.0358592;0.2503128;-0.18689536;;;;;2053.8
2194.0;2143.6;;;;;;;;;;;;;;;;;-20.80218;-9.346293;59.217354;;2063.4
2194.0;2143.6;;;;;;;;;;;;;;1.0583819;0.2732017;-0.20783105;;;;;2063.4
2194.0;2143.6;;;;;;;;;;;;;;;;;-22.190771;-8.953367;57.56554;;2063.4
2194.0;2143.6;;;;;;;;;;;;;;1.0726646;0.2872402;-0.22351757;;;;;2063.4
2194.0;2143.6;;;;;;;;;;;;;;;;;-23.464918;-9.075441;55.391094;;2073.0
2194.0;2143.6;;;;;;;;;;;;;;1.07828;0.30457473;-0.22894986;;;;;2073.0
2194.0;2143.6;;;;;;;;;;;;;;;;;-25.765251;-10.574664;53.22428;;2073.0
2194.0;2143.6;;;;;;;;;;;;;;1.0868862;0.3157445;-0.23566394;;;;;2073.0
2194.0;2145.5;;;;;;;;;;1.6937773;-1.4419996;4.4099245;;;;;;;;;
2194.0;2145.5;;;;;;;0.913419;-0.006286813;-0.1594287;;;;;;;;;;;;
2194.0;2145.5;;;;;;;;;;1.2016664;-0.10299997;4.692221;;;;;;;;;
2194.0;2145.5;;;;;;;0.9227576;-0.0079958495;-0.15833002;;;;;;;;;;;;
2194.0;2146.2;;;;-1.1119882;0.14891054;-0.42187506;;;;;;;;;;;;;;;
2194.0;2146.2;;;;-1.118416;0.15047075;-0.42197806;;;;;;;;;;;;;;;
2194.0;2146.2;;;;-1.1242257;0.1516533;-0.42193228;;;;;;;;;;;;;;;
2194.0;2146.2;;;;-1.129593;0.15213014;-0.42195135;;;;;;;;;;;;;;;
2194.0;2146.2;;;;-1.1344072;0.15350725;-0.42251974;;;;;;;;;;;;;;;
2194.0;2155.0;;;;;;;;;;0.7019257;0.8697775;4.9172945;;;;;;;;;
2194.0;2155.0;;;;;;;0.93130285;-0.006103702;-0.16119877;;;;;;;;;;;;
2194.0;2155.0;;;;;;;;;;0.20218512;1.659444;5.0737023;;;;;;;;;
2194.0;2155.0;;;;;;;0.9424116;-0.003540147;-0.16644795;;;;;;;;;;;;
2196.0;2156.2;;;;-1.1391946;0.15402605;-0.4233094;;;;;;;;;;;;;;;
2196.0;2156.2;;;;-1.1434556;0.15425111;-0.42273718;;;;;;;;;;;;;;;
2196.0;2156.2;;;;-1.1478578;0.15498354;-0.42249686;;;;;;;;;;;;;;;
2196.0;2156.2;;;;-1.1526147;0.15528871;-0.42243963;;;;;;;;;;;;;;;
2196.0;2156.2;;;;-1.1579171;0.15618517;-0.4219399;;;;;;;;;;;;;;;
2196.0;2158.5;;;;;;;;;;;;;;;;;-29.560991;-11.764886;51.423687;;2082.6
2196.0;2158.5;;;;;;;;;;;;;;1.0987884;0.32044435;-0.22565386;;;;;2082.6
2196.0;2158.5;;;;;;;;;;;;;;;;;-34.627064;-12.432477;49.7528;;2082.6
2196.0;2158.5;;;;;;;;;;;;;;1.1066011;0.32203132;-0.1953795;;;;;2082.6
2196.0;2158.5;;;;;;;;;;;;;;;;;-40.200504;-14.416181;48.093357;;2092.3
2196.0;2158.5;;;;;;;;;;;;;;1.119541;0.32239753;-0.18189032;;;;;2092.3
2196.0;2158.5;;;;;;;;;;;;;;;;;-45.53743;-16.83096;47.032837;;2092.3
2196.0;2158.5;;;;;;;;;;;;;;1.1390729;0.3145848;-0.17102572;;;;;2092.3
2196.0;2158.5;;;;;;;;;;;;;;;;;-50.962093;-19.589067;45.9418;;2101.9
2196.0;2158.5;;;;;;;;;;;;;;1.1651967;0.32142094;-0.16919462;;;;;2101.9
2196.0;2158.5;;;;;;;;;;;;;;;;;-55.711536;-22.28614;45.674763;;2101.9
2196.0;2158.5;;;;;;;;;;;;;;1.1869259;0.31653798;-0.18317209;;;;;2101.9
2196.0;2159.7;262143;262143;11914;;;;;;;;;;;;;;;;;;
2196.0;2164.4;;;;;;;;;;-0.3089999;2.2850735;5.123295;;;;;;;;;
2196.0;2164.4;;;;;;;0.9557176;-2.4414808E-4;-0.17096469;;;;;;;;;;;;
2196.0;2164.4;;;;;;;;;;-0.6904813;2.6512957;5.142369;;;;;;;;;
2196.0;2164.4;;;;;;;0.96963406;-4.8829615E-4;-0.17761773;;;;;;;;;;;;
2250.0;2165.7;;;;;;;;;;;;;5160;;;;;;;;
2250.0;2165.7;;;;;;;;;;;;;5103;;;;;;;;
2250.0;2165.7;;;;;;;;;;;;;6073;;;;;;;;
2250.0;2165.7;;;;;;;;;;;;;7337;;;;;;;;
2250.0;2165.7;;;;;;;;;;;;;7783;;;;;;;;
2250.0;2166.1;;;;-1.1637841;0.1566887;-0.42181402;;;;;;;;;;;;;;;
2250.0;2166.1;;;;-1.1698152;0.15761568;-0.42140967;;;;;;;;;;;;;;;
2250.0;2166.1;;;;-1.1764871;0.15843202;-0.42158896;;;;;;;;;;;;;;;
2250.0;2166.1;;;;-1.1838075;0.1590233;-0.42152792;;;;;;;;;;;;;;;
2250.0;2166.1;;;;-1.1914788;0.16034319;-0.4217797;;;;;;;;;;;;;;;
2250.0;2173.6;;;;;;;;;;-1.1139256;3.0022585;5.2491837;;;;;;;;;
2250.0;2173.6;;;;;;;0.9888607;-4.2725913E-4;-0.18671224;;;;;;;;;;;;
2250.0;2173.6;;;;;;;;;;-1.6022217;3.357036;5.447554;;;;;;;;;
2250.0;2173.6;;;;;;;1.0079043;-0.0020142216;-0.1942198;;;;;;;;;;;;
2250.0;2175.8;;;;-1.1997911;0.16137697;-0.42166144;;;;;;;;;;;;;;;
2250.0;2175.8;;;;-1.2074662;0.16266634;-0.42179877;;;;;;;;;;;;;;;
2250.0;2175.8;;;;-1.2146684;0.16363908;-0.4211617;;;;;;;;;;;;;;;
2250.0;2175.8;;;;-1.2208596;0.16448595;-0.42099768;;;;;;;;;;;;;;;
2250.0;2175.8;;;;-1.2269288;0.16565706;-0.4217568;;;;;;;;;;;;;;;
2250.0;2179.6;262143;262143;11923;;;;;;;;;;;;;;;;;;
2250.0;2183.2;;;;;;;;;;-2.2202215;3.2883694;5.558183;;;;;;;;;
2250.0;2183.2;;;;;;;1.0231636;-0.0021362957;-0.20368053;;;;;;;;;;;;
2250.0;2183.2;;;;;;;;;;-2.8496659;2.8305917;5.607776;;;;;;;;;
2250.0;2183.2;;;;;;;1.0392163;-0.0038453322;-0.2106998;;;;;;;;;;;;
2252.0;2185.9;;;;-1.2328721;0.16693498;-0.4240151;;;;;;;;;;;;;;;
2252.0;2185.9;;;;-1.2393762;0.16901018;-0.42635733;;;;;;;;;;;;;;;
2252.0;2185.9;;;;-1.2460023;0.17004777;-0.42771918;;;;;;;;;;;;;;;
2252.0;2185.9;;;;-1.2528116;0.17107774;-0.42869192;;;;;;;;;;;;;;;
2252.0;2185.9;;;;-1.2584039;0.172184;-0.42942053;;;;;;;;;;;;;;;
2252.0;2192.9;;;;;;;;;;-3.4676657;2.1973326;5.6993318;;;;;;;;;
2252.0;2192.9;;;;;;;1.0531328;-0.0051271096;-0.22101505;;;;;;;;;;;;
2252.0;2192.9;;;;;;;;;;-4.1657767;1.33137;5.8099613;;;;;;;;;
2252.0;2192.9;;;;;;;1.0647908;-0.0054322947;-0.2296823;;;;;;;;;;;;
2252.0;2196.0;;;;-1.2629663;0.17308809;-0.43045813;;;;;;;;;;;;;;;
2252.0;2196.0;;;;-1.2679826;0.1738167;-0.43263632;;;;;;;;;;;;;;;
2252.0;2196.0;;;;-1.2735406;0.17565157;-0.43519598;;;;;;;;;;;;;;;
2252.0;2196.0;;;;-1.2799569;0.177063;-0.43851858;;;;;;;;;;;;;;;
2252.0;2196.0;;;;-1.2874719;0.17855074;-0.44154364;;;;;;;;;;;;;;;
2252.0;2199.9;262143;262143;11930;;;;;;;;;;;;;;;;;;
2252.0;2202.5;;;;;;;;;;-4.9058504;0.5226295;5.8442945;;;;;;;;;
2252.0;2202.5;;;;;;;1.0821253;-0.0074465163;-0.24018067;;;;;;;;;;;;
2252.0;2202.5;;;;;;;;;;-5.714591;-0.5569628;5.7641835;;;;;;;;;
2252.0;2202.5;;;;;;;1.0962249;-0.012207404;-0.24842067;;;;;;;;;;;;
2252.0;2205.8;;;;;;;;;;;;;7434;;;;;;;;
2252.0;2205.8;;;;;;;;;;;;;6747;;;;;;;;
2252.0;2205.8;;;;;;;;;;;;;5849;;;;;;;;
2252.0;2205.8;;;;;;;;;;;;;4857;;;;;;;;
2252.0;2205.8;;;;;;;;;;;;;4008;;;;;;;;
2254.0;2206.1;;;;-1.2949334;0.17988588;-0.44454962;;;;;;;;;;;;;;;
2254.0;2206.1;;;;-1.3027116;0.18083574;-0.4470139;;;;;;;;;;;;;;;
2254.0;2206.1;;;;-1.3090364;0.18205644;-0.44850165;;;;;;;;;;;;;;;
2254.0;2206.1;;;;-1.3150522;0.1834221;-0.4510041;;;;;;;;;;;;;;;
2254.0;2206.1;;;;-1.3205491;0.18513109;-0.4546662;;;;;;;;;;;;;;;
2254.0;2211.5;;;;;;;;;;;;;;;;;-59.846798;-24.075289;45.724358;;2111.5
2254.0;2211.5;;;;;;;;;;;;;;1.2024903;0.30555132;-0.18628499;;;;;2111.5
2254.0;2211.5;;;;;;;;;;;;;;;;;-63.673058;-25.540176;45.98758;;2111.5
2254.0;2211.5;;;;;;;;;;;;;;1.211829;0.2865688;-0.17322306;;;;;2111.5
2254.0;2211.5;;;;;;;;;;;;;;;;;-66.79358;-27.378918;46.109653;;2121.1
2254.0;2211.5;;;;;;;;;;;;;;1.2262337;0.2719199;-0.16205329;;;;;2121.1
2254.0;2211.5;;;;;;;;;;;;;;;;;-69.86068;-28.885769;46.159245;;2121.1
2254.0;2211.5;;;;;;;;;;;;;;1.2355113;0.2517777;-0.15503404;;;;;2121.1
2254.0;2211.5;;;;;;;;;;;;;;;;;-72.63787;-29.042177;46.018097;;2130.8
2254.0;2211.5;;;;;;;;;;;;;;1.2419202;0.24134037;-0.143437;;;;;2130.8
2254.0;2211.5;;;;;;;;;;;;;;;;;-75.407425;-28.855251;45.335243;;2130.8
2254.0;2211.5;;;;;;;;;;;;;;1.2419813;0.25403607;-0.118533894;;;;;2130.8
2254.0;2212.0;;;;;;;;;;-6.633961;-1.5717032;5.6001463;;;;;;;;;
2254.0;2212.0;;;;;;;1.1106906;-0.015686514;-0.2557451;;;;;;;;;;;;
2254.0;2212.0;;;;;;;;;;-7.450331;-2.5292215;5.451369;;;;;;;;;
2254.0;2212.0;;;;;;;1.1284524;-0.0237434;-0.26209295;;;;;;;;;;;;
2256.0;2216.1;;;;-1.3256418;0.18656541;-0.45837027;;;;;;;;;;;;;;;
2256.0;2216.1;;;;-1.3305322;0.18821338;-0.46160895;;;;;;;;;;;;;;;
2256.0;2216.1;;;;-1.3360978;0.18983844;-0.46529394;;;;;;;;;;;;;;;
2256.0;2216.1;;;;-1.3413011;0.19232944;-0.46891028;;;;;;;;;;;;;;;
2256.0;2216.1;;;;-1.3471032;0.19475558;-0.47274786;;;;;;;;;;;;;;;
2256.0;2218.5;;;;;;;;;;;;;;;;;-78.417305;-28.45088;43.88562;;2140.5
2256.0;2218.5;;;;;;;;;;;;;;1.2671285;0.24701682;-0.11157567;;;;;2140.5
2256.0;2218.5;;;;;;;;;;;;;;;;;-77.98624;-27.909176;44.209877;;2140.5
2256.0;2218.5;;;;;;;;;;;;;;1.295877;0.20551164;-0.10998871;;;;;2140.5
2256.0;2218.5;;;;;;;;;;;;;;;;;-77.486496;-26.19251;42.42073;;2150.1
2256.0;2218.5;;;;;;;;;;;;;;1.3362834;0.2014832;-0.102725305;;;;;2150.1
2256.0;2218.5;;;;;;;;;;;;;;;;;-77.05161;-21.874142;39.922024;;2150.1
2256.0;2218.5;;;;;;;;;;;;;;1.3613086;0.19342631;-0.08252205;;;;;2150.1
2256.0;2218.5;;;;;;;;;;;;;;;;;-75.87283;-18.051699;36.896877;;2159.7
2256.0;2218.5;;;;;;;;;;;;;;1.3845637;0.18884854;-0.070192575;;;;;2159.7
2256.0;2218.5;;;;;;;;;;;;;;;;;-73.221535;-14.072847;33.238472;;2159.7
2256.0;2218.5;;;;;;;;;;;;;;1.3994567;0.17719047;-0.053346355;;;;;2159.7
2256.0;2219.7;262143;262143;11917;;;;;;;;;;;;;;;;;;
2256.0;2221.4;;;;;;;;;;-8.445998;-3.6507769;5.3178506;;;;;;;;;
2256.0;2221.4;;;;;;;1.1473129;-0.030030213;-0.2667928;;;;;;;;;;;;
2256.0;2221.4;;;;;;;;;;-9.445479;-4.6464434;5.176702;;;;;;;;;
2256.0;2221.4;;;;;;;1.1659901;-0.035584584;-0.272042;;;;;;;;;;;;
2310.0;2226.0;;;;-1.3534471;0.19752887;-0.47633368;;;;;;;;;;;;;;;
2310.0;2226.0;;;;-1.3604928;0.19988635;-0.47931677;;;;;;;;;;;;;;;
2310.0;2226.0;;;;-1.3674928;0.20387653;-0.4817124;;;;;;;;;;;;;;;
2310.0;2226.0;;;;-1.3754503;0.20830157;-0.4855271;;;;;;;;;;;;;;;
2310.0;2226.0;;;;-1.383793;0.21314624;-0.488411;;;;;;;;;;;;;;;
2310.0;2230.8;;;;;;;;;;-10.45259;-5.359813;4.9172945;;;;;;;;;
2310.0;2230.8;;;;;;;1.180578;-0.042054508;-0.27344584;;;;;;;;;;;;
2310.0;2230.8;;;;;;;;;;-11.46733;-5.9129615;4.566332;;;;;;;;;
2310.0;2230.8;;;;;;;1.1898557;-0.045777764;-0.2732017;;;;;;;;;;;;
2310.0;2235.8;;;;-1.3922616;0.21818545;-0.49089438;;;;;;;;;;;;;;;
2310.0;2235.8;;;;-1.3998338;0.22380832;-0.49281698;;;;;;;;;;;;;;;
2310.0;2235.8;;;;-1.4066697;0.22905734;-0.49400717;;;;;;;;;;;;;;;
2310.0;2235.8;;;;-1.4120332;0.235405;-0.4944573;;;;;;;;;;;;;;;
2310.0;2235.8;;;;-1.4158593;0.24075702;-0.49443442;;;;;;;;;;;;;;;
2310.0;2239.7;262143;262143;11923;;;;;;;;;;;;;;;;;;
2310.0;2240.3;;;;;;;;;;-12.440107;-6.4546647;4.387036;;;;;;;;;
2310.0;2240.3;;;;;;;1.1984619;-0.050111394;-0.27149266;;;;;;;;;;;;
2310.0;2240.3;;;;;;;;;;-13.397626;-6.9086275;4.2497025;;;;;;;;;
2310.0;2240.3;;;;;;;1.2056643;-0.052980132;-0.26813564;;;;;;;;;;;;
2310.0;2245.7;;;;;;;;;;;;;3254;;;;;;;;
2310.0;2245.7;;;;;;;;;;;;;2424;;;;;;;;
2310.0;2245.7;;;;;;;;;;;;;1691;;;;;;;;
2310.0;2245.7;;;;;;;;;;;;;1367;;;;;;;;
2310.0;2245.7;;;;;;;;;;;;;1466;;;;;;;;
2315.0;2245.9;;;;-1.4173433;0.24618533;-0.49439245;;;;;;;;;;;;;;;
2315.0;2245.9;;;;-1.4174768;0.2513657;-0.49332052;;;;;;;;;;;;;;;
2315.0;2245.9;;;;-1.415825;0.25610355;-0.49314886;;;;;;;;;;;;;;;
2315.0;2245.9;;;;-1.4130098;0.26002124;-0.4923783;;;;;;;;;;;;;;;
2315.0;2245.9;;;;-1.41;0.26391223;-0.49096304;;;;;;;;;;;;;;;
2315.0;2250.0;;;;;;;;;;-14.309366;-7.290109;3.9063692;;;;;;;;;
2315.0;2250.0;;;;;;;1.2122562;-0.05633717;-0.26636556;;;;;;;;;;;;
2315.0;2250.0;;;;;;;;;;-15.232551;-7.6715903;3.4676657;;;;;;;;;
2315.0;2250.0;;;;;;;1.2180548;-0.059877317;-0.26685384;;;;;;;;;;;;
2315.0;2256.0;;;;-1.4063302;0.26751712;-0.48836523;;;;;;;;;;;;;;;
2315.0;2256.0;;;;-1.4011918;0.27038196;-0.48632437;;;;;;;;;;;;;;;
2315.0;2256.0;;;;-1.3959275;0.27318957;-0.48257834;;;;;;;;;;;;;;;
2315.0;2256.0;;;;-1.3896638;0.27517322;-0.4788819;;;;;;;;;;;;;;;
2315.0;2256.0;;;;-1.3821641;0.27697375;-0.47411352;;;;;;;;;;;;;;;
2315.0;2259.6;;;;;;;;;;-16.19007;-8.09122;3.1014435;;;;;;;;;
2315.0;2259.6;;;;;;;1.2239143;-0.058839686;-0.26801354;;;;;;;;;;;;
2315.0;2259.6;;;;;;;;;;-17.025513;-8.81222;2.8420362;;;;;;;;;
2315.0;2259.6;;;;;;;1.2319711;-0.059144873;-0.2699057;;;;;;;;;;;;
2315.0;2260.0;262143;262143;11932;;;;;;;;;;;;;;;;;;
2316.0;2263.6;;;;;;;;;;;;;;;;;-67.7282;-11.051516;28.027435;;2169.3
2316.0;2263.6;;;;;;;;;;;;;;1.4200263;0.17096469;-0.060487688;;;;;2169.3
2316.0;2263.6;;;;;;;;;;;;;;;;;-59.228798;-9.170813;22.63329;;2169.3
2316.0;2263.6;;;;;;;;;;;;;;1.4449904;0.1633961;-0.080141604;;;;;2169.3
2316.0;2263.6;;;;;;;;;;;;;;;;;-48.421432;-7.549516;16.96829;;2179.0
2316.0;2263.6;;;;;;;;;;;;;;1.4728843;0.14526811;-0.12103641;;;;;2179.0
2316.0;2263.6;;;;;;;;;;;;;;;;;-36.00421;-5.451369;11.9060335;;2179.0
2316.0;2263.6;;;;;;;;;;;;;;1.5002289;0.115421005;-0.1633961;;;;;2179.0
2316.0;2263.6;;;;;;;;;;;;;;;;;-24.323254;-2.7619252;6.820887;;2188.7
2316.0;2263.6;;;;;;;;;;;;;;1.5240333;0.073000275;-0.21411787;;;;;2188.7
