patientId;holterMac;flexMac;;;;;;;;;;;;;;;;;;;;
;CA:F3:0B:1E:33:78;D3:4A:5C:52:80:78;;;;;;;;;;;;;;;;;;;;
receivedTimeStamp;timeStamp;red;ir;green;adxl_accX;adxl_accY;adxl_accZ;lsm_accelX;lsm_accelY;lsm_accelZ;lsm_gyroX;lsm_gyroY;lsm_gyroZ;ecg;flex_lsm_accelX;flex_lsm_accelY;flex_lsm_accelZ;flex_lsm_gyroX;flex_lsm_gyroY;flex_lsm_gyroZ;flex_cmd;flexTimeStamp
298.0;218.3;;;;;;;;;;;;;;;;;;;;17;0.1
298.0;218.3;;;;;;;;;;;;;;;;;13.584552;1.1215552;0.8888516;;127.7
298.0;218.3;;;;;;;;;;;;;;0.90157783;0.18695639;-0.3120823;;;;;127.7
298.0;218.3;;;;;;;;;;;;;;;;;-5.752739;-17.620625;-7.3244424;;127.7
298.0;218.3;;;;;;;;;;;;;;0.94735557;0.2059389;-0.32471696;;;;;127.7
298.0;218.3;;;;;;;;;;;;;;;;;-65.17991;-84.852905;-60.93783;;137.4
298.0;218.3;;;;;;;;;;;;;;0.9526048;0.20258187;-0.32758567;;;;;137.4
298.0;218.3;;;;;;;;;;;;;;;;;-122.56233;-124.988556;-119.571526;;137.4
298.0;218.3;;;;;;;;;;;;;;0.9631031;0.22040467;-0.33326212;;;;;137.4
357.0;219.0;;;;;;;;;;;;;;;;;-59.50728;-124.931335;-72.63023;;147.1
357.0;219.0;;;;;;;;;;;;;;0.96371347;0.22186956;-0.3267922;;;;;147.1
357.0;219.0;;;;;;;;;;;;;;;;;6.328776;-124.931335;-17.689291;;147.1
357.0;219.0;;;;;;;;;;;;;;0.9620045;0.22400586;-0.3246559;;;;;147.1
357.0;219.0;;;;;;;;;;;;;;;;;2.2431104;-97.28538;-7.126072;;156.8
357.0;219.0;;;;;;;;;;;;;;0.9577929;0.22199164;-0.32105473;;;;;156.8
357.0;219.0;;;;;;;;;;;;;;;;;-4.791406;-6.9544053;17.799921;;156.8
357.0;219.0;;;;;;;;;;;;;;0.9537034;0.21228676;-0.3144017;;;;;156.8
357.0;219.0;;;;;;;;;;;;;;;;;-6.107517;2.3499253;18.826105;;166.4
357.0;219.0;;;;;;;;;;;;;;0.94222844;0.2038026;-0.3060396;;;;;166.4
357.0;219.0;;;;;;;;;;;;;;;;;-6.9429607;3.627888;17.742699;;166.4
357.0;219.0;;;;;;;;;;;;;;0.93856627;0.20557268;-0.29706717;;;;;166.4
357.0;279.4;;;;;;;;;;;;;;;;;-8.594775;4.5358133;16.884367;;176.1
357.0;279.4;;;;;;;;;;;;;;0.93325603;0.22272408;-0.2933439;;;;;176.1
357.0;279.4;;;;;;;;;;;;;;;;;-10.742516;4.737999;15.636921;;176.1
357.0;279.4;;;;;;;;;;;;;;0.93887144;0.22840053;-0.28858304;;;;;176.1
357.0;279.4;;;;;;;;;;;;;;;;;-13.058107;4.8295546;14.370403;;185.7
357.0;279.4;;;;;;;;;;;;;;0.95327616;0.23664053;-0.2912076;;;;;185.7
357.0;279.4;;;;;;;;;;;;;;;;;-15.552996;5.1690726;13.065737;;185.7
357.0;279.4;;;;;;;;;;;;;;0.9749443;0.24591815;-0.29230627;;;;;185.7
357.0;279.4;;;;;;;;;;;;;;;;;-18.250069;5.8671837;11.295663;;195.4
357.0;279.4;;;;;;;;;;;;;;0.99447614;0.2580645;-0.29663992;;;;;195.4
357.0;279.4;;;;;;;;;;;;;;;;;-21.130253;7.206183;9.369183;;195.4
357.0;279.4;;;;;;;;;;;;;;1.0152898;0.2747276;-0.29773858;;;;;195.4
418.0;280.2;;;;;;;;;;;;;;;;;-23.739586;9.11359;7.1756644;;205.0
418.0;280.2;;;;;;;;;;;;;;1.0309763;0.28431043;-0.2948088;;;;;205.0
418.0;280.2;;;;;;;;;;;;;;;;;-26.00177;11.852626;4.3450727;;205.0
418.0;280.2;;;;;;;;;;;;;;1.0376294;0.2927946;-0.2854091;;;;;205.0
418.0;280.2;;;;;;;;;;;;;;;;;-27.565844;15.224921;1.1902219;;214.7
418.0;280.2;;;;;;;;;;;;;;1.0346385;0.29841;-0.26593828;;;;;214.7
418.0;280.2;;;;;;;;;;;;;;;;;-28.523361;18.921476;-2.4491103;;214.7
418.0;280.2;;;;;;;;;;;;;;1.0273141;0.29963073;-0.23944822;;;;;214.7
418.0;280.2;;;;;;;;;;;;;;;;;-29.25962;22.236547;-6.706443;;224.3
418.0;280.2;;;;;;;;;;;;;;1.0137639;0.30219427;-0.2146672;;;;;224.3
418.0;280.2;;;;;;;;;;;;;;;;;-30.224768;25.139622;-11.280404;;224.3
418.0;280.2;;;;;;;;;;;;;;1.0047914;0.29767755;-0.20166631;;;;;224.3
418.0;338.9;;;;;;;;;;;;;;;;;-31.044954;27.932066;-16.21296;;234.0
418.0;338.9;;;;;;;;;;;;;;0.9978332;0.2887051;-0.19409773;;;;;234.0
418.0;338.9;;;;;;;;;;;;;;;;;-31.80029;31.292915;-21.763514;;234.0
418.0;338.9;;;;;;;;;;;;;;0.9949034;0.280282;-0.18781091;;;;;234.0
418.0;338.9;;;;;;;;;;;;;;;;;-31.956696;35.80584;-27.737509;;243.7
418.0;338.9;;;;;;;;;;;;;;0.9941099;0.2722251;-0.17139195;;;;;243.7
418.0;338.9;;;;;;;;;;;;;;;;;-31.567585;40.887173;-34.558395;;243.7
418.0;338.9;;;;;;;;;;;;;;0.9950865;0.26856288;-0.15649892;;;;;243.7
418.0;338.9;;;;;;;;;;;;;;;;;-30.73214;46.70858;-42.062138;;253.2
418.0;338.9;;;;;;;;;;;;;;0.9913633;0.26337475;-0.1445967;;;;;253.2
418.0;338.9;;;;;;;;;;;;;;;;;-29.18714;52.911465;-50.04654;;253.2
418.0;338.9;;;;;;;;;;;;;;0.98513746;0.2565386;-0.14453566;;;;;253.2
477.0;339.6;;;;;;;;;;;;;;;;;-26.947845;60.087128;-58.278908;;262.9
477.0;339.6;;;;;;;;;;;;;;0.9696951;0.24677266;-0.13153477;;;;;262.9
477.0;339.6;;;;;;;;;;;;;;;;;-24.357586;67.62139;-66.763054;;262.9
477.0;339.6;;;;;;;;;;;;;;0.9436323;0.23773919;-0.104617454;;;;;262.9
477.0;339.6;;;;;;;;;;;;;;;;;-22.221289;74.35072;-75.308235;;272.6
477.0;339.6;;;;;;;;;;;;;;0.9006012;0.20685446;-0.09253212;;;;;272.6
477.0;339.6;;;;;;;;;;;;;;;;;-21.458328;80.389565;-83.803825;;272.6
477.0;339.6;;;;;;;;;;;;;;0.8622089;0.18738365;-0.074221015;;;;;272.6
477.0;339.6;;;;;;;;;;;;;;;;;-22.553179;85.34502;-92.10867;;282.2
477.0;339.6;;;;;;;;;;;;;;0.8231452;0.16229743;-0.06256294;;;;;282.2
477.0;339.6;;;;;;;;;;;;;;;;;-25.315104;89.08353;-99.574265;;282.2
477.0;339.6;;;;;;;;;;;;;;0.7882321;0.12305063;-0.04449599;;;;;282.2
477.0;399.3;;;;;;;;;;;;;;;;;-28.04651;91.3686;-107.01697;;291.9
477.0;399.3;;;;;;;;;;;;;;0.7632069;0.11157567;-0.031067843;;;;;291.9
477.0;399.3;;;;;;;;;;;;;;;;;-30.865658;90.35767;-112.4836;;291.9
477.0;399.3;;;;;;;;;;;;;;0.75160986;0.07953124;-0.036133915;;;;;291.9
477.0;399.3;;;;;;;;;;;;;;;;;-32.227547;84.261604;-116.47771;;301.5
477.0;399.3;;;;;;;;;;;;;;0.7647939;0.060914945;-0.07593005;;;;;301.5
477.0;399.3;;;;;;;;;;;;;;;;;-33.341473;73.25968;-119.16334;;301.5
477.0;399.3;;;;;;;;;;;;;;0.81441694;0.039490953;-0.15698722;;;;;301.5
477.0;399.3;;;;;;;;;;;;;;;;;-33.669548;59.244057;-121.566666;;310.9
477.0;399.3;;;;;;;;;;;;;;0.9144566;0.04834132;-0.28168583;;;;;310.9
477.0;399.3;;;;;;;;;;;;;;;;;-35.28321;46.62084;-123.34055;;310.9
477.0;399.3;;;;;;;;;;;;;;1.0664388;0.018982513;-0.40894803;;;;;310.9
539.0;407.1;;;;;;;;;;;;;;;;;-36.34373;40.833767;-123.93567;;320.6
539.0;407.1;;;;;;;;;;;;;;1.2418592;-0.01739555;-0.52821434;;;;;320.6
539.0;407.1;;;;;;;;;;;;;;;;;-35.6151;48.810543;-123.06207;;320.6
539.0;407.1;;;;;;;;;;;;;;1.3711966;-0.041932434;-0.5402997;;;;;320.6
539.0;407.1;;;;;;;;;;;;;;;;;-32.551807;60.29313;-122.19993;;330.3
539.0;407.1;;;;;;;;;;;;;;1.5104221;-0.072634056;-0.4537492;;;;;330.3
539.0;407.1;;;;;;;;;;;;;;;;;-26.036104;68.727684;-121.124146;;330.3
539.0;407.1;;;;;;;;;;;;;;1.6403089;-0.10968352;-0.3963744;;;;;330.3
539.0;407.1;;;;;;;;;;;;;;;;;-18.723106;77.42546;-118.915375;;339.9
539.0;407.1;;;;;;;;;;;;;;1.6998199;-0.14868619;-0.34052554;;;;;339.9
539.0;407.1;;;;;;;;;;;;;;;;;-12.951292;87.52709;-117.21778;;339.9
539.0;407.1;;;;;;;;;;;;;;1.5722525;-0.16815698;-0.32819605;;;;;339.9
539.0;459.6;;;;;;;;;;;;;;;;;-7.927183;96.78564;-116.3976;;349.6
539.0;459.6;;;;;;;;;;;;;;1.3273721;-0.11291849;-0.268746;;;;;349.6
539.0;459.6;;;;;;;;;;;;;;;;;-5.878628;87.824646;-115.74526;;349.6
539.0;459.6;;;;;;;;;;;;;;1.200354;-0.14758751;-0.29157385;;;;;349.6
539.0;459.6;;;;;;;;;;;;;;;;;-4.4900355;71.71468;-116.45863;;359.3
539.0;459.6;;;;;;;;;;;;;;1.1696523;-0.11548204;-0.39210182;;;;;359.3
539.0;459.6;;;;;;;;;;;;;;;;;-3.521073;63.097015;-119.06034;;359.3
539.0;459.6;;;;;;;;;;;;;;1.1447493;-0.04113895;-0.4458144;;;;;359.3
539.0;459.6;;;;;;;;;;;;;;;;;-3.032777;58.862576;-122.24952;;368.8
539.0;459.6;;;;;;;;;;;;;;1.1394391;0.080996126;-0.47047335;;;;;368.8
539.0;459.6;;;;;;;;;;;;;;;;;-3.5897398;58.393353;-124.660484;;368.8
539.0;459.6;;;;;;;;;;;;;;1.1297342;0.05224769;-0.4623554;;;;;368.8
600.0;460.5;;;;;;;;;;;;;;;;;-1.8349254;57.80206;-124.97711;;378.6
600.0;460.5;;;;;;;;;;;;;;1.1509751;0.0601825;-0.46552935;;;;;378.6
600.0;460.5;;;;;;;;;;;;;;;;;1.2398144;60.441906;-124.988556;;378.6
600.0;460.5;;;;;;;;;;;;;;1.1712394;-0.0076296274;-0.44642475;;;;;378.6
600.0;460.5;;;;;;;;;;;;;;;;;5.83285;64.874725;-124.988556;;388.3
600.0;460.5;;;;;;;;;;;;;;1.1764885;0.21735282;-0.44465467;;;;;388.3
600.0;460.5;;;;;;;;;;;;;;;;;8.1331835;70.56261;-124.988556;;388.3
600.0;460.5;;;;;;;;;;;;;;1.1616565;0.2684408;-0.39765617;;;;;388.3
600.0;460.5;;;;;;;;;;;;;;;;;10.383923;69.692825;-124.988556;;397.9
600.0;460.5;;;;;;;;;;;;;;1.1352276;0.17133091;-0.3850215;;;;;397.9
600.0;460.5;;;;;;;;;;;;;;;;;17.59392;67.90749;-124.988556;;397.9
600.0;460.5;;;;;;;;;;;;;;1.1479843;0.24341564;-0.361095;;;;;397.9
600.0;520.1;;;;;;;;;;;;;;;;;22.488325;67.97997;-124.988556;;407.5
600.0;520.1;;;;;;;;;;;;;;1.1238136;0.14947966;-0.3164159;;;;;407.5
600.0;520.1;;;;;;;;;;;;;;;;;26.898252;65.38591;-124.988556;;407.5
600.0;520.1;;;;;;;;;;;;;;1.0874965;0.11444441;-0.33002716;;;;;407.5
600.0;520.1;;;;;;;;;;;;;;;;;30.793177;64.11939;-124.988556;;417.1
600.0;520.1;;;;;;;;;;;;;;1.0843227;0.17389446;-0.32129887;;;;;417.1
600.0;520.1;;;;;;;;;;;;;;;;;30.316324;63.8638;-124.988556;;417.1
600.0;520.1;;;;;;;;;;;;;;1.0614338;0.08594012;-0.29328287;;;;;417.1
600.0;520.1;;;;;;;;;;;;;;;;;29.98062;62.326427;-124.988556;;426.8
600.0;520.1;;;;;;;;;;;;;;1.048799;0.08996857;-0.28791162;;;;;426.8
600.0;520.1;;;;;;;;;;;;;;;;;27.64214;62.322613;-124.988556;;426.8
600.0;520.1;;;;;;;;;;;;;;1.0204779;0.083010346;-0.28485978;;;;;426.8
656.0;521.3;;;;;;;;;;;;;;;;;22.892696;61.22013;-124.988556;;436.4
656.0;521.3;;;;;;;;;;;;;;0.9884335;0.06756798;-0.29419842;;;;;436.4
656.0;521.3;;;;;;;;;;;;;;;;;16.235847;59.232613;-124.988556;;436.4
656.0;521.3;;;;;;;;;;;;;;0.994232;0.12048708;-0.33118686;;;;;436.4
656.0;521.3;;;;;;;;;;;;;;;;;11.783959;61.97928;-124.20652;;446.1
656.0;521.3;;;;;;;;;;;;;;0.9814142;0.13135166;-0.33674124;;;;;446.1
656.0;521.3;;;;;;;;;;;;;;;;;11.154515;64.931946;-121.295815;;446.1
656.0;521.3;;;;;;;;;;;;;;0.9434492;0.16418958;-0.27594838;;;;;446.1
656.0;521.3;;;;;;;;;;;;;;;;;8.89233;64.59243;-116.30604;;455.7
656.0;521.3;;;;;;;;;;;;;;0.9013947;0.23615223;-0.19605091;;;;;455.7
656.0;521.3;;;;;;;;;;;;;;;;;2.685629;60.26261;-109.89715;;455.7
656.0;521.3;;;;;;;;;;;;;;0.86648154;0.25147253;-0.16180913;;;;;455.7
656.0;535.0;;;;;;;;;;;;;;;;;-7.248146;55.64287;-104.61363;;465.3
656.0;535.0;;;;;;;;;;;;;;0.83980834;0.2832728;-0.14575641;;;;;465.3
656.0;535.0;;;;;;;;;;;;;;;;;-18.288218;52.056946;-100.19989;;465.3
656.0;535.0;;;;;;;;;;;;;;0.8090457;0.30243844;-0.115970336;;;;;465.3
656.0;535.0;;;;;;;;;;;;;;;;;-28.214361;47.463913;-96.49953;;474.9
656.0;535.0;;;;;;;;;;;;;;0.77388835;0.3114719;-0.07647938;;;;;474.9
656.0;535.0;;;;;;;;;;;;;;;;;-36.57262;41.627247;-94.11909;;474.9
656.0;535.0;;;;;;;;;;;;;;0.7522202;0.30976287;-0.045838803;;;;;474.9
656.0;535.0;;;;;;;;;;;;;;;;;-42.39021;36.73284;-92.257454;;484.6
656.0;535.0;;;;;;;;;;;;;;0.73165077;0.31800288;-0.009460738;;;;;484.6
656.0;535.0;;;;;;;;;;;;;;;;;-46.72384;32.48314;-89.983826;;484.6
656.0;535.0;;;;;;;;;;;;;;0.7077242;0.319834;0.036317028;;;;;484.6
719.0;580.3;;;;;;;;;;;;;;;;;-48.558765;27.455214;-87.14942;;494.3
719.0;580.3;;;;;;;;;;;;;;0.6980193;0.33967102;0.06823939;;;;;494.3
719.0;580.3;;;;;;;;;;;;;;;;;-48.34132;22.415844;-84.39513;;494.3
719.0;580.3;;;;;;;;;;;;;;0.6960051;0.34998626;0.08740501;;;;;494.3
719.0;580.3;;;;;;;;;;;;;;;;;-47.59743;18.047884;-81.32038;;503.9
719.0;580.3;;;;;;;;;;;;;;0.68745995;0.34107485;0.100833155;;;;;503.9
719.0;580.3;;;;;;;;;;;;;;;;;-47.73858;13.485367;-78.2609;;503.9
719.0;580.3;;;;;;;;;;;;;;0.675985;0.3361919;0.0987579;;;;;503.9
719.0;580.3;;;;;;;;;;;;;;;;;-49.19584;9.281442;-74.78942;;513.6
719.0;580.3;;;;;;;;;;;;;;0.66408277;0.3302713;0.103946045;;;;;513.6
719.0;580.3;;;;;;;;;;;;;;;;;-52.182835;5.3979616;-70.734276;;513.6
719.0;580.3;;;;;;;;;;;;;;0.6491897;0.3160497;0.111087374;;;;;513.6
719.0;595.4;;;;;;;;;;;;;;;;;-55.90991;1.3657033;-66.41972;;523.3
719.0;595.4;;;;;;;;;;;;;;0.6394238;0.3145848;0.11389508;;;;;523.3
719.0;595.4;;;;;;;;;;;;;;;;;-59.69039;-2.6703696;-61.56346;;523.3
719.0;595.4;;;;;;;;;;;;;;0.63521224;0.30103457;0.109500416;;;;;523.3
719.0;595.4;;;;;;;;;;;;;;;;;-62.791832;-6.6873684;-56.138798;;533.0
719.0;595.4;;;;;;;;;;;;;;0.63557845;0.29493088;0.10058901;;;;;533.0
719.0;595.4;;;;;;;;;;;;;;;;;-65.04257;-10.818812;-49.798576;;533.0
719.0;595.4;;;;;;;;;;;;;;0.6436354;0.2809534;0.077883236;;;;;533.0
719.0;595.4;;;;;;;;;;;;;;;;;-66.5418;-14.706107;-43.321026;;542.5
719.0;595.4;;;;;;;;;;;;;;0.6502884;0.26850185;0.050416578;;;;;542.5
719.0;595.4;;;;;;;;;;;;;;;;;-67.140724;-18.356884;-35.81347;;542.5
719.0;595.4;;;;;;;;;;;;;;0.66566974;0.25843075;0.014038514;;;;;542.5
779.0;640.6;;;;;;;;;;;;;;;;;-66.618095;-21.179846;-27.836695;;552.1
779.0;640.6;;;;;;;;;;;;;;0.6814783;0.24658956;-0.023865474;;;;;552.1
779.0;640.6;;;;;;;;;;;;;;;;;-65.40498;-23.518326;-19.753105;;552.1
779.0;640.6;;;;;;;;;;;;;;0.694235;0.23950927;-0.06451613;;;;;552.1
779.0;640.6;;;;;;;;;;;;;;;;;-63.7875;-25.551622;-11.76107;;561.7
779.0;640.6;;;;;;;;;;;;;;0.71053195;0.22656941;-0.11291849;;;;;561.7
779.0;640.6;;;;;;;;;;;;;;;;;-61.61687;-26.73803;-3.6774805;;561.7
779.0;640.6;;;;;;;;;;;;;;0.71913815;0.21027254;-0.16162603;;;;;561.7
779.0;640.6;;;;;;;;;;;;;;;;;-59.27458;-26.64266;4.0856657;;571.3
779.0;640.6;;;;;;;;;;;;;;0.7152318;0.19959106;-0.20209357;;;;;571.3
779.0;640.6;;;;;;;;;;;;;;;;;-57.10776;-25.673697;11.692404;;571.3
779.0;640.6;;;;;;;;;;;;;;0.7003998;0.17224647;-0.24127933;;;;;571.3
779.0;656.0;;;;;;;;;;;;;;;;;-54.391617;-23.67092;18.753624;;581.0
779.0;656.0;;;;;;;;;;;;;;0.67445904;0.156621;-0.27240822;;;;;581.0
779.0;656.0;;;;;;;;;;;;;;;;;-51.423687;-20.542772;25.112917;;581.0
779.0;656.0;;;;;;;;;;;;;;0.62862027;0.12610248;-0.28907132;;;;;581.0
779.0;656.0;;;;;;;;;;;;;;;;;-47.68136;-17.28492;31.098362;;590.7
779.0;656.0;;;;;;;;;;;;;;0.5771661;0.09338664;-0.29639578;;;;;590.7
779.0;656.0;;;;;;;;;;;;;;;;;-43.187508;-14.484848;36.6451;;590.7
779.0;656.0;;;;;;;;;;;;;;0.51857054;0.06982635;-0.2969451;;;;;590.7
779.0;656.0;;;;;;;;;;;;;;;;;-38.56014;-13.843959;41.85232;;600.3
779.0;656.0;;;;;;;;;;;;;;0.4655904;0.057313763;-0.29371014;;;;;600.3
779.0;656.0;;;;;;;;;;;;;;;;;-34.558395;-15.87344;46.922207;;600.3
779.0;656.0;;;;;;;;;;;;;;0.4370861;0.055238504;-0.27582628;;;;;600.3
896.0;701.1;;;;;;;;;;;;;;;;;-30.816065;-19.798882;51.396984;;609.8
896.0;701.1;;;;;;;;;;;;;;0.4252449;0.06292917;-0.250618;;;;;609.8
896.0;701.1;;;;;;;;;;;;;;;;;-26.844845;-22.663807;55.085907;;609.8
896.0;701.1;;;;;;;;;;;;;;0.428663;0.08252205;-0.2158269;;;;;609.8
896.0;701.1;;;;;;;;;;;;;;;;;-22.049623;-23.400066;57.5045;;619.4
896.0;701.1;;;;;;;;;;;;;;0.43574327;0.13623463;-0.16986603;;;;;619.4
896.0;701.1;;;;;;;;;;;;;;;;;-16.323587;-23.976105;58.896908;;619.4
896.0;701.1;;;;;;;;;;;;;;0.44843897;0.20081179;-0.12384411;;;;;619.4
896.0;701.1;;;;;;;;;;;;;;;;;-9.62096;-26.116215;59.362316;;629.1
896.0;701.1;;;;;;;;;;;;;;0.4750511;0.28504288;-0.085329756;;;;;629.1
896.0;701.1;;;;;;;;;;;;;;;;;-2.5940733;-29.961546;59.343243;;629.1
896.0;701.1;;;;;;;;;;;;;;0.5164342;0.3717765;-0.04589984;;;;;629.1
896.0;708.6;;;;;;;;;;;;;;;;;2.929777;-34.78347;58.751945;;638.7
896.0;708.6;;;;;;;;;;;;;;0.5813166;0.4575335;-0.0053102206;;;;;638.7
896.0;708.6;;;;;;;;;;;;;;;;;5.84048;-38.65551;57.02765;;638.7
896.0;708.6;;;;;;;;;;;;;;0.6654256;0.5650807;0.029969176;;;;;638.7
896.0;708.6;;;;;;;;;;;;;;;;;4.676962;-39.414654;54.03684;;648.4
896.0;708.6;;;;;;;;;;;;;;0.75716424;0.7140111;0.107608266;;;;;648.4
896.0;708.6;;;;;;;;;;;;;;;;;-0.3662221;-38.571583;49.150063;;648.4
896.0;708.6;;;;;;;;;;;;;;0.85464036;0.9459517;0.21851254;;;;;648.4
896.0;708.6;;;;;;;;;;;;;;;;;-9.266183;-38.121433;42.462692;;658.0
896.0;708.6;;;;;;;;;;;;;;0.93417156;1.2385021;0.3322245;;;;;658.0
896.0;708.6;;;;;;;;;;;;;;;;;-20.76403;-42.313915;34.337135;;658.0
896.0;708.6;;;;;;;;;;;;;;1.0169377;1.5375226;0.39576402;;;;;658.0
901.0;761.5;;;;;;;;;;;;;;;;;-34.913174;-50.50432;24.815363;;667.6
901.0;761.5;;;;;;;;;;;;;;1.0818201;1.805475;0.3912473;;;;;667.6
901.0;761.5;;;;;;;;;;;;;;;;;-51.0918;-59.369946;15.861996;;667.6
901.0;761.5;;;;;;;;;;;;;;1.1151463;1.9547715;0.31037325;;;;;667.6
901.0;761.5;;;;;;;;;;;;;;;;;-64.775536;-66.78595;6.1799984;;677.2
901.0;761.5;;;;;;;;;;;;;;1.0876796;1.9841304;0.16479996;;;;;677.2
901.0;761.5;;;;;;;;;;;;;;;;;-72.36701;-71.600235;-1.6212958;;677.2
901.0;761.5;;;;;;;;;;;;;;1.0363475;1.8624836;-0.010315256;;;;;677.2
901.0;761.5;;;;;;;;;;;;;;;;;-76.13987;-67.052986;-6.3364053;;686.9
901.0;761.5;;;;;;;;;;;;;;0.97073275;1.6069216;-0.12622456;;;;;686.9
901.0;761.5;;;;;;;;;;;;;;;;;-75.693535;-55.38728;-9.338664;;686.9
901.0;761.5;;;;;;;;;;;;;;0.9160436;1.3152257;-0.14539018;;;;;686.9
901.0;769.3;;;;;;;;;;;;;;;;;-73.19102;-45.003357;-12.10059;;696.6
901.0;769.3;;;;;;;;;;;;;;0.88772243;1.0554521;-0.15002899;;;;;696.6
901.0;769.3;;;;;;;;;;;;;;;;;-70.978424;-36.229286;-13.649404;;696.6
901.0;769.3;;;;;;;;;;;;;;0.8512223;0.83260596;-0.18158513;;;;;696.6
901.0;769.3;;;;;;;;;;;;;;;;;-69.63179;-28.717918;-13.695181;;706.2
901.0;769.3;;;;;;;;;;;;;;0.81276894;0.6007874;-0.2245552;;;;;706.2
901.0;769.3;;;;;;;;;;;;;;;;;-68.098236;-21.252327;-12.569811;;706.2
901.0;769.3;;;;;;;;;;;;;;0.7693716;0.3587756;-0.21497238;;;;;706.2
901.0;769.3;;;;;;;;;;;;;;;;;-65.20661;-15.118106;-10.402997;;715.9
901.0;769.3;;;;;;;;;;;;;;0.7213355;0.13953063;-0.07715079;;;;;715.9
901.0;769.3;;;;;;;;;;;;;;;;;-62.31498;-12.79107;-6.1761837;;715.9
901.0;769.3;;;;;;;;;;;;;;0.70674765;-0.077455975;0.19629505;;;;;715.9
959.0;822.0;;;;;;;;;;;;;;;;;-54.982906;-16.151922;-0.29374066;;725.6
959.0;822.0;;;;;;;;;;;;;;0.74202704;-0.17126988;0.4466689;;;;;725.6
959.0;822.0;;;;;;;;;;;;;;;;;-31.151768;-42.065952;6.4851832;;725.6
959.0;822.0;;;;;;;;;;;;;;0.9037141;-0.105838194;0.30842006;;;;;725.6
959.0;822.0;;;;;;;;;;;;;;;;;13.927884;-101.93564;20.393993;;735.2
959.0;822.0;;;;;;;;;;;;;;1.4642781;-0.040406507;-0.2954192;;;;;735.2
959.0;822.0;;;;;;;;;;;;;;;;;62.86431;-124.839775;40.7918;;735.2
959.0;822.0;;;;;;;;;;;;;;1.9957885;0.05261391;-1.3365276;;;;;735.2
959.0;822.0;;;;;;;;;;;;;;;;;94.206825;-93.88638;62.07083;;744.6
959.0;822.0;;;;;;;;;;;;;;1.9971923;-0.07037568;-1.2698752;;;;;744.6
959.0;822.0;;;;;;;;;;;;;;;;;74.1905;-21.431623;85.29542;;744.6
959.0;822.0;;;;;;;;;;;;;;1.9971923;-0.3827021;-0.3322245;;;;;744.6
959.0;829.4;;;;;;;;;;;;;;;;;39.212467;19.138922;87.02734;;754.3
959.0;829.4;;;;;;;;;;;;;;1.9971923;-0.60194707;-0.23535874;;;;;754.3
959.0;829.4;;;;;;;;;;;;;;;;;27.462843;70.226906;70.23835;;754.3
959.0;829.4;;;;;;;;;;;;;;1.7157506;-0.61671805;0.03277688;;;;;754.3
959.0;829.4;;;;;;;;;;;;;;;;;18.555254;56.02054;64.10032;;764.0
959.0;829.4;;;;;;;;;;;;;;1.2596819;-0.6914884;0.019592883;;;;;764.0
959.0;829.4;;;;;;;;;;;;;;;;;7.042146;40.3531;53.441727;;764.0
959.0;829.4;;;;;;;;;;;;;;1.1400495;-0.66817224;-0.1770684;;;;;764.0
959.0;829.4;;;;;;;;;;;;;;;;;11.116366;59.80865;41.001617;;773.5
959.0;829.4;;;;;;;;;;;;;;0.9613941;-0.56776637;-0.07696768;;;;;773.5
959.0;829.4;;;;;;;;;;;;;;;;;26.814325;63.653984;30.457472;;773.5
959.0;829.4;;;;;;;;;;;;;;0.7404401;-0.4709006;0.04712058;;;;;773.5
1019.0;882.2;;;;;;;;;;;;;;;;;38.403732;47.62795;20.973846;;783.3
1019.0;882.2;;;;;;;;;;;;;;0.6088443;-0.2957854;0.04358043;;;;;783.3
1019.0;882.2;;;;;;;;;;;;;;;;;39.391766;34.890285;15.285958;;783.3
1019.0;882.2;;;;;;;;;;;;;;0.47718742;-0.17627491;-0.0021362957;;;;;783.3
1019.0;882.2;;;;;;;;;;;;;;;;;32.64336;19.508957;12.234108;;792.9
1019.0;882.2;;;;;;;;;;;;;;0.42365795;-0.10742515;-0.017517624;;;;;792.9
1019.0;882.2;;;;;;;;;;;;;;;;;27.134771;-2.4414806;11.379589;;792.9
1019.0;882.2;;;;;;;;;;;;;;0.4998932;-0.069093905;-0.06964324;;;;;792.9
1019.0;882.2;;;;;;;;;;;;;;;;;30.507065;-17.448957;10.025331;;802.4
1019.0;882.2;;;;;;;;;;;;;;0.6120792;-4.2725913E-4;-0.15356915;;;;;802.4
1019.0;882.2;;;;;;;;;;;;;;;;;42.973877;-22.473066;10.288552;;802.4
1019.0;882.2;;;;;;;;;;;;;;0.69466233;0.09472945;-0.2285226;;;;;802.4
1019.0;889.7;;;;;;;;;;;;;;;;;57.302315;-22.39677;13.653218;;812.0
1019.0;889.7;;;;;;;;;;;;;;0.7639393;0.16992706;-0.24524674;;;;;812.0
1019.0;889.7;;;;;;;;;;;;;;;;;67.77398;-23.476364;20.748772;;812.0
1019.0;889.7;;;;;;;;;;;;;;0.8551897;0.20081179;-0.2593463;;;;;812.0
1019.0;889.7;;;;;;;;;;;;;;;;;72.98883;-21.897032;30.976288;;821.7
1019.0;889.7;;;;;;;;;;;;;;0.91274756;0.19959106;-0.30542925;;;;;821.7
1019.0;889.7;;;;;;;;;;;;;;;;;74.83902;-15.751366;41.77984;;821.7
1019.0;889.7;;;;;;;;;;;;;;0.92806786;0.20471816;-0.32605976;;;;;821.7
1019.0;889.7;;;;;;;;;;;;;;;;;75.38072;-13.130589;51.080353;;831.3
1019.0;889.7;;;;;;;;;;;;;;0.91946167;0.22162542;-0.28241828;;;;;831.3
1019.0;889.7;;;;;;;;;;;;;;;;;74.77416;-21.08066;59.31654;;831.3
1019.0;889.7;;;;;;;;;;;;;;0.90249336;0.20081179;-0.20075075;;;;;831.3
1079.0;942.8;;;;;;;;;;;;;;;;;74.59487;-37.038025;67.247536;;841.0
1079.0;942.8;;;;;;;;;;;;;;0.9286172;0.13989685;-0.19281594;;;;;841.0
1079.0;942.8;;;;;;;;;;;;;;;;;73.713646;-48.440506;74.98016;;841.0
1079.0;942.8;;;;;;;;;;;;;;0.96121097;0.07458724;-0.27857295;;;;;841.0
1079.0;942.8;;;;;;;;;;;;;;;;;72.14194;-47.059544;82.11386;;850.5
1079.0;942.8;;;;;;;;;;;;;;0.941435;0.029847102;-0.34101382;;;;;850.5
1079.0;942.8;;;;;;;;;;;;;;;;;69.734795;-39.242985;87.847534;;850.5
1079.0;942.8;;;;;;;;;;;;;;0.89638966;-0.011963256;-0.36548966;;;;;850.5
1079.0;942.8;;;;;;;;;;;;;;;;;65.03494;-31.51799;91.66615;;860.0
1079.0;942.8;;;;;;;;;;;;;;0.8608051;-0.045960877;-0.40418714;;;;;860.0
1079.0;942.8;;;;;;;;;;;;;;;;;58.687096;-21.977142;93.43623;;860.0
1079.0;942.8;;;;;;;;;;;;;;0.8480483;-0.060548723;-0.41908017;;;;;860.0
1079.0;943.6;;;;;;;;;;;;;;;;;49.161507;-11.383404;93.9436;;869.6
1079.0;943.6;;;;;;;;;;;;;;0.83315533;-0.044373915;-0.38758507;;;;;869.6
1079.0;943.6;;;;;;;;;;;;;;;;;35.885952;-3.3646657;92.28416;;869.6
1079.0;943.6;;;;;;;;;;;;;;0.8094729;-0.011108737;-0.35950804;;;;;869.6
1079.0;943.6;;;;;;;;;;;;;;;;;23.152103;-1.3161107;87.67205;;879.3
1079.0;943.6;;;;;;;;;;;;;;0.78792685;0.07367168;-0.35261086;;;;;879.3
1079.0;943.6;;;;;;;;;;;;;;;;;11.112552;-7.98822;81.1449;;879.3
1079.0;943.6;;;;;;;;;;;;;;0.78438675;0.1892758;-0.4083987;;;;;879.3
1079.0;943.6;;;;;;;;;;;;;;;;;2.6474807;-20.111698;73.435165;;888.9
1079.0;943.6;;;;;;;;;;;;;;0.8125248;0.3270974;-0.5114902;;;;;888.9
1079.0;943.6;;;;;;;;;;;;;;;;;-2.3880734;-30.327768;65.84369;;888.9
1079.0;943.6;;;;;;;;;;;;;;0.8604389;0.45710623;-0.5910825;;;;;888.9
1138.0;1002.9;;;;;;;;;;;;;;;;;-5.691702;-35.24888;61.06372;;898.6
1138.0;1002.9;;;;;;;;;;;;;;0.8925443;0.55098116;-0.6206244;;;;;898.6
1138.0;1002.9;;;;;;;;;;;;;;;;;-9.086886;-33.677177;58.286537;;898.6
1138.0;1002.9;;;;;;;;;;;;;;0.8928495;0.6341136;-0.5670339;;;;;898.6
1138.0;1002.9;;;;;;;;;;;;;;;;;-13.412886;-30.350657;57.195503;;908.2
1138.0;1002.9;;;;;;;;;;;;;;0.8880276;0.68514055;-0.4707175;;;;;908.2
1138.0;1002.9;;;;;;;;;;;;;;;;;-18.471329;-28.199102;57.58843;;908.2
1138.0;1002.9;;;;;;;;;;;;;;0.91006196;0.6878872;-0.38666952;;;;;908.2
1138.0;1002.9;;;;;;;;;;;;;;;;;-23.682364;-24.807732;58.96939;;917.7
1138.0;1002.9;;;;;;;;;;;;;;0.9413129;0.64803004;-0.31592762;;;;;917.7
1138.0;1002.9;;;;;;;;;;;;;;;;;-27.668842;-19.661549;60.67461;;917.7
1138.0;1002.9;;;;;;;;;;;;;;0.9686575;0.58790857;-0.25299844;;;;;917.7
1138.0;1003.7;;;;;;;;;;;;;;;;;-30.270546;-14.12244;62.387463;;927.3
1138.0;1003.7;;;;;;;;;;;;;;0.9762871;0.5229652;-0.18561357;;;;;927.3
1138.0;1003.7;;;;;;;;;;;;;;;;;-32.788326;-11.028626;63.901947;;927.3
1138.0;1003.7;;;;;;;;;;;;;;0.97647023;0.46833706;-0.14233834;;;;;927.3
1138.0;1003.7;;;;;;;;;;;;;;;;;-35.641804;-10.692923;65.51561;;937.0
1138.0;1003.7;;;;;;;;;;;;;;0.97634816;0.4231086;-0.11505478;;;;;937.0
1138.0;1003.7;;;;;;;;;;;;;;;;;-38.403732;-11.692404;67.91894;;937.0
1138.0;1003.7;;;;;;;;;;;;;;0.9700003;0.38538775;-0.09485153;;;;;937.0
1138.0;1003.7;;;;;;;;;;;;;;;;;-41.142765;-13.275552;71.20731;;946.6
1138.0;1003.7;;;;;;;;;;;;;;0.9602344;0.3503525;-0.08001953;;;;;946.6
1138.0;1003.7;;;;;;;;;;;;;;;;;-43.32484;-15.133366;75.05264;;946.6
1138.0;1003.7;;;;;;;;;;;;;;0.9490036;0.31501207;-0.07281716;;;;;946.6
1198.0;1063.5;;;;;;;;;;;;;;;;;-44.34339;-17.18955;78.917046;;956.3
1198.0;1063.5;;;;;;;;;;;;;;0.9392987;0.28119755;-0.08026368;;;;;956.3
1198.0;1063.5;;;;;;;;;;;;;;;;;-43.759727;-19.474625;82.25883;;956.3
1198.0;1063.5;;;;;;;;;;;;;;0.93099767;0.24689475;-0.10400708;;;;;956.3
1198.0;1063.5;;;;;;;;;;;;;;;;;-41.577656;-21.80929;84.68124;;965.9
1198.0;1063.5;;;;;;;;;;;;;;0.920072;0.21283609;-0.13275552;;;;;965.9
1198.0;1063.5;;;;;;;;;;;;;;;;;-37.789547;-23.83114;85.562454;;965.9
1198.0;1063.5;;;;;;;;;;;;;;0.9122593;0.19434187;-0.16766869;;;;;965.9
1198.0;1063.5;;;;;;;;;;;;;;;;;-33.074436;-25.284584;84.868164;;975.6
1198.0;1063.5;;;;;;;;;;;;;;0.9038972;0.17719047;-0.20166631;;;;;975.6
1198.0;1063.5;;;;;;;;;;;;;;;;;-28.199102;-25.696585;82.510605;;975.6
1198.0;1063.5;;;;;;;;;;;;;;0.8946196;0.159917;-0.23908201;;;;;975.6
1198.0;1064.3;;;;;;;;;;;;;;;;;-23.785364;-25.204473;79.00098;;985.2
1198.0;1064.3;;;;;;;;;;;;;;0.88485366;0.14880826;-0.2733848;;;;;985.2
1198.0;1064.3;;;;;;;;;;;;;;;;;-19.966734;-24.395735;74.65972;;985.2
1198.0;1064.3;;;;;;;;;;;;;;0.8750267;0.1396527;-0.29932556;;;;;985.2
1198.0;1064.3;;;;;;;;;;;;;;;;;-16.838589;-23.533587;70.03616;;994.9
1198.0;1064.3;;;;;;;;;;;;;;0.87203586;0.13037507;-0.3175756;;;;;994.9
1198.0;1064.3;;;;;;;;;;;;;;;;;-13.599812;-22.52266;65.595726;;994.9
1198.0;1064.3;;;;;;;;;;;;;;0.87673575;0.12225715;-0.32087162;;;;;994.9
1198.0;1064.3;;;;;;;;;;;;;;;;;-10.0138855;-21.706291;61.937313;;1004.6
1198.0;1064.3;;;;;;;;;;;;;;0.8890042;0.11535997;-0.31238747;;;;;1004.6
1198.0;1064.3;;;;;;;;;;;;;;;;;-6.3402205;-21.561327;59.305096;;1004.6
1198.0;1064.3;;;;;;;;;;;;;;0.9029206;0.112979524;-0.3091525;;;;;1004.6
1200.0;1124.3;;;;;;;;;;;;;;;;;-2.7771842;-22.019106;57.626575;;1014.2
1200.0;1124.3;;;;;;;;;;;;;;0.9190344;0.10138249;-0.30872524;;;;;1014.2
1200.0;1124.3;;;;;;;;;;;;;;;;;0.6714072;-22.869808;56.951355;;1014.2
1200.0;1124.3;;;;;;;;;;;;;;0.93710136;0.0926542;-0.31568345;;;;;1014.2
1200.0;1124.3;;;;;;;;;;;;;;;;;3.5744805;-23.960846;57.042908;;1023.8
1200.0;1124.3;;;;;;;;;;;;;;0.95468;0.07806635;-0.32789087;;;;;1023.8
1200.0;1124.3;;;;;;;;;;;;;;;;;5.939665;-25.92166;57.451096;;1023.8
1200.0;1124.3;;;;;;;;;;;;;;0.97634816;0.064760275;-0.34455398;;;;;1023.8
1200.0;1124.3;;;;;;;;;;;;;;;;;7.7478867;-28.668325;58.336132;;1033.3
1200.0;1124.3;;;;;;;;;;;;;;1.0038759;0.052552875;-0.36567277;;;;;1033.3
1200.0;1124.3;;;;;;;;;;;;;;;;;9.029664;-31.750694;59.625538;;1033.3
1200.0;1124.3;;;;;;;;;;;;;;1.030488;0.044007692;-0.38471633;;;;;1033.3
1201.0;1125.2;;;;;;;;;;;;;;;;;9.800256;-34.87884;60.983612;;1043.0
1201.0;1125.2;;;;;;;;;;;;;;1.0547807;0.04095584;-0.40357676;;;;;1043.0
1201.0;1125.2;;;;;;;;;;;;;;;;;10.074923;-37.045654;62.108982;;1043.0
1201.0;1125.2;;;;;;;;;;;;;;1.0744346;0.0430311;-0.41511276;;;;;1043.0
1201.0;1125.2;;;;;;;;;;;;;;;;;9.983367;-38.785213;62.74987;;1052.6
1201.0;1125.2;;;;;;;;;;;;;;1.0929899;0.0557268;-0.420423;;;;;1052.6
1201.0;1125.2;;;;;;;;;;;;;;;;;9.063997;-39.922024;62.761314;;1052.6
1201.0;1125.2;;;;;;;;;;;;;;1.1136204;0.07348857;-0.42048404;;;;;1052.6
1201.0;1125.2;;;;;;;;;;;;;;;;;7.0688496;-41.31443;62.18909;;1062.2
1201.0;1125.2;;;;;;;;;;;;;;1.1407208;0.09869686;-0.42066714;;;;;1062.2
1201.0;1125.2;;;;;;;;;;;;;;;;;3.1090732;-44.75921;61.23539;;1062.2
1201.0;1125.2;;;;;;;;;;;;;;1.1709952;0.1307413;-0.44495988;;;;;1062.2
1201.0;1128.0;;;;0.0;0.0;0.0;;;;;;;;;;;;;;;
1201.0;1128.0;;;;-0.12788011;0.48769385;0.029136661;;;;;;;;;;;;;;;
1201.0;1128.0;;;;-0.34286883;1.3622209;-0.028476719;;;;;;;;;;;;;;;
1201.0;1128.0;;;;-0.3415604;1.3836786;-0.05434037;;;;;;;;;;;;;;;
1201.0;1128.0;;;;-0.33788684;1.3819734;-0.067264564;;;;;;;;;;;;;;;
1201.0;1138.0;;;;-0.33536914;1.378174;-0.081695564;;;;;;;;;;;;;;;
1201.0;1138.0;;;;-0.33201602;1.3719674;-0.09788133;;;;;;;;;;;;;;;
1201.0;1138.0;;;;-0.3274651;1.3638116;-0.11469652;;;;;;;;;;;;;;;
1201.0;1138.0;;;;-0.31964496;1.3529893;-0.13194276;;;;;;;;;;;;;;;
1201.0;1138.0;;;;-0.31307605;1.3409196;-0.14725114;;;;;;;;;;;;;;;
1258.0;1142.4;57526;57488;14052;;;;;;;;;;;;;;;;;;
1258.0;1148.0;;;;-0.30765536;1.3264543;-0.16168977;;;;;;;;;;;;;;;
1258.0;1148.0;;;;-0.30051425;1.3094941;-0.17702867;;;;;;;;;;;;;;;
1258.0;1148.0;;;;-0.29433444;1.2911035;-0.19020084;;;;;;;;;;;;;;;
1258.0;1148.0;;;;-0.28826907;1.2713548;-0.2044144;;;;;;;;;;;;;;;
1258.0;1148.0;;;;-0.28436664;1.2510759;-0.21665958;;;;;;;;;;;;;;;
1258.0;1157.9;;;;-0.2823029;1.2310106;-0.2273064;;;;;;;;;;;;;;;
1258.0;1157.9;;;;-0.28159335;1.2105867;-0.23648456;;;;;;;;;;;;;;;
1258.0;1157.9;;;;-0.28454974;1.1910402;-0.24245456;;;;;;;;;;;;;;;
1258.0;1157.9;;;;-0.2910767;1.1713907;-0.24756625;;;;;;;;;;;;;;;
1258.0;1157.9;;;;-0.30260852;1.1524469;-0.25897983;;;;;;;;;;;;;;;
1258.0;1162.4;73920;73865;14020;;;;;;;;;;;;;;;;;;
1258.0;1168.1;;;;-0.2967873;1.1341058;-0.27066043;;;;;;;;;;;;;;;
1258.0;1168.1;;;;-0.29405597;1.1169587;-0.27990726;;;;;;;;;;;;;;;
1258.0;1168.1;;;;-0.2947655;1.1012498;-0.288559;;;;;;;;;;;;;;;
1258.0;1168.1;;;;-0.29690936;1.0864908;-0.29553607;;;;;;;;;;;;;;;
1258.0;1168.1;;;;-0.30109027;1.0728723;-0.29674914;;;;;;;;;;;;;;;
1258.0;1168.6;;;;;;;;;;;;;0;;;;;;;;
1258.0;1168.6;;;;;;;;;;;;;0;;;;;;;;
1258.0;1168.6;;;;;;;;;;;;;-1;;;;;;;;
1258.0;1168.6;;;;;;;;;;;;;-2;;;;;;;;
1258.0;1168.6;;;;;;;;;;;;;-3;;;;;;;;
1259.0;1178.2;;;;-0.30424502;1.059311;-0.29757693;;;;;;;;;;;;;;;
1259.0;1178.2;;;;-0.2591515;1.0398599;-0.29799274;;;;;;;;;;;;;;;
1259.0;1178.2;;;;-0.30633166;1.0321809;-0.2836037;;;;;;;;;;;;;;;
1259.0;1178.2;;;;-0.32774737;1.0287172;-0.29221728;;;;;;;;;;;;;;;
1259.0;1178.2;;;;-0.32798007;1.0268899;-0.30456164;;;;;;;;;;;;;;;
1259.0;1182.7;90314;90239;14021;;;;;;;;;;;;;;;;;;
1259.0;1183.9;;;;;;;;;;;;;;;;;-3.3494065;-50.645466;60.1825;;1071.9
1259.0;1183.9;;;;;;;;;;;;;;1.1980957;0.16516617;-0.47938475;;;;;1071.9
1259.0;1183.9;;;;;;;;;;;;;;;;;-11.795404;-57.679985;58.679466;;1071.9
1259.0;1183.9;;;;;;;;;;;;;;1.243202;0.21369061;-0.5337687;;;;;1071.9
1259.0;1183.9;;;;;;;;;;;;;;;;;-21.145512;-61.23539;57.660908;;1081.4
1259.0;1183.9;;;;;;;;;;;;;;1.2834255;0.26691487;-0.56862086;;;;;1081.4
1259.0;1183.9;;;;;;;;;;;;;;;;;-29.38551;-60.21683;56.073944;;1081.4
1259.0;1183.9;;;;;;;;;;;;;;1.3043001;0.33472702;-0.58412427;;;;;1081.4
1259.0;1183.9;;;;;;;;;;;;;;;;;-36.51921;-57.657093;54.387802;;1091.1
1259.0;1183.9;;;;;;;;;;;;;;1.3039949;0.4130375;-0.5930357;;;;;1091.1
1259.0;1183.9;;;;;;;;;;;;;;;;;-41.844692;-53.659172;54.07117;;1091.1
1259.0;1183.9;;;;;;;;;;;;;;1.2782372;0.49189734;-0.57686085;;;;;1091.1
1320.0;1185.0;;;;;;;;;;;;;;;;;-43.378246;-46.071503;54.910427;;1100.8
1320.0;1185.0;;;;;;;;;;;;;;1.2326427;0.5660573;-0.47230446;;;;;1100.8
1320.0;1185.0;;;;;;;;;;;;;;;;;-40.330208;-38.11762;56.642353;;1100.8
1320.0;1185.0;;;;;;;;;;;;;;1.1786249;0.6291696;-0.3119602;;;;;1100.8
1320.0;1185.0;;;;;;;;;;;;;;;;;-37.953583;-34.974213;59.63317;;1110.5
1320.0;1185.0;;;;;;;;;;;;;;1.1224707;0.671041;-0.17835017;;;;;1110.5
1320.0;1185.0;;;;;;;;;;;;;;;;;-37.53777;-37.766655;62.322613;;1110.5
1320.0;1185.0;;;;;;;;;;;;;;1.0879849;0.6981414;-0.11401715;;;;;1110.5
1320.0;1185.0;;;;;;;;;;;;;;;;;-37.835323;-39.89532;64.8175;;1120.1
1320.0;1185.0;;;;;;;;;;;;;;1.0440382;0.7118137;-0.03564562;;;;;1120.1
1320.0;1185.0;;;;;;;;;;;;;;;;;-35.93173;-41.505173;66.3091;;1120.1
1320.0;1185.0;;;;;;;;;;;;;;1.01059;0.7150487;0.03625599;;;;;1120.1
1320.0;1188.2;;;;-0.32726672;1.0134584;-0.31463626;;;;;;;;;;;;;;;
1320.0;1188.2;;;;-0.3254967;1.0096437;-0.3177834;;;;;;;;;;;;;;;
1320.0;1188.2;;;;-0.32462695;1.0001642;-0.31551364;;;;;;;;;;;;;;;
1320.0;1188.2;;;;-0.328064;0.9908525;-0.3069344;;;;;;;;;;;;;;;
1320.0;1188.2;;;;-0.33456042;0.98391736;-0.29936603;;;;;;;;;;;;;;;
1320.0;1198.2;;;;-0.33615115;0.977131;-0.2942467;;;;;;;;;;;;;;;
1320.0;1198.2;;;;-0.33932498;0.9724885;-0.2890778;;;;;;;;;;;;;;;
1320.0;1198.2;;;;-0.34725574;0.9680139;-0.2835236;;;;;;;;;;;;;;;
1320.0;1198.2;;;;-0.3733597;0.99432003;-0.28886798;;;;;;;;;;;;;;;
1320.0;1198.2;;;;-0.4288445;1.001217;-0.32249835;;;;;;;;;;;;;;;
1320.0;1202.7;106601;106609;14007;;;;;;;;;;;;;;;;;;
1322.0;1208.1;;;;-0.37879187;0.981331;-0.26949695;;;;;;;;;;;;;;;
1322.0;1208.1;;;;-0.35088733;0.9781076;-0.2360802;;;;;;;;;;;;;;;
1322.0;1208.1;;;;-0.36550906;0.9887544;-0.24897006;;;;;;;;;;;;;;;
1322.0;1208.1;;;;-0.3748398;1.0037538;-0.2483559;;;;;;;;;;;;;;;
1322.0;1208.1;;;;-0.3743973;1.0111772;-0.23733142;;;;;;;;;;;;;;;
1322.0;1208.8;;;;;;;;;;;;;-7;;;;;;;;
1322.0;1208.8;;;;;;;;;;;;;-6;;;;;;;;
1322.0;1208.8;;;;;;;;;;;;;-8;;;;;;;;
1322.0;1208.8;;;;;;;;;;;;;-18;;;;;;;;
1322.0;1208.8;;;;;;;;;;;;;-10;;;;;;;;
1322.0;1218.1;;;;-0.38492972;1.0150529;-0.23379138;;;;;;;;;;;;;;;
1322.0;1218.1;;;;-0.39116675;1.031994;-0.22161868;;;;;;;;;;;;;;;
1322.0;1218.1;;;;-0.39183432;1.0395585;-0.2173653;;;;;;;;;;;;;;;
1322.0;1218.1;;;;-0.37878805;1.0442811;-0.21829227;;;;;;;;;;;;;;;
1322.0;1218.1;;;;-0.36933902;1.0503465;-0.20992282;;;;;;;;;;;;;;;
1322.0;1222.7;122987;123017;14016;;;;;;;;;;;;;;;;;;
1322.0;1228.3;;;;-0.37331775;1.0564882;-0.20297626;;;;;;;;;;;;;;;
1322.0;1228.3;;;;-0.35284427;1.0591089;-0.20164874;;;;;;;;;;;;;;;
1322.0;1228.3;;;;-0.3242264;1.0594598;-0.19745639;;;;;;;;;;;;;;;
1322.0;1228.3;;;;-0.30840686;1.0548478;-0.19726947;;;;;;;;;;;;;;;
1322.0;1228.3;;;;-0.2711754;1.044262;-0.22568515;;;;;;;;;;;;;;;
1323.0;1238.4;;;;-0.24329379;1.0342637;-0.23558429;;;;;;;;;;;;;;;
1323.0;1238.4;;;;-0.22684482;1.0264283;-0.24471667;;;;;;;;;;;;;;;
1323.0;1238.4;;;;-0.18631364;0.99559414;-0.24652866;;;;;;;;;;;;;;;
1323.0;1238.4;;;;-0.20391849;0.97607815;-0.23262408;;;;;;;;;;;;;;;
1323.0;1238.4;;;;-0.21028522;0.95601285;-0.22191241;;;;;;;;;;;;;;;
1323.0;1243.0;139368;139372;14011;;;;;;;;;;;;;;;;;;
1323.0;1244.1;;;;;;;;;;;;;;;;;-34.382915;-40.65447;67.07969;;1129.8
1323.0;1244.1;;;;;;;;;;;;;;0.9877621;0.70314646;0.085024565;;;;;1129.8
1323.0;1244.1;;;;;;;;;;;;;;;;;-34.691914;-37.186806;66.78595;;1129.8
1323.0;1244.1;;;;;;;;;;;;;;0.99020356;0.6863002;0.12775049;;;;;1129.8
1323.0;1244.1;;;;;;;;;;;;;;;;;-36.751915;-33.87173;65.27909;;1139.4
1323.0;1244.1;;;;;;;;;;;;;;1.01059;0.6745201;0.1309244;;;;;1139.4
1323.0;1244.1;;;;;;;;;;;;;;;;;-40.601063;-30.526138;62.917725;;1139.4
1323.0;1244.1;;;;;;;;;;;;;;1.0448316;0.6524247;0.10742515;;;;;1139.4
1323.0;1244.1;;;;;;;;;;;;;;;;;-45.762505;-25.849178;60.23972;;1148.9
1323.0;1244.1;;;;;;;;;;;;;;1.0702231;0.6126896;0.07507554;;;;;1148.9
1323.0;1244.1;;;;;;;;;;;;;;;;;-51.461838;-20.012512;56.882687;;1148.9
1323.0;1244.1;;;;;;;;;;;;;;1.0861537;0.56428725;0.03729362;;;;;1148.9
1324.0;1244.8;;;;;;;;;;;;;;;;;-56.15024;-14.034699;52.499466;;1158.6
1324.0;1244.8;;;;;;;;;;;;;;1.1015961;0.5290689;-0.017456587;;;;;1158.6
1324.0;1244.8;;;;;;;;;;;;;;;;;-60.23972;-6.4813685;47.467728;;1158.6
1324.0;1244.8;;;;;;;;;;;;;;1.0995208;0.499588;-0.050477616;;;;;1158.6
1324.0;1244.8;;;;;;;;;;;;;;;;;-63.013092;0.59892577;41.642506;;1168.3
1324.0;1244.8;;;;;;;;;;;;;;1.098178;0.47682118;-0.055177465;;;;;1168.3
1324.0;1244.8;;;;;;;;;;;;;;;;;-65.35158;6.65685;35.157322;;1168.3
1324.0;1244.8;;;;;;;;;;;;;;1.116123;0.45020905;-0.051271096;;;;;1168.3
1324.0;1244.8;;;;;;;;;;;;;;;;;-67.71676;11.05533;26.718956;;1177.9
1324.0;1244.8;;;;;;;;;;;;;;1.1456038;0.4159673;-0.06280709;;;;;1177.9
1324.0;1244.8;;;;;;;;;;;;;;;;;-70.25742;13.882107;16.598255;;1177.9
1324.0;1244.8;;;;;;;;;;;;;;1.1982788;0.3971679;-0.07702872;;;;;1177.9
1324.0;1248.3;;;;-0.15568925;0.93730175;-0.22207645;;;;;;;;;;;;;;;
1324.0;1248.3;;;;-0.117992416;0.9124528;-0.20587543;;;;;;;;;;;;;;;
1324.0;1248.3;;;;-0.09380342;0.88855755;-0.19639972;;;;;;;;;;;;;;;
1324.0;1248.3;;;;-0.09074784;0.87007535;-0.18453218;;;;;;;;;;;;;;;
1324.0;1248.3;;;;-0.08226014;0.85486233;-0.16559602;;;;;;;;;;;;;;;
1324.0;1249.0;;;;;;;;;;;;;-31;;;;;;;;
1324.0;1249.0;;;;;;;;;;;;;-21;;;;;;;;
1324.0;1249.0;;;;;;;;;;;;;-6;;;;;;;;
1324.0;1249.0;;;;;;;;;;;;;-113;;;;;;;;
1324.0;1249.0;;;;;;;;;;;;;52;;;;;;;;
1381.0;1258.2;;;;-0.053905495;0.8373529;-0.14827348;;;;;;;;;;;;;;;
1381.0;1258.2;;;;-0.024005894;0.8185731;-0.14019395;;;;;;;;;;;;;;;
1381.0;1258.2;;;;-0.018264772;0.8057023;-0.13064195;;;;;;;;;;;;;;;
1381.0;1258.2;;;;-0.012722017;0.7941476;-0.12369539;;;;;;;;;;;;;;;
1381.0;1258.2;;;;-0.0031852727;0.7865182;-0.11054613;;;;;;;;;;;;;;;
1381.0;1262.9;155791;155729;14007;;;;;;;;;;;;;;;;;;
1381.0;1268.2;;;;0.006778718;0.7836381;-0.09930803;;;;;;;;;;;;;;;
1381.0;1268.2;;;;0.013042452;0.7845918;-0.092189796;;;;;;;;;;;;;;;
1381.0;1268.2;;;;0.018665316;0.7870141;-0.09703447;;;;;;;;;;;;;;;
1381.0;1268.2;;;;0.025383;0.79386914;-0.100685135;;;;;;;;;;;;;;;
1381.0;1268.2;;;;0.034538273;0.80098736;-0.104850784;;;;;;;;;;;;;;;
1381.0;1278.0;;;;0.03889847;0.80884945;-0.105850235;;;;;;;;;;;;;;;
1381.0;1278.0;;;;0.040580753;0.8202325;-0.09299088;;;;;;;;;;;;;;;
1381.0;1278.0;;;;0.03782654;0.83293927;-0.08600617;;;;;;;;;;;;;;;
1381.0;1278.0;;;;0.03992844;0.8444711;-0.089637764;;;;;;;;;;;;;;;
1381.0;1278.0;;;;0.03941727;0.8509866;-0.10558702;;;;;;;;;;;;;;;
1381.0;1282.8;172155;172124;14003;;;;;;;;;;;;;;;;;;
1385.0;1288.1;;;;0.04006577;0.8559381;-0.11589052;;;;;;;;;;;;;;;
1385.0;1288.1;;;;0.0401001;0.8631669;-0.111755386;;;;;;;;;;;;;;;
1385.0;1288.1;;;;0.037155155;0.8703958;-0.10726549;;;;;;;;;;;;;;;
1385.0;1288.1;;;;0.0371666;0.8783151;-0.10324861;;;;;;;;;;;;;;;
1385.0;1288.1;;;;0.038825992;0.88632214;-0.10001756;;;;;;;;;;;;;;;
1385.0;1288.9;;;;;;;;;;;;;272;;;;;;;;
1385.0;1288.9;;;;;;;;;;;;;-253;;;;;;;;
1385.0;1288.9;;;;;;;;;;;;;-702;;;;;;;;
1385.0;1288.9;;;;;;;;;;;;;638;;;;;;;;
1385.0;1288.9;;;;;;;;;;;;;3518;;;;;;;;
1385.0;1298.2;;;;0.037544254;0.8936578;-0.10097505;;;;;;;;;;;;;;;
1385.0;1298.2;;;;0.039154056;0.90150845;-0.102001205;;;;;;;;;;;;;;;
1385.0;1298.2;;;;0.034709934;0.90568554;-0.10521318;;;;;;;;;;;;;;;
1385.0;1298.2;;;;0.03414536;0.908497;-0.10418703;;;;;;;;;;;;;;;
1385.0;1298.2;;;;0.029953007;0.9121896;-0.10325624;;;;;;;;;;;;;;;
1385.0;1303.0;188582;188532;14008;;;;;;;;;;;;;;;;;;
1385.0;1308.2;;;;0.027172092;0.9147073;-0.10230638;;;;;;;;;;;;;;;
1385.0;1308.2;;;;0.025897983;0.9173547;-0.100288406;;;;;;;;;;;;;;;
1385.0;1308.2;;;;0.020610811;0.92014325;-0.10227586;;;;;;;;;;;;;;;
1385.0;1308.2;;;;0.015277864;0.9214593;-0.1095276;;;;;;;;;;;;;;;
1385.0;1308.2;;;;0.010681153;0.92297757;-0.111690536;;;;;;;;;;;;;;;
1387.0;1312.0;;;;;;;;;;;;;;;;;-73.1338;16.20533;5.203406;;1187.5
1387.0;1312.0;;;;;;;;;;;;;;1.2644429;0.3815424;-0.09271523;;;;;1187.5
1387.0;1312.0;;;;;;;;;;;;;;;;;-75.43794;20.226141;-6.7903686;;1187.5
1387.0;1312.0;;;;;;;;;;;;;;1.3279214;0.38227484;-0.11957152;;;;;1187.5
1387.0;1312.0;;;;;;;;;;;;;;;;;-76.24287;27.474287;-18.395031;;1197.2
1387.0;1312.0;;;;;;;;;;;;;;1.3741875;0.3853267;-0.16718039;;;;;1197.2
1387.0;1312.0;;;;;;;;;;;;;;;;;-73.91583;39.56343;-31.178473;;1197.2
1387.0;1312.0;;;;;;;;;;;;;;1.3807794;0.39204076;-0.19959106;;;;;1197.2
1387.0;1312.0;;;;;;;;;;;;;;;;;-68.2432;57.44728;-44.34339;;1206.7
1387.0;1312.0;;;;;;;;;;;;;;1.3085116;0.3715934;-0.17059846;;;;;1206.7
1387.0;1312.0;;;;;;;;;;;;;;;;;-61.128574;78.55464;-58.099613;;1206.7
1387.0;1312.0;;;;;;;;;;;;;;1.1782587;0.3810541;-0.07324442;;;;;1206.7
1387.0;1313.2;;;;;;;;;;;;;;;;;-56.642353;95.171974;-71.72231;;1216.2
1387.0;1313.2;;;;;;;;;;;;;;1.0854824;0.4135258;0.02990814;;;;;1216.2
1387.0;1313.2;;;;;;;;;;;;;;;;;-55.15076;101.88604;-85.22294;;1216.2
1387.0;1313.2;;;;;;;;;;;;;;1.0770593;0.43073824;0.09723197;;;;;1216.2
1387.0;1313.2;;;;;;;;;;;;;;;;;-57.500687;98.20475;-100.3563;;1225.9
1387.0;1313.2;;;;;;;;;;;;;;1.1446882;0.4537492;0.08594012;;;;;1225.9
1387.0;1313.2;;;;;;;;;;;;;;;;;-62.13187;88.91186;-115.478226;;1225.9
1387.0;1313.2;;;;;;;;;;;;;;1.2519914;0.4829249;-0.030457472;;;;;1225.9
1387.0;1313.2;;;;;;;;;;;;;;;;;-67.075874;83.05231;-124.275185;;1235.5
1387.0;1313.2;;;;;;;;;;;;;;1.3646656;0.52522355;-0.19775994;;;;;1235.5
1387.0;1313.2;;;;;;;;;;;;;;;;;-70.44435;84.58205;-124.988556;;1235.5
1387.0;1313.2;;;;;;;;;;;;;;1.4524369;0.56776637;-0.32587665;;;;;1235.5
1436.0;1318.2;;;;0.0063552866;0.924286;-0.11444856;;;;;;;;;;;;;;;
1436.0;1318.2;;;;0.0017852786;0.92562497;-0.11977388;;;;;;;;;;;;;;;
1436.0;1318.2;;;;-0.0047264104;0.9271966;-0.12575532;;;;;;;;;;;;;;;
1436.0;1318.2;;;;-0.009490968;0.928444;-0.13117601;;;;;;;;;;;;;;;
1436.0;1318.2;;;;-0.017871859;0.9310914;-0.13468553;;;;;;;;;;;;;;;
1436.0;1323.1;204917;204916;14005;;;;;;;;;;;;;;;;;;
1436.0;1328.2;;;;-0.02505112;0.93488705;-0.13596345;;;;;;;;;;;;;;;
1436.0;1328.2;;;;-0.034278873;0.93981946;-0.13611986;;;;;;;;;;;;;;;
1436.0;1328.2;;;;-0.043903355;0.94549954;-0.13731004;;;;;;;;;;;;;;;
1436.0;1328.2;;;;-0.050022133;0.95183957;-0.13932039;;;;;;;;;;;;;;;
1436.0;1328.2;;;;-0.059963234;0.9593469;-0.14222719;;;;;;;;;;;;;;;
1436.0;1329.0;;;;;;;;;;;;;5446;;;;;;;;
1436.0;1329.0;;;;;;;;;;;;;4781;;;;;;;;
1436.0;1329.0;;;;;;;;;;;;;2768;;;;;;;;
1436.0;1329.0;;;;;;;;;;;;;1769;;;;;;;;
1436.0;1329.0;;;;;;;;;;;;;2184;;;;;;;;
1436.0;1338.0;;;;-0.06925965;0.96774685;-0.14614488;;;;;;;;;;;;;;;
1436.0;1338.0;;;;-0.083271034;0.9758378;-0.1498604;;;;;;;;;;;;;;;
1436.0;1338.0;;;;-0.094310775;0.9841615;-0.15419771;;;;;;;;;;;;;;;
1436.0;1338.0;;;;-0.08975602;0.9915086;-0.1585045;;;;;;;;;;;;;;;
1436.0;1338.0;;;;-0.10141756;0.9991838;-0.1612549;;;;;;;;;;;;;;;
1436.0;1342.9;221357;221327;14003;;;;;;;;;;;;;;;;;;
1438.0;1348.1;;;;-0.110065475;1.0073434;-0.1646042;;;;;;;;;;;;;;;
1438.0;1348.1;;;;-0.11954118;1.0160066;-0.16806032;;;;;;;;;;;;;;;
1438.0;1348.1;;;;-0.12790681;1.0232164;-0.17232133;;;;;;;;;;;;;;;
1438.0;1348.1;;;;-0.13356782;1.0312577;-0.17395402;;;;;;;;;;;;;;;
1438.0;1348.1;;;;-0.1455803;1.0387346;-0.17356493;;;;;;;;;;;;;;;
1438.0;1358.2;;;;-0.15861894;1.0469438;-0.17047502;;;;;;;;;;;;;;;
1438.0;1358.2;;;;-0.17087175;1.0556642;-0.1674576;;;;;;;;;;;;;;;
1438.0;1358.2;;;;-0.17980196;1.063244;-0.16443254;;;;;;;;;;;;;;;
1438.0;1358.2;;;;-0.18957523;1.0702134;-0.16036226;;;;;;;;;;;;;;;
1438.0;1358.2;;;;-0.19802096;1.0764505;-0.15711595;;;;;;;;;;;;;;;
1438.0;1363.2;237659;237635;14000;;;;;;;;;;;;;;;;;;
1438.0;1364.1;;;;;;;;;;;;;;;;;-66.75924;88.15272;-124.988556;;1245.2
1438.0;1364.1;;;;;;;;;;;;;;1.5507065;0.58986175;-0.39704582;;;;;1245.2
1438.0;1364.1;;;;;;;;;;;;;;;;;-56.890316;96.0036;-124.988556;;1245.2
1438.0;1364.1;;;;;;;;;;;;;;1.6425061;0.57618946;-0.40681174;;;;;1245.2
1438.0;1364.1;;;;;;;;;;;;;;;;;-44.740135;109.13038;-124.988556;;1254.8
1438.0;1364.1;;;;;;;;;;;;;;1.6506852;0.5546434;-0.3761101;;;;;1254.8
1438.0;1364.1;;;;;;;;;;;;;;;;;-35.596027;118.91156;-124.988556;;1254.8
1438.0;1364.1;;;;;;;;;;;;;;1.6147343;0.5076449;-0.3137913;;;;;1254.8
1438.0;1364.1;;;;;;;;;;;;;;;;;-30.556658;119.86144;-124.988556;;1264.4
1438.0;1364.1;;;;;;;;;;;;;;1.6298105;0.49122593;-0.29187903;;;;;1264.4
1438.0;1364.1;;;;;;;;;;;;;;;;;-27.03177;117.36656;-124.988556;;1264.4
1438.0;1364.1;;;;;;;;;;;;;;1.6791894;0.47267067;-0.3053682;;;;;1264.4
1444.0;1364.9;;;;;;;;;;;;;;;;;-23.834957;116.8363;-124.988556;;1274.1
1444.0;1364.9;;;;;;;;;;;;;;1.7152013;0.45496994;-0.29767755;;;;;1274.1
1444.0;1364.9;;;;;;;;;;;;;;;;;-21.652884;115.3943;-124.988556;;1274.1
1444.0;1364.9;;;;;;;;;;;;;;1.7220985;0.39301735;-0.3178808;;;;;1274.1
1444.0;1364.9;;;;;;;;;;;;;;;;;-18.341625;112.50267;-124.988556;;1283.6
1444.0;1364.9;;;;;;;;;;;;;;1.7001861;0.33234656;-0.36371958;;;;;1283.6
1444.0;1364.9;;;;;;;;;;;;;;;;;-15.251625;109.12275;-124.988556;;1283.6
1444.0;1364.9;;;;;;;;;;;;;;1.6808984;0.27112645;-0.4288461;;;;;1283.6
1444.0;1364.9;;;;;;;;;;;;;;;;;-12.146367;108.619194;-124.988556;;1293.3
1444.0;1364.9;;;;;;;;;;;;;;1.642201;0.19788201;-0.47773674;;;;;1293.3
1444.0;1364.9;;;;;;;;;;;;;;;;;-10.284738;111.50319;-124.988556;;1293.3
1444.0;1364.9;;;;;;;;;;;;;;1.5961791;0.12457655;-0.50215155;;;;;1293.3
1444.0;1368.1;;;;-0.20713428;1.0826455;-0.15229799;;;;;;;;;;;;;;;
1444.0;1368.1;;;;-0.21919253;1.0887338;-0.14620592;;;;;;;;;;;;;;;
1444.0;1368.1;;;;-0.22872165;1.0936357;-0.14068605;;;;;;;;;;;;;;;
1444.0;1368.1;;;;-0.23746112;1.0982248;-0.13500597;;;;;;;;;;;;;;;
1444.0;1368.1;;;;-0.24291995;1.1028215;-0.13076402;;;;;;;;;;;;;;;
1444.0;1369.1;;;;;;;;;;;;;2365;;;;;;;;
1444.0;1369.1;;;;;;;;;;;;;1899;;;;;;;;
1444.0;1369.1;;;;;;;;;;;;;1793;;;;;;;;
1444.0;1369.1;;;;;;;;;;;;;2183;;;;;;;;
1444.0;1369.1;;;;;;;;;;;;;2432;;;;;;;;
1498.0;1378.1;;;;-0.2476311;1.1067888;-0.12701799;;;;;;;;;;;;;;;
1498.0;1378.1;;;;-0.25405124;1.1108896;-0.12093736;;;;;;;;;;;;;;;
1498.0;1378.1;;;;-0.2591019;1.1141587;-0.113086715;;;;;;;;;;;;;;;
1498.0;1378.1;;;;-0.26361087;1.1188394;-0.10425188;;;;;;;;;;;;;;;
1498.0;1378.1;;;;-0.26762393;1.1234514;-0.09497835;;;;;;;;;;;;;;;
1498.0;1379.0;;;;;;;;;;;;;;;;;-8.777886;115.26841;-124.988556;;1303.0
1498.0;1379.0;;;;;;;;;;;;;;1.5717032;0.10144353;-0.5204016;;;;;1303.0
1498.0;1379.0;;;;;;;;;;;;;;;;;-6.717887;117.64123;-124.988556;;1303.0
1498.0;1379.0;;;;;;;;;;;;;;1.53679;0.10168768;-0.5467696;;;;;1303.0
1498.0;1379.0;;;;;;;;;;;;;;;;;-3.1167028;116.649376;-124.988556;;1312.6
1498.0;1379.0;;;;;;;;;;;;;;1.4704428;0.09601123;-0.5620289;;;;;1312.6
1498.0;1379.0;;;;;;;;;;;;;;;;;2.6245918;110.00015;-124.988556;;1312.6
1498.0;1379.0;;;;;;;;;;;;;;1.4266182;0.10388501;-0.53151035;;;;;1312.6
1498.0;1379.0;;;;;;;;;;;;;;;;;9.479813;98.01782;-124.988556;;1322.1
1498.0;1379.0;;;;;;;;;;;;;;1.4166082;0.10364086;-0.5040437;;;;;1322.1
1498.0;1379.0;;;;;;;;;;;;;;;;;14.946441;86.874756;-124.988556;;1322.1
1498.0;1379.0;;;;;;;;;;;;;;1.4045839;0.113101594;-0.48103276;;;;;1322.1
1498.0;1382.9;254105;254197;13999;;;;;;;;;;;;;;;;;;
1498.0;1388.0;;;;-0.26942447;1.1274911;-0.08687592;;;;;;;;;;;;;;;
1498.0;1388.0;;;;-0.2724152;1.1314164;-0.076328285;;;;;;;;;;;;;;;
1498.0;1388.0;;;;-0.27902988;1.135708;-0.062004097;;;;;;;;;;;;;;;
1498.0;1388.0;;;;-0.28792575;1.1410524;-0.04611588;;;;;;;;;;;;;;;
1498.0;1388.0;;;;-0.2925301;1.1473352;-0.03368378;;;;;;;;;;;;;;;
1503.0;1397.9;;;;-0.29410174;1.1529275;-0.024826054;;;;;;;;;;;;;;;
1503.0;1397.9;;;;-0.29532626;1.1577874;-0.020111086;;;;;;;;;;;;;;;
1503.0;1397.9;;;;-0.29715732;1.1599694;-0.016651155;;;;;;;;;;;;;;;
1503.0;1397.9;;;;-0.30271152;1.1600229;-0.008197785;;;;;;;;;;;;;;;
1503.0;1397.9;;;;-0.3108025;1.1506158;-0.0013351442;;;;;;;;;;;;;;;
1503.0;1403.0;262143;262143;13998;;;;;;;;;;;;;;;;;;
1503.0;1408.0;;;;-0.31639102;1.1461107;0.003723145;;;;;;;;;;;;;;;
1503.0;1408.0;;;;-0.31763843;1.1670152;0.015319826;;;;;;;;;;;;;;;
1503.0;1408.0;;;;-0.32284167;1.1757203;0.02889252;;;;;;;;;;;;;;;
1503.0;1408.0;;;;-0.32592776;1.1824495;0.034809116;;;;;;;;;;;;;;;
1503.0;1408.0;;;;-0.33082202;1.1851426;0.037250523;;;;;;;;;;;;;;;
1503.0;1409.1;;;;;;;;;;;;;2150;;;;;;;;
1503.0;1409.1;;;;;;;;;;;;;1512;;;;;;;;
1503.0;1409.1;;;;;;;;;;;;;989;;;;;;;;
1503.0;1409.1;;;;;;;;;;;;;755;;;;;;;;
1503.0;1409.1;;;;;;;;;;;;;555;;;;;;;;
1503.0;1418.1;;;;-0.3344994;1.1825105;0.04067612;;;;;;;;;;;;;;;
1503.0;1418.1;;;;-0.33954623;1.181286;0.04479218;;;;;;;;;;;;;;;
1503.0;1418.1;;;;-0.3442879;1.1762315;0.047748573;;;;;;;;;;;;;;;
1503.0;1418.1;;;;-0.34919742;1.170662;0.05163575;;;;;;;;;;;;;;;
1503.0;1418.1;;;;-0.35297397;1.1686631;0.053897865;;;;;;;;;;;;;;;
1503.0;1423.2;262143;262143;13999;;;;;;;;;;;;;;;;;;
1504.0;1428.2;;;;-0.3539925;1.1663553;0.052371986;;;;;;;;;;;;;;;
1504.0;1428.2;;;;-0.35545734;1.1689225;0.05121232;;;;;;;;;;;;;;;
1504.0;1428.2;;;;-0.35886005;1.1693879;0.054256447;;;;;;;;;;;;;;;
1504.0;1428.2;;;;-0.3612366;1.1666642;0.056900032;;;;;;;;;;;;;;;
1504.0;1428.2;;;;-0.36374667;1.1692506;0.060546882;;;;;;;;;;;;;;;
1504.0;1438.3;;;;-0.36472324;1.1638986;0.063400276;;;;;;;;;;;;;;;
1504.0;1438.3;;;;-0.36869434;1.1623574;0.06621171;;;;;;;;;;;;;;;
1504.0;1438.3;;;;-0.3699341;1.1638948;0.07085038;;;;;;;;;;;;;;;
1504.0;1438.3;;;;-0.3725815;1.1632158;0.076091774;;;;;;;;;;;;;;;
1504.0;1438.3;;;;-0.37925726;1.1504823;0.07968903;;;;;;;;;;;;;;;
1504.0;1439.3;;;;;;;;;;;;;;;;;16.747032;78.84838;-124.988556;;1331.8
1504.0;1439.3;;;;;;;;;;;;;;1.3851131;0.07470931;-0.45857114;;;;;1331.8
1504.0;1439.3;;;;;;;;;;;;;;;;;16.331219;74.514755;-124.988556;;1331.8
1504.0;1439.3;;;;;;;;;;;;;;1.2947782;0.05816828;-0.420423;;;;;1331.8
1504.0;1439.3;;;;;;;;;;;;;;;;;10.994293;67.97234;-124.988556;;1341.5
1504.0;1439.3;;;;;;;;;;;;;;1.213355;0.13306071;-0.36939603;;;;;1341.5
1504.0;1439.3;;;;;;;;;;;;;;;;;2.8801844;56.46306;-124.988556;;1341.5
1504.0;1439.3;;;;;;;;;;;;;;1.1504258;0.30097353;-0.31824702;;;;;1341.5
1504.0;1439.3;;;;;;;;;;;;;;;;;-8.159886;40.91769;-124.988556;;1351.1
1504.0;1439.3;;;;;;;;;;;;;;1.11301;0.3238014;-0.35340434;;;;;1351.1
1504.0;1439.3;;;;;;;;;;;;;;;;;-20.229956;28.55388;-124.988556;;1351.1
1504.0;1439.3;;;;;;;;;;;;;;1.1172216;0.41975158;-0.43488875;;;;;1351.1
1555.0;1440.1;;;;;;;;;;;;;;;;;-34.245583;22.034365;-124.988556;;1360.8
1555.0;1440.1;;;;;;;;;;;;;;1.1252785;0.48371837;-0.51911986;;;;;1360.8
1555.0;1440.1;;;;;;;;;;;;;;;;;-49.66506;19.489883;-124.988556;;1360.8
1555.0;1440.1;;;;;;;;;;;;;;1.1395001;0.5889462;-0.54371774;;;;;1360.8
1555.0;1440.1;;;;;;;;;;;;;;;;;-65.24476;19.909512;-124.988556;;1370.5
1555.0;1440.1;;;;;;;;;;;;;;1.1487167;0.666158;-0.5643483;;;;;1370.5
1555.0;1440.1;;;;;;;;;;;;;;;;;-78.64238;25.48677;-124.988556;;1370.5
1555.0;1440.1;;;;;;;;;;;;;;1.1183813;0.7446516;-0.47035128;;;;;1370.5
1555.0;1440.1;;;;;;;;;;;;;;;;;-91.92175;28.86288;-124.988556;;1380.2
1555.0;1440.1;;;;;;;;;;;;;;1.0894498;0.8318125;-0.37434003;;;;;1380.2
1555.0;1440.1;;;;;;;;;;;;;;;;;-102.30949;29.133732;-124.988556;;1380.2
1555.0;1440.1;;;;;;;;;;;;;;1.0705893;0.89919734;-0.29914242;;;;;1380.2
1555.0;1443.2;262143;262143;13999;;;;;;;;;;;;;;;;;;
1555.0;1448.0;;;;-0.38537985;1.1452485;0.08238984;;;;;;;;;;;;;;;
1555.0;1448.0;;;;-0.3854409;1.1637155;0.08334733;;;;;;;;;;;;;;;
1555.0;1448.0;;;;-0.388897;1.1752511;0.088039406;;;;;;;;;;;;;;;
1555.0;1448.0;;;;-0.39417273;1.1806794;0.092960365;;;;;;;;;;;;;;;
1555.0;1448.0;;;;-0.3990174;1.1821138;0.098938;;;;;;;;;;;;;;;
1555.0;1449.0;;;;;;;;;;;;;213;;;;;;;;
1555.0;1449.0;;;;;;;;;;;;;-279;;;;;;;;
1555.0;1449.0;;;;;;;;;;;;;-981;;;;;;;;
1555.0;1449.0;;;;;;;;;;;;;-1742;;;;;;;;
1555.0;1449.0;;;;;;;;;;;;;-2255;;;;;;;;
1557.0;1457.9;;;;-0.4051209;1.1822664;0.10540773;;;;;;;;;;;;;;;
1557.0;1457.9;;;;-0.41009146;1.181286;0.11279298;;;;;;;;;;;;;;;
1557.0;1457.9;;;;-0.41453177;1.1795884;0.12253572;;;;;;;;;;;;;;;
1557.0;1457.9;;;;-0.42003256;1.1802636;0.13187028;;;;;;;;;;;;;;;
1557.0;1457.9;;;;-0.4302674;1.1831437;0.141346;;;;;;;;;;;;;;;
1557.0;1463.1;262143;262143;14017;;;;;;;;;;;;;;;;;;
1557.0;1468.0;;;;-0.44047934;1.1866456;0.1524315;;;;;;;;;;;;;;;
1557.0;1468.0;;;;-0.44940192;1.1903726;0.16387178;;;;;;;;;;;;;;;
1557.0;1468.0;;;;-0.45870596;1.1954614;0.1759186;;;;;;;;;;;;;;;
1557.0;1468.0;;;;-0.47040182;1.2036859;0.18810275;;;;;;;;;;;;;;;
1557.0;1468.0;;;;-0.48083884;1.2111474;0.19894412;;;;;;;;;;;;;;;
1557.0;1478.1;;;;-0.48965842;1.2185212;0.21017459;;;;;;;;;;;;;;;
1557.0;1478.1;;;;-0.5007363;1.2245485;0.22025684;;;;;;;;;;;;;;;
1557.0;1478.1;;;;-0.5120087;1.2300721;0.22929004;;;;;;;;;;;;;;;
1557.0;1478.1;;;;-0.5232926;1.2350808;0.2374802;;;;;;;;;;;;;;;
1557.0;1478.1;;;;-0.536789;1.2394677;0.245945;;;;;;;;;;;;;;;
1557.0;1483.4;262143;262143;14015;;;;;;;;;;;;;;;;;;
1558.0;1484.4;;;;;;;;;;;;;;;;;-108.78705;31.498917;-124.988556;;1389.8
1558.0;1484.4;;;;;;;;;;;;;;1.0549028;0.96279794;-0.20349742;;;;;1389.8
1558.0;1484.4;;;;;;;;;;;;;;;;;-109.25245;34.661396;-124.988556;;1389.8
1558.0;1484.4;;;;;;;;;;;;;;1.0361034;0.98910487;-0.09387494;;;;;1389.8
1558.0;1484.4;;;;;;;;;;;;;;;;;-101.49693;39.227726;-124.988556;;1399.4
1558.0;1484.4;;;;;;;;;;;;;;1.015656;0.9672536;0.06903287;;;;;1399.4
1558.0;1484.4;;;;;;;;;;;;;;;;;-95.572525;39.845726;-124.988556;;1399.4
1558.0;1484.4;;;;;;;;;;;;;;1.0019838;0.939848;0.17639698;;;;;1399.4
1558.0;1484.4;;;;;;;;;;;;;;;;;-99.92904;36.950287;-124.988556;;1409.1
1558.0;1484.4;;;;;;;;;;;;;;1.0110782;0.8097171;0.12121952;;;;;1409.1
1558.0;1484.4;;;;;;;;;;;;;;;;;-104.94934;38.968323;-124.988556;;1409.1
1558.0;1484.4;;;;;;;;;;;;;;1.0166936;0.6696982;0.05285806;;;;;1409.1
1558.0;1488.1;;;;-0.5478745;1.2428628;0.25464633;;;;;;;;;;;;;;;
1558.0;1488.1;;;;-0.55925375;1.2466241;0.2631226;;;;;;;;;;;;;;;
1558.0;1488.1;;;;-0.57226187;1.2482797;0.27272418;;;;;;;;;;;;;;;
1558.0;1488.1;;;;-0.5549622;1.2395288;0.28073886;;;;;;;;;;;;;;;
1558.0;1488.1;;;;-0.60101706;1.2489892;0.29456332;;;;;;;;;;;;;;;
1558.0;1489.4;;;;;;;;;;;;;-2354;;;;;;;;
1558.0;1489.4;;;;;;;;;;;;;-2105;;;;;;;;
1558.0;1489.4;;;;;;;;;;;;;-1775;;;;;;;;
1558.0;1489.4;;;;;;;;;;;;;-1455;;;;;;;;
1558.0;1489.4;;;;;;;;;;;;;-1174;;;;;;;;
1618.0;1491.8;;;;;;;;;;;;;;;;;-110.99582;42.584766;-124.988556;;1418.7
1618.0;1491.8;;;;;;;;;;;;;;1.0118717;0.5294351;-0.01782281;;;;;1418.7
1618.0;1491.8;;;;;;;;;;;;;;;;;-117.687004;45.533615;-124.988556;;1418.7
1618.0;1491.8;;;;;;;;;;;;;;0.999176;0.4263436;-0.08459731;;;;;1418.7
1618.0;1491.8;;;;;;;;;;;;;;;;;-122.93619;48.780025;-124.988556;;1428.4
1618.0;1491.8;;;;;;;;;;;;;;0.9533982;0.35145116;-0.10303049;;;;;1428.4
1618.0;1491.8;;;;;;;;;;;;;;;;;-124.80926;48.7228;-124.988556;;1428.4
1618.0;1491.8;;;;;;;;;;;;;;0.89748836;0.30243844;-0.09973449;;;;;1428.4
1618.0;1491.8;;;;;;;;;;;;;;;;;-124.988556;42.43599;-124.95041;;1438.1
1618.0;1491.8;;;;;;;;;;;;;;0.8811304;0.2590411;-0.10235908;;;;;1438.1
1618.0;1491.8;;;;;;;;;;;;;;;;;-124.988556;33.3224;-122.82174;;1438.1
1618.0;1491.8;;;;;;;;;;;;;;0.8667257;0.2202826;-0.10876797;;;;;1438.1
1618.0;1498.1;;;;-0.6396523;1.2594911;0.3004494;;;;;;;;;;;;;;;
1618.0;1498.1;;;;-0.64666754;1.2606622;0.30653766;;;;;;;;;;;;;;;
1618.0;1498.1;;;;-0.6609803;1.2640611;0.31366733;;;;;;;;;;;;;;;
1618.0;1498.1;;;;-0.67137915;1.2653733;0.3177338;;;;;;;;;;;;;;;
1618.0;1498.1;;;;-0.68160635;1.2658349;0.32329562;;;;;;;;;;;;;;;
1618.0;1503.3;262143;262143;14026;;;;;;;;;;;;;;;;;;
1618.0;1508.1;;;;-0.6916924;1.2626954;0.32765582;;;;;;;;;;;;;;;
1618.0;1508.1;;;;-0.69974905;1.258587;0.3333359;;;;;;;;;;;;;;;
1618.0;1508.1;;;;-0.7189103;1.2558213;0.3372307;;;;;;;;;;;;;;;
1618.0;1508.1;;;;-0.73291403;1.2525483;0.3416138;;;;;;;;;;;;;;;
1618.0;1508.1;;;;-0.72463614;1.2405664;0.34077457;;;;;;;;;;;;;;;
1621.0;1518.1;;;;-0.6691628;1.2223703;0.33137897;;;;;;;;;;;;;;;
1621.0;1518.1;;;;-0.7736398;1.2355348;0.33983997;;;;;;;;;;;;;;;
1621.0;1518.1;;;;-0.7904779;1.2265474;0.34523776;;;;;;;;;;;;;;;
1621.0;1518.1;;;;-0.82009137;1.2269174;0.34617618;;;;;;;;;;;;;;;
1621.0;1518.1;;;;-0.85166943;1.2325364;0.34487537;;;;;;;;;;;;;;;
1621.0;1523.5;262143;262143;14034;;;;;;;;;;;;;;;;;;
1621.0;1528.2;;;;-0.86558163;1.2365838;0.3390732;;;;;;;;;;;;;;;
1621.0;1528.2;;;;-0.88115704;1.2406007;0.3291817;;;;;;;;;;;;;;;
1621.0;1528.2;;;;-0.9041749;1.247265;0.3183098;;;;;;;;;;;;;;;
1621.0;1528.2;;;;-0.92115796;1.2524072;0.3057976;;;;;;;;;;;;;;;
1621.0;1528.2;;;;-0.93768704;1.2553293;0.29452518;;;;;;;;;;;;;;;
1621.0;1529.5;;;;;;;;;;;;;-1228;;;;;;;;
1621.0;1529.5;;;;;;;;;;;;;-1856;;;;;;;;
1621.0;1529.5;;;;;;;;;;;;;-2645;;;;;;;;
1621.0;1529.5;;;;;;;;;;;;;-2871;;;;;;;;
1621.0;1529.5;;;;;;;;;;;;;-2418;;;;;;;;
1621.0;1538.3;;;;-0.95040905;1.2531282;0.28278354;;;;;;;;;;;;;;;
1621.0;1538.3;;;;-0.96709454;1.2488862;0.2726288;;;;;;;;;;;;;;;
1621.0;1538.3;;;;-0.98171246;1.2446672;0.26113895;;;;;;;;;;;;;;;
1621.0;1538.3;;;;-0.99507153;1.2383577;0.24866489;;;;;;;;;;;;;;;
1621.0;1538.3;;;;-1.0054322;1.2301294;0.23827747;;;;;;;;;;;;;;;
1621.0;1543.7;262143;262143;14039;;;;;;;;;;;;;;;;;;
1622.0;1544.7;;;;;;;;;;;;;;;;;-124.988556;25.013733;-115.07385;;1447.8
1622.0;1544.7;;;;;;;;;;;;;;0.8567156;0.17102572;-0.081362344;;;;;1447.8
1622.0;1544.7;;;;;;;;;;;;;;;;;-124.988556;18.272957;-107.91345;;1447.8
1622.0;1544.7;;;;;;;;;;;;;;0.8487198;0.10779138;-0.07763909;;;;;1447.8
1622.0;1544.7;;;;;;;;;;;;;;;;;-124.988556;14.584033;-101.21082;;1457.2
1622.0;1544.7;;;;;;;;;;;;;;0.8438368;0.040284432;-0.096499525;;;;;1457.2
1622.0;1544.7;;;;;;;;;;;;;;;;;-124.988556;13.4167;-94.30982;;1457.2
1622.0;1544.7;;;;;;;;;;;;;;0.81264687;-0.027710807;-0.11816767;;;;;1457.2
1622.0;1544.7;;;;;;;;;;;;;;;;;-124.988556;14.301737;-88.10313;;1466.9
1622.0;1544.7;;;;;;;;;;;;;;0.7641224;-0.07275613;-0.10852382;;;;;1466.9
1622.0;1544.7;;;;;;;;;;;;;;;;;-124.988556;14.267404;-81.19831;;1466.9
1622.0;1544.7;;;;;;;;;;;;;;0.7138279;-0.12115848;-0.0860622;;;;;1466.9
1622.0;1548.3;;;;-1.0219613;1.2239038;0.23033908;;;;;;;;;;;;;;;
1622.0;1548.3;;;;-1.036873;1.2200853;0.22321704;;;;;;;;;;;;;;;
1622.0;1548.3;;;;-1.0403215;1.2142411;0.21406177;;;;;;;;;;;;;;;
1622.0;1548.3;;;;-1.043789;1.2101442;0.20484164;;;;;;;;;;;;;;;
1622.0;1548.3;;;;-1.0600702;1.2087632;0.19806674;;;;;;;;;;;;;;;
1623.0;1552.5;;;;;;;;;;;;;;;;;-124.988556;14.4047365;-74.19813;;1476.6
1623.0;1552.5;;;;;;;;;;;;;;0.6620075;-0.13574633;-0.04113895;;;;;1476.6
1623.0;1552.5;;;;;;;;;;;;;;;;;-124.988556;15.053254;-66.789764;;1476.6
1623.0;1552.5;;;;;;;;;;;;;;0.5958434;-0.1525315;-0.0019531846;;;;;1476.6
1623.0;1552.5;;;;;;;;;;;;;;;;;-124.988556;15.301217;-59.400467;;1486.2
1623.0;1552.5;;;;;;;;;;;;;;0.5146642;-0.14746544;0.032593768;;;;;1486.2
1623.0;1552.5;;;;;;;;;;;;;;;;;-124.988556;12.9703665;-51.83569;;1486.2
1623.0;1552.5;;;;;;;;;;;;;;0.43342388;-0.13263345;0.051271096;;;;;1486.2
1623.0;1552.5;;;;;;;;;;;;;;;;;-124.988556;8.651998;-43.580433;;1495.9
1623.0;1552.5;;;;;;;;;;;;;;0.3472396;-0.12182989;0.050050355;;;;;1495.9
1623.0;1552.5;;;;;;;;;;;;;;;;;-124.988556;2.2850735;-34.241768;;1495.9
1623.0;1552.5;;;;;;;;;;;;;;0.27753532;-0.1060213;0.044007692;;;;;1495.9
1623.0;1558.3;;;;-1.0753824;1.2058374;0.19181445;;;;;;;;;;;;;;;
1623.0;1558.3;;;;-1.0948182;1.2028848;0.18843463;;;;;;;;;;;;;;;
1623.0;1558.3;;;;-1.1097337;1.1980401;0.18524553;;;;;;;;;;;;;;;
1623.0;1558.3;;;;-1.118107;1.1902124;0.17982866;;;;;;;;;;;;;;;
1623.0;1558.3;;;;-1.1265336;1.1772538;0.1763878;;;;;;;;;;;;;;;
1623.0;1563.7;262143;262143;14042;;;;;;;;;;;;;;;;;;
1623.0;1568.2;;;;-1.1264344;1.1598321;0.17523576;;;;;;;;;;;;;;;
1623.0;1568.2;;;;-1.1251489;1.1409303;0.17382433;;;;;;;;;;;;;;;
1623.0;1568.2;;;;-1.147461;1.1265146;0.17398073;;;;;;;;;;;;;;;
1623.0;1568.2;;;;-1.1710626;1.1107866;0.17069627;;;;;;;;;;;;;;;
1623.0;1568.2;;;;-1.1849252;1.0892602;0.16223527;;;;;;;;;;;;;;;
1675.0;1569.6;;;;;;;;;;;;;-1972;;;;;;;;
1675.0;1569.6;;;;;;;;;;;;;-2041;;;;;;;;
1675.0;1569.6;;;;;;;;;;;;;-2453;;;;;;;;
1675.0;1569.6;;;;;;;;;;;;;-2706;;;;;;;;
1675.0;1569.6;;;;;;;;;;;;;-2664;;;;;;;;
1675.0;1578.1;;;;-1.2084199;1.0700685;0.15689088;;;;;;;;;;;;;;;
1675.0;1578.1;;;;-1.2371866;1.050335;0.15186693;;;;;;;;;;;;;;;
1675.0;1578.1;;;;-1.2625009;1.0271417;0.14611818;;;;;;;;;;;;;;;
1675.0;1578.1;;;;-1.2885286;1.0019037;0.13928224;;;;;;;;;;;;;;;
1675.0;1578.1;;;;-1.3116876;0.9757768;0.13135149;;;;;;;;;;;;;;;
1675.0;1583.7;262143;262143;14036;;;;;;;;;;;;;;;;;;
1675.0;1588.3;;;;-1.3286973;0.94776547;0.12048723;;;;;;;;;;;;;;;
1675.0;1588.3;;;;-1.3458825;0.9232751;0.11005022;;;;;;;;;;;;;;;
1675.0;1588.3;;;;-1.3623353;0.8944856;0.100669876;;;;;;;;;;;;;;;
1675.0;1588.3;;;;-1.37492;0.86177075;0.094203964;;;;;;;;;;;;;;;
1675.0;1588.3;;;;-1.3854333;0.8326684;0.085659035;;;;;;;;;;;;;;;
1675.0;1598.4;;;;-1.3943826;0.8043519;0.07592011;;;;;;;;;;;;;;;
1675.0;1598.4;;;;-1.4044191;0.77754223;0.06593705;;;;;;;;;;;;;;;
1675.0;1598.4;;;;-1.4115831;0.7511445;0.056007393;;;;;;;;;;;;;;;
1675.0;1598.4;;;;-1.4124223;0.7248383;0.04564667;;;;;;;;;;;;;;;
1675.0;1598.4;;;;-1.4157525;0.7008439;0.038131718;;;;;;;;;;;;;;;
1675.0;1604.0;262143;262143;14026;;;;;;;;;;;;;;;;;;
1677.0;1604.9;;;;;;;;;;;;;;;;;-124.88937;-5.630665;-24.300364;;1505.6
1677.0;1604.9;;;;;;;;;;;;;;0.20899075;-0.09955138;0.02008118;;;;;1505.6
1677.0;1604.9;;;;;;;;;;;;;;;;;-122.61955;-12.375256;-14.01944;;1505.6
1677.0;1604.9;;;;;;;;;;;;;;0.14484085;-0.09900205;0.00347911;;;;;1505.6
1677.0;1604.9;;;;;;;;;;;;;;;;;-114.52452;-21.023438;-3.2616658;;1515.2
1677.0;1604.9;;;;;;;;;;;;;;0.09088412;-0.12439345;-0.042664878;;;;;1515.2
1677.0;1604.9;;;;;;;;;;;;;;;;;-101.023895;-29.63729;7.271035;;1515.2
1677.0;1604.9;;;;;;;;;;;;;;0.036378063;-0.16266365;-0.10724204;;;;;1515.2
1677.0;1604.9;;;;;;;;;;;;;;;;;-84.07086;-36.47725;17.139957;;1524.9
1677.0;1604.9;;;;;;;;;;;;;;-0.035828732;-0.2069155;-0.17401654;;;;;1524.9
1677.0;1604.9;;;;;;;;;;;;;;;;;-65.9772;-40.69643;27.104252;;1524.9
1677.0;1604.9;;;;;;;;;;;;;;-0.12048708;-0.25067905;-0.23004852;;;;;1524.9
1677.0;1608.4;;;;-1.4187776;0.67914206;0.0314827;;;;;;;;;;;;;;;
1677.0;1608.4;;;;-1.4214288;0.65848166;0.024932865;;;;;;;;;;;;;;;
1677.0;1608.4;;;;-1.4228402;0.6398049;0.01760483;;;;;;;;;;;;;;;
1677.0;1608.4;;;;-1.4227716;0.6236344;0.010967256;;;;;;;;;;;;;;;
1677.0;1608.4;;;;-1.4213144;0.61150366;0.0042228703;;;;;;;;;;;;;;;
1677.0;1609.9;;;;;;;;;;;;;-2653;;;;;;;;
1677.0;1609.9;;;;;;;;;;;;;-2563;;;;;;;;
1677.0;1609.9;;;;;;;;;;;;;-2026;;;;;;;;
1677.0;1609.9;;;;;;;;;;;;;-303;;;;;;;;
1677.0;1609.9;;;;;;;;;;;;;2532;;;;;;;;
1739.0;1612.4;;;;;;;;;;;;;;;;;-47.06336;-43.034916;37.07999;;1534.5
1739.0;1612.4;;;;;;;;;;;;;;-0.16461684;-0.29309976;-0.26239815;;;;;1534.5
1739.0;1612.4;;;;;;;;;;;;;;;;;-27.874844;-45.3238;45.7358;;1534.5
1739.0;1612.4;;;;;;;;;;;;;;-0.17194128;-0.30048525;-0.27411726;;;;;1534.5
1739.0;1612.4;;;;;;;;;;;;;;;;;-9.510331;-46.63991;54.81124;;1544.1
1739.0;1612.4;;;;;;;;;;;;;;-0.20935698;-0.3005463;-0.25446334;;;;;1544.1
1739.0;1612.4;;;;;;;;;;;;;;;;;8.056887;-49.790947;64.15754;;1544.1
1739.0;1612.4;;;;;;;;;;;;;;-0.23383282;-0.2887051;-0.23096408;;;;;1544.1
1739.0;1612.4;;;;;;;;;;;;;;;;;22.91177;-53.395947;72.29072;;1553.7
1739.0;1612.4;;;;;;;;;;;;;;-0.26013976;-0.2351146;-0.18897061;;;;;1553.7
1739.0;1612.4;;;;;;;;;;;;;;;;;33.94421;-56.611835;79.67619;;1553.7
1739.0;1612.4;;;;;;;;;;;;;;-0.25550097;-0.1723075;-0.16101566;;;;;1553.7
1739.0;1618.4;;;;-1.422577;0.59870535;-0.0021018984;;;;;;;;;;;;;;;
1739.0;1618.4;;;;-1.4230233;0.5863915;-0.0073661814;;;;;;;;;;;;;;;
1739.0;1618.4;;;;-1.4238168;0.5765763;-0.0140800495;;;;;;;;;;;;;;;
1739.0;1618.4;;;;-1.4232026;0.5677529;-0.01935959;;;;;;;;;;;;;;;
1739.0;1618.4;;;;-1.4236718;0.5620957;-0.023532871;;;;;;;;;;;;;;;
1739.0;1623.9;262143;262143;14024;;;;;;;;;;;;;;;;;;
1739.0;1628.3;;;;-1.4225351;0.55753714;-0.026371006;;;;;;;;;;;;;;;
1739.0;1628.3;;;;-1.4200898;0.5535584;-0.030334476;;;;;;;;;;;;;;;
1739.0;1628.3;;;;-1.4213182;0.54931647;-0.0335846;;;;;;;;;;;;;;;
1739.0;1628.3;;;;-1.4197389;0.5420762;-0.035179142;;;;;;;;;;;;;;;
1739.0;1628.3;;;;-1.4209253;0.5355759;-0.03644562;;;;;;;;;;;;;;;
1741.0;1638.4;;;;-1.4268609;0.5312043;-0.03923035;;;;;;;;;;;;;;;
1741.0;1638.4;;;;-1.4293672;0.5255318;-0.043933872;;;;;;;;;;;;;;;
1741.0;1638.4;;;;-1.4263917;0.5204049;-0.049583443;;;;;;;;;;;;;;;
1741.0;1638.4;;;;-1.4270631;0.5157586;-0.052860267;;;;;;;;;;;;;;;
1741.0;1638.4;;;;-1.4225656;0.5103455;-0.055450447;;;;;;;;;;;;;;;
1741.0;1644.1;262143;262143;14023;;;;;;;;;;;;;;;;;;
1741.0;1648.5;;;;-1.4214631;0.50579077;-0.05913926;;;;;;;;;;;;;;;
1741.0;1648.5;;;;-1.4194871;0.5008355;-0.06185151;;;;;;;;;;;;;;;
1741.0;1648.5;;;;-1.4132615;0.4965058;-0.06591416;;;;;;;;;;;;;;;
1741.0;1648.5;;;;-1.4071084;0.4928742;-0.06943513;;;;;;;;;;;;;;;
1741.0;1648.5;;;;-1.3982316;0.48971182;-0.07360459;;;;;;;;;;;;;;;
1741.0;1650.1;;;;;;;;;;;;;2106;;;;;;;;
1741.0;1650.1;;;;;;;;;;;;;-5042;;;;;;;;
1741.0;1650.1;;;;;;;;;;;;;-13703;;;;;;;;
1741.0;1650.1;;;;;;;;;;;;;-14806;;;;;;;;
1741.0;1650.1;;;;;;;;;;;;;-6595;;;;;;;;
1741.0;1658.6;;;;-1.3919832;0.48873526;-0.07892228;;;;;;;;;;;;;;;
1741.0;1658.6;;;;-1.3837739;0.4877625;-0.08259583;;;;;;;;;;;;;;;
1741.0;1658.6;;;;-1.3728563;0.48779684;-0.08675767;;;;;;;;;;;;;;;
1741.0;1658.6;;;;-1.3607713;0.49010855;-0.09061051;;;;;;;;;;;;;;;
1741.0;1658.6;;;;-1.3507539;0.49427038;-0.09573747;;;;;;;;;;;;;;;
1741.0;1664.4;262143;262143;14027;;;;;;;;;;;;;;;;;;
1742.0;1665.3;;;;;;;;;;;;;;;;;42.046875;-58.42006;86.58102;;1563.3
1742.0;1665.3;;;;;;;;;;;;;;-0.23322245;-0.09112827;-0.14557329;;;;;1563.3
1742.0;1665.3;;;;;;;;;;;;;;;;;47.49443;-57.279427;92.32993;;1563.3
1742.0;1665.3;;;;;;;;;;;;;;-0.18115787;-0.0042115543;-0.13116856;;;;;1563.3
1742.0;1665.3;;;;;;;;;;;;;;;;;52.26676;-54.30006;95.7976;;1572.9
1742.0;1665.3;;;;;;;;;;;;;;-0.12225715;0.081118196;-0.12805566;;;;;1572.9
1742.0;1665.3;;;;;;;;;;;;;;;;;56.01291;-49.050877;97.45323;;1572.9
1742.0;1665.3;;;;;;;;;;;;;;-0.05957213;0.21015045;-0.087466046;;;;;1572.9
1742.0;1665.3;;;;;;;;;;;;;;;;;57.86691;-42.916656;99.10123;;1582.6
1742.0;1665.3;;;;;;;;;;;;;;-0.0045167394;0.29841;-0.05957213;;;;;1582.6
1742.0;1665.3;;;;;;;;;;;;;;;;;58.87402;-35.53499;99.21185;;1582.6
1742.0;1665.3;;;;;;;;;;;;;;0.041871395;0.38636434;-0.003906369;;;;;1582.6
1742.0;1668.6;;;;-1.3419687;0.49854285;-0.09825517;;;;;;;;;;;;;;;
1742.0;1668.6;;;;-1.3320886;0.5037804;-0.101261154;;;;;;;;;;;;;;;
1742.0;1668.6;;;;-1.3199121;0.5103684;-0.10607149;;;;;;;;;;;;;;;
1742.0;1668.6;;;;-1.3088342;0.5212441;-0.112777725;;;;;;;;;;;;;;;
1742.0;1668.6;;;;-1.29665;0.53291327;-0.11745073;;;;;;;;;;;;;;;
1743.0;1673.1;;;;;;;;;;;;;;;;;57.18787;-28.069399;98.128456;;1592.2
1743.0;1673.1;;;;;;;;;;;;;;0.07940916;0.45149082;0.100039676;;;;;1592.2
1743.0;1673.1;;;;;;;;;;;;;;;;;54.216133;-23.987549;97.22053;;1592.2
1743.0;1673.1;;;;;;;;;;;;;;0.08093509;0.4828028;0.2616657;;;;;1592.2
1743.0;1673.1;;;;;;;;;;;;;;;;;50.912502;-29.263435;96.65594;;1601.9
1743.0;1673.1;;;;;;;;;;;;;;0.07214576;0.49867246;0.41669974;;;;;1601.9
1743.0;1673.1;;;;;;;;;;;;;;;;;50.908688;-44.495987;97.19764;;1601.9
1743.0;1673.1;;;;;;;;;;;;;;0.061708428;0.5036775;0.45240638;;;;;1601.9
1743.0;1673.1;;;;;;;;;;;;;;;;;53.617207;-59.70565;95.99216;;1611.6
1743.0;1673.1;;;;;;;;;;;;;;0.07361065;0.5521409;0.4677877;;;;;1611.6
1743.0;1673.1;;;;;;;;;;;;;;;;;54.429764;-71.535385;94.67605;;1611.6
1743.0;1673.1;;;;;;;;;;;;;;0.051881466;0.60499895;0.5136265;;;;;1611.6
1743.0;1678.6;;;;-1.2847749;0.547226;-0.12282945;;;;;;;;;;;;;;;
1743.0;1678.6;;;;-1.2741243;0.5637818;-0.12764741;;;;;;;;;;;;;;;
1743.0;1678.6;;;;-1.2627336;0.58077246;-0.1325226;;;;;;;;;;;;;;;
1743.0;1678.6;;;;-1.2513925;0.5998841;-0.137661;;;;;;;;;;;;;;;
1743.0;1678.6;;;;-1.2386934;0.6202317;-0.14279939;;;;;;;;;;;;;;;
1743.0;1684.3;262143;262143;14019;;;;;;;;;;;;;;;;;;
1743.0;1688.6;;;;-1.2255098;0.6413041;-0.1473427;;;;;;;;;;;;;;;
1743.0;1688.6;;;;-1.2120095;0.66234976;-0.15158464;;;;;;;;;;;;;;;
1743.0;1688.6;;;;-1.1994935;0.6851159;-0.15223314;;;;;;;;;;;;;;;
1743.0;1688.6;;;;-1.1850015;0.70810324;-0.15678789;;;;;;;;;;;;;;;
1743.0;1688.6;;;;-1.1687089;0.73052603;-0.15968324;;;;;;;;;;;;;;;
1798.0;1690.1;;;;;;;;;;;;;2954;;;;;;;;
1798.0;1690.1;;;;;;;;;;;;;6458;;;;;;;;
1798.0;1690.1;;;;;;;;;;;;;5058;;;;;;;;
1798.0;1690.1;;;;;;;;;;;;;3834;;;;;;;;
1798.0;1690.1;;;;;;;;;;;;;3892;;;;;;;;
1798.0;1698.4;;;;-1.1539117;0.7524377;-0.16303636;;;;;;;;;;;;;;;
1798.0;1698.4;;;;-1.1403009;0.7767488;-0.16622545;;;;;;;;;;;;;;;
1798.0;1698.4;;;;-1.1250612;0.8013574;-0.16988756;;;;;;;;;;;;;;;
1798.0;1698.4;;;;-1.1088372;0.8261262;-0.17347719;;;;;;;;;;;;;;;
1798.0;1698.4;;;;-1.093628;0.85178006;-0.17546465;;;;;;;;;;;;;;;
1798.0;1704.3;262143;262143;14016;;;;;;;;;;;;;;;;;;
1798.0;1708.5;;;;-1.0762407;0.87828076;-0.17787172;;;;;;;;;;;;;;;
1798.0;1708.5;;;;-1.0569688;0.9031755;-0.18043901;;;;;;;;;;;;;;;
1798.0;1708.5;;;;-1.0395128;0.92642224;-0.18288805;;;;;;;;;;;;;;;
1798.0;1708.5;;;;-1.0239946;0.9484521;-0.18465425;;;;;;;;;;;;;;;
1798.0;1708.5;;;;-1.0073434;0.9694749;-0.1865082;;;;;;;;;;;;;;;
1798.0;1718.7;;;;-0.98754513;0.98881924;-0.1897507;;;;;;;;;;;;;;;
1798.0;1718.7;;;;-0.9675714;1.0060235;-0.19328693;;;;;;;;;;;;;;;
1798.0;1718.7;;;;-0.9500047;1.0222284;-0.19541934;;;;;;;;;;;;;;;
1798.0;1718.7;;;;-0.9341699;1.0375787;-0.19747928;;;;;;;;;;;;;;;
1798.0;1718.7;;;;-0.91868603;1.0523454;-0.2000275;;;;;;;;;;;;;;;
1798.0;1724.6;262143;262143;14011;;;;;;;;;;;;;;;;;;
1803.0;1725.6;;;;;;;;;;;;;;;;;58.931244;-89.770195;94.71801;;1621.1
1803.0;1725.6;;;;;;;;;;;;;;0.09784234;0.6684164;0.37299722;;;;;1621.1
1803.0;1725.6;;;;;;;;;;;;;;;;;72.477646;-106.33412;96.179085;;1621.1
1803.0;1725.6;;;;;;;;;;;;;;0.29175696;0.73012483;0.26606035;;;;;1621.1
1803.0;1725.6;;;;;;;;;;;;;;;;;92.2689;-114.65804;99.95956;;1630.7
1803.0;1725.6;;;;;;;;;;;;;;0.47578356;0.7766961;0.26013976;;;;;1630.7
1803.0;1725.6;;;;;;;;;;;;;;;;;105.239265;-123.38633;102.83593;;1630.7
1803.0;1725.6;;;;;;;;;;;;;;0.7039399;0.8683737;0.048829615;;;;;1630.7
1803.0;1725.6;;;;;;;;;;;;;;;;;105.16679;-124.988556;101.26423;;1640.4
1803.0;1725.6;;;;;;;;;;;;;;1.1843623;0.92934966;-0.042725913;;;;;1640.4
1803.0;1725.6;;;;;;;;;;;;;;;;;99.34919;-124.988556;98.01019;;1640.4
1803.0;1725.6;;;;;;;;;;;;;;1.6431166;0.94155705;0.028321177;;;;;1640.4
1803.0;1726.3;;;;;;;;;;;;;;;;;85.860016;-124.988556;93.1196;;1650.1
1803.0;1726.3;;;;;;;;;;;;;;1.9785761;0.933195;-0.27558213;;;;;1650.1
1803.0;1726.3;;;;;;;;;;;;;;;;;70.01709;-124.988556;87.8132;;1650.1
1803.0;1726.3;;;;;;;;;;;;;;1.9971923;0.9439985;-1.0563066;;;;;1650.1
1803.0;1726.3;;;;;;;;;;;;;;;;;46.8421;-124.988556;80.153046;;1659.8
1803.0;1726.3;;;;;;;;;;;;;;1.9971923;1.043794;-1.922605;;;;;1659.8
1803.0;1726.3;;;;;;;;;;;;;;;;;7.507553;-124.988556;77.01346;;1659.8
1803.0;1726.3;;;;;;;;;;;;;;1.9971923;0.9825739;-1.4691;;;;;1659.8
1803.0;1726.3;;;;;;;;;;;;;;;;;-45.289467;-117.065186;88.97289;;1669.4
1803.0;1726.3;;;;;;;;;;;;;;1.9971923;0.67000335;-0.4159673;;;;;1669.4
1803.0;1726.3;;;;;;;;;;;;;;;;;-72.96594;-45.64806;96.5186;;1669.4
1803.0;1726.3;;;;;;;;;;;;;;1.9971923;0.21442305;-0.9250771;;;;;1669.4
1805.0;1728.6;;;;-0.9065324;1.0656816;-0.20278552;;;;;;;;;;;;;;;
1805.0;1728.6;;;;-0.8991014;1.080166;-0.20520785;;;;;;;;;;;;;;;
1805.0;1728.6;;;;-0.8979875;1.0961648;-0.20875552;;;;;;;;;;;;;;;
1805.0;1728.6;;;;-0.8834344;1.1067888;-0.21416858;;;;;;;;;;;;;;;
1805.0;1728.6;;;;-0.85237896;1.1126786;-0.22087863;;;;;;;;;;;;;;;
1805.0;1730.4;;;;;;;;;;;;;2970;;;;;;;;
1805.0;1730.4;;;;;;;;;;;;;1408;;;;;;;;
1805.0;1730.4;;;;;;;;;;;;;444;;;;;;;;
1805.0;1730.4;;;;;;;;;;;;;-719;;;;;;;;
1805.0;1730.4;;;;;;;;;;;;;-2239;;;;;;;;
1805.0;1738.7;;;;-0.83113873;1.121502;-0.22418597;;;;;;;;;;;;;;;
1805.0;1738.7;;;;-0.81909573;1.1302987;-0.22488025;;;;;;;;;;;;;;;
1805.0;1738.7;;;;-0.80547726;1.1395684;-0.22732165;;;;;;;;;;;;;;;
1805.0;1738.7;;;;-0.7904779;1.1487619;-0.23138812;;;;;;;;;;;;;;;
1805.0;1738.7;;;;-0.7779504;1.1590616;-0.2333565;;;;;;;;;;;;;;;
1805.0;1738.9;;;;;;;;;;0.7209998;17.69692;-2.994629;;;;;;;;;
1805.0;1738.9;;;;;;;0.2993866;-1.2620624;0.0;;;;;;;;;;;;
1805.0;1738.9;;;;;;;;;;8.575701;30.999176;6.1418505;;;;;;;;;
1805.0;1738.9;;;;;;;0.32325205;-1.4150822;-0.02478103;;;;;;;;;;;;
1805.0;1744.7;262143;262143;14013;;;;;;;;;;;;;;;;;;
1805.0;1748.5;;;;;;;;;;6.202887;3.151036;5.962554;;;;;;;;;
1805.0;1748.5;;;;;;;0.311655;-1.4018983;-0.05859554;;;;;;;;;;;;
1805.0;1748.5;;;;;;;;;;21.53081;11.3986635;9.174627;;;;;;;;;
1805.0;1748.5;;;;;;;0.29554126;-1.37846;-0.0933256;;;;;;;;;;;;
1856.0;1748.8;;;;-0.7656213;1.1696664;-0.23534778;;;;;;;;;;;;;;;
1856.0;1748.8;;;;-0.75590146;1.1804353;-0.2370911;;;;;;;;;;;;;;;
1856.0;1748.8;;;;-0.7465859;1.1905786;-0.23970798;;;;;;;;;;;;;;;
1856.0;1748.8;;;;-0.74708945;1.2024843;-0.24116138;;;;;;;;;;;;;;;
1856.0;1748.8;;;;-0.7232781;1.2069169;-0.24843219;;;;;;;;;;;;;;;
1856.0;1757.9;;;;;;;;;;34.79873;4.081851;8.102665;;;;;;;;;
1856.0;1757.9;;;;;;;0.27991578;-1.3418989;-0.12427137;;;;;;;;;;;;
1856.0;1757.9;;;;;;;;;;42.16132;-41.688286;-15.598773;;;;;;;;;
1856.0;1757.9;;;;;;;0.26459548;-1.2935575;-0.15277566;;;;;;;;;;;;
1856.0;1758.7;;;;-0.7017861;1.214451;-0.25349048;;;;;;;;;;;;;;;
1856.0;1758.7;;;;-0.6878701;1.2250024;-0.25329593;;;;;;;;;;;;;;;
1856.0;1758.7;;;;-0.67677313;1.2360154;-0.25345233;;;;;;;;;;;;;;;
1856.0;1758.7;;;;-0.6660157;1.2462465;-0.25509265;;;;;;;;;;;;;;;
1856.0;1758.7;;;;-0.6526452;1.2565919;-0.25722125;;;;;;;;;;;;;;;
1856.0;1764.7;262143;262143;14002;;;;;;;;;;;;;;;;;;
1856.0;1767.5;;;;;;;;;;52.987762;-53.266243;-20.06592;;;;;;;;;
1856.0;1767.5;;;;;;;0.25928527;-1.2460097;-0.17438276;;;;;;;;;;;;
1856.0;1767.5;;;;;;;;;;62.36839;-64.596245;-25.448622;;;;;;;;;
1856.0;1767.5;;;;;;;0.27314067;-1.1983398;-0.19055757;;;;;;;;;;;;
1861.0;1768.8;;;;-0.6402474;1.2677652;-0.25706866;;;;;;;;;;;;;;;
1861.0;1768.8;;;;-0.62702566;1.2759858;-0.25569156;;;;;;;;;;;;;;;
1861.0;1768.8;;;;-0.6166459;1.2855836;-0.2552376;;;;;;;;;;;;;;;
1861.0;1768.8;;;;-0.607029;1.2962877;-0.25616077;;;;;;;;;;;;;;;
1861.0;1768.8;;;;-0.5983315;1.3091508;-0.2582169;;;;;;;;;;;;;;;
1861.0;1770.7;;;;;;;;;;;;;-3260;;;;;;;;
1861.0;1770.7;;;;;;;;;;;;;-3358;;;;;;;;
1861.0;1770.7;;;;;;;;;;;;;-2956;;;;;;;;
1861.0;1770.7;;;;;;;;;;;;;-3197;;;;;;;;
1861.0;1770.7;;;;;;;;;;;;;-4442;;;;;;;;
1861.0;1777.1;;;;;;;;;;68.46064;-66.38539;-25.635548;;;;;;;;;
1861.0;1777.1;;;;;;;0.27680287;-1.1537217;-0.2113712;;;;;;;;;;;;
1861.0;1777.1;;;;;;;;;;66.48076;-61.552017;-22.156437;;;;;;;;;
1861.0;1777.1;;;;;;;0.27954954;-1.1176488;-0.2280343;;;;;;;;;;;;
1861.0;1778.9;;;;-0.5926629;1.3229257;-0.25955966;;;;;;;;;;;;;;;
1861.0;1778.9;;;;-0.5838433;1.3367082;-0.25926593;;;;;;;;;;;;;;;
1861.0;1778.9;;;;-0.578106;1.3505174;-0.25916675;;;;;;;;;;;;;;;
1861.0;1778.9;;;;-0.5718079;1.3635026;-0.25777057;;;;;;;;;;;;;;;
1861.0;1778.9;;;;-0.5693131;1.378502;-0.25703433;;;;;;;;;;;;;;;
1861.0;1785.0;262143;262143;13997;;;;;;;;;;;;;;;;;;
1865.0;1785.9;;;;;;;;;;;;;;;;;-56.29139;98.15516;68.08679;;1679.1
1865.0;1785.9;;;;;;;;;;;;;;1.5129856;0.2900479;-0.17456588;;;;;1679.1
1865.0;1785.9;;;;;;;;;;;;;;;;;-53.876614;124.988556;43.31721;;1679.1
1865.0;1785.9;;;;;;;;;;;;;;0.6190985;0.26081118;0.13745537;;;;;1679.1
1865.0;1785.9;;;;;;;;;;;;;;;;;-41.66158;120.63585;32.021545;;1688.8
1865.0;1785.9;;;;;;;;;;;;;;0.16449477;0.135197;0.2827235;;;;;1688.8
1865.0;1785.9;;;;;;;;;;;;;;;;;-28.24488;76.15513;35.287025;;1688.8
1865.0;1785.9;;;;;;;;;;;;;;-0.14941862;-0.12915434;0.2764977;;;;;1688.8
1865.0;1785.9;;;;;;;;;;;;;;;;;-21.561327;15.835291;30.537582;;1698.4
1865.0;1785.9;;;;;;;;;;;;;;-0.29096347;-0.3175756;0.13940856;;;;;1698.4
1865.0;1785.9;;;;;;;;;;;;;;;;;-13.466292;-15.24018;24.914547;;1698.4
1865.0;1785.9;;;;;;;;;;;;;;-0.27869502;-0.27411726;0.0047608875;;;;;1698.4
1865.0;1786.7;;;;;;;;;;;;;;;;;-9.243294;-27.180548;34.5851;;1708.0
1865.0;1786.7;;;;;;;;;;;;;;0.012451552;-0.2891934;-0.07647938;;;;;1708.0
1865.0;1786.7;;;;;;;;;;;;;;;;;-1.865444;-35.802025;42.085026;;1708.0
1865.0;1786.7;;;;;;;;;;;;;;0.32007813;-0.305063;-0.26142156;;;;;1708.0
1865.0;1786.7;;;;;;;;;;;;;;;;;6.981109;-24.922176;47.34184;;1717.7
1865.0;1786.7;;;;;;;;;;;;;;0.31305888;-0.25659963;-0.16876736;;;;;1717.7
1865.0;1786.7;;;;;;;;;;;;;;;;;13.80581;-29.774622;53.11365;;1717.7
1865.0;1786.7;;;;;;;;;;;;;;0.3327128;-0.21228676;-0.1114536;;;;;1717.7
1865.0;1786.7;;;;;;;;;;;;;;;;;20.26429;-46.010468;57.966095;;1727.3
1865.0;1786.7;;;;;;;;;;;;;;0.37818536;-0.18451491;-0.1312296;;;;;1727.3
1865.0;1786.7;;;;;;;;;;;;;;;;;27.760399;-63.65017;61.75802;;1727.3
1865.0;1786.7;;;;;;;;;;;;;;0.41413617;-0.17194128;-0.18195136;;;;;1727.3
1867.0;1786.6;;;;;;;;;;62.36076;-62.582016;-23.396252;;;;;;;;;
1867.0;1786.6;;;;;;;0.267098;-1.0805994;-0.23249;;;;;;;;;;;;
1867.0;1786.6;;;;;;;;;;58.557392;-63.001648;-23.426771;;;;;;;;;
1867.0;1786.6;;;;;;;0.3068331;-1.0618;-0.22876675;;;;;;;;;;;;
1867.0;1788.9;;;;-0.5642548;1.3927461;-0.25777057;;;;;;;;;;;;;;;
1867.0;1788.9;;;;-0.5627366;1.4092256;-0.255909;;;;;;;;;;;;;;;
1867.0;1788.9;;;;-0.5584908;1.425892;-0.2527733;;;;;;;;;;;;;;;
1867.0;1788.9;;;;-0.5535889;1.4413682;-0.24983218;;;;;;;;;;;;;;;
1867.0;1788.9;;;;-0.54100424;1.5434496;-0.23054889;;;;;;;;;;;;;;;
1867.0;1796.3;;;;;;;;;;55.330055;-62.387463;-24.807732;;;;;;;;;
1867.0;1796.3;;;;;;;0.31043428;-1.0433058;-0.24756615;;;;;;;;;;;;
1867.0;1796.3;;;;;;;;;;50.851467;-59.438614;-25.433363;;;;;;;;;
1867.0;1796.3;;;;;;;0.31293678;-1.0252388;-0.24463637;;;;;;;;;;;;
1867.0;1799.0;;;;-0.4823876;1.7992785;-0.18530275;;;;;;;;;;;;;;;
1867.0;1799.0;;;;-0.5368119;1.4837495;-0.23453143;;;;;;;;;;;;;;;
1867.0;1799.0;;;;-0.574009;1.4715844;-0.2460747;;;;;;;;;;;;;;;
1867.0;1799.0;;;;-0.5414086;1.509331;-0.25556567;;;;;;;;;;;;;;;
1867.0;1799.0;;;;-0.53831106;1.525635;-0.24901584;;;;;;;;;;;;;;;
1867.0;1805.0;262143;262143;13973;;;;;;;;;;;;;;;;;;
1867.0;1805.8;;;;;;;;;;46.151615;-54.84939;-24.929806;;;;;;;;;
1867.0;1805.8;;;;;;;0.32087162;-1.0081484;-0.22846156;;;;;;;;;;;;
1867.0;1805.8;;;;;;;;;;41.570026;-50.02365;-24.468216;;;;;;;;;
1867.0;1805.8;;;;;;;0.34308907;-1.0118107;-0.21845149;;;;;;;;;;;;
1919.0;1809.0;;;;-0.53257376;1.5334704;-0.24419025;;;;;;;;;;;;;;;
1919.0;1809.0;;;;-0.5292664;1.5500071;-0.23265079;;;;;;;;;;;;;;;
1919.0;1809.0;;;;-0.52143484;1.5705836;-0.23113635;;;;;;;;;;;;;;;
1919.0;1809.0;;;;-0.5166741;1.5903552;-0.23472598;;;;;;;;;;;;;;;
1919.0;1809.0;;;;-0.5102654;1.598263;-0.24103168;;;;;;;;;;;;;;;
1919.0;1810.7;;;;;;;;;;;;;-5665;;;;;;;;
1919.0;1810.7;;;;;;;;;;;;;-5837;;;;;;;;
1919.0;1810.7;;;;;;;;;;;;;-5070;;;;;;;;
1919.0;1810.7;;;;;;;;;;;;;-4240;;;;;;;;
1919.0;1810.7;;;;;;;;;;;;;-3810;;;;;;;;
1919.0;1815.1;;;;;;;;;;35.863064;-44.728687;-24.521624;;;;;;;;;
1919.0;1815.1;;;;;;;0.37946716;-1.0184637;-0.21601;;;;;;;;;;;;
1919.0;1815.1;;;;;;;;;;29.992064;-39.204838;-24.002808;;;;;;;;;
1919.0;1815.1;;;;;;;0.3552965;-1.0210882;-0.18085268;;;;;;;;;;;;
1919.0;1818.8;;;;-0.51591116;1.5976527;-0.24385455;;;;;;;;;;;;;;;
1919.0;1818.8;;;;-0.50732046;1.6059725;-0.24116519;;;;;;;;;;;;;;;
1919.0;1818.8;;;;-0.4909516;1.6293719;-0.23621371;;;;;;;;;;;;;;;
1919.0;1818.8;;;;-0.4779206;1.6316493;-0.24266818;;;;;;;;;;;;;;;
1919.0;1818.8;;;;-0.47299963;1.6314814;-0.24357608;;;;;;;;;;;;;;;
1919.0;1824.8;;;;;;;;;;25.849178;-34.085358;-21.969513;;;;;;;;;
1919.0;1824.8;;;;;;;0.36909086;-1.0440992;-0.17029329;;;;;;;;;;;;
1919.0;1824.8;;;;;;;;;;21.130253;-29.17188;-20.424513;;;;;;;;;
1919.0;1824.8;;;;;;;0.38056582;-1.0704062;-0.15442365;;;;;;;;;;;;
1919.0;1825.0;262143;262143;13971;;;;;;;;;;;;;;;;;;
1921.0;1829.0;;;;-0.47308737;1.6275675;-0.24170306;;;;;;;;;;;;;;;
1921.0;1829.0;;;;-0.467907;1.6226084;-0.24816516;;;;;;;;;;;;;;;
1921.0;1829.0;;;;-0.45849234;1.6194994;-0.2568169;;;;;;;;;;;;;;;
1921.0;1829.0;;;;-0.44821936;1.6145022;-0.26520923;;;;;;;;;;;;;;;
1921.0;1829.0;;;;-0.44179922;1.6146929;-0.26814654;;;;;;;;;;;;;;;
1921.0;1834.4;;;;;;;;;;16.857662;-24.784843;-18.246254;;;;;;;;;
1921.0;1834.4;;;;;;;0.36713767;-1.0827967;-0.14557329;;;;;;;;;;;;
1921.0;1834.4;;;;;;;;;;13.248848;-22.007662;-14.984588;;;;;;;;;
1921.0;1834.4;;;;;;;0.33497116;-1.0877407;-0.14111759;;;;;;;;;;;;
1921.0;1839.1;;;;-0.4351502;1.6211474;-0.26361087;;;;;;;;;;;;;;;
1921.0;1839.1;;;;-0.44781882;1.5949175;-0.2622185;;;;;;;;;;;;;;;
1921.0;1839.1;;;;-0.441948;1.5877917;-0.26078418;;;;;;;;;;;;;;;
1921.0;1839.1;;;;-0.44226462;1.5814173;-0.26203158;;;;;;;;;;;;;;;
1921.0;1839.1;;;;-0.44107062;1.5787203;-0.2567444;;;;;;;;;;;;;;;
1921.0;1844.0;;;;;;;;;;11.383404;-20.645771;-10.532701;;;;;;;;;
1921.0;1844.0;;;;;;;0.2732017;-1.0715659;-0.15869625;;;;;;;;;;;;
1921.0;1844.0;;;;;;;;;;8.5909605;-19.230476;-4.4175544;;;;;;;;;
1921.0;1844.0;;;;;;;0.20734276;-1.0411085;-0.1777398;;;;;;;;;;;;
1921.0;1845.3;262143;262143;13959;;;;;;;;;;;;;;;;;;
1922.0;1849.2;;;;-0.4428063;1.5765345;-0.251442;;;;;;;;;;;;;;;
1922.0;1849.2;;;;-0.43501288;1.5724337;-0.2551804;;;;;;;;;;;;;;;
1922.0;1849.2;;;;-0.4212609;1.5665972;-0.27086642;;;;;;;;;;;;;;;
1922.0;1849.2;;;;-0.41016012;1.5600703;-0.2805176;;;;;;;;;;;;;;;
1922.0;1849.2;;;;-0.4056664;1.5527346;-0.2849007;;;;;;;;;;;;;;;
1922.0;1851.2;;;;;;;;;;;;;-3566;;;;;;;;
1922.0;1851.2;;;;;;;;;;;;;-3025;;;;;;;;
1922.0;1851.2;;;;;;;;;;;;;-2048;;;;;;;;
1922.0;1851.2;;;;;;;;;;;;;-879;;;;;;;;
1922.0;1851.2;;;;;;;;;;;;;511;;;;;;;;
1922.0;1853.6;;;;;;;;;;3.9788508;-16.838589;1.8539995;;;;;;;;;
1922.0;1853.6;;;;;;;0.19220558;-0.9886776;-0.16663106;;;;;;;;;;;;
1922.0;1853.6;;;;;;;;;;0.7286294;-14.381847;6.981109;;;;;;;;;
1922.0;1853.6;;;;;;;0.10956145;-0.9337443;-0.14300974;;;;;;;;;;;;
1922.0;1854.0;;;;;;;;;;;;;;;;;37.400433;-80.14542;64.98917;;1737.0
1922.0;1854.0;;;;;;;;;;;;;;0.49043244;-0.1551561;-0.23780023;;;;;1737.0
1922.0;1854.0;;;;;;;;;;;;;;;;;48.71517;-91.22364;68.62468;;1737.0
1922.0;1854.0;;;;;;;;;;;;;;0.5962096;-0.1480758;-0.25702688;;;;;1737.0
1922.0;1854.0;;;;;;;;;;;;;;;;;59.461502;-94.61501;71.50487;;1746.6
1922.0;1854.0;;;;;;;;;;;;;;0.7160253;-0.1424604;-0.21246986;;;;;1746.6
1922.0;1854.0;;;;;;;;;;;;;;;;;69.8149;-94.62646;74.51094;;1746.6
1922.0;1854.0;;;;;;;;;;;;;;0.8249153;-0.14233834;-0.116641745;;;;;1746.6
1922.0;1854.0;;;;;;;;;;;;;;;;;78.974266;-95.72512;76.77694;;1756.2
1922.0;1854.0;;;;;;;;;;;;;;0.9421674;-0.12152471;-0.02008118;;;;;1756.2
1922.0;1854.0;;;;;;;;;;;;;;;;;86.5505;-101.966156;79.008606;;1756.2
1922.0;1854.0;;;;;;;;;;;;;;1.0870693;-0.059144873;0.0021973327;;;;;1756.2
1923.0;1854.8;;;;;;;;;;;;;;;;;91.50212;-112.6896;81.74383;;1765.7
1923.0;1854.8;;;;;;;;;;;;;;1.24485;-0.0048829615;-0.14307077;;;;;1765.7
1923.0;1854.8;;;;;;;;;;;;;;;;;94.24879;-119.93011;84.07086;;1765.7
1923.0;1854.8;;;;;;;;;;;;;;1.4398023;0.03180029;-0.387463;;;;;1765.7
1923.0;1854.8;;;;;;;;;;;;;;;;;92.31849;-116.70278;83.94116;;1775.4
1923.0;1854.8;;;;;;;;;;;;;;1.6624653;0.08349864;-0.63582265;;;;;1775.4
1923.0;1854.8;;;;;;;;;;;;;;;;;84.83764;-99.662;76.3268;;1775.4
1923.0;1854.8;;;;;;;;;;;;;;1.8821986;0.22705771;-0.8352916;;;;;1775.4
1923.0;1854.8;;;;;;;;;;;;;;;;;77.093575;-68.285164;62.620163;;1785.1
1923.0;1854.8;;;;;;;;;;;;;;1.996704;0.4333018;-0.8516495;;;;;1785.1
1923.0;1854.8;;;;;;;;;;;;;;;;;75.27009;-35.939358;49.82528;;1785.1
1923.0;1854.8;;;;;;;;;;;;;;1.9971923;0.626484;-0.720542;;;;;1785.1
1923.0;1859.1;;;;-0.40011984;1.5464976;-0.28863528;;;;;;;;;;;;;;;
1923.0;1859.1;;;;-0.39225012;1.5386431;-0.29251102;;;;;;;;;;;;;;;
1923.0;1859.1;;;;-0.38618857;1.5327036;-0.29635623;;;;;;;;;;;;;;;
1923.0;1859.1;;;;-0.37268832;1.5253298;-0.30266193;;;;;;;;;;;;;;;
1923.0;1859.1;;;;-0.36269763;1.5178721;-0.30684283;;;;;;;;;;;;;;;
1923.0;1862.9;;;;;;;;;;-2.338481;-13.706625;12.813959;;;;;;;;;
1923.0;1862.9;;;;;;;0.07928709;-0.8858913;-0.11243019;;;;;;;;;;;;
1923.0;1862.9;;;;;;;;;;-5.203406;-14.599292;17.883846;;;;;;;;;
1923.0;1862.9;;;;;;;0.025147252;-0.8440809;-0.07873776;;;;;;;;;;;;
1923.0;1865.2;262143;262143;13954;;;;;;;;;;;;;;;;;;
1977.0;1869.1;;;;-0.35956958;1.5129168;-0.30306628;;;;;;;;;;;;;;;
1977.0;1869.1;;;;-0.36473468;1.5107081;-0.29057315;;;;;;;;;;;;;;;
1977.0;1869.1;;;;-0.3601685;1.5075648;-0.29177478;;;;;;;;;;;;;;;
1977.0;1869.1;;;;-0.34978488;1.5025828;-0.29617313;;;;;;;;;;;;;;;
1977.0;1869.1;;;;-0.3429604;1.4981309;-0.29789355;;;;;;;;;;;;;;;
1977.0;1872.3;;;;;;;;;;-7.89285;-16.880552;23.770103;;;;;;;;;
1977.0;1872.3;;;;;;;0.0038453322;-0.81606495;-0.056093022;;;;;;;;;;;;
1977.0;1872.3;;;;;;;;;;-10.76159;-20.851772;29.045992;;;;;;;;;
1977.0;1872.3;;;;;;;-0.017517624;-0.80556655;-0.03686636;;;;;;;;;;;;
1977.0;1878.8;;;;-0.33328632;1.4916002;-0.30250934;;;;;;;;;;;;;;;
1977.0;1878.8;;;;-0.32867816;1.4850389;-0.29802707;;;;;;;;;;;;;;;
1977.0;1878.8;;;;-0.33134845;1.4810487;-0.28974155;;;;;;;;;;;;;;;
1977.0;1878.8;;;;-0.32999423;1.478058;-0.2884026;;;;;;;;;;;;;;;
1977.0;1878.8;;;;-0.32641223;1.4735757;-0.28892902;;;;;;;;;;;;;;;
1977.0;1881.8;;;;;;;;;;-12.962737;-25.521103;34.28373;;;;;;;;;
1977.0;1881.8;;;;;;;-0.034730066;-0.8181402;-0.03747673;;;;;;;;;;;;
1977.0;1881.8;;;;;;;;;;-15.869625;-31.365398;39.319283;;;;;;;;;
1977.0;1881.8;;;;;;;-0.050721765;-0.8380993;-0.037965026;;;;;;;;;;;;
1977.0;1885.1;262143;262143;13951;;;;;;;;;;;;;;;;;;
1979.0;1888.9;;;;-0.31587985;25204;-0.29166797;;;;;;;;;;;;;;;
1979.0;1888.9;;;;-0.31154254;1.4599038;-0.2905617;;;;;;;;;;;;;;;
1979.0;1888.9;;;;-0.30642322;1.4545861;-0.29054263;;;;;;;;;;;;;;;
1979.0;1888.9;;;;-0.3062859;1.4489404;-0.28965762;;;;;;;;;;;;;;;
1979.0;1888.9;;;;-0.30695727;1.4501992;-0.2863274;;;;;;;;;;;;;;;
1979.0;1891.1;;;;;;;;;;;;;2141;;;;;;;;
1979.0;1891.1;;;;;;;;;;;;;3629;;;;;;;;
1979.0;1891.1;;;;;;;;;;;;;4489;;;;;;;;
1979.0;1891.1;;;;;;;;;;;;;4565;;;;;;;;
1979.0;1891.1;;;;;;;;;;;;;4233;;;;;;;;
1979.0;1891.4;;;;;;;;;;-18.337809;-37.522507;43.56136;;;;;;;;;
1979.0;1891.4;;;;;;;-0.050660726;-0.86831266;-0.030030213;;;;;;;;;;;;
1979.0;1891.4;;;;;;;;;;-20.725883;-43.630024;47.4601;;;;;;;;;
1979.0;1891.4;;;;;;;-0.049684133;-0.88283944;-0.04589984;;;;;;;;;;;;
1979.0;1899.0;;;;-0.30389407;1.4419175;-0.2838097;;;;;;;;;;;;;;;
1979.0;1899.0;;;;-0.30700305;1.4365503;-0.27922824;;;;;;;;;;;;;;;
1979.0;1899.0;;;;-0.30821994;1.4348451;-0.27434924;;;;;;;;;;;;;;;
1979.0;1899.0;;;;-0.30594638;1.4326173;-0.27441028;;;;;;;;;;;;;;;
1979.0;1899.0;;;;-0.30347446;1.4296533;-0.27154544;;;;;;;;;;;;;;;
1979.0;1901.1;;;;;;;;;;-24.525438;-51.10706;51.515244;;;;;;;;;
1979.0;1901.1;;;;;;;-0.04876858;-0.8998688;-0.041322064;;;;;;;;;;;;
1979.0;1901.1;;;;;;;;;;-27.081364;-58.8168;55.520798;;;;;;;;;
1979.0;1901.1;;;;;;;-0.048524432;-0.91885126;-0.039002657;;;;;;;;;;;;
1979.0;1905.4;262143;262143;13944;;;;;;;;;;;;;;;;;;
1982.0;1906.4;;;;;;;;;;;;;;;;;78.3906;-7.889035;45.075836;;1794.8
1982.0;1906.4;;;;;;;;;;;;;;1.7396771;0.786401;-0.66139716;;;;;1794.8
1982.0;1906.4;;;;;;;;;;;;;;;;;71.86727;18.20429;47.902615;;1794.8
1982.0;1906.4;;;;;;;;;;;;;;1.1619006;0.74684894;-0.36280406;;;;;1794.8
1982.0;1906.4;;;;;;;;;;;;;;;;;52.140873;3.38374;45.583206;;1804.5
1982.0;1906.4;;;;;;;;;;;;;;1.0855434;0.77370524;-0.30939665;;;;;1804.5
1982.0;1906.4;;;;;;;;;;;;;;;;;33.471176;-7.2443314;45.491653;;1804.5
1982.0;1906.4;;;;;;;;;;;;;;1.055208;0.72688985;-0.35883662;;;;;1804.5
1982.0;1906.4;;;;;;;;;;;;;;;;;19.05118;-0.7324442;46.372875;;1814.2
1982.0;1906.4;;;;;;;;;;;;;;0.9521775;0.6763512;-0.25458542;;;;;1814.2
1982.0;1906.4;;;;;;;;;;;;;;;;;8.434553;0.6065554;49.28358;;1814.2
1982.0;1906.4;;;;;;;;;;;;;;0.84292126;0.6209296;-0.12634663;;;;;1814.2
1982.0;1907.1;;;;;;;;;;;;;;;;;1.7128513;-6.015961;52.529984;;1823.9
1982.0;1907.1;;;;;;;;;;;;;;0.77895445;0.5861385;-0.05652028;;;;;1823.9
1982.0;1907.1;;;;;;;;;;;;;;;;;-1.9417402;-14.385662;57.515945;;1823.9
1982.0;1907.1;;;;;;;;;;;;;;0.7648549;0.5600757;-0.03070162;;;;;1823.9
1982.0;1907.1;;;;;;;;;;;;;;;;;-4.013184;-20.687735;63.810387;;1833.5
1982.0;1907.1;;;;;;;;;;;;;;0.7615589;0.5416425;-0.038941618;;;;;1833.5
1982.0;1907.1;;;;;;;;;;;;;;;;;-4.135258;-25.79577;70.14679;;1833.5
1982.0;1907.1;;;;;;;;;;;;;;0.7624134;0.53364664;-0.058534503;;;;;1833.5
1982.0;1907.1;;;;;;;;;;;;;;;;;-2.4262216;-30.869473;76.715904;;1843.1
1982.0;1907.1;;;;;;;;;;;;;;0.7519761;0.5281533;-0.09479049;;;;;1843.1
1982.0;1907.1;;;;;;;;;;;;;;;;;1.3351848;-37.598804;83.07901;;1843.1
1982.0;1907.1;;;;;;;;;;;;;;0.74703205;0.5251015;-0.13367108;;;;;1843.1
1984.0;1909.0;;;;-0.3007317;1.425789;-0.26985934;;;;;;;;;;;;;;;
1984.0;1909.0;;;;-0.2996445;1.4235269;-0.26593783;;;;;;;;;;;;;;;
1984.0;1909.0;;;;-0.30515674;1.4216844;-0.26124194;;;;;;;;;;;;;;;
1984.0;1909.0;;;;-0.30562213;1.4206086;-0.25939563;;;;;;;;;;;;;;;
1984.0;1909.0;;;;-0.30108264;1.4183732;-0.2603188;;;;;;;;;;;;;;;
1984.0;1910.6;;;;;;;;;;-28.969696;-67.133095;59.194466;;;;;;;;;
1984.0;1910.6;;;;;;;-0.045228433;-0.9307535;-0.04199347;;;;;;;;;;;;
1984.0;1910.6;;;;;;;;;;-30.774101;-76.273384;62.60109;;;;;;;;;
1984.0;1910.6;;;;;;;-0.039429914;-0.93813896;-0.041322064;;;;;;;;;;;;
1984.0;1919.1;;;;-0.29662326;1.4160959;-0.2614632;;;;;;;;;;;;;;;
1984.0;1919.1;;;;-0.29233935;1.4135629;-0.26150897;;;;;;;;;;;;;;;
1984.0;1919.1;;;;-0.28778842;1.4109613;-0.26173785;;;;;;;;;;;;;;;
1984.0;1919.1;;;;-0.28549197;1.4072877;-0.2601128;;;;;;;;;;;;;;;
1984.0;1919.1;;;;-0.28374866;1.403454;-0.25927737;;;;;;;;;;;;;;;
1984.0;1920.2;;;;;;;;;;-31.804104;-86.03168;65.88565;;;;;;;;;
1984.0;1920.2;;;;;;;-0.030884732;-0.9441206;-0.045289468;;;;;;;;;;;;
1984.0;1920.2;;;;;;;;;;-32.185585;-95.78234;69.18164;;;;;;;;;
1984.0;1920.2;;;;;;;-0.018311106;-0.94735557;-0.054811243;;;;;;;;;;;;
1984.0;1925.6;262143;262143;13939;;;;;;;;;;;;;;;;;;
2038.0;1929.2;;;;-0.27878192;1.3994409;-0.25714496;;;;;;;;;;;;;;;
2038.0;1929.2;;;;-0.27834705;1.394993;-0.2554169;;;;;;;;;;;;;;;
2038.0;1929.2;;;;-0.2767792;1.3909875;-0.25311664;;;;;;;;;;;;;;;
2038.0;1929.2;;;;-0.27430728;1.386036;-0.2511864;;;;;;;;;;;;;;;
2038.0;1929.2;;;;-0.27255252;1.3804437;-0.24839786;;;;;;;;;;;;;;;
2038.0;1929.8;;;;;;;;;;-32.486954;-104.82726;72.76757;;;;;;;;;
2038.0;1929.8;;;;;;;-0.006714072;-0.9495529;-0.0634785;;;;;;;;;;;;
2038.0;1929.8;;;;;;;;;;-33.15455;-113.250374;76.47557;;;;;;;;;
2038.0;1929.8;;;;;;;0.009033479;-0.9540086;-0.073427536;;;;;;;;;;;;
2038.0;1931.2;;;;;;;;;;;;;4023;;;;;;;;
2038.0;1931.2;;;;;;;;;;;;;4097;;;;;;;;
2038.0;1931.2;;;;;;;;;;;;;4377;;;;;;;;
2038.0;1931.2;;;;;;;;;;;;;4964;;;;;;;;
2038.0;1931.2;;;;;;;;;;;;;6018;;;;;;;;
2038.0;1938.9;;;;-0.27347186;1.3754312;-0.24583057;;;;;;;;;;;;;;;
2038.0;1938.9;;;;-0.27249148;1.3699495;-0.24317172;;;;;;;;;;;;;;;
2038.0;1938.9;;;;-0.2720528;1.3645631;-0.24188235;;;;;;;;;;;;;;;
2038.0;1938.9;;;;-0.2781792;1.359974;-0.24016574;;;;;;;;;;;;;;;
2038.0;1938.9;;;;-0.28216556;1.35524;-0.23912814;;;;;;;;;;;;;;;
2038.0;1939.0;;;;;;;;;;-33.948025;-120.63585;80.42771;;;;;;;;;
2038.0;1939.0;;;;;;;0.029663991;-0.9666433;-0.07708976;;;;;;;;;;;;
2038.0;1939.0;;;;;;;;;;-34.45158;-124.58418;84.33408;;;;;;;;;
2038.0;1939.0;;;;;;;0.048890654;-0.9834895;-0.08264413;;;;;;;;;;;;
2038.0;1945.4;262143;262143;13936;;;;;;;;;;;;;;;;;;
2044.0;1948.6;;;;;;;;;;-34.82543;-124.881744;88.190865;;;;;;;;;
2044.0;1948.6;;;;;;;0.07635731;-1.0028383;-0.09149449;;;;;;;;;;;;
2044.0;1948.6;;;;;;;;;;-35.47014;-124.881744;91.82256;;;;;;;;;
2044.0;1948.6;;;;;;;0.08917508;-1.0214545;-0.098391674;;;;;;;;;;;;
2044.0;1949.0;;;;-0.28463748;1.3496133;-0.2402573;;;;;;;;;;;;;;;
2044.0;1949.0;;;;-0.2855797;1.3450357;-0.24076465;;;;;;;;;;;;;;;
2044.0;1949.0;;;;-0.28745654;1.339821;-0.24097064;;;;;;;;;;;;;;;
2044.0;1949.0;;;;-0.28683475;1.3345643;-0.24079517;;;;;;;;;;;;;;;
2044.0;1949.0;;;;-0.283886;1.3292047;-0.2410622;;;;;;;;;;;;;;;
2044.0;1958.3;;;;;;;;;;-36.275063;-124.881744;96.04938;;;;;;;;;
2044.0;1958.3;;;;;;;0.109866634;-1.0401928;-0.10852382;;;;;;;;;;;;
2044.0;1958.3;;;;;;;;;;-37.163914;-124.881744;100.26093;;;;;;;;;
2044.0;1958.3;;;;;;;0.13049714;-1.0575885;-0.112857446;;;;;;;;;;;;
2044.0;1959.1;;;;-0.2842522;1.32362;-0.24229053;;;;;;;;;;;;;;;
2044.0;1959.1;;;;-0.2878342;1.3181916;-0.24138263;;;;;;;;;;;;;;;
2044.0;1959.1;;;;-0.28990176;1.3136979;-0.24161914;;;;;;;;;;;;;;;
2044.0;1959.1;;;;-0.28824618;1.30859;-0.24276355;;;;;;;;;;;;;;;
2044.0;1959.1;;;;-0.28696445;1.3031274;-0.24356464;;;;;;;;;;;;;;;
2044.0;1965.6;262143;262143;13921;;;;;;;;;;;;;;;;;;
2046.0;1966.8;;;;;;;;;;;;;;;;;5.0927763;-45.38484;89.56419;;1852.8
2046.0;1966.8;;;;;;;;;;;;;;0.7477035;0.5034944;-0.17389446;;;;;1852.8
2046.0;1966.8;;;;;;;;;;;;;;;;;8.6901455;-52.926727;94.96979;;1852.8
2046.0;1966.8;;;;;;;;;;;;;;0.75319684;0.47761467;-0.21936704;;;;;1852.8
2046.0;1966.8;;;;;;;;;;;;;;;;;11.303292;-57.90124;99.29197;;1862.4
2046.0;1966.8;;;;;;;;;;;;;;0.7629017;0.43916136;-0.26276436;;;;;1862.4
2046.0;1966.8;;;;;;;;;;;;;;;;;12.112034;-59.31654;102.54219;;1862.4
2046.0;1966.8;;;;;;;;;;;;;;0.7773675;0.39667958;-0.29621264;;;;;1862.4
2046.0;1966.8;;;;;;;;;;;;;;;;;10.902738;-57.279427;104.87305;;1871.9
2046.0;1966.8;;;;;;;;;;;;;;0.7911008;0.35224465;-0.31763664;;;;;1871.9
2046.0;1966.8;;;;;;;;;;;;;;;;;8.190405;-52.62917;106.30741;;1871.9
2046.0;1966.8;;;;;;;;;;;;;;0.80538344;0.30445266;-0.3234962;;;;;1871.9
2046.0;1967.7;;;;;;;;;;;;;;;;;5.237739;-46.445354;106.997894;;1881.6
2046.0;1967.7;;;;;;;;;;;;;;0.8166753;0.2563555;-0.32245857;;;;;1881.6
2046.0;1967.7;;;;;;;;;;;;;;;;;1.9951477;-39.517654;107.0246;;1881.6
2046.0;1967.7;;;;;;;;;;;;;;0.81966615;0.21832941;-0.30878627;;;;;1881.6
2046.0;1967.7;;;;;;;;;;;;;;;;;-1.6060365;-34.91699;106.39516;;1891.2
2046.0;1967.7;;;;;;;;;;;;;;0.8252205;0.18378246;-0.2903531;;;;;1891.2
2046.0;1967.7;;;;;;;;;;;;;;;;;-5.298776;-32.757805;104.84634;;1891.2
2046.0;1967.7;;;;;;;;;;;;;;0.84163946;0.16510513;-0.2857143;;;;;1891.2
2046.0;1967.7;;;;;;;;;;;;;;;;;-7.976775;-32.422104;102.423935;;1900.8
2046.0;1967.7;;;;;;;;;;;;;;0.855739;0.15576647;-0.2910245;;;;;1900.8
2046.0;1967.7;;;;;;;;;;;;;;;;;-9.292887;-33.77255;99.30723;;1900.8
2046.0;1967.7;;;;;;;;;;;;;;0.8758812;0.16089359;-0.30671102;;;;;1900.8
2047.0;1967.8;;;;;;;;;;-37.907806;-124.881744;104.52208;;;;;;;;;
2047.0;1967.8;;;;;;;0.15839106;-1.0798669;-0.10803553;;;;;;;;;;;;
2047.0;1967.8;;;;;;;;;;-38.20536;-124.881744;108.34453;;;;;;;;;
2047.0;1967.8;;;;;;;0.18189032;-1.0952482;-0.10211493;;;;;;;;;;;;
2047.0;1969.1;;;;-0.28885272;1.298443;-0.2434273;;;;;;;;;;;;;;;
2047.0;1969.1;;;;-0.28984836;1.2940599;-0.24381259;;;;;;;;;;;;;;;
2047.0;1969.1;;;;-0.29414752;1.2904283;-0.24433902;;;;;;;;;;;;;;;
2047.0;1969.1;;;;-0.29269412;1.2866517;-0.24527743;;;;;;;;;;;;;;;
2047.0;1969.1;;;;-0.29340747;1.2834665;-0.24605563;;;;;;;;;;;;;;;
2047.0;1971.4;;;;;;;;;;;;;7188;;;;;;;;
2047.0;1971.4;;;;;;;;;;;;;7674;;;;;;;;
2047.0;1971.4;;;;;;;;;;;;;7253;;;;;;;;
2047.0;1971.4;;;;;;;;;;;;;6496;;;;;;;;
2047.0;1971.4;;;;;;;;;;;;;5611;;;;;;;;
2047.0;1977.4;;;;;;;;;;-38.033695;-124.881744;112.23945;;;;;;;;;
2047.0;1977.4;;;;;;;0.20557268;-1.1112399;-0.09149449;;;;;;;;;;;;
2047.0;1977.4;;;;;;;;;;-37.591175;-124.881744;115.81011;;;;;;;;;
2047.0;1977.4;;;;;;;0.22724082;-1.1217993;-0.08105716;;;;;;;;;;;;
2047.0;1979.2;;;;-0.29383472;1.2815706;-0.2467728;;;;;;;;;;;;;;;
2047.0;1979.2;;;;-0.2918053;1.2798616;-0.24823764;;;;;;;;;;;;;;;
2047.0;1979.2;;;;-0.29332736;1.2783967;-0.24782565;;;;;;;;;;;;;;;
2047.0;1979.2;;;;-0.29135135;1.2777253;-0.24744037;;;;;;;;;;;;;;;
2047.0;1979.2;;;;-0.28767398;1.2778398;-0.24742511;;;;;;;;;;;;;;;
2047.0;1985.7;262143;262143;13926;;;;;;;;;;;;;;;;;;
2098.0;1986.9;;;;;;;;;;-36.774803;-124.881744;119.39986;;;;;;;;;
2098.0;1986.9;;;;;;;0.2417066;-1.1324809;-0.069093905;;;;;;;;;;;;
2098.0;1986.9;;;;;;;;;;-35.946987;-124.881744;123.13074;;;;;;;;;
2098.0;1986.9;;;;;;;0.2586749;-1.1408429;-0.051942505;;;;;;;;;;;;
2098.0;1989.2;;;;-0.2858086;1.2777177;-0.24794772;;;;;;;;;;;;;;;
2098.0;1989.2;;;;-0.27585986;1.2775728;-0.24616244;;;;;;;;;;;;;;;
2098.0;1989.2;;;;-0.27196887;1.279133;-0.24562839;;;;;;;;;;;;;;;
2098.0;1989.2;;;;-0.26541522;1.2802697;-0.24460986;;;;;;;;;;;;;;;
2098.0;1989.2;;;;-0.25730518;1.2803613;-0.24475864;;;;;;;;;;;;;;;
2098.0;1996.1;;;;;;;;;;-35.18021;-124.881744;124.81307;;;;;;;;;
2098.0;1996.1;;;;;;;0.26514482;-1.1521958;-0.029236732;;;;;;;;;;;;
2098.0;1996.1;;;;;;;;;;-34.543137;-124.881744;124.881744;;;;;;;;;
2098.0;1996.1;;;;;;;0.27710807;-1.1647084;6.714072E-4;;;;;;;;;;;;
2098.0;1998.8;;;;-0.2511597;1.2805749;-0.24434283;;;;;;;;;;;;;;;
2098.0;1998.8;;;;-0.23707584;1.280449;-0.24200824;;;;;;;;;;;;;;;
2098.0;1998.8;;;;-0.22777942;1.2796899;-0.24024966;;;;;;;;;;;;;;;
2098.0;1998.8;;;;-0.22039416;1.2795106;-0.23905948;;;;;;;;;;;;;;;
2098.0;1998.8;;;;-0.21239093;1.2786561;-0.23802951;;;;;;;;;;;;;;;
2098.0;2005.7;;;;;;;;;;-33.49788;-124.881744;124.881744;;;;;;;;;
2098.0;2005.7;;;;;;;0.28644672;-1.1749016;0.02417066;;;;;;;;;;;;
2098.0;2005.7;;;;;;;;;;-32.05588;-124.881744;124.881744;;;;;;;;;
2098.0;2005.7;;;;;;;0.29291666;-1.1822871;0.0397351;;;;;;;;;;;;
2098.0;2005.5;262143;262143;13919;;;;;;;;;;;;;;;;;;
2099.0;2009.0;;;;-0.20204929;1.2775003;-0.23530963;;;;;;;;;;;;;;;
2099.0;2009.0;;;;-0.18910983;1.276085;-0.23428348;;;;;;;;;;;;;;;
2099.0;2009.0;;;;-0.17831804;1.2758905;-0.23030475;;;;;;;;;;;;;;;
2099.0;2009.0;;;;-0.17121507;1.2756196;-0.22614291;;;;;;;;;;;;;;;
2099.0;2009.0;;;;-0.16298296;1.2746507;-0.22135928;;;;;;;;;;;;;;;
2099.0;2011.4;;;;;;;;;;;;;4154;;;;;;;;
2099.0;2011.4;;;;;;;;;;;;;2224;;;;;;;;
2099.0;2011.4;;;;;;;;;;;;;795;;;;;;;;
2099.0;2011.4;;;;;;;;;;;;;419;;;;;;;;
2099.0;2011.4;;;;;;;;;;;;;618;;;;;;;;
2099.0;2015.3;;;;;;;;;;-31.2891;-124.881744;124.881744;;;;;;;;;
2099.0;2015.3;;;;;;;0.30780968;-1.1729484;0.057374798;;;;;;;;;;;;
2099.0;2015.3;;;;;;;;;;-30.751213;-124.881744;124.881744;;;;;;;;;
2099.0;2015.3;;;;;;;0.3180639;-1.2008423;0.077761166;;;;;;;;;;;;
2099.0;2019.1;;;;-0.14971162;1.2735215;-0.21588138;;;;;;;;;;;;;;;
2099.0;2019.1;;;;-0.13754274;1.272072;-0.20993426;;;;;;;;;;;;;;;
2099.0;2019.1;;;;-0.12165071;1.2707559;-0.2036362;;;;;;;;;;;;;;;
2099.0;2019.1;;;;-0.10569765;1.2688714;-0.19749072;;;;;;;;;;;;;;;
2099.0;2019.1;;;;-0.08524705;1.26606;-0.1935921;;;;;;;;;;;;;;;
2099.0;2025.0;;;;;;;;;;-29.38551;-124.82833;124.881744;;;;;;;;;
2099.0;2025.0;;;;;;;0.3284402;-1.2067019;0.08728294;;;;;;;;;;;;
2099.0;2025.0;;;;;;;;;;-27.638325;-124.05011;124.881744;;;;;;;;;
2099.0;2025.0;;;;;;;0.33954895;-1.1987671;0.09576708;;;;;;;;;;;;
2099.0;2025.7;262143;262143;13907;;;;;;;;;;;;;;;;;;
2101.0;2026.7;;;;;;;;;;;;;;;;;-9.025849;-35.53499;95.61831;;1910.5
2101.0;2026.7;;;;;;;;;;;;;;0.8989532;0.17188025;-0.32160404;;;;;1910.5
2101.0;2026.7;;;;;;;;;;;;;;;;;-7.8508863;-36.568806;91.09775;;1910.5
2101.0;2026.7;;;;;;;;;;;;;;0.9355754;0.19873653;-0.33594775;;;;;1910.5
2101.0;2026.7;;;;;;;;;;;;;;;;;-6.3402205;-36.091953;87.16468;;1920.1
2101.0;2026.7;;;;;;;;;;;;;;0.97286904;0.23303933;-0.34998626;;;;;1920.1
2101.0;2026.7;;;;;;;;;;;;;;;;;-4.9783316;-35.05432;83.468124;;1920.1
2101.0;2026.7;;;;;;;;;;;;;;1.0113834;0.26636556;-0.3698233;;;;;1920.1
2101.0;2026.7;;;;;;;;;;;;;;;;;-3.6622212;-33.627583;80.72146;;1929.8
2101.0;2026.7;;;;;;;;;;;;;;1.0490433;0.30500197;-0.37110507;;;;;1929.8
2101.0;2026.7;;;;;;;;;;;;;;;;;-2.8763695;-32.727287;78.89797;;1929.8
2101.0;2026.7;;;;;;;;;;;;;;1.0773034;0.32557145;-0.35254982;;;;;1929.8
2101.0;2027.4;;;;;;;;;;;;;;;;;-2.277444;-34.241768;77.608574;;1939.4
2101.0;2027.4;;;;;;;;;;;;;;1.0995818;0.34308907;-0.33942688;;;;;1939.4
2101.0;2027.4;;;;;;;;;;;;;;;;;-2.5864437;-36.8511;77.05924;;1939.4
2101.0;2027.4;;;;;;;;;;;;;;1.1139256;0.344615;-0.34717858;;;;;1939.4
2101.0;2027.4;;;;;;;;;;;;;;;;;-2.6284068;-38.377026;76.58239;;1949.0
2101.0;2027.4;;;;;;;;;;;;;;1.1292459;0.33545947;-0.3524888;;;;;1949.0
2101.0;2027.4;;;;;;;;;;;;;;;;;-1.7166661;-38.95688;76.03305;;1949.0
2101.0;2027.4;;;;;;;;;;;;;;1.1380962;0.32544938;-0.34943694;;;;;1949.0
2101.0;2027.4;;;;;;;;;;;;;;;;;0.17166662;-38.445694;75.36165;;1958.7
2101.0;2027.4;;;;;;;;;;;;;;1.1458479;0.3098239;-0.35358745;;;;;1958.7
2101.0;2027.4;;;;;;;;;;;;;;;;;3.9178138;-36.790062;75.04883;;1958.7
2101.0;2027.4;;;;;;;;;;;;;;1.1429793;0.29548022;-0.33478805;;;;;1958.7
2103.0;2029.1;;;;-0.060680397;1.2631532;-0.1906319;;;;;;;;;;;;;;;
2103.0;2029.1;;;;-0.033523563;1.2598153;-0.18998721;;;;;;;;;;;;;;;
2103.0;2029.1;;;;-0.0032653813;1.2557489;-0.19306949;;;;;;;;;;;;;;;
2103.0;2029.1;;;;0.027214054;1.2513276;-0.19901279;;;;;;;;;;;;;;;
2103.0;2029.1;;;;0.058185585;1.2452585;-0.20729831;;;;;;;;;;;;;;;
2103.0;2034.5;;;;;;;;;;-25.860622;-122.32581;124.881744;;;;;;;;;
2103.0;2034.5;;;;;;;0.34986418;-1.1897336;0.10425123;;;;;;;;;;;;
2103.0;2034.5;;;;;;;;;;-24.601734;-120.983;124.881744;;;;;;;;;
2103.0;2034.5;;;;;;;0.3533433;-1.1905881;0.105960265;;;;;;;;;;;;
2103.0;2039.2;;;;0.09381868;1.2371217;-0.21748737;;;;;;;;;;;;;;;
2103.0;2039.2;;;;0.1310425;1.2273027;-0.2332268;;;;;;;;;;;;;;;
2103.0;2039.2;;;;0.16646959;1.2158204;-0.25088504;;;;;;;;;;;;;;;
2103.0;2039.2;;;;0.20116809;1.2034036;-0.2671242;;;;;;;;;;;;;;;
2103.0;2039.2;;;;0.24047092;1.1899568;-0.28367618;;;;;;;;;;;;;;;
2103.0;2044.0;;;;;;;;;;-23.918882;-120.467995;124.881744;;;;;;;;;
2103.0;2044.0;;;;;;;0.35749382;-1.18894;0.11090426;;;;;;;;;;;;
2103.0;2044.0;;;;;;;;;;-22.907955;-120.37644;124.881744;;;;;;;;;
2103.0;2044.0;;;;;;;0.3642079;-1.1849116;0.117984556;;;;;;;;;;;;
2103.0;2045.8;262143;262143;13897;;;;;;;;;;;;;;;;;;
2159.0;2049.2;;;;0.2866135;1.1752282;-0.2991219;;;;;;;;;;;;;;;
2159.0;2049.2;;;;0.3256531;1.1598397;-0.31349185;;;;;;;;;;;;;;;
2159.0;2049.2;;;;0.3635178;1.1429864;-0.33008578;;;;;;;;;;;;;;;
2159.0;2049.2;;;;0.40305716;1.1247598;-0.34686664;;;;;;;;;;;;;;;
2159.0;2049.2;;;;0.43975836;1.1077043;-0.36153796;;;;;;;;;;;;;;;
2159.0;2051.6;;;;;;;;;;;;;788;;;;;;;;
2159.0;2051.6;;;;;;;;;;;;;867;;;;;;;;
2159.0;2051.6;;;;;;;;;;;;;945;;;;;;;;
2159.0;2051.6;;;;;;;;;;;;;964;;;;;;;;
2159.0;2051.6;;;;;;;;;;;;;1010;;;;;;;;
2159.0;2053.5;;;;;;;;;;-21.694845;-120.68544;124.881744;;;;;;;;;
2159.0;2053.5;;;;;;;0.37269205;-1.1747795;0.12909329;;;;;;;;;;;;
2159.0;2053.5;;;;;;;;;;-20.15366;-121.54759;124.881744;;;;;;;;;
2159.0;2053.5;;;;;;;0.37861264;-1.1864376;0.135197;;;;;;;;;;;;
2159.0;2059.0;;;;0.47431952;1.0905572;-0.37057117;;;;;;;;;;;;;;;
2159.0;2059.0;;;;0.5050431;1.071827;-0.3752938;;;;;;;;;;;;;;;
2159.0;2059.0;;;;0.5319329;1.0544206;-0.37865454;;;;;;;;;;;;;;;
2159.0;2059.0;;;;0.5573388;1.038582;-0.38014227;;;;;;;;;;;;;;;
2159.0;2059.0;;;;0.5852509;1.0245286;-0.37946707;;;;;;;;;;;;;;;
2159.0;2063.0;;;;;;;;;;-19.035921;-122.30674;124.881744;;;;;;;;;
2159.0;2063.0;;;;;;;0.39014864;-1.2032228;0.14734337;;;;;;;;;;;;
2159.0;2063.0;;;;;;;;;;-17.960142;-122.85226;124.881744;;;;;;;;;
2159.0;2063.0;;;;;;;0.4034547;-1.2037721;0.16364025;;;;;;;;;;;;
2159.0;2065.8;262143;262143;13903;;;;;;;;;;;;;;;;;;
2160.0;2069.1;;;;0.60514456;1.0045129;-0.3740616;;;;;;;;;;;;;;;
2160.0;2069.1;;;;0.62027746;0.9730035;-0.38035208;;;;;;;;;;;;;;;
2160.0;2069.1;;;;0.62730795;0.9533578;-0.37967306;;;;;;;;;;;;;;;
2160.0;2069.1;;;;0.63992316;0.9357339;-0.37749106;;;;;;;;;;;;;;;
2160.0;2069.1;;;;0.647564;0.9395181;-0.36814883;;;;;;;;;;;;;;;
2160.0;2072.6;;;;;;;;;;-16.544847;-123.86318;124.881744;;;;;;;;;
2160.0;2072.6;;;;;;;0.41846982;-1.2039552;0.1848201;;;;;;;;;;;;
2160.0;2072.6;;;;;;;;;;-14.717551;-124.68719;124.881744;;;;;;;;;
2160.0;2072.6;;;;;;;0.44227424;-1.2104862;0.20844142;;;;;;;;;;;;
2160.0;2079.3;;;;0.65570456;0.9104539;-0.36738208;;;;;;;;;;;;;;;
2160.0;2079.3;;;;0.63727576;0.89397824;-0.33873752;;;;;;;;;;;;;;;
2160.0;2079.3;;;;0.6334725;0.88227856;-0.32341388;;;;;;;;;;;;;;;
2160.0;2079.3;;;;0.6217385;0.8642427;-0.3160973;;;;;;;;;;;;;;;
2160.0;2079.3;;;;0.6119843;0.848137;-0.30726245;;;;;;;;;;;;;;;
2160.0;2082.3;;;;;;;;;;-12.703329;-124.881744;124.881744;;;;;;;;;
2160.0;2082.3;;;;;;;0.46565142;-1.2270272;0.23718986;;;;;;;;;;;;
2160.0;2082.3;;;;;;;;;;-10.364849;-124.881744;124.881744;;;;;;;;;
2160.0;2082.3;;;;;;;0.48829615;-1.2442397;0.2611774;;;;;;;;;;;;
2160.0;2086.1;262143;262143;13883;;;;;;;;;;;;;;;;;;
2161.0;2087.0;;;;;;;;;;;;;;;;;8.537553;-35.271767;74.98398;;1968.3
2161.0;2087.0;;;;;;;;;;;;;;1.1311991;0.28809473;-0.30030215;;;;;1968.3
2161.0;2087.0;;;;;;;;;;;;;;;;;12.924589;-36.18732;75.07172;;1968.3
2161.0;2087.0;;;;;;;;;;;;;;1.1169164;0.28431043;-0.2699057;;;;;1968.3
2161.0;2087.0;;;;;;;;;;;;;;;;;15.816217;-39.338356;75.34639;;1978.0
2161.0;2087.0;;;;;;;;;;;;;;1.1167333;0.2834559;-0.2496414;;;;;1978.0
2161.0;2087.0;;;;;;;;;;;;;;;;;17.456587;-43.115025;75.50279;;1978.0
2161.0;2087.0;;;;;;;;;;;;;;1.1247292;0.28864408;-0.23120824;;;;;1978.0
2161.0;2087.0;;;;;;;;;;;;;;;;;18.097477;-46.838284;75.53331;;1987.6
2161.0;2087.0;;;;;;;;;;;;;;1.1438948;0.30079043;-0.21430098;;;;;1987.6
2161.0;2087.0;;;;;;;;;;;;;;;;;17.780846;-51.175724;75.43031;;1987.6
2161.0;2087.0;;;;;;;;;;;;;;1.1728263;0.31946775;-0.2125309;;;;;1987.6
2161.0;2088.1;;;;;;;;;;;;;;;;;15.949736;-55.078278;75.07935;;1997.1
2161.0;2088.1;;;;;;;;;;;;;;1.2100589;0.34650716;-0.2313303;;;;;1997.1
2161.0;2088.1;;;;;;;;;;;;;;;;;13.2107;-57.515945;74.0379;;1997.1
2161.0;2088.1;;;;;;;;;;;;;;1.2526628;0.38080996;-0.2547075;;;;;1997.1
2161.0;2088.1;;;;;;;;;;;;;;;;;9.533219;-57.893612;72.35557;;2006.7
2161.0;2088.1;;;;;;;;;;;;;;1.300821;0.41987365;-0.28711814;;;;;2006.7
2161.0;2088.1;;;;;;;;;;;;;;;;;4.5587025;-56.27613;69.784386;;2006.7
2161.0;2088.1;;;;;;;;;;;;;;1.3501999;0.4701071;-0.32563248;;;;;2006.7
2161.0;2088.1;;;;;;;;;;;;;;;;;-1.1139256;-52.175205;67.0301;;2016.4
2161.0;2088.1;;;;;;;;;;;;;;1.3923154;0.51850945;-0.36628315;;;;;2016.4
2161.0;2088.1;;;;;;;;;;;;;;;;;-7.045961;-44.12977;64.00113;;2016.4
2161.0;2088.1;;;;;;;;;;;;;;1.4161199;0.57167274;-0.39106417;;;;;2016.4
2164.0;2089.3;;;;0.6021653;0.8362161;-0.3018265;;;;;;;;;;;;;;;
2164.0;2089.3;;;;0.58560187;0.8223916;-0.29869464;;;;;;;;;;;;;;;
2164.0;2089.3;;;;0.5656052;0.80957806;-0.29120257;;;;;;;;;;;;;;;
2164.0;2089.3;;;;0.55037314;0.80017865;-0.28559116;;;;;;;;;;;;;;;
2164.0;2089.3;;;;0.51765066;0.79805005;-0.26560977;;;;;;;;;;;;;;;
2164.0;2091.7;;;;;;;;;;-7.648701;-124.881744;124.881744;;;;;;;;;
2164.0;2091.7;;;;;;;0.5133824;-1.2576067;0.28119755;;;;;;;;;;;;
2164.0;2091.7;;;;;;;;;;-4.421369;-124.881744;124.881744;;;;;;;;;
2164.0;2091.7;;;;;;;0.5431074;-1.2673726;0.30060732;;;;;;;;;;;;
2164.0;2091.8;;;;;;;;;;;;;1513;;;;;;;;
2164.0;2091.8;;;;;;;;;;;;;2442;;;;;;;;
2164.0;2091.8;;;;;;;;;;;;;3074;;;;;;;;
2164.0;2091.8;;;;;;;;;;;;;2994;;;;;;;;
2164.0;2091.8;;;;;;;;;;;;;2377;;;;;;;;
2164.0;2099.4;;;;0.48998266;0.79503644;-0.25345233;;;;;;;;;;;;;;;
2164.0;2099.4;;;;0.4673615;0.79270566;-0.25143054;;;;;;;;;;;;;;;
2164.0;2099.4;;;;0.44519812;0.80620587;-0.24929813;;;;;;;;;;;;;;;
2164.0;2099.4;;;;0.41630942;0.80677044;-0.24459842;;;;;;;;;;;;;;;
2164.0;2099.4;;;;0.39296347;0.8001443;-0.23775867;;;;;;;;;;;;;;;
2164.0;2101.3;;;;;;;;;;-0.8316294;-124.881744;124.881744;;;;;;;;;
2164.0;2101.3;;;;;;;0.55922115;-1.266274;0.3202002;;;;;;;;;;;;
2164.0;2101.3;;;;;;;;;;2.9755547;-124.881744;124.881744;;;;;;;;;
2164.0;2101.3;;;;;;;0.62367624;-1.2813501;0.3424177;;;;;;;;;;;;
2217.0;2101.9;;;;;;;;;;;;;;;;;-10.235145;-30.602434;60.857723;;2026.1
2217.0;2101.9;;;;;;;;;;;;;;1.4181341;0.6272164;-0.36640522;;;;;2026.1
2217.0;2101.9;;;;;;;;;;;;;;;;;-9.128849;-11.474959;58.30943;;2026.1
2217.0;2101.9;;;;;;;;;;;;;;1.3890805;0.6994232;-0.2618488;;;;;2026.1
2217.0;2101.9;;;;;;;;;;;;;;;;;-6.5424056;8.011109;58.15302;;2035.8
2217.0;2101.9;;;;;;;;;;;;;;1.3132725;0.7497177;-0.117069006;;;;;2035.8
2217.0;2101.9;;;;;;;;;;;;;;;;;-4.669332;20.535141;59.415726;;2035.8
2217.0;2101.9;;;;;;;;;;;;;;1.213355;0.78811;0.010010071;;;;;2035.8
2217.0;2101.9;;;;;;;;;;;;;;;;;-5.6573687;23.957031;61.517685;;2045.4
2217.0;2101.9;;;;;;;;;;;;;;1.1061128;0.806238;0.09857479;;;;;2045.4
2217.0;2101.9;;;;;;;;;;;;;;;;;-8.575701;19.455551;64.146095;;2045.4
2217.0;2101.9;;;;;;;;;;;;;;1.0127262;0.8136235;0.1633961;;;;;2045.4
2217.0;2106.0;262143;262143;13891;;;;;;;;;;;;;;;;;;
2217.0;2109.2;;;;0.32961276;0.8121797;-0.2194939;;;;;;;;;;;;;;;
2217.0;2109.2;;;;0.29759982;0.8215524;-0.21578982;;;;;;;;;;;;;;;
2217.0;2109.2;;;;0.284153;0.83446133;-0.22278598;;;;;;;;;;;;;;;
2217.0;2109.2;;;;0.2550812;0.83400357;-0.21743396;;;;;;;;;;;;;;;
2217.0;2109.2;;;;0.23130038;0.84614956;-0.21289447;;;;;;;;;;;;;;;
2217.0;2110.6;;;;;;;;;;7.2443314;-124.881744;124.881744;;;;;;;;;
2217.0;2110.6;;;;;;;0.6563921;-1.2892239;0.35578477;;;;;;;;;;;;
2217.0;2110.6;;;;;;;;;;11.421552;-124.881744;124.881744;;;;;;;;;
2217.0;2110.6;;;;;;;0.6834315;-1.2896512;0.36732078;;;;;;;;;;;;
2221.0;2119.0;;;;0.20860294;0.8578378;-0.20776752;;;;;;;;;;;;;;;
2221.0;2119.0;;;;0.18919757;0.8683206;-0.20377734;;;;;;;;;;;;;;;
2221.0;2119.0;;;;0.17323305;0.8778688;-0.19731525;;;;;;;;;;;;;;;
2221.0;2119.0;;;;0.16060258;0.88824856;-0.19215396;;;;;;;;;;;;;;;
2221.0;2119.0;;;;0.14891817;0.8987123;-0.19049457;;;;;;;;;;;;;;;
2221.0;2120.0;;;;;;;;;;15.614033;-124.881744;124.881744;;;;;;;;;
2221.0;2120.0;;;;;;;0.7127903;-1.281167;0.37733084;;;;;;;;;;;;
2221.0;2120.0;;;;;;;;;;19.840845;-124.881744;124.881744;;;;;;;;;
2221.0;2120.0;;;;;;;0.70625937;-1.2593157;0.38178656;;;;;;;;;;;;
2221.0;2125.9;262143;262143;13891;;;;;;;;;;;;;;;;;;
2221.0;2129.1;;;;0.14295961;0.9085809;-0.19370273;;;;;;;;;;;;;;;
2221.0;2129.1;;;;0.14163591;0.9166337;-0.1978226;;;;;;;;;;;;;;;
2221.0;2129.1;;;;0.13969804;0.9254724;-0.19878772;;;;;;;;;;;;;;;
2221.0;2129.1;;;;0.14161302;0.9316598;-0.20079044;;;;;;;;;;;;;;;
2221.0;2129.1;;;;0.14736177;0.9351274;-0.20469669;;;;;;;;;;;;;;;
2221.0;2129.6;;;;;;;;;;23.049105;-124.881744;124.881744;;;;;;;;;
2221.0;2129.6;;;;;;;0.77968687;-1.2576678;0.38868374;;;;;;;;;;;;
2221.0;2129.6;;;;;;;;;;25.92166;-124.881744;124.881744;;;;;;;;;
2221.0;2129.6;;;;;;;0.84292126;-1.2611469;0.38575396;;;;;;;;;;;;
2221.0;2131.8;;;;;;;;;;;;;1747;;;;;;;;
2221.0;2131.8;;;;;;;;;;;;;1633;;;;;;;;
2221.0;2131.8;;;;;;;;;;;;;2037;;;;;;;;
2221.0;2131.8;;;;;;;;;;;;;2143;;;;;;;;
2221.0;2131.8;;;;;;;;;;;;;1385;;;;;;;;
2224.0;2139.2;;;;0.1582718;0.9364015;-0.21455005;;;;;;;;;;;;;;;
2224.0;2139.2;;;;0.16586687;0.9363595;-0.22201923;;;;;;;;;;;;;;;
2224.0;2139.2;;;;0.16934206;0.9366113;-0.22347644;;;;;;;;;;;;;;;
2224.0;2139.2;;;;0.17470552;0.9372293;-0.22092822;;;;;;;;;;;;;;;
2224.0;2139.2;;;;0.183136;0.9375459;-0.22080234;;;;;;;;;;;;;;;
2224.0;2139.3;;;;;;;;;;29.755548;-124.881744;124.881744;;;;;;;;;
2224.0;2139.3;;;;;;;0.88753927;-1.274636;0.36610004;;;;;;;;;;;;
2224.0;2139.3;;;;;;;;;;33.46736;-124.881744;124.87411;;;;;;;;;
2224.0;2139.3;;;;;;;0.9292886;-1.2856227;0.3389996;;;;;;;;;;;;
2224.0;2146.2;262143;262143;13890;;;;;;;;;;;;;;;;;;
2224.0;2146.9;;;;;;;;;;;;;;;;;-13.481552;12.073886;65.168465;;2055.0
2224.0;2146.9;;;;;;;;;;;;;;0.9450362;0.80996126;0.20844142;;;;;2055.0
2224.0;2146.9;;;;;;;;;;;;;;;;;-18.765068;4.909665;64.939575;;2055.0
2224.0;2146.9;;;;;;;;;;;;;;0.9037141;0.7941527;0.21784112;;;;;2055.0
2224.0;2146.9;;;;;;;;;;;;;;;;;-27.035585;-0.2517777;64.203316;;2064.7
2224.0;2146.9;;;;;;;;;;;;;;0.89474165;0.7611927;0.19055757;;;;;2064.7
2224.0;2146.9;;;;;;;;;;;;;;;;;-36.41621;-4.974517;63.669243;;2064.7
2224.0;2146.9;;;;;;;;;;;;;;0.893582;0.7132786;0.14239937;;;;;2064.7
2224.0;2146.9;;;;;;;;;;;;;;;;;-43.4431;-10.742516;61.857204;;2074.3
2224.0;2146.9;;;;;;;;;;;;;;0.9259926;0.68239385;0.0883816;;;;;2074.3
2224.0;2146.9;;;;;;;;;;;;;;;;;-47.997986;-15.869625;59.957424;;2074.3
2224.0;2146.9;;;;;;;;;;;;;;0.98245186;0.6652425;0.020630512;;;;;2074.3
2226.0;2148.7;;;;;;;;;;36.900692;-124.881744;123.78307;;;;;;;;;
2226.0;2148.7;;;;;;;0.9690237;-1.2762231;0.3120823;;;;;;;;;;;;
2226.0;2148.7;;;;;;;;;;40.18906;-124.881744;119.02982;;;;;;;;;
2226.0;2148.7;;;;;;;1.0030824;-1.2622455;0.28736228;;;;;;;;;;;;
2226.0;2149.1;;;;0.19591144;0.93527234;-0.23000339;;;;;;;;;;;;;;;
2226.0;2149.1;;;;0.20530322;0.9321519;-0.23539355;;;;;;;;;;;;;;;
2226.0;2149.1;;;;0.21327212;0.9290544;-0.2377396;;;;;;;;;;;;;;;
2226.0;2149.1;;;;0.21841815;0.9253236;-0.23698047;;;;;;;;;;;;;;;
2226.0;2149.1;;;;0.22212222;0.91967404;-0.23410037;;;;;;;;;;;;;;;
2226.0;2158.2;;;;;;;;;;42.744987;-124.881744;113.86837;;;;;;;;;
2226.0;2158.2;;;;;;;1.0367137;-1.249794;0.26929533;;;;;;;;;;;;
2226.0;2158.2;;;;;;;;;;44.57228;-124.881744;109.962;;;;;;;;;
2226.0;2158.2;;;;;;;1.0565507;-1.238258;0.25049594;;;;;;;;;;;;
2226.0;2159.1;;;;0.22560123;0.9122888;-0.2342911;;;;;;;;;;;;;;;
2226.0;2159.1;;;;0.22690967;0.9038507;-0.23499683;;;;;;;;;;;;;;;
2226.0;2159.1;;;;0.22444919;0.89543927;-0.23194125;;;;;;;;;;;;;;;
2226.0;2159.1;;;;0.22153476;0.8860322;-0.228344;;;;;;;;;;;;;;;
2226.0;2159.1;;;;0.21732715;0.8765336;-0.22436908;;;;;;;;;;;;;;;
2227.0;2162.1;;;;;;;;;;;;;;;;;-49.69939;-15.95355;57.752464;;2083.9
2227.0;2162.1;;;;;;;;;;;;;;1.0350658;0.65163124;-0.054628134;;;;;2083.9
2227.0;2162.1;;;;;;;;;;;;;;;;;-49.176765;-9.674368;54.052097;;2083.9
2227.0;2162.1;;;;;;;;;;;;;;1.0860317;0.6407666;-0.11847285;;;;;2083.9
2227.0;2162.1;;;;;;;;;;;;;;;;;-48.242134;1.903592;48.955505;;2093.6
2227.0;2162.1;;;;;;;;;;;;;;1.114597;0.6342967;-0.13794367;;;;;2093.6
2227.0;2162.1;;;;;;;;;;;;;;;;;-47.05191;14.191107;41.997284;;2093.6
2227.0;2162.1;;;;;;;;;;;;;;1.1172826;0.6240425;-0.12244026;;;;;2093.6
2227.0;2162.1;;;;;;;;;;;;;;;;;-47.048096;23.903624;33.413956;;2103.1
2227.0;2162.1;;;;;;;;;;;;;;1.1028779;0.6308176;-0.11725211;;;;;2103.1
2227.0;2162.1;;;;;;;;;;;;;;;;;-49.668873;30.705435;23.651846;;2103.1
2227.0;2162.1;;;;;;;;;;;;;;1.0580157;0.6636555;-0.14166692;;;;;2103.1
2227.0;2165.9;262143;262143;13883;;;;;;;;;;;;;;;;;;
2227.0;2167.6;;;;;;;;;;45.762505;-124.881744;107.01315;;;;;;;;;
2227.0;2167.6;;;;;;;1.0938444;-1.2345347;0.23645741;;;;;;;;;;;;
2227.0;2167.6;;;;;;;;;;47.086246;-124.881744;102.59941;;;;;;;;;
2227.0;2167.6;;;;;;;1.1215552;-1.2156743;0.22577593;;;;;;;;;;;;
2227.0;2169.0;;;;0.21157077;0.86865246;-0.21906283;;;;;;;;;;;;;;;
2227.0;2169.0;;;;0.20444492;0.86462414;-0.20986941;;;;;;;;;;;;;;;
2227.0;2169.0;;;;0.19704822;0.8613969;-0.20007327;;;;;;;;;;;;;;;
2227.0;2169.0;;;;0.18898395;0.8609277;-0.1903458;;;;;;;;;;;;;;;
2227.0;2169.0;;;;0.17978288;0.8625413;-0.18030931;;;;;;;;;;;;;;;
2278.0;2171.7;;;;;;;;;;;;;714;;;;;;;;
2278.0;2171.7;;;;;;;;;;;;;1136;;;;;;;;
2278.0;2171.7;;;;;;;;;;;;;2146;;;;;;;;
2278.0;2171.7;;;;;;;;;;;;;2577;;;;;;;;
2278.0;2171.7;;;;;;;;;;;;;2108;;;;;;;;
2278.0;2177.0;;;;;;;;;;48.810543;-124.881744;98.43364;;;;;;;;;
2278.0;2177.0;;;;;;;1.1343119;-1.1764885;0.22022156;;;;;;;;;;;;
2278.0;2177.0;;;;;;;;;;50.210575;-124.881744;95.88916;;;;;;;;;
2278.0;2177.0;;;;;;;1.1714225;-1.1368145;0.21851254;;;;;;;;;;;;
2278.0;2178.9;;;;0.17282106;0.8667413;-0.17038728;;;;;;;;;;;;;;;
2278.0;2178.9;;;;0.16604997;0.8744546;-0.15947343;;;;;;;;;;;;;;;
2278.0;2178.9;;;;0.15523912;0.8839952;-0.15181352;;;;;;;;;;;;;;;
2278.0;2178.9;;;;0.14195634;0.8955842;-0.1445389;;;;;;;;;;;;;;;
2278.0;2178.9;;;;0.13031389;0.90967953;-0.1376877;;;;;;;;;;;;;;;
2278.0;2186.0;262143;262143;13878;;;;;;;;;;;;;;;;;;
2278.0;2186.7;;;;;;;;;;50.820946;-124.881744;92.036194;;;;;;;;;
2278.0;2186.7;;;;;;;1.2189703;-1.0911587;0.20575579;;;;;;;;;;;;
2278.0;2186.7;;;;;;;;;;50.557724;-124.881744;86.50853;;;;;;;;;
2278.0;2186.7;;;;;;;1.2776879;-1.0352489;0.19049653;;;;;;;;;;;;
2278.0;2189.0;;;;0.117237106;0.92463696;-0.13324739;;;;;;;;;;;;;;;
2278.0;2189.0;;;;0.10222627;0.94134533;-0.1311226;;;;;;;;;;;;;;;
2278.0;2189.0;;;;0.08792878;0.9596406;-0.13168336;;;;;;;;;;;;;;;
2278.0;2189.0;;;;0.071983345;0.9770471;-0.13669969;;;;;;;;;;;;;;;
2278.0;2189.0;;;;0.058624275;0.992798;-0.14264299;;;;;;;;;;;;;;;
2280.0;2196.3;;;;;;;;;;50.09613;-124.439224;79.237495;;;;;;;;;
2280.0;2196.3;;;;;;;1.3270669;-0.97201455;0.17108676;;;;;;;;;;;;
2280.0;2196.3;;;;;;;;;;49.20347;-118.34697;71.47435;;;;;;;;;
2280.0;2196.3;;;;;;;1.3632618;-0.903531;0.15045625;;;;;;;;;;;;
2280.0;2199.1;;;;0.044471744;1.0080415;-0.14970781;;;;;;;;;;;;;;;
2280.0;2199.1;;;;0.030002598;1.0224153;-0.15685655;;;;;;;;;;;;;;;
2280.0;2199.1;;;;0.017066957;1.0347253;-0.165226;;;;;;;;;;;;;;;
2280.0;2199.1;;;;0.007308961;1.0451852;-0.16908647;;;;;;;;;;;;;;;
2280.0;2199.1;;;;-0.0029869084;1.0556604;-0.1695862;;;;;;;;;;;;;;;
2280.0;2205.9;;;;;;;;;;47.71569;-106.254005;63.83709;;;;;;;;;
2280.0;2205.9;;;;;;;1.3894467;-0.832667;0.13171789;;;;;;;;;;;;
2280.0;2205.9;;;;;;;;;;45.30091;-92.86019;56.81402;;;;;;;;;
2280.0;2205.9;;;;;;;1.4077578;-0.7679067;0.11114841;;;;;;;;;;;;
2280.0;2206.3;262143;262143;13882;;;;;;;;;;;;;;;;;;
2281.0;2207.4;;;;;;;;;;;;;;;;;-54.87991;35.370953;13.19544;;2112.6
2281.0;2207.4;;;;;;;;;;;;;;1.0002747;0.7093112;-0.16577655;;;;;2112.6
2281.0;2207.4;;;;;;;;;;;;;;;;;-61.56346;40.833767;2.212592;;2112.6
2281.0;2207.4;;;;;;;;;;;;;;0.9378338;0.738731;-0.14813684;;;;;2112.6
2281.0;2207.4;;;;;;;;;;;;;;;;;-67.65954;49.233986;-9.647664;;2122.1
2281.0;2207.4;;;;;;;;;;;;;;0.8957793;0.74617755;-0.085573904;;;;;2122.1
2281.0;2207.4;;;;;;;;;;;;;;;;;-72.622604;60.472424;-22.995697;;2122.1
2281.0;2207.4;;;;;;;;;;;;;;0.8937651;0.7409894;0.045289468;;;;;2122.1
2281.0;2207.4;;;;;;;;;;;;;;;;;-77.77643;68.170715;-37.442398;;2131.7
2281.0;2207.4;;;;;;;;;;;;;;0.91116065;0.7311014;0.15289773;;;;;2131.7
2281.0;2207.4;;;;;;;;;;;;;;;;;-81.15253;67.197945;-53.022095;;2131.7
2281.0;2207.4;;;;;;;;;;;;;;0.94070256;0.72725606;0.17999817;;;;;2131.7
2281.0;2209.1;;;;-0.009449006;1.065571;-0.16629793;;;;;;;;;;;;;;;
2281.0;2209.1;;;;-0.01810837;1.0764238;-0.16391756;;;;;;;;;;;;;;;
2281.0;2209.1;;;;-0.028099064;1.0857431;-0.16013338;;;;;;;;;;;;;;;
2281.0;2209.1;;;;-0.016071321;1.093918;-0.15387727;;;;;;;;;;;;;;;
2281.0;2209.1;;;;-0.033470158;1.1136018;-0.15328218;;;;;;;;;;;;;;;
2281.0;2212.0;;;;;;;;;;;;;1567;;;;;;;;
2281.0;2212.0;;;;;;;;;;;;;1422;;;;;;;;
2281.0;2212.0;;;;;;;;;;;;;993;;;;;;;;
2281.0;2212.0;;;;;;;;;;;;;-130;;;;;;;;
2281.0;2212.0;;;;;;;;;;;;;-1302;;;;;;;;
2281.0;2215.4;;;;;;;;;;41.52806;-78.31431;50.668354;;;;;;;;;
2281.0;2215.4;;;;;;;1.4160589;-0.70741904;0.0921659;;;;;;;;;;;;
2281.0;2215.4;;;;;;;;;;36.98462;-63.230537;45.144505;;;;;;;;;
2281.0;2215.4;;;;;;;1.4194769;-0.66170233;0.07763909;;;;;;;;;;;;
2282.0;2219.2;;;;-0.06216813;1.1161081;-0.15896608;;;;;;;;;;;;;;;
2282.0;2219.2;;;;-0.055763252;1.1253549;-0.14908601;;;;;;;;;;;;;;;
2282.0;2219.2;;;;-0.06188584;1.1327974;-0.13673784;;;;;;;;;;;;;;;
2282.0;2219.2;;;;-0.07303239;1.1380578;-0.13652422;;;;;;;;;;;;;;;
2282.0;2219.2;;;;-0.08512879;1.1427461;-0.1423607;;;;;;;;;;;;;;;
2282.0;2222.1;;;;;;;;;;;;;;;;;-80.44297;60.46861;-69.334236;;2141.4
2282.0;2222.1;;;;;;;;;;;;;;1.0053407;0.7248756;0.12775049;;;;;2141.4
2282.0;2222.1;;;;;;;;;;;;;;;;;-76.25431;56.46306;-85.92105;;2141.4
2282.0;2222.1;;;;;;;;;;;;;;1.0924406;0.72835475;0.050477616;;;;;2141.4
2282.0;2222.1;;;;;;;;;;;;;;;;;-71.81005;60.636463;-102.710045;;2151.1
2282.0;2222.1;;;;;;;;;;;;;;1.1495712;0.7234107;0.0050660726;;;;;2151.1
2282.0;2222.1;;;;;;;;;;;;;;;;;-69.112976;69.73098;-118.259224;;2151.1
2282.0;2222.1;;;;;;;;;;;;;;1.1827143;0.7176122;-0.01391644;;;;;2151.1
2282.0;2222.1;;;;;;;;;;;;;;;;;-69.23124;80.13016;-124.80544;;2160.8
2282.0;2222.1;;;;;;;;;;;;;;1.1969969;0.7130955;-0.026795251;;;;;2160.8
2282.0;2222.1;;;;;;;;;;;;;;;;;-71.413315;88.04209;-124.988556;;2160.8
2282.0;2222.1;;;;;;;;;;;;;;1.2132329;0.7206641;-0.045289468;;;;;2160.8
2282.0;2224.9;;;;;;;;;;32.40684;-47.87591;40.32258;;;;;;;;;
2282.0;2224.9;;;;;;;1.4219184;-0.6268502;0.06207465;;;;;;;;;;;;
2282.0;2224.9;;;;;;;;;;27.92062;-32.528915;35.878323;;;;;;;;;
2282.0;2224.9;;;;;;;1.4233832;-0.5988342;0.048524432;;;;;;;;;;;;
2282.0;2226.3;262143;262143;13882;;;;;;;;;;;;;;;;;;
2338.0;2229.2;;;;-0.10134508;1.1474801;-0.1528206;;;;;;;;;;;;;;;
2338.0;2229.2;;;;-0.11454393;1.1491891;-0.16668321;;;;;;;;;;;;;;;
2338.0;2229.2;;;;-0.12485506;1.1513749;-0.17399217;;;;;;;;;;;;;;;
2338.0;2229.2;;;;-0.12754442;1.151169;-0.17659761;;;;;;;;;;;;;;;
2338.0;2229.2;;;;-0.13335802;1.1529886;-0.16629411;;;;;;;;;;;;;;;
2338.0;2234.2;;;;;;;;;;23.487808;-17.548143;31.96051;;;;;;;;;
2338.0;2234.2;;;;;;;1.4248482;-0.5807062;0.03662221;;;;;;;;;;;;
2338.0;2234.2;;;;;;;;;;19.05881;-3.6126287;28.115177;;;;;;;;;
2338.0;2234.2;;;;;;;1.4219794;-0.570513;0.028992584;;;;;;;;;;;;
2338.0;2238.9;;;;-0.14051439;1.1561548;-0.15442659;;;;;;;;;;;;;;;
2338.0;2238.9;;;;-0.1462784;1.1585885;-0.15029909;;;;;;;;;;;;;;;
2338.0;2238.9;;;;-0.15110399;1.1603624;-0.15511705;;;;;;;;;;;;;;;
2338.0;2238.9;;;;-0.15601732;1.1621209;-0.15962984;;;;;;;;;;;;;;;
2338.0;2238.9;;;;-0.16311647;1.1648942;-0.15873338;;;;;;;;;;;;;;;
2338.0;2243.8;;;;;;;;;;14.877774;9.720146;24.216438;;;;;;;;;
2338.0;2243.8;;;;;;;1.422895;-0.5546434;0.021546068;;;;;;;;;;;;
2338.0;2243.8;;;;;;;;;;11.200293;23.091066;20.207067;;;;;;;;;
2338.0;2243.8;;;;;;;1.4286325;-0.542436;0.013245033;;;;;;;;;;;;
2338.0;2246.2;262143;262143;13882;;;;;;;;;;;;;;;;;;
2340.0;2249.1;;;;-0.16280748;1.1651918;-0.17187501;;;;;;;;;;;;;;;
2340.0;2249.1;;;;-0.16139223;1.1639596;-0.18525316;;;;;;;;;;;;;;;
2340.0;2249.1;;;;-0.16260149;1.1623536;-0.19282153;;;;;;;;;;;;;;;
2340.0;2249.1;;;;-0.1709099;1.1648523;-0.18919757;;;;;;;;;;;;;;;
2340.0;2249.1;;;;-0.17313005;1.1664888;-0.18964389;;;;;;;;;;;;;;;
2340.0;2252.0;;;;;;;;;;;;;-1524;;;;;;;;
2340.0;2252.0;;;;;;;;;;;;;-141;;;;;;;;
2340.0;2252.0;;;;;;;;;;;;;159;;;;;;;;
2340.0;2252.0;;;;;;;;;;;;;-5306;;;;;;;;
2340.0;2252.0;;;;;;;;;;;;;-14900;;;;;;;;
2340.0;2253.5;;;;;;;;;;7.5838494;35.78295;15.892513;;;;;;;;;
2340.0;2253.5;;;;;;;1.4253365;-0.53077793;0.0056154057;;;;;;;;;;;;
2340.0;2253.5;;;;;;;;;;3.8949249;48.100986;11.600848;;;;;;;;;
2340.0;2253.5;;;;;;;1.4176458;-0.51857054;-0.0021362957;;;;;;;;;;;;
2340.0;2259.2;;;;-0.16954805;1.1631738;-0.1966553;;;;;;;;;;;;;;;
2340.0;2259.2;;;;-0.16173555;1.1617738;-0.20839694;;;;;;;;;;;;;;;
2340.0;2259.2;;;;-0.15673448;1.1622964;-0.21430591;;;;;;;;;;;;;;;
2340.0;2259.2;;;;-0.15843965;1.1666299;-0.21311954;;;;;;;;;;;;;;;
2340.0;2259.2;;;;-0.15088274;1.166752;-0.21978;;;;;;;;;;;;;;;
2340.0;2263.1;;;;;;;;;;0.14496292;60.628834;7.2519608;;;;;;;;;
2340.0;2263.1;;;;;;;1.4020203;-0.5086825;-0.010193182;;;;;;;;;;;;
2340.0;2263.1;;;;;;;;;;-3.8872952;72.50816;2.784814;;;;;;;;;
2340.0;2263.1;;;;;;;1.3805352;-0.5051424;-0.02008118;;;;;;;;;;;;
2340.0;2266.5;262143;262143;13871;;;;;;;;;;;;;;;;;;
2343.0;2267.2;;;;;;;;;;;;;;;;;-75.865204;92.600784;-124.988556;;2170.4
2343.0;2267.2;;;;;;;;;;;;;;1.2418592;0.73134553;-0.08862575;;;;;2170.4
2343.0;2267.2;;;;;;;;;;;;;;;;;-81.36997;97.136604;-124.988556;;2170.4
2343.0;2267.2;;;;;;;;;;;;;;1.2672505;0.7446516;-0.1015656;;;;;2170.4
2343.0;2267.2;;;;;;;;;;;;;;;;;-89.43449;100.081635;-124.988556;;2180.1
2343.0;2267.2;;;;;;;;;;;;;;1.3043001;0.7604602;-0.107852414;;;;;2180.1
2343.0;2267.2;;;;;;;;;;;;;;;;;-97.92627;100.42115;-124.988556;;2180.1
2343.0;2267.2;;;;;;;;;;;;;;1.3279824;0.781579;-0.11633656;;;;;2180.1
2343.0;2267.2;;;;;;;;;;;;;;;;;-105.14771;94.92401;-124.988556;;2189.7
2343.0;2267.2;;;;;;;;;;;;;;1.3698539;0.7960448;-0.1645558;;;;;2189.7
2343.0;2267.2;;;;;;;;;;;;;;;;;-110.20233;89.384895;-124.988556;;2189.7
2343.0;2267.2;;;;;;;;;;;;;;1.4532304;0.76186407;-0.21240883;;;;;2189.7
2343.0;2269.2;;;;-0.1447754;1.1688501;-0.22506335;;;;;;;;;;;;;;;
2343.0;2269.2;;;;-0.14343645;1.173958;-0.22385791;;;;;;;;;;;;;;;
2343.0;2269.2;;;;-0.14305116;1.1800348;-0.2233353;;;;;;;;;;;;;;;
2343.0;2269.2;;;;-0.14218141;1.1862069;-0.22179416;;;;;;;;;;;;;;;
2343.0;2269.2;;;;-0.13925172;1.1938859;-0.22119144;;;;;;;;;;;;;;;
2343.0;2272.6;;;;;;;;;;-8.079776;83.975494;-2.0180366;;;;;;;;;
2343.0;2272.6;;;;;;;1.3562425;-0.51008636;-0.026734214;;;;;;;;;;;;
2343.0;2272.6;;;;;;;;;;-12.028108;94.95453;-7.1298866;;;;;;;;;
2343.0;2272.6;;;;;;;1.3301188;-0.5204016;-0.03790399;;;;;;;;;;;;
