patientId;holterMac;flexMac;;;;;;;;;;;;;;;;;;;;
;CA:F3:0B:1E:33:78;D3:4A:5C:52:80:78;;;;;;;;;;;;;;;;;;;;
receivedTimeStamp;timeStamp;red;ir;green;adxl_accX;adxl_accY;adxl_accZ;lsm_accelX;lsm_accelY;lsm_accelZ;lsm_gyroX;lsm_gyroY;lsm_gyroZ;ecg;flex_lsm_accelX;flex_lsm_accelY;flex_lsm_accelZ;flex_lsm_gyroX;flex_lsm_gyroY;flex_lsm_gyroZ;flex_cmd;flexTimeStamp
257.0;217.4;;;;;;;;;;;;;;;;;;;;17;0.1
257.0;217.4;;;;;;;;;;;;;;;;;13.798181;0.9765923;0.15259254;;127.6
257.0;217.4;;;;;;;;;;;;;;0.9989318;0.6365551;0.24665059;;;;;127.6
257.0;217.4;;;;;;;;;;;;;;;;;-7.141331;-16.953032;-8.2819605;;127.6
257.0;217.4;;;;;;;;;;;;;;1.0165715;0.67690057;0.23340556;;;;;127.6
257.0;217.4;;;;;;;;;;;;;;;;;-69.50209;-84.79186;-63.1428;;137.1
257.0;217.4;;;;;;;;;;;;;;0.99484235;0.6774499;0.18970306;;;;;137.1
257.0;217.4;;;;;;;;;;;;;;;;;-123.35581;-124.988556;-120.92959;;137.1
257.0;217.4;;;;;;;;;;;;;;0.9718925;0.67128515;0.126957;;;;;137.1
390.0;218.2;;;;;;;;;;;;;;;;;-76.300095;-124.85122;-84.80331;;146.7
390.0;218.2;;;;;;;;;;;;;;0.9443037;0.6450392;0.05426191;;;;;146.7
390.0;218.2;;;;;;;;;;;;;;;;;-34.947506;-124.98474;-49.81765;;146.7
390.0;218.2;;;;;;;;;;;;;;0.9162877;0.5978576;-0.026245918;;;;;146.7
390.0;218.2;;;;;;;;;;;;;;;;;-45.457317;-98.45653;-48.928802;;156.4
390.0;218.2;;;;;;;;;;;;;;0.88338876;0.53187656;-0.07837153;;;;;156.4
390.0;218.2;;;;;;;;;;;;;;;;;-50.31739;-11.9556265;-28.164768;;156.4
390.0;218.2;;;;;;;;;;;;;;0.85085607;0.4704123;-0.12854396;;;;;156.4
390.0;218.2;;;;;;;;;;;;;;;;;-44.42732;-6.6072574;-26.253548;;166.0
390.0;218.2;;;;;;;;;;;;;;0.82546467;0.3833125;-0.16199225;;;;;166.0
390.0;218.2;;;;;;;;;;;;;;;;;-37.202065;-8.461257;-26.348919;;166.0
390.0;218.2;;;;;;;;;;;;;;0.80324715;0.30909148;-0.18280587;;;;;166.0
390.0;277.9;;;;;;;;;;;;;;;;;-30.373547;-9.891811;-24.922176;;175.7
390.0;277.9;;;;;;;;;;;;;;0.78475296;0.23975341;-0.18805505;;;;;175.7
390.0;277.9;;;;;;;;;;;;;;;;;-23.22077;-10.9904785;-22.503586;;175.7
390.0;277.9;;;;;;;;;;;;;;0.7671743;0.16913357;-0.19019136;;;;;175.7
390.0;277.9;;;;;;;;;;;;;;;;;-15.923033;-11.123997;-18.833736;;185.3
390.0;277.9;;;;;;;;;;;;;;0.7475204;0.10736412;-0.18750572;;;;;185.3
390.0;277.9;;;;;;;;;;;;;;;;;-8.869442;-11.196478;-14.103366;;185.3
390.0;277.9;;;;;;;;;;;;;;0.72670674;0.024536882;-0.17926572;;;;;185.3
390.0;277.9;;;;;;;;;;;;;;;;;-0.8545183;-12.863552;-9.605701;;194.8
390.0;277.9;;;;;;;;;;;;;;0.7245094;-0.02294992;-0.18329416;;;;;194.8
390.0;277.9;;;;;;;;;;;;;;;;;6.8475904;-14.347514;-3.8834803;;194.8
390.0;277.9;;;;;;;;;;;;;;0.7284768;-0.08545183;-0.19678335;;;;;194.8
392.0;278.8;;;;;;;;;;;;;;;;;14.133884;-15.289773;1.2321848;;204.6
392.0;278.8;;;;;;;;;;;;;;0.74507886;-0.12262337;-0.21076083;;;;;204.6
392.0;278.8;;;;;;;;;;;;;;;;;20.409252;-15.961182;6.0121465;;204.6
392.0;278.8;;;;;;;;;;;;;;0.76180303;-0.14978485;-0.21771905;;;;;204.6
392.0;278.8;;;;;;;;;;;;;;;;;25.543993;-16.624958;10.475478;;214.2
392.0;278.8;;;;;;;;;;;;;;0.7759636;-0.1662038;-0.22656941;;;;;214.2
392.0;278.8;;;;;;;;;;;;;;;;;29.97299;-17.796106;14.351329;;214.2
392.0;278.8;;;;;;;;;;;;;;0.79635;-0.16278572;-0.22321238;;;;;214.2
392.0;278.8;;;;;;;;;;;;;;;;;33.92895;-19.703512;17.044586;;223.9
392.0;278.8;;;;;;;;;;;;;;0.82808924;-0.14001893;-0.21955016;;;;;223.9
392.0;278.8;;;;;;;;;;;;;;;;;37.282173;-20.78692;18.707848;;223.9
392.0;278.8;;;;;;;;;;;;;;0.8613544;-0.0971099;-0.2036195;;;;;223.9
392.0;338.7;;;;;;;;;;;;;;;;;39.906765;-20.04303;19.24955;;233.5
392.0;338.7;;;;;;;;;;;;;;0.8987701;-0.0347911;-0.1760918;;;;;233.5
392.0;338.7;;;;;;;;;;;;;;;;;42.550434;-18.063143;19.062624;;233.5
392.0;338.7;;;;;;;;;;;;;;0.9369793;0.034485918;-0.14117862;;;;;233.5
392.0;338.7;;;;;;;;;;;;;;;;;45.621357;-15.732292;18.230995;;243.1
392.0;338.7;;;;;;;;;;;;;;0.9834895;0.11438338;-0.1114536;;;;;243.1
392.0;338.7;;;;;;;;;;;;;;;;;49.317913;-12.932219;16.670736;;243.1
392.0;338.7;;;;;;;;;;;;;;1.01883;0.20508438;-0.07721183;;;;;243.1
392.0;338.7;;;;;;;;;;;;;;;;;53.014465;-10.464034;14.706107;;252.6
392.0;338.7;;;;;;;;;;;;;;1.0462966;0.2969451;-0.050660726;;;;;252.6
392.0;338.7;;;;;;;;;;;;;;;;;56.756798;-8.339183;12.306589;;252.6
392.0;338.7;;;;;;;;;;;;;;1.0600909;0.39155248;-0.031617176;;;;;252.6
440.0;339.5;;;;;;;;;;;;;;;;;59.89639;-6.7751093;9.807885;;262.3
440.0;339.5;;;;;;;;;;;;;;1.0606403;0.48133793;-0.015015107;;;;;262.3
440.0;339.5;;;;;;;;;;;;;;;;;61.593983;-5.714591;7.6029234;;262.3
440.0;339.5;;;;;;;;;;;;;;1.0484939;0.55903804;-0.008301035;;;;;262.3
440.0;339.5;;;;;;;;;;;;;;;;;61.4452;-4.2954803;6.107517;;271.9
440.0;339.5;;;;;;;;;;;;;;1.0234687;0.6243477;-0.007019257;;;;;271.9
440.0;339.5;;;;;;;;;;;;;;;;;59.396652;-2.5368512;5.42848;;271.9
440.0;339.5;;;;;;;;;;;;;;0.9960631;0.676046;-0.013183996;;;;;271.9
440.0;339.5;;;;;;;;;;;;;;;;;55.516983;-0.8163701;5.6001463;;281.5
440.0;339.5;;;;;;;;;;;;;;0.96761984;0.71016574;-0.026367992;;;;;281.5
440.0;339.5;;;;;;;;;;;;;;;;;50.683613;0.54933316;6.3974423;;281.5
440.0;339.5;;;;;;;;;;;;;;0.9427168;0.7261574;-0.0474868;;;;;281.5
440.0;398.6;;;;;;;;;;;;;;;;;45.53743;1.6556292;7.5457015;;291.2
440.0;398.6;;;;;;;;;;;;;;0.91708124;0.7210303;-0.07837153;;;;;291.2
440.0;398.6;;;;;;;;;;;;;;;;;40.509506;2.7428513;8.724479;;291.2
440.0;398.6;;;;;;;;;;;;;;0.88778347;0.69771415;-0.11749626;;;;;291.2
440.0;398.6;;;;;;;;;;;;;;;;;36.328472;3.2082584;9.92233;;300.8
440.0;398.6;;;;;;;;;;;;;;0.85958433;0.66731775;-0.15289773;;;;;300.8
440.0;398.6;;;;;;;;;;;;;;;;;32.715843;2.9450362;11.082033;;300.8
440.0;398.6;;;;;;;;;;;;;;0.8354747;0.63057345;-0.18323313;;;;;300.8
440.0;398.6;;;;;;;;;;;;;;;;;29.763178;2.3499253;11.932737;;310.4
440.0;398.6;;;;;;;;;;;;;;0.8121586;0.5870541;-0.2029481;;;;;310.4
440.0;398.6;;;;;;;;;;;;;;;;;27.249214;1.1940367;12.653737;;310.4
440.0;398.6;;;;;;;;;;;;;;0.7889645;0.54518265;-0.21381268;;;;;310.4
500.0;399.3;;;;;;;;;;;;;;;;;25.181585;-0.57222205;13.309885;;320.0
500.0;399.3;;;;;;;;;;;;;;0.7703482;0.50544757;-0.22058779;;;;;320.0
500.0;399.3;;;;;;;;;;;;;;;;;23.495438;-2.6779993;13.897366;;320.0
500.0;399.3;;;;;;;;;;;;;;0.7538682;0.4721824;-0.22162542;;;;;320.0
500.0;399.3;;;;;;;;;;;;;;;;;21.877956;-4.9821467;14.610737;;329.6
500.0;399.3;;;;;;;;;;;;;;0.7444685;0.4441664;-0.2202826;;;;;329.6
500.0;399.3;;;;;;;;;;;;;;;;;19.871365;-7.209998;15.190588;;329.6
500.0;399.3;;;;;;;;;;;;;;0.7356182;0.4232917;-0.2191229;;;;;329.6
500.0;399.3;;;;;;;;;;;;;;;;;17.647327;-9.117405;15.949736;;339.1
500.0;399.3;;;;;;;;;;;;;;0.7330546;0.40730003;-0.22437209;;;;;339.1
500.0;399.3;;;;;;;;;;;;;;;;;15.251625;-10.586108;16.6097;;339.1
500.0;399.3;;;;;;;;;;;;;;0.7335429;0.39667958;-0.22717978;;;;;339.1
500.0;466.5;;;;;;;;;;;;;;;;;12.176886;-12.1807;17.0484;;348.8
500.0;466.5;;;;;;;;;;;;;;0.7362285;0.39466536;-0.23859371;;;;;348.8
500.0;466.5;;;;;;;;;;;;;;;;;8.564257;-13.8859215;17.15903;;348.8
500.0;466.5;;;;;;;;;;;;;;0.7422712;0.39436018;-0.25330362;;;;;348.8
500.0;466.5;;;;;;;;;;;;;;;;;5.043184;-15.404218;17.216253;;358.4
500.0;466.5;;;;;;;;;;;;;;0.7489242;0.40217292;-0.2662435;;;;;358.4
500.0;466.5;;;;;;;;;;;;;;;;;1.7357402;-16.83096;17.010254;;358.4
500.0;466.5;;;;;;;;;;;;;;0.75478375;0.41193885;-0.27509385;;;;;358.4
500.0;466.5;;;;;;;;;;;;;;;;;-0.9460738;-17.967772;16.697441;;368.1
500.0;466.5;;;;;;;;;;;;;;0.7661977;0.42872402;-0.27869502;;;;;368.1
500.0;466.5;;;;;;;;;;;;;;;;;-2.7619252;-18.887142;16.449478;;368.1
500.0;466.5;;;;;;;;;;;;;;0.7761467;0.4477676;-0.27759635;;;;;368.1
561.0;467.4;;;;;;;;;;;;;;;;;-3.9635916;-19.47844;16.129032;;377.7
561.0;467.4;;;;;;;;;;;;;;0.7889035;0.4689474;-0.27607045;;;;;377.7
561.0;467.4;;;;;;;;;;;;;;;;;-4.8409986;-19.54329;15.747551;;377.7
561.0;467.4;;;;;;;;;;;;;;0.79714346;0.49012727;-0.27033296;;;;;377.7
561.0;467.4;;;;;;;;;;;;;;;;;-5.4971466;-19.512772;15.339366;;387.3
561.0;467.4;;;;;;;;;;;;;;0.80501723;0.50666827;-0.2611774;;;;;387.3
561.0;467.4;;;;;;;;;;;;;;;;;-6.0121465;-19.516586;15.064699;;387.3
561.0;467.4;;;;;;;;;;;;;;0.80959505;0.51960814;-0.24634542;;;;;387.3
561.0;467.4;;;;;;;;;;;;;;;;;-6.572924;-19.859919;14.790033;;396.9
561.0;467.4;;;;;;;;;;;;;;0.81606495;0.52375865;-0.2296823;;;;;396.9
561.0;467.4;;;;;;;;;;;;;;;;;-7.248146;-20.550402;14.698478;;396.9
561.0;467.4;;;;;;;;;;;;;;0.819422;0.52485734;-0.21997742;;;;;396.9
561.0;518.9;;;;;;;;;;;;;;;;;-8.011109;-21.195105;14.690847;;406.4
561.0;518.9;;;;;;;;;;;;;;0.8214362;0.52088994;-0.21375164;;;;;406.4
561.0;518.9;;;;;;;;;;;;;;;;;-8.655812;-21.580402;14.732811;;406.4
561.0;518.9;;;;;;;;;;;;;;0.82631916;0.5130772;-0.21381268;;;;;406.4
561.0;518.9;;;;;;;;;;;;;;;;;-8.713035;-22.015291;14.881589;;416.0
561.0;518.9;;;;;;;;;;;;;;0.8305307;0.49940488;-0.21375164;;;;;416.0
561.0;518.9;;;;;;;;;;;;;;;;;-8.674886;-22.331919;15.0112915;;416.0
561.0;518.9;;;;;;;;;;;;;;0.8321177;0.48628193;-0.2169866;;;;;416.0
561.0;518.9;;;;;;;;;;;;;;;;;-8.266702;-22.003847;15.3698845;;425.6
561.0;518.9;;;;;;;;;;;;;;0.83425397;0.47029024;-0.21375164;;;;;425.6
561.0;518.9;;;;;;;;;;;;;;;;;-7.5457015;-21.767328;15.709402;;425.6
561.0;518.9;;;;;;;;;;;;;;0.8374279;0.4532609;-0.20654927;;;;;425.6
620.0;519.7;;;;;;;;;;;;;;;;;-6.530961;-21.588032;16.129032;;435.3
620.0;519.7;;;;;;;;;;;;;;0.84395885;0.4370861;-0.20123905;;;;;435.3
620.0;519.7;;;;;;;;;;;;;;;;;-5.455184;-21.504105;16.571552;;435.3
620.0;519.7;;;;;;;;;;;;;;0.8480483;0.42005676;-0.1981872;;;;;435.3
620.0;519.7;;;;;;;;;;;;;;;;;-4.3679614;-21.553698;17.00644;;445.0
620.0;519.7;;;;;;;;;;;;;;0.85476243;0.40687278;-0.18854335;;;;;445.0
620.0;519.7;;;;;;;;;;;;;;;;;-3.2807398;-21.553698;17.445143;;445.0
620.0;519.7;;;;;;;;;;;;;;0.86355174;0.39722893;-0.17767876;;;;;445.0
620.0;519.7;;;;;;;;;;;;;;;;;-2.189703;-21.637625;17.803736;;454.6
620.0;519.7;;;;;;;;;;;;;;0.8728294;0.387463;-0.16345714;;;;;454.6
620.0;519.7;;;;;;;;;;;;;;;;;-1.4267403;-21.69103;18.143253;;454.6
620.0;519.7;;;;;;;;;;;;;;0.88119143;0.38587603;-0.15601063;;;;;454.6
620.0;533.9;;;;;;;;;;;;;;;;;-0.67522204;-21.668142;18.532366;;464.3
620.0;533.9;;;;;;;;;;;;;;0.8883328;0.38355663;-0.15112767;;;;;464.3
620.0;533.9;;;;;;;;;;;;;;;;;-0.22888882;-21.401106;18.730736;;464.3
620.0;533.9;;;;;;;;;;;;;;0.8924833;0.38660848;-0.15210426;;;;;464.3
620.0;533.9;;;;;;;;;;;;;;;;;-0.09155553;-20.626698;18.84518;;473.8
620.0;533.9;;;;;;;;;;;;;;0.895291;0.38850063;-0.15533921;;;;;473.8
620.0;533.9;;;;;;;;;;;;;;;;;-0.33951843;-19.760735;18.833736;;473.8
620.0;533.9;;;;;;;;;;;;;;0.8961455;0.39436018;-0.15485092;;;;;473.8
620.0;533.9;;;;;;;;;;;;;;;;;-0.7095553;-18.929106;18.868069;;483.4
620.0;533.9;;;;;;;;;;;;;;0.8968169;0.39991456;-0.15973388;;;;;483.4
620.0;533.9;;;;;;;;;;;;;;;;;-0.94225895;-18.185217;18.883327;;483.4
620.0;533.9;;;;;;;;;;;;;;0.8921781;0.4067507;-0.16223639;;;;;483.4
679.0;579.5;;;;;;;;;;;;;;;;;-1.3809626;-17.860958;18.921476;;493.1
679.0;579.5;;;;;;;;;;;;;;0.8894314;0.41224402;-0.16913357;;;;;493.1
679.0;579.5;;;;;;;;;;;;;;;;;-2.0561848;-17.605364;18.848995;;493.1
679.0;579.5;;;;;;;;;;;;;;0.88570815;0.41590625;-0.1777398;;;;;493.1
679.0;579.5;;;;;;;;;;;;;;;;;-2.6894438;-17.097994;18.73455;;502.8
679.0;579.5;;;;;;;;;;;;;;0.8824122;0.41688284;-0.18317209;;;;;502.8
679.0;579.5;;;;;;;;;;;;;;;;;-3.5172582;-16.624958;18.490402;;502.8
679.0;579.5;;;;;;;;;;;;;;0.87691885;0.41718802;-0.18555254;;;;;502.8
679.0;579.5;;;;;;;;;;;;;;;;;-4.5587025;-16.251106;18.238625;;512.4
679.0;579.5;;;;;;;;;;;;;;0.8747215;0.41370893;-0.18854335;;;;;512.4
679.0;579.5;;;;;;;;;;;;;;;;;-5.298776;-16.109959;18.04407;;512.4
679.0;579.5;;;;;;;;;;;;;;0.86849576;0.41511276;-0.19080172;;;;;512.4
679.0;594.1;;;;;;;;;;;;;;;;;-5.8023314;-16.254921;17.750328;;522.0
679.0;594.1;;;;;;;;;;;;;;0.8670919;0.41395307;-0.19721061;;;;;522.0
679.0;594.1;;;;;;;;;;;;;;;;;-5.878628;-16.430403;17.685476;;522.0
679.0;594.1;;;;;;;;;;;;;;0.86452836;0.41462448;-0.19855343;;;;;522.0
679.0;594.1;;;;;;;;;;;;;;;;;-5.752739;-16.674551;17.670218;;531.6
679.0;594.1;;;;;;;;;;;;;;0.8666036;0.41126743;-0.20410779;;;;;531.6
679.0;594.1;;;;;;;;;;;;;;;;;-5.4170356;-16.685995;17.643513;;531.6
679.0;594.1;;;;;;;;;;;;;;0.8661153;0.41114536;-0.20813623;;;;;531.6
679.0;594.1;;;;;;;;;;;;;;;;;-4.8066654;-16.624958;17.738884;;541.1
679.0;594.1;;;;;;;;;;;;;;0.86538285;0.40638447;-0.21100497;;;;;541.1
679.0;594.1;;;;;;;;;;;;;;;;;-4.0704064;-16.502884;17.914366;;541.1
679.0;594.1;;;;;;;;;;;;;;0.86861783;0.40583515;-0.21179846;;;;;541.1
740.0;639.4;;;;;;;;;;;;;;;;;-3.402814;-16.109959;18.055513;;550.8
740.0;639.4;;;;;;;;;;;;;;0.87276834;0.40021974;-0.21027254;;;;;550.8
740.0;639.4;;;;;;;;;;;;;;;;;-2.7886288;-15.511032;18.269142;;550.8
740.0;639.4;;;;;;;;;;;;;;0.8726463;0.39808345;-0.2064272;;;;;550.8
740.0;639.4;;;;;;;;;;;;;;;;;-2.1515548;-14.866329;18.692587;;560.4
740.0;639.4;;;;;;;;;;;;;;0.8744774;0.39497054;-0.20557268;;;;;560.4
740.0;639.4;;;;;;;;;;;;;;;;;-1.4687033;-14.351329;19.138922;;560.4
740.0;639.4;;;;;;;;;;;;;;0.8770409;0.39265114;-0.20831935;;;;;560.4
740.0;639.4;;;;;;;;;;;;;;;;;-0.8278146;-13.798181;19.661549;;570.1
740.0;639.4;;;;;;;;;;;;;;0.87801754;0.39210182;-0.20911282;;;;;570.1
740.0;639.4;;;;;;;;;;;;;;;;;-0.25940734;-13.3137;20.088808;;570.1
740.0;639.4;;;;;;;;;;;;;;0.875515;0.39216286;-0.21076083;;;;;570.1
740.0;654.4;;;;;;;;;;;;;;;;;0.23270364;-12.981811;20.531326;;579.8
740.0;654.4;;;;;;;;;;;;;;0.8725242;0.39246804;-0.21008942;;;;;579.8
740.0;654.4;;;;;;;;;;;;;;;;;0.6370739;-12.779626;20.725883;;579.8
740.0;654.4;;;;;;;;;;;;;;0.86880094;0.39991456;-0.21246986;;;;;579.8
740.0;654.4;;;;;;;;;;;;;;;;;1.0910367;-12.634663;20.80218;;589.5
740.0;654.4;;;;;;;;;;;;;;0.865688;0.4064455;-0.21802424;;;;;589.5
740.0;654.4;;;;;;;;;;;;;;;;;1.4152958;-12.699514;20.725883;;589.5
740.0;654.4;;;;;;;;;;;;;;0.86410105;0.4149907;-0.2245552;;;;;589.5
740.0;654.4;;;;;;;;;;;;;;;;;1.7052218;-12.493514;20.481735;;599.1
740.0;654.4;;;;;;;;;;;;;;0.859035;0.42146063;-0.23139134;;;;;599.1
740.0;654.4;;;;;;;;;;;;;;;;;2.0142217;-12.249367;20.134586;;599.1
740.0;654.4;;;;;;;;;;;;;;0.85464036;0.42811364;-0.23877682;;;;;599.1
800.0;700.1;;;;;;;;;;;;;;;;;2.643666;-12.115849;19.779808;;608.6
800.0;700.1;;;;;;;;;;;;;;0.85042876;0.43250832;-0.24250008;;;;;608.6
800.0;700.1;;;;;;;;;;;;;;;;;3.3074436;-11.8717;19.295328;;608.6
800.0;700.1;;;;;;;;;;;;;;0.84737694;0.44093144;-0.250618;;;;;608.6
800.0;700.1;;;;;;;;;;;;;;;;;4.0971103;-11.455885;18.944365;;618.2
800.0;700.1;;;;;;;;;;;;;;0.8447524;0.4420301;-0.25763726;;;;;618.2
800.0;700.1;;;;;;;;;;;;;;;;;4.6655173;-10.76159;18.810846;;618.2
800.0;700.1;;;;;;;;;;;;;;0.8412122;0.44148076;-0.2628254;;;;;618.2
800.0;700.1;;;;;;;;;;;;;;;;;5.1118503;-10.097812;18.53618;;627.9
800.0;700.1;;;;;;;;;;;;;;0.8364513;0.44032106;-0.26520586;;;;;627.9
800.0;700.1;;;;;;;;;;;;;;;;;5.1881466;-9.571368;18.478958;;627.9
800.0;700.1;;;;;;;;;;;;;;0.8319956;0.43629262;-0.26789147;;;;;627.9
800.0;707.1;;;;;;;;;;;;;;;;;4.7837768;-9.342479;18.387402;;637.6
800.0;707.1;;;;;;;;;;;;;;0.82992035;0.43415633;-0.26404613;;;;;637.6
800.0;707.1;;;;;;;;;;;;;;;;;4.2649617;-9.681997;18.20429;;637.6
800.0;707.1;;;;;;;;;;;;;;0.826014;0.4329966;-0.2600177;;;;;637.6
800.0;707.1;;;;;;;;;;;;;;;;;3.7423322;-10.299997;18.112736;;647.2
800.0;707.1;;;;;;;;;;;;;;0.8268685;0.43110445;-0.25745416;;;;;647.2
800.0;707.1;;;;;;;;;;;;;;;;;3.3379622;-11.097293;18.150883;;647.2
800.0;707.1;;;;;;;;;;;;;;0.82699054;0.4283578;-0.25849178;;;;;647.2
800.0;707.1;;;;;;;;;;;;;;;;;2.929777;-11.928923;18.200476;;656.8
800.0;707.1;;;;;;;;;;;;;;0.8285775;0.4276864;-0.26190984;;;;;656.8
800.0;707.1;;;;;;;;;;;;;;;;;2.7123327;-12.630848;18.333994;;656.8
800.0;707.1;;;;;;;;;;;;;;0.82992035;0.42811364;-0.26294747;;;;;656.8
861.0;759.9;;;;;;;;;;;;;;;;;2.4491103;-12.966552;18.429365;;666.5
861.0;759.9;;;;;;;;;;;;;;0.83297217;0.42982268;-0.26313058;;;;;666.5
861.0;759.9;;;;;;;;;;;;;;;;;2.0142217;-13.122959;18.43318;;666.5
861.0;759.9;;;;;;;;;;;;;;0.83492535;0.43305764;-0.25965148;;;;;666.5
861.0;759.9;;;;;;;;;;;;;;;;;1.53737;-13.531144;18.33018;;676.1
861.0;759.9;;;;;;;;;;;;;;0.8364513;0.43568224;-0.25721;;;;;676.1
861.0;759.9;;;;;;;;;;;;;;;;;0.88503677;-13.832514;18.276772;;676.1
861.0;759.9;;;;;;;;;;;;;;0.83785516;0.43836787;-0.2540971;;;;;676.1
861.0;759.9;;;;;;;;;;;;;;;;;0.17548142;-14.057589;18.250069;;685.8
861.0;759.9;;;;;;;;;;;;;;0.83944213;0.44007692;-0.24701682;;;;;685.8
861.0;759.9;;;;;;;;;;;;;;;;;-0.553148;-14.278848;18.280588;;685.8
861.0;759.9;;;;;;;;;;;;;;0.8409681;0.43995485;-0.242378;;;;;685.8
861.0;774.9;;;;;;;;;;;;;;;;;-1.1711478;-14.477218;18.326365;;695.4
861.0;774.9;;;;;;;;;;;;;;0.84414196;0.44196907;-0.23670156;;;;;695.4
861.0;774.9;;;;;;;;;;;;;;;;;-1.7891476;-14.400922;18.63918;;695.4
861.0;774.9;;;;;;;;;;;;;;0.8489029;0.44093144;-0.23078097;;;;;695.4
861.0;774.9;;;;;;;;;;;;;;;;;-2.437666;-14.206367;18.978699;;705.1
861.0;774.9;;;;;;;;;;;;;;0.8523209;0.438612;-0.22571489;;;;;705.1
861.0;774.9;;;;;;;;;;;;;;;;;-3.4524064;-13.988921;19.180883;;705.1
861.0;774.9;;;;;;;;;;;;;;0.85659355;0.4389172;-0.21918394;;;;;705.1
861.0;774.9;;;;;;;;;;;;;;;;;-4.791406;-13.584552;19.341106;;714.7
861.0;774.9;;;;;;;;;;;;;;0.8604389;0.43800166;-0.21430098;;;;;714.7
861.0;774.9;;;;;;;;;;;;;;;;;-6.248665;-13.206885;19.65392;;714.7
861.0;774.9;;;;;;;;;;;;;;0.8617206;0.44068727;-0.20941801;;;;;714.7
920.0;820.2;;;;;;;;;;;;;;;;;-7.7898498;-12.985626;20.027771;;724.4
920.0;820.2;;;;;;;;;;;;;;0.8649556;0.44111454;-0.2059389;;;;;724.4
920.0;820.2;;;;;;;;;;;;;;;;;-9.384442;-12.718589;20.168919;;724.4
920.0;820.2;;;;;;;;;;;;;;0.8667867;0.4403821;-0.20130008;;;;;724.4
920.0;820.2;;;;;;;;;;;;;;;;;-10.898923;-12.283701;20.241402;;734.0
920.0;820.2;;;;;;;;;;;;;;0.8667867;0.44380015;-0.19898069;;;;;734.0
920.0;820.2;;;;;;;;;;;;;;;;;-12.241737;-11.98233;20.237587;;734.0
920.0;820.2;;;;;;;;;;;;;;0.86629844;0.44361705;-0.1981872;;;;;734.0
920.0;820.2;;;;;;;;;;;;;;;;;-13.42433;-11.349071;20.054476;;743.7
920.0;820.2;;;;;;;;;;;;;;0.8627583;0.44428846;-0.1947081;;;;;743.7
920.0;820.2;;;;;;;;;;;;;;;;;-14.385662;-10.860775;19.783623;;743.7
920.0;820.2;;;;;;;;;;;;;;0.85909605;0.44312876;-0.20044558;;;;;743.7
920.0;835.0;;;;;;;;;;;;;;;;;-15.327921;-10.242775;19.211403;;753.4
920.0;835.0;;;;;;;;;;;;;;0.8537248;0.44190803;-0.20648824;;;;;753.4
920.0;835.0;;;;;;;;;;;;;;;;;-16.438032;-9.6667385;18.341625;;753.4
920.0;835.0;;;;;;;;;;;;;;0.84884185;0.4407483;-0.21008942;;;;;753.4
920.0;835.0;;;;;;;;;;;;;;;;;-17.868587;-9.189886;17.456587;;763.0
920.0;835.0;;;;;;;;;;;;;;0.84340954;0.43702507;-0.2156438;;;;;763.0
920.0;835.0;;;;;;;;;;;;;;;;;-19.413588;-9.063997;16.39607;;763.0
920.0;835.0;;;;;;;;;;;;;;0.83755;0.43208104;-0.21527757;;;;;763.0
920.0;835.0;;;;;;;;;;;;;;;;;-20.49318;-9.63622;15.148624;;772.5
920.0;835.0;;;;;;;;;;;;;;0.8354137;0.42890713;-0.21607105;;;;;772.5
920.0;835.0;;;;;;;;;;;;;;;;;-20.99292;-10.734886;13.843959;;772.5
920.0;835.0;;;;;;;;;;;;;;0.83675647;0.42500076;-0.22174749;;;;;772.5
983.0;880.3;;;;;;;;;;;;;;;;;-21.050142;-12.146367;12.524033;;782.1
983.0;880.3;;;;;;;;;;;;;;0.8417005;0.4203009;-0.23383282;;;;;782.1
983.0;880.3;;;;;;;;;;;;;;;;;-20.851772;-13.32133;11.192663;;782.1
983.0;880.3;;;;;;;;;;;;;;0.8481704;0.41846982;-0.24799341;;;;;782.1
983.0;880.3;;;;;;;;;;;;;;;;;-20.218512;-14.305552;9.983367;;791.8
983.0;880.3;;;;;;;;;;;;;;0.85439616;0.41425824;-0.25800347;;;;;791.8
983.0;880.3;;;;;;;;;;;;;;;;;-19.363995;-14.950255;8.960998;;791.8
983.0;880.3;;;;;;;;;;;;;;0.8597064;0.40668964;-0.26691487;;;;;791.8
983.0;880.3;;;;;;;;;;;;;;;;;-18.326365;-15.312662;8.056887;;801.5
983.0;880.3;;;;;;;;;;;;;;0.86733603;0.3975341;-0.27442244;;;;;801.5
983.0;880.3;;;;;;;;;;;;;;;;;-17.410809;-15.270699;7.4121833;;801.5
983.0;880.3;;;;;;;;;;;;;;0.8746605;0.38422802;-0.27753532;;;;;801.5
983.0;887.8;;;;;;;;;;;;;;;;;-16.781366;-14.6641445;6.9277015;;811.1
983.0;887.8;;;;;;;;;;;;;;0.87978756;0.36957914;-0.27484968;;;;;811.1
983.0;887.8;;;;;;;;;;;;;;;;;-16.136662;-13.9317;6.576739;;811.1
983.0;887.8;;;;;;;;;;;;;;0.88680685;0.35261086;-0.27167577;;;;;811.1
983.0;887.8;;;;;;;;;;;;;;;;;-15.457625;-13.435774;6.389813;;820.8
983.0;887.8;;;;;;;;;;;;;;0.89223915;0.3345439;-0.2656331;;;;;820.8
983.0;887.8;;;;;;;;;;;;;;;;;-15.049439;-13.30607;6.366924;;820.8
983.0;887.8;;;;;;;;;;;;;;0.89938045;0.3203833;-0.26154363;;;;;820.8
983.0;887.8;;;;;;;;;;;;;;;;;-14.919737;-13.241219;6.504257;;830.4
983.0;887.8;;;;;;;;;;;;;;0.9063387;0.30530718;-0.2590411;;;;;830.4
983.0;887.8;;;;;;;;;;;;;;;;;-15.007477;-13.176367;6.782739;;830.4
983.0;887.8;;;;;;;;;;;;;;0.915067;0.29212317;-0.25727102;;;;;830.4
1041.0;940.6;;;;;;;;;;;;;;;;;-14.984588;-13.058107;7.194739;;840.1
1041.0;940.6;;;;;;;;;;;;;;0.92190313;0.27881712;-0.2550737;;;;;840.1
1041.0;940.6;;;;;;;;;;;;;;;;;-15.003662;-12.867367;7.717368;;840.1
1041.0;940.6;;;;;;;;;;;;;;0.92715234;0.26545;-0.2542802;;;;;840.1
1041.0;940.6;;;;;;;;;;;;;;;;;-15.095218;-12.600329;8.396405;;849.6
1041.0;940.6;;;;;;;;;;;;;;0.93380535;0.2552568;-0.25342572;;;;;849.6
1041.0;940.6;;;;;;;;;;;;;;;;;-14.931181;-12.314219;9.0983305;;849.6
1041.0;940.6;;;;;;;;;;;;;;0.93868834;0.24823755;-0.252266;;;;;849.6
1041.0;940.6;;;;;;;;;;;;;;;;;-14.290292;-11.829738;9.876553;;859.3
1041.0;940.6;;;;;;;;;;;;;;0.94387645;0.24408704;-0.2487869;;;;;859.3
1041.0;940.6;;;;;;;;;;;;;;;;;-13.40907;-11.314737;10.85696;;859.3
1041.0;940.6;;;;;;;;;;;;;;0.94985807;0.23841059;-0.24335459;;;;;859.3
1041.0;941.7;;;;;;;;;;;;;;;;;-12.215034;-10.757775;11.627552;;869.0
1041.0;941.7;;;;;;;;;;;;;;0.9553514;0.23364972;-0.23517564;;;;;869.0
1041.0;941.7;;;;;;;;;;;;;;;;;-11.005738;-10.010071;12.234108;;869.0
1041.0;941.7;;;;;;;;;;;;;;0.9655446;0.23377179;-0.23291726;;;;;869.0
1041.0;941.7;;;;;;;;;;;;;;;;;-9.563738;-8.995331;12.981811;;878.6
1041.0;941.7;;;;;;;;;;;;;;0.974456;0.23249;-0.22913297;;;;;878.6
1041.0;941.7;;;;;;;;;;;;;;;;;-8.045443;-7.7936645;13.664663;;878.6
1041.0;941.7;;;;;;;;;;;;;;0.98477125;0.23157445;-0.22504349;;;;;878.6
1041.0;941.7;;;;;;;;;;;;;;;;;-6.595813;-6.614887;14.332255;;888.3
1041.0;941.7;;;;;;;;;;;;;;0.9963683;0.23468734;-0.21967223;;;;;888.3
1041.0;941.7;;;;;;;;;;;;;;;;;-5.6802573;-5.500962;15.057069;;888.3
1041.0;941.7;;;;;;;;;;;;;;1.007355;0.23670156;-0.21460617;;;;;888.3
1100.0;1000.9;;;;;;;;;;;;;;;;;-4.989776;-4.1581473;15.95355;;897.9
1100.0;1000.9;;;;;;;;;;;;;;1.0182806;0.23871578;-0.20679343;;;;;897.9
1100.0;1000.9;;;;;;;;;;;;;;;;;-4.5777764;-2.7161474;17.124699;;897.9
1100.0;1000.9;;;;;;;;;;;;;;1.0263375;0.24060793;-0.20038453;;;;;897.9
1100.0;1000.9;;;;;;;;;;;;;;;;;-4.608295;-1.3962218;18.074587;;907.5
1100.0;1000.9;;;;;;;;;;;;;;1.0336009;0.24134037;-0.19995728;;;;;907.5
1100.0;1000.9;;;;;;;;;;;;;;;;;-4.9211097;-0.11825922;19.093143;;907.5
1100.0;1000.9;;;;;;;;;;;;;;1.0349437;0.24329355;-0.20014039;;;;;907.5
1100.0;1000.9;;;;;;;;;;;;;;;;;-5.42848;1.1482589;20.226141;;917.0
1100.0;1000.9;;;;;;;;;;;;;;1.0343333;0.24372081;-0.20233771;;;;;917.0
1100.0;1000.9;;;;;;;;;;;;;;;;;-5.9053316;2.6245918;21.225624;;917.0
1100.0;1000.9;;;;;;;;;;;;;;1.0290841;0.24860378;-0.20453505;;;;;917.0
1100.0;1001.7;;;;;;;;;;;;;;;;;-6.1342206;4.0894804;22.381512;;926.6
1100.0;1001.7;;;;;;;;;;;;;;1.0199286;0.2492752;-0.21607105;;;;;926.6
1100.0;1001.7;;;;;;;;;;;;;;;;;-6.1151466;5.352184;23.091066;;926.6
1100.0;1001.7;;;;;;;;;;;;;;1.0127262;0.25647756;-0.23340556;;;;;926.6
1100.0;1001.7;;;;;;;;;;;;;;;;;-6.2067018;6.2906275;23.533587;;936.3
1100.0;1001.7;;;;;;;;;;;;;;1.0061953;0.26105532;-0.25220495;;;;;936.3
1100.0;1001.7;;;;;;;;;;;;;;;;;-6.324961;6.706443;23.705252;;936.3
1100.0;1001.7;;;;;;;;;;;;;;1.0047303;0.26673177;-0.2620319;;;;;936.3
1100.0;1001.7;;;;;;;;;;;;;;;;;-6.698813;7.026887;23.464918;;945.9
1100.0;1001.7;;;;;;;;;;;;;;1.0044252;0.27869502;-0.27082124;;;;;945.9
1100.0;1001.7;;;;;;;;;;;;;;;;;-6.912442;6.9696646;22.858364;;945.9
1100.0;1001.7;;;;;;;;;;;;;;1.0038148;0.2837611;-0.28266242;;;;;945.9
1161.0;1061.0;;;;;;;;;;;;;;;;;-6.778924;6.4470353;22.095402;;955.6
1161.0;1061.0;;;;;;;;;;;;;;1.0042421;0.2933439;-0.29566333;;;;;955.6
1161.0;1061.0;;;;;;;;;;;;;;;;;-6.8132577;5.7222204;21.244698;;955.6
1161.0;1061.0;;;;;;;;;;;;;;1.0072329;0.2971282;-0.31391338;;;;;955.6
1161.0;1061.0;;;;;;;;;;;;;;;;;-7.160405;5.1728873;20.359661;;965.2
1161.0;1061.0;;;;;;;;;;;;;;1.0043031;0.3068331;-0.33625293;;;;;965.2
1161.0;1061.0;;;;;;;;;;;;;;;;;-8.018739;4.3755913;19.863733;;965.2
1161.0;1061.0;;;;;;;;;;;;;;0.992645;0.30573443;-0.3541368;;;;;965.2
1161.0;1061.0;;;;;;;;;;;;;;;;;-9.342479;2.9259622;19.230476;;974.7
1161.0;1061.0;;;;;;;;;;;;;;0.98171943;0.30463576;-0.3769036;;;;;974.7
1161.0;1061.0;;;;;;;;;;;;;;;;;-10.853146;1.453444;18.7727;;974.7
1161.0;1061.0;;;;;;;;;;;;;;0.96298105;0.30817592;-0.39564195;;;;;974.7
1161.0;1061.8;;;;;;;;;;;;;;;;;-12.535478;-0.0839259;18.524736;;984.4
1161.0;1061.8;;;;;;;;;;;;;;0.9443648;0.30780968;-0.41145054;;;;;984.4
1161.0;1061.8;;;;;;;;;;;;;;;;;-13.855403;-1.5488143;18.501846;;984.4
1161.0;1061.8;;;;;;;;;;;;;;0.92458874;0.308298;-0.4252449;;;;;984.4
1161.0;1061.8;;;;;;;;;;;;;;;;;-14.873959;-3.0899992;18.780329;;994.1
1161.0;1061.8;;;;;;;;;;;;;;0.9074374;0.31025118;-0.43403423;;;;;994.1
1161.0;1061.8;;;;;;;;;;;;;;;;;-15.633106;-4.5739617;19.203773;;994.1
1161.0;1061.8;;;;;;;;;;;;;;0.89541304;0.3076876;-0.43995485;;;;;994.1
1161.0;1061.8;;;;;;;;;;;;;;;;;-16.304514;-5.9930725;19.7264;;1003.8
1161.0;1061.8;;;;;;;;;;;;;;0.88613546;0.30463576;-0.4430067;;;;;1003.8
1161.0;1061.8;;;;;;;;;;;;;;;;;-17.105623;-7.2977386;20.06592;;1003.8
1161.0;1061.8;;;;;;;;;;;;;;0.8798486;0.3081149;-0.44312876;;;;;1003.8
1163.0;1121.6;;;;;;;;;;;;;;;;;-18.169958;-8.484145;20.290993;;1013.4
1163.0;1121.6;;;;;;;;;;;;;;0.8789941;0.30671102;-0.43684193;;;;;1013.4
1163.0;1121.6;;;;;;;;;;;;;;;;;-19.371624;-9.887997;20.443586;;1013.4
1163.0;1121.6;;;;;;;;;;;;;;0.8816797;0.31037325;-0.4280526;;;;;1013.4
1163.0;1121.6;;;;;;;;;;;;;;;;;-20.680105;-10.963775;20.47029;;1023.0
1163.0;1121.6;;;;;;;;;;;;;;0.8917509;0.31318095;-0.41425824;;;;;1023.0
1163.0;1121.6;;;;;;;;;;;;;;;;;-22.003847;-11.677145;20.523697;;1023.0
1163.0;1121.6;;;;;;;;;;;;;;0.9032258;0.31311992;-0.4008301;;;;;1023.0
1163.0;1121.6;;;;;;;;;;;;;;;;;-23.239845;-12.173071;20.577105;;1032.5
1163.0;1121.6;;;;;;;;;;;;;;0.91305274;0.31073946;-0.38654745;;;;;1032.5
1163.0;1121.6;;;;;;;;;;;;;;;;;-24.552141;-12.451551;20.6534;;1032.5
1163.0;1121.6;;;;;;;;;;;;;;0.9242225;0.30719933;-0.3707999;;;;;1032.5
1164.0;1122.4;;;;;;;;;;;;;;;;;-25.708029;-12.653737;20.664846;;1042.1
1164.0;1122.4;;;;;;;;;;;;;;0.9344157;0.29285562;-0.34980315;;;;;1042.1
1164.0;1122.4;;;;;;;;;;;;;;;;;-26.543474;-12.852107;20.619068;;1042.1
1164.0;1122.4;;;;;;;;;;;;;;0.9364299;0.3037202;-0.32691428;;;;;1042.1
1164.0;1122.4;;;;;;;;;;;;;;;;;-27.737509;-13.096255;20.474104;;1051.7
1164.0;1122.4;;;;;;;;;;;;;;0.9434492;0.303354;-0.30780968;;;;;1051.7
1164.0;1122.4;;;;;;;;;;;;;;;;;-28.794214;-13.058107;20.504623;;1051.7
1164.0;1122.4;;;;;;;;;;;;;;0.9485153;0.29535812;-0.28662986;;;;;1051.7
1164.0;1122.4;;;;;;;;;;;;;;;;;-29.156622;-13.023774;20.737328;;1061.4
1164.0;1122.4;;;;;;;;;;;;;;0.95181125;0.28864408;-0.2677694;;;;;1061.4
1164.0;1122.4;;;;;;;;;;;;;;;;;-29.786066;-12.932219;20.950956;;1061.4
1164.0;1122.4;;;;;;;;;;;;;;0.95376444;0.28846094;-0.2525712;;;;;1061.4
1164.0;1127.7;;;;0.0;0.0;0.0;;;;;;;;;;;;;;;
1164.0;1127.7;;;;-0.12796022;0.19607928;0.036285404;;;;;;;;;;;;;;;
1164.0;1127.7;;;;-0.69469076;0.93070996;0.07956315;;;;;;;;;;;;;;;
1164.0;1127.7;;;;-0.7725946;1.0396234;0.08029557;;;;;;;;;;;;;;;
1164.0;1127.7;;;;-0.7727815;1.04274;0.08234788;;;;;;;;;;;;;;;
1164.0;1137.7;;;;-0.7722589;1.0465661;0.08470536;;;;;;;;;;;;;;;
1164.0;1137.7;;;;-0.77144253;1.0492784;0.087112434;;;;;;;;;;;;;;;
1164.0;1137.7;;;;-0.77011883;1.0524141;0.089694984;;;;;;;;;;;;;;;
1164.0;1137.7;;;;-0.76858914;1.0554696;0.09212113;;;;;;;;;;;;;;;
1164.0;1137.7;;;;-0.7666818;1.0579454;0.09460832;;;;;;;;;;;;;;;
1221.0;1140.0;57433;57497;12602;;;;;;;;;;;;;;;;;;
1221.0;1147.6;;;;-0.76480496;1.0606385;0.09683229;;;;;;;;;;;;;;;
1221.0;1147.6;;;;-0.7623254;1.062729;0.09911348;;;;;;;;;;;;;;;
1221.0;1147.6;;;;-0.75924313;1.0643388;0.10190965;;;;;;;;;;;;;;;
1221.0;1147.6;;;;-0.75639355;1.0656816;0.10457231;;;;;;;;;;;;;;;
1221.0;1147.6;;;;-0.7528001;1.0670892;0.10783388;;;;;;;;;;;;;;;
1221.0;1157.6;;;;-0.7493554;1.0679361;0.11106111;;;;;;;;;;;;;;;
1221.0;1157.6;;;;-0.74591833;1.0689813;0.11470033;;;;;;;;;;;;;;;
1221.0;1157.6;;;;-0.74238974;1.0697442;0.11856462;;;;;;;;;;;;;;;
1221.0;1157.6;;;;-0.7390252;1.0702249;0.12273027;;;;;;;;;;;;;;;
1221.0;1157.6;;;;-0.73505026;1.0706064;0.12790681;;;;;;;;;;;;;;;
1221.0;1160.0;73795;73799;12604;;;;;;;;;;;;;;;;;;
1221.0;1166.3;;;;;;;;;;;;;0;;;;;;;;
1221.0;1166.3;;;;;;;;;;;;;0;;;;;;;;
1221.0;1166.3;;;;;;;;;;;;;-1;;;;;;;;
1221.0;1166.3;;;;;;;;;;;;;-2;;;;;;;;
1221.0;1166.3;;;;;;;;;;;;;-3;;;;;;;;
1221.0;1167.7;;;;-0.7304612;1.0708734;0.13292314;;;;;;;;;;;;;;;
1221.0;1167.7;;;;-0.7264939;1.0707818;0.13833238;;;;;;;;;;;;;;;
1221.0;1167.7;;;;-0.7220307;1.0702707;0.14333345;;;;;;;;;;;;;;;
1221.0;1167.7;;;;-0.71742636;1.0695993;0.14805223;;;;;;;;;;;;;;;
1221.0;1167.7;;;;-0.71303564;1.0681726;0.15195848;;;;;;;;;;;;;;;
1223.0;1177.8;;;;-0.7092286;1.0663873;0.15402986;;;;;;;;;;;;;;;
1223.0;1177.8;;;;-0.704361;1.063675;0.15638353;;;;;;;;;;;;;;;
1223.0;1177.8;;;;-0.699627;1.0605241;0.1585045;;;;;;;;;;;;;;;
1223.0;1177.8;;;;-0.69587713;1.0577585;0.15940858;;;;;;;;;;;;;;;
1223.0;1177.8;;;;-0.6928788;1.0549928;0.15893938;;;;;;;;;;;;;;;
1223.0;1180.2;90311;90149;12608;;;;;;;;;;;;;;;;;;
1223.0;1187.9;;;;-0.689827;1.0520936;0.15762712;;;;;;;;;;;;;;;
1223.0;1187.9;;;;-0.6875878;1.0499879;0.15647127;;;;;;;;;;;;;;;
1223.0;1187.9;;;;-0.685051;1.0489122;0.15529253;;;;;;;;;;;;;;;
1223.0;1187.9;;;;-0.68292624;1.0475999;0.15369417;;;;;;;;;;;;;;;
1223.0;1187.9;;;;-0.68035513;1.0463792;0.15253069;;;;;;;;;;;;;;;
1223.0;1189.5;;;;;;;;;;;;;;;;;-30.259102;-13.000885;21.279032;;1071.1
1223.0;1189.5;;;;;;;;;;;;;;0.95358133;0.28315073;-0.23688467;;;;;1071.1
1223.0;1189.5;;;;;;;;;;;;;;;;;-30.499435;-13.11533;21.748253;;1071.1
1223.0;1189.5;;;;;;;;;;;;;;0.95632803;0.28736228;-0.22595905;;;;;1071.1
1223.0;1189.5;;;;;;;;;;;;;;;;;-30.831324;-13.058107;22.194586;;1080.7
1223.0;1189.5;;;;;;;;;;;;;;0.96017337;0.2893765;-0.21491134;;;;;1080.7
1223.0;1189.5;;;;;;;;;;;;;;;;;-31.594288;-12.99707;22.537918;;1080.7
1223.0;1189.5;;;;;;;;;;;;;;0.9613941;0.2858974;-0.21240883;;;;;1080.7
1223.0;1189.5;;;;;;;;;;;;;;;;;-32.26951;-12.874996;22.79351;;1090.3
1223.0;1189.5;;;;;;;;;;;;;;0.9670705;0.28394422;-0.20825832;;;;;1090.3
1223.0;1189.5;;;;;;;;;;;;;;;;;-32.39921;-12.489699;22.846918;;1090.3
1223.0;1189.5;;;;;;;;;;;;;;0.9696951;0.2776574;-0.20178838;;;;;1090.3
1281.0;1190.1;;;;;;;;;;;;;;;;;-31.926178;-11.738182;22.740105;;1099.9
1281.0;1190.1;;;;;;;;;;;;;;0.9698172;0.2728965;-0.18988617;;;;;1099.9
1281.0;1190.1;;;;;;;;;;;;;;;;;-31.083101;-10.914183;22.488325;;1099.9
1281.0;1190.1;;;;;;;;;;;;;;0.9692068;0.2682577;-0.17853329;;;;;1099.9
1281.0;1190.1;;;;;;;;;;;;;;;;;-30.468916;-9.93759;22.034365;;1109.4
1281.0;1190.1;;;;;;;;;;;;;;0.9659719;0.2630085;-0.17035432;;;;;1109.4
1281.0;1190.1;;;;;;;;;;;;;;;;;-30.0531;-9.025849;21.317179;;1109.4
1281.0;1190.1;;;;;;;;;;;;;;0.96249276;0.25763726;-0.16766869;;;;;1109.4
1281.0;1190.1;;;;;;;;;;;;;;;;;-29.438917;-8.236183;20.527512;;1119.0
1281.0;1190.1;;;;;;;;;;;;;;0.96121097;0.25067905;-0.17102572;;;;;1119.0
1281.0;1190.1;;;;;;;;;;;;;;;;;-28.36314;-7.4312572;19.779808;;1119.0
1281.0;1190.1;;;;;;;;;;;;;;0.96267587;0.24329355;-0.17474899;;;;;1119.0
1281.0;1197.6;;;;-0.6780358;1.0466348;0.15046312;;;;;;;;;;;;;;;
1281.0;1197.6;;;;-0.6746865;1.0466958;0.14935304;;;;;;;;;;;;;;;
1281.0;1197.6;;;;-0.67168814;1.047783;0.14875032;;;;;;;;;;;;;;;
1281.0;1197.6;;;;-0.66761786;1.048916;0.14867021;;;;;;;;;;;;;;;
1281.0;1197.6;;;;-0.66387945;1.0509225;0.14851762;;;;;;;;;;;;;;;
1281.0;1200.1;106603;106696;12609;;;;;;;;;;;;;;;;;;
1281.0;1206.3;;;;;;;;;;;;;-6;;;;;;;;
1281.0;1206.3;;;;;;;;;;;;;-6;;;;;;;;
1281.0;1206.3;;;;;;;;;;;;;-10;;;;;;;;
1281.0;1206.3;;;;;;;;;;;;;-13;;;;;;;;
1281.0;1206.3;;;;;;;;;;;;;-10;;;;;;;;
1282.0;1207.5;;;;-0.6601754;1.052498;0.14860918;;;;;;;;;;;;;;;
1282.0;1207.5;;;;-0.65510184;1.0551187;0.14985277;;;;;;;;;;;;;;;
1282.0;1207.5;;;;-0.6510926;1.0576249;0.1519623;;;;;;;;;;;;;;;
1282.0;1207.5;;;;-0.64623266;1.0596048;0.15439226;;;;;;;;;;;;;;;
1282.0;1207.5;;;;-0.6412011;1.0619203;0.15731813;;;;;;;;;;;;;;;
1282.0;1217.6;;;;-0.63672644;1.0638658;0.16147615;;;;;;;;;;;;;;;
1282.0;1217.6;;;;-0.6308022;1.0642396;0.16560747;;;;;;;;;;;;;;;
1282.0;1217.6;;;;-0.62427527;1.0643235;0.1708336;;;;;;;;;;;;;;;
1282.0;1217.6;;;;-0.6182824;1.0640374;0.17639543;;;;;;;;;;;;;;;
1282.0;1217.6;;;;-0.61318594;1.0627214;0.18223192;;;;;;;;;;;;;;;
1282.0;1220.1;122992;122959;12606;;;;;;;;;;;;;;;;;;
1282.0;1227.7;;;;-0.6079789;1.0602304;0.18835834;;;;;;;;;;;;;;;
1282.0;1227.7;;;;-0.60153204;1.0561372;0.19597247;;;;;;;;;;;;;;;
1282.0;1227.7;;;;-0.5956536;1.0515825;0.20336536;;;;;;;;;;;;;;;
1282.0;1227.7;;;;-0.5911942;1.0460511;0.20881274;;;;;;;;;;;;;;;
1282.0;1227.7;;;;-0.5861321;1.0392305;0.21466067;;;;;;;;;;;;;;;
1282.0;1237.8;;;;-0.5808831;1.0306817;0.22033694;;;;;;;;;;;;;;;
1282.0;1237.8;;;;-0.57685095;1.0217019;0.22449115;;;;;;;;;;;;;;;
1282.0;1237.8;;;;-0.5722237;1.0105058;0.22834018;;;;;;;;;;;;;;;
1282.0;1237.8;;;;-0.5670586;0.9983827;0.23079684;;;;;;;;;;;;;;;
1282.0;1237.8;;;;-0.5620461;0.9859735;0.23302463;;;;;;;;;;;;;;;
1284.0;1240.3;139421;139422;12618;;;;;;;;;;;;;;;;;;
1284.0;1241.8;;;;;;;;;;;;;;;;;-26.745659;-6.5652943;19.047365;;1128.7
1284.0;1241.8;;;;;;;;;;;;;;0.9607837;0.2351146;-0.1770684;;;;;1128.7
1284.0;1241.8;;;;;;;;;;;;;;;;;-24.925991;-5.546739;18.337809;;1128.7
1284.0;1241.8;;;;;;;;;;;;;;0.9588916;0.22748497;-0.17926572;;;;;1128.7
1284.0;1241.8;;;;;;;;;;;;;;;;;-22.938475;-4.40611;17.685476;;1138.4
1284.0;1241.8;;;;;;;;;;;;;;0.9560839;0.2191229;-0.18030335;;;;;1138.4
1284.0;1241.8;;;;;;;;;;;;;;;;;-21.195105;-3.357036;16.987364;;1138.4
1284.0;1241.8;;;;;;;;;;;;;;0.9538865;0.2118595;-0.18207343;;;;;1138.4
1284.0;1241.8;;;;;;;;;;;;;;;;;-19.573809;-2.5749993;16.384624;;1148.1
1284.0;1241.8;;;;;;;;;;;;;;0.95522934;0.20557268;-0.19226661;;;;;1148.1
1284.0;1241.8;;;;;;;;;;;;;;;;;-17.769402;-1.9913328;15.854366;;1148.1
1284.0;1241.8;;;;;;;;;;;;;;0.9580371;0.19745475;-0.20673238;;;;;1148.1
1285.0;1242.6;;;;;;;;;;;;;;;;;-15.724663;-1.3504441;15.423291;;1157.7
1285.0;1242.6;;;;;;;;;;;;;;0.959685;0.19104587;-0.21851254;;;;;1157.7
1285.0;1242.6;;;;;;;;;;;;;;;;;-13.554033;-0.5340739;15.1104765;;1157.7
1285.0;1242.6;;;;;;;;;;;;;;0.9632862;0.1826838;-0.22931609;;;;;1157.7
1285.0;1242.6;;;;;;;;;;;;;;;;;-11.276589;0.22507401;14.790033;;1167.4
1285.0;1242.6;;;;;;;;;;;;;;0.96444595;0.17548142;-0.23914304;;;;;1167.4
1285.0;1242.6;;;;;;;;;;;;;;;;;-8.980071;0.8049257;14.576404;;1167.4
1285.0;1242.6;;;;;;;;;;;;;;0.96249276;0.16626485;-0.25287637;;;;;1167.4
1285.0;1242.6;;;;;;;;;;;;;;;;;-6.8132577;1.1329997;14.43144;;1177.0
1285.0;1242.6;;;;;;;;;;;;;;0.9594409;0.15875728;-0.2646565;;;;;1177.0
1285.0;1242.6;;;;;;;;;;;;;;;;;-5.0279245;1.2703329;14.248329;;1177.0
1285.0;1242.6;;;;;;;;;;;;;;0.9515061;0.1469161;-0.27369;;;;;1177.0
1285.0;1246.4;;;;;;;;;;;;;-19;;;;;;;;
1285.0;1246.4;;;;;;;;;;;;;-10;;;;;;;;
1285.0;1246.4;;;;;;;;;;;;;-18;;;;;;;;
1285.0;1246.4;;;;;;;;;;;;;-46;;;;;;;;
1285.0;1246.4;;;;;;;;;;;;;33;;;;;;;;
1285.0;1247.6;;;;-0.5582047;0.97288907;0.23391345;;;;;;;;;;;;;;;
1285.0;1247.6;;;;-0.55471426;0.9600488;0.23331836;;;;;;;;;;;;;;;
1285.0;1247.6;;;;-0.5510407;0.94781125;0.23290256;;;;;;;;;;;;;;;
1285.0;1247.6;;;;-0.5474625;0.93598187;0.23204425;;;;;;;;;;;;;;;
1285.0;1247.6;;;;-0.5446854;0.925213;0.23038104;;;;;;;;;;;;;;;
1342.0;1257.5;;;;-0.5419045;0.9157945;0.22916034;;;;;;;;;;;;;;;
1342.0;1257.5;;;;-0.5404511;0.9078256;0.22685626;;;;;;;;;;;;;;;
1342.0;1257.5;;;;-0.53973395;0.9018136;0.22335818;;;;;;;;;;;;;;;
1342.0;1257.5;;;;-0.53939825;0.8977128;0.22052386;;;;;;;;;;;;;;;
1342.0;1257.5;;;;-0.53820044;0.8950616;0.21799853;;;;;;;;;;;;;;;
1342.0;1260.1;155696;155806;12616;;;;;;;;;;;;;;;;;;
1342.0;1267.4;;;;-0.5371819;0.8944284;0.21663287;;;;;;;;;;;;;;;
1342.0;1267.4;;;;-0.5365258;0.8959199;0.21499637;;;;;;;;;;;;;;;
1342.0;1267.4;;;;-0.53553015;0.8986665;0.21442035;;;;;;;;;;;;;;;
1342.0;1267.4;;;;-0.53342825;0.90174115;0.21441653;;;;;;;;;;;;;;;
1342.0;1267.4;;;;-0.530449;0.9053575;0.214798;;;;;;;;;;;;;;;
1342.0;1277.4;;;;-0.5279198;0.91025937;0.21524051;;;;;;;;;;;;;;;
1342.0;1277.4;;;;-0.52452475;0.9149705;0.21503833;;;;;;;;;;;;;;;
1342.0;1277.4;;;;-0.5202752;0.9193231;0.21469882;;;;;;;;;;;;;;;
1342.0;1277.4;;;;-0.5152398;0.9230844;0.21548846;;;;;;;;;;;;;;;
1342.0;1277.4;;;;-0.5093041;0.92590725;0.21594623;;;;;;;;;;;;;;;
1342.0;1280.0;172106;172185;12618;;;;;;;;;;;;;;;;;;
1342.0;1286.3;;;;;;;;;;;;;25;;;;;;;;
1342.0;1286.3;;;;;;;;;;;;;-172;;;;;;;;
1342.0;1286.3;;;;;;;;;;;;;-134;;;;;;;;
1342.0;1286.3;;;;;;;;;;;;;350;;;;;;;;
1342.0;1286.3;;;;;;;;;;;;;771;;;;;;;;
1345.0;1287.5;;;;-0.50241095;0.92777264;0.21699908;;;;;;;;;;;;;;;
1345.0;1287.5;;;;-0.4954148;0.92930996;0.21823505;;;;;;;;;;;;;;;
1345.0;1287.5;;;;-0.4886933;0.9286195;0.2198334;;;;;;;;;;;;;;;
1345.0;1287.5;;;;-0.48195273;0.92821515;0.22122577;;;;;;;;;;;;;;;
1345.0;1287.5;;;;-0.47559363;0.9271165;0.22273257;;;;;;;;;;;;;;;
1345.0;1297.6;;;;-0.46903998;0.9254762;0.2244797;;;;;;;;;;;;;;;
1345.0;1297.6;;;;-0.46266943;0.92305005;0.22550586;;;;;;;;;;;;;;;
1345.0;1297.6;;;;-0.4568444;0.9204904;0.22682956;;;;;;;;;;;;;;;
1345.0;1297.6;;;;-0.4514504;0.91783154;0.2284737;;;;;;;;;;;;;;;
1345.0;1297.6;;;;-0.44569784;0.91484463;0.23022464;;;;;;;;;;;;;;;
1345.0;1300.3;188604;188601;12616;;;;;;;;;;;;;;;;;;
1345.0;1301.3;;;;;;;;;;;;;;;;;-3.5363324;1.3084811;13.82107;;1186.6
1345.0;1301.3;;;;;;;;;;;;;;0.9429609;0.13788262;-0.27784052;;;;;1186.6
1345.0;1301.3;;;;;;;;;;;;;;;;;-2.1019626;1.5182959;13.431959;;1186.6
1345.0;1301.3;;;;;;;;;;;;;;0.93563646;0.13251136;-0.27723014;;;;;1186.6
1345.0;1301.3;;;;;;;;;;;;;;;;;-0.5302591;1.6632588;13.142034;;1196.3
1345.0;1301.3;;;;;;;;;;;;;;0.92916656;0.12537004;-0.2751549;;;;;1196.3
1345.0;1301.3;;;;;;;;;;;;;;;;;1.1558886;1.617481;13.168737;;1196.3
1345.0;1301.3;;;;;;;;;;;;;;0.9273965;0.12115848;-0.27661976;;;;;1196.3
1345.0;1301.3;;;;;;;;;;;;;;;;;3.0442214;1.9798884;13.275552;;1205.9
1345.0;1301.3;;;;;;;;;;;;;;0.92336804;0.11645863;-0.27619252;;;;;1205.9
1345.0;1301.3;;;;;;;;;;;;;;;;;5.1690726;2.254555;13.668478;;1205.9
1345.0;1301.3;;;;;;;;;;;;;;0.9234901;0.1093173;-0.2733848;;;;;1205.9
1347.0;1302.1;;;;;;;;;;;;;;;;;7.1985536;2.8954437;14.244514;;1215.6
1347.0;1302.1;;;;;;;;;;;;;;0.92373425;0.106753744;-0.2713706;;;;;1215.6
1347.0;1302.1;;;;;;;;;;;;;;;;;9.266183;3.6088138;14.694663;;1215.6
1347.0;1302.1;;;;;;;;;;;;;;0.92281866;0.10022279;-0.26569414;;;;;1215.6
1347.0;1302.1;;;;;;;;;;;;;;;;;12.035737;4.299295;15.381329;;1225.3
1347.0;1302.1;;;;;;;;;;;;;;0.92672503;0.0966216;-0.26252022;;;;;1225.3
1347.0;1302.1;;;;;;;;;;;;;;;;;15.373699;4.9172945;16.327404;;1225.3
1347.0;1302.1;;;;;;;;;;;;;;0.9286782;0.096499525;-0.2602008;;;;;1225.3
1347.0;1302.1;;;;;;;;;;;;;;;;;19.188513;5.474258;17.303995;;1234.9
1347.0;1302.1;;;;;;;;;;;;;;0.929899;0.09851375;-0.25476852;;;;;1234.9
1347.0;1302.1;;;;;;;;;;;;;;;;;23.049105;6.309702;18.406477;;1234.9
1347.0;1302.1;;;;;;;;;;;;;;0.93166906;0.099612415;-0.25305948;;;;;1234.9
1347.0;1307.4;;;;-0.43964392;0.9120904;0.23237613;;;;;;;;;;;;;;;
1347.0;1307.4;;;;-0.43451697;0.9090806;0.2347298;;;;;;;;;;;;;;;
1347.0;1307.4;;;;-0.43005377;0.9062768;0.23731998;;;;;;;;;;;;;;;
1347.0;1307.4;;;;-0.4265061;0.9023553;0.23938373;;;;;;;;;;;;;;;
1347.0;1307.4;;;;-0.4232865;0.89956295;0.24009708;;;;;;;;;;;;;;;
1398.0;1316.3;;;;;;;;;;;;;;;;;26.940214;7.1298866;19.562365;;1244.5
1398.0;1316.3;;;;;;;;;;;;;;0.9284341;0.09796441;-0.25476852;;;;;1244.5
1398.0;1316.3;;;;;;;;;;;;;;;;;30.89236;7.98822;20.466475;;1244.5
1398.0;1316.3;;;;;;;;;;;;;;0.92141485;0.10260323;-0.25501266;;;;;1244.5
1398.0;1316.3;;;;;;;;;;;;;;;;;34.34095;8.766441;21.099735;;1254.0
1398.0;1316.3;;;;;;;;;;;;;;0.9081698;0.10821863;-0.24683371;;;;;1254.0
1398.0;1316.3;;;;;;;;;;;;;;;;;36.812954;9.159368;21.416365;;1254.0
1398.0;1316.3;;;;;;;;;;;;;;0.8923002;0.11578722;-0.24280526;;;;;1254.0
1398.0;1316.3;;;;;;;;;;;;;;;;;38.708916;8.903775;21.645254;;1263.7
1398.0;1316.3;;;;;;;;;;;;;;0.88021487;0.13715018;-0.23267312;;;;;1263.7
1398.0;1316.3;;;;;;;;;;;;;;;;;39.826653;7.992035;21.95044;;1263.7
1398.0;1316.3;;;;;;;;;;;;;;0.8697775;0.15802485;-0.22913297;;;;;1263.7
1398.0;1317.3;;;;-0.42018896;0.8966485;0.24071887;;;;;;;;;;;;;;;
1398.0;1317.3;;;;-0.4178353;0.8942338;0.24131778;;;;;;;;;;;;;;;
1398.0;1317.3;;;;-0.41597372;0.8922769;0.2414284;;;;;;;;;;;;;;;
1398.0;1317.3;;;;-0.41407782;0.8914987;0.24109271;;;;;;;;;;;;;;;
1398.0;1317.3;;;;-0.41270834;0.8914262;0.24055484;;;;;;;;;;;;;;;
1398.0;1320.1;205026;204967;12606;;;;;;;;;;;;;;;;;;
1398.0;1326.2;;;;;;;;;;;;;432;;;;;;;;
1398.0;1326.2;;;;;;;;;;;;;-504;;;;;;;;
1398.0;1326.2;;;;;;;;;;;;;-1209;;;;;;;;
1398.0;1326.2;;;;;;;;;;;;;-1286;;;;;;;;
1398.0;1326.2;;;;;;;;;;;;;-1199;;;;;;;;
1402.0;1327.2;;;;-0.41132742;0.8923532;0.24068835;;;;;;;;;;;;;;;
1402.0;1327.2;;;;-0.41027838;0.8937532;0.24064258;;;;;;;;;;;;;;;
1402.0;1327.2;;;;-0.40861136;0.8960382;0.24095538;;;;;;;;;;;;;;;
1402.0;1327.2;;;;-0.40661627;0.89836514;0.24134067;;;;;;;;;;;;;;;
1402.0;1327.2;;;;-0.40539557;0.90054715;0.24159244;;;;;;;;;;;;;;;
1402.0;1337.2;;;;-0.4036141;0.9028512;0.2420235;;;;;;;;;;;;;;;
1402.0;1337.2;;;;-0.40159994;0.9044725;0.24195102;;;;;;;;;;;;;;;
1402.0;1337.2;;;;-0.39991766;0.9049989;0.24271777;;;;;;;;;;;;;;;
1402.0;1337.2;;;;-0.39770132;0.9053613;0.24278644;;;;;;;;;;;;;;;
1402.0;1337.2;;;;-0.39552313;0.90483487;0.24322131;;;;;;;;;;;;;;;
1402.0;1340.0;221393;221332;12621;;;;;;;;;;;;;;;;;;
1402.0;1347.3;;;;-0.39300925;0.9037248;0.2428551;;;;;;;;;;;;;;;
1402.0;1347.3;;;;-0.3914376;0.9020463;0.24268726;;;;;;;;;;;;;;;
1402.0;1347.3;;;;-0.389206;0.89990246;0.24210742;;;;;;;;;;;;;;;
1402.0;1347.3;;;;-0.3872605;0.8973161;0.241375;;;;;;;;;;;;;;;
1402.0;1347.3;;;;-0.38516623;0.8944055;0.23953632;;;;;;;;;;;;;;;
1402.0;1357.4;;;;-0.3830338;0.89125836;0.23769382;;;;;;;;;;;;;;;
1402.0;1357.4;;;;-0.3812638;0.88850415;0.23579791;;;;;;;;;;;;;;;
1402.0;1357.4;;;;-0.37926108;0.88538754;0.23354343;;;;;;;;;;;;;;;
1402.0;1357.4;;;;-0.37754446;0.8821107;0.2306023;;;;;;;;;;;;;;;
1402.0;1357.4;;;;-0.3758927;0.87908185;0.22781375;;;;;;;;;;;;;;;
1403.0;1360.3;237706;237683;12607;;;;;;;;;;;;;;;;;;
1403.0;1361.8;;;;;;;;;;;;;;;;;40.20432;6.45085;21.900846;;1273.4
1403.0;1361.8;;;;;;;;;;;;;;0.8662374;0.18774988;-0.229194;;;;;1273.4
1403.0;1361.8;;;;;;;;;;;;;;;;;40.18143;5.035554;22.171696;;1273.4
1403.0;1361.8;;;;;;;;;;;;;;0.8626362;0.21832941;-0.22644734;;;;;1273.4
1403.0;1361.8;;;;;;;;;;;;;;;;;39.06369;4.669332;22.053438;;1283.0
1403.0;1361.8;;;;;;;;;;;;;;0.8611713;0.24744408;-0.22864467;;;;;1283.0
1403.0;1361.8;;;;;;;;;;;;;;;;;37.980286;4.7647023;21.60329;;1283.0
1403.0;1361.8;;;;;;;;;;;;;;0.85598314;0.28058717;-0.22107609;;;;;1283.0
1403.0;1361.8;;;;;;;;;;;;;;;;;36.69088;5.1881466;21.153143;;1292.7
1403.0;1361.8;;;;;;;;;;;;;;0.84810936;0.3124485;-0.21228676;;;;;1292.7
1403.0;1361.8;;;;;;;;;;;;;;;;;34.9971;5.493332;20.622883;;1292.7
1403.0;1361.8;;;;;;;;;;;;;;0.8390149;0.3389996;-0.20630513;;;;;1292.7
1403.0;1366.4;;;;;;;;;;;;;-1424;;;;;;;;
1403.0;1366.4;;;;;;;;;;;;;-1433;;;;;;;;
1403.0;1366.4;;;;;;;;;;;;;-855;;;;;;;;
1403.0;1366.4;;;;;;;;;;;;;-584;;;;;;;;
1403.0;1366.4;;;;;;;;;;;;;-1470;;;;;;;;
1403.0;1367.4;;;;-0.37390903;0.87612545;0.22435382;;;;;;;;;;;;;;;
1403.0;1367.4;;;;-0.37201312;0.87249386;0.22029117;;;;;;;;;;;;;;;
1403.0;1367.4;;;;-0.3694382;0.86906826;0.21641162;;;;;;;;;;;;;;;
1403.0;1367.4;;;;-0.3668671;0.8650743;0.21222308;;;;;;;;;;;;;;;
1403.0;1367.4;;;;-0.36418918;0.86034405;0.2076073;;;;;;;;;;;;;;;
1458.0;1376.3;;;;;;;;;;;;;;;;;33.40251;5.6840725;19.974363;;1302.3
1458.0;1376.3;;;;;;;;;;;;;;0.8286996;0.36469617;-0.2036195;;;;;1302.3
1458.0;1376.3;;;;;;;;;;;;;;;;;31.582844;5.855739;19.337292;;1302.3
1458.0;1376.3;;;;;;;;;;;;;;0.82021546;0.385815;-0.20001832;;;;;1302.3
1458.0;1376.3;;;;;;;;;;;;;;;;;29.641104;6.2334056;18.730736;;1311.9
1458.0;1376.3;;;;;;;;;;;;;;0.8122196;0.40070802;-0.20075075;;;;;1311.9
1458.0;1376.3;;;;;;;;;;;;;;;;;27.75277;7.1108127;18.20429;;1311.9
1458.0;1376.3;;;;;;;;;;;;;;0.803003;0.40919217;-0.20203254;;;;;1311.9
1458.0;1376.3;;;;;;;;;;;;;;;;;26.22303;8.369701;17.872402;;1321.5
1458.0;1376.3;;;;;;;;;;;;;;0.7862789;0.4148076;-0.20062868;;;;;1321.5
1458.0;1376.3;;;;;;;;;;;;;;;;;24.975584;9.479813;17.60155;;1321.5
1458.0;1376.3;;;;;;;;;;;;;;0.7693716;0.4135258;-0.1986755;;;;;1321.5
1458.0;1377.2;;;;-0.3615761;0.8550035;0.20359042;;;;;;;;;;;;;;;
1458.0;1377.2;;;;-0.35839084;0.8499032;0.19871905;;;;;;;;;;;;;;;
1458.0;1377.2;;;;-0.35556796;0.8450967;0.19360736;;;;;;;;;;;;;;;
1458.0;1377.2;;;;-0.35299686;0.8400613;0.18873218;;;;;;;;;;;;;;;
1458.0;1377.2;;;;-0.34988025;0.8355409;0.18337633;;;;;;;;;;;;;;;
1458.0;1380.1;254069;254077;12609;;;;;;;;;;;;;;;;;;
1458.0;1387.1;;;;-0.3467255;0.83121884;0.17921449;;;;;;;;;;;;;;;
1458.0;1387.1;;;;-0.34377673;0.8270799;0.17532732;;;;;;;;;;;;;;;
1458.0;1387.1;;;;-0.34089664;0.8237115;0.17081071;;;;;;;;;;;;;;;
1458.0;1387.1;;;;-0.3385735;0.8208314;0.16588594;;;;;;;;;;;;;;;
1458.0;1387.1;;;;-0.3356667;0.81803524;0.16210939;;;;;;;;;;;;;;;
1461.0;1397.1;;;;-0.3326302;0.8159448;0.15770723;;;;;;;;;;;;;;;
1461.0;1397.1;;;;-0.329361;0.81523144;0.15393068;;;;;;;;;;;;;;;
1461.0;1397.1;;;;-0.32639697;0.81395733;0.15054323;;;;;;;;;;;;;;;
1461.0;1397.1;;;;-0.32315448;0.8129121;0.14766313;;;;;;;;;;;;;;;
1461.0;1397.1;;;;-0.32042316;0.81216824;0.14449312;;;;;;;;;;;;;;;
1461.0;1400.1;262143;262143;12608;;;;;;;;;;;;;;;;;;
1461.0;1406.3;;;;;;;;;;;;;-3053;;;;;;;;
1461.0;1406.3;;;;;;;;;;;;;-4072;;;;;;;;
1461.0;1406.3;;;;;;;;;;;;;-3962;;;;;;;;
1461.0;1406.3;;;;;;;;;;;;;-3193;;;;;;;;
1461.0;1406.3;;;;;;;;;;;;;-2417;;;;;;;;
1461.0;1407.2;;;;-0.3176804;0.81193936;0.14148714;;;;;;;;;;;;;;;
1461.0;1407.2;;;;-0.3146973;0.81176007;0.13816835;;;;;;;;;;;;;;;
1461.0;1407.2;;;;-0.311245;0.8112794;0.13522722;;;;;;;;;;;;;;;
1461.0;1407.2;;;;-0.30900195;0.81134045;0.13225175;;;;;;;;;;;;;;;
1461.0;1407.2;;;;-0.30682757;0.8112222;0.12897111;;;;;;;;;;;;;;;
1461.0;1417.3;;;;-0.30502704;0.81147397;0.12532808;;;;;;;;;;;;;;;
1461.0;1417.3;;;;-0.30347446;0.8116456;0.12247087;;;;;;;;;;;;;;;
1461.0;1417.3;;;;-0.30183414;0.81266034;0.11928941;;;;;;;;;;;;;;;
1461.0;1417.3;;;;-0.29996493;0.81320965;0.11619188;;;;;;;;;;;;;;;
1461.0;1417.3;;;;-0.29685214;0.81453335;0.11614992;;;;;;;;;;;;;;;
1461.0;1420.3;262143;262143;12603;;;;;;;;;;;;;;;;;;
1520.0;1421.4;;;;;;;;;;;;;;;;;23.67092;9.693442;17.42607;;1331.1
1520.0;1421.4;;;;;;;;;;;;;;0.75429547;0.41029084;-0.19788201;;;;;1331.1
1520.0;1421.4;;;;;;;;;;;;;;;;;22.362436;9.685812;17.265846;;1331.1
1520.0;1421.4;;;;;;;;;;;;;;0.7410504;0.3991821;-0.20038453;;;;;1331.1
1520.0;1421.4;;;;;;;;;;;;;;;;;21.061586;9.475998;17.17429;;1340.7
1520.0;1421.4;;;;;;;;;;;;;;0.73390913;0.38642538;-0.20471816;;;;;1340.7
1520.0;1421.4;;;;;;;;;;;;;;;;;19.661549;9.170813;17.216253;;1340.7
1520.0;1421.4;;;;;;;;;;;;;;0.73281044;0.37299722;-0.20343639;;;;;1340.7
1520.0;1421.4;;;;;;;;;;;;;;;;;18.20429;8.995331;17.372662;;1350.3
1520.0;1421.4;;;;;;;;;;;;;;0.7325663;0.36146122;-0.2033143;;;;;1350.3
1520.0;1421.4;;;;;;;;;;;;;;;;;16.727959;8.663442;17.582476;;1350.3
1520.0;1421.4;;;;;;;;;;;;;;0.73360395;0.35254982;-0.20471816;;;;;1350.3
1520.0;1427.3;;;;-0.2961922;0.8156434;0.11135484;;;;;;;;;;;;;;;
1520.0;1427.3;;;;-0.29482272;0.8163949;0.10795213;;;;;;;;;;;;;;;
1520.0;1427.3;;;;-0.29338458;0.8171121;0.103195205;;;;;;;;;;;;;;;
1520.0;1427.3;;;;-0.29134753;0.81860363;0.09938432;;;;;;;;;;;;;;;
1520.0;1427.3;;;;-0.29018787;0.82136166;0.094871536;;;;;;;;;;;;;;;
1520.0;1437.3;;;;-0.2890015;0.82400906;0.08996583;;;;;;;;;;;;;;;
1520.0;1437.3;;;;-0.28851703;0.8271791;0.085033424;;;;;;;;;;;;;;;
1520.0;1437.3;;;;-0.2880669;0.8309442;0.0805626;;;;;;;;;;;;;;;
1520.0;1437.3;;;;-0.287941;0.83537304;0.07579804;;;;;;;;;;;;;;;
1520.0;1437.3;;;;-0.2883301;0.8403436;0.0715828;;;;;;;;;;;;;;;
1520.0;1440.3;262143;262143;12609;;;;;;;;;;;;;;;;;;
1527.0;1446.4;;;;;;;;;;;;;-1693;;;;;;;;
1527.0;1446.4;;;;;;;;;;;;;-726;;;;;;;;
1527.0;1446.4;;;;;;;;;;;;;243;;;;;;;;
1527.0;1446.4;;;;;;;;;;;;;797;;;;;;;;
1527.0;1446.4;;;;;;;;;;;;;890;;;;;;;;
1527.0;1447.2;;;;-0.28792575;0.8449899;0.06750489;;;;;;;;;;;;;;;
1527.0;1447.2;;;;-0.28756717;0.84991467;0.06324387;;;;;;;;;;;;;;;
1527.0;1447.2;;;;-0.28783038;0.8545915;0.05849076;;;;;;;;;;;;;;;
1527.0;1447.2;;;;-0.28818515;0.8593637;0.053741463;;;;;;;;;;;;;;;
1527.0;1447.2;;;;-0.2887955;0.86431515;0.049114235;;;;;;;;;;;;;;;
1527.0;1457.2;;;;-0.28899005;0.8691484;0.044521336;;;;;;;;;;;;;;;
1527.0;1457.2;;;;-0.28955844;0.8742486;0.040275577;;;;;;;;;;;;;;;
1527.0;1457.2;;;;-0.28987125;0.87911236;0.036952976;;;;;;;;;;;;;;;
1527.0;1457.2;;;;-0.29006198;0.88375866;0.032932285;;;;;;;;;;;;;;;
1527.0;1457.2;;;;-0.29032138;0.88837826;0.028450016;;;;;;;;;;;;;;;
1527.0;1460.3;262143;262143;12606;;;;;;;;;;;;;;;;;;
1527.0;1467.3;;;;-0.29116824;0.8931123;0.023567203;;;;;;;;;;;;;;;
1527.0;1467.3;;;;-0.29145816;0.89828503;0.01922989;;;;;;;;;;;;;;;
1527.0;1467.3;;;;-0.2922249;0.9027444;0.014701845;;;;;;;;;;;;;;;
1527.0;1467.3;;;;-0.29279712;0.90683377;0.010513307;;;;;;;;;;;;;;;
1527.0;1467.3;;;;-0.38763052;0.9749948;0.060501106;;;;;;;;;;;;;;;
1530.0;1477.4;;;;-0.47490317;1.0597306;0.13683702;;;;;;;;;;;;;;;
1530.0;1477.4;;;;-0.13578798;0.8057519;-0.08724976;;;;;;;;;;;;;;;
1530.0;1477.4;;;;-0.26510242;0.8915483;-0.048610695;;;;;;;;;;;;;;;
1530.0;1477.4;;;;-0.34336093;0.9528619;0.013092043;;;;;;;;;;;;;;;
1530.0;1477.4;;;;-0.281765;0.90260327;-0.03496552;;;;;;;;;;;;;;;
1530.0;1480.6;262143;262143;12598;;;;;;;;;;;;;;;;;;
1530.0;1481.7;;;;;;;;;;;;;;;;;15.163884;7.9844055;17.880032;;1360.0
1530.0;1481.7;;;;;;;;;;;;;;0.7408673;0.34089175;-0.21112704;;;;;1360.0
1530.0;1481.7;;;;;;;;;;;;;;;;;13.351849;7.312998;18.33018;;1360.0
1530.0;1481.7;;;;;;;;;;;;;;0.74703205;0.32941678;-0.21234779;;;;;1360.0
1530.0;1481.7;;;;;;;;;;;;;;;;;11.612293;6.6835537;18.608662;;1369.6
1530.0;1481.7;;;;;;;;;;;;;;0.7525254;0.3180639;-0.2120426;;;;;1369.6
1530.0;1481.7;;;;;;;;;;;;;;;;;10.090182;5.9778132;18.818476;;1369.6
1530.0;1481.7;;;;;;;;;;;;;;0.75502795;0.30872524;-0.20520645;;;;;1369.6
1530.0;1481.7;;;;;;;;;;;;;;;;;8.621479;5.3559985;18.795588;;1379.2
1530.0;1481.7;;;;;;;;;;;;;;0.75679797;0.29920346;-0.19971313;;;;;1379.2
1530.0;1481.7;;;;;;;;;;;;;;;;;7.0917387;5.0393686;18.63155;;1379.2
1530.0;1481.7;;;;;;;;;;;;;;0.75771356;0.28913236;-0.19190039;;;;;1379.2
1531.0;1482.9;;;;;;;;;;;;;;;;;5.7832575;5.142369;18.189032;;1388.7
1531.0;1482.9;;;;;;;;;;;;;;0.758507;0.28003785;-0.18018128;;;;;1388.7
1531.0;1482.9;;;;;;;;;;;;;;;;;4.8486285;5.516221;17.582476;;1388.7
1531.0;1482.9;;;;;;;;;;;;;;0.76296276;0.27497178;-0.16699728;;;;;1388.7
1531.0;1482.9;;;;;;;;;;;;;;;;;4.440443;5.821406;16.941587;;1398.3
1531.0;1482.9;;;;;;;;;;;;;;0.7713248;0.2739952;-0.15497299;;;;;1398.3
1531.0;1482.9;;;;;;;;;;;;;;;;;4.421369;5.7985168;16.48381;;1398.3
1531.0;1482.9;;;;;;;;;;;;;;0.78579056;0.2730186;-0.15179907;;;;;1398.3
1531.0;1482.9;;;;;;;;;;;;;;;;;4.974517;5.5887017;16.21296;;1408.0
1531.0;1482.9;;;;;;;;;;;;;;0.80324715;0.272042;-0.15143284;;;;;1408.0
1531.0;1482.9;;;;;;;;;;;;;;;;;6.015961;5.630665;16.38081;;1408.0
1531.0;1482.9;;;;;;;;;;;;;;0.8256478;0.2680746;-0.14758751;;;;;1408.0
1531.0;1486.6;;;;;;;;;;;;;615;;;;;;;;
1531.0;1486.6;;;;;;;;;;;;;321;;;;;;;;
1531.0;1486.6;;;;;;;;;;;;;288;;;;;;;;
1531.0;1486.6;;;;;;;;;;;;;393;;;;;;;;
1531.0;1486.6;;;;;;;;;;;;;481;;;;;;;;
1531.0;1487.4;;;;-0.2879639;0.9110719;-0.03913117;;;;;;;;;;;;;;;
1531.0;1487.4;;;;-0.2974358;0.91991055;-0.02744675;;;;;;;;;;;;;;;
1531.0;1487.4;;;;-0.29879;0.9256059;-0.02864838;;;;;;;;;;;;;;;
1531.0;1487.4;;;;-0.29989246;0.928486;-0.02802277;;;;;;;;;;;;;;;
1531.0;1487.4;;;;-0.30157092;0.93089306;-0.027133945;;;;;;;;;;;;;;;
1576.0;1497.3;;;;-0.3027611;0.9337274;-0.02638245;;;;;;;;;;;;;;;
1576.0;1497.3;;;;-0.30344775;0.9367143;-0.025535587;;;;;;;;;;;;;;;
1576.0;1497.3;;;;-0.30441287;0.9392282;-0.027030949;;;;;;;;;;;;;;;
1576.0;1497.3;;;;-0.30889133;0.94594204;-0.024997715;;;;;;;;;;;;;;;
1576.0;1497.3;;;;-0.30188754;0.9439851;-0.030052189;;;;;;;;;;;;;;;
1576.0;1500.6;262143;262143;12604;;;;;;;;;;;;;;;;;;
1576.0;1507.4;;;;-0.30471805;0.95124066;-0.031169895;;;;;;;;;;;;;;;
1576.0;1507.4;;;;-0.3042641;0.9584924;-0.029815678;;;;;;;;;;;;;;;
1576.0;1507.4;;;;-0.3026047;0.9687425;-0.029773716;;;;;;;;;;;;;;;
1576.0;1507.4;;;;-0.30575183;0.97727215;-0.036376957;;;;;;;;;;;;;;;
1576.0;1507.4;;;;-0.30695727;0.98511136;-0.042709354;;;;;;;;;;;;;;;
1576.0;1517.3;;;;-0.30785754;0.99593365;-0.04871369;;;;;;;;;;;;;;;
1576.0;1517.3;;;;-0.30479816;1.0077325;-0.054180153;;;;;;;;;;;;;;;
1576.0;1517.3;;;;-0.31016544;1.0278665;-0.05371476;;;;;;;;;;;;;;;
1576.0;1517.3;;;;-0.3311539;1.0593721;-0.041023258;;;;;;;;;;;;;;;
1576.0;1517.3;;;;-0.3438721;1.0879556;-0.027683262;;;;;;;;;;;;;;;
1576.0;1520.6;262143;262143;12626;;;;;;;;;;;;;;;;;;
1576.0;1526.7;;;;;;;;;;;;;404;;;;;;;;
1576.0;1526.7;;;;;;;;;;;;;-124;;;;;;;;
1576.0;1526.7;;;;;;;;;;;;;-806;;;;;;;;
1576.0;1526.7;;;;;;;;;;;;;-953;;;;;;;;
1576.0;1526.7;;;;;;;;;;;;;-880;;;;;;;;
1580.0;1527.4;;;;-0.34978488;1.1141969;-0.018047335;;;;;;;;;;;;;;;
1580.0;1527.4;;;;-0.35308078;1.1376611;-0.014053347;;;;;;;;;;;;;;;
1580.0;1527.4;;;;-0.3540955;1.157467;-0.012763979;;;;;;;;;;;;;;;
1580.0;1527.4;;;;-0.35369495;1.173668;-0.015369417;;;;;;;;;;;;;;;
1580.0;1527.4;;;;-0.35071567;1.1855165;-0.018383028;;;;;;;;;;;;;;;
1580.0;1537.5;;;;-0.34587482;1.191208;-0.021595003;;;;;;;;;;;;;;;
1580.0;1537.5;;;;-0.34152225;1.1950494;-0.024574284;;;;;;;;;;;;;;;
1580.0;1537.5;;;;-0.33763888;1.1969262;-0.029628757;;;;;;;;;;;;;;;
1580.0;1537.5;;;;-0.33262256;1.1968538;-0.033996586;;;;;;;;;;;;;;;
1580.0;1537.5;;;;-0.32425693;1.1939431;-0.03736878;;;;;;;;;;;;;;;
1580.0;1540.8;262143;262143;12628;;;;;;;;;;;;;;;;;;
1580.0;1547.6;;;;-0.31657413;1.1907045;-0.041404728;;;;;;;;;;;;;;;
1580.0;1547.6;;;;-0.31141666;1.18882;-0.04629517;;;;;;;;;;;;;;;
1580.0;1547.6;;;;-0.30614856;1.1870996;-0.050861366;;;;;;;;;;;;;;;
1580.0;1547.6;;;;-0.3065262;1.1883165;-0.055767067;;;;;;;;;;;;;;;
1580.0;1547.6;;;;-0.3107529;1.1897928;-0.06311036;;;;;;;;;;;;;;;
1582.0;1549.5;;;;;;;;;;;;;;;;;7.3435163;6.405072;16.853848;;1417.6
1582.0;1549.5;;;;;;;;;;;;;;0.8515885;0.26056704;-0.14026307;;;;;1417.6
1582.0;1549.5;;;;;;;;;;;;;;;;;9.228034;7.5991087;17.58629;;1417.6
1582.0;1549.5;;;;;;;;;;;;;;0.875515;0.25019073;-0.1391644;;;;;1417.6
1582.0;1549.5;;;;;;;;;;;;;;;;;11.455885;8.449813;18.581957;;1427.3
1582.0;1549.5;;;;;;;;;;;;;;0.90176094;0.2372509;-0.14508499;;;;;1427.3
1582.0;1549.5;;;;;;;;;;;;;;;;;13.954588;8.873257;19.810328;;1427.3
1582.0;1549.5;;;;;;;;;;;;;;0.93038726;0.21796319;-0.15845211;;;;;1427.3
1582.0;1549.5;;;;;;;;;;;;;;;;;16.769922;9.182257;21.320993;;1436.9
1582.0;1549.5;;;;;;;;;;;;;;0.9591357;0.19336528;-0.17224647;;;;;1436.9
1582.0;1549.5;;;;;;;;;;;;;;;;;19.83703;9.987182;22.953733;;1436.9
1582.0;1549.5;;;;;;;;;;;;;;0.9816584;0.16321298;-0.17877743;;;;;1436.9
1582.0;1556.8;;;;;;;;;;;;;;;;;23.503067;11.463515;24.494919;;1446.5
1582.0;1556.8;;;;;;;;;;;;;;1.0052797;0.13257241;-0.17810602;;;;;1446.5
1582.0;1556.8;;;;;;;;;;;;;;;;;27.565844;13.142034;26.039919;;1446.5
1582.0;1556.8;;;;;;;;;;;;;;1.0312815;0.10412916;-0.17670217;;;;;1446.5
1582.0;1556.8;;;;;;;;;;;;;;;;;31.708733;14.286477;27.619251;;1456.1
1582.0;1556.8;;;;;;;;;;;;;;1.0583209;0.079226054;-0.17969298;;;;;1456.1
1582.0;1556.8;;;;;;;;;;;;;;;;;36.168247;14.64507;29.293955;;1456.1
1582.0;1556.8;;;;;;;;;;;;;;1.0912808;0.057924133;-0.19238868;;;;;1456.1
1582.0;1556.8;;;;;;;;;;;;;;;;;40.482803;14.393292;30.949583;;1465.8
1582.0;1556.8;;;;;;;;;;;;;;1.1303445;0.03851436;-0.21228676;;;;;1465.8
1582.0;1556.8;;;;;;;;;;;;;;;;;44.820244;13.977477;32.6014;;1465.8
1582.0;1556.8;;;;;;;;;;;;;;1.1766716;0.027954955;-0.2417066;;;;;1465.8
1696.0;1557.4;;;;-0.31357577;1.1895562;-0.074436195;;;;;;;;;;;;;;;
1696.0;1557.4;;;;-0.3186989;1.1869012;-0.08569337;;;;;;;;;;;;;;;
1696.0;1557.4;;;;-0.3297272;1.1879579;-0.0981331;;;;;;;;;;;;;;;
1696.0;1557.4;;;;-0.3441086;1.1947328;-0.11103822;;;;;;;;;;;;;;;
1696.0;1557.4;;;;-0.356308;1.2082216;-0.12434007;;;;;;;;;;;;;;;
1696.0;1560.7;262143;262143;12636;;;;;;;;;;;;;;;;;;
1696.0;1566.8;;;;;;;;;;;;;-1237;;;;;;;;
1696.0;1566.8;;;;;;;;;;;;;-1799;;;;;;;;
1696.0;1566.8;;;;;;;;;;;;;-1962;;;;;;;;
1696.0;1566.8;;;;;;;;;;;;;-1784;;;;;;;;
1696.0;1566.8;;;;;;;;;;;;;-1922;;;;;;;;
1696.0;1567.4;;;;-0.3761559;1.2257768;-0.13460542;;;;;;;;;;;;;;;
1696.0;1567.4;;;;-0.40074545;1.245987;-0.14482881;;;;;;;;;;;;;;;
1696.0;1567.4;;;;-0.42178732;1.2682534;-0.1544037;;;;;;;;;;;;;;;
1696.0;1567.4;;;;-0.43925864;1.2913209;-0.16956331;;;;;;;;;;;;;;;
1696.0;1567.4;;;;-0.4550057;1.3154908;-0.18213655;;;;;;;;;;;;;;;
1696.0;1577.3;;;;-0.47679907;1.3413888;-0.19108585;;;;;;;;;;;;;;;
1696.0;1577.3;;;;-0.50158316;1.3703767;-0.19983295;;;;;;;;;;;;;;;
1696.0;1577.3;;;;-0.5304032;1.3967515;-0.20665744;;;;;;;;;;;;;;;
1696.0;1577.3;;;;-0.5586625;1.4168702;-0.20668796;;;;;;;;;;;;;;;
1696.0;1577.3;;;;-0.5848542;1.4353982;-0.20255283;;;;;;;;;;;;;;;
1696.0;1580.8;262143;262143;12626;;;;;;;;;;;;;;;;;;
1707.0;1587.4;;;;-0.616726;1.4493524;-0.19834521;;;;;;;;;;;;;;;
1707.0;1587.4;;;;-0.6457978;1.4566232;-0.19158557;;;;;;;;;;;;;;;
1707.0;1587.4;;;;-0.6622048;1.4610597;-0.18677141;;;;;;;;;;;;;;;
1707.0;1587.4;;;;-0.6761475;1.4598733;-0.18344499;;;;;;;;;;;;;;;
1707.0;1587.4;;;;-0.6800919;1.4530336;-0.18809131;;;;;;;;;;;;;;;
1707.0;1597.6;;;;-0.69209677;1.4377023;-0.19691852;;;;;;;;;;;;;;;
1707.0;1597.6;;;;-0.7123719;1.4196969;-0.21110156;;;;;;;;;;;;;;;
1707.0;1597.6;;;;-0.7194367;1.3918878;-0.22677997;;;;;;;;;;;;;;;
1707.0;1597.6;;;;-0.71924216;1.3562051;-0.24143985;;;;;;;;;;;;;;;
1707.0;1597.6;;;;-0.7258416;1.3151094;-0.25192264;;;;;;;;;;;;;;;
1707.0;1601.0;262143;262143;12626;;;;;;;;;;;;;;;;;;
1707.0;1602.1;;;;;;;;;;;;;;;;;48.76095;13.496811;34.29136;;1475.4
1707.0;1602.1;;;;;;;;;;;;;;1.2192144;0.024658956;-0.2959685;;;;;1475.4
1707.0;1602.1;;;;;;;;;;;;;;;;;52.930542;12.676625;36.00421;;1475.4
1707.0;1602.1;;;;;;;;;;;;;;1.2573016;0.038270213;-0.31733146;;;;;1475.4
1707.0;1602.1;;;;;;;;;;;;;;;;;57.168797;11.024812;37.70562;;1485.0
1707.0;1602.1;;;;;;;;;;;;;;1.2930082;0.07312235;-0.3270974;;;;;1485.0
1707.0;1602.1;;;;;;;;;;;;;;;;;61.468094;7.4541464;39.502396;;1485.0
1707.0;1602.1;;;;;;;;;;;;;;1.325724;0.13336588;-0.3635975;;;;;1485.0
1707.0;1602.1;;;;;;;;;;;;;;;;;64.45509;0.99185157;41.226692;;1494.7
1707.0;1602.1;;;;;;;;;;;;;;1.3665578;0.19940794;-0.42384106;;;;;1494.7
1707.0;1602.1;;;;;;;;;;;;;;;;;64.45509;-5.855739;42.294838;;1494.7
1707.0;1602.1;;;;;;;;;;;;;;1.406476;0.25519577;-0.4839015;;;;;1494.7
1709.0;1602.9;;;;;;;;;;;;;;;;;60.979797;-8.465072;42.45125;;1504.4
1709.0;1602.9;;;;;;;;;;;;;;1.4175848;0.30756554;-0.4915311;;;;;1504.4
1709.0;1602.9;;;;;;;;;;;;;;;;;55.413982;-7.5037384;41.402172;;1504.4
1709.0;1602.9;;;;;;;;;;;;;;1.3903623;0.374279;-0.46919155;;;;;1504.4
1709.0;1602.9;;;;;;;;;;;;;;;;;49.18058;-4.852443;39.78469;;1514.0
1709.0;1602.9;;;;;;;;;;;;;;1.3379315;0.45319986;-0.44178593;;;;;1514.0
1709.0;1602.9;;;;;;;;;;;;;;;;;42.344433;-1.5411848;37.507248;;1514.0
1709.0;1602.9;;;;;;;;;;;;;;1.2795801;0.50990325;-0.39863276;;;;;1514.0
1709.0;1602.9;;;;;;;;;;;;;;;;;34.463024;1.1787775;34.596542;;1523.6
1709.0;1602.9;;;;;;;;;;;;;;1.2388684;0.5363323;-0.3491928;;;;;1523.6
1709.0;1602.9;;;;;;;;;;;;;;;;;26.100956;2.0027773;31.601917;;1523.6
1709.0;1602.9;;;;;;;;;;;;;;1.2246468;0.5339518;-0.3065279;;;;;1523.6
1709.0;1607.0;;;;;;;;;;;;;-2300;;;;;;;;
1709.0;1607.0;;;;;;;;;;;;;-2272;;;;;;;;
1709.0;1607.0;;;;;;;;;;;;;-1858;;;;;;;;
1709.0;1607.0;;;;;;;;;;;;;-1646;;;;;;;;
1709.0;1607.0;;;;;;;;;;;;;-1700;;;;;;;;
1709.0;1607.5;;;;-0.7330056;1.2715112;-0.2598267;;;;;;;;;;;;;;;
1709.0;1607.5;;;;-0.7338143;1.2272073;-0.26523975;;;;;;;;;;;;;;;
1709.0;1607.5;;;;-0.7321053;1.1833917;-0.26968387;;;;;;;;;;;;;;;
1709.0;1607.5;;;;-0.7273484;1.1423112;-0.27245334;;;;;;;;;;;;;;;
1709.0;1607.5;;;;-0.7191544;1.1036378;-0.27302936;;;;;;;;;;;;;;;
1711.0;1617.0;;;;;;;;;;;;;;;;;19.009216;0.92699975;28.263954;;1533.1
1711.0;1617.0;;;;;;;;;;;;;;1.2351451;0.51405376;-0.27887815;;;;;1533.1
1711.0;1617.0;;;;;;;;;;;;;;;;;14.01944;-0.25559253;24.666586;;1533.1
1711.0;1617.0;;;;;;;;;;;;;;1.2532731;0.49446088;-0.26105532;;;;;1533.1
1711.0;1617.0;;;;;;;;;;;;;;;;;11.116366;-0.7248146;20.950956;;1542.7
1711.0;1617.0;;;;;;;;;;;;;;1.2596209;0.48072755;-0.25739312;;;;;1542.7
1711.0;1617.0;;;;;;;;;;;;;;;;;9.678183;-1.2436292;17.071291;;1542.7
1711.0;1617.0;;;;;;;;;;;;;;1.24662;0.47590563;-0.2557451;;;;;1542.7
1711.0;1617.0;;;;;;;;;;;;;;;;;8.613849;-3.2197027;12.668996;;1552.3
1711.0;1617.0;;;;;;;;;;;;;;1.226661;0.47920164;-0.2515946;;;;;1552.3
1711.0;1617.0;;;;;;;;;;;;;;;;;6.7712946;-6.477554;8.362072;;1552.3
1711.0;1617.0;;;;;;;;;;;;;;1.215125;0.47383037;-0.23322245;;;;;1552.3
1711.0;1617.4;;;;-0.7077561;1.0694124;-0.27248386;;;;;;;;;;;;;;;
1711.0;1617.4;;;;-0.6913033;1.0390702;-0.2705231;;;;;;;;;;;;;;;
1711.0;1617.4;;;;-0.6726876;1.0122682;-0.2698212;;;;;;;;;;;;;;;
1711.0;1617.4;;;;-0.65328985;0.98853695;-0.26967242;;;;;;;;;;;;;;;
1711.0;1617.4;;;;-0.6309357;0.96496594;-0.2682419;;;;;;;;;;;;;;;
1711.0;1620.9;262143;262143;12626;;;;;;;;;;;;;;;;;;
1711.0;1627.3;;;;-0.60727316;0.94124234;-0.2628403;;;;;;;;;;;;;;;
1711.0;1627.3;;;;-0.5835839;0.91806424;-0.25735095;;;;;;;;;;;;;;;
1711.0;1627.3;;;;-0.5613175;0.8968011;-0.25179294;;;;;;;;;;;;;;;
1711.0;1627.3;;;;-0.54235846;0.8768922;-0.24558643;;;;;;;;;;;;;;;
1711.0;1627.3;;;;-0.5255967;0.85795224;-0.23820117;;;;;;;;;;;;;;;
1713.0;1637.4;;;;-0.5105782;0.8409997;-0.22912219;;;;;;;;;;;;;;;
1713.0;1637.4;;;;-0.49512106;0.82467663;-0.21742252;;;;;;;;;;;;;;;
1713.0;1637.4;;;;-0.481659;0.8109857;-0.20555499;;;;;;;;;;;;;;;
1713.0;1637.4;;;;-0.47023398;0.7989732;-0.19406512;;;;;;;;;;;;;;;
1713.0;1637.4;;;;-0.45854574;0.7904397;-0.18213274;;;;;;;;;;;;;;;
1713.0;1641.0;262143;262143;12622;;;;;;;;;;;;;;;;;;
1713.0;1647.1;;;;;;;;;;;;;-1477;;;;;;;;
1713.0;1647.1;;;;;;;;;;;;;-1427;;;;;;;;
1713.0;1647.1;;;;;;;;;;;;;-2348;;;;;;;;
1713.0;1647.1;;;;;;;;;;;;;-3414;;;;;;;;
1713.0;1647.1;;;;;;;;;;;;;-3029;;;;;;;;
1713.0;1647.5;;;;-0.44744116;0.78320324;-0.16956331;;;;;;;;;;;;;;;
1713.0;1647.5;;;;-0.4365273;0.7773248;-0.15761949;;;;;;;;;;;;;;;
1713.0;1647.5;;;;-0.42529303;0.7746812;-0.1444893;;;;;;;;;;;;;;;
1713.0;1647.5;;;;-0.41439825;0.77499783;-0.131691;;;;;;;;;;;;;;;
1713.0;1647.5;;;;-0.40560156;0.7779237;-0.11842729;;;;;;;;;;;;;;;
1713.0;1657.6;;;;-0.39495474;0.78291714;-0.10484697;;;;;;;;;;;;;;;
1713.0;1657.6;;;;-0.38558966;0.7917024;-0.090507515;;;;;;;;;;;;;;;
1713.0;1657.6;;;;-0.37560278;0.8004991;-0.0770073;;;;;;;;;;;;;;;
1713.0;1657.6;;;;-0.36664966;0.8112718;-0.063659675;;;;;;;;;;;;;;;
1713.0;1657.6;;;;-0.3563805;0.8237115;-0.051414497;;;;;;;;;;;;;;;
1713.0;1661.3;262143;262143;12622;;;;;;;;;;;;;;;;;;
1714.0;1662.3;;;;;;;;;;;;;;;;;3.3989992;-8.037812;4.5777764;;1562.0
1714.0;1662.3;;;;;;;;;;;;;;1.2181768;0.458388;-0.19013031;;;;;1562.0
1714.0;1662.3;;;;;;;;;;;;;;;;;-1.6022217;-6.111332;1.5831476;;1562.0
1714.0;1662.3;;;;;;;;;;;;;;1.2149419;0.43269143;-0.13220619;;;;;1562.0
1714.0;1662.3;;;;;;;;;;;;;;;;;-6.7522206;-2.311777;-0.56840724;;1571.7
1714.0;1662.3;;;;;;;;;;;;;;1.2076784;0.40064698;-0.073000275;;;;;1571.7
1714.0;1662.3;;;;;;;;;;;;;;;;;-11.2537;1.22837;-2.0371106;;1571.7
1714.0;1662.3;;;;;;;;;;;;;;1.1949217;0.37281412;-0.032898955;;;;;1571.7
1714.0;1662.3;;;;;;;;;;;;;;;;;-14.706107;3.5554063;-3.0823696;;1581.4
1714.0;1662.3;;;;;;;;;;;;;;1.1759392;0.3444319;-0.01495407;;;;;1581.4
1714.0;1662.3;;;;;;;;;;;;;;;;;-16.495255;3.6317027;-3.7156286;;1581.4
1714.0;1662.3;;;;;;;;;;;;;;1.152562;0.3236793;-0.020752586;;;;;1581.4
1714.0;1667.6;;;;-0.34708408;0.83690655;-0.040866856;;;;;;;;;;;;;;;
1714.0;1667.6;;;;-0.33610156;0.850052;-0.030879978;;;;;;;;;;;;;;;
1714.0;1667.6;;;;-0.32434085;0.86330426;-0.021152498;;;;;;;;;;;;;;;
1714.0;1667.6;;;;-0.31212237;0.87575924;-0.012615206;;;;;;;;;;;;;;;
1714.0;1667.6;;;;-0.29896167;0.88788617;-0.0053901677;;;;;;;;;;;;;;;
1715.0;1669.7;;;;;;;;;;;;;;;;;-16.678366;1.5182959;-4.3298135;;1590.9
1715.0;1669.7;;;;;;;;;;;;;;1.1334574;0.31647694;-0.037659843;;;;;1590.9
1715.0;1669.7;;;;;;;;;;;;;;;;;-15.297402;-1.2817774;-5.199591;;1590.9
1715.0;1669.7;;;;;;;;;;;;;;1.1175878;0.3345439;-0.058717612;;;;;1590.9
1715.0;1669.7;;;;;;;;;;;;;;;;;-13.470107;-3.3875546;-6.3173313;;1600.5
1715.0;1669.7;;;;;;;;;;;;;;1.1094089;0.37165442;-0.07763909;;;;;1600.5
1715.0;1669.7;;;;;;;;;;;;;;;;;-12.050997;-4.4328136;-7.0726647;;1600.5
1715.0;1669.7;;;;;;;;;;;;;;1.1052583;0.41828668;-0.091250345;;;;;1600.5
1715.0;1669.7;;;;;;;;;;;;;;;;;-12.409589;-3.5363324;-7.694479;;1610.2
1715.0;1669.7;;;;;;;;;;;;;;1.1087375;0.47462386;-0.088015385;;;;;1610.2
1715.0;1669.7;;;;;;;;;;;;;;;;;-15.415662;0.7667776;-8.610034;;1610.2
1715.0;1669.7;;;;;;;;;;;;;;1.0878017;0.5315714;-0.07043672;;;;;1610.2
1715.0;1677.5;;;;-0.28470615;0.8994523;0.0019226077;;;;;;;;;;;;;;;
1715.0;1677.5;;;;-0.26918796;0.90983593;0.0075035105;;;;;;;;;;;;;;;
1715.0;1677.5;;;;-0.25289157;0.91941845;0.01344681;;;;;;;;;;;;;;;
1715.0;1677.5;;;;-0.23604968;0.92886364;0.018184664;;;;;;;;;;;;;;;
1715.0;1677.5;;;;-0.21857455;0.9373704;0.022060396;;;;;;;;;;;;;;;
1715.0;1681.2;262143;262143;12625;;;;;;;;;;;;;;;;;;
1715.0;1687.2;;;;;;;;;;;;;-1303;;;;;;;;
1715.0;1687.2;;;;;;;;;;;;;-158;;;;;;;;
1715.0;1687.2;;;;;;;;;;;;;-520;;;;;;;;
1715.0;1687.2;;;;;;;;;;;;;-1513;;;;;;;;
1715.0;1687.2;;;;;;;;;;;;;-1894;;;;;;;;
1755.0;1687.5;;;;-0.20058063;0.94580853;0.02580643;;;;;;;;;;;;;;;
1755.0;1687.5;;;;-0.18244173;0.95328534;0.028232578;;;;;;;;;;;;;;;
1755.0;1687.5;;;;-0.16437913;0.9610597;0.030433659;;;;;;;;;;;;;;;
1755.0;1687.5;;;;-0.1455803;0.9688951;0.03223801;;;;;;;;;;;;;;;
1755.0;1687.5;;;;-0.12677003;0.97641003;0.032905582;;;;;;;;;;;;;;;
1755.0;1697.3;;;;-0.10762407;0.98341;0.03355408;;;;;;;;;;;;;;;
1755.0;1697.3;;;;-0.088874824;0.989586;0.033538822;;;;;;;;;;;;;;;
1755.0;1697.3;;;;-0.07017899;0.9951936;0.03396607;;;;;;;;;;;;;;;
1755.0;1697.3;;;;-0.051712044;0.9998208;0.033393864;;;;;;;;;;;;;;;
1755.0;1697.3;;;;-0.034645084;1.0045396;0.031436924;;;;;;;;;;;;;;;
1755.0;1701.1;262143;262143;12623;;;;;;;;;;;;;;;;;;
1755.0;1707.4;;;;-0.01962662;1.009327;0.027561191;;;;;;;;;;;;;;;
1755.0;1707.4;;;;-0.0041427617;1.0135804;0.022239687;;;;;;;;;;;;;;;
1755.0;1707.4;;;;0.011318208;1.0163041;0.017436983;;;;;;;;;;;;;;;
1755.0;1707.4;;;;0.024650577;1.0193063;0.011070252;;;;;;;;;;;;;;;
1755.0;1707.4;;;;0.036788944;1.022564;0.0045585637;;;;;;;;;;;;;;;
1755.0;1717.5;;;;0.04900361;1.0252305;-0.0015487673;;;;;;;;;;;;;;;
1755.0;1717.5;;;;0.06260682;1.0283891;-0.00889206;;;;;;;;;;;;;;;
1755.0;1717.5;;;;0.07459641;1.0310479;-0.016017916;;;;;;;;;;;;;;;
1755.0;1717.5;;;;0.0846634;1.0339433;-0.02259064;;;;;;;;;;;;;;;
1755.0;1717.5;;;;0.0961342;1.0359994;-0.029167179;;;;;;;;;;;;;;;
1780.0;1721.3;262143;262143;12630;;;;;;;;;;;;;;;;;;
1780.0;1722.4;;;;;;;;;;;;;;;;;-19.699697;7.4045534;-10.9904785;;1619.9
1780.0;1722.4;;;;;;;;;;;;;;1.0401318;0.588702;-0.04992828;;;;;1619.9
1780.0;1722.4;;;;;;;;;;;;;;;;;-24.925991;14.801477;-15.148624;;1619.9
1780.0;1722.4;;;;;;;;;;;;;;0.9839778;0.6549272;-0.028931547;;;;;1619.9
1780.0;1722.4;;;;;;;;;;;;;;;;;-31.105991;21.30955;-20.325327;;1629.5
1780.0;1722.4;;;;;;;;;;;;;;0.93630785;0.7179785;-0.01574755;;;;;1629.5
1780.0;1722.4;;;;;;;;;;;;;;;;;-38.140507;26.490067;-26.146732;;1629.5
1780.0;1722.4;;;;;;;;;;;;;;0.9021882;0.7786493;-0.016846217;;;;;1629.5
1780.0;1722.4;;;;;;;;;;;;;;;;;-45.865505;30.251472;-32.540363;;1639.2
1780.0;1722.4;;;;;;;;;;;;;;0.8732566;0.83242285;-0.025818659;;;;;1639.2
1780.0;1722.4;;;;;;;;;;;;;;;;;-53.945282;32.9104;-39.407024;;1639.2
1780.0;1722.4;;;;;;;;;;;;;;0.8510392;0.8811304;-0.050660726;;;;;1639.2
1784.0;1723.4;;;;;;;;;;;;;;;;;-61.773277;35.523544;-46.498764;;1648.9
1784.0;1723.4;;;;;;;;;;;;;;0.83205664;0.9207434;-0.08478042;;;;;1648.9
1784.0;1723.4;;;;;;;;;;;;;;;;;-68.81924;38.28166;-53.640095;;1648.9
1784.0;1723.4;;;;;;;;;;;;;;0.81356245;0.9469283;-0.121890925;;;;;1648.9
1784.0;1723.4;;;;;;;;;;;;;;;;;-74.75509;41.25721;-60.575424;;1658.6
1784.0;1723.4;;;;;;;;;;;;;;0.79116184;0.94845426;-0.15735343;;;;;1658.6
1784.0;1723.4;;;;;;;;;;;;;;;;;-79.245125;44.320503;-67.484055;;1658.6
1784.0;1723.4;;;;;;;;;;;;;;0.76906645;0.9411298;-0.18469802;;;;;1658.6
1784.0;1723.4;;;;;;;;;;;;;;;;;-82.18253;46.685688;-74.69024;;1668.1
1784.0;1723.4;;;;;;;;;;;;;;0.7404401;0.9170202;-0.1991638;;;;;1668.1
1784.0;1723.4;;;;;;;;;;;;;;;;;-83.31553;45.33143;-82.32368;;1668.1
1784.0;1723.4;;;;;;;;;;;;;;0.7215796;0.8836329;-0.20728172;;;;;1668.1
1784.0;1727.2;;;;;;;;;;;;;-1216;;;;;;;;
1784.0;1727.2;;;;;;;;;;;;;-143;;;;;;;;
1784.0;1727.2;;;;;;;;;;;;;429;;;;;;;;
1784.0;1727.2;;;;;;;;;;;;;-84;;;;;;;;
1784.0;1727.2;;;;;;;;;;;;;-1772;;;;;;;;
1784.0;1727.4;;;;0.10445024;1.0388376;-0.037258152;;;;;;;;;;;;;;;
1784.0;1727.4;;;;0.10998918;1.0421029;-0.044673923;;;;;;;;;;;;;;;
1784.0;1727.4;;;;0.113662735;1.042679;-0.053588875;;;;;;;;;;;;;;;
1784.0;1727.4;;;;0.11706926;1.0445901;-0.061523445;;;;;;;;;;;;;;;
1784.0;1727.4;;;;0.11937715;1.0461236;-0.068653114;;;;;;;;;;;;;;;
1784.0;1736.5;;;;;;;;;;-0.6447035;17.532883;-1.3885921;;;;;;;;;
1784.0;1736.5;;;;;;;0.6853847;-0.9437544;0.11047701;;;;;;;;;;;;
1784.0;1736.5;;;;;;;;;;6.5195165;31.456955;9.250923;;;;;;;;;
1784.0;1736.5;;;;;;;0.7712638;-1.0672933;0.12793359;;;;;;;;;;;;
1816.0;1737.4;;;;0.12159349;1.0455056;-0.074134834;;;;;;;;;;;;;;;
1816.0;1737.4;;;;0.12305452;1.0454675;-0.07969285;;;;;;;;;;;;;;;
1816.0;1737.4;;;;0.123127;1.0450555;-0.08428193;;;;;;;;;;;;;;;
1816.0;1737.4;;;;0.12231828;1.043667;-0.088665016;;;;;;;;;;;;;;;
1816.0;1737.4;;;;0.1215439;1.0410539;-0.09217072;;;;;;;;;;;;;;;
1816.0;1741.2;262143;262143;12627;;;;;;;;;;;;;;;;;;
1816.0;1745.9;;;;;;;;;;-1.701407;9.987182;3.8567767;;;;;;;;;
1816.0;1745.9;;;;;;;0.77028716;-1.0754722;0.13409834;;;;;;;;;;;;
1816.0;1745.9;;;;;;;;;;-4.7456284;34.161655;1.5640736;;;;;;;;;
1816.0;1745.9;;;;;;;0.76827294;-1.0830408;0.13721122;;;;;;;;;;;;
1816.0;1747.3;;;;0.120719925;1.0385667;-0.096382156;;;;;;;;;;;;;;;
1816.0;1747.3;;;;0.119819656;1.0359689;-0.10037233;;;;;;;;;;;;;;;
1816.0;1747.3;;;;0.11885454;1.0324365;-0.104461685;;;;;;;;;;;;;;;
1816.0;1747.3;;;;0.11695863;1.0277444;-0.1087227;;;;;;;;;;;;;;;
1816.0;1747.3;;;;0.11503221;1.0225221;-0.11217882;;;;;;;;;;;;;;;
1816.0;1755.5;;;;;;;;;;-12.733848;49.806206;-6.660665;;;;;;;;;
1816.0;1755.5;;;;;;;0.76216924;-1.0871913;0.14368114;;;;;;;;;;;;
1816.0;1755.5;;;;;;;;;;-25.135807;29.438917;-37.938324;;;;;;;;;
1816.0;1755.5;;;;;;;0.7564928;-1.0908536;0.15088351;;;;;;;;;;;;
1818.0;1757.4;;;;0.11362077;1.0182039;-0.114490524;;;;;;;;;;;;;;;
1818.0;1757.4;;;;0.11141206;1.0142251;-0.11634447;;;;;;;;;;;;;;;
1818.0;1757.4;;;;0.10990907;1.008938;-0.11690523;;;;;;;;;;;;;;;
1818.0;1757.4;;;;0.10841371;1.0050241;-0.11629869;;;;;;;;;;;;;;;
1818.0;1757.4;;;;0.105964676;1.0008126;-0.11578752;;;;;;;;;;;;;;;
1818.0;1761.3;262143;262143;12634;;;;;;;;;;;;;;;;;;
1818.0;1765.1;;;;;;;;;;-32.006287;44.583725;-48.2841;;;;;;;;;
1818.0;1765.1;;;;;;;0.7483749;-1.0932951;0.15741447;;;;;;;;;;;;
1818.0;1765.1;;;;;;;;;;-38.121433;60.27024;-59.121983;;;;;;;;;
1818.0;1765.1;;;;;;;0.74056214;-1.094882;0.16754662;;;;;;;;;;;;
1818.0;1767.4;;;;;;;;;;;;;-3584;;;;;;;;
1818.0;1767.4;;;;;;;;;;;;;-4157;;;;;;;;
1818.0;1767.4;;;;;;;;;;;;;-3635;;;;;;;;
1818.0;1767.4;;;;;;;;;;;;;-3413;;;;;;;;
1818.0;1767.4;;;;;;;;;;;;;-4161;;;;;;;;
1818.0;1767.5;;;;0.10245134;0.99684536;-0.114093795;;;;;;;;;;;;;;;
1818.0;1767.5;;;;0.099094406;0.99362576;-0.111511245;;;;;;;;;;;;;;;
1818.0;1767.5;;;;0.09495546;0.99073803;-0.10805513;;;;;;;;;;;;;;;
1818.0;1767.5;;;;0.089321144;0.9885942;-0.10492326;;;;;;;;;;;;;;;
1818.0;1767.5;;;;0.08456803;0.986725;-0.1011696;;;;;;;;;;;;;;;
1818.0;1774.7;;;;;;;;;;-42.851803;81.65608;-63.898132;;;;;;;;;
1818.0;1774.7;;;;;;;0.7299417;-1.0962859;0.1775567;;;;;;;;;;;;
1818.0;1774.7;;;;;;;;;;-42.954803;95.294044;-62.429424;;;;;;;;;
1818.0;1774.7;;;;;;;0.7206641;-1.0957366;0.1902524;;;;;;;;;;;;
1819.0;1777.6;;;;0.078090675;0.98500836;-0.09741975;;;;;;;;;;;;;;;
1819.0;1777.6;;;;0.07159043;0.98347867;-0.09333039;;;;;;;;;;;;;;;
1819.0;1777.6;;;;0.06463242;0.9820787;-0.0874672;;;;;;;;;;;;;;;
1819.0;1777.6;;;;0.05744935;0.9803964;-0.0813675;;;;;;;;;;;;;;;
1819.0;1777.6;;;;0.050086983;0.97890866;-0.07502747;;;;;;;;;;;;;;;
1819.0;1781.6;262143;262143;12628;;;;;;;;;;;;;;;;;;
1819.0;1782.5;;;;;;;;;;;;;;;;;-83.39183;40.208134;-90.14404;;1677.8
1819.0;1782.5;;;;;;;;;;;;;;0.73397017;0.85567796;-0.20441298;;;;;1677.8
1819.0;1782.5;;;;;;;;;;;;;;;;;-83.246864;32.631916;-97.44179;;1677.8
1819.0;1782.5;;;;;;;;;;;;;;0.77590257;0.8028199;-0.21106601;;;;;1677.8
1819.0;1782.5;;;;;;;;;;;;;;;;;-80.92364;24.651327;-104.92645;;1687.3
1819.0;1782.5;;;;;;;;;;;;;;0.8191778;0.7627186;-0.19354838;;;;;1687.3
1819.0;1782.5;;;;;;;;;;;;;;;;;-79.42823;16.052736;-111.941895;;1687.3
1819.0;1782.5;;;;;;;;;;;;;;0.88369393;0.7165746;-0.17432173;;;;;1687.3
1819.0;1782.5;;;;;;;;;;;;;;;;;-78.352455;7.0116277;-118.01889;;1697.0
1819.0;1782.5;;;;;;;;;;;;;;0.95956296;0.664449;-0.16199225;;;;;1697.0
1819.0;1782.5;;;;;;;;;;;;;;;;;-80.01572;-2.8801844;-123.42067;;1697.0
1819.0;1782.5;;;;;;;;;;;;;;1.0461745;0.6356395;-0.2038026;;;;;1697.0
1878.0;1783.2;;;;;;;;;;;;;;;;;-82.27027;-11.749626;-124.847404;;1706.7
1878.0;1783.2;;;;;;;;;;;;;;1.1443831;0.5970031;-0.25592822;;;;;1706.7
1878.0;1783.2;;;;;;;;;;;;;;;;;-86.8595;-17.262032;-124.988556;;1706.7
1878.0;1783.2;;;;;;;;;;;;;;1.2598652;0.5700247;-0.3122654;;;;;1706.7
1878.0;1783.2;;;;;;;;;;;;;;;;;-92.684715;-16.163366;-124.988556;;1716.3
1878.0;1783.2;;;;;;;;;;;;;;1.3501389;0.53840756;-0.36512345;;;;;1716.3
1878.0;1783.2;;;;;;;;;;;;;;;;;-99.20041;-7.587664;-124.988556;;1716.3
1878.0;1783.2;;;;;;;;;;;;;;1.429487;0.49720755;-0.37696463;;;;;1716.3
1878.0;1783.2;;;;;;;;;;;;;;;;;-106.131935;4.0475173;-124.988556;;1725.9
1878.0;1783.2;;;;;;;;;;;;;;1.465743;0.44520402;-0.37299722;;;;;1725.9
1878.0;1783.2;;;;;;;;;;;;;;;;;-112.64;15.861996;-124.988556;;1725.9
1878.0;1783.2;;;;;;;;;;;;;;1.4977263;0.39197972;-0.36524552;;;;;1725.9
1878.0;1784.1;;;;;;;;;;-41.501358;98.02164;-65.012054;;;;;;;;;
1878.0;1784.1;;;;;;;0.7094943;-1.0920744;0.1981872;;;;;;;;;;;;
1878.0;1784.1;;;;;;;;;;-40.0708;100.62715;-67.476425;;;;;;;;;
1878.0;1784.1;;;;;;;0.70064396;-1.0855434;0.2033143;;;;;;;;;;;;
1878.0;1787.5;;;;0.041637424;0.9775964;-0.06848908;;;;;;;;;;;;;;;
1878.0;1787.5;;;;0.03276444;0.9759027;-0.061683662;;;;;;;;;;;;;;;
1878.0;1787.5;;;;0.024566654;0.9743768;-0.054622658;;;;;;;;;;;;;;;
1878.0;1787.5;;;;0.015548708;0.97234356;-0.04753495;;;;;;;;;;;;;;;
1878.0;1787.5;;;;0.006298066;0.9704362;-0.039386753;;;;;;;;;;;;;;;
1878.0;1793.6;;;;;;;;;;-38.750877;103.09534;-69.6089;;;;;;;;;
1878.0;1793.6;;;;;;;0.6928312;-1.0777307;0.20404676;;;;;;;;;;;;
1878.0;1793.6;;;;;;;;;;-37.70562;105.30793;-71.65364;;;;;;;;;
1878.0;1793.6;;;;;;;0.68697166;-1.073397;0.20227668;;;;;;;;;;;;
1884.0;1797.3;;;;-0.0033721928;0.96878064;-0.031681065;;;;;;;;;;;;;;;
1884.0;1797.3;;;;-0.012687685;0.9667207;-0.024349216;;;;;;;;;;;;;;;
1884.0;1797.3;;;;-0.023303987;0.9647409;-0.017715456;;;;;;;;;;;;;;;
1884.0;1797.3;;;;-0.033451084;0.96258175;-0.011486054;;;;;;;;;;;;;;;
1884.0;1797.3;;;;-0.043045048;0.9598237;-0.0035781865;;;;;;;;;;;;;;;
1884.0;1801.4;262143;262143;12629;;;;;;;;;;;;;;;;;;
1884.0;1803.1;;;;;;;;;;-36.88162;107.57775;-73.721275;;;;;;;;;
1884.0;1803.1;;;;;;;0.6803186;-1.0715048;0.19843134;;;;;;;;;;;;
1884.0;1803.1;;;;;;;;;;-36.099583;109.729294;-75.61724;;;;;;;;;
1884.0;1803.1;;;;;;;0.6737266;-1.0712607;0.19574572;;;;;;;;;;;;
1884.0;1807.2;;;;;;;;;;;;;-5279;;;;;;;;
1884.0;1807.2;;;;;;;;;;;;;-5991;;;;;;;;
1884.0;1807.2;;;;;;;;;;;;;-6175;;;;;;;;
1884.0;1807.2;;;;;;;;;;;;;-6208;;;;;;;;
1884.0;1807.2;;;;;;;;;;;;;-6468;;;;;;;;
1884.0;1807.2;;;;-0.052696235;0.95814145;0.0037269597;;;;;;;;;;;;;;;
1884.0;1807.2;;;;-0.06342698;0.9562837;0.010269166;;;;;;;;;;;;;;;
1884.0;1807.2;;;;-0.0742035;0.9541589;0.017852785;;;;;;;;;;;;;;;
1884.0;1807.2;;;;-0.08478928;0.9528886;0.024665836;;;;;;;;;;;;;;;
1884.0;1807.2;;;;-0.095439926;0.95246136;0.031372074;;;;;;;;;;;;;;;
1884.0;1812.4;;;;;;;;;;-35.119175;111.785484;-77.27287;;;;;;;;;
1884.0;1812.4;;;;;;;0.6659139;-1.0743126;0.19513535;;;;;;;;;;;;
1884.0;1812.4;;;;;;;;;;-33.87173;113.83404;-78.51268;;;;;;;;;
1884.0;1812.4;;;;;;;0.6549272;-1.0811487;0.19623402;;;;;;;;;;;;
1886.0;1817.2;;;;-0.10606004;0.95150006;0.03792954;;;;;;;;;;;;;;;
1886.0;1817.2;;;;-0.117259994;0.9515916;0.043800358;;;;;;;;;;;;;;;
1886.0;1817.2;;;;-0.128109;0.9516374;0.049842842;;;;;;;;;;;;;;;
1886.0;1817.2;;;;-0.13902284;0.95201504;0.05503846;;;;;;;;;;;;;;;
1886.0;1817.2;;;;-0.14862062;0.9522592;0.059856422;;;;;;;;;;;;;;;
1886.0;1821.2;262143;262143;12614;;;;;;;;;;;;;;;;;;
1886.0;1822.0;;;;;;;;;;-32.30766;115.67278;-79.51979;;;;;;;;;
1886.0;1822.0;;;;;;;0.64552754;-1.0856655;0.20209357;;;;;;;;;;;;
1886.0;1822.0;;;;;;;;;;-30.47273;117.465744;-80.32853;;;;;;;;;
1886.0;1822.0;;;;;;;0.6320994;-1.0875576;0.2111881;;;;;;;;;;;;
1886.0;1827.3;;;;-0.1584282;0.9510919;0.064846046;;;;;;;;;;;;;;;
1886.0;1827.3;;;;-0.16874315;0.9505273;0.070415504;;;;;;;;;;;;;;;
1886.0;1827.3;;;;-0.17813875;0.9504663;0.07416154;;;;;;;;;;;;;;;
1886.0;1827.3;;;;-0.18815997;0.95053875;0.07786179;;;;;;;;;;;;;;;
1886.0;1827.3;;;;-0.19960406;0.9503747;0.080852516;;;;;;;;;;;;;;;
1886.0;1831.6;;;;;;;;;;-28.344065;119.438;-80.87405;;;;;;;;;
1886.0;1831.6;;;;;;;0.61775565;-1.0860927;0.22363964;;;;;;;;;;;;
1886.0;1831.6;;;;;;;;;;-25.982697;121.723076;-81.202126;;;;;;;;;
1886.0;1831.6;;;;;;;0.6038392;-1.0771203;0.23975341;;;;;;;;;;;;
1888.0;1837.4;;;;-0.21049502;0.9512216;0.083076485;;;;;;;;;;;;;;;
1888.0;1837.4;;;;-0.22145465;0.9524118;0.085147865;;;;;;;;;;;;;;;
1888.0;1837.4;;;;-0.23243716;0.95310605;0.08665467;;;;;;;;;;;;;;;
1888.0;1837.4;;;;-0.24371341;0.9545213;0.087787636;;;;;;;;;;;;;;;
1888.0;1837.4;;;;-0.25574496;0.9550744;0.08901597;;;;;;;;;;;;;;;
1888.0;1841.2;;;;;;;;;;-23.55266;123.81359;-81.45009;;;;;;;;;
1888.0;1841.2;;;;;;;0.5892514;-1.0641193;0.25434124;;;;;;;;;;;;
1888.0;1841.2;;;;;;;;;;-21.233253;124.77111;-81.54927;;;;;;;;;
1888.0;1841.2;;;;;;;0.57869196;-1.0446485;0.26685384;;;;;;;;;;;;
1888.0;1841.5;262143;262143;12623;;;;;;;;;;;;;;;;;;
1888.0;1842.4;;;;;;;;;;;;;;;;;-116.61886;28.466139;-124.988556;;1735.5
1888.0;1842.4;;;;;;;;;;;;;;1.5162206;0.36481827;-0.33320108;;;;;1735.5
1888.0;1842.4;;;;;;;;;;;;;;;;;-120.31541;42.0011;-124.988556;;1735.5
1888.0;1842.4;;;;;;;;;;;;;;1.5131077;0.34852138;-0.27198097;;;;;1735.5
1888.0;1842.4;;;;;;;;;;;;;;;;;-123.168884;56.40202;-124.988556;;1745.2
1888.0;1842.4;;;;;;;;;;;;;;1.4698324;0.33942688;-0.17267373;;;;;1745.2
1888.0;1842.4;;;;;;;;;;;;;;;;;-123.34437;66.26331;-124.988556;;1745.2
1888.0;1842.4;;;;;;;;;;;;;;1.4175237;0.3501694;-0.07971435;;;;;1745.2
1888.0;1842.4;;;;;;;;;;;;;;;;;-122.466965;71.34846;-124.988556;;1754.8
1888.0;1842.4;;;;;;;;;;;;;;1.3662527;0.35737175;-0.029663991;;;;;1754.8
1888.0;1842.4;;;;;;;;;;;;;;;;;-119.55627;71.26072;-124.988556;;1754.8
1888.0;1842.4;;;;;;;;;;;;;;1.328898;0.37256998;-0.029419843;;;;;1754.8
1889.0;1843.5;;;;;;;;;;;;;;;;;-114.58937;69.82635;-124.988556;;1764.5
1889.0;1843.5;;;;;;;;;;;;;;1.3055208;0.38984343;-0.044618063;;;;;1764.5
1889.0;1843.5;;;;;;;;;;;;;;;;;-107.68075;69.63942;-124.988556;;1764.5
1889.0;1843.5;;;;;;;;;;;;;;1.292581;0.40833765;-0.045777764;;;;;1764.5
1889.0;1843.5;;;;;;;;;;;;;;;;;-99.58952;71.72994;-124.988556;;1774.2
1889.0;1843.5;;;;;;;;;;;;;;1.2865382;0.42036194;-0.035279397;;;;;1774.2
1889.0;1843.5;;;;;;;;;;;;;;;;;-91.33808;76.3535;-124.988556;;1774.2
1889.0;1843.5;;;;;;;;;;;;;;1.2842189;0.43317974;0.0037842952;;;;;1774.2
1889.0;1843.5;;;;;;;;;;;;;;;;;-83.510086;81.545456;-124.988556;;1783.8
1889.0;1843.5;;;;;;;;;;;;;;1.2882473;0.44245735;0.045533616;;;;;1783.8
1889.0;1843.5;;;;;;;;;;;;;;;;;-76.61672;86.390274;-124.988556;;1783.8
1889.0;1843.5;;;;;;;;;;;;;;1.2945341;0.4431898;0.07538072;;;;;1783.8
1889.0;1847.2;;;;-0.26773456;0.9569818;0.088672645;;;;;;;;;;;;;;;
1889.0;1847.2;;;;-0.27844623;0.9575921;0.088623054;;;;;;;;;;;;;;;
1889.0;1847.2;;;;-0.2897568;0.95840466;0.08858872;;;;;;;;;;;;;;;
1889.0;1847.2;;;;-0.3008385;0.9591371;0.088485725;;;;;;;;;;;;;;;
1889.0;1847.2;;;;-0.31265643;0.9606248;0.08838273;;;;;;;;;;;;;;;
1889.0;1847.3;;;;;;;;;;;;;-6694;;;;;;;;
1889.0;1847.3;;;;;;;;;;;;;-6348;;;;;;;;
1889.0;1847.3;;;;;;;;;;;;;-5499;;;;;;;;
1889.0;1847.3;;;;;;;;;;;;;-4643;;;;;;;;
1889.0;1847.3;;;;;;;;;;;;;-4278;;;;;;;;
1889.0;1850.6;;;;;;;;;;-19.257181;124.881744;-81.63701;;;;;;;;;
1889.0;1850.6;;;;;;;0.5679495;-1.0151067;0.27576524;;;;;;;;;;;;
1889.0;1850.6;;;;;;;;;;-17.731255;124.881744;-81.34327;;;;;;;;;
1889.0;1850.6;;;;;;;0.5567797;-0.9870296;0.28034303;;;;;;;;;;;;
1935.0;1857.2;;;;-0.32564548;0.96338284;0.08800507;;;;;;;;;;;;;;;
1935.0;1857.2;;;;-0.33754733;0.96392834;0.08840562;;;;;;;;;;;;;;;
1935.0;1857.2;;;;-0.3467522;0.9645082;0.08763886;;;;;;;;;;;;;;;
1935.0;1857.2;;;;-0.35729983;0.9654733;0.08678437;;;;;;;;;;;;;;;
1935.0;1857.2;;;;-0.36850742;0.9650613;0.08649827;;;;;;;;;;;;;;;
1935.0;1860.1;;;;;;;;;;-16.750847;124.881744;-80.96561;;;;;;;;;
1935.0;1860.1;;;;;;;0.5488449;-0.9574877;0.28003785;;;;;;;;;;;;
1935.0;1860.1;;;;;;;;;;-16.243477;124.881744;-80.27131;;;;;;;;;
1935.0;1860.1;;;;;;;0.54585403;-0.9322184;0.27686393;;;;;;;;;;;;
1935.0;1861.4;262143;262143;12623;;;;;;;;;;;;;;;;;;
1935.0;1867.3;;;;-0.3779679;0.9644128;0.08579636;;;;;;;;;;;;;;;
1935.0;1867.3;;;;-0.38713843;0.9633218;0.08523179;;;;;;;;;;;;;;;
1935.0;1867.3;;;;-0.39825445;0.96265805;0.08431626;;;;;;;;;;;;;;;
1935.0;1867.3;;;;-0.40910345;0.96156704;0.08253861;;;;;;;;;;;;;;;
1935.0;1867.3;;;;-0.41722494;0.9585649;0.08125306;;;;;;;;;;;;;;;
1935.0;1869.6;;;;;;;;;;-16.113773;124.881744;-79.10016;;;;;;;;;
1935.0;1869.6;;;;;;;0.54353464;-0.9180578;0.27234718;;;;;;;;;;;;
1935.0;1869.6;;;;;;;;;;-16.296885;124.881744;-77.593315;;;;;;;;;
1935.0;1869.6;;;;;;;0.54231393;-0.9159215;0.267098;;;;;;;;;;;;
1937.0;1877.2;;;;-0.42454916;0.9552041;0.08007432;;;;;;;;;;;;;;;
1937.0;1877.2;;;;-0.43155295;0.95199597;0.07992936;;;;;;;;;;;;;;;
1937.0;1877.2;;;;-0.43799597;0.9476396;0.07958222;;;;;;;;;;;;;;;
1937.0;1877.2;;;;-0.4441567;0.94305813;0.078479774;;;;;;;;;;;;;;;
1937.0;1877.2;;;;-0.44948202;0.93805325;0.07679749;;;;;;;;;;;;;;;
1937.0;1879.1;;;;;;;;;;-16.445662;124.881744;-75.750755;;;;;;;;;
1937.0;1879.1;;;;;;;0.5396893;-0.9206824;0.26319164;;;;;;;;;;;;
1937.0;1879.1;;;;;;;;;;-16.342663;124.881744;-73.41228;;;;;;;;;
1937.0;1879.1;;;;;;;0.5357219;-0.9297159;0.26441237;;;;;;;;;;;;
1937.0;1881.5;262143;262143;12622;;;;;;;;;;;;;;;;;;
1937.0;1887.3;;;;-0.45337683;0.9330293;0.075256355;;;;;;;;;;;;;;;
1937.0;1887.3;;;;-0.457367;0.92740643;0.073486336;;;;;;;;;;;;;;;
1937.0;1887.3;;;;-0.45948416;0.9215814;0.07228852;;;;;;;;;;;;;;;
1937.0;1887.3;;;;-0.46083456;0.91516125;0.070774086;;;;;;;;;;;;;;;
1937.0;1887.3;;;;-0.4615937;0.908291;0.06900407;;;;;;;;;;;;;;;
1937.0;1887.5;;;;;;;;;;;;;-3766;;;;;;;;
1937.0;1887.5;;;;;;;;;;;;;-2564;;;;;;;;
1937.0;1887.5;;;;;;;;;;;;;-3807;;;;;;;;
1937.0;1887.5;;;;;;;;;;;;;-10279;;;;;;;;
1937.0;1887.5;;;;;;;;;;;;;-17733;;;;;;;;
1937.0;1888.7;;;;;;;;;;-15.926847;124.881744;-70.577866;;;;;;;;;
1937.0;1888.7;;;;;;;0.5289468;-0.9394818;0.2644734;;;;;;;;;;;;
1937.0;1888.7;;;;;;;;;;-15.25544;124.881744;-67.26662;;;;;;;;;
1937.0;1888.7;;;;;;;0.51533556;-0.9470504;0.2646565;;;;;;;;;;;;
1941.0;1897.4;;;;-0.46155554;0.900921;0.06785203;;;;;;;;;;;;;;;
1941.0;1897.4;;;;-0.4609986;0.89351285;0.06713105;;;;;;;;;;;;;;;
1941.0;1897.4;;;;-0.45974356;0.8859979;0.06608582;;;;;;;;;;;;;;;
1941.0;1897.4;;;;-0.45890814;0.8782388;0.0653267;;;;;;;;;;;;;;;
1941.0;1897.4;;;;-0.4569245;0.8703538;0.0641327;;;;;;;;;;;;;;;
1941.0;1898.4;;;;;;;;;;-14.355144;124.881744;-63.520462;;;;;;;;;
1941.0;1898.4;;;;;;;0.49818414;-0.94857633;0.26752526;;;;;;;;;;;;
1941.0;1898.4;;;;;;;;;;-13.294626;124.881744;-59.47676;;;;;;;;;
1941.0;1898.4;;;;;;;0.48188725;-0.9454024;0.27088228;;;;;;;;;;;;
1941.0;1901.7;262143;262143;12617;;;;;;;;;;;;;;;;;;
1941.0;1902.6;;;;;;;;;;;;;;;;;-70.38331;90.792564;-124.988556;;1793.3
1941.0;1902.6;;;;;;;;;;;;;;1.2904446;0.44288462;0.09668264;;;;;1793.3
1941.0;1902.6;;;;;;;;;;;;;;;;;-64.07742;94.69512;-124.988556;;1793.3
1941.0;1902.6;;;;;;;;;;;;;;1.2767113;0.42963958;0.09027375;;;;;1793.3
1941.0;1902.6;;;;;;;;;;;;;;;;;-58.717613;98.757904;-124.988556;;1803.0
1941.0;1902.6;;;;;;;;;;;;;;1.2499771;0.39912108;0.09387494;;;;;1803.0
1941.0;1902.6;;;;;;;;;;;;;;;;;-54.98672;100.245674;-124.988556;;1803.0
1941.0;1902.6;;;;;;;;;;;;;;1.2277596;0.36432996;0.06500442;;;;;1803.0
1941.0;1902.6;;;;;;;;;;;;;;;;;-50.763725;101.889854;-124.988556;;1812.7
1941.0;1902.6;;;;;;;;;;;;;;1.2029176;0.3507187;0.052552875;;;;;1812.7
1941.0;1902.6;;;;;;;;;;;;;;;;;-46.349987;101.02771;-124.988556;;1812.7
1941.0;1902.6;;;;;;;;;;;;;;1.169103;0.29438153;0.0036622211;;;;;1812.7
1945.0;1903.3;;;;;;;;;;;;;;;;;-38.911102;97.95297;-124.988556;;1822.2
1945.0;1903.3;;;;;;;;;;;;;;1.1094699;0.33356732;-0.003173925;;;;;1822.2
1945.0;1903.3;;;;;;;;;;;;;;;;;-33.52077;90.1593;-124.988556;;1822.2
1945.0;1903.3;;;;;;;;;;;;;;1.058626;0.36793116;-0.029236732;;;;;1822.2
1945.0;1903.3;;;;;;;;;;;;;;;;;-28.279213;80.4239;-124.988556;;1831.9
1945.0;1903.3;;;;;;;;;;;;;;1.0234687;0.39100313;-0.06207465;;;;;1831.9
1945.0;1903.3;;;;;;;;;;;;;;;;;-22.02292;69.42579;-124.988556;;1831.9
1945.0;1903.3;;;;;;;;;;;;;;0.98837245;0.40205085;-0.124881744;;;;;1831.9
1945.0;1903.3;;;;;;;;;;;;;;;;;-15.140995;60.00702;-124.988556;;1841.6
1945.0;1903.3;;;;;;;;;;;;;;0.9668264;0.41743216;-0.18622394;;;;;1841.6
1945.0;1903.3;;;;;;;;;;;;;;;;;-9.281442;51.507614;-124.988556;;1841.6
1945.0;1903.3;;;;;;;;;;;;;;0.9501022;0.44587544;-0.24164556;;;;;1841.6
1945.0;1907.3;;;;-0.4553681;0.8629762;0.063278206;;;;;;;;;;;;;;;
1945.0;1907.3;;;;-0.45358282;0.85494626;0.06236268;;;;;;;;;;;;;;;
1945.0;1907.3;;;;-0.45233542;0.84739697;0.061214454;;;;;;;;;;;;;;;
1945.0;1907.3;;;;-0.4506951;0.8405076;0.060920723;;;;;;;;;;;;;;;
1945.0;1907.3;;;;-0.44956595;0.8338052;0.061286934;;;;;;;;;;;;;;;
1945.0;1907.8;;;;;;;;;;-12.192145;124.881744;-55.322426;;;;;;;;;
1945.0;1907.8;;;;;;;0.4687643;-0.939787;0.27375102;;;;;;;;;;;;
1945.0;1907.8;;;;;;;;;;-11.051516;124.881744;-51.04602;;;;;;;;;
1945.0;1907.8;;;;;;;0.4544206;-0.9340495;0.27802363;;;;;;;;;;;;
1945.0;1917.2;;;;;;;;;;-9.926145;124.881744;-46.830654;;;;;;;;;
1945.0;1917.2;;;;;;;0.44196907;-0.92715234;0.2829066;;;;;;;;;;;;
1945.0;1917.2;;;;;;;;;;-8.7397375;124.881744;-42.53517;;;;;;;;;
1945.0;1917.2;;;;;;;0.43153173;-0.9208655;0.28699607;;;;;;;;;;;;
2059.0;1917.3;;;;-0.44875723;0.8282472;0.061630256;;;;;;;;;;;;;;;
2059.0;1917.3;;;;-0.4479409;0.82296;0.06349183;;;;;;;;;;;;;;;
2059.0;1917.3;;;;-0.44733053;0.81834805;0.06721879;;;;;;;;;;;;;;;
2059.0;1917.3;;;;-0.44806677;0.8150712;0.071918495;;;;;;;;;;;;;;;
2059.0;1917.3;;;;-0.44904715;0.81299984;0.07997895;;;;;;;;;;;;;;;
2059.0;1921.6;262143;262143;12622;;;;;;;;;;;;;;;;;;
2059.0;1926.7;;;;;;;;;;-7.56859;124.881744;-38.438065;;;;;;;;;
2059.0;1926.7;;;;;;;0.4283578;-0.91317487;0.2880337;;;;;;;;;;;;
2059.0;1926.7;;;;;;;;;;-6.3364053;124.881744;-34.39436;;;;;;;;;
2059.0;1926.7;;;;;;;0.4213996;-0.9108554;0.28699607;;;;;;;;;;;;
2059.0;1927.1;;;;-0.4501801;0.81217206;0.09161378;;;;;;;;;;;;;;;
2059.0;1927.1;;;;-0.4521523;0.8128549;0.10654451;;;;;;;;;;;;;;;
2059.0;1927.1;;;;-0.4554482;0.8162309;0.1245804;;;;;;;;;;;;;;;
2059.0;1927.1;;;;-0.45914465;0.82154477;0.14437105;;;;;;;;;;;;;;;
2059.0;1927.1;;;;-0.46300513;0.8285066;0.16492845;;;;;;;;;;;;;;;
2059.0;1927.4;;;;;;;;;;;;;-18619;;;;;;;;
2059.0;1927.4;;;;;;;;;;;;;-11694;;;;;;;;
2059.0;1927.4;;;;;;;;;;;;;-3576;;;;;;;;
2059.0;1927.4;;;;;;;;;;;;;-246;;;;;;;;
2059.0;1927.4;;;;;;;;;;;;;-921;;;;;;;;
2059.0;1936.1;;;;;;;;;;-5.115665;124.881744;-30.430769;;;;;;;;;
2059.0;1936.1;;;;;;;0.41834772;-0.9144566;0.28614154;;;;;;;;;;;;
2059.0;1936.1;;;;;;;;;;-3.6355176;124.881744;-26.608326;;;;;;;;;
2059.0;1936.1;;;;;;;0.41444135;-0.9209266;0.2855922;;;;;;;;;;;;
2064.0;1937.1;;;;-0.46505743;0.83760464;0.18685152;;;;;;;;;;;;;;;
2064.0;1937.1;;;;-0.46715552;0.8495332;0.20885089;;;;;;;;;;;;;;;
2064.0;1937.1;;;;-0.4670487;0.86242306;0.23091891;;;;;;;;;;;;;;;
2064.0;1937.1;;;;-0.4653893;0.87747204;0.25207904;;;;;;;;;;;;;;;
2064.0;1937.1;;;;-0.46210486;0.89400876;0.27013782;;;;;;;;;;;;;;;
2064.0;1941.5;262143;262143;12630;;;;;;;;;;;;;;;;;;
2064.0;1945.7;;;;;;;;;;-1.8501847;124.881744;-22.953733;;;;;;;;;
2064.0;1945.7;;;;;;;0.41047394;-0.92568743;0.28516495;;;;;;;;;;;;
2064.0;1945.7;;;;;;;;;;0.3013703;124.881744;-19.47844;;;;;;;;;
2064.0;1945.7;;;;;;;0.40583515;-0.92574847;0.2847377;;;;;;;;;;;;
2064.0;1947.2;;;;-0.45732886;0.911667;0.28426364;;;;;;;;;;;;;;;
2064.0;1947.2;;;;-0.45138937;0.9297105;0.29395297;;;;;;;;;;;;;;;
2064.0;1947.2;;;;-0.44243628;0.9473001;0.30015185;;;;;;;;;;;;;;;
2064.0;1947.2;;;;-0.43349844;0.9645997;0.30064014;;;;;;;;;;;;;;;
2064.0;1947.2;;;;-0.42218024;0.9807397;0.2969208;;;;;;;;;;;;;;;
2064.0;1955.3;;;;;;;;;;2.8000731;124.881744;-16.258736;;;;;;;;;
2064.0;1955.3;;;;;;;0.39814448;-0.9209876;0.28485978;;;;;;;;;;;;
2064.0;1955.3;;;;;;;;;;5.2568135;124.881744;-13.30607;;;;;;;;;
2064.0;1955.3;;;;;;;0.39271218;-0.91708124;0.28382215;;;;;;;;;;;;
2066.0;1957.3;;;;-0.4101258;0.9947549;0.2879677;;;;;;;;;;;;;;;
2066.0;1957.3;;;;-0.39766318;1.0074235;0.27502444;;;;;;;;;;;;;;;
2066.0;1957.3;;;;-0.38320547;1.0170823;0.25913242;;;;;;;;;;;;;;;
2066.0;1957.3;;;;-0.36796573;1.0231553;0.2429314;;;;;;;;;;;;;;;
2066.0;1957.3;;;;-0.35305408;1.0262986;0.22739795;;;;;;;;;;;;;;;
2066.0;1961.7;262143;262143;12624;;;;;;;;;;;;;;;;;;
2066.0;1962.7;;;;;;;;;;;;;;;;;-5.3903317;44.721058;-124.988556;;1851.2
2066.0;1962.7;;;;;;;;;;;;;;0.9211707;0.45118564;-0.27051607;;;;;1851.2
2066.0;1962.7;;;;;;;;;;;;;;;;;-2.475814;39.029358;-124.988556;;1851.2
2066.0;1962.7;;;;;;;;;;;;;;0.8966338;0.5009919;-0.2863857;;;;;1851.2
2066.0;1962.7;;;;;;;;;;;;;;;;;-2.7314067;35.763878;-124.988556;;1860.8
2066.0;1962.7;;;;;;;;;;;;;;0.8630024;0.5265664;-0.2773522;;;;;1860.8
2066.0;1962.7;;;;;;;;;;;;;;;;;-5.954924;32.059696;-124.988556;;1860.8
2066.0;1962.7;;;;;;;;;;;;;;0.80581075;0.52180547;-0.28150272;;;;;1860.8
2066.0;1962.7;;;;;;;;;;;;;;;;;-6.3516645;28.199102;-124.988556;;1870.2
2066.0;1962.7;;;;;;;;;;;;;;0.78902555;0.54487747;-0.2633137;;;;;1870.2
2066.0;1962.7;;;;;;;;;;;;;;;;;-6.6873684;24.59792;-124.988556;;1870.2
2066.0;1962.7;;;;;;;;;;;;;;0.76070434;0.58674884;-0.23358867;;;;;1870.2
2067.0;1963.3;;;;;;;;;;;;;;;;;-10.03296;21.797846;-124.988556;;1879.9
2067.0;1963.3;;;;;;;;;;;;;;0.73268837;0.61653495;-0.20599994;;;;;1879.9
2067.0;1963.3;;;;;;;;;;;;;;;;;-15.56444;18.776514;-124.988556;;1879.9
2067.0;1963.3;;;;;;;;;;;;;;0.71468246;0.63002414;-0.18317209;;;;;1879.9
2067.0;1963.3;;;;;;;;;;;;;;;;;-23.7434;16.850033;-124.988556;;1889.5
2067.0;1963.3;;;;;;;;;;;;;;0.71053195;0.64424574;-0.15802485;;;;;1889.5
2067.0;1963.3;;;;;;;;;;;;;;;;;-31.311993;15.98407;-124.988556;;1889.5
2067.0;1963.3;;;;;;;;;;;;;;0.7032075;0.65895563;-0.1396527;;;;;1889.5
2067.0;1963.3;;;;;;;;;;;;;;;;;-38.575397;16.315958;-124.988556;;1899.2
2067.0;1963.3;;;;;;;;;;;;;;0.68404186;0.6583453;-0.103274636;;;;;1899.2
2067.0;1963.3;;;;;;;;;;;;;;;;;-46.44154;15.995514;-124.988556;;1899.2
2067.0;1963.3;;;;;;;;;;;;;;0.67165136;0.656209;-0.078676715;;;;;1899.2
2067.0;1964.7;;;;;;;;;;7.736442;124.881744;-10.689108;;;;;;;;;
2067.0;1964.7;;;;;;;0.3867916;-0.9107944;0.27869502;;;;;;;;;;;;
2067.0;1964.7;;;;;;;;;;9.933775;124.881744;-8.40785;;;;;;;;;
2067.0;1964.7;;;;;;;0.38172552;-0.90298164;0.27326274;;;;;;;;;;;;
2067.0;1967.2;;;;-0.33840945;1.0262529;0.21113208;;;;;;;;;;;;;;;
2067.0;1967.2;;;;-0.32378772;1.0235978;0.19586948;;;;;;;;;;;;;;;
2067.0;1967.2;;;;-0.3113518;1.0184976;0.18023302;;;;;;;;;;;;;;;
2067.0;1967.2;;;;-0.2998505;1.0107766;0.16475298;;;;;;;;;;;;;;;
2067.0;1967.2;;;;-0.28924182;1.0010911;0.14769746;;;;;;;;;;;;;;;
2067.0;1967.5;;;;;;;;;;;;;-1251;;;;;;;;
2067.0;1967.5;;;;;;;;;;;;;-34;;;;;;;;
2067.0;1967.5;;;;;;;;;;;;;735;;;;;;;;
2067.0;1967.5;;;;;;;;;;;;;757;;;;;;;;
2067.0;1967.5;;;;;;;;;;;;;820;;;;;;;;
2070.0;1974.3;;;;;;;;;;12.127293;124.881744;-6.3325906;;;;;;;;;
2070.0;1974.3;;;;;;;0.37482834;-0.8954741;0.26783043;;;;;;;;;;;;
2070.0;1974.3;;;;;;;;;;14.210181;124.87411;-4.6006656;;;;;;;;;
2070.0;1974.3;;;;;;;0.36988434;-0.887112;0.25855282;;;;;;;;;;;;
2070.0;1977.1;;;;-0.28060153;0.99058163;0.13012315;;;;;;;;;;;;;;;
2070.0;1977.1;;;;-0.27422336;0.97911465;0.111835495;;;;;;;;;;;;;;;
2070.0;1977.1;;;;-0.26957706;0.9669;0.09279633;;;;;;;;;;;;;;;
2070.0;1977.1;;;;-0.26754382;0.9550477;0.07460786;;;;;;;;;;;;;;;
2070.0;1977.1;;;;-0.26817325;0.9430238;0.058593757;;;;;;;;;;;;;;;
2070.0;1981.6;262143;262143;12625;;;;;;;;;;;;;;;;;;
2070.0;1983.8;;;;;;;;;;16.315958;124.717705;-3.0060732;;;;;;;;;
2070.0;1983.8;;;;;;;0.3632313;-0.8757591;0.24817652;;;;;;;;;;;;
2070.0;1983.8;;;;;;;;;;18.395031;123.63811;-1.6098514;;;;;;;;;
2070.0;1983.8;;;;;;;0.35554063;-0.8642842;0.23670156;;;;;;;;;;;;
2070.0;1987.0;;;;-0.270443;0.9311944;0.044837955;;;;;;;;;;;;;;;
2070.0;1987.0;;;;-0.27728274;0.92035306;0.03304291;;;;;;;;;;;;;;;
2070.0;1987.0;;;;-0.2879143;0.9103128;0.024673466;;;;;;;;;;;;;;;
2070.0;1987.0;;;;-0.29960635;0.90173733;0.018535616;;;;;;;;;;;;;;;
2070.0;1987.0;;;;-0.31496814;0.89364254;0.015247347;;;;;;;;;;;;;;;
2070.0;1993.2;;;;;;;;;;20.252846;121.27674;-0.38148138;;;;;;;;;
2070.0;1993.2;;;;;;;0.34699544;-0.85067296;0.22540972;;;;;;;;;;;;
2070.0;1993.2;;;;;;;;;;21.988586;118.1753;0.73625904;;;;;;;;;
2070.0;1993.2;;;;;;;0.34003723;-0.84359264;0.2169866;;;;;;;;;;;;
2072.0;1997.1;;;;-0.33189395;0.88588727;0.015548708;;;;;;;;;;;;;;;
2072.0;1997.1;;;;-0.3491669;0.87856305;0.017330172;;;;;;;;;;;;;;;
2072.0;1997.1;;;;-0.36695483;0.8709527;0.020305635;;;;;;;;;;;;;;;
2072.0;1997.1;;;;-0.38405234;0.8633996;0.025768284;;;;;;;;;;;;;;;
2072.0;1997.1;;;;-0.4001313;0.8552934;0.031600956;;;;;;;;;;;;;;;
2072.0;2001.7;262143;262143;12625;;;;;;;;;;;;;;;;;;
2072.0;2002.8;;;;;;;;;;23.621326;114.76104;1.7242957;;;;;;;;;
2072.0;2002.8;;;;;;;0.33411664;-0.83730584;0.20764793;;;;;;;;;;;;
2072.0;2002.8;;;;;;;;;;25.055696;111.12552;2.6970735;;;;;;;;;
2072.0;2002.8;;;;;;;0.324778;-0.8332774;0.19794305;;;;;;;;;;;;
2072.0;2007.2;;;;-0.41559988;0.847294;0.038703922;;;;;;;;;;;;;;;
2072.0;2007.2;;;;-0.42955405;0.8384019;0.045543674;;;;;;;;;;;;;;;
2072.0;2007.2;;;;-0.44221503;0.8289186;0.05278016;;;;;;;;;;;;;;;
2072.0;2007.2;;;;-0.45384985;0.8201066;0.060760505;;;;;;;;;;;;;;;
2072.0;2007.2;;;;-0.46474844;0.81156933;0.06847001;;;;;;;;;;;;;;;
2072.0;2007.6;;;;;;;;;;;;;786;;;;;;;;
2072.0;2007.6;;;;;;;;;;;;;631;;;;;;;;
2072.0;2007.6;;;;;;;;;;;;;402;;;;;;;;
2072.0;2007.6;;;;;;;;;;;;;21;;;;;;;;
2072.0;2007.6;;;;;;;;;;;;;-404;;;;;;;;
2072.0;2012.5;;;;;;;;;;26.528215;107.36412;3.6927397;;;;;;;;;
2072.0;2012.5;;;;;;;0.3180639;-0.83187354;0.19013031;;;;;;;;;;;;
2072.0;2012.5;;;;;;;;;;28.03125;103.46156;4.8486285;;;;;;;;;
2072.0;2012.5;;;;;;;0.31214333;-0.831019;0.1820124;;;;;;;;;;;;
2073.0;2017.3;;;;-0.47340018;0.80402386;0.075588234;;;;;;;;;;;;;;;
2073.0;2017.3;;;;-0.48129278;0.7964822;0.08282853;;;;;;;;;;;;;;;
2073.0;2017.3;;;;-0.4892159;0.7901803;0.08921433;;;;;;;;;;;;;;;
2073.0;2017.3;;;;-0.49672323;0.784958;0.09534074;;;;;;;;;;;;;;;
2073.0;2017.3;;;;-0.5036965;0.78120816;0.10221101;;;;;;;;;;;;;;;
2073.0;2022.1;;;;;;;;;;29.721214;99.47889;6.103702;;;;;;;;;
2073.0;2022.1;;;;;;;0.30774865;-0.82845545;0.17560351;;;;;;;;;;;;
2073.0;2022.1;;;;;;;;;;31.331066;95.336006;7.396924;;;;;;;;;
2073.0;2022.1;;;;;;;0.30213323;-0.83010346;0.16809595;;;;;;;;;;;;
2073.0;2021.9;262143;262143;12629;;;;;;;;;;;;;;;;;;
2073.0;2023.0;;;;;;;;;;;;;;;;;-53.838467;14.53444;-124.988556;;1908.9
2073.0;2023.0;;;;;;;;;;;;;;0.6585894;0.6712241;-0.058839686;;;;;1908.9
2073.0;2023.0;;;;;;;;;;;;;;;;;-62.223427;12.127293;-124.988556;;1908.9
2073.0;2023.0;;;;;;;;;;;;;;0.6388745;0.6707358;-0.04626606;;;;;1908.9
2073.0;2023.0;;;;;;;;;;;;;;;;;-70.71902;9.594256;-124.988556;;1918.5
2073.0;2023.0;;;;;;;;;;;;;;0.62965786;0.6864833;-0.03302103;;;;;1918.5
2073.0;2023.0;;;;;;;;;;;;;;;;;-78.82931;5.7451096;-124.988556;;1918.5
2073.0;2023.0;;;;;;;;;;;;;;0.63155;0.6900845;-0.03381451;;;;;1918.5
2073.0;2023.0;;;;;;;;;;;;;;;;;-86.57339;2.2202215;-124.988556;;1928.1
2073.0;2023.0;;;;;;;;;;;;;;0.636433;0.6828822;-0.047791988;;;;;1928.1
2073.0;2023.0;;;;;;;;;;;;;;;;;-94.2259;1.7433698;-124.988556;;1928.1
2073.0;2023.0;;;;;;;;;;;;;;0.62532425;0.67488635;-0.045777764;;;;;1928.1
2074.0;2023.9;;;;;;;;;;;;;;;;;-101.653336;1.7090366;-124.97711;;1937.7
2074.0;2023.9;;;;;;;;;;;;;;0.6277657;0.6499222;-0.05719169;;;;;1937.7
2074.0;2023.9;;;;;;;;;;;;;;;;;-106.71941;3.1891842;-124.34385;;1937.7
2074.0;2023.9;;;;;;;;;;;;;;0.60945463;0.61836606;-0.052186653;;;;;1937.7
2074.0;2023.9;;;;;;;;;;;;;;;;;-109.95818;4.127629;-121.31489;;1947.3
2074.0;2023.9;;;;;;;;;;;;;;0.59401226;0.5805841;-0.052797023;;;;;1947.3
2074.0;2023.9;;;;;;;;;;;;;;;;;-110.35493;4.299295;-115.67278;;1947.3
2074.0;2023.9;;;;;;;;;;;;;;0.580401;0.54121524;-0.041322064;;;;;1947.3
2074.0;2023.9;;;;;;;;;;;;;;;;;-109.3936;3.6164434;-110.17944;;1957.0
2074.0;2023.9;;;;;;;;;;;;;;0.5666677;0.48597676;-0.034974214;;;;;1957.0
2074.0;2023.9;;;;;;;;;;;;;;;;;-107.154305;2.2164068;-104.91882;;1957.0
2074.0;2023.9;;;;;;;;;;;;;;0.55726796;0.43848994;-0.018311106;;;;;1957.0
2074.0;2027.2;;;;-0.510891;0.77767575;0.10968782;;;;;;;;;;;;;;;
2074.0;2027.2;;;;-0.5205956;0.7745744;0.11627199;;;;;;;;;;;;;;;
2074.0;2027.2;;;;-0.53044516;0.77240384;0.121856704;;;;;;;;;;;;;;;
2074.0;2027.2;;;;-0.54018027;0.77069867;0.12858583;;;;;;;;;;;;;;;
2074.0;2027.2;;;;-0.5491982;0.7689439;0.1346245;;;;;;;;;;;;;;;
2074.0;2031.4;;;;;;;;;;32.868435;91.20838;8.6405525;;;;;;;;;
2074.0;2031.4;;;;;;;0.29865414;-0.8340098;0.16150396;;;;;;;;;;;;
2074.0;2031.4;;;;;;;;;;34.501175;86.72979;9.868922;;;;;;;;;
2074.0;2031.4;;;;;;;0.29242834;-0.83565784;0.15393536;;;;;;;;;;;;
2119.0;2037.1;;;;-0.5590363;0.7669717;0.14129259;;;;;;;;;;;;;;;
2119.0;2037.1;;;;-0.57025915;0.7647363;0.1475258;;;;;;;;;;;;;;;
2119.0;2037.1;;;;-0.5820275;0.7626153;0.15376283;;;;;;;;;;;;;;;
2119.0;2037.1;;;;-0.5954285;0.76041806;0.16082002;;;;;;;;;;;;;;;
2119.0;2037.1;;;;-0.61064535;0.7566453;0.16779329;;;;;;;;;;;;;;;
2119.0;2040.9;;;;;;;;;;35.946987;82.07953;11.165959;;;;;;;;;
2119.0;2040.9;;;;;;;0.2916349;-0.83950317;0.14520706;;;;;;;;;;;;
2119.0;2040.9;;;;;;;;;;37.19825;77.44072;12.535478;;;;;;;;;
2119.0;2040.9;;;;;;;0.28662986;-0.8459731;0.1353801;;;;;;;;;;;;
2119.0;2041.8;262143;262143;12622;;;;;;;;;;;;;;;;;;
2119.0;2047.1;;;;-0.623684;0.7520448;0.17613603;;;;;;;;;;;;;;;
2119.0;2047.1;;;;-0.6379166;0.747181;0.18498613;;;;;;;;;;;;;;;
2119.0;2047.1;;;;-0.6523743;0.74166876;0.19500735;;;;;;;;;;;;;;;
2119.0;2047.1;;;;-0.66590506;0.73686224;0.20623782;;;;;;;;;;;;;;;
2119.0;2047.1;;;;-0.67932516;0.7310105;0.21939853;;;;;;;;;;;;;;;
2119.0;2047.6;;;;;;;;;;;;;-828;;;;;;;;
2119.0;2047.6;;;;;;;;;;;;;-1289;;;;;;;;
2119.0;2047.6;;;;;;;;;;;;;-1726;;;;;;;;
2119.0;2047.6;;;;;;;;;;;;;-2066;;;;;;;;
2119.0;2047.6;;;;;;;;;;;;;-2280;;;;;;;;
2119.0;2050.2;;;;;;;;;;38.121433;72.89728;14.053774;;;;;;;;;
2119.0;2050.2;;;;;;;0.2863857;-0.8560442;0.125309;;;;;;;;;;;;
2119.0;2050.2;;;;;;;;;;38.865322;68.26609;15.6788845;;;;;;;;;
2119.0;2050.2;;;;;;;0.2863857;-0.8669088;0.11468856;;;;;;;;;;;;
2121.0;2056.5;;;;-0.6926194;0.7262841;0.23460773;;;;;;;;;;;;;;;
2121.0;2056.5;;;;-0.70574194;0.7215157;0.25005344;;;;;;;;;;;;;;;
2121.0;2056.5;;;;-0.71831137;0.7169228;0.26700595;;;;;;;;;;;;;;;
2121.0;2056.5;;;;-0.7317658;0.7124825;0.28327182;;;;;;;;;;;;;;;
2121.0;2056.5;;;;-0.7470055;0.708767;0.29858783;;;;;;;;;;;;;;;
2121.0;2059.3;;;;;;;;;;39.643543;63.63491;17.338327;;;;;;;;;
2121.0;2059.3;;;;;;;0.28931546;-0.8797265;0.10345775;;;;;;;;;;;;
2121.0;2059.3;;;;;;;;;;40.303505;58.93506;19.165625;;;;;;;;;
2121.0;2059.3;;;;;;;0.28907132;-0.8904691;0.09277627;;;;;;;;;;;;
2121.0;2061.2;262143;262143;12620;;;;;;;;;;;;;;;;;;
2121.0;2066.6;;;;-0.7626916;0.7051545;0.3119965;;;;;;;;;;;;;;;
2121.0;2066.6;;;;-0.778206;0.70187765;0.32344058;;;;;;;;;;;;;;;
2121.0;2066.6;;;;-0.7933618;0.698021;0.33554843;;;;;;;;;;;;;;;
2121.0;2066.6;;;;-0.8090707;0.69398886;0.34894946;;;;;;;;;;;;;;;
2121.0;2066.6;;;;-0.824772;0.690754;0.36209872;;;;;;;;;;;;;;;
2121.0;2069.0;;;;;;;;;;40.92532;54.185616;21.069216;;;;;;;;;
2121.0;2069.0;;;;;;;0.29157385;-0.9037141;0.0844142;;;;;;;;;;;;
2121.0;2069.0;;;;;;;;;;41.322063;49.344616;23.159733;;;;;;;;;
2121.0;2069.0;;;;;;;0.29322183;-0.91384625;0.07373272;;;;;;;;;;;;
2123.0;2076.7;;;;-0.84033215;0.68822485;0.3763619;;;;;;;;;;;;;;;
2123.0;2076.7;;;;-0.8544847;0.6852227;0.3913613;;;;;;;;;;;;;;;
2123.0;2076.7;;;;-0.8688661;0.6825715;0.40569693;;;;;;;;;;;;;;;
2123.0;2076.7;;;;-0.88320553;0.68054587;0.41895682;;;;;;;;;;;;;;;
2123.0;2076.7;;;;-0.8964273;0.67913824;0.43066794;;;;;;;;;;;;;;;
2123.0;2078.6;;;;;;;;;;41.505173;44.446392;25.46388;;;;;;;;;
2123.0;2078.6;;;;;;;0.2959685;-0.9263588;0.06646931;;;;;;;;;;;;
2123.0;2078.6;;;;;;;;;;42.75643;39.88769;26.51677;;;;;;;;;
2123.0;2078.6;;;;;;;0.36671042;-0.98727375;0.096926786;;;;;;;;;;;;
2123.0;2081.4;262143;262143;12615;;;;;;;;;;;;;;;;;;
2123.0;2082.4;;;;;;;;;;;;;;;;;-104.27412;-1.083407;-99.99771;;1966.7
2123.0;2082.4;;;;;;;;;;;;;;0.55024874;0.38056582;-0.01800592;;;;;1966.7
2123.0;2082.4;;;;;;;;;;;;;;;;;-101.439705;-4.776147;-95.06134;;1966.7
2123.0;2082.4;;;;;;;;;;;;;;0.54103214;0.3246559;-0.027954955;;;;;1966.7
2123.0;2082.4;;;;;;;;;;;;;;;;;-99.147;-9.269998;-90.30045;;1976.4
2123.0;2082.4;;;;;;;;;;;;;;0.5345012;0.2705771;-0.057374798;;;;;1976.4
2123.0;2082.4;;;;;;;;;;;;;;;;;-96.30497;-13.695181;-85.34883;;1976.4
2123.0;2082.4;;;;;;;;;;;;;;0.5157628;0.21686453;-0.065187536;;;;;1976.4
2123.0;2082.4;;;;;;;;;;;;;;;;;-93.00134;-18.620106;-80.19119;;1986.1
2123.0;2082.4;;;;;;;;;;;;;;0.504532;0.1678518;-0.06823939;;;;;1986.1
2123.0;2082.4;;;;;;;;;;;;;;;;;-89.892265;-23.25129;-74.728386;;1986.1
2123.0;2082.4;;;;;;;;;;;;;;0.49555954;0.12121952;-0.067751095;;;;;1986.1
2127.0;2083.1;;;;;;;;;;;;;;;;;-88.347275;-25.929289;-69.1702;;1995.6
2127.0;2083.1;;;;;;;;;;;;;;0.48384044;0.0844142;-0.06659139;;;;;1995.6
2127.0;2083.1;;;;;;;;;;;;;;;;;-87.71401;-26.65029;-63.509018;;1995.6
2127.0;2083.1;;;;;;;;;;;;;;0.4634541;0.049684133;-0.063539535;;;;;1995.6
2127.0;2083.1;;;;;;;;;;;;;;;;;-87.47749;-26.146732;-57.744835;;2005.3
2127.0;2083.1;;;;;;;;;;;;;;0.4337901;0.015686514;-0.0568865;;;;;2005.3
2127.0;2083.1;;;;;;;;;;;;;;;;;-86.897644;-24.784843;-52.270576;;2005.3
2127.0;2083.1;;;;;;;;;;;;;;0.42036194;-0.010803552;-0.042725913;;;;;2005.3
2127.0;2083.1;;;;;;;;;;;;;;;;;-85.30686;-22.854548;-46.36143;;2015.0
2127.0;2083.1;;;;;;;;;;;;;;0.39606923;-0.028992584;-0.025208289;;;;;2015.0
2127.0;2083.1;;;;;;;;;;;;;;;;;-83.35749;-19.627216;-41.093174;;2015.0
2127.0;2083.1;;;;;;;;;;;;;;0.36573383;-0.031250954;0.0027466659;;;;;2015.0
2127.0;2086.7;;;;-0.90921414;0.67711264;0.441063;;;;;;;;;;;;;;;
2127.0;2086.7;;;;-0.92156994;0.6749497;0.4489823;;;;;;;;;;;;;;;
2127.0;2086.7;;;;-0.9321939;0.6726456;0.45481497;;;;;;;;;;;;;;;
2127.0;2086.7;;;;-0.94290936;0.6691933;0.459652;;;;;;;;;;;;;;;
2127.0;2086.7;;;;-0.95391095;0.66485983;0.46310812;;;;;;;;;;;;;;;
2127.0;2087.2;;;;;;;;;;;;;-2370;;;;;;;;
2127.0;2087.2;;;;;;;;;;;;;-2514;;;;;;;;
2127.0;2087.2;;;;;;;;;;;;;-2708;;;;;;;;
2127.0;2087.2;;;;;;;;;;;;;-2489;;;;;;;;
2127.0;2087.2;;;;;;;;;;;;;-1414;;;;;;;;
2127.0;2088.1;;;;;;;;;;46.33473;34.875027;27.878658;;;;;;;;;
2127.0;2088.1;;;;;;;0.27991578;-0.92837304;0.031617176;;;;;;;;;;;;
2127.0;2088.1;;;;;;;;;;43.473618;29.90051;32.074955;;;;;;;;;
2127.0;2088.1;;;;;;;0.29602954;-0.9335612;0.02722251;;;;;;;;;;;;
2129.0;2096.7;;;;-0.96517575;0.6609612;0.4653855;;;;;;;;;;;;;;;
2129.0;2096.7;;;;-0.97535336;0.6573258;0.46678168;;;;;;;;;;;;;;;
2129.0;2096.7;;;;-0.9856416;0.6524926;0.46731573;;;;;;;;;;;;;;;
2129.0;2096.7;;;;-0.9955636;0.6477204;0.4666062;;;;;;;;;;;;;;;
2129.0;2096.7;;;;-1.0057756;0.6432114;0.46567923;;;;;;;;;;;;;;;
2129.0;2097.7;;;;;;;;;;;;;;;;;-80.76342;-17.05603;-36.294136;;2024.7
2129.0;2097.7;;;;;;;;;;;;;;0.32880643;-0.026978362;0.031311993;;;;;2024.7
2129.0;2097.7;;;;;;;;;;;;;;;;;-77.33772;-15.289773;-32.647175;;2024.7
2129.0;2097.7;;;;;;;;;;;;;;0.285226;-0.014343699;0.06414991;;;;;2024.7
2129.0;2097.7;;;;;;;;;;;;;;;;;-73.30546;-13.6875515;-29.545732;;2034.3
2129.0;2097.7;;;;;;;;;;;;;;0.23932615;0.006225776;0.10138249;;;;;2034.3
2129.0;2097.7;;;;;;;;;;;;;;;;;-67.770164;-15.205847;-26.291697;;2034.3
2129.0;2097.7;;;;;;;;;;;;;;0.20575579;0.029175695;0.11169775;;;;;2034.3
2129.0;2097.7;;;;;;;;;;;;;;;;;-61.796165;-16.502884;-23.617512;;2043.9
2129.0;2097.7;;;;;;;;;;;;;;0.16803491;0.056093022;0.13647878;;;;;2043.9
2129.0;2097.7;;;;;;;;;;;;;;;;;-54.662468;-19.814142;-21.09592;;2043.9
2129.0;2097.7;;;;;;;;;;;;;;0.13830988;0.090151675;0.14526811;;;;;2043.9
2129.0;2097.5;;;;;;;;;;41.57384;23.838772;35.176395;;;;;;;;;
2129.0;2097.5;;;;;;;0.30530718;-0.94424266;0.026978362;;;;;;;;;;;;
2129.0;2097.5;;;;;;;;;;40.887173;16.125217;38.666954;;;;;;;;;
2129.0;2097.5;;;;;;;0.31183812;-0.953032;0.026734214;;;;;;;;;;;;
2129.0;2101.4;262143;262143;12622;;;;;;;;;;;;;;;;;;
2178.0;2106.6;;;;-1.0154649;0.63810354;0.463234;;;;;;;;;;;;;;;
2178.0;2106.6;;;;-1.0260965;0.6317902;0.45940405;;;;;;;;;;;;;;;
2178.0;2106.6;;;;-1.035576;0.6259156;0.45498663;;;;;;;;;;;;;;;
2178.0;2106.6;;;;-1.0450593;0.6200333;0.44990546;;;;;;;;;;;;;;;
2178.0;2106.6;;;;-1.0537835;0.6129227;0.44427878;;;;;;;;;;;;;;;
2178.0;2107.0;;;;;;;;;;41.341137;6.0579243;42.22999;;;;;;;;;
2178.0;2107.0;;;;;;;0.3144017;-0.9582202;0.027466659;;;;;;;;;;;;
2178.0;2107.0;;;;;;;;;;42.218544;-5.8481092;46.067688;;;;;;;;;
2178.0;2107.0;;;;;;;0.31781974;-0.9676809;0.024658956;;;;;;;;;;;;
2178.0;2116.5;;;;;;;;;;43.00821;-18.818476;50.32502;;;;;;;;;
2178.0;2116.5;;;;;;;0.31843013;-0.9848933;0.023438215;;;;;;;;;;;;
2178.0;2116.5;;;;;;;;;;44.00006;-32.64336;54.84176;;;;;;;;;
2178.0;2116.5;;;;;;;0.32087162;-1.0075381;0.012268441;;;;;;;;;;;;
2178.0;2116.5;;;;-1.0626222;0.6067124;0.4383431;;;;;;;;;;;;;;;
2178.0;2116.5;;;;-1.0707475;0.5998307;0.4329949;;;;;;;;;;;;;;;
2178.0;2116.5;;;;-1.0788575;0.5925332;0.42760855;;;;;;;;;;;;;;;
2178.0;2116.5;;;;-1.0868112;0.58562094;0.42207342;;;;;;;;;;;;;;;
2178.0;2116.5;;;;-1.0932733;0.57827383;0.41584402;;;;;;;;;;;;;;;
2178.0;2121.4;262143;262143;12617;;;;;;;;;;;;;;;;;;
2178.0;2126.1;;;;;;;;;;44.75158;-47.189247;59.270763;;;;;;;;;
2178.0;2126.1;;;;;;;0.3217261;-1.0373242;0.003295999;;;;;;;;;;;;
2178.0;2126.1;;;;;;;;;;45.47258;-62.238686;63.299202;;;;;;;;;
2178.0;2126.1;;;;;;;0.3507187;-1.1015961;0.017944884;;;;;;;;;;;;
2181.0;2126.6;;;;-1.1011201;0.5716706;0.40971;;;;;;;;;;;;;;;
2181.0;2126.6;;;;-1.1073953;0.5644646;0.40351492;;;;;;;;;;;;;;;
2181.0;2126.6;;;;-1.1138421;0.55712134;0.39698035;;;;;;;;;;;;;;;
2181.0;2126.6;;;;-1.1202623;0.55035025;0.39044958;;;;;;;;;;;;;;;
2181.0;2126.6;;;;-1.1264344;0.5442162;0.38307196;;;;;;;;;;;;;;;
2181.0;2127.3;;;;;;;;;;;;;619;;;;;;;;
2181.0;2127.3;;;;;;;;;;;;;3363;;;;;;;;
2181.0;2127.3;;;;;;;;;;;;;6121;;;;;;;;
2181.0;2127.3;;;;;;;;;;;;;8042;;;;;;;;
2181.0;2127.3;;;;;;;;;;;;;8817;;;;;;;;
2181.0;2135.7;;;;;;;;;;48.35658;-77.68487;65.67965;;;;;;;;;
2181.0;2135.7;;;;;;;0.36310923;-1.1620837;0.031067843;;;;;;;;;;;;
2181.0;2135.7;;;;;;;;;;53.041172;-94.08093;67.14454;;;;;;;;;
2181.0;2135.7;;;;;;;0.3617664;-1.2023683;0.031983398;;;;;;;;;;;;
2181.0;2136.8;;;;-1.1316224;0.5376969;0.37591177;;;;;;;;;;;;;;;
2181.0;2136.8;;;;-1.136448;0.53213125;0.36897662;;;;;;;;;;;;;;;
2181.0;2136.8;;;;-1.1418;0.5268975;0.36185077;;;;;;;;;;;;;;;
2181.0;2136.8;;;;-1.1471635;0.52307516;0.35494998;;;;;;;;;;;;;;;
2181.0;2136.8;;;;-1.1523057;0.52016836;0.34731677;;;;;;;;;;;;;;;
2181.0;2141.7;262143;262143;12623;;;;;;;;;;;;;;;;;;
2186.0;2142.5;;;;;;;;;;;;;;;;;-47.01758;-21.992401;-19.512772;;2053.6
2186.0;2142.5;;;;;;;;;;;;;;0.10901212;0.13562426;0.14752647;;;;;2053.6
2186.0;2142.5;;;;;;;;;;;;;;;;;-37.82388;-25.650806;-17.250587;;2053.6
2186.0;2142.5;;;;;;;;;;;;;;0.08752709;0.18457595;0.13489181;;;;;2053.6
2186.0;2142.5;;;;;;;;;;;;;;;;;-27.581102;-30.388805;-15.022736;;2063.2
2186.0;2142.5;;;;;;;;;;;;;;0.07074191;0.23291726;0.11053804;;;;;2063.2
2186.0;2142.5;;;;;;;;;;;;;;;;;-15.938292;-35.378582;-12.516403;;2063.2
2186.0;2142.5;;;;;;;;;;;;;;0.054811243;0.27954954;0.07196265;;;;;2063.2
2186.0;2142.5;;;;;;;;;;;;;;;;;-3.0899992;-40.761284;-10.059664;;2072.8
2186.0;2142.5;;;;;;;;;;;;;;0.044312876;0.32312998;0.010376293;;;;;2072.8
2186.0;2142.5;;;;;;;;;;;;;;;;;10.948516;-44.434948;-7.065035;;2072.8
2186.0;2142.5;;;;;;;;;;;;;;0.040040284;0.35804316;-0.036439102;;;;;2072.8
2186.0;2145.2;;;;;;;;;;57.24128;-111.28574;67.61376;;;;;;;;;
2186.0;2145.2;;;;;;;0.34913176;-1.2195196;0.028199103;;;;;;;;;;;;
2186.0;2145.2;;;;;;;;;;60.11383;-123.58852;66.82028;;;;;;;;;
2186.0;2145.2;;;;;;;0.33063754;-1.2230598;0.022583697;;;;;;;;;;;;
2186.0;2146.7;;;;-1.1569444;0.5180436;0.3401871;;;;;;;;;;;;;;;
2186.0;2146.7;;;;-1.1618158;0.51676565;0.3328667;;;;;;;;;;;;;;;
2186.0;2146.7;;;;-1.1664315;0.51663214;0.3261986;;;;;;;;;;;;;;;
2186.0;2146.7;;;;-1.1707689;0.51881415;0.3191643;;;;;;;;;;;;;;;
2186.0;2146.7;;;;-1.1743699;0.52174383;0.31187823;;;;;;;;;;;;;;;
2186.0;2154.8;;;;;;;;;;61.68172;-124.881744;64.10032;;;;;;;;;
2186.0;2154.8;;;;;;;0.31250954;-1.2164067;0.015198218;;;;;;;;;;;;
2186.0;2154.8;;;;;;;;;;62.459946;-124.881744;61.048462;;;;;;;;;
2186.0;2154.8;;;;;;;0.3043306;-1.2158574;0.0042115543;;;;;;;;;;;;
2188.0;2156.8;;;;-1.1765481;0.5261994;0.3049355;;;;;;;;;;;;;;;
2188.0;2156.8;;;;-1.1783563;0.53142935;0.29795077;;;;;;;;;;;;;;;
2188.0;2156.8;;;;-1.1785165;0.53903204;0.29112247;;;;;;;;;;;;;;;
2188.0;2156.8;;;;-1.1786195;0.5476113;0.2840462;;;;;;;;;;;;;;;
2188.0;2156.8;;;;-1.1774446;0.5571404;0.2765465;;;;;;;;;;;;;;;
2188.0;2157.4;;;;;;;;;;;;;;;;;25.402843;-47.37617;-3.6965547;;2082.4
2188.0;2157.4;;;;;;;;;;;;;;0.037110507;0.39527574;-0.08160649;;;;;2082.4
2188.0;2157.4;;;;;;;;;;;;;;;;;39.983063;-50.7828;0.54933316;;2082.4
2188.0;2157.4;;;;;;;;;;;;;;0.034485918;0.428663;-0.117435224;;;;;2082.4
2188.0;2157.4;;;;;;;;;;;;;;;;;53.338726;-53.998688;5.115665;;2092.1
2188.0;2157.4;;;;;;;;;;;;;;0.05121006;0.45893735;-0.13843197;;;;;2092.1
2188.0;2157.4;;;;;;;;;;;;;;;;;64.72213;-55.948055;10.189367;;2092.1
2188.0;2157.4;;;;;;;;;;;;;;0.08032472;0.49079868;-0.14947966;;;;;2092.1
2188.0;2157.4;;;;;;;;;;;;;;;;;73.492386;-56.882687;15.713217;;2101.6
2188.0;2157.4;;;;;;;;;;;;;;0.111087374;0.5223548;-0.13977477;;;;;2101.6
2188.0;2157.4;;;;;;;;;;;;;;;;;79.432045;-56.35243;21.122623;;2101.6
2188.0;2157.4;;;;;;;;;;;;;;0.14569536;0.56715596;-0.11243019;;;;;2101.6
2188.0;2161.6;262143;262143;12621;;;;;;;;;;;;;;;;;;
2188.0;2164.2;;;;;;;;;;62.547684;-124.881744;56.936092;;;;;;;;;
2188.0;2164.2;;;;;;;0.30762658;-1.2179937;-0.0126957;;;;;;;;;;;;
2188.0;2164.2;;;;;;;;;;61.483353;-124.881744;51.057465;;;;;;;;;
2188.0;2164.2;;;;;;;0.32862332;-1.2242805;-0.03723258;;;;;;;;;;;;
2239.0;2166.6;;;;-1.1744119;0.56713873;0.2700043;;;;;;;;;;;;;;;
2239.0;2166.6;;;;-1.1701356;0.5774346;0.26272586;;;;;;;;;;;;;;;
2239.0;2166.6;;;;-1.1644632;0.58868796;0.2548485;;;;;;;;;;;;;;;
2239.0;2166.6;;;;-1.1585809;0.5997048;0.2469292;;;;;;;;;;;;;;;
2239.0;2166.6;;;;-1.1516954;0.61056143;0.2384949;;;;;;;;;;;;;;;
2239.0;2167.4;;;;;;;;;;;;;8800;;;;;;;;
2239.0;2167.4;;;;;;;;;;;;;8515;;;;;;;;
2239.0;2167.4;;;;;;;;;;;;;8243;;;;;;;;
2239.0;2167.4;;;;;;;;;;;;;7770;;;;;;;;
2239.0;2167.4;;;;;;;;;;;;;7010;;;;;;;;
2239.0;2173.7;;;;;;;;;;58.938873;-124.881744;43.82458;;;;;;;;;
2239.0;2173.7;;;;;;;0.36085087;-1.2618793;-0.065431684;;;;;;;;;;;;
2239.0;2173.7;;;;;;;;;;56.38676;-124.881744;33.539845;;;;;;;;;
2239.0;2173.7;;;;;;;0.40205085;-1.3166906;-0.09503464;;;;;;;;;;;;
2239.0;2176.6;;;;-1.1438905;0.62162024;0.23069385;;;;;;;;;;;;;;;
2239.0;2176.6;;;;-1.1349298;0.63200384;0.2227669;;;;;;;;;;;;;;;
2239.0;2176.6;;;;-1.1235276;0.6410561;0.21536258;;;;;;;;;;;;;;;
2239.0;2176.6;;;;-1.1110536;0.65017325;0.20834354;;;;;;;;;;;;;;;
2239.0;2176.6;;;;-1.0975839;0.65866095;0.20156482;;;;;;;;;;;;;;;
2239.0;2181.6;262143;262143;12626;;;;;;;;;;;;;;;;;;
2239.0;2183.3;;;;;;;;;;54.399246;-124.881744;20.313883;;;;;;;;;
2239.0;2183.3;;;;;;;0.45558032;-1.3743095;-0.12244026;;;;;;;;;;;;
2239.0;2183.3;;;;;;;;;;52.648243;-124.881744;9.834589;;;;;;;;;
2239.0;2183.3;;;;;;;0.5301675;-1.4381542;-0.1403241;;;;;;;;;;;;
2242.0;2186.7;;;;-1.0824472;0.66590506;0.19596103;;;;;;;;;;;;;;;
2242.0;2186.7;;;;-1.0659715;0.6725388;0.18976977;;;;;;;;;;;;;;;
2242.0;2186.7;;;;-1.0487481;0.6788979;0.18418123;;;;;;;;;;;;;;;
2242.0;2186.7;;;;-1.0309602;0.6840287;0.17853548;;;;;;;;;;;;;;;
2242.0;2186.7;;;;-1.012211;0.6891671;0.17393114;;;;;;;;;;;;;;;
2242.0;2192.9;;;;;;;;;;51.690723;-124.881744;2.6512957;;;;;;;;;
2242.0;2192.9;;;;;;;0.6024964;-1.4791712;-0.14105655;;;;;;;;;;;;
2242.0;2192.9;;;;;;;;;;52.40791;-124.881744;-2.9755547;;;;;;;;;
2242.0;2192.9;;;;;;;0.6566973;-1.4949187;-0.13324381;;;;;;;;;;;;
2242.0;2196.8;;;;-0.99341595;0.69419104;0.16824342;;;;;;;;;;;;;;;
2242.0;2196.8;;;;-0.9742166;0.69845206;0.16204835;;;;;;;;;;;;;;;
2242.0;2196.8;;;;-0.95450604;0.702591;0.15592577;;;;;;;;;;;;;;;
2242.0;2196.8;;;;-0.93431485;0.70623785;0.14945222;;;;;;;;;;;;;;;
2242.0;2196.8;;;;-0.9143907;0.70982367;0.14120485;;;;;;;;;;;;;;;
2242.0;2201.9;262143;262143;12625;;;;;;;;;;;;;;;;;;
2243.0;2202.7;;;;;;;;;;;;;;;;;82.77764;-54.940945;26.451918;;2111.3
2243.0;2202.7;;;;;;;;;;;;;;0.18347728;0.61818296;-0.092837304;;;;;2111.3
2243.0;2202.7;;;;;;;;;;;;;;;;;84.79949;-52.40791;31.670582;;2111.3
2243.0;2202.7;;;;;;;;;;;;;;0.22113712;0.6861171;-0.062379833;;;;;2111.3
2243.0;2202.7;;;;;;;;;;;;;;;;;85.276344;-50.351723;37.068546;;2120.9
2243.0;2202.7;;;;;;;;;;;;;;0.26075014;0.75643176;-0.02783288;;;;;2120.9
2243.0;2202.7;;;;;;;;;;;;;;;;;84.261604;-49.504837;43.519398;;2120.9
2243.0;2202.7;;;;;;;;;;;;;;0.29834896;0.82033753;0.015503403;;;;;2120.9
2243.0;2202.7;;;;;;;;;;;;;;;;;81.625565;-51.221504;50.843838;;2130.5
2243.0;2202.7;;;;;;;;;;;;;;0.32953885;0.8566546;0.07513657;;;;;2130.5
2243.0;2202.7;;;;;;;;;;;;;;;;;76.872314;-55.87176;59.3585;;2130.5
2243.0;2202.7;;;;;;;;;;;;;;0.3552965;0.8988311;0.1610767;;;;;2130.5
2243.0;2202.5;;;;;;;;;;53.945282;-124.881744;-8.1331835;;;;;;;;;
2243.0;2202.5;;;;;;;0.69289225;-1.4799646;-0.13464767;;;;;;;;;;;;
2243.0;2202.5;;;;;;;;;;54.048283;-124.881744;-8.610034;;;;;;;;;
2243.0;2202.5;;;;;;;0.72023684;-1.4316232;-0.16089359;;;;;;;;;;;;
2243.0;2206.8;;;;-0.89367306;0.71257406;0.13162233;;;;;;;;;;;;;;;
2243.0;2206.8;;;;-0.8727647;0.7155648;0.12155534;;;;;;;;;;;;;;;
2243.0;2206.8;;;;-0.85302746;0.718586;0.110836044;;;;;;;;;;;;;;;
2243.0;2206.8;;;;-0.834015;0.7223893;0.10013963;;;;;;;;;;;;;;;
2243.0;2206.8;;;;-0.8157655;0.726059;0.0899582;;;;;;;;;;;;;;;
2243.0;2207.6;;;;;;;;;;;;;6342;;;;;;;;
2243.0;2207.6;;;;;;;;;;;;;5989;;;;;;;;
2243.0;2207.6;;;;;;;;;;;;;5910;;;;;;;;
2243.0;2207.6;;;;;;;;;;;;;6061;;;;;;;;
2243.0;2207.6;;;;;;;;;;;;;6115;;;;;;;;
2298.0;2212.0;;;;;;;;;;51.65639;-124.881744;-8.060701;;;;;;;;;
2298.0;2212.0;;;;;;;0.72890407;-1.340556;-0.18707846;;;;;;;;;;;;
2298.0;2212.0;;;;;;;;;;47.070988;-124.881744;-8.224739;;;;;;;;;
2298.0;2212.0;;;;;;;0.7243263;-1.2354503;-0.19641712;;;;;;;;;;;;
2298.0;2216.9;;;;-0.7995721;0.73091894;0.07905198;;;;;;;;;;;;;;;
2298.0;2216.9;;;;-0.7842561;0.73693854;0.06900788;;;;;;;;;;;;;;;
2298.0;2216.9;;;;-0.7700006;0.7435799;0.060062416;;;;;;;;;;;;;;;
2298.0;2216.9;;;;-0.7570993;0.75099194;0.05261994;;;;;;;;;;;;;;;
2298.0;2216.9;;;;-0.7453576;0.7600366;0.04661942;;;;;;;;;;;;;;;
2298.0;2221.5;;;;;;;;;;40.53621;-124.881744;-10.795923;;;;;;;;;
2298.0;2221.5;;;;;;;0.7053438;-1.1381572;-0.19788201;;;;;;;;;;;;
2298.0;2221.5;;;;;;;;;;32.200844;-124.881744;-14.637441;;;;;;;;;
2298.0;2221.5;;;;;;;0.6681112;-1.0619831;-0.19379254;;;;;;;;;;;;
2298.0;2221.9;262143;262143;12619;;;;;;;;;;;;;;;;;;
2298.0;2226.8;;;;-0.73499686;0.7695199;0.041717533;;;;;;;;;;;;;;;
2298.0;2226.8;;;;-0.7242394;0.77962124;0.038536076;;;;;;;;;;;;;;;
2298.0;2226.8;;;;-0.7133942;0.7914468;0.036121372;;;;;;;;;;;;;;;
2298.0;2226.8;;;;-0.703373;0.8033334;0.03449631;;;;;;;;;;;;;;;
2298.0;2226.8;;;;-0.69406134;0.815632;0.033557896;;;;;;;;;;;;;;;
2298.0;2230.9;;;;;;;;;;23.510696;-124.881744;-18.730736;;;;;;;;;
2298.0;2230.9;;;;;;;0.6245308;-1.0003357;-0.19312114;;;;;;;;;;;;
2298.0;2230.9;;;;;;;;;;15.285958;-124.881744;-21.645254;;;;;;;;;
2298.0;2230.9;;;;;;;0.57167274;-0.9439375;-0.18494217;;;;;;;;;;;;
2300.0;2236.7;;;;-0.6850892;0.82867444;0.0338707;;;;;;;;;;;;;;;
2300.0;2236.7;;;;-0.6758614;0.8426248;0.034378055;;;;;;;;;;;;;;;
2300.0;2236.7;;;;-0.6664391;0.856495;0.033977512;;;;;;;;;;;;;;;
2300.0;2236.7;;;;-0.6575585;0.87007916;0.033882145;;;;;;;;;;;;;;;
2300.0;2236.7;;;;-0.6482201;0.8834344;0.033096317;;;;;;;;;;;;;;;
2300.0;2240.5;;;;;;;;;;7.8623314;-124.881744;-22.659992;;;;;;;;;
2300.0;2240.5;;;;;;;0.52687156;-0.893582;-0.1716361;;;;;;;;;;;;
2300.0;2240.5;;;;;;;;;;0.98422194;-124.881744;-22.103031;;;;;;;;;
2300.0;2240.5;;;;;;;0.48963895;-0.8497574;-0.15015107;;;;;;;;;;;;
2300.0;2241.9;262143;262143;12620;;;;;;;;;;;;;;;;;;
2300.0;2246.8;;;;-0.6391488;0.8959199;0.032779697;;;;;;;;;;;;;;;
2300.0;2246.8;;;;-0.62961966;0.9076196;0.031383518;;;;;;;;;;;;;;;
2300.0;2246.8;;;;-0.6211205;0.9174081;0.029560093;;;;;;;;;;;;;;;
2300.0;2246.8;;;;-0.6128693;0.926407;0.028083805;;;;;;;;;;;;;;;
2300.0;2246.8;;;;-0.6041871;0.93330014;0.026184086;;;;;;;;;;;;;;;
2300.0;2247.7;;;;;;;;;;;;;5829;;;;;;;;
2300.0;2247.7;;;;;;;;;;;;;5482;;;;;;;;
2300.0;2247.7;;;;;;;;;;;;;5368;;;;;;;;
2300.0;2247.7;;;;;;;;;;;;;5335;;;;;;;;
2300.0;2247.7;;;;;;;;;;;;;5257;;;;;;;;
2300.0;2250.1;;;;;;;;;;-5.6382947;-124.69482;-20.409252;;;;;;;;;
2300.0;2250.1;;;;;;;0.46058536;-0.8192999;-0.1246376;;;;;;;;;;;;
2300.0;2250.1;;;;;;;;;;-11.867886;-117.98074;-18.024994;;;;;;;;;
2300.0;2250.1;;;;;;;0.43556017;-0.8019044;-0.09741508;;;;;;;;;;;;
2303.0;2256.9;;;;-0.59600836;0.9382554;0.02399445;;;;;;;;;;;;;;;
2303.0;2256.9;;;;-0.58819205;0.94140637;0.02138901;;;;;;;;;;;;;;;
2303.0;2256.9;;;;-0.5811959;0.9420396;0.019596102;;;;;;;;;;;;;;;
2303.0;2256.9;;;;-0.574936;0.9410211;0.017993929;;;;;;;;;;;;;;;
2303.0;2256.9;;;;-0.5699044;0.9375001;0.016437532;;;;;;;;;;;;;;;
2303.0;2259.7;;;;;;;;;;-17.929625;-101.90511;-14.595477;;;;;;;;;
2303.0;2259.7;;;;;;;0.41193885;-0.7967162;-0.068544574;;;;;;;;;;;;
2303.0;2259.7;;;;;;;;;;-23.6404;-84.52101;-10.1130705;;;;;;;;;
2303.0;2259.7;;;;;;;0.3894162;-0.80636007;-0.038575396;;;;;;;;;;;;
2303.0;2262.2;262143;262143;12622;;;;;;;;;;;;;;;;;;
2303.0;2262.9;;;;;;;;;;;;;;;;;68.60942;-58.732872;68.826866;;2140.1
2303.0;2262.9;;;;;;;;;;;;;;0.3737907;0.9434492;0.3007294;;;;;2140.1
2303.0;2262.9;;;;;;;;;;;;;;;;;59.121983;-52.381207;77.707756;;2140.1
2303.0;2262.9;;;;;;;;;;;;;;0.3472396;1.0752281;0.5018464;;;;;2140.1
2303.0;2262.9;;;;;;;;;;;;;;;;;51.610615;-37.392803;82.117676;;2149.7
2303.0;2262.9;;;;;;;;;;;;;;0.35798213;1.3550218;0.76613665;;;;;2149.7
2303.0;2262.9;;;;;;;;;;;;;;;;;49.577316;-28.984955;88.16798;;2149.7
2303.0;2262.9;;;;;;;;;;;;;;0.5492111;1.5090792;0.7646718;;;;;2149.7
2303.0;2262.9;;;;;;;;;;;;;;;;;60.26261;-29.053621;96.03793;;2159.4
2303.0;2262.9;;;;;;;;;;;;;;0.66353345;1.7325358;0.45564136;;;;;2159.4
2303.0;2262.9;;;;;;;;;;;;;;;;;61.296425;-46.594135;98.822754;;2159.4
2303.0;2262.9;;;;;;;;;;;;;;0.6769616;1.9841304;0.16840114;;;;;2159.4
2305.0;2264.0;;;;;;;;;;;;;;;;;37.18299;-75.464645;90.506454;;2169.1
2305.0;2264.0;;;;;;;;;;;;;;0.8156377;1.9979857;0.18872647;;;;;2169.1
2305.0;2264.0;;;;;;;;;;;;;;;;;17.216253;-107.55105;75.85376;;2169.1
2305.0;2264.0;;;;;;;;;;;;;;1.0973846;1.9924314;0.3350322;;;;;2169.1
2305.0;2264.0;;;;;;;;;;;;;;;;;16.098515;-123.87081;64.56572;;2178.8
2305.0;2264.0;;;;;;;;;;;;;;1.7159337;1.8084048;0.3882565;;;;;2178.8
2305.0;2264.0;;;;;;;;;;;;;;;;;21.454514;-112.514114;57.96991;;2178.8
2305.0;2264.0;;;;;;;;;;;;;;1.937315;1.634022;0.5443892;;;;;2178.8
2305.0;2264.0;;;;;;;;;;;;;;;;;23.136845;-105.967896;53.449356;;2188.5
2305.0;2264.0;;;;;;;;;;;;;;1.9140599;1.5507065;0.49916074;;;;;2188.5
2305.0;2264.0;;;;;;;;;;;;;;;;;8.461257;-109.89715;46.887875;;2188.5
2305.0;2264.0;;;;;;;;;;;;;;1.9963988;1.5989257;0.09784234;;;;;2188.5
2305.0;2266.8;;;;-0.5667687;0.9330026;0.014976503;;;;;;;;;;;;;;;
2305.0;2266.8;;;;-0.5632325;0.9267045;0.014427187;;;;;;;;;;;;;;;
2305.0;2266.8;;;;-0.56163794;0.91944516;0.013629915;;;;;;;;;;;;;;;
2305.0;2266.8;;;;-0.56080633;0.9114114;0.011913301;;;;;;;;;;;;;;;
2305.0;2266.8;;;;-0.5608712;0.9011804;0.010551454;;;;;;;;;;;;;;;
2305.0;2269.1;;;;;;;;;;-29.015472;-66.690575;-4.875332;;;;;;;;;
2305.0;2269.1;;;;;;;0.36677146;-0.82790613;-0.008239998;;;;;;;;;;;;
2305.0;2269.1;;;;;;;;;;-33.848843;-48.886837;1.0681478;;;;;;;;;
2305.0;2269.1;;;;;;;0.34485915;-0.85860777;0.017517624;;;;;;;;;;;;
2307.0;2276.9;;;;-0.56275564;0.8916398;0.010826112;;;;;;;;;;;;;;;
