patientId;holterMac;flexMac;;;;;;;;;;;;;;;;;;;;
;CA:F3:0B:1E:33:78;D3:4A:5C:52:80:78;;;;;;;;;;;;;;;;;;;;
receivedTimeStamp;timeStamp;red;ir;green;adxl_accX;adxl_accY;adxl_accZ;lsm_accelX;lsm_accelY;lsm_accelZ;lsm_gyroX;lsm_gyroY;lsm_gyroZ;ecg;flex_lsm_accelX;flex_lsm_accelY;flex_lsm_accelZ;flex_lsm_gyroX;flex_lsm_gyroY;flex_lsm_gyroZ;flex_cmd;flexTimeStamp
282.0;170.1;;;;;;;;;;;;;;;;;;;;17;0.1
282.0;170.1;;;;;;;;;;;;;;;;;18.250069;-2.8191473;0.8507035;;127.5
282.0;170.1;;;;;;;;;;;;;;1.1437117;0.07293924;-0.086245306;;;;;127.5
282.0;170.1;;;;;;;;;;;;;;;;;-3.5706656;-16.945402;-9.147923;;127.5
282.0;170.1;;;;;;;;;;;;;;1.2140874;0.08349864;-0.094912566;;;;;127.5
282.0;170.1;;;;;;;;;;;;;;;;;-61.17435;-83.525345;-68.15164;;137.2
282.0;170.1;;;;;;;;;;;;;;1.2540666;0.09363079;-0.109866634;;;;;137.2
282.0;170.1;;;;;;;;;;;;;;;;;-121.60863;-124.988556;-122.71874;;137.2
282.0;170.1;;;;;;;;;;;;;;1.2889798;0.12848292;-0.11487167;;;;;137.2
310.0;200.3;;;;;;;;;;;;;;;;;-45.92654;-118.13334;-106.88727;;146.9
310.0;200.3;;;;;;;;;;;;;;1.3143101;0.16943876;-0.1398358;;;;;146.9
310.0;200.3;;;;;;;;;;;;;;;;;38.911102;-100.131226;-100.41352;;146.9
310.0;200.3;;;;;;;;;;;;;;1.3090609;0.17859432;-0.15057832;;;;;146.9
310.0;200.3;;;;;;;;;;;;;;;;;41.909542;-57.47017;-106.139565;;156.5
310.0;200.3;;;;;;;;;;;;;;1.3168126;0.19019136;-0.15845211;;;;;156.5
310.0;200.3;;;;;;;;;;;;;;;;;37.392803;38.121433;-91.963715;;156.5
310.0;200.3;;;;;;;;;;;;;;1.3181554;0.1998352;-0.1734672;;;;;156.5
310.0;200.3;;;;;;;;;;;;;;;;;36.29032;45.907467;-89.9533;;166.1
310.0;200.3;;;;;;;;;;;;;;1.295938;0.21576586;-0.17481002;;;;;166.1
310.0;200.3;;;;;;;;;;;;;;;;;35.73336;46.78106;-89.02249;;166.1
310.0;200.3;;;;;;;;;;;;;;1.2569964;0.24433118;-0.17096469;;;;;166.1
310.0;230.7;;;;;;;;;;;;;;;;;34.195988;47.124393;-87.36305;;175.8
310.0;230.7;;;;;;;;;;;;;;1.2292856;0.26972258;-0.15124974;;;;;175.8
310.0;230.7;;;;;;;;;;;;;;;;;32.479324;46.739098;-86.24149;;175.8
310.0;230.7;;;;;;;;;;;;;;1.1961424;0.3098239;-0.14764854;;;;;175.8
310.0;230.7;;;;;;;;;;;;;;;;;29.904325;46.704765;-84.83764;;185.5
310.0;230.7;;;;;;;;;;;;;;1.1470687;0.31958982;-0.12537004;;;;;185.5
310.0;230.7;;;;;;;;;;;;;;;;;27.909176;45.194096;-83.174385;;185.5
310.0;230.7;;;;;;;;;;;;;;1.1487777;0.3173925;-0.12158574;;;;;185.5
310.0;230.7;;;;;;;;;;;;;;;;;26.070436;45.453503;-81.57597;;195.2
310.0;230.7;;;;;;;;;;;;;;1.140965;0.30420852;-0.12292856;;;;;195.2
310.0;230.7;;;;;;;;;;;;;;;;;24.37666;47.09006;-80.39338;;195.2
310.0;230.7;;;;;;;;;;;;;;1.0993377;0.27210304;-0.10388501;;;;;195.2
374.0;260.6;;;;;;;;;;;;;;;;;23.56029;47.242653;-79.5999;;204.8
374.0;260.6;;;;;;;;;;;;;;1.0873134;0.24304941;-0.08929716;;;;;204.8
374.0;260.6;;;;;;;;;;;;;;;;;23.834957;47.51732;-78.88271;;204.8
374.0;260.6;;;;;;;;;;;;;;1.0751671;0.2141789;-0.077883236;;;;;204.8
374.0;260.6;;;;;;;;;;;;;;;;;24.784843;48.257393;-77.730644;;214.4
374.0;260.6;;;;;;;;;;;;;;1.0643635;0.20062868;-0.06714072;;;;;214.4
374.0;260.6;;;;;;;;;;;;;;;;;26.257362;48.64269;-76.422165;;214.4
374.0;260.6;;;;;;;;;;;;;;1.0594805;0.18231757;-0.066286206;;;;;214.4
374.0;260.6;;;;;;;;;;;;;;;;;27.657398;48.96695;-75.02594;;224.1
374.0;260.6;;;;;;;;;;;;;;1.0488602;0.16400647;-0.050965913;;;;;224.1
374.0;260.6;;;;;;;;;;;;;;;;;28.813288;48.963135;-73.343605;;224.1
374.0;260.6;;;;;;;;;;;;;;1.0417799;0.15228736;-0.04358043;;;;;224.1
374.0;320.9;;;;;;;;;;;;;;;;;29.90051;49.06232;-71.65746;;233.6
374.0;320.9;;;;;;;;;;;;;;1.0306101;0.12262337;-0.04388562;;;;;233.6
374.0;320.9;;;;;;;;;;;;;;;;;31.544693;49.031803;-69.88738;;233.6
374.0;320.9;;;;;;;;;;;;;;1.0165105;0.113101594;-0.041322064;;;;;233.6
374.0;320.9;;;;;;;;;;;;;;;;;33.032475;48.62743;-67.87316;;243.2
374.0;320.9;;;;;;;;;;;;;;1.00412;0.12042604;-0.04156621;;;;;243.2
374.0;320.9;;;;;;;;;;;;;;;;;34.43632;48.066654;-65.954315;;243.2
374.0;320.9;;;;;;;;;;;;;;1.002472;0.15655996;-0.051515244;;;;;243.2
374.0;320.9;;;;;;;;;;;;;;;;;35.09247;48.06284;-63.802757;;252.8
374.0;320.9;;;;;;;;;;;;;;0.99942017;0.16193122;-0.04876858;;;;;252.8
374.0;320.9;;;;;;;;;;;;;;;;;36.08814;48.55495;-61.368908;;252.8
374.0;320.9;;;;;;;;;;;;;;0.9640187;0.16681418;-0.04589984;;;;;252.8
438.0;321.6;;;;;;;;;;;;;;;;;36.58025;47.830135;-58.7138;;262.5
438.0;321.6;;;;;;;;;;;;;;0.96121097;0.19086276;-0.047425766;;;;;262.5
438.0;321.6;;;;;;;;;;;;;;;;;36.183506;48.36421;-56.318092;;262.5
438.0;321.6;;;;;;;;;;;;;;0.93020415;0.22400586;-0.032593768;;;;;262.5
438.0;321.6;;;;;;;;;;;;;;;;;34.95132;48.593098;-54.47554;;272.1
438.0;321.6;;;;;;;;;;;;;;0.90047914;0.25281534;-0.016968291;;;;;272.1
438.0;321.6;;;;;;;;;;;;;;;;;33.383434;48.276466;-52.735985;;272.1
438.0;321.6;;;;;;;;;;;;;;0.8890652;0.27729118;-0.013428144;;;;;272.1
438.0;321.6;;;;;;;;;;;;;;;;;32.235176;49.031803;-50.86291;;281.7
438.0;321.6;;;;;;;;;;;;;;0.85781425;0.2992645;-0.0020142216;;;;;281.7
438.0;321.6;;;;;;;;;;;;;;;;;31.426434;48.03232;-48.100986;;281.7
438.0;321.6;;;;;;;;;;;;;;0.8550676;0.31794184;-0.006042665;;;;;281.7
438.0;350.8;;;;;;;;;;;;;;;;;30.896175;48.0781;-45.430614;;291.4
438.0;350.8;;;;;;;;;;;;;;0.84182256;0.32966095;-0.01147496;;;;;291.4
438.0;350.8;;;;;;;;;;;;;;;;;30.213324;49.184395;-42.83273;;291.4
438.0;350.8;;;;;;;;;;;;;;0.81423384;0.3426008;3.051851E-4;;;;;291.4
438.0;350.8;;;;;;;;;;;;;;;;;28.687399;49.436172;-40.276802;;300.9
438.0;350.8;;;;;;;;;;;;;;0.8006226;0.35883662;0.006775109;;;;;300.9
438.0;350.8;;;;;;;;;;;;;;;;;26.371807;50.22965;-37.90399;;300.9
438.0;350.8;;;;;;;;;;;;;;0.779931;0.37397382;0.015320292;;;;;300.9
438.0;350.8;;;;;;;;;;;;;;;;;23.079622;50.374615;-35.42436;;310.5
438.0;350.8;;;;;;;;;;;;;;0.75661486;0.3810541;0.02496414;;;;;310.5
438.0;350.8;;;;;;;;;;;;;;;;;20.054476;49.87869;-33.303326;;310.5
438.0;350.8;;;;;;;;;;;;;;0.7564928;0.36213264;0.026062807;;;;;310.5
525.0;381.0;;;;;;;;;;;;;;;;;17.487106;50.027466;-31.487473;;320.1
525.0;381.0;;;;;;;;;;;;;;0.7395856;0.37006745;0.026062807;;;;;320.1
525.0;381.0;;;;;;;;;;;;;;;;;15.15244;49.779503;-29.435102;;320.1
525.0;381.0;;;;;;;;;;;;;;0.73262733;0.35737175;0.032654807;;;;;320.1
525.0;381.0;;;;;;;;;;;;;;;;;13.325145;49.58876;-27.615435;;329.8
525.0;381.0;;;;;;;;;;;;;;0.7281106;0.326487;0.038026065;;;;;329.8
525.0;381.0;;;;;;;;;;;;;;;;;12.211219;49.184395;-25.906399;;329.8
525.0;381.0;;;;;;;;;;;;;;0.7219459;0.32361826;0.035584584;;;;;329.8
525.0;381.0;;;;;;;;;;;;;;;;;11.089663;48.718987;-23.888363;;339.4
525.0;381.0;;;;;;;;;;;;;;0.7127293;0.31305888;0.03997925;;;;;339.4
525.0;381.0;;;;;;;;;;;;;;;;;10.448774;47.845394;-21.961884;;339.4
525.0;381.0;;;;;;;;;;;;;;0.7126072;0.29407635;0.037110507;;;;;339.4
525.0;471.3;;;;;;;;;;;;;;;;;10.269479;47.22358;-20.17655;;349.1
525.0;471.3;;;;;;;;;;;;;;0.71553695;0.2705771;0.038453322;;;;;349.1
525.0;471.3;;;;;;;;;;;;;;;;;10.509811;46.47206;-18.360699;;349.1
525.0;471.3;;;;;;;;;;;;;;0.7129734;0.25739312;0.027954955;;;;;349.1
525.0;471.3;;;;;;;;;;;;;;;;;11.070589;45.83117;-16.552477;;358.8
525.0;471.3;;;;;;;;;;;;;;0.70461136;0.22382274;0.020386364;;;;;358.8
525.0;471.3;;;;;;;;;;;;;;;;;12.321849;44.59517;-14.934996;;358.8
525.0;471.3;;;;;;;;;;;;;;0.70979947;0.20886868;0.012451552;;;;;358.8
525.0;471.3;;;;;;;;;;;;;;;;;13.691366;43.61095;-13.19544;;368.3
525.0;471.3;;;;;;;;;;;;;;0.7066256;0.20654927;0.012146367;;;;;368.3
525.0;471.3;;;;;;;;;;;;;;;;;14.877774;42.142246;-11.215552;;368.3
525.0;471.3;;;;;;;;;;;;;;0.70461136;0.19177832;0.0076906644;;;;;368.3
555.0;472.2;;;;;;;;;;;;;;;;;16.281626;40.223396;-9.178442;;377.9
555.0;472.2;;;;;;;;;;;;;;0.70113224;0.1812189;0.0042115543;;;;;377.9
555.0;472.2;;;;;;;;;;;;;;;;;17.90292;38.30836;-6.9353313;;377.9
555.0;472.2;;;;;;;;;;;;;;0.70296335;0.1723075;-0.0056154057;;;;;377.9
555.0;472.2;;;;;;;;;;;;;;;;;20.062105;36.275063;-4.440443;;387.6
555.0;472.2;;;;;;;;;;;;;;0.69862974;0.16443373;-0.0081179235;;;;;387.6
555.0;472.2;;;;;;;;;;;;;;;;;22.549362;34.035767;-2.0409255;;387.6
555.0;472.2;;;;;;;;;;;;;;0.7014374;0.1685232;-0.0145268105;;;;;387.6
555.0;472.2;;;;;;;;;;;;;;;;;25.116734;31.96051;0.39674062;;397.3
555.0;472.2;;;;;;;;;;;;;;0.6988739;0.1693167;-0.016052736;;;;;397.3
555.0;472.2;;;;;;;;;;;;;;;;;27.703176;29.618214;2.929777;;397.3
555.0;472.2;;;;;;;;;;;;;;0.7045503;0.17523728;-0.01843318;;;;;397.3
555.0;473.0;;;;;;;;;;;;;;;;;30.293434;27.546768;5.4857025;;406.9
555.0;473.0;;;;;;;;;;;;;;0.70351267;0.18683432;-0.016968291;;;;;406.9
555.0;473.0;;;;;;;;;;;;;;;;;32.78451;25.563066;8.0835905;;406.9
555.0;473.0;;;;;;;;;;;;;;0.70400095;0.20343639;-0.015442366;;;;;406.9
555.0;473.0;;;;;;;;;;;;;;;;;34.794914;23.67092;10.757775;;416.6
555.0;473.0;;;;;;;;;;;;;;0.7048555;0.22101505;-0.01208533;;;;;416.6
555.0;473.0;;;;;;;;;;;;;;;;;36.53447;22.041994;13.397626;;416.6
555.0;473.0;;;;;;;;;;;;;;0.7005219;0.23877682;-0.0076906644;;;;;416.6
555.0;473.0;;;;;;;;;;;;;;;;;38.1901;20.397808;15.888699;;426.2
555.0;473.0;;;;;;;;;;;;;;0.70064396;0.26160467;0.0027466659;;;;;426.2
555.0;473.0;;;;;;;;;;;;;;;;;39.590134;19.077885;18.276772;;426.2
555.0;473.0;;;;;;;;;;;;;;0.70363474;0.27826777;0.0056764428;;;;;426.2
616.0;501.8;;;;;;;;;;;;;;;;;41.077915;18.250069;20.500809;;435.8
616.0;501.8;;;;;;;;;;;;;;0.69557786;0.29139072;0.013611255;;;;;435.8
616.0;501.8;;;;;;;;;;;;;;;;;42.683952;17.258217;22.549362;;435.8
616.0;501.8;;;;;;;;;;;;;;0.6921598;0.310007;0.021423994;;;;;435.8
616.0;501.8;;;;;;;;;;;;;;;;;44.183174;16.315958;24.563585;;445.4
616.0;501.8;;;;;;;;;;;;;;0.6872158;0.33069858;0.028199103;;;;;445.4
616.0;501.8;;;;;;;;;;;;;;;;;45.29328;15.373699;26.394695;;445.4
616.0;501.8;;;;;;;;;;;;;;0.6787317;0.35657826;0.04034547;;;;;445.4
616.0;501.8;;;;;;;;;;;;;;;;;46.136356;14.034699;27.909176;;455.0
616.0;501.8;;;;;;;;;;;;;;0.67690057;0.38380077;0.055848874;;;;;455.0
616.0;501.8;;;;;;;;;;;;;;;;;46.800133;12.619404;29.145178;;455.0
616.0;501.8;;;;;;;;;;;;;;0.67085785;0.4115726;0.076235235;;;;;455.0
616.0;531.4;;;;;;;;;;;;;;;;;47.029022;11.020997;30.09125;;464.6
616.0;531.4;;;;;;;;;;;;;;0.6748253;0.44935453;0.093935974;;;;;464.6
616.0;531.4;;;;;;;;;;;;;;;;;46.948914;9.235664;31.178473;;464.6
616.0;531.4;;;;;;;;;;;;;;0.68550676;0.48329112;0.098391674;;;;;464.6
616.0;531.4;;;;;;;;;;;;;;;;;47.025208;7.89285;32.067326;;474.3
616.0;531.4;;;;;;;;;;;;;;0.6967376;0.5334025;0.10876797;;;;;474.3
616.0;531.4;;;;;;;;;;;;;;;;;46.17069;6.8132577;33.37962;;474.3
616.0;531.4;;;;;;;;;;;;;;0.727195;0.58107245;0.11102634;;;;;474.3
616.0;531.4;;;;;;;;;;;;;;;;;45.518356;7.309183;34.18073;;484.0
616.0;531.4;;;;;;;;;;;;;;0.741905;0.6270333;0.11133152;;;;;484.0
616.0;531.4;;;;;;;;;;;;;;;;;46.033356;7.7478867;34.16547;;484.0
616.0;531.4;;;;;;;;;;;;;;0.7679067;0.690817;0.1163976;;;;;484.0
674.0;561.5;;;;;;;;;;;;;;;;;46.73147;8.148442;33.60088;;493.7
674.0;561.5;;;;;;;;;;;;;;0.7889645;0.75734735;0.09723197;;;;;493.7
674.0;561.5;;;;;;;;;;;;;;;;;46.83447;9.079257;32.330547;;493.7
674.0;561.5;;;;;;;;;;;;;;0.8139897;0.8323618;0.10058901;;;;;493.7
674.0;561.5;;;;;;;;;;;;;;;;;46.422466;9.750664;30.037842;;503.3
674.0;561.5;;;;;;;;;;;;;;0.82131416;0.9021882;0.08862575;;;;;503.3
674.0;561.5;;;;;;;;;;;;;;;;;45.4268;9.769737;26.768549;;503.3
674.0;561.5;;;;;;;;;;;;;;0.8247932;0.9795221;0.074648276;;;;;503.3
674.0;561.5;;;;;;;;;;;;;;;;;43.28288;8.7893305;22.965178;;512.8
674.0;561.5;;;;;;;;;;;;;;0.8350475;1.0298777;0.059755243;;;;;512.8
674.0;561.5;;;;;;;;;;;;;;;;;39.97543;6.633961;18.395031;;512.8
674.0;561.5;;;;;;;;;;;;;;0.82924896;1.0682088;0.05261391;;;;;512.8
674.0;591.7;;;;;;;;;;;;;;;;;35.70284;2.9755547;13.523515;;522.5
674.0;591.7;;;;;;;;;;;;;;0.82540363;1.0878017;0.048524432;;;;;522.5
674.0;591.7;;;;;;;;;;;;;;;;;31.403545;-1.1597034;8.770256;;522.5
674.0;591.7;;;;;;;;;;;;;;0.8269295;1.0920134;0.03686636;;;;;522.5
674.0;591.7;;;;;;;;;;;;;;;;;27.802362;-4.5510726;4.127629;;532.1
674.0;591.7;;;;;;;;;;;;;;0.81356245;1.0756553;0.012573626;;;;;532.1
674.0;591.7;;;;;;;;;;;;;;;;;25.38377;-7.763146;-0.4463332;;532.1
674.0;591.7;;;;;;;;;;;;;;0.81496626;1.0400708;-0.011719108;;;;;532.1
674.0;591.7;;;;;;;;;;;;;;;;;23.968475;-9.189886;-4.482406;;541.7
674.0;591.7;;;;;;;;;;;;;;0.7945799;0.98904383;-0.028504288;;;;;541.7
674.0;591.7;;;;;;;;;;;;;;;;;23.079622;-10.731071;-8.140813;;541.7
674.0;591.7;;;;;;;;;;;;;;0.76003295;0.9211097;-0.048524432;;;;;541.7
734.0;622.2;;;;;;;;;;;;;;;;;22.839289;-13.088626;-11.402478;;551.4
734.0;622.2;;;;;;;;;;;;;;0.74221015;0.8464003;-0.06286813;;;;;551.4
734.0;622.2;;;;;;;;;;;;;;;;;22.530289;-15.243996;-13.889736;;551.4
734.0;622.2;;;;;;;;;;;;;;0.71553695;0.7671743;-0.075319685;;;;;551.4
734.0;622.2;;;;;;;;;;;;;;;;;21.576588;-17.529068;-15.46144;;561.1
734.0;622.2;;;;;;;;;;;;;;0.71321756;0.69624925;-0.08386487;;;;;561.1
734.0;622.2;;;;;;;;;;;;;;;;;19.104588;-19.276255;-16.098515;;561.1
734.0;622.2;;;;;;;;;;;;;;0.707358;0.6187933;-0.06823939;;;;;561.1
734.0;622.2;;;;;;;;;;;;;;;;;15.308847;-21.908476;-15.812403;;570.6
734.0;622.2;;;;;;;;;;;;;;0.6944182;0.5493942;-0.0347911;;;;;570.6
734.0;622.2;;;;;;;;;;;;;;;;;10.673849;-26.024658;-14.603107;;570.6
734.0;622.2;;;;;;;;;;;;;;0.6999725;0.48951688;-0.012634663;;;;;570.6
734.0;651.9;;;;;;;;;;;;;;;;;5.878628;-30.220953;-13.016145;;580.1
734.0;651.9;;;;;;;;;;;;;;0.7118137;0.44294566;0.022339549;;;;;580.1
734.0;651.9;;;;;;;;;;;;;;;;;1.1329997;-35.00473;-11.505478;;580.1
734.0;651.9;;;;;;;;;;;;;;0.7433699;0.40900907;0.0413831;;;;;580.1
734.0;651.9;;;;;;;;;;;;;;;;;-3.4714804;-40.383617;-9.857478;;589.8
734.0;651.9;;;;;;;;;;;;;;0.7985473;0.39045382;0.06683554;;;;;589.8
734.0;651.9;;;;;;;;;;;;;;;;;-8.964812;-47.719505;-7.6258125;;589.8
734.0;651.9;;;;;;;;;;;;;;0.90426344;0.37238684;0.09656057;;;;;589.8
734.0;651.9;;;;;;;;;;;;;;;;;-16.716515;-55.600906;-4.3221836;;599.5
734.0;651.9;;;;;;;;;;;;;;1.0789514;0.3277688;0.12292856;;;;;599.5
734.0;651.9;;;;;;;;;;;;;;;;;-24.59792;-60.819572;0.4196295;;599.5
734.0;651.9;;;;;;;;;;;;;;1.3333536;0.2846156;0.12134159;;;;;599.5
795.0;682.1;;;;;;;;;;;;;;;;;-28.256325;-61.422314;6.2715535;;609.2
795.0;682.1;;;;;;;;;;;;;;1.5897092;0.25745416;0.010559404;;;;;609.2
795.0;682.1;;;;;;;;;;;;;;;;;-25.173954;-57.83639;11.1888485;;609.2
795.0;682.1;;;;;;;;;;;;;;1.7808161;0.24536882;-0.15704826;;;;;609.2
795.0;682.1;;;;;;;;;;;;;;;;;-18.494217;-50.954464;13.42433;;618.9
795.0;682.1;;;;;;;;;;;;;;1.9013642;0.1734672;-0.24280526;;;;;618.9
795.0;682.1;;;;;;;;;;;;;;;;;-11.566515;-39.48332;12.459181;;618.9
795.0;682.1;;;;;;;;;;;;;;1.92584;0.079348125;-0.18042544;;;;;618.9
795.0;682.1;;;;;;;;;;;;;;;;;-4.127629;-26.966919;8.58333;;628.5
795.0;682.1;;;;;;;;;;;;;;1.8441114;0.025208289;-0.018555254;;;;;628.5
795.0;682.1;;;;;;;;;;;;;;;;;3.5821102;-18.84518;2.334666;;628.5
795.0;682.1;;;;;;;;;;;;;;1.7150182;-0.009887997;0.09088412;;;;;628.5
795.0;712.2;;;;;;;;;;;;;;;;;11.749626;-13.1077;-5.3903317;;638.2
795.0;712.2;;;;;;;;;;;;;;1.5312967;0.01556444;0.13147373;;;;;638.2
795.0;712.2;;;;;;;;;;;;;;;;;19.856104;-6.920072;-13.161107;;638.2
795.0;712.2;;;;;;;;;;;;;;1.3251747;0.08862575;0.12555315;;;;;638.2
795.0;712.2;;;;;;;;;;;;;;;;;25.437178;-0.17166662;-18.74218;;647.8
795.0;712.2;;;;;;;;;;;;;;1.0882901;0.13934751;0.091372415;;;;;647.8
795.0;712.2;;;;;;;;;;;;;;;;;30.144657;3.6431472;-21.664328;;647.8
795.0;712.2;;;;;;;;;;;;;;0.8862575;0.1690115;0.025147252;;;;;647.8
795.0;712.2;;;;;;;;;;;;;;;;;36.9541;5.405591;-22.885067;;657.4
795.0;712.2;;;;;;;;;;;;;;0.7296976;0.17053743;-0.018250069;;;;;657.4
795.0;712.2;;;;;;;;;;;;;;;;;45.2208;4.078036;-22.43492;;657.4
795.0;712.2;;;;;;;;;;;;;;0.6487014;0.19135106;-0.008423109;;;;;657.4
854.0;742.1;;;;;;;;;;;;;;;;;53.59432;0.48829615;-19.848475;;667.0
854.0;742.1;;;;;;;;;;;;;;0.6493728;0.15155491;0.01574755;;;;;667.0
854.0;742.1;;;;;;;;;;;;;;;;;60.23209;-2.7199624;-16.003143;;667.0
854.0;742.1;;;;;;;;;;;;;;0.67232275;0.09033479;0.067751095;;;;;667.0
854.0;742.1;;;;;;;;;;;;;;;;;66.404465;-5.5352945;-10.898923;;676.5
854.0;742.1;;;;;;;;;;;;;;0.727195;-0.0073854793;0.07312235;;;;;676.5
854.0;742.1;;;;;;;;;;;;;;;;;80.1149;-6.408887;-5.813776;;676.5
854.0;742.1;;;;;;;;;;;;;;0.7909787;-0.09479049;0.026306955;;;;;676.5
854.0;742.1;;;;;;;;;;;;;;;;;103.01523;-6.3325906;-1.6212958;;686.2
854.0;742.1;;;;;;;;;;;;;;0.84432507;-0.12115848;-0.06402783;;;;;686.2
854.0;742.1;;;;;;;;;;;;;;;;;122.26859;-6.8933682;1.9150364;;686.2
854.0;742.1;;;;;;;;;;;;;;0.857387;-0.102847375;-0.17419966;;;;;686.2
854.0;772.7;;;;;;;;;;;;;;;;;124.988556;-9.472182;5.0279245;;695.8
854.0;772.7;;;;;;;;;;;;;;0.87295145;-0.0761742;-0.3162328;;;;;695.8
854.0;772.7;;;;;;;;;;;;;;;;;124.988556;-12.817774;8.70159;;695.8
854.0;772.7;;;;;;;;;;;;;;0.87496567;-0.05877865;-0.43293557;;;;;695.8
854.0;772.7;;;;;;;;;;;;;;;;;124.988556;-17.193365;14.709922;;705.5
854.0;772.7;;;;;;;;;;;;;;0.91134375;-0.041016877;-0.51582384;;;;;705.5
854.0;772.7;;;;;;;;;;;;;;;;;124.988556;-18.597218;22.377697;;705.5
854.0;772.7;;;;;;;;;;;;;;0.9576098;-0.0049439985;-0.5277871;;;;;705.5
854.0;772.7;;;;;;;;;;;;;;;;;124.988556;-16.750847;31.762138;;715.2
854.0;772.7;;;;;;;;;;;;;;1.0039979;0.009460738;-0.48591572;;;;;715.2
854.0;772.7;;;;;;;;;;;;;;;;;124.29044;-14.767144;40.730766;;715.2
854.0;772.7;;;;;;;;;;;;;;1.0525223;0.02478103;-0.4782861;;;;;715.2
978.0;802.4;;;;;;;;;;;;;;;;;118.99548;-12.619404;47.830135;;724.8
978.0;802.4;;;;;;;;;;;;;;1.0758384;0.1342204;-0.48115483;;;;;724.8
978.0;802.4;;;;;;;;;;;;;;;;;107.80664;-10.364849;53.270058;;724.8
978.0;802.4;;;;;;;;;;;;;;1.0990325;0.2418897;-0.43537706;;;;;724.8
978.0;802.4;;;;;;;;;;;;;;;;;94.73327;-7.065035;56.619465;;734.4
978.0;802.4;;;;;;;;;;;;;;1.1061739;0.31464583;-0.40119633;;;;;734.4
978.0;802.4;;;;;;;;;;;;;;;;;83.223976;-4.6464434;57.668537;;734.4
978.0;802.4;;;;;;;;;;;;;;1.1592151;0.35853145;-0.34339428;;;;;734.4
978.0;802.4;;;;;;;;;;;;;;;;;74.84665;-1.8120365;56.295204;;744.1
978.0;802.4;;;;;;;;;;;;;;1.183752;0.45515305;-0.32129887;;;;;744.1
978.0;802.4;;;;;;;;;;;;;;;;;68.52168;1.0605181;52.877132;;744.1
978.0;802.4;;;;;;;;;;;;;;1.1567125;0.5465865;-0.3045137;;;;;744.1
978.0;832.4;;;;;;;;;;;;;;;;;62.74224;1.7242957;47.761467;;753.8
978.0;832.4;;;;;;;;;;;;;;1.1089206;0.6596881;-0.29554126;;;;;753.8
978.0;832.4;;;;;;;;;;;;;;;;;55.925167;1.1558886;41.840878;;753.8
978.0;832.4;;;;;;;;;;;;;;1.0274972;0.74153876;-0.29377118;;;;;753.8
978.0;832.4;;;;;;;;;;;;;;;;;47.101505;-0.35477766;36.442917;;763.4
978.0;832.4;;;;;;;;;;;;;;0.9413129;0.7738273;-0.29773858;;;;;763.4
978.0;832.4;;;;;;;;;;;;;;;;;36.18732;-2.8916287;31.861324;;763.4
978.0;832.4;;;;;;;;;;;;;;0.9175695;0.7422712;-0.29023102;;;;;763.4
978.0;832.4;;;;;;;;;;;;;;;;;25.89877;-3.3303325;28.015991;;773.0
978.0;832.4;;;;;;;;;;;;;;0.88485366;0.64497817;-0.2717368;;;;;773.0
978.0;832.4;;;;;;;;;;;;;;;;;18.414106;-2.643666;24.880215;;773.0
978.0;832.4;;;;;;;;;;;;;;0.87777334;0.593585;-0.24317148;;;;;773.0
980.0;923.9;;;;;;;;;;;;;;;;;10.513627;-0.038148135;23.400066;;782.6
980.0;923.9;;;;;;;;;;;;;;0.84414196;0.5436567;-0.237434;;;;;782.6
980.0;923.9;;;;;;;;;;;;;;;;;3.9407024;1.6708884;22.907955;;782.6
980.0;923.9;;;;;;;;;;;;;;0.81588185;0.49616992;-0.2544023;;;;;782.6
980.0;923.9;;;;;;;;;;;;;;;;;-1.842555;2.1591845;24.018068;;792.3
980.0;923.9;;;;;;;;;;;;;;0.80361336;0.44428846;-0.27265236;;;;;792.3
980.0;923.9;;;;;;;;;;;;;;;;;-6.7941833;0.9765923;26.753288;;792.3
980.0;923.9;;;;;;;;;;;;;;0.816126;0.36152226;-0.29071933;;;;;792.3
980.0;923.9;;;;;;;;;;;;;;;;;-8.625294;-0.7667776;30.377361;;801.9
980.0;923.9;;;;;;;;;;;;;;0.8575701;0.26239815;-0.316599;;;;;801.9
980.0;923.9;;;;;;;;;;;;;;;;;-7.0764794;-0.6599628;33.8641;;801.9
980.0;923.9;;;;;;;;;;;;;;0.85116124;0.19574572;-0.31006807;;;;;801.9
980.0;925.1;;;;;;;;;;;;;;;;;-3.6812954;-1.3618885;37.003693;;811.5
980.0;925.1;;;;;;;;;;;;;;0.87228006;0.15497299;-0.32312998;;;;;811.5
980.0;925.1;;;;;;;;;;;;;;;;;0.9460738;-1.2512589;39.59395;;811.5
980.0;925.1;;;;;;;;;;;;;;0.85927916;0.103946045;-0.34363842;;;;;811.5
980.0;925.1;;;;;;;;;;;;;;;;;6.000702;-1.7281106;42.413097;;821.1
980.0;925.1;;;;;;;;;;;;;;0.84865874;0.05957213;-0.3444319;;;;;821.1
980.0;925.1;;;;;;;;;;;;;;;;;10.658589;-2.9602954;45.30854;;821.1
980.0;925.1;;;;;;;;;;;;;;0.863979;0.0270394;-0.34504226;;;;;821.1
980.0;925.1;;;;;;;;;;;;;;;;;15.270699;-3.4867396;47.60506;;830.7
980.0;925.1;;;;;;;;;;;;;;0.8666036;-0.003906369;-0.34308907;;;;;830.7
980.0;925.1;;;;;;;;;;;;;;;;;20.80218;-4.0475173;49.28358;;830.7
980.0;925.1;;;;;;;;;;;;;;0.8880276;-0.02087466;-0.33991516;;;;;830.7
1005.0;925.8;;;;;;;;;;;;;;;;;26.95929;-3.5363324;50.115208;;840.3
1005.0;925.8;;;;;;;;;;;;;;0.8799707;-0.039246805;-0.33655813;;;;;840.3
1005.0;925.8;;;;;;;;;;;;;;;;;33.36436;-3.154851;50.04654;;840.3
1005.0;925.8;;;;;;;;;;;;;;0.8822291;-0.048280284;-0.32422864;;;;;840.3
1005.0;925.8;;;;;;;;;;;;;;;;;40.169987;-3.322703;49.18821;;849.9
1005.0;925.8;;;;;;;;;;;;;;0.8858913;-0.05139317;-0.31318095;;;;;849.9
1005.0;925.8;;;;;;;;;;;;;;;;;46.643726;-3.3684807;47.40669;;849.9
1005.0;925.8;;;;;;;;;;;;;;0.86471146;-0.024903104;-0.29706717;;;;;849.9
1005.0;925.8;;;;;;;;;;;;;;;;;52.52617;-4.234443;45.33143;;859.6
1005.0;925.8;;;;;;;;;;;;;;0.87081516;0.028565325;-0.2844325;;;;;859.6
1005.0;925.8;;;;;;;;;;;;;;;;;57.153538;-4.3908505;43.05399;;859.6
1005.0;925.8;;;;;;;;;;;;;;0.86861783;0.0860622;-0.27045503;;;;;859.6
1005.0;952.8;;;;;;;;;;;;;;;;;60.3885;-4.730369;40.620136;;869.2
1005.0;952.8;;;;;;;;;;;;;;0.8631245;0.11713004;-0.2544023;;;;;869.2
1005.0;952.8;;;;;;;;;;;;;;;;;63.02072;-5.33311;38.327435;;869.2
1005.0;952.8;;;;;;;;;;;;;;0.8681906;0.14514603;-0.25006866;;;;;869.2
1005.0;952.8;;;;;;;;;;;;;;;;;64.78698;-5.668813;36.35899;;878.9
1005.0;952.8;;;;;;;;;;;;;;0.8766747;0.21570483;-0.24774925;;;;;878.9
1005.0;952.8;;;;;;;;;;;;;;;;;64.92813;-5.3178506;34.726246;;878.9
1005.0;952.8;;;;;;;;;;;;;;0.88369393;0.21814631;-0.24030274;;;;;878.9
1005.0;952.8;;;;;;;;;;;;;;;;;64.88617;-4.9783316;32.952362;;888.6
1005.0;952.8;;;;;;;;;;;;;;0.8946196;0.25543994;-0.24591815;;;;;888.6
1005.0;952.8;;;;;;;;;;;;;;;;;63.745537;-3.9483323;31.63625;;888.6
1005.0;952.8;;;;;;;;;;;;;;0.90676594;0.29950866;-0.23102511;;;;;888.6
1064.0;953.7;;;;;;;;;;;;;;;;;61.16672;-3.0365918;30.575731;;898.3
1064.0;953.7;;;;;;;;;;;;;;0.91238135;0.30292672;-0.22779016;;;;;898.3
1064.0;953.7;;;;;;;;;;;;;;;;;58.004242;-2.582629;29.721214;;898.3
1064.0;953.7;;;;;;;;;;;;;;0.9252602;0.33344522;-0.22034363;;;;;898.3
1064.0;953.7;;;;;;;;;;;;;;;;;53.811764;-1.8463699;28.977325;;907.6
1064.0;953.7;;;;;;;;;;;;;;0.92104864;0.33021027;-0.22107609;;;;;907.6
1064.0;953.7;;;;;;;;;;;;;;;;;50.195316;-1.2131108;27.535324;;907.6
1064.0;953.7;;;;;;;;;;;;;;0.91006196;0.32581562;-0.22211371;;;;;907.6
1064.0;953.7;;;;;;;;;;;;;;;;;46.548355;-0.839259;26.22303;;917.3
1064.0;953.7;;;;;;;;;;;;;;0.9106723;0.331431;-0.2200995;;;;;917.3
1064.0;953.7;;;;;;;;;;;;;;;;;42.49321;-0.22507401;24.99466;;917.3
1064.0;953.7;;;;;;;;;;;;;;0.88735616;0.32148197;-0.20954008;;;;;917.3
1064.0;983.1;;;;;;;;;;;;;;;;;38.296917;-0.24796289;24.159216;;927.0
1064.0;983.1;;;;;;;;;;;;;;0.87380594;0.30347607;-0.1953795;;;;;927.0
1064.0;983.1;;;;;;;;;;;;;;;;;34.302803;-0.40437025;23.895994;;927.0
1064.0;983.1;;;;;;;;;;;;;;0.87148654;0.28101444;-0.18872647;;;;;927.0
1064.0;983.1;;;;;;;;;;;;;;;;;30.903805;0.18692587;23.724327;;936.6
1064.0;983.1;;;;;;;;;;;;;;0.8667867;0.27802363;-0.17969298;;;;;936.6
1064.0;983.1;;;;;;;;;;;;;;;;;27.756584;0.73625904;23.804438;;936.6
1064.0;983.1;;;;;;;;;;;;;;0.8719138;0.2747276;-0.17670217;;;;;936.6
1064.0;983.1;;;;;;;;;;;;;;;;;24.88403;1.842555;24.010437;;946.2
1064.0;983.1;;;;;;;;;;;;;;0.87203586;0.28650776;-0.16479996;;;;;946.2
1064.0;983.1;;;;;;;;;;;;;;;;;22.30903;2.6131475;24.521624;;946.2
1064.0;983.1;;;;;;;;;;;;;;0.8655049;0.25959045;-0.17883846;;;;;946.2
1126.0;1013.5;;;;;;;;;;;;;;;;;20.844143;2.990814;24.407179;;955.8
1126.0;1013.5;;;;;;;;;;;;;;0.8651387;0.1980041;-0.18439284;;;;;955.8
1126.0;1013.5;;;;;;;;;;;;;;;;;20.474104;3.4371471;24.037142;;955.8
1126.0;1013.5;;;;;;;;;;;;;;0.8744774;0.19910276;-0.17426069;;;;;955.8
1126.0;1013.5;;;;;;;;;;;;;;;;;19.951475;4.203925;24.17066;;965.5
1126.0;1013.5;;;;;;;;;;;;;;0.87759024;0.18420972;-0.18439284;;;;;965.5
1126.0;1013.5;;;;;;;;;;;;;;;;;19.772179;4.8829613;24.105808;;965.5
1126.0;1013.5;;;;;;;;;;;;;;0.8832667;0.17474899;-0.18469802;;;;;965.5
1126.0;1013.5;;;;;;;;;;;;;;;;;19.779808;4.9592576;23.998993;;975.1
1126.0;1013.5;;;;;;;;;;;;;;0.8937651;0.17737357;-0.19013031;;;;;975.1
1126.0;1013.5;;;;;;;;;;;;;;;;;19.798882;5.264443;23.945585;;975.1
1126.0;1013.5;;;;;;;;;;;;;;0.9005402;0.17047639;-0.20563371;;;;;975.1
1126.0;1043.3;;;;;;;;;;;;;;;;;20.020142;5.558183;23.815882;;984.8
1126.0;1043.3;;;;;;;;;;;;;;0.9060335;0.17188025;-0.21143223;;;;;984.8
1126.0;1043.3;;;;;;;;;;;;;;;;;20.69155;5.386517;23.564104;;984.8
1126.0;1043.3;;;;;;;;;;;;;;0.92196417;0.15472884;-0.22461623;;;;;984.8
1126.0;1043.3;;;;;;;;;;;;;;;;;22.061068;5.489517;23.384808;;994.4
1126.0;1043.3;;;;;;;;;;;;;;0.9386273;0.15808588;-0.21790215;;;;;994.4
1126.0;1043.3;;;;;;;;;;;;;;;;;23.911253;5.0012207;23.182623;;994.4
1126.0;1043.3;;;;;;;;;;;;;;0.9538865;0.15204321;-0.21832941;;;;;994.4
1126.0;1043.3;;;;;;;;;;;;;;;;;25.864437;4.425184;22.850733;;1004.1
1126.0;1043.3;;;;;;;;;;;;;;0.97158724;0.15735343;-0.22876675;;;;;1004.1
1126.0;1043.3;;;;;;;;;;;;;;;;;27.83288;4.3069243;22.568438;;1004.1
1126.0;1043.3;;;;;;;;;;;;;;0.98623616;0.16803491;-0.2351146;;;;;1004.1
1201.0;1073.3;;;;;;;;;;;;;;;;;29.412214;4.5167394;22.392956;;1013.8
1201.0;1073.3;;;;;;;;;;;;;;0.999115;0.19251075;-0.23798333;;;;;1013.8
1201.0;1073.3;;;;;;;;;;;;;;;;;30.156101;5.054628;22.6104;;1013.8
1201.0;1073.3;;;;;;;;;;;;;;1.0052797;0.21149327;-0.23541978;;;;;1013.8
1201.0;1073.3;;;;;;;;;;;;;;;;;30.0531;5.813776;23.033844;;1023.3
1201.0;1073.3;;;;;;;;;;;;;;1.0038148;0.22528763;-0.22095402;;;;;1023.3
1201.0;1073.3;;;;;;;;;;;;;;;;;29.465622;6.111332;23.510696;;1023.3
1201.0;1073.3;;;;;;;;;;;;;;1.0033876;0.23364972;-0.21607105;;;;;1023.3
1201.0;1073.3;;;;;;;;;;;;;;;;;28.496658;6.492813;23.812067;;1032.9
1201.0;1073.3;;;;;;;;;;;;;;1.00235;0.25104526;-0.20996734;;;;;1032.9
1201.0;1073.3;;;;;;;;;;;;;;;;;26.932585;6.3859982;24.17829;;1032.9
1201.0;1073.3;;;;;;;;;;;;;;0.99679554;0.2664266;-0.20935698;;;;;1032.9
1201.0;1103.3;;;;;;;;;;;;;;;;;24.632254;6.309702;24.47203;;1042.6
1201.0;1103.3;;;;;;;;;;;;;;0.98904383;0.28394422;-0.21015045;;;;;1042.6
1201.0;1103.3;;;;;;;;;;;;;;;;;21.710106;6.122776;24.945066;;1042.6
1201.0;1103.3;;;;;;;;;;;;;;0.9922788;0.29621264;-0.20795313;;;;;1042.6
1201.0;1103.3;;;;;;;;;;;;;;;;;18.555254;5.7565536;25.688955;;1052.2
1201.0;1103.3;;;;;;;;;;;;;;1.0070498;0.30872524;-0.20838039;;;;;1052.2
1201.0;1103.3;;;;;;;;;;;;;;;;;14.866329;5.794702;26.635029;;1052.2
1201.0;1103.3;;;;;;;;;;;;;;1.0165715;0.31611073;-0.19959106;;;;;1052.2
1201.0;1103.3;;;;;;;;;;;;;;;;;10.868404;5.2758875;27.787102;;1061.9
1201.0;1103.3;;;;;;;;;;;;;;1.0350658;0.3284402;-0.18353832;;;;;1061.9
1201.0;1103.3;;;;;;;;;;;;;;;;;6.366924;4.7837768;29.042177;;1061.9
1201.0;1103.3;;;;;;;;;;;;;;1.0475173;0.3360088;-0.16650899;;;;;1061.9
1203.0;1126.6;;;;0.0;0.0;0.0;;;;;;;;;;;;;;;
1203.0;1126.6;;;;-0.20111087;0.020149233;0.06330491;;;;;;;;;;;;;;;
1203.0;1126.6;;;;-1.0235177;-0.049205787;0.18368532;;;;;;;;;;;;;;;
1203.0;1126.6;;;;-1.1322786;-0.064876564;0.19775394;;;;;;;;;;;;;;;
1203.0;1126.6;;;;-1.1357843;-0.06557465;0.19980624;;;;;;;;;;;;;;;
1203.0;1133.9;;;;;;;;;;;;;;;;;1.7090366;4.3946652;30.339212;;1071.5
1203.0;1133.9;;;;;;;;;;;;;;1.0729698;0.33887753;-0.17047639;;;;;1071.5
1203.0;1133.9;;;;;;;;;;;;;;;;;-2.6779993;4.71511;31.4684;;1071.5
1203.0;1133.9;;;;;;;;;;;;;;1.083346;0.3324076;-0.17560351;;;;;1071.5
1203.0;1133.9;;;;;;;;;;;;;;;;;-6.1380353;5.062258;32.692955;;1081.1
1203.0;1133.9;;;;;;;;;;;;;;1.0975677;0.328135;-0.18097477;;;;;1081.1
1203.0;1133.9;;;;;;;;;;;;;;;;;-8.117924;5.2415543;33.673363;;1081.1
1203.0;1133.9;;;;;;;;;;;;;;1.1170995;0.3274636;-0.18854335;;;;;1081.1
1203.0;1133.9;;;;;;;;;;;;;;;;;-8.732108;5.821406;34.45158;;1090.7
1203.0;1133.9;;;;;;;;;;;;;;1.1337016;0.32239753;-0.19763787;;;;;1090.7
1203.0;1133.9;;;;;;;;;;;;;;;;;-8.831293;6.6263313;35.161137;;1090.7
1203.0;1133.9;;;;;;;;;;;;;;1.1437727;0.33088169;-0.20526749;;;;;1090.7
1214.0;1136.5;;;;-1.1394311;-0.06488801;0.20188525;;;;;;;;;;;;;;;
1214.0;1136.5;;;;-1.1439172;-0.06412507;0.20450595;;;;;;;;;;;;;;;
1214.0;1136.5;;;;-1.1491624;-0.06364823;0.20868686;;;;;;;;;;;;;;;
1214.0;1136.5;;;;-1.1552049;-0.063034065;0.21340182;;;;;;;;;;;;;;;
1214.0;1136.5;;;;-1.1613084;-0.0621605;0.21710208;;;;;;;;;;;;;;;
1214.0;1138.0;57381;57419;12295;;;;;;;;;;;;;;;;;;
1214.0;1146.4;;;;-1.1678277;-0.061988838;0.22088626;;;;;;;;;;;;;;;
1214.0;1146.4;;;;-1.174225;-0.061798103;0.22470859;;;;;;;;;;;;;;;
1214.0;1146.4;;;;-1.1786081;-0.06038285;0.22737506;;;;;;;;;;;;;;;
1214.0;1146.4;;;;-1.1805078;-0.05844117;0.2304993;;;;;;;;;;;;;;;
1214.0;1146.4;;;;-1.180298;-0.057575233;0.23252109;;;;;;;;;;;;;;;
1214.0;1156.5;;;;-1.1794549;-0.057514198;0.23427585;;;;;;;;;;;;;;;
1214.0;1156.5;;;;-1.1789781;-0.057529457;0.2366257;;;;;;;;;;;;;;;
1214.0;1156.5;;;;-1.1779557;-0.057975776;0.2392998;;;;;;;;;;;;;;;
1214.0;1156.5;;;;-1.1769677;-0.05785752;0.24182513;;;;;;;;;;;;;;;
1214.0;1156.5;;;;-1.1753923;-0.05793763;0.24443057;;;;;;;;;;;;;;;
1214.0;1158.1;73787;73795;12297;;;;;;;;;;;;;;;;;;
1243.0;1163.4;;;;;;;;;;;;;;;;;-9.00296;7.7478867;35.737175;;1100.4
1243.0;1163.4;;;;;;;;;;;;;;1.1362652;0.32905057;-0.2080752;;;;;1100.4
1243.0;1163.4;;;;;;;;;;;;;;;;;-9.1975155;8.243813;36.156803;;1100.4
1243.0;1163.4;;;;;;;;;;;;;;1.1390729;0.32520524;-0.21326335;;;;;1100.4
1243.0;1163.4;;;;;;;;;;;;;;;;;-9.491257;8.915219;36.12247;;1110.0
1243.0;1163.4;;;;;;;;;;;;;;1.1257057;0.31495103;-0.21283609;;;;;1110.0
1243.0;1163.4;;;;;;;;;;;;;;;;;-9.781182;9.166997;35.786766;;1110.0
1243.0;1163.4;;;;;;;;;;;;;;1.1163671;0.30378124;-0.2075869;;;;;1110.0
1243.0;1163.4;;;;;;;;;;;;;;;;;-10.139774;9.277627;35.370953;;1119.6
1243.0;1163.4;;;;;;;;;;;;;;1.1025727;0.29706717;-0.19611195;;;;;1119.6
1243.0;1163.4;;;;;;;;;;;;;;;;;-10.406812;9.01822;34.920803;;1119.6
1243.0;1163.4;;;;;;;;;;;;;;1.1001923;0.29309976;-0.18695639;;;;;1119.6
1243.0;1164.1;;;;;;;;;;;;;0;;;;;;;;
1243.0;1164.1;;;;;;;;;;;;;0;;;;;;;;
1243.0;1164.1;;;;;;;;;;;;;-1;;;;;;;;
1243.0;1164.1;;;;;;;;;;;;;-3;;;;;;;;
1243.0;1164.1;;;;;;;;;;;;;-6;;;;;;;;
1243.0;1166.4;;;;-1.172619;-0.057041176;0.24745944;;;;;;;;;;;;;;;
1243.0;1166.4;;;;-1.1698304;-0.055816658;0.24938586;;;;;;;;;;;;;;;
1243.0;1166.4;;;;-1.166401;-0.05465699;0.2507973;;;;;;;;;;;;;;;
1243.0;1166.4;;;;-1.1634904;-0.053192146;0.2536507;;;;;;;;;;;;;;;
1243.0;1166.4;;;;-1.1631128;-0.05218125;0.25875095;;;;;;;;;;;;;;;
1244.0;1176.3;;;;-1.1629678;-0.050479896;0.26196674;;;;;;;;;;;;;;;
1244.0;1176.3;;;;-1.1637918;-0.048194893;0.26373675;;;;;;;;;;;;;;;
1244.0;1176.3;;;;-1.1657945;-0.046443943;0.26518634;;;;;;;;;;;;;;;
1244.0;1176.3;;;;-1.1701089;-0.04579163;0.26602557;;;;;;;;;;;;;;;
1244.0;1176.3;;;;-1.1747438;-0.043430332;0.2675667;;;;;;;;;;;;;;;
1244.0;1177.9;90294;90221;12289;;;;;;;;;;;;;;;;;;
1244.0;1186.4;;;;-1.1795617;-0.042369846;0.26863864;;;;;;;;;;;;;;;
1244.0;1186.4;;;;-1.1864816;-0.04108048;0.26968005;;;;;;;;;;;;;;;
1244.0;1186.4;;;;-1.1927987;-0.03986359;0.27125552;;;;;;;;;;;;;;;
1244.0;1186.4;;;;-1.1970598;-0.03803635;0.27318195;;;;;;;;;;;;;;;
1244.0;1186.4;;;;-1.2027856;-0.03681946;0.27274707;;;;;;;;;;;;;;;
1244.0;1193.5;;;;;;;;;;;;;;;;;-11.070589;8.716849;34.295174;;1129.3
1244.0;1193.5;;;;;;;;;;;;;;1.1109347;0.28833887;-0.18512528;;;;;1129.3
1244.0;1193.5;;;;;;;;;;;;;;;;;-12.096774;8.537553;33.597065;;1129.3
1244.0;1193.5;;;;;;;;;;;;;;1.121128;0.29126865;-0.1853084;;;;;1129.3
1244.0;1193.5;;;;;;;;;;;;;;;;;-13.5883665;8.308664;32.818844;;1138.9
1244.0;1193.5;;;;;;;;;;;;;;1.1383404;0.2847377;-0.17633595;;;;;1138.9
1244.0;1193.5;;;;;;;;;;;;;;;;;-15.194403;8.217109;31.888027;;1138.9
1244.0;1193.5;;;;;;;;;;;;;;1.1634266;0.27863398;-0.17700736;;;;;1138.9
1244.0;1193.5;;;;;;;;;;;;;;;;;-16.636404;8.545182;30.831324;;1148.5
1244.0;1193.5;;;;;;;;;;;;;;1.1866207;0.2649617;-0.17285684;;;;;1148.5
1244.0;1193.5;;;;;;;;;;;;;;;;;-17.612995;9.01822;29.625843;;1148.5
1244.0;1193.5;;;;;;;;;;;;;;1.205176;0.23804438;-0.17151402;;;;;1148.5
1275.0;1196.4;;;;-1.2098161;-0.035991672;0.27199557;;;;;;;;;;;;;;;
1275.0;1196.4;;;;-1.2149125;-0.03370667;0.27329257;;;;;;;;;;;;;;;
1275.0;1196.4;;;;-1.2220308;-0.03130341;0.27383426;;;;;;;;;;;;;;;
1275.0;1196.4;;;;-1.2306596;-0.028923038;0.27474597;;;;;;;;;;;;;;;
1275.0;1196.4;;;;-1.2380906;-0.026271824;0.27442172;;;;;;;;;;;;;;;
1275.0;1198.1;106646;106619;12274;;;;;;;;;;;;;;;;;;
1275.0;1204.3;;;;;;;;;;;;;13;;;;;;;;
1275.0;1204.3;;;;;;;;;;;;;-24;;;;;;;;
1275.0;1204.3;;;;;;;;;;;;;-54;;;;;;;;
1275.0;1204.3;;;;;;;;;;;;;98;;;;;;;;
1275.0;1204.3;;;;;;;;;;;;;-31;;;;;;;;
1275.0;1206.3;;;;-1.2445718;-0.021789553;0.27497867;;;;;;;;;;;;;;;
1275.0;1206.3;;;;-1.2516252;-0.017253878;0.27566913;;;;;;;;;;;;;;;
1275.0;1206.3;;;;-1.2596208;-0.014343264;0.27642062;;;;;;;;;;;;;;;
1275.0;1206.3;;;;-1.264866;-0.009925843;0.27590564;;;;;;;;;;;;;;;
1275.0;1206.3;;;;-1.2681199;-0.0047988896;0.27585605;;;;;;;;;;;;;;;
1275.0;1216.4;;;;-1.2740136;-0.0012397767;0.27451327;;;;;;;;;;;;;;;
1275.0;1216.4;;;;-1.2803193;0.0020675662;0.2736626;;;;;;;;;;;;;;;
1275.0;1216.4;;;;-1.2823831;0.0048637395;0.27095035;;;;;;;;;;;;;;;
1275.0;1216.4;;;;-1.2846643;0.008693696;0.26916888;;;;;;;;;;;;;;;
1275.0;1216.4;;;;-1.2874871;0.012508394;0.2672005;;;;;;;;;;;;;;;
1275.0;1218.1;123053;123048;12300;;;;;;;;;;;;;;;;;;
1305.0;1223.4;;;;;;;;;;;;;;;;;-17.723623;9.777367;28.157139;;1158.1
1305.0;1223.4;;;;;;;;;;;;;;1.2324595;0.19873653;-0.18317209;;;;;1158.1
1305.0;1223.4;;;;;;;;;;;;;;;;;-16.659292;11.722922;26.139103;;1158.1
1305.0;1223.4;;;;;;;;;;;;;;1.240028;0.17932676;-0.18695639;;;;;1158.1
1305.0;1223.4;;;;;;;;;;;;;;;;;-14.915922;13.6379595;23.75866;;1167.8
1305.0;1223.4;;;;;;;;;;;;;;1.2546159;0.1610767;-0.2024598;;;;;1167.8
1305.0;1223.4;;;;;;;;;;;;;;;;;-12.3867;15.888699;20.725883;;1167.8
1305.0;1223.4;;;;;;;;;;;;;;1.2567523;0.15149388;-0.22095402;;;;;1167.8
1305.0;1223.4;;;;;;;;;;;;;;;;;-9.4073305;18.150883;16.82333;;1177.4
1305.0;1223.4;;;;;;;;;;;;;;1.2616352;0.1342204;-0.24335459;;;;;1177.4
1305.0;1223.4;;;;;;;;;;;;;;;;;-6.004517;20.111698;11.959441;;1177.4
1305.0;1223.4;;;;;;;;;;;;;;1.2768334;0.131901;-0.26996672;;;;;1177.4
1305.0;1226.3;;;;-1.2900697;0.015224459;0.265152;;;;;;;;;;;;;;;
1305.0;1226.3;;;;-1.2942964;0.020893099;0.26295093;;;;;;;;;;;;;;;
1305.0;1226.3;;;;-1.3007737;0.025428776;0.2610741;;;;;;;;;;;;;;;
1305.0;1226.3;;;;-1.3037797;0.03200913;0.25807956;;;;;;;;;;;;;;;
1305.0;1226.3;;;;-1.3015023;0.037284855;0.25372317;;;;;;;;;;;;;;;
1305.0;1236.3;;;;-1.3007966;0.040557865;0.251442;;;;;;;;;;;;;;;
1305.0;1236.3;;;;-1.2991334;0.042858128;0.24926761;;;;;;;;;;;;;;;
1305.0;1236.3;;;;-1.2996713;0.04690171;0.24762347;;;;;;;;;;;;;;;
1305.0;1236.3;;;;-1.2998124;0.051162727;0.24577335;;;;;;;;;;;;;;;
1305.0;1236.3;;;;-1.2982713;0.056610115;0.24345401;;;;;;;;;;;;;;;
1305.0;1238.0;139339;139431;12306;;;;;;;;;;;;;;;;;;
1309.0;1244.2;;;;;;;;;;;;;188;;;;;;;;
1309.0;1244.2;;;;;;;;;;;;;199;;;;;;;;
1309.0;1244.2;;;;;;;;;;;;;-297;;;;;;;;
1309.0;1244.2;;;;;;;;;;;;;1309;;;;;;;;
1309.0;1244.2;;;;;;;;;;;;;-314;;;;;;;;
1309.0;1246.4;;;;-1.2980195;0.060913093;0.24102405;;;;;;;;;;;;;;;
1309.0;1246.4;;;;-1.2943307;0.06622315;0.23938373;;;;;;;;;;;;;;;
1309.0;1246.4;;;;-1.2842675;0.07175065;0.2377396;;;;;;;;;;;;;;;
1309.0;1246.4;;;;-1.2738916;0.07715989;0.23692706;;;;;;;;;;;;;;;
1309.0;1246.4;;;;-1.2667428;0.08205796;0.23470691;;;;;;;;;;;;;;;
1309.0;1253.5;;;;;;;;;;;;;;;;;-2.6055179;22.869808;6.363109;;1187.0
1309.0;1253.5;;;;;;;;;;;;;;1.2946562;0.14026307;-0.29554126;;;;;1187.0
1309.0;1253.5;;;;;;;;;;;;;;;;;0.90029603;26.30314;0.26322216;;1187.0
1309.0;1253.5;;;;;;;;;;;;;;1.309183;0.14557329;-0.30842006;;;;;1187.0
1309.0;1253.5;;;;;;;;;;;;;;;;;3.9559617;30.743584;-6.0998874;;1196.7
1309.0;1253.5;;;;;;;;;;;;;;1.3119297;0.13934751;-0.29517502;;;;;1196.7
1309.0;1253.5;;;;;;;;;;;;;;;;;6.801813;35.56932;-12.131108;;1196.7
1309.0;1253.5;;;;;;;;;;;;;;1.2831202;0.121768855;-0.2652669;;;;;1196.7
1309.0;1253.5;;;;;;;;;;;;;;;;;9.331035;40.421764;-17.212439;;1206.3
1309.0;1253.5;;;;;;;;;;;;;;1.2341075;0.08575701;-0.21320231;;;;;1206.3
1309.0;1253.5;;;;;;;;;;;;;;;;;11.783959;43.607136;-21.778772;;1206.3
1309.0;1253.5;;;;;;;;;;;;;;1.1944335;0.055238504;-0.16510513;;;;;1206.3
1331.0;1256.3;;;;-1.2595865;0.088737495;0.23335269;;;;;;;;;;;;;;;
1331.0;1256.3;;;;-1.246956;0.09497835;0.23126224;;;;;;;;;;;;;;;
1331.0;1256.3;;;;-1.2377969;0.09794618;0.22988513;;;;;;;;;;;;;;;
1331.0;1256.3;;;;-1.225998;0.10303499;0.2303696;;;;;;;;;;;;;;;
1331.0;1256.3;;;;-1.2122346;0.10760118;0.22937015;;;;;;;;;;;;;;;
1331.0;1258.1;155849;155890;12322;;;;;;;;;;;;;;;;;;
1331.0;1266.2;;;;-1.2046319;0.11248399;0.22687915;;;;;;;;;;;;;;;
1331.0;1266.2;;;;-1.1906434;0.11796953;0.22484973;;;;;;;;;;;;;;;
1331.0;1266.2;;;;-1.1760713;0.1213112;0.22265247;;;;;;;;;;;;;;;
1331.0;1266.2;;;;-1.1676065;0.12319566;0.22053912;;;;;;;;;;;;;;;
1331.0;1266.2;;;;-1.1664201;0.1278496;0.21855167;;;;;;;;;;;;;;;
1331.0;1276.3;;;;-1.167862;0.13288118;0.2154465;;;;;;;;;;;;;;;
1331.0;1276.3;;;;-1.1616021;0.13541795;0.21452716;;;;;;;;;;;;;;;
1331.0;1276.3;;;;-1.1539613;0.13500978;0.21418384;;;;;;;;;;;;;;;
1331.0;1276.3;;;;-1.1459771;0.13410188;0.21294788;;;;;;;;;;;;;;;
1331.0;1276.3;;;;-1.1430475;0.13285066;0.2123299;;;;;;;;;;;;;;;
1331.0;1278.2;172187;172192;12325;;;;;;;;;;;;;;;;;;
1364.0;1284.0;;;;;;;;;;;;;;;;;13.824884;45.636616;-26.64266;;1215.9
1364.0;1284.0;;;;;;;;;;;;;;1.1457869;0.026917325;-0.10956145;;;;;1215.9
1364.0;1284.0;;;;;;;;;;;;;;;;;16.056551;46.47206;-32.132175;;1215.9
1364.0;1284.0;;;;;;;;;;;;;;1.0976287;0.009643849;-0.050965913;;;;;1215.9
1364.0;1284.0;;;;;;;;;;;;;;;;;18.650625;45.91891;-37.88873;;1225.6
1364.0;1284.0;;;;;;;;;;;;;;1.0669881;0.010376293;-0.0050050355;;;;;1225.6
1364.0;1284.0;;;;;;;;;;;;;;;;;21.40492;44.511246;-43.90088;;1225.6
1364.0;1284.0;;;;;;;;;;;;;;1.0466628;0.013550218;0.041444138;;;;;1225.6
1364.0;1284.0;;;;;;;;;;;;;;;;;24.094364;42.31773;-50.218204;;1235.1
1364.0;1284.0;;;;;;;;;;;;;;1.0578936;0.032837916;0.07245094;;;;;1235.1
1364.0;1284.0;;;;;;;;;;;;;;;;;26.314585;40.448467;-56.428722;;1235.1
1364.0;1284.0;;;;;;;;;;;;;;1.0946989;0.074892424;0.097598195;;;;;1235.1
1364.0;1284.3;;;;;;;;;;;;;-4578;;;;;;;;
1364.0;1284.3;;;;;;;;;;;;;1434;;;;;;;;
1364.0;1284.3;;;;;;;;;;;;;9775;;;;;;;;
1364.0;1284.3;;;;;;;;;;;;;-4926;;;;;;;;
1364.0;1284.3;;;;;;;;;;;;;-48247;;;;;;;;
1364.0;1286.3;;;;-1.1440278;0.13248064;0.2116051;;;;;;;;;;;;;;;
1364.0;1286.3;;;;-1.1445047;0.13237382;0.2099686;;;;;;;;;;;;;;;
1364.0;1286.3;;;;-1.1458741;0.13285829;0.20761493;;;;;;;;;;;;;;;
1364.0;1286.3;;;;-1.1528207;0.13476945;0.20561984;;;;;;;;;;;;;;;
1364.0;1286.3;;;;-1.1575242;0.13711168;0.20406726;;;;;;;;;;;;;;;
1365.0;1296.3;;;;-1.1574708;0.13956453;0.20239261;;;;;;;;;;;;;;;
1365.0;1296.3;;;;-1.1573335;0.13828279;0.19997409;;;;;;;;;;;;;;;
1365.0;1296.3;;;;-1.1633149;0.14051439;0.19729236;;;;;;;;;;;;;;;
1365.0;1296.3;;;;-1.1749002;0.14208223;0.19445041;;;;;;;;;;;;;;;
1365.0;1296.3;;;;-1.1801606;0.14304735;0.19347003;;;;;;;;;;;;;;;
1365.0;1298.2;188540;188562;12323;;;;;;;;;;;;;;;;;;
1365.0;1306.4;;;;-1.1857148;0.14661027;0.192215;;;;;;;;;;;;;;;
1365.0;1306.4;;;;-1.1924783;0.14833833;0.19016269;;;;;;;;;;;;;;;
1365.0;1306.4;;;;-1.198105;0.15068819;0.18849567;;;;;;;;;;;;;;;
1365.0;1306.4;;;;-1.2035486;0.15423204;0.18585588;;;;;;;;;;;;;;;
1365.0;1306.4;;;;-1.2110673;0.15755464;0.18428041;;;;;;;;;;;;;;;
1365.0;1313.7;;;;;;;;;;;;;;;;;27.314068;40.23484;-62.25776;;1244.7
1365.0;1313.7;;;;;;;;;;;;;;1.147618;0.12286752;0.12939848;;;;;1244.7
1365.0;1313.7;;;;;;;;;;;;;;;;;26.284067;41.562393;-67.40776;;1244.7
1365.0;1313.7;;;;;;;;;;;;;;1.2194586;0.17004913;0.1507004;;;;;1244.7
1365.0;1313.7;;;;;;;;;;;;;;;;;23.22077;45.19028;-72.12286;;1254.3
1365.0;1313.7;;;;;;;;;;;;;;1.2624286;0.22553179;0.17590868;;;;;1254.3
1365.0;1313.7;;;;;;;;;;;;;;;;;19.28007;48.821987;-77.08213;;1254.3
1365.0;1313.7;;;;;;;;;;;;;;1.2635273;0.29377118;0.18140203;;;;;1254.3
1365.0;1313.7;;;;;;;;;;;;;;;;;16.052736;50.695057;-82.48772;;1264.0
1365.0;1313.7;;;;;;;;;;;;;;1.2298349;0.36872464;0.14508499;;;;;1264.0
1365.0;1313.7;;;;;;;;;;;;;;;;;14.145329;50.256355;-88.469345;;1264.0
1365.0;1313.7;;;;;;;;;;;;;;1.1843623;0.44190803;0.08661153;;;;;1264.0
1395.0;1316.3;;;;-1.2158586;0.15983202;0.1823311;;;;;;;;;;;;;;;
1395.0;1316.3;;;;-1.2183954;0.16159059;0.18042375;;;;;;;;;;;;;;;
1395.0;1316.3;;;;-1.2206575;0.16421892;0.17821123;;;;;;;;;;;;;;;
1395.0;1316.3;;;;-1.2227098;0.16851427;0.17679597;;;;;;;;;;;;;;;
1395.0;1316.3;;;;-1.2242204;0.17285539;0.17561723;;;;;;;;;;;;;;;
1395.0;1318.3;204975;205010;12322;;;;;;;;;;;;;;;;;;
1395.0;1324.3;;;;;;;;;;;;;-92192;;;;;;;;
1395.0;1324.3;;;;;;;;;;;;;-106092;;;;;;;;
1395.0;1324.3;;;;;;;;;;;;;-93059;;;;;;;;
1395.0;1324.3;;;;;;;;;;;;;-79664;;;;;;;;
1395.0;1324.3;;;;;;;;;;;;;-79787;;;;;;;;
1395.0;1326.3;;;;-1.2206498;0.17694856;0.17537309;;;;;;;;;;;;;;;
1395.0;1326.3;;;;-1.213482;0.1804886;0.1757126;;;;;;;;;;;;;;;
1395.0;1326.3;;;;-1.2038766;0.18294145;0.17614748;;;;;;;;;;;;;;;
1395.0;1326.3;;;;-1.1952096;0.18505861;0.17623521;;;;;;;;;;;;;;;
1395.0;1326.3;;;;-1.1878091;0.18665315;0.1765175;;;;;;;;;;;;;;;
1395.0;1336.3;;;;-1.182911;0.19046786;0.1776848;;;;;;;;;;;;;;;
1395.0;1336.3;;;;-1.1743051;0.1931229;0.17871858;;;;;;;;;;;;;;;
1395.0;1336.3;;;;-1.1608392;0.19264224;0.18117906;;;;;;;;;;;;;;;
1395.0;1336.3;;;;-1.146576;0.19288257;0.18368913;;;;;;;;;;;;;;;
1395.0;1336.3;;;;-1.1316034;0.19142917;0.18602754;;;;;;;;;;;;;;;
1395.0;1338.3;221404;221293;12342;;;;;;;;;;;;;;;;;;
1433.0;1343.7;;;;;;;;;;;;;;;;;13.340404;47.78817;-94.38231;;1273.7
1433.0;1343.7;;;;;;;;;;;;;;1.1321757;0.5030061;0.010071108;;;;;1273.7
1433.0;1343.7;;;;;;;;;;;;;;;;;13.237404;43.5461;-100.4593;;1273.7
1433.0;1343.7;;;;;;;;;;;;;;1.0694296;0.5373089;-0.06915494;;;;;1273.7
1433.0;1343.7;;;;;;;;;;;;;;;;;11.734367;37.091434;-105.69323;;1283.2
1433.0;1343.7;;;;;;;;;;;;;;1.0381787;0.52937406;-0.14947966;;;;;1283.2
1433.0;1343.7;;;;;;;;;;;;;;;;;7.0497756;30.293434;-109.01975;;1283.2
1433.0;1343.7;;;;;;;;;;;;;;1.0307932;0.5014191;-0.21015045;;;;;1283.2
1433.0;1343.7;;;;;;;;;;;;;;;;;-1.106296;25.379955;-110.42359;;1292.8
1433.0;1343.7;;;;;;;;;;;;;;1.0410475;0.45545822;-0.23810542;;;;;1292.8
1433.0;1343.7;;;;;;;;;;;;;;;;;-11.093478;22.839289;-110.042114;;1292.8
1433.0;1343.7;;;;;;;;;;;;;;1.0744346;0.4102298;-0.22998749;;;;;1292.8
1433.0;1346.3;;;;-1.1174394;0.1899567;0.18939593;;;;;;;;;;;;;;;
1433.0;1346.3;;;;-1.1028138;0.18765643;0.19402698;;;;;;;;;;;;;;;
1433.0;1346.3;;;;-1.0875131;0.18541338;0.198288;;;;;;;;;;;;;;;
1433.0;1346.3;;;;-1.07082;0.18207552;0.20365527;;;;;;;;;;;;;;;
1433.0;1346.3;;;;-1.0551339;0.18041612;0.20800784;;;;;;;;;;;;;;;
1433.0;1356.4;;;;-1.0424958;0.1787758;0.21170428;;;;;;;;;;;;;;;
1433.0;1356.4;;;;-1.0312043;0.17689897;0.21509555;;;;;;;;;;;;;;;
1433.0;1356.4;;;;-1.0224534;0.17626573;0.21862033;;;;;;;;;;;;;;;
1433.0;1356.4;;;;-1.0148469;0.17617036;0.22119525;;;;;;;;;;;;;;;
1433.0;1356.4;;;;-1.0068704;0.17621233;0.22354892;;;;;;;;;;;;;;;
1433.0;1358.4;237646;237696;12350;;;;;;;;;;;;;;;;;;
1434.0;1364.6;;;;;;;;;;;;;-81104;;;;;;;;
1434.0;1364.6;;;;;;;;;;;;;-76372;;;;;;;;
1434.0;1364.6;;;;;;;;;;;;;-72957;;;;;;;;
1434.0;1364.6;;;;;;;;;;;;;-70077;;;;;;;;
1434.0;1364.6;;;;;;;;;;;;;-66192;;;;;;;;
1434.0;1366.5;;;;-0.9999124;0.17649843;0.2246323;;;;;;;;;;;;;;;
1434.0;1366.5;;;;-0.99359524;0.17466356;0.22632983;;;;;;;;;;;;;;;
1434.0;1366.5;;;;-0.98672116;0.17261125;0.22741702;;;;;;;;;;;;;;;
1434.0;1366.5;;;;-0.9801141;0.17012407;0.22745898;;;;;;;;;;;;;;;
1434.0;1366.5;;;;-0.97425854;0.16679384;0.22778323;;;;;;;;;;;;;;;
1434.0;1373.8;;;;;;;;;;;;;;;;;-21.050142;23.884548;-108.99686;;1302.5
1434.0;1373.8;;;;;;;;;;;;;;1.1021454;0.35737175;-0.19635609;;;;;1302.5
1434.0;1373.8;;;;;;;;;;;;;;;;;-27.439955;26.173437;-108.512375;;1302.5
1434.0;1373.8;;;;;;;;;;;;;;1.1048921;0.324778;-0.1530198;;;;;1302.5
1434.0;1373.8;;;;;;;;;;;;;;;;;-29.698326;27.558214;-108.98923;;1312.1
1434.0;1373.8;;;;;;;;;;;;;;1.0918913;0.3157445;-0.13245033;;;;;1312.1
1434.0;1373.8;;;;;;;;;;;;;;;;;-28.050325;25.807215;-110.39689;;1312.1
1434.0;1373.8;;;;;;;;;;;;;;1.103061;0.3177587;-0.14557329;;;;;1312.1
1434.0;1373.8;;;;;;;;;;;;;;;;;-23.63277;23.3314;-111.73971;;1321.6
1434.0;1373.8;;;;;;;;;;;;;;1.1286966;0.3081149;-0.15869625;;;;;1321.6
1434.0;1373.8;;;;;;;;;;;;;;;;;-17.979218;21.774958;-113.44112;;1321.6
1434.0;1373.8;;;;;;;;;;;;;;1.1495712;0.3014008;-0.16113773;;;;;1321.6
1457.0;1376.4;;;;-0.96676266;0.16319658;0.22797015;;;;;;;;;;;;;;;
1457.0;1376.4;;;;-0.95716107;0.16007616;0.22742847;;;;;;;;;;;;;;;
1457.0;1376.4;;;;-0.94528973;0.15717699;0.22655109;;;;;;;;;;;;;;;
1457.0;1376.4;;;;-0.93615735;0.15417863;0.22509387;;;;;;;;;;;;;;;
1457.0;1376.4;;;;-0.92894375;0.15075685;0.22333911;;;;;;;;;;;;;;;
1457.0;1378.5;254130;254043;12357;;;;;;;;;;;;;;;;;;
1457.0;1386.4;;;;-0.9222642;0.1477852;0.22145846;;;;;;;;;;;;;;;
1457.0;1386.4;;;;-0.9174501;0.14478303;0.21913531;;;;;;;;;;;;;;;
1457.0;1386.4;;;;-0.91023266;0.14232256;0.21711734;;;;;;;;;;;;;;;
1457.0;1386.4;;;;-0.90407956;0.13831331;0.2148247;;;;;;;;;;;;;;;
1457.0;1386.4;;;;-0.89519894;0.13447954;0.2121773;;;;;;;;;;;;;;;
1457.0;1396.4;;;;-0.8862039;0.1316414;0.20997241;;;;;;;;;;;;;;;
1457.0;1396.4;;;;-0.8813096;0.12733842;0.20664218;;;;;;;;;;;;;;;
1457.0;1396.4;;;;-0.8802682;0.121898666;0.20335773;;;;;;;;;;;;;;;
1457.0;1396.4;;;;-0.8803178;0.11848451;0.19944385;;;;;;;;;;;;;;;
1457.0;1396.4;;;;-0.8782159;0.11565782;0.19520953;;;;;;;;;;;;;;;
1457.0;1398.6;262143;262143;12354;;;;;;;;;;;;;;;;;;
1483.0;1404.3;;;;;;;;;;;;;;;;;-12.619404;19.505142;-114.35285;;1331.3
1483.0;1404.3;;;;;;;;;;;;;;1.1882076;0.29175696;-0.16943876;;;;;1331.3
1483.0;1404.3;;;;;;;;;;;;;;;;;-8.949553;16.312143;-113.49452;;1331.3
1483.0;1404.3;;;;;;;;;;;;;;1.2559588;0.2847377;-0.19196142;;;;;1331.3
1483.0;1404.3;;;;;;;;;;;;;;;;;-7.980591;15.816217;-111.59474;;1341.0
1483.0;1404.3;;;;;;;;;;;;;;1.2656636;0.28876615;-0.17969298;;;;;1341.0
1483.0;1404.3;;;;;;;;;;;;;;;;;-9.544664;16.392256;-110.07645;;1341.0
1483.0;1404.3;;;;;;;;;;;;;;1.2554704;0.25989562;-0.12225715;;;;;1341.0
1483.0;1404.3;;;;;;;;;;;;;;;;;-10.731071;16.850033;-108.52764;;1350.6
1483.0;1404.3;;;;;;;;;;;;;;1.2775048;0.21082187;-0.0778222;;;;;1350.6
1483.0;1404.3;;;;;;;;;;;;;;;;;-10.66622;20.023956;-107.92108;;1350.6
1483.0;1404.3;;;;;;;;;;;;;;1.271218;0.20056765;-0.050294504;;;;;1350.6
1483.0;1404.5;;;;;;;;;;;;;-62970;;;;;;;;
1483.0;1404.5;;;;;;;;;;;;;-59031;;;;;;;;
1483.0;1404.5;;;;;;;;;;;;;-54438;;;;;;;;
1483.0;1404.5;;;;;;;;;;;;;-49949;;;;;;;;
1483.0;1404.5;;;;;;;;;;;;;-45784;;;;;;;;
1483.0;1406.3;;;;-0.87410367;0.11162569;0.18929675;;;;;;;;;;;;;;;
1483.0;1406.3;;;;-0.87122357;0.10692598;0.18510439;;;;;;;;;;;;;;;
1483.0;1406.3;;;;-0.86800396;0.10232164;0.1819153;;;;;;;;;;;;;;;
1483.0;1406.3;;;;-0.86475384;0.09814836;0.17935182;;;;;;;;;;;;;;;
1483.0;1406.3;;;;-0.861107;0.093154915;0.17606355;;;;;;;;;;;;;;;
1485.0;1416.2;;;;-0.85657513;0.08832169;0.1736374;;;;;;;;;;;;;;;
1485.0;1416.2;;;;-0.85221493;0.08382035;0.17134477;;;;;;;;;;;;;;;
1485.0;1416.2;;;;-0.84970486;0.079486854;0.16968538;;;;;;;;;;;;;;;
1485.0;1416.2;;;;-0.84679043;0.07409287;0.1668358;;;;;;;;;;;;;;;
1485.0;1416.2;;;;-0.84261715;0.068710335;0.16361238;;;;;;;;;;;;;;;
1485.0;1418.4;262143;262143;12356;;;;;;;;;;;;;;;;;;
1485.0;1426.3;;;;-0.83864987;0.06372834;0.1614876;;;;;;;;;;;;;;;
1485.0;1426.3;;;;-0.83366406;0.058185585;0.15961458;;;;;;;;;;;;;;;
1485.0;1426.3;;;;-0.83059704;0.053703316;0.15643694;;;;;;;;;;;;;;;
1485.0;1426.3;;;;-0.8296281;0.04799653;0.15200426;;;;;;;;;;;;;;;
1485.0;1426.3;;;;-0.8283044;0.042728428;0.1481743;;;;;;;;;;;;;;;
1485.0;1433.8;;;;;;;;;;;;;;;;;-11.070589;24.182104;-107.882935;;1360.2
1485.0;1433.8;;;;;;;;;;;;;;1.2424695;0.15405744;-0.0021973327;;;;;1360.2
1485.0;1433.8;;;;;;;;;;;;;;;;;-10.711997;26.745659;-108.35597;;1360.2
1485.0;1433.8;;;;;;;;;;;;;;1.2197638;0.15802485;0.039246805;;;;;1360.2
1485.0;1433.8;;;;;;;;;;;;;;;;;-10.509811;28.103731;-108.718376;;1369.9
1485.0;1433.8;;;;;;;;;;;;;;1.1907102;0.17084262;0.07324442;;;;;1369.9
1485.0;1433.8;;;;;;;;;;;;;;;;;-10.795923;28.691214;-109.176155;;1369.9
1485.0;1433.8;;;;;;;;;;;;;;1.1620227;0.15387432;0.08856472;;;;;1369.9
1485.0;1433.8;;;;;;;;;;;;;;;;;-11.337626;28.912474;-109.24482;;1379.5
1485.0;1433.8;;;;;;;;;;;;;;1.1274759;0.17987609;0.1076693;;;;;1379.5
1485.0;1433.8;;;;;;;;;;;;;;;;;-12.066256;26.95929;-108.25678;;1379.5
1485.0;1433.8;;;;;;;;;;;;;;1.1316874;0.20288706;0.10260323;;;;;1379.5
1514.0;1436.2;;;;-0.82597363;0.03707886;0.1457863;;;;;;;;;;;;;;;
1514.0;1436.2;;;;-0.8229066;0.03289414;0.143528;;;;;;;;;;;;;;;
1514.0;1436.2;;;;-0.8191072;0.028362278;0.14216997;;;;;;;;;;;;;;;
1514.0;1436.2;;;;-0.81484234;0.02513123;0.14092638;;;;;;;;;;;;;;;
1514.0;1436.2;;;;-0.8132554;0.021995546;0.13973238;;;;;;;;;;;;;;;
1514.0;1438.5;262143;262143;12370;;;;;;;;;;;;;;;;;;
1514.0;1444.6;;;;;;;;;;;;;-42113;;;;;;;;
1514.0;1444.6;;;;;;;;;;;;;-39054;;;;;;;;
1514.0;1444.6;;;;;;;;;;;;;-36672;;;;;;;;
1514.0;1444.6;;;;;;;;;;;;;-34595;;;;;;;;
1514.0;1444.6;;;;;;;;;;;;;-32494;;;;;;;;
1514.0;1446.3;;;;-0.8148881;0.019275667;0.13893129;;;;;;;;;;;;;;;
1514.0;1446.3;;;;-0.8121911;0.01608658;0.13872148;;;;;;;;;;;;;;;
1514.0;1446.3;;;;-0.80651104;0.01395035;0.13714983;;;;;;;;;;;;;;;
1514.0;1446.3;;;;-0.8003541;0.010730744;0.13553621;;;;;;;;;;;;;;;
1514.0;1446.3;;;;-0.79348004;0.0065956125;0.1343651;;;;;;;;;;;;;;;
1514.0;1456.4;;;;-0.78736126;0.0039176946;0.13336183;;;;;;;;;;;;;;;
1514.0;1456.4;;;;-0.7822763;0.0010643007;0.13224413;;;;;;;;;;;;;;;
1514.0;1456.4;;;;-0.7753564;-0.0025558474;0.13124849;;;;;;;;;;;;;;;
1514.0;1456.4;;;;-0.7683946;-0.006675721;0.1301079;;;;;;;;;;;;;;;
1514.0;1456.4;;;;-0.7645799;-0.0103759775;0.12897493;;;;;;;;;;;;;;;
1514.0;1458.7;262143;262143;12365;;;;;;;;;;;;;;;;;;
1548.0;1464.0;;;;;;;;;;;;;;;;;-12.733848;26.123844;-106.90634;;1389.1
1548.0;1464.0;;;;;;;;;;;;;;1.1141087;0.18683432;0.081118196;;;;;1389.1
1548.0;1464.0;;;;;;;;;;;;;;;;;-12.955108;26.036104;-105.24308;;1389.1
1548.0;1464.0;;;;;;;;;;;;;;1.0809046;0.19476913;0.078554645;;;;;1389.1
1548.0;1464.0;;;;;;;;;;;;;;;;;-14.004181;25.601213;-102.89315;;1398.8
1548.0;1464.0;;;;;;;;;;;;;;1.0596637;0.2080752;0.079775386;;;;;1398.8
1548.0;1464.0;;;;;;;;;;;;;;;;;-14.969329;24.99466;-100.77593;;1398.8
1548.0;1464.0;;;;;;;;;;;;;;1.0428785;0.21320231;0.08398694;;;;;1398.8
1548.0;1464.0;;;;;;;;;;;;;;;;;-15.793329;24.094364;-98.92575;;1408.4
1548.0;1464.0;;;;;;;;;;;;;;1.0241401;0.2156438;0.08716086;;;;;1408.4
1548.0;1464.0;;;;;;;;;;;;;;;;;-16.07944;23.720512;-97.68212;;1408.4
1548.0;1464.0;;;;;;;;;;;;;;0.99923706;0.23328349;0.08575701;;;;;1408.4
1548.0;1466.3;;;;-0.76093304;-0.013538362;0.12850954;;;;;;;;;;;;;;;
1548.0;1466.3;;;;-0.75833523;-0.017192842;0.12705232;;;;;;;;;;;;;;;
1548.0;1466.3;;;;-0.75452435;-0.019977571;0.12684251;;;;;;;;;;;;;;;
1548.0;1466.3;;;;-0.74784094;-0.022853853;0.1262932;;;;;;;;;;;;;;;
1548.0;1466.3;;;;-0.73949057;-0.02506638;0.12681581;;;;;;;;;;;;;;;
1548.0;1476.3;;;;-0.73217016;-0.027019504;0.12738802;;;;;;;;;;;;;;;
1548.0;1476.3;;;;-0.7283593;-0.028980259;0.12669374;;;;;;;;;;;;;;;
1548.0;1476.3;;;;-0.7244492;-0.030155186;0.12669756;;;;;;;;;;;;;;;
1548.0;1476.3;;;;-0.72119147;-0.03199387;0.12666322;;;;;;;;;;;;;;;
1548.0;1476.3;;;;-0.71695334;-0.035083774;0.12615968;;;;;;;;;;;;;;;
1548.0;1478.6;262143;262143;12380;;;;;;;;;;;;;;;;;;
1575.0;1484.8;;;;;;;;;;;;;-30467;;;;;;;;
1575.0;1484.8;;;;;;;;;;;;;-28865;;;;;;;;
1575.0;1484.8;;;;;;;;;;;;;-27509;;;;;;;;
1575.0;1484.8;;;;;;;;;;;;;-25852;;;;;;;;
1575.0;1484.8;;;;;;;;;;;;;-23900;;;;;;;;
1575.0;1486.4;;;;-0.7127152;-0.037967686;0.12515642;;;;;;;;;;;;;;;
1575.0;1486.4;;;;-0.7096215;-0.040969852;0.1229973;;;;;;;;;;;;;;;
1575.0;1486.4;;;;-0.70753866;-0.043296818;0.121093765;;;;;;;;;;;;;;;
1575.0;1486.4;;;;-0.70561224;-0.0452652;0.11941911;;;;;;;;;;;;;;;
1575.0;1486.4;;;;-0.70164114;-0.046897896;0.11745073;;;;;;;;;;;;;;;
1575.0;1496.4;;;;-0.69865423;-0.049457557;0.11621858;;;;;;;;;;;;;;;
1575.0;1496.4;;;;-0.6962052;-0.051761635;0.11385347;;;;;;;;;;;;;;;
1575.0;1496.4;;;;-0.6942902;-0.05352021;0.1121216;;;;;;;;;;;;;;;
1575.0;1496.4;;;;-0.6934052;-0.054809578;0.10979463;;;;;;;;;;;;;;;
1575.0;1496.4;;;;-0.6927567;-0.0562172;0.108108535;;;;;;;;;;;;;;;
1575.0;1498.8;262143;262143;12366;;;;;;;;;;;;;;;;;;
1575.0;1506.4;;;;-0.6916657;-0.05779267;0.10717012;;;;;;;;;;;;;;;
1575.0;1506.4;;;;-0.69048697;-0.05993653;0.10471727;;;;;;;;;;;;;;;
1575.0;1506.4;;;;-0.68882376;-0.061420448;0.10437395;;;;;;;;;;;;;;;
1575.0;1506.4;;;;-0.68415076;-0.063488014;0.1018181;;;;;;;;;;;;;;;
1575.0;1506.4;;;;-0.6784783;-0.06653977;0.10007478;;;;;;;;;;;;;;;
1605.0;1516.5;;;;-0.6731034;-0.069198616;0.09832002;;;;;;;;;;;;;;;
1605.0;1516.5;;;;-0.6708756;-0.07202912;0.097152725;;;;;;;;;;;;;;;
1605.0;1516.5;;;;-0.667759;-0.07497788;0.09550859;;;;;;;;;;;;;;;
1605.0;1516.5;;;;-0.6650353;-0.07801057;0.09565355;;;;;;;;;;;;;;;
1605.0;1516.5;;;;-0.66367346;-0.08006287;0.09537126;;;;;;;;;;;;;;;
1605.0;1518.9;262143;262143;12383;;;;;;;;;;;;;;;;;;
1605.0;1525.0;;;;;;;;;;;;;-21924;;;;;;;;
1605.0;1525.0;;;;;;;;;;;;;-20074;;;;;;;;
1605.0;1525.0;;;;;;;;;;;;;-18394;;;;;;;;
1605.0;1525.0;;;;;;;;;;;;;-16980;;;;;;;;
1605.0;1525.0;;;;;;;;;;;;;-15826;;;;;;;;
1605.0;1526.6;;;;-0.66187674;-0.08291245;0.09434892;;;;;;;;;;;;;;;
1605.0;1526.6;;;;-0.66061026;-0.08566285;0.09348298;;;;;;;;;;;;;;;
1605.0;1526.6;;;;-0.6594315;-0.08859635;0.092651375;;;;;;;;;;;;;;;
1605.0;1526.6;;;;-0.6573792;-0.091148384;0.091514595;;;;;;;;;;;;;;;
1605.0;1526.6;;;;-0.65669256;-0.0934372;0.09095002;;;;;;;;;;;;;;;
1605.0;1536.4;;;;-0.6572419;-0.09537889;0.09098817;;;;;;;;;;;;;;;
1605.0;1536.4;;;;-0.6577721;-0.09798433;0.09092332;;;;;;;;;;;;;;;
1605.0;1536.4;;;;-0.65933996;-0.10047914;0.092464454;;;;;;;;;;;;;;;
1605.0;1536.4;;;;-0.66086966;-0.10210802;0.09336854;;;;;;;;;;;;;;;
1605.0;1536.4;;;;-0.66068274;-0.10430528;0.093479164;;;;;;;;;;;;;;;
1605.0;1538.9;262143;262143;12384;;;;;;;;;;;;;;;;;;
1607.0;1546.6;;;;-0.66019446;-0.10543062;0.09348679;;;;;;;;;;;;;;;
1607.0;1546.6;;;;-0.6595803;-0.10787965;0.09311677;;;;;;;;;;;;;;;
1607.0;1546.6;;;;-0.657837;-0.111007705;0.09308625;;;;;;;;;;;;;;;
1607.0;1546.6;;;;-0.6585923;-0.1133423;0.09313584;;;;;;;;;;;;;;;
1607.0;1546.6;;;;-0.65944296;-0.11532594;0.09206391;;;;;;;;;;;;;;;
1607.0;1554.4;;;;;;;;;;;;;;;;;-15.8276615;23.144474;-96.892456;;1418.0
1607.0;1554.4;;;;;;;;;;;;;;1.0110782;0.21839045;0.071657464;;;;;1418.0
1607.0;1554.4;;;;;;;;;;;;;;;;;-14.519181;24.204994;-95.86627;;1418.0
1607.0;1554.4;;;;;;;;;;;;;;1.0022889;0.22186956;0.07702872;;;;;1418.0
1607.0;1554.4;;;;;;;;;;;;;;;;;-14.5497;26.024658;-93.272194;;1427.6
1607.0;1554.4;;;;;;;;;;;;;;0.96121097;0.34852138;0.09765923;;;;;1427.6
1607.0;1554.4;;;;;;;;;;;;;;;;;-17.754143;26.020844;-90.006714;;1427.6
1607.0;1554.4;;;;;;;;;;;;;;0.9607837;0.34321114;0.078127384;;;;;1427.6
1607.0;1554.4;;;;;;;;;;;;;;;;;-21.263771;27.577288;-88.03446;;1437.3
1607.0;1554.4;;;;;;;;;;;;;;0.9308756;0.31617177;0.040833768;;;;;1437.3
1607.0;1554.4;;;;;;;;;;;;;;;;;-25.524918;29.866177;-86.29871;;1437.3
1607.0;1554.4;;;;;;;;;;;;;;0.90145576;0.2535478;0.03747673;;;;;1437.3
1608.0;1555.1;;;;;;;;;;;;;;;;;-28.809473;31.533249;-84.711754;;1446.9
1608.0;1555.1;;;;;;;;;;;;;;0.86141545;0.2146672;0.015869625;;;;;1446.9
1608.0;1555.1;;;;;;;;;;;;;;;;;-31.910915;31.670582;-83.62835;;1446.9
1608.0;1555.1;;;;;;;;;;;;;;0.8262581;0.23664053;-0.024658956;;;;;1446.9
1608.0;1555.1;;;;;;;;;;;;;;;;;-35.34425;30.545212;-82.26264;;1456.6
1608.0;1555.1;;;;;;;;;;;;;;0.82448804;0.27246925;-0.0629902;;;;;1456.6
1608.0;1555.1;;;;;;;;;;;;;;;;;-39.262062;30.098879;-80.77105;;1456.6
1608.0;1555.1;;;;;;;;;;;;;;0.8256478;0.29175696;-0.07940916;;;;;1456.6
1608.0;1555.1;;;;;;;;;;;;;;;;;-43.725395;30.629139;-79.138306;;1466.3
1608.0;1555.1;;;;;;;;;;;;;;0.81063265;0.33625293;-0.092043824;;;;;1466.3
1608.0;1555.1;;;;;;;;;;;;;;;;;-48.07047;30.81988;-77.53991;;1466.3
1608.0;1555.1;;;;;;;;;;;;;;0.7937864;0.32770777;-0.08825953;;;;;1466.3
1608.0;1556.0;;;;;;;;;;;;;;;;;-51.549576;30.674917;-76.49083;;1475.9
1608.0;1556.0;;;;;;;;;;;;;;0.80471206;0.37299722;-0.08239998;;;;;1475.9
1608.0;1556.0;;;;;;;;;;;;;;;;;-54.96002;31.838436;-75.93768;;1475.9
1608.0;1556.0;;;;;;;;;;;;;;0.7869503;0.37244788;-0.06781213;;;;;1475.9
1608.0;1556.0;;;;;;;;;;;;;;;;;-56.79876;32.433548;-76.24668;;1485.4
1608.0;1556.0;;;;;;;;;;;;;;0.7807245;0.37104404;-0.048524432;;;;;1485.4
1608.0;1556.0;;;;;;;;;;;;;;;;;-57.62276;32.776882;-76.96768;;1485.4
1608.0;1556.0;;;;;;;;;;;;;;0.7754143;0.34455398;-0.033753473;;;;;1485.4
1608.0;1556.0;;;;;;;;;;;;;;;;;-56.745354;33.50551;-77.44072;;1495.1
1608.0;1556.0;;;;;;;;;;;;;;0.77767265;0.32325205;-0.01843318;;;;;1495.1
1608.0;1556.0;;;;;;;;;;;;;;;;;-55.368206;35.355694;-78.279976;;1495.1
1608.0;1556.0;;;;;;;;;;;;;;0.7657094;0.3173925;-0.0027466659;;;;;1495.1
1634.0;1556.4;;;;-0.66050726;-0.1170273;0.090492256;;;;;;;;;;;;;;;
1634.0;1556.4;;;;-0.66395575;-0.11903764;0.08958817;;;;;;;;;;;;;;;
1634.0;1556.4;;;;-0.666977;-0.121589676;0.088485725;;;;;;;;;;;;;;;
1634.0;1556.4;;;;-0.6706391;-0.12371446;0.08858872;;;;;;;;;;;;;;;
1634.0;1556.4;;;;-0.6754952;-0.12508775;0.089687355;;;;;;;;;;;;;;;
1634.0;1559.0;262143;262143;12389;;;;;;;;;;;;;;;;;;
1634.0;1565.1;;;;;;;;;;;;;-14710;;;;;;;;
1634.0;1565.1;;;;;;;;;;;;;-13557;;;;;;;;
1634.0;1565.1;;;;;;;;;;;;;-12484;;;;;;;;
1634.0;1565.1;;;;;;;;;;;;;-11594;;;;;;;;
1634.0;1565.1;;;;;;;;;;;;;-10560;;;;;;;;
1634.0;1566.4;;;;-0.680317;-0.12626268;0.09046555;;;;;;;;;;;;;;;
1634.0;1566.4;;;;-0.6859742;-0.1283722;0.0905037;;;;;;;;;;;;;;;
1634.0;1566.4;;;;-0.6925011;-0.13030244;0.09067155;;;;;;;;;;;;;;;
1634.0;1566.4;;;;-0.6988793;-0.1311722;0.09241868;;;;;;;;;;;;;;;
1634.0;1566.4;;;;-0.70408636;-0.13251115;0.09346772;;;;;;;;;;;;;;;
1634.0;1576.3;;;;-0.7083588;-0.132782;0.0951729;;;;;;;;;;;;;;;
1634.0;1576.3;;;;-0.7108193;-0.1331978;0.096584335;;;;;;;;;;;;;;;
1634.0;1576.3;;;;-0.7130738;-0.13457109;0.09841539;;;;;;;;;;;;;;;
1634.0;1576.3;;;;-0.7156716;-0.13586809;0.10069658;;;;;;;;;;;;;;;
1634.0;1576.3;;;;-0.71825415;-0.13770296;0.10197069;;;;;;;;;;;;;;;
1634.0;1578.9;262143;262143;12395;;;;;;;;;;;;;;;;;;
1662.0;1584.2;;;;;;;;;;;;;;;;;-54.37254;35.81347;-78.2609;;1504.8
1662.0;1584.2;;;;;;;;;;;;;;0.7835322;0.3048799;0.012634663;;;;;1504.8
1662.0;1584.2;;;;;;;;;;;;;;;;;-53.426468;36.946472;-78.03583;;1504.8
1662.0;1584.2;;;;;;;;;;;;;;0.77840513;0.27265236;0.017334513;;;;;1504.8
1662.0;1584.2;;;;;;;;;;;;;;;;;-52.90765;37.99936;-77.730644;;1514.4
1662.0;1584.2;;;;;;;;;;;;;;0.74898523;0.2602008;0.037110507;;;;;1514.4
1662.0;1584.2;;;;;;;;;;;;;;;;;-52.74743;37.480545;-76.53279;;1514.4
1662.0;1584.2;;;;;;;;;;;;;;0.7620472;0.24256112;0.031983398;;;;;1514.4
1662.0;1584.2;;;;;;;;;;;;;;;;;-53.495132;38.94162;-74.842834;;1524.0
1662.0;1584.2;;;;;;;;;;;;;;0.7330546;0.23194067;0.031861324;;;;;1524.0
1662.0;1584.2;;;;;;;;;;;;;;;;;-55.703907;39.822838;-72.836235;;1524.0
1662.0;1584.2;;;;;;;;;;;;;;0.7080905;0.22986542;0.03155614;;;;;1524.0
1662.0;1586.3;;;;-0.7214394;-0.13993837;0.1035309;;;;;;;;;;;;;;;
1662.0;1586.3;;;;-0.7257729;-0.1430092;0.10683061;;;;;;;;;;;;;;;
1662.0;1586.3;;;;-0.7315598;-0.14627458;0.109172836;;;;;;;;;;;;;;;
1662.0;1586.3;;;;-0.73688513;-0.14947511;0.11192323;;;;;;;;;;;;;;;
1662.0;1586.3;;;;-0.741417;-0.15254594;0.11426927;;;;;;;;;;;;;;;
1662.0;1596.3;;;;-0.7455216;-0.15600587;0.11695482;;;;;;;;;;;;;;;
1662.0;1596.3;;;;-0.748581;-0.15924837;0.12033464;;;;;;;;;;;;;;;
1662.0;1596.3;;;;-0.7518426;-0.16109087;0.122985855;;;;;;;;;;;;;;;
1662.0;1596.3;;;;-0.7549783;-0.16370393;0.12569048;;;;;;;;;;;;;;;
1662.0;1596.3;;;;-0.75846875;-0.1659012;0.1295891;;;;;;;;;;;;;;;
1662.0;1599.0;262143;262143;12399;;;;;;;;;;;;;;;;;;
1676.0;1605.1;;;;;;;;;;;;;-9004;;;;;;;;
1676.0;1605.1;;;;;;;;;;;;;-7443;;;;;;;;
1676.0;1605.1;;;;;;;;;;;;;-6416;;;;;;;;
1676.0;1605.1;;;;;;;;;;;;;-5811;;;;;;;;
1676.0;1605.1;;;;;;;;;;;;;-5230;;;;;;;;
1676.0;1606.5;;;;-0.7609521;-0.1679535;0.13222505;;;;;;;;;;;;;;;
1676.0;1606.5;;;;-0.76506436;-0.16928102;0.134964;;;;;;;;;;;;;;;
1676.0;1606.5;;;;-0.7700883;-0.17121889;0.13713075;;;;;;;;;;;;;;;
1676.0;1606.5;;;;-0.7753488;-0.17265321;0.13952638;;;;;;;;;;;;;;;
1676.0;1606.5;;;;-0.78011715;-0.17397691;0.14204408;;;;;;;;;;;;;;;
1676.0;1614.4;;;;;;;;;;;;;;;;;-58.27128;39.853355;-70.364235;;1533.6
1676.0;1614.4;;;;;;;;;;;;;;0.69435716;0.20630513;0.024048585;;;;;1533.6
1676.0;1614.4;;;;;;;;;;;;;;;;;-59.83917;39.605392;-67.87316;;1533.6
1676.0;1614.4;;;;;;;;;;;;;;0.6798303;0.19757684;0.008484146;;;;;1533.6
1676.0;1614.4;;;;;;;;;;;;;;;;;-61.391796;39.647358;-65.13413;;1543.3
1676.0;1614.4;;;;;;;;;;;;;;0.6531571;0.19293801;0.006714072;;;;;1543.3
1676.0;1614.4;;;;;;;;;;;;;;;;;-63.02835;39.281136;-62.738426;;1543.3
1676.0;1614.4;;;;;;;;;;;;;;0.6313669;0.18536943;0.003051851;;;;;1543.3
1676.0;1614.4;;;;;;;;;;;;;;;;;-63.966797;38.71273;-60.35035;;1552.8
1676.0;1614.4;;;;;;;;;;;;;;0.61183506;0.18836024;0.014893033;;;;;1552.8
1676.0;1614.4;;;;;;;;;;;;;;;;;-65.019684;37.106693;-57.74102;;1552.8
1676.0;1614.4;;;;;;;;;;;;;;0.6071963;0.18842128;0.02496414;;;;;1552.8
1698.0;1616.4;;;;-0.78515255;-0.17572786;0.14484407;;;;;;;;;;;;;;;
1698.0;1616.4;;;;-0.7909967;-0.17668535;0.14918138;;;;;;;;;;;;;;;
1698.0;1616.4;;;;-0.7966958;-0.17631914;0.15244295;;;;;;;;;;;;;;;
1698.0;1616.4;;;;-0.800419;-0.17623521;0.15334703;;;;;;;;;;;;;;;
1698.0;1616.4;;;;-0.8031999;-0.17674638;0.15455247;;;;;;;;;;;;;;;
1698.0;1619.1;262143;262143;12412;;;;;;;;;;;;;;;;;;
1698.0;1626.4;;;;-0.80703366;-0.17808916;0.1558838;;;;;;;;;;;;;;;
1698.0;1626.4;;;;-0.8117486;-0.17946245;0.15763094;;;;;;;;;;;;;;;
1698.0;1626.4;;;;-0.8166276;-0.18163683;0.1588669;;;;;;;;;;;;;;;
1698.0;1626.4;;;;-0.8219682;-0.1840172;0.16056444;;;;;;;;;;;;;;;
1698.0;1626.4;;;;-0.82813275;-0.1867447;0.1625519;;;;;;;;;;;;;;;
1698.0;1636.4;;;;-0.8352243;-0.18966296;0.16423418;;;;;;;;;;;;;;;
1698.0;1636.4;;;;-0.8415605;-0.19231418;0.16632463;;;;;;;;;;;;;;;
1698.0;1636.4;;;;-0.846985;-0.1941643;0.16748811;;;;;;;;;;;;;;;
1698.0;1636.4;;;;-0.8531343;-0.19652942;0.16894151;;;;;;;;;;;;;;;
1698.0;1636.4;;;;-0.8582231;-0.19827273;0.17066194;;;;;;;;;;;;;;;
1698.0;1639.2;262143;262143;12407;;;;;;;;;;;;;;;;;;
1719.0;1644.5;;;;;;;;;;;;;;;;;-65.10743;35.260323;-55.398724;;1562.4
1719.0;1644.5;;;;;;;;;;;;;;0.58699304;0.16284677;0.029786065;;;;;1562.4
1719.0;1644.5;;;;;;;;;;;;;;;;;-63.77987;33.845028;-53.388317;;1562.4
1719.0;1644.5;;;;;;;;;;;;;;0.56398207;0.1693167;0.05304117;;;;;1562.4
1719.0;1644.5;;;;;;;;;;;;;;;;;-61.4185;31.727806;-50.801872;;1572.0
1719.0;1644.5;;;;;;;;;;;;;;0.5614795;0.15973388;0.063417464;;;;;1572.0
1719.0;1644.5;;;;;;;;;;;;;;;;;-58.13013;31.105991;-48.261208;;1572.0
1719.0;1644.5;;;;;;;;;;;;;;0.5467696;0.15454574;0.07580798;;;;;1572.0
1719.0;1644.5;;;;;;;;;;;;;;;;;-54.963833;30.419323;-45.533615;;1581.7
1719.0;1644.5;;;;;;;;;;;;;;0.5321207;0.17157505;0.09485153;;;;;1581.7
1719.0;1644.5;;;;;;;;;;;;;;;;;-51.770836;29.160437;-41.928616;;1581.7
1719.0;1644.5;;;;;;;;;;;;;;0.53169346;0.16577655;0.10992767;;;;;1581.7
1719.0;1645.1;;;;;;;;;;;;;-4455;;;;;;;;
1719.0;1645.1;;;;;;;;;;;;;-3684;;;;;;;;
1719.0;1645.1;;;;;;;;;;;;;-3107;;;;;;;;
1719.0;1645.1;;;;;;;;;;;;;-2517;;;;;;;;
1719.0;1645.1;;;;;;;;;;;;;-1480;;;;;;;;
1719.0;1646.4;;;;-0.8629724;-0.19876102;0.17128755;;;;;;;;;;;;;;;
1719.0;1646.4;;;;-0.86799634;-0.1996117;0.1715584;;;;;;;;;;;;;;;
1719.0;1646.4;;;;-0.87339795;-0.19982913;0.1725998;;;;;;;;;;;;;;;
1719.0;1646.4;;;;-0.87939465;-0.20006564;0.17307664;;;;;;;;;;;;;;;
1719.0;1646.4;;;;-0.88601315;-0.19954303;0.17417909;;;;;;;;;;;;;;;
1721.0;1656.4;;;;-0.8924829;-0.20043567;0.17526628;;;;;;;;;;;;;;;
1721.0;1656.4;;;;-0.89974225;-0.20090488;0.17691804;;;;;;;;;;;;;;;
1721.0;1656.4;;;;-0.9075242;-0.20094302;0.17806245;;;;;;;;;;;;;;;
1721.0;1656.4;;;;-0.9156076;-0.20172885;0.17977144;;;;;;;;;;;;;;;
1721.0;1656.4;;;;-0.92398846;-0.20360568;0.17967607;;;;;;;;;;;;;;;
1721.0;1659.2;262143;262143;12417;;;;;;;;;;;;;;;;;;
1721.0;1666.5;;;;-0.9304315;-0.2043114;0.17937471;;;;;;;;;;;;;;;
1721.0;1666.5;;;;-0.93483365;-0.2049866;0.17971803;;;;;;;;;;;;;;;
1721.0;1666.5;;;;-0.9392091;-0.20561603;0.18047334;;;;;;;;;;;;;;;
1721.0;1666.5;;;;-0.9423944;-0.20582965;0.1807213;;;;;;;;;;;;;;;
1721.0;1666.5;;;;-0.9453279;-0.20552066;0.18087389;;;;;;;;;;;;;;;
1721.0;1675.0;;;;;;;;;;;;;;;;;-48.478653;28.786585;-38.415176;;1591.3
1721.0;1675.0;;;;;;;;;;;;;;0.5222327;0.16803491;0.11407819;;;;;1591.3
1721.0;1675.0;;;;;;;;;;;;;;;;;-45.02243;28.550066;-34.756767;;1591.3
1721.0;1675.0;;;;;;;;;;;;;;0.5081332;0.17432173;0.136845;;;;;1591.3
1721.0;1675.0;;;;;;;;;;;;;;;;;-41.08936;27.676472;-30.995361;;1601.0
1721.0;1675.0;;;;;;;;;;;;;;0.5098422;0.19483016;0.14661092;;;;;1601.0
1721.0;1675.0;;;;;;;;;;;;;;;;;-36.9274;26.654104;-27.211067;;1601.0
1721.0;1675.0;;;;;;;;;;;;;;0.50270087;0.22003846;0.15869625;;;;;1601.0
1721.0;1675.0;;;;;;;;;;;;;;;;;-32.227547;24.575031;-23.693808;;1610.7
1721.0;1675.0;;;;;;;;;;;;;;0.50886565;0.23761712;0.16156499;;;;;1610.7
1721.0;1675.0;;;;;;;;;;;;;;;;;-27.500992;22.019106;-20.27192;;1610.7
1721.0;1675.0;;;;;;;;;;;;;;0.50398266;0.26178777;0.15546128;;;;;1610.7
1751.0;1675.8;;;;;;;;;;;;;;;;;-23.270363;18.887142;-16.98355;;1620.2
1751.0;1675.8;;;;;;;;;;;;;;0.49971008;0.29291666;0.1297647;;;;;1620.2
1751.0;1675.8;;;;;;;;;;;;;;;;;-20.420698;16.209145;-13.439589;;1620.2
1751.0;1675.8;;;;;;;;;;;;;;0.48084962;0.3259377;0.11120945;;;;;1620.2
1751.0;1675.8;;;;;;;;;;;;;;;;;-18.539995;13.016145;-9.73922;;1629.9
1751.0;1675.8;;;;;;;;;;;;;;0.4624775;0.34833828;0.10065004;;;;;1629.9
1751.0;1675.8;;;;;;;;;;;;;;;;;-17.632069;10.4831085;-5.8442945;;1629.9
1751.0;1675.8;;;;;;;;;;;;;;0.4430067;0.38819546;0.10010071;;;;;1629.9
1751.0;1675.8;;;;;;;;;;;;;;;;;-18.478958;9.025849;-1.4877774;;1639.5
1751.0;1675.8;;;;;;;;;;;;;;0.41413617;0.425367;0.10956145;;;;;1639.5
1751.0;1675.8;;;;;;;;;;;;;;;;;-21.565142;7.915738;3.5592213;;1639.5
1751.0;1675.8;;;;;;;;;;;;;;0.38703573;0.46821496;0.11902219;;;;;1639.5
1751.0;1676.4;;;;-0.9500581;-0.20502093;0.18106462;;;;;;;;;;;;;;;
1751.0;1676.4;;;;-0.95598614;-0.2043114;0.18086626;;;;;;;;;;;;;;;
1751.0;1676.4;;;;-0.96317303;-0.20351413;0.18073274;;;;;;;;;;;;;;;
1751.0;1676.4;;;;-0.9716226;-0.20261386;0.1802559;;;;;;;;;;;;;;;
1751.0;1676.4;;;;-0.979622;-0.2014046;0.179348;;;;;;;;;;;;;;;
1751.0;1679.3;262143;262143;12417;;;;;;;;;;;;;;;;;;
1751.0;1685.3;;;;;;;;;;;;;-186;;;;;;;;
1751.0;1685.3;;;;;;;;;;;;;997;;;;;;;;
1751.0;1685.3;;;;;;;;;;;;;2308;;;;;;;;
1751.0;1685.3;;;;;;;;;;;;;3663;;;;;;;;
1751.0;1685.3;;;;;;;;;;;;;4548;;;;;;;;
1752.0;1686.5;;;;-0.9884912;-0.19964221;0.17862703;;;;;;;;;;;;;;;
1752.0;1686.5;;;;-0.9968301;-0.19804004;0.17776491;;;;;;;;;;;;;;;
1752.0;1686.5;;;;-1.0035173;-0.19599918;0.17691423;;;;;;;;;;;;;;;
1752.0;1686.5;;;;-1.0095941;-0.19344714;0.17645265;;;;;;;;;;;;;;;
1752.0;1686.5;;;;-1.0150377;-0.19054797;0.17610551;;;;;;;;;;;;;;;
1752.0;1696.5;;;;-1.020218;-0.1875687;0.17560579;;;;;;;;;;;;;;;
1752.0;1696.5;;;;-1.0248185;-0.18418886;0.17566301;;;;;;;;;;;;;;;
1752.0;1696.5;;;;-1.0305101;-0.18042375;0.17645647;;;;;;;;;;;;;;;
1752.0;1696.5;;;;-1.0355493;-0.17695619;0.17704393;;;;;;;;;;;;;;;
1752.0;1696.5;;;;-1.0399438;-0.17401506;0.17731096;;;;;;;;;;;;;;;
1752.0;1699.4;262143;262143;12425;;;;;;;;;;;;;;;;;;
1752.0;1704.6;;;;;;;;;;;;;;;;;-25.997955;6.344035;9.186071;;1649.2
1752.0;1704.6;;;;;;;;;;;;;;0.3615833;0.511124;0.12994781;;;;;1649.2
1752.0;1704.6;;;;;;;;;;;;;;;;;-30.30488;3.6126287;15.190588;;1649.2
1752.0;1704.6;;;;;;;;;;;;;;0.33857235;0.5186926;0.13806574;;;;;1649.2
1752.0;1704.6;;;;;;;;;;;;;;;;;-31.853695;-0.24796289;20.310068;;1658.9
1752.0;1704.6;;;;;;;;;;;;;;0.32428968;0.5240638;0.14465773;;;;;1658.9
1752.0;1704.6;;;;;;;;;;;;;;;;;-29.07651;-5.0126653;24.567402;;1658.9
1752.0;1704.6;;;;;;;;;;;;;;0.33344522;0.54609823;0.1408124;;;;;1658.9
1752.0;1704.6;;;;;;;;;;;;;;;;;-21.534624;-9.685812;27.672657;;1668.6
1752.0;1704.6;;;;;;;;;;;;;;0.36445203;0.567217;0.15124974;;;;;1668.6
1752.0;1704.6;;;;;;;;;;;;;;;;;-9.624775;-14.072847;29.278696;;1668.6
1752.0;1704.6;;;;;;;;;;;;;;0.3751335;0.6038392;0.1693167;;;;;1668.6
1780.0;1706.4;;;;-1.0447694;-0.17131807;0.17840959;;;;;;;;;;;;;;;
1780.0;1706.4;;;;-1.0481721;-0.16777803;0.17983629;;;;;;;;;;;;;;;
1780.0;1706.4;;;;-1.0512658;-0.16439821;0.18088152;;;;;;;;;;;;;;;
1780.0;1706.4;;;;-1.0532228;-0.16204454;0.18151857;;;;;;;;;;;;;;;
1780.0;1706.4;;;;-1.0550767;-0.15936281;0.18246461;;;;;;;;;;;;;;;
1780.0;1716.4;;;;-1.0566903;-0.1575432;0.18309785;;;;;;;;;;;;;;;
1780.0;1716.4;;;;-1.058262;-0.15589906;0.18398286;;;;;;;;;;;;;;;
1780.0;1716.4;;;;-1.0606652;-0.15531923;0.18500902;;;;;;;;;;;;;;;
1780.0;1716.4;;;;-1.0621644;-0.15470125;0.18558885;;;;;;;;;;;;;;;
1780.0;1716.4;;;;-1.0636827;-0.15404893;0.18502046;;;;;;;;;;;;;;;
1780.0;1719.3;262143;262143;12428;;;;;;;;;;;;;;;;;;
1780.0;1725.3;;;;;;;;;;;;;4775;;;;;;;;
1780.0;1725.3;;;;;;;;;;;;;4781;;;;;;;;
1780.0;1725.3;;;;;;;;;;;;;5057;;;;;;;;
1780.0;1725.3;;;;;;;;;;;;;5604;;;;;;;;
1780.0;1725.3;;;;;;;;;;;;;6262;;;;;;;;
1780.0;1726.4;;;;-1.0662233;-0.15381242;0.18393709;;;;;;;;;;;;;;;
1780.0;1726.4;;;;-1.0674287;-0.15334322;0.18287279;;;;;;;;;;;;;;;
1780.0;1726.4;;;;-1.0692941;-0.15255357;0.18208314;;;;;;;;;;;;;;;
1780.0;1726.4;;;;-1.0716134;-0.15258409;0.18055727;;;;;;;;;;;;;;;
1780.0;1726.4;;;;-1.0729982;-0.15281679;0.17917635;;;;;;;;;;;;;;;
1814.0;1736.4;;;;-1.0750123;-0.15330888;0.17770387;;;;;;;;;;;;;;;
1814.0;1736.4;;;;-1.0782663;-0.15393831;0.17580415;;;;;;;;;;;;;;;
1814.0;1736.4;;;;-1.081379;-0.1549492;0.17354204;;;;;;;;;;;;;;;
1814.0;1736.4;;;;-1.0848581;-0.15659334;0.1721573;;;;;;;;;;;;;;;
1814.0;1736.4;;;;-1.088688;-0.15798189;0.16976167;;;;;;;;;;;;;;;
1814.0;1736.5;;;;;;;;;;-1.6632588;-0.38148138;-1.0299997;;;;;;;;;
1814.0;1736.5;;;;;;;1.0165715;0.060670797;0.22016053;;;;;;;;;;;;
1814.0;1736.5;;;;;;;;;;22.450178;38.76614;35.000916;;;;;;;;;
1814.0;1736.5;;;;;;;1.1503646;0.06714072;0.25251016;;;;;;;;;;;;
1814.0;1739.4;262143;262143;12440;;;;;;;;;;;;;;;;;;
1814.0;1746.0;;;;;;;;;;29.67925;57.992798;57.62276;;;;;;;;;
1814.0;1746.0;;;;;;;1.1624501;0.06573687;0.26062807;;;;;;;;;;;;
1814.0;1746.0;;;;;;;;;;20.970032;62.730797;65.46983;;;;;;;;;
1814.0;1746.0;;;;;;;1.1746575;0.06402783;0.2692343;;;;;;;;;;;;
1814.0;1746.3;;;;-1.0928575;-0.15937425;0.16843034;;;;;;;;;;;;;;;
1814.0;1746.3;;;;-1.0956765;-0.16011812;0.16746904;;;;;;;;;;;;;;;
1814.0;1746.3;;;;-1.0976945;-0.16075517;0.16673662;;;;;;;;;;;;;;;
1814.0;1746.3;;;;-1.0994989;-0.16164018;0.1665764;;;;;;;;;;;;;;;
1814.0;1746.3;;;;-1.0996972;-0.1616173;0.16557695;;;;;;;;;;;;;;;
1814.0;1755.6;;;;;;;;;;16.281626;47.23884;57.64565;;;;;;;;;
1814.0;1755.6;;;;;;;1.1913205;0.06427198;0.2771691;;;;;;;;;;;;
1814.0;1755.6;;;;;;;;;;2.5635548;-9.403516;23.579363;;;;;;;;;
1814.0;1755.6;;;;;;;1.1974243;0.060365614;0.28412732;;;;;;;;;;;;
1843.0;1756.4;;;;-1.0993768;-0.16217424;0.16370775;;;;;;;;;;;;;;;
1843.0;1756.4;;;;-1.0984994;-0.16350557;0.16238023;;;;;;;;;;;;;;;
1843.0;1756.4;;;;-1.097622;-0.16460039;0.16025926;;;;;;;;;;;;;;;
1843.0;1756.4;;;;-1.0956842;-0.16522981;0.15834047;;;;;;;;;;;;;;;
1843.0;1756.4;;;;-1.09507;-0.16783907;0.15703966;;;;;;;;;;;;;;;
1843.0;1759.5;262143;262143;12439;;;;;;;;;;;;;;;;;;
1843.0;1765.1;;;;;;;;;;2.2659993;-0.48448133;36.86636;;;;;;;;;
1843.0;1765.1;;;;;;;1.1943114;0.05999939;0.2893765;;;;;;;;;;;;
1843.0;1765.1;;;;;;;;;;2.7008882;0.93081456;40.890987;;;;;;;;;
1843.0;1765.1;;;;;;;1.1943114;0.05963317;0.29535812;;;;;;;;;;;;
1843.0;1765.4;;;;;;;;;;;;;7241;;;;;;;;
1843.0;1765.4;;;;;;;;;;;;;8931;;;;;;;;
1843.0;1765.4;;;;;;;;;;;;;10611;;;;;;;;
1843.0;1765.4;;;;;;;;;;;;;11091;;;;;;;;
1843.0;1765.4;;;;;;;;;;;;;10804;;;;;;;;
1843.0;1766.4;;;;-1.0970994;-0.17234422;0.1560898;;;;;;;;;;;;;;;
1843.0;1766.4;;;;-1.0991861;-0.177063;0.15509798;;;;;;;;;;;;;;;
1843.0;1766.4;;;;-1.0997277;-0.18223192;0.15394594;;;;;;;;;;;;;;;
1843.0;1766.4;;;;-1.1007348;-0.18770984;0.15237428;;;;;;;;;;;;;;;
1843.0;1766.4;;;;-1.1011087;-0.1932526;0.1511574;;;;;;;;;;;;;;;
1843.0;1774.7;;;;;;;;;;3.2502213;-0.38148138;43.057804;;;;;;;;;
1843.0;1774.7;;;;;;;1.1896726;0.0590228;0.30146185;;;;;;;;;;;;
1843.0;1774.7;;;;;;;;;;3.78811;-2.5330362;45.422985;;;;;;;;;
1843.0;1774.7;;;;;;;1.1818599;0.05444502;0.30805382;;;;;;;;;;;;
1872.0;1776.4;;;;-1.0996248;-0.1968346;0.15035631;;;;;;;;;;;;;;;
1872.0;1776.4;;;;-1.0994531;-0.20034793;0.15002824;;;;;;;;;;;;;;;
1872.0;1776.4;;;;-1.1001588;-0.20383456;0.14909746;;;;;;;;;;;;;;;
1872.0;1776.4;;;;-1.1018792;-0.20575336;0.1485901;;;;;;;;;;;;;;;
1872.0;1776.4;;;;-1.1043016;-0.20725253;0.14749528;;;;;;;;;;;;;;;
1872.0;1779.4;262143;262143;12451;;;;;;;;;;;;;;;;;;
1872.0;1784.1;;;;;;;;;;4.482406;-5.1614428;47.578358;;;;;;;;;
1872.0;1784.1;;;;;;;1.1809442;0.05059969;0.31488997;;;;;;;;;;;;
1872.0;1784.1;;;;;;;;;;5.3559985;-7.8394423;49.520096;;;;;;;;;
1872.0;1784.1;;;;;;;1.187048;0.047059543;0.31843013;;;;;;;;;;;;
1872.0;1786.4;;;;-1.1058656;-0.20811084;0.14658357;;;;;;;;;;;;;;;
1872.0;1786.4;;;;-1.1059266;-0.20940402;0.14575197;;;;;;;;;;;;;;;
1872.0;1786.4;;;;-1.1039621;-0.20862582;0.14450838;;;;;;;;;;;;;;;
1872.0;1786.4;;;;-1.1032258;-0.20848086;0.14339067;;;;;;;;;;;;;;;
1872.0;1786.4;;;;-1.1021005;-0.20714954;0.14089204;;;;;;;;;;;;;;;
1872.0;1793.7;;;;;;;;;;6.015961;-10.917997;51.461838;;;;;;;;;
1872.0;1793.7;;;;;;;1.2016358;0.04364147;0.32142094;;;;;;;;;;;;
1872.0;1793.7;;;;;;;;;;6.8361464;-14.33607;53.52565;;;;;;;;;
1872.0;1793.7;;;;;;;1.2140263;0.0397351;0.3241676;;;;;;;;;;;;
1904.0;1794.6;;;;;;;;;;;;;;;;;4.8409986;-19.184698;29.580067;;1678.2
1904.0;1794.6;;;;;;;;;;;;;;0.42945647;0.6848964;0.16681418;;;;;1678.2
1904.0;1794.6;;;;;;;;;;;;;;;;;19.665363;-22.778252;28.832361;;1678.2
1904.0;1794.6;;;;;;;;;;;;;;0.49269083;0.786401;0.146733;;;;;1678.2
1904.0;1794.6;;;;;;;;;;;;;;;;;33.49025;-24.426252;27.417065;;1687.7
1904.0;1794.6;;;;;;;;;;;;;;0.51911986;0.8752098;0.12195197;;;;;1687.7
1904.0;1794.6;;;;;;;;;;;;;;;;;45.285652;-27.581102;25.402843;;1687.7
1904.0;1794.6;;;;;;;;;;;;;;0.5206458;0.9688406;0.06683554;;;;;1687.7
1904.0;1794.6;;;;;;;;;;;;;;;;;51.37028;-34.87884;23.21314;;1697.4
1904.0;1794.6;;;;;;;;;;;;;;0.49012727;1.0479445;-0.003357036;;;;;1697.4
1904.0;1794.6;;;;;;;;;;;;;;;;;47.917877;-47.12058;22.446363;;1697.4
1904.0;1794.6;;;;;;;;;;;;;;0.46748254;1.0663778;-0.02929777;;;;;1697.4
1904.0;1795.9;;;;;;;;;;;;;;;;;34.764397;-59.54543;26.043734;;1707.0
1904.0;1795.9;;;;;;;;;;;;;;0.49171424;1.0047914;-0.03784295;;;;;1707.0
1904.0;1795.9;;;;;;;;;;;;;;;;;17.30781;-65.8475;34.05484;;1707.0
1904.0;1795.9;;;;;;;;;;;;;;0.5674612;0.88125247;0.0042115543;;;;;1707.0
1904.0;1795.9;;;;;;;;;;;;;;;;;-2.6512957;-63.741722;44.667652;;1716.6
1904.0;1795.9;;;;;;;;;;;;;;0.60841703;0.7011933;0.060060427;;;;;1716.6
1904.0;1795.9;;;;;;;;;;;;;;;;;-27.691732;-54.143654;56.63091;;1716.6
1904.0;1795.9;;;;;;;;;;;;;;0.63869137;0.48847926;0.23749503;;;;;1716.6
1904.0;1795.9;;;;;;;;;;;;;;;;;-47.21595;-40.238655;68.20886;;1726.2
1904.0;1795.9;;;;;;;;;;;;;;0.6559038;0.30280465;0.56874293;;;;;1726.2
1904.0;1795.9;;;;;;;;;;;;;;;;;-41.42506;-32.193214;74.61013;;1726.2
1904.0;1795.9;;;;;;;;;;;;;;0.67647326;0.31305888;0.7579577;;;;;1726.2
1909.0;1796.4;;;;-1.1027604;-0.20718768;0.13766862;;;;;;;;;;;;;;;
1909.0;1796.4;;;;-1.1045915;-0.20745471;0.13482286;;;;;;;;;;;;;;;
1909.0;1796.4;;;;-1.1080629;-0.20893863;0.13154604;;;;;;;;;;;;;;;
1909.0;1796.4;;;;-1.1110688;-0.20953372;0.12628938;;;;;;;;;;;;;;;
1909.0;1796.4;;;;-1.1143037;-0.20987323;0.12269594;;;;;;;;;;;;;;;
1909.0;1796.7;;;;;;;;;;;;;;;;;-15.583514;-32.57088;73.76324;;1735.9
1909.0;1796.7;;;;;;;;;;;;;;0.7098605;0.48762473;0.83223975;;;;;1735.9
1909.0;1796.7;;;;;;;;;;;;;;;;;15.175328;-45.335243;67.22846;;1735.9
1909.0;1796.7;;;;;;;;;;;;;;0.79299295;0.6142766;0.65034944;;;;;1735.9
1909.0;1796.7;;;;;;;;;;;;;;;;;41.24958;-62.841423;62.25013;;1745.5
1909.0;1796.7;;;;;;;;;;;;;;0.9333781;0.6270333;0.079348125;;;;;1745.5
1909.0;1796.7;;;;;;;;;;;;;;;;;51.374096;-67.93038;60.94546;;1745.5
1909.0;1796.7;;;;;;;;;;;;;;0.97561574;0.58717614;-0.43452254;;;;;1745.5
1909.0;1796.7;;;;;;;;;;;;;;;;;45.97995;-69.97894;62.89102;;1755.2
1909.0;1796.7;;;;;;;;;;;;;;0.8904691;0.5700247;-0.5989563;;;;;1755.2
1909.0;1796.7;;;;;;;;;;;;;;;;;35.603657;-83.12479;69.54024;;1755.2
1909.0;1796.7;;;;;;;;;;;;;;0.95486313;0.49305704;-0.4300058;;;;;1755.2
1909.0;1799.3;262143;262143;12462;;;;;;;;;;;;;;;;;;
1909.0;1803.0;;;;;;;;;;7.6525164;-17.941069;55.49791;;;;;;;;;
1909.0;1803.0;;;;;;;1.2285532;0.03723258;0.32587665;;;;;;;;;;;;
1909.0;1803.0;;;;;;;;;;8.50322;-21.71392;57.473984;;;;;;;;;
1909.0;1803.0;;;;;;;1.2446669;0.031617176;0.32691428;;;;;;;;;;;;
1911.0;1805.3;;;;;;;;;;;;;10832;;;;;;;;
1911.0;1805.3;;;;;;;;;;;;;11248;;;;;;;;
1911.0;1805.3;;;;;;;;;;;;;11978;;;;;;;;
1911.0;1805.3;;;;;;;;;;;;;13558;;;;;;;;
1911.0;1805.3;;;;;;;;;;;;;14770;;;;;;;;
1911.0;1806.1;;;;-1.1178399;-0.21036533;0.1184807;;;;;;;;;;;;;;;
1911.0;1806.1;;;;-1.1222001;-0.2119179;0.11422731;;;;;;;;;;;;;;;
1911.0;1806.1;;;;-1.1260759;-0.21349719;0.109870926;;;;;;;;;;;;;;;
1911.0;1806.1;;;;-1.1294366;-0.21416858;0.10639574;;;;;;;;;;;;;;;
1911.0;1806.1;;;;-1.1338083;-0.21449283;0.10431673;;;;;;;;;;;;;;;
1911.0;1812.5;;;;;;;;;;9.590442;-25.864437;59.377575;;;;;;;;;
1911.0;1812.5;;;;;;;1.2629169;0.025757622;0.32569355;;;;;;;;;;;;
1911.0;1812.5;;;;;;;;;;10.826442;-30.453657;61.254463;;;;;;;;;
1911.0;1812.5;;;;;;;1.2792138;0.016296884;0.32801294;;;;;;;;;;;;
1911.0;1816.2;;;;-1.1373101;-0.21377185;0.10172273;;;;;;;;;;;;;;;
1911.0;1816.2;;;;-1.1406976;-0.21255878;0.09886171;;;;;;;;;;;;;;;
1911.0;1816.2;;;;-1.1447412;-0.21132281;0.09594728;;;;;;;;;;;;;;;
1911.0;1816.2;;;;-1.1483918;-0.20962146;0.09295655;;;;;;;;;;;;;;;
1911.0;1816.2;;;;-1.1492807;-0.20606616;0.09016038;;;;;;;;;;;;;;;
1911.0;1819.5;262143;262143;12468;;;;;;;;;;;;;;;;;;
1911.0;1822.1;;;;;;;;;;12.199775;-34.76821;62.90628;;;;;;;;;
1911.0;1822.1;;;;;;;1.2910551;0.003051851;0.3274636;;;;;;;;;;;;
1911.0;1822.1;;;;;;;;;;13.458663;-39.170506;64.35591;;;;;;;;;
1911.0;1822.1;;;;;;;1.3022248;-0.0025635548;0.32404554;;;;;;;;;;;;
1913.0;1824.7;;;;;;;;;;;;;;;;;22.839289;-93.90927;78.573715;;1764.9
1913.0;1824.7;;;;;;;;;;;;;;1.1927243;0.29419842;-0.22498246;;;;;1764.9
1913.0;1824.7;;;;;;;;;;;;;;;;;19.344921;-89.73586;82.74712;;1764.9
1913.0;1824.7;;;;;;;;;;;;;;1.2519302;0.056093022;-0.07434309;;;;;1764.9
1913.0;1824.7;;;;;;;;;;;;;;;;;31.704918;-89.21323;81.01901;;1774.6
1913.0;1824.7;;;;;;;;;;;;;;1.2735984;-0.08197272;-0.11243019;;;;;1774.6
1913.0;1824.7;;;;;;;;;;;;;;;;;47.574543;-95.20631;77.2309;;1774.6
1913.0;1824.7;;;;;;;;;;;;;;1.3660085;-0.11200293;-0.33582568;;;;;1774.6
1913.0;1824.7;;;;;;;;;;;;;;;;;53.781246;-93.35993;74.816124;;1784.3
1913.0;1824.7;;;;;;;;;;;;;;1.51854;-0.0966216;-0.35657826;;;;;1784.3
1913.0;1824.7;;;;;;;;;;;;;;;;;55.574203;-79.939415;74.06842;;1784.3
1913.0;1824.7;;;;;;;;;;;;;;1.642201;-0.049867246;-0.26355785;;;;;1784.3
1913.0;1826.2;;;;-1.152691;-0.20299152;0.08612061;;;;;;;;;;;;;;;
1913.0;1826.2;;;;-1.154297;-0.19937137;0.0814705;;;;;;;;;;;;;;;
1913.0;1826.2;;;;-1.1576844;-0.19758227;0.07809449;;;;;;;;;;;;;;;
1913.0;1826.2;;;;-1.1595498;-0.19354251;0.074371345;;;;;;;;;;;;;;;
1913.0;1826.2;;;;-1.1607057;-0.19028857;0.06903077;;;;;;;;;;;;;;;
1913.0;1831.6;;;;;;;;;;14.797663;-43.805508;65.57665;;;;;;;;;
1913.0;1831.6;;;;;;;1.3080844;-0.011902219;0.3187353;;;;;;;;;;;;
1913.0;1831.6;;;;;;;;;;16.28544;-48.39091;66.65624;;;;;;;;;
1913.0;1831.6;;;;;;;1.3179113;-0.023316141;0.31373027;;;;;;;;;;;;
1914.0;1836.2;;;;-1.1619722;-0.18833163;0.06068421;;;;;;;;;;;;;;;
1914.0;1836.2;;;;-1.1611215;-0.18465425;0.053997047;;;;;;;;;;;;;;;
1914.0;1836.2;;;;-1.1615793;-0.18286516;0.0481453;;;;;;;;;;;;;;;
1914.0;1836.2;;;;-1.1617166;-0.18115999;0.041393284;;;;;;;;;;;;;;;
1914.0;1836.2;;;;-1.1620218;-0.17985155;0.033794407;;;;;;;;;;;;;;;
1914.0;1839.5;262143;262143;12481;;;;;;;;;;;;;;;;;;
1914.0;1841.1;;;;;;;;;;17.773216;-52.5338;67.11402;;;;;;;;;
1914.0;1841.1;;;;;;;1.3187659;-0.035950806;0.30726036;;;;;;;;;;;;
1914.0;1841.1;;;;;;;;;;19.28007;-57.07343;67.190315;;;;;;;;;
1914.0;1841.1;;;;;;;1.317484;-0.044373915;0.3018891;;;;;;;;;;;;
1914.0;1845.5;;;;;;;;;;;;;10490;;;;;;;;
1914.0;1845.5;;;;;;;;;;;;;-2086;;;;;;;;
1914.0;1845.5;;;;;;;;;;;;;-15355;;;;;;;;
1914.0;1845.5;;;;;;;;;;;;;-17136;;;;;;;;
1914.0;1845.5;;;;;;;;;;;;;-5334;;;;;;;;
1914.0;1846.3;;;;-1.1620065;-0.17872621;0.026618961;;;;;;;;;;;;;;;
1914.0;1846.3;;;;-1.1613961;-0.17788316;0.020042421;;;;;;;;;;;;;;;
1914.0;1846.3;;;;-1.1622125;-0.17822267;0.012130739;;;;;;;;;;;;;;;
1914.0;1846.3;;;;-1.1653825;-0.17958452;0.004390717;;;;;;;;;;;;;;;
1914.0;1846.3;;;;-1.1691018;-0.18021776;-0.0025711062;;;;;;;;;;;;;;;
1914.0;1850.8;;;;;;;;;;20.527512;-61.84576;67.297134;;;;;;;;;
1914.0;1850.8;;;;;;;1.315714;-0.055604726;0.2979217;;;;;;;;;;;;
1914.0;1850.8;;;;;;;;;;21.752068;-66.55706;66.82028;;;;;;;;;
1914.0;1850.8;;;;;;;1.3050325;-0.06891079;0.2929777;;;;;;;;;;;;
1915.0;1854.7;;;;;;;;;;;;;;;;;61.42613;-62.45613;72.12286;;1793.7
1915.0;1854.7;;;;;;;;;;;;;;1.6359142;0.008972442;-0.16821803;;;;;1793.7
1915.0;1854.7;;;;;;;;;;;;;;;;;72.0275;-52.362133;68.777275;;1793.7
1915.0;1854.7;;;;;;;;;;;;;;1.5327005;0.10345775;-0.18164617;;;;;1793.7
1915.0;1854.7;;;;;;;;;;;;;;;;;83.92972;-53.014465;65.290535;;1803.3
1915.0;1854.7;;;;;;;;;;;;;;1.4822229;0.24854274;-0.27124852;;;;;1803.3
1915.0;1854.7;;;;;;;;;;;;;;;;;88.0192;-49.413284;61.990723;;1803.3
1915.0;1854.7;;;;;;;;;;;;;;1.4221625;0.40473646;-0.16797388;;;;;1803.3
1915.0;1854.7;;;;;;;;;;;;;;;;;87.57287;-42.615284;59.167763;;1813.0
1915.0;1854.7;;;;;;;;;;;;;;1.2851344;0.558977;-0.110965304;;;;;1813.0
1915.0;1854.7;;;;;;;;;;;;;;;;;84.34171;-39.101837;56.71102;;1813.0
1915.0;1854.7;;;;;;;;;;;;;;1.1706901;0.65004426;-0.106631674;;;;;1813.0
1915.0;1856.2;;;;-1.1730767;-0.18111803;-0.0092926035;;;;;;;;;;;;;;;
1915.0;1856.2;;;;-1.1781656;-0.1815529;-0.016674044;;;;;;;;;;;;;;;
1915.0;1856.2;;;;-1.1832696;-0.18207552;-0.023147585;;;;;;;;;;;;;;;
1915.0;1856.2;;;;-1.1877023;-0.18157198;-0.028083805;;;;;;;;;;;;;;;
1915.0;1856.2;;;;-1.1922418;-0.18082048;-0.03333283;;;;;;;;;;;;;;;
1915.0;1859.6;262143;262143;12476;;;;;;;;;;;;;;;;;;
1915.0;1860.2;;;;;;;;;;22.850733;-70.90975;65.77883;;;;;;;;;
1915.0;1860.2;;;;;;;1.2834865;-0.08093509;0.2891934;;;;;;;;;;;;
1915.0;1860.2;;;;;;;;;;23.873104;-74.71313;64.10413;;;;;;;;;
1915.0;1860.2;;;;;;;1.2574847;-0.09698782;0.28662986;;;;;;;;;;;;
1960.0;1866.3;;;;-1.1978303;-0.17957689;-0.038333897;;;;;;;;;;;;;;;
1960.0;1866.3;;;;-1.2027246;-0.1781769;-0.04312897;;;;;;;;;;;;;;;
1960.0;1866.3;;;;-1.2084237;-0.17650987;-0.04698945;;;;;;;;;;;;;;;
1960.0;1866.3;;;;-1.2153016;-0.17496873;-0.051162727;;;;;;;;;;;;;;;
1960.0;1866.3;;;;-1.2225419;-0.17286302;-0.054943092;;;;;;;;;;;;;;;
1960.0;1869.6;;;;;;;;;;24.75814;-77.70394;61.773277;;;;;;;;;
1960.0;1869.6;;;;;;;1.2308115;-0.107058935;0.2830897;;;;;;;;;;;;
1960.0;1869.6;;;;;;;;;;25.57451;-80.1149;59.163948;;;;;;;;;
1960.0;1869.6;;;;;;;1.200415;-0.118533894;0.2789392;;;;;;;;;;;;
1960.0;1876.1;;;;-1.2281915;-0.16928484;-0.05754853;;;;;;;;;;;;;;;
1960.0;1876.1;;;;-1.2337648;-0.16669847;-0.05976487;;;;;;;;;;;;;;;
1960.0;1876.1;;;;-1.2409211;-0.16272356;-0.06201554;;;;;;;;;;;;;;;
1960.0;1876.1;;;;-1.246113;-0.15858461;-0.065486915;;;;;;;;;;;;;;;
1960.0;1876.1;;;;-1.2509118;-0.15478899;-0.06892777;;;;;;;;;;;;;;;
1960.0;1879.1;;;;;;;;;;26.257362;-80.96179;56.405834;;;;;;;;;
1960.0;1879.1;;;;;;;1.1735587;-0.12982574;0.27344584;;;;;;;;;;;;
1960.0;1879.1;;;;;;;;;;26.95929;-80.774864;53.205208;;;;;;;;;
1960.0;1879.1;;;;;;;1.163976;-0.13812678;0.26929533;;;;;;;;;;;;
1960.0;1879.5;262143;262143;12483;;;;;;;;;;;;;;;;;;
1962.0;1884.7;;;;;;;;;;;;;;;;;78.581345;-38.106174;54.219948;;1822.6
1962.0;1884.7;;;;;;;;;;;;;;1.0807215;0.68330944;-0.14484085;;;;;1822.6
1962.0;1884.7;;;;;;;;;;;;;;;;;69.30753;-36.950287;51.873837;;1822.6
1962.0;1884.7;;;;;;;;;;;;;;1.0066226;0.68422496;-0.14862514;;;;;1822.6
1962.0;1884.7;;;;;;;;;;;;;;;;;57.95465;-35.252693;50.000763;;1832.2
1962.0;1884.7;;;;;;;;;;;;;;0.9363689;0.68959624;-0.095278785;;;;;1832.2
1962.0;1884.7;;;;;;;;;;;;;;;;;47.73858;-34.993286;48.7991;;1832.2
1962.0;1884.7;;;;;;;;;;;;;;0.9007233;0.6538896;-0.051087987;;;;;1832.2
1962.0;1884.7;;;;;;;;;;;;;;;;;40.1738;-35.515915;47.414318;;1841.8
1962.0;1884.7;;;;;;;;;;;;;;0.91293067;0.61275065;-0.050477616;;;;;1841.8
1962.0;1884.7;;;;;;;;;;;;;;;;;33.3224;-35.41673;46.09821;;1841.8
1962.0;1884.7;;;;;;;;;;;;;;0.9552904;0.56263924;-0.06103702;;;;;1841.8
1962.0;1885.4;;;;;;;;;;;;;9178;;;;;;;;
1962.0;1885.4;;;;;;;;;;;;;15845;;;;;;;;
1962.0;1885.4;;;;;;;;;;;;;15041;;;;;;;;
1962.0;1885.4;;;;;;;;;;;;;13551;;;;;;;;
1962.0;1885.4;;;;;;;;;;;;;14466;;;;;;;;
1962.0;1886.1;;;;-1.2539521;-0.15043642;-0.070846565;;;;;;;;;;;;;;;
1962.0;1886.1;;;;-1.2565995;-0.14576723;-0.07161332;;;;;;;;;;;;;;;
1962.0;1886.1;;;;-1.2578775;-0.14133455;-0.07385636;;;;;;;;;;;;;;;
1962.0;1886.1;;;;-1.2587472;-0.13666154;-0.077148445;;;;;;;;;;;;;;;
1962.0;1886.1;;;;-1.2601205;-0.13197328;-0.07941819;;;;;;;;;;;;;;;
1962.0;1888.6;;;;;;;;;;27.554398;-78.86364;49.34843;;;;;;;;;
1962.0;1888.6;;;;;;;1.1468856;-0.14050722;0.26557207;;;;;;;;;;;;
1962.0;1888.6;;;;;;;;;;28.035065;-76.044495;45.407726;;;;;;;;;
1962.0;1888.6;;;;;;;1.1427351;-0.13837092;0.2630085;;;;;;;;;;;;
1964.0;1896.1;;;;-1.2613298;-0.12807848;-0.07971955;;;;;;;;;;;;;;;
1964.0;1896.1;;;;-1.2611657;-0.12377931;-0.07974244;;;;;;;;;;;;;;;
1964.0;1896.1;;;;-1.2594796;-0.120159164;-0.08009339;;;;;;;;;;;;;;;
1964.0;1896.1;;;;-1.2575151;-0.117057815;-0.0813675;;;;;;;;;;;;;;;
1964.0;1896.1;;;;-1.2540704;-0.11343004;-0.082809456;;;;;;;;;;;;;;;
1964.0;1898.1;;;;;;;;;;28.523361;-71.98172;41.57384;;;;;;;;;
1964.0;1898.1;;;;;;;1.1488998;-0.13885921;0.25782037;;;;;;;;;;;;
1964.0;1898.1;;;;;;;;;;29.034548;-66.77068;37.65221;;;;;;;;;
1964.0;1898.1;;;;;;;1.1539048;-0.143437;0.2548906;;;;;;;;;;;;
1964.0;1899.5;262143;262143;12482;;;;;;;;;;;;;;;;;;
1964.0;1906.2;;;;-1.2498132;-0.11061479;-0.08398057;;;;;;;;;;;;;;;
1964.0;1906.2;;;;-1.2446672;-0.10742952;-0.08734513;;;;;;;;;;;;;;;
1964.0;1906.2;;;;-1.237732;-0.10513307;-0.09029008;;;;;;;;;;;;;;;
1964.0;1906.2;;;;-1.2294198;-0.10270311;-0.09223939;;;;;;;;;;;;;;;
1964.0;1906.2;;;;-1.2209474;-0.100353256;-0.09330369;;;;;;;;;;;;;;;
1964.0;1907.7;;;;;;;;;;29.515215;-60.38087;34.100616;;;;;;;;;
1964.0;1907.7;;;;;;;1.1659901;-0.14697714;0.24750511;;;;;;;;;;;;
1964.0;1907.7;;;;;;;;;;29.877623;-52.697838;30.751213;;;;;;;;;
1964.0;1907.7;;;;;;;1.1835688;-0.15039521;0.24433118;;;;;;;;;;;;
1965.0;1915.1;;;;;;;;;;;;;;;;;27.203438;-34.53932;45.194096;;1851.5
1965.0;1915.1;;;;;;;;;;;;;;1.0122379;0.49824518;-0.06335643;;;;;1851.5
1965.0;1915.1;;;;;;;;;;;;;;;;;24.27366;-32.75399;44.9118;;1851.5
1965.0;1915.1;;;;;;;;;;;;;;1.0516068;0.45185706;-0.086123236;;;;;1851.5
1965.0;1915.1;;;;;;;;;;;;;;;;;23.834957;-30.62151;45.1178;;1861.1
1965.0;1915.1;;;;;;;;;;;;;;1.063509;0.40882596;-0.12475967;;;;;1861.1
1965.0;1915.1;;;;;;;;;;;;;;;;;24.304178;-28.95062;46.193577;;1861.1
1965.0;1915.1;;;;;;;;;;;;;;1.0674154;0.37366864;-0.16657002;;;;;1861.1
1965.0;1915.1;;;;;;;;;;;;;;;;;24.872585;-27.83288;48.226875;;1870.6
1965.0;1915.1;;;;;;;;;;;;;;1.0476394;0.34546953;-0.20764793;;;;;1870.6
1965.0;1915.1;;;;;;;;;;;;;;;;;25.597399;-27.546768;50.89343;;1870.6
1965.0;1915.1;;;;;;;;;;;;;;1.0164495;0.32264167;-0.22449416;;;;;1870.6
1965.0;1916.1;;;;-1.2146875;-0.09792329;-0.09476854;;;;;;;;;;;;;;;
1965.0;1916.1;;;;-1.2105333;-0.09604265;-0.09498598;;;;;;;;;;;;;;;
1965.0;1916.1;;;;-1.2060586;-0.09369279;-0.09578706;;;;;;;;;;;;;;;
1965.0;1916.1;;;;-1.2021791;-0.09103013;-0.09575273;;;;;;;;;;;;;;;
1965.0;1916.1;;;;-1.1967126;-0.08790589;-0.09445955;;;;;;;;;;;;;;;
1965.0;1917.1;;;;;;;;;;30.167545;-44.652393;27.645954;;;;;;;;;
1965.0;1917.1;;;;;;;1.1977295;-0.15509507;0.23841059;;;;;;;;;;;;
1965.0;1917.1;;;;;;;;;;30.373547;-35.950806;25.032806;;;;;;;;;
1965.0;1917.1;;;;;;;1.2126224;-0.164861;0.23548082;;;;;;;;;;;;
1965.0;1919.6;262143;262143;12477;;;;;;;;;;;;;;;;;;
1992.0;1925.5;;;;;;;;;;;;;15633;;;;;;;;
1992.0;1925.5;;;;;;;;;;;;;15757;;;;;;;;
1992.0;1925.5;;;;;;;;;;;;;15716;;;;;;;;
1992.0;1925.5;;;;;;;;;;;;;15711;;;;;;;;
1992.0;1925.5;;;;;;;;;;;;;15535;;;;;;;;
1992.0;1926.1;;;;-1.1912233;-0.08474732;-0.09424974;;;;;;;;;;;;;;;
1992.0;1926.1;;;;-1.1857492;-0.08197785;-0.09406282;;;;;;;;;;;;;;;
1992.0;1926.1;;;;-1.180607;-0.07770539;-0.09362031;;;;;;;;;;;;;;;
1992.0;1926.1;;;;-1.1750528;-0.07418061;-0.093723305;;;;;;;;;;;;;;;
1992.0;1926.1;;;;-1.1715623;-0.07058335;-0.093601234;;;;;;;;;;;;;;;
1992.0;1926.6;;;;;;;;;;30.514694;-26.547289;22.503586;;;;;;;;;
1992.0;1926.6;;;;;;;1.220252;-0.17053743;0.22864467;;;;;;;;;;;;
1992.0;1926.6;;;;;;;;;;30.766472;-17.0484;19.989624;;;;;;;;;
1992.0;1926.6;;;;;;;1.2245246;-0.18115787;0.22699668;;;;;;;;;;;;
1992.0;1935.8;;;;-1.1699067;-0.06674195;-0.09385683;;;;;;;;;;;;;;;
1992.0;1935.8;;;;-1.168358;-0.06271363;-0.09440996;;;;;;;;;;;;;;;
1992.0;1935.8;;;;-1.166916;-0.058593757;-0.096340194;;;;;;;;;;;;;;;
1992.0;1935.8;;;;-1.16494;-0.054222114;-0.095893875;;;;;;;;;;;;;;;
1992.0;1935.8;;;;-1.1613313;-0.05029679;-0.09642793;;;;;;;;;;;;;;;
1992.0;1935.9;;;;;;;;;;30.888546;-7.942442;17.677847;;;;;;;;;
1992.0;1935.9;;;;;;;1.210181;-0.18842128;0.22510453;;;;;;;;;;;;
1992.0;1935.9;;;;;;;;;;31.151768;0.839259;15.8772545;;;;;;;;;
1992.0;1935.9;;;;;;;1.1908933;-0.19446394;0.22699668;;;;;;;;;;;;
1992.0;1939.4;262143;262143;12476;;;;;;;;;;;;;;;;;;
2028.0;1944.5;;;;;;;;;;;;;;;;;26.852474;-27.764214;53.834652;;1880.3
2028.0;1944.5;;;;;;;;;;;;;;0.98409986;0.2910245;-0.2379223;;;;;1880.3
2028.0;1944.5;;;;;;;;;;;;;;;;;29.057436;-27.325512;56.459244;;1880.3
2028.0;1944.5;;;;;;;;;;;;;;0.9355754;0.2755211;-0.23517564;;;;;1880.3
2028.0;1944.5;;;;;;;;;;;;;;;;;31.228065;-27.72988;58.92743;;1889.9
2028.0;1944.5;;;;;;;;;;;;;;0.89309365;0.26538897;-0.22681357;;;;;1889.9
2028.0;1944.5;;;;;;;;;;;;;;;;;33.665733;-29.042177;60.8272;;1889.9
2028.0;1944.5;;;;;;;;;;;;;;0.8620258;0.26667073;-0.19989623;;;;;1889.9
2028.0;1944.5;;;;;;;;;;;;;;;;;36.664173;-31.44551;62.288277;;1899.6
2028.0;1944.5;;;;;;;;;;;;;;0.85799736;0.29700613;-0.17004913;;;;;1899.6
2028.0;1944.5;;;;;;;;;;;;;;;;;39.15906;-33.604694;62.92154;;1899.6
2028.0;1944.5;;;;;;;;;;;;;;0.8655049;0.32941678;-0.15967284;;;;;1899.6
2028.0;1945.3;;;;;;;;;;31.521805;9.292887;14.33607;;;;;;;;;
2028.0;1945.3;;;;;;;1.1721549;-0.1986755;0.22992645;;;;;;;;;;;;
2028.0;1945.3;;;;;;;;;;31.785027;16.476181;12.493514;;;;;;;;;
2028.0;1945.3;;;;;;;1.1382183;-0.19989623;0.23816645;;;;;;;;;;;;
2028.0;1945.7;;;;-1.157116;-0.046699528;-0.09862138;;;;;;;;;;;;;;;
2028.0;1945.7;;;;-1.1519777;-0.04314423;-0.098541275;;;;;;;;;;;;;;;
2028.0;1945.7;;;;-1.1466562;-0.040225986;-0.099742904;;;;;;;;;;;;;;;
2028.0;1945.7;;;;-1.1406862;-0.037235264;-0.09977724;;;;;;;;;;;;;;;
2028.0;1945.7;;;;-1.1336557;-0.034801487;-0.10038759;;;;;;;;;;;;;;;
2028.0;1954.9;;;;;;;;;;32.021545;21.664328;10.948516;;;;;;;;;
2028.0;1954.9;;;;;;;1.1028168;-0.19446394;0.24677266;;;;;;;;;;;;
2028.0;1954.9;;;;;;;;;;32.319103;24.910732;9.498886;;;;;;;;;
2028.0;1954.9;;;;;;;1.0679036;-0.18884854;0.25800347;;;;;;;;;;;;
2087.0;1955.8;;;;-1.1256601;-0.03193665;-0.10091783;;;;;;;;;;;;;;;
2087.0;1955.8;;;;-1.1167604;-0.029701237;-0.10164262;;;;;;;;;;;;;;;
2087.0;1955.8;;;;-1.108349;-0.027862553;-0.10209276;;;;;;;;;;;;;;;
2087.0;1955.8;;;;-1.1004297;-0.027301792;-0.10270311;;;;;;;;;;;;;;;
2087.0;1955.8;;;;-1.0939409;-0.026908878;-0.103309646;;;;;;;;;;;;;;;
2087.0;1959.3;262143;262143;12468;;;;;;;;;;;;;;;;;;
2087.0;1964.5;;;;;;;;;;32.788326;26.909697;8.20185;;;;;;;;;
2087.0;1964.5;;;;;;;1.0367137;-0.18091373;0.2652669;;;;;;;;;;;;
2087.0;1964.5;;;;;;;;;;33.398697;28.504288;7.0154424;;;;;;;;;
2087.0;1964.5;;;;;;;1.0145574;-0.18323313;0.27259132;;;;;;;;;;;;
2087.0;1965.2;;;;;;;;;;;;;15244;;;;;;;;
2087.0;1965.2;;;;;;;;;;;;;14979;;;;;;;;
2087.0;1965.2;;;;;;;;;;;;;15075;;;;;;;;
2087.0;1965.2;;;;;;;;;;;;;15623;;;;;;;;
2087.0;1965.2;;;;;;;;;;;;;16130;;;;;;;;
2087.0;1965.8;;;;-1.0863572;-0.025867466;-0.10244371;;;;;;;;;;;;;;;
2087.0;1965.8;;;;-1.0790635;-0.025669102;-0.10250093;;;;;;;;;;;;;;;
2087.0;1965.8;;;;-1.071148;-0.02493668;-0.10182954;;;;;;;;;;;;;;;
2087.0;1965.8;;;;-1.0625039;-0.023738865;-0.10037996;;;;;;;;;;;;;;;
2087.0;1965.8;;;;-1.0534478;-0.022499086;-0.09968187;;;;;;;;;;;;;;;
2087.0;1974.1;;;;;;;;;;34.066284;29.320658;6.107517;;;;;;;;;
2087.0;1974.1;;;;;;;1.0021058;-0.18060854;0.27820674;;;;;;;;;;;;
2087.0;1974.1;;;;;;;;;;34.550766;29.087955;5.6764426;;;;;;;;;
2087.0;1974.1;;;;;;;0.98556477;-0.17603077;0.27997681;;;;;;;;;;;;
2089.0;1974.5;;;;;;;;;;;;;;;;;40.566727;-35.287025;62.589645;;1909.2
2089.0;1974.5;;;;;;;;;;;;;;0.8813135;0.35633412;-0.146733;;;;;1909.2
2089.0;1974.5;;;;;;;;;;;;;;;;;40.574356;-36.633656;61.780907;;1909.2
2089.0;1974.5;;;;;;;;;;;;;;0.91170996;0.392407;-0.14148381;;;;;1909.2
2089.0;1974.5;;;;;;;;;;;;;;;;;39.23917;-37.25547;60.65935;;1918.8
2089.0;1974.5;;;;;;;;;;;;;;0.9483322;0.4227424;-0.13837092;;;;;1918.8
2089.0;1974.5;;;;;;;;;;;;;;;;;37.27073;-36.713768;59.259315;;1918.8
2089.0;1974.5;;;;;;;;;;;;;;0.9884945;0.4441664;-0.13336588;;;;;1918.8
2089.0;1974.5;;;;;;;;;;;;;;;;;34.913174;-35.317543;57.931763;;1928.4
2089.0;1974.5;;;;;;;;;;;;;;1.0149846;0.4624775;-0.14062929;;;;;1928.4
2089.0;1974.5;;;;;;;;;;;;;;;;;32.1894;-33.444473;56.920834;;1928.4
2089.0;1974.5;;;;;;;;;;;;;;1.0206;0.4695578;-0.16083254;;;;;1928.4
2089.0;1975.8;;;;-1.0444909;-0.021045687;-0.09949495;;;;;;;;;;;;;;;
2089.0;1975.8;;;;-1.035824;-0.018600466;-0.09827806;;;;;;;;;;;;;;;
2089.0;1975.8;;;;-1.0278054;-0.017013552;-0.097915664;;;;;;;;;;;;;;;
2089.0;1975.8;;;;-1.0199395;-0.016113283;-0.096778885;;;;;;;;;;;;;;;
2089.0;1975.8;;;;-1.0133897;-0.015434267;-0.09564592;;;;;;;;;;;;;;;
2089.0;1979.5;262143;262143;12479;;;;;;;;;;;;;;;;;;
2089.0;1983.5;;;;;;;;;;34.981842;27.798546;5.287332;;;;;;;;;
2089.0;1983.5;;;;;;;0.9685354;-0.16791284;0.27918333;;;;;;;;;;;;
2089.0;1983.5;;;;;;;;;;35.454876;25.936918;4.9211097;;;;;;;;;
2089.0;1983.5;;;;;;;0.94192326;-0.16052736;0.27753532;;;;;;;;;;;;
2148.0;1985.8;;;;-1.0059053;-0.014175417;-0.09492494;;;;;;;;;;;;;;;
2148.0;1985.8;;;;-0.9964982;-0.014228823;-0.09397127;;;;;;;;;;;;;;;
2148.0;1985.8;;;;-0.9873353;-0.01432419;-0.09258271;;;;;;;;;;;;;;;
2148.0;1985.8;;;;-0.97787106;-0.014156343;-0.09193421;;;;;;;;;;;;;;;
2148.0;1985.8;;;;-0.9679147;-0.013931276;-0.09126664;;;;;;;;;;;;;;;
2148.0;1992.9;;;;;;;;;;35.996582;23.792994;4.688406;;;;;;;;;
2148.0;1992.9;;;;;;;0.9255043;-0.15240943;0.27423933;;;;;;;;;;;;
2148.0;1992.9;;;;;;;;;;36.656544;21.485031;4.234443;;;;;;;;;
2148.0;1992.9;;;;;;;0.90920746;-0.14496292;0.2700278;;;;;;;;;;;;
2148.0;1995.7;;;;-0.9578897;-0.014362337;-0.090995796;;;;;;;;;;;;;;;
2148.0;1995.7;;;;-0.94845974;-0.014366152;-0.09052277;;;;;;;;;;;;;;;
2148.0;1995.7;;;;-0.9385911;-0.014644625;-0.09014893;;;;;;;;;;;;;;;
2148.0;1995.7;;;;-0.9288827;-0.0149993915;-0.088989265;;;;;;;;;;;;;;;
2148.0;1995.7;;;;-0.9188615;-0.015666964;-0.08770753;;;;;;;;;;;;;;;
2148.0;1999.4;262143;262143;12472;;;;;;;;;;;;;;;;;;
2148.0;2002.5;;;;;;;;;;37.19825;19.138922;3.7232583;;;;;;;;;
2148.0;2002.5;;;;;;;0.89022493;-0.1350139;0.26374096;;;;;;;;;;;;
2148.0;2002.5;;;;;;;;;;37.785732;17.208624;3.5973694;;;;;;;;;
2148.0;2002.5;;;;;;;0.8833277;-0.12555315;0.25415814;;;;;;;;;;;;
2148.0;2005.3;;;;;;;;;;;;;16082;;;;;;;;
2148.0;2005.3;;;;;;;;;;;;;15291;;;;;;;;
2148.0;2005.3;;;;;;;;;;;;;13937;;;;;;;;
2148.0;2005.3;;;;;;;;;;;;;12600;;;;;;;;
2148.0;2005.3;;;;;;;;;;;;;11537;;;;;;;;
2208.0;2005.8;;;;-0.90929806;-0.016895296;-0.08620835;;;;;;;;;;;;;;;
2208.0;2005.8;;;;-0.8999406;-0.017997744;-0.08586503;;;;;;;;;;;;;;;
2208.0;2005.8;;;;-0.8908273;-0.01904297;-0.0841446;;;;;;;;;;;;;;;
2208.0;2005.8;;;;-0.88227093;-0.020278933;-0.08254624;;;;;;;;;;;;;;;
2208.0;2005.8;;;;-0.873314;-0.021766664;-0.08090211;;;;;;;;;;;;;;;
2208.0;2012.1;;;;;;;;;;38.346508;15.56444;3.5935545;;;;;;;;;
2208.0;2012.1;;;;;;;0.88015383;-0.11761834;0.24414808;;;;;;;;;;;;
2208.0;2012.1;;;;;;;;;;38.804287;14.160588;3.456221;;;;;;;;;
2208.0;2012.1;;;;;;;0.8703269;-0.10492264;0.23603015;;;;;;;;;;;;
2208.0;2015.9;;;;-0.8643838;-0.022926332;-0.07983781;;;;;;;;;;;;;;;
2208.0;2015.9;;;;-0.85520184;-0.024070743;-0.07894898;;;;;;;;;;;;;;;
2208.0;2015.9;;;;-0.8456727;-0.025630955;-0.07798768;;;;;;;;;;;;;;;
2208.0;2015.9;;;;-0.8356935;-0.026386265;-0.07715226;;;;;;;;;;;;;;;
2208.0;2015.9;;;;-0.82600796;-0.02826691;-0.07664109;;;;;;;;;;;;;;;
2208.0;2019.7;262143;262143;12464;;;;;;;;;;;;;;;;;;
2208.0;2021.8;;;;;;;;;;39.235355;13.241219;3.3036287;;;;;;;;;
2208.0;2021.8;;;;;;;0.86092716;-0.09430219;0.22840053;;;;;;;;;;;;
2208.0;2021.8;;;;;;;;;;39.548172;12.779626;3.2883694;;;;;;;;;
2208.0;2021.8;;;;;;;0.850734;-0.08264413;0.22321238;;;;;;;;;;;;
2211.0;2026.0;;;;-0.81596386;-0.029708866;-0.07683564;;;;;;;;;;;;;;;
2211.0;2026.0;;;;-0.80545056;-0.031112675;-0.075630195;;;;;;;;;;;;;;;
2211.0;2026.0;;;;-0.79420483;-0.032592777;-0.07496644;;;;;;;;;;;;;;;
2211.0;2026.0;;;;-0.7847749;-0.033996586;-0.07447053;;;;;;;;;;;;;;;
2211.0;2026.0;;;;-0.7760354;-0.035572056;-0.07360078;;;;;;;;;;;;;;;
2211.0;2027.3;;;;;;;;;;;;;;;;;29.190954;-31.826992;55.963314;;1938.0
2211.0;2027.3;;;;;;;;;;;;;;1.0315256;0.45637378;-0.18341625;;;;;1938.0
2211.0;2027.3;;;;;;;;;;;;;;;;;26.028473;-30.106508;55.51317;;1938.0
2211.0;2027.3;;;;;;;;;;;;;;1.0329294;0.46504104;-0.1932432;;;;;1938.0
2211.0;2027.3;;;;;;;;;;;;;;;;;22.72103;-28.756065;55.57802;;1947.7
2211.0;2027.3;;;;;;;;;;;;;;1.0390942;0.43702507;-0.1986755;;;;;1947.7
2211.0;2027.3;;;;;;;;;;;;;;;;;19.840845;-27.11951;55.738243;;1947.7
2211.0;2027.3;;;;;;;;;;;;;;1.0265816;0.42347485;-0.21271402;;;;;1947.7
2211.0;2027.3;;;;;;;;;;;;;;;;;17.548143;-25.749992;56.253242;;1957.2
2211.0;2027.3;;;;;;;;;;;;;;1.0090029;0.40333262;-0.21918394;;;;;1957.2
2211.0;2027.3;;;;;;;;;;;;;;;;;15.625477;-25.048065;57.184055;;1957.2
2211.0;2027.3;;;;;;;;;;;;;;0.9795221;0.364391;-0.22534868;;;;;1957.2
2215.0;2028.4;;;;;;;;;;;;;;;;;14.389478;-25.17014;58.187355;;1966.7
2215.0;2028.4;;;;;;;;;;;;;;0.9717704;0.3322245;-0.21686453;;;;;1966.7
2215.0;2028.4;;;;;;;;;;;;;;;;;13.393811;-24.769585;59.686577;;1966.7
2215.0;2028.4;;;;;;;;;;;;;;0.9666433;0.30042422;-0.20789209;;;;;1966.7
2215.0;2028.4;;;;;;;;;;;;;;;;;12.916959;-23.796808;61.57872;;1976.4
2215.0;2028.4;;;;;;;;;;;;;;0.9515061;0.2757042;-0.1902524;;;;;1976.4
2215.0;2028.4;;;;;;;;;;;;;;;;;12.455366;-23.056734;63.71502;;1976.4
2215.0;2028.4;;;;;;;;;;;;;;0.9461348;0.26606035;-0.1906186;;;;;1976.4
2215.0;2028.4;;;;;;;;;;;;;;;;;11.795404;-22.251808;66.118355;;1986.0
2215.0;2028.4;;;;;;;;;;;;;;0.9263588;0.22992645;-0.20447402;;;;;1986.0
2215.0;2028.4;;;;;;;;;;;;;;;;;12.1654415;-21.931364;68.23939;;1986.0
2215.0;2028.4;;;;;;;;;;;;;;0.9180578;0.1984924;-0.20618305;;;;;1986.0
2215.0;2031.2;;;;;;;;;;39.91058;12.531663;3.2654805;;;;;;;;;
2215.0;2031.2;;;;;;;0.84328747;-0.06927702;0.21753594;;;;;;;;;;;;
2215.0;2031.2;;;;;;;;;;40.177616;12.5125885;3.131962;;;;;;;;;
2215.0;2031.2;;;;;;;0.83242285;-0.057679985;0.21179846;;;;;;;;;;;;
2215.0;2035.9;;;;-0.7676393;-0.037998203;-0.0739174;;;;;;;;;;;;;;;
2215.0;2035.9;;;;-0.7599908;-0.039882664;-0.07323075;;;;;;;;;;;;;;;
2215.0;2035.9;;;;-0.75408185;-0.04256058;-0.07346345;;;;;;;;;;;;;;;
2215.0;2035.9;;;;-0.74903494;-0.045139316;-0.072177894;;;;;;;;;;;;;;;
2215.0;2035.9;;;;-0.746357;-0.047344215;-0.07025529;;;;;;;;;;;;;;;
2215.0;2039.7;262143;262143;12462;;;;;;;;;;;;;;;;;;
2217.0;2040.8;;;;;;;;;;40.41795;12.882626;3.0251474;;;;;;;;;
2217.0;2040.8;;;;;;;0.82576984;-0.044984285;0.2031312;;;;;;;;;;;;
2217.0;2040.8;;;;;;;;;;40.601063;13.3137;2.5749993;;;;;;;;;
2217.0;2040.8;;;;;;;0.82033753;-0.0314951;0.19721061;;;;;;;;;;;;
2217.0;2045.5;;;;;;;;;;;;;10301;;;;;;;;
2217.0;2045.5;;;;;;;;;;;;;8739;;;;;;;;
2217.0;2045.5;;;;;;;;;;;;;7392;;;;;;;;
2217.0;2045.5;;;;;;;;;;;;;6659;;;;;;;;
2217.0;2045.5;;;;;;;;;;;;;6327;;;;;;;;
2217.0;2045.9;;;;-0.7445145;-0.048992164;-0.06975175;;;;;;;;;;;;;;;
2217.0;2045.9;;;;-0.7441445;-0.050754555;-0.069263466;;;;;;;;;;;;;;;
2217.0;2045.9;;;;-0.743969;-0.051162727;-0.06892396;;;;;;;;;;;;;;;
2217.0;2045.9;;;;-0.744381;-0.051315315;-0.06896592;;;;;;;;;;;;;;;
2217.0;2045.9;;;;-0.74369055;-0.051624306;-0.06916047;;;;;;;;;;;;;;;
2217.0;2050.2;;;;;;;;;;40.818504;13.832514;2.212592;;;;;;;;;
2217.0;2050.2;;;;;;;0.81258583;-0.023010956;0.19409773;;;;;;;;;;;;
2217.0;2050.2;;;;;;;;;;41.093174;14.305552;1.7319254;;;;;;;;;
2217.0;2050.2;;;;;;;0.80721456;-0.016968291;0.1937315;;;;;;;;;;;;
2217.0;2055.7;;;;-0.74242026;-0.051494606;-0.06889344;;;;;;;;;;;;;;;
2217.0;2055.7;;;;-0.7402993;-0.051410682;-0.068962105;;;;;;;;;;;;;;;
2217.0;2055.7;;;;-0.7381707;-0.051593788;-0.0671692;;;;;;;;;;;;;;;
2217.0;2055.7;;;;-0.73618704;-0.051776893;-0.06621934;;;;;;;;;;;;;;;
2217.0;2055.7;;;;-0.7353936;-0.051452644;-0.06567765;;;;;;;;;;;;;;;
2217.0;2059.6;;;;;;;;;;41.26484;14.866329;0.9537034;;;;;;;;;
2217.0;2059.6;;;;;;;0.79482406;-0.008484146;0.19116795;;;;;;;;;;;;
2217.0;2059.6;;;;;;;;;;41.49373;15.373699;0.48448133;;;;;;;;;
2217.0;2059.6;;;;;;;0.7801141;-0.0017090365;0.18836024;;;;;;;;;;;;
2220.0;2059.5;262143;262143;12464;;;;;;;;;;;;;;;;;;
2220.0;2065.8;;;;-0.7347489;-0.05171586;-0.06523133;;;;;;;;;;;;;;;
2220.0;2065.8;;;;-0.7352143;-0.052165993;-0.063926704;;;;;;;;;;;;;;;
2220.0;2065.8;;;;-0.7355729;-0.052436836;-0.06408311;;;;;;;;;;;;;;;
2220.0;2065.8;;;;-0.7350846;-0.05314637;-0.06400681;;;;;;;;;;;;;;;
2220.0;2065.8;;;;-0.73388296;-0.05373002;-0.06188584;;;;;;;;;;;;;;;
2220.0;2069.2;;;;;;;;;;41.684467;15.766624;0.10299997;;;;;;;;;
2220.0;2069.2;;;;;;;0.76418346;0.0056154057;0.18536943;;;;;;;;;;;;
2220.0;2069.2;;;;;;;;;;41.85995;15.896328;-0.27466658;;;;;;;;;
2220.0;2069.2;;;;;;;0.75515;0.016663106;0.18207343;;;;;;;;;;;;
2220.0;2075.9;;;;-0.7314034;-0.05426026;-0.05957795;;;;;;;;;;;;;;;
2220.0;2075.9;;;;-0.72920233;-0.05459977;-0.05823899;;;;;;;;;;;;;;;
2220.0;2075.9;;;;-0.72616583;-0.054306038;-0.057529457;;;;;;;;;;;;;;;
2220.0;2075.9;;;;-0.72292715;-0.054309852;-0.056121834;;;;;;;;;;;;;;;
2220.0;2075.9;;;;-0.719307;-0.054344185;-0.055114754;;;;;;;;;;;;;;;
2220.0;2078.8;;;;;;;;;;41.93625;15.892513;-0.93844414;;;;;;;;;
2220.0;2078.8;;;;;;;0.7447737;0.02130192;0.18213446;;;;;;;;;;;;
2220.0;2078.8;;;;;;;;;;42.03543;15.720848;-1.5793328;;;;;;;;;
2220.0;2078.8;;;;;;;0.7268288;0.0270394;0.18292795;;;;;;;;;;;;
2220.0;2079.8;262143;262143;12482;;;;;;;;;;;;;;;;;;
2220.0;2085.7;;;;;;;;;;;;;5940;;;;;;;;
2220.0;2085.7;;;;;;;;;;;;;5594;;;;;;;;
2220.0;2085.7;;;;;;;;;;;;;5916;;;;;;;;
2220.0;2085.7;;;;;;;;;;;;;7375;;;;;;;;
2220.0;2085.7;;;;;;;;;;;;;9727;;;;;;;;
2221.0;2086.0;;;;-0.7154084;-0.054740913;-0.05439759;;;;;;;;;;;;;;;
2221.0;2086.0;;;;-0.7116242;-0.054183967;-0.053047188;;;;;;;;;;;;;;;
2221.0;2086.0;;;;-0.7074433;-0.053947456;-0.051322944;;;;;;;;;;;;;;;
2221.0;2086.0;;;;-0.7029801;-0.0539589;-0.05070115;;;;;;;;;;;;;;;
2221.0;2086.0;;;;-0.69878775;-0.054027565;-0.04949189;;;;;;;;;;;;;;;
2221.0;2087.3;;;;;;;;;;;;;;;;;13.2107;-21.588032;70.291756;;1995.7
2221.0;2087.3;;;;;;;;;;;;;;0.90212715;0.16101566;-0.21332438;;;;;1995.7
2221.0;2087.3;;;;;;;;;;;;;;;;;15.224921;-21.29429;71.79861;;1995.7
2221.0;2087.3;;;;;;;;;;;;;;0.9011505;0.19586779;-0.1993469;;;;;1995.7
2221.0;2087.3;;;;;;;;;;;;;;;;;15.125736;-20.287178;73.065125;;2005.3
2221.0;2087.3;;;;;;;;;;;;;;0.87490463;0.17542039;-0.20899075;;;;;2005.3
2221.0;2087.3;;;;;;;;;;;;;;;;;15.213477;-19.810328;72.93161;;2005.3
2221.0;2087.3;;;;;;;;;;;;;;0.86434525;0.16119877;-0.20392469;;;;;2005.3
2221.0;2087.3;;;;;;;;;;;;;;;;;16.014587;-20.203253;72.500534;;2014.9
2221.0;2087.3;;;;;;;;;;;;;;0.8692892;0.1445967;-0.21814631;;;;;2014.9
2221.0;2087.3;;;;;;;;;;;;;;;;;17.399364;-20.275734;71.71468;;2014.9
2221.0;2087.3;;;;;;;;;;;;;;0.85946226;0.120548114;-0.22070986;;;;;2014.9
2222.0;2088.1;;;;;;;;;;;;;;;;;19.032106;-20.332956;70.82964;;2024.6
2222.0;2088.1;;;;;;;;;;;;;;0.86788535;0.1076693;-0.22846156;;;;;2024.6
2222.0;2088.1;;;;;;;;;;;;;;;;;20.05829;-19.150366;70.38712;;2024.6
2222.0;2088.1;;;;;;;;;;;;;;0.8734397;0.14496292;-0.20636617;;;;;2024.6
2222.0;2088.1;;;;;;;;;;;;;;;;;20.0354;-17.944883;70.21165;;2034.2
2222.0;2088.1;;;;;;;;;;;;;;0.8753319;0.19080172;-0.2024598;;;;;2034.2
2222.0;2088.1;;;;;;;;;;;;;;;;;19.062624;-17.60918;69.53642;;2034.2
2222.0;2088.1;;;;;;;;;;;;;;0.8888821;0.14777063;-0.17908262;;;;;2034.2
2222.0;2088.1;;;;;;;;;;;;;;;;;18.97107;-17.689291;67.97616;;2043.9
2222.0;2088.1;;;;;;;;;;;;;;0.9015168;0.15503404;-0.19452497;;;;;2043.9
2222.0;2088.1;;;;;;;;;;;;;;;;;18.43318;-16.270182;66.42735;;2043.9
2222.0;2088.1;;;;;;;;;;;;;;0.887051;0.14978485;-0.17859432;;;;;2043.9
2222.0;2088.2;;;;;;;;;;42.08121;15.346995;-1.9150364;;;;;;;;;
2222.0;2088.2;;;;;;;0.71626943;0.032471694;0.18335521;;;;;;;;;;;;
2222.0;2088.2;;;;;;;;;;42.119358;14.84344;-2.5711844;;;;;;;;;
2222.0;2088.2;;;;;;;0.70625937;0.03784295;0.18225653;;;;;;;;;;;;
2222.0;2095.9;;;;-0.6950112;-0.053882606;-0.048892982;;;;;;;;;;;;;;;
2222.0;2095.9;;;;-0.6915932;-0.05287934;-0.048366554;;;;;;;;;;;;;;;
2222.0;2095.9;;;;-0.68873984;-0.052314766;-0.047565468;;;;;;;;;;;;;;;
2222.0;2095.9;;;;-0.6868096;-0.051647194;-0.046985634;;;;;;;;;;;;;;;
2222.0;2095.9;;;;-0.68555456;-0.050846107;-0.04560471;;;;;;;;;;;;;;;
2222.0;2097.9;;;;;;;;;;42.22236;14.267404;-3.2502213;;;;;;;;;
2222.0;2097.9;;;;;;;0.70149845;0.044984285;0.17670217;;;;;;;;;;;;
2222.0;2097.9;;;;;;;;;;42.226173;13.653218;-3.8758507;;;;;;;;;
2222.0;2097.9;;;;;;;0.69454026;0.050904874;0.17303994;;;;;;;;;;;;
2223.0;2099.8;262143;262143;12475;;;;;;;;;;;;;;;;;;
2223.0;2105.9;;;;-0.6842919;-0.04962922;-0.044277195;;;;;;;;;;;;;;;
2223.0;2105.9;;;;-0.6847916;-0.049243934;-0.043365482;;;;;;;;;;;;;;;
2223.0;2105.9;;;;-0.68630606;-0.048213966;-0.042751316;;;;;;;;;;;;;;;
2223.0;2105.9;;;;-0.68804175;-0.04812623;-0.042358402;;;;;;;;;;;;;;;
2223.0;2105.9;;;;-0.6914368;-0.04808808;-0.04214478;;;;;;;;;;;;;;;
2223.0;2107.4;;;;;;;;;;42.218544;13.035218;-4.2115545;;;;;;;;;
2223.0;2107.4;;;;;;;0.68910795;0.052735984;0.16803491;;;;;;;;;;;;
2223.0;2107.4;;;;;;;;;;42.18421;12.524033;-4.6197395;;;;;;;;;
2223.0;2107.4;;;;;;;0.6873379;0.057679985;0.16559343;;;;;;;;;;;;
2223.0;2115.7;;;;-0.69491965;-0.047500618;-0.042293552;;;;;;;;;;;;;;;
2223.0;2115.7;;;;-0.698906;-0.04735566;-0.042861942;;;;;;;;;;;;;;;
2223.0;2115.7;;;;-0.7034264;-0.046745304;-0.042945866;;;;;;;;;;;;;;;
2223.0;2115.7;;;;-0.7069741;-0.045375828;-0.042545322;;;;;;;;;;;;;;;
2223.0;2115.7;;;;-0.7106934;-0.043807987;-0.040401462;;;;;;;;;;;;;;;
2223.0;2116.8;;;;;;;;;;42.15369;12.237923;-5.157628;;;;;;;;;
2223.0;2116.8;;;;;;;0.68300426;0.06378368;0.16180913;;;;;;;;;;;;
2223.0;2116.8;;;;;;;;;;42.039246;12.001404;-5.710776;;;;;;;;;
2223.0;2116.8;;;;;;;0.67250586;0.06872769;0.15643787;;;;;;;;;;;;
2223.0;2119.8;262143;262143;12480;;;;;;;;;;;;;;;;;;
2223.0;2125.7;;;;;;;;;;;;;12049;;;;;;;;
2223.0;2125.7;;;;;;;;;;;;;13620;;;;;;;;
2223.0;2125.7;;;;;;;;;;;;;14534;;;;;;;;
2223.0;2125.7;;;;;;;;;;;;;15340;;;;;;;;
2223.0;2125.7;;;;;;;;;;;;;16068;;;;;;;;
2225.0;2125.9;;;;-0.7131043;-0.041873936;-0.03948212;;;;;;;;;;;;;;;
2225.0;2125.9;;;;-0.7142144;-0.040557865;-0.039665226;;;;;;;;;;;;;;;
2225.0;2125.9;;;;-0.7149773;-0.03853226;-0.038700107;;;;;;;;;;;;;;;
2225.0;2125.9;;;;-0.7165604;-0.036556248;-0.037002567;;;;;;;;;;;;;;;
2225.0;2125.9;;;;-0.7180367;-0.034931187;-0.0353241;;;;;;;;;;;;;;;
2225.0;2126.4;;;;;;;;;;41.87521;11.734367;-5.6955166;;;;;;;;;
2225.0;2126.4;;;;;;;0.66316724;0.07525864;0.15356915;;;;;;;;;;;;
2225.0;2126.4;;;;;;;;;;41.74169;11.14307;-5.6001463;;;;;;;;;
2225.0;2126.4;;;;;;;0.65883356;0.08142339;0.15478988;;;;;;;;;;;;
2225.0;2136.0;;;;-0.71955496;-0.033603672;-0.033664707;;;;;;;;;;;;;;;
2225.0;2136.0;;;;-0.7212792;-0.033222202;-0.03213883;;;;;;;;;;;;;;;
2225.0;2136.0;;;;-0.72341925;-0.031925205;-0.030925754;;;;;;;;;;;;;;;
2225.0;2136.0;;;;-0.7259217;-0.031982426;-0.028774265;;;;;;;;;;;;;;;
2225.0;2136.0;;;;-0.7292748;-0.032493595;-0.02769852;;;;;;;;;;;;;;;
2225.0;2136.0;;;;;;;;;;41.46321;10.284738;-5.6993318;;;;;;;;;
2225.0;2136.0;;;;;;;0.6538896;0.08832057;0.15259255;;;;;;;;;;;;
2225.0;2136.0;;;;;;;;;;41.112247;9.109776;-6.0312204;;;;;;;;;
2225.0;2136.0;;;;;;;0.6523026;0.09485153;0.14966278;;;;;;;;;;;;
2225.0;2140.0;262143;262143;12481;;;;;;;;;;;;;;;;;;
2225.0;2145.7;;;;;;;;;;40.81469;7.8356276;-6.2944427;;;;;;;;;
2225.0;2145.7;;;;;;;0.65413374;0.100711085;0.15143284;;;;;;;;;;;;
2225.0;2145.7;;;;;;;;;;40.494247;6.3058867;-6.431776;;;;;;;;;
2225.0;2145.7;;;;;;;0.6563921;0.10577715;0.15155491;;;;;;;;;;;;
2227.0;2146.1;;;;-0.7332726;-0.032848362;-0.026474003;;;;;;;;;;;;;;;
2227.0;2146.1;;;;-0.73749167;-0.033363346;-0.024158482;;;;;;;;;;;;;;;
2227.0;2146.1;;;;-0.74230963;-0.033760075;-0.021816256;;;;;;;;;;;;;;;
2227.0;2146.1;;;;-0.74735266;-0.033897404;-0.019607546;;;;;;;;;;;;;;;
2227.0;2146.1;;;;-0.75202954;-0.033744816;-0.018085482;;;;;;;;;;;;;;;
2227.0;2147.7;;;;;;;;;;;;;;;;;17.887661;-15.900145;64.61532;;2053.5
2227.0;2147.7;;;;;;;;;;;;;;0.88021487;0.12494278;-0.17896055;;;;;2053.5
2227.0;2147.7;;;;;;;;;;;;;;;;;18.074587;-15.549181;62.223427;;2053.5
2227.0;2147.7;;;;;;;;;;;;;;0.89022493;0.10260323;-0.16956083;;;;;2053.5
2227.0;2147.7;;;;;;;;;;;;;;;;;18.063143;-14.042329;59.89639;;2063.2
2227.0;2147.7;;;;;;;;;;;;;;0.8683737;0.07367168;-0.16193122;;;;;2063.2
2227.0;2147.7;;;;;;;;;;;;;;;;;18.799402;-12.390514;56.302834;;2063.2
2227.0;2147.7;;;;;;;;;;;;;;0.8364513;0.03912473;-0.15533921;;;;;2063.2
2227.0;2147.7;;;;;;;;;;;;;;;;;19.87518;-11.631367;53.29295;;2072.9
2227.0;2147.7;;;;;;;;;;;;;;0.82515943;0.05816828;-0.13617359;;;;;2072.9
2227.0;2147.7;;;;;;;;;;;;;;;;;20.180365;-10.677664;50.897243;;2072.9
2227.0;2147.7;;;;;;;;;;;;;;0.8069094;0.049134802;-0.11737419;;;;;2072.9
2228.0;2148.5;;;;;;;;;;;;;;;;;20.630512;-10.471663;48.829617;;2082.5
2228.0;2148.5;;;;;;;;;;;;;;0.7970214;0.04895169;-0.109866634;;;;;2082.5
2228.0;2148.5;;;;;;;;;;;;;;;;;21.549883;-10.204626;47.12058;;2082.5
2228.0;2148.5;;;;;;;;;;;;;;0.78811;0.048890654;-0.10626545;;;;;2082.5
2228.0;2148.5;;;;;;;;;;;;;;;;;23.369549;-9.823145;45.64806;;2092.1
2228.0;2148.5;;;;;;;;;;;;;;0.77895445;0.07434309;-0.107181005;;;;;2092.1
2228.0;2148.5;;;;;;;;;;;;;;;;;24.575031;-9.292887;44.42732;;2092.1
2228.0;2148.5;;;;;;;;;;;;;;0.77083653;0.09350871;-0.10382397;;;;;2092.1
2228.0;2148.5;;;;;;;;;;;;;;;;;24.395735;-8.781701;43.740654;;2101.7
2228.0;2148.5;;;;;;;;;;;;;;0.76149786;0.109195225;-0.113101594;;;;;2101.7
2228.0;2148.5;;;;;;;;;;;;;;;;;23.308512;-8.434553;43.72158;;2101.7
2228.0;2148.5;;;;;;;;;;;;;;0.7373272;0.14490189;-0.11938841;;;;;2101.7
2228.0;2155.2;;;;;;;;;;40.21195;4.6998506;-6.416517;;;;;;;;;
2228.0;2155.2;;;;;;;0.6537065;0.110415965;0.15094455;;;;;;;;;;;;
2228.0;2155.2;;;;;;;;;;40.051727;3.3074436;-6.3364053;;;;;;;;;
2228.0;2155.2;;;;;;;0.6551103;0.11572619;0.15173803;;;;;;;;;;;;
2228.0;2156.1;;;;-0.75561917;-0.032470707;-0.016235353;;;;;;;;;;;;;;;
2228.0;2156.1;;;;-0.75706875;-0.031341556;-0.014122011;;;;;;;;;;;;;;;
2228.0;2156.1;;;;-0.7600709;-0.030948643;-0.012031557;;;;;;;;;;;;;;;
2228.0;2156.1;;;;-0.7633363;-0.02952576;-0.011379243;;;;;;;;;;;;;;;
2228.0;2156.1;;;;-0.7671472;-0.028091434;-0.011096955;;;;;;;;;;;;;;;
2228.0;2160.2;262143;262143;12487;;;;;;;;;;;;;;;;;;
2268.0;2164.7;;;;;;;;;;39.769432;2.2392957;-6.2906275;;;;;;;;;
2268.0;2164.7;;;;;;;0.6584063;0.12225715;0.14972381;;;;;;;;;;;;
2268.0;2164.7;;;;;;;;;;39.30784;1.3542589;-6.14948;;;;;;;;;
2268.0;2164.7;;;;;;;0.6681112;0.12659077;0.14801477;;;;;;;;;;;;
2268.0;2165.9;;;;;;;;;;;;;16079;;;;;;;;
2268.0;2165.9;;;;;;;;;;;;;15218;;;;;;;;
2268.0;2165.9;;;;;;;;;;;;;14175;;;;;;;;
2268.0;2165.9;;;;;;;;;;;;;13521;;;;;;;;
2268.0;2165.9;;;;;;;;;;;;;13166;;;;;;;;
2268.0;2166.1;;;;-0.7724534;-0.027656559;-0.009563447;;;;;;;;;;;;;;;
2268.0;2166.1;;;;-0.78045666;-0.02643967;-0.008922578;;;;;;;;;;;;;;;
2268.0;2166.1;;;;-0.78914654;-0.024829868;-0.008026124;;;;;;;;;;;;;;;
2268.0;2166.1;;;;-0.79789364;-0.023841862;-0.005996705;;;;;;;;;;;;;;;
2268.0;2166.1;;;;-0.8056146;-0.022239687;-0.0038566594;;;;;;;;;;;;;;;
2268.0;2174.1;;;;;;;;;;38.853878;0.59511095;-6.1571097;;;;;;;;;
2268.0;2174.1;;;;;;;0.67940307;0.12927641;0.15045625;;;;;;;;;;;;
2268.0;2174.1;;;;;;;;;;38.346508;-0.09155553;-6.1914425;;;;;;;;;
2268.0;2174.1;;;;;;;0.6950896;0.13531907;0.15326396;;;;;;;;;;;;
2268.0;2175.8;;;;-0.81201184;-0.01931;-0.0026016238;;;;;;;;;;;;;;;
2268.0;2175.8;;;;-0.8177072;-0.016716005;-0.0018692019;;;;;;;;;;;;;;;
2268.0;2175.8;;;;-0.82312024;-0.014690401;-0.0019111636;;;;;;;;;;;;;;;
2268.0;2175.8;;;;-0.82930386;-0.012287142;-8.773805E-4;;;;;;;;;;;;;;;
2268.0;2175.8;;;;-0.83652127;-0.010177613;2.0217898E-4;;;;;;;;;;;;;;;
2268.0;2179.8;262143;262143;12476;;;;;;;;;;;;;;;;;;
2270.0;2183.3;;;;;;;;;;37.69036;-0.8163701;-6.107517;;;;;;;;;
2270.0;2183.3;;;;;;;0.7053438;0.13599049;0.15637684;;;;;;;;;;;;
2270.0;2183.3;;;;;;;;;;37.053288;-1.5793328;-5.996887;;;;;;;;;
2270.0;2183.3;;;;;;;0.71217996;0.13818781;0.16064943;;;;;;;;;;;;
2270.0;2185.6;;;;-0.8455621;-0.0088386545;0.0019989016;;;;;;;;;;;;;;;
2270.0;2185.6;;;;-0.85579693;-0.007431031;0.0033378606;;;;;;;;;;;;;;;
2270.0;2185.6;;;;-0.86571515;-0.006134034;0.0058364873;;;;;;;;;;;;;;;
2270.0;2185.6;;;;-0.8766252;-0.004718781;0.008312226;;;;;;;;;;;;;;;
2270.0;2185.6;;;;-0.88840115;-0.0021286013;0.009864808;;;;;;;;;;;;;;;
2270.0;2192.8;;;;;;;;;;36.324657;-2.3079624;-5.916776;;;;;;;;;
2270.0;2192.8;;;;;;;0.71864986;0.1429487;0.16565447;;;;;;;;;;;;
2270.0;2192.8;;;;;;;;;;35.500656;-2.750481;-6.0312204;;;;;;;;;
2270.0;2192.8;;;;;;;0.73085725;0.15015107;0.16986603;;;;;;;;;;;;
2270.0;2195.7;;;;-0.8998872;8.735658E-4;0.010669709;;;;;;;;;;;;;;;
2270.0;2195.7;;;;-0.91175854;0.0043983464;0.011734011;;;;;;;;;;;;;;;
2270.0;2195.7;;;;-0.9240571;0.008148194;0.0137558;;;;;;;;;;;;;;;
2270.0;2195.7;;;;-0.9342042;0.0127563495;0.015560152;;;;;;;;;;;;;;;
2270.0;2195.7;;;;-0.9433862;0.01753235;0.016723635;;;;;;;;;;;;;;;
2270.0;2199.9;262143;262143;12481;;;;;;;;;;;;;;;;;;
2270.0;2202.5;;;;;;;;;;34.60417;-3.1128879;-6.0541096;;;;;;;;;
2270.0;2202.5;;;;;;;0.74434644;0.15918455;0.17767876;;;;;;;;;;;;
2270.0;2202.5;;;;;;;;;;33.680992;-3.4676657;-6.0388503;;;;;;;;;
2270.0;2202.5;;;;;;;0.7506943;0.1655324;0.18457595;;;;;;;;;;;;
2272.0;2205.8;;;;;;;;;;;;;12813;;;;;;;;
2272.0;2205.8;;;;;;;;;;;;;12593;;;;;;;;
2272.0;2205.8;;;;;;;;;;;;;12692;;;;;;;;
2272.0;2205.8;;;;;;;;;;;;;12845;;;;;;;;
2272.0;2205.8;;;;;;;;;;;;;12832;;;;;;;;
2272.0;2205.8;;;;-0.95253;0.022457125;0.01815796;;;;;;;;;;;;;;;
2272.0;2205.8;;;;-0.9608232;0.027217869;0.019023897;;;;;;;;;;;;;;;
2272.0;2205.8;;;;-0.9696084;0.03199387;0.019702913;;;;;;;;;;;;;;;
2272.0;2205.8;;;;-0.9796983;0.03577805;0.019565584;;;;;;;;;;;;;;;
2272.0;2205.8;;;;-0.99126065;0.03948975;0.020896913;;;;;;;;;;;;;;;
2272.0;2207.9;;;;;;;;;;;;;;;;;22.026735;-8.610034;43.954285;;2111.4
2272.0;2207.9;;;;;;;;;;;;;;0.7378155;0.16711935;-0.11902219;;;;;2111.4
2272.0;2207.9;;;;;;;;;;;;;;;;;21.130253;-8.384961;44.1641;;2111.4
2272.0;2207.9;;;;;;;;;;;;;;0.72743917;0.18323313;-0.12195197;;;;;2111.4
2272.0;2207.9;;;;;;;;;;;;;;;;;20.668661;-8.217109;44.331947;;2121.1
2272.0;2207.9;;;;;;;;;;;;;;0.7145604;0.1920835;-0.13727225;;;;;2121.1
2272.0;2207.9;;;;;;;;;;;;;;;;;21.07303;-8.4421835;44.644764;;2121.1
2272.0;2207.9;;;;;;;;;;;;;;0.70296335;0.19641712;-0.151677;;;;;2121.1
2272.0;2207.9;;;;;;;;;;;;;;;;;21.534624;-8.976256;44.423504;;2130.4
2272.0;2207.9;;;;;;;;;;;;;;0.7101047;0.19318217;-0.14056826;;;;;2130.4
2272.0;2207.9;;;;;;;;;;;;;;;;;20.599995;-9.21659;44.167915;;2130.4
2272.0;2207.9;;;;;;;;;;;;;;0.71791744;0.18726158;-0.12158574;;;;;2130.4
2274.0;2208.7;;;;;;;;;;;;;;;;;18.829922;-9.723961;44.11069;;2140.1
2274.0;2208.7;;;;;;;;;;;;;;0.7226783;0.18115787;-0.10773034;;;;;2140.1
2274.0;2208.7;;;;;;;;;;;;;;;;;16.647848;-10.174108;44.23658;;2140.1
2274.0;2208.7;;;;;;;;;;;;;;0.743614;0.1805475;-0.11505478;;;;;2140.1
2274.0;2208.7;;;;;;;;;;;;;;;;;13.0809965;-9.254738;44.949947;;2149.8
2274.0;2208.7;;;;;;;;;;;;;;0.76021606;0.17365032;-0.13776055;;;;;2149.8
2274.0;2208.7;;;;;;;;;;;;;;;;;9.624775;-7.8394423;45.903652;;2149.8
2274.0;2208.7;;;;;;;;;;;;;;0.7830439;0.16974396;-0.17218544;;;;;2149.8
2274.0;2208.7;;;;;;;;;;;;;;;;;7.675405;-6.363109;46.704765;;2159.4
2274.0;2208.7;;;;;;;;;;;;;;0.80849636;0.15833002;-0.17084262;;;;;2159.4
2274.0;2208.7;;;;;;;;;;;;;;;;;7.7745905;-5.6573687;47.14728;;2159.4
2274.0;2208.7;;;;;;;;;;;;;;0.8473159;0.14441359;-0.15228736;;;;;2159.4
2274.0;2212.0;;;;;;;;;;32.662437;-3.7041843;-5.981628;;;;;;;;;
2274.0;2212.0;;;;;;;0.7588733;0.16974396;0.19006927;;;;;;;;;;;;
2274.0;2212.0;;;;;;;;;;31.601917;-3.7614062;-5.9511094;;;;;;;;;
2274.0;2212.0;;;;;;;0.76955473;0.17468795;0.19684438;;;;;;;;;;;;
2274.0;2215.8;;;;-1.0033685;0.043327335;0.022785189;;;;;;;;;;;;;;;
2274.0;2215.8;;;;-1.0155488;0.047569282;0.02431107;;;;;;;;;;;;;;;
2274.0;2215.8;;;;-1.0282136;0.051933296;0.025314335;;;;;;;;;;;;;;;
2274.0;2215.8;;;;-1.0430566;0.056316383;0.025257114;;;;;;;;;;;;;;;
2274.0;2215.8;;;;-1.0581895;0.061115272;0.0248642;;;;;;;;;;;;;;;
2274.0;2220.0;262143;262143;12499;;;;;;;;;;;;;;;;;;
2329.0;2221.6;;;;;;;;;;30.49562;-3.9979248;-6.0274057;;;;;;;;;
2329.0;2221.6;;;;;;;0.781518;0.17859432;0.20392469;;;;;;;;;;;;
2329.0;2221.6;;;;;;;;;;29.271067;-4.1085544;-6.164739;;;;;;;;;
2329.0;2221.6;;;;;;;0.79464096;0.17993714;0.20941801;;;;;;;;;;;;
2329.0;2225.8;;;;-1.0735818;0.06671143;0.025241856;;;;;;;;;;;;;;;
2329.0;2225.8;;;;-1.0890199;0.07183076;0.026695255;;;;;;;;;;;;;;;
2329.0;2225.8;;;;-1.1014978;0.07777787;0.029632572;;;;;;;;;;;;;;;
2329.0;2225.8;;;;-1.1119462;0.08377076;0.031646732;;;;;;;;;;;;;;;
2329.0;2225.8;;;;-1.1216699;0.09047318;0.033653263;;;;;;;;;;;;;;;
2329.0;2231.1;;;;;;;;;;28.241066;-3.8529618;-6.2448497;;;;;;;;;
2329.0;2231.1;;;;;;;0.80471206;0.18097477;0.21399578;;;;;;;;;;;;
2329.0;2231.1;;;;;;;;;;27.088993;-3.7995543;-6.0312204;;;;;;;;;
2329.0;2231.1;;;;;;;0.8159429;0.18292795;0.21955016;;;;;;;;;;;;
2329.0;2235.7;;;;-1.1316568;0.09709932;0.03563309;;;;;;;;;;;;;;;
2329.0;2235.7;;;;-1.1421129;0.10461427;0.03663254;;;;;;;;;;;;;;;
2329.0;2235.7;;;;-1.1540338;0.11143114;0.036716465;;;;;;;;;;;;;;;
2329.0;2235.7;;;;-1.1666871;0.11802293;0.03672028;;;;;;;;;;;;;;;
2329.0;2235.7;;;;-1.179432;0.12410356;0.03609467;;;;;;;;;;;;;;;
2329.0;2240.0;262143;262143;12494;;;;;;;;;;;;;;;;;;
2329.0;2240.5;;;;;;;;;;25.791956;-3.9445176;-5.821406;;;;;;;;;
2329.0;2240.5;;;;;;;0.82900476;0.19086276;0.22217475;;;;;;;;;;;;
2329.0;2240.5;;;;;;;;;;24.521624;-4.203925;-5.855739;;;;;;;;;
2329.0;2240.5;;;;;;;0.8443861;0.19611195;0.22644734;;;;;;;;;;;;
2331.0;2245.8;;;;-1.1923066;0.13029481;0.03575516;;;;;;;;;;;;;;;
2331.0;2245.8;;;;-1.2050287;0.13552095;0.037658695;;;;;;;;;;;;;;;
2331.0;2245.8;;;;-1.2162668;0.14170076;0.04051209;;;;;;;;;;;;;;;
2331.0;2245.8;;;;-1.2279855;0.14852144;0.040996555;;;;;;;;;;;;;;;
2331.0;2245.8;;;;-1.2365991;0.15538026;0.042263035;;;;;;;;;;;;;;;
2331.0;2245.9;;;;;;;;;;;;;12825;;;;;;;;
2331.0;2245.9;;;;;;;;;;;;;12861;;;;;;;;
2331.0;2245.9;;;;;;;;;;;;;12916;;;;;;;;
2331.0;2245.9;;;;;;;;;;;;;13279;;;;;;;;
2331.0;2245.9;;;;;;;;;;;;;13777;;;;;;;;
2331.0;2250.2;;;;;;;;;;23.281807;-4.688406;-5.7298503;;;;;;;;;
2331.0;2250.2;;;;;;;0.85995054;0.20020142;0.23004852;;;;;;;;;;;;
2331.0;2250.2;;;;;;;;;;22.072514;-5.4704432;-5.298776;;;;;;;;;
2331.0;2250.2;;;;;;;0.87148654;0.20368053;0.23212378;;;;;;;;;;;;
2331.0;2255.9;;;;-1.2462388;0.16165544;0.04409409;;;;;;;;;;;;;;;
2331.0;2255.9;;;;-1.2562066;0.16815187;0.047561653;;;;;;;;;;;;;;;
2331.0;2255.9;;;;-1.2663995;0.17481233;0.049812324;;;;;;;;;;;;;;;
2331.0;2255.9;;;;-1.2747766;0.18136217;0.051666267;;;;;;;;;;;;;;;
2331.0;2255.9;;;;-1.2822114;0.18797305;0.055629738;;;;;;;;;;;;;;;
2331.0;2259.8;;;;;;;;;;20.790735;-6.488998;-4.776147;;;;;;;;;
2331.0;2259.8;;;;;;;0.88698995;0.20374157;0.23334453;;;;;;;;;;;;
2331.0;2259.8;;;;;;;;;;19.573809;-7.4961085;-4.2878504;;;;;;;;;
2331.0;2259.8;;;;;;;0.90212715;0.20349742;0.23621327;;;;;;;;;;;;
2331.0;2260.3;262143;262143;12498;;;;;;;;;;;;;;;;;;
2335.0;2266.1;;;;-1.2898103;0.1945;0.05876542;;;;;;;;;;;;;;;
2335.0;2266.1;;;;-1.2970086;0.19969562;0.06197358;;;;;;;;;;;;;;;
2335.0;2266.1;;;;-1.3040277;0.2055054;0.06607438;;;;;;;;;;;;;;;
2335.0;2266.1;;;;-1.3102494;0.21073917;0.07075501;;;;;;;;;;;;;;;
2335.0;2266.1;;;;-1.3147012;0.215889;0.07567216;;;;;;;;;;;;;;;
2335.0;2269.4;;;;;;;;;;18.32255;-8.484145;-3.8529618;;;;;;;;;
2335.0;2269.4;;;;;;;0.9215369;0.20697653;0.24042481;;;;;;;;;;;;
2335.0;2269.4;;;;;;;;;;17.15903;-9.464553;-3.6202583;;;;;;;;;
2335.0;2269.4;;;;;;;0.93795586;0.2108829;0.24115726;;;;;;;;;;;;
2335.0;2276.1;;;;-1.3178979;0.22061923;0.07994843;;;;;;;;;;;;;;;
2335.0;2276.1;;;;-1.3194314;0.22450641;0.08391953;;;;;;;;;;;;;;;
2335.0;2276.1;;;;-1.3217889;0.22820285;0.08718873;;;;;;;;;;;;;;;
2335.0;2276.1;;;;-1.3247415;0.23215106;0.09072877;;;;;;;;;;;;;;;
2335.0;2276.1;;;;-1.3269845;0.23586658;0.09490205;;;;;;;;;;;;;;;
2335.0;2279.0;;;;;;;;;;15.87344;-10.479293;-3.3303325;;;;;;;;;
2335.0;2279.0;;;;;;;0.94985807;0.21076083;0.24091311;;;;;;;;;;;;
