patientId;holterMac;flexMac;;;;;;;;;;;;;;;;;;;;
;CA:F3:0B:1E:33:78;D3:4A:5C:52:80:78;;;;;;;;;;;;;;;;;;;;
receivedTimeStamp;timeStamp;red;ir;green;adxl_accX;adxl_accY;adxl_accZ;lsm_accelX;lsm_accelY;lsm_accelZ;lsm_gyroX;lsm_gyroY;lsm_gyroZ;ecg;flex_lsm_accelX;flex_lsm_accelY;flex_lsm_accelZ;flex_lsm_gyroX;flex_lsm_gyroY;flex_lsm_gyroZ;flex_cmd;flexTimeStamp
280.0;211.7;;;;;;;;;;;;;;;;;;;;17;0.1
280.0;211.7;;;;;;;;;;;;;;;;;12.825403;2.0371106;-0.23270364;;127.6
280.0;211.7;;;;;;;;;;;;;;-0.5905942;0.67067474;-0.3509018;;;;;127.6
280.0;211.7;;;;;;;;;;;;;;;;;-6.1151466;-17.460402;-7.9462566;;127.6
280.0;211.7;;;;;;;;;;;;;;-0.61470383;0.6961882;-0.36512345;;;;;127.6
280.0;211.7;;;;;;;;;;;;;;;;;-63.497574;-85.60442;-60.602127;;137.1
280.0;211.7;;;;;;;;;;;;;;-0.6198309;0.6983856;-0.36255988;;;;;137.1
280.0;211.7;;;;;;;;;;;;;;;;;-122.27241;-124.988556;-119.49141;;137.1
280.0;211.7;;;;;;;;;;;;;;-0.62013614;0.6999115;-0.35639516;;;;;137.1
341.0;219.2;;;;;;;;;;;;;;;;;-49.447617;-124.988556;-70.364235;;146.8
341.0;219.2;;;;;;;;;;;;;;-0.61903745;0.70094913;-0.3515122;;;;;146.8
341.0;219.2;;;;;;;;;;;;;;;;;31.376842;-124.988556;-12.043367;;146.8
341.0;219.2;;;;;;;;;;;;;;-0.6154973;0.7018036;-0.35010836;;;;;146.8
341.0;219.2;;;;;;;;;;;;;;;;;33.87173;-103.78582;0.4463332;;156.5
341.0;219.2;;;;;;;;;;;;;;-0.6103091;0.70778525;-0.34803307;;;;;156.5
341.0;219.2;;;;;;;;;;;;;;;;;29.812769;-31.552322;26.905882;;156.5
341.0;219.2;;;;;;;;;;;;;;-0.6027406;0.7169408;-0.35010836;;;;;156.5
341.0;219.2;;;;;;;;;;;;;;;;;29.362621;-25.204473;29.087955;;166.2
341.0;219.2;;;;;;;;;;;;;;-0.5966979;0.7259133;-0.35523546;;;;;166.2
341.0;219.2;;;;;;;;;;;;;;;;;29.320658;-25.173954;29.354992;;166.2
341.0;219.2;;;;;;;;;;;;;;-0.58790857;0.7354961;-0.35883662;;;;;166.2
341.0;272.1;;;;;;;;;;;;;;;;;28.832361;-25.143436;29.992064;;175.8
341.0;272.1;;;;;;;;;;;;;;-0.5783868;0.7439802;-0.36201057;;;;;175.8
341.0;272.1;;;;;;;;;;;;;;;;;28.351696;-25.05188;30.137028;;175.8
341.0;272.1;;;;;;;;;;;;;;-0.5685598;0.7467879;-0.3668325;;;;;175.8
341.0;272.1;;;;;;;;;;;;;;;;;27.93588;-24.746696;30.438398;;185.5
341.0;272.1;;;;;;;;;;;;;;-0.5590991;0.7481918;-0.37391278;;;;;185.5
341.0;272.1;;;;;;;;;;;;;;;;;27.672657;-24.033327;30.934324;;185.5
341.0;272.1;;;;;;;;;;;;;;-0.5509201;0.7480697;-0.38026062;;;;;185.5
341.0;272.1;;;;;;;;;;;;;;;;;27.72225;-23.148289;31.159399;;195.0
341.0;272.1;;;;;;;;;;;;;;-0.54896694;0.74513996;-0.38441116;;;;;195.0
341.0;272.1;;;;;;;;;;;;;;;;;27.61162;-22.442549;31.514175;;195.0
341.0;272.1;;;;;;;;;;;;;;-0.54481643;0.7431868;-0.38398388;;;;;195.0
403.0;279.6;;;;;;;;;;;;;;;;;27.249214;-21.790216;31.888027;;204.6
403.0;279.6;;;;;;;;;;;;;;-0.5421308;0.7379986;-0.38489944;;;;;204.6
403.0;279.6;;;;;;;;;;;;;;;;;26.863918;-21.225624;31.937622;;204.6
403.0;279.6;;;;;;;;;;;;;;-0.54194766;0.7311014;-0.3834956;;;;;204.6
403.0;279.6;;;;;;;;;;;;;;;;;26.348919;-20.77929;32.132175;;214.3
403.0;279.6;;;;;;;;;;;;;;-0.5435957;0.72359383;-0.38709676;;;;;214.3
403.0;279.6;;;;;;;;;;;;;;;;;25.91403;-20.386364;32.30766;;214.3
403.0;279.6;;;;;;;;;;;;;;-0.5493942;0.7126072;-0.39448225;;;;;214.3
403.0;279.6;;;;;;;;;;;;;;;;;25.688955;-19.932402;32.338177;;224.0
403.0;279.6;;;;;;;;;;;;;;-0.5582446;0.7003388;-0.40003663;;;;;224.0
403.0;279.6;;;;;;;;;;;;;;;;;25.452436;-19.680622;32.53655;;224.0
403.0;279.6;;;;;;;;;;;;;;-0.56929225;0.69252604;-0.40321055;;;;;224.0
403.0;332.5;;;;;;;;;;;;;;;;;24.887844;-19.459366;32.74636;;233.6
403.0;332.5;;;;;;;;;;;;;;-0.5780816;0.68727684;-0.40900907;;;;;233.6
403.0;332.5;;;;;;;;;;;;;;;;;24.25077;-19.112217;32.803585;;233.6
403.0;332.5;;;;;;;;;;;;;;-0.5908384;0.6848964;-0.4123661;;;;;233.6
403.0;332.5;;;;;;;;;;;;;;;;;23.697622;-18.94055;32.914215;;243.3
403.0;332.5;;;;;;;;;;;;;;-0.6039613;0.68465227;-0.4156621;;;;;243.3
403.0;332.5;;;;;;;;;;;;;;;;;22.988068;-18.890959;32.757805;;243.3
403.0;332.5;;;;;;;;;;;;;;-0.62099063;0.6877651;-0.41431928;;;;;243.3
403.0;332.5;;;;;;;;;;;;;;;;;21.698662;-19.421217;32.45262;;252.8
403.0;332.5;;;;;;;;;;;;;;-0.63270974;0.6916715;-0.4132206;;;;;252.8
403.0;332.5;;;;;;;;;;;;;;;;;19.970549;-20.622883;32.193214;;252.8
403.0;332.5;;;;;;;;;;;;;;-0.64247566;0.68959624;-0.40900907;;;;;252.8
466.0;333.3;;;;;;;;;;;;;;;;;18.181402;-22.29377;31.79647;;262.5
466.0;333.3;;;;;;;;;;;;;;-0.64906764;0.68617815;-0.40174565;;;;;262.5
466.0;333.3;;;;;;;;;;;;;;;;;16.781366;-23.83114;31.23188;;262.5
466.0;333.3;;;;;;;;;;;;;;-0.65303504;0.6825159;-0.39185765;;;;;262.5
466.0;333.3;;;;;;;;;;;;;;;;;15.919218;-25.299845;30.617695;;272.2
466.0;333.3;;;;;;;;;;;;;;-0.65395063;0.6765343;-0.38807335;;;;;272.2
466.0;333.3;;;;;;;;;;;;;;;;;15.636921;-26.261177;30.079805;;272.2
466.0;333.3;;;;;;;;;;;;;;-0.65413374;0.67213964;-0.38917205;;;;;272.2
466.0;333.3;;;;;;;;;;;;;;;;;15.640736;-26.741844;29.51903;;281.9
466.0;333.3;;;;;;;;;;;;;;-0.65199745;0.6690878;-0.3852046;;;;;281.9
466.0;333.3;;;;;;;;;;;;;;;;;15.598773;-27.195808;28.920103;;281.9
466.0;333.3;;;;;;;;;;;;;;-0.64967805;0.662862;-0.38160345;;;;;281.9
466.0;392.8;;;;;;;;;;;;;;;;;15.572069;-27.35603;28.439436;;291.5
466.0;392.8;;;;;;;;;;;;;;-0.64729756;0.6569414;-0.38312936;;;;;291.5
466.0;392.8;;;;;;;;;;;;;;;;;15.743736;-27.333141;28.14951;;291.5
466.0;392.8;;;;;;;;;;;;;;-0.64394057;0.647908;-0.38325143;;;;;291.5
466.0;392.8;;;;;;;;;;;;;;;;;16.251106;-27.542953;28.122807;;301.1
466.0;392.8;;;;;;;;;;;;;;-0.64461195;0.64491713;-0.38380077;;;;;301.1
466.0;392.8;;;;;;;;;;;;;;;;;16.865292;-27.790916;28.286842;;301.1
466.0;392.8;;;;;;;;;;;;;;-0.64296395;0.64375746;-0.3836787;;;;;301.1
466.0;392.8;;;;;;;;;;;;;;;;;17.40318;-28.115177;28.7904;;310.8
466.0;392.8;;;;;;;;;;;;;;-0.64442885;0.6420484;-0.3871578;;;;;310.8
466.0;392.8;;;;;;;;;;;;;;;;;18.002106;-28.542437;29.549547;;310.8
466.0;392.8;;;;;;;;;;;;;;-0.64693135;0.6376537;-0.39350566;;;;;310.8
524.0;394.0;;;;;;;;;;;;;;;;;18.406477;-29.042177;30.51088;;320.5
524.0;394.0;;;;;;;;;;;;;;-0.64949495;0.6357616;-0.39692372;;;;;320.5
524.0;394.0;;;;;;;;;;;;;;;;;18.498032;-29.671621;31.62862;;320.5
524.0;394.0;;;;;;;;;;;;;;-0.6485183;0.6322825;-0.39582506;;;;;320.5
524.0;394.0;;;;;;;;;;;;;;;;;18.387402;-30.365917;32.773064;;330.2
524.0;394.0;;;;;;;;;;;;;;-0.6471755;0.62733847;-0.3947264;;;;;330.2
524.0;394.0;;;;;;;;;;;;;;;;;18.360699;-31.12888;33.90225;;330.2
524.0;394.0;;;;;;;;;;;;;;-0.64497817;0.62263864;-0.39344463;;;;;330.2
524.0;394.0;;;;;;;;;;;;;;;;;18.356884;-31.68203;34.947506;;339.9
524.0;394.0;;;;;;;;;;;;;;-0.6407056;0.6151311;-0.39118627;;;;;339.9
524.0;394.0;;;;;;;;;;;;;;;;;18.52092;-32.368694;35.83636;;339.9
524.0;394.0;;;;;;;;;;;;;;-0.6344798;0.6053041;-0.3812372;;;;;339.9
524.0;453.4;;;;;;;;;;;;;;;;;18.848995;-33.31477;36.557358;;349.5
524.0;453.4;;;;;;;;;;;;;;-0.62697226;0.5966979;-0.36793116;;;;;349.5
524.0;453.4;;;;;;;;;;;;;;;;;19.192327;-34.363842;37.076176;;349.5
524.0;453.4;;;;;;;;;;;;;;-0.62105167;0.5899838;-0.3531602;;;;;349.5
524.0;453.4;;;;;;;;;;;;;;;;;19.64629;-35.35951;37.42714;;359.1
524.0;453.4;;;;;;;;;;;;;;-0.6180608;0.58589435;-0.33692434;;;;;359.1
524.0;453.4;;;;;;;;;;;;;;;;;19.993439;-36.45436;37.69799;;359.1
524.0;453.4;;;;;;;;;;;;;;-0.61885434;0.5816828;-0.3239845;;;;;359.1
524.0;453.4;;;;;;;;;;;;;;;;;20.172735;-37.42714;37.93451;;368.8
524.0;453.4;;;;;;;;;;;;;;-0.6257515;0.580401;-0.31202126;;;;;368.8
524.0;453.4;;;;;;;;;;;;;;;;;20.29481;-38.69747;38.10999;;368.8
524.0;453.4;;;;;;;;;;;;;;-0.6336863;0.5772271;-0.30115664;;;;;368.8
583.0;454.2;;;;;;;;;;;;;;;;;20.100252;-40.379803;38.251137;;378.4
583.0;454.2;;;;;;;;;;;;;;-0.644734;0.5761284;-0.28388318;;;;;378.4
583.0;454.2;;;;;;;;;;;;;;;;;19.428846;-42.28721;38.209175;;378.4
583.0;454.2;;;;;;;;;;;;;;-0.65614796;0.5731986;-0.26459548;;;;;378.4
583.0;454.2;;;;;;;;;;;;;;;;;18.505661;-44.259468;37.90399;;388.1
583.0;454.2;;;;;;;;;;;;;;-0.66475415;0.56862086;-0.24774925;;;;;388.1
583.0;454.2;;;;;;;;;;;;;;;;;17.422253;-46.182133;37.457657;;388.1
583.0;454.2;;;;;;;;;;;;;;-0.6758629;0.56105226;-0.23322245;;;;;388.1
583.0;454.2;;;;;;;;;;;;;;;;;16.441847;-48.04758;36.702324;;397.8
583.0;454.2;;;;;;;;;;;;;;-0.6883755;0.5551317;-0.22333445;;;;;397.8
583.0;454.2;;;;;;;;;;;;;;;;;15.552996;-49.890133;35.84399;;397.8
583.0;454.2;;;;;;;;;;;;;;-0.704062;0.5548265;-0.21277505;;;;;397.8
583.0;514.2;;;;;;;;;;;;;;;;;15.003662;-51.751762;34.83306;;407.5
583.0;514.2;;;;;;;;;;;;;;-0.7240822;0.55653554;-0.20770897;;;;;407.5
583.0;514.2;;;;;;;;;;;;;;;;;15.449995;-53.346355;33.44066;;407.5
583.0;514.2;;;;;;;;;;;;;;-0.75478375;0.5675222;-0.2113712;;;;;407.5
583.0;514.2;;;;;;;;;;;;;;;;;16.933958;-55.013428;31.85751;;417.2
583.0;514.2;;;;;;;;;;;;;;-0.7977538;0.5865047;-0.21851254;;;;;417.2
583.0;514.2;;;;;;;;;;;;;;;;;19.596697;-57.058167;30.068361;;417.2
583.0;514.2;;;;;;;;;;;;;;-0.8515885;0.6164739;-0.2245552;;;;;417.2
583.0;514.2;;;;;;;;;;;;;;;;;23.47255;-59.71328;28.122807;;426.9
583.0;514.2;;;;;;;;;;;;;;-0.91421247;0.65413374;-0.23773919;;;;;426.9
583.0;514.2;;;;;;;;;;;;;;;;;27.947325;-62.620163;25.88351;;426.9
583.0;514.2;;;;;;;;;;;;;;-0.98098695;0.697409;-0.2658162;;;;;426.9
644.0;515.4;;;;;;;;;;;;;;;;;31.720177;-65.32869;23.785364;;436.4
644.0;515.4;;;;;;;;;;;;;;-1.0362865;0.73262733;-0.29486984;;;;;436.4
644.0;515.4;;;;;;;;;;;;;;;;;31.41499;-68.80779;21.94281;;436.4
644.0;515.4;;;;;;;;;;;;;;-1.0706503;0.7577746;-0.29206213;;;;;436.4
644.0;515.4;;;;;;;;;;;;;;;;;25.723288;-73.79757;20.401623;;446.1
644.0;515.4;;;;;;;;;;;;;;-1.07181;0.7645497;-0.25299844;;;;;446.1
644.0;515.4;;;;;;;;;;;;;;;;;17.036957;-79.85931;18.791773;;446.1
644.0;515.4;;;;;;;;;;;;;;-1.030488;0.7412946;-0.22461623;;;;;446.1
644.0;515.4;;;;;;;;;;;;;;;;;11.066774;-84.482864;16.376995;;455.8
644.0;515.4;;;;;;;;;;;;;;-0.95974606;0.70619833;-0.21826838;;;;;455.8
644.0;515.4;;;;;;;;;;;;;;;;;10.742516;-86.51616;13.019959;;455.8
644.0;515.4;;;;;;;;;;;;;;-0.89400923;0.67757195;-0.21692556;;;;;455.8
644.0;574.1;;;;;;;;;;;;;;;;;14.397107;-86.432236;9.208961;;465.4
644.0;574.1;;;;;;;;;;;;;;-0.84719384;0.65865046;-0.20844142;;;;;465.4
644.0;574.1;;;;;;;;;;;;;;;;;19.066439;-85.89816;5.409406;;465.4
644.0;574.1;;;;;;;;;;;;;;-0.8182623;0.6579791;-0.19330424;;;;;465.4
644.0;574.1;;;;;;;;;;;;;;;;;22.553179;-86.14994;1.7433698;;475.0
644.0;574.1;;;;;;;;;;;;;;-0.8067263;0.6648152;-0.1734672;;;;;475.0
644.0;574.1;;;;;;;;;;;;;;;;;23.651846;-87.29439;-1.6327403;;475.0
644.0;574.1;;;;;;;;;;;;;;-0.8008667;0.6864223;-0.16547136;;;;;475.0
644.0;574.1;;;;;;;;;;;;;;;;;22.328104;-88.885155;-4.615925;;484.6
644.0;574.1;;;;;;;;;;;;;;-0.8042848;0.7154149;-0.15649892;;;;;484.6
644.0;574.1;;;;;;;;;;;;;;;;;18.669699;-90.40345;-7.328257;;484.6
644.0;574.1;;;;;;;;;;;;;;-0.80739766;0.7422712;-0.1556444;;;;;484.6
705.0;574.9;;;;;;;;;;;;;;;;;12.993256;-90.956604;-9.983367;;494.2
705.0;574.9;;;;;;;;;;;;;;-0.8069094;0.7646107;-0.1643727;;;;;494.2
705.0;574.9;;;;;;;;;;;;;;;;;5.9663687;-90.170746;-12.99707;;494.2
705.0;574.9;;;;;;;;;;;;;;-0.8034913;0.7743156;-0.1770684;;;;;494.2
705.0;574.9;;;;;;;;;;;;;;;;;-1.5793328;-88.2252;-16.63259;;503.8
705.0;574.9;;;;;;;;;;;;;;-0.7849971;0.7759636;-0.1897641;;;;;503.8
705.0;574.9;;;;;;;;;;;;;;;;;-9.151738;-85.2382;-21.008179;;503.8
705.0;574.9;;;;;;;;;;;;;;-0.76558733;0.7654042;-0.20038453;;;;;503.8
705.0;574.9;;;;;;;;;;;;;;;;;-15.76281;-82.060455;-26.22303;;513.5
705.0;574.9;;;;;;;;;;;;;;-0.73879206;0.7528916;-0.20252083;;;;;513.5
705.0;574.9;;;;;;;;;;;;;;;;;-20.718252;-79.18027;-31.865139;;513.5
705.0;574.9;;;;;;;;;;;;;;-0.71138644;0.74684894;-0.19788201;;;;;513.5
705.0;634.4;;;;;;;;;;;;;;;;;-23.586992;-76.86087;-37.53395;;523.1
705.0;634.4;;;;;;;;;;;;;;-0.69325846;0.7507553;-0.18347728;;;;;523.1
705.0;634.4;;;;;;;;;;;;;;;;;-24.437696;-75.186165;-43.03873;;523.1
705.0;634.4;;;;;;;;;;;;;;-0.6783654;0.7626575;-0.17078158;;;;;523.1
705.0;634.4;;;;;;;;;;;;;;;;;-23.411512;-74.35835;-47.93695;;532.8
705.0;634.4;;;;;;;;;;;;;;-0.6732994;0.7792596;-0.15997803;;;;;532.8
705.0;634.4;;;;;;;;;;;;;;;;;-20.634327;-74.45372;-52.20954;;532.8
705.0;634.4;;;;;;;;;;;;;;-0.6770837;0.79732656;-0.14899136;;;;;532.8
705.0;634.4;;;;;;;;;;;;;;;;;-16.804255;-74.957275;-55.59709;;542.5
705.0;634.4;;;;;;;;;;;;;;-0.6863002;0.8173467;-0.13769951;;;;;542.5
705.0;634.4;;;;;;;;;;;;;;;;;-12.768181;-76.422165;-57.96228;;542.5
705.0;634.4;;;;;;;;;;;;;;-0.7028413;0.83913696;-0.12640767;;;;;542.5
765.0;635.2;;;;;;;;;;;;;;;;;-9.254738;-79.12305;-59.152504;;552.1
765.0;635.2;;;;;;;;;;;;;;-0.7169408;0.8564104;-0.11651967;;;;;552.1
765.0;635.2;;;;;;;;;;;;;;;;;-6.6644797;-82.35038;-59.286022;;552.1
765.0;635.2;;;;;;;;;;;;;;-0.73390913;0.87112033;-0.100161746;;;;;552.1
765.0;635.2;;;;;;;;;;;;;;;;;-5.043184;-86.47038;-58.717613;;561.7
765.0;635.2;;;;;;;;;;;;;;-0.74257636;0.8824122;-0.08990753;;;;;561.7
765.0;635.2;;;;;;;;;;;;;;;;;-3.910184;-90.678116;-57.695244;;561.7
765.0;635.2;;;;;;;;;;;;;;-0.73879206;0.88015383;-0.08709983;;;;;561.7
765.0;635.2;;;;;;;;;;;;;;;;;-2.9869993;-93.39427;-56.363873;;571.4
765.0;635.2;;;;;;;;;;;;;;-0.72475356;0.87209696;-0.08789331;;;;;571.4
765.0;635.2;;;;;;;;;;;;;;;;;-2.0371106;-94.58067;-54.5938;;571.4
765.0;635.2;;;;;;;;;;;;;;-0.6910001;0.858974;-0.09149449;;;;;571.4
765.0;695.1;;;;;;;;;;;;;;;;;-1.1406293;-94.050415;-52.678764;;581.1
765.0;695.1;;;;;;;;;;;;;;-0.6466262;0.85482347;-0.09430219;;;;;581.1
765.0;695.1;;;;;;;;;;;;;;;;;-0.4997406;-91.70049;-51.14139;;581.1
765.0;695.1;;;;;;;;;;;;;;-0.6072573;0.85927916;-0.109195225;;;;;581.1
765.0;695.1;;;;;;;;;;;;;;;;;0.6981109;-87.675865;-50.1648;;590.7
765.0;695.1;;;;;;;;;;;;;;-0.57136756;0.8669088;-0.13110752;;;;;590.7
765.0;695.1;;;;;;;;;;;;;;;;;3.5325174;-82.40761;-49.76043;;590.7
765.0;695.1;;;;;;;;;;;;;;-0.54713583;0.8878445;-0.1693167;;;;;590.7
765.0;695.1;;;;;;;;;;;;;;;;;6.920072;-76.10172;-49.77569;;600.4
765.0;695.1;;;;;;;;;;;;;;-0.53328043;0.92208624;-0.21662039;;;;;600.4
765.0;695.1;;;;;;;;;;;;;;;;;9.987182;-69.39527;-50.687428;;600.4
765.0;695.1;;;;;;;;;;;;;;-0.53132725;0.9699393;-0.25379193;;;;;600.4
823.0;695.9;;;;;;;;;;;;;;;;;11.185034;-63.299202;-52.362133;;610.1
823.0;695.9;;;;;;;;;;;;;;-0.5365154;1.0220649;-0.28815576;;;;;610.1
823.0;695.9;;;;;;;;;;;;;;;;;10.414441;-57.710503;-54.906612;;610.1
823.0;695.9;;;;;;;;;;;;;;-0.5469527;1.0687582;-0.32312998;;;;;610.1
823.0;695.9;;;;;;;;;;;;;;;;;8.205665;-53.13654;-58.24839;;619.8
823.0;695.9;;;;;;;;;;;;;;-0.55421615;1.1104465;-0.34223455;;;;;619.8
823.0;695.9;;;;;;;;;;;;;;;;;3.910184;-49.577316;-62.093723;;619.8
823.0;695.9;;;;;;;;;;;;;;-0.54554886;1.1388898;-0.3568224;;;;;619.8
823.0;695.9;;;;;;;;;;;;;;;;;-1.8311106;-46.36906;-66.29384;;629.4
823.0;695.9;;;;;;;;;;;;;;-0.5261391;1.1444441;-0.36030152;;;;;629.4
823.0;695.9;;;;;;;;;;;;;;;;;-8.4421835;-43.141727;-71.3332;;629.4
823.0;695.9;;;;;;;;;;;;;;-0.48860133;1.1401715;-0.36164433;;;;;629.4
823.0;709.7;;;;;;;;;;;;;;;;;-14.828181;-39.323097;-75.987274;;639.1
823.0;709.7;;;;;;;;;;;;;;-0.44709617;1.1225928;-0.36475724;;;;;639.1
823.0;709.7;;;;;;;;;;;;;;;;;-19.230476;-34.447765;-79.73342;;639.1
823.0;709.7;;;;;;;;;;;;;;-0.41608936;1.0820032;-0.37745294;;;;;639.1
823.0;709.7;;;;;;;;;;;;;;;;;-20.973846;-28.160954;-83.5406;;648.7
823.0;709.7;;;;;;;;;;;;;;-0.3949095;1.0497147;-0.39936522;;;;;648.7
823.0;709.7;;;;;;;;;;;;;;;;;-19.753105;-20.695364;-85.97827;;648.7
823.0;709.7;;;;;;;;;;;;;;-0.39130834;1.0117496;-0.4130375;;;;;648.7
823.0;709.7;;;;;;;;;;;;;;;;;-16.884367;-12.627033;-87.86279;;658.4
823.0;709.7;;;;;;;;;;;;;;-0.41279337;0.9716483;-0.41810358;;;;;658.4
823.0;709.7;;;;;;;;;;;;;;;;;-12.760551;-5.8709984;-88.48079;;658.4
823.0;709.7;;;;;;;;;;;;;;-0.4456923;0.91616565;-0.41230506;;;;;658.4
888.0;755.1;;;;;;;;;;;;;;;;;-8.79696;-1.6365551;-88.02302;;668.1
888.0;755.1;;;;;;;;;;;;;;-0.4721824;0.87636954;-0.38355663;;;;;668.1
888.0;755.1;;;;;;;;;;;;;;;;;-6.4127016;-0.90411085;-86.42079;;668.1
888.0;755.1;;;;;;;;;;;;;;-0.5049593;0.8580584;-0.34534746;;;;;668.1
888.0;755.1;;;;;;;;;;;;;;;;;-5.3369246;-3.215888;-83.60927;;677.6
888.0;755.1;;;;;;;;;;;;;;-0.5376751;0.832728;-0.31470686;;;;;677.6
888.0;755.1;;;;;;;;;;;;;;;;;-4.2115545;-6.7979984;-80.27131;;677.6
888.0;755.1;;;;;;;;;;;;;;-0.5675222;0.7929319;-0.29871517;;;;;677.6
888.0;755.1;;;;;;;;;;;;;;;;;-1.8082217;-9.846034;-76.73498;;687.3
888.0;755.1;;;;;;;;;;;;;;-0.60267955;0.76058227;-0.29377118;;;;;687.3
888.0;755.1;;;;;;;;;;;;;;;;;1.8539995;-12.0548115;-72.7485;;687.3
888.0;755.1;;;;;;;;;;;;;;-0.64027834;0.72585225;-0.29041412;;;;;687.3
888.0;770.5;;;;;;;;;;;;;;;;;6.7751093;-14.507736;-68.62468;;697.0
888.0;770.5;;;;;;;;;;;;;;-0.679281;0.6944182;-0.27497178;;;;;697.0
888.0;770.5;;;;;;;;;;;;;;;;;12.48207;-17.788475;-64.48561;;697.0
888.0;770.5;;;;;;;;;;;;;;-0.71718496;0.66817224;-0.24951933;;;;;697.0
888.0;770.5;;;;;;;;;;;;;;;;;18.459883;-21.40492;-60.274055;;706.5
888.0;770.5;;;;;;;;;;;;;;-0.7594226;0.63869137;-0.21198156;;;;;706.5
888.0;770.5;;;;;;;;;;;;;;;;;24.796288;-25.601213;-56.428722;;706.5
888.0;770.5;;;;;;;;;;;;;;-0.7896359;0.6153752;-0.1732841;;;;;706.5
888.0;770.5;;;;;;;;;;;;;;;;;31.632435;-29.953917;-53.26243;;716.1
888.0;770.5;;;;;;;;;;;;;;-0.8158208;0.59974974;-0.13885921;;;;;716.1
888.0;770.5;;;;;;;;;;;;;;;;;38.750877;-34.524063;-50.519577;;716.1
888.0;770.5;;;;;;;;;;;;;;-0.85262614;0.5843684;-0.106631674;;;;;716.1
945.0;815.5;;;;;;;;;;;;;;;;;45.636616;-39.51384;-48.520615;;725.8
945.0;815.5;;;;;;;;;;;;;;-0.87838376;0.5732597;-0.08355968;;;;;725.8
945.0;815.5;;;;;;;;;;;;;;;;;51.62969;-43.77499;-46.73147;;725.8
945.0;815.5;;;;;;;;;;;;;;-0.8995026;0.5698416;-0.054567095;;;;;725.8
945.0;815.5;;;;;;;;;;;;;;;;;56.30665;-47.894985;-45.209354;;735.4
945.0;815.5;;;;;;;;;;;;;;-0.91293067;0.57765436;-0.033143103;;;;;735.4
945.0;815.5;;;;;;;;;;;;;;;;;59.286022;-52.079838;-43.870358;;735.4
945.0;815.5;;;;;;;;;;;;;;-0.9165929;0.5843684;-0.012634663;;;;;735.4
945.0;815.5;;;;;;;;;;;;;;;;;60.796684;-56.802574;-42.733543;;745.0
945.0;815.5;;;;;;;;;;;;;;-0.9129917;0.5920591;0.0012817774;;;;;745.0
945.0;815.5;;;;;;;;;;;;;;;;;62.02887;-61.34602;-41.64632;;745.0
945.0;815.5;;;;;;;;;;;;;;-0.89852595;0.6079897;0.007202368;;;;;745.0
945.0;830.5;;;;;;;;;;;;;;;;;63.673058;-65.57665;-40.39506;;754.8
945.0;830.5;;;;;;;;;;;;;;-0.8878445;0.6171453;-0.0046998505;;;;;754.8
945.0;830.5;;;;;;;;;;;;;;;;;65.832245;-68.65901;-39.143803;;754.8
945.0;830.5;;;;;;;;;;;;;;-0.8627583;0.6241646;-0.027588733;;;;;754.8
945.0;830.5;;;;;;;;;;;;;;;;;68.10968;-70.127716;-38.041325;;764.5
945.0;830.5;;;;;;;;;;;;;;-0.8370617;0.65181434;-0.044373915;;;;;764.5
945.0;830.5;;;;;;;;;;;;;;;;;70.53209;-70.03235;-36.194954;;764.5
945.0;830.5;;;;;;;;;;;;;;-0.81160927;0.65846735;-0.041444138;;;;;764.5
945.0;830.5;;;;;;;;;;;;;;;;;72.67602;-68.95275;-34.35621;;774.0
945.0;830.5;;;;;;;;;;;;;;-0.7854854;0.66817224;-0.029847102;;;;;774.0
945.0;830.5;;;;;;;;;;;;;;;;;75.17472;-67.50695;-31.655323;;774.0
945.0;830.5;;;;;;;;;;;;;;-0.7606433;0.676046;-0.009277627;;;;;774.0
1004.0;875.8;;;;;;;;;;;;;;;;;77.10883;-66.053505;-28.771324;;783.6
1004.0;875.8;;;;;;;;;;;;;;-0.71614736;0.69252604;-0.008423109;;;;;783.6
1004.0;875.8;;;;;;;;;;;;;;;;;78.875084;-63.58531;-25.879696;;783.6
1004.0;875.8;;;;;;;;;;;;;;-0.68282115;0.70064396;-0.021729179;;;;;783.6
1004.0;875.8;;;;;;;;;;;;;;;;;80.30564;-59.667503;-23.16355;;793.2
1004.0;875.8;;;;;;;;;;;;;;-0.65285194;0.70546585;-0.04199347;;;;;793.2
1004.0;875.8;;;;;;;;;;;;;;;;;81.67135;-56.22654;-20.401623;;793.2
1004.0;875.8;;;;;;;;;;;;;;-0.61757255;0.7192602;-0.07196265;;;;;793.2
1004.0;875.8;;;;;;;;;;;;;;;;;82.60979;-53.037354;-17.033142;;802.9
1004.0;875.8;;;;;;;;;;;;;;-0.5774102;0.733726;-0.10455641;;;;;802.9
1004.0;875.8;;;;;;;;;;;;;;;;;82.54494;-49.06995;-13.939329;;802.9
1004.0;875.8;;;;;;;;;;;;;;-0.5314493;0.74691;-0.13971373;;;;;802.9
1004.0;890.8;;;;;;;;;;;;;;;;;81.59123;-44.686726;-10.608997;;812.5
1004.0;890.8;;;;;;;;;;;;;;-0.51637316;0.74172187;-0.16724144;;;;;812.5
1004.0;890.8;;;;;;;;;;;;;;;;;79.95086;-40.082245;-7.6868496;;812.5
1004.0;890.8;;;;;;;;;;;;;;-0.4925077;0.74166083;-0.18585773;;;;;812.5
1004.0;890.8;;;;;;;;;;;;;;;;;77.17368;-35.42436;-5.1957765;;822.2
1004.0;890.8;;;;;;;;;;;;;;-0.45088047;0.75521106;-0.19946899;;;;;822.2
1004.0;890.8;;;;;;;;;;;;;;;;;73.335976;-29.70977;-3.2540362;;822.2
1004.0;890.8;;;;;;;;;;;;;;-0.40748313;0.7630848;-0.20484024;;;;;822.2
1004.0;890.8;;;;;;;;;;;;;;;;;68.83068;-23.590809;-2.0447402;;831.8
1004.0;890.8;;;;;;;;;;;;;;-0.3864864;0.7744377;-0.2019715;;;;;831.8
1004.0;890.8;;;;;;;;;;;;;;;;;63.505203;-17.448957;-0.9346294;;831.8
1004.0;890.8;;;;;;;;;;;;;;-0.37598804;0.7727287;-0.19129002;;;;;831.8
1065.0;936.5;;;;;;;;;;;;;;;;;58.347576;-11.444441;-0.4158147;;841.4
1065.0;936.5;;;;;;;;;;;;;;-0.36097294;0.774926;-0.17987609;;;;;841.4
1065.0;936.5;;;;;;;;;;;;;;;;;53.01065;-6.111332;-0.4768517;;841.4
1065.0;936.5;;;;;;;;;;;;;;-0.3482162;0.7738273;-0.16675314;;;;;841.4
1065.0;936.5;;;;;;;;;;;;;;;;;48.093357;-1.9951477;-0.8545183;;850.8
1065.0;936.5;;;;;;;;;;;;;;-0.3424177;0.7689444;-0.16113773;;;;;850.8
1065.0;936.5;;;;;;;;;;;;;;;;;43.733025;0.90411085;-1.4572588;;850.8
1065.0;936.5;;;;;;;;;;;;;;-0.33661917;0.75856805;-0.16138189;;;;;850.8
1065.0;936.5;;;;;;;;;;;;;;;;;40.215763;3.1281471;-2.2202215;;860.5
1065.0;936.5;;;;;;;;;;;;;;-0.33130893;0.74654377;-0.16382337;;;;;860.5
1065.0;936.5;;;;;;;;;;;;;;;;;37.495804;5.287332;-3.2082584;;860.5
1065.0;936.5;;;;;;;;;;;;;;-0.3564562;0.7176122;-0.17322306;;;;;860.5
1065.0;943.6;;;;;;;;;;;;;;;;;35.439617;7.3854795;-4.1314435;;870.1
1065.0;943.6;;;;;;;;;;;;;;-0.3707999;0.6983856;-0.17383343;;;;;870.1
1065.0;943.6;;;;;;;;;;;;;;;;;33.387253;10.280923;-5.00885;;870.1
1065.0;943.6;;;;;;;;;;;;;;-0.3937498;0.67213964;-0.16113773;;;;;870.1
1065.0;943.6;;;;;;;;;;;;;;;;;31.35014;14.522996;-5.7641835;;879.7
1065.0;943.6;;;;;;;;;;;;;;-0.43079928;0.64387953;-0.14227729;;;;;879.7
1065.0;943.6;;;;;;;;;;;;;;;;;29.839474;19.36018;-6.111332;;879.7
1065.0;943.6;;;;;;;;;;;;;;-0.4611957;0.6201972;-0.11651967;;;;;879.7
1065.0;943.6;;;;;;;;;;;;;;;;;29.133732;24.594105;-6.0960727;;889.3
1065.0;943.6;;;;;;;;;;;;;;-0.5074618;0.5889462;-0.09430219;;;;;889.3
1065.0;943.6;;;;;;;;;;;;;;;;;29.278696;29.919584;-5.508591;;889.3
1065.0;943.6;;;;;;;;;;;;;;-0.54390085;0.57136756;-0.07629628;;;;;889.3
1124.0;996.3;;;;;;;;;;;;;;;;;29.881437;35.302284;-4.623554;;898.9
1124.0;996.3;;;;;;;;;;;;;;-0.57582325;0.5522019;-0.055421613;;;;;898.9
1124.0;996.3;;;;;;;;;;;;;;;;;31.102177;40.215763;-3.5744805;;898.9
1124.0;996.3;;;;;;;;;;;;;;-0.60750145;0.53926206;-0.0413831;;;;;898.9
1124.0;996.3;;;;;;;;;;;;;;;;;32.30766;44.721058;-2.357555;;908.5
1124.0;996.3;;;;;;;;;;;;;;-0.6522416;0.5227821;-0.032105472;;;;;908.5
1124.0;996.3;;;;;;;;;;;;;;;;;33.66192;48.31843;-1.0490738;;908.5
1124.0;996.3;;;;;;;;;;;;;;-0.700766;0.50233465;-0.016357921;;;;;908.5
1124.0;996.3;;;;;;;;;;;;;;;;;35.267952;50.79043;0.34333324;;918.2
1124.0;996.3;;;;;;;;;;;;;;-0.7525254;0.47987303;-0.0045167394;;;;;918.2
1124.0;996.3;;;;;;;;;;;;;;;;;36.507767;52.01117;1.8082217;;918.2
1124.0;996.3;;;;;;;;;;;;;;-0.8102054;0.45655692;0.00634785;;;;;918.2
1124.0;1003.8;;;;;;;;;;;;;;;;;37.42714;51.75939;3.238777;;927.8
1124.0;1003.8;;;;;;;;;;;;;;-0.8644673;0.4326304;0.00921659;;;;;927.8
1124.0;1003.8;;;;;;;;;;;;;;;;;37.97647;49.993134;4.5854063;;927.8
1124.0;1003.8;;;;;;;;;;;;;;-0.9146397;0.40980256;0.01660207;;;;;927.8
1124.0;1003.8;;;;;;;;;;;;;;;;;37.656025;46.517838;5.584887;;937.4
1124.0;1003.8;;;;;;;;;;;;;;-0.9667043;0.38575396;0.026306955;;;;;937.4
1124.0;1003.8;;;;;;;;;;;;;;;;;36.52684;41.56621;6.168554;;937.4
1124.0;1003.8;;;;;;;;;;;;;;-1.0065005;0.3579211;0.028809473;;;;;937.4
1124.0;1003.8;;;;;;;;;;;;;;;;;34.821617;35.134434;6.1532946;;947.1
1124.0;1003.8;;;;;;;;;;;;;;-1.038728;0.32667014;0.026978362;;;;;947.1
1124.0;1003.8;;;;;;;;;;;;;;;;;33.15455;27.981657;5.3827024;;947.1
1124.0;1003.8;;;;;;;;;;;;;;-1.0561845;0.28650776;0.019348735;;;;;947.1
1185.0;1057.0;;;;;;;;;;;;;;;;;31.647694;20.584734;3.8758507;;956.8
1185.0;1057.0;;;;;;;;;;;;;;-1.0692465;0.24231696;-0.003234962;;;;;956.8
1185.0;1057.0;;;;;;;;;;;;;;;;;30.507065;13.569293;1.8997772;;956.8
1185.0;1057.0;;;;;;;;;;;;;;-1.0810877;0.19977416;-0.0380871;;;;;956.8
1185.0;1057.0;;;;;;;;;;;;;;;;;29.5114;7.248146;-0.43107393;;966.4
1185.0;1057.0;;;;;;;;;;;;;;-1.0957366;0.16132084;-0.085329756;;;;;966.4
1185.0;1057.0;;;;;;;;;;;;;;;;;29.461807;2.0828884;-2.967925;;966.4
1185.0;1057.0;;;;;;;;;;;;;;-1.1102633;0.12134159;-0.13641773;;;;;966.4
1185.0;1057.0;;;;;;;;;;;;;;;;;30.285805;-1.3122959;-5.7374797;;976.1
1185.0;1057.0;;;;;;;;;;;;;;-1.1292459;0.08868679;-0.19452497;;;;;976.1
1185.0;1057.0;;;;;;;;;;;;;;;;;31.73162;-2.7886288;-8.518478;;976.1
1185.0;1057.0;;;;;;;;;;;;;;-1.1457869;0.07159642;-0.2318186;;;;;976.1
1185.0;1064.0;;;;;;;;;;;;;;;;;32.803585;-3.1357768;-11.059145;;985.8
1185.0;1064.0;;;;;;;;;;;;;;-1.1568956;0.06738487;-0.24799341;;;;;985.8
1185.0;1064.0;;;;;;;;;;;;;;;;;33.47499;-3.1090732;-13.550219;;985.8
1185.0;1064.0;;;;;;;;;;;;;;-1.1576891;0.07849361;-0.23621327;;;;;985.8
1185.0;1064.0;;;;;;;;;;;;;;;;;33.76492;-3.4257026;-15.572069;;995.4
1185.0;1064.0;;;;;;;;;;;;;;-1.1352886;0.09735405;-0.20203254;;;;;995.4
1185.0;1064.0;;;;;;;;;;;;;;;;;34.089172;-3.89111;-17.014069;;995.4
1185.0;1064.0;;;;;;;;;;;;;;-1.0938444;0.1246376;-0.15674306;;;;;995.4
1185.0;1064.0;;;;;;;;;;;;;;;;;34.184544;-4.8219247;-18.066957;;1005.1
1185.0;1064.0;;;;;;;;;;;;;;-1.0369579;0.15472884;-0.1048616;;;;;1005.1
1185.0;1064.0;;;;;;;;;;;;;;;;;34.29899;-6.5080724;-18.936735;;1005.1
1185.0;1064.0;;;;;;;;;;;;;;-0.97256386;0.18884854;-0.049134802;;;;;1005.1
1187.0;1117.0;;;;;;;;;;;;;;;;;34.726246;-9.338664;-19.554733;;1014.7
1187.0;1117.0;;;;;;;;;;;;;;-0.9114048;0.22632527;0.00982696;;;;;1014.7
1187.0;1117.0;;;;;;;;;;;;;;;;;35.042877;-13.3785515;-19.928587;;1014.7
1187.0;1117.0;;;;;;;;;;;;;;-0.85421306;0.26258126;0.05981628;;;;;1014.7
1187.0;1117.0;;;;;;;;;;;;;;;;;34.87884;-18.051699;-20.001068;;1024.4
1187.0;1117.0;;;;;;;;;;;;;;-0.7983642;0.29328287;0.09833064;;;;;1024.4
1187.0;1117.0;;;;;;;;;;;;;;;;;34.35621;-22.400585;-19.894253;;1024.4
1187.0;1117.0;;;;;;;;;;;;;;-0.7448347;0.32142094;0.12665181;;;;;1024.4
1187.0;1117.0;;;;;;;;;;;;;;;;;32.92566;-25.841547;-19.623402;;1034.1
1187.0;1117.0;;;;;;;;;;;;;;-0.6936857;0.34644613;0.13678396;;;;;1034.1
1187.0;1117.0;;;;;;;;;;;;;;;;;29.747917;-28.263954;-19.047365;;1034.1
1187.0;1117.0;;;;;;;;;;;;;;-0.6443678;0.36848047;0.13599049;;;;;1034.1
1187.0;1117.8;;;;;;;;;;;;;;;;;24.8764;-29.934843;-18.032623;;1043.8
1187.0;1117.8;;;;;;;;;;;;;;-0.5876644;0.38282418;0.12048708;;;;;1043.8
1187.0;1117.8;;;;;;;;;;;;;;;;;19.314402;-30.453657;-16.453293;;1043.8
1187.0;1117.8;;;;;;;;;;;;;;-0.522599;0.39942625;0.08685568;;;;;1043.8
1187.0;1117.8;;;;;;;;;;;;;;;;;13.779107;-30.121769;-14.255959;;1053.5
1187.0;1117.8;;;;;;;;;;;;;;-0.4530778;0.4123661;0.008789331;;;;;1053.5
1187.0;1117.8;;;;;;;;;;;;;;;;;9.994812;-29.045992;-11.341441;;1053.5
1187.0;1117.8;;;;;;;;;;;;;;-0.37580493;0.42738122;-0.10736412;;;;;1053.5
1187.0;1117.8;;;;;;;;;;;;;;;;;7.8356276;-27.367474;-7.854701;;1063.1
1187.0;1117.8;;;;;;;;;;;;;;-0.29468673;0.455092;-0.15344706;;;;;1063.1
1187.0;1117.8;;;;;;;;;;;;;;;;;5.939665;-24.307993;-3.7957397;;1063.1
1187.0;1117.8;;;;;;;;;;;;;;-0.24396497;0.5107578;-0.015503403;;;;;1063.1
1243.0;1129.2;;;;0.0;0.0;0.0;;;;;;;;;;;;;;;
1243.0;1129.2;;;;-0.18470003;0.109699264;0.05521012;;;;;;;;;;;;;;;
1243.0;1129.2;;;;-0.5663262;0.2344437;0.0858841;;;;;;;;;;;;;;;
1243.0;1129.2;;;;-0.5790673;0.24412921;0.07586289;;;;;;;;;;;;;;;
1243.0;1129.2;;;;-0.5803185;0.26020434;0.077342995;;;;;;;;;;;;;;;
1243.0;1139.2;;;;-0.57822424;0.27528766;0.081256874;;;;;;;;;;;;;;;
1243.0;1139.2;;;;-0.58258826;0.2934952;0.08304597;;;;;;;;;;;;;;;
1243.0;1139.2;;;;-0.5849381;0.31050876;0.084846504;;;;;;;;;;;;;;;
1243.0;1139.2;;;;-0.58349234;0.32856372;0.08156205;;;;;;;;;;;;;;;
1243.0;1139.2;;;;-0.58546835;0.34793857;0.0810814;;;;;;;;;;;;;;;
1243.0;1140.5;57495;57468;14010;;;;;;;;;;;;;;;;;;
1243.0;1149.2;;;;-0.5830346;0.36688998;0.08026124;;;;;;;;;;;;;;;
1243.0;1149.2;;;;-0.59052664;0.3899384;0.0725174;;;;;;;;;;;;;;;
1243.0;1149.2;;;;-0.5922356;0.41201407;0.06827546;;;;;;;;;;;;;;;
1243.0;1149.2;;;;-0.5888062;0.43677908;0.063049324;;;;;;;;;;;;;;;
1243.0;1149.2;;;;-0.5904656;0.46249396;0.059314735;;;;;;;;;;;;;;;
1245.0;1159.3;;;;-0.54775244;0.48003012;0.048545845;;;;;;;;;;;;;;;
1245.0;1159.3;;;;-0.54186255;0.5079537;0.033847813;;;;;;;;;;;;;;;
1245.0;1159.3;;;;-0.58461004;0.54814917;0.046527866;;;;;;;;;;;;;;;
1245.0;1159.3;;;;-0.61352164;0.5892373;0.06273652;;;;;;;;;;;;;;;
1245.0;1159.3;;;;-0.6519814;0.63755804;0.07395554;;;;;;;;;;;;;;;
1245.0;1160.7;73830;73777;14010;;;;;;;;;;;;;;;;;;
1245.0;1167.1;;;;;;;;;;;;;0;;;;;;;;
1245.0;1167.1;;;;;;;;;;;;;0;;;;;;;;
1245.0;1167.1;;;;;;;;;;;;;-1;;;;;;;;
1245.0;1167.1;;;;;;;;;;;;;-3;;;;;;;;
1245.0;1167.1;;;;;;;;;;;;;-5;;;;;;;;
1245.0;1169.4;;;;-0.6779824;0.6830674;0.066070564;;;;;;;;;;;;;;;
1245.0;1169.4;;;;-0.6884499;0.7279816;0.056575783;;;;;;;;;;;;;;;
1245.0;1169.4;;;;-0.704155;0.7751771;0.053863533;;;;;;;;;;;;;;;
1245.0;1169.4;;;;-0.7214623;0.8231126;0.057781227;;;;;;;;;;;;;;;
1245.0;1169.4;;;;-0.752823;0.8721925;0.06030274;;;;;;;;;;;;;;;
1246.0;1177.4;;;;;;;;;;;;;;;;;1.8272958;-19.970549;1.2436292;;1072.8
1246.0;1177.4;;;;;;;;;;;;;;-0.319834;0.5813166;0.25287637;;;;;1072.8
1246.0;1177.4;;;;;;;;;;;;;;;;;-3.6317027;-13.569293;9.43022;;1072.8
1246.0;1177.4;;;;;;;;;;;;;;-0.4977569;0.69411296;0.33661917;;;;;1072.8
1246.0;1177.4;;;;;;;;;;;;;;;;;4.543443;22.240362;25.856808;;1082.4
1246.0;1177.4;;;;;;;;;;;;;;-0.80007327;1.015717;-0.24573503;;;;;1082.4
1246.0;1177.4;;;;;;;;;;;;;;;;;41.077915;103.133484;44.202248;;1082.4
1246.0;1177.4;;;;;;;;;;;;;;-1.4207587;1.5019379;-1.1470687;;;;;1082.4
1246.0;1177.4;;;;;;;;;;;;;;;;;102.660446;124.988556;56.981873;;1092.0
1246.0;1177.4;;;;;;;;;;;;;;-1.9728385;1.9805902;-1.599414;;;;;1092.0
1246.0;1177.4;;;;;;;;;;;;;;;;;118.1486;113.48689;73.648796;;1092.0
1246.0;1177.4;;;;;;;;;;;;;;-1.9998169;1.9979857;-1.3383588;;;;;1092.0
1246.0;1178.6;;;;;;;;;;;;;;;;;15.980255;27.947325;73.450424;;1101.7
1246.0;1178.6;;;;;;;;;;;;;;-1.9998169;1.9979857;-0.7391583;;;;;1101.7
1246.0;1178.6;;;;;;;;;;;;;;;;;-87.41264;-35.08484;60.247353;;1101.7
1246.0;1178.6;;;;;;;;;;;;;;-1.9891964;1.609302;-0.4297006;;;;;1101.7
1246.0;1178.6;;;;;;;;;;;;;;;;;-70.4329;-60.480053;52.972504;;1111.3
1246.0;1178.6;;;;;;;;;;;;;;-1.4497513;0.7483749;-0.4394055;;;;;1111.3
1246.0;1178.6;;;;;;;;;;;;;;;;;-19.413588;-64.203316;18.833736;;1111.3
1246.0;1178.6;;;;;;;;;;;;;;-0.98330635;0.5734428;-0.3653676;;;;;1111.3
1246.0;1178.6;;;;;;;;;;;;;;;;;0.099185154;-72.656944;-13.245033;;1120.9
1246.0;1178.6;;;;;;;;;;;;;;-0.79494613;0.5463424;-0.21845149;;;;;1120.9
1246.0;1178.6;;;;;;;;;;;;;;;;;1.5869625;-73.25968;-33.810696;;1120.9
1246.0;1178.6;;;;;;;;;;;;;;-0.5896176;0.44923246;-0.090151675;;;;;1120.9
1302.0;1179.4;;;;-0.7905046;0.9272882;0.060848244;;;;;;;;;;;;;;;
1302.0;1179.4;;;;-0.81777966;0.9844781;0.062797554;;;;;;;;;;;;;;;
1302.0;1179.4;;;;-0.848076;1.039116;0.066696174;;;;;;;;;;;;;;;
1302.0;1179.4;;;;-0.8725244;1.0948945;0.07550431;;;;;;;;;;;;;;;
1302.0;1179.4;;;;-0.7034455;1.3503572;0.117130294;;;;;;;;;;;;;;;
1302.0;1180.8;90351;90199;14014;;;;;;;;;;;;;;;;;;
1302.0;1189.5;;;;-0.67953116;1.4073144;0.14640047;;;;;;;;;;;;;;;
1302.0;1189.5;;;;-0.9408494;1.1848146;0.07101441;;;;;;;;;;;;;;;
1302.0;1189.5;;;;-0.9728967;1.3277436;0.08476258;;;;;;;;;;;;;;;
1302.0;1189.5;;;;-1.0187684;1.3293916;0.07028199;;;;;;;;;;;;;;;
1302.0;1189.5;;;;-1.044243;1.4122049;0.07888413;;;;;;;;;;;;;;;
1302.0;1199.5;;;;-1.0632669;1.4488679;0.09128953;;;;;;;;;;;;;;;
1302.0;1199.5;;;;-1.0867501;1.4889604;0.110511795;;;;;;;;;;;;;;;
1302.0;1199.5;;;;-1.0988847;1.5342104;0.1247368;;;;;;;;;;;;;;;
1302.0;1199.5;;;;-1.11504;1.5795481;0.14002992;;;;;;;;;;;;;;;
1302.0;1199.5;;;;-1.134926;1.6105082;0.15826036;;;;;;;;;;;;;;;
1302.0;1201.0;106668;106628;13997;;;;;;;;;;;;;;;;;;
1302.0;1207.3;;;;;;;;;;;;;5;;;;;;;;
1302.0;1207.3;;;;;;;;;;;;;-19;;;;;;;;
1302.0;1207.3;;;;;;;;;;;;;-33;;;;;;;;
1302.0;1207.3;;;;;;;;;;;;;46;;;;;;;;
1302.0;1207.3;;;;;;;;;;;;;-21;;;;;;;;
1304.0;1209.6;;;;-1.1445085;1.6288493;0.16368486;;;;;;;;;;;;;;;
1304.0;1209.6;;;;-1.1735307;1.6436503;0.18133165;;;;;;;;;;;;;;;
1304.0;1209.6;;;;-1.189747;1.656647;0.19067767;;;;;;;;;;;;;;;
1304.0;1209.6;;;;-1.1956407;1.6717074;0.19935611;;;;;;;;;;;;;;;
1304.0;1209.6;;;;-1.2078058;1.7015727;0.2138367;;;;;;;;;;;;;;;
1304.0;1219.6;;;;-1.2243997;1.7253191;0.22651675;;;;;;;;;;;;;;;
1304.0;1219.6;;;;-1.2350274;1.7214472;0.23653033;;;;;;;;;;;;;;;
1304.0;1219.6;;;;-1.2385408;1.7223017;0.24705127;;;;;;;;;;;;;;;
1304.0;1219.6;;;;-1.2421647;1.7212985;0.25473788;;;;;;;;;;;;;;;
1304.0;1219.6;;;;-1.248871;1.7224276;0.26908877;;;;;;;;;;;;;;;
1304.0;1221.1;122943;122949;13985;;;;;;;;;;;;;;;;;;
1304.0;1229.7;;;;-1.2439843;1.7251704;0.27762607;;;;;;;;;;;;;;;
1304.0;1229.7;;;;-1.2329789;1.7286952;0.28106692;;;;;;;;;;;;;;;
1304.0;1229.7;;;;-1.2184411;1.7375796;0.282177;;;;;;;;;;;;;;;
1304.0;1229.7;;;;-1.2056619;1.7402537;0.28455356;;;;;;;;;;;;;;;
1304.0;1229.7;;;;-1.1936647;1.731499;0.28702548;;;;;;;;;;;;;;;
1307.0;1237.8;;;;;;;;;;;;;;;;;11.06296;-65.60717;-47.269356;;1130.6
1307.0;1237.8;;;;;;;;;;;;;;-0.37122715;0.48927274;0.088808864;;;;;1130.6
1307.0;1237.8;;;;;;;;;;;;;;;;;10.578479;-65.66439;-51.549576;;1130.6
1307.0;1237.8;;;;;;;;;;;;;;-0.2156438;0.720481;0.28131962;;;;;1130.6
1307.0;1237.8;;;;;;;;;;;;;;;;;-3.89111;-68.41868;-48.711357;;1140.3
1307.0;1237.8;;;;;;;;;;;;;;-0.09063997;0.86489457;0.46583453;;;;;1140.3
1307.0;1237.8;;;;;;;;;;;;;;;;;-22.701956;-64.268166;-42.09647;;1140.3
1307.0;1237.8;;;;;;;;;;;;;;0.0054322947;0.868923;0.5562914;;;;;1140.3
1307.0;1237.8;;;;;;;;;;;;;;;;;-36.44673;-50.416576;-34.844505;;1149.8
1307.0;1237.8;;;;;;;;;;;;;;0.019775994;0.8060549;0.51301616;;;;;1149.8
1307.0;1237.8;;;;;;;;;;;;;;;;;-47.12058;-28.820917;-27.226326;;1149.8
1307.0;1237.8;;;;;;;;;;;;;;0.012024293;0.7640614;0.34644613;;;;;1149.8
1307.0;1238.6;;;;;;;;;;;;;;;;;-57.06198;-4.5358133;-15.743736;;1159.5
1307.0;1238.6;;;;;;;;;;;;;;0.07159642;0.75856805;0.14777063;;;;;1159.5
1307.0;1238.6;;;;;;;;;;;;;;;;;-60.865353;22.408215;0.99185157;;1159.5
1307.0;1238.6;;;;;;;;;;;;;;0.16205329;0.8053224;-0.0651265;;;;;1159.5
1307.0;1238.6;;;;;;;;;;;;;;;;;-56.245613;50.916317;20.954771;;1169.2
1307.0;1238.6;;;;;;;;;;;;;;0.20966215;0.8382824;-0.26355785;;;;;1169.2
1307.0;1238.6;;;;;;;;;;;;;;;;;-50.111393;75.61724;39.90295;;1169.2
1307.0;1238.6;;;;;;;;;;;;;;0.22766808;0.7901853;-0.45313883;;;;;1169.2
1307.0;1238.6;;;;;;;;;;;;;;;;;-41.577656;95.24445;56.932278;;1178.8
1307.0;1238.6;;;;;;;;;;;;;;0.2146672;0.72078615;-0.6357616;;;;;1178.8
1307.0;1238.6;;;;;;;;;;;;;;;;;-23.720512;112.70104;70.650345;;1178.8
1307.0;1238.6;;;;;;;;;;;;;;0.17786187;0.6582232;-0.7779778;;;;;1178.8
1364.0;1239.7;;;;-1.1814958;1.7403796;0.28698733;;;;;;;;;;;;;;;
1364.0;1239.7;;;;-1.164589;1.756077;0.28765872;;;;;;;;;;;;;;;
1364.0;1239.7;;;;-1.1421777;1.7708857;0.2833443;;;;;;;;;;;;;;;
1364.0;1239.7;;;;-1.11998;1.7853167;0.27616122;;;;;;;;;;;;;;;
1364.0;1239.7;;;;-1.0980607;1.7966158;0.26729587;;;;;;;;;;;;;;;
1364.0;1241.3;139419;139421;13991;;;;;;;;;;;;;;;;;;
1364.0;1247.6;;;;;;;;;;;;;120;;;;;;;;
1364.0;1247.6;;;;;;;;;;;;;97;;;;;;;;
1364.0;1247.6;;;;;;;;;;;;;-129;;;;;;;;
1364.0;1247.6;;;;;;;;;;;;;759;;;;;;;;
1364.0;1247.6;;;;;;;;;;;;;-218;;;;;;;;
1364.0;1249.8;;;;-1.0701104;1.8082354;0.25717166;;;;;;;;;;;;;;;
1364.0;1249.8;;;;-1.0538217;1.8198702;0.2498627;;;;;;;;;;;;;;;
1364.0;1249.8;;;;-1.0380899;1.826565;0.24343875;;;;;;;;;;;;;;;
1364.0;1249.8;;;;-1.0160867;1.8349421;0.23399737;;;;;;;;;;;;;;;
1364.0;1249.8;;;;-0.9723779;1.838856;0.21466067;;;;;;;;;;;;;;;
1364.0;1259.8;;;;-0.988865;1.835335;0.20400622;;;;;;;;;;;;;;;
1364.0;1259.8;;;;-0.9671136;1.84676;0.18557741;;;;;;;;;;;;;;;
1364.0;1259.8;;;;-0.93431485;1.8456271;0.17860033;;;;;;;;;;;;;;;
1364.0;1259.8;;;;-0.912449;1.8436358;0.16573335;;;;;;;;;;;;;;;
1364.0;1259.8;;;;-0.8867837;1.841778;0.14299776;;;;;;;;;;;;;;;
1364.0;1261.4;155690;155785;13985;;;;;;;;;;;;;;;;;;
1365.0;1269.6;;;;-0.8751565;1.8418849;0.12244417;;;;;;;;;;;;;;;
1365.0;1269.6;;;;-0.8682939;1.8412592;0.106166855;;;;;;;;;;;;;;;
1365.0;1269.6;;;;-0.85313046;1.8356745;0.08929063;;;;;;;;;;;;;;;
1365.0;1269.6;;;;-0.8289796;1.8265078;0.07214356;;;;;;;;;;;;;;;
1365.0;1269.6;;;;-0.8067666;1.8149722;0.05307389;;;;;;;;;;;;;;;
1365.0;1279.6;;;;-0.784176;1.8033068;0.03218079;;;;;;;;;;;;;;;
1365.0;1279.6;;;;-0.7611276;1.7898829;0.013019564;;;;;;;;;;;;;;;
1365.0;1279.6;;;;-0.7447625;1.7764895;-0.0063209543;;;;;;;;;;;;;;;
1365.0;1279.6;;;;-0.72847754;1.7628787;-0.025314335;;;;;;;;;;;;;;;
1365.0;1279.6;;;;-0.707264;1.7487032;-0.04258347;;;;;;;;;;;;;;;
1365.0;1281.3;172162;172147;13978;;;;;;;;;;;;;;;;;;
1365.0;1287.7;;;;;;;;;;;;;-2583;;;;;;;;
1365.0;1287.7;;;;;;;;;;;;;656;;;;;;;;
1365.0;1287.7;;;;;;;;;;;;;5509;;;;;;;;
1365.0;1287.7;;;;;;;;;;;;;-2613;;;;;;;;
1365.0;1287.7;;;;;;;;;;;;;-28801;;;;;;;;
1365.0;1289.8;;;;-0.6850129;1.7324793;-0.056919105;;;;;;;;;;;;;;;
1365.0;1289.8;;;;-0.6681939;1.7129443;-0.070091255;;;;;;;;;;;;;;;
1365.0;1289.8;;;;-0.65331656;1.6939662;-0.08386231;;;;;;;;;;;;;;;
1365.0;1289.8;;;;-0.636242;1.6780169;-0.098087326;;;;;;;;;;;;;;;
1365.0;1289.8;;;;-0.61898047;1.6607707;-0.10983659;;;;;;;;;;;;;;;
1367.0;1298.0;;;;;;;;;;;;;;;;;0.19455549;123.98526;81.839195;;1188.5
1367.0;1298.0;;;;;;;;;;;;;;0.10345775;0.6387524;-0.83565784;;;;;1188.5
1367.0;1298.0;;;;;;;;;;;;;;;;;18.803217;124.988556;89.36201;;1188.5
1367.0;1298.0;;;;;;;;;;;;;;-0.039796136;0.71535385;-0.7154149;;;;;1188.5
1367.0;1298.0;;;;;;;;;;;;;;;;;21.385845;124.988556;93.199715;;1198.1
1367.0;1298.0;;;;;;;;;;;;;;-0.21710868;0.8667867;-0.46436965;;;;;1198.1
1367.0;1298.0;;;;;;;;;;;;;;;;;10.422071;119.02601;95.85864;;1198.1
1367.0;1298.0;;;;;;;;;;;;;;-0.38373974;1.027253;-0.19672231;;;;;1198.1
1367.0;1298.0;;;;;;;;;;;;;;;;;-3.4409618;93.00516;98.67016;;1207.6
1367.0;1298.0;;;;;;;;;;;;;;-0.5148473;1.1435896;-0.057924133;;;;;1207.6
1367.0;1298.0;;;;;;;;;;;;;;;;;-4.543443;68.31568;98.56716;;1207.6
1367.0;1298.0;;;;;;;;;;;;;;-0.7159032;1.2013307;-0.10419019;;;;;1207.6
1367.0;1299.8;;;;-0.59649664;1.6400454;-0.11627962;;;;;;;;;;;;;;;
1367.0;1299.8;;;;-0.5749894;1.6188357;-0.12185289;;;;;;;;;;;;;;;
1367.0;1299.8;;;;-0.5594712;1.600178;-0.12965013;;;;;;;;;;;;;;;
1367.0;1299.8;;;;-0.5457154;1.582371;-0.13631059;;;;;;;;;;;;;;;
1367.0;1299.8;;;;-0.5320893;1.56271;-0.13888551;;;;;;;;;;;;;;;
1367.0;1301.6;188546;188573;13961;;;;;;;;;;;;;;;;;;
1367.0;1305.1;;;;;;;;;;;;;;;;;14.488663;54.235207;90.91082;;1217.3
1367.0;1305.1;;;;;;;;;;;;;;-0.99362165;1.1994995;-0.37934506;;;;;1217.3
1367.0;1305.1;;;;;;;;;;;;;;;;;41.966766;51.549576;72.98883;;1217.3
1367.0;1305.1;;;;;;;;;;;;;;-1.2734153;1.172277;-0.65578175;;;;;1217.3
1367.0;1305.1;;;;;;;;;;;;;;;;;46.32328;48.150578;53.662987;;1226.9
1367.0;1305.1;;;;;;;;;;;;;;-1.4413892;1.0431226;-0.7785272;;;;;1226.9
1367.0;1305.1;;;;;;;;;;;;;;;;;16.354107;42.004913;37.541584;;1226.9
1367.0;1305.1;;;;;;;;;;;;;;-1.4734946;0.8454848;-0.6667684;;;;;1226.9
1367.0;1305.1;;;;;;;;;;;;;;;;;-19.737844;38.67077;24.800102;;1236.5
1367.0;1305.1;;;;;;;;;;;;;;-1.4095279;0.68257695;-0.43238625;;;;;1236.5
1367.0;1305.1;;;;;;;;;;;;;;;;;-47.36854;32.09403;16.853848;;1236.5
1367.0;1305.1;;;;;;;;;;;;;;-1.3130894;0.57240516;-0.26142156;;;;;1236.5
1367.0;1309.8;;;;-0.5187722;1.5435832;-0.1422043;;;;;;;;;;;;;;;
1367.0;1309.8;;;;-0.504612;1.5241625;-0.14237978;;;;;;;;;;;;;;;
1367.0;1309.8;;;;-0.48281103;1.5024416;-0.13838197;;;;;;;;;;;;;;;
1367.0;1309.8;;;;-0.46415716;1.4814149;-0.1338196;;;;;;;;;;;;;;;
1367.0;1309.8;;;;-0.44577414;1.4627877;-0.12947465;;;;;;;;;;;;;;;
1367.0;1319.8;;;;-0.4292031;1.4448205;-0.12557222;;;;;;;;;;;;;;;
1367.0;1319.8;;;;-0.41912085;1.4260675;-0.1268654;;;;;;;;;;;;;;;
1367.0;1319.8;;;;-0.40705115;1.409897;-0.12583543;;;;;;;;;;;;;;;
1367.0;1319.8;;;;-0.3935166;1.3952142;-0.12340547;;;;;;;;;;;;;;;
1367.0;1319.8;;;;-0.3834954;1.3806955;-0.12025453;;;;;;;;;;;;;;;
1367.0;1321.6;204943;204989;13977;;;;;;;;;;;;;;;;;;
1422.0;1327.8;;;;;;;;;;;;;-58002;;;;;;;;
1422.0;1327.8;;;;;;;;;;;;;-70920;;;;;;;;
1422.0;1327.8;;;;;;;;;;;;;-66287;;;;;;;;
1422.0;1327.8;;;;;;;;;;;;;-58516;;;;;;;;
1422.0;1327.8;;;;;;;;;;;;;-57309;;;;;;;;
1422.0;1329.6;;;;-0.3710747;1.3678819;-0.11589815;;;;;;;;;;;;;;;
1422.0;1329.6;;;;-0.36037448;1.3559037;-0.11317827;;;;;;;;;;;;;;;
1422.0;1329.6;;;;-0.3488846;1.3457566;-0.10999681;;;;;;;;;;;;;;;
1422.0;1329.6;;;;-0.34170917;1.3351556;-0.10706331;;;;;;;;;;;;;;;
1422.0;1329.6;;;;-0.33031848;1.3256608;-0.103706375;;;;;;;;;;;;;;;
1422.0;1339.7;;;;-0.32483295;1.3158151;-0.100124374;;;;;;;;;;;;;;;
1422.0;1339.7;;;;-0.32392886;1.3079377;-0.0980797;;;;;;;;;;;;;;;
1422.0;1339.7;;;;-0.3206139;1.3009263;-0.09590913;;;;;;;;;;;;;;;
1422.0;1339.7;;;;-0.31634906;1.2929727;-0.09252549;;;;;;;;;;;;;;;
1422.0;1339.7;;;;-0.3144112;1.2861558;-0.089824684;;;;;;;;;;;;;;;
1422.0;1341.5;221354;221291;13962;;;;;;;;;;;;;;;;;;
1422.0;1349.8;;;;-0.31370547;1.2808343;-0.087486275;;;;;;;;;;;;;;;
1422.0;1349.8;;;;-0.31282046;1.2738534;-0.08467484;;;;;;;;;;;;;;;
1422.0;1349.8;;;;-0.31349185;1.2685663;-0.084506996;;;;;;;;;;;;;;;
1422.0;1349.8;;;;-0.3123856;1.264;-0.0849228;;;;;;;;;;;;;;;
1422.0;1349.8;;;;-0.30778506;1.2574121;-0.083816536;;;;;;;;;;;;;;;
1424.0;1358.1;;;;;;;;;;;;;;;;;-66.190834;20.168919;15.411847;;1246.2
1424.0;1358.1;;;;;;;;;;;;;;-1.1746575;0.47212133;-0.21607105;;;;;1246.2
1424.0;1358.1;;;;;;;;;;;;;;;;;-69.70809;9.342479;18.64681;;1246.2
1424.0;1358.1;;;;;;;;;;;;;;-1.0051576;0.39332256;-0.2938322;;;;;1246.2
1424.0;1358.1;;;;;;;;;;;;;;;;;-59.408096;3.7995543;23.937956;;1255.7
1424.0;1358.1;;;;;;;;;;;;;;-0.8905301;0.33991516;-0.39350566;;;;;1255.7
1424.0;1358.1;;;;;;;;;;;;;;;;;-41.97821;2.8916287;29.755548;;1255.7
1424.0;1358.1;;;;;;;;;;;;;;-0.76131475;0.32203132;-0.4782861;;;;;1255.7
1424.0;1358.1;;;;;;;;;;;;;;;;;-21.458328;6.992553;35.85925;;1265.3
1424.0;1358.1;;;;;;;;;;;;;;-0.6751915;0.30890834;-0.5067293;;;;;1265.3
1424.0;1358.1;;;;;;;;;;;;;;;;;-2.5749993;13.775291;42.149876;;1265.3
1424.0;1358.1;;;;;;;;;;;;;;-0.5976745;0.33204138;-0.49079868;;;;;1265.3
1424.0;1358.8;;;;;;;;;;;;;;;;;11.364329;21.187475;48.25358;;1275.0
1424.0;1358.8;;;;;;;;;;;;;;-0.56862086;0.3719596;-0.46107364;;;;;1275.0
1424.0;1358.8;;;;;;;;;;;;;;;;;19.856104;27.459028;55.0058;;1275.0
1424.0;1358.8;;;;;;;;;;;;;;-0.54628134;0.41486862;-0.4370861;;;;;1275.0
1424.0;1358.8;;;;;;;;;;;;;;;;;23.689993;32.59377;62.18909;;1284.6
1424.0;1358.8;;;;;;;;;;;;;;-0.5411542;0.44563127;-0.44361705;;;;;1284.6
1424.0;1358.8;;;;;;;;;;;;;;;;;24.788658;37.20588;69.277016;;1284.6
1424.0;1358.8;;;;;;;;;;;;;;-0.53639334;0.47901854;-0.46815392;;;;;1284.6
1424.0;1358.8;;;;;;;;;;;;;;;;;24.056215;40.738396;75.31969;;1294.3
1424.0;1358.8;;;;;;;;;;;;;;-0.5554979;0.5043489;-0.50263983;;;;;1294.3
1424.0;1358.8;;;;;;;;;;;;;;;;;22.560808;42.252876;80.046234;;1294.3
1424.0;1358.8;;;;;;;;;;;;;;-0.5708792;0.5442671;-0.5317545;;;;;1294.3
1486.0;1359.7;;;;-0.3042908;1.2506105;-0.0821457;;;;;;;;;;;;;;;
1486.0;1359.7;;;;-0.3036652;1.2444535;-0.08198167;;;;;;;;;;;;;;;
1486.0;1359.7;;;;-0.30624393;1.2398492;-0.08277512;;;;;;;;;;;;;;;
1486.0;1359.7;;;;-0.31256488;1.2356797;-0.08389283;;;;;;;;;;;;;;;
1486.0;1359.7;;;;-0.31908038;1.2310678;-0.08222581;;;;;;;;;;;;;;;
1486.0;1361.6;237684;237715;13947;;;;;;;;;;;;;;;;;;
1486.0;1367.9;;;;;;;;;;;;;-57523;;;;;;;;
1486.0;1367.9;;;;;;;;;;;;;-55086;;;;;;;;
1486.0;1367.9;;;;;;;;;;;;;-53134;;;;;;;;
1486.0;1367.9;;;;;;;;;;;;;-51341;;;;;;;;
1486.0;1367.9;;;;;;;;;;;;;-48827;;;;;;;;
1486.0;1369.8;;;;-0.31966785;1.2237092;-0.08386613;;;;;;;;;;;;;;;
1486.0;1369.8;;;;-0.3196335;1.2167474;-0.08317567;;;;;;;;;;;;;;;
1486.0;1369.8;;;;-0.32498553;1.2099305;-0.08273698;;;;;;;;;;;;;;;
1486.0;1369.8;;;;-0.3231888;1.2028047;-0.086982735;;;;;;;;;;;;;;;
1486.0;1369.8;;;;-0.32807162;1.195347;-0.08794404;;;;;;;;;;;;;;;
1486.0;1379.8;;;;-0.34190753;1.1912004;-0.087986;;;;;;;;;;;;;;;
1486.0;1379.8;;;;-0.3470116;1.1869737;-0.08884049;;;;;;;;;;;;;;;
1486.0;1379.8;;;;-0.34284595;1.1821367;-0.08841706;;;;;;;;;;;;;;;
1486.0;1379.8;;;;-0.34447864;1.1765138;-0.08903504;;;;;;;;;;;;;;;
1486.0;1379.8;;;;-0.3490143;1.1722413;-0.087162025;;;;;;;;;;;;;;;
1486.0;1381.7;254107;254078;13941;;;;;;;;;;;;;;;;;;
1488.0;1389.6;;;;-0.34944537;1.1674806;-0.08701707;;;;;;;;;;;;;;;
1488.0;1389.6;;;;-0.3485146;1.1615945;-0.08851243;;;;;;;;;;;;;;;
1488.0;1389.6;;;;-0.34720615;1.1555368;-0.08908463;;;;;;;;;;;;;;;
1488.0;1389.6;;;;-0.34186938;1.1487008;-0.09277726;;;;;;;;;;;;;;;
1488.0;1389.6;;;;-0.33890536;1.1401483;-0.09755708;;;;;;;;;;;;;;;
1488.0;1399.8;;;;-0.3377724;1.1334153;-0.103000656;;;;;;;;;;;;;;;
1488.0;1399.8;;;;-0.33505252;1.1257364;-0.10579683;;;;;;;;;;;;;;;
1488.0;1399.8;;;;-0.33183673;1.117611;-0.10622789;;;;;;;;;;;;;;;
1488.0;1399.8;;;;-0.32810214;1.1085283;-0.10868074;;;;;;;;;;;;;;;
1488.0;1399.8;;;;-0.32356265;1.0986367;-0.111438766;;;;;;;;;;;;;;;
1488.0;1401.8;262143;262143;13943;;;;;;;;;;;;;;;;;;
1488.0;1408.1;;;;;;;;;;;;;-46303;;;;;;;;
1488.0;1408.1;;;;;;;;;;;;;-43534;;;;;;;;
1488.0;1408.1;;;;;;;;;;;;;-40573;;;;;;;;
1488.0;1408.1;;;;;;;;;;;;;-37442;;;;;;;;
1488.0;1408.1;;;;;;;;;;;;;-34333;;;;;;;;
1488.0;1409.9;;;;-0.3192368;1.0881845;-0.11268617;;;;;;;;;;;;;;;
1488.0;1409.9;;;;-0.3161278;1.0779954;-0.11434175;;;;;;;;;;;;;;;
1488.0;1409.9;;;;-0.3151932;1.0687333;-0.1202202;;;;;;;;;;;;;;;
1488.0;1409.9;;;;-0.31327823;1.0609285;-0.12296678;;;;;;;;;;;;;;;
1488.0;1409.9;;;;-0.3083382;1.0529557;-0.11727907;;;;;;;;;;;;;;;
1490.0;1418.4;;;;;;;;;;;;;;;;;20.111698;41.165653;83.42235;;1304.0
1490.0;1418.4;;;;;;;;;;;;;;-0.583697;0.5895566;-0.5492111;;;;;1304.0
1490.0;1418.4;;;;;;;;;;;;;;;;;17.948698;36.76336;85.589165;;1304.0
1490.0;1418.4;;;;;;;;;;;;;;-0.59273046;0.628132;-0.549089;;;;;1304.0
1490.0;1418.4;;;;;;;;;;;;;;;;;16.136662;28.721733;86.18809;;1313.6
1490.0;1418.4;;;;;;;;;;;;;;-0.5848567;0.6387524;-0.54896694;;;;;1313.6
1490.0;1418.4;;;;;;;;;;;;;;;;;16.457108;19.46318;84.97116;;1313.6
1490.0;1418.4;;;;;;;;;;;;;;-0.6234321;0.6286813;-0.5387738;;;;;1313.6
1490.0;1418.4;;;;;;;;;;;;;;;;;18.356884;8.945738;82.739494;;1323.3
1490.0;1418.4;;;;;;;;;;;;;;-0.6146428;0.62660605;-0.5363323;;;;;1323.3
1490.0;1418.4;;;;;;;;;;;;;;;;;23.209326;-0.4768517;79.16882;;1323.3
1490.0;1418.4;;;;;;;;;;;;;;-0.6196478;0.6313059;-0.53492844;;;;;1323.3
1490.0;1419.2;;;;;;;;;;;;;;;;;29.126102;-7.6105533;74.385056;;1332.9
1490.0;1419.2;;;;;;;;;;;;;;-0.61854917;0.65541553;-0.532548;;;;;1332.9
1490.0;1419.2;;;;;;;;;;;;;;;;;31.998657;-10.65096;68.85738;;1332.9
1490.0;1419.2;;;;;;;;;;;;;;-0.6336863;0.67146826;-0.5080111;;;;;1332.9
1490.0;1419.2;;;;;;;;;;;;;;;;;31.983398;-9.491257;63.43654;;1342.5
1490.0;1419.2;;;;;;;;;;;;;;-0.64693135;0.6922208;-0.47572252;;;;;1342.5
1490.0;1419.2;;;;;;;;;;;;;;;;;29.736473;-5.687887;58.534504;;1342.5
1490.0;1419.2;;;;;;;;;;;;;;-0.66011536;0.70278025;-0.44227424;;;;;1342.5
1490.0;1419.2;;;;;;;;;;;;;;;;;26.50151;-0.88122195;54.620502;;1352.2
1490.0;1419.2;;;;;;;;;;;;;;-0.656209;0.725547;-0.42414623;;;;;1352.2
1490.0;1419.2;;;;;;;;;;;;;;;;;23.24366;3.9063692;51.854763;;1352.2
1490.0;1419.2;;;;;;;;;;;;;;-0.65089875;0.7591174;-0.43360698;;;;;1352.2
1492.0;1419.9;;;;-0.29913715;1.0457307;-0.105728164;;;;;;;;;;;;;;;
1492.0;1419.9;;;;-0.28673938;1.0389901;-0.09633638;;;;;;;;;;;;;;;
1492.0;1419.9;;;;-0.27478793;1.0314637;-0.094577804;;;;;;;;;;;;;;;
1492.0;1419.9;;;;-0.2630463;1.0246164;-0.09884645;;;;;;;;;;;;;;;
1492.0;1419.9;;;;-0.25039676;1.0166093;-0.1054268;;;;;;;;;;;;;;;
1492.0;1421.9;262143;262143;13932;;;;;;;;;;;;;;;;;;
1492.0;1430.0;;;;-0.23829272;1.0080606;-0.11187746;;;;;;;;;;;;;;;
1492.0;1430.0;;;;-0.2256966;0.99764645;-0.11956407;;;;;;;;;;;;;;;
1492.0;1430.0;;;;-0.21569446;0.98715603;-0.12897874;;;;;;;;;;;;;;;
1492.0;1430.0;;;;-0.20345691;0.97589886;-0.13811876;;;;;;;;;;;;;;;
1492.0;1430.0;;;;-0.19154361;0.9628221;-0.14728166;;;;;;;;;;;;;;;
1492.0;1440.1;;;;-0.18367006;0.9503976;-0.15876772;;;;;;;;;;;;;;;
1492.0;1440.1;;;;-0.17160036;0.934868;-0.16877367;;;;;;;;;;;;;;;
1492.0;1440.1;;;;-0.15754701;0.9184686;-0.17592241;;;;;;;;;;;;;;;
1492.0;1440.1;;;;-0.14531328;0.90153515;-0.18301012;;;;;;;;;;;;;;;
1492.0;1440.1;;;;-0.13132478;0.88385785;-0.18864444;;;;;;;;;;;;;;;
1492.0;1442.2;262143;262143;13946;;;;;;;;;;;;;;;;;;
1492.0;1448.4;;;;;;;;;;;;;-31889;;;;;;;;
1492.0;1448.4;;;;;;;;;;;;;-30443;;;;;;;;
1492.0;1448.4;;;;;;;;;;;;;-28791;;;;;;;;
1492.0;1448.4;;;;;;;;;;;;;-26144;;;;;;;;
1492.0;1448.4;;;;;;;;;;;;;-25770;;;;;;;;
1542.0;1450.0;;;;-0.11955263;0.8668939;-0.19419864;;;;;;;;;;;;;;;
1542.0;1450.0;;;;-0.108741775;0.8513795;-0.19884875;;;;;;;;;;;;;;;
1542.0;1450.0;;;;-0.09680177;0.8367654;-0.20275882;;;;;;;;;;;;;;;
1542.0;1450.0;;;;-0.08428193;0.822014;-0.20746616;;;;;;;;;;;;;;;
1542.0;1450.0;;;;-0.07209016;0.8080026;-0.2145386;;;;;;;;;;;;;;;
1542.0;1459.9;;;;-0.060359962;0.79574215;-0.22075275;;;;;;;;;;;;;;;
1542.0;1459.9;;;;-0.048069008;0.7841798;-0.22539523;;;;;;;;;;;;;;;
1542.0;1459.9;;;;-0.0351944;0.77305615;-0.22858813;;;;;;;;;;;;;;;
1542.0;1459.9;;;;-0.020103456;0.7635232;-0.23086551;;;;;;;;;;;;;;;
1542.0;1459.9;;;;-0.007244111;0.75411236;-0.23519519;;;;;;;;;;;;;;;
1542.0;1462.1;262143;262143;13944;;;;;;;;;;;;;;;;;;
1542.0;1470.0;;;;0.00725937;0.7431069;-0.23958209;;;;;;;;;;;;;;;
1542.0;1470.0;;;;0.030212406;0.73048025;-0.24086764;;;;;;;;;;;;;;;
1542.0;1470.0;;;;0.047817238;0.71817786;-0.24291232;;;;;;;;;;;;;;;
1542.0;1470.0;;;;0.062206276;0.70600134;-0.24117282;;;;;;;;;;;;;;;
1542.0;1470.0;;;;0.07665635;0.696106;-0.23417667;;;;;;;;;;;;;;;
1544.0;1478.6;;;;;;;;;;;;;;;;;20.413067;8.648182;50.8095;;1361.8
1544.0;1478.6;;;;;;;;;;;;;;-0.6556597;0.7780999;-0.45252845;;;;;1361.8
1544.0;1478.6;;;;;;;;;;;;;;;;;19.180883;12.642292;51.133762;;1361.8
1544.0;1478.6;;;;;;;;;;;;;;-0.6477859;0.8024537;-0.4549089;;;;;1361.8
1544.0;1478.6;;;;;;;;;;;;;;;;;19.150366;15.186773;52.50328;;1371.5
1544.0;1478.6;;;;;;;;;;;;;;-0.6441847;0.8339488;-0.43702507;;;;;1371.5
1544.0;1478.6;;;;;;;;;;;;;;;;;19.886623;15.339366;54.334393;;1371.5
1544.0;1478.6;;;;;;;;;;;;;;-0.6405225;0.86159855;-0.4102298;;;;;1371.5
1544.0;1478.6;;;;;;;;;;;;;;;;;21.561327;13.988921;56.33717;;1381.1
1544.0;1478.6;;;;;;;;;;;;;;-0.639668;0.88863796;-0.3745842;;;;;1381.1
1544.0;1478.6;;;;;;;;;;;;;;;;;22.61803;12.211219;58.000427;;1381.1
1544.0;1478.6;;;;;;;;;;;;;;-0.6392407;0.9190344;-0.3317362;;;;;1381.1
1544.0;1479.4;;;;;;;;;;;;;;;;;22.144993;10.349589;59.14869;;1390.6
1544.0;1479.4;;;;;;;;;;;;;;-0.646321;0.9441816;-0.28534806;;;;;1390.6
1544.0;1479.4;;;;;;;;;;;;;;;;;20.26429;9.292887;59.511097;;1390.6
1544.0;1479.4;;;;;;;;;;;;;;-0.6634724;0.9637745;-0.24683371;;;;;1390.6
1544.0;1479.4;;;;;;;;;;;;;;;;;17.281105;9.109776;58.885464;;1400.2
1544.0;1479.4;;;;;;;;;;;;;;-0.67250586;0.97848445;-0.22791223;;;;;1400.2
1544.0;1479.4;;;;;;;;;;;;;;;;;14.591662;10.34196;57.22602;;1400.2
1544.0;1479.4;;;;;;;;;;;;;;-0.6868496;0.9719535;-0.23071994;;;;;1400.2
1544.0;1479.4;;;;;;;;;;;;;;;;;13.935514;12.333293;54.76928;;1409.9
1544.0;1479.4;;;;;;;;;;;;;;-0.6869106;0.9693289;-0.25135043;;;;;1409.9
1544.0;1479.4;;;;;;;;;;;;;;;;;14.805292;14.278848;51.93487;;1409.9
1544.0;1479.4;;;;;;;;;;;;;;-0.6969207;0.9560839;-0.28040406;;;;;1409.9
1603.0;1479.9;;;;0.08792115;0.68755347;-0.22570041;;;;;;;;;;;;;;;
1603.0;1479.9;;;;0.09468843;0.6769181;-0.2213364;;;;;;;;;;;;;;;
1603.0;1479.9;;;;0.097332016;0.669838;-0.2230492;;;;;;;;;;;;;;;
1603.0;1479.9;;;;0.094577804;0.6621857;-0.22896579;;;;;;;;;;;;;;;
1603.0;1479.9;;;;0.0930214;0.6541367;-0.23604968;;;;;;;;;;;;;;;
1603.0;1482.2;262143;262143;13948;;;;;;;;;;;;;;;;;;
1603.0;1488.4;;;;;;;;;;;;;-30277;;;;;;;;
1603.0;1488.4;;;;;;;;;;;;;-35574;;;;;;;;
1603.0;1488.4;;;;;;;;;;;;;-34939;;;;;;;;
1603.0;1488.4;;;;;;;;;;;;;-27473;;;;;;;;
1603.0;1488.4;;;;;;;;;;;;;-19288;;;;;;;;
1603.0;1490.0;;;;0.09711458;0.64581305;-0.23766711;;;;;;;;;;;;;;;
1603.0;1490.0;;;;0.09452821;0.63856894;-0.23692706;;;;;;;;;;;;;;;
1603.0;1490.0;;;;0.095333114;0.6315575;-0.2323151;;;;;;;;;;;;;;;
1603.0;1490.0;;;;0.10206224;0.6254464;-0.22412875;;;;;;;;;;;;;;;
1603.0;1490.0;;;;0.10759355;0.62022024;-0.21580127;;;;;;;;;;;;;;;
1603.0;1500.0;;;;0.10681535;0.61633307;-0.21306995;;;;;;;;;;;;;;;
1603.0;1500.0;;;;0.10570909;0.6124993;-0.20746616;;;;;;;;;;;;;;;
1603.0;1500.0;;;;0.102058426;0.60921484;-0.20224765;;;;;;;;;;;;;;;
1603.0;1500.0;;;;0.095195785;0.60519415;-0.19845584;;;;;;;;;;;;;;;
1603.0;1500.0;;;;0.08693696;0.60114676;-0.19210818;;;;;;;;;;;;;;;
1603.0;1502.3;262143;262143;13937;;;;;;;;;;;;;;;;;;
1605.0;1510.1;;;;0.078723915;0.5976029;-0.18621065;;;;;;;;;;;;;;;
1605.0;1510.1;;;;0.06985856;0.5943566;-0.1793709;;;;;;;;;;;;;;;
1605.0;1510.1;;;;0.06441117;0.5921555;-0.17330553;;;;;;;;;;;;;;;
1605.0;1510.1;;;;0.05577851;0.5920983;-0.1674576;;;;;;;;;;;;;;;
1605.0;1510.1;;;;0.049098976;0.5938378;-0.16149141;;;;;;;;;;;;;;;
1605.0;1520.1;;;;0.040508274;0.5959473;-0.15617372;;;;;;;;;;;;;;;
1605.0;1520.1;;;;0.03085709;0.5974503;-0.15385057;;;;;;;;;;;;;;;
1605.0;1520.1;;;;0.02239609;0.5993081;-0.15273668;;;;;;;;;;;;;;;
1605.0;1520.1;;;;0.015674593;0.6014214;-0.15052034;;;;;;;;;;;;;;;
1605.0;1520.1;;;;0.007305146;0.6036721;-0.14580919;;;;;;;;;;;;;;;
1605.0;1522.5;262143;262143;13935;;;;;;;;;;;;;;;;;;
1605.0;1528.7;;;;;;;;;;;;;-15532;;;;;;;;
1605.0;1528.7;;;;;;;;;;;;;-14921;;;;;;;;
1605.0;1528.7;;;;;;;;;;;;;-13689;;;;;;;;
1605.0;1528.7;;;;;;;;;;;;;-11483;;;;;;;;
1605.0;1528.7;;;;;;;;;;;;;-10079;;;;;;;;
1605.0;1530.2;;;;8.773805E-4;0.6071816;-0.1396332;;;;;;;;;;;;;;;
1605.0;1530.2;;;;-0.002979279;0.6111832;-0.13412859;;;;;;;;;;;;;;;
1605.0;1530.2;;;;-0.008186341;0.6156388;-0.12892152;;;;;;;;;;;;;;;
1605.0;1530.2;;;;-0.013507845;0.62092215;-0.12288286;;;;;;;;;;;;;;;
1605.0;1530.2;;;;-0.017902376;0.6273919;-0.11646654;;;;;;;;;;;;;;;
1607.0;1539.0;;;;;;;;;;;;;;;;;15.686514;14.656514;48.79147;;1419.5
1607.0;1539.0;;;;;;;;;;;;;;-0.6994842;0.93435466;-0.31373027;;;;;1419.5
1607.0;1539.0;;;;;;;;;;;;;;;;;15.495773;13.7867365;45.499283;;1419.5
1607.0;1539.0;;;;;;;;;;;;;;-0.6967986;0.9083529;-0.34107485;;;;;1419.5
1607.0;1539.0;;;;;;;;;;;;;;;;;13.801995;11.848811;42.321545;;1429.2
1607.0;1539.0;;;;;;;;;;;;;;-0.6906949;0.8728294;-0.35346538;;;;;1429.2
1607.0;1539.0;;;;;;;;;;;;;;;;;11.15833;9.353924;39.48332;;1429.2
1607.0;1539.0;;;;;;;;;;;;;;-0.68404186;0.8371838;-0.35608998;;;;;1429.2
1607.0;1539.0;;;;;;;;;;;;;;;;;8.293406;6.6644797;37.011322;;1438.8
1607.0;1539.0;;;;;;;;;;;;;;-0.6726279;0.7993408;-0.35370952;;;;;1438.8
1607.0;1539.0;;;;;;;;;;;;;;;;;5.8481092;4.333628;34.897915;;1438.8
1607.0;1539.0;;;;;;;;;;;;;;-0.6623127;0.7620472;-0.35291603;;;;;1438.8
1607.0;1539.8;;;;;;;;;;;;;;;;;4.234443;2.7924435;33.120213;;1448.5
1607.0;1539.8;;;;;;;;;;;;;;-0.647908;0.73134553;-0.34827724;;;;;1448.5
1607.0;1539.8;;;;;;;;;;;;;;;;;2.666555;2.0142217;31.830807;;1448.5
1607.0;1539.8;;;;;;;;;;;;;;-0.63374734;0.7118137;-0.3406476;;;;;1448.5
1607.0;1539.8;;;;;;;;;;;;;;;;;0.88122195;2.334666;30.846582;;1458.1
1607.0;1539.8;;;;;;;;;;;;;;-0.6201972;0.692465;-0.3249611;;;;;1458.1
1607.0;1539.8;;;;;;;;;;;;;;;;;-0.8125553;3.4867396;30.011139;;1458.1
1607.0;1539.8;;;;;;;;;;;;;;-0.6065249;0.6799524;-0.30854213;;;;;1458.1
1607.0;1539.8;;;;;;;;;;;;;;;;;-1.9074068;5.176702;29.335918;;1467.8
1607.0;1539.8;;;;;;;;;;;;;;-0.5970031;0.66798913;-0.30030215;;;;;1467.8
1607.0;1539.8;;;;;;;;;;;;;;;;;-2.25074;7.1642203;28.729362;;1467.8
1607.0;1539.8;;;;;;;;;;;;;;-0.5955382;0.6596881;-0.2956023;;;;;1467.8
1609.0;1540.2;;;;-0.021400454;0.63309485;-0.11110689;;;;;;;;;;;;;;;
1609.0;1540.2;;;;-0.025600437;0.63953406;-0.10590364;;;;;;;;;;;;;;;
1609.0;1540.2;;;;-0.027565006;0.6471482;-0.09980394;;;;;;;;;;;;;;;
1609.0;1540.2;;;;-0.029670719;0.653801;-0.09422304;;;;;;;;;;;;;;;
1609.0;1540.2;;;;-0.030170444;0.6605721;-0.088859566;;;;;;;;;;;;;;;
1609.0;1542.6;262143;262143;13929;;;;;;;;;;;;;;;;;;
1609.0;1550.3;;;;-0.030208591;0.66873556;-0.083774574;;;;;;;;;;;;;;;
1609.0;1550.3;;;;-0.02845383;0.67760473;-0.07881928;;;;;;;;;;;;;;;
1609.0;1550.3;;;;-0.027664188;0.6854401;-0.07541657;;;;;;;;;;;;;;;
1609.0;1550.3;;;;-0.025711063;0.69349676;-0.07339097;;;;;;;;;;;;;;;
1609.0;1550.3;;;;-0.024017338;0.7015229;-0.07107545;;;;;;;;;;;;;;;
1609.0;1554.4;;;;;;;;;;;;;;;;;-1.9569995;9.441664;28.24488;;1477.4
1609.0;1554.4;;;;;;;;;;;;;;-0.59382915;0.654622;-0.29505295;;;;;1477.4
1609.0;1554.4;;;;;;;;;;;;;;;;;-1.6747032;12.222664;27.817621;;1477.4
1609.0;1554.4;;;;;;;;;;;;;;-0.6014588;0.6515702;-0.29486984;;;;;1477.4
1609.0;1554.4;;;;;;;;;;;;;;;;;-1.9837031;15.339366;27.53151;;1487.1
1609.0;1554.4;;;;;;;;;;;;;;-0.61061436;0.6527909;-0.29273355;;;;;1487.1
1609.0;1554.4;;;;;;;;;;;;;;;;;-3.2883694;18.524736;27.424694;;1487.1
1609.0;1554.4;;;;;;;;;;;;;;-0.618244;0.6523026;-0.2854091;;;;;1487.1
1609.0;1554.4;;;;;;;;;;;;;;;;;-5.7222204;21.767328;27.25303;;1496.7
1609.0;1554.4;;;;;;;;;;;;;;-0.6203803;0.6504715;-0.27838984;;;;;1496.7
1609.0;1554.4;;;;;;;;;;;;;;;;;-8.873257;25.257881;26.974548;;1496.7
1609.0;1554.4;;;;;;;;;;;;;;-0.6170232;0.6455886;-0.2689291;;;;;1496.7
1664.0;1560.2;;;;-0.022773745;0.70873266;-0.06804276;;;;;;;;;;;;;;;
1664.0;1560.2;;;;-0.021778109;0.7157212;-0.065803535;;;;;;;;;;;;;;;
1664.0;1560.2;;;;-0.020851137;0.72227484;-0.06454087;;;;;;;;;;;;;;;
1664.0;1560.2;;;;-0.020545961;0.72801214;-0.063293464;;;;;;;;;;;;;;;
1664.0;1560.2;;;;-0.020408632;0.73271567;-0.062221535;;;;;;;;;;;;;;;
1664.0;1562.7;262143;262143;13914;;;;;;;;;;;;;;;;;;
1664.0;1568.9;;;;;;;;;;;;;-9003;;;;;;;;
1664.0;1568.9;;;;;;;;;;;;;-7429;;;;;;;;
1664.0;1568.9;;;;;;;;;;;;;-5810;;;;;;;;
1664.0;1568.9;;;;;;;;;;;;;-4327;;;;;;;;
1664.0;1568.9;;;;;;;;;;;;;-3149;;;;;;;;
1664.0;1570.2;;;;-0.020328524;0.7367249;-0.060127266;;;;;;;;;;;;;;;
1664.0;1570.2;;;;-0.02138138;0.7401925;-0.058364876;;;;;;;;;;;;;;;
1664.0;1570.2;;;;-0.022693636;0.7436219;-0.055816658;;;;;;;;;;;;;;;
1664.0;1570.2;;;;-0.024654392;0.74763876;-0.052387245;;;;;;;;;;;;;;;
1664.0;1570.2;;;;-0.027458195;0.75075924;-0.048301704;;;;;;;;;;;;;;;
1664.0;1580.1;;;;-0.02920914;0.753544;-0.042930607;;;;;;;;;;;;;;;
1664.0;1580.1;;;;-0.028057102;0.7566644;-0.033897404;;;;;;;;;;;;;;;
1664.0;1580.1;;;;-0.02637482;0.7605058;-0.017105104;;;;;;;;;;;;;;;
1664.0;1580.1;;;;-0.02763367;0.7655908;-0.005764008;;;;;;;;;;;;;;;
1664.0;1580.1;;;;-0.030567173;0.7722093;0.0010757447;;;;;;;;;;;;;;;
1664.0;1582.7;262143;262143;13925;;;;;;;;;;;;;;;;;;
1666.0;1590.3;;;;-0.033741;0.77866375;0.0031356816;;;;;;;;;;;;;;;
1666.0;1590.3;;;;-0.04062653;0.7840806;-0.0088768015;;;;;;;;;;;;;;;
1666.0;1590.3;;;;-0.04995347;0.78606427;-0.019802095;;;;;;;;;;;;;;;
1666.0;1590.3;;;;-0.05629731;0.7867929;-0.02700806;;;;;;;;;;;;;;;
1666.0;1590.3;;;;-0.060150154;0.7859651;-0.030113224;;;;;;;;;;;;;;;
1666.0;1599.1;;;;;;;;;;;;;;;;;-12.115849;28.90103;26.23066;;1506.2
1666.0;1599.1;;;;;;;;;;;;;;-0.60731834;0.6443068;-0.25873592;;;;;1506.2
1666.0;1599.1;;;;;;;;;;;;;;;;;-15.202032;32.567066;25.200659;;1506.2
1666.0;1599.1;;;;;;;;;;;;;;-0.6006043;0.63979006;-0.24475844;;;;;1506.2
1666.0;1599.1;;;;;;;;;;;;;;;;;-17.826624;36.000397;23.918882;;1515.7
1666.0;1599.1;;;;;;;;;;;;;;-0.5874813;0.6369213;-0.2301706;;;;;1515.7
1666.0;1599.1;;;;;;;;;;;;;;;;;-20.165104;38.869137;22.495956;;1515.7
1666.0;1599.1;;;;;;;;;;;;;;-0.5736259;0.6313059;-0.2120426;;;;;1515.7
1666.0;1599.1;;;;;;;;;;;;;;;;;-22.137363;40.9711;20.970032;;1525.3
1666.0;1599.1;;;;;;;;;;;;;;-0.5658132;0.623249;-0.1915952;;;;;1525.3
1666.0;1599.1;;;;;;;;;;;;;;;;;-23.693808;42.33299;19.634846;;1525.3
1666.0;1599.1;;;;;;;;;;;;;;-0.5519578;0.6153142;-0.17358929;;;;;1525.3
1666.0;1600.3;;;;-0.06319047;0.78618634;-0.03035355;;;;;;;;;;;;;;;
1666.0;1600.3;;;;-0.0650673;0.7865449;-0.036010746;;;;;;;;;;;;;;;
1666.0;1600.3;;;;-0.0684929;0.7855493;-0.04798127;;;;;;;;;;;;;;;
1666.0;1600.3;;;;-0.072723396;0.78351605;-0.050720222;;;;;;;;;;;;;;;
1666.0;1600.3;;;;-0.07482911;0.78170025;-0.05482102;;;;;;;;;;;;;;;
1666.0;1602.8;262143;262143;13917;;;;;;;;;;;;;;;;;;
1668.0;1609.0;;;;;;;;;;;;;-2342;;;;;;;;
1668.0;1609.0;;;;;;;;;;;;;-1718;;;;;;;;
1668.0;1609.0;;;;;;;;;;;;;-1235;;;;;;;;
1668.0;1609.0;;;;;;;;;;;;;-834;;;;;;;;
1668.0;1609.0;;;;;;;;;;;;;-604;;;;;;;;
1668.0;1610.4;;;;-0.072746284;0.779606;-0.050403602;;;;;;;;;;;;;;;
1668.0;1610.4;;;;-0.074565895;0.7790948;-0.043254856;;;;;;;;;;;;;;;
1668.0;1610.4;;;;-0.079154976;0.7829629;-0.033790592;;;;;;;;;;;;;;;
1668.0;1610.4;;;;-0.08167649;0.7855722;-0.04164124;;;;;;;;;;;;;;;
1668.0;1610.4;;;;-0.032783512;0.782158;-0.04861451;;;;;;;;;;;;;;;
1668.0;1614.2;;;;;;;;;;;;;;;;;-24.70855;43.454544;18.414106;;1535.0
1668.0;1614.2;;;;;;;;;;;;;;-0.5526902;0.6011536;-0.16132084;;;;;1535.0
1668.0;1614.2;;;;;;;;;;;;;;;;;-25.101473;44.30143;17.502365;;1535.0
1668.0;1614.2;;;;;;;;;;;;;;-0.5540941;0.58522296;-0.15747552;;;;;1535.0
1668.0;1614.2;;;;;;;;;;;;;;;;;-25.028992;44.75921;16.97592;;1544.7
1668.0;1614.2;;;;;;;;;;;;;;-0.5641652;0.56624043;-0.16229743;;;;;1544.7
1668.0;1614.2;;;;;;;;;;;;;;;;;-25.372326;44.591354;17.036957;;1544.7
1668.0;1614.2;;;;;;;;;;;;;;-0.57124543;0.55189675;-0.16266365;;;;;1544.7
1668.0;1614.2;;;;;;;;;;;;;;;;;-26.753288;43.588062;17.49855;;1554.3
1668.0;1614.2;;;;;;;;;;;;;;-0.56807154;0.5429243;-0.16034424;;;;;1554.3
1668.0;1614.2;;;;;;;;;;;;;;;;;-29.435102;41.615803;18.303476;;1554.3
1668.0;1614.2;;;;;;;;;;;;;;-0.5661794;0.52955717;-0.14984588;;;;;1554.3
1724.0;1620.3;;;;-0.06308747;0.7771188;-0.04057694;;;;;;;;;;;;;;;
1724.0;1620.3;;;;-0.08656312;0.78530896;-0.03374863;;;;;;;;;;;;;;;
1724.0;1620.3;;;;-0.08550645;0.79337704;-0.025508884;;;;;;;;;;;;;;;
1724.0;1620.3;;;;-0.090694435;0.7982522;-0.020889284;;;;;;;;;;;;;;;
1724.0;1620.3;;;;-0.089077;0.8009263;-0.025867466;;;;;;;;;;;;;;;
1724.0;1622.9;262143;262143;13921;;;;;;;;;;;;;;;;;;
1724.0;1630.2;;;;-0.086990364;0.8022195;-0.028285984;;;;;;;;;;;;;;;
1724.0;1630.2;;;;-0.089313515;0.80254376;-0.03205872;;;;;;;;;;;;;;;
1724.0;1630.2;;;;-0.095058456;0.80056393;-0.034370426;;;;;;;;;;;;;;;
1724.0;1630.2;;;;-0.09775163;0.80536664;-0.031524662;;;;;;;;;;;;;;;
1724.0;1630.2;;;;-0.101814285;0.8139764;-0.03059769;;;;;;;;;;;;;;;
1724.0;1640.1;;;;-0.102432266;0.8231889;-0.031017307;;;;;;;;;;;;;;;
1724.0;1640.1;;;;-0.0968094;0.8295976;-0.023414614;;;;;;;;;;;;;;;
1724.0;1640.1;;;;-0.09643938;0.8350183;-0.020015718;;;;;;;;;;;;;;;
1724.0;1640.1;;;;-0.0966263;0.8400575;-0.021179201;;;;;;;;;;;;;;;
1724.0;1640.1;;;;-0.08968354;0.8492967;-0.008617402;;;;;;;;;;;;;;;
1724.0;1642.8;262143;262143;13924;;;;;;;;;;;;;;;;;;
1724.0;1649.0;;;;;;;;;;;;;-760;;;;;;;;
1724.0;1649.0;;;;;;;;;;;;;-1194;;;;;;;;
1724.0;1649.0;;;;;;;;;;;;;-1358;;;;;;;;
1724.0;1649.0;;;;;;;;;;;;;-1100;;;;;;;;
1724.0;1649.0;;;;;;;;;;;;;-796;;;;;;;;
1726.0;1650.2;;;;-0.09777452;0.8582269;-0.0039176946;;;;;;;;;;;;;;;
1726.0;1650.2;;;;-0.107677475;0.86633694;-0.008392335;;;;;;;;;;;;;;;
1726.0;1650.2;;;;-0.11508562;0.87490475;-0.011535645;;;;;;;;;;;;;;;
1726.0;1650.2;;;;-0.11477281;0.88450253;-0.0089263925;;;;;;;;;;;;;;;
1726.0;1650.2;;;;-0.117309585;0.8953439;-0.009555818;;;;;;;;;;;;;;;
1726.0;1659.2;;;;;;;;;;;;;;;;;-32.63573;38.857693;19.299143;;1563.8
1726.0;1659.2;;;;;;;;;;;;;;-0.56337166;0.51203954;-0.1478927;;;;;1563.8
1726.0;1659.2;;;;;;;;;;;;;;;;;-35.336617;35.920284;20.210882;;1563.8
1726.0;1659.2;;;;;;;;;;;;;;-0.5577563;0.49110386;-0.15784173;;;;;1563.8
1726.0;1659.2;;;;;;;;;;;;;;;;;-37.07999;32.96762;20.88229;;1573.4
1726.0;1659.2;;;;;;;;;;;;;;-0.5640431;0.45747244;-0.17413862;;;;;1573.4
1726.0;1659.2;;;;;;;;;;;;;;;;;-37.320324;30.156101;21.313364;;1573.4
1726.0;1659.2;;;;;;;;;;;;;;-0.56251717;0.43470564;-0.19342631;;;;;1573.4
1726.0;1659.2;;;;;;;;;;;;;;;;;-36.79769;27.336956;21.469772;;1583.1
1726.0;1659.2;;;;;;;;;;;;;;-0.57747126;0.40882596;-0.20288706;;;;;1583.1
1726.0;1659.2;;;;;;;;;;;;;;;;;-35.958435;24.010437;21.290476;;1583.1
1726.0;1659.2;;;;;;;;;;;;;;-0.5791803;0.39252907;-0.20618305;;;;;1583.1
1726.0;1660.2;;;;-0.12104799;0.9041749;-0.015434267;;;;;;;;;;;;;;;
1726.0;1660.2;;;;-0.12484361;0.9146043;-0.024669651;;;;;;;;;;;;;;;
1726.0;1660.2;;;;-0.12758256;0.92832196;-0.03913117;;;;;;;;;;;;;;;
1726.0;1660.2;;;;-0.13154604;0.9426347;-0.056983955;;;;;;;;;;;;;;;
1726.0;1660.2;;;;-0.13881685;0.95821774;-0.079593666;;;;;;;;;;;;;;;
1726.0;1663.0;262143;262143;13928;;;;;;;;;;;;;;;;;;
1728.0;1670.3;;;;-0.14701082;0.9729768;-0.103382125;;;;;;;;;;;;;;;
1728.0;1670.3;;;;-0.14979173;0.99700177;-0.11979295;;;;;;;;;;;;;;;
1728.0;1670.3;;;;-0.14685442;1.0281678;-0.12823488;;;;;;;;;;;;;;;
1728.0;1670.3;;;;-0.15020753;1.056202;-0.1428032;;;;;;;;;;;;;;;
1728.0;1670.3;;;;-0.15122606;1.0905801;-0.15382387;;;;;;;;;;;;;;;
1728.0;1674.7;;;;;;;;;;;;;;;;;-34.928432;20.287178;20.611439;;1592.7
1728.0;1674.7;;;;;;;;;;;;;;-0.58278143;0.3723258;-0.19806513;;;;;1592.7
1728.0;1674.7;;;;;;;;;;;;;;;;;-34.01288;16.453293;19.547104;;1592.7
1728.0;1674.7;;;;;;;;;;;;;;-0.59181494;0.346202;-0.1820124;;;;;1592.7
1728.0;1674.7;;;;;;;;;;;;;;;;;-32.86462;12.874996;18.215734;;1602.4
1728.0;1674.7;;;;;;;;;;;;;;-0.5989563;0.31684315;-0.16272469;;;;;1602.4
1728.0;1674.7;;;;;;;;;;;;;;;;;-31.910915;9.704886;16.384624;;1602.4
1728.0;1674.7;;;;;;;;;;;;;;-0.6060976;0.29114658;-0.14996795;;;;;1602.4
1728.0;1674.7;;;;;;;;;;;;;;;;;-31.678215;7.160405;14.103366;;1612.0
1728.0;1674.7;;;;;;;;;;;;;;-0.6131779;0.26172674;-0.15594958;;;;;1612.0
1728.0;1674.7;;;;;;;;;;;;;;;;;-32.65099;4.9821467;11.432997;;1612.0
1728.0;1674.7;;;;;;;;;;;;;;-0.6245308;0.23206274;-0.14758751;;;;;1612.0
1728.0;1680.2;;;;-0.15493394;1.1319581;-0.15858461;;;;;;;;;;;;;;;
1728.0;1680.2;;;;-0.16082765;1.1746408;-0.16064073;;;;;;;;;;;;;;;
1728.0;1680.2;;;;-0.16511156;1.2180177;-0.16617204;;;;;;;;;;;;;;;
1728.0;1680.2;;;;-0.16747667;1.2682687;-0.16670229;;;;;;;;;;;;;;;
1728.0;1680.2;;;;-0.1680832;1.3141938;-0.16894533;;;;;;;;;;;;;;;
1728.0;1683.0;262143;262143;13911;;;;;;;;;;;;;;;;;;
1804.0;1689.2;;;;;;;;;;;;;-346;;;;;;;;
1804.0;1689.2;;;;;;;;;;;;;618;;;;;;;;
1804.0;1689.2;;;;;;;;;;;;;2088;;;;;;;;
1804.0;1689.2;;;;;;;;;;;;;3546;;;;;;;;
1804.0;1689.2;;;;;;;;;;;;;4252;;;;;;;;
1804.0;1690.2;;;;-0.16748048;1.3585054;-0.1713791;;;;;;;;;;;;;;;
1804.0;1690.2;;;;-0.16991808;1.4054796;-0.16669847;;;;;;;;;;;;;;;
1804.0;1690.2;;;;-0.17855836;1.4483148;-0.16592027;;;;;;;;;;;;;;;
1804.0;1690.2;;;;-0.17121507;1.4870759;-0.15624239;;;;;;;;;;;;;;;
1804.0;1690.2;;;;-0.16819765;1.517483;-0.14130022;;;;;;;;;;;;;;;
1804.0;1700.2;;;;-0.16617204;1.5383112;-0.12841035;;;;;;;;;;;;;;;
1804.0;1700.2;;;;-0.17940904;1.5555575;-0.120769516;;;;;;;;;;;;;;;
1804.0;1700.2;;;;-0.19253162;1.5681727;-0.109439865;;;;;;;;;;;;;;;
1804.0;1700.2;;;;-0.19601825;1.5767672;-0.095577255;;;;;;;;;;;;;;;
1804.0;1700.2;;;;-0.19732288;1.5767596;-0.082046516;;;;;;;;;;;;;;;
1804.0;1703.0;262143;262143;13915;;;;;;;;;;;;;;;;;;
1804.0;1710.3;;;;-0.20072177;1.5689166;-0.067493446;;;;;;;;;;;;;;;
1804.0;1710.3;;;;-0.20708087;1.5545771;-0.054515846;;;;;;;;;;;;;;;
1804.0;1710.3;;;;-0.21646121;1.5357707;-0.041362766;;;;;;;;;;;;;;;
1804.0;1710.3;;;;-0.2280617;1.5174105;-0.025211338;;;;;;;;;;;;;;;
1804.0;1710.3;;;;-0.2402573;1.497101;-0.0057296758;;;;;;;;;;;;;;;
1900.0;1719.4;;;;;;;;;;;;;;;;;-34.543137;2.9755547;7.6029234;;1621.5
1900.0;1719.4;;;;;;;;;;;;;;-0.64192635;0.23517564;-0.06701865;;;;;1621.5
1900.0;1719.4;;;;;;;;;;;;;;;;;-36.84347;1.0910367;2.2087772;;1621.5
1900.0;1719.4;;;;;;;;;;;;;;-0.6983856;0.24317148;-0.046143986;;;;;1621.5
1900.0;1719.4;;;;;;;;;;;;;;;;;-37.285988;-0.80111086;-4.20011;;1631.0
1900.0;1719.4;;;;;;;;;;;;;;-0.7754753;0.24207282;-0.12445448;;;;;1631.0
1900.0;1719.4;;;;;;;;;;;;;;;;;-31.998657;-1.3504441;-11.310923;;1631.0
1900.0;1719.4;;;;;;;;;;;;;;-0.8530534;0.26477858;-0.21765801;;;;;1631.0
1900.0;1719.4;;;;;;;;;;;;;;;;;-24.544512;-1.9760735;-18.898588;;1640.7
1900.0;1719.4;;;;;;;;;;;;;;-0.92751855;0.33179724;-0.25318155;;;;;1640.7
1900.0;1719.4;;;;;;;;;;;;;;;;;-21.210365;-5.3979616;-26.261177;;1640.7
1900.0;1719.4;;;;;;;;;;;;;;-0.9769585;0.41273233;-0.21436201;;;;;1640.7
1900.0;1720.3;;;;-0.24473193;1.4803354;0.017444612;;;;;;;;;;;;;;;
1900.0;1720.3;;;;-0.24981692;tammi.69;0.037128452;;;;;;;;;;;;;;;
1900.0;1720.3;;;;-0.25096133;1.4577714;0.059112556;;;;;;;;;;;;;;;
1900.0;1720.3;;;;-0.25053027;1.4531785;0.07889558;;;;;;;;;;;;;;;
1900.0;1720.3;;;;-0.25455096;1.455845;0.09550859;;;;;;;;;;;;;;;
1900.0;1723.2;262143;262143;13911;;;;;;;;;;;;;;;;;;
1904.0;1726.8;;;;;;;;;;;;;;;;;-23.079622;-12.318034;-33.80688;;1650.4
1904.0;1726.8;;;;;;;;;;;;;;-1.0046083;0.45777765;-0.17371136;;;;;1650.4
1904.0;1726.8;;;;;;;;;;;;;;;;;-26.688437;-19.619585;-42.07358;;1650.4
1904.0;1726.8;;;;;;;;;;;;;;-1.0314035;0.48316905;-0.15997803;;;;;1650.4
1904.0;1726.8;;;;;;;;;;;;;;;;;-30.396435;-26.047548;-51.458023;;1660.1
1904.0;1726.8;;;;;;;;;;;;;;-1.0550859;0.50398266;-0.1683401;;;;;1660.1
1904.0;1726.8;;;;;;;;;;;;;;;;;-33.72677;-31.04114;-61.20487;;1660.1
1904.0;1726.8;;;;;;;;;;;;;;-1.0776696;0.53218174;-0.17639698;;;;;1660.1
1904.0;1726.8;;;;;;;;;;;;;;;;;-35.870693;-35.542618;-70.806755;;1669.8
1904.0;1726.8;;;;;;;;;;;;;;-1.1139866;0.56410414;-0.18909268;;;;;1669.8
1904.0;1726.8;;;;;;;;;;;;;;;;;-35.428173;-41.52806;-80.675674;;1669.8
1904.0;1726.8;;;;;;;;;;;;;;-1.1442;0.61653495;-0.20490128;;;;;1669.8
1904.0;1729.1;;;;;;;;;;;;;4264;;;;;;;;
1904.0;1729.1;;;;;;;;;;;;;4466;;;;;;;;
1904.0;1729.1;;;;;;;;;;;;;5198;;;;;;;;
1904.0;1729.1;;;;;;;;;;;;;5859;;;;;;;;
1904.0;1729.1;;;;;;;;;;;;;6037;;;;;;;;
1904.0;1730.2;;;;-0.26457217;1.4617845;0.107158676;;;;;;;;;;;;;;;
1904.0;1730.2;;;;-0.27778247;1.4718362;0.11748125;;;;;;;;;;;;;;;
1904.0;1730.2;;;;-0.29771808;1.4849168;0.13256837;;;;;;;;;;;;;;;
1904.0;1730.2;;;;-0.3305321;1.5011675;0.15147783;;;;;;;;;;;;;;;
1904.0;1730.2;;;;-0.3669434;1.5204737;0.17300417;;;;;;;;;;;;;;;
1904.0;1739.5;;;;;;;;;;0.3089999;19.631031;-1.8997772;;;;;;;;;
1904.0;1739.5;;;;;;;0.52735984;-0.20282601;0.11407819;;;;;;;;;;;;
1904.0;1739.5;;;;;;;;;;6.698813;33.089695;9.434034;;;;;;;;;
1904.0;1739.5;;;;;;;0.591937;-0.25940734;0.12994781;;;;;;;;;;;;
1912.0;1740.2;;;;-0.32421115;1.534466;0.17962648;;;;;;;;;;;;;;;
1912.0;1740.2;;;;-0.27128223;1.5414431;0.17981721;;;;;;;;;;;;;;;
1912.0;1740.2;;;;-0.23423007;1.5427744;0.17913438;;;;;;;;;;;;;;;
1912.0;1740.2;;;;-0.21654132;1.5435641;0.18541338;;;;;;;;;;;;;;;
1912.0;1740.2;;;;-0.20925525;1.5402339;0.19992831;;;;;;;;;;;;;;;
1912.0;1743.2;262143;262143;13902;;;;;;;;;;;;;;;;;;
1912.0;1749.1;;;;;;;;;;-0.7896664;8.529923;9.220405;;;;;;;;;
1912.0;1749.1;;;;;;;0.5953551;-0.300119;0.13489181;;;;;;;;;;;;
1912.0;1749.1;;;;;;;;;;-0.88503677;28.218176;19.3907;;;;;;;;;
1912.0;1749.1;;;;;;;0.59761345;-0.3431501;0.13415937;;;;;;;;;;;;
1912.0;1750.3;;;;-0.2056351;1.5332491;0.21585467;;;;;;;;;;;;;;;
1912.0;1750.3;;;;-0.1945534;1.5226328;0.22563937;;;;;;;;;;;;;;;
1912.0;1750.3;;;;-0.18482591;1.5098155;0.22866443;;;;;;;;;;;;;;;
1912.0;1750.3;;;;-0.18244554;1.4947892;0.23173526;;;;;;;;;;;;;;;
1912.0;1750.3;;;;-0.18478395;1.4794084;0.23555377;;;;;;;;;;;;;;;
1912.0;1758.6;;;;;;;;;;-6.4127016;38.022247;31.250954;;;;;;;;;
1912.0;1758.6;;;;;;;0.6025575;-0.39210182;0.12756737;;;;;;;;;;;;
1912.0;1758.6;;;;;;;;;;-17.548143;11.318552;24.658957;;;;;;;;;
1912.0;1758.6;;;;;;;0.60805076;-0.45057526;0.11609241;;;;;;;;;;;;
1915.0;1760.3;;;;-0.19287112;1.4632798;0.24651721;;;;;;;;;;;;;;;
1915.0;1760.3;;;;-0.20095828;1.4473191;0.26166156;;;;;;;;;;;;;;;
1915.0;1760.3;;;;-0.20416263;1.4297906;0.2701111;;;;;;;;;;;;;;;
1915.0;1760.3;;;;-0.20412448;1.4110414;0.27135852;;;;;;;;;;;;;;;
1915.0;1760.3;;;;-0.20412067;1.3919603;0.27125552;;;;;;;;;;;;;;;
1915.0;1763.3;262143;262143;13907;;;;;;;;;;;;;;;;;;
1915.0;1768.2;;;;;;;;;;-24.143957;20.928068;41.600544;;;;;;;;;
1915.0;1768.2;;;;;;;0.57618946;-0.5087435;0.1010773;;;;;;;;;;;;
1915.0;1768.2;;;;;;;;;;-32.288586;31.85751;63.741722;;;;;;;;;
1915.0;1768.2;;;;;;;0.6294137;-0.59779656;0.10956145;;;;;;;;;;;;
1915.0;1769.4;;;;;;;;;;;;;6221;;;;;;;;
1915.0;1769.4;;;;;;;;;;;;;7004;;;;;;;;
1915.0;1769.4;;;;;;;;;;;;;8166;;;;;;;;
1915.0;1769.4;;;;;;;;;;;;;9008;;;;;;;;
1915.0;1769.4;;;;;;;;;;;;;9172;;;;;;;;
1915.0;1770.4;;;;-0.20525745;1.375187;0.27444842;;;;;;;;;;;;;;;
1915.0;1770.4;;;;-0.20355228;1.3641282;0.2790604;;;;;;;;;;;;;;;
1915.0;1770.4;;;;-0.20195392;1.3541948;0.28195956;;;;;;;;;;;;;;;
1915.0;1770.4;;;;-0.19828036;1.3421174;0.28639224;;;;;;;;;;;;;;;
1915.0;1770.4;;;;-0.19277194;1.3298532;0.29111484;;;;;;;;;;;;;;;
1915.0;1777.9;;;;;;;;;;-38.30836;50.98117;90.01816;;;;;;;;;
1915.0;1777.9;;;;;;;0.6928312;-0.7124241;0.10626545;;;;;;;;;;;;
1915.0;1777.9;;;;;;;;;;-39.23917;66.58376;106.44475;;;;;;;;;
1915.0;1777.9;;;;;;;0.7334819;-0.826075;0.10492264;;;;;;;;;;;;
1916.0;1780.1;;;;;;;;;;;;;;;;;-33.07062;-48.226875;-89.884636;;1679.2
1916.0;1780.1;;;;;;;;;;;;;;-1.1543932;0.7149266;-0.19782098;;;;;1679.2
1916.0;1780.1;;;;;;;;;;;;;;;;;-29.904325;-55.88702;-97.2129;;1679.2
1916.0;1780.1;;;;;;;;;;;;;;-1.1448714;0.8265633;-0.17627491;;;;;1679.2
1916.0;1780.1;;;;;;;;;;;;;;;;;-27.653584;-63.37169;-104.27412;;1688.8
1916.0;1780.1;;;;;;;;;;;;;;-1.1467636;0.9147618;-0.1530198;;;;;1688.8
1916.0;1780.1;;;;;;;;;;;;;;;;;-25.761436;-69.46394;-110.106964;;1688.8
1916.0;1780.1;;;;;;;;;;;;;;-1.1610461;0.97201455;-0.15747552;;;;;1688.8
1916.0;1780.1;;;;;;;;;;;;;;;;;-24.746696;-73.09183;-114.34141;;1698.3
1916.0;1780.1;;;;;;;;;;;;;;-1.1730704;1.0201727;-0.17181921;;;;;1698.3
1916.0;1780.1;;;;;;;;;;;;;;;;;-26.177252;-74.663536;-117.3246;;1698.3
1916.0;1780.1;;;;;;;;;;;;;;-1.1784418;1.0752891;-0.19775994;;;;;1698.3
1916.0;1780.4;;;;-0.19193271;1.3194772;0.29355624;;;;;;;;;;;;;;;
1916.0;1780.4;;;;-0.19678882;1.3098375;0.2953606;;;;;;;;;;;;;;;
1916.0;1780.4;;;;-0.20339969;1.305153;0.2955704;;;;;;;;;;;;;;;
1916.0;1780.4;;;;-0.21247867;1.2964784;0.29318622;;;;;;;;;;;;;;;
1916.0;1780.4;;;;-0.2248154;1.3011056;0.29298022;;;;;;;;;;;;;;;
1916.0;1783.5;262143;262143;13912;;;;;;;;;;;;;;;;;;
1917.0;1787.1;;;;;;;;;;;;;;;;;-30.537582;-74.19431;-119.56771;;1708.0
1917.0;1787.1;;;;;;;;;;;;;;-1.180639;1.1349834;-0.24732201;;;;;1708.0
1917.0;1787.1;;;;;;;;;;;;;;;;;-36.626026;-71.58498;-121.17374;;1708.0
1917.0;1787.1;;;;;;;;;;;;;;-1.149327;1.2029176;-0.31928465;;;;;1708.0
1917.0;1787.1;;;;;;;;;;;;;;;;;-43.717766;-66.83554;-122.04733;;1717.7
1917.0;1787.1;;;;;;;;;;;;;;-1.093051;1.2724998;-0.39106417;;;;;1717.7
1917.0;1787.1;;;;;;;;;;;;;;;;;-52.991577;-60.32746;-122.77215;;1717.7
1917.0;1787.1;;;;;;;;;;;;;;-1.0343333;1.3412884;-0.4445326;;;;;1717.7
1917.0;1787.1;;;;;;;;;;;;;;;;;-62.379833;-53.380688;-123.19178;;1727.3
1917.0;1787.1;;;;;;;;;;;;;;-0.9566332;1.3894467;-0.49189734;;;;;1727.3
1917.0;1787.1;;;;;;;;;;;;;;;;;-69.406715;-46.21647;-123.47026;;1727.3
1917.0;1787.1;;;;;;;;;;;;;;-0.878811;1.4253975;-0.52986234;;;;;1727.3
1917.0;1787.3;;;;;;;;;;-40.135654;72.20298;113.750114;;;;;;;;;
1917.0;1787.3;;;;;;;0.8019044;-0.951384;0.10345775;;;;;;;;;;;;
1917.0;1787.3;;;;;;;;;;-40.19669;79.958496;118.785675;;;;;;;;;
1917.0;1787.3;;;;;;;0.8708762;-1.0883511;0.112857446;;;;;;;;;;;;
1917.0;1790.4;;;;-0.23586276;1.307995;0.29582217;;;;;;;;;;;;;;;
1917.0;1790.4;;;;-0.23767474;1.3084222;0.2984543;;;;;;;;;;;;;;;
1917.0;1790.4;;;;-0.23907474;1.3045999;0.3011208;;;;;;;;;;;;;;;
1917.0;1790.4;;;;-0.23898318;1.3010141;0.30516437;;;;;;;;;;;;;;;
1917.0;1790.4;;;;-0.2401047;1.2997056;0.30985644;;;;;;;;;;;;;;;
1917.0;1796.8;;;;;;;;;;-38.05277;87.748344;122.29148;;;;;;;;;
1917.0;1796.8;;;;;;;0.8827784;-1.3307291;0.15637684;;;;;;;;;;;;
1917.0;1796.8;;;;;;;;;;-30.961027;99.19278;124.58037;;;;;;;;;
1917.0;1796.8;;;;;;;0.9940489;-1.3235878;0.1093173;;;;;;;;;;;;
1918.0;1800.4;;;;-0.24848941;1.3006746;0.3128052;;;;;;;;;;;;;;;
1918.0;1800.4;;;;-0.25952533;1.30262;0.3175278;;;;;;;;;;;;;;;
1918.0;1800.4;;;;-0.26184085;1.3071824;0.3212662;;;;;;;;;;;;;;;
1918.0;1800.4;;;;-0.26464465;1.3114206;0.3259392;;;;;;;;;;;;;;;
1918.0;1800.4;;;;-0.26583865;1.3153497;0.33231738;;;;;;;;;;;;;;;
1918.0;1803.5;262143;262143;13914;;;;;;;;;;;;;;;;;;
1918.0;1806.4;;;;;;;;;;-27.008883;106.082344;124.88556;;;;;;;;;
1918.0;1806.4;;;;;;;1.0619221;-1.4648274;0.11841182;;;;;;;;;;;;
1918.0;1806.4;;;;;;;;;;-23.297068;109.389786;124.881744;;;;;;;;;
1918.0;1806.4;;;;;;;1.109592;-1.5674306;0.1513718;;;;;;;;;;;;
1918.0;1809.6;;;;;;;;;;;;;8966;;;;;;;;
1918.0;1809.6;;;;;;;;;;;;;8916;;;;;;;;
1918.0;1809.6;;;;;;;;;;;;;9099;;;;;;;;
1918.0;1809.6;;;;;;;;;;;;;9322;;;;;;;;
1918.0;1809.6;;;;;;;;;;;;;9491;;;;;;;;
1918.0;1810.5;;;;-0.27390674;1.3209115;0.33887485;;;;;;;;;;;;;;;
1918.0;1810.5;;;;-0.2824631;1.3322488;0.34681705;;;;;;;;;;;;;;;
1918.0;1810.5;;;;-0.28667834;1.3375703;0.35260776;;;;;;;;;;;;;;;
1918.0;1810.5;;;;-0.285347;1.3416673;0.3579369;;;;;;;;;;;;;;;
1918.0;1810.5;;;;-0.2884293;1.3460847;0.36200717;;;;;;;;;;;;;;;
1918.0;1816.0;;;;;;;;;;-18.250069;111.686295;124.855034;;;;;;;;;
1918.0;1816.0;;;;;;;1.1458479;-1.6515397;0.18048647;;;;;;;;;;;;
1918.0;1816.0;;;;;;;;;;-12.104404;116.05426;124.610886;;;;;;;;;
1918.0;1816.0;;;;;;;1.1886349;-1.6922513;0.20801416;;;;;;;;;;;;
1919.0;1820.6;;;;-0.28762057;1.3473932;0.36595538;;;;;;;;;;;;;;;
1919.0;1820.6;;;;-0.29479602;1.3524019;0.3693619;;;;;;;;;;;;;;;
1919.0;1820.6;;;;-0.29848102;1.3571817;0.37323;;;;;;;;;;;;;;;
1919.0;1820.6;;;;-0.30159;1.3567277;0.3745995;;;;;;;;;;;;;;;
1919.0;1820.6;;;;-0.30558017;1.3516809;0.37368396;;;;;;;;;;;;;;;
1919.0;1823.8;262143;262143;13921;;;;;;;;;;;;;;;;;;
1919.0;1825.7;;;;;;;;;;-5.7908874;121.188995;123.661;;;;;;;;;
1919.0;1825.7;;;;;;;1.2171392;-1.7424238;0.23639637;;;;;;;;;;;;
1919.0;1825.7;;;;;;;;;;0.10681479;124.53841;121.21952;;;;;;;;;
1919.0;1825.7;;;;;;;1.241615;-1.7650685;0.26252022;;;;;;;;;;;;
1919.0;1830.8;;;;-0.3040314;1.3466455;0.37251666;;;;;;;;;;;;;;;
1919.0;1830.8;;;;-0.30944446;1.3426858;0.37461856;;;;;;;;;;;;;;;
1919.0;1830.8;;;;-0.30949023;1.3347818;0.37424472;;;;;;;;;;;;;;;
1919.0;1830.8;;;;-0.3118668;1.3280908;0.37577444;;;;;;;;;;;;;;;
1919.0;1830.8;;;;-0.3134804;1.3185579;0.37431338;;;;;;;;;;;;;;;
1919.0;1835.3;;;;;;;;;;5.611591;124.88556;117.000336;;;;;;;;;
1919.0;1835.3;;;;;;;1.249855;-1.7645192;0.2883999;;;;;;;;;;;;
1919.0;1835.3;;;;;;;;;;10.391553;124.881744;111.907555;;;;;;;;;
1919.0;1835.3;;;;;;;1.233314;-1.7749565;0.30780968;;;;;;;;;;;;
1921.0;1840.5;;;;;;;;;;;;;;;;;-72.607346;-40.75747;-123.94711;;1737.0
1921.0;1840.5;;;;;;;;;;;;;;-0.7845088;1.4500564;-0.54414505;;;;;1737.0
1921.0;1840.5;;;;;;;;;;;;;;;;;-72.27546;-36.980804;-124.31715;;1737.0
1921.0;1840.5;;;;;;;;;;;;;;-0.6931974;1.4645222;-0.549028;;;;;1737.0
1921.0;1840.5;;;;;;;;;;;;;;;;;-68.60179;-34.66521;-124.488815;;1746.6
1921.0;1840.5;;;;;;;;;;;;;;-0.59907836;1.4708701;-0.53822446;;;;;1746.6
1921.0;1840.5;;;;;;;;;;;;;;;;;-62.330242;-33.032475;-124.282814;;1746.6
1921.0;1840.5;;;;;;;;;;;;;;-0.5202795;1.4629353;-0.5037385;;;;;1746.6
1921.0;1840.5;;;;;;;;;;;;;;;;;-55.307167;-31.086916;-124.37437;;1756.2
1921.0;1840.5;;;;;;;;;;;;;;-0.46925262;1.4515214;-0.44752342;;;;;1756.2
1921.0;1840.5;;;;;;;;;;;;;;;;;-48.860134;-29.026918;-124.01196;;1756.2
1921.0;1840.5;;;;;;;;;;;;;;-0.44367808;1.4192327;-0.39399394;;;;;1756.2
1921.0;1840.8;;;;-0.31514743;1.3039857;0.37116626;;;;;;;;;;;;;;;
1921.0;1840.8;;;;-0.32374194;1.2921754;0.3687363;;;;;;;;;;;;;;;
1921.0;1840.8;;;;-0.33493808;1.2826806;0.3667412;;;;;;;;;;;;;;;
1921.0;1840.8;;;;-0.33824542;1.2761117;0.36376956;;;;;;;;;;;;;;;
1921.0;1840.8;;;;-0.33997348;1.2643167;0.3596497;;;;;;;;;;;;;;;
1921.0;1844.0;262143;262143;13917;;;;;;;;;;;;;;;;;;
1921.0;1844.8;;;;;;;;;;14.591662;124.881744;106.44856;;;;;;;;;
1921.0;1844.8;;;;;;;1.2008423;-1.780755;0.31446272;;;;;;;;;;;;
1921.0;1844.8;;;;;;;;;;18.284403;124.881744;100.11215;;;;;;;;;
1921.0;1844.8;;;;;;;1.1597034;-1.800531;0.31531724;;;;;;;;;;;;
1921.0;1847.6;;;;;;;;;;;;;;;;;-43.904694;-24.735252;-123.4054;;1765.8
1921.0;1847.6;;;;;;;;;;;;;;-0.44001588;1.3990295;-0.34699544;;;;;1765.8
1921.0;1847.6;;;;;;;;;;;;;;;;;-42.1041;-18.177588;-122.75689;;1765.8
1921.0;1847.6;;;;;;;;;;;;;;-0.46607867;1.3870662;-0.30524614;;;;;1765.8
1921.0;1847.6;;;;;;;;;;;;;;;;;-44.610428;-10.677664;-121.581924;;1775.5
1921.0;1847.6;;;;;;;;;;;;;;-0.49598682;1.3558763;-0.25360882;;;;;1775.5
1921.0;1847.6;;;;;;;;;;;;;;;;;-50.218204;-2.5292215;-120.101776;;1775.5
1921.0;1847.6;;;;;;;;;;;;;;-0.52467424;1.3179113;-0.20673238;;;;;1775.5
1921.0;1847.6;;;;;;;;;;;;;;;;;-57.29087;5.096591;-119.03364;;1785.1
1921.0;1847.6;;;;;;;;;;;;;;-0.55568105;1.2748191;-0.16534929;;;;;1785.1
1921.0;1847.6;;;;;;;;;;;;;;;;;-65.81317;10.7806635;-117.8396;;1785.1
1921.0;1847.6;;;;;;;;;;;;;;-0.58211005;1.2122562;-0.13153477;;;;;1785.1
1921.0;1849.9;;;;;;;;;;;;;9660;;;;;;;;
1921.0;1849.9;;;;;;;;;;;;;9868;;;;;;;;
1921.0;1849.9;;;;;;;;;;;;;9891;;;;;;;;
1921.0;1849.9;;;;;;;;;;;;;9441;;;;;;;;
1921.0;1849.9;;;;;;;;;;;;;8824;;;;;;;;
1921.0;1850.7;;;;-0.3324509;1.2489511;0.3579407;;;;;;;;;;;;;;;
1921.0;1850.7;;;;-0.3310013;1.2361718;0.3473778;;;;;;;;;;;;;;;
1921.0;1850.7;;;;-0.3366318;1.2250825;0.33926013;;;;;;;;;;;;;;;
1921.0;1850.7;;;;-0.34035876;1.2153856;0.32878116;;;;;;;;;;;;;;;
1921.0;1850.7;;;;-0.34004596;1.2052041;0.3213692;;;;;;;;;;;;;;;
1921.0;1854.3;;;;;;;;;;22.255623;124.881744;92.24601;;;;;;;;;
1921.0;1854.3;;;;;;;1.109592;-1.8361766;0.30365917;;;;;;;;;;;;
1921.0;1854.3;;;;;;;;;;25.8034;124.881744;84.253975;;;;;;;;;
1921.0;1854.3;;;;;;;1.0559404;-1.8617512;0.28431043;;;;;;;;;;;;
1922.0;1860.8;;;;-0.33688357;1.1918222;0.31413272;;;;;;;;;;;;;;;
1922.0;1860.8;;;;-0.3327904;1.1800805;0.30632403;;;;;;;;;;;;;;;
1922.0;1860.8;;;;-0.3279076;1.1659738;0.30344775;;;;;;;;;;;;;;;
1922.0;1860.8;;;;-0.31815723;1.1531335;0.2947121;;;;;;;;;;;;;;;
1922.0;1860.8;;;;-0.32083896;1.1493455;0.28299716;;;;;;;;;;;;;;;
1922.0;1863.9;;;;;;;;;;28.881954;124.881744;76.90283;;;;;;;;;
1922.0;1863.9;;;;;;;1.0006409;-1.8837245;0.26075014;;;;;;;;;;;;
1922.0;1863.9;;;;;;;;;;32.18177;124.881744;69.36094;;;;;;;;;
1922.0;1863.9;;;;;;;0.9625538;-1.8902555;0.23364972;;;;;;;;;;;;
1922.0;1864.0;262143;262143;13915;;;;;;;;;;;;;;;;;;
1922.0;1870.8;;;;-0.3118935;1.1443635;0.27076343;;;;;;;;;;;;;;;
1922.0;1870.8;;;;-0.30362704;1.138569;0.26324084;;;;;;;;;;;;;;;
1922.0;1870.8;;;;-0.3011208;1.131447;0.2540436;;;;;;;;;;;;;;;
1922.0;1870.8;;;;-0.29675296;1.1230165;0.24279788;;;;;;;;;;;;;;;
1922.0;1870.8;;;;-0.2851334;1.1164399;0.2335091;;;;;;;;;;;;;;;
1922.0;1873.4;;;;;;;;;;34.867397;124.85885;58.942688;;;;;;;;;
1922.0;1873.4;;;;;;;0.90231025;-1.8923306;0.20349742;;;;;;;;;;;;
1922.0;1873.4;;;;;;;;;;37.701805;123.07733;48.73043;;;;;;;;;
1922.0;1873.4;;;;;;;0.86226994;-1.8903775;0.15759759;;;;;;;;;;;;
1961.0;1880.6;;;;-0.2797089;1.1123163;0.22946551;;;;;;;;;;;;;;;
1961.0;1880.6;;;;-0.26651385;1.1059839;0.21940234;;;;;;;;;;;;;;;
1961.0;1880.6;;;;-0.2601433;1.0994569;0.2101784;;;;;;;;;;;;;;;
1961.0;1880.6;;;;-0.25820163;1.0923387;0.20077136;;;;;;;;;;;;;;;
1961.0;1880.6;;;;-0.24129489;1.0847131;0.19015887;;;;;;;;;;;;;;;
1961.0;1882.7;;;;;;;;;;40.040283;118.09519;39.73128;;;;;;;;;
1961.0;1882.7;;;;;;;0.82106996;-1.8792077;0.12390515;;;;;;;;;;;;
1961.0;1882.7;;;;;;;;;;41.753136;111.12552;29.549547;;;;;;;;;
1961.0;1882.7;;;;;;;0.76631975;-1.851558;0.07647938;;;;;;;;;;;;
1961.0;1883.8;262143;262143;13930;;;;;;;;;;;;;;;;;;
1961.0;1889.9;;;;;;;;;;;;;8889;;;;;;;;
1961.0;1889.9;;;;;;;;;;;;;9778;;;;;;;;
1961.0;1889.9;;;;;;;;;;;;;10587;;;;;;;;
1961.0;1889.9;;;;;;;;;;;;;10628;;;;;;;;
1961.0;1889.9;;;;;;;;;;;;;10197;;;;;;;;
1961.0;1890.6;;;;-0.23477176;1.0775987;0.1799965;;;;;;;;;;;;;;;
1961.0;1890.6;;;;-0.22728732;1.067814;0.17132188;;;;;;;;;;;;;;;
1961.0;1890.6;;;;-0.2155228;1.0563241;0.15523149;;;;;;;;;;;;;;;
1961.0;1890.6;;;;-0.20980456;1.0495149;0.14244081;;;;;;;;;;;;;;;
1961.0;1890.6;;;;-0.20092013;1.0410386;0.1335373;;;;;;;;;;;;;;;
1961.0;1892.2;;;;;;;;;;43.359173;102.889336;19.192327;;;;;;;;;
1961.0;1892.2;;;;;;;0.7184057;-1.8198798;0.033326212;;;;;;;;;;;;
1961.0;1892.2;;;;;;;;;;44.755394;94.37468;8.686331;;;;;;;;;
1961.0;1892.2;;;;;;;0.6682943;-1.782403;-0.0053712577;;;;;;;;;;;;
1963.0;1900.0;;;;;;;;;;;;;;;;;-74.56435;14.007996;-117.03848;;1794.8
1963.0;1900.0;;;;;;;;;;;;;;-0.6052431;1.1314433;-0.101504564;;;;;1794.8
1963.0;1900.0;;;;;;;;;;;;;;;;;-81.74383;14.62981;-116.53111;;1794.8
1963.0;1900.0;;;;;;;;;;;;;;-0.6292306;1.0478225;-0.07971435;;;;;1794.8
1963.0;1900.0;;;;;;;;;;;;;;;;;-86.51997;13.557848;-116.2183;;1804.4
1963.0;1900.0;;;;;;;;;;;;;;-0.65395063;0.9604175;-0.07092502;;;;;1804.4
1963.0;1900.0;;;;;;;;;;;;;;;;;-88.78597;11.741997;-115.96271;;1804.4
1963.0;1900.0;;;;;;;;;;;;;;-0.6830653;0.8699606;-0.07147435;;;;;1804.4
1963.0;1900.0;;;;;;;;;;;;;;;;;-88.62956;9.556108;-115.32563;;1814.1
1963.0;1900.0;;;;;;;;;;;;;;-0.73824275;0.77968687;-0.07794427;;;;;1814.1
1963.0;1900.0;;;;;;;;;;;;;;;;;-86.7069;6.4355907;-114.29182;;1814.1
1963.0;1900.0;;;;;;;;;;;;;;-0.7641224;0.7232276;-0.09466842;;;;;1814.1
1963.0;1900.6;;;;-0.19998553;1.0308229;0.12928392;;;;;;;;;;;;;;;
1963.0;1900.6;;;;-0.18898013;1.0202295;0.11989595;;;;;;;;;;;;;;;
1963.0;1900.6;;;;-0.17839815;1.0124971;0.11272432;;;;;;;;;;;;;;;
1963.0;1900.6;;;;-0.17208482;1.0051996;0.103000656;;;;;;;;;;;;;;;
1963.0;1900.6;;;;-0.17055131;0.99705136;0.09543611;;;;;;;;;;;;;;;
1964.0;1900.9;;;;;;;;;;;;;;;;;-83.903015;3.8987396;-113.464005;;1823.7
1964.0;1900.9;;;;;;;;;;;;;;-0.76381725;0.6895352;-0.11078219;;;;;1823.7
1964.0;1900.9;;;;;;;;;;;;;;;;;-80.473495;2.5673697;-113.83404;;1823.7
1964.0;1900.9;;;;;;;;;;;;;;-0.73989075;0.68819237;-0.116214484;;;;;1823.7
1964.0;1900.9;;;;;;;;;;;;;;;;;-76.70446;2.6322215;-114.23841;;1833.3
1964.0;1900.9;;;;;;;;;;;;;;-0.7521592;0.6770837;-0.1119419;;;;;1833.3
1964.0;1900.9;;;;;;;;;;;;;;;;;-73.33979;3.0480363;-114.5703;;1833.3
1964.0;1900.9;;;;;;;;;;;;;;-0.75521106;0.6761681;-0.10412916;;;;;1833.3
1964.0;1900.9;;;;;;;;;;;;;;;;;-70.13153;3.9674063;-114.4673;;1843.0
1964.0;1900.9;;;;;;;;;;;;;;-0.7709586;0.67323834;-0.09143346;;;;;1843.0
1964.0;1900.9;;;;;;;;;;;;;;;;;-66.99194;4.566332;-113.63185;;1843.0
1964.0;1900.9;;;;;;;;;;;;;;-0.7751091;0.6783044;-0.07672353;;;;;1843.0
1964.0;1901.6;;;;;;;;;;46.55217;85.40605;-2.6093326;;;;;;;;;
1964.0;1901.6;;;;;;;0.6269112;-1.7371746;-0.039674062;;;;;;;;;;;;
1964.0;1901.6;;;;;;;;;;48.711357;75.865204;-14.286477;;;;;;;;;
1964.0;1901.6;;;;;;;0.58125556;-1.6929837;-0.06579791;;;;;;;;;;;;
1964.0;1903.9;262143;262143;13929;;;;;;;;;;;;;;;;;;
1964.0;1910.6;;;;-0.16367723;0.9882318;0.08830262;;;;;;;;;;;;;;;
1964.0;1910.6;;;;-0.1618004;0.9798509;0.07962037;;;;;;;;;;;;;;;
1964.0;1910.6;;;;-0.1517296;0.9695741;0.072097786;;;;;;;;;;;;;;;
1964.0;1910.6;;;;-0.14540865;0.95865643;0.06410218;;;;;;;;;;;;;;;
1964.0;1910.6;;;;-0.141243;0.94796383;0.055007942;;;;;;;;;;;;;;;
1968.0;1911.3;;;;;;;;;;50.859097;65.75213;-26.329844;;;;;;;;;
1968.0;1911.3;;;;;;;0.5321207;-1.6445814;-0.078981906;;;;;;;;;;;;
1968.0;1911.3;;;;;;;;;;52.7398;55.57802;-38.445694;;;;;;;;;
1968.0;1911.3;;;;;;;0.49867246;-1.5992919;-0.08825953;;;;;;;;;;;;
1968.0;1920.6;;;;-0.13621904;0.93750775;0.047496803;;;;;;;;;;;;;;;
1968.0;1920.6;;;;-0.1342621;0.92657864;0.041774753;;;;;;;;;;;;;;;
1968.0;1920.6;;;;-0.13194658;0.9158975;0.034927372;;;;;;;;;;;;;;;
1968.0;1920.6;;;;-0.1290436;0.9053384;0.025695805;;;;;;;;;;;;;;;
1968.0;1920.6;;;;-0.12840654;0.8950578;0.01577759;;;;;;;;;;;;;;;
1968.0;1920.8;;;;;;;;;;53.907135;45.968506;-50.565353;;;;;;;;;
1968.0;1920.8;;;;;;;0.45973083;-1.5505234;-0.087466046;;;;;;;;;;;;
1968.0;1920.8;;;;;;;;;;54.673912;36.62221;-62.047943;;;;;;;;;
1968.0;1920.8;;;;;;;0.41657767;-1.5015717;-0.076662496;;;;;;;;;;;;
1968.0;1924.0;262143;262143;13937;;;;;;;;;;;;;;;;;;
1968.0;1929.9;;;;;;;;;;;;;9871;;;;;;;;
1968.0;1929.9;;;;;;;;;;;;;9592;;;;;;;;
1968.0;1929.9;;;;;;;;;;;;;9160;;;;;;;;
1968.0;1929.9;;;;;;;;;;;;;8705;;;;;;;;
1968.0;1929.9;;;;;;;;;;;;;8477;;;;;;;;
1968.0;1930.3;;;;;;;;;;55.32624;27.321697;-72.771385;;;;;;;;;
1968.0;1930.3;;;;;;;0.38239694;-1.4574419;-0.07116917;;;;;;;;;;;;
1968.0;1930.3;;;;;;;;;;55.001984;18.51329;-83.58638;;;;;;;;;
1968.0;1930.3;;;;;;;0.35181737;-1.4203925;-0.06372265;;;;;;;;;;;;
2022.0;1930.5;;;;-0.12608339;0.884308;0.01022339;;;;;;;;;;;;;;;
2022.0;1930.5;;;;-0.12298204;0.8729173;0.0033912663;;;;;;;;;;;;;;;
2022.0;1930.5;;;;-0.12100221;0.86143124;-0.0013885499;;;;;;;;;;;;;;;
2022.0;1930.5;;;;-0.11916734;0.8492204;-0.007183076;;;;;;;;;;;;;;;
2022.0;1930.5;;;;-0.11763765;0.8368608;-0.013526918;;;;;;;;;;;;;;;
2022.0;1939.6;;;;;;;;;;54.02158;9.769737;-94.59593;;;;;;;;;
2022.0;1939.6;;;;;;;0.32587665;-1.3913999;-0.056459244;;;;;;;;;;;;
2022.0;1939.6;;;;;;;;;;52.926727;1.4725181;-105.14008;;;;;;;;;
2022.0;1939.6;;;;;;;0.30445266;-1.365215;-0.048280284;;;;;;;;;;;;
2022.0;1940.3;;;;-0.117446914;0.82519543;-0.019897463;;;;;;;;;;;;;;;
2022.0;1940.3;;;;-0.11584474;0.8125459;-0.02600861;;;;;;;;;;;;;;;
2022.0;1940.3;;;;-0.11627962;0.80054486;-0.030300144;;;;;;;;;;;;;;;
2022.0;1940.3;;;;-0.11470033;0.7887155;-0.034637455;;;;;;;;;;;;;;;
2022.0;1940.3;;;;-0.11520769;0.77754986;-0.03663254;;;;;;;;;;;;;;;
2022.0;1943.8;262143;262143;13947;;;;;;;;;;;;;;;;;;
2022.0;1949.2;;;;;;;;;;51.572464;-5.466628;-114.600815;;;;;;;;;
2022.0;1949.2;;;;;;;0.2923673;-1.3429976;-0.042115543;;;;;;;;;;;;
2022.0;1949.2;;;;;;;;;;49.901577;-11.078218;-122.581406;;;;;;;;;
2022.0;1949.2;;;;;;;0.2858974;-1.3243202;-0.03485214;;;;;;;;;;;;
2027.0;1950.5;;;;-0.11539461;0.7663156;-0.03978348;;;;;;;;;;;;;;;
2027.0;1950.5;;;;-0.114791885;0.7558671;-0.04476166;;;;;;;;;;;;;;;
2027.0;1950.5;;;;-0.11652376;0.7459603;-0.0474701;;;;;;;;;;;;;;;
2027.0;1950.5;;;;-0.118000045;0.73636633;-0.050731666;;;;;;;;;;;;;;;
2027.0;1950.5;;;;-0.12160875;0.72808844;-0.053607948;;;;;;;;;;;;;;;
2027.0;1958.8;;;;;;;;;;47.860653;-16.235847;-124.87411;;;;;;;;;
2027.0;1958.8;;;;;;;0.2834559;-1.3085726;-0.027405621;;;;;;;;;;;;
2027.0;1958.8;;;;;;;;;;45.728172;-20.79455;-124.881744;;;;;;;;;
2027.0;1958.8;;;;;;;0.28485978;-1.2938627;-0.026795251;;;;;;;;;;;;
2027.0;1960.4;;;;;;;;;;;;;;;;;-64.61913;4.4976654;-112.10211;;1852.7
2027.0;1960.4;;;;;;;;;;;;;;-0.7769402;0.6837367;-0.05200354;;;;;1852.7
2027.0;1960.4;;;;;;;;;;;;;;;;;-62.143314;2.7085178;-109.054085;;1852.7
2027.0;1960.4;;;;;;;;;;;;;;-0.77285075;0.67098;-0.008972442;;;;;1852.7
2027.0;1960.4;;;;;;;;;;;;;;;;;-57.22602;-2.582629;-105.93738;;1862.1
2027.0;1960.4;;;;;;;;;;;;;;-0.7528916;0.66170233;0.017517624;;;;;1862.1
2027.0;1960.4;;;;;;;;;;;;;;;;;-49.428543;-10.849331;-102.24845;;1862.1
2027.0;1960.4;;;;;;;;;;;;;;-0.7299417;0.6501053;-0.0017090365;;;;;1862.1
2027.0;1960.4;;;;;;;;;;;;;;;;;-41.997284;-17.643513;-98.57098;;1871.8
2027.0;1960.4;;;;;;;;;;;;;;-0.7005829;0.6448561;-0.013183996;;;;;1871.8
2027.0;1960.4;;;;;;;;;;;;;;;;;-37.522507;-19.165625;-94.52727;;1871.8
2027.0;1960.4;;;;;;;;;;;;;;-0.67000335;0.6378979;0.0048219245;;;;;1871.8
2028.0;1960.4;;;;-0.12371446;0.7199593;-0.05470658;;;;;;;;;;;;;;;
2028.0;1960.4;;;;-0.12572862;0.7124062;-0.054157265;;;;;;;;;;;;;;;
2028.0;1960.4;;;;-0.12779619;0.7056237;-0.054069526;;;;;;;;;;;;;;;
2028.0;1960.4;;;;-0.13146211;0.7000199;-0.054199226;;;;;;;;;;;;;;;
2028.0;1960.4;;;;-0.13595583;0.694748;-0.053485878;;;;;;;;;;;;;;;
2028.0;1961.2;;;;;;;;;;;;;;;;;-35.245064;-17.27729;-90.0296;;1881.5
2028.0;1961.2;;;;;;;;;;;;;;-0.63979006;0.6278878;0.019348735;;;;;1881.5
2028.0;1961.2;;;;;;;;;;;;;;;;;-32.71203;-15.800959;-85.22675;;1881.5
2028.0;1961.2;;;;;;;;;;;;;;-0.6136662;0.6118961;-0.0020142216;;;;;1881.5
2028.0;1961.2;;;;;;;;;;;;;;;;;-29.126102;-16.762293;-80.40101;;1891.1
2028.0;1961.2;;;;;;;;;;;;;;-0.5731986;0.6046938;-0.04199347;;;;;1891.1
2028.0;1961.2;;;;;;;;;;;;;;;;;-24.735252;-19.760735;-75.33113;;1891.1
2028.0;1961.2;;;;;;;;;;;;;;-0.5390179;0.59114355;-0.07953124;;;;;1891.1
2028.0;1961.2;;;;;;;;;;;;;;;;;-19.497513;-23.960846;-70.348976;;1900.7
2028.0;1961.2;;;;;;;;;;;;;;-0.51387066;0.5741142;-0.0994293;;;;;1900.7
2028.0;1961.2;;;;;;;;;;;;;;;;;-14.076662;-28.98114;-65.275276;;1900.7
2028.0;1961.2;;;;;;;;;;;;;;-0.49104282;0.56392103;-0.11902219;;;;;1900.7
2028.0;1963.9;262143;262143;13951;;;;;;;;;;;;;;;;;;
2028.0;1968.1;;;;;;;;;;43.534657;-24.27366;-124.881744;;;;;;;;;
2028.0;1968.1;;;;;;;0.28199103;-1.2784203;-0.025330363;;;;;;;;;;;;
2028.0;1968.1;;;;;;;;;;41.261024;-26.459549;-124.881744;;;;;;;;;
2028.0;1968.1;;;;;;;0.28931546;-1.2660298;-0.026734214;;;;;;;;;;;;
2030.0;1969.8;;;;;;;;;;;;;8503;;;;;;;;
2030.0;1969.8;;;;;;;;;;;;;8566;;;;;;;;
2030.0;1969.8;;;;;;;;;;;;;8653;;;;;;;;
2030.0;1969.8;;;;;;;;;;;;;8753;;;;;;;;
2030.0;1969.8;;;;;;;;;;;;;8690;;;;;;;;
2030.0;1970.3;;;;-0.13991548;0.69043356;-0.051429756;;;;;;;;;;;;;;;
2030.0;1970.3;;;;-0.14496996;0.68695074;-0.050598152;;;;;;;;;;;;;;;
2030.0;1970.3;;;;-0.15031816;0.6844178;-0.04968644;;;;;;;;;;;;;;;
2030.0;1970.3;;;;-0.1564026;0.68225867;-0.04846192;;;;;;;;;;;;;;;
2030.0;1970.3;;;;-0.16213228;0.68043524;-0.04688645;;;;;;;;;;;;;;;
2030.0;1977.6;;;;;;;;;;38.842434;-26.997437;-124.881744;;;;;;;;;
2030.0;1977.6;;;;;;;0.30201116;-1.2512589;-0.026490066;;;;;;;;;;;;
2030.0;1977.6;;;;;;;;;;36.36662;-26.932585;-124.881744;;;;;;;;;
2030.0;1977.6;;;;;;;0.30890834;-1.2321543;-0.028809473;;;;;;;;;;;;
2030.0;1980.3;;;;-0.16837312;0.67916113;-0.04495621;;;;;;;;;;;;;;;
2030.0;1980.3;;;;-0.1749611;0.67893606;-0.042320255;;;;;;;;;;;;;;;
2030.0;1980.3;;;;-0.18223192;0.67909247;-0.040679935;;;;;;;;;;;;;;;
2030.0;1980.3;;;;-0.18986133;0.6793404;-0.038738254;;;;;;;;;;;;;;;
2030.0;1980.3;;;;-0.19581226;0.67922217;-0.03730393;;;;;;;;;;;;;;;
2030.0;1983.9;262143;262143;13955;;;;;;;;;;;;;;;;;;
2030.0;1987.3;;;;;;;;;;33.60088;-25.91403;-124.881744;;;;;;;;;
2030.0;1987.3;;;;;;;0.3263039;-1.2186651;-0.030762658;;;;;;;;;;;;
2030.0;1987.3;;;;;;;;;;30.720694;-23.64803;-124.881744;;;;;;;;;
2030.0;1987.3;;;;;;;0.3319193;-1.2076174;-0.032227546;;;;;;;;;;;;
2083.0;1990.2;;;;-0.20226672;0.67815024;-0.03366852;;;;;;;;;;;;;;;
2083.0;1990.2;;;;-0.20795444;0.6786156;-0.02954102;;;;;;;;;;;;;;;
2083.0;1990.2;;;;-0.21485904;0.6787568;-0.025939945;;;;;;;;;;;;;;;
2083.0;1990.2;;;;-0.22132495;0.6784554;-0.022155764;;;;;;;;;;;;;;;
2083.0;1990.2;;;;-0.22795871;0.67836386;-0.018478395;;;;;;;;;;;;;;;
2083.0;1996.5;;;;;;;;;;28.080843;-21.057772;-124.881744;;;;;;;;;
2083.0;1996.5;;;;;;;0.33692434;-1.1939452;-0.030274361;;;;;;;;;;;;
2083.0;1996.5;;;;;;;;;;25.849178;-17.853329;-124.881744;;;;;;;;;
2083.0;1996.5;;;;;;;0.33509323;-1.1802728;-0.03540147;;;;;;;;;;;;
2083.0;2000.2;;;;-0.23437884;0.6791306;-0.014087679;;;;;;;;;;;;;;;
2083.0;2000.2;;;;-0.2398453;0.68025595;-0.009628297;;;;;;;;;;;;;;;
2083.0;2000.2;;;;-0.24591449;0.68100363;-0.0048904424;;;;;;;;;;;;;;;
2083.0;2000.2;;;;-0.25286868;0.68043524;-3.051758E-5;;;;;;;;;;;;;;;
2083.0;2000.2;;;;-0.25918582;0.6806107;0.00561142;;;;;;;;;;;;;;;
2083.0;2003.8;262143;262143;13959;;;;;;;;;;;;;;;;;;
2083.0;2006.2;;;;;;;;;;23.911253;-13.855403;-124.881744;;;;;;;;;
2083.0;2006.2;;;;;;;0.3299051;-1.1635487;-0.043702506;;;;;;;;;;;;
2083.0;2006.2;;;;;;;;;;21.710106;-9.014404;-124.881744;;;;;;;;;
2083.0;2006.2;;;;;;;0.3221534;-1.1424298;-0.05053865;;;;;;;;;;;;
2083.0;2009.8;;;;;;;;;;;;;8504;;;;;;;;
2083.0;2009.8;;;;;;;;;;;;;8504;;;;;;;;
2083.0;2009.8;;;;;;;;;;;;;8749;;;;;;;;
2083.0;2009.8;;;;;;;;;;;;;8946;;;;;;;;
2083.0;2009.8;;;;;;;;;;;;;8991;;;;;;;;
2087.0;2010.3;;;;-0.2648392;0.6810456;0.0104141245;;;;;;;;;;;;;;;
2087.0;2010.3;;;;-0.27076343;0.68044287;0.015419008;;;;;;;;;;;;;;;
2087.0;2010.3;;;;-0.27539828;0.6803284;0.020500185;;;;;;;;;;;;;;;
2087.0;2010.3;;;;-0.28088;0.68012244;0.024642948;;;;;;;;;;;;;;;
2087.0;2010.3;;;;-0.28750613;0.67879874;0.029064182;;;;;;;;;;;;;;;
2087.0;2015.8;;;;;;;;;;19.440292;-3.711814;-124.881744;;;;;;;;;
2087.0;2015.8;;;;;;;0.31354716;-1.1200904;-0.05566576;;;;;;;;;;;;
2087.0;2015.8;;;;;;;;;;17.17429;1.6403699;-124.881744;;;;;;;;;
2087.0;2015.8;;;;;;;0.3071383;-1.0951872;-0.061891537;;;;;;;;;;;;
2087.0;2020.0;;;;;;;;;;;;;;;;;-8.857997;-33.98617;-60.296944;;1910.3
2087.0;2020.0;;;;;;;;;;;;;;-0.47260964;0.54829556;-0.13379315;;;;;1910.3
2087.0;2020.0;;;;;;;;;;;;;;;;;-3.4447768;-38.232063;-55.43687;;1910.3
2087.0;2020.0;;;;;;;;;;;;;;-0.45680106;0.5371868;-0.14648885;;;;;1910.3
2087.0;2020.0;;;;;;;;;;;;;;;;;1.823481;-41.222878;-50.969727;;1920.0
2087.0;2020.0;;;;;;;;;;;;;;-0.4473403;0.51930296;-0.14947966;;;;;1920.0
2087.0;2020.0;;;;;;;;;;;;;;;;;6.515702;-42.744987;-46.922207;;1920.0
2087.0;2020.0;;;;;;;;;;;;;;-0.44782862;0.50196844;-0.14203314;;;;;1920.0
2087.0;2020.0;;;;;;;;;;;;;;;;;10.921812;-43.218025;-42.94336;;1929.6
2087.0;2020.0;;;;;;;;;;;;;;-0.44233528;0.4890286;-0.12182989;;;;;1929.6
2087.0;2020.0;;;;;;;;;;;;;;;;;14.580218;-42.81747;-39.15906;;1929.6
2087.0;2020.0;;;;;;;;;;;;;;-0.43134862;0.473159;-0.09808649;;;;;1929.6
2088.0;2020.3;;;;-0.29300693;0.6783982;0.03356171;;;;;;;;;;;;;;;
2088.0;2020.3;;;;-0.29639438;0.67776495;0.03613663;;;;;;;;;;;;;;;
2088.0;2020.3;;;;-0.30290225;0.6751023;0.03982163;;;;;;;;;;;;;;;
2088.0;2020.3;;;;-0.30760577;0.6735535;0.044933323;;;;;;;;;;;;;;;
2088.0;2020.3;;;;-0.31515887;0.67052466;0.04772187;;;;;;;;;;;;;;;
2088.0;2020.9;;;;;;;;;;;;;;;;;17.605364;-41.64632;-35.12299;;1939.3
2088.0;2020.9;;;;;;;;;;;;;;-0.42023987;0.4586932;-0.0756859;;;;;1939.3
2088.0;2020.9;;;;;;;;;;;;;;;;;18.936735;-38.853878;-31.384472;;1939.3
2088.0;2020.9;;;;;;;;;;;;;;-0.41773736;0.44312876;-0.05084384;;;;;1939.3
2088.0;2020.9;;;;;;;;;;;;;;;;;18.894773;-35.09247;-28.111362;;1949.0
2088.0;2020.9;;;;;;;;;;;;;;-0.40980256;0.42854092;-0.03607288;;;;;1949.0
2088.0;2020.9;;;;;;;;;;;;;;;;;16.930143;-30.243843;-24.723808;;1949.0
2088.0;2020.9;;;;;;;;;;;;;;-0.39466536;0.41413617;-0.028626362;;;;;1949.0
2088.0;2020.9;;;;;;;;;;;;;;;;;13.237404;-24.58266;-21.176031;;1958.7
2088.0;2020.9;;;;;;;;;;;;;;-0.37903988;0.3960082;-0.026795251;;;;;1958.7
2088.0;2020.9;;;;;;;;;;;;;;;;;8.537553;-18.108921;-18.040255;;1958.7
2088.0;2020.9;;;;;;;;;;;;;;-0.36194953;0.3798944;-0.041627247;;;;;1958.7
2088.0;2023.9;262143;262143;13959;;;;;;;;;;;;;;;;;;
2088.0;2025.2;;;;;;;;;;14.889218;7.3435163;-124.881744;;;;;;;;;
2088.0;2025.2;;;;;;;0.29902035;-1.0772424;-0.061525315;;;;;;;;;;;;
2088.0;2025.2;;;;;;;;;;13.336589;12.951292;-124.881744;;;;;;;;;
2088.0;2025.2;;;;;;;0.27283546;-1.0578326;-0.046632282;;;;;;;;;;;;
2089.0;2030.2;;;;-0.31863025;0.6673432;0.049373634;;;;;;;;;;;;;;;
2089.0;2030.2;;;;-0.32130435;0.66392523;0.051422127;;;;;;;;;;;;;;;
2089.0;2030.2;;;;-0.3264809;0.66026694;0.053768165;;;;;;;;;;;;;;;
2089.0;2030.2;;;;-0.33303455;0.6559945;0.055587776;;;;;;;;;;;;;;;
2089.0;2030.2;;;;-0.33747485;0.6509095;0.056537636;;;;;;;;;;;;;;;
2089.0;2034.6;;;;;;;;;;13.595997;17.91818;-124.881744;;;;;;;;;
2089.0;2034.6;;;;;;;0.2450026;-1.0406811;-0.051698357;;;;;;;;;;;;
2089.0;2034.6;;;;;;;;;;13.439589;22.167881;-124.87792;;;;;;;;;
2089.0;2034.6;;;;;;;0.21802424;-1.0185248;-0.067445904;;;;;;;;;;;;
2089.0;2040.2;;;;-0.34238818;0.6451722;0.058956154;;;;;;;;;;;;;;;
2089.0;2040.2;;;;-0.34816745;0.63964087;0.05963517;;;;;;;;;;;;;;;
2089.0;2040.2;;;;-0.32983783;0.79174054;0.08732987;;;;;;;;;;;;;;;
2089.0;2040.2;;;;-0.34681323;0.70172125;0.084449776;;;;;;;;;;;;;;;
2089.0;2040.2;;;;-0.3756333;0.5140229;0.0456543;;;;;;;;;;;;;;;
2089.0;2044.2;;;;;;;;;;12.493514;25.551622;-124.74822;;;;;;;;;
2089.0;2044.2;;;;;;;0.1906186;-0.99148536;-0.087466046;;;;;;;;;;;;
2089.0;2044.2;;;;;;;;;;11.246071;28.462324;-122.54707;;;;;;;;;
2089.0;2044.2;;;;;;;0.16449477;-0.957976;-0.11004975;;;;;;;;;;;;
2089.0;2044.0;262143;262143;13962;;;;;;;;;;;;;;;;;;
2089.0;2049.8;;;;;;;;;;;;;9746;;;;;;;;
2089.0;2049.8;;;;;;;;;;;;;11924;;;;;;;;
2089.0;2049.8;;;;;;;;;;;;;11916;;;;;;;;
2089.0;2049.8;;;;;;;;;;;;;5216;;;;;;;;
2089.0;2049.8;;;;;;;;;;;;;-4524;;;;;;;;
2143.0;2050.1;;;;-0.3567467;0.6247788;0.054874428;;;;;;;;;;;;;;;
2143.0;2050.1;;;;-0.36133197;0.58951193;0.051826485;;;;;;;;;;;;;;;
2143.0;2050.1;;;;-0.3633385;0.5853234;0.049243934;;;;;;;;;;;;;;;
2143.0;2050.1;;;;-0.36581042;0.5861359;0.055206306;;;;;;;;;;;;;;;
2143.0;2050.1;;;;-0.3714867;0.5801583;0.05677796;;;;;;;;;;;;;;;
2143.0;2053.7;;;;;;;;;;9.727776;31.12888;-117.465744;;;;;;;;;
2143.0;2053.7;;;;;;;0.13269448;-0.91708124;-0.12573627;;;;;;;;;;;;
2143.0;2053.7;;;;;;;;;;8.198035;33.539845;-111.57948;;;;;;;;;
2143.0;2053.7;;;;;;;0.10614338;-0.87606436;-0.13977477;;;;;;;;;;;;
2143.0;2060.3;;;;-0.3736954;0.5768433;0.057525642;;;;;;;;;;;;;;;
2143.0;2060.3;;;;-0.37653738;0.5746499;0.05793;;;;;;;;;;;;;;;
2143.0;2060.3;;;;-0.3777085;0.570427;0.05788804;;;;;;;;;;;;;;;
2143.0;2060.3;;;;-0.374424;0.5655785;0.059856422;;;;;;;;;;;;;;;
2143.0;2060.3;;;;-0.3716698;0.5626412;0.06376267;;;;;;;;;;;;;;;
2143.0;2063.3;;;;;;;;;;6.870479;35.592213;-105.33082;;;;;;;;;
2143.0;2063.3;;;;;;;0.075441755;-0.83980834;-0.14801477;;;;;;;;;;;;
2143.0;2063.3;;;;;;;;;;5.4399247;36.73284;-99.20041;;;;;;;;;
2143.0;2063.3;;;;;;;0.047181617;-0.8080081;-0.15955077;;;;;;;;;;;;
2143.0;2064.1;262143;262143;13964;;;;;;;;;;;;;;;;;;
2147.0;2070.4;;;;-0.36924747;0.56055075;0.06560136;;;;;;;;;;;;;;;
2147.0;2070.4;;;;-0.37201312;0.5568581;0.060985573;;;;;;;;;;;;;;;
2147.0;2070.4;;;;-0.37396243;0.5526009;0.06031037;;;;;;;;;;;;;;;
2147.0;2070.4;;;;-0.37148288;0.5479737;0.061992653;;;;;;;;;;;;;;;
2147.0;2070.4;;;;-0.37082675;0.54526144;0.0626793;;;;;;;;;;;;;;;
2147.0;2073.0;;;;;;;;;;3.5363324;36.938843;-93.07001;;;;;;;;;
2147.0;2073.0;;;;;;;0.014648885;-0.7835322;-0.16742454;;;;;;;;;;;;
2147.0;2073.0;;;;;;;;;;1.5945921;36.40858;-86.75268;;;;;;;;;
2147.0;2073.0;;;;;;;-0.02069155;-0.75771356;-0.17798395;;;;;;;;;;;;
2147.0;2080.2;;;;;;;;;;;;;;;;;3.215888;-10.521256;-15.35081;;1968.3
2147.0;2080.2;;;;;;;;;;;;;;-0.3338725;0.36426893;-0.057863094;;;;;1968.3
2147.0;2080.2;;;;;;;;;;;;;;;;;-1.9951477;-3.0632956;-12.49733;;1968.3
2147.0;2080.2;;;;;;;;;;;;;;-0.29627368;0.34858242;-0.080996126;;;;;1968.3
2147.0;2080.2;;;;;;;;;;;;;;;;;-5.760369;4.161962;-9.460738;;1978.0
2147.0;2080.2;;;;;;;;;;;;;;-0.26062807;0.33063754;-0.09765923;;;;;1978.0
2147.0;2080.2;;;;;;;;;;;;;;;;;-8.110294;10.696738;-6.328776;;1978.0
2147.0;2080.2;;;;;;;;;;;;;;-0.21491134;0.3211768;-0.11914426;;;;;1978.0
2147.0;2080.2;;;;;;;;;;;;;;;;;-8.949553;16.666922;-3.0365918;;1987.7
2147.0;2080.2;;;;;;;;;;;;;;-0.17157505;0.31086153;-0.13495284;;;;;1987.7
2147.0;2080.2;;;;;;;;;;;;;;;;;-8.48796;21.992401;0.51499987;;1987.7
2147.0;2080.2;;;;;;;;;;;;;;-0.13129063;0.30579546;-0.14874722;;;;;1987.7
2149.0;2080.4;;;;-0.37163547;0.54050833;0.061386116;;;;;;;;;;;;;;;
2149.0;2080.4;;;;-0.37028125;0.53545004;0.061149605;;;;;;;;;;;;;;;
2149.0;2080.4;;;;-0.336525;0.52616507;0.056838997;;;;;;;;;;;;;;;
2149.0;2080.4;;;;-0.33409503;0.5251618;0.056514747;;;;;;;;;;;;;;;
2149.0;2080.4;;;;-0.3771096;0.5258408;0.058940895;;;;;;;;;;;;;;;
2149.0;2081.4;;;;;;;;;;;;;;;;;-7.450331;27.63451;4.4557023;;1997.2
2149.0;2081.4;;;;;;;;;;;;;;-0.09814753;0.30823696;-0.15472884;;;;;1997.2
2149.0;2081.4;;;;;;;;;;;;;;;;;-6.3592944;32.780697;8.594775;;1997.2
2149.0;2081.4;;;;;;;;;;;;;;-0.0695822;0.31025118;-0.14471877;;;;;1997.2
2149.0;2081.4;;;;;;;;;;;;;;;;;-6.34785;37.774284;12.714774;;2006.9
2149.0;2081.4;;;;;;;;;;;;;;-0.042176582;0.30317086;-0.1342204;;;;;2006.9
2149.0;2081.4;;;;;;;;;;;;;;;;;-7.221442;43.588062;16.582996;;2006.9
2149.0;2081.4;;;;;;;;;;;;;;-0.019287698;0.2912076;-0.12439345;;;;;2006.9
2149.0;2081.4;;;;;;;;;;;;;;;;;-8.125553;50.61495;20.226141;;2016.6
2149.0;2081.4;;;;;;;;;;;;;;-3.051851E-4;0.28504288;-0.118717;;;;;2016.6
2149.0;2081.4;;;;;;;;;;;;;;;;;-8.911405;58.870205;23.575548;;2016.6
2149.0;2081.4;;;;;;;;;;;;;;0.014709922;0.28650776;-0.11133152;;;;;2016.6
2149.0;2082.4;;;;;;;;;;-0.6256294;35.420544;-79.645676;;;;;;;;;
2149.0;2082.4;;;;;;;-0.05938902;-0.7281106;-0.1788995;;;;;;;;;;;;
2149.0;2082.4;;;;;;;;;;-2.666555;33.974728;-71.35609;;;;;;;;;
2149.0;2082.4;;;;;;;-0.09173864;-0.7017426;-0.16772974;;;;;;;;;;;;
2149.0;2084.1;262143;262143;13965;;;;;;;;;;;;;;;;;;
2153.0;2090.0;;;;;;;;;;;;;-7835;;;;;;;;
2153.0;2090.0;;;;;;;;;;;;;-1186;;;;;;;;
2153.0;2090.0;;;;;;;;;;;;;8439;;;;;;;;
2153.0;2090.0;;;;;;;;;;;;;12776;;;;;;;;
2153.0;2090.0;;;;;;;;;;;;;11765;;;;;;;;
2153.0;2090.3;;;;-0.3890229;0.5213395;0.062408455;;;;;;;;;;;;;;;
2153.0;2090.3;;;;-0.3735123;0.51129156;0.057739265;;;;;;;;;;;;;;;
2153.0;2090.3;;;;-0.358017;0.5026017;0.056495674;;;;;;;;;;;;;;;
2153.0;2090.3;;;;-0.35242084;0.49636084;0.05536271;;;;;;;;;;;;;;;
2153.0;2090.3;;;;-0.35249713;0.4896279;0.056705482;;;;;;;;;;;;;;;
2153.0;2091.9;;;;;;;;;;-3.5134435;32.471695;-63.047424;;;;;;;;;
2153.0;2091.9;;;;;;;-0.10419019;-0.68312633;-0.1655324;;;;;;;;;;;;
2153.0;2091.9;;;;;;;;;;-4.5396285;30.39262;-55.814537;;;;;;;;;
2153.0;2091.9;;;;;;;-0.10357982;-0.6653035;-0.1723075;;;;;;;;;;;;
2153.0;2100.3;;;;-0.35093692;0.483944;0.06056214;;;;;;;;;;;;;;;
2153.0;2100.3;;;;-0.34941867;0.47792822;0.06446458;;;;;;;;;;;;;;;
2153.0;2100.3;;;;-0.3469887;0.4721642;0.06664658;;;;;;;;;;;;;;;
2153.0;2100.3;;;;-0.3414574;0.46461493;0.07085801;;;;;;;;;;;;;;;
2153.0;2100.3;;;;-0.3393326;0.45934683;0.07666398;;;;;;;;;;;;;;;
2153.0;2101.4;;;;;;;;;;-6.85522;28.02362;-49.08521;;;;;;;;;
2153.0;2101.4;;;;;;;-0.10577715;-0.6470534;-0.16760765;;;;;;;;;;;;
2153.0;2101.4;;;;;;;;;;-9.071627;25.978882;-42.058323;;;;;;;;;
2153.0;2101.4;;;;;;;-0.11511582;-0.6349681;-0.15356915;;;;;;;;;;;;
2153.0;2104.2;262143;262143;13964;;;;;;;;;;;;;;;;;;
2203.0;2110.2;;;;-0.33924487;0.45356756;0.08053971;;;;;;;;;;;;;;;
2203.0;2110.2;;;;-0.33944324;0.44760138;0.084091194;;;;;;;;;;;;;;;
2203.0;2110.2;;;;-0.33866504;0.44312674;0.088737495;;;;;;;;;;;;;;;
2203.0;2110.2;;;;-0.33786777;0.43786246;0.094181076;;;;;;;;;;;;;;;
2203.0;2110.2;;;;-0.3376656;0.43355948;0.09957124;;;;;;;;;;;;;;;
2203.0;2110.8;;;;;;;;;;-10.406812;23.693808;-34.707172;;;;;;;;;
2203.0;2110.8;;;;;;;-0.112125;-0.6263619;-0.1436201;;;;;;;;;;;;
2203.0;2110.8;;;;;;;;;;-11.654256;21.91992;-27.500992;;;;;;;;;
2203.0;2110.8;;;;;;;-0.09442427;-0.61653495;-0.13086337;;;;;;;;;;;;
2203.0;2120.2;;;;-0.3392258;0.42727667;0.104072586;;;;;;;;;;;;;;;
2203.0;2120.2;;;;-0.34073642;0.41989523;0.10797502;;;;;;;;;;;;;;;
2203.0;2120.2;;;;-0.33776096;0.41294867;0.114238754;;;;;;;;;;;;;;;
2203.0;2120.2;;;;-0.3321114;0.40481573;0.12437822;;;;;;;;;;;;;;;
2203.0;2120.2;;;;-0.33229068;0.39983755;0.13111497;;;;;;;;;;;;;;;
2203.0;2120.4;;;;;;;;;;-12.817774;20.634327;-20.91281;;;;;;;;;
2203.0;2120.4;;;;;;;-0.07715079;-0.60860014;-0.117069006;;;;;;;;;;;;
2203.0;2120.4;;;;;;;;;;-13.618885;19.203773;-14.870144;;;;;;;;;
2203.0;2120.4;;;;;;;-0.060121465;-0.6107364;-0.10571612;;;;;;;;;;;;
2203.0;2124.2;262143;262143;13961;;;;;;;;;;;;;;;;;;
2203.0;2130.0;;;;;;;;;;-13.935514;17.31544;-9.426405;;;;;;;;;
2203.0;2130.0;;;;;;;-0.038941618;-0.6148259;-0.09485153;;;;;;;;;;;;
2203.0;2130.0;;;;;;;;;;-14.694663;15.739922;-4.3031096;;;;;;;;;
2203.0;2130.0;;;;;;;-0.018677328;-0.6193426;-0.08642842;;;;;;;;;;;;
2205.0;2130.1;;;;;;;;;;;;;10693;;;;;;;;
2205.0;2130.1;;;;;;;;;;;;;11563;;;;;;;;
2205.0;2130.1;;;;;;;;;;;;;12068;;;;;;;;
2205.0;2130.1;;;;;;;;;;;;;11784;;;;;;;;
2205.0;2130.1;;;;;;;;;;;;;12163;;;;;;;;
2205.0;2130.3;;;;-0.33419803;0.39557654;0.13682939;;;;;;;;;;;;;;;
2205.0;2130.3;;;;-0.33674625;0.392788;0.1437607;;;;;;;;;;;;;;;
2205.0;2130.3;;;;-0.33586124;0.39046866;0.14941789;;;;;;;;;;;;;;;
2205.0;2130.3;;;;-0.3338509;0.38691717;0.15635301;;;;;;;;;;;;;;;
2205.0;2130.3;;;;-0.3339348;0.3842469;0.16441728;;;;;;;;;;;;;;;
2205.0;2139.7;;;;;;;;;;-16.121403;14.839625;0.9117405;;;;;;;;;
2205.0;2139.7;;;;;;;-0.0053102206;-0.63057345;-0.07434309;;;;;;;;;;;;
2205.0;2139.7;;;;;;;;;;-17.509995;13.771477;6.195257;;;;;;;;;
2205.0;2139.7;;;;;;;0.0054322947;-0.64351326;-0.061159093;;;;;;;;;;;;
2205.0;2140.3;;;;;;;;;;;;;;;;;-9.701072;68.26609;26.886808;;2026.2
2205.0;2140.3;;;;;;;;;;;;;;0.029725028;0.2959685;-0.10998871;;;;;2026.2
2205.0;2140.3;;;;;;;;;;;;;;;;;-11.066774;78.07016;30.011139;;2026.2
2205.0;2140.3;;;;;;;;;;;;;;0.04058962;0.31403548;-0.11322367;;;;;2026.2
2205.0;2140.3;;;;;;;;;;;;;;;;;-12.485885;87.733086;33.234657;;2035.9
2205.0;2140.3;;;;;;;;;;;;;;0.042115543;0.33021027;-0.11365093;;;;;2035.9
2205.0;2140.3;;;;;;;;;;;;;;;;;-13.950773;96.47664;36.439102;;2035.9
2205.0;2140.3;;;;;;;;;;;;;;0.03216651;0.34797204;-0.11841182;;;;;2035.9
2205.0;2140.3;;;;;;;;;;;;;;;;;-15.537736;103.54549;39.876247;;2045.5
2205.0;2140.3;;;;;;;;;;;;;;0.01208533;0.36219367;-0.12146367;;;;;2045.5
2205.0;2140.3;;;;;;;;;;;;;;;;;-16.678366;108.23008;43.40114;;2045.5
2205.0;2140.3;;;;;;;;;;;;;;-0.027588733;0.36463514;-0.11767937;;;;;2045.5
2209.0;2140.3;;;;-0.3371773;0.38114172;0.17282487;;;;;;;;;;;;;;;
2209.0;2140.3;;;;-0.3391495;0.38114172;0.18166353;;;;;;;;;;;;;;;
2209.0;2140.3;;;;-0.3363228;0.38977057;0.18955615;;;;;;;;;;;;;;;
2209.0;2140.3;;;;-0.3348618;0.40178305;0.19410709;;;;;;;;;;;;;;;
2209.0;2140.3;;;;-0.33526614;0.40642554;0.20126346;;;;;;;;;;;;;;;
2209.0;2141.1;;;;;;;;;;;;;;;;;-16.743217;110.14511;46.739098;;2055.1
2209.0;2141.1;;;;;;;;;;;;;;-0.08069094;0.36628315;-0.11181982;;;;;2055.1
2209.0;2141.1;;;;;;;;;;;;;;;;;-16.930143;109.653;49.45906;;2055.1
2209.0;2141.1;;;;;;;;;;;;;;-0.14758751;0.3678091;-0.090151675;;;;;2055.1
2209.0;2141.1;;;;;;;;;;;;;;;;;-17.769402;106.70797;51.942505;;2064.7
2209.0;2141.1;;;;;;;;;;;;;;-0.21448408;0.35834834;-0.06488235;;;;;2064.7
2209.0;2141.1;;;;;;;;;;;;;;;;;-17.826624;102.01575;54.113132;;2064.7
2209.0;2141.1;;;;;;;;;;;;;;-0.27906126;0.35572374;-0.043092135;;;;;2064.7
2209.0;2141.1;;;;;;;;;;;;;;;;;-17.50618;96.79327;55.940426;;2074.4
2209.0;2141.1;;;;;;;;;;;;;;-0.3394879;0.34766686;-0.032471694;;;;;2074.4
2209.0;2141.1;;;;;;;;;;;;;;;;;-17.422253;92.00949;57.45491;;2074.4
2209.0;2141.1;;;;;;;;;;;;;;-0.39436018;0.34882656;-0.023926511;;;;;2074.4
2209.0;2144.3;262143;262143;13961;;;;;;;;;;;;;;;;;;
2209.0;2148.9;;;;;;;;;;-18.780329;12.474441;11.516922;;;;;;;;;
2209.0;2148.9;;;;;;;0.016113773;-0.65718555;-0.04895169;;;;;;;;;;;;
2209.0;2148.9;;;;;;;;;;-19.882809;10.673849;16.743217;;;;;;;;;
2209.0;2148.9;;;;;;;0.020325327;-0.67415386;-0.03625599;;;;;;;;;;;;
2210.0;2150.2;;;;-0.33570865;0.40603644;0.20970157;;;;;;;;;;;;;;;
2210.0;2150.2;;;;-0.3338547;0.40133673;0.21834186;;;;;;;;;;;;;;;
2210.0;2150.2;;;;-0.33004764;0.3957978;0.22952655;;;;;;;;;;;;;;;
2210.0;2150.2;;;;-0.33808902;0.39228064;0.23411563;;;;;;;;;;;;;;;
2210.0;2150.2;;;;-0.35383227;0.39049536;0.23376086;;;;;;;;;;;;;;;
2210.0;2158.5;;;;;;;;;;-20.859402;8.209479;22.053438;;;;;;;;;
2210.0;2158.5;;;;;;;0.022461623;-0.6938078;-0.023255104;;;;;;;;;;;;
2210.0;2158.5;;;;;;;;;;-21.652884;5.1538134;27.195808;;;;;;;;;
2210.0;2158.5;;;;;;;0.017517624;-0.7140721;-0.015198218;;;;;;;;;;;;
2210.0;2160.2;;;;-0.3502312;0.3863755;0.23780063;;;;;;;;;;;;;;;
2210.0;2160.2;;;;-0.34895328;0.38132483;0.24171832;;;;;;;;;;;;;;;
2210.0;2160.2;;;;-0.3563805;0.38039023;0.24491885;;;;;;;;;;;;;;;
2210.0;2160.2;;;;-0.36046985;0.3796807;0.25174716;;;;;;;;;;;;;;;
2210.0;2160.2;;;;-0.36395648;0.37989813;0.25904468;;;;;;;;;;;;;;;
2210.0;2164.3;262143;262143;13970;;;;;;;;;;;;;;;;;;
2210.0;2168.1;;;;;;;;;;-22.488325;2.0180366;32.25425;;;;;;;;;
2210.0;2168.1;;;;;;;0.013794366;-0.73146766;-0.009765923;;;;;;;;;;;;
2210.0;2168.1;;;;;;;;;;-23.194067;-1.3809626;37.163914;;;;;;;;;
2210.0;2168.1;;;;;;;0.010742515;-0.74727625;-0.00695822;;;;;;;;;;;;
2210.0;2170.1;;;;;;;;;;;;;12781;;;;;;;;
2210.0;2170.1;;;;;;;;;;;;;12672;;;;;;;;
2210.0;2170.1;;;;;;;;;;;;;11829;;;;;;;;
2210.0;2170.1;;;;;;;;;;;;;10724;;;;;;;;
2210.0;2170.1;;;;;;;;;;;;;9706;;;;;;;;
2261.0;2170.2;;;;-0.36775973;0.38286978;0.26784137;;;;;;;;;;;;;;;
2261.0;2170.2;;;;-0.36683276;0.38385397;0.2803574;;;;;;;;;;;;;;;
2261.0;2170.2;;;;-0.3690987;0.38774496;0.29018024;;;;;;;;;;;;;;;
2261.0;2170.2;;;;-0.37074664;0.39334875;0.2980118;;;;;;;;;;;;;;;
2261.0;2170.2;;;;-0.36824802;0.39823538;0.3052254;;;;;;;;;;;;;;;
2261.0;2177.4;;;;;;;;;;-23.83114;-4.6388135;41.83325;;;;;;;;;
2261.0;2177.4;;;;;;;0.010193182;-0.75789666;-0.0054933317;;;;;;;;;;;;
2261.0;2177.4;;;;;;;;;;-24.445328;-7.7936645;46.357616;;;;;;;;;
2261.0;2177.4;;;;;;;0.012817774;-0.7655263;-9.155553E-4;;;;;;;;;;;;
2261.0;2180.2;;;;-0.36590198;0.4027558;0.3115807;;;;;;;;;;;;;;;
2261.0;2180.2;;;;-0.37379077;0.41226584;0.31595615;;;;;;;;;;;;;;;
2261.0;2180.2;;;;-0.3467255;0.41060644;0.3195;;;;;;;;;;;;;;;
2261.0;2180.2;;;;-0.20487598;0.37989813;0.29608157;;;;;;;;;;;;;;;
2261.0;2180.2;;;;-0.2543259;0.39469153;0.30539706;;;;;;;;;;;;;;;
2261.0;2184.3;262143;262143;13974;;;;;;;;;;;;;;;;;;
2261.0;2187.1;;;;;;;;;;-24.628439;-10.994293;50.710316;;;;;;;;;
2261.0;2187.1;;;;;;;0.017761772;-0.7736442;0.009521775;;;;;;;;;;;;
2261.0;2187.1;;;;;;;;;;-23.880733;-13.981292;54.860832;;;;;;;;;
2261.0;2187.1;;;;;;;0.015930662;-0.78237253;0.031434067;;;;;;;;;;;;
2266.0;2190.3;;;;-0.36041263;0.41884238;0.32094958;;;;;;;;;;;;;;;
2266.0;2190.3;;;;-0.40207297;0.4351464;0.328846;;;;;;;;;;;;;;;
2266.0;2190.3;;;;-0.39624792;0.45110327;0.34222034;;;;;;;;;;;;;;;
2266.0;2190.3;;;;-0.39884192;0.4680329;0.34466556;;;;;;;;;;;;;;;
2266.0;2190.3;;;;-0.40707022;0.48181158;0.34175876;;;;;;;;;;;;;;;
2266.0;2196.7;;;;;;;;;;-20.91281;-16.766108;59.194466;;;;;;;;;
2266.0;2196.7;;;;;;;0.023987548;-0.79531235;0.042298656;;;;;;;;;;;;
2266.0;2196.7;;;;;;;;;;-17.311625;-19.337292;63.081757;;;;;;;;;
2266.0;2196.7;;;;;;;0.03729362;-0.80556655;0.029602954;;;;;;;;;;;;
2266.0;2200.5;;;;;;;;;;;;;;;;;-17.059847;89.39634;58.641315;;2084.0
2266.0;2200.5;;;;;;;;;;;;;;-0.45979187;0.36030152;-0.01147496;;;;;2084.0
2266.0;2200.5;;;;;;;;;;;;;;;;;-17.376476;88.00012;59.335613;;2084.0
2266.0;2200.5;;;;;;;;;;;;;;-0.527604;0.37720877;-0.00573748;;;;;2084.0
2266.0;2200.5;;;;;;;;;;;;;;;;;-19.589067;89.25138;59.385204;;2093.6
2266.0;2200.5;;;;;;;;;;;;;;-0.5861995;0.41212195;0.0017700735;;;;;2093.6
2266.0;2200.5;;;;;;;;;;;;;;;;;-24.533068;93.29127;58.702354;;2093.6
2266.0;2200.5;;;;;;;;;;;;;;-0.6659749;0.44257942;0.011963256;;;;;2093.6
2266.0;2200.5;;;;;;;;;;;;;;;;;-33.139286;99.27671;57.79824;;2103.2
2266.0;2200.5;;;;;;;;;;;;;;-0.7698599;0.45240638;-6.103702E-5;;;;;2103.2
2266.0;2200.5;;;;;;;;;;;;;;;;;-44.755394;107.32597;56.531723;;2103.2
2266.0;2200.5;;;;;;;;;;;;;;-0.8831446;0.42048404;-0.042909026;;;;;2103.2
2269.0;2200.3;;;;-0.41668707;0.49376303;0.3361359;;;;;;;;;;;;;;;
2269.0;2200.3;;;;-0.42304236;0.5051957;0.33267215;;;;;;;;;;;;;;;
2269.0;2200.3;;;;-0.42909247;0.51663595;0.33393863;;;;;;;;;;;;;;;
2269.0;2200.3;;;;-0.4389649;0.5284615;0.33741;;;;;;;;;;;;;;;
2269.0;2200.3;;;;-0.45367438;0.5413514;0.34116367;;;;;;;;;;;;;;;
2269.0;2201.5;;;;;;;;;;;;;;;;;-57.744835;117.51915;54.216133;;2112.8
2269.0;2201.5;;;;;;;;;;;;;;-1.0002747;0.3452254;-0.13135166;;;;;2112.8
2269.0;2201.5;;;;;;;;;;;;;;;;;-69.03287;124.546036;51.286354;;2112.8
2269.0;2201.5;;;;;;;;;;;;;;-1.101352;0.25898007;-0.23419905;;;;;2112.8
2269.0;2201.5;;;;;;;;;;;;;;;;;-76.39546;124.988556;47.92932;;2122.5
2269.0;2201.5;;;;;;;;;;;;;;-1.2125003;0.16602069;-0.31586656;;;;;2122.5
2269.0;2201.5;;;;;;;;;;;;;;;;;-78.82931;124.988556;44.740135;;2122.5
2269.0;2201.5;;;;;;;;;;;;;;-1.2952056;0.09179968;-0.3975341;;;;;2122.5
2269.0;2201.5;;;;;;;;;;;;;;;;;-77.5895;124.988556;41.966766;;2132.1
2269.0;2201.5;;;;;;;;;;;;;;-1.3862728;0.012512589;-0.4778588;;;;;2132.1
2269.0;2201.5;;;;;;;;;;;;;;;;;-71.1272;124.988556;38.693657;;2132.1
2269.0;2201.5;;;;;;;;;;;;;;-1.4645222;-0.0590228;-0.54390085;;;;;2132.1
2269.0;2204.3;262143;262143;13984;;;;;;;;;;;;;;;;;;
2269.0;2206.0;;;;;;;;;;-15.800959;-21.614735;66.17176;;;;;;;;;
2269.0;2206.0;;;;;;;0.04791406;-0.8067263;0.019531846;;;;;;;;;;;;
2269.0;2206.0;;;;;;;;;;-15.04181;-23.823511;69.15112;;;;;;;;;
2269.0;2206.0;;;;;;;0.05627613;-0.8057497;0.009460738;;;;;;;;;;;;
2270.0;2210.1;;;;;;;;;;;;;8786;;;;;;;;
2270.0;2210.1;;;;;;;;;;;;;8057;;;;;;;;
2270.0;2210.1;;;;;;;;;;;;;7802;;;;;;;;
2270.0;2210.1;;;;;;;;;;;;;8085;;;;;;;;
2270.0;2210.1;;;;;;;;;;;;;8355;;;;;;;;
2270.0;2210.1;;;;-0.4632607;0.55192953;0.3453751;;;;;;;;;;;;;;;
2270.0;2210.1;;;;-0.47238547;0.56083304;0.3508568;;;;;;;;;;;;;;;
2270.0;2210.1;;;;-0.48561484;0.5706406;0.35618594;;;;;;;;;;;;;;;
2270.0;2210.1;;;;-0.49577338;0.5799752;0.35719684;;;;;;;;;;;;;;;
2270.0;2210.1;;;;-0.5018197;0.5880318;0.36127093;;;;;;;;;;;;;;;
2270.0;2215.5;;;;;;;;;;-14.996032;-25.963621;72.11905;;;;;;;;;
2270.0;2215.5;;;;;;;0.06292917;-0.80111086;0.0015259255;;;;;;;;;;;;
2270.0;2215.5;;;;;;;;;;-15.175328;-27.958769;75.27009;;;;;;;;;
2270.0;2215.5;;;;;;;0.06482132;-0.799707;0.011535997;;;;;;;;;;;;
2270.0;2220.2;;;;-0.51403433;0.5970612;0.3658524;;;;;;;;;;;;;;;
2270.0;2220.2;;;;-0.52787787;0.60731894;0.36550906;;;;;;;;;;;;;;;
2270.0;2220.2;;;;-0.53856665;0.6170617;0.36791995;;;;;;;;;;;;;;;
2270.0;2220.2;;;;-0.55104834;0.6257935;0.36677936;;;;;;;;;;;;;;;
2270.0;2220.2;;;;-0.56381994;0.63662344;0.3611603;;;;;;;;;;;;;;;
2270.0;2224.4;262143;262143;13993;;;;;;;;;;;;;;;;;;
2270.0;2225.1;;;;;;;;;;-14.351329;-29.889067;78.71486;;;;;;;;;
2270.0;2225.1;;;;;;;0.044373915;-0.8008057;0.0076296274;;;;;;;;;;;;
2270.0;2225.1;;;;;;;;;;-14.156774;-31.056398;83.26212;;;;;;;;;
2270.0;2225.1;;;;;;;0.0717185;-0.8094729;0.019959105;;;;;;;;;;;;
2383.0;2230.2;;;;-0.56942374;0.6422768;0.35884097;;;;;;;;;;;;;;;
2383.0;2230.2;;;;-0.58419424;0.6486512;0.35650638;;;;;;;;;;;;;;;
2383.0;2230.2;;;;-0.5874787;0.6508904;0.35694507;;;;;;;;;;;;;;;
2383.0;2230.2;;;;-0.57636267;0.6505471;0.351841;;;;;;;;;;;;;;;
2383.0;2230.2;;;;-0.59330374;0.65240866;0.34320453;;;;;;;;;;;;;;;
2383.0;2234.4;;;;;;;;;;-13.142034;-32.486954;85.97827;;;;;;;;;
2383.0;2234.4;;;;;;;0.07684561;-0.81923884;0.025269326;;;;;;;;;;;;
2383.0;2234.4;;;;;;;;;;-11.928923;-33.787807;88.63719;;;;;;;;;
2383.0;2234.4;;;;;;;0.07892086;-0.82039857;0.022156438;;;;;;;;;;;;
2383.0;2239.9;;;;-0.60763174;0.65355307;0.3301392;;;;;;;;;;;;;;;
2383.0;2239.9;;;;-0.6140328;0.6537667;0.311924;;;;;;;;;;;;;;;
2383.0;2239.9;;;;-0.61648566;0.65085226;0.28937915;;;;;;;;;;;;;;;
2383.0;2239.9;;;;-0.6113053;0.642849;0.2668114;;;;;;;;;;;;;;;
2383.0;2239.9;;;;-0.6145058;0.63428503;0.24121478;;;;;;;;;;;;;;;
2383.0;2243.9;;;;;;;;;;-12.127293;-34.62325;91.68905;;;;;;;;;
2383.0;2243.9;;;;;;;0.08642842;-0.8319346;0.02417066;;;;;;;;;;;;
2383.0;2243.9;;;;;;;;;;-12.924589;-35.493027;94.35941;;;;;;;;;
2383.0;2243.9;;;;;;;0.086123236;-0.850734;0.02948088;;;;;;;;;;;;
2383.0;2244.2;262143;262143;13988;;;;;;;;;;;;;;;;;;
2384.0;2250.0;;;;-0.6117707;0.62426;0.21699908;;;;;;;;;;;;;;;
2384.0;2250.0;;;;-0.60506064;0.6105538;0.19708636;;;;;;;;;;;;;;;
2384.0;2250.0;;;;-0.6102944;0.60132986;0.17529298;;;;;;;;;;;;;;;
2384.0;2250.0;;;;-0.6142121;0.59761435;0.15633012;;;;;;;;;;;;;;;
2384.0;2250.0;;;;-0.6136094;0.59701926;0.13977815;;;;;;;;;;;;;;;
2384.0;2250.1;;;;;;;;;;;;;7882;;;;;;;;
2384.0;2250.1;;;;;;;;;;;;;6971;;;;;;;;
2384.0;2250.1;;;;;;;;;;;;;6414;;;;;;;;
2384.0;2250.1;;;;;;;;;;;;;6531;;;;;;;;
2384.0;2250.1;;;;;;;;;;;;;7458;;;;;;;;
2384.0;2253.6;;;;;;;;;;-13.344218;-36.06143;97.4189;;;;;;;;;
2384.0;2253.6;;;;;;;0.08270516;-0.865627;0.037720878;;;;;;;;;;;;
2384.0;2253.6;;;;;;;;;;-13.531144;-36.56499;100.87893;;;;;;;;;
2384.0;2253.6;;;;;;;0.09320353;-0.88515884;0.045960877;;;;;;;;;;;;
2384.0;2260.5;;;;;;;;;;;;;;;;;-59.38139;124.988556;34.176914;;2141.8
2384.0;2260.5;;;;;;;;;;;;;;-1.5290383;-0.08709983;-0.56624043;;;;;2141.8
2384.0;2260.5;;;;;;;;;;;;;;;;;-45.857876;124.988556;26.577806;;2141.8
2384.0;2260.5;;;;;;;;;;;;;;-1.5929441;-0.084475234;-0.46156195;;;;;2141.8
2384.0;2260.5;;;;;;;;;;;;;;;;;-34.2761;124.988556;16.9187;;2151.5
2384.0;2260.5;;;;;;;;;;;;;;-1.615772;-0.062440872;-0.26862392;;;;;2151.5
2384.0;2260.5;;;;;;;;;;;;;;;;;-27.317883;123.98526;5.3369246;;2151.5
2384.0;2260.5;;;;;;;;;;;;;;-1.5557115;-0.011169774;-0.06427198;;;;;2151.5
2384.0;2260.5;;;;;;;;;;;;;;;;;-23.201696;110.683;-5.6840725;;2161.1
2384.0;2260.5;;;;;;;;;;;;;;-1.426191;0.038941618;0.06738487;;;;;2161.1
2384.0;2260.5;;;;;;;;;;;;;;;;;-18.95581;91.364784;-14.713737;;2161.1
2384.0;2260.5;;;;;;;;;;;;;;-1.2884305;0.0926542;0.112979524;;;;;2161.1
2387.0;2260.1;;;;-0.60802084;0.601368;0.12705232;;;;;;;;;;;;;;;
2387.0;2260.1;;;;-0.60057455;0.60978323;0.11734773;;;;;;;;;;;;;;;
2387.0;2260.1;;;;-0.5922051;0.6189652;0.1116028;;;;;;;;;;;;;;;
2387.0;2260.1;;;;-0.5862656;0.63213736;0.10695268;;;;;;;;;;;;;;;
2387.0;2260.1;;;;-0.5798798;0.6487313;0.101188675;;;;;;;;;;;;;;;
2387.0;2261.2;;;;;;;;;;;;;;;;;-13.714254;76.80365;-20.920439;;2170.6
2387.0;2261.2;;;;;;;;;;;;;;-1.1818599;0.16449477;0.15814692;;;;;2170.6
2387.0;2261.2;;;;;;;;;;;;;;;;;-8.953367;64.30631;-24.174475;;2170.6
2387.0;2261.2;;;;;;;;;;;;;;-1.1056856;0.24799341;0.23468734;;;;;2170.6
2387.0;2261.2;;;;;;;;;;;;;;;;;-7.3206277;51.755577;-25.475325;;2180.3
2387.0;2261.2;;;;;;;;;;;;;;-1.0383008;0.31727043;0.34882656;;;;;2180.3
2387.0;2261.2;;;;;;;;;;;;;;;;;-8.365887;39.361244;-25.742363;;2180.3
2387.0;2261.2;;;;;;;;;;;;;;-0.9720756;0.36548966;0.4651631;;;;;2180.3
2387.0;2261.2;;;;;;;;;;;;;;;;;-11.028626;28.622547;-25.837732;;2189.9
2387.0;2261.2;;;;;;;;;;;;;;-0.9154332;0.4096805;0.5832698;;;;;2189.9
2387.0;2261.2;;;;;;;;;;;;;;;;;-14.282662;18.997772;-25.92166;;2189.9
2387.0;2261.2;;;;;;;;;;;;;;-0.8782617;0.4796289;0.72707295;;;;;2189.9
2387.0;2263.1;;;;;;;;;;-13.828699;-37.564472;103.64468;;;;;;;;;
2387.0;2263.1;;;;;;;0.100711085;-0.90896326;0.046449173;;;;;;;;;;;;
2387.0;2263.1;;;;;;;;;;-14.873959;-38.64025;105.7886;;;;;;;;;
2387.0;2263.1;;;;;;;0.10943937;-0.93362224;0.035889767;;;;;;;;;;;;
2387.0;2264.4;262143;262143;14002;;;;;;;;;;;;;;;;;;
2390.0;2270.1;;;;-0.5694428;0.66782767;0.096576706;;;;;;;;;;;;;;;
