patientId;holterMac;flexMac;;;;;;;;;;;;;;;;;;;;
;CA:F3:0B:1E:33:78;D3:4A:5C:52:80:78;;;;;;;;;;;;;;;;;;;;
receivedTimeStamp;timeStamp;red;ir;green;adxl_accX;adxl_accY;adxl_accZ;lsm_accelX;lsm_accelY;lsm_accelZ;lsm_gyroX;lsm_gyroY;lsm_gyroZ;ecg;flex_lsm_accelX;flex_lsm_accelY;flex_lsm_accelZ;flex_lsm_gyroX;flex_lsm_gyroY;flex_lsm_gyroZ;flex_cmd;flexTimeStamp
271.0;216.3;;;;;;;;;;;;;;;;;;;;17;0.1
271.0;216.3;;;;;;;;;;;;;;;;;13.660849;-0.045777764;1.2665181;;127.5
271.0;216.3;;;;;;;;;;;;;;-1.3517258;1.0719321;0.6538896;;;;;127.5
271.0;216.3;;;;;;;;;;;;;;;;;-4.615925;-20.88229;-6.2944427;;127.5
271.0;216.3;;;;;;;;;;;;;;-1.0459914;1.2195196;0.40473646;;;;;127.5
271.0;216.3;;;;;;;;;;;;;;;;;-63.383133;-86.611534;-58.050022;;137.1
271.0;216.3;;;;;;;;;;;;;;-0.6104923;1.3264565;0.15875728;;;;;137.1
271.0;216.3;;;;;;;;;;;;;;;;;-122.20756;-124.988556;-117.09571;;137.1
271.0;216.3;;;;;;;;;;;;;;-0.3098239;1.2932523;0.048646506;;;;;137.1
394.0;217.2;;;;;;;;;;;;;;;;;-61.91061;-124.988556;-59.96887;;146.8
394.0;217.2;;;;;;;;;;;;;;-0.15546128;1.1814325;0.017029328;;;;;146.8
394.0;217.2;;;;;;;;;;;;;;;;;-5.00885;-124.988556;13.328959;;146.8
394.0;217.2;;;;;;;;;;;;;;-0.052308727;1.0821863;-0.06805628;;;;;146.8
394.0;217.2;;;;;;;;;;;;;;;;;-11.284219;-106.21967;34.649952;;156.4
394.0;217.2;;;;;;;;;;;;;;-0.0018311106;0.95107883;-0.2624592;;;;;156.4
394.0;217.2;;;;;;;;;;;;;;;;;-9.445479;-25.551622;66.26713;;156.4
394.0;217.2;;;;;;;;;;;;;;0.027954955;0.7757805;-0.48200935;;;;;156.4
394.0;217.2;;;;;;;;;;;;;;;;;7.038331;13.111515;65.889465;;166.0
394.0;217.2;;;;;;;;;;;;;;0.04119999;0.6830653;-0.6106754;;;;;166.0
394.0;217.2;;;;;;;;;;;;;;;;;18.478958;39.73128;61.857204;;166.0
394.0;217.2;;;;;;;;;;;;;;0.04382458;0.69032866;-0.6129948;;;;;166.0
394.0;276.5;;;;;;;;;;;;;;;;;15.442366;55.0058;62.41035;;175.7
394.0;276.5;;;;;;;;;;;;;;0.010681478;0.7277444;-0.5158849;;;;;175.7
394.0;276.5;;;;;;;;;;;;;;;;;2.4300365;58.38191;61.613056;;175.7
394.0;276.5;;;;;;;;;;;;;;0.00634785;0.776574;-0.41163367;;;;;175.7
394.0;276.5;;;;;;;;;;;;;;;;;-11.047701;55.169834;58.591724;;185.3
394.0;276.5;;;;;;;;;;;;;;-0.027588733;0.77932066;-0.33912167;;;;;185.3
394.0;276.5;;;;;;;;;;;;;;;;;-13.946959;50.44328;54.57091;;185.3
394.0;276.5;;;;;;;;;;;;;;-0.11084323;0.7919553;-0.2987762;;;;;185.3
394.0;276.5;;;;;;;;;;;;;;;;;-11.715293;45.00717;51.16428;;195.0
394.0;276.5;;;;;;;;;;;;;;-0.21301919;0.74172187;-0.28894925;;;;;195.0
394.0;276.5;;;;;;;;;;;;;;;;;-11.967071;38.239693;47.83395;;195.0
394.0;276.5;;;;;;;;;;;;;;-0.32453382;0.6598102;-0.29804376;;;;;195.0
396.0;277.4;;;;;;;;;;;;;;;;;-13.870663;31.868954;44.75921;;204.7
396.0;277.4;;;;;;;;;;;;;;-0.43006682;0.6043275;-0.27838984;;;;;204.7
396.0;277.4;;;;;;;;;;;;;;;;;-19.878994;26.257362;41.27247;;204.7
396.0;277.4;;;;;;;;;;;;;;-0.52375865;0.5609912;-0.22461623;;;;;204.7
396.0;277.4;;;;;;;;;;;;;;;;;-30.022583;22.839289;38.07947;;214.2
396.0;277.4;;;;;;;;;;;;;;-0.5908384;0.5164952;-0.14154485;;;;;214.2
396.0;277.4;;;;;;;;;;;;;;;;;-41.219063;22.091587;35.04669;;214.2
396.0;277.4;;;;;;;;;;;;;;-0.6415601;0.47462386;-0.060975984;;;;;214.2
396.0;277.4;;;;;;;;;;;;;;;;;-49.36369;23.159733;32.303844;;223.9
396.0;277.4;;;;;;;;;;;;;;-0.6698813;0.45216224;-0.011841182;;;;;223.9
396.0;277.4;;;;;;;;;;;;;;;;;-52.39265;25.120548;30.20188;;223.9
396.0;277.4;;;;;;;;;;;;;;-0.67427593;0.44166386;-0.013245033;;;;;223.9
396.0;344.3;;;;;;;;;;;;;;;;;-48.98221;28.118992;28.328806;;233.6
396.0;344.3;;;;;;;;;;;;;;-0.6801965;0.43037203;-0.03869747;;;;;233.6
396.0;344.3;;;;;;;;;;;;;;;;;-39.242985;30.81225;26.615955;;233.6
396.0;344.3;;;;;;;;;;;;;;-0.68892485;0.44264045;-0.041322064;;;;;233.6
396.0;344.3;;;;;;;;;;;;;;;;;-28.153324;31.819363;24.571217;;243.2
396.0;344.3;;;;;;;;;;;;;;-0.6888638;0.49049348;-0.0023804437;;;;;243.2
396.0;344.3;;;;;;;;;;;;;;;;;-20.340586;29.515215;22.381512;;243.2
396.0;344.3;;;;;;;;;;;;;;-0.6767785;0.558977;0.0761742;;;;;243.2
396.0;344.3;;;;;;;;;;;;;;;;;-15.44618;23.316141;19.402143;;252.9
396.0;344.3;;;;;;;;;;;;;;-0.6753136;0.6537065;0.1521653;;;;;252.9
396.0;344.3;;;;;;;;;;;;;;;;;-11.326181;14.950255;16.647848;;252.9
396.0;344.3;;;;;;;;;;;;;;-0.6705527;0.7657094;0.16870633;;;;;252.9
455.0;345.0;;;;;;;;;;;;;;;;;-6.382183;7.953887;14.233069;;262.4
455.0;345.0;;;;;;;;;;;;;;-0.6764122;0.8782617;0.12787256;;;;;262.4
455.0;345.0;;;;;;;;;;;;;;;;;-1.4381847;3.8453321;12.470626;;262.4
455.0;345.0;;;;;;;;;;;;;;-0.70168155;0.95974606;0.05999939;;;;;262.4
455.0;345.0;;;;;;;;;;;;;;;;;0.6675924;2.3041475;11.146885;;272.0
455.0;345.0;;;;;;;;;;;;;;-0.7331156;1.0014343;-0.017517624;;;;;272.0
455.0;345.0;;;;;;;;;;;;;;;;;-0.96896267;2.3003328;10.219886;;272.0
455.0;345.0;;;;;;;;;;;;;;-0.7363506;0.9924619;-0.08008057;;;;;272.0
455.0;345.0;;;;;;;;;;;;;;;;;-4.7647023;3.2006288;8.682516;;281.7
455.0;345.0;;;;;;;;;;;;;;-0.7257302;0.95956296;-0.1093173;;;;;281.7
455.0;345.0;;;;;;;;;;;;;;;;;-8.846553;3.9864802;6.3058867;;281.7
455.0;345.0;;;;;;;;;;;;;;-0.7129734;0.9053011;-0.111636706;;;;;281.7
455.0;397.0;;;;;;;;;;;;;;;;;-11.471145;3.9902954;3.357036;;291.4
455.0;397.0;;;;;;;;;;;;;;-0.7024751;0.8509171;-0.09619434;;;;;291.4
455.0;397.0;;;;;;;;;;;;;;;;;-12.333293;3.1052582;0.30518508;;291.4
455.0;397.0;;;;;;;;;;;;;;-0.6906949;0.8086184;-0.086794645;;;;;291.4
455.0;397.0;;;;;;;;;;;;;;;;;-11.474959;1.6861477;-2.5101473;;301.0
455.0;397.0;;;;;;;;;;;;;;-0.6714072;0.7780999;-0.09784234;;;;;301.0
455.0;397.0;;;;;;;;;;;;;;;;;-9.090701;1.0414442;-4.8219247;;301.0
455.0;397.0;;;;;;;;;;;;;;-0.6369823;0.76339;-0.13733329;;;;;301.0
455.0;397.0;;;;;;;;;;;;;;;;;-7.045961;2.704703;-6.5462203;;310.5
455.0;397.0;;;;;;;;;;;;;;-0.5890683;0.76149786;-0.20307016;;;;;310.5
455.0;397.0;;;;;;;;;;;;;;;;;-6.1571097;6.7979984;-7.915738;;310.5
455.0;397.0;;;;;;;;;;;;;;-0.5555589;0.76216924;-0.25965148;;;;;310.5
635.0;397.8;;;;;;;;;;;;;;;;;-7.221442;11.9556265;-8.823664;;320.1
635.0;397.8;;;;;;;;;;;;;;-0.5200354;0.7690054;-0.2880337;;;;;320.1
635.0;397.8;;;;;;;;;;;;;;;;;-9.872738;17.033142;-9.578998;;320.1
635.0;397.8;;;;;;;;;;;;;;-0.49238563;0.77517015;-0.29602954;;;;;320.1
635.0;397.8;;;;;;;;;;;;;;;;;-12.49733;21.431623;-10.036775;;329.8
635.0;397.8;;;;;;;;;;;;;;-0.47212133;0.7703482;-0.29566333;;;;;329.8
635.0;397.8;;;;;;;;;;;;;;;;;-14.290292;24.58266;-10.227515;;329.8
635.0;397.8;;;;;;;;;;;;;;-0.46449172;0.7691885;-0.29706717;;;;;329.8
635.0;397.8;;;;;;;;;;;;;;;;;-15.831476;26.692251;-10.155034;;339.4
635.0;397.8;;;;;;;;;;;;;;-0.46192816;0.76973784;-0.29969177;;;;;339.4
635.0;397.8;;;;;;;;;;;;;;;;;-17.262032;28.22199;-9.769737;;339.4
635.0;397.8;;;;;;;;;;;;;;-0.46388134;0.7688223;-0.30219427;;;;;339.4
635.0;465.2;;;;;;;;;;;;;;;;;-18.55144;29.48088;-9.239479;;349.1
635.0;465.2;;;;;;;;;;;;;;-0.4702292;0.7660146;-0.2883999;;;;;349.1
635.0;465.2;;;;;;;;;;;;;;;;;-19.417402;30.835138;-8.499405;;349.1
635.0;465.2;;;;;;;;;;;;;;-0.4788354;0.7630238;-0.26142156;;;;;349.1
635.0;465.2;;;;;;;;;;;;;;;;;-19.821772;31.95288;-7.717368;;358.7
635.0;465.2;;;;;;;;;;;;;;-0.4918363;0.76473284;-0.22925505;;;;;358.7
635.0;465.2;;;;;;;;;;;;;;;;;-20.275734;32.589954;-7.0307016;;358.7
635.0;465.2;;;;;;;;;;;;;;-0.51173437;0.7685171;-0.19690542;;;;;358.7
635.0;465.2;;;;;;;;;;;;;;;;;-20.714437;32.555622;-6.515702;;368.3
635.0;465.2;;;;;;;;;;;;;;-0.5412763;0.7711417;-0.17322306;;;;;368.3
635.0;465.2;;;;;;;;;;;;;;;;;-21.065401;31.846066;-6.1532946;;368.3
635.0;465.2;;;;;;;;;;;;;;-0.57240516;0.7775506;-0.14484085;;;;;368.3
637.0;578.1;;;;;;;;;;;;;;;;;-21.179846;30.78173;-5.794702;;377.9
637.0;578.1;;;;;;;;;;;;;;-0.60176396;0.7900021;-0.1180456;;;;;377.9
637.0;578.1;;;;;;;;;;;;;;;;;-20.645771;29.850918;-5.4589987;;377.9
637.0;578.1;;;;;;;;;;;;;;-0.6242256;0.8091067;-0.09607227;;;;;377.9
637.0;578.1;;;;;;;;;;;;;;;;;-20.050661;28.939177;-5.11948;;387.5
637.0;578.1;;;;;;;;;;;;;;-0.6423536;0.8340098;-0.07721183;;;;;387.5
637.0;578.1;;;;;;;;;;;;;;;;;-19.619585;28.073214;-4.91348;;387.5
637.0;578.1;;;;;;;;;;;;;;-0.65718555;0.8537858;-0.056398205;;;;;387.5
637.0;578.1;;;;;;;;;;;;;;;;;-19.077885;27.62688;-4.6998506;;397.2
637.0;578.1;;;;;;;;;;;;;;-0.6684774;0.8676412;-0.0380871;;;;;397.2
637.0;578.1;;;;;;;;;;;;;;;;;-18.96344;27.836695;-4.440443;;397.2
637.0;578.1;;;;;;;;;;;;;;-0.6770837;0.8761254;-0.023010956;;;;;397.2
637.0;578.9;;;;;;;;;;;;;;;;;-19.36018;27.8634;-4.0055547;;406.8
637.0;578.9;;;;;;;;;;;;;;-0.6789758;0.88070315;-0.00982696;;;;;406.8
637.0;578.9;;;;;;;;;;;;;;;;;-20.401623;27.417065;-3.5248878;;406.8
637.0;578.9;;;;;;;;;;;;;;-0.674398;0.8750267;-0.0026856288;;;;;406.8
637.0;578.9;;;;;;;;;;;;;;;;;-21.244698;26.242104;-3.0060732;;416.4
637.0;578.9;;;;;;;;;;;;;;-0.6681112;0.86074406;-0.0012817774;;;;;416.4
637.0;578.9;;;;;;;;;;;;;;;;;-21.626179;24.6704;-2.45674;;416.4
637.0;578.9;;;;;;;;;;;;;;-0.6600543;0.8448134;-0.0025635548;;;;;416.4
637.0;578.9;;;;;;;;;;;;;;;;;-21.633808;22.8164;-1.9264809;;425.9
637.0;578.9;;;;;;;;;;;;;;-0.6524247;0.8298593;-0.006408887;;;;;425.9
637.0;578.9;;;;;;;;;;;;;;;;;-21.465958;20.47029;-1.5030366;;425.9
637.0;578.9;;;;;;;;;;;;;;-0.64174324;0.81710255;-0.015503403;;;;;425.9
639.0;579.9;;;;;;;;;;;;;;;;;-20.943327;17.639698;-1.1940367;;435.5
639.0;579.9;;;;;;;;;;;;;;-0.62892544;0.8092898;-0.031067843;;;;;435.5
639.0;579.9;;;;;;;;;;;;;;;;;-20.325327;14.671774;-1.0414442;;435.5
639.0;579.9;;;;;;;;;;;;;;-0.61940366;0.7983032;-0.05658132;;;;;435.5
639.0;579.9;;;;;;;;;;;;;;;;;-19.966734;12.550736;-0.90411085;;445.1
639.0;579.9;;;;;;;;;;;;;;-0.61018705;0.78902555;-0.080568865;;;;;445.1
639.0;579.9;;;;;;;;;;;;;;;;;-19.474625;11.486403;-0.85833305;;445.1
639.0;579.9;;;;;;;;;;;;;;-0.6023743;0.77663505;-0.09820856;;;;;445.1
639.0;579.9;;;;;;;;;;;;;;;;;-19.028292;11.322367;-0.9155553;;454.8
639.0;579.9;;;;;;;;;;;;;;-0.58754236;0.77303386;-0.119327374;;;;;454.8
639.0;579.9;;;;;;;;;;;;;;;;;-18.902403;11.829738;-0.9804071;;454.8
639.0;579.9;;;;;;;;;;;;;;-0.57399213;0.7714469;-0.14007996;;;;;454.8
639.0;580.9;;;;;;;;;;;;;;;;;-19.096958;12.924589;-1.0528886;;464.3
639.0;580.9;;;;;;;;;;;;;;-0.55507064;0.77193516;-0.15912351;;;;;464.3
639.0;580.9;;;;;;;;;;;;;;;;;-19.394514;14.4543295;-1.1406293;;464.3
639.0;580.9;;;;;;;;;;;;;;-0.5365154;0.77101964;-0.17688528;;;;;464.3
639.0;580.9;;;;;;;;;;;;;;;;;-19.83703;16.426588;-1.2131108;;473.9
639.0;580.9;;;;;;;;;;;;;;-0.5211341;0.77010405;-0.19202246;;;;;473.9
639.0;580.9;;;;;;;;;;;;;;;;;-20.409252;18.684958;-1.3542589;;473.9
639.0;580.9;;;;;;;;;;;;;;-0.5108799;0.7636952;-0.20276497;;;;;473.9
639.0;580.9;;;;;;;;;;;;;;;;;-20.924253;20.977661;-1.5259255;;483.6
639.0;580.9;;;;;;;;;;;;;;-0.49818414;0.7565538;-0.20825832;;;;;483.6
639.0;580.9;;;;;;;;;;;;;;;;;-20.9624;23.529772;-1.7509995;;483.6
639.0;580.9;;;;;;;;;;;;;;-0.49305704;0.7498398;-0.2115543;;;;;483.6
695.0;581.7;;;;;;;;;;;;;;;;;-21.275217;25.894955;-2.1515548;;493.3
695.0;581.7;;;;;;;;;;;;;;-0.49147007;0.74330884;-0.20831935;;;;;493.3
695.0;581.7;;;;;;;;;;;;;;;;;-21.874142;28.035065;-2.750481;;493.3
695.0;581.7;;;;;;;;;;;;;;-0.4892117;0.73714405;-0.20368053;;;;;493.3
695.0;581.7;;;;;;;;;;;;;;;;;-22.82403;29.904325;-3.5592213;;502.8
695.0;581.7;;;;;;;;;;;;;;-0.49488816;0.73232216;-0.19476913;;;;;502.8
695.0;581.7;;;;;;;;;;;;;;;;;-23.960846;31.369213;-4.4557023;;502.8
695.0;581.7;;;;;;;;;;;;;;-0.5058748;0.7223731;-0.18305002;;;;;502.8
695.0;581.7;;;;;;;;;;;;;;;;;-24.55977;32.700584;-5.386517;;512.4
695.0;581.7;;;;;;;;;;;;;;-0.52290416;0.7191992;-0.17096469;;;;;512.4
695.0;581.7;;;;;;;;;;;;;;;;;-24.948881;33.635216;-6.221961;;512.4
695.0;581.7;;;;;;;;;;;;;;-0.54701376;0.72109133;-0.16278572;;;;;512.4
695.0;592.9;;;;;;;;;;;;;;;;;-25.570696;33.925137;-6.9277015;;522.1
695.0;592.9;;;;;;;;;;;;;;-0.5708792;0.7169408;-0.15454574;;;;;522.1
695.0;592.9;;;;;;;;;;;;;;;;;-26.020844;33.80688;-7.4694057;;522.1
695.0;592.9;;;;;;;;;;;;;;-0.5937681;0.71089816;-0.14612262;;;;;522.1
695.0;592.9;;;;;;;;;;;;;;;;;-25.925474;33.65429;-8.068331;;531.8
695.0;592.9;;;;;;;;;;;;;;-0.61690116;0.7061373;-0.14337596;;;;;531.8
695.0;592.9;;;;;;;;;;;;;;;;;-25.513474;33.9671;-8.648182;;531.8
695.0;592.9;;;;;;;;;;;;;;-0.6357005;0.7028413;-0.14349803;;;;;531.8
695.0;592.9;;;;;;;;;;;;;;;;;-25.17777;34.68047;-9.0487385;;541.5
695.0;592.9;;;;;;;;;;;;;;-0.654622;0.6986908;-0.13953063;;;;;541.5
695.0;592.9;;;;;;;;;;;;;;;;;-25.26551;35.370953;-9.266183;;541.5
695.0;592.9;;;;;;;;;;;;;;-0.67098;0.6931364;-0.12854396;;;;;541.5
757.0;638.1;;;;;;;;;;;;;;;;;-25.68514;35.93173;-9.304331;;550.9
757.0;638.1;;;;;;;;;;;;;;-0.6854457;0.6893521;-0.11883908;;;;;550.9
757.0;638.1;;;;;;;;;;;;;;;;;-26.409956;36.614582;-9.022035;;550.9
757.0;638.1;;;;;;;;;;;;;;-0.6936857;0.6883755;-0.12024293;;;;;550.9
757.0;638.1;;;;;;;;;;;;;;;;;-26.966919;37.568287;-8.3925905;;560.5
757.0;638.1;;;;;;;;;;;;;;-0.69521165;0.6977752;-0.12390515;;;;;560.5
757.0;638.1;;;;;;;;;;;;;;;;;-27.43614;38.258766;-7.37785;;560.5
757.0;638.1;;;;;;;;;;;;;;-0.6961272;0.71266824;-0.11963256;;;;;560.5
757.0;638.1;;;;;;;;;;;;;;;;;-27.687918;38.235878;-6.0960727;;570.0
757.0;638.1;;;;;;;;;;;;;;-0.69789726;0.7299417;-0.11481063;;;;;570.0
757.0;638.1;;;;;;;;;;;;;;;;;-28.111362;36.98462;-4.6006656;;570.0
757.0;638.1;;;;;;;;;;;;;;-0.70113224;0.74422437;-0.11835078;;;;;570.0
757.0;653.2;;;;;;;;;;;;;;;;;-28.588213;34.764397;-2.990814;;579.7
757.0;653.2;;;;;;;;;;;;;;-0.70479447;0.75539416;-0.13110752;;;;;579.7
757.0;653.2;;;;;;;;;;;;;;;;;-28.86288;32.265694;-1.2703329;;579.7
757.0;653.2;;;;;;;;;;;;;;-0.707358;0.76332897;-0.15051728;;;;;579.7
757.0;653.2;;;;;;;;;;;;;;;;;-27.93588;29.923399;0.32807398;;589.3
757.0;653.2;;;;;;;;;;;;;;-0.7115085;0.7718741;-0.17932676;;;;;589.3
757.0;653.2;;;;;;;;;;;;;;;;;-26.61214;27.657398;1.7891476;;589.3
757.0;653.2;;;;;;;;;;;;;;-0.71736807;0.7828608;-0.21179846;;;;;589.3
757.0;653.2;;;;;;;;;;;;;;;;;-25.456251;25.627918;3.173925;;599.0
757.0;653.2;;;;;;;;;;;;;;-0.7262795;0.7854854;-0.23633534;;;;;599.0
757.0;653.2;;;;;;;;;;;;;;;;;-24.647512;23.796808;4.402295;;599.0
757.0;653.2;;;;;;;;;;;;;;-0.7350688;0.78273875;-0.24658956;;;;;599.0
832.0;698.8;;;;;;;;;;;;;;;;;-23.83114;22.171696;5.645924;;608.7
832.0;698.8;;;;;;;;;;;;;;-0.7381817;0.7810297;-0.25495163;;;;;608.7
832.0;698.8;;;;;;;;;;;;;;;;;-23.97229;20.268105;6.6682944;;608.7
832.0;698.8;;;;;;;;;;;;;;-0.7473373;0.7855464;-0.24256112;;;;;608.7
832.0;698.8;;;;;;;;;;;;;;;;;-24.040956;18.360699;7.5189977;;618.4
832.0;698.8;;;;;;;;;;;;;;-0.7372051;0.7882931;-0.24536882;;;;;618.4
832.0;698.8;;;;;;;;;;;;;;;;;-23.358105;17.235327;8.41548;;618.4
832.0;698.8;;;;;;;;;;;;;;-0.7194433;0.80617696;-0.24213386;;;;;618.4
832.0;698.8;;;;;;;;;;;;;;;;;-25.055696;15.66744;9.338664;;628.1
832.0;698.8;;;;;;;;;;;;;;-0.687582;0.8172246;-0.23706779;;;;;628.1
832.0;698.8;;;;;;;;;;;;;;;;;-28.065584;14.500107;10.410626;;628.1
832.0;698.8;;;;;;;;;;;;;;-0.643025;0.8213752;-0.22461623;;;;;628.1
832.0;705.9;;;;;;;;;;;;;;;;;-30.827509;14.408551;11.627552;;637.6
832.0;705.9;;;;;;;;;;;;;;-0.60042113;0.82937104;-0.2200995;;;;;637.6
832.0;705.9;;;;;;;;;;;;;;;;;-33.024845;14.587848;12.909329;;637.6
832.0;705.9;;;;;;;;;;;;;;-0.55922115;0.8537248;-0.21893978;;;;;637.6
832.0;705.9;;;;;;;;;;;;;;;;;-35.878323;14.378033;14.133884;;647.3
832.0;705.9;;;;;;;;;;;;;;-0.51423687;0.87545395;-0.20978424;;;;;647.3
832.0;705.9;;;;;;;;;;;;;;;;;-38.72799;14.339885;14.873959;;647.3
832.0;705.9;;;;;;;;;;;;;;-0.47773674;0.89040804;-0.2029481;;;;;647.3
832.0;705.9;;;;;;;;;;;;;;;;;-41.02069;15.354625;15.411847;;656.9
832.0;705.9;;;;;;;;;;;;;;-0.45826593;0.89584035;-0.21411787;;;;;656.9
832.0;705.9;;;;;;;;;;;;;;;;;-43.137913;17.200994;15.659811;;656.9
832.0;705.9;;;;;;;;;;;;;;-0.4593646;0.88930935;-0.23163548;;;;;656.9
878.0;758.7;;;;;;;;;;;;;;;;;-45.33143;19.230476;15.709402;;666.6
878.0;758.7;;;;;;;;;;;;;;-0.4689474;0.87203586;-0.24011964;;;;;666.6
878.0;758.7;;;;;;;;;;;;;;;;;-46.98706;21.237068;15.66744;;666.6
878.0;758.7;;;;;;;;;;;;;;-0.48841822;0.85207677;-0.23120824;;;;;666.6
878.0;758.7;;;;;;;;;;;;;;;;;-47.887356;22.843103;15.4194765;;676.0
878.0;758.7;;;;;;;;;;;;;;-0.51814324;0.8318125;-0.22095402;;;;;676.0
878.0;758.7;;;;;;;;;;;;;;;;;-48.34895;23.834957;14.934996;;676.0
878.0;758.7;;;;;;;;;;;;;;-0.5551927;0.8060549;-0.22449416;;;;;676.0
878.0;758.7;;;;;;;;;;;;;;;;;-48.203987;24.456772;14.107181;;685.6
878.0;758.7;;;;;;;;;;;;;;-0.5977355;0.7705924;-0.22217475;;;;;685.6
878.0;758.7;;;;;;;;;;;;;;;;;-47.666096;24.922176;13.0047;;685.6
878.0;758.7;;;;;;;;;;;;;;-0.6385693;0.72817165;-0.21308023;;;;;685.6
878.0;766.2;;;;;;;;;;;;;;;;;-46.47206;24.811548;11.764886;;695.3
878.0;766.2;;;;;;;;;;;;;;-0.67812127;0.6801965;-0.19257179;;;;;695.3
878.0;766.2;;;;;;;;;;;;;;;;;-44.53032;23.728142;10.456405;;695.3
878.0;766.2;;;;;;;;;;;;;;-0.7136448;0.6344798;-0.17560351;;;;;695.3
878.0;766.2;;;;;;;;;;;;;;;;;-42.0011;21.614735;9.548479;;704.8
878.0;766.2;;;;;;;;;;;;;;-0.74471265;0.59688103;-0.16528825;;;;;704.8
878.0;766.2;;;;;;;;;;;;;;;;;-38.987396;18.482773;8.7397375;;704.8
878.0;766.2;;;;;;;;;;;;;;-0.77333903;0.56953645;-0.16431166;;;;;704.8
878.0;766.2;;;;;;;;;;;;;;;;;-35.634174;13.981292;8.148442;;714.5
878.0;766.2;;;;;;;;;;;;;;-0.79635;0.5479904;-0.15692617;;;;;714.5
878.0;766.2;;;;;;;;;;;;;;;;;-31.727806;8.48033;8.293406;;714.5
878.0;766.2;;;;;;;;;;;;;;-0.82149726;0.53456223;-0.14893033;;;;;714.5
936.0;819.3;;;;;;;;;;;;;;;;;-26.51677;2.5025177;8.835109;;724.1
936.0;819.3;;;;;;;;;;;;;;-0.84017456;0.5319376;-0.14050722;;;;;724.1
936.0;819.3;;;;;;;;;;;;;;;;;-20.867031;-3.711814;9.941404;;724.1
936.0;819.3;;;;;;;;;;;;;;-0.8536027;0.5362713;-0.13934751;;;;;724.1
936.0;819.3;;;;;;;;;;;;;;;;;-14.656514;-9.8155155;11.2384405;;733.7
936.0;819.3;;;;;;;;;;;;;;-0.86074406;0.55244607;-0.135197;;;;;733.7
936.0;819.3;;;;;;;;;;;;;;;;;-8.823664;-15.980255;joulu.57;;733.7
936.0;819.3;;;;;;;;;;;;;;-0.8562883;0.5802179;-0.13153477;;;;;733.7
936.0;819.3;;;;;;;;;;;;;;;;;-3.5096285;-21.580402;14.213996;;743.4
936.0;819.3;;;;;;;;;;;;;;-0.8387707;0.6148259;-0.12152471;;;;;743.4
936.0;819.3;;;;;;;;;;;;;;;;;0.84307384;-26.558733;15.67507;;743.4
936.0;819.3;;;;;;;;;;;;;;-0.8100833;0.65517133;-0.112125;;;;;743.4
936.0;833.9;;;;;;;;;;;;;;;;;4.4518876;-30.80462;16.811884;;753.1
936.0;833.9;;;;;;;;;;;;;;-0.77205724;0.69252604;-0.103518784;;;;;753.1
936.0;833.9;;;;;;;;;;;;;;;;;7.0574055;-34.440136;17.647327;;753.1
936.0;833.9;;;;;;;;;;;;;;-0.7322611;0.7256081;-0.09790338;;;;;753.1
936.0;833.9;;;;;;;;;;;;;;;;;8.6405525;-37.297436;18.257698;;762.8
936.0;833.9;;;;;;;;;;;;;;-0.6902676;0.7574694;-0.09588916;;;;;762.8
936.0;833.9;;;;;;;;;;;;;;;;;8.960998;-39.212467;18.444624;;762.8
936.0;833.9;;;;;;;;;;;;;;-0.65089875;0.78719443;-0.091250345;;;;;762.8
936.0;833.9;;;;;;;;;;;;;;;;;8.854182;-40.025024;18.32255;;772.3
936.0;833.9;;;;;;;;;;;;;;-0.62135684;0.8102054;-0.088930935;;;;;772.3
936.0;833.9;;;;;;;;;;;;;;;;;9.033479;-39.899136;17.93344;;772.3
936.0;833.9;;;;;;;;;;;;;;-0.59199804;0.83156836;-0.0971099;;;;;772.3
995.0;879.3;;;;;;;;;;;;;;;;;9.178442;-39.002655;17.39555;;782.0
995.0;879.3;;;;;;;;;;;;;;-0.57399213;0.8467666;-0.10382397;;;;;782.0
995.0;879.3;;;;;;;;;;;;;;;;;9.029664;-37.701805;16.743217;;782.0
995.0;879.3;;;;;;;;;;;;;;-0.5642262;0.85219884;-0.110415965;;;;;782.0
995.0;879.3;;;;;;;;;;;;;;;;;8.69396;-35.996582;16.247292;;791.6
995.0;879.3;;;;;;;;;;;;;;-0.5594653;0.84969634;-0.11651967;;;;;791.6
995.0;879.3;;;;;;;;;;;;;;;;;8.522293;-33.75729;16.052736;;791.6
995.0;879.3;;;;;;;;;;;;;;-0.565508;0.8388317;-0.12610248;;;;;791.6
995.0;879.3;;;;;;;;;;;;;;;;;8.426924;-31.262398;16.216774;;801.3
995.0;879.3;;;;;;;;;;;;;;-0.57777643;0.8265633;-0.13281655;;;;;801.3
995.0;879.3;;;;;;;;;;;;;;;;;7.717368;-29.107029;16.617329;;801.3
995.0;879.3;;;;;;;;;;;;;;-0.5896176;0.80581075;-0.13428144;;;;;801.3
995.0;886.7;;;;;;;;;;;;;;;;;6.7522206;-27.40562;17.113253;;810.9
995.0;886.7;;;;;;;;;;;;;;-0.6078066;0.7803583;-0.13226722;;;;;810.9
995.0;886.7;;;;;;;;;;;;;;;;;6.706443;-26.062807;17.826624;;810.9
995.0;886.7;;;;;;;;;;;;;;-0.62385935;0.7574694;-0.13361004;;;;;810.9
995.0;886.7;;;;;;;;;;;;;;;;;6.9086275;-25.05188;18.688772;;820.6
995.0;886.7;;;;;;;;;;;;;;-0.6483352;0.7424543;-0.13885921;;;;;820.6
995.0;886.7;;;;;;;;;;;;;;;;;6.8361464;-24.548326;19.600512;;820.6
995.0;886.7;;;;;;;;;;;;;;-0.6724448;0.7286599;-0.14123966;;;;;820.6
995.0;886.7;;;;;;;;;;;;;;;;;6.591998;-24.605549;20.619068;;830.2
995.0;886.7;;;;;;;;;;;;;;-0.6944792;0.71767324;-0.14300974;;;;;830.2
995.0;886.7;;;;;;;;;;;;;;;;;6.5195165;-25.276955;22.053438;;830.2
995.0;886.7;;;;;;;;;;;;;;-0.71498764;0.71468246;-0.14203314;;;;;830.2
1056.0;939.6;;;;;;;;;;;;;;;;;6.2562943;-26.593067;23.590809;;839.8
1056.0;939.6;;;;;;;;;;;;;;-0.727134;0.7086398;-0.14056826;;;;;839.8
1056.0;939.6;;;;;;;;;;;;;;;;;6.2791834;-28.191473;25.322733;;839.8
1056.0;939.6;;;;;;;;;;;;;;-0.7312845;0.7041841;-0.1431318;;;;;839.8
1056.0;939.6;;;;;;;;;;;;;;;;;6.6301465;-29.896696;27.25303;;849.4
1056.0;939.6;;;;;;;;;;;;;;-0.7268288;0.6964324;-0.14520706;;;;;849.4
1056.0;939.6;;;;;;;;;;;;;;;;;7.309183;-31.498917;29.213844;;849.4
1056.0;939.6;;;;;;;;;;;;;;-0.72011477;0.68813133;-0.14520706;;;;;849.4
1056.0;939.6;;;;;;;;;;;;;;;;;8.457442;-32.853176;30.999176;;858.9
1056.0;939.6;;;;;;;;;;;;;;-0.7174291;0.6778161;-0.14679404;;;;;858.9
1056.0;939.6;;;;;;;;;;;;;;;;;10.090182;-33.989986;32.532734;;858.9
1056.0;939.6;;;;;;;;;;;;;;-0.71932125;0.6695151;-0.15314189;;;;;858.9
1056.0;940.8;;;;;;;;;;;;;;;;;11.940367;-35.53499;33.692436;;868.5
1056.0;940.8;;;;;;;;;;;;;;-0.7279275;0.65596485;-0.15155491;;;;;868.5
1056.0;940.8;;;;;;;;;;;;;;;;;13.748589;-37.53777;34.45158;;868.5
1056.0;940.8;;;;;;;;;;;;;;-0.7368999;0.6471755;-0.14795373;;;;;868.5
1056.0;940.8;;;;;;;;;;;;;;;;;15.850552;-39.803764;34.962765;;878.1
1056.0;940.8;;;;;;;;;;;;;;-0.746971;0.641438;-0.14941862;;;;;878.1
1056.0;940.8;;;;;;;;;;;;;;;;;18.24244;-41.428875;35.19547;;878.1
1056.0;940.8;;;;;;;;;;;;;;-0.76076543;0.64424574;-0.16260262;;;;;878.1
1056.0;940.8;;;;;;;;;;;;;;;;;20.474104;-42.851803;35.302284;;887.8
1056.0;940.8;;;;;;;;;;;;;;-0.77877134;0.64113283;-0.16992706;;;;;887.8
1056.0;940.8;;;;;;;;;;;;;;;;;22.43492;-44.69054;35.557877;;887.8
1056.0;940.8;;;;;;;;;;;;;;-0.791406;0.6333811;-0.16632588;;;;;887.8
1116.0;999.7;;;;;;;;;;;;;;;;;23.987549;-46.82684;35.855434;;897.4
1116.0;999.7;;;;;;;;;;;;;;-0.79592276;0.6244087;-0.15808588;;;;;897.4
1116.0;999.7;;;;;;;;;;;;;;;;;25.524918;-49.447617;36.40095;;897.4
1116.0;999.7;;;;;;;;;;;;;;-0.7932371;0.6159856;-0.15540025;;;;;897.4
1116.0;999.7;;;;;;;;;;;;;;;;;27.020327;-52.26676;37.07236;;906.8
1116.0;999.7;;;;;;;;;;;;;;-0.78377634;0.6118961;-0.16113773;;;;;906.8
1116.0;999.7;;;;;;;;;;;;;;;;;28.214361;-54.91424;37.854397;;906.8
1116.0;999.7;;;;;;;;;;;;;;-0.77407146;0.60640275;-0.16498306;;;;;906.8
1116.0;999.7;;;;;;;;;;;;;;;;;29.694511;-57.676167;38.731804;;916.4
1116.0;999.7;;;;;;;;;;;;;;-0.7660756;0.60805076;-0.17096469;;;;;916.4
1116.0;999.7;;;;;;;;;;;;;;;;;31.594288;-60.480053;39.57869;;916.4
1116.0;999.7;;;;;;;;;;;;;;-0.76741844;0.61238444;-0.17596972;;;;;916.4
1116.0;1000.6;;;;;;;;;;;;;;;;;34.12351;-63.562424;40.32258;;926.1
1116.0;1000.6;;;;;;;;;;;;;;-0.7693106;0.62263864;-0.17780083;;;;;926.1
1116.0;1000.6;;;;;;;;;;;;;;;;;37.068546;-67.3925;41.104618;;926.1
1116.0;1000.6;;;;;;;;;;;;;;-0.77700126;0.6319773;-0.16418958;;;;;926.1
1116.0;1000.6;;;;;;;;;;;;;;;;;39.540543;-71.86727;42.08884;;935.8
1116.0;1000.6;;;;;;;;;;;;;;-0.7820673;0.6355174;-0.1589404;;;;;935.8
1116.0;1000.6;;;;;;;;;;;;;;;;;41.947693;-76.31154;43.233284;;935.8
1116.0;1000.6;;;;;;;;;;;;;;-0.78212833;0.63020724;-0.17407759;;;;;935.8
1116.0;1000.6;;;;;;;;;;;;;;;;;43.866543;-80.44297;44.52269;;945.4
1116.0;1000.6;;;;;;;;;;;;;;-0.7801141;0.61812186;-0.20496231;;;;;945.4
1116.0;1000.6;;;;;;;;;;;;;;;;;46.182133;-84.0289;45.960876;;945.4
1116.0;1000.6;;;;;;;;;;;;;;-0.76491594;0.59859;-0.23804438;;;;;945.4
1175.0;1060.1;;;;;;;;;;;;;;;;;49.19584;-87.0655;47.173985;;955.1
1175.0;1060.1;;;;;;;;;;;;;;-0.7467269;0.5813776;-0.25727102;;;;;955.1
1175.0;1060.1;;;;;;;;;;;;;;;;;52.381207;-90.09064;48.036137;;955.1
1175.0;1060.1;;;;;;;;;;;;;;-0.73018587;0.5757622;-0.2609943;;;;;955.1
1175.0;1060.1;;;;;;;;;;;;;;;;;55.04013;-92.913605;48.623615;;964.6
1175.0;1060.1;;;;;;;;;;;;;;-0.70839566;0.5755181;-0.26819667;;;;;964.6
1175.0;1060.1;;;;;;;;;;;;;;;;;57.489243;-94.836266;48.844875;;964.6
1175.0;1060.1;;;;;;;;;;;;;;-0.69832456;0.5885189;-0.28315073;;;;;964.6
1175.0;1060.1;;;;;;;;;;;;;;;;;59.564503;-95.69842;48.95169;;974.3
1175.0;1060.1;;;;;;;;;;;;;;-0.69606614;0.60444957;-0.3088473;;;;;974.3
1175.0;1060.1;;;;;;;;;;;;;;;;;60.693684;-95.76327;49.35606;;974.3
1175.0;1060.1;;;;;;;;;;;;;;-0.6994232;0.6169622;-0.33399457;;;;;974.3
1175.0;1061.3;;;;;;;;;;;;;;;;;61.68172;-95.34364;50.153355;;983.9
1175.0;1061.3;;;;;;;;;;;;;;-0.6980193;0.6266671;-0.356151;;;;;983.9
1175.0;1061.3;;;;;;;;;;;;;;;;;62.566757;-95.1529;51.34358;;983.9
1175.0;1061.3;;;;;;;;;;;;;;-0.6872158;0.6308786;-0.36896878;;;;;983.9
1175.0;1061.3;;;;;;;;;;;;;;;;;63.295387;-95.34364;52.46132;;993.6
1175.0;1061.3;;;;;;;;;;;;;;-0.6692099;0.6259346;-0.37659842;;;;;993.6
1175.0;1061.3;;;;;;;;;;;;;;;;;64.31013;-95.965454;53.376873;;993.6
1175.0;1061.3;;;;;;;;;;;;;;-0.6416822;0.62153995;-0.3673818;;;;;993.6
1175.0;1061.3;;;;;;;;;;;;;;;;;65.26383;-96.48045;53.930023;;1003.2
1175.0;1061.3;;;;;;;;;;;;;;-0.61458176;0.6222114;-0.35340434;;;;;1003.2
1175.0;1061.3;;;;;;;;;;;;;;;;;65.519424;-96.236305;54.048283;;1003.2
1175.0;1061.3;;;;;;;;;;;;;;-0.59279156;0.62465286;-0.3378399;;;;;1003.2
1176.0;1120.6;;;;;;;;;;;;;;;;;65.34776;-95.11857;53.559986;;1012.9
1176.0;1120.6;;;;;;;;;;;;;;-0.57350385;0.6383862;-0.32520524;;;;;1012.9
1176.0;1120.6;;;;;;;;;;;;;;;;;64.52757;-93.23023;52.648243;;1012.9
1176.0;1120.6;;;;;;;;;;;;;;-0.55739003;0.6609088;-0.31177709;;;;;1012.9
1176.0;1120.6;;;;;;;;;;;;;;;;;62.944427;-91.10538;51.713615;;1022.5
1176.0;1120.6;;;;;;;;;;;;;;-0.53706473;0.6847133;-0.30182806;;;;;1022.5
1176.0;1120.6;;;;;;;;;;;;;;;;;61.105686;-89.19797;50.67217;;1022.5
1176.0;1120.6;;;;;;;;;;;;;;-0.5211341;0.70888394;-0.2921842;;;;;1022.5
1176.0;1120.6;;;;;;;;;;;;;;;;;58.86639;-87.72164;49.726093;;1032.1
1176.0;1120.6;;;;;;;;;;;;;;-0.5031282;0.7248756;-0.27881712;;;;;1032.1
1176.0;1120.6;;;;;;;;;;;;;;;;;57.19169;-86.18809;48.574024;;1032.1
1176.0;1120.6;;;;;;;;;;;;;;-0.48396254;0.74184394;-0.26514482;;;;;1032.1
1179.0;1121.4;;;;;;;;;;;;;;;;;55.345314;-84.62783;47.490616;;1041.7
1179.0;1121.4;;;;;;;;;;;;;;-0.46925262;0.76149786;-0.24921414;;;;;1041.7
1179.0;1121.4;;;;;;;;;;;;;;;;;53.212837;-83.07138;46.39958;;1041.7
1179.0;1121.4;;;;;;;;;;;;;;-0.45234534;0.7790765;-0.23651844;;;;;1041.7
1179.0;1121.4;;;;;;;;;;;;;;;;;51.33595;-81.4272;45.2208;;1051.3
1179.0;1121.4;;;;;;;;;;;;;;-0.44361705;0.79744864;-0.2283395;;;;;1051.3
1179.0;1121.4;;;;;;;;;;;;;;;;;50.01602;-79.64186;44.152657;;1051.3
1179.0;1121.4;;;;;;;;;;;;;;-0.42994475;0.8108768;-0.23108615;;;;;1051.3
1179.0;1121.4;;;;;;;;;;;;;;;;;48.5168;-77.48268;43.019653;;1061.0
1179.0;1121.4;;;;;;;;;;;;;;-0.41651663;0.81966615;-0.2329783;;;;;1061.0
1179.0;1121.4;;;;;;;;;;;;;;;;;46.689503;-75.36928;41.96295;;1061.0
1179.0;1121.4;;;;;;;;;;;;;;-0.403943;0.81405073;-0.23218483;;;;;1061.0
1179.0;1129.0;;;;0.0;0.0;0.0;;;;;;;;;;;;;;;
1179.0;1129.0;;;;-0.12735368;0.3509331;0.16759492;;;;;;;;;;;;;;;
1179.0;1129.0;;;;-0.36447528;1.0241586;0.41850287;;;;;;;;;;;;;;;
1179.0;1129.0;;;;-0.36182025;1.0443231;0.4145661;;;;;;;;;;;;;;;
1179.0;1129.0;;;;-0.35277942;1.0435144;0.41432196;;;;;;;;;;;;;;;
1179.0;1139.0;;;;-0.34182742;1.0383645;0.41455466;;;;;;;;;;;;;;;
1179.0;1139.0;;;;-0.3299065;1.0336114;0.41668707;;;;;;;;;;;;;;;
1179.0;1139.0;;;;-0.31702045;1.0300599;0.41711432;;;;;;;;;;;;;;;
1179.0;1139.0;;;;-0.30385593;1.0266;0.41807562;;;;;;;;;;;;;;;
1179.0;1139.0;;;;-0.28951648;1.026249;0.41746145;;;;;;;;;;;;;;;
1234.0;1140.4;57461;57400;12510;;;;;;;;;;;;;;;;;;
1234.0;1148.9;;;;-0.27450183;1.0268899;0.4159661;;;;;;;;;;;;;;;
1234.0;1148.9;;;;-0.2605858;1.028;0.41653067;;;;;;;;;;;;;;;
1234.0;1148.9;;;;-0.24730685;1.0315553;0.41620642;;;;;;;;;;;;;;;
1234.0;1148.9;;;;-0.23612598;1.037388;0.41603857;;;;;;;;;;;;;;;
1234.0;1148.9;;;;-0.22708896;1.0426942;0.41725546;;;;;;;;;;;;;;;
1234.0;1159.0;;;;-0.21977237;1.0462877;0.41692358;;;;;;;;;;;;;;;
1234.0;1159.0;;;;-0.21323398;1.0545884;0.41775137;;;;;;;;;;;;;;;
1234.0;1159.0;;;;-0.20528796;1.066147;0.42167288;;;;;;;;;;;;;;;
1234.0;1159.0;;;;-0.19982532;1.0761567;0.42179495;;;;;;;;;;;;;;;
1234.0;1159.0;;;;-0.19544986;1.0884324;0.41954428;;;;;;;;;;;;;;;
1234.0;1160.5;73824;73855;12498;;;;;;;;;;;;;;;;;;
1234.0;1166.7;;;;;;;;;;;;;0;;;;;;;;
1234.0;1166.7;;;;;;;;;;;;;0;;;;;;;;
1234.0;1166.7;;;;;;;;;;;;;-1;;;;;;;;
1234.0;1166.7;;;;;;;;;;;;;-2;;;;;;;;
1234.0;1166.7;;;;;;;;;;;;;-3;;;;;;;;
1234.0;1169.2;;;;-0.19252017;1.1037408;0.4153977;;;;;;;;;;;;;;;
1234.0;1169.2;;;;-0.18955234;1.1199571;0.41544348;;;;;;;;;;;;;;;
1234.0;1169.2;;;;-0.18585588;1.1355287;0.41717917;;;;;;;;;;;;;;;
1234.0;1169.2;;;;-0.18095781;1.150818;0.41707236;;;;;;;;;;;;;;;
1234.0;1169.2;;;;-0.1814728;1.1659356;0.4139138;;;;;;;;;;;;;;;
1235.0;1179.3;;;;-0.1835251;1.1820947;0.4140244;;;;;;;;;;;;;;;
1235.0;1179.3;;;;-0.18431856;1.199238;0.41352087;;;;;;;;;;;;;;;
1235.0;1179.3;;;;-0.18482591;1.2178613;0.4138108;;;;;;;;;;;;;;;
1235.0;1179.3;;;;-0.18344499;1.2385942;0.41566092;;;;;;;;;;;;;;;
1235.0;1179.3;;;;-0.18282701;1.2586328;0.41711813;;;;;;;;;;;;;;;
1235.0;1180.9;;;;;;;;;;;;;;;;;44.686726;-73.370316;40.91006;;1070.7
1235.0;1180.9;;;;;;;;;;;;;;-0.4009522;0.8047731;-0.23371075;;;;;1070.7
1235.0;1180.9;;;;;;;;;;;;;;;;;43.599506;-71.44383;39.609207;;1070.7
1235.0;1180.9;;;;;;;;;;;;;;-0.4043092;0.7943968;-0.2501297;;;;;1070.7
1235.0;1180.9;;;;;;;;;;;;;;;;;42.84799;-69.25413;38.384655;;1080.3
1235.0;1180.9;;;;;;;;;;;;;;-0.420423;0.77950376;-0.27509385;;;;;1080.3
1235.0;1180.9;;;;;;;;;;;;;;;;;42.35969;-67.33147;36.965546;;1080.3
1235.0;1180.9;;;;;;;;;;;;;;-0.45258948;0.76418346;-0.2985931;;;;;1080.3
1235.0;1180.9;;;;;;;;;;;;;;;;;41.974396;-65.79791;35.447247;;1090.1
1235.0;1180.9;;;;;;;;;;;;;;-0.4975738;0.75319684;-0.3197119;;;;;1090.1
1235.0;1180.9;;;;;;;;;;;;;;;;;42.73736;-64.3025;33.623768;;1090.1
1235.0;1180.9;;;;;;;;;;;;;;-0.55207986;0.7467269;-0.35474715;;;;;1090.1
1235.0;1180.7;90246;90225;12495;;;;;;;;;;;;;;;;;;
1295.0;1188.3;;;;;;;;;;;;;;;;;43.698692;-62.98639;31.655323;;1099.7
1295.0;1188.3;;;;;;;;;;;;;;-0.60982084;0.74037904;-0.37617114;;;;;1099.7
1295.0;1188.3;;;;;;;;;;;;;;;;;42.97769;-62.704094;29.808954;;1099.7
1295.0;1188.3;;;;;;;;;;;;;;-0.66371655;0.7317118;-0.38544878;;;;;1099.7
1295.0;1188.3;;;;;;;;;;;;;;;;;41.184727;-63.352608;27.665028;;1109.4
1295.0;1188.3;;;;;;;;;;;;;;-0.7152928;0.73049104;-0.3767205;;;;;1109.4
1295.0;1188.3;;;;;;;;;;;;;;;;;38.724174;-64.79842;25.19303;;1109.4
1295.0;1188.3;;;;;;;;;;;;;;-0.78145695;0.74153876;-0.36573383;;;;;1109.4
1295.0;1188.3;;;;;;;;;;;;;;;;;36.965546;-66.72491;22.328104;;1118.9
1295.0;1188.3;;;;;;;;;;;;;;-0.8637959;0.7662587;-0.36066774;;;;;1118.9
1295.0;1188.3;;;;;;;;;;;;;;;;;35.485397;-69.50972;19.680622;;1118.9
1295.0;1188.3;;;;;;;;;;;;;;-0.9450362;0.80074465;-0.36634418;;;;;1118.9
1295.0;1189.1;;;;-0.18804553;1.2783242;0.41634756;;;;;;;;;;;;;;;
1295.0;1189.1;;;;-0.19658664;1.2991372;0.41497427;;;;;;;;;;;;;;;
1295.0;1189.1;;;;-0.20409778;1.316929;0.41617972;;;;;;;;;;;;;;;
1295.0;1189.1;;;;-0.20591357;1.3305398;0.4229012;;;;;;;;;;;;;;;
1295.0;1189.1;;;;-0.20386127;1.343239;0.4291535;;;;;;;;;;;;;;;
1295.0;1199.1;;;;-0.20389941;1.3555452;0.43298727;;;;;;;;;;;;;;;
1295.0;1199.1;;;;-0.20507815;1.3673517;0.4369393;;;;;;;;;;;;;;;
1295.0;1199.1;;;;-0.20661929;1.3793756;0.4435311;;;;;;;;;;;;;;;
1295.0;1199.1;;;;-0.20688632;1.3905259;0.45211416;;;;;;;;;;;;;;;
1295.0;1199.1;;;;-0.20854571;1.3993303;0.4610482;;;;;;;;;;;;;;;
1295.0;1200.7;106612;106664;12510;;;;;;;;;;;;;;;;;;
1297.0;1206.8;;;;;;;;;;;;;-4;;;;;;;;
1297.0;1206.8;;;;;;;;;;;;;-7;;;;;;;;
1297.0;1206.8;;;;;;;;;;;;;-10;;;;;;;;
1297.0;1206.8;;;;;;;;;;;;;-9;;;;;;;;
1297.0;1206.8;;;;;;;;;;;;;-14;;;;;;;;
1297.0;1209.2;;;;-0.21390155;1.4078637;0.46984106;;;;;;;;;;;;;;;
1297.0;1209.2;;;;-0.22008517;1.4174272;0.47852713;;;;;;;;;;;;;;;
1297.0;1209.2;;;;-0.2258797;1.4235727;0.48661047;;;;;;;;;;;;;;;
1297.0;1209.2;;;;-0.22903827;1.4278871;0.49708563;;;;;;;;;;;;;;;
1297.0;1209.2;;;;-0.23188403;1.4295732;0.5051003;;;;;;;;;;;;;;;
1297.0;1219.3;;;;-0.23420718;1.4296495;0.511612;;;;;;;;;;;;;;;
1297.0;1219.3;;;;-0.23487857;1.4296762;0.5164719;;;;;;;;;;;;;;;
1297.0;1219.3;;;;-0.23822787;1.4335023;0.52089316;;;;;;;;;;;;;;;
1297.0;1219.3;;;;-0.24335864;1.4387857;0.52510077;;;;;;;;;;;;;;;
1297.0;1219.3;;;;-0.2503319;1.4427797;0.52911764;;;;;;;;;;;;;;;
1297.0;1220.9;123039;123056;12513;;;;;;;;;;;;;;;;;;
1297.0;1229.4;;;;-0.2539139;1.4430925;0.5333596;;;;;;;;;;;;;;;
1297.0;1229.4;;;;-0.25971225;1.4409944;0.53480154;;;;;;;;;;;;;;;
1297.0;1229.4;;;;-0.26567462;1.438656;0.53480154;;;;;;;;;;;;;;;
1297.0;1229.4;;;;-0.2689629;1.4377366;0.5341492;;;;;;;;;;;;;;;
1297.0;1229.4;;;;-0.27198794;1.4374658;0.5310746;;;;;;;;;;;;;;;
1299.0;1239.5;;;;-0.27590182;1.4353639;0.52592856;;;;;;;;;;;;;;;
1299.0;1239.5;;;;-0.2813225;1.4343072;0.5182038;;;;;;;;;;;;;;;
1299.0;1239.5;;;;-0.2873955;1.433777;0.50894934;;;;;;;;;;;;;;;
1299.0;1239.5;;;;-0.2896805;1.4306489;0.49882895;;;;;;;;;;;;;;;
1299.0;1239.5;;;;-0.28655627;1.4252893;0.48805243;;;;;;;;;;;;;;;
1299.0;1241.8;;;;;;;;;;;;;;;;;34.745323;-72.92398;17.612995;;1128.6
1299.0;1241.8;;;;;;;;;;;;;;-0.99880975;0.84707177;-0.3658559;;;;;1128.6
1299.0;1241.8;;;;;;;;;;;;;;;;;33.463547;-77.86417;16.090885;;1128.6
1299.0;1241.8;;;;;;;;;;;;;;-1.0213324;0.89437544;-0.3342387;;;;;1128.6
1299.0;1241.8;;;;;;;;;;;;;;;;;32.208473;-83.86487;14.275033;;1138.3
1299.0;1241.8;;;;;;;;;;;;;;-1.0063784;0.9274575;-0.28852198;;;;;1138.3
1299.0;1241.8;;;;;;;;;;;;;;;;;32.883694;-89.34675;11.341441;;1138.3
1299.0;1241.8;;;;;;;;;;;;;;-0.98159736;0.9631031;-0.24872585;;;;;1138.3
1299.0;1241.8;;;;;;;;;;;;;;;;;34.081543;-94.271675;7.1031833;;1147.9
1299.0;1241.8;;;;;;;;;;;;;;-0.97323525;0.9756768;-0.23877682;;;;;1147.9
1299.0;1241.8;;;;;;;;;;;;;;;;;35.641804;-97.32735;1.1558886;;1147.9
1299.0;1241.8;;;;;;;;;;;;;;-0.990936;0.97775203;-0.2417066;;;;;1147.9
1299.0;1241.1;139394;139402;12522;;;;;;;;;;;;;;;;;;
1300.0;1242.5;;;;;;;;;;;;;;;;;37.133396;-99.16226;-5.6382947;;1157.6
1300.0;1242.5;;;;;;;;;;;;;;-0.9953307;0.95815915;-0.25659963;;;;;1157.6
1300.0;1242.5;;;;;;;;;;;;;;;;;38.32362;-99.295784;-12.844478;;1157.6
1300.0;1242.5;;;;;;;;;;;;;;-0.99679554;0.9211707;-0.26343578;;;;;1157.6
1300.0;1242.5;;;;;;;;;;;;;;;;;39.29258;-98.50993;-20.76403;;1167.3
1300.0;1242.5;;;;;;;;;;;;;;-1.0076602;0.9010895;-0.24475844;;;;;1167.3
1300.0;1242.5;;;;;;;;;;;;;;;;;40.509506;-97.29683;-28.97351;;1167.3
1300.0;1242.5;;;;;;;;;;;;;;-1.0084536;0.8713645;-0.2557451;;;;;1167.3
1300.0;1242.5;;;;;;;;;;;;;;;;;43.67199;-94.9202;-37.923065;;1177.0
1300.0;1242.5;;;;;;;;;;;;;;-0.9968566;0.8537858;-0.27692497;;;;;1177.0
1300.0;1242.5;;;;;;;;;;;;;;;;;45.838802;-92.93649;-47.414318;;1177.0
1300.0;1242.5;;;;;;;;;;;;;;-0.96926785;0.8105106;-0.31214333;;;;;1177.0
1300.0;1247.2;;;;;;;;;;;;;-14;;;;;;;;
1300.0;1247.2;;;;;;;;;;;;;-14;;;;;;;;
1300.0;1247.2;;;;;;;;;;;;;-21;;;;;;;;
1300.0;1247.2;;;;;;;;;;;;;-13;;;;;;;;
1300.0;1247.2;;;;;;;;;;;;;-15;;;;;;;;
1300.0;1249.4;;;;-0.28065875;1.4176637;0.4761582;;;;;;;;;;;;;;;
1300.0;1249.4;;;;-0.2746468;1.4092408;0.46362692;;;;;;;;;;;;;;;
1300.0;1249.4;;;;-0.26845554;1.3977739;0.45142752;;;;;;;;;;;;;;;
1300.0;1249.4;;;;-0.26463702;1.3823167;0.43726736;;;;;;;;;;;;;;;
1300.0;1249.4;;;;-0.26462558;1.361889;0.4194451;;;;;;;;;;;;;;;
1355.0;1259.4;;;;-0.26493457;1.3392946;0.39902884;;;;;;;;;;;;;;;
1355.0;1259.4;;;;-0.26428607;1.3129655;0.37813956;;;;;;;;;;;;;;;
1355.0;1259.4;;;;-0.2628365;1.2854539;0.3580437;;;;;;;;;;;;;;;
1355.0;1259.4;;;;-0.26239017;1.2580453;0.33797458;;;;;;;;;;;;;;;
1355.0;1259.4;;;;-0.2636185;1.2295495;0.31665424;;;;;;;;;;;;;;;
1355.0;1261.1;155847;155797;12528;;;;;;;;;;;;;;;;;;
1355.0;1269.3;;;;-0.2664223;1.2013665;0.29607394;;;;;;;;;;;;;;;
1355.0;1269.3;;;;-0.2696686;1.1737748;0.27567294;;;;;;;;;;;;;;;
1355.0;1269.3;;;;-0.27207568;1.1461488;0.2566376;;;;;;;;;;;;;;;
1355.0;1269.3;;;;-0.27351;1.1184083;0.23809817;;;;;;;;;;;;;;;
1355.0;1269.3;;;;-0.274807;1.0907403;0.22038653;;;;;;;;;;;;;;;
1355.0;1279.3;;;;-0.27685168;1.0628396;0.20188525;;;;;;;;;;;;;;;
1355.0;1279.3;;;;-0.28000262;1.0343667;0.18419267;;;;;;;;;;;;;;;
1355.0;1279.3;;;;-0.2844353;1.0060922;0.1679764;;;;;;;;;;;;;;;
1355.0;1279.3;;;;-0.29000095;0.97833264;0.15211488;;;;;;;;;;;;;;;
1355.0;1279.3;;;;-0.2955704;0.9524194;0.13685991;;;;;;;;;;;;;;;
1355.0;1281.0;172122;172144;12556;;;;;;;;;;;;;;;;;;
1355.0;1287.2;;;;;;;;;;;;;-45;;;;;;;;
1355.0;1287.2;;;;;;;;;;;;;-37;;;;;;;;
1355.0;1287.2;;;;;;;;;;;;;21;;;;;;;;
1355.0;1287.2;;;;;;;;;;;;;0;;;;;;;;
1355.0;1287.2;;;;;;;;;;;;;-252;;;;;;;;
1357.0;1289.4;;;;-0.29913333;0.9292222;0.12551881;;;;;;;;;;;;;;;
1357.0;1289.4;;;;-0.299099;0.9093782;0.11457063;;;;;;;;;;;;;;;
1357.0;1289.4;;;;-0.2981415;0.89055264;0.10425569;;;;;;;;;;;;;;;
1357.0;1289.4;;;;-0.29985812;0.8711778;0.0940056;;;;;;;;;;;;;;;
1357.0;1289.4;;;;-0.3017502;0.853943;0.08573533;;;;;;;;;;;;;;;
1357.0;1299.5;;;;-0.30424884;0.8399011;0.07697297;;;;;;;;;;;;;;;
1357.0;1299.5;;;;-0.30830768;0.8287431;0.069091804;;;;;;;;;;;;;;;
1357.0;1299.5;;;;-0.30588153;0.8221055;0.063407905;;;;;;;;;;;;;;;
1357.0;1299.5;;;;-0.30370715;0.8175241;0.057956703;;;;;;;;;;;;;;;
1357.0;1299.5;;;;-0.30190662;0.815323;0.05150605;;;;;;;;;;;;;;;
1357.0;1301.3;188586;188601;12553;;;;;;;;;;;;;;;;;;
1357.0;1309.0;;;;;;;;;;;;;;;;;47.55547;-90.735344;-57.069614;;1186.5
1357.0;1309.0;;;;;;;;;;;;;;-0.9471114;0.76021606;-0.3389996;;;;;1186.5
1357.0;1309.0;;;;;;;;;;;;;;;;;48.45195;-89.163635;-66.682945;;1186.5
1357.0;1309.0;;;;;;;;;;;;;;-0.9496139;0.7078463;-0.32502213;;;;;1186.5
1357.0;1309.0;;;;;;;;;;;;;;;;;48.89447;-88.08024;-75.78127;;1196.2
1357.0;1309.0;;;;;;;;;;;;;;-0.9450972;0.64546645;-0.29755548;;;;;1196.2
1357.0;1309.0;;;;;;;;;;;;;;;;;51.019318;-86.40172;-85.02838;;1196.2
1357.0;1309.0;;;;;;;;;;;;;;-0.9519333;0.6089053;-0.28620258;;;;;1196.2
1357.0;1309.0;;;;;;;;;;;;;;;;;54.10169;-84.04416;-93.84823;;1205.8
1357.0;1309.0;;;;;;;;;;;;;;-0.9526658;0.5757012;-0.28437147;;;;;1205.8
1357.0;1309.0;;;;;;;;;;;;;;;;;55.234684;-82.6899;-102.59941;;1205.8
1357.0;1309.0;;;;;;;;;;;;;;-0.9526658;0.55024874;-0.24872585;;;;;1205.8
1358.0;1309.5;;;;-0.29999545;0.8153726;0.046318058;;;;;;;;;;;;;;;
1358.0;1309.5;;;;-0.29928592;0.8173219;0.04182053;;;;;;;;;;;;;;;
1358.0;1309.5;;;;-0.29794696;0.81873715;0.036357883;;;;;;;;;;;;;;;
1358.0;1309.5;;;;-0.29669192;0.82193005;0.03169251;;;;;;;;;;;;;;;
1358.0;1309.5;;;;-0.2947655;0.82678616;0.027122501;;;;;;;;;;;;;;;
1358.0;1309.8;;;;;;;;;;;;;;;;;54.124577;-83.73516;-109.714035;;1215.5
1358.0;1309.8;;;;;;;;;;;;;;-0.9443648;0.53151035;-0.19122899;;;;;1215.5
1358.0;1309.8;;;;;;;;;;;;;;;;;52.648243;-85.68072;-115.600296;;1215.5
1358.0;1309.8;;;;;;;;;;;;;;-0.9270913;0.53315836;-0.12408826;;;;;1215.5
1358.0;1309.8;;;;;;;;;;;;;;;;;53.491318;-87.08839;-121.30726;;1225.2
1358.0;1309.8;;;;;;;;;;;;;;-0.91036713;0.55439925;-0.06537065;;;;;1225.2
1358.0;1309.8;;;;;;;;;;;;;;;;;57.958466;-87.691124;-124.53841;;1225.2
1358.0;1309.8;;;;;;;;;;;;;;-0.8768578;0.6153142;-0.015198218;;;;;1225.2
1358.0;1309.8;;;;;;;;;;;;;;;;;62.51335;-89.606155;-124.988556;;1234.8
1358.0;1309.8;;;;;;;;;;;;;;-0.8313242;0.6801965;0.015625477;;;;;1234.8
1358.0;1309.8;;;;;;;;;;;;;;;;;64.82132;-90.43397;-124.988556;;1234.8
1358.0;1309.8;;;;;;;;;;;;;;-0.79067355;0.7678457;0.04425184;;;;;1234.8
1416.0;1316.8;;;;;;;;;;;;;;;;;69.82635;-91.66234;-124.988556;;1244.4
1416.0;1316.8;;;;;;;;;;;;;;-0.76796776;0.89132357;0.05529954;;;;;1244.4
1416.0;1316.8;;;;;;;;;;;;;;;;;73.793755;-89.58327;-124.988556;;1244.4
1416.0;1316.8;;;;;;;;;;;;;;-0.7514878;1.0529497;0.049806207;;;;;1244.4
1416.0;1316.8;;;;;;;;;;;;;;;;;74.0112;-86.34068;-124.988556;;1254.0
1416.0;1316.8;;;;;;;;;;;;;;-0.73213905;1.2325206;0.046815395;;;;;1254.0
1416.0;1316.8;;;;;;;;;;;;;;;;;66.79739;-87.79794;-124.988556;;1254.0
1416.0;1316.8;;;;;;;;;;;;;;-0.71877193;1.3957945;-0.06280709;;;;;1254.0
1416.0;1316.8;;;;;;;;;;;;;;;;;60.972164;-88.4312;-124.988556;;1263.7
1416.0;1316.8;;;;;;;;;;;;;;-0.6789758;1.5109714;-0.24414808;;;;;1263.7
1416.0;1316.8;;;;;;;;;;;;;;;;;57.229836;-82.76238;-124.988556;;1263.7
1416.0;1316.8;;;;;;;;;;;;;;-0.626545;1.5741447;-0.38343456;;;;;1263.7
1416.0;1319.3;;;;-0.29159167;0.83335125;0.024070743;;;;;;;;;;;;;;;
1416.0;1319.3;;;;-0.28816608;0.83853924;0.020984652;;;;;;;;;;;;;;;
1416.0;1319.3;;;;-0.28408054;0.84334576;0.019031527;;;;;;;;;;;;;;;
1416.0;1319.3;;;;-0.28240588;0.8480722;0.016178133;;;;;;;;;;;;;;;
1416.0;1319.3;;;;-0.27987674;0.8535615;0.01495743;;;;;;;;;;;;;;;
1416.0;1321.2;204977;204914;12561;;;;;;;;;;;;;;;;;;
1416.0;1327.3;;;;;;;;;;;;;-700;;;;;;;;
1416.0;1327.3;;;;;;;;;;;;;-1081;;;;;;;;
1416.0;1327.3;;;;;;;;;;;;;-1251;;;;;;;;
1416.0;1327.3;;;;;;;;;;;;;-1345;;;;;;;;
1416.0;1327.3;;;;;;;;;;;;;-1548;;;;;;;;
1418.0;1329.3;;;;-0.27497867;0.8590547;0.014125826;;;;;;;;;;;;;;;
1418.0;1329.3;;;;-0.26991656;0.8628274;0.012767794;;;;;;;;;;;;;;;
1418.0;1329.3;;;;-0.26581195;0.86773694;0.012493135;;;;;;;;;;;;;;;
1418.0;1329.3;;;;-0.26226047;0.8723146;0.012565615;;;;;;;;;;;;;;;
1418.0;1329.3;;;;-0.2579117;0.8775598;0.013534548;;;;;;;;;;;;;;;
1418.0;1339.3;;;;-0.25488284;0.8828088;0.014759066;;;;;;;;;;;;;;;
1418.0;1339.3;;;;-0.25251392;0.8888513;0.015464785;;;;;;;;;;;;;;;
1418.0;1339.3;;;;-0.2513123;0.89408886;0.01551819;;;;;;;;;;;;;;;
1418.0;1339.3;;;;-0.25121692;0.89971936;0.016326906;;;;;;;;;;;;;;;
1418.0;1339.3;;;;-0.25239566;0.9063684;0.018131258;;;;;;;;;;;;;;;
1418.0;1341.2;221289;221418;12557;;;;;;;;;;;;;;;;;;
1418.0;1349.4;;;;-0.25420764;0.91233456;0.021823885;;;;;;;;;;;;;;;
1418.0;1349.4;;;;-0.2547417;0.91811764;0.02656937;;;;;;;;;;;;;;;
1418.0;1349.4;;;;-0.2538109;0.9235078;0.0305481;;;;;;;;;;;;;;;
1418.0;1349.4;;;;-0.2529526;0.9277917;0.034774784;;;;;;;;;;;;;;;
1418.0;1349.4;;;;-0.25313953;0.9313241;0.03816605;;;;;;;;;;;;;;;
1418.0;1359.5;;;;-0.25244525;0.9352075;0.04143906;;;;;;;;;;;;;;;
1418.0;1359.5;;;;-0.25183108;0.93979275;0.044773106;;;;;;;;;;;;;;;
1418.0;1359.5;;;;-0.25125125;0.9452783;0.048576362;;;;;;;;;;;;;;;
1418.0;1359.5;;;;-0.2531319;0.94965374;0.05218888;;;;;;;;;;;;;;;
1418.0;1359.5;;;;-0.25657275;0.9546548;0.056301124;;;;;;;;;;;;;;;
1419.0;1361.4;237657;237671;12550;;;;;;;;;;;;;;;;;;
1419.0;1367.5;;;;;;;;;;;;;-1831;;;;;;;;
1419.0;1367.5;;;;;;;;;;;;;-2072;;;;;;;;
1419.0;1367.5;;;;;;;;;;;;;-2208;;;;;;;;
1419.0;1367.5;;;;;;;;;;;;;-2299;;;;;;;;
1419.0;1367.5;;;;;;;;;;;;;-2508;;;;;;;;
1419.0;1369.1;;;;;;;;;;;;;;;;;49.310284;-77.66961;-124.988556;;1273.3
1419.0;1369.1;;;;;;;;;;;;;;-0.5748466;1.5898312;-0.42023987;;;;;1273.3
1419.0;1369.1;;;;;;;;;;;;;;;;;34.257027;-77.486496;-124.988556;;1273.3
1419.0;1369.1;;;;;;;;;;;;;;-0.5235145;1.5173802;-0.3838618;;;;;1273.3
1419.0;1369.1;;;;;;;;;;;;;;;;;22.698141;-79.5732;-124.988556;;1283.0
1419.0;1369.1;;;;;;;;;;;;;;-0.4707175;1.4007386;-0.43800166;;;;;1283.0
1419.0;1369.1;;;;;;;;;;;;;;;;;22.915585;-69.50972;-124.988556;;1283.0
1419.0;1369.1;;;;;;;;;;;;;;-0.48927274;1.2908719;-0.54322946;;;;;1283.0
1419.0;1369.1;;;;;;;;;;;;;;;;;31.815548;-57.203133;-124.988556;;1292.5
1419.0;1369.1;;;;;;;;;;;;;;-0.5505539;1.2710959;-0.6541948;;;;;1292.5
1419.0;1369.1;;;;;;;;;;;;;;;;;41.116062;-51.31687;-124.988556;;1292.5
1419.0;1369.1;;;;;;;;;;;;;;-0.63142794;1.2624286;-0.76113164;;;;;1292.5
1419.0;1369.5;;;;-0.26036838;0.95941556;0.05995179;;;;;;;;;;;;;;;
1419.0;1369.5;;;;-0.2649651;0.96382916;0.06427384;;;;;;;;;;;;;;;
1419.0;1369.5;;;;-0.2697144;0.96834195;0.06784821;;;;;;;;;;;;;;;
1419.0;1369.5;;;;-0.2730179;0.97202694;0.071041115;;;;;;;;;;;;;;;
1419.0;1369.5;;;;-0.2758675;0.9740678;0.073566444;;;;;;;;;;;;;;;
1471.0;1376.5;;;;;;;;;;;;;;;;;42.352062;-47.395245;-124.988556;;1302.2
1471.0;1376.5;;;;;;;;;;;;;;-0.6906339;1.2295908;-0.79250467;;;;;1302.2
1471.0;1376.5;;;;;;;;;;;;;;;;;37.63695;-44.25184;-124.988556;;1302.2
1471.0;1376.5;;;;;;;;;;;;;;-0.73500776;1.1828364;-0.7687613;;;;;1302.2
1471.0;1376.5;;;;;;;;;;;;;;;;;36.58025;-40.1738;-124.988556;;1311.9
1471.0;1376.5;;;;;;;;;;;;;;-0.76326793;1.1626332;-0.70461136;;;;;1311.9
1471.0;1376.5;;;;;;;;;;;;;;;;;36.709953;-32.837917;-124.988556;;1311.9
1471.0;1376.5;;;;;;;;;;;;;;-0.7981201;1.1520127;-0.6311838;;;;;1311.9
1471.0;1376.5;;;;;;;;;;;;;;;;;35.626545;-25.68514;-124.988556;;1321.5
1471.0;1376.5;;;;;;;;;;;;;;-0.80996126;1.1467025;-0.54701376;;;;;1321.5
1471.0;1376.5;;;;;;;;;;;;;;;;;28.225805;-21.481216;-124.988556;;1321.5
1471.0;1376.5;;;;;;;;;;;;;;-0.83120215;1.1127659;-0.47950682;;;;;1321.5
1471.0;1379.3;;;;-0.2788773;0.9750787;0.076213844;;;;;;;;;;;;;;;
1471.0;1379.3;;;;-0.28085712;0.9748918;0.07823563;;;;;;;;;;;;;;;
1471.0;1379.3;;;;-0.28266147;0.97378933;0.0798111;;;;;;;;;;;;;;;
1471.0;1379.3;;;;-0.28761676;0.97397625;0.07980729;;;;;;;;;;;;;;;
1471.0;1379.3;;;;-0.2837372;0.97698224;0.08582688;;;;;;;;;;;;;;;
1471.0;1381.4;254115;254143;12551;;;;;;;;;;;;;;;;;;
1471.0;1389.3;;;;-0.27725223;0.9737016;0.08764649;;;;;;;;;;;;;;;
1471.0;1389.3;;;;-0.26889804;0.9681016;0.09212495;;;;;;;;;;;;;;;
1471.0;1389.3;;;;-0.2638512;0.9611398;0.092269905;;;;;;;;;;;;;;;
1471.0;1389.3;;;;-0.26445773;0.955433;0.09103776;;;;;;;;;;;;;;;
1471.0;1389.3;;;;-0.26726916;0.95077527;0.09017182;;;;;;;;;;;;;;;
1474.0;1399.3;;;;-0.26861957;0.94628155;0.09005738;;;;;;;;;;;;;;;
1474.0;1399.3;;;;-0.26697925;0.9401742;0.08859254;;;;;;;;;;;;;;;
1474.0;1399.3;;;;-0.26472858;0.93338406;0.08813859;;;;;;;;;;;;;;;
1474.0;1399.3;;;;-0.2597809;0.9275323;0.08922196;;;;;;;;;;;;;;;
1474.0;1399.3;;;;-0.25441745;0.92152035;0.08891297;;;;;;;;;;;;;;;
1474.0;1401.3;262143;262143;12558;;;;;;;;;;;;;;;;;;
1474.0;1407.4;;;;;;;;;;;;;-2868;;;;;;;;
1474.0;1407.4;;;;;;;;;;;;;-3195;;;;;;;;
1474.0;1407.4;;;;;;;;;;;;;-3330;;;;;;;;
1474.0;1407.4;;;;;;;;;;;;;-3256;;;;;;;;
1474.0;1407.4;;;;;;;;;;;;;-3060;;;;;;;;
1474.0;1409.4;;;;-0.25049976;0.9144975;0.08852769;;;;;;;;;;;;;;;
1474.0;1409.4;;;;-0.24899295;0.90722287;0.0877266;;;;;;;;;;;;;;;
1474.0;1409.4;;;;-0.24840549;0.9001924;0.085716255;;;;;;;;;;;;;;;
1474.0;1409.4;;;;-0.24757007;0.89218915;0.08309556;;;;;;;;;;;;;;;
1474.0;1409.4;;;;-0.24514392;0.8842279;0.08183289;;;;;;;;;;;;;;;
1474.0;1419.5;;;;-0.24162295;0.8752786;0.08028031;;;;;;;;;;;;;;;
1474.0;1419.5;;;;-0.23879626;0.8665658;0.079845436;;;;;;;;;;;;;;;
1474.0;1419.5;;;;-0.23690799;0.8575288;0.07937241;;;;;;;;;;;;;;;
1474.0;1419.5;;;;-0.23418048;0.847931;0.07743455;;;;;;;;;;;;;;;
1474.0;1419.5;;;;-0.231926;0.8384553;0.07541657;;;;;;;;;;;;;;;
1476.0;1421.7;;;;;;;;;;;;;;;;;18.974884;-14.385662;-124.988556;;1331.2
1476.0;1421.7;;;;;;;;;;;;;;-0.8366344;1.1264992;-0.3856319;;;;;1331.2
1476.0;1421.7;;;;;;;;;;;;;;;;;11.57033;-6.7941833;-124.988556;;1331.2
1476.0;1421.7;;;;;;;;;;;;;;-0.82070374;1.1307107;-0.2900479;;;;;1331.2
1476.0;1421.7;;;;;;;;;;;;;;;;;3.2235177;-3.8377025;-124.988556;;1340.8
1476.0;1421.7;;;;;;;;;;;;;;-0.80111086;1.1678213;-0.2148503;;;;;1340.8
1476.0;1421.7;;;;;;;;;;;;;;;;;-3.2883694;-4.9630723;-124.988556;;1340.8
1476.0;1421.7;;;;;;;;;;;;;;-0.77681816;1.2029786;-0.18506424;;;;;1340.8
1476.0;1421.7;;;;;;;;;;;;;;;;;-9.674368;-3.4905546;-124.988556;;1350.3
1476.0;1421.7;;;;;;;;;;;;;;-0.7565538;1.1676382;-0.12683493;;;;;1350.3
1476.0;1421.7;;;;;;;;;;;;;;;;;-11.734367;-9.685812;-124.988556;;1350.3
1476.0;1421.7;;;;;;;;;;;;;;-0.7131565;1.1117283;-0.11713004;;;;;1350.3
1476.0;1421.5;262143;262143;12561;;;;;;;;;;;;;;;;;;
1476.0;1429.5;;;;-0.22947696;0.82836163;0.07269669;;;;;;;;;;;;;;;
1476.0;1429.5;;;;-0.22625735;0.81803143;0.07006837;;;;;;;;;;;;;;;
1476.0;1429.5;;;;-0.22282413;0.80768216;0.06789399;;;;;;;;;;;;;;;
1476.0;1429.5;;;;-0.21917346;0.79786694;0.0654831;;;;;;;;;;;;;;;
1476.0;1429.5;;;;-0.21553424;0.78836834;0.0629654;;;;;;;;;;;;;;;
1476.0;1439.5;;;;-0.21231082;0.7786218;0.060173042;;;;;;;;;;;;;;;
1476.0;1439.5;;;;-0.20919803;0.76850903;0.058082588;;;;;;;;;;;;;;;
1476.0;1439.5;;;;-0.20543674;0.75997937;0.056148537;;;;;;;;;;;;;;;
1476.0;1439.5;;;;-0.20190814;0.7511865;0.054439552;;;;;;;;;;;;;;;
1476.0;1439.5;;;;-0.19882968;0.7423821;0.052539833;;;;;;;;;;;;;;;
1532.0;1441.6;262143;262143;12556;;;;;;;;;;;;;;;;;;
1532.0;1447.5;;;;;;;;;;;;;-2866;;;;;;;;
1532.0;1447.5;;;;;;;;;;;;;-2657;;;;;;;;
1532.0;1447.5;;;;;;;;;;;;;-2344;;;;;;;;
1532.0;1447.5;;;;;;;;;;;;;-1918;;;;;;;;
1532.0;1447.5;;;;;;;;;;;;;-1443;;;;;;;;
1532.0;1449.4;;;;-0.19589618;0.73273855;0.050575264;;;;;;;;;;;;;;;
1532.0;1449.4;;;;-0.19346622;0.7239266;0.049041755;;;;;;;;;;;;;;;
1532.0;1449.4;;;;-0.19154361;0.7144738;0.046997078;;;;;;;;;;;;;;;
1532.0;1449.4;;;;-0.18970874;0.70553595;0.04553223;;;;;;;;;;;;;;;
1532.0;1449.4;;;;-0.18778613;0.6958733;0.043766025;;;;;;;;;;;;;;;
1532.0;1459.4;;;;-0.18540956;0.6871529;0.042270664;;;;;;;;;;;;;;;
1532.0;1459.4;;;;-0.18423845;0.6786385;0.040550236;;;;;;;;;;;;;;;
1532.0;1459.4;;;;-0.18263246;0.67148596;0.040393833;;;;;;;;;;;;;;;
1532.0;1459.4;;;;-0.1814232;0.6642495;0.03966141;;;;;;;;;;;;;;;
1532.0;1459.4;;;;-0.18048479;0.6564713;0.039695743;;;;;;;;;;;;;;;
1532.0;1461.6;262143;262143;12538;;;;;;;;;;;;;;;;;;
1532.0;1469.5;;;;-0.17875673;0.649067;0.03979111;;;;;;;;;;;;;;;
1532.0;1469.5;;;;-0.17678072;0.6419793;0.040649418;;;;;;;;;;;;;;;
1532.0;1469.5;;;;-0.17472078;0.635212;0.041866306;;;;;;;;;;;;;;;
1532.0;1469.5;;;;-0.1722336;0.6291695;0.042549137;;;;;;;;;;;;;;;
1532.0;1469.5;;;;-0.17042543;0.6218148;0.0440445;;;;;;;;;;;;;;;
1536.0;1479.6;;;;-0.16876985;0.61563116;0.04558182;;;;;;;;;;;;;;;
1536.0;1479.6;;;;-0.16802217;0.6102105;0.04766465;;;;;;;;;;;;;;;
1536.0;1479.6;;;;-0.16816331;0.60560995;0.04922486;;;;;;;;;;;;;;;
1536.0;1479.6;;;;-0.16840746;0.6024247;0.05233384;;;;;;;;;;;;;;;
1536.0;1479.6;;;;-0.16931917;0.5995446;0.056079872;;;;;;;;;;;;;;;
1536.0;1481.9;;;;;;;;;;;;;;;;;-9.758293;-17.216253;-124.18363;;1359.9
1536.0;1481.9;;;;;;;;;;;;;;-0.67433697;1.0775476;-0.111514635;;;;;1359.9
1536.0;1481.9;;;;;;;;;;;;;;;;;-5.4857025;-24.761955;-118.12571;;1359.9
1536.0;1481.9;;;;;;;;;;;;;;-0.64674824;0.9963683;-0.10266427;;;;;1359.9
1536.0;1481.9;;;;;;;;;;;;;;;;;0.71337014;-33.448288;-111.73589;;1369.6
1536.0;1481.9;;;;;;;;;;;;;;-0.6212958;0.89706105;-0.10077212;;;;;1369.6
1536.0;1481.9;;;;;;;;;;;;;;;;;7.0917387;-38.98358;-109.2906;;1369.6
1536.0;1481.9;;;;;;;;;;;;;;-0.6297189;0.8325449;-0.085329756;;;;;1369.6
1536.0;1481.9;;;;;;;;;;;;;;;;;16.460922;-42.203285;-104.518265;;1379.2
1536.0;1481.9;;;;;;;;;;;;;;-0.6394848;0.79549545;-0.07763909;;;;;1379.2
1536.0;1481.9;;;;;;;;;;;;;;;;;26.146732;-43.794064;-99.902336;;1379.2
1536.0;1481.9;;;;;;;;;;;;;;-0.6222114;0.7973876;-0.06604206;;;;;1379.2
1536.0;1481.7;262143;262143;12546;;;;;;;;;;;;;;;;;;
1537.0;1482.7;;;;;;;;;;;;;;;;;32.41829;-46.201206;-97.54479;;1388.7
1537.0;1482.7;;;;;;;;;;;;;;-0.61238444;0.8100223;-0.05755791;;;;;1388.7
1537.0;1482.7;;;;;;;;;;;;;;;;;35.8211;-49.58876;-96.08372;;1388.7
1537.0;1482.7;;;;;;;;;;;;;;-0.5971252;0.8017212;-0.047791988;;;;;1388.7
1537.0;1482.7;;;;;;;;;;;;;;;;;38.14432;-53.590504;-95.8472;;1398.4
1537.0;1482.7;;;;;;;;;;;;;;-0.59596545;0.7843257;-0.03302103;;;;;1398.4
1537.0;1482.7;;;;;;;;;;;;;;;;;40.58962;-57.988983;-93.84441;;1398.4
1537.0;1482.7;;;;;;;;;;;;;;-0.5860164;0.76613665;-0.0036622211;;;;;1398.4
1537.0;1482.7;;;;;;;;;;;;;;;;;42.878506;-63.59294;-90.30045;;1408.0
1537.0;1482.7;;;;;;;;;;;;;;-0.5584277;0.75160986;0.040467545;;;;;1408.0
1537.0;1482.7;;;;;;;;;;;;;;;;;46.19739;-69.10535;-86.4742;;1408.0
1537.0;1482.7;;;;;;;;;;;;;;-0.520951;0.73158973;0.06762902;;;;;1408.0
1537.0;1487.7;;;;;;;;;;;;;-984;;;;;;;;
1537.0;1487.7;;;;;;;;;;;;;-622;;;;;;;;
1537.0;1487.7;;;;;;;;;;;;;-423;;;;;;;;
1537.0;1487.7;;;;;;;;;;;;;-351;;;;;;;;
1537.0;1487.7;;;;;;;;;;;;;-313;;;;;;;;
1596.0;1489.2;;;;;;;;;;;;;;;;;51.25202;-71.78716;-82.62123;;1417.6
1596.0;1489.2;;;;;;;;;;;;;;-0.48237556;0.7041231;0.061830502;;;;;1417.6
1596.0;1489.2;;;;;;;;;;;;;;;;;55.898464;-70.97461;-78.3639;;1417.6
1596.0;1489.2;;;;;;;;;;;;;;-0.43073824;0.67427593;0.025757622;;;;;1417.6
1596.0;1489.2;;;;;;;;;;;;;;;;;56.68813;-67.197945;-73.54961;;1427.2
1596.0;1489.2;;;;;;;;;;;;;;-0.3734855;0.6441847;0.0051271096;;;;;1427.2
1596.0;1489.2;;;;;;;;;;;;;;;;;53.811764;-64.13465;-68.20123;;1427.2
1596.0;1489.2;;;;;;;;;;;;;;-0.32758567;0.6082949;-0.01495407;;;;;1427.2
1596.0;1489.2;;;;;;;;;;;;;;;;;52.049316;-60.644093;-62.15476;;1436.9
1596.0;1489.2;;;;;;;;;;;;;;-0.30182806;0.5822321;-0.024292734;;;;;1436.9
1596.0;1489.2;;;;;;;;;;;;;;;;;50.668354;-57.111576;-55.94424;;1436.9
1596.0;1489.2;;;;;;;;;;;;;;-0.27393416;0.56160164;-0.02844325;;;;;1436.9
1596.0;1489.4;;;;-0.17031862;0.5974694;0.060184486;;;;;;;;;;;;;;;
1596.0;1489.4;;;;-0.17133714;0.596222;0.06349183;;;;;;;;;;;;;;;
1596.0;1489.4;;;;-0.17318727;0.59558874;0.06674195;;;;;;;;;;;;;;;
1596.0;1489.4;;;;-0.17598726;0.5956498;0.07052613;;;;;;;;;;;;;;;
1596.0;1489.4;;;;-0.17966844;0.59659964;0.073555;;;;;;;;;;;;;;;
1596.0;1499.5;;;;-0.18366624;0.59795004;0.076190956;;;;;;;;;;;;;;;
1596.0;1499.5;;;;-0.18769076;0.59943014;0.07861329;;;;;;;;;;;;;;;
1596.0;1499.5;;;;-0.1911507;0.60223395;0.08148957;;;;;;;;;;;;;;;
1596.0;1499.5;;;;-0.19410709;0.605774;0.08364869;;;;;;;;;;;;;;;
1596.0;1499.5;;;;-0.19734195;0.60903174;0.08525849;;;;;;;;;;;;;;;
1596.0;1501.7;262143;262143;12554;;;;;;;;;;;;;;;;;;
1599.0;1509.4;;;;-0.20004275;0.61204535;0.086292274;;;;;;;;;;;;;;;
1599.0;1509.4;;;;-0.20334247;0.61484915;0.08776856;;;;;;;;;;;;;;;
1599.0;1509.4;;;;-0.2068291;0.61622244;0.08813859;;;;;;;;;;;;;;;
1599.0;1509.4;;;;-0.21030048;0.61726767;0.08903886;;;;;;;;;;;;;;;
1599.0;1509.4;;;;-0.21350864;0.6175652;0.091197975;;;;;;;;;;;;;;;
1599.0;1519.4;;;;-0.21538547;0.6177636;0.093219765;;;;;;;;;;;;;;;
1599.0;1519.4;;;;-0.21598437;0.61746603;0.096153274;;;;;;;;;;;;;;;
1599.0;1519.4;;;;-0.21672061;0.6181031;0.09913637;;;;;;;;;;;;;;;
1599.0;1519.4;;;;-0.21730426;0.6184922;0.10153963;;;;;;;;;;;;;;;
1599.0;1519.4;;;;-0.2186661;0.61778647;0.104095474;;;;;;;;;;;;;;;
1599.0;1521.8;262143;262143;12557;;;;;;;;;;;;;;;;;;
1599.0;1527.8;;;;;;;;;;;;;-249;;;;;;;;
1599.0;1527.8;;;;;;;;;;;;;-269;;;;;;;;
1599.0;1527.8;;;;;;;;;;;;;-496;;;;;;;;
1599.0;1527.8;;;;;;;;;;;;;-818;;;;;;;;
1599.0;1527.8;;;;;;;;;;;;;-943;;;;;;;;
1599.0;1529.5;;;;-0.22088626;0.61811835;0.10773088;;;;;;;;;;;;;;;
1599.0;1529.5;;;;-0.22280505;0.6182938;0.11064531;;;;;;;;;;;;;;;
1599.0;1529.5;;;;-0.22412494;0.61760336;0.1110573;;;;;;;;;;;;;;;
1599.0;1529.5;;;;-0.22689441;0.6157761;0.1105652;;;;;;;;;;;;;;;
1599.0;1529.5;;;;-0.22916797;0.61448675;0.111186996;;;;;;;;;;;;;;;
1602.0;1539.6;;;;-0.23162463;0.6135331;0.111503616;;;;;;;;;;;;;;;
1602.0;1539.6;;;;-0.2324982;0.6129151;0.112007156;;;;;;;;;;;;;;;
1602.0;1539.6;;;;-0.23303607;0.61212164;0.11140062;;;;;;;;;;;;;;;
1602.0;1539.6;;;;-0.23375323;0.6117974;0.11052324;;;;;;;;;;;;;;;
1602.0;1539.6;;;;-0.23490146;0.6104775;0.10903932;;;;;;;;;;;;;;;
1602.0;1542.4;;;;;;;;;;;;;;;;;48.18873;-53.48369;-50.405132;;1446.5
1602.0;1542.4;;;;;;;;;;;;;;-0.23633534;0.5492111;-0.0441908;;;;;1446.5
1602.0;1542.4;;;;;;;;;;;;;;;;;44.999542;-48.314617;-44.656208;;1446.5
1602.0;1542.4;;;;;;;;;;;;;;-0.21662039;0.52375865;-0.046449173;;;;;1446.5
1602.0;1542.4;;;;;;;;;;;;;;;;;41.203804;-43.40114;-38.480026;;1456.0
1602.0;1542.4;;;;;;;;;;;;;;-0.20032349;0.5013581;-0.043702506;;;;;1456.0
1602.0;1542.4;;;;;;;;;;;;;;;;;36.721397;-38.64025;-31.777397;;1456.0
1602.0;1542.4;;;;;;;;;;;;;;-0.19367047;0.48451185;-0.029541917;;;;;1456.0
1602.0;1542.4;;;;;;;;;;;;;;;;;32.227547;-34.11206;-25.379955;;1465.7
1602.0;1542.4;;;;;;;;;;;;;;-0.19519639;0.47175512;-0.010071108;;;;;1465.7
1602.0;1542.4;;;;;;;;;;;;;;;;;28.420362;-30.140842;-18.856625;;1465.7
1602.0;1542.4;;;;;;;;;;;;;;-0.19238868;0.45857114;-0.0072634052;;;;;1465.7
1602.0;1542.0;262143;262143;12558;;;;;;;;;;;;;;;;;;
1603.0;1549.5;;;;;;;;;;;;;;;;;26.047548;-26.12003;-12.3867;;1475.4
1603.0;1549.5;;;;;;;;;;;;;;-0.18451491;0.44825587;0.0044557024;;;;;1475.4
1603.0;1549.5;;;;;;;;;;;;;;;;;22.919401;-23.285624;-5.920591;;1475.4
1603.0;1549.5;;;;;;;;;;;;;;-0.17554247;0.43879512;0.02069155;;;;;1475.4
1603.0;1549.5;;;;;;;;;;;;;;;;;18.929106;-22.072514;0.0076296274;;1485.0
1603.0;1549.5;;;;;;;;;;;;;;-0.16742454;0.42481765;0.043458357;;;;;1485.0
1603.0;1549.5;;;;;;;;;;;;;;;;;14.7633295;-22.373882;5.7451096;;1485.0
1603.0;1549.5;;;;;;;;;;;;;;-0.15955077;0.4046144;0.061098058;;;;;1485.0
1603.0;1549.5;;;;;;;;;;;;;;;;;10.345775;-23.461103;11.303292;;1494.7
1603.0;1549.5;;;;;;;;;;;;;;-0.15063937;0.38178656;0.07061983;;;;;1494.7
1603.0;1549.5;;;;;;;;;;;;;;;;;6.111332;-24.601734;16.59444;;1494.7
1603.0;1549.5;;;;;;;;;;;;;;-0.14490189;0.35706657;0.07513657;;;;;1494.7
1603.0;1549.5;;;;-0.2354584;0.6098977;0.10788728;;;;;;;;;;;;;;;
1603.0;1549.5;;;;-0.2349396;0.6096154;0.10823442;;;;;;;;;;;;;;;
1603.0;1549.5;;;;-0.23541644;0.6076394;0.10907747;;;;;;;;;;;;;;;
1603.0;1549.5;;;;-0.23484042;0.60867697;0.10770418;;;;;;;;;;;;;;;
1603.0;1549.5;;;;-0.23424152;0.6085511;0.105518356;;;;;;;;;;;;;;;
1603.0;1559.5;;;;-0.23551944;0.60724264;0.10527803;;;;;;;;;;;;;;;
1603.0;1559.5;;;;-0.23616031;0.607029;0.10415651;;;;;;;;;;;;;;;
1603.0;1559.5;;;;-0.23741534;0.60664374;0.10332872;;;;;;;;;;;;;;;
1603.0;1559.5;;;;-0.23858646;0.60574347;0.10351564;;;;;;;;;;;;;;;
1603.0;1559.5;;;;-0.23998645;0.60490423;0.10335924;;;;;;;;;;;;;;;
1603.0;1561.9;262143;262143;12554;;;;;;;;;;;;;;;;;;
1653.0;1567.8;;;;;;;;;;;;;-767;;;;;;;;
1653.0;1567.8;;;;;;;;;;;;;-496;;;;;;;;
1653.0;1567.8;;;;;;;;;;;;;-353;;;;;;;;
1653.0;1567.8;;;;;;;;;;;;;-275;;;;;;;;
1653.0;1567.8;;;;;;;;;;;;;-104;;;;;;;;
1653.0;1569.4;;;;-0.24174884;0.6039353;0.10464479;;;;;;;;;;;;;;;
1653.0;1569.4;;;;-0.24478152;0.60439306;0.10807039;;;;;;;;;;;;;;;
1653.0;1569.4;;;;-0.24839404;0.60516745;0.11174394;;;;;;;;;;;;;;;
1653.0;1569.4;;;;-0.25378802;0.6059151;0.11527635;;;;;;;;;;;;;;;
1653.0;1569.4;;;;-0.26050952;0.6068955;0.118713394;;;;;;;;;;;;;;;
1653.0;1579.4;;;;-0.26871493;0.608368;0.121734634;;;;;;;;;;;;;;;
1653.0;1579.4;;;;-0.27730182;0.6093789;0.12301637;;;;;;;;;;;;;;;
1653.0;1579.4;;;;-0.28768542;0.6097527;0.12202074;;;;;;;;;;;;;;;
1653.0;1579.4;;;;-0.29761127;0.6098595;0.120899215;;;;;;;;;;;;;;;
1653.0;1579.4;;;;-0.30798724;0.61002356;0.11922838;;;;;;;;;;;;;;;
1653.0;1581.9;262143;262143;12553;;;;;;;;;;;;;;;;;;
1653.0;1589.5;;;;-0.3176575;0.6097718;0.11722948;;;;;;;;;;;;;;;
1653.0;1589.5;;;;-0.32545474;0.610035;0.115554824;;;;;;;;;;;;;;;
1653.0;1589.5;;;;-0.33232883;0.6102944;0.1138878;;;;;;;;;;;;;;;
1653.0;1589.5;;;;-0.3373566;0.6113778;0.112403885;;;;;;;;;;;;;;;
1653.0;1589.5;;;;-0.34066775;0.6134377;0.11143114;;;;;;;;;;;;;;;
1657.0;1599.6;;;;-0.34262088;0.61602026;0.11016466;;;;;;;;;;;;;;;
1657.0;1599.6;;;;-0.3434792;0.61926657;0.1088524;;;;;;;;;;;;;;;
1657.0;1599.6;;;;-0.34305194;0.6234551;0.10709001;;;;;;;;;;;;;;;
1657.0;1599.6;;;;-0.34219745;0.6281548;0.1060486;;;;;;;;;;;;;;;
1657.0;1599.6;;;;-0.34116748;0.63324744;0.105346695;;;;;;;;;;;;;;;
1657.0;1602.5;;;;;;;;;;;;;;;;;2.0638144;-25.978882;21.629993;;1504.4
1657.0;1602.5;;;;;;;;;;;;;;-0.143437;0.3299051;0.08252205;;;;;1504.4
1657.0;1602.5;;;;;;;;;;;;;;;;;-1.4343699;-27.49336;26.745659;;1504.4
1657.0;1602.5;;;;;;;;;;;;;;-0.14893033;0.30640584;0.0910062;;;;;1504.4
1657.0;1602.5;;;;;;;;;;;;;;;;;-4.650258;-29.37788;31.79647;;1513.9
1657.0;1602.5;;;;;;;;;;;;;;-0.15771966;0.28888822;0.09613331;;;;;1513.9
1657.0;1602.5;;;;;;;;;;;;;;;;;-7.56859;-31.327251;36.381878;;1513.9
1657.0;1602.5;;;;;;;;;;;;;;-0.17413862;0.26899013;0.0966216;;;;;1513.9
1657.0;1602.5;;;;;;;;;;;;;;;;;-9.655293;-32.97525;40.41795;;1523.6
1657.0;1602.5;;;;;;;;;;;;;;-0.19574572;0.24799341;0.09723197;;;;;1523.6
1657.0;1602.5;;;;;;;;;;;;;;;;;-10.994293;-34.46684;43.67962;;1523.6
1657.0;1602.5;;;;;;;;;;;;;;-0.21924497;0.23010956;0.09479049;;;;;1523.6
1657.0;1602.1;262143;262143;12560;;;;;;;;;;;;;;;;;;
1657.0;1608.0;;;;;;;;;;;;;172;;;;;;;;
1657.0;1608.0;;;;;;;;;;;;;495;;;;;;;;
1657.0;1608.0;;;;;;;;;;;;;757;;;;;;;;
1657.0;1608.0;;;;;;;;;;;;;876;;;;;;;;
1657.0;1608.0;;;;;;;;;;;;;899;;;;;;;;
1713.0;1609.6;;;;;;;;;;;;;;;;;-11.482589;-35.542618;46.533096;;1533.2
1713.0;1609.6;;;;;;;;;;;;;;-0.24036378;0.21173742;0.09198279;;;;;1533.2
1713.0;1609.6;;;;;;;;;;;;;;;;;-10.979034;-35.2031;48.98221;;1533.2
1713.0;1609.6;;;;;;;;;;;;;;-0.26673177;0.19684438;0.081118196;;;;;1533.2
1713.0;1609.6;;;;;;;;;;;;;;;;;-10.139774;-33.581806;51.183353;;1542.9
1713.0;1609.6;;;;;;;;;;;;;;-0.29029205;0.18420972;0.062746055;;;;;1542.9
1713.0;1609.6;;;;;;;;;;;;;;;;;-8.541368;-30.068361;53.23191;;1542.9
1713.0;1609.6;;;;;;;;;;;;;;-0.31592762;0.17603077;0.047059543;;;;;1542.9
1713.0;1609.6;;;;;;;;;;;;;;;;;-6.782739;-24.681845;55.288094;;1552.5
1713.0;1609.6;;;;;;;;;;;;;;-0.3333842;0.17072055;0.03460799;;;;;1552.5
1713.0;1609.6;;;;;;;;;;;;;;;;;-5.592517;-17.349771;56.90939;;1552.5
1713.0;1609.6;;;;;;;;;;;;;;-0.35059664;0.17303994;0.023865474;;;;;1552.5
1713.0;1609.4;;;;-0.33978274;0.6387139;0.10553743;;;;;;;;;;;;;;;
1713.0;1609.4;;;;-0.33757785;0.64427954;0.10596086;;;;;;;;;;;;;;;
1713.0;1609.4;;;;-0.3347855;0.6493378;0.1064644;;;;;;;;;;;;;;;
1713.0;1609.4;;;;-0.33312228;0.65453345;0.107482925;;;;;;;;;;;;;;;
1713.0;1609.4;;;;-0.32954028;0.6612664;0.110057846;;;;;;;;;;;;;;;
1713.0;1619.4;;;;-0.32566074;0.66805273;0.113021865;;;;;;;;;;;;;;;
1713.0;1619.4;;;;-0.32184985;0.6742478;0.11563493;;;;;;;;;;;;;;;
1713.0;1619.4;;;;-0.31977466;0.6793023;0.116748825;;;;;;;;;;;;;;;
1713.0;1619.4;;;;-0.3193207;0.6833344;0.119022384;;;;;;;;;;;;;;;
1713.0;1619.4;;;;-0.31800464;0.6892167;0.12347032;;;;;;;;;;;;;;;
1713.0;1622.0;262143;262143;12555;;;;;;;;;;;;;;;;;;
1715.0;1629.3;;;;-0.3155022;0.6964112;0.12945558;;;;;;;;;;;;;;;
1715.0;1629.3;;;;-0.31184772;0.7031289;0.1342354;;;;;;;;;;;;;;;
1715.0;1629.3;;;;-0.30967715;0.7089043;0.13839342;;;;;;;;;;;;;;;
1715.0;1629.3;;;;-0.31058505;0.7126847;0.14185716;;;;;;;;;;;;;;;
1715.0;1629.3;;;;-0.31232455;0.7152367;0.14653017;;;;;;;;;;;;;;;
1715.0;1639.4;;;;-0.31450275;0.71757895;0.15052415;;;;;;;;;;;;;;;
1715.0;1639.4;;;;-0.31616977;0.72028357;0.15528108;;;;;;;;;;;;;;;
1715.0;1639.4;;;;-0.31668094;0.722004;0.15980913;;;;;;;;;;;;;;;
1715.0;1639.4;;;;-0.31618503;0.7230492;0.1648369;;;;;;;;;;;;;;;
1715.0;1639.4;;;;-0.31359485;0.7239533;0.16971208;;;;;;;;;;;;;;;
1715.0;1642.0;262143;262143;12552;;;;;;;;;;;;;;;;;;
1715.0;1648.0;;;;;;;;;;;;;777;;;;;;;;
1715.0;1648.0;;;;;;;;;;;;;873;;;;;;;;
1715.0;1648.0;;;;;;;;;;;;;922;;;;;;;;
1715.0;1648.0;;;;;;;;;;;;;-799;;;;;;;;
1715.0;1648.0;;;;;;;;;;;;;-4255;;;;;;;;
1715.0;1649.5;;;;-0.31074908;0.724968;0.17568208;;;;;;;;;;;;;;;
1715.0;1649.5;;;;-0.30685428;0.7252541;0.18160631;;;;;;;;;;;;;;;
1715.0;1649.5;;;;-0.3025017;0.7253762;0.18729784;;;;;;;;;;;;;;;
1715.0;1649.5;;;;-0.29882815;0.7262116;0.19318011;;;;;;;;;;;;;;;
1715.0;1649.5;;;;-0.29457095;0.72762305;0.19926837;;;;;;;;;;;;;;;
1721.0;1659.6;;;;-0.29101947;0.72877127;0.20556262;;;;;;;;;;;;;;;
1721.0;1659.6;;;;-0.28642276;0.7298203;0.21338657;;;;;;;;;;;;;;;
1721.0;1659.6;;;;-0.28165057;0.7308808;0.22055057;;;;;;;;;;;;;;;
1721.0;1659.6;;;;-0.27636722;0.7318421;0.22884372;;;;;;;;;;;;;;;
1721.0;1659.6;;;;-0.27061084;0.73338324;0.2375069;;;;;;;;;;;;;;;
1721.0;1662.3;;;;;;;;;;;;;;;;;-4.7456284;-8.350628;58.439133;;1562.1
1721.0;1662.3;;;;;;;;;;;;;;-0.37055573;0.18524735;0.02764977;;;;;1562.1
1721.0;1662.3;;;;;;;;;;;;;;;;;-5.0279245;1.7586291;60.029907;;1562.1
1721.0;1662.3;;;;;;;;;;;;;;-0.38935515;0.20490128;0.0253914;;;;;1562.1
1721.0;1662.3;;;;;;;;;;;;;;;;;-6.1380353;13.000885;61.338387;;1571.7
1721.0;1662.3;;;;;;;;;;;;;;-0.4041261;0.23249;0.016479995;;;;;1571.7
1721.0;1662.3;;;;;;;;;;;;;;;;;-8.930479;24.910732;62.311165;;1571.7
1721.0;1662.3;;;;;;;;;;;;;;-0.4229255;0.2612995;0.0075075533;;;;;1571.7
1721.0;1662.3;;;;;;;;;;;;;;;;;-12.8711815;36.97699;63.03598;;1581.4
1721.0;1662.3;;;;;;;;;;;;;;-0.44050416;0.29566333;-0.0052491836;;;;;1581.4
1721.0;1662.3;;;;;;;;;;;;;;;;;-17.124699;49.29884;63.604393;;1581.4
1721.0;1662.3;;;;;;;;;;;;;;-0.4709006;0.32819605;-0.017700735;;;;;1581.4
1721.0;1662.1;262143;262143;12563;;;;;;;;;;;;;;;;;;
1722.0;1669.7;;;;;;;;;;;;;;;;;-21.50029;61.193424;64.27961;;1591.0
1722.0;1669.7;;;;;;;;;;;;;;-0.5097812;0.36182746;-0.03320414;;;;;1591.0
1722.0;1669.7;;;;;;;;;;;;;;;;;-26.4214;71.84438;63.940094;;1591.0
1722.0;1669.7;;;;;;;;;;;;;;-0.5500046;0.40656757;-0.070314646;;;;;1591.0
1722.0;1669.7;;;;;;;;;;;;;;;;;-30.69399;81.59886;64.283424;;1600.7
1722.0;1669.7;;;;;;;;;;;;;;-0.5915708;0.44630268;-0.108279675;;;;;1600.7
1722.0;1669.7;;;;;;;;;;;;;;;;;-33.574177;90.69719;65.04257;;1600.7
1722.0;1669.7;;;;;;;;;;;;;;-0.64461195;0.49354532;-0.14819789;;;;;1600.7
1722.0;1669.7;;;;;;;;;;;;;;;;;-35.489212;98.502304;65.85895;;1610.4
1722.0;1669.7;;;;;;;;;;;;;;-0.69972837;0.54481643;-0.18469802;;;;;1610.4
1722.0;1669.7;;;;;;;;;;;;;;;;;-36.713768;105.42619;66.31673;;1610.4
1722.0;1669.7;;;;;;;;;;;;;;-0.74648273;0.59071624;-0.23670156;;;;;1610.4
1722.0;1669.7;;;;-0.26469424;0.73416144;0.2450867;;;;;;;;;;;;;;;
1722.0;1669.7;;;;-0.25838473;0.73447424;0.2524872;;;;;;;;;;;;;;;
1722.0;1669.7;;;;-0.25127795;0.73255163;0.25991824;;;;;;;;;;;;;;;
1722.0;1669.7;;;;-0.24525455;0.7309571;0.26718906;;;;;;;;;;;;;;;
1722.0;1669.7;;;;-0.2389336;0.72983557;0.27526096;;;;;;;;;;;;;;;
1722.0;1679.5;;;;-0.23147586;0.72879034;0.2828789;;;;;;;;;;;;;;;
1722.0;1679.5;;;;-0.22256473;0.7281571;0.2904854;;;;;;;;;;;;;;;
1722.0;1679.5;;;;-0.21294406;0.727604;0.29840472;;;;;;;;;;;;;;;
1722.0;1679.5;;;;-0.20399097;0.7274285;0.30539325;;;;;;;;;;;;;;;
1722.0;1679.5;;;;-0.1962929;0.727192;0.31243518;;;;;;;;;;;;;;;
1722.0;1682.2;262143;262143;12556;;;;;;;;;;;;;;;;;;
1772.0;1688.2;;;;;;;;;;;;;-6112;;;;;;;;
1772.0;1688.2;;;;;;;;;;;;;-3492;;;;;;;;
1772.0;1688.2;;;;;;;;;;;;;2020;;;;;;;;
1772.0;1688.2;;;;;;;;;;;;;5772;;;;;;;;
1772.0;1688.2;;;;;;;;;;;;;5458;;;;;;;;
1772.0;1689.5;;;;-0.19013217;0.7271424;0.31879428;;;;;;;;;;;;;;;
1772.0;1689.5;;;;-0.18338014;0.72728354;0.32611468;;;;;;;;;;;;;;;
1772.0;1689.5;;;;-0.17497636;0.72671515;0.33300784;;;;;;;;;;;;;;;
1772.0;1689.5;;;;-0.16768648;0.7255288;0.3372002;;;;;;;;;;;;;;;
1772.0;1689.5;;;;-0.16119005;0.7228928;0.34006503;;;;;;;;;;;;;;;
1772.0;1699.5;;;;-0.15407564;0.71919256;0.34199527;;;;;;;;;;;;;;;
1772.0;1699.5;;;;-0.14759447;0.71670157;0.34415057;;;;;;;;;;;;;;;
1772.0;1699.5;;;;-0.14175798;0.7161065;0.34624866;;;;;;;;;;;;;;;
1772.0;1699.5;;;;-0.12989427;0.7139016;0.35001758;;;;;;;;;;;;;;;
1772.0;1699.5;;;;-0.12989809;0.7033959;0.34342578;;;;;;;;;;;;;;;
1772.0;1702.3;262143;262143;12563;;;;;;;;;;;;;;;;;;
1772.0;1709.6;;;;-0.1288376;0.7000771;0.34681323;;;;;;;;;;;;;;;
1772.0;1709.6;;;;-0.12592699;0.6967278;0.34313586;;;;;;;;;;;;;;;
1772.0;1709.6;;;;-0.12027742;0.6949616;0.34520724;;;;;;;;;;;;;;;
1772.0;1709.6;;;;-0.112533584;0.69063574;0.34191516;;;;;;;;;;;;;;;
1772.0;1709.6;;;;-0.10962297;0.6847802;0.33741;;;;;;;;;;;;;;;
1782.0;1719.7;;;;-0.10902025;0.6801911;0.3335152;;;;;;;;;;;;;;;
1782.0;1719.7;;;;-0.10881044;0.67779547;0.33030704;;;;;;;;;;;;;;;
1782.0;1719.7;;;;-0.10497667;0.67634207;0.32821658;;;;;;;;;;;;;;;
1782.0;1719.7;;;;-0.096820846;0.6712952;0.32866672;;;;;;;;;;;;;;;
1782.0;1719.7;;;;-0.09446718;0.6630288;0.32286456;;;;;;;;;;;;;;;
1782.0;1723.0;;;;;;;;;;;;;;;;;-37.49962;111.42307;65.87802;;1619.9
1782.0;1723.0;;;;;;;;;;;;;;-0.8069704;0.63686025;-0.28101444;;;;;1619.9
1782.0;1723.0;;;;;;;;;;;;;;;;;-36.58025;112.87652;66.97287;;1619.9
1782.0;1723.0;;;;;;;;;;;;;;-0.8523209;0.66652423;-0.32935575;;;;;1619.9
1782.0;1723.0;;;;;;;;;;;;;;;;;-37.656025;113.55174;66.66006;;1629.5
1782.0;1723.0;;;;;;;;;;;;;;-0.8768578;0.68221074;-0.354503;;;;;1629.5
1782.0;1723.0;;;;;;;;;;;;;;;;;-42.6458;110.679184;63.20765;;1629.5
1782.0;1723.0;;;;;;;;;;;;;;-0.9272744;0.67561877;-0.32618183;;;;;1629.5
1782.0;1723.0;;;;;;;;;;;;;;;;;-47.31132;100.8713;61.53676;;1639.0
1782.0;1723.0;;;;;;;;;;;;;;-0.9212928;0.65346235;-0.32886747;;;;;1639.0
1782.0;1723.0;;;;;;;;;;;;;;;;;-51.26728;94.47768;60.37324;;1639.0
1782.0;1723.0;;;;;;;;;;;;;;-0.9120762;0.58876306;-0.32941678;;;;;1639.0
1782.0;1722.5;262143;262143;12556;;;;;;;;;;;;;;;;;;
1785.0;1723.7;;;;;;;;;;;;;;;;;-52.35832;89.75494;56.39439;;1648.6
1785.0;1723.7;;;;;;;;;;;;;;-0.93527025;0.5489059;-0.32221442;;;;;1648.6
1785.0;1723.7;;;;;;;;;;;;;;;;;-50.96591;84.639275;53.994873;;1648.6
1785.0;1723.7;;;;;;;;;;;;;;-0.95870847;0.5121616;-0.32782984;;;;;1648.6
1785.0;1723.7;;;;;;;;;;;;;;;;;-48.68084;81.560715;51.477097;;1658.3
1785.0;1723.7;;;;;;;;;;;;;;-0.9862972;0.46607867;-0.34986418;;;;;1658.3
1785.0;1723.7;;;;;;;;;;;;;;;;;-43.050175;78.1579;48.886837;;1658.3
1785.0;1723.7;;;;;;;;;;;;;;-1.0179144;0.44306773;-0.35499132;;;;;1658.3
1785.0;1723.7;;;;;;;;;;;;;;;;;-35.802025;71.85201;49.4171;;1667.9
1785.0;1723.7;;;;;;;;;;;;;;-1.0361644;0.41669974;-0.3546861;;;;;1667.9
1785.0;1723.7;;;;;;;;;;;;;;;;;-28.56151;63.54335;50.75991;;1667.9
1785.0;1723.7;;;;;;;;;;;;;;-1.0374463;0.3886227;-0.3455916;;;;;1667.9
1785.0;1728.4;;;;;;;;;;;;;3086;;;;;;;;
1785.0;1728.4;;;;;;;;;;;;;1590;;;;;;;;
1785.0;1728.4;;;;;;;;;;;;;1263;;;;;;;;
1785.0;1728.4;;;;;;;;;;;;;1096;;;;;;;;
1785.0;1728.4;;;;;;;;;;;;;1079;;;;;;;;
1785.0;1729.6;;;;-0.0987816;0.65531164;0.31702426;;;;;;;;;;;;;;;
1785.0;1729.6;;;;-0.10242845;0.647564;0.31348422;;;;;;;;;;;;;;;
1785.0;1729.6;;;;-0.10454942;0.64018637;0.30887988;;;;;;;;;;;;;;;
1785.0;1729.6;;;;-0.10647966;0.63224036;0.30308536;;;;;;;;;;;;;;;
1785.0;1729.6;;;;-0.10630418;0.62484366;0.30054858;;;;;;;;;;;;;;;
1785.0;1738.6;;;;;;;;;;0.7209998;18.192846;-1.6479995;;;;;;;;;
1785.0;1738.6;;;;;;;0.33545947;-0.95559555;0.3975341;;;;;;;;;;;;
1785.0;1738.6;;;;;;;;;;6.130406;34.352394;9.552294;;;;;;;;;
1785.0;1738.6;;;;;;;0.34876552;-1.0746177;0.4494766;;;;;;;;;;;;
1831.0;1739.6;;;;-0.104526535;0.61775976;0.29687503;;;;;;;;;;;;;;;
1831.0;1739.6;;;;-0.10618211;0.6096993;0.28834155;;;;;;;;;;;;;;;
1831.0;1739.6;;;;-0.10921098;0.599968;0.27691653;;;;;;;;;;;;;;;
1831.0;1739.6;;;;-0.11339952;0.58826834;0.26176837;;;;;;;;;;;;;;;
1831.0;1739.6;;;;-0.11870958;0.5753556;0.24819186;;;;;;;;;;;;;;;
1831.0;1742.5;262143;262143;12559;;;;;;;;;;;;;;;;;;
1831.0;1748.2;;;;;;;;;;-4.276406;22.923216;5.516221;;;;;;;;;
1831.0;1748.2;;;;;;;0.3238014;-1.0643024;0.45155185;;;;;;;;;;;;
1831.0;1748.2;;;;;;;;;;-1.4877774;63.74935;18.097477;;;;;;;;;
1831.0;1748.2;;;;;;;0.291818;-1.0563066;0.45417646;;;;;;;;;;;;
1831.0;1749.7;;;;-0.124862686;0.5598832;0.2386246;;;;;;;;;;;;;;;
1831.0;1749.7;;;;-0.13113023;0.5422173;0.22961047;;;;;;;;;;;;;;;
1831.0;1749.7;;;;-0.1392708;0.5253716;0.22068408;;;;;;;;;;;;;;;
1831.0;1749.7;;;;-0.1458893;0.508915;0.21326831;;;;;;;;;;;;;;;
1831.0;1749.7;;;;-0.15071107;0.49359518;0.20761493;;;;;;;;;;;;;;;
1831.0;1757.7;;;;;;;;;;-5.714591;97.773674;27.043215;;;;;;;;;
1831.0;1757.7;;;;;;;0.2593463;-1.0561235;0.45338297;;;;;;;;;;;;
1831.0;1757.7;;;;;;;;;;-14.519181;95.377975;14.679403;;;;;;;;;
1831.0;1757.7;;;;;;;0.23065889;-1.0665609;0.45368817;;;;;;;;;;;;
1840.0;1759.7;;;;-0.15691759;0.47742087;0.19995883;;;;;;;;;;;;;;;
1840.0;1759.7;;;;-0.1625786;0.46055228;0.19512561;;;;;;;;;;;;;;;
1840.0;1759.7;;;;-0.16864015;0.4442597;0.19142154;;;;;;;;;;;;;;;
1840.0;1759.7;;;;-0.17329027;0.42750174;0.18877032;;;;;;;;;;;;;;;
1840.0;1759.7;;;;-0.17737581;0.4107514;0.1852112;;;;;;;;;;;;;;;
1840.0;1762.6;262143;262143;12547;;;;;;;;;;;;;;;;;;
1840.0;1767.3;;;;;;;;;;-17.193365;119.357895;22.251808;;;;;;;;;
1840.0;1767.3;;;;;;;0.21100497;-1.0807825;0.45362714;;;;;;;;;;;;
1840.0;1767.3;;;;;;;;;;-18.704031;124.88937;29.999695;;;;;;;;;
1840.0;1767.3;;;;;;;0.1937315;-1.1039766;0.45594653;;;;;;;;;;;;
1840.0;1768.6;;;;;;;;;;;;;1088;;;;;;;;
1840.0;1768.6;;;;;;;;;;;;;753;;;;;;;;
1840.0;1768.6;;;;;;;;;;;;;204;;;;;;;;
1840.0;1768.6;;;;;;;;;;;;;-276;;;;;;;;
1840.0;1768.6;;;;;;;;;;;;;-477;;;;;;;;
1840.0;1769.8;;;;-0.18103792;0.3928948;0.18154527;;;;;;;;;;;;;;;
1840.0;1769.8;;;;-0.18403627;0.37506872;0.17789079;;;;;;;;;;;;;;;
1840.0;1769.8;;;;-0.1878548;0.35680774;0.17559434;;;;;;;;;;;;;;;
1840.0;1769.8;;;;-0.192009;0.34001926;0.17435457;;;;;;;;;;;;;;;
1840.0;1769.8;;;;-0.19622806;0.32398227;0.17404176;;;;;;;;;;;;;;;
1840.0;1777.0;;;;;;;;;;-19.093143;124.881744;42.806026;;;;;;;;;
1840.0;1777.0;;;;;;;0.18622394;-1.1388288;0.45216224;;;;;;;;;;;;
1840.0;1777.0;;;;;;;;;;-17.227697;124.881744;52.102726;;;;;;;;;
1840.0;1777.0;;;;;;;0.17944884;-1.1761833;0.45136875;;;;;;;;;;;;
1844.0;1779.9;;;;-0.20017627;0.30920413;0.17455675;;;;;;;;;;;;;;;
1844.0;1779.9;;;;-0.20331195;0.29425052;0.17588808;;;;;;;;;;;;;;;
1844.0;1779.9;;;;-0.20546725;0.2808304;0.17821504;;;;;;;;;;;;;;;
1844.0;1779.9;;;;-0.20665362;0.26913074;0.18150713;;;;;;;;;;;;;;;
1844.0;1779.9;;;;-0.20709613;0.25790027;0.18701173;;;;;;;;;;;;;;;
1844.0;1782.8;;;;;;;;;;;;;;;;;-21.534624;55.14313;51.17954;;1677.6
1844.0;1782.8;;;;;;;;;;;;;;-1.0362865;0.37226477;-0.31629384;;;;;1677.6
1844.0;1782.8;;;;;;;;;;;;;;;;;-14.927366;46.99469;50.61495;;1677.6
1844.0;1782.8;;;;;;;;;;;;;;-1.0317698;0.37110507;-0.28107548;;;;;1677.6
1844.0;1782.8;;;;;;;;;;;;;;;;;-9.243294;39.35743;49.947353;;1687.0
1844.0;1782.8;;;;;;;;;;;;;;-1.0311594;0.3686636;-0.23883785;;;;;1687.0
1844.0;1782.8;;;;;;;;;;;;;;;;;-4.570147;31.884212;49.565872;;1687.0
1844.0;1782.8;;;;;;;;;;;;;;-1.0257882;0.36677146;-0.20447402;;;;;1687.0
1844.0;1782.8;;;;;;;;;;;;;;;;;-1.1864071;24.75814;49.359875;;1696.6
1844.0;1782.8;;;;;;;;;;;;;;-1.0218208;0.36036256;-0.16443373;;;;;1696.6
1844.0;1782.8;;;;;;;;;;;;;;;;;1.0567034;17.456587;49.207283;;1696.6
1844.0;1782.8;;;;;;;;;;;;;;-1.0003967;0.33790094;-0.1257973;;;;;1696.6
1846.0;1783.6;;;;;;;;;;;;;;;;;2.9602954;10.673849;48.615986;;1706.3
1846.0;1783.6;;;;;;;;;;;;;;-0.97384566;0.30689412;-0.0949736;;;;;1706.3
1846.0;1783.6;;;;;;;;;;;;;;;;;6.4737387;4.337443;47.98654;;1706.3
1846.0;1783.6;;;;;;;;;;;;;;-0.93777275;0.28510392;-0.06439406;;;;;1706.3
1846.0;1783.6;;;;;;;;;;;;;;;;;11.581775;-1.7166661;47.82632;;1715.9
1846.0;1783.6;;;;;;;;;;;;;;-0.8973662;0.27130955;-0.03521836;;;;;1715.9
1846.0;1783.6;;;;;;;;;;;;;;;;;17.555773;-8.461257;48.200172;;1715.9
1846.0;1783.6;;;;;;;;;;;;;;-0.852443;0.263802;-0.0050660726;;;;;1715.9
1846.0;1783.6;;;;;;;;;;;;;;;;;22.858364;-16.07181;48.955505;;1725.6
1846.0;1783.6;;;;;;;;;;;;;;-0.8080691;0.26722008;0.06207465;;;;;1725.6
1846.0;1783.6;;;;;;;;;;;;;;;;;27.985474;-25.147251;49.81002;;1725.6
1846.0;1783.6;;;;;;;;;;;;;;-0.75411236;0.26276436;0.12604144;;;;;1725.6
1846.0;1782.8;262143;262143;12558;;;;;;;;;;;;;;;;;;
1846.0;1786.4;;;;;;;;;;-14.137699;124.881744;54.29243;;;;;;;;;
1846.0;1786.4;;;;;;;0.18066958;-1.2153691;0.44923246;;;;;;;;;;;;
1846.0;1786.4;;;;;;;;;;-11.2880335;124.881744;56.737724;;;;;;;;;
1846.0;1786.4;;;;;;;0.1820124;-1.2585223;0.44959867;;;;;;;;;;;;
1846.0;1789.8;;;;-0.20996478;0.24712756;0.18941882;;;;;;;;;;;;;;;
1846.0;1789.8;;;;-0.21675494;0.23797992;0.19128421;;;;;;;;;;;;;;;
1846.0;1789.8;;;;-0.2237244;0.23128131;0.19403079;;;;;;;;;;;;;;;
1846.0;1789.8;;;;-0.22975162;0.22620013;0.19724658;;;;;;;;;;;;;;;
1846.0;1789.8;;;;-0.2323418;0.22404864;0.20279315;;;;;;;;;;;;;;;
1894.0;1796.0;;;;;;;;;;-8.636738;124.881744;59.144875;;;;;;;;;
1894.0;1796.0;;;;;;;0.18402661;-1.3066806;0.45319986;;;;;;;;;;;;
1894.0;1796.0;;;;;;;;;;-6.2906275;124.881744;61.437572;;;;;;;;;
1894.0;1796.0;;;;;;;0.19910276;-1.3542284;0.4547258;;;;;;;;;;;;
1894.0;1799.8;;;;-0.2335892;0.22380832;0.20828632;;;;;;;;;;;;;;;
1894.0;1799.8;;;;-0.23804477;0.22615817;0.21143726;;;;;;;;;;;;;;;
1894.0;1799.8;;;;-0.2448006;0.23070529;0.21398929;;;;;;;;;;;;;;;
1894.0;1799.8;;;;-0.25098422;0.23697284;0.2178345;;;;;;;;;;;;;;;
1894.0;1799.8;;;;-0.25439838;0.2458153;0.22399905;;;;;;;;;;;;;;;
1894.0;1802.9;262143;262143;12553;;;;;;;;;;;;;;;;;;
1894.0;1805.5;;;;;;;;;;-4.402295;124.78637;63.005463;;;;;;;;;
1894.0;1805.5;;;;;;;0.20233771;-1.3868831;0.4664449;;;;;;;;;;;;
1894.0;1805.5;;;;;;;;;;-2.212592;121.64296;64.55046;;;;;;;;;
1894.0;1805.5;;;;;;;0.20233771;-1.4134953;0.47840816;;;;;;;;;;;;
1894.0;1808.8;;;;;;;;;;;;;-546;;;;;;;;
1894.0;1808.8;;;;;;;;;;;;;-750;;;;;;;;
1894.0;1808.8;;;;;;;;;;;;;-1092;;;;;;;;
1894.0;1808.8;;;;;;;;;;;;;-1488;;;;;;;;
1894.0;1808.8;;;;;;;;;;;;;-1820;;;;;;;;
1894.0;1809.8;;;;-0.26017383;0.2563019;0.22655109;;;;;;;;;;;;;;;
1894.0;1809.8;;;;-0.2677193;0.2710953;0.22804645;;;;;;;;;;;;;;;
1894.0;1809.8;;;;-0.27326587;0.28818515;0.23203662;;;;;;;;;;;;;;;
1894.0;1809.8;;;;-0.2800446;0.30735782;0.23832324;;;;;;;;;;;;;;;
1894.0;1809.8;;;;-0.28762057;0.330246;0.24399951;;;;;;;;;;;;;;;
1896.0;1815.0;;;;;;;;;;0.33951843;112.31193;65.60717;;;;;;;;;
1896.0;1815.0;;;;;;;0.20398572;-1.4391918;0.49604785;;;;;;;;;;;;
1896.0;1815.0;;;;;;;;;;3.4943693;101.588486;65.97339;;;;;;;;;
1896.0;1815.0;;;;;;;0.21430098;-1.45909;0.51582384;;;;;;;;;;;;
1896.0;1819.8;;;;-0.2967148;0.3574982;0.2489014;;;;;;;;;;;;;;;
1896.0;1819.8;;;;-0.30598453;0.3890801;0.258976;;;;;;;;;;;;;;;
1896.0;1819.8;;;;-0.31408694;0.42621237;0.2707024;;;;;;;;;;;;;;;
1896.0;1819.8;;;;-0.32250217;0.46674734;0.28379825;;;;;;;;;;;;;;;
1896.0;1819.8;;;;-0.33431628;0.5095635;0.2971535;;;;;;;;;;;;;;;
1896.0;1822.9;262143;262143;12540;;;;;;;;;;;;;;;;;;
1896.0;1824.6;;;;;;;;;;6.9505906;91.128265;65.14558;;;;;;;;;
1896.0;1824.6;;;;;;;0.22199164;-1.4682455;0.5348064;;;;;;;;;;;;
1896.0;1824.6;;;;;;;;;;10.700553;79.94323;63.82183;;;;;;;;;
1896.0;1824.6;;;;;;;0.22894986;-1.4697714;0.5498215;;;;;;;;;;;;
1896.0;1829.9;;;;-0.3479233;0.55496603;0.31079486;;;;;;;;;;;;;;;
1896.0;1829.9;;;;-0.3595505;0.60168463;0.3269005;;;;;;;;;;;;;;;
1896.0;1829.9;;;;-0.37377933;0.64752203;0.33952716;;;;;;;;;;;;;;;
1896.0;1829.9;;;;-0.3877297;0.6934243;0.35343173;;;;;;;;;;;;;;;
1896.0;1829.9;;;;-0.40123755;0.7398606;0.36865237;;;;;;;;;;;;;;;
1896.0;1834.2;;;;;;;;;;14.595477;68.37672;62.41798;;;;;;;;;
1896.0;1834.2;;;;;;;0.24164556;-1.4787439;0.5579394;;;;;;;;;;;;
1896.0;1834.2;;;;;;;;;;18.761253;56.302834;61.067535;;;;;;;;;
1896.0;1834.2;;;;;;;0.25592822;-1.4783165;0.5644093;;;;;;;;;;;;
1898.0;1840.1;;;;-0.4153443;0.7878915;0.38787848;;;;;;;;;;;;;;;
1898.0;1840.1;;;;-0.43078238;0.83638775;0.40466696;;;;;;;;;;;;;;;
1898.0;1840.1;;;;-0.44655234;0.8840257;0.42059714;;;;;;;;;;;;;;;
1898.0;1840.1;;;;-0.4607392;0.9303094;0.43284613;;;;;;;;;;;;;;;
1898.0;1840.1;;;;-0.47404486;0.97529995;0.44302374;;;;;;;;;;;;;;;
1898.0;1843.0;;;;;;;;;;;;;;;;;37.396618;-34.6881;50.71413;;1735.3
1898.0;1843.0;;;;;;;;;;;;;;-0.7021088;0.2565386;0.15839106;;;;;1735.3
1898.0;1843.0;;;;;;;;;;;;;;;;;49.279766;-42.989136;51.69454;;1735.3
1898.0;1843.0;;;;;;;;;;;;;;-0.65004426;0.25794244;0.17029329;;;;;1735.3
1898.0;1843.0;;;;;;;;;;;;;;;;;53.971985;-48.085728;51.347393;;1745.0
1898.0;1843.0;;;;;;;;;;;;;;-0.63777584;0.2450026;0.22199164;;;;;1745.0
1898.0;1843.0;;;;;;;;;;;;;;;;;51.48854;-49.7528;49.565872;;1745.0
1898.0;1843.0;;;;;;;;;;;;;;-0.6263009;0.23334453;0.28382215;;;;;1745.0
1898.0;1843.0;;;;;;;;;;;;;;;;;49.01273;-45.6061;47.00995;;1754.7
1898.0;1843.0;;;;;;;;;;;;;;-0.62153995;0.2365795;0.32642597;;;;;1754.7
1898.0;1843.0;;;;;;;;;;;;;;;;;54.635765;-37.86584;43.43547;;1754.7
1898.0;1843.0;;;;;;;;;;;;;;-0.6423536;0.23035371;0.28058717;;;;;1754.7
1898.0;1843.7;;;;;;;;;;23.350475;44.137398;60.083313;;;;;;;;;
1898.0;1843.7;;;;;;;0.26386303;-1.4749596;0.56178474;;;;;;;;;;;;
1898.0;1843.7;;;;;;;;;;27.848139;31.994843;59.167763;;;;;;;;;
1898.0;1843.7;;;;;;;0.27240822;-1.4726402;0.5500046;;;;;;;;;;;;
1898.0;1843.1;262143;262143;12545;;;;;;;;;;;;;;;;;;
1899.0;1844.2;;;;;;;;;;;;;;;;;70.41764;-32.06351;38.674583;;1764.2
1899.0;1844.2;;;;;;;;;;;;;;-0.67903686;0.25104526;0.18115787;;;;;1764.2
1899.0;1844.2;;;;;;;;;;;;;;;;;90.04486;-31.548508;33.59325;;1764.2
1899.0;1844.2;;;;;;;;;;;;;;-0.6997894;0.2956023;0.09430219;;;;;1764.2
1899.0;1844.2;;;;;;;;;;;;;;;;;102.57271;-34.638508;27.859583;;1773.9
1899.0;1844.2;;;;;;;;;;;;;;-0.70595413;0.39436018;0.11334574;;;;;1773.9
1899.0;1844.2;;;;;;;;;;;;;;;;;98.8876;-33.906063;21.935179;;1773.9
1899.0;1844.2;;;;;;;;;;;;;;-0.6866665;0.46021912;0.10669271;;;;;1773.9
1899.0;1844.2;;;;;;;;;;;;;;;;;93.46675;-23.167364;17.59392;;1783.5
1899.0;1844.2;;;;;;;;;;;;;;-0.6895352;0.4756615;-0.0112308115;;;;;1783.5
1899.0;1844.2;;;;;;;;;;;;;;;;;100.245674;-9.571368;14.618366;;1783.5
1899.0;1844.2;;;;;;;;;;;;;;-0.69484544;0.53511155;-0.23364972;;;;;1783.5
1899.0;1848.9;;;;;;;;;;;;;-1965;;;;;;;;
1899.0;1848.9;;;;;;;;;;;;;-1907;;;;;;;;
1899.0;1848.9;;;;;;;;;;;;;-1771;;;;;;;;
1899.0;1848.9;;;;;;;;;;;;;-1696;;;;;;;;
1899.0;1848.9;;;;;;;;;;;;;-1638;;;;;;;;
1899.0;1849.8;;;;-0.48947912;1.023285;0.45927817;;;;;;;;;;;;;;;
1899.0;1849.8;;;;-0.50220495;1.0722619;0.47525793;;;;;;;;;;;;;;;
1899.0;1849.8;;;;-0.5097771;1.120701;0.4912339;;;;;;;;;;;;;;;
1899.0;1849.8;;;;-0.5131913;1.1666414;0.5034333;;;;;;;;;;;;;;;
1899.0;1849.8;;;;-0.5130158;1.2101327;0.51245505;;;;;;;;;;;;;;;
1899.0;1853.2;;;;;;;;;;31.888027;19.333477;56.83691;;;;;;;;;
1899.0;1853.2;;;;;;;0.2755211;-1.4680624;0.5314493;;;;;;;;;;;;
1899.0;1853.2;;;;;;;;;;35.340435;5.4361095;52.964874;;;;;;;;;
1899.0;1853.2;;;;;;;0.26606035;-1.4511551;0.504532;;;;;;;;;;;;
2014.0;1859.9;;;;-0.510624;1.2520524;0.51443106;;;;;;;;;;;;;;;
2014.0;1859.9;;;;-0.50591284;1.2914773;0.5087815;;;;;;;;;;;;;;;
2014.0;1859.9;;;;-0.4953881;1.3290178;0.49611288;;;;;;;;;;;;;;;
2014.0;1859.9;;;;-0.47959524;1.3646928;0.47866827;;;;;;;;;;;;;;;
2014.0;1859.9;;;;-0.457882;1.3994981;0.4600144;;;;;;;;;;;;;;;
2014.0;1862.7;;;;;;;;;;38.548695;-9.304331;49.432358;;;;;;;;;
2014.0;1862.7;;;;;;;0.2552568;-1.4186224;0.47413558;;;;;;;;;;;;
2014.0;1862.7;;;;;;;;;;41.718803;-23.823511;46.2241;;;;;;;;;
2014.0;1862.7;;;;;;;0.25208288;-1.3656423;0.4308603;;;;;;;;;;;;
2014.0;1863.1;262143;262143;12543;;;;;;;;;;;;;;;;;;
2014.0;1869.9;;;;-0.4357987;1.4332315;0.43825537;;;;;;;;;;;;;;;
2014.0;1869.9;;;;-0.41606528;1.4639779;0.4156342;;;;;;;;;;;;;;;
2014.0;1869.9;;;;-0.39825827;1.4901696;0.3902436;;;;;;;;;;;;;;;
2014.0;1869.9;;;;-0.3741608;1.5216067;0.36721042;;;;;;;;;;;;;;;
2014.0;1869.9;;;;-0.34938815;1.5523074;0.3461571;;;;;;;;;;;;;;;
2014.0;1872.3;;;;;;;;;;44.225136;-38.21299;42.405468;;;;;;;;;
2014.0;1872.3;;;;;;;0.24939726;-1.2985625;0.38587603;;;;;;;;;;;;
2014.0;1872.3;;;;;;;;;;45.97995;-52.201912;38.251137;;;;;;;;;
2014.0;1872.3;;;;;;;0.25074008;-1.2313608;0.33973205;;;;;;;;;;;;
2016.0;1880.0;;;;-0.32571796;1.5834467;0.32431033;;;;;;;;;;;;;;;
2016.0;1880.0;;;;-0.30492404;1.6182253;0.30614093;;;;;;;;;;;;;;;
2016.0;1880.0;;;;-0.2878113;1.6506846;0.28818133;;;;;;;;;;;;;;;
2016.0;1880.0;;;;-0.271843;1.6772768;0.2748566;;;;;;;;;;;;;;;
2016.0;1880.0;;;;-0.25651935;1.7005236;0.26668933;;;;;;;;;;;;;;;
2016.0;1881.9;;;;;;;;;;47.055725;-64.92813;33.66192;;;;;;;;;
2016.0;1881.9;;;;;;;0.25586718;-1.1632435;0.29602954;;;;;;;;;;;;
2016.0;1881.9;;;;;;;;;;47.54402;-75.7889;28.801844;;;;;;;;;
2016.0;1881.9;;;;;;;0.25830868;-1.0979339;0.25324258;;;;;;;;;;;;
2016.0;1883.3;262143;262143;12534;;;;;;;;;;;;;;;;;;
2016.0;1889.2;;;;;;;;;;;;;-1490;;;;;;;;
2016.0;1889.2;;;;;;;;;;;;;-1231;;;;;;;;
2016.0;1889.2;;;;;;;;;;;;;-917;;;;;;;;
2016.0;1889.2;;;;;;;;;;;;;-545;;;;;;;;
2016.0;1889.2;;;;;;;;;;;;;-105;;;;;;;;
2016.0;1890.1;;;;-0.2437363;1.7232058;0.26043323;;;;;;;;;;;;;;;
2016.0;1890.1;;;;-0.23352054;1.7439959;0.2579346;;;;;;;;;;;;;;;
2016.0;1890.1;;;;-0.22498325;1.767544;0.25511172;;;;;;;;;;;;;;;
2016.0;1890.1;;;;-0.2207146;1.7941248;0.25048068;;;;;;;;;;;;;;;
2016.0;1890.1;;;;-0.21862033;1.8172534;0.24507907;;;;;;;;;;;;;;;
2016.0;1891.5;;;;;;;;;;47.528763;-85.06271;24.018068;;;;;;;;;
2016.0;1891.5;;;;;;;0.26722008;-1.0276803;0.21399578;;;;;;;;;;;;
2016.0;1891.5;;;;;;;;;;47.292244;-92.43675;19.318218;;;;;;;;;
2016.0;1891.5;;;;;;;0.2757042;-0.9640187;0.18066958;;;;;;;;;;;;
2018.0;1900.2;;;;-0.21720126;1.8365405;0.23922732;;;;;;;;;;;;;;;
2018.0;1900.2;;;;-0.21609882;1.8498919;0.22914508;;;;;;;;;;;;;;;
2018.0;1900.2;;;;-0.21088412;1.8594058;0.22204211;;;;;;;;;;;;;;;
2018.0;1900.2;;;;-0.20538333;1.865845;0.21703342;;;;;;;;;;;;;;;
2018.0;1900.2;;;;-0.20088962;1.8685954;0.21384433;;;;;;;;;;;;;;;
2018.0;1901.1;;;;;;;;;;47.025208;-98.33827;14.492477;;;;;;;;;
2018.0;1901.1;;;;;;;0.27680287;-0.9153722;0.15466781;;;;;;;;;;;;
2018.0;1901.1;;;;;;;;;;46.964172;-102.96945;9.647664;;;;;;;;;
2018.0;1901.1;;;;;;;0.27918333;-0.8746605;0.13330485;;;;;;;;;;;;
2018.0;1903.3;;;;;;;;;;;;;;;;;116.664635;0.11444441;16.037477;;1793.1
2018.0;1903.3;;;;;;;;;;;;;;-0.6513871;0.6684774;-0.5580615;;;;;1793.1
2018.0;1903.3;;;;;;;;;;;;;;;;;124.85122;11.799219;21.202734;;1793.1
2018.0;1903.3;;;;;;;;;;;;;;-0.5615406;0.8816187;-0.8993194;;;;;1793.1
2018.0;1903.3;;;;;;;;;;;;;;;;;124.988556;28.36314;24.781029;;1802.8
2018.0;1903.3;;;;;;;;;;;;;;-0.49208045;1.1324198;-1.1270486;;;;;1802.8
2018.0;1903.3;;;;;;;;;;;;;;;;;124.988556;35.309914;23.716698;;1802.8
2018.0;1903.3;;;;;;;;;;;;;;-0.5442061;1.3395184;-1.1941283;;;;;1802.8
2018.0;1903.3;;;;;;;;;;;;;;;;;121.925255;15.457625;12.649922;;1812.4
2018.0;1903.3;;;;;;;;;;;;;;-0.6493728;1.4238105;-1.1049532;;;;;1812.4
2018.0;1903.3;;;;;;;;;;;;;;;;;83.57112;-23.83114;-7.194739;;1812.4
2018.0;1903.3;;;;;;;;;;;;;;-0.7180395;1.2422254;-0.88381606;;;;;1812.4
2018.0;1903.4;262143;262143;12536;;;;;;;;;;;;;;;;;;
2020.0;1904.4;;;;;;;;;;;;;;;;;24.193548;-41.062653;-25.77288;;1822.0
2020.0;1904.4;;;;;;;;;;;;;;-0.67030853;0.9182409;-0.55488753;;;;;1822.0
2020.0;1904.4;;;;;;;;;;;;;;;;;-2.578814;-28.099916;-33.9938;;1822.0
2020.0;1904.4;;;;;;;;;;;;;;-0.57618946;0.9112217;-0.2973113;;;;;1822.0
2020.0;1904.4;;;;;;;;;;;;;;;;;14.347514;-9.128849;-32.219917;;1831.6
2020.0;1904.4;;;;;;;;;;;;;;-0.5360271;0.98727375;-0.05835139;;;;;1831.6
2020.0;1904.4;;;;;;;;;;;;;;;;;19.402143;-0.057222206;-33.413956;;1831.6
2020.0;1904.4;;;;;;;;;;;;;;-0.5832698;0.95126194;0.06317332;;;;;1831.6
2020.0;1904.4;;;;;;;;;;;;;;;;;2.2354808;3.9902954;-41.684467;;1841.2
2020.0;1904.4;;;;;;;;;;;;;;-0.7021699;0.850734;-0.0145268105;;;;;1841.2
2020.0;1904.4;;;;;;;;;;;;;;;;;-5.7641835;19.558548;-51.889095;;1841.2
2020.0;1904.4;;;;;;;;;;;;;;-0.94137394;0.8365123;-0.20966215;;;;;1841.2
2020.0;1910.1;;;;-0.19393542;1.868912;0.21105197;;;;;;;;;;;;;;;
2020.0;1910.1;;;;-0.1819153;1.8648951;0.20594028;;;;;;;;;;;;;;;
2020.0;1910.1;;;;-0.17040636;1.8559268;0.20081332;;;;;;;;;;;;;;;
2020.0;1910.1;;;;-0.15567018;1.846432;0.20778659;;;;;;;;;;;;;;;
2020.0;1910.1;;;;-0.14154436;1.8314326;0.20557407;;;;;;;;;;;;;;;
2020.0;1910.5;;;;;;;;;;46.8688;-105.6856;4.3908505;;;;;;;;;
2020.0;1910.5;;;;;;;0.28070924;-0.8483535;0.11535997;;;;;;;;;;;;
2020.0;1910.5;;;;;;;;;;46.69332;-107.00171;-1.209296;;;;;;;;;
2020.0;1910.5;;;;;;;0.27307963;-0.8420667;0.101260416;;;;;;;;;;;;
2020.0;1920.0;;;;;;;;;;46.37669;-107.161934;-6.6759243;;;;;;;;;
2020.0;1920.0;;;;;;;0.27051607;-0.84377575;0.09173864;;;;;;;;;;;;
2020.0;1920.0;;;;;;;;;;45.865505;-106.25019;-11.825923;;;;;;;;;
2020.0;1920.0;;;;;;;0.2682577;-0.85366374;0.07916501;;;;;;;;;;;;
2022.0;1920.1;;;;-0.13159563;1.8132517;0.20237353;;;;;;;;;;;;;;;
2022.0;1920.1;;;;-0.11800386;1.7977831;0.20043185;;;;;;;;;;;;;;;
2022.0;1920.1;;;;-0.10896684;1.7874072;0.19815448;;;;;;;;;;;;;;;
2022.0;1920.1;;;;-0.10084154;1.7854922;0.19412997;;;;;;;;;;;;;;;
2022.0;1920.1;;;;-0.091686256;1.7894328;0.1889191;;;;;;;;;;;;;;;
2022.0;1923.4;262143;262143;12540;;;;;;;;;;;;;;;;;;
2022.0;1929.3;;;;;;;;;;;;;226;;;;;;;;
2022.0;1929.3;;;;;;;;;;;;;333;;;;;;;;
2022.0;1929.3;;;;;;;;;;;;;340;;;;;;;;
2022.0;1929.3;;;;;;;;;;;;;407;;;;;;;;
2022.0;1929.3;;;;;;;;;;;;;459;;;;;;;;
2022.0;1929.6;;;;;;;;;;44.999542;-104.64416;-16.640219;;;;;;;;;
2022.0;1929.6;;;;;;;0.26288643;-0.8675802;0.07318339;;;;;;;;;;;;
2022.0;1929.6;;;;;;;;;;43.801693;-102.30567;-20.840326;;;;;;;;;
2022.0;1929.6;;;;;;;0.2544023;-0.87874997;0.06994843;;;;;;;;;;;;
2022.0;1930.2;;;;-0.08563233;1.7973444;0.1818886;;;;;;;;;;;;;;;
2022.0;1930.2;;;;-0.078331;1.8048594;0.17547227;;;;;;;;;;;;;;;
2022.0;1930.2;;;;-0.06718064;1.8106349;0.17310335;;;;;;;;;;;;;;;
2022.0;1930.2;;;;-0.056953438;1.8129694;0.16982652;;;;;;;;;;;;;;;
2022.0;1930.2;;;;-0.05010987;1.813515;0.16679765;;;;;;;;;;;;;;;
2022.0;1939.2;;;;;;;;;;42.378765;-99.49797;-24.651327;;;;;;;;;
2022.0;1939.2;;;;;;;0.24439223;-0.89059114;0.06762902;;;;;;;;;;;;
2022.0;1939.2;;;;;;;;;;40.753654;-96.36983;-28.084658;;;;;;;;;
2022.0;1939.2;;;;;;;0.23505355;-0.9032258;0.067079686;;;;;;;;;;;;
2023.0;1940.3;;;;-0.044635776;1.8116839;0.16609193;;;;;;;;;;;;;;;
2023.0;1940.3;;;;-0.038349155;1.8102152;0.16788484;;;;;;;;;;;;;;;
2023.0;1940.3;;;;-0.032646183;1.8067744;0.17111208;;;;;;;;;;;;;;;
2023.0;1940.3;;;;-0.028091434;1.8010027;0.1750374;;;;;;;;;;;;;;;
2023.0;1940.3;;;;-0.027843479;1.7934916;0.17921449;;;;;;;;;;;;;;;
2023.0;1943.6;262143;262143;12553;;;;;;;;;;;;;;;;;;
2023.0;1948.8;;;;;;;;;;39.07132;-92.89071;-31.21662;;;;;;;;;
2023.0;1948.8;;;;;;;0.2285226;-0.9160436;0.06756798;;;;;;;;;;;;
2023.0;1948.8;;;;;;;;;;37.549213;-88.88897;-34.00525;;;;;;;;;
2023.0;1948.8;;;;;;;0.22717978;-0.9295938;0.06903287;;;;;;;;;;;;
2023.0;1950.4;;;;-0.033988956;1.7780726;0.17961885;;;;;;;;;;;;;;;
2023.0;1950.4;;;;-0.039485935;1.7534106;0.1798401;;;;;;;;;;;;;;;
2023.0;1950.4;;;;-0.04584122;1.7243006;0.18082048;;;;;;;;;;;;;;;
2023.0;1950.4;;;;-0.053394325;1.6937563;0.18363573;;;;;;;;;;;;;;;
2023.0;1950.4;;;;-0.062492378;1.6655962;0.1880379;;;;;;;;;;;;;;;
2023.0;1958.5;;;;;;;;;;36.03473;-84.86435;-36.62221;;;;;;;;;
2023.0;1958.5;;;;;;;0.23157445;-0.9449141;0.07574694;;;;;;;;;;;;
2023.0;1958.5;;;;;;;;;;34.78347;-80.973236;-38.93399;;;;;;;;;
2023.0;1958.5;;;;;;;0.23194067;-0.9548021;0.08600116;;;;;;;;;;;;
2072.0;1960.5;;;;-0.0773964;1.6407702;0.19270328;;;;;;;;;;;;;;;
2072.0;1960.5;;;;-0.09882356;1.6186564;0.19859698;;;;;;;;;;;;;;;
2072.0;1960.5;;;;-0.12174226;1.6013377;0.20393756;;;;;;;;;;;;;;;
2072.0;1960.5;;;;-0.14652635;1.5835612;0.21158603;;;;;;;;;;;;;;;
2072.0;1960.5;;;;-0.17100526;1.565346;0.22053912;;;;;;;;;;;;;;;
2072.0;1963.8;;;;;;;;;;;;;;;;;-2.8954437;37.85821;-68.94894;;1850.9
2072.0;1963.8;;;;;;;;;;;;;;-1.2965484;0.86031675;-0.45118564;;;;;1850.9
2072.0;1963.8;;;;;;;;;;;;;;;;;-6.725517;44.57991;-97.51808;;1850.9
2072.0;1963.8;;;;;;;;;;;;;;-1.6006958;0.93508714;-0.5747856;;;;;1850.9
2072.0;1963.8;;;;;;;;;;;;;;;;;-25.730919;40.555283;-121.23478;;1860.5
2072.0;1963.8;;;;;;;;;;;;;;-1.779229;0.92684716;-0.55238503;;;;;1860.5
2072.0;1963.8;;;;;;;;;;;;;;;;;-47.99417;36.500137;-124.988556;;1860.5
2072.0;1963.8;;;;;;;;;;;;;;-1.8513138;0.8410291;-0.35438094;;;;;1860.5
2072.0;1963.8;;;;;;;;;;;;;;;;;-46.178318;15.598773;-124.988556;;1870.0
2072.0;1963.8;;;;;;;;;;;;;;-1.838374;0.73427534;-0.09253212;;;;;1870.0
2072.0;1963.8;;;;;;;;;;;;;;;;;-7.6677756;-21.805475;-112.006744;;1870.0
2072.0;1963.8;;;;;;;;;;;;;;-1.5849483;0.676046;-0.09241005;;;;;1870.0
2072.0;1963.9;262143;262143;12561;;;;;;;;;;;;;;;;;;
2074.0;1965.0;;;;;;;;;;;;;;;;;17.220068;-27.82525;-63.680687;;1879.7
2074.0;1965.0;;;;;;;;;;;;;;-1.1286966;0.6427198;-0.049195837;;;;;1879.7
2074.0;1965.0;;;;;;;;;;;;;;;;;14.633626;-33.80688;-50.534836;;1879.7
2074.0;1965.0;;;;;;;;;;;;;;-0.8690451;0.71877193;-0.026367992;;;;;1879.7
2074.0;1965.0;;;;;;;;;;;;;;;;;14.408551;-39.429913;-46.189762;;1889.4
2074.0;1965.0;;;;;;;;;;;;;;-0.72634053;0.76888335;-0.054200873;;;;;1889.4
2074.0;1965.0;;;;;;;;;;;;;;;;;16.006958;-27.12714;-34.661396;;1889.4
2074.0;1965.0;;;;;;;;;;;;;;-0.6494339;0.8169805;-0.0397351;;;;;1889.4
2074.0;1965.0;;;;;;;;;;;;;;;;;20.527512;-12.596515;-21.771143;;1899.1
2074.0;1965.0;;;;;;;;;;;;;;-0.5889462;0.87508774;-0.08978546;;;;;1899.1
2074.0;1965.0;;;;;;;;;;;;;;;;;20.87466;4.2954803;-8.339183;;1899.1
2074.0;1965.0;;;;;;;;;;;;;;-0.55635244;0.86269724;-0.22003846;;;;;1899.1
2074.0;1967.9;;;;;;;;;;33.478806;-76.83417;-40.601063;;;;;;;;;
2074.0;1967.9;;;;;;;0.23157445;-0.9657887;0.09424116;;;;;;;;;;;;
2074.0;1967.9;;;;;;;;;;32.082584;-71.58498;-41.657764;;;;;;;;;
2074.0;1967.9;;;;;;;0.23419905;-0.9772637;0.1010773;;;;;;;;;;;;
2074.0;1969.7;;;;;;;;;;;;;248;;;;;;;;
2074.0;1969.7;;;;;;;;;;;;;-133;;;;;;;;
2074.0;1969.7;;;;;;;;;;;;;-312;;;;;;;;
2074.0;1969.7;;;;;;;;;;;;;-162;;;;;;;;
2074.0;1969.7;;;;;;;;;;;;;93;;;;;;;;
2074.0;1970.4;;;;-0.19612506;1.5475657;0.23043063;;;;;;;;;;;;;;;
2074.0;1970.4;;;;-0.2182503;1.5328028;0.24338916;;;;;;;;;;;;;;;
2074.0;1970.4;;;;-0.23220065;1.5197031;0.2586632;;;;;;;;;;;;;;;
2074.0;1970.4;;;;-0.25410846;1.5082285;0.27160266;;;;;;;;;;;;;;;
2074.0;1970.4;;;;-0.2728081;1.4992677;0.28639224;;;;;;;;;;;;;;;
2078.0;1977.5;;;;;;;;;;30.766472;-65.98483;-42.378765;;;;;;;;;
2078.0;1977.5;;;;;;;0.24262215;-0.9897763;0.11017182;;;;;;;;;;;;
2078.0;1977.5;;;;;;;;;;29.648733;-60.308388;-42.989136;;;;;;;;;
2078.0;1977.5;;;;;;;0.2527543;-0.99899286;0.11859493;;;;;;;;;;;;
2078.0;1980.5;;;;-0.29473498;1.4908334;0.299408;;;;;;;;;;;;;;;
2078.0;1980.5;;;;-0.31089404;1.4827272;0.31348422;;;;;;;;;;;;;;;
2078.0;1980.5;;;;-0.32216647;1.4766237;0.32994464;;;;;;;;;;;;;;;
2078.0;1980.5;;;;-0.33338168;1.4666902;0.34230426;;;;;;;;;;;;;;;
2078.0;1980.5;;;;-0.34682086;1.458439;0.35480502;;;;;;;;;;;;;;;
2078.0;1984.0;262143;262143;12566;;;;;;;;;;;;;;;;;;
2078.0;1987.1;;;;;;;;;;28.622547;-55.15839;-43.519398;;;;;;;;;
2078.0;1987.1;;;;;;;0.26081118;-1.0035707;0.1262856;;;;;;;;;;;;
2078.0;1987.1;;;;;;;;;;27.409435;-50.660725;-43.77499;;;;;;;;;
2078.0;1987.1;;;;;;;0.26734215;-1.0032045;0.12970367;;;;;;;;;;;;
2078.0;1990.6;;;;-0.35699847;1.450329;0.36646655;;;;;;;;;;;;;;;
2078.0;1990.6;;;;-0.3697777;1.4423715;0.37705237;;;;;;;;;;;;;;;
2078.0;1990.6;;;;-0.38041693;1.4353334;0.38872534;;;;;;;;;;;;;;;
2078.0;1990.6;;;;-0.38693625;1.428238;0.40362936;;;;;;;;;;;;;;;
2078.0;1990.6;;;;-0.39514548;1.4176522;0.41387182;;;;;;;;;;;;;;;
2078.0;1996.2;;;;;;;;;;26.036104;-46.514023;-43.889435;;;;;;;;;
2078.0;1996.2;;;;;;;0.26557207;-1.00412;0.13715018;;;;;;;;;;;;
2078.0;1996.2;;;;;;;;;;24.834436;-43.35536;-43.248543;;;;;;;;;
2078.0;1996.2;;;;;;;0.25513473;-0.9889828;0.14233834;;;;;;;;;;;;
2080.0;2000.1;;;;-0.4004212;1.4061052;0.4242745;;;;;;;;;;;;;;;
2080.0;2000.1;;;;-0.40694815;1.3920747;0.42800528;;;;;;;;;;;;;;;
2080.0;2000.1;;;;-0.4091378;1.3761064;0.43194968;;;;;;;;;;;;;;;
2080.0;2000.1;;;;-0.41021353;1.3603402;0.43319708;;;;;;;;;;;;;;;
2080.0;2000.1;;;;-0.40810782;1.3439943;0.4329949;;;;;;;;;;;;;;;
2080.0;2003.6;262143;262143;12563;;;;;;;;;;;;;;;;;;
2080.0;2005.8;;;;;;;;;;23.880733;-41.032135;-41.70736;;;;;;;;;
2080.0;2005.8;;;;;;;0.25415814;-0.9771416;0.14197211;;;;;;;;;;;;
2080.0;2005.8;;;;;;;;;;22.804956;-39.46806;-41.070282;;;;;;;;;
2080.0;2005.8;;;;;;;0.25202185;-0.96169925;0.13940856;;;;;;;;;;;;
2080.0;2009.5;;;;;;;;;;;;;211;;;;;;;;
2080.0;2009.5;;;;;;;;;;;;;218;;;;;;;;
2080.0;2009.5;;;;;;;;;;;;;358;;;;;;;;
2080.0;2009.5;;;;;;;;;;;;;647;;;;;;;;
2080.0;2009.5;;;;;;;;;;;;;864;;;;;;;;
2080.0;2010.2;;;;-0.40500647;1.3271142;0.43157202;;;;;;;;;;;;;;;
2080.0;2010.2;;;;-0.4001351;1.3106843;0.4296227;;;;;;;;;;;;;;;
2080.0;2010.2;;;;-0.3922196;1.2946359;0.42643744;;;;;;;;;;;;;;;
2080.0;2010.2;;;;-0.38949972;1.2762071;0.41922766;;;;;;;;;;;;;;;
2080.0;2010.2;;;;-0.38676077;1.2584611;0.41213232;;;;;;;;;;;;;;;
2080.0;2015.4;;;;;;;;;;21.60329;-38.36558;-40.5858;;;;;;;;;
2080.0;2015.4;;;;;;;0.24048586;-0.94717246;0.13934751;;;;;;;;;;;;
2080.0;2015.4;;;;;;;;;;20.424513;-37.717064;-39.620655;;;;;;;;;
2080.0;2015.4;;;;;;;0.23554185;-0.9290445;0.1380047;;;;;;;;;;;;
2083.0;2020.3;;;;-0.3835259;1.2407838;0.40408713;;;;;;;;;;;;;;;
2083.0;2020.3;;;;-0.37945563;1.2247087;0.39571387;;;;;;;;;;;;;;;
2083.0;2020.3;;;;-0.37489322;1.2092973;0.38415915;;;;;;;;;;;;;;;
2083.0;2020.3;;;;-0.36979678;1.1931001;0.37146762;;;;;;;;;;;;;;;
2083.0;2020.3;;;;-0.3674431;1.1746789;0.3567696;;;;;;;;;;;;;;;
2083.0;2023.6;;;;;;;;;;;;;;;;;27.41325;18.028809;5.954924;;1908.7
2083.0;2023.6;;;;;;;;;;;;;;-0.5555589;0.87759024;-0.42744225;;;;;1908.7
2083.0;2023.6;;;;;;;;;;;;;;;;;40.02884;30.61388;22.072514;;1908.7
2083.0;2023.6;;;;;;;;;;;;;;-0.60408336;0.96731466;-0.6009705;;;;;1908.7
2083.0;2023.6;;;;;;;;;;;;;;;;;46.182133;38.121433;37.66366;;1918.4
2083.0;2023.6;;;;;;;;;;;;;;-0.6751915;1.053438;-0.6789148;;;;;1918.4
2083.0;2023.6;;;;;;;;;;;;;;;;;43.03873;35.287025;51.931057;;1918.4
2083.0;2023.6;;;;;;;;;;;;;;-0.75569934;1.0524002;-0.6800134;;;;;1918.4
2083.0;2023.6;;;;;;;;;;;;;;;;;36.91595;23.976105;61.891537;;1927.7
2083.0;2023.6;;;;;;;;;;;;;;-0.8551897;0.99942017;-0.6367992;;;;;1927.7
2083.0;2023.6;;;;;;;;;;;;;;;;;31.647694;8.453628;66.86987;;1927.7
2083.0;2023.6;;;;;;;;;;;;;;-0.97109896;0.9401532;-0.5835139;;;;;1927.7
2083.0;2023.8;262143;262143;12579;;;;;;;;;;;;;;;;;;
2086.0;2024.5;;;;;;;;;;;;;;;;;29.698326;-10.620441;68.0639;;1937.4
2086.0;2024.5;;;;;;;;;;;;;;-1.0725425;0.8890652;-0.5661794;;;;;1937.4
2086.0;2024.5;;;;;;;;;;;;;;;;;30.972471;-27.600176;67.018654;;1937.4
2086.0;2024.5;;;;;;;;;;;;;;-1.1457258;0.8564104;-0.56880397;;;;;1937.4
2086.0;2024.5;;;;;;;;;;;;;;;;;32.685326;-38.71273;65.511795;;1947.1
2086.0;2024.5;;;;;;;;;;;;;;-1.195288;0.81691945;-0.5665456;;;;;1947.1
2086.0;2024.5;;;;;;;;;;;;;;;;;29.473251;-42.05069;62.04413;;1947.1
2086.0;2024.5;;;;;;;;;;;;;;-1.2307504;0.7668691;-0.5310221;;;;;1947.1
2086.0;2024.5;;;;;;;;;;;;;;;;;17.391735;-38.502914;56.39439;;1956.7
2086.0;2024.5;;;;;;;;;;;;;;-1.2558366;0.7152928;-0.44508195;;;;;1956.7
2086.0;2024.5;;;;;;;;;;;;;;;;;1.1902219;-31.243324;50.87054;;1956.7
2086.0;2024.5;;;;;;;;;;;;;;-1.2588274;0.64210945;-0.33381146;;;;;1956.7
2086.0;2024.8;;;;;;;;;;19.188513;-37.656025;-38.827175;;;;;;;;;
2086.0;2024.8;;;;;;;0.23187964;-0.91024506;0.13342692;;;;;;;;;;;;
2086.0;2024.8;;;;;;;;;;17.883846;-37.93451;-38.022247;;;;;;;;;
2086.0;2024.8;;;;;;;0.22614215;-0.88778347;0.13214515;;;;;;;;;;;;
2086.0;2030.1;;;;-0.3653107;1.1546594;0.34168628;;;;;;;;;;;;;;;
2086.0;2030.1;;;;-0.3628159;1.1333734;0.3270493;;;;;;;;;;;;;;;
2086.0;2030.1;;;;-0.35867694;1.11121;0.31362537;;;;;;;;;;;;;;;
2086.0;2030.1;;;;-0.3540459;1.089512;0.299408;;;;;;;;;;;;;;;
2086.0;2030.1;;;;-0.34738544;1.0696222;0.28578952;;;;;;;;;;;;;;;
2086.0;2034.4;;;;;;;;;;16.762293;-38.487656;-36.92358;;;;;;;;;
2086.0;2034.4;;;;;;;0.22003846;-0.8649556;0.12836085;;;;;;;;;;;;
2086.0;2034.4;;;;;;;;;;15.690329;-39.510025;-35.56169;;;;;;;;;
2086.0;2034.4;;;;;;;0.21265298;-0.84054077;0.1241493;;;;;;;;;;;;
2137.0;2040.1;;;;-0.34029773;1.0506974;0.27450183;;;;;;;;;;;;;;;
2137.0;2040.1;;;;-0.33454898;1.0318071;0.26395038;;;;;;;;;;;;;;;
2137.0;2040.1;;;;-0.33021548;1.0117341;0.25488666;;;;;;;;;;;;;;;
2137.0;2040.1;;;;-0.3257027;0.9928056;0.24634174;;;;;;;;;;;;;;;
2137.0;2040.1;;;;-0.32356265;0.97343075;0.23918155;;;;;;;;;;;;;;;
2137.0;2043.9;;;;;;;;;;14.557329;-40.5858;-34.092987;;;;;;;;;
2137.0;2043.9;;;;;;;0.20484024;-0.81752986;0.11682486;;;;;;;;;;;;
2137.0;2043.9;;;;;;;;;;13.431959;-41.4861;-32.494583;;;;;;;;;
2137.0;2043.9;;;;;;;0.19782098;-0.793054;0.1119419;;;;;;;;;;;;
2137.0;2043.8;262143;262143;12590;;;;;;;;;;;;;;;;;;
2137.0;2049.6;;;;;;;;;;;;;982;;;;;;;;
2137.0;2049.6;;;;;;;;;;;;;1026;;;;;;;;
2137.0;2049.6;;;;;;;;;;;;;969;;;;;;;;
2137.0;2049.6;;;;;;;;;;;;;628;;;;;;;;
2137.0;2049.6;;;;;;;;;;;;;-133;;;;;;;;
2137.0;2050.2;;;;-0.32449725;0.9519845;0.23391727;;;;;;;;;;;;;;;
2137.0;2050.2;;;;-0.32631686;0.93159115;0.22890475;;;;;;;;;;;;;;;
2137.0;2050.2;;;;-0.32997516;0.91069806;0.22507098;;;;;;;;;;;;;;;
2137.0;2050.2;;;;-0.33370212;0.8920289;0.22157672;;;;;;;;;;;;;;;
2137.0;2050.2;;;;-0.33711246;0.8743249;0.21918109;;;;;;;;;;;;;;;
2137.0;2053.2;;;;;;;;;;12.218848;-42.21473;-30.861843;;;;;;;;;
2137.0;2053.2;;;;;;;0.18884854;-0.7727287;0.10803553;;;;;;;;;;;;
2137.0;2053.2;;;;;;;;;;10.914183;-42.83273;-29.129917;;;;;;;;;
2137.0;2053.2;;;;;;;0.18158513;-0.74794763;0.105533004;;;;;;;;;;;;
2139.0;2059.9;;;;-0.34149173;0.85647595;0.2195969;;;;;;;;;;;;;;;
2139.0;2059.9;;;;-0.34593585;0.8382188;0.21977237;;;;;;;;;;;;;;;
2139.0;2059.9;;;;-0.35057834;0.8198701;0.22112659;;;;;;;;;;;;;;;
2139.0;2059.9;;;;-0.3547707;0.80059063;0.22329333;;;;;;;;;;;;;;;
2139.0;2059.9;;;;-0.35932162;0.78148663;0.22589877;;;;;;;;;;;;;;;
2139.0;2062.7;;;;;;;;;;9.662924;-43.202766;-27.394176;;;;;;;;;
2139.0;2062.7;;;;;;;0.17651907;-0.72688985;0.1015656;;;;;;;;;;;;
2139.0;2062.7;;;;;;;;;;8.308664;-43.301952;-25.769066;;;;;;;;;
2139.0;2062.7;;;;;;;0.1727958;-0.7041841;0.0954619;;;;;;;;;;;;
2139.0;2063.6;262143;262143;12579;;;;;;;;;;;;;;;;;;
2139.0;2070.0;;;;-0.36338428;0.76366436;0.23290637;;;;;;;;;;;;;;;
2139.0;2070.0;;;;-0.36692432;0.74734885;0.24381259;;;;;;;;;;;;;;;
2139.0;2070.0;;;;-0.36866;0.73092276;0.25493243;;;;;;;;;;;;;;;
2139.0;2070.0;;;;-0.36854556;0.71511465;0.26355746;;;;;;;;;;;;;;;
2139.0;2070.0;;;;-0.36752322;0.6999207;0.27191547;;;;;;;;;;;;;;;
2139.0;2072.3;;;;;;;;;;6.824702;-43.137913;-23.945585;;;;;;;;;
2139.0;2072.3;;;;;;;0.1685232;-0.68495744;0.09607227;;;;;;;;;;;;
2139.0;2072.3;;;;;;;;;;5.3216653;-42.39784;-22.091587;;;;;;;;;
2139.0;2072.3;;;;;;;0.16534929;-0.66933197;0.09521775;;;;;;;;;;;;
2140.0;2080.1;;;;-0.36507037;0.68394476;0.27925876;;;;;;;;;;;;;;;
2140.0;2080.1;;;;-0.36268237;0.6678696;0.28693393;;;;;;;;;;;;;;;
2140.0;2080.1;;;;-0.3598328;0.65131384;0.29353717;;;;;;;;;;;;;;;
2140.0;2080.1;;;;-0.3560181;0.6340371;0.2994118;;;;;;;;;;;;;;;
2140.0;2080.1;;;;-0.35143283;0.6161614;0.30438617;;;;;;;;;;;;;;;
2140.0;2081.9;;;;;;;;;;3.7766654;-40.921505;-20.130772;;;;;;;;;
2140.0;2081.9;;;;;;;0.1607715;-0.65144813;0.09686575;;;;;;;;;;;;
2140.0;2081.9;;;;;;;;;;2.4033327;-38.75851;-17.838068;;;;;;;;;
2140.0;2081.9;;;;;;;0.15503404;-0.6351512;0.098941006;;;;;;;;;;;;
2140.0;2083.8;;;;;;;;;;;;;;;;;-11.490219;-24.540697;44.6028;;1966.4
2140.0;2083.8;;;;;;;;;;;;;;-1.2609638;0.57814264;-0.24823755;;;;;1966.4
2140.0;2083.8;;;;;;;;;;;;;;;;;-16.68981;-21.279032;38.42662;;1966.4
2140.0;2083.8;;;;;;;;;;;;;;-1.261269;0.5202185;-0.23212378;;;;;1966.4
2140.0;2083.8;;;;;;;;;;;;;;;;;-18.11655;-19.882809;32.811214;;1976.1
2140.0;2083.8;;;;;;;;;;;;;;-1.2711569;0.48005617;-0.21210364;;;;;1976.1
2140.0;2083.8;;;;;;;;;;;;;;;;;-18.791773;-21.736809;29.465622;;1976.1
2140.0;2083.8;;;;;;;;;;;;;;-1.2564471;0.45124668;-0.19495223;;;;;1976.1
2140.0;2083.8;;;;;;;;;;;;;;;;;-17.090364;-23.384808;27.359844;;1985.7
2140.0;2083.8;;;;;;;;;;;;;;-1.2355113;0.44898832;-0.17786187;;;;;1985.7
2140.0;2083.8;;;;;;;;;;;;;;;;;-11.06296;-25.517288;25.444807;;1985.7
2140.0;2083.8;;;;;;;;;;;;;;-1.1934569;0.46925262;-0.18091373;;;;;1985.7
2141.0;2084.4;;;;;;;;;;;;;;;;;-5.93585;-26.055178;23.32377;;1995.2
2141.0;2084.4;;;;;;;;;;;;;;-1.1352886;0.48463392;-0.18567461;;;;;1995.2
2141.0;2084.4;;;;;;;;;;;;;;;;;-5.2949615;-25.002289;20.88229;;1995.2
2141.0;2084.4;;;;;;;;;;;;;;-1.0676595;0.49305704;-0.18115787;;;;;1995.2
2141.0;2084.4;;;;;;;;;;;;;;;;;-9.42259;-20.954771;17.6664;;2004.9
2141.0;2084.4;;;;;;;;;;;;;;-1.01236;0.47627187;-0.15778069;;;;;2004.9
2141.0;2084.4;;;;;;;;;;;;;;;;;-16.460922;-15.034181;13.348033;;2004.9
2141.0;2084.4;;;;;;;;;;;;;;-0.9692068;0.42542803;-0.11883908;;;;;2004.9
2141.0;2084.4;;;;;;;;;;;;;;;;;-25.528732;-7.423628;8.610034;;2014.5
2141.0;2084.4;;;;;;;;;;;;;;-0.9270913;0.36579487;-0.08508561;;;;;2014.5
2141.0;2084.4;;;;;;;;;;;;;;;;;-34.119694;1.8044069;3.215888;;2014.5
2141.0;2084.4;;;;;;;;;;;;;;-0.89541304;0.3018891;-0.06878872;;;;;2014.5
2141.0;2083.8;262143;262143;12594;;;;;;;;;;;;;;;;;;
2141.0;2089.5;;;;;;;;;;;;;-697;;;;;;;;
2141.0;2089.5;;;;;;;;;;;;;-1258;;;;;;;;
2141.0;2089.5;;;;;;;;;;;;;-3117;;;;;;;;
2141.0;2089.5;;;;;;;;;;;;;-5554;;;;;;;;
2141.0;2089.5;;;;;;;;;;;;;-5535;;;;;;;;
2141.0;2090.0;;;;-0.3447838;0.5986214;0.30853274;;;;;;;;;;;;;;;
2141.0;2090.0;;;;-0.33560565;0.58126837;0.3102608;;;;;;;;;;;;;;;
2141.0;2090.0;;;;-0.32566455;0.5636254;0.31089786;;;;;;;;;;;;;;;
2141.0;2090.0;;;;-0.3142853;0.5456658;0.30930713;;;;;;;;;;;;;;;
2141.0;2090.0;;;;-0.3037949;0.5262452;0.30584338;;;;;;;;;;;;;;;
2142.0;2091.3;;;;;;;;;;1.1139256;-36.06906;-15.480514;;;;;;;;;
2142.0;2091.3;;;;;;;0.15314189;-0.62215036;0.10180975;;;;;;;;;;;;
2142.0;2091.3;;;;;;;;;;0.038148135;-32.8074;-13.187811;;;;;;;;;
2142.0;2091.3;;;;;;;0.15417951;-0.6160466;0.11047701;;;;;;;;;;;;
2142.0;2098.9;;;;;;;;;;;;;;;;;-41.21525;11.585589;-3.604999;;2024.1
2142.0;2098.9;;;;;;;;;;;;;;-0.8795434;0.24292734;-0.08282723;;;;;2024.1
2142.0;2098.9;;;;;;;;;;;;;;;;;-47.39143;20.943327;-11.638996;;2024.1
2142.0;2098.9;;;;;;;;;;;;;;-0.8728294;0.18536943;-0.09814753;;;;;2024.1
2142.0;2098.9;;;;;;;;;;;;;;;;;-54.628136;28.78277;-21.30955;;2033.7
2142.0;2098.9;;;;;;;;;;;;;;-0.8676412;0.12756737;-0.10217597;;;;;2033.7
2142.0;2098.9;;;;;;;;;;;;;;;;;-65.01587;35.935543;-32.826473;;2033.7
2142.0;2098.9;;;;;;;;;;;;;;-0.84444714;0.0905179;-0.030640583;;;;;2033.7
2142.0;2098.9;;;;;;;;;;;;;;;;;-80.72146;41.798912;-45.26658;;2043.3
2142.0;2098.9;;;;;;;;;;;;;;-0.8106937;0.08117924;0.10956145;;;;;2043.3
2142.0;2098.9;;;;;;;;;;;;;;;;;-90.28138;46.754356;-59.09528;;2043.3
2142.0;2098.9;;;;;;;;;;;;;;-0.75173193;0.060975984;0.1864681;;;;;2043.3
2142.0;2099.8;;;;-0.29306415;0.50557715;0.30233768;;;;;;;;;;;;;;;
2142.0;2099.8;;;;-0.2801285;0.4852906;0.29932407;;;;;;;;;;;;;;;
2142.0;2099.8;;;;-0.26811603;0.46422583;0.29413226;;;;;;;;;;;;;;;
2142.0;2099.8;;;;-0.254406;0.4439202;0.289444;;;;;;;;;;;;;;;
2142.0;2099.8;;;;-0.24268726;0.42439276;0.28245166;;;;;;;;;;;;;;;
2142.0;2100.7;;;;;;;;;;-0.82399976;-28.733177;-10.979034;;;;;;;;;
2142.0;2100.7;;;;;;;0.15912351;-0.61397135;0.11774041;;;;;;;;;;;;
2142.0;2100.7;;;;;;;;;;-1.4992218;-24.231697;-8.617663;;;;;;;;;
2142.0;2100.7;;;;;;;0.16559343;-0.61476487;0.1246376;;;;;;;;;;;;
2194.0;2103.6;262143;262143;12587;;;;;;;;;;;;;;;;;;
2194.0;2109.8;;;;-0.23343661;0.40626532;0.27672198;;;;;;;;;;;;;;;
2194.0;2109.8;;;;-0.2205086;0.38952643;0.27052692;;;;;;;;;;;;;;;
2194.0;2109.8;;;;-0.21023181;0.37398914;0.2612305;;;;;;;;;;;;;;;
2194.0;2109.8;;;;-0.199379;0.35870364;0.25205234;;;;;;;;;;;;;;;
2194.0;2109.8;;;;-0.18664171;0.34258273;0.24076846;;;;;;;;;;;;;;;
2194.0;2110.2;;;;;;;;;;-2.166814;-19.299143;-6.3974423;;;;;;;;;
2194.0;2110.2;;;;;;;0.17407759;-0.62007505;0.13159582;;;;;;;;;;;;
2194.0;2110.2;;;;;;;;;;-2.746666;-14.213996;-4.257332;;;;;;;;;
2194.0;2110.2;;;;;;;0.18158513;-0.6277657;0.13708915;;;;;;;;;;;;
2194.0;2119.4;;;;;;;;;;-3.543962;-8.980071;-1.9531846;;;;;;;;;
2194.0;2119.4;;;;;;;0.1892758;-0.6350902;0.13934751;;;;;;;;;;;;
2194.0;2119.4;;;;;;;;;;-4.5319986;-3.4447768;0.20981476;;;;;;;;;
2194.0;2119.4;;;;;;;0.1988586;-0.6367992;0.14325388;;;;;;;;;;;;
2194.0;2119.6;;;;-0.17705919;0.32407382;0.22750857;;;;;;;;;;;;;;;
2194.0;2119.6;;;;-0.16661836;0.30677798;0.21730044;;;;;;;;;;;;;;;
2194.0;2119.6;;;;-0.15721513;0.29145434;0.205246;;;;;;;;;;;;;;;
2194.0;2119.6;;;;-0.14727785;0.276619;0.19253162;;;;;;;;;;;;;;;
2194.0;2119.6;;;;-0.13805391;0.26287463;0.17933275;;;;;;;;;;;;;;;
2194.0;2123.4;262143;262143;12587;;;;;;;;;;;;;;;;;;
2195.0;2129.1;;;;;;;;;;-5.5963316;1.842555;2.2202215;;;;;;;;;
2195.0;2129.1;;;;;;;0.20276497;-0.6367992;0.14734337;;;;;;;;;;;;
2195.0;2129.1;;;;;;;;;;-6.5195165;6.633961;4.215369;;;;;;;;;
2195.0;2129.1;;;;;;;0.20258187;-0.6354564;0.15509507;;;;;;;;;;;;
2195.0;2129.2;;;;;;;;;;;;;-1609;;;;;;;;
2195.0;2129.2;;;;;;;;;;;;;3468;;;;;;;;
2195.0;2129.2;;;;;;;;;;;;;5675;;;;;;;;
2195.0;2129.2;;;;;;;;;;;;;4290;;;;;;;;
2195.0;2129.2;;;;;;;;;;;;;2004;;;;;;;;
2195.0;2129.7;;;;-0.1296959;0.2507744;0.16480638;;;;;;;;;;;;;;;
2195.0;2129.7;;;;-0.12174989;0.23886111;0.15102388;;;;;;;;;;;;;;;
2195.0;2129.7;;;;-0.113224044;0.22978976;0.13888551;;;;;;;;;;;;;;;
2195.0;2129.7;;;;-0.101375595;0.22301105;0.12762834;;;;;;;;;;;;;;;
2195.0;2129.7;;;;-0.08731843;0.21553424;0.11793901;;;;;;;;;;;;;;;
2195.0;2138.7;;;;;;;;;;-7.316813;11.116366;6.111332;;;;;;;;;
2195.0;2138.7;;;;;;;0.20764793;-0.63795894;0.15985595;;;;;;;;;;;;
2195.0;2138.7;;;;;;;;;;-7.976775;15.739922;7.8127384;;;;;;;;;
2195.0;2138.7;;;;;;;0.21192053;-0.6349681;0.1607715;;;;;;;;;;;;
2195.0;2139.8;;;;-0.07758332;0.20855334;0.104339615;;;;;;;;;;;;;;;
2195.0;2139.8;;;;-0.07000352;0.20088962;0.08945084;;;;;;;;;;;;;;;
2195.0;2139.8;;;;-0.062732704;0.19498065;0.07666779;;;;;;;;;;;;;;;
2195.0;2139.8;;;;-0.053207405;0.1919556;0.06669236;;;;;;;;;;;;;;;
2195.0;2139.8;;;;-0.043945316;0.1904526;0.055439003;;;;;;;;;;;;;;;
2197.0;2143.4;;;;;;;;;;;;;;;;;-90.44541;53.64391;-73.25968;;2053.0
2197.0;2143.4;;;;;;;;;;;;;;-0.6753746;0.05328532;0.14227729;;;;;2053.0
2197.0;2143.4;;;;;;;;;;;;;;;;;-91.49831;60.758537;-87.65679;;2053.0
2197.0;2143.4;;;;;;;;;;;;;;-0.6494339;0.048585467;0.062746055;;;;;2053.0
2197.0;2143.4;;;;;;;;;;;;;;;;;-97.300644;63.360245;-100.41352;;2062.7
2197.0;2143.4;;;;;;;;;;;;;;-0.6214179;0.02929777;1.8311106E-4;;;;;2062.7
2197.0;2143.4;;;;;;;;;;;;;;;;;-105.098114;64.37117;-112.75063;;2062.7
2197.0;2143.4;;;;;;;;;;;;;;-0.6031068;0.005798517;0.0113528855;;;;;2062.7
2197.0;2143.4;;;;;;;;;;;;;;;;;-113.04056;62.833794;-122.695854;;2072.3
2197.0;2143.4;;;;;;;;;;;;;;-0.5846736;-4.2725913E-4;0.04425184;;;;;2072.3
2197.0;2143.4;;;;;;;;;;;;;;;;;-117.3513;59.347057;-124.988556;;2072.3
2197.0;2143.4;;;;;;;;;;;;;;-0.5676443;0.009277627;0.06414991;;;;;2072.3
2197.0;2143.5;262143;262143;12580;;;;;;;;;;;;;;;;;;
2197.0;2148.2;;;;;;;;;;-8.781701;20.428328;9.334849;;;;;;;;;
2197.0;2148.2;;;;;;;0.21686453;-0.63057345;0.16168706;;;;;;;;;;;;
2197.0;2148.2;;;;;;;;;;-9.624775;25.04425;10.74633;;;;;;;;;
2197.0;2148.2;;;;;;;0.21875668;-0.6308786;0.16064943;;;;;;;;;;;;
2197.0;2149.8;;;;-0.034759525;0.19025806;0.045948032;;;;;;;;;;;;;;;
2197.0;2149.8;;;;-0.026287083;0.19170764;0.037464146;;;;;;;;;;;;;;;
2197.0;2149.8;;;;-0.020538332;0.19515613;0.028854374;;;;;;;;;;;;;;;
2197.0;2149.8;;;;-0.016555788;0.20030597;0.021553041;;;;;;;;;;;;;;;
2197.0;2149.8;;;;-0.013729097;0.20655063;0.013748171;;;;;;;;;;;;;;;
2198.0;2157.8;;;;;;;;;;-10.387737;29.499954;11.993774;;;;;;;;;
2198.0;2157.8;;;;;;;0.21857357;-0.6268502;0.15863521;;;;;;;;;;;;
2198.0;2157.8;;;;;;;;;;-11.215552;33.95184;12.947477;;;;;;;;;
2198.0;2157.8;;;;;;;0.21814631;-0.6268502;0.15802485;;;;;;;;;;;;
2198.0;2158.5;;;;;;;;;;;;;;;;;-115.46678;53.91858;-124.988556;;2081.9
2198.0;2158.5;;;;;;;;;;;;;;-0.5272378;0.031006806;0.067445904;;;;;2081.9
2198.0;2158.5;;;;;;;;;;;;;;;;;-111.05304;46.914577;-124.988556;;2081.9
2198.0;2158.5;;;;;;;;;;;;;;-0.48329112;0.061159093;0.0684225;;;;;2081.9
2198.0;2158.5;;;;;;;;;;;;;;;;;-106.11668;38.003174;-124.988556;;2091.5
2198.0;2158.5;;;;;;;;;;;;;;-0.42146063;0.10992767;0.048646506;;;;;2091.5
2198.0;2158.5;;;;;;;;;;;;;;;;;-101.424446;29.145178;-124.988556;;2091.5
2198.0;2158.5;;;;;;;;;;;;;;-0.3353984;0.15717033;-0.003112888;;;;;2091.5
2198.0;2158.5;;;;;;;;;;;;;;;;;-98.300125;22.865993;-124.988556;;2101.0
2198.0;2158.5;;;;;;;;;;;;;;-0.27167577;0.21710868;-0.02826014;;;;;2101.0
2198.0;2158.5;;;;;;;;;;;;;;;;;-97.33879;17.017883;-124.988556;;2101.0
2198.0;2158.5;;;;;;;;;;;;;;-0.2200995;0.25696585;-0.05938902;;;;;2101.0
2198.0;2159.6;;;;-0.010677339;0.21607211;0.0073890695;;;;;;;;;;;;;;;
2198.0;2159.6;;;;-0.0062179575;0.226738;0.0018234255;;;;;;;;;;;;;;;
2198.0;2159.6;;;;-0.0023002627;0.23697665;-0.003444672;;;;;;;;;;;;;;;
2198.0;2159.6;;;;-0.0015830996;0.24782565;-0.009864808;;;;;;;;;;;;;;;
2198.0;2159.6;;;;-0.0029602055;0.26038745;-0.015747072;;;;;;;;;;;;;;;
2198.0;2163.6;262143;262143;12577;;;;;;;;;;;;;;;;;;
2253.0;2167.2;;;;;;;;;;-11.9747;38.056583;13.966033;;;;;;;;;
2253.0;2167.2;;;;;;;0.21832941;-0.62611777;0.15668203;;;;;;;;;;;;
2253.0;2167.2;;;;;;;;;;-12.905515;42.176582;14.675589;;;;;;;;;
2253.0;2167.2;;;;;;;0.22101505;-0.6279489;0.15393536;;;;;;;;;;;;
2253.0;2169.3;;;;;;;;;;;;;1119;;;;;;;;
2253.0;2169.3;;;;;;;;;;;;;1070;;;;;;;;
2253.0;2169.3;;;;;;;;;;;;;826;;;;;;;;
2253.0;2169.3;;;;;;;;;;;;;419;;;;;;;;
2253.0;2169.3;;;;;;;;;;;;;-132;;;;;;;;
2253.0;2169.6;;;;-0.0051040654;0.2741585;-0.020938875;;;;;;;;;;;;;;;
2253.0;2169.6;;;;-0.006324769;0.2898064;-0.022724153;;;;;;;;;;;;;;;
2253.0;2169.6;;;;-0.006183625;0.3064728;-0.02157593;;;;;;;;;;;;;;;
2253.0;2169.6;;;;-0.0070228586;0.32439044;-0.021621706;;;;;;;;;;;;;;;
2253.0;2169.6;;;;-0.009883882;0.34349826;-0.021778109;;;;;;;;;;;;;;;
2253.0;2176.5;;;;;;;;;;-13.828699;46.014282;15.003662;;;;;;;;;
2253.0;2176.5;;;;;;;0.22534868;-0.6229438;0.15704826;;;;;;;;;;;;
2253.0;2176.5;;;;;;;;;;-14.652699;50.271614;15.263069;;;;;;;;;
2253.0;2176.5;;;;;;;0.23139134;-0.6240425;0.16229743;;;;;;;;;;;;
2253.0;2179.6;;;;-0.014896395;0.3656731;-0.019771578;;;;;;;;;;;;;;;
2253.0;2179.6;;;;-0.019851686;0.3886147;-0.014720919;;;;;;;;;;;;;;;
2253.0;2179.6;;;;-0.02568436;0.41209036;-0.01021576;;;;;;;;;;;;;;;
2253.0;2179.6;;;;-0.03301621;0.43485647;-0.0062294016;;;;;;;;;;;;;;;
2253.0;2179.6;;;;-0.0444603;0.45769125;-0.0034751897;;;;;;;;;;;;;;;
2253.0;2183.6;262143;262143;12571;;;;;;;;;;;;;;;;;;
2257.0;2186.1;;;;;;;;;;-15.140995;55.978577;15.194403;;;;;;;;;
2257.0;2186.1;;;;;;;0.24658956;-0.62642294;0.1688284;;;;;;;;;;;;
2257.0;2186.1;;;;;;;;;;-15.392773;63.608208;14.461959;;;;;;;;;
2257.0;2186.1;;;;;;;0.267098;-0.6302683;0.17004913;;;;;;;;;;;;
2257.0;2189.7;;;;-0.05880738;0.48234946;8.010865E-5;;;;;;;;;;;;;;;
2257.0;2189.7;;;;-0.07495118;0.50947195;0.0069618234;;;;;;;;;;;;;;;
2257.0;2189.7;;;;-0.09161378;0.54012305;0.015918734;;;;;;;;;;;;;;;
2257.0;2189.7;;;;-0.10878755;0.57285315;0.02462006;;;;;;;;;;;;;;;
2257.0;2189.7;;;;-0.12814333;0.6078339;0.033580784;;;;;;;;;;;;;;;
2257.0;2195.8;;;;;;;;;;-16.018402;72.47383;13.302256;;;;;;;;;
2257.0;2195.8;;;;;;;0.29145175;-0.6313669;0.16791284;;;;;;;;;;;;
2257.0;2195.8;;;;;;;;;;-17.033142;81.23646;11.997589;;;;;;;;;
2257.0;2195.8;;;;;;;0.3106174;-0.62984097;0.16394544;;;;;;;;;;;;
2257.0;2199.8;;;;-0.15044023;0.6445008;0.043521885;;;;;;;;;;;;;;;
2257.0;2199.8;;;;-0.17511751;0.68150336;0.052108772;;;;;;;;;;;;;;;
2257.0;2199.8;;;;-0.20139697;0.7196198;0.059524544;;;;;;;;;;;;;;;
2257.0;2199.8;;;;-0.22780994;0.7577249;0.06625367;;;;;;;;;;;;;;;
2257.0;2199.8;;;;-0.25390628;0.7951127;0.07263184;;;;;;;;;;;;;;;
2258.0;2203.6;;;;;;;;;;;;;;;;;-98.80368;14.473403;-124.988556;;2110.7
2258.0;2203.6;;;;;;;;;;;;;;-0.18652913;0.2866909;-0.058839686;;;;;2110.7
2258.0;2203.6;;;;;;;;;;;;;;;;;-101.02008;12.459181;-124.988556;;2110.7
2258.0;2203.6;;;;;;;;;;;;;;-0.16064943;0.3096408;-0.05182043;;;;;2110.7
2258.0;2203.6;;;;;;;;;;;;;;;;;-100.68056;11.749626;-124.988556;;2120.4
2258.0;2203.6;;;;;;;;;;;;;;-0.1436201;0.30542925;-0.087710194;;;;;2120.4
2258.0;2203.6;;;;;;;;;;;;;;;;;-94.47005;16.067995;-124.988556;;2120.4
2258.0;2203.6;;;;;;;;;;;;;;-0.1539964;0.29505295;-0.16327402;;;;;2120.4
2258.0;2203.6;;;;;;;;;;;;;;;;;-83.95261;24.895473;-124.988556;;2130.0
2258.0;2203.6;;;;;;;;;;;;;;-0.20886868;0.31495103;-0.19135106;;;;;2130.0
2258.0;2203.6;;;;;;;;;;;;;;;;;-70.82583;28.740807;-124.988556;;2130.0
2258.0;2203.6;;;;;;;;;;;;;;-0.27863398;0.32825708;-0.18604083;;;;;2130.0
2258.0;2203.7;262143;262143;12563;;;;;;;;;;;;;;;;;;
2258.0;2205.3;;;;;;;;;;-18.192846;89.81597;10.792109;;;;;;;;;
2258.0;2205.3;;;;;;;0.32026124;-0.63417464;0.16144292;;;;;;;;;;;;
2258.0;2205.3;;;;;;;;;;-19.459366;98.46797;9.781182;;;;;;;;;
2258.0;2205.3;;;;;;;0.3223365;-0.64296395;0.15918455;;;;;;;;;;;;
2258.0;2209.5;;;;;;;;;;;;;-488;;;;;;;;
2258.0;2209.5;;;;;;;;;;;;;-142;;;;;;;;
2258.0;2209.5;;;;;;;;;;;;;654;;;;;;;;
2258.0;2209.5;;;;;;;;;;;;;1111;;;;;;;;
2258.0;2209.5;;;;;;;;;;;;;822;;;;;;;;
2260.0;2209.7;;;;-0.2782593;0.8302728;0.07813264;;;;;;;;;;;;;;;
2260.0;2209.7;;;;-0.3001137;0.86407864;0.08409882;;;;;;;;;;;;;;;
2260.0;2209.7;;;;-0.31938174;0.8968698;0.09179688;;;;;;;;;;;;;;;
2260.0;2209.7;;;;-0.33719257;0.9287721;0.10172273;;;;;;;;;;;;;;;
2260.0;2209.7;;;;-0.35267642;0.9601213;0.11600496;;;;;;;;;;;;;;;
2260.0;2214.9;;;;;;;;;;-20.908995;107.261116;8.919034;;;;;;;;;
2260.0;2214.9;;;;;;;0.32166508;-0.65541553;0.15741447;;;;;;;;;;;;
2260.0;2214.9;;;;;;;;;;-22.553179;115.73382;8.087405;;;;;;;;;
2260.0;2214.9;;;;;;;0.31678212;-0.66750085;0.15955077;;;;;;;;;;;;
2260.0;2219.0;;;;;;;;;;;;;;;;;-53.876614;30.522324;-124.988556;;2139.6
2260.0;2219.0;;;;;;;;;;;;;;-0.35706657;0.3353984;-0.2207709;;;;;2139.6
2260.0;2219.0;;;;;;;;;;;;;;;;;-27.989288;37.972656;-124.988556;;2139.6
2260.0;2219.0;;;;;;;;;;;;;;-0.46467483;0.33167517;-0.30896938;;;;;2139.6
2260.0;2219.0;;;;;;;;;;;;;;;;;3.688925;50.050354;-124.988556;;2149.2
2260.0;2219.0;;;;;;;;;;;;;;-0.58302563;0.36347544;-0.42756432;;;;;2149.2
2260.0;2219.0;;;;;;;;;;;;;;;;;28.603474;61.18961;-124.988556;;2149.2
2260.0;2219.0;;;;;;;;;;;;;;-0.70851773;0.45460373;-0.5427412;;;;;2149.2
2260.0;2219.0;;;;;;;;;;;;;;;;;41.497543;68.65138;-124.423965;;2158.9
2260.0;2219.0;;;;;;;;;;;;;;-0.8476821;0.5823542;-0.63454086;;;;;2158.9
2260.0;2219.0;;;;;;;;;;;;;;;;;46.838284;74.40413;-123.19178;;2158.9
2260.0;2219.0;;;;;;;;;;;;;;-1.0044862;0.74452955;-0.6956389;;;;;2158.9
2313.0;2219.6;;;;-0.36496738;0.99177945;0.13159181;;;;;;;;;;;;;;;
2313.0;2219.6;;;;-0.37597662;1.0228616;0.1498604;;;;;;;;;;;;;;;
2313.0;2219.6;;;;-0.3907357;1.0457727;0.16950609;;;;;;;;;;;;;;;
2313.0;2219.6;;;;-0.4040528;1.0589715;0.19711688;;;;;;;;;;;;;;;
2313.0;2219.6;;;;-0.41175467;1.0732194;0.22343066;;;;;;;;;;;;;;;
2313.0;2223.7;262143;262143;12556;;;;;;;;;;;;;;;;;;
2313.0;2224.3;;;;;;;;;;-24.296549;122.77215;7.3206277;;;;;;;;;
2313.0;2224.3;;;;;;;0.3106174;-0.68221074;0.16290781;;;;;;;;;;;;
2313.0;2224.3;;;;;;;;;;-25.955992;124.87411;6.7445908;;;;;;;;;
2313.0;2224.3;;;;;;;0.30384228;-0.69631034;0.16846217;;;;;;;;;;;;
2313.0;2229.7;;;;-0.43113333;1.0850297;0.23507693;;;;;;;;;;;;;;;
2313.0;2229.7;;;;-0.45979697;1.0955774;0.24746707;;;;;;;;;;;;;;;
2313.0;2229.7;;;;-0.49104315;1.1082727;0.26440433;;;;;;;;;;;;;;;
2313.0;2229.7;;;;-0.5189248;1.123314;0.28481677;;;;;;;;;;;;;;;
2313.0;2229.7;;;;-0.5411683;1.137745;0.3012772;;;;;;;;;;;;;;;
2313.0;2233.7;;;;;;;;;;-27.508621;124.881744;6.199072;;;;;;;;;
2313.0;2233.7;;;;;;;0.30018005;-0.710593;0.17596972;;;;;;;;;;;;
2313.0;2233.7;;;;;;;;;;-29.225288;124.881744;5.752739;;;;;;;;;
2313.0;2233.7;;;;;;;0.2964568;-0.72621846;0.18738365;;;;;;;;;;;;
2332.0;2239.7;;;;-0.55953604;1.1507493;0.31320956;;;;;;;;;;;;;;;
2332.0;2239.7;;;;-0.5735932;1.1604959;0.32324603;;;;;;;;;;;;;;;
2332.0;2239.7;;;;-0.5859528;1.168583;0.33475497;;;;;;;;;;;;;;;
2332.0;2239.7;;;;-0.595604;1.1747819;0.3444176;;;;;;;;;;;;;;;
2332.0;2239.7;;;;-0.6056443;1.1759225;0.35014728;;;;;;;;;;;;;;;
2332.0;2243.3;;;;;;;;;;-30.92288;124.881744;5.710776;;;;;;;;;
2332.0;2243.3;;;;;;;0.29657888;-0.73757136;0.1981872;;;;;;;;;;;;
2332.0;2243.3;;;;;;;;;;-32.76162;124.881744;5.542924;;;;;;;;;
2332.0;2243.3;;;;;;;0.29963073;-0.7429426;0.20844142;;;;;;;;;;;;
2332.0;2243.8;262143;262143;12551;;;;;;;;;;;;;;;;;;
2332.0;2249.6;;;;;;;;;;;;;122;;;;;;;;
2332.0;2249.6;;;;;;;;;;;;;-377;;;;;;;;
2332.0;2249.6;;;;;;;;;;;;;-352;;;;;;;;
2332.0;2249.6;;;;;;;;;;;;;-122;;;;;;;;
2332.0;2249.6;;;;;;;;;;;;;-185;;;;;;;;
2332.0;2249.8;;;;-0.6204186;1.1724588;0.3548279;;;;;;;;;;;;;;;
2332.0;2249.8;;;;-0.6291848;1.1657411;0.36460117;;;;;;;;;;;;;;;
2332.0;2249.8;;;;-0.62619025;1.1542512;0.37749487;;;;;;;;;;;;;;;
2332.0;2249.8;;;;-0.6187058;1.1363946;0.38978964;;;;;;;;;;;;;;;
2332.0;2249.8;;;;-0.6117707;1.113743;0.39991766;;;;;;;;;;;;;;;
2332.0;2253.0;;;;;;;;;;-34.779655;124.881744;4.974517;;;;;;;;;
2332.0;2253.0;;;;;;;0.300119;-0.74764246;0.22186956;;;;;;;;;;;;
2332.0;2253.0;;;;;;;;;;-36.870174;124.881744;4.3298135;;;;;;;;;
2332.0;2253.0;;;;;;;0.29486984;-0.74959564;0.23474838;;;;;;;;;;;;
2344.0;2259.9;;;;-0.61256796;1.087555;0.4047013;;;;;;;;;;;;;;;
2344.0;2259.9;;;;-0.6217957;1.0623246;0.4068871;;;;;;;;;;;;;;;
2344.0;2259.9;;;;-0.63418967;1.0409967;0.40822607;;;;;;;;;;;;;;;
2344.0;2259.9;;;;-0.6424485;1.0254098;0.4072724;;;;;;;;;;;;;;;
2344.0;2259.9;;;;-0.6460267;1.0144006;0.4074288;;;;;;;;;;;;;;;
2344.0;2262.6;;;;;;;;;;-38.827175;124.881744;3.9445176;;;;;;;;;
2344.0;2262.6;;;;;;;0.28565326;-0.7487411;0.24732201;;;;;;;;;;;;
2344.0;2262.6;;;;;;;;;;-40.719322;124.881744;3.7957397;;;;;;;;;
2344.0;2262.6;;;;;;;0.27619252;-0.7520371;0.26288643;;;;;;;;;;;;
2344.0;2263.8;;;;;;;;;;;;;;;;;50.65691;77.61239;-123.08115;;2168.4
2344.0;2263.8;;;;;;;;;;;;;;-1.1972411;0.9096347;-0.7127903;;;;;2168.4
2344.0;2263.8;;;;;;;;;;;;;;;;;52.255318;74.736015;-123.80596;;2168.4
2344.0;2263.8;;;;;;;;;;;;;;-1.394879;1.0381176;-0.6786706;;;;;2168.4
2344.0;2263.8;;;;;;;;;;;;;;;;;44.93469;60.708942;-124.691;;2178.0
2344.0;2263.8;;;;;;;;;;;;;;-1.5923338;1.1594592;-0.58754236;;;;;2178.0
2344.0;2263.8;;;;;;;;;;;;;;;;;29.103214;36.04236;-123.84411;;2178.0
2344.0;2263.8;;;;;;;;;;;;;;-1.7473067;1.1086154;-0.4850612;;;;;2178.0
2344.0;2263.8;;;;;;;;;;;;;;;;;3.5973694;14.656514;-123.268074;;2187.6
2344.0;2263.8;;;;;;;;;;;;;;-1.7959533;1.1813104;-0.37067783;;;;;2187.6
2344.0;2263.8;;;;;;;;;;;;;;;;;-14.8625145;11.375774;-112.85363;;2187.6
2344.0;2263.8;;;;;;;;;;;;;;-1.6416516;0.99899286;-0.25330362;;;;;2187.6
2344.0;2263.9;262143;262143;12574;;;;;;;;;;;;;;;;;;
2346.0;2269.8;;;;-0.6435738;1.0093957;0.39628607;;;;;;;;;;;;;;;
2346.0;2269.8;;;;-0.6352425;1.0098039;0.39443976;;;;;;;;;;;;;;;
2346.0;2269.8;;;;-0.62762076;1.0146791;0.39280325;;;;;;;;;;;;;;;
2346.0;2269.8;;;;-0.6205941;1.0276872;0.3906899;;;;;;;;;;;;;;;
2346.0;2269.8;;;;-0.6107598;1.0443345;0.38725668;;;;;;;;;;;;;;;
2346.0;2271.3;;;;;;;;;;;;;;;;;-26.23066;4.2840357;-99.803154;;2197.2
2346.0;2271.3;;;;;;;;;;;;;;-1.2977691;0.6836146;-0.17957091;;;;;2197.2
2346.0;2271.3;;;;;;;;;;;;;;;;;-24.28892;-10.742516;-90.80019;;2197.2
2346.0;2271.3;;;;;;;;;;;;;;-1.1395612;0.5825373;-0.2024598;;;;;2197.2
