patientId;holterMac;flexMac;;;;;;;;;;;;;;;;;;;;
;CA:F3:0B:1E:33:78;D3:4A:5C:52:80:78;;;;;;;;;;;;;;;;;;;;
receivedTimeStamp;timeStamp;red;ir;green;adxl_accX;adxl_accY;adxl_accZ;lsm_accelX;lsm_accelY;lsm_accelZ;lsm_gyroX;lsm_gyroY;lsm_gyroZ;ecg;flex_lsm_accelX;flex_lsm_accelY;flex_lsm_accelZ;flex_lsm_gyroX;flex_lsm_gyroY;flex_lsm_gyroZ;flex_cmd;flexTimeStamp
283.0;215.2;;;;;;;;;;;;;;;;;;;;17;0.1
283.0;215.2;;;;;;;;;;;;;;;;;13.290812;-0.7019257;3.7270732;;127.4
283.0;215.2;;;;;;;;;;;;;;-0.29950866;1.4834437;-0.3721427;;;;;127.4
283.0;215.2;;;;;;;;;;;;;;;;;-6.164739;-19.211403;-5.031739;;127.4
283.0;215.2;;;;;;;;;;;;;;-0.2612995;1.5910519;-0.3507187;;;;;127.4
283.0;215.2;;;;;;;;;;;;;;;;;-66.08402;-84.746086;-67.86935;;137.0
283.0;215.2;;;;;;;;;;;;;;-0.19403668;1.5652333;-0.3942381;;;;;137.0
283.0;215.2;;;;;;;;;;;;;;;;;-122.646255;-124.988556;-122.73019;;137.0
283.0;215.2;;;;;;;;;;;;;;-0.1445967;1.4650105;-0.43946654;;;;;137.0
343.0;216.0;;;;;;;;;;;;;;;;;-67.98379;-124.08063;-109.17997;;146.6
343.0;216.0;;;;;;;;;;;;;;-0.15051728;1.4087344;-0.4568621;;;;;146.6
343.0;216.0;;;;;;;;;;;;;;;;;-15.816217;-115.050964;-106.16627;;146.6
343.0;216.0;;;;;;;;;;;;;;-0.1850032;1.3960997;-0.44410536;;;;;146.6
343.0;216.0;;;;;;;;;;;;;;;;;-28.611103;-65.76739;-113.48689;;156.3
343.0;216.0;;;;;;;;;;;;;;-0.21680349;1.3943907;-0.44898832;;;;;156.3
343.0;216.0;;;;;;;;;;;;;;;;;-39.185764;46.52928;-101.7716;;156.3
343.0;216.0;;;;;;;;;;;;;;-0.2809534;1.4169134;-0.48860133;;;;;156.3
343.0;216.0;;;;;;;;;;;;;;;;;-35.897396;74.25916;-100.23423;;165.8
343.0;216.0;;;;;;;;;;;;;;-0.4024781;1.4754479;-0.51582384;;;;;165.8
343.0;216.0;;;;;;;;;;;;;;;;;-32.73873;89.72442;-99.99771;;165.8
343.0;216.0;;;;;;;;;;;;;;-0.56532484;1.5321512;-0.4888455;;;;;165.8
343.0;276.0;;;;;;;;;;;;;;;;;-35.592213;94.10382;-99.509415;;175.5
343.0;276.0;;;;;;;;;;;;;;-0.7446516;1.5589465;-0.41639453;;;;;175.5
343.0;276.0;;;;;;;;;;;;;;;;;-39.811394;88.469345;-99.703964;;175.5
343.0;276.0;;;;;;;;;;;;;;-0.90908533;1.5265969;-0.36036256;;;;;175.5
343.0;276.0;;;;;;;;;;;;;;;;;-39.3498;79.26801;-99.42548;;185.1
343.0;276.0;;;;;;;;;;;;;;-1.0224311;1.4645833;-0.30286568;;;;;185.1
343.0;276.0;;;;;;;;;;;;;;;;;-37.736137;69.15875;-96.88864;;185.1
343.0;276.0;;;;;;;;;;;;;;-1.0726036;1.3957945;-0.20728172;;;;;185.1
343.0;276.0;;;;;;;;;;;;;;;;;-39.27732;55.730614;-91.53645;;194.6
343.0;276.0;;;;;;;;;;;;;;-1.0531328;1.3084506;-0.10242012;;;;;194.6
343.0;276.0;;;;;;;;;;;;;;;;;-40.456097;42.775505;-86.02023;;194.6
343.0;276.0;;;;;;;;;;;;;;-1.0019838;1.2251351;-0.0010376293;;;;;194.6
403.0;276.9;;;;;;;;;;;;;;;;;-39.178135;31.983398;-79.931786;;204.3
403.0;276.9;;;;;;;;;;;;;;-0.9358806;1.1498764;0.07159642;;;;;204.3
403.0;276.9;;;;;;;;;;;;;;;;;-36.610767;23.63277;-72.935425;;204.3
403.0;276.9;;;;;;;;;;;;;;-0.8829005;1.0795007;0.11572619;;;;;204.3
403.0;276.9;;;;;;;;;;;;;;;;;-35.24125;13.81344;-65.298164;;213.9
403.0;276.9;;;;;;;;;;;;;;-0.8362682;1.0062563;0.14300974;;;;;213.9
403.0;276.9;;;;;;;;;;;;;;;;;-34.993286;3.3150733;-57.03528;;213.9
403.0;276.9;;;;;;;;;;;;;;-0.7790155;0.9376507;0.13702811;;;;;213.9
403.0;276.9;;;;;;;;;;;;;;;;;-29.332104;-6.492813;-49.413284;;223.6
403.0;276.9;;;;;;;;;;;;;;-0.71340066;0.8906522;0.11902219;;;;;223.6
403.0;276.9;;;;;;;;;;;;;;;;;-22.43492;-15.3698845;-41.482285;;223.6
403.0;276.9;;;;;;;;;;;;;;-0.6384472;0.8641621;0.090456866;;;;;223.6
403.0;335.9;;;;;;;;;;;;;;;;;-16.106144;-22.724844;-33.684807;;233.2
403.0;335.9;;;;;;;;;;;;;;-0.5480514;0.8318125;0.06762902;;;;;233.2
403.0;335.9;;;;;;;;;;;;;;;;;-11.619923;-29.087955;-25.788141;;233.2
403.0;335.9;;;;;;;;;;;;;;-0.4603412;0.783227;0.05182043;;;;;233.2
403.0;335.9;;;;;;;;;;;;;;;;;-7.827998;-34.154026;-17.91818;;242.8
403.0;335.9;;;;;;;;;;;;;;-0.3698233;0.73677784;0.049012728;;;;;242.8
403.0;335.9;;;;;;;;;;;;;;;;;-5.035554;-36.557358;-10.738701;;242.8
403.0;335.9;;;;;;;;;;;;;;-0.29059726;0.70381784;0.058107242;;;;;242.8
403.0;335.9;;;;;;;;;;;;;;;;;-2.3842587;-37.30125;-3.89111;;252.5
403.0;335.9;;;;;;;;;;;;;;-0.23871578;0.6837977;0.07727287;;;;;252.5
403.0;335.9;;;;;;;;;;;;;;;;;-1.3046663;-38.25495;3.4981842;;252.5
403.0;335.9;;;;;;;;;;;;;;-0.19464706;0.66853845;0.11401715;;;;;252.5
463.0;336.7;;;;;;;;;;;;;;;;;-3.9902954;-39.33454;10.734886;;262.1
463.0;336.7;;;;;;;;;;;;;;-0.15326396;0.61989194;0.12707907;;;;;262.1
463.0;336.7;;;;;;;;;;;;;;;;;-1.289407;-39.613026;16.125217;;262.1
463.0;336.7;;;;;;;;;;;;;;-0.16138189;0.5566576;0.11859493;;;;;262.1
463.0;336.7;;;;;;;;;;;;;;;;;5.8709984;-38.98358;19.001587;;271.7
463.0;336.7;;;;;;;;;;;;;;-0.18079165;0.5570238;0.12720115;;;;;271.7
463.0;336.7;;;;;;;;;;;;;;;;;8.243813;-37.038025;22.839289;;271.7
463.0;336.7;;;;;;;;;;;;;;-0.16577655;0.5652638;0.11951049;;;;;271.7
463.0;336.7;;;;;;;;;;;;;;;;;6.3173313;-33.860287;29.545732;;281.3
463.0;336.7;;;;;;;;;;;;;;-0.12982574;0.54951626;0.09363079;;;;;281.3
463.0;336.7;;;;;;;;;;;;;;;;;3.9979248;-29.885252;37.217323;;281.3
463.0;336.7;;;;;;;;;;;;;;-0.078676715;0.53004545;0.03625599;;;;;281.3
463.0;396.3;;;;;;;;;;;;;;;;;2.0332959;-21.64144;44.736317;;291.0
463.0;396.3;;;;;;;;;;;;;;-0.038941618;0.504532;-0.0077517014;;;;;291.0
463.0;396.3;;;;;;;;;;;;;;;;;0.7209998;-12.668996;50.13428;;291.0
463.0;396.3;;;;;;;;;;;;;;-0.0023804437;0.46705526;-0.034119695;;;;;291.0
463.0;396.3;;;;;;;;;;;;;;;;;-1.575518;-4.9401836;52.587208;;300.5
463.0;396.3;;;;;;;;;;;;;;0.026306955;0.43171483;-0.055604726;;;;;300.5
463.0;396.3;;;;;;;;;;;;;;;;;-7.2634053;2.0332959;52.659687;;300.5
463.0;396.3;;;;;;;;;;;;;;0.04077273;0.40699485;-0.05505539;;;;;300.5
463.0;396.3;;;;;;;;;;;;;;;;;-12.150182;7.438887;53.495132;;310.0
463.0;396.3;;;;;;;;;;;;;;0.052552875;0.3999756;-0.095156714;;;;;310.0
463.0;396.3;;;;;;;;;;;;;;;;;-14.43144;19.192327;56.0625;;310.0
463.0;396.3;;;;;;;;;;;;;;0.062135685;0.4168218;-0.14575641;;;;;310.0
523.0;396.9;;;;;;;;;;;;;;;;;-13.283181;35.56932;62.414165;;319.7
523.0;396.9;;;;;;;;;;;;;;0.07916501;0.41224402;-0.2245552;;;;;319.7
523.0;396.9;;;;;;;;;;;;;;;;;-8.919034;56.73391;69.43342;;319.7
523.0;396.9;;;;;;;;;;;;;;0.09039582;0.41096225;-0.28235725;;;;;319.7
523.0;396.9;;;;;;;;;;;;;;;;;-6.496628;75.71642;75.07172;;329.4
523.0;396.9;;;;;;;;;;;;;;0.08575701;0.4113895;-0.2646565;;;;;329.4
523.0;396.9;;;;;;;;;;;;;;;;;-11.146885;83.42235;79.95086;;329.4
523.0;396.9;;;;;;;;;;;;;;0.05529954;0.40992463;-0.20447402;;;;;329.4
523.0;396.9;;;;;;;;;;;;;;;;;-21.431623;82.23975;80.79394;;339.1
523.0;396.9;;;;;;;;;;;;;;0.027527696;0.39100313;-0.11572619;;;;;339.1
523.0;396.9;;;;;;;;;;;;;;;;;-29.160437;77.33009;79.14975;;339.1
523.0;396.9;;;;;;;;;;;;;;-0.017700735;0.3932005;-0.04992828;;;;;339.1
523.0;456.6;;;;;;;;;;;;;;;;;-30.00351;75.29298;78.19223;;348.7
523.0;456.6;;;;;;;;;;;;;;-0.07843257;0.3986938;-0.018494217;;;;;348.7
523.0;456.6;;;;;;;;;;;;;;;;;-27.596361;76.60909;77.86417;;348.7
523.0;456.6;;;;;;;;;;;;;;-0.1340373;0.41602832;-0.016846217;;;;;348.7
523.0;456.6;;;;;;;;;;;;;;;;;-25.4944;80.103455;78.02438;;358.4
523.0;456.6;;;;;;;;;;;;;;-0.19080172;0.43055514;-0.01965392;;;;;358.4
523.0;456.6;;;;;;;;;;;;;;;;;-24.063845;83.61308;78.42875;;358.4
523.0;456.6;;;;;;;;;;;;;;-0.25269327;0.4485;-0.025757622;;;;;358.4
523.0;456.6;;;;;;;;;;;;;;;;;-22.579882;87.18757;79.252754;;368.0
523.0;456.6;;;;;;;;;;;;;;-0.31183812;0.4782861;-0.034669027;;;;;368.0
523.0;456.6;;;;;;;;;;;;;;;;;-20.649586;90.30427;79.82116;;368.0
523.0;456.6;;;;;;;;;;;;;;-0.3696402;0.5205237;-0.028504288;;;;;368.0
586.0;457.3;;;;;;;;;;;;;;;;;-20.371105;90.36912;80.02716;;377.5
586.0;457.3;;;;;;;;;;;;;;-0.4308603;0.57368696;-0.02929777;;;;;377.5
586.0;457.3;;;;;;;;;;;;;;;;;-23.186438;86.90146;81.12201;;377.5
586.0;457.3;;;;;;;;;;;;;;-0.48469496;0.6176336;-0.038636435;;;;;377.5
586.0;457.3;;;;;;;;;;;;;;;;;-26.875362;81.30894;81.87353;;387.2
586.0;457.3;;;;;;;;;;;;;;-0.5326701;0.65199745;-0.06378368;;;;;387.2
586.0;457.3;;;;;;;;;;;;;;;;;-28.653065;75.01068;83.24305;;387.2
586.0;457.3;;;;;;;;;;;;;;-0.57020783;0.6918546;-0.105288856;;;;;387.2
586.0;457.3;;;;;;;;;;;;;;;;;-28.424177;69.357124;84.826195;;396.9
586.0;457.3;;;;;;;;;;;;;;-0.6085391;0.73268837;-0.15674306;;;;;396.9
586.0;457.3;;;;;;;;;;;;;;;;;-27.588732;63.253426;86.661125;;396.9
586.0;457.3;;;;;;;;;;;;;;-0.6308786;0.77370524;-0.21546067;;;;;396.9
586.0;517.0;;;;;;;;;;;;;;;;;-27.115696;57.889797;87.954346;;406.5
586.0;517.0;;;;;;;;;;;;;;-0.6456496;0.797937;-0.26178777;;;;;406.5
586.0;517.0;;;;;;;;;;;;;;;;;-26.9364;53.45317;88.24427;;406.5
586.0;517.0;;;;;;;;;;;;;;-0.6531571;0.79012424;-0.305063;;;;;406.5
586.0;517.0;;;;;;;;;;;;;;;;;-25.769066;52.331615;87.43553;;416.1
586.0;517.0;;;;;;;;;;;;;;-0.6625568;0.75643176;-0.35627308;;;;;416.1
586.0;517.0;;;;;;;;;;;;;;;;;-21.916105;55.39491;86.49327;;416.1
586.0;517.0;;;;;;;;;;;;;;-0.6663411;0.7083346;-0.4143803;;;;;416.1
586.0;517.0;;;;;;;;;;;;;;;;;-16.68218;61.281166;84.524826;;425.7
586.0;517.0;;;;;;;;;;;;;;-0.66554767;0.68434703;-0.4618061;;;;;425.7
586.0;517.0;;;;;;;;;;;;;;;;;-12.596515;66.774506;84.532455;;425.7
586.0;517.0;;;;;;;;;;;;;;-0.6732994;0.66518146;-0.49598682;;;;;425.7
650.0;518.2;;;;;;;;;;;;;;;;;-9.6667385;70.86016;86.37883;;435.3
650.0;518.2;;;;;;;;;;;;;;-0.6535844;0.64552754;-0.5366375;;;;;435.3
650.0;518.2;;;;;;;;;;;;;;;;;-6.9467754;77.951904;87.86279;;435.3
650.0;518.2;;;;;;;;;;;;;;-0.6445509;0.63112277;-0.5487228;;;;;435.3
650.0;518.2;;;;;;;;;;;;;;;;;-3.318888;85.92868;89.07208;;445.0
650.0;518.2;;;;;;;;;;;;;;-0.6369823;0.63124484;-0.56361586;;;;;445.0
650.0;518.2;;;;;;;;;;;;;;;;;1.2588885;91.83019;89.94186;;445.0
650.0;518.2;;;;;;;;;;;;;;-0.6482742;0.6461379;-0.5366985;;;;;445.0
650.0;518.2;;;;;;;;;;;;;;;;;5.710776;93.27982;92.150635;;454.7
650.0;518.2;;;;;;;;;;;;;;-0.6440016;0.6618244;-0.51155126;;;;;454.7
650.0;518.2;;;;;;;;;;;;;;;;;7.683035;92.67327;92.471085;;454.7
650.0;518.2;;;;;;;;;;;;;;-0.6587115;0.6800134;-0.4333018;;;;;454.7
650.0;531.9;;;;;;;;;;;;;;;;;8.285776;84.410385;91.448715;;464.3
650.0;531.9;;;;;;;;;;;;;;-0.67842644;0.70204777;-0.33729056;;;;;464.3
650.0;531.9;;;;;;;;;;;;;;;;;8.346813;72.45094;89.62904;;464.3
650.0;531.9;;;;;;;;;;;;;;-0.69631034;0.70839566;-0.24304941;;;;;464.3
650.0;531.9;;;;;;;;;;;;;;;;;9.971923;60.289314;86.0622;;473.9
650.0;531.9;;;;;;;;;;;;;;-0.7331156;0.7154759;-0.15271463;;;;;473.9
650.0;531.9;;;;;;;;;;;;;;;;;11.77633;47.330395;80.9389;;473.9
650.0;531.9;;;;;;;;;;;;;;-0.7751091;0.7289651;-0.06311228;;;;;473.9
650.0;531.9;;;;;;;;;;;;;;;;;10.418256;35.29084;74.94202;;483.5
650.0;531.9;;;;;;;;;;;;;;-0.8156377;0.7384869;0.03399762;;;;;483.5
650.0;531.9;;;;;;;;;;;;;;;;;7.534257;25.948362;67.53747;;483.5
650.0;531.9;;;;;;;;;;;;;;-0.85329753;0.75032806;0.11011078;;;;;483.5
709.0;577.2;;;;;;;;;;;;;;;;;4.3107395;19.230476;59.77432;;493.2
709.0;577.2;;;;;;;;;;;;;;-0.9060335;0.77120274;0.16309091;;;;;493.2
709.0;577.2;;;;;;;;;;;;;;;;;-0.85833305;15.003662;52.713097;;493.2
709.0;577.2;;;;;;;;;;;;;;-0.9494308;0.79354227;0.18958098;;;;;493.2
709.0;577.2;;;;;;;;;;;;;;;;;-7.1718497;14.22544;45.66332;;502.9
709.0;577.2;;;;;;;;;;;;;;-0.98458815;0.81160927;0.18286692;;;;;502.9
709.0;577.2;;;;;;;;;;;;;;;;;-10.986664;15.179143;40.74221;;502.9
709.0;577.2;;;;;;;;;;;;;;-0.99923706;0.80977815;0.14661092;;;;;502.9
709.0;577.2;;;;;;;;;;;;;;;;;-12.722404;15.175328;37.614063;;512.4
709.0;577.2;;;;;;;;;;;;;;-0.9939268;0.8019044;0.109866634;;;;;512.4
709.0;577.2;;;;;;;;;;;;;;;;;-11.581775;12.29896;36.42384;;512.4
709.0;577.2;;;;;;;;;;;;;;-0.9632252;0.7844478;0.06439406;;;;;512.4
709.0;592.3;;;;;;;;;;;;;;;;;-7.572405;7.423628;37.15247;;522.1
709.0;592.3;;;;;;;;;;;;;;-0.9036531;0.7688223;0.012878811;;;;;522.1
709.0;592.3;;;;;;;;;;;;;;;;;-2.4605548;2.3537402;39.010284;;522.1
709.0;592.3;;;;;;;;;;;;;;-0.81606495;0.7685782;-0.040101323;;;;;522.1
709.0;592.3;;;;;;;;;;;;;;;;;3.0671103;-0.75914794;41.226692;;531.8
709.0;592.3;;;;;;;;;;;;;;-0.7249977;0.78078556;-0.08911405;;;;;531.8
709.0;592.3;;;;;;;;;;;;;;;;;6.9963684;-1.4038514;42.901394;;531.8
709.0;592.3;;;;;;;;;;;;;;-0.652913;0.8285775;-0.1053499;;;;;531.8
709.0;592.3;;;;;;;;;;;;;;;;;6.7941833;0.19074069;43.65673;;541.4
709.0;592.3;;;;;;;;;;;;;;-0.6007874;0.9335612;-0.059694204;;;;;541.4
709.0;592.3;;;;;;;;;;;;;;;;;10.177923;3.8186285;43.660545;;541.4
709.0;592.3;;;;;;;;;;;;;;-0.6063417;1.0467849;-0.11774041;;;;;541.4
769.0;637.9;;;;;;;;;;;;;;;;;16.59444;8.167517;44.465466;;551.1
769.0;637.9;;;;;;;;;;;;;;-0.6557207;1.1633046;-0.14996795;;;;;551.1
769.0;637.9;;;;;;;;;;;;;;;;;9.746849;11.589404;46.296577;;551.1
769.0;637.9;;;;;;;;;;;;;;-0.661153;1.2054201;-0.1424604;;;;;551.1
769.0;637.9;;;;;;;;;;;;;;;;;1.3199255;21.29429;46.807762;;560.8
769.0;637.9;;;;;;;;;;;;;;-0.65468305;1.2699972;-0.16699728;;;;;560.8
769.0;637.9;;;;;;;;;;;;;;;;;2.1515548;39.773247;47.212135;;560.8
769.0;637.9;;;;;;;;;;;;;;-0.6609088;1.3492233;-0.22363964;;;;;560.8
769.0;637.9;;;;;;;;;;;;;;;;;7.56859;57.23365;48.2841;;570.3
769.0;637.9;;;;;;;;;;;;;;-0.6443068;1.3473922;-0.27027193;;;;;570.3
769.0;637.9;;;;;;;;;;;;;;;;;10.719626;62.91391;48.11243;;570.3
769.0;637.9;;;;;;;;;;;;;;-0.59401226;1.2357554;-0.2569048;;;;;570.3
769.0;652.4;;;;;;;;;;;;;;;;;12.588885;53.41884;48.684654;;579.9
769.0;652.4;;;;;;;;;;;;;;-0.48420668;1.1800897;-0.19196142;;;;;579.9
769.0;652.4;;;;;;;;;;;;;;;;;14.584033;38.19773;52.05313;;579.9
769.0;652.4;;;;;;;;;;;;;;-0.33265176;1.198645;-0.081118196;;;;;579.9
769.0;652.4;;;;;;;;;;;;;;;;;13.676107;27.535324;56.68813;;589.6
769.0;652.4;;;;;;;;;;;;;;-0.18231757;1.1996216;-0.024903104;;;;;589.6
769.0;652.4;;;;;;;;;;;;;;;;;12.58507;23.255104;59.900204;;589.6
769.0;652.4;;;;;;;;;;;;;;-0.077883236;1.2181158;0.039613027;;;;;589.6
769.0;652.4;;;;;;;;;;;;;;;;;8.423109;16.804255;62.612534;;599.2
769.0;652.4;;;;;;;;;;;;;;-0.023499252;1.2087771;0.10144353;;;;;599.2
769.0;652.4;;;;;;;;;;;;;;;;;0.7057405;10.662404;59.152504;;599.2
769.0;652.4;;;;;;;;;;;;;;9.765923E-4;1.1221656;0.09668264;;;;;599.2
830.0;697.6;;;;;;;;;;;;;;;;;-1.9951477;9.556108;44.480724;;608.9
830.0;697.6;;;;;;;;;;;;;;-0.110965304;1.0431226;0.0738548;;;;;608.9
830.0;697.6;;;;;;;;;;;;;;;;;1.7471846;9.720146;30.678732;;608.9
830.0;697.6;;;;;;;;;;;;;;-0.32288584;0.9822077;-0.06366161;;;;;608.9
830.0;697.6;;;;;;;;;;;;;;;;;6.633961;16.270182;21.290476;;618.5
830.0;697.6;;;;;;;;;;;;;;-0.5122837;0.95504624;-0.20856349;;;;;618.5
830.0;697.6;;;;;;;;;;;;;;;;;14.305552;21.645254;12.855922;;618.5
830.0;697.6;;;;;;;;;;;;;;-0.6425367;0.9526658;-0.3571276;;;;;618.5
830.0;697.6;;;;;;;;;;;;;;;;;26.08951;20.80218;7.000183;;628.2
830.0;697.6;;;;;;;;;;;;;;-0.6906949;0.9427168;-0.51619005;;;;;628.2
830.0;697.6;;;;;;;;;;;;;;;;;38.590656;16.83096;3.627888;;628.2
830.0;697.6;;;;;;;;;;;;;;-0.72402114;0.9148228;-0.60243535;;;;;628.2
830.0;758.1;;;;;;;;;;;;;;;;;46.89169;8.362072;2.8649251;;637.8
830.0;758.1;;;;;;;;;;;;;;-0.7129124;0.8778344;-0.59828484;;;;;637.8
830.0;758.1;;;;;;;;;;;;;;;;;47.647022;-2.887814;6.050295;;637.8
830.0;758.1;;;;;;;;;;;;;;-0.643086;0.8460341;-0.53761405;;;;;637.8
830.0;758.1;;;;;;;;;;;;;;;;;41.920986;-17.017883;11.524552;;647.5
830.0;758.1;;;;;;;;;;;;;;-0.5091098;0.839198;-0.43934447;;;;;647.5
830.0;758.1;;;;;;;;;;;;;;;;;31.586658;-31.926178;17.90292;;647.5
830.0;758.1;;;;;;;;;;;;;;-0.34736168;0.86141545;-0.36371958;;;;;647.5
830.0;758.1;;;;;;;;;;;;;;;;;25.017548;-40.650654;23.968475;;657.2
830.0;758.1;;;;;;;;;;;;;;-0.22144231;0.85494554;-0.3251442;;;;;657.2
830.0;758.1;;;;;;;;;;;;;;;;;23.96466;-40.303505;29.095585;;657.2
830.0;758.1;;;;;;;;;;;;;;-0.122562334;0.8225959;-0.3538316;;;;;657.2
890.0;758.9;;;;;;;;;;;;;;;;;27.44377;-34.993286;35.256508;;666.8
890.0;758.9;;;;;;;;;;;;;;-0.06915494;0.80074465;-0.3996704;;;;;666.8
890.0;758.9;;;;;;;;;;;;;;;;;29.51903;-32.20466;37.965027;;666.8
890.0;758.9;;;;;;;;;;;;;;-0.06915494;0.78560746;-0.42072818;;;;;666.8
890.0;758.9;;;;;;;;;;;;;;;;;22.232733;-36.34373;33.539845;;676.3
890.0;758.9;;;;;;;;;;;;;;-0.1657155;0.9252602;-0.39100313;;;;;676.3
890.0;758.9;;;;;;;;;;;;;;;;;2.6284068;-43.519398;29.17188;;676.3
890.0;758.9;;;;;;;;;;;;;;-0.37910092;1.1815546;-0.27869502;;;;;676.3
890.0;758.9;;;;;;;;;;;;;;;;;-35.008545;-42.321545;19.306772;;685.9
890.0;758.9;;;;;;;;;;;;;;-0.64101076;1.60271;-0.46040222;;;;;685.9
890.0;758.9;;;;;;;;;;;;;;;;;-49.478134;-12.150182;-17.097994;;685.9
890.0;758.9;;;;;;;;;;;;;;-1.2230598;1.9791864;-1.0185858;;;;;685.9
890.0;765.8;;;;;;;;;;;;;;;;;26.875362;2.7390363;-95.13383;;695.6
890.0;765.8;;;;;;;;;;;;;;-1.8974578;1.9979857;-1.6766869;;;;;695.6
890.0;765.8;;;;;;;;;;;;;;;;;82.6899;21.858883;-124.90082;;695.6
890.0;765.8;;;;;;;;;;;;;;-1.9998169;1.9979857;-1.1044649;;;;;695.6
890.0;765.8;;;;;;;;;;;;;;;;;8.81222;-4.100925;-119.93392;;705.3
890.0;765.8;;;;;;;;;;;;;;-1.9443343;1.7222816;-0.39228493;;;;;705.3
890.0;765.8;;;;;;;;;;;;;;;;;-22.6104;-94.328896;-104.606;;705.3
890.0;765.8;;;;;;;;;;;;;;-1.3835871;0.37452316;0.026795251;;;;;705.3
890.0;765.8;;;;;;;;;;;;;;;;;-3.9063692;-112.907036;-111.15985;;715.0
890.0;765.8;;;;;;;;;;;;;;-0.972808;-0.53852963;0.31055635;;;;;715.0
890.0;765.8;;;;;;;;;;;;;;;;;23.033844;-117.828156;-106.410416;;715.0
890.0;765.8;;;;;;;;;;;;;;-0.61110264;-0.9620045;0.13031404;;;;;715.0
949.0;818.2;;;;;;;;;;;;;;;;;68.5255;-109.90096;-66.324356;;724.5
949.0;818.2;;;;;;;;;;;;;;-0.20520645;-0.59346294;0.041016877;;;;;724.5
949.0;818.2;;;;;;;;;;;;;;;;;79.13449;-92.600784;-5.516221;;724.5
949.0;818.2;;;;;;;;;;;;;;-0.043946654;0.21558276;-0.03241066;;;;;724.5
949.0;818.2;;;;;;;;;;;;;;;;;53.067875;-81.15253;46.262245;;734.0
949.0;818.2;;;;;;;;;;;;;;0.08294931;0.74654377;-0.19428083;;;;;734.0
949.0;818.2;;;;;;;;;;;;;;;;;15.034181;-54.9295;95.76708;;734.0
949.0;818.2;;;;;;;;;;;;;;0.28125858;1.0062563;-0.3173925;;;;;734.0
949.0;818.2;;;;;;;;;;;;;;;;;2.277444;-26.409956;123.99289;;743.7
949.0;818.2;;;;;;;;;;;;;;0.4207892;1.0804163;-0.3444319;;;;;743.7
949.0;818.2;;;;;;;;;;;;;;;;;35.435802;-20.741142;124.988556;;743.7
949.0;818.2;;;;;;;;;;;;;;0.4829249;1.1539658;-0.30860317;;;;;743.7
949.0;833.2;;;;;;;;;;;;;;;;;98.422195;-39.597763;124.988556;;753.4
949.0;833.2;;;;;;;;;;;;;;0.6223945;1.2718894;-0.5977355;;;;;753.4
949.0;833.2;;;;;;;;;;;;;;;;;123.65718;-20.371105;124.988556;;753.4
949.0;833.2;;;;;;;;;;;;;;0.66621906;1.2762841;-0.7891476;;;;;753.4
949.0;833.2;;;;;;;;;;;;;;;;;122.20756;7.87759;124.988556;;763.1
949.0;833.2;;;;;;;;;;;;;;0.6498001;1.2228156;-0.8514664;;;;;763.1
949.0;833.2;;;;;;;;;;;;;;;;;91.15878;2.2698143;124.988556;;763.1
949.0;833.2;;;;;;;;;;;;;;0.717246;1.1305276;-0.6501053;;;;;763.1
949.0;833.2;;;;;;;;;;;;;;;;;7.0078125;-14.942626;124.988556;;772.7
949.0;833.2;;;;;;;;;;;;;;0.6506546;0.8417005;-0.64510024;;;;;772.7
949.0;833.2;;;;;;;;;;;;;;;;;-41.19617;-24.792473;119.701225;;772.7
949.0;833.2;;;;;;;;;;;;;;0.32312998;0.34583575;-0.43208104;;;;;772.7
1010.0;878.5;;;;;;;;;;;;;;;;;-38.84625;-34.66521;31.33488;;782.4
1010.0;878.5;;;;;;;;;;;;;;-0.05389569;0.4288461;-0.29944763;;;;;782.4
1010.0;878.5;;;;;;;;;;;;;;;;;-19.707327;-41.86758;-76.307724;;782.4
1010.0;878.5;;;;;;;;;;;;;;-0.32984406;0.7152928;-0.37763605;;;;;782.4
1010.0;878.5;;;;;;;;;;;;;;;;;-13.145848;-29.79751;-121.36829;;792.1
1010.0;878.5;;;;;;;;;;;;;;-0.41822565;0.8763085;-0.49421674;;;;;792.1
1010.0;878.5;;;;;;;;;;;;;;;;;-25.112917;12.909329;-124.988556;;792.1
1010.0;878.5;;;;;;;;;;;;;;-0.51478624;1.0033265;-0.38801232;;;;;792.1
1010.0;878.5;;;;;;;;;;;;;;;;;-46.21647;43.50795;-124.988556;;801.7
1010.0;878.5;;;;;;;;;;;;;;-0.5823542;1.0968353;-0.10522782;;;;;801.7
1010.0;878.5;;;;;;;;;;;;;;;;;-66.35869;53.323467;-124.988556;;801.7
1010.0;878.5;;;;;;;;;;;;;;-0.58125556;0.9471114;-0.026062807;;;;;801.7
1010.0;886.4;;;;;;;;;;;;;;;;;-71.04709;56.79876;-124.988556;;811.3
1010.0;886.4;;;;;;;;;;;;;;-0.68660545;0.9178747;0.24652852;;;;;811.3
1010.0;886.4;;;;;;;;;;;;;;;;;-48.535877;24.899288;-124.988556;;811.3
1010.0;886.4;;;;;;;;;;;;;;-0.71358377;0.9341105;0.17084262;;;;;811.3
1010.0;886.4;;;;;;;;;;;;;;;;;-3.3989992;4.6578875;-118.44615;;821.0
1010.0;886.4;;;;;;;;;;;;;;-0.79384744;0.8905301;0.07672353;;;;;821.0
1010.0;886.4;;;;;;;;;;;;;;;;;33.104954;-15.774254;-61.60924;;821.0
1010.0;886.4;;;;;;;;;;;;;;-0.7345195;0.8130131;0.02087466;;;;;821.0
1010.0;886.4;;;;;;;;;;;;;;;;;49.09284;-36.52684;12.768181;;830.7
1010.0;886.4;;;;;;;;;;;;;;-0.49049348;0.6801355;-0.28797266;;;;;830.7
1010.0;886.4;;;;;;;;;;;;;;;;;45.850246;-27.207253;40.02121;;830.7
1010.0;886.4;;;;;;;;;;;;;;-0.33216345;0.6803186;-0.23194067;;;;;830.7
1067.0;938.8;;;;;;;;;;;;;;;;;45.36195;-39.12091;32.876064;;840.4
1067.0;938.8;;;;;;;;;;;;;;-0.35041353;0.7412946;-0.25714895;;;;;840.4
1067.0;938.8;;;;;;;;;;;;;;;;;44.835503;-44.145027;27.859583;;840.4
1067.0;938.8;;;;;;;;;;;;;;-0.42909023;0.7636952;-0.22589801;;;;;840.4
1067.0;938.8;;;;;;;;;;;;;;;;;43.16462;-44.763023;28.14951;;850.0
1067.0;938.8;;;;;;;;;;;;;;-0.45338297;0.7826777;-0.17389446;;;;;850.0
1067.0;938.8;;;;;;;;;;;;;;;;;35.06958;-44.61806;26.512955;;850.0
1067.0;938.8;;;;;;;;;;;;;;-0.48304698;0.78670615;-0.11859493;;;;;850.0
1067.0;938.8;;;;;;;;;;;;;;;;;21.340069;-44.557022;23.937956;;859.5
1067.0;938.8;;;;;;;;;;;;;;-0.4733421;0.75930053;-0.09222694;;;;;859.5
1067.0;938.8;;;;;;;;;;;;;;;;;9.6667385;-43.244728;20.229956;;859.5
1067.0;938.8;;;;;;;;;;;;;;-0.45857114;0.7330546;-0.07361065;;;;;859.5
1067.0;939.7;;;;;;;;;;;;;;;;;1.5907773;-41.905727;15.537736;;869.1
1067.0;939.7;;;;;;;;;;;;;;-0.4358043;0.72670674;-0.07696768;;;;;869.1
1067.0;939.7;;;;;;;;;;;;;;;;;-4.2687764;-39.96017;11.135441;;869.1
1067.0;939.7;;;;;;;;;;;;;;-0.40583515;0.71626943;-0.08575701;;;;;869.1
1067.0;939.7;;;;;;;;;;;;;;;;;-8.468886;-38.10236;7.133702;;878.7
1067.0;939.7;;;;;;;;;;;;;;-0.38080996;0.70314646;-0.09106723;;;;;878.7
1067.0;939.7;;;;;;;;;;;;;;;;;-9.640035;-36.75573;3.276925;;878.7
1067.0;939.7;;;;;;;;;;;;;;-0.36194953;0.6979583;-0.09887997;;;;;878.7
1067.0;939.7;;;;;;;;;;;;;;;;;-7.4198127;-35.531174;0.2784814;;888.4
1067.0;939.7;;;;;;;;;;;;;;-0.3487045;0.69649345;-0.10821863;;;;;888.4
1067.0;939.7;;;;;;;;;;;;;;;;;-3.7347028;-33.69625;-2.3804438;;888.4
1067.0;939.7;;;;;;;;;;;;;;-0.33777887;0.69844663;-0.111514635;;;;;888.4
1128.0;999.1;;;;;;;;;;;;;;;;;-0.5264443;-30.850397;-4.8791466;;898.0
1128.0;999.1;;;;;;;;;;;;;;-0.3213599;0.70278025;-0.12964264;;;;;898.0
1128.0;999.1;;;;;;;;;;;;;;;;;3.4485915;-25.124363;-7.1108127;;898.0
1128.0;999.1;;;;;;;;;;;;;;-0.311655;0.6960051;-0.14868619;;;;;898.0
1128.0;999.1;;;;;;;;;;;;;;;;;8.171331;-18.078402;-10.212256;;907.6
1128.0;999.1;;;;;;;;;;;;;;-0.31666005;0.6944182;-0.17517625;;;;;907.6
1128.0;999.1;;;;;;;;;;;;;;;;;9.334849;-10.505997;-14.278848;;907.6
1128.0;999.1;;;;;;;;;;;;;;-0.3307596;0.69771415;-0.1817072;;;;;907.6
1128.0;999.1;;;;;;;;;;;;;;;;;4.543443;-5.954924;-16.766108;;917.1
1128.0;999.1;;;;;;;;;;;;;;-0.32917264;0.70314646;-0.14423047;;;;;917.1
1128.0;999.1;;;;;;;;;;;;;;;;;-6.0350356;-4.4557023;-17.353586;;917.1
1128.0;999.1;;;;;;;;;;;;;;-0.31751457;0.7037568;-0.08789331;;;;;917.1
1128.0;999.9;;;;;;;;;;;;;;;;;-15.408032;-2.8115177;-17.818995;;926.7
1128.0;999.9;;;;;;;;;;;;;;-0.3010956;0.67806023;-0.061281167;;;;;926.7
1128.0;999.9;;;;;;;;;;;;;;;;;-17.025513;4.6578875;-20.340586;;926.7
1128.0;999.9;;;;;;;;;;;;;;-0.2916349;0.6543779;-0.09399701;;;;;926.7
1128.0;999.9;;;;;;;;;;;;;;;;;-14.030885;15.606402;-25.048065;;936.4
1128.0;999.9;;;;;;;;;;;;;;-0.31592762;0.6629841;-0.12390515;;;;;936.4
1128.0;999.9;;;;;;;;;;;;;;;;;-16.926329;21.359142;-27.195808;;936.4
1128.0;999.9;;;;;;;;;;;;;;-0.32422864;0.66176337;-0.1478927;;;;;936.4
1128.0;999.9;;;;;;;;;;;;;;;;;-23.266548;24.098179;-28.05414;;946.0
1128.0;999.9;;;;;;;;;;;;;;-0.31562242;0.65663624;-0.11127049;;;;;946.0
1128.0;999.9;;;;;;;;;;;;;;;;;-26.402327;25.440992;-29.431288;;946.0
1128.0;999.9;;;;;;;;;;;;;;-0.3101291;0.63997316;-0.08362072;;;;;946.0
1312.0;1060.1;;;;;;;;;;;;;;;;;-24.433882;27.649769;-31.411175;;955.7
1312.0;1060.1;;;;;;;;;;;;;;-0.31183812;0.63649404;-0.09613331;;;;;955.7
1312.0;1060.1;;;;;;;;;;;;;;;;;-21.416365;31.331066;-33.059177;;955.7
1312.0;1060.1;;;;;;;;;;;;;;-0.30860317;0.65120393;-0.146733;;;;;955.7
1312.0;1060.1;;;;;;;;;;;;;;;;;-20.157475;36.74047;-34.272285;;965.3
1312.0;1060.1;;;;;;;;;;;;;;-0.29554126;0.6767785;-0.2066103;;;;;965.3
1312.0;1060.1;;;;;;;;;;;;;;;;;-23.583178;42.14606;-34.405804;;965.3
1312.0;1060.1;;;;;;;;;;;;;;-0.28357798;0.7036958;-0.19666128;;;;;965.3
1312.0;1060.1;;;;;;;;;;;;;;;;;-31.979584;44.701984;-34.081543;;974.7
1312.0;1060.1;;;;;;;;;;;;;;-0.26703694;0.70998263;-0.14007996;;;;;974.7
1312.0;1060.1;;;;;;;;;;;;;;;;;-38.869137;47.181618;-34.50499;;974.7
1312.0;1060.1;;;;;;;;;;;;;;-0.27784052;0.71395004;-0.077333905;;;;;974.7
1312.0;1060.8;;;;;;;;;;;;;;;;;-41.74169;49.48958;-35.660877;;984.4
1312.0;1060.8;;;;;;;;;;;;;;-0.31104466;0.7212134;-0.06634724;;;;;984.4
1312.0;1060.8;;;;;;;;;;;;;;;;;-41.302986;51.67928;-36.59551;;984.4
1312.0;1060.8;;;;;;;;;;;;;;-0.35358745;0.7323832;-0.098025456;;;;;984.4
1312.0;1060.8;;;;;;;;;;;;;;;;;-41.55858;53.109837;-37.457657;;994.0
1312.0;1060.8;;;;;;;;;;;;;;-0.4077273;0.74648273;-0.13245033;;;;;994.0
1312.0;1060.8;;;;;;;;;;;;;;;;;-42.863247;52.323986;-37.74758;;994.0
1312.0;1060.8;;;;;;;;;;;;;;-0.45521408;0.7520371;-0.15796381;;;;;994.0
1312.0;1060.8;;;;;;;;;;;;;;;;;-45.175022;50.469982;-37.354656;;1003.7
1312.0;1060.8;;;;;;;;;;;;;;-0.49604785;0.741966;-0.1610767;;;;;1003.7
1312.0;1060.8;;;;;;;;;;;;;;;;;-47.34184;47.78054;-36.76336;;1003.7
1312.0;1060.8;;;;;;;;;;;;;;-0.53077793;0.72640157;-0.15710929;;;;;1003.7
1314.0;1119.6;;;;;;;;;;;;;;;;;-48.535877;45.365765;-36.9274;;1013.3
1314.0;1119.6;;;;;;;;;;;;;;-0.562212;0.71968746;-0.15363018;;;;;1013.3
1314.0;1119.6;;;;;;;;;;;;;;;;;-49.161507;42.1041;-37.022766;;1013.3
1314.0;1119.6;;;;;;;;;;;;;;-0.5871151;0.72273934;-0.14844203;;;;;1013.3
1314.0;1119.6;;;;;;;;;;;;;;;;;-50.60732;38.270214;-36.496323;;1022.8
1314.0;1119.6;;;;;;;;;;;;;;-0.59694207;0.7275613;-0.15552233;;;;;1022.8
1314.0;1119.6;;;;;;;;;;;;;;;;;-51.763206;35.779137;-35.95462;;1022.8
1314.0;1119.6;;;;;;;;;;;;;;-0.59944457;0.73262733;-0.17584765;;;;;1022.8
1314.0;1119.6;;;;;;;;;;;;;;;;;-53.426468;34.649952;-35.57695;;1032.3
1314.0;1119.6;;;;;;;;;;;;;;-0.5984069;0.7456893;-0.17780083;;;;;1032.3
1314.0;1119.6;;;;;;;;;;;;;;;;;-57.554092;34.20743;-35.93173;;1032.3
1314.0;1119.6;;;;;;;;;;;;;;-0.60426646;0.760155;-0.1490524;;;;;1032.3
1315.0;1120.4;;;;;;;;;;;;;;;;;-62.330242;33.25373;-37.171547;;1042.0
1315.0;1120.4;;;;;;;;;;;;;;-0.6112247;0.7797479;-0.10626545;;;;;1042.0
1315.0;1120.4;;;;;;;;;;;;;;;;;-66.51509;31.643879;-38.62499;;1042.0
1315.0;1120.4;;;;;;;;;;;;;;-0.6283761;0.82161933;-0.07574694;;;;;1042.0
1315.0;1120.4;;;;;;;;;;;;;;;;;-66.61428;29.866177;-38.430435;;1051.7
1315.0;1120.4;;;;;;;;;;;;;;-0.6441847;0.85842466;-0.078981906;;;;;1051.7
1315.0;1120.4;;;;;;;;;;;;;;;;;-63.924835;29.770807;-38.285473;;1051.7
1315.0;1120.4;;;;;;;;;;;;;;-0.6731773;0.86965543;-0.0888699;;;;;1051.7
1315.0;1120.4;;;;;;;;;;;;;;;;;-61.38798;29.126102;-38.64788;;1061.4
1315.0;1120.4;;;;;;;;;;;;;;-0.6915494;0.8604389;-0.12128056;;;;;1061.4
1315.0;1120.4;;;;;;;;;;;;;;;;;-61.796165;27.233955;-39.971615;;1061.4
1315.0;1120.4;;;;;;;;;;;;;;-0.70571;0.85580003;-0.120975375;;;;;1061.4
1315.0;1127.9;;;;0.0;0.0;0.0;;;;;;;;;;;;;;;
1315.0;1127.9;;;;-0.12854387;0.019325258;0.06941605;;;;;;;;;;;;;;;
1315.0;1127.9;;;;-0.653698;0.005851746;0.1588669;;;;;;;;;;;;;;;
1315.0;1127.9;;;;-0.734047;-9.880067E-4;0.16905977;;;;;;;;;;;;;;;
1315.0;1127.9;;;;-0.744793;-0.0013809205;0.17601778;;;;;;;;;;;;;;;
1315.0;1137.9;;;;-0.756199;-0.0015563967;0.18216325;;;;;;;;;;;;;;;
1315.0;1137.9;;;;-0.76911557;-0.0012664796;0.18738557;;;;;;;;;;;;;;;
1315.0;1137.9;;;;-0.7837907;-8.0108654E-4;0.19283679;;;;;;;;;;;;;;;
1315.0;1137.9;;;;-0.8006898;-5.6076056E-4;0.19663623;;;;;;;;;;;;;;;
1315.0;1137.9;;;;-0.8190118;-1.1444094E-5;0.20019153;;;;;;;;;;;;;;;
1316.0;1139.0;57431;57436;10966;;;;;;;;;;;;;;;;;;
1316.0;1147.9;;;;-0.8401605;-3.9672857E-4;0.20425418;;;;;;;;;;;;;;;
1316.0;1147.9;;;;-0.86384976;-8.010865E-5;0.20897296;;;;;;;;;;;;;;;
1316.0;1147.9;;;;-0.88957226;7.2097784E-4;0.21503451;;;;;;;;;;;;;;;
1316.0;1147.9;;;;-0.9163934;0.0011062623;0.21813205;;;;;;;;;;;;;;;
1316.0;1147.9;;;;-0.9449121;0.0011024476;0.22314838;;;;;;;;;;;;;;;
1316.0;1158.0;;;;-0.97418225;0.0018768313;0.22803119;;;;;;;;;;;;;;;
1316.0;1158.0;;;;-1.0034944;0.0031089787;0.23381808;;;;;;;;;;;;;;;
1316.0;1158.0;;;;-1.0325509;0.004528046;0.24108508;;;;;;;;;;;;;;;
1316.0;1158.0;;;;-1.0604821;0.0061798105;0.24807742;;;;;;;;;;;;;;;
1316.0;1158.0;;;;-1.0870668;0.008277894;0.25516132;;;;;;;;;;;;;;;
1316.0;1159.2;73799;73880;10950;;;;;;;;;;;;;;;;;;
1316.0;1165.3;;;;;;;;;;;;;0;;;;;;;;
1316.0;1165.3;;;;;;;;;;;;;0;;;;;;;;
1316.0;1165.3;;;;;;;;;;;;;-1;;;;;;;;
1316.0;1165.3;;;;;;;;;;;;;-2;;;;;;;;
1316.0;1165.3;;;;;;;;;;;;;-3;;;;;;;;
1316.0;1168.1;;;;-1.111889;0.009910584;0.26236728;;;;;;;;;;;;;;;
1316.0;1168.1;;;;-1.1368028;0.010646821;0.26834872;;;;;;;;;;;;;;;
1316.0;1168.1;;;;-1.163582;0.010814668;0.27304462;;;;;;;;;;;;;;;
1316.0;1168.1;;;;-1.1929437;0.009597779;0.27352908;;;;;;;;;;;;;;;
1316.0;1168.1;;;;-1.224518;0.00712967;0.27621844;;;;;;;;;;;;;;;
1322.0;1178.2;;;;-1.2551805;0.005084992;0.28047183;;;;;;;;;;;;;;;
1322.0;1178.2;;;;-1.2806245;0.0034294133;0.2840233;;;;;;;;;;;;;;;
1322.0;1178.2;;;;-1.3036577;0.0013465883;0.28728488;;;;;;;;;;;;;;;
1322.0;1178.2;;;;-1.32539;-0.0011177064;0.28955844;;;;;;;;;;;;;;;
1322.0;1178.2;;;;-1.3441011;-0.0036773686;0.29160693;;;;;;;;;;;;;;;
1322.0;1179.4;90282;90216;10959;;;;;;;;;;;;;;;;;;
1322.0;1187.8;;;;;;;;;;;;;;;;;-65.48128;22.896511;-42.72973;;1070.9
1322.0;1187.8;;;;;;;;;;;;;;-0.7102878;0.82668537;-0.10504471;;;;;1070.9
1322.0;1187.8;;;;;;;;;;;;;;;;;-67.04536;20.867031;-47.093876;;1070.9
1322.0;1187.8;;;;;;;;;;;;;;-0.73067415;0.7925657;-0.098025456;;;;;1070.9
1322.0;1187.8;;;;;;;;;;;;;;;;;-66.633354;22.12592;-53.094578;;1080.6
1322.0;1187.8;;;;;;;;;;;;;;-0.76070434;0.7833491;-0.12372204;;;;;1080.6
1322.0;1187.8;;;;;;;;;;;;;;;;;-65.610985;24.445328;-60.747093;;1080.6
1322.0;1187.8;;;;;;;;;;;;;;-0.80648214;0.7900632;-0.13696708;;;;;1080.6
1322.0;1187.8;;;;;;;;;;;;;;;;;-65.93524;24.182104;-70.741905;;1090.0
1322.0;1187.8;;;;;;;;;;;;;;-0.86410105;0.8153935;-0.14667195;;;;;1090.0
1322.0;1187.8;;;;;;;;;;;;;;;;;-66.22898;23.709066;-81.40049;;1090.0
1322.0;1187.8;;;;;;;;;;;;;;-0.9311808;0.8481704;-0.14606158;;;;;1090.0
1322.0;1188.2;;;;-1.3608819;-0.007041932;0.29205707;;;;;;;;;;;;;;;
1322.0;1188.2;;;;-1.374962;-0.010833741;0.2919083;;;;;;;;;;;;;;;
1322.0;1188.2;;;;-1.3881532;-0.015407564;0.29280093;;;;;;;;;;;;;;;
1322.0;1188.2;;;;-1.3979532;-0.019699099;0.29418567;;;;;;;;;;;;;;;
1322.0;1188.2;;;;-1.4060212;-0.022651674;0.29568484;;;;;;;;;;;;;;;
1323.0;1194.9;;;;;;;;;;;;;;;;;-67.02247;22.732473;-93.985565;;1099.7
1323.0;1194.9;;;;;;;;;;;;;;-0.98312324;0.87777334;-0.13904233;;;;;1099.7
1323.0;1194.9;;;;;;;;;;;;;;;;;-69.92553;19.402143;-108.68786;;1099.7
1323.0;1194.9;;;;;;;;;;;;;;-1.0592364;0.94570756;-0.096804716;;;;;1099.7
1323.0;1194.9;;;;;;;;;;;;;;;;;-74.26298;13.985106;-121.60863;;1109.4
1323.0;1194.9;;;;;;;;;;;;;;-1.0856044;1.0215156;-0.098941006;;;;;1109.4
1323.0;1194.9;;;;;;;;;;;;;;;;;-77.68487;13.206885;-124.98093;;1109.4
1323.0;1194.9;;;;;;;;;;;;;;-1.1117893;1.1458479;-0.06488235;;;;;1109.4
1323.0;1194.9;;;;;;;;;;;;;;;;;-77.593315;11.741997;-124.988556;;1119.0
1323.0;1194.9;;;;;;;;;;;;;;-1.1144749;1.3015534;-0.024842067;;;;;1119.0
1323.0;1194.9;;;;;;;;;;;;;;;;;-70.63127;1.9760735;-124.988556;;1119.0
1323.0;1194.9;;;;;;;;;;;;;;-1.0466628;1.4133122;-0.011169774;;;;;1119.0
1323.0;1198.1;;;;-1.4147569;-0.025764469;0.2982979;;;;;;;;;;;;;;;
1323.0;1198.1;;;;-1.424534;-0.029571537;0.3042412;;;;;;;;;;;;;;;
1323.0;1198.1;;;;-1.4335595;-0.032085422;0.31035998;;;;;;;;;;;;;;;
1323.0;1198.1;;;;-1.4411775;-0.032466892;0.3171616;;;;;;;;;;;;;;;
1323.0;1198.1;;;;-1.4495584;-0.030616764;0.3248978;;;;;;;;;;;;;;;
1323.0;1199.3;106630;106601;10952;;;;;;;;;;;;;;;;;;
1323.0;1205.5;;;;;;;;;;;;;-6;;;;;;;;
1323.0;1205.5;;;;;;;;;;;;;-6;;;;;;;;
1323.0;1205.5;;;;;;;;;;;;;-10;;;;;;;;
1323.0;1205.5;;;;;;;;;;;;;-13;;;;;;;;
1323.0;1205.5;;;;;;;;;;;;;-12;;;;;;;;
1325.0;1208.0;;;;-1.4577714;-0.027263645;0.33378986;;;;;;;;;;;;;;;
1325.0;1208.0;;;;-1.4669038;-0.0230217;0.34173587;;;;;;;;;;;;;;;
1325.0;1208.0;;;;-1.4780084;-0.019130709;0.35039523;;;;;;;;;;;;;;;
1325.0;1208.0;;;;-1.4871789;-0.011524201;0.35840228;;;;;;;;;;;;;;;
1325.0;1208.0;;;;-1.4993135;-0.004909516;0.3663216;;;;;;;;;;;;;;;
1325.0;1218.1;;;;-1.5117533;-5.8746344E-4;0.37406924;;;;;;;;;;;;;;;
1325.0;1218.1;;;;-1.519726;0.004867554;0.38537604;;;;;;;;;;;;;;;
1325.0;1218.1;;;;-1.5255091;0.012290956;0.3980599;;;;;;;;;;;;;;;
1325.0;1218.1;;;;-1.5325778;0.019390108;0.41252905;;;;;;;;;;;;;;;
1325.0;1218.1;;;;-1.5365069;0.02902222;0.42691046;;;;;;;;;;;;;;;
1325.0;1219.5;122973;123057;10949;;;;;;;;;;;;;;;;;;
1325.0;1228.3;;;;-1.536484;0.036708836;0.43846136;;;;;;;;;;;;;;;
1325.0;1228.3;;;;-1.5318148;0.043579105;0.45639807;;;;;;;;;;;;;;;
1325.0;1228.3;;;;-1.5164378;0.057018287;0.47883612;;;;;;;;;;;;;;;
1325.0;1228.3;;;;-1.4933397;0.08013535;0.5066834;;;;;;;;;;;;;;;
1325.0;1228.3;;;;-1.4957086;0.09086991;0.5100747;;;;;;;;;;;;;;;
1325.0;1238.4;;;;-1.5119593;0.07990647;0.513321;;;;;;;;;;;;;;;
1325.0;1238.4;;;;-1.51841;0.06628037;0.5228844;;;;;;;;;;;;;;;
1325.0;1238.4;;;;-1.5282824;0.053768165;0.5313187;;;;;;;;;;;;;;;
1325.0;1238.4;;;;-1.5343478;0.044563297;0.5440865;;;;;;;;;;;;;;;
1325.0;1238.4;;;;-1.5336382;0.040901188;0.5624543;;;;;;;;;;;;;;;
1326.0;1240.2;;;;;;;;;;;;;;;;;-63.001648;-10.044404;-124.988556;;1128.7
1326.0;1240.2;;;;;;;;;;;;;;-0.87118137;1.4440749;-0.056703392;;;;;1128.7
1326.0;1240.2;;;;;;;;;;;;;;;;;-57.72576;-18.02118;-124.988556;;1128.7
1326.0;1240.2;;;;;;;;;;;;;;-0.73610646;1.4341258;-0.07348857;;;;;1128.7
1326.0;1240.2;;;;;;;;;;;;;;;;;-50.569168;-27.970213;-124.988556;;1138.2
1326.0;1240.2;;;;;;;;;;;;;;-0.6171453;1.4482864;-0.13617359;;;;;1138.2
1326.0;1240.2;;;;;;;;;;;;;;;;;-37.71325;-34.134953;-123.95093;;1138.2
1326.0;1240.2;;;;;;;;;;;;;;-0.49653614;1.4677572;-0.20355846;;;;;1138.2
1326.0;1240.2;;;;;;;;;;;;;;;;;-24.124882;-35.466324;-119.01456;;1147.8
1326.0;1240.2;;;;;;;;;;;;;;-0.35975218;1.5110325;-0.28846094;;;;;1147.8
1326.0;1240.2;;;;;;;;;;;;;;;;;-18.578142;-30.38499;-112.9986;;1147.8
1326.0;1240.2;;;;;;;;;;;;;;-0.25098422;1.5543077;-0.34626302;;;;;1147.8
1326.0;1239.7;139462;139457;10933;;;;;;;;;;;;;;;;;;
1326.0;1241.0;;;;;;;;;;;;;;;;;-17.750328;-24.143957;-106.76519;;1157.5
1326.0;1241.0;;;;;;;;;;;;;;-0.15979491;1.5517441;-0.40137944;;;;;1157.5
1326.0;1241.0;;;;;;;;;;;;;;;;;-19.73403;-13.0047;-104.46486;;1157.5
1326.0;1241.0;;;;;;;;;;;;;;-0.09222694;1.5320292;-0.4179815;;;;;1157.5
1326.0;1241.0;;;;;;;;;;;;;;;;;-26.802881;0.064851835;-108.61538;;1167.2
1326.0;1241.0;;;;;;;;;;;;;;-0.061769463;1.5139623;-0.42017883;;;;;1167.2
1326.0;1241.0;;;;;;;;;;;;;;;;;-34.52025;9.174627;-115.33326;;1167.2
1326.0;1241.0;;;;;;;;;;;;;;-0.05755791;1.4997406;-0.39149144;;;;;1167.2
1326.0;1241.0;;;;;;;;;;;;;;;;;-43.27525;17.689291;-120.29252;;1176.8
1326.0;1241.0;;;;;;;;;;;;;;-0.07635731;1.4627521;-0.4013184;;;;;1176.8
1326.0;1241.0;;;;;;;;;;;;;;;;;-47.048096;32.631916;-122.310555;;1176.8
1326.0;1241.0;;;;;;;;;;;;;;-0.114322335;1.4296701;-0.42811364;;;;;1176.8
1326.0;1245.6;;;;;;;;;;;;;-19;;;;;;;;
1326.0;1245.6;;;;;;;;;;;;;-14;;;;;;;;
1326.0;1245.6;;;;;;;;;;;;;-15;;;;;;;;
1326.0;1245.6;;;;;;;;;;;;;-42;;;;;;;;
1326.0;1245.6;;;;;;;;;;;;;12;;;;;;;;
1326.0;1248.1;;;;-1.5353014;0.038131718;0.5730553;;;;;;;;;;;;;;;
1326.0;1248.1;;;;-1.5295336;0.03656769;0.582779;;;;;;;;;;;;;;;
1326.0;1248.1;;;;-1.525101;0.036872867;0.5914803;;;;;;;;;;;;;;;
1326.0;1248.1;;;;-1.5227168;0.032974247;0.5964394;;;;;;;;;;;;;;;
1326.0;1248.1;;;;-1.5107272;0.031066898;0.6083947;;;;;;;;;;;;;;;
1367.0;1258.1;;;;-1.4980851;0.035045628;0.6142693;;;;;;;;;;;;;;;
1367.0;1258.1;;;;-1.4881097;0.03275681;0.6172295;;;;;;;;;;;;;;;
1367.0;1258.1;;;;-1.4802438;0.025791172;0.619217;;;;;;;;;;;;;;;
1367.0;1258.1;;;;-1.4666177;0.023651127;0.6252404;;;;;;;;;;;;;;;
1367.0;1258.1;;;;-1.4541627;0.0215683;0.62686926;;;;;;;;;;;;;;;
1367.0;1259.5;155845;155862;10949;;;;;;;;;;;;;;;;;;
1367.0;1268.1;;;;-1.4370118;0.012954714;0.626442;;;;;;;;;;;;;;;
1367.0;1268.1;;;;-1.4208223;0.0062065134;0.63514334;;;;;;;;;;;;;;;
1367.0;1268.1;;;;-1.4073945;-0.0030975346;0.63857657;;;;;;;;;;;;;;;
1367.0;1268.1;;;;-1.3887941;-0.009975434;0.6412087;;;;;;;;;;;;;;;
1367.0;1268.1;;;;-1.3646737;-0.011322022;0.65234;;;;;;;;;;;;;;;
1367.0;1277.9;;;;-1.3460885;-0.015151979;0.65155035;;;;;;;;;;;;;;;
1367.0;1277.9;;;;-1.3248025;-0.016895296;0.6574517;;;;;;;;;;;;;;;
1367.0;1277.9;;;;-1.3065263;-0.021022798;0.6617318;;;;;;;;;;;;;;;
1367.0;1277.9;;;;-1.2850801;-0.018695833;0.6676751;;;;;;;;;;;;;;;
1367.0;1277.9;;;;-1.2608758;-0.022521975;0.66514593;;;;;;;;;;;;;;;
1367.0;1279.2;172100;172137;10948;;;;;;;;;;;;;;;;;;
1367.0;1285.3;;;;;;;;;;;;;32;;;;;;;;
1367.0;1285.3;;;;;;;;;;;;;-131;;;;;;;;
1367.0;1285.3;;;;;;;;;;;;;-133;;;;;;;;
1367.0;1285.3;;;;;;;;;;;;;256;;;;;;;;
1367.0;1285.3;;;;;;;;;;;;;625;;;;;;;;
1370.0;1287.9;;;;-1.23798;-0.031097416;0.66193014;;;;;;;;;;;;;;;
1370.0;1287.9;;;;-1.2138902;-0.040016178;0.66284186;;;;;;;;;;;;;;;
1370.0;1287.9;;;;-1.1964418;-0.049335487;0.6645203;;;;;;;;;;;;;;;
1370.0;1287.9;;;;-1.1821061;-0.058105476;0.65995795;;;;;;;;;;;;;;;
1370.0;1287.9;;;;-1.137642;-0.048641212;0.6649781;;;;;;;;;;;;;;;
1370.0;1298.0;;;;-1.0960771;-0.041774753;0.6769982;;;;;;;;;;;;;;;
1370.0;1298.0;;;;-1.0602914;-0.034935;0.6826096;;;;;;;;;;;;;;;
1370.0;1298.0;;;;-1.0317079;-0.031455997;0.68207556;;;;;;;;;;;;;;;
1370.0;1298.0;;;;-0.99699795;-0.022113802;0.6863404;;;;;;;;;;;;;;;
1370.0;1298.0;;;;-0.96465695;-0.013385775;0.69155127;;;;;;;;;;;;;;;
1370.0;1300.0;;;;;;;;;;;;;;;;;-44.71343;50.416576;-123.268074;;1186.3
1370.0;1300.0;;;;;;;;;;;;;;-0.18469802;1.4356518;-0.46186712;;;;;1186.3
1370.0;1300.0;;;;;;;;;;;;;;;;;-43.130283;66.6715;-124.23704;;1186.3
1370.0;1300.0;;;;;;;;;;;;;;-0.30823696;1.4530473;-0.46943572;;;;;1186.3
1370.0;1300.0;;;;;;;;;;;;;;;;;-43.62621;76.28483;-124.45448;;1195.9
1370.0;1300.0;;;;;;;;;;;;;;-0.44489884;1.4417554;-0.48304698;;;;;1195.9
1370.0;1300.0;;;;;;;;;;;;;;;;;-43.534657;82.19016;-124.02722;;1195.9
1370.0;1300.0;;;;;;;;;;;;;;-0.5775323;1.4061708;-0.4760277;;;;;1195.9
1370.0;1300.0;;;;;;;;;;;;;;;;;-39.92584;83.14005;-123.71822;;1205.6
1370.0;1300.0;;;;;;;;;;;;;;-0.69820243;1.3774225;-0.46168402;;;;;1205.6
1370.0;1300.0;;;;;;;;;;;;;;;;;-34.65758;79.04294;-123.92804;;1205.6
1370.0;1300.0;;;;;;;;;;;;;;-0.7975707;1.3484298;-0.4217658;;;;;1205.6
1370.0;1299.5;188605;188604;10944;;;;;;;;;;;;;;;;;;
1372.0;1301.2;;;;;;;;;;;;;;;;;-32.12836;70.070496;-123.63429;;1215.2
1372.0;1301.2;;;;;;;;;;;;;;-0.87002164;1.3337809;-0.36219367;;;;;1215.2
1372.0;1301.2;;;;;;;;;;;;;;;;;-32.376324;58.488724;-120.83422;;1215.2
1372.0;1301.2;;;;;;;;;;;;;;-0.9214759;1.3000275;-0.2840663;;;;;1215.2
1372.0;1301.2;;;;;;;;;;;;;;;;;-34.859768;48.97458;-117.244484;;1224.8
1372.0;1301.2;;;;;;;;;;;;;;-0.94137394;1.2605976;-0.1894589;;;;;1224.8
1372.0;1301.2;;;;;;;;;;;;;;;;;-38.224434;41.45558;-114.34522;;1224.8
1372.0;1301.2;;;;;;;;;;;;;;-0.9186071;1.2366711;-0.11255226;;;;;1224.8
1372.0;1301.2;;;;;;;;;;;;;;;;;-40.2501;35.5121;-107.7456;;1234.5
1372.0;1301.2;;;;;;;;;;;;;;-0.8805811;1.2205572;-0.042054508;;;;;1234.5
1372.0;1301.2;;;;;;;;;;;;;;;;;-40.10895;26.940214;-100.211334;;1234.5
1372.0;1301.2;;;;;;;;;;;;;;-0.8280282;1.1825312;0.006225776;;;;;1234.5
1372.0;1307.9;;;;-0.9306718;-0.007938386;0.6861802;;;;;;;;;;;;;;;
1372.0;1307.9;;;;-0.9012071;-0.007873536;0.68116385;;;;;;;;;;;;;;;
1372.0;1307.9;;;;-0.8739625;-0.00971222;0.67815024;;;;;;;;;;;;;;;
1372.0;1307.9;;;;-0.8448335;-0.014068605;0.6732102;;;;;;;;;;;;;;;
1372.0;1307.9;;;;-0.8144685;-0.017379763;0.6726456;;;;;;;;;;;;;;;
1373.0;1314.9;;;;;;;;;;;;;;;;;-40.776543;17.075106;-92.71523;;1244.1
1373.0;1314.9;;;;;;;;;;;;;;-0.75423443;1.145909;0.021057772;;;;;1244.1
1373.0;1314.9;;;;;;;;;;;;;;;;;-36.450546;8.781701;-83.16294;;1244.1
1373.0;1314.9;;;;;;;;;;;;;;-0.68025756;1.0878627;0.026917325;;;;;1244.1
1373.0;1314.9;;;;;;;;;;;;;;;;;-28.290659;0.22507401;-74.442276;;1253.8
1373.0;1314.9;;;;;;;;;;;;;;-0.60353404;1.0268868;0.015381329;;;;;1253.8
1373.0;1314.9;;;;;;;;;;;;;;;;;-20.714437;-6.637776;-65.25239;;1253.8
1373.0;1314.9;;;;;;;;;;;;;;-0.5418256;0.9821467;0.010864589;;;;;1253.8
1373.0;1314.9;;;;;;;;;;;;;;;;;-13.550219;-12.981811;-55.486465;;1263.4
1373.0;1314.9;;;;;;;;;;;;;;-0.484756;0.9515061;0.010620441;;;;;1263.4
1373.0;1314.9;;;;;;;;;;;;;;;;;-7.354961;-18.200476;-46.414837;;1263.4
1373.0;1314.9;;;;;;;;;;;;;;-0.42567217;0.93313396;0.016663106;;;;;1263.4
1373.0;1317.8;;;;-0.7808763;-0.019592287;0.6701012;;;;;;;;;;;;;;;
1373.0;1317.8;;;;-0.7450028;-0.01931;0.6694184;;;;;;;;;;;;;;;
1373.0;1317.8;;;;-0.709652;-0.0189209;0.66961676;;;;;;;;;;;;;;;
1373.0;1317.8;;;;-0.6735688;-0.014907839;0.6715775;;;;;;;;;;;;;;;
1373.0;1317.8;;;;-0.6360627;-0.008434297;0.6744767;;;;;;;;;;;;;;;
1373.0;1319.4;204879;204968;10956;;;;;;;;;;;;;;;;;;
1373.0;1325.5;;;;;;;;;;;;;513;;;;;;;;
1373.0;1325.5;;;;;;;;;;;;;-2;;;;;;;;
1373.0;1325.5;;;;;;;;;;;;;-557;;;;;;;;
1373.0;1325.5;;;;;;;;;;;;;-985;;;;;;;;
1373.0;1325.5;;;;;;;;;;;;;-1363;;;;;;;;
1430.0;1327.9;;;;-0.60164267;-0.0033645635;0.6790238;;;;;;;;;;;;;;;
1430.0;1327.9;;;;-0.57056814;-0.0031661992;0.6691094;;;;;;;;;;;;;;;
1430.0;1327.9;;;;-0.5418511;0.0026130679;0.66833884;;;;;;;;;;;;;;;
1430.0;1327.9;;;;-0.518261;0.007266999;0.6652642;;;;;;;;;;;;;;;
1430.0;1327.9;;;;-0.49921042;0.009132386;0.662304;;;;;;;;;;;;;;;
1430.0;1337.7;;;;-0.48017126;0.0122528095;0.6606713;;;;;;;;;;;;;;;
1430.0;1337.7;;;;-0.45849997;0.017116548;0.6563645;;;;;;;;;;;;;;;
1430.0;1337.7;;;;-0.43676;0.021991732;0.6529389;;;;;;;;;;;;;;;
1430.0;1337.7;;;;-0.41561514;0.026271824;0.6481896;;;;;;;;;;;;;;;
1430.0;1337.7;;;;-0.39353186;0.029487614;0.6409455;;;;;;;;;;;;;;;
1430.0;1339.4;221287;221367;10956;;;;;;;;;;;;;;;;;;
1430.0;1347.9;;;;-0.3715134;0.033565525;0.63301855;;;;;;;;;;;;;;;
1430.0;1347.9;;;;-0.35128406;0.036235813;0.62847906;;;;;;;;;;;;;;;
1430.0;1347.9;;;;-0.3331757;0.038009647;0.6240578;;;;;;;;;;;;;;;
1430.0;1347.9;;;;-0.31717303;0.041591648;0.61859137;;;;;;;;;;;;;;;
1430.0;1347.9;;;;-0.3037224;0.045436863;0.61207587;;;;;;;;;;;;;;;
1430.0;1358.0;;;;-0.29003146;0.050746925;0.6088715;;;;;;;;;;;;;;;
1430.0;1358.0;;;;-0.27917865;0.055618294;0.60039145;;;;;;;;;;;;;;;
1430.0;1358.0;;;;-0.27182773;0.061241157;0.5941544;;;;;;;;;;;;;;;
1430.0;1358.0;;;;-0.26741794;0.06863404;0.59667975;;;;;;;;;;;;;;;
1430.0;1358.0;;;;-0.26856616;0.074882515;0.60005575;;;;;;;;;;;;;;;
1431.0;1360.1;;;;;;;;;;;;;;;;;-3.1281471;-22.389141;-38.857693;;1272.9
1431.0;1360.1;;;;;;;;;;;;;;-0.36927396;0.901883;0.023438215;;;;;1272.9
1431.0;1360.1;;;;;;;;;;;;;;;;;-0.45396283;-25.372326;-31.674397;;1272.9
1431.0;1360.1;;;;;;;;;;;;;;-0.3170263;0.86306345;0.031189917;;;;;1272.9
1431.0;1360.1;;;;;;;;;;;;;;;;;2.4338512;-27.34077;-24.498734;;1282.5
1431.0;1360.1;;;;;;;;;;;;;;-0.25843075;0.82003236;0.032288585;;;;;1282.5
1431.0;1360.1;;;;;;;;;;;;;;;;;4.5167394;-28.080843;-17.391735;;1282.5
1431.0;1360.1;;;;;;;;;;;;;;-0.19434187;0.78597367;0.04834132;;;;;1282.5
1431.0;1360.1;;;;;;;;;;;;;;;;;4.467147;-29.416029;-10.101626;;1292.1
1431.0;1360.1;;;;;;;;;;;;;;-0.14038515;0.7547227;0.07415998;;;;;1292.1
1431.0;1360.1;;;;;;;;;;;;;;;;;6.721702;-32.639545;-2.376629;;1292.1
1431.0;1360.1;;;;;;;;;;;;;;-0.12616351;0.6895352;0.08026368;;;;;1292.1
1431.0;1359.6;237698;237775;10959;;;;;;;;;;;;;;;;;;
1431.0;1365.6;;;;;;;;;;;;;-1655;;;;;;;;
1431.0;1365.6;;;;;;;;;;;;;-1596;;;;;;;;
1431.0;1365.6;;;;;;;;;;;;;-1368;;;;;;;;
1431.0;1365.6;;;;;;;;;;;;;-1475;;;;;;;;
1431.0;1365.6;;;;;;;;;;;;;-1709;;;;;;;;
1431.0;1367.9;;;;-0.27647784;0.08158112;0.6051217;;;;;;;;;;;;;;;
1431.0;1367.9;;;;-0.29107288;0.087745674;0.60351187;;;;;;;;;;;;;;;
1431.0;1367.9;;;;-0.31095126;0.09471895;0.6004067;;;;;;;;;;;;;;;
1431.0;1367.9;;;;-0.33467868;0.10165407;0.5938378;;;;;;;;;;;;;;;
1431.0;1367.9;;;;-0.36264423;0.10701372;0.58666617;;;;;;;;;;;;;;;
1488.0;1375.2;;;;;;;;;;;;;;;;;13.275552;-36.1301;5.3292947;;1301.8
1488.0;1375.2;;;;;;;;;;;;;;-0.12475967;0.63618886;0.078981906;;;;;1301.8
1488.0;1375.2;;;;;;;;;;;;;;;;;16.90344;-38.518177;12.028108;;1301.8
1488.0;1375.2;;;;;;;;;;;;;;-0.11999878;0.6205634;0.10077212;;;;;1301.8
1488.0;1375.2;;;;;;;;;;;;;;;;;16.155737;-41.959137;19.283884;;1311.5
1488.0;1375.2;;;;;;;;;;;;;;-0.08105716;0.62099063;0.08972442;;;;;1311.5
1488.0;1375.2;;;;;;;;;;;;;;;;;14.896848;-40.8681;27.581102;;1311.5
1488.0;1375.2;;;;;;;;;;;;;;-0.03784295;0.6148259;0.05896176;;;;;1311.5
1488.0;1375.2;;;;;;;;;;;;;;;;;13.973662;-33.2194;36.97699;;1321.0
1488.0;1375.2;;;;;;;;;;;;;;9.155553E-4;0.5818659;0.016052736;;;;;1321.0
1488.0;1375.2;;;;;;;;;;;;;;;;;13.801995;-22.400585;46.151615;;1321.0
1488.0;1375.2;;;;;;;;;;;;;;0.04443495;0.52900785;-0.016541032;;;;;1321.0
1488.0;1377.9;;;;-0.39178473;0.11166765;0.58435065;;;;;;;;;;;;;;;
1488.0;1377.9;;;;-0.42004782;0.11697389;0.58321387;;;;;;;;;;;;;;;
1488.0;1377.9;;;;-0.44556051;0.122928634;0.58224493;;;;;;;;;;;;;;;
1488.0;1377.9;;;;-0.46836096;0.12862398;0.5803948;;;;;;;;;;;;;;;
1488.0;1377.9;;;;-0.4885903;0.1339264;0.57944494;;;;;;;;;;;;;;;
1488.0;1379.6;254223;254256;10977;;;;;;;;;;;;;;;;;;
1488.0;1387.9;;;;-0.506836;0.13925172;0.57903296;;;;;;;;;;;;;;;
1488.0;1387.9;;;;-0.5240784;0.14341737;0.58229834;;;;;;;;;;;;;;;
1488.0;1387.9;;;;-0.5403481;0.14720918;0.58570486;;;;;;;;;;;;;;;
1488.0;1387.9;;;;-0.5565987;0.15052034;0.58844;;;;;;;;;;;;;;;
1488.0;1387.9;;;;-0.57352835;0.15228654;0.5887833;;;;;;;;;;;;;;;
1491.0;1397.9;;;;-0.591652;0.15364458;0.58723456;;;;;;;;;;;;;;;
1491.0;1397.9;;;;-0.61074454;0.15394594;0.584961;;;;;;;;;;;;;;;
1491.0;1397.9;;;;-0.6301957;0.15410616;0.58121115;;;;;;;;;;;;;;;
1491.0;1397.9;;;;-0.6498681;0.15333559;0.5787659;;;;;;;;;;;;;;;
1491.0;1397.9;;;;-0.66961294;0.15217592;0.5761643;;;;;;;;;;;;;;;
1491.0;1399.7;262143;262143;10977;;;;;;;;;;;;;;;;;;
1491.0;1405.7;;;;;;;;;;;;;-1585;;;;;;;;
1491.0;1405.7;;;;;;;;;;;;;-1199;;;;;;;;
1491.0;1405.7;;;;;;;;;;;;;-926;;;;;;;;
1491.0;1405.7;;;;;;;;;;;;;-888;;;;;;;;
1491.0;1405.7;;;;;;;;;;;;;-1067;;;;;;;;
1491.0;1408.0;;;;-0.68894583;0.15102006;0.57521063;;;;;;;;;;;;;;;
1491.0;1408.0;;;;-0.7103005;0.14995576;0.57444006;;;;;;;;;;;;;;;
1491.0;1408.0;;;;-0.73221594;0.14826204;0.5737229;;;;;;;;;;;;;;;
1491.0;1408.0;;;;-0.7564393;0.14730836;0.5726777;;;;;;;;;;;;;;;
1491.0;1408.0;;;;-0.78325284;0.14596178;0.5704003;;;;;;;;;;;;;;;
1491.0;1418.1;;;;-0.81147397;0.14389421;0.56597143;;;;;;;;;;;;;;;
1491.0;1418.1;;;;-0.8393594;0.14227296;0.5613137;;;;;;;;;;;;;;;
1491.0;1418.1;;;;-0.865162;0.1408539;0.55714804;;;;;;;;;;;;;;;
1491.0;1418.1;;;;-0.8893968;0.13929369;0.5526505;;;;;;;;;;;;;;;
1491.0;1418.1;;;;-0.911358;0.1372452;0.5462571;;;;;;;;;;;;;;;
1491.0;1419.9;262143;262143;10975;;;;;;;;;;;;;;;;;;
1493.0;1420.8;;;;;;;;;;;;;;;;;11.165959;-12.1654415;52.568134;;1330.7
1493.0;1420.8;;;;;;;;;;;;;;0.06500442;0.47267067;-0.006714072;;;;;1330.7
1493.0;1420.8;;;;;;;;;;;;;;;;;6.721702;-5.0889616;55.57039;;1330.7
1493.0;1420.8;;;;;;;;;;;;;;0.09735405;0.41407514;-0.032593768;;;;;1330.7
1493.0;1420.8;;;;;;;;;;;;;;;;;4.234443;5.546739;57.355724;;1340.4
1493.0;1420.8;;;;;;;;;;;;;;0.0949736;0.40803248;-0.07080294;;;;;1340.4
1493.0;1420.8;;;;;;;;;;;;;;;;;4.5587025;17.685476;62.7575;;1340.4
1493.0;1420.8;;;;;;;;;;;;;;0.11078219;0.4079104;-0.14203314;;;;;1340.4
1493.0;1420.8;;;;;;;;;;;;;;;;;4.2649617;33.200325;70.38712;;1350.0
1493.0;1420.8;;;;;;;;;;;;;;0.13855404;0.39930418;-0.19385357;;;;;1350.0
1493.0;1420.8;;;;;;;;;;;;;;;;;3.952147;49.169136;79.68382;;1350.0
1493.0;1420.8;;;;;;;;;;;;;;0.17737357;0.36689353;-0.23029268;;;;;1350.0
1493.0;1428.1;;;;-0.9293138;0.13507463;0.5409661;;;;;;;;;;;;;;;
1493.0;1428.1;;;;-0.9406854;0.13372804;0.5369263;;;;;;;;;;;;;;;
1493.0;1428.1;;;;-0.94757473;0.13122942;0.53287894;;;;;;;;;;;;;;;
1493.0;1428.1;;;;-0.9494325;0.12860872;0.5287095;;;;;;;;;;;;;;;
1493.0;1428.1;;;;-0.94682705;0.1255684;0.5256348;;;;;;;;;;;;;;;
1493.0;1438.1;;;;-0.9410783;0.12272264;0.52356726;;;;;;;;;;;;;;;
1493.0;1438.1;;;;-0.93291867;0.11988832;0.5221215;;;;;;;;;;;;;;;
1493.0;1438.1;;;;-0.92520916;0.11724092;0.51980597;;;;;;;;;;;;;;;
1493.0;1438.1;;;;-0.91807187;0.113735214;0.5170861;;;;;;;;;;;;;;;
1493.0;1438.1;;;;-0.9117776;0.1100197;0.51424414;;;;;;;;;;;;;;;
1493.0;1439.9;262143;262143;10990;;;;;;;;;;;;;;;;;;
1545.0;1446.0;;;;;;;;;;;;;-1396;;;;;;;;
1545.0;1446.0;;;;;;;;;;;;;-1740;;;;;;;;
1545.0;1446.0;;;;;;;;;;;;;-1913;;;;;;;;
1545.0;1446.0;;;;;;;;;;;;;-1749;;;;;;;;
1545.0;1446.0;;;;;;;;;;;;;-1448;;;;;;;;
1545.0;1448.1;;;;-0.9067193;0.10691072;0.5114251;;;;;;;;;;;;;;;
1545.0;1448.1;;;;-0.9013864;0.10361101;0.5088616;;;;;;;;;;;;;;;
1545.0;1448.1;;;;-0.89546597;0.1006508;0.50669485;;;;;;;;;;;;;;;
1545.0;1448.1;;;;-0.88858044;0.09856416;0.50500494;;;;;;;;;;;;;;;
1545.0;1448.1;;;;-0.8813058;0.096641555;0.5034867;;;;;;;;;;;;;;;
1545.0;1457.9;;;;-0.8730737;0.094577804;0.5006333;;;;;;;;;;;;;;;
1545.0;1457.9;;;;-0.8645936;0.092571266;0.4961396;;;;;;;;;;;;;;;
1545.0;1457.9;;;;-0.8555032;0.0899582;0.4916497;;;;;;;;;;;;;;;
1545.0;1457.9;;;;-0.84632504;0.087089546;0.48845297;;;;;;;;;;;;;;;
1545.0;1457.9;;;;-0.8365785;0.08423234;0.48604208;;;;;;;;;;;;;;;
1545.0;1459.9;262143;262143;10984;;;;;;;;;;;;;;;;;;
1545.0;1468.0;;;;-0.82616436;0.08166123;0.4852181;;;;;;;;;;;;;;;
1545.0;1468.0;;;;-0.8156663;0.079551704;0.48484427;;;;;;;;;;;;;;;
1545.0;1468.0;;;;-0.80586255;0.07734681;0.48307806;;;;;;;;;;;;;;;
1545.0;1468.0;;;;-0.7960626;0.07490159;0.482235;;;;;;;;;;;;;;;
1545.0;1468.0;;;;-0.78648007;0.07295228;0.4819184;;;;;;;;;;;;;;;
1546.0;1478.1;;;;-0.7767068;0.07029725;0.4812699;;;;;;;;;;;;;;;
1546.0;1478.1;;;;-0.7662927;0.06899262;0.48182684;;;;;;;;;;;;;;;
1546.0;1478.1;;;;-0.75491726;0.066638954;0.4833222;;;;;;;;;;;;;;;
1546.0;1478.1;;;;-0.74303824;0.06471635;0.48512655;;;;;;;;;;;;;;;
1546.0;1478.1;;;;-0.7305985;0.06331635;0.48749548;;;;;;;;;;;;;;;
1546.0;1480.0;262143;262143;10986;;;;;;;;;;;;;;;;;;
1546.0;1486.0;;;;;;;;;;;;;-1382;;;;;;;;
1546.0;1486.0;;;;;;;;;;;;;-1473;;;;;;;;
1546.0;1486.0;;;;;;;;;;;;;-1565;;;;;;;;
1546.0;1486.0;;;;;;;;;;;;;-1766;;;;;;;;
1546.0;1486.0;;;;;;;;;;;;;-2093;;;;;;;;
1546.0;1488.1;;;;-0.71835715;0.062122352;0.4901734;;;;;;;;;;;;;;;
1546.0;1488.1;;;;-0.70584494;0.060874946;0.49247366;;;;;;;;;;;;;;;
1546.0;1488.1;;;;-0.6935807;0.059299476;0.49455267;;;;;;;;;;;;;;;
1546.0;1488.1;;;;-0.68303305;0.05702973;0.49717718;;;;;;;;;;;;;;;
1546.0;1488.1;;;;-0.6733666;0.05490113;0.498272;;;;;;;;;;;;;;;
1547.0;1495.6;;;;;;;;;;;;;;;;;5.989258;62.067017;89.04538;;1359.6
1547.0;1495.6;;;;;;;;;;;;;;0.20490128;0.3124485;-0.20874661;;;;;1359.6
1547.0;1495.6;;;;;;;;;;;;;;;;;8.239998;66.03824;96.21723;;1359.6
1547.0;1495.6;;;;;;;;;;;;;;0.19531846;0.2979217;-0.1408124;;;;;1359.6
1547.0;1495.6;;;;;;;;;;;;;;;;;5.9778132;62.45613;98.40312;;1369.3
1547.0;1495.6;;;;;;;;;;;;;;0.14258248;0.31311992;-0.028321177;;;;;1369.3
1547.0;1495.6;;;;;;;;;;;;;;;;;-4.6998506;51.499985;97.766045;;1369.3
1547.0;1495.6;;;;;;;;;;;;;;0.11011078;0.3299051;0.081667535;;;;;1369.3
1547.0;1495.6;;;;;;;;;;;;;;;;;-14.625996;41.42506;98.815125;;1379.0
1547.0;1495.6;;;;;;;;;;;;;;0.054200873;0.32178718;0.13696708;;;;;1379.0
1547.0;1495.6;;;;;;;;;;;;;;;;;-18.486588;38.880585;99.662;;1379.0
1547.0;1495.6;;;;;;;;;;;;;;-0.0072634052;0.2990814;0.16333507;;;;;1379.0
1547.0;1496.4;;;;;;;;;;;;;;;;;-18.700216;40.833767;99.82986;;1388.5
1547.0;1496.4;;;;;;;;;;;;;;-0.06146428;0.29114658;0.143437;;;;;1388.5
1547.0;1496.4;;;;;;;;;;;;;;;;;-16.033663;46.67043;99.39878;;1388.5
1547.0;1496.4;;;;;;;;;;;;;;-0.11517686;0.31055635;0.10046694;;;;;1388.5
1547.0;1496.4;;;;;;;;;;;;;;;;;-13.3137;55.013428;99.8146;;1398.1
1547.0;1496.4;;;;;;;;;;;;;;-0.17670217;0.32770777;0.057924133;;;;;1398.1
1547.0;1496.4;;;;;;;;;;;;;;;;;-12.134923;64.76791;99.59334;;1398.1
1547.0;1496.4;;;;;;;;;;;;;;-0.24561296;0.34662923;0.03747673;;;;;1398.1
1547.0;1496.4;;;;;;;;;;;;;;;;;-12.176886;72.12286;98.799866;;1407.7
1547.0;1496.4;;;;;;;;;;;;;;-0.3217261;0.37751397;0.03381451;;;;;1407.7
1547.0;1496.4;;;;;;;;;;;;;;;;;-14.74807;76.29246;98.74264;;1407.7
1547.0;1496.4;;;;;;;;;;;;;;-0.36805323;0.3914304;0.022400586;;;;;1407.7
1608.0;1497.2;;;;;;;;;;;;;;;;;-18.047884;79.27564;97.79657;;1417.4
1608.0;1497.2;;;;;;;;;;;;;;-0.40784937;0.39594713;0.010193182;;;;;1417.4
1608.0;1497.2;;;;;;;;;;;;;;;;;-19.52803;80.6299;96.53386;;1417.4
1608.0;1497.2;;;;;;;;;;;;;;-0.4339732;0.4118778;-0.0114139225;;;;;1417.4
1608.0;1497.2;;;;;;;;;;;;;;;;;-18.593403;80.79012;96.4156;;1427.0
1608.0;1497.2;;;;;;;;;;;;;;-0.45295572;0.43287453;-0.04364147;;;;;1427.0
1608.0;1497.2;;;;;;;;;;;;;;;;;-17.380291;80.94272;96.05701;;1427.0
1608.0;1497.2;;;;;;;;;;;;;;-0.46571246;0.4608295;-0.07879879;;;;;1427.0
1608.0;1497.2;;;;;;;;;;;;;;;;;-16.59444;81.09531;95.000305;;1436.7
1608.0;1497.2;;;;;;;;;;;;;;-0.48219246;0.48792994;-0.11322367;;;;;1436.7
1608.0;1497.2;;;;;;;;;;;;;;;;;-15.04181;80.530716;94.16105;;1436.7
1608.0;1497.2;;;;;;;;;;;;;;-0.48829615;0.5119175;-0.15912351;;;;;1436.7
1608.0;1498.0;;;;-0.66485983;0.052078255;0.50103766;;;;;;;;;;;;;;;
1608.0;1498.0;;;;-0.6566201;0.04954911;0.50357443;;;;;;;;;;;;;;;
1608.0;1498.0;;;;-0.6491471;0.04622269;0.50763327;;;;;;;;;;;;;;;
1608.0;1498.0;;;;-0.6392594;0.045333866;0.5110665;;;;;;;;;;;;;;;
1608.0;1498.0;;;;-0.62735754;0.046634678;0.51697165;;;;;;;;;;;;;;;
1608.0;1500.0;262143;262143;10982;;;;;;;;;;;;;;;;;;
1608.0;1507.9;;;;-0.6182595;0.047668464;0.52140814;;;;;;;;;;;;;;;
1608.0;1507.9;;;;-0.61215216;0.047904976;0.5259095;;;;;;;;;;;;;;;
1608.0;1507.9;;;;-0.60875326;0.047195442;0.5305863;;;;;;;;;;;;;;;
1608.0;1507.9;;;;-0.60661703;0.045455936;0.5348435;;;;;;;;;;;;;;;
1608.0;1507.9;;;;-0.6050988;0.043304447;0.5391198;;;;;;;;;;;;;;;
1609.0;1517.9;;;;-0.6020661;0.04149628;0.54391104;;;;;;;;;;;;;;;
1609.0;1517.9;;;;-0.59940344;0.038860325;0.54899985;;;;;;;;;;;;;;;
1609.0;1517.9;;;;-0.59758383;0.035652164;0.55362326;;;;;;;;;;;;;;;
1609.0;1517.9;;;;-0.5961724;0.032272343;0.55927664;;;;;;;;;;;;;;;
1609.0;1517.9;;;;-0.59553534;0.029453281;0.5649567;;;;;;;;;;;;;;;
1609.0;1520.0;262143;262143;10987;;;;;;;;;;;;;;;;;;
1609.0;1526.0;;;;;;;;;;;;;-2170;;;;;;;;
1609.0;1526.0;;;;;;;;;;;;;-1495;;;;;;;;
1609.0;1526.0;;;;;;;;;;;;;-2349;;;;;;;;
1609.0;1526.0;;;;;;;;;;;;;-9201;;;;;;;;
1609.0;1526.0;;;;;;;;;;;;;-20494;;;;;;;;
1609.0;1528.0;;;;-0.5953255;0.02702332;0.57070166;;;;;;;;;;;;;;;
1609.0;1528.0;;;;-0.59548193;0.024997715;0.57552344;;;;;;;;;;;;;;;
1609.0;1528.0;;;;-0.5964356;0.023525242;0.58050925;;;;;;;;;;;;;;;
1609.0;1528.0;;;;-0.59838873;0.022586824;0.58599097;;;;;;;;;;;;;;;
1609.0;1528.0;;;;-0.60083395;0.02182007;0.59019476;;;;;;;;;;;;;;;
1609.0;1538.2;;;;-0.6043053;0.020530703;0.5942269;;;;;;;;;;;;;;;
1609.0;1538.2;;;;-0.60718924;0.019672396;0.5993691;;;;;;;;;;;;;;;
1609.0;1538.2;;;;-0.6105996;0.01924515;0.60415274;;;;;;;;;;;;;;;
1609.0;1538.2;;;;-0.6138039;0.017681124;0.60932165;;;;;;;;;;;;;;;
1609.0;1538.2;;;;-0.61627966;0.01659012;0.61422735;;;;;;;;;;;;;;;
1609.0;1540.3;262143;262143;10983;;;;;;;;;;;;;;;;;;
1610.0;1548.2;;;;-0.61749655;0.015930178;0.61866766;;;;;;;;;;;;;;;
1610.0;1548.2;;;;-0.619175;0.014717104;0.6225434;;;;;;;;;;;;;;;
1610.0;1548.2;;;;-0.62094504;0.013267519;0.62614065;;;;;;;;;;;;;;;
1610.0;1548.2;;;;-0.6219712;0.012119295;0.6301041;;;;;;;;;;;;;;;
1610.0;1548.2;;;;-0.62294394;0.011276246;0.6352578;;;;;;;;;;;;;;;
1610.0;1555.8;;;;;;;;;;;;;;;;;-12.173071;80.30564;93.61934;;1446.2
1610.0;1555.8;;;;;;;;;;;;;;-0.49720755;0.535905;-0.2033143;;;;;1446.2
1610.0;1555.8;;;;;;;;;;;;;;;;;-7.8089237;79.958496;92.78771;;1446.2
1610.0;1555.8;;;;;;;;;;;;;;-0.5125278;0.5666677;-0.25055698;;;;;1446.2
1610.0;1555.8;;;;;;;;;;;;;;;;;-2.4643695;80.603195;91.89886;;1455.8
1610.0;1555.8;;;;;;;;;;;;;;-0.5345012;0.6073794;-0.29450363;;;;;1455.8
1610.0;1555.8;;;;;;;;;;;;;;;;;5.0393686;81.60268;90.899376;;1455.8
1610.0;1555.8;;;;;;;;;;;;;;-0.56862086;0.65034944;-0.34229562;;;;;1455.8
1610.0;1555.8;;;;;;;;;;;;;;;;;14.141514;81.03427;89.270454;;1465.4
1610.0;1555.8;;;;;;;;;;;;;;-0.6086612;0.7154149;-0.40400404;;;;;1465.4
1610.0;1555.8;;;;;;;;;;;;;;;;;22.568438;79.41679;87.02734;;1465.4
1610.0;1555.8;;;;;;;;;;;;;;-0.6501053;0.7912229;-0.47212133;;;;;1465.4
1611.0;1556.6;;;;;;;;;;;;;;;;;26.886808;77.158424;83.94498;;1475.1
1611.0;1556.6;;;;;;;;;;;;;;-0.70711386;0.88650167;-0.5098422;;;;;1475.1
1611.0;1556.6;;;;;;;;;;;;;;;;;24.857325;70.94028;81.404305;;1475.1
1611.0;1556.6;;;;;;;;;;;;;;-0.77175206;0.96017337;-0.51814324;;;;;1475.1
1611.0;1556.6;;;;;;;;;;;;;;;;;15.854366;62.26539;78.10831;;1484.7
1611.0;1556.6;;;;;;;;;;;;;;-0.8400525;1.0112003;-0.45698416;;;;;1484.7
1611.0;1556.6;;;;;;;;;;;;;;;;;3.8262582;50.65691;73.114716;;1484.7
1611.0;1556.6;;;;;;;;;;;;;;-0.8900418;1.0323191;-0.38550982;;;;;1484.7
1611.0;1556.6;;;;;;;;;;;;;;;;;-6.0197763;41.88284;68.56746;;1494.4
1611.0;1556.6;;;;;;;;;;;;;;-0.93960387;1.012421;-0.30835903;;;;;1494.4
1611.0;1556.6;;;;;;;;;;;;;;;;;-10.685293;37.03421;66.167946;;1494.4
1611.0;1556.6;;;;;;;;;;;;;;-0.9770806;0.94479203;-0.22992645;;;;;1494.4
1611.0;1558.1;;;;-0.6246987;0.010288239;0.64012915;;;;;;;;;;;;;;;
1611.0;1558.1;;;;-0.626236;0.009967805;0.64529043;;;;;;;;;;;;;;;
1611.0;1558.1;;;;-0.629078;0.009250642;0.6507531;;;;;;;;;;;;;;;
1611.0;1558.1;;;;-0.63322073;0.00883484;0.65640646;;;;;;;;;;;;;;;
1611.0;1558.1;;;;-0.6390725;0.008644105;0.66193014;;;;;;;;;;;;;;;
1611.0;1560.3;262143;262143;10988;;;;;;;;;;;;;;;;;;
1611.0;1566.2;;;;;;;;;;;;;-27026;;;;;;;;
1611.0;1566.2;;;;;;;;;;;;;-22134;;;;;;;;
1611.0;1566.2;;;;;;;;;;;;;-10078;;;;;;;;
1611.0;1566.2;;;;;;;;;;;;;-1098;;;;;;;;
1611.0;1566.2;;;;;;;;;;;;;509;;;;;;;;
1668.0;1568.0;;;;-0.64565283;0.008159638;0.66691214;;;;;;;;;;;;;;;
1668.0;1568.0;;;;-0.65339285;0.007938386;0.6709481;;;;;;;;;;;;;;;
1668.0;1568.0;;;;-0.6615296;0.0077323923;0.6754418;;;;;;;;;;;;;;;
1668.0;1568.0;;;;-0.6694527;0.008224488;0.68070227;;;;;;;;;;;;;;;
1668.0;1568.0;;;;-0.6779557;0.008792878;0.6857186;;;;;;;;;;;;;;;
1668.0;1578.0;;;;-0.6852837;0.009857179;0.6897469;;;;;;;;;;;;;;;
1668.0;1578.0;;;;-0.6927567;0.010459901;0.69102484;;;;;;;;;;;;;;;
1668.0;1578.0;;;;-0.6996041;0.010639192;0.6950188;;;;;;;;;;;;;;;
1668.0;1578.0;;;;-0.70652395;0.01097107;0.6972199;;;;;;;;;;;;;;;
1668.0;1578.0;;;;-0.7132531;0.01174164;0.7019692;;;;;;;;;;;;;;;
1668.0;1580.2;262143;262143;10995;;;;;;;;;;;;;;;;;;
1668.0;1588.1;;;;-0.7194596;0.012256624;0.70452124;;;;;;;;;;;;;;;
1668.0;1588.1;;;;-0.72560126;0.0127944965;0.70782095;;;;;;;;;;;;;;;
1668.0;1588.1;;;;-0.7315598;0.012638094;0.710064;;;;;;;;;;;;;;;
1668.0;1588.1;;;;-0.73883444;0.012962343;0.71467215;;;;;;;;;;;;;;;
1668.0;1588.1;;;;-0.74633795;0.01261902;0.71838003;;;;;;;;;;;;;;;
1668.0;1598.2;;;;-0.7547952;0.0127944965;0.72344214;;;;;;;;;;;;;;;
1668.0;1598.2;;;;-0.76417935;0.0137558;0.7279282;;;;;;;;;;;;;;;
1668.0;1598.2;;;;-0.77483;0.014289858;0.73133856;;;;;;;;;;;;;;;
1668.0;1598.2;;;;-0.78723156;0.015750887;0.73688513;;;;;;;;;;;;;;;
1668.0;1598.2;;;;-0.8000299;0.017795565;0.7413216;;;;;;;;;;;;;;;
1726.0;1600.5;262143;262143;10976;;;;;;;;;;;;;;;;;;
1726.0;1606.4;;;;;;;;;;;;;-1176;;;;;;;;
1726.0;1606.4;;;;;;;;;;;;;-1598;;;;;;;;
1726.0;1606.4;;;;;;;;;;;;;-1053;;;;;;;;
1726.0;1606.4;;;;;;;;;;;;;-1137;;;;;;;;
1726.0;1606.4;;;;;;;;;;;;;-1313;;;;;;;;
1726.0;1608.3;;;;-0.8144952;0.02023697;0.74428564;;;;;;;;;;;;;;;
1726.0;1608.3;;;;-0.8302232;0.022487642;0.74569327;;;;;;;;;;;;;;;
1726.0;1608.3;;;;-0.8463975;0.025703434;0.7472382;;;;;;;;;;;;;;;
1726.0;1608.3;;;;-0.86096585;0.029380802;0.74553686;;;;;;;;;;;;;;;
1726.0;1608.3;;;;-0.87812054;0.03369141;0.7584535;;;;;;;;;;;;;;;
1726.0;1618.3;;;;-0.8921739;0.039550785;0.76654065;;;;;;;;;;;;;;;
1726.0;1618.3;;;;-0.9048387;0.04566956;0.7702714;;;;;;;;;;;;;;;
1726.0;1618.3;;;;-0.9194566;0.050689705;0.7793962;;;;;;;;;;;;;;;
1726.0;1618.3;;;;-0.93306744;0.05694581;0.7882196;;;;;;;;;;;;;;;
1726.0;1618.3;;;;-0.9471055;0.06385804;0.7986833;;;;;;;;;;;;;;;
1726.0;1620.6;262143;262143;10967;;;;;;;;;;;;;;;;;;
1726.0;1628.3;;;;-0.9617387;0.07148362;0.80960095;;;;;;;;;;;;;;;
1726.0;1628.3;;;;-0.97621167;0.080348976;0.82120144;;;;;;;;;;;;;;;
1726.0;1628.3;;;;-0.99058163;0.09017945;0.8323022;;;;;;;;;;;;;;;
1726.0;1628.3;;;;-1.005562;0.10072328;0.84308255;;;;;;;;;;;;;;;
1726.0;1628.3;;;;-1.020527;0.1118889;0.8550416;;;;;;;;;;;;;;;
1728.0;1638.3;;;;-1.0347482;0.124317184;0.8676988;;;;;;;;;;;;;;;
1728.0;1638.3;;;;-1.0494996;0.13759233;0.8799211;;;;;;;;;;;;;;;
1728.0;1638.3;;;;-1.064129;0.15097429;0.8917161;;;;;;;;;;;;;;;
1728.0;1638.3;;;;-1.0773126;0.16588213;0.9038545;;;;;;;;;;;;;;;
1728.0;1638.3;;;;-1.0916444;0.18055727;0.9151498;;;;;;;;;;;;;;;
1728.0;1640.7;262143;262143;10957;;;;;;;;;;;;;;;;;;
1728.0;1646.7;;;;;;;;;;;;;-1269;;;;;;;;
1728.0;1646.7;;;;;;;;;;;;;-1495;;;;;;;;
1728.0;1646.7;;;;;;;;;;;;;-1874;;;;;;;;
1728.0;1646.7;;;;;;;;;;;;;-2133;;;;;;;;
1728.0;1646.7;;;;;;;;;;;;;-2059;;;;;;;;
1728.0;1648.5;;;;-1.1033098;0.19657901;0.92486584;;;;;;;;;;;;;;;
1728.0;1648.5;;;;-1.1132737;0.21404651;0.9369279;;;;;;;;;;;;;;;
1728.0;1648.5;;;;-1.1231271;0.23041919;0.9475442;;;;;;;;;;;;;;;
1728.0;1648.5;;;;-1.1307718;0.24639514;0.95674145;;;;;;;;;;;;;;;
1728.0;1648.5;;;;-1.1368524;0.2627068;0.9654809;;;;;;;;;;;;;;;
1728.0;1658.6;;;;-1.1391679;0.27863315;0.97257626;;;;;;;;;;;;;;;
1728.0;1658.6;;;;-1.139599;0.2933083;0.97916424;;;;;;;;;;;;;;;
1728.0;1658.6;;;;-1.1384355;0.3061371;0.9851304;;;;;;;;;;;;;;;
1728.0;1658.6;;;;-1.1331636;0.317997;0.99133694;;;;;;;;;;;;;;;
1728.0;1658.6;;;;-1.1251985;0.32918933;0.9967042;;;;;;;;;;;;;;;
1728.0;1661.0;262143;262143;10935;;;;;;;;;;;;;;;;;;
1787.0;1668.6;;;;-1.1160356;0.339119;1.0021249;;;;;;;;;;;;;;;
1787.0;1668.6;;;;-1.106125;0.34721377;1.0058938;;;;;;;;;;;;;;;
1787.0;1668.6;;;;-1.0954133;0.35406497;1.0083581;;;;;;;;;;;;;;;
1787.0;1668.6;;;;-1.0834733;0.3602524;1.0092736;;;;;;;;;;;;;;;
1787.0;1668.6;;;;-1.0715715;0.36430362;1.0095178;;;;;;;;;;;;;;;
1787.0;1678.6;;;;-1.0601236;0.3672562;1.0082551;;;;;;;;;;;;;;;
1787.0;1678.6;;;;-1.0496751;0.36867526;1.0060197;;;;;;;;;;;;;;;
1787.0;1678.6;;;;-1.0378114;0.36984256;1.003357;;;;;;;;;;;;;;;
1787.0;1678.6;;;;-1.025654;0.37075046;1.0005761;;;;;;;;;;;;;;;
1787.0;1678.6;;;;-1.0149232;0.36996463;0.99687207;;;;;;;;;;;;;;;
1787.0;1681.1;262143;262143;10935;;;;;;;;;;;;;;;;;;
1787.0;1687.0;;;;;;;;;;;;;-1767;;;;;;;;
1787.0;1687.0;;;;;;;;;;;;;-1727;;;;;;;;
1787.0;1687.0;;;;;;;;;;;;;-2094;;;;;;;;
1787.0;1687.0;;;;;;;;;;;;;-2499;;;;;;;;
1787.0;1687.0;;;;;;;;;;;;;-2654;;;;;;;;
1787.0;1688.7;;;;-1.0048028;0.36838153;0.99316037;;;;;;;;;;;;;;;
1787.0;1688.7;;;;-0.9956628;0.3668938;0.9894372;;;;;;;;;;;;;;;
1787.0;1688.7;;;;-0.9878427;0.3648682;0.9856721;;;;;;;;;;;;;;;
1787.0;1688.7;;;;-0.98181546;0.36259082;0.9825822;;;;;;;;;;;;;;;
1787.0;1688.7;;;;-0.97743237;0.35976794;0.97861874;;;;;;;;;;;;;;;
1788.0;1698.7;;;;-0.9740411;0.35784534;0.97460186;;;;;;;;;;;;;;;
1788.0;1698.7;;;;-0.97052014;0.35556033;0.97208035;;;;;;;;;;;;;;;
1788.0;1698.7;;;;-0.96818554;0.35294726;0.970955;;;;;;;;;;;;;;;
1788.0;1698.7;;;;-0.9660951;0.35142902;0.96937954;;;;;;;;;;;;;;;
1788.0;1698.7;;;;-0.96385586;0.35037997;0.96872723;;;;;;;;;;;;;;;
1788.0;1701.3;262143;262143;10921;;;;;;;;;;;;;;;;;;
1788.0;1708.8;;;;-0.96149075;0.34992984;0.9678689;;;;;;;;;;;;;;;
1788.0;1708.8;;;;-0.95915234;0.35017017;0.96818936;;;;;;;;;;;;;;;
1788.0;1708.8;;;;-0.9557992;0.35049823;0.96784604;;;;;;;;;;;;;;;
1788.0;1708.8;;;;-0.95230496;0.3504677;0.96714795;;;;;;;;;;;;;;;
1788.0;1708.8;;;;-0.947384;0.35140613;0.9667283;;;;;;;;;;;;;;;
1788.0;1718.9;;;;-0.94108593;0.35215762;0.9657937;;;;;;;;;;;;;;;
1788.0;1718.9;;;;-0.9339982;0.3527718;0.9642831;;;;;;;;;;;;;;;
1788.0;1718.9;;;;-0.92639554;0.35296252;0.96255505;;;;;;;;;;;;;;;
1788.0;1718.9;;;;-0.91863644;0.3530846;0.9608575;;;;;;;;;;;;;;;
1788.0;1718.9;;;;-0.91123974;0.35234073;0.9584199;;;;;;;;;;;;;;;
1788.0;1721.5;262143;262143;10935;;;;;;;;;;;;;;;;;;
1788.0;1727.4;;;;;;;;;;;;;-2701;;;;;;;;
1788.0;1727.4;;;;;;;;;;;;;-3016;;;;;;;;
1788.0;1727.4;;;;;;;;;;;;;-3701;;;;;;;;
1788.0;1727.4;;;;;;;;;;;;;-4387;;;;;;;;
1788.0;1727.4;;;;;;;;;;;;;-4579;;;;;;;;
1790.0;1729.0;;;;-0.90376294;0.35118487;0.95534146;;;;;;;;;;;;;;;
1790.0;1729.0;;;;-0.8965074;0.34930804;0.9528161;;;;;;;;;;;;;;;
1790.0;1729.0;;;;-0.88949597;0.3469849;0.9496156;;;;;;;;;;;;;;;
1790.0;1729.0;;;;-0.88326275;0.3436623;0.9457818;;;;;;;;;;;;;;;
1790.0;1729.0;;;;-0.87714016;0.34046176;0.9427339;;;;;;;;;;;;;;;
1790.0;1738.6;;;;;;;;;;1.9798884;19.184698;-1.5030366;;;;;;;;;
1790.0;1738.6;;;;;;;0.6521195;0.0053102206;0.18207343;;;;;;;;;;;;
1790.0;1738.6;;;;;;;;;;6.9353313;33.394882;8.178961;;;;;;;;;
1790.0;1738.6;;;;;;;0.75515;0.006714072;0.21887875;;;;;;;;;;;;
1790.0;1739.0;;;;-0.8715707;0.3373833;0.9404832;;;;;;;;;;;;;;;
1790.0;1739.0;;;;-0.8681108;0.33422855;0.93763745;;;;;;;;;;;;;;;
1790.0;1739.0;;;;-0.8656045;0.33197787;0.9366571;;;;;;;;;;;;;;;
1790.0;1739.0;;;;-0.86535275;0.33005527;0.9364625;;;;;;;;;;;;;;;
1790.0;1739.0;;;;-0.86729825;0.32904437;0.93766797;;;;;;;;;;;;;;;
1790.0;1741.7;262143;262143;10919;;;;;;;;;;;;;;;;;;
1790.0;1748.3;;;;;;;;;;3.563036;7.457961;7.0726647;;;;;;;;;
1790.0;1748.3;;;;;;;0.78487504;0.0056154057;0.23456526;;;;;;;;;;;;
1790.0;1748.3;;;;;;;;;;24.628439;25.009918;23.792994;;;;;;;;;
1790.0;1748.3;;;;;;;0.82412183;0.006408887;0.24506363;;;;;;;;;;;;
1848.0;1749.1;;;;-0.8718339;0.329258;0.9410783;;;;;;;;;;;;;;;
1848.0;1749.1;;;;-0.87869656;0.33028415;0.9449235;;;;;;;;;;;;;;;
1848.0;1749.1;;;;-0.888939;0.3324814;0.94890606;;;;;;;;;;;;;;;
1848.0;1749.1;;;;-0.9014932;0.3357964;0.95250714;;;;;;;;;;;;;;;
1848.0;1749.1;;;;-0.91603863;0.33996204;0.9561502;;;;;;;;;;;;;;;
1848.0;1757.6;;;;;;;;;;41.173283;32.727287;39.28495;;;;;;;;;
1848.0;1757.6;;;;;;;0.8768578;0.006164739;0.2562334;;;;;;;;;;;;
1848.0;1757.6;;;;;;;;;;51.78991;4.0475173;34.8941;;;;;;;;;
1848.0;1757.6;;;;;;;0.9391766;0.003357036;0.2667928;;;;;;;;;;;;
1848.0;1759.0;;;;-0.931389;0.3449631;0.9590837;;;;;;;;;;;;;;;
1848.0;1759.0;;;;-0.9476434;0.3502274;0.96218884;;;;;;;;;;;;;;;
1848.0;1759.0;;;;-0.9638711;0.3562775;0.964924;;;;;;;;;;;;;;;
1848.0;1759.0;;;;-0.97859967;0.3624268;0.96917737;;;;;;;;;;;;;;;
1848.0;1759.0;;;;-0.9921075;0.3696976;0.9738084;;;;;;;;;;;;;;;
1848.0;1761.7;262143;262143;10919;;;;;;;;;;;;;;;;;;
1848.0;1767.2;;;;;;;;;;67.07206;10.620441;51.065094;;;;;;;;;
1848.0;1767.2;;;;;;;1.0075991;0.0026245918;0.2794885;;;;;;;;;;;;
1848.0;1767.2;;;;;;;;;;81.88116;18.4637;68.02957;;;;;;;;;
1848.0;1767.2;;;;;;;1.0779138;-6.103702E-4;0.2957854;;;;;;;;;;;;
1848.0;1767.5;;;;;;;;;;;;;-4209;;;;;;;;
1848.0;1767.5;;;;;;;;;;;;;-3918;;;;;;;;
1848.0;1767.5;;;;;;;;;;;;;-3997;;;;;;;;
1848.0;1767.5;;;;;;;;;;;;;-4007;;;;;;;;
1848.0;1767.5;;;;;;;;;;;;;-3742;;;;;;;;
1850.0;1769.1;;;;-1.0046312;0.37769324;0.97735226;;;;;;;;;;;;;;;
1850.0;1769.1;;;;-1.0152742;0.38554388;0.97992337;;;;;;;;;;;;;;;
1850.0;1769.1;;;;-1.0250322;0.39355475;0.98160946;;;;;;;;;;;;;;;
1850.0;1769.1;;;;-1.03294;0.40113074;0.98135006;;;;;;;;;;;;;;;
1850.0;1769.1;;;;-1.0381204;0.40846258;0.9793397;;;;;;;;;;;;;;;
1850.0;1776.8;;;;;;;;;;93.550674;34.493546;89.37345;;;;;;;;;
1850.0;1776.8;;;;;;;1.1385235;-0.006164739;0.31153294;;;;;;;;;;;;
1850.0;1776.8;;;;;;;;;;95.87009;48.76095;102.423935;;;;;;;;;
1850.0;1776.8;;;;;;;1.2047486;-0.003418073;0.32227546;;;;;;;;;;;;
1850.0;1779.2;;;;-1.039406;0.41567236;0.9751321;;;;;;;;;;;;;;;
1850.0;1779.2;;;;-1.0364496;0.42220694;0.9695512;;;;;;;;;;;;;;;
1850.0;1779.2;;;;-1.0287286;0.42842108;0.96221554;;;;;;;;;;;;;;;
1850.0;1779.2;;;;-1.01643;0.43394095;0.95373166;;;;;;;;;;;;;;;
1850.0;1779.2;;;;-0.999241;0.43853003;0.94599164;;;;;;;;;;;;;;;
1850.0;1781.9;262143;262143;10913;;;;;;;;;;;;;;;;;;
1850.0;1786.3;;;;;;;;;;95.47716;54.71206;105.82293;;;;;;;;;
1850.0;1786.3;;;;;;;1.2750633;-3.051851E-4;0.3300882;;;;;;;;;;;;
1850.0;1786.3;;;;;;;;;;94.44716;60.560165;108.596306;;;;;;;;;
1850.0;1786.3;;;;;;;1.3351848;0.0050050355;0.33851132;;;;;;;;;;;;
1856.0;1789.1;;;;-0.97821057;0.44234473;0.93911374;;;;;;;;;;;;;;;
1856.0;1789.1;;;;-0.9545518;0.44445044;0.93003476;;;;;;;;;;;;;;;
1856.0;1789.1;;;;-0.9290391;0.44585806;0.91764843;;;;;;;;;;;;;;;
1856.0;1789.1;;;;-0.9032594;0.4456101;0.9046174;;;;;;;;;;;;;;;
1856.0;1789.1;;;;-0.87638867;0.44391257;0.891678;;;;;;;;;;;;;;;
1856.0;1795.9;;;;;;;;;;93.20353;65.103615;111.69775;;;;;;;;;
1856.0;1795.9;;;;;;;1.3843195;0.012451552;0.34528643;;;;;;;;;;;;
1856.0;1795.9;;;;;;;;;;91.33045;67.89605;115.42482;;;;;;;;;
1856.0;1795.9;;;;;;;1.416303;0.023987548;0.34827724;;;;;;;;;;;;
1856.0;1799.2;;;;-0.84972775;0.44087225;0.87786114;;;;;;;;;;;;;;;
1856.0;1799.2;;;;-0.8239633;0.43620688;0.86267865;;;;;;;;;;;;;;;
1856.0;1799.2;;;;-0.798607;0.4300843;0.84765637;;;;;;;;;;;;;;;
1856.0;1799.2;;;;-0.77412045;0.42259985;0.83207333;;;;;;;;;;;;;;;
1856.0;1799.2;;;;-0.75045025;0.4138375;0.81605923;;;;;;;;;;;;;;;
1856.0;1802.1;262143;262143;10920;;;;;;;;;;;;;;;;;;
1856.0;1805.6;;;;;;;;;;88.69823;69.79583;119.31975;;;;;;;;;
1856.0;1805.6;;;;;;;1.4370556;0.030945769;0.35456404;;;;;;;;;;;;
1856.0;1805.6;;;;;;;;;;85.65783;71.00894;122.44789;;;;;;;;;
1856.0;1805.6;;;;;;;1.4562212;0.036378063;0.36823633;;;;;;;;;;;;
1856.0;1807.9;;;;;;;;;;;;;-3298;;;;;;;;
1856.0;1807.9;;;;;;;;;;;;;-2803;;;;;;;;
1856.0;1807.9;;;;;;;;;;;;;-2264;;;;;;;;
1856.0;1807.9;;;;;;;;;;;;;-1567;;;;;;;;
1856.0;1807.9;;;;;;;;;;;;;-924;;;;;;;;
1905.0;1809.3;;;;-0.7273484;0.40432364;0.7995187;;;;;;;;;;;;;;;
1905.0;1809.3;;;;-0.704155;0.39361578;0.7827264;;;;;;;;;;;;;;;
1905.0;1809.3;;;;-0.6825028;0.38247305;0.7660295;;;;;;;;;;;;;;;
1905.0;1809.3;;;;-0.6627427;0.3706818;0.7496148;;;;;;;;;;;;;;;
1905.0;1809.3;;;;-0.6432572;0.3587723;0.73374563;;;;;;;;;;;;;;;
1905.0;1815.0;;;;;;;;;;82.52205;72.24876;124.16456;;;;;;;;;
1905.0;1815.0;;;;;;;1.4742271;0.03399762;0.38453323;;;;;;;;;;;;
1905.0;1815.0;;;;;;;;;;79.48546;73.82427;124.75585;;;;;;;;;
1905.0;1815.0;;;;;;;1.4979705;0.023377178;0.40418714;;;;;;;;;;;;
1905.0;1819.3;;;;-0.62458426;0.3467789;0.7179757;;;;;;;;;;;;;;;
1905.0;1819.3;;;;-0.6066361;0.3351288;0.7020226;;;;;;;;;;;;;;;
1905.0;1819.3;;;;-0.5888367;0.32385638;0.6866036;;;;;;;;;;;;;;;
1905.0;1819.3;;;;-0.571148;0.31300357;0.67275244;;;;;;;;;;;;;;;
1905.0;1819.3;;;;-0.55500036;0.30218127;0.659134;;;;;;;;;;;;;;;
1905.0;1822.2;262143;262143;10925;;;;;;;;;;;;;;;;;;
1905.0;1824.6;;;;;;;;;;76.38783;75.014496;124.87029;;;;;;;;;
1905.0;1824.6;;;;;;;1.5250099;0.0073244423;0.4229255;;;;;;;;;;;;
1905.0;1824.6;;;;;;;;;;72.935425;75.308235;124.881744;;;;;;;;;
1905.0;1824.6;;;;;;;1.5447248;-0.006653035;0.44972077;;;;;;;;;;;;
1907.0;1829.4;;;;-0.53879935;0.2922745;0.6468659;;;;;;;;;;;;;;;
1907.0;1829.4;;;;-0.52319723;0.2825165;0.63493735;;;;;;;;;;;;;;;
1907.0;1829.4;;;;-0.5073052;0.27298358;0.6254998;;;;;;;;;;;;;;;
1907.0;1829.4;;;;-0.49309164;0.2637253;0.6175423;;;;;;;;;;;;;;;
1907.0;1829.4;;;;-0.48115164;0.25487903;0.6092606;;;;;;;;;;;;;;;
1907.0;1834.3;;;;;;;;;;69.29609;75.68972;124.881744;;;;;;;;;
1907.0;1834.3;;;;;;;1.556566;-0.028015992;0.48176518;;;;;;;;;;;;
1907.0;1834.3;;;;;;;;;;65.53468;77.26905;124.881744;;;;;;;;;
1907.0;1834.3;;;;;;;1.5477157;-0.04870754;0.51832634;;;;;;;;;;;;
1907.0;1839.5;;;;-0.46922308;0.24613193;0.6016541;;;;;;;;;;;;;;;
1907.0;1839.5;;;;-0.45753866;0.23656085;0.593422;;;;;;;;;;;;;;;
1907.0;1839.5;;;;-0.44914633;0.22679523;0.583973;;;;;;;;;;;;;;;
1907.0;1839.5;;;;-0.44129187;0.21720126;0.5763169;;;;;;;;;;;;;;;
1907.0;1839.5;;;;-0.43374258;0.20837024;0.5702134;;;;;;;;;;;;;;;
1907.0;1842.4;262143;262143;10928;;;;;;;;;;;;;;;;;;
1907.0;1843.9;;;;;;;;;;62.65069;78.39823;124.881744;;;;;;;;;
1907.0;1843.9;;;;;;;1.5226295;-0.086489454;0.5575121;;;;;;;;;;;;
1907.0;1843.9;;;;;;;;;;60.762352;79.882195;124.881744;;;;;;;;;
1907.0;1843.9;;;;;;;1.5361186;-0.06457717;0.5731986;;;;;;;;;;;;
1907.0;1848.3;;;;;;;;;;;;;-579;;;;;;;;
1907.0;1848.3;;;;;;;;;;;;;-471;;;;;;;;
1907.0;1848.3;;;;;;;;;;;;;-491;;;;;;;;
1907.0;1848.3;;;;;;;;;;;;;-743;;;;;;;;
1907.0;1848.3;;;;;;;;;;;;;-1223;;;;;;;;
1908.0;1849.6;;;;-0.4286042;0.20064548;0.56392676;;;;;;;;;;;;;;;
1908.0;1849.6;;;;-0.42388922;0.19344333;0.5577889;;;;;;;;;;;;;;;
1908.0;1849.6;;;;-0.42026907;0.18646242;0.5509301;;;;;;;;;;;;;;;
1908.0;1849.6;;;;-0.41629416;0.17969514;0.5448876;;;;;;;;;;;;;;;
1908.0;1849.6;;;;-0.41315085;0.17271425;0.5367356;;;;;;;;;;;;;;;
1908.0;1853.5;;;;;;;;;;57.370983;86.18809;124.881744;;;;;;;;;
1908.0;1853.5;;;;;;;1.5455184;-0.043946654;0.6054872;;;;;;;;;;;;
1908.0;1853.5;;;;;;;;;;53.178505;95.01175;124.881744;;;;;;;;;
1908.0;1853.5;;;;;;;1.5429548;-0.038880583;0.6327708;;;;;;;;;;;;
1908.0;1857.7;;;;;;;;;;;;;;;;;-13.744773;33.516956;63.554794;;1504.0
1908.0;1857.7;;;;;;;;;;;;;;-1.0015564;0.86208683;-0.1525315;;;;;1504.0
1908.0;1857.7;;;;;;;;;;;;;;;;;-14.408551;29.499954;60.49913;;1504.0
1908.0;1857.7;;;;;;;;;;;;;;-1.0207831;0.7957396;-0.08819849;;;;;1504.0
1908.0;1857.7;;;;;;;;;;;;;;;;;-11.8564415;27.146215;56.79113;;1513.6
1908.0;1857.7;;;;;;;;;;;;;;-1.0251167;0.74727625;-0.06433302;;;;;1513.6
1908.0;1857.7;;;;;;;;;;;;;;;;;-9.781182;27.684103;51.534317;;1513.6
1908.0;1857.7;;;;;;;;;;;;;;-1.0286568;0.69844663;-0.059755243;;;;;1513.6
1908.0;1857.7;;;;;;;;;;;;;;;;;-6.824702;27.508621;46.838284;;1523.2
1908.0;1857.7;;;;;;;;;;;;;;-1.0083315;0.66438794;-0.0601825;;;;;1523.2
1908.0;1857.7;;;;;;;;;;;;;;;;;-3.0175178;28.088472;43.134098;;1523.2
1908.0;1857.7;;;;;;;;;;;;;;-0.9634693;0.63704336;-0.053956725;;;;;1523.2
1910.0;1858.6;;;;;;;;;;;;;;;;;2.2888882;27.497177;40.456097;;1532.9
1910.0;1858.6;;;;;;;;;;;;;;-0.89400923;0.6505936;-0.018555254;;;;;1532.9
1910.0;1858.6;;;;;;;;;;;;;;;;;5.8519244;24.552141;38.747063;;1532.9
1910.0;1858.6;;;;;;;;;;;;;;-0.8059328;0.7075411;0.051881466;;;;;1532.9
1910.0;1858.6;;;;;;;;;;;;;;;;;4.543443;20.203253;37.49962;;1542.6
1910.0;1858.6;;;;;;;;;;;;;;-0.6989349;0.8264412;0.17542039;;;;;1542.6
1910.0;1858.6;;;;;;;;;;;;;;;;;4.0246286;15.102847;36.25599;;1542.6
1910.0;1858.6;;;;;;;;;;;;;;-0.6189154;0.98495436;0.15845211;;;;;1542.6
1910.0;1858.6;;;;;;;;;;;;;;;;;16.678366;11.337626;36.40858;;1552.1
1910.0;1858.6;;;;;;;;;;;;;;-0.6191595;1.1604358;0.053773616;;;;;1552.1
1910.0;1858.6;;;;;;;;;;;;;;;;;16.392256;9.12122;38.598286;;1552.1
1910.0;1858.6;;;;;;;;;;;;;;-0.5747856;1.3155919;0.034119695;;;;;1552.1
1910.0;1859.4;;;;;;;;;;;;;;;;;5.9320354;13.317514;40.944393;;1561.7
1910.0;1859.4;;;;;;;;;;;;;;-0.5594653;1.3680837;0.0022583697;;;;;1561.7
1910.0;1859.4;;;;;;;;;;;;;;;;;-0.7057405;32.456436;43.210396;;1561.7
1910.0;1859.4;;;;;;;;;;;;;;-0.55800045;1.4156315;-0.09698782;;;;;1561.7
1910.0;1859.4;;;;;;;;;;;;;;;;;5.455184;58.08054;45.66332;;1571.3
1910.0;1859.4;;;;;;;;;;;;;;-0.56788844;1.482345;-0.1507004;;;;;1571.3
1910.0;1859.4;;;;;;;;;;;;;;;;;11.577959;69.921715;46.697136;;1571.3
1910.0;1859.4;;;;;;;;;;;;;;-0.55110323;1.4697104;-0.12659077;;;;;1571.3
1910.0;1859.4;;;;;;;;;;;;;;;;;15.160069;61.185795;45.96469;;1580.9
1910.0;1859.4;;;;;;;;;;;;;;-0.49012727;1.4538407;-0.074648276;;;;;1580.9
1910.0;1859.4;;;;;;;;;;;;;;;;;19.810328;46.83447;47.559284;;1580.9
1910.0;1859.4;;;;;;;;;;;;;;-0.3630482;1.500412;-0.07428205;;;;;1580.9
1913.0;1859.5;;;;-0.41392905;0.16229631;0.51674277;;;;;;;;;;;;;;;
1913.0;1859.5;;;;-0.40946203;0.14971925;0.50726324;;;;;;;;;;;;;;;
1913.0;1859.5;;;;-0.40613562;0.14411546;0.5061684;;;;;;;;;;;;;;;
1913.0;1859.5;;;;-0.40323645;0.1408272;0.50726324;;;;;;;;;;;;;;;
1913.0;1859.5;;;;-0.4007073;0.13893892;0.5068055;;;;;;;;;;;;;;;
1913.0;1860.5;;;;;;;;;;;;;;;;;21.38966;42.03543;52.797024;;1590.5
1913.0;1860.5;;;;;;;;;;;;;;-0.2066103;1.5422834;-0.08221687;;;;;1590.5
1913.0;1860.5;;;;;;;;;;;;;;;;;16.97592;44.69817;57.603687;;1590.5
1913.0;1860.5;;;;;;;;;;;;;;-0.07507554;1.508713;-0.04113895;;;;;1590.5
1913.0;1860.5;;;;;;;;;;;;;;;;;10.3228855;49.176765;55.45976;;1600.2
1913.0;1860.5;;;;;;;;;;;;;;-0.023255104;1.4158757;0.039002657;;;;;1600.2
1913.0;1860.5;;;;;;;;;;;;;;;;;1.373333;57.832577;42.863247;;1600.2
1913.0;1860.5;;;;;;;;;;;;;;-0.14368114;1.4124577;0.101931825;;;;;1600.2
1913.0;1860.5;;;;;;;;;;;;;;;;;-6.75985;71.51631;31.727806;;1609.8
1913.0;1860.5;;;;;;;;;;;;;;-0.3607898;1.419721;0.05816828;;;;;1609.8
1913.0;1860.5;;;;;;;;;;;;;;;;;-12.745293;91.27323;22.534103;;1609.8
1913.0;1860.5;;;;;;;;;;;;;;-0.5783868;1.3557543;-0.08697775;;;;;1609.8
1914.0;1861.3;;;;;;;;;;;;;;;;;-7.572405;109.405045;12.57744;;1619.5
1914.0;1861.3;;;;;;;;;;;;;;-0.78212833;1.210181;-0.2997528;;;;;1619.5
1914.0;1861.3;;;;;;;;;;;;;;;;;13.191626;104.346596;2.5902586;;1619.5
1914.0;1861.3;;;;;;;;;;;;;;-0.9196448;1.0771813;-0.44495988;;;;;1619.5
1914.0;1861.3;;;;;;;;;;;;;;;;;39.84191;67.281876;-10.673849;;1629.1
1914.0;1861.3;;;;;;;;;;;;;;-1.0047303;0.9871517;-0.509415;;;;;1629.1
1914.0;1861.3;;;;;;;;;;;;;;;;;59.133427;19.56618;-22.1984;;1629.1
1914.0;1861.3;;;;;;;;;;;;;;-1.0828577;0.8880276;-0.51930296;;;;;1629.1
1914.0;1861.3;;;;;;;;;;;;;;;;;76.59765;-28.35551;-26.535845;;1638.8
1914.0;1861.3;;;;;;;;;;;;;;-1.0282906;0.82650226;-0.4807886;;;;;1638.8
1914.0;1861.3;;;;;;;;;;;;;;;;;82.052826;-62.726982;-18.448439;;1638.8
1914.0;1861.3;;;;;;;;;;;;;;-0.8989532;0.8619037;-0.5668508;;;;;1638.8
1914.0;1862.6;;;;;;;;;;48.520615;105.0943;124.881744;;;;;;;;;
1914.0;1862.6;;;;;;;1.5278786;-0.03424177;0.6521195;;;;;;;;;;;;
1914.0;1862.6;;;;;;;;;;43.53847;116.26408;124.87792;;;;;;;;;
1914.0;1862.6;;;;;;;1.5040742;-0.035096288;0.6676229;;;;;;;;;;;;
1914.0;1862.2;262143;262143;10934;;;;;;;;;;;;;;;;;;
1914.0;1869.2;;;;-0.4016381;0.13541414;0.5015755;;;;;;;;;;;;;;;
1914.0;1869.2;;;;-0.40193182;0.13002016;0.4942971;;;;;;;;;;;;;;;
1914.0;1869.2;;;;-0.40349966;0.123691574;0.488823;;;;;;;;;;;;;;;
1914.0;1869.2;;;;-0.40446478;0.117633834;0.4824906;;;;;;;;;;;;;;;
1914.0;1869.2;;;;-0.40619665;0.11143114;0.47677618;;;;;;;;;;;;;;;
1967.0;1871.9;;;;;;;;;;37.972656;124.06918;124.86648;;;;;;;;;
1967.0;1871.9;;;;;;;1.4736167;-0.026795251;0.6762291;;;;;;;;;;;;
1967.0;1871.9;;;;;;;;;;31.708733;124.881744;124.691;;;;;;;;;
1967.0;1871.9;;;;;;;1.4363232;-0.013611255;0.6835536;;;;;;;;;;;;
1967.0;1878.9;;;;-0.40920645;0.10507204;0.4708596;;;;;;;;;;;;;;;
1967.0;1878.9;;;;-0.41181952;0.09924699;0.46649176;;;;;;;;;;;;;;;
1967.0;1878.9;;;;-0.41530615;0.09488298;0.46343237;;;;;;;;;;;;;;;
1967.0;1878.9;;;;-0.42057043;0.08968354;0.45924765;;;;;;;;;;;;;;;
1967.0;1878.9;;;;-0.42823416;0.084506996;0.45483786;;;;;;;;;;;;;;;
1967.0;1881.4;;;;;;;;;;25.063326;124.881744;123.71822;;;;;;;;;
1967.0;1881.4;;;;;;;1.3940855;0.0053712577;0.6966155;;;;;;;;;;;;
1967.0;1881.4;;;;;;;;;;18.395031;124.881744;121.38737;;;;;;;;;
1967.0;1881.4;;;;;;;1.3441572;0.010742515;0.7071749;;;;;;;;;;;;
1967.0;1882.0;262143;262143;10934;;;;;;;;;;;;;;;;;;
1967.0;1887.8;;;;;;;;;;;;;-1589;;;;;;;;
1967.0;1887.8;;;;;;;;;;;;;-1827;;;;;;;;
1967.0;1887.8;;;;;;;;;;;;;-2174;;;;;;;;
1967.0;1887.8;;;;;;;;;;;;;-2504;;;;;;;;
1967.0;1887.8;;;;;;;;;;;;;-2600;;;;;;;;
1967.0;1889.0;;;;-0.436287;0.07995988;0.45278937;;;;;;;;;;;;;;;
1967.0;1889.0;;;;-0.44423681;0.07527543;0.4479218;;;;;;;;;;;;;;;
1967.0;1889.0;;;;-0.45185858;0.07176209;0.44743353;;;;;;;;;;;;;;;
1967.0;1889.0;;;;-0.46135336;0.06757737;0.44253927;;;;;;;;;;;;;;;
1967.0;1889.0;;;;-0.47077948;0.06352235;0.44059378;;;;;;;;;;;;;;;
1970.0;1891.0;;;;;;;;;;12.012849;124.881744;118.38512;;;;;;;;;
1970.0;1891.0;;;;;;;1.2969146;0.01495407;0.7180395;;;;;;;;;;;;
1970.0;1891.0;;;;;;;;;;5.6421094;124.881744;115.28748;;;;;;;;;
1970.0;1891.0;;;;;;;1.2418592;0.025330363;0.71767324;;;;;;;;;;;;
1970.0;1899.2;;;;-0.47949606;0.059185036;0.43693548;;;;;;;;;;;;;;;
1970.0;1899.2;;;;-0.4886132;0.05503846;0.4338761;;;;;;;;;;;;;;;
1970.0;1899.2;;;;-0.4967156;0.050785072;0.4308625;;;;;;;;;;;;;;;
1970.0;1899.2;;;;-0.5046311;0.04711152;0.42786032;;;;;;;;;;;;;;;
1970.0;1899.2;;;;-0.5126496;0.043682102;0.42429358;;;;;;;;;;;;;;;
1970.0;1900.6;;;;;;;;;;-0.9956664;124.881744;112.10974;;;;;;;;;
1970.0;1900.6;;;;;;;1.1911985;0.04773095;0.7184057;;;;;;;;;;;;
1970.0;1900.6;;;;;;;;;;-7.98822;124.881744;108.25297;;;;;;;;;
1970.0;1900.6;;;;;;;1.1084323;0.039063692;0.72798854;;;;;;;;;;;;
1970.0;1902.4;;;;;;;;;;;;;;;;;69.414345;-68.20123;7.965331;;1648.4
1970.0;1902.4;;;;;;;;;;;;;;-0.72542495;0.8468276;-0.5147252;;;;;1648.4
1970.0;1902.4;;;;;;;;;;;;;;;;;43.83984;-64.07361;28.050325;;1648.4
1970.0;1902.4;;;;;;;;;;;;;;-0.4397717;0.8879666;-0.45081943;;;;;1648.4
1970.0;1902.4;;;;;;;;;;;;;;;;;29.96536;-59.862057;38.403732;;1658.0
1970.0;1902.4;;;;;;;;;;;;;;-0.24365978;0.9351482;-0.46320993;;;;;1658.0
1970.0;1902.4;;;;;;;;;;;;;;;;;26.924955;-43.588062;46.50258;;1658.0
1970.0;1902.4;;;;;;;;;;;;;;-0.10809656;0.92568743;-0.5337687;;;;;1658.0
1970.0;1902.4;;;;;;;;;;;;;;;;;28.004547;-19.665363;52.97632;;1667.7
1970.0;1902.4;;;;;;;;;;;;;;-0.033875547;0.89327675;-0.5742363;;;;;1667.7
1970.0;1902.4;;;;;;;;;;;;;;;;;29.938658;-4.627369;58.08054;;1667.7
1970.0;1902.4;;;;;;;;;;;;;;0.00347911;0.8159429;-0.5993225;;;;;1667.7
1971.0;1902.2;262143;262143;10953;;;;;;;;;;;;;;;;;;
1971.0;1903.2;;;;;;;;;;;;;;;;;32.40684;0.16022217;56.32572;;1677.3
1971.0;1903.2;;;;;;;;;;;;;;-0.006591998;0.70223093;-0.62727743;;;;;1677.3
1971.0;1903.2;;;;;;;;;;;;;;;;;35.500656;-4.50911;45.55269;;1677.3
1971.0;1903.2;;;;;;;;;;;;;;-0.06811731;0.6458327;-0.6325877;;;;;1677.3
1971.0;1903.2;;;;;;;;;;;;;;;;;33.31477;-18.539995;36.221657;;1687.0
1971.0;1903.2;;;;;;;;;;;;;;-0.19013031;0.70674765;-0.6715903;;;;;1687.0
1971.0;1903.2;;;;;;;;;;;;;;;;;26.287882;-28.427992;34.978027;;1687.0
1971.0;1903.2;;;;;;;;;;;;;;-0.28577533;0.83425397;-0.6551103;;;;;1687.0
1971.0;1903.2;;;;;;;;;;;;;;;;;18.837551;-37.083805;31.590473;;1696.6
1971.0;1903.2;;;;;;;;;;;;;;-0.41840875;0.9671926;-0.6225776;;;;;1696.6
1971.0;1903.2;;;;;;;;;;;;;;;;;10.391553;-47.666096;18.250069;;1696.6
1971.0;1903.2;;;;;;;;;;;;;;-0.62984097;1.1967528;-0.7318949;;;;;1696.6
1972.0;1904.4;;;;;;;;;;;;;;;;;6.3173313;-50.153355;-8.362072;;1706.2
1972.0;1904.4;;;;;;;;;;;;;;-0.9800104;1.5955687;-0.9215369;;;;;1706.2
1972.0;1904.4;;;;;;;;;;;;;;;;;11.482589;-51.786095;-41.879025;;1706.2
1972.0;1904.4;;;;;;;;;;;;;;-1.4467604;1.991699;-1.0751671;;;;;1706.2
1972.0;1904.4;;;;;;;;;;;;;;;;;8.945738;-43.83984;-75.91861;;1715.8
1972.0;1904.4;;;;;;;;;;;;;;-1.6621602;1.9979857;-0.8479873;;;;;1715.8
1972.0;1904.4;;;;;;;;;;;;;;;;;-2.6703696;-29.332104;-92.84875;;1715.8
1972.0;1904.4;;;;;;;;;;;;;;-1.5205542;1.6079593;-0.13715018;;;;;1715.8
1972.0;1904.4;;;;;;;;;;;;;;;;;5.7985168;-68.08298;-74.54909;;1725.4
1972.0;1904.4;;;;;;;;;;;;;;-1.2418592;0.8073366;0.09912412;;;;;1725.4
1972.0;1904.4;;;;;;;;;;;;;;;;;43.73684;-103.86974;-55.700092;;1725.4
1972.0;1904.4;;;;;;;;;;;;;;-0.97073275;0.44227424;0.113956116;;;;;1725.4
1972.0;1905.2;;;;;;;;;;;;;;;;;-30.205694;15.083773;-124.988556;;1821.4
1972.0;1905.2;;;;;;;;;;;;;;-0.54054385;0.7496567;-0.10547197;;;;;1821.4
1972.0;1905.2;;;;;;;;;;;;;;;;;-34.970394;14.2407;-124.988556;;1821.4
1972.0;1905.2;;;;;;;;;;;;;;-0.6641438;0.7713248;-0.015381329;;;;;1821.4
1972.0;1905.2;;;;;;;;;;;;;;;;;-29.362621;2.887814;-124.988556;;1831.1
1972.0;1905.2;;;;;;;;;;;;;;-0.76943266;0.74550617;-0.030152287;;;;;1831.1
1972.0;1905.2;;;;;;;;;;;;;;;;;-10.418256;-5.3140354;-124.988556;;1831.1
1972.0;1905.2;;;;;;;;;;;;;;-0.8980987;0.8308359;-0.15924558;;;;;1831.1
1972.0;1905.2;;;;;;;;;;;;;;;;;0.5035554;10.902738;-112.13263;;1840.8
1972.0;1905.2;;;;;;;;;;;;;;-1.073397;0.79610586;-0.1666921;;;;;1840.8
1972.0;1905.2;;;;;;;;;;;;;;;;;3.4333322;20.737328;-50.050354;;1840.8
1972.0;1905.2;;;;;;;;;;;;;;-0.9714652;0.5503708;-0.16364025;;;;;1840.8
1973.0;1909.0;;;;-0.52029806;0.040054325;0.42228705;;;;;;;;;;;;;;;
1973.0;1909.0;;;;-0.5289574;0.035991672;0.4173165;;;;;;;;;;;;;;;
1973.0;1909.0;;;;-0.5363961;0.032485966;0.41564184;;;;;;;;;;;;;;;
1973.0;1909.0;;;;-0.54368216;0.029651646;0.41506582;;;;;;;;;;;;;;;
1973.0;1909.0;;;;-0.5508576;0.026416782;0.4119454;;;;;;;;;;;;;;;
1973.0;1910.0;;;;;;;;;;-13.71044;124.881744;104.667046;;;;;;;;;
1973.0;1910.0;;;;;;;1.0285958;0.024536882;0.7352519;;;;;;;;;;;;
1973.0;1910.0;;;;;;;;;;-17.761772;124.881744;101.51219;;;;;;;;;
1973.0;1910.0;;;;;;;0.95144504;0.006530961;0.7394635;;;;;;;;;;;;
1973.0;1919.0;;;;-0.55805975;0.023242952;0.40869147;;;;;;;;;;;;;;;
1973.0;1919.0;;;;-0.56513983;0.019596102;0.4046479;;;;;;;;;;;;;;;
1973.0;1919.0;;;;-0.5706826;0.015991213;0.40092474;;;;;;;;;;;;;;;
1973.0;1919.0;;;;-0.5751801;0.013431551;0.39765173;;;;;;;;;;;;;;;
1973.0;1919.0;;;;-0.5784684;0.0117988605;0.39579397;;;;;;;;;;;;;;;
1973.0;1919.5;;;;;;;;;;-21.465958;124.881744;98.83038;;;;;;;;;
1973.0;1919.5;;;;;;;0.87960446;0.006164739;0.7307962;;;;;;;;;;;;
1973.0;1919.5;;;;;;;;;;-25.151066;124.881744;95.80523;;;;;;;;;
1973.0;1919.5;;;;;;;0.8057497;0.012939848;0.72566915;;;;;;;;;;;;
1973.0;1922.1;262143;262143;10956;;;;;;;;;;;;;;;;;;
1973.0;1927.9;;;;;;;;;;;;;-2451;;;;;;;;
1973.0;1927.9;;;;;;;;;;;;;-2345;;;;;;;;
1973.0;1927.9;;;;;;;;;;;;;-2734;;;;;;;;
1973.0;1927.9;;;;;;;;;;;;;-3677;;;;;;;;
1973.0;1927.9;;;;;;;;;;;;;-4979;;;;;;;;
2028.0;1929.0;;;;-0.5814286;0.010128022;0.39115912;;;;;;;;;;;;;;;
2028.0;1929.0;;;;-0.58383185;0.0076293955;0.386612;;;;;;;;;;;;;;;
2028.0;1929.0;;;;-0.5848008;0.006587983;0.38270956;;;;;;;;;;;;;;;
2028.0;1929.0;;;;-0.5838929;0.005931855;0.37920004;;;;;;;;;;;;;;;
2028.0;1929.0;;;;-0.5822068;0.006538392;0.37650687;;;;;;;;;;;;;;;
2028.0;1929.0;;;;;;;;;;-29.145178;124.881744;92.6809;;;;;;;;;
2028.0;1929.0;;;;;;;0.72273934;0.015015107;0.72310555;;;;;;;;;;;;
2028.0;1929.0;;;;;;;;;;-32.597584;124.881744;90.06012;;;;;;;;;
2028.0;1929.0;;;;;;;0.63740957;0.006225776;0.72640157;;;;;;;;;;;;
2028.0;1938.4;;;;;;;;;;-34.363842;124.881744;88.27098;;;;;;;;;
2028.0;1938.4;;;;;;;0.56282234;-0.0018311106;0.7177954;;;;;;;;;;;;
2028.0;1938.4;;;;;;;;;;-35.035248;124.881744;87.36687;;;;;;;;;
2028.0;1938.4;;;;;;;0.50807214;-0.010376293;0.7116916;;;;;;;;;;;;
2028.0;1938.9;;;;-0.58012396;0.0055809026;0.36905292;;;;;;;;;;;;;;;
2028.0;1938.9;;;;-0.57659155;0.0061264047;0.36283877;;;;;;;;;;;;;;;
2028.0;1938.9;;;;-0.5717316;0.0051040654;0.35527042;;;;;;;;;;;;;;;
2028.0;1938.9;;;;-0.5659295;0.005496979;0.3502846;;;;;;;;;;;;;;;
2028.0;1938.9;;;;-0.55906683;0.006565095;0.34697345;;;;;;;;;;;;;;;
2028.0;1942.1;262143;262143;10957;;;;;;;;;;;;;;;;;;
2028.0;1948.0;;;;;;;;;;-35.21836;122.15796;86.87094;;;;;;;;;
2028.0;1948.0;;;;;;;0.46113467;-0.020813623;0.7035737;;;;;;;;;;;;
2028.0;1948.0;;;;;;;;;;-34.905544;106.77282;87.13416;;;;;;;;;
2028.0;1948.0;;;;;;;0.40803248;-0.03112888;0.6911222;;;;;;;;;;;;
2031.0;1949.0;;;;-0.5517388;0.0072364816;0.34129718;;;;;;;;;;;;;;;
2031.0;1949.0;;;;-0.54435736;0.0075263986;0.33593753;;;;;;;;;;;;;;;
2031.0;1949.0;;;;-0.53653723;0.008502961;0.33249667;;;;;;;;;;;;;;;
2031.0;1949.0;;;;-0.5282822;0.010742188;0.3291588;;;;;;;;;;;;;;;
2031.0;1949.0;;;;-0.52022177;0.012172701;0.32358173;;;;;;;;;;;;;;;
2031.0;1957.7;;;;;;;;;;-34.32569;87.66061;88.4579;;;;;;;;;
2031.0;1957.7;;;;;;;0.36048463;-0.03784295;0.6758629;;;;;;;;;;;;
2031.0;1957.7;;;;;;;;;;-33.436844;69.59746;90.693375;;;;;;;;;
2031.0;1957.7;;;;;;;0.3195288;-0.044679098;0.66158026;;;;;;;;;;;;
2031.0;1959.1;;;;-0.5115662;0.01444626;0.3210297;;;;;;;;;;;;;;;
2031.0;1959.1;;;;-0.5043641;0.015262606;0.3137093;;;;;;;;;;;;;;;
2031.0;1959.1;;;;-0.49766546;0.01558304;0.30831912;;;;;;;;;;;;;;;
2031.0;1959.1;;;;-0.4911843;0.017269136;0.30798724;;;;;;;;;;;;;;;
2031.0;1959.1;;;;-0.48403555;0.019855501;0.30658725;;;;;;;;;;;;;;;
2032.0;1962.5;;;;;;;;;;;;;;;;;24.277475;4.154332;3.9559617;;1850.4
2032.0;1962.5;;;;;;;;;;;;;;-0.63142794;0.43244728;-0.22327341;;;;;1850.4
2032.0;1962.5;;;;;;;;;;;;;;;;;34.421062;-12.726218;17.605364;;1850.4
2032.0;1962.5;;;;;;;;;;;;;;-0.54878384;0.4735252;-0.24268319;;;;;1850.4
2032.0;1962.5;;;;;;;;;;;;;;;;;30.095064;-26.802881;5.4971466;;1860.0
2032.0;1962.5;;;;;;;;;;;;;;-0.5354167;0.56483656;-0.2863857;;;;;1860.0
2032.0;1962.5;;;;;;;;;;;;;;;;;15.66744;-23.922697;-6.3325906;;1860.0
2032.0;1962.5;;;;;;;;;;;;;;-0.56630147;0.5759453;-0.22461623;;;;;1860.0
2032.0;1962.5;;;;;;;;;;;;;;;;;7.656331;-19.676807;-8.651998;;1869.4
2032.0;1962.5;;;;;;;;;;;;;;-0.52485734;0.53944516;-0.16962187;;;;;1869.4
2032.0;1962.5;;;;;;;;;;;;;;;;;2.1095922;-17.93344;-9.42259;;1869.4
2032.0;1962.5;;;;;;;;;;;;;;-0.48841822;0.54432815;-0.124210335;;;;;1869.4
2032.0;1962.3;262143;262143;10971;;;;;;;;;;;;;;;;;;
2035.0;1963.3;;;;;;;;;;;;;;;;;-3.5973694;-18.799402;-10.715812;;1879.1
2035.0;1963.3;;;;;;;;;;;;;;-0.4524674;0.5443892;-0.13385418;;;;;1879.1
2035.0;1963.3;;;;;;;;;;;;;;;;;-6.8361464;-16.495255;-12.630848;;1879.1
2035.0;1963.3;;;;;;;;;;;;;;-0.4149907;0.5368816;-0.1721244;;;;;1879.1
2035.0;1963.3;;;;;;;;;;;;;;;;;-6.878109;-11.631367;-13.889736;;1888.7
2035.0;1963.3;;;;;;;;;;;;;;-0.3813593;0.53065586;-0.18134098;;;;;1888.7
2035.0;1963.3;;;;;;;;;;;;;;;;;-8.629108;-9.578998;-14.473403;;1888.7
2035.0;1963.3;;;;;;;;;;;;;;-0.34119692;0.5526292;-0.15009002;;;;;1888.7
2035.0;1963.3;;;;;;;;;;;;;;;;;-12.428662;-11.623737;-12.58507;;1898.4
2035.0;1963.3;;;;;;;;;;;;;;-0.30951872;0.5711844;-0.11358989;;;;;1898.4
2035.0;1963.3;;;;;;;;;;;;;;;;;-15.179143;-12.539292;-8.949553;;1898.4
2035.0;1963.3;;;;;;;;;;;;;;-0.27906126;0.588702;-0.07202368;;;;;1898.4
2035.0;1967.1;;;;;;;;;;-31.956696;52.42317;93.08145;;;;;;;;;
2035.0;1967.1;;;;;;;0.2858974;-0.055848874;0.64674824;;;;;;;;;;;;
2035.0;1967.1;;;;;;;;;;-29.850918;36.118656;95.36272;;;;;;;;;
2035.0;1967.1;;;;;;;0.26935637;-0.06927702;0.63753164;;;;;;;;;;;;
2035.0;1967.9;;;;;;;;;;;;;-6159;;;;;;;;
2035.0;1967.9;;;;;;;;;;;;;-6658;;;;;;;;
2035.0;1967.9;;;;;;;;;;;;;-7038;;;;;;;;
2035.0;1967.9;;;;;;;;;;;;;-8639;;;;;;;;
2035.0;1967.9;;;;;;;;;;;;;-12935;;;;;;;;
2035.0;1969.0;;;;-0.47858053;0.022293093;0.305481;;;;;;;;;;;;;;;
2035.0;1969.0;;;;-0.47549063;0.024372105;0.30152133;;;;;;;;;;;;;;;
2035.0;1969.0;;;;-0.47336203;0.02569199;0.29656222;;;;;;;;;;;;;;;
2035.0;1969.0;;;;-0.47284323;0.027046207;0.2906914;;;;;;;;;;;;;;;
2035.0;1969.0;;;;-0.47341925;0.028198246;0.28319934;;;;;;;;;;;;;;;
2087.0;1976.7;;;;;;;;;;-27.024141;22.1984;97.300644;;;;;;;;;
2087.0;1976.7;;;;;;;0.2804651;-0.08600116;0.6392407;;;;;;;;;;;;
2087.0;1976.7;;;;;;;;;;-22.919401;11.429182;98.2429;;;;;;;;;
2087.0;1976.7;;;;;;;0.3241676;-0.100405894;0.63093966;;;;;;;;;;;;
2087.0;1978.9;;;;-0.4748574;0.02846909;0.27485278;;;;;;;;;;;;;;;
2087.0;1978.9;;;;-0.4752999;0.029350284;0.27021793;;;;;;;;;;;;;;;
2087.0;1978.9;;;;-0.47470862;0.03438187;0.27354816;;;;;;;;;;;;;;;
2087.0;1978.9;;;;-0.47285086;0.041008;0.2769585;;;;;;;;;;;;;;;
2087.0;1978.9;;;;-0.47249228;0.04701615;0.27782062;;;;;;;;;;;;;;;
2087.0;1982.3;262143;262143;10973;;;;;;;;;;;;;;;;;;
2087.0;1986.2;;;;;;;;;;-18.993958;3.1281471;97.98349;;;;;;;;;
2087.0;1986.2;;;;;;;0.3905759;-0.114627525;0.62215036;;;;;;;;;;;;
2087.0;1986.2;;;;;;;;;;-15.911589;-4.142888;97.19764;;;;;;;;;
2087.0;1986.2;;;;;;;0.4549089;-0.12952055;0.6217841;;;;;;;;;;;;
2087.0;1988.9;;;;-0.47360617;0.05186463;0.27729037;;;;;;;;;;;;;;;
2087.0;1988.9;;;;-0.4755593;0.056068428;0.27793887;;;;;;;;;;;;;;;
2087.0;1988.9;;;;-0.47761923;0.06013108;0.2813225;;;;;;;;;;;;;;;
2087.0;1988.9;;;;-0.47954565;0.065227516;0.28521731;;;;;;;;;;;;;;;
2087.0;1988.9;;;;-0.48138815;0.07024766;0.29075626;;;;;;;;;;;;;;;
2087.0;1995.2;;;;;;;;;;-13.176367;-10.731071;96.629234;;;;;;;;;
2087.0;1995.2;;;;;;;0.5022126;-0.14288767;0.6189154;;;;;;;;;;;;
2087.0;1995.2;;;;;;;;;;-10.731071;-16.647848;96.06845;;;;;;;;;
2087.0;1995.2;;;;;;;0.5427412;-0.15143284;0.6261788;;;;;;;;;;;;
2088.0;1998.6;;;;-0.48344046;0.07603837;0.29742816;;;;;;;;;;;;;;;
2088.0;1998.6;;;;-0.4860726;0.082263954;0.303772;;;;;;;;;;;;;;;
2088.0;1998.6;;;;-0.48970038;0.089427955;0.30900577;;;;;;;;;;;;;;;
2088.0;1998.6;;;;-0.49498755;0.09542848;0.3129845;;;;;;;;;;;;;;;
2088.0;1998.6;;;;-0.5010453;0.10123445;0.31797794;;;;;;;;;;;;;;;
2088.0;2002.0;262143;262143;10964;;;;;;;;;;;;;;;;;;
2088.0;2004.8;;;;;;;;;;-7.9119234;-21.107365;95.156715;;;;;;;;;
2088.0;2004.8;;;;;;;0.5816828;-0.15753655;0.62495804;;;;;;;;;;;;
2088.0;2004.8;;;;;;;;;;-4.951628;-23.983734;93.413345;;;;;;;;;
2088.0;2004.8;;;;;;;0.6243477;-0.15790276;0.62031925;;;;;;;;;;;;
2088.0;2007.7;;;;;;;;;;;;;-20627;;;;;;;;
2088.0;2007.7;;;;;;;;;;;;;-28749;;;;;;;;
2088.0;2007.7;;;;;;;;;;;;;-31012;;;;;;;;
2088.0;2007.7;;;;;;;;;;;;;-23942;;;;;;;;
2088.0;2007.7;;;;;;;;;;;;;-11481;;;;;;;;
2088.0;2008.7;;;;-0.5076867;0.10688783;0.32270816;;;;;;;;;;;;;;;
2088.0;2008.7;;;;-0.5143586;0.11195375;0.32722476;;;;;;;;;;;;;;;
2088.0;2008.7;;;;-0.52122885;0.116741195;0.33111194;;;;;;;;;;;;;;;
2088.0;2008.7;;;;-0.52748495;0.121150985;0.33454898;;;;;;;;;;;;;;;
2088.0;2008.7;;;;-0.53316504;0.12493898;0.33832172;;;;;;;;;;;;;;;
2088.0;2014.5;;;;;;;;;;-2.2354808;-25.532547;90.91082;;;;;;;;;
2088.0;2014.5;;;;;;;0.6704306;-0.15649892;0.61342204;;;;;;;;;;;;
2088.0;2014.5;;;;;;;;;;0.2517777;-25.257881;88.09168;;;;;;;;;
2088.0;2014.5;;;;;;;0.72109133;-0.15344706;0.6115299;;;;;;;;;;;;
2090.0;2018.8;;;;-0.53845984;0.12836076;0.34224322;;;;;;;;;;;;;;;
2090.0;2018.8;;;;-0.54269415;0.13199998;0.34661868;;;;;;;;;;;;;;;
2090.0;2018.8;;;;-0.54673773;0.13525392;0.35063937;;;;;;;;;;;;;;;
2090.0;2018.8;;;;-0.5499726;0.13811494;0.3548775;;;;;;;;;;;;;;;
2090.0;2018.8;;;;-0.55318075;0.14068986;0.3600388;;;;;;;;;;;;;;;
2090.0;2022.2;262143;262143;10967;;;;;;;;;;;;;;;;;;
2090.0;2024.1;;;;;;;;;;2.8649251;-22.579882;84.94064;;;;;;;;;
2090.0;2024.1;;;;;;;0.7819452;-0.15051728;0.6059145;;;;;;;;;;;;
2090.0;2024.1;;;;;;;;;;5.4399247;-18.341625;81.1716;;;;;;;;;
2090.0;2024.1;;;;;;;0.8454848;-0.14642781;0.59743035;;;;;;;;;;;;
2090.0;2028.9;;;;-0.5557099;0.14281084;0.36565402;;;;;;;;;;;;;;;
2090.0;2028.9;;;;-0.5587807;0.14462282;0.37240604;;;;;;;;;;;;;;;
2090.0;2028.9;;;;-0.562584;0.14722444;0.37941366;;;;;;;;;;;;;;;
2090.0;2028.9;;;;-0.56694037;0.14900209;0.38606268;;;;;;;;;;;;;;;
2090.0;2028.9;;;;-0.5707093;0.15012743;0.39192587;;;;;;;;;;;;;;;
2090.0;2033.6;;;;;;;;;;7.4961085;-12.600329;76.857056;;;;;;;;;
2090.0;2033.6;;;;;;;0.901883;-0.14325388;0.586932;;;;;;;;;;;;
2090.0;2033.6;;;;;;;;;;8.564257;-6.309702;72.61116;;;;;;;;;
2090.0;2033.6;;;;;;;0.9380169;-0.13837092;0.5772271;;;;;;;;;;;;
2091.0;2037.4;;;;;;;;;;;;;;;;;-17.51381;-10.078737;-4.7647023;;1908.0
2091.0;2037.4;;;;;;;;;;;;;;-0.25586718;0.6039613;-0.05145421;;;;;1908.0
2091.0;2037.4;;;;;;;;;;;;;;;;;-18.467514;-3.6164434;-3.4676657;;1908.0
2091.0;2037.4;;;;;;;;;;;;;;-0.24158452;0.6197699;-0.03564562;;;;;1908.0
2091.0;2037.4;;;;;;;;;;;;;;;;;-17.708364;3.7041843;-6.1761837;;1917.7
2091.0;2037.4;;;;;;;;;;;;;;-0.2356029;0.64046144;-0.040650655;;;;;1917.7
2091.0;2037.4;;;;;;;;;;;;;;;;;-17.391735;11.646626;-12.459181;;1917.7
2091.0;2037.4;;;;;;;;;;;;;;-0.22949919;0.67165136;-0.052125614;;;;;1917.7
2091.0;2037.4;;;;;;;;;;;;;;;;;-22.164066;21.938993;-20.718252;;1927.2
2091.0;2037.4;;;;;;;;;;;;;;-0.22302927;0.69936216;-0.05383465;;;;;1927.2
2091.0;2037.4;;;;;;;;;;;;;;;;;-27.836695;31.55614;-27.130957;;1927.2
2091.0;2037.4;;;;;;;;;;;;;;-0.20880765;0.70528275;-0.061159093;;;;;1927.2
2091.0;2038.5;;;;;;;;;;;;;;;;;-28.03888;37.511063;-30.434584;;1936.9
2091.0;2038.5;;;;;;;;;;;;;;-0.19507432;0.69753104;-0.07159642;;;;;1936.9
2091.0;2038.5;;;;;;;;;;;;;;;;;-26.024658;40.921505;-31.865139;;1936.9
2091.0;2038.5;;;;;;;;;;;;;;-0.18292795;0.68404186;-0.11859493;;;;;1936.9
2091.0;2038.5;;;;;;;;;;;;;;;;;-26.219215;46.82684;-32.98288;;1946.6
2091.0;2038.5;;;;;;;;;;;;;;-0.19171728;0.6756798;-0.16187018;;;;;1946.6
2091.0;2038.5;;;;;;;;;;;;;;;;;-27.191994;52.983948;-33.07062;;1946.6
2091.0;2038.5;;;;;;;;;;;;;;-0.21027254;0.6687826;-0.18707846;;;;;1946.6
2091.0;2038.5;;;;;;;;;;;;;;;;;-31.12125;58.267464;-32.345806;;1956.2
2091.0;2038.5;;;;;;;;;;;;;;-0.23328349;0.67397076;-0.15924558;;;;;1956.2
2091.0;2038.5;;;;;;;;;;;;;;;;;-37.80862;61.79235;-31.09073;;1956.2
2091.0;2038.5;;;;;;;;;;;;;;-0.26374096;0.65919983;-0.12775049;;;;;1956.2
2148.0;2038.6;;;;-0.57471853;0.15158845;0.39725882;;;;;;;;;;;;;;;
2148.0;2038.6;;;;-0.5787087;0.15294649;0.40248495;;;;;;;;;;;;;;;
2148.0;2038.6;;;;-0.5816918;0.15439226;0.406704;;;;;;;;;;;;;;;
2148.0;2038.6;;;;-0.5843125;0.15599443;0.4100266;;;;;;;;;;;;;;;
2148.0;2038.6;;;;-0.58629996;0.15770723;0.41357046;;;;;;;;;;;;;;;
2148.0;2042.1;262143;262143;10974;;;;;;;;;;;;;;;;;;
2148.0;2042.9;;;;;;;;;;8.808405;-0.5188147;68.66664;;;;;;;;;
2148.0;2042.9;;;;;;;0.9421674;-0.13318278;0.5691702;;;;;;;;;;;;
2148.0;2042.9;;;;;;;;;;8.915219;4.7647023;65.2562;;;;;;;;;
2148.0;2042.9;;;;;;;0.92623675;-0.12537004;0.5628834;;;;;;;;;;;;
2148.0;2047.8;;;;;;;;;;;;;-1281;;;;;;;;
2148.0;2047.8;;;;;;;;;;;;;2818;;;;;;;;
2148.0;2047.8;;;;;;;;;;;;;2964;;;;;;;;
2148.0;2047.8;;;;;;;;;;;;;2909;;;;;;;;
2148.0;2047.8;;;;;;;;;;;;;3315;;;;;;;;
2148.0;2048.6;;;;-0.58655936;0.15926363;0.41688925;;;;;;;;;;;;;;;
2148.0;2048.6;;;;-0.58640677;0.16083147;0.42078406;;;;;;;;;;;;;;;
2148.0;2048.6;;;;-0.585434;0.16241838;0.42519003;;;;;;;;;;;;;;;
2148.0;2048.6;;;;-0.5839806;0.1642418;0.42947775;;;;;;;;;;;;;;;
2148.0;2048.6;;;;-0.58253485;0.16608812;0.43514258;;;;;;;;;;;;;;;
2148.0;2052.1;;;;;;;;;;9.31959;10.177923;61.960205;;;;;;;;;
2148.0;2052.1;;;;;;;0.90737635;-0.11780145;0.55604726;;;;;;;;;;;;
2148.0;2052.1;;;;;;;;;;10.261848;15.915403;58.0958;;;;;;;;;
2148.0;2052.1;;;;;;;0.89187294;-0.11035493;0.5492111;;;;;;;;;;;;
2150.0;2058.3;;;;-0.58030707;0.16790773;0.44004446;;;;;;;;;;;;;;;
2150.0;2058.3;;;;-0.57788855;0.16987611;0.44408423;;;;;;;;;;;;;;;
2150.0;2058.3;;;;-0.5756684;0.17119981;0.4475518;;;;;;;;;;;;;;;
2150.0;2058.3;;;;-0.57376486;0.17285158;0.44934088;;;;;;;;;;;;;;;
2150.0;2058.3;;;;-0.57275015;0.17307664;0.45088965;;;;;;;;;;;;;;;
2150.0;2061.6;;;;;;;;;;11.093478;21.454514;53.75454;;;;;;;;;
2150.0;2061.6;;;;;;;0.87636954;-0.103274636;0.5453047;;;;;;;;;;;;
2150.0;2061.6;;;;;;;;;;12.092959;26.92877;49.382767;;;;;;;;;
2150.0;2061.6;;;;;;;0.8564715;-0.09857479;0.5399945;;;;;;;;;;;;
2150.0;2061.8;262143;262143;10953;;;;;;;;;;;;;;;;;;
2150.0;2068.4;;;;-0.5722886;0.17200471;0.45167547;;;;;;;;;;;;;;;
2150.0;2068.4;;;;-0.5737801;0.16970445;0.4548188;;;;;;;;;;;;;;;
2150.0;2068.4;;;;-0.5765534;0.16674425;0.46023566;;;;;;;;;;;;;;;
2150.0;2068.4;;;;-0.5814286;0.1629944;0.4662972;;;;;;;;;;;;;;;
2150.0;2068.4;;;;-0.58863455;0.15979005;0.47165304;;;;;;;;;;;;;;;
2150.0;2071.2;;;;;;;;;;12.852107;32.48314;45.35432;;;;;;;;;
2150.0;2071.2;;;;;;;0.8366344;-0.09241005;0.53132725;;;;;;;;;;;;
2150.0;2071.2;;;;;;;;;;13.248848;37.71325;41.676838;;;;;;;;;
2150.0;2071.2;;;;;;;0.8121586;-0.085695975;0.5281533;;;;;;;;;;;;
2206.0;2078.5;;;;-0.59673315;0.15609361;0.47570425;;;;;;;;;;;;;;;
2206.0;2078.5;;;;-0.605629;0.1525612;0.47716528;;;;;;;;;;;;;;;
2206.0;2078.5;;;;-0.6146546;0.14976121;0.47921377;;;;;;;;;;;;;;;
2206.0;2078.5;;;;-0.6228867;0.1469269;0.4815026;;;;;;;;;;;;;;;
2206.0;2078.5;;;;-0.6302338;0.14475252;0.48479468;;;;;;;;;;;;;;;
2206.0;2080.9;;;;;;;;;;13.660849;42.641987;38.44188;;;;;;;;;
2206.0;2080.9;;;;;;;0.7900632;-0.08001953;0.52626115;;;;;;;;;;;;
2206.0;2080.9;;;;;;;;;;13.927884;47.15491;35.466324;;;;;;;;;
2206.0;2080.9;;;;;;;0.76558733;-0.076235235;0.5267495;;;;;;;;;;;;
2206.0;2082.0;262143;262143;10965;;;;;;;;;;;;;;;;;;
2206.0;2083.1;;;;;;;;;;;;;;;;;-40.009766;62.540054;-30.999176;;1965.9
2206.0;2083.1;;;;;;;;;;;;;;-0.29657888;0.66273993;-0.12469863;;;;;1965.9
2206.0;2083.1;;;;;;;;;;;;;;;;;-40.39506;62.498093;-31.418804;;1965.9
2206.0;2083.1;;;;;;;;;;;;;;-0.34479812;0.6773278;-0.15723136;;;;;1965.9
2206.0;2083.1;;;;;;;;;;;;;;;;;-41.333508;62.688835;-31.514175;;1975.5
2206.0;2083.1;;;;;;;;;;;;;;-0.40443128;0.6969817;-0.20685446;;;;;1975.5
2206.0;2083.1;;;;;;;;;;;;;;;;;-44.057285;61.3155;-30.800806;;1975.5
2206.0;2083.1;;;;;;;;;;;;;;-0.45759454;0.71572006;-0.21973327;;;;;1975.5
2206.0;2083.1;;;;;;;;;;;;;;;;;-49.150063;57.611317;-30.110323;;1985.2
2206.0;2083.1;;;;;;;;;;;;;;-0.5033113;0.7154149;-0.21875668;;;;;1985.2
2206.0;2083.1;;;;;;;;;;;;;;;;;-51.423687;53.80032;-29.946287;;1985.2
2206.0;2083.1;;;;;;;;;;;;;;-0.54054385;0.7115085;-0.21356852;;;;;1985.2
2211.0;2083.8;;;;;;;;;;;;;;;;;-51.126133;50.675983;-31.00299;;1994.8
2211.0;2083.8;;;;;;;;;;;;;;-0.5821711;0.7215796;-0.19220558;;;;;1994.8
2211.0;2083.8;;;;;;;;;;;;;;;;;-50.439465;45.346687;-32.471695;;1994.8
2211.0;2083.8;;;;;;;;;;;;;;-0.63124484;0.7422712;-0.15857418;;;;;1994.8
2211.0;2083.8;;;;;;;;;;;;;;;;;-52.095097;40.990173;-34.253212;;2004.3
2211.0;2083.8;;;;;;;;;;;;;;-0.67775506;0.7458724;-0.12402722;;;;;2004.3
2211.0;2083.8;;;;;;;;;;;;;;;;;-53.9758;40.082245;-37.827694;;2004.3
2211.0;2083.8;;;;;;;;;;;;;;-0.7264626;0.7691275;-0.08117924;;;;;2004.3
2211.0;2083.8;;;;;;;;;;;;;;;;;-55.15839;39.90295;-39.67406;;2013.9
2211.0;2083.8;;;;;;;;;;;;;;-0.7590564;0.8051393;-0.023987548;;;;;2013.9
2211.0;2083.8;;;;;;;;;;;;;;;;;-57.405315;38.075657;-40.120396;;2013.9
2211.0;2083.8;;;;;;;;;;;;;;-0.7792596;0.80849636;0.021423994;;;;;2013.9
2211.0;2087.6;;;;;;;;;;;;;3232;;;;;;;;
2211.0;2087.6;;;;;;;;;;;;;3120;;;;;;;;
2211.0;2087.6;;;;;;;;;;;;;3441;;;;;;;;
2211.0;2087.6;;;;;;;;;;;;;3523;;;;;;;;
2211.0;2087.6;;;;;;;;;;;;;3017;;;;;;;;
2211.0;2088.4;;;;-0.636879;0.14356233;0.48904425;;;;;;;;;;;;;;;
2211.0;2088.4;;;;-0.64368826;0.14378358;0.49467093;;;;;;;;;;;;;;;
2211.0;2088.4;;;;-0.6508599;0.14455034;0.50152594;;;;;;;;;;;;;;;
2211.0;2088.4;;;;-0.658783;0.14673616;0.51038367;;;;;;;;;;;;;;;
2211.0;2088.4;;;;-0.66807944;0.14922716;0.52024466;;;;;;;;;;;;;;;
2211.0;2090.2;;;;;;;;;;14.133884;50.611134;32.56325;;;;;;;;;
2211.0;2090.2;;;;;;;0.73934144;-0.071108125;0.5290689;;;;;;;;;;;;
2211.0;2090.2;;;;;;;;;;14.271218;52.751244;29.793695;;;;;;;;;
2211.0;2090.2;;;;;;;0.712241;-0.06500442;0.534196;;;;;;;;;;;;
2212.0;2098.3;;;;-0.67947394;0.15288164;0.53049856;;;;;;;;;;;;;;;
2212.0;2098.3;;;;-0.6928559;0.15765001;0.5418969;;;;;;;;;;;;;;;
2212.0;2098.3;;;;-0.70781714;0.1634598;0.5540696;;;;;;;;;;;;;;;
2212.0;2098.3;;;;-0.72492605;0.17037584;0.56862265;;;;;;;;;;;;;;;
2212.0;2098.3;;;;-0.74327475;0.17743684;0.58297735;;;;;;;;;;;;;;;
2212.0;2099.7;;;;;;;;;;14.679403;53.96054;27.153845;;;;;;;;;
2212.0;2099.7;;;;;;;0.6837977;-0.06268502;0.5404218;;;;;;;;;;;;
2212.0;2099.7;;;;;;;;;;15.198217;54.170357;24.563585;;;;;;;;;
2212.0;2099.7;;;;;;;0.6587115;-0.057313763;0.54585403;;;;;;;;;;;;
2212.0;2102.0;262143;262143;10948;;;;;;;;;;;;;;;;;;
2212.0;2108.3;;;;-0.76212704;0.18552019;0.5971871;;;;;;;;;;;;;;;
2212.0;2108.3;;;;-0.78113186;0.19345859;0.61114126;;;;;;;;;;;;;;;
2212.0;2108.3;;;;-0.79994595;0.20108798;0.62440115;;;;;;;;;;;;;;;
2212.0;2108.3;;;;-0.8192979;0.20920947;0.63890463;;;;;;;;;;;;;;;
2212.0;2108.3;;;;-0.8375665;0.2164078;0.6513291;;;;;;;;;;;;;;;
2212.0;2109.2;;;;;;;;;;15.694143;53.67443;22.049623;;;;;;;;;
2212.0;2109.2;;;;;;;0.64046144;-0.050721765;0.5532395;;;;;;;;;;;;
2212.0;2109.2;;;;;;;;;;16.125217;52.35832;19.642475;;;;;;;;;
2212.0;2109.2;;;;;;;0.6178167;-0.051087987;0.56386;;;;;;;;;;;;
2215.0;2118.2;;;;-0.8557054;0.22363666;0.6636506;;;;;;;;;;;;;;;
2215.0;2118.2;;;;-0.87313855;0.23132327;0.67597204;;;;;;;;;;;;;;;
2215.0;2118.2;;;;-0.8903352;0.23869327;0.6878434;;;;;;;;;;;;;;;
2215.0;2118.2;;;;-0.9077493;0.24584582;0.6990586;;;;;;;;;;;;;;;
2215.0;2118.2;;;;-0.9250871;0.25339893;0.70837027;;;;;;;;;;;;;;;
2215.0;2118.6;;;;;;;;;;16.9187;49.06232;17.864773;;;;;;;;;
2215.0;2118.6;;;;;;;0.6056093;-0.051576283;0.5742973;;;;;;;;;;;;
2215.0;2118.6;;;;;;;;;;17.891476;44.812614;16.438032;;;;;;;;;
2215.0;2118.6;;;;;;;0.5980407;-0.04669332;0.58552814;;;;;;;;;;;;
2215.0;2121.9;262143;262143;10944;;;;;;;;;;;;;;;;;;
2215.0;2127.5;;;;;;;;;;;;;2589;;;;;;;;
2215.0;2127.5;;;;;;;;;;;;;2758;;;;;;;;
2215.0;2127.5;;;;;;;;;;;;;3250;;;;;;;;
2215.0;2127.5;;;;;;;;;;;;;3723;;;;;;;;
2215.0;2127.5;;;;;;;;;;;;;4278;;;;;;;;
2215.0;2128.2;;;;;;;;;;18.55144;41.226692;15.179143;;;;;;;;;
2215.0;2128.2;;;;;;;0.5937681;-0.040711693;0.5970031;;;;;;;;;;;;
2215.0;2128.2;;;;;;;;;;18.993958;37.667473;13.828699;;;;;;;;;
2215.0;2128.2;;;;;;;0.58949554;-0.03418073;0.6111637;;;;;;;;;;;;
2215.0;2128.3;;;;-0.9428636;0.26124957;0.7175141;;;;;;;;;;;;;;;
2215.0;2128.3;;;;-0.96026623;0.26916507;0.7260018;;;;;;;;;;;;;;;
2215.0;2128.3;;;;-0.9762231;0.2767792;0.7322617;;;;;;;;;;;;;;;
2215.0;2128.3;;;;-0.9911767;0.28335193;0.7364846;;;;;;;;;;;;;;;
2215.0;2128.3;;;;-1.0042802;0.29007342;0.7402802;;;;;;;;;;;;;;;
2216.0;2137.9;;;;;;;;;;19.425032;33.982357;12.623219;;;;;;;;;
2216.0;2137.9;;;;;;;0.5905942;-0.028199103;0.6225166;;;;;;;;;;;;
2216.0;2137.9;;;;;;;;;;19.791252;30.47273;11.463515;;;;;;;;;
2216.0;2137.9;;;;;;;0.5976745;-0.023987548;0.634785;;;;;;;;;;;;
2216.0;2138.4;;;;-1.015339;0.29631808;0.74337393;;;;;;;;;;;;;;;
2216.0;2138.4;;;;-1.024254;0.3017464;0.7464486;;;;;;;;;;;;;;;
2216.0;2138.4;;;;-1.0309678;0.30723193;0.75055707;;;;;;;;;;;;;;;
2216.0;2138.4;;;;-1.0361482;0.31180194;0.7547418;;;;;;;;;;;;;;;
2216.0;2138.4;;;;-1.0395166;0.31621173;0.7599641;;;;;;;;;;;;;;;
2216.0;2142.3;;;;;;;;;;;;;;;;;-58.339947;36.931213;-42.66106;;2023.5
2216.0;2142.3;;;;;;;;;;;;;;-0.7776116;0.79873043;-0.011535997;;;;;2023.5
2216.0;2142.3;;;;;;;;;;;;;;;;;-53.937653;37.58736;-46.193577;;2023.5
2216.0;2142.3;;;;;;;;;;;;;;-0.7603381;0.8048341;-0.036378063;;;;;2023.5
2216.0;2142.3;;;;;;;;;;;;;;;;;-55.211796;34.169285;-50.687428;;2033.1
2216.0;2142.3;;;;;;;;;;;;;;-0.7366558;0.7671743;-0.060121465;;;;;2033.1
2216.0;2142.3;;;;;;;;;;;;;;;;;-57.74102;32.677696;-56.90176;;2033.1
2216.0;2142.3;;;;;;;;;;;;;;-0.751854;0.72817165;-0.071779534;;;;;2033.1
2216.0;2142.3;;;;;;;;;;;;;;;;;-57.51976;34.78347;-63.806572;;2042.6
2216.0;2142.3;;;;;;;;;;;;;;-0.7819452;0.73165077;-0.100711085;;;;;2042.6
2216.0;2142.3;;;;;;;;;;;;;;;;;-57.62276;39.029358;-71.771904;;2042.6
2216.0;2142.3;;;;;;;;;;;;;;-0.82992035;0.75283056;-0.1225013;;;;;2042.6
2216.0;2142.0;262143;262143;10945;;;;;;;;;;;;;;;;;;
2217.0;2143.4;;;;;;;;;;;;;;;;;-58.606983;41.5891;-81.02283;;2052.3
2217.0;2143.4;;;;;;;;;;;;;;-0.8818629;0.7939085;-0.1267739;;;;;2052.3
2217.0;2143.4;;;;;;;;;;;;;;;;;-57.75628;40.009766;-91.578415;;2052.3
2217.0;2143.4;;;;;;;;;;;;;;-0.9450362;0.8650777;-0.13049714;;;;;2052.3
2217.0;2143.4;;;;;;;;;;;;;;;;;-57.473984;34.18073;-102.68716;;2062.0
2217.0;2143.4;;;;;;;;;;;;;;-1.0137639;0.9441816;-0.13428144;;;;;2062.0
2217.0;2143.4;;;;;;;;;;;;;;;;;-62.15476;28.805658;-114.96704;;2062.0
2217.0;2143.4;;;;;;;;;;;;;;-1.08652;1.0644857;-0.1163976;;;;;2062.0
2217.0;2143.4;;;;;;;;;;;;;;;;;-68.89553;25.60503;-123.19178;;2071.7
2217.0;2143.4;;;;;;;;;;;;;;-1.1717277;1.1458479;-0.06848354;;;;;2071.7
2217.0;2143.4;;;;;;;;;;;;;;;;;-79.252754;24.143957;-124.988556;;2071.7
2217.0;2143.4;;;;;;;;;;;;;;-1.169042;1.2800074;-0.05511643;;;;;2071.7
2217.0;2147.4;;;;;;;;;;20.168919;26.81814;10.345775;;;;;;;;;
2217.0;2147.4;;;;;;;0.60451066;-0.024292734;0.6459548;;;;;;;;;;;;
2217.0;2147.4;;;;;;;;;;20.336771;23.05292;9.155553;;;;;;;;;
2217.0;2147.4;;;;;;;0.61195713;-0.020508438;0.65700245;;;;;;;;;;;;
2217.0;2148.4;;;;-1.042801;0.3211365;0.7656404;;;;;;;;;;;;;;;
2217.0;2148.4;;;;-1.0457536;0.32501605;0.77054226;;;;;;;;;;;;;;;
2217.0;2148.4;;;;-1.0487367;0.32801822;0.77412045;;;;;;;;;;;;;;;
2217.0;2148.4;;;;-1.0515252;0.32953647;0.77747357;;;;;;;;;;;;;;;
2217.0;2148.4;;;;-1.053917;0.33049014;0.7807962;;;;;;;;;;;;;;;
2217.0;2156.9;;;;;;;;;;20.474104;19.46318;7.854701;;;;;;;;;
2217.0;2156.9;;;;;;;0.6154973;-0.01965392;0.66896576;;;;;;;;;;;;
2217.0;2156.9;;;;;;;;;;20.48555;15.64455;6.515702;;;;;;;;;
2217.0;2156.9;;;;;;;0.61922055;-0.017090365;0.6773278;;;;;;;;;;;;
2268.0;2158.3;;;;-1.0562364;0.3304558;0.78437436;;;;;;;;;;;;;;;
2268.0;2158.3;;;;-1.0578424;0.32930377;0.7874414;;;;;;;;;;;;;;;
2268.0;2158.3;;;;-1.0592996;0.32810596;0.79135525;;;;;;;;;;;;;;;
2268.0;2158.3;;;;-1.0606996;0.32643512;0.7948915;;;;;;;;;;;;;;;
2268.0;2158.3;;;;-1.0620309;0.32473376;0.7982408;;;;;;;;;;;;;;;
2268.0;2162.1;262143;262143;10934;;;;;;;;;;;;;;;;;;
2268.0;2166.5;;;;;;;;;;20.458845;11.841182;5.104221;;;;;;;;;
2268.0;2166.5;;;;;;;0.62099063;-0.014038514;0.6886807;;;;;;;;;;;;
2268.0;2166.5;;;;;;;;;;20.535141;8.388776;3.707999;;;;;;;;;
2268.0;2166.5;;;;;;;0.6292306;-0.012756737;0.7012543;;;;;;;;;;;;
2268.0;2167.7;;;;;;;;;;;;;4801;;;;;;;;
2268.0;2167.7;;;;;;;;;;;;;5028;;;;;;;;
2268.0;2167.7;;;;;;;;;;;;;5097;;;;;;;;
2268.0;2167.7;;;;;;;;;;;;;5457;;;;;;;;
2268.0;2167.7;;;;;;;;;;;;;6180;;;;;;;;
2268.0;2168.4;;;;-1.0640298;0.3217583;0.8006059;;;;;;;;;;;;;;;
2268.0;2168.4;;;;-1.0661546;0.3184624;0.8013116;;;;;;;;;;;;;;;
2268.0;2168.4;;;;-1.0691568;0.31476977;0.80151;;;;;;;;;;;;;;;
2268.0;2168.4;;;;-1.0721895;0.31094363;0.80118954;;;;;;;;;;;;;;;
2268.0;2168.4;;;;-1.0754701;0.30685428;0.80051816;;;;;;;;;;;;;;;
2268.0;2175.4;;;;;;;;;;20.702993;5.3636284;2.128666;;;;;;;;;
2268.0;2175.4;;;;;;;0.64387953;-0.010803552;0.7130955;;;;;;;;;;;;
2268.0;2175.4;;;;;;;;;;20.805994;2.8305917;0.32807398;;;;;;;;;
2268.0;2175.4;;;;;;;0.6630451;-0.012573626;0.72359383;;;;;;;;;;;;
2270.0;2177.8;;;;-1.0801316;0.3021355;0.7998506;;;;;;;;;;;;;;;
2270.0;2177.8;;;;-1.0854684;0.2975655;0.799965;;;;;;;;;;;;;;;
2270.0;2177.8;;;;-1.0913087;0.2933083;0.79958737;;;;;;;;;;;;;;;
2270.0;2177.8;;;;-1.0970231;0.28903964;0.79970944;;;;;;;;;;;;;;;
2270.0;2177.8;;;;-1.1034127;0.28491214;0.7984773;;;;;;;;;;;;;;;
2270.0;2181.7;262143;262143;10940;;;;;;;;;;;;;;;;;;
2270.0;2185.0;;;;;;;;;;20.77929;0.6675924;-1.5297403;;;;;;;;;
2270.0;2185.0;;;;;;;0.6837367;-0.014404736;0.7345195;;;;;;;;;;;;
2270.0;2185.0;;;;;;;;;;20.577105;-1.3847773;-3.3646657;;;;;;;;;
2270.0;2185.0;;;;;;;0.70131534;-0.01574755;0.74221015;;;;;;;;;;;;
2270.0;2188.0;;;;-1.1101991;0.27988437;0.7957002;;;;;;;;;;;;;;;
2270.0;2188.0;;;;-1.117119;0.27432254;0.79309857;;;;;;;;;;;;;;;
2270.0;2188.0;;;;-1.1240426;0.26963428;0.79125607;;;;;;;;;;;;;;;
2270.0;2188.0;;;;-1.1316377;0.2650452;0.7902566;;;;;;;;;;;;;;;
2270.0;2188.0;;;;-1.1398698;0.26087573;0.7901536;;;;;;;;;;;;;;;
2270.0;2194.6;;;;;;;;;;20.027771;-3.5096285;-5.1690726;;;;;;;;;
2270.0;2194.6;;;;;;;0.71614736;-0.017517624;0.74898523;;;;;;;;;;;;
2270.0;2194.6;;;;;;;;;;19.409773;-5.3102207;-6.8475904;;;;;;;;;
2270.0;2194.6;;;;;;;0.732017;-0.01782281;0.75679797;;;;;;;;;;;;
2273.0;2198.1;;;;-1.1479455;0.256588;0.79034054;;;;;;;;;;;;;;;
2273.0;2198.1;;;;-1.1572763;0.25194553;0.78987896;;;;;;;;;;;;;;;
2273.0;2198.1;;;;-1.1682664;0.24518207;0.78667843;;;;;;;;;;;;;;;
2273.0;2198.1;;;;-1.1795541;0.23831561;0.78574765;;;;;;;;;;;;;;;
2273.0;2198.1;;;;-1.1901513;0.23282626;0.78592694;;;;;;;;;;;;;;;
2273.0;2202.0;;;;;;;;;;;;;;;;;-84.94827;24.990843;-124.988556;;2081.3
2273.0;2202.0;;;;;;;;;;;;;;-1.1531724;1.4435256;-0.03564562;;;;;2081.3
2273.0;2202.0;;;;;;;;;;;;;;;;;-79.06964;20.214697;-124.988556;;2081.3
2273.0;2202.0;;;;;;;;;;;;;;-1.0959197;1.5712149;-0.031006806;;;;;2081.3
2273.0;2202.0;;;;;;;;;;;;;;;;;-67.44591;11.322367;-124.988556;;2090.9
2273.0;2202.0;;;;;;;;;;;;;;-0.96212655;1.6392102;-0.07873776;;;;;2090.9
2273.0;2202.0;;;;;;;;;;;;;;;;;-58.660393;3.2197027;-124.988556;;2090.9
2273.0;2202.0;;;;;;;;;;;;;;-0.7995239;1.6398816;-0.12738426;;;;;2090.9
2273.0;2202.0;;;;;;;;;;;;;;;;;-51.3245;-6.5614796;-124.89319;;2100.5
2273.0;2202.0;;;;;;;;;;;;;;-0.63936275;1.5961181;-0.22125919;;;;;2100.5
2273.0;2202.0;;;;;;;;;;;;;;;;;-42.321545;-13.157292;-123.466446;;2100.5
2273.0;2202.0;;;;;;;;;;;;;;-0.51258886;1.595935;-0.30018005;;;;;2100.5
2274.0;2202.8;;;;;;;;;;;;;;;;;-31.613361;-18.173773;-118.05323;;2110.2
2274.0;2202.8;;;;;;;;;;;;;;-0.40900907;1.6110721;-0.37836847;;;;;2110.2
2274.0;2202.8;;;;;;;;;;;;;;;;;-22.461622;-19.398329;-109.88952;;2110.2
2274.0;2202.8;;;;;;;;;;;;;;-0.31049532;1.6162603;-0.4638203;;;;;2110.2
2274.0;2202.8;;;;;;;;;;;;;;;;;-16.052736;-15.503403;-100.59282;;2119.9
2274.0;2202.8;;;;;;;;;;;;;;-0.21607105;1.612537;-0.52571183;;;;;2119.9
2274.0;2202.8;;;;;;;;;;;;;;;;;-14.202551;-7.0764794;-92.806786;;2119.9
2274.0;2202.8;;;;;;;;;;;;;;-0.16858424;1.5777459;-0.5706961;;;;;2119.9
2274.0;2202.8;;;;;;;;;;;;;;;;;-15.55681;1.3046663;-91.41819;;2129.5
2274.0;2202.8;;;;;;;;;;;;;;-0.13776055;1.5242164;-0.5667287;;;;;2129.5
2274.0;2202.8;;;;;;;;;;;;;;;;;-23.7434;6.805628;-97.61346;;2129.5
2274.0;2202.8;;;;;;;;;;;;;;-0.122562334;1.4624469;-0.55543685;;;;;2129.5
2274.0;2201.9;262143;262143;10937;;;;;;;;;;;;;;;;;;
2274.0;2204.1;;;;;;;;;;18.616291;-6.6873684;-8.705404;;;;;;;;;
2274.0;2204.1;;;;;;;0.75081635;-0.018311106;0.76613665;;;;;;;;;;;;
2274.0;2204.1;;;;;;;;;;17.773216;-7.4808497;-10.433516;;;;;;;;;
2274.0;2204.1;;;;;;;0.7761467;-0.01965392;0.7772454;;;;;;;;;;;;
2274.0;2207.4;;;;;;;;;;;;;6390;;;;;;;;
2274.0;2207.4;;;;;;;;;;;;;5531;;;;;;;;
2274.0;2207.4;;;;;;;;;;;;;4499;;;;;;;;
2274.0;2207.4;;;;;;;;;;;;;4076;;;;;;;;
2274.0;2207.4;;;;;;;;;;;;;3689;;;;;;;;
2277.0;2208.0;;;;-1.2008249;0.22721866;0.7864419;;;;;;;;;;;;;;;
2277.0;2208.0;;;;-1.2114335;0.22135928;0.78603375;;;;;;;;;;;;;;;
2277.0;2208.0;;;;-1.2213022;0.21489337;0.7851144;;;;;;;;;;;;;;;
2277.0;2208.0;;;;-1.2300149;0.20851901;0.7853662;;;;;;;;;;;;;;;
2277.0;2208.0;;;;-1.2380143;0.20196536;0.7853433;;;;;;;;;;;;;;;
2277.0;2213.7;;;;;;;;;;16.70507;-7.797479;-12.077701;;;;;;;;;
2277.0;2213.7;;;;;;;0.8080691;-0.02478103;0.78817105;;;;;;;;;;;;
2277.0;2213.7;;;;;;;;;;15.339366;-7.763146;-13.557848;;;;;;;;;
2277.0;2213.7;;;;;;;0.84578997;-0.031373028;0.793054;;;;;;;;;;;;
2277.0;2216.9;;;;;;;;;;;;;;;;;-35.588398;13.981292;-113.66238;;2139.0
2277.0;2216.9;;;;;;;;;;;;;;-0.14679404;1.4364452;-0.5939512;;;;;2139.0
2277.0;2216.9;;;;;;;;;;;;;;;;;-41.99347;28.160954;-124.546036;;2139.0
2277.0;2216.9;;;;;;;;;;;;;;-0.25019073;1.4681845;-0.61476487;;;;;2139.0
2277.0;2216.9;;;;;;;;;;;;;;;;;-42.260506;42.30247;-124.988556;;2148.7
2277.0;2216.9;;;;;;;;;;;;;;-0.36548966;1.4438307;-0.6284982;;;;;2148.7
2277.0;2216.9;;;;;;;;;;;;;;;;;-40.524765;52.949615;-124.988556;;2148.7
2277.0;2216.9;;;;;;;;;;;;;;-0.48200935;1.4136174;-0.6690878;;;;;2148.7
2277.0;2216.9;;;;;;;;;;;;;;;;;-39.265877;63.097015;-124.988556;;2158.3
2277.0;2216.9;;;;;;;;;;;;;;-0.60011595;1.4100162;-0.69631034;;;;;2158.3
2277.0;2216.9;;;;;;;;;;;;;;;;;-39.510025;70.799126;-124.988556;;2158.3
2277.0;2216.9;;;;;;;;;;;;;;-0.70082706;1.412885;-0.70461136;;;;;2158.3
2329.0;2217.9;;;;-1.2445909;0.19564822;0.7857324;;;;;;;;;;;;;;;
2329.0;2217.9;;;;-1.2501794;0.18922427;0.78670514;;;;;;;;;;;;;;;
2329.0;2217.9;;;;-1.2553674;0.18288805;0.7878839;;;;;;;;;;;;;;;
2329.0;2217.9;;;;-1.260338;0.17729189;0.7903825;;;;;;;;;;;;;;;
2329.0;2217.9;;;;-1.2641717;0.17231752;0.7923547;;;;;;;;;;;;;;;
2329.0;2221.9;262143;262143;10941;;;;;;;;;;;;;;;;;;
2329.0;2223.1;;;;;;;;;;13.542589;-7.328257;-14.84344;;;;;;;;;
2329.0;2223.1;;;;;;;0.8845485;-0.042115543;0.80581075;;;;;;;;;;;;
2329.0;2223.1;;;;;;;;;;11.524552;-6.199072;-15.8391075;;;;;;;;;
2329.0;2223.1;;;;;;;0.91976684;-0.055604726;0.8222907;;;;;;;;;;;;
2329.0;2228.0;;;;-1.267872;0.16770937;0.7952119;;;;;;;;;;;;;;;
2329.0;2228.0;;;;-1.2693483;0.16401674;0.7971231;;;;;;;;;;;;;;;
2329.0;2228.0;;;;-1.2692987;0.16197206;0.79978573;;;;;;;;;;;;;;;
2329.0;2228.0;;;;-1.2679101;0.16046144;0.8020059;;;;;;;;;;;;;;;
2329.0;2228.0;;;;-1.263775;0.15858461;0.8032762;;;;;;;;;;;;;;;
2329.0;2232.6;;;;;;;;;;9.495071;-4.3755913;-16.544847;;;;;;;;;
2329.0;2232.6;;;;;;;0.9522996;-0.071779534;0.84426403;;;;;;;;;;;;
2329.0;2232.6;;;;;;;;;;7.374035;-1.9531846;-17.17429;;;;;;;;;
2329.0;2232.6;;;;;;;0.9877621;-0.09076205;0.86971647;;;;;;;;;;;;
2331.0;2237.8;;;;-1.2570764;0.1580353;0.8056718;;;;;;;;;;;;;;;
2331.0;2237.8;;;;-1.2484094;0.15859605;0.80869687;;;;;;;;;;;;;;;
2331.0;2237.8;;;;-1.2376252;0.15926744;0.8118402;;;;;;;;;;;;;;;
2331.0;2237.8;;;;-1.2245523;0.15957262;0.81451046;;;;;;;;;;;;;;;
2331.0;2237.8;;;;-1.2098619;0.15982057;0.81593716;;;;;;;;;;;;;;;
2331.0;2242.1;;;;;;;;;;5.394147;1.0414442;-18.032623;;;;;;;;;
2331.0;2242.1;;;;;;;1.0223701;-0.11835078;0.8960845;;;;;;;;;;;;
2331.0;2242.1;;;;;;;;;;3.6431472;4.6807766;-19.116032;;;;;;;;;
2331.0;2242.1;;;;;;;1.0565507;-0.1495407;0.9247108;;;;;;;;;;;;
2331.0;2241.8;262143;262143;10953;;;;;;;;;;;;;;;;;;
2331.0;2247.4;;;;;;;;;;;;;2638;;;;;;;;
2331.0;2247.4;;;;;;;;;;;;;1262;;;;;;;;
2331.0;2247.4;;;;;;;;;;;;;106;;;;;;;;
2331.0;2247.4;;;;;;;;;;;;;-746;;;;;;;;
2331.0;2247.4;;;;;;;;;;;;;-1440;;;;;;;;
2331.0;2247.9;;;;-1.1940156;0.1600609;0.8175508;;;;;;;;;;;;;;;
2331.0;2247.9;;;;-1.1769296;0.1602936;0.81756604;;;;;;;;;;;;;;;
2331.0;2247.9;;;;-1.1583215;0.16061784;0.81676877;;;;;;;;;;;;;;;
2331.0;2247.9;;;;-1.1388856;0.16070558;0.8163148;;;;;;;;;;;;;;;
2331.0;2247.9;;;;-1.1185609;0.15998079;0.8154489;;;;;;;;;;;;;;;
2331.0;2251.7;;;;;;;;;;2.029481;8.751183;-20.416883;;;;;;;;;
2331.0;2251.7;;;;;;;1.0939054;-0.18567461;0.95144504;;;;;;;;;;;;
2331.0;2251.7;;;;;;;;;;0.5302591;12.737662;-21.996216;;;;;;;;;
2331.0;2251.7;;;;;;;1.121189;-0.22412793;0.97634816;;;;;;;;;;;;
2332.0;2258.1;;;;-1.096985;0.15925218;0.8140336;;;;;;;;;;;;;;;
2332.0;2258.1;;;;-1.0751802;0.15838625;0.81304944;;;;;;;;;;;;;;;
2332.0;2258.1;;;;-1.0522767;0.15734865;0.81266034;;;;;;;;;;;;;;;
2332.0;2258.1;;;;-1.0280648;0.15541841;0.81076443;;;;;;;;;;;;;;;
2332.0;2258.1;;;;-1.0033723;0.15391923;0.80786526;;;;;;;;;;;;;;;
2332.0;2261.3;;;;;;;;;;-0.6027406;16.026033;-23.716698;;;;;;;;;
2332.0;2261.3;;;;;;;1.1413312;-0.26483962;0.9996643;;;;;;;;;;;;
2332.0;2261.3;;;;;;;;;;-1.4763329;18.673513;-25.566881;;;;;;;;;
2332.0;2261.3;;;;;;;1.1490829;-0.30317086;1.0154729;;;;;;;;;;;;
2332.0;2262.1;;;;;;;;;;;;;;;;;-39.872433;76.21616;-124.988556;;2168.0
2332.0;2262.1;;;;;;;;;;;;;;-0.77340007;1.4027528;-0.6767174;;;;;2168.0
2332.0;2262.1;;;;;;;;;;;;;;;;;-37.282173;76.78458;-124.988556;;2168.0
2332.0;2262.1;;;;;;;;;;;;;;-0.819361;1.3729666;-0.6194647;;;;;2168.0
2332.0;2262.1;;;;;;;;;;;;;;;;;-33.57799;72.927795;-124.988556;;2177.6
2332.0;2262.1;;;;;;;;;;;;;;-0.844203;1.3481246;-0.5345012;;;;;2177.6
2332.0;2262.1;;;;;;;;;;;;;;;;;-32.700584;66.389206;-124.988556;;2177.6
2332.0;2262.1;;;;;;;;;;;;;;-0.8525651;1.3243812;-0.43513292;;;;;2177.6
2332.0;2262.1;;;;;;;;;;;;;;;;;-34.8941;57.134464;-124.08063;;2187.2
2332.0;2262.1;;;;;;;;;;;;;;-0.8173467;1.3160192;-0.34669027;;;;;2187.2
2332.0;2262.1;;;;;;;;;;;;;;;;;-37.453842;46.990875;-117.71752;;2187.2
2332.0;2262.1;;;;;;;;;;;;;;-0.7488021;1.2850734;-0.28315073;;;;;2187.2
2332.0;2261.9;262143;262143;10956;;;;;;;;;;;;;;;;;;
2334.0;2268.0;;;;-0.97813046;0.15226747;0.806347;;;;;;;;;;;;;;;
2334.0;2268.0;;;;-0.9524957;0.1509247;0.80448544;;;;;;;;;;;;;;;
2334.0;2268.0;;;;-0.92637265;0.15029909;0.8021966;;;;;;;;;;;;;;;
2334.0;2268.0;;;;-0.9002229;0.15035631;0.80259335;;;;;;;;;;;;;;;
2334.0;2268.0;;;;-0.8769685;0.14793016;0.7965394;;;;;;;;;;;;;;;
2334.0;2270.8;;;;;;;;;;-2.2049623;20.222326;-27.249214;;;;;;;;;
2334.0;2270.8;;;;;;;1.1445051;-0.33362836;1.0294504;;;;;;;;;;;;
2334.0;2270.8;;;;;;;;;;-2.5940733;20.558031;-28.97351;;;;;;;;;
2334.0;2270.8;;;;;;;1.1230812;-0.35755485;1.0395215;;;;;;;;;;;;
2334.0;2277.5;;;;;;;;;;;;;;;;;-38.396103;36.81677;-109.176155;;2196.8
2334.0;2277.5;;;;;;;;;;;;;;-0.6739097;1.2276986;-0.24652852;;;;;2196.8
2334.0;2277.5;;;;;;;;;;;;;;;;;-38.571583;27.802362;-103.67901;;2196.8
2334.0;2277.5;;;;;;;;;;;;;;-0.6344798;1.159093;-0.20734276;;;;;2196.8
2334.0;2277.5;;;;;;;;;;;;;;;;;-37.228767;19.028292;-98.799866;;2206.5
2334.0;2277.5;;;;;;;;;;;;;;-0.5858333;1.1097751;-0.19067965;;;;;2206.5
2334.0;2277.5;;;;;;;;;;;;;;;;;-34.44395;11.650441;-90.06775;;2206.5
2334.0;2277.5;;;;;;;;;;;;;;-0.5412763;1.0730308;-0.17096469;;;;;2206.5
2334.0;2277.5;;;;;;;;;;;;;;;;;-29.011658;5.9129615;-80.19882;;2216.2
2334.0;2277.5;;;;;;;;;;;;;;-0.5150914;1.0537431;-0.14270455;;;;;2216.2
2334.0;2277.5;;;;;;;;;;;;;;;;;-23.865475;-1.1558886;-71.08905;;2216.2
2334.0;2277.5;;;;;;;;;;;;;;-0.47877437;1.0408032;-0.100833155;;;;;2216.2
2386.0;2277.9;;;;-0.85549176;0.14318849;0.7872125;;;;;;;;;;;;;;;
2386.0;2277.9;;;;-0.8339845;0.14016725;0.7819482;;;;;;;;;;;;;;;
2386.0;2277.9;;;;-0.81268704;0.13925554;0.7793809;;;;;;;;;;;;;;;
2386.0;2277.9;;;;-0.7918016;0.13865282;0.774624;;;;;;;;;;;;;;;
2386.0;2277.9;;;;-0.7724725;0.13669969;0.76788723;;;;;;;;;;;;;;;
2386.0;2280.2;;;;;;;;;;-2.3651845;19.936216;-30.59862;;;;;;;;;
2386.0;2280.2;;;;;;;1.0995208;-0.37415692;1.0446485;;;;;;;;;;;;
2386.0;2280.2;;;;;;;;;;-1.7967772;18.658255;-32.101658;;;;;;;;;
2386.0;2280.2;;;;;;;1.0708334;-0.38337353;1.0429395;;;;;;;;;;;;
2386.0;2282.0;262143;262143;10951;;;;;;;;;;;;;;;;;;
2386.0;2287.6;;;;;;;;;;;;;-1971;;;;;;;;
2386.0;2287.6;;;;;;;;;;;;;-2119;;;;;;;;
2386.0;2287.6;;;;;;;;;;;;;-1968;;;;;;;;
2386.0;2287.6;;;;;;;;;;;;;-1945;;;;;;;;
2386.0;2287.6;;;;;;;;;;;;;-2151;;;;;;;;
2386.0;2288.0;;;;-0.7522737;0.13485338;0.76316464;;;;;;;;;;;;;;;
2386.0;2288.0;;;;-0.732441;0.13222505;0.75732434;;;;;;;;;;;;;;;
2386.0;2288.0;;;;-0.7148743;0.12649919;0.7453118;;;;;;;;;;;;;;;
2386.0;2288.0;;;;-0.69798666;0.121150985;0.73497397;;;;;;;;;;;;;;;
2386.0;2288.0;;;;-0.6799279;0.11740114;0.72754675;;;;;;;;;;;;;;;
2386.0;2289.8;;;;;;;;;;-0.8926664;16.796625;-33.4254;;;;;;;;;
2386.0;2289.8;;;;;;;1.0454421;-0.38459426;1.0350658;;;;;;;;;;;;
2386.0;2289.8;;;;;;;;;;0.26322216;14.446699;-34.550766;;;;;;;;;
2386.0;2289.8;;;;;;;1.017304;-0.38245797;1.0278023;;;;;;;;;;;;
2390.0;2297.8;;;;-0.6633416;0.114540115;0.71937186;;;;;;;;;;;;;;;
2390.0;2297.8;;;;-0.6482659;0.109821334;0.7089997;;;;;;;;;;;;;;;
2390.0;2297.8;;;;-0.63361746;0.10429765;0.69715506;;;;;;;;;;;;;;;
2390.0;2297.8;;;;-0.6203461;0.098426834;0.6856347;;;;;;;;;;;;;;;
