patientId;holterMac;flexMac;;;;;;;;;;;;;;;;;;;;
;CA:F3:0B:1E:33:78;D3:4A:5C:52:80:78;;;;;;;;;;;;;;;;;;;;
receivedTimeStamp;timeStamp;red;ir;green;adxl_accX;adxl_accY;adxl_accZ;lsm_accelX;lsm_accelY;lsm_accelZ;lsm_gyroX;lsm_gyroY;lsm_gyroZ;ecg;flex_lsm_accelX;flex_lsm_accelY;flex_lsm_accelZ;flex_lsm_gyroX;flex_lsm_gyroY;flex_lsm_gyroZ;flex_cmd;flexTimeStamp
255.0;214.4;;;;;;;;;;;;;;;;;;;;17;0.1
255.0;214.4;;;;;;;;;;;;;;;;;13.981292;0.6904813;1.8311106;;127.6
255.0;214.4;;;;;;;;;;;;;;0.98641926;0.090701014;-0.27942747;;;;;127.6
255.0;214.4;;;;;;;;;;;;;;;;;-7.026887;-16.872921;-8.358257;;127.6
255.0;214.4;;;;;;;;;;;;;;1.047029;0.051881466;-0.2664266;;;;;127.6
255.0;214.4;;;;;;;;;;;;;;;;;-66.67913;-83.54442;-69.05194;;137.3
255.0;214.4;;;;;;;;;;;;;;1.084933;0.009155553;-0.23163548;;;;;137.3
255.0;214.4;;;;;;;;;;;;;;;;;-122.69204;-124.988556;-123.05444;;137.3
255.0;214.4;;;;;;;;;;;;;;1.1450545;-0.016724143;-0.1892758;;;;;137.3
317.0;215.2;;;;;;;;;;;;;;;;;-62.334057;-115.92456;-113.078705;;147.0
317.0;215.2;;;;;;;;;;;;;;1.2223884;-0.03851436;-0.1947081;;;;;147.0
317.0;215.2;;;;;;;;;;;;;;;;;2.166814;-94.58449;-114.66567;;147.0
317.0;215.2;;;;;;;;;;;;;;1.3056428;-0.069887385;-0.22022156;;;;;147.0
317.0;215.2;;;;;;;;;;;;;;;;;3.4981842;-47.471542;-122.04733;;156.7
317.0;215.2;;;;;;;;;;;;;;1.3840144;-0.09503464;-0.250618;;;;;156.7
317.0;215.2;;;;;;;;;;;;;;;;;4.425184;53.029724;-117.16056;;156.7
317.0;215.2;;;;;;;;;;;;;;1.4501175;-0.100283824;-0.30909148;;;;;156.7
317.0;215.2;;;;;;;;;;;;;;;;;12.424848;64.34828;-118.38512;;166.4
317.0;215.2;;;;;;;;;;;;;;1.4827113;-0.09454634;-0.37104404;;;;;166.4
317.0;215.2;;;;;;;;;;;;;;;;;21.370586;67.22846;-119.952995;;166.4
317.0;215.2;;;;;;;;;;;;;;1.5116428;-0.06970428;-0.39155248;;;;;166.4
317.0;274.5;;;;;;;;;;;;;;;;;30.533768;69.15112;-121.738335;;176.1
317.0;274.5;;;;;;;;;;;;;;1.5075533;-0.032593768;-0.42262033;;;;;176.1
317.0;274.5;;;;;;;;;;;;;;;;;38.33888;70.60075;-123.44356;;176.1
317.0;274.5;;;;;;;;;;;;;;1.4814295;0.009765923;-0.42298654;;;;;176.1
317.0;274.5;;;;;;;;;;;;;;;;;44.35865;71.07379;-124.67574;;185.7
317.0;274.5;;;;;;;;;;;;;;1.4754479;0.03790399;-0.41529587;;;;;185.7
317.0;274.5;;;;;;;;;;;;;;;;;50.45091;72.386086;-124.97711;;185.7
317.0;274.5;;;;;;;;;;;;;;1.4551836;0.063844725;-0.40717795;;;;;185.7
317.0;274.5;;;;;;;;;;;;;;;;;55.845055;74.24009;-124.988556;;195.3
317.0;274.5;;;;;;;;;;;;;;1.4153264;0.08868679;-0.39436018;;;;;195.3
317.0;274.5;;;;;;;;;;;;;;;;;58.965576;76.12461;-124.988556;;195.3
317.0;274.5;;;;;;;;;;;;;;1.3265786;0.2849208;-0.35956907;;;;;195.3
378.0;275.1;;;;;;;;;;;;;;;;;57.27561;74.285866;-124.988556;;204.9
378.0;275.1;;;;;;;;;;;;;;1.2344127;0.3521836;-0.29505295;;;;;204.9
378.0;275.1;;;;;;;;;;;;;;;;;55.307167;68.391975;-124.988556;;204.9
378.0;275.1;;;;;;;;;;;;;;1.2042603;0.32862332;-0.26105532;;;;;204.9
378.0;275.1;;;;;;;;;;;;;;;;;54.967648;65.0998;-124.988556;;214.6
378.0;275.1;;;;;;;;;;;;;;1.1763664;0.37305826;-0.23285623;;;;;214.6
378.0;275.1;;;;;;;;;;;;;;;;;53.353985;64.596245;-124.988556;;214.6
378.0;275.1;;;;;;;;;;;;;;1.1238747;0.38642538;-0.19476913;;;;;214.6
378.0;275.1;;;;;;;;;;;;;;;;;50.75991;61.90298;-124.988556;;224.2
378.0;275.1;;;;;;;;;;;;;;1.0994598;0.4413587;-0.1782281;;;;;224.2
378.0;275.1;;;;;;;;;;;;;;;;;47.196877;58.435318;-124.988556;;224.2
378.0;275.1;;;;;;;;;;;;;;1.1075168;0.49507126;-0.1991638;;;;;224.2
378.0;334.7;;;;;;;;;;;;;;;;;42.66488;56.211277;-124.988556;;233.9
378.0;334.7;;;;;;;;;;;;;;1.1187475;0.5401166;-0.22540972;;;;;233.9
378.0;334.7;;;;;;;;;;;;;;;;;37.07236;57.07343;-124.988556;;233.9
378.0;334.7;;;;;;;;;;;;;;1.12302;0.5620899;-0.19806513;;;;;233.9
378.0;334.7;;;;;;;;;;;;;;;;;31.331066;57.287056;-124.988556;;243.5
378.0;334.7;;;;;;;;;;;;;;1.1311991;0.54951626;-0.17011017;;;;;243.5
378.0;334.7;;;;;;;;;;;;;;;;;25.753807;56.882687;-124.988556;;243.5
378.0;334.7;;;;;;;;;;;;;;1.1510972;0.5329142;-0.16394544;;;;;243.5
378.0;334.7;;;;;;;;;;;;;;;;;19.913326;57.149723;-124.988556;;253.0
378.0;334.7;;;;;;;;;;;;;;1.1633046;0.5208289;-0.16272469;;;;;253.0
378.0;334.7;;;;;;;;;;;;;;;;;13.2107;58.90454;-124.988556;;253.0
378.0;334.7;;;;;;;;;;;;;;1.147618;0.5414594;-0.14850307;;;;;253.0
440.0;335.5;;;;;;;;;;;;;;;;;5.4017763;59.369946;-124.988556;;262.7
440.0;335.5;;;;;;;;;;;;;;1.134373;0.57783747;-0.12793359;;;;;262.7
440.0;335.5;;;;;;;;;;;;;;;;;-2.7085178;57.428204;-124.988556;;262.7
440.0;335.5;;;;;;;;;;;;;;1.1396832;0.5966979;-0.13653982;;;;;262.7
440.0;335.5;;;;;;;;;;;;;;;;;-11.700033;57.325207;-124.717705;;272.2
440.0;335.5;;;;;;;;;;;;;;1.1306497;0.57942444;-0.14917448;;;;;272.2
440.0;335.5;;;;;;;;;;;;;;;;;-20.3444;58.339947;-123.249;;272.2
440.0;335.5;;;;;;;;;;;;;;1.1170995;0.5814997;-0.1507004;;;;;272.2
440.0;335.5;;;;;;;;;;;;;;;;;-28.76751;59.396652;-120.17044;;281.8
440.0;335.5;;;;;;;;;;;;;;1.0987884;0.565447;-0.15204321;;;;;281.8
440.0;335.5;;;;;;;;;;;;;;;;;-36.709953;60.384686;-117.85486;;281.8
440.0;335.5;;;;;;;;;;;;;;1.0676595;0.55867183;-0.15741447;;;;;281.8
440.0;395.1;;;;;;;;;;;;;;;;;-45.083466;61.593983;-116.05426;;291.5
440.0;395.1;;;;;;;;;;;;;;1.0312204;0.5406659;-0.15497299;;;;;291.5
440.0;395.1;;;;;;;;;;;;;;;;;-52.85806;61.02939;-114.013336;;291.5
440.0;395.1;;;;;;;;;;;;;;1.0257882;0.5352336;-0.16663106;;;;;291.5
440.0;395.1;;;;;;;;;;;;;;;;;-59.957424;61.81524;-110.91189;;301.1
440.0;395.1;;;;;;;;;;;;;;1.0043641;0.5354167;-0.17920469;;;;;301.1
440.0;395.1;;;;;;;;;;;;;;;;;-65.75594;64.38643;-108.03171;;301.1
440.0;395.1;;;;;;;;;;;;;;0.9584643;0.5100253;-0.17181921;;;;;301.1
440.0;395.1;;;;;;;;;;;;;;;;;-69.67757;65.21424;-105.06378;;310.8
440.0;395.1;;;;;;;;;;;;;;0.92013305;0.5343181;-0.17908262;;;;;310.8
440.0;395.1;;;;;;;;;;;;;;;;;-73.23298;64.92432;-102.06915;;310.8
440.0;395.1;;;;;;;;;;;;;;0.8916288;0.5247963;-0.18182927;;;;;310.8
500.0;395.8;;;;;;;;;;;;;;;;;-74.949646;64.22239;-99.22711;;320.4
500.0;395.8;;;;;;;;;;;;;;0.872219;0.5147252;-0.18512528;;;;;320.4
500.0;395.8;;;;;;;;;;;;;;;;;-75.37691;62.98639;-96.686455;;320.4
500.0;395.8;;;;;;;;;;;;;;0.8608661;0.5050203;-0.18707846;;;;;320.4
500.0;395.8;;;;;;;;;;;;;;;;;-75.579094;62.253944;-94.69131;;330.0
500.0;395.8;;;;;;;;;;;;;;0.85421306;0.5031282;-0.19745475;;;;;330.0
500.0;395.8;;;;;;;;;;;;;;;;;-76.44124;63.46324;-93.26075;;330.0
500.0;395.8;;;;;;;;;;;;;;0.83669543;0.53859067;-0.16260262;;;;;330.0
500.0;395.8;;;;;;;;;;;;;;;;;-78.88653;63.17713;-91.3686;;339.7
500.0;395.8;;;;;;;;;;;;;;0.8176519;0.5081332;-0.18231757;;;;;339.7
500.0;395.8;;;;;;;;;;;;;;;;;-79.474014;62.791832;-90.414894;;339.7
500.0;395.8;;;;;;;;;;;;;;0.80343026;0.4865871;-0.17102572;;;;;339.7
500.0;463.4;;;;;;;;;;;;;;;;;-79.817345;61.79235;-89.54512;;349.3
500.0;463.4;;;;;;;;;;;;;;0.78670615;0.4268929;-0.17059846;;;;;349.3
500.0;463.4;;;;;;;;;;;;;;;;;-78.95138;60.670795;-89.5146;;349.3
500.0;463.4;;;;;;;;;;;;;;0.7768792;0.39173558;-0.16290781;;;;;349.3
500.0;463.4;;;;;;;;;;;;;;;;;-76.87613;59.8735;-89.548935;;359.0
500.0;463.4;;;;;;;;;;;;;;0.7811518;0.34681234;-0.15155491;;;;;359.0
500.0;463.4;;;;;;;;;;;;;;;;;-73.99213;60.04898;-89.70534;;359.0
500.0;463.4;;;;;;;;;;;;;;0.75569934;0.30738243;-0.12469863;;;;;359.0
500.0;463.4;;;;;;;;;;;;;;;;;-71.184425;60.148167;-89.21704;;368.6
500.0;463.4;;;;;;;;;;;;;;0.72817165;0.2987762;-0.09588916;;;;;368.6
500.0;463.4;;;;;;;;;;;;;;;;;-69.43342;58.900726;-87.98486;;368.6
500.0;463.4;;;;;;;;;;;;;;0.72359383;0.3103122;-0.0695822;;;;;368.6
563.0;464.2;;;;;;;;;;;;;;;;;-68.99472;57.912685;-86.63824;;378.2
563.0;464.2;;;;;;;;;;;;;;0.70778525;0.31385234;-0.07000946;;;;;378.2
563.0;464.2;;;;;;;;;;;;;;;;;-69.46013;58.114872;-85.23057;;378.2
563.0;464.2;;;;;;;;;;;;;;0.6866665;0.29450363;-0.055360578;;;;;378.2
563.0;464.2;;;;;;;;;;;;;;;;;-70.429085;56.867428;-83.3346;;387.9
563.0;464.2;;;;;;;;;;;;;;0.6659749;0.29609057;-0.06756798;;;;;387.9
563.0;464.2;;;;;;;;;;;;;;;;;-71.199684;55.68102;-81.987976;;387.9
563.0;464.2;;;;;;;;;;;;;;0.6599933;0.29145175;-0.061281167;;;;;387.9
563.0;464.2;;;;;;;;;;;;;;;;;-69.99802;54.853203;-81.16397;;397.5
563.0;464.2;;;;;;;;;;;;;;0.6353343;0.28437147;-0.027710807;;;;;397.5
563.0;464.2;;;;;;;;;;;;;;;;;-67.876976;51.84332;-80.259865;;397.5
563.0;464.2;;;;;;;;;;;;;;0.6205634;0.300119;-0.017883847;;;;;397.5
563.0;515.9;;;;;;;;;;;;;;;;;-65.061646;48.654137;-79.03912;;407.1
563.0;515.9;;;;;;;;;;;;;;0.6142766;0.31348613;-0.006775109;;;;;407.1
563.0;515.9;;;;;;;;;;;;;;;;;-61.796165;44.930874;-77.509384;;407.1
563.0;515.9;;;;;;;;;;;;;;0.6092105;0.33967102;0.0046998505;;;;;407.1
563.0;515.9;;;;;;;;;;;;;;;;;-58.736687;41.77221;-76.208534;;416.8
563.0;515.9;;;;;;;;;;;;;;0.5987732;0.36872464;0.009765923;;;;;416.8
563.0;515.9;;;;;;;;;;;;;;;;;-55.803093;39.05606;-74.015015;;416.8
563.0;515.9;;;;;;;;;;;;;;0.593524;0.40272224;0.021362957;;;;;416.8
563.0;515.9;;;;;;;;;;;;;;;;;-53.3578;36.717583;-71.62694;;426.5
563.0;515.9;;;;;;;;;;;;;;0.57222205;0.42469558;0.037171546;;;;;426.5
563.0;515.9;;;;;;;;;;;;;;;;;-51.374096;33.978542;-69.07483;;426.5
563.0;515.9;;;;;;;;;;;;;;0.55769527;0.42732018;0.048646506;;;;;426.5
625.0;516.7;;;;;;;;;;;;;;;;;-49.58113;31.74688;-66.40065;;436.2
625.0;516.7;;;;;;;;;;;;;;0.5526902;0.4504532;0.05749687;;;;;436.2
625.0;516.7;;;;;;;;;;;;;;;;;-49.436172;31.094545;-63.65017;;436.2
625.0;516.7;;;;;;;;;;;;;;0.5332194;0.46967986;0.06946013;;;;;436.2
625.0;516.7;;;;;;;;;;;;;;;;;-50.39369;30.396435;-59.621723;;445.9
625.0;516.7;;;;;;;;;;;;;;0.50306714;0.50630206;0.08319346;;;;;445.9
625.0;516.7;;;;;;;;;;;;;;;;;-52.39265;29.000214;-54.68154;;445.9
625.0;516.7;;;;;;;;;;;;;;0.48469496;0.535905;0.09063997;;;;;445.9
625.0;516.7;;;;;;;;;;;;;;;;;-55.34913;27.04703;-49.501022;;455.6
625.0;516.7;;;;;;;;;;;;;;0.46192816;0.53315836;0.09033479;;;;;455.6
625.0;516.7;;;;;;;;;;;;;;;;;-57.538834;25.204473;-45.018616;;455.6
625.0;516.7;;;;;;;;;;;;;;0.44520402;0.5410932;0.090578936;;;;;455.6
625.0;531.2;;;;;;;;;;;;;;;;;-58.679466;24.266031;-40.150913;;465.2
625.0;531.2;;;;;;;;;;;;;;0.39912108;0.55635244;0.112979524;;;;;465.2
625.0;531.2;;;;;;;;;;;;;;;;;-60.04135;21.698662;-35.260323;;465.2
625.0;531.2;;;;;;;;;;;;;;0.39411604;0.5675222;0.12274545;;;;;465.2
625.0;531.2;;;;;;;;;;;;;;;;;-60.213017;19.882809;-30.278175;;474.9
625.0;531.2;;;;;;;;;;;;;;0.37244788;0.5799127;0.12182989;;;;;474.9
625.0;531.2;;;;;;;;;;;;;;;;;-59.659874;18.585773;-25.017548;;474.9
625.0;531.2;;;;;;;;;;;;;;0.3491928;0.56593525;0.1257973;;;;;474.9
625.0;531.2;;;;;;;;;;;;;;;;;-57.6838;17.574846;-20.554216;;484.5
625.0;531.2;;;;;;;;;;;;;;0.32013917;0.5748466;0.14642781;;;;;484.5
625.0;531.2;;;;;;;;;;;;;;;;;-55.234684;15.285958;-16.464737;;484.5
625.0;531.2;;;;;;;;;;;;;;0.3073214;0.57582325;0.14831996;;;;;484.5
680.0;576.1;;;;;;;;;;;;;;;;;-52.404095;13.2793665;-12.703329;;493.9
680.0;576.1;;;;;;;;;;;;;;0.29352704;0.58357495;0.1643727;;;;;493.9
680.0;576.1;;;;;;;;;;;;;;;;;-50.077057;10.914183;-9.063997;;493.9
680.0;576.1;;;;;;;;;;;;;;0.28943753;0.5775933;0.17291787;;;;;493.9
680.0;576.1;;;;;;;;;;;;;;;;;-48.406174;8.716849;-5.752739;;503.6
680.0;576.1;;;;;;;;;;;;;;0.28479874;0.58125556;0.17810602;;;;;503.6
680.0;576.1;;;;;;;;;;;;;;;;;-47.1778;6.698813;-2.666555;;503.6
680.0;576.1;;;;;;;;;;;;;;0.2783288;0.58027893;0.1864681;;;;;503.6
680.0;576.1;;;;;;;;;;;;;;;;;-45.781578;4.6006656;0.42725915;;513.2
680.0;576.1;;;;;;;;;;;;;;0.27423933;0.57747126;0.19196142;;;;;513.2
680.0;576.1;;;;;;;;;;;;;;;;;-43.786434;2.6474807;3.6393323;;513.2
680.0;576.1;;;;;;;;;;;;;;0.27063814;0.56300545;0.20484024;;;;;513.2
680.0;591.0;;;;;;;;;;;;;;;;;-40.69643;0.8354442;6.275368;;522.9
680.0;591.0;;;;;;;;;;;;;;0.27265236;0.54396194;0.21643727;;;;;522.9
680.0;591.0;;;;;;;;;;;;;;;;;-36.278877;-1.045259;8.41548;;522.9
680.0;591.0;;;;;;;;;;;;;;0.27240822;0.52668846;0.23889889;;;;;522.9
680.0;591.0;;;;;;;;;;;;;;;;;-31.147953;-3.276925;10.082552;;532.6
680.0;591.0;;;;;;;;;;;;;;0.2727134;0.51496935;0.2606891;;;;;532.6
680.0;591.0;;;;;;;;;;;;;;;;;-25.688955;-5.84048;11.307108;;532.6
680.0;591.0;;;;;;;;;;;;;;0.268746;0.509415;0.2747276;;;;;532.6
680.0;591.0;;;;;;;;;;;;;;;;;-20.252846;-9.01059;12.127293;;542.0
680.0;591.0;;;;;;;;;;;;;;0.26154363;0.5198523;0.26935637;;;;;542.0
680.0;591.0;;;;;;;;;;;;;;;;;-15.179143;-12.436293;12.905515;;542.0
680.0;591.0;;;;;;;;;;;;;;0.26013976;0.54072696;0.24921414;;;;;542.0
738.0;636.3;;;;;;;;;;;;;;;;;-10.158849;-16.289255;13.431959;;551.5
738.0;636.3;;;;;;;;;;;;;;0.26508376;0.57545704;0.23853268;;;;;551.5
738.0;636.3;;;;;;;;;;;;;;;;;-5.142369;-20.390179;13.91644;;551.5
738.0;636.3;;;;;;;;;;;;;;0.27674183;0.6029847;0.22742394;;;;;551.5
738.0;636.3;;;;;;;;;;;;;;;;;-0.3662221;-23.892178;14.469588;;561.1
738.0;636.3;;;;;;;;;;;;;;0.30524614;0.63618886;0.21356852;;;;;561.1
738.0;636.3;;;;;;;;;;;;;;;;;3.8148136;-26.3184;14.950255;;561.1
738.0;636.3;;;;;;;;;;;;;;0.32953885;0.6771447;0.21546067;;;;;561.1
738.0;636.3;;;;;;;;;;;;;;;;;6.977294;-28.607288;15.522477;;570.7
738.0;636.3;;;;;;;;;;;;;;0.36548966;0.70241404;0.2042909;;;;;570.7
738.0;636.3;;;;;;;;;;;;;;;;;9.304331;-29.423658;16.21296;;570.7
738.0;636.3;;;;;;;;;;;;;;0.39606923;0.73934144;0.20966215;;;;;570.7
738.0;651.3;;;;;;;;;;;;;;;;;10.093997;-30.037842;17.143772;;580.4
738.0;651.3;;;;;;;;;;;;;;0.4194464;0.7677236;0.20319223;;;;;580.4
738.0;651.3;;;;;;;;;;;;;;;;;9.235664;-30.648212;18.219551;;580.4
738.0;651.3;;;;;;;;;;;;;;0.44080934;0.7837153;0.20844142;;;;;580.4
738.0;651.3;;;;;;;;;;;;;;;;;7.1108127;-30.945768;19.760735;;590.1
738.0;651.3;;;;;;;;;;;;;;0.46766564;0.8097171;0.2240669;;;;;590.1
738.0;651.3;;;;;;;;;;;;;;;;;4.337443;-31.025879;21.660513;;590.1
738.0;651.3;;;;;;;;;;;;;;0.49684134;0.83675647;0.23438215;;;;;590.1
738.0;651.3;;;;;;;;;;;;;;;;;1.8730735;-30.434584;23.97992;;599.7
738.0;651.3;;;;;;;;;;;;;;0.52192754;0.8512223;0.22400586;;;;;599.7
738.0;651.3;;;;;;;;;;;;;;;;;0.22507401;-29.301584;26.375622;;599.7
738.0;651.3;;;;;;;;;;;;;;0.51619005;0.8579363;0.20612201;;;;;599.7
801.0;696.9;;;;;;;;;;;;;;;;;-0.84307384;-29.8204;28.622547;;609.3
801.0;696.9;;;;;;;;;;;;;;0.5121616;0.8577532;0.18720053;;;;;609.3
801.0;696.9;;;;;;;;;;;;;;;;;-1.2207403;-31.697289;30.629139;;609.3
801.0;696.9;;;;;;;;;;;;;;0.5190588;0.83657336;0.16907254;;;;;609.3
801.0;696.9;;;;;;;;;;;;;;;;;-0.40818506;-33.917507;32.25425;;618.9
801.0;696.9;;;;;;;;;;;;;;0.51405376;0.8035523;0.17194128;;;;;618.9
801.0;696.9;;;;;;;;;;;;;;;;;1.1940367;-37.850582;33.72677;;618.9
801.0;696.9;;;;;;;;;;;;;;0.5246132;0.76546526;0.18323313;;;;;618.9
801.0;696.9;;;;;;;;;;;;;;;;;3.4752953;-41.76458;35.428173;;628.6
801.0;696.9;;;;;;;;;;;;;;0.5694754;0.7270119;0.17853329;;;;;628.6
801.0;696.9;;;;;;;;;;;;;;;;;5.11948;-42.676323;37.320324;;628.6
801.0;696.9;;;;;;;;;;;;;;0.5982238;0.67683953;0.19641712;;;;;628.6
801.0;704.0;;;;;;;;;;;;;;;;;5.3636284;-42.321545;39.883877;;638.2
801.0;704.0;;;;;;;;;;;;;;0.6321604;0.633198;0.23035371;;;;;638.2
801.0;704.0;;;;;;;;;;;;;;;;;3.807184;-40.85284;43.523212;;638.2
801.0;704.0;;;;;;;;;;;;;;0.677633;0.57899714;0.2446974;;;;;638.2
801.0;704.0;;;;;;;;;;;;;;;;;1.8082217;-37.606434;47.753838;;647.9
801.0;704.0;;;;;;;;;;;;;;0.68532366;0.5364544;0.24750511;;;;;647.9
801.0;704.0;;;;;;;;;;;;;;;;;-0.43870357;-36.3361;52.285835;;647.9
801.0;704.0;;;;;;;;;;;;;;0.6868496;0.50935394;0.2372509;;;;;647.9
801.0;704.0;;;;;;;;;;;;;;;;;-2.338481;-36.957916;56.8865;;657.5
801.0;704.0;;;;;;;;;;;;;;0.70101017;0.48384044;0.22693564;;;;;657.5
801.0;704.0;;;;;;;;;;;;;;;;;-2.6551104;-38.674583;61.80761;;657.5
801.0;704.0;;;;;;;;;;;;;;0.70363474;0.456679;0.22125919;;;;;657.5
859.0;756.9;;;;;;;;;;;;;;;;;-2.9259622;-41.287727;67.23609;;667.1
859.0;756.9;;;;;;;;;;;;;;0.72219;0.42646566;0.21271402;;;;;667.1
859.0;756.9;;;;;;;;;;;;;;;;;-3.7537766;-42.455063;73.221535;;667.1
859.0;756.9;;;;;;;;;;;;;;0.7268288;0.3787347;0.22547075;;;;;667.1
859.0;756.9;;;;;;;;;;;;;;;;;-4.139073;-43.72158;79.744865;;676.8
859.0;756.9;;;;;;;;;;;;;;0.7373272;0.3137913;0.2560503;;;;;676.8
859.0;756.9;;;;;;;;;;;;;;;;;-2.3651845;-44.846947;85.69216;;676.8
859.0;756.9;;;;;;;;;;;;;;0.7449568;0.24530777;0.34009826;;;;;676.8
859.0;756.9;;;;;;;;;;;;;;;;;3.0899992;-47.753838;90.96805;;686.5
859.0;756.9;;;;;;;;;;;;;;0.76808983;0.18256173;0.4575335;;;;;686.5
859.0;756.9;;;;;;;;;;;;;;;;;14.908293;-52.587208;95.107124;;686.5
859.0;756.9;;;;;;;;;;;;;;0.80599385;0.1871395;0.5002594;;;;;686.5
859.0;764.4;;;;;;;;;;;;;;;;;38.38847;-53.96817;96.186714;;696.2
859.0;764.4;;;;;;;;;;;;;;0.9050569;0.32563248;0.70509964;;;;;696.2
859.0;764.4;;;;;;;;;;;;;;;;;72.48909;-53.86517;91.39912;;696.2
859.0;764.4;;;;;;;;;;;;;;1.0328074;0.6140934;0.7032075;;;;;696.2
859.0;764.4;;;;;;;;;;;;;;;;;106.86438;-50.0618;74.972534;;705.8
859.0;764.4;;;;;;;;;;;;;;1.1850337;1.0713217;0.646321;;;;;705.8
859.0;764.4;;;;;;;;;;;;;;;;;124.17219;-57.65328;51.36265;;705.8
859.0;764.4;;;;;;;;;;;;;;1.4239327;1.5701163;0.35389262;;;;;705.8
859.0;764.4;;;;;;;;;;;;;;;;;124.988556;-75.36546;31.060213;;715.4
859.0;764.4;;;;;;;;;;;;;;1.6136967;1.943968;-0.40455335;;;;;715.4
859.0;764.4;;;;;;;;;;;;;;;;;123.95856;-105.49104;21.549883;;715.4
859.0;764.4;;;;;;;;;;;;;;1.7815485;1.7568285;-1.314249;;;;;715.4
922.0;817.5;;;;;;;;;;;;;;;;;83.223976;-117.83197;26.505325;;725.0
922.0;817.5;;;;;;;;;;;;;;1.9970092;1.4139225;-1.2988067;;;;;725.0
922.0;817.5;;;;;;;;;;;;;;;;;-1.3771478;-77.68487;43.08832;;725.0
922.0;817.5;;;;;;;;;;;;;;1.9970092;1.3132725;-0.62678915;;;;;725.0
922.0;817.5;;;;;;;;;;;;;;;;;-28.67977;-30.770287;47.750023;;734.7
922.0;817.5;;;;;;;;;;;;;;1.9970092;1.3745537;-0.34949797;;;;;734.7
922.0;817.5;;;;;;;;;;;;;;;;;-22.400585;-20.847958;42.363506;;734.7
922.0;817.5;;;;;;;;;;;;;;1.9462874;1.1868649;-0.3211768;;;;;734.7
922.0;817.5;;;;;;;;;;;;;;;;;-29.98062;-6.538591;41.27247;;744.4
922.0;817.5;;;;;;;;;;;;;;1.6198004;0.7866451;0.0016479995;;;;;744.4
922.0;817.5;;;;;;;;;;;;;;;;;-37.27073;10.597552;38.922546;;744.4
922.0;817.5;;;;;;;;;;;;;;1.0912198;0.4776757;0.3795282;;;;;744.4
922.0;824.6;;;;;;;;;;;;;;;;;-34.928432;-1.6022217;36.790062;;754.1
922.0;824.6;;;;;;;;;;;;;;0.6593219;0.2971282;0.30060732;;;;;754.1
922.0;824.6;;;;;;;;;;;;;;;;;-21.645254;-23.583178;36.29795;;754.1
922.0;824.6;;;;;;;;;;;;;;0.4314707;0.23712882;0.094363235;;;;;754.1
922.0;824.6;;;;;;;;;;;;;;;;;-6.9277015;-34.985657;38.377026;;763.8
922.0;824.6;;;;;;;;;;;;;;0.3471175;0.15210426;0.063417464;;;;;763.8
922.0;824.6;;;;;;;;;;;;;;;;;7.530442;-32.200844;41.238136;;763.8
922.0;824.6;;;;;;;;;;;;;;0.1866512;0.046571247;-0.012512589;;;;;763.8
922.0;824.6;;;;;;;;;;;;;;;;;27.653584;-30.957212;40.444653;;773.4
922.0;824.6;;;;;;;;;;;;;;-0.03997925;-0.019287698;-0.022888882;;;;;773.4
922.0;824.6;;;;;;;;;;;;;;;;;42.405468;-45.628986;39.605392;;773.4
922.0;824.6;;;;;;;;;;;;;;-0.059144873;-0.039246805;0.037415694;;;;;773.4
980.0;877.5;;;;;;;;;;;;;;;;;51.469467;-60.338905;41.180912;;783.0
980.0;877.5;;;;;;;;;;;;;;0.12768945;-0.035767693;-0.0014648885;;;;;783.0
980.0;877.5;;;;;;;;;;;;;;;;;63.146614;-59.29365;41.821804;;783.0
980.0;877.5;;;;;;;;;;;;;;0.19574572;-0.010803552;-0.026062807;;;;;783.0
980.0;877.5;;;;;;;;;;;;;;;;;77.21946;-58.439133;42.45125;;792.7
980.0;877.5;;;;;;;;;;;;;;0.2301706;0.05487228;-0.026734214;;;;;792.7
980.0;877.5;;;;;;;;;;;;;;;;;89.2819;-62.3455;44.614243;;792.7
980.0;877.5;;;;;;;;;;;;;;0.35639516;0.106753744;-0.08911405;;;;;792.7
980.0;877.5;;;;;;;;;;;;;;;;;96.70934;-60.518204;47.364727;;802.4
980.0;877.5;;;;;;;;;;;;;;0.47956786;0.1429487;-0.12756737;;;;;802.4
980.0;877.5;;;;;;;;;;;;;;;;;100.09308;-56.89413;50.76754;;802.4
980.0;877.5;;;;;;;;;;;;;;0.6023133;0.17468795;-0.13287759;;;;;802.4
980.0;885.0;;;;;;;;;;;;;;;;;104.911194;-56.585133;54.10169;;812.0
980.0;885.0;;;;;;;;;;;;;;0.7163915;0.25238806;-0.21594897;;;;;812.0
980.0;885.0;;;;;;;;;;;;;;;;;107.59301;-58.393353;57.51976;;812.0
980.0;885.0;;;;;;;;;;;;;;0.83095795;0.37580493;-0.3312479;;;;;812.0
980.0;885.0;;;;;;;;;;;;;;;;;104.26649;-59.770504;61.29261;;821.7
980.0;885.0;;;;;;;;;;;;;;0.939848;0.49122593;-0.38673055;;;;;821.7
980.0;885.0;;;;;;;;;;;;;;;;;97.78894;-59.58739;65.13032;;821.7
980.0;885.0;;;;;;;;;;;;;;1.0356151;0.57911927;-0.40253913;;;;;821.7
980.0;885.0;;;;;;;;;;;;;;;;;91.05197;-57.966095;67.27806;;831.4
980.0;885.0;;;;;;;;;;;;;;1.1089206;0.65993226;-0.46241647;;;;;831.4
980.0;885.0;;;;;;;;;;;;;;;;;84.45616;-53.331097;67.54128;;831.4
980.0;885.0;;;;;;;;;;;;;;1.1155736;0.73378706;-0.5192419;;;;;831.4
1042.0;938.0;;;;;;;;;;;;;;;;;75.51424;-50.59587;66.053505;;841.0
1042.0;938.0;;;;;;;;;;;;;;1.1494491;0.7714469;-0.51039153;;;;;841.0
1042.0;938.0;;;;;;;;;;;;;;;;;65.35539;-50.077057;63.432724;;841.0
1042.0;938.0;;;;;;;;;;;;;;1.2254403;0.7694937;-0.5114902;;;;;841.0
1042.0;938.0;;;;;;;;;;;;;;;;;56.237984;-48.329876;59.297466;;850.6
1042.0;938.0;;;;;;;;;;;;;;1.297586;0.7245094;-0.5609302;;;;;850.6
1042.0;938.0;;;;;;;;;;;;;;;;;48.684654;-43.073063;54.235207;;850.6
1042.0;938.0;;;;;;;;;;;;;;1.3202918;0.6388745;-0.56971955;;;;;850.6
1042.0;938.0;;;;;;;;;;;;;;;;;42.298656;-38.605915;49.3408;;860.3
1042.0;938.0;;;;;;;;;;;;;;1.3220007;0.5540941;-0.55964845;;;;;860.3
1042.0;938.0;;;;;;;;;;;;;;;;;37.869656;-34.272285;45.583206;;860.3
1042.0;938.0;;;;;;;;;;;;;;1.2910551;0.4723655;-0.5379192;;;;;860.3
1042.0;939.1;;;;;;;;;;;;;;;;;36.397137;-28.710287;42.15369;;870.0
1042.0;939.1;;;;;;;;;;;;;;1.1942503;0.40284434;-0.509476;;;;;870.0
1042.0;939.1;;;;;;;;;;;;;;;;;36.664173;-24.456772;39.025543;;870.0
1042.0;939.1;;;;;;;;;;;;;;1.0729698;0.33582568;-0.4611957;;;;;870.0
1042.0;939.1;;;;;;;;;;;;;;;;;38.239693;-21.83981;36.53447;;879.6
1042.0;939.1;;;;;;;;;;;;;;0.9462569;0.27375102;-0.41126743;;;;;879.6
1042.0;939.1;;;;;;;;;;;;;;;;;40.7651;-21.023438;34.718616;;879.6
1042.0;939.1;;;;;;;;;;;;;;0.85842466;0.24341564;-0.35578477;;;;;879.6
1042.0;939.1;;;;;;;;;;;;;;;;;43.84747;-20.577105;34.03958;;889.3
1042.0;939.1;;;;;;;;;;;;;;0.79549545;0.23383282;-0.30561236;;;;;889.3
1042.0;939.1;;;;;;;;;;;;;;;;;47.79199;-19.932402;33.745842;;889.3
1042.0;939.1;;;;;;;;;;;;;;0.73952454;0.23712882;-0.26062807;;;;;889.3
1099.0;998.3;;;;;;;;;;;;;;;;;51.644947;-20.439772;34.18073;;898.9
1099.0;998.3;;;;;;;;;;;;;;0.7102268;0.2791223;-0.24579607;;;;;898.9
1099.0;998.3;;;;;;;;;;;;;;;;;54.74639;-21.496475;34.970394;;898.9
1099.0;998.3;;;;;;;;;;;;;;0.7157811;0.30854213;-0.25452438;;;;;898.9
1099.0;998.3;;;;;;;;;;;;;;;;;57.546463;-21.572771;35.13062;;908.5
1099.0;998.3;;;;;;;;;;;;;;0.71480453;0.3185522;-0.25928527;;;;;908.5
1099.0;998.3;;;;;;;;;;;;;;;;;59.80865;-22.488325;35.370953;;908.5
1099.0;998.3;;;;;;;;;;;;;;0.73250526;0.35029146;-0.27375102;;;;;908.5
1099.0;998.3;;;;;;;;;;;;;;;;;60.544907;-23.003326;36.126286;;918.2
1099.0;998.3;;;;;;;;;;;;;;0.7569201;0.37434003;-0.28070924;;;;;918.2
1099.0;998.3;;;;;;;;;;;;;;;;;60.2092;-23.106327;37.289803;;918.2
1099.0;998.3;;;;;;;;;;;;;;0.784814;0.40003663;-0.28858304;;;;;918.2
1099.0;999.0;;;;;;;;;;;;;;;;;58.790096;-23.24366;38.716545;;927.9
1099.0;999.0;;;;;;;;;;;;;;0.8240608;0.42231512;-0.29706717;;;;;927.9
1099.0;999.0;;;;;;;;;;;;;;;;;56.787315;-22.94229;40.665913;;927.9
1099.0;999.0;;;;;;;;;;;;;;0.85616624;0.4252449;-0.31513414;;;;;927.9
1099.0;999.0;;;;;;;;;;;;;;;;;54.898983;-21.652884;42.523727;;937.5
1099.0;999.0;;;;;;;;;;;;;;0.865627;0.43647572;-0.33515427;;;;;937.5
1099.0;999.0;;;;;;;;;;;;;;;;;52.957245;-21.790216;44.835503;;937.5
1099.0;999.0;;;;;;;;;;;;;;0.88778347;0.44032106;-0.34418774;;;;;937.5
1099.0;999.0;;;;;;;;;;;;;;;;;50.660725;-22.160252;46.800133;;947.1
1099.0;999.0;;;;;;;;;;;;;;0.9234901;0.43897825;-0.35737175;;;;;947.1
1099.0;999.0;;;;;;;;;;;;;;;;;48.421432;-21.107365;48.95932;;947.1
1099.0;999.0;;;;;;;;;;;;;;0.9492477;0.4494766;-0.36335337;;;;;947.1
1160.0;1059.0;;;;;;;;;;;;;;;;;45.960876;-19.505142;51.103245;;956.7
1160.0;1059.0;;;;;;;;;;;;;;0.962859;0.46375927;-0.3715934;;;;;956.7
1160.0;1059.0;;;;;;;;;;;;;;;;;43.523212;-18.52092;53.006836;;956.7
1160.0;1059.0;;;;;;;;;;;;;;0.9732963;0.45893735;-0.35834834;;;;;956.7
1160.0;1059.0;;;;;;;;;;;;;;;;;41.001617;-18.09366;54.52132;;966.4
1160.0;1059.0;;;;;;;;;;;;;;0.9797052;0.45619068;-0.36707664;;;;;966.4
1160.0;1059.0;;;;;;;;;;;;;;;;;38.37321;-16.80807;55.993835;;966.4
1160.0;1059.0;;;;;;;;;;;;;;0.9740898;0.44099247;-0.3634144;;;;;966.4
1160.0;1059.0;;;;;;;;;;;;;;;;;35.91647;-16.254921;57.65328;;976.1
1160.0;1059.0;;;;;;;;;;;;;;0.9719535;0.45008698;-0.361095;;;;;976.1
1160.0;1059.0;;;;;;;;;;;;;;;;;33.360546;-15.465255;58.98465;;976.1
1160.0;1059.0;;;;;;;;;;;;;;0.9565722;0.43134862;-0.35883662;;;;;976.1
1160.0;1060.1;;;;;;;;;;;;;;;;;31.46077;-14.641255;60.11383;;985.8
1160.0;1060.1;;;;;;;;;;;;;;0.9394818;0.3975341;-0.3541368;;;;;985.8
1160.0;1060.1;;;;;;;;;;;;;;;;;30.060732;-14.007996;60.91876;;985.8
1160.0;1060.1;;;;;;;;;;;;;;0.92373425;0.37391278;-0.35212258;;;;;985.8
1160.0;1060.1;;;;;;;;;;;;;;;;;28.603474;-13.172552;61.746574;;995.5
1160.0;1060.1;;;;;;;;;;;;;;0.9053011;0.32111576;-0.35987428;;;;;995.5
1160.0;1060.1;;;;;;;;;;;;;;;;;28.420362;-11.646626;62.387463;;995.5
1160.0;1060.1;;;;;;;;;;;;;;0.8717917;0.3157445;-0.34479812;;;;;995.5
1160.0;1060.1;;;;;;;;;;;;;;;;;27.748955;-11.734367;63.230537;;1005.2
1160.0;1060.1;;;;;;;;;;;;;;0.8504898;0.3010956;-0.33826715;;;;;1005.2
1160.0;1060.1;;;;;;;;;;;;;;;;;27.562029;-12.070071;63.818016;;1005.2
1160.0;1060.1;;;;;;;;;;;;;;0.8385876;0.26746422;-0.33631396;;;;;1005.2
1165.0;1118.9;;;;;;;;;;;;;;;;;28.572954;-12.359997;64.05072;;1014.8
1165.0;1118.9;;;;;;;;;;;;;;0.81728566;0.23261207;-0.33204138;;;;;1014.8
1165.0;1118.9;;;;;;;;;;;;;;;;;30.297249;-13.142034;64.16898;;1014.8
1165.0;1118.9;;;;;;;;;;;;;;0.7912229;0.2196112;-0.3335063;;;;;1014.8
1165.0;1118.9;;;;;;;;;;;;;;;;;32.395397;-14.702292;64.16517;;1024.4
1165.0;1118.9;;;;;;;;;;;;;;0.78255564;0.19263284;-0.33448288;;;;;1024.4
1165.0;1118.9;;;;;;;;;;;;;;;;;34.77584;-15.602588;63.9935;;1024.4
1165.0;1118.9;;;;;;;;;;;;;;0.7889645;0.15344706;-0.3463851;;;;;1024.4
1165.0;1118.9;;;;;;;;;;;;;;;;;37.511063;-14.2941065;63.196205;;1034.1
1165.0;1118.9;;;;;;;;;;;;;;0.7723014;0.14996795;-0.34846035;;;;;1034.1
1165.0;1118.9;;;;;;;;;;;;;;;;;39.101837;-13.832514;63.02072;;1034.1
1165.0;1118.9;;;;;;;;;;;;;;0.76186407;0.15808588;-0.35865352;;;;;1034.1
1165.0;1119.7;;;;;;;;;;;;;;;;;40.93295;-13.573108;62.208168;;1043.7
1165.0;1119.7;;;;;;;;;;;;;;0.7646718;0.1472213;-0.3335063;;;;;1043.7
1165.0;1119.7;;;;;;;;;;;;;;;;;41.43269;-14.877774;62.20054;;1043.7
1165.0;1119.7;;;;;;;;;;;;;;0.79500717;0.15643787;-0.32862332;;;;;1043.7
1165.0;1119.7;;;;;;;;;;;;;;;;;41.768394;-13.485367;62.81472;;1053.3
1165.0;1119.7;;;;;;;;;;;;;;0.786462;0.16583759;-0.34211248;;;;;1053.3
1165.0;1119.7;;;;;;;;;;;;;;;;;42.657246;-13.611256;62.944427;;1053.3
1165.0;1119.7;;;;;;;;;;;;;;0.7960448;0.14264351;-0.34333324;;;;;1053.3
1165.0;1119.7;;;;;;;;;;;;;;;;;44.47691;-13.973662;62.46376;;1063.0
1165.0;1119.7;;;;;;;;;;;;;;0.8002564;0.1271401;-0.3584704;;;;;1063.0
1165.0;1119.7;;;;;;;;;;;;;;;;;46.1478;-12.897885;61.49861;;1063.0
1165.0;1119.7;;;;;;;;;;;;;;0.7751091;0.11120945;-0.3388165;;;;;1063.0
1220.0;1128.6;;;;0.0;0.0;0.0;;;;;;;;;;;;;;;
1220.0;1128.6;;;;-0.13541032;0.009357453;-0.047821052;;;;;;;;;;;;;;;
1220.0;1128.6;;;;-0.6443024;-0.098922744;-0.390297;;;;;;;;;;;;;;;
1220.0;1128.6;;;;-0.71353155;-0.12092592;-0.4473458;;;;;;;;;;;;;;;
1220.0;1128.6;;;;-0.71440893;-0.12075807;-0.4445458;;;;;;;;;;;;;;;
1220.0;1138.7;;;;-0.7137185;-0.12010957;-0.44025046;;;;;;;;;;;;;;;
1220.0;1138.7;;;;-0.7121735;-0.12016298;-0.43741232;;;;;;;;;;;;;;;
1220.0;1138.7;;;;-0.7104073;-0.12005235;-0.43453223;;;;;;;;;;;;;;;
1220.0;1138.7;;;;-0.7086106;-0.12034227;-0.43268973;;;;;;;;;;;;;;;
1220.0;1138.7;;;;-0.70581824;-0.120388046;-0.43159872;;;;;;;;;;;;;;;
1220.0;1140.0;57481;57483;13141;;;;;;;;;;;;;;;;;;
1220.0;1148.7;;;;-0.70324713;-0.12090303;-0.43105704;;;;;;;;;;;;;;;
1220.0;1148.7;;;;-0.7011185;-0.121353164;-0.43093497;;;;;;;;;;;;;;;
1220.0;1148.7;;;;-0.69925696;-0.122783676;-0.43089682;;;;;;;;;;;;;;;
1220.0;1148.7;;;;-0.69788367;-0.12388612;-0.43109518;;;;;;;;;;;;;;;
1220.0;1148.7;;;;-0.69650275;-0.1247101;-0.4310494;;;;;;;;;;;;;;;
1222.0;1158.8;;;;-0.6955529;-0.124992386;-0.4307862;;;;;;;;;;;;;;;
1222.0;1158.8;;;;-0.69499594;-0.12562563;-0.4293061;;;;;;;;;;;;;;;
1222.0;1158.8;;;;-0.69074637;-0.1247368;-0.42799765;;;;;;;;;;;;;;;
1222.0;1158.8;;;;-0.6884995;-0.12482835;-0.4272309;;;;;;;;;;;;;;;
1222.0;1158.8;;;;-0.6896134;-0.1269684;-0.42826468;;;;;;;;;;;;;;;
1222.0;1160.2;73879;73831;13111;;;;;;;;;;;;;;;;;;
1222.0;1166.6;;;;;;;;;;;;;0;;;;;;;;
1222.0;1166.6;;;;;;;;;;;;;0;;;;;;;;
1222.0;1166.6;;;;;;;;;;;;;-1;;;;;;;;
1222.0;1166.6;;;;;;;;;;;;;-2;;;;;;;;
1222.0;1166.6;;;;;;;;;;;;;-3;;;;;;;;
1222.0;1168.9;;;;-0.68806463;-0.12849046;-0.42986304;;;;;;;;;;;;;;;
1222.0;1168.9;;;;-0.683075;-0.12805559;-0.4297219;;;;;;;;;;;;;;;
1222.0;1168.9;;;;-0.67734534;-0.12482835;-0.43065268;;;;;;;;;;;;;;;
1222.0;1168.9;;;;-0.67771536;-0.12371446;-0.43274313;;;;;;;;;;;;;;;
1222.0;1168.9;;;;-0.68277365;-0.12526323;-0.43408972;;;;;;;;;;;;;;;
1222.0;1179.0;;;;-0.68410116;-0.12723543;-0.43417364;;;;;;;;;;;;;;;
1222.0;1179.0;;;;-0.67872626;-0.12749101;-0.43366247;;;;;;;;;;;;;;;
1222.0;1179.0;;;;-0.6739693;-0.12588502;-0.43379217;;;;;;;;;;;;;;;
1222.0;1179.0;;;;-0.67483145;-0.1258545;-0.43492132;;;;;;;;;;;;;;;
1222.0;1179.0;;;;-0.6795388;-0.12681963;-0.43614584;;;;;;;;;;;;;;;
1223.0;1179.5;;;;;;;;;;;;;;;;;47.22358;-13.752403;60.22446;;1072.6
1223.0;1179.5;;;;;;;;;;;;;;0.7713248;0.13196203;-0.3274636;;;;;1072.6
1223.0;1179.5;;;;;;;;;;;;;;;;;46.60558;-14.221625;59.217354;;1072.6
1223.0;1179.5;;;;;;;;;;;;;;0.7780999;0.16766869;-0.3350322;;;;;1072.6
1223.0;1179.5;;;;;;;;;;;;;;;;;44.888912;-13.462478;57.889797;;1082.2
1223.0;1179.5;;;;;;;;;;;;;;0.8001343;0.16083254;-0.34119692;;;;;1082.2
1223.0;1179.5;;;;;;;;;;;;;;;;;43.385876;-11.604663;56.585133;;1082.2
1223.0;1179.5;;;;;;;;;;;;;;0.80269784;0.15668203;-0.3569445;;;;;1082.2
1223.0;1179.5;;;;;;;;;;;;;;;;;43.042545;-10.399182;54.860832;;1091.8
1223.0;1179.5;;;;;;;;;;;;;;0.7951903;0.17102572;-0.3370464;;;;;1091.8
1223.0;1179.5;;;;;;;;;;;;;;;;;42.66106;-10.86459;53.26243;;1091.8
1223.0;1179.5;;;;;;;;;;;;;;0.7940306;0.19910276;-0.3353984;;;;;1091.8
1223.0;1180.1;;;;;;;;;;;;;;;;;41.15421;-10.505997;51.4275;;1101.5
1223.0;1180.1;;;;;;;;;;;;;;0.79354227;0.20715964;-0.31006807;;;;;1101.5
1223.0;1180.1;;;;;;;;;;;;;;;;;38.613544;-10.078737;49.863426;;1101.5
1223.0;1180.1;;;;;;;;;;;;;;0.78884244;0.22638631;-0.303354;;;;;1101.5
1223.0;1180.1;;;;;;;;;;;;;;;;;35.222176;-9.846034;48.50154;;1111.2
1223.0;1180.1;;;;;;;;;;;;;;0.7851802;0.24304941;-0.30530718;;;;;1111.2
1223.0;1180.1;;;;;;;;;;;;;;;;;31.285286;-9.300516;47.742393;;1111.2
1223.0;1180.1;;;;;;;;;;;;;;0.7838374;0.27875605;-0.3051851;;;;;1111.2
1223.0;1180.1;;;;;;;;;;;;;;;;;27.653584;-9.186071;47.372356;;1120.8
1223.0;1180.1;;;;;;;;;;;;;;0.7885983;0.27637562;-0.32654804;;;;;1120.8
1223.0;1180.1;;;;;;;;;;;;;;;;;24.246956;-8.751183;46.380505;;1120.8
1223.0;1180.1;;;;;;;;;;;;;;0.7851802;0.25568408;-0.32160404;;;;;1120.8
1278.0;1180.2;90289;90188;13120;;;;;;;;;;;;;;;;;;
1278.0;1188.9;;;;-0.68152624;-0.12710573;-0.43646628;;;;;;;;;;;;;;;
1278.0;1188.9;;;;-0.6786805;-0.12569048;-0.43642431;;;;;;;;;;;;;;;
1278.0;1188.9;;;;-0.6770974;-0.12371065;-0.43793875;;;;;;;;;;;;;;;
1278.0;1188.9;;;;-0.67935187;-0.123813644;-0.43842703;;;;;;;;;;;;;;;
1278.0;1188.9;;;;-0.6823159;-0.12342836;-0.43923575;;;;;;;;;;;;;;;
1278.0;1198.9;;;;-0.68469626;-0.12232591;-0.43967825;;;;;;;;;;;;;;;
1278.0;1198.9;;;;-0.68791205;-0.12203981;-0.4409142;;;;;;;;;;;;;;;
1278.0;1198.9;;;;-0.6921616;-0.123024;-0.44338995;;;;;;;;;;;;;;;
1278.0;1198.9;;;;-0.6968842;-0.12397005;-0.4446755;;;;;;;;;;;;;;;
1278.0;1198.9;;;;-0.70119864;-0.12555315;-0.44523245;;;;;;;;;;;;;;;
1278.0;1200.4;106720;106611;13118;;;;;;;;;;;;;;;;;;
1278.0;1206.7;;;;;;;;;;;;;-7;;;;;;;;
1278.0;1206.7;;;;;;;;;;;;;-6;;;;;;;;
1278.0;1206.7;;;;;;;;;;;;;-7;;;;;;;;
1278.0;1206.7;;;;;;;;;;;;;-20;;;;;;;;
1278.0;1206.7;;;;;;;;;;;;;-10;;;;;;;;
1278.0;1208.9;;;;-0.7044068;-0.12657167;-0.44652182;;;;;;;;;;;;;;;
1278.0;1208.9;;;;-0.706543;-0.12788393;-0.4485131;;;;;;;;;;;;;;;
1278.0;1208.9;;;;-0.71002203;-0.12866594;-0.45046622;;;;;;;;;;;;;;;
1278.0;1208.9;;;;-0.71488196;-0.12995149;-0.45216757;;;;;;;;;;;;;;;
1278.0;1208.9;;;;-0.71967703;-0.13026811;-0.45177847;;;;;;;;;;;;;;;
1281.0;1219.0;;;;-0.7214051;-0.12863542;-0.45112997;;;;;;;;;;;;;;;
1281.0;1219.0;;;;-0.72092825;-0.12622453;-0.4499207;;;;;;;;;;;;;;;
1281.0;1219.0;;;;-0.7205315;-0.12528612;-0.44868094;;;;;;;;;;;;;;;
1281.0;1219.0;;;;-0.72032934;-0.12311174;-0.44674307;;;;;;;;;;;;;;;
1281.0;1219.0;;;;-0.7224236;-0.12196733;-0.4435578;;;;;;;;;;;;;;;
1281.0;1220.6;123160;123076;13103;;;;;;;;;;;;;;;;;;
1281.0;1229.2;;;;-0.72510535;-0.11968614;-0.44055182;;;;;;;;;;;;;;;
1281.0;1229.2;;;;-0.7288056;-0.11668779;-0.43672186;;;;;;;;;;;;;;;
1281.0;1229.2;;;;-0.7345429;-0.11592485;-0.43189245;;;;;;;;;;;;;;;
1281.0;1229.2;;;;-0.73720556;-0.11393358;-0.4266358;;;;;;;;;;;;;;;
1281.0;1229.2;;;;-0.7380257;-0.112728134;-0.42120367;;;;;;;;;;;;;;;
1281.0;1239.3;;;;-0.742569;-0.11302568;-0.4161263;;;;;;;;;;;;;;;
1281.0;1239.3;;;;-0.751053;-0.11307146;-0.4118958;;;;;;;;;;;;;;;
1281.0;1239.3;;;;-0.75933087;-0.113208786;-0.40839773;;;;;;;;;;;;;;;
1281.0;1239.3;;;;-0.7640344;-0.11249162;-0.40685278;;;;;;;;;;;;;;;
1281.0;1239.3;;;;-0.7702142;-0.1116295;-0.4065171;;;;;;;;;;;;;;;
1284.0;1240.3;;;;;;;;;;;;;;;;;21.675772;-8.41548;44.61806;;1130.5
1284.0;1240.3;;;;;;;;;;;;;;0.7830439;0.24085207;-0.30182806;;;;;1130.5
1284.0;1240.3;;;;;;;;;;;;;;;;;20.004883;-9.254738;42.9281;;1130.5
1284.0;1240.3;;;;;;;;;;;;;;0.7860347;0.22937712;-0.30573443;;;;;1130.5
1284.0;1240.3;;;;;;;;;;;;;;;;;18.311106;-9.853663;41.5891;;1140.2
1284.0;1240.3;;;;;;;;;;;;;;0.8080081;0.2153386;-0.3030488;;;;;1140.2
1284.0;1240.3;;;;;;;;;;;;;;;;;15.930662;-8.983886;40.39506;;1140.2
1284.0;1240.3;;;;;;;;;;;;;;0.81209755;0.19214454;-0.31348613;;;;;1140.2
1284.0;1240.3;;;;;;;;;;;;;;;;;13.729514;-8.312479;39.47569;;1149.8
1284.0;1240.3;;;;;;;;;;;;;;0.8136235;0.17761773;-0.31849116;;;;;1149.8
1284.0;1240.3;;;;;;;;;;;;;;;;;12.508774;-8.239998;38.514362;;1149.8
1284.0;1240.3;;;;;;;;;;;;;;0.8184454;0.15778069;-0.34052554;;;;;1149.8
1284.0;1240.9;;;;;;;;;;;;;;;;;12.485885;-7.6181827;37.099064;;1159.5
1284.0;1240.9;;;;;;;;;;;;;;0.8120365;0.13873714;-0.33564258;;;;;1159.5
1284.0;1240.9;;;;;;;;;;;;;;;;;12.787255;-8.484145;35.56932;;1159.5
1284.0;1240.9;;;;;;;;;;;;;;0.8296762;0.11969359;-0.35261086;;;;;1159.5
1284.0;1240.9;;;;;;;;;;;;;;;;;13.138219;-7.881405;34.05484;;1169.2
1284.0;1240.9;;;;;;;;;;;;;;0.84145635;0.10937834;-0.36329234;;;;;1169.2
1284.0;1240.9;;;;;;;;;;;;;;;;;13.451034;-6.2791834;32.63573;;1169.2
1284.0;1240.9;;;;;;;;;;;;;;0.85079503;0.09753716;-0.3744621;;;;;1169.2
1284.0;1240.9;;;;;;;;;;;;;;;;;14.412366;-4.0704064;31.392101;;1178.7
1284.0;1240.9;;;;;;;;;;;;;;0.85439616;0.093691826;-0.36262092;;;;;1178.7
1284.0;1240.9;;;;;;;;;;;;;;;;;16.220589;-2.8191473;30.800806;;1178.7
1284.0;1240.9;;;;;;;;;;;;;;0.86159855;0.07959227;-0.3635975;;;;;1178.7
1350.0;1240.8;139474;139405;13110;;;;;;;;;;;;;;;;;;
1350.0;1247.0;;;;;;;;;;;;;-34;;;;;;;;
1350.0;1247.0;;;;;;;;;;;;;-28;;;;;;;;
1350.0;1247.0;;;;;;;;;;;;;-1;;;;;;;;
1350.0;1247.0;;;;;;;;;;;;;-133;;;;;;;;
1350.0;1247.0;;;;;;;;;;;;;36;;;;;;;;
1350.0;1249.1;;;;-0.77546704;-0.110878006;-0.4075051;;;;;;;;;;;;;;;
1350.0;1249.1;;;;-0.7804605;-0.11131288;-0.40880972;;;;;;;;;;;;;;;
1350.0;1249.1;;;;-0.7875558;-0.11255647;-0.41091162;;;;;;;;;;;;;;;
1350.0;1249.1;;;;-0.79042447;-0.11258699;-0.41204077;;;;;;;;;;;;;;;
1350.0;1249.1;;;;-0.79088223;-0.11117555;-0.4129563;;;;;;;;;;;;;;;
1350.0;1259.1;;;;-0.79371655;-0.11067964;-0.41536337;;;;;;;;;;;;;;;
1350.0;1259.1;;;;-0.80007184;-0.11231996;-0.41865164;;;;;;;;;;;;;;;
1350.0;1259.1;;;;-0.8072816;-0.1144333;-0.42029577;;;;;;;;;;;;;;;
1350.0;1259.1;;;;-0.8106767;-0.11500932;-0.42030722;;;;;;;;;;;;;;;
1350.0;1259.1;;;;-0.81326306;-0.114856735;-0.4209252;;;;;;;;;;;;;;;
1350.0;1260.8;155757;155681;13114;;;;;;;;;;;;;;;;;;
1350.0;1269.2;;;;-0.8180505;-0.11398317;-0.42256933;;;;;;;;;;;;;;;
1350.0;1269.2;;;;-0.82522213;-0.11420824;-0.4252892;;;;;;;;;;;;;;;
1350.0;1269.2;;;;-0.8329507;-0.115310684;-0.42724234;;;;;;;;;;;;;;;
1350.0;1269.2;;;;-0.8439027;-0.117137924;-0.4290772;;;;;;;;;;;;;;;
1350.0;1269.2;;;;-0.8562852;-0.118064895;-0.42971808;;;;;;;;;;;;;;;
1355.0;1279.2;;;;-0.86418927;-0.1167946;-0.4293061;;;;;;;;;;;;;;;
1355.0;1279.2;;;;-0.8684083;-0.11508562;-0.4306298;;;;;;;;;;;;;;;
1355.0;1279.2;;;;-0.8707963;-0.11356355;-0.43139273;;;;;;;;;;;;;;;
1355.0;1279.2;;;;-0.8755342;-0.112323776;-0.43107992;;;;;;;;;;;;;;;
1355.0;1279.2;;;;-0.88077176;-0.11257173;-0.43074423;;;;;;;;;;;;;;;
1355.0;1280.9;172149;172064;13108;;;;;;;;;;;;;;;;;;
1355.0;1287.3;;;;;;;;;;;;;329;;;;;;;;
1355.0;1287.3;;;;;;;;;;;;;-238;;;;;;;;
1355.0;1287.3;;;;;;;;;;;;;-788;;;;;;;;
1355.0;1287.3;;;;;;;;;;;;;634;;;;;;;;
1355.0;1287.3;;;;;;;;;;;;;3922;;;;;;;;
1355.0;1289.3;;;;-0.88845456;-0.11393358;-0.42992407;;;;;;;;;;;;;;;
1355.0;1289.3;;;;-0.89756787;-0.11685945;-0.42813116;;;;;;;;;;;;;;;
1355.0;1289.3;;;;-0.90649426;-0.11917116;-0.42684942;;;;;;;;;;;;;;;
1355.0;1289.3;;;;-0.90962994;-0.12042238;-0.4255448;;;;;;;;;;;;;;;
1355.0;1289.3;;;;-0.91062176;-0.120006576;-0.42610937;;;;;;;;;;;;;;;
1355.0;1299.4;;;;-0.913952;-0.12016679;-0.42888647;;;;;;;;;;;;;;;
1355.0;1299.4;;;;-0.92076886;-0.12136461;-0.43215948;;;;;;;;;;;;;;;
1355.0;1299.4;;;;-0.9288789;-0.122352615;-0.4343987;;;;;;;;;;;;;;;
1355.0;1299.4;;;;-0.9368745;-0.12484743;-0.4367333;;;;;;;;;;;;;;;
1355.0;1299.4;;;;-0.94358075;-0.12633516;-0.4372521;;;;;;;;;;;;;;;
1361.0;1300.0;;;;;;;;;;;;;;;;;19.05881;-1.4229255;30.247658;;1188.4
1361.0;1300.0;;;;;;;;;;;;;;0.8626362;0.08587909;-0.34131902;;;;;1188.4
1361.0;1300.0;;;;;;;;;;;;;;;;;22.282326;-1.0719626;29.82803;;1188.4
1361.0;1300.0;;;;;;;;;;;;;;0.86233103;0.09698782;-0.3535264;;;;;1188.4
1361.0;1300.0;;;;;;;;;;;;;;;;;25.1854;-0.16022217;29.274881;;1198.0
1361.0;1300.0;;;;;;;;;;;;;;0.8568987;0.10669271;-0.3414411;;;;;1198.0
1361.0;1300.0;;;;;;;;;;;;;;;;;26.867733;0.049592577;28.946806;;1198.0
1361.0;1300.0;;;;;;;;;;;;;;0.85976744;0.11011078;-0.3432722;;;;;1198.0
1361.0;1300.0;;;;;;;;;;;;;;;;;27.859583;0.18692587;28.851437;;1207.7
1361.0;1300.0;;;;;;;;;;;;;;0.8523209;0.12262337;-0.34034243;;;;;1207.7
1361.0;1300.0;;;;;;;;;;;;;;;;;27.638325;-0.19455549;28.98114;;1207.7
1361.0;1300.0;;;;;;;;;;;;;;0.86593217;0.13934751;-0.34156317;;;;;1207.7
1361.0;1300.8;;;;;;;;;;;;;;;;;26.657919;-0.04196295;29.28251;;1217.3
1361.0;1300.8;;;;;;;;;;;;;;0.8681906;0.15326396;-0.34430984;;;;;1217.3
1361.0;1300.8;;;;;;;;;;;;;;;;;25.315104;0.16403699;29.59914;;1217.3
1361.0;1300.8;;;;;;;;;;;;;;0.8628193;0.17950988;-0.35657826;;;;;1217.3
1361.0;1300.8;;;;;;;;;;;;;;;;;23.808252;0.6179998;29.766993;;1226.9
1361.0;1300.8;;;;;;;;;;;;;;0.85781425;0.19483016;-0.3554796;;;;;1226.9
1361.0;1300.8;;;;;;;;;;;;;;;;;22.20603;0.7515183;30.217138;;1226.9
1361.0;1300.8;;;;;;;;;;;;;;0.86141545;0.23004852;-0.3554796;;;;;1226.9
1361.0;1300.8;;;;;;;;;;;;;;;;;19.997253;1.7967772;30.991547;;1236.6
1361.0;1300.8;;;;;;;;;;;;;;0.86306345;0.26703694;-0.3382061;;;;;1236.6
1361.0;1300.8;;;;;;;;;;;;;;;;;17.178104;2.6703696;32.170326;;1236.6
1361.0;1300.8;;;;;;;;;;;;;;0.8734397;0.2961516;-0.33448288;;;;;1236.6
1363.0;1301.0;188519;188533;13113;;;;;;;;;;;;;;;;;;
1363.0;1309.3;;;;-0.94895947;-0.12692262;-0.43814856;;;;;;;;;;;;;;;
1363.0;1309.3;;;;-0.952942;-0.1267624;-0.44046408;;;;;;;;;;;;;;;
1363.0;1309.3;;;;-0.95661175;-0.12791063;-0.44388586;;;;;;;;;;;;;;;
1363.0;1309.3;;;;-0.96060574;-0.12874986;-0.44712073;;;;;;;;;;;;;;;
1363.0;1309.3;;;;-0.96517193;-0.12942125;-0.4513474;;;;;;;;;;;;;;;
1363.0;1315.5;;;;;;;;;;;;;;;;;13.748589;4.4976654;33.669548;;1246.3
1363.0;1315.5;;;;;;;;;;;;;;0.86288035;0.31769767;-0.3451033;;;;;1246.3
1363.0;1315.5;;;;;;;;;;;;;;;;;10.254219;6.4851832;34.867397;;1246.3
1363.0;1315.5;;;;;;;;;;;;;;0.852443;0.34284493;-0.3324076;;;;;1246.3
1363.0;1315.5;;;;;;;;;;;;;;;;;6.504257;7.9577017;36.385693;;1255.9
1363.0;1315.5;;;;;;;;;;;;;;0.84463024;0.35419783;-0.31867427;;;;;1255.9
1363.0;1315.5;;;;;;;;;;;;;;;;;2.475814;8.159886;38.026066;;1255.9
1363.0;1315.5;;;;;;;;;;;;;;0.842616;0.35303813;-0.31373027;;;;;1255.9
1363.0;1315.5;;;;;;;;;;;;;;;;;-1.4419996;7.8852196;39.323097;;1265.5
1363.0;1315.5;;;;;;;;;;;;;;0.8436537;0.3432722;-0.2989593;;;;;1265.5
1363.0;1315.5;;;;;;;;;;;;;;;;;-5.352184;7.6677756;40.7651;;1265.5
1363.0;1315.5;;;;;;;;;;;;;;0.83999145;0.33063754;-0.2987762;;;;;1265.5
1363.0;1319.3;;;;-0.9703294;-0.13089754;-0.45536047;;;;;;;;;;;;;;;
1363.0;1319.3;;;;-0.9788667;-0.13544847;-0.45806128;;;;;;;;;;;;;;;
1363.0;1319.3;;;;-0.9828378;-0.13869478;-0.46126944;;;;;;;;;;;;;;;
1363.0;1319.3;;;;-0.9780961;-0.13767625;-0.46397024;;;;;;;;;;;;;;;
1363.0;1319.3;;;;-0.9764596;-0.1368332;-0.4680863;;;;;;;;;;;;;;;
1399.0;1321.1;204905;204989;13114;;;;;;;;;;;;;;;;;;
1399.0;1327.4;;;;;;;;;;;;;6732;;;;;;;;
1399.0;1327.4;;;;;;;;;;;;;7302;;;;;;;;
1399.0;1327.4;;;;;;;;;;;;;6280;;;;;;;;
1399.0;1327.4;;;;;;;;;;;;;5573;;;;;;;;
1399.0;1327.4;;;;;;;;;;;;;5720;;;;;;;;
1399.0;1329.4;;;;-0.97766125;-0.13617326;-0.4701081;;;;;;;;;;;;;;;
1399.0;1329.4;;;;-0.97716916;-0.13455965;-0.47131354;;;;;;;;;;;;;;;
1399.0;1329.4;;;;-0.9782907;-0.13603975;-0.47552496;;;;;;;;;;;;;;;
1399.0;1329.4;;;;-0.98350537;-0.1409836;-0.48207098;;;;;;;;;;;;;;;
1399.0;1329.4;;;;-0.98508847;-0.1440468;-0.48526007;;;;;;;;;;;;;;;
1399.0;1339.3;;;;-0.98207104;-0.14168932;-0.48947912;;;;;;;;;;;;;;;
1399.0;1339.3;;;;-0.9844438;-0.1396599;-0.49649435;;;;;;;;;;;;;;;
1399.0;1339.3;;;;-0.990204;-0.13752367;-0.5014344;;;;;;;;;;;;;;;
1399.0;1339.3;;;;-0.9928895;-0.13550569;-0.50557333;;;;;;;;;;;;;;;
1399.0;1339.3;;;;-0.99728024;-0.13266374;-0.5108147;;;;;;;;;;;;;;;
1399.0;1341.1;221331;221369;13121;;;;;;;;;;;;;;;;;;
1399.0;1349.4;;;;-1.0030328;-0.13107301;-0.51583105;;;;;;;;;;;;;;;
1399.0;1349.4;;;;-1.0096704;-0.13093187;-0.52185065;;;;;;;;;;;;;;;
1399.0;1349.4;;;;-1.0156938;-0.132782;-0.52849585;;;;;;;;;;;;;;;
1399.0;1349.4;;;;-1.018776;-0.13341142;-0.5348359;;;;;;;;;;;;;;;
1399.0;1349.4;;;;-1.0203363;-0.13417436;-0.5404244;;;;;;;;;;;;;;;
1403.0;1359.4;;;;-1.0246927;-0.13485338;-0.54454046;;;;;;;;;;;;;;;
1403.0;1359.4;;;;-1.030655;-0.13464357;-0.5482903;;;;;;;;;;;;;;;
1403.0;1359.4;;;;-1.0357171;-0.13557436;-0.5524064;;;;;;;;;;;;;;;
1403.0;1359.4;;;;-1.0432588;-0.134964;-0.5559884;;;;;;;;;;;;;;;
1403.0;1359.4;;;;-1.0492975;-0.13305666;-0.5587197;;;;;;;;;;;;;;;
1403.0;1360.2;;;;;;;;;;;;;;;;;-9.117405;6.8857384;42.11173;;1275.1
1403.0;1360.2;;;;;;;;;;;;;;0.8424329;0.30957976;-0.29865414;;;;;1275.1
1403.0;1360.2;;;;;;;;;;;;;;;;;-12.253182;5.1461835;43.187508;;1275.1
1403.0;1360.2;;;;;;;;;;;;;;0.8511002;0.28949857;-0.3173925;;;;;1275.1
1403.0;1360.2;;;;;;;;;;;;;;;;;-14.511552;3.4867396;44.282356;;1284.8
1403.0;1360.2;;;;;;;;;;;;;;0.8719138;0.2793054;-0.328135;;;;;1284.8
1403.0;1360.2;;;;;;;;;;;;;;;;;-16.739403;2.8420362;44.93469;;1284.8
1403.0;1360.2;;;;;;;;;;;;;;0.8993194;0.26111636;-0.3340556;;;;;1284.8
1403.0;1360.2;;;;;;;;;;;;;;;;;-18.169958;2.4719992;45.13306;;1294.5
1403.0;1360.2;;;;;;;;;;;;;;0.9149449;0.27014986;-0.34742272;;;;;1294.5
1403.0;1360.2;;;;;;;;;;;;;;;;;-19.84466;2.6360364;45.6328;;1294.5
1403.0;1360.2;;;;;;;;;;;;;;0.9129917;0.26783043;-0.3624378;;;;;1294.5
1403.0;1361.3;237677;237725;13108;;;;;;;;;;;;;;;;;;
1403.0;1367.6;;;;;;;;;;;;;5503;;;;;;;;
1403.0;1367.6;;;;;;;;;;;;;4759;;;;;;;;
1403.0;1367.6;;;;;;;;;;;;;4307;;;;;;;;
1403.0;1367.6;;;;;;;;;;;;;4068;;;;;;;;
1403.0;1367.6;;;;;;;;;;;;;3756;;;;;;;;
1458.0;1369.5;;;;-1.0532838;-0.1305504;-0.56179434;;;;;;;;;;;;;;;
1458.0;1369.5;;;;-1.0581056;-0.12799837;-0.564354;;;;;;;;;;;;;;;
1458.0;1369.5;;;;-1.0638353;-0.1250496;-0.5655137;;;;;;;;;;;;;;;
1458.0;1369.5;;;;-1.0683633;-0.120979324;-0.5652314;;;;;;;;;;;;;;;
1458.0;1369.5;;;;-1.072693;-0.11847688;-0.5670014;;;;;;;;;;;;;;;
1458.0;1379.5;;;;-1.0775605;-0.11651994;-0.5690575;;;;;;;;;;;;;;;
1458.0;1379.5;;;;-1.080166;-0.115303054;-0.569706;;;;;;;;;;;;;;;
1458.0;1379.5;;;;-1.083336;-0.1133423;-0.5717736;;;;;;;;;;;;;;;
1458.0;1379.5;;;;-1.0890008;-0.11119844;-0.57436377;;;;;;;;;;;;;;;
1458.0;1379.5;;;;-1.0964967;-0.10939409;-0.5766106;;;;;;;;;;;;;;;
1458.0;1381.4;254147;254161;13110;;;;;;;;;;;;;;;;;;
1458.0;1389.5;;;;-1.1040727;-0.107051864;-0.5781556;;;;;;;;;;;;;;;
1458.0;1389.5;;;;-1.1113435;-0.10480119;-0.5795136;;;;;;;;;;;;;;;
1458.0;1389.5;;;;-1.1206208;-0.102893844;-0.5818177;;;;;;;;;;;;;;;
1458.0;1389.5;;;;-1.130375;-0.100936905;-0.58404547;;;;;;;;;;;;;;;
1458.0;1389.5;;;;-1.1372186;-0.10014726;-0.5860444;;;;;;;;;;;;;;;
1458.0;1399.6;;;;-1.137726;-0.09737016;-0.5869828;;;;;;;;;;;;;;;
1458.0;1399.6;;;;-1.139248;-0.09304429;-0.5898629;;;;;;;;;;;;;;;
1458.0;1399.6;;;;-1.141987;-0.08883668;-0.5919152;;;;;;;;;;;;;;;
1458.0;1399.6;;;;-1.1448137;-0.085350044;-0.5928727;;;;;;;;;;;;;;;
1458.0;1399.6;;;;-1.150406;-0.082881935;-0.59507376;;;;;;;;;;;;;;;
1460.0;1401.6;262143;262143;13113;;;;;;;;;;;;;;;;;;
1460.0;1407.9;;;;;;;;;;;;;3277;;;;;;;;
1460.0;1407.9;;;;;;;;;;;;;2863;;;;;;;;
1460.0;1407.9;;;;;;;;;;;;;3082;;;;;;;;
1460.0;1407.9;;;;;;;;;;;;;3782;;;;;;;;
1460.0;1407.9;;;;;;;;;;;;;4132;;;;;;;;
1460.0;1409.7;;;;-1.1575662;-0.08167649;-0.59719473;;;;;;;;;;;;;;;
1460.0;1409.7;;;;-1.1637269;-0.0801468;-0.5978928;;;;;;;;;;;;;;;
1460.0;1409.7;;;;-1.1699106;-0.0789528;-0.59782416;;;;;;;;;;;;;;;
1460.0;1409.7;;;;-1.1759034;-0.07682038;-0.5957261;;;;;;;;;;;;;;;
1460.0;1409.7;;;;-1.182274;-0.0753975;-0.59419256;;;;;;;;;;;;;;;
1460.0;1419.8;;;;-1.1884118;-0.073940285;-0.59330374;;;;;;;;;;;;;;;
1460.0;1419.8;;;;-1.1935769;-0.0731659;-0.5917817;;;;;;;;;;;;;;;
1460.0;1419.8;;;;-1.1986123;-0.072235115;-0.588337;;;;;;;;;;;;;;;
1460.0;1419.8;;;;-1.2032281;-0.0702591;-0.584446;;;;;;;;;;;;;;;
1460.0;1419.8;;;;-1.2074357;-0.068328865;-0.5808144;;;;;;;;;;;;;;;
1461.0;1420.7;;;;;;;;;;;;;;;;;-21.023438;1.8120365;45.75869;;1304.1
1461.0;1420.7;;;;;;;;;;;;;;0.9152501;0.25550097;-0.36573383;;;;;1304.1
1461.0;1420.7;;;;;;;;;;;;;;;;;-21.134068;0.86214787;45.720543;;1304.1
1461.0;1420.7;;;;;;;;;;;;;;0.9157384;0.2595294;-0.37244788;;;;;1304.1
1461.0;1420.7;;;;;;;;;;;;;;;;;-21.187475;-0.25559253;45.491653;;1313.8
1461.0;1420.7;;;;;;;;;;;;;;0.9170202;0.25550097;-0.38312936;;;;;1313.8
1461.0;1420.7;;;;;;;;;;;;;;;;;-21.00055;-1.7242957;45.25895;;1313.8
1461.0;1420.7;;;;;;;;;;;;;;0.93380535;0.2565386;-0.38911098;;;;;1313.8
1461.0;1420.7;;;;;;;;;;;;;;;;;-20.744957;-2.5559251;44.957577;;1323.5
1461.0;1420.7;;;;;;;;;;;;;;0.9474166;0.25324258;-0.40162358;;;;;1323.5
1461.0;1420.7;;;;;;;;;;;;;;;;;-20.760216;-2.6284068;44.606613;;1323.5
1461.0;1420.7;;;;;;;;;;;;;;0.9571215;0.25708792;-0.3977172;;;;;1323.5
1461.0;1421.4;;;;;;;;;;;;;;;;;-21.271402;-3.360851;43.904694;;1333.2
1461.0;1421.4;;;;;;;;;;;;;;0.976043;0.25830868;-0.4115726;;;;;1333.2
1461.0;1421.4;;;;;;;;;;;;;;;;;-22.469252;-3.3341472;43.294323;;1333.2
1461.0;1421.4;;;;;;;;;;;;;;0.9908139;0.24842067;-0.41560107;;;;;1333.2
1461.0;1421.4;;;;;;;;;;;;;;;;;-23.998993;-2.97174;42.680138;;1342.8
1461.0;1421.4;;;;;;;;;;;;;;1.0115665;0.23468734;-0.42097232;;;;;1342.8
1461.0;1421.4;;;;;;;;;;;;;;;;;-25.620289;-2.643666;42.03543;;1342.8
1461.0;1421.4;;;;;;;;;;;;;;1.030549;0.2273629;-0.42243722;;;;;1342.8
1461.0;1421.4;;;;;;;;;;;;;;;;;-27.500992;-2.7314067;41.100803;;1352.4
1461.0;1421.4;;;;;;;;;;;;;;1.0522171;0.21112704;-0.42249826;;;;;1352.4
1461.0;1421.4;;;;;;;;;;;;;;;;;-29.152807;-2.3079624;40.0708;;1352.4
1461.0;1421.4;;;;;;;;;;;;;;1.0710166;0.19696645;-0.420423;;;;;1352.4
1464.0;1421.6;262143;262143;13110;;;;;;;;;;;;;;;;;;
1464.0;1429.7;;;;-1.209839;-0.0653534;-0.57734686;;;;;;;;;;;;;;;
1464.0;1429.7;;;;-1.2100831;-0.060794838;-0.5726853;;;;;;;;;;;;;;;
1464.0;1429.7;;;;-1.210148;-0.05604554;-0.5672532;;;;;;;;;;;;;;;
1464.0;1429.7;;;;-1.2113725;-0.05265809;-0.56298834;;;;;;;;;;;;;;;
1464.0;1429.7;;;;-1.2118913;-0.049251564;-0.5593186;;;;;;;;;;;;;;;
1464.0;1435.6;;;;;;;;;;;;;;;;;-30.198065;-1.392407;38.81573;;1362.1
1464.0;1435.6;;;;;;;;;;;;;;1.0887784;0.19458602;-0.4052858;;;;;1362.1
1464.0;1435.6;;;;;;;;;;;;;;;;;-31.212805;-2.3308513;37.42714;;1362.1
1464.0;1435.6;;;;;;;;;;;;;;1.1232033;0.18341625;-0.42530596;;;;;1362.1
1464.0;1435.6;;;;;;;;;;;;;;;;;-31.392101;-2.7314067;35.67995;;1371.8
1464.0;1435.6;;;;;;;;;;;;;;1.1647694;0.1633961;-0.44508195;;;;;1371.8
1464.0;1435.6;;;;;;;;;;;;;;;;;-30.133213;-2.7542956;33.61614;;1371.8
1464.0;1435.6;;;;;;;;;;;;;;1.207007;0.15723136;-0.4791406;;;;;1371.8
1464.0;1435.6;;;;;;;;;;;;;;;;;-28.019806;-1.4381847;30.945768;;1381.4
1464.0;1435.6;;;;;;;;;;;;;;1.2532731;0.15015107;-0.5037385;;;;;1381.4
1464.0;1435.6;;;;;;;;;;;;;;;;;-25.37614;1.6670736;28.042694;;1381.4
1464.0;1435.6;;;;;;;;;;;;;;1.2881863;0.13953063;-0.5303507;;;;;1381.4
1464.0;1439.6;;;;-1.2120515;-0.04602051;-0.555275;;;;;;;;;;;;;;;
1464.0;1439.6;;;;-1.211506;-0.044250492;-0.5505219;;;;;;;;;;;;;;;
1464.0;1439.6;;;;-1.2117463;-0.042491917;-0.5457383;;;;;;;;;;;;;;;
1464.0;1439.6;;;;-1.2109567;-0.04130173;-0.54214865;;;;;;;;;;;;;;;
1464.0;1439.6;;;;-1.2093507;-0.041160587;-0.5390969;;;;;;;;;;;;;;;
1519.0;1441.7;262143;262143;13113;;;;;;;;;;;;;;;;;;
1519.0;1447.9;;;;;;;;;;;;;3806;;;;;;;;
1519.0;1447.9;;;;;;;;;;;;;3363;;;;;;;;
1519.0;1447.9;;;;;;;;;;;;;3178;;;;;;;;
1519.0;1447.9;;;;;;;;;;;;;3011;;;;;;;;
1519.0;1447.9;;;;;;;;;;;;;2801;;;;;;;;
1519.0;1449.4;;;;-1.2064706;-0.040981296;-0.53711325;;;;;;;;;;;;;;;
1519.0;1449.4;;;;-1.2028428;-0.04025269;-0.53475195;;;;;;;;;;;;;;;
1519.0;1449.4;;;;-1.1995546;-0.038967136;-0.5324212;;;;;;;;;;;;;;;
1519.0;1449.4;;;;-1.1946412;-0.037559513;-0.5311814;;;;;;;;;;;;;;;
1519.0;1449.4;;;;-1.1882516;-0.035278324;-0.5300675;;;;;;;;;;;;;;;
1519.0;1459.4;;;;-1.1809884;-0.03330231;-0.5299378;;;;;;;;;;;;;;;
1519.0;1459.4;;;;-1.1743432;-0.031227116;-0.5298882;;;;;;;;;;;;;;;
1519.0;1459.4;;;;-1.1682626;-0.029552463;-0.5311547;;;;;;;;;;;;;;;
1519.0;1459.4;;;;-1.163086;-0.028823856;-0.5329285;;;;;;;;;;;;;;;
1519.0;1459.4;;;;-1.1577798;-0.029026035;-0.5354157;;;;;;;;;;;;;;;
1519.0;1461.6;262143;262143;13107;;;;;;;;;;;;;;;;;;
1519.0;1469.5;;;;-1.1517144;-0.03010178;-0.53713995;;;;;;;;;;;;;;;
1519.0;1469.5;;;;-1.145424;-0.030941013;-0.5383454;;;;;;;;;;;;;;;
1519.0;1469.5;;;;-1.1382371;-0.031307224;-0.53924567;;;;;;;;;;;;;;;
1519.0;1469.5;;;;-1.1333352;-0.031269077;-0.54022986;;;;;;;;;;;;;;;
1519.0;1469.5;;;;-1.1279489;-0.03084946;-0.5425568;;;;;;;;;;;;;;;
1521.0;1479.6;;;;-1.1220933;-0.03003693;-0.5446244;;;;;;;;;;;;;;;
1521.0;1479.6;;;;-1.1179353;-0.029193882;-0.54440695;;;;;;;;;;;;;;;
1521.0;1479.6;;;;-1.1134835;-0.02908707;-0.5448685;;;;;;;;;;;;;;;
1521.0;1479.6;;;;-1.1086999;-0.027927402;-0.54547507;;;;;;;;;;;;;;;
1521.0;1479.6;;;;-1.103634;-0.027515415;-0.546238;;;;;;;;;;;;;;;
1521.0;1480.7;;;;;;;;;;;;;;;;;-22.423473;6.0541096;24.922176;;1391.0
1521.0;1480.7;;;;;;;;;;;;;;1.3187659;0.15570544;-0.5414594;;;;;1391.0
1521.0;1480.7;;;;;;;;;;;;;;;;;-20.378735;11.181218;21.996216;;1391.0
1521.0;1480.7;;;;;;;;;;;;;;1.3248695;0.1723075;-0.51948607;;;;;1391.0
1521.0;1480.7;;;;;;;;;;;;;;;;;-19.966734;13.80581;19.581438;;1400.6
1521.0;1480.7;;;;;;;;;;;;;;1.3600268;0.19299905;-0.5454878;;;;;1400.6
1521.0;1480.7;;;;;;;;;;;;;;;;;-20.790735;18.444624;16.853848;;1400.6
1521.0;1480.7;;;;;;;;;;;;;;1.3620411;0.19397564;-0.52845854;;;;;1400.6
1521.0;1480.7;;;;;;;;;;;;;;;;;-22.74392;23.86166;13.660849;;1410.2
1521.0;1480.7;;;;;;;;;;;;;;1.3188269;0.17316203;-0.48554948;;;;;1410.2
1521.0;1480.7;;;;;;;;;;;;;;;;;-25.517288;26.985992;10.647145;;1410.2
1521.0;1480.7;;;;;;;;;;;;;;1.2789696;0.16284677;-0.47132787;;;;;1410.2
1521.0;1481.7;262143;262143;13114;;;;;;;;;;;;;;;;;;
1525.0;1488.2;;;;;;;;;;;;;;;;;-28.76751;30.308695;7.5838494;;1419.9
1525.0;1488.2;;;;;;;;;;;;;;1.2252572;0.16180913;-0.4519181;;;;;1419.9
1525.0;1488.2;;;;;;;;;;;;;;;;;-32.429733;31.838436;4.7875915;;1419.9
1525.0;1488.2;;;;;;;;;;;;;;1.1790521;0.13818781;-0.4346446;;;;;1419.9
1525.0;1488.2;;;;;;;;;;;;;;;;;-35.340435;32.906586;1.8616291;;1429.5
1525.0;1488.2;;;;;;;;;;;;;;1.1348003;0.121768855;-0.41053498;;;;;1429.5
1525.0;1488.2;;;;;;;;;;;;;;;;;-37.438583;32.87988;-1.4267403;;1429.5
1525.0;1488.2;;;;;;;;;;;;;;1.1092257;0.091250345;-0.37617114;;;;;1429.5
1525.0;1488.2;;;;;;;;;;;;;;;;;-37.88873;32.441177;-5.2758875;;1439.2
1525.0;1488.2;;;;;;;;;;;;;;1.1020844;0.070986055;-0.35120702;;;;;1439.2
1525.0;1488.2;;;;;;;;;;;;;;;;;-36.74047;31.727806;-9.342479;;1439.2
1525.0;1488.2;;;;;;;;;;;;;;1.101413;0.060731836;-0.31611073;;;;;1439.2
1525.0;1488.0;;;;;;;;;;;;;3572;;;;;;;;
1525.0;1488.0;;;;;;;;;;;;;5368;;;;;;;;
1525.0;1488.0;;;;;;;;;;;;;3045;;;;;;;;
1525.0;1488.0;;;;;;;;;;;;;-8617;;;;;;;;
1525.0;1488.0;;;;;;;;;;;;;-23898;;;;;;;;
1525.0;1489.5;;;;-1.1012346;-0.02707291;-0.5472298;;;;;;;;;;;;;;;
1525.0;1489.5;;;;-1.0993272;-0.026638035;-0.54785925;;;;;;;;;;;;;;;
1525.0;1489.5;;;;-1.0988122;-0.025794987;-0.5468293;;;;;;;;;;;;;;;
1525.0;1489.5;;;;-1.0977403;-0.025280003;-0.54542166;;;;;;;;;;;;;;;
1525.0;1489.5;;;;-1.0969621;-0.025154117;-0.54425055;;;;;;;;;;;;;;;
1580.0;1499.5;;;;-1.0964624;-0.025573734;-0.54121786;;;;;;;;;;;;;;;
1580.0;1499.5;;;;-1.0963823;-0.026397709;-0.5366059;;;;;;;;;;;;;;;
1580.0;1499.5;;;;-1.0964738;-0.026088718;-0.5318528;;;;;;;;;;;;;;;
1580.0;1499.5;;;;-1.0982591;-0.025917057;-0.52657324;;;;;;;;;;;;;;;
1580.0;1499.5;;;;-1.1009637;-0.024536137;-0.52024466;;;;;;;;;;;;;;;
1580.0;1501.8;262143;262143;13113;;;;;;;;;;;;;;;;;;
1580.0;1509.5;;;;-1.1037294;-0.023391725;-0.51136786;;;;;;;;;;;;;;;
1580.0;1509.5;;;;-1.104561;-0.022727968;-0.50360495;;;;;;;;;;;;;;;
1580.0;1509.5;;;;-1.1030809;-0.02245331;-0.49607092;;;;;;;;;;;;;;;
1580.0;1509.5;;;;-1.1004602;-0.02137375;-0.4863549;;;;;;;;;;;;;;;
1580.0;1509.5;;;;-1.0965921;-0.021018984;-0.47691733;;;;;;;;;;;;;;;
1580.0;1519.4;;;;-1.0919267;-0.020080568;-0.46749502;;;;;;;;;;;;;;;
1580.0;1519.4;;;;-1.0873109;-0.019840242;-0.45605475;;;;;;;;;;;;;;;
1580.0;1519.4;;;;-1.0807687;-0.019382479;-0.44577414;;;;;;;;;;;;;;;
1580.0;1519.4;;;;-1.073021;-0.018951418;-0.43614966;;;;;;;;;;;;;;;
1580.0;1519.4;;;;-1.0652047;-0.01923752;-0.42866522;;;;;;;;;;;;;;;
1580.0;1521.7;262143;262143;13109;;;;;;;;;;;;;;;;;;
1580.0;1528.0;;;;;;;;;;;;;-29306;;;;;;;;
1580.0;1528.0;;;;;;;;;;;;;-19517;;;;;;;;
1580.0;1528.0;;;;;;;;;;;;;-4059;;;;;;;;
1580.0;1528.0;;;;;;;;;;;;;4538;;;;;;;;
1580.0;1528.0;;;;;;;;;;;;;4586;;;;;;;;
1582.0;1529.5;;;;-1.0584451;-0.019340517;-0.4237519;;;;;;;;;;;;;;;
1582.0;1529.5;;;;-1.0536767;-0.019649507;-0.41857916;;;;;;;;;;;;;;;
1582.0;1529.5;;;;-1.0524827;-0.019783022;-0.41331106;;;;;;;;;;;;;;;
1582.0;1529.5;;;;-1.0540086;-0.019893648;-0.4084664;;;;;;;;;;;;;;;
1582.0;1529.5;;;;-1.056923;-0.019340517;-0.40494162;;;;;;;;;;;;;;;
1582.0;1539.7;;;;-1.0597268;-0.018737795;-0.40227515;;;;;;;;;;;;;;;
1582.0;1539.7;;;;-1.062481;-0.0174675;-0.39954764;;;;;;;;;;;;;;;
1582.0;1539.7;;;;-1.0636674;-0.015727999;-0.3970986;;;;;;;;;;;;;;;
1582.0;1539.7;;;;-1.0629884;-0.012977602;-0.39569098;;;;;;;;;;;;;;;
1582.0;1539.7;;;;-1.0603296;-0.010200501;-0.39408118;;;;;;;;;;;;;;;
1582.0;1540.7;;;;;;;;;;;;;;;;;-33.852657;30.59862;-13.580737;;1448.8
1582.0;1540.7;;;;;;;;;;;;;;1.0978729;0.053407393;-0.2857143;;;;;1448.8
1582.0;1540.7;;;;;;;;;;;;;;;;;-29.812769;29.030733;-18.166143;;1448.8
1582.0;1540.7;;;;;;;;;;;;;;1.098056;0.045960877;-0.25263223;;;;;1448.8
1582.0;1540.7;;;;;;;;;;;;;;;;;-24.769585;27.188177;-23.003326;;1458.4
1582.0;1540.7;;;;;;;;;;;;;;1.0983001;0.054139838;-0.22412793;;;;;1458.4
1582.0;1540.7;;;;;;;;;;;;;;;;;-18.555254;25.849178;-27.726065;;1458.4
1582.0;1540.7;;;;;;;;;;;;;;1.0843227;0.08429212;-0.19953002;;;;;1458.4
1582.0;1540.7;;;;;;;;;;;;;;;;;-12.028108;24.056215;-32.376324;;1468.0
1582.0;1540.7;;;;;;;;;;;;;;1.0773644;0.12701803;-0.17810602;;;;;1468.0
1582.0;1540.7;;;;;;;;;;;;;;;;;-5.726035;22.076328;-36.729027;;1468.0
1582.0;1540.7;;;;;;;;;;;;;;1.076571;0.17981505;-0.16412854;;;;;1468.0
1582.0;1541.8;262143;262143;13114;;;;;;;;;;;;;;;;;;
1583.0;1548.2;;;;;;;;;;;;;;;;;-0.12207404;20.203253;-41.05121;;1477.6
1583.0;1548.2;;;;;;;;;;;;;;1.0842006;0.22498246;-0.1398358;;;;;1477.6
1583.0;1548.2;;;;;;;;;;;;;;;;;4.299295;18.135624;-45.247505;;1477.6
1583.0;1548.2;;;;;;;;;;;;;;1.1086764;0.27942747;-0.133549;;;;;1477.6
1583.0;1548.2;;;;;;;;;;;;;;;;;7.0688496;17.715994;-49.207283;;1487.3
1583.0;1548.2;;;;;;;;;;;;;;1.1363262;0.33082065;-0.12927641;;;;;1487.3
1583.0;1548.2;;;;;;;;;;;;;;;;;8.098849;19.001587;-52.86569;;1487.3
1583.0;1548.2;;;;;;;;;;;;;;1.1582996;0.38721886;-0.12659077;;;;;1487.3
1583.0;1548.2;;;;;;;;;;;;;;;;;6.2982574;22.041994;-56.73391;;1497.0
1583.0;1548.2;;;;;;;;;;;;;;1.1941893;0.43916136;-0.13220619;;;;;1497.0
1583.0;1548.2;;;;;;;;;;;;;;;;;2.4491103;28.466139;-60.926388;;1497.0
1583.0;1548.2;;;;;;;;;;;;;;1.2020631;0.49208045;-0.107852414;;;;;1497.0
1583.0;1549.4;;;;-1.0569268;-0.007232667;-0.39308172;;;;;;;;;;;;;;;
1583.0;1549.4;;;;-1.054001;-0.0049018865;-0.39241415;;;;;;;;;;;;;;;
1583.0;1549.4;;;;-1.0519105;-0.0021667483;-0.39119726;;;;;;;;;;;;;;;
1583.0;1549.4;;;;-1.0490915;2.2888187E-5;-0.3901406;;;;;;;;;;;;;;;
1583.0;1549.4;;;;-1.0469438;0.001979828;-0.38867575;;;;;;;;;;;;;;;
1583.0;1559.4;;;;-1.0423585;0.0031738286;-0.38704687;;;;;;;;;;;;;;;
1583.0;1559.4;;;;-1.0372392;0.0043334966;-0.38545614;;;;;;;;;;;;;;;
1583.0;1559.4;;;;-1.0307199;0.005386353;-0.38449866;;;;;;;;;;;;;;;
1583.0;1559.4;;;;-1.0241281;0.006828309;-0.38310248;;;;;;;;;;;;;;;
1583.0;1559.4;;;;-1.0168344;0.008163453;-0.3817101;;;;;;;;;;;;;;;
1583.0;1561.9;262143;262143;13115;;;;;;;;;;;;;;;;;;
1639.0;1568.0;;;;;;;;;;;;;3023;;;;;;;;
1639.0;1568.0;;;;;;;;;;;;;3776;;;;;;;;
1639.0;1568.0;;;;;;;;;;;;;4644;;;;;;;;
1639.0;1568.0;;;;;;;;;;;;;4236;;;;;;;;
1639.0;1568.0;;;;;;;;;;;;;3898;;;;;;;;
1639.0;1569.3;;;;-1.0111085;0.009025575;-0.3808518;;;;;;;;;;;;;;;
1639.0;1569.3;;;;-1.0060579;0.009735108;-0.37833792;;;;;;;;;;;;;;;
1639.0;1569.3;;;;-1.0003625;0.010925294;-0.37665182;;;;;;;;;;;;;;;
1639.0;1569.3;;;;-0.9942132;0.012290956;-0.37437442;;;;;;;;;;;;;;;
1639.0;1569.3;;;;-0.9884988;0.013465883;-0.37254718;;;;;;;;;;;;;;;
1639.0;1579.3;;;;-0.9825517;0.014720919;-0.37061313;;;;;;;;;;;;;;;
1639.0;1579.3;;;;-0.9769479;0.016696932;-0.3684273;;;;;;;;;;;;;;;
1639.0;1579.3;;;;-0.9710351;0.0194397;-0.3665848;;;;;;;;;;;;;;;
1639.0;1579.3;;;;-0.9636384;0.021434786;-0.3647881;;;;;;;;;;;;;;;
1639.0;1579.3;;;;-0.95754635;0.023101809;-0.36349872;;;;;;;;;;;;;;;
1639.0;1581.8;262143;262143;13104;;;;;;;;;;;;;;;;;;
1639.0;1589.4;;;;-0.9537164;0.024566654;-0.3631592;;;;;;;;;;;;;;;
1639.0;1589.4;;;;-0.95090115;0.025352482;-0.36220554;;;;;;;;;;;;;;;
1639.0;1589.4;;;;-0.9489442;0.024932865;-0.36062625;;;;;;;;;;;;;;;
1639.0;1589.4;;;;-0.9465219;0.023830418;-0.35855106;;;;;;;;;;;;;;;
1639.0;1589.4;;;;-0.9438211;0.022495272;-0.35578158;;;;;;;;;;;;;;;
1641.0;1599.6;;;;-0.940796;0.020462038;-0.35333255;;;;;;;;;;;;;;;
1641.0;1599.6;;;;-0.9352304;0.019008638;-0.35053256;;;;;;;;;;;;;;;
1641.0;1599.6;;;;-0.92668164;0.015815737;-0.3496895;;;;;;;;;;;;;;;
1641.0;1599.6;;;;-0.9215585;0.014652254;-0.3479767;;;;;;;;;;;;;;;
1641.0;1599.6;;;;-0.9144479;0.014415743;-0.34744266;;;;;;;;;;;;;;;
1641.0;1601.2;;;;;;;;;;;;;;;;;-2.5940733;35.920284;-65.603355;;1506.6
1641.0;1601.2;;;;;;;;;;;;;;1.1771599;0.5522019;-0.08966338;;;;;1506.6
1641.0;1601.2;;;;;;;;;;;;;;;;;-7.026887;40.936764;-71.36753;;1506.6
1641.0;1601.2;;;;;;;;;;;;;;1.1041597;0.60823387;-0.09479049;;;;;1506.6
1641.0;1601.2;;;;;;;;;;;;;;;;;-7.698294;39.29258;-78.51268;;1516.2
1641.0;1601.2;;;;;;;;;;;;;;0.96365243;0.66371655;-0.16937773;;;;;1516.2
1641.0;1601.2;;;;;;;;;;;;;;;;;-4.032258;27.256845;-86.3712;;1516.2
1641.0;1601.2;;;;;;;;;;;;;;0.8487198;0.73049104;-0.34504226;;;;;1516.2
1641.0;1601.2;;;;;;;;;;;;;;;;;0.71337014;12.581255;-93.035675;;1525.9
1641.0;1601.2;;;;;;;;;;;;;;0.8267464;0.80397964;-0.5708792;;;;;1525.9
1641.0;1601.2;;;;;;;;;;;;;;;;;1.0528886;3.707999;-97.26249;;1525.9
1641.0;1601.2;;;;;;;;;;;;;;0.8239387;0.8382214;-0.72853786;;;;;1525.9
1641.0;1601.9;262143;262143;13103;;;;;;;;;;;;;;;;;;
1642.0;1608.4;;;;;;;;;;;;;;;;;-6.2944427;-1.6556292;-99.71541;;1535.5
1642.0;1608.4;;;;;;;;;;;;;;0.8312632;0.84969634;-0.7840205;;;;;1535.5
1642.0;1608.4;;;;;;;;;;;;;;;;;-22.29377;-5.0050354;-99.89471;;1535.5
1642.0;1608.4;;;;;;;;;;;;;;0.87746817;0.8083743;-0.7475814;;;;;1535.5
1642.0;1608.4;;;;;;;;;;;;;;;;;-44.62569;-4.8219247;-99.131744;;1545.2
1642.0;1608.4;;;;;;;;;;;;;;0.9552904;0.7459334;-0.6568804;;;;;1545.2
1642.0;1608.4;;;;;;;;;;;;;;;;;-70.01709;-2.5559251;-96.17527;;1545.2
1642.0;1608.4;;;;;;;;;;;;;;1.0347606;0.6247139;-0.5501267;;;;;1545.2
1642.0;1608.4;;;;;;;;;;;;;;;;;-92.24601;-1.1329997;-91.792046;;1554.9
1642.0;1608.4;;;;;;;;;;;;;;1.0946989;0.4624775;-0.48609883;;;;;1554.9
1642.0;1608.4;;;;;;;;;;;;;;;;;-106.52486;1.3771478;-87.538536;;1554.9
1642.0;1608.4;;;;;;;;;;;;;;1.1091647;0.30842006;-0.4713889;;;;;1554.9
1642.0;1608.2;;;;;;;;;;;;;3891;;;;;;;;
1642.0;1608.2;;;;;;;;;;;;;3733;;;;;;;;
1642.0;1608.2;;;;;;;;;;;;;3512;;;;;;;;
1642.0;1608.2;;;;;;;;;;;;;3227;;;;;;;;
1642.0;1608.2;;;;;;;;;;;;;2845;;;;;;;;
1642.0;1609.4;;;;-0.90396893;0.013149263;-0.34777454;;;;;;;;;;;;;;;
1642.0;1609.4;;;;-0.89808285;0.011787416;-0.34754947;;;;;;;;;;;;;;;
1642.0;1609.4;;;;-0.89811337;0.009243012;-0.3470154;;;;;;;;;;;;;;;
1642.0;1609.4;;;;-0.89738095;0.0061569223;-0.3462601;;;;;;;;;;;;;;;
1642.0;1609.4;;;;-0.89585125;0.0034980779;-0.34686282;;;;;;;;;;;;;;;
1699.0;1619.4;;;;-0.89496243;-4.1198736E-4;-0.34751132;;;;;;;;;;;;;;;
1699.0;1619.4;;;;-0.89284146;-0.0033302312;-0.34796908;;;;;;;;;;;;;;;
1699.0;1619.4;;;;-0.89379513;-0.007347108;-0.34863666;;;;;;;;;;;;;;;
1699.0;1619.4;;;;-0.89068997;-0.0108795175;-0.3481789;;;;;;;;;;;;;;;
1699.0;1619.4;;;;-0.88647854;-0.012493135;-0.3468056;;;;;;;;;;;;;;;
1699.0;1622.0;262143;262143;13096;;;;;;;;;;;;;;;;;;
1699.0;1629.5;;;;-0.8826524;-0.014560701;-0.34512332;;;;;;;;;;;;;;;
1699.0;1629.5;;;;-0.8774377;-0.01778412;-0.34290698;;;;;;;;;;;;;;;
1699.0;1629.5;;;;-0.8721353;-0.021667482;-0.3407326;;;;;;;;;;;;;;;
1699.0;1629.5;;;;-0.86655056;-0.02568436;-0.33961108;;;;;;;;;;;;;;;
1699.0;1629.5;;;;-0.86076367;-0.029853825;-0.33786014;;;;;;;;;;;;;;;
1699.0;1639.5;;;;-0.8537599;-0.03388596;-0.33529666;;;;;;;;;;;;;;;
1699.0;1639.5;;;;-0.8492929;-0.03684998;-0.3333626;;;;;;;;;;;;;;;
1699.0;1639.5;;;;-0.848076;-0.04072571;-0.3314133;;;;;;;;;;;;;;;
1699.0;1639.5;;;;-0.84445584;-0.044364933;-0.32944873;;;;;;;;;;;;;;;
1699.0;1639.5;;;;-0.84289944;-0.04890061;-0.32828143;;;;;;;;;;;;;;;
1699.0;1642.1;262143;262143;13090;;;;;;;;;;;;;;;;;;
1699.0;1648.4;;;;;;;;;;;;;2491;;;;;;;;
1699.0;1648.4;;;;;;;;;;;;;2112;;;;;;;;
1699.0;1648.4;;;;;;;;;;;;;1710;;;;;;;;
1699.0;1648.4;;;;;;;;;;;;;1511;;;;;;;;
1699.0;1648.4;;;;;;;;;;;;;1450;;;;;;;;
1703.0;1649.6;;;;-0.8410531;-0.053344734;-0.32685092;;;;;;;;;;;;;;;
1703.0;1649.6;;;;-0.83968747;-0.057380684;-0.32364276;;;;;;;;;;;;;;;
1703.0;1649.6;;;;-0.83991253;-0.061344154;-0.32015613;;;;;;;;;;;;;;;
1703.0;1649.6;;;;-0.8412515;-0.065479286;-0.31857303;;;;;;;;;;;;;;;
1703.0;1649.6;;;;-0.8398515;-0.06930161;-0.3164902;;;;;;;;;;;;;;;
1703.0;1659.7;;;;-0.83651745;-0.07241822;-0.31412128;;;;;;;;;;;;;;;
1703.0;1659.7;;;;-0.83457196;-0.07570649;-0.3110924;;;;;;;;;;;;;;;
1703.0;1659.7;;;;-0.83235943;-0.07828904;-0.30794147;;;;;;;;;;;;;;;
1703.0;1659.7;;;;-0.83147824;-0.08153153;-0.3047562;;;;;;;;;;;;;;;
1703.0;1659.7;;;;-0.8279878;-0.08359528;-0.3013306;;;;;;;;;;;;;;;
1703.0;1661.1;;;;;;;;;;;;;;;;;-112.220375;3.3761103;-84.43327;;1564.5
1703.0;1661.1;;;;;;;;;;;;;;1.1092257;0.23828852;-0.46650594;;;;;1564.5
1703.0;1661.1;;;;;;;;;;;;;;;;;-113.914154;5.752739;-81.99942;;1564.5
1703.0;1661.1;;;;;;;;;;;;;;1.0607014;0.1779229;-0.4588763;;;;;1564.5
1703.0;1661.1;;;;;;;;;;;;;;;;;-112.88415;5.996887;-81.118195;;1574.1
1703.0;1661.1;;;;;;;;;;;;;;1.0198675;0.13525803;-0.41639453;;;;;1574.1
1703.0;1661.1;;;;;;;;;;;;;;;;;-109.756004;1.1825923;-80.36286;;1574.1
1703.0;1661.1;;;;;;;;;;;;;;1.0514237;0.10101627;-0.40821558;;;;;1574.1
1703.0;1661.1;;;;;;;;;;;;;;;;;-104.33897;-0.27466658;-80.774864;;1583.7
1703.0;1661.1;;;;;;;;;;;;;;1.0809656;0.08154546;-0.41077915;;;;;1583.7
1703.0;1661.1;;;;;;;;;;;;;;;;;-98.128456;5.2529984;-82.77383;;1583.7
1703.0;1661.1;;;;;;;;;;;;;;1.0589312;0.06268502;-0.3300882;;;;;1583.7
1703.0;1662.3;262143;262143;13093;;;;;;;;;;;;;;;;;;
1707.0;1668.6;;;;;;;;;;;;;;;;;-91.5746;7.3244424;-85.146645;;1593.3
1707.0;1668.6;;;;;;;;;;;;;;1.0655233;0.08331553;-0.30579546;;;;;1593.3
1707.0;1668.6;;;;;;;;;;;;;;;;;-85.90579;10.261848;-87.21046;;1593.3
1707.0;1668.6;;;;;;;;;;;;;;1.0763268;0.09112827;-0.26953948;;;;;1593.3
1707.0;1668.6;;;;;;;;;;;;;;;;;-80.90075;14.519181;-88.38161;;1602.9
1707.0;1668.6;;;;;;;;;;;;;;1.0723594;0.12140263;-0.23432112;;;;;1602.9
1707.0;1668.6;;;;;;;;;;;;;;;;;-77.158424;18.978699;-88.663895;;1602.9
1707.0;1668.6;;;;;;;;;;;;;;1.0566729;0.14404736;-0.17017122;;;;;1602.9
1707.0;1668.6;;;;;;;;;;;;;;;;;-74.7322;22.133549;-88.29387;;1612.6
1707.0;1668.6;;;;;;;;;;;;;;1.0508133;0.15875728;-0.12689596;;;;;1612.6
1707.0;1668.6;;;;;;;;;;;;;;;;;-73.23679;24.506365;-87.618645;;1612.6
1707.0;1668.6;;;;;;;;;;;;;;1.0464187;0.17572558;-0.103396714;;;;;1612.6
1707.0;1669.6;;;;-0.82491696;-0.08454514;-0.29932025;;;;;;;;;;;;;;;
1707.0;1669.6;;;;-0.821766;-0.08499528;-0.29597858;;;;;;;;;;;;;;;
1707.0;1669.6;;;;-0.81881344;-0.08593369;-0.29314807;;;;;;;;;;;;;;;
1707.0;1669.6;;;;-0.816929;-0.08784104;-0.28960803;;;;;;;;;;;;;;;
1707.0;1669.6;;;;-0.8153764;-0.09010316;-0.28532794;;;;;;;;;;;;;;;
1707.0;1679.6;;;;-0.81505597;-0.09185029;-0.28180698;;;;;;;;;;;;;;;
1707.0;1679.6;;;;-0.81294644;-0.09248353;-0.27834705;;;;;;;;;;;;;;;
1707.0;1679.6;;;;-0.8120614;-0.09402467;-0.2741013;;;;;;;;;;;;;;;
1707.0;1679.6;;;;-0.811329;-0.095966354;-0.26955798;;;;;;;;;;;;;;;
1707.0;1679.6;;;;-0.8101541;-0.0974846;-0.2658768;;;;;;;;;;;;;;;
1707.0;1682.3;262143;262143;13085;;;;;;;;;;;;;;;;;;
1760.0;1688.5;;;;;;;;;;;;;1260;;;;;;;;
1760.0;1688.5;;;;;;;;;;;;;777;;;;;;;;
1760.0;1688.5;;;;;;;;;;;;;19;;;;;;;;
1760.0;1688.5;;;;;;;;;;;;;-716;;;;;;;;
1760.0;1688.5;;;;;;;;;;;;;-1432;;;;;;;;
1760.0;1689.7;;;;-0.8076478;-0.09828569;-0.26211932;;;;;;;;;;;;;;;
1760.0;1689.7;;;;-0.8034402;-0.09970476;-0.25836566;;;;;;;;;;;;;;;
1760.0;1689.7;;;;-0.79961026;-0.10017015;-0.2540398;;;;;;;;;;;;;;;
1760.0;1689.7;;;;-0.79687893;-0.10076143;-0.2501221;;;;;;;;;;;;;;;
1760.0;1689.7;;;;-0.79319775;-0.10083772;-0.24601367;;;;;;;;;;;;;;;
1760.0;1699.7;;;;-0.7896806;-0.100986496;-0.2421265;;;;;;;;;;;;;;;
1760.0;1699.7;;;;-0.7862741;-0.101863876;-0.23860171;;;;;;;;;;;;;;;
1760.0;1699.7;;;;-0.7824708;-0.102504745;-0.23551181;;;;;;;;;;;;;;;
1760.0;1699.7;;;;-0.782776;-0.10269548;-0.23306659;;;;;;;;;;;;;;;
1760.0;1699.7;;;;-0.78317654;-0.103389755;-0.23036197;;;;;;;;;;;;;;;
1760.0;1702.4;262143;262143;13086;;;;;;;;;;;;;;;;;;
1760.0;1709.8;;;;-0.78099453;-0.10386278;-0.22801974;;;;;;;;;;;;;;;
1760.0;1709.8;;;;-0.7783586;-0.10460283;-0.22576907;;;;;;;;;;;;;;;
1760.0;1709.8;;;;-0.77676404;-0.10564424;-0.22332004;;;;;;;;;;;;;;;
1760.0;1709.8;;;;-0.7721101;-0.10630037;-0.22190097;;;;;;;;;;;;;;;
1760.0;1709.8;;;;-0.7692491;-0.10626985;-0.2207413;;;;;;;;;;;;;;;
1767.0;1719.9;;;;-0.7658769;-0.10586931;-0.22029498;;;;;;;;;;;;;;;
1767.0;1719.9;;;;-0.7625123;-0.10538103;-0.21927646;;;;;;;;;;;;;;;
1767.0;1719.9;;;;-0.7612268;-0.10629274;-0.21846393;;;;;;;;;;;;;;;
1767.0;1719.9;;;;-0.7582818;-0.10720827;-0.21772006;;;;;;;;;;;;;;;
1767.0;1719.9;;;;-0.7538911;-0.10768892;-0.21716312;;;;;;;;;;;;;;;
1767.0;1721.9;;;;;;;;;;;;;;;;;-71.592606;26.41377;-87.37068;;1622.3
1767.0;1721.9;;;;;;;;;;;;;;1.0367748;0.1920835;-0.09186071;;;;;1622.3
1767.0;1721.9;;;;;;;;;;;;;;;;;-69.52498;26.924955;-87.40883;;1622.3
1767.0;1721.9;;;;;;;;;;;;;;1.0361644;0.20770897;-0.0905179;;;;;1622.3
1767.0;1721.9;;;;;;;;;;;;;;;;;-66.782135;26.84103;-87.99249;;1631.8
1767.0;1721.9;;;;;;;;;;;;;;1.0246894;0.2075869;-0.1010773;;;;;1631.8
1767.0;1721.9;;;;;;;;;;;;;;;;;-63.287758;25.46388;-88.84319;;1631.8
1767.0;1721.9;;;;;;;;;;;;;;1.0197455;0.24536882;-0.10254219;;;;;1631.8
1767.0;1721.9;;;;;;;;;;;;;;;;;-60.541092;24.132511;-89.01868;;1641.5
1767.0;1721.9;;;;;;;;;;;;;;0.9980163;0.31653798;-0.10742515;;;;;1641.5
1767.0;1721.9;;;;;;;;;;;;;;;;;-58.23313;21.813105;-90.15167;;1641.5
1767.0;1721.9;;;;;;;;;;;;;;0.98690754;0.27491075;-0.13257241;;;;;1641.5
1768.0;1722.6;;;;;;;;;;;;;;;;;-54.63195;19.802696;-91.97516;;1651.2
1768.0;1722.6;;;;;;;;;;;;;;0.9807428;0.3030488;-0.1396527;;;;;1651.2
1768.0;1722.6;;;;;;;;;;;;;;;;;-51.938686;17.479475;-92.93268;;1651.2
1768.0;1722.6;;;;;;;;;;;;;;0.9830622;0.31189916;-0.1568041;;;;;1651.2
1768.0;1722.6;;;;;;;;;;;;;;;;;-50.14954;16.197699;-93.642235;;1660.7
1768.0;1722.6;;;;;;;;;;;;;;0.9798883;0.32197028;-0.1739555;;;;;1660.7
1768.0;1722.6;;;;;;;;;;;;;;;;;-50.500504;16.37318;-94.51964;;1660.7
1768.0;1722.6;;;;;;;;;;;;;;0.9834895;0.34339428;-0.1937315;;;;;1660.7
1768.0;1722.6;;;;;;;;;;;;;;;;;-53.132725;19.150366;-94.870605;;1670.3
1768.0;1722.6;;;;;;;;;;;;;;0.9701224;0.35474715;-0.22382274;;;;;1670.3
1768.0;1722.6;;;;;;;;;;;;;;;;;-56.951355;22.526474;-95.43138;;1670.3
1768.0;1722.6;;;;;;;;;;;;;;0.97006136;0.31122777;-0.2612995;;;;;1670.3
1768.0;1722.5;262143;262143;13078;;;;;;;;;;;;;;;;;;
1768.0;1728.7;;;;;;;;;;;;;-2345;;;;;;;;
1768.0;1728.7;;;;;;;;;;;;;-3192;;;;;;;;
1768.0;1728.7;;;;;;;;;;;;;-3593;;;;;;;;
1768.0;1728.7;;;;;;;;;;;;;-3812;;;;;;;;
1768.0;1728.7;;;;;;;;;;;;;-4303;;;;;;;;
1768.0;1729.8;;;;-0.75149167;-0.10896303;-0.21717456;;;;;;;;;;;;;;;
1768.0;1729.8;;;;-0.74695593;-0.10964967;-0.21632388;;;;;;;;;;;;;;;
1768.0;1729.8;;;;-0.74280936;-0.10986711;-0.2154465;;;;;;;;;;;;;;;
1768.0;1729.8;;;;-0.7398606;-0.11141588;-0.214901;;;;;;;;;;;;;;;
1768.0;1729.8;;;;-0.7364579;-0.113517776;-0.21375278;;;;;;;;;;;;;;;
1819.0;1739.0;;;;;;;;;;1.1558886;19.371624;-1.945555;;;;;;;;;
1819.0;1739.0;;;;;;;0.62697226;0.11267434;-0.344615;;;;;;;;;;;;
1819.0;1739.0;;;;;;;;;;6.7751093;31.613361;7.5647755;;;;;;;;;
1819.0;1739.0;;;;;;;0.70674765;0.12555315;-0.3812372;;;;;;;;;;;;
1819.0;1739.8;;;;-0.7329827;-0.1158867;-0.21250919;;;;;;;;;;;;;;;
1819.0;1739.8;;;;-0.72689444;-0.11715318;-0.21129611;;;;;;;;;;;;;;;
1819.0;1739.8;;;;-0.72165304;-0.11742021;-0.20926288;;;;;;;;;;;;;;;
1819.0;1739.8;;;;-0.7162629;-0.117805496;-0.2078667;;;;;;;;;;;;;;;
1819.0;1739.8;;;;-0.71212393;-0.11674501;-0.2070122;;;;;;;;;;;;;;;
1819.0;1742.6;262143;262143;13080;;;;;;;;;;;;;;;;;;
1819.0;1748.6;;;;;;;;;;-4.4557023;7.9996643;2.2049623;;;;;;;;;
1819.0;1748.6;;;;;;;0.7052217;0.12457655;-0.3725089;;;;;;;;;;;;
1819.0;1748.6;;;;;;;;;;-1.8387402;17.437513;6.859035;;;;;;;;;
1819.0;1748.6;;;;;;;0.7002167;0.1271401;-0.36921293;;;;;;;;;;;;
1819.0;1749.9;;;;-0.7088471;-0.11783601;-0.20614246;;;;;;;;;;;;;;;
1819.0;1749.9;;;;-0.7061921;-0.11849977;-0.2050362;;;;;;;;;;;;;;;
1819.0;1749.9;;;;-0.7051316;-0.11916734;-0.20463946;;;;;;;;;;;;;;;
1819.0;1749.9;;;;-0.70281225;-0.12008287;-0.20441821;;;;;;;;;;;;;;;
1819.0;1749.9;;;;-0.70120627;-0.12144853;-0.2030144;;;;;;;;;;;;;;;
1819.0;1758.0;;;;;;;;;;-7.1642203;18.070772;6.6492205;;;;;;;;;
1819.0;1758.0;;;;;;;0.6951506;0.12732323;-0.36634418;;;;;;;;;;;;
1819.0;1758.0;;;;;;;;;;-17.78466;-17.91055;-14.839625;;;;;;;;;
1819.0;1758.0;;;;;;;0.6906949;0.13006988;-0.3671987;;;;;;;;;;;;
1821.0;1759.9;;;;-0.70205694;-0.12298204;-0.20055392;;;;;;;;;;;;;;;
1821.0;1759.9;;;;-0.6994172;-0.123245254;-0.19705966;;;;;;;;;;;;;;;
1821.0;1759.9;;;;-0.6963158;-0.12381746;-0.1941376;;;;;;;;;;;;;;;
1821.0;1759.9;;;;-0.69195944;-0.12356569;-0.19202045;;;;;;;;;;;;;;;
1821.0;1759.9;;;;-0.6880265;-0.12445833;-0.19063571;;;;;;;;;;;;;;;
1821.0;1762.8;262143;262143;13082;;;;;;;;;;;;;;;;;;
1821.0;1767.7;;;;;;;;;;-23.102512;-18.787958;-16.243477;;;;;;;;;
1821.0;1767.7;;;;;;;0.6882534;0.13110752;-0.366039;;;;;;;;;;;;
1821.0;1767.7;;;;;;;;;;-28.03888;-19.440292;-17.42607;;;;;;;;;
1821.0;1767.7;;;;;;;0.6829432;0.13049714;-0.3634144;;;;;;;;;;;;
1821.0;1769.0;;;;;;;;;;;;;-4852;;;;;;;;
1821.0;1769.0;;;;;;;;;;;;;-5023;;;;;;;;
1821.0;1769.0;;;;;;;;;;;;;-4806;;;;;;;;
1821.0;1769.0;;;;;;;;;;;;;-4391;;;;;;;;
1821.0;1769.0;;;;;;;;;;;;;-3708;;;;;;;;
1821.0;1770.0;;;;-0.68529516;-0.1268654;-0.18927386;;;;;;;;;;;;;;;
1821.0;1770.0;;;;-0.68222433;-0.12845232;-0.18788531;;;;;;;;;;;;;;;
1821.0;1770.0;;;;-0.6791268;-0.13000108;-0.18558504;;;;;;;;;;;;;;;
1821.0;1770.0;;;;-0.67737204;-0.13126375;-0.18412782;;;;;;;;;;;;;;;
1821.0;1770.0;;;;-0.6763268;-0.13238145;-0.1823044;;;;;;;;;;;;;;;
1821.0;1777.3;;;;;;;;;;-32.441177;-12.3638115;-12.417218;;;;;;;;;
1821.0;1777.3;;;;;;;0.6786706;0.13385418;-0.36542863;;;;;;;;;;;;
1821.0;1777.3;;;;;;;;;;-33.558918;-4.161962;-5.7298503;;;;;;;;;
1821.0;1777.3;;;;;;;0.67195654;0.1297647;-0.36689353;;;;;;;;;;;;
1823.0;1780.1;;;;-0.6785317;-0.1341591;-0.17943574;;;;;;;;;;;;;;;
1823.0;1780.1;;;;-0.68012244;-0.13423158;-0.17701341;;;;;;;;;;;;;;;
1823.0;1780.1;;;;-0.6814156;-0.13516618;-0.17398073;;;;;;;;;;;;;;;
1823.0;1780.1;;;;-0.68251044;-0.13677217;-0.17098619;;;;;;;;;;;;;;;
1823.0;1780.1;;;;-0.68274313;-0.13808443;-0.16689683;;;;;;;;;;;;;;;
1823.0;1782.5;;;;;;;;;;;;;;;;;-59.57976;26.909697;-95.385605;;1679.9
1823.0;1782.5;;;;;;;;;;;;;;0.9441816;0.31415755;-0.2971282;;;;;1679.9
1823.0;1782.5;;;;;;;;;;;;;;;;;-61.994537;30.800806;-95.500046;;1679.9
1823.0;1782.5;;;;;;;;;;;;;;0.9062166;0.2936491;-0.28437147;;;;;1679.9
1823.0;1782.5;;;;;;;;;;;;;;;;;-63.161873;31.949066;-95.965454;;1689.5
1823.0;1782.5;;;;;;;;;;;;;;0.8894314;0.29230627;-0.2987762;;;;;1689.5
1823.0;1782.5;;;;;;;;;;;;;;;;;-63.70739;33.555103;-96.36983;;1689.5
1823.0;1782.5;;;;;;;;;;;;;;0.86233103;0.2763146;-0.2870571;;;;;1689.5
1823.0;1782.5;;;;;;;;;;;;;;;;;-63.962982;33.970913;-96.70171;;1699.1
1823.0;1782.5;;;;;;;;;;;;;;0.8473159;0.2747276;-0.27008882;;;;;1699.1
1823.0;1782.5;;;;;;;;;;;;;;;;;-64.497055;34.67284;-96.6979;;1699.1
1823.0;1782.5;;;;;;;;;;;;;;0.8334605;0.2692343;-0.2624592;;;;;1699.1
1824.0;1783.4;;;;;;;;;;;;;;;;;-65.11887;36.347546;-96.42705;;1708.8
1824.0;1783.4;;;;;;;;;;;;;;0.7989746;0.2739952;-0.23493148;;;;;1708.8
1824.0;1783.4;;;;;;;;;;;;;;;;;-66.4388;36.58788;-96.11042;;1708.8
1824.0;1783.4;;;;;;;;;;;;;;0.7766961;0.24897;-0.22363964;;;;;1708.8
1824.0;1783.4;;;;;;;;;;;;;;;;;-67.55654;37.03421;-95.95401;;1718.5
1824.0;1783.4;;;;;;;;;;;;;;0.75319684;0.22711875;-0.20825832;;;;;1718.5
1824.0;1783.4;;;;;;;;;;;;;;;;;-68.262276;36.79769;-95.56871;;1718.5
1824.0;1783.4;;;;;;;;;;;;;;0.732017;0.1810358;-0.1904355;;;;;1718.5
1824.0;1783.4;;;;;;;;;;;;;;;;;-67.77398;35.885952;-95.42375;;1728.2
1824.0;1783.4;;;;;;;;;;;;;;0.7165136;0.18378246;-0.16400647;;;;;1728.2
1824.0;1783.4;;;;;;;;;;;;;;;;;-67.0301;34.100616;-94.199196;;1728.2
1824.0;1783.4;;;;;;;;;;;;;;0.7058931;0.21051668;-0.12720115;;;;;1728.2
1824.0;1782.9;262143;262143;13068;;;;;;;;;;;;;;;;;;
1824.0;1786.7;;;;;;;;;;-33.25373;-4.3641467;-5.0279245;;;;;;;;;
1824.0;1786.7;;;;;;;0.6762291;0.13232826;-0.3681753;;;;;;;;;;;;
1824.0;1786.7;;;;;;;;;;-32.98288;-4.5739617;-4.734184;;;;;;;;;
1824.0;1786.7;;;;;;;0.6687826;0.13385418;-0.36921293;;;;;;;;;;;;
1824.0;1790.0;;;;-0.6833001;-0.1391945;-0.16254427;;;;;;;;;;;;;;;
1824.0;1790.0;;;;-0.68207556;-0.13992693;-0.15924074;;;;;;;;;;;;;;;
1824.0;1790.0;;;;-0.680687;-0.14049532;-0.15743257;;;;;;;;;;;;;;;
1824.0;1790.0;;;;-0.68000036;-0.14154817;-0.1560631;;;;;;;;;;;;;;;
1824.0;1790.0;;;;-0.68004996;-0.14302064;-0.15475847;;;;;;;;;;;;;;;
1879.0;1796.2;;;;;;;;;;-32.68914;-4.772332;-4.013184;;;;;;;;;
1879.0;1796.2;;;;;;;0.6751305;0.13312174;-0.37134922;;;;;;;;;;;;
1879.0;1796.2;;;;;;;;;;-32.502213;-4.875332;-3.4524064;;;;;;;;;
1879.0;1796.2;;;;;;;0.6724448;0.1309244;-0.3723258;;;;;;;;;;;;
1879.0;1800.0;;;;-0.6809235;-0.14508058;-0.15195467;;;;;;;;;;;;;;;
1879.0;1800.0;;;;-0.680214;-0.14642717;-0.15072633;;;;;;;;;;;;;;;
1879.0;1800.0;;;;-0.68103033;-0.14913179;-0.14853288;;;;;;;;;;;;;;;
1879.0;1800.0;;;;-0.6805306;-0.15128328;-0.14719392;;;;;;;;;;;;;;;
1879.0;1800.0;;;;-0.6815873;-0.1543236;-0.14632799;;;;;;;;;;;;;;;
1879.0;1803.0;262143;262143;13082;;;;;;;;;;;;;;;;;;
1879.0;1805.9;;;;;;;;;;-32.23136;-4.852443;-2.6741846;;;;;;;;;
1879.0;1805.9;;;;;;;0.675985;0.12836085;-0.37403485;;;;;;;;;;;;
1879.0;1805.9;;;;;;;;;;-31.79647;-4.7685175;-1.8387402;;;;;;;;;
1879.0;1805.9;;;;;;;0.6852016;0.12829982;-0.37800226;;;;;;;;;;;;
1879.0;1809.1;;;;;;;;;;;;;-2474;;;;;;;;
1879.0;1809.1;;;;;;;;;;;;;-932;;;;;;;;
1879.0;1809.1;;;;;;;;;;;;;344;;;;;;;;
1879.0;1809.1;;;;;;;;;;;;;1322;;;;;;;;
1879.0;1809.1;;;;;;;;;;;;;2121;;;;;;;;
1879.0;1810.0;;;;-0.6823502;-0.15688325;-0.14648439;;;;;;;;;;;;;;;
1879.0;1810.0;;;;-0.68433005;-0.15678407;-0.14410783;;;;;;;;;;;;;;;
1879.0;1810.0;;;;-0.6858445;-0.15802003;-0.14064409;;;;;;;;;;;;;;;
1879.0;1810.0;;;;-0.6871682;-0.15827562;-0.1387253;;;;;;;;;;;;;;;
1879.0;1810.0;;;;-0.6880074;-0.15937044;-0.1369858;;;;;;;;;;;;;;;
1884.0;1815.2;;;;;;;;;;-31.392101;-4.4175544;-1.2665181;;;;;;;;;
1884.0;1815.2;;;;;;;0.69606614;0.13037507;-0.37977234;;;;;;;;;;;;
1884.0;1815.2;;;;;;;;;;-31.094545;-3.9864802;-0.7209998;;;;;;;;;
1884.0;1815.2;;;;;;;0.7041841;0.13464767;-0.3848384;;;;;;;;;;;;
1884.0;1819.9;;;;-0.68936545;-0.16096117;-0.13369752;;;;;;;;;;;;;;;
1884.0;1819.9;;;;-0.6885987;-0.1623459;-0.13129808;;;;;;;;;;;;;;;
1884.0;1819.9;;;;-0.6884423;-0.16215135;-0.13066484;;;;;;;;;;;;;;;
1884.0;1819.9;;;;-0.6881638;-0.16374971;-0.12989427;;;;;;;;;;;;;;;
1884.0;1819.9;;;;-0.6869126;-0.16427995;-0.12950517;;;;;;;;;;;;;;;
1884.0;1823.0;262143;262143;13071;;;;;;;;;;;;;;;;;;
1884.0;1824.9;;;;;;;;;;-30.747398;-3.5515916;0.095370345;;;;;;;;;
1884.0;1824.9;;;;;;;0.71285135;0.13653982;-0.38654745;;;;;;;;;;;;
1884.0;1824.9;;;;;;;;;;-30.327768;-3.2845547;0.8087405;;;;;;;;;
1884.0;1824.9;;;;;;;0.71614736;0.13257241;-0.3842891;;;;;;;;;;;;
1884.0;1830.0;;;;-0.6867829;-0.16505434;-0.13066484;;;;;;;;;;;;;;;
1884.0;1830.0;;;;-0.68806463;-0.1661606;-0.13231279;;;;;;;;;;;;;;;
1884.0;1830.0;;;;-0.6903878;-0.16782762;-0.13280107;;;;;;;;;;;;;;;
1884.0;1830.0;;;;-0.6927987;-0.16917802;-0.13413621;;;;;;;;;;;;;;;
1884.0;1830.0;;;;-0.69730765;-0.17156984;-0.13648607;;;;;;;;;;;;;;;
1884.0;1834.5;;;;;;;;;;-29.831844;-3.1701102;1.617481;;;;;;;;;
1884.0;1834.5;;;;;;;0.7177954;0.1281167;-0.3782464;;;;;;;;;;;;
1884.0;1834.5;;;;;;;;;;-29.404585;-2.7619252;2.4719992;;;;;;;;;
1884.0;1834.5;;;;;;;0.7246925;0.122196116;-0.3721427;;;;;;;;;;;;
1885.0;1840.2;;;;-0.69891363;-0.17373277;-0.13874055;;;;;;;;;;;;;;;
1885.0;1840.2;;;;-0.6980668;-0.1757393;-0.13884737;;;;;;;;;;;;;;;
1885.0;1840.2;;;;-0.6953736;-0.17894365;-0.13913728;;;;;;;;;;;;;;;
1885.0;1840.2;;;;-0.69061285;-0.18092348;-0.14023592;;;;;;;;;;;;;;;
1885.0;1840.2;;;;-0.6886559;-0.18330766;-0.14174272;;;;;;;;;;;;;;;
1885.0;1842.0;;;;;;;;;;;;;;;;;-66.40828;31.582844;-92.73431;;1737.9
1885.0;1842.0;;;;;;;;;;;;;;0.7043672;0.21686453;-0.122562334;;;;;1737.9
1885.0;1842.0;;;;;;;;;;;;;;;;;-65.35921;31.060213;-91.09775;;1737.9
1885.0;1842.0;;;;;;;;;;;;;;0.69808036;0.26190984;-0.08209479;;;;;1737.9
1885.0;1842.0;;;;;;;;;;;;;;;;;-66.110725;30.663471;-89.533676;;1747.4
1885.0;1842.0;;;;;;;;;;;;;;0.69209874;0.2826014;-0.06872769;;;;;1747.4
1885.0;1842.0;;;;;;;;;;;;;;;;;-66.90802;30.941954;-88.56853;;1747.4
1885.0;1842.0;;;;;;;;;;;;;;0.67885375;0.2646565;-0.076906644;;;;;1747.4
1885.0;1842.0;;;;;;;;;;;;;;;;;-66.30528;31.258583;-88.110756;;1757.0
1885.0;1842.0;;;;;;;;;;;;;;0.6732994;0.27314067;-0.08795434;;;;;1757.0
1885.0;1842.0;;;;;;;;;;;;;;;;;-65.2562;30.766472;-87.691124;;1757.0
1885.0;1842.0;;;;;;;;;;;;;;0.6778771;0.29352704;-0.0756859;;;;;1757.0
1887.0;1843.2;;;;;;;;;;;;;;;;;-63.894318;29.499954;-87.26768;;1766.5
1887.0;1843.2;;;;;;;;;;;;;;0.68892485;0.324778;-0.078554645;;;;;1766.5
1887.0;1843.2;;;;;;;;;;;;;;;;;-63.31446;29.023104;-86.382645;;1766.5
1887.0;1843.2;;;;;;;;;;;;;;0.694235;0.35425887;-0.08020265;;;;;1766.5
1887.0;1843.2;;;;;;;;;;;;;;;;;-64.07742;29.396955;-84.98642;;1776.2
1887.0;1843.2;;;;;;;;;;;;;;0.70027775;0.3665273;-0.07910398;;;;;1776.2
1887.0;1843.2;;;;;;;;;;;;;;;;;-66.4388;28.90103;-82.903534;;1776.2
1887.0;1843.2;;;;;;;;;;;;;;0.7165136;0.36036256;-0.10187078;;;;;1776.2
1887.0;1843.2;;;;;;;;;;;;;;;;;-69.77294;31.125065;-81.102936;;1785.9
1887.0;1843.2;;;;;;;;;;;;;;0.71108127;0.35358745;-0.11078219;;;;;1785.9
1887.0;1843.2;;;;;;;;;;;;;;;;;-73.736534;32.948547;-79.32142;;1785.9
1887.0;1843.2;;;;;;;;;;;;;;0.70857877;0.35193944;-0.12268441;;;;;1785.9
1887.0;1843.1;262143;262143;13077;;;;;;;;;;;;;;;;;;
1887.0;1844.0;;;;;;;;;;-28.843807;-2.4071476;3.2082584;;;;;;;;;
1887.0;1844.0;;;;;;;0.7327494;0.11835078;-0.3599353;;;;;;;;;;;;
1887.0;1844.0;;;;;;;;;;-28.237251;-1.7128513;3.9407024;;;;;;;;;
1887.0;1844.0;;;;;;;0.74581134;0.117862485;-0.34864345;;;;;;;;;;;;
1887.0;1849.3;;;;;;;;;;;;;2509;;;;;;;;
1887.0;1849.3;;;;;;;;;;;;;2386;;;;;;;;
1887.0;1849.3;;;;;;;;;;;;;2200;;;;;;;;
1887.0;1849.3;;;;;;;;;;;;;2220;;;;;;;;
1887.0;1849.3;;;;;;;;;;;;;2060;;;;;;;;
1890.0;1850.1;;;;-0.68809515;-0.18535616;-0.14456178;;;;;;;;;;;;;;;
1890.0;1850.1;;;;-0.69055563;-0.18670656;-0.1487694;;;;;;;;;;;;;;;
1890.0;1850.1;;;;-0.6971131;-0.18862918;-0.15169908;;;;;;;;;;;;;;;
1890.0;1850.1;;;;-0.7045556;-0.19101718;-0.1547661;;;;;;;;;;;;;;;
1890.0;1850.1;;;;-0.71041113;-0.1934891;-0.15922166;;;;;;;;;;;;;;;
1890.0;1853.6;;;;;;;;;;-27.726065;-0.74007386;4.642628;;;;;;;;;
1890.0;1853.6;;;;;;;0.7627186;0.118717;-0.3441267;;;;;;;;;;;;
1890.0;1853.6;;;;;;;;;;-27.169104;0.1678518;5.1957765;;;;;;;;;
1890.0;1853.6;;;;;;;0.7737663;0.117862485;-0.34437087;;;;;;;;;;;;
1890.0;1860.1;;;;-0.71537024;-0.19543079;-0.16458513;;;;;;;;;;;;;;;
1890.0;1860.1;;;;-0.7187539;-0.19725803;-0.1705475;;;;;;;;;;;;;;;
1890.0;1860.1;;;;-0.7214089;-0.19863132;-0.17774965;;;;;;;;;;;;;;;
1890.0;1860.1;;;;-0.72386557;-0.20010379;-0.18445589;;;;;;;;;;;;;;;
1890.0;1860.1;;;;-0.7263718;-0.20126727;-0.19098666;;;;;;;;;;;;;;;
1890.0;1863.1;;;;;;;;;;-26.65029;0.77440715;5.668813;;;;;;;;;
1890.0;1863.1;;;;;;;0.78725547;0.117984556;-0.34730065;;;;;;;;;;;;
1890.0;1863.1;;;;;;;;;;-26.280252;1.0147405;6.042665;;;;;;;;;
1890.0;1863.1;;;;;;;0.7939696;0.116214484;-0.35297707;;;;;;;;;;;;
1890.0;1863.3;262143;262143;13085;;;;;;;;;;;;;;;;;;
1939.0;1870.2;;;;-0.72977835;-0.20277408;-0.19649127;;;;;;;;;;;;;;;
1939.0;1870.2;;;;-0.73395926;-0.20398334;-0.20274737;;;;;;;;;;;;;;;
1939.0;1870.2;;;;-0.7389603;-0.2062569;-0.2098656;;;;;;;;;;;;;;;
1939.0;1870.2;;;;-0.74491507;-0.20871738;-0.21620181;;;;;;;;;;;;;;;
1939.0;1870.2;;;;-0.75158703;-0.21055225;-0.22160342;;;;;;;;;;;;;;;
1939.0;1872.7;;;;;;;;;;-25.837732;1.0338145;6.3936276;;;;;;;;;
1939.0;1872.7;;;;;;;0.80599385;0.120975375;-0.35633412;;;;;;;;;;;;
1939.0;1872.7;;;;;;;;;;-25.30366;1.209296;6.8437757;;;;;;;;;
1939.0;1872.7;;;;;;;0.81728566;0.12121952;-0.35914183;;;;;;;;;;;;
1939.0;1880.2;;;;-0.7588655;-0.21212009;-0.22612384;;;;;;;;;;;;;;;
1939.0;1880.2;;;;-0.76700604;-0.21373752;-0.23107913;;;;;;;;;;;;;;;
1939.0;1880.2;;;;-0.7726823;-0.21408847;-0.2361565;;;;;;;;;;;;;;;
1939.0;1880.2;;;;-0.7816049;-0.21734622;-0.24274829;;;;;;;;;;;;;;;
1939.0;1880.2;;;;-0.7931901;-0.22101977;-0.24954608;;;;;;;;;;;;;;;
1939.0;1882.2;;;;;;;;;;-24.815363;0.96133304;7.438887;;;;;;;;;
1939.0;1882.2;;;;;;;0.83669543;0.121097445;-0.36469617;;;;;;;;;;;;
1939.0;1882.2;;;;;;;;;;-24.28892;0.9765923;7.4541464;;;;;;;;;
1939.0;1882.2;;;;;;;0.8609882;0.12262337;-0.36548966;;;;;;;;;;;;
1939.0;1883.4;262143;262143;13099;;;;;;;;;;;;;;;;;;
1939.0;1889.5;;;;;;;;;;;;;1520;;;;;;;;
1939.0;1889.5;;;;;;;;;;;;;938;;;;;;;;
1939.0;1889.5;;;;;;;;;;;;;714;;;;;;;;
1939.0;1889.5;;;;;;;;;;;;;801;;;;;;;;
1939.0;1889.5;;;;;;;;;;;;;782;;;;;;;;
1946.0;1890.3;;;;-0.80404294;-0.22383502;-0.25614932;;;;;;;;;;;;;;;
1946.0;1890.3;;;;-0.812626;-0.22700503;-0.26342776;;;;;;;;;;;;;;;
1946.0;1890.3;;;;-0.81951535;-0.22933963;-0.27107242;;;;;;;;;;;;;;;
1946.0;1890.3;;;;-0.8250009;-0.23079303;-0.27930072;;;;;;;;;;;;;;;
1946.0;1890.3;;;;-0.8299066;-0.23170474;-0.28745654;;;;;;;;;;;;;;;
1946.0;1891.8;;;;;;;;;;-23.483994;0.7667776;7.2367015;;;;;;;;;
1946.0;1891.8;;;;;;;0.8714255;0.11938841;-0.3662221;;;;;;;;;;;;
1946.0;1891.8;;;;;;;;;;-22.656178;0.90792567;7.354961;;;;;;;;;
1946.0;1891.8;;;;;;;0.8860134;0.11999878;-0.36567277;;;;;;;;;;;;
1946.0;1900.4;;;;-0.8361894;-0.23210528;-0.29386905;;;;;;;;;;;;;;;
1946.0;1900.4;;;;-0.8422166;-0.23183063;-0.3003426;;;;;;;;;;;;;;;
1946.0;1900.4;;;;-0.8499185;-0.23104861;-0.30720142;;;;;;;;;;;;;;;
1946.0;1900.4;;;;-0.8581201;-0.23092654;-0.31250384;;;;;;;;;;;;;;;
1946.0;1900.4;;;;-0.86599743;-0.23147205;-0.31723025;;;;;;;;;;;;;;;
1946.0;1901.5;;;;;;;;;;-22.076328;1.2703329;7.26722;;;;;;;;;
1946.0;1901.5;;;;;;;0.90316474;0.125309;-0.36237678;;;;;;;;;;;;
1946.0;1901.5;;;;;;;;;;-21.298105;1.5869625;6.9429607;;;;;;;;;
1946.0;1901.5;;;;;;;0.91055024;0.12775049;-0.36414686;;;;;;;;;;;;
1947.0;1902.4;;;;;;;;;;;;;;;;;-77.730644;34.53932;-77.80313;;1795.5
1947.0;1902.4;;;;;;;;;;;;;;0.7203589;0.31611073;-0.13238929;;;;;1795.5
1947.0;1902.4;;;;;;;;;;;;;;;;;-80.36668;37.480545;-76.87613;;1795.5
1947.0;1902.4;;;;;;;;;;;;;;0.70064396;0.2883999;-0.123538926;;;;;1795.5
1947.0;1902.4;;;;;;;;;;;;;;;;;-81.41956;38.174843;-75.86139;;1805.1
1947.0;1902.4;;;;;;;;;;;;;;0.6786706;0.25287637;-0.12140263;;;;;1805.1
1947.0;1902.4;;;;;;;;;;;;;;;;;-80.79775;38.357952;-75.457016;;1805.1
1947.0;1902.4;;;;;;;;;;;;;;0.6722007;0.2369457;-0.0966216;;;;;1805.1
1947.0;1902.4;;;;;;;;;;;;;;;;;-79.25657;37.69799;-74.3202;;1814.8
1947.0;1902.4;;;;;;;;;;;;;;0.65791804;0.2450026;-0.09601123;;;;;1814.8
1947.0;1902.4;;;;;;;;;;;;;;;;;-76.94861;37.480545;-72.435684;;1814.8
1947.0;1902.4;;;;;;;;;;;;;;0.64546645;0.27881712;-0.06482132;;;;;1814.8
1947.0;1903.2;;;;;;;;;;;;;;;;;-75.178535;36.29032;-69.26939;;1824.4
1947.0;1903.2;;;;;;;;;;;;;;0.6329539;0.28193;-0.04095584;;;;;1824.4
1947.0;1903.2;;;;;;;;;;;;;;;;;-73.4962;34.684284;-65.790276;;1824.4
1947.0;1903.2;;;;;;;;;;;;;;0.6330149;0.27033296;-0.028321177;;;;;1824.4
1947.0;1903.2;;;;;;;;;;;;;;;;;-71.28742;34.39436;-62.3455;;1834.1
1947.0;1903.2;;;;;;;;;;;;;;0.62086856;0.27491075;-0.016968291;;;;;1834.1
1947.0;1903.2;;;;;;;;;;;;;;;;;-69.83779;34.028137;-58.08817;;1834.1
1947.0;1903.2;;;;;;;;;;;;;;0.60640275;0.28711814;-0.0048219245;;;;;1834.1
1947.0;1903.2;;;;;;;;;;;;;;;;;-68.77346;33.715324;-53.216652;;1843.7
1947.0;1903.2;;;;;;;;;;;;;;0.5962706;0.3020722;0.017456587;;;;;1843.7
1947.0;1903.2;;;;;;;;;;;;;;;;;-67.712944;32.559437;-47.79199;;1843.7
1947.0;1903.2;;;;;;;;;;;;;;0.58967865;0.29621264;0.018799402;;;;;1843.7
1955.0;1903.5;262143;262143;13105;;;;;;;;;;;;;;;;;;
1955.0;1910.4;;;;-0.87417614;-0.23220828;-0.32213596;;;;;;;;;;;;;;;
1955.0;1910.4;;;;-0.8815576;-0.23316577;-0.32561496;;;;;;;;;;;;;;;
1955.0;1910.4;;;;-0.888363;-0.23396686;-0.32838824;;;;;;;;;;;;;;;
1955.0;1910.4;;;;-0.8940507;-0.23526385;-0.3321381;;;;;;;;;;;;;;;
1955.0;1910.4;;;;-0.89696133;-0.2362862;-0.33492664;;;;;;;;;;;;;;;
1955.0;1910.9;;;;;;;;;;-20.203253;2.2392957;7.026887;;;;;;;;;
1955.0;1910.9;;;;;;;0.92605364;0.12872708;-0.3695181;;;;;;;;;;;;
1955.0;1910.9;;;;;;;;;;-19.207588;3.5554063;6.920072;;;;;;;;;
1955.0;1910.9;;;;;;;0.94204533;0.13135166;-0.37324136;;;;;;;;;;;;
1955.0;1920.4;;;;-0.8986856;-0.23773578;-0.33694842;;;;;;;;;;;;;;;
1955.0;1920.4;;;;-0.9007112;-0.23902515;-0.33874896;;;;;;;;;;;;;;;
1955.0;1920.4;;;;-0.903;-0.23991397;-0.3393593;;;;;;;;;;;;;;;
1955.0;1920.4;;;;-0.9049188;-0.24071506;-0.33980945;;;;;;;;;;;;;;;
1955.0;1920.4;;;;-0.90734494;-0.24159244;-0.33963016;;;;;;;;;;;;;;;
1955.0;1920.5;;;;;;;;;;-18.238625;5.0279245;6.530961;;;;;;;;;
1955.0;1920.5;;;;;;;0.9537034;0.13440351;-0.38013855;;;;;;;;;;;;
1955.0;1920.5;;;;;;;;;;-17.16666;6.416517;6.4546647;;;;;;;;;
1955.0;1920.5;;;;;;;0.96511734;0.13544114;-0.3878292;;;;;;;;;;;;
1955.0;1923.7;262143;262143;13103;;;;;;;;;;;;;;;;;;
1955.0;1929.7;;;;;;;;;;;;;672;;;;;;;;
1955.0;1929.7;;;;;;;;;;;;;827;;;;;;;;
1955.0;1929.7;;;;;;;;;;;;;1273;;;;;;;;
1955.0;1929.7;;;;;;;;;;;;;1627;;;;;;;;
1955.0;1929.7;;;;;;;;;;;;;1587;;;;;;;;
1999.0;1930.0;;;;;;;;;;-16.113773;7.9119234;6.2944427;;;;;;;;;
1999.0;1930.0;;;;;;;0.9792169;0.1429487;-0.3961913;;;;;;;;;;;;
1999.0;1930.0;;;;;;;;;;-14.999847;9.437849;5.9320354;;;;;;;;;
1999.0;1930.0;;;;;;;0.9798273;0.14270455;-0.40198982;;;;;;;;;;;;
1999.0;1930.4;;;;-0.9088403;-0.24235156;-0.33993152;;;;;;;;;;;;;;;
1999.0;1930.4;;;;-0.9114686;-0.24269488;-0.3402901;;;;;;;;;;;;;;;
1999.0;1930.4;;;;-0.9151269;-0.24382785;-0.34112552;;;;;;;;;;;;;;;
1999.0;1930.4;;;;-0.9207803;-0.24420169;-0.34246066;;;;;;;;;;;;;;;
1999.0;1930.4;;;;-0.92784894;-0.2448807;-0.34399417;;;;;;;;;;;;;;;
1999.0;1939.4;;;;;;;;;;-13.8363285;10.517442;6.172369;;;;;;;;;
1999.0;1939.4;;;;;;;0.97775203;0.14160588;-0.40717795;;;;;;;;;;;;
1999.0;1939.4;;;;;;;;;;-12.939848;11.066774;6.2181463;;;;;;;;;
1999.0;1939.4;;;;;;;0.9837947;0.15009002;-0.41950744;;;;;;;;;;;;
1999.0;1940.3;;;;-0.93590176;-0.2459946;-0.34479144;;;;;;;;;;;;;;;
1999.0;1940.3;;;;-0.94316113;-0.2472153;-0.34555057;;;;;;;;;;;;;;;
1999.0;1940.3;;;;-0.94861996;-0.24851611;-0.3462334;;;;;;;;;;;;;;;
1999.0;1940.3;;;;-0.9515382;-0.24983981;-0.34738162;;;;;;;;;;;;;;;
1999.0;1940.3;;;;-0.95243084;-0.25086978;-0.34902576;;;;;;;;;;;;;;;
1999.0;1943.7;262143;262143;13107;;;;;;;;;;;;;;;;;;
1999.0;1949.1;;;;;;;;;;-11.864071;11.860256;5.878628;;;;;;;;;
1999.0;1949.1;;;;;;;0.9867855;0.14777063;-0.43061617;;;;;;;;;;;;
1999.0;1949.1;;;;;;;;;;-10.696738;12.29896;6.14948;;;;;;;;;
1999.0;1949.1;;;;;;;0.9949034;0.14087345;-0.44331187;;;;;;;;;;;;
2003.0;1950.4;;;;-0.9520227;-0.251915;-0.3502846;;;;;;;;;;;;;;;
2003.0;1950.4;;;;-0.95118344;-0.25268176;-0.35146716;;;;;;;;;;;;;;;
2003.0;1950.4;;;;-0.9501573;-0.25332645;-0.35304645;;;;;;;;;;;;;;;
2003.0;1950.4;;;;-0.9504396;-0.2543564;-0.35424808;;;;;;;;;;;;;;;
2003.0;1950.4;;;;-0.9511148;-0.2555504;-0.35490802;;;;;;;;;;;;;;;
2003.0;1958.7;;;;;;;;;;-9.594256;12.878811;6.3974423;;;;;;;;;
2003.0;1958.7;;;;;;;1.0079043;0.13812678;-0.4558855;;;;;;;;;;;;
2003.0;1958.7;;;;;;;;;;-8.419294;13.298441;6.366924;;;;;;;;;
2003.0;1958.7;;;;;;;1.0200506;0.14069033;-0.46827602;;;;;;;;;;;;
2003.0;1960.6;;;;-0.9533807;-0.2571564;-0.3569832;;;;;;;;;;;;;;;
2003.0;1960.6;;;;-0.9560472;-0.25690463;-0.36063388;;;;;;;;;;;;;;;
2003.0;1960.6;;;;-0.9608041;-0.25714877;-0.3629265;;;;;;;;;;;;;;;
2003.0;1960.6;;;;-0.97000897;-0.2583504;-0.36487964;;;;;;;;;;;;;;;
2003.0;1960.6;;;;-0.97807705;-0.25916293;-0.36685184;;;;;;;;;;;;;;;
2005.0;1962.6;;;;;;;;;;;;;;;;;-66.019165;32.05588;-42.88995;;1853.4
2005.0;1962.6;;;;;;;;;;;;;;0.58101135;0.3106174;0.012451552;;;;;1853.4
2005.0;1962.6;;;;;;;;;;;;;;;;;-63.901947;31.807919;-37.842953;;1853.4
2005.0;1962.6;;;;;;;;;;;;;;0.5572069;0.32483903;0.021362957;;;;;1853.4
2005.0;1962.6;;;;;;;;;;;;;;;;;-61.136204;30.087435;-32.73873;;1863.0
2005.0;1962.6;;;;;;;;;;;;;;0.54628134;0.32129887;0.021179846;;;;;1863.0
2005.0;1962.6;;;;;;;;;;;;;;;;;-57.348095;28.283028;-28.34025;;1863.0
2005.0;1962.6;;;;;;;;;;;;;;0.54286325;0.34498122;0.021851253;;;;;1863.0
2005.0;1962.6;;;;;;;;;;;;;;;;;-53.651543;27.176733;-23.834957;;1872.4
2005.0;1962.6;;;;;;;;;;;;;;0.53712577;0.3651845;0.032593768;;;;;1872.4
2005.0;1962.6;;;;;;;;;;;;;;;;;-50.077057;26.478622;-19.36018;;1872.4
2005.0;1962.6;;;;;;;;;;;;;;0.52412486;0.37189856;0.046388134;;;;;1872.4
2005.0;1963.8;;;;;;;;;;;;;;;;;-46.31565;25.505844;-14.9616995;;1882.1
2005.0;1963.8;;;;;;;;;;;;;;0.51301616;0.35969114;0.061098058;;;;;1882.1
2005.0;1963.8;;;;;;;;;;;;;;;;;-42.13843;24.723808;-10.917997;;1882.1
2005.0;1963.8;;;;;;;;;;;;;;0.49092075;0.36475724;0.09155553;;;;;1882.1
2005.0;1963.8;;;;;;;;;;;;;;;;;-38.91873;22.194586;-6.9009976;;1891.8
2005.0;1963.8;;;;;;;;;;;;;;0.4735252;0.36841944;0.11444441;;;;;1891.8
2005.0;1963.8;;;;;;;;;;;;;;;;;-36.557358;19.066439;-2.6055179;;1891.8
2005.0;1963.8;;;;;;;;;;;;;;0.4613788;0.37684256;0.12347789;;;;;1891.8
2005.0;1963.8;;;;;;;;;;;;;;;;;-34.653767;16.560106;1.4725181;;1901.4
2005.0;1963.8;;;;;;;;;;;;;;0.44099247;0.39979246;0.13574633;;;;;1901.4
2005.0;1963.8;;;;;;;;;;;;;;;;;-33.391068;13.744773;5.031739;;1901.4
2005.0;1963.8;;;;;;;;;;;;;;0.420423;0.42756432;0.13562426;;;;;1901.4
2007.0;1963.7;262143;262143;13109;;;;;;;;;;;;;;;;;;
2007.0;1968.1;;;;;;;;;;-7.3435163;13.679922;6.3173313;;;;;;;;;
2007.0;1968.1;;;;;;;1.0318918;0.14307077;-0.48005617;;;;;;;;;;;;
2007.0;1968.1;;;;;;;;;;-6.2524796;13.779107;6.511887;;;;;;;;;
2007.0;1968.1;;;;;;;1.0445875;0.14166692;-0.48890653;;;;;;;;;;;;
2007.0;1969.7;;;;;;;;;;;;;1372;;;;;;;;
2007.0;1969.7;;;;;;;;;;;;;1442;;;;;;;;
2007.0;1969.7;;;;;;;;;;;;;1833;;;;;;;;
2007.0;1969.7;;;;;;;;;;;;;2071;;;;;;;;
2007.0;1969.7;;;;;;;;;;;;;1816;;;;;;;;
2007.0;1970.3;;;;-0.9855844;-0.26045993;-0.36861423;;;;;;;;;;;;;;;
2007.0;1970.3;;;;-0.99084866;-0.26170352;-0.36989215;;;;;;;;;;;;;;;
2007.0;1970.3;;;;-0.9934045;-0.26303485;-0.3711243;;;;;;;;;;;;;;;
2007.0;1970.3;;;;-0.99323285;-0.26342776;-0.3728638;;;;;;;;;;;;;;;
2007.0;1970.3;;;;-0.9910432;-0.26345828;-0.37410358;;;;;;;;;;;;;;;
2007.0;1977.5;;;;;;;;;;-5.2301097;13.714254;6.599628;;;;;;;;;
2007.0;1977.5;;;;;;;1.0555131;0.13879818;-0.49653614;;;;;;;;;;;;
2007.0;1977.5;;;;;;;;;;-4.127629;13.824884;6.5614796;;;;;;;;;
2007.0;1977.5;;;;;;;1.0686972;0.13110752;-0.4975738;;;;;;;;;;;;
2007.0;1980.3;;;;-0.9881631;-0.26345447;-0.37595373;;;;;;;;;;;;;;;
2007.0;1980.3;;;;-0.98568356;-0.26423648;-0.37812048;;;;;;;;;;;;;;;
2007.0;1980.3;;;;-0.985016;-0.26471713;-0.37914664;;;;;;;;;;;;;;;
2007.0;1980.3;;;;-0.985016;-0.26486972;-0.38016516;;;;;;;;;;;;;;;
2007.0;1980.3;;;;-0.98689663;-0.26606753;-0.3807755;;;;;;;;;;;;;;;
2007.0;1983.8;262143;262143;13122;;;;;;;;;;;;;;;;;;
2059.0;1987.1;;;;;;;;;;-2.9259622;13.584552;6.653035;;;;;;;;;
2059.0;1987.1;;;;;;;1.0820032;0.12335581;-0.50148016;;;;;;;;;;;;
2059.0;1987.1;;;;;;;;;;-1.6403699;13.225959;6.904813;;;;;;;;;
2059.0;1987.1;;;;;;;1.0886563;0.12024293;-0.5067293;;;;;;;;;;;;
2059.0;1990.3;;;;-0.9895288;-0.2673073;-0.3826447;;;;;;;;;;;;;;;
2059.0;1990.3;;;;-0.9924356;-0.26894;-0.383236;;;;;;;;;;;;;;;
2059.0;1990.3;;;;-0.9955636;-0.26998904;-0.38566977;;;;;;;;;;;;;;;
2059.0;1990.3;;;;-0.99922955;-0.27038196;-0.38784415;;;;;;;;;;;;;;;
2059.0;1990.3;;;;-1.0029489;-0.27152637;-0.39086157;;;;;;;;;;;;;;;
2059.0;1996.5;;;;;;;;;;-0.40437025;13.142034;7.3206277;;;;;;;;;
2059.0;1996.5;;;;;;;1.1050752;0.11560412;-0.511124;;;;;;;;;;;;
2059.0;1996.5;;;;;;;;;;0.8125553;12.974181;7.5189977;;;;;;;;;
2059.0;1996.5;;;;;;;1.126194;0.10895108;-0.5149083;;;;;;;;;;;;
2059.0;2000.3;;;;-1.0058519;-0.27292255;-0.392582;;;;;;;;;;;;;;;
2059.0;2000.3;;;;-1.0082399;-0.2748795;-0.39406973;;;;;;;;;;;;;;;
2059.0;2000.3;;;;-1.0105935;-0.27569202;-0.39453512;;;;;;;;;;;;;;;
2059.0;2000.3;;;;-1.0128137;-0.2767258;-0.3945008;;;;;;;;;;;;;;;
2059.0;2000.3;;;;-1.0142938;-0.27770236;-0.3939095;;;;;;;;;;;;;;;
2059.0;2003.8;262143;262143;13119;;;;;;;;;;;;;;;;;;
2059.0;2006.1;;;;;;;;;;2.0867033;12.600329;7.7326274;;;;;;;;;
2059.0;2006.1;;;;;;;1.1430403;0.10559405;-0.5195471;;;;;;;;;;;;
2059.0;2006.1;;;;;;;;;;3.173925;12.211219;7.854701;;;;;;;;;
2059.0;2006.1;;;;;;;1.147557;0.095706046;-0.52308726;;;;;;;;;;;;
2062.0;2009.9;;;;;;;;;;;;;1377;;;;;;;;
2062.0;2009.9;;;;;;;;;;;;;1301;;;;;;;;
2062.0;2009.9;;;;;;;;;;;;;1543;;;;;;;;
2062.0;2009.9;;;;;;;;;;;;;1574;;;;;;;;
2062.0;2009.9;;;;;;;;;;;;;1390;;;;;;;;
2062.0;2010.4;;;;-1.0144273;-0.2785416;-0.39378363;;;;;;;;;;;;;;;
2062.0;2010.4;;;;-1.0142404;-0.2783356;-0.39466864;;;;;;;;;;;;;;;
2062.0;2010.4;;;;-1.0142671;-0.2777634;-0.3949967;;;;;;;;;;;;;;;
2062.0;2010.4;;;;-1.0172426;-0.27699664;-0.395752;;;;;;;;;;;;;;;
2062.0;2010.4;;;;-1.0214769;-0.27652743;-0.39706045;;;;;;;;;;;;;;;
2062.0;2015.8;;;;;;;;;;4.5167394;11.768701;8.285776;;;;;;;;;
2062.0;2015.8;;;;;;;1.1596423;0.08856472;-0.52882475;;;;;;;;;;;;
2062.0;2015.8;;;;;;;;;;5.733665;11.123997;8.751183;;;;;;;;;
2062.0;2015.8;;;;;;;1.1743523;0.0860622;-0.53151035;;;;;;;;;;;;
2062.0;2020.5;;;;-1.026394;-0.2759438;-0.39706045;;;;;;;;;;;;;;;
2062.0;2020.5;;;;-1.0301591;-0.2752724;-0.3966332;;;;;;;;;;;;;;;
2062.0;2020.5;;;;-1.0330201;-0.2742844;-0.3973847;;;;;;;;;;;;;;;
2062.0;2020.5;;;;-1.0341569;-0.27355197;-0.39888388;;;;;;;;;;;;;;;
2062.0;2020.5;;;;-1.03463;-0.2723656;-0.40014654;;;;;;;;;;;;;;;
2065.0;2022.7;;;;;;;;;;;;;;;;;-31.640064;10.376293;8.259072;;1911.1
2065.0;2022.7;;;;;;;;;;;;;;0.40699485;0.44758445;0.12927641;;;;;1911.1
2065.0;2022.7;;;;;;;;;;;;;;;;;-28.538622;7.000183;11.051516;;1911.1
2065.0;2022.7;;;;;;;;;;;;;;0.3999756;0.47328106;0.12079226;;;;;1911.1
2065.0;2022.7;;;;;;;;;;;;;;;;;-23.735771;3.6126287;13.233589;;1920.7
2065.0;2022.7;;;;;;;;;;;;;;0.39381084;0.49171424;0.12402722;;;;;1920.7
2065.0;2022.7;;;;;;;;;;;;;;;;;-16.701256;-0.0839259;14.5535145;;1920.7
2065.0;2022.7;;;;;;;;;;;;;;0.3864864;0.50526446;0.13647878;;;;;1920.7
2065.0;2022.7;;;;;;;;;;;;;;;;;-7.5037384;-4.7189245;14.824367;;1930.4
2065.0;2022.7;;;;;;;;;;;;;;0.3867916;0.51796013;0.15295877;;;;;1930.4
2065.0;2022.7;;;;;;;;;;;;;;;;;3.322703;-10.258034;14.099551;;1930.4
2065.0;2022.7;;;;;;;;;;;;;;0.38587603;0.54811245;0.1683401;;;;;1930.4
2065.0;2023.4;;;;;;;;;;;;;;;;;14.770959;-16.853848;12.894071;;1940.0
2065.0;2023.4;;;;;;;;;;;;;;0.39179662;0.5802179;0.18018128;;;;;1940.0
2065.0;2023.4;;;;;;;;;;;;;;;;;26.3184;-23.44203;11.444441;;1940.0
2065.0;2023.4;;;;;;;;;;;;;;0.4132206;0.6290475;0.1633961;;;;;1940.0
2065.0;2023.4;;;;;;;;;;;;;;;;;36.618397;-28.153324;10.2732935;;1949.6
2065.0;2023.4;;;;;;;;;;;;;;0.43855098;0.69209874;0.13446455;;;;;1949.6
2065.0;2023.4;;;;;;;;;;;;;;;;;44.78591;-30.93051;9.975738;;1949.6
2065.0;2023.4;;;;;;;;;;;;;;0.4422132;0.75337994;0.101260416;;;;;1949.6
2065.0;2023.4;;;;;;;;;;;;;;;;;50.37843;-32.971436;10.513627;;1959.2
2065.0;2023.4;;;;;;;;;;;;;;0.46388134;0.8217414;0.051637318;;;;;1959.2
2065.0;2023.4;;;;;;;;;;;;;;;;;53.724022;-32.734917;12.070071;;1959.2
2065.0;2023.4;;;;;;;;;;;;;;0.46882534;0.8840602;-0.010925626;;;;;1959.2
2066.0;2023.8;262143;262143;13119;;;;;;;;;;;;;;;;;;
2066.0;2025.2;;;;;;;;;;6.96585;10.769219;9.094516;;;;;;;;;
2066.0;2025.2;;;;;;;1.1896116;0.08209479;-0.52809227;;;;;;;;;;;;
2066.0;2025.2;;;;;;;;;;8.327739;10.208442;9.3577385;;;;;;;;;
2066.0;2025.2;;;;;;;1.2021852;0.077761166;-0.52320933;;;;;;;;;;;;
2066.0;2030.3;;;;-1.036255;-0.27107623;-0.40224844;;;;;;;;;;;;;;;
2066.0;2030.3;;;;-1.0397111;-0.2696915;-0.40364844;;;;;;;;;;;;;;;
2066.0;2030.3;;;;-1.0448114;-0.26946643;-0.4039002;;;;;;;;;;;;;;;
2066.0;2030.3;;;;-1.0517427;-0.2686005;-0.40406424;;;;;;;;;;;;;;;
2066.0;2030.3;;;;-1.057995;-0.26757434;-0.40536505;;;;;;;;;;;;;;;
2066.0;2034.7;;;;;;;;;;9.842219;9.720146;9.552294;;;;;;;;;
2066.0;2034.7;;;;;;;1.2125614;0.07556383;-0.51637316;;;;;;;;;;;;
2066.0;2034.7;;;;;;;;;;11.314737;9.23185;9.784997;;;;;;;;;
2066.0;2034.7;;;;;;;1.2168341;0.066530354;-0.5051424;;;;;;;;;;;;
2066.0;2040.3;;;;-1.0642473;-0.26742175;-0.4057122;;;;;;;;;;;;;;;
2066.0;2040.3;;;;-1.0694085;-0.26645282;-0.40554434;;;;;;;;;;;;;;;
2066.0;2040.3;;;;-1.0748178;-0.26536945;-0.40511328;;;;;;;;;;;;;;;
2066.0;2040.3;;;;-1.0794984;-0.2647057;-0.4050637;;;;;;;;;;;;;;;
2066.0;2040.3;;;;-1.0843812;-0.26287082;-0.40412146;;;;;;;;;;;;;;;
2066.0;2044.2;;;;;;;;;;12.989441;8.850368;10.13596;;;;;;;;;
2066.0;2044.2;;;;;;;1.2200689;0.05627613;-0.49763483;;;;;;;;;;;;
2066.0;2044.2;;;;;;;;;;14.656514;8.350628;10.486923;;;;;;;;;
2066.0;2044.2;;;;;;;1.2193365;0.05017243;-0.4865871;;;;;;;;;;;;
2178.0;2043.9;262143;262143;13113;;;;;;;;;;;;;;;;;;
2178.0;2049.9;;;;;;;;;;;;;1286;;;;;;;;
2178.0;2049.9;;;;;;;;;;;;;1140;;;;;;;;
2178.0;2049.9;;;;;;;;;;;;;628;;;;;;;;
2178.0;2049.9;;;;;;;;;;;;;6;;;;;;;;
2178.0;2049.9;;;;;;;;;;;;;-75;;;;;;;;
2178.0;2050.3;;;;-1.0882341;-0.26168445;-0.40196615;;;;;;;;;;;;;;;
2178.0;2050.3;;;;-1.0928804;-0.25981525;-0.40055472;;;;;;;;;;;;;;;
2178.0;2050.3;;;;-1.0990487;-0.2585869;-0.39940268;;;;;;;;;;;;;;;
2178.0;2050.3;;;;-1.1058198;-0.25846103;-0.39810568;;;;;;;;;;;;;;;
2178.0;2050.3;;;;-1.1099817;-0.2575684;-0.39648443;;;;;;;;;;;;;;;
2178.0;2053.5;;;;;;;;;;16.407515;8.175146;10.731071;;;;;;;;;
2178.0;2053.5;;;;;;;1.2182989;0.046632282;-0.47853023;;;;;;;;;;;;
2178.0;2053.5;;;;;;;;;;18.150883;8.049257;11.078218;;;;;;;;;
2178.0;2053.5;;;;;;;1.2125003;0.046205025;-0.47114474;;;;;;;;;;;;
2178.0;2060.1;;;;-1.1121522;-0.25709918;-0.3970757;;;;;;;;;;;;;;;
2178.0;2060.1;;;;-1.1135865;-0.25766376;-0.3982163;;;;;;;;;;;;;;;
2178.0;2060.1;;;;-1.113247;-0.2592812;-0.40017325;;;;;;;;;;;;;;;
2178.0;2060.1;;;;-1.1123544;-0.2614136;-0.40188605;;;;;;;;;;;;;;;
2178.0;2060.1;;;;-1.111538;-0.26285556;-0.40364844;;;;;;;;;;;;;;;
2178.0;2063.1;;;;;;;;;;19.936216;8.18659;11.482589;;;;;;;;;
2178.0;2063.1;;;;;;;1.2009643;0.04443495;-0.46650594;;;;;;;;;;;;
2178.0;2063.1;;;;;;;;;;21.61855;8.095035;11.829738;;;;;;;;;
2178.0;2063.1;;;;;;;1.1858273;0.037110507;-0.46455276;;;;;;;;;;;;
2178.0;2063.8;262143;262143;13116;;;;;;;;;;;;;;;;;;
2184.0;2070.2;;;;-1.111992;-0.26352695;-0.40586478;;;;;;;;;;;;;;;
2184.0;2070.2;;;;-1.113556;-0.26461795;-0.40965277;;;;;;;;;;;;;;;
2184.0;2070.2;;;;-1.1155549;-0.26705173;-0.41333014;;;;;;;;;;;;;;;
2184.0;2070.2;;;;-1.1169893;-0.2686272;-0.41694647;;;;;;;;;;;;;;;
2184.0;2070.2;;;;-1.1182138;-0.2708855;-0.4215508;;;;;;;;;;;;;;;
2184.0;2072.7;;;;;;;;;;23.1254;7.763146;12.29133;;;;;;;;;
2184.0;2072.7;;;;;;;1.170629;0.03381451;-0.4669332;;;;;;;;;;;;
2184.0;2072.7;;;;;;;;;;24.403364;7.37022;joulu.57;;;;;;;;;
2184.0;2072.7;;;;;;;1.1549425;0.035523545;-0.47199926;;;;;;;;;;;;
2184.0;2080.4;;;;-1.1180688;-0.27116397;-0.42686087;;;;;;;;;;;;;;;
2184.0;2080.4;;;;-1.1187326;-0.2717972;-0.43241125;;;;;;;;;;;;;;;
2184.0;2080.4;;;;-1.118786;-0.27255633;-0.43767172;;;;;;;;;;;;;;;
2184.0;2080.4;;;;-1.1216356;-0.27344897;-0.44409567;;;;;;;;;;;;;;;
2184.0;2080.4;;;;-1.1217386;-0.27524188;-0.4502793;;;;;;;;;;;;;;;
2184.0;2082.3;;;;;;;;;;25.551622;6.9429607;12.890255;;;;;;;;;
2184.0;2082.3;;;;;;;1.1425519;0.035340436;-0.4738914;;;;;;;;;;;;
2184.0;2082.3;;;;;;;;;;26.367992;6.309702;13.126774;;;;;;;;;
2184.0;2082.3;;;;;;;1.1263771;0.034485918;-0.47511217;;;;;;;;;;;;
2187.0;2082.6;;;;;;;;;;;;;;;;;55.795464;-31.506546;14.126255;;1968.8
2187.0;2082.6;;;;;;;;;;;;;;0.43061617;0.9389935;-0.075014494;;;;;1968.8
2187.0;2082.6;;;;;;;;;;;;;;;;;57.134464;-32.914215;16.548662;;1968.8
2187.0;2082.6;;;;;;;;;;;;;;0.37568286;0.9911191;-0.15436262;;;;;1968.8
2187.0;2082.6;;;;;;;;;;;;;;;;;57.493057;-37.14484;19.306772;;1978.5
2187.0;2082.6;;;;;;;;;;;;;;0.3615833;1.0310373;-0.22821741;;;;;1978.5
2187.0;2082.6;;;;;;;;;;;;;;;;;53.73928;-40.959656;23.21314;;1978.5
2187.0;2082.6;;;;;;;;;;;;;;0.31824702;1.0443434;-0.2745445;;;;;1978.5
2187.0;2082.6;;;;;;;;;;;;;;;;;41.947693;-45.71673;29.854733;;1988.1
2187.0;2082.6;;;;;;;;;;;;;;0.34400463;1.0151067;-0.24420911;;;;;1988.1
2187.0;2082.6;;;;;;;;;;;;;;;;;20.928068;-45.9418;38.964508;;1988.1
2187.0;2082.6;;;;;;;;;;;;;;0.43671986;0.9197058;-0.15375225;;;;;1988.1
2187.0;2083.4;;;;;;;;;;;;;;;;;-4.711295;-39.265877;48.6198;;1997.7
2187.0;2083.4;;;;;;;;;;;;;;0.4820704;0.77645195;0.06982635;;;;;1997.7
2187.0;2083.4;;;;;;;;;;;;;;;;;-28.344065;-37.266914;58.362835;;1997.7
2187.0;2083.4;;;;;;;;;;;;;;0.53993344;0.6045717;0.26093325;;;;;1997.7
2187.0;2083.4;;;;;;;;;;;;;;;;;-41.43269;-39.147617;67.4955;;2007.4
2187.0;2083.4;;;;;;;;;;;;;;0.61256754;0.4304941;0.30909148;;;;;2007.4
2187.0;2083.4;;;;;;;;;;;;;;;;;-40.42558;-38.32362;73.88913;;2007.4
2187.0;2083.4;;;;;;;;;;;;;;0.6568804;0.27674183;0.5464034;;;;;2007.4
2187.0;2083.4;;;;;;;;;;;;;;;;;-25.296028;-41.43269;78.39823;;2017.1
2187.0;2083.4;;;;;;;;;;;;;;0.72768337;0.18805505;0.73122346;;;;;2017.1
2187.0;2083.4;;;;;;;;;;;;;;;;;0.21362957;-44.740135;80.465866;;2017.1
2187.0;2083.4;;;;;;;;;;;;;;0.7096774;0.23664053;0.65724665;;;;;2017.1
2190.0;2083.9;262143;262143;13124;;;;;;;;;;;;;;;;;;
2190.0;2089.9;;;;;;;;;;;;;517;;;;;;;;
2190.0;2089.9;;;;;;;;;;;;;1134;;;;;;;;
2190.0;2089.9;;;;;;;;;;;;;1108;;;;;;;;
2190.0;2089.9;;;;;;;;;;;;;794;;;;;;;;
2190.0;2089.9;;;;;;;;;;;;;843;;;;;;;;
2190.0;2090.2;;;;-1.1170655;-0.2749596;-0.45761496;;;;;;;;;;;;;;;
2190.0;2090.2;;;;-1.1180345;-0.27413562;-0.46368033;;;;;;;;;;;;;;;
2190.0;2090.2;;;;-1.1176606;-0.27374652;-0.4701081;;;;;;;;;;;;;;;
2190.0;2090.2;;;;-1.1181337;-0.27406314;-0.47686392;;;;;;;;;;;;;;;
2190.0;2090.2;;;;-1.1195413;-0.2729378;-0.48213965;;;;;;;;;;;;;;;
2190.0;2091.7;;;;;;;;;;26.81814;5.9320354;13.302256;;;;;;;;;
2190.0;2091.7;;;;;;;1.1176488;0.03155614;-0.4771264;;;;;;;;;;;;
2190.0;2091.7;;;;;;;;;;26.825771;5.5352945;13.576922;;;;;;;;;
2190.0;2091.7;;;;;;;1.1075168;0.030335398;-0.4763329;;;;;;;;;;;;
2192.0;2098.0;;;;;;;;;;;;;;;;;30.972471;-54.166542;78.37916;;2026.7
2192.0;2098.0;;;;;;;;;;;;;;0.69435716;0.32831812;0.53456223;;;;;2026.7
2192.0;2098.0;;;;;;;;;;;;;;;;;65.389725;-73.70983;74.78179;;2026.7
2192.0;2098.0;;;;;;;;;;;;;;0.82326734;0.40339366;0.24719992;;;;;2026.7
2192.0;2098.0;;;;;;;;;;;;;;;;;96.33931;-91.11682;69.92553;;2036.3
2192.0;2098.0;;;;;;;;;;;;;;0.9229408;0.49592578;-0.1010773;;;;;2036.3
2192.0;2098.0;;;;;;;;;;;;;;;;;116.64556;-102.78634;65.32106;;2036.3
2192.0;2098.0;;;;;;;;;;;;;;0.9911191;0.5726493;-0.47627187;;;;;2036.3
2192.0;2098.0;;;;;;;;;;;;;;;;;119.65545;-102.66427;64.882355;;2045.9
2192.0;2098.0;;;;;;;;;;;;;;1.1834468;0.6720786;-0.5049593;;;;;2045.9
2192.0;2098.0;;;;;;;;;;;;;;;;;110.786;-92.72668;72.47383;;2045.9
2192.0;2098.0;;;;;;;;;;;;;;1.436079;0.79946285;-0.38886684;;;;;2045.9
2192.0;2100.1;;;;-1.1200029;-0.27279285;-0.48792654;;;;;;;;;;;;;;;
2192.0;2100.1;;;;-1.1203843;-0.27491382;-0.49343497;;;;;;;;;;;;;;;
2192.0;2100.1;;;;-1.1219484;-0.27546695;-0.5011216;;;;;;;;;;;;;;;
2192.0;2100.1;;;;-1.1245614;-0.2759438;-0.51029974;;;;;;;;;;;;;;;
2192.0;2100.1;;;;-1.1267854;-0.27473453;-0.5179139;;;;;;;;;;;;;;;
2192.0;2101.1;;;;;;;;;;26.50914;4.894406;13.698996;;;;;;;;;
2192.0;2101.1;;;;;;;1.1037325;0.030396435;-0.47596666;;;;;;;;;;;;
2192.0;2101.1;;;;;;;;;;26.005585;4.3908505;13.53496;;;;;;;;;
2192.0;2101.1;;;;;;;1.101291;0.029602954;-0.47096163;;;;;;;;;;;;
2192.0;2103.9;262143;262143;13110;;;;;;;;;;;;;;;;;;
2193.0;2110.2;;;;-1.1304857;-0.27364352;-0.52511984;;;;;;;;;;;;;;;
2193.0;2110.2;;;;-1.1362382;-0.27388766;-0.5331803;;;;;;;;;;;;;;;
2193.0;2110.2;;;;-1.1417543;-0.274231;-0.54100424;;;;;;;;;;;;;;;
2193.0;2110.2;;;;-1.1477395;-0.27391055;-0.54936606;;;;;;;;;;;;;;;
2193.0;2110.2;;;;-1.152836;-0.27263263;-0.55663687;;;;;;;;;;;;;;;
2193.0;2110.7;;;;;;;;;;25.27314;4.058962;13.119144;;;;;;;;;
2193.0;2110.7;;;;;;;1.0986663;0.029786065;-0.4615009;;;;;;;;;;;;
2193.0;2110.7;;;;;;;;;;24.231697;3.810999;12.489699;;;;;;;;;
2193.0;2110.7;;;;;;;1.1048921;0.026551103;-0.44782862;;;;;;;;;;;;
2193.0;2120.2;;;;-1.1576616;-0.2710152;-0.56374365;;;;;;;;;;;;;;;
2193.0;2120.2;;;;-1.1645738;-0.27002338;-0.57077414;;;;;;;;;;;;;;;
2193.0;2120.2;;;;-1.1680719;-0.26812747;-0.5763665;;;;;;;;;;;;;;;
2193.0;2120.2;;;;-1.1681138;-0.26446918;-0.58295065;;;;;;;;;;;;;;;
2193.0;2120.2;;;;-1.1722986;-0.26093677;-0.5867806;;;;;;;;;;;;;;;
2193.0;2120.3;;;;;;;;;;23.159733;3.5973694;11.532182;;;;;;;;;
2193.0;2120.3;;;;;;;1.1061739;0.0237434;-0.42872402;;;;;;;;;;;;
2193.0;2120.3;;;;;;;;;;22.122105;3.3913696;10.3228855;;;;;;;;;
2193.0;2120.3;;;;;;;1.0990325;0.02417066;-0.40736106;;;;;;;;;;;;
2193.0;2124.1;262143;262143;13114;;;;;;;;;;;;;;;;;;
2193.0;2129.9;;;;;;;;;;21.076845;3.4867396;9.155553;;;;;;;;;
2193.0;2129.9;;;;;;;1.0860317;0.022034364;-0.38142034;;;;;;;;;;;;
2193.0;2129.9;;;;;;;;;;20.16129;3.0709252;8.003479;;;;;;;;;
2193.0;2129.9;;;;;;;1.0682088;0.019348735;-0.3634144;;;;;;;;;;;;
2195.0;2130.1;;;;;;;;;;;;;847;;;;;;;;
2195.0;2130.1;;;;;;;;;;;;;333;;;;;;;;
2195.0;2130.1;;;;;;;;;;;;;177;;;;;;;;
2195.0;2130.1;;;;;;;;;;;;;1859;;;;;;;;
2195.0;2130.1;;;;;;;;;;;;;3654;;;;;;;;
2195.0;2130.3;;;;-1.1757051;-0.25748447;-0.5902749;;;;;;;;;;;;;;;
2195.0;2130.3;;;;-1.1795808;-0.25312045;-0.5933152;;;;;;;;;;;;;;;
2195.0;2130.3;;;;-1.182419;-0.24919894;-0.5954247;;;;;;;;;;;;;;;
2195.0;2130.3;;;;-1.1829797;-0.24451831;-0.59730154;;;;;;;;;;;;;;;
2195.0;2130.3;;;;-1.181717;-0.23851398;-0.59898;;;;;;;;;;;;;;;
2195.0;2139.6;;;;;;;;;;19.318218;2.6703696;6.904813;;;;;;;;;
2195.0;2139.6;;;;;;;1.0539873;0.020325327;-0.35023043;;;;;;;;;;;;
2195.0;2139.6;;;;;;;;;;18.459883;3.456221;5.691702;;;;;;;;;
2195.0;2139.6;;;;;;;1.0532548;0.02191229;-0.34058657;;;;;;;;;;;;
2195.0;2140.5;;;;-1.1830903;-0.2344704;-0.59938055;;;;;;;;;;;;;;;
2195.0;2140.5;;;;-1.1855012;-0.23118213;-0.59865576;;;;;;;;;;;;;;;
2195.0;2140.5;;;;-1.1835252;-0.22537616;-0.59789664;;;;;;;;;;;;;;;
2195.0;2140.5;;;;-1.1816827;-0.21976092;-0.59683233;;;;;;;;;;;;;;;
2195.0;2140.5;;;;-1.1798288;-0.21595004;-0.5949097;;;;;;;;;;;;;;;
2196.0;2142.8;;;;;;;;;;;;;;;;;99.94811;-81.23646;82.80816;;2055.4
2196.0;2142.8;;;;;;;;;;;;;;1.5666982;0.8310801;-0.45057526;;;;;2055.4
2196.0;2142.8;;;;;;;;;;;;;;;;;91.08249;-75.51424;89.42686;;2055.4
2196.0;2142.8;;;;;;;;;;;;;;1.6807764;0.83962524;-0.3632313;;;;;2055.4
2196.0;2142.8;;;;;;;;;;;;;;;;;86.17283;-81.24027;89.80071;;2064.9
2196.0;2142.8;;;;;;;;;;;;;;1.8857998;0.81710255;-0.4594867;;;;;2064.9
2196.0;2142.8;;;;;;;;;;;;;;;;;82.28553;-81.0686;82.4839;;2064.9
2196.0;2142.8;;;;;;;;;;;;;;1.9935911;0.7869503;-0.7484359;;;;;2064.9
2196.0;2142.8;;;;;;;;;;;;;;;;;68.628494;-63.52809;70.88305;;2074.5
2196.0;2142.8;;;;;;;;;;;;;;1.9970092;0.737022;-0.6731773;;;;;2074.5
2196.0;2142.8;;;;;;;;;;;;;;;;;58.17591;-46.73147;58.393353;;2074.5
2196.0;2142.8;;;;;;;;;;;;;;1.9698477;0.6862392;-0.5229652;;;;;2074.5
2196.0;2144.1;262143;262143;13118;;;;;;;;;;;;;;;;;;
2196.0;2149.0;;;;;;;;;;17.872402;5.035554;4.3946652;;;;;;;;;
2196.0;2149.0;;;;;;;1.061861;0.019165624;-0.33362836;;;;;;;;;;;;
2196.0;2149.0;;;;;;;;;;17.384106;7.1832943;3.1586657;;;;;;;;;
2196.0;2149.0;;;;;;;1.0619221;0.013794366;-0.32935575;;;;;;;;;;;;
2196.0;2150.3;;;;-1.175625;-0.2116318;-0.5928002;;;;;;;;;;;;;;;
2196.0;2150.3;;;;-1.1692392;-0.20839694;-0.59058005;;;;;;;;;;;;;;;
2196.0;2150.3;;;;-1.1627008;-0.20450595;-0.5886994;;;;;;;;;;;;;;;
2196.0;2150.3;;;;-1.1567689;-0.19940951;-0.5864373;;;;;;;;;;;;;;;
2196.0;2150.3;;;;-1.1526223;-0.19631961;-0.5835839;;;;;;;;;;;;;;;
2198.0;2157.8;;;;;;;;;;;;;;;;;55.57802;-39.10565;46.81921;;2084.2
2198.0;2157.8;;;;;;;;;;;;;;1.802118;0.6608478;-0.39893797;;;;;2084.2
2198.0;2157.8;;;;;;;;;;;;;;;;;53.601948;-34.100616;37.110508;;2084.2
2198.0;2157.8;;;;;;;;;;;;;;1.5254372;0.6570635;-0.25501266;;;;;2084.2
2198.0;2157.8;;;;;;;;;;;;;;;;;49.974056;-30.514694;31.228065;;2093.9
2198.0;2157.8;;;;;;;;;;;;;;1.2104251;0.64461195;-0.2111881;;;;;2093.9
2198.0;2157.8;;;;;;;;;;;;;;;;;43.557545;-27.43614;29.427473;;2093.9
2198.0;2157.8;;;;;;;;;;;;;;0.967803;0.63386947;-0.1685232;;;;;2093.9
2198.0;2157.8;;;;;;;;;;;;;;;;;37.94214;-23.998993;30.73214;;2103.4
2198.0;2157.8;;;;;;;;;;;;;;0.758446;0.6103702;-0.11859493;;;;;2103.4
2198.0;2157.8;;;;;;;;;;;;;;;;;36.008026;-23.270363;33.276623;;2103.4
2198.0;2157.8;;;;;;;;;;;;;;0.59035003;0.58162177;-0.11963256;;;;;2103.4
2198.0;2158.3;;;;;;;;;;17.021698;10.021515;2.071444;;;;;;;;;
2198.0;2158.3;;;;;;;1.0550859;0.009521775;-0.32660908;;;;;;;;;;;;
2198.0;2158.3;;;;;;;;;;16.842403;13.428144;1.1940367;;;;;;;;;
2198.0;2158.3;;;;;;;1.0489212;0.0015259255;-0.3253273;;;;;;;;;;;;
2198.0;2160.2;;;;-1.147297;-0.1931763;-0.5798989;;;;;;;;;;;;;;;
2198.0;2160.2;;;;-1.1424676;-0.19038013;-0.5763894;;;;;;;;;;;;;;;
2198.0;2160.2;;;;-1.1391641;-0.18756106;-0.5731202;;;;;;;;;;;;;;;
2198.0;2160.2;;;;-1.1375123;-0.1852112;-0.5690766;;;;;;;;;;;;;;;
2198.0;2160.2;;;;-1.139042;-0.1831894;-0.56600577;;;;;;;;;;;;;;;
2198.0;2164.2;262143;262143;13122;;;;;;;;;;;;;;;;;;
2238.0;2168.0;;;;;;;;;;16.663107;16.773737;0.3929258;;;;;;;;;
2238.0;2168.0;;;;;;;1.0409863;-0.0026856288;-0.3227027;;;;;;;;;;;;
2238.0;2168.0;;;;;;;;;;16.590626;19.550919;-0.32807398;;;;;;;;;
2238.0;2168.0;;;;;;;1.0245674;-0.0040894803;-0.3185522;;;;;;;;;;;;
2238.0;2170.2;;;;;;;;;;;;;-1261;;;;;;;;
2238.0;2170.2;;;;;;;;;;;;;-15809;;;;;;;;
2238.0;2170.2;;;;;;;;;;;;;-30207;;;;;;;;
2238.0;2170.2;;;;;;;;;;;;;-31166;;;;;;;;
2238.0;2170.2;;;;;;;;;;;;;-18019;;;;;;;;
2238.0;2170.3;;;;-1.1402627;-0.17934419;-0.5628815;;;;;;;;;;;;;;;
2238.0;2170.3;;;;-1.1393968;-0.17575838;-0.5597802;;;;;;;;;;;;;;;
2238.0;2170.3;;;;-1.1356889;-0.1722336;-0.5571099;;;;;;;;;;;;;;;
2238.0;2170.3;;;;-1.1313707;-0.16806795;-0.55541235;;;;;;;;;;;;;;;
2238.0;2170.3;;;;-1.1264535;-0.16408922;-0.55302435;;;;;;;;;;;;;;;
2238.0;2177.2;;;;;;;;;;16.70507;21.626179;-0.85833305;;;;;;;;;
2238.0;2177.2;;;;;;;1.0108341;-0.006591998;-0.31653798;;;;;;;;;;;;
2238.0;2177.2;;;;;;;;;;16.834774;23.010956;-1.1787775;;;;;;;;;
2238.0;2177.2;;;;;;;0.99740595;-0.0112308115;-0.31104466;;;;;;;;;;;;
2238.0;2180.0;;;;-1.1236268;-0.16124727;-0.55190283;;;;;;;;;;;;;;;
2238.0;2180.0;;;;-1.1186181;-0.15763094;-0.5506707;;;;;;;;;;;;;;;
2238.0;2180.0;;;;-1.1116449;-0.15496828;-0.54895025;;;;;;;;;;;;;;;
2238.0;2180.0;;;;-1.1054078;-0.15327074;-0.548256;;;;;;;;;;;;;;;
2238.0;2180.0;;;;-1.1009637;-0.15338136;-0.54728705;;;;;;;;;;;;;;;
2238.0;2183.9;262143;262143;13111;;;;;;;;;;;;;;;;;;
2241.0;2186.7;;;;;;;;;;17.00644;23.86166;-1.4763329;;;;;;;;;
2241.0;2186.7;;;;;;;0.98373365;-0.014709922;-0.3058565;;;;;;;;;;;;
2241.0;2186.7;;;;;;;;;;17.170475;24.292734;-1.7319254;;;;;;;;;
2241.0;2186.7;;;;;;;0.96890163;-0.01843318;-0.3025605;;;;;;;;;;;;
2241.0;2190.0;;;;-1.0942346;-0.15188982;-0.5453263;;;;;;;;;;;;;;;
2241.0;2190.0;;;;-1.0858384;-0.14945604;-0.5429917;;;;;;;;;;;;;;;
2241.0;2190.0;;;;-1.0790368;-0.14675905;-0.54043585;;;;;;;;;;;;;;;
2241.0;2190.0;;;;-1.0753633;-0.14580156;-0.5383721;;;;;;;;;;;;;;;
2241.0;2190.0;;;;-1.0708734;-0.14517213;-0.5347138;;;;;;;;;;;;;;;
2241.0;2196.3;;;;;;;;;;17.368847;24.17829;-1.8578143;;;;;;;;;
2241.0;2196.3;;;;;;;0.95724356;-0.022827845;-0.2976165;;;;;;;;;;;;
2241.0;2196.3;;;;;;;;;;17.544327;24.147772;-1.9074068;;;;;;;;;
2241.0;2196.3;;;;;;;0.9490036;-0.023621326;-0.29657888;;;;;;;;;;;;
2241.0;2200.1;;;;-1.0634576;-0.14523698;-0.53142554;;;;;;;;;;;;;;;
2241.0;2200.1;;;;-1.0537683;-0.14489366;-0.529255;;;;;;;;;;;;;;;
2241.0;2200.1;;;;-1.0435373;-0.1452942;-0.5275269;;;;;;;;;;;;;;;
2241.0;2200.1;;;;-1.0320665;-0.1452942;-0.5259972;;;;;;;;;;;;;;;
2241.0;2200.1;;;;-1.019787;-0.14421083;-0.5241776;;;;;;;;;;;;;;;
2244.0;2202.7;;;;;;;;;;;;;;;;;33.9671;-25.208288;36.812954;;2113.1
2244.0;2202.7;;;;;;;;;;;;;;0.49342325;0.55360574;-0.09063997;;;;;2113.1
2244.0;2202.7;;;;;;;;;;;;;;;;;31.601917;-27.848139;41.505173;;2113.1
2244.0;2202.7;;;;;;;;;;;;;;0.44685203;0.5350505;-0.10541093;;;;;2113.1
2244.0;2202.7;;;;;;;;;;;;;;;;;30.636768;-29.469437;46.609394;;2122.8
2244.0;2202.7;;;;;;;;;;;;;;0.42762536;0.53956723;-0.11828975;;;;;2122.8
2244.0;2202.7;;;;;;;;;;;;;;;;;31.23188;-31.327251;51.33595;;2122.8
2244.0;2202.7;;;;;;;;;;;;;;0.44782862;0.55024874;-0.119449444;;;;;2122.8
2244.0;2202.7;;;;;;;;;;;;;;;;;32.818844;-32.067326;55.242317;;2132.4
2244.0;2202.7;;;;;;;;;;;;;;0.4931791;0.5459151;-0.12439345;;;;;2132.4
2244.0;2202.7;;;;;;;;;;;;;;;;;34.26847;-31.922363;58.18354;;2132.4
2244.0;2202.7;;;;;;;;;;;;;;0.54719687;0.53926206;-0.13159582;;;;;2132.4
2244.0;2204.1;262143;262143;13106;;;;;;;;;;;;;;;;;;
2244.0;2205.8;;;;;;;;;;17.620625;24.06003;-2.0752587;;;;;;;;;
2244.0;2205.8;;;;;;;0.9412519;-0.02191229;-0.2903531;;;;;;;;;;;;
2244.0;2205.8;;;;;;;;;;17.681662;23.785364;-2.395703;;;;;;;;;
2244.0;2205.8;;;;;;;0.9272744;-0.014709922;-0.2847377;;;;;;;;;;;;
2244.0;2210.1;;;;;;;;;;;;;-3101;;;;;;;;
2244.0;2210.1;;;;;;;;;;;;;3289;;;;;;;;
2244.0;2210.1;;;;;;;;;;;;;2677;;;;;;;;
2244.0;2210.1;;;;;;;;;;;;;1887;;;;;;;;
2244.0;2210.1;;;;;;;;;;;;;2890;;;;;;;;
2247.0;2210.1;;;;-1.0083619;-0.14390947;-0.5235711;;;;;;;;;;;;;;;
2247.0;2210.1;;;;-0.9965402;-0.14393617;-0.5234185;;;;;;;;;;;;;;;
2247.0;2210.1;;;;-0.98518384;-0.14404298;-0.524231;;;;;;;;;;;;;;;
2247.0;2210.1;;;;-0.97462857;-0.14387895;-0.5254517;;;;;;;;;;;;;;;
2247.0;2210.1;;;;-0.9658052;-0.14320756;-0.526764;;;;;;;;;;;;;;;
2247.0;2215.4;;;;;;;;;;17.757957;23.495438;-2.750481;;;;;;;;;
2247.0;2215.4;;;;;;;0.90939057;-0.012146367;-0.2827235;;;;;;;;;;;;
2247.0;2215.4;;;;;;;;;;17.929625;23.430586;-2.9984436;;;;;;;;;
2247.0;2215.4;;;;;;;0.8977325;-0.008911405;-0.28302866;;;;;;;;;;;;
2247.0;2218.1;;;;;;;;;;;;;;;;;34.84069;-33.017212;60.63265;;2142.1
2247.0;2218.1;;;;;;;;;;;;;;0.6122623;0.52412486;-0.17871639;;;;;2142.1
2247.0;2218.1;;;;;;;;;;;;;;;;;34.287544;-34.855953;63.10846;;2142.1
2247.0;2218.1;;;;;;;;;;;;;;0.69093907;0.4987335;-0.23651844;;;;;2142.1
2247.0;2218.1;;;;;;;;;;;;;;;;;32.898956;-35.397655;65.67202;;2151.7
2247.0;2218.1;;;;;;;;;;;;;;0.76796776;0.4611957;-0.2719199;;;;;2151.7
2247.0;2218.1;;;;;;;;;;;;;;;;;31.487473;-34.863583;67.85409;;2151.7
2247.0;2218.1;;;;;;;;;;;;;;0.82284003;0.4153569;-0.31452376;;;;;2151.7
2247.0;2218.1;;;;;;;;;;;;;;;;;29.995878;-34.302803;69.948425;;2161.4
2247.0;2218.1;;;;;;;;;;;;;;0.85695976;0.3762932;-0.37287515;;;;;2161.4
2247.0;2218.1;;;;;;;;;;;;;;;;;28.427992;-34.55458;71.607864;;2161.4
2247.0;2218.1;;;;;;;;;;;;;;0.896939;0.3312479;-0.4223762;;;;;2161.4
2298.0;2220.0;;;;-0.9583589;-0.14281465;-0.5273705;;;;;;;;;;;;;;;
2298.0;2220.0;;;;-0.9513093;-0.14257433;-0.5282708;;;;;;;;;;;;;;;
2298.0;2220.0;;;;-0.9454309;-0.14195253;-0.53000647;;;;;;;;;;;;;;;
2298.0;2220.0;;;;-0.93963253;-0.14189912;-0.5320397;;;;;;;;;;;;;;;
2298.0;2220.0;;;;-0.9335786;-0.14197542;-0.53506094;;;;;;;;;;;;;;;
2298.0;2224.1;262143;262143;13106;;;;;;;;;;;;;;;;;;
2298.0;2224.9;;;;;;;;;;18.089846;22.999512;-2.9641104;;;;;;;;;
2298.0;2224.9;;;;;;;0.8961455;-0.0028077029;-0.28138065;;;;;;;;;;;;
2298.0;2224.9;;;;;;;;;;18.230995;22.28614;-3.0289621;;;;;;;;;
2298.0;2224.9;;;;;;;0.8917509;0.0080568865;-0.283639;;;;;;;;;;;;
2298.0;2230.0;;;;-0.927498;-0.1416588;-0.5358315;;;;;;;;;;;;;;;
2298.0;2230.0;;;;-0.9214784;-0.14175798;-0.5378495;;;;;;;;;;;;;;;
2298.0;2230.0;;;;-0.9156114;-0.14218904;-0.54059607;;;;;;;;;;;;;;;
2298.0;2230.0;;;;-0.9111215;-0.14330675;-0.5454903;;;;;;;;;;;;;;;
2298.0;2230.0;;;;-0.907673;-0.14533998;-0.5499993;;;;;;;;;;;;;;;
2298.0;2234.0;;;;;;;;;;18.360699;21.454514;-3.3455918;;;;;;;;;
2298.0;2234.0;;;;;;;0.88717306;0.0144657735;-0.2830897;;;;;;;;;;;;
2298.0;2234.0;;;;;;;;;;18.505661;20.016327;-3.765221;;;;;;;;;
2298.0;2234.0;;;;;;;0.8763085;0.020752586;-0.27686393;;;;;;;;;;;;
2301.0;2239.7;;;;-0.90431607;-0.14739229;-0.5535813;;;;;;;;;;;;;;;
2301.0;2239.7;;;;-0.9008714;-0.14794542;-0.556469;;;;;;;;;;;;;;;
2301.0;2239.7;;;;-0.8973924;-0.14806367;-0.5582734;;;;;;;;;;;;;;;
2301.0;2239.7;;;;-0.89366543;-0.14767076;-0.5606232;;;;;;;;;;;;;;;
2301.0;2239.7;;;;-0.88881314;-0.14818956;-0.56309897;;;;;;;;;;;;;;;
2301.0;2243.5;;;;;;;;;;18.539995;18.669699;-3.9445176;;;;;;;;;
2301.0;2243.5;;;;;;;0.86251414;0.030457472;-0.27350688;;;;;;;;;;;;
2301.0;2243.5;;;;;;;;;;18.33018;17.139957;-4.055147;;;;;;;;;
2301.0;2243.5;;;;;;;0.8478652;0.040223397;-0.2675863;;;;;;;;;;;;
2301.0;2243.8;262143;262143;13099;;;;;;;;;;;;;;;;;;
2301.0;2249.8;;;;-0.88344586;-0.14873888;-0.5649567;;;;;;;;;;;;;;;
2301.0;2249.8;;;;-0.87845623;-0.14923479;-0.56672674;;;;;;;;;;;;;;;
2301.0;2249.8;;;;-0.8739091;-0.15033342;-0.5675393;;;;;;;;;;;;;;;
2301.0;2249.8;;;;-0.87363446;-0.15319063;-0.5690842;;;;;;;;;;;;;;;
2301.0;2249.8;;;;-0.87241757;-0.156559;-0.5706292;;;;;;;;;;;;;;;
2301.0;2249.8;;;;;;;;;;;;;3360;;;;;;;;
2301.0;2249.8;;;;;;;;;;;;;2866;;;;;;;;
2301.0;2249.8;;;;;;;;;;;;;2496;;;;;;;;
2301.0;2249.8;;;;;;;;;;;;;2218;;;;;;;;
2301.0;2249.8;;;;;;;;;;;;;1946;;;;;;;;
2301.0;2253.2;;;;;;;;;;18.154697;15.598773;-4.276406;;;;;;;;;
2301.0;2253.2;;;;;;;0.8418836;0.048036136;-0.26349682;;;;;;;;;;;;
2301.0;2253.2;;;;;;;;;;17.90292;14.126255;-4.6617026;;;;;;;;;
2301.0;2253.2;;;;;;;0.8368175;0.05841243;-0.25812554;;;;;;;;;;;;
2302.0;2259.9;;;;-0.8645822;-0.15581895;-0.57013327;;;;;;;;;;;;;;;
2302.0;2259.9;;;;-0.8548776;-0.1537552;-0.57192236;;;;;;;;;;;;;;;
2302.0;2259.9;;;;-0.8507463;-0.15340425;-0.57407385;;;;;;;;;;;;;;;
2302.0;2259.9;;;;-0.8523637;-0.15472795;-0.5749436;;;;;;;;;;;;;;;
2302.0;2259.9;;;;-0.8527719;-0.15521623;-0.5743752;;;;;;;;;;;;;;;
2302.0;2262.6;;;;;;;;;;;;;;;;;27.886288;-33.974728;72.71035;;2171.0
2302.0;2262.6;;;;;;;;;;;;;;0.92684716;0.3183691;-0.469924;;;;;2171.0
2302.0;2262.6;;;;;;;;;;;;;;;;;27.172918;-32.540363;73.09946;;2171.0
2302.0;2262.6;;;;;;;;;;;;;;0.9500412;0.31134984;-0.49507126;;;;;2171.0
2302.0;2262.6;;;;;;;;;;;;;;;;;26.326029;-31.704918;72.763756;;2180.6
2302.0;2262.6;;;;;;;;;;;;;;0.976043;0.31269264;-0.5008087;;;;;2180.6
2302.0;2262.6;;;;;;;;;;;;;;;;;26.00177;-31.750694;71.893974;;2180.6
2302.0;2262.6;;;;;;;;;;;;;;0.9986877;0.30103457;-0.5053255;;;;;2180.6
2302.0;2262.6;;;;;;;;;;;;;;;;;26.745659;-31.792656;69.88357;;2190.3
2302.0;2262.6;;;;;;;;;;;;;;1.0184027;0.29914242;-0.4857326;;;;;2190.3
2302.0;2262.6;;;;;;;;;;;;;;;;;28.344065;-32.04062;66.763054;;2190.3
2302.0;2262.6;;;;;;;;;;;;;;1.023957;0.29822686;-0.47065645;;;;;2190.3
2302.0;2262.7;;;;;;;;;;17.529068;13.11533;-5.0202947;;;;;;;;;
2302.0;2262.7;;;;;;;0.8372448;0.071413316;-0.25360882;;;;;;;;;;;;
2302.0;2262.7;;;;;;;;;;17.208624;12.504959;-5.527665;;;;;;;;;
2302.0;2262.7;;;;;;;0.83260596;0.077455975;-0.24665059;;;;;;;;;;;;
2302.0;2264.0;262143;262143;13094;;;;;;;;;;;;;;;;;;
2303.0;2269.9;;;;-0.84960186;-0.15476228;-0.5740662;;;;;;;;;;;;;;;
2303.0;2269.9;;;;-0.84638226;-0.15446474;-0.57508856;;;;;;;;;;;;;;;
