patientId;holterMac;flexMac;;;;;;;;;;;;;;;;;;;;
;CA:F3:0B:1E:33:78;D3:4A:5C:52:80:78;;;;;;;;;;;;;;;;;;;;
receivedTimeStamp;timeStamp;red;ir;green;adxl_accX;adxl_accY;adxl_accZ;lsm_accelX;lsm_accelY;lsm_accelZ;lsm_gyroX;lsm_gyroY;lsm_gyroZ;ecg;flex_lsm_accelX;flex_lsm_accelY;flex_lsm_accelZ;flex_lsm_gyroX;flex_lsm_gyroY;flex_lsm_gyroZ;flex_cmd;flexTimeStamp
262.0;215.2;;;;;;;;;;;;;;;;;;;;17;0.1
262.0;215.2;;;;;;;;;;;;;;;;;14.473403;0.15259254;1.5869625;;127.5
262.0;215.2;;;;;;;;;;;;;;-0.11938841;1.9104587;-0.46089053;;;;;127.5
262.0;215.2;;;;;;;;;;;;;;;;;-5.11948;-17.471846;-9.983367;;127.5
262.0;215.2;;;;;;;;;;;;;;-0.059938353;1.9710075;-0.45637378;;;;;127.5
262.0;215.2;;;;;;;;;;;;;;;;;-64.66491;-85.4709;-71.73376;;137.1
262.0;215.2;;;;;;;;;;;;;;-0.040711693;1.9796137;-0.37940612;;;;;137.1
262.0;215.2;;;;;;;;;;;;;;;;;-122.40211;-124.988556;-123.531296;;137.1
262.0;215.2;;;;;;;;;;;;;;-0.027161473;1.9591053;-0.33729056;;;;;137.1
322.0;216.0;;;;;;;;;;;;;;;;;-65.225685;-124.988556;-120.2124;;146.8
322.0;216.0;;;;;;;;;;;;;;-0.025818659;1.8967254;-0.31470686;;;;;146.8
322.0;216.0;;;;;;;;;;;;;;;;;-10.071108;-124.98474;-123.374886;;146.8
322.0;216.0;;;;;;;;;;;;;;-0.030213324;1.8403271;-0.27375102;;;;;146.8
322.0;216.0;;;;;;;;;;;;;;;;;-18.04407;-94.59593;-124.98474;;156.3
322.0;216.0;;;;;;;;;;;;;;-0.045228433;1.7565844;-0.27680287;;;;;156.3
322.0;216.0;;;;;;;;;;;;;;;;;-21.496475;3.971221;-124.97711;;156.3
322.0;216.0;;;;;;;;;;;;;;-0.05938902;1.6740624;-0.27423933;;;;;156.3
322.0;216.0;;;;;;;;;;;;;;;;;-15.903959;17.754143;-124.988556;;166.0
322.0;216.0;;;;;;;;;;;;;;-0.07483139;1.5848873;-0.32807398;;;;;166.0
322.0;216.0;;;;;;;;;;;;;;;;;-11.581775;28.721733;-124.988556;;166.0
322.0;216.0;;;;;;;;;;;;;;-0.13617359;1.5142064;-0.33606982;;;;;166.0
322.0;283.3;;;;;;;;;;;;;;;;;-0.93081456;30.453657;-124.988556;;175.7
322.0;283.3;;;;;;;;;;;;;;-0.18823817;1.4677572;-0.33674124;;;;;175.7
322.0;283.3;;;;;;;;;;;;;;;;;12.253182;25.288399;-124.988556;;175.7
322.0;283.3;;;;;;;;;;;;;;-0.27008882;1.3906674;-0.38209173;;;;;175.7
322.0;283.3;;;;;;;;;;;;;;;;;28.824732;16.323587;-124.988556;;185.3
322.0;283.3;;;;;;;;;;;;;;-0.39381084;1.3273721;-0.4041261;;;;;185.3
322.0;283.3;;;;;;;;;;;;;;;;;42.016357;3.5096285;-124.988556;;185.3
322.0;283.3;;;;;;;;;;;;;;-0.53907895;1.251442;-0.40864283;;;;;185.3
322.0;283.3;;;;;;;;;;;;;;;;;49.06995;-9.31196;-124.988556;;195.0
322.0;283.3;;;;;;;;;;;;;;-0.6344798;1.2052981;-0.43458357;;;;;195.0
322.0;283.3;;;;;;;;;;;;;;;;;54.02921;-16.579182;-124.988556;;195.0
322.0;283.3;;;;;;;;;;;;;;-0.6895352;1.168981;-0.46424755;;;;;195.0
387.0;284.0;;;;;;;;;;;;;;;;;53.994873;-15.503403;-124.988556;;204.7
387.0;284.0;;;;;;;;;;;;;;-0.7332377;1.1340067;-0.47077852;;;;;204.7
387.0;284.0;;;;;;;;;;;;;;;;;51.793724;-12.443922;-124.988556;;204.7
387.0;284.0;;;;;;;;;;;;;;-0.74886316;1.1329691;-0.4415418;;;;;204.7
387.0;284.0;;;;;;;;;;;;;;;;;50.717945;-10.814997;-124.988556;;214.2
387.0;284.0;;;;;;;;;;;;;;-0.7388531;1.1166723;-0.36115605;;;;;214.2
387.0;284.0;;;;;;;;;;;;;;;;;53.758354;-15.289773;-124.988556;;214.2
387.0;284.0;;;;;;;;;;;;;;-0.7397687;1.1271096;-0.27741325;;;;;214.2
387.0;284.0;;;;;;;;;;;;;;;;;54.87228;-26.127659;-124.988556;;223.8
387.0;284.0;;;;;;;;;;;;;;-0.7458724;1.1385235;-0.22876675;;;;;223.8
387.0;284.0;;;;;;;;;;;;;;;;;52.06458;-40.669727;-124.988556;;223.8
387.0;284.0;;;;;;;;;;;;;;-0.7373272;1.1254616;-0.20563371;;;;;223.8
387.0;335.5;;;;;;;;;;;;;;;;;45.701466;-51.71743;-124.988556;;233.4
387.0;335.5;;;;;;;;;;;;;;-0.72188485;1.0827967;-0.20343639;;;;;233.4
387.0;335.5;;;;;;;;;;;;;;;;;43.122654;-60.518204;-124.988556;;233.4
387.0;335.5;;;;;;;;;;;;;;-0.69631034;1.0406201;-0.18195136;;;;;233.4
387.0;335.5;;;;;;;;;;;;;;;;;44.2938;-70.29557;-124.988556;;243.0
387.0;335.5;;;;;;;;;;;;;;-0.6573077;1.0169988;-0.16064943;;;;;243.0
387.0;335.5;;;;;;;;;;;;;;;;;46.3538;-79.40916;-124.988556;;243.0
387.0;335.5;;;;;;;;;;;;;;-0.60286266;1.0058901;-0.15857418;;;;;243.0
387.0;335.5;;;;;;;;;;;;;;;;;47.456284;-87.59194;-124.988556;;252.6
387.0;335.5;;;;;;;;;;;;;;-0.55543685;0.9870296;-0.14276558;;;;;252.6
387.0;335.5;;;;;;;;;;;;;;;;;44.949947;-93.36375;-124.988556;;252.6
387.0;335.5;;;;;;;;;;;;;;-0.49751273;0.9650563;-0.1594287;;;;;252.6
445.0;336.3;;;;;;;;;;;;;;;;;44.57991;-95.900604;-124.49263;;262.0
445.0;336.3;;;;;;;;;;;;;;-0.43342388;0.9364299;-0.16559343;;;;;262.0
445.0;336.3;;;;;;;;;;;;;;;;;44.885098;-97.61727;-122.230446;;262.0
445.0;336.3;;;;;;;;;;;;;;-0.38514358;0.9061556;-0.17542039;;;;;262.0
445.0;336.3;;;;;;;;;;;;;;;;;44.312874;-98.04835;-118.73608;;271.6
445.0;336.3;;;;;;;;;;;;;;-0.33362836;0.8636128;-0.18860438;;;;;271.6
445.0;336.3;;;;;;;;;;;;;;;;;43.33247;-98.92575;-114.84115;;271.6
445.0;336.3;;;;;;;;;;;;;;-0.29969177;0.83419293;-0.19306009;;;;;271.6
445.0;336.3;;;;;;;;;;;;;;;;;45.36195;-101.99667;-110.0383;;281.2
445.0;336.3;;;;;;;;;;;;;;-0.24860378;0.82528156;-0.22138126;;;;;281.2
445.0;336.3;;;;;;;;;;;;;;;;;49.3408;-105.21638;-103.40053;;281.2
445.0;336.3;;;;;;;;;;;;;;-0.2103946;0.82827234;-0.25861385;;;;;281.2
445.0;395.7;;;;;;;;;;;;;;;;;52.426983;-109.37834;-96.79708;;290.9
445.0;395.7;;;;;;;;;;;;;;-0.15967284;0.8328501;-0.31714836;;;;;290.9
445.0;395.7;;;;;;;;;;;;;;;;;53.228096;-111.949524;-90.54079;;290.9
445.0;395.7;;;;;;;;;;;;;;-0.11487167;0.81905574;-0.3806879;;;;;290.9
445.0;395.7;;;;;;;;;;;;;;;;;53.456985;-111.92663;-85.20768;;300.4
445.0;395.7;;;;;;;;;;;;;;-0.06634724;0.7984863;-0.41193885;;;;;300.4
445.0;395.7;;;;;;;;;;;;;;;;;51.072723;-112.97952;-80.99231;;300.4
445.0;395.7;;;;;;;;;;;;;;-0.028931547;0.7599109;-0.41425824;;;;;300.4
445.0;395.7;;;;;;;;;;;;;;;;;45.285652;-114.642784;-76.77694;;310.1
445.0;395.7;;;;;;;;;;;;;;0.012817774;0.7118747;-0.3872799;;;;;310.1
445.0;395.7;;;;;;;;;;;;;;;;;38.636436;-114.18882;-72.328865;;310.1
445.0;395.7;;;;;;;;;;;;;;0.05511643;0.66658527;-0.3344218;;;;;310.1
564.0;403.3;;;;;;;;;;;;;;;;;32.147434;-112.4836;-68.28898;;319.6
564.0;403.3;;;;;;;;;;;;;;0.090029605;0.60713524;-0.26252022;;;;;319.6
564.0;403.3;;;;;;;;;;;;;;;;;25.666067;-110.1947;-62.81472;;319.6
564.0;403.3;;;;;;;;;;;;;;0.12707907;0.5309;-0.19904172;;;;;319.6
564.0;403.3;;;;;;;;;;;;;;;;;22.141178;-106.8949;-55.6505;;329.2
564.0;403.3;;;;;;;;;;;;;;0.15454574;0.4623554;-0.15833002;;;;;329.2
564.0;403.3;;;;;;;;;;;;;;;;;22.782066;-101.2299;-47.82632;;329.2
564.0;403.3;;;;;;;;;;;;;;0.19843134;0.38807335;-0.13361004;;;;;329.2
564.0;403.3;;;;;;;;;;;;;;;;;23.716698;-93.66131;-41.45558;;338.9
564.0;403.3;;;;;;;;;;;;;;0.22583698;0.32825708;-0.13977477;;;;;338.9
564.0;403.3;;;;;;;;;;;;;;;;;22.888882;-84.91394;-35.016174;;338.9
564.0;403.3;;;;;;;;;;;;;;0.25214392;0.28736228;-0.12829982;;;;;338.9
564.0;516.7;;;;;;;;;;;;;;;;;20.107882;-76.62054;-29.450363;;348.5
564.0;516.7;;;;;;;;;;;;;;0.28388318;0.24933623;-0.11859493;;;;;348.5
564.0;516.7;;;;;;;;;;;;;;;;;17.838068;-69.65849;-23.770103;;348.5
564.0;516.7;;;;;;;;;;;;;;0.2943205;0.22986542;-0.10608234;;;;;348.5
564.0;516.7;;;;;;;;;;;;;;;;;18.44081;-62.166203;-17.105623;;358.2
564.0;516.7;;;;;;;;;;;;;;0.30842006;0.22394483;-0.12128056;;;;;358.2
564.0;516.7;;;;;;;;;;;;;;;;;21.38203;-53.41884;-10.471663;;358.2
564.0;516.7;;;;;;;;;;;;;;0.3221534;0.22894986;-0.12402722;;;;;358.2
564.0;516.7;;;;;;;;;;;;;;;;;22.968992;-46.658985;-3.1815546;;367.7
564.0;516.7;;;;;;;;;;;;;;0.31153294;0.20868556;-0.13226722;;;;;367.7
564.0;516.7;;;;;;;;;;;;;;;;;24.147772;-40.753654;2.7809992;;367.7
564.0;516.7;;;;;;;;;;;;;;0.30182806;0.19989623;-0.15076144;;;;;367.7
567.0;518.0;;;;;;;;;;;;;;;;;30.060732;-35.309914;8.953367;;377.3
567.0;518.0;;;;;;;;;;;;;;0.27069917;0.2186346;-0.12591937;;;;;377.3
567.0;518.0;;;;;;;;;;;;;;;;;37.94214;-33.04392;14.618366;;377.3
567.0;518.0;;;;;;;;;;;;;;0.24842067;0.25281534;-0.12213507;;;;;377.3
567.0;518.0;;;;;;;;;;;;;;;;;45.201725;-30.823694;19.589067;;387.0
567.0;518.0;;;;;;;;;;;;;;0.22986542;0.26313058;-0.10913419;;;;;387.0
567.0;518.0;;;;;;;;;;;;;;;;;49.16532;-29.362621;25.06714;;387.0
567.0;518.0;;;;;;;;;;;;;;0.22083193;0.28565326;-0.10217597;;;;;387.0
567.0;518.0;;;;;;;;;;;;;;;;;49.184395;-29.141361;30.842768;;396.6
567.0;518.0;;;;;;;;;;;;;;0.20734276;0.29132968;-0.092593156;;;;;396.6
567.0;518.0;;;;;;;;;;;;;;;;;47.769096;-29.70214;36.73284;;396.6
567.0;518.0;;;;;;;;;;;;;;0.17877743;0.2791223;-0.07593005;;;;;396.6
567.0;518.7;;;;;;;;;;;;;;;;;44.839317;-30.007324;42.413097;;406.2
567.0;518.7;;;;;;;;;;;;;;0.140141;0.2700278;-0.057374798;;;;;406.2
567.0;518.7;;;;;;;;;;;;;;;;;40.936764;-29.90814;47.879726;;406.2
567.0;518.7;;;;;;;;;;;;;;0.098941006;0.24274422;-0.035767693;;;;;406.2
567.0;518.7;;;;;;;;;;;;;;;;;36.057617;-29.148993;52.583393;;415.9
567.0;518.7;;;;;;;;;;;;;;0.06122013;0.20715964;-0.033875547;;;;;415.9
567.0;518.7;;;;;;;;;;;;;;;;;32.773064;-27.279734;57.28324;;415.9
567.0;518.7;;;;;;;;;;;;;;0.026734214;0.16650899;-0.05139317;;;;;415.9
567.0;518.7;;;;;;;;;;;;;;;;;31.617176;-23.857845;61.490982;;425.6
567.0;518.7;;;;;;;;;;;;;;-0.008667257;0.12848292;-0.09338664;;;;;425.6
567.0;518.7;;;;;;;;;;;;;;;;;33.207954;-18.349255;65.63387;;425.6
567.0;518.7;;;;;;;;;;;;;;-0.03521836;0.09698782;-0.17194128;;;;;425.6
626.0;519.5;;;;;;;;;;;;;;;;;38.750877;-11.4978485;69.521164;;435.2
626.0;519.5;;;;;;;;;;;;;;-0.053407393;0.078005314;-0.27582628;;;;;435.2
626.0;519.5;;;;;;;;;;;;;;;;;46.08295;-3.7690358;73.877686;;435.2
626.0;519.5;;;;;;;;;;;;;;-0.06811731;0.0827662;-0.3535264;;;;;435.2
626.0;519.5;;;;;;;;;;;;;;;;;52.896206;3.4676657;79.06964;;444.9
626.0;519.5;;;;;;;;;;;;;;-0.061891537;0.08685568;-0.42811364;;;;;444.9
626.0;519.5;;;;;;;;;;;;;;;;;62.89865;11.093478;85.318306;;444.9
626.0;519.5;;;;;;;;;;;;;;-0.07495346;0.09588916;-0.4898221;;;;;444.9
626.0;519.5;;;;;;;;;;;;;;;;;69.75387;15.831476;90.42634;;454.5
626.0;519.5;;;;;;;;;;;;;;-0.1431318;0.1037019;-0.41706595;;;;;454.5
626.0;519.5;;;;;;;;;;;;;;;;;63.524277;11.772515;89.377266;;454.5
626.0;519.5;;;;;;;;;;;;;;-0.26392406;0.16968292;-0.2313303;;;;;454.5
626.0;531.7;;;;;;;;;;;;;;;;;51.49617;5.344554;85.57008;;464.2
626.0;531.7;;;;;;;;;;;;;;-0.44196907;0.25708792;-0.0015259255;;;;;464.2
626.0;531.7;;;;;;;;;;;;;;;;;40.58962;1.106296;79.64186;;464.2
626.0;531.7;;;;;;;;;;;;;;-0.6415601;0.32923368;0.12964264;;;;;464.2
626.0;531.7;;;;;;;;;;;;;;;;;43.683434;0.3852962;66.610466;;473.8
626.0;531.7;;;;;;;;;;;;;;-0.8056276;0.38337353;-0.065065466;;;;;473.8
626.0;531.7;;;;;;;;;;;;;;;;;67.762535;21.008179;47.99417;;473.8
626.0;531.7;;;;;;;;;;;;;;-0.9526658;0.48963895;-0.3454085;;;;;473.8
626.0;531.7;;;;;;;;;;;;;;;;;92.68853;52.32017;33.562733;;483.2
626.0;531.7;;;;;;;;;;;;;;-1.0457473;0.68495744;-0.3223365;;;;;483.2
626.0;531.7;;;;;;;;;;;;;;;;;103.67519;57.390057;34.485916;;483.2
626.0;531.7;;;;;;;;;;;;;;-0.9894101;0.8915677;-0.28894925;;;;;483.2
686.0;577.3;;;;;;;;;;;;;;;;;105.15916;58.90454;55.391094;;492.8
686.0;577.3;;;;;;;;;;;;;;-0.7675405;1.1427962;-0.2287057;;;;;492.8
686.0;577.3;;;;;;;;;;;;;;;;;99.37589;69.54024;91.2389;;492.8
686.0;577.3;;;;;;;;;;;;;;-0.4737083;1.2688376;-0.2699057;;;;;492.8
686.0;577.3;;;;;;;;;;;;;;;;;88.934746;86.00879;116.90878;;502.5
686.0;577.3;;;;;;;;;;;;;;-0.32959992;1.5437483;-0.20398572;;;;;502.5
686.0;577.3;;;;;;;;;;;;;;;;;74.24772;78.40205;124.988556;;502.5
686.0;577.3;;;;;;;;;;;;;;-0.28577533;1.8636433;-0.18457595;;;;;502.5
686.0;577.3;;;;;;;;;;;;;;;;;67.25898;56.913204;124.988556;;512.2
686.0;577.3;;;;;;;;;;;;;;-0.32667014;1.9979857;-0.19098483;;;;;512.2
686.0;577.3;;;;;;;;;;;;;;;;;88.72493;45.216984;124.988556;;512.2
686.0;577.3;;;;;;;;;;;;;;-0.53022856;1.9869992;-0.22846156;;;;;512.2
686.0;592.0;;;;;;;;;;;;;;;;;82.48772;51.59917;122.310555;;521.8
686.0;592.0;;;;;;;;;;;;;;-0.7497177;1.9887692;-0.31330302;;;;;521.8
686.0;592.0;;;;;;;;;;;;;;;;;52.43843;28.336435;98.22001;;521.8
686.0;592.0;;;;;;;;;;;;;;-1.0383008;1.9979857;-0.3053682;;;;;521.8
686.0;592.0;;;;;;;;;;;;;;;;;34.524063;-7.1832943;60.537277;;531.5
686.0;592.0;;;;;;;;;;;;;;-1.2369763;1.879696;-0.39350566;;;;;531.5
686.0;592.0;;;;;;;;;;;;;;;;;10.120701;-6.878109;8.457442;;531.5
686.0;592.0;;;;;;;;;;;;;;-1.3491012;1.5870235;-0.25397503;;;;;531.5
686.0;592.0;;;;;;;;;;;;;;;;;-11.921293;-8.754997;-32.280952;;540.9
686.0;592.0;;;;;;;;;;;;;;-1.4470046;1.391644;-0.18439284;;;;;540.9
686.0;592.0;;;;;;;;;;;;;;;;;11.104922;-22.133549;-40.898617;;540.9
686.0;592.0;;;;;;;;;;;;;;-1.330485;1.3650318;-0.2846156;;;;;540.9
748.0;652.4;;;;;;;;;;;;;;;;;36.538284;-13.573108;-16.07181;;550.6
748.0;652.4;;;;;;;;;;;;;;-1.2505875;1.3062532;-0.23682363;;;;;550.6
748.0;652.4;;;;;;;;;;;;;;;;;32.597584;-2.6779993;24.39955;;550.6
748.0;652.4;;;;;;;;;;;;;;-1.0029603;1.1237526;-0.22876675;;;;;550.6
748.0;652.4;;;;;;;;;;;;;;;;;11.295663;10.971405;58.980835;;560.3
748.0;652.4;;;;;;;;;;;;;;-0.7779778;0.95474106;-0.14117862;;;;;560.3
748.0;652.4;;;;;;;;;;;;;;;;;-5.367443;17.651142;80.96942;;560.3
748.0;652.4;;;;;;;;;;;;;;-0.5550096;0.8770409;-0.003601184;;;;;560.3
748.0;652.4;;;;;;;;;;;;;;;;;-12.520218;4.5739617;98.21238;;569.9
748.0;652.4;;;;;;;;;;;;;;-0.40681174;0.84444714;0.14520706;;;;;569.9
748.0;652.4;;;;;;;;;;;;;;;;;-8.980071;-32.17414;114.71908;;569.9
748.0;652.4;;;;;;;;;;;;;;-0.2969451;0.8338267;0.14569536;;;;;569.9
748.0;653.2;;;;;;;;;;;;;;;;;6.618702;-65.58428;124.103516;;579.5
748.0;653.2;;;;;;;;;;;;;;-0.2080752;0.89522994;-0.0022583697;;;;;579.5
748.0;653.2;;;;;;;;;;;;;;;;;21.557512;-67.52221;124.988556;;579.5
748.0;653.2;;;;;;;;;;;;;;-0.15405744;0.9261147;-0.18610187;;;;;579.5
748.0;653.2;;;;;;;;;;;;;;;;;30.796991;-39.9678;124.988556;;589.2
748.0;653.2;;;;;;;;;;;;;;-0.12781152;0.95864743;-0.3122654;;;;;589.2
748.0;653.2;;;;;;;;;;;;;;;;;41.364025;-4.772332;124.988556;;589.2
748.0;653.2;;;;;;;;;;;;;;-0.12402722;0.9764092;-0.42640463;;;;;589.2
748.0;653.2;;;;;;;;;;;;;;;;;50.38606;26.08188;124.988556;;598.9
748.0;653.2;;;;;;;;;;;;;;-0.12274545;1.0096133;-0.4634541;;;;;598.9
748.0;653.2;;;;;;;;;;;;;;;;;51.461838;41.341137;124.988556;;598.9
748.0;653.2;;;;;;;;;;;;;;-0.11914426;1.0252388;-0.46211126;;;;;598.9
806.0;697.7;;;;;;;;;;;;;;;;;44.81643;43.22184;124.988556;;608.4
806.0;697.7;;;;;;;;;;;;;;-0.12640767;1.0163884;-0.48200935;;;;;608.4
806.0;697.7;;;;;;;;;;;;;;;;;35.02762;39.89532;123.38633;;608.4
806.0;697.7;;;;;;;;;;;;;;-0.16205329;1.0050966;-0.4804834;;;;;608.4
806.0;697.7;;;;;;;;;;;;;;;;;23.548845;32.719658;114.05911;;618.1
806.0;697.7;;;;;;;;;;;;;;-0.23010956;1.0310984;-0.4504532;;;;;618.1
806.0;697.7;;;;;;;;;;;;;;;;;12.344738;23.026215;108.18049;;618.1
806.0;697.7;;;;;;;;;;;;;;-0.30195013;1.0531938;-0.45106357;;;;;618.1
806.0;697.7;;;;;;;;;;;;;;;;;3.1853695;18.879513;105.89923;;627.7
806.0;697.7;;;;;;;;;;;;;;-0.36237678;1.0551469;-0.43556017;;;;;627.7
806.0;697.7;;;;;;;;;;;;;;;;;-0.87740713;16.945402;102.35526;;627.7
806.0;697.7;;;;;;;;;;;;;;-0.40650654;1.0528886;-0.43501082;;;;;627.7
806.0;712.5;;;;;;;;;;;;;;;;;-0.2822962;15.8391075;97.45705;;637.4
806.0;712.5;;;;;;;;;;;;;;-0.45185706;1.0619221;-0.44410536;;;;;637.4
806.0;712.5;;;;;;;;;;;;;;;;;1.5907773;15.488144;92.92505;;637.4
806.0;712.5;;;;;;;;;;;;;;-0.4865871;1.0661336;-0.4657735;;;;;637.4
806.0;712.5;;;;;;;;;;;;;;;;;3.6584065;16.613514;89.465004;;647.0
806.0;712.5;;;;;;;;;;;;;;-0.49806207;1.0686972;-0.48005617;;;;;647.0
806.0;712.5;;;;;;;;;;;;;;;;;4.8982205;17.372662;88.67534;;647.0
806.0;712.5;;;;;;;;;;;;;;-0.49507126;1.0601519;-0.48536637;;;;;647.0
806.0;712.5;;;;;;;;;;;;;;;;;4.4938507;17.559587;90.79638;;656.7
806.0;712.5;;;;;;;;;;;;;;-0.4784692;1.0378735;-0.47151098;;;;;656.7
806.0;712.5;;;;;;;;;;;;;;;;;2.8420362;16.972105;93.4019;;656.7
806.0;712.5;;;;;;;;;;;;;;-0.4542375;1.0166936;-0.4547258;;;;;656.7
927.0;758.1;;;;;;;;;;;;;;;;;1.4267403;18.173773;96.16001;;666.3
927.0;758.1;;;;;;;;;;;;;;-0.43055514;0.99777216;-0.42664877;;;;;666.3
927.0;758.1;;;;;;;;;;;;;;;;;-0.4768517;20.775475;98.66634;;666.3
927.0;758.1;;;;;;;;;;;;;;-0.41242713;0.9759209;-0.39313945;;;;;666.3
927.0;758.1;;;;;;;;;;;;;;;;;-2.1553698;23.079622;101.20701;;675.9
927.0;758.1;;;;;;;;;;;;;;-0.39960936;0.95455796;-0.36213264;;;;;675.9
927.0;758.1;;;;;;;;;;;;;;;;;-3.8148136;24.552141;103.64468;;675.9
927.0;758.1;;;;;;;;;;;;;;-0.38990447;0.9300821;-0.32935575;;;;;675.9
927.0;758.1;;;;;;;;;;;;;;;;;-4.688406;24.25077;105.65508;;685.6
927.0;758.1;;;;;;;;;;;;;;-0.3909421;0.895291;-0.30780968;;;;;685.6
927.0;758.1;;;;;;;;;;;;;;;;;-4.387036;25.097658;106.59353;;685.6
927.0;758.1;;;;;;;;;;;;;;-0.38166448;0.87112033;-0.30414745;;;;;685.6
927.0;818.5;;;;;;;;;;;;;;;;;-3.173925;27.527695;106.81479;;695.3
927.0;818.5;;;;;;;;;;;;;;-0.38703573;0.8695944;-0.276986;;;;;695.3
927.0;818.5;;;;;;;;;;;;;;;;;-2.5025177;27.249214;107.211525;;695.3
927.0;818.5;;;;;;;;;;;;;;-0.39008757;0.8730125;-0.26929533;;;;;695.3
927.0;818.5;;;;;;;;;;;;;;;;;-1.7662587;27.600176;107.24586;;704.9
927.0;818.5;;;;;;;;;;;;;;-0.38673055;0.8827174;-0.27582628;;;;;704.9
927.0;818.5;;;;;;;;;;;;;;;;;-0.3852962;29.953917;106.532486;;704.9
927.0;818.5;;;;;;;;;;;;;;-0.39344463;0.8997467;-0.2763146;;;;;704.9
927.0;818.5;;;;;;;;;;;;;;;;;0.14496292;31.20899;105.93356;;714.5
927.0;818.5;;;;;;;;;;;;;;-0.39814448;0.9189734;-0.28040406;;;;;714.5
927.0;818.5;;;;;;;;;;;;;;;;;-0.77822196;32.322918;105.73519;;714.5
927.0;818.5;;;;;;;;;;;;;;-0.40913114;0.9377117;-0.2791223;;;;;714.5
929.0;819.3;;;;;;;;;;;;;;;;;-1.678518;31.773582;104.91882;;724.2
929.0;819.3;;;;;;;;;;;;;;-0.39527574;0.9432661;-0.2822962;;;;;724.2
929.0;819.3;;;;;;;;;;;;;;;;;-3.2311473;31.56377;103.83541;;724.2
929.0;819.3;;;;;;;;;;;;;;-0.39350566;0.9441206;-0.27393416;;;;;724.2
929.0;819.3;;;;;;;;;;;;;;;;;-5.9663687;33.26136;102.52312;;733.8
929.0;819.3;;;;;;;;;;;;;;-0.39509264;0.9569994;-0.25812554;;;;;733.8
929.0;819.3;;;;;;;;;;;;;;;;;-8.713035;34.131138;101.96997;;733.8
929.0;819.3;;;;;;;;;;;;;;-0.38868374;0.96493423;-0.23566394;;;;;733.8
929.0;819.3;;;;;;;;;;;;;;;;;-12.833034;33.860287;101.76397;;743.4
929.0;819.3;;;;;;;;;;;;;;-0.37434003;0.9635914;-0.22217475;;;;;743.4
929.0;819.3;;;;;;;;;;;;;;;;;-16.70507;33.120213;100.95523;;743.4
929.0;819.3;;;;;;;;;;;;;;-0.35309917;0.9654225;-0.20349742;;;;;743.4
929.0;826.3;;;;;;;;;;;;;;;;;-20.35203;30.896175;99.02493;;753.0
929.0;826.3;;;;;;;;;;;;;;-0.3394879;0.96890163;-0.17926572;;;;;753.0
929.0;826.3;;;;;;;;;;;;;;;;;-25.028992;27.61162;96.27445;;753.0
929.0;826.3;;;;;;;;;;;;;;-0.32502213;0.96676534;-0.15704826;;;;;753.0
929.0;826.3;;;;;;;;;;;;;;;;;-29.614399;24.433882;92.44438;;762.6
929.0;826.3;;;;;;;;;;;;;;-0.31488997;0.9542528;-0.14227729;;;;;762.6
929.0;826.3;;;;;;;;;;;;;;;;;-31.228065;20.729698;88.736374;;762.6
929.0;826.3;;;;;;;;;;;;;;-0.30640584;0.9450972;-0.14368114;;;;;762.6
929.0;826.3;;;;;;;;;;;;;;;;;-30.774101;18.337809;85.51286;;772.2
929.0;826.3;;;;;;;;;;;;;;-0.29187903;0.9311808;-0.16046633;;;;;772.2
929.0;826.3;;;;;;;;;;;;;;;;;-30.838953;18.341625;81.95364;;772.2
929.0;826.3;;;;;;;;;;;;;;-0.2757042;0.9192175;-0.17236854;;;;;772.2
1046.0;878.7;;;;;;;;;;;;;;;;;-31.23188;19.085514;78.35627;;781.8
1046.0;878.7;;;;;;;;;;;;;;-0.25916317;0.9012726;-0.1920835;;;;;781.8
1046.0;878.7;;;;;;;;;;;;;;;;;-28.954435;19.909512;74.728386;;781.8
1046.0;878.7;;;;;;;;;;;;;;-0.23780023;0.877224;-0.22034363;;;;;781.8
1046.0;878.7;;;;;;;;;;;;;;;;;-24.727623;19.859919;71.36753;;791.4
1046.0;878.7;;;;;;;;;;;;;;-0.21149327;0.8489029;-0.22882779;;;;;791.4
1046.0;878.7;;;;;;;;;;;;;;;;;-23.277992;18.265327;68.51024;;791.4
1046.0;878.7;;;;;;;;;;;;;;-0.18695639;0.8282113;-0.23114718;;;;;791.4
1046.0;878.7;;;;;;;;;;;;;;;;;-23.499252;17.571032;65.8208;;801.1
1046.0;878.7;;;;;;;;;;;;;;-0.16101566;0.79763174;-0.25592822;;;;;801.1
1046.0;878.7;;;;;;;;;;;;;;;;;-19.936216;21.778772;63.638725;;801.1
1046.0;878.7;;;;;;;;;;;;;;-0.14233834;0.7774285;-0.27594838;;;;;801.1
1046.0;886.2;;;;;;;;;;;;;;;;;-14.252144;27.199623;61.712242;;810.6
1046.0;886.2;;;;;;;;;;;;;;-0.11883908;0.7615589;-0.3037202;;;;;810.6
1046.0;886.2;;;;;;;;;;;;;;;;;-8.816034;31.40736;61.33457;;810.6
1046.0;886.2;;;;;;;;;;;;;;-0.10669271;0.74306464;-0.33893856;;;;;810.6
1046.0;886.2;;;;;;;;;;;;;;;;;-4.7608876;34.287544;60.83483;;820.3
1046.0;886.2;;;;;;;;;;;;;;-0.09686575;0.7185278;-0.3482162;;;;;820.3
1046.0;886.2;;;;;;;;;;;;;;;;;-5.7412944;34.344765;59.636986;;820.3
1046.0;886.2;;;;;;;;;;;;;;-0.095278785;0.68044066;-0.34797204;;;;;820.3
1046.0;886.2;;;;;;;;;;;;;;;;;-7.038331;31.701103;56.619465;;829.9
1046.0;886.2;;;;;;;;;;;;;;-0.09472945;0.65285194;-0.34876552;;;;;829.9
1046.0;886.2;;;;;;;;;;;;;;;;;-4.4442577;28.06177;54.792168;;829.9
1046.0;886.2;;;;;;;;;;;;;;-0.1281167;0.6283761;-0.37415692;;;;;829.9
1048.0;939.9;;;;;;;;;;;;;;;;;0.23270364;25.61266;51.351208;;839.6
1048.0;939.9;;;;;;;;;;;;;;-0.17914365;0.65773493;-0.380871;;;;;839.6
1048.0;939.9;;;;;;;;;;;;;;;;;0.4463332;22.72103;49.035618;;839.6
1048.0;939.9;;;;;;;;;;;;;;-0.23395489;0.67085785;-0.38471633;;;;;839.6
1048.0;939.9;;;;;;;;;;;;;;;;;-4.860073;20.35203;46.712395;;849.2
1048.0;939.9;;;;;;;;;;;;;;-0.2949919;0.6837367;-0.37037262;;;;;849.2
1048.0;939.9;;;;;;;;;;;;;;;;;-10.067293;19.402143;45.175022;;849.2
1048.0;939.9;;;;;;;;;;;;;;-0.3516953;0.6921598;-0.36671042;;;;;849.2
1048.0;939.9;;;;;;;;;;;;;;;;;-11.555071;19.417402;42.962433;;858.8
1048.0;939.9;;;;;;;;;;;;;;-0.42066714;0.70723593;-0.36732078;;;;;858.8
1048.0;939.9;;;;;;;;;;;;;;;;;-11.932737;19.760735;40.280617;;858.8
1048.0;939.9;;;;;;;;;;;;;;-0.49952698;0.7425153;-0.384167;;;;;858.8
1048.0;940.7;;;;;;;;;;;;;;;;;-13.363293;21.51555;37.694176;;868.5
1048.0;940.7;;;;;;;;;;;;;;-0.5868099;0.7950682;-0.39448225;;;;;868.5
1048.0;940.7;;;;;;;;;;;;;;;;;-14.160588;21.744438;36.06143;;868.5
1048.0;940.7;;;;;;;;;;;;;;-0.6738487;0.8597064;-0.408887;;;;;868.5
1048.0;940.7;;;;;;;;;;;;;;;;;-13.473923;20.481735;36.023285;;878.1
1048.0;940.7;;;;;;;;;;;;;;-0.7548448;0.9129917;-0.41309854;;;;;878.1
1048.0;940.7;;;;;;;;;;;;;;;;;-14.103366;18.929106;35.653248;;878.1
1048.0;940.7;;;;;;;;;;;;;;-0.8105716;0.9841609;-0.37696463;;;;;878.1
1048.0;940.7;;;;;;;;;;;;;;;;;-19.60814;12.672811;38.178658;;887.8
1048.0;940.7;;;;;;;;;;;;;;-0.8554338;1.0159001;-0.32673118;;;;;887.8
1048.0;940.7;;;;;;;;;;;;;;;;;-26.535845;5.7985168;42.306286;;887.8
1048.0;940.7;;;;;;;;;;;;;;-0.8717917;1.0252388;-0.27576524;;;;;887.8
1110.0;1007.4;;;;;;;;;;;;;;;;;-31.987213;0.79729605;47.03665;;897.5
1110.0;1007.4;;;;;;;;;;;;;;-0.8665426;0.9956969;-0.24634542;;;;;897.5
1110.0;1007.4;;;;;;;;;;;;;;;;;-29.301584;-4.589221;51.62206;;897.5
1110.0;1007.4;;;;;;;;;;;;;;-0.850734;0.985992;-0.21472824;;;;;897.5
1110.0;1007.4;;;;;;;;;;;;;;;;;-24.086735;-9.437849;54.940945;;907.0
1110.0;1007.4;;;;;;;;;;;;;;-0.8224738;0.95223856;-0.21436201;;;;;907.0
1110.0;1007.4;;;;;;;;;;;;;;;;;-18.723106;-12.840663;55.11643;;907.0
1110.0;1007.4;;;;;;;;;;;;;;-0.8100223;0.9324625;-0.20062868;;;;;907.0
1110.0;1007.4;;;;;;;;;;;;;;;;;-14.492477;-17.27729;52.934357;;916.5
1110.0;1007.4;;;;;;;;;;;;;;-0.81331825;0.93130285;-0.18872647;;;;;916.5
1110.0;1007.4;;;;;;;;;;;;;;;;;-11.028626;-21.908476;49.600204;;916.5
1110.0;1007.4;;;;;;;;;;;;;;-0.83095795;0.9421674;-0.16156499;;;;;916.5
1110.0;1008.2;;;;;;;;;;;;;;;;;-10.151219;-26.993622;46.079132;;926.2
1110.0;1008.2;;;;;;;;;;;;;;-0.85946226;0.9392987;-0.15094455;;;;;926.2
1110.0;1008.2;;;;;;;;;;;;;;;;;-9.014404;-29.202398;41.20762;;926.2
1110.0;1008.2;;;;;;;;;;;;;;-0.8949858;0.92672503;-0.16357921;;;;;926.2
1110.0;1008.2;;;;;;;;;;;;;;;;;-7.000183;-30.18662;35.3061;;935.8
1110.0;1008.2;;;;;;;;;;;;;;-0.934843;0.94174016;-0.15967284;;;;;935.8
1110.0;1008.2;;;;;;;;;;;;;;;;;-8.003479;-30.17136;27.298807;;935.8
1110.0;1008.2;;;;;;;;;;;;;;-0.9845271;0.9582812;-0.14447463;;;;;935.8
1110.0;1008.2;;;;;;;;;;;;;;;;;-10.887479;-28.794214;15.770439;;945.4
1110.0;1008.2;;;;;;;;;;;;;;-1.0412916;0.9750053;-0.11999878;;;;;945.4
1110.0;1008.2;;;;;;;;;;;;;;;;;-14.519181;-26.596882;2.2354808;;945.4
1110.0;1008.2;;;;;;;;;;;;;;-1.0861537;0.9846492;-0.09106723;;;;;945.4
1287.0;1059.8;;;;;;;;;;;;;;;;;-17.883846;-23.651846;-12.016664;;955.0
1287.0;1059.8;;;;;;;;;;;;;;-1.1398664;1.0075381;-0.01330607;;;;;955.0
1287.0;1059.8;;;;;;;;;;;;;;;;;-16.97592;-29.919584;-20.207067;;955.0
1287.0;1059.8;;;;;;;;;;;;;;-1.1763664;1.0382397;-0.00921659;;;;;955.0
1287.0;1059.8;;;;;;;;;;;;;;;;;-12.9703665;-34.543137;-21.172216;;964.7
1287.0;1059.8;;;;;;;;;;;;;;-1.2054812;1.0478835;-0.019531846;;;;;964.7
1287.0;1059.8;;;;;;;;;;;;;;;;;-9.807885;-38.78903;-18.261513;;964.7
1287.0;1059.8;;;;;;;;;;;;;;-1.1778924;1.0307322;-0.042847987;;;;;964.7
1287.0;1059.8;;;;;;;;;;;;;;;;;-8.339183;-42.870876;-13.843959;;974.1
1287.0;1059.8;;;;;;;;;;;;;;-1.0828577;0.931547;-0.09887997;;;;;974.1
1287.0;1059.8;;;;;;;;;;;;;;;;;-7.763146;-42.48558;-21.80929;;974.1
1287.0;1059.8;;;;;;;;;;;;;;-1.0115055;0.9207434;-0.1312296;;;;;974.1
1287.0;1060.6;;;;;;;;;;;;;;;;;-5.489517;-41.69973;-34.985657;;983.6
1287.0;1060.6;;;;;;;;;;;;;;-0.9751274;0.9663381;-0.1817072;;;;;983.6
1287.0;1060.6;;;;;;;;;;;;;;;;;-5.512406;-37.42714;-48.703728;;983.6
1287.0;1060.6;;;;;;;;;;;;;;-0.92428356;1.0153508;-0.1998352;;;;;983.6
1287.0;1060.6;;;;;;;;;;;;;;;;;-9.514146;-32.612843;-63.25724;;993.3
1287.0;1060.6;;;;;;;;;;;;;;-0.8715476;1.0301218;-0.19299905;;;;;993.3
1287.0;1060.6;;;;;;;;;;;;;;;;;-17.71218;-27.821436;-78.0549;;993.3
1287.0;1060.6;;;;;;;;;;;;;;-0.82168037;1.0278634;-0.15179907;;;;;993.3
1287.0;1060.6;;;;;;;;;;;;;;;;;-28.382214;-22.43492;-93.06619;;1002.9
1287.0;1060.6;;;;;;;;;;;;;;-0.786462;1.0439161;-0.073793754;;;;;1002.9
1287.0;1060.6;;;;;;;;;;;;;;;;;-38.17103;-17.136143;-107.77993;;1002.9
1287.0;1060.6;;;;;;;;;;;;;;-0.75807977;1.0840786;-0.013733329;;;;;1002.9
1288.0;1120.6;;;;;;;;;;;;;;;;;-44.145027;-9.975738;-120.509964;;1012.6
1288.0;1120.6;;;;;;;;;;;;;;-0.7513657;1.1133763;-0.018982513;;;;;1012.6
1288.0;1120.6;;;;;;;;;;;;;;;;;-43.78262;-4.188666;-124.95041;;1012.6
1288.0;1120.6;;;;;;;;;;;;;;-0.770043;1.1155736;-0.1142613;;;;;1012.6
1288.0;1120.6;;;;;;;;;;;;;;;;;-37.446213;-0.8735923;-124.988556;;1022.2
1288.0;1120.6;;;;;;;;;;;;;;-0.79494613;1.0674764;-0.3007294;;;;;1022.2
1288.0;1120.6;;;;;;;;;;;;;;;;;-26.165808;1.0185553;-124.988556;;1022.2
1288.0;1120.6;;;;;;;;;;;;;;-0.8272958;1.0325632;-0.42396313;;;;;1022.2
1288.0;1120.6;;;;;;;;;;;;;;;;;-12.394329;0.49592578;-124.988556;;1031.7
1288.0;1120.6;;;;;;;;;;;;;;-0.8850978;1.0116276;-0.4611957;;;;;1031.7
1288.0;1120.6;;;;;;;;;;;;;;;;;1.3428144;-1.5907773;-124.988556;;1031.7
1288.0;1120.6;;;;;;;;;;;;;;-0.9609058;1.0309763;-0.44404432;;;;;1031.7
1288.0;1121.4;;;;;;;;;;;;;;;;;7.232887;-4.7265544;-124.988556;;1041.4
1288.0;1121.4;;;;;;;;;;;;;;-1.0261544;1.114658;-0.32050538;;;;;1041.4
1288.0;1121.4;;;;;;;;;;;;;;;;;-2.929777;-12.6117735;-124.988556;;1041.4
1288.0;1121.4;;;;;;;;;;;;;;-1.0533769;1.1699576;-0.21546067;;;;;1041.4
1288.0;1121.4;;;;;;;;;;;;;;;;;-22.976622;-5.767998;-124.988556;;1051.1
1288.0;1121.4;;;;;;;;;;;;;;-1.0300608;1.2121341;-0.1739555;;;;;1051.1
1288.0;1121.4;;;;;;;;;;;;;;;;;-27.344585;9.472182;-124.988556;;1051.1
1288.0;1121.4;;;;;;;;;;;;;;-1.0997651;1.3563646;-0.14136174;;;;;1051.1
1288.0;1121.4;;;;;;;;;;;;;;;;;-10.631886;4.8028507;-124.988556;;1060.8
1288.0;1121.4;;;;;;;;;;;;;;-1.2187872;1.5790277;-0.20746483;;;;;1060.8
1288.0;1121.4;;;;;;;;;;;;;;;;;12.958922;-17.010254;-124.988556;;1060.8
1288.0;1121.4;;;;;;;;;;;;;;-1.1868038;1.8810389;-0.387463;;;;;1060.8
1290.0;1131.6;;;;0.0;0.0;0.0;;;;;;;;;;;;;;;
1290.0;1131.6;;;;-0.1326027;0.12925722;0.077213295;;;;;;;;;;;;;;;
1290.0;1131.6;;;;-0.63293844;0.62001425;0.20925906;;;;;;;;;;;;;;;
1290.0;1131.6;;;;-0.7079316;0.6886559;0.2215729;;;;;;;;;;;;;;;
1290.0;1131.6;;;;-0.7177735;0.6859055;0.22367099;;;;;;;;;;;;;;;
1290.0;1141.6;;;;-0.727356;0.6829949;0.2259331;;;;;;;;;;;;;;;
1290.0;1141.6;;;;-0.7364579;0.68064886;0.22901157;;;;;;;;;;;;;;;
1290.0;1141.6;;;;-0.7454911;0.6782723;0.23374942;;;;;;;;;;;;;;;
1290.0;1141.6;;;;-0.75384915;0.6764832;0.23724368;;;;;;;;;;;;;;;
1290.0;1141.6;;;;-0.7622491;0.6734429;0.2399216;;;;;;;;;;;;;;;
1290.0;1142.9;57461;57561;11060;;;;;;;;;;;;;;;;;;
1290.0;1151.6;;;;-0.7707139;0.6716042;0.24396136;;;;;;;;;;;;;;;
1290.0;1151.6;;;;-0.7797166;0.6689721;0.24760821;;;;;;;;;;;;;;;
1290.0;1151.6;;;;-0.78932583;0.6658059;0.25140384;;;;;;;;;;;;;;;
1290.0;1151.6;;;;-0.79986966;0.66213995;0.2527695;;;;;;;;;;;;;;;
1290.0;1151.6;;;;-0.81077206;0.6582528;0.25470737;;;;;;;;;;;;;;;
1292.0;1161.7;;;;-0.8218881;0.6554604;0.25428775;;;;;;;;;;;;;;;
1292.0;1161.7;;;;-0.831566;0.65071493;0.25293735;;;;;;;;;;;;;;;
1292.0;1161.7;;;;-0.8393403;0.6470719;0.25250247;;;;;;;;;;;;;;;
1292.0;1161.7;;;;-0.8457948;0.64319235;0.25293353;;;;;;;;;;;;;;;
1292.0;1161.7;;;;-0.85146344;0.6390572;0.25377658;;;;;;;;;;;;;;;
1292.0;1163.1;73885;73845;11047;;;;;;;;;;;;;;;;;;
1292.0;1169.4;;;;;;;;;;;;;0;;;;;;;;
1292.0;1169.4;;;;;;;;;;;;;0;;;;;;;;
1292.0;1169.4;;;;;;;;;;;;;-1;;;;;;;;
1292.0;1169.4;;;;;;;;;;;;;-2;;;;;;;;
1292.0;1169.4;;;;;;;;;;;;;-3;;;;;;;;
1292.0;1171.8;;;;-0.85746014;0.6340447;0.25215152;;;;;;;;;;;;;;;
1292.0;1171.8;;;;-0.8630563;0.62990195;0.25672153;;;;;;;;;;;;;;;
1292.0;1171.8;;;;-0.8680612;0.6282616;0.25898364;;;;;;;;;;;;;;;
1292.0;1171.8;;;;-0.873932;0.6240426;0.25945666;;;;;;;;;;;;;;;
1292.0;1171.8;;;;-0.87968457;0.6176873;0.2640076;;;;;;;;;;;;;;;
1294.0;1180.6;;;;;;;;;;;;;;;;;16.472366;-27.562029;-124.988556;;1070.4
1294.0;1180.6;;;;;;;;;;;;;;-1.0529497;1.8823206;-0.47810298;;;;;1070.4
1294.0;1180.6;;;;;;;;;;;;;;;;;8.018739;-28.78277;-124.988556;;1070.4
1294.0;1180.6;;;;;;;;;;;;;;-0.7193823;1.6525162;-0.4248787;;;;;1070.4
1294.0;1180.6;;;;;;;;;;;;;;;;;7.507553;-37.842953;-124.988556;;1080.1
1294.0;1180.6;;;;;;;;;;;;;;-0.5294351;1.5980712;-0.34284493;;;;;1080.1
1294.0;1180.6;;;;;;;;;;;;;;;;;13.061922;-50.065613;-124.988556;;1080.1
1294.0;1180.6;;;;;;;;;;;;;;-0.39783928;1.6397595;-0.34632406;;;;;1080.1
1294.0;1180.6;;;;;;;;;;;;;;;;;12.653737;-49.02036;-124.988556;;1089.4
1294.0;1180.6;;;;;;;;;;;;;;-0.29126865;1.6839503;-0.35804316;;;;;1089.4
1294.0;1180.6;;;;;;;;;;;;;;;;;8.865627;-42.43599;-123.57707;;1089.4
1294.0;1180.6;;;;;;;;;;;;;;-0.19397564;1.7090976;-0.35261086;;;;;1089.4
1294.0;1181.3;;;;;;;;;;;;;;;;;3.4333322;-40.61632;-112.31574;;1099.1
1294.0;1181.3;;;;;;;;;;;;;;-0.13763848;1.7020783;-0.3399762;;;;;1099.1
1294.0;1181.3;;;;;;;;;;;;;;;;;2.8992584;-45.003357;-97.14805;;1099.1
1294.0;1181.3;;;;;;;;;;;;;;-0.058656577;1.6858425;-0.3599353;;;;;1099.1
1294.0;1181.3;;;;;;;;;;;;;;;;;-0.16022217;-43.759727;-87.13416;;1108.8
1294.0;1181.3;;;;;;;;;;;;;;-0.021546068;1.6485488;-0.34321114;;;;;1108.8
1294.0;1181.3;;;;;;;;;;;;;;;;;-3.1014435;-45.709095;-80.81301;;1108.8
1294.0;1181.3;;;;;;;;;;;;;;-0.006103702;1.5685294;-0.31690422;;;;;1108.8
1294.0;1181.3;;;;;;;;;;;;;;;;;-4.871517;-48.35658;-80.465866;;1118.4
1294.0;1181.3;;;;;;;;;;;;;;0.0113528855;1.4731284;-0.31580552;;;;;1118.4
1294.0;1181.3;;;;;;;;;;;;;;;;;-6.1571097;-42.531357;-88.17179;;1118.4
1294.0;1181.3;;;;;;;;;;;;;;0.034119695;1.4075747;-0.31958982;;;;;1118.4
1295.0;1181.7;;;;-0.8846017;0.61178213;0.27073672;;;;;;;;;;;;;;;
1295.0;1181.7;;;;-0.89029706;0.60557944;0.27574924;;;;;;;;;;;;;;;
1295.0;1181.7;;;;-0.89307415;0.6018029;0.28199008;;;;;;;;;;;;;;;
1295.0;1181.7;;;;-0.8985101;0.59764487;0.289547;;;;;;;;;;;;;;;
1295.0;1181.7;;;;-0.9052125;0.59484106;0.29504016;;;;;;;;;;;;;;;
1295.0;1183.1;90283;90242;11045;;;;;;;;;;;;;;;;;;
1295.0;1191.8;;;;-0.9119035;0.5935212;0.29888156;;;;;;;;;;;;;;;
1295.0;1191.8;;;;-0.9186784;0.5931855;0.30419162;;;;;;;;;;;;;;;
1295.0;1191.8;;;;-0.9255258;0.5908204;0.31133655;;;;;;;;;;;;;;;
1295.0;1191.8;;;;-0.9314157;0.58772284;0.31860355;;;;;;;;;;;;;;;
1295.0;1191.8;;;;-0.936802;0.58406454;0.32202533;;;;;;;;;;;;;;;
1295.0;1201.8;;;;-0.940735;0.58357245;0.32923892;;;;;;;;;;;;;;;
1295.0;1201.8;;;;-0.946869;0.58393866;0.33523563;;;;;;;;;;;;;;;
1295.0;1201.8;;;;-0.9591905;0.5834046;0.3417931;;;;;;;;;;;;;;;
1295.0;1201.8;;;;-0.97249615;0.5837365;0.3477402;;;;;;;;;;;;;;;
1295.0;1201.8;;;;-0.98858654;0.5814133;0.3596802;;;;;;;;;;;;;;;
1295.0;1203.3;106629;106651;11038;;;;;;;;;;;;;;;;;;
1295.0;1209.5;;;;;;;;;;;;;-8;;;;;;;;
1295.0;1209.5;;;;;;;;;;;;;-5;;;;;;;;
1295.0;1209.5;;;;;;;;;;;;;-6;;;;;;;;
1295.0;1209.5;;;;;;;;;;;;;-27;;;;;;;;
1295.0;1209.5;;;;;;;;;;;;;-11;;;;;;;;
1296.0;1211.8;;;;-1.005623;0.57968146;0.37135318;;;;;;;;;;;;;;;
1296.0;1211.8;;;;-1.0214807;0.58131415;0.3839646;;;;;;;;;;;;;;;
1296.0;1211.8;;;;-1.035679;0.58391577;0.39730078;;;;;;;;;;;;;;;
1296.0;1211.8;;;;-1.0529672;0.5827752;0.41003042;;;;;;;;;;;;;;;
1296.0;1211.8;;;;-1.0586587;0.58731467;0.42390448;;;;;;;;;;;;;;;
1296.0;1221.9;;;;-1.0643693;0.58658606;0.44074637;;;;;;;;;;;;;;;
1296.0;1221.9;;;;-1.068226;0.5852166;0.45725256;;;;;;;;;;;;;;;
1296.0;1221.9;;;;-1.068535;0.58653647;0.47126395;;;;;;;;;;;;;;;
1296.0;1221.9;;;;-1.0645143;0.58792883;0.48671347;;;;;;;;;;;;;;;
1296.0;1221.9;;;;-1.063244;0.58162695;0.4985047;;;;;;;;;;;;;;;
1296.0;1223.4;123025;122958;11040;;;;;;;;;;;;;;;;;;
1296.0;1232.0;;;;-1.0600969;0.5738984;0.5141869;;;;;;;;;;;;;;;
1296.0;1232.0;;;;-1.0552179;0.5668679;0.526928;;;;;;;;;;;;;;;
1296.0;1232.0;;;;-1.0475465;0.56111914;0.5423508;;;;;;;;;;;;;;;
1296.0;1232.0;;;;-1.0354768;0.5536156;0.54982;;;;;;;;;;;;;;;
1296.0;1232.0;;;;-1.025303;0.5429993;0.5668755;;;;;;;;;;;;;;;
1298.0;1240.9;;;;;;;;;;;;;;;;;-6.4203315;-31.609547;-100.46311;;1128.0
1298.0;1240.9;;;;;;;;;;;;;;0.01043733;1.3456221;-0.27564317;;;;;1128.0
1298.0;1240.9;;;;;;;;;;;;;;;;;-2.2812586;-27.371288;-116.87445;;1128.0
1298.0;1240.9;;;;;;;;;;;;;;-0.024414808;1.281045;-0.29059726;;;;;1128.0
1298.0;1240.9;;;;;;;;;;;;;;;;;6.424146;-20.25666;-124.847404;;1137.7
1298.0;1240.9;;;;;;;;;;;;;;-0.13959166;1.2581561;-0.33582568;;;;;1137.7
1298.0;1240.9;;;;;;;;;;;;;;;;;19.787437;-13.599812;-124.988556;;1137.7
1298.0;1240.9;;;;;;;;;;;;;;-0.33161414;1.2474746;-0.31073946;;;;;1137.7
1298.0;1240.9;;;;;;;;;;;;;;;;;32.185585;-22.1984;-124.988556;;1147.2
1298.0;1240.9;;;;;;;;;;;;;;-0.4890286;1.1898557;-0.3516953;;;;;1147.2
1298.0;1240.9;;;;;;;;;;;;;;;;;38.598286;-33.768734;-124.988556;;1147.2
1298.0;1240.9;;;;;;;;;;;;;;-0.6036561;1.1424298;-0.4100467;;;;;1147.2
1298.0;1242.1;;;;;;;;;;;;;;;;;42.291023;-43.801693;-124.988556;;1156.9
1298.0;1242.1;;;;;;;;;;;;;;-0.67690057;1.1155126;-0.43830684;;;;;1156.9
1298.0;1242.1;;;;;;;;;;;;;;;;;44.660023;-55.352943;-124.988556;;1156.9
1298.0;1242.1;;;;;;;;;;;;;;-0.7061373;1.0763268;-0.471572;;;;;1156.9
1298.0;1242.1;;;;;;;;;;;;;;;;;40.23484;-64.69924;-124.988556;;1166.6
1298.0;1242.1;;;;;;;;;;;;;;-0.69881284;1.0251777;-0.5247963;;;;;1166.6
1298.0;1242.1;;;;;;;;;;;;;;;;;32.494583;-70.61983;-124.988556;;1166.6
1298.0;1242.1;;;;;;;;;;;;;;-0.69411296;0.9733573;-0.5580615;;;;;1166.6
1298.0;1242.1;;;;;;;;;;;;;;;;;26.787622;-75.193794;-124.988556;;1176.2
1298.0;1242.1;;;;;;;;;;;;;;-0.6770837;0.9341105;-0.55757314;;;;;1176.2
1298.0;1242.1;;;;;;;;;;;;;;;;;22.00003;-76.799835;-124.988556;;1176.2
1298.0;1242.1;;;;;;;;;;;;;;-0.6476028;0.9076815;-0.5051424;;;;;1176.2
1300.0;1241.9;;;;-1.0121499;0.53342825;0.5828133;;;;;;;;;;;;;;;
1300.0;1241.9;;;;-0.99779904;0.524746;0.5965577;;;;;;;;;;;;;;;
1300.0;1241.9;;;;-0.98236096;0.5188523;0.6102868;;;;;;;;;;;;;;;
1300.0;1241.9;;;;-0.968197;0.51255804;0.6203881;;;;;;;;;;;;;;;
1300.0;1241.9;;;;-0.95453656;0.50731665;0.6318131;;;;;;;;;;;;;;;
1300.0;1243.5;139325;139427;11030;;;;;;;;;;;;;;;;;;
1300.0;1249.8;;;;;;;;;;;;;-51;;;;;;;;
1300.0;1249.8;;;;;;;;;;;;;-38;;;;;;;;
1300.0;1249.8;;;;;;;;;;;;;9;;;;;;;;
1300.0;1249.8;;;;;;;;;;;;;-218;;;;;;;;
1300.0;1249.8;;;;;;;;;;;;;70;;;;;;;;
1300.0;1252.1;;;;-0.9381677;0.50378805;0.64360815;;;;;;;;;;;;;;;
1300.0;1252.1;;;;-0.92149746;0.49782568;0.65206915;;;;;;;;;;;;;;;
1300.0;1252.1;;;;-0.90184796;0.49250036;0.6626435;;;;;;;;;;;;;;;
1300.0;1252.1;;;;-0.88178265;0.48862845;0.6685601;;;;;;;;;;;;;;;
1300.0;1252.1;;;;-0.8606454;0.48564917;0.6711579;;;;;;;;;;;;;;;
1300.0;1262.0;;;;-0.8432847;0.47847372;0.67682654;;;;;;;;;;;;;;;
1300.0;1262.0;;;;-0.8253938;0.4704514;0.67783743;;;;;;;;;;;;;;;
1300.0;1262.0;;;;-0.80233014;0.46742636;0.68280035;;;;;;;;;;;;;;;
1300.0;1262.0;;;;-0.7693025;0.47031027;0.6928063;;;;;;;;;;;;;;;
1300.0;1262.0;;;;-0.7376557;0.47691733;0.70250326;;;;;;;;;;;;;;;
1300.0;1263.7;155851;155788;11028;;;;;;;;;;;;;;;;;;
1346.0;1271.9;;;;-0.72959906;0.47686392;0.69401175;;;;;;;;;;;;;;;
1346.0;1271.9;;;;-0.71298605;0.4763413;0.69853216;;;;;;;;;;;;;;;
1346.0;1271.9;;;;-0.6964875;0.47892386;0.69627386;;;;;;;;;;;;;;;
1346.0;1271.9;;;;-0.673565;0.48912054;0.7046891;;;;;;;;;;;;;;;
1346.0;1271.9;;;;-0.67856985;0.4872895;0.6888314;;;;;;;;;;;;;;;
1346.0;1281.6;;;;-0.680996;0.4640923;0.6709061;;;;;;;;;;;;;;;
1346.0;1281.6;;;;-0.6847916;0.442257;0.6564942;;;;;;;;;;;;;;;
1346.0;1281.6;;;;-0.68779;0.42714697;0.6507836;;;;;;;;;;;;;;;
1346.0;1281.6;;;;-0.68975836;0.41619116;0.6502076;;;;;;;;;;;;;;;
1346.0;1281.6;;;;-0.6870728;0.4111176;0.64786917;;;;;;;;;;;;;;;
1346.0;1283.3;172110;172199;11032;;;;;;;;;;;;;;;;;;
1346.0;1289.6;;;;;;;;;;;;;603;;;;;;;;
1346.0;1289.6;;;;;;;;;;;;;-308;;;;;;;;
1346.0;1289.6;;;;;;;;;;;;;-1376;;;;;;;;
1346.0;1289.6;;;;;;;;;;;;;881;;;;;;;;
1346.0;1289.6;;;;;;;;;;;;;7121;;;;;;;;
1346.0;1291.7;;;;-0.67919165;0.4138947;0.64719015;;;;;;;;;;;;;;;
1346.0;1291.7;;;;-0.6752549;0.41644675;0.64124304;;;;;;;;;;;;;;;
1346.0;1291.7;;;;-0.678032;0.41812903;0.63688284;;;;;;;;;;;;;;;
1346.0;1291.7;;;;-0.6860314;0.41901022;0.6344529;;;;;;;;;;;;;;;
1346.0;1291.7;;;;-0.69787985;0.41917425;0.6276055;;;;;;;;;;;;;;;
1347.0;1300.6;;;;;;;;;;;;;;;;;15.289773;-74.98398;-124.988556;;1185.9
1347.0;1300.6;;;;;;;;;;;;;;-0.5890683;0.8971221;-0.4403821;;;;;1185.9
1347.0;1300.6;;;;;;;;;;;;;;;;;9.392072;-67.66335;-124.988556;;1185.9
1347.0;1300.6;;;;;;;;;;;;;;-0.5343181;0.91116065;-0.3376568;;;;;1185.9
1347.0;1300.6;;;;;;;;;;;;;;;;;4.448073;-57.473984;-124.50789;;1195.6
1347.0;1300.6;;;;;;;;;;;;;;-0.48878446;0.92898345;-0.22779016;;;;;1195.6
1347.0;1300.6;;;;;;;;;;;;;;;;;-0.5340739;-46.468246;-120.52141;;1195.6
1347.0;1300.6;;;;;;;;;;;;;;-0.43910033;0.9198279;-0.13702811;;;;;1195.6
1347.0;1300.6;;;;;;;;;;;;;;;;;-4.0284433;-38.224434;-115.03952;;1205.1
1347.0;1300.6;;;;;;;;;;;;;;-0.38758507;0.89901423;-0.05444502;;;;;1205.1
1347.0;1300.6;;;;;;;;;;;;;;;;;-4.2611465;-36.435284;-110.679184;;1205.1
1347.0;1300.6;;;;;;;;;;;;;;-0.33790094;0.87459946;-0.0051271096;;;;;1205.1
1347.0;1301.4;;;;;;;;;;;;;;;;;-2.6970735;-38.66314;-107.15049;;1214.7
1347.0;1301.4;;;;;;;;;;;;;;-0.2979217;0.8351085;0.012390515;;;;;1214.7
1347.0;1301.4;;;;;;;;;;;;;;;;;0.8926664;-44.042027;-104.25123;;1214.7
1347.0;1301.4;;;;;;;;;;;;;;-0.25318155;0.7917722;-0.009887997;;;;;1214.7
1347.0;1301.4;;;;;;;;;;;;;;;;;6.5652943;-51.6068;-101.11926;;1224.4
1347.0;1301.4;;;;;;;;;;;;;;-0.22070986;0.7462386;-0.061952576;;;;;1224.4
1347.0;1301.4;;;;;;;;;;;;;;;;;13.031404;-59.244057;-97.766045;;1224.4
1347.0;1301.4;;;;;;;;;;;;;;-0.19928586;0.69881284;-0.12128056;;;;;1224.4
1347.0;1301.4;;;;;;;;;;;;;;;;;18.414106;-67.289505;-95.171974;;1234.1
1347.0;1301.4;;;;;;;;;;;;;;-0.17603077;0.6745811;-0.19269387;;;;;1234.1
1347.0;1301.4;;;;;;;;;;;;;;;;;21.717735;-71.70324;-91.292305;;1234.1
1347.0;1301.4;;;;;;;;;;;;;;-0.17358929;0.64888453;-0.23834956;;;;;1234.1
1349.0;1301.6;;;;-0.71173865;0.4136811;0.6136361;;;;;;;;;;;;;;;
1349.0;1301.6;;;;-0.7252961;0.4081002;0.60472494;;;;;;;;;;;;;;;
1349.0;1301.6;;;;-0.74111944;0.40059668;0.59164435;;;;;;;;;;;;;;;
1349.0;1301.6;;;;-0.75353634;0.39513403;0.58406454;;;;;;;;;;;;;;;
1349.0;1301.6;;;;-0.76628506;0.388115;0.56976706;;;;;;;;;;;;;;;
1349.0;1303.3;188488;188519;11034;;;;;;;;;;;;;;;;;;
1349.0;1311.6;;;;-0.7766191;0.38000494;0.5572434;;;;;;;;;;;;;;;
1349.0;1311.6;;;;-0.7875291;0.37153628;0.5461007;;;;;;;;;;;;;;;
1349.0;1311.6;;;;-0.7981225;0.36468127;0.53651816;;;;;;;;;;;;;;;
1349.0;1311.6;;;;-0.80682766;0.3582535;0.52561194;;;;;;;;;;;;;;;
1349.0;1311.6;;;;-0.8157197;0.35120013;0.5144387;;;;;;;;;;;;;;;
1349.0;1315.6;;;;;;;;;;;;;;;;;23.892178;-73.58775;-88.64482;;1243.7
1349.0;1315.6;;;;;;;;;;;;;;-0.16681418;0.6394848;-0.2620319;;;;;1243.7
1349.0;1315.6;;;;;;;;;;;;;;;;;25.742363;-73.00409;-86.046936;;1243.7
1349.0;1315.6;;;;;;;;;;;;;;-0.16760765;0.62215036;-0.25263223;;;;;1243.7
1349.0;1315.6;;;;;;;;;;;;;;;;;27.672657;-70.657974;-82.60216;;1253.2
1349.0;1315.6;;;;;;;;;;;;;;-0.17218544;0.620014;-0.21143223;;;;;1253.2
1349.0;1315.6;;;;;;;;;;;;;;;;;30.30488;-67.52221;-78.55846;;1253.2
1349.0;1315.6;;;;;;;;;;;;;;-0.18347728;0.6236152;-0.15063937;;;;;1253.2
1349.0;1315.6;;;;;;;;;;;;;;;;;32.31529;-66.17939;-74.377426;;1262.8
1349.0;1315.6;;;;;;;;;;;;;;-0.19067965;0.62855923;-0.09906308;;;;;1262.8
1349.0;1315.6;;;;;;;;;;;;;;;;;34.06247;-66.69439;-69.56694;;1262.8
1349.0;1315.6;;;;;;;;;;;;;;-0.18787195;0.63234353;-0.052186653;;;;;1262.8
1409.0;1321.6;;;;-0.8235475;0.34569553;0.50708395;;;;;;;;;;;;;;;
1409.0;1321.6;;;;-0.831112;0.3406029;0.5000382;;;;;;;;;;;;;;;
1409.0;1321.6;;;;-0.83670056;0.33597186;0.49103934;;;;;;;;;;;;;;;
1409.0;1321.6;;;;-0.8413316;0.33124164;0.4802819;;;;;;;;;;;;;;;
1409.0;1321.6;;;;-0.8457948;0.3256264;0.4696427;;;;;;;;;;;;;;;
1409.0;1323.3;204943;204901;11036;;;;;;;;;;;;;;;;;;
1409.0;1329.5;;;;;;;;;;;;;13249;;;;;;;;
1409.0;1329.5;;;;;;;;;;;;;14989;;;;;;;;
1409.0;1329.5;;;;;;;;;;;;;12879;;;;;;;;
1409.0;1329.5;;;;;;;;;;;;;10642;;;;;;;;
1409.0;1329.5;;;;;;;;;;;;;10001;;;;;;;;
1409.0;1331.4;;;;-0.84988034;0.31881717;0.45608908;;;;;;;;;;;;;;;
1409.0;1331.4;;;;-0.8530122;0.31186298;0.44598013;;;;;;;;;;;;;;;
1409.0;1331.4;;;;-0.85494626;0.30362323;0.43463522;;;;;;;;;;;;;;;
1409.0;1331.4;;;;-0.8562738;0.29527667;0.42561346;;;;;;;;;;;;;;;
1409.0;1331.4;;;;-0.8566781;0.28741458;0.41795737;;;;;;;;;;;;;;;
1409.0;1341.5;;;;-0.856949;0.2798157;0.41004187;;;;;;;;;;;;;;;
1409.0;1341.5;;;;-0.8575746;0.27230456;0.40201193;;;;;;;;;;;;;;;
1409.0;1341.5;;;;-0.8597604;0.26534656;0.39456564;;;;;;;;;;;;;;;
1409.0;1341.5;;;;-0.8631631;0.2589951;0.38901144;;;;;;;;;;;;;;;
1409.0;1341.5;;;;-0.866974;0.25313953;0.3834725;;;;;;;;;;;;;;;
1409.0;1343.3;221339;221358;11026;;;;;;;;;;;;;;;;;;
1410.0;1351.6;;;;-0.8710176;0.2479935;0.3770905;;;;;;;;;;;;;;;
1410.0;1351.6;;;;-0.87625515;0.242672;0.36802295;;;;;;;;;;;;;;;
1410.0;1351.6;;;;-0.88277066;0.23722842;0.35953143;;;;;;;;;;;;;;;
1410.0;1351.6;;;;-0.88949215;0.23254779;0.3556023;;;;;;;;;;;;;;;
1410.0;1351.6;;;;-0.8954927;0.22821811;0.35264972;;;;;;;;;;;;;;;
1410.0;1361.1;;;;;;;;;;;;;;;;;36.236916;-69.76913;-64.661095;;1272.5
1410.0;1361.1;;;;;;;;;;;;;;-0.19135106;0.6306345;-0.018311106;;;;;1272.5
1410.0;1361.1;;;;;;;;;;;;;;;;;38.77377;-75.07554;-59.091465;;1272.5
1410.0;1361.1;;;;;;;;;;;;;;-0.19183935;0.62282175;0.006286813;;;;;1272.5
1410.0;1361.1;;;;;;;;;;;;;;;;;41.25721;-81.99942;-53.323467;;1282.0
1410.0;1361.1;;;;;;;;;;;;;;-0.1721244;0.6158635;0.011658071;;;;;1282.0
1410.0;1361.1;;;;;;;;;;;;;;;;;44.305244;-88.11457;-46.632282;;1282.0
1410.0;1361.1;;;;;;;;;;;;;;-0.14819789;0.6017029;-0.006530961;;;;;1282.0
1410.0;1361.1;;;;;;;;;;;;;;;;;46.395763;-92.32612;-40.356915;;1291.7
1410.0;1361.1;;;;;;;;;;;;;;-0.14001893;0.59993285;-0.027161473;;;;;1291.7
1410.0;1361.1;;;;;;;;;;;;;;;;;45.110172;-94.40138;-34.22269;;1291.7
1410.0;1361.1;;;;;;;;;;;;;;-0.12329478;0.59254736;-0.05365154;;;;;1291.7
1410.0;1361.6;;;;-0.9015008;0.22500995;0.34855273;;;;;;;;;;;;;;;
1410.0;1361.6;;;;-0.9068185;0.22147372;0.34440997;;;;;;;;;;;;;;;
1410.0;1361.6;;;;-0.912861;0.21826175;0.3401337;;;;;;;;;;;;;;;
1410.0;1361.6;;;;-0.91900265;0.21465304;0.33469012;;;;;;;;;;;;;;;
1410.0;1361.6;;;;-0.9253274;0.21079257;0.3306885;;;;;;;;;;;;;;;
1410.0;1363.5;237629;237614;11023;;;;;;;;;;;;;;;;;;
1467.0;1369.7;;;;;;;;;;;;;9288;;;;;;;;
1467.0;1369.7;;;;;;;;;;;;;8019;;;;;;;;
1467.0;1369.7;;;;;;;;;;;;;7232;;;;;;;;
1467.0;1369.7;;;;;;;;;;;;;6642;;;;;;;;
1467.0;1369.7;;;;;;;;;;;;;6135;;;;;;;;
1467.0;1371.7;;;;-0.9315568;0.20690158;0.32624438;;;;;;;;;;;;;;;
1467.0;1371.7;;;;-0.9376565;0.20260623;0.32182315;;;;;;;;;;;;;;;
1467.0;1371.7;;;;-0.9433023;0.19805148;0.3167992;;;;;;;;;;;;;;;
1467.0;1371.7;;;;-0.94900525;0.1939545;0.31258014;;;;;;;;;;;;;;;
1467.0;1371.7;;;;-0.95473874;0.18888476;0.30960086;;;;;;;;;;;;;;;
1467.0;1381.8;;;;-0.9605981;0.1842499;0.305851;;;;;;;;;;;;;;;
1467.0;1381.8;;;;-0.96650326;0.17896272;0.30258182;;;;;;;;;;;;;;;
1467.0;1381.8;;;;-0.9732667;0.17372896;0.29898837;;;;;;;;;;;;;;;
1467.0;1381.8;;;;-0.97953045;0.16857912;0.29420856;;;;;;;;;;;;;;;
1467.0;1381.8;;;;-0.98602307;0.16337205;0.29007724;;;;;;;;;;;;;;;
1467.0;1383.7;254135;254120;11026;;;;;;;;;;;;;;;;;;
1467.0;1391.7;;;;-0.9925271;0.15822221;0.28619006;;;;;;;;;;;;;;;
1467.0;1391.7;;;;-0.9985925;0.15353777;0.28297427;;;;;;;;;;;;;;;
1467.0;1391.7;;;;-1.0038835;0.14941789;0.28024676;;;;;;;;;;;;;;;
1467.0;1391.7;;;;-1.0088578;0.14563753;0.27742007;;;;;;;;;;;;;;;
1467.0;1391.7;;;;-1.0131112;0.14252855;0.27539065;;;;;;;;;;;;;;;
1470.0;1401.8;;;;-1.0169526;0.13953401;0.27273944;;;;;;;;;;;;;;;
1470.0;1401.8;;;;-1.0199624;0.13730623;0.2707329;;;;;;;;;;;;;;;
1470.0;1401.8;;;;-1.0218278;0.13500215;0.26755908;;;;;;;;;;;;;;;
1470.0;1401.8;;;;-1.0228082;0.1336403;0.26538852;;;;;;;;;;;;;;;
1470.0;1401.8;;;;-1.0233613;0.1318741;0.2628937;;;;;;;;;;;;;;;
1470.0;1403.8;262143;262143;11029;;;;;;;;;;;;;;;;;;
1470.0;1410.0;;;;;;;;;;;;;6031;;;;;;;;
1470.0;1410.0;;;;;;;;;;;;;6266;;;;;;;;
1470.0;1410.0;;;;;;;;;;;;;6630;;;;;;;;
1470.0;1410.0;;;;;;;;;;;;;6881;;;;;;;;
1470.0;1410.0;;;;;;;;;;;;;6962;;;;;;;;
1470.0;1411.9;;;;-1.0233346;0.13029863;0.26127246;;;;;;;;;;;;;;;
1470.0;1411.9;;;;-1.0235177;0.12968828;0.26039127;;;;;;;;;;;;;;;
1470.0;1411.9;;;;-1.0239679;0.12872697;0.25942233;;;;;;;;;;;;;;;
1470.0;1411.9;;;;-1.0252115;0.12850572;0.25666812;;;;;;;;;;;;;;;
1470.0;1411.9;;;;-1.0272294;0.12770845;0.2533951;;;;;;;;;;;;;;;
1472.0;1421.2;;;;;;;;;;;;;;;;;41.72262;-94.31745;-28.012177;;1301.4
1472.0;1421.2;;;;;;;;;;;;;;-0.098941006;0.5802179;-0.086123236;;;;;1301.4
1472.0;1421.2;;;;;;;;;;;;;;;;;37.514877;-91.60893;-21.275217;;1301.4
1472.0;1421.2;;;;;;;;;;;;;;-0.060060427;0.5553758;-0.12738426;;;;;1301.4
1472.0;1421.2;;;;;;;;;;;;;;;;;32.433548;-86.2949;-13.920255;;1311.1
1472.0;1421.2;;;;;;;;;;;;;;-0.008301035;0.53260905;-0.17542039;;;;;1311.1
1472.0;1421.2;;;;;;;;;;;;;;;;;26.707512;-78.08923;-6.275368;;1311.1
1472.0;1421.2;;;;;;;;;;;;;;0.06524857;0.50398266;-0.22156438;;;;;1311.1
1472.0;1421.2;;;;;;;;;;;;;;;;;20.77929;-67.22083;1.7166661;;1320.6
1472.0;1421.2;;;;;;;;;;;;;;0.15607166;0.47437972;-0.26392406;;;;;1320.6
1472.0;1421.2;;;;;;;;;;;;;;;;;14.820552;-53.537098;9.510331;;1320.6
1472.0;1421.2;;;;;;;;;;;;;;0.24481948;0.42518386;-0.29029205;;;;;1320.6
1472.0;1422.0;;;;;;;;;;;;;;;;;9.250923;-39.330727;18.101292;;1330.1
1472.0;1422.0;;;;;;;;;;;;;;0.32831812;0.36146122;-0.3037202;;;;;1330.1
1472.0;1422.0;;;;;;;;;;;;;;;;;7.7059236;-25.627918;28.706472;;1330.1
1472.0;1422.0;;;;;;;;;;;;;;0.3969848;0.29059726;-0.32923368;;;;;1330.1
1472.0;1422.0;;;;;;;;;;;;;;;;;10.521256;-11.642812;38.94162;;1339.7
1472.0;1422.0;;;;;;;;;;;;;;0.44538713;0.24115726;-0.349559;;;;;1339.7
1472.0;1422.0;;;;;;;;;;;;;;;;;15.907774;0.23270364;48.46721;;1339.7
1472.0;1422.0;;;;;;;;;;;;;;0.46058536;0.18756676;-0.34827724;;;;;1339.7
1472.0;1422.0;;;;;;;;;;;;;;;;;20.76403;8.003479;56.028168;;1349.3
1472.0;1422.0;;;;;;;;;;;;;;0.44264045;0.1314127;-0.3370464;;;;;1349.3
1472.0;1422.0;;;;;;;;;;;;;;;;;30.251472;14.156774;62.704094;;1349.3
1472.0;1422.0;;;;;;;;;;;;;;0.36829737;0.122989595;-0.31501207;;;;;1349.3
1475.0;1421.8;;;;-1.0310479;0.12696077;0.25057986;;;;;;;;;;;;;;;
1475.0;1421.8;;;;-1.0355645;0.12620164;0.24819568;;;;;;;;;;;;;;;
1475.0;1421.8;;;;-1.0407449;0.12556078;0.24569705;;;;;;;;;;;;;;;
1475.0;1421.8;;;;-1.0461389;0.12519456;0.2430611;;;;;;;;;;;;;;;
1475.0;1421.8;;;;-1.0511857;0.12520601;0.24099734;;;;;;;;;;;;;;;
1475.0;1423.9;262143;262143;11026;;;;;;;;;;;;;;;;;;
1475.0;1432.0;;;;-1.0562745;0.12582399;0.23892215;;;;;;;;;;;;;;;
1475.0;1432.0;;;;-1.061001;0.1270218;0.23747638;;;;;;;;;;;;;;;
1475.0;1432.0;;;;-1.0650598;0.1287079;0.23578647;;;;;;;;;;;;;;;
1475.0;1432.0;;;;-1.0685769;0.13116457;0.23437503;;;;;;;;;;;;;;;
1475.0;1432.0;;;;-1.0709497;0.13376619;0.23254779;;;;;;;;;;;;;;;
1475.0;1436.2;;;;;;;;;;;;;;;;;42.348248;19.672993;70.83727;;1359.0
1475.0;1436.2;;;;;;;;;;;;;;0.2773522;0.10180975;-0.252266;;;;;1359.0
1475.0;1436.2;;;;;;;;;;;;;;;;;48.257393;20.950956;76.471756;;1359.0
1475.0;1436.2;;;;;;;;;;;;;;0.18640706;0.10296945;-0.15686513;;;;;1359.0
1475.0;1436.2;;;;;;;;;;;;;;;;;46.10584;19.219032;79.744865;;1368.7
1475.0;1436.2;;;;;;;;;;;;;;0.09021272;0.11243019;-0.053773616;;;;;1368.7
1475.0;1436.2;;;;;;;;;;;;;;;;;43.378246;18.059328;82.75857;;1368.7
1475.0;1436.2;;;;;;;;;;;;;;0.0046388134;0.12537004;0.009887997;;;;;1368.7
1475.0;1436.2;;;;;;;;;;;;;;;;;42.474136;18.272957;87.10746;;1378.3
1475.0;1436.2;;;;;;;;;;;;;;-0.047853023;0.13556322;0.023010956;;;;;1378.3
1475.0;1436.2;;;;;;;;;;;;;;;;;42.741173;17.960142;92.42149;;1378.3
1475.0;1436.2;;;;;;;;;;;;;;-0.07361065;0.17554247;0.03540147;;;;;1378.3
1540.0;1441.9;;;;-1.071972;0.1365967;0.23198703;;;;;;;;;;;;;;;
1540.0;1441.9;;;;-1.0727922;0.14006044;0.23100284;;;;;;;;;;;;;;;
1540.0;1441.9;;;;-1.0730096;0.14409257;0.23030475;;;;;;;;;;;;;;;
1540.0;1441.9;;;;-1.0734483;0.14754106;0.22980884;;;;;;;;;;;;;;;
1540.0;1441.9;;;;-1.0736009;0.15148546;0.22977832;;;;;;;;;;;;;;;
1540.0;1444.0;262143;262143;11023;;;;;;;;;;;;;;;;;;
1540.0;1449.9;;;;;;;;;;;;;6950;;;;;;;;
1540.0;1449.9;;;;;;;;;;;;;7019;;;;;;;;
1540.0;1449.9;;;;;;;;;;;;;7013;;;;;;;;
1540.0;1449.9;;;;;;;;;;;;;6769;;;;;;;;
1540.0;1449.9;;;;;;;;;;;;;6426;;;;;;;;
1540.0;1451.7;;;;-1.0736734;0.15618135;0.22951892;;;;;;;;;;;;;;;
1540.0;1451.7;;;;-1.0733224;0.16105653;0.23044589;;;;;;;;;;;;;;;
1540.0;1451.7;;;;-1.0728456;0.16624452;0.23198703;;;;;;;;;;;;;;;
1540.0;1451.7;;;;-1.0723153;0.17230226;0.23269656;;;;;;;;;;;;;;;
1540.0;1451.7;;;;-1.0718423;0.17865373;0.23277667;;;;;;;;;;;;;;;
1540.0;1461.8;;;;-1.0719568;0.18555452;0.23243716;;;;;;;;;;;;;;;
1540.0;1461.8;;;;-1.0723764;0.19255069;0.23182681;;;;;;;;;;;;;;;
1540.0;1461.8;;;;-1.0730554;0.19975284;0.23048404;;;;;;;;;;;;;;;
1540.0;1461.8;;;;-1.0735437;0.20644382;0.229435;;;;;;;;;;;;;;;
1540.0;1461.8;;;;-1.0746537;0.21374896;0.22830203;;;;;;;;;;;;;;;
1540.0;1463.9;262143;262143;11018;;;;;;;;;;;;;;;;;;
1548.0;1471.9;;;;-1.0758706;0.22097781;0.22784808;;;;;;;;;;;;;;;
1548.0;1471.9;;;;-1.0777398;0.22758868;0.22685626;;;;;;;;;;;;;;;
1548.0;1471.9;;;;-1.0808908;0.23419955;0.22594073;;;;;;;;;;;;;;;
1548.0;1471.9;;;;-1.0849649;0.24086383;0.2250481;;;;;;;;;;;;;;;
1548.0;1471.9;;;;-1.0901414;0.24716952;0.22373584;;;;;;;;;;;;;;;
1548.0;1482.0;;;;-1.095276;0.25424197;0.22404101;;;;;;;;;;;;;;;
1548.0;1482.0;;;;-1.1016504;0.2603455;0.21942523;;;;;;;;;;;;;;;
1548.0;1482.0;;;;-1.109253;0.2688065;0.2209473;;;;;;;;;;;;;;;
1548.0;1482.0;;;;-1.1180879;0.27721408;0.22093585;;;;;;;;;;;;;;;
1548.0;1482.0;;;;-1.1275674;0.28385165;0.22367862;;;;;;;;;;;;;;;
1548.0;1484.2;262143;262143;11025;;;;;;;;;;;;;;;;;;
1548.0;1489.0;;;;;;;;;;;;;;;;;40.41795;14.229255;98.12464;;1387.9
1548.0;1489.0;;;;;;;;;;;;;;-0.062746055;0.2428663;0.081240274;;;;;1387.9
1548.0;1489.0;;;;;;;;;;;;;;;;;30.90762;8.056887;105.36134;;1387.9
1548.0;1489.0;;;;;;;;;;;;;;-0.037171546;0.27777946;0.17859432;;;;;1387.9
1548.0;1489.0;;;;;;;;;;;;;;;;;15.686514;1.6327403;113.18934;;1397.5
1548.0;1489.0;;;;;;;;;;;;;;-0.017944884;0.24677266;0.30939665;;;;;1397.5
1548.0;1489.0;;;;;;;;;;;;;;;;;9.865108;-6.9696646;121.46367;;1397.5
1548.0;1489.0;;;;;;;;;;;;;;0.0112308115;0.23419905;0.4308603;;;;;1397.5
1548.0;1489.0;;;;;;;;;;;;;;;;;17.139957;-13.863032;124.93515;;1407.2
1548.0;1489.0;;;;;;;;;;;;;;0.034058657;0.22034363;0.4280526;;;;;1407.2
1548.0;1489.0;;;;;;;;;;;;;;;;;33.394882;-9.228034;124.988556;;1407.2
1548.0;1489.0;;;;;;;;;;;;;;-0.06567583;0.22363964;0.23450422;;;;;1407.2
1550.0;1489.6;;;;;;;;;;;;;;;;;60.663166;17.620625;124.988556;;1416.8
1550.0;1489.6;;;;;;;;;;;;;;-0.30774865;0.3696402;-0.054811243;;;;;1416.8
1550.0;1489.6;;;;;;;;;;;;;;;;;83.09808;48.56258;124.626144;;1416.8
1550.0;1489.6;;;;;;;;;;;;;;-0.56501967;0.5310221;-0.19171728;;;;;1416.8
1550.0;1489.6;;;;;;;;;;;;;;;;;87.618645;58.19117;113.01767;;1426.3
1550.0;1489.6;;;;;;;;;;;;;;-0.81514937;0.57667774;-0.16748558;;;;;1426.3
1550.0;1489.6;;;;;;;;;;;;;;;;;80.91219;50.74465;83.6169;;1426.3
1550.0;1489.6;;;;;;;;;;;;;;-0.9383831;0.7068697;-0.060365614;;;;;1426.3
1550.0;1489.6;;;;;;;;;;;;;;;;;84.68505;45.18265;65.240944;;1436.0
1550.0;1489.6;;;;;;;;;;;;;;-0.9202551;0.95620596;-0.30317086;;;;;1436.0
1550.0;1489.6;;;;;;;;;;;;;;;;;112.75445;62.185276;84.97879;;1436.0
1550.0;1489.6;;;;;;;;;;;;;;-0.7853023;1.3972595;-0.6037782;;;;;1436.0
1550.0;1490.2;;;;;;;;;;;;;6011;;;;;;;;
1550.0;1490.2;;;;;;;;;;;;;5642;;;;;;;;
1550.0;1490.2;;;;;;;;;;;;;5341;;;;;;;;
1550.0;1490.2;;;;;;;;;;;;;4862;;;;;;;;
1550.0;1490.2;;;;;;;;;;;;;4162;;;;;;;;
1550.0;1491.9;;;;-1.1362039;0.2908707;0.22647479;;;;;;;;;;;;;;;
1550.0;1491.9;;;;-1.1445581;0.29872134;0.229332;;;;;;;;;;;;;;;
1550.0;1491.9;;;;-1.1518556;0.3066254;0.23253635;;;;;;;;;;;;;;;
1550.0;1491.9;;;;-1.1603357;0.31508258;0.23486713;;;;;;;;;;;;;;;
1550.0;1491.9;;;;-1.1690027;0.32479098;0.24092487;;;;;;;;;;;;;;;
1582.0;1501.9;;;;-1.1818277;0.33370593;0.24151233;;;;;;;;;;;;;;;
1582.0;1501.9;;;;-1.1972734;0.34359744;0.24821475;;;;;;;;;;;;;;;
1582.0;1501.9;;;;-1.214676;0.3528748;0.25860217;;;;;;;;;;;;;;;
1582.0;1501.9;;;;-1.2335244;0.3615761;0.2676964;;;;;;;;;;;;;;;
1582.0;1501.9;;;;-1.2541009;0.37074283;0.27759936;;;;;;;;;;;;;;;
1582.0;1504.1;262143;262143;11020;;;;;;;;;;;;;;;;;;
1582.0;1511.7;;;;-1.2738839;0.37956625;0.28643802;;;;;;;;;;;;;;;
1582.0;1511.7;;;;-1.2923242;0.3897248;0.2941437;;;;;;;;;;;;;;;
1582.0;1511.7;;;;-1.3077089;0.4002915;0.30212787;;;;;;;;;;;;;;;
1582.0;1511.7;;;;-1.3212663;0.41187292;0.3082619;;;;;;;;;;;;;;;
1582.0;1511.7;;;;-1.3334619;0.42379767;0.31374744;;;;;;;;;;;;;;;
1582.0;1521.8;;;;-1.3464319;0.43617254;0.32044604;;;;;;;;;;;;;;;
1582.0;1521.8;;;;-1.3577615;0.44808584;0.32779315;;;;;;;;;;;;;;;
1582.0;1521.8;;;;-1.3679315;0.4583016;0.33191684;;;;;;;;;;;;;;;
1582.0;1521.8;;;;-1.3767625;0.4682427;0.33593753;;;;;;;;;;;;;;;
1582.0;1521.8;;;;-1.3841478;0.478653;0.34108356;;;;;;;;;;;;;;;
1582.0;1524.1;262143;262143;11005;;;;;;;;;;;;;;;;;;
1582.0;1530.3;;;;;;;;;;;;;3478;;;;;;;;
1582.0;1530.3;;;;;;;;;;;;;2983;;;;;;;;
1582.0;1530.3;;;;;;;;;;;;;2581;;;;;;;;
1582.0;1530.3;;;;;;;;;;;;;2104;;;;;;;;
1582.0;1530.3;;;;;;;;;;;;;1500;;;;;;;;
1584.0;1532.0;;;;-1.3898317;0.4885674;0.34511188;;;;;;;;;;;;;;;
1584.0;1532.0;;;;-1.3939477;0.49843985;0.34948733;;;;;;;;;;;;;;;
1584.0;1532.0;;;;-1.3969041;0.5089417;0.35289767;;;;;;;;;;;;;;;
1584.0;1532.0;;;;-1.3990518;0.5198441;0.3570328;;;;;;;;;;;;;;;
1584.0;1532.0;;;;-1.4001809;0.5309525;0.361393;;;;;;;;;;;;;;;
1584.0;1541.4;;;;;;;;;;;;;;;;;118.39656;95.73275;121.28437;;1445.6
1584.0;1541.4;;;;;;;;;;;;;;-0.5460372;1.7758111;-0.6566973;;;;;1445.6
1584.0;1541.4;;;;;;;;;;;;;;;;;68.15546;123.18415;124.988556;;1445.6
1584.0;1541.4;;;;;;;;;;;;;;-0.3249611;1.9979857;-0.36292613;;;;;1445.6
1584.0;1541.4;;;;;;;;;;;;;;;;;24.319437;124.988556;124.988556;;1455.3
1584.0;1541.4;;;;;;;;;;;;;;-0.19946899;1.9979857;-0.42896816;;;;;1455.3
1584.0;1541.4;;;;;;;;;;;;;;;;;12.905515;122.05878;124.988556;;1455.3
1584.0;1541.4;;;;;;;;;;;;;;-0.27069917;1.9979857;-0.42982268;;;;;1455.3
1584.0;1541.4;;;;;;;;;;;;;;;;;53.2815;79.69908;124.988556;;1465.0
1584.0;1541.4;;;;;;;;;;;;;;-0.54866177;1.9979857;-0.3895993;;;;;1465.0
1584.0;1541.4;;;;;;;;;;;;;;;;;54.265728;32.029175;120.26963;;1465.0
1584.0;1541.4;;;;;;;;;;;;;;-0.67738885;1.9979857;-0.651326;;;;;1465.0
1584.0;1541.9;;;;-1.4005204;0.54269797;0.36501697;;;;;;;;;;;;;;;
1584.0;1541.9;;;;-1.4002076;0.5543938;0.36923602;;;;;;;;;;;;;;;
1584.0;1541.9;;;;-1.3992578;0.566948;0.3737221;;;;;;;;;;;;;;;
1584.0;1541.9;;;;-1.3985406;0.58139426;0.38003927;;;;;;;;;;;;;;;
1584.0;1541.9;;;;-1.3960801;0.59546286;0.38634497;;;;;;;;;;;;;;;
1584.0;1544.3;262143;262143;11008;;;;;;;;;;;;;;;;;;
1643.0;1548.9;;;;;;;;;;;;;;;;;6.084628;23.026215;59.003723;;1474.5
1643.0;1548.9;;;;;;;;;;;;;;-0.90035707;1.8762779;-0.5562914;;;;;1474.5
1643.0;1548.9;;;;;;;;;;;;;;;;;-14.599292;-1.5945921;-28.893398;;1474.5
1643.0;1548.9;;;;;;;;;;;;;;-1.0754722;1.2024293;-0.47895747;;;;;1474.5
1643.0;1548.9;;;;;;;;;;;;;;;;;10.063478;-8.354443;-107.39082;;1484.2
1643.0;1548.9;;;;;;;;;;;;;;-1.121189;0.78633994;-0.55476546;;;;;1484.2
1643.0;1548.9;;;;;;;;;;;;;;;;;48.581654;27.035585;-124.988556;;1484.2
1643.0;1548.9;;;;;;;;;;;;;;-1.2085329;0.66139716;-0.63917965;;;;;1484.2
1643.0;1548.9;;;;;;;;;;;;;;;;;60.029907;65.19898;-124.988556;;1493.9
1643.0;1548.9;;;;;;;;;;;;;;-1.4425489;0.75515;-0.47181615;;;;;1493.9
1643.0;1548.9;;;;;;;;;;;;;;;;;23.495438;77.7688;-123.46263;;1493.9
1643.0;1548.9;;;;;;;;;;;;;;-1.5457625;0.7932981;-0.39674062;;;;;1493.9
1643.0;1551.9;;;;-1.391533;0.60992056;0.39162832;;;;;;;;;;;;;;;
1643.0;1551.9;;;;-1.3865014;0.62452704;0.3959008;;;;;;;;;;;;;;;
1643.0;1551.9;;;;-1.3865014;0.64479834;0.40170294;;;;;;;;;;;;;;;
1643.0;1551.9;;;;-1.3862573;0.66665274;0.40813833;;;;;;;;;;;;;;;
1643.0;1551.9;;;;-1.3825761;0.68737036;0.41460425;;;;;;;;;;;;;;;
1643.0;1562.0;;;;-1.3778802;0.70709616;0.42095953;;;;;;;;;;;;;;;
1643.0;1562.0;;;;-1.373253;0.7269593;0.42809683;;;;;;;;;;;;;;;
1643.0;1562.0;;;;-1.3690072;0.7466164;0.43554312;;;;;;;;;;;;;;;
1643.0;1562.0;;;;-1.3652307;0.765442;0.4430657;;;;;;;;;;;;;;;
1643.0;1562.0;;;;-1.3604928;0.7837297;0.4503594;;;;;;;;;;;;;;;
1643.0;1564.4;262143;262143;11013;;;;;;;;;;;;;;;;;;
1650.0;1570.3;;;;;;;;;;;;;841;;;;;;;;
1650.0;1570.3;;;;;;;;;;;;;411;;;;;;;;
1650.0;1570.3;;;;;;;;;;;;;227;;;;;;;;
1650.0;1570.3;;;;;;;;;;;;;-148;;;;;;;;
1650.0;1570.3;;;;;;;;;;;;;-776;;;;;;;;
1650.0;1571.8;;;;-1.3561555;0.8011285;0.4579621;;;;;;;;;;;;;;;
1650.0;1571.8;;;;-1.3512536;0.81792843;0.4650994;;;;;;;;;;;;;;;
1650.0;1571.8;;;;-1.3470689;0.8343164;0.4724961;;;;;;;;;;;;;;;
1650.0;1571.8;;;;-1.3428727;0.84918225;0.47905356;;;;;;;;;;;;;;;
1650.0;1571.8;;;;-1.3390428;0.8633157;0.4854737;;;;;;;;;;;;;;;
1650.0;1581.9;;;;-1.334675;0.87619793;0.49108893;;;;;;;;;;;;;;;
1650.0;1581.9;;;;-1.3300401;0.8883935;0.4960366;;;;;;;;;;;;;;;
1650.0;1581.9;;;;-1.3249208;0.8995553;0.5009423;;;;;;;;;;;;;;;
1650.0;1581.9;;;;-1.3195688;0.910534;0.5065766;;;;;;;;;;;;;;;
1650.0;1581.9;;;;-1.3131524;0.9207078;0.5120469;;;;;;;;;;;;;;;
1650.0;1584.3;262143;262143;11006;;;;;;;;;;;;;;;;;;
1650.0;1592.0;;;;-1.3065759;0.9301492;0.5162316;;;;;;;;;;;;;;;
1650.0;1592.0;;;;-1.2990991;0.9394609;0.51870733;;;;;;;;;;;;;;;
1650.0;1592.0;;;;-1.2911569;0.94760907;0.5197602;;;;;;;;;;;;;;;
1650.0;1592.0;;;;-1.2826082;0.95468533;0.5207253;;;;;;;;;;;;;;;
1650.0;1592.0;;;;-1.2735215;0.9615747;0.5208207;;;;;;;;;;;;;;;
1651.0;1602.1;;;;-1.2639619;0.9678117;0.5211678;;;;;;;;;;;;;;;
1651.0;1602.1;;;;-1.2546731;0.97384274;0.5220147;;;;;;;;;;;;;;;
1651.0;1602.1;;;;-1.2455865;0.979107;0.5217934;;;;;;;;;;;;;;;
1651.0;1602.1;;;;-1.2367097;0.9838182;0.5203667;;;;;;;;;;;;;;;
1651.0;1602.1;;;;-1.2285653;0.98760235;0.5166436;;;;;;;;;;;;;;;
1651.0;1604.6;262143;262143;11005;;;;;;;;;;;;;;;;;;
1651.0;1610.7;;;;;;;;;;;;;-1147;;;;;;;;
1651.0;1610.7;;;;;;;;;;;;;-884;;;;;;;;
1651.0;1610.7;;;;;;;;;;;;;-253;;;;;;;;
1651.0;1610.7;;;;;;;;;;;;;186;;;;;;;;
1651.0;1610.7;;;;;;;;;;;;;158;;;;;;;;
1651.0;1612.2;;;;-1.2208711;0.9909631;0.5126496;;;;;;;;;;;;;;;
1651.0;1612.2;;;;-1.2127572;0.9936067;0.5074311;;;;;;;;;;;;;;;
1651.0;1612.2;;;;-1.2042161;0.99494565;0.50155264;;;;;;;;;;;;;;;
1651.0;1612.2;;;;-1.1960527;0.995453;0.49503332;;;;;;;;;;;;;;;
1651.0;1612.2;;;;-1.1874543;0.99551785;0.48956686;;;;;;;;;;;;;;;
1653.0;1616.8;;;;;;;;;;;;;;;;;-31.136509;84.57823;-72.79809;;1503.6
1653.0;1616.8;;;;;;;;;;;;;;-1.451094;0.692404;-0.1610767;;;;;1503.6
1653.0;1616.8;;;;;;;;;;;;;;;;;-56.978058;63.226723;39.082764;;1503.6
1653.0;1616.8;;;;;;;;;;;;;;-1.0129093;0.626484;0.08819849;;;;;1503.6
1653.0;1616.8;;;;;;;;;;;;;;;;;-53.708763;20.126957;104.82726;;1513.2
1653.0;1616.8;;;;;;;;;;;;;;-0.8214362;0.7068697;0.34455398;;;;;1513.2
1653.0;1616.8;;;;;;;;;;;;;;;;;-49.29121;-22.144993;113.63948;;1513.2
1653.0;1616.8;;;;;;;;;;;;;;-0.66890466;0.8537858;0.20728172;;;;;1513.2
1653.0;1616.8;;;;;;;;;;;;;;;;;-29.21003;-31.720177;112.048706;;1522.8
1653.0;1616.8;;;;;;;;;;;;;;-0.5863216;0.9764092;0.03601184;;;;;1522.8
1653.0;1616.8;;;;;;;;;;;;;;;;;-2.1820734;-30.28199;113.67382;;1522.8
1653.0;1616.8;;;;;;;;;;;;;;-0.48481703;1.0442823;-0.14447463;;;;;1522.8
1653.0;1617.9;;;;;;;;;;;;;;;;;11.738182;-23.304697;116.17634;;1532.4
1653.0;1617.9;;;;;;;;;;;;;;-0.3630482;1.0245674;-0.39130834;;;;;1532.4
1653.0;1617.9;;;;;;;;;;;;;;;;;16.575367;1.2512589;117.01941;;1532.4
1653.0;1617.9;;;;;;;;;;;;;;-0.2793054;1.0000916;-0.5570238;;;;;1532.4
1653.0;1617.9;;;;;;;;;;;;;;;;;27.15003;30.663471;121.72689;;1542.1
1653.0;1617.9;;;;;;;;;;;;;;-0.2021546;0.9931333;-0.62105167;;;;;1542.1
1653.0;1617.9;;;;;;;;;;;;;;;;;36.96936;51.580097;124.897;;1542.1
1653.0;1617.9;;;;;;;;;;;;;;-0.13751641;0.9951476;-0.6037782;;;;;1542.1
1653.0;1617.9;;;;;;;;;;;;;;;;;36.904507;54.990536;124.988556;;1551.7
1653.0;1617.9;;;;;;;;;;;;;;-0.11053804;1.0032655;-0.60188603;;;;;1551.7
1653.0;1617.9;;;;;;;;;;;;;;;;;26.802881;50.057983;124.988556;;1551.7
1653.0;1617.9;;;;;;;;;;;;;;-0.08404797;0.99417096;-0.59810174;;;;;1551.7
1707.0;1621.9;;;;-1.1786844;0.9949151;0.48330313;;;;;;;;;;;;;;;
1707.0;1621.9;;;;-1.1711046;0.99483883;0.47686392;;;;;;;;;;;;;;;
1707.0;1621.9;;;;-1.1646692;0.99359906;0.4697953;;;;;;;;;;;;;;;
1707.0;1621.9;;;;-1.1583711;0.99218;0.4622994;;;;;;;;;;;;;;;
1707.0;1621.9;;;;-1.1523477;0.99035275;0.45426565;;;;;;;;;;;;;;;
1707.0;1624.5;262143;262143;11014;;;;;;;;;;;;;;;;;;
1707.0;1631.8;;;;-1.1450158;0.9883996;0.44585425;;;;;;;;;;;;;;;
1707.0;1631.8;;;;-1.1372949;0.9865228;0.43802267;;;;;;;;;;;;;;;
1707.0;1631.8;;;;-1.1287996;0.9838716;0.43170553;;;;;;;;;;;;;;;
1707.0;1631.8;;;;-1.1206285;0.98134243;0.4262429;;;;;;;;;;;;;;;
1707.0;1631.8;;;;-1.1114236;0.97934735;0.42159277;;;;;;;;;;;;;;;
1707.0;1641.8;;;;-1.101307;0.9775163;0.41781622;;;;;;;;;;;;;;;
1707.0;1641.8;;;;-1.0912439;0.975628;0.4142037;;;;;;;;;;;;;;;
1707.0;1641.8;;;;-1.0823098;0.97392285;0.41065603;;;;;;;;;;;;;;;
1707.0;1641.8;;;;-1.0739633;0.97230923;0.40769964;;;;;;;;;;;;;;;
1707.0;1641.8;;;;-1.0656778;0.9705583;0.4044991;;;;;;;;;;;;;;;
1707.0;1644.4;262143;262143;11007;;;;;;;;;;;;;;;;;;
1707.0;1650.5;;;;;;;;;;;;;-110;;;;;;;;
1707.0;1650.5;;;;;;;;;;;;;-184;;;;;;;;
1707.0;1650.5;;;;;;;;;;;;;-202;;;;;;;;
1707.0;1650.5;;;;;;;;;;;;;-712;;;;;;;;
1707.0;1650.5;;;;;;;;;;;;;-1518;;;;;;;;
1709.0;1651.9;;;;-1.0576593;0.96873105;0.40150458;;;;;;;;;;;;;;;
1709.0;1651.9;;;;-1.0489274;0.96704876;0.39869314;;;;;;;;;;;;;;;
1709.0;1651.9;;;;-1.0406648;0.9654809;0.3960877;;;;;;;;;;;;;;;
1709.0;1651.9;;;;-1.0329477;0.9632684;0.3932839;;;;;;;;;;;;;;;
1709.0;1651.9;;;;-1.0242006;0.96055615;0.39077765;;;;;;;;;;;;;;;
1709.0;1661.6;;;;;;;;;;;;;;;;;6.8857384;44.839317;124.988556;;1561.3
1709.0;1661.6;;;;;;;;;;;;;;-0.052491836;0.9079867;-0.5706351;;;;;1561.3
1709.0;1661.6;;;;;;;;;;;;;;;;;-7.530442;35.863064;124.988556;;1561.3
1709.0;1661.6;;;;;;;;;;;;;;-0.06457717;0.8618427;-0.5450606;;;;;1561.3
1709.0;1661.6;;;;;;;;;;;;;;;;;-8.69396;26.81814;124.73296;;1571.0
1709.0;1661.6;;;;;;;;;;;;;;-0.1345256;0.8413953;-0.5545213;;;;;1571.0
1709.0;1661.6;;;;;;;;;;;;;;;;;-9.426405;28.984955;112.37296;;1571.0
1709.0;1661.6;;;;;;;;;;;;;;-0.26142156;0.94802696;-0.5404218;;;;;1571.0
1709.0;1661.6;;;;;;;;;;;;;;;;;-9.380627;27.40562;94.84771;;1580.5
1709.0;1661.6;;;;;;;;;;;;;;-0.38953826;1.0022889;-0.5567797;;;;;1580.5
1709.0;1661.6;;;;;;;;;;;;;;;;;-7.6448865;27.233955;87.504196;;1580.5
1709.0;1661.6;;;;;;;;;;;;;;-0.46772668;0.98983735;-0.58656573;;;;;1580.5
1709.0;1661.9;;;;-1.01466;0.95694745;0.38862234;;;;;;;;;;;;;;;
1709.0;1661.9;;;;-1.0047685;0.95362484;0.3865357;;;;;;;;;;;;;;;
1709.0;1661.9;;;;-0.99398434;0.9497949;0.38486105;;;;;;;;;;;;;;;
1709.0;1661.9;;;;-0.98289883;0.94584286;0.38340384;;;;;;;;;;;;;;;
1709.0;1661.9;;;;-0.9716073;0.9415742;0.38234717;;;;;;;;;;;;;;;
1709.0;1664.6;262143;262143;11017;;;;;;;;;;;;;;;;;;
1766.0;1669.1;;;;;;;;;;;;;;;;;-6.614887;36.271248;81.118195;;1590.1
1766.0;1669.1;;;;;;;;;;;;;;-0.5205237;0.9663381;-0.5647145;;;;;1590.1
1766.0;1669.1;;;;;;;;;;;;;;;;;-4.6044803;42.36732;76.780754;;1590.1
1766.0;1669.1;;;;;;;;;;;;;;-0.54072696;0.93508714;-0.53798026;;;;;1590.1
1766.0;1669.1;;;;;;;;;;;;;;;;;-2.9602954;42.44362;74.507126;;1599.7
1766.0;1669.1;;;;;;;;;;;;;;-0.5426191;0.91293067;-0.5262001;;;;;1599.7
1766.0;1669.1;;;;;;;;;;;;;;;;;-3.6164434;39.891506;72.95831;;1599.7
1766.0;1669.1;;;;;;;;;;;;;;-0.5338908;0.903531;-0.50862145;;;;;1599.7
1766.0;1669.1;;;;;;;;;;;;;;;;;-7.309183;38.659325;71.527756;;1609.4
1766.0;1669.1;;;;;;;;;;;;;;-0.52320933;0.89168984;-0.46845913;;;;;1609.4
1766.0;1669.1;;;;;;;;;;;;;;;;;-10.525071;38.014618;70.93646;;1609.4
1766.0;1669.1;;;;;;;;;;;;;;-0.517716;0.8818629;-0.43769646;;;;;1609.4
1766.0;1671.9;;;;-0.9603578;0.9375955;0.38122565;;;;;;;;;;;;;;;
1766.0;1671.9;;;;-0.94890606;0.9336015;0.38008887;;;;;;;;;;;;;;;
1766.0;1671.9;;;;-0.93763363;0.92967236;0.3796273;;;;;;;;;;;;;;;
1766.0;1671.9;;;;-0.9267427;0.92626584;0.37910086;;;;;;;;;;;;;;;
1766.0;1671.9;;;;-0.91523373;0.9233438;0.37881476;;;;;;;;;;;;;;;
1766.0;1682.0;;;;-0.903515;0.9204141;0.37821203;;;;;;;;;;;;;;;
1766.0;1682.0;;;;-0.89161694;0.91744244;0.3775025;;;;;;;;;;;;;;;
1766.0;1682.0;;;;-0.8789941;0.9135629;0.37631994;;;;;;;;;;;;;;;
1766.0;1682.0;;;;-0.86623776;0.90931714;0.3750077;;;;;;;;;;;;;;;
1766.0;1682.0;;;;-0.8525506;0.9040452;0.37370685;;;;;;;;;;;;;;;
1766.0;1684.7;262143;262143;11014;;;;;;;;;;;;;;;;;;
1768.0;1690.5;;;;;;;;;;;;;-1110;;;;;;;;
1768.0;1690.5;;;;;;;;;;;;;-120;;;;;;;;
1768.0;1690.5;;;;;;;;;;;;;-3763;;;;;;;;
1768.0;1690.5;;;;;;;;;;;;;-14107;;;;;;;;
1768.0;1690.5;;;;;;;;;;;;;-23908;;;;;;;;
1768.0;1691.8;;;;-0.8378221;0.8981782;0.37316135;;;;;;;;;;;;;;;
1768.0;1691.8;;;;-0.8214723;0.89141476;0.37263492;;;;;;;;;;;;;;;
1768.0;1691.8;;;;-0.8051721;0.8840753;0.37191013;;;;;;;;;;;;;;;
1768.0;1691.8;;;;-0.78854;0.8762857;0.37068942;;;;;;;;;;;;;;;
1768.0;1691.8;;;;-0.77160656;0.86727154;0.36922076;;;;;;;;;;;;;;;
1768.0;1702.0;;;;-0.75424206;0.8576547;0.36647037;;;;;;;;;;;;;;;
1768.0;1702.0;;;;-0.737259;0.84757245;0.36296847;;;;;;;;;;;;;;;
1768.0;1702.0;;;;-0.71978;0.83745587;0.35885242;;;;;;;;;;;;;;;
1768.0;1702.0;;;;-0.70252997;0.8275987;0.3540497;;;;;;;;;;;;;;;
1768.0;1702.0;;;;-0.68492895;0.8179971;0.3482857;;;;;;;;;;;;;;;
1768.0;1704.7;262143;262143;11009;;;;;;;;;;;;;;;;;;
1768.0;1712.1;;;;-0.6682854;0.80776227;0.34197238;;;;;;;;;;;;;;;
1768.0;1712.1;;;;-0.64888006;0.7959062;0.3361626;;;;;;;;;;;;;;;
1768.0;1712.1;;;;-0.62922674;0.78325284;0.3290787;;;;;;;;;;;;;;;
1768.0;1712.1;;;;-0.6134797;0.7748414;0.32428744;;;;;;;;;;;;;;;
1768.0;1712.1;;;;-0.5997315;0.76685727;0.31758884;;;;;;;;;;;;;;;
1770.0;1722.3;;;;;;;;;;;;;;;;;-10.433516;36.667988;71.29124;;1619.0
1770.0;1722.3;;;;;;;;;;;;;;-0.5222327;0.8866848;-0.40717795;;;;;1619.0
1770.0;1722.3;;;;;;;;;;;;;;;;;-9.533219;34.649952;72.51961;;1619.0
1770.0;1722.3;;;;;;;;;;;;;;-0.53401285;0.8971831;-0.3778802;;;;;1619.0
1770.0;1722.3;;;;;;;;;;;;;;;;;-8.159886;31.895657;75.1175;;1628.5
1770.0;1722.3;;;;;;;;;;;;;;-0.5417035;0.9020661;-0.3469344;;;;;1628.5
1770.0;1722.3;;;;;;;;;;;;;;;;;-6.199072;29.51903;77.75353;;1628.5
1770.0;1722.3;;;;;;;;;;;;;;-0.54268014;0.91311383;-0.32306895;;;;;1628.5
1770.0;1722.3;;;;;;;;;;;;;;;;;-4.3641467;28.382214;80.22553;;1638.0
1770.0;1722.3;;;;;;;;;;;;;;-0.54219186;0.9206824;-0.29584643;;;;;1638.0
1770.0;1722.3;;;;;;;;;;;;;;;;;-2.9641104;26.715141;81.9155;;1638.0
1770.0;1722.3;;;;;;;;;;;;;;-0.5339518;0.9196448;-0.27759635;;;;;1638.0
1770.0;1722.1;;;;-0.58079535;0.7554933;0.30910495;;;;;;;;;;;;;;;
1770.0;1722.1;;;;-0.5677491;0.7485238;0.30474475;;;;;;;;;;;;;;;
1770.0;1722.1;;;;-0.5590783;0.74488074;0.30162814;;;;;;;;;;;;;;;
1770.0;1722.1;;;;-0.5457955;0.73865515;0.29477695;;;;;;;;;;;;;;;
1770.0;1722.1;;;;-0.53026205;0.7301789;0.28980258;;;;;;;;;;;;;;;
1789.0;1723.4;;;;;;;;;;;;;;;;;-3.0404067;24.655142;82.62886;;1647.6
1789.0;1723.4;;;;;;;;;;;;;;-0.52192754;0.9168981;-0.26355785;;;;;1647.6
1789.0;1723.4;;;;;;;;;;;;;;;;;-5.4628134;23.13303;82.47246;;1647.6
1789.0;1723.4;;;;;;;;;;;;;;-0.5180822;0.910184;-0.2496414;;;;;1647.6
1789.0;1723.4;;;;;;;;;;;;;;;;;-9.063997;20.9624;81.69805;;1657.2
1789.0;1723.4;;;;;;;;;;;;;;-0.50166327;0.89724416;-0.22779016;;;;;1657.2
1789.0;1723.4;;;;;;;;;;;;;;;;;-12.0548115;17.998291;80.60701;;1657.2
1789.0;1723.4;;;;;;;;;;;;;;-0.48701438;0.8847926;-0.20172735;;;;;1657.2
1789.0;1723.4;;;;;;;;;;;;;;;;;-15.308847;14.633626;79.86312;;1666.9
1789.0;1723.4;;;;;;;;;;;;;;-0.46308786;0.8758812;-0.1866512;;;;;1666.9
1789.0;1723.4;;;;;;;;;;;;;;;;;-17.994476;12.29896;79.25657;;1666.9
1789.0;1723.4;;;;;;;;;;;;;;-0.43586534;0.86519974;-0.17639698;;;;;1666.9
1789.0;1724.8;262143;262143;11008;;;;;;;;;;;;;;;;;;
1789.0;1730.8;;;;;;;;;;;;;-23818;;;;;;;;
1789.0;1730.8;;;;;;;;;;;;;-13693;;;;;;;;
1789.0;1730.8;;;;;;;;;;;;;-3052;;;;;;;;
1789.0;1730.8;;;;;;;;;;;;;611;;;;;;;;
1789.0;1730.8;;;;;;;;;;;;;-526;;;;;;;;
1789.0;1732.0;;;;-0.51530844;0.72009665;0.28310016;;;;;;;;;;;;;;;
1789.0;1732.0;;;;-0.5026131;0.7071801;0.27336887;;;;;;;;;;;;;;;
1789.0;1732.0;;;;-0.4881478;0.69694525;0.27666858;;;;;;;;;;;;;;;
1789.0;1732.0;;;;-0.4787255;0.690445;0.27440265;;;;;;;;;;;;;;;
1789.0;1732.0;;;;-0.46952063;0.683117;0.268837;;;;;;;;;;;;;;;
1824.0;1741.8;;;;;;;;;;-1.22837;18.803217;-2.25074;;;;;;;;;
1824.0;1741.8;;;;;;;0.624897;-0.6280099;0.2296823;;;;;;;;;;;;
1824.0;1741.8;;;;;;;;;;4.9401836;30.331583;6.3402205;;;;;;;;;
1824.0;1741.8;;;;;;;0.72347176;-0.70198673;0.26386303;;;;;;;;;;;;
1824.0;1742.0;;;;-0.45834738;0.6729203;0.26182178;;;;;;;;;;;;;;;
1824.0;1742.0;;;;-0.44778067;0.6636887;0.26044086;;;;;;;;;;;;;;;
1824.0;1742.0;;;;-0.43886572;0.65570456;0.2566643;;;;;;;;;;;;;;;
1824.0;1742.0;;;;-0.42994696;0.64819723;0.2530518;;;;;;;;;;;;;;;
1824.0;1742.0;;;;-0.4204331;0.64163977;0.25083163;;;;;;;;;;;;;;;
1824.0;1744.9;262143;262143;10995;;;;;;;;;;;;;;;;;;
1824.0;1751.2;;;;;;;;;;-1.6212958;7.675405;13.8859215;;;;;;;;;
1824.0;1751.2;;;;;;;0.7457503;-0.69521165;0.27118748;;;;;;;;;;;;
1824.0;1751.2;;;;;;;;;;7.0574055;29.766993;35.85162;;;;;;;;;
1824.0;1751.2;;;;;;;0.7635731;-0.6890469;0.2791223;;;;;;;;;;;;
1824.0;1752.0;;;;-0.4126969;0.63566214;0.24546435;;;;;;;;;;;;;;;
1824.0;1752.0;;;;-0.40399176;0.628727;0.24136737;;;;;;;;;;;;;;;
1824.0;1752.0;;;;-0.39644247;0.6218491;0.23552707;;;;;;;;;;;;;;;
1824.0;1752.0;;;;-0.38846594;0.6143952;0.23274615;;;;;;;;;;;;;;;
1824.0;1752.0;;;;-0.38062292;0.60934836;0.23248294;;;;;;;;;;;;;;;
1824.0;1760.7;;;;;;;;;;9.3081455;41.508987;59.50728;;;;;;;;;
1824.0;1760.7;;;;;;;0.78377634;-0.68434703;0.286874;;;;;;;;;;;;
1824.0;1760.7;;;;;;;;;;6.1609244;17.071291;62.04413;;;;;;;;;
1824.0;1760.7;;;;;;;0.80898464;-0.6747642;0.29450363;;;;;;;;;;;;
1826.0;1761.9;;;;-0.37347034;0.6049996;0.23107913;;;;;;;;;;;;;;;
1826.0;1761.9;;;;-0.36607745;0.5995522;0.22758105;;;;;;;;;;;;;;;
1826.0;1761.9;;;;-0.3600655;0.5954934;0.22650531;;;;;;;;;;;;;;;
1826.0;1761.9;;;;-0.35421374;0.5901299;0.22339252;;;;;;;;;;;;;;;
1826.0;1761.9;;;;-0.34870532;0.5857964;0.22301105;;;;;;;;;;;;;;;
1826.0;1764.9;262143;262143;11003;;;;;;;;;;;;;;;;;;
1826.0;1770.4;;;;;;;;;;7.930998;28.267769;84.29594;;;;;;;;;
1826.0;1770.4;;;;;;;0.83437604;-0.6675619;0.29456466;;;;;;;;;;;;
1826.0;1770.4;;;;;;;;;;9.483627;40.540024;106.15482;;;;;;;;;
1826.0;1770.4;;;;;;;0.85207677;-0.65773493;0.2948088;;;;;;;;;;;;
1826.0;1770.9;;;;;;;;;;;;;-830;;;;;;;;
1826.0;1770.9;;;;;;;;;;;;;190;;;;;;;;
1826.0;1770.9;;;;;;;;;;;;;256;;;;;;;;
1826.0;1770.9;;;;;;;;;;;;;-366;;;;;;;;
1826.0;1770.9;;;;;;;;;;;;;-773;;;;;;;;
1826.0;1772.1;;;;-0.34438327;0.58089453;0.21693805;;;;;;;;;;;;;;;
1826.0;1772.1;;;;-0.33849338;0.57529074;0.21338275;;;;;;;;;;;;;;;
1826.0;1772.1;;;;-0.33471683;0.5701714;0.21120837;;;;;;;;;;;;;;;
1826.0;1772.1;;;;-0.32975772;0.5652581;0.20802692;;;;;;;;;;;;;;;
1826.0;1772.1;;;;-0.3251572;0.56180197;0.20718005;;;;;;;;;;;;;;;
1826.0;1780.0;;;;;;;;;;10.544146;59.49965;121.48274;;;;;;;;;
1826.0;1780.0;;;;;;;0.86471146;-0.6468703;0.2974334;;;;;;;;;;;;
1826.0;1780.0;;;;;;;;;;10.6814785;74.2172;124.81689;;;;;;;;;
1826.0;1780.0;;;;;;;0.87673575;-0.6396069;0.3005463;;;;;;;;;;;;
1829.0;1782.1;;;;;;;;;;;;;;;;;-21.336254;11.421552;77.97098;;1676.5
1829.0;1782.1;;;;;;;;;;;;;;-0.40595722;0.8566546;-0.16980499;;;;;1676.5
1829.0;1782.1;;;;;;;;;;;;;;;;;-24.132511;10.75396;77.04017;;1676.5
1829.0;1782.1;;;;;;;;;;;;;;-0.3761101;0.8430433;-0.17365032;;;;;1676.5
1829.0;1782.1;;;;;;;;;;;;;;;;;-26.356548;11.57033;76.01016;;1686.0
1829.0;1782.1;;;;;;;;;;;;;;-0.3426008;0.8238777;-0.17719047;;;;;1686.0
1829.0;1782.1;;;;;;;;;;;;;;;;;-28.298288;12.4134035;74.86191;;1686.0
1829.0;1782.1;;;;;;;;;;;;;;-0.3157445;0.80629903;-0.17371136;;;;;1686.0
1829.0;1782.1;;;;;;;;;;;;;;;;;-30.716879;12.462996;73.114716;;1695.7
1829.0;1782.1;;;;;;;;;;;;;;-0.28504288;0.80599385;-0.17114781;;;;;1695.7
1829.0;1782.1;;;;;;;;;;;;;;;;;-33.589436;11.349071;71.321754;;1695.7
1829.0;1782.1;;;;;;;;;;;;;;-0.26325268;0.8031251;-0.16138189;;;;;1695.7
1829.0;1782.1;;;;-0.3206673;0.55769736;0.20382312;;;;;;;;;;;;;;;
1829.0;1782.1;;;;-0.31628802;0.55229956;0.19921497;;;;;;;;;;;;;;;
1829.0;1782.1;;;;-0.3123131;0.5466538;0.19581226;;;;;;;;;;;;;;;
1829.0;1782.1;;;;-0.30887225;0.5426598;0.19543079;;;;;;;;;;;;;;;
1829.0;1782.1;;;;-0.3061295;0.53926474;0.19381717;;;;;;;;;;;;;;;
1829.0;1782.9;;;;;;;;;;;;;;;;;-35.000916;10.601367;69.59364;;1705.3
1829.0;1782.9;;;;;;;;;;;;;;-0.23822749;0.74434644;-0.14630574;;;;;1705.3
1829.0;1782.9;;;;;;;;;;;;;;;;;-30.529953;11.8564415;67.94564;;1705.3
1829.0;1782.9;;;;;;;;;;;;;;-0.21393475;0.69954526;-0.13135166;;;;;1705.3
1829.0;1782.9;;;;;;;;;;;;;;;;;-24.018068;13.298441;65.02731;;1714.9
1829.0;1782.9;;;;;;;;;;;;;;-0.20563371;0.68819237;-0.12573627;;;;;1714.9
1829.0;1782.9;;;;;;;;;;;;;;;;;-20.718252;13.10007;61.643574;;1714.9
1829.0;1782.9;;;;;;;;;;;;;;-0.21234779;0.70564896;-0.13544114;;;;;1714.9
1829.0;1782.9;;;;;;;;;;;;;;;;;-21.359142;11.970885;59.24787;;1724.5
1829.0;1782.9;;;;;;;;;;;;;;-0.21692556;0.71266824;-0.14911343;;;;;1724.5
1829.0;1782.9;;;;;;;;;;;;;;;;;-22.103031;11.524552;57.348095;;1724.5
1829.0;1782.9;;;;;;;;;;;;;;-0.21588793;0.70674765;-0.15765862;;;;;1724.5
1829.0;1785.0;262143;262143;10999;;;;;;;;;;;;;;;;;;
1829.0;1789.5;;;;;;;;;;10.6814785;80.13397;124.881744;;;;;;;;;
1829.0;1789.5;;;;;;;0.8881497;-0.62337106;0.31373027;;;;;;;;;;;;
1829.0;1789.5;;;;;;;;;;10.66622;86.3712;124.881744;;;;;;;;;
1829.0;1789.5;;;;;;;0.896939;-0.6140934;0.3263039;;;;;;;;;;;;
1829.0;1792.1;;;;-0.30419162;0.5363923;0.19120792;;;;;;;;;;;;;;;
1829.0;1792.1;;;;-0.3028145;0.5346413;0.19140628;;;;;;;;;;;;;;;
1829.0;1792.1;;;;-0.30354312;0.5340844;0.1887131;;;;;;;;;;;;;;;
1829.0;1792.1;;;;-0.3042679;0.53273016;0.18565752;;;;;;;;;;;;;;;
1829.0;1792.1;;;;-0.3056908;0.5325814;0.18243791;;;;;;;;;;;;;;;
1885.0;1799.0;;;;;;;;;;10.971405;92.51686;124.881744;;;;;;;;;
1885.0;1799.0;;;;;;;0.91488385;-0.6081118;0.34107485;;;;;;;;;;;;
1885.0;1799.0;;;;;;;;;;10.696738;99.467445;124.881744;;;;;;;;;
1885.0;1799.0;;;;;;;0.92916656;-0.60444957;0.35608998;;;;;;;;;;;;
1885.0;1802.1;;;;-0.3068314;0.53366095;0.18069078;;;;;;;;;;;;;;;
1885.0;1802.1;;;;-0.30775455;0.5359612;0.17852785;;;;;;;;;;;;;;;
1885.0;1802.1;;;;-0.30835727;0.53841025;0.17806627;;;;;;;;;;;;;;;
1885.0;1802.1;;;;-0.31026843;0.5414925;0.17336656;;;;;;;;;;;;;;;
1885.0;1802.1;;;;-0.31177905;0.54233176;0.167614;;;;;;;;;;;;;;;
1885.0;1805.2;262143;262143;10989;;;;;;;;;;;;;;;;;;
1885.0;1808.6;;;;;;;;;;10.414441;105.590225;124.881744;;;;;;;;;
1885.0;1808.6;;;;;;;0.9423505;-0.5973083;0.36841944;;;;;;;;;;;;
1885.0;1808.6;;;;;;;;;;10.235145;111.87704;124.881744;;;;;;;;;
1885.0;1808.6;;;;;;;0.9635914;-0.5974914;0.3822138;;;;;;;;;;;;
1885.0;1811.2;;;;;;;;;;;;;-874;;;;;;;;
1885.0;1811.2;;;;;;;;;;;;;-845;;;;;;;;
1885.0;1811.2;;;;;;;;;;;;;-1321;;;;;;;;
1885.0;1811.2;;;;;;;;;;;;;-2108;;;;;;;;
1885.0;1811.2;;;;;;;;;;;;;-2665;;;;;;;;
1885.0;1812.2;;;;-0.31201175;0.5443459;0.16734697;;;;;;;;;;;;;;;
1885.0;1812.2;;;;-0.31327823;0.54897696;0.16843797;;;;;;;;;;;;;;;
1885.0;1812.2;;;;-0.3132439;0.5525742;0.16685106;;;;;;;;;;;;;;;
1885.0;1812.2;;;;-0.31351474;0.5561715;0.1659012;;;;;;;;;;;;;;;
1885.0;1812.2;;;;-0.31346515;0.55932623;0.16313936;;;;;;;;;;;;;;;
1887.0;1818.1;;;;;;;;;;9.9147005;118.964966;124.881744;;;;;;;;;
1887.0;1818.1;;;;;;;0.995819;-0.59663683;0.40382093;;;;;;;;;;;;
1887.0;1818.1;;;;;;;;;;10.093997;124.09589;124.881744;;;;;;;;;
1887.0;1818.1;;;;;;;1.0326242;-0.5988342;0.43403423;;;;;;;;;;;;
1887.0;1822.3;;;;-0.31348804;0.56457525;0.16426851;;;;;;;;;;;;;;;
1887.0;1822.3;;;;-0.31576923;0.57116705;0.16463472;;;;;;;;;;;;;;;
1887.0;1822.3;;;;-0.31756976;0.57728964;0.16493608;;;;;;;;;;;;;;;
1887.0;1822.3;;;;-0.32028583;0.5846177;0.16337587;;;;;;;;;;;;;;;
1887.0;1822.3;;;;-0.32254413;0.5924149;0.16411592;;;;;;;;;;;;;;;
1887.0;1825.4;262143;262143;10988;;;;;;;;;;;;;;;;;;
1887.0;1827.8;;;;;;;;;;10.208442;124.88556;124.881744;;;;;;;;;
1887.0;1827.8;;;;;;;1.0587481;-0.6040223;0.46772668;;;;;;;;;;;;
1887.0;1827.8;;;;;;;;;;10.505997;124.881744;124.881744;;;;;;;;;
1887.0;1827.8;;;;;;;1.0708334;-0.6042054;0.50489825;;;;;;;;;;;;
1887.0;1832.4;;;;-0.32577518;0.6006165;0.16323473;;;;;;;;;;;;;;;
1887.0;1832.4;;;;-0.32982638;0.6092835;0.16267015;;;;;;;;;;;;;;;
1887.0;1832.4;;;;-0.334919;0.61796576;0.16167451;;;;;;;;;;;;;;;
1887.0;1832.4;;;;-0.33946612;0.6264687;0.16158678;;;;;;;;;;;;;;;
1887.0;1832.4;;;;-0.34421542;0.63540655;0.16193391;;;;;;;;;;;;;;;
1887.0;1837.4;;;;;;;;;;10.872219;124.881744;124.881744;;;;;;;;;
1887.0;1837.4;;;;;;;1.0676595;-0.5980407;0.53852963;;;;;;;;;;;;
1887.0;1837.4;;;;;;;;;;11.265144;124.881744;124.881744;;;;;;;;;
1887.0;1837.4;;;;;;;1.056856;-0.5799127;0.5722831;;;;;;;;;;;;
1889.0;1842.5;;;;-0.34925464;0.6450768;0.16310884;;;;;;;;;;;;;;;
1889.0;1842.5;;;;-0.35250857;0.6536599;0.1629677;;;;;;;;;;;;;;;
1889.0;1842.5;;;;-0.35515216;0.66519934;0.16650774;;;;;;;;;;;;;;;
1889.0;1842.5;;;;-0.35779193;0.67610556;0.16694261;;;;;;;;;;;;;;;
1889.0;1842.5;;;;-0.35868075;0.6879998;0.16997911;;;;;;;;;;;;;;;
1889.0;1845.6;262143;262143;10990;;;;;;;;;;;;;;;;;;
1889.0;1847.0;;;;;;;;;;11.684774;124.881744;124.87792;;;;;;;;;
1889.0;1847.0;;;;;;;1.0306711;-0.55995363;0.60066533;;;;;;;;;;;;
1889.0;1847.0;;;;;;;;;;12.562181;124.881744;124.81307;;;;;;;;;
1889.0;1847.0;;;;;;;0.9973449;-0.5379192;0.63490707;;;;;;;;;;;;
1889.0;1851.6;;;;;;;;;;;;;-3138;;;;;;;;
1889.0;1851.6;;;;;;;;;;;;;-3429;;;;;;;;
1889.0;1851.6;;;;;;;;;;;;;-3475;;;;;;;;
1889.0;1851.6;;;;;;;;;;;;;-3754;;;;;;;;
1889.0;1851.6;;;;;;;;;;;;;-4207;;;;;;;;
1889.0;1852.6;;;;-0.3603249;0.6995507;0.16872026;;;;;;;;;;;;;;;
1889.0;1852.6;;;;-0.36060718;0.71205145;0.1712494;;;;;;;;;;;;;;;
1889.0;1852.6;;;;-0.3623543;0.72513586;0.17079164;;;;;;;;;;;;;;;
1889.0;1852.6;;;;-0.36192706;0.73948675;0.17231752;;;;;;;;;;;;;;;
1889.0;1852.6;;;;-0.36173633;0.7544824;0.17255785;;;;;;;;;;;;;;;
1889.0;1856.6;;;;;;;;;;14.378033;124.85122;124.340034;;;;;;;;;
1889.0;1856.6;;;;;;;0.9655446;-0.5251625;0.66493726;;;;;;;;;;;;
1889.0;1856.6;;;;;;;;;;15.850552;122.45552;122.95526;;;;;;;;;
1889.0;1856.6;;;;;;;0.92916656;-0.51167333;0.68941313;;;;;;;;;;;;
1890.0;1858.4;;;;;;;;;;;;;;;;;-20.893734;11.234626;55.478832;;1734.2
1890.0;1858.4;;;;;;;;;;;;;;-0.21716972;0.70101017;-0.16547136;;;;;1734.2
1890.0;1858.4;;;;;;;;;;;;;;;;;-19.268625;11.230811;53.624836;;1734.2
1890.0;1858.4;;;;;;;;;;;;;;-0.21875668;0.69161046;-0.17682424;;;;;1734.2
1890.0;1858.4;;;;;;;;;;;;;;;;;-18.498032;11.024812;51.610615;;1743.7
1890.0;1858.4;;;;;;;;;;;;;;-0.22119816;0.67415386;-0.17352824;;;;;1743.7
1890.0;1858.4;;;;;;;;;;;;;;;;;-19.24192;10.124516;49.783318;;1743.7
1890.0;1858.4;;;;;;;;;;;;;;-0.22070986;0.65382856;-0.1693167;;;;;1743.7
1890.0;1858.4;;;;;;;;;;;;;;;;;-19.539474;9.769737;48.802914;;1753.3
1890.0;1858.4;;;;;;;;;;;;;;-0.21704765;0.6377148;-0.16345714;;;;;1753.3
1890.0;1858.4;;;;;;;;;;;;;;;;;-18.379772;9.510331;47.704247;;1753.3
1890.0;1858.4;;;;;;;;;;;;;;-0.21338542;0.6295358;-0.15594958;;;;;1753.3
1890.0;1859.2;;;;;;;;;;;;;;;;;-17.765587;9.056368;46.30802;;1762.9
1890.0;1859.2;;;;;;;;;;;;;;-0.21271402;0.62697226;-0.15778069;;;;;1762.9
1890.0;1859.2;;;;;;;;;;;;;;;;;-18.379772;9.037293;44.217506;;1762.9
1890.0;1859.2;;;;;;;;;;;;;;-0.20874661;0.6223945;-0.16602069;;;;;1762.9
1890.0;1859.2;;;;;;;;;;;;;;;;;-19.226662;9.475998;43.408768;;1772.6
1890.0;1859.2;;;;;;;;;;;;;;-0.22022156;0.62746054;-0.19257179;;;;;1772.6
1890.0;1859.2;;;;;;;;;;;;;;;;;-19.28007;11.379589;43.527027;;1772.6
1890.0;1859.2;;;;;;;;;;;;;;-0.22217475;0.62355417;-0.2047792;;;;;1772.6
1890.0;1859.2;;;;;;;;;;;;;;;;;-17.929625;12.974181;42.50847;;1782.3
1890.0;1859.2;;;;;;;;;;;;;;-0.23328349;0.6290475;-0.22888882;;;;;1782.3
1890.0;1859.2;;;;;;;;;;;;;;;;;-15.427107;15.484328;41.863766;;1782.3
1890.0;1859.2;;;;;;;;;;;;;;-0.26392406;0.65303504;-0.2616657;;;;;1782.3
1945.0;1862.3;;;;-0.36125568;0.76840603;0.17051317;;;;;;;;;;;;;;;
1945.0;1862.3;;;;-0.35972217;0.78247845;0.16963197;;;;;;;;;;;;;;;
1945.0;1862.3;;;;-0.35836795;0.7980844;0.17093278;;;;;;;;;;;;;;;
1945.0;1862.3;;;;-0.3612328;0.8125993;0.1706009;;;;;;;;;;;;;;;
1945.0;1862.3;;;;-0.36700442;0.8238641;0.1668091;;;;;;;;;;;;;;;
1945.0;1865.9;;;;;;;;;;17.803736;112.88796;120.845665;;;;;;;;;
1945.0;1865.9;;;;;;;0.8827174;-0.5013581;0.70638144;;;;;;;;;;;;
1945.0;1865.9;;;;;;;;;;20.187994;99.91378;118.858154;;;;;;;;;
1945.0;1865.9;;;;;;;0.8357799;-0.48731956;0.7130955;;;;;;;;;;;;
1945.0;1865.5;262143;262143;10978;;;;;;;;;;;;;;;;;;
1945.0;1872.4;;;;-0.36795047;0.83238995;0.16403963;;;;;;;;;;;;;;;
1945.0;1872.4;;;;-0.36595538;0.84115994;0.16168596;;;;;;;;;;;;;;;
1945.0;1872.4;;;;-0.36341098;0.84891903;0.1595421;;;;;;;;;;;;;;;
1945.0;1872.4;;;;-0.36106113;0.8568841;0.16014864;;;;;;;;;;;;;;;
1945.0;1872.4;;;;-0.36285785;0.8633729;0.15531923;;;;;;;;;;;;;;;
1945.0;1875.3;;;;;;;;;;22.91177;85.61205;116.68371;;;;;;;;;
1945.0;1875.3;;;;;;;0.7721183;-0.4842677;0.7282937;;;;;;;;;;;;
1945.0;1875.3;;;;;;;;;;26.890623;69.46776;115.11582;;;;;;;;;
1945.0;1875.3;;;;;;;0.7285989;-0.4898221;0.72707295;;;;;;;;;;;;
1947.0;1882.4;;;;-0.36077502;0.86822903;0.15456773;;;;;;;;;;;;;;;
1947.0;1882.4;;;;-0.36032107;0.87443554;0.15352632;;;;;;;;;;;;;;;
1947.0;1882.4;;;;-0.35932162;0.8794404;0.15249254;;;;;;;;;;;;;;;
1947.0;1882.4;;;;-0.35800937;0.8835031;0.15069963;;;;;;;;;;;;;;;
1947.0;1882.4;;;;-0.35886768;0.8857728;0.14699937;;;;;;;;;;;;;;;
1947.0;1885.0;;;;;;;;;;31.998657;52.4308;113.65856;;;;;;;;;
1947.0;1885.0;;;;;;;0.69032866;-0.49739066;0.7290872;;;;;;;;;;;;
1947.0;1885.0;;;;;;;;;;37.728508;34.115875;112.06778;;;;;;;;;
1947.0;1885.0;;;;;;;0.68568987;-0.47016814;0.7010712;;;;;;;;;;;;
1947.0;1885.6;262143;262143;10979;;;;;;;;;;;;;;;;;;
1947.0;1891.6;;;;;;;;;;;;;-4570;;;;;;;;
1947.0;1891.6;;;;;;;;;;;;;-5206;;;;;;;;
1947.0;1891.6;;;;;;;;;;;;;-6010;;;;;;;;
1947.0;1891.6;;;;;;;;;;;;;-6437;;;;;;;;
1947.0;1891.6;;;;;;;;;;;;;-6429;;;;;;;;
1947.0;1892.5;;;;-0.3593445;0.88603985;0.14426805;;;;;;;;;;;;;;;
1947.0;1892.5;;;;-0.3599091;0.8853227;0.14249803;;;;;;;;;;;;;;;
1947.0;1892.5;;;;-0.36012653;0.8848573;0.14294054;;;;;;;;;;;;;;;
1947.0;1892.5;;;;-0.35852054;0.8860055;0.14484026;;;;;;;;;;;;;;;
1947.0;1892.5;;;;-0.35914615;0.8855134;0.14114763;;;;;;;;;;;;;;;
1947.0;1894.6;;;;;;;;;;41.85232;19.070253;109.942924;;;;;;;;;
1947.0;1894.6;;;;;;;0.6906949;-0.43238625;0.6890469;;;;;;;;;;;;
1947.0;1894.6;;;;;;;;;;44.69054;5.6840725;107.50908;;;;;;;;;
1947.0;1894.6;;;;;;;0.68318737;-0.42469558;0.6830653;;;;;;;;;;;;
1952.0;1902.6;;;;-0.35925677;0.8830644;0.13964464;;;;;;;;;;;;;;;
1952.0;1902.6;;;;-0.35937884;0.88063824;0.14105608;;;;;;;;;;;;;;;
1952.0;1902.6;;;;-0.35958484;0.8797189;0.14496996;;;;;;;;;;;;;;;
1952.0;1902.6;;;;-0.35989383;0.8795625;0.14650346;;;;;;;;;;;;;;;
1952.0;1902.6;;;;-0.36165622;0.8791734;0.14624406;;;;;;;;;;;;;;;
1952.0;1903.0;;;;;;;;;;;;;;;;;-12.0052185;18.269142;41.56621;;1791.8
1952.0;1903.0;;;;;;;;;;;;;;-0.29999694;0.68910795;-0.29474777;;;;;1791.8
1952.0;1903.0;;;;;;;;;;;;;;;;;-9.830774;21.160772;41.356396;;1791.8
1952.0;1903.0;;;;;;;;;;;;;;-0.34846035;0.73860896;-0.30622274;;;;;1791.8
1952.0;1903.0;;;;;;;;;;;;;;;;;-10.509811;23.121586;41.25721;;1801.4
1952.0;1903.0;;;;;;;;;;;;;;-0.41273233;0.7907346;-0.2900479;;;;;1801.4
1952.0;1903.0;;;;;;;;;;;;;;;;;-11.257515;23.468735;41.165653;;1801.4
1952.0;1903.0;;;;;;;;;;;;;;-0.4761498;0.84231085;-0.27307963;;;;;1801.4
1952.0;1903.0;;;;;;;;;;;;;;;;;-11.291848;22.339548;40.627766;;1811.0
1952.0;1903.0;;;;;;;;;;;;;;-0.54091007;0.9065218;-0.26081118;;;;;1811.0
1952.0;1903.0;;;;;;;;;;;;;;;;;-12.344738;19.783623;40.017395;;1811.0
1952.0;1903.0;;;;;;;;;;;;;;-0.6217841;0.97976625;-0.2482986;;;;;1811.0
1955.0;1903.8;;;;;;;;;;;;;;;;;-15.24018;15.037995;38.8081;;1820.4
1955.0;1903.8;;;;;;;;;;;;;;-0.6883755;1.0418409;-0.24817652;;;;;1820.4
1955.0;1903.8;;;;;;;;;;;;;;;;;-20.16129;9.4073305;37.759026;;1820.4
1955.0;1903.8;;;;;;;;;;;;;;-0.75179297;1.0737633;-0.24835964;;;;;1820.4
1955.0;1903.8;;;;;;;;;;;;;;;;;-25.509659;3.2731102;36.69088;;1830.1
1955.0;1903.8;;;;;;;;;;;;;;-0.8009888;1.0652791;-0.26221505;;;;;1830.1
1955.0;1903.8;;;;;;;;;;;;;;;;;-28.462324;-0.92318493;35.817284;;1830.1
1955.0;1903.8;;;;;;;;;;;;;;-0.8308969;1.0409863;-0.27332377;;;;;1830.1
1955.0;1903.8;;;;;;;;;;;;;;;;;-29.67925;-3.78811;36.168247;;1839.8
1955.0;1903.8;;;;;;;;;;;;;;-0.85695976;0.9949644;-0.27484968;;;;;1839.8
1955.0;1903.8;;;;;;;;;;;;;;;;;-29.038363;-7.2023683;36.473434;;1839.8
1955.0;1903.8;;;;;;;;;;;;;;-0.87166965;0.9505295;-0.27613148;;;;;1839.8
1955.0;1904.0;;;;;;;;;;48.100986;-7.8394423;105.66653;;;;;;;;;
1955.0;1904.0;;;;;;;0.68495744;-0.42896816;0.6718955;;;;;;;;;;;;
1955.0;1904.0;;;;;;;;;;52.079838;-19.47844;104.167305;;;;;;;;;
1955.0;1904.0;;;;;;;0.70821255;-0.42451248;0.6531571;;;;;;;;;;;;
1955.0;1905.6;262143;262143;10974;;;;;;;;;;;;;;;;;;
1955.0;1912.3;;;;-0.36623004;0.87550366;0.14236833;;;;;;;;;;;;;;;
1955.0;1912.3;;;;-0.36757663;0.87321866;0.14889146;;;;;;;;;;;;;;;
1955.0;1912.3;;;;-0.37163547;0.8761941;0.15998842;;;;;;;;;;;;;;;
1955.0;1912.3;;;;-0.3765717;0.88102734;0.16587068;;;;;;;;;;;;;;;
1955.0;1912.3;;;;-0.38166052;0.88547146;0.16796876;;;;;;;;;;;;;;;
2005.0;1913.5;;;;;;;;;;55.6505;-28.527176;102.00049;;;;;;;;;
2005.0;1913.5;;;;;;;0.7426374;-0.41029084;0.63002414;;;;;;;;;;;;
2005.0;1913.5;;;;;;;;;;58.20643;-35.493027;99.36445;;;;;;;;;
2005.0;1913.5;;;;;;;0.77163;-0.39411604;0.6054262;;;;;;;;;;;;
2005.0;1922.3;;;;-0.3873368;0.88871396;0.16961671;;;;;;;;;;;;;;;
2005.0;1922.3;;;;-0.3929444;0.89078534;0.17499925;;;;;;;;;;;;;;;
2005.0;1922.3;;;;-0.39891058;0.89504254;0.18143083;;;;;;;;;;;;;;;
2005.0;1922.3;;;;-0.40478522;0.8995973;0.18662263;;;;;;;;;;;;;;;
2005.0;1922.3;;;;-0.40933615;0.9051515;0.19307712;;;;;;;;;;;;;;;
2005.0;1923.0;;;;;;;;;;59.926907;-40.604877;96.66738;;;;;;;;;
2005.0;1923.0;;;;;;;0.7961669;-0.37696463;0.5795465;;;;;;;;;;;;
2005.0;1923.0;;;;;;;;;;60.89587;-44.01151;94.100006;;;;;;;;;
2005.0;1923.0;;;;;;;0.81752986;-0.35969114;0.55867183;;;;;;;;;;;;
2005.0;1925.7;262143;262143;10969;;;;;;;;;;;;;;;;;;
2005.0;1931.4;;;;;;;;;;;;;-6323;;;;;;;;
2005.0;1931.4;;;;;;;;;;;;;-6601;;;;;;;;
2005.0;1931.4;;;;;;;;;;;;;-7053;;;;;;;;
2005.0;1931.4;;;;;;;;;;;;;-6880;;;;;;;;
2005.0;1931.4;;;;;;;;;;;;;-5966;;;;;;;;
2005.0;1932.2;;;;-0.4141274;0.91030514;0.19679263;;;;;;;;;;;;;;;
2005.0;1932.2;;;;-0.41904837;0.91318905;0.19645312;;;;;;;;;;;;;;;
2005.0;1932.2;;;;-0.42002112;0.9188272;0.20949939;;;;;;;;;;;;;;;
2005.0;1932.2;;;;-0.42389303;0.92788327;0.21802905;;;;;;;;;;;;;;;
2005.0;1932.2;;;;-0.42558295;0.93615735;0.22267535;;;;;;;;;;;;;;;
2008.0;1932.4;;;;;;;;;;61.46428;-46.47969;91.54408;;;;;;;;;
2008.0;1932.4;;;;;;;0.8354747;-0.34699544;0.5386517;;;;;;;;;;;;
2008.0;1932.4;;;;;;;;;;62.07083;-48.463394;88.892784;;;;;;;;;
2008.0;1932.4;;;;;;;0.8438978;-0.33417767;0.51405376;;;;;;;;;;;;
2008.0;1941.9;;;;;;;;;;62.280647;-50.416576;85.92105;;;;;;;;;
2008.0;1941.9;;;;;;;0.8522599;-0.31653798;0.48866236;;;;;;;;;;;;
2008.0;1941.9;;;;;;;;;;62.0632;-53.258614;82.93024;;;;;;;;;
2008.0;1941.9;;;;;;;0.8556169;-0.29700613;0.46967986;;;;;;;;;;;;
2008.0;1942.2;;;;-0.4264298;0.94233716;0.22504047;;;;;;;;;;;;;;;
2008.0;1942.2;;;;-0.42827994;0.9458238;0.22839358;;;;;;;;;;;;;;;
2008.0;1942.2;;;;-0.43043905;0.948784;0.23279193;;;;;;;;;;;;;;;
2008.0;1942.2;;;;-0.4333306;0.9531518;0.23960117;;;;;;;;;;;;;;;
2008.0;1942.2;;;;-0.43593222;0.958027;0.24556735;;;;;;;;;;;;;;;
2008.0;1945.6;262143;262143;10954;;;;;;;;;;;;;;;;;;
2008.0;1951.5;;;;;;;;;;61.78472;-56.90939;80.03479;;;;;;;;;
2008.0;1951.5;;;;;;;0.85799736;-0.27973264;0.4509415;;;;;;;;;;;;
2008.0;1951.5;;;;;;;;;;61.544388;-60.76998;77.143166;;;;;;;;;
2008.0;1951.5;;;;;;;0.86434525;-0.2626423;0.43647572;;;;;;;;;;;;
2008.0;1952.3;;;;-0.4389878;0.9641954;0.25057605;;;;;;;;;;;;;;;
2008.0;1952.3;;;;-0.44229513;0.9713899;0.25483325;;;;;;;;;;;;;;;
2008.0;1952.3;;;;-0.44664007;0.9782449;0.2586899;;;;;;;;;;;;;;;
2008.0;1952.3;;;;-0.45135123;0.9847604;0.26266482;;;;;;;;;;;;;;;
2008.0;1952.3;;;;-0.4563256;0.9910699;0.26669315;;;;;;;;;;;;;;;
2061.0;1961.1;;;;;;;;;;61.384167;-64.65728;73.957794;;;;;;;;;
2061.0;1961.1;;;;;;;0.8750267;-0.25116733;0.42005676;;;;;;;;;;;;
2061.0;1961.1;;;;;;;;;;60.956905;-68.41105;70.757164;;;;;;;;;
2061.0;1961.1;;;;;;;0.8898587;-0.23853268;0.40687278;;;;;;;;;;;;
2061.0;1962.4;;;;-0.4608422;0.9961206;0.26984027;;;;;;;;;;;;;;;
2061.0;1962.4;;;;-0.46426398;0.9997026;0.27232364;;;;;;;;;;;;;;;
2061.0;1962.4;;;;-0.46669394;1.0022088;0.27447894;;;;;;;;;;;;;;;
2061.0;1962.4;;;;-0.46758658;1.0027887;0.27575687;;;;;;;;;;;;;;;
2061.0;1962.4;;;;-0.46757132;1.0007402;0.27673343;;;;;;;;;;;;;;;
2061.0;1962.7;;;;;;;;;;;;;;;;;-26.573992;-10.235145;36.52684;;1849.5
2061.0;1962.7;;;;;;;;;;;;;;-0.8912015;0.9129917;-0.26899013;;;;;1849.5
2061.0;1962.7;;;;;;;;;;;;;;;;;-22.556993;-13.069551;36.18732;;1849.5
2061.0;1962.7;;;;;;;;;;;;;;-0.91433454;0.89980775;-0.25879696;;;;;1849.5
2061.0;1962.7;;;;;;;;;;;;;;;;;-18.829922;-15.8772545;36.362804;;1859.2
2061.0;1962.7;;;;;;;;;;;;;;-0.9251381;0.90231025;-0.23303933;;;;;1859.2
2061.0;1962.7;;;;;;;;;;;;;;;;;-16.605885;-18.925291;36.633656;;1859.2
2061.0;1962.7;;;;;;;;;;;;;;-0.9251381;0.9012726;-0.2141789;;;;;1859.2
2061.0;1962.7;;;;;;;;;;;;;;;;;-13.264108;-20.695364;35.13825;;1868.9
2061.0;1962.7;;;;;;;;;;;;;;-0.93649095;0.91488385;-0.19251075;;;;;1868.9
2061.0;1962.7;;;;;;;;;;;;;;;;;-10.986664;-22.4044;32.555622;;1868.9
2061.0;1962.7;;;;;;;;;;;;;;-0.9615772;0.9425947;-0.17065951;;;;;1868.9
2064.0;1963.5;;;;;;;;;;;;;;;;;-10.074923;-25.46388;30.762657;;1878.5
2064.0;1963.5;;;;;;;;;;;;;;-0.9812311;0.96011233;-0.16302988;;;;;1878.5
2064.0;1963.5;;;;;;;;;;;;;;;;;-9.220405;-28.599659;28.153324;;1878.5
2064.0;1963.5;;;;;;;;;;;;;;-0.99667346;0.97537154;-0.16528825;;;;;1878.5
2064.0;1963.5;;;;;;;;;;;;;;;;;-8.945738;-31.197546;24.079105;;1888.1
2064.0;1963.5;;;;;;;;;;;;;;-1.0240791;0.9879452;-0.16730247;;;;;1888.1
2064.0;1963.5;;;;;;;;;;;;;;;;;-9.014404;-34.306618;18.856625;;1888.1
2064.0;1963.5;;;;;;;;;;;;;;-1.0523392;0.9939268;-0.1760918;;;;;1888.1
2064.0;1963.5;;;;;;;;;;;;;;;;;-8.869442;-38.83862;12.855922;;1897.8
2064.0;1963.5;;;;;;;;;;;;;;-1.0769372;0.99563587;-0.18274483;;;;;1897.8
2064.0;1963.5;;;;;;;;;;;;;;;;;-8.522293;-44.740135;6.424146;;1897.8
2064.0;1963.5;;;;;;;;;;;;;;-1.0818201;0.982696;-0.1986755;;;;;1897.8
2064.0;1965.7;262143;262143;10965;;;;;;;;;;;;;;;;;;
2064.0;1970.6;;;;;;;;;;60.19013;-71.66128;67.5451;;;;;;;;;
2064.0;1970.6;;;;;;;0.90542316;-0.22931609;0.39924315;;;;;;;;;;;;
2064.0;1970.6;;;;;;;;;;59.327984;-74.11039;64.42839;;;;;;;;;
2064.0;1970.6;;;;;;;0.9186071;-0.22107609;0.38972136;;;;;;;;;;;;
2064.0;1971.7;;;;;;;;;;;;;-5112;;;;;;;;
2064.0;1971.7;;;;;;;;;;;;;-4562;;;;;;;;
2064.0;1971.7;;;;;;;;;;;;;-3958;;;;;;;;
2064.0;1971.7;;;;;;;;;;;;;-3616;;;;;;;;
2064.0;1971.7;;;;;;;;;;;;;-3587;;;;;;;;
2124.0;1972.4;;;;-0.46688086;0.99683774;0.27708057;;;;;;;;;;;;;;;
2124.0;1972.4;;;;-0.4663201;0.99087536;0.27676013;;;;;;;;;;;;;;;
2124.0;1972.4;;;;-0.46609122;0.9835893;0.27655414;;;;;;;;;;;;;;;
2124.0;1972.4;;;;-0.46685416;0.9755975;0.2768288;;;;;;;;;;;;;;;
2124.0;1972.4;;;;-0.46825415;0.9666978;0.27572253;;;;;;;;;;;;;;;
2124.0;1980.1;;;;;;;;;;58.111057;-75.701164;61.223946;;;;;;;;;
2124.0;1980.1;;;;;;;0.93295085;-0.21283609;0.37879574;;;;;;;;;;;;
2124.0;1980.1;;;;;;;;;;56.543167;-76.44505;57.939392;;;;;;;;;
2124.0;1980.1;;;;;;;0.9449141;-0.20050661;0.36939603;;;;;;;;;;;;
2124.0;1982.4;;;;-0.47015768;0.9583131;0.27491;;;;;;;;;;;;;;;
2124.0;1982.4;;;;-0.47191626;0.9497911;0.27378848;;;;;;;;;;;;;;;
2124.0;1982.4;;;;-0.47320563;0.94277966;0.27200702;;;;;;;;;;;;;;;
2124.0;1982.4;;;;-0.47438818;0.93701565;0.27099994;;;;;;;;;;;;;;;
2124.0;1982.4;;;;-0.47407538;0.9316827;0.26991656;;;;;;;;;;;;;;;
2124.0;1985.9;262143;262143;10969;;;;;;;;;;;;;;;;;;
2124.0;1989.7;;;;;;;;;;54.750206;-76.11698;54.52132;;;;;;;;;
2124.0;1989.7;;;;;;;0.9585864;-0.19067965;0.3602405;;;;;;;;;;;;
2124.0;1989.7;;;;;;;;;;52.80084;-74.69787;50.908688;;;;;;;;;
2124.0;1989.7;;;;;;;0.97286904;-0.17694631;0.35163426;;;;;;;;;;;;
2128.0;1992.2;;;;-0.4735642;0.92733014;0.269722;;;;;;;;;;;;;;;
2128.0;1992.2;;;;-0.47204596;0.9246179;0.26926044;;;;;;;;;;;;;;;
2128.0;1992.2;;;;-0.469822;0.9230157;0.27046207;;;;;;;;;;;;;;;
2128.0;1992.2;;;;-0.46603018;0.92240155;0.2703171;;;;;;;;;;;;;;;
2128.0;1992.2;;;;-0.4611054;0.9235612;0.27193454;;;;;;;;;;;;;;;
2128.0;1999.1;;;;;;;;;;50.565353;-72.40517;47.19306;;;;;;;;;
2128.0;1999.1;;;;;;;0.9884945;-0.16577655;0.3414411;;;;;;;;;;;;
2128.0;1999.1;;;;;;;;;;48.06284;-69.421974;43.40114;;;;;;;;;
2128.0;1999.1;;;;;;;1.0027162;-0.15527818;0.33393353;;;;;;;;;;;;
2128.0;2002.3;;;;-0.45597082;0.9253274;0.2720528;;;;;;;;;;;;;;;
2128.0;2002.3;;;;-0.45068747;0.9283639;0.2736855;;;;;;;;;;;;;;;
2128.0;2002.3;;;;-0.44507223;0.9334756;0.27616885;;;;;;;;;;;;;;;
2128.0;2002.3;;;;-0.4398232;0.93883526;0.27870563;;;;;;;;;;;;;;;
2128.0;2002.3;;;;-0.4347878;0.9451219;0.28262714;;;;;;;;;;;;;;;
2128.0;2005.9;262143;262143;10976;;;;;;;;;;;;;;;;;;
2128.0;2008.7;;;;;;;;;;45.358135;-66.01535;39.66643;;;;;;;;;
2128.0;2008.7;;;;;;;1.0132755;-0.1480758;0.33082065;;;;;;;;;;;;
2128.0;2008.7;;;;;;;;;;42.48558;-62.30735;36.030914;;;;;;;;;
2128.0;2008.7;;;;;;;1.0203558;-0.14178899;0.32459486;;;;;;;;;;;;
2128.0;2011.8;;;;;;;;;;;;;-3452;;;;;;;;
2128.0;2011.8;;;;;;;;;;;;;-2906;;;;;;;;
2128.0;2011.8;;;;;;;;;;;;;-2204;;;;;;;;
2128.0;2011.8;;;;;;;;;;;;;-2059;;;;;;;;
2128.0;2011.8;;;;;;;;;;;;;-2361;;;;;;;;
2130.0;2012.4;;;;-0.4293366;0.95144284;0.28699878;;;;;;;;;;;;;;;
2130.0;2012.4;;;;-0.423832;0.95798886;0.2907181;;;;;;;;;;;;;;;
2130.0;2012.4;;;;-0.41932303;0.96372235;0.29423144;;;;;;;;;;;;;;;
2130.0;2012.4;;;;-0.41568762;0.96958554;0.29820636;;;;;;;;;;;;;;;
2130.0;2012.4;;;;-0.4120713;0.974373;0.30204013;;;;;;;;;;;;;;;
2130.0;2018.4;;;;;;;;;;39.3498;-58.561207;32.658623;;;;;;;;;
2130.0;2018.4;;;;;;;1.0220039;-0.13824885;0.31958982;;;;;;;;;;;;
2130.0;2018.4;;;;;;;;;;36.24073;-54.635765;29.347363;;;;;;;;;
2130.0;2018.4;;;;;;;1.0213324;-0.13745537;0.31519517;;;;;;;;;;;;
2130.0;2022.5;;;;-0.4097901;0.9786912;0.3054848;;;;;;;;;;;;;;;
2130.0;2022.5;;;;-0.40842825;0.9825555;0.30850604;;;;;;;;;;;;;;;
2130.0;2022.5;;;;-0.40811545;0.9859582;0.31252292;;;;;;;;;;;;;;;
2130.0;2022.5;;;;-0.4075852;0.98941433;0.31603244;;;;;;;;;;;;;;;
2130.0;2022.5;;;;-0.4079247;0.9918405;0.3190041;;;;;;;;;;;;;;;
2130.0;2026.2;262143;262143;10973;;;;;;;;;;;;;;;;;;
2130.0;2028.0;;;;;;;;;;33.234657;-49.787132;26.051363;;;;;;;;;
2130.0;2028.0;;;;;;;1.0247505;-0.13562426;0.30860317;;;;;;;;;;;;
2130.0;2028.0;;;;;;;;;;30.041656;-44.14884;22.587511;;;;;;;;;
2130.0;2028.0;;;;;;;1.033784;-0.13556322;0.30359814;;;;;;;;;;;;
2132.0;2030.9;;;;;;;;;;;;;;;;;-7.4732203;-49.38658;0.5836665;;1907.4
2132.0;2030.9;;;;;;;;;;;;;;-1.0740074;0.94875944;-0.20233771;;;;;1907.4
2132.0;2030.9;;;;;;;;;;;;;;;;;-5.4589987;-53.823208;-5.493332;;1907.4
2132.0;2030.9;;;;;;;;;;;;;;-1.0434889;0.9051179;-0.21643727;;;;;1907.4
2132.0;2030.9;;;;;;;;;;;;;;;;;-3.543962;-55.860317;-14.030885;;1917.1
2132.0;2030.9;;;;;;;;;;;;;;-1.0015564;0.8793603;-0.23444319;;;;;1917.1
2132.0;2030.9;;;;;;;;;;;;;;;;;0.14496292;-55.43687;-24.906918;;1917.1
2132.0;2030.9;;;;;;;;;;;;;;-0.95706046;0.87887204;-0.27887815;;;;;1917.1
2132.0;2030.9;;;;;;;;;;;;;;;;;5.836665;-53.094578;-37.022766;;1926.4
2132.0;2030.9;;;;;;;;;;;;;;-0.9169591;0.9060335;-0.33460495;;;;;1926.4
2132.0;2030.9;;;;;;;;;;;;;;;;;8.526108;-51.06128;-49.089024;;1926.4
2132.0;2030.9;;;;;;;;;;;;;;-0.87331766;0.92947173;-0.37702566;;;;;1926.4
2132.0;2031.6;;;;;;;;;;;;;;;;;5.9320354;-50.42039;-60.869167;;1936.1
2132.0;2031.6;;;;;;;;;;;;;;-0.8072756;0.93252355;-0.37617114;;;;;1936.1
2132.0;2031.6;;;;;;;;;;;;;;;;;-0.7705924;-49.123356;-72.89346;;1936.1
2132.0;2031.6;;;;;;;;;;;;;;-0.7404401;0.92916656;-0.3333842;;;;;1936.1
2132.0;2031.6;;;;;;;;;;;;;;;;;-7.5571456;-45.00717;-85.09324;;1945.8
2132.0;2031.6;;;;;;;;;;;;;;-0.6910001;0.9544359;-0.293466;;;;;1945.8
2132.0;2031.6;;;;;;;;;;;;;;;;;-10.601367;-38.048954;-97.31209;;1945.8
2132.0;2031.6;;;;;;;;;;;;;;-0.6839808;1.0302439;-0.272042;;;;;1945.8
2132.0;2031.6;;;;;;;;;;;;;;;;;-10.307627;-31.056398;-109.729294;;1955.5
2132.0;2031.6;;;;;;;;;;;;;;-0.7052217;1.1163671;-0.3075045;;;;;1955.5
2132.0;2031.6;;;;;;;;;;;;;;;;;-6.1151466;-23.937956;-120.81896;;1955.5
2132.0;2031.6;;;;;;;;;;;;;;-0.7348857;1.1675161;-0.3975341;;;;;1955.5
2133.0;2032.4;;;;-0.40783316;0.99388134;0.32257465;;;;;;;;;;;;;;;
2133.0;2032.4;;;;-0.40833288;0.99567044;0.32573703;;;;;;;;;;;;;;;
2133.0;2032.4;;;;-0.41011435;0.9972764;0.32831576;;;;;;;;;;;;;;;
2133.0;2032.4;;;;-0.41388708;0.9981271;0.3305054;;;;;;;;;;;;;;;
2133.0;2032.4;;;;-0.4200173;0.9996034;0.33295825;;;;;;;;;;;;;;;
2133.0;2037.3;;;;;;;;;;26.726585;-38.31599;19.020662;;;;;;;;;
2133.0;2037.3;;;;;;;1.0477004;-0.13428144;0.29889828;;;;;;;;;;;;
2133.0;2037.3;;;;;;;;;;23.22077;-32.57851;15.621662;;;;;;;;;
2133.0;2037.3;;;;;;;1.0598468;-0.1363567;0.29523605;;;;;;;;;;;;
2133.0;2042.4;;;;-0.42847067;1.0014077;0.33649066;;;;;;;;;;;;;;;
2133.0;2042.4;;;;-0.43936163;1.0034791;0.34240726;;;;;;;;;;;;;;;
2133.0;2042.4;;;;-0.45184332;1.0058748;0.34799197;;;;;;;;;;;;;;;
2133.0;2042.4;;;;-0.464737;1.0081445;0.35346988;;;;;;;;;;;;;;;
2133.0;2042.4;;;;-0.47712332;1.0103456;0.35844424;;;;;;;;;;;;;;;
2133.0;2046.1;262143;262143;10971;;;;;;;;;;;;;;;;;;
2133.0;2046.9;;;;;;;;;;19.486069;-26.95929;12.516403;;;;;;;;;
2133.0;2046.9;;;;;;;1.0661947;-0.14148381;0.29096347;;;;;;;;;;;;
2133.0;2046.9;;;;;;;;;;15.659811;-21.82455;9.62096;;;;;;;;;
2133.0;2046.9;;;;;;;1.0704672;-0.14880826;0.2908414;;;;;;;;;;;;
2133.0;2051.8;;;;;;;;;;;;;-2536;;;;;;;;
2133.0;2051.8;;;;;;;;;;;;;-2541;;;;;;;;
2133.0;2051.8;;;;;;;;;;;;;-2684;;;;;;;;
2133.0;2051.8;;;;;;;;;;;;;-2863;;;;;;;;
2133.0;2051.8;;;;;;;;;;;;;-2713;;;;;;;;
2135.0;2052.2;;;;-0.48855597;1.0130922;0.36330035;;;;;;;;;;;;;;;
2135.0;2052.2;;;;-0.49792105;1.0154153;0.36916736;;;;;;;;;;;;;;;
2135.0;2052.2;;;;-0.5061303;1.0175058;0.37495044;;;;;;;;;;;;;;;
2135.0;2052.2;;;;-0.513279;1.0186769;0.38109213;;;;;;;;;;;;;;;
2135.0;2052.2;;;;-0.5197945;1.0193101;0.3873368;;;;;;;;;;;;;;;
2135.0;2056.1;;;;;;;;;;11.719108;-17.00644;6.8475904;;;;;;;;;
2135.0;2056.1;;;;;;;1.0722984;-0.15955077;0.28992584;;;;;;;;;;;;
2135.0;2056.1;;;;;;;;;;7.8966646;-12.48207;3.9826655;;;;;;;;;
2135.0;2056.1;;;;;;;1.0726036;-0.17175817;0.28913236;;;;;;;;;;;;
2135.0;2062.2;;;;-0.5251923;1.0195924;0.39308172;;;;;;;;;;;;;;;
2135.0;2062.2;;;;-0.5298844;1.0194093;0.4007874;;;;;;;;;;;;;;;
2135.0;2062.2;;;;-0.5345307;1.018921;0.40993506;;;;;;;;;;;;;;;
2135.0;2062.2;;;;-0.53788763;1.0182191;0.4212876;;;;;;;;;;;;;;;
2135.0;2062.2;;;;-0.53971106;1.0182344;0.43344122;;;;;;;;;;;;;;;
2135.0;2065.8;;;;;;;;;;4.226814;-8.541368;1.0528886;;;;;;;;;
2135.0;2065.8;;;;;;;1.0703452;-0.18286692;0.29071933;;;;;;;;;;;;
2135.0;2065.8;;;;;;;;;;0.6675924;-4.947813;-1.8997772;;;;;;;;;
2135.0;2065.8;;;;;;;1.0719931;-0.20221564;0.29041412;;;;;;;;;;;;
2135.0;2066.0;262143;262143;10969;;;;;;;;;;;;;;;;;;
2137.0;2072.4;;;;-0.54028326;1.0178605;0.44664007;;;;;;;;;;;;;;;
2137.0;2072.4;;;;-0.54118353;1.018078;0.46050268;;;;;;;;;;;;;;;
2137.0;2072.4;;;;-0.54279715;1.01886;0.4748879;;;;;;;;;;;;;;;
2137.0;2072.4;;;;-0.54570776;1.0191728;0.4863854;;;;;;;;;;;;;;;
2137.0;2072.4;;;;-0.54954535;1.0174028;0.49428564;;;;;;;;;;;;;;;
2137.0;2075.4;;;;;;;;;;-3.0060732;-1.6861477;-4.7418137;;;;;;;;;
2137.0;2075.4;;;;;;;1.0737633;-0.21991637;0.28962067;;;;;;;;;;;;
2137.0;2075.4;;;;;;;;;;-6.8094425;1.1520737;-7.4732203;;;;;;;;;
2137.0;2075.4;;;;;;;1.0773034;-0.2356029;0.28662986;;;;;;;;;;;;
2137.0;2082.5;;;;-0.5538598;1.01532;0.5032311;;;;;;;;;;;;;;;
2137.0;2082.5;;;;-0.5599366;1.0140992;0.5143166;;;;;;;;;;;;;;;
2137.0;2082.5;;;;-0.56477743;1.0127412;0.52503973;;;;;;;;;;;;;;;
2137.0;2082.5;;;;-0.5688477;1.0119516;0.5360299;;;;;;;;;;;;;;;
2137.0;2082.5;;;;-0.5699616;1.010708;0.54488;;;;;;;;;;;;;;;
2138.0;2082.9;;;;;;;;;;;;;;;;;1.1291848;-18.837551;-124.923706;;1965.1
2138.0;2082.9;;;;;;;;;;;;;;-0.76631975;1.1946166;-0.48951688;;;;;1965.1
2138.0;2082.9;;;;;;;;;;;;;;;;;7.3854795;-15.377514;-124.988556;;1965.1
2138.0;2082.9;;;;;;;;;;;;;;-0.7983032;1.2141484;-0.5389569;;;;;1965.1
2138.0;2082.9;;;;;;;;;;;;;;;;;11.272774;-11.246071;-124.988556;;1974.8
2138.0;2082.9;;;;;;;;;;;;;;-0.8578753;1.2141484;-0.5464034;;;;;1974.8
2138.0;2082.9;;;;;;;;;;;;;;;;;16.434217;-8.980071;-124.988556;;1974.8
2138.0;2082.9;;;;;;;;;;;;;;-0.9388104;1.2111576;-0.5106357;;;;;1974.8
2138.0;2082.9;;;;;;;;;;;;;;;;;22.259438;-15.270699;-124.988556;;1984.3
2138.0;2082.9;;;;;;;;;;;;;;-1.0628986;1.223487;-0.41529587;;;;;1984.3
2138.0;2082.9;;;;;;;;;;;;;;;;;25.627918;-34.146397;-124.988556;;1984.3
2138.0;2082.9;;;;;;;;;;;;;;-1.178869;1.2753074;-0.3798944;;;;;1984.3
2138.0;2083.7;;;;;;;;;;;;;;;;;24.620808;-48.860134;-124.988556;;1993.9
2138.0;2083.7;;;;;;;;;;;;;;-1.31254;1.4369946;-0.3878292;;;;;1993.9
2138.0;2083.7;;;;;;;;;;;;;;;;;27.974028;-56.89413;-124.988556;;1993.9
2138.0;2083.7;;;;;;;;;;;;;;-1.3930479;1.5386212;-0.41645557;;;;;1993.9
2138.0;2083.7;;;;;;;;;;;;;;;;;40.166172;-65.11887;-124.988556;;2003.6
2138.0;2083.7;;;;;;;;;;;;;;-1.3392743;1.6877346;-0.4669332;;;;;2003.6
2138.0;2083.7;;;;;;;;;;;;;;;;;50.08087;-69.31135;-124.988556;;2003.6
2138.0;2083.7;;;;;;;;;;;;;;-1.1485336;1.7238685;-0.5172277;;;;;2003.6
2138.0;2083.7;;;;;;;;;;;;;;;;;47.70806;-67.60995;-124.988556;;2013.3
2138.0;2083.7;;;;;;;;;;;;;;-0.9241615;1.726188;-0.44148076;;;;;2013.3
2138.0;2083.7;;;;;;;;;;;;;;;;;38.396103;-77.84509;-124.988556;;2013.3
2138.0;2083.7;;;;;;;;;;;;;;-0.73842585;1.7515793;-0.40864283;;;;;2013.3
2139.0;2084.8;;;;;;;;;;-10.662404;3.8987396;-9.933775;;;;;;;;;
2139.0;2084.8;;;;;;;1.0858486;-0.25104526;0.28644672;;;;;;;;;;;;
2139.0;2084.8;;;;;;;;;;-14.530625;6.9963684;-12.333293;;;;;;;;;
2139.0;2084.8;;;;;;;1.0988494;-0.26770836;0.2829066;;;;;;;;;;;;
2139.0;2086.0;262143;262143;10976;;;;;;;;;;;;;;;;;;
2139.0;2091.9;;;;;;;;;;;;;-2454;;;;;;;;
2139.0;2091.9;;;;;;;;;;;;;-2356;;;;;;;;
2139.0;2091.9;;;;;;;;;;;;;-2448;;;;;;;;
2139.0;2091.9;;;;;;;;;;;;;-2732;;;;;;;;
2139.0;2091.9;;;;;;;;;;;;;-3136;;;;;;;;
2139.0;2092.3;;;;-0.56991583;1.0099832;0.55406195;;;;;;;;;;;;;;;
2139.0;2092.3;;;;-0.57083136;1.0093156;0.5626603;;;;;;;;;;;;;;;
2139.0;2092.3;;;;-0.5705567;1.0063401;0.56901175;;;;;;;;;;;;;;;
2139.0;2092.3;;;;-0.5704537;1.000763;0.5736466;;;;;;;;;;;;;;;
2139.0;2092.3;;;;-0.57127005;0.99468625;0.5765725;;;;;;;;;;;;;;;
2139.0;2094.4;;;;;;;;;;-18.612476;10.277108;-14.667959;;;;;;;;;
2139.0;2094.4;;;;;;;1.1165502;-0.28632465;0.2827235;;;;;;;;;;;;
2139.0;2094.4;;;;;;;;;;-22.968992;13.706625;-17.021698;;;;;;;;;
2139.0;2094.4;;;;;;;1.1393781;-0.30329296;0.28662986;;;;;;;;;;;;
2140.0;2098.0;;;;;;;;;;;;;;;;;27.504807;-88.671524;-123.64192;;2023.0
2140.0;2098.0;;;;;;;;;;;;;;-0.57924134;1.7603687;-0.38605914;;;;;2023.0
2140.0;2098.0;;;;;;;;;;;;;;;;;19.05118;-95.32456;-114.45586;;2023.0
2140.0;2098.0;;;;;;;;;;;;;;-0.4585101;1.7521898;-0.38966033;;;;;2023.0
2140.0;2098.0;;;;;;;;;;;;;;;;;17.555773;-99.45219;-102.99234;;2032.5
2140.0;2098.0;;;;;;;;;;;;;;-0.35023043;1.7416914;-0.42719808;;;;;2032.5
2140.0;2098.0;;;;;;;;;;;;;;;;;20.9624;-99.46363;-93.50871;;2032.5
2140.0;2098.0;;;;;;;;;;;;;;-0.25080112;1.7387005;-0.44007692;;;;;2032.5
2140.0;2098.0;;;;;;;;;;;;;;;;;25.37614;-104.503006;-84.04797;;2042.1
2140.0;2098.0;;;;;;;;;;;;;;-0.16248055;1.7175207;-0.42133853;;;;;2042.1
2140.0;2098.0;;;;;;;;;;;;;;;;;27.871029;-117.294075;-73.99213;;2042.1
2140.0;2098.0;;;;;;;;;;;;;;-0.11059908;1.6600238;-0.39527574;;;;;2042.1
2140.0;2102.3;;;;-0.5732232;0.9890176;0.57822424;;;;;;;;;;;;;;;
2140.0;2102.3;;;;-0.57606894;0.9829141;0.5763932;;;;;;;;;;;;;;;
2140.0;2102.3;;;;-0.5781594;0.9756471;0.5725098;;;;;;;;;;;;;;;
2140.0;2102.3;;;;-0.5814095;0.9695474;0.56971747;;;;;;;;;;;;;;;
2140.0;2102.3;;;;-0.5844117;0.96275723;0.564087;;;;;;;;;;;;;;;
2140.0;2103.9;;;;;;;;;;-27.272104;17.39555;-19.379255;;;;;;;;;
2140.0;2103.9;;;;;;;1.1592761;-0.32459486;0.29358807;;;;;;;;;;;;
2140.0;2103.9;;;;;;;;;;-31.662952;21.568956;-21.64144;;;;;;;;;
2140.0;2103.9;;;;;;;1.1845454;-0.346202;0.30262154;;;;;;;;;;;;
2140.0;2106.1;262143;262143;10978;;;;;;;;;;;;;;;;;;
2187.0;2112.4;;;;-0.5861245;0.9553987;0.55977637;;;;;;;;;;;;;;;
2187.0;2112.4;;;;-0.5880547;0.94908154;0.5559121;;;;;;;;;;;;;;;
2187.0;2112.4;;;;-0.5888787;0.9429246;0.5510331;;;;;;;;;;;;;;;
2187.0;2112.4;;;;-0.5884896;0.93701184;0.5456353;;;;;;;;;;;;;;;
2187.0;2112.4;;;;-0.58873755;0.93143475;0.53973013;;;;;;;;;;;;;;;
2187.0;2113.3;;;;;;;;;;-36.08051;26.142918;-24.189734;;;;;;;;;
2187.0;2113.3;;;;;;;1.22013;-0.36823633;0.31843013;;;;;;;;;;;;
2187.0;2113.3;;;;;;;;;;-40.208134;31.254768;-27.51625;;;;;;;;;
2187.0;2113.3;;;;;;;1.2649922;-0.39167455;0.33912167;;;;;;;;;;;;
2187.0;2122.1;;;;-0.589264;0.9246484;0.5319558;;;;;;;;;;;;;;;
2187.0;2122.1;;;;-0.58858114;0.919098;0.5300103;;;;;;;;;;;;;;;
2187.0;2122.1;;;;-0.5910416;0.91513073;0.5248681;;;;;;;;;;;;;;;
2187.0;2122.1;;;;-0.59039694;0.90844357;0.5199166;;;;;;;;;;;;;;;
2187.0;2122.1;;;;-0.59327704;0.9022523;0.5159531;;;;;;;;;;;;;;;
2187.0;2122.8;;;;;;;;;;-44.034397;37.04184;-31.945251;;;;;;;;;
2187.0;2122.8;;;;;;;1.3069857;-0.41608936;0.35840937;;;;;;;;;;;;
2187.0;2122.8;;;;;;;;;;-48.07047;43.130283;-36.839657;;;;;;;;;
2187.0;2122.8;;;;;;;1.3397626;-0.44721824;0.37299722;;;;;;;;;;;;
2187.0;2126.0;262143;262143;10977;;;;;;;;;;;;;;;;;;
2187.0;2131.9;;;;;;;;;;;;;-3567;;;;;;;;
2187.0;2131.9;;;;;;;;;;;;;-3827;;;;;;;;
2187.0;2131.9;;;;;;;;;;;;;-3912;;;;;;;;
2187.0;2131.9;;;;;;;;;;;;;-4092;;;;;;;;
2187.0;2131.9;;;;;;;;;;;;;-4207;;;;;;;;
2188.0;2132.3;;;;-0.5965386;0.8941575;0.5114365;;;;;;;;;;;;;;;
2188.0;2132.3;;;;-0.5992432;0.88744366;0.51354986;;;;;;;;;;;;;;;
2188.0;2132.3;;;;-0.60377127;0.88326657;0.516285;;;;;;;;;;;;;;;
2188.0;2132.3;;;;-0.60825735;0.8770906;0.51551443;;;;;;;;;;;;;;;
2188.0;2132.3;;;;-0.6117936;0.87238324;0.5203133;;;;;;;;;;;;;;;
2188.0;2132.4;;;;;;;;;;-52.346874;48.98221;-41.71499;;;;;;;;;
2188.0;2132.4;;;;;;;1.366863;-0.47401348;0.3881344;;;;;;;;;;;;
2188.0;2132.4;;;;;;;;;;-56.60802;55.036316;-46.6628;;;;;;;;;
2188.0;2132.4;;;;;;;1.3859066;-0.4984283;0.39838862;;;;;;;;;;;;
2188.0;2142.0;;;;;;;;;;-60.8272;61.662647;-51.839504;;;;;;;;;
2188.0;2142.0;;;;;;;1.3990295;-0.5223548;0.4069338;;;;;;;;;;;;
2188.0;2142.0;;;;;;;;;;-64.76791;68.52168;-56.993317;;;;;;;;;
2188.0;2142.0;;;;;;;1.40318;-0.54969937;0.4163335;;;;;;;;;;;;
2188.0;2142.4;;;;-0.61721045;0.86777127;0.52434164;;;;;;;;;;;;;;;
2188.0;2142.4;;;;-0.62159735;0.8617097;0.5268975;;;;;;;;;;;;;;;
2188.0;2142.4;;;;-0.6256791;0.8561326;0.53200155;;;;;;;;;;;;;;;
2188.0;2142.4;;;;-0.6304169;0.8495828;0.5342179;;;;;;;;;;;;;;;
2188.0;2142.4;;;;-0.6330376;0.8442117;0.54116064;;;;;;;;;;;;;;;
2188.0;2146.3;262143;262143;10996;;;;;;;;;;;;;;;;;;
2188.0;2151.6;;;;;;;;;;-68.4759;75.58672;-61.906796;;;;;;;;;
2188.0;2151.6;;;;;;;1.4045839;-0.57887506;0.4259163;;;;;;;;;;;;
2188.0;2151.6;;;;;;;;;;-72.01987;82.64413;-66.36632;;;;;;;;;
2188.0;2151.6;;;;;;;1.4035462;-0.6103702;0.43787956;;;;;;;;;;;;
2189.0;2152.4;;;;-0.637024;0.8381578;0.542965;;;;;;;;;;;;;;;
2189.0;2152.4;;;;-0.63818365;0.8312341;0.54510885;;;;;;;;;;;;;;;
2189.0;2152.4;;;;-0.6365319;0.8245164;0.54601294;;;;;;;;;;;;;;;
2189.0;2152.4;;;;-0.6350251;0.8174325;0.5470391;;;;;;;;;;;;;;;
2189.0;2152.4;;;;-0.63429266;0.8104745;0.54918677;;;;;;;;;;;;;;;
2189.0;2158.6;;;;;;;;;;;;;;;;;22.865993;-123.897514;-67.3658;;2051.6
2189.0;2158.6;;;;;;;;;;;;;;-0.05658132;1.57622;-0.3648793;;;;;2051.6
2189.0;2158.6;;;;;;;;;;;;;;;;;13.576922;-124.660484;-62.60109;;2051.6
2189.0;2158.6;;;;;;;;;;;;;;-0.039857175;1.483871;-0.28925443;;;;;2051.6
2189.0;2158.6;;;;;;;;;;;;;;;;;4.860073;-124.35148;-61.14002;;2061.2
2189.0;2158.6;;;;;;;;;;;;;;-0.0050050355;1.3965881;-0.25818658;;;;;2061.2
2189.0;2158.6;;;;;;;;;;;;;;;;;0.57222205;-117.79;-67.575615;;2061.2
2189.0;2158.6;;;;;;;;;;;;;;0.013672292;1.3662527;-0.2120426;;;;;2061.2
2189.0;2158.6;;;;;;;;;;;;;;;;;0.6904813;-100.8713;-76.406906;;2070.9
2189.0;2158.6;;;;;;;;;;;;;;0.012390515;1.3306681;-0.21942808;;;;;2070.9
2189.0;2158.6;;;;;;;;;;;;;;;;;4.50911;-81.8926;-93.23405;;2070.9
2189.0;2158.6;;;;;;;;;;;;;;-6.103702E-4;1.2848293;-0.21143223;;;;;2070.9
2190.0;2159.4;;;;;;;;;;;;;;;;;9.998627;-68.13257;-115.29893;;2080.5
2190.0;2159.4;;;;;;;;;;;;;;-0.038880583;1.1933959;-0.23340556;;;;;2080.5
2190.0;2159.4;;;;;;;;;;;;;;;;;15.221107;-56.360058;-124.83596;;2080.5
2190.0;2159.4;;;;;;;;;;;;;;-0.14520706;1.160802;-0.22876675;;;;;2080.5
2190.0;2159.4;;;;;;;;;;;;;;;;;21.80166;-52.079838;-124.988556;;2090.1
2190.0;2159.4;;;;;;;;;;;;;;-0.30323192;1.1340678;-0.18982513;;;;;2090.1
2190.0;2159.4;;;;;;;;;;;;;;;;;27.130957;-52.720726;-124.988556;;2090.1
2190.0;2159.4;;;;;;;;;;;;;;-0.39838862;1.0810267;-0.17883846;;;;;2090.1
2190.0;2159.4;;;;;;;;;;;;;;;;;29.484695;-50.675983;-124.988556;;2099.8
2190.0;2159.4;;;;;;;;;;;;;;-0.46259958;1.0132145;-0.1739555;;;;;2099.8
2190.0;2159.4;;;;;;;;;;;;;;;;;29.156622;-48.085728;-124.988556;;2099.8
2190.0;2159.4;;;;;;;;;;;;;;-0.47639394;0.9759209;-0.2038026;;;;;2099.8
2190.0;2161.0;;;;;;;;;;-75.20142;89.24757;-70.67323;;;;;;;;;
2190.0;2161.0;;;;;;;1.393109;-0.6455886;0.44990388;;;;;;;;;;;;
2190.0;2161.0;;;;;;;;;;-77.99768;95.458084;-75.00687;;;;;;;;;
2190.0;2161.0;;;;;;;1.3896298;-0.6955168;0.46058536;;;;;;;;;;;;
2190.0;2162.3;;;;-0.6334763;0.80606854;0.55340964;;;;;;;;;;;;;;;
2190.0;2162.3;;;;-0.63247305;0.8006555;0.5553246;;;;;;;;;;;;;;;
2190.0;2162.3;;;;-0.63070685;0.7955705;0.55800253;;;;;;;;;;;;;;;
2190.0;2162.3;;;;-0.6306954;0.78902066;0.5534745;;;;;;;;;;;;;;;
2190.0;2162.3;;;;-0.6280404;0.7816659;0.55071265;;;;;;;;;;;;;;;
2190.0;2166.3;262143;262143;10998;;;;;;;;;;;;;;;;;;
2246.0;2170.6;;;;;;;;;;-80.175934;101.104004;-79.88601;;;;;;;;;
2246.0;2170.6;;;;;;;1.3796197;-0.74489576;0.4766991;;;;;;;;;;;;
2246.0;2170.6;;;;;;;;;;-81.667534;106.25019;-84.83764;;;;;;;;;
2246.0;2170.6;;;;;;;1.370159;-0.7917722;0.49275187;;;;;;;;;;;;
2246.0;2172.0;;;;;;;;;;;;;-3806;;;;;;;;
2246.0;2172.0;;;;;;;;;;;;;-3168;;;;;;;;
2246.0;2172.0;;;;;;;;;;;;;-2894;;;;;;;;
2246.0;2172.0;;;;;;;;;;;;;-2882;;;;;;;;
2246.0;2172.0;;;;;;;;;;;;;-2841;;;;;;;;
2246.0;2172.4;;;;-0.6253281;0.7760507;0.5500756;;;;;;;;;;;;;;;
2246.0;2172.4;;;;-0.6226807;0.76986706;0.5471154;;;;;;;;;;;;;;;
2246.0;2172.4;;;;-0.6181641;0.76322186;0.5416375;;;;;;;;;;;;;;;
2246.0;2172.4;;;;-0.6128121;0.75527203;0.5360413;;;;;;;;;;;;;;;
2246.0;2172.4;;;;-0.6055184;0.7477265;0.5322495;;;;;;;;;;;;;;;
2246.0;2180.0;;;;;;;;;;-82.54112;110.56856;-89.91134;;;;;;;;;
2246.0;2180.0;;;;;;;1.3608813;-0.8340098;0.50685143;;;;;;;;;;;;
2246.0;2180.0;;;;;;;;;;-82.77383;114.2613;-95.06897;;;;;;;;;
2246.0;2180.0;;;;;;;1.3495895;-0.87246317;0.5223548;;;;;;;;;;;;
2246.0;2182.3;;;;-0.6001778;0.7417832;0.5284081;;;;;;;;;;;;;;;
2246.0;2182.3;;;;-0.5948029;0.7357674;0.52068335;;;;;;;;;;;;;;;
2246.0;2182.3;;;;-0.59039694;0.7296372;0.5147324;;;;;;;;;;;;;;;
2246.0;2182.3;;;;-0.58599097;0.7223931;0.5083695;;;;;;;;;;;;;;;
2246.0;2182.3;;;;-0.58372885;0.7180634;0.50570303;;;;;;;;;;;;;;;
2246.0;2186.4;262143;262143;10995;;;;;;;;;;;;;;;;;;
2248.0;2189.7;;;;;;;;;;-82.27027;117.13386;-100.230415;;;;;;;;;
2248.0;2189.7;;;;;;;1.3409222;-0.90157783;0.535905;;;;;;;;;;;;
2248.0;2189.7;;;;;;;;;;-81.23264;118.84671;-105.319374;;;;;;;;;
2248.0;2189.7;;;;;;;1.3297524;-0.931608;0.54646444;;;;;;;;;;;;
2248.0;2192.5;;;;-0.58230215;0.7142182;0.50131994;;;;;;;;;;;;;;;
2248.0;2192.5;;;;-0.5813027;0.7092667;0.49431235;;;;;;;;;;;;;;;
2248.0;2192.5;;;;-0.58092886;0.7032891;0.48983008;;;;;;;;;;;;;;;
2248.0;2192.5;;;;-0.5811463;0.6981965;0.48513418;;;;;;;;;;;;;;;
2248.0;2192.5;;;;-0.5811997;0.69341666;0.48006064;;;;;;;;;;;;;;;
2248.0;2199.3;;;;;;;;;;-79.76394;119.39986;-110.09552;;;;;;;;;
2248.0;2199.3;;;;;;;1.3155919;-0.9552904;0.5578784;;;;;;;;;;;;
2248.0;2199.3;;;;;;;;;;-77.69631;119.23582;-114.47493;;;;;;;;;
2248.0;2199.3;;;;;;;1.2984405;-0.9757378;0.5609302;;;;;;;;;;;;
2248.0;2202.5;;;;-0.5807763;0.6873055;0.4724198;;;;;;;;;;;;;;;
2248.0;2202.5;;;;-0.58053595;0.6815224;0.4663735;;;;;;;;;;;;;;;
2248.0;2202.5;;;;-0.580597;0.67864996;0.46374136;;;;;;;;;;;;;;;
2248.0;2202.5;;;;-0.5818215;0.67673117;0.4592896;;;;;;;;;;;;;;;
2248.0;2202.5;;;;-0.5848122;0.6718026;0.4484368;;;;;;;;;;;;;;;
2249.0;2203.3;;;;;;;;;;;;;;;;;30.976288;-47.39906;-124.988556;;2109.5
2249.0;2203.3;;;;;;;;;;;;;;-0.46320993;0.94747764;-0.24134037;;;;;2109.5
2249.0;2203.3;;;;;;;;;;;;;;;;;33.753475;-48.432877;-124.988556;;2109.5
2249.0;2203.3;;;;;;;;;;;;;;-0.4367809;0.9098178;-0.30512404;;;;;2109.5
2249.0;2203.3;;;;;;;;;;;;;;;;;36.450546;-49.76043;-124.988556;;2119.2
2249.0;2203.3;;;;;;;;;;;;;;-0.42597735;0.8775292;-0.35407576;;;;;2119.2
2249.0;2203.3;;;;;;;;;;;;;;;;;36.988434;-53.2548;-124.988556;;2119.2
2249.0;2203.3;;;;;;;;;;;;;;-0.435255;0.86111027;-0.36744285;;;;;2119.2
2249.0;2203.3;;;;;;;;;;;;;;;;;33.280437;-57.767723;-124.988556;;2128.8
2249.0;2203.3;;;;;;;;;;;;;;-0.44001588;0.8390759;-0.3427839;;;;;2128.8
2249.0;2203.3;;;;;;;;;;;;;;;;;25.650806;-60.43046;-124.988556;;2128.8
2249.0;2203.3;;;;;;;;;;;;;;-0.4397717;0.8186285;-0.2826014;;;;;2128.8
2249.0;2206.5;262143;262143;10996;;;;;;;;;;;;;;;;;;
2249.0;2208.8;;;;;;;;;;-75.315865;118.49574;-118.511;;;;;;;;;
2249.0;2208.8;;;;;;;1.2767724;-0.9906308;0.560625;;;;;;;;;;;;
2249.0;2208.8;;;;;;;;;;-72.485275;117.36656;-122.29911;;;;;;;;;
2249.0;2208.8;;;;;;;1.254799;-1.0046083;0.55903804;;;;;;;;;;;;
2249.0;2212.3;;;;;;;;;;;;;-2874;;;;;;;;
2249.0;2212.3;;;;;;;;;;;;;-3086;;;;;;;;
2249.0;2212.3;;;;;;;;;;;;;-3287;;;;;;;;
2249.0;2212.3;;;;;;;;;;;;;-2527;;;;;;;;
2249.0;2212.3;;;;;;;;;;;;;-1978;;;;;;;;
2250.0;2212.5;;;;-0.58580023;0.66471106;0.44015127;;;;;;;;;;;;;;;
2250.0;2212.5;;;;-0.5874978;0.66008383;0.43754584;;;;;;;;;;;;;;;
2250.0;2212.5;;;;-0.58837515;0.6583138;0.43548208;;;;;;;;;;;;;;;
2250.0;2212.5;;;;-0.58982855;0.6576043;0.43156058;;;;;;;;;;;;;;;
2250.0;2212.5;;;;-0.59029394;0.6571694;0.42864615;;;;;;;;;;;;;;;
2250.0;2218.4;;;;;;;;;;;;;;;;;18.96344;-60.354164;-124.988556;;2138.5
2250.0;2218.4;;;;;;;;;;;;;;-0.4293344;0.82039857;-0.22223578;;;;;2138.5
2250.0;2218.4;;;;;;;;;;;;;;;;;15.991699;-58.050022;-124.988556;;2138.5
2250.0;2218.4;;;;;;;;;;;;;;-0.4300058;0.8455458;-0.17944884;;;;;2138.5
2250.0;2218.4;;;;;;;;;;;;;;;;;15.057069;-55.211796;-124.988556;;2148.1
2250.0;2218.4;;;;;;;;;;;;;;-0.4358043;0.86703086;-0.16547136;;;;;2148.1
2250.0;2218.4;;;;;;;;;;;;;;;;;12.966552;-52.24769;-124.988556;;2148.1
2250.0;2218.4;;;;;;;;;;;;;;-0.42414623;0.8726463;-0.15698722;;;;;2148.1
2250.0;2218.4;;;;;;;;;;;;;;;;;9.399701;-50.756096;-124.73296;;2157.8
2250.0;2218.4;;;;;;;;;;;;;;-0.384167;0.8664205;-0.15900144;;;;;2157.8
2250.0;2218.4;;;;;;;;;;;;;;;;;6.5614796;-50.27543;-122.87133;;2157.8
2250.0;2218.4;;;;;;;;;;;;;;-0.36133915;0.8445692;-0.15320292;;;;;2157.8
2250.0;2218.2;;;;;;;;;;-69.071014;116.164894;-124.561295;;;;;;;;;
2250.0;2218.2;;;;;;;1.2352061;-1.0151067;0.5520188;;;;;;;;;;;;
2250.0;2218.2;;;;;;;;;;-65.49654;114.58174;-124.87792;;;;;;;;;
2250.0;2218.2;;;;;;;1.2164067;-1.0191962;0.54017764;;;;;;;;;;;;
2305.0;2222.4;;;;-0.59050375;0.6566697;0.4254952;;;;;;;;;;;;;;;
2305.0;2222.4;;;;-0.5916291;0.6545258;0.41865927;;;;;;;;;;;;;;;
2305.0;2222.4;;;;-0.592804;0.6497384;0.41066748;;;;;;;;;;;;;;;
2305.0;2222.4;;;;-0.59379965;0.6446534;0.40660864;;;;;;;;;;;;;;;
2305.0;2222.4;;;;-0.5953255;0.64290243;0.40734106;;;;;;;;;;;;;;;
2305.0;2226.6;262143;262143;10999;;;;;;;;;;;;;;;;;;
2305.0;2227.8;;;;;;;;;;-61.998352;112.56752;-124.881744;;;;;;;;;
2305.0;2227.8;;;;;;;1.1964476;-1.0197455;0.52589494;;;;;;;;;;;;
2305.0;2227.8;;;;;;;;;;-58.599354;110.11841;-124.881744;;;;;;;;;
2305.0;2227.8;;;;;;;1.177404;-1.0180365;0.51136816;;;;;;;;;;;;
2305.0;2232.2;;;;-0.59748846;0.6434937;0.40769202;;;;;;;;;;;;;;;
2305.0;2232.2;;;;-0.6009522;0.6447602;0.40390784;;;;;;;;;;;;;;;
2305.0;2232.2;;;;-0.60571295;0.6437226;0.3979531;;;;;;;;;;;;;;;
2305.0;2232.2;;;;-0.6103135;0.6417771;0.39474875;;;;;;;;;;;;;;;
2305.0;2232.2;;;;-0.6134301;0.639824;0.39249808;;;;;;;;;;;;;;;
2305.0;2237.0;;;;;;;;;;-55.26902;107.53578;-124.881744;;;;;;;;;
2305.0;2237.0;;;;;;;1.1643422;-1.0148015;0.49360636;;;;;;;;;;;;
2305.0;2237.0;;;;;;;;;;-52.1218;104.85015;-124.881744;;;;;;;;;
2305.0;2237.0;;;;;;;1.1455427;-1.009064;0.4756615;;;;;;;;;;;;
2307.0;2242.3;;;;-0.61515814;0.6376458;0.38920218;;;;;;;;;;;;;;;
2307.0;2242.3;;;;-0.6168366;0.6359635;0.38704687;;;;;;;;;;;;;;;
2307.0;2242.3;;;;-0.6186791;0.63457114;0.38651663;;;;;;;;;;;;;;;
2307.0;2242.3;;;;-0.6215096;0.6339379;0.38845068;;;;;;;;;;;;;;;
2307.0;2242.3;;;;-0.6261597;0.6334763;0.39010626;;;;;;;;;;;;;;;
2307.0;2246.7;;;;;;;;;;-49.146248;102.195045;-124.881744;;;;;;;;;
2307.0;2246.7;;;;;;;1.1247902;-1.002472;0.46406445;;;;;;;;;;;;
2307.0;2246.7;;;;;;;;;;-46.212654;99.71922;-124.881744;;;;;;;;;
2307.0;2246.7;;;;;;;1.1029389;-0.99722284;0.4547258;;;;;;;;;;;;
2307.0;2246.5;262143;262143;11005;;;;;;;;;;;;;;;;;;
2307.0;2252.3;;;;;;;;;;;;;-6769;;;;;;;;
2307.0;2252.3;;;;;;;;;;;;;-17709;;;;;;;;
2307.0;2252.3;;;;;;;;;;;;;-26312;;;;;;;;
2307.0;2252.3;;;;;;;;;;;;;-24067;;;;;;;;
2307.0;2252.3;;;;;;;;;;;;;-12900;;;;;;;;
2307.0;2252.4;;;;-0.6334916;0.63315207;0.39212805;;;;;;;;;;;;;;;
2307.0;2252.4;;;;-0.6439286;0.6333619;0.394085;;;;;;;;;;;;;;;
2307.0;2252.4;;;;-0.65697485;0.63296896;0.39617544;;;;;;;;;;;;;;;
2307.0;2252.4;;;;-0.6720467;0.6323624;0.39912802;;;;;;;;;;;;;;;
2307.0;2252.4;;;;-0.6882592;0.6326943;0.4031945;;;;;;;;;;;;;;;
2307.0;2256.3;;;;;;;;;;-43.218025;97.35405;-124.881744;;;;;;;;;
2307.0;2256.3;;;;;;;1.0805994;-0.9939268;0.44685203;;;;;;;;;;;;
2307.0;2256.3;;;;;;;;;;-40.30732;95.164345;-124.881744;;;;;;;;;
2307.0;2256.3;;;;;;;1.0611897;-0.99002045;0.4405652;;;;;;;;;;;;
2309.0;2262.5;;;;-0.7050896;0.63299185;0.4076653;;;;;;;;;;;;;;;
2309.0;2262.5;;;;-0.72113043;0.63335806;0.41328436;;;;;;;;;;;;;;;
2309.0;2262.5;;;;-0.7358094;0.63475806;0.41883093;;;;;;;;;;;;;;;
2309.0;2262.5;;;;-0.749096;0.63521963;0.42415625;;;;;;;;;;;;;;;
2309.0;2262.5;;;;-0.7616273;0.63540274;0.42902;;;;;;;;;;;;;;;
2309.0;2263.7;;;;;;;;;;;;;;;;;5.054628;-51.93487;-118.987854;;2167.4
2309.0;2263.7;;;;;;;;;;;;;;-0.33954895;0.81551564;-0.13977477;;;;;2167.4
2309.0;2263.7;;;;;;;;;;;;;;;;;4.696036;-55.188908;-114.52452;;2167.4
2309.0;2263.7;;;;;;;;;;;;;;-0.30402538;0.7851192;-0.1403241;;;;;2167.4
2309.0;2263.7;;;;;;;;;;;;;;;;;6.599628;-59.392838;-109.47371;;2177.1
2309.0;2263.7;;;;;;;;;;;;;;-0.28382215;0.75191504;-0.1513718;;;;;2177.1
2309.0;2263.7;;;;;;;;;;;;;;;;;9.395886;-63.005463;-105.86871;;2177.1
2309.0;2263.7;;;;;;;;;;;;;;-0.26435134;0.7257302;-0.16827907;;;;;2177.1
2309.0;2263.7;;;;;;;;;;;;;;;;;11.928923;-66.339615;-102.21793;;2186.8
2309.0;2263.7;;;;;;;;;;;;;;-0.24738304;0.7041841;-0.19049653;;;;;2186.8
2309.0;2263.7;;;;;;;;;;;;;;;;;13.866847;-68.43775;-98.00638;;2186.8
2309.0;2263.7;;;;;;;;;;;;;;-0.24304941;0.6726279;-0.20099491;;;;;2186.8
2309.0;2265.8;;;;;;;;;;-37.453842;92.86019;-124.881744;;;;;;;;;
2309.0;2265.8;;;;;;;1.0422071;-0.984283;0.43256935;;;;;;;;;;;;
2309.0;2265.8;;;;;;;;;;-34.72243;90.37293;-124.881744;;;;;;;;;
2309.0;2265.8;;;;;;;1.0177923;-0.9765923;0.42854092;;;;;;;;;;;;
2309.0;2266.6;262143;262143;10998;;;;;;;;;;;;;;;;;;
2310.0;2272.4;;;;-0.7730104;0.63587195;0.4330979;;;;;;;;;;;;;;;
2310.0;2272.4;;;;-0.7836343;0.6355515;0.43700033;;;;;;;;;;;;;;;
2310.0;2272.4;;;;-0.79332364;0.6343995;0.44037634;;;;;;;;;;;;;;;
2310.0;2272.4;;;;-0.80308545;0.6326905;0.4436074;;;;;;;;;;;;;;;
2310.0;2272.4;;;;-0.81264126;0.63031775;0.44600302;;;;;;;;;;;;;;;
2310.0;2275.4;;;;;;;;;;-32.067326;87.74453;-124.881744;;;;;;;;;
2310.0;2275.4;;;;;;;0.9922178;-0.966216;0.42530596;;;;;;;;;;;;
2310.0;2275.4;;;;;;;;;;-29.38551;85.276344;-124.881744;;;;;;;;;
2310.0;2275.4;;;;;;;0.9641408;-0.9573046;0.4219489;;;;;;;;;;;;
2310.0;2278.4;;;;;;;;;;;;;;;;;15.232551;-71.05472;-94.29838;;2196.3
2310.0;2278.4;;;;;;;;;;;;;;-0.23041475;0.65614796;-0.2047792;;;;;2196.3
2310.0;2278.4;;;;;;;;;;;;;;;;;16.769922;-72.59209;-90.81164;;2196.3
2310.0;2278.4;;;;;;;;;;;;;;-0.22980438;0.6399121;-0.19611195;;;;;2196.3
