patientId;holterMac;flexMac;;;;;;;;;;;;;;;;;;;;
;CA:F3:0B:1E:33:78;D3:4A:5C:52:80:78;;;;;;;;;;;;;;;;;;;;
receivedTimeStamp;timeStamp;red;ir;green;adxl_accX;adxl_accY;adxl_accZ;lsm_accelX;lsm_accelY;lsm_accelZ;lsm_gyroX;lsm_gyroY;lsm_gyroZ;ecg;flex_lsm_accelX;flex_lsm_accelY;flex_lsm_accelZ;flex_lsm_gyroX;flex_lsm_gyroY;flex_lsm_gyroZ;flex_cmd;flexTimeStamp
255.0;212.5;;;;;;;;;;;;;;;;;;;;17;0.1
255.0;212.5;;;;;;;;;;;;;;;;;13.508256;0.7553331;0.8354442;;127.6
255.0;212.5;;;;;;;;;;;;;;-0.8455458;-0.3103122;-0.29255044;;;;;127.6
255.0;212.5;;;;;;;;;;;;;;;;;-5.0241094;-17.406994;-5.733665;;127.6
255.0;212.5;;;;;;;;;;;;;;-0.872158;-0.31434065;-0.30127874;;;;;127.6
255.0;212.5;;;;;;;;;;;;;;;;;-62.364574;-84.49812;-60.8005;;137.2
255.0;212.5;;;;;;;;;;;;;;-0.8655049;-0.30817592;-0.29999694;;;;;137.2
255.0;212.5;;;;;;;;;;;;;;;;;-121.94051;-124.988556;-119.74319;;137.2
255.0;212.5;;;;;;;;;;;;;;-0.85586107;-0.30384228;-0.30738243;;;;;137.2
315.0;213.7;;;;;;;;;;;;;;;;;-49.108097;-124.78637;-75.7622;;146.9
315.0;213.7;;;;;;;;;;;;;;-0.85280925;-0.3020722;-0.3170263;;;;;146.9
315.0;213.7;;;;;;;;;;;;;;;;;32.63573;-124.52315;-25.349436;;146.9
315.0;213.7;;;;;;;;;;;;;;-0.84865874;-0.29725027;-0.3251442;;;;;146.9
315.0;213.7;;;;;;;;;;;;;;;;;35.863064;-95.564896;-16.19007;;156.5
315.0;213.7;;;;;;;;;;;;;;-0.8479873;-0.29322183;-0.32801294;;;;;156.5
315.0;213.7;;;;;;;;;;;;;;;;;32.23136;-4.016999;8.911405;;156.5
315.0;213.7;;;;;;;;;;;;;;-0.85207677;-0.28693503;-0.32856226;;;;;156.5
315.0;213.7;;;;;;;;;;;;;;;;;32.14362;3.6736658;10.883664;;166.1
315.0;213.7;;;;;;;;;;;;;;-0.8552507;-0.28022096;-0.3325297;;;;;166.1
315.0;213.7;;;;;;;;;;;;;;;;;32.403027;3.6011841;10.853146;;166.1
315.0;213.7;;;;;;;;;;;;;;-0.855739;-0.27448347;-0.3324076;;;;;166.1
315.0;273.1;;;;;;;;;;;;;;;;;33.001953;3.2654805;11.230811;;175.8
315.0;273.1;;;;;;;;;;;;;;-0.8594012;-0.26868495;-0.32209235;;;;;175.8
315.0;273.1;;;;;;;;;;;;;;;;;34.26847;2.277444;11.154515;;175.8
315.0;273.1;;;;;;;;;;;;;;-0.86111027;-0.26435134;-0.291818;;;;;175.8
315.0;273.1;;;;;;;;;;;;;;;;;35.4091;1.4343699;10.933256;;185.4
315.0;273.1;;;;;;;;;;;;;;-0.8597064;-0.25476852;-0.24597919;;;;;185.4
315.0;273.1;;;;;;;;;;;;;;;;;35.355694;0.77822196;10.387737;;185.4
315.0;273.1;;;;;;;;;;;;;;-0.85836357;-0.2454909;-0.21729179;;;;;185.4
315.0;273.1;;;;;;;;;;;;;;;;;34.058655;-0.17548142;9.037293;;195.0
315.0;273.1;;;;;;;;;;;;;;-0.85677665;-0.24231696;-0.21765801;;;;;195.0
315.0;273.1;;;;;;;;;;;;;;;;;32.509842;-1.3771478;7.7860346;;195.0
315.0;273.1;;;;;;;;;;;;;;-0.84066284;-0.24317148;-0.23413801;;;;;195.0
380.0;273.9;;;;;;;;;;;;;;;;;30.938139;-2.8420362;6.595813;;204.7
380.0;273.9;;;;;;;;;;;;;;-0.8127079;-0.24890897;-0.24298838;;;;;204.7
380.0;273.9;;;;;;;;;;;;;;;;;29.08414;-3.9902954;5.203406;;204.7
380.0;273.9;;;;;;;;;;;;;;-0.793054;-0.2602008;-0.25678274;;;;;204.7
380.0;273.9;;;;;;;;;;;;;;;;;27.134771;-5.272073;3.7423322;;214.3
380.0;273.9;;;;;;;;;;;;;;-0.7781609;-0.27295756;-0.25910214;;;;;214.3
380.0;273.9;;;;;;;;;;;;;;;;;26.097141;-6.3173313;2.376629;;214.3
380.0;273.9;;;;;;;;;;;;;;-0.7737663;-0.27246925;-0.23633534;;;;;214.3
380.0;273.9;;;;;;;;;;;;;;;;;25.978882;-7.099368;0.76296276;;223.9
380.0;273.9;;;;;;;;;;;;;;-0.77175206;-0.25318155;-0.21228676;;;;;223.9
380.0;273.9;;;;;;;;;;;;;;;;;26.593067;-7.976775;-0.6981109;;223.9
380.0;273.9;;;;;;;;;;;;;;-0.7777337;-0.22602008;-0.22022156;;;;;223.9
380.0;333.5;;;;;;;;;;;;;;;;;27.871029;-9.163182;-2.0485551;;233.6
380.0;333.5;;;;;;;;;;;;;;-0.76992095;-0.20209357;-0.23895992;;;;;233.6
380.0;333.5;;;;;;;;;;;;;;;;;29.316843;-9.872738;-3.3036287;;233.6
380.0;333.5;;;;;;;;;;;;;;-0.77071446;-0.19525743;-0.23084201;;;;;233.6
380.0;333.5;;;;;;;;;;;;;;;;;29.862362;-9.979552;-4.333628;;243.2
380.0;333.5;;;;;;;;;;;;;;-0.7773675;-0.20337535;-0.22840053;;;;;243.2
380.0;333.5;;;;;;;;;;;;;;;;;29.114658;-10.391553;-5.4589987;;243.2
380.0;333.5;;;;;;;;;;;;;;-0.7868282;-0.20880765;-0.2499466;;;;;243.2
380.0;333.5;;;;;;;;;;;;;;;;;27.352215;-11.612293;-6.9353313;;252.7
380.0;333.5;;;;;;;;;;;;;;-0.78902555;-0.21076083;-0.27484968;;;;;252.7
380.0;333.5;;;;;;;;;;;;;;;;;25.406658;-13.660849;-8.556626;;252.7
380.0;333.5;;;;;;;;;;;;;;-0.7780999;-0.21393475;-0.28070924;;;;;252.7
440.0;334.3;;;;;;;;;;;;;;;;;23.65566;-15.488144;-9.9642935;;262.4
440.0;334.3;;;;;;;;;;;;;;-0.7741935;-0.21558276;-0.26935637;;;;;262.4
440.0;334.3;;;;;;;;;;;;;;;;;22.270882;-17.05603;-10.883664;;262.4
440.0;334.3;;;;;;;;;;;;;;-0.7777337;-0.2164983;-0.26490065;;;;;262.4
440.0;334.3;;;;;;;;;;;;;;;;;21.40492;-18.688772;-11.2880335;;272.0
440.0;334.3;;;;;;;;;;;;;;-0.77748954;-0.21814631;-0.27033296;;;;;272.0
440.0;334.3;;;;;;;;;;;;;;;;;20.939512;-19.61577;-11.310923;;272.0
440.0;334.3;;;;;;;;;;;;;;-0.7786493;-0.21790215;-0.26575518;;;;;272.0
440.0;334.3;;;;;;;;;;;;;;;;;19.207588;-20.05829;-11.524552;;281.6
440.0;334.3;;;;;;;;;;;;;;-0.7779168;-0.22113712;-0.23853268;;;;;281.6
440.0;334.3;;;;;;;;;;;;;;;;;15.98407;-20.729698;-12.112034;;281.6
440.0;334.3;;;;;;;;;;;;;;-0.78920865;-0.22070986;-0.20026246;;;;;281.6
440.0;393.9;;;;;;;;;;;;;;;;;12.131108;-21.969513;-12.939848;;291.3
440.0;393.9;;;;;;;;;;;;;;-0.7846309;-0.22376171;-0.18384351;;;;;291.3
440.0;393.9;;;;;;;;;;;;;;;;;8.548997;-22.999512;-13.985106;;291.3
440.0;393.9;;;;;;;;;;;;;;-0.77175206;-0.2200995;-0.20111698;;;;;291.3
440.0;393.9;;;;;;;;;;;;;;;;;5.996887;-24.044771;-14.85107;;301.0
440.0;393.9;;;;;;;;;;;;;;-0.75838494;-0.21765801;-0.2238838;;;;;301.0
440.0;393.9;;;;;;;;;;;;;;;;;5.165258;-24.819178;-15.86581;;301.0
440.0;393.9;;;;;;;;;;;;;;-0.74996185;-0.20349742;-0.2120426;;;;;301.0
440.0;393.9;;;;;;;;;;;;;;;;;5.287332;-25.711843;-17.052216;;310.6
440.0;393.9;;;;;;;;;;;;;;-0.7421491;-0.19183935;-0.19611195;;;;;310.6
440.0;393.9;;;;;;;;;;;;;;;;;6.0121465;-27.054659;-17.92581;;310.6
440.0;393.9;;;;;;;;;;;;;;-0.7414167;-0.19122899;-0.19684438;;;;;310.6
498.0;394.6;;;;;;;;;;;;;;;;;6.5652943;-29.358807;-18.601032;;320.3
498.0;394.6;;;;;;;;;;;;;;-0.7280496;-0.19861446;-0.20276497;;;;;320.3
498.0;394.6;;;;;;;;;;;;;;;;;6.122776;-31.285286;-19.47844;;320.3
498.0;394.6;;;;;;;;;;;;;;-0.72041994;-0.20960112;-0.19190039;;;;;320.3
498.0;394.6;;;;;;;;;;;;;;;;;4.844814;-32.47551;-20.500809;;330.0
498.0;394.6;;;;;;;;;;;;;;-0.72566915;-0.21283609;-0.16589862;;;;;330.0
498.0;394.6;;;;;;;;;;;;;;;;;3.238777;-34.52025;-21.511734;;330.0
498.0;394.6;;;;;;;;;;;;;;-0.71248513;-0.21588793;-0.17944884;;;;;330.0
498.0;394.6;;;;;;;;;;;;;;;;;2.9412215;-37.13721;-22.244177;;339.7
498.0;394.6;;;;;;;;;;;;;;-0.69179356;-0.21265298;-0.19727165;;;;;339.7
498.0;394.6;;;;;;;;;;;;;;;;;3.540147;-39.769432;-22.846918;;339.7
498.0;394.6;;;;;;;;;;;;;;-0.67702264;-0.21100497;-0.19183935;;;;;339.7
498.0;454.2;;;;;;;;;;;;;;;;;4.291665;-42.516098;-23.335215;;349.4
498.0;454.2;;;;;;;;;;;;;;-0.6537065;-0.21344645;-0.20068972;;;;;349.4
498.0;454.2;;;;;;;;;;;;;;;;;5.0927763;-44.644764;-23.770103;;349.4
498.0;454.2;;;;;;;;;;;;;;-0.63161105;-0.21948913;-0.20838039;;;;;349.4
498.0;454.2;;;;;;;;;;;;;;;;;4.6540728;-45.903652;-24.39955;;359.1
498.0;454.2;;;;;;;;;;;;;;-0.60750145;-0.22748497;-0.20233771;;;;;359.1
498.0;454.2;;;;;;;;;;;;;;;;;2.0027773;-45.804466;-25.704214;;359.1
498.0;454.2;;;;;;;;;;;;;;-0.6073794;-0.23938718;-0.17926572;;;;;359.1
498.0;454.2;;;;;;;;;;;;;;;;;-2.3194067;-46.02954;-27.645954;;368.6
498.0;454.2;;;;;;;;;;;;;;-0.60304576;-0.24958037;-0.1662038;;;;;368.6
498.0;454.2;;;;;;;;;;;;;;;;;-5.771813;-46.330914;-29.641104;;368.6
498.0;454.2;;;;;;;;;;;;;;-0.6028016;-0.25104526;-0.1640675;;;;;368.6
560.0;455.0;;;;;;;;;;;;;;;;;-6.786554;-46.69332;-31.384472;;378.2
560.0;455.0;;;;;;;;;;;;;;-0.61043125;-0.24414808;-0.15735343;;;;;378.2
560.0;455.0;;;;;;;;;;;;;;;;;-7.435072;-47.17017;-33.230843;;378.2
560.0;455.0;;;;;;;;;;;;;;-0.62318796;-0.23621327;-0.12402722;;;;;378.2
560.0;455.0;;;;;;;;;;;;;;;;;-11.135441;-47.872097;-35.939358;;388.0
560.0;455.0;;;;;;;;;;;;;;-0.62532425;-0.23206274;-0.10577715;;;;;388.0
560.0;455.0;;;;;;;;;;;;;;;;;-16.90344;-48.646507;-39.34217;;388.0
560.0;455.0;;;;;;;;;;;;;;-0.61342204;-0.229194;-0.120548114;;;;;388.0
560.0;455.0;;;;;;;;;;;;;;;;;-21.050142;-49.104282;-42.61147;;397.7
560.0;455.0;;;;;;;;;;;;;;-0.61793876;-0.21857357;-0.11236915;;;;;397.7
560.0;455.0;;;;;;;;;;;;;;;;;-24.639883;-51.515244;-45.327614;;397.7
560.0;455.0;;;;;;;;;;;;;;-0.61488694;-0.2229072;-0.15240943;;;;;397.7
560.0;514.8;;;;;;;;;;;;;;;;;-27.184362;-54.52895;-47.997986;;407.2
560.0;514.8;;;;;;;;;;;;;;-0.58784753;-0.22132023;-0.17554247;;;;;407.2
560.0;514.8;;;;;;;;;;;;;;;;;-27.851954;-55.391094;-49.91302;;407.2
560.0;514.8;;;;;;;;;;;;;;-0.60176396;-0.22980438;-0.1389813;;;;;407.2
560.0;514.8;;;;;;;;;;;;;;;;;-27.989288;-56.119724;-51.641132;;417.0
560.0;514.8;;;;;;;;;;;;;;-0.62623984;-0.25232702;-0.116763815;;;;;417.0
560.0;514.8;;;;;;;;;;;;;;;;;-29.232918;-57.321392;-54.09406;;417.0
560.0;514.8;;;;;;;;;;;;;;-0.6433912;-0.29175696;-0.15173803;;;;;417.0
560.0;514.8;;;;;;;;;;;;;;;;;-30.934324;-58.17591;-57.355724;;426.5
560.0;514.8;;;;;;;;;;;;;;-0.65913874;-0.33692434;-0.20868556;;;;;426.5
560.0;514.8;;;;;;;;;;;;;;;;;-31.323437;-58.591724;-60.995056;;426.5
560.0;514.8;;;;;;;;;;;;;;-0.6883755;-0.38660848;-0.22095402;;;;;426.5
617.0;515.6;;;;;;;;;;;;;;;;;-29.969175;-59.09528;-64.96628;;436.1
617.0;515.6;;;;;;;;;;;;;;-0.73177284;-0.43360698;-0.20728172;;;;;436.1
617.0;515.6;;;;;;;;;;;;;;;;;-27.314068;-59.934536;-69.17401;;436.1
617.0;515.6;;;;;;;;;;;;;;-0.7998291;-0.46174505;-0.16675314;;;;;436.1
617.0;515.6;;;;;;;;;;;;;;;;;-24.803917;-60.83483;-74.30494;;445.7
617.0;515.6;;;;;;;;;;;;;;-0.85872984;-0.48451185;-0.14978485;;;;;445.7
617.0;515.6;;;;;;;;;;;;;;;;;-23.319956;-60.1825;-79.99664;;445.7
617.0;515.6;;;;;;;;;;;;;;-0.91286963;-0.50972015;-0.17181921;;;;;445.7
617.0;515.6;;;;;;;;;;;;;;;;;-21.015808;-57.73339;-85.211494;;455.4
617.0;515.6;;;;;;;;;;;;;;-1.0143743;-0.54231393;-0.17920469;;;;;455.4
617.0;515.6;;;;;;;;;;;;;;;;;-18.379772;-55.27665;-90.350044;;455.4
617.0;515.6;;;;;;;;;;;;;;-1.1307107;-0.5767388;-0.14996795;;;;;455.4
617.0;529.4;;;;;;;;;;;;;;;;;-16.022219;-52.42317;-95.33219;;465.1
617.0;529.4;;;;;;;;;;;;;;-1.2600483;-0.6243477;-0.135197;;;;;465.1
617.0;529.4;;;;;;;;;;;;;;;;;-14.538255;-49.806206;-99.909966;;465.1
617.0;529.4;;;;;;;;;;;;;;-1.388409;-0.6559038;-0.15259255;;;;;465.1
617.0;529.4;;;;;;;;;;;;;;;;;-14.919737;-47.860653;-104.60982;;474.7
617.0;529.4;;;;;;;;;;;;;;-1.487228;-0.6714072;-0.19861446;;;;;474.7
617.0;529.4;;;;;;;;;;;;;;;;;-14.828181;-43.980988;-107.88675;;474.7
617.0;529.4;;;;;;;;;;;;;;-1.6346934;-0.7142552;-0.1848201;;;;;474.7
617.0;529.4;;;;;;;;;;;;;;;;;-13.508256;-41.913357;-109.40886;;484.3
617.0;529.4;;;;;;;;;;;;;;-1.7666554;-0.727195;-0.19080172;;;;;484.3
617.0;529.4;;;;;;;;;;;;;;;;;-12.401958;-40.74221;-109.78271;;484.3
617.0;529.4;;;;;;;;;;;;;;-1.8510087;-0.74562824;-0.18829921;;;;;484.3
678.0;574.7;;;;;;;;;;;;;;;;;-10.74633;-40.627766;-108.92438;;494.0
678.0;574.7;;;;;;;;;;;;;;-1.8769493;-0.7444685;-0.17432173;;;;;494.0
678.0;574.7;;;;;;;;;;;;;;;;;-8.564257;-40.604877;-106.769005;;494.0
678.0;574.7;;;;;;;;;;;;;;-1.8851894;-0.76131475;-0.15228736;;;;;494.0
678.0;574.7;;;;;;;;;;;;;;;;;-5.4818873;-43.099766;-104.6289;;503.7
678.0;574.7;;;;;;;;;;;;;;-1.823603;-0.7679067;-0.12134159;;;;;503.7
678.0;574.7;;;;;;;;;;;;;;;;;-2.6932585;-45.44206;-102.35526;;503.7
678.0;574.7;;;;;;;;;;;;;;-1.714835;-0.7691275;-0.107181005;;;;;503.7
678.0;574.7;;;;;;;;;;;;;;;;;0.6447035;-45.976135;-99.88708;;513.4
678.0;574.7;;;;;;;;;;;;;;-1.6041139;-0.7284158;-0.0905179;;;;;513.4
678.0;574.7;;;;;;;;;;;;;;;;;2.9221473;-45.121616;-97.07557;;513.4
678.0;574.7;;;;;;;;;;;;;;-1.5165868;-0.73378706;-0.0740379;;;;;513.4
678.0;590.5;;;;;;;;;;;;;;;;;5.508591;-44.392986;-93.649864;;523.0
678.0;590.5;;;;;;;;;;;;;;-1.4433423;-0.68239385;-0.0865505;;;;;523.0
678.0;590.5;;;;;;;;;;;;;;;;;7.0497756;-44.717243;-90.05249;;523.0
678.0;590.5;;;;;;;;;;;;;;-1.3820612;-0.664449;-0.10303049;;;;;523.0
678.0;590.5;;;;;;;;;;;;;;;;;9.445479;-45.30091;-85.55864;;532.7
678.0;590.5;;;;;;;;;;;;;;-1.3392743;-0.6690268;-0.101504564;;;;;532.7
678.0;590.5;;;;;;;;;;;;;;;;;13.111515;-44.946133;-79.439674;;532.7
678.0;590.5;;;;;;;;;;;;;;-1.3198645;-0.68172246;-0.09295938;;;;;532.7
678.0;590.5;;;;;;;;;;;;;;;;;17.239141;-44.06873;-72.199165;;542.4
678.0;590.5;;;;;;;;;;;;;;-1.3180333;-0.6690268;-0.07318339;;;;;542.4
678.0;590.5;;;;;;;;;;;;;;;;;19.920956;-43.27143;-65.054016;;542.4
678.0;590.5;;;;;;;;;;;;;;-1.320719;-0.643025;-0.048280284;;;;;542.4
737.0;634.9;;;;;;;;;;;;;;;;;21.446882;-42.283394;-58.164463;;552.1
737.0;634.9;;;;;;;;;;;;;;-1.3171788;-0.60640275;-0.022583697;;;;;552.1
737.0;634.9;;;;;;;;;;;;;;;;;21.687216;-39.84191;-51.618244;;552.1
737.0;634.9;;;;;;;;;;;;;;-1.3161412;-0.5849788;-0.023804437;;;;;552.1
737.0;634.9;;;;;;;;;;;;;;;;;21.286661;-37.209694;-45.602283;;561.7
737.0;634.9;;;;;;;;;;;;;;-1.3017365;-0.5631275;-0.05511643;;;;;561.7
737.0;634.9;;;;;;;;;;;;;;;;;20.538958;-34.287544;-41.14658;;561.7
737.0;634.9;;;;;;;;;;;;;;-1.2831812;-0.4939726;-0.09344768;;;;;561.7
737.0;634.9;;;;;;;;;;;;;;;;;18.879513;-31.025879;-38.216805;;571.2
737.0;634.9;;;;;;;;;;;;;;-1.281106;-0.41749322;-0.11139256;;;;;571.2
737.0;634.9;;;;;;;;;;;;;;;;;16.365551;-28.24488;-36.13773;;571.2
737.0;634.9;;;;;;;;;;;;;;-1.2600483;-0.34485915;-0.109866634;;;;;571.2
737.0;650.0;;;;;;;;;;;;;;;;;14.290292;-26.013214;-34.001434;;580.8
737.0;650.0;;;;;;;;;;;;;;-1.2048707;-0.2961516;-0.100405894;;;;;580.8
737.0;650.0;;;;;;;;;;;;;;;;;13.031404;-23.846401;-31.037325;;580.8
737.0;650.0;;;;;;;;;;;;;;-1.1563463;-0.27881712;-0.053102206;;;;;580.8
737.0;650.0;;;;;;;;;;;;;;;;;12.058626;-22.919401;-27.054659;;590.5
737.0;650.0;;;;;;;;;;;;;;-1.1316264;-0.28455457;1.2207404E-4;;;;;590.5
737.0;650.0;;;;;;;;;;;;;;;;;10.841701;-23.110142;-22.877438;;590.5
737.0;650.0;;;;;;;;;;;;;;-1.0882291;-0.2987762;0.029419843;;;;;590.5
737.0;650.0;;;;;;;;;;;;;;;;;8.6405525;-22.4044;-18.982513;;600.1
737.0;650.0;;;;;;;;;;;;;;-1.0431226;-0.33021027;0.049134802;;;;;600.1
737.0;650.0;;;;;;;;;;;;;;;;;4.795221;-20.973846;-15.98407;;600.1
737.0;650.0;;;;;;;;;;;;;;-1.0166326;-0.37183753;0.08728294;;;;;600.1
798.0;695.2;;;;;;;;;;;;;;;;;-0.0076296274;-19.329662;-13.973662;;609.5
798.0;695.2;;;;;;;;;;;;;;-0.9983825;-0.4259163;0.10626545;;;;;609.5
798.0;695.2;;;;;;;;;;;;;;;;;-4.608295;-17.536697;-12.459181;;609.5
798.0;695.2;;;;;;;;;;;;;;-0.97885066;-0.46485794;0.10187078;;;;;609.5
798.0;695.2;;;;;;;;;;;;;;;;;-8.968627;-15.133366;-10.982849;;619.1
798.0;695.2;;;;;;;;;;;;;;-0.9706717;-0.49104282;0.0865505;;;;;619.1
798.0;695.2;;;;;;;;;;;;;;;;;-13.126774;-11.883144;-9.479813;;619.1
798.0;695.2;;;;;;;;;;;;;;-0.9614551;-0.5153966;0.057252724;;;;;619.1
798.0;695.2;;;;;;;;;;;;;;;;;-16.788996;-8.003479;-7.927183;;628.8
798.0;695.2;;;;;;;;;;;;;;-0.9716483;-0.5310221;0.032105472;;;;;628.8
798.0;695.2;;;;;;;;;;;;;;;;;-19.24192;-4.6464434;-6.2715535;;628.8
798.0;695.2;;;;;;;;;;;;;;-0.96896267;-0.5422529;0.020569475;;;;;628.8
798.0;702.7;;;;;;;;;;;;;;;;;-19.985807;-1.575518;-4.314554;;638.4
798.0;702.7;;;;;;;;;;;;;;-0.96859646;-0.54536575;0.020813623;;;;;638.4
798.0;702.7;;;;;;;;;;;;;;;;;-18.581957;0.6599628;-2.090518;;638.4
798.0;702.7;;;;;;;;;;;;;;-0.95870847;-0.54628134;0.023926511;;;;;638.4
798.0;702.7;;;;;;;;;;;;;;;;;-15.072329;2.1248512;0.49592578;;648.1
798.0;702.7;;;;;;;;;;;;;;-0.94680625;-0.5335246;0.036988433;;;;;648.1
798.0;702.7;;;;;;;;;;;;;;;;;-10.307627;2.7352216;3.299814;;648.1
798.0;702.7;;;;;;;;;;;;;;-0.9290445;-0.51368755;0.050355542;;;;;648.1
798.0;702.7;;;;;;;;;;;;;;;;;-5.050813;3.0861845;6.199072;;657.7
798.0;702.7;;;;;;;;;;;;;;-0.90279853;-0.49049348;0.05841243;;;;;657.7
798.0;702.7;;;;;;;;;;;;;;;;;0.40437025;3.3417768;9.289071;;657.7
798.0;702.7;;;;;;;;;;;;;;-0.880398;-0.46656698;0.07238991;;;;;657.7
857.0;755.9;;;;;;;;;;;;;;;;;5.775628;3.295999;12.508774;;667.3
857.0;755.9;;;;;;;;;;;;;;-0.8543351;-0.44917142;0.08343761;;;;;667.3
857.0;755.9;;;;;;;;;;;;;;;;;10.3228855;3.2044435;15.774254;;667.3
857.0;755.9;;;;;;;;;;;;;;-0.8335826;-0.43250832;0.09350871;;;;;667.3
857.0;755.9;;;;;;;;;;;;;;;;;13.748589;3.1434064;18.63918;;677.0
857.0;755.9;;;;;;;;;;;;;;-0.8154546;-0.42567217;0.10449538;;;;;677.0
857.0;755.9;;;;;;;;;;;;;;;;;16.38081;2.6741846;21.038698;;677.0
857.0;755.9;;;;;;;;;;;;;;-0.7965331;-0.41413617;0.116763815;;;;;677.0
857.0;755.9;;;;;;;;;;;;;;;;;17.685476;1.9913328;22.877438;;686.6
857.0;755.9;;;;;;;;;;;;;;-0.77449876;-0.40449232;0.122562334;;;;;686.6
857.0;755.9;;;;;;;;;;;;;;;;;18.295847;1.7319254;24.174475;;686.6
857.0;755.9;;;;;;;;;;;;;;-0.75179297;-0.39039278;0.13086337;;;;;686.6
857.0;763.0;;;;;;;;;;;;;;;;;18.192846;1.8196661;25.090029;;696.3
857.0;763.0;;;;;;;;;;;;;;-0.7322611;-0.38453323;0.13293862;;;;;696.3
857.0;763.0;;;;;;;;;;;;;;;;;17.48329;2.1362956;25.608845;;696.3
857.0;763.0;;;;;;;;;;;;;;-0.713889;-0.38654745;0.12225715;;;;;696.3
857.0;763.0;;;;;;;;;;;;;;;;;15.659811;3.032777;25.578325;;705.8
857.0;763.0;;;;;;;;;;;;;;-0.69252604;-0.3830073;0.10138249;;;;;705.8
857.0;763.0;;;;;;;;;;;;;;;;;12.623219;4.566332;24.945066;;705.8
857.0;763.0;;;;;;;;;;;;;;-0.6801965;-0.37916195;0.0794702;;;;;705.8
857.0;763.0;;;;;;;;;;;;;;;;;8.770256;6.195257;23.842587;;715.5
857.0;763.0;;;;;;;;;;;;;;-0.669393;-0.37299722;0.0601825;;;;;715.5
857.0;763.0;;;;;;;;;;;;;;;;;4.5587025;8.049257;22.51503;;715.5
857.0;763.0;;;;;;;;;;;;;;-0.66371655;-0.3671987;0.042237617;;;;;715.5
920.0;815.9;;;;;;;;;;;;;;;;;0.8163701;9.693442;21.248512;;725.2
920.0;815.9;;;;;;;;;;;;;;-0.66353345;-0.35425887;0.036500137;;;;;725.2
920.0;815.9;;;;;;;;;;;;;;;;;-2.1591845;10.837886;20.241402;;725.2
920.0;815.9;;;;;;;;;;;;;;-0.66353345;-0.3394879;0.039613027;;;;;725.2
920.0;815.9;;;;;;;;;;;;;;;;;-4.4900355;11.650441;19.520401;;734.8
920.0;815.9;;;;;;;;;;;;;;-0.6652425;-0.31910154;0.04321421;;;;;734.8
920.0;815.9;;;;;;;;;;;;;;;;;-6.75985;12.306589;19.009216;;734.8
920.0;815.9;;;;;;;;;;;;;;-0.6657918;-0.2997528;0.043519396;;;;;734.8
920.0;815.9;;;;;;;;;;;;;;;;;-8.968627;13.000885;18.673513;;744.2
920.0;815.9;;;;;;;;;;;;;;-0.6696982;-0.28485978;0.04327525;;;;;744.2
920.0;815.9;;;;;;;;;;;;;;;;;-11.4978485;13.332774;18.22718;;744.2
920.0;815.9;;;;;;;;;;;;;;-0.66603595;-0.27240822;0.04382458;;;;;744.2
920.0;823.3;;;;;;;;;;;;;;;;;-14.43907;13.6227;18.028809;;753.9
920.0;823.3;;;;;;;;;;;;;;-0.66261786;-0.26783043;0.03814814;;;;;753.9
920.0;823.3;;;;;;;;;;;;;;;;;-17.82281;14.229255;17.92581;;753.9
920.0;823.3;;;;;;;;;;;;;;-0.6584063;-0.2689291;0.025086215;;;;;753.9
920.0;823.3;;;;;;;;;;;;;;;;;-21.553698;14.908293;17.77703;;763.6
920.0;823.3;;;;;;;;;;;;;;-0.654561;-0.27936643;0.013428144;;;;;763.6
920.0;823.3;;;;;;;;;;;;;;;;;-25.093843;15.331736;17.738884;;763.6
920.0;823.3;;;;;;;;;;;;;;-0.6518754;-0.29255044;0.0017090365;;;;;763.6
920.0;823.3;;;;;;;;;;;;;;;;;-28.210546;15.583514;17.944883;;773.1
920.0;823.3;;;;;;;;;;;;;;-0.64149904;-0.31305888;-0.010376293;;;;;773.1
920.0;823.3;;;;;;;;;;;;;;;;;-30.240026;16.010773;18.467514;;773.1
920.0;823.3;;;;;;;;;;;;;;-0.6378369;-0.3424177;-0.015320292;;;;;773.1
991.0;876.6;;;;;;;;;;;;;;;;;-31.243324;16.144293;19.108402;;782.9
991.0;876.6;;;;;;;;;;;;;;-0.634785;-0.35920286;-0.027100436;;;;;782.9
991.0;876.6;;;;;;;;;;;;;;;;;-31.33488;16.254921;20.027771;;782.9
991.0;876.6;;;;;;;;;;;;;;-0.6342357;-0.3846553;-0.030335398;;;;;782.9
991.0;876.6;;;;;;;;;;;;;;;;;-30.766472;16.117588;20.756401;;792.5
991.0;876.6;;;;;;;;;;;;;;-0.6302683;-0.40882596;-0.041444138;;;;;792.5
991.0;876.6;;;;;;;;;;;;;;;;;-29.335918;16.045107;21.576588;;792.5
991.0;876.6;;;;;;;;;;;;;;-0.6349681;-0.42500076;-0.044557024;;;;;792.5
991.0;876.6;;;;;;;;;;;;;;;;;-27.474287;15.55681;22.499771;;802.1
991.0;876.6;;;;;;;;;;;;;;-0.6393017;-0.45155185;-0.045838803;;;;;802.1
991.0;876.6;;;;;;;;;;;;;;;;;-25.208288;14.824367;23.56029;;802.1
991.0;876.6;;;;;;;;;;;;;;-0.636433;-0.47144994;-0.051271096;;;;;802.1
991.0;877.3;;;;;;;;;;;;;;;;;-22.652363;14.217811;24.433882;;811.7
991.0;877.3;;;;;;;;;;;;;;-0.63917965;-0.48384044;-0.05224769;;;;;811.7
991.0;877.3;;;;;;;;;;;;;;;;;-20.050661;13.523515;25.120548;;811.7
991.0;877.3;;;;;;;;;;;;;;-0.63753164;-0.49336222;-0.05200354;;;;;811.7
991.0;877.3;;;;;;;;;;;;;;;;;-17.540512;13.138219;25.845362;;821.4
991.0;877.3;;;;;;;;;;;;;;-0.6382031;-0.50294507;-0.04235969;;;;;821.4
991.0;877.3;;;;;;;;;;;;;;;;;-14.759515;12.966552;26.455732;;821.4
991.0;877.3;;;;;;;;;;;;;;-0.63472396;-0.5100253;-0.030030213;;;;;821.4
991.0;877.3;;;;;;;;;;;;;;;;;-12.153996;13.164922;26.95166;;831.0
991.0;877.3;;;;;;;;;;;;;;-0.63521224;-0.5124668;-0.019714957;;;;;831.0
991.0;877.3;;;;;;;;;;;;;;;;;-9.781182;13.91644;27.375103;;831.0
991.0;877.3;;;;;;;;;;;;;;-0.64192635;-0.5167394;-0.0055543687;;;;;831.0
1043.0;936.4;;;;;;;;;;;;;;;;;-7.992035;15.02655;27.817621;;840.7
1043.0;936.4;;;;;;;;;;;;;;-0.6616413;-0.51637316;0.0023194067;;;;;840.7
1043.0;936.4;;;;;;;;;;;;;;;;;-6.7293315;15.995514;28.164768;;840.7
1043.0;936.4;;;;;;;;;;;;;;-0.67293316;-0.50618;0.010254219;;;;;840.7
1043.0;936.4;;;;;;;;;;;;;;;;;-6.3135166;17.437513;28.286842;;850.3
1043.0;936.4;;;;;;;;;;;;;;-0.68599504;-0.4951323;0.012207404;;;;;850.3
1043.0;936.4;;;;;;;;;;;;;;;;;-6.469924;19.306772;28.191473;;850.3
1043.0;936.4;;;;;;;;;;;;;;-0.6915494;-0.47529528;0.010315256;;;;;850.3
1043.0;936.4;;;;;;;;;;;;;;;;;-7.133702;21.462143;27.905361;;859.9
1043.0;936.4;;;;;;;;;;;;;;-0.71498764;-0.45429853;0.0145268105;;;;;859.9
1043.0;936.4;;;;;;;;;;;;;;;;;-8.457442;23.720512;27.645954;;859.9
1043.0;936.4;;;;;;;;;;;;;;-0.72640157;-0.43873408;0.0126957;;;;;859.9
1043.0;937.3;;;;;;;;;;;;;;;;;-10.422071;26.356548;27.352215;;869.5
1043.0;937.3;;;;;;;;;;;;;;-0.7397687;-0.4232917;0.003601184;;;;;869.5
1043.0;937.3;;;;;;;;;;;;;;;;;-12.764366;28.798029;27.077549;;869.5
1043.0;937.3;;;;;;;;;;;;;;-0.760094;-0.40351573;-0.0080568865;;;;;869.5
1043.0;937.3;;;;;;;;;;;;;;;;;-15.430922;30.48036;26.779993;;879.1
1043.0;937.3;;;;;;;;;;;;;;-0.7709586;-0.39039278;-0.026795251;;;;;879.1
1043.0;937.3;;;;;;;;;;;;;;;;;-18.028809;31.918545;26.261177;;879.1
1043.0;937.3;;;;;;;;;;;;;;-0.78737754;-0.36890775;-0.045594655;;;;;879.1
1043.0;937.3;;;;;;;;;;;;;;;;;-20.638142;32.837917;26.085695;;888.8
1043.0;937.3;;;;;;;;;;;;;;-0.79635;-0.35242775;-0.06427198;;;;;888.8
1043.0;937.3;;;;;;;;;;;;;;;;;-23.041475;33.54366;26.1124;;888.8
1043.0;937.3;;;;;;;;;;;;;;-0.7988525;-0.3333842;-0.07751702;;;;;888.8
1099.0;996.8;;;;;;;;;;;;;;;;;-25.28077;34.543137;26.337475;;898.5
1099.0;996.8;;;;;;;;;;;;;;-0.8171636;-0.3177587;-0.091677606;;;;;898.5
1099.0;996.8;;;;;;;;;;;;;;;;;-27.49336;34.802544;26.970734;;898.5
1099.0;996.8;;;;;;;;;;;;;;-0.8153325;-0.31055635;-0.10034486;;;;;898.5
1099.0;996.8;;;;;;;;;;;;;;;;;-29.5114;34.535507;27.512436;;908.1
1099.0;996.8;;;;;;;;;;;;;;-0.8100833;-0.30024108;-0.104617454;;;;;908.1
1099.0;996.8;;;;;;;;;;;;;;;;;-31.51036;34.043396;28.366955;;908.1
1099.0;996.8;;;;;;;;;;;;;;-0.8179571;-0.30359814;-0.106387526;;;;;908.1
1099.0;996.8;;;;;;;;;;;;;;;;;-33.55129;32.99814;29.263435;;917.7
1099.0;996.8;;;;;;;;;;;;;;-0.8105106;-0.31073946;-0.10333567;;;;;917.7
1099.0;996.8;;;;;;;;;;;;;;;;;-35.07721;31.73925;30.217138;;917.7
1099.0;996.8;;;;;;;;;;;;;;-0.80324715;-0.32093266;-0.098391674;;;;;917.7
1099.0;998.0;;;;;;;;;;;;;;;;;-36.156803;30.648212;31.189917;;927.4
1099.0;998.0;;;;;;;;;;;;;;-0.79152805;-0.32618183;-0.09540086;;;;;927.4
1099.0;998.0;;;;;;;;;;;;;;;;;-36.9274;30.014954;32.14362;;927.4
1099.0;998.0;;;;;;;;;;;;;;-0.7851802;-0.33698538;-0.09088412;;;;;927.4
1099.0;998.0;;;;;;;;;;;;;;;;;-37.43477;29.671621;33.055363;;937.1
1099.0;998.0;;;;;;;;;;;;;;-0.768395;-0.35297707;-0.086794645;;;;;937.1
1099.0;998.0;;;;;;;;;;;;;;;;;-37.522507;29.995878;33.867916;;937.1
1099.0;998.0;;;;;;;;;;;;;;-0.7639393;-0.3640248;-0.07025361;;;;;937.1
1099.0;998.0;;;;;;;;;;;;;;;;;-37.598804;30.61388;34.535507;;946.7
1099.0;998.0;;;;;;;;;;;;;;-0.75307477;-0.3897824;-0.053163245;;;;;946.7
1099.0;998.0;;;;;;;;;;;;;;;;;-37.568287;31.52562;35.09247;;946.7
1099.0;998.0;;;;;;;;;;;;;;-0.74056214;-0.4136479;-0.041627247;;;;;946.7
1160.0;1057.2;;;;;;;;;;;;;;;;;-37.224953;32.700584;35.626545;;956.4
1160.0;1057.2;;;;;;;;;;;;;;-0.73427534;-0.440199;-0.029419843;;;;;956.4
1160.0;1057.2;;;;;;;;;;;;;;;;;-36.44673;34.115875;36.06143;;956.4
1160.0;1057.2;;;;;;;;;;;;;;-0.72725606;-0.46162298;-0.013855403;;;;;956.4
1160.0;1057.2;;;;;;;;;;;;;;;;;-35.06958;36.11484;36.633656;;966.0
1160.0;1057.2;;;;;;;;;;;;;;-0.73043;-0.4865871;0.009887997;;;;;966.0
1160.0;1057.2;;;;;;;;;;;;;;;;;-33.49025;38.342693;37.106693;;966.0
1160.0;1057.2;;;;;;;;;;;;;;-0.73195595;-0.5123447;0.03997925;;;;;966.0
1160.0;1057.2;;;;;;;;;;;;;;;;;-31.861324;40.330208;37.53777;;975.5
1160.0;1057.2;;;;;;;;;;;;;;-0.74831384;-0.5373089;0.061159093;;;;;975.5
1160.0;1057.2;;;;;;;;;;;;;;;;;-30.816065;40.91006;37.259285;;975.5
1160.0;1057.2;;;;;;;;;;;;;;-0.75948364;-0.553972;0.06500442;;;;;975.5
1160.0;1058.0;;;;;;;;;;;;;;;;;-30.777916;40.547653;36.450546;;985.2
1160.0;1058.0;;;;;;;;;;;;;;-0.7660146;-0.5658742;0.061769463;;;;;985.2
1160.0;1058.0;;;;;;;;;;;;;;;;;-31.586658;39.819023;35.031433;;985.2
1160.0;1058.0;;;;;;;;;;;;;;-0.7718741;-0.5800348;0.04504532;;;;;985.2
1160.0;1058.0;;;;;;;;;;;;;;;;;-33.08588;38.6784;32.929474;;994.8
1160.0;1058.0;;;;;;;;;;;;;;-0.77840513;-0.5879696;0.036378063;;;;;994.8
1160.0;1058.0;;;;;;;;;;;;;;;;;-35.12299;37.305065;30.453657;;994.8
1160.0;1058.0;;;;;;;;;;;;;;-0.7842647;-0.5989563;0.035340436;;;;;994.8
1160.0;1058.0;;;;;;;;;;;;;;;;;-37.19825;35.31373;27.489546;;1004.5
1160.0;1058.0;;;;;;;;;;;;;;-0.7912839;-0.6048769;0.035584584;;;;;1004.5
1160.0;1058.0;;;;;;;;;;;;;;;;;-38.953064;32.555622;24.502548;;1004.5
1160.0;1058.0;;;;;;;;;;;;;;-0.78719443;-0.6053041;0.033143103;;;;;1004.5
1162.0;1125.3;;;;;;;;;;;;;;;;;-40.677357;30.205694;21.263771;;1014.0
1162.0;1125.3;;;;;;;;;;;;;;-0.7685171;-0.60481584;0.024842067;;;;;1014.0
1162.0;1125.3;;;;;;;;;;;;;;;;;-42.76406;29.263435;18.063143;;1014.0
1162.0;1125.3;;;;;;;;;;;;;;-0.7405011;-0.6013367;0.006225776;;;;;1014.0
1162.0;1125.3;;;;;;;;;;;;;;;;;-43.805508;28.515732;15.125736;;1023.7
1162.0;1125.3;;;;;;;;;;;;;;-0.7190161;-0.59279156;0.0040284432;;;;;1023.7
1162.0;1125.3;;;;;;;;;;;;;;;;;-43.668175;27.535324;12.550736;;1023.7
1162.0;1125.3;;;;;;;;;;;;;;-0.68855864;-0.57869196;0.010925626;;;;;1023.7
1162.0;1125.3;;;;;;;;;;;;;;;;;-42.718285;27.34077;10.208442;;1033.4
1162.0;1125.3;;;;;;;;;;;;;;-0.66335034;-0.5647145;0.018311106;;;;;1033.4
1162.0;1125.3;;;;;;;;;;;;;;;;;-41.31443;26.81051;8.114109;;1033.4
1162.0;1125.3;;;;;;;;;;;;;;-0.63557845;-0.5373699;0.04547258;;;;;1033.4
1165.0;1126.3;;;;;;;;;;;;;;;;;-39.559616;27.378918;6.6835537;;1043.1
1165.0;1126.3;;;;;;;;;;;;;;-0.6056093;-0.5098422;0.023316141;;;;;1043.1
1165.0;1126.3;;;;;;;;;;;;;;;;;-36.96173;28.736992;5.836665;;1043.1
1165.0;1126.3;;;;;;;;;;;;;;-0.5993225;-0.47578356;-0.013489181;;;;;1043.1
1165.0;1126.3;;;;;;;;;;;;;;;;;-33.104954;29.587696;5.726035;;1052.7
1165.0;1126.3;;;;;;;;;;;;;;-0.5889462;-0.42872402;-0.026978362;;;;;1052.7
1165.0;1126.3;;;;;;;;;;;;;;;;;-27.974028;30.552843;6.6034427;;1052.7
1165.0;1126.3;;;;;;;;;;;;;;-0.61146885;-0.3864864;-0.024475845;;;;;1052.7
1165.0;1126.3;;;;;;;;;;;;;;;;;-22.190771;29.473251;7.9081087;;1062.4
1165.0;1126.3;;;;;;;;;;;;;;-0.6534013;-0.35200047;0.017761772;;;;;1062.4
1165.0;1126.3;;;;;;;;;;;;;;;;;-14.213996;27.428509;10.0177;;1062.4
1165.0;1126.3;;;;;;;;;;;;;;-0.737083;-0.29602954;0.15192114;;;;;1062.4
1165.0;1128.8;;;;0.0;0.0;0.0;;;;;;;;;;;;;;;
1165.0;1128.8;;;;-0.16081621;-0.03993607;0.0016326907;;;;;;;;;;;;;;;
1165.0;1128.8;;;;-0.78418744;-0.32312015;-0.19042209;;;;;;;;;;;;;;;
1165.0;1128.8;;;;-0.8886262;-0.37443545;-0.24311069;;;;;;;;;;;;;;;
1165.0;1128.8;;;;-0.9163896;-0.37754065;-0.2557259;;;;;;;;;;;;;;;
1165.0;1138.8;;;;-0.9457017;-0.3809319;-0.27014163;;;;;;;;;;;;;;;
1165.0;1138.8;;;;-0.9764329;-0.3836518;-0.2891045;;;;;;;;;;;;;;;
1165.0;1138.8;;;;-1.0100671;-0.38503653;-0.3072739;;;;;;;;;;;;;;;
1165.0;1138.8;;;;-1.0467607;-0.38436133;-0.32515338;;;;;;;;;;;;;;;
1165.0;1138.8;;;;-1.0856019;-0.38183218;-0.34752277;;;;;;;;;;;;;;;
1216.0;1140.1;57502;57489;13007;;;;;;;;;;;;;;;;;;
1216.0;1148.8;;;;-1.1283113;-0.37623602;-0.37106326;;;;;;;;;;;;;;;
1216.0;1148.8;;;;-1.1745454;-0.3682938;-0.3941155;;;;;;;;;;;;;;;
1216.0;1148.8;;;;-1.2198449;-0.35868075;-0.41636664;;;;;;;;;;;;;;;
1216.0;1148.8;;;;-1.2608224;-0.34927753;-0.43815237;;;;;;;;;;;;;;;
1216.0;1148.8;;;;-1.2944146;-0.33871844;-0.45637518;;;;;;;;;;;;;;;
1216.0;1158.8;;;;-1.3208429;-0.3270531;-0.47310263;;;;;;;;;;;;;;;
1216.0;1158.8;;;;-1.3431932;-0.31520846;-0.4873429;;;;;;;;;;;;;;;
1216.0;1158.8;;;;-1.3620187;-0.30418018;-0.49860388;;;;;;;;;;;;;;;
1216.0;1158.8;;;;-1.3785516;-0.29413608;-0.5082055;;;;;;;;;;;;;;;
1216.0;1158.8;;;;-1.3923227;-0.285759;-0.51575094;;;;;;;;;;;;;;;
1216.0;1160.2;73821;73861;13001;;;;;;;;;;;;;;;;;;
1216.0;1166.6;;;;;;;;;;;;;0;;;;;;;;
1216.0;1166.6;;;;;;;;;;;;;0;;;;;;;;
1216.0;1166.6;;;;;;;;;;;;;-1;;;;;;;;
1216.0;1166.6;;;;;;;;;;;;;-2;;;;;;;;
1216.0;1166.6;;;;;;;;;;;;;-3;;;;;;;;
1216.0;1169.0;;;;-1.4045221;-0.27886584;-0.52045447;;;;;;;;;;;;;;;
1216.0;1169.0;;;;-1.4153672;-0.27334598;-0.5249253;;;;;;;;;;;;;;;
1216.0;1169.0;;;;-1.4244043;-0.26866534;-0.5288659;;;;;;;;;;;;;;;
1216.0;1169.0;;;;-1.4309694;-0.2647629;-0.5311814;;;;;;;;;;;;;;;
1216.0;1169.0;;;;-1.4341012;-0.26201633;-0.53262717;;;;;;;;;;;;;;;
1233.0;1179.1;;;;-1.4323846;-0.25994113;-0.5323449;;;;;;;;;;;;;;;
1233.0;1179.1;;;;-1.425789;-0.2565842;-0.53168494;;;;;;;;;;;;;;;
1233.0;1179.1;;;;-1.4144517;-0.2529755;-0.5303803;;;;;;;;;;;;;;;
1233.0;1179.1;;;;-1.3998262;-0.2480965;-0.52852637;;;;;;;;;;;;;;;
1233.0;1179.1;;;;-1.3837396;-0.24299625;-0.525425;;;;;;;;;;;;;;;
1233.0;1180.5;90317;90303;13003;;;;;;;;;;;;;;;;;;
1233.0;1185.5;;;;;;;;;;;;;;;;;-3.7270732;27.363659;13.973662;;1072.0
1233.0;1185.5;;;;;;;;;;;;;;-0.88912624;-0.2273629;0.22125919;;;;;1072.0
1233.0;1185.5;;;;;;;;;;;;;;;;;7.4083686;33.368176;20.596178;;1072.0
1233.0;1185.5;;;;;;;;;;;;;;-1.0715048;-0.2283395;-0.048585467;;;;;1072.0
1233.0;1185.5;;;;;;;;;;;;;;;;;16.159552;50.55391;30.823694;;1081.6
1233.0;1185.5;;;;;;;;;;;;;;-1.4342479;-0.2896817;-0.5086825;;;;;1081.6
1233.0;1185.5;;;;;;;;;;;;;;;;;19.299143;61.68172;40.261543;;1081.6
1233.0;1185.5;;;;;;;;;;;;;;-1.9399396;-0.39106417;-0.62318796;;;;;1081.6
1233.0;1185.5;;;;;;;;;;;;;;;;;16.159552;48.01706;38.510544;;1091.3
1233.0;1185.5;;;;;;;;;;;;;;-1.9998169;-0.43720818;-0.39710686;;;;;1091.3
1233.0;1185.5;;;;;;;;;;;;;;;;;6.6072574;23.789179;29.232918;;1091.3
1233.0;1185.5;;;;;;;;;;;;;;-1.9998169;-0.47871333;-0.049745172;;;;;1091.3
1236.0;1186.2;;;;;;;;;;;;;;;;;-10.6814785;11.474959;16.357922;;1100.9
1236.0;1186.2;;;;;;;;;;;;;;-1.9678946;-0.47853023;-0.08160649;;;;;1100.9
1236.0;1186.2;;;;;;;;;;;;;;;;;-21.694845;11.799219;3.3875546;;1100.9
1236.0;1186.2;;;;;;;;;;;;;;-1.8001038;-0.41529587;0.013672292;;;;;1100.9
1236.0;1186.2;;;;;;;;;;;;;;;;;-28.626362;15.430922;-7.7517014;;1110.5
1236.0;1186.2;;;;;;;;;;;;;;-1.355327;-0.35157323;-0.1314127;;;;;1110.5
1236.0;1186.2;;;;;;;;;;;;;;;;;-26.53203;18.471329;-11.169774;;1110.5
1236.0;1186.2;;;;;;;;;;;;;;-1.1267433;-0.24726096;-0.4365978;;;;;1110.5
1236.0;1186.2;;;;;;;;;;;;;;;;;-10.6814785;8.0835905;-9.128849;;1120.2
1236.0;1186.2;;;;;;;;;;;;;;-1.025422;-0.052308727;-0.5047151;;;;;1120.2
1236.0;1186.2;;;;;;;;;;;;;;;;;21.393476;-4.837184;-3.0785549;;1120.2
1236.0;1186.2;;;;;;;;;;;;;;-1.0670491;0.072328866;-0.10449538;;;;;1120.2
1236.0;1188.9;;;;-1.3671037;-0.23807147;-0.5214539;;;;;;;;;;;;;;;
1236.0;1188.9;;;;-1.3490335;-0.23459628;-0.5161362;;;;;;;;;;;;;;;
1236.0;1188.9;;;;-1.3312684;-0.23403934;-0.5101891;;;;;;;;;;;;;;;
1236.0;1188.9;;;;-1.3144647;-0.23511127;-0.5040322;;;;;;;;;;;;;;;
1236.0;1188.9;;;;-1.2997934;-0.23593524;-0.49910742;;;;;;;;;;;;;;;
1236.0;1198.9;;;;-1.2878381;-0.23682788;-0.49575812;;;;;;;;;;;;;;;
1236.0;1198.9;;;;-1.2778589;-0.23854831;-0.4912148;;;;;;;;;;;;;;;
1236.0;1198.9;;;;-1.2687227;-0.24093631;-0.4864121;;;;;;;;;;;;;;;
1236.0;1198.9;;;;-1.259327;-0.24440768;-0.4852143;;;;;;;;;;;;;;;
1236.0;1198.9;;;;-1.248932;-0.24798205;-0.48777777;;;;;;;;;;;;;;;
1236.0;1200.4;106636;106632;12998;;;;;;;;;;;;;;;;;;
1277.0;1206.7;;;;;;;;;;;;;-6;;;;;;;;
1277.0;1206.7;;;;;;;;;;;;;-6;;;;;;;;
1277.0;1206.7;;;;;;;;;;;;;-9;;;;;;;;
1277.0;1206.7;;;;;;;;;;;;;-15;;;;;;;;
1277.0;1206.7;;;;;;;;;;;;;-11;;;;;;;;
1277.0;1208.9;;;;-1.236416;-0.25122455;-0.49023443;;;;;;;;;;;;;;;
1277.0;1208.9;;;;-1.2222825;-0.2538834;-0.49138266;;;;;;;;;;;;;;;
1277.0;1208.9;;;;-1.2090989;-0.2561951;-0.4930001;;;;;;;;;;;;;;;
1277.0;1208.9;;;;-1.1998445;-0.25795367;-0.49579626;;;;;;;;;;;;;;;
1277.0;1208.9;;;;-1.1968957;-0.25897983;-0.4979897;;;;;;;;;;;;;;;
1277.0;1218.9;;;;-1.2024843;-0.25915912;-0.49943548;;;;;;;;;;;;;;;
1277.0;1218.9;;;;-1.2134286;-0.25897983;-0.5000649;;;;;;;;;;;;;;;
1277.0;1218.9;;;;-1.2276803;-0.25812533;-0.50082403;;;;;;;;;;;;;;;
1277.0;1218.9;;;;-1.2418901;-0.2560425;-0.50163656;;;;;;;;;;;;;;;
1277.0;1218.9;;;;-1.2529985;-0.25372317;-0.502472;;;;;;;;;;;;;;;
1277.0;1220.4;123047;123122;12999;;;;;;;;;;;;;;;;;;
1277.0;1229.0;;;;-1.2592317;-0.25070575;-0.5014687;;;;;;;;;;;;;;;
1277.0;1229.0;;;;-1.2581178;-0.2465134;-0.4998818;;;;;;;;;;;;;;;
1277.0;1229.0;;;;-1.2486955;-0.24235919;-0.4949723;;;;;;;;;;;;;;;
1277.0;1229.0;;;;-1.2362329;-0.23738864;-0.493908;;;;;;;;;;;;;;;
1277.0;1229.0;;;;-1.2251245;-0.23162845;-0.49174887;;;;;;;;;;;;;;;
1283.0;1238.1;;;;;;;;;;;;;;;;;36.118656;-12.192145;-2.9602954;;1129.8
1283.0;1238.1;;;;;;;;;;;;;;-1.1216773;0.13580737;0.3442488;;;;;1129.8
1283.0;1238.1;;;;;;;;;;;;;;;;;2.7542956;-16.945402;-15.55681;;1129.8
1283.0;1238.1;;;;;;;;;;;;;;-0.9879452;-0.026795251;0.1848201;;;;;1129.8
1283.0;1238.1;;;;;;;;;;;;;;;;;-35.710472;-19.150366;-31.807919;;1139.5
1283.0;1238.1;;;;;;;;;;;;;;-0.77266765;-0.17126988;-0.17950988;;;;;1139.5
1283.0;1238.1;;;;;;;;;;;;;;;;;-56.485947;-9.426405;-44.377728;;1139.5
1283.0;1238.1;;;;;;;;;;;;;;-0.64766383;-0.15619373;-0.6027406;;;;;1139.5
1283.0;1238.1;;;;;;;;;;;;;;;;;-53.159428;3.0709252;-45.94943;;1149.1
1283.0;1238.1;;;;;;;;;;;;;;-0.9746391;-0.034546953;-0.7037568;;;;;1149.1
1283.0;1238.1;;;;;;;;;;;;;;;;;-35.49684;-1.0185553;-43.09595;;1149.1
1283.0;1238.1;;;;;;;;;;;;;;-1.1737418;0.11255226;-0.5996887;;;;;1149.1
1283.0;1238.8;;;;;;;;;;;;;;;;;-19.981993;-4.3450727;-40.601063;;1158.6
1283.0;1238.8;;;;;;;;;;;;;;-1.2328258;0.06378368;-0.45924252;;;;;1158.6
1283.0;1238.8;;;;;;;;;;;;;;;;;-18.139439;3.4066288;-38.613544;;1158.6
1283.0;1238.8;;;;;;;;;;;;;;-1.3209021;-0.10547197;-0.35193944;;;;;1158.6
1283.0;1238.8;;;;;;;;;;;;;;;;;-26.20014;10.757775;-35.035248;;1168.2
1283.0;1238.8;;;;;;;;;;;;;;-1.3970153;-0.36512345;-0.46113467;;;;;1168.2
1283.0;1238.8;;;;;;;;;;;;;;;;;-33.337658;11.482589;-29.923399;;1168.2
1283.0;1238.8;;;;;;;;;;;;;;-1.4712363;-0.63185525;-0.60731834;;;;;1168.2
1283.0;1238.8;;;;;;;;;;;;;;;;;-34.939877;5.6955166;-24.731438;;1177.9
1283.0;1238.8;;;;;;;;;;;;;;-1.5395367;-0.8348643;-0.68434703;;;;;1177.9
1283.0;1238.8;;;;;;;;;;;;;;;;;-27.100437;-4.2191844;-21.202734;;1177.9
1283.0;1238.8;;;;;;;;;;;;;;-1.5261697;-1.0069888;-0.6705527;;;;;1177.9
1338.0;1238.9;;;;-1.2164651;-0.22599414;-0.48922354;;;;;;;;;;;;;;;
1338.0;1238.9;;;;-1.2070886;-0.2204552;-0.4866181;;;;;;;;;;;;;;;
1338.0;1238.9;;;;-1.1967126;-0.21608356;-0.48404318;;;;;;;;;;;;;;;
1338.0;1238.9;;;;-1.1874772;-0.21271518;-0.48196036;;;;;;;;;;;;;;;
1338.0;1238.9;;;;-1.1806718;-0.20964053;-0.47851568;;;;;;;;;;;;;;;
1338.0;1240.5;139392;139391;13000;;;;;;;;;;;;;;;;;;
1338.0;1246.8;;;;;;;;;;;;;-26;;;;;;;;
1338.0;1246.8;;;;;;;;;;;;;-18;;;;;;;;
1338.0;1246.8;;;;;;;;;;;;;-13;;;;;;;;
1338.0;1246.8;;;;;;;;;;;;;-73;;;;;;;;
1338.0;1246.8;;;;;;;;;;;;;14;;;;;;;;
1338.0;1249.0;;;;-1.1734849;-0.2067757;-0.47564322;;;;;;;;;;;;;;;
1338.0;1249.0;;;;-1.1652871;-0.20511249;-0.4713784;;;;;;;;;;;;;;;
1338.0;1249.0;;;;-1.1550065;-0.20432666;-0.46662527;;;;;;;;;;;;;;;
1338.0;1249.0;;;;-1.1446725;-0.20363238;-0.46171957;;;;;;;;;;;;;;;
1338.0;1249.0;;;;-1.1342927;-0.20331958;-0.45720297;;;;;;;;;;;;;;;
1338.0;1259.0;;;;-1.1251718;-0.20273593;-0.4506722;;;;;;;;;;;;;;;
1338.0;1259.0;;;;-1.116707;-0.20153812;-0.44427878;;;;;;;;;;;;;;;
1338.0;1259.0;;;;-1.1072961;-0.20082858;-0.43885046;;;;;;;;;;;;;;;
1338.0;1259.0;;;;-1.0974923;-0.20020297;-0.43449408;;;;;;;;;;;;;;;
1338.0;1259.0;;;;-1.0894891;-0.1993523;-0.43070608;;;;;;;;;;;;;;;
1338.0;1260.6;155803;155789;12997;;;;;;;;;;;;;;;;;;
1341.0;1268.9;;;;-1.0843354;-0.1982651;-0.4291535;;;;;;;;;;;;;;;
1341.0;1268.9;;;;-1.0822107;-0.1980553;-0.43014532;;;;;;;;;;;;;;;
1341.0;1268.9;;;;-1.0814401;-0.19863895;-0.43251806;;;;;;;;;;;;;;;
1341.0;1268.9;;;;-1.081627;-0.19992068;-0.4366303;;;;;;;;;;;;;;;
1341.0;1268.9;;;;-1.0815698;-0.20192721;-0.44123083;;;;;;;;;;;;;;;
1341.0;1279.1;;;;-1.0817109;-0.20341495;-0.44605643;;;;;;;;;;;;;;;
1341.0;1279.1;;;;-1.0840684;-0.20554736;-0.45108038;;;;;;;;;;;;;;;
1341.0;1279.1;;;;-1.0907212;-0.20735934;-0.45620733;;;;;;;;;;;;;;;
1341.0;1279.1;;;;-1.0999223;-0.2084122;-0.46103293;;;;;;;;;;;;;;;
1341.0;1279.1;;;;-1.1068116;-0.20935825;-0.46472937;;;;;;;;;;;;;;;
1341.0;1280.7;172208;172186;12994;;;;;;;;;;;;;;;;;;
1341.0;1287.1;;;;;;;;;;;;;146;;;;;;;;
1341.0;1287.1;;;;;;;;;;;;;-132;;;;;;;;
1341.0;1287.1;;;;;;;;;;;;;-414;;;;;;;;
1341.0;1287.1;;;;;;;;;;;;;326;;;;;;;;
1341.0;1287.1;;;;;;;;;;;;;2066;;;;;;;;
1341.0;1289.2;;;;-1.1096536;-0.21075061;-0.4675179;;;;;;;;;;;;;;;
1341.0;1289.2;;;;-1.1095506;-0.21253589;-0.46879965;;;;;;;;;;;;;;;
1341.0;1289.2;;;;-1.1091424;-0.21384433;-0.47027975;;;;;;;;;;;;;;;
1341.0;1289.2;;;;-1.1083528;-0.21478656;-0.47136313;;;;;;;;;;;;;;;
1341.0;1289.2;;;;-1.106537;-0.21570209;-0.47145087;;;;;;;;;;;;;;;
1346.0;1298.8;;;;;;;;;;;;;;;;;-10.23133;-12.504959;-19.020662;;1187.5
1346.0;1298.8;;;;;;;;;;;;;;-1.3608813;-1.1192969;-0.6669515;;;;;1187.5
1346.0;1298.8;;;;;;;;;;;;;;;;;11.387218;-13.847774;-15.758995;;1187.5
1346.0;1298.8;;;;;;;;;;;;;;-1.2643209;-1.1561022;-0.56160164;;;;;1187.5
1346.0;1298.8;;;;;;;;;;;;;;;;;28.126621;-11.577959;-14.332255;;1197.2
1346.0;1298.8;;;;;;;;;;;;;;-1.1912595;-1.0813318;-0.49421674;;;;;1197.2
1346.0;1298.8;;;;;;;;;;;;;;;;;38.842434;-6.733146;-14.95407;;1197.2
1346.0;1298.8;;;;;;;;;;;;;;-1.1533555;-0.95492417;-0.4231086;;;;;1197.2
1346.0;1298.8;;;;;;;;;;;;;;;;;44.63332;-3.456221;-16.869106;;1206.8
1346.0;1298.8;;;;;;;;;;;;;;-1.0896329;-0.78609574;-0.3902707;;;;;1206.8
1346.0;1298.8;;;;;;;;;;;;;;;;;48.23069;-1.2245551;-15.949736;;1206.8
1346.0;1298.8;;;;;;;;;;;;;;-1.0873134;-0.5085604;-0.43897825;;;;;1206.8
1346.0;1299.3;;;;-1.1043512;-0.21666339;-0.47160345;;;;;;;;;;;;;;;
1346.0;1299.3;;;;-1.1044885;-0.21797946;-0.47193915;;;;;;;;;;;;;;;
1346.0;1299.3;;;;-1.105919;-0.21939471;-0.46807486;;;;;;;;;;;;;;;
1346.0;1299.3;;;;-1.1044542;-0.22159198;-0.45717245;;;;;;;;;;;;;;;
1346.0;1299.3;;;;-1.0984384;-0.22331622;-0.45280463;;;;;;;;;;;;;;;
1347.0;1299.5;;;;;;;;;;;;;;;;;50.45091;0.88503677;-11.757256;;1216.4
1347.0;1299.5;;;;;;;;;;;;;;-1.1540269;-0.2849208;-0.5285806;;;;;1216.4
1347.0;1299.5;;;;;;;;;;;;;;;;;50.55391;0.13733329;-8.224739;;1216.4
1347.0;1299.5;;;;;;;;;;;;;;-1.1190526;-0.124210335;-0.63362527;;;;;1216.4
1347.0;1299.5;;;;;;;;;;;;;;;;;49.37132;0.6218146;-5.1919613;;1226.0
1347.0;1299.5;;;;;;;;;;;;;;-1.0774255;-0.0040284432;-0.6848964;;;;;1226.0
1347.0;1299.5;;;;;;;;;;;;;;;;;48.211617;2.437666;-2.0256662;;1226.0
1347.0;1299.5;;;;;;;;;;;;;;-1.0905484;0.04358043;-0.65627;;;;;1226.0
1347.0;1299.5;;;;;;;;;;;;;;;;;46.609394;1.9798884;1.2932218;;1235.7
1347.0;1299.5;;;;;;;;;;;;;;-1.1004975;0.0634785;-0.6269112;;;;;1235.7
1347.0;1299.5;;;;;;;;;;;;;;;;;43.675804;0.74007386;6.088443;;1235.7
1347.0;1299.5;;;;;;;;;;;;;;-1.0901822;0.07238991;-0.6324656;;;;;1235.7
1347.0;1300.8;188531;188597;12984;;;;;;;;;;;;;;;;;;
1347.0;1309.2;;;;-1.089451;-0.22402194;-0.45082098;;;;;;;;;;;;;;;
1347.0;1309.2;;;;-1.0837632;-0.22422794;-0.44805533;;;;;;;;;;;;;;;
1347.0;1309.2;;;;-1.080124;-0.22552112;-0.44895178;;;;;;;;;;;;;;;
1347.0;1309.2;;;;-1.0803987;-0.22691348;-0.45049673;;;;;;;;;;;;;;;
1347.0;1309.2;;;;-1.0832521;-0.22908404;-0.4490891;;;;;;;;;;;;;;;
1348.0;1313.3;;;;;;;;;;;;;;;;;38.430435;1.4801477;11.616108;;1245.4
1348.0;1313.3;;;;;;;;;;;;;;-1.0914639;0.059083834;-0.6259346;;;;;1245.4
1348.0;1313.3;;;;;;;;;;;;;;;;;30.941954;3.9979248;15.663626;;1245.4
1348.0;1313.3;;;;;;;;;;;;;;-1.1044649;0.01904355;-0.5603809;;;;;1245.4
1348.0;1313.3;;;;;;;;;;;;;;;;;21.114994;7.1794796;18.498032;;1255.0
1348.0;1313.3;;;;;;;;;;;;;;-1.1307718;-0.020447401;-0.49073765;;;;;1255.0
1348.0;1313.3;;;;;;;;;;;;;;;;;10.692923;9.712516;20.935698;;1255.0
1348.0;1313.3;;;;;;;;;;;;;;-1.1576891;-0.036133915;-0.45277262;;;;;1255.0
1348.0;1313.3;;;;;;;;;;;;;;;;;0.28611103;10.677664;23.010956;;1264.6
1348.0;1313.3;;;;;;;;;;;;;;-1.1561632;-0.05511643;-0.43714714;;;;;1264.6
1348.0;1313.3;;;;;;;;;;;;;;;;;-8.663442;11.154515;24.872585;;1264.6
1348.0;1313.3;;;;;;;;;;;;;;-1.1454207;-0.081118196;-0.40687278;;;;;1264.6
1348.0;1319.0;;;;-1.0876619;-0.23232272;-0.4441567;;;;;;;;;;;;;;;
1348.0;1319.0;;;;-1.0922204;-0.2364426;-0.43932348;;;;;;;;;;;;;;;
1348.0;1319.0;;;;-1.0958062;-0.24079898;-0.43170935;;;;;;;;;;;;;;;
1348.0;1319.0;;;;-1.1002084;-0.24660495;-0.4293595;;;;;;;;;;;;;;;
1348.0;1319.0;;;;-1.1052667;-0.252533;-0.42913443;;;;;;;;;;;;;;;
1348.0;1320.8;204922;204936;12979;;;;;;;;;;;;;;;;;;
1348.0;1327.1;;;;;;;;;;;;;3425;;;;;;;;
1348.0;1327.1;;;;;;;;;;;;;3452;;;;;;;;
1348.0;1327.1;;;;;;;;;;;;;2630;;;;;;;;
1348.0;1327.1;;;;;;;;;;;;;2058;;;;;;;;
1348.0;1327.1;;;;;;;;;;;;;2025;;;;;;;;
1398.0;1329.0;;;;-1.1085626;-0.25900272;-0.42603308;;;;;;;;;;;;;;;
1398.0;1329.0;;;;-1.1077348;-0.26597598;-0.42235953;;;;;;;;;;;;;;;
1398.0;1329.0;;;;-1.1033326;-0.2722321;-0.41855246;;;;;;;;;;;;;;;
1398.0;1329.0;;;;-1.095955;-0.27844623;-0.4139443;;;;;;;;;;;;;;;
1398.0;1329.0;;;;-1.0861245;-0.2848206;-0.4080239;;;;;;;;;;;;;;;
1398.0;1338.9;;;;-1.0740892;-0.2907143;-0.40164953;;;;;;;;;;;;;;;
1398.0;1338.9;;;;-1.0620462;-0.29576495;-0.39816672;;;;;;;;;;;;;;;
1398.0;1338.9;;;;-1.048752;-0.2994385;-0.39324576;;;;;;;;;;;;;;;
1398.0;1338.9;;;;-1.0365945;-0.30300525;-0.38811117;;;;;;;;;;;;;;;
1398.0;1338.9;;;;-1.0275575;-0.3060532;-0.38433462;;;;;;;;;;;;;;;
1398.0;1340.7;221374;221357;12966;;;;;;;;;;;;;;;;;;
1398.0;1349.0;;;;-1.0214921;-0.30987933;-0.38068014;;;;;;;;;;;;;;;
1398.0;1349.0;;;;-1.0167123;-0.3137894;-0.376957;;;;;;;;;;;;;;;
1398.0;1349.0;;;;-1.0122987;-0.3179932;-0.37469867;;;;;;;;;;;;;;;
1398.0;1349.0;;;;-1.0081865;-0.3217812;-0.37269595;;;;;;;;;;;;;;;
1398.0;1349.0;;;;-1.0032731;-0.32535937;-0.37070468;;;;;;;;;;;;;;;
1399.0;1358.2;;;;;;;;;;;;;;;;;-15.106662;11.1507;27.001251;;1274.3
1399.0;1358.2;;;;;;;;;;;;;;-1.129368;-0.09912412;-0.36896878;;;;;1274.3
1399.0;1358.2;;;;;;;;;;;;;;;;;-18.829922;10.727257;29.06888;;1274.3
1399.0;1358.2;;;;;;;;;;;;;;-1.1086764;-0.110415965;-0.32007813;;;;;1274.3
1399.0;1358.2;;;;;;;;;;;;;;;;;-21.664328;10.784478;30.808435;;1284.0
1399.0;1358.2;;;;;;;;;;;;;;-1.0888394;-0.13544114;-0.30103457;;;;;1284.0
1399.0;1358.2;;;;;;;;;;;;;;;;;-24.521624;11.623737;32.170326;;1284.0
1399.0;1358.2;;;;;;;;;;;;;;-1.0922575;-0.1650441;-0.29438153;;;;;1284.0
1399.0;1358.2;;;;;;;;;;;;;;;;;-27.478102;12.215034;33.03629;;1293.7
1399.0;1358.2;;;;;;;;;;;;;;-1.0956755;-0.19403668;-0.30164495;;;;;1293.7
1399.0;1358.2;;;;;;;;;;;;;;;;;-28.95825;11.997589;33.429214;;1293.7
1399.0;1358.2;;;;;;;;;;;;;;-1.0845058;-0.2327952;-0.32618183;;;;;1293.7
1399.0;1358.9;;;;-0.99762356;-0.3285294;-0.36849216;;;;;;;;;;;;;;;
1399.0;1358.9;;;;-0.9919473;-0.33187106;-0.36636737;;;;;;;;;;;;;;;
1399.0;1358.9;;;;-0.986107;-0.33452228;-0.3648148;;;;;;;;;;;;;;;
1399.0;1358.9;;;;-0.97994626;-0.33692935;-0.36323932;;;;;;;;;;;;;;;
1399.0;1358.9;;;;-0.9738885;-0.33945087;-0.36030582;;;;;;;;;;;;;;;
1399.0;1360.8;237714;237761;12970;;;;;;;;;;;;;;;;;;
1399.0;1367.0;;;;;;;;;;;;;1809;;;;;;;;
1399.0;1367.0;;;;;;;;;;;;;1099;;;;;;;;
1399.0;1367.0;;;;;;;;;;;;;209;;;;;;;;
1399.0;1367.0;;;;;;;;;;;;;-737;;;;;;;;
1399.0;1367.0;;;;;;;;;;;;;-1708;;;;;;;;
1457.0;1369.0;;;;-0.9673692;-0.3415604;-0.35776904;;;;;;;;;;;;;;;
1457.0;1369.0;;;;-0.9606401;-0.34372714;-0.35585788;;;;;;;;;;;;;;;
1457.0;1369.0;;;;-0.9536439;-0.3465424;-0.35395434;;;;;;;;;;;;;;;
1457.0;1369.0;;;;-0.9471284;-0.34856418;-0.35125735;;;;;;;;;;;;;;;
1457.0;1369.0;;;;-0.9398576;-0.35104755;-0.34923938;;;;;;;;;;;;;;;
1457.0;1373.6;;;;;;;;;;;;;;;;;-28.889584;11.803034;33.5284;;1303.3
1457.0;1373.6;;;;;;;;;;;;;;-1.0741905;-0.26612142;-0.3317362;;;;;1303.3
1457.0;1373.6;;;;;;;;;;;;;;;;;-28.324991;12.173071;33.09351;;1303.3
1457.0;1373.6;;;;;;;;;;;;;;-1.0660115;-0.28699607;-0.3108005;;;;;1303.3
1457.0;1373.6;;;;;;;;;;;;;;;;;-27.962584;12.878811;32.242805;;1313.0
1457.0;1373.6;;;;;;;;;;;;;;-1.0489823;-0.2927946;-0.3063448;;;;;1313.0
1457.0;1373.6;;;;;;;;;;;;;;;;;-27.619251;13.698996;31.548508;;1313.0
1457.0;1373.6;;;;;;;;;;;;;;-1.0374463;-0.3068331;-0.29889828;;;;;1313.0
1457.0;1373.6;;;;;;;;;;;;;;;;;-27.94351;14.458144;31.044954;;1322.7
1457.0;1373.6;;;;;;;;;;;;;;-1.0169988;-0.3208106;-0.29963073;;;;;1322.7
1457.0;1373.6;;;;;;;;;;;;;;;;;-28.302103;15.163884;30.808435;;1322.7
1457.0;1373.6;;;;;;;;;;;;;;-1.0016785;-0.31562242;-0.29407635;;;;;1322.7
1457.0;1378.9;;;;-0.93185437;-0.3536072;-0.34796146;;;;;;;;;;;;;;;
1457.0;1378.9;;;;-0.92585766;-0.3565369;-0.34795383;;;;;;;;;;;;;;;
1457.0;1378.9;;;;-0.9220735;-0.35867694;-0.34816745;;;;;;;;;;;;;;;
1457.0;1378.9;;;;-0.9202882;-0.3613167;-0.34892657;;;;;;;;;;;;;;;
1457.0;1378.9;;;;-0.9181367;-0.36410907;-0.3509598;;;;;;;;;;;;;;;
1457.0;1380.8;254080;254092;12966;;;;;;;;;;;;;;;;;;
1459.0;1388.7;;;;-0.91433346;-0.3662491;-0.35402682;;;;;;;;;;;;;;;
1459.0;1388.7;;;;-0.9096185;-0.36795047;-0.3573418;;;;;;;;;;;;;;;
1459.0;1388.7;;;;-0.9046098;-0.36872867;-0.3603554;;;;;;;;;;;;;;;
1459.0;1388.7;;;;-0.89844906;-0.36946872;-0.3627434;;;;;;;;;;;;;;;
1459.0;1388.7;;;;-0.8912927;-0.37012103;-0.36579135;;;;;;;;;;;;;;;
1459.0;1398.7;;;;-0.8850366;-0.37066653;-0.36879352;;;;;;;;;;;;;;;
1459.0;1398.7;;;;-0.8799058;-0.37126544;-0.3714142;;;;;;;;;;;;;;;
1459.0;1398.7;;;;-0.87529767;-0.37118915;-0.3743706;;;;;;;;;;;;;;;
1459.0;1398.7;;;;-0.87189496;-0.37106326;-0.3770104;;;;;;;;;;;;;;;
1459.0;1398.7;;;;-0.8684083;-0.37113574;-0.37889105;;;;;;;;;;;;;;;
1459.0;1400.8;262143;262143;12961;;;;;;;;;;;;;;;;;;
1459.0;1407.0;;;;;;;;;;;;;-2726;;;;;;;;
1459.0;1407.0;;;;;;;;;;;;;-3791;;;;;;;;
1459.0;1407.0;;;;;;;;;;;;;-4709;;;;;;;;
1459.0;1407.0;;;;;;;;;;;;;-5304;;;;;;;;
1459.0;1407.0;;;;;;;;;;;;;-5429;;;;;;;;
1459.0;1408.9;;;;-0.86465466;-0.3712845;-0.38223273;;;;;;;;;;;;;;;
1459.0;1408.9;;;;-0.86299527;-0.3715668;-0.38592535;;;;;;;;;;;;;;;
1459.0;1408.9;;;;-0.8625909;-0.37153247;-0.3879853;;;;;;;;;;;;;;;
1459.0;1408.9;;;;-0.86182034;-0.37184146;-0.39109427;;;;;;;;;;;;;;;
1459.0;1408.9;;;;-0.8606225;-0.37210467;-0.39558798;;;;;;;;;;;;;;;
1461.0;1418.3;;;;;;;;;;;;;;;;;-28.386028;15.308847;30.957212;;1332.4
1461.0;1418.3;;;;;;;;;;;;;;-0.9846492;-0.29773858;-0.28351694;;;;;1332.4
1461.0;1418.3;;;;;;;;;;;;;;;;;-28.550066;15.263069;31.094545;;1332.4
1461.0;1418.3;;;;;;;;;;;;;;-0.97036654;-0.27295756;-0.26868495;;;;;1332.4
1461.0;1418.3;;;;;;;;;;;;;;;;;-28.927732;14.767144;31.21662;;1341.9
1461.0;1418.3;;;;;;;;;;;;;;-0.9425337;-0.2639851;-0.2578814;;;;;1341.9
1461.0;1418.3;;;;;;;;;;;;;;;;;-29.450363;14.118626;31.491287;;1341.9
1461.0;1418.3;;;;;;;;;;;;;;-0.92641985;-0.25739312;-0.25263223;;;;;1341.9
1461.0;1418.3;;;;;;;;;;;;;;;;;-29.847103;12.8711815;31.743065;;1351.6
1461.0;1418.3;;;;;;;;;;;;;;-0.9114658;-0.2630085;-0.25476852;;;;;1351.6
1461.0;1418.3;;;;;;;;;;;;;;;;;-30.213324;11.078218;31.949066;;1351.6
1461.0;1418.3;;;;;;;;;;;;;;-0.9007843;-0.26386303;-0.25019073;;;;;1351.6
1461.0;1418.8;;;;-0.8592607;-0.37271884;-0.39879233;;;;;;;;;;;;;;;
1461.0;1418.8;;;;-0.8581468;-0.37234882;-0.40193564;;;;;;;;;;;;;;;
1461.0;1418.8;;;;-0.856434;-0.3723183;-0.40556723;;;;;;;;;;;;;;;
1461.0;1418.8;;;;-0.85359204;-0.37199405;-0.40899283;;;;;;;;;;;;;;;
1461.0;1418.8;;;;-0.8504106;-0.3712044;-0.41289908;;;;;;;;;;;;;;;
1461.0;1420.9;262143;262143;12954;;;;;;;;;;;;;;;;;;
1461.0;1428.9;;;;-0.8465234;-0.37054065;-0.41646582;;;;;;;;;;;;;;;
1461.0;1428.9;;;;-0.843361;-0.36988452;-0.41920096;;;;;;;;;;;;;;;
1461.0;1428.9;;;;-0.84129345;-0.36945727;-0.42161566;;;;;;;;;;;;;;;
1461.0;1428.9;;;;-0.8405191;-0.3694649;-0.42394263;;;;;;;;;;;;;;;
1461.0;1428.9;;;;-0.8406793;-0.36903003;-0.42680365;;;;;;;;;;;;;;;
1464.0;1433.3;;;;;;;;;;;;;;;;;-30.552843;8.968627;31.727806;;1361.2
1464.0;1433.3;;;;;;;;;;;;;;-0.8908353;-0.27216408;-0.24732201;;;;;1361.2
1464.0;1433.3;;;;;;;;;;;;;;;;;-30.991547;6.4813685;31.197546;;1361.2
1464.0;1433.3;;;;;;;;;;;;;;-0.87398905;-0.28052613;-0.24384288;;;;;1361.2
1464.0;1433.3;;;;;;;;;;;;;;;;;-31.212805;4.291665;30.587175;;1370.9
1464.0;1433.3;;;;;;;;;;;;;;-0.86208683;-0.28418836;-0.2351146;;;;;1370.9
1464.0;1433.3;;;;;;;;;;;;;;;;;-31.73162;2.6207771;29.911955;;1370.9
1464.0;1433.3;;;;;;;;;;;;;;-0.85262614;-0.293466;-0.23242897;;;;;1370.9
1464.0;1433.3;;;;;;;;;;;;;;;;;-32.116917;1.2131108;29.347363;;1380.6
1464.0;1433.3;;;;;;;;;;;;;;-0.84487444;-0.30225533;-0.22504349;;;;;1380.6
1464.0;1433.3;;;;;;;;;;;;;;;;;-32.41829;-0.13733329;28.920103;;1380.6
1464.0;1433.3;;;;;;;;;;;;;;-0.8388317;-0.311655;-0.2238838;;;;;1380.6
1464.0;1438.8;;;;-0.84127057;-0.36864474;-0.42908102;;;;;;;;;;;;;;;
1464.0;1438.8;;;;-0.84207547;-0.36786273;-0.43199545;;;;;;;;;;;;;;;
1464.0;1438.8;;;;-0.84241116;-0.36743167;-0.43370825;;;;;;;;;;;;;;;
1464.0;1438.8;;;;-0.84222806;-0.3665581;-0.4354859;;;;;;;;;;;;;;;
1464.0;1438.8;;;;-0.8420259;-0.3659859;-0.43871695;;;;;;;;;;;;;;;
1464.0;1441.0;262143;262143;12958;;;;;;;;;;;;;;;;;;
1464.0;1447.1;;;;;;;;;;;;;-4965;;;;;;;;
1464.0;1447.1;;;;;;;;;;;;;-3971;;;;;;;;
1464.0;1447.1;;;;;;;;;;;;;-2808;;;;;;;;
1464.0;1447.1;;;;;;;;;;;;;-1865;;;;;;;;
1464.0;1447.1;;;;;;;;;;;;;-1109;;;;;;;;
1518.0;1448.8;;;;-0.8407098;-0.36441806;-0.4408837;;;;;;;;;;;;;;;
1518.0;1448.8;;;;-0.8382951;-0.3627663;-0.44227225;;;;;;;;;;;;;;;
1518.0;1448.8;;;;-0.83487713;-0.3606911;-0.44256216;;;;;;;;;;;;;;;
1518.0;1448.8;;;;-0.8321687;-0.35860446;-0.44204718;;;;;;;;;;;;;;;
1518.0;1448.8;;;;-0.830166;-0.3564377;-0.4418488;;;;;;;;;;;;;;;
1518.0;1458.9;;;;-0.8297082;-0.35467914;-0.44170004;;;;;;;;;;;;;;;
1518.0;1458.9;;;;-0.8304826;-0.3533173;-0.44094855;;;;;;;;;;;;;;;
1518.0;1458.9;;;;-0.83132565;-0.35284045;-0.44001013;;;;;;;;;;;;;;;
1518.0;1458.9;;;;-0.8315278;-0.3526688;-0.43954092;;;;;;;;;;;;;;;
1518.0;1458.9;;;;-0.83065426;-0.35216144;-0.43832403;;;;;;;;;;;;;;;
1518.0;1461.1;262143;262143;12964;;;;;;;;;;;;;;;;;;
1518.0;1469.0;;;;-0.8291093;-0.3510857;-0.43642431;;;;;;;;;;;;;;;
1518.0;1469.0;;;;-0.826851;-0.3491631;-0.43344885;;;;;;;;;;;;;;;
1518.0;1469.0;;;;-0.8247682;-0.34696963;-0.43035895;;;;;;;;;;;;;;;
1518.0;1469.0;;;;-0.8232957;-0.34477237;-0.42647558;;;;;;;;;;;;;;;
1518.0;1469.0;;;;-0.8225976;-0.3417435;-0.422844;;;;;;;;;;;;;;;
1521.0;1478.6;;;;;;;;;;;;;;;;;-32.471695;-1.2588885;28.469954;;1390.0
1521.0;1478.6;;;;;;;;;;;;;;-0.82284003;-0.3279519;-0.22589801;;;;;1390.0
1521.0;1478.6;;;;;;;;;;;;;;;;;-32.12836;-2.1858883;28.088472;;1390.0
1521.0;1478.6;;;;;;;;;;;;;;-0.80782497;-0.33973205;-0.22229682;;;;;1390.0
1521.0;1478.6;;;;;;;;;;;;;;;;;-31.22425;-2.5902586;27.726065;;1399.6
1521.0;1478.6;;;;;;;;;;;;;;-0.79317605;-0.34321114;-0.21839045;;;;;1399.6
1521.0;1478.6;;;;;;;;;;;;;;;;;-30.079805;-2.357555;27.203438;;1399.6
1521.0;1478.6;;;;;;;;;;;;;;-0.7882931;-0.34321114;-0.20899075;;;;;1399.6
1521.0;1478.6;;;;;;;;;;;;;;;;;-29.110844;-1.9569995;26.753288;;1409.3
1521.0;1478.6;;;;;;;;;;;;;;-0.7812128;-0.34101382;-0.20673238;;;;;1409.3
1521.0;1478.6;;;;;;;;;;;;;;;;;-28.302103;-1.4877774;26.444288;;1409.3
1521.0;1478.6;;;;;;;;;;;;;;-0.7818842;-0.33039337;-0.20233771;;;;;1409.3
1521.0;1479.0;;;;-0.82202923;-0.3388901;-0.4198647;;;;;;;;;;;;;;;
1521.0;1479.0;;;;-0.82201016;-0.33664706;-0.4169312;;;;;;;;;;;;;;;
1521.0;1479.0;;;;-0.8221284;-0.33413318;-0.41382605;;;;;;;;;;;;;;;
1521.0;1479.0;;;;-0.82189953;-0.33196643;-0.41040045;;;;;;;;;;;;;;;
1521.0;1479.0;;;;-0.82125866;-0.33041385;-0.40882117;;;;;;;;;;;;;;;
1521.0;1481.2;262143;262143;12951;;;;;;;;;;;;;;;;;;
1521.0;1487.4;;;;;;;;;;;;;-127;;;;;;;;
1521.0;1487.4;;;;;;;;;;;;;1218;;;;;;;;
1521.0;1487.4;;;;;;;;;;;;;2478;;;;;;;;
1521.0;1487.4;;;;;;;;;;;;;3235;;;;;;;;
1521.0;1487.4;;;;;;;;;;;;;3595;;;;;;;;
1577.0;1489.1;;;;-0.82061017;-0.32912067;-0.40811926;;;;;;;;;;;;;;;
1577.0;1489.1;;;;-0.81988156;-0.32780078;-0.40661246;;;;;;;;;;;;;;;
1577.0;1489.1;;;;-0.8182641;-0.32623294;-0.4054566;;;;;;;;;;;;;;;
1577.0;1489.1;;;;-0.8159982;-0.3246689;-0.40372473;;;;;;;;;;;;;;;
1577.0;1489.1;;;;-0.8131372;-0.32311633;-0.40267187;;;;;;;;;;;;;;;
1577.0;1493.6;;;;;;;;;;;;;;;;;-28.130436;-0.7057405;26.261177;;1418.9
1577.0;1493.6;;;;;;;;;;;;;;-0.78096867;-0.3261208;-0.19165625;;;;;1418.9
1577.0;1493.6;;;;;;;;;;;;;;;;;-28.778955;0.064851835;26.22303;;1418.9
1577.0;1493.6;;;;;;;;;;;;;;-0.7868282;-0.3209937;-0.19678335;;;;;1418.9
1577.0;1493.6;;;;;;;;;;;;;;;;;-29.576252;1.0299997;26.173437;;1428.6
1577.0;1493.6;;;;;;;;;;;;;;-0.79500717;-0.31696525;-0.20099491;;;;;1428.6
1577.0;1493.6;;;;;;;;;;;;;;;;;-30.045471;1.5221107;26.226845;;1428.6
1577.0;1493.6;;;;;;;;;;;;;;-0.79989016;-0.32062745;-0.21277505;;;;;1428.6
1577.0;1493.6;;;;;;;;;;;;;;;;;-30.167545;1.9684439;26.348919;;1438.2
1577.0;1493.6;;;;;;;;;;;;;;-0.80636007;-0.33063754;-0.22254097;;;;;1438.2
1577.0;1493.6;;;;;;;;;;;;;;;;;-29.713585;2.0981476;26.4214;;1438.2
1577.0;1493.6;;;;;;;;;;;;;;-0.8049562;-0.34284493;-0.23035371;;;;;1438.2
1577.0;1498.9;;;;-0.8109933;-0.3221512;-0.40242392;;;;;;;;;;;;;;;
1577.0;1498.9;;;;-0.80822;-0.32011798;-0.40183264;;;;;;;;;;;;;;;
1577.0;1498.9;;;;-0.8060533;-0.31754306;-0.40071493;;;;;;;;;;;;;;;
1577.0;1498.9;;;;-0.80487835;-0.31530383;-0.3999787;;;;;;;;;;;;;;;
1577.0;1498.9;;;;-0.80306256;-0.312439;-0.39843374;;;;;;;;;;;;;;;
1577.0;1501.3;262143;262143;12951;;;;;;;;;;;;;;;;;;
1579.0;1509.0;;;;-0.800789;-0.30957034;-0.39752966;;;;;;;;;;;;;;;
1579.0;1509.0;;;;-0.79846585;-0.30687717;-0.3962975;;;;;;;;;;;;;;;
1579.0;1509.0;;;;-0.7968179;-0.30433276;-0.3945771;;;;;;;;;;;;;;;
1579.0;1509.0;;;;-0.7961198;-0.30139926;-0.3923722;;;;;;;;;;;;;;;
1579.0;1509.0;;;;-0.79628;-0.2987633;-0.391491;;;;;;;;;;;;;;;
1579.0;1519.0;;;;-0.797104;-0.2963715;-0.3903275;;;;;;;;;;;;;;;
1579.0;1519.0;;;;-0.79900753;-0.29449084;-0.39087683;;;;;;;;;;;;;;;
1579.0;1519.0;;;;-0.8011857;-0.29246143;-0.39122778;;;;;;;;;;;;;;;
1579.0;1519.0;;;;-0.80324185;-0.29163364;-0.39225394;;;;;;;;;;;;;;;
1579.0;1519.0;;;;-0.8049356;-0.29052737;-0.39363104;;;;;;;;;;;;;;;
1579.0;1521.4;262143;262143;12951;;;;;;;;;;;;;;;;;;
1579.0;1527.6;;;;;;;;;;;;;3753;;;;;;;;
1579.0;1527.6;;;;;;;;;;;;;3751;;;;;;;;
1579.0;1527.6;;;;;;;;;;;;;3565;;;;;;;;
1579.0;1527.6;;;;;;;;;;;;;3250;;;;;;;;
1579.0;1527.6;;;;;;;;;;;;;3128;;;;;;;;
1579.0;1529.1;;;;-0.8054277;-0.2891579;-0.3943711;;;;;;;;;;;;;;;
1579.0;1529.1;;;;-0.80503476;-0.28706363;-0.39496619;;;;;;;;;;;;;;;
1579.0;1529.1;;;;-0.80366147;-0.28546908;-0.39594275;;;;;;;;;;;;;;;
1579.0;1529.1;;;;-0.80134976;-0.2830887;-0.39667517;;;;;;;;;;;;;;;
1579.0;1529.1;;;;-0.797989;-0.2805405;-0.39791876;;;;;;;;;;;;;;;
1581.0;1538.9;;;;;;;;;;;;;;;;;-28.408916;1.9112216;26.493881;;1447.8
1581.0;1538.9;;;;;;;;;;;;;;-0.80129397;-0.35670033;-0.23389386;;;;;1447.8
1581.0;1538.9;;;;;;;;;;;;;;;;;-26.596882;1.6212958;26.604511;;1447.8
1581.0;1538.9;;;;;;;;;;;;;;-0.7915891;-0.372631;-0.23700674;;;;;1447.8
1581.0;1538.9;;;;;;;;;;;;;;;;;-24.239326;1.6518143;26.69988;;1457.4
1581.0;1538.9;;;;;;;;;;;;;;-0.7807245;-0.38721886;-0.23670156;;;;;1457.4
1581.0;1538.9;;;;;;;;;;;;;;;;;-21.637625;1.6479995;26.73803;;1457.4
1581.0;1538.9;;;;;;;;;;;;;;-0.7657094;-0.4029664;-0.23529771;;;;;1457.4
1581.0;1538.9;;;;;;;;;;;;;;;;;-18.85281;1.7090366;26.593067;;1467.1
1581.0;1538.9;;;;;;;;;;;;;;-0.7529527;-0.41724905;-0.22540972;;;;;1467.1
1581.0;1538.9;;;;;;;;;;;;;;;;;-16.045107;1.8463699;26.276438;;1467.1
1581.0;1538.9;;;;;;;;;;;;;;-0.7390362;-0.4219489;-0.21008942;;;;;1467.1
1581.0;1539.1;;;;-0.79473126;-0.277607;-0.39941412;;;;;;;;;;;;;;;
1581.0;1539.1;;;;-0.7914125;-0.27489474;-0.39981467;;;;;;;;;;;;;;;
1581.0;1539.1;;;;-0.7887155;-0.27230456;-0.40033728;;;;;;;;;;;;;;;
1581.0;1539.1;;;;-0.78635037;-0.26876834;-0.40095145;;;;;;;;;;;;;;;
1581.0;1539.1;;;;-0.7843896;-0.2661133;-0.40069968;;;;;;;;;;;;;;;
1581.0;1541.6;262143;262143;12950;;;;;;;;;;;;;;;;;;
1584.0;1546.4;;;;;;;;;;;;;;;;;-13.32133;1.9493698;25.753807;;1476.6
1584.0;1546.4;;;;;;;;;;;;;;-0.73049104;-0.42182684;-0.1932432;;;;;1476.6
1584.0;1546.4;;;;;;;;;;;;;;;;;-11.440626;1.7853328;24.666586;;1476.6
1584.0;1546.4;;;;;;;;;;;;;;-0.720481;-0.41474655;-0.19074069;;;;;1476.6
1584.0;1546.4;;;;;;;;;;;;;;;;;-10.200811;1.4648885;23.316141;;1486.4
1584.0;1546.4;;;;;;;;;;;;;;-0.7127903;-0.40241706;-0.20435195;;;;;1486.4
1584.0;1546.4;;;;;;;;;;;;;;;;;-8.610034;1.0681478;21.717735;;1486.4
1584.0;1546.4;;;;;;;;;;;;;;-0.70064396;-0.38874477;-0.21784112;;;;;1486.4
1584.0;1546.4;;;;;;;;;;;;;;;;;-5.878628;0.82399976;20.092623;;1496.0
1584.0;1546.4;;;;;;;;;;;;;;-0.6977752;-0.38612017;-0.2108829;;;;;1496.0
1584.0;1546.4;;;;;;;;;;;;;;;;;-2.3232217;0.17929624;18.650625;;1496.0
1584.0;1546.4;;;;;;;;;;;;;;-0.6936857;-0.38459426;-0.18012024;;;;;1496.0
1584.0;1549.1;;;;-0.78258526;-0.26342395;-0.40037543;;;;;;;;;;;;;;;
1584.0;1549.1;;;;-0.780594;-0.26139072;-0.3992501;;;;;;;;;;;;;;;
1584.0;1549.1;;;;-0.7770158;-0.2594147;-0.39728552;;;;;;;;;;;;;;;
1584.0;1549.1;;;;-0.77300274;-0.2577286;-0.39529425;;;;;;;;;;;;;;;
1584.0;1549.1;;;;-0.76812375;-0.25560763;-0.39415365;;;;;;;;;;;;;;;
1584.0;1559.1;;;;-0.76375973;-0.25361636;-0.3926316;;;;;;;;;;;;;;;
1584.0;1559.1;;;;-0.7603494;-0.25170138;-0.39117438;;;;;;;;;;;;;;;
1584.0;1559.1;;;;-0.75626004;-0.24982837;-0.38974386;;;;;;;;;;;;;;;
1584.0;1559.1;;;;-0.7509538;-0.2479668;-0.38906103;;;;;;;;;;;;;;;
1584.0;1559.1;;;;-0.7457085;-0.247242;-0.38838965;;;;;;;;;;;;;;;
1584.0;1561.6;262143;262143;12951;;;;;;;;;;;;;;;;;;
1636.0;1567.7;;;;;;;;;;;;;3225;;;;;;;;
1636.0;1567.7;;;;;;;;;;;;;3161;;;;;;;;
1636.0;1567.7;;;;;;;;;;;;;2820;;;;;;;;
1636.0;1567.7;;;;;;;;;;;;;2488;;;;;;;;
1636.0;1567.7;;;;;;;;;;;;;2406;;;;;;;;
1636.0;1569.1;;;;-0.7400628;-0.24590304;-0.38565832;;;;;;;;;;;;;;;
1636.0;1569.1;;;;-0.7339631;-0.24424747;-0.3836785;;;;;;;;;;;;;;;
1636.0;1569.1;;;;-0.7279244;-0.242363;-0.38262182;;;;;;;;;;;;;;;
1636.0;1569.1;;;;-0.7221032;-0.24071506;-0.38215262;;;;;;;;;;;;;;;
1636.0;1569.1;;;;-0.71742636;-0.23895648;-0.38079077;;;;;;;;;;;;;;;
1636.0;1579.1;;;;-0.7134209;-0.23611453;-0.3784867;;;;;;;;;;;;;;;
1636.0;1579.1;;;;-0.71054846;-0.2344437;-0.3761254;;;;;;;;;;;;;;;
1636.0;1579.1;;;;-0.7082253;-0.23243716;-0.37347415;;;;;;;;;;;;;;;
1636.0;1579.1;;;;-0.7061692;-0.23100284;-0.37274173;;;;;;;;;;;;;;;
1636.0;1579.1;;;;-0.70403296;-0.22931293;-0.37313464;;;;;;;;;;;;;;;
1636.0;1581.6;262143;262143;12948;;;;;;;;;;;;;;;;;;
1636.0;1589.2;;;;-0.70141226;-0.2279549;-0.37229922;;;;;;;;;;;;;;;
1636.0;1589.2;;;;-0.69777685;-0.22672656;-0.37163928;;;;;;;;;;;;;;;
1636.0;1589.2;;;;-0.6931992;-0.22561267;-0.37047198;;;;;;;;;;;;;;;
1636.0;1589.2;;;;-0.6882821;-0.22461322;-0.3689156;;;;;;;;;;;;;;;
1636.0;1589.2;;;;-0.68339163;-0.22352603;-0.36752322;;;;;;;;;;;;;;;
1642.0;1599.1;;;;;;;;;;;;;;;;;1.4076662;-0.28611103;17.353586;;1505.6
1642.0;1599.1;;;;;;;;;;;;;;-0.7012543;-0.3876461;-0.13580737;;;;;1505.6
1642.0;1599.1;;;;;;;;;;;;;;;;;3.933073;-0.96133304;15.633106;;1505.6
1642.0;1599.1;;;;;;;;;;;;;;-0.69649345;-0.38471633;-0.11828975;;;;;1505.6
1642.0;1599.1;;;;;;;;;;;;;;;;;5.451369;-1.5602587;13.855403;;1515.2
1642.0;1599.1;;;;;;;;;;;;;;-0.70491654;-0.3856319;-0.11255226;;;;;1515.2
1642.0;1599.1;;;;;;;;;;;;;;;;;6.3936276;-2.6169622;12.016664;;1515.2
1642.0;1599.1;;;;;;;;;;;;;;-0.6933195;-0.38831753;-0.124210335;;;;;1515.2
1642.0;1599.1;;;;;;;;;;;;;;;;;7.0078125;-3.3036287;10.235145;;1524.9
1642.0;1599.1;;;;;;;;;;;;;;-0.68782616;-0.39680165;-0.131901;;;;;1524.9
1642.0;1599.1;;;;;;;;;;;;;;;;;6.591998;-3.784295;8.247627;;1524.9
1642.0;1599.1;;;;;;;;;;;;;;-0.68044066;-0.39692372;-0.1429487;;;;;1524.9
1642.0;1599.2;;;;-0.67929083;-0.22232059;-0.36560443;;;;;;;;;;;;;;;
1642.0;1599.2;;;;-0.6753121;-0.22122958;-0.36400607;;;;;;;;;;;;;;;
1642.0;1599.2;;;;-0.67186743;-0.21990588;-0.36220935;;;;;;;;;;;;;;;
1642.0;1599.2;;;;-0.6688195;-0.21878818;-0.360302;;;;;;;;;;;;;;;
1642.0;1599.2;;;;-0.6657067;-0.21800998;-0.35802844;;;;;;;;;;;;;;;
1642.0;1601.8;262143;262143;12958;;;;;;;;;;;;;;;;;;
1644.0;1606.6;;;;;;;;;;;;;;;;;6.3516645;-4.5396285;6.427961;;1534.6
1644.0;1606.6;;;;;;;;;;;;;;-0.67268896;-0.39295632;-0.16510513;;;;;1534.6
1644.0;1606.6;;;;;;;;;;;;;;;;;7.641072;-4.9172945;4.863888;;1534.6
1644.0;1606.6;;;;;;;;;;;;;;-0.66768396;-0.38026062;-0.16864528;;;;;1534.6
1644.0;1606.6;;;;;;;;;;;;;;;;;10.44496;-5.1347394;3.7537766;;1544.3
1644.0;1606.6;;;;;;;;;;;;;;-0.67921996;-0.37086093;-0.14050722;;;;;1544.3
1644.0;1606.6;;;;;;;;;;;;;;;;;14.0957365;-6.7445908;2.9183326;;1544.3
1644.0;1606.6;;;;;;;;;;;;;;-0.6906949;-0.35975218;-0.10504471;;;;;1544.3
1644.0;1606.6;;;;;;;;;;;;;;;;;16.296885;-9.220405;1.5717032;;1554.0
1644.0;1606.6;;;;;;;;;;;;;;-0.69484544;-0.35395366;-0.09552293;;;;;1554.0
1644.0;1606.6;;;;;;;;;;;;;;;;;15.747551;-12.642292;-0.4158147;;1554.0
1644.0;1606.6;;;;;;;;;;;;;;-0.677694;-0.34925383;-0.11346782;;;;;1554.0
1644.0;1607.8;;;;;;;;;;;;;2413;;;;;;;;
1644.0;1607.8;;;;;;;;;;;;;2271;;;;;;;;
1644.0;1607.8;;;;;;;;;;;;;2117;;;;;;;;
1644.0;1607.8;;;;;;;;;;;;;2192;;;;;;;;
1644.0;1607.8;;;;;;;;;;;;;2405;;;;;;;;
1644.0;1609.2;;;;-0.6630135;-0.21696094;-0.3552628;;;;;;;;;;;;;;;
1644.0;1609.2;;;;-0.6607514;-0.21613696;-0.35375217;;;;;;;;;;;;;;;
1644.0;1609.2;;;;-0.6595307;-0.21470645;-0.35234836;;;;;;;;;;;;;;;
1644.0;1609.2;;;;-0.6598626;-0.21364596;-0.35145572;;;;;;;;;;;;;;;
1644.0;1609.2;;;;-0.6617852;-0.21270373;-0.35049823;;;;;;;;;;;;;;;
1756.0;1619.2;;;;-0.66392905;-0.21200946;-0.35081866;;;;;;;;;;;;;;;
1756.0;1619.2;;;;-0.66595846;-0.2105141;-0.34982684;;;;;;;;;;;;;;;
1756.0;1619.2;;;;-0.6665879;-0.20916751;-0.3494759;;;;;;;;;;;;;;;
1756.0;1619.2;;;;-0.6663056;-0.20770267;-0.34952167;;;;;;;;;;;;;;;
1756.0;1619.2;;;;-0.6646424;-0.20581439;-0.34897235;;;;;;;;;;;;;;;
1756.0;1621.8;262143;262143;12950;;;;;;;;;;;;;;;;;;
1756.0;1629.2;;;;-0.6623612;-0.20358661;-0.34787753;;;;;;;;;;;;;;;
1756.0;1629.2;;;;-0.6597634;-0.20122913;-0.34667972;;;;;;;;;;;;;;;
1756.0;1629.2;;;;-0.6575051;-0.19868854;-0.3446007;;;;;;;;;;;;;;;
1756.0;1629.2;;;;-0.65608984;-0.19672397;-0.34212497;;;;;;;;;;;;;;;
1756.0;1629.2;;;;-0.6547013;-0.19456485;-0.33885577;;;;;;;;;;;;;;;
1756.0;1639.2;;;;-0.6531258;-0.1919556;-0.33511356;;;;;;;;;;;;;;;
1756.0;1639.2;;;;-0.6516343;-0.18984607;-0.33155444;;;;;;;;;;;;;;;
1756.0;1639.2;;;;-0.6507836;-0.18877414;-0.32846454;;;;;;;;;;;;;;;
1756.0;1639.2;;;;-0.6505242;-0.18709184;-0.32630542;;;;;;;;;;;;;;;
1756.0;1639.2;;;;-0.65079504;-0.18577196;-0.32358173;;;;;;;;;;;;;;;
1756.0;1642.0;262143;262143;12947;;;;;;;;;;;;;;;;;;
1756.0;1648.1;;;;;;;;;;;;;2385;;;;;;;;
1756.0;1648.1;;;;;;;;;;;;;2103;;;;;;;;
1756.0;1648.1;;;;;;;;;;;;;1824;;;;;;;;
1756.0;1648.1;;;;;;;;;;;;;1739;;;;;;;;
1756.0;1648.1;;;;;;;;;;;;;1963;;;;;;;;
1757.0;1649.4;;;;-0.65204245;-0.18408205;-0.32106403;;;;;;;;;;;;;;;
1757.0;1649.4;;;;-0.6529351;-0.18257524;-0.3197327;;;;;;;;;;;;;;;
1757.0;1649.4;;;;-0.65393835;-0.18042375;-0.3177834;;;;;;;;;;;;;;;
1757.0;1649.4;;;;-0.6537095;-0.17838289;-0.31562045;;;;;;;;;;;;;;;
1757.0;1649.4;;;;-0.65342337;-0.17547609;-0.31278232;;;;;;;;;;;;;;;
1757.0;1659.4;;;;-0.65271;-0.17240526;-0.30968478;;;;;;;;;;;;;;;
1757.0;1659.4;;;;-0.6518975;-0.16934587;-0.306263;;;;;;;;;;;;;;;
1757.0;1659.4;;;;-0.651249;-0.16523744;-0.30246356;;;;;;;;;;;;;;;
1757.0;1659.4;;;;-0.6500893;-0.16232301;-0.2976227;;;;;;;;;;;;;;;
1757.0;1659.4;;;;-0.64973456;-0.15970232;-0.2924309;;;;;;;;;;;;;;;
1757.0;1662.1;262143;262143;12947;;;;;;;;;;;;;;;;;;
1757.0;1666.6;;;;;;;;;;;;;;;;;14.01944;-14.8625145;-2.3842587;;1563.6
1757.0;1666.6;;;;;;;;;;;;;;-0.6537065;-0.34070864;-0.17712943;;;;;1563.6
1757.0;1666.6;;;;;;;;;;;;;;;;;13.454848;-16.388441;-3.6393323;;1563.6
1757.0;1666.6;;;;;;;;;;;;;;-0.64986116;-0.3300882;-0.23218483;;;;;1563.6
1757.0;1666.6;;;;;;;;;;;;;;;;;14.103366;-18.139439;-4.7227397;;1573.3
1757.0;1666.6;;;;;;;;;;;;;;-0.6349681;-0.31690422;-0.24585712;;;;;1573.3
1757.0;1666.6;;;;;;;;;;;;;;;;;14.805292;-19.238106;-6.248665;;1573.3
1757.0;1666.6;;;;;;;;;;;;;;-0.6222114;-0.31025118;-0.20862453;;;;;1573.3
1757.0;1666.6;;;;;;;;;;;;;;;;;15.140995;-19.791252;-7.976775;;1582.8
1757.0;1666.6;;;;;;;;;;;;;;-0.63002414;-0.31415755;-0.14221625;;;;;1582.8
1757.0;1666.6;;;;;;;;;;;;;;;;;13.855403;-21.195105;-10.464034;;1582.8
1757.0;1666.6;;;;;;;;;;;;;;-0.633198;-0.31189916;-0.10937834;;;;;1582.8
1764.0;1667.4;;;;;;;;;;;;;;;;;11.574144;-22.980438;-13.962218;;1592.4
1764.0;1667.4;;;;;;;;;;;;;;-0.62947476;-0.3023774;-0.10809656;;;;;1592.4
1764.0;1667.4;;;;;;;;;;;;;;;;;9.849849;-24.456772;-17.773216;;1592.4
1764.0;1667.4;;;;;;;;;;;;;;-0.6230659;-0.2874233;-0.119449444;;;;;1592.4
1764.0;1667.4;;;;;;;;;;;;;;;;;6.55385;-26.253548;-21.710106;;1602.1
1764.0;1667.4;;;;;;;;;;;;;;-0.6072573;-0.29511398;-0.1445967;;;;;1602.1
1764.0;1667.4;;;;;;;;;;;;;;;;;0.19074069;-28.324991;-26.280252;;1602.1
1764.0;1667.4;;;;;;;;;;;;;;-0.5846736;-0.30671102;-0.18030335;;;;;1602.1
1764.0;1667.4;;;;;;;;;;;;;;;;;-8.960998;-30.014954;-31.617176;;1611.7
1764.0;1667.4;;;;;;;;;;;;;;-0.57911927;-0.31781974;-0.21881771;;;;;1611.7
1764.0;1667.4;;;;;;;;;;;;;;;;;-17.345957;-32.502213;-37.27836;;1611.7
1764.0;1667.4;;;;;;;;;;;;;;-0.57533497;-0.31861323;-0.2323069;;;;;1611.7
1764.0;1669.2;;;;-0.6500092;-0.15690614;-0.28882602;;;;;;;;;;;;;;;
1764.0;1669.2;;;;-0.6506539;-0.15512086;-0.2861977;;;;;;;;;;;;;;;
1764.0;1669.2;;;;-0.6514893;-0.15398408;-0.28307346;;;;;;;;;;;;;;;
1764.0;1669.2;;;;-0.65258414;-0.15285112;-0.28025058;;;;;;;;;;;;;;;
1764.0;1669.2;;;;-0.65290457;-0.15155412;-0.27780154;;;;;;;;;;;;;;;
1764.0;1679.2;;;;-0.65352637;-0.15046312;-0.27694324;;;;;;;;;;;;;;;
1764.0;1679.2;;;;-0.6550179;-0.14891435;-0.2759438;;;;;;;;;;;;;;;
1764.0;1679.2;;;;-0.65655905;-0.1468506;-0.27523425;;;;;;;;;;;;;;;
1764.0;1679.2;;;;-0.65718085;-0.14461519;-0.2741814;;;;;;;;;;;;;;;
1764.0;1679.2;;;;-0.6551781;-0.14263536;-0.27181628;;;;;;;;;;;;;;;
1764.0;1682.1;262143;262143;12948;;;;;;;;;;;;;;;;;;
1765.0;1688.2;;;;;;;;;;;;;2275;;;;;;;;
1765.0;1688.2;;;;;;;;;;;;;2379;;;;;;;;
1765.0;1688.2;;;;;;;;;;;;;2269;;;;;;;;
1765.0;1688.2;;;;;;;;;;;;;2124;;;;;;;;
1765.0;1688.2;;;;;;;;;;;;;2157;;;;;;;;
1765.0;1689.3;;;;-0.65234;-0.14034273;-0.26947787;;;;;;;;;;;;;;;
1765.0;1689.3;;;;-0.65003973;-0.13811876;-0.26676562;;;;;;;;;;;;;;;
1765.0;1689.3;;;;-0.64970785;-0.1362343;-0.26412585;;;;;;;;;;;;;;;
1765.0;1689.3;;;;-0.6523629;-0.1346779;-0.26255038;;;;;;;;;;;;;;;
1765.0;1689.3;;;;-0.65687567;-0.13386156;-0.26098636;;;;;;;;;;;;;;;
1765.0;1699.4;;;;-0.6613961;-0.13343431;-0.2602196;;;;;;;;;;;;;;;
1765.0;1699.4;;;;-0.66585165;-0.1334839;-0.25859454;;;;;;;;;;;;;;;
1765.0;1699.4;;;;-0.6694718;-0.13356401;-0.25727847;;;;;;;;;;;;;;;
1765.0;1699.4;;;;-0.67256933;-0.13298418;-0.25470737;;;;;;;;;;;;;;;
1765.0;1699.4;;;;-0.6751099;-0.13281251;-0.25244907;;;;;;;;;;;;;;;
1765.0;1702.3;262143;262143;12948;;;;;;;;;;;;;;;;;;
1765.0;1709.6;;;;-0.67760855;-0.13207628;-0.24969867;;;;;;;;;;;;;;;
1765.0;1709.6;;;;-0.6808968;-0.13146593;-0.24619678;;;;;;;;;;;;;;;
1765.0;1709.6;;;;-0.6861039;-0.13093568;-0.24261859;;;;;;;;;;;;;;;
1765.0;1709.6;;;;-0.69284064;-0.13082887;-0.23809817;;;;;;;;;;;;;;;
1765.0;1709.6;;;;-0.70115286;-0.13072588;-0.23300937;;;;;;;;;;;;;;;
1768.0;1719.9;;;;;;;;;;;;;;;;;-22.476881;-34.367657;-42.523727;;1621.4
1768.0;1719.9;;;;;;;;;;;;;;-0.5963927;-0.2981048;-0.2033143;;;;;1621.4
1768.0;1719.9;;;;;;;;;;;;;;;;;-25.643177;-36.37425;-47.37617;;1621.4
1768.0;1719.9;;;;;;;;;;;;;;-0.62746054;-0.27588734;-0.1472213;;;;;1621.4
1768.0;1719.9;;;;;;;;;;;;;;;;;-28.668325;-38.64025;-51.973022;;1631.1
1768.0;1719.9;;;;;;;;;;;;;;-0.64027834;-0.26685384;-0.11157567;;;;;1631.1
1768.0;1719.9;;;;;;;;;;;;;;;;;-31.601917;-40.219578;-55.6238;;1631.1
1768.0;1719.9;;;;;;;;;;;;;;-0.63954586;-0.25647756;-0.13116856;;;;;1631.1
1768.0;1719.9;;;;;;;;;;;;;;;;;-32.971436;-41.905727;-57.641834;;1640.7
1768.0;1719.9;;;;;;;;;;;;;;-0.63997316;-0.244026;-0.18250069;;;;;1640.7
1768.0;1719.9;;;;;;;;;;;;;;;;;-33.15455;-44.12595;-58.275093;;1640.7
1768.0;1719.9;;;;;;;;;;;;;;-0.6399121;-0.2405469;-0.19861446;;;;;1640.7
1768.0;1719.6;;;;-0.7104607;-0.13068391;-0.2274628;;;;;;;;;;;;;;;
1768.0;1719.6;;;;-0.71887976;-0.13144304;-0.22256473;;;;;;;;;;;;;;;
1768.0;1719.6;;;;-0.72572714;-0.13267519;-0.2178078;;;;;;;;;;;;;;;
1768.0;1719.6;;;;-0.72985846;-0.13484956;-0.21285251;;;;;;;;;;;;;;;
1768.0;1719.6;;;;-0.73175055;-0.13739015;-0.20824817;;;;;;;;;;;;;;;
1769.0;1720.6;;;;;;;;;;;;;;;;;-33.90225;-46.124912;-58.0958;;1650.2
1769.0;1720.6;;;;;;;;;;;;;;-0.6327708;-0.24341564;-0.19067965;;;;;1650.2
1769.0;1720.6;;;;;;;;;;;;;;;;;-35.611286;-46.742912;-57.660908;;1650.2
1769.0;1720.6;;;;;;;;;;;;;;-0.64064455;-0.26007873;-0.16260262;;;;;1650.2
1769.0;1720.6;;;;;;;;;;;;;;;;;-37.53395;-47.753838;-57.386242;;1659.9
1769.0;1720.6;;;;;;;;;;;;;;-0.6507767;-0.2707602;-0.15527818;;;;;1659.9
1769.0;1720.6;;;;;;;;;;;;;;;;;-38.6784;-49.260693;-57.000946;;1659.9
1769.0;1720.6;;;;;;;;;;;;;;-0.6504715;-0.2771691;-0.17389446;;;;;1659.9
1769.0;1720.6;;;;;;;;;;;;;;;;;-38.239693;-50.954464;-55.654316;;1669.5
1769.0;1720.6;;;;;;;;;;;;;;-0.6534013;-0.319834;-0.18359935;;;;;1669.5
1769.0;1720.6;;;;;;;;;;;;;;;;;-37.46147;-52.705467;-54.13602;;1669.5
1769.0;1720.6;;;;;;;;;;;;;;-0.64803004;-0.3299051;-0.18787195;;;;;1669.5
1769.0;1722.5;262143;262143;12943;;;;;;;;;;;;;;;;;;
1769.0;1728.6;;;;;;;;;;;;;2322;;;;;;;;
1769.0;1728.6;;;;;;;;;;;;;2452;;;;;;;;
1769.0;1728.6;;;;;;;;;;;;;2419;;;;;;;;
1769.0;1728.6;;;;;;;;;;;;;2118;;;;;;;;
1769.0;1728.6;;;;;;;;;;;;;1586;;;;;;;;
1769.0;1729.6;;;;-0.7322312;-0.14004518;-0.2020798;;;;;;;;;;;;;;;
1769.0;1729.6;;;;-0.7330857;-0.14371492;-0.1962662;;;;;;;;;;;;;;;
1769.0;1729.6;;;;-0.73393255;-0.14664842;-0.19145969;;;;;;;;;;;;;;;
1769.0;1729.6;;;;-0.7346116;-0.14964677;-0.18743517;;;;;;;;;;;;;;;
1769.0;1729.6;;;;-0.73384863;-0.15347292;-0.18408205;;;;;;;;;;;;;;;
1816.0;1738.1;;;;;;;;;;-0.8888516;19.604326;-1.9760735;;;;;;;;;
1816.0;1738.1;;;;;;;0.760155;0.33796197;-0.14325388;;;;;;;;;;;;
1816.0;1738.1;;;;;;;;;;4.7227397;32.731102;7.2519608;;;;;;;;;
1816.0;1738.1;;;;;;;0.8995636;0.38770714;-0.18640706;;;;;;;;;;;;
1816.0;1739.6;;;;-0.7302857;-0.15765382;-0.18274309;;;;;;;;;;;;;;;
1816.0;1739.6;;;;-0.72292715;-0.16501237;-0.18358232;;;;;;;;;;;;;;;
1816.0;1739.6;;;;-0.71405035;-0.1758423;-0.18685152;;;;;;;;;;;;;;;
1816.0;1739.6;;;;-0.7077256;-0.19044879;-0.19190219;;;;;;;;;;;;;;;
1816.0;1739.6;;;;-0.7080727;-0.20936206;-0.19858935;;;;;;;;;;;;;;;
1816.0;1742.6;262143;262143;12951;;;;;;;;;;;;;;;;;;
1816.0;1747.7;;;;;;;;;;1.1482589;1.2817774;3.8224432;;;;;;;;;
1816.0;1747.7;;;;;;;0.96841335;0.3980224;-0.22205268;;;;;;;;;;;;
1816.0;1747.7;;;;;;;;;;5.1881466;17.46803;4.562517;;;;;;;;;
1816.0;1747.7;;;;;;;1.0509964;0.39924315;-0.26636556;;;;;;;;;;;;
1816.0;1749.7;;;;-0.715458;-0.23098758;-0.20708469;;;;;;;;;;;;;;;
1816.0;1749.7;;;;-0.72969824;-0.25449756;-0.21590045;;;;;;;;;;;;;;;
1816.0;1749.7;;;;-0.75055707;-0.27671817;-0.22608188;;;;;;;;;;;;;;;
1816.0;1749.7;;;;-0.7776109;-0.2959366;-0.23414615;;;;;;;;;;;;;;;
1816.0;1749.7;;;;-0.80814373;-0.31042483;-0.24383166;;;;;;;;;;;;;;;
1816.0;1756.9;;;;;;;;;;5.558183;18.711662;2.5368512;;;;;;;;;
1816.0;1756.9;;;;;;;1.1505479;0.38807335;-0.3178808;;;;;;;;;;;;
1816.0;1756.9;;;;;;;;;;1.4152958;-17.090364;-19.940031;;;;;;;;;
1816.0;1756.9;;;;;;;1.2578509;0.36640522;-0.37073886;;;;;;;;;;;;
1820.0;1759.5;;;;-0.83664334;-0.3195763;-0.25608066;;;;;;;;;;;;;;;
1820.0;1759.5;;;;-0.8592187;-0.32363513;-0.26695254;;;;;;;;;;;;;;;
1820.0;1759.5;;;;-0.87534344;-0.32239535;-0.27638248;;;;;;;;;;;;;;;
1820.0;1759.5;;;;-0.8873445;-0.3163605;-0.2829552;;;;;;;;;;;;;;;
1820.0;1759.5;;;;-0.89613736;-0.30849078;-0.29109195;;;;;;;;;;;;;;;
1820.0;1762.5;262143;262143;12952;;;;;;;;;;;;;;;;;;
1820.0;1766.6;;;;;;;;;;2.9526658;-17.414623;-22.03055;;;;;;;;;
1820.0;1766.6;;;;;;;1.3332316;0.3394879;-0.41193885;;;;;;;;;;;;
1820.0;1766.6;;;;;;;;;;5.237739;-16.880552;-23.586992;;;;;;;;;
1820.0;1766.6;;;;;;;1.3828547;0.31421858;-0.4405652;;;;;;;;;;;;
1820.0;1768.6;;;;;;;;;;;;;968;;;;;;;;
1820.0;1768.6;;;;;;;;;;;;;642;;;;;;;;
1820.0;1768.6;;;;;;;;;;;;;897;;;;;;;;
1820.0;1768.6;;;;;;;;;;;;;1531;;;;;;;;
1820.0;1768.6;;;;;;;;;;;;;2221;;;;;;;;
1820.0;1769.6;;;;-0.90428174;-0.30064014;-0.30054858;;;;;;;;;;;;;;;
1820.0;1769.6;;;;-0.9148294;-0.29457095;-0.31206134;;;;;;;;;;;;;;;
1820.0;1769.6;;;;-0.92855084;-0.29045108;-0.32598498;;;;;;;;;;;;;;;
1820.0;1769.6;;;;-0.94659054;-0.28789905;-0.34244922;;;;;;;;;;;;;;;
1820.0;1769.6;;;;-0.96951306;-0.28708652;-0.35865405;;;;;;;;;;;;;;;
1820.0;1776.2;;;;;;;;;;7.461776;-8.144628;-18.642994;;;;;;;;;
1820.0;1776.2;;;;;;;1.4142888;0.29486984;-0.45698416;;;;;;;;;;;;
1820.0;1776.2;;;;;;;;;;9.033479;1.8883327;-12.047182;;;;;;;;;
1820.0;1776.2;;;;;;;1.4362621;0.28034303;-0.46626177;;;;;;;;;;;;
1822.0;1779.7;;;;-0.9952508;-0.2876015;-0.37701803;;;;;;;;;;;;;;;
1822.0;1779.7;;;;-1.0215265;-0.28928378;-0.4013253;;;;;;;;;;;;;;;
1822.0;1779.7;;;;-1.0473405;-0.28994372;-0.42745978;;;;;;;;;;;;;;;
1822.0;1779.7;;;;-1.0719148;-0.2898598;-0.44564444;;;;;;;;;;;;;;;
1822.0;1779.7;;;;-1.0943948;-0.2875519;-0.46210486;;;;;;;;;;;;;;;
1822.0;1780.2;;;;;;;;;;;;;;;;;-36.96936;-53.73165;-52.930542;;1679.2
1822.0;1780.2;;;;;;;;;;;;;;-0.6619465;-0.3253273;-0.17877743;;;;;1679.2
1822.0;1780.2;;;;;;;;;;;;;;;;;-36.5421;-55.425426;-52.06076;;1679.2
1822.0;1780.2;;;;;;;;;;;;;;-0.6690878;-0.3255104;-0.18359935;;;;;1679.2
1822.0;1780.2;;;;;;;;;;;;;;;;;-35.4091;-59.041874;-51.541946;;1688.8
1822.0;1780.2;;;;;;;;;;;;;;-0.6493728;-0.34498122;-0.20142217;;;;;1688.8
1822.0;1780.2;;;;;;;;;;;;;;;;;-31.598103;-61.25065;-50.87054;;1688.8
1822.0;1780.2;;;;;;;;;;;;;;-0.6535844;-0.34742272;-0.1643727;;;;;1688.8
1822.0;1780.2;;;;;;;;;;;;;;;;;-30.426954;-63.53572;-51.484726;;1698.5
1822.0;1780.2;;;;;;;;;;;;;;-0.6493118;-0.3497421;-0.19403668;;;;;1698.5
1822.0;1780.2;;;;;;;;;;;;;;;;;-33.165993;-68.2432;-54.116947;;1698.5
1822.0;1780.2;;;;;;;;;;;;;;-0.57649463;-0.34815517;-0.3154393;;;;;1698.5
1823.0;1781.0;;;;;;;;;;;;;;;;;-33.024845;-71.176796;-57.538834;;1708.2
1823.0;1781.0;;;;;;;;;;;;;;-0.5515915;-0.33417767;-0.27509385;;;;;1708.2
1823.0;1781.0;;;;;;;;;;;;;;;;;-29.351177;-69.36475;-61.330757;;1708.2
1823.0;1781.0;;;;;;;;;;;;;;-0.6211127;-0.3609119;-0.10266427;;;;;1708.2
1823.0;1781.0;;;;;;;;;;;;;;;;;-27.565844;-67.346725;-66.904205;;1717.9
1823.0;1781.0;;;;;;;;;;;;;;-0.67177343;-0.42378002;-0.00286874;;;;;1717.9
1823.0;1781.0;;;;;;;;;;;;;;;;;-28.25251;-63.8142;-74.343094;;1717.9
1823.0;1781.0;;;;;;;;;;;;;;-0.7498398;-0.483108;-0.0024414808;;;;;1717.9
1823.0;1781.0;;;;;;;;;;;;;;;;;-28.992584;-60.23209;-83.189644;;1727.5
1823.0;1781.0;;;;;;;;;;;;;;-0.88320565;-0.56123537;-0.038636435;;;;;1727.5
1823.0;1781.0;;;;;;;;;;;;;;;;;-26.734215;-55.543686;-92.371895;;1727.5
1823.0;1781.0;;;;;;;;;;;;;;-1.1009858;-0.64192635;-0.08667257;;;;;1727.5
1823.0;1782.6;262143;262143;12940;;;;;;;;;;;;;;;;;;
1823.0;1785.6;;;;;;;;;;10.822627;3.2883694;-12.638477;;;;;;;;;
1823.0;1785.6;;;;;;;1.4420606;0.27283546;-0.46998504;;;;;;;;;;;;
1823.0;1785.6;;;;;;;;;;12.600329;3.9750361;-13.752403;;;;;;;;;
1823.0;1785.6;;;;;;;1.4236274;0.26545;-0.46748254;;;;;;;;;;;;
1823.0;1789.5;;;;-1.1140252;-0.28174213;-0.47954184;;;;;;;;;;;;;;;
1823.0;1789.5;;;;-1.1287462;-0.27608112;-0.49286276;;;;;;;;;;;;;;;
1823.0;1789.5;;;;-1.1361238;-0.2720528;-0.49892431;;;;;;;;;;;;;;;
1823.0;1789.5;;;;-1.1358377;-0.2704468;-0.50251395;;;;;;;;;;;;;;;
1823.0;1789.5;;;;-1.1317178;-0.2696381;-0.5059281;;;;;;;;;;;;;;;
1878.0;1795.0;;;;;;;;;;14.351329;3.5859249;-15.36607;;;;;;;;;
1878.0;1795.0;;;;;;;1.3876766;0.25281534;-0.46131778;;;;;;;;;;;;
1878.0;1795.0;;;;;;;;;;16.258736;2.010407;-16.804255;;;;;;;;;
1878.0;1795.0;;;;;;;1.3479415;0.24359874;-0.44959867;;;;;;;;;;;;
1878.0;1799.5;;;;-1.1274377;-0.27242664;-0.5100022;;;;;;;;;;;;;;;
1878.0;1799.5;;;;-1.1284524;-0.27718356;-0.5160561;;;;;;;;;;;;;;;
1878.0;1799.5;;;;-1.1348039;-0.28304675;-0.5207253;;;;;;;;;;;;;;;
1878.0;1799.5;;;;-1.1431276;-0.28958896;-0.5270539;;;;;;;;;;;;;;;
1878.0;1799.5;;;;-1.1528207;-0.29670337;-0.52984244;;;;;;;;;;;;;;;
1878.0;1802.6;262143;262143;12955;;;;;;;;;;;;;;;;;;
1878.0;1804.6;;;;;;;;;;18.097477;-0.095370345;-17.441328;;;;;;;;;
1878.0;1804.6;;;;;;;1.3102816;0.2482986;-0.4359874;;;;;;;;;;;;
1878.0;1804.6;;;;;;;;;;19.886623;-2.6779993;-17.15903;;;;;;;;;
1878.0;1804.6;;;;;;;1.286111;0.252266;-0.42628255;;;;;;;;;;;;
1878.0;1808.6;;;;;;;;;;;;;2576;;;;;;;;
1878.0;1808.6;;;;;;;;;;;;;2569;;;;;;;;
1878.0;1808.6;;;;;;;;;;;;;2510;;;;;;;;
1878.0;1808.6;;;;;;;;;;;;;2286;;;;;;;;
1878.0;1808.6;;;;;;;;;;;;;1975;;;;;;;;
1878.0;1809.5;;;;-1.1652757;-0.3019524;-0.52507025;;;;;;;;;;;;;;;
1878.0;1809.5;;;;-1.1829454;-0.30556872;-0.52426535;;;;;;;;;;;;;;;
1878.0;1809.5;;;;-1.1991998;-0.3096085;-0.523346;;;;;;;;;;;;;;;
1878.0;1809.5;;;;-1.2062455;-0.31372073;-0.5234528;;;;;;;;;;;;;;;
1878.0;1809.5;;;;-1.20459;-0.31827167;-0.5237313;;;;;;;;;;;;;;;
1880.0;1813.8;;;;;;;;;;21.847439;-5.386517;-16.399885;;;;;;;;;
1880.0;1813.8;;;;;;;1.2667623;0.25916317;-0.4248787;;;;;;;;;;;;
1880.0;1813.8;;;;;;;;;;23.983734;-7.9462566;-14.942626;;;;;;;;;
1880.0;1813.8;;;;;;;1.2339854;0.26813564;-0.42994475;;;;;;;;;;;;
1880.0;1819.2;;;;-1.2001458;-0.32311633;-0.52585226;;;;;;;;;;;;;;;
1880.0;1819.2;;;;-1.1984292;-0.3287697;-0.52971274;;;;;;;;;;;;;;;
1880.0;1819.2;;;;-1.202221;-0.3356934;-0.53166205;;;;;;;;;;;;;;;
1880.0;1819.2;;;;-1.2085572;-0.34416583;-0.53327566;;;;;;;;;;;;;;;
1880.0;1819.2;;;;-1.2145959;-0.35297397;-0.535965;;;;;;;;;;;;;;;
1880.0;1822.4;262143;262143;12944;;;;;;;;;;;;;;;;;;
1880.0;1823.4;;;;;;;;;;26.268806;-10.574664;-12.756737;;;;;;;;;
1880.0;1823.4;;;;;;;1.2137212;0.2722251;-0.43531603;;;;;;;;;;;;
1880.0;1823.4;;;;;;;;;;28.778955;-13.298441;-10.509811;;;;;;;;;
1880.0;1823.4;;;;;;;1.2253182;0.2719199;-0.43867305;;;;;;;;;;;;
1880.0;1829.3;;;;-1.2200776;-0.36130908;-0.5355416;;;;;;;;;;;;;;;
1880.0;1829.3;;;;-1.2264863;-0.3689728;-0.53540426;;;;;;;;;;;;;;;
1880.0;1829.3;;;;-1.2351152;-0.3749161;-0.5371323;;;;;;;;;;;;;;;
1880.0;1829.3;;;;-1.2463304;-0.37870795;-0.5387803;;;;;;;;;;;;;;;
1880.0;1829.3;;;;-1.2621385;-0.37876517;-0.540268;;;;;;;;;;;;;;;
1880.0;1833.1;;;;;;;;;;31.521805;-15.697958;-9.063997;;;;;;;;;
1880.0;1833.1;;;;;;;1.2566302;0.2684408;-0.44178593;;;;;;;;;;;;
1880.0;1833.1;;;;;;;;;;34.516434;-17.792292;-8.293406;;;;;;;;;
1880.0;1833.1;;;;;;;1.2690817;0.26075014;-0.4405652;;;;;;;;;;;;
1881.0;1839.4;;;;-1.2789766;-0.37608343;-0.54230124;;;;;;;;;;;;;;;
1881.0;1839.4;;;;-1.2927133;-0.37101367;-0.54393774;;;;;;;;;;;;;;;
1881.0;1839.4;;;;-1.3010789;-0.36301807;-0.54513556;;;;;;;;;;;;;;;
1881.0;1839.4;;;;-1.305401;-0.3531113;-0.545971;;;;;;;;;;;;;;;
1881.0;1839.4;;;;-1.3083192;-0.34067538;-0.5454827;;;;;;;;;;;;;;;
1881.0;1839.8;;;;;;;;;;;;;;;;;-20.584734;-50.359356;-101.59993;;1737.2
1881.0;1839.8;;;;;;;;;;;;;;-1.3921323;-0.73085725;-0.10571612;;;;;1737.2
1881.0;1839.8;;;;;;;;;;;;;;;;;-12.348553;-46.727654;-111.4307;;1737.2
1881.0;1839.8;;;;;;;;;;;;;;-1.6740624;-0.8009888;-0.117862485;;;;;1737.2
1881.0;1839.8;;;;;;;;;;;;;;;;;-5.0012207;-43.874172;-120.574814;;1746.8
1881.0;1839.8;;;;;;;;;;;;;;-1.9183325;-0.83785516;-0.1485641;;;;;1746.8
1881.0;1839.8;;;;;;;;;;;;;;;;;-0.10299997;-42.73736;-124.71389;;1746.8
1881.0;1839.8;;;;;;;;;;;;;;-1.9998169;-0.8697775;-0.22138126;;;;;1746.8
1881.0;1839.8;;;;;;;;;;;;;;;;;2.0256662;-43.78262;-124.988556;;1756.3
1881.0;1839.8;;;;;;;;;;;;;;-1.9998169;-0.77858824;-0.3234962;;;;;1756.3
1881.0;1839.8;;;;;;;;;;;;;;;;;2.1515548;-49.92828;-124.988556;;1756.3
1881.0;1839.8;;;;;;;;;;;;;;-1.9998169;-0.636433;-0.37403485;;;;;1756.3
1882.0;1840.5;;;;;;;;;;;;;;;;;4.1238136;-59.453873;-124.988556;;1766.0
1882.0;1840.5;;;;;;;;;;;;;;-1.9998169;-0.49305704;-0.30817592;;;;;1766.0
1882.0;1840.5;;;;;;;;;;;;;;;;;6.248665;-70.13153;-124.988556;;1766.0
1882.0;1840.5;;;;;;;;;;;;;;-1.8649861;-0.37385175;-0.2247383;;;;;1766.0
1882.0;1840.5;;;;;;;;;;;;;;;;;8.110294;-74.35454;-124.90463;;1775.6
1882.0;1840.5;;;;;;;;;;;;;;-1.6476333;-0.30854213;-0.13769951;;;;;1775.6
1882.0;1840.5;;;;;;;;;;;;;;;;;9.42259;-71.85201;-122.589035;;1775.6
1882.0;1840.5;;;;;;;;;;;;;;-1.5988647;-0.29206213;-0.07629628;;;;;1775.6
1882.0;1840.5;;;;;;;;;;;;;;;;;8.198035;-70.83346;-116.17634;;1785.2
1882.0;1840.5;;;;;;;;;;;;;;-1.5733513;-0.32276377;-0.06573687;;;;;1785.2
1882.0;1840.5;;;;;;;;;;;;;;;;;5.2911468;-70.01709;-109.260086;;1785.2
1882.0;1840.5;;;;;;;;;;;;;;-1.5510117;-0.3267922;-0.08221687;;;;;1785.2
1882.0;1842.5;;;;;;;;;;37.656025;-19.627216;-7.7097383;;;;;;;;;
1882.0;1842.5;;;;;;;1.2450942;0.2491531;-0.43244728;;;;;;;;;;;;
1882.0;1842.5;;;;;;;;;;40.780357;-20.496994;-6.504257;;;;;;;;;
1882.0;1842.5;;;;;;;1.2239753;0.23523667;-0.42774743;;;;;;;;;;;;
1882.0;1842.5;262143;262143;12957;;;;;;;;;;;;;;;;;;
1882.0;1848.4;;;;;;;;;;;;;2358;;;;;;;;
1882.0;1848.4;;;;;;;;;;;;;3956;;;;;;;;
1882.0;1848.4;;;;;;;;;;;;;3829;;;;;;;;
1882.0;1848.4;;;;;;;;;;;;;-3890;;;;;;;;
1882.0;1848.4;;;;;;;;;;;;;-18109;;;;;;;;
1883.0;1849.2;;;;-1.313881;-0.32573703;-0.54430014;;;;;;;;;;;;;;;
1883.0;1849.2;;;;-1.3220636;-0.30931476;-0.54110724;;;;;;;;;;;;;;;
1883.0;1849.2;;;;-1.3294564;-0.29277804;-0.5380326;;;;;;;;;;;;;;;
1883.0;1849.2;;;;-1.3352777;-0.2776642;-0.5353356;;;;;;;;;;;;;;;
1883.0;1849.2;;;;-1.3424989;-0.2650986;-0.53039175;;;;;;;;;;;;;;;
1883.0;1852.0;;;;;;;;;;43.83984;-21.160772;-5.1919613;;;;;;;;;
1883.0;1852.0;;;;;;;1.2000488;0.22498246;-0.4219489;;;;;;;;;;;;
1883.0;1852.0;;;;;;;;;;47.11295;-22.244177;-4.1848507;;;;;;;;;
1883.0;1852.0;;;;;;;1.1797235;0.21759698;-0.41505173;;;;;;;;;;;;
1883.0;1859.2;;;;-1.3500711;-0.25492862;-0.5244027;;;;;;;;;;;;;;;
1883.0;1859.2;;;;-1.3554574;-0.24740985;-0.51264197;;;;;;;;;;;;;;;
1883.0;1859.2;;;;-1.3578645;-0.2418938;-0.4990464;;;;;;;;;;;;;;;
1883.0;1859.2;;;;-1.3577462;-0.23939517;-0.4865952;;;;;;;;;;;;;;;
1883.0;1859.2;;;;-1.356743;-0.23915485;-0.4737702;;;;;;;;;;;;;;;
1883.0;1861.5;;;;;;;;;;50.43565;-23.64803;-3.8644063;;;;;;;;;
1883.0;1861.5;;;;;;;1.1532944;0.21655935;-0.4043092;;;;;;;;;;;;
1883.0;1861.5;;;;;;;;;;53.521835;-25.452436;-4.032258;;;;;;;;;
1883.0;1861.5;;;;;;;1.1322978;0.21405682;-0.3909421;;;;;;;;;;;;
1883.0;1862.5;262143;262143;12948;;;;;;;;;;;;;;;;;;
1938.0;1869.2;;;;-1.3546754;-0.23957828;-0.4594689;;;;;;;;;;;;;;;
1938.0;1869.2;;;;-1.3508111;-0.24132922;-0.44423681;;;;;;;;;;;;;;;
1938.0;1869.2;;;;-1.3474008;-0.24341968;-0.4280663;;;;;;;;;;;;;;;
1938.0;1869.2;;;;-1.3460428;-0.24380878;-0.4134789;;;;;;;;;;;;;;;
1938.0;1869.2;;;;-1.3443986;-0.24335101;-0.39851385;;;;;;;;;;;;;;;
1938.0;1870.8;;;;;;;;;;56.375317;-27.417065;-3.9864802;;;;;;;;;
1938.0;1870.8;;;;;;;1.1106906;0.2106998;-0.3761101;;;;;;;;;;;;
1938.0;1870.8;;;;;;;;;;58.98465;-29.744102;-4.036073;;;;;;;;;
1938.0;1870.8;;;;;;;1.0921965;0.20764793;-0.3695181;;;;;;;;;;;;
1938.0;1878.8;;;;-1.3406411;-0.24285892;-0.3829232;;;;;;;;;;;;;;;
1938.0;1878.8;;;;-1.3348619;-0.24264911;-0.36691287;;;;;;;;;;;;;;;
1938.0;1878.8;;;;-1.3288347;-0.24244311;-0.35221866;;;;;;;;;;;;;;;
1938.0;1878.8;;;;-1.3256646;-0.24173358;-0.3391991;;;;;;;;;;;;;;;
1938.0;1878.8;;;;-1.3241082;-0.23935321;-0.32603076;;;;;;;;;;;;;;;
1938.0;1880.1;;;;;;;;;;61.25065;-32.25425;-3.7575915;;;;;;;;;
1938.0;1880.1;;;;;;;1.0863369;0.20960112;-0.37324136;;;;;;;;;;;;
1938.0;1880.1;;;;;;;;;;63.047424;-34.74151;-3.7614062;;;;;;;;;
1938.0;1880.1;;;;;;;1.0862758;0.21271402;-0.3812372;;;;;;;;;;;;
1938.0;1882.1;262143;262143;12944;;;;;;;;;;;;;;;;;;
1938.0;1888.2;;;;;;;;;;;;;-27457;;;;;;;;
1938.0;1888.2;;;;;;;;;;;;;-22781;;;;;;;;
1938.0;1888.2;;;;;;;;;;;;;-8449;;;;;;;;
1938.0;1888.2;;;;;;;;;;;;;2974;;;;;;;;
1938.0;1888.2;;;;;;;;;;;;;5494;;;;;;;;
1940.0;1888.9;;;;-1.3218919;-0.23708346;-0.3130379;;;;;;;;;;;;;;;
1940.0;1888.9;;;;-1.3188745;-0.23595813;-0.30133823;;;;;;;;;;;;;;;
1940.0;1888.9;;;;-1.315838;-0.2346001;-0.2891808;;;;;;;;;;;;;;;
1940.0;1888.9;;;;-1.3127939;-0.2339249;-0.27769855;;;;;;;;;;;;;;;
1940.0;1888.9;;;;-1.309292;-0.23284152;-0.26692584;;;;;;;;;;;;;;;
1940.0;1889.7;;;;;;;;;;64.44365;-36.671803;-3.7537766;;;;;;;;;
1940.0;1889.7;;;;;;;1.0973846;0.21869564;-0.39118627;;;;;;;;;;;;
1940.0;1889.7;;;;;;;;;;65.64532;-37.766655;-3.051851;;;;;;;;;
1940.0;1889.7;;;;;;;1.1143528;0.21857357;-0.4001587;;;;;;;;;;;;
1940.0;1899.0;;;;-1.3059617;-0.2313042;-0.2551804;;;;;;;;;;;;;;;
1940.0;1899.0;;;;-1.3030359;-0.22968295;-0.24604419;;;;;;;;;;;;;;;
1940.0;1899.0;;;;-1.3011018;-0.2284737;-0.23875049;;;;;;;;;;;;;;;
1940.0;1899.0;;;;-1.2998964;-0.2274132;-0.23145297;;;;;;;;;;;;;;;
1940.0;1899.0;;;;-1.2985116;-0.22695544;-0.22424701;;;;;;;;;;;;;;;
1941.0;1899.5;;;;;;;;;;;;;;;;;0.79729605;-67.75872;-102.41248;;1794.7
1941.0;1899.5;;;;;;;;;;;;;;-1.5601672;-0.33167517;-0.07599109;;;;;1794.7
1941.0;1899.5;;;;;;;;;;;;;;;;;-5.9701834;-63.303017;-95.76327;;1794.7
1941.0;1899.5;;;;;;;;;;;;;;-1.6136967;-0.39930418;-0.074892424;;;;;1794.7
1941.0;1899.5;;;;;;;;;;;;;;;;;-12.703329;-58.49254;-89.94567;;1804.3
1941.0;1899.5;;;;;;;;;;;;;;-1.6727805;-0.48353526;-0.112125;;;;;1804.3
1941.0;1899.5;;;;;;;;;;;;;;;;;-18.086031;-54.30769;-85.219124;;1804.3
1941.0;1899.5;;;;;;;;;;;;;;-1.7309488;-0.5551317;-0.15009002;;;;;1804.3
1941.0;1899.5;;;;;;;;;;;;;;;;;-21.591846;-51.381725;-82.12912;;1813.9
1941.0;1899.5;;;;;;;;;;;;;;-1.7765435;-0.62483597;-0.17859432;;;;;1813.9
1941.0;1899.5;;;;;;;;;;;;;;;;;-23.583178;-49.470505;-80.05005;;1813.9
1941.0;1899.5;;;;;;;;;;;;;;-1.7811823;-0.6893521;-0.20435195;;;;;1813.9
1941.0;1899.3;;;;;;;;;;66.53417;-37.892544;-2.5864437;;;;;;;;;
1941.0;1899.3;;;;;;;1.1164281;0.22437209;-0.4054689;;;;;;;;;;;;
1941.0;1899.3;;;;;;;;;;67.12165;-37.171547;-1.8883327;;;;;;;;;
1941.0;1899.3;;;;;;;1.1125218;0.22547075;-0.4043092;;;;;;;;;;;;
1942.0;1900.6;;;;;;;;;;;;;;;;;-23.63277;-47.956024;-78.9056;;1823.6
1942.0;1900.6;;;;;;;;;;;;;;-1.7455977;-0.7199927;-0.20752586;;;;;1823.6
1942.0;1900.6;;;;;;;;;;;;;;;;;-22.804956;-47.059544;-78.17697;;1823.6
1942.0;1900.6;;;;;;;;;;;;;;-1.675222;-0.7198706;-0.19647816;;;;;1823.6
1942.0;1900.6;;;;;;;;;;;;;;;;;-21.41255;-46.24317;-77.5132;;1833.2
1942.0;1900.6;;;;;;;;;;;;;;-1.5815302;-0.7010712;-0.16351818;;;;;1833.2
1942.0;1900.6;;;;;;;;;;;;;;;;;-19.505142;-45.35432;-76.82272;;1833.2
1942.0;1900.6;;;;;;;;;;;;;;-1.4692831;-0.6468093;-0.12817775;;;;;1833.2
1942.0;1900.6;;;;;;;;;;;;;;;;;-17.677847;-43.813137;-75.56765;;1842.8
1942.0;1900.6;;;;;;;;;;;;;;-1.3852962;-0.58656573;-0.088015385;;;;;1842.8
1942.0;1900.6;;;;;;;;;;;;;;;;;-16.220589;-42.638172;-73.96161;;1842.8
1942.0;1900.6;;;;;;;;;;;;;;-1.2988678;-0.53022856;-0.04895169;;;;;1842.8
1942.0;1902.2;262143;262143;12942;;;;;;;;;;;;;;;;;;
1942.0;1908.7;;;;;;;;;;67.49931;-35.996582;-1.3542589;;;;;;;;;
1942.0;1908.7;;;;;;;1.1081882;0.22943816;-0.40253913;;;;;;;;;;;;
1942.0;1908.7;;;;;;;;;;67.68624;-33.970913;-1.0299997;;;;;;;;;
1942.0;1908.7;;;;;;;1.1036104;0.23334453;-0.3876461;;;;;;;;;;;;
1942.0;1908.9;;;;-1.2964593;-0.225853;-0.21685031;;;;;;;;;;;;;;;
1942.0;1908.9;;;;-1.2926828;-0.22407153;-0.20992282;;;;;;;;;;;;;;;
1942.0;1908.9;;;;-1.288643;-0.22252277;-0.20507815;;;;;;;;;;;;;;;
1942.0;1908.9;;;;-1.285103;-0.21987918;-0.20280078;;;;;;;;;;;;;;;
1942.0;1908.9;;;;-1.2818338;-0.21759036;-0.20121768;;;;;;;;;;;;;;;
1997.0;1918.2;;;;;;;;;;67.84646;-31.80029;-0.25940734;;;;;;;;;
1997.0;1918.2;;;;;;;1.0899991;0.2351146;-0.38288522;;;;;;;;;;;;
1997.0;1918.2;;;;;;;;;;67.57943;-30.030212;0.9575182;;;;;;;;;
1997.0;1918.2;;;;;;;1.0845668;0.23755608;-0.3822138;;;;;;;;;;;;
1997.0;1918.9;;;;-1.2784349;-0.2152367;-0.20119861;;;;;;;;;;;;;;;
1997.0;1918.9;;;;-1.2745553;-0.21350482;-0.199173;;;;;;;;;;;;;;;
1997.0;1918.9;;;;-1.2718087;-0.21240619;-0.20195392;;;;;;;;;;;;;;;
1997.0;1918.9;;;;-1.2665902;-0.21219257;-0.20567325;;;;;;;;;;;;;;;
1997.0;1918.9;;;;-1.2583543;-0.21203616;-0.2065964;;;;;;;;;;;;;;;
1997.0;1922.3;262143;262143;12948;;;;;;;;;;;;;;;;;;
1997.0;1927.9;;;;;;;;;;67.16361;-28.519547;0.8354442;;;;;;;;;
1997.0;1927.9;;;;;;;1.0925016;0.24573503;-0.37183753;;;;;;;;;;;;
1997.0;1927.9;;;;;;;;;;67.00339;-26.577806;-0.045777764;;;;;;;;;
1997.0;1927.9;;;;;;;1.1047701;0.25812554;-0.36213264;;;;;;;;;;;;
1997.0;1928.3;;;;;;;;;;;;;3431;;;;;;;;
1997.0;1928.3;;;;;;;;;;;;;2224;;;;;;;;
1997.0;1928.3;;;;;;;;;;;;;2052;;;;;;;;
1997.0;1928.3;;;;;;;;;;;;;1419;;;;;;;;
1997.0;1928.3;;;;;;;;;;;;;1306;;;;;;;;
1997.0;1928.9;;;;-1.247883;-0.21101001;-0.2063103;;;;;;;;;;;;;;;
1997.0;1928.9;;;;-1.2374803;-0.2103081;-0.20685199;;;;;;;;;;;;;;;
1997.0;1928.9;;;;-1.2275239;-0.20917895;-0.20783237;;;;;;;;;;;;;;;
1997.0;1928.9;;;;-1.2183114;-0.20874026;-0.20927432;;;;;;;;;;;;;;;
1997.0;1928.9;;;;-1.2094728;-0.2091904;-0.21001056;;;;;;;;;;;;;;;
1999.0;1937.3;;;;;;;;;;66.42735;-23.533587;-0.29755548;;;;;;;;;
1999.0;1937.3;;;;;;;1.1120945;0.2743614;-0.35633412;;;;;;;;;;;;
1999.0;1937.3;;;;;;;;;;65.7445;-19.619585;0.35859248;;;;;;;;;
1999.0;1937.3;;;;;;;1.0973235;0.29090244;-0.3460799;;;;;;;;;;;;
1999.0;1938.9;;;;-1.1986467;-0.21043399;-0.21102908;;;;;;;;;;;;;;;
1999.0;1938.9;;;;-1.1859094;-0.21254733;-0.21318057;;;;;;;;;;;;;;;
1999.0;1938.9;;;;-1.1707536;-0.21534732;-0.21812442;;;;;;;;;;;;;;;
1999.0;1938.9;;;;-1.1545945;-0.21778873;-0.22550967;;;;;;;;;;;;;;;
1999.0;1938.9;;;;-1.1387407;-0.21905139;-0.23334125;;;;;;;;;;;;;;;
1999.0;1942.5;262143;262143;12950;;;;;;;;;;;;;;;;;;
1999.0;1947.0;;;;;;;;;;65.1265;-15.606402;1.0795922;;;;;;;;;
1999.0;1947.0;;;;;;;1.0703452;0.30396435;-0.33246863;;;;;;;;;;;;
1999.0;1947.0;;;;;;;;;;64.3292;-12.142552;1.5602587;;;;;;;;;
1999.0;1947.0;;;;;;;1.0411695;0.31580552;-0.32245857;;;;;;;;;;;;
1999.0;1949.0;;;;-1.1257478;-0.22007373;-0.24079517;;;;;;;;;;;;;;;
1999.0;1949.0;;;;-1.1146394;-0.22016528;-0.24933246;;;;;;;;;;;;;;;
1999.0;1949.0;;;;-1.1045762;-0.21988681;-0.2595215;;;;;;;;;;;;;;;
1999.0;1949.0;;;;-1.0945169;-0.21987918;-0.26977924;;;;;;;;;;;;;;;
1999.0;1949.0;;;;-1.0842057;-0.21996692;-0.28142932;;;;;;;;;;;;;;;
1999.0;1956.6;;;;;;;;;;63.474686;-9.205146;1.9989624;;;;;;;;;
1999.0;1956.6;;;;;;;1.0236518;0.32410657;-0.31305888;;;;;;;;;;;;
1999.0;1956.6;;;;;;;;;;62.566757;-6.5881834;2.3537402;;;;;;;;;
1999.0;1956.6;;;;;;;1.0126041;0.33393353;-0.30695516;;;;;;;;;;;;
2000.0;1959.1;;;;-1.0742952;-0.22075275;-0.2943764;;;;;;;;;;;;;;;
2000.0;1959.1;;;;-1.0654718;-0.22178653;-0.3064423;;;;;;;;;;;;;;;
2000.0;1959.1;;;;-1.0567132;-0.22285464;-0.31766132;;;;;;;;;;;;;;;
2000.0;1959.1;;;;-1.048752;-0.22439578;-0.3288956;;;;;;;;;;;;;;;
2000.0;1959.1;;;;-1.0409242;-0.22548679;-0.33902743;;;;;;;;;;;;;;;
2000.0;1959.7;;;;;;;;;;;;;;;;;-14.679403;-41.356396;-71.44002;;1852.5
2000.0;1959.7;;;;;;;;;;;;;;-1.2315439;-0.50160223;-0.019959105;;;;;1852.5
2000.0;1959.7;;;;;;;;;;;;;;;;;-13.138219;-40.57817;-68.19742;;1852.5
2000.0;1959.7;;;;;;;;;;;;;;-1.1695913;-0.48652607;-0.0026245918;;;;;1852.5
2000.0;1959.7;;;;;;;;;;;;;;;;;-11.638996;-39.4528;-64.19187;;1862.0
2000.0;1959.7;;;;;;;;;;;;;;-1.1421247;-0.46833706;0.018066958;;;;;1862.0
2000.0;1959.7;;;;;;;;;;;;;;;;;-11.185034;-38.804287;-59.965054;;1862.0
2000.0;1959.7;;;;;;;;;;;;;;-1.117954;-0.43537706;0.032715842;;;;;1862.0
2000.0;1959.7;;;;;;;;;;;;;;;;;-12.359997;-38.277843;-56.096836;;1871.6
2000.0;1959.7;;;;;;;;;;;;;;-1.1051363;-0.4069338;0.049195837;;;;;1871.6
2000.0;1959.7;;;;;;;;;;;;;;;;;-15.102847;-37.709435;-53.075504;;1871.6
2000.0;1959.7;;;;;;;;;;;;;;-1.088107;-0.37995544;0.063417464;;;;;1871.6
2001.0;1960.5;;;;;;;;;;;;;;;;;-19.001587;-36.73284;-50.622578;;1881.2
2001.0;1960.5;;;;;;;;;;;;;;-1.0760826;-0.35859248;0.0524308;;;;;1881.2
2001.0;1960.5;;;;;;;;;;;;;;;;;-23.388622;-35.454876;-48.2078;;1881.2
2001.0;1960.5;;;;;;;;;;;;;;-1.0679036;-0.33924374;0.03424177;;;;;1881.2
2001.0;1960.5;;;;;;;;;;;;;;;;;-28.187658;-34.56221;-46.205025;;1890.9
2001.0;1960.5;;;;;;;;;;;;;;-1.0455031;-0.32483903;0.012329478;;;;;1890.9
2001.0;1960.5;;;;;;;;;;;;;;;;;-32.929474;-33.940395;-44.198433;;1890.9
2001.0;1960.5;;;;;;;;;;;;;;-1.0049745;-0.32148197;-0.013245033;;;;;1890.9
2001.0;1960.5;;;;;;;;;;;;;;;;;-36.96936;-32.567066;-41.718803;;1900.5
2001.0;1960.5;;;;;;;;;;;;;;-0.9751274;-0.32129887;-0.03564562;;;;;1900.5
2001.0;1960.5;;;;;;;;;;;;;;;;;-39.605392;-31.056398;-39.002655;;1900.5
2001.0;1960.5;;;;;;;;;;;;;;-0.9295938;-0.32453382;-0.04382458;;;;;1900.5
2001.0;1962.5;262143;262143;12939;;;;;;;;;;;;;;;;;;
2001.0;1966.0;;;;;;;;;;61.70461;-4.238258;2.6932585;;;;;;;;;
2001.0;1966.0;;;;;;;0.9997864;0.3416242;-0.30097353;;;;;;;;;;;;
2001.0;1966.0;;;;;;;;;;60.71657;-2.006592;3.2235177;;;;;;;;;
2001.0;1966.0;;;;;;;0.98525953;0.34900966;-0.2973113;;;;;;;;;;;;
2001.0;1968.5;;;;;;;;;;;;;2068;;;;;;;;
2001.0;1968.5;;;;;;;;;;;;;2363;;;;;;;;
2001.0;1968.5;;;;;;;;;;;;;1959;;;;;;;;
2001.0;1968.5;;;;;;;;;;;;;1481;;;;;;;;
2001.0;1968.5;;;;;;;;;;;;;1306;;;;;;;;
2002.0;1969.0;;;;-1.031128;-0.2262955;-0.3480225;;;;;;;;;;;;;;;
2002.0;1969.0;;;;-1.020733;-0.22746661;-0.35662463;;;;;;;;;;;;;;;
2002.0;1969.0;;;;-1.0080987;-0.22844699;-0.3646851;;;;;;;;;;;;;;;
2002.0;1969.0;;;;-0.9953996;-0.22955325;-0.37144092;;;;;;;;;;;;;;;
2002.0;1969.0;;;;-0.9832574;-0.2301903;-0.3782044;;;;;;;;;;;;;;;
2002.0;1975.5;;;;;;;;;;59.717094;0.22888882;3.8644063;;;;;;;;;
2002.0;1975.5;;;;;;;0.97024447;0.35389262;-0.2896817;;;;;;;;;;;;
2002.0;1975.5;;;;;;;;;;58.58791;2.3537402;4.6617026;;;;;;;;;
2002.0;1975.5;;;;;;;0.95272684;0.35853145;-0.285226;;;;;;;;;;;;
2002.0;1979.0;;;;-0.9716989;-0.23070529;-0.3836289;;;;;;;;;;;;;;;
2002.0;1979.0;;;;-0.9593812;-0.23126605;-0.38704306;;;;;;;;;;;;;;;
2002.0;1979.0;;;;-0.94620526;-0.23111728;-0.3898049;;;;;;;;;;;;;;;
2002.0;1979.0;;;;-0.93239987;-0.23068622;-0.39284903;;;;;;;;;;;;;;;
2002.0;1979.0;;;;-0.9189073;-0.22954562;-0.39488226;;;;;;;;;;;;;;;
2002.0;1982.7;262143;262143;12934;;;;;;;;;;;;;;;;;;
2002.0;1985.2;;;;;;;;;;57.30613;4.6617026;5.4170356;;;;;;;;;
2002.0;1985.2;;;;;;;0.93527025;0.36597797;-0.2816248;;;;;;;;;;;;
2002.0;1985.2;;;;;;;;;;55.87939;7.209998;6.0922575;;;;;;;;;
2002.0;1985.2;;;;;;;0.9236122;0.37134922;-0.27924436;;;;;;;;;;;;
2056.0;1989.1;;;;-0.90677655;-0.228241;-0.3963433;;;;;;;;;;;;;;;
2056.0;1989.1;;;;-0.8959619;-0.22739032;-0.3970452;;;;;;;;;;;;;;;
2056.0;1989.1;;;;-0.8870889;-0.22661212;-0.39758307;;;;;;;;;;;;;;;
2056.0;1989.1;;;;-0.8788415;-0.22667697;-0.39667517;;;;;;;;;;;;;;;
2056.0;1989.1;;;;-0.87077725;-0.2268906;-0.39495474;;;;;;;;;;;;;;;
2056.0;1994.5;;;;;;;;;;54.38017;9.651479;6.7445908;;;;;;;;;
2056.0;1994.5;;;;;;;0.9169591;0.37720877;-0.2832728;;;;;;;;;;;;
2056.0;1994.5;;;;;;;;;;52.8428;11.932737;7.2824793;;;;;;;;;
2056.0;1994.5;;;;;;;0.9046907;0.38148138;-0.28846094;;;;;;;;;;;;
2056.0;1998.9;;;;-0.8622514;-0.22759631;-0.3942948;;;;;;;;;;;;;;;
2056.0;1998.9;;;;-0.8537065;-0.22869876;-0.39209753;;;;;;;;;;;;;;;
2056.0;1998.9;;;;-0.84564984;-0.22976688;-0.38941962;;;;;;;;;;;;;;;
2056.0;1998.9;;;;-0.8376924;-0.23118213;-0.38660818;;;;;;;;;;;;;;;
2056.0;1998.9;;;;-0.8290254;-0.23229602;-0.38475806;;;;;;;;;;;;;;;
2056.0;2002.7;262143;262143;12928;;;;;;;;;;;;;;;;;;
2056.0;2004.1;;;;;;;;;;51.396984;13.866847;7.8356276;;;;;;;;;
2056.0;2004.1;;;;;;;0.8891873;0.3831904;-0.29700613;;;;;;;;;;;;
2056.0;2004.1;;;;;;;;;;49.83291;15.362254;8.449813;;;;;;;;;
2056.0;2004.1;;;;;;;0.8764306;0.3836787;-0.30176702;;;;;;;;;;;;
2056.0;2008.6;;;;;;;;;;;;;1189;;;;;;;;
2056.0;2008.6;;;;;;;;;;;;;750;;;;;;;;
2056.0;2008.6;;;;;;;;;;;;;294;;;;;;;;
2056.0;2008.6;;;;;;;;;;;;;201;;;;;;;;
2056.0;2008.6;;;;;;;;;;;;;171;;;;;;;;
2059.0;2009.1;;;;-0.82133496;-0.23288348;-0.38207632;;;;;;;;;;;;;;;
2059.0;2009.1;;;;-0.8156091;-0.23318484;-0.37821585;;;;;;;;;;;;;;;
2059.0;2009.1;;;;-0.81154644;-0.23287585;-0.37458423;;;;;;;;;;;;;;;
2059.0;2009.1;;;;-0.80868924;-0.2321854;-0.3702202;;;;;;;;;;;;;;;
2059.0;2009.1;;;;-0.8059732;-0.23160556;-0.36461642;;;;;;;;;;;;;;;
2059.0;2013.8;;;;;;;;;;48.234505;16.579182;9.128849;;;;;;;;;
2059.0;2013.8;;;;;;;0.8664205;0.3836787;-0.308298;;;;;;;;;;;;
2059.0;2013.8;;;;;;;;;;46.594135;17.654957;9.720146;;;;;;;;;
2059.0;2013.8;;;;;;;0.8600116;0.38550982;-0.31513414;;;;;;;;;;;;
2059.0;2019.1;;;;-0.80306256;-0.2313843;-0.35741046;;;;;;;;;;;;;;;
2059.0;2019.1;;;;-0.8002435;-0.23162845;-0.348465;;;;;;;;;;;;;;;
2059.0;2019.1;;;;-0.7960359;-0.23174289;-0.3432503;;;;;;;;;;;;;;;
2059.0;2019.1;;;;-0.7907449;-0.2312775;-0.33646014;;;;;;;;;;;;;;;
2059.0;2019.1;;;;-0.7868844;-0.23067859;-0.32785037;;;;;;;;;;;;;;;
2060.0;2020.1;;;;;;;;;;;;;;;;;-41.09699;-29.442732;-35.79821;;1910.2
2060.0;2020.1;;;;;;;;;;;;;;-0.8967559;-0.3317362;-0.04364147;;;;;1910.2
2060.0;2020.1;;;;;;;;;;;;;;;;;-41.356396;-28.03125;-32.02536;;1910.2
2060.0;2020.1;;;;;;;;;;;;;;-0.8655049;-0.33680227;-0.03723258;;;;;1910.2
2060.0;2020.1;;;;;;;;;;;;;;;;;-41.032135;-27.062288;-27.916805;;1919.8
2060.0;2020.1;;;;;;;;;;;;;;-0.8242439;-0.35572374;-0.025452437;;;;;1919.8
2060.0;2020.1;;;;;;;;;;;;;;;;;-39.963985;-25.776695;-23.007141;;1919.8
2060.0;2020.1;;;;;;;;;;;;;;-0.79628897;-0.377575;-0.017883847;;;;;1919.8
2060.0;2020.1;;;;;;;;;;;;;;;;;-37.846767;-24.330883;-17.700735;;1929.5
2060.0;2020.1;;;;;;;;;;;;;;-0.77163;-0.39509264;-0.0011597034;;;;;1929.5
2060.0;2020.1;;;;;;;;;;;;;;;;;-35.477768;-22.499771;-11.890775;;1929.5
2060.0;2020.1;;;;;;;;;;;;;;-0.76039916;-0.40650654;0.010376293;;;;;1929.5
2060.0;2021.2;;;;;;;;;;;;;;;;;-33.14692;-20.99292;-6.424146;;1939.2
2060.0;2021.2;;;;;;;;;;;;;;-0.74550617;-0.4163335;0.023804437;;;;;1939.2
2060.0;2021.2;;;;;;;;;;;;;;;;;-30.507065;-19.959105;-1.289407;;1939.2
2060.0;2021.2;;;;;;;;;;;;;;-0.7324442;-0.41248816;0.051759392;;;;;1939.2
2060.0;2021.2;;;;;;;;;;;;;;;;;-27.718435;-20.012512;3.5134435;;1948.9
2060.0;2021.2;;;;;;;;;;;;;;-0.71199685;-0.40009767;0.06732383;;;;;1948.9
2060.0;2021.2;;;;;;;;;;;;;;;;;-25.299845;-20.474104;7.9958496;;1948.9
2060.0;2021.2;;;;;;;;;;;;;;-0.690817;-0.38605914;0.07843257;;;;;1948.9
2060.0;2021.2;;;;;;;;;;;;;;;;;-24.063845;-19.978178;11.638996;;1958.5
2060.0;2021.2;;;;;;;;;;;;;;-0.6612751;-0.37885678;0.072878204;;;;;1958.5
2060.0;2021.2;;;;;;;;;;;;;;;;;-23.499252;-17.834253;14.706107;;1958.5
2060.0;2021.2;;;;;;;;;;;;;;-0.626484;-0.3985107;0.057313763;;;;;1958.5
2061.0;2023.3;;;;;;;;;;44.873653;18.349255;10.063478;;;;;;;;;
2061.0;2023.3;;;;;;;0.86074406;0.38612017;-0.32288584;;;;;;;;;;;;
2061.0;2023.3;;;;;;;;;;43.137913;18.944365;10.258034;;;;;;;;;
2061.0;2023.3;;;;;;;0.8545793;0.38526568;-0.33149204;;;;;;;;;;;;
2061.0;2022.8;262143;262143;12924;;;;;;;;;;;;;;;;;;
2061.0;2029.2;;;;-0.78662884;-0.22975925;-0.32094577;;;;;;;;;;;;;;;
2061.0;2029.2;;;;-0.7888299;-0.22854617;-0.31525043;;;;;;;;;;;;;;;
2061.0;2029.2;;;;-0.7920228;-0.22778323;-0.30762866;;;;;;;;;;;;;;;
2061.0;2029.2;;;;-0.7954446;-0.2274895;-0.29904178;;;;;;;;;;;;;;;
2061.0;2029.2;;;;-0.79618466;-0.22797778;-0.290741;;;;;;;;;;;;;;;
2061.0;2032.9;;;;;;;;;;41.32588;19.505142;10.338145;;;;;;;;;
2061.0;2032.9;;;;;;;0.849086;0.3842891;-0.33777887;;;;;;;;;;;;
2061.0;2032.9;;;;;;;;;;39.532913;20.05829;10.410626;;;;;;;;;
2061.0;2032.9;;;;;;;0.8411512;0.38148138;-0.346202;;;;;;;;;;;;
2061.0;2039.2;;;;-0.79516613;-0.22863773;-0.28359607;;;;;;;;;;;;;;;
2061.0;2039.2;;;;-0.79275906;-0.2290459;-0.27650073;;;;;;;;;;;;;;;
2061.0;2039.2;;;;-0.7900201;-0.22899249;-0.27064136;;;;;;;;;;;;;;;
2061.0;2039.2;;;;-0.7875253;-0.22855762;-0.26535037;;;;;;;;;;;;;;;
2061.0;2039.2;;;;-0.78411114;-0.22757342;-0.25823978;;;;;;;;;;;;;;;
2061.0;2042.4;;;;;;;;;;37.728508;20.416883;10.536515;;;;;;;;;
2061.0;2042.4;;;;;;;0.83816034;0.38117617;-0.35120702;;;;;;;;;;;;
2061.0;2042.4;;;;;;;;;;35.863064;20.825068;10.589923;;;;;;;;;
2061.0;2042.4;;;;;;;0.8363292;0.38111514;-0.3584704;;;;;;;;;;;;
2121.0;2043.0;262143;262143;12924;;;;;;;;;;;;;;;;;;
2121.0;2048.9;;;;;;;;;;;;;-293;;;;;;;;
2121.0;2048.9;;;;;;;;;;;;;-1144;;;;;;;;
2121.0;2048.9;;;;;;;;;;;;;-1872;;;;;;;;
2121.0;2048.9;;;;;;;;;;;;;-2283;;;;;;;;
2121.0;2048.9;;;;;;;;;;;;;-2693;;;;;;;;
2121.0;2049.2;;;;-0.7798883;-0.22640613;-0.25067905;;;;;;;;;;;;;;;
2121.0;2049.2;;;;-0.7750894;-0.22527316;-0.24424747;;;;;;;;;;;;;;;
2121.0;2049.2;;;;-0.7713281;-0.22415927;-0.23867801;;;;;;;;;;;;;;;
2121.0;2049.2;;;;-0.7684251;-0.22269061;-0.23322299;;;;;;;;;;;;;;;
2121.0;2049.2;;;;-0.76548016;-0.22110751;-0.22697452;;;;;;;;;;;;;;;
2121.0;2051.9;;;;;;;;;;33.9938;21.282846;10.471663;;;;;;;;;
2121.0;2051.9;;;;;;;0.8387707;0.37928402;-0.36469617;;;;;;;;;;;;
2121.0;2051.9;;;;;;;;;;32.17414;21.797846;10.353404;;;;;;;;;
2121.0;2051.9;;;;;;;0.83565784;0.3762932;-0.36909086;;;;;;;;;;;;
2121.0;2059.1;;;;-0.76221097;-0.21901706;-0.22298053;;;;;;;;;;;;;;;
2121.0;2059.1;;;;-0.7586442;-0.21755221;-0.2201691;;;;;;;;;;;;;;;
2121.0;2059.1;;;;-0.7549249;-0.21651462;-0.21554568;;;;;;;;;;;;;;;
2121.0;2059.1;;;;-0.75161374;-0.21611026;-0.2114487;;;;;;;;;;;;;;;
2121.0;2059.1;;;;-0.74834067;-0.21535113;-0.20825198;;;;;;;;;;;;;;;
2121.0;2061.4;;;;;;;;;;30.40025;22.267067;10.250404;;;;;;;;;
2121.0;2061.4;;;;;;;0.8289437;0.3714713;-0.37006745;;;;;;;;;;;;
2121.0;2061.4;;;;;;;;;;28.687399;22.6104;10.196997;;;;;;;;;
2121.0;2061.4;;;;;;;0.8237556;0.36664936;-0.37006745;;;;;;;;;;;;
2121.0;2063.0;262143;262143;12921;;;;;;;;;;;;;;;;;;
2124.0;2069.2;;;;-0.7454224;-0.21576312;-0.20553592;;;;;;;;;;;;;;;
2124.0;2069.2;;;;-0.7432175;-0.21655658;-0.20248798;;;;;;;;;;;;;;;
2124.0;2069.2;;;;-0.74077994;-0.21715167;-0.20062259;;;;;;;;;;;;;;;
2124.0;2069.2;;;;-0.73826987;-0.2181435;-0.1992226;;;;;;;;;;;;;;;
2124.0;2069.2;;;;-0.73429877;-0.21850207;-0.19821551;;;;;;;;;;;;;;;
2124.0;2071.0;;;;;;;;;;27.058474;23.102512;9.907071;;;;;;;;;
2124.0;2071.0;;;;;;;0.82631916;0.3642079;-0.36890775;;;;;;;;;;;;
2124.0;2071.0;;;;;;;;;;25.421919;23.701437;9.42259;;;;;;;;;
2124.0;2071.0;;;;;;;0.8245491;0.36396375;-0.36451307;;;;;;;;;;;;
2124.0;2079.3;;;;-0.72902304;-0.21880344;-0.19732669;;;;;;;;;;;;;;;
2124.0;2079.3;;;;-0.722519;-0.21817401;-0.19603351;;;;;;;;;;;;;;;
2124.0;2079.3;;;;-0.7148972;-0.21750262;-0.19630817;;;;;;;;;;;;;;;
2124.0;2079.3;;;;-0.706749;-0.2164307;-0.19672778;;;;;;;;;;;;;;;
2124.0;2079.3;;;;-0.6990395;-0.21541598;-0.19739535;;;;;;;;;;;;;;;
2125.0;2080.4;;;;;;;;;;;;;;;;;-23.36192;-14.236885;17.58629;;1968.2
2125.0;2080.4;;;;;;;;;;;;;;-0.59993285;-0.3991821;0.0336314;;;;;1968.2
2125.0;2080.4;;;;;;;;;;;;;;;;;-24.307993;-10.387737;19.94766;;1968.2
2125.0;2080.4;;;;;;;;;;;;;;-0.58717614;-0.38929412;0.011902219;;;;;1968.2
2125.0;2080.4;;;;;;;;;;;;;;;;;-26.753288;-7.5571456;21.546068;;1977.8
2125.0;2080.4;;;;;;;;;;;;;;-0.56892604;-0.37122715;-0.013428144;;;;;1977.8
2125.0;2080.4;;;;;;;;;;;;;;;;;-30.69399;-4.7875915;22.389141;;1977.8
2125.0;2080.4;;;;;;;;;;;;;;-0.5469527;-0.34388256;-0.031983398;;;;;1977.8
2125.0;2080.4;;;;;;;;;;;;;;;;;-35.81347;-1.4915922;22.900326;;1987.4
2125.0;2080.4;;;;;;;;;;;;;;-0.52626115;-0.31818599;-0.04791406;;;;;1987.4
2125.0;2080.4;;;;;;;;;;;;;;;;;-41.203804;2.2164068;23.64803;;1987.4
2125.0;2080.4;;;;;;;;;;;;;;-0.5215613;-0.2938322;-0.05487228;;;;;1987.4
2125.0;2080.6;;;;;;;;;;24.037142;24.159216;8.960998;;;;;;;;;
2125.0;2080.6;;;;;;;0.81984925;0.3582873;-0.35987428;;;;;;;;;;;;
2125.0;2080.6;;;;;;;;;;22.709585;24.544512;8.529923;;;;;;;;;
2125.0;2080.6;;;;;;;0.8174078;0.35230568;-0.35065767;;;;;;;;;;;;
2125.0;2081.1;;;;;;;;;;;;;;;;;-46.563614;5.1919613;24.807732;;1997.0
2125.0;2081.1;;;;;;;;;;;;;;-0.5233314;-0.26441237;-0.053590503;;;;;1997.0
2125.0;2081.1;;;;;;;;;;;;;;;;;-51.14139;7.06122;26.367992;;1997.0
2125.0;2081.1;;;;;;;;;;;;;;-0.52650535;-0.2360912;-0.044068728;;;;;1997.0
2125.0;2081.1;;;;;;;;;;;;;;;;;-55.101166;7.9081087;28.22199;;2006.6
2125.0;2081.1;;;;;;;;;;;;;;-0.5247353;-0.1988586;-0.03753777;;;;;2006.6
2125.0;2081.1;;;;;;;;;;;;;;;;;-58.908356;8.842738;30.3621;;2006.6
2125.0;2081.1;;;;;;;;;;;;;;-0.52986234;-0.1638844;-0.033753473;;;;;2006.6
2125.0;2081.1;;;;;;;;;;;;;;;;;-62.910095;9.685812;32.788326;;2016.3
2125.0;2081.1;;;;;;;;;;;;;;-0.53279215;-0.133549;-0.040223397;;;;;2016.3
2125.0;2081.1;;;;;;;;;;;;;;;;;-67.33147;10.54033;35.405285;;2016.3
2125.0;2081.1;;;;;;;;;;;;;;-0.5263833;-0.112857446;-0.05261391;;;;;2016.3
2125.0;2083.2;262143;262143;12921;;;;;;;;;;;;;;;;;;
2125.0;2089.1;;;;;;;;;;;;;-3394;;;;;;;;
2125.0;2089.1;;;;;;;;;;;;;-4268;;;;;;;;
2125.0;2089.1;;;;;;;;;;;;;-4960;;;;;;;;
2125.0;2089.1;;;;;;;;;;;;;-5348;;;;;;;;
2125.0;2089.1;;;;;;;;;;;;;-5631;;;;;;;;
2125.0;2089.3;;;;-0.6920281;-0.21442798;-0.19845203;;;;;;;;;;;;;;;
2125.0;2089.3;;;;-0.68528754;-0.21337512;-0.19942477;;;;;;;;;;;;;;;
2125.0;2089.3;;;;-0.67906195;-0.21323779;-0.19978717;;;;;;;;;;;;;;;
2125.0;2089.3;;;;-0.6731072;-0.21336368;-0.20034412;;;;;;;;;;;;;;;
2125.0;2089.3;;;;-0.6685105;-0.21387103;-0.20127872;;;;;;;;;;;;;;;
2127.0;2090.2;;;;;;;;;;21.51555;24.872585;8.064516;;;;;;;;;
2127.0;2090.2;;;;;;;0.816126;0.3451033;-0.34467605;;;;;;;;;;;;
2127.0;2090.2;;;;;;;;;;20.47792;25.517288;7.492294;;;;;;;;;
2127.0;2090.2;;;;;;;0.8157598;0.3418073;-0.33954895;;;;;;;;;;;;
2127.0;2095.3;;;;;;;;;;;;;;;;;-71.470535;11.753441;38.186287;;2026.0
2127.0;2095.3;;;;;;;;;;;;;;-0.5312662;-0.11749626;-0.06042665;;;;;2026.0
2127.0;2095.3;;;;;;;;;;;;;;;;;-74.84665;12.787255;41.4098;;2026.0
2127.0;2095.3;;;;;;;;;;;;;;-0.53675956;-0.15387432;-0.0601825;;;;;2026.0
2127.0;2095.3;;;;;;;;;;;;;;;;;-76.54043;13.626515;45.49547;;2035.6
2127.0;2095.3;;;;;;;;;;;;;;-0.5546434;-0.21271402;-0.0441908;;;;;2035.6
2127.0;2095.3;;;;;;;;;;;;;;;;;-75.95294;13.618885;50.1915;;2035.6
2127.0;2095.3;;;;;;;;;;;;;;-0.5732597;-0.27973264;-0.061830502;;;;;2035.6
2127.0;2095.3;;;;;;;;;;;;;;;;;-72.321236;12.222664;54.8265;;2045.3
2127.0;2095.3;;;;;;;;;;;;;;-0.5977355;-0.3582873;-0.054383986;;;;;2045.3
2127.0;2095.3;;;;;;;;;;;;;;;;;-66.13743;10.063478;59.29365;;2045.3
2127.0;2095.3;;;;;;;;;;;;;;-0.60878325;-0.43391216;-0.04626606;;;;;2045.3
2127.0;2099.2;;;;-0.66465;-0.21445087;-0.20251468;;;;;;;;;;;;;;;
2127.0;2099.2;;;;-0.6603928;-0.21464542;-0.20433047;;;;;;;;;;;;;;;
2127.0;2099.2;;;;-0.65612036;-0.21499637;-0.20538715;;;;;;;;;;;;;;;
2127.0;2099.2;;;;-0.6515427;-0.21495059;-0.20779803;;;;;;;;;;;;;;;
2127.0;2099.2;;;;-0.64771277;-0.21495059;-0.21040729;;;;;;;;;;;;;;;
2127.0;2099.6;;;;;;;;;;19.497513;26.387066;6.786554;;;;;;;;;
2127.0;2099.6;;;;;;;0.8127079;0.33582568;-0.33832818;;;;;;;;;;;;
2127.0;2099.6;;;;;;;;;;18.799402;27.184362;6.1151466;;;;;;;;;
2127.0;2099.6;;;;;;;0.80684835;0.3336894;-0.33545947;;;;;;;;;;;;
2175.0;2103.2;262143;262143;12907;;;;;;;;;;;;;;;;;;
2175.0;2109.2;;;;;;;;;;18.261513;27.512436;5.409406;;;;;;;;;
2175.0;2109.2;;;;;;;0.8008667;0.32898954;-0.33283487;;;;;;;;;;;;
2175.0;2109.2;;;;;;;;;;17.788475;27.93588;4.623554;;;;;;;;;
2175.0;2109.2;;;;;;;0.79622793;0.32294688;-0.33228552;;;;;;;;;;;;
2175.0;2109.3;;;;-0.6439057;-0.21480563;-0.21346286;;;;;;;;;;;;;;;
2175.0;2109.3;;;;-0.6407357;-0.21503833;-0.21628192;;;;;;;;;;;;;;;
2175.0;2109.3;;;;-0.6374665;-0.21488574;-0.21931079;;;;;;;;;;;;;;;
2175.0;2109.3;;;;-0.6345635;-0.2151337;-0.2227898;;;;;;;;;;;;;;;
2175.0;2109.3;;;;-0.63184744;-0.21532825;-0.22645572;;;;;;;;;;;;;;;
2175.0;2118.6;;;;;;;;;;17.529068;28.630177;3.6660361;;;;;;;;;
2175.0;2118.6;;;;;;;0.7905515;0.31745353;-0.3289285;;;;;;;;;;;;
2175.0;2118.6;;;;;;;;;;17.319254;29.572437;2.8649251;;;;;;;;;
2175.0;2118.6;;;;;;;0.7884762;0.30909148;-0.3246559;;;;;;;;;;;;
2175.0;2119.2;;;;-0.6298409;-0.2153435;-0.22929385;;;;;;;;;;;;;;;
2175.0;2119.2;;;;-0.6286698;-0.21486667;-0.23258594;;;;;;;;;;;;;;;
2175.0;2119.2;;;;-0.62899023;-0.21441272;-0.23605731;;;;;;;;;;;;;;;
2175.0;2119.2;;;;-0.6301194;-0.21377185;-0.23891452;;;;;;;;;;;;;;;
2175.0;2119.2;;;;-0.63164145;-0.213501;-0.24155429;;;;;;;;;;;;;;;
2175.0;2123.3;262143;262143;12919;;;;;;;;;;;;;;;;;;
2176.0;2128.3;;;;;;;;;;17.250587;30.663471;1.9264809;;;;;;;;;
2176.0;2128.3;;;;;;;0.7901853;0.305063;-0.32557145;;;;;;;;;;;;
2176.0;2128.3;;;;;;;;;;17.20481;31.910915;0.65233314;;;;;;;;;
2176.0;2128.3;;;;;;;0.7965331;0.30085146;-0.3274636;;;;;;;;;;;;
2176.0;2129.2;;;;;;;;;;;;;-5899;;;;;;;;
2176.0;2129.2;;;;;;;;;;;;;-5883;;;;;;;;
2176.0;2129.2;;;;;;;;;;;;;-5271;;;;;;;;
2176.0;2129.2;;;;;;;;;;;;;-4138;;;;;;;;
2176.0;2129.2;;;;;;;;;;;;;-2756;;;;;;;;
2176.0;2129.4;;;;-0.6330109;-0.21376804;-0.2438164;;;;;;;;;;;;;;;
2176.0;2129.4;;;;-0.634739;-0.21408847;-0.24544147;;;;;;;;;;;;;;;
2176.0;2129.4;;;;-0.6363755;-0.21424487;-0.24766925;;;;;;;;;;;;;;;
2176.0;2129.4;;;;-0.6379128;-0.21397403;-0.24961475;;;;;;;;;;;;;;;
2176.0;2129.4;;;;-0.640812;-0.21383289;-0.25040057;;;;;;;;;;;;;;;
2176.0;2137.9;;;;;;;;;;17.178104;33.26518;-0.6065554;;;;;;;;;
2176.0;2137.9;;;;;;;0.797937;0.2974334;-0.32898954;;;;;;;;;;;;
2176.0;2137.9;;;;;;;;;;17.26966;34.813988;-1.7319254;;;;;;;;;
2176.0;2137.9;;;;;;;0.79384744;0.2931608;-0.33265176;;;;;;;;;;;;
2176.0;2139.5;;;;-0.6442986;-0.21341327;-0.25015262;;;;;;;;;;;;;;;
2176.0;2139.5;;;;-0.6474648;-0.2132645;-0.24891666;;;;;;;;;;;;;;;
2176.0;2139.5;;;;-0.6514359;-0.21262363;-0.24748614;;;;;;;;;;;;;;;
2176.0;2139.5;;;;-0.6554795;-0.21198657;-0.24642566;;;;;;;;;;;;;;;
2176.0;2139.5;;;;-0.65990454;-0.21151736;-0.24551395;;;;;;;;;;;;;;;
2178.0;2140.5;;;;;;;;;;;;;;;;;-57.63039;6.984924;63.516647;;2055.0
2178.0;2140.5;;;;;;;;;;;;;;-0.60621965;-0.49848932;-0.032593768;;;;;2055.0
2178.0;2140.5;;;;;;;;;;;;;;;;;-47.410503;3.5515916;67.31239;;2055.0
2178.0;2140.5;;;;;;;;;;;;;;-0.6029237;-0.5572069;-0.02557451;;;;;2055.0
2178.0;2140.5;;;;;;;;;;;;;;;;;-36.381878;0.6218146;70.22309;;2064.6
2178.0;2140.5;;;;;;;;;;;;;;-0.59956664;-0.60847807;-0.024597919;;;;;2064.6
2178.0;2140.5;;;;;;;;;;;;;;;;;-25.543993;-1.3466293;72.37083;;2064.6
2178.0;2140.5;;;;;;;;;;;;;;-0.6082949;-0.6504715;-0.029969176;;;;;2064.6
2178.0;2140.5;;;;;;;;;;;;;;;;;-16.331219;-2.9641104;73.58394;;2074.3
2178.0;2140.5;;;;;;;;;;;;;;-0.6038392;-0.6801355;-0.04388562;;;;;2074.3
2178.0;2140.5;;;;;;;;;;;;;;;;;-9.060183;-3.3913696;73.84716;;2074.3
2178.0;2140.5;;;;;;;;;;;;;;-0.6154973;-0.7039399;-0.0496231;;;;;2074.3
2178.0;2143.5;262143;262143;12920;;;;;;;;;;;;;;;;;;
2178.0;2147.4;;;;;;;;;;17.323069;36.29795;-2.7390363;;;;;;;;;
2178.0;2147.4;;;;;;;0.78475296;0.28485978;-0.33411664;;;;;;;;;;;;
2178.0;2147.4;;;;;;;;;;17.410809;37.339397;-3.8338878;;;;;;;;;
2178.0;2147.4;;;;;;;0.77858824;0.27838984;-0.3342387;;;;;;;;;;;;
2178.0;2149.5;;;;-0.66437536;-0.21125415;-0.24401096;;;;;;;;;;;;;;;
2178.0;2149.5;;;;-0.6687203;-0.21075824;-0.24374393;;;;;;;;;;;;;;;
2178.0;2149.5;;;;-0.67299277;-0.21097186;-0.24357226;;;;;;;;;;;;;;;
2178.0;2149.5;;;;-0.6768876;-0.2106438;-0.24296954;;;;;;;;;;;;;;;
2178.0;2149.5;;;;-0.6813279;-0.21083072;-0.24219134;;;;;;;;;;;;;;;
2179.0;2155.9;;;;;;;;;;;;;;;;;-4.669332;-3.1815546;72.927795;;2084.0
2179.0;2155.9;;;;;;;;;;;;;;-0.6178167;-0.7152318;-0.06872769;;;;;2084.0
2179.0;2155.9;;;;;;;;;;;;;;;;;-3.4714804;-1.2932218;70.71902;;2084.0
2179.0;2155.9;;;;;;;;;;;;;;-0.6120792;-0.7068697;-0.09936827;;;;;2084.0
2179.0;2155.9;;;;;;;;;;;;;;;;;-4.9172945;1.3695182;67.43828;;2093.6
2179.0;2155.9;;;;;;;;;;;;;;-0.59651476;-0.67323834;-0.13666189;;;;;2093.6
2179.0;2155.9;;;;;;;;;;;;;;;;;-8.18659;5.138554;63.432724;;2093.6
2179.0;2155.9;;;;;;;;;;;;;;-0.59169286;-0.6220893;-0.16266365;;;;;2093.6
2179.0;2155.9;;;;;;;;;;;;;;;;;-11.787774;9.441664;59.781948;;2103.2
2179.0;2155.9;;;;;;;;;;;;;;-0.5924863;-0.5689871;-0.17114781;;;;;2103.2
2179.0;2155.9;;;;;;;;;;;;;;;;;-14.660329;13.355663;56.878872;;2103.2
2179.0;2155.9;;;;;;;;;;;;;;-0.5930357;-0.5202185;-0.17645802;;;;;2103.2
2179.0;2156.8;;;;;;;;;;17.471846;38.247322;-5.058443;;;;;;;;;
2179.0;2156.8;;;;;;;0.77407146;0.2727134;-0.33393353;;;;;;;;;;;;
2179.0;2156.8;;;;;;;;;;17.70455;39.040802;-6.3554797;;;;;;;;;
2179.0;2156.8;;;;;;;0.765038;0.26722008;-0.33063754;;;;;;;;;;;;
2179.0;2159.3;;;;-0.6859742;-0.21104053;-0.24066928;;;;;;;;;;;;;;;
2179.0;2159.3;;;;-0.69032675;-0.21080783;-0.23982242;;;;;;;;;;;;;;;
2179.0;2159.3;;;;-0.6944199;-0.2105408;-0.23905185;;;;;;;;;;;;;;;
2179.0;2159.3;;;;-0.69884497;-0.21045688;-0.23870471;;;;;;;;;;;;;;;
2179.0;2159.3;;;;-0.7033692;-0.21008685;-0.23747638;;;;;;;;;;;;;;;
2179.0;2163.5;262143;262143;12914;;;;;;;;;;;;;;;;;;
2237.0;2166.4;;;;;;;;;;18.066957;39.620655;-7.5228124;;;;;;;;;
2237.0;2166.4;;;;;;;0.75539416;0.26239815;-0.32715842;;;;;;;;;;;;
2237.0;2166.4;;;;;;;;;;18.32255;39.941097;-8.632923;;;;;;;;;
2237.0;2166.4;;;;;;;0.7439802;0.25647756;-0.32264167;;;;;;;;;;;;
2237.0;2169.3;;;;;;;;;;;;;-1273;;;;;;;;
2237.0;2169.3;;;;;;;;;;;;;191;;;;;;;;
2237.0;2169.3;;;;;;;;;;;;;1412;;;;;;;;
2237.0;2169.3;;;;;;;;;;;;;2265;;;;;;;;
2237.0;2169.3;;;;;;;;;;;;;2817;;;;;;;;
2237.0;2169.3;;;;-0.7071915;-0.20980838;-0.2367821;;;;;;;;;;;;;;;
2237.0;2169.3;;;;-0.7108422;-0.20859149;-0.23611835;;;;;;;;;;;;;;;
2237.0;2169.3;;;;-0.71355826;-0.20737842;-0.23418811;;;;;;;;;;;;;;;
2237.0;2169.3;;;;-0.7159272;-0.20655063;-0.23245624;;;;;;;;;;;;;;;
2237.0;2169.3;;;;-0.71799475;-0.20578387;-0.2318497;;;;;;;;;;;;;;;
2237.0;2175.7;;;;;;;;;;18.539995;39.971615;-9.861293;;;;;;;;;
2237.0;2175.7;;;;;;;0.73146766;0.2557451;-0.32142094;;;;;;;;;;;;
2237.0;2175.7;;;;;;;;;;18.925291;39.88769;-11.036257;;;;;;;;;
2237.0;2175.7;;;;;;;0.71828365;0.25122836;-0.31800288;;;;;;;;;;;;
2237.0;2179.2;;;;-0.71984106;-0.20528796;-0.23038104;;;;;;;;;;;;;;;
2237.0;2179.2;;;;-0.72089773;-0.20520023;-0.22854236;;;;;;;;;;;;;;;
2237.0;2179.2;;;;-0.72158056;-0.20557788;-0.2272034;;;;;;;;;;;;;;;
2237.0;2179.2;;;;-0.722416;-0.20538715;-0.22579578;;;;;;;;;;;;;;;
2237.0;2179.2;;;;-0.7221413;-0.20535663;-0.22511294;;;;;;;;;;;;;;;
2237.0;2183.4;262143;262143;12912;;;;;;;;;;;;;;;;;;
2239.0;2185.3;;;;;;;;;;19.398329;39.49858;-12.047182;;;;;;;;;
2239.0;2185.3;;;;;;;0.70619833;0.245674;-0.31250954;;;;;;;;;;;;
2239.0;2185.3;;;;;;;;;;19.817957;39.025543;-12.981811;;;;;;;;;
2239.0;2185.3;;;;;;;0.6985687;0.24134037;-0.30817592;;;;;;;;;;;;
2239.0;2189.3;;;;-0.72160345;-0.20522693;-0.22388843;;;;;;;;;;;;;;;
2239.0;2189.3;;;;-0.7226525;-0.20413211;-0.22280887;;;;;;;;;;;;;;;
2239.0;2189.3;;;;-0.72440344;-0.20343783;-0.22277454;;;;;;;;;;;;;;;
2239.0;2189.3;;;;-0.727356;-0.20293811;-0.2227402;;;;;;;;;;;;;;;
2239.0;2189.3;;;;-0.7298661;-0.20269015;-0.22166064;;;;;;;;;;;;;;;
2239.0;2195.0;;;;;;;;;;20.245216;38.747063;-14.210181;;;;;;;;;
2239.0;2195.0;;;;;;;0.6925871;0.23645741;-0.30738243;;;;;;;;;;;;
2239.0;2195.0;;;;;;;;;;20.672476;38.54488;-15.442366;;;;;;;;;
2239.0;2195.0;;;;;;;0.6841029;0.23523667;-0.3048799;;;;;;;;;;;;
2239.0;2199.4;;;;-0.73104864;-0.20250323;-0.22081378;;;;;;;;;;;;;;;
2239.0;2199.4;;;;-0.7314301;-0.20200732;-0.22002414;;;;;;;;;;;;;;;
2239.0;2199.4;;;;-0.7303582;-0.20200351;-0.21924976;;;;;;;;;;;;;;;
2239.0;2199.4;;;;-0.7288514;-0.2014809;-0.21831897;;;;;;;;;;;;;;;
2239.0;2199.4;;;;-0.7270966;-0.20126346;-0.21772006;;;;;;;;;;;;;;;
2242.0;2200.6;;;;;;;;;;;;;;;;;-16.422773;17.117067;55.14313;;2112.9
2242.0;2200.6;;;;;;;;;;;;;;-0.610126;-0.47193822;-0.16467787;;;;;2112.9
2242.0;2200.6;;;;;;;;;;;;;;;;;-17.456587;20.718252;54.35728;;2112.9
2242.0;2200.6;;;;;;;;;;;;;;-0.6390576;-0.43372905;-0.1469161;;;;;2112.9
2242.0;2200.6;;;;;;;;;;;;;;;;;-18.612476;23.583178;54.155098;;2122.6
2242.0;2200.6;;;;;;;;;;;;;;-0.671041;-0.40815455;-0.13342692;;;;;2122.6
2242.0;2200.6;;;;;;;;;;;;;;;;;-20.062105;25.555437;54.422134;;2122.6
2242.0;2200.6;;;;;;;;;;;;;;-0.70979947;-0.3965575;-0.11938841;;;;;2122.6
2242.0;2200.6;;;;;;;;;;;;;;;;;-21.931364;26.50151;54.41069;;2132.2
2242.0;2200.6;;;;;;;;;;;;;;-0.7354961;-0.38721886;-0.10382397;;;;;2132.2
2242.0;2200.6;;;;;;;;;;;;;;;;;-24.410994;26.993622;53.9758;;2132.2
2242.0;2200.6;;;;;;;;;;;;;;-0.73970765;-0.3723258;-0.09186071;;;;;2132.2
2242.0;2203.6;262143;262143;12912;;;;;;;;;;;;;;;;;;
2242.0;2204.5;;;;;;;;;;21.122623;38.243507;-16.510515;;;;;;;;;
2242.0;2204.5;;;;;;;0.6734825;0.23096408;-0.30323192;;;;;;;;;;;;
2242.0;2204.5;;;;;;;;;;21.649069;37.774284;-17.479475;;;;;;;;;
2242.0;2204.5;;;;;;;0.66225165;0.22827846;-0.29902035;;;;;;;;;;;;
2242.0;2209.4;;;;-0.72593313;-0.20079425;-0.21682361;;;;;;;;;;;;;;;
2242.0;2209.4;;;;-0.7255669;-0.19973376;-0.21646884;;;;;;;;;;;;;;;
2242.0;2209.4;;;;-0.72526175;-0.19912341;-0.21619037;;;;;;;;;;;;;;;
2242.0;2209.4;;;;-0.72430426;-0.19889072;-0.21655658;;;;;;;;;;;;;;;
2242.0;2209.4;;;;-0.72307974;-0.19834903;-0.2166405;;;;;;;;;;;;;;;
2248.0;2209.4;;;;;;;;;;;;;3206;;;;;;;;
2248.0;2209.4;;;;;;;;;;;;;3401;;;;;;;;
2248.0;2209.4;;;;;;;;;;;;;3274;;;;;;;;
2248.0;2209.4;;;;;;;;;;;;;3066;;;;;;;;
2248.0;2209.4;;;;;;;;;;;;;3066;;;;;;;;
2248.0;2214.1;;;;;;;;;;22.217474;37.232582;-18.44081;;;;;;;;;
2248.0;2214.1;;;;;;;0.656209;0.22577593;-0.2936491;;;;;;;;;;;;
2248.0;2214.1;;;;;;;;;;22.827845;36.481064;-19.337292;;;;;;;;;
2248.0;2214.1;;;;;;;0.6510208;0.22217475;-0.28827783;;;;;;;;;;;;
2248.0;2215.6;;;;;;;;;;;;;;;;;-27.371288;28.004547;53.22428;;2141.8
2248.0;2215.6;;;;;;;;;;;;;;-0.75429547;-0.35938597;-0.07641835;;;;;2141.8
2248.0;2215.6;;;;;;;;;;;;;;;;;-30.758842;28.660696;51.93487;;2141.8
2248.0;2215.6;;;;;;;;;;;;;;-0.7521592;-0.3515122;-0.04937895;;;;;2141.8
2248.0;2215.6;;;;;;;;;;;;;;;;;-34.90936;29.40077;49.88632;;2151.5
2248.0;2215.6;;;;;;;;;;;;;;-0.74007386;-0.34534746;-0.030823695;;;;;2151.5
2248.0;2215.6;;;;;;;;;;;;;;;;;-40.22721;30.640583;47.276985;;2151.5
2248.0;2215.6;;;;;;;;;;;;;;-0.73757136;-0.336375;-0.013183996;;;;;2151.5
2248.0;2215.6;;;;;;;;;;;;;;;;;-47.01758;31.613361;44.08399;;2161.2
2248.0;2215.6;;;;;;;;;;;;;;-0.72688985;-0.3361919;-0.0050660726;;;;;2161.2
2248.0;2215.6;;;;;;;;;;;;;;;;;-55.085907;32.185585;40.261543;;2161.2
2248.0;2215.6;;;;;;;;;;;;;;-0.73018587;-0.34662923;-0.010498367;;;;;2161.2
2248.0;2219.3;;;;-0.72134787;-0.19810489;-0.21580508;;;;;;;;;;;;;;;
2248.0;2219.3;;;;-0.7184983;-0.19816592;-0.21507266;;;;;;;;;;;;;;;
2248.0;2219.3;;;;-0.7157288;-0.19781116;-0.21531299;;;;;;;;;;;;;;;
2248.0;2219.3;;;;-0.71413046;-0.19739917;-0.21525195;;;;;;;;;;;;;;;
2248.0;2219.3;;;;-0.71204;-0.19713214;-0.21521762;;;;;;;;;;;;;;;
2298.0;2223.5;;;;;;;;;;23.426771;35.73336;-20.187994;;;;;;;;;
2298.0;2223.5;;;;;;;0.6504105;0.22083193;-0.28778955;;;;;;;;;;;;
2298.0;2223.5;;;;;;;;;;24.044771;34.80636;-21.153143;;;;;;;;;
2298.0;2223.5;;;;;;;0.65614796;0.21948913;-0.28675193;;;;;;;;;;;;
2298.0;2223.6;262143;262143;12921;;;;;;;;;;;;;;;;;;
2298.0;2229.3;;;;-0.7091103;-0.19708255;-0.21416476;;;;;;;;;;;;;;;
2298.0;2229.3;;;;-0.7063599;-0.19692233;-0.21133426;;;;;;;;;;;;;;;
2298.0;2229.3;;;;-0.70278174;-0.19754794;-0.21027377;;;;;;;;;;;;;;;
2298.0;2229.3;;;;-0.6991845;-0.1985741;-0.21092227;;;;;;;;;;;;;;;
2298.0;2229.3;;;;-0.6981736;-0.19887546;-0.21134189;;;;;;;;;;;;;;;
2298.0;2232.8;;;;;;;;;;24.704735;34.176914;-22.164066;;;;;;;;;
2298.0;2232.8;;;;;;;0.6574908;0.2148503;-0.28583637;;;;;;;;;;;;
2298.0;2232.8;;;;;;;;;;25.357065;33.566547;-23.05292;;;;;;;;;
2298.0;2232.8;;;;;;;0.65004426;0.21045564;-0.28394422;;;;;;;;;;;;
2298.0;2238.9;;;;-0.6981278;-0.19985965;-0.21075824;;;;;;;;;;;;;;;
2298.0;2238.9;;;;-0.696827;-0.20096591;-0.21058276;;;;;;;;;;;;;;;
2298.0;2238.9;;;;-0.6953736;-0.20294574;-0.21142963;;;;;;;;;;;;;;;
2298.0;2238.9;;;;-0.6953164;-0.20469287;-0.21073917;;;;;;;;;;;;;;;
2298.0;2238.9;;;;-0.6954079;-0.20655826;-0.2103844;;;;;;;;;;;;;;;
2298.0;2242.2;;;;;;;;;;26.0094;33.18125;-23.846401;;;;;;;;;
2298.0;2242.2;;;;;;;0.64424574;0.20270394;-0.27875605;;;;;;;;;;;;
2298.0;2242.2;;;;;;;;;;26.81814;32.624287;-24.750511;;;;;;;;;
2298.0;2242.2;;;;;;;0.6400342;0.19788201;-0.27130955;;;;;;;;;;;;
2301.0;2243.3;262143;262143;12921;;;;;;;;;;;;;;;;;;
2301.0;2249.1;;;;-0.69398886;-0.20879367;-0.20958713;;;;;;;;;;;;;;;
2301.0;2249.1;;;;-0.6914521;-0.2112427;-0.20879367;;;;;;;;;;;;;;;
2301.0;2249.1;;;;-0.68876654;-0.2139931;-0.20709231;;;;;;;;;;;;;;;
2301.0;2249.1;;;;-0.6856995;-0.21625903;-0.2060242;;;;;;;;;;;;;;;
2301.0;2249.1;;;;-0.6807099;-0.21808627;-0.20497134;;;;;;;;;;;;;;;
2301.0;2249.2;;;;;;;;;;;;;3088;;;;;;;;
2301.0;2249.2;;;;;;;;;;;;;2947;;;;;;;;
2301.0;2249.2;;;;;;;;;;;;;2731;;;;;;;;
2301.0;2249.2;;;;;;;;;;;;;2458;;;;;;;;
2301.0;2249.2;;;;;;;;;;;;;2140;;;;;;;;
2301.0;2251.8;;;;;;;;;;27.573473;32.23136;-25.639362;;;;;;;;;
2301.0;2251.8;;;;;;;0.64101076;0.1953795;-0.2630085;;;;;;;;;;;;
2301.0;2251.8;;;;;;;;;;28.279213;31.823177;-26.490067;;;;;;;;;
2301.0;2251.8;;;;;;;0.64259773;0.19116795;-0.2590411;;;;;;;;;;;;
2301.0;2259.2;;;;-0.6770173;-0.21979526;-0.20386508;;;;;;;;;;;;;;;
2301.0;2259.2;;;;-0.67441946;-0.22126392;-0.20253757;;;;;;;;;;;;;;;
2301.0;2259.2;;;;-0.6733971;-0.2226868;-0.20051959;;;;;;;;;;;;;;;
2301.0;2259.2;;;;-0.6747704;-0.22423556;-0.19913486;;;;;;;;;;;;;;;
2301.0;2259.2;;;;-0.6750985;-0.22641376;-0.19769672;;;;;;;;;;;;;;;
2303.0;2260.5;;;;;;;;;;;;;;;;;-63.92102;32.082584;36.278877;;2170.7
2303.0;2260.5;;;;;;;;;;;;;;-0.7256081;-0.35767692;-0.019226661;;;;;2170.7
2303.0;2260.5;;;;;;;;;;;;;;;;;-72.84005;30.766472;32.105473;;2170.7
2303.0;2260.5;;;;;;;;;;;;;;-0.7121189;-0.37623218;-0.039674062;;;;;2170.7
