patientId;holterMac;flexMac
;CA:F3:0B:1E:33:78;D3:4A:5C:52:80:78
receivedTimeStamp;timeStamp;red;ir;green;adxl_accX;adxl_accY;adxl_accZ;lsm_accelX;lsm_accelY;lsm_accelZ;lsm_gyroX;lsm_gyroY;lsm_gyroZ;ecg;flex_lsm_accelX;flex_lsm_accelY;flex_lsm_accelZ;flex_lsm_gyroX;flex_lsm_gyroY;flex_lsm_gyroZ;flex_cmd;flexTimeStamp;
250.0;168.2;;;;;;;;;;;;;;;;;;;;17;0.1;
250.0;168.2;;;;;;;;;;;;;;;;;13.641774;0.8659627;0.3662221;;127.4;
250.0;168.2;;;;;;;;;;;;;;0.8865627;-0.24420911;-0.22907193;;;;;127.4;
250.0;168.2;;;;;;;;;;;;;;;;;-5.893887;-18.108921;-8.728293;;127.4;
250.0;168.2;;;;;;;;;;;;;;0.923307;-0.25305948;-0.23780023;;;;;127.4;
250.0;168.2;;;;;;;;;;;;;;;;;-65.52324;-84.83001;-63.123726;;137.1;
250.0;168.2;;;;;;;;;;;;;;0.9225745;-0.25202185;-0.23987548;;;;;137.1;
250.0;168.2;;;;;;;;;;;;;;;;;-122.631;-124.988556;-120.7503;;137.1;
250.0;168.2;;;;;;;;;;;;;;0.92178106;-0.25214392;-0.23902097;;;;;137.1;
309.0;198.2;;;;;;;;;;;;;;;;;-58.46202;-124.90845;-78.61949;;146.7;
309.0;198.2;;;;;;;;;;;;;;0.92287976;-0.25379193;-0.23871578;;;;;146.7;
309.0;198.2;;;;;;;;;;;;;;;;;8.5909605;-124.95422;-32.26951;;146.7;
309.0;198.2;;;;;;;;;;;;;;0.92043823;-0.25251016;-0.23816645;;;;;146.7;
309.0;198.2;;;;;;;;;;;;;;;;;4.3641467;-96.915344;-24.788658;;156.3;
309.0;198.2;;;;;;;;;;;;;;0.9187292;-0.25183874;-0.23584704;;;;;156.3;
309.0;198.2;;;;;;;;;;;;;;;;;-2.9793696;-6.1418505;-0.24796289;;156.3;
309.0;198.2;;;;;;;;;;;;;;0.9215369;-0.24970244;-0.23572497;;;;;156.3;
309.0;198.2;;;;;;;;;;;;;;;;;-3.8453321;1.4763329;1.5030366;;165.8;
309.0;198.2;;;;;;;;;;;;;;0.9214759;-0.24817652;-0.23371075;;;;;165.8;
309.0;198.2;;;;;;;;;;;;;;;;;-4.119999;1.617481;1.4343699;;165.8;
309.0;198.2;;;;;;;;;;;;;;0.9229408;-0.24970244;-0.23169653;;;;;165.8;
309.0;228.6;;;;;;;;;;;;;;;;;-4.299295;1.8311106;1.575518;;175.5;
309.0;228.6;;;;;;;;;;;;;;0.9229408;-0.24671163;-0.22998749;;;;;175.5;
309.0;228.6;;;;;;;;;;;;;;;;;-4.5129247;1.7052218;1.3046663;;175.5;
309.0;228.6;;;;;;;;;;;;;;0.92605364;-0.24897;-0.2287057;;;;;175.5;
309.0;228.6;;;;;;;;;;;;;;;;;-4.799036;1.8272958;1.1711478;;185.1;
309.0;228.6;;;;;;;;;;;;;;0.9279458;-0.24622333;-0.22998749;;;;;185.1;
309.0;228.6;;;;;;;;;;;;;;;;;-4.997406;1.842555;1.2054812;;185.1;
309.0;228.6;;;;;;;;;;;;;;0.92660296;-0.24958037;-0.22779016;;;;;185.1;
309.0;228.6;;;;;;;;;;;;;;;;;-5.138554;1.8044069;0.9765923;;194.8;
309.0;228.6;;;;;;;;;;;;;;0.9279458;-0.2492752;-0.2283395;;;;;194.8;
309.0;228.6;;;;;;;;;;;;;;;;;-5.104221;1.8044069;0.8964812;;194.8;
309.0;228.6;;;;;;;;;;;;;;0.9279458;-0.250618;-0.22577593;;;;;194.8;
402.0;258.2;;;;;;;;;;;;;;;;;-5.306406;1.8501847;0.8964812;;204.5;
402.0;258.2;;;;;;;;;;;;;;0.9286782;-0.25299844;-0.2278512;;;;;204.5;
402.0;258.2;;;;;;;;;;;;;;;;;-5.3979616;1.8845179;0.59511095;;204.5;
402.0;258.2;;;;;;;;;;;;;;0.92568743;-0.25135043;-0.2273629;;;;;204.5;
402.0;258.2;;;;;;;;;;;;;;;;;-5.447554;1.8349254;0.553148;;214.2;
402.0;258.2;;;;;;;;;;;;;;0.9261757;-0.2537309;-0.22595905;;;;;214.2;
402.0;258.2;;;;;;;;;;;;;;;;;-5.565813;1.781518;0.5226295;;214.2;
402.0;258.2;;;;;;;;;;;;;;0.92440563;-0.2547075;-0.22589801;;;;;214.2;
402.0;258.2;;;;;;;;;;;;;;;;;-5.558183;1.7777032;0.3089999;;223.8;
402.0;258.2;;;;;;;;;;;;;;0.9247108;-0.25641653;-0.22650838;;;;;223.8;
402.0;258.2;;;;;;;;;;;;;;;;;-5.489517;1.8311106;0.26322216;;223.8;
402.0;258.2;;;;;;;;;;;;;;0.9238563;-0.2569048;-0.22711875;;;;;223.8;
402.0;288.2;;;;;;;;;;;;;;;;;-5.466628;1.7052218;0.1678518;;233.5;
402.0;288.2;;;;;;;;;;;;;;0.9236122;-0.25721;-0.22571489;;;;;233.5;
402.0;288.2;;;;;;;;;;;;;;;;;-5.584887;1.7662587;-0.03051851;;233.5;
402.0;288.2;;;;;;;;;;;;;;0.92458874;-0.2446974;-0.2273629;;;;;233.5;
402.0;288.2;;;;;;;;;;;;;;;;;-5.592517;1.7891476;0.12207404;;243.1;
402.0;288.2;;;;;;;;;;;;;;0.913358;-0.2642903;-0.22321238;;;;;243.1;
402.0;288.2;;;;;;;;;;;;;;;;;-5.138554;1.6441847;0.14877774;;243.1;
402.0;288.2;;;;;;;;;;;;;;0.91927856;-0.26459548;-0.21546067;;;;;243.1;
402.0;288.2;;;;;;;;;;;;;;;;;-5.0279245;1.3618885;-0.053407393;;252.7;
402.0;288.2;;;;;;;;;;;;;;0.92818993;-0.26483962;-0.22516556;;;;;252.7;
402.0;288.2;;;;;;;;;;;;;;;;;-4.711295;1.3618885;-0.08011109;;252.7;
402.0;288.2;;;;;;;;;;;;;;0.92440563;-0.26233712;-0.22400586;;;;;252.7;
453.0;318.4;;;;;;;;;;;;;;;;;-4.837184;1.3351848;-0.11444441;;262.3;
453.0;318.4;;;;;;;;;;;;;;0.9255043;-0.26056704;-0.22315134;;;;;262.3;
453.0;318.4;;;;;;;;;;;;;;;;;-4.8829613;1.4038514;-0.03051851;;262.3;
453.0;318.4;;;;;;;;;;;;;;0.9215369;-0.26062807;-0.22070986;;;;;262.3;
453.0;318.4;;;;;;;;;;;;;;;;;-4.7418137;1.2779626;-0.011444441;;272.0;
453.0;318.4;;;;;;;;;;;;;;0.92440563;-0.25971252;-0.21973327;;;;;272.0;
453.0;318.4;;;;;;;;;;;;;;;;;-4.799036;1.4343699;-0.049592577;;272.0;
453.0;318.4;;;;;;;;;;;;;;0.9238563;-0.25916317;-0.21857357;;;;;272.0;
453.0;318.4;;;;;;;;;;;;;;;;;-4.9058504;1.3504441;0.0;;281.7;
453.0;318.4;;;;;;;;;;;;;;0.9234901;-0.2612995;-0.22040467;;;;;281.7;
453.0;318.4;;;;;;;;;;;;;;;;;-4.9401836;1.3237404;0.07629627;;281.7;
453.0;318.4;;;;;;;;;;;;;;0.9237953;-0.25916317;-0.22064883;;;;;281.7;
453.0;348.4;;;;;;;;;;;;;;;;;-4.860073;1.3122959;0.12207404;;291.4;
453.0;348.4;;;;;;;;;;;;;;0.92281866;-0.25745416;-0.22022156;;;;;291.4;
453.0;348.4;;;;;;;;;;;;;;;;;-4.554888;1.2665181;0.20981476;;291.4;
453.0;348.4;;;;;;;;;;;;;;0.9238563;-0.26190984;-0.21692556;;;;;291.4;
453.0;348.4;;;;;;;;;;;;;;;;;-4.6006656;1.3237404;0.22507401;;301.0;
453.0;348.4;;;;;;;;;;;;;;0.9223914;-0.26197088;-0.21570483;;;;;301.0;
453.0;348.4;;;;;;;;;;;;;;;;;-4.5930357;1.3618885;0.3318888;;301.0;
453.0;348.4;;;;;;;;;;;;;;0.92196417;-0.26313058;-0.21668142;;;;;301.0;
453.0;348.4;;;;;;;;;;;;;;;;;-4.7799616;1.2321848;0.43488875;;310.7;
453.0;348.4;;;;;;;;;;;;;;0.92324597;-0.26435134;-0.21521653;;;;;310.7;
453.0;348.4;;;;;;;;;;;;;;;;;-4.909665;1.2245551;0.54551834;;310.7;
453.0;348.4;;;;;;;;;;;;;;0.9227576;-0.26569414;-0.21710868;;;;;310.7;
515.0;378.4;;;;;;;;;;;;;;;;;-4.936369;1.3008515;0.6027406;;320.3;
515.0;378.4;;;;;;;;;;;;;;0.92336804;-0.26667073;-0.21588793;;;;;320.3;
515.0;378.4;;;;;;;;;;;;;;;;;-4.9859614;1.3237404;0.6447035;;320.3;
515.0;378.4;;;;;;;;;;;;;;0.9251381;-0.2689291;-0.21625416;;;;;320.3;
515.0;378.4;;;;;;;;;;;;;;;;;-4.871517;1.289407;0.59129614;;330.0;
515.0;378.4;;;;;;;;;;;;;;0.9236122;-0.2694174;-0.21686453;;;;;330.0;
515.0;378.4;;;;;;;;;;;;;;;;;-4.844814;1.167333;0.6179998;;330.0;
515.0;378.4;;;;;;;;;;;;;;0.9234901;-0.2702109;-0.21668142;;;;;330.0;
515.0;378.4;;;;;;;;;;;;;;;;;-4.7875915;1.2512589;0.76296276;;339.6;
515.0;378.4;;;;;;;;;;;;;;0.9223304;-0.27130955;-0.21558276;;;;;339.6;
515.0;378.4;;;;;;;;;;;;;;;;;-4.696036;1.1787775;0.7896664;;339.6;
515.0;378.4;;;;;;;;;;;;;;0.92318493;-0.2702109;-0.21771905;;;;;339.6;
515.0;401.0;;;;;;;;;;;;;;;;;-4.608295;1.1597034;0.84307384;;349.2;
515.0;401.0;;;;;;;;;;;;;;0.9230018;-0.27246925;-0.21668142;;;;;349.2;
515.0;401.0;;;;;;;;;;;;;;;;;-4.360332;1.1215552;0.8354442;;349.2;
515.0;401.0;;;;;;;;;;;;;;0.92287976;-0.27063814;-0.21619312;;;;;349.2;
515.0;401.0;;;;;;;;;;;;;;;;;-4.0971103;1.1177404;0.84307384;;358.9;
515.0;401.0;;;;;;;;;;;;;;0.920011;-0.26978362;-0.21411787;;;;;358.9;
515.0;401.0;;;;;;;;;;;;;;;;;-3.9216285;1.1520737;0.8163701;;358.9;
515.0;401.0;;;;;;;;;;;;;;0.9211707;-0.2675863;-0.21369061;;;;;358.9;
515.0;401.0;;;;;;;;;;;;;;;;;-3.6088138;1.0147405;0.7705924;;368.5;
515.0;401.0;;;;;;;;;;;;;;0.9213538;-0.26819667;-0.21454512;;;;;368.5;
515.0;401.0;;;;;;;;;;;;;;;;;-3.2654805;1.0109257;0.6904813;;368.5;
515.0;401.0;;;;;;;;;;;;;;0.92263556;-0.26783043;-0.21576586;;;;;368.5;
575.0;453.9;;;;;;;;;;;;;;;;;-2.9831843;0.9575182;0.6714072;;378.1;
575.0;453.9;;;;;;;;;;;;;;0.92391735;-0.27063814;-0.21454512;;;;;378.1;
575.0;453.9;;;;;;;;;;;;;;;;;-2.639851;1.0605181;0.5607776;;378.1;
575.0;453.9;;;;;;;;;;;;;;0.92477185;-0.26459548;-0.21387371;;;;;378.1;
575.0;453.9;;;;;;;;;;;;;;;;;-2.4338512;0.9575182;0.5188147;;387.7;
575.0;453.9;;;;;;;;;;;;;;0.9269082;-0.26422927;-0.21546067;;;;;387.7;
575.0;453.9;;;;;;;;;;;;;;;;;-2.1591845;0.96896267;0.48066652;;387.7;
575.0;453.9;;;;;;;;;;;;;;0.92788476;-0.2674032;-0.21552171;;;;;387.7;
575.0;453.9;;;;;;;;;;;;;;;;;-1.9646292;1.045259;0.29374066;;397.4;
575.0;453.9;;;;;;;;;;;;;;0.92672503;-0.26239815;-0.2156438;;;;;397.4;
575.0;453.9;;;;;;;;;;;;;;;;;-1.9074068;1.0757774;0.24796289;;397.4;
575.0;453.9;;;;;;;;;;;;;;0.9288614;-0.26459548;-0.21552171;;;;;397.4;
575.0;461.4;;;;;;;;;;;;;;;;;-1.7509995;1.083407;0.15259254;;407.1;
575.0;461.4;;;;;;;;;;;;;;0.9286172;-0.2628254;-0.21674246;;;;;407.1;
575.0;461.4;;;;;;;;;;;;;;;;;-1.6747032;1.1291848;0.07248146;;407.1;
575.0;461.4;;;;;;;;;;;;;;0.9276406;-0.2614826;-0.21643727;;;;;407.1;
575.0;461.4;;;;;;;;;;;;;;;;;-1.6518143;1.0795922;-0.08774071;;416.7;
575.0;461.4;;;;;;;;;;;;;;0.92751855;-0.2609943;-0.21423994;;;;;416.7;
575.0;461.4;;;;;;;;;;;;;;;;;-1.6060365;1.0605181;-0.20218512;;416.7;
575.0;461.4;;;;;;;;;;;;;;0.9258095;-0.26288643;-0.21289712;;;;;416.7;
575.0;461.4;;;;;;;;;;;;;;;;;-1.5297403;1.1215552;-0.26322216;;426.4;
575.0;461.4;;;;;;;;;;;;;;0.9252602;-0.25861385;-0.21301919;;;;;426.4;
575.0;461.4;;;;;;;;;;;;;;;;;-1.5068514;1.0376294;-0.3929258;;426.4;
575.0;461.4;;;;;;;;;;;;;;0.9243446;-0.25550097;-0.2118595;;;;;426.4;
638.0;506.9;;;;;;;;;;;;;;;;;-1.4343699;0.84307384;-0.57222205;;436.0;
638.0;506.9;;;;;;;;;;;;;;0.92263556;-0.25385296;-0.21216469;;;;;436.0;
638.0;506.9;;;;;;;;;;;;;;;;;-1.2817774;0.7896664;-0.7209998;;436.0;
638.0;506.9;;;;;;;;;;;;;;0.92226934;-0.25104526;-0.21161534;;;;;436.0;
638.0;506.9;;;;;;;;;;;;;;;;;-1.1902219;0.7858516;-0.90792567;;445.6;
638.0;506.9;;;;;;;;;;;;;;0.92190313;-0.2496414;-0.20996734;;;;;445.6;
638.0;506.9;;;;;;;;;;;;;;;;;-1.1406293;0.6485183;-1.0223701;;445.6;
638.0;506.9;;;;;;;;;;;;;;0.9239784;-0.24897;-0.20862453;;;;;445.6;
638.0;506.9;;;;;;;;;;;;;;;;;-1.106296;0.6485183;-1.0986663;;455.3;
638.0;506.9;;;;;;;;;;;;;;0.9241615;-0.2487869;-0.2069155;;;;;455.3;
638.0;506.9;;;;;;;;;;;;;;;;;-1.2016664;0.6714072;-1.1864071;;455.3;
638.0;506.9;;;;;;;;;;;;;;0.92660296;-0.24707785;-0.20880765;;;;;455.3;
638.0;514.0;;;;;;;;;;;;;;;;;-1.2512589;0.6714072;-1.3389996;;465.0;
638.0;514.0;;;;;;;;;;;;;;0.9300821;-0.2487869;-0.2074038;;;;;465.0;
638.0;514.0;;;;;;;;;;;;;;;;;-1.4000366;0.7019257;-1.392407;;465.0;
638.0;514.0;;;;;;;;;;;;;;0.9314249;-0.2527543;-0.20783105;;;;;465.0;
638.0;514.0;;;;;;;;;;;;;;;;;-1.4839625;0.6447035;-1.5259255;;474.6;
638.0;514.0;;;;;;;;;;;;;;0.9335612;-0.25189978;-0.20905179;;;;;474.6;
638.0;514.0;;;;;;;;;;;;;;;;;-1.6670736;0.7095553;-1.5793328;;474.6;
638.0;514.0;;;;;;;;;;;;;;0.9342326;-0.2542802;-0.21045564;;;;;474.6;
638.0;514.0;;;;;;;;;;;;;;;;;-1.7777032;0.7515183;-1.6098514;;484.3;
638.0;514.0;;;;;;;;;;;;;;0.93435466;-0.2552568;-0.21179846;;;;;484.3;
638.0;514.0;;;;;;;;;;;;;;;;;-1.8044069;0.7324442;-1.6747032;;484.3;
638.0;514.0;;;;;;;;;;;;;;0.9342326;-0.25360882;-0.21143223;;;;;484.3;
817.0;566.8;;;;;;;;;;;;;;;;;-1.8349254;0.6027406;-1.7166661;;493.9;
817.0;566.8;;;;;;;;;;;;;;0.934843;-0.2560503;-0.21344645;;;;;493.9;
817.0;566.8;;;;;;;;;;;;;;;;;-1.8272958;0.7057405;-1.7433698;;493.9;
817.0;566.8;;;;;;;;;;;;;;0.93295085;-0.2550737;-0.21094394;;;;;493.9;
817.0;566.8;;;;;;;;;;;;;;;;;-1.7586291;0.6675924;-1.7853328;;503.5;
817.0;566.8;;;;;;;;;;;;;;0.9322794;-0.2544023;-0.21344645;;;;;503.5;
817.0;566.8;;;;;;;;;;;;;;;;;-1.5640736;0.62944424;-1.8463699;;503.5;
817.0;566.8;;;;;;;;;;;;;;0.9317911;-0.25135043;-0.2118595;;;;;503.5;
817.0;566.8;;;;;;;;;;;;;;;;;-1.4267403;0.5035554;-1.8768883;;513.2;
817.0;566.8;;;;;;;;;;;;;;0.92898345;-0.2501297;-0.21320231;;;;;513.2;
817.0;566.8;;;;;;;;;;;;;;;;;-1.3122959;0.5035554;-1.9074068;;513.2;
817.0;566.8;;;;;;;;;;;;;;0.92898345;-0.2501297;-0.2113712;;;;;513.2;
817.0;574.3;;;;;;;;;;;;;;;;;-1.0528886;0.48448133;-1.9264809;;522.9;
817.0;574.3;;;;;;;;;;;;;;0.92519915;-0.25287637;-0.21008942;;;;;522.9;
817.0;574.3;;;;;;;;;;;;;;;;;-0.9117405;0.5226295;-2.0027773;;522.9;
817.0;574.3;;;;;;;;;;;;;;0.92696923;-0.25049594;-0.21008942;;;;;522.9;
817.0;574.3;;;;;;;;;;;;;;;;;-0.6904813;0.4196295;-2.0561848;;532.6;
817.0;574.3;;;;;;;;;;;;;;0.9254433;-0.2503128;-0.20856349;;;;;532.6;
817.0;574.3;;;;;;;;;;;;;;;;;-0.59129614;0.26703694;-2.094333;;532.6;
817.0;574.3;;;;;;;;;;;;;;0.9279458;-0.25220495;-0.20978424;;;;;532.6;
817.0;574.3;;;;;;;;;;;;;;;;;-0.45014802;0.32425916;-2.170629;;542.2;
817.0;574.3;;;;;;;;;;;;;;0.9278237;-0.25043488;-0.2113712;;;;;542.2;
817.0;574.3;;;;;;;;;;;;;;;;;-0.35477766;0.29374066;-2.2240365;;542.2;
817.0;574.3;;;;;;;;;;;;;;0.93148595;-0.25208288;-0.21033357;;;;;542.2;
819.0;627.6;;;;;;;;;;;;;;;;;-0.24414808;0.21362957;-2.3499253;;551.9;
819.0;627.6;;;;;;;;;;;;;;0.9336833;-0.2501297;-0.21240883;;;;;551.9;
819.0;627.6;;;;;;;;;;;;;;;;;-0.12588885;0.20981476;-2.395703;;551.9;
819.0;627.6;;;;;;;;;;;;;;0.9336833;-0.25019073;-0.21198156;;;;;551.9;
819.0;627.6;;;;;;;;;;;;;;;;;-0.03051851;0.20981476;-2.4910734;;561.5;
819.0;627.6;;;;;;;;;;;;;;0.93527025;-0.25348675;-0.21198156;;;;;561.5;
819.0;627.6;;;;;;;;;;;;;;;;;0.015259255;0.19837031;-2.521592;;561.5;
819.0;627.6;;;;;;;;;;;;;;0.933195;-0.25360882;-0.21314128;;;;;561.5;
819.0;627.6;;;;;;;;;;;;;;;;;0.068666644;0.12207404;-2.6055179;;571.1;
819.0;627.6;;;;;;;;;;;;;;0.931608;-0.2552568;-0.21192053;;;;;571.1;
819.0;627.6;;;;;;;;;;;;;;;;;0.07248146;0.110629596;-2.7085178;;571.1;
819.0;627.6;;;;;;;;;;;;;;0.9306925;-0.25208288;-0.21240883;;;;;571.1;
819.0;634.6;;;;;;;;;;;;;;;;;0.11825922;0.19455549;-2.6818142;;580.8;
819.0;634.6;;;;;;;;;;;;;;0.9301431;-0.2512894;-0.21082187;;;;;580.8;
819.0;634.6;;;;;;;;;;;;;;;;;0.22507401;0.17548142;-2.7695546;;580.8;
819.0;634.6;;;;;;;;;;;;;;0.9292276;-0.24897;-0.20996734;;;;;580.8;
819.0;634.6;;;;;;;;;;;;;;;;;0.4196295;0.07629627;-2.7771842;;590.4;
819.0;634.6;;;;;;;;;;;;;;0.92880034;-0.2491531;-0.20892972;;;;;590.4;
819.0;634.6;;;;;;;;;;;;;;;;;0.6599628;-0.026703697;-2.9221473;;590.4;
819.0;634.6;;;;;;;;;;;;;;0.9276406;-0.24774925;-0.20654927;;;;;590.4;
819.0;634.6;;;;;;;;;;;;;;;;;0.92318493;-0.24796289;-2.9374065;;600.0;
819.0;634.6;;;;;;;;;;;;;;0.9270913;-0.25202185;-0.20697653;;;;;600.0;
819.0;634.6;;;;;;;;;;;;;;;;;1.247444;-0.21744438;-3.0137029;;600.0;
819.0;634.6;;;;;;;;;;;;;;0.9267861;-0.24695578;-0.20355846;;;;;600.0;
821.0;687.5;;;;;;;;;;;;;;;;;1.495407;-0.45777765;-3.0823696;;609.6;
821.0;687.5;;;;;;;;;;;;;;0.9275796;-0.25696585;-0.20581684;;;;;609.6;
821.0;687.5;;;;;;;;;;;;;;;;;1.6747032;-0.44251838;-3.3074436;;609.6;
821.0;687.5;;;;;;;;;;;;;;0.9289224;-0.2547075;-0.20575579;;;;;609.6;
821.0;687.5;;;;;;;;;;;;;;;;;1.6899625;-0.4196295;-3.3150733;;619.3;
821.0;687.5;;;;;;;;;;;;;;0.9278237;-0.25989562;-0.20722067;;;;;619.3;
821.0;687.5;;;;;;;;;;;;;;;;;1.6365551;-0.32425916;-3.4066288;;619.3;
821.0;687.5;;;;;;;;;;;;;;0.93099767;-0.258858;-0.20789209;;;;;619.3;
821.0;687.5;;;;;;;;;;;;;;;;;1.7319254;-0.26322216;-3.456221;;629.0;
821.0;687.5;;;;;;;;;;;;;;0.92947173;-0.267098;-0.20599994;;;;;629.0;
821.0;687.5;;;;;;;;;;;;;;;;;1.8730735;-0.25559253;-3.540147;;629.0;
821.0;687.5;;;;;;;;;;;;;;0.9292886;-0.25659963;-0.2036195;;;;;629.0;
821.0;688.2;;;;;;;;;;;;;;;;;2.2164068;-0.30518508;-3.5477767;;638.6;
821.0;688.2;;;;;;;;;;;;;;0.9273965;-0.26520586;-0.20484024;;;;;638.6;
821.0;688.2;;;;;;;;;;;;;;;;;2.6474807;-0.3013703;-3.68511;;638.6;
821.0;688.2;;;;;;;;;;;;;;0.92410046;-0.25763726;-0.20453505;;;;;638.6;
821.0;688.2;;;;;;;;;;;;;;;;;3.1929991;-0.4768517;-3.68511;;648.3;
821.0;688.2;;;;;;;;;;;;;;0.9259316;-0.2535478;-0.20508438;;;;;648.3;
821.0;688.2;;;;;;;;;;;;;;;;;3.688925;-0.5188147;-3.78811;;648.3;
821.0;688.2;;;;;;;;;;;;;;0.92355114;-0.25080112;-0.20520645;;;;;648.3;
821.0;688.2;;;;;;;;;;;;;;;;;4.0894804;-0.6485183;-3.8453321;;658.0;
821.0;688.2;;;;;;;;;;;;;;0.92715234;-0.25782037;-0.20764793;;;;;658.0;
821.0;688.2;;;;;;;;;;;;;;;;;4.547258;-0.67522204;-3.9063692;;658.0;
821.0;688.2;;;;;;;;;;;;;;0.93215734;-0.24573503;-0.20844142;;;;;658.0;
936.0;747.8;;;;;;;;;;;;;;;;;4.928739;-0.61037016;-3.9864802;;667.6;
936.0;747.8;;;;;;;;;;;;;;0.9277627;-0.24555193;-0.20703757;;;;;667.6;
936.0;747.8;;;;;;;;;;;;;;;;;5.1728873;-0.88122195;-4.0894804;;667.6;
936.0;747.8;;;;;;;;;;;;;;0.93148595;-0.24701682;-0.21027254;;;;;667.6;
936.0;747.8;;;;;;;;;;;;;;;;;5.508591;-0.84688866;-4.078036;;677.2;
936.0;747.8;;;;;;;;;;;;;;0.92446667;-0.24329355;-0.20825832;;;;;677.2;
936.0;747.8;;;;;;;;;;;;;;;;;5.649739;-0.9575182;-4.0894804;;677.2;
936.0;747.8;;;;;;;;;;;;;;0.9251381;-0.2482986;-0.20862453;;;;;677.2;
936.0;747.8;;;;;;;;;;;;;;;;;5.779443;-1.0185553;-4.203925;;686.8;
936.0;747.8;;;;;;;;;;;;;;0.92355114;-0.2501297;-0.20599994;;;;;686.8;
936.0;747.8;;;;;;;;;;;;;;;;;5.5619984;-0.9765923;-4.1962953;;686.8;
936.0;747.8;;;;;;;;;;;;;;0.9247108;-0.24787134;-0.20654927;;;;;686.8;
936.0;748.9;;;;;;;;;;;;;;;;;5.3636284;-0.87740713;-4.1657767;;696.4;
936.0;748.9;;;;;;;;;;;;;;0.92104864;-0.25800347;-0.20874661;;;;;696.4;
936.0;748.9;;;;;;;;;;;;;;;;;5.447554;-0.8964812;-4.234443;;696.4;
936.0;748.9;;;;;;;;;;;;;;0.9234901;-0.25232702;-0.21234779;;;;;696.4;
936.0;748.9;;;;;;;;;;;;;;;;;5.584887;-0.9727775;-4.226814;;706.1;
936.0;748.9;;;;;;;;;;;;;;0.918424;-0.25586718;-0.21045564;;;;;706.1;
936.0;748.9;;;;;;;;;;;;;;;;;5.9930725;-1.3046663;-4.299295;;706.1;
936.0;748.9;;;;;;;;;;;;;;0.9252602;-0.24884793;-0.20892972;;;;;706.1;
936.0;748.9;;;;;;;;;;;;;;;;;6.263924;-1.5678884;-4.2191844;;715.7;
936.0;748.9;;;;;;;;;;;;;;0.92324597;-0.2684408;-0.21295816;;;;;715.7;
936.0;748.9;;;;;;;;;;;;;;;;;6.416517;-1.5144811;-4.413739;;715.7;
936.0;748.9;;;;;;;;;;;;;;0.93148595;-0.23981445;-0.2097232;;;;;715.7;
938.0;808.0;;;;;;;;;;;;;;;;;6.5233316;-1.6060365;-4.2115545;;725.4;
938.0;808.0;;;;;;;;;;;;;;0.92281866;-0.24195075;-0.20471816;;;;;725.4;
938.0;808.0;;;;;;;;;;;;;;;;;6.0464797;-1.8005921;-4.203925;;725.4;
938.0;808.0;;;;;;;;;;;;;;0.9250771;-0.24384288;-0.21015045;;;;;725.4;
938.0;808.0;;;;;;;;;;;;;;;;;5.4628134;-1.5564439;-3.971221;;735.0;
938.0;808.0;;;;;;;;;;;;;;0.92172;-0.24414808;-0.2070986;;;;;735.0;
938.0;808.0;;;;;;;;;;;;;;;;;4.8677025;-1.53737;-3.7270732;;735.0;
938.0;808.0;;;;;;;;;;;;;;0.92190313;-0.24976349;-0.20166631;;;;;735.0;
938.0;808.0;;;;;;;;;;;;;;;;;4.4366283;-1.6136662;-3.6355176;;744.5;
938.0;808.0;;;;;;;;;;;;;;0.9241615;-0.24091311;-0.20062868;;;;;744.5;
938.0;808.0;;;;;;;;;;;;;;;;;4.093295;-1.5068514;-3.3341472;;744.5;
938.0;808.0;;;;;;;;;;;;;;0.92104864;-0.2509232;-0.19684438;;;;;744.5;
938.0;808.8;;;;;;;;;;;;;;;;;3.6965547;-1.5640736;-3.2502213;;754.2;
938.0;808.8;;;;;;;;;;;;;;0.92703027;-0.24561296;-0.19782098;;;;;754.2;
938.0;808.8;;;;;;;;;;;;;;;;;3.7156286;-1.659444;-3.051851;;754.2;
938.0;808.8;;;;;;;;;;;;;;0.924955;-0.2575152;-0.19855343;;;;;754.2;
938.0;808.8;;;;;;;;;;;;;;;;;3.5477767;-1.7548143;-2.9259622;;763.8;
938.0;808.8;;;;;;;;;;;;;;0.9289224;-0.25641653;-0.20453505;;;;;763.8;
938.0;808.8;;;;;;;;;;;;;;;;;3.5973694;-1.7471846;-2.826777;;763.8;
938.0;808.8;;;;;;;;;;;;;;0.9279458;-0.26160467;-0.20270394;;;;;763.8;
938.0;808.8;;;;;;;;;;;;;;;;;3.5821102;-1.8883327;-2.7390363;;773.3;
938.0;808.8;;;;;;;;;;;;;;0.9277627;-0.26294747;-0.20612201;;;;;773.3;
938.0;808.8;;;;;;;;;;;;;;;;;3.7728508;-2.0142217;-2.601703;;773.3;
938.0;808.8;;;;;;;;;;;;;;0.92660296;-0.26319164;-0.2066103;;;;;773.3;
1056.0;868.2;;;;;;;;;;;;;;;;;3.9674063;-2.113407;-2.4910734;;783.0;
1056.0;868.2;;;;;;;;;;;;;;0.9236122;-0.2639851;-0.20722067;;;;;783.0;
1056.0;868.2;;;;;;;;;;;;;;;;;4.253517;-2.231666;-2.2927032;;783.0;
1056.0;868.2;;;;;;;;;;;;;;0.9221473;-0.26673177;-0.2075869;;;;;783.0;
1056.0;868.2;;;;;;;;;;;;;;;;;4.5968504;-2.25074;-2.1553698;;792.5;
1056.0;868.2;;;;;;;;;;;;;;0.92031616;-0.26715904;-0.20795313;;;;;792.5;
1056.0;868.2;;;;;;;;;;;;;;;;;5.0660725;-2.3537402;-2.0371106;;792.5;
1056.0;868.2;;;;;;;;;;;;;;0.9227576;-0.26538897;-0.20923491;;;;;792.5;
1056.0;868.2;;;;;;;;;;;;;;;;;5.3559985;-2.4300365;-1.8272958;;802.1;
1056.0;868.2;;;;;;;;;;;;;;0.924894;-0.267098;-0.21045564;;;;;802.1;
1056.0;868.2;;;;;;;;;;;;;;;;;5.550554;-2.311777;-1.6861477;;802.1;
1056.0;868.2;;;;;;;;;;;;;;0.92684716;-0.26471755;-0.21063875;;;;;802.1;
1056.0;869.4;;;;;;;;;;;;;;;;;5.8709984;-2.2583697;-1.5221107;;811.8;
1056.0;869.4;;;;;;;;;;;;;;0.9290445;-0.2642903;-0.21198156;;;;;811.8;
1056.0;869.4;;;;;;;;;;;;;;;;;6.164739;-2.4300365;-1.3695182;;811.8;
1056.0;869.4;;;;;;;;;;;;;;0.93215734;-0.26233712;-0.21265298;;;;;811.8;
1056.0;869.4;;;;;;;;;;;;;;;;;6.4355907;-2.5482955;-1.209296;;821.5;
1056.0;869.4;;;;;;;;;;;;;;0.93594164;-0.260506;-0.21588793;;;;;821.5;
1056.0;869.4;;;;;;;;;;;;;;;;;6.5652943;-2.4300365;-0.98422194;;821.5;
1056.0;869.4;;;;;;;;;;;;;;0.9358806;-0.25891903;-0.21619312;;;;;821.5;
1056.0;869.4;;;;;;;;;;;;;;;;;6.6301465;-2.5444808;-0.79729605;;831.2;
1056.0;869.4;;;;;;;;;;;;;;0.93166906;-0.25916317;-0.21539964;;;;;831.2;
1056.0;869.4;;;;;;;;;;;;;;;;;6.611072;-2.7771842;-0.5874813;;831.2;
1056.0;869.4;;;;;;;;;;;;;;0.9280068;-0.2565386;-0.21655935;;;;;831.2;
1057.0;928.6;;;;;;;;;;;;;;;;;6.431776;-2.7809992;-0.34333324;;840.9;
1057.0;928.6;;;;;;;;;;;;;;0.9231239;-0.25104526;-0.21192053;;;;;840.9;
1057.0;928.6;;;;;;;;;;;;;;;;;6.004517;-2.685629;-0.15259254;;840.9;
1057.0;928.6;;;;;;;;;;;;;;0.9212928;-0.24604023;-0.20447402;;;;;840.9;
1057.0;928.6;;;;;;;;;;;;;;;;;5.8442945;-2.7924435;0.038148135;;850.5;
1057.0;928.6;;;;;;;;;;;;;;0.92306286;-0.23804438;-0.19592883;;;;;850.5;
1057.0;928.6;;;;;;;;;;;;;;;;;5.893887;-2.967925;0.2517777;;850.5;
1057.0;928.6;;;;;;;;;;;;;;0.9223914;-0.23371075;-0.19653921;;;;;850.5;
1057.0;928.6;;;;;;;;;;;;;;;;;6.008332;-3.0022585;0.5035554;;860.2;
1057.0;928.6;;;;;;;;;;;;;;0.9231239;-0.23194067;-0.1998352;;;;;860.2;
1057.0;928.6;;;;;;;;;;;;;;;;;6.328776;-3.0289621;0.62944424;;860.2;
1057.0;928.6;;;;;;;;;;;;;;0.92190313;-0.23029268;-0.20319223;;;;;860.2;
1057.0;929.4;;;;;;;;;;;;;;;;;6.370739;-3.1243324;0.7248146;;869.8;
1057.0;929.4;;;;;;;;;;;;;;0.9193396;-0.23334453;-0.21094394;;;;;869.8;
1057.0;929.4;;;;;;;;;;;;;;;;;6.382183;-3.0823696;0.7553331;;869.8;
1057.0;929.4;;;;;;;;;;;;;;0.91940063;-0.23090304;-0.21491134;;;;;869.8;
1057.0;929.4;;;;;;;;;;;;;;;;;6.1914425;-2.9145176;0.8354442;;879.4;
1057.0;929.4;;;;;;;;;;;;;;0.91958374;-0.23352763;-0.21179846;;;;;879.4;
1057.0;929.4;;;;;;;;;;;;;;;;;6.084628;-2.9221473;0.8964812;;879.4;
1057.0;929.4;;;;;;;;;;;;;;0.92477185;-0.23401593;-0.20899075;;;;;879.4;
1057.0;929.4;;;;;;;;;;;;;;;;;6.004517;-2.9374065;0.9346294;;889.1;
1057.0;929.4;;;;;;;;;;;;;;0.9279458;-0.2369457;-0.2074038;;;;;889.1;
1057.0;929.4;;;;;;;;;;;;;;;;;6.370739;-3.0442214;0.94225895;;889.1;
1057.0;929.4;;;;;;;;;;;;;;0.93453777;-0.23889889;-0.2115543;;;;;889.1;
1117.0;988.9;;;;;;;;;;;;;;;;;7.1298866;-3.318888;1.003296;;898.7;
1117.0;988.9;;;;;;;;;;;;;;0.93710136;-0.24274422;-0.21948913;;;;;898.7;
1117.0;988.9;;;;;;;;;;;;;;;;;7.8966646;-3.3951843;1.1864071;;898.7;
1117.0;988.9;;;;;;;;;;;;;;0.93655205;-0.23908201;-0.22791223;;;;;898.7;
1117.0;988.9;;;;;;;;;;;;;;;;;8.255258;-3.3951843;1.495407;;908.3;
1117.0;988.9;;;;;;;;;;;;;;0.9361858;-0.2418897;-0.23456526;;;;;908.3;
1117.0;988.9;;;;;;;;;;;;;;;;;8.419294;-3.0899992;1.6327403;;908.3;
1117.0;988.9;;;;;;;;;;;;;;0.9350261;-0.24427015;-0.2296823;;;;;908.3;
1117.0;988.9;;;;;;;;;;;;;;;;;8.602405;-2.8534806;1.8387402;;917.9;
1117.0;988.9;;;;;;;;;;;;;;0.93581957;-0.24457534;-0.2247383;;;;;917.9;
1117.0;988.9;;;;;;;;;;;;;;;;;8.827478;-2.8077028;1.8997772;;917.9;
1117.0;988.9;;;;;;;;;;;;;;0.93435466;-0.24433118;-0.2164983;;;;;917.9;
1117.0;989.7;;;;;;;;;;;;;;;;;8.762627;-2.7924435;1.9074068;;927.6;
1117.0;989.7;;;;;;;;;;;;;;0.9361858;-0.24463637;-0.21320231;;;;;927.6;
1117.0;989.7;;;;;;;;;;;;;;;;;8.831293;-2.7352216;1.9722588;;927.6;
1117.0;989.7;;;;;;;;;;;;;;0.9355754;-0.24903104;-0.21686453;;;;;927.6;
1117.0;989.7;;;;;;;;;;;;;;;;;8.648182;-2.5673697;1.9188513;;937.3;
1117.0;989.7;;;;;;;;;;;;;;0.9360027;-0.24677266;-0.219306;;;;;937.3;
1117.0;989.7;;;;;;;;;;;;;;;;;8.358257;-2.4109623;1.8692588;;937.3;
1117.0;989.7;;;;;;;;;;;;;;0.9353923;-0.24640645;-0.22119816;;;;;937.3;
1117.0;989.7;;;;;;;;;;;;;;;;;7.8394423;-2.1210363;1.701407;;946.8;
1117.0;989.7;;;;;;;;;;;;;;0.93203527;-0.24085207;-0.21765801;;;;;946.8;
1117.0;989.7;;;;;;;;;;;;;;;;;7.3206277;-1.9913328;1.6708884;;946.8;
1117.0;989.7;;;;;;;;;;;;;;0.9294107;-0.24225593;-0.21234779;;;;;946.8;
1415.0;1049.6;;;;;;;;;;;;;;;;;7.213813;-1.8501847;1.3885921;;956.5;
1415.0;1049.6;;;;;;;;;;;;;;0.9259316;-0.2395703;-0.20905179;;;;;956.5;
1415.0;1049.6;;;;;;;;;;;;;;;;;7.675405;-2.2812586;1.2131108;;956.5;
1415.0;1049.6;;;;;;;;;;;;;;0.9256264;-0.23432112;-0.20966215;;;;;956.5;
1415.0;1049.6;;;;;;;;;;;;;;;;;7.831813;-2.498703;0.86214787;;966.1;
1415.0;1049.6;;;;;;;;;;;;;;0.9267861;-0.22846156;-0.21527757;;;;;966.1;
1415.0;1049.6;;;;;;;;;;;;;;;;;8.072146;-2.273629;0.75914794;;966.1;
1415.0;1049.6;;;;;;;;;;;;;;0.9289224;-0.2230903;-0.2153386;;;;;966.1;
1415.0;1049.6;;;;;;;;;;;;;;;;;8.171331;-2.4033327;0.5035554;;975.7;
1415.0;1049.6;;;;;;;;;;;;;;0.93331707;-0.22278512;-0.22003846;;;;;975.7;
1415.0;1049.6;;;;;;;;;;;;;;;;;8.339183;-2.4872584;0.27085176;;975.7;
1415.0;1049.6;;;;;;;;;;;;;;0.9358806;-0.21643727;-0.2229072;;;;;975.7;
1415.0;1050.2;;;;;;;;;;;;;;;;;8.18659;-2.685629;0.04196295;;985.3;
1415.0;1050.2;;;;;;;;;;;;;;0.9375286;-0.21918394;-0.22766808;;;;;985.3;
1415.0;1050.2;;;;;;;;;;;;;;;;;8.262887;-2.8801844;-0.37385175;;985.3;
1415.0;1050.2;;;;;;;;;;;;;;0.9380169;-0.21399578;-0.229194;;;;;985.3;
1415.0;1050.2;;;;;;;;;;;;;;;;;8.339183;-3.1853695;-0.7057405;;995.0;
1415.0;1050.2;;;;;;;;;;;;;;0.9389935;-0.20874661;-0.23566394;;;;;995.0;
1415.0;1050.2;;;;;;;;;;;;;;;;;8.419294;-3.4066288;-1.003296;;995.0;
1415.0;1050.2;;;;;;;;;;;;;;0.93691826;-0.20844142;-0.24079104;;;;;995.0;
1415.0;1050.2;;;;;;;;;;;;;;;;;8.964812;-3.7232583;-1.2703329;;1004.6;
1415.0;1050.2;;;;;;;;;;;;;;0.9351482;-0.21124913;-0.24341564;;;;;1004.6;
1415.0;1050.2;;;;;;;;;;;;;;;;;9.392072;-3.627888;-1.6708884;;1004.6;
1415.0;1050.2;;;;;;;;;;;;;;0.9355754;-0.19568469;-0.24280526;;;;;1004.6;
1417.0;1109.4;;;;;;;;;;;;;;;;;9.830774;-3.8262582;-1.9989624;;1014.3;
1417.0;1109.4;;;;;;;;;;;;;;0.9294107;-0.19342631;-0.23938718;;;;;1014.3;
1417.0;1109.4;;;;;;;;;;;;;;;;;10.498367;-3.9254432;-2.3422956;;1014.3;
1417.0;1109.4;;;;;;;;;;;;;;0.92996;-0.18213446;-0.24085207;;;;;1014.3;
1417.0;1109.4;;;;;;;;;;;;;;;;;10.883664;-3.7270732;-2.76574;;1024.0;
1417.0;1109.4;;;;;;;;;;;;;;0.9264809;-0.17065951;-0.24048586;;;;;1024.0;
1417.0;1109.4;;;;;;;;;;;;;;;;;11.555071;-3.6584065;-3.0480363;;1024.0;
1417.0;1109.4;;;;;;;;;;;;;;0.92898345;-0.16052736;-0.23950927;;;;;1024.0;
1417.0;1109.4;;;;;;;;;;;;;;;;;11.932737;-3.4218879;-3.6202583;;1033.6;
1417.0;1109.4;;;;;;;;;;;;;;0.9322184;-0.14941862;-0.23834956;;;;;1033.6;
1417.0;1109.4;;;;;;;;;;;;;;;;;12.295145;-3.1586657;-4.337443;;1033.6;
1417.0;1109.4;;;;;;;;;;;;;;0.9360027;-0.14166692;-0.23712882;;;;;1033.6;
1417.0;1110.2;;;;;;;;;;;;;;;;;12.665181;-3.0976286;-5.0050354;;1043.3;
1417.0;1110.2;;;;;;;;;;;;;;0.9402142;-0.13562426;-0.23981445;;;;;1043.3;
1417.0;1110.2;;;;;;;;;;;;;;;;;12.668996;-2.9030733;-6.000702;;1043.3;
1417.0;1110.2;;;;;;;;;;;;;;0.9425947;-0.12286752;-0.24292734;;;;;1043.3;
1417.0;1110.2;;;;;;;;;;;;;;;;;12.382885;-2.5711844;-7.0688496;;1052.8;
1417.0;1110.2;;;;;;;;;;;;;;0.94283885;-0.12146367;-0.24445327;;;;;1052.8;
1417.0;1110.2;;;;;;;;;;;;;;;;;12.29896;-1.9684439;-8.41548;;1052.8;
1417.0;1110.2;;;;;;;;;;;;;;0.94601274;-0.115421005;-0.23859371;;;;;1052.8;
1417.0;1110.2;;;;;;;;;;;;;;;;;12.226479;-1.5259255;-9.971923;;1062.5;
1417.0;1110.2;;;;;;;;;;;;;;0.94619584;-0.10809656;-0.23566394;;;;;1062.5;
1417.0;1110.2;;;;;;;;;;;;;;;;;12.5927;-1.2627033;-11.795404;;1062.5;
1417.0;1110.2;;;;;;;;;;;;;;0.94589067;-0.09424116;-0.23383282;;;;;1062.5;
1418.0;1124.7;;;;;;;;;;;;;;;;;12.798699;-0.98803675;-13.691366;;1072.2;
1418.0;1124.7;;;;;;;;;;;;;;0.94222844;-0.081240274;-0.23169653;;;;;1072.2;
1418.0;1124.7;;;;;;;;;;;;;;;;;13.073366;-0.8049257;-15.938292;;1072.2;
1418.0;1124.7;;;;;;;;;;;;;;0.94338816;-0.06451613;-0.23059785;;;;;1072.2;
1418.0;1124.7;;;;;;;;;;;;;;;;;13.3137;-0.3089999;-18.074587;;1081.9;
1418.0;1124.7;;;;;;;;;;;;;;0.9428999;-0.055787835;-0.22461623;;;;;1081.9;
1418.0;1124.7;;;;;;;;;;;;;;;;;13.790551;-0.17548142;-20.752586;;1081.9;
1418.0;1124.7;;;;;;;;;;;;;;0.94534135;-0.045350507;-0.22132023;;;;;1081.9;
1418.0;1124.7;;;;;;;;;;;;;;;;;14.801477;0.045777764;-24.002808;;1091.4;
1418.0;1124.7;;;;;;;;;;;;;;0.9452803;-0.032837916;-0.22107609;;;;;1091.4;
1418.0;1124.7;;;;;;;;;;;;;;;;;15.911589;0.21744438;-27.649769;;1091.4;
1418.0;1124.7;;;;;;;;;;;;;;0.9450362;-0.015625477;-0.22235785;;;;;1091.4;
1418.0;1127.9;;;;0.0;0.0;0.0;;;;;;;;;;;;;;;;
1418.0;1127.9;;;;-0.05086518;0.20316318;0.024635319;;;;;;;;;;;;;;;;
1418.0;1127.9;;;;-0.27048877;0.87002957;-0.010620118;;;;;;;;;;;;;;;;
1418.0;1127.9;;;;-0.29142383;0.95673764;-0.019298555;;;;;;;;;;;;;;;;
1418.0;1127.9;;;;-0.29109195;0.95515454;-0.017456057;;;;;;;;;;;;;;;;
1657.0;1137.9;;;;-0.2908173;0.9542161;-0.01570511;;;;;;;;;;;;;;;;
1657.0;1137.9;;;;-0.29003146;0.95306027;-0.014034273;;;;;;;;;;;;;;;;
1657.0;1137.9;;;;-0.28908923;0.9519578;-0.011398316;;;;;;;;;;;;;;;;
1657.0;1137.9;;;;-0.28784183;0.9510766;-0.009693147;;;;;;;;;;;;;;;;
1657.0;1137.9;;;;-0.28561404;0.95007336;-0.0070495615;;;;;;;;;;;;;;;;
1657.0;1138.6;57474;57381;12246;;;;;;;;;;;;;;;;;;;
1657.0;1148.0;;;;-0.28354648;0.94986737;-0.004783631;;;;;;;;;;;;;;;;
1657.0;1148.0;;;;-0.28143314;0.9496423;-0.0022811892;;;;;;;;;;;;;;;;
1657.0;1148.0;;;;-0.27921298;0.949772;-4.5013434E-4;;;;;;;;;;;;;;;;
1657.0;1148.0;;;;-0.2770882;0.94955075;0.0010910035;;;;;;;;;;;;;;;;
1657.0;1148.0;;;;-0.2758446;0.9483911;0.0033035283;;;;;;;;;;;;;;;;
1657.0;1158.1;;;;-0.2743416;0.9473001;0.005199433;;;;;;;;;;;;;;;;
1657.0;1158.1;;;;-0.27268222;0.94508374;0.006221772;;;;;;;;;;;;;;;;
1657.0;1158.1;;;;-0.27284625;0.9411508;0.007221223;;;;;;;;;;;;;;;;
1657.0;1158.1;;;;-0.2733498;0.93742764;0.008720399;;;;;;;;;;;;;;;;
1657.0;1158.1;;;;-0.27284625;0.93437207;0.009494782;;;;;;;;;;;;;;;;
1657.0;1158.8;73801;73842;12244;;;;;;;;;;;;;;;;;;;
1657.0;1165.1;;;;;;;;;;;;;0;;;;;;;;;
1657.0;1165.1;;;;;;;;;;;;;0;;;;;;;;;
1657.0;1165.1;;;;;;;;;;;;;-1;;;;;;;;;
1657.0;1165.1;;;;;;;;;;;;;-3;;;;;;;;;
1657.0;1165.1;;;;;;;;;;;;;-4;;;;;;;;;
1659.0;1168.2;;;;-0.27115634;0.932026;0.010910035;;;;;;;;;;;;;;;;
1659.0;1168.2;;;;-0.2696648;0.92966855;0.011611939;;;;;;;;;;;;;;;;
1659.0;1168.2;;;;-0.26897052;0.9263383;0.01231003;;;;;;;;;;;;;;;;
1659.0;1168.2;;;;-0.2676392;0.9244691;0.01312256;;;;;;;;;;;;;;;;
1659.0;1168.2;;;;-0.26804355;0.920334;0.013935091;;;;;;;;;;;;;;;;
1659.0;1169.6;;;;;;;;;;;;;;;;;16.37318;0.6637776;-31.361584;;1100.9;
1659.0;1169.6;;;;;;;;;;;;;;0.94210637;0.006775109;-0.22003846;;;;;1100.9;
1659.0;1169.6;;;;;;;;;;;;;;;;;17.319254;1.0376294;-35.35188;;1100.9;
1659.0;1169.6;;;;;;;;;;;;;;0.93612474;0.01843318;-0.21741386;;;;;1100.9;
1659.0;1169.6;;;;;;;;;;;;;;;;;18.871883;1.1024811;-39.662617;;1110.5;
1659.0;1169.6;;;;;;;;;;;;;;0.93313396;0.043519396;-0.20917386;;;;;1110.5;
1659.0;1169.6;;;;;;;;;;;;;;;;;20.165104;0.8735923;-43.939026;;1110.5;
1659.0;1169.6;;;;;;;;;;;;;;0.9360027;0.055604726;-0.21246986;;;;;1110.5;
1659.0;1169.6;;;;;;;;;;;;;;;;;21.053957;1.0795922;-49.073765;;1120.2;
1659.0;1169.6;;;;;;;;;;;;;;0.93826103;0.08270516;-0.20630513;;;;;1120.2;
1659.0;1169.6;;;;;;;;;;;;;;;;;20.424513;2.010407;-54.185616;;1120.2;
1659.0;1169.6;;;;;;;;;;;;;;0.9370403;0.10687582;-0.20453505;;;;;1120.2;
1659.0;1178.2;;;;-0.26786807;0.91637814;0.01469803;;;;;;;;;;;;;;;;
1659.0;1178.2;;;;-0.2665787;0.9117967;0.014919283;;;;;;;;;;;;;;;;
1659.0;1178.2;;;;-0.2643471;0.90745556;0.015529634;;;;;;;;;;;;;;;;
1659.0;1178.2;;;;-0.26261523;0.90252316;0.015563967;;;;;;;;;;;;;;;;
1659.0;1178.2;;;;-0.2602959;0.8972131;0.01572037;;;;;;;;;;;;;;;;
1659.0;1178.9;90293;90206;12256;;;;;;;;;;;;;;;;;;;
1661.0;1188.1;;;;-0.257103;0.8917619;0.01683426;;;;;;;;;;;;;;;;
1661.0;1188.1;;;;-0.2540398;0.88530743;0.016685488;;;;;;;;;;;;;;;;
1661.0;1188.1;;;;-0.25275424;0.8786241;0.016487123;;;;;;;;;;;;;;;;
1661.0;1188.1;;;;-0.25273135;0.871914;0.017169954;;;;;;;;;;;;;;;;
1661.0;1188.1;;;;-0.25241092;0.8670083;0.018184664;;;;;;;;;;;;;;;;
1661.0;1198.1;;;;-0.25241855;0.8605081;0.017959597;;;;;;;;;;;;;;;;
1661.0;1198.1;;;;-0.2502785;0.8561746;0.018512728;;;;;;;;;;;;;;;;
1661.0;1198.1;;;;-0.2496567;0.8526155;0.018577578;;;;;;;;;;;;;;;;
1661.0;1198.1;;;;-0.2510338;0.84754574;0.019466402;;;;;;;;;;;;;;;;
1661.0;1198.1;;;;-0.25153735;0.84238064;0.020484926;;;;;;;;;;;;;;;;
1661.0;1198.9;106669;106602;12248;;;;;;;;;;;;;;;;;;;
1661.0;1205.2;;;;;;;;;;;;;-1;;;;;;;;;
1661.0;1205.2;;;;;;;;;;;;;-13;;;;;;;;;
1661.0;1205.2;;;;;;;;;;;;;-21;;;;;;;;;
1661.0;1205.2;;;;;;;;;;;;;18;;;;;;;;;
1661.0;1205.2;;;;;;;;;;;;;-14;;;;;;;;;
1661.0;1208.2;;;;-0.25088504;0.8379632;0.021724703;;;;;;;;;;;;;;;;
1661.0;1208.2;;;;-0.25003818;0.8359643;0.022251131;;;;;;;;;;;;;;;;
1661.0;1208.2;;;;-0.24998477;0.8334657;0.022480013;;;;;;;;;;;;;;;;
1661.0;1208.2;;;;-0.25057605;0.83080685;0.022556307;;;;;;;;;;;;;;;;
1661.0;1208.2;;;;-0.25225833;0.8277246;0.022773745;;;;;;;;;;;;;;;;
1663.0;1218.3;;;;-0.25390628;0.8268014;0.022945406;;;;;;;;;;;;;;;;
1663.0;1218.3;;;;-0.25173572;0.82680523;0.022434236;;;;;;;;;;;;;;;;
1663.0;1218.3;;;;-0.24896625;0.82797253;0.020610811;;;;;;;;;;;;;;;;
1663.0;1218.3;;;;-0.2485924;0.83039486;0.019382479;;;;;;;;;;;;;;;;
1663.0;1218.3;;;;-0.24861148;0.8340417;0.017997744;;;;;;;;;;;;;;;;
1663.0;1219.2;122993;123015;12236;;;;;;;;;;;;;;;;;;;
1663.0;1228.4;;;;-0.24819568;0.8387376;0.015556337;;;;;;;;;;;;;;;;
1663.0;1228.4;;;;-0.24761203;0.84274304;0.012386324;;;;;;;;;;;;;;;;
1663.0;1228.4;;;;-0.24471286;0.8487779;0.009929658;;;;;;;;;;;;;;;;
1663.0;1228.4;;;;-0.24209598;0.85670483;0.0077285776;;;;;;;;;;;;;;;;
1663.0;1228.4;;;;-0.23762134;0.86101544;0.0045013432;;;;;;;;;;;;;;;;
1663.0;1229.9;;;;;;;;;;;;;;;;;19.455551;2.6703696;-59.4348;;1129.9;
1663.0;1229.9;;;;;;;;;;;;;;0.9328898;0.14160588;-0.20416883;;;;;1129.9;
1663.0;1229.9;;;;;;;;;;;;;;;;;18.490402;2.3689995;-65.19517;;1129.9;
1663.0;1229.9;;;;;;;;;;;;;;0.92049927;0.17078158;-0.2029481;;;;;1129.9;
1663.0;1229.9;;;;;;;;;;;;;;;;;17.677847;2.7886288;-71.67654;;1139.6;
1663.0;1229.9;;;;;;;;;;;;;;0.9097568;0.20538957;-0.19299905;;;;;1139.6;
1663.0;1229.9;;;;;;;;;;;;;;;;;16.72033;4.634999;-78.95519;;1139.6;
1663.0;1229.9;;;;;;;;;;;;;;0.89638966;0.23755608;-0.17639698;;;;;1139.6;
1663.0;1229.9;;;;;;;;;;;;;;;;;16.445662;5.649739;-88.02683;;1149.2;
1663.0;1229.9;;;;;;;;;;;;;;0.87380594;0.27985474;-0.1469161;;;;;1149.2;
1663.0;1229.9;;;;;;;;;;;;;;;;;15.5796995;6.382183;-97.29683;;1149.2;
1663.0;1229.9;;;;;;;;;;;;;;0.86404;0.31385234;-0.12805566;;;;;1149.2;
1664.0;1230.8;;;;;;;;;;;;;;;;;13.050478;6.2181463;-106.646935;;1158.9;
1664.0;1230.8;;;;;;;;;;;;;;0.84707177;0.3737907;-0.120303966;;;;;1158.9;
1664.0;1230.8;;;;;;;;;;;;;;;;;10.105441;5.272073;-112.8193;;1158.9;
1664.0;1230.8;;;;;;;;;;;;;;0.83059174;0.43592638;-0.1159093;;;;;1158.9;
1664.0;1230.8;;;;;;;;;;;;;;;;;3.1586657;6.511887;-114.21171;;1168.6;
1664.0;1230.8;;;;;;;;;;;;;;0.8086184;0.48146;-0.100039676;;;;;1168.6;
1664.0;1230.8;;;;;;;;;;;;;;;;;-6.0312204;6.8323317;-111.2476;;1168.6;
1664.0;1230.8;;;;;;;;;;;;;;0.7879879;0.5008087;-0.10180975;;;;;1168.6;
1664.0;1230.8;;;;;;;;;;;;;;;;;-15.064699;6.0350356;-108.41319;;1178.1;
1664.0;1230.8;;;;;;;;;;;;;;0.77175206;0.48945585;-0.12170782;;;;;1178.1;
1664.0;1230.8;;;;;;;;;;;;;;;;;-20.737328;5.7298503;-107.17338;;1178.1;
1664.0;1230.8;;;;;;;;;;;;;;0.7632069;0.43763542;-0.15002899;;;;;1178.1;
1664.0;1238.2;;;;-0.23365787;0.8689767;5.149842E-4;;;;;;;;;;;;;;;;
1664.0;1238.2;;;;-0.23084262;0.88046277;2.4032596E-4;;;;;;;;;;;;;;;;
1664.0;1238.2;;;;-0.22853473;0.89167035;0.0010375978;;;;;;;;;;;;;;;;
1664.0;1238.2;;;;-0.22704318;0.90306103;-0.0017013552;;;;;;;;;;;;;;;;
1664.0;1238.2;;;;-0.22768024;0.91545117;-0.0012664796;;;;;;;;;;;;;;;;
1664.0;1239.1;139404;139422;12248;;;;;;;;;;;;;;;;;;;
1665.0;1244.8;;;;;;;;;;;;;;;;;-26.463364;5.4246655;-109.469894;;1187.8;
1665.0;1244.8;;;;;;;;;;;;;;0.7622303;0.35700554;-0.18640706;;;;;1187.8;
1665.0;1244.8;;;;;;;;;;;;;;;;;-35.10773;3.2235177;-115.06622;;1187.8;
1665.0;1244.8;;;;;;;;;;;;;;0.7791986;0.32386243;-0.229194;;;;;1187.8;
1665.0;1244.8;;;;;;;;;;;;;;;;;-46.48732;0.5645924;-119.26634;;1197.4;
1665.0;1244.8;;;;;;;;;;;;;;0.81411177;0.28351694;-0.2878506;;;;;1197.4;
1665.0;1244.8;;;;;;;;;;;;;;;;;-57.805874;-0.06103702;-120.60533;;1197.4;
1665.0;1244.8;;;;;;;;;;;;;;0.8699606;0.24158452;-0.33069858;;;;;1197.4;
1665.0;1244.8;;;;;;;;;;;;;;;;;-66.07639;-0.23651844;-119.27016;;1207.1;
1665.0;1244.8;;;;;;;;;;;;;;0.9358806;0.15833002;-0.36689353;;;;;1207.1;
1665.0;1244.8;;;;;;;;;;;;;;;;;-69.07483;-0.65614796;-119.93392;;1207.1;
1665.0;1244.8;;;;;;;;;;;;;;1.0184027;0.079897456;-0.38343456;;;;;1207.1;
1665.0;1245.2;;;;;;;;;;;;;49;;;;;;;;;
1665.0;1245.2;;;;;;;;;;;;;51;;;;;;;;;
1665.0;1245.2;;;;;;;;;;;;;-79;;;;;;;;;
1665.0;1245.2;;;;;;;;;;;;;362;;;;;;;;;
1665.0;1245.2;;;;;;;;;;;;;-69;;;;;;;;;
1665.0;1248.1;;;;-0.23072436;0.9278337;6.256104E-4;;;;;;;;;;;;;;;;
1665.0;1248.1;;;;-0.23398212;0.94070065;3.395081E-4;;;;;;;;;;;;;;;;
1665.0;1248.1;;;;-0.23638919;0.95365536;5.226136E-4;;;;;;;;;;;;;;;;
1665.0;1248.1;;;;-0.23822024;0.96776974;0.0018348696;;;;;;;;;;;;;;;;
1665.0;1248.1;;;;-0.24014667;0.98326886;0.006061555;;;;;;;;;;;;;;;;
1666.0;1258.0;;;;-0.24245837;0.9963037;0.009284974;;;;;;;;;;;;;;;;
1666.0;1258.0;;;;-0.24828723;1.0082704;0.013126375;;;;;;;;;;;;;;;;
1666.0;1258.0;;;;-0.25485232;1.0202943;0.017749788;;;;;;;;;;;;;;;;
1666.0;1258.0;;;;-0.26219943;1.0339471;0.021953585;;;;;;;;;;;;;;;;
1666.0;1258.0;;;;-0.2722092;1.0502015;0.027160648;;;;;;;;;;;;;;;;
1666.0;1259.0;155756;155844;12258;;;;;;;;;;;;;;;;;;;
1666.0;1268.1;;;;-0.28161624;1.066311;0.031055454;;;;;;;;;;;;;;;;
1666.0;1268.1;;;;-0.28760913;1.0813333;0.035522465;;;;;;;;;;;;;;;;
1666.0;1268.1;;;;-0.29047778;1.091057;0.038829807;;;;;;;;;;;;;;;;
1666.0;1268.1;;;;-0.2914963;1.1000749;0.041687015;;;;;;;;;;;;;;;;
1666.0;1268.1;;;;-0.29078677;1.1067506;0.043674473;;;;;;;;;;;;;;;;
1666.0;1278.3;;;;-0.28901675;1.1118585;0.0478592;;;;;;;;;;;;;;;;
1666.0;1278.3;;;;-0.28453067;1.1177903;0.050827034;;;;;;;;;;;;;;;;
1666.0;1278.3;;;;-0.278389;1.1245843;0.05340577;;;;;;;;;;;;;;;;
1666.0;1278.3;;;;-0.27091601;1.1318437;0.05628205;;;;;;;;;;;;;;;;
1666.0;1278.3;;;;-0.26264957;1.1345102;0.055961616;;;;;;;;;;;;;;;;
1666.0;1279.3;172146;172166;12257;;;;;;;;;;;;;;;;;;;
1666.0;1285.6;;;;;;;;;;;;;-1327;;;;;;;;;
1666.0;1285.6;;;;;;;;;;;;;183;;;;;;;;;
1666.0;1285.6;;;;;;;;;;;;;2783;;;;;;;;;
1666.0;1285.6;;;;;;;;;;;;;-997;;;;;;;;;
1666.0;1285.6;;;;;;;;;;;;;-14287;;;;;;;;;
1668.0;1288.4;;;;-0.25467303;1.1367608;0.057041176;;;;;;;;;;;;;;;;
1668.0;1288.4;;;;-0.24618533;1.1400567;0.05883027;;;;;;;;;;;;;;;;
1668.0;1288.4;;;;-0.23832324;1.1419259;0.06001664;;;;;;;;;;;;;;;;
1668.0;1288.4;;;;-0.23215869;1.145485;0.062644966;;;;;;;;;;;;;;;;
1668.0;1288.4;;;;-0.2278519;1.1488076;0.06368256;;;;;;;;;;;;;;;;
1668.0;1290.5;;;;;;;;;;;;;;;;;-72.0275;-1.0986663;-121.27674;;1216.7;
1668.0;1290.5;;;;;;;;;;;;;;1.0995818;0.041444138;-0.40919217;;;;;1216.7;
1668.0;1290.5;;;;;;;;;;;;;;;;;-77.33391;6.828517;-123.775444;;1216.7;
1668.0;1290.5;;;;;;;;;;;;;;1.2239753;0.028626362;-0.4185919;;;;;1216.7;
1668.0;1290.5;;;;;;;;;;;;;;;;;-79.74868;27.054659;-122.638626;;1226.4;
1668.0;1290.5;;;;;;;;;;;;;;1.3294473;6.103702E-4;-0.30628377;;;;;1226.4;
1668.0;1290.5;;;;;;;;;;;;;;;;;-74.64828;45.87695;-121.26148;;1226.4;
1668.0;1290.5;;;;;;;;;;;;;;1.4074526;-0.060548723;-0.17358929;;;;;1226.4;
1668.0;1290.5;;;;;;;;;;;;;;;;;-56.82928;57.065796;-121.860405;;1236.1;
1668.0;1290.5;;;;;;;;;;;;;;1.5334331;-0.049867246;-0.061708428;;;;;1236.1;
1668.0;1290.5;;;;;;;;;;;;;;;;;-31.167028;60.029907;-113.15881;;1236.1;
1668.0;1290.5;;;;;;;;;;;;;;1.6436049;-0.063966796;0.08905301;;;;;1236.1;
1668.0;1297.5;;;;;;;;;;;;;;;;;-3.0404067;55.677204;-103.15638;;1245.7;
1668.0;1297.5;;;;;;;;;;;;;;1.7598194;-0.15143284;0.23285623;;;;;1245.7;
1668.0;1297.5;;;;;;;;;;;;;;;;;25.086214;41.989655;-105.89923;;1245.7;
1668.0;1297.5;;;;;;;;;;;;;;1.8035219;-0.18933684;0.4076052;;;;;1245.7;
1668.0;1297.5;;;;;;;;;;;;;;;;;50.889614;2.750481;-114.082;;1255.3;
1668.0;1297.5;;;;;;;;;;;;;;1.7067782;-0.19507432;0.36561173;;;;;1255.3;
1668.0;1297.5;;;;;;;;;;;;;;;;;77.7192;-28.706472;-121.84896;;1255.3;
1668.0;1297.5;;;;;;;;;;;;;;1.3976867;-0.22748497;0.11328471;;;;;1255.3;
1668.0;1297.5;;;;;;;;;;;;;;;;;96.964935;-32.631916;-124.95041;;1264.9;
1668.0;1297.5;;;;;;;;;;;;;;1.3155309;-0.12469863;0.035340436;;;;;1264.9;
1668.0;1297.5;;;;;;;;;;;;;;;;;92.593155;-34.932247;-124.988556;;1264.9;
1668.0;1297.5;;;;;;;;;;;;;;1.4070253;0.05529954;-0.19843134;;;;;1264.9;
1668.0;1298.2;;;;-0.22284701;1.1499864;0.064178474;;;;;;;;;;;;;;;;
1668.0;1298.2;;;;-0.22124103;1.152176;0.06411744;;;;;;;;;;;;;;;;
1668.0;1298.2;;;;-0.22505191;1.1567994;0.063919075;;;;;;;;;;;;;;;;
1668.0;1298.2;;;;-0.2300339;1.1610643;0.06379319;;;;;;;;;;;;;;;;
1668.0;1298.2;;;;-0.23580173;1.1631852;0.064723976;;;;;;;;;;;;;;;;
1668.0;1299.3;188557;188667;12251;;;;;;;;;;;;;;;;;;;
1668.0;1308.2;;;;-0.23897174;1.1623422;0.06592942;;;;;;;;;;;;;;;;
1668.0;1308.2;;;;-0.24253467;1.1594507;0.06734849;;;;;;;;;;;;;;;;
1668.0;1308.2;;;;-0.2440491;1.1536065;0.06843568;;;;;;;;;;;;;;;;
1668.0;1308.2;;;;-0.24634174;1.1471444;0.07081986;;;;;;;;;;;;;;;;
1668.0;1308.2;;;;-0.24940112;1.1396676;0.07257844;;;;;;;;;;;;;;;;
1670.0;1318.2;;;;-0.2518578;1.1305276;0.073616035;;;;;;;;;;;;;;;;
1670.0;1318.2;;;;-0.25484088;1.1190759;0.0740738;;;;;;;;;;;;;;;;
1670.0;1318.2;;;;-0.25621036;1.1083375;0.07617951;;;;;;;;;;;;;;;;
1670.0;1318.2;;;;-0.2561188;1.0993081;0.07743836;;;;;;;;;;;;;;;;
1670.0;1318.2;;;;-0.2555466;1.0899125;0.08022309;;;;;;;;;;;;;;;;
1670.0;1319.3;204998;204935;12245;;;;;;;;;;;;;;;;;;;
1670.0;1325.6;;;;;;;;;;;;;-29817;;;;;;;;;
1670.0;1325.6;;;;;;;;;;;;;-37319;;;;;;;;;
1670.0;1325.6;;;;;;;;;;;;;-35433;;;;;;;;;
1670.0;1325.6;;;;;;;;;;;;;-31299;;;;;;;;;
1670.0;1325.6;;;;;;;;;;;;;-30282;;;;;;;;;
1670.0;1328.3;;;;-0.25599292;1.0805627;0.08341981;;;;;;;;;;;;;;;;
1670.0;1328.3;;;;-0.25530246;1.0722543;0.08694459;;;;;;;;;;;;;;;;
1670.0;1328.3;;;;-0.25249866;1.0653917;0.089134224;;;;;;;;;;;;;;;;
1670.0;1328.3;;;;-0.25347522;1.0570871;0.09213639;;;;;;;;;;;;;;;;
1670.0;1328.3;;;;-0.2552834;1.0489007;0.09593584;;;;;;;;;;;;;;;;
1670.0;1338.4;;;;-0.25800326;1.0409814;0.09874727;;;;;;;;;;;;;;;;
1670.0;1338.4;;;;-0.26106265;1.033352;0.10264589;;;;;;;;;;;;;;;;
1670.0;1338.4;;;;-0.26400378;1.0267602;0.105793014;;;;;;;;;;;;;;;;
1670.0;1338.4;;;;-0.26605228;1.0196611;0.107669845;;;;;;;;;;;;;;;;
1670.0;1338.4;;;;-0.26946643;1.0111543;0.110073105;;;;;;;;;;;;;;;;
1670.0;1339.6;221276;221303;12243;;;;;;;;;;;;;;;;;;;
1671.0;1348.5;;;;-0.27045825;1.0035096;0.11484529;;;;;;;;;;;;;;;;
1671.0;1348.5;;;;-0.27238467;0.9928781;0.115734115;;;;;;;;;;;;;;;;
1671.0;1348.5;;;;-0.27746585;0.98129666;0.11696245;;;;;;;;;;;;;;;;
1671.0;1348.5;;;;-0.28133777;0.97290814;0.1197014;;;;;;;;;;;;;;;;
1671.0;1348.5;;;;-0.28503802;0.9635316;0.122093216;;;;;;;;;;;;;;;;
1671.0;1350.4;;;;;;;;;;;;;;;;;80.77868;-15.671255;-124.988556;;1274.4;
1671.0;1350.4;;;;;;;;;;;;;;1.4441969;0.23157445;-0.24933623;;;;;1274.4;
1671.0;1350.4;;;;;;;;;;;;;;;;;63.69976;10.734886;-124.988556;;1274.4;
1671.0;1350.4;;;;;;;;;;;;;;1.3997619;0.29902035;-0.11291849;;;;;1274.4;
1671.0;1350.4;;;;;;;;;;;;;;;;;47.761467;16.972105;-124.988556;;1284.1;
1671.0;1350.4;;;;;;;;;;;;;;1.3309122;0.3319193;-0.04931791;;;;;1284.1;
1671.0;1350.4;;;;;;;;;;;;;;;;;26.92114;4.5396285;-124.32859;;1284.1;
1671.0;1350.4;;;;;;;;;;;;;;1.323954;0.35535753;-0.16272469;;;;;1284.1;
1671.0;1350.4;;;;;;;;;;;;;;;;;0.43107393;-6.653035;-123.367256;;1293.8;
1671.0;1350.4;;;;;;;;;;;;;;1.2858058;0.394055;-0.28168583;;;;;1293.8;
1671.0;1350.4;;;;;;;;;;;;;;;;;-24.739067;-12.184515;-122.26478;;1293.8;
1671.0;1350.4;;;;;;;;;;;;;;1.2263558;0.45295572;-0.38129824;;;;;1293.8;
1776.0;1357.8;;;;;;;;;;;;;;;;;-43.607136;-15.7284775;-117.16819;;1303.5;
1776.0;1357.8;;;;;;;;;;;;;;1.1874142;0.50068665;-0.48365733;;;;;1303.5;
1776.0;1357.8;;;;;;;;;;;;;;;;;-56.08539;-9.01822;-107.12379;;1303.5;
1776.0;1357.8;;;;;;;;;;;;;;1.1312602;0.4826197;-0.49366742;;;;;1303.5;
1776.0;1357.8;;;;;;;;;;;;;;;;;-56.920834;10.109256;-92.82967;;1313.2;
1776.0;1357.8;;;;;;;;;;;;;;1.0821863;0.33655813;-0.31177709;;;;;1313.2;
1776.0;1357.8;;;;;;;;;;;;;;;;;-47.059544;20.68392;-79.92034;;1313.2;
1776.0;1357.8;;;;;;;;;;;;;;1.1239967;0.19519639;-0.05267495;;;;;1313.2;
1776.0;1357.8;;;;;;;;;;;;;;;;;-37.850582;18.215734;-71.72613;;1322.8;
1776.0;1357.8;;;;;;;;;;;;;;1.1329081;0.045594655;0.011535997;;;;;1322.8;
1776.0;1357.8;;;;;;;;;;;;;;;;;-25.368511;19.096958;-70.28031;;1322.8;
1776.0;1357.8;;;;;;;;;;;;;;1.0710776;-0.056825466;0.032044437;;;;;1322.8;
1776.0;1358.4;;;;-0.28936008;0.9523088;0.12214281;;;;;;;;;;;;;;;;
1776.0;1358.4;;;;-0.29340747;0.94044507;0.12229158;;;;;;;;;;;;;;;;
1776.0;1358.4;;;;-0.29457858;0.93093884;0.12244035;;;;;;;;;;;;;;;;
1776.0;1358.4;;;;-0.29676822;0.92476666;0.12340166;;;;;;;;;;;;;;;;
1776.0;1358.4;;;;-0.3003464;0.9163705;0.12329866;;;;;;;;;;;;;;;;
1776.0;1359.6;237656;237724;12247;;;;;;;;;;;;;;;;;;;
1776.0;1365.7;;;;;;;;;;;;;-30241;;;;;;;;;
1776.0;1365.7;;;;;;;;;;;;;-29076;;;;;;;;;
1776.0;1365.7;;;;;;;;;;;;;-28335;;;;;;;;;
1776.0;1365.7;;;;;;;;;;;;;-27861;;;;;;;;;
1776.0;1365.7;;;;;;;;;;;;;-27095;;;;;;;;;
1778.0;1368.4;;;;-0.30279544;0.9079057;0.123157516;;;;;;;;;;;;;;;;
1778.0;1368.4;;;;-0.30741885;0.8983346;0.121841446;;;;;;;;;;;;;;;;
1778.0;1368.4;;;;-0.3091736;0.88881314;0.12294389;;;;;;;;;;;;;;;;
1778.0;1368.4;;;;-0.3107796;0.8778268;0.119899765;;;;;;;;;;;;;;;;
1778.0;1368.4;;;;-0.30876926;0.86854947;0.12053682;;;;;;;;;;;;;;;;
1778.0;1378.4;;;;-0.30767062;0.85956585;0.11865617;;;;;;;;;;;;;;;;
1778.0;1378.4;;;;-0.30612186;0.8509103;0.117561355;;;;;;;;;;;;;;;;
1778.0;1378.4;;;;-0.3066292;0.8442956;0.11652376;;;;;;;;;;;;;;;;
1778.0;1378.4;;;;-0.3028641;0.83945096;0.116619125;;;;;;;;;;;;;;;;
1778.0;1378.4;;;;-0.30230334;0.8357278;0.11325075;;;;;;;;;;;;;;;;
1778.0;1379.7;254117;254131;12240;;;;;;;;;;;;;;;;;;;
1778.0;1388.3;;;;-0.31078723;0.83142865;0.108676925;;;;;;;;;;;;;;;;
1778.0;1388.3;;;;-0.32363513;0.82833874;0.10599901;;;;;;;;;;;;;;;;
1778.0;1388.3;;;;-0.33251575;0.82410824;0.1041794;;;;;;;;;;;;;;;;
1778.0;1388.3;;;;-0.33496097;0.81909573;0.10128786;;;;;;;;;;;;;;;;
1778.0;1388.3;;;;-0.3318825;0.8174325;0.09744646;;;;;;;;;;;;;;;;
1778.0;1398.4;;;;-0.32773212;0.8166963;0.09373475;;;;;;;;;;;;;;;;
1778.0;1398.4;;;;-0.3230324;0.8177911;0.09177018;;;;;;;;;;;;;;;;
1778.0;1398.4;;;;-0.32192996;0.82065594;0.08818055;;;;;;;;;;;;;;;;
1778.0;1398.4;;;;-0.321682;0.8209306;0.08573533;;;;;;;;;;;;;;;;
1778.0;1398.4;;;;-0.32013324;0.8193399;0.08483506;;;;;;;;;;;;;;;;
1779.0;1399.7;262143;262143;12248;;;;;;;;;;;;;;;;;;;
1779.0;1406.0;;;;;;;;;;;;;-26528;;;;;;;;;
1779.0;1406.0;;;;;;;;;;;;;-26232;;;;;;;;;
1779.0;1406.0;;;;;;;;;;;;;-26126;;;;;;;;;
1779.0;1406.0;;;;;;;;;;;;;-25869;;;;;;;;;
1779.0;1406.0;;;;;;;;;;;;;-25264;;;;;;;;;
1779.0;1408.5;;;;-0.31336597;0.81595623;0.082328804;;;;;;;;;;;;;;;;
1779.0;1408.5;;;;-0.29947665;0.814602;0.08015443;;;;;;;;;;;;;;;;
1779.0;1408.5;;;;-0.2889748;0.8133966;0.07654572;;;;;;;;;;;;;;;;
1779.0;1408.5;;;;-0.28592303;0.813511;0.07094575;;;;;;;;;;;;;;;;
1779.0;1408.5;;;;-0.2865868;0.8165475;0.06751252;;;;;;;;;;;;;;;;
1779.0;1410.9;;;;;;;;;;;;;;;;;-13.6379595;20.355846;-72.34031;;1332.5;
1779.0;1410.9;;;;;;;;;;;;;;1.0154729;-0.06524857;0.05566576;;;;;1332.5;
1779.0;1410.9;;;;;;;;;;;;;;;;;-10.44496;19.508957;-74.09131;;1332.5;
1779.0;1410.9;;;;;;;;;;;;;;0.9858089;-0.047608875;0.009094516;;;;;1332.5;
1779.0;1410.9;;;;;;;;;;;;;;;;;-13.412886;19.913326;-74.884796;;1342.1;
1779.0;1410.9;;;;;;;;;;;;;;0.9667043;-0.0081789605;-0.052797023;;;;;1342.1;
1779.0;1410.9;;;;;;;;;;;;;;;;;-18.868069;21.305735;-75.06027;;1342.1;
1779.0;1410.9;;;;;;;;;;;;;;0.9495529;0.053163245;-0.09418012;;;;;1342.1;
1779.0;1410.9;;;;;;;;;;;;;;;;;-23.541216;20.855587;-75.07935;;1351.7;
1779.0;1410.9;;;;;;;;;;;;;;0.94479203;0.14398633;-0.111636706;;;;;1351.7;
1779.0;1410.9;;;;;;;;;;;;;;;;;-26.673178;19.142736;-74.156166;;1351.7;
1779.0;1410.9;;;;;;;;;;;;;;0.95040745;0.22791223;-0.11157567;;;;;1351.7;
2074.0;1417.9;;;;;;;;;;;;;;;;;-26.749474;17.860958;-74.12183;;1361.4;
2074.0;1417.9;;;;;;;;;;;;;;0.95919675;0.32026124;-0.095706046;;;;;1361.4;
2074.0;1417.9;;;;;;;;;;;;;;;;;-24.002808;16.548662;-74.10276;;1361.4;
2074.0;1417.9;;;;;;;;;;;;;;0.96786404;0.40321055;-0.09210486;;;;;1361.4;
2074.0;1417.9;;;;;;;;;;;;;;;;;-20.001068;15.610218;-74.75509;;1371.0;
2074.0;1417.9;;;;;;;;;;;;;;0.97274697;0.48548844;-0.10266427;;;;;1371.0;
2074.0;1417.9;;;;;;;;;;;;;;;;;-17.09418;15.900145;-74.9382;;1371.0;
2074.0;1417.9;;;;;;;;;;;;;;0.9714652;0.55146945;-0.11157567;;;;;1371.0;
2074.0;1417.9;;;;;;;;;;;;;;;;;-16.82333;16.067995;-75.28535;;1380.6;
2074.0;1417.9;;;;;;;;;;;;;;0.9668264;0.61610764;-0.11047701;;;;;1380.6;
2074.0;1417.9;;;;;;;;;;;;;;;;;-19.83703;16.434217;-75.170906;;1380.6;
2074.0;1417.9;;;;;;;;;;;;;;0.96841335;0.66261786;-0.12048708;;;;;1380.6;
2074.0;1418.4;;;;-0.2903557;0.81982815;0.06459809;;;;;;;;;;;;;;;;
2074.0;1418.4;;;;-0.29078296;0.8223878;0.06108094;;;;;;;;;;;;;;;;
2074.0;1418.4;;;;-0.28655627;0.82198346;0.05954743;;;;;;;;;;;;;;;;
2074.0;1418.4;;;;-0.27938464;0.82255566;0.056838997;;;;;;;;;;;;;;;;
2074.0;1418.4;;;;-0.27515414;0.8236314;0.05246354;;;;;;;;;;;;;;;;
2074.0;1419.8;262143;262143;12255;;;;;;;;;;;;;;;;;;;
2074.0;1428.4;;;;-0.2802048;0.82467663;0.051300056;;;;;;;;;;;;;;;;
2074.0;1428.4;;;;-0.2910767;0.8287355;0.050422676;;;;;;;;;;;;;;;;
2074.0;1428.4;;;;-0.29957202;0.8351327;0.048904426;;;;;;;;;;;;;;;;
2074.0;1428.4;;;;-0.30406955;0.84062207;0.047309883;;;;;;;;;;;;;;;;
2074.0;1428.4;;;;-0.303875;0.8418809;0.04628754;;;;;;;;;;;;;;;;
2077.0;1438.3;;;;-0.29677203;0.8425294;0.045925144;;;;;;;;;;;;;;;;
2077.0;1438.3;;;;-0.28715137;0.8429071;0.0459137;;;;;;;;;;;;;;;;
2077.0;1438.3;;;;-0.28171924;0.8451463;0.046882637;;;;;;;;;;;;;;;;
2077.0;1438.3;;;;-0.27897266;0.85133374;0.04695893;;;;;;;;;;;;;;;;
2077.0;1438.3;;;;-0.2758179;0.8586885;0.046504978;;;;;;;;;;;;;;;;
2077.0;1439.8;262143;262143;12256;;;;;;;;;;;;;;;;;;;
2077.0;1446.0;;;;;;;;;;;;;-24505;;;;;;;;;
2077.0;1446.0;;;;;;;;;;;;;-23808;;;;;;;;;
2077.0;1446.0;;;;;;;;;;;;;-23165;;;;;;;;;
2077.0;1446.0;;;;;;;;;;;;;-22265;;;;;;;;;
2077.0;1446.0;;;;;;;;;;;;;-20997;;;;;;;;;
2077.0;1448.5;;;;-0.27333835;0.8631326;0.045989994;;;;;;;;;;;;;;;;
2077.0;1448.5;;;;-0.2693787;0.86709225;0.04548264;;;;;;;;;;;;;;;;
2077.0;1448.5;;;;-0.26563647;0.87038434;0.045635227;;;;;;;;;;;;;;;;
2077.0;1448.5;;;;-0.26315692;0.8721849;0.04653168;;;;;;;;;;;;;;;;
2077.0;1448.5;;;;-0.26152423;0.871956;0.047248848;;;;;;;;;;;;;;;;
2077.0;1458.6;;;;-0.25960925;0.8722116;0.0474701;;;;;;;;;;;;;;;;
2077.0;1458.6;;;;-0.25714877;0.8745462;0.047832496;;;;;;;;;;;;;;;;
2077.0;1458.6;;;;-0.25532153;0.87760174;0.047904976;;;;;;;;;;;;;;;;
2077.0;1458.6;;;;-0.25429538;0.8804513;0.047489174;;;;;;;;;;;;;;;;
2077.0;1458.6;;;;-0.25299075;0.8813096;0.047447212;;;;;;;;;;;;;;;;
2077.0;1460.1;262143;262143;12259;;;;;;;;;;;;;;;;;;;
2079.0;1468.7;;;;-0.25197604;0.88181317;0.047248848;;;;;;;;;;;;;;;;
2079.0;1468.7;;;;-0.25231555;0.8828927;0.04636002;;;;;;;;;;;;;;;;
2079.0;1468.7;;;;-0.25307468;0.8832704;0.045478825;;;;;;;;;;;;;;;;
2079.0;1468.7;;;;-0.2547913;0.8835107;0.045269016;;;;;;;;;;;;;;;;
2079.0;1468.7;;;;-0.2575722;0.88286984;0.04496384;;;;;;;;;;;;;;;;
2079.0;1470.7;;;;;;;;;;;;;;;;;-23.564104;19.177069;-73.46568;;1390.2;
2079.0;1470.7;;;;;;;;;;;;;;0.95492417;0.68263805;-0.11157567;;;;;1390.2;
2079.0;1470.7;;;;;;;;;;;;;;;;;-29.37788;21.290476;-71.3332;;1390.2;
2079.0;1470.7;;;;;;;;;;;;;;0.93594164;0.69197667;-0.10223701;;;;;1390.2;
2079.0;1470.7;;;;;;;;;;;;;;;;;-38.87295;23.274178;-70.23072;;1399.8;
2079.0;1470.7;;;;;;;;;;;;;;0.9239784;0.6992401;-0.10095523;;;;;1399.8;
2079.0;1470.7;;;;;;;;;;;;;;;;;-47.8988;26.219215;-69.200714;;1399.8;
2079.0;1470.7;;;;;;;;;;;;;;0.9198279;0.69576097;-0.09814753;;;;;1399.8;
2079.0;1470.7;;;;;;;;;;;;;;;;;-54.708244;28.889584;-68.02576;;1409.5;
2079.0;1470.7;;;;;;;;;;;;;;0.898648;0.65718555;-0.11066011;;;;;1409.5;
2079.0;1470.7;;;;;;;;;;;;;;;;;-56.41728;30.89236;-66.782135;;1409.5;
2079.0;1470.7;;;;;;;;;;;;;;0.8894314;0.57997376;-0.12933744;;;;;1409.5;
2080.0;1471.5;;;;;;;;;;;;;;;;;-54.456467;32.9104;-64.95865;;1419.1;
2080.0;1471.5;;;;;;;;;;;;;;0.88949245;0.52919096;-0.12237922;;;;;1419.1;
2080.0;1471.5;;;;;;;;;;;;;;;;;-53.598133;34.779655;-66.183205;;1419.1;
2080.0;1471.5;;;;;;;;;;;;;;0.88876003;0.49073765;-0.12384411;;;;;1419.1;
2080.0;1471.5;;;;;;;;;;;;;;;;;-50.954464;35.882137;-68.03339;;1428.8;
2080.0;1471.5;;;;;;;;;;;;;;0.8785058;0.47718742;-0.11963256;;;;;1428.8;
2080.0;1471.5;;;;;;;;;;;;;;;;;-47.92169;36.47725;-68.4759;;1428.8;
2080.0;1471.5;;;;;;;;;;;;;;0.867275;0.44709617;-0.12469863;;;;;1428.8;
2080.0;1471.5;;;;;;;;;;;;;;;;;-41.47084;38.132877;-67.75872;;1438.5;
2080.0;1471.5;;;;;;;;;;;;;;0.85006255;0.40705588;-0.120303966;;;;;1438.5;
2080.0;1471.5;;;;;;;;;;;;;;;;;-32.929474;38.98358;-68.78872;;1438.5;
2080.0;1471.5;;;;;;;;;;;;;;0.83852655;0.39509264;-0.09936827;;;;;1438.5;
2080.0;1478.5;;;;-0.26119617;0.88175976;0.044506077;;;;;;;;;;;;;;;;
2080.0;1478.5;;;;-0.2647858;0.88006985;0.043586735;;;;;;;;;;;;;;;;
2080.0;1478.5;;;;-0.26954272;0.8779069;0.042995457;;;;;;;;;;;;;;;;
2080.0;1478.5;;;;-0.27463153;0.8760911;0.042938236;;;;;;;;;;;;;;;;
2080.0;1478.5;;;;-0.2797623;0.8751832;0.042613987;;;;;;;;;;;;;;;;
2080.0;1480.1;262143;262143;12258;;;;;;;;;;;;;;;;;;;
2080.0;1486.2;;;;;;;;;;;;;-19885;;;;;;;;;
2080.0;1486.2;;;;;;;;;;;;;-19297;;;;;;;;;
2080.0;1486.2;;;;;;;;;;;;;-18677;;;;;;;;;
2080.0;1486.2;;;;;;;;;;;;;-16958;;;;;;;;;
2080.0;1486.2;;;;;;;;;;;;;-13681;;;;;;;;;
2082.0;1488.5;;;;-0.2835541;0.87433255;0.042598728;;;;;;;;;;;;;;;;
2082.0;1488.5;;;;-0.28595737;0.8740388;0.04251099;;;;;;;;;;;;;;;;
2082.0;1488.5;;;;-0.28849414;0.8738023;0.04253388;;;;;;;;;;;;;;;;
2082.0;1488.5;;;;-0.29140094;0.87448895;0.04232407;;;;;;;;;;;;;;;;
2082.0;1488.5;;;;-0.2940865;0.8752214;0.042839054;;;;;;;;;;;;;;;;
2082.0;1498.5;;;;-0.29711917;0.8762437;0.04302216;;;;;;;;;;;;;;;;
2082.0;1498.5;;;;-0.30064014;0.8753892;0.04288483;;;;;;;;;;;;;;;;
2082.0;1498.5;;;;-0.30454257;0.876114;0.043746952;;;;;;;;;;;;;;;;
2082.0;1498.5;;;;-0.30751422;0.8776628;0.04555512;;;;;;;;;;;;;;;;
2082.0;1498.5;;;;-0.31190112;0.87651837;0.046253208;;;;;;;;;;;;;;;;
2082.0;1500.1;262143;262143;12251;;;;;;;;;;;;;;;;;;;
2082.0;1508.6;;;;-0.31628802;0.8766557;0.046913154;;;;;;;;;;;;;;;;
2082.0;1508.6;;;;-0.32027057;0.8767053;0.04803849;;;;;;;;;;;;;;;;
2082.0;1508.6;;;;-0.32281497;0.8767053;0.048919685;;;;;;;;;;;;;;;;
2082.0;1508.6;;;;-0.32547382;0.8754426;0.049194343;;;;;;;;;;;;;;;;
2082.0;1508.6;;;;-0.32743838;0.8758546;0.050331123;;;;;;;;;;;;;;;;
2082.0;1518.7;;;;-0.3294945;0.8760263;0.050422676;;;;;;;;;;;;;;;;
2082.0;1518.7;;;;-0.33082584;0.8770677;0.05113221;;;;;;;;;;;;;;;;
2082.0;1518.7;;;;-0.33443454;0.87565625;0.050590523;;;;;;;;;;;;;;;;
2082.0;1518.7;;;;-0.3371506;0.8735658;0.051036842;;;;;;;;;;;;;;;;
2082.0;1518.7;;;;-0.33921817;0.8720323;0.05164338;;;;;;;;;;;;;;;;
2084.0;1520.4;262143;262143;12250;;;;;;;;;;;;;;;;;;;
2084.0;1526.6;;;;;;;;;;;;;-9856;;;;;;;;;
2084.0;1526.6;;;;;;;;;;;;;-7312;;;;;;;;;
2084.0;1526.6;;;;;;;;;;;;;-6727;;;;;;;;;
2084.0;1526.6;;;;;;;;;;;;;-7116;;;;;;;;;
2084.0;1526.6;;;;;;;;;;;;;-7365;;;;;;;;;
2084.0;1528.8;;;;-0.341507;0.8708421;0.051780708;;;;;;;;;;;;;;;;
2084.0;1528.8;;;;-0.34290698;0.8710481;0.052173622;;;;;;;;;;;;;;;;
2084.0;1528.8;;;;-0.34361652;0.87251294;0.05264283;;;;;;;;;;;;;;;;
2084.0;1528.8;;;;-0.34389117;0.8713113;0.05280686;;;;;;;;;;;;;;;;
2084.0;1528.8;;;;-0.343998;0.871235;0.05391694;;;;;;;;;;;;;;;;
2084.0;1531.2;;;;;;;;;;;;;;;;;-26.512955;39.162876;-70.520645;;1448.1;
2084.0;1531.2;;;;;;;;;;;;;;0.83010346;0.41261026;-0.07953124;;;;;1448.1;
2084.0;1531.2;;;;;;;;;;;;;;;;;-23.1254;39.853355;-71.39042;;1448.1;
2084.0;1531.2;;;;;;;;;;;;;;0.81118196;0.44227424;-0.059450056;;;;;1448.1;
2084.0;1531.2;;;;;;;;;;;;;;;;;-22.339548;39.643543;-72.24876;;1457.8;
2084.0;1531.2;;;;;;;;;;;;;;0.8004395;0.46388134;-0.05920591;;;;;1457.8;
2084.0;1531.2;;;;;;;;;;;;;;;;;-22.083958;38.10999;-73.68694;;1457.8;
2084.0;1531.2;;;;;;;;;;;;;;0.79635;0.5001373;-0.10077212;;;;;1457.8;
2084.0;1531.2;;;;;;;;;;;;;;;;;-20.443586;36.973175;-75.07554;;1467.4;
2084.0;1531.2;;;;;;;;;;;;;;0.7899411;0.5339518;-0.13879818;;;;;1467.4;
2084.0;1531.2;;;;;;;;;;;;;;;;;-16.739403;36.84347;-76.91046;;1467.4;
2084.0;1531.2;;;;;;;;;;;;;;0.776513;0.5683157;-0.15912351;;;;;1467.4;
2086.0;1531.9;;;;;;;;;;;;;;;;;-10.933256;37.121952;-77.2805;;1477.0;
2086.0;1531.9;;;;;;;;;;;;;;0.76216924;0.5937681;-0.14972381;;;;;1477.0;
2086.0;1531.9;;;;;;;;;;;;;;;;;-5.4437394;37.736137;-77.04398;;1477.0;
2086.0;1531.9;;;;;;;;;;;;;;0.7679067;0.6108585;-0.11877804;;;;;1477.0;
2086.0;1531.9;;;;;;;;;;;;;;;;;-1.6136662;39.738914;-77.200386;;1486.6;
2086.0;1531.9;;;;;;;;;;;;;;0.7637562;0.63997316;-0.06060976;;;;;1486.6;
2086.0;1531.9;;;;;;;;;;;;;;;;;0.12207404;40.162357;-77.21946;;1486.6;
2086.0;1531.9;;;;;;;;;;;;;;0.76509905;0.6590777;-0.01660207;;;;;1486.6;
2086.0;1531.9;;;;;;;;;;;;;;;;;2.1019626;38.880585;-77.29576;;1496.2;
2086.0;1531.9;;;;;;;;;;;;;;0.7754753;0.6738487;0.0050660726;;;;;1496.2;
2086.0;1531.9;;;;;;;;;;;;;;;;;2.9602954;39.963985;-76.815094;;1496.2;
2086.0;1531.9;;;;;;;;;;;;;;0.76564837;0.6787927;0.022156438;;;;;1496.2;
2086.0;1538.8;;;;-0.34338763;0.87090313;0.0546074;;;;;;;;;;;;;;;;
2086.0;1538.8;;;;-0.34220508;0.8714181;0.05479432;;;;;;;;;;;;;;;;
2086.0;1538.8;;;;-0.342289;0.87160885;0.05504609;;;;;;;;;;;;;;;;
2086.0;1538.8;;;;-0.34170917;0.87041867;0.056056984;;;;;;;;;;;;;;;;
2086.0;1538.8;;;;-0.3405266;0.87000287;0.05655671;;;;;;;;;;;;;;;;
2086.0;1540.5;262143;262143;12255;;;;;;;;;;;;;;;;;;;
2086.0;1548.8;;;;-0.34043506;0.8692285;0.056747444;;;;;;;;;;;;;;;;
2086.0;1548.8;;;;-0.34040835;0.8686334;0.05680848;;;;;;;;;;;;;;;;
2086.0;1548.8;;;;-0.33910373;0.8685571;0.057521828;;;;;;;;;;;;;;;;
2086.0;1548.8;;;;-0.33871844;0.8678514;0.057338722;;;;;;;;;;;;;;;;
2086.0;1548.8;;;;-0.33694842;0.86971676;0.05724717;;;;;;;;;;;;;;;;
2089.0;1558.8;;;;-0.33480838;0.872635;0.056903847;;;;;;;;;;;;;;;;
2089.0;1558.8;;;;-0.33290485;0.87426007;0.05710984;;;;;;;;;;;;;;;;
2089.0;1558.8;;;;-0.33033374;0.8749391;0.056179054;;;;;;;;;;;;;;;;
2089.0;1558.8;;;;-0.32657626;0.876629;0.05603791;;;;;;;;;;;;;;;;
2089.0;1558.8;;;;-0.32371143;0.87692654;0.055763252;;;;;;;;;;;;;;;;
2089.0;1560.5;262143;262143;12255;;;;;;;;;;;;;;;;;;;
2089.0;1566.7;;;;;;;;;;;;;-7073;;;;;;;;;
2089.0;1566.7;;;;;;;;;;;;;-6309;;;;;;;;;
2089.0;1566.7;;;;;;;;;;;;;-5374;;;;;;;;;
2089.0;1566.7;;;;;;;;;;;;;-4525;;;;;;;;;
2089.0;1566.7;;;;;;;;;;;;;-4054;;;;;;;;;
2089.0;1568.9;;;;-0.3206139;0.87794507;0.055213936;;;;;;;;;;;;;;;;
2089.0;1568.9;;;;-0.31809238;0.87823117;0.05504609;;;;;;;;;;;;;;;;
2089.0;1568.9;;;;-0.31595615;0.87874997;0.05534745;;;;;;;;;;;;;;;;
2089.0;1568.9;;;;-0.31439212;0.8779603;0.054229744;;;;;;;;;;;;;;;;
2089.0;1568.9;;;;-0.31351474;0.87654126;0.053459175;;;;;;;;;;;;;;;;
2089.0;1579.0;;;;-0.31307986;0.87604153;0.05288697;;;;;;;;;;;;;;;;
2089.0;1579.0;;;;-0.31233218;0.8768693;0.052257545;;;;;;;;;;;;;;;;
2089.0;1579.0;;;;-0.31181338;0.8766633;0.052101143;;;;;;;;;;;;;;;;
2089.0;1579.0;;;;-0.31197742;0.8768884;0.05205155;;;;;;;;;;;;;;;;
2089.0;1579.0;;;;-0.3125191;0.87701046;0.051795967;;;;;;;;;;;;;;;;
2089.0;1580.8;262143;262143;12247;;;;;;;;;;;;;;;;;;;
2091.0;1589.1;;;;-0.3134232;0.8775712;0.051486976;;;;;;;;;;;;;;;;
2091.0;1589.1;;;;-0.31466296;0.87965024;0.052299507;;;;;;;;;;;;;;;;
2091.0;1589.1;;;;-0.31483462;0.8823358;0.051723488;;;;;;;;;;;;;;;;
2091.0;1589.1;;;;-0.31305698;0.8870584;0.052127846;;;;;;;;;;;;;;;;
2091.0;1589.1;;;;-0.30824283;0.8916513;0.052101143;;;;;;;;;;;;;;;;
2091.0;1591.5;;;;;;;;;;;;;;;;;-0.79729605;40.406506;-77.894684;;1505.9;
2091.0;1591.5;;;;;;;;;;;;;;0.7621082;0.70064396;0.03991821;;;;;1505.9;
2091.0;1591.5;;;;;;;;;;;;;;;;;-8.136998;38.95688;-78.482155;;1505.9;
2091.0;1591.5;;;;;;;;;;;;;;0.7658315;0.7417829;0.03070162;;;;;1505.9;
2091.0;1591.5;;;;;;;;;;;;;;;;;-16.232033;38.216805;-78.03201;;1515.5;
2091.0;1591.5;;;;;;;;;;;;;;0.7672964;0.75936157;0.010010071;;;;;1515.5;
2091.0;1591.5;;;;;;;;;;;;;;;;;-22.526474;38.52962;-77.66198;;1515.5;
2091.0;1591.5;;;;;;;;;;;;;;0.77462083;0.7788934;-0.0081179235;;;;;1515.5;
2091.0;1591.5;;;;;;;;;;;;;;;;;-27.104252;39.574875;-77.74972;;1525.1;
2091.0;1591.5;;;;;;;;;;;;;;0.7685171;0.7755974;-0.0022583697;;;;;1525.1;
2091.0;1591.5;;;;;;;;;;;;;;;;;-29.17188;40.089874;-78.97808;;1525.1;
2091.0;1591.5;;;;;;;;;;;;;;0.75698113;0.77803886;0.0220954;;;;;1525.1;
2092.0;1592.3;;;;;;;;;;;;;;;;;-29.145178;39.75036;-79.19171;;1534.8;
2092.0;1592.3;;;;;;;;;;;;;;0.74941254;0.776574;0.05652028;;;;;1534.8;
2092.0;1592.3;;;;;;;;;;;;;;;;;-29.019287;38.480026;-78.52794;;1534.8;
2092.0;1592.3;;;;;;;;;;;;;;0.74074525;0.74666584;0.072206795;;;;;1534.8;
2092.0;1592.3;;;;;;;;;;;;;;;;;-28.798029;37.285988;-77.81076;;1544.5;
2092.0;1592.3;;;;;;;;;;;;;;0.73262733;0.7118747;0.0778222;;;;;1544.5;
2092.0;1592.3;;;;;;;;;;;;;;;;;-28.294474;37.003693;-76.90665;;1544.5;
2092.0;1592.3;;;;;;;;;;;;;;0.727134;0.67128515;0.07751702;;;;;1544.5;
2092.0;1592.3;;;;;;;;;;;;;;;;;-28.019806;37.86584;-75.89191;;1554.1;
2092.0;1592.3;;;;;;;;;;;;;;0.72273934;0.62581253;0.08404797;;;;;1554.1;
2092.0;1592.3;;;;;;;;;;;;;;;;;-28.313547;39.36506;-75.17472;;1554.1;
2092.0;1592.3;;;;;;;;;;;;;;0.7027192;0.5761284;0.097048864;;;;;1554.1;
2092.0;1599.0;;;;-0.30355456;0.8943597;0.05333329;;;;;;;;;;;;;;;;
2092.0;1599.0;;;;-0.30139163;0.8953134;0.054199226;;;;;;;;;;;;;;;;
2092.0;1599.0;;;;-0.30131915;0.8959466;0.054630287;;;;;;;;;;;;;;;;
2092.0;1599.0;;;;-0.30329517;0.89665616;0.055751808;;;;;;;;;;;;;;;;
2092.0;1599.0;;;;-0.30589297;0.8978158;0.05652619;;;;;;;;;;;;;;;;
2092.0;1600.9;262143;262143;12242;;;;;;;;;;;;;;;;;;;
2092.0;1606.9;;;;;;;;;;;;;-4154;;;;;;;;;
2092.0;1606.9;;;;;;;;;;;;;-4375;;;;;;;;;
2092.0;1606.9;;;;;;;;;;;;;-4078;;;;;;;;;
2092.0;1606.9;;;;;;;;;;;;;-3251;;;;;;;;;
2092.0;1606.9;;;;;;;;;;;;;-2190;;;;;;;;;
2094.0;1609.0;;;;-0.3079987;0.9009248;0.05744172;;;;;;;;;;;;;;;;
2094.0;1609.0;;;;-0.31019595;0.9037286;0.058403023;;;;;;;;;;;;;;;;
2094.0;1609.0;;;;-0.31369022;0.90651333;0.059249885;;;;;;;;;;;;;;;;
2094.0;1609.0;;;;-0.31826022;0.9105035;0.060459144;;;;;;;;;;;;;;;;
2094.0;1609.0;;;;-0.32478335;0.9150392;0.061302193;;;;;;;;;;;;;;;;
2094.0;1619.0;;;;-0.32960132;0.9229089;0.062049873;;;;;;;;;;;;;;;;
2094.0;1619.0;;;;-0.33280948;0.93075573;0.06271363;;;;;;;;;;;;;;;;
2094.0;1619.0;;;;-0.33452228;0.9380914;0.064292915;;;;;;;;;;;;;;;;
2094.0;1619.0;;;;-0.33644107;0.94689953;0.06600953;;;;;;;;;;;;;;;;
2094.0;1619.0;;;;-0.3379021;0.95783246;0.067493446;;;;;;;;;;;;;;;;
2094.0;1620.7;262143;262143;12239;;;;;;;;;;;;;;;;;;;
2094.0;1628.5;;;;-0.3375168;0.9695016;0.06917573;;;;;;;;;;;;;;;;
2094.0;1628.5;;;;-0.33586124;0.9795152;0.07120133;;;;;;;;;;;;;;;;
2094.0;1628.5;;;;-0.33318332;0.98760235;0.072788246;;;;;;;;;;;;;;;;
2094.0;1628.5;;;;-0.33012393;0.99258053;0.07434464;;;;;;;;;;;;;;;;
2094.0;1628.5;;;;-0.3271828;0.9974977;0.076385505;;;;;;;;;;;;;;;;
2094.0;1638.3;;;;-0.32384112;1.0043985;0.07808686;;;;;;;;;;;;;;;;
2094.0;1638.3;;;;-0.31987765;1.0126611;0.0800171;;;;;;;;;;;;;;;;
2094.0;1638.3;;;;-0.31491092;1.0190927;0.08110047;;;;;;;;;;;;;;;;
2094.0;1638.3;;;;-0.3105698;1.0223657;0.08260728;;;;;;;;;;;;;;;;
2094.0;1638.3;;;;-0.30696872;1.0246392;0.08449174;;;;;;;;;;;;;;;;
2105.0;1640.3;262143;262143;12245;;;;;;;;;;;;;;;;;;;
2105.0;1646.5;;;;;;;;;;;;;-966;;;;;;;;;
2105.0;1646.5;;;;;;;;;;;;;223;;;;;;;;;
2105.0;1646.5;;;;;;;;;;;;;918;;;;;;;;;
2105.0;1646.5;;;;;;;;;;;;;1007;;;;;;;;;
2105.0;1646.5;;;;;;;;;;;;;863;;;;;;;;;
2105.0;1648.4;;;;-0.30459216;1.0262758;0.08603669;;;;;;;;;;;;;;;;
2105.0;1648.4;;;;-0.3028336;1.0289651;0.08832932;;;;;;;;;;;;;;;;
2105.0;1648.4;;;;-0.3022919;1.0309945;0.08940507;;;;;;;;;;;;;;;;
2105.0;1648.4;;;;-0.30175784;1.0337793;0.09152604;;;;;;;;;;;;;;;;
2105.0;1648.4;;;;-0.30152515;1.0365716;0.093471535;;;;;;;;;;;;;;;;
2105.0;1651.0;;;;;;;;;;;;;;;;;-30.415508;40.952023;-75.21287;;1563.8;
2105.0;1651.0;;;;;;;;;;;;;;0.68727684;0.55079806;0.11011078;;;;;1563.8;
2105.0;1651.0;;;;;;;;;;;;;;;;;-32.147434;41.52043;-74.86191;;1563.8;
2105.0;1651.0;;;;;;;;;;;;;;0.6758019;0.5195471;0.118533894;;;;;1563.8;
2105.0;1651.0;;;;;;;;;;;;;;;;;-33.79925;41.547134;-74.47661;;1573.3;
2105.0;1651.0;;;;;;;;;;;;;;0.65919983;0.48579362;0.10278634;;;;;1573.3;
2105.0;1651.0;;;;;;;;;;;;;;;;;-35.24888;42.394024;-74.31257;;1573.3;
2105.0;1651.0;;;;;;;;;;;;;;0.64479506;0.49501023;0.09613331;;;;;1573.3;
2105.0;1651.0;;;;;;;;;;;;;;;;;-36.610767;43.73684;-73.45805;;1582.9;
2105.0;1651.0;;;;;;;;;;;;;;0.6198309;0.48402357;0.08130131;;;;;1582.9;
2105.0;1651.0;;;;;;;;;;;;;;;;;-36.164433;45.701466;-72.41661;;1582.9;
2105.0;1651.0;;;;;;;;;;;;;;0.59578234;0.4479507;0.07415998;;;;;1582.9;
2106.0;1652.2;;;;;;;;;;;;;;;;;-33.478806;46.189762;-72.14194;;1592.6;
2106.0;1652.2;;;;;;;;;;;;;;0.57960755;0.4720603;0.06714072;;;;;1592.6;
2106.0;1652.2;;;;;;;;;;;;;;;;;-30.640583;45.812096;-71.25309;;1592.6;
2106.0;1652.2;;;;;;;;;;;;;;0.5568407;0.41987365;0.04382458;;;;;1592.6;
2106.0;1652.2;;;;;;;;;;;;;;;;;-25.437178;44.255653;-70.49776;;1602.2;
2106.0;1652.2;;;;;;;;;;;;;;0.5123447;0.38660848;0.042786952;;;;;1602.2;
2106.0;1652.2;;;;;;;;;;;;;;;;;-24.433882;41.844692;-70.73046;;1602.2;
2106.0;1652.2;;;;;;;;;;;;;;0.52253795;0.48365733;0.051332135;;;;;1602.2;
2106.0;1652.2;;;;;;;;;;;;;;;;;-23.66329;38.430435;-68.605606;;1611.9;
2106.0;1652.2;;;;;;;;;;;;;;0.5274819;0.456679;0.04773095;;;;;1611.9;
2106.0;1652.2;;;;;;;;;;;;;;;;;-22.51503;36.52684;-66.339615;;1611.9;
2106.0;1652.2;;;;;;;;;;;;;;0.5492111;0.4897;-0.029419843;;;;;1611.9;
2106.0;1658.4;;;;-0.3021584;1.0397607;0.09503938;;;;;;;;;;;;;;;;
2106.0;1658.4;;;;-0.3049889;1.0427743;0.095459;;;;;;;;;;;;;;;;
2106.0;1658.4;;;;-0.30650333;1.0466272;0.09794618;;;;;;;;;;;;;;;;
2106.0;1658.4;;;;-0.30406192;1.0492288;0.10034944;;;;;;;;;;;;;;;;
2106.0;1658.4;;;;-0.3024216;1.0529901;0.101196304;;;;;;;;;;;;;;;;
2106.0;1660.4;262143;262143;12238;;;;;;;;;;;;;;;;;;;
2106.0;1668.4;;;;-0.299881;1.057808;0.101634994;;;;;;;;;;;;;;;;
2106.0;1668.4;;;;-0.29711917;1.0644838;0.10335924;;;;;;;;;;;;;;;;
2106.0;1668.4;;;;-0.29381564;1.0686265;0.10491182;;;;;;;;;;;;;;;;
2106.0;1668.4;;;;-0.28857043;1.072136;0.10745622;;;;;;;;;;;;;;;;
2106.0;1668.4;;;;-0.28458408;1.0746385;0.11117937;;;;;;;;;;;;;;;;
2107.0;1678.4;;;;-0.28467563;1.0735627;0.11204912;;;;;;;;;;;;;;;;
2107.0;1678.4;;;;-0.2851601;1.0723306;0.11267854;;;;;;;;;;;;;;;;
2107.0;1678.4;;;;-0.28576282;1.076954;0.11356355;;;;;;;;;;;;;;;;
2107.0;1678.4;;;;-0.28701785;1.0821458;0.116115585;;;;;;;;;;;;;;;;
2107.0;1678.4;;;;-0.2907906;1.0902559;0.118316665;;;;;;;;;;;;;;;;
2107.0;1680.4;262143;262143;12241;;;;;;;;;;;;;;;;;;;
2107.0;1686.6;;;;;;;;;;;;;1020;;;;;;;;;
2107.0;1686.6;;;;;;;;;;;;;1564;;;;;;;;;
2107.0;1686.6;;;;;;;;;;;;;2093;;;;;;;;;
2107.0;1686.6;;;;;;;;;;;;;2260;;;;;;;;;
2107.0;1686.6;;;;;;;;;;;;;2193;;;;;;;;;
2107.0;1688.5;;;;-0.29038242;1.0963975;0.11931993;;;;;;;;;;;;;;;;
2107.0;1688.5;;;;-0.28882602;1.0998918;0.121784225;;;;;;;;;;;;;;;;
2107.0;1688.5;;;;-0.28639606;1.1064721;0.12555696;;;;;;;;;;;;;;;;
2107.0;1688.5;;;;-0.2858391;1.1125947;0.12840654;;;;;;;;;;;;;;;;
2107.0;1688.5;;;;-0.2858353;1.1182748;0.13179018;;;;;;;;;;;;;;;;
2107.0;1698.6;;;;-0.28682712;1.121689;0.13389207;;;;;;;;;;;;;;;;
2107.0;1698.6;;;;-0.28784946;1.125599;0.13613893;;;;;;;;;;;;;;;;
2107.0;1698.6;;;;-0.28909686;1.1297837;0.13827135;;;;;;;;;;;;;;;;
2107.0;1698.6;;;;-0.28977588;1.1324922;0.1391411;;;;;;;;;;;;;;;;
2107.0;1698.6;;;;-0.28871158;1.1348573;0.14140703;;;;;;;;;;;;;;;;
2107.0;1700.7;262143;262143;12231;;;;;;;;;;;;;;;;;;;
2108.0;1708.7;;;;-0.28747943;1.1413423;0.14055635;;;;;;;;;;;;;;;;
2108.0;1708.7;;;;-0.2879906;1.1503183;0.14052202;;;;;;;;;;;;;;;;
2108.0;1708.7;;;;-0.28853992;1.1552545;0.14169313;;;;;;;;;;;;;;;;
2108.0;1708.7;;;;-0.28686145;1.1613733;0.14432146;;;;;;;;;;;;;;;;
2108.0;1708.7;;;;-0.28481677;1.1693841;0.14349367;;;;;;;;;;;;;;;;
2108.0;1711.6;;;;;;;;;;;;;;;;;-23.571733;43.06925;-62.097538;;1621.5;
2108.0;1711.6;;;;;;;;;;;;;;0.5352336;0.48066652;-0.021546068;;;;;1621.5;
2108.0;1711.6;;;;;;;;;;;;;;;;;-23.281807;46.64754;-58.896908;;1621.5;
2108.0;1711.6;;;;;;;;;;;;;;0.51301616;0.4760277;0.0076906644;;;;;1621.5;
2108.0;1711.6;;;;;;;;;;;;;;;;;-23.010956;46.777245;-56.05487;;1631.1;
2108.0;1711.6;;;;;;;;;;;;;;0.5013581;0.5040437;0.031067843;;;;;1631.1;
2108.0;1711.6;;;;;;;;;;;;;;;;;-23.976105;45.35432;-52.648243;;1631.1;
2108.0;1711.6;;;;;;;;;;;;;;0.4893948;0.4984283;0.02887051;;;;;1631.1;
2108.0;1711.6;;;;;;;;;;;;;;;;;-23.34666;43.65673;-49.932095;;1640.8;
2108.0;1711.6;;;;;;;;;;;;;;0.47950682;0.5271157;0.03320414;;;;;1640.8;
2108.0;1711.6;;;;;;;;;;;;;;;;;-22.885067;42.413097;-47.08243;;1640.8;
2108.0;1711.6;;;;;;;;;;;;;;0.45661795;0.56483656;0.04504532;;;;;1640.8;
2113.0;1712.5;;;;;;;;;;;;;;;;;-22.637104;39.50621;-43.599506;;1650.4;
2113.0;1712.5;;;;;;;;;;;;;;0.45149082;0.5980407;0.047975097;;;;;1650.4;
2113.0;1712.5;;;;;;;;;;;;;;;;;-22.846918;36.48488;-38.64025;;1650.4;
2113.0;1712.5;;;;;;;;;;;;;;0.4275033;0.60194707;0.05511643;;;;;1650.4;
2113.0;1712.5;;;;;;;;;;;;;;;;;-22.919401;32.71203;-34.11206;;1659.9;
2113.0;1712.5;;;;;;;;;;;;;;0.42200994;0.6140324;0.0590228;;;;;1659.9;
2113.0;1712.5;;;;;;;;;;;;;;;;;-24.716179;28.237251;-29.59151;;1659.9;
2113.0;1712.5;;;;;;;;;;;;;;0.41297647;0.6252632;0.06622516;;;;;1659.9;
2113.0;1712.5;;;;;;;;;;;;;;;;;-27.966398;23.438215;-24.674215;;1669.5;
2113.0;1712.5;;;;;;;;;;;;;;0.4199347;0.6201972;0.06805628;;;;;1669.5;
2113.0;1712.5;;;;;;;;;;;;;;;;;-32.02536;18.990143;-19.028292;;1669.5;
2113.0;1712.5;;;;;;;;;;;;;;0.41846982;0.59474474;0.06659139;;;;;1669.5;
2113.0;1718.4;;;;-0.2803879;1.1754075;0.14384843;;;;;;;;;;;;;;;;
2113.0;1718.4;;;;-0.27821353;1.1828042;0.14392473;;;;;;;;;;;;;;;;
2113.0;1718.4;;;;-0.2759247;1.1865426;0.14181902;;;;;;;;;;;;;;;;
2113.0;1718.4;;;;-0.27474216;1.1939698;0.14095308;;;;;;;;;;;;;;;;
2113.0;1718.4;;;;-0.27283862;1.2001611;0.13938142;;;;;;;;;;;;;;;;
2113.0;1720.6;262143;262143;12235;;;;;;;;;;;;;;;;;;;
2113.0;1726.6;;;;;;;;;;;;;2356;;;;;;;;;
2113.0;1726.6;;;;;;;;;;;;;2902;;;;;;;;;
2113.0;1726.6;;;;;;;;;;;;;3611;;;;;;;;;
2113.0;1726.6;;;;;;;;;;;;;4329;;;;;;;;;
2113.0;1726.6;;;;;;;;;;;;;4899;;;;;;;;;
2114.0;1728.4;;;;-0.27106097;1.2060815;0.13793184;;;;;;;;;;;;;;;;
2114.0;1728.4;;;;-0.2695122;1.2113725;0.13578416;;;;;;;;;;;;;;;;
2114.0;1728.4;;;;-0.2659569;1.2212831;0.13479234;;;;;;;;;;;;;;;;
2114.0;1728.4;;;;-0.26567844;1.2286378;0.13137056;;;;;;;;;;;;;;;;
2114.0;1728.4;;;;-0.26809314;1.2354165;0.12783052;;;;;;;;;;;;;;;;
2114.0;1736.9;;;;;;;;;;-2.277444;-0.7820368;-0.7553331;;;;;;;;;;
2114.0;1736.9;;;;;;;0.24738304;-0.877224;0.02478103;;;;;;;;;;;;;
2114.0;1736.9;;;;;;;;;;23.808252;33.658104;34.45158;;;;;;;;;;
2114.0;1736.9;;;;;;;0.27625355;-0.9830622;0.031311993;;;;;;;;;;;;;
2114.0;1738.4;;;;-0.27130893;1.2460786;0.12484361;;;;;;;;;;;;;;;;
2114.0;1738.4;;;;-0.27053836;1.2539979;0.123626724;;;;;;;;;;;;;;;;
2114.0;1738.4;;;;-0.27071002;1.2626115;0.12136079;;;;;;;;;;;;;;;;
2114.0;1738.4;;;;-0.26994327;1.2710344;0.11810304;;;;;;;;;;;;;;;;
2114.0;1738.4;;;;-0.2657509;1.2781945;0.11658479;;;;;;;;;;;;;;;;
2114.0;1740.5;262143;262143;12234;;;;;;;;;;;;;;;;;;;
2114.0;1746.2;;;;;;;;;;34.53932;42.89758;48.440506;;;;;;;;;;
2114.0;1746.2;;;;;;;0.27777946;-0.97915584;0.036439102;;;;;;;;;;;;;
2114.0;1746.2;;;;;;;;;;27.138586;44.339577;54.216133;;;;;;;;;;
2114.0;1746.2;;;;;;;0.27521592;-0.9780572;0.04235969;;;;;;;;;;;;;
2115.0;1748.3;;;;-0.2650452;1.2855226;0.112266555;;;;;;;;;;;;;;;;
2115.0;1748.3;;;;-0.26527026;1.2940408;0.111145034;;;;;;;;;;;;;;;;
2115.0;1748.3;;;;-0.26910403;1.3002206;0.10871126;;;;;;;;;;;;;;;;
2115.0;1748.3;;;;-0.2729874;1.3057367;0.10868837;;;;;;;;;;;;;;;;
2115.0;1748.3;;;;-0.27949908;1.3047181;0.10444261;;;;;;;;;;;;;;;;
2115.0;1755.8;;;;;;;;;;23.991364;28.668325;40.94058;;;;;;;;;;
2115.0;1755.8;;;;;;;0.26947844;-0.9772637;0.04712058;;;;;;;;;;;;;
2115.0;1755.8;;;;;;;;;;11.88696;-33.486435;-3.5782952;;;;;;;;;;
2115.0;1755.8;;;;;;;0.26386303;-0.9771416;0.051576283;;;;;;;;;;;;;
2115.0;1758.4;;;;-0.28407672;1.3064348;0.103382125;;;;;;;;;;;;;;;;
2115.0;1758.4;;;;-0.2900124;1.3077737;0.1006241;;;;;;;;;;;;;;;;
2115.0;1758.4;;;;-0.29518893;1.3062097;0.096721664;;;;;;;;;;;;;;;;
2115.0;1758.4;;;;-0.2948685;1.3078042;0.09543611;;;;;;;;;;;;;;;;
2115.0;1758.4;;;;-0.29409793;1.3100282;0.094303146;;;;;;;;;;;;;;;;
2115.0;1760.7;262143;262143;12222;;;;;;;;;;;;;;;;;;;
2115.0;1765.5;;;;;;;;;;12.207404;-32.727287;5.0927763;;;;;;;;;;
2115.0;1765.5;;;;;;;0.25995666;-0.97274697;0.055787835;;;;;;;;;;;;;
2115.0;1765.5;;;;;;;;;;12.48207;-34.516434;6.6873684;;;;;;;;;;
2115.0;1765.5;;;;;;;0.25879696;-0.966216;0.059511095;;;;;;;;;;;;;
2115.0;1766.8;;;;;;;;;;;;;5292;;;;;;;;;
2115.0;1766.8;;;;;;;;;;;;;5472;;;;;;;;;
2115.0;1766.8;;;;;;;;;;;;;5203;;;;;;;;;
2115.0;1766.8;;;;;;;;;;;;;4443;;;;;;;;;
2115.0;1766.8;;;;;;;;;;;;;3610;;;;;;;;;
2117.0;1768.5;;;;-0.29689792;1.3135492;0.092132576;;;;;;;;;;;;;;;;
2117.0;1768.5;;;;-0.29918674;1.3131372;0.08974839;;;;;;;;;;;;;;;;
2117.0;1768.5;;;;-0.29949954;1.3111802;0.08901978;;;;;;;;;;;;;;;;
2117.0;1768.5;;;;-0.2994614;1.3112642;0.08863068;;;;;;;;;;;;;;;;
2117.0;1768.5;;;;-0.30089954;1.3108331;0.08725358;;;;;;;;;;;;;;;;
2117.0;1771.3;;;;;;;;;;;;;;;;;-37.09525;15.934477;-14.22544;;1679.2;
2117.0;1771.3;;;;;;;;;;;;;;0.42396313;0.5845515;0.08917508;;;;;1679.2;
2117.0;1771.3;;;;;;;;;;;;;;;;;-41.72262;13.4167;-9.006775;;1679.2;
2117.0;1771.3;;;;;;;;;;;;;;0.4199347;0.5661794;0.10449538;;;;;1679.2;
2117.0;1771.3;;;;;;;;;;;;;;;;;-45.728172;11.917479;-3.730888;;1688.9;
2117.0;1771.3;;;;;;;;;;;;;;0.42249826;0.5757012;0.1180456;;;;;1688.9;
2117.0;1771.3;;;;;;;;;;;;;;;;;-48.860134;12.348553;1.2665181;;1688.9;
2117.0;1771.3;;;;;;;;;;;;;;0.41492966;0.567217;0.16187018;;;;;1688.9;
2117.0;1771.3;;;;;;;;;;;;;;;;;-51.557205;11.77633;6.2067018;;1698.3;
2117.0;1771.3;;;;;;;;;;;;;;0.41822565;0.5592822;0.18720053;;;;;1698.3;
2117.0;1771.3;;;;;;;;;;;;;;;;;-52.709282;12.939848;10.7806635;;1698.3;
2117.0;1771.3;;;;;;;;;;;;;;0.47047335;0.5689871;0.21308023;;;;;1698.3;
2118.0;1772.4;;;;;;;;;;;;;;;;;-48.96695;14.828181;14.492477;;1708.0;
2118.0;1772.4;;;;;;;;;;;;;;0.5485397;0.63686025;0.2245552;;;;;1708.0;
2118.0;1772.4;;;;;;;;;;;;;;;;;-46.636097;18.547625;16.59444;;1708.0;
2118.0;1772.4;;;;;;;;;;;;;;0.67952514;0.7757805;0.21082187;;;;;1708.0;
2118.0;1772.4;;;;;;;;;;;;;;;;;-45.873135;30.808435;17.090364;;1717.7;
2118.0;1772.4;;;;;;;;;;;;;;0.8281503;0.93057036;0.25153357;;;;;1717.7;
2118.0;1772.4;;;;;;;;;;;;;;;;;-37.224953;46.44154;14.278848;;1717.7;
2118.0;1772.4;;;;;;;;;;;;;;0.95651114;1.1253395;0.3190405;;;;;1717.7;
2118.0;1772.4;;;;;;;;;;;;;;;;;-24.647512;57.14591;6.183813;;1727.3;
2118.0;1772.4;;;;;;;;;;;;;;1.0824915;1.3275552;0.36432996;;;;;1727.3;
2118.0;1772.4;;;;;;;;;;;;;;;;;-13.91644;58.500168;-5.706961;;1727.3;
2118.0;1772.4;;;;;;;;;;;;;;1.2288584;1.5061495;0.4005249;;;;;1727.3;
2118.0;1774.8;;;;;;;;;;12.813959;-37.675102;6.126591;;;;;;;;;;
2118.0;1774.8;;;;;;;0.2580645;-0.95864743;0.060914945;;;;;;;;;;;;;
2118.0;1774.8;;;;;;;;;;13.172552;-39.361244;5.7298503;;;;;;;;;;
2118.0;1774.8;;;;;;;0.2544023;-0.9519333;0.06408887;;;;;;;;;;;;;
2118.0;1778.3;;;;-0.30241778;1.3090745;0.08628083;;;;;;;;;;;;;;;;
2118.0;1778.3;;;;-0.30492023;1.3086206;0.08523179;;;;;;;;;;;;;;;;
2118.0;1778.3;;;;-0.3079758;1.3056756;0.084636696;;;;;;;;;;;;;;;;
2118.0;1778.3;;;;-0.31291583;1.3033029;0.083206184;;;;;;;;;;;;;;;;
2118.0;1778.3;;;;-0.31766894;1.3026315;0.08185197;;;;;;;;;;;;;;;;
2118.0;1780.6;262143;262143;12216;;;;;;;;;;;;;;;;;;;
2119.0;1784.3;;;;;;;;;;13.6227;-40.841396;5.386517;;;;;;;;;;
2119.0;1784.3;;;;;;;0.25403607;-0.94283885;0.06524857;;;;;;;;;;;;;
2119.0;1784.3;;;;;;;;;;13.985106;-42.39021;4.791406;;;;;;;;;;
2119.0;1784.3;;;;;;;0.25037384;-0.9340495;0.06750695;;;;;;;;;;;;;
2119.0;1788.3;;;;-0.31948856;1.3012124;0.082363136;;;;;;;;;;;;;;;;
2119.0;1788.3;;;;-0.31937793;1.2959138;0.08158494;;;;;;;;;;;;;;;;
2119.0;1788.3;;;;-0.3218918;1.2907678;0.08107758;;;;;;;;;;;;;;;;
2119.0;1788.3;;;;-0.32582858;1.2889673;0.081192024;;;;;;;;;;;;;;;;
2119.0;1788.3;;;;-0.33002093;1.285576;0.08058167;;;;;;;;;;;;;;;;
2119.0;1793.8;;;;;;;;;;14.442884;-44.457836;4.0971103;;;;;;;;;;
2119.0;1793.8;;;;;;;0.2445143;-0.9207434;0.0672628;;;;;;;;;;;;;
2119.0;1793.8;;;;;;;;;;14.957885;-46.43391;3.4295175;;;;;;;;;;
2119.0;1793.8;;;;;;;0.23908201;-0.9040193;0.06836146;;;;;;;;;;;;;
2119.0;1798.4;;;;-0.33309558;1.281334;0.08008958;;;;;;;;;;;;;;;;
2119.0;1798.4;;;;-0.33578494;1.2774621;0.07958222;;;;;;;;;;;;;;;;
2119.0;1798.4;;;;-0.33784106;1.2734987;0.07970429;;;;;;;;;;;;;;;;
2119.0;1798.4;;;;-0.3397713;1.2694513;0.0794983;;;;;;;;;;;;;;;;
2119.0;1798.4;;;;-0.34152606;1.2660638;0.07880784;;;;;;;;;;;;;;;;
2119.0;1800.7;262143;262143;12221;;;;;;;;;;;;;;;;;;;
2119.0;1803.4;;;;;;;;;;15.408032;-48.06284;2.7161474;;;;;;;;;;
2119.0;1803.4;;;;;;;0.23633534;-0.8895535;0.06964324;;;;;;;;;;;;;
2119.0;1803.4;;;;;;;;;;15.793329;-49.35606;1.9875181;;;;;;;;;;
2119.0;1803.4;;;;;;;0.23541978;-0.8785058;0.07000946;;;;;;;;;;;;;
2194.0;1806.8;;;;;;;;;;;;;3195;;;;;;;;;
2194.0;1806.8;;;;;;;;;;;;;3283;;;;;;;;;
2194.0;1806.8;;;;;;;;;;;;;3494;;;;;;;;;
2194.0;1806.8;;;;;;;;;;;;;3452;;;;;;;;;
2194.0;1806.8;;;;;;;;;;;;;3291;;;;;;;;;
2194.0;1808.5;;;;-0.34155658;1.2626497;0.07805634;;;;;;;;;;;;;;;;
2194.0;1808.5;;;;-0.34204105;1.2603112;0.07801438;;;;;;;;;;;;;;;;
2194.0;1808.5;;;;-0.34216312;1.2585412;0.0774994;;;;;;;;;;;;;;;;
2194.0;1808.5;;;;-0.34287265;1.2581903;0.0764885;;;;;;;;;;;;;;;;
2194.0;1808.5;;;;-0.34318927;1.2583543;0.07520295;;;;;;;;;;;;;;;;
2194.0;1813.1;;;;;;;;;;16.08707;-50.668354;1.0948515;;;;;;;;;;
2194.0;1813.1;;;;;;;0.23395489;-0.8669088;0.07196265;;;;;;;;;;;;;
2194.0;1813.1;;;;;;;;;;16.48381;-51.705986;0.20981476;;;;;;;;;;
2194.0;1813.1;;;;;;;0.23474838;-0.8579363;0.07324442;;;;;;;;;;;;;
2194.0;1818.6;;;;-0.3432007;1.2592393;0.07442475;;;;;;;;;;;;;;;;
2194.0;1818.6;;;;-0.34416202;1.2617875;0.07343293;;;;;;;;;;;;;;;;
2194.0;1818.6;;;;-0.34364703;1.265793;0.07291413;;;;;;;;;;;;;;;;
2194.0;1818.6;;;;-0.34216312;1.2712327;0.07308961;;;;;;;;;;;;;;;;
2194.0;1818.6;;;;-0.34123614;1.2770501;0.07227326;;;;;;;;;;;;;;;;
2194.0;1821.0;262143;262143;12216;;;;;;;;;;;;;;;;;;;
2194.0;1822.7;;;;;;;;;;16.804255;-52.44606;-0.6256294;;;;;;;;;;
2194.0;1822.7;;;;;;;0.2360912;-0.85299236;0.07324442;;;;;;;;;;;;;
2194.0;1822.7;;;;;;;;;;17.052216;-53.18232;-1.5297403;;;;;;;;;;
2194.0;1822.7;;;;;;;0.2356029;-0.85189366;0.07440413;;;;;;;;;;;;;
2197.0;1828.7;;;;-0.3403969;1.2844659;0.07181168;;;;;;;;;;;;;;;;
2197.0;1828.7;;;;-0.34075168;1.2928659;0.07163239;;;;;;;;;;;;;;;;
2197.0;1828.7;;;;-0.34050754;1.3021852;0.07159806;;;;;;;;;;;;;;;;
2197.0;1828.7;;;;-0.3417168;1.3115884;0.071414955;;;;;;;;;;;;;;;;
2197.0;1828.7;;;;-0.3438759;1.3204004;0.07108308;;;;;;;;;;;;;;;;
2197.0;1831.5;;;;;;;;;;;;;;;;;-4.8295546;44.86221;-12.977996;;1737.0;
2197.0;1831.5;;;;;;;;;;;;;;1.3252968;1.494003;0.38032165;;;;;1737.0;
2197.0;1831.5;;;;;;;;;;;;;;;;;7.648701;17.242958;-12.478255;;1737.0;
2197.0;1831.5;;;;;;;;;;;;;;1.3978698;1.1922361;0.24280526;;;;;1737.0;
2197.0;1831.5;;;;;;;;;;;;;;;;;19.432661;-6.324961;-8.613849;;1746.6;
2197.0;1831.5;;;;;;;;;;;;;;1.3703421;0.7964721;0.13995789;;;;;1746.6;
2197.0;1831.5;;;;;;;;;;;;;;;;;19.3907;-19.05118;-7.4121833;;1746.6;
2197.0;1831.5;;;;;;;;;;;;;;1.2353892;0.5182043;0.23194067;;;;;1746.6;
2197.0;1831.5;;;;;;;;;;;;;;;;;8.81222;-32.700584;-7.0307016;;1756.2;
2197.0;1831.5;;;;;;;;;;;;;;1.0985442;0.34968108;0.3272805;;;;;1756.2;
2197.0;1831.5;;;;;;;;;;;;;;;;;-5.3025913;-43.11121;-0.86214787;;1756.2;
2197.0;1831.5;;;;;;;;;;;;;;0.924955;0.14764854;0.41279337;;;;;1756.2;
2313.0;1832.4;;;;;;;;;;;;;;;;;-15.6788845;-51.27491;10.643331;;1765.7;
2313.0;1832.4;;;;;;;;;;;;;;0.770043;-0.027283547;0.4720603;;;;;1765.7;
2313.0;1832.4;;;;;;;;;;;;;;;;;-16.605885;-55.021057;26.12003;;1765.7;
2313.0;1832.4;;;;;;;;;;;;;;0.664449;-0.19006927;0.47755364;;;;;1765.7;
2313.0;1832.4;;;;;;;;;;;;;;;;;-6.44322;-48.772396;40.208134;;1775.4;
2313.0;1832.4;;;;;;;;;;;;;;0.5700247;-0.24396497;0.514481;;;;;1775.4;
2313.0;1832.4;;;;;;;;;;;;;;;;;15.408032;-48.63506;44.35865;;1775.4;
2313.0;1832.4;;;;;;;;;;;;;;0.44544816;-0.024903104;0.48316905;;;;;1775.4;
2313.0;1832.4;;;;;;;;;;;;;;;;;44.637135;-74.64446;45.54506;;1785.1;
2313.0;1832.4;;;;;;;;;;;;;;0.46565142;0.2849208;0.21430098;;;;;1785.1;
2313.0;1832.4;;;;;;;;;;;;;;;;;78.3639;-88.14509;48.94406;;1785.1;
2313.0;1832.4;;;;;;;;;;;;;;0.67110205;0.64711446;0.003234962;;;;;1785.1;
2313.0;1832.2;;;;;;;;;;17.220068;-54.017765;-2.311777;;;;;;;;;;
2313.0;1832.2;;;;;;;0.23316142;-0.8556169;0.06933805;;;;;;;;;;;;;
2313.0;1832.2;;;;;;;;;;17.563402;-54.71969;-2.76574;;;;;;;;;;
2313.0;1832.2;;;;;;;0.23212378;-0.8665426;0.0634785;;;;;;;;;;;;;
2313.0;1838.5;;;;-0.34612277;1.328045;0.07181931;;;;;;;;;;;;;;;;
2313.0;1838.5;;;;-0.34730914;1.3359185;0.07177354;;;;;;;;;;;;;;;;
2313.0;1838.5;;;;-0.34874347;1.3432924;0.07144929;;;;;;;;;;;;;;;;
2313.0;1838.5;;;;-0.35069278;1.349598;0.07146836;;;;;;;;;;;;;;;;
2313.0;1838.5;;;;-0.35236362;1.3540345;0.07180024;;;;;;;;;;;;;;;;
2313.0;1841.0;262143;262143;12221;;;;;;;;;;;;;;;;;;;
2315.0;1841.7;;;;;;;;;;17.796106;-55.307167;-3.1090732;;;;;;;;;;
2315.0;1841.7;;;;;;;0.22772911;-0.8808252;0.05963317;;;;;;;;;;;;;
2315.0;1841.7;;;;;;;;;;17.90292;-55.730614;-3.47911;;;;;;;;;;
2315.0;1841.7;;;;;;;0.21784112;-0.9007843;0.053407393;;;;;;;;;;;;;
2315.0;1847.0;;;;;;;;;;;;;3236;;;;;;;;;
2315.0;1847.0;;;;;;;;;;;;;2921;;;;;;;;;
2315.0;1847.0;;;;;;;;;;;;;1584;;;;;;;;;
2315.0;1847.0;;;;;;;;;;;;;1540;;;;;;;;;
2315.0;1847.0;;;;;;;;;;;;;5151;;;;;;;;;
2315.0;1848.5;;;;-0.35493854;1.357773;0.071601875;;;;;;;;;;;;;;;;
2315.0;1848.5;;;;-0.3564873;1.3605119;0.07183457;;;;;;;;;;;;;;;;
2315.0;1848.5;;;;-0.35807803;1.3618699;0.07225037;;;;;;;;;;;;;;;;
2315.0;1848.5;;;;-0.36007693;1.3626405;0.0725937;;;;;;;;;;;;;;;;
2315.0;1848.5;;;;-0.36237338;1.3605386;0.07189179;;;;;;;;;;;;;;;;
2315.0;1851.2;;;;;;;;;;17.979218;-55.49028;-3.4676657;;;;;;;;;;
2315.0;1851.2;;;;;;;0.21228676;-0.9275796;0.04956206;;;;;;;;;;;;;
2315.0;1851.2;;;;;;;;;;18.127995;-54.361095;-3.1395917;;;;;;;;;;
2315.0;1851.2;;;;;;;0.21662039;-0.95742667;0.050721765;;;;;;;;;;;;;
2315.0;1858.5;;;;-0.36380008;1.3575784;0.0707512;;;;;;;;;;;;;;;;
2315.0;1858.5;;;;-0.3652039;1.3536149;0.07003022;;;;;;;;;;;;;;;;
2315.0;1858.5;;;;-0.36571887;1.3481408;0.068321235;;;;;;;;;;;;;;;;
2315.0;1858.5;;;;-0.36591724;1.3398057;0.066486366;;;;;;;;;;;;;;;;
2315.0;1858.5;;;;-0.36534503;1.3294755;0.0647049;;;;;;;;;;;;;;;;
2315.0;1860.7;;;;;;;;;;18.150883;-53.07932;-2.7809992;;;;;;;;;;
2315.0;1860.7;;;;;;;0.2245552;-0.98873866;0.052919097;;;;;;;;;;;;;
2315.0;1860.7;;;;;;;;;;18.03644;-52.43843;-2.2354808;;;;;;;;;;
2315.0;1860.7;;;;;;;0.22943816;-1.0250556;0.06024354;;;;;;;;;;;;;
2316.0;1861.1;262143;262143;12210;;;;;;;;;;;;;;;;;;;
2316.0;1868.6;;;;-0.36472324;1.3184892;0.06147004;;;;;;;;;;;;;;;;
2316.0;1868.6;;;;-0.3637047;1.3057443;0.05919648;;;;;;;;;;;;;;;;
2316.0;1868.6;;;;-0.36087802;1.2906762;0.05633927;;;;;;;;;;;;;;;;
2316.0;1868.6;;;;-0.3570061;1.2745095;0.052791603;;;;;;;;;;;;;;;;
2316.0;1868.6;;;;-0.35242084;1.2584993;0.04888154;;;;;;;;;;;;;;;;
2316.0;1870.3;;;;;;;;;;17.994476;-52.05313;-1.9264809;;;;;;;;;;
2316.0;1870.3;;;;;;;0.24530777;-1.055208;0.069765314;;;;;;;;;;;;;
2316.0;1870.3;;;;;;;;;;18.238625;-50.71413;-1.4038514;;;;;;;;;;
2316.0;1870.3;;;;;;;0.2682577;-1.0942717;0.080141604;;;;;;;;;;;;;
2316.0;1878.7;;;;-0.3468018;1.2412568;0.045364384;;;;;;;;;;;;;;;;
2316.0;1878.7;;;;-0.34249118;1.2220384;0.042037968;;;;;;;;;;;;;;;;
2316.0;1878.7;;;;-0.33744434;1.2011758;0.03814316;;;;;;;;;;;;;;;;
2316.0;1878.7;;;;-0.33214954;1.1818658;0.034492496;;;;;;;;;;;;;;;;
2316.0;1878.7;;;;-0.32593158;1.163273;0.030891422;;;;;;;;;;;;;;;;
2316.0;1879.9;;;;;;;;;;18.253883;-48.928802;-0.3624073;;;;;;;;;;
2316.0;1879.9;;;;;;;0.28131962;-1.1215552;0.09039582;;;;;;;;;;;;;
2316.0;1879.9;;;;;;;;;;17.89529;-47.51732;1.083407;;;;;;;;;;
2316.0;1879.9;;;;;;;0.2793054;-1.140904;0.098391674;;;;;;;;;;;;;
2316.0;1881.3;262143;262143;12218;;;;;;;;;;;;;;;;;;;
2316.0;1887.4;;;;;;;;;;;;;3306;;;;;;;;;
2316.0;1887.4;;;;;;;;;;;;;-14020;;;;;;;;;
2316.0;1887.4;;;;;;;;;;;;;-35929;;;;;;;;;
2316.0;1887.4;;;;;;;;;;;;;-39641;;;;;;;;;
2316.0;1887.4;;;;;;;;;;;;;-19433;;;;;;;;;
2318.0;1888.8;;;;-0.32119754;1.1434022;0.027873997;;;;;;;;;;;;;;;;
2318.0;1888.8;;;;-0.3158379;1.1239167;0.025970463;;;;;;;;;;;;;;;;
2318.0;1888.8;;;;-0.30910495;1.1048013;0.023624424;;;;;;;;;;;;;;;;
2318.0;1888.8;;;;-0.298996;1.0858308;0.021572115;;;;;;;;;;;;;;;;
2318.0;1888.8;;;;-0.28857425;1.0678445;0.021034243;;;;;;;;;;;;;;;;
2318.0;1889.6;;;;;;;;;;17.246773;-47.10532;2.601703;;;;;;;;;;
2318.0;1889.6;;;;;;;0.2699057;-1.1546984;0.10614338;;;;;;;;;;;;;
2318.0;1889.6;;;;;;;;;;16.647848;-47.753838;4.020814;;;;;;;;;;
2318.0;1889.6;;;;;;;0.25019073;-1.165807;0.10901212;;;;;;;;;;;;;
2318.0;1892.0;;;;;;;;;;;;;;;;;105.51393;-61.24302;51.221504;;1794.7;
2318.0;1892.0;;;;;;;;;;;;;;0.6911222;0.7813349;0.25165564;;;;;1794.7;
2318.0;1892.0;;;;;;;;;;;;;;;;;105.56352;-49.184395;62.555313;;1794.7;
2318.0;1892.0;;;;;;;;;;;;;;0.5438398;0.6722617;0.48628193;;;;;1794.7;
2318.0;1892.0;;;;;;;;;;;;;;;;;91.25797;-76.96005;70.36805;;1804.4;
2318.0;1892.0;;;;;;;;;;;;;;0.6125065;0.6738487;0.17047639;;;;;1804.4;
2318.0;1892.0;;;;;;;;;;;;;;;;;74.25916;-85.78753;77.52465;;1804.4;
2318.0;1892.0;;;;;;;;;;;;;;0.68056273;0.46302682;-0.14990692;;;;;1804.4;
2318.0;1892.0;;;;;;;;;;;;;;;;;63.455612;-59.88876;83.94498;;1814.0;
2318.0;1892.0;;;;;;;;;;;;;;0.7086398;0.2033143;-0.09790338;;;;;1814.0;
2318.0;1892.0;;;;;;;;;;;;;;;;;58.03476;-28.576769;77.77643;;1814.0;
2318.0;1892.0;;;;;;;;;;;;;;0.8180792;0.21527757;0.19074069;;;;;1814.0;
2319.0;1892.7;;;;;;;;;;;;;;;;;57.428204;-27.871029;78.95519;;1823.4;
2319.0;1892.7;;;;;;;;;;;;;;0.78542435;0.067751095;0.17651907;;;;;1823.4;
2319.0;1892.7;;;;;;;;;;;;;;;;;70.20783;-41.524246;77.91757;;1823.4;
2319.0;1892.7;;;;;;;;;;;;;;0.84810936;0.12872708;0.003418073;;;;;1823.4;
2319.0;1892.7;;;;;;;;;;;;;;;;;79.744865;-50.33265;74.3698;;1833.1;
2319.0;1892.7;;;;;;;;;;;;;;0.9403973;0.19214454;-0.18933684;;;;;1833.1;
2319.0;1892.7;;;;;;;;;;;;;;;;;78.07779;-42.0278;70.955536;;1833.1;
2319.0;1892.7;;;;;;;;;;;;;;1.0909146;0.26966155;-0.2125309;;;;;1833.1;
2319.0;1892.7;;;;;;;;;;;;;;;;;74.03027;-27.024141;69.54405;;1842.7;
2319.0;1892.7;;;;;;;;;;;;;;1.1730704;0.34479812;-0.11493271;;;;;1842.7;
2319.0;1892.7;;;;;;;;;;;;;;;;;72.771385;-25.059511;69.71572;;1842.7;
2319.0;1892.7;;;;;;;;;;;;;;1.2634052;0.45265055;-0.14300974;;;;;1842.7;
2319.0;1898.7;;;;-0.27957156;1.0522119;0.019836428;;;;;;;;;;;;;;;;
2319.0;1898.7;;;;-0.27277377;1.0380822;0.019580843;;;;;;;;;;;;;;;;
2319.0;1898.7;;;;-0.2685013;1.0264207;0.01904297;;;;;;;;;;;;;;;;
2319.0;1898.7;;;;-0.26786807;1.014927;0.019119265;;;;;;;;;;;;;;;;
2319.0;1898.7;;;;-0.26888278;1.0054284;0.019947054;;;;;;;;;;;;;;;;
2319.0;1899.0;;;;;;;;;;16.106144;-48.360394;5.32548;;;;;;;;;;
2319.0;1899.0;;;;;;;0.23023164;-1.1736808;0.1114536;;;;;;;;;;;;;
2319.0;1899.0;;;;;;;;;;15.846737;-48.78384;6.672109;;;;;;;;;;
2319.0;1899.0;;;;;;;0.21546067;-1.1803339;0.113956116;;;;;;;;;;;;;
2319.0;1901.5;262143;262143;12223;;;;;;;;;;;;;;;;;;;
2321.0;1907.3;;;;;;;;;;;;;;;;;73.06131;-31.582844;72.8019;;1852.4;
2321.0;1907.3;;;;;;;;;;;;;;1.3980529;0.52424693;-0.30939665;;;;;1852.4;
2321.0;1907.3;;;;;;;;;;;;;;;;;73.04224;-28.580584;77.31102;;1852.4;
2321.0;1907.3;;;;;;;;;;;;;;1.4826503;0.4423963;-0.36494035;;;;;1852.4;
2321.0;1907.3;;;;;;;;;;;;;;;;;74.571976;-20.47792;81.23646;;1862.0;
2321.0;1907.3;;;;;;;;;;;;;;1.4405347;0.2982879;-0.27900022;;;;;1862.0;
2321.0;1907.3;;;;;;;;;;;;;;;;;75.43031;-23.75103;83.40709;;1862.0;
2321.0;1907.3;;;;;;;;;;;;;;1.3693045;0.15289773;-0.25757623;;;;;1862.0;
2321.0;1907.3;;;;;;;;;;;;;;;;;75.14039;-26.295511;84.181496;;1871.7;
2321.0;1907.3;;;;;;;;;;;;;;1.3003937;0.02557451;-0.27027193;;;;;1871.7;
2321.0;1907.3;;;;;;;;;;;;;;;;;79.17264;-29.457993;81.839195;;1871.7;
2321.0;1907.3;;;;;;;;;;;;;;1.241432;0.010559404;-0.30066836;;;;;1871.7;
2321.0;1908.4;;;;;;;;;;15.804773;-49.55443;7.8508863;;;;;;;;;;
2321.0;1908.4;;;;;;;0.21283609;-1.1853999;0.11450545;;;;;;;;;;;;;
2321.0;1908.4;;;;;;;;;;15.671255;-50.351723;9.025849;;;;;;;;;;
2321.0;1908.4;;;;;;;0.22363964;-1.1944945;0.11700796;;;;;;;;;;;;;
2321.0;1908.7;;;;-0.27000812;0.99889386;0.019996645;;;;;;;;;;;;;;;;
2321.0;1908.7;;;;-0.26922992;0.99572;0.020835878;;;;;;;;;;;;;;;;
2321.0;1908.7;;;;-0.2648125;0.99250805;0.02150345;;;;;;;;;;;;;;;;
2321.0;1908.7;;;;-0.2588158;0.9916612;0.022373201;;;;;;;;;;;;;;;;
2321.0;1908.7;;;;-0.2545357;0.99253476;0.022979738;;;;;;;;;;;;;;;;
2321.0;1918.0;;;;;;;;;;15.308847;-51.076538;10.162663;;;;;;;;;;
2321.0;1918.0;;;;;;;0.23108615;-1.1898557;0.11828975;;;;;;;;;;;;;
2321.0;1918.0;;;;;;;;;;14.805292;-52.194283;11.204107;;;;;;;;;;
2321.0;1918.0;;;;;;;0.23688467;-1.1744133;0.12317271;;;;;;;;;;;;;
2322.0;1918.6;;;;-0.25257877;0.99303067;0.022369387;;;;;;;;;;;;;;;;
2322.0;1918.6;;;;-0.2531586;0.9950906;0.023544315;;;;;;;;;;;;;;;;
2322.0;1918.6;;;;-0.25439075;0.9979478;0.024753574;;;;;;;;;;;;;;;;
2322.0;1918.6;;;;-0.25498965;1.0033609;0.024559025;;;;;;;;;;;;;;;;
2322.0;1918.6;;;;-0.25540546;1.0101091;0.02468491;;;;;;;;;;;;;;;;
2322.0;1921.4;262143;262143;12214;;;;;;;;;;;;;;;;;;;
2322.0;1927.4;;;;;;;;;;;;;5113;;;;;;;;;
2322.0;1927.4;;;;;;;;;;;;;14086;;;;;;;;;
2322.0;1927.4;;;;;;;;;;;;;9658;;;;;;;;;
2322.0;1927.4;;;;;;;;;;;;;6307;;;;;;;;;
2322.0;1927.4;;;;;;;;;;;;;8543;;;;;;;;;
2322.0;1927.6;;;;;;;;;;14.538255;-53.41884;12.108219;;;;;;;;;;
2322.0;1927.6;;;;;;;0.24182867;-1.1501815;0.12585834;;;;;;;;;;;;;
2322.0;1927.6;;;;;;;;;;14.210181;-54.60906;12.848292;;;;;;;;;;
2322.0;1927.6;;;;;;;0.24384288;-1.1264381;0.1297647;;;;;;;;;;;;;
2322.0;1928.8;;;;-0.25600055;1.0179788;0.024589542;;;;;;;;;;;;;;;;
2322.0;1928.8;;;;-0.2579842;1.0271798;0.023853306;;;;;;;;;;;;;;;;
2322.0;1928.8;;;;-0.2598534;1.0360605;0.022945406;;;;;;;;;;;;;;;;
2322.0;1928.8;;;;-0.2611809;1.0449601;0.020927431;;;;;;;;;;;;;;;;
2322.0;1928.8;;;;-0.26139835;1.0543329;0.019905092;;;;;;;;;;;;;;;;
2322.0;1937.2;;;;;;;;;;13.653218;-55.50554;13.53496;;;;;;;;;;
2322.0;1937.2;;;;;;;0.24457534;-1.1047701;0.13721122;;;;;;;;;;;;;
2322.0;1937.2;;;;;;;;;;13.130589;-56.257057;14.500107;;;;;;;;;;
2322.0;1937.2;;;;;;;0.24207282;-1.0838953;0.14404736;;;;;;;;;;;;;
2324.0;1938.9;;;;-0.25902942;1.0648652;0.019447329;;;;;;;;;;;;;;;;
2324.0;1938.9;;;;-0.25630954;1.0752984;0.018646242;;;;;;;;;;;;;;;;
2324.0;1938.9;;;;-0.25313953;1.0858461;0.017307283;;;;;;;;;;;;;;;;
2324.0;1938.9;;;;-0.25029376;1.0961953;0.014869692;;;;;;;;;;;;;;;;
2324.0;1938.9;;;;-0.24731067;1.1063272;0.012702944;;;;;;;;;;;;;;;;
2324.0;1941.6;262143;262143;12229;;;;;;;;;;;;;;;;;;;
2324.0;1946.8;;;;;;;;;;12.558367;-57.00476;15.621662;;;;;;;;;;
2324.0;1946.8;;;;;;;0.24805444;-1.0654012;0.1518601;;;;;;;;;;;;;
2324.0;1946.8;;;;;;;;;;12.043367;-57.29087;16.63259;;;;;;;;;;
2324.0;1946.8;;;;;;;0.25434124;-1.0480666;0.15869625;;;;;;;;;;;;;
2324.0;1949.0;;;;-0.2446442;1.114853;0.009666444;;;;;;;;;;;;;;;;
2324.0;1949.0;;;;-0.24207309;1.1233598;0.0076293955;;;;;;;;;;;;;;;;
2324.0;1949.0;;;;-0.23964694;1.130211;0.0069732675;;;;;;;;;;;;;;;;
2324.0;1949.0;;;;-0.24105075;1.1369249;6.141663E-4;;;;;;;;;;;;;;;;
2324.0;1949.0;;;;-0.2384148;1.1447984;-0.0024948122;;;;;;;;;;;;;;;;
2325.0;1952.1;;;;;;;;;;;;;;;;;84.868164;-33.49025;78.21512;;1881.4;
2325.0;1952.1;;;;;;;;;;;;;;1.1700187;0.07061983;-0.37208167;;;;;1881.4;
2325.0;1952.1;;;;;;;;;;;;;;;;;89.01868;-32.78451;76.28864;;1881.4;
2325.0;1952.1;;;;;;;;;;;;;;1.0776696;0.12891018;-0.4126713;;;;;1881.4;
2325.0;1952.1;;;;;;;;;;;;;;;;;89.663376;-29.90814;75.49898;;1891.1;
2325.0;1952.1;;;;;;;;;;;;;;0.99447614;0.17065951;-0.39497054;;;;;1891.1;
2325.0;1952.1;;;;;;;;;;;;;;;;;88.48842;-28.744621;74.61776;;1891.1;
2325.0;1952.1;;;;;;;;;;;;;;0.93826103;0.20435195;-0.38288522;;;;;1891.1;
2325.0;1952.1;;;;;;;;;;;;;;;;;88.75927;-28.344065;73.229164;;1900.7;
2325.0;1952.1;;;;;;;;;;;;;;0.9056673;0.255562;-0.36689353;;;;;1900.7;
2325.0;1952.1;;;;;;;;;;;;;;;;;89.87319;-28.618732;71.413315;;1900.7;
2325.0;1952.1;;;;;;;;;;;;;;0.88949245;0.31910154;-0.33954895;;;;;1900.7;
2325.0;1956.3;;;;;;;;;;11.654256;-57.550278;17.71218;;;;;;;;;;
2325.0;1956.3;;;;;;;0.2612995;-1.0267037;0.16559343;;;;;;;;;;;;;
2325.0;1956.3;;;;;;;;;;11.276589;-57.260353;19.135107;;;;;;;;;;
2325.0;1956.3;;;;;;;0.2702109;-1.00412;0.1694998;;;;;;;;;;;;;
2325.0;1958.9;;;;-0.23545077;1.1531831;-0.00473404;;;;;;;;;;;;;;;;
2325.0;1958.9;;;;-0.2334061;1.1603585;-0.008026124;;;;;;;;;;;;;;;;
2325.0;1958.9;;;;-0.2293854;1.1700822;-0.009731294;;;;;;;;;;;;;;;;
2325.0;1958.9;;;;-0.22651294;1.1809007;-0.0135002155;;;;;;;;;;;;;;;;
2325.0;1958.9;;;;-0.22556308;1.1877519;-0.017543795;;;;;;;;;;;;;;;;
2325.0;1961.8;262143;262143;12232;;;;;;;;;;;;;;;;;;;
2374.0;1965.9;;;;;;;;;;10.898923;-56.29139;20.57329;;;;;;;;;;
2374.0;1965.9;;;;;;;0.27863398;-0.9790948;0.1744438;;;;;;;;;;;;;
2374.0;1965.9;;;;;;;;;;10.608997;-55.18128;21.591846;;;;;;;;;;
2374.0;1965.9;;;;;;;0.28394422;-0.95455796;0.17096469;;;;;;;;;;;;;
2374.0;1967.1;;;;;;;;;;;;;;;;;90.25849;-30.129398;69.341866;;1910.4;
2374.0;1967.1;;;;;;;;;;;;;;0.89028597;0.36475724;-0.3287454;;;;;1910.4;
2374.0;1967.1;;;;;;;;;;;;;;;;;88.09931;-30.655842;67.15598;;1910.4;
2374.0;1967.1;;;;;;;;;;;;;;0.90194404;0.40540788;-0.30860317;;;;;1910.4;
2374.0;1967.1;;;;;;;;;;;;;;;;;83.403275;-31.647694;64.596245;;1919.9;
2374.0;1967.1;;;;;;;;;;;;;;0.92318493;0.46229437;-0.29139072;;;;;1919.9;
2374.0;1967.1;;;;;;;;;;;;;;;;;78.76064;-34.6881;62.98639;;1919.9;
2374.0;1967.1;;;;;;;;;;;;;;0.94589067;0.4845729;-0.29944763;;;;;1919.9;
2374.0;1967.1;;;;;;;;;;;;;;;;;73.03461;-38.056583;62.231056;;1929.6;
2374.0;1967.1;;;;;;;;;;;;;;0.9706107;0.47853023;-0.32605976;;;;;1929.6;
2374.0;1967.1;;;;;;;;;;;;;;;;;67.01483;-38.14814;62.364574;;1929.6;
2374.0;1967.1;;;;;;;;;;;;;;0.98947114;0.45857114;-0.32508317;;;;;1929.6;
2374.0;1967.5;;;;;;;;;;;;;10098;;;;;;;;;
2374.0;1967.5;;;;;;;;;;;;;9537;;;;;;;;;
2374.0;1967.5;;;;;;;;;;;;;9432;;;;;;;;;
2374.0;1967.5;;;;;;;;;;;;;9375;;;;;;;;;
2374.0;1967.5;;;;;;;;;;;;;9253;;;;;;;;;
2374.0;1968.8;;;;-0.22348407;1.1971055;-0.021286013;;;;;;;;;;;;;;;;
2374.0;1968.8;;;;-0.22158816;1.2047616;-0.025108341;;;;;;;;;;;;;;;;
2374.0;1968.8;;;;-0.2228432;1.2112046;-0.030544285;;;;;;;;;;;;;;;;
2374.0;1968.8;;;;-0.22428516;1.2188379;-0.035781864;;;;;;;;;;;;;;;;
2374.0;1968.8;;;;-0.22158816;1.2296716;-0.039581303;;;;;;;;;;;;;;;;
2433.0;1975.3;;;;;;;;;;10.284738;-53.6668;22.488325;;;;;;;;;;
2433.0;1975.3;;;;;;;0.29212317;-0.9352092;0.17303994;;;;;;;;;;;;;
2433.0;1975.3;;;;;;;;;;9.907071;-51.21769;23.731956;;;;;;;;;;
2433.0;1975.3;;;;;;;0.2979217;-0.9110385;0.17322306;;;;;;;;;;;;;
2433.0;1978.8;;;;-0.21817783;1.2396241;-0.0448494;;;;;;;;;;;;;;;;
2433.0;1978.8;;;;-0.21912387;1.246235;-0.051494606;;;;;;;;;;;;;;;;
2433.0;1978.8;;;;-0.21879199;1.2511216;-0.05664826;;;;;;;;;;;;;;;;
2433.0;1978.8;;;;-0.21891788;1.2571183;-0.061111458;;;;;;;;;;;;;;;;
2433.0;1978.8;;;;-0.21899417;1.2631875;-0.066192634;;;;;;;;;;;;;;;;
2433.0;1981.7;262143;262143;12234;;;;;;;;;;;;;;;;;;;
2433.0;1984.8;;;;;;;;;;9.529405;-48.615986;24.864954;;;;;;;;;;
2433.0;1984.8;;;;;;;0.296762;-0.8865627;0.16895047;;;;;;;;;;;;;
2433.0;1984.8;;;;;;;;;;9.4569235;-46.08295;25.841547;;;;;;;;;;
2433.0;1984.8;;;;;;;0.29358807;-0.8682516;0.16626485;;;;;;;;;;;;;
2433.0;1988.9;;;;-0.21831134;1.2668916;-0.07038499;;;;;;;;;;;;;;;;
2433.0;1988.9;;;;-0.21387103;1.2718927;-0.07421876;;;;;;;;;;;;;;;;
2433.0;1988.9;;;;-0.20989612;1.2750894;-0.07881928;;;;;;;;;;;;;;;;
2433.0;1988.9;;;;-0.21110538;1.2776757;-0.08530808;;;;;;;;;;;;;;;;
2433.0;1988.9;;;;-0.21062472;1.2819978;-0.08880616;;;;;;;;;;;;;;;;
2433.0;1994.4;;;;;;;;;;9.552294;-43.53084;26.84103;;;;;;;;;;
2433.0;1994.4;;;;;;;0.29438153;-0.8572039;0.16205329;;;;;;;;;;;;;
2433.0;1994.4;;;;;;;;;;9.529405;-40.448467;28.02362;;;;;;;;;;
2433.0;1994.4;;;;;;;0.31672108;-0.84859765;0.15448469;;;;;;;;;;;;;
2435.0;1999.0;;;;-0.20427325;1.2863084;-0.09159089;;;;;;;;;;;;;;;;
2435.0;1999.0;;;;-0.1976166;1.2894632;-0.09769441;;;;;;;;;;;;;;;;
2435.0;1999.0;;;;-0.19789127;1.2885362;-0.10293962;;;;;;;;;;;;;;;;
2435.0;1999.0;;;;-0.1985245;1.2904779;-0.1067505;;;;;;;;;;;;;;;;
2435.0;1999.0;;;;-0.19878772;1.2903367;-0.11212923;;;;;;;;;;;;;;;;
2435.0;2001.9;262143;262143;12235;;;;;;;;;;;;;;;;;;;
2435.0;2004.1;;;;;;;;;;9.32722;-36.51921;28.962067;;;;;;;;;;
2435.0;2004.1;;;;;;;0.32013917;-0.84163946;0.14752647;;;;;;;;;;;;;
2435.0;2004.1;;;;;;;;;;9.243294;-32.937103;29.976805;;;;;;;;;;
2435.0;2004.1;;;;;;;0.3103122;-0.8424329;0.14026307;;;;;;;;;;;;;
2435.0;2007.9;;;;;;;;;;;;;9324;;;;;;;;;
2435.0;2007.9;;;;;;;;;;;;;9203;;;;;;;;;
2435.0;2007.9;;;;;;;;;;;;;8953;;;;;;;;;
2435.0;2007.9;;;;;;;;;;;;;8321;;;;;;;;;
2435.0;2007.9;;;;;;;;;;;;;6763;;;;;;;;;
2435.0;2009.1;;;;-0.19680789;1.2909356;-0.11620714;;;;;;;;;;;;;;;;
2435.0;2009.1;;;;-0.193512;1.2912751;-0.12161638;;;;;;;;;;;;;;;;
2435.0;2009.1;;;;-0.18462373;1.2925378;-0.12503816;;;;;;;;;;;;;;;;
2435.0;2009.1;;;;-0.18103029;1.2933885;-0.13103487;;;;;;;;;;;;;;;;
2435.0;2009.1;;;;-0.18502046;1.2937318;-0.13468553;;;;;;;;;;;;;;;;
2438.0;2012.4;;;;;;;;;;;;;;;;;62.0365;-36.904507;64.06979;;1939.3;
2438.0;2012.4;;;;;;;;;;;;;;1.0028383;0.41651663;-0.32667014;;;;;1939.3;
2438.0;2012.4;;;;;;;;;;;;;;;;;59.919277;-36.18732;66.44643;;1939.3;
2438.0;2012.4;;;;;;;;;;;;;;1.0149236;0.3604236;-0.32422864;;;;;1939.3;
2438.0;2012.4;;;;;;;;;;;;;;;;;58.721428;-36.420025;69.39527;;1949.0;
2438.0;2012.4;;;;;;;;;;;;;;1.0201727;0.28864408;-0.3490707;;;;;1949.0;
2438.0;2012.4;;;;;;;;;;;;;;;;;56.993317;-34.66521;71.35227;;1949.0;
2438.0;2012.4;;;;;;;;;;;;;;1.0359813;0.24127933;-0.34852138;;;;;1949.0;
2438.0;2012.4;;;;;;;;;;;;;;;;;54.925686;-31.01825;73.206276;;1958.7;
2438.0;2012.4;;;;;;;;;;;;;;1.0334178;0.18610187;-0.34589678;;;;;1958.7;
2438.0;2012.4;;;;;;;;;;;;;;;;;55.211796;-27.161474;74.04553;;1958.7;
2438.0;2012.4;;;;;;;;;;;;;;1.0317087;0.18005921;-0.31482893;;;;;1958.7;
2438.0;2013.6;;;;;;;;;;9.178442;-28.771324;31.418804;;;;;;;;;;
2438.0;2013.6;;;;;;;0.30774865;-0.84310436;0.13489181;;;;;;;;;;;;;
2438.0;2013.6;;;;;;;;;;9.052553;-24.86114;32.441177;;;;;;;;;;
2438.0;2013.6;;;;;;;0.2854091;-0.8365123;0.12939848;;;;;;;;;;;;;
2438.0;2019.1;;;;-0.18623354;1.2928087;-0.14061357;;;;;;;;;;;;;;;;
2438.0;2019.1;;;;-0.18792728;1.2880327;-0.14895631;;;;;;;;;;;;;;;;
2438.0;2019.1;;;;-0.18281175;1.2873994;-0.15020753;;;;;;;;;;;;;;;;
2438.0;2019.1;;;;-0.17823412;1.2866861;-0.15592958;;;;;;;;;;;;;;;;
2438.0;2019.1;;;;-0.16993333;1.2857286;-0.15995027;;;;;;;;;;;;;;;;
2438.0;2022.1;262143;262143;12236;;;;;;;;;;;;;;;;;;;
2440.0;2023.2;;;;;;;;;;9.178442;-22.835474;33.69625;;;;;;;;;;
2440.0;2023.2;;;;;;;0.27332377;-0.83712274;0.11810663;;;;;;;;;;;;;
2440.0;2023.2;;;;;;;;;;9.445479;-20.527512;35.17258;;;;;;;;;;
2440.0;2023.2;;;;;;;0.28022096;-0.8447524;0.111880854;;;;;;;;;;;;;
2440.0;2027.8;;;;;;;;;;;;;;;;;56.817833;-25.643177;74.6292;;1968.2;
2440.0;2027.8;;;;;;;;;;;;;;1.045198;0.20465712;-0.28431043;;;;;1968.2;
2440.0;2027.8;;;;;;;;;;;;;;;;;59.297466;-24.69329;76.09028;;1968.2;
2440.0;2027.8;;;;;;;;;;;;;;1.0544145;0.20874661;-0.2593463;;;;;1968.2;
2440.0;2027.8;;;;;;;;;;;;;;;;;60.346535;-23.419142;76.54043;;1977.9;
2440.0;2027.8;;;;;;;;;;;;;;1.0740074;0.24347667;-0.24787134;;;;;1977.9;
2440.0;2027.8;;;;;;;;;;;;;;;;;57.924133;-19.135107;77.75353;;1977.9;
2440.0;2027.8;;;;;;;;;;;;;;1.0809046;0.24921414;-0.19873653;;;;;1977.9;
2440.0;2027.8;;;;;;;;;;;;;;;;;53.964355;-15.8772545;78.21893;;1987.5;
2440.0;2027.8;;;;;;;;;;;;;;1.0775476;0.23682363;-0.16162603;;;;;1987.5;
2440.0;2027.8;;;;;;;;;;;;;;;;;52.404095;-14.2941065;78.11212;;1987.5;
2440.0;2027.8;;;;;;;;;;;;;;1.0831629;0.25135043;-0.15009002;;;;;1987.5;
2440.0;2029.0;;;;-0.16483308;1.2853891;-0.16368486;;;;;;;;;;;;;;;;
2440.0;2029.0;;;;-0.16131212;1.2838403;-0.1690178;;;;;;;;;;;;;;;;
2440.0;2029.0;;;;-0.15456773;1.2812272;-0.17425157;;;;;;;;;;;;;;;;
2440.0;2029.0;;;;-0.14725496;1.2770082;-0.17984773;;;;;;;;;;;;;;;;
2440.0;2029.0;;;;-0.13938905;1.2728921;-0.18333818;;;;;;;;;;;;;;;;
2440.0;2032.5;;;;;;;;;;9.411145;-18.52092;36.53447;;;;;;;;;;
2440.0;2032.5;;;;;;;0.267098;-0.84572893;0.10773034;;;;;;;;;;;;;
2440.0;2032.5;;;;;;;;;;9.380627;-17.742699;37.972656;;;;;;;;;;
2440.0;2032.5;;;;;;;0.27576524;-0.85219884;0.10242012;;;;;;;;;;;;;
2492.0;2039.0;;;;-0.13309862;1.270199;-0.18659212;;;;;;;;;;;;;;;;
2492.0;2039.0;;;;-0.1311226;1.2660829;-0.19112399;;;;;;;;;;;;;;;;
2492.0;2039.0;;;;-0.13388444;1.2591821;-0.19306567;;;;;;;;;;;;;;;;
2492.0;2039.0;;;;-0.13209917;1.2538224;-0.19388965;;;;;;;;;;;;;;;;
2492.0;2039.0;;;;-0.12790681;1.2459642;-0.19503024;;;;;;;;;;;;;;;;
2492.0;2042.0;;;;;;;;;;9.014404;-16.312143;39.017914;;;;;;;;;;
2492.0;2042.0;;;;;;;0.29157385;-0.86404;0.09900205;;;;;;;;;;;;;
2492.0;2042.0;;;;;;;;;;8.81222;-14.568773;40.032654;;;;;;;;;;
2492.0;2042.0;;;;;;;0.28351694;-0.86574906;0.09778131;;;;;;;;;;;;;
2492.0;2041.9;262143;262143;12232;;;;;;;;;;;;;;;;;;;
2492.0;2047.6;;;;;;;;;;;;;4380;;;;;;;;;
2492.0;2047.6;;;;;;;;;;;;;2019;;;;;;;;;
2492.0;2047.6;;;;;;;;;;;;;434;;;;;;;;;
2492.0;2047.6;;;;;;;;;;;;;-345;;;;;;;;;
2492.0;2047.6;;;;;;;;;;;;;-574;;;;;;;;;
2492.0;2048.6;;;;-0.12340166;1.2371179;-0.19568637;;;;;;;;;;;;;;;;
2492.0;2048.6;;;;-0.12025072;1.2271501;-0.1968613;;;;;;;;;;;;;;;;
2492.0;2048.6;;;;-0.12424089;1.2177469;-0.19801334;;;;;;;;;;;;;;;;
2492.0;2048.6;;;;-0.123127;1.2090608;-0.19824222;;;;;;;;;;;;;;;;
2492.0;2048.6;;;;-0.11546327;1.1970598;-0.19851688;;;;;;;;;;;;;;;;
2492.0;2051.1;;;;;;;;;;8.854182;-14.065218;41.570026;;;;;;;;;;
2492.0;2051.1;;;;;;;0.27130955;-0.87398905;0.098941006;;;;;;;;;;;;;
2492.0;2051.1;;;;;;;;;;8.7893305;-14.110995;43.851284;;;;;;;;;;
2492.0;2051.1;;;;;;;0.260506;-0.887112;0.096804716;;;;;;;;;;;;;
2615.0;2058.1;;;;-0.11713411;1.1865083;-0.1980553;;;;;;;;;;;;;;;;
2615.0;2058.1;;;;-0.1235428;1.1755716;-0.19845203;;;;;;;;;;;;;;;;
2615.0;2058.1;;;;-0.12113954;1.1668168;-0.19597247;;;;;;;;;;;;;;;;
2615.0;2058.1;;;;-0.11437227;1.1572915;-0.19445041;;;;;;;;;;;;;;;;
2615.0;2058.1;;;;-0.10934831;1.1446763;-0.19348529;;;;;;;;;;;;;;;;
2615.0;2060.1;;;;;;;;;;8.869442;-14.545885;45.41917;;;;;;;;;;
2615.0;2060.1;;;;;;;0.2515946;-0.89504683;0.09820856;;;;;;;;;;;;;
2615.0;2060.1;;;;;;;;;;8.735923;-14.725182;46.61321;;;;;;;;;;
2615.0;2060.1;;;;;;;0.24884793;-0.89602345;0.100283824;;;;;;;;;;;;;
2615.0;2060.9;262143;262143;12238;;;;;;;;;;;;;;;;;;;
2615.0;2067.8;;;;-0.113906875;1.1330796;-0.19289401;;;;;;;;;;;;;;;;
2615.0;2067.8;;;;-0.11798479;1.1230813;-0.19246295;;;;;;;;;;;;;;;;
2615.0;2067.8;;;;-0.11611177;1.1113473;-0.18932727;;;;;;;;;;;;;;;;
2615.0;2067.8;;;;-0.1158867;1.1003762;-0.18711473;;;;;;;;;;;;;;;;
2615.0;2067.8;;;;-0.12527849;1.0865899;-0.18689348;;;;;;;;;;;;;;;;
2615.0;2069.5;;;;;;;;;;8.426924;-15.739922;48.0781;;;;;;;;;;
2615.0;2069.5;;;;;;;0.24536882;-0.9031037;0.101626635;;;;;;;;;;;;;
2615.0;2069.5;;;;;;;;;;8.159886;-17.906734;49.569687;;;;;;;;;;
2615.0;2069.5;;;;;;;0.24347667;-0.9072543;0.0992462;;;;;;;;;;;;;
2618.0;2071.2;;;;;;;;;;;;;;;;;52.228615;-12.207404;78.11212;;1997.0;
2618.0;2071.2;;;;;;;;;;;;;;1.0909146;0.268746;-0.13751641;;;;;1997.0;
2618.0;2071.2;;;;;;;;;;;;;;;;;51.499985;-9.907071;78.86364;;1997.0;
2618.0;2071.2;;;;;;;;;;;;;;1.0951872;0.2684408;-0.11493271;;;;;1997.0;
2618.0;2071.2;;;;;;;;;;;;;;;;;49.951168;-9.1975155;79.4702;;2006.6;
2618.0;2071.2;;;;;;;;;;;;;;1.1003754;0.25403607;-0.12616351;;;;;2006.6;
2618.0;2071.2;;;;;;;;;;;;;;;;;48.886837;-7.7707753;80.6299;;2006.6;
2618.0;2071.2;;;;;;;;;;;;;;1.0966522;0.21350749;-0.13623463;;;;;2006.6;
2618.0;2071.2;;;;;;;;;;;;;;;;;48.40999;-4.81048;81.5569;;2016.2;
2618.0;2071.2;;;;;;;;;;;;;;1.0810877;0.16260262;-0.12506485;;;;;2016.2;
2618.0;2071.2;;;;;;;;;;;;;;;;;49.36369;-4.4442577;82.117676;;2016.2;
2618.0;2071.2;;;;;;;;;;;;;;1.0632648;0.14227729;-0.12939848;;;;;2016.2;
2618.0;2077.8;;;;-0.12530519;1.0765649;-0.18567659;;;;;;;;;;;;;;;;
2618.0;2077.8;;;;-0.12684633;1.0678941;-0.1829796;;;;;;;;;;;;;;;;
2618.0;2077.8;;;;-0.12955476;1.0587503;-0.1821251;;;;;;;;;;;;;;;;
2618.0;2077.8;;;;-0.12857057;1.0498849;-0.18088914;;;;;;;;;;;;;;;;
2618.0;2077.8;;;;-0.11791231;1.041649;-0.17790224;;;;;;;;;;;;;;;;
2618.0;2078.8;;;;;;;;;;7.9844055;-20.046844;50.813316;;;;;;;;;;
2618.0;2078.8;;;;;;;0.24353771;-0.90755945;0.098818935;;;;;;;;;;;;;
2618.0;2078.8;;;;;;;;;;7.759331;-22.167881;51.873837;;;;;;;;;;
2618.0;2078.8;;;;;;;0.24860378;-0.9067049;0.09796441;;;;;;;;;;;;;
2618.0;2080.8;262143;262143;12241;;;;;;;;;;;;;;;;;;;
2619.0;2086.6;;;;;;;;;;;;;-279;;;;;;;;;
2619.0;2086.6;;;;;;;;;;;;;681;;;;;;;;;
2619.0;2086.6;;;;;;;;;;;;;2059;;;;;;;;;
2619.0;2086.6;;;;;;;;;;;;;3108;;;;;;;;;
2619.0;2086.6;;;;;;;;;;;;;3636;;;;;;;;;
2619.0;2087.6;;;;-0.12683107;1.0334016;-0.17502595;;;;;;;;;;;;;;;;
2619.0;2087.6;;;;-0.13308717;1.0240098;-0.17549898;;;;;;;;;;;;;;;;
2619.0;2087.6;;;;-0.1288643;1.0149766;-0.17419054;;;;;;;;;;;;;;;;
2619.0;2087.6;;;;-0.13202287;1.0073701;-0.17152406;;;;;;;;;;;;;;;;
2619.0;2087.6;;;;-0.14692308;0.99889004;-0.1729355;;;;;;;;;;;;;;;;
2619.0;2088.3;;;;;;;;;;7.4083686;-24.323254;52.797024;;;;;;;;;;
2619.0;2088.3;;;;;;;0.2598346;-0.901883;0.09631642;;;;;;;;;;;;;
2619.0;2088.3;;;;;;;;;;6.904813;-26.364178;53.685875;;;;;;;;;;
2619.0;2088.3;;;;;;;0.26935637;-0.8982818;0.096926786;;;;;;;;;;;;;
2619.0;2097.6;;;;-0.1567383;0.9923593;-0.17229845;;;;;;;;;;;;;;;;
2619.0;2097.6;;;;-0.15791704;0.9844972;-0.16982271;;;;;;;;;;;;;;;;
2619.0;2097.6;;;;-0.15496828;0.9757234;-0.16686632;;;;;;;;;;;;;;;;
2619.0;2097.6;;;;-0.15655519;0.96691144;-0.16684724;;;;;;;;;;;;;;;;
2619.0;2097.6;;;;-0.1685753;0.9573823;-0.16898347;;;;;;;;;;;;;;;;
2619.0;2097.8;;;;;;;;;;6.366924;-28.1724;54.563282;;;;;;;;;;
2619.0;2097.8;;;;;;;0.27607045;-0.8989532;0.098025456;;;;;;;;;;;;;
2619.0;2097.8;;;;;;;;;;5.93585;-29.736473;55.265205;;;;;;;;;;
2619.0;2097.8;;;;;;;0.28382215;-0.8989532;0.096804716;;;;;;;;;;;;;
2619.0;2100.7;262143;262143;12250;;;;;;;;;;;;;;;;;;;
2621.0;2107.4;;;;;;;;;;5.2568135;-30.877102;55.780205;;;;;;;;;;
2621.0;2107.4;;;;;;;0.29071933;-0.9000519;0.097048864;;;;;;;;;;;;;
2621.0;2107.4;;;;;;;;;;4.608295;-31.697289;56.15787;;;;;;;;;;
2621.0;2107.4;;;;;;;0.29920346;-0.901822;0.0987579;;;;;;;;;;;;;
2621.0;2107.6;;;;-0.17379762;0.9488374;-0.16747667;;;;;;;;;;;;;;;;
2621.0;2107.6;;;;-0.17787935;0.94144833;-0.16489793;;;;;;;;;;;;;;;;
2621.0;2107.6;;;;-0.18607332;0.93304837;-0.16651918;;;;;;;;;;;;;;;;
2621.0;2107.6;;;;-0.1883469;0.92731106;-0.16614152;;;;;;;;;;;;;;;;
2621.0;2107.6;;;;-0.19015506;0.9211503;-0.16521837;;;;;;;;;;;;;;;;
2621.0;2117.0;;;;;;;;;;3.99411;-32.036804;56.48976;;;;;;;;;;
2621.0;2117.0;;;;;;;0.3101291;-0.9025544;0.10138249;;;;;;;;;;;;;
2621.0;2117.0;;;;;;;;;;3.4638507;-32.193214;56.55461;;;;;;;;;;
2621.0;2117.0;;;;;;;0.3154393;-0.9004181;0.10345775;;;;;;;;;;;;;
2621.0;2117.7;;;;-0.18927005;0.9150735;-0.16697694;;;;;;;;;;;;;;;;
2621.0;2117.7;;;;-0.1817589;0.90976727;-0.16584398;;;;;;;;;;;;;;;;
2621.0;2117.7;;;;-0.1805153;0.90365994;-0.16689302;;;;;;;;;;;;;;;;
2621.0;2117.7;;;;-0.18204881;0.897133;-0.16778947;;;;;;;;;;;;;;;;
2621.0;2117.7;;;;-0.18548204;0.8930284;-0.16668321;;;;;;;;;;;;;;;;
2621.0;2121.0;262143;262143;12239;;;;;;;;;;;;;;;;;;;
2621.0;2126.6;;;;;;;;;;2.8382213;-32.002472;56.684315;;;;;;;;;;
2621.0;2126.6;;;;;;;0.3192236;-0.90163887;0.10431226;;;;;;;;;;;;;
2621.0;2126.6;;;;;;;;;;2.1858883;-31.380657;56.684315;;;;;;;;;;
2621.0;2126.6;;;;;;;0.32520524;-0.8960845;0.10522782;;;;;;;;;;;;;
2624.0;2126.9;;;;;;;;;;;;;4450;;;;;;;;;
2624.0;2126.9;;;;;;;;;;;;;6075;;;;;;;;;
2624.0;2126.9;;;;;;;;;;;;;8019;;;;;;;;;
2624.0;2126.9;;;;;;;;;;;;;9257;;;;;;;;;
2624.0;2126.9;;;;;;;;;;;;;9353;;;;;;;;;
2624.0;2127.8;;;;-0.18823627;0.8866235;-0.16696931;;;;;;;;;;;;;;;;
2624.0;2127.8;;;;-0.18561937;0.8804742;-0.16693498;;;;;;;;;;;;;;;;
2624.0;2127.8;;;;-0.18225862;0.87433255;-0.16687013;;;;;;;;;;;;;;;;
2624.0;2127.8;;;;-0.18200304;0.8684846;-0.16794588;;;;;;;;;;;;;;;;
2624.0;2127.8;;;;-0.19154742;0.86272824;-0.16884233;;;;;;;;;;;;;;;;
2624.0;2131.3;;;;;;;;;;;;;;;;;50.984985;-5.4208503;82.67846;;2025.9;
2624.0;2131.3;;;;;;;;;;;;;;1.0485549;0.14496292;-0.15436262;;;;;2025.9;
2624.0;2131.3;;;;;;;;;;;;;;;;;51.94632;-6.164739;84.70794;;2025.9;
2624.0;2131.3;;;;;;;;;;;;;;1.0346385;0.120975375;-0.19946899;;;;;2025.9;
2624.0;2131.3;;;;;;;;;;;;;;;;;51.313057;-4.272591;86.33687;;2035.6;
2624.0;2131.3;;;;;;;;;;;;;;1.0112613;0.0860622;-0.21192053;;;;;2035.6;
2624.0;2131.3;;;;;;;;;;;;;;;;;51.53813;-1.823481;87.248604;;2035.6;
2624.0;2131.3;;;;;;;;;;;;;;0.9935606;0.06701865;-0.19940794;;;;;2035.6;
2624.0;2131.3;;;;;;;;;;;;;;;;;52.46895;-0.2822962;87.85516;;2045.2;
2624.0;2131.3;;;;;;;;;;;;;;0.9715262;0.05749687;-0.18048647;;;;;2045.2;
2624.0;2131.3;;;;;;;;;;;;;;;;;53.891872;-0.9193701;88.79742;;2045.2;
2624.0;2131.3;;;;;;;;;;;;;;0.93923765;0.04754784;-0.17590868;;;;;2045.2;
2626.0;2132.1;;;;;;;;;;;;;;;;;54.95239;-4.2115545;90.14404;;2054.8;
2626.0;2132.1;;;;;;;;;;;;;;0.92141485;0.047975097;-0.22199164;;;;;2054.8;
2626.0;2132.1;;;;;;;;;;;;;;;;;54.898983;-5.775628;91.219826;;2054.8;
2626.0;2132.1;;;;;;;;;;;;;;0.91708124;0.051332135;-0.2694174;;;;;2054.8;
2626.0;2132.1;;;;;;;;;;;;;;;;;54.567097;-3.711814;91.62419;;2064.4;
2626.0;2132.1;;;;;;;;;;;;;;0.90035707;0.057374798;-0.2783288;;;;;2064.4;
2626.0;2132.1;;;;;;;;;;;;;;;;;54.334393;-2.6360364;91.59367;;2064.4;
2626.0;2132.1;;;;;;;;;;;;;;0.8913846;0.056642354;-0.2700278;;;;;2064.4;
2626.0;2132.1;;;;;;;;;;;;;;;;;54.605244;-4.7647023;91.742455;;2074.0;
2626.0;2132.1;;;;;;;;;;;;;;0.882046;0.0656148;-0.28876615;;;;;2074.0;
2626.0;2132.1;;;;;;;;;;;;;;;;;56.27613;-8.262887;91.75771;;2074.0;
2626.0;2132.1;;;;;;;;;;;;;;0.89126253;0.08478042;-0.31666005;;;;;2074.0;
2626.0;2136.0;;;;;;;;;;1.5259255;-30.713064;56.272316;;;;;;;;;;
2626.0;2136.0;;;;;;;0.32770777;-0.8955962;0.105533004;;;;;;;;;;;;;
2626.0;2136.0;;;;;;;;;;0.7095553;-29.622028;55.589462;;;;;;;;;;
2626.0;2136.0;;;;;;;0.32880643;-0.89504683;0.10644856;;;;;;;;;;;;;
2626.0;2137.7;;;;-0.20032504;0.8575059;-0.17177965;;;;;;;;;;;;;;;;
2626.0;2137.7;;;;-0.20601657;0.8521615;-0.17272188;;;;;;;;;;;;;;;;
2626.0;2137.7;;;;-0.20679477;0.84777844;-0.1732979;;;;;;;;;;;;;;;;
2626.0;2137.7;;;;-0.2041817;0.84288037;-0.17458345;;;;;;;;;;;;;;;;
2626.0;2137.7;;;;-0.20085147;0.8354112;-0.17650987;;;;;;;;;;;;;;;;
2627.0;2138.8;;;;;;;;;;;;;;;;;55.021057;-8.342998;91.55934;;2083.7;
2627.0;2138.8;;;;;;;;;;;;;;0.8992584;0.08148442;-0.32966095;;;;;2083.7;
2627.0;2138.8;;;;;;;;;;;;;;;;;53.327282;-5.611591;93.73379;;2083.7;
2627.0;2138.8;;;;;;;;;;;;;;0.88003176;0.020386364;-0.3058565;;;;;2083.7;
2627.0;2138.8;;;;;;;;;;;;;;;;;53.86517;-5.874813;93.707085;;2093.4;
2627.0;2138.8;;;;;;;;;;;;;;0.87368387;2.4414808E-4;-0.3185522;;;;;2093.4;
2627.0;2138.8;;;;;;;;;;;;;;;;;54.898983;-7.1108127;93.37519;;2093.4;
2627.0;2138.8;;;;;;;;;;;;;;0.8791162;0.0041505173;-0.34852138;;;;;2093.4;
2627.0;2138.8;;;;;;;;;;;;;;;;;54.91424;-3.6088138;91.91793;;2103.0;
2627.0;2138.8;;;;;;;;;;;;;;0.86935025;0.0053102206;-0.31006807;;;;;2103.0;
2627.0;2138.8;;;;;;;;;;;;;;;;;59.270763;-1.5602587;91.49449;;2103.0;
2627.0;2138.8;;;;;;;;;;;;;;0.8410291;-0.021362957;-0.2713706;;;;;2103.0;
2627.0;2140.9;262143;262143;12249;;;;;;;;;;;;;;;;;;;
2627.0;2145.4;;;;;;;;;;-0.034333322;-28.34025;54.898983;;;;;;;;;;
2627.0;2145.4;;;;;;;0.3302713;-0.89602345;0.107974485;;;;;;;;;;;;;
2627.0;2145.4;;;;;;;;;;-0.79348123;-27.134771;54.227577;;;;;;;;;;
2627.0;2145.4;;;;;;;0.3251442;-0.895352;0.10925627;;;;;;;;;;;;;
2627.0;2147.6;;;;-0.1974335;0.8290216;-0.1786728;;;;;;;;;;;;;;;;
2627.0;2147.6;;;;-0.19170383;0.82424176;-0.18091585;;;;;;;;;;;;;;;;
2627.0;2147.6;;;;-0.18353273;0.8188325;-0.18197252;;;;;;;;;;;;;;;;
2627.0;2147.6;;;;-0.17722322;0.81388867;-0.18232347;;;;;;;;;;;;;;;;
2627.0;2147.6;;;;-0.17517473;0.8082086;-0.1859398;;;;;;;;;;;;;;;;
2630.0;2155.0;;;;;;;;;;-1.5526291;-25.58214;53.304394;;;;;;;;;;
2630.0;2155.0;;;;;;;0.3249611;-0.8928495;0.10852382;;;;;;;;;;;;;
2630.0;2155.0;;;;;;;;;;-2.3880734;-23.823511;52.205727;;;;;;;;;;
2630.0;2155.0;;;;;;;0.3238014;-0.89309365;0.11169775;;;;;;;;;;;;;
2630.0;2157.7;;;;-0.17800523;0.802971;-0.18714525;;;;;;;;;;;;;;;;
2630.0;2157.7;;;;-0.17940904;0.79774106;-0.1898804;;;;;;;;;;;;;;;;
2630.0;2157.7;;;;-0.17904283;0.79143536;-0.19224551;;;;;;;;;;;;;;;;
2630.0;2157.7;;;;-0.17433168;0.7860948;-0.19234851;;;;;;;;;;;;;;;;
2630.0;2157.7;;;;-0.16797258;0.782158;-0.19303516;;;;;;;;;;;;;;;;
2630.0;2160.8;262143;262143;12267;;;;;;;;;;;;;;;;;;;
2630.0;2164.5;;;;;;;;;;-3.2197027;-21.91992;51.229134;;;;;;;;;;
2630.0;2164.5;;;;;;;0.3195288;-0.8971221;0.10974456;;;;;;;;;;;;;
2630.0;2164.5;;;;;;;;;;-3.9254432;-19.898067;50.382244;;;;;;;;;;
2630.0;2164.5;;;;;;;0.3137913;-0.90133363;0.108401746;;;;;;;;;;;;;
2630.0;2166.8;;;;;;;;;;;;;9032;;;;;;;;;
2630.0;2166.8;;;;;;;;;;;;;9007;;;;;;;;;
2630.0;2166.8;;;;;;;;;;;;;8984;;;;;;;;;
2630.0;2166.8;;;;;;;;;;;;;8709;;;;;;;;;
2630.0;2166.8;;;;;;;;;;;;;8523;;;;;;;;;
2630.0;2167.6;;;;-0.16271974;0.7762872;-0.19445422;;;;;;;;;;;;;;;;
2630.0;2167.6;;;;-0.15821077;0.7719995;-0.19648746;;;;;;;;;;;;;;;;
2630.0;2167.6;;;;-0.1560135;0.7674829;-0.19725803;;;;;;;;;;;;;;;;
2630.0;2167.6;;;;-0.15341188;0.76199734;-0.19842914;;;;;;;;;;;;;;;;
2630.0;2167.6;;;;-0.15073396;0.7565118;-0.19905856;;;;;;;;;;;;;;;;
2631.0;2174.1;;;;;;;;;;-4.615925;-17.914366;49.375134;;;;;;;;;;
2631.0;2174.1;;;;;;;0.3053682;-0.90279853;0.107852414;;;;;;;;;;;;;
2631.0;2174.1;;;;;;;;;;-5.4170356;-15.926847;48.40999;;;;;;;;;;
2631.0;2174.1;;;;;;;0.29902035;-0.9036531;0.10821863;;;;;;;;;;;;;
2631.0;2177.7;;;;-0.1492653;0.7514192;-0.19912341;;;;;;;;;;;;;;;;
2631.0;2177.7;;;;-0.14535905;0.7461472;-0.19886783;;;;;;;;;;;;;;;;
2631.0;2177.7;;;;-0.14239503;0.74127966;-0.19936755;;;;;;;;;;;;;;;;
2631.0;2177.7;;;;-0.13964464;0.73499686;-0.19969562;;;;;;;;;;;;;;;;
2631.0;2177.7;;;;-0.13743211;0.7292214;-0.19971088;;;;;;;;;;;;;;;;
2631.0;2181.1;262143;262143;12259;;;;;;;;;;;;;;;;;;;
2631.0;2183.7;;;;;;;;;;-6.14948;-13.863032;47.292244;;;;;;;;;;
2631.0;2183.7;;;;;;;0.2979217;-0.90267646;0.10547197;;;;;;;;;;;;;
2631.0;2183.7;;;;;;;;;;-6.8094425;-11.852626;46.27369;;;;;;;;;;
2631.0;2183.7;;;;;;;0.29621264;-0.901822;0.10357982;;;;;;;;;;;;;
2631.0;2187.8;;;;-0.13569261;0.7258454;-0.1988106;;;;;;;;;;;;;;;;
2631.0;2187.8;;;;-0.13500978;0.72276694;-0.19794086;;;;;;;;;;;;;;;;
2631.0;2187.8;;;;-0.13480379;0.7186318;-0.19729999;;;;;;;;;;;;;;;;
2631.0;2187.8;;;;-0.13845064;0.7140389;-0.19712833;;;;;;;;;;;;;;;;
2631.0;2187.8;;;;-0.13747026;0.7106133;-0.19632724;;;;;;;;;;;;;;;;
2633.0;2191.9;;;;;;;;;;;;;;;;;64.06598;-2.45674;89.64049;;2112.6;
2633.0;2191.9;;;;;;;;;;;;;;0.8415784;0.01721244;-0.27875605;;;;;2112.6;
2633.0;2191.9;;;;;;;;;;;;;;;;;65.00061;-1.2665181;86.64587;;2112.6;
2633.0;2191.9;;;;;;;;;;;;;;0.84359264;0.07513657;-0.25782037;;;;;2112.6;
2633.0;2191.9;;;;;;;;;;;;;;;;;66.48839;-1.4915922;86.49327;;2122.2;
2633.0;2191.9;;;;;;;;;;;;;;0.8044069;0.01800592;-0.2677694;;;;;2122.2;
2633.0;2191.9;;;;;;;;;;;;;;;;;73.778496;-4.2191844;86.98157;;2122.2;
2633.0;2191.9;;;;;;;;;;;;;;0.81789607;0.009399701;-0.29132968;;;;;2122.2;
2633.0;2191.9;;;;;;;;;;;;;;;;;76.471756;-2.5940733;85.24583;;2131.7;
2633.0;2191.9;;;;;;;;;;;;;;0.8117924;-0.0017700735;-0.291818;;;;;2131.7;
2633.0;2191.9;;;;;;;;;;;;;;;;;80.51927;-0.43488875;85.17335;;2131.7;
2633.0;2191.9;;;;;;;;;;;;;;0.77285075;-0.0077517014;-0.26239815;;;;;2131.7;
2633.0;2193.2;;;;;;;;;;-7.477035;-9.849849;45.178837;;;;;;;;;;
2633.0;2193.2;;;;;;;0.29627368;-0.90066224;0.10455641;;;;;;;;;;;;;
2633.0;2193.2;;;;;;;;;;-8.068331;-7.9004793;44.064915;;;;;;;;;;
2633.0;2193.2;;;;;;;0.29786065;-0.90792567;0.103396714;;;;;;;;;;;;;
2633.0;2197.8;;;;-0.1342888;0.7081185;-0.19480518;;;;;;;;;;;;;;;;
2633.0;2197.8;;;;-0.13364412;0.7051621;-0.19296649;;;;;;;;;;;;;;;;
2633.0;2197.8;;;;-0.13414003;0.7042313;-0.19200137;;;;;;;;;;;;;;;;
2633.0;2197.8;;;;-0.13407518;0.70400244;-0.19188693;;;;;;;;;;;;;;;;
2633.0;2197.8;;;;-0.13292314;0.7045556;-0.19018939;;;;;;;;;;;;;;;;
2673.0;2199.0;;;;;;;;;;;;;;;;;86.53523;-2.2202215;84.204384;;2141.4;
2673.0;2199.0;;;;;;;;;;;;;;0.74813074;0.013550218;-0.26190984;;;;;2141.4;
2673.0;2199.0;;;;;;;;;;;;;;;;;94.63027;-6.2524796;84.589676;;2141.4;
2673.0;2199.0;;;;;;;;;;;;;;0.7412946;-0.042176582;-0.2870571;;;;;2141.4;
2673.0;2199.0;;;;;;;;;;;;;;;;;108.41701;-12.153996;84.87579;;2151.1;
2673.0;2199.0;;;;;;;;;;;;;;0.74434644;-0.08832057;-0.2990814;;;;;2151.1;
2673.0;2199.0;;;;;;;;;;;;;;;;;116.91641;-15.1104765;83.32697;;2151.1;
2673.0;2199.0;;;;;;;;;;;;;;0.7532579;-0.044740137;-0.29395428;;;;;2151.1;
2673.0;2199.0;;;;;;;;;;;;;;;;;119.44563;-14.175848;81.324196;;2160.7;
2673.0;2199.0;;;;;;;;;;;;;;0.7867672;0.05084384;-0.28931546;;;;;2160.7;
2673.0;2199.0;;;;;;;;;;;;;;;;;121.48656;-12.852107;80.64516;;2160.7;
2673.0;2199.0;;;;;;;;;;;;;;0.7779168;0.056642354;-0.2287057;;;;;2160.7;
2673.0;2201.1;262143;262143;12262;;;;;;;;;;;;;;;;;;;
2673.0;2202.7;;;;;;;;;;-8.754997;-6.199072;42.996765;;;;;;;;;;
2673.0;2202.7;;;;;;;0.29053622;-0.9173254;0.105166785;;;;;;;;;;;;;
2673.0;2202.7;;;;;;;;;;-9.31196;-5.226295;41.947693;;;;;;;;;;
2673.0;2202.7;;;;;;;0.2844325;-0.91976684;0.106387526;;;;;;;;;;;;;
2673.0;2206.9;;;;;;;;;;;;;8558;;;;;;;;;
2673.0;2206.9;;;;;;;;;;;;;8572;;;;;;;;;
2673.0;2206.9;;;;;;;;;;;;;8407;;;;;;;;;
2673.0;2206.9;;;;;;;;;;;;;8341;;;;;;;;;
2673.0;2206.9;;;;;;;;;;;;;8705;;;;;;;;;
2675.0;2207.7;;;;-0.13238527;0.70605093;-0.1885033;;;;;;;;;;;;;;;;
2675.0;2207.7;;;;-0.13444139;0.70787436;-0.18820193;;;;;;;;;;;;;;;;
2675.0;2207.7;;;;-0.13582231;0.71134955;-0.18833163;;;;;;;;;;;;;;;;
2675.0;2207.7;;;;-0.13616182;0.7136727;-0.18760303;;;;;;;;;;;;;;;;
2675.0;2207.7;;;;-0.13570024;0.7167588;-0.18693925;;;;;;;;;;;;;;;;
2675.0;2212.2;;;;;;;;;;-9.929959;-4.188666;41.066467;;;;;;;;;;
2675.0;2212.2;;;;;;;0.29041412;-0.924955;0.10901212;;;;;;;;;;;;;
2675.0;2212.2;;;;;;;;;;-10.509811;-3.238777;40.158543;;;;;;;;;;
2675.0;2212.2;;;;;;;0.29493088;-0.9303262;0.11157567;;;;;;;;;;;;;
2675.0;2217.8;;;;-0.13627626;0.7211686;-0.18614198;;;;;;;;;;;;;;;;
2675.0;2217.8;;;;-0.13565065;0.7257119;-0.18635179;;;;;;;;;;;;;;;;
2675.0;2217.8;;;;-0.13580705;0.7305413;-0.1852379;;;;;;;;;;;;;;;;
2675.0;2217.8;;;;-0.13689043;0.73442084;-0.18619157;;;;;;;;;;;;;;;;
2675.0;2217.8;;;;-0.13889696;0.73743826;-0.18679048;;;;;;;;;;;;;;;;
2675.0;2221.2;262143;262143;12261;;;;;;;;;;;;;;;;;;;
2675.0;2221.7;;;;;;;;;;-11.101108;-2.25074;38.99121;;;;;;;;;;
2675.0;2221.7;;;;;;;0.30677205;-0.93923765;0.114627525;;;;;;;;;;;;;
2675.0;2221.7;;;;;;;;;;-11.757256;-0.71337014;38.010803;;;;;;;;;;
2675.0;2221.7;;;;;;;0.31843013;-0.95687735;0.11468856;;;;;;;;;;;;;
2677.0;2227.8;;;;-0.14032365;0.74093634;-0.18528368;;;;;;;;;;;;;;;;
2677.0;2227.8;;;;-0.14112855;0.7452355;-0.18396379;;;;;;;;;;;;;;;;
2677.0;2227.8;;;;-0.13848497;0.75120175;-0.1837082;;;;;;;;;;;;;;;;
2677.0;2227.8;;;;-0.13544847;0.7566987;-0.1836815;;;;;;;;;;;;;;;;
2677.0;2227.8;;;;-0.13304903;0.76472104;-0.18346407;;;;;;;;;;;;;;;;
2677.0;2231.3;;;;;;;;;;-12.226479;0.63325906;37.224953;;;;;;;;;;
2677.0;2231.3;;;;;;;0.32374036;-0.9789117;0.11694693;;;;;;;;;;;;;
2677.0;2231.3;;;;;;;;;;-12.6957;2.231666;36.7481;;;;;;;;;;
2677.0;2231.3;;;;;;;0.3236793;-1.0054628;0.12121952;;;;;;;;;;;;;
2677.0;2237.9;;;;-0.13088228;0.77077496;-0.18347551;;;;;;;;;;;;;;;;
2677.0;2237.9;;;;-0.12913515;0.7785226;-0.18262865;;;;;;;;;;;;;;;;
2677.0;2237.9;;;;-0.12876894;0.7879907;-0.18164064;;;;;;;;;;;;;;;;
2677.0;2237.9;;;;-0.12713243;0.7944528;-0.18230058;;;;;;;;;;;;;;;;
2677.0;2237.9;;;;-0.12519838;0.80149853;-0.18195345;;;;;;;;;;;;;;;;
2677.0;2241.0;;;;;;;;;;-13.096255;3.3455918;36.450546;;;;;;;;;;
2677.0;2241.0;;;;;;;0.31464583;-1.020661;0.1267739;;;;;;;;;;;;;
2677.0;2241.0;;;;;;;;;;-13.626515;4.0704064;35.73336;;;;;;;;;;
2677.0;2241.0;;;;;;;0.30726036;-1.0371411;0.13013093;;;;;;;;;;;;;
2677.0;2241.4;262143;262143;12253;;;;;;;;;;;;;;;;;;;
2677.0;2247.3;;;;;;;;;;;;;9127;;;;;;;;;
2677.0;2247.3;;;;;;;;;;;;;9010;;;;;;;;;
2677.0;2247.3;;;;;;;;;;;;;8483;;;;;;;;;
2677.0;2247.3;;;;;;;;;;;;;8198;;;;;;;;;
2677.0;2247.3;;;;;;;;;;;;;8392;;;;;;;;;
2679.0;2248.0;;;;-0.12409212;0.80978787;-0.18124773;;;;;;;;;;;;;;;;
2679.0;2248.0;;;;-0.123481765;0.81655896;-0.18055345;;;;;;;;;;;;;;;;
2679.0;2248.0;;;;-0.12254335;0.82460415;-0.18046571;;;;;;;;;;;;;;;;
2679.0;2248.0;;;;-0.12030412;0.83109295;-0.18001558;;;;;;;;;;;;;;;;
2679.0;2248.0;;;;-0.11943819;0.8370477;-0.18011095;;;;;;;;;;;;;;;;
2679.0;2250.6;;;;;;;;;;-14.305552;4.8829613;35.18021;;;;;;;;;;
2679.0;2250.6;;;;;;;0.29932556;-1.0499588;0.13293862;;;;;;;;;;;;;
2679.0;2250.6;;;;;;;;;;-14.6641445;5.184332;34.813988;;;;;;;;;;
