patientId;holterMac;flexMac;;;;;;;;;;;;;;;;;;;;
;CA:F3:0B:1E:33:78;D3:4A:5C:52:80:78;;;;;;;;;;;;;;;;;;;;
receivedTimeStamp;timeStamp;red;ir;green;adxl_accX;adxl_accY;adxl_accZ;lsm_accelX;lsm_accelY;lsm_accelZ;lsm_gyroX;lsm_gyroY;lsm_gyroZ;ecg;flex_lsm_accelX;flex_lsm_accelY;flex_lsm_accelZ;flex_lsm_gyroX;flex_lsm_gyroY;flex_lsm_gyroZ;flex_cmd;flexTimeStamp
296.0;216.0;;;;;;;;;;;;;;;;;;;;17;0.1
296.0;216.0;;;;;;;;;;;;;;;;;13.683737;1.4992218;0.9575182;;127.6
296.0;216.0;;;;;;;;;;;;;;0.6124455;0.35859248;-0.036439102;;;;;127.6
296.0;216.0;;;;;;;;;;;;;;;;;-5.9854426;-17.429884;-6.5080724;;127.6
296.0;216.0;;;;;;;;;;;;;;0.6374706;0.36335337;-0.044740137;;;;;127.6
296.0;216.0;;;;;;;;;;;;;;;;;-65.290535;-84.94446;-60.274055;;137.2
296.0;216.0;;;;;;;;;;;;;;0.6403394;0.35425887;-0.05389569;;;;;137.2
296.0;216.0;;;;;;;;;;;;;;;;;-122.49748;-124.988556;-119.350266;;137.2
296.0;216.0;;;;;;;;;;;;;;0.63795894;0.34644613;-0.060304575;;;;;137.2
358.0;216.8;;;;;;;;;;;;;;;;;-65.218056;-124.988556;-72.96976;;146.9
358.0;216.8;;;;;;;;;;;;;;0.6384472;0.33887753;-0.0656148;;;;;146.9
358.0;216.8;;;;;;;;;;;;;;;;;-6.126591;-124.988556;-16.891996;;146.9
358.0;216.8;;;;;;;;;;;;;;0.6374706;0.33039337;-0.07330546;;;;;146.9
358.0;216.8;;;;;;;;;;;;;;;;;-8.29722;-101.29856;-2.929777;;156.5
358.0;216.8;;;;;;;;;;;;;;0.63106173;0.32227546;-0.07574694;;;;;156.5
358.0;216.8;;;;;;;;;;;;;;;;;-9.968108;-22.282326;25.757622;;156.5
358.0;216.8;;;;;;;;;;;;;;0.6240425;0.3154393;-0.077455975;;;;;156.5
358.0;216.8;;;;;;;;;;;;;;;;;-4.1505175;-14.706107;30.152287;;166.1
358.0;216.8;;;;;;;;;;;;;;0.6164739;0.30738243;-0.07806635;;;;;166.1
358.0;216.8;;;;;;;;;;;;;;;;;2.3804438;-13.950773;32.506027;;166.1
358.0;216.8;;;;;;;;;;;;;;0.6099429;0.30036318;-0.08209479;;;;;166.1
358.0;291.6;;;;;;;;;;;;;;;;;8.9991455;-13.164922;35.176395;;175.7
358.0;291.6;;;;;;;;;;;;;;0.6078066;0.2921842;-0.094058044;;;;;175.7
358.0;291.6;;;;;;;;;;;;;;;;;15.736107;-12.398144;37.163914;;175.7
358.0;291.6;;;;;;;;;;;;;;0.6103091;0.28351694;-0.105533004;;;;;175.7
358.0;291.6;;;;;;;;;;;;;;;;;22.492142;-10.925627;38.964508;;185.3
358.0;291.6;;;;;;;;;;;;;;0.61793876;0.27710807;-0.118655965;;;;;185.3
358.0;291.6;;;;;;;;;;;;;;;;;28.832361;-9.117405;40.833767;;185.3
358.0;291.6;;;;;;;;;;;;;;0.6244087;0.2751549;-0.122562334;;;;;185.3
358.0;291.6;;;;;;;;;;;;;;;;;34.34095;-7.694479;42.21473;;195.0
358.0;291.6;;;;;;;;;;;;;;0.63399154;0.28382215;-0.12640767;;;;;195.0
358.0;291.6;;;;;;;;;;;;;;;;;38.357952;-6.4127016;43.912323;;195.0
358.0;291.6;;;;;;;;;;;;;;0.6458327;0.2920011;-0.124332406;;;;;195.0
420.0;292.4;;;;;;;;;;;;;;;;;41.64632;-5.4017763;45.19028;;204.5
420.0;292.4;;;;;;;;;;;;;;0.65724665;0.3035371;-0.118655965;;;;;204.5
420.0;292.4;;;;;;;;;;;;;;;;;43.6491;-4.6464434;45.556503;;204.5
420.0;292.4;;;;;;;;;;;;;;0.66750085;0.33161414;-0.104373306;;;;;204.5
420.0;292.4;;;;;;;;;;;;;;;;;43.56136;-5.0813317;46.468246;;214.2
420.0;292.4;;;;;;;;;;;;;;0.67445904;0.36378065;-0.08862575;;;;;214.2
420.0;292.4;;;;;;;;;;;;;;;;;42.16895;-6.183813;47.62032;;214.2
420.0;292.4;;;;;;;;;;;;;;0.6848354;0.38550982;-0.08740501;;;;;214.2
420.0;292.4;;;;;;;;;;;;;;;;;39.937283;-6.5271463;48.17347;;223.8
420.0;292.4;;;;;;;;;;;;;;0.69722587;0.42066714;-0.08716086;;;;;223.8
420.0;292.4;;;;;;;;;;;;;;;;;36.847286;-6.2295904;48.95932;;223.8
420.0;292.4;;;;;;;;;;;;;;0.7013764;0.44807276;-0.08209479;;;;;223.8
420.0;336.3;;;;;;;;;;;;;;;;;33.776363;-5.4857025;49.249245;;233.4
420.0;336.3;;;;;;;;;;;;;;0.70943326;0.48200935;-0.07477035;;;;;233.4
420.0;336.3;;;;;;;;;;;;;;;;;30.81225;-4.234443;49.893948;;233.4
420.0;336.3;;;;;;;;;;;;;;0.7109592;0.50904876;-0.07251198;;;;;233.4
420.0;336.3;;;;;;;;;;;;;;;;;29.545732;-2.9145176;50.073242;;243.0
420.0;336.3;;;;;;;;;;;;;;0.70546585;0.5274209;-0.070314646;;;;;243.0
420.0;336.3;;;;;;;;;;;;;;;;;29.560991;-2.7886288;49.039433;;243.0
420.0;336.3;;;;;;;;;;;;;;0.70186466;0.5531785;-0.079348125;;;;;243.0
420.0;336.3;;;;;;;;;;;;;;;;;30.095064;-2.704703;48.98221;;252.6
420.0;336.3;;;;;;;;;;;;;;0.69649345;0.5722831;-0.09552293;;;;;252.6
420.0;336.3;;;;;;;;;;;;;;;;;31.025879;-2.5292215;49.104282;;252.6
420.0;336.3;;;;;;;;;;;;;;0.689169;0.5849177;-0.10870693;;;;;252.6
479.0;337.1;;;;;;;;;;;;;;;;;31.891842;-2.4529252;49.01273;;262.2
479.0;337.1;;;;;;;;;;;;;;0.6817835;0.60188603;-0.11651967;;;;;262.2
479.0;337.1;;;;;;;;;;;;;;;;;31.73162;-2.9183326;49.756615;;262.2
479.0;337.1;;;;;;;;;;;;;;0.6715903;0.6198309;-0.1114536;;;;;262.2
479.0;337.1;;;;;;;;;;;;;;;;;29.656363;-4.3107395;51.236763;;271.9
479.0;337.1;;;;;;;;;;;;;;0.6610919;0.6159856;-0.112125;;;;;271.9
479.0;337.1;;;;;;;;;;;;;;;;;28.191473;-6.778924;51.87765;;271.9
479.0;337.1;;;;;;;;;;;;;;0.6504105;0.5993225;-0.111087374;;;;;271.9
479.0;337.1;;;;;;;;;;;;;;;;;25.894955;-9.132664;51.339764;;281.6
479.0;337.1;;;;;;;;;;;;;;0.64674824;0.6054872;-0.102725305;;;;;281.6
479.0;337.1;;;;;;;;;;;;;;;;;22.419659;-11.650441;51.633503;;281.6
479.0;337.1;;;;;;;;;;;;;;0.6429029;0.5889462;-0.09857479;;;;;281.6
479.0;411.6;;;;;;;;;;;;;;;;;19.676807;-14.118626;52.1218;;291.1
479.0;411.6;;;;;;;;;;;;;;0.64259773;0.56337166;-0.0933256;;;;;291.1
479.0;411.6;;;;;;;;;;;;;;;;;18.333994;-16.63259;52.365948;;291.1
479.0;411.6;;;;;;;;;;;;;;0.638081;0.5393231;-0.09503464;;;;;291.1
479.0;411.6;;;;;;;;;;;;;;;;;18.139439;-19.821772;52.06458;;300.8
479.0;411.6;;;;;;;;;;;;;;0.6402173;0.5182043;-0.10559405;;;;;300.8
479.0;411.6;;;;;;;;;;;;;;;;;18.299662;-22.48451;51.6068;;300.8
479.0;411.6;;;;;;;;;;;;;;0.643025;0.49342325;-0.11120945;;;;;300.8
479.0;411.6;;;;;;;;;;;;;;;;;18.417921;-24.136326;50.992615;;310.2
479.0;411.6;;;;;;;;;;;;;;0.64766383;0.47804195;-0.10742515;;;;;310.2
479.0;411.6;;;;;;;;;;;;;;;;;17.708364;-24.952696;50.019836;;310.2
479.0;411.6;;;;;;;;;;;;;;0.64693135;0.44856104;-0.10571612;;;;;310.2
540.0;412.4;;;;;;;;;;;;;;;;;16.762293;-24.742882;47.650837;;319.9
540.0;412.4;;;;;;;;;;;;;;0.6515702;0.44587544;-0.091250345;;;;;319.9
540.0;412.4;;;;;;;;;;;;;;;;;15.072329;-24.239326;45.388653;;319.9
540.0;412.4;;;;;;;;;;;;;;0.66188544;0.4507584;-0.07678457;;;;;319.9
540.0;412.4;;;;;;;;;;;;;;;;;13.2793665;-23.228401;43.66436;;329.6
540.0;412.4;;;;;;;;;;;;;;0.6635945;0.44819483;-0.06390576;;;;;329.6
540.0;412.4;;;;;;;;;;;;;;;;;11.753441;-22.019106;41.36784;;329.6
540.0;412.4;;;;;;;;;;;;;;0.6638386;0.45258948;-0.049134802;;;;;329.6
540.0;412.4;;;;;;;;;;;;;;;;;9.926145;-21.084475;38.975952;;339.1
540.0;412.4;;;;;;;;;;;;;;0.6674398;0.4629658;-0.054994356;;;;;339.1
540.0;412.4;;;;;;;;;;;;;;;;;7.641072;-18.375957;36.51921;;339.1
540.0;412.4;;;;;;;;;;;;;;0.6698813;0.47059542;-0.063417464;;;;;339.1
540.0;456.9;;;;;;;;;;;;;;;;;5.1080356;-14.450515;33.95947;;348.8
540.0;456.9;;;;;;;;;;;;;;0.66768396;0.47968993;-0.07257301;;;;;348.8
540.0;456.9;;;;;;;;;;;;;;;;;3.2502213;-11.185034;31.338696;;348.8
540.0;456.9;;;;;;;;;;;;;;0.67311627;0.4877468;-0.09131138;;;;;348.8
540.0;456.9;;;;;;;;;;;;;;;;;3.1853695;-8.255258;28.86288;;358.4
540.0;456.9;;;;;;;;;;;;;;0.68263805;0.49684134;-0.10925627;;;;;358.4
540.0;456.9;;;;;;;;;;;;;;;;;5.0851464;-6.2715535;26.551104;;358.4
540.0;456.9;;;;;;;;;;;;;;0.6928312;0.5074618;-0.12640767;;;;;358.4
540.0;456.9;;;;;;;;;;;;;;;;;7.6868496;-5.1080356;24.628439;;368.0
540.0;456.9;;;;;;;;;;;;;;0.700705;0.51564074;-0.13812678;;;;;368.0
540.0;456.9;;;;;;;;;;;;;;;;;9.670553;-4.1848507;23.068178;;368.0
540.0;456.9;;;;;;;;;;;;;;0.70741904;0.5247353;-0.13391522;;;;;368.0
600.0;458.0;;;;;;;;;;;;;;;;;10.418256;-4.0437026;21.965698;;377.6
600.0;458.0;;;;;;;;;;;;;;0.71004367;0.52430797;-0.125309;;;;;377.6
600.0;458.0;;;;;;;;;;;;;;;;;9.952848;-4.844814;21.519365;;377.6
600.0;458.0;;;;;;;;;;;;;;0.7134617;0.516129;-0.12390515;;;;;377.6
600.0;458.0;;;;;;;;;;;;;;;;;8.877071;-6.721702;21.778772;;387.2
600.0;458.0;;;;;;;;;;;;;;0.7180395;0.51167333;-0.11993774;;;;;387.2
600.0;458.0;;;;;;;;;;;;;;;;;7.534257;-9.0983305;22.965178;;387.2
600.0;458.0;;;;;;;;;;;;;;0.730369;0.49592578;-0.11938841;;;;;387.2
600.0;458.0;;;;;;;;;;;;;;;;;6.424146;-10.917997;24.864954;;396.9
600.0;458.0;;;;;;;;;;;;;;0.74709314;0.4826197;-0.11304056;;;;;396.9
600.0;458.0;;;;;;;;;;;;;;;;;5.9282207;-12.287516;27.169104;;396.9
600.0;458.0;;;;;;;;;;;;;;0.760155;0.47077852;-0.11334574;;;;;396.9
600.0;517.1;;;;;;;;;;;;;;;;;6.0388503;-13.092441;29.885252;;406.5
600.0;517.1;;;;;;;;;;;;;;0.774865;0.46259958;-0.11951049;;;;;406.5
600.0;517.1;;;;;;;;;;;;;;;;;6.477554;-13.11533;32.79977;;406.5
600.0;517.1;;;;;;;;;;;;;;0.7885983;0.44770652;-0.12274545;;;;;406.5
600.0;517.1;;;;;;;;;;;;;;;;;6.6949983;-12.050997;35.905025;;416.2
600.0;517.1;;;;;;;;;;;;;;0.79946285;0.43238625;-0.12079226;;;;;416.2
600.0;517.1;;;;;;;;;;;;;;;;;6.431776;-10.1130705;39.059875;;416.2
600.0;517.1;;;;;;;;;;;;;;0.8017212;0.40919217;-0.11157567;;;;;416.2
600.0;517.1;;;;;;;;;;;;;;;;;5.466628;-7.9500723;42.176582;;425.7
600.0;517.1;;;;;;;;;;;;;;0.80159914;0.38190863;-0.102053896;;;;;425.7
600.0;517.1;;;;;;;;;;;;;;;;;4.360332;-5.3216653;45.056763;;425.7
600.0;517.1;;;;;;;;;;;;;;0.80434585;0.3521836;-0.077455975;;;;;425.7
659.0;517.9;;;;;;;;;;;;;;;;;3.2082584;-2.2659993;47.505875;;435.3
659.0;517.9;;;;;;;;;;;;;;0.82418287;0.33869442;-0.039857175;;;;;435.3
659.0;517.9;;;;;;;;;;;;;;;;;2.277444;3.3646657;49.5735;;435.3
659.0;517.9;;;;;;;;;;;;;;0.87923825;0.3518784;0.029969176;;;;;435.3
659.0;517.9;;;;;;;;;;;;;;;;;0.42344433;10.9408865;51.21006;;445.0
659.0;517.9;;;;;;;;;;;;;;0.95376444;0.38776818;0.101260416;;;;;445.0
659.0;517.9;;;;;;;;;;;;;;;;;-2.2087772;10.586108;52.888577;;445.0
659.0;517.9;;;;;;;;;;;;;;1.0494705;0.46021912;0.09021272;;;;;445.0
659.0;517.9;;;;;;;;;;;;;;;;;0.7324442;-0.94225895;55.21561;;454.7
659.0;517.9;;;;;;;;;;;;;;1.2265999;0.5575121;0.0050050355;;;;;454.7
659.0;517.9;;;;;;;;;;;;;;;;;10.593738;-8.857997;58.07291;;454.7
659.0;517.9;;;;;;;;;;;;;;1.4062319;0.6421705;-0.11389508;;;;;454.7
659.0;532.1;;;;;;;;;;;;;;;;;20.313883;-6.389813;60.00702;;464.4
659.0;532.1;;;;;;;;;;;;;;1.431318;0.68660545;-0.21967223;;;;;464.4
659.0;532.1;;;;;;;;;;;;;;;;;26.92114;-3.765221;59.163948;;464.4
659.0;532.1;;;;;;;;;;;;;;1.2999054;0.71370584;-0.30457473;;;;;464.4
659.0;532.1;;;;;;;;;;;;;;;;;27.661213;-5.53148;56.3448;;474.0
659.0;532.1;;;;;;;;;;;;;;1.1235695;0.7394635;-0.311655;;;;;474.0
659.0;532.1;;;;;;;;;;;;;;;;;21.774958;-12.356182;52.102726;;474.0
659.0;532.1;;;;;;;;;;;;;;0.99588;0.7591174;-0.2626423;;;;;474.0
659.0;532.1;;;;;;;;;;;;;;;;;10.929441;-22.18314;49.375134;;483.5
659.0;532.1;;;;;;;;;;;;;;0.93630785;0.7359844;-0.2026429;;;;;483.5
659.0;532.1;;;;;;;;;;;;;;;;;-4.379406;-29.019287;48.593098;;483.5
659.0;532.1;;;;;;;;;;;;;;0.916776;0.6834315;-0.10010071;;;;;483.5
719.0;577.7;;;;;;;;;;;;;;;;;-23.785364;-33.478806;49.37132;;493.2
719.0;577.7;;;;;;;;;;;;;;0.913358;0.62050235;0.0074465163;;;;;493.2
719.0;577.7;;;;;;;;;;;;;;;;;-43.17988;-40.440838;51.522873;;493.2
719.0;577.7;;;;;;;;;;;;;;0.92263556;0.5224158;0.05505539;;;;;493.2
719.0;577.7;;;;;;;;;;;;;;;;;-57.912685;-47.17017;54.822685;;502.9
719.0;577.7;;;;;;;;;;;;;;0.9262978;0.38691366;0.037354656;;;;;502.9
719.0;577.7;;;;;;;;;;;;;;;;;-66.14124;-49.325542;56.272316;;502.9
719.0;577.7;;;;;;;;;;;;;;0.9007233;0.28601947;-0.0011597034;;;;;502.9
719.0;577.7;;;;;;;;;;;;;;;;;-68.99472;-49.535355;54.02921;;512.5
719.0;577.7;;;;;;;;;;;;;;0.8832667;0.2454909;-0.041871395;;;;;512.5
719.0;577.7;;;;;;;;;;;;;;;;;-70.21546;-48.89447;49.4438;;512.5
719.0;577.7;;;;;;;;;;;;;;0.8415174;0.24365978;-0.118717;;;;;512.5
719.0;592.5;;;;;;;;;;;;;;;;;-69.700455;-50.87817;44.503616;;522.1
719.0;592.5;;;;;;;;;;;;;;0.80159914;0.2628254;-0.2038026;;;;;522.1
719.0;592.5;;;;;;;;;;;;;;;;;-68.65138;-56.722466;38.895844;;522.1
719.0;592.5;;;;;;;;;;;;;;0.7783441;0.26593828;-0.29987487;;;;;522.1
719.0;592.5;;;;;;;;;;;;;;;;;-68.784904;-58.679466;31.323437;;531.8
719.0;592.5;;;;;;;;;;;;;;0.7421491;0.27198097;-0.3630482;;;;;531.8
719.0;592.5;;;;;;;;;;;;;;;;;-69.97513;-53.456985;22.034365;;531.8
719.0;592.5;;;;;;;;;;;;;;0.6985687;0.26819667;-0.3564562;;;;;531.8
719.0;592.5;;;;;;;;;;;;;;;;;-71.19587;-45.789207;12.489699;;541.2
719.0;592.5;;;;;;;;;;;;;;0.67360455;0.2402417;-0.3188574;;;;;541.2
719.0;592.5;;;;;;;;;;;;;;;;;-72.01605;-41.253395;5.726035;;541.2
719.0;592.5;;;;;;;;;;;;;;0.6636555;0.19238868;-0.3075045;;;;;541.2
780.0;645.4;;;;;;;;;;;;;;;;;-73.12235;-36.877804;0.7019257;;550.9
780.0;645.4;;;;;;;;;;;;;;0.65956604;0.14300974;-0.31727043;;;;;550.9
780.0;645.4;;;;;;;;;;;;;;;;;-74.15235;-29.29014;-1.7471846;;550.9
780.0;645.4;;;;;;;;;;;;;;0.65724665;0.07202368;-0.30622274;;;;;550.9
780.0;645.4;;;;;;;;;;;;;;;;;-73.75179;-18.959625;-1.6060365;;560.6
780.0;645.4;;;;;;;;;;;;;;0.6173284;0.049073763;-0.24597919;;;;;560.6
780.0;645.4;;;;;;;;;;;;;;;;;-71.00894;-13.447219;1.4610736;;560.6
780.0;645.4;;;;;;;;;;;;;;0.5848567;-0.02294992;-0.2196112;;;;;560.6
780.0;645.4;;;;;;;;;;;;;;;;;-64.76028;-13.5883665;6.4661093;;570.2
780.0;645.4;;;;;;;;;;;;;;0.6197699;-0.13177893;-0.25403607;;;;;570.2
780.0;645.4;;;;;;;;;;;;;;;;;-53.07169;-12.844478;10.303812;;570.2
780.0;645.4;;;;;;;;;;;;;;0.6667684;-0.1469161;-0.22070986;;;;;570.2
780.0;652.8;;;;;;;;;;;;;;;;;-38.26258;-18.505661;14.9616995;;579.9
780.0;652.8;;;;;;;;;;;;;;0.7740104;-0.13330485;-0.18207343;;;;;579.9
780.0;652.8;;;;;;;;;;;;;;;;;-26.184881;-30.716879;19.84466;;579.9
780.0;652.8;;;;;;;;;;;;;;0.9279458;-0.07837153;-0.26374096;;;;;579.9
780.0;652.8;;;;;;;;;;;;;;;;;-19.768364;-37.61025;23.78155;;589.6
780.0;652.8;;;;;;;;;;;;;;1.0768762;-0.016296884;-0.33960998;;;;;589.6
780.0;652.8;;;;;;;;;;;;;;;;;-18.814661;-40.669727;26.078066;;589.6
780.0;652.8;;;;;;;;;;;;;;1.2229987;0.0888699;-0.38422802;;;;;589.6
780.0;652.8;;;;;;;;;;;;;;;;;-22.576067;-44.74395;26.20777;;599.3
780.0;652.8;;;;;;;;;;;;;;1.3791925;0.23322245;-0.4405652;;;;;599.3
780.0;652.8;;;;;;;;;;;;;;;;;-31.826992;-47.82632;23.865475;;599.3
780.0;652.8;;;;;;;;;;;;;;1.5038911;0.38953826;-0.52589494;;;;;599.3
896.0;705.6;;;;;;;;;;;;;;;;;-44.133583;-43.820766;20.168919;;608.9
896.0;705.6;;;;;;;;;;;;;;1.5666372;0.4897;-0.5915708;;;;;608.9
896.0;705.6;;;;;;;;;;;;;;;;;-49.100468;-31.899471;17.590105;;608.9
896.0;705.6;;;;;;;;;;;;;;1.5065157;0.4885403;-0.5553148;;;;;608.9
896.0;705.6;;;;;;;;;;;;;;;;;-40.23484;-18.4637;17.319254;;618.5
896.0;705.6;;;;;;;;;;;;;;1.3135777;0.39460433;-0.4297006;;;;;618.5
896.0;705.6;;;;;;;;;;;;;;;;;-23.308512;-12.905515;17.368847;;618.5
896.0;705.6;;;;;;;;;;;;;;1.1600085;0.26349682;-0.30671102;;;;;618.5
896.0;705.6;;;;;;;;;;;;;;;;;-5.5734425;-15.720848;17.143772;;628.2
896.0;705.6;;;;;;;;;;;;;;1.106418;0.17029329;-0.28931546;;;;;628.2
896.0;705.6;;;;;;;;;;;;;;;;;8.674886;-17.864773;16.624958;;628.2
896.0;705.6;;;;;;;;;;;;;;1.0518509;0.12750633;-0.31305888;;;;;628.2
896.0;713.2;;;;;;;;;;;;;;;;;18.608662;-23.270363;16.735588;;637.8
896.0;713.2;;;;;;;;;;;;;;0.9985656;0.1119419;-0.3217261;;;;;637.8
896.0;713.2;;;;;;;;;;;;;;;;;23.674734;-35.62273;17.551958;;637.8
896.0;713.2;;;;;;;;;;;;;;0.99667346;0.11004975;-0.3751335;;;;;637.8
896.0;713.2;;;;;;;;;;;;;;;;;25.009918;-46.548355;18.765068;;647.5
896.0;713.2;;;;;;;;;;;;;;1.0212713;0.12903225;-0.44636372;;;;;647.5
896.0;713.2;;;;;;;;;;;;;;;;;23.407698;-49.058506;20.142216;;647.5
896.0;713.2;;;;;;;;;;;;;;1.0298166;0.16235848;-0.4883572;;;;;647.5
896.0;713.2;;;;;;;;;;;;;;;;;20.996735;-43.572803;21.099735;;657.2
896.0;713.2;;;;;;;;;;;;;;1.0273141;0.21124913;-0.49616992;;;;;657.2
896.0;713.2;;;;;;;;;;;;;;;;;18.707848;-31.991028;21.011993;;657.2
896.0;713.2;;;;;;;;;;;;;;1.0163274;0.26087222;-0.463332;;;;;657.2
899.0;758.6;;;;;;;;;;;;;;;;;17.017883;-18.196661;18.829922;;666.8
899.0;758.6;;;;;;;;;;;;;;0.9913633;0.321543;-0.4062624;;;;;666.8
899.0;758.6;;;;;;;;;;;;;;;;;15.106662;-6.3058867;14.965514;;666.8
899.0;758.6;;;;;;;;;;;;;;0.96194345;0.3933836;-0.34748375;;;;;666.8
899.0;758.6;;;;;;;;;;;;;;;;;12.49733;1.4610736;10.76159;;676.3
899.0;758.6;;;;;;;;;;;;;;0.9412519;0.46369824;-0.3192236;;;;;676.3
899.0;758.6;;;;;;;;;;;;;;;;;8.40785;4.799036;7.145146;;676.3
899.0;758.6;;;;;;;;;;;;;;0.9403363;0.5294351;-0.30933562;;;;;676.3
899.0;758.6;;;;;;;;;;;;;;;;;2.5254066;5.2949615;4.482406;;686.0
899.0;758.6;;;;;;;;;;;;;;0.9589526;0.5799127;-0.28858304;;;;;686.0
899.0;758.6;;;;;;;;;;;;;;;;;-4.6044803;3.9063692;2.4071476;;686.0
899.0;758.6;;;;;;;;;;;;;;0.9878231;0.61922055;-0.25330362;;;;;686.0
899.0;773.7;;;;;;;;;;;;;;;;;-12.657552;2.45674;0.29755548;;695.7
899.0;773.7;;;;;;;;;;;;;;1.013886;0.6454054;-0.2238838;;;;;695.7
899.0;773.7;;;;;;;;;;;;;;;;;-20.134586;2.666555;-1.9493698;;695.7
899.0;773.7;;;;;;;;;;;;;;1.0141912;0.644734;-0.20300913;;;;;695.7
899.0;773.7;;;;;;;;;;;;;;;;;-26.478622;4.154332;-3.482925;;705.3
899.0;773.7;;;;;;;;;;;;;;0.9996033;0.62331;-0.18182927;;;;;705.3
899.0;773.7;;;;;;;;;;;;;;;;;-30.89999;5.6192203;-4.3069243;;705.3
899.0;773.7;;;;;;;;;;;;;;0.9906308;0.60371715;-0.15057832;;;;;705.3
899.0;773.7;;;;;;;;;;;;;;;;;-32.952362;5.4780726;-4.8295546;;714.9
899.0;773.7;;;;;;;;;;;;;;0.9891659;0.5962706;-0.13647878;;;;;714.9
899.0;773.7;;;;;;;;;;;;;;;;;-32.147434;3.6927397;-5.035554;;714.9
899.0;773.7;;;;;;;;;;;;;;1.0017395;0.58662677;-0.14917448;;;;;714.9
959.0;826.5;;;;;;;;;;;;;;;;;-29.152807;2.5025177;-5.0126653;;724.5
959.0;826.5;;;;;;;;;;;;;;1.0175481;0.55873287;-0.17383343;;;;;724.5
959.0;826.5;;;;;;;;;;;;;;;;;-24.903103;2.3842587;-4.7074804;;724.5
959.0;826.5;;;;;;;;;;;;;;1.0274972;0.49995422;-0.19074069;;;;;724.5
959.0;826.5;;;;;;;;;;;;;;;;;-20.626698;3.6927397;-4.837184;;734.1
959.0;826.5;;;;;;;;;;;;;;1.027192;0.4304941;-0.17645802;;;;;734.1
959.0;826.5;;;;;;;;;;;;;;;;;-15.4690695;5.8481092;-6.2295904;;734.1
959.0;826.5;;;;;;;;;;;;;;1.0019838;0.3620716;-0.14355907;;;;;734.1
959.0;826.5;;;;;;;;;;;;;;;;;-8.48033;6.96585;-8.747368;;743.7
959.0;826.5;;;;;;;;;;;;;;0.98062074;0.33362836;-0.119754635;;;;;743.7
959.0;826.5;;;;;;;;;;;;;;;;;-1.0528886;8.438369;-11.318552;;743.7
959.0;826.5;;;;;;;;;;;;;;0.95358133;0.3259377;-0.11737419;;;;;743.7
959.0;827.7;;;;;;;;;;;;;;;;;6.8094425;10.364849;-13.634145;;753.4
959.0;827.7;;;;;;;;;;;;;;0.9291055;0.3065279;-0.12591937;;;;;753.4
959.0;827.7;;;;;;;;;;;;;;;;;15.968811;12.352367;-15.835291;;753.4
959.0;827.7;;;;;;;;;;;;;;0.9108554;0.27198097;-0.14734337;;;;;753.4
959.0;827.7;;;;;;;;;;;;;;;;;25.650806;15.739922;-18.158514;;763.0
959.0;827.7;;;;;;;;;;;;;;0.8855861;0.22937712;-0.16797388;;;;;763.0
959.0;827.7;;;;;;;;;;;;;;;;;35.13062;20.897549;-21.320993;;763.0
959.0;827.7;;;;;;;;;;;;;;0.83584094;0.2125309;-0.17926572;;;;;763.0
959.0;827.7;;;;;;;;;;;;;;;;;43.961914;26.3184;-25.410473;;772.7
959.0;827.7;;;;;;;;;;;;;;0.7754143;0.2327952;-0.17017122;;;;;772.7
959.0;827.7;;;;;;;;;;;;;;;;;52.591022;31.037325;-29.705956;;772.7
959.0;827.7;;;;;;;;;;;;;;0.7253639;0.25055698;-0.13226722;;;;;772.7
1019.0;879.3;;;;;;;;;;;;;;;;;61.090424;34.61562;-34.508804;;782.2
1019.0;879.3;;;;;;;;;;;;;;0.6848354;0.2674032;-0.09076205;;;;;782.2
1019.0;879.3;;;;;;;;;;;;;;;;;68.25465;38.95688;-39.613026;;782.2
1019.0;879.3;;;;;;;;;;;;;;0.649617;0.2743614;-0.06042665;;;;;782.2
1019.0;879.3;;;;;;;;;;;;;;;;;74.48042;45.57939;-45.33143;;791.8
1019.0;879.3;;;;;;;;;;;;;;0.60860014;0.28382215;-0.043946654;;;;;791.8
1019.0;879.3;;;;;;;;;;;;;;;;;80.095825;52.255318;-51.522873;;791.8
1019.0;879.3;;;;;;;;;;;;;;0.55739003;0.31275368;-0.04931791;;;;;791.8
1019.0;879.3;;;;;;;;;;;;;;;;;85.089424;55.234684;-58.0195;;801.3
1019.0;879.3;;;;;;;;;;;;;;0.5182653;0.34388256;-0.09698782;;;;;801.3
1019.0;879.3;;;;;;;;;;;;;;;;;89.67482;56.035797;-64.67635;;801.3
1019.0;879.3;;;;;;;;;;;;;;0.5008087;0.37464523;-0.17859432;;;;;801.3
1019.0;886.8;;;;;;;;;;;;;;;;;94.5883;61.45283;-71.45528;;810.9
1019.0;886.8;;;;;;;;;;;;;;0.49208045;0.4090701;-0.20606098;;;;;810.9
1019.0;886.8;;;;;;;;;;;;;;;;;98.58242;72.50816;-79.01242;;810.9
1019.0;886.8;;;;;;;;;;;;;;0.45728934;0.45149082;-0.16022217;;;;;810.9
1019.0;886.8;;;;;;;;;;;;;;;;;101.5656;82.92642;-87.038795;;820.6
1019.0;886.8;;;;;;;;;;;;;;0.39674062;0.48731956;-0.09241005;;;;;820.6
1019.0;886.8;;;;;;;;;;;;;;;;;103.05719;88.068794;-95.58779;;820.6
1019.0;886.8;;;;;;;;;;;;;;0.3451033;0.51747185;-0.033448286;;;;;820.6
1019.0;886.8;;;;;;;;;;;;;;;;;102.134;88.07261;-104.53352;;830.3
1019.0;886.8;;;;;;;;;;;;;;0.31550035;0.5370037;0.0018921476;;;;;830.3
1019.0;886.8;;;;;;;;;;;;;;;;;99.74212;86.86713;-114.600815;;830.3
1019.0;886.8;;;;;;;;;;;;;;0.3020722;0.5623951;0.049256876;;;;;830.3
1080.0;940.7;;;;;;;;;;;;;;;;;95.8243;86.596275;-123.046814;;839.9
1080.0;940.7;;;;;;;;;;;;;;0.29175696;0.5736259;0.11181982;;;;;839.9
1080.0;940.7;;;;;;;;;;;;;;;;;90.76586;86.34068;-124.98474;;839.9
1080.0;940.7;;;;;;;;;;;;;;0.29657888;0.5612964;0.16968292;;;;;839.9
1080.0;940.7;;;;;;;;;;;;;;;;;84.80712;86.03549;-124.988556;;849.5
1080.0;940.7;;;;;;;;;;;;;;0.30298775;0.53993344;0.20978424;;;;;849.5
1080.0;940.7;;;;;;;;;;;;;;;;;78.924675;83.95261;-124.988556;;849.5
1080.0;940.7;;;;;;;;;;;;;;0.30994597;0.5297403;0.20386365;;;;;849.5
1080.0;940.7;;;;;;;;;;;;;;;;;73.09564;78.859825;-124.988556;;859.2
1080.0;940.7;;;;;;;;;;;;;;0.34022033;0.5291299;0.1445967;;;;;859.2
1080.0;940.7;;;;;;;;;;;;;;;;;65.91235;77.429276;-124.988556;;859.2
1080.0;940.7;;;;;;;;;;;;;;0.39069796;0.52705467;0.111880854;;;;;859.2
1080.0;941.9;;;;;;;;;;;;;;;;;59.232613;78.51268;-124.988556;;868.9
1080.0;941.9;;;;;;;;;;;;;;0.43275246;0.5170446;0.10199286;;;;;868.9
1080.0;941.9;;;;;;;;;;;;;;;;;55.322426;78.32957;-124.988556;;868.9
1080.0;941.9;;;;;;;;;;;;;;0.4801172;0.5069735;0.08563494;;;;;868.9
1080.0;941.9;;;;;;;;;;;;;;;;;51.14902;79.72198;-124.988556;;878.6
1080.0;941.9;;;;;;;;;;;;;;0.54628134;0.4839015;0.07415998;;;;;878.6
1080.0;941.9;;;;;;;;;;;;;;;;;44.259468;80.27512;-124.988556;;878.6
1080.0;941.9;;;;;;;;;;;;;;0.621601;0.43171483;0.075441755;;;;;878.6
1080.0;941.9;;;;;;;;;;;;;;;;;36.24836;73.8815;-124.988556;;888.2
1080.0;941.9;;;;;;;;;;;;;;0.7229835;0.40900907;0.061708428;;;;;888.2
1080.0;941.9;;;;;;;;;;;;;;;;;22.60277;67.3925;-124.988556;;888.2
1080.0;941.9;;;;;;;;;;;;;;0.80721456;0.4252449;-0.034119695;;;;;888.2
1139.0;1000.3;;;;;;;;;;;;;;;;;6.6415906;69.66994;-124.988556;;897.9
1139.0;1000.3;;;;;;;;;;;;;;0.8504898;0.40931424;-0.08978546;;;;;897.9
1139.0;1000.3;;;;;;;;;;;;;;;;;-3.0480363;65.96576;-124.988556;;897.9
1139.0;1000.3;;;;;;;;;;;;;;0.8780786;0.39661855;-0.11694693;;;;;897.9
1139.0;1000.3;;;;;;;;;;;;;;;;;-8.770256;52.55669;-124.988556;;907.4
1139.0;1000.3;;;;;;;;;;;;;;0.9140904;0.39954832;-0.19782098;;;;;907.4
1139.0;1000.3;;;;;;;;;;;;;;;;;-10.307627;37.20588;-124.988556;;907.4
1139.0;1000.3;;;;;;;;;;;;;;0.9905698;0.44373912;-0.27558213;;;;;907.4
1139.0;1000.3;;;;;;;;;;;;;;;;;-7.1756644;24.433882;-124.988556;;917.1
1139.0;1000.3;;;;;;;;;;;;;;1.0987273;0.47688222;-0.37037262;;;;;917.1
1139.0;1000.3;;;;;;;;;;;;;;;;;-2.231666;18.43318;-124.988556;;917.1
1139.0;1000.3;;;;;;;;;;;;;;1.1979736;0.5616627;-0.41523483;;;;;917.1
1139.0;1001.1;;;;;;;;;;;;;;;;;3.89111;13.91644;-124.988556;;926.8
1139.0;1001.1;;;;;;;;;;;;;;1.2629169;0.63325906;-0.46540728;;;;;926.8
1139.0;1001.1;;;;;;;;;;;;;;;;;8.461257;11.284219;-124.988556;;926.8
1139.0;1001.1;;;;;;;;;;;;;;1.3187659;0.69521165;-0.49732962;;;;;926.8
1139.0;1001.1;;;;;;;;;;;;;;;;;5.3750725;13.4891815;-124.988556;;936.4
1139.0;1001.1;;;;;;;;;;;;;;1.3838923;0.727195;-0.50776696;;;;;936.4
1139.0;1001.1;;;;;;;;;;;;;;;;;1.9684439;19.573809;-124.988556;;936.4
1139.0;1001.1;;;;;;;;;;;;;;1.4647053;0.70851773;-0.47718742;;;;;936.4
1139.0;1001.1;;;;;;;;;;;;;;;;;2.5063326;27.657398;-124.988556;;945.9
1139.0;1001.1;;;;;;;;;;;;;;1.6080203;0.652913;-0.44672993;;;;;945.9
1139.0;1001.1;;;;;;;;;;;;;;;;;9.823145;41.59673;-124.988556;;945.9
1139.0;1001.1;;;;;;;;;;;;;;1.7496872;0.598529;-0.44508195;;;;;945.9
1199.0;1060.8;;;;;;;;;;;;;;;;;21.225624;63.219093;-124.988556;;955.6
1199.0;1060.8;;;;;;;;;;;;;;1.8024231;0.6482742;-0.3564562;;;;;955.6
1199.0;1060.8;;;;;;;;;;;;;;;;;37.35847;70.45961;-124.988556;;955.6
1199.0;1060.8;;;;;;;;;;;;;;1.6756493;0.65150917;-0.2369457;;;;;955.6
1199.0;1060.8;;;;;;;;;;;;;;;;;50.313576;71.32557;-124.988556;;965.2
1199.0;1060.8;;;;;;;;;;;;;;1.3484298;0.5363323;-0.17535935;;;;;965.2
1199.0;1060.8;;;;;;;;;;;;;;;;;50.710316;72.34794;-124.988556;;965.2
1199.0;1060.8;;;;;;;;;;;;;;1.1675771;0.46449172;-0.061098058;;;;;965.2
1199.0;1060.8;;;;;;;;;;;;;;;;;45.274208;60.85391;-124.988556;;974.9
1199.0;1060.8;;;;;;;;;;;;;;1.1221656;0.43604848;-0.08313242;;;;;974.9
1199.0;1060.8;;;;;;;;;;;;;;;;;38.61736;53.437912;-124.95804;;974.9
1199.0;1060.8;;;;;;;;;;;;;;1.1258278;0.44190803;-0.14050722;;;;;974.9
1199.0;1061.5;;;;;;;;;;;;;;;;;33.738213;54.74639;-122.810295;;984.6
1199.0;1061.5;;;;;;;;;;;;;;1.104709;0.51332134;-0.14618365;;;;;984.6
1199.0;1061.5;;;;;;;;;;;;;;;;;25.955992;58.954132;-117.47719;;984.6
1199.0;1061.5;;;;;;;;;;;;;;1.0312815;0.578753;-0.054017764;;;;;984.6
1199.0;1061.5;;;;;;;;;;;;;;;;;21.252327;50.202946;-112.73919;;994.2
1199.0;1061.5;;;;;;;;;;;;;;0.99105805;0.6521195;0.0016479995;;;;;994.2
1199.0;1061.5;;;;;;;;;;;;;;;;;25.437178;36.450546;-103.133484;;994.2
1199.0;1061.5;;;;;;;;;;;;;;1.0176092;0.6982635;-0.09857479;;;;;994.2
1199.0;1061.5;;;;;;;;;;;;;;;;;31.594288;33.768734;-92.40241;;1003.8
1199.0;1061.5;;;;;;;;;;;;;;0.9851985;0.7116916;-0.09765923;;;;;1003.8
1199.0;1061.5;;;;;;;;;;;;;;;;;33.139286;30.980103;-86.004974;;1003.8
1199.0;1061.5;;;;;;;;;;;;;;0.93850523;0.712302;-0.052491836;;;;;1003.8
1200.0;1121.5;;;;;;;;;;;;;;;;;33.562733;23.178808;-78.93993;;1013.4
1200.0;1121.5;;;;;;;;;;;;;;0.92336804;0.6996063;-0.012878811;;;;;1013.4
1200.0;1121.5;;;;;;;;;;;;;;;;;32.330547;14.744255;-71.176796;;1013.4
1200.0;1121.5;;;;;;;;;;;;;;0.9304483;0.6812952;0.003540147;;;;;1013.4
1200.0;1121.5;;;;;;;;;;;;;;;;;29.332104;9.838404;-62.059387;;1023.1
1200.0;1121.5;;;;;;;;;;;;;;0.9254433;0.6635945;0.04113895;;;;;1023.1
1200.0;1121.5;;;;;;;;;;;;;;;;;25.990326;7.038331;-51.236763;;1023.1
1200.0;1121.5;;;;;;;;;;;;;;0.91366315;0.6378369;0.05877865;;;;;1023.1
1200.0;1121.5;;;;;;;;;;;;;;;;;23.945585;5.142369;-39.532913;;1032.8
1200.0;1121.5;;;;;;;;;;;;;;0.888699;0.59938353;0.02294992;;;;;1032.8
1200.0;1121.5;;;;;;;;;;;;;;;;;22.457808;3.9407024;-29.21003;;1032.8
1200.0;1121.5;;;;;;;;;;;;;;0.86916715;0.59566027;-0.005920591;;;;;1032.8
1202.0;1122.2;;;;;;;;;;;;;;;;;19.207588;1.8387402;-20.359661;;1042.3
1202.0;1122.2;;;;;;;;;;;;;;0.8666036;0.59944457;-0.013855403;;;;;1042.3
1202.0;1122.2;;;;;;;;;;;;;;;;;14.221625;-1.4915922;-12.207404;;1042.3
1202.0;1122.2;;;;;;;;;;;;;;0.84707177;0.5983459;-0.03521836;;;;;1042.3
1202.0;1122.2;;;;;;;;;;;;;;;;;7.7745905;-5.287332;-4.589221;;1051.9
1202.0;1122.2;;;;;;;;;;;;;;0.826014;0.5876034;-0.0369274;;;;;1051.9
1202.0;1122.2;;;;;;;;;;;;;;;;;-0.0839259;-8.854182;3.2464066;;1051.9
1202.0;1122.2;;;;;;;;;;;;;;0.77388835;0.5478683;-0.0010376293;;;;;1051.9
1202.0;1122.2;;;;;;;;;;;;;;;;;-6.469924;-17.517624;11.810663;;1061.5
1202.0;1122.2;;;;;;;;;;;;;;0.7292703;0.52107304;-0.012573626;;;;;1061.5
1202.0;1122.2;;;;;;;;;;;;;;;;;-9.292887;-27.375103;21.50029;;1061.5
1202.0;1122.2;;;;;;;;;;;;;;0.7127903;0.5001373;-0.07116917;;;;;1061.5
1202.0;1129.2;;;;0.0;0.0;0.0;;;;;;;;;;;;;;;
1202.0;1129.2;;;;-0.18084718;4.1961674E-5;0.09301377;;;;;;;;;;;;;;;
1202.0;1129.2;;;;-0.93603146;-0.16127016;0.32490543;;;;;;;;;;;;;;;
1202.0;1129.2;;;;-1.0374032;-0.19596866;0.34567264;;;;;;;;;;;;;;;
1202.0;1129.2;;;;-1.03257;-0.19939426;0.34120563;;;;;;;;;;;;;;;
1202.0;1139.2;;;;-1.0269357;-0.20327762;0.33729175;;;;;;;;;;;;;;;
1202.0;1139.2;;;;-1.0189477;-0.20678332;0.33396533;;;;;;;;;;;;;;;
1202.0;1139.2;;;;-1.0114633;-0.20997623;0.32882312;;;;;;;;;;;;;;;
1202.0;1139.2;;;;-1.0038949;-0.21221545;0.32093814;;;;;;;;;;;;;;;
1202.0;1139.2;;;;-0.996914;-0.21508029;0.31378177;;;;;;;;;;;;;;;
1259.0;1140.7;57467;57439;13527;;;;;;;;;;;;;;;;;;
1259.0;1149.3;;;;-0.9899446;-0.21852115;0.30619434;;;;;;;;;;;;;;;
1259.0;1149.3;;;;-0.9831315;-0.222168;0.2977791;;;;;;;;;;;;;;;
1259.0;1149.3;;;;-0.9754487;-0.22481158;0.28951648;;;;;;;;;;;;;;;
1259.0;1149.3;;;;-0.9673234;-0.22648242;0.28184512;;;;;;;;;;;;;;;
1259.0;1149.3;;;;-0.96146786;-0.2279816;0.2750664;;;;;;;;;;;;;;;
1259.0;1159.2;;;;-0.95305264;-0.22838214;0.2680588;;;;;;;;;;;;;;;
1259.0;1159.2;;;;-0.9451562;-0.22792819;0.2614403;;;;;;;;;;;;;;;
1259.0;1159.2;;;;-0.9376184;-0.22788242;0.2544861;;;;;;;;;;;;;;;
1259.0;1159.2;;;;-0.9279138;-0.22764972;0.2477875;;;;;;;;;;;;;;;
1259.0;1159.2;;;;-0.9173852;-0.22709277;0.2408829;;;;;;;;;;;;;;;
1259.0;1160.8;73996;73876;13526;;;;;;;;;;;;;;;;;;
1259.0;1166.9;;;;;;;;;;;;;0;;;;;;;;
1259.0;1166.9;;;;;;;;;;;;;0;;;;;;;;
1259.0;1166.9;;;;;;;;;;;;;-1;;;;;;;;
1259.0;1166.9;;;;;;;;;;;;;-2;;;;;;;;
1259.0;1166.9;;;;;;;;;;;;;-3;;;;;;;;
1259.0;1169.3;;;;-0.906212;-0.22605518;0.23507693;;;;;;;;;;;;;;;
1259.0;1169.3;;;;-0.8960687;-0.22454837;0.22849658;;;;;;;;;;;;;;;
1259.0;1169.3;;;;-0.8867456;-0.22371677;0.22280505;;;;;;;;;;;;;;;
1259.0;1169.3;;;;-0.8774644;-0.22260287;0.217083;;;;;;;;;;;;;;;
1259.0;1169.3;;;;-0.8655244;-0.22316363;0.21177295;;;;;;;;;;;;;;;
1261.0;1179.4;;;;-0.85616314;-0.22274783;0.20668033;;;;;;;;;;;;;;;
1261.0;1179.4;;;;-0.8451196;-0.22316745;0.20229724;;;;;;;;;;;;;;;
1261.0;1179.4;;;;-0.8350221;-0.22320178;0.1977463;;;;;;;;;;;;;;;
1261.0;1179.4;;;;-0.82410824;-0.22455218;0.19298556;;;;;;;;;;;;;;;
1261.0;1179.4;;;;-0.81438076;-0.22653964;0.18917468;;;;;;;;;;;;;;;
1261.0;1181.0;90260;90212;13535;;;;;;;;;;;;;;;;;;
1261.0;1188.8;;;;;;;;;;;;;;;;;-8.575701;-31.609547;31.23951;;1071.2
1261.0;1188.8;;;;;;;;;;;;;;0.69191563;0.48182622;-0.123111665;;;;;1071.2
1261.0;1188.8;;;;;;;;;;;;;;;;;-5.9053316;-30.70162;40.952023;;1071.2
1261.0;1188.8;;;;;;;;;;;;;;0.6587725;0.46552935;-0.14099552;;;;;1071.2
1261.0;1188.8;;;;;;;;;;;;;;;;;-2.0256662;-27.718435;49.932095;;1080.8
1261.0;1188.8;;;;;;;;;;;;;;0.6040223;0.44917142;-0.12384411;;;;;1080.8
1261.0;1188.8;;;;;;;;;;;;;;;;;2.311777;-24.449142;58.03476;;1080.8
1261.0;1188.8;;;;;;;;;;;;;;0.5481735;0.44563127;-0.063966796;;;;;1080.8
1261.0;1188.8;;;;;;;;;;;;;;;;;5.287332;-22.980438;66.58376;;1090.4
1261.0;1188.8;;;;;;;;;;;;;;0.5055086;0.43391216;-0.0075685903;;;;;1090.4
1261.0;1188.8;;;;;;;;;;;;;;;;;9.334849;-24.246956;75.53331;;1090.4
1261.0;1188.8;;;;;;;;;;;;;;0.47956786;0.41712698;-0.00921659;;;;;1090.4
1261.0;1189.4;;;;-0.8022157;-0.22879031;0.18584825;;;;;;;;;;;;;;;
1261.0;1189.4;;;;-0.789116;-0.2314606;0.18364336;;;;;;;;;;;;;;;
1261.0;1189.4;;;;-0.7771684;-0.23381045;0.18174364;;;;;;;;;;;;;;;
1261.0;1189.4;;;;-0.7649652;-0.2357178;0.18098451;;;;;;;;;;;;;;;
1261.0;1189.4;;;;-0.7523385;-0.23785403;0.18096162;;;;;;;;;;;;;;;
1262.0;1189.7;;;;;;;;;;;;;;;;;13.691366;-24.613178;84.67361;;1100.0
1262.0;1189.7;;;;;;;;;;;;;;0.4737083;0.39814448;-0.046632282;;;;;1100.0
1262.0;1189.7;;;;;;;;;;;;;;;;;17.872402;-21.72155;94.10382;;1100.0
1262.0;1189.7;;;;;;;;;;;;;;0.46070743;0.37018952;-0.090029605;;;;;1100.0
1262.0;1189.7;;;;;;;;;;;;;;;;;22.690512;-17.19718;102.267525;;1109.5
1262.0;1189.7;;;;;;;;;;;;;;0.46681112;0.349559;-0.13104647;;;;;1109.5
1262.0;1189.7;;;;;;;;;;;;;;;;;28.820917;-12.192145;109.820854;;1109.5
1262.0;1189.7;;;;;;;;;;;;;;0.48414564;0.33069858;-0.17560351;;;;;1109.5
1262.0;1189.7;;;;;;;;;;;;;;;;;36.744286;-5.981628;116.38997;;1119.1
1262.0;1189.7;;;;;;;;;;;;;;0.49787897;0.31989503;-0.20654927;;;;;1119.1
1262.0;1189.7;;;;;;;;;;;;;;;;;45.13306;-0.87740713;121.807;;1119.1
1262.0;1189.7;;;;;;;;;;;;;;0.5064241;0.319834;-0.21259193;;;;;1119.1
1262.0;1199.2;;;;-0.73816305;-0.23902515;0.18096162;;;;;;;;;;;;;;;
1262.0;1199.2;;;;-0.7237244;-0.23985675;0.18146516;;;;;;;;;;;;;;;
1262.0;1199.2;;;;-0.70950323;-0.24097064;0.18242647;;;;;;;;;;;;;;;
1262.0;1199.2;;;;-0.69684607;-0.2413216;0.18421938;;;;;;;;;;;;;;;
1262.0;1199.2;;;;-0.68448263;-0.24103168;0.18544008;;;;;;;;;;;;;;;
1262.0;1201.0;106620;106738;13526;;;;;;;;;;;;;;;;;;
1262.0;1207.1;;;;;;;;;;;;;-6;;;;;;;;
1262.0;1207.1;;;;;;;;;;;;;-6;;;;;;;;
1262.0;1207.1;;;;;;;;;;;;;-10;;;;;;;;
1262.0;1207.1;;;;;;;;;;;;;-13;;;;;;;;
1262.0;1207.1;;;;;;;;;;;;;-14;;;;;;;;
1317.0;1209.2;;;;-0.6730462;-0.24042514;0.18585588;;;;;;;;;;;;;;;
1317.0;1209.2;;;;-0.6641961;-0.24100879;0.18620683;;;;;;;;;;;;;;;
1317.0;1209.2;;;;-0.65894705;-0.242466;0.18688203;;;;;;;;;;;;;;;
1317.0;1209.2;;;;-0.65504843;-0.2454758;0.18904117;;;;;;;;;;;;;;;
1317.0;1209.2;;;;-0.6528283;-0.24751666;0.19227222;;;;;;;;;;;;;;;
1317.0;1219.3;;;;-0.64916617;-0.25032046;0.19663623;;;;;;;;;;;;;;;
1317.0;1219.3;;;;-0.6481133;-0.25267795;0.20025638;;;;;;;;;;;;;;;
1317.0;1219.3;;;;-0.648552;-0.25680545;0.2036896;;;;;;;;;;;;;;;
1317.0;1219.3;;;;-0.6473847;-0.26062015;0.20713428;;;;;;;;;;;;;;;
1317.0;1219.3;;;;-0.6443024;-0.2651253;0.21083072;;;;;;;;;;;;;;;
1317.0;1221.1;123000;123039;13524;;;;;;;;;;;;;;;;;;
1317.0;1229.4;;;;-0.6401978;-0.2695351;0.21335605;;;;;;;;;;;;;;;
1317.0;1229.4;;;;-0.6364251;-0.27380374;0.21623233;;;;;;;;;;;;;;;
1317.0;1229.4;;;;-0.6317368;-0.27772906;0.2178841;;;;;;;;;;;;;;;
1317.0;1229.4;;;;-0.6267815;-0.28148654;0.22015384;;;;;;;;;;;;;;;
1317.0;1229.4;;;;-0.6222878;-0.28344348;0.2225571;;;;;;;;;;;;;;;
1317.0;1239.6;;;;-0.61900336;-0.28617862;0.22270969;;;;;;;;;;;;;;;
1317.0;1239.6;;;;-0.61419684;-0.28916553;0.22430804;;;;;;;;;;;;;;;
1317.0;1239.6;;;;-0.6063767;-0.2912598;0.22533801;;;;;;;;;;;;;;;
1317.0;1239.6;;;;-0.5984917;-0.29233173;0.22586063;;;;;;;;;;;;;;;
1317.0;1239.6;;;;-0.5907517;-0.29252246;0.22593692;;;;;;;;;;;;;;;
1320.0;1241.4;139415;139483;13537;;;;;;;;;;;;;;;;;;
1320.0;1241.9;;;;;;;;;;;;;;;;;53.4608;0.79348123;124.56511;;1128.8
1320.0;1241.9;;;;;;;;;;;;;;0.5303507;0.32605976;-0.22272408;;;;;1128.8
1320.0;1241.9;;;;;;;;;;;;;;;;;60.022278;2.1820734;124.988556;;1128.8
1320.0;1241.9;;;;;;;;;;;;;;0.5717338;0.3307596;-0.21784112;;;;;1128.8
1320.0;1241.9;;;;;;;;;;;;;;;;;65.019684;3.6126287;124.988556;;1138.5
1320.0;1241.9;;;;;;;;;;;;;;0.62086856;0.35541856;-0.20020142;;;;;1138.5
1320.0;1241.9;;;;;;;;;;;;;;;;;67.876976;3.238777;124.988556;;1138.5
1320.0;1241.9;;;;;;;;;;;;;;0.6639607;0.38660848;-0.17468795;;;;;1138.5
1320.0;1241.9;;;;;;;;;;;;;;;;;68.14401;-0.94225895;124.988556;;1148.1
1320.0;1241.9;;;;;;;;;;;;;;0.6955168;0.4415418;-0.14056826;;;;;1148.1
1320.0;1241.9;;;;;;;;;;;;;;;;;62.532425;-6.366924;124.988556;;1148.1
1320.0;1241.9;;;;;;;;;;;;;;0.7513657;0.5087435;-0.11627552;;;;;1148.1
1321.0;1242.7;;;;;;;;;;;;;;;;;56.134983;-8.857997;124.988556;;1157.7
1321.0;1242.7;;;;;;;;;;;;;;0.81771296;0.56300545;-0.084353164;;;;;1157.7
1321.0;1242.7;;;;;;;;;;;;;;;;;49.52391;-9.109776;124.988556;;1157.7
1321.0;1242.7;;;;;;;;;;;;;;0.8647725;0.59309673;-0.0623188;;;;;1157.7
1321.0;1242.7;;;;;;;;;;;;;;;;;45.4268;-6.2105165;124.988556;;1167.3
1321.0;1242.7;;;;;;;;;;;;;;0.88876003;0.66225165;-0.042786952;;;;;1167.3
1321.0;1242.7;;;;;;;;;;;;;;;;;44.45402;-4.4709616;124.988556;;1167.3
1321.0;1242.7;;;;;;;;;;;;;;0.8825953;0.7041231;-0.060914945;;;;;1167.3
1321.0;1242.7;;;;;;;;;;;;;;;;;47.925507;-4.0437026;124.90463;;1177.0
1321.0;1242.7;;;;;;;;;;;;;;0.86233103;0.7300638;-0.08899198;;;;;1177.0
1321.0;1242.7;;;;;;;;;;;;;;;;;52.117985;-4.272591;123.72967;;1177.0
1321.0;1242.7;;;;;;;;;;;;;;0.812891;0.75014496;-0.131901;;;;;1177.0
1321.0;1247.3;;;;;;;;;;;;;-21;;;;;;;;
1321.0;1247.3;;;;;;;;;;;;;-17;;;;;;;;
1321.0;1247.3;;;;;;;;;;;;;-20;;;;;;;;
1321.0;1247.3;;;;;;;;;;;;;-48;;;;;;;;
1321.0;1247.3;;;;;;;;;;;;;-4;;;;;;;;
1321.0;1249.3;;;;-0.58387;-0.29304507;0.22606662;;;;;;;;;;;;;;;
1321.0;1249.3;;;;-0.57843786;-0.29273608;0.2265816;;;;;;;;;;;;;;;
1321.0;1249.3;;;;-0.57168967;-0.29217914;0.22675326;;;;;;;;;;;;;;;
1321.0;1249.3;;;;-0.5654221;-0.2909775;0.22651675;;;;;;;;;;;;;;;
1321.0;1249.3;;;;-0.55880743;-0.28985217;0.22533038;;;;;;;;;;;;;;;
1376.0;1259.3;;;;-0.55242926;-0.28839877;0.2227669;;;;;;;;;;;;;;;
1376.0;1259.3;;;;-0.54596335;-0.28597263;0.22166827;;;;;;;;;;;;;;;
1376.0;1259.3;;;;-0.5414582;-0.28268817;0.21963885;;;;;;;;;;;;;;;
1376.0;1259.3;;;;-0.5343819;-0.2791405;0.2177811;;;;;;;;;;;;;;;
1376.0;1259.3;;;;-0.52652365;-0.27577594;0.21523288;;;;;;;;;;;;;;;
1376.0;1261.2;155828;155824;13541;;;;;;;;;;;;;;;;;;
1376.0;1269.3;;;;-0.5211716;-0.27316287;0.21128085;;;;;;;;;;;;;;;
1376.0;1269.3;;;;-0.5152932;-0.2710648;0.20733264;;;;;;;;;;;;;;;
1376.0;1269.3;;;;-0.5092812;-0.26803973;0.2050133;;;;;;;;;;;;;;;
1376.0;1269.3;;;;-0.5051537;-0.26511768;0.20352557;;;;;;;;;;;;;;;
1376.0;1269.3;;;;-0.49982458;-0.26208118;0.20103076;;;;;;;;;;;;;;;
1376.0;1279.3;;;;-0.4941216;-0.25914767;0.19602588;;;;;;;;;;;;;;;
1376.0;1279.3;;;;-0.48977667;-0.2566643;0.19023517;;;;;;;;;;;;;;;
1376.0;1279.3;;;;-0.4885102;-0.25433734;0.18307878;;;;;;;;;;;;;;;
1376.0;1279.3;;;;-0.48879248;-0.25243762;0.17712022;;;;;;;;;;;;;;;
1376.0;1279.3;;;;-0.49057394;-0.2506409;0.17084123;;;;;;;;;;;;;;;
1376.0;1281.2;172179;172197;13554;;;;;;;;;;;;;;;;;;
1376.0;1287.3;;;;;;;;;;;;;59;;;;;;;;
1376.0;1287.3;;;;;;;;;;;;;-67;;;;;;;;
1376.0;1287.3;;;;;;;;;;;;;-215;;;;;;;;
1376.0;1287.3;;;;;;;;;;;;;150;;;;;;;;
1376.0;1287.3;;;;;;;;;;;;;1199;;;;;;;;
1379.0;1289.4;;;;-0.49332434;-0.25021747;0.1648102;;;;;;;;;;;;;;;
1379.0;1289.4;;;;-0.4964028;-0.25061038;0.15729524;;;;;;;;;;;;;;;
1379.0;1289.4;;;;-0.5006142;-0.2515221;0.14847948;;;;;;;;;;;;;;;
1379.0;1289.4;;;;-0.5054169;-0.25324252;0.1392441;;;;;;;;;;;;;;;
1379.0;1289.4;;;;-0.512703;-0.25522998;0.12834932;;;;;;;;;;;;;;;
1379.0;1299.5;;;;-0.520794;-0.2570763;0.11822511;;;;;;;;;;;;;;;
1379.0;1299.5;;;;-0.52903754;-0.2596207;0.10918428;;;;;;;;;;;;;;;
1379.0;1299.5;;;;-0.53773886;-0.26220325;0.099533096;;;;;;;;;;;;;;;
1379.0;1299.5;;;;-0.5473481;-0.26422885;0.09082795;;;;;;;;;;;;;;;
1379.0;1299.5;;;;-0.55813223;-0.2656975;0.08110047;;;;;;;;;;;;;;;
1379.0;1301.7;;;;;;;;;;;;;;;;;54.80361;-4.222999;120.84185;;1186.6
1379.0;1301.7;;;;;;;;;;;;;;0.73647267;0.73281044;-0.14917448;;;;;1186.6
1379.0;1301.7;;;;;;;;;;;;;;;;;53.80032;-6.199072;117.275;;1186.6
1379.0;1301.7;;;;;;;;;;;;;;0.66170233;0.6931974;-0.16760765;;;;;1186.6
1379.0;1301.7;;;;;;;;;;;;;;;;;51.839504;-9.670553;112.65526;;1196.3
1379.0;1301.7;;;;;;;;;;;;;;0.59810174;0.64064455;-0.18683432;;;;;1196.3
1379.0;1301.7;;;;;;;;;;;;;;;;;48.200172;-11.864071;105.754265;;1196.3
1379.0;1301.7;;;;;;;;;;;;;;0.5597705;0.613361;-0.17944884;;;;;1196.3
1379.0;1301.7;;;;;;;;;;;;;;;;;42.14606;-11.837367;97.97586;;1205.9
1379.0;1301.7;;;;;;;;;;;;;;0.52308726;0.6144597;-0.15259255;;;;;1205.9
1379.0;1301.7;;;;;;;;;;;;;;;;;32.555622;-12.623219;93.38282;;1205.9
1379.0;1301.7;;;;;;;;;;;;;;0.48695335;0.595172;-0.120365;;;;;1205.9
1379.0;1301.5;188547;188509;13576;;;;;;;;;;;;;;;;;;
1381.0;1302.4;;;;;;;;;;;;;;;;;20.48555;-14.252144;91.29612;;1215.4
1381.0;1302.4;;;;;;;;;;;;;;0.4441664;0.53242594;-0.09576708;;;;;1215.4
1381.0;1302.4;;;;;;;;;;;;;;;;;8.48796;-13.309885;86.84424;;1215.4
1381.0;1302.4;;;;;;;;;;;;;;0.41767633;0.47895747;-0.0336314;;;;;1215.4
1381.0;1302.4;;;;;;;;;;;;;;;;;-4.39848;-5.874813;80.27131;;1225.0
1381.0;1302.4;;;;;;;;;;;;;;0.40894803;0.4577166;0.10968352;;;;;1225.0
1381.0;1302.4;;;;;;;;;;;;;;;;;-19.665363;3.051851;73.1872;;1225.0
1381.0;1302.4;;;;;;;;;;;;;;0.3648793;0.43604848;0.2764977;;;;;1225.0
1381.0;1302.4;;;;;;;;;;;;;;;;;-36.194954;-0.9498886;65.62624;;1234.6
1381.0;1302.4;;;;;;;;;;;;;;0.36494035;0.45448163;0.23798333;;;;;1234.6
1381.0;1302.4;;;;;;;;;;;;;;;;;-48.608356;-3.3684807;56.081573;;1234.6
1381.0;1302.4;;;;;;;;;;;;;;0.4054689;0.54017764;0.12945952;;;;;1234.6
1381.0;1309.4;;;;-0.57220465;-0.26948932;0.070522316;;;;;;;;;;;;;;;
1381.0;1309.4;;;;-0.587143;-0.27432635;0.062240608;;;;;;;;;;;;;;;
1381.0;1309.4;;;;-0.6034661;-0.27975085;0.054435737;;;;;;;;;;;;;;;
1381.0;1309.4;;;;-0.6212731;-0.2842827;0.046810154;;;;;;;;;;;;;;;
1381.0;1309.4;;;;-0.64085776;-0.2891884;0.039646152;;;;;;;;;;;;;;;
1381.0;1316.7;;;;;;;;;;;;;;;;;-53.296764;0.82018495;45.121616;;1244.3
1381.0;1316.7;;;;;;;;;;;;;;0.36085087;0.62465286;0.07702872;;;;;1244.3
1381.0;1316.7;;;;;;;;;;;;;;;;;-43.56136;-7.641072;34.531693;;1244.3
1381.0;1316.7;;;;;;;;;;;;;;0.32984406;0.7201758;0.01782281;;;;;1244.3
1381.0;1316.7;;;;;;;;;;;;;;;;;-22.103031;-25.769066;27.283548;;1254.0
1381.0;1316.7;;;;;;;;;;;;;;0.3872799;0.74599445;-0.09533983;;;;;1254.0
1381.0;1316.7;;;;;;;;;;;;;;;;;-4.9821467;-33.589436;21.41255;;1254.0
1381.0;1316.7;;;;;;;;;;;;;;0.43513292;0.745201;-0.10034486;;;;;1254.0
1381.0;1316.7;;;;;;;;;;;;;;;;;5.1728873;-44.50743;17.853329;;1263.6
1381.0;1316.7;;;;;;;;;;;;;;0.4741966;0.69270915;-0.07916501;;;;;1263.6
1381.0;1316.7;;;;;;;;;;;;;;;;;16.415144;-65.740685;17.40318;;1263.6
1381.0;1316.7;;;;;;;;;;;;;;0.65614796;0.5717948;-0.15710929;;;;;1263.6
1381.0;1319.4;;;;-0.6627236;-0.29418185;0.0321312;;;;;;;;;;;;;;;
1381.0;1319.4;;;;-0.68705374;-0.29892734;0.024543766;;;;;;;;;;;;;;;
1381.0;1319.4;;;;-0.7119866;-0.30235294;0.01924515;;;;;;;;;;;;;;;
1381.0;1319.4;;;;-0.737732;-0.30511096;0.016521456;;;;;;;;;;;;;;;
1381.0;1319.4;;;;-0.76405346;-0.30562595;0.015026094;;;;;;;;;;;;;;;
1381.0;1321.4;204916;204988;13590;;;;;;;;;;;;;;;;;;
1381.0;1327.5;;;;;;;;;;;;;2277;;;;;;;;
1381.0;1327.5;;;;;;;;;;;;;2591;;;;;;;;
1381.0;1327.5;;;;;;;;;;;;;2141;;;;;;;;
1381.0;1327.5;;;;;;;;;;;;;1576;;;;;;;;
1381.0;1327.5;;;;;;;;;;;;;1432;;;;;;;;
1438.0;1329.3;;;;-0.79060376;-0.30534366;0.012893679;;;;;;;;;;;;;;;
1438.0;1329.3;;;;-0.81733716;-0.3038788;0.01249695;;;;;;;;;;;;;;;
1438.0;1329.3;;;;-0.84560025;-0.30281833;0.011215211;;;;;;;;;;;;;;;
1438.0;1329.3;;;;-0.8757173;-0.3018494;0.008861543;;;;;;;;;;;;;;;
1438.0;1329.3;;;;-0.9064332;-0.3005257;0.0067482004;;;;;;;;;;;;;;;
1438.0;1339.3;;;;-0.94075024;-0.29911807;0.0049514775;;;;;;;;;;;;;;;
1438.0;1339.3;;;;-0.979725;-0.2973328;0.004074097;;;;;;;;;;;;;;;
1438.0;1339.3;;;;-1.0216638;-0.29366687;0.0032005315;;;;;;;;;;;;;;;
1438.0;1339.3;;;;-1.0679551;-0.28943637;0.0015487673;;;;;;;;;;;;;;;
1438.0;1339.3;;;;-1.1197053;-0.2837105;9.1934216E-4;;;;;;;;;;;;;;;
1438.0;1341.4;221222;221302;13600;;;;;;;;;;;;;;;;;;
1438.0;1349.4;;;;-1.1757928;-0.276104;-0.0014915469;;;;;;;;;;;;;;;
1438.0;1349.4;;;;-1.2357103;-0.26741412;-0.0050430303;;;;;;;;;;;;;;;
1438.0;1349.4;;;;-1.297558;-0.25799182;-0.010200501;;;;;;;;;;;;;;;
1438.0;1349.4;;;;-1.357998;-0.24824527;-0.020591738;;;;;;;;;;;;;;;
1438.0;1349.4;;;;-1.4184991;-0.23739246;-0.026794437;;;;;;;;;;;;;;;
1438.0;1359.5;;;;-1.4779855;-0.22648624;-0.032306675;;;;;;;;;;;;;;;
1438.0;1359.5;;;;-1.5326922;-0.2120972;-0.035102848;;;;;;;;;;;;;;;
1438.0;1359.5;;;;-1.5861628;-0.19646838;-0.038932804;;;;;;;;;;;;;;;
1438.0;1359.5;;;;-1.6329043;-0.17987444;-0.0448494;;;;;;;;;;;;;;;
1438.0;1359.5;;;;-1.6709826;-0.16149141;-0.049968727;;;;;;;;;;;;;;;
1442.0;1361.6;237733;237658;13618;;;;;;;;;;;;;;;;;;
1442.0;1362.2;;;;;;;;;;;;;;;;;33.589436;-59.19065;22.03055;;1273.3
1442.0;1362.2;;;;;;;;;;;;;;0.8896756;0.36445203;-0.07202368;;;;;1273.3
1442.0;1362.2;;;;;;;;;;;;;;;;;46.853542;-25.910215;30.228582;;1273.3
1442.0;1362.2;;;;;;;;;;;;;;0.9551683;0.16138189;0.21076083;;;;;1273.3
1442.0;1362.2;;;;;;;;;;;;;;;;;46.69332;-21.19892;36.309395;;1282.9
1442.0;1362.2;;;;;;;;;;;;;;1.0444044;0.06103702;0.16394544;;;;;1282.9
1442.0;1362.2;;;;;;;;;;;;;;;;;37.812435;-56.07013;40.948208;;1282.9
1442.0;1362.2;;;;;;;;;;;;;;1.2049317;0.06695761;-0.28101444;;;;;1282.9
1442.0;1362.2;;;;;;;;;;;;;;;;;32.41066;-106.353195;41.81799;;1292.5
1442.0;1362.2;;;;;;;;;;;;;;1.3497117;0.21423994;-0.8532365;;;;;1292.5
1442.0;1362.2;;;;;;;;;;;;;;;;;22.526474;-124.79781;33.394882;;1292.5
1442.0;1362.2;;;;;;;;;;;;;;1.5227516;0.52162236;-1.3817561;;;;;1292.5
1442.0;1367.6;;;;;;;;;;;;;2095;;;;;;;;
1442.0;1367.6;;;;;;;;;;;;;2196;;;;;;;;
1442.0;1367.6;;;;;;;;;;;;;-2083;;;;;;;;
1442.0;1367.6;;;;;;;;;;;;;-11411;;;;;;;;
1442.0;1367.6;;;;;;;;;;;;;-19221;;;;;;;;
1442.0;1369.5;;;;-1.7027705;-0.13941194;-0.052478798;;;;;;;;;;;;;;;
1442.0;1369.5;;;;-1.728924;-0.11550523;-0.051536568;;;;;;;;;;;;;;;
1442.0;1369.5;;;;-1.7500231;-0.09212495;-0.04772187;;;;;;;;;;;;;;;
1442.0;1369.5;;;;-1.7623942;-0.068962105;-0.040939335;;;;;;;;;;;;;;;
1442.0;1369.5;;;;-1.7718623;-0.044174198;-0.03406525;;;;;;;;;;;;;;;
1499.0;1376.9;;;;;;;;;;;;;;;;;-5.8442945;-108.14234;19.619585;;1302.2
1499.0;1376.9;;;;;;;;;;;;;;1.5806757;0.8080081;-1.4122136;;;;;1302.2
1499.0;1376.9;;;;;;;;;;;;;;;;;-42.157505;-51.721245;3.6622212;;1302.2
1499.0;1376.9;;;;;;;;;;;;;;1.2968535;0.8733787;-0.9371624;;;;;1302.2
1499.0;1376.9;;;;;;;;;;;;;;;;;-68.43012;-24.437696;-9.090701;;1311.9
1499.0;1376.9;;;;;;;;;;;;;;0.87240213;0.8751488;-0.42988372;;;;;1311.9
1499.0;1376.9;;;;;;;;;;;;;;;;;-85.18479;-46.24317;-13.790551;;1311.9
1499.0;1376.9;;;;;;;;;;;;;;0.92660296;0.6860561;-0.2224189;;;;;1311.9
1499.0;1376.9;;;;;;;;;;;;;;;;;-82.125305;-65.03494;-18.951996;;1321.3
1499.0;1376.9;;;;;;;;;;;;;;1.1708121;0.52375865;-0.32978302;;;;;1321.3
1499.0;1376.9;;;;;;;;;;;;;;;;;-70.00183;-38.335064;-23.182623;;1321.3
1499.0;1376.9;;;;;;;;;;;;;;1.1716056;0.38709676;-0.32447278;;;;;1321.3
1499.0;1379.4;;;;-1.7734416;-0.01790619;-0.026782993;;;;;;;;;;;;;;;
1499.0;1379.4;;;;-1.7702792;0.008495332;-0.015594484;;;;;;;;;;;;;;;
1499.0;1379.4;;;;-1.7628443;0.036682133;-0.002838135;;;;;;;;;;;;;;;
1499.0;1379.4;;;;-1.7524035;0.06495667;0.011215211;;;;;;;;;;;;;;;
1499.0;1379.4;;;;-1.7378275;0.09351731;0.026046757;;;;;;;;;;;;;;;
1499.0;1381.6;254047;254097;13629;;;;;;;;;;;;;;;;;;
1499.0;1389.4;;;;-1.7209017;0.12425996;0.040882114;;;;;;;;;;;;;;;
1499.0;1389.4;;;;-1.7037013;0.15538408;0.05492402;;;;;;;;;;;;;;;
1499.0;1389.4;;;;-1.6874087;0.18737413;0.06892777;;;;;;;;;;;;;;;
1499.0;1389.4;;;;-1.6723673;0.2198601;0.083564766;;;;;;;;;;;;;;;
1499.0;1389.4;;;;-1.6567652;0.24704364;0.09857942;;;;;;;;;;;;;;;
1501.0;1399.4;;;;-1.6385539;0.26691058;0.11501314;;;;;;;;;;;;;;;
1501.0;1399.4;;;;-1.6226923;0.282383;0.13130952;;;;;;;;;;;;;;;
1501.0;1399.4;;;;-1.6099589;0.2937546;0.14559175;;;;;;;;;;;;;;;
1501.0;1399.4;;;;-1.600754;0.30025867;0.15700532;;;;;;;;;;;;;;;
1501.0;1399.4;;;;-1.5941546;0.30215076;0.16745378;;;;;;;;;;;;;;;
1501.0;1401.6;262143;262143;13629;;;;;;;;;;;;;;;;;;
1501.0;1407.7;;;;;;;;;;;;;-18055;;;;;;;;
1501.0;1407.7;;;;;;;;;;;;;-8698;;;;;;;;
1501.0;1407.7;;;;;;;;;;;;;707;;;;;;;;
1501.0;1407.7;;;;;;;;;;;;;4380;;;;;;;;
1501.0;1407.7;;;;;;;;;;;;;4021;;;;;;;;
1501.0;1409.5;;;;-1.587601;0.29979327;0.17792894;;;;;;;;;;;;;;;
1501.0;1409.5;;;;-1.5816958;0.29291156;0.18984607;;;;;;;;;;;;;;;
1501.0;1409.5;;;;-1.5790217;0.2835236;0.20214084;;;;;;;;;;;;;;;
1501.0;1409.5;;;;-1.5805895;0.27113345;0.2120972;;;;;;;;;;;;;;;
1501.0;1409.5;;;;-1.5854838;0.25590518;0.21933368;;;;;;;;;;;;;;;
1501.0;1419.6;;;;-1.5942614;0.23838428;0.22653583;;;;;;;;;;;;;;;
1501.0;1419.6;;;;-1.6073458;0.22064212;0.23372653;;;;;;;;;;;;;;;
1501.0;1419.6;;;;-1.6222498;0.2034035;0.24057391;;;;;;;;;;;;;;;
1501.0;1419.6;;;;-1.6380961;0.1891785;0.2478905;;;;;;;;;;;;;;;
1501.0;1419.6;;;;-1.6543162;0.1778145;0.25383;;;;;;;;;;;;;;;
1501.0;1421.8;262143;262143;13615;;;;;;;;;;;;;;;;;;
1502.0;1429.6;;;;-1.6688578;0.17009355;0.25801852;;;;;;;;;;;;;;;
1502.0;1429.6;;;;-1.6811221;0.166111;0.26095203;;;;;;;;;;;;;;;
1502.0;1429.6;;;;-1.6901171;0.16662218;0.26246265;;;;;;;;;;;;;;;
1502.0;1429.6;;;;-1.6967967;0.16976167;0.26142886;;;;;;;;;;;;;;;
1502.0;1429.6;;;;-1.7008631;0.17559816;0.25979236;;;;;;;;;;;;;;;
1502.0;1437.2;;;;;;;;;;;;;;;;;-45.888393;-1.2665181;-24.643698;;1330.9
1502.0;1437.2;;;;;;;;;;;;;;1.0730919;0.27027193;-0.13129063;;;;;1330.9
1502.0;1437.2;;;;;;;;;;;;;;;;;-15.13718;18.787958;-25.196844;;1330.9
1502.0;1437.2;;;;;;;;;;;;;;1.0431837;0.22492142;-0.029969176;;;;;1330.9
1502.0;1437.2;;;;;;;;;;;;;;;;;5.6154056;30.045471;-22.31666;;1340.6
1502.0;1437.2;;;;;;;;;;;;;;0.99343854;0.123111665;-0.049195837;;;;;1340.6
1502.0;1437.2;;;;;;;;;;;;;;;;;11.234626;36.9541;-16.80807;;1340.6
1502.0;1437.2;;;;;;;;;;;;;;0.89779353;0.019775994;-0.02087466;;;;;1340.6
1502.0;1437.2;;;;;;;;;;;;;;;;;10.166478;28.03125;-10.349589;;1350.2
1502.0;1437.2;;;;;;;;;;;;;;0.8542741;0.003234962;-0.026734214;;;;;1350.2
1502.0;1437.2;;;;;;;;;;;;;;;;;10.902738;5.6573687;-0.8163701;;1350.2
1502.0;1437.2;;;;;;;;;;;;;;0.8982818;0.02600177;-0.12750633;;;;;1350.2
1503.0;1438.0;;;;;;;;;;;;;;;;;13.908811;-19.96292;10.608997;;1359.8
1503.0;1438.0;;;;;;;;;;;;;;0.9869686;0.13489181;-0.25049594;;;;;1359.8
1503.0;1438.0;;;;;;;;;;;;;;;;;13.370922;-53.582874;22.221289;;1359.8
1503.0;1438.0;;;;;;;;;;;;;;1.1512803;0.31891844;-0.45454267;;;;;1359.8
1503.0;1438.0;;;;;;;;;;;;;;;;;7.316813;-88.66008;33.61614;;1369.5
1503.0;1438.0;;;;;;;;;;;;;;1.3529465;0.48915067;-0.8366344;;;;;1369.5
1503.0;1438.0;;;;;;;;;;;;;;;;;-5.3216653;-86.890015;38.556324;;1369.5
1503.0;1438.0;;;;;;;;;;;;;;1.5164037;0.6979583;-1.1237526;;;;;1369.5
1503.0;1438.0;;;;;;;;;;;;;;;;;-28.378399;-44.28617;30.270546;;1379.0
1503.0;1438.0;;;;;;;;;;;;;;1.7150792;0.89584035;-1.013947;;;;;1379.0
1503.0;1438.0;;;;;;;;;;;;;;;;;-39.754173;-4.9783316;4.623554;;1379.0
1503.0;1438.0;;;;;;;;;;;;;;1.9634999;1.1051363;-0.69179356;;;;;1379.0
1503.0;1439.5;;;;-1.7016299;0.18354799;0.25820163;;;;;;;;;;;;;;;
1503.0;1439.5;;;;-1.7000811;0.19252017;0.2558594;;;;;;;;;;;;;;;
1503.0;1439.5;;;;-1.6967089;0.2030907;0.25275424;;;;;;;;;;;;;;;
1503.0;1439.5;;;;-1.6916773;0.2138634;0.24813464;;;;;;;;;;;;;;;
1503.0;1439.5;;;;-1.6848223;0.22431949;0.24378207;;;;;;;;;;;;;;;
1503.0;1441.8;262143;262143;13610;;;;;;;;;;;;;;;;;;
1503.0;1447.9;;;;;;;;;;;;;3847;;;;;;;;
1503.0;1447.9;;;;;;;;;;;;;4397;;;;;;;;
1503.0;1447.9;;;;;;;;;;;;;4376;;;;;;;;
1503.0;1447.9;;;;;;;;;;;;;4025;;;;;;;;
1503.0;1447.9;;;;;;;;;;;;;3735;;;;;;;;
1559.0;1449.5;;;;-1.6759989;0.23376468;0.23830798;;;;;;;;;;;;;;;
1559.0;1449.5;;;;-1.6651652;0.24291614;0.23285297;;;;;;;;;;;;;;;
1559.0;1449.5;;;;-1.6508334;0.2506943;0.22733691;;;;;;;;;;;;;;;
1559.0;1449.5;;;;-1.6339877;0.25698856;0.22231677;;;;;;;;;;;;;;;
1559.0;1449.5;;;;-1.6141436;0.2623749;0.21823123;;;;;;;;;;;;;;;
1559.0;1459.2;;;;-1.5904543;0.2674637;0.21434787;;;;;;;;;;;;;;;
1559.0;1459.2;;;;-1.5647585;0.2711487;0.20981601;;;;;;;;;;;;;;;
1559.0;1459.2;;;;-1.5357707;0.2757378;0.20713809;;;;;;;;;;;;;;;
1559.0;1459.2;;;;-1.504391;0.2783623;0.2022858;;;;;;;;;;;;;;;
1559.0;1459.2;;;;-1.4712907;0.27987292;0.19741061;;;;;;;;;;;;;;;
1559.0;1461.6;262143;262143;13611;;;;;;;;;;;;;;;;;;
1559.0;1469.4;;;;-1.4354707;0.28011706;0.19334796;;;;;;;;;;;;;;;
1559.0;1469.4;;;;-1.399479;0.27990344;0.18906406;;;;;;;;;;;;;;;
1559.0;1469.4;;;;-1.36652;0.2788315;0.18403627;;;;;;;;;;;;;;;
1559.0;1469.4;;;;-1.3346559;0.276001;0.18063737;;;;;;;;;;;;;;;
1559.0;1469.4;;;;-1.3037149;0.27117923;0.17699434;;;;;;;;;;;;;;;
1559.0;1479.5;;;;-1.2724763;0.2652245;0.17340471;;;;;;;;;;;;;;;
1559.0;1479.5;;;;-1.2446824;0.2589722;0.16927339;;;;;;;;;;;;;;;
1559.0;1479.5;;;;-1.2173654;0.25198367;0.16571428;;;;;;;;;;;;;;;
1559.0;1479.5;;;;-1.1918184;0.24476245;0.16157152;;;;;;;;;;;;;;;
1559.0;1479.5;;;;-1.1667138;0.23703387;0.15694048;;;;;;;;;;;;;;;
1561.0;1481.9;262143;262143;13609;;;;;;;;;;;;;;;;;;
1561.0;1487.9;;;;;;;;;;;;;3306;;;;;;;;
1561.0;1487.9;;;;;;;;;;;;;2786;;;;;;;;
1561.0;1487.9;;;;;;;;;;;;;2452;;;;;;;;
1561.0;1487.9;;;;;;;;;;;;;2321;;;;;;;;
1561.0;1487.9;;;;;;;;;;;;;2059;;;;;;;;
1561.0;1489.5;;;;-1.1450197;0.22893909;0.15153123;;;;;;;;;;;;;;;
1561.0;1489.5;;;;-1.1235276;0.2202721;0.14640047;;;;;;;;;;;;;;;
1561.0;1489.5;;;;-1.1035959;0.21250919;0.14063264;;;;;;;;;;;;;;;
1561.0;1489.5;;;;-1.0835191;0.20469287;0.13543321;;;;;;;;;;;;;;;
1561.0;1489.5;;;;-1.0644723;0.1966286;0.12925722;;;;;;;;;;;;;;;
1561.0;1497.5;;;;;;;;;;;;;;;;;-40.776543;12.546922;-22.152622;;1388.6
1561.0;1497.5;;;;;;;;;;;;;;1.996765;1.3803521;-0.36072877;;;;;1388.6
1561.0;1497.5;;;;;;;;;;;;;;;;;-41.222878;6.939146;-24.315622;;1388.6
1561.0;1497.5;;;;;;;;;;;;;;1.919187;1.6136967;-0.2446974;;;;;1388.6
1561.0;1497.5;;;;;;;;;;;;;;;;;-43.72921;14.221625;3.627888;;1398.1
1561.0;1497.5;;;;;;;;;;;;;;1.1959593;0.9804987;-0.20545061;;;;;1398.1
1561.0;1497.5;;;;;;;;;;;;;;;;;-48.654137;12.99707;5.1499987;;1398.1
1561.0;1497.5;;;;;;;;;;;;;;1.0278023;0.74617755;0.012512589;;;;;1398.1
1561.0;1497.5;;;;;;;;;;;;;;;;;-51.423687;-3.5515916;0.3624073;;1407.7
1561.0;1497.5;;;;;;;;;;;;;;1.1110568;0.61970884;-0.09955138;;;;;1407.7
1561.0;1497.5;;;;;;;;;;;;;;;;;-55.227055;0.8354442;-1.0071108;;1407.7
1561.0;1497.5;;;;;;;;;;;;;;1.1111178;0.5294351;-0.07916501;;;;;1407.7
1617.0;1498.4;;;;;;;;;;;;;;;;;-59.41191;4.676962;-0.11825922;;1417.4
1617.0;1498.4;;;;;;;;;;;;;;1.0647298;0.44129765;-0.0077517014;;;;;1417.4
1617.0;1498.4;;;;;;;;;;;;;;;;;-59.842983;0.2784814;2.4071476;;1417.4
1617.0;1498.4;;;;;;;;;;;;;;1.0467238;0.34705648;-3.051851E-4;;;;;1417.4
1617.0;1498.4;;;;;;;;;;;;;;;;;-53.449356;-6.3364053;6.282998;;1427.0
1617.0;1498.4;;;;;;;;;;;;;;1.0481887;0.27216408;-0.043702506;;;;;1427.0
1617.0;1498.4;;;;;;;;;;;;;;;;;-43.53084;-12.691885;11.0400715;;1427.0
1617.0;1498.4;;;;;;;;;;;;;;1.0641193;0.21570483;-0.15021211;;;;;1427.0
1617.0;1498.4;;;;;;;;;;;;;;;;;-33.112583;-15.903959;17.78466;;1436.6
1617.0;1498.4;;;;;;;;;;;;;;1.0936003;0.1767632;-0.2927946;;;;;1436.6
1617.0;1498.4;;;;;;;;;;;;;;;;;-24.552141;-13.790551;26.337475;;1436.6
1617.0;1498.4;;;;;;;;;;;;;;1.1067842;0.13409834;-0.43873408;;;;;1436.6
1617.0;1499.4;;;;-1.0493356;0.18861774;0.12387468;;;;;;;;;;;;;;;
1617.0;1499.4;;;;-1.0338517;0.18120958;0.11897279;;;;;;;;;;;;;;;
1617.0;1499.4;;;;-1.0181009;0.17446901;0.11487199;;;;;;;;;;;;;;;
1617.0;1499.4;;;;-1.0015298;0.16753007;0.111949936;;;;;;;;;;;;;;;
1617.0;1499.4;;;;-0.98793805;0.16144182;0.110145584;;;;;;;;;;;;;;;
1617.0;1501.9;262143;262143;13592;;;;;;;;;;;;;;;;;;
1617.0;1509.5;;;;-0.9761392;0.15549852;0.10816194;;;;;;;;;;;;;;;
1617.0;1509.5;;;;-0.9625131;0.14999773;0.10602571;;;;;;;;;;;;;;;
1617.0;1509.5;;;;-0.9485475;0.14534761;0.1045952;;;;;;;;;;;;;;;
1617.0;1509.5;;;;-0.9370042;0.14086534;0.10315706;;;;;;;;;;;;;;;
1617.0;1509.5;;;;-0.9240991;0.13656236;0.10311128;;;;;;;;;;;;;;;
1622.0;1519.5;;;;-0.91170514;0.13369371;0.1019211;;;;;;;;;;;;;;;
1622.0;1519.5;;;;-0.9009744;0.13041689;0.10021974;;;;;;;;;;;;;;;
1622.0;1519.5;;;;-0.8897058;0.12761308;0.09876253;;;;;;;;;;;;;;;
1622.0;1519.5;;;;-0.8784715;0.12387468;0.09880449;;;;;;;;;;;;;;;
1622.0;1519.5;;;;-0.8663255;0.12055589;0.10001375;;;;;;;;;;;;;;;
1622.0;1522.0;262143;262143;13590;;;;;;;;;;;;;;;;;;
1622.0;1528.0;;;;;;;;;;;;;1560;;;;;;;;
1622.0;1528.0;;;;;;;;;;;;;1028;;;;;;;;
1622.0;1528.0;;;;;;;;;;;;;771;;;;;;;;
1622.0;1528.0;;;;;;;;;;;;;770;;;;;;;;
1622.0;1528.0;;;;;;;;;;;;;593;;;;;;;;
1622.0;1529.6;;;;-0.85530484;0.11767961;0.10115434;;;;;;;;;;;;;;;
1622.0;1529.6;;;;-0.8444444;0.115806594;0.10294725;;;;;;;;;;;;;;;
1622.0;1529.6;;;;-0.83417904;0.11363222;0.10411455;;;;;;;;;;;;;;;
1622.0;1529.6;;;;-0.8223916;0.11120607;0.10397722;;;;;;;;;;;;;;;
1622.0;1529.6;;;;-0.81131756;0.10850908;0.10426332;;;;;;;;;;;;;;;
1622.0;1539.7;;;;-0.7995683;0.106296554;0.10519029;;;;;;;;;;;;;;;
1622.0;1539.7;;;;-0.78771985;0.10469057;0.106742874;;;;;;;;;;;;;;;
1622.0;1539.7;;;;-0.77612317;0.102260605;0.10870744;;;;;;;;;;;;;;;
1622.0;1539.7;;;;-0.7667428;0.100791946;0.11130525;;;;;;;;;;;;;;;
1622.0;1539.7;;;;-0.7577554;0.09926607;0.11444093;;;;;;;;;;;;;;;
1624.0;1542.5;;;;;;;;;;;;;;;;;-17.082735;-4.974517;34.710987;;1446.3
1624.0;1542.5;;;;;;;;;;;;;;1.0903043;0.091372415;-0.521012;;;;;1446.3
1624.0;1542.5;;;;;;;;;;;;;;;;;-10.391553;7.7860346;41.062653;;1446.3
1624.0;1542.5;;;;;;;;;;;;;;1.0311594;0.047853023;-0.51319927;;;;;1446.3
1624.0;1542.5;;;;;;;;;;;;;;;;;-3.7270732;16.857662;43.321026;;1455.9
1624.0;1542.5;;;;;;;;;;;;;;0.94766074;0.038575396;-0.46186712;;;;;1455.9
1624.0;1542.5;;;;;;;;;;;;;;;;;1.167333;19.146551;43.843655;;1455.9
1624.0;1542.5;;;;;;;;;;;;;;0.87258524;0.060121465;-0.43305764;;;;;1455.9
1624.0;1542.5;;;;;;;;;;;;;;;;;3.7270732;16.991179;43.454544;;1465.4
1624.0;1542.5;;;;;;;;;;;;;;0.80886257;0.08148442;-0.4293344;;;;;1465.4
1624.0;1542.5;;;;;;;;;;;;;;;;;5.3750725;13.267922;42.100285;;1465.4
1624.0;1542.5;;;;;;;;;;;;;;0.774865;0.1307413;-0.42530596;;;;;1465.4
1624.0;1542.3;262143;262143;13588;;;;;;;;;;;;;;;;;;
1624.0;1549.9;;;;;;;;;;;;;;;;;6.859035;11.8564415;40.509506;;1475.0
1624.0;1549.9;;;;;;;;;;;;;;0.7779168;0.20752586;-0.3902707;;;;;1475.0
1624.0;1549.9;;;;;;;;;;;;;;;;;9.876553;11.925108;39.79232;;1475.0
1624.0;1549.9;;;;;;;;;;;;;;0.81014436;0.2710654;-0.34418774;;;;;1475.0
1624.0;1549.9;;;;;;;;;;;;;;;;;14.7633295;13.008514;38.87295;;1484.6
1624.0;1549.9;;;;;;;;;;;;;;0.82723475;0.3091525;-0.31134984;;;;;1484.6
1624.0;1549.9;;;;;;;;;;;;;;;;;21.149328;15.480514;36.427654;;1484.6
1624.0;1549.9;;;;;;;;;;;;;;0.81423384;0.36396375;-0.26123846;;;;;1484.6
1624.0;1549.9;;;;;;;;;;;;;;;;;27.649769;16.533403;33.394882;;1494.2
1624.0;1549.9;;;;;;;;;;;;;;0.802942;0.4239021;-0.22333445;;;;;1494.2
1624.0;1549.9;;;;;;;;;;;;;;;;;33.883175;17.929625;29.59914;;1494.2
1624.0;1549.9;;;;;;;;;;;;;;0.7889035;0.496292;-0.18811609;;;;;1494.2
1624.0;1549.7;;;;-0.74737555;0.09781267;0.1175995;;;;;;;;;;;;;;;
1624.0;1549.7;;;;-0.73684317;0.0958748;0.12159349;;;;;;;;;;;;;;;
1624.0;1549.7;;;;-0.7276917;0.0940323;0.12591936;;;;;;;;;;;;;;;
1624.0;1549.7;;;;-0.71955115;0.09207917;0.13089754;;;;;;;;;;;;;;;
1624.0;1549.7;;;;-0.7104798;0.090450294;0.13598634;;;;;;;;;;;;;;;
1624.0;1559.6;;;;-0.7018357;0.088607796;0.14096452;;;;;;;;;;;;;;;
1624.0;1559.6;;;;-0.69307715;0.08689881;0.14499666;;;;;;;;;;;;;;;
1624.0;1559.6;;;;-0.6843377;0.08530427;0.1486168;;;;;;;;;;;;;;;
1624.0;1559.6;;;;-0.675911;0.083629616;0.15167238;;;;;;;;;;;;;;;
1624.0;1559.6;;;;-0.66792303;0.08200074;0.15493394;;;;;;;;;;;;;;;
1624.0;1562.2;262143;262143;13585;;;;;;;;;;;;;;;;;;
1677.0;1568.2;;;;;;;;;;;;;-89;;;;;;;;
1677.0;1568.2;;;;;;;;;;;;;-1094;;;;;;;;
1677.0;1568.2;;;;;;;;;;;;;-1670;;;;;;;;
1677.0;1568.2;;;;;;;;;;;;;-1400;;;;;;;;
1677.0;1568.2;;;;;;;;;;;;;-642;;;;;;;;
1677.0;1569.7;;;;-0.65917593;0.07957078;0.15806581;;;;;;;;;;;;;;;
1677.0;1569.7;;;;-0.6505967;0.077098854;0.16107942;;;;;;;;;;;;;;;
1677.0;1569.7;;;;-0.6421166;0.075393684;0.16460039;;;;;;;;;;;;;;;
1677.0;1569.7;;;;-0.6334458;0.07411576;0.16796114;;;;;;;;;;;;;;;
1677.0;1569.7;;;;-0.62559134;0.07265473;0.17151643;;;;;;;;;;;;;;;
1677.0;1579.5;;;;-0.6177369;0.07276154;0.17516328;;;;;;;;;;;;;;;
1677.0;1579.5;;;;-0.6097947;0.07195664;0.17742158;;;;;;;;;;;;;;;
1677.0;1579.5;;;;-0.6017571;0.07199479;0.17950822;;;;;;;;;;;;;;;
1677.0;1579.5;;;;-0.59363943;0.071918495;0.18114091;;;;;;;;;;;;;;;
1677.0;1579.5;;;;-0.5862351;0.07186509;0.18241884;;;;;;;;;;;;;;;
1677.0;1582.2;262143;262143;13584;;;;;;;;;;;;;;;;;;
1677.0;1589.7;;;;-0.5795632;0.07158662;0.18302919;;;;;;;;;;;;;;;
1677.0;1589.7;;;;-0.5723;0.071155556;0.1832123;;;;;;;;;;;;;;;
1677.0;1589.7;;;;-0.56589514;0.070896156;0.18285371;;;;;;;;;;;;;;;
1677.0;1589.7;;;;-0.559208;0.07011414;0.18196107;;;;;;;;;;;;;;;
1677.0;1589.7;;;;-0.5517121;0.06991959;0.1811371;;;;;;;;;;;;;;;
1679.0;1599.8;;;;-0.54497916;0.06898499;0.1800194;;;;;;;;;;;;;;;
1679.0;1599.8;;;;-0.5379258;0.06838227;0.17930605;;;;;;;;;;;;;;;
1679.0;1599.8;;;;-0.5313874;0.068077095;0.17842104;;;;;;;;;;;;;;;
1679.0;1599.8;;;;-0.52470404;0.06716538;0.17611696;;;;;;;;;;;;;;;
1679.0;1599.8;;;;-0.5194283;0.066169746;0.17434694;;;;;;;;;;;;;;;
1679.0;1602.6;;;;;;;;;;;;;;;;;38.78903;19.436476;25.040436;;1503.8
1679.0;1602.6;;;;;;;;;;;;;;0.76216924;0.5717338;-0.15558337;;;;;1503.8
1679.0;1602.6;;;;;;;;;;;;;;;;;41.489914;19.993439;20.390179;;1503.8
1679.0;1602.6;;;;;;;;;;;;;;0.72310555;0.6533403;-0.15601063;;;;;1503.8
1679.0;1602.6;;;;;;;;;;;;;;;;;41.81799;20.249031;16.346478;;1513.4
1679.0;1602.6;;;;;;;;;;;;;;0.68459123;0.7193823;-0.16608173;;;;;1513.4
1679.0;1602.6;;;;;;;;;;;;;;;;;40.208134;21.202734;12.985626;;1513.4
1679.0;1602.6;;;;;;;;;;;;;;0.641438;0.75716424;-0.16602069;;;;;1513.4
1679.0;1602.6;;;;;;;;;;;;;;;;;37.961212;24.960325;10.475478;;1522.9
1679.0;1602.6;;;;;;;;;;;;;;0.58571124;0.7546617;-0.13177893;;;;;1522.9
1679.0;1602.6;;;;;;;;;;;;;;;;;36.26362;30.144657;9.117405;;1522.9
1679.0;1602.6;;;;;;;;;;;;;;0.5263833;0.7198706;-0.06701865;;;;;1522.9
1679.0;1602.4;262143;262143;13586;;;;;;;;;;;;;;;;;;
1679.0;1608.4;;;;;;;;;;;;;64;;;;;;;;
1679.0;1608.4;;;;;;;;;;;;;451;;;;;;;;
1679.0;1608.4;;;;;;;;;;;;;741;;;;;;;;
1679.0;1608.4;;;;;;;;;;;;;1143;;;;;;;;
1679.0;1608.4;;;;;;;;;;;;;1465;;;;;;;;
1737.0;1609.7;;;;-0.5138512;0.06501389;0.17235948;;;;;;;;;;;;;;;
1737.0;1609.7;;;;-0.5083085;0.06376267;0.16997148;;;;;;;;;;;;;;;
1737.0;1609.7;;;;-0.5029374;0.06287766;0.16756059;;;;;;;;;;;;;;;
1737.0;1609.7;;;;-0.49769217;0.062019356;0.16532518;;;;;;;;;;;;;;;
1737.0;1609.7;;;;-0.49311453;0.061244972;0.16352464;;;;;;;;;;;;;;;
1737.0;1618.1;;;;;;;;;;;;;;;;;34.726246;30.59862;8.934294;;1532.6
1737.0;1618.1;;;;;;;;;;;;;;0.50465405;0.65865046;-0.08185064;;;;;1532.6
1737.0;1618.1;;;;;;;;;;;;;;;;;32.8074;31.678215;6.859035;;1532.6
1737.0;1618.1;;;;;;;;;;;;;;0.50148016;0.6219672;-0.13006988;;;;;1532.6
1737.0;1618.1;;;;;;;;;;;;;;;;;29.515215;35.49684;4.4289985;;1542.2
1737.0;1618.1;;;;;;;;;;;;;;0.48597676;0.5767388;-0.13592944;;;;;1542.2
1737.0;1618.1;;;;;;;;;;;;;;;;;27.363659;37.633137;2.7695546;;1542.2
1737.0;1618.1;;;;;;;;;;;;;;0.4761498;0.5121006;-0.10834071;;;;;1542.2
1737.0;1618.1;;;;;;;;;;;;;;;;;27.115696;37.430954;1.22837;;1551.8
1737.0;1618.1;;;;;;;;;;;;;;0.4928129;0.4615009;-0.08697775;;;;;1551.8
1737.0;1618.1;;;;;;;;;;;;;;;;;27.93588;38.20536;-0.40437025;;1551.8
1737.0;1618.1;;;;;;;;;;;;;;0.5136265;0.41950744;-0.06103702;;;;;1551.8
1737.0;1619.7;;;;-0.4884339;0.06043244;0.16130449;;;;;;;;;;;;;;;
1737.0;1619.7;;;;-0.48349005;0.05957795;0.1587639;;;;;;;;;;;;;;;
1737.0;1619.7;;;;-0.47969824;0.059711464;0.1564026;;;;;;;;;;;;;;;
1737.0;1619.7;;;;-0.47531134;0.059909828;0.15356828;;;;;;;;;;;;;;;
1737.0;1619.7;;;;-0.47129828;0.060806282;0.15113832;;;;;;;;;;;;;;;
1737.0;1622.5;262143;262143;13592;;;;;;;;;;;;;;;;;;
1739.0;1629.8;;;;-0.4664498;0.06146241;0.14864732;;;;;;;;;;;;;;;
1739.0;1629.8;;;;-0.46214682;0.062789924;0.14715578;;;;;;;;;;;;;;;
1739.0;1629.8;;;;-0.4573403;0.06385041;0.14500429;;;;;;;;;;;;;;;
1739.0;1629.8;;;;-0.45434576;0.06546403;0.14297487;;;;;;;;;;;;;;;
1739.0;1629.8;;;;-0.4507218;0.06666566;0.14149095;;;;;;;;;;;;;;;
1739.0;1639.7;;;;-0.447403;0.06935502;0.14054109;;;;;;;;;;;;;;;
1739.0;1639.7;;;;-0.4456826;0.07239915;0.13943864;;;;;;;;;;;;;;;
1739.0;1639.7;;;;-0.44463354;0.07588578;0.13821031;;;;;;;;;;;;;;;
1739.0;1639.7;;;;-0.44372946;0.07950974;0.13698198;;;;;;;;;;;;;;;
1739.0;1639.7;;;;-0.4431153;0.08425904;0.13517763;;;;;;;;;;;;;;;
1739.0;1642.5;262143;262143;13601;;;;;;;;;;;;;;;;;;
1739.0;1648.5;;;;;;;;;;;;;1519;;;;;;;;
1739.0;1648.5;;;;;;;;;;;;;1416;;;;;;;;
1739.0;1648.5;;;;;;;;;;;;;1289;;;;;;;;
1739.0;1648.5;;;;;;;;;;;;;1313;;;;;;;;
1739.0;1648.5;;;;;;;;;;;;;1650;;;;;;;;
1739.0;1649.8;;;;-0.4426766;0.089103706;0.1342621;;;;;;;;;;;;;;;
1739.0;1649.8;;;;-0.4421845;0.09404756;0.13298418;;;;;;;;;;;;;;;
1739.0;1649.8;;;;-0.440754;0.099491134;0.13227464;;;;;;;;;;;;;;;
1739.0;1649.8;;;;-0.43941122;0.104267135;0.13082887;;;;;;;;;;;;;;;
1739.0;1649.8;;;;-0.43698126;0.10858919;0.1295624;;;;;;;;;;;;;;;
1745.0;1660.0;;;;-0.43441778;0.1127968;0.12877275;;;;;;;;;;;;;;;
1745.0;1660.0;;;;-0.43122488;0.116992965;0.12905504;;;;;;;;;;;;;;;
1745.0;1660.0;;;;-0.42661673;0.12112047;0.12923051;;;;;;;;;;;;;;;
1745.0;1660.0;;;;-0.42324835;0.12484361;0.12832262;;;;;;;;;;;;;;;
1745.0;1660.0;;;;-0.4191056;0.1275673;0.12796022;;;;;;;;;;;;;;;
1745.0;1662.9;;;;;;;;;;;;;;;;;29.427473;38.636436;-2.1210363;;1561.4
1745.0;1662.9;;;;;;;;;;;;;;0.5216834;0.39368877;-0.06329539;;;;;1561.4
1745.0;1662.9;;;;;;;;;;;;;;;;;31.23188;38.38847;-4.0055547;;1561.4
1745.0;1662.9;;;;;;;;;;;;;;0.52327037;0.37092197;-0.08618427;;;;;1561.4
1745.0;1662.9;;;;;;;;;;;;;;;;;33.61614;36.999878;-6.122776;;1570.9
1745.0;1662.9;;;;;;;;;;;;;;0.5235145;0.359447;-0.11181982;;;;;1570.9
1745.0;1662.9;;;;;;;;;;;;;;;;;36.75573;34.588913;-8.526108;;1570.9
1745.0;1662.9;;;;;;;;;;;;;;0.52424693;0.3622547;-0.13513596;;;;;1570.9
1745.0;1662.9;;;;;;;;;;;;;;;;;40.097504;33.26518;-12.077701;;1580.5
1745.0;1662.9;;;;;;;;;;;;;;0.5102084;0.39063692;-0.14166692;;;;;1580.5
1745.0;1662.9;;;;;;;;;;;;;;;;;43.72158;33.055363;-17.017883;;1580.5
1745.0;1662.9;;;;;;;;;;;;;;0.48445082;0.43934447;-0.13409834;;;;;1580.5
1745.0;1662.8;262143;262143;13595;;;;;;;;;;;;;;;;;;
1745.0;1669.9;;;;-0.41465002;0.1292534;0.12661363;;;;;;;;;;;;;;;
1745.0;1669.9;;;;-0.41151434;0.1306801;0.1261368;;;;;;;;;;;;;;;
1745.0;1669.9;;;;-0.41000372;0.13147737;0.12562563;;;;;;;;;;;;;;;
1745.0;1669.9;;;;-0.41011816;0.13169481;0.124130264;;;;;;;;;;;;;;;
1745.0;1669.9;;;;-0.41227347;0.13090135;0.12321474;;;;;;;;;;;;;;;
1746.0;1670.4;;;;;;;;;;;;;;;;;46.956543;34.592728;-24.204994;;1590.2
1746.0;1670.4;;;;;;;;;;;;;;0.46186712;0.4949492;-0.113773;;;;;1590.2
1746.0;1670.4;;;;;;;;;;;;;;;;;50.03891;39.384136;-33.47499;;1590.2
1746.0;1670.4;;;;;;;;;;;;;;0.4415418;0.5456099;-0.058107242;;;;;1590.2
1746.0;1670.4;;;;;;;;;;;;;;;;;52.743614;45.25132;-44.518875;;1599.8
1746.0;1670.4;;;;;;;;;;;;;;0.410596;0.5690481;0.022400586;;;;;1599.8
1746.0;1670.4;;;;;;;;;;;;;;;;;54.673912;49.207283;-56.669056;;1599.8
1746.0;1670.4;;;;;;;;;;;;;;0.38190863;0.5847346;0.08038575;;;;;1599.8
1746.0;1670.4;;;;;;;;;;;;;;;;;57.721947;51.812798;-69.65849;;1609.5
1746.0;1670.4;;;;;;;;;;;;;;0.3665273;0.60823387;0.100283824;;;;;1609.5
1746.0;1670.4;;;;;;;;;;;;;;;;;60.3885;55.204166;-82.93024;;1609.5
1746.0;1670.4;;;;;;;;;;;;;;0.35627308;0.62611777;0.105166785;;;;;1609.5
1746.0;1679.8;;;;-0.41545492;0.13010027;0.12326814;;;;;;;;;;;;;;;
1746.0;1679.8;;;;-0.42011267;0.12947847;0.1226082;;;;;;;;;;;;;;;
1746.0;1679.8;;;;-0.42700964;0.12932588;0.12112428;;;;;;;;;;;;;;;
1746.0;1679.8;;;;-0.43418127;0.12919618;0.119590774;;;;;;;;;;;;;;;
1746.0;1679.8;;;;-0.44277197;0.12878038;0.11771776;;;;;;;;;;;;;;;
1746.0;1682.8;262143;262143;13601;;;;;;;;;;;;;;;;;;
1746.0;1688.7;;;;;;;;;;;;;1930;;;;;;;;
1746.0;1688.7;;;;;;;;;;;;;1871;;;;;;;;
1746.0;1688.7;;;;;;;;;;;;;1592;;;;;;;;
1746.0;1688.7;;;;;;;;;;;;;1163;;;;;;;;
1746.0;1688.7;;;;;;;;;;;;;982;;;;;;;;
1797.0;1689.9;;;;-0.4529267;0.1287842;0.116107956;;;;;;;;;;;;;;;
1797.0;1689.9;;;;-0.46474463;0.12858965;0.114303604;;;;;;;;;;;;;;;
1797.0;1689.9;;;;-0.47703177;0.12815477;0.11274339;;;;;;;;;;;;;;;
1797.0;1689.9;;;;-0.49127966;0.12757875;0.11154939;;;;;;;;;;;;;;;
1797.0;1689.9;;;;-0.50728613;0.12705232;0.110252395;;;;;;;;;;;;;;;
1797.0;1699.7;;;;-0.52478796;0.12614442;0.108593;;;;;;;;;;;;;;;
1797.0;1699.7;;;;-0.54456335;0.12623216;0.10683061;;;;;;;;;;;;;;;
1797.0;1699.7;;;;-0.56602484;0.12710191;0.105972305;;;;;;;;;;;;;;;
1797.0;1699.7;;;;-0.5898438;0.12821962;0.10687257;;;;;;;;;;;;;;;
1797.0;1699.7;;;;-0.6144448;0.13093568;0.109828964;;;;;;;;;;;;;;;
1797.0;1702.6;262143;262143;13610;;;;;;;;;;;;;;;;;;
1797.0;1709.8;;;;-0.63948447;0.13429262;0.11425401;;;;;;;;;;;;;;;
1797.0;1709.8;;;;-0.66328055;0.13861085;0.11823656;;;;;;;;;;;;;;;
1797.0;1709.8;;;;-0.68663794;0.14357378;0.12180711;;;;;;;;;;;;;;;
1797.0;1709.8;;;;-0.7087403;0.14837648;0.12368013;;;;;;;;;;;;;;;
1797.0;1709.8;;;;-0.73099524;0.15266038;0.12340166;;;;;;;;;;;;;;;
1797.0;1719.9;;;;-0.75164044;0.15700914;0.123237625;;;;;;;;;;;;;;;
1797.0;1719.9;;;;-0.77217114;0.161438;0.122653976;;;;;;;;;;;;;;;
1797.0;1719.9;;;;-0.7932931;0.16529085;0.12453462;;;;;;;;;;;;;;;
1797.0;1719.9;;;;-0.813511;0.16907884;0.12768556;;;;;;;;;;;;;;;
1797.0;1719.9;;;;-0.83277524;0.17331697;0.13107683;;;;;;;;;;;;;;;
1800.0;1723.0;;;;;;;;;;;;;;;;;61.883907;60.93783;-96.68264;;1619.0
1800.0;1723.0;;;;;;;;;;;;;;0.34302804;0.62245554;0.103518784;;;;;1619.0
1800.0;1723.0;;;;;;;;;;;;;;;;;63.417465;66.27094;-112.26615;;1619.0
1800.0;1723.0;;;;;;;;;;;;;;0.33301798;0.65901667;0.1053499;;;;;1619.0
1800.0;1723.0;;;;;;;;;;;;;;;;;62.326427;70.73809;-123.06207;;1628.6
1800.0;1723.0;;;;;;;;;;;;;;0.3342387;0.68282115;0.11651967;;;;;1628.6
1800.0;1723.0;;;;;;;;;;;;;;;;;59.869686;76.88376;-124.98093;;1628.6
1800.0;1723.0;;;;;;;;;;;;;;0.34730065;0.71614736;0.16547136;;;;;1628.6
1800.0;1723.0;;;;;;;;;;;;;;;;;56.56224;80.618454;-124.988556;;1638.1
1800.0;1723.0;;;;;;;;;;;;;;0.38459426;0.6981414;0.19000824;;;;;1638.1
1800.0;1723.0;;;;;;;;;;;;;;;;;52.068394;82.20542;-124.988556;;1638.1
1800.0;1723.0;;;;;;;;;;;;;;0.4697409;0.6534013;0.19000824;;;;;1638.1
1800.0;1722.8;262143;262143;13623;;;;;;;;;;;;;;;;;;
1810.0;1724.0;;;;;;;;;;;;;;;;;39.601578;81.503494;-124.988556;;1647.7
1810.0;1724.0;;;;;;;;;;;;;;0.5568407;0.5960875;0.15106662;;;;;1647.7
1810.0;1724.0;;;;;;;;;;;;;;;;;21.378216;79.424416;-124.988556;;1647.7
1810.0;1724.0;;;;;;;;;;;;;;0.64510024;0.486404;0.0954619;;;;;1647.7
1810.0;1724.0;;;;;;;;;;;;;;;;;2.3880734;77.62383;-124.988556;;1657.2
1810.0;1724.0;;;;;;;;;;;;;;0.76400036;0.3698233;0.053163245;;;;;1657.2
1810.0;1724.0;;;;;;;;;;;;;;;;;-13.412886;78.47071;-124.988556;;1657.2
1810.0;1724.0;;;;;;;;;;;;;;0.8717917;0.28278452;0.03295999;;;;;1657.2
1810.0;1724.0;;;;;;;;;;;;;;;;;-22.259438;83.00653;-124.988556;;1666.9
1810.0;1724.0;;;;;;;;;;;;;;0.92696923;0.20764793;0.018921476;;;;;1666.9
1810.0;1724.0;;;;;;;;;;;;;;;;;-23.037659;90.93752;-124.988556;;1666.9
1810.0;1724.0;;;;;;;;;;;;;;0.95272684;0.1732841;0.043946654;;;;;1666.9
1810.0;1728.5;;;;;;;;;;;;;1119;;;;;;;;
1810.0;1728.5;;;;;;;;;;;;;1082;;;;;;;;
1810.0;1728.5;;;;;;;;;;;;;602;;;;;;;;
1810.0;1728.5;;;;;;;;;;;;;-107;;;;;;;;
1810.0;1728.5;;;;;;;;;;;;;-495;;;;;;;;
1810.0;1729.6;;;;-0.8513757;0.17662431;0.13340761;;;;;;;;;;;;;;;
1810.0;1729.6;;;;-0.8671495;0.1795273;0.13645937;;;;;;;;;;;;;;;
1810.0;1729.6;;;;-0.8840257;0.18234636;0.1407776;;;;;;;;;;;;;;;
1810.0;1729.6;;;;-0.90069973;0.18463518;0.14361955;;;;;;;;;;;;;;;
1810.0;1729.6;;;;-0.91429913;0.18584825;0.14385606;;;;;;;;;;;;;;;
1855.0;1739.6;;;;-0.9283296;0.1873398;0.14418031;;;;;;;;;;;;;;;
1855.0;1739.6;;;;-0.94553006;0.18896869;0.14707567;;;;;;;;;;;;;;;
1855.0;1739.6;;;;-0.9607583;0.18868259;0.14995576;;;;;;;;;;;;;;;
1855.0;1739.6;;;;-0.97488034;0.18883517;0.15191652;;;;;;;;;;;;;;;
1855.0;1739.6;;;;-0.9906465;0.18766406;0.15122606;;;;;;;;;;;;;;;
1855.0;1739.7;;;;;;;;;;-0.24414808;18.43318;-1.2855922;;;;;;;;;
1855.0;1739.7;;;;;;;0.93563646;0.173101;0.3602405;;;;;;;;;;;;
1855.0;1739.7;;;;;;;;;;6.8857384;30.430769;8.766441;;;;;;;;;
1855.0;1739.7;;;;;;;1.0401928;0.2042909;0.3960082;;;;;;;;;;;;
1855.0;1742.7;262143;262143;13625;;;;;;;;;;;;;;;;;;
1855.0;1749.3;;;;;;;;;;3.1052582;3.234962;0.42725915;;;;;;;;;
1855.0;1749.3;;;;;;;1.0227363;0.2111881;0.38410595;;;;;;;;;;;;
1855.0;1749.3;;;;;;;;;;10.628071;12.581255;13.1801815;;;;;;;;;
1855.0;1749.3;;;;;;;1.0030214;0.21955016;0.36823633;;;;;;;;;;;;
1855.0;1749.7;;;;-1.004368;0.18769076;0.14958192;;;;;;;;;;;;;;;
1855.0;1749.7;;;;-1.0171891;0.18857959;0.14766313;;;;;;;;;;;;;;;
1855.0;1749.7;;;;-1.0323564;0.18910602;0.14428712;;;;;;;;;;;;;;;
1855.0;1749.7;;;;-1.0474969;0.18828967;0.14344026;;;;;;;;;;;;;;;
1855.0;1749.7;;;;-1.0605584;0.18970874;0.14434053;;;;;;;;;;;;;;;
1855.0;1758.8;;;;;;;;;;14.049958;11.108737;18.82229;;;;;;;;;
1855.0;1758.8;;;;;;;0.98800623;0.22894986;0.3516953;;;;;;;;;;;;
1855.0;1758.8;;;;;;;;;;11.226996;-26.108585;2.929777;;;;;;;;;
1855.0;1758.8;;;;;;;0.9704276;0.23102511;0.33429974;;;;;;;;;;;;
1857.0;1759.7;;;;-1.0700723;0.1916466;0.14411165;;;;;;;;;;;;;;;
1857.0;1759.7;;;;-1.0795823;0.19554904;0.14517213;;;;;;;;;;;;;;;
1857.0;1759.7;;;;-1.0882417;0.19733813;0.14624025;;;;;;;;;;;;;;;
1857.0;1759.7;;;;-1.0954171;0.19880298;0.14884569;;;;;;;;;;;;;;;
1857.0;1759.7;;;;-1.1010438;0.19990161;0.15350725;;;;;;;;;;;;;;;
1857.0;1762.8;262143;262143;13635;;;;;;;;;;;;;;;;;;
1857.0;1768.4;;;;;;;;;;12.676625;-27.668842;6.9467754;;;;;;;;;
1857.0;1768.4;;;;;;;0.9520554;0.23255104;0.31794184;;;;;;;;;;;;
1857.0;1768.4;;;;;;;;;;13.641774;-29.07651;11.05533;;;;;;;;;
1857.0;1768.4;;;;;;;0.92965484;0.23224586;0.30164495;;;;;;;;;;;;
1857.0;1768.8;;;;;;;;;;;;;-383;;;;;;;;
1857.0;1768.8;;;;;;;;;;;;;-189;;;;;;;;
1857.0;1768.8;;;;;;;;;;;;;-333;;;;;;;;
1857.0;1768.8;;;;;;;;;;;;;-626;;;;;;;;
1857.0;1768.8;;;;;;;;;;;;;-371;;;;;;;;
1857.0;1769.8;;;;-1.1030122;0.20418933;0.16079332;;;;;;;;;;;;;;;
1857.0;1769.8;;;;-1.1044923;0.20812991;0.16725923;;;;;;;;;;;;;;;
1857.0;1769.8;;;;-1.104992;0.21269229;0.17403795;;;;;;;;;;;;;;;
1857.0;1769.8;;;;-1.1056024;0.21868518;0.17918016;;;;;;;;;;;;;;;
1857.0;1769.8;;;;-1.1069833;0.224453;0.18602754;;;;;;;;;;;;;;;
1857.0;1778.1;;;;;;;;;;13.443404;-22.907955;20.630512;;;;;;;;;
1857.0;1778.1;;;;;;;0.90646076;0.23071994;0.28614154;;;;;;;;;;;;
1857.0;1778.1;;;;;;;;;;11.852626;-15.35081;28.35551;;;;;;;;;
1857.0;1778.1;;;;;;;0.8810083;0.22876675;0.27277443;;;;;;;;;;;;
1858.0;1780.0;;;;-1.1051065;0.23399737;0.19547656;;;;;;;;;;;;;;;
1858.0;1780.0;;;;-1.1043473;0.25239184;0.20408633;;;;;;;;;;;;;;;
1858.0;1780.0;;;;-1.1132966;0.27126315;0.20831683;;;;;;;;;;;;;;;
1858.0;1780.0;;;;-1.1246301;0.28125384;0.21127322;;;;;;;;;;;;;;;
1858.0;1780.0;;;;-1.1348344;0.2837372;0.21383289;;;;;;;;;;;;;;;
1858.0;1783.2;;;;;;;;;;;;;;;;;-15.8391075;93.85967;-124.988556;;1676.5
1858.0;1783.2;;;;;;;;;;;;;;0.97219765;0.1988586;0.08197272;;;;;1676.5
1858.0;1783.2;;;;;;;;;;;;;;;;;-5.054628;81.83538;-124.988556;;1676.5
1858.0;1783.2;;;;;;;;;;;;;;1.0206;0.27283546;0.04364147;;;;;1676.5
1858.0;1783.2;;;;;;;;;;;;;;;;;6.122776;54.792168;-124.73678;;1686.1
1858.0;1783.2;;;;;;;;;;;;;;1.0841396;0.32013917;-0.11493271;;;;;1686.1
1858.0;1783.2;;;;;;;;;;;;;;;;;16.621143;21.675772;-121.25385;;1686.1
1858.0;1783.2;;;;;;;;;;;;;;1.1305887;0.36219367;-0.34284493;;;;;1686.1
1858.0;1783.2;;;;;;;;;;;;;;;;;22.141178;-1.1139256;-117.065186;;1695.7
1858.0;1783.2;;;;;;;;;;;;;;1.2244025;0.4090701;-0.5872982;;;;;1695.7
1858.0;1783.2;;;;;;;;;;;;;;;;;17.826624;2.5673697;-115.79485;;1695.7
1858.0;1783.2;;;;;;;;;;;;;;1.3384198;0.47932371;-0.6756798;;;;;1695.7
1859.0;1783.9;;;;;;;;;;;;;;;;;5.6154056;21.557512;-117.61071;;1705.2
1859.0;1783.9;;;;;;;;;;;;;;1.3953673;0.5157628;-0.5859554;;;;;1705.2
1859.0;1783.9;;;;;;;;;;;;;;;;;-6.916257;34.745323;-122.146515;;1705.2
1859.0;1783.9;;;;;;;;;;;;;;1.4059267;0.5528123;-0.5191809;;;;;1705.2
1859.0;1783.9;;;;;;;;;;;;;;;;;-9.685812;37.343212;-124.82833;;1714.9
1859.0;1783.9;;;;;;;;;;;;;;1.4500564;0.5944395;-0.54896694;;;;;1714.9
1859.0;1783.9;;;;;;;;;;;;;;;;;-0.8697775;37.575916;-124.988556;;1714.9
1859.0;1783.9;;;;;;;;;;;;;;1.4999847;0.6458327;-0.63039035;;;;;1714.9
1859.0;1783.9;;;;;;;;;;;;;;;;;16.056551;46.720024;-124.988556;;1724.5
1859.0;1783.9;;;;;;;;;;;;;;1.5063326;0.6947844;-0.6360668;;;;;1724.5
1859.0;1783.9;;;;;;;;;;;;;;;;;34.321877;61.01413;-124.988556;;1724.5
1859.0;1783.9;;;;;;;;;;;;;;1.3629566;0.7124241;-0.520951;;;;;1724.5
1859.0;1783.0;262143;262143;13637;;;;;;;;;;;;;;;;;;
1859.0;1787.5;;;;;;;;;;10.3724785;-16.319773;28.519547;;;;;;;;;
1859.0;1787.5;;;;;;;0.85402995;0.22766808;0.2609943;;;;;;;;;;;;
1859.0;1787.5;;;;;;;;;;8.957183;-18.097477;28.256325;;;;;;;;;
1859.0;1787.5;;;;;;;0.8298593;0.23047578;0.2515946;;;;;;;;;;;;
1859.0;1789.8;;;;-1.1462289;0.28115085;0.21627429;;;;;;;;;;;;;;;
1859.0;1789.8;;;;-1.1606141;0.2767487;0.2194176;;;;;;;;;;;;;;;
1859.0;1789.8;;;;-1.1788179;0.27082446;0.22177508;;;;;;;;;;;;;;;
1859.0;1789.8;;;;-1.199814;0.26254657;0.22385791;;;;;;;;;;;;;;;
1859.0;1789.8;;;;-1.2196122;0.25314716;0.22526553;;;;;;;;;;;;;;;
1916.0;1797.1;;;;;;;;;;7.4083686;-20.355846;27.703176;;;;;;;;;
1916.0;1797.1;;;;;;;0.8011719;0.23480941;0.24359874;;;;;;;;;;;;
1916.0;1797.1;;;;;;;;;;5.8442945;-23.148289;27.15003;;;;;;;;;
1916.0;1797.1;;;;;;;0.7687613;0.24048586;0.23828852;;;;;;;;;;;;
1916.0;1799.9;;;;-1.2392999;0.24304965;0.2266846;;;;;;;;;;;;;;;
1916.0;1799.9;;;;-1.2609063;0.2320061;0.22737125;;;;;;;;;;;;;;;
1916.0;1799.9;;;;-1.2819864;0.22082523;0.22924808;;;;;;;;;;;;;;;
1916.0;1799.9;;;;-1.3032686;0.20824817;0.23045352;;;;;;;;;;;;;;;
1916.0;1799.9;;;;-1.3229905;0.19645694;0.23075107;;;;;;;;;;;;;;;
1916.0;1803.1;262143;262143;13620;;;;;;;;;;;;;;;;;;
1916.0;1806.7;;;;;;;;;;4.463332;-26.19251;26.444288;;;;;;;;;
1916.0;1806.7;;;;;;;0.73659474;0.24323252;0.2369457;;;;;;;;;;;;
1916.0;1806.7;;;;;;;;;;3.3646657;-28.942991;25.593584;;;;;;;;;
1916.0;1806.7;;;;;;;0.70259714;0.24732201;0.2402417;;;;;;;;;;;;
1916.0;1809.0;;;;;;;;;;;;;486;;;;;;;;
1916.0;1809.0;;;;;;;;;;;;;1351;;;;;;;;
1916.0;1809.0;;;;;;;;;;;;;1692;;;;;;;;
1916.0;1809.0;;;;;;;;;;;;;1486;;;;;;;;
1916.0;1809.0;;;;;;;;;;;;;1200;;;;;;;;
1916.0;1810.0;;;;-1.3440019;0.18452837;0.22986224;;;;;;;;;;;;;;;
1916.0;1810.0;;;;-1.3648607;0.1727524;0.22859195;;;;;;;;;;;;;;;
1916.0;1810.0;;;;-1.3823205;0.16193391;0.22657397;;;;;;;;;;;;;;;
1916.0;1810.0;;;;-1.402546;0.15349962;0.2255173;;;;;;;;;;;;;;;
1916.0;1810.0;;;;-1.4214135;0.1443863;0.22401813;;;;;;;;;;;;;;;
1918.0;1815.8;;;;;;;;;;2.2431104;-31.495102;24.86114;;;;;;;;;
1918.0;1815.8;;;;;;;0.6732994;0.24591815;0.24256112;;;;;;;;;;;;
1918.0;1815.8;;;;;;;;;;1.1177404;-33.742027;24.124882;;;;;;;;;
1918.0;1815.8;;;;;;;0.654622;0.24774925;0.24433118;;;;;;;;;;;;
1918.0;1819.6;;;;-1.4383126;0.13673402;0.22420886;;;;;;;;;;;;;;;
1918.0;1819.6;;;;-1.4541551;0.13074876;0.2247391;;;;;;;;;;;;;;;
1918.0;1819.6;;;;-1.4710771;0.12635042;0.22580722;;;;;;;;;;;;;;;
1918.0;1819.6;;;;-1.4855272;0.12298204;0.22696307;;;;;;;;;;;;;;;
1918.0;1819.6;;;;-1.4994966;0.120258346;0.22998431;;;;;;;;;;;;;;;
1918.0;1822.9;262143;262143;13607;;;;;;;;;;;;;;;;;;
1918.0;1825.5;;;;;;;;;;-0.15640736;-35.51973;23.05292;;;;;;;;;
1918.0;1825.5;;;;;;;0.64333016;0.25348675;0.25116733;;;;;;;;;;;;
1918.0;1825.5;;;;;;;;;;-1.4801477;-36.68325;21.446882;;;;;;;;;
1918.0;1825.5;;;;;;;0.6404004;0.26075014;0.25940734;;;;;;;;;;;;
1918.0;1829.8;;;;-1.5105441;0.11943437;0.23172;;;;;;;;;;;;;;;
1918.0;1829.8;;;;-1.5196879;0.118705764;0.23526004;;;;;;;;;;;;;;;
1918.0;1829.8;;;;-1.5273364;0.11667253;0.23926547;;;;;;;;;;;;;;;
1918.0;1829.8;;;;-1.5311244;0.11708452;0.24474338;;;;;;;;;;;;;;;
1918.0;1829.8;;;;-1.5335124;0.11934663;0.24880603;;;;;;;;;;;;;;;
1918.0;1835.1;;;;;;;;;;-2.8649251;-36.942657;19.634846;;;;;;;;;
1918.0;1835.1;;;;;;;0.633198;0.2700278;0.26783043;;;;;;;;;;;;
1918.0;1835.1;;;;;;;;;;-4.566332;-36.51158;17.887661;;;;;;;;;
1918.0;1835.1;;;;;;;0.6245918;0.2800989;0.2732017;;;;;;;;;;;;
1924.0;1839.9;;;;-1.532368;0.122344986;0.25267413;;;;;;;;;;;;;;;
1924.0;1839.9;;;;-1.5289118;0.12540819;0.25740817;;;;;;;;;;;;;;;
1924.0;1839.9;;;;-1.523968;0.12671663;0.2623444;;;;;;;;;;;;;;;
1924.0;1839.9;;;;-1.5183566;0.12395479;0.2669945;;;;;;;;;;;;;;;
1924.0;1839.9;;;;-1.5094111;0.117877975;0.27253345;;;;;;;;;;;;;;;
1924.0;1843.2;262143;262143;13614;;;;;;;;;;;;;;;;;;
1924.0;1844.7;;;;;;;;;;-6.504257;-35.348064;16.37318;;;;;;;;;
1924.0;1844.7;;;;;;;0.61275065;0.28888822;0.27997681;;;;;;;;;;;;
1924.0;1844.7;;;;;;;;;;-8.522293;-33.558918;14.8625145;;;;;;;;;
1924.0;1844.7;;;;;;;0.6003601;0.29590747;0.28296763;;;;;;;;;;;;
1924.0;1849.1;;;;;;;;;;;;;1075;;;;;;;;
1924.0;1849.1;;;;;;;;;;;;;1085;;;;;;;;
1924.0;1849.1;;;;;;;;;;;;;1373;;;;;;;;
1924.0;1849.1;;;;;;;;;;;;;2109;;;;;;;;
1924.0;1849.1;;;;;;;;;;;;;770;;;;;;;;
1924.0;1849.9;;;;-1.4966089;0.11311342;0.27875522;;;;;;;;;;;;;;;
1924.0;1849.9;;;;-1.4797059;0.11180498;0.28548816;;;;;;;;;;;;;;;
1924.0;1849.9;;;;-1.4629251;0.11093904;0.29223636;;;;;;;;;;;;;;;
1924.0;1849.9;;;;-1.4472924;0.108879104;0.29861072;;;;;;;;;;;;;;;
1924.0;1849.9;;;;-1.4296609;0.10710527;0.30485538;;;;;;;;;;;;;;;
1926.0;1850.7;;;;;;;;;;;;;;;;;44.392986;68.00287;-124.52315;;1734.1
1926.0;1850.7;;;;;;;;;;;;;;1.2173834;0.6975921;-0.36744285;;;;;1734.1
1926.0;1850.7;;;;;;;;;;;;;;;;;44.804985;63.474686;-120.25056;;1734.1
1926.0;1850.7;;;;;;;;;;;;;;1.1130711;0.6468093;-0.27869502;;;;;1734.1
1926.0;1850.7;;;;;;;;;;;;;;;;;37.179176;53.426468;-113.62804;;1743.8
1926.0;1850.7;;;;;;;;;;;;;;1.038789;0.6042054;-0.25684378;;;;;1743.8
1926.0;1850.7;;;;;;;;;;;;;;;;;25.78051;44.06873;-106.37227;;1743.8
1926.0;1850.7;;;;;;;;;;;;;;0.99905396;0.5924253;-0.27063814;;;;;1743.8
1926.0;1850.7;;;;;;;;;;;;;;;;;14.511552;37.118137;-97.022156;;1753.4
1926.0;1850.7;;;;;;;;;;;;;;0.961272;0.5953551;-0.26856288;;;;;1753.4
1926.0;1850.7;;;;;;;;;;;;;;;;;6.733146;29.129917;-86.882385;;1753.4
1926.0;1850.7;;;;;;;;;;;;;;0.9554735;0.6123234;-0.2709433;;;;;1753.4
1926.0;1851.5;;;;;;;;;;;;;;;;;4.0665917;20.287178;-74.86191;;1762.9
1926.0;1851.5;;;;;;;;;;;;;;0.9726249;0.61507004;-0.30219427;;;;;1762.9
1926.0;1851.5;;;;;;;;;;;;;;;;;3.5058138;14.934996;-62.803276;;1762.9
1926.0;1851.5;;;;;;;;;;;;;;0.99130225;0.5717948;-0.32557145;;;;;1762.9
1926.0;1851.5;;;;;;;;;;;;;;;;;3.4638507;12.649922;-53.338726;;1772.6
1926.0;1851.5;;;;;;;;;;;;;;0.98892176;0.5421308;-0.31006807;;;;;1772.6
1926.0;1851.5;;;;;;;;;;;;;;;;;3.4257026;11.295663;-45.75106;;1772.6
1926.0;1851.5;;;;;;;;;;;;;;0.96566665;0.5070956;-0.2725303;;;;;1772.6
1926.0;1851.5;;;;;;;;;;;;;;;;;3.9826655;8.5909605;-38.598286;;1782.2
1926.0;1851.5;;;;;;;;;;;;;;0.94357127;0.46815392;-0.25611132;;;;;1782.2
1926.0;1851.5;;;;;;;;;;;;;;;;;7.2786646;4.0856657;-30.842768;;1782.2
1926.0;1851.5;;;;;;;;;;;;;;0.9477218;0.4422132;-0.28180793;;;;;1782.2
1975.0;1854.1;;;;;;;;;;-10.593738;-31.411175;13.225959;;;;;;;;;
1975.0;1854.1;;;;;;;0.581988;0.2995697;0.28382215;;;;;;;;;;;;
1975.0;1854.1;;;;;;;;;;-12.569811;-28.97351;11.844996;;;;;;;;;
1975.0;1854.1;;;;;;;0.56758326;0.29816583;0.2829066;;;;;;;;;;;;
1975.0;1859.7;;;;-1.4099237;0.1070099;0.31188968;;;;;;;;;;;;;;;
1975.0;1859.7;;;;-1.3925287;0.103763595;0.3180962;;;;;;;;;;;;;;;
1975.0;1859.7;;;;-1.3763353;0.09837724;0.3236504;;;;;;;;;;;;;;;
1975.0;1859.7;;;;-1.359028;0.09260941;0.3280144;;;;;;;;;;;;;;;
1975.0;1859.7;;;;-1.3428651;0.08554841;0.33274463;;;;;;;;;;;;;;;
1975.0;1863.6;;;;;;;;;;-14.458144;-25.963621;10.631886;;;;;;;;;
1975.0;1863.6;;;;;;;0.5512253;0.2954192;0.2814417;;;;;;;;;;;;
1975.0;1863.6;;;;;;;;;;-16.201513;-22.797327;9.544664;;;;;;;;;
1975.0;1863.6;;;;;;;0.53462327;0.2923673;0.27661976;;;;;;;;;;;;
1975.0;1863.1;262143;262143;13608;;;;;;;;;;;;;;;;;;
1975.0;1869.7;;;;-1.32613;0.07827378;0.3373299;;;;;;;;;;;;;;;
1975.0;1869.7;;;;-1.3085061;0.07075501;0.3413506;;;;;;;;;;;;;;;
1975.0;1869.7;;;;-1.2914468;0.062366493;0.3444405;;;;;;;;;;;;;;;
1975.0;1869.7;;;;-1.2752191;0.05456925;0.348568;;;;;;;;;;;;;;;
1975.0;1869.7;;;;-1.259102;0.047912605;0.3518677;;;;;;;;;;;;;;;
1975.0;1873.0;;;;;;;;;;-17.78466;-19.428846;8.621479;;;;;;;;;
1975.0;1873.0;;;;;;;0.52034056;0.28247932;0.27234718;;;;;;;;;;;;
1975.0;1873.0;;;;;;;;;;-19.444107;-16.258736;7.614368;;;;;;;;;
1975.0;1873.0;;;;;;;0.50379956;0.27686393;0.26545;;;;;;;;;;;;
1977.0;1879.6;;;;-1.2413102;0.041938785;0.35438922;;;;;;;;;;;;;;;
1977.0;1879.6;;;;-1.2239457;0.034370426;0.35577014;;;;;;;;;;;;;;;
1977.0;1879.6;;;;-1.2075883;0.024711613;0.35637668;;;;;;;;;;;;;;;
1977.0;1879.6;;;;-1.190075;0.01551819;0.35556033;;;;;;;;;;;;;;;
1977.0;1879.6;;;;-1.1723939;0.0078048715;0.35295108;;;;;;;;;;;;;;;
1977.0;1882.5;;;;;;;;;;-21.179846;-13.164922;6.5843687;;;;;;;;;
1977.0;1882.5;;;;;;;0.4909818;0.27112645;0.2598346;;;;;;;;;;;;
1977.0;1882.5;;;;;;;;;;-22.591326;-10.162663;5.386517;;;;;;;;;
1977.0;1882.5;;;;;;;0.47956786;0.26227608;0.24921414;;;;;;;;;;;;
1977.0;1883.0;262143;262143;13607;;;;;;;;;;;;;;;;;;
1977.0;1888.9;;;;;;;;;;;;;-7019;;;;;;;;
1977.0;1888.9;;;;;;;;;;;;;-19222;;;;;;;;
1977.0;1888.9;;;;;;;;;;;;;-25815;;;;;;;;
1977.0;1888.9;;;;;;;;;;;;;-19952;;;;;;;;
1977.0;1888.9;;;;;;;;;;;;;-6672;;;;;;;;
1977.0;1889.7;;;;-1.1532785;0.0038795476;0.3503609;;;;;;;;;;;;;;;
1977.0;1889.7;;;;-1.1369401;8.96454E-4;0.34651187;;;;;;;;;;;;;;;
1977.0;1889.7;;;;-1.1206971;-5.8364874E-4;0.34193805;;;;;;;;;;;;;;;
1977.0;1889.7;;;;-1.1079599;-0.0025634768;0.33552173;;;;;;;;;;;;;;;
1977.0;1889.7;;;;-1.0995141;-0.0076904306;0.32875827;;;;;;;;;;;;;;;
1977.0;1892.1;;;;;;;;;;-24.002808;-6.8475904;4.352702;;;;;;;;;
1977.0;1892.1;;;;;;;0.47596666;0.2583697;0.23377179;;;;;;;;;;;;
1977.0;1892.1;;;;;;;;;;-25.528732;-3.746147;3.2197027;;;;;;;;;
1977.0;1892.1;;;;;;;0.48036134;0.25611132;0.21826838;;;;;;;;;;;;
2038.0;1899.8;;;;-1.0925447;-0.015167238;0.32304004;;;;;;;;;;;;;;;
2038.0;1899.8;;;;-1.086548;-0.025325779;0.32093814;;;;;;;;;;;;;;;
2038.0;1899.8;;;;-1.0783845;-0.034435276;0.31504062;;;;;;;;;;;;;;;
2038.0;1899.8;;;;-1.0689622;-0.042865757;0.30824664;;;;;;;;;;;;;;;
2038.0;1899.8;;;;-1.0611078;-0.051258095;0.30046847;;;;;;;;;;;;;;;
2038.0;1901.7;;;;;;;;;;-27.115696;-0.90792567;2.0332959;;;;;;;;;
2038.0;1901.7;;;;;;;0.49147007;0.25775933;0.19940794;;;;;;;;;;;;
2038.0;1901.7;;;;;;;;;;-28.66451;1.4801477;1.12537;;;;;;;;;
2038.0;1901.7;;;;;;;0.50923187;0.2624592;0.17621388;;;;;;;;;;;;
2038.0;1903.3;;;;;;;;;;;;;;;;;12.138738;0.79348123;-22.320475;;1791.8
2038.0;1903.3;;;;;;;;;;;;;;0.96316415;0.4222541;-0.30823696;;;;;1791.8
2038.0;1903.3;;;;;;;;;;;;;;;;;15.67507;1.1482589;-13.5883665;;1791.8
2038.0;1903.3;;;;;;;;;;;;;;0.967803;0.41846982;-0.26538897;;;;;1791.8
2038.0;1903.3;;;;;;;;;;;;;;;;;16.399885;2.166814;-4.894406;;1801.3
2038.0;1903.3;;;;;;;;;;;;;;0.9682913;0.4225593;-0.17920469;;;;;1801.3
2038.0;1903.3;;;;;;;;;;;;;;;;;16.140476;1.1558886;4.146703;;1801.3
2038.0;1903.3;;;;;;;;;;;;;;0.9706717;0.42780846;-0.11346782;;;;;1801.3
2038.0;1903.3;;;;;;;;;;;;;;;;;16.598255;-1.6670736;12.855922;;1810.9
2038.0;1903.3;;;;;;;;;;;;;;0.99899286;0.43586534;-0.09289835;;;;;1810.9
2038.0;1903.3;;;;;;;;;;;;;;;;;17.181921;-2.4872584;21.30955;;1810.9
2038.0;1903.3;;;;;;;;;;;;;;1.0276192;0.44331187;-0.06610309;;;;;1810.9
2042.0;1904.1;;;;;;;;;;;;;;;;;16.445662;-2.1439252;29.728844;;1820.5
2042.0;1904.1;;;;;;;;;;;;;;1.015717;0.4410535;-0.030884732;;;;;1820.5
2042.0;1904.1;;;;;;;;;;;;;;;;;15.125736;-3.7690358;38.22062;;1820.5
2042.0;1904.1;;;;;;;;;;;;;;0.9773247;0.4126713;-0.0079958495;;;;;1820.5
2042.0;1904.1;;;;;;;;;;;;;;;;;13.103885;-7.6525164;47.261726;;1830.2
2042.0;1904.1;;;;;;;;;;;;;;0.920011;0.36841944;-0.0053712577;;;;;1830.2
2042.0;1904.1;;;;;;;;;;;;;;;;;10.006256;-11.307108;57.08106;;1830.2
2042.0;1904.1;;;;;;;;;;;;;;0.85366374;0.33063754;0.00347911;;;;;1830.2
2042.0;1904.1;;;;;;;;;;;;;;;;;5.455184;-14.049958;67.117836;;1839.8
2042.0;1904.1;;;;;;;;;;;;;;0.7903684;0.30512404;0.013245033;;;;;1839.8
2042.0;1904.1;;;;;;;;;;;;;;;;;-0.77440715;-16.117588;77.036354;;1839.8
2042.0;1904.1;;;;;;;;;;;;;;0.72292244;0.2971282;0.008239998;;;;;1839.8
2042.0;1903.2;262143;262143;13611;;;;;;;;;;;;;;;;;;
2042.0;1909.7;;;;-1.053959;-0.058315285;0.29038623;;;;;;;;;;;;;;;
2042.0;1909.7;;;;-1.0471154;-0.066070564;0.28266147;;;;;;;;;;;;;;;
2042.0;1909.7;;;;-1.0391961;-0.073299415;0.27486804;;;;;;;;;;;;;;;
2042.0;1909.7;;;;-1.0318147;-0.08000947;0.26777652;;;;;;;;;;;;;;;
2042.0;1909.7;;;;-1.024872;-0.08683015;0.26072314;;;;;;;;;;;;;;;
2042.0;1911.1;;;;;;;;;;-30.404064;3.318888;0.42344433;;;;;;;;;
2042.0;1911.1;;;;;;;0.5312662;0.2677694;0.156621;;;;;;;;;;;;
2042.0;1911.1;;;;;;;;;;-32.212288;5.199591;0.10299997;;;;;;;;;
2042.0;1911.1;;;;;;;0.5592822;0.2743614;0.13397625;;;;;;;;;;;;
2044.0;1919.7;;;;-1.0181581;-0.09461595;0.25439456;;;;;;;;;;;;;;;
2044.0;1919.7;;;;-1.0110284;-0.10391237;0.24855807;;;;;;;;;;;;;;;
2044.0;1919.7;;;;-1.0038148;-0.11281969;0.24208835;;;;;;;;;;;;;;;
2044.0;1919.7;;;;-0.994568;-0.12118913;0.23642352;;;;;;;;;;;;;;;
2044.0;1919.7;;;;-0.9859735;-0.12887956;0.23031238;;;;;;;;;;;;;;;
2044.0;1920.6;;;;;;;;;;-34.06247;7.5914793;0.099185154;;;;;;;;;
2044.0;1920.6;;;;;;;0.5979186;0.2883999;0.113956116;;;;;;;;;;;;
2044.0;1920.6;;;;;;;;;;-35.84399;10.277108;0.54933316;;;;;;;;;
2044.0;1920.6;;;;;;;0.6473586;0.300119;0.095706046;;;;;;;;;;;;
2044.0;1923.2;262143;262143;13603;;;;;;;;;;;;;;;;;;
2044.0;1929.1;;;;;;;;;;;;;3183;;;;;;;;
2044.0;1929.1;;;;;;;;;;;;;5074;;;;;;;;
2044.0;1929.1;;;;;;;;;;;;;3245;;;;;;;;
2044.0;1929.1;;;;;;;;;;;;;2672;;;;;;;;
2044.0;1929.1;;;;;;;;;;;;;3105;;;;;;;;
2044.0;1929.7;;;;-0.9790727;-0.13599397;0.22372058;;;;;;;;;;;;;;;
2044.0;1929.7;;;;-0.9741212;-0.14462663;0.21752933;;;;;;;;;;;;;;;
2044.0;1929.7;;;;-0.96727;-0.15264131;0.21203998;;;;;;;;;;;;;;;
2044.0;1929.7;;;;-0.95435345;-0.15859224;0.20728305;;;;;;;;;;;;;;;
2044.0;1929.7;;;;-0.94298947;-0.16399385;0.20114139;;;;;;;;;;;;;;;
2044.0;1930.2;;;;;;;;;;-37.430954;13.515885;1.6289254;;;;;;;;;
2044.0;1930.2;;;;;;;0.7053438;0.31086153;0.080568865;;;;;;;;;;;;
2044.0;1930.2;;;;;;;;;;-38.89203;17.384106;3.0861845;;;;;;;;;
2044.0;1930.2;;;;;;;0.7721183;0.31452376;0.07281716;;;;;;;;;;;;
2048.0;1939.4;;;;;;;;;;-40.089874;21.771143;5.054628;;;;;;;;;
2048.0;1939.4;;;;;;;0.8396863;0.31232643;0.0695822;;;;;;;;;;;;
2048.0;1939.4;;;;;;;;;;-41.165653;27.195808;7.744072;;;;;;;;;
2048.0;1939.4;;;;;;;0.9140904;0.3098239;0.06445509;;;;;;;;;;;;
2048.0;1939.4;;;;-0.93413556;-0.16844179;0.19453052;;;;;;;;;;;;;;;
2048.0;1939.4;;;;-0.9249803;-0.17293169;0.1892586;;;;;;;;;;;;;;;
2048.0;1939.4;;;;-0.9183694;-0.17733385;0.18330385;;;;;;;;;;;;;;;
2048.0;1939.4;;;;-0.91103375;-0.18126298;0.17766954;;;;;;;;;;;;;;;
2048.0;1939.4;;;;-0.9043275;-0.18580629;0.17297365;;;;;;;;;;;;;;;
2048.0;1943.0;262143;262143;13599;;;;;;;;;;;;;;;;;;
2048.0;1949.1;;;;;;;;;;-42.283394;33.92895;11.074404;;;;;;;;;
2048.0;1949.1;;;;;;;1.0054017;0.3048799;0.06042665;;;;;;;;;;;;
2048.0;1949.1;;;;;;;;;;-43.30958;41.711174;14.561144;;;;;;;;;
2048.0;1949.1;;;;;;;1.1200293;0.29621264;0.05566576;;;;;;;;;;;;
2048.0;1949.6;;;;-0.89698803;-0.1908913;0.16739275;;;;;;;;;;;;;;;
2048.0;1949.6;;;;-0.8880731;-0.1940346;0.16255952;;;;;;;;;;;;;;;
2048.0;1949.6;;;;-0.87846386;-0.19667819;0.15740968;;;;;;;;;;;;;;;
2048.0;1949.6;;;;-0.8698045;-0.19744876;0.1507683;;;;;;;;;;;;;;;
2048.0;1949.6;;;;-0.864113;-0.19814304;0.14377214;;;;;;;;;;;;;;;
2048.0;1958.7;;;;;;;;;;-44.00006;50.511948;17.685476;;;;;;;;;
2048.0;1958.7;;;;;;;1.2571185;0.27607045;0.049867246;;;;;;;;;;;;
2048.0;1958.7;;;;;;;;;;-44.576096;59.385204;19.901882;;;;;;;;;
2048.0;1958.7;;;;;;;1.4060488;0.25208288;0.034363844;;;;;;;;;;;;
2049.0;1959.7;;;;-0.8629266;-0.19911197;0.13603593;;;;;;;;;;;;;;;
2049.0;1959.7;;;;-0.86205685;-0.20117953;0.12832262;;;;;;;;;;;;;;;
2049.0;1959.7;;;;-0.8599626;-0.20346072;0.12086107;;;;;;;;;;;;;;;
2049.0;1959.7;;;;-0.85767376;-0.20783237;0.11325075;;;;;;;;;;;;;;;
2049.0;1959.7;;;;-0.8551408;-0.2157059;0.10552217;;;;;;;;;;;;;;;
2049.0;1963.3;;;;;;;;;;;;;;;;;-7.8356276;-15.850552;85.32212;;1849.4
2049.0;1963.3;;;;;;;;;;;;;;0.66548663;0.3217261;0.031434067;;;;;1849.4
2049.0;1963.3;;;;;;;;;;;;;;;;;-13.863032;-15.106662;92.92505;;1849.4
2049.0;1963.3;;;;;;;;;;;;;;0.618244;0.35444197;0.05365154;;;;;1849.4
2049.0;1963.3;;;;;;;;;;;;;;;;;-17.296364;-14.816737;100.53941;;1858.9
2049.0;1963.3;;;;;;;;;;;;;;0.57307655;0.37385175;0.045411542;;;;;1858.9
2049.0;1963.3;;;;;;;;;;;;;;;;;-17.532883;-15.377514;107.76086;;1858.9
2049.0;1963.3;;;;;;;;;;;;;;0.5339518;0.3894162;0.007080294;;;;;1858.9
2049.0;1963.3;;;;;;;;;;;;;;;;;-15.362254;-16.434217;114.89456;;1868.7
2049.0;1963.3;;;;;;;;;;;;;;0.5088046;0.38856167;-0.05719169;;;;;1868.7
2049.0;1963.3;;;;;;;;;;;;;;;;;-11.230811;-17.00644;121.353035;;1868.7
2049.0;1963.3;;;;;;;;;;;;;;0.49342325;0.37818536;-0.121768855;;;;;1868.7
2050.0;1964.0;;;;;;;;;;;;;;;;;-6.3364053;-17.265846;124.75967;;1878.3
2050.0;1964.0;;;;;;;;;;;;;;0.48554948;0.34662923;-0.17981505;;;;;1878.3
2050.0;1964.0;;;;;;;;;;;;;;;;;-0.2822962;-15.316477;124.988556;;1878.3
2050.0;1964.0;;;;;;;;;;;;;;0.49604785;0.32831812;-0.19544053;;;;;1878.3
2050.0;1964.0;;;;;;;;;;;;;;;;;6.9429607;-12.428662;124.988556;;1887.9
2050.0;1964.0;;;;;;;;;;;;;;0.5076449;0.32105473;-0.18402661;;;;;1887.9
2050.0;1964.0;;;;;;;;;;;;;;;;;16.315958;-10.280923;124.988556;;1887.9
2050.0;1964.0;;;;;;;;;;;;;;0.5327311;0.32941678;-0.16119877;;;;;1887.9
2050.0;1964.0;;;;;;;;;;;;;;;;;28.550066;-10.227515;124.988556;;1897.4
2050.0;1964.0;;;;;;;;;;;;;;0.5859554;0.34546953;-0.15503404;;;;;1897.4
2050.0;1964.0;;;;;;;;;;;;;;;;;43.980988;-9.941404;124.988556;;1897.4
2050.0;1964.0;;;;;;;;;;;;;;0.64772487;0.38459426;-0.1472213;;;;;1897.4
2050.0;1963.2;262143;262143;13609;;;;;;;;;;;;;;;;;;
2050.0;1968.0;;;;;;;;;;-45.44206;67.35817;21.252327;;;;;;;;;
2050.0;1968.0;;;;;;;1.5446638;0.22125919;0.023255104;;;;;;;;;;;;
2050.0;1968.0;;;;;;;;;;-46.51021;73.33216;21.568956;;;;;;;;;
2050.0;1968.0;;;;;;;1.6628315;0.18079165;0.0144657735;;;;;;;;;;;;
2050.0;1968.8;;;;;;;;;;;;;3177;;;;;;;;
2050.0;1968.8;;;;;;;;;;;;;3419;;;;;;;;
2050.0;1968.8;;;;;;;;;;;;;3622;;;;;;;;
2050.0;1968.8;;;;;;;;;;;;;3240;;;;;;;;
2050.0;1968.8;;;;;;;;;;;;;2697;;;;;;;;
2053.0;1969.4;;;;-0.8522607;-0.22309497;0.09743883;;;;;;;;;;;;;;;
2053.0;1969.4;;;;-0.8490449;-0.23184207;0.090370186;;;;;;;;;;;;;;;
2053.0;1969.4;;;;-0.84435666;-0.2403374;0.08378602;;;;;;;;;;;;;;;
2053.0;1969.4;;;;-0.83955014;-0.24851993;0.07551194;;;;;;;;;;;;;;;
2053.0;1969.4;;;;-0.8336526;-0.25805286;0.06937028;;;;;;;;;;;;;;;
2053.0;1977.5;;;;;;;;;;-47.559284;77.01727;20.535141;;;;;;;;;
2053.0;1977.5;;;;;;;1.7415082;0.12738426;0.009887997;;;;;;;;;;;;
2053.0;1977.5;;;;;;;;;;-48.741875;77.93283;18.395031;;;;;;;;;
2053.0;1977.5;;;;;;;1.7818537;0.068971835;0.020142216;;;;;;;;;;;;
2053.0;1979.4;;;;-0.82696545;-0.26846698;0.06388856;;;;;;;;;;;;;;;
2053.0;1979.4;;;;-0.81909955;-0.27941898;0.057716377;;;;;;;;;;;;;;;
2053.0;1979.4;;;;-0.8115579;-0.28965762;0.053230293;;;;;;;;;;;;;;;
2053.0;1979.4;;;;-0.80313885;-0.2974396;0.048221596;;;;;;;;;;;;;;;
2053.0;1979.4;;;;-0.79568493;-0.3056107;0.04276276;;;;;;;;;;;;;;;
2053.0;1983.1;262143;262143;13605;;;;;;;;;;;;;;;;;;
2053.0;1987.1;;;;;;;;;;-49.623096;75.15183;14.820552;;;;;;;;;
2053.0;1987.1;;;;;;;1.7902157;0.006225776;0.038880583;;;;;;;;;;;;
2053.0;1987.1;;;;;;;;;;-50.0885;69.421974;10.216071;;;;;;;;;
2053.0;1987.1;;;;;;;1.7733085;-0.060548723;0.06714072;;;;;;;;;;;;
2097.0;1989.5;;;;-0.78805554;-0.31155398;0.037910465;;;;;;;;;;;;;;;
2097.0;1989.5;;;;-0.7809869;-0.31639102;0.033275608;;;;;;;;;;;;;;;
2097.0;1989.5;;;;-0.77495205;-0.32083133;0.029571537;;;;;;;;;;;;;;;
2097.0;1989.5;;;;-0.7682725;-0.3238831;0.02469254;;;;;;;;;;;;;;;
2097.0;1989.5;;;;-0.7604257;-0.32484058;0.020889284;;;;;;;;;;;;;;;
2097.0;1996.3;;;;;;;;;;-49.9855;61.067535;5.2568135;;;;;;;;;
2097.0;1996.3;;;;;;;1.7374798;-0.13495284;0.09790338;;;;;;;;;;;;
2097.0;1996.3;;;;;;;;;;-48.757133;50.382244;-0.08774071;;;;;;;;;
2097.0;1996.3;;;;;;;1.6993927;-0.21222572;0.12872708;;;;;;;;;;;;
2097.0;1999.0;;;;-0.7527009;-0.32550433;0.016113283;;;;;;;;;;;;;;;
2097.0;1999.0;;;;-0.7473603;-0.32747653;0.011810305;;;;;;;;;;;;;;;
2097.0;1999.0;;;;-0.74213415;-0.3274689;0.007835389;;;;;;;;;;;;;;;
2097.0;1999.0;;;;-0.73598486;-0.32540134;0.0047149663;;;;;;;;;;;;;;;
2097.0;1999.0;;;;-0.7283326;-0.3212624;0.0016441348;;;;;;;;;;;;;;;
2097.0;2002.8;262143;262143;13609;;;;;;;;;;;;;;;;;;
2097.0;2005.8;;;;;;;;;;-46.33473;38.510544;-5.6611834;;;;;;;;;
2097.0;2005.8;;;;;;;1.6625874;-0.27356791;0.16278572;;;;;;;;;;;;
2097.0;2005.8;;;;;;;;;;-42.8251;25.89114;-10.311441;;;;;;;;;
2097.0;2005.8;;;;;;;1.6301767;-0.3039033;0.19379254;;;;;;;;;;;;
2097.0;2008.6;;;;;;;;;;;;;2423;;;;;;;;
2097.0;2008.6;;;;;;;;;;;;;2315;;;;;;;;
2097.0;2008.6;;;;;;;;;;;;;2086;;;;;;;;
2097.0;2008.6;;;;;;;;;;;;;1610;;;;;;;;
2097.0;2008.6;;;;;;;;;;;;;987;;;;;;;;
2103.0;2009.1;;;;-0.7214661;-0.31774524;-0.0015411379;;;;;;;;;;;;;;;
2103.0;2009.1;;;;-0.7138749;-0.31478503;-0.0042839055;;;;;;;;;;;;;;;
2103.0;2009.1;;;;-0.7052308;-0.31168368;-0.006385804;;;;;;;;;;;;;;;
2103.0;2009.1;;;;-0.6971207;-0.30763248;-0.008342744;;;;;;;;;;;;;;;
2103.0;2009.1;;;;-0.6885949;-0.30367282;-0.010787965;;;;;;;;;;;;;;;
2103.0;2015.4;;;;;;;;;;-38.514362;13.550219;-13.954588;;;;;;;;;
2103.0;2015.4;;;;;;;1.614307;-0.30756554;0.21857357;;;;;;;;;;;;
2103.0;2015.4;;;;;;;;;;-33.92895;1.1444441;-16.785181;;;;;;;;;
2103.0;2015.4;;;;;;;1.6071047;-0.28925443;0.24427015;;;;;;;;;;;;
2103.0;2019.3;;;;-0.6788178;-0.29958346;-0.011558534;;;;;;;;;;;;;;;
2103.0;2019.3;;;;-0.66878515;-0.2947426;-0.013164522;;;;;;;;;;;;;;;
2103.0;2019.3;;;;-0.6579972;-0.29051974;-0.014068605;;;;;;;;;;;;;;;
2103.0;2019.3;;;;-0.6460419;-0.28691486;-0.015369417;;;;;;;;;;;;;;;
2103.0;2019.3;;;;-0.63496786;-0.28359225;-0.017391207;;;;;;;;;;;;;;;
2103.0;2023.0;262143;262143;13613;;;;;;;;;;;;;;;;;;
2103.0;2024.9;;;;;;;;;;-28.798029;-9.750664;-18.642994;;;;;;;;;
2103.0;2024.9;;;;;;;1.6148564;-0.25208288;0.2614826;;;;;;;;;;;;
2103.0;2024.9;;;;;;;;;;-23.78155;-16.865292;-20.290993;;;;;;;;;
2103.0;2024.9;;;;;;;1.642201;-0.20996734;0.27918333;;;;;;;;;;;;
2105.0;2029.3;;;;-0.6222649;-0.28068164;-0.019119265;;;;;;;;;;;;;;;
2105.0;2029.3;;;;-0.60882574;-0.27706912;-0.020908358;;;;;;;;;;;;;;;
2105.0;2029.3;;;;-0.5951043;-0.27461246;-0.023059847;;;;;;;;;;;;;;;
2105.0;2029.3;;;;-0.58030325;-0.27278903;-0.02418137;;;;;;;;;;;;;;;
2105.0;2029.3;;;;-0.5656586;-0.27195743;-0.02550507;;;;;;;;;;;;;;;
2105.0;2030.9;;;;;;;;;;;;;;;;;57.943207;-10.280923;124.988556;;1907.1
2105.0;2030.9;;;;;;;;;;;;;;0.71596426;0.44801173;-0.11200293;;;;;1907.1
2105.0;2030.9;;;;;;;;;;;;;;;;;69.799644;-10.998108;124.988556;;1907.1
2105.0;2030.9;;;;;;;;;;;;;;0.78017515;0.47383037;-0.09271523;;;;;1907.1
2105.0;2030.9;;;;;;;;;;;;;;;;;81.5836;-10.639516;124.988556;;1916.7
2105.0;2030.9;;;;;;;;;;;;;;0.8422498;0.5152745;-0.06250191;;;;;1916.7
2105.0;2030.9;;;;;;;;;;;;;;;;;91.185486;-8.873257;124.988556;;1916.7
2105.0;2030.9;;;;;;;;;;;;;;0.8976104;0.52809227;-0.04388562;;;;;1916.7
2105.0;2030.9;;;;;;;;;;;;;;;;;103.862114;-5.22248;124.81689;;1926.4
2105.0;2030.9;;;;;;;;;;;;;;0.89767146;0.50129706;-0.049012728;;;;;1926.4
2105.0;2030.9;;;;;;;;;;;;;;;;;117.88156;-4.6121097;119.56008;;1926.4
2105.0;2030.9;;;;;;;;;;;;;;0.88747823;0.5206458;-0.050904874;;;;;1926.4
2106.0;2031.5;;;;;;;;;;;;;;;;;124.52696;-13.168737;108.10801;;1936.0
2106.0;2031.5;;;;;;;;;;;;;;0.88912624;0.5714286;-0.1386761;;;;;1936.0
2106.0;2031.5;;;;;;;;;;;;;;;;;124.988556;-21.397291;97.54861;;1936.0
2106.0;2031.5;;;;;;;;;;;;;;0.8862575;0.59327984;-0.29706717;;;;;1936.0
2106.0;2031.5;;;;;;;;;;;;;;;;;124.988556;-19.413588;84.4409;;1945.6
2106.0;2031.5;;;;;;;;;;;;;;0.8615375;0.65468305;-0.41328165;;;;;1945.6
2106.0;2031.5;;;;;;;;;;;;;;;;;123.50459;-12.489699;71.44765;;1945.6
2106.0;2031.5;;;;;;;;;;;;;;0.7953734;0.7431257;-0.4575335;;;;;1945.6
2106.0;2031.5;;;;;;;;;;;;;;;;;111.827446;-8.89233;60.995056;;1955.2
2106.0;2031.5;;;;;;;;;;;;;;0.6961882;0.81514937;-0.48670918;;;;;1955.2
2106.0;2031.5;;;;;;;;;;;;;;;;;94.38231;-8.827478;52.537613;;1955.2
2106.0;2031.5;;;;;;;;;;;;;;0.59035003;0.8878445;-0.4707175;;;;;1955.2
2106.0;2034.2;;;;;;;;;;-19.276255;-21.065401;-21.862698;;;;;;;;;
2106.0;2034.2;;;;;;;1.6821193;-0.18115787;0.2946257;;;;;;;;;;;;
2106.0;2034.2;;;;;;;;;;-15.045625;-23.52214;-23.216955;;;;;;;;;
2106.0;2034.2;;;;;;;1.7105625;-0.17059846;0.3010956;;;;;;;;;;;;
2106.0;2038.9;;;;-0.55136496;-0.27129748;-0.026645664;;;;;;;;;;;;;;;
2106.0;2038.9;;;;-0.538765;-0.2699013;-0.027961735;;;;;;;;;;;;;;;
2106.0;2038.9;;;;-0.5270577;-0.26767352;-0.029865269;;;;;;;;;;;;;;;
2106.0;2038.9;;;;-0.51621634;-0.2682915;-0.032012943;;;;;;;;;;;;;;;
2106.0;2038.9;;;;-0.5067559;-0.27034;-0.03297806;;;;;;;;;;;;;;;
2106.0;2042.8;262143;262143;13611;;;;;;;;;;;;;;;;;;
2161.0;2043.7;;;;;;;;;;-10.986664;-24.28129;-24.079105;;;;;;;;;
2161.0;2043.7;;;;;;;1.7253945;-0.1793878;0.29999694;;;;;;;;;;;;
2161.0;2043.7;;;;;;;;;;-7.492294;-23.384808;-24.662771;;;;;;;;;
2161.0;2043.7;;;;;;;1.7235633;-0.2014832;0.2973113;;;;;;;;;;;;
2161.0;2048.6;;;;;;;;;;;;;371;;;;;;;;
2161.0;2048.6;;;;;;;;;;;;;-320;;;;;;;;
2161.0;2048.6;;;;;;;;;;;;;-996;;;;;;;;
2161.0;2048.6;;;;;;;;;;;;;-1213;;;;;;;;
2161.0;2048.6;;;;;;;;;;;;;-1012;;;;;;;;
2161.0;2049.0;;;;-0.4990273;-0.27359775;-0.034782413;;;;;;;;;;;;;;;
2161.0;2049.0;;;;-0.49309164;-0.2763405;-0.037643436;;;;;;;;;;;;;;;
2161.0;2049.0;;;;-0.48703772;-0.27865985;-0.040340427;;;;;;;;;;;;;;;
2161.0;2049.0;;;;-0.48333365;-0.27998737;-0.044651035;;;;;;;;;;;;;;;
2161.0;2049.0;;;;-0.48075873;-0.2817116;-0.047821052;;;;;;;;;;;;;;;
2161.0;2053.1;;;;;;;;;;-4.3717766;-21.71392;-25.143436;;;;;;;;;
2161.0;2053.1;;;;;;;1.711539;-0.22791223;0.2878506;;;;;;;;;;;;
2161.0;2053.1;;;;;;;;;;-1.53737;-19.848475;-25.807215;;;;;;;;;
2161.0;2053.1;;;;;;;1.6850489;-0.25080112;0.2763146;;;;;;;;;;;;
2161.0;2058.8;;;;-0.47959524;-0.28470615;-0.051265724;;;;;;;;;;;;;;;
2161.0;2058.8;;;;-0.47949225;-0.28678897;-0.055252083;;;;;;;;;;;;;;;
2161.0;2058.8;;;;-0.48350912;-0.2882538;-0.059638985;;;;;;;;;;;;;;;
2161.0;2058.8;;;;-0.4894448;-0.2910767;-0.064861305;;;;;;;;;;;;;;;
2161.0;2058.8;;;;-0.49537665;-0.29391864;-0.069026954;;;;;;;;;;;;;;;
2161.0;2062.6;;;;;;;;;;1.0567034;-18.414106;-26.69988;;;;;;;;;
2161.0;2062.6;;;;;;;1.6468399;-0.26508376;0.2636189;;;;;;;;;;;;
2161.0;2062.6;;;;;;;;;;3.646962;-17.433699;-27.737509;;;;;;;;;
2161.0;2062.6;;;;;;;1.5875118;-0.27875605;0.25452438;;;;;;;;;;;;
2163.0;2062.7;262143;262143;13619;;;;;;;;;;;;;;;;;;
2163.0;2068.9;;;;-0.5043908;-0.29781345;-0.07402802;;;;;;;;;;;;;;;
2163.0;2068.9;;;;-0.5154763;-0.30019763;-0.07936097;;;;;;;;;;;;;;;
2163.0;2068.9;;;;-0.52927405;-0.30206683;-0.084327705;;;;;;;;;;;;;;;
2163.0;2068.9;;;;-0.54391867;-0.3032494;-0.08907319;;;;;;;;;;;;;;;
2163.0;2068.9;;;;-0.5597916;-0.3042641;-0.09431459;;;;;;;;;;;;;;;
2163.0;2072.2;;;;;;;;;;6.111332;-17.441328;-28.866695;;;;;;;;;
2163.0;2072.2;;;;;;;1.5137181;-0.28730124;0.24597919;;;;;;;;;;;;
2163.0;2072.2;;;;;;;;;;8.285776;-18.337809;-29.992064;;;;;;;;;
2163.0;2072.2;;;;;;;1.4302804;-0.28931546;0.23487045;;;;;;;;;;;;
2163.0;2079.0;;;;-0.5769463;-0.30591968;-0.09874727;;;;;;;;;;;;;;;
2163.0;2079.0;;;;-0.5949479;-0.30798343;-0.10387422;;;;;;;;;;;;;;;
2163.0;2079.0;;;;-0.6126519;-0.31016544;-0.10821535;;;;;;;;;;;;;;;
2163.0;2079.0;;;;-0.632;-0.3132477;-0.11322023;;;;;;;;;;;;;;;
2163.0;2079.0;;;;-0.65372854;-0.32107928;-0.11791994;;;;;;;;;;;;;;;
2163.0;2081.9;;;;;;;;;;10.460219;-19.87518;-30.980103;;;;;;;;;
2163.0;2081.9;;;;;;;1.3495284;-0.28357798;0.22620319;;;;;;;;;;;;
2163.0;2081.9;;;;;;;;;;12.981811;-22.076328;-32.0101;;;;;;;;;
2163.0;2081.9;;;;;;;1.2768334;-0.26996672;0.21692556;;;;;;;;;;;;
2164.0;2082.9;;;;;;;;;;;;;;;;;73.580124;-11.543626;47.074802;;1964.9
2164.0;2082.9;;;;;;;;;;;;;;0.4923246;0.92031616;-0.42036194;;;;;1964.9
2164.0;2082.9;;;;;;;;;;;;;;;;;50.89343;-19.108402;42.794582;;1964.9
2164.0;2082.9;;;;;;;;;;;;;;0.41785944;0.933195;-0.36500138;;;;;1964.9
2164.0;2082.9;;;;;;;;;;;;;;;;;30.09125;-28.24488;39.11328;;1974.6
2164.0;2082.9;;;;;;;;;;;;;;0.36750388;0.90664387;-0.3126316;;;;;1974.6
2164.0;2082.9;;;;;;;;;;;;;;;;;11.123997;-33.352917;34.321877;;1974.6
2164.0;2082.9;;;;;;;;;;;;;;0.3524888;0.8600726;-0.23078097;;;;;1974.6
2164.0;2082.9;;;;;;;;;;;;;;;;;-8.190405;-30.438398;30.0531;;1984.3
2164.0;2082.9;;;;;;;;;;;;;;0.3558458;0.78609574;-0.05121006;;;;;1984.3
2164.0;2082.9;;;;;;;;;;;;;;;;;-32.841732;-27.11951;26.173437;;1984.3
2164.0;2082.9;;;;;;;;;;;;;;0.3310648;0.7168798;0.105288856;;;;;1984.3
2164.0;2083.0;262143;262143;13622;;;;;;;;;;;;;;;;;;
2165.0;2083.7;;;;;;;;;;;;;;;;;-62.459946;-27.2454;22.385326;;1993.8
2165.0;2083.7;;;;;;;;;;;;;;0.36201057;0.65517133;0.20032349;;;;;1993.8
2165.0;2083.7;;;;;;;;;;;;;;;;;-88.1489;-21.790216;19.650105;;1993.8
2165.0;2083.7;;;;;;;;;;;;;;0.41529587;0.58876306;0.27344584;;;;;1993.8
2165.0;2083.7;;;;;;;;;;;;;;;;;-103.23267;-15.957365;17.418438;;2003.4
2165.0;2083.7;;;;;;;;;;;;;;0.41346475;0.49269083;0.31666005;;;;;2003.4
2165.0;2083.7;;;;;;;;;;;;;;;;;-101.4893;-17.685476;15.381329;;2003.4
2165.0;2083.7;;;;;;;;;;;;;;0.39667958;0.43079928;0.27350688;;;;;2003.4
2165.0;2083.7;;;;;;;;;;;;;;;;;-87.912384;-23.041475;15.007477;;2013.1
2165.0;2083.7;;;;;;;;;;;;;;0.42640463;0.3852046;0.18695639;;;;;2013.1
2165.0;2083.7;;;;;;;;;;;;;;;;;-68.75439;-20.622883;17.719809;;2013.1
2165.0;2083.7;;;;;;;;;;;;;;0.44520402;0.31421858;0.18915372;;;;;2013.1
2165.0;2088.6;;;;;;;;;;;;;-731;;;;;;;;
2165.0;2088.6;;;;;;;;;;;;;-497;;;;;;;;
2165.0;2088.6;;;;;;;;;;;;;-532;;;;;;;;
2165.0;2088.6;;;;;;;;;;;;;-757;;;;;;;;
2165.0;2088.6;;;;;;;;;;;;;-619;;;;;;;;
2165.0;2089.0;;;;-0.67557913;-0.32930377;-0.1226082;;;;;;;;;;;;;;;
2165.0;2089.0;;;;-0.6970864;-0.33537677;-0.12767793;;;;;;;;;;;;;;;
2165.0;2089.0;;;;-0.7188073;-0.33949664;-0.13301088;;;;;;;;;;;;;;;
2165.0;2089.0;;;;-0.7398415;-0.34356692;-0.13745119;;;;;;;;;;;;;;;
2165.0;2089.0;;;;-0.7613603;-0.34765247;-0.14192964;;;;;;;;;;;;;;;
2165.0;2091.4;;;;;;;;;;15.583514;-24.75814;-32.79214;;;;;;;;;
2165.0;2091.4;;;;;;;1.2104862;-0.25287637;0.20819727;;;;;;;;;;;;
2165.0;2091.4;;;;;;;;;;18.078402;-27.386547;-33.227028;;;;;;;;;
2165.0;2091.4;;;;;;;1.1520737;-0.23505355;0.19806513;;;;;;;;;;;;
2167.0;2098.3;;;;;;;;;;;;;;;;;-50.611134;-12.405774;21.355328;;2022.8
2167.0;2098.3;;;;;;;;;;;;;;0.443556;0.18451491;0.29523605;;;;;2022.8
2167.0;2098.3;;;;;;;;;;;;;;;;;-33.303326;-9.868922;20.0354;;2022.8
2167.0;2098.3;;;;;;;;;;;;;;0.42481765;0.14172795;0.37916195;;;;;2022.8
2167.0;2098.3;;;;;;;;;;;;;;;;;-15.36607;-20.687735;17.654957;;2032.4
2167.0;2098.3;;;;;;;;;;;;;;0.48152104;0.11120945;0.3319193;;;;;2032.4
2167.0;2098.3;;;;;;;;;;;;;;;;;5.779443;-30.102694;15.45381;;2032.4
2167.0;2098.3;;;;;;;;;;;;;;0.64638203;0.07959227;0.22937712;;;;;2032.4
2167.0;2098.3;;;;;;;;;;;;;;;;;26.589252;-24.6704;12.764366;;2041.9
2167.0;2098.3;;;;;;;;;;;;;;0.7026582;0.04730369;0.23395489;;;;;2041.9
2167.0;2098.3;;;;;;;;;;;;;;;;;41.856136;-33.581806;8.808405;;2041.9
2167.0;2098.3;;;;;;;;;;;;;;0.69484544;0.077333905;0.15521714;;;;;2041.9
2167.0;2098.9;;;;-0.78263104;-0.35170367;-0.14716722;;;;;;;;;;;;;;;
2167.0;2098.9;;;;-0.8039018;-0.35571674;-0.15052415;;;;;;;;;;;;;;;
2167.0;2098.9;;;;-0.8253747;-0.3594742;-0.15187456;;;;;;;;;;;;;;;
2167.0;2098.9;;;;-0.8489877;-0.36336902;-0.15358354;;;;;;;;;;;;;;;
2167.0;2098.9;;;;-0.8760835;-0.36729053;-0.15472414;;;;;;;;;;;;;;;
2167.0;2100.8;;;;;;;;;;20.062105;-29.648733;-33.284252;;;;;;;;;
2167.0;2100.8;;;;;;;1.1040376;-0.21344645;0.18622394;;;;;;;;;;;;
2167.0;2100.8;;;;;;;;;;21.462143;-31.228065;-32.868435;;;;;;;;;
2167.0;2100.8;;;;;;;1.0609455;-0.19428083;0.17316203;;;;;;;;;;;;
2167.0;2102.9;262143;262143;13629;;;;;;;;;;;;;;;;;;
2219.0;2109.0;;;;-0.90924084;-0.3709946;-0.15853883;;;;;;;;;;;;;;;
2219.0;2109.0;;;;-0.95039;-0.37331393;-0.16300584;;;;;;;;;;;;;;;
2219.0;2109.0;;;;-1.0021363;-0.37544256;-0.16881181;;;;;;;;;;;;;;;
2219.0;2109.0;;;;-1.0637552;-0.37719733;-0.17519762;;;;;;;;;;;;;;;
2219.0;2109.0;;;;-1.1351548;-0.37733847;-0.18153001;;;;;;;;;;;;;;;
2219.0;2110.4;;;;;;;;;;22.270882;-32.15888;-32.242805;;;;;;;;;
2219.0;2110.4;;;;;;;1.022248;-0.17761773;0.16534929;;;;;;;;;;;;
2219.0;2110.4;;;;;;;;;;22.808771;-32.319103;-31.506546;;;;;;;;;
2219.0;2110.4;;;;;;;0.98660237;-0.16180913;0.15979491;;;;;;;;;;;;
2219.0;2118.7;;;;-1.2142106;-0.3754235;-0.18827823;;;;;;;;;;;;;;;
2219.0;2118.7;;;;-1.2960168;-0.3692284;-0.19305423;;;;;;;;;;;;;;;
2219.0;2118.7;;;;-1.3795892;-0.35877994;-0.19798282;;;;;;;;;;;;;;;
2219.0;2118.7;;;;-1.4602891;-0.34437183;-0.20288089;;;;;;;;;;;;;;;
2219.0;2118.7;;;;-1.5358317;-0.32483676;-0.20722201;;;;;;;;;;;;;;;
2219.0;2119.6;;;;;;;;;;23.117771;-31.647694;-30.663471;;;;;;;;;
2219.0;2119.6;;;;;;;0.9540086;-0.14868619;0.15735343;;;;;;;;;;;;
2219.0;2119.6;;;;;;;;;;23.380993;-30.407879;-29.808954;;;;;;;;;
2219.0;2119.6;;;;;;;0.9225745;-0.1396527;0.15460677;;;;;;;;;;;;
2219.0;2122.8;262143;262143;13653;;;;;;;;;;;;;;;;;;
2219.0;2128.5;;;;;;;;;;;;;197;;;;;;;;
2219.0;2128.5;;;;;;;;;;;;;1429;;;;;;;;
2219.0;2128.5;;;;;;;;;;;;;2261;;;;;;;;
2219.0;2128.5;;;;;;;;;;;;;2262;;;;;;;;
2219.0;2128.5;;;;;;;;;;;;;1947;;;;;;;;
2220.0;2128.8;;;;-1.6026232;-0.30102542;-0.21297458;;;;;;;;;;;;;;;
2220.0;2128.8;;;;-1.6614268;-0.27406314;-0.2183533;;;;;;;;;;;;;;;
2220.0;2128.8;;;;-1.7087901;-0.24493411;-0.22224048;;;;;;;;;;;;;;;
2220.0;2128.8;;;;-1.7450335;-0.21335223;-0.22536471;;;;;;;;;;;;;;;
2220.0;2128.8;;;;-1.7693789;-0.18202592;-0.2286034;;;;;;;;;;;;;;;
2220.0;2129.3;;;;;;;;;;23.426771;-28.75225;-28.881954;;;;;;;;;
2220.0;2129.3;;;;;;;0.89602345;-0.13110752;0.15179907;;;;;;;;;;;;
2220.0;2129.3;;;;;;;;;;23.167364;-26.715141;-27.94351;;;;;;;;;
2220.0;2129.3;;;;;;;0.8665426;-0.12537004;0.15442365;;;;;;;;;;;;
2220.0;2138.9;;;;;;;;;;22.671436;-24.662771;-27.027956;;;;;;;;;
2220.0;2138.9;;;;;;;0.8400525;-0.11859493;0.15796381;;;;;;;;;;;;
2220.0;2138.9;;;;;;;;;;22.007662;-22.469252;-26.299326;;;;;;;;;
2220.0;2138.9;;;;;;;0.81209755;-0.11444441;0.15924558;;;;;;;;;;;;
2220.0;2138.9;;;;-1.7848132;-0.15018465;-0.23023227;;;;;;;;;;;;;;;
2220.0;2138.9;;;;-1.7907794;-0.115547195;-0.2284508;;;;;;;;;;;;;;;
2220.0;2138.9;;;;-1.7875521;-0.07657624;-0.22481921;;;;;;;;;;;;;;;
2220.0;2138.9;;;;-1.7772372;-0.036731724;-0.21986392;;;;;;;;;;;;;;;
2220.0;2138.9;;;;-1.7646677;0.0013732911;-0.214901;;;;;;;;;;;;;;;
2222.0;2142.9;;;;;;;;;;;;;;;;;41.665394;-76.807465;4.8142953;;2051.5
2222.0;2142.9;;;;;;;;;;;;;;0.82033753;0.20068972;-0.235786;;;;;2051.5
2222.0;2142.9;;;;;;;;;;;;;;;;;28.393658;-119.960625;6.126591;;2051.5
2222.0;2142.9;;;;;;;;;;;;;;1.1919309;0.36927396;-0.88235116;;;;;2051.5
2222.0;2142.9;;;;;;;;;;;;;;;;;11.043886;-124.54222;10.059664;;2061.1
2222.0;2142.9;;;;;;;;;;;;;;1.5948362;0.5503098;-1.4978484;;;;;2061.1
2222.0;2142.9;;;;;;;;;;;;;;;;;-24.567402;-91.99423;-9.689628;;2061.1
2222.0;2142.9;;;;;;;;;;;;;;1.8255562;0.8037355;-1.4826503;;;;;2061.1
2222.0;2142.9;;;;;;;;;;;;;;;;;-73.957794;-31.937622;-39.288765;;2070.8
2222.0;2142.9;;;;;;;;;;;;;;1.9014252;1.0153508;-0.8691061;;;;;2070.8
2222.0;2142.9;;;;;;;;;;;;;;;;;-98.23527;-21.671957;-43.622395;;2070.8
2222.0;2142.9;;;;;;;;;;;;;;1.7183142;1.1023285;-0.56086916;;;;;2070.8
2222.0;2142.9;262143;262143;13665;;;;;;;;;;;;;;;;;;
2222.0;2148.4;;;;;;;;;;21.19892;-20.119328;-25.688955;;;;;;;;;
2222.0;2148.4;;;;;;;0.7842647;-0.10803553;0.16284677;;;;;;;;;;;;
2222.0;2148.4;;;;;;;;;;20.378735;-17.502365;-25.090029;;;;;;;;;
2222.0;2148.4;;;;;;;0.7572863;-0.10504471;0.16846217;;;;;;;;;;;;
2222.0;2148.9;;;;-1.7469103;0.040729526;-0.20486072;;;;;;;;;;;;;;;
2222.0;2148.9;;;;-1.7289202;0.08377839;-0.19571689;;;;;;;;;;;;;;;
2222.0;2148.9;;;;-1.7110484;0.12508775;-0.18365861;;;;;;;;;;;;;;;
2222.0;2148.9;;;;-1.6922648;0.1642914;-0.17201616;;;;;;;;;;;;;;;
2222.0;2148.9;;;;-1.67466;0.20174411;-0.15916826;;;;;;;;;;;;;;;
2226.0;2158.0;;;;;;;;;;;;;;;;;-101.71056;0.9498886;-19.013033;;2080.5
2226.0;2158.0;;;;;;;;;;;;;;1.3326823;0.5749687;-0.23987548;;;;;2080.5
2226.0;2158.0;;;;;;;;;;;;;;;;;-94.52345;16.052736;-7.904294;;2080.5
2226.0;2158.0;;;;;;;;;;;;;;1.2554094;0.24774925;0.13727225;;;;;2080.5
2226.0;2158.0;;;;;;;;;;;;;;;;;-70.77242;13.561663;-0.8049257;;2090.1
2226.0;2158.0;;;;;;;;;;;;;;1.2883694;0.014221625;0.1864681;;;;;2090.1
2226.0;2158.0;;;;;;;;;;;;;;;;;-46.903133;25.688955;2.5063326;;2090.1
2226.0;2158.0;;;;;;;;;;;;;;1.2067629;-0.05505539;0.059144873;;;;;2090.1
2226.0;2158.0;;;;;;;;;;;;;;;;;-27.184362;40.437023;5.9244056;;2099.7
2226.0;2158.0;;;;;;;;;;;;;;1.0326853;-0.14966278;0.04077273;;;;;2099.7
2226.0;2158.0;;;;;;;;;;;;;;;;;-9.788812;36.820583;9.960478;;2099.7
2226.0;2158.0;;;;;;;;;;;;;;0.893643;-0.22595905;0.0048829615;;;;;2099.7
2226.0;2157.8;;;;;;;;;;19.486069;-14.793848;-24.662771;;;;;;;;;
2226.0;2157.8;;;;;;;0.7347636;-0.100039676;0.17560351;;;;;;;;;;;;
2226.0;2157.8;;;;;;;;;;18.7727;-11.913663;-24.166845;;;;;;;;;
2226.0;2157.8;;;;;;;0.7118137;-0.09607227;0.1853084;;;;;;;;;;;;
2226.0;2158.8;;;;-1.6587756;0.23839954;-0.14469911;;;;;;;;;;;;;;;
2226.0;2158.8;;;;-1.6469195;0.2733002;-0.13024904;;;;;;;;;;;;;;;
2226.0;2158.8;;;;-1.638264;0.30801395;-0.11351396;;;;;;;;;;;;;;;
2226.0;2158.8;;;;-1.6337969;0.34050754;-0.09580232;;;;;;;;;;;;;;;
2226.0;2158.8;;;;-1.6330264;0.37074283;-0.07798768;;;;;;;;;;;;;;;
2226.0;2163.0;262143;262143;13663;;;;;;;;;;;;;;;;;;
2277.0;2167.4;;;;;;;;;;18.089846;-8.934294;-23.75866;;;;;;;;;
2277.0;2167.4;;;;;;;0.6914884;-0.09076205;0.19733268;;;;;;;;;;;;
2277.0;2167.4;;;;;;;;;;17.574846;-5.8633685;-23.480179;;;;;;;;;
2277.0;2167.4;;;;;;;0.6690268;-0.08685568;0.20532854;;;;;;;;;;;;
2277.0;2168.7;;;;;;;;;;;;;2025;;;;;;;;
2277.0;2168.7;;;;;;;;;;;;;2494;;;;;;;;
2277.0;2168.7;;;;;;;;;;;;;2758;;;;;;;;
2277.0;2168.7;;;;;;;;;;;;;2572;;;;;;;;
2277.0;2168.7;;;;;;;;;;;;;2030;;;;;;;;
2277.0;2168.9;;;;-1.6331751;0.396946;-0.059921272;;;;;;;;;;;;;;;
2277.0;2168.9;;;;-1.6361697;0.41953284;-0.042938236;;;;;;;;;;;;;;;
2277.0;2168.9;;;;-1.6390688;0.43926245;-0.025604252;;;;;;;;;;;;;;;
2277.0;2168.9;;;;-1.6466029;0.45644003;-0.009613038;;;;;;;;;;;;;;;
2277.0;2168.9;;;;-1.6598322;0.46854407;0.0059890756;;;;;;;;;;;;;;;
2277.0;2176.9;;;;;;;;;;16.880552;-2.6093326;-23.300882;;;;;;;;;
2277.0;2176.9;;;;;;;0.64821315;-0.082583085;0.21454512;;;;;;;;;;;;
2277.0;2176.9;;;;;;;;;;16.140476;0.29374066;-23.04529;;;;;;;;;
2277.0;2176.9;;;;;;;0.6290475;-0.07763909;0.22150335;;;;;;;;;;;;
2277.0;2178.9;;;;-1.6739314;0.47647482;0.022140505;;;;;;;;;;;;;;;
2277.0;2178.9;;;;-1.6887057;0.47827536;0.038017277;;;;;;;;;;;;;;;
2277.0;2178.9;;;;-1.7059481;0.47391135;0.052288063;;;;;;;;;;;;;;;
2277.0;2178.9;;;;-1.7250597;0.46377188;0.06502534;;;;;;;;;;;;;;;
2277.0;2178.9;;;;-1.7482073;0.4498902;0.07759095;;;;;;;;;;;;;;;
2277.0;2183.1;262143;262143;13666;;;;;;;;;;;;;;;;;;
2279.0;2186.5;;;;;;;;;;15.484328;2.9145176;-22.79351;;;;;;;;;
2279.0;2186.5;;;;;;;0.6072573;-0.07562487;0.22913297;;;;;;;;;;;;
2279.0;2186.5;;;;;;;;;;15.202032;5.7412944;-22.591326;;;;;;;;;
2279.0;2186.5;;;;;;;0.58821374;-0.07440413;0.2323069;;;;;;;;;;;;
2279.0;2189.0;;;;-1.7746699;0.43513113;0.087982185;;;;;;;;;;;;;;;
2279.0;2189.0;;;;-1.8041995;0.42002112;0.09710695;;;;;;;;;;;;;;;
2279.0;2189.0;;;;-1.8348238;0.40567786;0.10608293;;;;;;;;;;;;;;;
2279.0;2189.0;;;;-1.8635752;0.3938294;0.113281265;;;;;;;;;;;;;;;
2279.0;2189.0;;;;-1.8902552;0.38579565;0.12041856;;;;;;;;;;;;;;;
2279.0;2196.2;;;;;;;;;;15.02655;8.835109;-22.39677;;;;;;;;;
2279.0;2196.2;;;;;;;0.57222205;-0.07605213;0.23535874;;;;;;;;;;;;
2279.0;2196.2;;;;;;;;;;14.831996;11.76107;-22.11066;;;;;;;;;
2279.0;2196.2;;;;;;;0.5550096;-0.073427536;0.23444319;;;;;;;;;;;;
2279.0;2199.1;;;;-1.9141352;0.38105398;0.12575151;;;;;;;;;;;;;;;
2279.0;2199.1;;;;-1.9365733;0.3813973;0.12856676;;;;;;;;;;;;;;;
2279.0;2199.1;;;;-1.9533045;0.38397986;0.13006212;;;;;;;;;;;;;;;
2279.0;2199.1;;;;-1.9646685;0.38977057;0.13094331;;;;;;;;;;;;;;;
2279.0;2199.1;;;;-1.9741633;0.39919287;0.13028337;;;;;;;;;;;;;;;
2281.0;2203.1;;;;;;;;;;;;;;;;;4.50148;19.631031;16.258736;;2109.2
2281.0;2203.1;;;;;;;;;;;;;;0.83535266;-0.23731193;-0.10248116;;;;;2109.2
2281.0;2203.1;;;;;;;;;;;;;;;;;18.875698;-3.8529618;23.56029;;2109.2
2281.0;2203.1;;;;;;;;;;;;;;0.8205817;-0.1911069;-0.24304941;;;;;2109.2
2281.0;2203.1;;;;;;;;;;;;;;;;;33.715324;-36.347546;29.78988;;2118.8
2281.0;2203.1;;;;;;;;;;;;;;0.94985807;-0.101260416;-0.43360698;;;;;2118.8
2281.0;2203.1;;;;;;;;;;;;;;;;;46.906948;-70.98224;34.47447;;2118.8
2281.0;2203.1;;;;;;;;;;;;;;1.2878201;0.09564501;-0.7127903;;;;;2118.8
2281.0;2203.1;;;;;;;;;;;;;;;;;58.812984;-86.5505;39.78469;;2128.5
2281.0;2203.1;;;;;;;;;;;;;;1.6380504;0.3797113;-1.010651;;;;;2128.5
2281.0;2203.1;;;;;;;;;;;;;;;;;58.08817;-70.5092;37.709435;;2128.5
2281.0;2203.1;;;;;;;;;;;;;;1.8275704;0.6723838;-1.2320932;;;;;2128.5
2281.0;2203.2;262143;262143;13655;;;;;;;;;;;;;;;;;;
2281.0;2205.6;;;;;;;;;;14.820552;14.343699;-21.660513;;;;;;;;;
2281.0;2205.6;;;;;;;0.5384686;-0.073793754;0.23126927;;;;;;;;;;;;
2281.0;2205.6;;;;;;;;;;14.839625;16.739403;-21.088291;;;;;;;;;
2281.0;2205.6;;;;;;;0.52174443;-0.070986055;0.22821741;;;;;;;;;;;;
2281.0;2208.9;;;;;;;;;;;;;1541;;;;;;;;
2281.0;2208.9;;;;;;;;;;;;;1384;;;;;;;;
2281.0;2208.9;;;;;;;;;;;;;1203;;;;;;;;
2281.0;2208.9;;;;;;;;;;;;;820;;;;;;;;
2281.0;2208.9;;;;;;;;;;;;;291;;;;;;;;
2282.0;2209.0;;;;-1.9814379;0.4119683;0.12831499;;;;;;;;;;;;;;;
2282.0;2209.0;;;;-1.9878542;0.42730337;0.12591173;;;;;;;;;;;;;;;
2282.0;2209.0;;;;-1.989197;0.44230276;0.12430574;;;;;;;;;;;;;;;
2282.0;2209.0;;;;-1.9855196;0.45603567;0.12442781;;;;;;;;;;;;;;;
2282.0;2209.0;;;;-1.9792559;0.4707299;0.12490846;;;;;;;;;;;;;;;
2282.0;2215.2;;;;;;;;;;15.076143;19.028292;-20.439772;;;;;;;;;
2282.0;2215.2;;;;;;;0.5069735;-0.069093905;0.2238838;;;;;;;;;;;;
2282.0;2215.2;;;;;;;;;;15.45381;21.244698;-19.848475;;;;;;;;;
2282.0;2215.2;;;;;;;0.49409467;-0.06408887;0.21881771;;;;;;;;;;;;
2282.0;2218.1;;;;;;;;;;;;;;;;;40.36836;-33.268993;19.035921;;2138.2
2282.0;2218.1;;;;;;;;;;;;;;1.9810785;0.96694845;-1.2463149;;;;;2138.2
2282.0;2218.1;;;;;;;;;;;;;;;;;25.635548;-4.2497025;-18.303476;;2138.2
2282.0;2218.1;;;;;;;;;;;;;;1.996704;1.2516251;-1.0072939;;;;;2138.2
2282.0;2218.1;;;;;;;;;;;;;;;;;23.316141;14.5497;-66.53036;;2147.7
2282.0;2218.1;;;;;;;;;;;;;;1.996704;1.6928006;-0.5871151;;;;;2147.7
2282.0;2218.1;;;;;;;;;;;;;;;;;18.856625;25.940733;-71.19587;;2147.7
2282.0;2218.1;;;;;;;;;;;;;;1.7627491;1.9014252;-0.29389325;;;;;2147.7
2282.0;2218.1;;;;;;;;;;;;;;;;;-10.196997;37.27836;-38.739433;;2157.4
2282.0;2218.1;;;;;;;;;;;;;;1.1232033;1.3089389;-0.06952117;;;;;2157.4
2282.0;2218.1;;;;;;;;;;;;;;;;;-23.892178;26.638844;-32.82266;;2157.4
2282.0;2218.1;;;;;;;;;;;;;;0.8753319;0.97219765;0.030457472;;;;;2157.4
2342.0;2218.9;;;;-1.9703028;0.4853974;0.12519075;;;;;;;;;;;;;;;
2342.0;2218.9;;;;-1.9554904;0.49899298;0.12578966;;;;;;;;;;;;;;;
2342.0;2218.9;;;;-1.9385417;0.5113564;0.12594225;;;;;;;;;;;;;;;
2342.0;2218.9;;;;-1.915581;0.5219193;0.12624742;;;;;;;;;;;;;;;
2342.0;2218.9;;;;-1.8858759;0.5300141;0.12714387;;;;;;;;;;;;;;;
2342.0;2223.2;262143;262143;13650;;;;;;;;;;;;;;;;;;
2342.0;2224.6;;;;;;;;;;15.926847;23.426771;-19.16181;;;;;;;;;
2342.0;2224.6;;;;;;;0.48304698;-0.0634785;0.21314128;;;;;;;;;;;;
2342.0;2224.6;;;;;;;;;;16.621143;25.063326;-18.372143;;;;;;;;;
2342.0;2224.6;;;;;;;0.47260964;-0.06323435;0.20667134;;;;;;;;;;;;
2342.0;2229.0;;;;-1.8540652;0.537056;0.12779237;;;;;;;;;;;;;;;
2342.0;2229.0;;;;-1.8218768;0.5421639;0.12718584;;;;;;;;;;;;;;;
2342.0;2229.0;;;;-1.7836535;0.54469305;0.12679674;;;;;;;;;;;;;;;
2342.0;2229.0;;;;-1.7402384;0.54245764;0.12765886;;;;;;;;;;;;;;;
2342.0;2229.0;;;;-1.6938174;0.5367699;0.12927248;;;;;;;;;;;;;;;
2342.0;2233.8;;;;;;;;;;17.422253;26.22303;-17.536697;;;;;;;;;
2342.0;2233.8;;;;;;;0.46125674;-0.0629902;0.20117801;;;;;;;;;;;;
2342.0;2233.8;;;;;;;;;;18.246254;27.03177;-16.80044;;;;;;;;;
2342.0;2233.8;;;;;;;0.44984284;-0.06646931;0.19568469;;;;;;;;;;;;
2343.0;2238.6;;;;-1.64621;0.52870184;0.13023378;;;;;;;;;;;;;;;
2343.0;2238.6;;;;-1.6007235;0.51840216;0.13158418;;;;;;;;;;;;;;;
2343.0;2238.6;;;;-1.5560534;0.5072289;0.1342354;;;;;;;;;;;;;;;
2343.0;2238.6;;;;-1.5108111;0.4943276;0.13682176;;;;;;;;;;;;;;;
2343.0;2238.6;;;;-1.4651567;0.48200995;0.13896562;;;;;;;;;;;;;;;
2343.0;2243.4;;;;;;;;;;19.215218;27.500992;-16.216774;;;;;;;;;
2343.0;2243.4;;;;;;;0.44123662;-0.06872769;0.19135106;;;;;;;;;;;;
2343.0;2243.4;;;;;;;;;;20.329142;27.874844;-15.7857;;;;;;;;;
2343.0;2243.4;;;;;;;0.43537706;-0.07574694;0.18640706;;;;;;;;;;;;
2343.0;2243.0;262143;262143;13645;;;;;;;;;;;;;;;;;;
2343.0;2248.7;;;;;;;;;;;;;-207;;;;;;;;
2343.0;2248.7;;;;;;;;;;;;;-477;;;;;;;;
2343.0;2248.7;;;;;;;;;;;;;-789;;;;;;;;
2343.0;2248.7;;;;;;;;;;;;;-1182;;;;;;;;
2343.0;2248.7;;;;;;;;;;;;;-1273;;;;;;;;
2343.0;2248.7;;;;-1.4203798;0.46897513;0.14210893;;;;;;;;;;;;;;;
2343.0;2248.7;;;;-1.3765527;0.45587546;0.1484871;;;;;;;;;;;;;;;
2343.0;2248.7;;;;-1.3344423;0.4422608;0.1550789;;;;;;;;;;;;;;;
2343.0;2248.7;;;;-1.2939378;0.42896658;0.15979005;;;;;;;;;;;;;;;
2343.0;2248.7;;;;-1.2550088;0.41569906;0.1611252;;;;;;;;;;;;;;;
2343.0;2253.0;;;;;;;;;;21.72155;28.077028;-15.44618;;;;;;;;;
2343.0;2253.0;;;;;;;0.43354595;-0.08740501;0.18353832;;;;;;;;;;;;
2343.0;2253.0;;;;;;;;;;23.110142;27.878658;-15.35081;;;;;;;;;
2343.0;2253.0;;;;;;;0.43171483;-0.09796441;0.1817072;;;;;;;;;;;;
2345.0;2258.9;;;;-1.2189065;0.40394217;0.1592293;;;;;;;;;;;;;;;
2345.0;2258.9;;;;-1.184662;0.3925019;0.15528108;;;;;;;;;;;;;;;
2345.0;2258.9;;;;-1.1517297;0.3810616;0.15137102;;;;;;;;;;;;;;;
2345.0;2258.9;;;;-1.1192743;0.3701363;0.14688493;;;;;;;;;;;;;;;
2345.0;2258.9;;;;-1.0895845;0.36021045;0.14328004;;;;;;;;;;;;;;;
2345.0;2262.6;;;;;;;;;;24.594105;27.363659;-15.362254;;;;;;;;;
2345.0;2262.6;;;;;;;0.4278695;-0.11011078;0.18085268;;;;;;;;;;;;
2345.0;2262.6;;;;;;;;;;25.978882;26.581623;-15.625477;;;;;;;;;
2345.0;2262.6;;;;;;;0.4217658;-0.1208533;0.17975402;;;;;;;;;;;;
2345.0;2263.3;262143;262143;13646;;;;;;;;;;;;;;;;;;
2345.0;2268.9;;;;-1.0616914;0.34981158;0.14106752;;;;;;;;;;;;;;;
2345.0;2268.9;;;;-1.0365525;0.33960345;0.13866045;;;;;;;;;;;;;;;
2345.0;2268.9;;;;-1.0127107;0.33008578;0.13803484;;;;;;;;;;;;;;;
2345.0;2268.9;;;;-0.9924394;0.32187274;0.13821031;;;;;;;;;;;;;;;
2345.0;2268.9;;;;-0.97417843;0.31354526;0.13776018;;;;;;;;;;;;;;;
2346.0;2271.1;;;;;;;;;;;;;;;;;-38.769955;21.748253;-38.399918;;2166.9
2346.0;2271.1;;;;;;;;;;;;;;0.8153935;0.8469497;0.019531846;;;;;2166.9
2346.0;2271.1;;;;;;;;;;;;;;;;;-53.85754;28.130436;-30.518509;;2166.9
2346.0;2271.1;;;;;;;;;;;;;;0.8291879;0.71517074;0.086794645;;;;;2166.9
2346.0;2271.1;;;;;;;;;;;;;;;;;-62.631615;26.661734;-15.66744;;2176.5
2346.0;2271.1;;;;;;;;;;;;;;0.877163;0.5038606;0.13727225;;;;;2176.5
2346.0;2271.1;;;;;;;;;;;;;;;;;-61.63213;15.400403;-4.39848;;2176.5
2346.0;2271.1;;;;;;;;;;;;;;0.91940063;0.31910154;0.09271523;;;;;2176.5
2346.0;2271.1;;;;;;;;;;;;;;;;;-52.831356;3.3951843;4.4366283;;2186.2
2346.0;2271.1;;;;;;;;;;;;;;0.95077366;0.21497238;0.03381451;;;;;2186.2
2346.0;2271.1;;;;;;;;;;;;;;;;;-38.72799;-8.545182;15.869625;;2186.2
2346.0;2271.1;;;;;;;;;;;;;;0.9734794;0.14777063;-0.029236732;;;;;2186.2
2346.0;2271.9;;;;;;;;;;;;;;;;;-22.74392;-20.317698;31.765953;;2195.7
2346.0;2271.9;;;;;;;;;;;;;;1.0066836;0.088930935;-0.15649892;;;;;2195.7
2346.0;2271.9;;;;;;;;;;;;;;;;;-7.0078125;-29.705956;49.615463;;2195.7
2346.0;2271.9;;;;;;;;;;;;;;1.027131;0.03625599;-0.35621205;;;;;2195.7
