patientId;holterMac;flexMac;;;;;;;;;;;;;;;;;;;;
;CA:F3:0B:1E:33:78;D3:4A:5C:52:80:78;;;;;;;;;;;;;;;;;;;;
receivedTimeStamp;timeStamp;red;ir;green;adxl_accX;adxl_accY;adxl_accZ;lsm_accelX;lsm_accelY;lsm_accelZ;lsm_gyroX;lsm_gyroY;lsm_gyroZ;ecg;flex_lsm_accelX;flex_lsm_accelY;flex_lsm_accelZ;flex_lsm_gyroX;flex_lsm_gyroY;flex_lsm_gyroZ;flex_cmd;flexTimeStamp
305.0;217.2;;;;;;;;;;;;;;;;;;;;17;0.1
305.0;217.2;;;;;;;;;;;;;;;;;13.325145;0.43488875;-0.25940734;;127.6
305.0;217.2;;;;;;;;;;;;;;-1.3360393;0.29670095;-0.5906552;;;;;127.6
305.0;217.2;;;;;;;;;;;;;;;;;-4.402295;-18.09366;-10.998108;;127.6
305.0;217.2;;;;;;;;;;;;;;-1.4225287;0.342967;-0.6194647;;;;;127.6
305.0;217.2;;;;;;;;;;;;;;;;;-65.10743;-84.18531;-69.07483;;137.1
305.0;217.2;;;;;;;;;;;;;;-1.4025086;0.35041353;-0.58937347;;;;;137.1
305.0;217.2;;;;;;;;;;;;;;;;;-122.417366;-124.988556;-123.06589;;137.1
305.0;217.2;;;;;;;;;;;;;;-1.352031;0.32074952;-0.48530534;;;;;137.1
429.0;218.0;;;;;;;;;;;;;;;;;-67.25135;-124.76348;-114.31852;;146.8
429.0;218.0;;;;;;;;;;;;;;-1.3022858;0.28125858;-0.38172552;;;;;146.8
429.0;218.0;;;;;;;;;;;;;;;;;-19.287699;-124.832146;-115.97797;;146.8
429.0;218.0;;;;;;;;;;;;;;-1.2907498;0.23303933;-0.31916258;;;;;146.8
429.0;218.0;;;;;;;;;;;;;;;;;-40.326393;-96.84668;-122.12744;;156.5
429.0;218.0;;;;;;;;;;;;;;-1.3111973;0.15808588;-0.30890834;;;;;156.5
429.0;218.0;;;;;;;;;;;;;;;;;-58.85876;-5.760369;-117.61834;;156.5
429.0;218.0;;;;;;;;;;;;;;-1.328959;0.06280709;-0.3302713;;;;;156.5
429.0;218.0;;;;;;;;;;;;;;;;;-60.46098;2.948851;-118.44615;;166.1
429.0;218.0;;;;;;;;;;;;;;-1.3391522;-0.04791406;-0.3441267;;;;;166.1
429.0;218.0;;;;;;;;;;;;;;;;;-57.64565;3.276925;-119.93392;;166.1
429.0;218.0;;;;;;;;;;;;;;-1.327189;-0.1396527;-0.36365855;;;;;166.1
429.0;278.0;;;;;;;;;;;;;;;;;-53.51802;5.874813;-121.70782;;175.7
429.0;278.0;;;;;;;;;;;;;;-1.3102206;-0.20764793;-0.38099307;;;;;175.7
429.0;278.0;;;;;;;;;;;;;;;;;-47.799618;8.9991455;-123.180336;;175.7
429.0;278.0;;;;;;;;;;;;;;-1.294412;-0.25220495;-0.3998535;;;;;175.7
429.0;278.0;;;;;;;;;;;;;;;;;-43.191322;13.096255;-123.96619;;185.2
429.0;278.0;;;;;;;;;;;;;;-1.269509;-0.26984465;-0.39808345;;;;;185.2
429.0;278.0;;;;;;;;;;;;;;;;;-39.834282;17.139957;-124.31333;;185.2
429.0;278.0;;;;;;;;;;;;;;-1.2444838;-0.27790156;-0.38288522;;;;;185.2
429.0;278.0;;;;;;;;;;;;;;;;;-37.37373;18.913847;-124.27137;;194.9
429.0;278.0;;;;;;;;;;;;;;-1.2200079;-0.2590411;-0.3483993;;;;;194.9
429.0;278.0;;;;;;;;;;;;;;;;;-35.763878;18.22718;-124.02341;;194.9
429.0;278.0;;;;;;;;;;;;;;-1.21189;-0.21283609;-0.2981048;;;;;194.9
432.0;278.8;;;;;;;;;;;;;;;;;-34.0701;14.301737;-122.98578;;204.5
432.0;278.8;;;;;;;;;;;;;;-1.2153691;-0.16473891;-0.2491531;;;;;204.5
432.0;278.8;;;;;;;;;;;;;;;;;-31.437881;7.019257;-121.345406;;204.5
432.0;278.8;;;;;;;;;;;;;;-1.213355;-0.10882901;-0.20422986;;;;;204.5
432.0;278.8;;;;;;;;;;;;;;;;;-29.198584;-1.0109257;-118.28593;;214.1
432.0;278.8;;;;;;;;;;;;;;-1.2193975;-0.055848874;-0.16663106;;;;;214.1
432.0;278.8;;;;;;;;;;;;;;;;;-26.024658;-8.056887;-113.88363;;214.1
432.0;278.8;;;;;;;;;;;;;;-1.2312998;-0.02087466;-0.13812678;;;;;214.1
432.0;278.8;;;;;;;;;;;;;;;;;-21.134068;-13.721885;-108.55816;;223.7
432.0;278.8;;;;;;;;;;;;;;-1.2407606;0.01782281;-0.12604144;;;;;223.7
432.0;278.8;;;;;;;;;;;;;;;;;-14.984588;-14.198736;-101.99286;;223.7
432.0;278.8;;;;;;;;;;;;;;-1.2348399;0.040101323;-0.12793359;;;;;223.7
432.0;338.1;;;;;;;;;;;;;;;;;-8.58333;-10.002441;-95.58398;;233.3
432.0;338.1;;;;;;;;;;;;;;-1.1882687;0.061098058;-0.11505478;;;;;233.3
432.0;338.1;;;;;;;;;;;;;;;;;-7.0688496;-4.299295;-91.42582;;233.3
432.0;338.1;;;;;;;;;;;;;;-1.1205786;0.09234901;-0.11890011;;;;;233.3
432.0;338.1;;;;;;;;;;;;;;;;;-8.20185;1.1368145;-88.045906;;242.9
432.0;338.1;;;;;;;;;;;;;;-1.0495316;0.11963256;-0.140141;;;;;242.9
432.0;338.1;;;;;;;;;;;;;;;;;-11.326181;4.3488874;-83.27738;;242.9
432.0;338.1;;;;;;;;;;;;;;-0.9722587;0.14203314;-0.16724144;;;;;242.9
432.0;338.1;;;;;;;;;;;;;;;;;-19.062624;5.7489243;-77.6925;;252.3
432.0;338.1;;;;;;;;;;;;;;-0.906888;0.1605884;-0.2026429;;;;;252.3
432.0;338.1;;;;;;;;;;;;;;;;;-28.180029;7.5037384;-72.271645;;252.3
432.0;338.1;;;;;;;;;;;;;;-0.85964537;0.15179907;-0.22376171;;;;;252.3
487.0;338.9;;;;;;;;;;;;;;;;;-31.456955;7.6181827;-66.82028;;262.0
487.0;338.9;;;;;;;;;;;;;;-0.8082522;0.14185004;-0.22461623;;;;;262.0
487.0;338.9;;;;;;;;;;;;;;;;;-28.157139;4.7074804;-60.228275;;262.0
487.0;338.9;;;;;;;;;;;;;;-0.7509995;0.14276558;-0.19116795;;;;;262.0
487.0;338.9;;;;;;;;;;;;;;;;;-22.93466;2.25074;-52.762688;;271.6
487.0;338.9;;;;;;;;;;;;;;-0.695822;0.1518601;-0.16199225;;;;;271.6
487.0;338.9;;;;;;;;;;;;;;;;;-15.449995;5.7985168;-45.827354;;271.6
487.0;338.9;;;;;;;;;;;;;;-0.6518754;0.15295877;-0.14123966;;;;;271.6
487.0;338.9;;;;;;;;;;;;;;;;;-5.954924;13.248848;-40.261543;;281.2
487.0;338.9;;;;;;;;;;;;;;-0.62605673;0.14368114;-0.12042604;;;;;281.2
487.0;338.9;;;;;;;;;;;;;;;;;6.2257757;18.910032;-34.588913;;281.2
487.0;338.9;;;;;;;;;;;;;;-0.61922055;0.115848266;-0.09656057;;;;;281.2
487.0;398.4;;;;;;;;;;;;;;;;;18.55144;20.798365;-28.080843;;290.8
487.0;398.4;;;;;;;;;;;;;;-0.62215036;0.0806299;-0.05261391;;;;;290.8
487.0;398.4;;;;;;;;;;;;;;;;;28.218176;20.100252;-21.748253;;290.8
487.0;398.4;;;;;;;;;;;;;;-0.6280099;0.033692434;-0.006836146;;;;;290.8
487.0;398.4;;;;;;;;;;;;;;;;;34.34858;19.54329;-16.178625;;300.3
487.0;398.4;;;;;;;;;;;;;;-0.63435775;-0.018555254;0.029358806;;;;;300.3
487.0;398.4;;;;;;;;;;;;;;;;;36.893063;18.803217;-11.379589;;300.3
487.0;398.4;;;;;;;;;;;;;;-0.6393017;-0.0634785;0.04992828;;;;;300.3
487.0;398.4;;;;;;;;;;;;;;;;;36.172062;16.537218;-6.828517;;310.1
487.0;398.4;;;;;;;;;;;;;;-0.6327708;-0.08844264;0.047853023;;;;;310.1
487.0;398.4;;;;;;;;;;;;;;;;;32.96762;12.691885;-2.5025177;;310.1
487.0;398.4;;;;;;;;;;;;;;-0.6112247;-0.09149449;0.019287698;;;;;310.1
557.0;405.8;;;;;;;;;;;;;;;;;26.982178;8.552812;1.8539995;;319.6
557.0;405.8;;;;;;;;;;;;;;-0.59450054;-0.08331553;-0.019714957;;;;;319.6
557.0;405.8;;;;;;;;;;;;;;;;;18.581957;5.348369;6.550035;;319.6
557.0;405.8;;;;;;;;;;;;;;-0.577105;-0.06408887;-0.071535386;;;;;319.6
557.0;405.8;;;;;;;;;;;;;;;;;10.059664;2.8077028;11.585589;;329.3
557.0;405.8;;;;;;;;;;;;;;-0.56001467;-0.032898955;-0.106631674;;;;;329.3
557.0;405.8;;;;;;;;;;;;;;;;;3.0709252;-0.12970367;16.91107;;329.3
557.0;405.8;;;;;;;;;;;;;;-0.54554886;0.005798517;-0.1225013;;;;;329.3
557.0;405.8;;;;;;;;;;;;;;;;;-0.6599628;-3.688925;22.583696;;339.0
557.0;405.8;;;;;;;;;;;;;;-0.5315714;0.045167394;-0.11627552;;;;;339.0
557.0;405.8;;;;;;;;;;;;;;;;;-1.495407;-7.6868496;28.05414;;339.0
557.0;405.8;;;;;;;;;;;;;;-0.5147252;0.08667257;-0.09955138;;;;;339.0
557.0;458.7;;;;;;;;;;;;;;;;;-1.1520737;-11.280404;33.29951;;348.7
557.0;458.7;;;;;;;;;;;;;;-0.4941557;0.124881744;-0.08429212;;;;;348.7
557.0;458.7;;;;;;;;;;;;;;;;;-0.099185154;-14.034699;38.41136;;348.7
557.0;458.7;;;;;;;;;;;;;;-0.48176518;0.15918455;-0.069765314;;;;;348.7
557.0;458.7;;;;;;;;;;;;;;;;;0.4196295;-15.964996;43.149357;;358.3
557.0;458.7;;;;;;;;;;;;;;-0.4760277;0.19428083;-0.05285806;;;;;358.3
557.0;458.7;;;;;;;;;;;;;;;;;0.5417035;-18.009735;48.005615;;358.3
557.0;458.7;;;;;;;;;;;;;;-0.47645497;0.2186346;-0.044740137;;;;;358.3
557.0;458.7;;;;;;;;;;;;;;;;;-0.45014802;-19.0817;51.736504;;367.8
557.0;458.7;;;;;;;;;;;;;;-0.47694325;0.23596911;-0.044129767;;;;;367.8
557.0;458.7;;;;;;;;;;;;;;;;;-3.6355176;-18.784143;54.025394;;367.8
557.0;458.7;;;;;;;;;;;;;;-0.48695335;0.23712882;-0.04815821;;;;;367.8
606.0;459.5;;;;;;;;;;;;;;;;;-8.484145;-18.501846;56.37913;;377.5
606.0;459.5;;;;;;;;;;;;;;-0.5039216;0.22504349;-0.0601825;;;;;377.5
606.0;459.5;;;;;;;;;;;;;;;;;-15.217292;-18.917662;58.091984;;377.5
606.0;459.5;;;;;;;;;;;;;;-0.5204016;0.20227668;-0.07312235;;;;;377.5
606.0;459.5;;;;;;;;;;;;;;;;;-23.083437;-20.458845;58.99991;;387.2
606.0;459.5;;;;;;;;;;;;;;-0.5354167;0.17731254;-0.092593156;;;;;387.2
606.0;459.5;;;;;;;;;;;;;;;;;-32.03299;-22.202215;59.007538;;387.2
606.0;459.5;;;;;;;;;;;;;;-0.5413373;0.1485641;-0.12616351;;;;;387.2
606.0;459.5;;;;;;;;;;;;;;;;;-40.604877;-22.7134;58.86639;;396.8
606.0;459.5;;;;;;;;;;;;;;-0.54878384;0.11749626;-0.16431166;;;;;396.8
606.0;459.5;;;;;;;;;;;;;;;;;-48.8258;-21.675772;58.008057;;396.8
606.0;459.5;;;;;;;;;;;;;;-0.55623037;0.08404797;-0.19153416;;;;;396.8
606.0;519.1;;;;;;;;;;;;;;;;;-55.9595;-20.661032;55.88702;;406.4
606.0;519.1;;;;;;;;;;;;;;-0.5617237;0.048036136;-0.22235785;;;;;406.4
606.0;519.1;;;;;;;;;;;;;;;;;-61.49861;-19.100773;53.4608;;406.4
606.0;519.1;;;;;;;;;;;;;;-0.5604419;0.003418073;-0.267098;;;;;406.4
606.0;519.1;;;;;;;;;;;;;;;;;-65.16465;-16.758478;51.667835;;416.1
606.0;519.1;;;;;;;;;;;;;;-0.5559862;-0.03723258;-0.30219427;;;;;416.1
606.0;519.1;;;;;;;;;;;;;;;;;-68.60942;-13.096255;50.256355;;416.1
606.0;519.1;;;;;;;;;;;;;;-0.557329;-0.08319346;-0.32959992;;;;;416.1
606.0;519.1;;;;;;;;;;;;;;;;;-71.4362;-8.426924;48.818172;;425.7
606.0;519.1;;;;;;;;;;;;;;-0.5680105;-0.12268441;-0.35608998;;;;;425.7
606.0;519.1;;;;;;;;;;;;;;;;;-73.54198;-3.6126287;47.769096;;425.7
606.0;519.1;;;;;;;;;;;;;;-0.5774102;-0.16370128;-0.38550982;;;;;425.7
670.0;520.3;;;;;;;;;;;;;;;;;-73.75942;2.231666;46.578876;;435.2
670.0;520.3;;;;;;;;;;;;;;-0.5807062;-0.20136112;-0.4067507;;;;;435.2
670.0;520.3;;;;;;;;;;;;;;;;;-73.934906;9.212775;45.335243;;435.2
670.0;520.3;;;;;;;;;;;;;;-0.5838191;-0.2461623;-0.42609942;;;;;435.2
670.0;520.3;;;;;;;;;;;;;;;;;-73.8052;15.97644;43.97336;;444.8
670.0;520.3;;;;;;;;;;;;;;-0.6028016;-0.28601947;-0.423719;;;;;444.8
670.0;520.3;;;;;;;;;;;;;;;;;-75.464645;20.809809;42.268135;;444.8
670.0;520.3;;;;;;;;;;;;;;-0.6237373;-0.32807398;-0.41444135;;;;;444.8
670.0;520.3;;;;;;;;;;;;;;;;;-76.986755;24.55977;40.63921;;454.5
670.0;520.3;;;;;;;;;;;;;;-0.6480911;-0.37226477;-0.3935667;;;;;454.5
670.0;520.3;;;;;;;;;;;;;;;;;-76.66631;26.478622;40.047913;;454.5
670.0;520.3;;;;;;;;;;;;;;-0.67281103;-0.4015015;-0.35700554;;;;;454.5
670.0;534.1;;;;;;;;;;;;;;;;;-76.39165;26.783808;38.82336;;464.1
670.0;534.1;;;;;;;;;;;;;;-0.69087803;-0.4219489;-0.32886747;;;;;464.1
670.0;534.1;;;;;;;;;;;;;;;;;-74.221016;26.61977;38.224434;;464.1
670.0;534.1;;;;;;;;;;;;;;-0.7102878;-0.44099247;-0.28693503;;;;;464.1
670.0;534.1;;;;;;;;;;;;;;;;;-71.64601;25.086214;38.178658;;473.6
670.0;534.1;;;;;;;;;;;;;;-0.7309793;-0.4417249;-0.23993652;;;;;473.6
670.0;534.1;;;;;;;;;;;;;;;;;-71.020386;22.160252;37.74758;;473.6
670.0;534.1;;;;;;;;;;;;;;-0.7475814;-0.43830684;-0.19617298;;;;;473.6
670.0;534.1;;;;;;;;;;;;;;;;;-70.74572;17.81518;38.0604;;483.3
670.0;534.1;;;;;;;;;;;;;;-0.75374615;-0.4300058;-0.14374217;;;;;483.3
670.0;534.1;;;;;;;;;;;;;;;;;-70.56642;12.19596;38.121433;;483.3
670.0;534.1;;;;;;;;;;;;;;-0.74941254;-0.44215217;-0.103274636;;;;;483.3
729.0;579.3;;;;;;;;;;;;;;;;;-65.5881;7.854701;38.64025;;493.0
729.0;579.3;;;;;;;;;;;;;;-0.71828365;-0.44459364;-0.078127384;;;;;493.0
729.0;579.3;;;;;;;;;;;;;;;;;-58.40098;5.565813;39.948727;;493.0
729.0;579.3;;;;;;;;;;;;;;-0.7055879;-0.42103335;-0.06604206;;;;;493.0
729.0;579.3;;;;;;;;;;;;;;;;;-53.289135;3.8033693;39.567245;;502.7
729.0;579.3;;;;;;;;;;;;;;-0.6946013;-0.40620136;-0.0844142;;;;;502.7
729.0;579.3;;;;;;;;;;;;;;;;;-48.32606;2.4338512;38.964508;;502.7
729.0;579.3;;;;;;;;;;;;;;-0.67427593;-0.39533678;-0.12475967;;;;;502.7
729.0;579.3;;;;;;;;;;;;;;;;;-42.981506;3.2425916;38.65551;;512.2
729.0;579.3;;;;;;;;;;;;;;-0.66585284;-0.38239694;-0.17322306;;;;;512.2
729.0;579.3;;;;;;;;;;;;;;;;;-38.556324;5.413221;38.41899;;512.2
729.0;579.3;;;;;;;;;;;;;;-0.67281103;-0.36896878;-0.21784112;;;;;512.2
729.0;639.8;;;;;;;;;;;;;;;;;-36.51158;7.0688496;37.850582;;521.8
729.0;639.8;;;;;;;;;;;;;;-0.68080693;-0.36005738;-0.2710654;;;;;521.8
729.0;639.8;;;;;;;;;;;;;;;;;-33.8641;8.648182;37.48436;;521.8
729.0;639.8;;;;;;;;;;;;;;-0.6927702;-0.34986418;-0.32221442;;;;;521.8
729.0;639.8;;;;;;;;;;;;;;;;;-29.335918;9.990996;37.55303;;531.5
729.0;639.8;;;;;;;;;;;;;;-0.7019257;-0.33063754;-0.35389262;;;;;531.5
729.0;639.8;;;;;;;;;;;;;;;;;-24.47203;11.131626;37.850582;;531.5
729.0;639.8;;;;;;;;;;;;;;-0.7195654;-0.31336406;-0.36829737;;;;;531.5
729.0;639.8;;;;;;;;;;;;;;;;;-19.497513;11.864071;38.632618;;541.0
729.0;639.8;;;;;;;;;;;;;;-0.73989075;-0.2874233;-0.3604236;;;;;541.0
729.0;639.8;;;;;;;;;;;;;;;;;-16.08707;11.764886;39.922024;;541.0
729.0;639.8;;;;;;;;;;;;;;-0.76693016;-0.26294747;-0.3431501;;;;;541.0
791.0;640.9;;;;;;;;;;;;;;;;;-14.175848;11.085848;41.54332;;550.6
791.0;640.9;;;;;;;;;;;;;;-0.7936033;-0.23389386;-0.3249611;;;;;550.6
791.0;640.9;;;;;;;;;;;;;;;;;-13.893551;10.074923;43.351543;;550.6
791.0;640.9;;;;;;;;;;;;;;-0.8155767;-0.20880765;-0.3061617;;;;;550.6
791.0;640.9;;;;;;;;;;;;;;;;;-14.900662;8.40785;45.152134;;560.3
791.0;640.9;;;;;;;;;;;;;;-0.8303476;-0.18439284;-0.2739952;;;;;560.3
791.0;640.9;;;;;;;;;;;;;;;;;-15.76281;5.33311;46.93365;;560.3
791.0;640.9;;;;;;;;;;;;;;-0.83297217;-0.1640675;-0.23804438;;;;;560.3
791.0;640.9;;;;;;;;;;;;;;;;;-15.140995;2.8000731;47.89117;;569.9
791.0;640.9;;;;;;;;;;;;;;-0.8627583;-0.14337596;-0.2014832;;;;;569.9
791.0;640.9;;;;;;;;;;;;;;;;;-13.389997;0.46159247;48.932617;;569.9
791.0;640.9;;;;;;;;;;;;;;-0.88320565;-0.119449444;-0.1788995;;;;;569.9
791.0;654.8;;;;;;;;;;;;;;;;;-11.463515;-2.7314067;49.851982;;579.6
791.0;654.8;;;;;;;;;;;;;;-0.89345986;-0.09930723;-0.15967284;;;;;579.6
791.0;654.8;;;;;;;;;;;;;;;;;-10.933256;-6.3974423;50.37843;;579.6
791.0;654.8;;;;;;;;;;;;;;-0.91183203;-0.08819849;-0.11365093;;;;;579.6
791.0;654.8;;;;;;;;;;;;;;;;;-14.198736;-11.059145;49.901577;;589.1
791.0;654.8;;;;;;;;;;;;;;-0.96761984;-0.09094516;-0.022278512;;;;;589.1
791.0;654.8;;;;;;;;;;;;;;;;;-21.099735;-14.854885;48.993652;;589.1
791.0;654.8;;;;;;;;;;;;;;-1.0974456;-0.13696708;-0.05365154;;;;;589.1
791.0;654.8;;;;;;;;;;;;;;;;;-26.058992;-7.106998;47.132023;;598.8
791.0;654.8;;;;;;;;;;;;;;-1.3064973;-0.2283395;-0.1380047;;;;;598.8
791.0;654.8;;;;;;;;;;;;;;;;;-30.911434;-9.342479;44.473095;;598.8
791.0;654.8;;;;;;;;;;;;;;-1.493942;-0.27259132;-0.19495223;;;;;598.8
848.0;700.0;;;;;;;;;;;;;;;;;-46.246986;-23.617512;42.516098;;608.2
848.0;700.0;;;;;;;;;;;;;;-1.6383556;-0.34052554;-0.3197119;;;;;608.2
848.0;700.0;;;;;;;;;;;;;;;;;-73.343605;-23.754845;38.792843;;608.2
848.0;700.0;;;;;;;;;;;;;;-1.7298502;-0.41560107;-0.58442944;;;;;608.2
848.0;700.0;;;;;;;;;;;;;;;;;-100.98956;5.1347394;33.131657;;617.7
848.0;700.0;;;;;;;;;;;;;;-1.7409589;-0.51240575;-0.92587054;;;;;617.7
848.0;700.0;;;;;;;;;;;;;;;;;-96.007416;34.440136;34.57747;;617.7
848.0;700.0;;;;;;;;;;;;;;-1.6096683;-0.6360668;-0.9882504;;;;;617.7
848.0;700.0;;;;;;;;;;;;;;;;;-58.85113;37.614063;37.251656;;627.3
848.0;700.0;;;;;;;;;;;;;;-1.4199653;-0.6502884;-0.88497573;;;;;627.3
848.0;700.0;;;;;;;;;;;;;;;;;-2.5101473;42.294838;39.761803;;627.3
848.0;700.0;;;;;;;;;;;;;;-1.295999;-0.6086612;-0.62245554;;;;;627.3
848.0;707.5;;;;;;;;;;;;;;;;;58.633686;46.205025;47.09769;;637.0
848.0;707.5;;;;;;;;;;;;;;-1.2281258;-0.46168402;-0.28583637;;;;;637.0
848.0;707.5;;;;;;;;;;;;;;;;;93.485825;34.42869;59.69802;;637.0
848.0;707.5;;;;;;;;;;;;;;-1.2835475;-0.32880643;0.047364727;;;;;637.0
848.0;707.5;;;;;;;;;;;;;;;;;97.40364;7.045961;67.38869;;646.7
848.0;707.5;;;;;;;;;;;;;;-1.3997009;-0.20636617;0.3304544;;;;;646.7
848.0;707.5;;;;;;;;;;;;;;;;;84.78042;-15.312662;63.30683;;646.7
848.0;707.5;;;;;;;;;;;;;;-1.4467604;-0.30365917;0.27521592;;;;;646.7
848.0;707.5;;;;;;;;;;;;;;;;;60.995056;4.6845913;42.859432;;656.4
848.0;707.5;;;;;;;;;;;;;;-1.4529862;-0.4245735;-0.10693686;;;;;656.4
848.0;707.5;;;;;;;;;;;;;;;;;40.03647;41.13895;31.147953;;656.4
848.0;707.5;;;;;;;;;;;;;;-1.3996398;-0.49195838;-0.5233314;;;;;656.4
909.0;760.4;;;;;;;;;;;;;;;;;41.100803;46.5598;25.208288;;665.9
909.0;760.4;;;;;;;;;;;;;;-1.3491012;-0.55476546;-0.6864833;;;;;665.9
909.0;760.4;;;;;;;;;;;;;;;;;58.30943;33.18888;21.965698;;665.9
909.0;760.4;;;;;;;;;;;;;;-1.1734366;-0.6079287;-0.57057405;;;;;665.9
909.0;760.4;;;;;;;;;;;;;;;;;66.58758;33.623768;11.631367;;675.6
909.0;760.4;;;;;;;;;;;;;;-1.0464187;-0.5703299;-0.5191809;;;;;675.6
909.0;760.4;;;;;;;;;;;;;;;;;80.038605;43.76736;7.587664;;675.6
909.0;760.4;;;;;;;;;;;;;;-1.0591754;-0.44563127;-0.4634541;;;;;675.6
909.0;760.4;;;;;;;;;;;;;;;;;90.01053;34.661396;15.842922;;685.2
909.0;760.4;;;;;;;;;;;;;;-1.164098;-0.2710654;-0.34699544;;;;;685.2
909.0;760.4;;;;;;;;;;;;;;;;;86.87857;9.414961;22.442549;;685.2
909.0;760.4;;;;;;;;;;;;;;-1.2730491;-0.10699789;-0.26062807;;;;;685.2
909.0;768.2;;;;;;;;;;;;;;;;;75.79272;-9.403516;26.92114;;694.9
909.0;768.2;;;;;;;;;;;;;;-1.3030183;0.018311106;-0.20960112;;;;;694.9
909.0;768.2;;;;;;;;;;;;;;;;;53.407394;-15.884884;29.942472;;694.9
909.0;768.2;;;;;;;;;;;;;;-1.3122959;0.10864589;-0.33314005;;;;;694.9
909.0;768.2;;;;;;;;;;;;;;;;;33.547474;-8.6901455;32.986694;;704.4
909.0;768.2;;;;;;;;;;;;;;-1.3334147;0.12561418;-0.49031037;;;;;704.4
909.0;768.2;;;;;;;;;;;;;;;;;25.086214;1.2550737;28.267769;;704.4
909.0;768.2;;;;;;;;;;;;;;-1.2969146;0.1259804;-0.6222114;;;;;704.4
909.0;768.2;;;;;;;;;;;;;;;;;30.39262;9.762108;19.13129;;714.0
909.0;768.2;;;;;;;;;;;;;;-1.1346781;0.115421005;-0.73281044;;;;;714.0
909.0;768.2;;;;;;;;;;;;;;;;;41.47847;24.28892;15.327921;;714.0
909.0;768.2;;;;;;;;;;;;;;-0.9836116;0.09723197;-0.8058718;;;;;714.0
968.0;820.7;;;;;;;;;;;;;;;;;47.330395;43.637653;13.206885;;723.6
968.0;820.7;;;;;;;;;;;;;;-0.90267646;0.07892086;-0.87112033;;;;;723.6
968.0;820.7;;;;;;;;;;;;;;;;;45.48021;59.278393;10.860775;;723.6
968.0;820.7;;;;;;;;;;;;;;-0.8717917;0.07586902;-0.90804774;;;;;723.6
968.0;820.7;;;;;;;;;;;;;;;;;37.81625;59.675133;13.206885;;733.2
968.0;820.7;;;;;;;;;;;;;;-0.88515884;0.025757622;-0.9153722;;;;;733.2
968.0;820.7;;;;;;;;;;;;;;;;;25.490585;45.03006;13.760033;;733.2
968.0;820.7;;;;;;;;;;;;;;-0.9462569;-0.0017090365;-0.9114048;;;;;733.2
968.0;820.7;;;;;;;;;;;;;;;;;18.890959;27.352215;14.614552;;742.7
968.0;820.7;;;;;;;;;;;;;;-1.0330515;-0.05328532;-0.9221473;;;;;742.7
968.0;820.7;;;;;;;;;;;;;;;;;24.819178;18.807032;12.638477;;742.7
968.0;820.7;;;;;;;;;;;;;;-1.0798669;-0.11102634;-0.83785516;;;;;742.7
968.0;828.2;;;;;;;;;;;;;;;;;34.836876;18.650625;10.727257;;752.3
968.0;828.2;;;;;;;;;;;;;;-1.056734;-0.15320292;-0.7325663;;;;;752.3
968.0;828.2;;;;;;;;;;;;;;;;;41.467026;23.007141;10.841701;;752.3
968.0;828.2;;;;;;;;;;;;;;-1.032197;-0.14618365;-0.56050295;;;;;752.3
968.0;828.2;;;;;;;;;;;;;;;;;33.5284;21.996216;8.968627;;762.0
968.0;828.2;;;;;;;;;;;;;;-0.9965514;-0.1530198;-0.44111454;;;;;762.0
968.0;828.2;;;;;;;;;;;;;;;;;23.895994;17.921995;5.94348;;762.0
968.0;828.2;;;;;;;;;;;;;;-0.95937985;-0.1561327;-0.3719596;;;;;762.0
968.0;828.2;;;;;;;;;;;;;;;;;19.299143;14.767144;2.311777;;771.7
968.0;828.2;;;;;;;;;;;;;;-0.93777275;-0.1469161;-0.30030215;;;;;771.7
968.0;828.2;;;;;;;;;;;;;;;;;15.610218;11.894589;-1.4000366;;771.7
968.0;828.2;;;;;;;;;;;;;;-0.9259316;-0.15015107;-0.23889889;;;;;771.7
1029.0;881.1;;;;;;;;;;;;;;;;;10.902738;9.949034;-4.352702;;781.3
1029.0;881.1;;;;;;;;;;;;;;-0.9297159;-0.14172795;-0.17090365;;;;;781.3
1029.0;881.1;;;;;;;;;;;;;;;;;4.608295;8.228554;-5.9701834;;781.3
1029.0;881.1;;;;;;;;;;;;;;-0.9443037;-0.13183996;-0.111880854;;;;;781.3
1029.0;881.1;;;;;;;;;;;;;;;;;-0.8049257;6.122776;-6.76748;;790.9
1029.0;881.1;;;;;;;;;;;;;;-0.9553514;-0.11981567;-0.08716086;;;;;790.9
1029.0;881.1;;;;;;;;;;;;;;;;;-3.8338878;5.260628;-6.9429607;;790.9
1029.0;881.1;;;;;;;;;;;;;;-0.95455796;-0.092593156;-0.083010346;;;;;790.9
1029.0;881.1;;;;;;;;;;;;;;;;;-4.2115545;4.3488874;-6.122776;;800.6
1029.0;881.1;;;;;;;;;;;;;;-0.9569384;-0.041627247;-0.09375286;;;;;800.6
1029.0;881.1;;;;;;;;;;;;;;;;;-3.212073;2.006592;-4.222999;;800.6
1029.0;881.1;;;;;;;;;;;;;;-0.9443648;0.018982513;-0.095583975;;;;;800.6
1029.0;888.9;;;;;;;;;;;;;;;;;-3.627888;-0.44251838;-0.9804071;;810.2
1029.0;888.9;;;;;;;;;;;;;;-0.9225745;0.07251198;-0.09930723;;;;;810.2
1029.0;888.9;;;;;;;;;;;;;;;;;-5.2072206;-2.3613698;2.277444;;810.2
1029.0;888.9;;;;;;;;;;;;;;-0.89327675;0.11255226;-0.11902219;;;;;810.2
1029.0;888.9;;;;;;;;;;;;;;;;;-6.187628;-3.9025545;4.6845913;;819.8
1029.0;888.9;;;;;;;;;;;;;;-0.86269724;0.12854396;-0.14978485;;;;;819.8
1029.0;888.9;;;;;;;;;;;;;;;;;-6.3135166;-5.6993318;7.1756644;;819.8
1029.0;888.9;;;;;;;;;;;;;;-0.8268685;0.13061923;-0.17151402;;;;;819.8
1029.0;888.9;;;;;;;;;;;;;;;;;-5.058443;-7.9844055;10.250404;;829.4
1029.0;888.9;;;;;;;;;;;;;;-0.79787594;0.113956116;-0.18457595;;;;;829.4
1029.0;888.9;;;;;;;;;;;;;;;;;-1.8311106;-8.167517;13.199256;;829.4
1029.0;888.9;;;;;;;;;;;;;;-0.7849361;0.079226054;-0.20892972;;;;;829.4
1086.0;941.3;;;;;;;;;;;;;;;;;2.822962;-6.96585;15.682699;;839.1
1086.0;941.3;;;;;;;;;;;;;;-0.778283;0.026367992;-0.2412183;;;;;839.1
1086.0;941.3;;;;;;;;;;;;;;;;;7.9958496;-5.6573687;17.78466;;839.1
1086.0;941.3;;;;;;;;;;;;;;-0.7735832;-0.034302805;-0.272042;;;;;839.1
1086.0;941.3;;;;;;;;;;;;;;;;;11.932737;-4.318369;19.436476;;848.8
1086.0;941.3;;;;;;;;;;;;;;-0.7730949;-0.105533004;-0.27808467;;;;;848.8
1086.0;941.3;;;;;;;;;;;;;;;;;13.40907;-3.0098882;20.535141;;848.8
1086.0;941.3;;;;;;;;;;;;;;-0.7702261;-0.17175817;-0.2766808;;;;;848.8
1086.0;941.3;;;;;;;;;;;;;;;;;13.11533;-1.3275552;21.088291;;858.4
1086.0;941.3;;;;;;;;;;;;;;-0.7740104;-0.23395489;-0.280282;;;;;858.4
1086.0;941.3;;;;;;;;;;;;;;;;;13.134403;0.94225895;20.840326;;858.4
1086.0;941.3;;;;;;;;;;;;;;-0.7904294;-0.28382215;-0.29963073;;;;;858.4
1086.0;942.1;;;;;;;;;;;;;;;;;13.500626;3.784295;19.627216;;868.1
1086.0;942.1;;;;;;;;;;;;;;-0.80776393;-0.3239845;-0.31708732;;;;;868.1
1086.0;942.1;;;;;;;;;;;;;;;;;13.508256;4.8486285;17.647327;;868.1
1086.0;942.1;;;;;;;;;;;;;;-0.81905574;-0.3615833;-0.32905057;;;;;868.1
1086.0;942.1;;;;;;;;;;;;;;;;;12.138738;4.8829613;15.25544;;877.8
1086.0;942.1;;;;;;;;;;;;;;-0.82668537;-0.39466536;-0.3352153;;;;;877.8
1086.0;942.1;;;;;;;;;;;;;;;;;10.467849;5.3788877;11.616108;;877.8
1086.0;942.1;;;;;;;;;;;;;;-0.83437604;-0.43159276;-0.32294688;;;;;877.8
1086.0;942.1;;;;;;;;;;;;;;;;;10.662404;4.0055547;7.8241825;;887.4
1086.0;942.1;;;;;;;;;;;;;;-0.8338267;-0.46797082;-0.28577533;;;;;887.4
1086.0;942.1;;;;;;;;;;;;;;;;;9.853663;1.1902219;3.4943693;;887.4
1086.0;942.1;;;;;;;;;;;;;;-0.81820124;-0.48353526;-0.22748497;;;;;887.4
1148.0;1016.6;;;;;;;;;;;;;;;;;8.89233;-2.3308513;1.4229255;;897.1
1148.0;1016.6;;;;;;;;;;;;;;-0.7874996;-0.48176518;-0.16748558;;;;;897.1
1148.0;1016.6;;;;;;;;;;;;;;;;;8.358257;-5.283517;0.25559253;;897.1
1148.0;1016.6;;;;;;;;;;;;;;-0.7472152;-0.4502701;-0.12512589;;;;;897.1
1148.0;1016.6;;;;;;;;;;;;;;;;;6.6644797;-6.7369614;-1.3542589;;906.5
1148.0;1016.6;;;;;;;;;;;;;;-0.70400095;-0.4067507;-0.12549211;;;;;906.5
1148.0;1016.6;;;;;;;;;;;;;;;;;5.3216653;-8.011109;-4.566332;;906.5
1148.0;1016.6;;;;;;;;;;;;;;-0.6560869;-0.36976227;-0.1596118;;;;;906.5
1148.0;1016.6;;;;;;;;;;;;;;;;;2.5025177;-7.4808497;-9.292887;;916.1
1148.0;1016.6;;;;;;;;;;;;;;-0.6054262;-0.35804316;-0.2238838;;;;;916.1
1148.0;1016.6;;;;;;;;;;;;;;;;;0.5874813;-5.3292947;-13.641774;;916.1
1148.0;1016.6;;;;;;;;;;;;;;-0.5691702;-0.33118686;-0.25891903;;;;;916.1
1148.0;1017.5;;;;;;;;;;;;;;;;;-1.8768883;-7.6258125;-15.842922;;925.8
1148.0;1017.5;;;;;;;;;;;;;;-0.5595263;-0.3046968;-0.2606891;;;;;925.8
1148.0;1017.5;;;;;;;;;;;;;;;;;-5.664998;-12.035737;-16.80044;;925.8
1148.0;1017.5;;;;;;;;;;;;;;-0.59675896;-0.28266242;-0.26514482;;;;;925.8
1148.0;1017.5;;;;;;;;;;;;;;;;;-10.258034;-11.001924;-18.417921;;935.5
1148.0;1017.5;;;;;;;;;;;;;;-0.6682333;-0.2781457;-0.25464645;;;;;935.5
1148.0;1017.5;;;;;;;;;;;;;;;;;-15.823847;-8.564257;-21.29429;;935.5
1148.0;1017.5;;;;;;;;;;;;;;-0.74092835;-0.28925443;-0.23590808;;;;;935.5
1148.0;1017.5;;;;;;;;;;;;;;;;;-20.69155;-10.608997;-24.27366;;945.1
1148.0;1017.5;;;;;;;;;;;;;;-0.8175909;-0.3023774;-0.16644795;;;;;945.1
1148.0;1017.5;;;;;;;;;;;;;;;;;-25.749992;-16.926329;-27.680288;;945.1
1148.0;1017.5;;;;;;;;;;;;;;-0.8845485;-0.30842006;-0.066286206;;;;;945.1
1208.0;1062.5;;;;;;;;;;;;;;;;;-33.98617;-22.846918;-32.46025;;954.8
1208.0;1062.5;;;;;;;;;;;;;;-0.9053011;-0.30707723;-0.0051881466;;;;;954.8
1208.0;1062.5;;;;;;;;;;;;;;;;;-45.056763;-24.357586;-37.202065;;954.8
1208.0;1062.5;;;;;;;;;;;;;;-0.89388716;-0.31055635;-0.013611255;;;;;954.8
1208.0;1062.5;;;;;;;;;;;;;;;;;-54.525135;-24.967955;-41.886654;;964.5
1208.0;1062.5;;;;;;;;;;;;;;-0.87820065;-0.32197028;-0.0601825;;;;;964.5
1208.0;1062.5;;;;;;;;;;;;;;;;;-60.544907;-27.11951;-45.91128;;964.5
1208.0;1062.5;;;;;;;;;;;;;;-0.84487444;-0.3452254;-0.102725305;;;;;964.5
1208.0;1062.5;;;;;;;;;;;;;;;;;-61.914425;-30.358286;-47.914062;;974.2
1208.0;1062.5;;;;;;;;;;;;;;-0.812891;-0.36292613;-0.124332406;;;;;974.2
1208.0;1062.5;;;;;;;;;;;;;;;;;-59.392838;-33.955654;-49.7528;;974.2
1208.0;1062.5;;;;;;;;;;;;;;-0.77767265;-0.36182746;-0.10364086;;;;;974.2
1208.0;1063.3;;;;;;;;;;;;;;;;;-58.404797;-35.348064;-52.06076;;983.7
1208.0;1063.3;;;;;;;;;;;;;;-0.75478375;-0.3571276;-0.09698782;;;;;983.7
1208.0;1063.3;;;;;;;;;;;;;;;;;-59.057133;-34.108246;-54.03684;;983.7
1208.0;1063.3;;;;;;;;;;;;;;-0.74306464;-0.3541368;-0.12005982;;;;;983.7
1208.0;1063.3;;;;;;;;;;;;;;;;;-59.751427;-34.67284;-55.955685;;993.4
1208.0;1063.3;;;;;;;;;;;;;;-0.74239326;-0.37018952;-0.09320353;;;;;993.4
1208.0;1063.3;;;;;;;;;;;;;;;;;-64.42076;-37.453842;-59.61028;;993.4
1208.0;1063.3;;;;;;;;;;;;;;-0.73519087;-0.42323068;-0.06756798;;;;;993.4
1208.0;1063.3;;;;;;;;;;;;;;;;;-73.73272;-37.08762;-66.53417;;1003.0
1208.0;1063.3;;;;;;;;;;;;;;-0.7130955;-0.51698357;-0.08026368;;;;;1003.0
1208.0;1063.3;;;;;;;;;;;;;;;;;-80.33616;-35.84399;-75.95294;;1003.0
1208.0;1063.3;;;;;;;;;;;;;;-0.7116916;-0.62929165;-0.11725211;;;;;1003.0
1209.0;1122.6;;;;;;;;;;;;;;;;;-80.38575;-35.78295;-91.12445;;1012.6
1209.0;1122.6;;;;;;;;;;;;;;-0.72273934;-0.72981966;-0.15021211;;;;;1012.6
1209.0;1122.6;;;;;;;;;;;;;;;;;-74.70168;-39.39558;-112.128815;;1012.6
1209.0;1122.6;;;;;;;;;;;;;;-0.7461165;-0.81276894;-0.14716025;;;;;1012.6
1209.0;1122.6;;;;;;;;;;;;;;;;;-66.93472;-45.36195;-124.40871;;1022.2
1209.0;1122.6;;;;;;;;;;;;;;-0.7467269;-0.8926664;-0.12128056;;;;;1022.2
1209.0;1122.6;;;;;;;;;;;;;;;;;-57.294685;-45.87695;-124.988556;;1022.2
1209.0;1122.6;;;;;;;;;;;;;;-0.7462996;-0.94802696;-0.04449599;;;;;1022.2
1209.0;1122.6;;;;;;;;;;;;;;;;;-57.092503;-46.491135;-124.988556;;1031.9
1209.0;1122.6;;;;;;;;;;;;;;-0.7625965;-0.99429303;-5.4933317E-4;;;;;1031.9
1209.0;1122.6;;;;;;;;;;;;;;;;;-61.96402;-46.380505;-124.988556;;1031.9
1209.0;1122.6;;;;;;;;;;;;;;-0.77498704;-0.99270606;-0.054139838;;;;;1031.9
1209.0;1123.4;;;;;;;;;;;;;;;;;-62.143314;-49.4171;-124.988556;;1041.5
1209.0;1123.4;;;;;;;;;;;;;;-0.86935025;-1.0157781;-0.05713065;;;;;1041.5
1209.0;1123.4;;;;;;;;;;;;;;;;;-67.77398;-58.24839;-124.988556;;1041.5
1209.0;1123.4;;;;;;;;;;;;;;-0.9535203;-1.052034;-0.09308145;;;;;1041.5
1209.0;1123.4;;;;;;;;;;;;;;;;;-65.48509;-63.303017;-124.988556;;1051.2
1209.0;1123.4;;;;;;;;;;;;;;-1.0524613;-1.0361644;-0.10095523;;;;;1051.2
1209.0;1123.4;;;;;;;;;;;;;;;;;-64.24528;-63.18476;-124.988556;;1051.2
1209.0;1123.4;;;;;;;;;;;;;;-1.1891232;-0.97128206;-0.08752709;;;;;1051.2
1209.0;1123.4;;;;;;;;;;;;;;;;;-60.110016;-63.146614;-124.988556;;1060.8
1209.0;1123.4;;;;;;;;;;;;;;-1.3403119;-0.83657336;-0.10522782;;;;;1060.8
1209.0;1123.4;;;;;;;;;;;;;;;;;-55.219425;-64.24909;-124.988556;;1060.8
1209.0;1123.4;;;;;;;;;;;;;;-1.4877774;-0.6772668;-0.17041536;;;;;1060.8
1268.0;1132.1;;;;0.0;0.0;0.0;;;;;;;;;;;;;;;
1268.0;1132.1;;;;-0.09579088;0.13754655;0.05397416;;;;;;;;;;;;;;;
1268.0;1132.1;;;;-0.22306064;0.826336;0.15649416;;;;;;;;;;;;;;;
1268.0;1132.1;;;;-0.22975162;0.9281808;0.16491319;;;;;;;;;;;;;;;
1268.0;1132.1;;;;-0.23382571;0.92715085;0.16893007;;;;;;;;;;;;;;;
1268.0;1142.1;;;;-0.23644641;0.9275819;0.17179109;;;;;;;;;;;;;;;
1268.0;1142.1;;;;-0.23529056;0.92720807;0.1750641;;;;;;;;;;;;;;;
1268.0;1142.1;;;;-0.2332268;0.9268342;0.18057634;;;;;;;;;;;;;;;
1268.0;1142.1;;;;-0.23742297;0.9278337;0.18576051;;;;;;;;;;;;;;;
1268.0;1142.1;;;;-0.24145511;0.92868054;0.19121173;;;;;;;;;;;;;;;
1268.0;1143.5;57490;57496;12984;;;;;;;;;;;;;;;;;;
1268.0;1152.1;;;;-0.23874286;0.93244565;0.19848254;;;;;;;;;;;;;;;
1268.0;1152.1;;;;-0.2394791;0.9375802;0.2062073;;;;;;;;;;;;;;;
1268.0;1152.1;;;;-0.23813632;0.94332135;0.21221927;;;;;;;;;;;;;;;
1268.0;1152.1;;;;-0.23915485;0.95048153;0.21936801;;;;;;;;;;;;;;;
1268.0;1152.1;;;;-0.2386513;0.95865643;0.2241135;;;;;;;;;;;;;;;
1273.0;1162.2;;;;-0.2360268;0.96945965;0.23004535;;;;;;;;;;;;;;;
1273.0;1162.2;;;;-0.23424152;0.982525;0.23326877;;;;;;;;;;;;;;;
1273.0;1162.2;;;;-0.2364426;0.9936944;0.23437122;;;;;;;;;;;;;;;
1273.0;1162.2;;;;-0.23985675;1.0100251;0.2332001;;;;;;;;;;;;;;;
1273.0;1162.2;;;;-0.2446976;1.029339;0.23290256;;;;;;;;;;;;;;;
1273.0;1163.6;73892;73793;12972;;;;;;;;;;;;;;;;;;
1273.0;1170.0;;;;;;;;;;;;;0;;;;;;;;
1273.0;1170.0;;;;;;;;;;;;;0;;;;;;;;
1273.0;1170.0;;;;;;;;;;;;;-1;;;;;;;;
1273.0;1170.0;;;;;;;;;;;;;-2;;;;;;;;
1273.0;1170.0;;;;;;;;;;;;;-2;;;;;;;;
1273.0;1172.3;;;;-0.2525635;1.0518152;0.23324588;;;;;;;;;;;;;;;
1273.0;1172.3;;;;-0.26262668;1.0756379;0.23533633;;;;;;;;;;;;;;;
1273.0;1172.3;;;;-0.27199557;1.1039354;0.23835757;;;;;;;;;;;;;;;
1273.0;1172.3;;;;-0.28258136;1.1336213;0.24250796;;;;;;;;;;;;;;;
1273.0;1172.3;;;;-0.29661563;1.1627809;0.24818423;;;;;;;;;;;;;;;
1273.0;1182.4;;;;-0.3134003;1.1906625;0.25493625;;;;;;;;;;;;;;;
1273.0;1182.4;;;;-0.32613757;1.2229387;0.26451495;;;;;;;;;;;;;;;
1273.0;1182.4;;;;-0.33695605;1.2574617;0.27484134;;;;;;;;;;;;;;;
1273.0;1182.4;;;;-0.34840396;1.2947694;0.28665927;;;;;;;;;;;;;;;
1273.0;1182.4;;;;-0.36819842;1.3316194;0.30170825;;;;;;;;;;;;;;;
1274.0;1183.5;;;;;;;;;;;;;;;;;-41.600544;-61.655018;-124.988556;;1070.4
1274.0;1183.5;;;;;;;;;;;;;;-1.6727805;-0.55330056;-0.30726036;;;;;1070.4
1274.0;1183.5;;;;;;;;;;;;;;;;;-23.75866;-50.569168;-121.72689;;1070.4
1274.0;1183.5;;;;;;;;;;;;;;-1.891293;-0.374279;-0.4041261;;;;;1070.4
1274.0;1183.5;;;;;;;;;;;;;;;;;-16.155737;-44.160286;-106.15482;;1080.0
1274.0;1183.5;;;;;;;;;;;;;;-1.9998169;-0.27149266;-0.4958037;;;;;1080.0
1274.0;1183.5;;;;;;;;;;;;;;;;;-11.314737;-45.098724;-99.87182;;1080.0
1274.0;1183.5;;;;;;;;;;;;;;-1.9998169;-0.09112827;-0.5575121;;;;;1080.0
1274.0;1183.5;;;;;;;;;;;;;;;;;1.0910367;-44.095432;-99.29197;;1089.7
1274.0;1183.5;;;;;;;;;;;;;;-1.9998169;0.07586902;-0.5656301;;;;;1089.7
1274.0;1183.5;;;;;;;;;;;;;;;;;23.274178;-36.671803;-95.885345;;1089.7
1274.0;1183.5;;;;;;;;;;;;;;-1.9222999;0.2174749;-0.5166784;;;;;1089.7
1274.0;1184.1;;;;;;;;;;;;;;;;;32.26188;-26.764734;-89.05682;;1099.3
1274.0;1184.1;;;;;;;;;;;;;;-1.8389844;0.29486984;-0.42182684;;;;;1099.3
1274.0;1184.1;;;;;;;;;;;;;;;;;15.007477;-24.95651;-85.875275;;1099.3
1274.0;1184.1;;;;;;;;;;;;;;-1.8080996;0.3157445;-0.38850063;;;;;1099.3
1274.0;1184.1;;;;;;;;;;;;;;;;;-14.263588;-27.050844;-92.80297;;1109.0
1274.0;1184.1;;;;;;;;;;;;;;-1.7582934;0.3361919;-0.43189794;;;;;1109.0
1274.0;1184.1;;;;;;;;;;;;;;;;;-44.972836;-22.72103;-107.57394;;1109.0
1274.0;1184.1;;;;;;;;;;;;;;-1.6601459;0.35425887;-0.5595874;;;;;1109.0
1274.0;1184.1;;;;;;;;;;;;;;;;;-71.39805;-8.136998;-120.9067;;1118.5
1274.0;1184.1;;;;;;;;;;;;;;-1.5872676;0.33643606;-0.70961636;;;;;1118.5
1274.0;1184.1;;;;;;;;;;;;;;;;;-95.728935;7.683035;-124.96567;;1118.5
1274.0;1184.1;;;;;;;;;;;;;;-1.5226295;0.2287057;-0.8122196;;;;;1118.5
1329.0;1183.9;90197;90274;12967;;;;;;;;;;;;;;;;;;
1329.0;1192.3;;;;-0.38824087;1.366314;0.31657794;;;;;;;;;;;;;;;
1329.0;1192.3;;;;-0.40741354;1.3992807;0.33500674;;;;;;;;;;;;;;;
1329.0;1192.3;;;;-0.42592245;1.427559;0.3543053;;;;;;;;;;;;;;;
1329.0;1192.3;;;;-0.4449845;1.4507028;0.37336734;;;;;;;;;;;;;;;
1329.0;1192.3;;;;-0.4622231;1.4681207;0.3937226;;;;;;;;;;;;;;;
1329.0;1202.3;;;;-0.47739416;1.4793664;0.41568;;;;;;;;;;;;;;;
1329.0;1202.3;;;;-0.4926377;1.484131;0.43969733;;;;;;;;;;;;;;;
1329.0;1202.3;;;;-0.5066796;1.4835092;0.4620667;;;;;;;;;;;;;;;
1329.0;1202.3;;;;-0.51281744;1.4781839;0.48637015;;;;;;;;;;;;;;;
1329.0;1202.3;;;;-0.51681525;1.4705354;0.51194006;;;;;;;;;;;;;;;
1329.0;1203.8;106621;106630;12953;;;;;;;;;;;;;;;;;;
1329.0;1210.0;;;;;;;;;;;;;-23;;;;;;;;
1329.0;1210.0;;;;;;;;;;;;;13;;;;;;;;
1329.0;1210.0;;;;;;;;;;;;;14;;;;;;;;
1329.0;1210.0;;;;;;;;;;;;;-109;;;;;;;;
1329.0;1210.0;;;;;;;;;;;;;15;;;;;;;;
1329.0;1212.0;;;;-0.5211907;1.4586984;0.5377694;;;;;;;;;;;;;;;
1329.0;1212.0;;;;-0.51790243;1.4414254;0.56468207;;;;;;;;;;;;;;;
1329.0;1212.0;;;;-0.51317984;1.419449;0.5923081;;;;;;;;;;;;;;;
1329.0;1212.0;;;;-0.50669867;1.3943712;0.62255484;;;;;;;;;;;;;;;
1329.0;1212.0;;;;-0.49594885;1.3643991;0.65308005;;;;;;;;;;;;;;;
1332.0;1222.1;;;;-0.48916632;1.3329965;0.6840783;;;;;;;;;;;;;;;
1332.0;1222.1;;;;-0.47827536;1.2999994;0.7144509;;;;;;;;;;;;;;;
1332.0;1222.1;;;;-0.4677964;1.2675363;0.747654;;;;;;;;;;;;;;;
1332.0;1222.1;;;;-0.45815665;1.2371331;0.7808763;;;;;;;;;;;;;;;
1332.0;1222.1;;;;-0.45086676;1.2115785;0.8159715;;;;;;;;;;;;;;;
1332.0;1223.7;123120;123045;12944;;;;;;;;;;;;;;;;;;
1332.0;1232.3;;;;-0.43988806;1.1880533;0.85076535;;;;;;;;;;;;;;;
1332.0;1232.3;;;;-0.4320336;1.1684152;0.8835565;;;;;;;;;;;;;;;
1332.0;1232.3;;;;-0.42416388;1.1498109;0.9112283;;;;;;;;;;;;;;;
1332.0;1232.3;;;;-0.41666037;1.1330072;0.94034207;;;;;;;;;;;;;;;
1332.0;1232.3;;;;-0.41204077;1.1171113;0.96649563;;;;;;;;;;;;;;;
1332.0;1242.4;;;;-0.4072762;1.1007158;0.9888307;;;;;;;;;;;;;;;
1332.0;1242.4;;;;-0.40409094;1.082924;1.0068475;;;;;;;;;;;;;;;
1332.0;1242.4;;;;-0.4014817;1.0643235;1.0214578;;;;;;;;;;;;;;;
1332.0;1242.4;;;;-0.40111548;1.0438157;1.0298158;;;;;;;;;;;;;;;
1332.0;1242.4;;;;-0.39491278;1.0245401;1.0313607;;;;;;;;;;;;;;;
1332.0;1244.0;139441;139452;12931;;;;;;;;;;;;;;;;;;
1332.0;1250.4;;;;;;;;;;;;;-234;;;;;;;;
1332.0;1250.4;;;;;;;;;;;;;-127;;;;;;;;
1332.0;1250.4;;;;;;;;;;;;;169;;;;;;;;
1332.0;1250.4;;;;;;;;;;;;;-1249;;;;;;;;
1332.0;1250.4;;;;;;;;;;;;;641;;;;;;;;
1335.0;1250.7;;;;;;;;;;;;;;;;;-106.997894;16.434217;-124.988556;;1128.2
1335.0;1250.7;;;;;;;;;;;;;;-1.4286935;0.09418012;-0.9558397;;;;;1128.2
1335.0;1250.7;;;;;;;;;;;;;;;;;-101.50456;30.030212;-124.988556;;1128.2
1335.0;1250.7;;;;;;;;;;;;;;-1.4354686;-0.03747673;-1.0461135;;;;;1128.2
1335.0;1250.7;;;;;;;;;;;;;;;;;-98.921936;42.90521;-124.988556;;1137.8
1335.0;1250.7;;;;;;;;;;;;;;-1.4818567;-0.10180975;-1.0871303;;;;;1137.8
1335.0;1250.7;;;;;;;;;;;;;;;;;-102.88171;48.802914;-124.988556;;1137.8
1335.0;1250.7;;;;;;;;;;;;;;-1.5173192;-0.16498306;-1.1339457;;;;;1137.8
1335.0;1250.7;;;;;;;;;;;;;;;;;-104.20545;47.63558;-124.988556;;1147.5
1335.0;1250.7;;;;;;;;;;;;;;-1.5457015;-0.22254097;-1.0850551;;;;;1147.5
1335.0;1250.7;;;;;;;;;;;;;;;;;-101.439705;33.47499;-124.988556;;1147.5
1335.0;1250.7;;;;;;;;;;;;;;-1.5566882;-0.27820674;-0.9519333;;;;;1147.5
1335.0;1251.5;;;;;;;;;;;;;;;;;-92.89452;11.329996;-124.988556;;1157.0
1335.0;1251.5;;;;;;;;;;;;;;-1.51854;-0.36988434;-0.7801141;;;;;1157.0
1335.0;1251.5;;;;;;;;;;;;;;;;;-81.495865;-7.6029234;-124.988556;;1157.0
1335.0;1251.5;;;;;;;;;;;;;;-1.4372997;-0.42286447;-0.56697285;;;;;1157.0
1335.0;1251.5;;;;;;;;;;;;;;;;;-75.04501;-17.689291;-122.604294;;1166.7
1335.0;1251.5;;;;;;;;;;;;;;-1.3804742;-0.42854092;-0.38789025;;;;;1166.7
1335.0;1251.5;;;;;;;;;;;;;;;;;-73.213905;-19.287699;-110.477005;;1166.7
1335.0;1251.5;;;;;;;;;;;;;;-1.3375652;-0.4293344;-0.30414745;;;;;1166.7
1335.0;1251.5;;;;;;;;;;;;;;;;;-67.06443;-15.167699;-93.920715;;1176.4
1335.0;1251.5;;;;;;;;;;;;;;-1.31077;-0.41608936;-0.22766808;;;;;1176.4
1335.0;1251.5;;;;;;;;;;;;;;;;;-59.644615;-14.603107;-81.202126;;1176.4
1335.0;1251.5;;;;;;;;;;;;;;-1.2494278;-0.384167;-0.19666128;;;;;1176.4
1388.0;1252.3;;;;-0.38925177;1.0026475;1.0312158;;;;;;;;;;;;;;;
1388.0;1252.3;;;;-0.3894921;0.9799882;1.0268899;;;;;;;;;;;;;;;
1388.0;1252.3;;;;-0.38632208;0.9550134;1.0200006;;;;;;;;;;;;;;;
1388.0;1252.3;;;;-0.38566977;0.93244565;1.0063478;;;;;;;;;;;;;;;
1388.0;1252.3;;;;-0.38240057;0.9095384;0.9905473;;;;;;;;;;;;;;;
1388.0;1262.3;;;;-0.38303763;0.88731015;0.9690591;;;;;;;;;;;;;;;
1388.0;1262.3;;;;-0.3750344;0.86717236;0.94721615;;;;;;;;;;;;;;;
1388.0;1262.3;;;;-0.37798697;0.847046;0.9216691;;;;;;;;;;;;;;;
1388.0;1262.3;;;;-0.3816262;0.8278276;0.89473355;;;;;;;;;;;;;;;
1388.0;1262.3;;;;-0.37919623;0.8084146;0.86208737;;;;;;;;;;;;;;;
1388.0;1264.1;155795;155796;12917;;;;;;;;;;;;;;;;;;
1388.0;1272.2;;;;-0.36106876;0.79143155;0.8310319;;;;;;;;;;;;;;;
1388.0;1272.2;;;;-0.3549576;0.7769624;0.7968217;;;;;;;;;;;;;;;
1388.0;1272.2;;;;-0.3543854;0.7655755;0.76399624;;;;;;;;;;;;;;;
1388.0;1272.2;;;;-0.34934238;0.75260174;0.7326699;;;;;;;;;;;;;;;
1388.0;1272.2;;;;-0.33864978;0.7415429;0.7006722;;;;;;;;;;;;;;;
1388.0;1282.3;;;;-0.3254967;0.7342034;0.6722031;;;;;;;;;;;;;;;
1388.0;1282.3;;;;-0.3103371;0.7285729;0.6420136;;;;;;;;;;;;;;;
1388.0;1282.3;;;;-0.30521396;0.72518545;0.61528784;;;;;;;;;;;;;;;
1388.0;1282.3;;;;-0.28966907;0.72212607;0.5921441;;;;;;;;;;;;;;;
1388.0;1282.3;;;;-0.28172305;0.71685416;0.56862646;;;;;;;;;;;;;;;
1391.0;1284.1;172102;172144;12932;;;;;;;;;;;;;;;;;;
1391.0;1290.4;;;;;;;;;;;;;3679;;;;;;;;
1391.0;1290.4;;;;;;;;;;;;;-2165;;;;;;;;
1391.0;1290.4;;;;;;;;;;;;;-7926;;;;;;;;
1391.0;1290.4;;;;;;;;;;;;;6320;;;;;;;;
1391.0;1290.4;;;;;;;;;;;;;42210;;;;;;;;
1391.0;1292.4;;;;-0.26557162;0.7107697;0.54643637;;;;;;;;;;;;;;;
1391.0;1292.4;;;;-0.2507744;0.7050782;0.5300675;;;;;;;;;;;;;;;
1391.0;1292.4;;;;-0.23980716;0.7015305;0.5125161;;;;;;;;;;;;;;;
1391.0;1292.4;;;;-0.23378757;0.70109564;0.49668127;;;;;;;;;;;;;;;
1391.0;1292.4;;;;-0.23243335;0.6980172;0.48003012;;;;;;;;;;;;;;;
1391.0;1302.5;;;;-0.22801211;0.6958428;0.46506125;;;;;;;;;;;;;;;
1391.0;1302.5;;;;-0.2262192;0.69237524;0.4546166;;;;;;;;;;;;;;;
1391.0;1302.5;;;;-0.22399142;0.6923676;0.4474526;;;;;;;;;;;;;;;
1391.0;1302.5;;;;-0.21977237;0.6932488;0.44302756;;;;;;;;;;;;;;;
1391.0;1302.5;;;;-0.216095;0.6965485;0.4393006;;;;;;;;;;;;;;;
1392.0;1303.9;;;;;;;;;;;;;;;;;-52.182835;-15.861996;-72.20298;;1186.0
1392.0;1303.9;;;;;;;;;;;;;;-1.1620227;-0.37934506;-0.1920835;;;;;1186.0
1392.0;1303.9;;;;;;;;;;;;;;;;;-42.748802;-15.079958;-62.078465;;1186.0
1392.0;1303.9;;;;;;;;;;;;;;-1.0675374;-0.390759;-0.16589862;;;;;1186.0
1392.0;1303.9;;;;;;;;;;;;;;;;;-29.763178;-14.408551;-48.368023;;1195.6
1392.0;1303.9;;;;;;;;;;;;;;-0.9591357;-0.38258004;-0.11407819;;;;;1195.6
1392.0;1303.9;;;;;;;;;;;;;;;;;-12.657552;-14.217811;-33.318584;;1195.6
1392.0;1303.9;;;;;;;;;;;;;;-0.85366374;-0.34235665;-0.05749687;;;;;1195.6
1392.0;1303.9;;;;;;;;;;;;;;;;;9.151738;-12.653737;-19.882809;;1205.2
1392.0;1303.9;;;;;;;;;;;;;;-0.76595354;-0.27521592;0.01721244;;;;;1205.2
1392.0;1303.9;;;;;;;;;;;;;;;;;29.560991;-10.593738;-6.7751093;;1205.2
1392.0;1303.9;;;;;;;;;;;;;;-0.7286599;-0.19989623;0.08972442;;;;;1205.2
1392.0;1304.3;188528;188547;12929;;;;;;;;;;;;;;;;;;
1397.0;1305.0;;;;;;;;;;;;;;;;;45.907467;-10.345775;6.7560353;;1214.7
1397.0;1305.0;;;;;;;;;;;;;;-0.7185888;-0.12512589;0.12494278;;;;;1214.7
1397.0;1305.0;;;;;;;;;;;;;;;;;57.042908;-11.009553;18.456068;;1214.7
1397.0;1305.0;;;;;;;;;;;;;;-0.6852016;-0.050050355;0.12091433;;;;;1214.7
1397.0;1305.0;;;;;;;;;;;;;;;;;62.41035;-9.155553;29.80514;;1224.4
1397.0;1305.0;;;;;;;;;;;;;;-0.6137272;0.018127995;0.08362072;;;;;1224.4
1397.0;1305.0;;;;;;;;;;;;;;;;;63.39839;-2.1820734;41.768394;;1224.4
1397.0;1305.0;;;;;;;;;;;;;;-0.5463424;0.09540086;0.051759392;;;;;1224.4
1397.0;1305.0;;;;;;;;;;;;;;;;;61.864834;5.8671837;55.39491;;1234.1
1397.0;1305.0;;;;;;;;;;;;;;-0.47065645;0.16113773;0.01782281;;;;;1234.1
1397.0;1305.0;;;;;;;;;;;;;;;;;62.12424;10.917997;69.0672;;1234.1
1397.0;1305.0;;;;;;;;;;;;;;-0.40736106;0.2229072;-0.013855403;;;;;1234.1
1397.0;1312.5;;;;-0.20855716;0.7028542;0.4391709;;;;;;;;;;;;;;;
1397.0;1312.5;;;;-0.20097736;0.7076302;0.43619925;;;;;;;;;;;;;;;
1397.0;1312.5;;;;-0.19604877;0.7124215;0.43459326;;;;;;;;;;;;;;;
1397.0;1312.5;;;;-0.18937305;0.7192612;0.430687;;;;;;;;;;;;;;;
1397.0;1312.5;;;;-0.18483354;0.7269593;0.42795187;;;;;;;;;;;;;;;
1445.0;1318.5;;;;;;;;;;;;;;;;;62.017426;12.825403;83.517715;;1243.7
1445.0;1318.5;;;;;;;;;;;;;;-0.35358745;0.27741325;-0.03112888;;;;;1243.7
1445.0;1318.5;;;;;;;;;;;;;;;;;57.35191;13.088626;98.44127;;1243.7
1445.0;1318.5;;;;;;;;;;;;;;-0.2997528;0.27808467;-0.061830502;;;;;1243.7
1445.0;1318.5;;;;;;;;;;;;;;;;;47.566914;13.458663;107.76467;;1253.2
1445.0;1318.5;;;;;;;;;;;;;;-0.2351146;0.30463576;-0.051026948;;;;;1253.2
1445.0;1318.5;;;;;;;;;;;;;;;;;38.201546;10.143589;118.335526;;1253.2
1445.0;1318.5;;;;;;;;;;;;;;-0.18774988;0.26367992;-0.05957213;;;;;1253.2
1445.0;1318.5;;;;;;;;;;;;;;;;;31.281471;8.339183;124.2523;;1262.8
1445.0;1318.5;;;;;;;;;;;;;;-0.16687521;0.23822749;-0.038026065;;;;;1262.8
1445.0;1318.5;;;;;;;;;;;;;;;;;24.719994;5.32548;124.988556;;1262.8
1445.0;1318.5;;;;;;;;;;;;;;-0.1815241;0.2567217;0.012451552;;;;;1262.8
1445.0;1322.5;;;;-0.19171146;0.73528296;0.422329;;;;;;;;;;;;;;;
1445.0;1322.5;;;;-0.19667438;0.7382737;0.41999823;;;;;;;;;;;;;;;
1445.0;1322.5;;;;-0.19649127;0.73432165;0.41611487;;;;;;;;;;;;;;;
1445.0;1322.5;;;;-0.1927109;0.72594076;0.41234213;;;;;;;;;;;;;;;
1445.0;1322.5;;;;-0.19308475;0.7140656;0.40761954;;;;;;;;;;;;;;;
1445.0;1324.4;205028;205021;12934;;;;;;;;;;;;;;;;;;
1445.0;1330.5;;;;;;;;;;;;;75399;;;;;;;;
1445.0;1330.5;;;;;;;;;;;;;83444;;;;;;;;
1445.0;1330.5;;;;;;;;;;;;;72007;;;;;;;;
1445.0;1330.5;;;;;;;;;;;;;62485;;;;;;;;
1445.0;1330.5;;;;;;;;;;;;;63210;;;;;;;;
1450.0;1332.3;;;;-0.18217851;0.70200735;0.4071694;;;;;;;;;;;;;;;
1450.0;1332.3;;;;-0.16430666;0.69419485;0.40503317;;;;;;;;;;;;;;;
1450.0;1332.3;;;;-0.14484026;0.69334036;0.40647513;;;;;;;;;;;;;;;
1450.0;1332.3;;;;-0.12952806;0.692936;0.4087487;;;;;;;;;;;;;;;
1450.0;1332.3;;;;-0.10895921;0.6916085;0.40993124;;;;;;;;;;;;;;;
1450.0;1342.5;;;;-0.08821488;0.6896401;0.4099999;;;;;;;;;;;;;;;
1450.0;1342.5;;;;-0.0668335;0.68895346;0.40987402;;;;;;;;;;;;;;;
1450.0;1342.5;;;;-0.047695167;0.68715674;0.40809637;;;;;;;;;;;;;;;
1450.0;1342.5;;;;-0.033645634;0.6870461;0.404934;;;;;;;;;;;;;;;
1450.0;1342.5;;;;-0.029418949;0.68866354;0.4018746;;;;;;;;;;;;;;;
1450.0;1344.4;221293;221317;12936;;;;;;;;;;;;;;;;;;
1450.0;1352.6;;;;-0.019699099;0.69294745;0.39464194;;;;;;;;;;;;;;;
1450.0;1352.6;;;;-0.012275698;0.7012177;0.3860398;;;;;;;;;;;;;;;
1450.0;1352.6;;;;-0.015563967;0.70956427;0.37718588;;;;;;;;;;;;;;;
1450.0;1352.6;;;;-0.020362856;0.71568686;0.3676453;;;;;;;;;;;;;;;
1450.0;1352.6;;;;-0.027095798;0.7210999;0.35841373;;;;;;;;;;;;;;;
1450.0;1362.7;;;;-0.035858158;0.7277642;0.34967807;;;;;;;;;;;;;;;
1450.0;1362.7;;;;-0.046745304;0.73213583;0.34172443;;;;;;;;;;;;;;;
1450.0;1362.7;;;;-0.056953438;0.7376366;0.33568576;;;;;;;;;;;;;;;
1450.0;1362.7;;;;-0.07158662;0.746357;0.32982638;;;;;;;;;;;;;;;
1450.0;1362.7;;;;-0.088737495;0.7541429;0.3268166;;;;;;;;;;;;;;;
1451.0;1363.7;;;;;;;;;;;;;;;;;16.884367;-5.413221;124.988556;;1272.5
1451.0;1363.7;;;;;;;;;;;;;;-0.20636617;0.27265236;0.06256294;;;;;1272.5
1451.0;1363.7;;;;;;;;;;;;;;;;;12.802515;-22.812586;124.988556;;1272.5
1451.0;1363.7;;;;;;;;;;;;;;-0.21906187;0.25592822;0.079775386;;;;;1272.5
1451.0;1363.7;;;;;;;;;;;;;;;;;14.519181;-38.0604;124.988556;;1282.2
1451.0;1363.7;;;;;;;;;;;;;;-0.20606098;0.2793054;0.123111665;;;;;1282.2
1451.0;1363.7;;;;;;;;;;;;;;;;;17.887661;-50.34028;124.988556;;1282.2
1451.0;1363.7;;;;;;;;;;;;;;-0.18079165;0.29841;0.16290781;;;;;1282.2
1451.0;1363.7;;;;;;;;;;;;;;;;;20.77166;-57.79824;124.988556;;1291.9
1451.0;1363.7;;;;;;;;;;;;;;-0.14233834;0.30323192;0.16180913;;;;;1291.9
1451.0;1363.7;;;;;;;;;;;;;;;;;18.299662;-55.60854;124.988556;;1291.9
1451.0;1363.7;;;;;;;;;;;;;;-0.1225013;0.2575152;0.17169714;;;;;1291.9
1451.0;1364.6;237726;237684;12921;;;;;;;;;;;;;;;;;;
1451.0;1370.8;;;;;;;;;;;;;62835;;;;;;;;
1451.0;1370.8;;;;;;;;;;;;;57861;;;;;;;;
1451.0;1370.8;;;;;;;;;;;;;54769;;;;;;;;
1451.0;1370.8;;;;;;;;;;;;;52176;;;;;;;;
1451.0;1370.8;;;;;;;;;;;;;49272;;;;;;;;
1451.0;1372.7;;;;-0.0961342;0.7618829;0.32747653;;;;;;;;;;;;;;;
1451.0;1372.7;;;;-0.10198595;0.76563656;0.3306122;;;;;;;;;;;;;;;
1451.0;1372.7;;;;-0.11275484;0.76464856;0.33279803;;;;;;;;;;;;;;;
1451.0;1372.7;;;;-0.12028505;0.76630414;0.33549884;;;;;;;;;;;;;;;
1451.0;1372.7;;;;-0.13401414;0.76997006;0.33752826;;;;;;;;;;;;;;;
1505.0;1378.8;;;;;;;;;;;;;;;;;13.920255;-46.880245;124.42778;;1301.4
1505.0;1378.8;;;;;;;;;;;;;;-0.14697714;0.16309091;0.16608173;;;;;1301.4
1505.0;1378.8;;;;;;;;;;;;;;;;;10.036775;-37.07236;117.736595;;1301.4
1505.0;1378.8;;;;;;;;;;;;;;-0.22742394;0.07306131;0.1737724;;;;;1301.4
1505.0;1378.8;;;;;;;;;;;;;;;;;-1.6861477;-32.609028;113.567;;1311.1
1505.0;1378.8;;;;;;;;;;;;;;-0.3051851;0.036133915;0.16626485;;;;;1311.1
1505.0;1378.8;;;;;;;;;;;;;;;;;-20.516068;-33.139286;114.94415;;1311.1
1505.0;1378.8;;;;;;;;;;;;;;-0.34266183;0.009033479;0.13434248;;;;;1311.1
1505.0;1378.8;;;;;;;;;;;;;;;;;-43.462173;-33.234657;113.61278;;1320.6
1505.0;1378.8;;;;;;;;;;;;;;-0.3733024;-0.01678518;0.10376293;;;;;1320.6
1505.0;1378.8;;;;;;;;;;;;;;;;;-70.08194;-29.538103;109.12275;;1320.6
1505.0;1378.8;;;;;;;;;;;;;;-0.4009522;-0.04669332;0.058290355;;;;;1320.6
1505.0;1382.7;;;;-0.14785005;0.777588;0.33897403;;;;;;;;;;;;;;;
1505.0;1382.7;;;;-0.1635666;0.7861749;0.33643726;;;;;;;;;;;;;;;
1505.0;1382.7;;;;-0.18192674;0.79184353;0.3386002;;;;;;;;;;;;;;;
1505.0;1382.7;;;;-0.19618228;0.7962266;0.34009555;;;;;;;;;;;;;;;
1505.0;1382.7;;;;-0.2130051;0.8044969;0.34139636;;;;;;;;;;;;;;;
1505.0;1384.7;254099;254040;12919;;;;;;;;;;;;;;;;;;
1505.0;1392.5;;;;-0.23437503;0.8148118;0.34237674;;;;;;;;;;;;;;;
1505.0;1392.5;;;;-0.2538605;0.82616055;0.34578326;;;;;;;;;;;;;;;
1505.0;1392.5;;;;-0.26632312;0.83827984;0.35125354;;;;;;;;;;;;;;;
1505.0;1392.5;;;;-0.27777484;0.8500215;0.35665515;;;;;;;;;;;;;;;
1505.0;1392.5;;;;-0.29034045;0.8615037;0.36124423;;;;;;;;;;;;;;;
1509.0;1402.7;;;;-0.3035393;0.8715135;0.36587527;;;;;;;;;;;;;;;
1509.0;1402.7;;;;-0.31338122;0.88238156;0.37259677;;;;;;;;;;;;;;;
1509.0;1402.7;;;;-0.3261223;0.89143;0.37931448;;;;;;;;;;;;;;;
1509.0;1402.7;;;;-0.33381274;0.90127575;0.38574606;;;;;;;;;;;;;;;
1509.0;1402.7;;;;-0.34385684;0.90927136;0.39319998;;;;;;;;;;;;;;;
1509.0;1404.7;262143;262143;12914;;;;;;;;;;;;;;;;;;
1509.0;1411.0;;;;;;;;;;;;;47062;;;;;;;;
1509.0;1411.0;;;;;;;;;;;;;44673;;;;;;;;
1509.0;1411.0;;;;;;;;;;;;;42522;;;;;;;;
1509.0;1411.0;;;;;;;;;;;;;40720;;;;;;;;
1509.0;1411.0;;;;;;;;;;;;;39011;;;;;;;;
1509.0;1412.8;;;;-0.35139087;0.91643155;0.39984137;;;;;;;;;;;;;;;
1509.0;1412.8;;;;-0.36028293;0.92266476;0.40753943;;;;;;;;;;;;;;;
1509.0;1412.8;;;;-0.3718224;0.9261514;0.41379172;;;;;;;;;;;;;;;
1509.0;1412.8;;;;-0.3868943;0.9278451;0.41816336;;;;;;;;;;;;;;;
1509.0;1412.8;;;;-0.39968115;0.931244;0.42309195;;;;;;;;;;;;;;;
1509.0;1422.9;;;;-0.41426092;0.9330789;0.42690283;;;;;;;;;;;;;;;
1509.0;1422.9;;;;-0.4272347;0.93558896;0.43145376;;;;;;;;;;;;;;;
1509.0;1422.9;;;;-0.43752676;0.94051754;0.43627173;;;;;;;;;;;;;;;
1509.0;1422.9;;;;-0.45240027;0.94560254;0.44292074;;;;;;;;;;;;;;;
1509.0;1422.9;;;;-0.46750647;0.9452287;0.4472962;;;;;;;;;;;;;;;
1565.0;1424.4;;;;;;;;;;;;;;;;;-98.08268;-22.446363;103.09915;;1330.3
1565.0;1424.4;;;;;;;;;;;;;;-0.43391216;-0.07647938;-0.0077517014;;;;;1330.3
1565.0;1424.4;;;;;;;;;;;;;;;;;-120.8037;-14.084292;96.678825;;1330.3
1565.0;1424.4;;;;;;;;;;;;;;-0.44874418;-0.115970336;-0.104373306;;;;;1330.3
1565.0;1424.4;;;;;;;;;;;;;;;;;-124.988556;-3.3951843;92.72286;;1340.0
1565.0;1424.4;;;;;;;;;;;;;;-0.4455092;-0.1605884;-0.23383282;;;;;1340.0
1565.0;1424.4;;;;;;;;;;;;;;;;;-124.988556;12.775811;88.484604;;1340.0
1565.0;1424.4;;;;;;;;;;;;;;-0.43476668;-0.19458602;-0.3671987;;;;;1340.0
1565.0;1424.4;;;;;;;;;;;;;;;;;-124.988556;31.80029;83.517715;;1349.6
1565.0;1424.4;;;;;;;;;;;;;;-0.47260964;-0.23541978;-0.4862209;;;;;1349.6
1565.0;1424.4;;;;;;;;;;;;;;;;;-124.988556;47.902615;78.859825;;1349.6
1565.0;1424.4;;;;;;;;;;;;;;-0.52864164;-0.28418836;-0.60664696;;;;;1349.6
1565.0;1424.9;262143;262143;12910;;;;;;;;;;;;;;;;;;
1565.0;1432.8;;;;-0.4818421;0.94319165;0.45127493;;;;;;;;;;;;;;;
1565.0;1432.8;;;;-0.49634176;0.9434663;0.45579535;;;;;;;;;;;;;;;
1565.0;1432.8;;;;-0.5080834;0.9471437;0.46192557;;;;;;;;;;;;;;;
1565.0;1432.8;;;;-0.52471167;0.9482156;0.4649163;;;;;;;;;;;;;;;
1565.0;1432.8;;;;-0.5393525;0.94993603;0.4692765;;;;;;;;;;;;;;;
1569.0;1438.9;;;;;;;;;;;;;;;;;-124.988556;58.347576;76.857056;;1359.2
1569.0;1438.9;;;;;;;;;;;;;;-0.61415446;-0.35065767;-0.68330944;;;;;1359.2
1569.0;1438.9;;;;;;;;;;;;;;;;;-124.988556;60.32746;76.937164;;1359.2
1569.0;1438.9;;;;;;;;;;;;;;-0.73335975;-0.41248816;-0.70564896;;;;;1359.2
1569.0;1438.9;;;;;;;;;;;;;;;;;-124.988556;55.98239;74.65209;;1368.9
1569.0;1438.9;;;;;;;;;;;;;;-0.8552507;-0.5149083;-0.71553695;;;;;1368.9
1569.0;1438.9;;;;;;;;;;;;;;;;;-123.28333;50.397503;70.429085;;1368.9
1569.0;1438.9;;;;;;;;;;;;;;-0.9704886;-0.62807095;-0.720542;;;;;1368.9
1569.0;1438.9;;;;;;;;;;;;;;;;;-98.643456;44.30143;65.93906;;1378.5
1569.0;1438.9;;;;;;;;;;;;;;-1.0820643;-0.71810055;-0.7299417;;;;;1378.5
1569.0;1438.9;;;;;;;;;;;;;;;;;-58.336132;37.915436;60.85009;;1378.5
1569.0;1438.9;;;;;;;;;;;;;;-1.1358379;-0.76131475;-0.74202704;;;;;1378.5
1569.0;1442.7;;;;-0.561287;0.9466516;0.4705811;;;;;;;;;;;;;;;
1569.0;1442.7;;;;-0.5858193;0.9403726;0.47357565;;;;;;;;;;;;;;;
1569.0;1442.7;;;;-0.6012345;0.9342271;0.47747427;;;;;;;;;;;;;;;
1569.0;1442.7;;;;-0.6125565;0.92956173;0.4814034;;;;;;;;;;;;;;;
1569.0;1442.7;;;;-0.6353875;0.92357266;0.48349386;;;;;;;;;;;;;;;
1569.0;1444.8;262143;262143;12887;;;;;;;;;;;;;;;;;;
1569.0;1450.9;;;;;;;;;;;;;37237;;;;;;;;
1569.0;1450.9;;;;;;;;;;;;;35505;;;;;;;;
1569.0;1450.9;;;;;;;;;;;;;33960;;;;;;;;
1569.0;1450.9;;;;;;;;;;;;;32262;;;;;;;;
1569.0;1450.9;;;;;;;;;;;;;30361;;;;;;;;
1571.0;1452.4;;;;-0.65572363;0.9170953;0.48500448;;;;;;;;;;;;;;;
1571.0;1452.4;;;;-0.6695748;0.90895474;0.48961264;;;;;;;;;;;;;;;
1571.0;1452.4;;;;-0.68724066;0.89847577;0.49352652;;;;;;;;;;;;;;;
1571.0;1452.4;;;;-0.70338446;0.88756573;0.49626547;;;;;;;;;;;;;;;
1571.0;1452.4;;;;-0.71596915;0.87817395;0.50029;;;;;;;;;;;;;;;
1571.0;1462.5;;;;-0.7295914;0.87002194;0.5043183;;;;;;;;;;;;;;;
1571.0;1462.5;;;;-0.74288183;0.862404;0.50630194;;;;;;;;;;;;;;;
1571.0;1462.5;;;;-0.755005;0.85689557;0.5105706;;;;;;;;;;;;;;;
1571.0;1462.5;;;;-0.7713243;0.8545915;0.51297003;;;;;;;;;;;;;;;
1571.0;1462.5;;;;-0.77990735;0.8538705;0.5149651;;;;;;;;;;;;;;;
1571.0;1464.8;262143;262143;12889;;;;;;;;;;;;;;;;;;
1571.0;1472.7;;;;-0.79049695;0.85504925;0.519455;;;;;;;;;;;;;;;
1571.0;1472.7;;;;-0.79849255;0.86109173;0.5250283;;;;;;;;;;;;;;;
1571.0;1472.7;;;;-0.81543744;0.8719789;0.5301514;;;;;;;;;;;;;;;
1571.0;1472.7;;;;-0.83257306;0.8852769;0.532795;;;;;;;;;;;;;;;
1571.0;1472.7;;;;-0.8470651;0.89999783;0.53685385;;;;;;;;;;;;;;;
1571.0;1482.8;;;;-0.8596536;0.9185716;0.53949744;;;;;;;;;;;;;;;
1571.0;1482.8;;;;-0.8698007;0.9402467;0.5420533;;;;;;;;;;;;;;;
1571.0;1482.8;;;;-0.88163006;0.9635469;0.5445824;;;;;;;;;;;;;;;
1571.0;1482.8;;;;-0.8964883;0.9871026;0.5455132;;;;;;;;;;;;;;;
1571.0;1482.8;;;;-0.913376;1.0113107;0.54643637;;;;;;;;;;;;;;;
1578.0;1484.0;;;;;;;;;;;;;;;;;-23.415327;32.82266;54.258095;;1388.1
1578.0;1484.0;;;;;;;;;;;;;;-1.0997651;-0.7640614;-0.70656455;;;;;1388.1
1578.0;1484.0;;;;;;;;;;;;;;;;;-1.3046663;24.941252;47.894985;;1388.1
1578.0;1484.0;;;;;;;;;;;;;;-0.9770806;-0.727134;-0.6062807;;;;;1388.1
1578.0;1484.0;;;;;;;;;;;;;;;;;8.018739;13.767662;44.087803;;1397.7
1578.0;1484.0;;;;;;;;;;;;;;-0.8694723;-0.69716483;-0.4640034;;;;;1397.7
1578.0;1484.0;;;;;;;;;;;;;;;;;2.2812586;3.1357768;40.64684;;1397.7
1578.0;1484.0;;;;;;;;;;;;;;-0.8037965;-0.67146826;-0.33167517;;;;;1397.7
1578.0;1484.0;;;;;;;;;;;;;;;;;-9.876553;-8.114109;38.247322;;1407.3
1578.0;1484.0;;;;;;;;;;;;;;-0.7662587;-0.659505;-0.23352763;;;;;1407.3
1578.0;1484.0;;;;;;;;;;;;;;;;;-16.048922;-17.597734;38.747063;;1407.3
1578.0;1484.0;;;;;;;;;;;;;;-0.73531294;-0.6519364;-0.15955077;;;;;1407.3
1578.0;1484.9;262143;262143;12883;;;;;;;;;;;;;;;;;;
1578.0;1491.2;;;;;;;;;;;;;28565;;;;;;;;
1578.0;1491.2;;;;;;;;;;;;;27205;;;;;;;;
1578.0;1491.2;;;;;;;;;;;;;26002;;;;;;;;
1578.0;1491.2;;;;;;;;;;;;;24371;;;;;;;;
1578.0;1491.2;;;;;;;;;;;;;22560;;;;;;;;
1627.0;1491.5;;;;;;;;;;;;;;;;;-14.984588;-24.731438;43.62621;;1416.9
1627.0;1491.5;;;;;;;;;;;;;;-0.75209814;-0.63203835;-0.05059969;;;;;1416.9
1627.0;1491.5;;;;;;;;;;;;;;;;;-10.822627;-35.24125;48.654137;;1416.9
1627.0;1491.5;;;;;;;;;;;;;;-0.8630024;-0.59114355;0.11548204;;;;;1416.9
1627.0;1491.5;;;;;;;;;;;;;;;;;-4.039888;-40.36836;53.45317;;1426.6
1627.0;1491.5;;;;;;;;;;;;;;-1.0857875;-0.5594653;0.07184057;;;;;1426.6
1627.0;1491.5;;;;;;;;;;;;;;;;;7.9004793;-33.635216;55.581833;;1426.6
1627.0;1491.5;;;;;;;;;;;;;;-1.3711356;-0.53297526;0.10913419;;;;;1426.6
1627.0;1491.5;;;;;;;;;;;;;;;;;14.904477;-50.069427;57.676167;;1436.2
1627.0;1491.5;;;;;;;;;;;;;;-1.5847652;-0.49971008;0.08093509;;;;;1436.2
1627.0;1491.5;;;;;;;;;;;;;;;;;-6.824702;-52.11417;56.581318;;1436.2
1627.0;1491.5;;;;;;;;;;;;;;-1.6952422;-0.4897;-0.23316142;;;;;1436.2
1627.0;1492.7;;;;-0.9245492;1.0355684;0.546341;;;;;;;;;;;;;;;
1627.0;1492.7;;;;-0.9305192;1.059807;0.5452729;;;;;;;;;;;;;;;
1627.0;1492.7;;;;-0.9425775;1.0823022;0.54461294;;;;;;;;;;;;;;;
1627.0;1492.7;;;;-0.94835675;1.1042176;0.5438767;;;;;;;;;;;;;;;
1627.0;1492.7;;;;-0.9518548;1.126835;0.5416985;;;;;;;;;;;;;;;
1627.0;1502.7;;;;-0.9551889;1.1473619;0.539074;;;;;;;;;;;;;;;
1627.0;1502.7;;;;-0.9614259;1.166958;0.53519064;;;;;;;;;;;;;;;
1627.0;1502.7;;;;-0.9642793;1.1877214;0.5337296;;;;;;;;;;;;;;;
1627.0;1502.7;;;;-0.96250165;1.2035142;0.5302468;;;;;;;;;;;;;;;
1627.0;1502.7;;;;-0.963421;1.2193681;0.5267411;;;;;;;;;;;;;;;
1627.0;1505.0;262143;262143;12875;;;;;;;;;;;;;;;;;;
1629.0;1512.5;;;;-0.9603082;1.2333604;0.52437216;;;;;;;;;;;;;;;
1629.0;1512.5;;;;-0.95780575;1.2490541;0.5210038;;;;;;;;;;;;;;;
1629.0;1512.5;;;;-0.95700467;1.2629243;0.51686484;;;;;;;;;;;;;;;
1629.0;1512.5;;;;-0.954651;1.2751237;0.5121766;;;;;;;;;;;;;;;
1629.0;1512.5;;;;-0.95098126;1.286667;0.50908667;;;;;;;;;;;;;;;
1629.0;1522.6;;;;-0.94661343;1.2957345;0.5056649;;;;;;;;;;;;;;;
1629.0;1522.6;;;;-0.94134915;1.3024255;0.5032845;;;;;;;;;;;;;;;
1629.0;1522.6;;;;-0.93582547;1.3067476;0.5016404;;;;;;;;;;;;;;;
1629.0;1522.6;;;;-0.9291078;1.3092386;0.5011712;;;;;;;;;;;;;;;
1629.0;1522.6;;;;-0.91811;1.3098947;0.50020605;;;;;;;;;;;;;;;
1629.0;1525.0;262143;262143;12882;;;;;;;;;;;;;;;;;;
1629.0;1531.3;;;;;;;;;;;;;20923;;;;;;;;
1629.0;1531.3;;;;;;;;;;;;;19542;;;;;;;;
1629.0;1531.3;;;;;;;;;;;;;18283;;;;;;;;
1629.0;1531.3;;;;;;;;;;;;;16837;;;;;;;;
1629.0;1531.3;;;;;;;;;;;;;15350;;;;;;;;
1629.0;1532.8;;;;-0.90264523;1.3100168;0.50020987;;;;;;;;;;;;;;;
1629.0;1532.8;;;;-0.888981;1.3088723;0.49704748;;;;;;;;;;;;;;;
1629.0;1532.8;;;;-0.87606823;1.3086358;0.4940682;;;;;;;;;;;;;;;
1629.0;1532.8;;;;-0.8635484;1.3076326;0.49184042;;;;;;;;;;;;;;;
1629.0;1532.8;;;;-0.8482629;1.3063318;0.48924643;;;;;;;;;;;;;;;
1632.0;1542.9;;;;-0.83031857;1.3060762;0.48615652;;;;;;;;;;;;;;;
1632.0;1542.9;;;;-0.8160821;1.3065263;0.48167044;;;;;;;;;;;;;;;
1632.0;1542.9;;;;-0.8008729;1.3084451;0.47731405;;;;;;;;;;;;;;;
1632.0;1542.9;;;;-0.7825128;1.3104287;0.47364432;;;;;;;;;;;;;;;
1632.0;1542.9;;;;-0.7641145;1.3119432;0.46805578;;;;;;;;;;;;;;;
1632.0;1544.2;;;;;;;;;;;;;;;;;-57.737206;-2.1324809;51.602985;;1445.8
1632.0;1544.2;;;;;;;;;;;;;;-1.7264931;-0.53462327;-0.6466872;;;;;1445.8
1632.0;1544.2;;;;;;;;;;;;;;;;;-85.12376;43.187508;45.701466;;1445.8
1632.0;1544.2;;;;;;;;;;;;;;-1.5187231;-0.5884579;-0.8769799;;;;;1445.8
1632.0;1544.2;;;;;;;;;;;;;;;;;-71.34846;55.810722;43.294323;;1455.4
1632.0;1544.2;;;;;;;;;;;;;;-1.3741264;-0.5861385;-0.9092685;;;;;1455.4
1632.0;1544.2;;;;;;;;;;;;;;;;;-34.527878;65.969574;43.393505;;1455.4
1632.0;1544.2;;;;;;;;;;;;;;-1.4079409;-0.49275187;-0.7543565;;;;;1455.4
1632.0;1544.2;;;;;;;;;;;;;;;;;4.9821467;72.214424;46.830654;;1465.0
1632.0;1544.2;;;;;;;;;;;;;;-1.4786829;-0.24347667;-0.6009705;;;;;1465.0
1632.0;1544.2;;;;;;;;;;;;;;;;;33.524586;65.76357;54.052097;;1465.0
1632.0;1544.2;;;;;;;;;;;;;;-1.5049897;-0.013122959;-0.3922239;;;;;1465.0
1632.0;1545.2;262143;262143;12874;;;;;;;;;;;;;;;;;;
1686.0;1551.7;;;;;;;;;;;;;;;;;56.01291;34.367657;64.41313;;1474.7
1686.0;1551.7;;;;;;;;;;;;;;-1.5682241;0.11035493;0.012024293;;;;;1474.7
1686.0;1551.7;;;;;;;;;;;;;;;;;55.46739;-14.572589;67.92275;;1474.7
1686.0;1551.7;;;;;;;;;;;;;;-1.6287729;0.1180456;0.29047516;;;;;1474.7
1686.0;1551.7;;;;;;;;;;;;;;;;;26.333658;-34.29899;54.143654;;1484.3
1686.0;1551.7;;;;;;;;;;;;;;-1.7136754;0.009704886;0.09131138;;;;;1484.3
1686.0;1551.7;;;;;;;;;;;;;;;;;3.4905546;5.5772576;30.08362;;1484.3
1686.0;1551.7;;;;;;;;;;;;;;-1.7190466;-0.15002899;-0.41077915;;;;;1484.3
1686.0;1551.7;;;;;;;;;;;;;;;;;3.3684807;51.05365;19.009216;;1493.8
1686.0;1551.7;;;;;;;;;;;;;;-1.5749382;-0.359447;-0.709006;;;;;1493.8
1686.0;1551.7;;;;;;;;;;;;;;;;;25.345621;49.798576;12.646107;;1493.8
1686.0;1551.7;;;;;;;;;;;;;;-1.4491409;-0.5089877;-0.7878658;;;;;1493.8
1686.0;1552.8;;;;-0.74411017;1.3160402;0.46212012;;;;;;;;;;;;;;;
1686.0;1552.8;;;;-0.7216454;1.3206712;0.4569512;;;;;;;;;;;;;;;
1686.0;1552.8;;;;-0.70055014;1.3253328;0.45244604;;;;;;;;;;;;;;;
1686.0;1552.8;;;;-0.67831045;1.329178;0.44683844;;;;;;;;;;;;;;;
1686.0;1552.8;;;;-0.65390784;1.3313142;0.44027334;;;;;;;;;;;;;;;
1686.0;1562.9;;;;-0.6301194;1.3327371;0.43526083;;;;;;;;;;;;;;;
1686.0;1562.9;;;;-0.6077271;1.3368989;0.4293633;;;;;;;;;;;;;;;
1686.0;1562.9;;;;-0.58679205;1.3391992;0.42414862;;;;;;;;;;;;;;;
1686.0;1562.9;;;;-0.56517416;1.3397409;0.41853338;;;;;;;;;;;;;;;
1686.0;1562.9;;;;-0.5430756;1.338955;0.41243368;;;;;;;;;;;;;;;
1686.0;1565.3;262143;262143;12878;;;;;;;;;;;;;;;;;;
1690.0;1571.5;;;;;;;;;;;;;14129;;;;;;;;
1690.0;1571.5;;;;;;;;;;;;;13288;;;;;;;;
1690.0;1571.5;;;;;;;;;;;;;12605;;;;;;;;
1690.0;1571.5;;;;;;;;;;;;;11495;;;;;;;;
1690.0;1571.5;;;;;;;;;;;;;9594;;;;;;;;
1690.0;1572.8;;;;-0.52249914;1.3388406;0.40621573;;;;;;;;;;;;;;;
1690.0;1572.8;;;;-0.5006371;1.3375627;0.4016953;;;;;;;;;;;;;;;
1690.0;1572.8;;;;-0.47838598;1.3363763;0.39656454;;;;;;;;;;;;;;;
1690.0;1572.8;;;;-0.45839697;1.3351823;0.39233023;;;;;;;;;;;;;;;
1690.0;1572.8;;;;-0.43843848;1.3330995;0.3879128;;;;;;;;;;;;;;;
1690.0;1582.9;;;;-0.4181481;1.3297158;0.38447958;;;;;;;;;;;;;;;
1690.0;1582.9;;;;-0.40008932;1.3275071;0.3806916;;;;;;;;;;;;;;;
1690.0;1582.9;;;;-0.38371664;1.3245469;0.3774529;;;;;;;;;;;;;;;
1690.0;1582.9;;;;-0.3693581;1.3218995;0.37320712;;;;;;;;;;;;;;;
1690.0;1582.9;;;;-0.3575249;1.3190919;0.36872104;;;;;;;;;;;;;;;
1690.0;1585.4;262143;262143;12887;;;;;;;;;;;;;;;;;;
1690.0;1593.1;;;;-0.3481522;1.3169557;0.365181;;;;;;;;;;;;;;;
1690.0;1593.1;;;;-0.3415642;1.3164674;0.3627968;;;;;;;;;;;;;;;
1690.0;1593.1;;;;-0.33646014;1.31699;0.36055377;;;;;;;;;;;;;;;
1690.0;1593.1;;;;-0.33494952;1.3189622;0.35935596;;;;;;;;;;;;;;;
1690.0;1593.1;;;;-0.33298495;1.3230401;0.35771945;;;;;;;;;;;;;;;
1692.0;1603.2;;;;-0.32917026;1.3291818;0.35672763;;;;;;;;;;;;;;;
1692.0;1603.2;;;;-0.3257065;1.3366395;0.35437015;;;;;;;;;;;;;;;
1692.0;1603.2;;;;-0.32390597;1.345112;0.3518105;;;;;;;;;;;;;;;
1692.0;1603.2;;;;-0.32260898;1.3559419;0.3482857;;;;;;;;;;;;;;;
1692.0;1603.2;;;;-0.32176593;1.3688241;0.3451729;;;;;;;;;;;;;;;
1692.0;1604.6;;;;;;;;;;;;;;;;;66.08402;37.709435;4.0017395;;1503.4
1692.0;1604.6;;;;;;;;;;;;;;-1.333903;-0.67940307;-0.56031984;;;;;1503.4
1692.0;1604.6;;;;;;;;;;;;;;;;;99.974815;32.006287;-18.890959;;1503.4
1692.0;1604.6;;;;;;;;;;;;;;-1.2484512;-0.70943326;-0.35181737;;;;;1503.4
1692.0;1604.6;;;;;;;;;;;;;;;;;121.96341;27.787102;-27.447584;;1513.1
1692.0;1604.6;;;;;;;;;;;;;;-1.1756951;-0.51545763;-0.16907254;;;;;1513.1
1692.0;1604.6;;;;;;;;;;;;;;;;;118.51482;14.584033;2.4910734;;1513.1
1692.0;1604.6;;;;;;;;;;;;;;-1.2038331;-0.17041536;0.021851253;;;;;1513.1
1692.0;1604.6;;;;;;;;;;;;;;;;;96.37364;-8.526108;45.9418;;1522.5
1692.0;1604.6;;;;;;;;;;;;;;-1.243324;0.09411909;0.057985168;;;;;1522.5
1692.0;1604.6;;;;;;;;;;;;;;;;;77.9252;-21.149328;67.60613;;1522.5
1692.0;1604.6;;;;;;;;;;;;;;-1.1934569;0.29621264;0.010010071;;;;;1522.5
1692.0;1605.6;262143;262143;12898;;;;;;;;;;;;;;;;;;
1692.0;1611.8;;;;;;;;;;;;;7427;;;;;;;;
1692.0;1611.8;;;;;;;;;;;;;6345;;;;;;;;
1692.0;1611.8;;;;;;;;;;;;;6650;;;;;;;;
1692.0;1611.8;;;;;;;;;;;;;6959;;;;;;;;
1692.0;1611.8;;;;;;;;;;;;;6334;;;;;;;;
1745.0;1612.0;;;;;;;;;;;;;;;;;42.447433;-11.528367;75.0908;;1532.2
1745.0;1612.0;;;;;;;;;;;;;;-1.1841792;0.40552995;-0.15356915;;;;;1532.2
1745.0;1612.0;;;;;;;;;;;;;;;;;5.771813;6.195257;75.758385;;1532.2
1745.0;1612.0;;;;;;;;;;;;;;-1.1511582;0.4835963;-0.39246804;;;;;1532.2
1745.0;1612.0;;;;;;;;;;;;;;;;;-12.302774;21.885588;79.5732;;1541.7
1745.0;1612.0;;;;;;;;;;;;;;-1.0286568;0.61165196;-0.5660573;;;;;1541.7
1745.0;1612.0;;;;;;;;;;;;;;;;;-15.770439;36.85873;87.79794;;1541.7
1745.0;1612.0;;;;;;;;;;;;;;-0.8789941;0.65938294;-0.68068486;;;;;1541.7
1745.0;1612.0;;;;;;;;;;;;;;;;;-10.902738;51.10706;84.23109;;1551.3
1745.0;1612.0;;;;;;;;;;;;;;-0.78774375;0.578753;-0.78670615;;;;;1551.3
1745.0;1612.0;;;;;;;;;;;;;;;;;1.7471846;56.825466;70.21928;;1551.3
1745.0;1612.0;;;;;;;;;;;;;;-0.776513;0.5001373;-0.8460341;;;;;1551.3
1745.0;1612.9;;;;-0.32556918;1.3825952;0.34131625;;;;;;;;;;;;;;;
1745.0;1612.9;;;;-0.3300133;1.3974992;0.33793262;;;;;;;;;;;;;;;
1745.0;1612.9;;;;-0.33654025;1.4139482;0.33360675;;;;;;;;;;;;;;;
1745.0;1612.9;;;;-0.3444672;1.4306413;0.32931903;;;;;;;;;;;;;;;
1745.0;1612.9;;;;-0.35310367;1.4474794;0.32577136;;;;;;;;;;;;;;;
1745.0;1622.9;;;;-0.3617058;1.4650003;0.32286838;;;;;;;;;;;;;;;
1745.0;1622.9;;;;-0.37004855;1.482174;0.32107547;;;;;;;;;;;;;;;
1745.0;1622.9;;;;-0.38055426;1.4996072;0.31828693;;;;;;;;;;;;;;;
1745.0;1622.9;;;;-0.3877297;1.5172579;0.31737903;;;;;;;;;;;;;;;
1745.0;1622.9;;;;-0.3928147;1.5332835;0.31681827;;;;;;;;;;;;;;;
1745.0;1625.6;262143;262143;12905;;;;;;;;;;;;;;;;;;
1747.0;1632.9;;;;-0.3996163;1.5485156;0.3170891;;;;;;;;;;;;;;;
1747.0;1632.9;;;;-0.40583807;1.5630038;0.3185158;;;;;;;;;;;;;;;
1747.0;1632.9;;;;-0.4106751;1.5758822;0.31988528;;;;;;;;;;;;;;;
1747.0;1632.9;;;;-0.41421133;1.5879366;0.32239154;;;;;;;;;;;;;;;
1747.0;1632.9;;;;-0.4184571;1.5982707;0.3260956;;;;;;;;;;;;;;;
1747.0;1643.0;;;;-0.4220963;1.60973;0.33162692;;;;;;;;;;;;;;;
1747.0;1643.0;;;;-0.4268914;1.6172831;0.33890918;;;;;;;;;;;;;;;
1747.0;1643.0;;;;-0.4283982;1.6247065;0.34775546;;;;;;;;;;;;;;;
1747.0;1643.0;;;;-0.42796332;1.6316912;0.35841754;;;;;;;;;;;;;;;
1747.0;1643.0;;;;-0.4326287;1.6336482;0.36789706;;;;;;;;;;;;;;;
1747.0;1645.7;262143;262143;12907;;;;;;;;;;;;;;;;;;
1747.0;1651.9;;;;;;;;;;;;;5065;;;;;;;;
1747.0;1651.9;;;;;;;;;;;;;4042;;;;;;;;
1747.0;1651.9;;;;;;;;;;;;;3955;;;;;;;;
1747.0;1651.9;;;;;;;;;;;;;4130;;;;;;;;
1747.0;1651.9;;;;;;;;;;;;;3593;;;;;;;;
1747.0;1653.1;;;;-0.43394095;1.6316683;0.37665564;;;;;;;;;;;;;;;
1747.0;1653.1;;;;-0.43298727;1.6280253;0.38708502;;;;;;;;;;;;;;;
1747.0;1653.1;;;;-0.43355566;1.6209223;0.39575964;;;;;;;;;;;;;;;
1747.0;1653.1;;;;-0.43238074;1.6108668;0.40386206;;;;;;;;;;;;;;;
1747.0;1653.1;;;;-0.43108374;1.5973399;0.41088492;;;;;;;;;;;;;;;
1749.0;1663.3;;;;-0.4299813;1.5829012;0.4160195;;;;;;;;;;;;;;;
1749.0;1663.3;;;;-0.43097693;1.5678942;0.4188233;;;;;;;;;;;;;;;
1749.0;1663.3;;;;-0.43140417;1.5496104;0.42041022;;;;;;;;;;;;;;;
1749.0;1663.3;;;;-0.43101507;1.5279315;0.42153937;;;;;;;;;;;;;;;
1749.0;1663.3;;;;-0.43119055;1.5058978;0.42213446;;;;;;;;;;;;;;;
1749.0;1664.8;;;;;;;;;;;;;;;;;18.34544;44.14884;56.27613;;1560.9
1749.0;1664.8;;;;;;;;;;;;;;-0.91274756;0.32587665;-0.91042817;;;;;1560.9
1749.0;1664.8;;;;;;;;;;;;;;;;;31.830807;22.820215;47.204506;;1560.9
1749.0;1664.8;;;;;;;;;;;;;;-1.2041383;0.16364025;-0.9383831;;;;;1560.9
1749.0;1664.8;;;;;;;;;;;;;;;;;28.05414;5.836665;40.562912;;1570.6
1749.0;1664.8;;;;;;;;;;;;;;-1.4415723;-0.012024293;-0.98727375;;;;;1570.6
1749.0;1664.8;;;;;;;;;;;;;;;;;24.018068;-3.0671103;25.055696;;1570.6
1749.0;1664.8;;;;;;;;;;;;;;-1.5936766;-0.1716361;-1.0247505;;;;;1570.6
1749.0;1664.8;;;;;;;;;;;;;;;;;37.560658;-4.467147;11.226996;;1580.1
1749.0;1664.8;;;;;;;;;;;;;;-1.5990478;-0.268746;-0.91433454;;;;;1580.1
1749.0;1664.8;;;;;;;;;;;;;;;;;49.69939;0.099185154;4.5319986;;1580.1
1749.0;1664.8;;;;;;;;;;;;;;-1.4857631;-0.37916195;-0.733726;;;;;1580.1
1749.0;1665.9;262143;262143;12902;;;;;;;;;;;;;;;;;;
1806.0;1672.7;;;;;;;;;;;;;;;;;48.73043;9.178442;3.3989992;;1589.7
1806.0;1672.7;;;;;;;;;;;;;;-1.338786;-0.48017824;-0.5630665;;;;;1589.7
1806.0;1672.7;;;;;;;;;;;;;;;;;34.115875;15.274514;5.7222204;;1589.7
1806.0;1672.7;;;;;;;;;;;;;;-1.1872311;-0.46766564;-0.4810938;;;;;1589.7
1806.0;1672.7;;;;;;;;;;;;;;;;;27.500992;16.735588;18.784143;;1599.4
1806.0;1672.7;;;;;;;;;;;;;;-1.1083713;-0.4248787;-0.42231512;;;;;1599.4
1806.0;1672.7;;;;;;;;;;;;;;;;;27.249214;12.539292;27.61162;;1599.4
1806.0;1672.7;;;;;;;;;;;;;;-1.0889004;-0.35657826;-0.3394879;;;;;1599.4
1806.0;1672.7;;;;;;;;;;;;;;;;;30.407879;9.109776;28.675955;;1609.1
1806.0;1672.7;;;;;;;;;;;;;;-1.0628986;-0.30628377;-0.25360882;;;;;1609.1
1806.0;1672.7;;;;;;;;;;;;;;;;;33.21177;8.938108;28.214361;;1609.1
1806.0;1672.7;;;;;;;;;;;;;;-1.0201727;-0.2624592;-0.1436201;;;;;1609.1
1806.0;1673.1;;;;-0.43025976;1.4830285;0.42262274;;;;;;;;;;;;;;;
1806.0;1673.1;;;;-0.42475134;1.4594918;0.42191702;;;;;;;;;;;;;;;
1806.0;1673.1;;;;-0.42091376;1.4358445;0.42096716;;;;;;;;;;;;;;;
1806.0;1673.1;;;;-0.41375738;1.4126359;0.41957098;;;;;;;;;;;;;;;
1806.0;1673.1;;;;-0.40633017;1.3897287;0.41871268;;;;;;;;;;;;;;;
1806.0;1683.1;;;;-0.39960104;1.367016;0.41784292;;;;;;;;;;;;;;;
1806.0;1683.1;;;;-0.3920899;1.3451082;0.417862;;;;;;;;;;;;;;;
1806.0;1683.1;;;;-0.38501745;1.3240091;0.41659552;;;;;;;;;;;;;;;
1806.0;1683.1;;;;-0.37826163;1.303631;0.41613013;;;;;;;;;;;;;;;
1806.0;1683.1;;;;-0.37189487;1.2831384;0.41397482;;;;;;;;;;;;;;;
1806.0;1685.9;262143;262143;12909;;;;;;;;;;;;;;;;;;
1811.0;1691.9;;;;;;;;;;;;;2460;;;;;;;;
1811.0;1691.9;;;;;;;;;;;;;1333;;;;;;;;
1811.0;1691.9;;;;;;;;;;;;;766;;;;;;;;
1811.0;1691.9;;;;;;;;;;;;;745;;;;;;;;
1811.0;1691.9;;;;;;;;;;;;;729;;;;;;;;
1811.0;1693.1;;;;-0.3662987;1.2637788;0.41396338;;;;;;;;;;;;;;;
1811.0;1693.1;;;;-0.36138156;1.2449228;0.41250235;;;;;;;;;;;;;;;
1811.0;1693.1;;;;-0.35398486;1.2290574;0.41146094;;;;;;;;;;;;;;;
1811.0;1693.1;;;;-0.346077;1.2134286;0.4099694;;;;;;;;;;;;;;;
1811.0;1693.1;;;;-0.33967593;1.1999055;0.40930945;;;;;;;;;;;;;;;
1811.0;1703.2;;;;-0.3340836;1.1863405;0.4092675;;;;;;;;;;;;;;;
1811.0;1703.2;;;;-0.32806018;1.1749192;0.4105454;;;;;;;;;;;;;;;
1811.0;1703.2;;;;-0.32194522;1.164734;0.41071707;;;;;;;;;;;;;;;
1811.0;1703.2;;;;-0.3165894;1.1551667;0.41210943;;;;;;;;;;;;;;;
1811.0;1703.2;;;;-0.31045535;1.1469995;0.4146462;;;;;;;;;;;;;;;
1811.0;1706.0;262143;262143;12891;;;;;;;;;;;;;;;;;;
1811.0;1713.3;;;;-0.3042374;1.1396028;0.41655737;;;;;;;;;;;;;;;
1811.0;1713.3;;;;-0.2969475;1.1336595;0.41888052;;;;;;;;;;;;;;;
1811.0;1713.3;;;;-0.2898598;1.129326;0.42311865;;;;;;;;;;;;;;;
1811.0;1713.3;;;;-0.2827988;1.1270372;0.4262963;;;;;;;;;;;;;;;
1811.0;1713.3;;;;-0.27465823;1.1248208;0.42975622;;;;;;;;;;;;;;;
1814.0;1723.4;;;;-0.2673302;1.12352;0.43320853;;;;;;;;;;;;;;;
1814.0;1723.4;;;;-0.25922778;1.1232759;0.43586737;;;;;;;;;;;;;;;
1814.0;1723.4;;;;-0.25238803;1.1244394;0.43864447;;;;;;;;;;;;;;;
1814.0;1723.4;;;;-0.24547961;1.1239702;0.44064718;;;;;;;;;;;;;;;
1814.0;1723.4;;;;-0.2369614;1.1238595;0.44259268;;;;;;;;;;;;;;;
1814.0;1725.2;;;;;;;;;;;;;;;;;29.564806;8.381146;27.146215;;1618.7
1814.0;1725.2;;;;;;;;;;;;;;-0.97073275;-0.21875668;-0.060121465;;;;;1618.7
1814.0;1725.2;;;;;;;;;;;;;;;;;22.93466;8.373516;26.623585;;1618.7
1814.0;1725.2;;;;;;;;;;;;;;-0.93325603;-0.17291787;-0.018555254;;;;;1618.7
1814.0;1725.2;;;;;;;;;;;;;;;;;16.827145;10.059664;25.959806;;1628.3
1814.0;1725.2;;;;;;;;;;;;;;-0.91402936;-0.12329478;-0.013061922;;;;;1628.3
1814.0;1725.2;;;;;;;;;;;;;;;;;11.730552;10.479293;25.559252;;1628.3
1814.0;1725.2;;;;;;;;;;;;;;-0.90878016;-0.08465835;-0.029847102;;;;;1628.3
1814.0;1725.2;;;;;;;;;;;;;;;;;5.489517;8.48033;25.7004;;1638.0
1814.0;1725.2;;;;;;;;;;;;;;-0.8921781;-0.035279397;-0.046571247;;;;;1638.0
1814.0;1725.2;;;;;;;;;;;;;;;;;-3.2845547;5.7985168;25.89114;;1638.0
1814.0;1725.2;;;;;;;;;;;;;;-0.85854673;0.014282662;-0.069887385;;;;;1638.0
1814.0;1726.3;262143;262143;12894;;;;;;;;;;;;;;;;;;
1814.0;1732.4;;;;;;;;;;;;;374;;;;;;;;
1814.0;1732.4;;;;;;;;;;;;;-84;;;;;;;;
1814.0;1732.4;;;;;;;;;;;;;-285;;;;;;;;
1814.0;1732.4;;;;;;;;;;;;;-402;;;;;;;;
1814.0;1732.4;;;;;;;;;;;;;-867;;;;;;;;
1815.0;1732.8;;;;;;;;;;;;;;;;;-12.565996;2.5521104;26.024658;;1647.6
1815.0;1732.8;;;;;;;;;;;;;;-0.8205817;0.044923246;-0.10248116;;;;;1647.6
1815.0;1732.8;;;;;;;;;;;;;;;;;-21.38203;-1.781518;25.223547;;1647.6
1815.0;1732.8;;;;;;;;;;;;;;-0.7773675;0.04156621;-0.14264351;;;;;1647.6
1815.0;1732.8;;;;;;;;;;;;;;;;;-27.75277;-6.801813;22.930845;;1657.3
1815.0;1732.8;;;;;;;;;;;;;;-0.75307477;0.008911405;-0.2014832;;;;;1657.3
1815.0;1732.8;;;;;;;;;;;;;;;;;-28.931547;-9.292887;18.65444;;1657.3
1815.0;1732.8;;;;;;;;;;;;;;-0.74471265;-0.043153174;-0.24597919;;;;;1657.3
1815.0;1732.8;;;;;;;;;;;;;;;;;-25.4944;-9.132664;13.0809965;;1667.0
1815.0;1732.8;;;;;;;;;;;;;;-0.73867;-0.1142613;-0.27784052;;;;;1667.0
1815.0;1732.8;;;;;;;;;;;;;;;;;-19.47844;-7.7288127;7.7707753;;1667.0
1815.0;1732.8;;;;;;;;;;;;;;-0.7417829;-0.18866542;-0.2785119;;;;;1667.0
1815.0;1733.4;;;;-0.22854236;1.1241761;0.44437414;;;;;;;;;;;;;;;
1815.0;1733.4;;;;-0.22120288;1.1256715;0.44517142;;;;;;;;;;;;;;;
1815.0;1733.4;;;;-0.2156029;1.1272393;0.44569784;;;;;;;;;;;;;;;
1815.0;1733.4;;;;-0.20883182;1.1274568;0.44429785;;;;;;;;;;;;;;;
1815.0;1733.4;;;;-0.20094302;1.1273957;0.44422156;;;;;;;;;;;;;;;
1815.0;1742.3;;;;;;;;;;-0.29374066;16.136662;-1.9798884;;;;;;;;;
1815.0;1742.3;;;;;;;0.20612201;-0.8539689;0.20050661;;;;;;;;;;;;
1815.0;1742.3;;;;;;;;;;6.202887;31.807919;8.369701;;;;;;;;;
1815.0;1742.3;;;;;;;0.23548082;-0.95724356;0.22931609;;;;;;;;;;;;
1865.0;1743.4;;;;-0.1939545;1.1272279;0.44512945;;;;;;;;;;;;;;;
1865.0;1743.4;;;;-0.18747713;1.1269838;0.44404227;;;;;;;;;;;;;;;
1865.0;1743.4;;;;-0.18101121;1.1265985;0.4436112;;;;;;;;;;;;;;;
1865.0;1743.4;;;;-0.17567445;1.1260759;0.44242865;;;;;;;;;;;;;;;
1865.0;1743.4;;;;-0.16957094;1.1251909;0.44180685;;;;;;;;;;;;;;;
1865.0;1746.3;262143;262143;12900;;;;;;;;;;;;;;;;;;
1865.0;1751.6;;;;;;;;;;3.0976286;2.2240365;6.6263313;;;;;;;;;
1865.0;1751.6;;;;;;;0.23773919;-0.95632803;0.23773919;;;;;;;;;;;;
1865.0;1751.6;;;;;;;;;;11.185034;4.5358133;20.611439;;;;;;;;;
1865.0;1751.6;;;;;;;0.24317148;-0.9560839;0.25104526;;;;;;;;;;;;
1865.0;1753.1;;;;-0.1639023;1.1235887;0.44159704;;;;;;;;;;;;;;;
1865.0;1753.1;;;;-0.1576233;1.1215287;0.44158942;;;;;;;;;;;;;;;
1865.0;1753.1;;;;-0.15300752;1.1200677;0.44299322;;;;;;;;;;;;;;;
1865.0;1753.1;;;;-0.14823915;1.1192628;0.44442755;;;;;;;;;;;;;;;
1865.0;1753.1;;;;-0.14432909;1.1181031;0.4459191;;;;;;;;;;;;;;;
1865.0;1761.1;;;;;;;;;;14.988402;0.48448133;38.048954;;;;;;;;;
1865.0;1761.1;;;;;;;0.24243905;-0.96334726;0.26490065;;;;;;;;;;;;
1865.0;1761.1;;;;;;;;;;10.559404;-47.124393;32.597584;;;;;;;;;
1865.0;1761.1;;;;;;;0.24427015;-0.97897273;0.28205207;;;;;;;;;;;;
1868.0;1763.1;;;;-0.14069368;1.1173021;0.44708258;;;;;;;;;;;;;;;
1868.0;1763.1;;;;-0.13660051;1.1164094;0.44867712;;;;;;;;;;;;;;;
1868.0;1763.1;;;;-0.13517381;1.1147462;0.44834906;;;;;;;;;;;;;;;
1868.0;1763.1;;;;-0.13299562;1.1134263;0.44847876;;;;;;;;;;;;;;;
1868.0;1763.1;;;;-0.12964632;1.1114846;0.4475556;;;;;;;;;;;;;;;
1868.0;1766.1;262143;262143;12892;;;;;;;;;;;;;;;;;;
1868.0;1770.8;;;;;;;;;;9.208961;-58.57265;50.241096;;;;;;;;;
1868.0;1770.8;;;;;;;0.24439223;-1.0016785;0.2961516;;;;;;;;;;;;
1868.0;1770.8;;;;;;;;;;5.9091463;-69.36857;71.256905;;;;;;;;;
1868.0;1770.8;;;;;;;0.25006866;-1.0365306;0.30005798;;;;;;;;;;;;
1868.0;1772.3;;;;;;;;;;;;;-1862;;;;;;;;
1868.0;1772.3;;;;;;;;;;;;;-3119;;;;;;;;
1868.0;1772.3;;;;;;;;;;;;;-3786;;;;;;;;
1868.0;1772.3;;;;;;;;;;;;;-3174;;;;;;;;
1868.0;1772.3;;;;;;;;;;;;;-4307;;;;;;;;
1868.0;1773.3;;;;-0.12854387;1.1092149;0.44829947;;;;;;;;;;;;;;;
1868.0;1773.3;;;;-0.12647249;1.1069604;0.44580466;;;;;;;;;;;;;;;
1868.0;1773.3;;;;-0.12594225;1.1046602;0.44396597;;;;;;;;;;;;;;;
1868.0;1773.3;;;;-0.12866975;1.101555;0.4412232;;;;;;;;;;;;;;;
1868.0;1773.3;;;;-0.12796403;1.0977288;0.4399224;;;;;;;;;;;;;;;
1868.0;1780.4;;;;;;;;;;-0.26322216;-71.98172;98.01782;;;;;;;;;
1868.0;1780.4;;;;;;;0.26636556;-1.0861537;0.303354;;;;;;;;;;;;
1868.0;1780.4;;;;;;;;;;-8.659627;-64.62676;116.57689;;;;;;;;;
1868.0;1780.4;;;;;;;0.293466;-1.1515244;0.3112888;;;;;;;;;;;;
1871.0;1783.4;;;;-0.12893678;1.0935022;0.4376641;;;;;;;;;;;;;;;
1871.0;1783.4;;;;-0.1305504;1.0892183;0.43499;;;;;;;;;;;;;;;
1871.0;1783.4;;;;-0.13006212;1.0821306;0.43318945;;;;;;;;;;;;;;;
1871.0;1783.4;;;;-0.13017656;1.0762445;0.43075567;;;;;;;;;;;;;;;
1871.0;1783.4;;;;-0.1352234;1.072014;0.4290009;;;;;;;;;;;;;;;
1871.0;1785.3;;;;;;;;;;;;;;;;;-12.375256;-6.321146;2.475814;;1676.7
1871.0;1785.3;;;;;;;;;;;;;;-0.7556383;-0.24719992;-0.24854274;;;;;1676.7
1871.0;1785.3;;;;;;;;;;;;;;;;;-4.8791466;-4.2878504;-2.601703;;1676.7
1871.0;1785.3;;;;;;;;;;;;;;-0.7673574;-0.2816248;-0.21027254;;;;;1676.7
1871.0;1785.3;;;;;;;;;;;;;;;;;1.0147405;-2.8191473;-7.6677756;;1686.2
1871.0;1785.3;;;;;;;;;;;;;;-0.7697989;-0.30060732;-0.17633595;;;;;1686.2
1871.0;1785.3;;;;;;;;;;;;;;;;;4.1123695;-2.2049623;-13.336589;;1686.2
1871.0;1785.3;;;;;;;;;;;;;;-0.7541734;-0.31592762;-0.16638692;;;;;1686.2
1871.0;1785.3;;;;;;;;;;;;;;;;;4.3755913;-1.865444;-18.35307;;1695.7
1871.0;1785.3;;;;;;;;;;;;;;-0.7329325;-0.3305765;-0.15985595;;;;;1695.7
1871.0;1785.3;;;;;;;;;;;;;;;;;0.5188147;-3.3875546;-22.312845;;1695.7
1871.0;1785.3;;;;;;;;;;;;;;-0.69899595;-0.32807398;-0.1525315;;;;;1695.7
1872.0;1786.5;;;;;;;;;;;;;;;;;-6.202887;-4.402295;-23.86166;;1705.3
1872.0;1786.5;;;;;;;;;;;;;;-0.6637776;-0.3238014;-0.1857967;;;;;1705.3
1872.0;1786.5;;;;;;;;;;;;;;;;;-11.902219;-1.9684439;-24.349957;;1705.3
1872.0;1786.5;;;;;;;;;;;;;;-0.6433912;-0.30622274;-0.20014039;;;;;1705.3
1872.0;1786.5;;;;;;;;;;;;;;;;;-15.808588;-0.6065554;-24.105808;;1715.0
1872.0;1786.5;;;;;;;;;;;;;;-0.63881344;-0.30439162;-0.21442305;;;;;1715.0
1872.0;1786.5;;;;;;;;;;;;;;;;;-16.243477;-0.8888516;-23.621326;;1715.0
1872.0;1786.5;;;;;;;;;;;;;;-0.6415601;-0.29169592;-0.21143223;;;;;1715.0
1872.0;1786.5;;;;;;;;;;;;;;;;;-15.739922;-1.2779626;-22.999512;;1724.5
1872.0;1786.5;;;;;;;;;;;;;;-0.6537675;-0.27442244;-0.18701743;;;;;1724.5
1872.0;1786.5;;;;;;;;;;;;;;;;;-14.446699;-2.784814;-22.568438;;1724.5
1872.0;1786.5;;;;;;;;;;;;;;-0.6686605;-0.25055698;-0.13464767;;;;;1724.5
1872.0;1786.3;262143;262143;12899;;;;;;;;;;;;;;;;;;
1872.0;1789.9;;;;;;;;;;-17.674032;-61.883907;122.85607;;;;;;;;;
1872.0;1789.9;;;;;;;0.32654804;-1.2204351;0.3249611;;;;;;;;;;;;
1872.0;1789.9;;;;;;;;;;-27.485731;-57.668537;124.84359;;;;;;;;;
1872.0;1789.9;;;;;;;0.35773796;-1.3028963;0.34882656;;;;;;;;;;;;
1872.0;1793.4;;;;-0.13637544;1.0657464;0.42787176;;;;;;;;;;;;;;;
1872.0;1793.4;;;;-0.13769533;1.0596925;0.42724997;;;;;;;;;;;;;;;
1872.0;1793.4;;;;-0.1381569;1.0559083;0.42680365;;;;;;;;;;;;;;;
1872.0;1793.4;;;;-0.13515474;1.051632;0.42519385;;;;;;;;;;;;;;;
1872.0;1793.4;;;;-0.13373567;1.0480539;0.42374426;;;;;;;;;;;;;;;
1926.0;1799.5;;;;;;;;;;-37.32414;-53.19758;124.881744;;;;;;;;;
1926.0;1799.5;;;;;;;0.39728996;-1.389813;0.38013855;;;;;;;;;;;;
1926.0;1799.5;;;;;;;;;;-46.95273;-48.21543;124.881744;;;;;;;;;
1926.0;1799.5;;;;;;;0.43745232;-1.4631184;0.4207892;;;;;;;;;;;;
1926.0;1803.4;;;;-0.13177492;1.0460206;0.42242438;;;;;;;;;;;;;;;
1926.0;1803.4;;;;-0.12570192;1.0437814;0.42052847;;;;;;;;;;;;;;;
1926.0;1803.4;;;;-0.120395675;1.0401269;0.41823584;;;;;;;;;;;;;;;
1926.0;1803.4;;;;-0.11241914;1.0377809;0.41624075;;;;;;;;;;;;;;;
1926.0;1803.4;;;;-0.1037903;1.0353967;0.41307455;;;;;;;;;;;;;;;
1926.0;1806.4;262143;262143;12909;;;;;;;;;;;;;;;;;;
1926.0;1809.0;;;;;;;;;;-56.371502;-42.577137;124.881744;;;;;;;;;
1926.0;1809.0;;;;;;;0.47346416;-1.5097506;0.46754357;;;;;;;;;;;;
1926.0;1809.0;;;;;;;;;;-65.511795;-36.69851;124.881744;;;;;;;;;
1926.0;1809.0;;;;;;;0.5039216;-1.5187842;0.5182043;;;;;;;;;;;;
1926.0;1812.4;;;;;;;;;;;;;-12567;;;;;;;;
1926.0;1812.4;;;;;;;;;;;;;-25996;;;;;;;;
1926.0;1812.4;;;;;;;;;;;;;-33505;;;;;;;;
1926.0;1812.4;;;;;;;;;;;;;-27374;;;;;;;;
1926.0;1812.4;;;;;;;;;;;;;-13298;;;;;;;;
1926.0;1813.3;;;;-0.0954323;1.0333635;0.41146094;;;;;;;;;;;;;;;
1926.0;1813.3;;;;-0.0853119;1.0319597;0.4088326;;;;;;;;;;;;;;;
1926.0;1813.3;;;;-0.07502747;1.0317193;0.40533453;;;;;;;;;;;;;;;
1926.0;1813.3;;;;-0.06713105;1.029461;0.40077597;;;;;;;;;;;;;;;
1926.0;1813.3;;;;-0.05957032;1.0251046;0.39654547;;;;;;;;;;;;;;;
1931.0;1818.4;;;;;;;;;;-74.06079;-30.434584;124.881744;;;;;;;;;
1931.0;1818.4;;;;;;;0.51698357;-1.5027925;0.57435834;;;;;;;;;;;;
1931.0;1818.4;;;;;;;;;;-81.77053;-23.445845;124.881744;;;;;;;;;
1931.0;1818.4;;;;;;;0.5098422;-1.4623859;0.633137;;;;;;;;;;;;
1931.0;1823.3;;;;-0.05183793;1.0221215;0.39069754;;;;;;;;;;;;;;;
1931.0;1823.3;;;;-0.046600346;1.0189897;0.38463217;;;;;;;;;;;;;;;
1931.0;1823.3;;;;-0.044002537;1.0144845;0.37837225;;;;;;;;;;;;;;;
1931.0;1823.3;;;;-0.041572575;1.0093881;0.37326816;;;;;;;;;;;;;;;
1931.0;1823.3;;;;-0.039894108;1.0032655;0.36654285;;;;;;;;;;;;;;;
1931.0;1826.5;262143;262143;12924;;;;;;;;;;;;;;;;;;
1931.0;1828.0;;;;;;;;;;-88.32057;-15.099032;124.881744;;;;;;;;;
1931.0;1828.0;;;;;;;0.48841822;-1.3975646;0.69936216;;;;;;;;;;;;
1931.0;1828.0;;;;;;;;;;-93.78338;-5.199591;124.881744;;;;;;;;;
1931.0;1828.0;;;;;;;0.4636372;-1.3192542;0.76961577;;;;;;;;;;;;
1931.0;1833.4;;;;-0.03910828;0.99951565;0.35854724;;;;;;;;;;;;;;;
1931.0;1833.4;;;;-0.040534977;0.993847;0.35015872;;;;;;;;;;;;;;;
1931.0;1833.4;;;;-0.03993607;0.9876901;0.3420029;;;;;;;;;;;;;;;
1931.0;1833.4;;;;-0.03982163;0.9806863;0.3335953;;;;;;;;;;;;;;;
1931.0;1833.4;;;;-0.037227634;0.972767;0.3247986;;;;;;;;;;;;;;;
1931.0;1837.6;;;;;;;;;;-98.34209;6.2906275;124.881744;;;;;;;;;
1931.0;1837.6;;;;;;;0.44361705;-1.2471083;0.8435316;;;;;;;;;;;;
1931.0;1837.6;;;;;;;;;;-101.26423;18.627735;124.881744;;;;;;;;;
1931.0;1837.6;;;;;;;0.42359692;-1.1911374;0.91421247;;;;;;;;;;;;
1933.0;1843.5;;;;-0.035091404;0.96221554;0.31603625;;;;;;;;;;;;;;;
1933.0;1843.5;;;;-0.034477238;0.9505807;0.30699542;;;;;;;;;;;;;;;
1933.0;1843.5;;;;-0.03218842;0.9397508;0.3004227;;;;;;;;;;;;;;;
1933.0;1843.5;;;;-0.031494144;0.9302026;0.29329684;;;;;;;;;;;;;;;
1933.0;1843.5;;;;-0.028686527;0.92021954;0.28495792;;;;;;;;;;;;;;;
1933.0;1845.6;;;;;;;;;;;;;;;;;-12.634663;-4.139073;-23.506882;;1734.1
1933.0;1845.6;;;;;;;;;;;;;;-0.67415386;-0.21521653;-0.082583085;;;;;1734.1
1933.0;1845.6;;;;;;;;;;;;;;;;;-13.725699;-5.726035;-25.715658;;1734.1
1933.0;1845.6;;;;;;;;;;;;;;-0.65846735;-0.1779229;-0.07397687;;;;;1734.1
1933.0;1845.6;;;;;;;;;;;;;;;;;-18.837551;-7.7249975;-29.225288;;1743.7
1933.0;1845.6;;;;;;;;;;;;;;-0.63850826;-0.14069033;-0.118533894;;;;;1743.7
1933.0;1845.6;;;;;;;;;;;;;;;;;-27.1424;-10.010071;-32.64336;;1743.7
1933.0;1845.6;;;;;;;;;;;;;;-0.6209296;-0.12091433;-0.18543047;;;;;1743.7
1933.0;1845.6;;;;;;;;;;;;;;;;;-35.93173;-13.367107;-34.939877;;1753.3
1933.0;1845.6;;;;;;;;;;;;;;-0.6131779;-0.10992767;-0.19605091;;;;;1753.3
1933.0;1845.6;;;;;;;;;;;;;;;;;-44.93469;-19.26481;-36.893063;;1753.3
1933.0;1845.6;;;;;;;;;;;;;;-0.6160466;-0.09674367;-0.14050722;;;;;1753.3
1933.0;1846.4;;;;;;;;;;;;;;;;;-53.91095;-22.495956;-38.480026;;1762.9
1933.0;1846.4;;;;;;;;;;;;;;-0.62611777;-0.07806635;-0.07037568;;;;;1762.9
1933.0;1846.4;;;;;;;;;;;;;;;;;-61.67409;-22.511215;-41.34495;;1762.9
1933.0;1846.4;;;;;;;;;;;;;;-0.62715536;-0.07415998;-0.03564562;;;;;1762.9
1933.0;1846.4;;;;;;;;;;;;;;;;;-69.20834;-22.225103;-44.930874;;1772.5
1933.0;1846.4;;;;;;;;;;;;;;-0.63185525;-0.0740379;-0.0314951;;;;;1772.5
1933.0;1846.4;;;;;;;;;;;;;;;;;-77.97861;-24.525438;-48.932617;;1772.5
1933.0;1846.4;;;;;;;;;;;;;;-0.64101076;-0.09472945;-0.044740137;;;;;1772.5
1933.0;1846.4;;;;;;;;;;;;;;;;;-88.75927;-26.917326;-54.033024;;1782.2
1933.0;1846.4;;;;;;;;;;;;;;-0.65199745;-0.16870633;-0.07312235;;;;;1782.2
1933.0;1846.4;;;;;;;;;;;;;;;;;-98.76553;-28.03888;-61.28498;;1782.2
1933.0;1846.4;;;;;;;;;;;;;;-0.6568804;-0.29456466;-0.09601123;;;;;1782.2
1933.0;1847.1;;;;;;;;;;-102.14926;30.301064;124.881744;;;;;;;;;
1933.0;1847.1;;;;;;;0.4058962;-1.1482284;0.9767754;;;;;;;;;;;;
1933.0;1847.1;;;;;;;;;;-101.237526;39.494766;124.881744;;;;;;;;;
1933.0;1847.1;;;;;;;0.3988769;-1.1071504;1.0234077;;;;;;;;;;;;
1933.0;1846.6;262143;262143;12909;;;;;;;;;;;;;;;;;;
1933.0;1852.7;;;;;;;;;;;;;-3539;;;;;;;;
1933.0;1852.7;;;;;;;;;;;;;-2491;;;;;;;;
1933.0;1852.7;;;;;;;;;;;;;-4565;;;;;;;;
1933.0;1852.7;;;;;;;;;;;;;-4480;;;;;;;;
1933.0;1852.7;;;;;;;;;;;;;-3567;;;;;;;;
1987.0;1853.5;;;;-0.024509434;0.9117471;0.27717593;;;;;;;;;;;;;;;
1987.0;1853.5;;;;-0.023223879;0.90544903;0.26933292;;;;;;;;;;;;;;;
1987.0;1853.5;;;;-0.022033693;0.9006692;0.2622185;;;;;;;;;;;;;;;
1987.0;1853.5;;;;-0.018894197;0.89517987;0.25556567;;;;;;;;;;;;;;;
1987.0;1853.5;;;;-0.017696382;0.8903657;0.24903491;;;;;;;;;;;;;;;
1987.0;1856.8;;;;;;;;;;-98.64727;46.697136;124.881744;;;;;;;;;
1987.0;1856.8;;;;;;;0.3925901;-1.0593585;1.046968;;;;;;;;;;;;
1987.0;1856.8;;;;;;;;;;-95.09568;52.140873;124.881744;;;;;;;;;
1987.0;1856.8;;;;;;;0.38215277;-1.0080874;1.0467849;;;;;;;;;;;;
1987.0;1863.5;;;;-0.01697159;0.88649;0.24293903;;;;;;;;;;;;;;;
1987.0;1863.5;;;;-0.018058779;0.8832017;0.2383118;;;;;;;;;;;;;;;
1987.0;1863.5;;;;-0.01773453;0.8799821;0.23508838;;;;;;;;;;;;;;;
1987.0;1863.5;;;;-0.01803589;0.877144;0.23385242;;;;;;;;;;;;;;;
1987.0;1863.5;;;;-0.019092562;0.8748704;0.2331467;;;;;;;;;;;;;;;
1987.0;1866.3;;;;;;;;;;-91.48686;56.15024;124.881744;;;;;;;;;
1987.0;1866.3;;;;;;;0.37635425;-0.95144504;1.0275582;;;;;;;;;;;;
1987.0;1866.3;;;;;;;;;;-88.240456;58.877834;124.881744;;;;;;;;;
1987.0;1866.3;;;;;;;0.36793116;-0.8991363;0.98532057;;;;;;;;;;;;
1987.0;1866.8;262143;262143;12915;;;;;;;;;;;;;;;;;;
1990.0;1873.5;;;;-0.018840792;0.8726083;0.2325783;;;;;;;;;;;;;;;
1990.0;1873.5;;;;-0.018440248;0.8704988;0.23310474;;;;;;;;;;;;;;;
1990.0;1873.5;;;;-0.018093111;0.8692552;0.23298648;;;;;;;;;;;;;;;
1990.0;1873.5;;;;-0.017936708;0.8677865;0.230629;;;;;;;;;;;;;;;
1990.0;1873.5;;;;-0.014038088;0.86722195;0.22960284;;;;;;;;;;;;;;;
1990.0;1875.7;;;;;;;;;;-86.01642;61.120945;124.881744;;;;;;;;;
1990.0;1875.7;;;;;;;0.36597797;-0.85067296;0.9297769;;;;;;;;;;;;
1990.0;1875.7;;;;;;;;;;-84.44853;62.80709;124.881744;;;;;;;;;
1990.0;1875.7;;;;;;;0.34669027;-0.8081912;0.85781425;;;;;;;;;;;;
1990.0;1883.6;;;;-0.012699129;0.86734784;0.22709659;;;;;;;;;;;;;;;
1990.0;1883.6;;;;-0.007598878;0.8691865;0.22516254;;;;;;;;;;;;;;;
1990.0;1883.6;;;;-0.005527497;0.87103283;0.22364047;;;;;;;;;;;;;;;
1990.0;1883.6;;;;-0.0012207032;0.87306225;0.2228699;;;;;;;;;;;;;;;
1990.0;1883.6;;;;0.002307892;0.8741647;0.22231296;;;;;;;;;;;;;;;
1990.0;1885.4;;;;;;;;;;-83.65505;64.10795;124.881744;;;;;;;;;
1990.0;1885.4;;;;;;;0.3350322;-0.77590257;0.78310496;;;;;;;;;;;;
1990.0;1885.4;;;;;;;;;;-83.07138;65.0998;124.881744;;;;;;;;;
1990.0;1885.4;;;;;;;0.31049532;-0.75173193;0.7093112;;;;;;;;;;;;
1990.0;1886.9;262143;262143;12919;;;;;;;;;;;;;;;;;;
1990.0;1893.0;;;;;;;;;;;;;-4108;;;;;;;;
1990.0;1893.0;;;;;;;;;;;;;-5009;;;;;;;;
1990.0;1893.0;;;;;;;;;;;;;-5509;;;;;;;;
1990.0;1893.0;;;;;;;;;;;;;-6049;;;;;;;;
1990.0;1893.0;;;;;;;;;;;;;-6671;;;;;;;;
1992.0;1893.7;;;;0.006084443;0.87601864;0.22163394;;;;;;;;;;;;;;;
1992.0;1893.7;;;;0.013332369;0.87786496;0.22143558;;;;;;;;;;;;;;;
1992.0;1893.7;;;;0.017074587;0.8795816;0.21833041;;;;;;;;;;;;;;;
1992.0;1893.7;;;;0.021236422;0.880005;0.21389392;;;;;;;;;;;;;;;
1992.0;1893.7;;;;0.022861483;0.8796884;0.21038058;;;;;;;;;;;;;;;
1992.0;1895.0;;;;;;;;;;-82.15201;64.939575;124.881744;;;;;;;;;
1992.0;1895.0;;;;;;;0.28791162;-0.7394635;0.6443678;;;;;;;;;;;;
1992.0;1895.0;;;;;;;;;;-80.74435;62.959686;124.881744;;;;;;;;;
1992.0;1895.0;;;;;;;0.25959045;-0.7259743;0.59096044;;;;;;;;;;;;
1992.0;1903.8;;;;0.025863651;0.87854016;0.20719531;;;;;;;;;;;;;;;
1992.0;1903.8;;;;0.024501804;0.8761903;0.20280078;;;;;;;;;;;;;;;
1992.0;1903.8;;;;0.025405888;0.8745843;0.20086673;;;;;;;;;;;;;;;
1992.0;1903.8;;;;0.027935032;0.87072384;0.20059207;;;;;;;;;;;;;;;
1992.0;1903.8;;;;0.026218418;0.8670198;0.20015338;;;;;;;;;;;;;;;
1992.0;1904.6;;;;;;;;;;-78.7492;59.312725;124.881744;;;;;;;;;
1992.0;1904.6;;;;;;;0.22998749;-0.715659;0.5478072;;;;;;;;;;;;
1992.0;1904.6;;;;;;;;;;-76.22379;55.28428;124.881744;;;;;;;;;
1992.0;1904.6;;;;;;;0.21716972;-0.710654;0.50935394;;;;;;;;;;;;
1993.0;1905.9;;;;;;;;;;;;;;;;;-104.77386;-31.09073;-68.670456;;1791.7
1993.0;1905.9;;;;;;;;;;;;;;-0.6781823;-0.4456923;-0.088808864;;;;;1791.7
1993.0;1905.9;;;;;;;;;;;;;;;;;-105.89542;-36.397137;-77.85272;;1791.7
1993.0;1905.9;;;;;;;;;;;;;;-0.7066866;-0.5774102;-0.044984285;;;;;1791.7
1993.0;1905.9;;;;;;;;;;;;;;;;;-100.64241;-42.04306;-90.693375;;1801.3
1993.0;1905.9;;;;;;;;;;;;;;-0.7176122;-0.6646321;-3.662221E-4;;;;;1801.3
1993.0;1905.9;;;;;;;;;;;;;;;;;-93.07001;-45.392467;-106.05182;;1801.3
1993.0;1905.9;;;;;;;;;;;;;;-0.73610646;-0.71736807;0.079775386;;;;;1801.3
1993.0;1905.9;;;;;;;;;;;;;;;;;-92.43294;-48.955505;-119.61349;;1811.0
1993.0;1905.9;;;;;;;;;;;;;;-0.75045013;-0.78212833;0.15869625;;;;;1811.0
1993.0;1905.9;;;;;;;;;;;;;;;;;-93.45149;-52.259132;-124.832146;;1811.0
1993.0;1905.9;;;;;;;;;;;;;;-0.7624134;-0.8105106;0.21765801;;;;;1811.0
1993.0;1906.6;;;;;;;;;;;;;;;;;-96.980194;-54.860832;-124.988556;;1820.3
1993.0;1906.6;;;;;;;;;;;;;;-0.7406232;-0.80324715;0.20233771;;;;;1820.3
1993.0;1906.6;;;;;;;;;;;;;;;;;-98.61675;-54.75402;-124.660484;;1820.3
1993.0;1906.6;;;;;;;;;;;;;;-0.72762233;-0.7900021;0.18506424;;;;;1820.3
1993.0;1906.6;;;;;;;;;;;;;;;;;-100.211334;-58.397167;-121.45603;;1830.0
1993.0;1906.6;;;;;;;;;;;;;;-0.7114475;-0.7918332;0.13061923;;;;;1830.0
1993.0;1906.6;;;;;;;;;;;;;;;;;-97.17094;-63.37932;-120.01022;;1830.0
1993.0;1906.6;;;;;;;;;;;;;;-0.6895352;-0.78328806;0.10455641;;;;;1830.0
1993.0;1906.6;;;;;;;;;;;;;;;;;-95.30549;-64.374985;-124.118774;;1839.6
1993.0;1906.6;;;;;;;;;;;;;;-0.68568987;-0.77877134;0.09967345;;;;;1839.6
1993.0;1906.6;;;;;;;;;;;;;;;;;-91.38386;-62.711723;-124.988556;;1839.6
1993.0;1906.6;;;;;;;;;;;;;;-0.6801965;-0.74404126;0.08929716;;;;;1839.6
1995.0;1906.9;262143;262143;12906;;;;;;;;;;;;;;;;;;
1995.0;1913.6;;;;0.02820969;0.86203396;0.19673923;;;;;;;;;;;;;;;
1995.0;1913.6;;;;0.028755192;0.85725796;0.19422534;;;;;;;;;;;;;;;
1995.0;1913.6;;;;0.030006412;0.85213864;0.19202045;;;;;;;;;;;;;;;
1995.0;1913.6;;;;0.03615952;0.8487092;0.19276813;;;;;;;;;;;;;;;
1995.0;1913.6;;;;0.03305054;0.84589016;0.1905823;;;;;;;;;;;;;;;
1995.0;1913.9;;;;;;;;;;-73.8548;52.587208;124.881744;;;;;;;;;
1995.0;1913.9;;;;;;;0.20892972;-0.7066256;0.48609883;;;;;;;;;;;;
1995.0;1913.9;;;;;;;;;;-71.68798;51.507614;124.881744;;;;;;;;;
1995.0;1913.9;;;;;;;0.20160528;-0.7130955;0.47608876;;;;;;;;;;;;
1995.0;1923.4;;;;;;;;;;-69.2732;50.527206;124.881744;;;;;;;;;
1995.0;1923.4;;;;;;;0.18695639;-0.7246315;0.4712058;;;;;;;;;;;;
1995.0;1923.4;;;;;;;;;;-66.911835;48.93643;124.881744;;;;;;;;;
1995.0;1923.4;;;;;;;0.17993714;-0.7411725;0.46388134;;;;;;;;;;;;
1995.0;1923.6;;;;0.027545933;0.84206784;0.18999484;;;;;;;;;;;;;;;
1995.0;1923.6;;;;0.030570988;0.837391;0.19242862;;;;;;;;;;;;;;;
1995.0;1923.6;;;;0.030315403;0.83290875;0.19783404;;;;;;;;;;;;;;;
1995.0;1923.6;;;;0.026981357;0.828869;0.20222858;;;;;;;;;;;;;;;
1995.0;1923.6;;;;0.024429325;0.8267976;0.2081261;;;;;;;;;;;;;;;
1995.0;1927.0;262143;262143;12906;;;;;;;;;;;;;;;;;;
2059.0;1932.9;;;;;;;;;;-64.77172;46.71621;124.881744;;;;;;;;;
2059.0;1932.9;;;;;;;0.18140203;-0.7516709;0.45594653;;;;;;;;;;;;
2059.0;1932.9;;;;;;;;;;-62.902466;43.874172;124.881744;;;;;;;;;
2059.0;1932.9;;;;;;;0.17419966;-0.7323832;0.45057526;;;;;;;;;;;;
2059.0;1932.9;;;;;;;;;;;;;-7313;;;;;;;;
2059.0;1932.9;;;;;;;;;;;;;-7776;;;;;;;;
2059.0;1932.9;;;;;;;;;;;;;-8123;;;;;;;;
2059.0;1932.9;;;;;;;;;;;;;-8594;;;;;;;;
2059.0;1932.9;;;;;;;;;;;;;-9108;;;;;;;;
2059.0;1933.5;;;;0.02321625;0.8249513;0.216095;;;;;;;;;;;;;;;
2059.0;1933.5;;;;0.022087099;0.82333004;0.2212868;;;;;;;;;;;;;;;
2059.0;1933.5;;;;0.020385744;0.8218385;0.23033527;;;;;;;;;;;;;;;
2059.0;1933.5;;;;0.015384676;0.8193284;0.23727039;;;;;;;;;;;;;;;
2059.0;1933.5;;;;0.012016298;0.8139421;0.24091724;;;;;;;;;;;;;;;
2059.0;1942.4;;;;;;;;;;-61.56346;40.72695;124.881744;;;;;;;;;
2059.0;1942.4;;;;;;;0.14612262;-0.7109592;0.4464858;;;;;;;;;;;;
2059.0;1942.4;;;;;;;;;;-60.377056;36.42384;124.881744;;;;;;;;;
2059.0;1942.4;;;;;;;0.10620441;-0.70656455;0.44874418;;;;;;;;;;;;
2059.0;1943.5;;;;0.010185243;0.80581677;0.24366;;;;;;;;;;;;;;;
2059.0;1943.5;;;;0.006729127;0.7965318;0.24388888;;;;;;;;;;;;;;;
2059.0;1943.5;;;;0.009529115;0.78564847;0.24411395;;;;;;;;;;;;;;;
2059.0;1943.5;;;;0.0061187753;0.77445614;0.24482349;;;;;;;;;;;;;;;
2059.0;1943.5;;;;0.00694275;0.7635385;0.24700549;;;;;;;;;;;;;;;
2059.0;1947.0;262143;262143;12907;;;;;;;;;;;;;;;;;;
2061.0;1952.0;;;;;;;;;;-58.24839;29.087955;124.881744;;;;;;;;;
2061.0;1952.0;;;;;;;0.05920591;-0.7016205;0.44611958;;;;;;;;;;;;
2061.0;1952.0;;;;;;;;;;-55.082092;19.001587;124.881744;;;;;;;;;
2061.0;1952.0;;;;;;;0.022156438;-0.69899595;0.44123662;;;;;;;;;;;;
2061.0;1953.6;;;;0.010307313;0.7535974;0.2503548;;;;;;;;;;;;;;;
2061.0;1953.6;;;;0.012660982;0.74320227;0.25205615;;;;;;;;;;;;;;;
2061.0;1953.6;;;;0.021354677;0.7320557;0.25446704;;;;;;;;;;;;;;;
2061.0;1953.6;;;;0.025772098;0.7205811;0.25768664;;;;;;;;;;;;;;;
2061.0;1953.6;;;;0.02675629;0.7093087;0.2572632;;;;;;;;;;;;;;;
2061.0;1961.6;;;;;;;;;;-50.916317;7.000183;124.881744;;;;;;;;;
2061.0;1961.6;;;;;;;0.0040894803;-0.7116306;0.42756432;;;;;;;;;;;;
2061.0;1961.6;;;;;;;;;;-46.594135;-6.3783684;124.881744;;;;;;;;;
2061.0;1961.6;;;;;;;0.007019257;-0.72762233;0.40876493;;;;;;;;;;;;
2061.0;1963.7;;;;0.02871323;0.6954995;0.25616458;;;;;;;;;;;;;;;
2061.0;1963.7;;;;0.028717045;0.67974097;0.25466922;;;;;;;;;;;;;;;
2061.0;1963.7;;;;0.027164463;0.66561514;0.25453952;;;;;;;;;;;;;;;
2061.0;1963.7;;;;0.029956821;0.65142065;0.2562218;;;;;;;;;;;;;;;
2061.0;1963.7;;;;0.032321934;0.63841254;0.25737384;;;;;;;;;;;;;;;
2061.0;1967.2;262143;262143;12908;;;;;;;;;;;;;;;;;;
2061.0;1971.3;;;;;;;;;;-42.97769;-19.27244;124.881744;;;;;;;;;
2061.0;1971.3;;;;;;;0.028687399;-0.74507886;0.39045382;;;;;;;;;;;;
2061.0;1971.3;;;;;;;;;;-40.231026;-30.766472;124.881744;;;;;;;;;
2061.0;1971.3;;;;;;;0.05468917;-0.7581408;0.37598804;;;;;;;;;;;;
2064.0;1973.3;;;;;;;;;;;;;-9582;;;;;;;;
2064.0;1973.3;;;;;;;;;;;;;-10133;;;;;;;;
2064.0;1973.3;;;;;;;;;;;;;-10990;;;;;;;;
2064.0;1973.3;;;;;;;;;;;;;-11801;;;;;;;;
2064.0;1973.3;;;;;;;;;;;;;-12039;;;;;;;;
2064.0;1973.8;;;;0.030738834;0.62509924;0.2585602;;;;;;;;;;;;;;;
2064.0;1973.8;;;;0.023437504;0.6137734;0.2589722;;;;;;;;;;;;;;;
2064.0;1973.8;;;;0.018688204;0.6041909;0.2580872;;;;;;;;;;;;;;;
2064.0;1973.8;;;;0.017601015;0.5943108;0.2588425;;;;;;;;;;;;;;;
2064.0;1973.8;;;;0.009929658;0.5859261;0.25797656;;;;;;;;;;;;;;;
2064.0;1980.8;;;;;;;;;;-37.812435;-40.72695;124.881744;;;;;;;;;
2064.0;1980.8;;;;;;;0.08508561;-0.7745598;0.3711661;;;;;;;;;;;;
2064.0;1980.8;;;;;;;;;;-34.905544;-49.710835;124.881744;;;;;;;;;
2064.0;1980.8;;;;;;;0.10425123;-0.77999204;0.37696463;;;;;;;;;;;;
2064.0;1981.6;;;;;;;;;;;;;;;;;-90.07156;-54.92187;-124.988556;;1849.2
2064.0;1981.6;;;;;;;;;;;;;;-0.6828822;-0.7332987;0.019165624;;;;;1849.2
2064.0;1981.6;;;;;;;;;;;;;;;;;-87.12272;-47.33421;-124.988556;;1849.2
2064.0;1981.6;;;;;;;;;;;;;;-0.73122346;-0.74684894;-0.0016479995;;;;;1849.2
2064.0;1981.6;;;;;;;;;;;;;;;;;-85.440384;-43.202766;-124.988556;;1858.8
2064.0;1981.6;;;;;;;;;;;;;;-0.77718437;-0.72566915;-0.04095584;;;;;1858.8
2064.0;1981.6;;;;;;;;;;;;;;;;;-87.847534;-40.463726;-124.988556;;1858.8
2064.0;1981.6;;;;;;;;;;;;;;-0.89522994;-0.7220069;-0.02990814;;;;;1858.8
2064.0;1981.6;;;;;;;;;;;;;;;;;-84.19294;-46.632282;-124.988556;;1868.2
2064.0;1981.6;;;;;;;;;;;;;;-1.0032045;-0.6837367;-0.023926511;;;;;1868.2
2064.0;1981.6;;;;;;;;;;;;;;;;;-79.48927;-52.896206;-124.988556;;1868.2
2064.0;1981.6;;;;;;;;;;;;;;-1.1203955;-0.6476028;-0.045411542;;;;;1868.2
2104.0;1982.3;;;;;;;;;;;;;;;;;-73.83953;-57.660908;-124.988556;;1877.8
2104.0;1982.3;;;;;;;;;;;;;;-1.2650533;-0.6357005;-0.119083226;;;;;1877.8
2104.0;1982.3;;;;;;;;;;;;;;;;;-63.83709;-59.52254;-124.988556;;1877.8
2104.0;1982.3;;;;;;;;;;;;;;-1.4213691;-0.5863216;-0.2417066;;;;;1877.8
2104.0;1982.3;;;;;;;;;;;;;;;;;-51.522873;-57.72576;-124.988556;;1887.4
2104.0;1982.3;;;;;;;;;;;;;;-1.5637074;-0.50953704;-0.33643606;;;;;1887.4
2104.0;1982.3;;;;;;;;;;;;;;;;;-42.077396;-55.921352;-124.988556;;1887.4
2104.0;1982.3;;;;;;;;;;;;;;-1.6810205;-0.3831904;-0.4712058;;;;;1887.4
2104.0;1982.3;;;;;;;;;;;;;;;;;-36.774803;-46.555984;-124.988556;;1897.0
2104.0;1982.3;;;;;;;;;;;;;;-1.7930845;-0.244026;-0.5979186;;;;;1897.0
2104.0;1982.3;;;;;;;;;;;;;;;;;-33.66192;-34.134953;-124.988556;;1897.0
2104.0;1982.3;;;;;;;;;;;;;;-1.8886074;-0.13373211;-0.7054048;;;;;1897.0
2104.0;1983.7;;;;0.006488801;0.5767289;0.2566376;;;;;;;;;;;;;;;
2104.0;1983.7;;;;-9.84192E-4;0.5695916;0.25698093;;;;;;;;;;;;;;;
2104.0;1983.7;;;;-0.010715486;0.5626412;0.25491717;;;;;;;;;;;;;;;
2104.0;1983.7;;;;-0.020782473;0.5546151;0.25340655;;;;;;;;;;;;;;;
2104.0;1983.7;;;;-0.033054356;0.54731375;0.25244144;;;;;;;;;;;;;;;
2104.0;1987.3;262143;262143;12900;;;;;;;;;;;;;;;;;;
2104.0;1990.1;;;;;;;;;;-31.655323;-58.70617;124.881744;;;;;;;;;
2104.0;1990.1;;;;;;;0.13330485;-0.79348123;0.3822138;;;;;;;;;;;;
2104.0;1990.1;;;;;;;;;;-29.030733;-66.66006;124.881744;;;;;;;;;
2104.0;1990.1;;;;;;;0.16968292;-0.8080691;0.3867916;;;;;;;;;;;;
2105.0;1993.6;;;;-0.048553474;0.5418511;0.25085452;;;;;;;;;;;;;;;
2105.0;1993.6;;;;-0.06470109;0.5376931;0.25114444;;;;;;;;;;;;;;;
2105.0;1993.6;;;;-0.08174897;0.5352097;0.25142673;;;;;;;;;;;;;;;
2105.0;1993.6;;;;-0.09808351;0.53371054;0.24609378;;;;;;;;;;;;;;;
2105.0;1993.6;;;;-0.11317827;0.53223807;0.24076465;;;;;;;;;;;;;;;
2105.0;1999.6;;;;;;;;;;-27.756584;-71.78335;124.881744;;;;;;;;;
2105.0;1999.6;;;;;;;0.21222572;-0.8286996;0.39118627;;;;;;;;;;;;
2105.0;1999.6;;;;;;;;;;-27.321697;-75.21287;124.881744;;;;;;;;;
2105.0;1999.6;;;;;;;0.25153357;-0.85708183;0.3994873;;;;;;;;;;;;
2105.0;2003.7;;;;-0.12641527;0.5318833;0.2392998;;;;;;;;;;;;;;;
2105.0;2003.7;;;;-0.13915254;0.530037;0.2347565;;;;;;;;;;;;;;;
2105.0;2003.7;;;;-0.14795686;0.52854925;0.2313843;;;;;;;;;;;;;;;
2105.0;2003.7;;;;-0.15392686;0.5277367;0.22911075;;;;;;;;;;;;;;;
2105.0;2003.7;;;;-0.15889741;0.5284844;0.22711566;;;;;;;;;;;;;;;
2105.0;2007.3;262143;262143;12887;;;;;;;;;;;;;;;;;;
2105.0;2009.3;;;;;;;;;;-26.791437;-78.83694;124.881744;;;;;;;;;
2105.0;2009.3;;;;;;;0.28302866;-0.88338876;0.41010773;;;;;;;;;;;;
2105.0;2009.3;;;;;;;;;;-25.887325;-82.518234;124.881744;;;;;;;;;
2105.0;2009.3;;;;;;;0.310007;-0.9090243;0.42262033;;;;;;;;;;;;
2105.0;2013.3;;;;;;;;;;;;;-11905;;;;;;;;
2105.0;2013.3;;;;;;;;;;;;;-11671;;;;;;;;
2105.0;2013.3;;;;;;;;;;;;;-11462;;;;;;;;
2105.0;2013.3;;;;;;;;;;;;;-11191;;;;;;;;
2105.0;2013.3;;;;;;;;;;;;;-10641;;;;;;;;
2108.0;2013.8;;;;-0.16333391;0.53163534;0.22489932;;;;;;;;;;;;;;;
2108.0;2013.8;;;;-0.16801073;0.53672034;0.22423556;;;;;;;;;;;;;;;
2108.0;2013.8;;;;-0.17159654;0.54344565;0.22494891;;;;;;;;;;;;;;;
2108.0;2013.8;;;;-0.17440034;0.55076224;0.22594455;;;;;;;;;;;;;;;
2108.0;2013.8;;;;-0.17621996;0.5585328;0.22828677;;;;;;;;;;;;;;;
2108.0;2018.9;;;;;;;;;;-24.70092;-86.02786;124.881744;;;;;;;;;
2108.0;2018.9;;;;;;;0.3319193;-0.929899;0.43879512;;;;;;;;;;;;
2108.0;2018.9;;;;;;;;;;-23.380993;-89.17508;124.881744;;;;;;;;;
2108.0;2018.9;;;;;;;0.35462508;-0.9445479;0.455092;;;;;;;;;;;;
2108.0;2023.9;;;;-0.17834474;0.5665856;0.2317467;;;;;;;;;;;;;;;
2108.0;2023.9;;;;-0.18081667;0.573433;0.23479083;;;;;;;;;;;;;;;
2108.0;2023.9;;;;-0.18315126;0.58001333;0.23964694;;;;;;;;;;;;;;;
2108.0;2023.9;;;;-0.18564607;0.5838776;0.24255374;;;;;;;;;;;;;;;
2108.0;2023.9;;;;-0.1874695;0.58536917;0.24392703;;;;;;;;;;;;;;;
2108.0;2027.6;262143;262143;12871;;;;;;;;;;;;;;;;;;
2108.0;2028.5;;;;;;;;;;-21.916105;-92.56264;124.881744;;;;;;;;;
2108.0;2028.5;;;;;;;0.38569292;-0.95242167;0.46681112;;;;;;;;;;;;
2108.0;2028.5;;;;;;;;;;-20.317698;-96.335495;124.881744;;;;;;;;;
2108.0;2028.5;;;;;;;0.41694388;-0.95870847;0.47682118;;;;;;;;;;;;
2111.0;2033.9;;;;;;;;;;;;;;;;;-27.771843;-26.123844;-124.988556;;1906.7
2111.0;2033.9;;;;;;;;;;;;;;-1.9295633;-0.07739494;-0.7951903;;;;;1906.7
2111.0;2033.9;;;;;;;;;;;;;;;;;-17.464216;-23.037659;-123.558;;1906.7
2111.0;2033.9;;;;;;;;;;;;;;-1.965453;-0.021546068;-0.7827998;;;;;1906.7
2111.0;2033.9;;;;;;;;;;;;;;;;;-13.176367;-29.141361;-122.87896;;1916.2
2111.0;2033.9;;;;;;;;;;;;;;-1.9998169;-0.057374798;-0.76888335;;;;;1916.2
2111.0;2033.9;;;;;;;;;;;;;;;;;-15.121922;-35.84399;-124.93515;;1916.2
2111.0;2033.9;;;;;;;;;;;;;;-1.9998169;-0.10022279;-0.82284003;;;;;1916.2
2111.0;2033.9;;;;;;;;;;;;;;;;;-22.785881;-30.594805;-124.988556;;1925.9
2111.0;2033.9;;;;;;;;;;;;;;-1.9998169;-0.121890925;-0.8982818;;;;;1925.9
2111.0;2033.9;;;;;;;;;;;;;;;;;-31.197546;-16.727959;-124.988556;;1925.9
2111.0;2033.9;;;;;;;;;;;;;;-1.9998169;-0.16345714;-0.962859;;;;;1925.9
2111.0;2034.0;;;;-0.19136813;0.58412176;0.2448807;;;;;;;;;;;;;;;
2111.0;2034.0;;;;-0.19509509;0.58206564;0.24953082;;;;;;;;;;;;;;;
2111.0;2034.0;;;;-0.19787219;0.58118445;0.25439838;;;;;;;;;;;;;;;
2111.0;2034.0;;;;-0.1996117;0.5791779;0.25960925;;;;;;;;;;;;;;;
2111.0;2034.0;;;;-0.20128635;0.58012015;0.2663956;;;;;;;;;;;;;;;
2113.0;2034.7;;;;;;;;;;;;;;;;;-46.38432;-2.4033327;-124.988556;;1935.5
2113.0;2034.7;;;;;;;;;;;;;;-1.968688;-0.22168645;-0.9679861;;;;;1935.5
2113.0;2034.7;;;;;;;;;;;;;;;;;-62.730797;2.395703;-124.988556;;1935.5
2113.0;2034.7;;;;;;;;;;;;;;-1.8270211;-0.31843013;-0.98654133;;;;;1935.5
2113.0;2034.7;;;;;;;;;;;;;;;;;-63.581497;4.947813;-124.988556;;1945.2
2113.0;2034.7;;;;;;;;;;;;;;-1.6782129;-0.37464523;-0.964568;;;;;1945.2
2113.0;2034.7;;;;;;;;;;;;;;;;;-58.3018;7.7517014;-124.988556;;1945.2
2113.0;2034.7;;;;;;;;;;;;;;-1.5749992;-0.30164495;-0.9115879;;;;;1945.2
2113.0;2034.7;;;;;;;;;;;;;;;;;-60.80813;11.490219;-124.988556;;1954.8
2113.0;2034.7;;;;;;;;;;;;;;-1.5259866;-0.3037202;-0.8782617;;;;;1954.8
2113.0;2034.7;;;;;;;;;;;;;;;;;-74.47279;15.8391075;-124.988556;;1954.8
2113.0;2034.7;;;;;;;;;;;;;;-1.4763634;-0.23151341;-0.83980834;;;;;1954.8
2113.0;2038.0;;;;;;;;;;-18.456068;-100.26856;124.881744;;;;;;;;;
2113.0;2038.0;;;;;;;0.45039216;-0.9683523;0.48945585;;;;;;;;;;;;
2113.0;2038.0;;;;;;;;;;-15.95355;-104.20164;124.881744;;;;;;;;;
2113.0;2038.0;;;;;;;0.48396254;-0.9670095;0.49800104;;;;;;;;;;;;
2113.0;2043.9;;;;-0.20173267;0.583088;0.27387622;;;;;;;;;;;;;;;
2113.0;2043.9;;;;-0.20071796;0.58749014;0.28144076;;;;;;;;;;;;;;;
2113.0;2043.9;;;;-0.19951251;0.59310156;0.2882767;;;;;;;;;;;;;;;
2113.0;2043.9;;;;-0.2004967;0.5988923;0.29441074;;;;;;;;;;;;;;;
2113.0;2043.9;;;;-0.20090869;0.60295874;0.30056384;;;;;;;;;;;;;;;
2113.0;2047.5;;;;;;;;;;-13.302256;-107.47856;124.881744;;;;;;;;;
2113.0;2047.5;;;;;;;0.5191809;-0.97183144;0.5086825;;;;;;;;;;;;
2113.0;2047.5;;;;;;;;;;-10.742516;-110.2443;124.881744;;;;;;;;;
2113.0;2047.5;;;;;;;0.56624043;-0.96462905;0.5134434;;;;;;;;;;;;
2165.0;2047.6;262143;262143;12866;;;;;;;;;;;;;;;;;;
2165.0;2053.2;;;;;;;;;;;;;-9867;;;;;;;;
2165.0;2053.2;;;;;;;;;;;;;-8955;;;;;;;;
2165.0;2053.2;;;;;;;;;;;;;-8058;;;;;;;;
2165.0;2053.2;;;;;;;;;;;;;-7643;;;;;;;;
2165.0;2053.2;;;;;;;;;;;;;-7834;;;;;;;;
2165.0;2053.6;;;;-0.20032886;0.6079598;0.30817798;;;;;;;;;;;;;;;
2165.0;2053.6;;;;-0.19982913;0.6139832;0.31631473;;;;;;;;;;;;;;;
2165.0;2053.6;;;;-0.20008472;0.61973196;0.3246651;;;;;;;;;;;;;;;
2165.0;2053.6;;;;-0.20120242;0.62627035;0.33602527;;;;;;;;;;;;;;;
2165.0;2053.6;;;;-0.20079806;0.6323243;0.3487244;;;;;;;;;;;;;;;
2165.0;2056.8;;;;;;;;;;-8.4421835;-112.048706;124.881744;;;;;;;;;
2165.0;2056.8;;;;;;;0.60664696;-0.9504685;0.5246132;;;;;;;;;;;;
2165.0;2056.8;;;;;;;;;;-6.599628;-112.643814;124.881744;;;;;;;;;
2165.0;2056.8;;;;;;;0.6519364;-0.9363689;0.5310221;;;;;;;;;;;;
2165.0;2063.7;;;;-0.20292667;0.6386948;0.36079028;;;;;;;;;;;;;;;
2165.0;2063.7;;;;-0.20782474;0.6446648;0.3732567;;;;;;;;;;;;;;;
2165.0;2063.7;;;;-0.21212009;0.6543847;0.3878289;;;;;;;;;;;;;;;
2165.0;2063.7;;;;-0.21669772;0.6643563;0.40133673;;;;;;;;;;;;;;;
2165.0;2063.7;;;;-0.22341922;0.6774445;0.41590506;;;;;;;;;;;;;;;
2165.0;2066.4;;;;;;;;;;-5.0927763;-112.10974;124.881744;;;;;;;;;
2165.0;2066.4;;;;;;;0.69014555;-0.91274756;0.5384686;;;;;;;;;;;;
2165.0;2066.4;;;;;;;;;;-3.540147;-110.11078;124.86648;;;;;;;;;
2165.0;2066.4;;;;;;;0.72225106;-0.8912015;0.545793;;;;;;;;;;;;
2165.0;2067.4;262143;262143;12855;;;;;;;;;;;;;;;;;;
2167.0;2073.8;;;;-0.22999194;0.68923575;0.43085486;;;;;;;;;;;;;;;
2167.0;2073.8;;;;-0.237587;0.702385;0.4473725;;;;;;;;;;;;;;;
2167.0;2073.8;;;;-0.24559405;0.718113;0.46539313;;;;;;;;;;;;;;;
2167.0;2073.8;;;;-0.2562485;0.73318106;0.48022467;;;;;;;;;;;;;;;
2167.0;2073.8;;;;-0.26776126;0.7464028;0.49550635;;;;;;;;;;;;;;;
2167.0;2076.0;;;;;;;;;;-2.0561848;-106.23493;123.80978;;;;;;;;;
2167.0;2076.0;;;;;;;0.75301373;-0.8805811;0.5528123;;;;;;;;;;;;
2167.0;2076.0;;;;;;;;;;-0.48448133;-100.2266;119.766075;;;;;;;;;
2167.0;2076.0;;;;;;;0.7780999;-0.8806421;0.5567797;;;;;;;;;;;;
2167.0;2083.9;;;;-0.27567676;0.7591096;0.5119744;;;;;;;;;;;;;;;
2167.0;2083.9;;;;-0.28229907;0.7723657;0.52987677;;;;;;;;;;;;;;;
2167.0;2083.9;;;;-0.28908542;0.7826921;0.5480996;;;;;;;;;;;;;;;
2167.0;2083.9;;;;-0.29917148;0.7920648;0.56652457;;;;;;;;;;;;;;;
2167.0;2083.9;;;;-0.30376056;0.8012239;0.5858765;;;;;;;;;;;;;;;
2167.0;2085.6;;;;;;;;;;1.3008515;-91.75771;115.1883;;;;;;;;;
2167.0;2085.6;;;;;;;0.8106937;-0.9026154;0.5681326;;;;;;;;;;;;
2167.0;2085.6;;;;;;;;;;2.910703;-81.23646;110.450294;;;;;;;;;
2167.0;2085.6;;;;;;;0.84414196;-0.9439375;0.57783747;;;;;;;;;;;;
2169.0;2086.7;;;;;;;;;;;;;;;;;-89.33912;13.828699;-124.988556;;1964.4
2169.0;2086.7;;;;;;;;;;;;;;-1.4656209;-0.19812617;-0.8147221;;;;;1964.4
2169.0;2086.7;;;;;;;;;;;;;;;;;-98.1132;6.405072;-124.988556;;1964.4
2169.0;2086.7;;;;;;;;;;;;;;-1.4790491;-0.19360943;-0.8136845;;;;;1964.4
2169.0;2086.7;;;;;;;;;;;;;;;;;-93.836784;-2.277444;-124.98474;;1974.0
2169.0;2086.7;;;;;;;;;;;;;;-1.4808801;-0.21741386;-0.77950376;;;;;1974.0
2169.0;2086.7;;;;;;;;;;;;;;;;;-82.682274;-10.055849;-123.59996;;1974.0
2169.0;2086.7;;;;;;;;;;;;;;-1.4627521;-0.27161473;-0.67952514;;;;;1974.0
2169.0;2086.7;;;;;;;;;;;;;;;;;-74.67498;-18.96344;-117.8129;;1983.7
2169.0;2086.7;;;;;;;;;;;;;;-1.4086734;-0.32752463;-0.59706414;;;;;1983.7
2169.0;2086.7;;;;;;;;;;;;;;;;;-67.44591;-22.854548;-109.50423;;1983.7
2169.0;2086.7;;;;;;;;;;;;;;-1.3440351;-0.3299051;-0.5049593;;;;;1983.7
2169.0;2087.6;262143;262143;12838;;;;;;;;;;;;;;;;;;
2169.0;2093.6;;;;;;;;;;;;;-7911;;;;;;;;
2169.0;2093.6;;;;;;;;;;;;;-7245;;;;;;;;
2169.0;2093.6;;;;;;;;;;;;;-6428;;;;;;;;
2169.0;2093.6;;;;;;;;;;;;;-6431;;;;;;;;
2169.0;2093.6;;;;;;;;;;;;;-7009;;;;;;;;
2170.0;2094.0;;;;;;;;;;;;;;;;;-64.14228;-21.866512;-97.73934;;1993.2
2170.0;2094.0;;;;;;;;;;;;;;-1.3155309;-0.32093266;-0.42121646;;;;;1993.2
2170.0;2094.0;;;;;;;;;;;;;;;;;-60.750908;-20.3444;-87.019714;;1993.2
2170.0;2094.0;;;;;;;;;;;;;;-1.2853175;-0.29511398;-0.33625293;;;;;1993.2
2170.0;2094.0;;;;;;;;;;;;;;;;;-56.855984;-20.084993;-77.34154;;2002.9
2170.0;2094.0;;;;;;;;;;;;;;-1.2099979;-0.2963347;-0.25403607;;;;;2002.9
2170.0;2094.0;;;;;;;;;;;;;;;;;-51.183353;-19.722586;-67.04536;;2002.9
2170.0;2094.0;;;;;;;;;;;;;;-1.1022675;-0.2814417;-0.14966278;;;;;2002.9
2170.0;2094.0;;;;;;;;;;;;;;;;;-42.58858;-17.143772;-53.083134;;2012.6
2170.0;2094.0;;;;;;;;;;;;;;-0.9792779;-0.23773919;-0.09277627;;;;;2012.6
2170.0;2094.0;;;;;;;;;;;;;;;;;-29.358807;-9.041108;-39.101837;;2012.6
2170.0;2094.0;;;;;;;;;;;;;;-0.91073334;-0.20563371;-0.049867246;;;;;2012.6
2170.0;2093.7;;;;-0.30360034;0.80825055;0.60669714;;;;;;;;;;;;;;;
2170.0;2093.7;;;;-0.30870822;0.81484616;0.6250573;;;;;;;;;;;;;;;
2170.0;2093.7;;;;-0.31279376;0.82136166;0.6427346;;;;;;;;;;;;;;;
2170.0;2093.7;;;;-0.31972888;0.82958233;0.65837103;;;;;;;;;;;;;;;
2170.0;2093.7;;;;-0.32596973;0.8384744;0.671547;;;;;;;;;;;;;;;
2170.0;2095.0;;;;;;;;;;3.8987396;-69.33042;105.57878;;;;;;;;;
2170.0;2095.0;;;;;;;0.87240213;-1.0000305;0.581988;;;;;;;;;;;;
2170.0;2095.0;;;;;;;;;;4.333628;-56.71865;100.31815;;;;;;;;;
2170.0;2095.0;;;;;;;0.90462965;-1.0583819;0.58571124;;;;;;;;;;;;
2171.0;2101.3;;;;;;;;;;;;;;;;;-12.905515;0.48448133;-25.559252;;2022.2
2171.0;2101.3;;;;;;;;;;;;;;-0.8831446;-0.16754662;0.017761772;;;;;2022.2
2171.0;2101.3;;;;;;;;;;;;;;;;;1.8005921;5.645924;-11.8564415;;2022.2
2171.0;2101.3;;;;;;;;;;;;;;-0.8553728;-0.10577715;0.048646506;;;;;2022.2
2171.0;2101.3;;;;;;;;;;;;;;;;;11.280404;10.082552;1.5488143;;2031.8
2171.0;2101.3;;;;;;;;;;;;;;-0.799707;-0.0380871;0.025086215;;;;;2031.8
2171.0;2101.3;;;;;;;;;;;;;;;;;16.842403;17.62444;16.132847;;2031.8
2171.0;2101.3;;;;;;;;;;;;;;-0.7253639;0.034730066;-0.0053712577;;;;;2031.8
2171.0;2101.3;;;;;;;;;;;;;;;;;24.323254;25.643177;31.12125;;2041.2
2171.0;2101.3;;;;;;;;;;;;;;-0.64357436;0.09271523;-0.04181036;;;;;2041.2
2171.0;2101.3;;;;;;;;;;;;;;;;;38.453323;29.946287;45.777763;;2041.2
2171.0;2101.3;;;;;;;;;;;;;;-0.56660664;0.12683493;-0.025818659;;;;;2041.2
2171.0;2103.7;;;;-0.33160785;0.84694684;0.68458945;;;;;;;;;;;;;;;
2171.0;2103.7;;;;-0.33850482;0.85535824;0.6941872;;;;;;;;;;;;;;;
2171.0;2103.7;;;;-0.348671;0.86267483;0.7033501;;;;;;;;;;;;;;;
2171.0;2103.7;;;;-0.35365298;0.87087643;0.7119141;;;;;;;;;;;;;;;
2171.0;2103.7;;;;-0.35982898;0.87829983;0.7202073;;;;;;;;;;;;;;;
2171.0;2104.4;;;;;;;;;;4.20011;-43.62621;93.63079;;;;;;;;;
2171.0;2104.4;;;;;;;0.92568743;-1.1169775;0.58265936;;;;;;;;;;;;
2171.0;2104.4;;;;;;;;;;3.8033693;-30.724508;86.11179;;;;;;;;;
2171.0;2104.4;;;;;;;0.9368572;-1.1708732;0.57783747;;;;;;;;;;;;
2171.0;2107.5;262143;262143;12839;;;;;;;;;;;;;;;;;;
2227.0;2113.6;;;;-0.36810306;0.8896104;0.72525793;;;;;;;;;;;;;;;
2227.0;2113.6;;;;-0.37779623;0.90168774;0.72702795;;;;;;;;;;;;;;;
2227.0;2113.6;;;;-0.38633353;0.91446316;0.72616583;;;;;;;;;;;;;;;
2227.0;2113.6;;;;-0.39445502;0.9265138;0.7239571;;;;;;;;;;;;;;;
2227.0;2113.6;;;;-0.40017706;0.93802273;0.7190133;;;;;;;;;;;;;;;
2227.0;2113.9;;;;;;;;;;3.212073;-18.059328;78.16171;;;;;;;;;
2227.0;2113.9;;;;;;;0.9438154;-1.2192755;0.57203895;;;;;;;;;;;;
2227.0;2113.9;;;;;;;;;;2.5673697;-5.726035;69.60127;;;;;;;;;
2227.0;2113.9;;;;;;;0.94534135;-1.2609638;0.5661794;;;;;;;;;;;;
2227.0;2123.4;;;;;;;;;;2.0027773;6.023591;60.838646;;;;;;;;;
2227.0;2123.4;;;;;;;0.9401532;-1.2974029;0.5565966;;;;;;;;;;;;
2227.0;2123.4;;;;;;;;;;1.6327403;16.762293;51.854763;;;;;;;;;
2227.0;2123.4;;;;;;;0.9328288;-1.3267617;0.5479904;;;;;;;;;;;;
2227.0;2123.6;;;;-0.4041825;0.94918835;0.71344;;;;;;;;;;;;;;;
2227.0;2123.6;;;;-0.41136557;0.95668423;0.70545965;;;;;;;;;;;;;;;
2227.0;2123.6;;;;-0.41497427;0.96305096;0.6954575;;;;;;;;;;;;;;;
2227.0;2123.6;;;;-0.41613394;0.96911633;0.68251806;;;;;;;;;;;;;;;
2227.0;2123.6;;;;-0.41922766;0.9739114;0.66795355;;;;;;;;;;;;;;;
2227.0;2127.5;262143;262143;12845;;;;;;;;;;;;;;;;;;
2227.0;2133.1;;;;;;;;;;1.2321848;26.562548;42.77932;;;;;;;;;
2227.0;2133.1;;;;;;;0.9223304;-1.345439;0.5401166;;;;;;;;;;;;
2227.0;2133.1;;;;;;;;;;0.90029603;35.634174;33.375805;;;;;;;;;
2227.0;2133.1;;;;;;;0.9024323;-1.3522141;0.53779715;;;;;;;;;;;;
2229.0;2133.5;;;;;;;;;;;;;-7333;;;;;;;;
2229.0;2133.5;;;;;;;;;;;;;-7318;;;;;;;;
2229.0;2133.5;;;;;;;;;;;;;-7351;;;;;;;;
2229.0;2133.5;;;;;;;;;;;;;-7699;;;;;;;;
2229.0;2133.5;;;;;;;;;;;;;-8101;;;;;;;;
2229.0;2133.7;;;;-0.42630774;0.9778253;0.651146;;;;;;;;;;;;;;;
2229.0;2133.7;;;;-0.42789847;0.980034;0.6329003;;;;;;;;;;;;;;;
2229.0;2133.7;;;;-0.42869192;0.9826089;0.6145516;;;;;;;;;;;;;;;
2229.0;2133.7;;;;-0.4326821;0.9845048;0.5942841;;;;;;;;;;;;;;;
2229.0;2133.7;;;;-0.43581396;0.98350537;0.57349783;;;;;;;;;;;;;;;
2229.0;2142.7;;;;;;;;;;0.7477035;44.267097;23.770103;;;;;;;;;
2229.0;2142.7;;;;;;;0.87002164;-1.3528855;0.5345012;;;;;;;;;;;;
2229.0;2142.7;;;;;;;;;;0.839259;52.205727;14.236885;;;;;;;;;
2229.0;2142.7;;;;;;;0.83602405;-1.350383;0.52864164;;;;;;;;;;;;
2229.0;2143.9;;;;-0.4357682;0.9805833;0.55271536;;;;;;;;;;;;;;;
2229.0;2143.9;;;;-0.44204336;0.9797288;0.5313378;;;;;;;;;;;;;;;
2229.0;2143.9;;;;-0.4456063;0.98098004;0.511921;;;;;;;;;;;;;;;
2229.0;2143.9;;;;-0.4472466;0.9838487;0.4919625;;;;;;;;;;;;;;;
2229.0;2143.9;;;;-0.446724;0.9854089;0.47214895;;;;;;;;;;;;;;;
2233.0;2146.5;;;;;;;;;;;;;;;;;57.069614;24.39955;60.220646;;2050.8
2233.0;2146.5;;;;;;;;;;;;;;-0.49293497;0.1726127;-0.021118809;;;;;2050.8
2233.0;2146.5;;;;;;;;;;;;;;;;;71.192055;17.170475;75.08698;;2050.8
2233.0;2146.5;;;;;;;;;;;;;;-0.4361095;0.22296824;-0.03686636;;;;;2050.8
2233.0;2146.5;;;;;;;;;;;;;;;;;71.01276;15.35081;90.186005;;2060.5
2233.0;2146.5;;;;;;;;;;;;;;-0.38142034;0.25513473;-0.079775386;;;;;2060.5
2233.0;2146.5;;;;;;;;;;;;;;;;;54.429764;21.446882;100.19226;;2060.5
2233.0;2146.5;;;;;;;;;;;;;;-0.34022033;0.25617236;-0.13641773;;;;;2060.5
2233.0;2146.5;;;;;;;;;;;;;;;;;30.89236;30.014954;104.22071;;2070.1
2233.0;2146.5;;;;;;;;;;;;;;-0.28815576;0.27692497;-0.19013031;;;;;2070.1
2233.0;2146.5;;;;;;;;;;;;;;;;;9.21659;34.478283;111.19037;;2070.1
2233.0;2146.5;;;;;;;;;;;;;;-0.23999757;0.2999359;-0.20068972;;;;;2070.1
2233.0;2147.7;262143;262143;12857;;;;;;;;;;;;;;;;;;
2233.0;2152.2;;;;;;;;;;1.0147405;59.24787;4.623554;;;;;;;;;
2233.0;2152.2;;;;;;;0.79787594;-1.3486129;0.5202795;;;;;;;;;;;;
2233.0;2152.2;;;;;;;;;;1.617481;65.27909;-4.844814;;;;;;;;;
2233.0;2152.2;;;;;;;0.75734735;-1.3528855;0.5096591;;;;;;;;;;;;
2233.0;2153.8;;;;-0.4459496;0.9868623;0.45325476;;;;;;;;;;;;;;;
2233.0;2153.8;;;;-0.4483109;0.9896318;0.43753058;;;;;;;;;;;;;;;
2233.0;2153.8;;;;-0.4501763;0.99447644;0.42364508;;;;;;;;;;;;;;;
2233.0;2153.8;;;;-0.4494477;0.9979974;0.4121285;;;;;;;;;;;;;;;
2233.0;2153.8;;;;-0.45024115;1.0009881;0.4017182;;;;;;;;;;;;;;;
2234.0;2161.6;;;;;;;;;;;;;;;;;-6.7712946;28.805658;119.823296;;2079.8
2234.0;2161.6;;;;;;;;;;;;;;-0.19574572;0.32605976;-0.1640675;;;;;2079.8
2234.0;2161.6;;;;;;;;;;;;;;;;;-13.203071;9.735405;124.47356;;2079.8
2234.0;2161.6;;;;;;;;;;;;;;-0.15179907;0.41096225;-0.096804716;;;;;2079.8
2234.0;2161.6;;;;;;;;;;;;;;;;;-9.82696;-19.245735;124.988556;;2089.4
2234.0;2161.6;;;;;;;;;;;;;;-0.104068115;0.46351513;-0.042054508;;;;;2089.4
2234.0;2161.6;;;;;;;;;;;;;;;;;-3.7614062;-43.46599;124.988556;;2089.4
2234.0;2161.6;;;;;;;;;;;;;;-0.06323435;0.5126499;0.028077029;;;;;2089.4
2234.0;2161.6;;;;;;;;;;;;;;;;;-2.166814;-57.21839;124.988556;;2099.0
2234.0;2161.6;;;;;;;;;;;;;;-0.03747673;0.54609823;0.07446516;;;;;2099.0
2234.0;2161.6;;;;;;;;;;;;;;;;;-10.517442;-59.278393;124.988556;;2099.0
2234.0;2161.6;;;;;;;;;;;;;;-0.04589984;0.5711844;0.09350871;;;;;2099.0
2234.0;2161.7;;;;;;;;;;2.4147773;70.05142;-14.2941065;;;;;;;;;
2234.0;2161.7;;;;;;;0.70857877;-1.3613086;0.49720755;;;;;;;;;;;;
2234.0;2161.7;;;;;;;;;;3.4295175;73.73272;-23.571733;;;;;;;;;
2234.0;2161.7;;;;;;;0.6573687;-1.3697928;0.48554948;;;;;;;;;;;;
2234.0;2163.8;;;;-0.4457398;1.0033036;0.39244086;;;;;;;;;;;;;;;
2234.0;2163.8;;;;-0.44232947;1.0045129;0.38402945;;;;;;;;;;;;;;;
2234.0;2163.8;;;;-0.43861014;1.0069848;0.3767472;;;;;;;;;;;;;;;
2234.0;2163.8;;;;-0.43615347;1.0085107;0.37240604;;;;;;;;;;;;;;;
2234.0;2163.8;;;;-0.4335366;1.0086366;0.3677025;;;;;;;;;;;;;;;
2234.0;2167.8;262143;262143;12872;;;;;;;;;;;;;;;;;;
2287.0;2171.3;;;;;;;;;;4.6006656;76.34587;-32.68151;;;;;;;;;
2287.0;2171.3;;;;;;;0.60048217;-1.3743095;0.47144994;;;;;;;;;;;;
2287.0;2171.3;;;;;;;;;;5.962554;77.92139;-41.52806;;;;;;;;;
2287.0;2171.3;;;;;;;0.5485397;-1.3804132;0.45844904;;;;;;;;;;;;
2287.0;2173.6;;;;;;;;;;;;;-8214;;;;;;;;
2287.0;2173.6;;;;;;;;;;;;;-8117;;;;;;;;
2287.0;2173.6;;;;;;;;;;;;;-7945;;;;;;;;
2287.0;2173.6;;;;;;;;;;;;;-7821;;;;;;;;
2287.0;2173.6;;;;;;;;;;;;;-7795;;;;;;;;
2287.0;2173.8;;;;-0.43070227;1.0088884;0.36460498;;;;;;;;;;;;;;;
2287.0;2173.8;;;;-0.42709738;1.0092851;0.36179355;;;;;;;;;;;;;;;
2287.0;2173.8;;;;-0.42819983;1.0101587;0.36053088;;;;;;;;;;;;;;;
2287.0;2173.8;;;;-0.4292794;1.0111085;0.36168674;;;;;;;;;;;;;;;
2287.0;2173.8;;;;-0.4278527;1.0122758;0.36374667;;;;;;;;;;;;;;;
2287.0;2180.7;;;;;;;;;;7.4732203;77.993866;-50.20676;;;;;;;;;
2287.0;2180.7;;;;;;;0.49684134;-1.3787042;0.44721824;;;;;;;;;;;;
2287.0;2180.7;;;;;;;;;;9.128849;76.53279;-58.561207;;;;;;;;;
2287.0;2180.7;;;;;;;0.44520402;-1.3747368;0.43537706;;;;;;;;;;;;
2287.0;2183.8;;;;-0.4310723;1.014824;0.36505893;;;;;;;;;;;;;;;
2287.0;2183.8;;;;-0.43592077;1.0184518;0.3679352;;;;;;;;;;;;;;;
2287.0;2183.8;;;;-0.4420815;1.0198404;0.37199023;;;;;;;;;;;;;;;
2287.0;2183.8;;;;-0.44699866;1.0234224;0.37657553;;;;;;;;;;;;;;;
2287.0;2183.8;;;;-0.4552651;1.027588;0.37966925;;;;;;;;;;;;;;;
2287.0;2187.8;262143;262143;12871;;;;;;;;;;;;;;;;;;
2291.0;2190.3;;;;;;;;;;10.887479;73.54579;-66.81265;;;;;;;;;
2291.0;2190.3;;;;;;;0.39582506;-1.3681448;0.4257332;;;;;;;;;;;;
2291.0;2190.3;;;;;;;;;;12.924589;69.04813;-74.77798;;;;;;;;;
2291.0;2190.3;;;;;;;0.35608998;-1.361797;0.41572315;;;;;;;;;;;;
2291.0;2193.9;;;;-0.46564108;1.0320779;0.38682944;;;;;;;;;;;;;;;
2291.0;2193.9;;;;-0.47515494;1.0385705;0.39158255;;;;;;;;;;;;;;;
2291.0;2193.9;;;;-0.48864752;1.0464898;0.40344244;;;;;;;;;;;;;;;
2291.0;2193.9;;;;-0.49834448;1.0547448;0.4141732;;;;;;;;;;;;;;;
2291.0;2193.9;;;;-0.5127335;1.0636216;0.42722708;;;;;;;;;;;;;;;
2291.0;2199.9;;;;;;;;;;15.404218;63.154243;-82.42668;;;;;;;;;
2291.0;2199.9;;;;;;;0.3300882;-1.3545946;0.4074221;;;;;;;;;;;;
2291.0;2199.9;;;;;;;;;;18.173773;56.00528;-89.60234;;;;;;;;;
2291.0;2199.9;;;;;;;0.3164159;-1.353618;0.39936522;;;;;;;;;;;;
2291.0;2204.0;;;;-0.5276833;1.0725938;0.43790823;;;;;;;;;;;;;;;
2291.0;2204.0;;;;-0.546032;1.0787545;0.4524613;;;;;;;;;;;;;;;
2291.0;2204.0;;;;-0.56138617;1.0838052;0.4647866;;;;;;;;;;;;;;;
2291.0;2204.0;;;;-0.58038336;1.0867883;0.48310858;;;;;;;;;;;;;;;
2291.0;2204.0;;;;-0.599022;1.0873071;0.49462134;;;;;;;;;;;;;;;
2293.0;2207.1;;;;;;;;;;;;;;;;;-25.822474;-54.345837;124.988556;;2108.7
2293.0;2207.1;;;;;;;;;;;;;;0.0022583697;0.5667287;0.047975097;;;;;2108.7
2293.0;2207.1;;;;;;;;;;;;;;;;;-32.37251;-48.177284;124.988556;;2108.7
2293.0;2207.1;;;;;;;;;;;;;;-0.0113528855;0.43989378;0.053529467;;;;;2108.7
2293.0;2207.1;;;;;;;;;;;;;;;;;-37.396618;-42.615284;124.988556;;2118.4
2293.0;2207.1;;;;;;;;;;;;;;-0.06738487;0.31684315;0.12982574;;;;;2118.4
2293.0;2207.1;;;;;;;;;;;;;;;;;-34.15784;-45.915096;124.57274;;2118.4
2293.0;2207.1;;;;;;;;;;;;;;-0.15698722;0.14325388;0.17487106;;;;;2118.4
2293.0;2207.1;;;;;;;;;;;;;;;;;-38.64788;-43.866543;117.900635;;2127.9
2293.0;2207.1;;;;;;;;;;;;;;-0.263802;0.054811243;0.29474777;;;;;2127.9
2293.0;2207.1;;;;;;;;;;;;;;;;;-55.974762;-40.780357;114.40245;;2127.9
2293.0;2207.1;;;;;;;;;;;;;;-0.2781457;-0.025147252;0.26599932;;;;;2127.9
2293.0;2208.0;262143;262143;12850;;;;;;;;;;;;;;;;;;
2293.0;2209.4;;;;;;;;;;21.18366;47.830135;-96.20579;;;;;;;;;
2293.0;2209.4;;;;;;;0.31214333;-1.3606372;0.3969848;;;;;;;;;;;;
2293.0;2209.4;;;;;;;;;;24.246956;39.262062;-102.01956;;;;;;;;;
2293.0;2209.4;;;;;;;0.30671102;-1.3777276;0.3912473;;;;;;;;;;;;
2293.0;2213.9;;;;;;;;;;;;;-7787;;;;;;;;
2293.0;2213.9;;;;;;;;;;;;;-7603;;;;;;;;
2293.0;2213.9;;;;;;;;;;;;;-7152;;;;;;;;
2293.0;2213.9;;;;;;;;;;;;;-6758;;;;;;;;
2293.0;2213.9;;;;;;;;;;;;;-6692;;;;;;;;
2294.0;2214.0;;;;-0.61513525;1.0854684;0.50360495;;;;;;;;;;;;;;;
2294.0;2214.0;;;;-0.6390763;1.0816385;0.50954443;;;;;;;;;;;;;;;
2294.0;2214.0;;;;-0.66014487;1.0749704;0.5143662;;;;;;;;;;;;;;;
2294.0;2214.0;;;;-0.6813851;1.0685006;0.5163079;;;;;;;;;;;;;;;
2294.0;2214.0;;;;-0.70214087;1.0616113;0.5163613;;;;;;;;;;;;;;;
2294.0;2219.1;;;;;;;;;;27.2454;31.5714;-107.02841;;;;;;;;;
2294.0;2219.1;;;;;;;0.30530718;-1.4054995;0.3827021;;;;;;;;;;;;
2294.0;2219.1;;;;;;;;;;29.889067;25.330362;-111.66341;;;;;;;;;
2294.0;2219.1;;;;;;;0.31470686;-1.4434035;0.37397382;;;;;;;;;;;;
2294.0;2221.8;;;;;;;;;;;;;;;;;-77.68868;-33.650475;112.498856;;2137.6
2294.0;2221.8;;;;;;;;;;;;;;-0.28150272;-0.046815395;0.18756676;;;;;2137.6
2294.0;2221.8;;;;;;;;;;;;;;;;;-99.04019;-26.280252;108.554344;;2137.6
2294.0;2221.8;;;;;;;;;;;;;;-0.3096408;-0.08514664;0.076540425;;;;;2137.6
2294.0;2221.8;;;;;;;;;;;;;;;;;-118.76278;-20.210882;103.82015;;2147.3
2294.0;2221.8;;;;;;;;;;;;;;-0.31189916;-0.14020203;-0.044618063;;;;;2147.3
2294.0;2221.8;;;;;;;;;;;;;;;;;-124.94278;-12.050997;98.300125;;2147.3
2294.0;2221.8;;;;;;;;;;;;;;-0.3228248;-0.17084262;-0.14441359;;;;;2147.3
2294.0;2221.8;;;;;;;;;;;;;;;;;-124.988556;-3.9826655;95.164345;;2157.0
2294.0;2221.8;;;;;;;;;;;;;;-0.35834834;-0.20667134;-0.23426008;;;;;2157.0
2294.0;2221.8;;;;;;;;;;;;;;;;;-124.988556;4.9249244;93.36756;;2157.0
2294.0;2221.8;;;;;;;;;;;;;;-0.4043092;-0.2763146;-0.34650716;;;;;2157.0
2348.0;2223.9;;;;-0.7242318;1.0552179;0.51509863;;;;;;;;;;;;;;;
2348.0;2223.9;;;;-0.7374993;1.0508081;0.5140076;;;;;;;;;;;;;;;
2348.0;2223.9;;;;-0.7482224;1.045498;0.51035696;;;;;;;;;;;;;;;
2348.0;2223.9;;;;-0.7582933;1.0395242;0.50515753;;;;;;;;;;;;;;;
2348.0;2223.9;;;;-0.76514447;1.0345384;0.49735647;;;;;;;;;;;;;;;
2348.0;2228.5;;;;;;;;;;32.1894;20.592363;-116.43956;;;;;;;;;
2348.0;2228.5;;;;;;;0.33295694;-1.483871;0.3673818;;;;;;;;;;;;
2348.0;2228.5;;;;;;;;;;34.04721;16.8157;-121.124146;;;;;;;;;
2348.0;2228.5;;;;;;;0.35370952;-1.5248878;0.362743;;;;;;;;;;;;
2348.0;2228.0;262143;262143;12858;;;;;;;;;;;;;;;;;;
2348.0;2233.8;;;;-0.7692033;1.0305787;0.4885903;;;;;;;;;;;;;;;
2348.0;2233.8;;;;-0.7726594;1.0245363;0.47965246;;;;;;;;;;;;;;;
2348.0;2233.8;;;;-0.77126324;1.0182;0.46834952;;;;;;;;;;;;;;;
2348.0;2233.8;;;;-0.76340497;1.0112039;0.45589453;;;;;;;;;;;;;;;
2348.0;2233.8;;;;-0.75478375;1.0048906;0.44265753;;;;;;;;;;;;;;;
2348.0;2237.9;;;;;;;;;;35.21836;13.70281;-124.431595;;;;;;;;;
2348.0;2237.9;;;;;;;0.3711661;-1.5679189;0.35969114;;;;;;;;;;;;
2348.0;2237.9;;;;;;;;;;35.935543;10.998108;-124.881744;;;;;;;;;
2348.0;2237.9;;;;;;;0.38740197;-1.6038088;0.36085087;;;;;;;;;;;;
2350.0;2243.9;;;;-0.74260336;0.9997865;0.42934805;;;;;;;;;;;;;;;
2350.0;2243.9;;;;-0.73242575;0.9944154;0.41844565;;;;;;;;;;;;;;;
2350.0;2243.9;;;;-0.7234383;0.9881593;0.40583807;;;;;;;;;;;;;;;
2350.0;2243.9;;;;-0.7158738;0.9815942;0.3942681;;;;;;;;;;;;;;;
2350.0;2243.9;;;;-0.70870215;0.97350323;0.38359457;;;;;;;;;;;;;;;
2350.0;2247.5;;;;;;;;;;36.473434;8.976256;-124.881744;;;;;;;;;
2350.0;2247.5;;;;;;;0.39722893;-1.6319468;0.3653676;;;;;;;;;;;;
2350.0;2247.5;;;;;;;;;;36.885433;7.4465165;-124.881744;;;;;;;;;
2350.0;2247.5;;;;;;;0.4049196;-1.6569719;0.37781915;;;;;;;;;;;;
2350.0;2248.1;262143;262143;12853;;;;;;;;;;;;;;;;;;
2350.0;2254.0;;;;-0.7059327;0.9655229;0.3731766;;;;;;;;;;;;;;;
2350.0;2254.0;;;;-0.70514685;0.95790875;0.36355212;;;;;;;;;;;;;;;
2350.0;2254.0;;;;-0.70600516;0.9514924;0.354744;;;;;;;;;;;;;;;
2350.0;2254.0;;;;-0.70862204;0.94581234;0.3491707;;;;;;;;;;;;;;;
2350.0;2254.0;;;;-0.7078095;0.94085324;0.343998;;;;;;;;;;;;;;;
2350.0;2254.1;;;;;;;;;;;;;-6812;;;;;;;;
2350.0;2254.1;;;;;;;;;;;;;-6798;;;;;;;;
2350.0;2254.1;;;;;;;;;;;;;-6525;;;;;;;;
2350.0;2254.1;;;;;;;;;;;;;-6439;;;;;;;;
2350.0;2254.1;;;;;;;;;;;;;-6873;;;;;;;;
2350.0;2257.2;;;;;;;;;;37.503433;6.4737387;-124.881744;;;;;;;;;
2350.0;2257.2;;;;;;;0.40919217;-1.6713157;0.39814448;;;;;;;;;;;;
2350.0;2257.2;;;;;;;;;;38.396103;6.0464797;-124.881744;;;;;;;;;
2350.0;2257.2;;;;;;;0.41126743;-1.6699117;0.4215827;;;;;;;;;;;;
2352.0;2264.2;;;;-0.7121621;0.93787396;0.33650973;;;;;;;;;;;;;;;
2352.0;2264.2;;;;-0.7200013;0.93602;0.32821658;;;;;;;;;;;;;;;
2352.0;2264.2;;;;-0.7262917;0.9330331;0.3200417;;;;;;;;;;;;;;;
2352.0;2264.2;;;;-0.7327729;0.9293977;0.31027606;;;;;;;;;;;;;;;
2352.0;2264.2;;;;-0.7397767;0.92743695;0.30427936;;;;;;;;;;;;;;;
2352.0;2267.0;;;;;;;;;;;;;;;;;-124.988556;15.381329;91.521194;;2166.6
2352.0;2267.0;;;;;;;;;;;;;;-0.45661795;-0.33466598;-0.46546832;;;;;2166.6
2352.0;2267.0;;;;;;;;;;;;;;;;;-124.988556;26.169622;90.727715;;2166.6
2352.0;2267.0;;;;;;;;;;;;;;-0.5141148;-0.402295;-0.62337106;;;;;2166.6
2352.0;2267.0;;;;;;;;;;;;;;;;;-124.988556;37.518692;91.88741;;2176.2
2352.0;2267.0;;;;;;;;;;;;;;-0.5877865;-0.4763329;-0.78078556;;;;;2176.2
2352.0;2267.0;;;;;;;;;;;;;;;;;-124.988556;46.09821;92.23838;;2176.2
2352.0;2267.0;;;;;;;;;;;;;;-0.68007445;-0.56386;-0.9173254;;;;;2176.2
2352.0;2267.0;;;;;;;;;;;;;;;;;-117.71371;51.85095;90.948975;;2185.9
2352.0;2267.0;;;;;;;;;;;;;;-0.7840815;-0.6825159;-1.041963;;;;;2185.9
2352.0;2267.0;;;;;;;;;;;;;;;;;-84.64309;56.966614;86.53905;;2185.9
2352.0;2267.0;;;;;;;;;;;;;;-0.91238135;-0.8033692;-1.1239967;;;;;2185.9
2352.0;2266.8;;;;;;;;;;39.368877;5.8519244;-124.881744;;;;;;;;;
2352.0;2266.8;;;;;;;0.41029084;-1.648793;0.44141972;;;;;;;;;;;;
2352.0;2266.8;;;;;;;;;;40.517136;5.550554;-124.881744;;;;;;;;;
2352.0;2266.8;;;;;;;0.40900907;-1.6166875;0.455092;;;;;;;;;;;;
2352.0;2268.3;262143;262143;12845;;;;;;;;;;;;;;;;;;
2353.0;2274.1;;;;-0.7455483;0.92834866;0.30306628;;;;;;;;;;;;;;;
2353.0;2274.1;;;;-0.7531282;0.9312211;0.30220416;;;;;;;;;;;;;;;
2353.0;2274.1;;;;-0.76033795;0.9376184;0.30542758;;;;;;;;;;;;;;;
2353.0;2274.1;;;;-0.7679025;0.9474679;0.30803683;;;;;;;;;;;;;;;
