patientId;holterMac;flexMac;;;;;;;;;;;;;;;;;;;;
stairsdown;CA:F3:0B:1E:33:78;D3:4A:5C:52:80:78;;;;;;;;;;;;;;;;;;;;
receivedTimeStamp;timeStamp;red;ir;green;adxl_accX;adxl_accY;adxl_accZ;lsm_accelX;lsm_accelY;lsm_accelZ;lsm_gyroX;lsm_gyroY;lsm_gyroZ;ecg;flex_lsm_accelX;flex_lsm_accelY;flex_lsm_accelZ;flex_lsm_gyroX;flex_lsm_gyroY;flex_lsm_gyroZ;flex_cmd;flexTimeStamp
294.0;216.6;;;;;;;;;;;;;;;;;;;;17;0.1
294.0;216.6;;;;;;;;;;;;;;;;;14.034699;-0.17929624;0.12207404;;127.6
294.0;216.6;;;;;;;;;;;;;;0.9114048;-0.1530198;-0.1685232;;;;;127.6
294.0;216.6;;;;;;;;;;;;;;;;;-5.996887;-18.112736;-6.8094425;;127.6
294.0;216.6;;;;;;;;;;;;;;0.9502854;-0.1281167;-0.17023225;;;;;127.6
294.0;216.6;;;;;;;;;;;;;;;;;-64.325386;-84.21201;-58.500168;;137.1
294.0;216.6;;;;;;;;;;;;;;0.95632803;-0.103518784;-0.18335521;;;;;137.1
294.0;216.6;;;;;;;;;;;;;;;;;-122.352516;-124.988556;-118.41182;;137.1
294.0;216.6;;;;;;;;;;;;;;0.96017337;-0.076235235;-0.19129002;;;;;137.1
353.0;217.4;;;;;;;;;;;;;;;;;-63.390762;-124.76348;-69.013794;;146.8
353.0;217.4;;;;;;;;;;;;;;0.94515824;-0.0684225;-0.2197943;;;;;146.8
353.0;217.4;;;;;;;;;;;;;;;;;-5.6993318;-124.67193;-9.254738;;146.8
353.0;217.4;;;;;;;;;;;;;;0.94106877;-0.09277627;-0.15155491;;;;;146.8
353.0;217.4;;;;;;;;;;;;;;;;;-19.684439;-95.36653;2.6779993;;156.5
353.0;217.4;;;;;;;;;;;;;;0.9566332;-0.13776055;0.11444441;;;;;156.5
353.0;217.4;;;;;;;;;;;;;;;;;-31.174658;-6.7941833;26.715141;;156.5
353.0;217.4;;;;;;;;;;;;;;0.99148536;-0.10095523;0.13934751;;;;;156.5
353.0;217.4;;;;;;;;;;;;;;;;;-28.683584;-3.131962;25.448622;;166.1
353.0;217.4;;;;;;;;;;;;;;1.0279244;-0.07415998;-0.0040284432;;;;;166.1
353.0;217.4;;;;;;;;;;;;;;;;;-23.487808;-5.8175907;23.190252;;166.1
353.0;217.4;;;;;;;;;;;;;;1.0795007;-0.07959227;-0.14325388;;;;;166.1
353.0;276.7;;;;;;;;;;;;;;;;;-19.325848;-4.8829613;23.144474;;175.8
353.0;276.7;;;;;;;;;;;;;;1.1182592;-0.10693686;-0.2519608;;;;;175.8
353.0;276.7;;;;;;;;;;;;;;;;;-20.115513;1.7242957;23.010956;;175.8
353.0;276.7;;;;;;;;;;;;;;1.0674154;-0.11316264;-0.24695578;;;;;175.8
353.0;276.7;;;;;;;;;;;;;;;;;-24.2584;4.215369;23.144474;;185.4
353.0;276.7;;;;;;;;;;;;;;1.0014343;-0.09851375;-0.21625416;;;;;185.4
353.0;276.7;;;;;;;;;;;;;;;;;-28.969696;0.9117405;23.373363;;185.4
353.0;276.7;;;;;;;;;;;;;;0.96548355;-0.06439406;-0.25543994;;;;;185.4
353.0;276.7;;;;;;;;;;;;;;;;;-34.12351;-1.12537;22.938475;;195.0
353.0;276.7;;;;;;;;;;;;;;0.9449141;-0.026673177;-0.28925443;;;;;195.0
353.0;276.7;;;;;;;;;;;;;;;;;-37.518692;-0.8049257;22.385326;;195.0
353.0;276.7;;;;;;;;;;;;;;0.92226934;-0.0014648885;-0.27729118;;;;;195.0
432.0;284.1;;;;;;;;;;;;;;;;;-36.744286;-0.40055543;21.755882;;204.7
432.0;284.1;;;;;;;;;;;;;;0.9043855;0.0076296274;-0.25965148;;;;;204.7
432.0;284.1;;;;;;;;;;;;;;;;;-32.46025;-0.29374066;20.249031;;204.7
432.0;284.1;;;;;;;;;;;;;;0.89223915;-0.0046388134;-0.2603229;;;;;204.7
432.0;284.1;;;;;;;;;;;;;;;;;-27.874844;0.6828517;18.715477;;214.4
432.0;284.1;;;;;;;;;;;;;;0.87636954;-0.038819544;-0.26319164;;;;;214.4
432.0;284.1;;;;;;;;;;;;;;;;;-25.788141;1.3466293;17.105623;;214.4
432.0;284.1;;;;;;;;;;;;;;0.86898404;-0.07458724;-0.2789392;;;;;214.4
432.0;284.1;;;;;;;;;;;;;;;;;-26.184881;1.7624439;15.793329;;224.1
432.0;284.1;;;;;;;;;;;;;;0.87490463;-0.11011078;-0.29139072;;;;;224.1
432.0;284.1;;;;;;;;;;;;;;;;;-27.394176;2.1439252;14.881589;;224.1
432.0;284.1;;;;;;;;;;;;;;0.89870906;-0.12384411;-0.2979217;;;;;224.1
432.0;337.9;;;;;;;;;;;;;;;;;-28.084658;3.1472213;13.9965515;;233.7
432.0;337.9;;;;;;;;;;;;;;0.92684716;-0.12140263;-0.3020722;;;;;233.7
432.0;337.9;;;;;;;;;;;;;;;;;-27.558214;4.9783316;12.680441;;233.7
432.0;337.9;;;;;;;;;;;;;;0.94497514;-0.0966216;-0.30347607;;;;;233.7
432.0;337.9;;;;;;;;;;;;;;;;;-26.665548;6.6873684;11.307108;;243.3
432.0;337.9;;;;;;;;;;;;;;0.9508347;-0.0700705;-0.31415755;;;;;243.3
432.0;337.9;;;;;;;;;;;;;;;;;-25.822474;7.57622;9.624775;;243.3
432.0;337.9;;;;;;;;;;;;;;0.94119084;-0.039063692;-0.3312479;;;;;243.3
432.0;337.9;;;;;;;;;;;;;;;;;-25.482956;7.881405;8.026368;;252.8
432.0;337.9;;;;;;;;;;;;;;0.92605364;-0.026490066;-0.34119692;;;;;252.8
432.0;337.9;;;;;;;;;;;;;;;;;-25.47151;8.026368;6.4622946;;252.8
432.0;337.9;;;;;;;;;;;;;;0.9124424;-0.030335398;-0.34565264;;;;;252.8
475.0;344.5;;;;;;;;;;;;;;;;;-26.08951;8.373516;5.0202947;;262.5
475.0;344.5;;;;;;;;;;;;;;0.9114048;-0.050660726;-0.34784997;;;;;262.5
475.0;344.5;;;;;;;;;;;;;;;;;-26.051363;9.186071;3.5592213;;262.5
475.0;344.5;;;;;;;;;;;;;;0.91561633;-0.08478042;-0.33741266;;;;;262.5
475.0;344.5;;;;;;;;;;;;;;;;;-25.360882;9.952848;2.5292215;;272.1
475.0;344.5;;;;;;;;;;;;;;0.9308756;-0.1264687;-0.3243507;;;;;272.1
475.0;344.5;;;;;;;;;;;;;;;;;-24.666586;10.639516;1.53737;;272.1
475.0;344.5;;;;;;;;;;;;;;0.9576098;-0.1688284;-0.30384228;;;;;272.1
475.0;344.5;;;;;;;;;;;;;;;;;-24.311808;12.077701;0.7705924;;281.7
475.0;344.5;;;;;;;;;;;;;;0.9983825;-0.21814631;-0.27088228;;;;;281.7
475.0;344.5;;;;;;;;;;;;;;;;;-24.311808;14.362774;0.10681479;;281.7
475.0;344.5;;;;;;;;;;;;;;1.0350658;-0.26007873;-0.22571489;;;;;281.7
475.0;397.3;;;;;;;;;;;;;;;;;-24.826807;15.766624;-0.29755548;;291.4
475.0;397.3;;;;;;;;;;;;;;1.0859096;-0.30402538;-0.19806513;;;;;291.4
475.0;397.3;;;;;;;;;;;;;;;;;-25.948362;16.796625;-0.35859248;;291.4
475.0;397.3;;;;;;;;;;;;;;1.1349834;-0.34455398;-0.18536943;;;;;291.4
475.0;397.3;;;;;;;;;;;;;;;;;-27.62688;17.170475;0.022888882;;301.1
475.0;397.3;;;;;;;;;;;;;;1.1764885;-0.36921293;-0.18634602;;;;;301.1
475.0;397.3;;;;;;;;;;;;;;;;;-29.541918;17.216253;0.9537034;;301.1
475.0;397.3;;;;;;;;;;;;;;1.2176886;-0.40351573;-0.19385357;;;;;301.1
475.0;397.3;;;;;;;;;;;;;;;;;-30.682547;17.597734;1.9722588;;310.6
475.0;397.3;;;;;;;;;;;;;;1.2541276;-0.41688284;-0.20081179;;;;;310.6
475.0;397.3;;;;;;;;;;;;;;;;;-31.20899;18.299662;2.967925;;310.6
475.0;397.3;;;;;;;;;;;;;;1.2743309;-0.4252449;-0.20068972;;;;;310.6
536.0;398.1;;;;;;;;;;;;;;;;;-30.755028;18.581957;3.7041843;;320.1
536.0;398.1;;;;;;;;;;;;;;1.2765893;-0.4196295;-0.19299905;;;;;320.1
536.0;398.1;;;;;;;;;;;;;;;;;-29.91577;18.112736;4.1772213;;320.1
536.0;398.1;;;;;;;;;;;;;;1.2671895;-0.40009767;-0.18250069;;;;;320.1
536.0;398.1;;;;;;;;;;;;;;;;;-28.95825;17.727438;4.1047397;;329.7
536.0;398.1;;;;;;;;;;;;;;1.2459487;-0.3737907;-0.16608173;;;;;329.7
536.0;398.1;;;;;;;;;;;;;;;;;-28.496658;16.98355;3.3913696;;329.7
536.0;398.1;;;;;;;;;;;;;;1.2281868;-0.3437605;-0.15674306;;;;;329.7
536.0;398.1;;;;;;;;;;;;;;;;;-28.523361;16.39607;2.1057773;;339.4
536.0;398.1;;;;;;;;;;;;;;1.2057253;-0.31598866;-0.15820795;;;;;339.4
536.0;398.1;;;;;;;;;;;;;;;;;-28.67977;16.220589;0.2822962;;339.4
536.0;398.1;;;;;;;;;;;;;;1.1867428;-0.29590747;-0.16266365;;;;;339.4
536.0;458.6;;;;;;;;;;;;;;;;;-28.56914;16.20533;-1.9569995;;349.0
536.0;458.6;;;;;;;;;;;;;;1.1687979;-0.2793054;-0.16913357;;;;;349.0
536.0;458.6;;;;;;;;;;;;;;;;;-28.202917;16.525774;-4.50911;;349.0
536.0;458.6;;;;;;;;;;;;;;1.146031;-0.2674032;-0.1871395;;;;;349.0
536.0;458.6;;;;;;;;;;;;;;;;;-27.867214;17.536697;-7.4655905;;358.7
536.0;458.6;;;;;;;;;;;;;;1.1174657;-0.2482986;-0.19397564;;;;;358.7
536.0;458.6;;;;;;;;;;;;;;;;;-27.371288;16.922514;-10.23896;;358.7
536.0;458.6;;;;;;;;;;;;;;1.1207618;-0.22791223;-0.21167639;;;;;358.7
536.0;458.6;;;;;;;;;;;;;;;;;-26.127659;17.212439;-13.359478;;368.3
536.0;458.6;;;;;;;;;;;;;;1.1175878;-0.19873653;-0.21216469;;;;;368.3
536.0;458.6;;;;;;;;;;;;;;;;;-24.06766;17.742699;-16.861477;;368.3
536.0;458.6;;;;;;;;;;;;;;1.1177709;-0.16150396;-0.20612201;;;;;368.3
597.0;459.8;;;;;;;;;;;;;;;;;-21.233253;18.154697;-20.867031;;378.0
597.0;459.8;;;;;;;;;;;;;;1.1240578;-0.120365;-0.20007935;;;;;378.0
597.0;459.8;;;;;;;;;;;;;;;;;-17.334513;18.757439;-25.509659;;378.0
597.0;459.8;;;;;;;;;;;;;;1.131016;-0.0740379;-0.1932432;;;;;378.0
597.0;459.8;;;;;;;;;;;;;;;;;-13.447219;20.348215;-30.835138;;387.7
597.0;459.8;;;;;;;;;;;;;;1.1278421;-0.03112888;-0.18225653;;;;;387.7
597.0;459.8;;;;;;;;;;;;;;;;;-9.910886;21.881773;-36.65273;;387.7
597.0;459.8;;;;;;;;;;;;;;1.122959;0.008667257;-0.17133091;;;;;387.7
597.0;459.8;;;;;;;;;;;;;;;;;-6.4203315;23.606068;-42.676323;;397.2
597.0;459.8;;;;;;;;;;;;;;1.1135594;0.037720878;-0.1610767;;;;;397.2
597.0;459.8;;;;;;;;;;;;;;;;;-2.7542956;26.474808;-48.71517;;397.2
597.0;459.8;;;;;;;;;;;;;;1.1040987;0.058290355;-0.14264351;;;;;397.2
597.0;518.1;;;;;;;;;;;;;;;;;1.7433698;30.114138;-54.700615;;406.8
597.0;518.1;;;;;;;;;;;;;;1.0917081;0.07446516;-0.10449538;;;;;406.8
597.0;518.1;;;;;;;;;;;;;;;;;6.7712946;34.23032;-60.38087;;406.8
597.0;518.1;;;;;;;;;;;;;;1.075106;0.08514664;-0.058656577;;;;;406.8
597.0;518.1;;;;;;;;;;;;;;;;;11.463515;37.63695;-65.389725;;416.4
597.0;518.1;;;;;;;;;;;;;;1.0410475;0.08471938;-0.025696585;;;;;416.4
597.0;518.1;;;;;;;;;;;;;;;;;13.294626;38.94162;-69.38383;;416.4
597.0;518.1;;;;;;;;;;;;;;1.0134586;0.084475234;-0.033936583;;;;;416.4
597.0;518.1;;;;;;;;;;;;;;;;;11.005738;40.818504;-72.622604;;426.0
597.0;518.1;;;;;;;;;;;;;;0.9679861;0.077333905;-0.029114658;;;;;426.0
597.0;518.1;;;;;;;;;;;;;;;;;6.416517;40.948208;-75.65157;;426.0
597.0;518.1;;;;;;;;;;;;;;0.9394818;0.06714072;-0.02356029;;;;;426.0
656.0;518.9;;;;;;;;;;;;;;;;;1.7853328;39.761803;-78.84838;;435.6
656.0;518.9;;;;;;;;;;;;;;0.92770165;0.068544574;-0.05365154;;;;;435.6
656.0;518.9;;;;;;;;;;;;;;;;;-2.2164068;40.349285;-82.6136;;435.6
656.0;518.9;;;;;;;;;;;;;;0.8993194;0.06366161;-0.05383465;;;;;435.6
656.0;518.9;;;;;;;;;;;;;;;;;-5.9587393;38.842434;-86.74505;;445.2
656.0;518.9;;;;;;;;;;;;;;0.87026584;0.055787835;-0.08032472;;;;;445.2
656.0;518.9;;;;;;;;;;;;;;;;;-10.13596;36.606953;-91.04053;;445.2
656.0;518.9;;;;;;;;;;;;;;0.85402995;0.05597095;-0.10925627;;;;;445.2
656.0;518.9;;;;;;;;;;;;;;;;;-14.881589;34.34095;-94.95834;;454.9
656.0;518.9;;;;;;;;;;;;;;0.8542741;0.035279397;-0.13733329;;;;;454.9
656.0;518.9;;;;;;;;;;;;;;;;;-18.93292;34.085358;-98.92575;;454.9
656.0;518.9;;;;;;;;;;;;;;0.83138525;0.027893918;-0.1495407;;;;;454.9
656.0;532.9;;;;;;;;;;;;;;;;;-21.755882;32.658623;-102.4659;;464.5
656.0;532.9;;;;;;;;;;;;;;0.80269784;0.017639698;-0.16052736;;;;;464.5
656.0;532.9;;;;;;;;;;;;;;;;;-23.800623;29.293955;-105.49486;;464.5
656.0;532.9;;;;;;;;;;;;;;0.77968687;-0.0046998505;-0.19318217;;;;;464.5
656.0;532.9;;;;;;;;;;;;;;;;;-25.147251;24.323254;-107.84479;;474.2
656.0;532.9;;;;;;;;;;;;;;0.75423443;-0.028077029;-0.25165564;;;;;474.2
656.0;532.9;;;;;;;;;;;;;;;;;-25.650806;17.567217;-109.885704;;474.2
656.0;532.9;;;;;;;;;;;;;;0.72273934;-0.049256876;-0.3209937;;;;;474.2
656.0;532.9;;;;;;;;;;;;;;;;;-24.643698;7.435072;-111.32389;;483.8
656.0;532.9;;;;;;;;;;;;;;0.70082706;-0.061159093;-0.39936522;;;;;483.8
656.0;532.9;;;;;;;;;;;;;;;;;-21.145512;-3.1243324;-112.128815;;483.8
656.0;532.9;;;;;;;;;;;;;;0.6949675;-0.08233894;-0.46510208;;;;;483.8
717.0;578.5;;;;;;;;;;;;;;;;;-15.36607;-12.230293;-111.43833;;493.2
717.0;578.5;;;;;;;;;;;;;;0.6994842;-0.12286752;-0.4816431;;;;;493.2
717.0;578.5;;;;;;;;;;;;;;;;;-9.31959;-20.26429;-109.35545;;493.2
717.0;578.5;;;;;;;;;;;;;;0.72634053;-0.16382337;-0.4456923;;;;;493.2
717.0;578.5;;;;;;;;;;;;;;;;;-3.2807398;-23.796808;-107.22297;;502.9
717.0;578.5;;;;;;;;;;;;;;0.7920774;-0.20667134;-0.331431;;;;;502.9
717.0;578.5;;;;;;;;;;;;;;;;;1.9837031;-24.029512;-103.07245;;502.9
717.0;578.5;;;;;;;;;;;;;;0.92806786;-0.24335459;-0.16559343;;;;;502.9
717.0;578.5;;;;;;;;;;;;;;;;;6.8437757;-20.68392;-100.737785;;512.5
717.0;578.5;;;;;;;;;;;;;;1.1068453;-0.28998688;-0.006897183;;;;;512.5
717.0;578.5;;;;;;;;;;;;;;;;;14.206367;-14.198736;-100.287636;;512.5
717.0;578.5;;;;;;;;;;;;;;1.2824488;-0.3477279;0.11243019;;;;;512.5
717.0;593.1;;;;;;;;;;;;;;;;;19.928587;-12.211219;-102.58034;;522.2
717.0;593.1;;;;;;;;;;;;;;1.449202;-0.3554796;0.09643849;;;;;522.2
717.0;593.1;;;;;;;;;;;;;;;;;21.172216;-11.581775;-104.53352;;522.2
717.0;593.1;;;;;;;;;;;;;;1.5518662;-0.3027436;-0.033936583;;;;;522.2
717.0;593.1;;;;;;;;;;;;;;;;;21.862698;-12.451551;-103.39671;;531.9
717.0;593.1;;;;;;;;;;;;;;1.5768914;-0.28266242;-0.17181921;;;;;531.9
717.0;593.1;;;;;;;;;;;;;;;;;19.596697;-16.598255;-103.60652;;531.9
717.0;593.1;;;;;;;;;;;;;;1.5673085;-0.2451857;-0.34760582;;;;;531.9
717.0;593.1;;;;;;;;;;;;;;;;;14.088107;-16.8157;-102.96945;;541.3
717.0;593.1;;;;;;;;;;;;;;1.5074313;-0.23224586;-0.4812769;;;;;541.3
717.0;593.1;;;;;;;;;;;;;;;;;5.939665;-9.369183;-102.47734;;541.3
717.0;593.1;;;;;;;;;;;;;;1.411542;-0.2379223;-0.5063631;;;;;541.3
777.0;638.2;;;;;;;;;;;;;;;;;-4.238258;3.1929991;-103.80489;;551.0
777.0;638.2;;;;;;;;;;;;;;1.2765893;-0.18134098;-0.42939544;;;;;551.0
777.0;638.2;;;;;;;;;;;;;;;;;-11.917479;13.729514;-103.22123;;551.0
777.0;638.2;;;;;;;;;;;;;;1.1495712;-0.18518631;-0.29816583;;;;;551.0
777.0;638.2;;;;;;;;;;;;;;;;;-15.053254;17.014069;-101.50075;;560.7
777.0;638.2;;;;;;;;;;;;;;1.0939054;-0.22998749;-0.21198156;;;;;560.7
777.0;638.2;;;;;;;;;;;;;;;;;-15.690329;16.399885;-99.94811;;560.7
777.0;638.2;;;;;;;;;;;;;;1.1067842;-0.26075014;-0.17896055;;;;;560.7
777.0;638.2;;;;;;;;;;;;;;;;;-13.954588;14.889218;-97.72408;;570.3
777.0;638.2;;;;;;;;;;;;;;1.0991546;-0.30622274;-0.1902524;;;;;570.3
777.0;638.2;;;;;;;;;;;;;;;;;-11.329996;15.522477;-97.0336;;570.3
777.0;638.2;;;;;;;;;;;;;;0.9781793;-0.32837915;-0.17926572;;;;;570.3
777.0;698.7;;;;;;;;;;;;;;;;;-10.166478;12.668996;-96.19816;;580.0
777.0;698.7;;;;;;;;;;;;;;0.9363689;-0.33564258;-0.14600055;;;;;580.0
777.0;698.7;;;;;;;;;;;;;;;;;-7.820368;5.7374797;-93.27982;;580.0
777.0;698.7;;;;;;;;;;;;;;0.98171943;-0.36725974;-0.19275491;;;;;580.0
777.0;698.7;;;;;;;;;;;;;;;;;-5.1461835;5.7031465;-90.37675;;589.6
777.0;698.7;;;;;;;;;;;;;;0.9749443;-0.3942381;-0.22412793;;;;;589.6
777.0;698.7;;;;;;;;;;;;;;;;;-3.952147;9.292887;-88.09931;;589.6
777.0;698.7;;;;;;;;;;;;;;0.93215734;-0.4380627;-0.1993469;;;;;589.6
777.0;698.7;;;;;;;;;;;;;;;;;-4.2115545;10.029145;-86.47038;;599.3
777.0;698.7;;;;;;;;;;;;;;0.9057894;-0.3953978;-0.1539964;;;;;599.3
777.0;698.7;;;;;;;;;;;;;;;;;-5.584887;7.457961;-83.42998;;599.3
777.0;698.7;;;;;;;;;;;;;;0.887112;-0.39826655;-0.15588854;;;;;599.3
836.0;699.5;;;;;;;;;;;;;;;;;-6.611072;5.371258;-80.40482;;608.8
836.0;699.5;;;;;;;;;;;;;;0.8630024;-0.39082003;-0.15314189;;;;;608.8
836.0;699.5;;;;;;;;;;;;;;;;;-8.766441;2.8954437;-77.85272;;608.8
836.0;699.5;;;;;;;;;;;;;;0.8531144;-0.40437025;-0.15326396;;;;;608.8
836.0;699.5;;;;;;;;;;;;;;;;;-11.05533;-0.17166662;-75.16709;;618.3
836.0;699.5;;;;;;;;;;;;;;0.85512865;-0.39368877;-0.15802485;;;;;618.3
836.0;699.5;;;;;;;;;;;;;;;;;-13.420515;-2.2965178;-71.66128;;618.3
836.0;699.5;;;;;;;;;;;;;;0.84444714;-0.3800775;-0.1441084;;;;;618.3
836.0;699.5;;;;;;;;;;;;;;;;;-16.178625;-5.569628;-67.32002;;628.0
836.0;699.5;;;;;;;;;;;;;;0.8476821;-0.36146122;-0.1424604;;;;;628.0
836.0;699.5;;;;;;;;;;;;;;;;;-19.013033;-8.251442;-62.326427;;628.0
836.0;699.5;;;;;;;;;;;;;;0.8592181;-0.33912167;-0.1490524;;;;;628.0
836.0;706.5;;;;;;;;;;;;;;;;;-21.736809;-9.716331;-57.203133;;637.6
836.0;706.5;;;;;;;;;;;;;;0.8712424;-0.31891844;-0.15558337;;;;;637.6
836.0;706.5;;;;;;;;;;;;;;;;;-24.868769;-7.904294;-52.404095;;637.6
836.0;706.5;;;;;;;;;;;;;;0.8283944;-0.29590747;-0.13592944;;;;;637.6
836.0;706.5;;;;;;;;;;;;;;;;;-28.34025;-5.584887;-47.81106;;647.3
836.0;706.5;;;;;;;;;;;;;;0.77822196;-0.26508376;-0.095156714;;;;;647.3
836.0;706.5;;;;;;;;;;;;;;;;;-32.052067;-5.6344795;-43.17225;;647.3
836.0;706.5;;;;;;;;;;;;;;0.77321696;-0.23242897;-0.063417464;;;;;647.3
836.0;706.5;;;;;;;;;;;;;;;;;-36.40858;-7.1031833;-38.31599;;656.9
836.0;706.5;;;;;;;;;;;;;;0.7876217;-0.20618305;-0.055787835;;;;;656.9
836.0;706.5;;;;;;;;;;;;;;;;;-42.241432;-7.4083686;-33.47499;;656.9
836.0;706.5;;;;;;;;;;;;;;0.78811;-0.16638692;-0.03936888;;;;;656.9
896.0;758.8;;;;;;;;;;;;;;;;;-50.515762;-7.2862945;-28.633991;;666.6
896.0;758.8;;;;;;;;;;;;;;0.78090763;-0.14050722;-0.013428144;;;;;666.6
896.0;758.8;;;;;;;;;;;;;;;;;-59.20591;-6.653035;-24.037142;;666.6
896.0;758.8;;;;;;;;;;;;;;0.783227;-0.09735405;0.013367107;;;;;666.6
896.0;758.8;;;;;;;;;;;;;;;;;-68.06009;-5.3216653;-19.692068;;676.1
896.0;758.8;;;;;;;;;;;;;;0.7763298;-0.07953124;0.030457472;;;;;676.1
896.0;758.8;;;;;;;;;;;;;;;;;-75.2472;-4.2497025;-15.930662;;676.1
896.0;758.8;;;;;;;;;;;;;;0.7741935;-0.059511095;0.030579546;;;;;676.1
896.0;758.8;;;;;;;;;;;;;;;;;-80.42008;-3.1968138;-12.306589;;685.6
896.0;758.8;;;;;;;;;;;;;;0.768334;-0.041077916;0.024597919;;;;;685.6
896.0;758.8;;;;;;;;;;;;;;;;;-83.52916;-2.2049623;-8.972442;;685.6
896.0;758.8;;;;;;;;;;;;;;0.75124365;-0.03747673;0.0026245918;;;;;685.6
896.0;766.2;;;;;;;;;;;;;;;;;-84.28449;-0.79348123;-5.771813;;695.3
896.0;766.2;;;;;;;;;;;;;;0.73000276;-0.040650655;-0.006469924;;;;;695.3
896.0;766.2;;;;;;;;;;;;;;;;;-82.70516;-0.6714072;-2.3079624;;695.3
896.0;766.2;;;;;;;;;;;;;;0.6946013;-0.061708428;-0.026734214;;;;;695.3
896.0;766.2;;;;;;;;;;;;;;;;;-78.33338;-2.7314067;1.33137;;705.0
896.0;766.2;;;;;;;;;;;;;;0.6573077;-0.07806635;-0.04693747;;;;;705.0
896.0;766.2;;;;;;;;;;;;;;;;;-72.75613;-6.4127016;5.077517;;705.0
896.0;766.2;;;;;;;;;;;;;;0.614948;-0.10589923;-0.07794427;;;;;705.0
896.0;766.2;;;;;;;;;;;;;;;;;-66.35487;-9.796441;8.316295;;714.7
896.0;766.2;;;;;;;;;;;;;;0.562273;-0.12451552;-0.09729301;;;;;714.7
896.0;766.2;;;;;;;;;;;;;;;;;-59.369946;-13.233589;11.246071;;714.7
896.0;766.2;;;;;;;;;;;;;;0.5431684;-0.1408124;-0.121097445;;;;;714.7
954.0;819.2;;;;;;;;;;;;;;;;;-52.21717;-15.545365;14.1949215;;724.4
954.0;819.2;;;;;;;;;;;;;;0.5373089;-0.14386426;-0.14239937;;;;;724.4
954.0;819.2;;;;;;;;;;;;;;;;;-45.83117;-16.014587;17.338327;;724.4
954.0;819.2;;;;;;;;;;;;;;0.5268105;-0.15369122;-0.13879818;;;;;724.4
954.0;819.2;;;;;;;;;;;;;;;;;-40.00595;-16.685995;20.702993;;734.0
954.0;819.2;;;;;;;;;;;;;;0.5305948;-0.1655324;-0.13507493;;;;;734.0
954.0;819.2;;;;;;;;;;;;;;;;;-35.18021;-17.391735;24.098179;;734.0
954.0;819.2;;;;;;;;;;;;;;0.5422529;-0.16858424;-0.12555315;;;;;734.0
954.0;819.2;;;;;;;;;;;;;;;;;-32.23899;-17.941069;27.359844;;743.7
954.0;819.2;;;;;;;;;;;;;;0.580401;-0.16492203;-0.10412916;;;;;743.7
954.0;819.2;;;;;;;;;;;;;;;;;-31.498917;-16.582996;30.766472;;743.7
954.0;819.2;;;;;;;;;;;;;;0.63039035;-0.14593951;-0.07458724;;;;;743.7
954.0;826.9;;;;;;;;;;;;;;;;;-31.819363;-12.314219;33.818325;;753.3
954.0;826.9;;;;;;;;;;;;;;0.68745995;-0.11444441;-0.036194954;;;;;753.3
954.0;826.9;;;;;;;;;;;;;;;;;-32.803585;-5.539109;35.68758;;753.3
954.0;826.9;;;;;;;;;;;;;;0.71846676;-0.078554645;0.006897183;;;;;753.3
954.0;826.9;;;;;;;;;;;;;;;;;-34.16547;1.3199255;36.118656;;763.0
954.0;826.9;;;;;;;;;;;;;;0.73250526;-0.04504532;0.051576283;;;;;763.0
954.0;826.9;;;;;;;;;;;;;;;;;-35.57695;3.7957397;35.64562;;763.0
954.0;826.9;;;;;;;;;;;;;;0.76400036;-0.009399701;0.06732383;;;;;763.0
954.0;826.9;;;;;;;;;;;;;;;;;-38.58684;3.8796656;34.76821;;772.5
954.0;826.9;;;;;;;;;;;;;;0.8265633;0.042298656;0.0860622;;;;;772.5
954.0;826.9;;;;;;;;;;;;;;;;;-43.93521;5.0927763;33.90225;;772.5
954.0;826.9;;;;;;;;;;;;;;0.9258095;0.106387526;0.10803553;;;;;772.5
1016.0;879.4;;;;;;;;;;;;;;;;;-50.7065;10.631886;33.276623;;782.1
1016.0;879.4;;;;;;;;;;;;;;1.0359203;0.15668203;0.14209418;;;;;782.1
1016.0;879.4;;;;;;;;;;;;;;;;;-58.633686;19.592882;32.486954;;782.1
1016.0;879.4;;;;;;;;;;;;;;1.1366314;0.20917386;0.19141209;;;;;782.1
1016.0;879.4;;;;;;;;;;;;;;;;;-68.65901;26.932585;31.205175;;791.7
1016.0;879.4;;;;;;;;;;;;;;1.2227546;0.27332377;0.22846156;;;;;791.7
1016.0;879.4;;;;;;;;;;;;;;;;;-79.966125;30.011139;29.847103;;791.7
1016.0;879.4;;;;;;;;;;;;;;1.3017365;0.32044435;0.24262215;;;;;791.7
1016.0;879.4;;;;;;;;;;;;;;;;;-91.021454;27.905361;27.539139;;801.2
1016.0;879.4;;;;;;;;;;;;;;1.3910336;0.372631;0.16760765;;;;;801.2
1016.0;879.4;;;;;;;;;;;;;;;;;-97.399826;25.673697;23.892178;;801.2
1016.0;879.4;;;;;;;;;;;;;;1.4506058;0.42939544;0.02294992;;;;;801.2
1016.0;886.8;;;;;;;;;;;;;;;;;-95.53056;25.654621;18.757439;;810.8
1016.0;886.8;;;;;;;;;;;;;;1.4541459;0.47578356;-0.15558337;;;;;810.8
1016.0;886.8;;;;;;;;;;;;;;;;;-85.253456;24.266031;12.943663;;810.8
1016.0;886.8;;;;;;;;;;;;;;1.3928648;0.51948607;-0.33118686;;;;;810.8
1016.0;886.8;;;;;;;;;;;;;;;;;-70.020905;17.61681;6.6911836;;820.5
1016.0;886.8;;;;;;;;;;;;;;1.3525803;0.5236976;-0.43684193;;;;;820.5
1016.0;886.8;;;;;;;;;;;;;;;;;-52.476578;8.239998;1.9646292;;820.5
1016.0;886.8;;;;;;;;;;;;;;1.3280435;0.52699363;-0.45222327;;;;;820.5
1016.0;886.8;;;;;;;;;;;;;;;;;-36.076694;0.34333324;-1.373333;;830.1
1016.0;886.8;;;;;;;;;;;;;;1.2582171;0.51911986;-0.37812433;;;;;830.1
1016.0;886.8;;;;;;;;;;;;;;;;;-19.966734;-8.774072;-3.8605914;;830.1
1016.0;886.8;;;;;;;;;;;;;;1.1886349;0.4824366;-0.35029146;;;;;830.1
1076.0;939.7;;;;;;;;;;;;;;;;;-4.528184;-15.411847;-6.733146;;839.8
1076.0;939.7;;;;;;;;;;;;;;1.1241798;0.4293344;-0.31183812;;;;;839.8
1076.0;939.7;;;;;;;;;;;;;;;;;10.071108;-20.523697;-8.869442;;839.8
1076.0;939.7;;;;;;;;;;;;;;1.0652181;0.36957914;-0.27460554;;;;;839.8
1076.0;939.7;;;;;;;;;;;;;;;;;23.312326;-25.07477;-10.66622;;849.4
1076.0;939.7;;;;;;;;;;;;;;1.0148015;0.27887815;-0.28766748;;;;;849.4
1076.0;939.7;;;;;;;;;;;;;;;;;35.41673;-26.093327;-12.913144;;849.4
1076.0;939.7;;;;;;;;;;;;;;0.98025453;0.19476913;-0.25415814;;;;;849.4
1076.0;939.7;;;;;;;;;;;;;;;;;45.636616;-24.636068;-14.187292;;859.0
1076.0;939.7;;;;;;;;;;;;;;0.9322184;0.08642842;-0.1892758;;;;;859.0
1076.0;939.7;;;;;;;;;;;;;;;;;53.01065;-22.28614;-15.594958;;859.0
1076.0;939.7;;;;;;;;;;;;;;0.8948637;-0.020508438;-0.117984556;;;;;859.0
1076.0;940.5;;;;;;;;;;;;;;;;;59.026615;-20.748772;-17.017883;;868.7
1076.0;940.5;;;;;;;;;;;;;;0.85085607;-0.09375286;-0.038026065;;;;;868.7
1076.0;940.5;;;;;;;;;;;;;;;;;63.039795;-22.305214;-17.3574;;868.7
1076.0;940.5;;;;;;;;;;;;;;0.8319346;-0.14477982;0.010376293;;;;;868.7
1076.0;940.5;;;;;;;;;;;;;;;;;64.718315;-25.406658;-16.003143;;878.2
1076.0;940.5;;;;;;;;;;;;;;0.8921171;-0.23291726;0.035157323;;;;;878.2
1076.0;940.5;;;;;;;;;;;;;;;;;64.325386;-27.401806;-14.160588;;878.2
1076.0;940.5;;;;;;;;;;;;;;1.0193182;-0.3195288;0.07513657;;;;;878.2
1076.0;940.5;;;;;;;;;;;;;;;;;62.788017;-28.965881;-11.070589;;887.9
1076.0;940.5;;;;;;;;;;;;;;1.244789;-0.45710623;0.10669271;;;;;887.9
1076.0;940.5;;;;;;;;;;;;;;;;;60.022278;-25.002289;-6.5691094;;887.9
1076.0;940.5;;;;;;;;;;;;;;1.4897305;-0.6272164;0.18964201;;;;;887.9
1135.0;1000.5;;;;;;;;;;;;;;;;;55.3415;-15.598773;-2.4109623;;897.5
1135.0;1000.5;;;;;;;;;;;;;;1.5925779;-0.6986908;0.22302927;;;;;897.5
1135.0;1000.5;;;;;;;;;;;;;;;;;53.59432;-6.859035;1.0795922;;897.5
1135.0;1000.5;;;;;;;;;;;;;;1.4850917;-0.60335094;0.1737724;;;;;897.5
1135.0;1000.5;;;;;;;;;;;;;;;;;57.687614;-7.1184425;2.1820734;;907.1
1135.0;1000.5;;;;;;;;;;;;;;1.307535;-0.42945647;0.07281716;;;;;907.1
1135.0;1000.5;;;;;;;;;;;;;;;;;61.552017;-18.368328;0.54551834;;907.1
1135.0;1000.5;;;;;;;;;;;;;;1.2087771;-0.23169653;-0.12012085;;;;;907.1
1135.0;1000.5;;;;;;;;;;;;;;;;;53.00302;-25.219732;-1.8349254;;916.8
1135.0;1000.5;;;;;;;;;;;;;;1.1844844;-0.092043824;-0.21625416;;;;;916.8
1135.0;1000.5;;;;;;;;;;;;;;;;;35.63036;-21.206549;-3.3646657;;916.8
1135.0;1000.5;;;;;;;;;;;;;;1.0944548;-0.094058044;-0.10296945;;;;;916.8
1135.0;1001.3;;;;;;;;;;;;;;;;;20.371105;-18.82229;-4.3565173;;926.4
1135.0;1001.3;;;;;;;;;;;;;;1.0130924;-0.08716086;-0.0050660726;;;;;926.4
1135.0;1001.3;;;;;;;;;;;;;;;;;10.414441;-17.040771;-4.3832207;;926.4
1135.0;1001.3;;;;;;;;;;;;;;0.93459886;-0.06671346;-0.00347911;;;;;926.4
1135.0;1001.3;;;;;;;;;;;;;;;;;3.4638507;-12.936033;-3.521073;;936.1
1135.0;1001.3;;;;;;;;;;;;;;0.8622089;-0.031250954;-0.0413831;;;;;936.1
1135.0;1001.3;;;;;;;;;;;;;;;;;-1.6022217;-5.4628134;-1.1749626;;936.1
1135.0;1001.3;;;;;;;;;;;;;;0.79049045;0.0025025178;-0.10296945;;;;;936.1
1135.0;1001.3;;;;;;;;;;;;;;;;;-6.492813;4.341258;2.0409255;;945.6
1135.0;1001.3;;;;;;;;;;;;;;0.72164065;0.027405621;-0.097170934;;;;;945.6
1135.0;1001.3;;;;;;;;;;;;;;;;;-12.382885;9.849849;6.4622946;;945.6
1135.0;1001.3;;;;;;;;;;;;;;0.6902066;0.018799402;-0.04174932;;;;;945.6
1193.0;1060.3;;;;;;;;;;;;;;;;;-16.018402;14.622181;11.970885;;955.3
1193.0;1060.3;;;;;;;;;;;;;;0.7571032;-0.059694204;0.05749687;;;;;955.3
1193.0;1060.3;;;;;;;;;;;;;;;;;-8.060701;19.7264;17.147587;;955.3
1193.0;1060.3;;;;;;;;;;;;;;0.92226934;-0.20307016;0.16418958;;;;;955.3
1193.0;1060.3;;;;;;;;;;;;;;;;;14.427626;20.218512;21.710106;;964.9
1193.0;1060.3;;;;;;;;;;;;;;1.0999482;-0.35206154;0.13299966;;;;;964.9
1193.0;1060.3;;;;;;;;;;;;;;;;;46.449173;8.69396;26.196325;;964.9
1193.0;1060.3;;;;;;;;;;;;;;1.264504;-0.4733421;-0.15100558;;;;;964.9
1193.0;1060.3;;;;;;;;;;;;;;;;;75.60961;-8.472701;29.461807;;974.6
1193.0;1060.3;;;;;;;;;;;;;;1.3150426;-0.49201941;-0.50917083;;;;;974.6
1193.0;1060.3;;;;;;;;;;;;;;;;;88.51131;-23.152103;34.405804;;974.6
1193.0;1060.3;;;;;;;;;;;;;;1.2773217;-0.48005617;-0.73299354;;;;;974.6
1193.0;1061.1;;;;;;;;;;;;;;;;;83.918274;-32.147434;41.386913;;984.2
1193.0;1061.1;;;;;;;;;;;;;;1.2170782;-0.50050354;-0.7190161;;;;;984.2
1193.0;1061.1;;;;;;;;;;;;;;;;;66.77068;-34.5851;47.09769;;984.2
1193.0;1061.1;;;;;;;;;;;;;;1.1543932;-0.5303507;-0.54628134;;;;;984.2
1193.0;1061.1;;;;;;;;;;;;;;;;;43.66436;-28.302103;51.12232;;993.8
1193.0;1061.1;;;;;;;;;;;;;;1.1125828;-0.560564;-0.27881712;;;;;993.8
1193.0;1061.1;;;;;;;;;;;;;;;;;28.03888;-19.356365;53.186134;;993.8
1193.0;1061.1;;;;;;;;;;;;;;1.0181586;-0.54628134;-0.065187536;;;;;993.8
1193.0;1061.1;;;;;;;;;;;;;;;;;25.238808;-15.362254;53.209023;;1003.4
1193.0;1061.1;;;;;;;;;;;;;;0.93972594;-0.45716727;-0.012573626;;;;;1003.4
1193.0;1061.1;;;;;;;;;;;;;;;;;30.533768;-15.957365;52.220985;;1003.4
1193.0;1061.1;;;;;;;;;;;;;;0.8675802;-0.3389996;-0.077455975;;;;;1003.4
1197.0;1120.9;;;;;;;;;;;;;;;;;38.739433;-18.501846;50.408947;;1012.9
1197.0;1120.9;;;;;;;;;;;;;;0.80257577;-0.20899075;-0.12768945;;;;;1012.9
1197.0;1120.9;;;;;;;;;;;;;;;;;44.671467;-23.335215;48.91736;;1012.9
1197.0;1120.9;;;;;;;;;;;;;;0.81673634;-0.09021272;-0.13196203;;;;;1012.9
1197.0;1120.9;;;;;;;;;;;;;;;;;45.556503;-24.311808;47.997986;;1022.6
1197.0;1120.9;;;;;;;;;;;;;;0.8265633;0.0018311106;-0.05114902;;;;;1022.6
1197.0;1120.9;;;;;;;;;;;;;;;;;41.844692;-23.155918;47.490616;;1022.6
1197.0;1120.9;;;;;;;;;;;;;;0.87368387;0.0474868;0.009765923;;;;;1022.6
1197.0;1120.9;;;;;;;;;;;;;;;;;37.022766;-20.535141;46.59795;;1032.3
1197.0;1120.9;;;;;;;;;;;;;;0.9012726;0.06555376;0.007019257;;;;;1032.3
1197.0;1120.9;;;;;;;;;;;;;;;;;33.700066;-18.684958;45.491653;;1032.3
1197.0;1120.9;;;;;;;;;;;;;;0.9308756;0.08630635;-0.045411542;;;;;1032.3
1197.0;1121.7;;;;;;;;;;;;;;;;;31.064028;-16.82333;44.888912;;1041.9
1197.0;1121.7;;;;;;;;;;;;;;0.9630421;0.08362072;-0.078127384;;;;;1041.9
1197.0;1121.7;;;;;;;;;;;;;;;;;27.291178;-13.595997;45.033875;;1041.9
1197.0;1121.7;;;;;;;;;;;;;;0.99813837;0.07147435;-0.06848354;;;;;1041.9
1197.0;1121.7;;;;;;;;;;;;;;;;;20.79455;-8.816034;46.166874;;1051.5
1197.0;1121.7;;;;;;;;;;;;;;1.0380566;0.039063692;-0.0601825;;;;;1051.5
1197.0;1121.7;;;;;;;;;;;;;;;;;12.874996;-4.078036;48.06284;;1051.5
1197.0;1121.7;;;;;;;;;;;;;;1.0704062;-0.010559404;-0.08484146;;;;;1051.5
1197.0;1121.7;;;;;;;;;;;;;;;;;5.2911468;-1.4000366;50.218204;;1061.2
1197.0;1121.7;;;;;;;;;;;;;;1.1050752;-0.08221687;-0.14587848;;;;;1061.2
1197.0;1121.7;;;;;;;;;;;;;;;;;-0.76296276;1.083407;51.950134;;1061.2
1197.0;1121.7;;;;;;;;;;;;;;1.1189306;-0.15540025;-0.19708854;;;;;1061.2
1197.0;1129.3;;;;0.0;0.0;0.0;;;;;;;;;;;;;;;
1197.0;1129.3;;;;-0.15250017;0.36163333;0.10351564;;;;;;;;;;;;;;;
1197.0;1129.3;;;;-0.36210635;1.0402948;0.16999055;;;;;;;;;;;;;;;
1197.0;1129.3;;;;-0.3618088;1.0668756;0.15693666;;;;;;;;;;;;;;;
1197.0;1129.3;;;;-0.3593636;1.0746537;0.15705492;;;;;;;;;;;;;;;
1197.0;1139.3;;;;-0.35597995;1.0826188;0.15709306;;;;;;;;;;;;;;;
1197.0;1139.3;;;;-0.35185245;1.0912896;0.15706636;;;;;;;;;;;;;;;
1197.0;1139.3;;;;-0.3470612;1.1004297;0.1571045;;;;;;;;;;;;;;;
1197.0;1139.3;;;;-0.34177783;1.1101037;0.15661241;;;;;;;;;;;;;;;
1197.0;1139.3;;;;-0.3366852;1.1200372;0.1559105;;;;;;;;;;;;;;;
1255.0;1140.5;57495;57396;12301;;;;;;;;;;;;;;;;;;
1255.0;1149.1;;;;-0.33105472;1.1285897;0.15546419;;;;;;;;;;;;;;;
1255.0;1149.1;;;;-0.32586673;1.1375085;0.15490343;;;;;;;;;;;;;;;
1255.0;1149.1;;;;-0.3204346;1.1456338;0.15404512;;;;;;;;;;;;;;;
1255.0;1149.1;;;;-0.31538394;1.1526796;0.15330125;;;;;;;;;;;;;;;
1255.0;1149.1;;;;-0.30949023;1.1590425;0.15314104;;;;;;;;;;;;;;;
1255.0;1159.2;;;;-0.30516818;1.1641198;0.15347673;;;;;;;;;;;;;;;
1255.0;1159.2;;;;-0.29922488;1.168358;0.1529236;;;;;;;;;;;;;;;
1255.0;1159.2;;;;-0.29285815;1.1708604;0.15274431;;;;;;;;;;;;;;;
1255.0;1159.2;;;;-0.2866173;1.1724054;0.15182878;;;;;;;;;;;;;;;
1255.0;1159.2;;;;-0.28011706;1.172886;0.15016557;;;;;;;;;;;;;;;
1255.0;1160.4;73877;73827;12306;;;;;;;;;;;;;;;;;;
1255.0;1166.6;;;;;;;;;;;;;0,00;;;;;;;;
1255.0;1166.6;;;;;;;;;;;;;0,00;;;;;;;;
1255.0;1166.6;;;;;;;;;;;;;-1,00;;;;;;;;
1255.0;1166.6;;;;;;;;;;;;;-2,00;;;;;;;;
1255.0;1166.6;;;;;;;;;;;;;-3,00;;;;;;;;
1255.0;1169.3;;;;-0.2729111;1.1727868;0.14910509;;;;;;;;;;;;;;;
1255.0;1169.3;;;;-0.26711658;1.1711923;0.14809038;;;;;;;;;;;;;;;
1255.0;1169.3;;;;-0.26160052;1.1685411;0.14720918;;;;;;;;;;;;;;;
1255.0;1169.3;;;;-0.2563782;1.1652795;0.14533235;;;;;;;;;;;;;;;
1255.0;1169.3;;;;-0.2519417;1.1604272;0.14299013;;;;;;;;;;;;;;;
1258.0;1179.4;;;;-0.24779132;1.1550599;0.14066698;;;;;;;;;;;;;;;
1258.0;1179.4;;;;-0.24338153;1.1492044;0.13811113;;;;;;;;;;;;;;;
1258.0;1179.4;;;;-0.2391701;1.1431352;0.13526537;;;;;;;;;;;;;;;
1258.0;1179.4;;;;-0.23616031;1.1362001;0.13315202;;;;;;;;;;;;;;;
1258.0;1179.4;;;;-0.23357394;1.1289102;0.1310425;;;;;;;;;;;;;;;
1258.0;1180.7;;;;;;;;;;;;;;;;;-4.81811;3.7919247;53.037354;;1070.9
1258.0;1180.7;;;;;;;;;;;;;;1.0975677;-0.21362957;-0.22150335;;;;;1070.9
1258.0;1180.7;;;;;;;;;;;;;;;;;-6.7941833;6.122776;53.716393;;1070.9
1258.0;1180.7;;;;;;;;;;;;;;1.0601519;-0.26081118;-0.22724082;;;;;1070.9
1258.0;1180.7;;;;;;;;;;;;;;;;;-6.6225166;7.927183;54.830315;;1080.5
1258.0;1180.7;;;;;;;;;;;;;;1.0132755;-0.29114658;-0.22449416;;;;;1080.5
1258.0;1180.7;;;;;;;;;;;;;;;;;-4.955443;8.625294;56.3448;;1080.5
1258.0;1180.7;;;;;;;;;;;;;;0.9631031;-0.31611073;-0.22589801;;;;;1080.5
1258.0;1180.7;;;;;;;;;;;;;;;;;-3.3417768;7.641072;57.794426;;1090.0
1258.0;1180.7;;;;;;;;;;;;;;0.92013305;-0.33655813;-0.24243905;;;;;1090.0
1258.0;1180.7;;;;;;;;;;;;;;;;;-1.2245551;6.2372203;59.36613;;1090.0
1258.0;1180.7;;;;;;;;;;;;;;0.87405014;-0.33674124;-0.26258126;;;;;1090.0
1258.0;1180.5;90252;90200;12290;;;;;;;;;;;;;;;;;;
1259.0;1181.4;;;;;;;;;;;;;;;;;0.48829615;4.7074804;61.212498;;1099.7
1259.0;1181.4;;;;;;;;;;;;;;0.8453627;-0.3328959;-0.27503282;;;;;1099.7
1259.0;1181.4;;;;;;;;;;;;;;;;;2.090518;4.146703;62.273018;;1099.7
1259.0;1181.4;;;;;;;;;;;;;;0.81984925;-0.31653798;-0.26313058;;;;;1099.7
1259.0;1181.4;;;;;;;;;;;;;;;;;3.8834803;3.521073;61.96402;;1109.4
1259.0;1181.4;;;;;;;;;;;;;;0.80471206;-0.30396435;-0.25989562;;;;;1109.4
1259.0;1181.4;;;;;;;;;;;;;;;;;6.4012575;2.1858883;61.658833;;1109.4
1259.0;1181.4;;;;;;;;;;;;;;0.8020875;-0.28235725;-0.2537309;;;;;1109.4
1259.0;1181.4;;;;;;;;;;;;;;;;;8.823664;-0.068666644;61.391796;;1119.1
1259.0;1181.4;;;;;;;;;;;;;;0.7984863;-0.27234718;-0.2590411;;;;;1119.1
1259.0;1181.4;;;;;;;;;;;;;;;;;11.703849;-2.643666;60.094757;;1119.1
1259.0;1181.4;;;;;;;;;;;;;;0.81191444;-0.2517777;-0.26612142;;;;;1119.1
1259.0;1189.3;;;;-0.23150256;1.1210557;0.12817766;;;;;;;;;;;;;;;
1259.0;1189.3;;;;-0.22916797;1.1131097;0.1257248;;;;;;;;;;;;;;;
1259.0;1189.3;;;;-0.22755435;1.1050073;0.12296297;;;;;;;;;;;;;;;
1259.0;1189.3;;;;-0.22599795;1.0959169;0.11894609;;;;;;;;;;;;;;;
1259.0;1189.3;;;;-0.22286609;1.087433;0.11523439;;;;;;;;;;;;;;;
1259.0;1199.3;;;;-0.22012714;1.0787736;0.11199571;;;;;;;;;;;;;;;
1259.0;1199.3;;;;-0.21688464;1.0698053;0.10782243;;;;;;;;;;;;;;;
1259.0;1199.3;;;;-0.21411136;1.0606424;0.10337068;;;;;;;;;;;;;;;
1259.0;1199.3;;;;-0.21153644;1.0515748;0.09896089;;;;;;;;;;;;;;;
1259.0;1199.3;;;;-0.20865253;1.0417672;0.09421922;;;;;;;;;;;;;;;
1259.0;1200.6;106645;106564;12286;;;;;;;;;;;;;;;;;;
1315.0;1206.7;;;;;;;;;;;;;-7,00;;;;;;;;
1315.0;1206.7;;;;;;;;;;;;;-6,00;;;;;;;;
1315.0;1206.7;;;;;;;;;;;;;-10,00;;;;;;;;
1315.0;1206.7;;;;;;;;;;;;;-17,00;;;;;;;;
1315.0;1206.7;;;;;;;;;;;;;-13,00;;;;;;;;
1315.0;1209.2;;;;-0.20646289;1.0321199;0.08860398;;;;;;;;;;;;;;;
1315.0;1209.2;;;;-0.20504382;1.0224344;0.0837555;;;;;;;;;;;;;;;
1315.0;1209.2;;;;-0.20421603;1.0126306;0.07934571;;;;;;;;;;;;;;;
1315.0;1209.2;;;;-0.2035828;1.0026017;0.07509995;;;;;;;;;;;;;;;
1315.0;1209.2;;;;-0.20307544;0.9927255;0.071228035;;;;;;;;;;;;;;;
1315.0;1219.2;;;;-0.20270541;0.98329556;0.06734849;;;;;;;;;;;;;;;
1315.0;1219.2;;;;-0.20230868;0.9737779;0.06392289;;;;;;;;;;;;;;;
1315.0;1219.2;;;;-0.20167544;0.96416485;0.060718544;;;;;;;;;;;;;;;
1315.0;1219.2;;;;-0.20114139;0.954754;0.057365425;;;;;;;;;;;;;;;
1315.0;1219.2;;;;-0.20055774;0.94537747;0.054286964;;;;;;;;;;;;;;;
1315.0;1220.6;122995;123022;12287;;;;;;;;;;;;;;;;;;
1315.0;1229.3;;;;-0.19986346;0.93685544;0.051559456;;;;;;;;;;;;;;;
1315.0;1229.3;;;;-0.19983676;0.9283105;0.04924775;;;;;;;;;;;;;;;
1315.0;1229.3;;;;-0.20039752;0.9190141;0.046970375;;;;;;;;;;;;;;;
1315.0;1229.3;;;;-0.20140842;0.9110948;0.044116978;;;;;;;;;;;;;;;
1315.0;1229.3;;;;-0.2020531;0.9030534;0.04255295;;;;;;;;;;;;;;;
1317.0;1239.5;;;;-0.20293048;0.89546216;0.04067612;;;;;;;;;;;;;;;
1317.0;1239.5;;;;-0.20407107;0.8885461;0.038967136;;;;;;;;;;;;;;;
1317.0;1239.5;;;;-0.20533374;0.8819963;0.038825992;;;;;;;;;;;;;;;
1317.0;1239.5;;;;-0.20827487;0.87537014;0.03834534;;;;;;;;;;;;;;;
1317.0;1239.5;;;;-0.21064761;0.86898434;0.038780216;;;;;;;;;;;;;;;
1317.0;1240.9;;;;;;;;;;;;;;;;;14.481033;-4.734184;58.656578;;1128.7
1317.0;1240.9;;;;;;;;;;;;;;0.8020875;-0.23706779;-0.26599932;;;;;1128.7
1317.0;1240.9;;;;;;;;;;;;;;;;;16.335033;-7.6715903;57.279427;;1128.7
1317.0;1240.9;;;;;;;;;;;;;;0.8362682;-0.22681357;-0.26404613;;;;;1128.7
1317.0;1240.9;;;;;;;;;;;;;;;;;15.75518;-9.533219;56.421093;;1138.4
1317.0;1240.9;;;;;;;;;;;;;;0.86831266;-0.21478927;-0.26355785;;;;;1138.4
1317.0;1240.9;;;;;;;;;;;;;;;;;13.508256;-9.823145;55.963314;;1138.4
1317.0;1240.9;;;;;;;;;;;;;;0.8860134;-0.20368053;-0.25495163;;;;;1138.4
1317.0;1240.9;;;;;;;;;;;;;;;;;10.528886;-10.074923;55.57039;;1148.1
1317.0;1240.9;;;;;;;;;;;;;;0.9161046;-0.18024231;-0.24726096;;;;;1148.1
1317.0;1240.9;;;;;;;;;;;;;;;;;8.213294;-9.5675535;55.242317;;1148.1
1317.0;1240.9;;;;;;;;;;;;;;0.94174016;-0.1523484;-0.22949919;;;;;1148.1
1317.0;1240.8;139464;139360;12305;;;;;;;;;;;;;;;;;;
1318.0;1242.1;;;;;;;;;;;;;;;;;7.213813;-8.518478;54.860832;;1157.6
1318.0;1242.1;;;;;;;;;;;;;;0.96230966;-0.120303966;-0.19855343;;;;;1157.6
1318.0;1242.1;;;;;;;;;;;;;;;;;6.2181463;-8.014924;54.982906;;1157.6
1318.0;1242.1;;;;;;;;;;;;;;0.9807428;-0.0954619;-0.1902524;;;;;1157.6
1318.0;1242.1;;;;;;;;;;;;;;;;;4.8791466;-7.209998;55.093536;;1167.2
1318.0;1242.1;;;;;;;;;;;;;;0.9898984;-0.067201756;-0.17761773;;;;;1167.2
1318.0;1242.1;;;;;;;;;;;;;;;;;3.0480363;-7.000183;55.764946;;1167.2
1318.0;1242.1;;;;;;;;;;;;;;0.99252295;-0.045289468;-0.1892758;;;;;1167.2
1318.0;1242.1;;;;;;;;;;;;;;;;;1.1139256;-6.4813685;56.825466;;1176.9
1318.0;1242.1;;;;;;;;;;;;;;0.9917295;-0.03180029;-0.18738365;;;;;1176.9
1318.0;1242.1;;;;;;;;;;;;;;;;;-1.289407;-6.530961;58.114872;;1176.9
1318.0;1242.1;;;;;;;;;;;;;;0.97616506;-0.029725028;-0.19080172;;;;;1176.9
1318.0;1246.8;;;;;;;;;;;;;-30,00;;;;;;;;
1318.0;1246.8;;;;;;;;;;;;;-23,00;;;;;;;;
1318.0;1246.8;;;;;;;;;;;;;-15,00;;;;;;;;
1318.0;1246.8;;;;;;;;;;;;;-91,00;;;;;;;;
1318.0;1246.8;;;;;;;;;;;;;21,00;;;;;;;;
1318.0;1249.4;;;;-0.21323016;0.86301434;0.039428715;;;;;;;;;;;;;;;
1318.0;1249.4;;;;-0.21512988;0.8579904;0.040744785;;;;;;;;;;;;;;;
1318.0;1249.4;;;;-0.21681598;0.85348904;0.0426178;;;;;;;;;;;;;;;
1318.0;1249.4;;;;-0.21755984;0.84926236;0.0437851;;;;;;;;;;;;;;;
1318.0;1249.4;;;;-0.21836856;0.84466565;0.043987278;;;;;;;;;;;;;;;
1375.0;1259.5;;;;-0.21864322;0.8408853;0.046031956;;;;;;;;;;;;;;;
1375.0;1259.5;;;;-0.21904758;0.8370782;0.048336037;;;;;;;;;;;;;;;
1375.0;1259.5;;;;-0.2196007;0.83350766;0.049999245;;;;;;;;;;;;;;;
1375.0;1259.5;;;;-0.22008517;0.8300363;0.052482612;;;;;;;;;;;;;;;
1375.0;1259.5;;;;-0.22037509;0.8266679;0.05426789;;;;;;;;;;;;;;;
1375.0;1260.9;155777;155796;12293;;;;;;;;;;;;;;;;;;
1375.0;1269.5;;;;-0.22036746;0.8235017;0.05649949;;;;;;;;;;;;;;;
1375.0;1269.5;;;;-0.2197533;0.8203546;0.058284767;;;;;;;;;;;;;;;
1375.0;1269.5;;;;-0.21997073;0.8172914;0.060523994;;;;;;;;;;;;;;;
1375.0;1269.5;;;;-0.22037509;0.8138772;0.06368256;;;;;;;;;;;;;;;
1375.0;1269.5;;;;-0.22093204;0.81107724;0.06605149;;;;;;;;;;;;;;;
1375.0;1279.5;;;;-0.22212985;0.8085481;0.06916047;;;;;;;;;;;;;;;
1375.0;1279.5;;;;-0.22362903;0.8062097;0.071674354;;;;;;;;;;;;;;;
1375.0;1279.5;;;;-0.22518161;0.804268;0.07404328;;;;;;;;;;;;;;;
1375.0;1279.5;;;;-0.2269974;0.8031808;0.0760727;;;;;;;;;;;;;;;
1375.0;1279.5;;;;-0.22932056;0.8026315;0.07748795;;;;;;;;;;;;;;;
1375.0;1281.0;172198;172180;12303;;;;;;;;;;;;;;;;;;
1375.0;1287.1;;;;;;;;;;;;;178,00;;;;;;;;
1375.0;1287.1;;;;;;;;;;;;;-142,00;;;;;;;;
1375.0;1287.1;;;;;;;;;;;;;-457,00;;;;;;;;
1375.0;1287.1;;;;;;;;;;;;;367,00;;;;;;;;
1375.0;1287.1;;;;;;;;;;;;;2466,00;;;;;;;;
1377.0;1289.6;;;;-0.23182681;0.80204403;0.07957459;;;;;;;;;;;;;;;
1377.0;1289.6;;;;-0.23486331;0.8021356;0.08077622;;;;;;;;;;;;;;;
1377.0;1289.6;;;;-0.23823932;0.80191433;0.08105851;;;;;;;;;;;;;;;
1377.0;1289.6;;;;-0.24203876;0.80248654;0.0815239;;;;;;;;;;;;;;;
1377.0;1289.6;;;;-0.24536136;0.8026544;0.08078004;;;;;;;;;;;;;;;
1377.0;1299.7;;;;-0.24897388;0.8029214;0.08006669;;;;;;;;;;;;;;;
1377.0;1299.7;;;;-0.2528458;0.80287945;0.07862092;;;;;;;;;;;;;;;
1377.0;1299.7;;;;-0.25618747;0.8028451;0.07666016;;;;;;;;;;;;;;;
1377.0;1299.7;;;;-0.25875476;0.8036119;0.0750084;;;;;;;;;;;;;;;
1377.0;1299.7;;;;-0.26143268;0.803898;0.07306672;;;;;;;;;;;;;;;
1377.0;1301.2;;;;;;;;;;;;;;;;;-4.669332;-5.298776;58.832058;;1186.5
1377.0;1301.2;;;;;;;;;;;;;;0.9527879;-0.020447401;-0.17017122;;;;;1186.5
1377.0;1301.2;;;;;;;;;;;;;;;;;-8.785516;-4.6731467;59.423355;;1186.5
1377.0;1301.2;;;;;;;;;;;;;;0.9510178;-0.025208289;-0.15100558;;;;;1186.5
1377.0;1301.2;;;;;;;;;;;;;;;;;-13.0809965;-4.0704064;60.567795;;1196.2
1377.0;1301.2;;;;;;;;;;;;;;0.9560839;-0.025696585;-0.1478927;;;;;1196.2
1377.0;1301.2;;;;;;;;;;;;;;;;;-17.761772;-1.575518;61.826683;;1196.2
1377.0;1301.2;;;;;;;;;;;;;;0.94747764;-0.035706658;-0.13660085;;;;;1196.2
1377.0;1301.2;;;;;;;;;;;;;;;;;-23.010956;1.8539995;62.76513;;1205.8
1377.0;1301.2;;;;;;;;;;;;;;0.9559007;-0.01782281;-0.106753744;;;;;1205.8
1377.0;1301.2;;;;;;;;;;;;;;;;;-28.710287;4.737999;63.219093;;1205.8
1377.0;1301.2;;;;;;;;;;;;;;0.9418622;-0.09161656;-0.09979553;;;;;1205.8
1378.0;1302.0;;;;;;;;;;;;;;;;;-32.85699;7.038331;62.952057;;1215.3
1378.0;1302.0;;;;;;;;;;;;;;0.92770165;-0.09765923;-0.0799585;;;;;1215.3
1378.0;1302.0;;;;;;;;;;;;;;;;;-37.59499;7.1146274;62.273018;;1215.3
1378.0;1302.0;;;;;;;;;;;;;;0.9341105;-0.0966216;-0.085329756;;;;;1215.3
1378.0;1302.0;;;;;;;;;;;;;;;;;-41.753136;6.309702;61.914425;;1225.0
1378.0;1302.0;;;;;;;;;;;;;;0.94827116;-0.100039676;-0.105288856;;;;;1225.0
1378.0;1302.0;;;;;;;;;;;;;;;;;-45.10254;6.591998;61.80761;;1225.0
1378.0;1302.0;;;;;;;;;;;;;;0.9496139;-0.09747612;-0.12634663;;;;;1225.0
1378.0;1302.0;;;;;;;;;;;;;;;;;-47.414318;7.621998;61.91824;;1234.6
1378.0;1302.0;;;;;;;;;;;;;;0.941496;-0.10296945;-0.13977477;;;;;1234.6
1378.0;1302.0;;;;;;;;;;;;;;;;;-49.17295;8.266702;62.58583;;1234.6
1378.0;1302.0;;;;;;;;;;;;;;0.9254433;-0.11566515;-0.143437;;;;;1234.6
1378.0;1301.1;188529;188477;12304;;;;;;;;;;;;;;;;;;
1378.0;1309.6;;;;-0.26337436;0.8045007;0.07100678;;;;;;;;;;;;;;;
1378.0;1309.6;;;;-0.26417926;0.8058435;0.06961823;;;;;;;;;;;;;;;
1378.0;1309.6;;;;-0.2643433;0.80770123;0.06701661;;;;;;;;;;;;;;;
1378.0;1309.6;;;;-0.26394656;0.8096353;0.064113624;;;;;;;;;;;;;;;
1378.0;1309.6;;;;-0.26272205;0.8110887;0.061286934;;;;;;;;;;;;;;;
1378.0;1319.5;;;;-0.26175693;0.8129159;0.05864335;;;;;;;;;;;;;;;
1378.0;1319.5;;;;-0.2605286;0.8146745;0.05533982;;;;;;;;;;;;;;;
1378.0;1319.5;;;;-0.25889972;0.8160478;0.052623756;;;;;;;;;;;;;;;
1378.0;1319.5;;;;-0.25756076;0.8175279;0.049392708;;;;;;;;;;;;;;;
1378.0;1319.5;;;;-0.25582126;0.81845105;0.046672825;;;;;;;;;;;;;;;
1433.0;1321.1;204975;204917;12309;;;;;;;;;;;;;;;;;;
1433.0;1327.2;;;;;;;;;;;;;4580,00;;;;;;;;
1433.0;1327.2;;;;;;;;;;;;;5581,00;;;;;;;;
1433.0;1327.2;;;;;;;;;;;;;5502,00;;;;;;;;
1433.0;1327.2;;;;;;;;;;;;;5006,00;;;;;;;;
1433.0;1327.2;;;;;;;;;;;;;4501,00;;;;;;;;
1433.0;1329.4;;;;-0.2543793;0.8196336;0.043724064;;;;;;;;;;;;;;;
1433.0;1329.4;;;;-0.25295642;0.8209497;0.0402031;;;;;;;;;;;;;;;
1433.0;1329.4;;;;-0.25191882;0.8214532;0.037715916;;;;;;;;;;;;;;;
1433.0;1329.4;;;;-0.25083926;0.8227693;0.03554154;;;;;;;;;;;;;;;
1433.0;1329.4;;;;-0.24964908;0.82390606;0.033279423;;;;;;;;;;;;;;;
1433.0;1339.4;;;;-0.24839023;0.8250085;0.031265263;;;;;;;;;;;;;;;
1433.0;1339.4;;;;-0.24743655;0.8260995;0.029689793;;;;;;;;;;;;;;;
1433.0;1339.4;;;;-0.24599078;0.82805645;0.028255466;;;;;;;;;;;;;;;
1433.0;1339.4;;;;-0.24432376;0.82984555;0.02744675;;;;;;;;;;;;;;;
1433.0;1339.4;;;;-0.24260715;0.8317758;0.026229862;;;;;;;;;;;;;;;
1433.0;1341.1;221347;221337;12305;;;;;;;;;;;;;;;;;;
1433.0;1349.5;;;;-0.24139789;0.8340951;0.025615696;;;;;;;;;;;;;;;
1433.0;1349.5;;;;-0.24017337;0.8366777;0.025409702;;;;;;;;;;;;;;;
1433.0;1349.5;;;;-0.23878482;0.83921444;0.024158482;;;;;;;;;;;;;;;
1433.0;1349.5;;;;-0.23774341;0.8420907;0.024269108;;;;;;;;;;;;;;;
1433.0;1349.5;;;;-0.2366791;0.84523404;0.024486545;;;;;;;;;;;;;;;
1435.0;1359.6;;;;-0.2353783;0.84843075;0.024650577;;;;;;;;;;;;;;;
1435.0;1359.6;;;;-0.2346802;0.85206616;0.025581364;;;;;;;;;;;;;;;
1435.0;1359.6;;;;-0.23405078;0.8562318;0.026367191;;;;;;;;;;;;;;;
1435.0;1359.6;;;;-0.23329547;0.8605615;0.027156834;;;;;;;;;;;;;;;
1435.0;1359.6;;;;-0.23279575;0.86610425;0.029190067;;;;;;;;;;;;;;;
1435.0;1361.3;;;;;;;;;;;;;;;;;-50.94302;8.831293;63.383133;;1244.3
1435.0;1361.3;;;;;;;;;;;;;;0.8998688;-0.12494278;-0.14117862;;;;;1244.3
1435.0;1361.3;;;;;;;;;;;;;;;;;-53.29295;9.334849;63.890503;;1244.3
1435.0;1361.3;;;;;;;;;;;;;;0.8813135;-0.13367108;-0.13330485;;;;;1244.3
1435.0;1361.3;;;;;;;;;;;;;;;;;-55.085907;9.598072;64.40932;;1253.8
1435.0;1361.3;;;;;;;;;;;;;;0.8662374;-0.13415937;-0.12555315;;;;;1253.8
1435.0;1361.3;;;;;;;;;;;;;;;;;-56.112095;8.514664;65.160835;;1253.8
1435.0;1361.3;;;;;;;;;;;;;;0.85946226;-0.12323374;-0.12225715;;;;;1253.8
1435.0;1361.3;;;;;;;;;;;;;;;;;-56.936092;5.2758875;65.26383;;1263.5
1435.0;1361.3;;;;;;;;;;;;;;0.86452836;-0.13104647;-0.13959166;;;;;1263.5
1435.0;1361.3;;;;;;;;;;;;;;;;;-57.092503;1.1444441;64.11939;;1263.5
1435.0;1361.3;;;;;;;;;;;;;;0.87044895;-0.10425123;-0.17218544;;;;;1263.5
1435.0;1361.2;237656;237685;12310;;;;;;;;;;;;;;;;;;
1435.0;1362.6;;;;;;;;;;;;;;;;;-56.340984;-4.0856657;62.910095;;1273.2
1435.0;1362.6;;;;;;;;;;;;;;0.873867;-0.07470931;-0.2283395;;;;;1273.2
1435.0;1362.6;;;;;;;;;;;;;;;;;-56.2418;-9.399701;61.658833;;1273.2
1435.0;1362.6;;;;;;;;;;;;;;0.8791772;-0.041077916;-0.28418836;;;;;1273.2
1435.0;1362.6;;;;;;;;;;;;;;;;;-57.294685;-12.894071;60.193943;;1282.7
1435.0;1362.6;;;;;;;;;;;;;;0.88894314;-0.014099551;-0.3025605;;;;;1282.7
1435.0;1362.6;;;;;;;;;;;;;;;;;-59.26313;-16.541033;58.67565;;1282.7
1435.0;1362.6;;;;;;;;;;;;;;0.9089022;0.020935697;-0.31800288;;;;;1282.7
1435.0;1362.6;;;;;;;;;;;;;;;;;-61.11713;-18.803217;57.18024;;1292.4
1435.0;1362.6;;;;;;;;;;;;;;0.93691826;0.050111394;-0.33063754;;;;;1292.4
1435.0;1362.6;;;;;;;;;;;;;;;;;-61.731316;-18.696402;55.925167;;1292.4
1435.0;1362.6;;;;;;;;;;;;;;0.95113987;0.07672353;-0.32355723;;;;;1292.4
1435.0;1367.3;;;;;;;;;;;;;3747,00;;;;;;;;
1435.0;1367.3;;;;;;;;;;;;;2951,00;;;;;;;;
1435.0;1367.3;;;;;;;;;;;;;2672,00;;;;;;;;
1435.0;1367.3;;;;;;;;;;;;;2811,00;;;;;;;;
1435.0;1367.3;;;;;;;;;;;;;3006,00;;;;;;;;
1435.0;1369.6;;;;-0.2321091;0.8726617;0.030509952;;;;;;;;;;;;;;;
1435.0;1369.6;;;;-0.23048022;0.879635;0.03314591;;;;;;;;;;;;;;;
1435.0;1369.6;;;;-0.22805408;0.88649;0.035037998;;;;;;;;;;;;;;;
1435.0;1369.6;;;;-0.22565463;0.8943292;0.037689213;;;;;;;;;;;;;;;
1435.0;1369.6;;;;-0.22262576;0.9033357;0.04024506;;;;;;;;;;;;;;;
1499.0;1376.3;;;;;;;;;;;;;;;;;-62.623985;-18.33018;54.258095;;1302.1
1499.0;1376.3;;;;;;;;;;;;;;0.9483932;0.09625538;-0.3090304;;;;;1302.1
1499.0;1376.3;;;;;;;;;;;;;;;;;-63.234352;-19.112217;52.369762;;1302.1
1499.0;1376.3;;;;;;;;;;;;;;0.9466842;0.11157567;-0.2969451;;;;;1302.1
1499.0;1376.3;;;;;;;;;;;;;;;;;-63.562424;-20.260475;50.24491;;1311.7
1499.0;1376.3;;;;;;;;;;;;;;0.95242167;0.12524797;-0.2985931;;;;;1311.7
1499.0;1376.3;;;;;;;;;;;;;;;;;-62.002167;-20.310068;47.933136;;1311.7
1499.0;1376.3;;;;;;;;;;;;;;0.95919675;0.13653982;-0.2903531;;;;;1311.7
1499.0;1376.3;;;;;;;;;;;;;;;;;-60.094757;-19.474625;45.55269;;1321.4
1499.0;1376.3;;;;;;;;;;;;;;0.9729911;0.14386426;-0.2747276;;;;;1321.4
1499.0;1376.3;;;;;;;;;;;;;;;;;-57.760094;-16.20533;43.107395;;1321.4
1499.0;1376.3;;;;;;;;;;;;;;0.99526966;0.15106662;-0.23566394;;;;;1321.4
1499.0;1379.5;;;;-0.21914294;0.9110223;0.042961124;;;;;;;;;;;;;;;
1499.0;1379.5;;;;-0.21767047;0.91885006;0.04554749;;;;;;;;;;;;;;;
1499.0;1379.5;;;;-0.21180347;0.9287187;0.04541016;;;;;;;;;;;;;;;
1499.0;1379.5;;;;-0.20711902;0.93534863;0.0468483;;;;;;;;;;;;;;;
1499.0;1379.5;;;;-0.20460132;0.94109356;0.050518043;;;;;;;;;;;;;;;
1499.0;1381.2;254037;254078;12305;;;;;;;;;;;;;;;;;;
1499.0;1389.3;;;;-0.20559314;0.94794476;0.051372536;;;;;;;;;;;;;;;
1499.0;1389.3;;;;-0.199482;0.95650876;0.049526222;;;;;;;;;;;;;;;
1499.0;1389.3;;;;-0.19467929;0.96152127;0.049644478;;;;;;;;;;;;;;;
1499.0;1389.3;;;;-0.18809512;0.96613705;0.04916001;;;;;;;;;;;;;;;
1499.0;1389.3;;;;-0.19443133;0.965706;0.053939827;;;;;;;;;;;;;;;
1502.0;1399.3;;;;-0.19265369;0.97163785;0.05574418;;;;;;;;;;;;;;;
1502.0;1399.3;;;;-0.17718507;0.976349;0.037796024;;;;;;;;;;;;;;;
1502.0;1399.3;;;;-0.17026521;0.976719;0.03811646;;;;;;;;;;;;;;;
1502.0;1399.3;;;;-0.16564943;0.9774934;0.041961674;;;;;;;;;;;;;;;
1502.0;1399.3;;;;-0.16529466;0.9782449;0.041851047;;;;;;;;;;;;;;;
1502.0;1401.1;262143;262143;12305;;;;;;;;;;;;;;;;;;
1502.0;1407.2;;;;;;;;;;;;;2987,00;;;;;;;;
1502.0;1407.2;;;;;;;;;;;;;2584,00;;;;;;;;
1502.0;1407.2;;;;;;;;;;;;;1918,00;;;;;;;;
1502.0;1407.2;;;;;;;;;;;;;1510,00;;;;;;;;
1502.0;1407.2;;;;;;;;;;;;;1708,00;;;;;;;;
1502.0;1409.5;;;;-0.16474916;0.97880185;0.039737705;;;;;;;;;;;;;;;
1502.0;1409.5;;;;-0.16291429;0.9789964;0.036613468;;;;;;;;;;;;;;;
1502.0;1409.5;;;;-0.16168214;0.9785501;0.033477787;;;;;;;;;;;;;;;
1502.0;1409.5;;;;-0.16173173;0.97830975;0.031021122;;;;;;;;;;;;;;;
1502.0;1409.5;;;;-0.16188814;0.9777528;0.029052738;;;;;;;;;;;;;;;
1502.0;1419.6;;;;-0.16275407;0.97667706;0.02656937;;;;;;;;;;;;;;;
1502.0;1419.6;;;;-0.16419603;0.97501004;0.024105076;;;;;;;;;;;;;;;
1502.0;1419.6;;;;-0.16485597;0.9729959;0.021717073;;;;;;;;;;;;;;;
1502.0;1419.6;;;;-0.16508104;0.97062314;0.018833162;;;;;;;;;;;;;;;
1502.0;1419.6;;;;-0.16523744;0.9677125;0.015548708;;;;;;;;;;;;;;;
1504.0;1421.4;;;;;;;;;;;;;;;;;-53.319653;-10.364849;40.3531;;1331.0
1504.0;1421.4;;;;;;;;;;;;;;1.0063174;0.14960173;-0.1539964;;;;;1331.0
1504.0;1421.4;;;;;;;;;;;;;;;;;-48.34132;-5.8175907;36.839657;;1331.0
1504.0;1421.4;;;;;;;;;;;;;;0.9944151;0.14825892;-0.07678457;;;;;1331.0
1504.0;1421.4;;;;;;;;;;;;;;;;;-41.085545;-4.459517;32.84936;;1340.6
1504.0;1421.4;;;;;;;;;;;;;;0.9919126;0.15247047;-0.014099551;;;;;1340.6
1504.0;1421.4;;;;;;;;;;;;;;;;;-32.834103;-0.69429606;28.756065;;1340.6
1504.0;1421.4;;;;;;;;;;;;;;0.9913633;0.114749596;0.0806299;;;;;1340.6
1504.0;1421.4;;;;;;;;;;;;;;;;;-24.113438;1.0147405;24.029512;;1350.3
1504.0;1421.4;;;;;;;;;;;;;;0.959685;0.121097445;0.12671286;;;;;1350.3
1504.0;1421.4;;;;;;;;;;;;;;;;;-16.346478;-4.928739;18.566698;;1350.3
1504.0;1421.4;;;;;;;;;;;;;;0.9496139;0.12128056;0.0010986663;;;;;1350.3
1504.0;1421.3;262143;262143;12310;;;;;;;;;;;;;;;;;;
1504.0;1429.5;;;;-0.1655121;0.96444714;0.013217928;;;;;;;;;;;;;;;
1504.0;1429.5;;;;-0.1656952;0.961445;0.010559083;;;;;;;;;;;;;;;
1504.0;1429.5;;;;-0.16585924;0.9581338;0.007980348;;;;;;;;;;;;;;;
1504.0;1429.5;;;;-0.16619493;0.95396817;0.005233765;;;;;;;;;;;;;;;
1504.0;1429.5;;;;-0.16685106;0.95020306;0.0032348637;;;;;;;;;;;;;;;
1558.0;1436.4;;;;;;;;;;;;;;;;;-9.704886;-13.214515;13.607441;;1359.9
1558.0;1436.4;;;;;;;;;;;;;;0.97830135;0.097598195;-0.22205268;;;;;1359.9
1558.0;1436.4;;;;;;;;;;;;;;;;;-4.554888;-13.477737;10.0138855;;1359.9
1558.0;1436.4;;;;;;;;;;;;;;0.9869686;0.06946013;-0.34601885;;;;;1359.9
1558.0;1436.4;;;;;;;;;;;;;;;;;-5.104221;-6.9353313;7.717368;;1369.6
1558.0;1436.4;;;;;;;;;;;;;;0.95437485;0.04693747;-0.34076968;;;;;1369.6
1558.0;1436.4;;;;;;;;;;;;;;;;;-9.212775;-2.399518;6.324961;;1369.6
1558.0;1436.4;;;;;;;;;;;;;;0.93905455;0.0081179235;-0.2933439;;;;;1369.6
1558.0;1436.4;;;;;;;;;;;;;;;;;-12.749107;-1.945555;5.1957765;;1379.3
1558.0;1436.4;;;;;;;;;;;;;;0.96627706;-0.006408887;-0.2821131;;;;;1379.3
1558.0;1436.4;;;;;;;;;;;;;;;;;-14.156774;-1.0338145;4.547258;;1379.3
1558.0;1436.4;;;;;;;;;;;;;;0.9934996;-0.013611255;-0.2847377;;;;;1379.3
1558.0;1439.4;;;;-0.16725542;0.9464685;0.0017356875;;;;;;;;;;;;;;;
1558.0;1439.4;;;;-0.16829683;0.9421731;6.866456E-5;;;;;;;;;;;;;;;
1558.0;1439.4;;;;-0.16962434;0.93763745;-0.0017585757;;;;;;;;;;;;;;;
1558.0;1439.4;;;;-0.17148973;0.9330598;-0.0033607488;;;;;;;;;;;;;;;
1558.0;1439.4;;;;-0.17411043;0.9286157;-0.00485611;;;;;;;;;;;;;;;
1558.0;1441.3;262143;262143;12305;;;;;;;;;;;;;;;;;;
1558.0;1447.4;;;;;;;;;;;;;2165,00;;;;;;;;
1558.0;1447.4;;;;;;;;;;;;;2517,00;;;;;;;;
1558.0;1447.4;;;;;;;;;;;;;2454,00;;;;;;;;
1558.0;1447.4;;;;;;;;;;;;;1723,00;;;;;;;;
1558.0;1447.4;;;;;;;;;;;;;1029,00;;;;;;;;
1561.0;1449.4;;;;-0.17733385;0.9237672;-0.0064544687;;;;;;;;;;;;;;;
1561.0;1449.4;;;;-0.18050005;0.91933835;-0.0073738107;;;;;;;;;;;;;;;
1561.0;1449.4;;;;-0.18371584;0.91461575;-0.008361817;;;;;;;;;;;;;;;
1561.0;1449.4;;;;-0.1870537;0.91045773;-0.009220124;;;;;;;;;;;;;;;
1561.0;1449.4;;;;-0.18986896;0.9071275;-0.009754182;;;;;;;;;;;;;;;
1561.0;1459.4;;;;-0.1919823;0.9046136;-0.009788514;;;;;;;;;;;;;;;
1561.0;1459.4;;;;-0.19357684;0.9031755;-0.010974885;;;;;;;;;;;;;;;
1561.0;1459.4;;;;-0.19415286;0.9032861;-0.014385225;;;;;;;;;;;;;;;
1561.0;1459.4;;;;-0.19472507;0.9046823;-0.020099642;;;;;;;;;;;;;;;
1561.0;1459.4;;;;-0.19472507;0.90807354;-0.027969364;;;;;;;;;;;;;;;
1561.0;1461.3;262143;262143;12305;;;;;;;;;;;;;;;;;;
1561.0;1469.5;;;;-0.19509509;0.9143144;-0.034660343;;;;;;;;;;;;;;;
1561.0;1469.5;;;;-0.19626239;0.92442715;-0.038745884;;;;;;;;;;;;;;;
1561.0;1469.5;;;;-0.20014957;0.9381181;-0.041477207;;;;;;;;;;;;;;;
1561.0;1469.5;;;;-0.2049599;0.9553224;-0.042896274;;;;;;;;;;;;;;;
1561.0;1469.5;;;;-0.21059039;0.97534955;-0.04297257;;;;;;;;;;;;;;;
1561.0;1479.6;;;;-0.21581653;0.99712384;-0.042099003;;;;;;;;;;;;;;;
1561.0;1479.6;;;;-0.21932986;1.0196306;-0.040348057;;;;;;;;;;;;;;;
1561.0;1479.6;;;;-0.22095492;1.0423776;-0.03822327;;;;;;;;;;;;;;;
1561.0;1479.6;;;;-0.22106937;1.0633546;-0.037822727;;;;;;;;;;;;;;;
1561.0;1479.6;;;;-0.2210007;1.0821954;-0.037384037;;;;;;;;;;;;;;;
1563.0;1481.5;;;;;;;;;;;;;;;;;-13.382367;1.9569995;4.016999;;1388.8
1563.0;1481.5;;;;;;;;;;;;;;0.99130225;-0.020020142;-0.26026186;;;;;1388.8
1563.0;1481.5;;;;;;;;;;;;;;;;;-11.535996;3.357036;3.7766654;;1388.8
1563.0;1481.5;;;;;;;;;;;;;;0.9866634;-0.032532733;-0.24164556;;;;;1388.8
1563.0;1481.5;;;;;;;;;;;;;;;;;-9.796441;4.1657767;3.4714804;;1398.5
1563.0;1481.5;;;;;;;;;;;;;;0.98709065;-0.045960877;-0.245674;;;;;1398.5
1563.0;1481.5;;;;;;;;;;;;;;;;;-8.568071;6.0960727;3.0976286;;1398.5
1563.0;1481.5;;;;;;;;;;;;;;0.9931333;-0.05633717;-0.24854274;;;;;1398.5
1563.0;1481.5;;;;;;;;;;;;;;;;;-8.018739;8.293406;2.3003328;;1408.2
1563.0;1481.5;;;;;;;;;;;;;;1.0104069;-0.053346355;-0.23816645;;;;;1408.2
1563.0;1481.5;;;;;;;;;;;;;;;;;-8.587145;10.250404;0.7820368;;1408.2
1563.0;1481.5;;;;;;;;;;;;;;1.0451369;-0.029541917;-0.22931609;;;;;1408.2
1563.0;1481.5;262143;262143;12295;;;;;;;;;;;;;;;;;;
1563.0;1487.5;;;;;;;;;;;;;1249,00;;;;;;;;
1563.0;1487.5;;;;;;;;;;;;;1824,00;;;;;;;;
1563.0;1487.5;;;;;;;;;;;;;1471,00;;;;;;;;
1563.0;1487.5;;;;;;;;;;;;;363,00;;;;;;;;
1563.0;1487.5;;;;;;;;;;;;;-123,00;;;;;;;;
1616.0;1489.0;;;;;;;;;;;;;;;;;-9.151738;12.371441;-1.4839625;;1417.7
1616.0;1489.0;;;;;;;;;;;;;;1.079989;0.013061922;-0.23352763;;;;;1417.7
1616.0;1489.0;;;;;;;;;;;;;;;;;-10.078737;13.061922;-4.413739;;1417.7
1616.0;1489.0;;;;;;;;;;;;;;1.0857265;0.07806635;-0.26606035;;;;;1417.7
1616.0;1489.0;;;;;;;;;;;;;;;;;-14.305552;12.680441;-8.262887;;1427.4
1616.0;1489.0;;;;;;;;;;;;;;1.0899991;0.14758751;-0.3373516;;;;;1427.4
1616.0;1489.0;;;;;;;;;;;;;;;;;-23.113956;18.719292;-12.153996;;1427.4
1616.0;1489.0;;;;;;;;;;;;;;1.1253395;0.15063937;-0.29706717;;;;;1427.4
1616.0;1489.0;;;;;;;;;;;;;;;;;-27.737509;25.902584;-16.884367;;1437.0
1616.0;1489.0;;;;;;;;;;;;;;1.1946776;0.13751641;-0.20648824;;;;;1437.0
1616.0;1489.0;;;;;;;;;;;;;;;;;-23.63277;26.066622;-23.510696;;1437.0
1616.0;1489.0;;;;;;;;;;;;;;1.2911772;0.10382397;-0.23853268;;;;;1437.0
1616.0;1489.5;;;;-0.22096255;1.0983354;-0.038139347;;;;;;;;;;;;;;;
1616.0;1489.5;;;;-0.22187427;1.1106492;-0.037502293;;;;;;;;;;;;;;;
1616.0;1489.5;;;;-0.22834781;1.1183854;-0.03443146;;;;;;;;;;;;;;;
1616.0;1489.5;;;;-0.23987201;1.1258279;-0.02689362;;;;;;;;;;;;;;;
1616.0;1489.5;;;;-0.23083499;1.1356508;-0.043586735;;;;;;;;;;;;;;;
1616.0;1499.5;;;;-0.23322299;1.133896;-0.042659763;;;;;;;;;;;;;;;
1616.0;1499.5;;;;-0.23389438;1.1311799;-0.032917026;;;;;;;;;;;;;;;
1616.0;1499.5;;;;-0.2381058;1.1264116;-0.027114872;;;;;;;;;;;;;;;
1616.0;1499.5;;;;-0.23660281;1.1214792;-0.025501255;;;;;;;;;;;;;;;
1616.0;1499.5;;;;-0.23288348;1.1137925;-0.024753574;;;;;;;;;;;;;;;
1616.0;1501.5;262143;262143;12305;;;;;;;;;;;;;;;;;;
1618.0;1509.5;;;;-0.22857288;1.1048089;-0.021842958;;;;;;;;;;;;;;;
1618.0;1509.5;;;;-0.22686008;1.0961725;-0.018558504;;;;;;;;;;;;;;;
1618.0;1509.5;;;;-0.22573093;1.0879098;-0.014553072;;;;;;;;;;;;;;;
1618.0;1509.5;;;;-0.22519305;1.0798837;-0.010623933;;;;;;;;;;;;;;;
1618.0;1509.5;;;;-0.22607043;1.0726358;-0.006088258;;;;;;;;;;;;;;;
1618.0;1519.4;;;;-0.22874454;1.065529;1.9073489E-4;;;;;;;;;;;;;;;
1618.0;1519.4;;;;-0.23120502;1.0597154;0.005363465;;;;;;;;;;;;;;;
1618.0;1519.4;;;;-0.23398212;1.0541726;0.010498048;;;;;;;;;;;;;;;
1618.0;1519.4;;;;-0.23683932;1.0487977;0.015727999;;;;;;;;;;;;;;;
1618.0;1519.4;;;;-0.24033359;1.0437089;0.020797731;;;;;;;;;;;;;;;
1618.0;1521.5;262143;262143;12300;;;;;;;;;;;;;;;;;;
1618.0;1527.6;;;;;;;;;;;;;446,00;;;;;;;;
1618.0;1527.6;;;;;;;;;;;;;890,00;;;;;;;;
1618.0;1527.6;;;;;;;;;;;;;180,00;;;;;;;;
1618.0;1527.6;;;;;;;;;;;;;-574,00;;;;;;;;
1618.0;1527.6;;;;;;;;;;;;;1,00;;;;;;;;
1618.0;1529.5;;;;-0.243557;1.0377847;0.026344303;;;;;;;;;;;;;;;
1618.0;1529.5;;;;-0.2466164;1.031582;0.031917576;;;;;;;;;;;;;;;
1618.0;1529.5;;;;-0.24965289;1.0239145;0.037456516;;;;;;;;;;;;;;;
1618.0;1529.5;;;;-0.25228885;1.0154306;0.043312076;;;;;;;;;;;;;;;
1618.0;1529.5;;;;-0.25506595;1.0052644;0.049114235;;;;;;;;;;;;;;;
1620.0;1539.7;;;;-0.25701144;0.9946786;0.055522926;;;;;;;;;;;;;;;
1620.0;1539.7;;;;-0.25833896;0.98256695;0.06191636;;;;;;;;;;;;;;;
1620.0;1539.7;;;;-0.26027682;0.9704286;0.06855393;;;;;;;;;;;;;;;
1620.0;1539.7;;;;-0.26165393;0.95762265;0.07518769;;;;;;;;;;;;;;;
1620.0;1539.7;;;;-0.26391986;0.9441377;0.082111366;;;;;;;;;;;;;;;
1620.0;1541.7;;;;;;;;;;;;;;;;;-15.442366;29.160437;-30.941954;;1446.6
1620.0;1541.7;;;;;;;;;;;;;;1.3097934;0.029969176;-0.3185522;;;;;1446.6
1620.0;1541.7;;;;;;;;;;;;;;;;;-8.339183;40.612507;-38.41136;;1446.6
1620.0;1541.7;;;;;;;;;;;;;;1.2427747;0.008789331;-0.24073;;;;;1446.6
1620.0;1541.7;;;;;;;;;;;;;;;;;-0.026703697;49.863426;-44.331947;;1456.2
1620.0;1541.7;;;;;;;;;;;;;;1.2092655;0.022217475;-0.03997925;;;;;1456.2
1620.0;1541.7;;;;;;;;;;;;;;;;;6.55385;53.91858;-50.02365;;1456.2
1620.0;1541.7;;;;;;;;;;;;;;1.2187262;0.05261391;0.15100558;;;;;1456.2
1620.0;1541.7;;;;;;;;;;;;;;;;;10.742516;52.13706;-56.314278;;1465.9
1620.0;1541.7;;;;;;;;;;;;;;1.2302011;0.076662496;0.18488114;;;;;1465.9
1620.0;1541.7;;;;;;;;;;;;;;;;;15.106662;49.287395;-63.573868;;1465.9
1620.0;1541.7;;;;;;;;;;;;;;1.21189;0.09979553;0.046754356;;;;;1465.9
1620.0;1541.7;262143;262143;12295;;;;;;;;;;;;;;;;;;
1622.0;1549.2;;;;;;;;;;;;;;;;;20.210882;50.347908;-71.79861;;1475.6
1622.0;1549.2;;;;;;;;;;;;;;1.1725211;0.116763815;-0.07770012;;;;;1475.6
1622.0;1549.2;;;;;;;;;;;;;;;;;26.402327;51.66402;-80.56505;;1475.6
1622.0;1549.2;;;;;;;;;;;;;;1.1045259;0.14642781;-0.13031404;;;;;1475.6
1622.0;1549.2;;;;;;;;;;;;;;;;;32.99814;52.228615;-89.46882;;1485.2
1622.0;1549.2;;;;;;;;;;;;;;1.0468459;0.18689536;-0.14465773;;;;;1485.2
1622.0;1549.2;;;;;;;;;;;;;;;;;39.40321;55.463573;-98.10175;;1485.2
1622.0;1549.2;;;;;;;;;;;;;;1.0179144;0.2224189;-0.090151675;;;;;1485.2
1622.0;1549.2;;;;;;;;;;;;;;;;;46.73147;60.026093;-106.88727;;1494.9
1622.0;1549.2;;;;;;;;;;;;;;0.98641926;0.23999757;-0.023804437;;;;;1494.9
1622.0;1549.2;;;;;;;;;;;;;;;;;54.540394;66.9538;-114.9823;;1494.9
1622.0;1549.2;;;;;;;;;;;;;;0.92483294;0.20966215;0.07806635;;;;;1494.9
1622.0;1549.5;;;;-0.26645663;0.93066037;0.08789826;;;;;;;;;;;;;;;
1622.0;1549.5;;;;-0.26959231;0.91754544;0.093521126;;;;;;;;;;;;;;;
1622.0;1549.5;;;;-0.27249148;0.90426266;0.09894182;;;;;;;;;;;;;;;
1622.0;1549.5;;;;-0.2756386;0.8910867;0.10321809;;;;;;;;;;;;;;;
1622.0;1549.5;;;;-0.2798157;0.87850964;0.10844423;;;;;;;;;;;;;;;
1622.0;1559.5;;;;-0.28415683;0.8664094;0.11273958;;;;;;;;;;;;;;;
1622.0;1559.5;;;;-0.2885323;0.85447323;0.11658479;;;;;;;;;;;;;;;
1622.0;1559.5;;;;-0.29342654;0.8427621;0.12016679;;;;;;;;;;;;;;;
1622.0;1559.5;;;;-0.2982674;0.83171475;0.124195114;;;;;;;;;;;;;;;
1622.0;1559.5;;;;-0.30276874;0.8209535;0.12773515;;;;;;;;;;;;;;;
1622.0;1561.7;262143;262143;12294;;;;;;;;;;;;;;;;;;
1735.0;1567.6;;;;;;;;;;;;;1293,00;;;;;;;;
1735.0;1567.6;;;;;;;;;;;;;2321,00;;;;;;;;
1735.0;1567.6;;;;;;;;;;;;;2815,00;;;;;;;;
1735.0;1567.6;;;;;;;;;;;;;1626,00;;;;;;;;
1735.0;1567.6;;;;;;;;;;;;;-3745,00;;;;;;;;
1735.0;1569.4;;;;-0.30673984;0.81110394;0.1309662;;;;;;;;;;;;;;;
1735.0;1569.4;;;;-0.310627;0.80212414;0.13409425;;;;;;;;;;;;;;;
1735.0;1569.4;;;;-0.31410602;0.793419;0.1363907;;;;;;;;;;;;;;;
1735.0;1569.4;;;;-0.3174477;0.78580105;0.13761903;;;;;;;;;;;;;;;
1735.0;1569.4;;;;-0.32019427;0.7790109;0.14032747;;;;;;;;;;;;;;;
1735.0;1579.5;;;;-0.3223038;0.7729951;0.14357378;;;;;;;;;;;;;;;
1735.0;1579.5;;;;-0.32431796;0.7684976;0.1457329;;;;;;;;;;;;;;;
1735.0;1579.5;;;;-0.32577518;0.76459897;0.14737703;;;;;;;;;;;;;;;
1735.0;1579.5;;;;-0.32651523;0.7616769;0.14927293;;;;;;;;;;;;;;;
1735.0;1579.5;;;;-0.3264046;0.7593957;0.14999773;;;;;;;;;;;;;;;
1735.0;1581.7;262143;262143;12296;;;;;;;;;;;;;;;;;;
1735.0;1589.6;;;;-0.32624438;0.7583581;0.15129472;;;;;;;;;;;;;;;
1735.0;1589.6;;;;-0.32472613;0.75844204;0.1515732;;;;;;;;;;;;;;;
1735.0;1589.6;;;;-0.3233681;0.75997937;0.15146257;;;;;;;;;;;;;;;
1735.0;1589.6;;;;-0.32201007;0.76204693;0.15134813;;;;;;;;;;;;;;;
1735.0;1589.6;;;;-0.31992725;0.7657968;0.1506157;;;;;;;;;;;;;;;
1737.0;1599.7;;;;-0.3181534;0.7701074;0.15000917;;;;;;;;;;;;;;;
1737.0;1599.7;;;;-0.31626514;0.77544034;0.15015794;;;;;;;;;;;;;;;
1737.0;1599.7;;;;-0.3138695;0.78203595;0.14955522;;;;;;;;;;;;;;;
1737.0;1599.7;;;;-0.311245;0.78995526;0.14859392;;;;;;;;;;;;;;;
1737.0;1599.7;;;;-0.30830386;0.7988702;0.14870836;;;;;;;;;;;;;;;
1737.0;1601.9;;;;;;;;;;;;;;;;;59.30891;67.92275;-121.55522;;1504.6
1737.0;1601.9;;;;;;;;;;;;;;0.90554523;0.14514603;0.13257241;;;;;1504.6
1737.0;1601.9;;;;;;;;;;;;;;;;;60.43046;57.74102;-124.81307;;1504.6
1737.0;1601.9;;;;;;;;;;;;;;1.0287789;0.050355542;0.090701014;;;;;1504.6
1737.0;1601.9;;;;;;;;;;;;;;;;;57.992798;52.48802;-124.988556;;1514.2
1737.0;1601.9;;;;;;;;;;;;;;1.0762658;-0.026551103;-0.006775109;;;;;1514.2
1737.0;1601.9;;;;;;;;;;;;;;;;;53.243355;56.6805;-124.988556;;1514.2
1737.0;1601.9;;;;;;;;;;;;;;1.0458083;-0.079897456;0.018250069;;;;;1514.2
1737.0;1601.9;;;;;;;;;;;;;;;;;47.185432;54.223763;-124.988556;;1523.8
1737.0;1601.9;;;;;;;;;;;;;;1.0554521;-0.12671286;0.0025635548;;;;;1523.8
1737.0;1601.9;;;;;;;;;;;;;;;;;41.49373;50.22202;-124.988556;;1523.8
1737.0;1601.9;;;;;;;;;;;;;;1.0545976;-0.1744438;-0.03625599;;;;;1523.8
1737.0;1601.9;262143;262143;12291;;;;;;;;;;;;;;;;;;
1737.0;1607.9;;;;;;;;;;;;;-12102,00;;;;;;;;
1737.0;1607.9;;;;;;;;;;;;;-16501,00;;;;;;;;
1737.0;1607.9;;;;;;;;;;;;;-11856,00;;;;;;;;
1737.0;1607.9;;;;;;;;;;;;;-1394,00;;;;;;;;
1737.0;1607.9;;;;;;;;;;;;;6514,00;;;;;;;;
1740.0;1609.8;;;;;;;;;;;;;;;;;35.874508;45.239876;-124.988556;;1533.5
1740.0;1609.8;;;;;;;;;;;;;;1.063448;-0.21240883;-0.0954619;;;;;1533.5
1740.0;1609.8;;;;;;;;;;;;;;;;;31.754509;39.838097;-124.988556;;1533.5
1740.0;1609.8;;;;;;;;;;;;;;1.0518509;-0.24219489;-0.164861;;;;;1533.5
1740.0;1609.8;;;;;;;;;;;;;;;;;32.052067;30.327768;-124.988556;;1543.1
1740.0;1609.8;;;;;;;;;;;;;;1.0389721;-0.2779626;-0.25043488;;;;;1543.1
1740.0;1609.8;;;;;;;;;;;;;;;;;37.217323;13.382367;-124.988556;;1543.1
1740.0;1609.8;;;;;;;;;;;;;;1.0998871;-0.29798272;-0.35627308;;;;;1543.1
1740.0;1609.8;;;;;;;;;;;;;;;;;45.091095;-7.702109;-124.988556;;1552.7
1740.0;1609.8;;;;;;;;;;;;;;1.198706;-0.3500473;-0.48609883;;;;;1552.7
1740.0;1609.8;;;;;;;;;;;;;;;;;51.103245;-26.070436;-124.988556;;1552.7
1740.0;1609.8;;;;;;;;;;;;;;1.3212683;-0.4297006;-0.58821374;;;;;1552.7
1740.0;1609.6;;;;-0.3049431;0.8083154;0.1481743;;;;;;;;;;;;;;;
1740.0;1609.6;;;;-0.3017235;0.818493;0.14813615;;;;;;;;;;;;;;;
1740.0;1609.6;;;;-0.2989464;0.8286172;0.14732362;;;;;;;;;;;;;;;
1740.0;1609.6;;;;-0.29553226;0.83906186;0.14633943;;;;;;;;;;;;;;;
1740.0;1609.6;;;;-0.2920952;0.8495599;0.144722;;;;;;;;;;;;;;;
1740.0;1619.5;;;;-0.28821948;0.861004;0.14332964;;;;;;;;;;;;;;;
1740.0;1619.5;;;;-0.28569034;0.8719064;0.14213945;;;;;;;;;;;;;;;
1740.0;1619.5;;;;-0.2830315;0.8825227;0.14064027;;;;;;;;;;;;;;;
1740.0;1619.5;;;;-0.28089908;0.89318097;0.13848116;;;;;;;;;;;;;;;
1740.0;1619.5;;;;-0.27888492;0.90327084;0.13650133;;;;;;;;;;;;;;;
1740.0;1621.9;262143;262143;12295;;;;;;;;;;;;;;;;;;
1741.0;1629.5;;;;-0.2774811;0.9133836;0.13260652;;;;;;;;;;;;;;;
1741.0;1629.5;;;;-0.2753258;0.9232484;0.129303;;;;;;;;;;;;;;;
1741.0;1629.5;;;;-0.2736893;0.9331323;0.12602617;;;;;;;;;;;;;;;
1741.0;1629.5;;;;-0.27167132;0.9435693;0.1226082;;;;;;;;;;;;;;;
1741.0;1629.5;;;;-0.26929858;0.95412457;0.119518295;;;;;;;;;;;;;;;
1741.0;1639.6;;;;-0.26724246;0.96467984;0.11568834;;;;;;;;;;;;;;;
1741.0;1639.6;;;;-0.26513293;0.97527707;0.112762466;;;;;;;;;;;;;;;
1741.0;1639.6;;;;-0.26256946;0.98544323;0.108173385;;;;;;;;;;;;;;;
1741.0;1639.6;;;;-0.2600861;0.99585354;0.10390474;;;;;;;;;;;;;;;
1741.0;1639.6;;;;-0.25782397;1.0065042;0.09985353;;;;;;;;;;;;;;;
1741.0;1642.0;262143;262143;12298;;;;;;;;;;;;;;;;;;
1741.0;1648.0;;;;;;;;;;;;;7443,00;;;;;;;;
1741.0;1648.0;;;;;;;;;;;;;4189,00;;;;;;;;
1741.0;1648.0;;;;;;;;;;;;;1371,00;;;;;;;;
1741.0;1648.0;;;;;;;;;;;;;430,00;;;;;;;;
1741.0;1648.0;;;;;;;;;;;;;144,00;;;;;;;;
1741.0;1649.7;;;;-0.25547412;1.0160981;0.09524156;;;;;;;;;;;;;;;
1741.0;1649.7;;;;-0.25347903;1.0256616;0.09156037;;;;;;;;;;;;;;;
1741.0;1649.7;;;;-0.2516785;1.0346795;0.08773423;;;;;;;;;;;;;;;
1741.0;1649.7;;;;-0.2503319;1.0430261;0.08424378;;;;;;;;;;;;;;;
1741.0;1649.7;;;;-0.24925616;1.050007;0.081378944;;;;;;;;;;;;;;;
1742.0;1659.9;;;;-0.2477074;1.055729;0.07818986;;;;;;;;;;;;;;;
1742.0;1659.9;;;;-0.2462273;1.0599023;0.075695045;;;;;;;;;;;;;;;
1742.0;1659.9;;;;-0.24490741;1.0633699;0.073314674;;;;;;;;;;;;;;;
1742.0;1659.9;;;;-0.24399951;1.0647165;0.07100297;;;;;;;;;;;;;;;
1742.0;1659.9;;;;-0.24310687;1.064747;0.06918336;;;;;;;;;;;;;;;
1742.0;1662.2;;;;;;;;;;;;;;;;;54.399246;-40.265358;-123.80978;;1562.3
1742.0;1662.2;;;;;;;;;;;;;;1.4441969;-0.535905;-0.6374706;;;;;1562.3
1742.0;1662.2;;;;;;;;;;;;;;;;;57.611317;-50.58824;-114.67712;;1562.3
1742.0;1662.2;;;;;;;;;;;;;;1.6266975;-0.6257515;-0.6637776;;;;;1562.3
1742.0;1662.2;;;;;;;;;;;;;;;;;59.52254;-47.93695;-100.95523;;1571.9
1742.0;1662.2;;;;;;;;;;;;;;1.8129215;-0.71626943;-0.61507004;;;;;1571.9
1742.0;1662.2;;;;;;;;;;;;;;;;;50.58824;-25.330362;-88.69441;;1571.9
1742.0;1662.2;;;;;;;;;;;;;;1.9163183;-0.7817011;-0.49604785;;;;;1571.9
1742.0;1662.2;;;;;;;;;;;;;;;;;38.533436;12.581255;-86.5009;;1581.6
1742.0;1662.2;;;;;;;;;;;;;;1.7470015;-0.8861965;-0.26734215;;;;;1581.6
1742.0;1662.2;;;;;;;;;;;;;;;;;32.37251;43.67199;-100.68437;;1581.6
1742.0;1662.2;;;;;;;;;;;;;;1.5233009;-0.8366344;0.0336314;;;;;1581.6
1742.0;1662.2;262143;262143;12292;;;;;;;;;;;;;;;;;;
1743.0;1669.6;;;;;;;;;;;;;;;;;34.939877;49.893948;-116.451004;;1591.3
1743.0;1669.6;;;;;;;;;;;;;;1.4202704;-0.5825983;0.14746544;;;;;1591.3
1743.0;1669.6;;;;;;;;;;;;;;;;;43.82458;44.23658;-121.94433;;1591.3
1743.0;1669.6;;;;;;;;;;;;;;1.329081;-0.4570452;0.0806299;;;;;1591.3
1743.0;1669.6;;;;;;;;;;;;;;;;;52.869503;39.311653;-124.546036;;1601.0
1743.0;1669.6;;;;;;;;;;;;;;1.2542497;-0.35517442;-0.0053712577;;;;;1601.0
1743.0;1669.6;;;;;;;;;;;;;;;;;60.010834;35.260323;-124.988556;;1601.0
1743.0;1669.6;;;;;;;;;;;;;;1.1637928;-0.27790156;-0.043336283;;;;;1601.0
1743.0;1669.6;;;;;;;;;;;;;;;;;62.818535;27.12714;-124.988556;;1610.6
1743.0;1669.6;;;;;;;;;;;;;;1.0972015;-0.25568408;-0.07965331;;;;;1610.6
1743.0;1669.6;;;;;;;;;;;;;;;;;62.932983;18.581957;-124.988556;;1610.6
1743.0;1669.6;;;;;;;;;;;;;;1.0497757;-0.21503341;-0.11456648;;;;;1610.6
1743.0;1669.7;;;;-0.24186328;1.062935;0.068214424;;;;;;;;;;;;;;;
1743.0;1669.7;;;;-0.24098209;1.0602342;0.06799317;;;;;;;;;;;;;;;
1743.0;1669.7;;;;-0.24017718;1.0557672;0.06824113;;;;;;;;;;;;;;;
1743.0;1669.7;;;;-0.23971942;1.0493661;0.06873704;;;;;;;;;;;;;;;
1743.0;1669.7;;;;-0.23916247;1.0426751;0.069847114;;;;;;;;;;;;;;;
1743.0;1679.7;;;;-0.23841861;1.0348283;0.07164384;;;;;;;;;;;;;;;
1743.0;1679.7;;;;-0.2378197;1.0263177;0.073810585;;;;;;;;;;;;;;;
1743.0;1679.7;;;;-0.23606113;1.0170747;0.07712556;;;;;;;;;;;;;;;
1743.0;1679.7;;;;-0.23396304;1.0078775;0.08184052;;;;;;;;;;;;;;;
1743.0;1679.7;;;;-0.23191455;0.9979516;0.08675385;;;;;;;;;;;;;;;
1743.0;1682.2;262143;262143;12295;;;;;;;;;;;;;;;;;;
1796.0;1688.2;;;;;;;;;;;;;-231,00;;;;;;;;
1796.0;1688.2;;;;;;;;;;;;;-505,00;;;;;;;;
1796.0;1688.2;;;;;;;;;;;;;-538,00;;;;;;;;
1796.0;1688.2;;;;;;;;;;;;;-341,00;;;;;;;;
1796.0;1688.2;;;;;;;;;;;;;-538,00;;;;;;;;
1796.0;1689.7;;;;-0.23030856;0.98841107;0.09231187;;;;;;;;;;;;;;;
1796.0;1689.7;;;;-0.2279549;0.97838223;0.09851839;;;;;;;;;;;;;;;
1796.0;1689.7;;;;-0.22605518;0.9691125;0.10498811;;;;;;;;;;;;;;;
1796.0;1689.7;;;;-0.22346881;0.9595567;0.1122513;;;;;;;;;;;;;;;
1796.0;1689.7;;;;-0.22078326;0.95039;0.11944963;;;;;;;;;;;;;;;
1796.0;1699.5;;;;-0.21864703;0.9409944;0.12636186;;;;;;;;;;;;;;;
1796.0;1699.5;;;;-0.21603778;0.93198025;0.13411333;;;;;;;;;;;;;;;
1796.0;1699.5;;;;-0.21356586;0.9227754;0.14260103;;;;;;;;;;;;;;;
1796.0;1699.5;;;;-0.2117615;0.9143716;0.15038683;;;;;;;;;;;;;;;
1796.0;1699.5;;;;-0.21027759;0.90540326;0.15859605;;;;;;;;;;;;;;;
1796.0;1702.1;262143;262143;12291;;;;;;;;;;;;;;;;;;
1796.0;1709.6;;;;-0.20878986;0.89660275;0.16680147;;;;;;;;;;;;;;;
1796.0;1709.6;;;;-0.20660403;0.88795865;0.17511751;;;;;;;;;;;;;;;
1796.0;1709.6;;;;-0.20572665;0.879181;0.18321992;;;;;;;;;;;;;;;
1796.0;1709.6;;;;-0.20609286;0.8700181;0.19033054;;;;;;;;;;;;;;;
1796.0;1709.6;;;;-0.20660022;0.86063397;0.19814685;;;;;;;;;;;;;;;
1799.0;1719.7;;;;-0.20754245;0.8514062;0.20541003;;;;;;;;;;;;;;;
1799.0;1719.7;;;;-0.20935443;0.8416482;0.21286014;;;;;;;;;;;;;;;
1799.0;1719.7;;;;-0.21247867;0.8325006;0.21956256;;;;;;;;;;;;;;;
1799.0;1719.7;;;;-0.2161713;0.82325375;0.22513583;;;;;;;;;;;;;;;
1799.0;1719.7;;;;-0.21994784;0.8144914;0.23025516;;;;;;;;;;;;;;;
1799.0;1722.3;;;;;;;;;;;;;;;;;59.72091;15.114291;-124.988556;;1620.2
1799.0;1722.3;;;;;;;;;;;;;;1.0376294;-0.14801477;-0.11792352;;;;;1620.2
1799.0;1722.3;;;;;;;;;;;;;;;;;51.477097;16.163366;-124.75204;;1620.2
1799.0;1722.3;;;;;;;;;;;;;;1.0044252;-0.13977477;-0.123783074;;;;;1620.2
1799.0;1722.3;;;;;;;;;;;;;;;;;42.237617;19.318218;-122.77596;;1629.8
1799.0;1722.3;;;;;;;;;;;;;;0.992645;-0.17639698;-0.13293862;;;;;1629.8
1799.0;1722.3;;;;;;;;;;;;;;;;;35.363323;21.10355;-120.38026;;1629.8
1799.0;1722.3;;;;;;;;;;;;;;0.9407636;-0.2757042;-0.1861629;;;;;1629.8
1799.0;1722.3;;;;;;;;;;;;;;;;;32.0864;22.62566;-119.407486;;1639.4
1799.0;1722.3;;;;;;;;;;;;;;0.8587909;-0.2933439;-0.19678335;;;;;1639.4
1799.0;1722.3;;;;;;;;;;;;;;;;;28.656881;18.53618;-116.67989;;1639.4
1799.0;1722.3;;;;;;;;;;;;;;0.834315;-0.30347607;-0.22193061;;;;;1639.4
1799.0;1722.3;262143;262143;12287;;;;;;;;;;;;;;;;;;
1800.0;1723.4;;;;;;;;;;;;;;;;;25.509659;15.480514;-113.52504;;1649.1
1800.0;1723.4;;;;;;;;;;;;;;0.7611927;-0.2874233;-0.27478865;;;;;1649.1
1800.0;1723.4;;;;;;;;;;;;;;;;;20.981476;16.29307;-109.962;;1649.1
1800.0;1723.4;;;;;;;;;;;;;;0.7228004;-0.24256112;-0.23786126;;;;;1649.1
1800.0;1723.4;;;;;;;;;;;;;;;;;17.07892;15.9878845;-104.71282;;1658.7
1800.0;1723.4;;;;;;;;;;;;;;0.7325663;-0.2573321;-0.2146672;;;;;1658.7
1800.0;1723.4;;;;;;;;;;;;;;;;;15.392773;19.177069;-99.80697;;1658.7
1800.0;1723.4;;;;;;;;;;;;;;0.6795862;-0.29151282;-0.17572558;;;;;1658.7
1800.0;1723.4;;;;;;;;;;;;;;;;;15.205847;20.359661;-94.73708;;1668.4
1800.0;1723.4;;;;;;;;;;;;;;0.63417464;-0.20239876;-0.083803825;;;;;1668.4
1800.0;1723.4;;;;;;;;;;;;;;;;;15.095218;16.926329;-87.61483;;1668.4
1800.0;1723.4;;;;;;;;;;;;;;0.58424634;-0.20203254;-0.058717612;;;;;1668.4
1800.0;1728.2;;;;;;;;;;;;;-1413,00;;;;;;;;
1800.0;1728.2;;;;;;;;;;;;;-2114,00;;;;;;;;
1800.0;1728.2;;;;;;;;;;;;;-2001,00;;;;;;;;
1800.0;1728.2;;;;;;;;;;;;;-1624,00;;;;;;;;
1800.0;1728.2;;;;;;;;;;;;;-1922,00;;;;;;;;
1800.0;1729.7;;;;-0.22428516;0.8053056;0.23490146;;;;;;;;;;;;;;;
1800.0;1729.7;;;;-0.22879413;0.79628766;0.23980716;;;;;;;;;;;;;;;
1800.0;1729.7;;;;-0.23349383;0.78769314;0.24351886;;;;;;;;;;;;;;;
1800.0;1729.7;;;;-0.23796466;0.7791902;0.2467232;;;;;;;;;;;;;;;
1800.0;1729.7;;;;-0.24197772;0.77069104;0.2505341;;;;;;;;;;;;;;;
1800.0;1737.4;;;;;;;;;;0.7095553;18.089846;0.76296276;;;;;;;;;
1800.0;1737.4;;;;;;;0.3178808;-0.9625538;0.17633595;;;;;;;;;;;;
1800.0;1737.4;;;;;;;;;;3.810999;31.449326;8.629108;;;;;;;;;
1800.0;1737.4;;;;;;;0.3526719;-1.0955534;0.19946899;;;;;;;;;;;;
1854.0;1739.7;;;;-0.24582294;0.7620317;0.25310138;;;;;;;;;;;;;;;
1854.0;1739.7;;;;-0.24985889;0.7537576;0.2554131;;;;;;;;;;;;;;;
1854.0;1739.7;;;;-0.25258258;0.74602896;0.25728992;;;;;;;;;;;;;;;
1854.0;1739.7;;;;-0.25527194;0.73815924;0.25882724;;;;;;;;;;;;;;;
1854.0;1739.7;;;;-0.25753406;0.7305184;0.2593918;;;;;;;;;;;;;;;
1854.0;1742.3;262143;262143;12281;;;;;;;;;;;;;;;;;;
1854.0;1747.0;;;;;;;;;;2.4414806;9.170813;3.4218879;;;;;;;;;
1854.0;1747.0;;;;;;;0.34571368;-1.116123;0.20068972;;;;;;;;;;;;
1854.0;1747.0;;;;;;;;;;9.128849;31.62862;0.5340739;;;;;;;;;
1854.0;1747.0;;;;;;;0.33411664;-1.1376079;0.19965209;;;;;;;;;;;;
1854.0;1749.7;;;;-0.25896075;0.7227593;0.2604523;;;;;;;;;;;;;;;
1854.0;1749.7;;;;-0.2608643;0.71498877;0.26095203;;;;;;;;;;;;;;;
1854.0;1749.7;;;;-0.26264957;0.70824057;0.26165774;;;;;;;;;;;;;;;
1854.0;1749.7;;;;-0.26534656;0.7014809;0.26191714;;;;;;;;;;;;;;;
1854.0;1749.7;;;;-0.2676697;0.6955872;0.26183322;;;;;;;;;;;;;;;
1854.0;1756.5;;;;;;;;;;12.3638115;44.90417;-4.5854063;;;;;;;;;
1854.0;1756.5;;;;;;;0.3217261;-1.1601306;0.1993469;;;;;;;;;;;;
1854.0;1756.5;;;;;;;;;;10.612812;21.336254;-29.835659;;;;;;;;;
1854.0;1756.5;;;;;;;0.30927458;-1.1789911;0.19598986;;;;;;;;;;;;
1856.0;1759.7;;;;-0.26877597;0.6888276;0.26101688;;;;;;;;;;;;;;;
1856.0;1759.7;;;;-0.270649;0.68261343;0.25981906;;;;;;;;;;;;;;;
1856.0;1759.7;;;;-0.27102283;0.6764832;0.25836566;;;;;;;;;;;;;;;
1856.0;1759.7;;;;-0.27227023;0.6697503;0.2568474;;;;;;;;;;;;;;;
1856.0;1759.7;;;;-0.27284625;0.6640511;0.25377658;;;;;;;;;;;;;;;
1856.0;1762.4;262143;262143;12276;;;;;;;;;;;;;;;;;;
1856.0;1766.1;;;;;;;;;;14.229255;32.277138;-34.424877;;;;;;;;;
1856.0;1766.1;;;;;;;0.29822686;-1.1945555;0.19635609;;;;;;;;;;;;
1856.0;1766.1;;;;;;;;;;18.139439;42.668694;-38.132877;;;;;;;;;
1856.0;1766.1;;;;;;;0.28418836;-1.2034059;0.1947081;;;;;;;;;;;;
1856.0;1768.4;;;;;;;;;;;;;-2991,00;;;;;;;;
1856.0;1768.4;;;;;;;;;;;;;-3927,00;;;;;;;;
1856.0;1768.4;;;;;;;;;;;;;-4351,00;;;;;;;;
1856.0;1768.4;;;;;;;;;;;;;-4815,00;;;;;;;;
1856.0;1768.4;;;;;;;;;;;;;-5393,00;;;;;;;;
1856.0;1769.8;;;;-0.2729912;0.6583558;0.25065997;;;;;;;;;;;;;;;
1856.0;1769.8;;;;-0.27281955;0.6530114;0.24745563;;;;;;;;;;;;;;;
1856.0;1769.8;;;;-0.27251437;0.64727026;0.24358752;;;;;;;;;;;;;;;
1856.0;1769.8;;;;-0.27414706;0.6410256;0.24025348;;;;;;;;;;;;;;;
1856.0;1769.8;;;;-0.27595142;0.6363488;0.2361069;;;;;;;;;;;;;;;
1856.0;1775.7;;;;;;;;;;21.462143;57.96228;-34.794914;;;;;;;;;
1856.0;1775.7;;;;;;;0.2674032;-1.2040162;0.19251075;;;;;;;;;;;;
1856.0;1775.7;;;;;;;;;;22.949919;66.740166;-27.676472;;;;;;;;;
1856.0;1775.7;;;;;;;0.25006866;-1.202002;0.1909238;;;;;;;;;;;;
1857.0;1780.0;;;;-0.27754214;0.6315461;0.23218921;;;;;;;;;;;;;;;
1857.0;1780.0;;;;-0.2797356;0.6278458;0.22838596;;;;;;;;;;;;;;;
1857.0;1780.0;;;;-0.2817078;0.6237679;0.22352603;;;;;;;;;;;;;;;
1857.0;1780.0;;;;-0.2845154;0.62063223;0.21854785;;;;;;;;;;;;;;;
1857.0;1780.0;;;;-0.28611758;0.6187058;0.21366885;;;;;;;;;;;;;;;
1857.0;1782.4;;;;;;;;;;;;;;;;;16.72033;11.558886;-79.51216;;1678.1
1857.0;1782.4;;;;;;;;;;;;;;0.6517533;-0.25067905;-0.10138249;;;;;1678.1
1857.0;1782.4;;;;;;;;;;;;;;;;;20.69155;11.242255;-72.82479;;1678.1
1857.0;1782.4;;;;;;;;;;;;;;0.5989563;-0.23621327;-0.120975375;;;;;1678.1
1857.0;1782.4;;;;;;;;;;;;;;;;;23.747215;9.800256;-67.54128;;1687.6
1857.0;1782.4;;;;;;;;;;;;;;0.527665;-0.18378246;-0.060060427;;;;;1687.6
1857.0;1782.4;;;;;;;;;;;;;;;;;23.071993;1.6365551;-61.143833;;1687.6
1857.0;1782.4;;;;;;;;;;;;;;0.5345012;-0.16547136;-0.05713065;;;;;1687.6
1857.0;1782.4;;;;;;;;;;;;;;;;;19.871365;-1.9760735;-55.009613;;1697.2
1857.0;1782.4;;;;;;;;;;;;;;0.54792935;-0.15570544;-0.040467545;;;;;1697.2
1857.0;1782.4;;;;;;;;;;;;;;;;;16.365551;-3.4066288;-49.504837;;1697.2
1857.0;1782.4;;;;;;;;;;;;;;0.5542772;-0.14978485;-0.018372143;;;;;1697.2
1858.0;1783.3;;;;;;;;;;;;;;;;;12.016664;-3.6011841;-44.86984;;1706.9
1858.0;1783.3;;;;;;;;;;;;;;0.5489059;-0.14154485;0.023499252;;;;;1706.9
1858.0;1783.3;;;;;;;;;;;;;;;;;9.12122;-5.165258;-40.547653;;1706.9
1858.0;1783.3;;;;;;;;;;;;;;0.5612964;-0.12024293;0.022034364;;;;;1706.9
1858.0;1783.3;;;;;;;;;;;;;;;;;7.2634053;-5.0050354;-36.51158;;1716.5
1858.0;1783.3;;;;;;;;;;;;;;0.58064514;-0.07849361;0.020569475;;;;;1716.5
1858.0;1783.3;;;;;;;;;;;;;;;;;3.7499619;-1.7090366;-32.139805;;1716.5
1858.0;1783.3;;;;;;;;;;;;;;0.59401226;-0.038026065;0.049256876;;;;;1716.5
1858.0;1783.3;;;;;;;;;;;;;;;;;-3.933073;3.2273324;-28.057955;;1726.2
1858.0;1783.3;;;;;;;;;;;;;;0.6025575;0.013122959;0.09454634;;;;;1726.2
1858.0;1783.3;;;;;;;;;;;;;;;;;-16.117588;7.2405167;-24.483475;;1726.2
1858.0;1783.3;;;;;;;;;;;;;;0.6097598;0.083010346;0.14197211;;;;;1726.2
1858.0;1782.6;262143;262143;12284;;;;;;;;;;;;;;;;;;
1858.0;1785.1;;;;;;;;;;24.395735;64.87854;-26.436659;;;;;;;;;
1858.0;1785.1;;;;;;;0.23981445;-1.1922971;0.18683432;;;;;;;;;;;;
1858.0;1785.1;;;;;;;;;;25.952177;62.246315;-25.58977;;;;;;;;;
1858.0;1785.1;;;;;;;0.2283395;-1.1775261;0.18085268;;;;;;;;;;;;
1858.0;1789.7;;;;-0.28778842;0.616375;0.20873645;;;;;;;;;;;;;;;
1858.0;1789.7;;;;-0.28886035;0.6151467;0.20412448;;;;;;;;;;;;;;;
1858.0;1789.7;;;;-0.2893944;0.6147652;0.19898608;;;;;;;;;;;;;;;
1858.0;1789.7;;;;-0.29056552;0.614914;0.19412616;;;;;;;;;;;;;;;
1858.0;1789.7;;;;-0.29093173;0.61713797;0.1901398;;;;;;;;;;;;;;;
1914.0;1794.6;;;;;;;;;;27.520065;59.018982;-24.987028;;;;;;;;;
1914.0;1794.6;;;;;;;0.21973327;-1.158971;0.17560351;;;;;;;;;;;;
1914.0;1794.6;;;;;;;;;;28.954435;55.36439;-24.761955;;;;;;;;;
1914.0;1794.6;;;;;;;0.21460617;-1.1406598;0.16919462;;;;;;;;;;;;
1914.0;1799.7;;;;-0.28989413;0.6171456;0.18791202;;;;;;;;;;;;;;;
1914.0;1799.7;;;;-0.28927615;0.6185532;0.18673708;;;;;;;;;;;;;;;
1914.0;1799.7;;;;-0.29034427;0.62118155;0.1849022;;;;;;;;;;;;;;;
1914.0;1799.7;;;;-0.29148105;0.62406164;0.18380739;;;;;;;;;;;;;;;
1914.0;1799.7;;;;-0.29286578;0.62761694;0.18551637;;;;;;;;;;;;;;;
1914.0;1802.5;262143;262143;12293;;;;;;;;;;;;;;;;;;
1914.0;1804.1;;;;;;;;;;30.465101;51.25202;-24.781029;;;;;;;;;
1914.0;1804.1;;;;;;;0.20929594;-1.1197852;0.16162603;;;;;;;;;;;;
1914.0;1804.1;;;;;;;;;;31.838436;46.8688;-25.17777;;;;;;;;;
1914.0;1804.1;;;;;;;0.20227668;-1.0972625;0.15405744;;;;;;;;;;;;
1914.0;1808.3;;;;;;;;;;;;;-5417,00;;;;;;;;
1914.0;1808.3;;;;;;;;;;;;;-4836,00;;;;;;;;
1914.0;1808.3;;;;;;;;;;;;;-4728,00;;;;;;;;
1914.0;1808.3;;;;;;;;;;;;;-5474,00;;;;;;;;
1914.0;1808.3;;;;;;;;;;;;;-5357,00;;;;;;;;
1914.0;1809.5;;;;-0.29448703;0.6312447;0.18677522;;;;;;;;;;;;;;;
1914.0;1809.5;;;;-0.29554752;0.6352845;0.18980792;;;;;;;;;;;;;;;
1914.0;1809.5;;;;-0.29644015;0.63886267;0.1932526;;;;;;;;;;;;;;;
1914.0;1809.5;;;;-0.29729083;0.643055;0.19625857;;;;;;;;;;;;;;;
1914.0;1809.5;;;;-0.29806903;0.6478272;0.19978335;;;;;;;;;;;;;;;
1916.0;1813.2;;;;;;;;;;33.055363;42.123173;-25.643177;;;;;;;;;
1916.0;1813.2;;;;;;;0.19483016;-1.076693;0.14307077;;;;;;;;;;;;
1916.0;1813.2;;;;;;;;;;34.16547;36.9274;-26.146732;;;;;;;;;
1916.0;1813.2;;;;;;;0.18762779;-1.0532548;0.13293862;;;;;;;;;;;;
1916.0;1819.3;;;;-0.29789737;0.65299994;0.20457461;;;;;;;;;;;;;;;
1916.0;1819.3;;;;-0.29828647;0.65806204;0.20870975;;;;;;;;;;;;;;;
1916.0;1819.3;;;;-0.2989922;0.66265494;0.21344379;;;;;;;;;;;;;;;
1916.0;1819.3;;;;-0.30052188;0.66737753;0.21791843;;;;;;;;;;;;;;;
1916.0;1819.3;;;;-0.3029671;0.6724358;0.22209933;;;;;;;;;;;;;;;
1916.0;1822.2;262143;262143;12296;;;;;;;;;;;;;;;;;;
1916.0;1822.8;;;;;;;;;;35.191654;31.674397;-26.894438;;;;;;;;;
1916.0;1822.8;;;;;;;0.18543047;-1.0268868;0.12213507;;;;;;;;;;;;
1916.0;1822.8;;;;;;;;;;36.023285;26.486252;-27.958769;;;;;;;;;
1916.0;1822.8;;;;;;;0.18469802;-1.0061953;0.11358989;;;;;;;;;;;;
1916.0;1829.5;;;;-0.30555347;0.67726904;0.22665408;;;;;;;;;;;;;;;
1916.0;1829.5;;;;-0.30777362;0.68204504;0.2310448;;;;;;;;;;;;;;;
1916.0;1829.5;;;;-0.3104134;0.6870385;0.23575976;;;;;;;;;;;;;;;
1916.0;1829.5;;;;-0.31291583;0.69180304;0.24110797;;;;;;;;;;;;;;;
1916.0;1829.5;;;;-0.315136;0.696415;0.2472153;;;;;;;;;;;;;;;
1916.0;1832.4;;;;;;;;;;36.68325;21.305735;-29.221474;;;;;;;;;
1916.0;1832.4;;;;;;;0.18402661;-0.9816584;0.10742515;;;;;;;;;;;;
1916.0;1832.4;;;;;;;;;;37.171547;16.369366;-30.560472;;;;;;;;;
1916.0;1832.4;;;;;;;0.17993714;-0.96102786;0.10144353;;;;;;;;;;;;
1932.0;1839.6;;;;-0.31717685;0.70094687;0.2528229;;;;;;;;;;;;;;;
1932.0;1839.6;;;;-0.31859592;0.7052155;0.2593918;;;;;;;;;;;;;;;
1932.0;1839.6;;;;-0.31930164;0.70909506;0.26514438;;;;;;;;;;;;;;;
1932.0;1839.6;;;;-0.3196297;0.7132645;0.27180102;;;;;;;;;;;;;;;
1932.0;1839.6;;;;-0.31925204;0.7169114;0.27817157;;;;;;;;;;;;;;;
1932.0;1842.0;;;;;;;;;;37.518692;11.68096;-31.998657;;;;;;;;;
1932.0;1842.0;;;;;;;0.18225653;-0.9412519;0.095156714;;;;;;;;;;;;
1932.0;1842.0;;;;;;;;;;37.64458;7.5571456;-33.394882;;;;;;;;;
1932.0;1842.0;;;;;;;0.18305002;-0.920072;0.092593156;;;;;;;;;;;;
1932.0;1842.4;;;;;;;;;;;;;;;;;-30.198065;8.674886;-20.325327;;1735.8
1932.0;1842.4;;;;;;;;;;;;;;0.6036561;0.119876705;0.17413862;;;;;1735.8
1932.0;1842.4;;;;;;;;;;;;;;;;;-43.57662;6.44322;-15.381329;;1735.8
1932.0;1842.4;;;;;;;;;;;;;;0.6010926;0.13788262;0.16248055;;;;;1735.8
1932.0;1842.4;;;;;;;;;;;;;;;;;-54.227577;3.1586657;-10.235145;;1745.5
1932.0;1842.4;;;;;;;;;;;;;;0.5857723;0.11407819;0.12286752;;;;;1745.5
1932.0;1842.4;;;;;;;;;;;;;;;;;-61.83813;2.0332959;-5.3750725;;1745.5
1932.0;1842.4;;;;;;;;;;;;;;0.5386517;0.06848354;0.063417464;;;;;1745.5
1932.0;1842.4;;;;;;;;;;;;;;;;;-64.62295;3.4867396;-0.39674062;;1755.2
1932.0;1842.4;;;;;;;;;;;;;;0.50001526;0.022156438;-6.714072E-4;;;;;1755.2
1932.0;1842.4;;;;;;;;;;;;;;;;;-60.00702;4.4938507;4.589221;;1755.2
1932.0;1842.4;;;;;;;;;;;;;;0.44227424;0.0053102206;-0.07470931;;;;;1755.2
1934.0;1843.1;;;;;;;;;;;;;;;;;-51.152836;1.1139256;9.12122;;1764.7
1934.0;1843.1;;;;;;;;;;;;;;0.36579487;0.011535997;-0.14105655;;;;;1764.7
1934.0;1843.1;;;;;;;;;;;;;;;;;-42.916656;-8.121738;13.5883665;;1764.7
1934.0;1843.1;;;;;;;;;;;;;;0.30457473;0.003906369;-0.24475844;;;;;1764.7
1934.0;1843.1;;;;;;;;;;;;;;;;;-35.34425;-19.203773;17.70455;;1774.4
1934.0;1843.1;;;;;;;;;;;;;;0.28412732;-0.017578661;-0.36121708;;;;;1774.4
1934.0;1843.1;;;;;;;;;;;;;;;;;-27.691732;-25.055696;21.153143;;1774.4
1934.0;1843.1;;;;;;;;;;;;;;0.27729118;-0.025818659;-0.39179662;;;;;1774.4
1934.0;1843.1;;;;;;;;;;;;;;;;;-20.290993;-24.098179;24.216438;;1784.1
1934.0;1843.1;;;;;;;;;;;;;;0.23993652;-0.09173864;-0.33545947;;;;;1784.1
1934.0;1843.1;;;;;;;;;;;;;;;;;-14.385662;-23.033844;27.06992;;1784.1
1934.0;1843.1;;;;;;;;;;;;;;0.19483016;-0.14416943;-0.2883999;;;;;1784.1
1934.0;1842.4;262143;262143;12294;;;;;;;;;;;;;;;;;;
1934.0;1848.3;;;;;;;;;;;;;-2984,00;;;;;;;;
1934.0;1848.3;;;;;;;;;;;;;155,00;;;;;;;;
1934.0;1848.3;;;;;;;;;;;;;1512,00;;;;;;;;
1934.0;1848.3;;;;;;;;;;;;;774,00;;;;;;;;
1934.0;1848.3;;;;;;;;;;;;;-74,00;;;;;;;;
1934.0;1849.5;;;;-0.31883624;0.72064596;0.2840462;;;;;;;;;;;;;;;
1934.0;1849.5;;;;-0.31806186;0.7233582;0.29038242;;;;;;;;;;;;;;;
1934.0;1849.5;;;;-0.31687167;0.7265473;0.2963982;;;;;;;;;;;;;;;
1934.0;1849.5;;;;-0.31564716;0.72933203;0.30254367;;;;;;;;;;;;;;;
1934.0;1849.5;;;;-0.31478503;0.73183066;0.3079224;;;;;;;;;;;;;;;
1973.0;1851.5;;;;;;;;;;37.728508;4.0704064;-34.821617;;;;;;;;;
1973.0;1851.5;;;;;;;0.18640706;-0.9027375;0.09143346;;;;;;;;;;;;
1973.0;1851.5;;;;;;;;;;37.65221;1.1368145;-36.191135;;;;;;;;;
1973.0;1851.5;;;;;;;0.19385357;-0.8881497;0.09106723;;;;;;;;;;;;
1973.0;1859.5;;;;-0.31361774;0.7341233;0.3142052;;;;;;;;;;;;;;;
1973.0;1859.5;;;;-0.31286624;0.7365075;0.3192139;;;;;;;;;;;;;;;
1973.0;1859.5;;;;-0.3126488;0.7390824;0.32425693;;;;;;;;;;;;;;;
1973.0;1859.5;;;;-0.31292728;0.7410241;0.32942203;;;;;;;;;;;;;;;
1973.0;1859.5;;;;-0.3133736;0.74298483;0.3339806;;;;;;;;;;;;;;;
1973.0;1861.0;;;;;;;;;;37.507248;-1.6212958;-37.57973;;;;;;;;;
1973.0;1861.0;;;;;;;0.1988586;-0.8781396;0.09472945;;;;;;;;;;;;
1973.0;1861.0;;;;;;;;;;37.327953;-4.234443;-38.708916;;;;;;;;;
1973.0;1861.0;;;;;;;0.20001832;-0.86880094;0.09833064;;;;;;;;;;;;
1973.0;1862.5;262143;262143;12282;;;;;;;;;;;;;;;;;;
1973.0;1869.6;;;;-0.31388858;0.744484;0.33759692;;;;;;;;;;;;;;;
1973.0;1869.6;;;;-0.31423953;0.7457238;0.3421059;;;;;;;;;;;;;;;
1973.0;1869.6;;;;-0.31483462;0.7474671;0.34589007;;;;;;;;;;;;;;;
1973.0;1869.6;;;;-0.31513217;0.7481347;0.3494263;;;;;;;;;;;;;;;
1973.0;1869.6;;;;-0.3160515;0.74860007;0.35240176;;;;;;;;;;;;;;;
1973.0;1870.6;;;;;;;;;;36.973175;-6.614887;-39.567245;;;;;;;;;
1973.0;1870.6;;;;;;;0.20368053;-0.8577532;0.10309152;;;;;;;;;;;;
1973.0;1870.6;;;;;;;;;;36.54973;-8.762627;-40.25773;;;;;;;;;
1973.0;1870.6;;;;;;;0.20252083;-0.8497574;0.10724204;;;;;;;;;;;;
1976.0;1879.5;;;;-0.31684116;0.74929434;0.35555652;;;;;;;;;;;;;;;
1976.0;1879.5;;;;-0.3177376;0.7496491;0.35781482;;;;;;;;;;;;;;;
1976.0;1879.5;;;;-0.318409;0.7497178;0.3594475;;;;;;;;;;;;;;;
1976.0;1879.5;;;;-0.31904224;0.7494965;0.36081317;;;;;;;;;;;;;;;
1976.0;1879.5;;;;-0.32014087;0.74921805;0.36134723;;;;;;;;;;;;;;;
1976.0;1880.0;;;;;;;;;;36.26362;-10.677664;-40.85284;;;;;;;;;
1976.0;1880.0;;;;;;;0.20233771;-0.84249395;0.11255226;;;;;;;;;;;;
1976.0;1880.0;;;;;;;;;;35.927914;-12.108219;-41.390728;;;;;;;;;
1976.0;1880.0;;;;;;;0.20355846;-0.83535266;0.11816767;;;;;;;;;;;;
1976.0;1882.5;262143;262143;12281;;;;;;;;;;;;;;;;;;
1976.0;1888.4;;;;;;;;;;;;;177,00;;;;;;;;
1976.0;1888.4;;;;;;;;;;;;;716,00;;;;;;;;
1976.0;1888.4;;;;;;;;;;;;;459,00;;;;;;;;
1976.0;1888.4;;;;;;;;;;;;;-415,00;;;;;;;;
1976.0;1888.4;;;;;;;;;;;;;-876,00;;;;;;;;
1976.0;1889.6;;;;-0.32096103;0.7492257;0.36154178;;;;;;;;;;;;;;;
1976.0;1889.6;;;;-0.3215485;0.7496148;0.3610535;;;;;;;;;;;;;;;
1976.0;1889.6;;;;-0.32206348;0.7497178;0.3603516;;;;;;;;;;;;;;;
1976.0;1889.6;;;;-0.3220711;0.7508584;0.35922244;;;;;;;;;;;;;;;
1976.0;1889.6;;;;-0.32272342;0.7520486;0.35805133;;;;;;;;;;;;;;;
1976.0;1889.6;;;;;;;;;;35.5121;-12.993256;-41.94388;;;;;;;;;
1976.0;1889.6;;;;;;;0.2070986;-0.83010346;0.12567522;;;;;;;;;;;;
1976.0;1889.6;;;;;;;;;;35.176395;-13.397626;-42.35969;;;;;;;;;
1976.0;1889.6;;;;;;;0.21112704;-0.82540363;0.128605;;;;;;;;;;;;
1979.0;1899.3;;;;;;;;;;34.859768;-13.206885;-42.70684;;;;;;;;;
1979.0;1899.3;;;;;;;0.2186346;-0.82613605;0.13080233;;;;;;;;;;;;
1979.0;1899.3;;;;;;;;;;34.478283;-12.253182;-42.89758;;;;;;;;;
1979.0;1899.3;;;;;;;0.22711875;-0.8255257;0.1312296;;;;;;;;;;;;
1979.0;1899.7;;;;-0.3229752;0.753811;0.3563843;;;;;;;;;;;;;;;
1979.0;1899.7;;;;-0.32294467;0.755726;0.3550873;;;;;;;;;;;;;;;
1979.0;1899.7;;;;-0.3225899;0.75787747;0.35325244;;;;;;;;;;;;;;;
1979.0;1899.7;;;;-0.3225632;0.76119244;0.35132602;;;;;;;;;;;;;;;
1979.0;1899.7;;;;-0.3221207;0.7650453;0.34949115;;;;;;;;;;;;;;;
1979.0;1902.9;;;;;;;;;;;;;;;;;-9.186071;-23.6404;30.060732;;1793.7
1979.0;1902.9;;;;;;;;;;;;;;0.17535935;-0.21222572;-0.24311045;;;;;1793.7
1979.0;1902.9;;;;;;;;;;;;;;;;;-4.333628;-22.694326;33.143105;;1793.7
1979.0;1902.9;;;;;;;;;;;;;;0.17957091;-0.28650776;-0.16876736;;;;;1793.7
1979.0;1902.9;;;;;;;;;;;;;;;;;-0.33951843;-19.276255;35.905025;;1803.2
1979.0;1902.9;;;;;;;;;;;;;;0.19330424;-0.35786003;-0.061342206;;;;;1803.2
1979.0;1902.9;;;;;;;;;;;;;;;;;3.6584065;-16.388441;39.143803;;1803.2
1979.0;1902.9;;;;;;;;;;;;;;0.21594897;-0.42793053;0.041627247;;;;;1803.2
1979.0;1902.9;;;;;;;;;;;;;;;;;8.3925905;-16.97592;42.92047;;1812.9
1979.0;1902.9;;;;;;;;;;;;;;0.26532793;-0.4702292;0.11017182;;;;;1812.9
1979.0;1902.9;;;;;;;;;;;;;;;;;13.550219;-19.032106;46.5598;;1812.9
1979.0;1902.9;;;;;;;;;;;;;;0.3399762;-0.5117954;0.16278572;;;;;1812.9
1979.0;1902.7;262143;262143;12289;;;;;;;;;;;;;;;;;;
1980.0;1903.6;;;;;;;;;;;;;;;;;19.070253;-22.423473;49.85961;;1822.5
1980.0;1903.6;;;;;;;;;;;;;;0.43134862;-0.5180822;0.18231757;;;;;1822.5
1980.0;1903.6;;;;;;;;;;;;;;;;;24.483475;-24.452957;52.480392;;1822.5
1980.0;1903.6;;;;;;;;;;;;;;0.5387738;-0.49458295;0.18774988;;;;;1822.5
1980.0;1903.6;;;;;;;;;;;;;;;;;28.37077;-21.343884;54.342022;;1832.1
1980.0;1903.6;;;;;;;;;;;;;;0.64174324;-0.4697409;0.23688467;;;;;1832.1
1980.0;1903.6;;;;;;;;;;;;;;;;;29.919584;-16.937773;55.684834;;1832.1
1980.0;1903.6;;;;;;;;;;;;;;0.7347636;-0.41261026;0.27613148;;;;;1832.1
1980.0;1903.6;;;;;;;;;;;;;;;;;29.866177;-12.813959;56.56987;;1841.7
1980.0;1903.6;;;;;;;;;;;;;;0.8166753;-0.34479812;0.2862636;;;;;1841.7
1980.0;1903.6;;;;;;;;;;;;;;;;;29.957731;-8.568071;57.32902;;1841.7
1980.0;1903.6;;;;;;;;;;;;;;0.89669484;-0.2675863;0.2612995;;;;;1841.7
1980.0;1908.6;;;;;;;;;;34.12351;-10.776849;-42.93573;;;;;;;;;
1980.0;1908.6;;;;;;;0.2360912;-0.82699054;0.12921537;;;;;;;;;;;;
1980.0;1908.6;;;;;;;;;;33.669548;-9.063997;-42.76406;;;;;;;;;
1980.0;1908.6;;;;;;;0.24414808;-0.827662;0.124881744;;;;;;;;;;;;
1980.0;1909.5;;;;-0.32177737;0.76947033;0.34791186;;;;;;;;;;;;;;;
1980.0;1909.5;;;;-0.32117465;0.7744981;0.34606937;;;;;;;;;;;;;;;
1980.0;1909.5;;;;-0.32057574;0.7801858;0.344574;;;;;;;;;;;;;;;
1980.0;1909.5;;;;-0.32003787;0.7856637;0.34230044;;;;;;;;;;;;;;;
1980.0;1909.5;;;;-0.3192368;0.79130185;0.3403168;;;;;;;;;;;;;;;
1980.0;1918.1;;;;;;;;;;33.169807;-7.084109;-42.405468;;;;;;;;;
1980.0;1918.1;;;;;;;0.25019073;-0.82992035;0.120670184;;;;;;;;;;;;
1980.0;1918.1;;;;;;;;;;32.6281;-5.2949615;-41.6921;;;;;;;;;
1980.0;1918.1;;;;;;;0.24768822;-0.8340098;0.115421005;;;;;;;;;;;;
2036.0;1919.5;;;;-0.31884387;0.7976304;0.3384209;;;;;;;;;;;;;;;
2036.0;1919.5;;;;-0.31803516;0.80404294;0.33580402;;;;;;;;;;;;;;;
2036.0;1919.5;;;;-0.3174515;0.8101655;0.33337405;;;;;;;;;;;;;;;
2036.0;1919.5;;;;-0.31624225;0.8159982;0.33018497;;;;;;;;;;;;;;;
2036.0;1919.5;;;;-0.31454852;0.8224031;0.3273621;;;;;;;;;;;;;;;
2036.0;1922.6;262143;262143;12286;;;;;;;;;;;;;;;;;;
2036.0;1927.6;;;;;;;;;;32.16651;-3.3265176;-40.74221;;;;;;;;;
2036.0;1927.6;;;;;;;0.24640645;-0.837611;0.10773034;;;;;;;;;;;;
2036.0;1927.6;;;;;;;;;;31.598103;-1.209296;-39.62447;;;;;;;;;
2036.0;1927.6;;;;;;;0.24298838;-0.842616;0.101260416;;;;;;;;;;;;
2036.0;1928.4;;;;;;;;;;;;;-549,00;;;;;;;;
2036.0;1928.4;;;;;;;;;;;;;194,00;;;;;;;;
2036.0;1928.4;;;;;;;;;;;;;665,00;;;;;;;;
2036.0;1928.4;;;;;;;;;;;;;447,00;;;;;;;;
2036.0;1928.4;;;;;;;;;;;;;29,00;;;;;;;;
2036.0;1929.5;;;;-0.3132706;0.82844174;0.3256264;;;;;;;;;;;;;;;
2036.0;1929.5;;;;-0.31157687;0.8352319;0.3228226;;;;;;;;;;;;;;;
2036.0;1929.5;;;;-0.31027225;0.8417665;0.31985858;;;;;;;;;;;;;;;
2036.0;1929.5;;;;-0.30898288;0.8480073;0.31618503;;;;;;;;;;;;;;;
2036.0;1929.5;;;;-0.30814365;0.8545877;0.31261066;;;;;;;;;;;;;;;
2036.0;1936.9;;;;;;;;;;30.90762;1.0528886;-38.21299;;;;;;;;;
2036.0;1936.9;;;;;;;0.23914304;-0.8453017;0.09356975;;;;;;;;;;;;
2036.0;1936.9;;;;;;;;;;30.228582;3.1281471;-36.69088;;;;;;;;;
2036.0;1936.9;;;;;;;0.23883785;-0.8463393;0.0888699;;;;;;;;;;;;
2039.0;1939.3;;;;-0.3065491;0.8609048;0.3085442;;;;;;;;;;;;;;;
2039.0;1939.3;;;;-0.3057671;0.8677026;0.30487826;;;;;;;;;;;;;;;
2039.0;1939.3;;;;-0.30521777;0.8741609;0.30115893;;;;;;;;;;;;;;;
2039.0;1939.3;;;;-0.3043404;0.88100445;0.29759982;;;;;;;;;;;;;;;
2039.0;1939.3;;;;-0.3034325;0.88728344;0.29384235;;;;;;;;;;;;;;;
2039.0;1942.4;262143;262143;12295;;;;;;;;;;;;;;;;;;
2039.0;1946.5;;;;;;;;;;29.427473;5.184332;-35.039062;;;;;;;;;
2039.0;1946.5;;;;;;;0.23596911;-0.85085607;0.08398694;;;;;;;;;;;;
2039.0;1946.5;;;;;;;;;;28.572954;7.106998;-33.272808;;;;;;;;;
2039.0;1946.5;;;;;;;0.2323069;-0.8534196;0.079226054;;;;;;;;;;;;
2039.0;1949.4;;;;-0.30302814;0.89377606;0.29072574;;;;;;;;;;;;;;;
2039.0;1949.4;;;;-0.30461505;0.9012414;0.2871857;;;;;;;;;;;;;;;
2039.0;1949.4;;;;-0.3049622;0.9081613;0.2840996;;;;;;;;;;;;;;;
2039.0;1949.4;;;;-0.30577853;0.9145814;0.28092197;;;;;;;;;;;;;;;
2039.0;1949.4;;;;-0.30690387;0.92139065;0.27819064;;;;;;;;;;;;;;;
2039.0;1956.2;;;;;;;;;;27.71462;8.888515;-31.205175;;;;;;;;;
2039.0;1956.2;;;;;;;0.229194;-0.8594012;0.07904294;;;;;;;;;;;;
2039.0;1956.2;;;;;;;;;;26.776178;10.673849;-28.954435;;;;;;;;;
2039.0;1956.2;;;;;;;0.2268746;-0.86452836;0.077883236;;;;;;;;;;;;
2041.0;1959.5;;;;-0.30674365;0.9282876;0.27629855;;;;;;;;;;;;;;;
2041.0;1959.5;;;;-0.30701068;0.93478024;0.27517703;;;;;;;;;;;;;;;
2041.0;1959.5;;;;-0.30713275;0.9409753;0.273407;;;;;;;;;;;;;;;
2041.0;1959.5;;;;-0.30661395;0.94713604;0.27281955;;;;;;;;;;;;;;;
2041.0;1959.5;;;;-0.3061867;0.9524423;0.2722397;;;;;;;;;;;;;;;
2041.0;1962.5;;;;;;;;;;;;;;;;;31.29673;-4.058962;57.927948;;1851.4
2041.0;1962.5;;;;;;;;;;;;;;0.9443037;-0.17731254;0.22119816;;;;;1851.4
2041.0;1962.5;;;;;;;;;;;;;;;;;34.146397;-2.006592;58.549763;;1851.4
2041.0;1962.5;;;;;;;;;;;;;;0.99050874;-0.07593005;0.17175817;;;;;1851.4
2041.0;1962.5;;;;;;;;;;;;;;;;;34.756767;-4.5358133;59.93835;;1861.0
2041.0;1962.5;;;;;;;;;;;;;;1.0581988;0.022888882;0.07092502;;;;;1861.0
2041.0;1962.5;;;;;;;;;;;;;;;;;30.514694;-10.498367;62.078465;;1861.0
2041.0;1962.5;;;;;;;;;;;;;;1.1275979;0.12121952;-0.082888275;;;;;1861.0
2041.0;1962.5;;;;;;;;;;;;;;;;;20.783106;-13.695181;65.00824;;1870.5
2041.0;1962.5;;;;;;;;;;;;;;1.1992553;0.18445387;-0.22284615;;;;;1870.5
2041.0;1962.5;;;;;;;;;;;;;;;;;7.9195538;-13.073366;67.3658;;1870.5
2041.0;1962.5;;;;;;;;;;;;;;1.2822046;0.22962126;-0.32520524;;;;;1870.5
2042.0;1963.3;;;;;;;;;;;;;;;;;-5.447554;-9.418776;68.41486;;1880.2
2042.0;1963.3;;;;;;;;;;;;;;1.3415326;0.26215398;-0.3876461;;;;;1880.2
2042.0;1963.3;;;;;;;;;;;;;;;;;-14.736626;-6.7484055;67.827385;;1880.2
2042.0;1963.3;;;;;;;;;;;;;;1.3716239;0.2699057;-0.42133853;;;;;1880.2
2042.0;1963.3;;;;;;;;;;;;;;;;;-17.365032;-8.79696;65.35158;;1889.9
2042.0;1963.3;;;;;;;;;;;;;;1.3990905;0.2800989;-0.42036194;;;;;1889.9
2042.0;1963.3;;;;;;;;;;;;;;;;;-14.774774;-13.645589;61.5215;;1889.9
2042.0;1963.3;;;;;;;;;;;;;;1.4193548;0.31006807;-0.36939603;;;;;1889.9
2042.0;1963.3;;;;;;;;;;;;;;;;;-4.776147;-21.031069;58.370464;;1899.5
2042.0;1963.3;;;;;;;;;;;;;;1.427839;0.30774865;-0.3160497;;;;;1899.5
2042.0;1963.3;;;;;;;;;;;;;;;;;14.877774;-27.310251;55.39491;;1899.5
2042.0;1963.3;;;;;;;;;;;;;;1.4053164;0.29486984;-0.22034363;;;;;1899.5
2042.0;1962.7;262143;262143;12286;;;;;;;;;;;;;;;;;;
2042.0;1965.7;;;;;;;;;;25.845362;12.48207;-26.448103;;;;;;;;;
2042.0;1965.7;;;;;;;0.22186956;-0.8727073;0.0778222;;;;;;;;;;;;
2042.0;1965.7;;;;;;;;;;24.918362;14.149144;-23.812067;;;;;;;;;
2042.0;1965.7;;;;;;;0.22302927;-0.8816797;0.078554645;;;;;;;;;;;;
2042.0;1968.5;;;;;;;;;;;;;-5,00;;;;;;;;
2042.0;1968.5;;;;;;;;;;;;;439,00;;;;;;;;
2042.0;1968.5;;;;;;;;;;;;;953,00;;;;;;;;
2042.0;1968.5;;;;;;;;;;;;;1128,00;;;;;;;;
2042.0;1968.5;;;;;;;;;;;;;1092,00;;;;;;;;
2043.0;1969.5;;;;-0.3065453;0.95798504;0.27167132;;;;;;;;;;;;;;;
2043.0;1969.5;;;;-0.30547336;0.9625665;0.27165225;;;;;;;;;;;;;;;
2043.0;1969.5;;;;-0.30451205;0.96636593;0.27120593;;;;;;;;;;;;;;;
2043.0;1969.5;;;;-0.3038254;0.9694444;0.2697945;;;;;;;;;;;;;;;
2043.0;1969.5;;;;-0.30299;0.97147;0.26901248;;;;;;;;;;;;;;;
2043.0;1975.3;;;;;;;;;;23.968475;15.655996;-20.966217;;;;;;;;;
2043.0;1975.3;;;;;;;0.22101505;-0.89407027;0.08270516;;;;;;;;;;;;
2043.0;1975.3;;;;;;;;;;23.14066;16.644033;-18.009735;;;;;;;;;
2043.0;1975.3;;;;;;;0.21948913;-0.9114048;0.08807642;;;;;;;;;;;;
2043.0;1979.4;;;;-0.3010216;0.9726411;0.26779178;;;;;;;;;;;;;;;
2043.0;1979.4;;;;-0.30002978;0.9729768;0.26738742;;;;;;;;;;;;;;;
2043.0;1979.4;;;;-0.29903796;0.97226727;0.26638415;;;;;;;;;;;;;;;
2043.0;1979.4;;;;-0.29828265;0.9710618;0.26532748;;;;;;;;;;;;;;;
2043.0;1979.4;;;;-0.29817966;0.9690286;0.26448825;;;;;;;;;;;;;;;
2043.0;1982.7;262143;262143;12278;;;;;;;;;;;;;;;;;;
2043.0;1984.8;;;;;;;;;;22.453993;17.139957;-14.965514;;;;;;;;;
2043.0;1984.8;;;;;;;0.21277505;-0.9324625;0.09289835;;;;;;;;;;;;
2043.0;1984.8;;;;;;;;;;21.889402;16.97592;-11.757256;;;;;;;;;
2043.0;1984.8;;;;;;;0.20563371;-0.95077366;0.09833064;;;;;;;;;;;;
2096.0;1989.5;;;;-0.29841998;0.96642697;0.2627106;;;;;;;;;;;;;;;
2096.0;1989.5;;;;-0.29929736;0.9629594;0.26175693;;;;;;;;;;;;;;;
2096.0;1989.5;;;;-0.30053714;0.9594804;0.26090243;;;;;;;;;;;;;;;
2096.0;1989.5;;;;-0.30236056;0.95580685;0.2598305;;;;;;;;;;;;;;;
2096.0;1989.5;;;;-0.30429843;0.95199215;0.25911716;;;;;;;;;;;;;;;
2096.0;1994.0;;;;;;;;;;21.465958;16.235847;-8.384961;;;;;;;;;
2096.0;1994.0;;;;;;;0.1970275;-0.9688406;0.10242012;;;;;;;;;;;;
2096.0;1994.0;;;;;;;;;;21.252327;15.049439;-5.11948;;;;;;;;;
2096.0;1994.0;;;;;;;0.18836024;-0.98733485;0.10144353;;;;;;;;;;;;
2096.0;1999.3;;;;-0.3065262;0.9486352;0.25901797;;;;;;;;;;;;;;;
2096.0;1999.3;;;;-0.30884174;0.9442636;0.25807574;;;;;;;;;;;;;;;
2096.0;1999.3;;;;-0.31113437;0.93985;0.25794604;;;;;;;;;;;;;;;
2096.0;1999.3;;;;-0.31356052;0.9357835;0.25849918;;;;;;;;;;;;;;;
2096.0;1999.3;;;;-0.31519702;0.93161404;0.2589188;;;;;;;;;;;;;;;
2096.0;2002.6;262143;262143;12281;;;;;;;;;;;;;;;;;;
2096.0;2003.6;;;;;;;;;;20.931883;13.561663;-1.8501847;;;;;;;;;
2096.0;2003.6;;;;;;;0.18402661;-0.99447614;0.1037019;;;;;;;;;;;;
2096.0;2003.6;;;;;;;;;;20.859402;11.459701;1.1940367;;;;;;;;;
2096.0;2003.6;;;;;;;0.16913357;-1.0039369;0.095706046;;;;;;;;;;;;
2096.0;2008.5;;;;;;;;;;;;;1063,00;;;;;;;;
2096.0;2008.5;;;;;;;;;;;;;1040,00;;;;;;;;
2096.0;2008.5;;;;;;;;;;;;;1240,00;;;;;;;;
2096.0;2008.5;;;;;;;;;;;;;1795,00;;;;;;;;
2096.0;2008.5;;;;;;;;;;;;;1938,00;;;;;;;;
2099.0;2009.4;;;;-0.3170891;0.9273225;0.2598038;;;;;;;;;;;;;;;
2099.0;2009.4;;;;-0.31865314;0.92336285;0.26085666;;;;;;;;;;;;;;;
2099.0;2009.4;;;;-0.31987002;0.91962826;0.26305774;;;;;;;;;;;;;;;
2099.0;2009.4;;;;-0.3211861;0.9161302;0.26547626;;;;;;;;;;;;;;;
2099.0;2009.4;;;;-0.3218613;0.91317;0.26768497;;;;;;;;;;;;;;;
2099.0;2013.3;;;;;;;;;;20.207067;9.289071;4.692221;;;;;;;;;
2099.0;2013.3;;;;;;;0.15704826;-1.0062563;0.094485305;;;;;;;;;;;;
2099.0;2013.3;;;;;;;;;;19.53566;7.0154424;8.579515;;;;;;;;;
2099.0;2013.3;;;;;;;0.15503404;-1.0072939;0.08984649;;;;;;;;;;;;
2099.0;2019.5;;;;-0.32228854;0.91043866;0.26920703;;;;;;;;;;;;;;;
2099.0;2019.5;;;;-0.32291797;0.9078866;0.26975635;;;;;;;;;;;;;;;
2099.0;2019.5;;;;-0.32296374;0.90589154;0.26964954;;;;;;;;;;;;;;;
2099.0;2019.5;;;;-0.32351688;0.9042169;0.26912692;;;;;;;;;;;;;;;
2099.0;2019.5;;;;-0.32446292;0.90309155;0.26708987;;;;;;;;;;;;;;;
2100.0;2023.0;;;;;;;;;;;;;;;;;39.34217;-33.55129;51.09943;;1909.1
2100.0;2023.0;;;;;;;;;;;;;;1.258095;0.3480941;-0.13940856;;;;;1909.1
2100.0;2023.0;;;;;;;;;;;;;;;;;60.972164;-41.05121;46.685688;;1909.1
2100.0;2023.0;;;;;;;;;;;;;;1.1415753;0.30323192;-0.10058901;;;;;1909.1
2100.0;2023.0;;;;;;;;;;;;;;;;;80.481125;-46.20884;41.600544;;1918.7
2100.0;2023.0;;;;;;;;;;;;;;1.0061953;0.2870571;-0.105288856;;;;;1918.7
2100.0;2023.0;;;;;;;;;;;;;;;;;96.098976;-46.712395;37.97647;;1918.7
2100.0;2023.0;;;;;;;;;;;;;;0.9436323;0.2372509;-0.025330363;;;;;1918.7
2100.0;2023.0;;;;;;;;;;;;;;;;;108.56197;-48.95932;35.96225;;1928.4
2100.0;2023.0;;;;;;;;;;;;;;0.9641408;0.16644795;-0.0028077029;;;;;1928.4
2100.0;2023.0;;;;;;;;;;;;;;;;;117.88919;-46.49495;36.324657;;1928.4
2100.0;2023.0;;;;;;;;;;;;;;0.93905455;0.11084323;0.038453322;;;;;1928.4
2100.0;2022.8;;;;;;;;;;19.085514;4.3565173;12.073886;;;;;;;;;
2100.0;2022.8;;;;;;;0.15369122;-1.0067446;0.08264413;;;;;;;;;;;;
2100.0;2022.8;;;;;;;;;;18.593403;1.0605181;15.266884;;;;;;;;;
2100.0;2022.8;;;;;;;0.15478988;-1.0049745;0.078127384;;;;;;;;;;;;
2100.0;2022.8;262143;262143;12278;;;;;;;;;;;;;;;;;;
2101.0;2023.8;;;;;;;;;;;;;;;;;122.42118;-43.56136;39.40321;;1938.0
2101.0;2023.8;;;;;;;;;;;;;;0.9242225;0.038941618;0.040650655;;;;;1938.0
2101.0;2023.8;;;;;;;;;;;;;;;;;123.180336;-39.57869;43.717766;;1938.0
2101.0;2023.8;;;;;;;;;;;;;;0.94357127;-0.0056764428;0.025879696;;;;;1938.0
2101.0;2023.8;;;;;;;;;;;;;;;;;119.86144;-32.219917;49.630726;;1947.6
2101.0;2023.8;;;;;;;;;;;;;;0.94088566;-0.0933256;0.01721244;;;;;1947.6
2101.0;2023.8;;;;;;;;;;;;;;;;;113.99426;-22.93466;54.86846;;1947.6
2101.0;2023.8;;;;;;;;;;;;;;0.9136021;-0.14007996;0.025513474;;;;;1947.6
2101.0;2023.8;;;;;;;;;;;;;;;;;105.395676;-15.800959;58.06528;;1957.3
2101.0;2023.8;;;;;;;;;;;;;;0.9304483;-0.16138189;0.0038453322;;;;;1957.3
2101.0;2023.8;;;;;;;;;;;;;;;;;94.550156;-10.639516;59.919277;;1957.3
2101.0;2023.8;;;;;;;;;;;;;;0.9580371;-0.16980499;-0.05084384;;;;;1957.3
2101.0;2029.3;;;;-0.32578662;0.9019586;0.2651749;;;;;;;;;;;;;;;
2101.0;2029.3;;;;-0.32725528;0.90138257;0.26392367;;;;;;;;;;;;;;;
2101.0;2029.3;;;;-0.32862476;0.90203106;0.2636681;;;;;;;;;;;;;;;
2101.0;2029.3;;;;-0.33047488;0.9035493;0.2631264;;;;;;;;;;;;;;;
2101.0;2029.3;;;;-0.33226398;0.90592587;0.26266864;;;;;;;;;;;;;;;
2101.0;2032.3;;;;;;;;;;17.979218;-2.5406659;18.047884;;;;;;;;;
2101.0;2032.3;;;;;;;0.15466781;-0.9983825;0.07318339;;;;;;;;;;;;
2101.0;2032.3;;;;;;;;;;17.258217;-6.267739;20.519882;;;;;;;;;
2101.0;2032.3;;;;;;;0.15454574;-0.99179053;0.06683554;;;;;;;;;;;;
2155.0;2039.3;;;;-0.33418277;0.9097787;0.26192477;;;;;;;;;;;;;;;
2155.0;2039.3;;;;-0.3365555;0.91435254;0.26114658;;;;;;;;;;;;;;;
2155.0;2039.3;;;;-0.3384972;0.9202882;0.25943378;;;;;;;;;;;;;;;
2155.0;2039.3;;;;-0.34082797;0.9267999;0.25800708;;;;;;;;;;;;;;;
2155.0;2039.3;;;;-0.34383777;0.9337884;0.25693133;;;;;;;;;;;;;;;
2155.0;2041.8;;;;;;;;;;16.392256;-9.781182;22.999512;;;;;;;;;
2155.0;2041.8;;;;;;;0.15417951;-0.9836726;0.05963317;;;;;;;;;;;;
2155.0;2041.8;;;;;;;;;;15.465255;-13.126774;25.38377;;;;;;;;;
2155.0;2041.8;;;;;;;0.156621;-0.972808;0.056825466;;;;;;;;;;;;
2155.0;2042.8;262143;262143;12280;;;;;;;;;;;;;;;;;;
2155.0;2048.6;;;;;;;;;;;;;1397,00;;;;;;;;
2155.0;2048.6;;;;;;;;;;;;;1359,00;;;;;;;;
2155.0;2048.6;;;;;;;;;;;;;2396,00;;;;;;;;
2155.0;2048.6;;;;;;;;;;;;;3403,00;;;;;;;;
2155.0;2048.6;;;;;;;;;;;;;3024,00;;;;;;;;
2155.0;2049.3;;;;-0.34644702;0.9415513;0.25639346;;;;;;;;;;;;;;;
2155.0;2049.3;;;;-0.34980014;0.94950116;0.25665668;;;;;;;;;;;;;;;
2155.0;2049.3;;;;-0.35340503;0.95837796;0.25838855;;;;;;;;;;;;;;;
2155.0;2049.3;;;;-0.35739902;0.967064;0.25939944;;;;;;;;;;;;;;;
2155.0;2049.3;;;;-0.3612137;0.97626126;0.25976184;;;;;;;;;;;;;;;
2155.0;2051.3;;;;;;;;;;14.584033;-16.323587;27.760399;;;;;;;;;
2155.0;2051.3;;;;;;;0.15955077;-0.96121097;0.052308727;;;;;;;;;;;;
2155.0;2051.3;;;;;;;;;;13.550219;-19.36781;29.961546;;;;;;;;;
2155.0;2051.3;;;;;;;0.16516617;-0.9512009;0.049867246;;;;;;;;;;;;
2159.0;2059.3;;;;-0.36491016;0.98544323;0.25951388;;;;;;;;;;;;;;;
2159.0;2059.3;;;;-0.36893848;0.99483883;0.25944522;;;;;;;;;;;;;;;
2159.0;2059.3;;;;-0.37327197;1.0041505;0.2591515;;;;;;;;;;;;;;;
2159.0;2059.3;;;;-0.3776093;1.0140458;0.25904468;;;;;;;;;;;;;;;
2159.0;2059.3;;;;-0.38262945;1.0246316;0.25958255;;;;;;;;;;;;;;;
2159.0;2060.8;;;;;;;;;;12.409589;-22.129734;31.937622;;;;;;;;;
2159.0;2060.8;;;;;;;0.1727958;-0.94174016;0.04773095;;;;;;;;;;;;
2159.0;2060.8;;;;;;;;;;11.207922;-24.68566;33.700066;;;;;;;;;
2159.0;2060.8;;;;;;;0.17865536;-0.93295085;0.04693747;;;;;;;;;;;;
2159.0;2062.7;262143;262143;12278;;;;;;;;;;;;;;;;;;
2159.0;2069.4;;;;-0.38716894;1.0354921;0.26103213;;;;;;;;;;;;;;;
2159.0;2069.4;;;;-0.3919297;1.046364;0.26285174;;;;;;;;;;;;;;;
2159.0;2069.4;;;;-0.39656454;1.0583383;0.2650223;;;;;;;;;;;;;;;
2159.0;2069.4;;;;-0.4006539;1.0699807;0.2680817;;;;;;;;;;;;;;;
2159.0;2069.4;;;;-0.40430838;1.0823137;0.27123645;;;;;;;;;;;;;;;
2159.0;2070.4;;;;;;;;;;9.93759;-27.3484;35.3328;;;;;;;;;
2159.0;2070.4;;;;;;;0.18189032;-0.9311808;0.04156621;;;;;;;;;;;;
2159.0;2070.4;;;;;;;;;;8.259072;-30.285805;37.114323;;;;;;;;;
2159.0;2070.4;;;;;;;0.18384351;-0.9388104;0.029175695;;;;;;;;;;;;
2160.0;2079.5;;;;-0.40648276;1.0951997;0.27390674;;;;;;;;;;;;;;;
2160.0;2079.5;;;;-0.40915686;1.1075097;0.27708057;;;;;;;;;;;;;;;
2160.0;2079.5;;;;-0.41073996;1.1201783;0.2792206;;;;;;;;;;;;;;;
2160.0;2079.5;;;;-0.4115792;1.1317407;0.28184512;;;;;;;;;;;;;;;
2160.0;2079.5;;;;-0.41096503;1.1428605;0.2843819;;;;;;;;;;;;;;;
2160.0;2080.0;;;;;;;;;;6.2257757;-33.49025;39.28495;;;;;;;;;
2160.0;2080.0;;;;;;;0.18933684;-0.96444595;0.017090365;;;;;;;;;;;;
2160.0;2080.0;;;;;;;;;;4.222999;-36.29032;41.52043;;;;;;;;;
2160.0;2080.0;;;;;;;0.20093387;-1.0088809;0.01617481;;;;;;;;;;;;
2160.0;2082.8;;;;;;;;;;;;;;;;;82.95694;-6.0808134;60.01465;;1966.9
2160.0;2082.8;;;;;;;;;;;;;;0.97598195;-0.15619373;-0.124210335;;;;;1966.9
2160.0;2082.8;;;;;;;;;;;;;;;;;72.56157;-5.7985168;58.36665;;1966.9
2160.0;2082.8;;;;;;;;;;;;;;1.0049745;-0.121097445;-0.29169592;;;;;1966.9
2160.0;2082.8;;;;;;;;;;;;;;;;;61.510056;-4.589221;57.195503;;1976.6
2160.0;2082.8;;;;;;;;;;;;;;1.0358592;-0.087343976;-0.40467542;;;;;1976.6
2160.0;2082.8;;;;;;;;;;;;;;;;;49.97024;-2.4491103;55.57802;;1976.6
2160.0;2082.8;;;;;;;;;;;;;;1.0654012;-0.06555376;-0.430311;;;;;1976.6
2160.0;2082.8;;;;;;;;;;;;;;;;;38.811916;-1.6518143;53.743095;;1986.2
2160.0;2082.8;;;;;;;;;;;;;;1.0979339;-0.053956725;-0.3830073;;;;;1986.2
2160.0;2082.8;;;;;;;;;;;;;;;;;29.274881;-4.951628;52.014984;;1986.2
2160.0;2082.8;;;;;;;;;;;;;;1.1611072;-0.04181036;-0.35840937;;;;;1986.2
2161.0;2083.6;;;;;;;;;;;;;;;;;25.624104;-7.4694057;50.042725;;1995.8
2161.0;2083.6;;;;;;;;;;;;;;1.2757958;-0.003051851;-0.24231696;;;;;1995.8
2161.0;2083.6;;;;;;;;;;;;;;;;;24.395735;-5.3025913;47.456284;;1995.8
2161.0;2083.6;;;;;;;;;;;;;;1.3760796;0.050660726;0.028687399;;;;;1995.8
2161.0;2083.6;;;;;;;;;;;;;;;;;20.195623;-2.5292215;45.07202;;2005.5
2161.0;2083.6;;;;;;;;;;;;;;1.4584185;0.097598195;0.25476852;;;;;2005.5
2161.0;2083.6;;;;;;;;;;;;;;;;;20.500809;-7.4655905;43.996246;;2005.5
2161.0;2083.6;;;;;;;;;;;;;;1.4964446;0.1561327;0.23981445;;;;;2005.5
2161.0;2083.6;;;;;;;;;;;;;;;;;29.63729;-25.776695;44.362465;;2015.1
2161.0;2083.6;;;;;;;;;;;;;;1.5140233;0.19647816;-0.013428144;;;;;2015.1
2161.0;2083.6;;;;;;;;;;;;;;;;;33.333843;-42.176582;46.895504;;2015.1
2161.0;2083.6;;;;;;;;;;;;;;1.5707877;0.19544053;-0.16223639;;;;;2015.1
2161.0;2083.0;262143;262143;12280;;;;;;;;;;;;;;;;;;
2161.0;2088.7;;;;;;;;;;;;;1505,00;;;;;;;;
2161.0;2088.7;;;;;;;;;;;;;443,00;;;;;;;;
2161.0;2088.7;;;;;;;;;;;;;378,00;;;;;;;;
2161.0;2088.7;;;;;;;;;;;;;308,00;;;;;;;;
2161.0;2088.7;;;;;;;;;;;;;-234,00;;;;;;;;
2161.0;2089.5;;;;-0.4092942;1.1528665;0.28742984;;;;;;;;;;;;;;;
2161.0;2089.5;;;;-0.40767676;1.1623193;0.2895508;;;;;;;;;;;;;;;
2161.0;2089.5;;;;-0.40542608;1.1712571;0.29169086;;;;;;;;;;;;;;;
2161.0;2089.5;;;;-0.40229803;1.178219;0.29321292;;;;;;;;;;;;;;;
2161.0;2089.5;;;;-0.3981095;1.1839143;0.29407123;;;;;;;;;;;;;;;
2164.0;2089.5;;;;;;;;;;2.2583697;-39.109467;43.61095;;;;;;;;;
2164.0;2089.5;;;;;;;0.21015045;-1.0631428;0.019470809;;;;;;;;;;;;
2164.0;2089.5;;;;;;;;;;0.12970367;-42.363506;45.785393;;;;;;;;;
2164.0;2089.5;;;;;;;0.21308023;-1.1126438;0.020447401;;;;;;;;;;;;
2164.0;2097.7;;;;;;;;;;;;;;;;;21.656698;-41.562393;50.710316;;2024.7
2164.0;2097.7;;;;;;;;;;;;;;1.5477767;0.1424604;-0.03070162;;;;;2024.7
2164.0;2097.7;;;;;;;;;;;;;;;;;3.5477767;-33.406326;53.289135;;2024.7
2164.0;2097.7;;;;;;;;;;;;;;1.5429548;0.11181982;0.08752709;;;;;2024.7
2164.0;2097.7;;;;;;;;;;;;;;;;;-16.144293;-13.908811;54.14747;;2034.3
2164.0;2097.7;;;;;;;;;;;;;;1.4481643;0.09619434;0.18390454;;;;;2034.3
2164.0;2097.7;;;;;;;;;;;;;;;;;-28.489029;5.287332;53.083134;;2034.3
2164.0;2097.7;;;;;;;;;;;;;;1.2921537;0.14862514;0.24164556;;;;;2034.3
2164.0;2097.7;;;;;;;;;;;;;;;;;-35.096287;19.398329;50.38606;;2043.9
2164.0;2097.7;;;;;;;;;;;;;;1.1802728;0.2080752;0.29816583;;;;;2043.9
2164.0;2097.7;;;;;;;;;;;;;;;;;-38.26258;30.89999;46.437725;;2043.9
2164.0;2097.7;;;;;;;;;;;;;;1.0616779;0.29914242;0.37977234;;;;;2043.9
2164.0;2098.9;;;;;;;;;;-1.7853328;-45.159763;48.62743;;;;;;;;;
2164.0;2098.9;;;;;;;0.2164983;-1.1452376;0.020996734;;;;;;;;;;;;
2164.0;2098.9;;;;;;;;;;-3.1128879;-47.151096;51.64876;;;;;;;;;
2164.0;2098.9;;;;;;;0.22742394;-1.1629994;0.019165624;;;;;;;;;;;;
2164.0;2099.4;;;;-0.39067084;1.1880876;0.29405597;;;;;;;;;;;;;;;
2164.0;2099.4;;;;-0.38673025;1.1926957;0.29319766;;;;;;;;;;;;;;;
2164.0;2099.4;;;;-0.38164145;1.1971818;0.29175952;;;;;;;;;;;;;;;
2164.0;2099.4;;;;-0.37585074;1.1991807;0.28989795;;;;;;;;;;;;;;;
2164.0;2099.4;;;;-0.37010196;1.2006227;0.28639224;;;;;;;;;;;;;;;
2214.0;2102.9;262143;262143;12285;;;;;;;;;;;;;;;;;;
2214.0;2108.5;;;;;;;;;;-4.5854063;-48.986023;54.64721;;;;;;;;;
2214.0;2108.5;;;;;;;0.22797327;-1.1615344;0.025025178;;;;;;;;;;;;
2214.0;2108.5;;;;;;;;;;-6.5614796;-51.0918;57.821133;;;;;;;;;
2214.0;2108.5;;;;;;;0.22656941;-1.1471908;0.033753473;;;;;;;;;;;;
2214.0;2109.4;;;;-0.36391833;1.2018205;0.28143314;;;;;;;;;;;;;;;
2214.0;2109.4;;;;-0.35729602;1.2024156;0.2761536;;;;;;;;;;;;;;;
2214.0;2109.4;;;;-0.35052493;1.203003;0.27006915;;;;;;;;;;;;;;;
2214.0;2109.4;;;;-0.3440552;1.2030717;0.26310351;;;;;;;;;;;;;;;
2214.0;2109.4;;;;-0.3401642;1.203705;0.25590137;;;;;;;;;;;;;;;
2214.0;2117.7;;;;;;;;;;-8.419294;-53.472244;61.017944;;;;;;;;;
2214.0;2117.7;;;;;;;0.22070986;-1.1263161;0.04052858;;;;;;;;;;;;
2214.0;2117.7;;;;;;;;;;-10.368664;-55.48265;64.45509;;;;;;;;;
2214.0;2117.7;;;;;;;0.21723075;-1.1082492;0.048036136;;;;;;;;;;;;
2214.0;2119.2;;;;-0.33710864;1.2048608;0.24967197;;;;;;;;;;;;;;;
2214.0;2119.2;;;;-0.33487323;1.2050439;0.24295047;;;;;;;;;;;;;;;
2214.0;2119.2;;;;-0.333931;1.204899;0.23564151;;;;;;;;;;;;;;;
2214.0;2119.2;;;;-0.3321953;1.2057763;0.2272301;;;;;;;;;;;;;;;
2214.0;2119.2;;;;-0.330349;1.2077981;0.21857837;;;;;;;;;;;;;;;
2214.0;2122.8;262143;262143;12284;;;;;;;;;;;;;;;;;;
2219.0;2127.4;;;;;;;;;;-12.241737;-56.932278;67.30858;;;;;;;;;
2219.0;2127.4;;;;;;;0.21985534;-1.0914029;0.059755243;;;;;;;;;;;;
2219.0;2127.4;;;;;;;;;;-13.847774;-58.000427;69.47539;;;;;;;;;
2219.0;2127.4;;;;;;;0.2238838;-1.0788293;0.07330546;;;;;;;;;;;;
2219.0;2128.6;;;;;;;;;;;;;-447,00;;;;;;;;
2219.0;2128.6;;;;;;;;;;;;;-76,00;;;;;;;;
2219.0;2128.6;;;;;;;;;;;;;191,00;;;;;;;;
2219.0;2128.6;;;;;;;;;;;;;49,00;;;;;;;;
2219.0;2128.6;;;;;;;;;;;;;-230,00;;;;;;;;
2219.0;2129.3;;;;-0.32941058;1.2107927;0.21063998;;;;;;;;;;;;;;;
2219.0;2129.3;;;;-0.3282471;1.2139627;0.20235828;;;;;;;;;;;;;;;
2219.0;2129.3;;;;-0.32666782;1.2172052;0.19470218;;;;;;;;;;;;;;;
2219.0;2129.3;;;;-0.32502368;1.2206956;0.18828586;;;;;;;;;;;;;;;
2219.0;2129.3;;;;-0.3234444;1.2245027;0.18161394;;;;;;;;;;;;;;;
2219.0;2137.0;;;;;;;;;;-15.476699;-58.7405;71.28361;;;;;;;;;
2219.0;2137.0;;;;;;;0.23340556;-1.0631428;0.08575701;;;;;;;;;;;;
2219.0;2137.0;;;;;;;;;;-16.979734;-59.40428;72.779015;;;;;;;;;
2219.0;2137.0;;;;;;;0.23834956;-1.045198;0.098025456;;;;;;;;;;;;
2219.0;2139.4;;;;-0.32107928;1.2283975;0.17556764;;;;;;;;;;;;;;;
2219.0;2139.4;;;;-0.3183327;1.2316171;0.17016603;;;;;;;;;;;;;;;
2219.0;2139.4;;;;-0.31588367;1.2335626;0.16427232;;;;;;;;;;;;;;;
2219.0;2139.4;;;;-0.31279376;1.2348787;0.15864946;;;;;;;;;;;;;;;
2219.0;2139.4;;;;-0.30964664;1.2356263;0.15357591;;;;;;;;;;;;;;;
2220.0;2143.2;;;;;;;;;;;;;;;;;-42.35969;28.168585;44.15647;;2053.5
2220.0;2143.2;;;;;;;;;;;;;;0.9816584;0.33753473;0.19513535;;;;;2053.5
2220.0;2143.2;;;;;;;;;;;;;;;;;-46.93747;18.936735;41.623432;;2053.5
2220.0;2143.2;;;;;;;;;;;;;;0.9144566;0.31122777;-0.011780145;;;;;2053.5
2220.0;2143.2;;;;;;;;;;;;;;;;;-48.169655;6.8628497;39.201023;;2063.1
2220.0;2143.2;;;;;;;;;;;;;;0.9825129;0.18140203;-0.14325388;;;;;2063.1
2220.0;2143.2;;;;;;;;;;;;;;;;;-45.232246;6.061739;34.638508;;2063.1
2220.0;2143.2;;;;;;;;;;;;;;1.0951872;-0.0038453322;-0.14264351;;;;;2063.1
2220.0;2143.2;;;;;;;;;;;;;;;;;-40.98636;15.869625;26.844845;;2072.8
2220.0;2143.2;;;;;;;;;;;;;;1.11948;-0.14093448;-0.05059969;;;;;2072.8
2220.0;2143.2;;;;;;;;;;;;;;;;;-38.346508;18.276772;18.951996;;2072.8
2220.0;2143.2;;;;;;;;;;;;;;1.1213111;-0.26972258;-0.11761834;;;;;2072.8
2220.0;2143.0;262143;262143;12277;;;;;;;;;;;;;;;;;;
2220.0;2146.5;;;;;;;;;;-18.368328;-59.743797;74.072235;;;;;;;;;
2220.0;2146.5;;;;;;;0.24414808;-1.0217597;0.11181982;;;;;;;;;;;;
2220.0;2146.5;;;;;;;;;;-19.627216;-59.789577;75.13276;;;;;;;;;
2220.0;2146.5;;;;;;;0.24634542;-0.9906308;0.12683493;;;;;;;;;;;;
2220.0;2149.4;;;;-0.30711368;1.2362367;0.14831163;;;;;;;;;;;;;;;
2220.0;2149.4;;;;-0.30393222;1.2354165;0.14317705;;;;;;;;;;;;;;;
2220.0;2149.4;;;;-0.3005295;1.2331239;0.13896562;;;;;;;;;;;;;;;
2220.0;2149.4;;;;-0.29701236;1.2295915;0.1342621;;;;;;;;;;;;;;;
2220.0;2149.4;;;;-0.2940636;1.2263223;0.12960817;;;;;;;;;;;;;;;
2221.0;2156.1;;;;;;;;;;-20.77166;-59.217354;75.92624;;;;;;;;;
2221.0;2156.1;;;;;;;0.2519608;-0.9574877;0.14136174;;;;;;;;;;;;
2221.0;2156.1;;;;;;;;;;-21.843624;-58.214058;76.39546;;;;;;;;;
2221.0;2156.1;;;;;;;0.25763726;-0.9259316;0.15436262;;;;;;;;;;;;
2221.0;2157.8;;;;;;;;;;;;;;;;;-36.793877;13.492996;12.440107;;2082.5
2221.0;2157.8;;;;;;;;;;;;;;1.0942106;-0.35572374;-0.3300882;;;;;2082.5
2221.0;2157.8;;;;;;;;;;;;;;;;;-38.022247;7.5418863;7.423628;;2082.5
2221.0;2157.8;;;;;;;;;;;;;;1.029023;-0.43293557;-0.5244301;;;;;2082.5
2221.0;2157.8;;;;;;;;;;;;;;;;;-40.02121;2.9755547;3.9216285;;2092.0
2221.0;2157.8;;;;;;;;;;;;;;0.9571215;-0.50886565;-0.651326;;;;;2092.0
2221.0;2157.8;;;;;;;;;;;;;;;;;-38.19773;5.584887;0.93844414;;2092.0
2221.0;2157.8;;;;;;;;;;;;;;0.85964537;-0.5258339;-0.6209296;;;;;2092.0
2221.0;2157.8;;;;;;;;;;;;;;;;;-31.472214;10.006256;-1.1139256;;2101.6
2221.0;2157.8;;;;;;;;;;;;;;0.7539903;-0.51057464;-0.45899838;;;;;2101.6
2221.0;2157.8;;;;;;;;;;;;;;;;;-24.304178;7.7249975;-2.1172216;;2101.6
2221.0;2157.8;;;;;;;;;;;;;;0.6690268;-0.47737053;-0.33246863;;;;;2101.6
2221.0;2159.3;;;;-0.29093555;1.2233468;0.1257477;;;;;;;;;;;;;;;
2221.0;2159.3;;;;-0.28847125;1.2201043;0.12191774;;;;;;;;;;;;;;;
2221.0;2159.3;;;;-0.28732303;1.2185289;0.1174698;;;;;;;;;;;;;;;
2221.0;2159.3;;;;-0.28568652;1.2180063;0.11243822;;;;;;;;;;;;;;;
2221.0;2159.3;;;;-0.28514865;1.2207109;0.10639574;;;;;;;;;;;;;;;
2221.0;2163.0;262143;262143;12282;;;;;;;;;;;;;;;;;;
2273.0;2165.5;;;;;;;;;;-22.896511;-56.764427;76.60528;;;;;;;;;
2273.0;2165.5;;;;;;;0.26612142;-0.8937651;0.16272469;;;;;;;;;;;;
2273.0;2165.5;;;;;;;;;;-23.815882;-54.80361;76.593834;;;;;;;;;
2273.0;2165.5;;;;;;;0.27564317;-0.86684775;0.17169714;;;;;;;;;;;;
2273.0;2168.8;;;;;;;;;;;;;-292,00;;;;;;;;
2273.0;2168.8;;;;;;;;;;;;;-119,00;;;;;;;;
2273.0;2168.8;;;;;;;;;;;;;-24,00;;;;;;;;
2273.0;2168.8;;;;;;;;;;;;;-171,00;;;;;;;;
2273.0;2168.8;;;;;;;;;;;;;-513,00;;;;;;;;
2273.0;2169.2;;;;-0.2844315;1.2261468;0.09988405;;;;;;;;;;;;;;;
2273.0;2169.2;;;;-0.28486255;1.2355462;0.09356309;;;;;;;;;;;;;;;
2273.0;2169.2;;;;-0.28504184;1.2497483;0.08708573;;;;;;;;;;;;;;;
2273.0;2169.2;;;;-0.2852898;1.2679063;0.08322526;;;;;;;;;;;;;;;
2273.0;2169.2;;;;-0.28604892;1.2907373;0.08159257;;;;;;;;;;;;;;;
2273.0;2174.9;;;;;;;;;;-24.662771;-52.37739;76.18183;;;;;;;;;
2273.0;2174.9;;;;;;;0.28565326;-0.8396863;0.18182927;;;;;;;;;;;;
2273.0;2174.9;;;;;;;;;;-25.467695;-49.653614;75.38454;;;;;;;;;
2273.0;2174.9;;;;;;;0.2933439;-0.81905574;0.18628499;;;;;;;;;;;;
2273.0;2179.2;;;;-0.28660205;1.3181077;0.08259583;;;;;;;;;;;;;;;
2273.0;2179.2;;;;-0.28717044;1.3497049;0.08535767;;;;;;;;;;;;;;;
2273.0;2179.2;;;;-0.2868729;1.3847238;0.08946229;;;;;;;;;;;;;;;
2273.0;2179.2;;;;-0.2866631;1.4210778;0.0944214;;;;;;;;;;;;;;;
2273.0;2179.2;;;;-0.28479388;1.4583932;0.09926607;;;;;;;;;;;;;;;
2273.0;2183.0;262143;262143;12288;;;;;;;;;;;;;;;;;;
2276.0;2184.5;;;;;;;;;;-26.135288;-46.712395;74.23246;;;;;;;;;
2276.0;2184.5;;;;;;;0.30127874;-0.80202645;0.19293801;;;;;;;;;;;;
2276.0;2184.5;;;;;;;;;;-26.787622;-43.565174;72.7752;;;;;;;;;
2276.0;2184.5;;;;;;;0.30402538;-0.7894528;0.19660024;;;;;;;;;;;;
2276.0;2189.3;;;;-0.28265002;1.4952356;0.10413362;;;;;;;;;;;;;;;
2276.0;2189.3;;;;-0.28019717;1.5314944;0.108593;;;;;;;;;;;;;;;
2276.0;2189.3;;;;-0.2780266;1.5650752;0.11251451;;;;;;;;;;;;;;;
2276.0;2189.3;;;;-0.27395633;1.5944254;0.11507036;;;;;;;;;;;;;;;
2276.0;2189.3;;;;-0.27085117;1.6194689;0.119064346;;;;;;;;;;;;;;;
2276.0;2194.1;;;;;;;;;;-27.279734;-40.372173;71.028015;;;;;;;;;
2276.0;2194.1;;;;;;;0.30658895;-0.7813349;0.20056765;;;;;;;;;;;;
2276.0;2194.1;;;;;;;;;;-27.737509;-37.24784;69.227425;;;;;;;;;
2276.0;2194.1;;;;;;;0.3058565;-0.781579;0.20160528;;;;;;;;;;;;
2276.0;2199.4;;;;-0.2679024;1.6396258;0.122489944;;;;;;;;;;;;;;;
2276.0;2199.4;;;;-0.26282886;1.6528628;0.123920456;;;;;;;;;;;;;;;
2276.0;2199.4;;;;-0.25701526;1.6588976;0.12693788;;;;;;;;;;;;;;;
2276.0;2199.4;;;;-0.25024036;1.657963;0.12763216;;;;;;;;;;;;;;;
2276.0;2199.4;;;;-0.24298862;1.6488116;0.12872697;;;;;;;;;;;;;;;
2277.0;2202.9;;;;;;;;;;;;;;;;;-19.329662;1.392407;-1.53737;;2111.3
2277.0;2202.9;;;;;;;;;;;;;;0.6253853;-0.4689474;-0.30103457;;;;;2111.3
2277.0;2202.9;;;;;;;;;;;;;;;;;-15.95355;-2.3613698;-0.35859248;;2111.3
2277.0;2202.9;;;;;;;;;;;;;;0.64131594;-0.42609942;-0.2779626;;;;;2111.3
2277.0;2202.9;;;;;;;;;;;;;;;;;-10.834071;0.96133304;-0.6179998;;2121.0
2277.0;2202.9;;;;;;;;;;;;;;0.7783441;-0.3655507;-0.08563494;;;;;2121.0
2277.0;2202.9;;;;;;;;;;;;;;;;;-0.068666644;9.170813;-3.711814;;2121.0
2277.0;2202.9;;;;;;;;;;;;;;1.1443831;-0.2816248;0.2494583;;;;;2121.0
2277.0;2202.9;;;;;;;;;;;;;;;;;16.510515;16.541033;-7.7860346;;2130.6
2277.0;2202.9;;;;;;;;;;;;;;1.7370526;-0.30597857;0.41572315;;;;;2130.6
2277.0;2202.9;;;;;;;;;;;;;;;;;30.423138;8.194221;-17.212439;;2130.6
2277.0;2202.9;;;;;;;;;;;;;;1.996704;-0.17047639;-0.0369274;;;;;2130.6
2277.0;2203.6;;;;;;;;;;-28.111362;-34.115875;67.346725;;;;;;;;;
2277.0;2203.6;;;;;;;0.30060732;-0.7870113;0.20123905;;;;;;;;;;;;
2277.0;2203.6;;;;;;;;;;-28.477585;-31.052584;65.39354;;;;;;;;;
2277.0;2203.6;;;;;;;0.29517502;-0.8008667;0.19953002;;;;;;;;;;;;
2277.0;2203.1;262143;262143;12285;;;;;;;;;;;;;;;;;;
2277.0;2208.9;;;;;;;;;;;;;-928,00;;;;;;;;
2277.0;2208.9;;;;;;;;;;;;;-1138,00;;;;;;;;
2277.0;2208.9;;;;;;;;;;;;;-677,00;;;;;;;;
2277.0;2208.9;;;;;;;;;;;;;354,00;;;;;;;;
2277.0;2208.9;;;;;;;;;;;;;1163,00;;;;;;;;
2279.0;2209.4;;;;-0.23551944;1.6328394;0.12963869;;;;;;;;;;;;;;;
2279.0;2209.4;;;;-0.22814181;1.609688;0.13048173;;;;;;;;;;;;;;;
2279.0;2209.4;;;;-0.22222522;1.5804789;0.13005067;;;;;;;;;;;;;;;
2279.0;2209.4;;;;-0.21615985;1.5463793;0.12801363;;;;;;;;;;;;;;;
2279.0;2209.4;;;;-0.21209338;1.5084727;0.12461473;;;;;;;;;;;;;;;
2279.0;2213.2;;;;;;;;;;-28.78277;-27.981657;63.35643;;;;;;;;;
2279.0;2213.2;;;;;;;0.28754538;-0.8186895;0.1976989;;;;;;;;;;;;
2279.0;2213.2;;;;;;;;;;-29.049807;-24.983213;61.342205;;;;;;;;;
2279.0;2213.2;;;;;;;0.28003785;-0.84163946;0.19690542;;;;;;;;;;;;
2279.0;2217.9;;;;;;;;;;;;;;;;;39.620655;-36.41621;-36.996063;;2140.3
2279.0;2217.9;;;;;;;;;;;;;;1.9971312;0.20050661;-1.0591754;;;;;2140.3
2279.0;2217.9;;;;;;;;;;;;;;;;;58.7405;-85.35646;-60.63265;;2140.3
2279.0;2217.9;;;;;;;;;;;;;;1.9971312;0.953032;-1.9261452;;;;;2140.3
2279.0;2217.9;;;;;;;;;;;;;;;;;19.455551;-41.570026;-50.93539;;2149.9
2279.0;2217.9;;;;;;;;;;;;;;1.7111728;1.0084536;-1.399823;;;;;2149.9
2279.0;2217.9;;;;;;;;;;;;;;;;;-54.559467;42.80984;-42.89758;;2149.9
2279.0;2217.9;;;;;;;;;;;;;;1.2176275;0.7289651;0.23261207;;;;;2149.9
2279.0;2217.9;;;;;;;;;;;;;;;;;-84.61639;59.0228;-32.670067;;2159.6
2279.0;2217.9;;;;;;;;;;;;;;0.849147;0.25232702;0.97091585;;;;;2159.6
2279.0;2217.9;;;;;;;;;;;;;;;;;-65.71398;14.267404;-24.609364;;2159.6
2279.0;2217.9;;;;;;;;;;;;;;0.82882166;-0.12872708;0.27423933;;;;;2159.6
2392.0;2219.3;;;;-0.20956424;1.4678956;0.12074663;;;;;;;;;;;;;;;
2392.0;2219.3;;;;-0.20822147;1.4267846;0.114864364;;;;;;;;;;;;;;;
2392.0;2219.3;;;;-0.20836642;1.3864099;0.1084633;;;;;;;;;;;;;;;
2392.0;2219.3;;;;-0.21014789;1.3481561;0.1011429;;;;;;;;;;;;;;;
2392.0;2219.3;;;;-0.21259311;1.3129007;0.09395601;;;;;;;;;;;;;;;
2392.0;2222.6;;;;;;;;;;-29.034548;-22.17551;59.377575;;;;;;;;;
2392.0;2222.6;;;;;;;0.27356791;-0.86831266;0.19293801;;;;;;;;;;;;
2392.0;2222.6;;;;;;;;;;-28.916288;-19.634846;57.500687;;;;;;;;;
2392.0;2222.6;;;;;;;0.2652669;-0.8925443;0.1894589;;;;;;;;;;;;
2392.0;2223.2;262143;262143;12277;;;;;;;;;;;;;;;;;;
2392.0;2229.1;;;;-0.2166901;1.281006;0.08607865;;;;;;;;;;;;;;;
2392.0;2229.1;;;;-0.22130206;1.2527772;0.07814408;;;;;;;;;;;;;;;
2392.0;2229.1;;;;-0.22581485;1.2284127;0.07130814;;;;;;;;;;;;;;;
2392.0;2229.1;;;;-0.2298241;1.2076494;0.06539155;;;;;;;;;;;;;;;
2392.0;2229.1;;;;-0.23358157;1.1904832;0.05944825;;;;;;;;;;;;;;;
2392.0;2231.9;;;;;;;;;;-28.736992;-16.80044;55.795464;;;;;;;;;
2392.0;2231.9;;;;;;;0.26093325;-0.9176916;0.1864681;;;;;;;;;;;;
2392.0;2231.9;;;;;;;;;;-28.412733;-13.988921;54.200874;;;;;;;;;
2392.0;2231.9;;;;;;;0.25708792;-0.94424266;0.18036439;;;;;;;;;;;;
2396.0;2239.1;;;;-0.23590091;1.1767465;0.053619392;;;;;;;;;;;;;;;
2396.0;2239.1;;;;-0.23769382;1.1652528;0.04885102;;;;;;;;;;;;;;;
2396.0;2239.1;;;;-0.2389336;1.1559373;0.04511643;;;;;;;;;;;;;;;
2396.0;2239.1;;;;-0.23947147;1.1486398;0.04239655;;;;;;;;;;;;;;;
2396.0;2239.1;;;;-0.23964694;1.1428186;0.040908817;;;;;;;;;;;;;;;
2396.0;2241.5;;;;;;;;;;-28.393658;-11.764886;52.667316;;;;;;;;;
2396.0;2241.5;;;;;;;0.25104526;-0.97036654;0.17242958;;;;;;;;;;;;
2396.0;2241.5;;;;;;;;;;-28.256325;-10.162663;51.213875;;;;;;;;;
2396.0;2241.5;;;;;;;0.24872585;-0.9945372;0.1645558;;;;;;;;;;;;
2396.0;2243.0;262143;262143;12278;;;;;;;;;;;;;;;;;;
2396.0;2248.8;;;;;;;;;;;;;1292,00;;;;;;;;
2396.0;2248.8;;;;;;;;;;;;;1223,00;;;;;;;;
2396.0;2248.8;;;;;;;;;;;;;1353,00;;;;;;;;
2396.0;2248.8;;;;;;;;;;;;;1157,00;;;;;;;;
2396.0;2248.8;;;;;;;;;;;;;348,00;;;;;;;;
2396.0;2249.2;;;;-0.23889545;1.1381265;0.040168766;;;;;;;;;;;;;;;
2396.0;2249.2;;;;-0.23817828;1.1338769;0.039642338;;;;;;;;;;;;;;;
2396.0;2249.2;;;;-0.23692706;1.1305696;0.04024506;;;;;;;;;;;;;;;
2396.0;2249.2;;;;-0.23635867;1.1270868;0.04042435;;;;;;;;;;;;;;;
2396.0;2249.2;;;;-0.23497394;1.1236039;0.04093552;;;;;;;;;;;;;;;
2396.0;2251.1;;;;;;;;;;-28.06177;-8.854182;49.924465;;;;;;;;;
2396.0;2251.1;;;;;;;0.24298838;-1.0202338;0.15430158;;;;;;;;;;;;
2396.0;2251.1;;;;;;;;;;-28.02362;-7.87759;48.829617;;;;;;;;;
2396.0;2251.1;;;;;;;0.2369457;-1.0444044;0.14526811;;;;;;;;;;;;
2397.0;2259.3;;;;-0.232708;1.1199495;0.04146195;;;;;;;;;;;;;;;
2397.0;2259.3;;;;-0.23174289;1.11504;0.042556766;;;;;;;;;;;;;;;
2397.0;2259.3;;;;-0.23111346;1.1093522;0.04289246;;;;;;;;;;;;;;;
2397.0;2259.3;;;;-0.22916034;1.1023294;0.04307938;;;;;;;;;;;;;;;
2397.0;2259.3;;;;-0.22708514;1.0947458;0.043312076;;;;;;;;;;;;;;;
2397.0;2260.8;;;;;;;;;;-28.160954;-7.1298866;47.750023;;;;;;;;;
2397.0;2260.8;;;;;;;0.23389386;-1.0659505;0.13769951;;;;;;;;;;;;
2397.0;2260.8;;;;;;;;;;-28.22199;-6.7560353;46.823025;;;;;;;;;
2397.0;2260.8;;;;;;;0.23004852;-1.0854824;0.12842189;;;;;;;;;;;;
2397.0;2263.4;;;;;;;;;;;;;;;;;-44.206062;-3.1624806;-20.432142;;2169.3
2397.0;2263.4;;;;;;;;;;;;;;0.9218421;-0.4433729;-0.27307963;;;;;2169.3
2397.0;2263.4;;;;;;;;;;;;;;;;;-34.01288;13.183996;-21.805475;;2169.3
2397.0;2263.4;;;;;;;;;;;;;;0.7431257;-0.5294351;-0.10632649;;;;;2169.3
2397.0;2263.4;;;;;;;;;;;;;;;;;-33.120213;12.88644;-16.575367;;2179.0
2397.0;2263.4;;;;;;;;;;;;;;0.55226296;-0.67018646;-0.05627613;;;;;2179.0
2397.0;2263.4;;;;;;;;;;;;;;;;;-19.886623;0.11444441;-8.129368;;2179.0
2397.0;2263.4;;;;;;;;;;;;;;0.46797082;-0.76094854;-0.16376232;;;;;2179.0
2397.0;2263.4;;;;;;;;;;;;;;;;;-0.6179998;-10.120701;-0.8964812;;2188.7
2397.0;2263.4;;;;;;;;;;;;;;0.42829677;-0.7900632;-0.25745416;;;;;2188.7
2397.0;2263.4;;;;;;;;;;;;;;;;;7.450331;-14.801477;5.3102207;;2188.7
2397.0;2263.4;;;;;;;;;;;;;;0.44862208;-0.75930053;-0.30085146;;;;;2188.7
2397.0;2263.2;262143;262143;12278;;;;;;;;;;;;;;;;;;
