patientId;holterMac;flexMac;;;;;;;;;;;;;;;;;;;;
;CA:F3:0B:1E:33:78;D3:4A:5C:52:80:78;;;;;;;;;;;;;;;;;;;;
receivedTimeStamp;timeStamp;red;ir;green;adxl_accX;adxl_accY;adxl_accZ;lsm_accelX;lsm_accelY;lsm_accelZ;lsm_gyroX;lsm_gyroY;lsm_gyroZ;ecg;flex_lsm_accelX;flex_lsm_accelY;flex_lsm_accelZ;flex_lsm_gyroX;flex_lsm_gyroY;flex_lsm_gyroZ;flex_cmd;flexTimeStamp
263.0;172.3;;;;;;;;;;;;;;;;;;;;17;0.1
263.0;172.3;;;;;;;;;;;;;;;;;17.834253;0.40818506;1.2398144;;127.4
263.0;172.3;;;;;;;;;;;;;;0.8766137;0.26215398;-0.22846156;;;;;127.4
263.0;172.3;;;;;;;;;;;;;;;;;-3.3112583;-16.743217;-6.599628;;127.4
263.0;172.3;;;;;;;;;;;;;;0.9112827;0.27045503;-0.23712882;;;;;127.4
263.0;172.3;;;;;;;;;;;;;;;;;-64.75646;-84.69268;-62.559128;;137.0
263.0;172.3;;;;;;;;;;;;;;0.9106113;0.26978362;-0.23731193;;;;;137.0
263.0;172.3;;;;;;;;;;;;;;;;;-122.424995;-124.988556;-120.65492;;137.0
263.0;172.3;;;;;;;;;;;;;;0.91055024;0.26935637;-0.23944822;;;;;137.0
327.0;202.0;;;;;;;;;;;;;;;;;-57.649464;-124.80163;-78.96664;;146.7
327.0;202.0;;;;;;;;;;;;;;0.90951264;0.27045503;-0.24182867;;;;;146.7
327.0;202.0;;;;;;;;;;;;;;;;;10.319071;-124.839775;-33.734398;;146.7
327.0;202.0;;;;;;;;;;;;;;0.9083529;0.27167577;-0.24280526;;;;;146.7
327.0;202.0;;;;;;;;;;;;;;;;;7.5380716;-96.66357;-27.108067;;156.3
327.0;202.0;;;;;;;;;;;;;;0.9063387;0.2739952;-0.2412183;;;;;156.3
327.0;202.0;;;;;;;;;;;;;;;;;1.5106663;-6.9009976;-3.3036287;;156.3
327.0;202.0;;;;;;;;;;;;;;0.9063997;0.27643666;-0.24195075;;;;;156.3
327.0;202.0;;;;;;;;;;;;;;;;;1.3046663;0.5607776;-1.6441847;;166.0
327.0;202.0;;;;;;;;;;;;;;0.9087191;0.27741325;-0.24115726;;;;;166.0
327.0;202.0;;;;;;;;;;;;;;;;;1.6289254;0.6370739;-1.8120365;;166.0
327.0;202.0;;;;;;;;;;;;;;0.910184;0.27857295;-0.2395703;;;;;166.0
327.0;278.1;;;;;;;;;;;;;;;;;1.7738883;0.7667776;-1.5221107;;175.7
327.0;278.1;;;;;;;;;;;;;;0.91036713;0.27991578;-0.23798333;;;;;175.7
327.0;278.1;;;;;;;;;;;;;;;;;1.7891476;0.839259;-1.6899625;;175.7
327.0;278.1;;;;;;;;;;;;;;0.91189307;0.28040406;-0.23749503;;;;;175.7
327.0;278.1;;;;;;;;;;;;;;;;;1.6136662;0.93844414;-1.6861477;;185.2
327.0;278.1;;;;;;;;;;;;;;0.9124424;0.2806482;-0.23902097;;;;;185.2
327.0;278.1;;;;;;;;;;;;;;;;;1.4687033;1.0376294;-1.4725181;;185.2
327.0;278.1;;;;;;;;;;;;;;0.91183203;0.28089237;-0.23773919;;;;;185.2
327.0;278.1;;;;;;;;;;;;;;;;;1.3428144;1.0338145;-1.4801477;;194.9
327.0;278.1;;;;;;;;;;;;;;0.9097568;0.28400525;-0.23908201;;;;;194.9
327.0;278.1;;;;;;;;;;;;;;;;;1.3275552;1.0147405;-1.3618885;;194.9
327.0;278.1;;;;;;;;;;;;;;0.9073153;0.28247932;-0.2369457;;;;;194.9
387.0;278.9;;;;;;;;;;;;;;;;;1.2016664;0.99185157;-1.1139256;;204.6
387.0;278.9;;;;;;;;;;;;;;0.90737635;0.28394422;-0.23822749;;;;;204.6
387.0;278.9;;;;;;;;;;;;;;;;;1.0795922;0.79348123;-1.1101108;;204.6
387.0;278.9;;;;;;;;;;;;;;0.9048738;0.28485978;-0.23926511;;;;;204.6
387.0;278.9;;;;;;;;;;;;;;;;;0.96514785;0.7858516;-0.92318493;;214.3
387.0;278.9;;;;;;;;;;;;;;0.90298164;0.283639;-0.23938718;;;;;214.3
387.0;278.9;;;;;;;;;;;;;;;;;0.8507035;0.75914794;-0.76296276;;214.3
387.0;278.9;;;;;;;;;;;;;;0.8999298;0.28382215;-0.235786;;;;;214.3
387.0;278.9;;;;;;;;;;;;;;;;;0.62944424;0.5874813;-0.7019257;;223.9
387.0;278.9;;;;;;;;;;;;;;0.90560627;0.2834559;-0.23889889;;;;;223.9
387.0;278.9;;;;;;;;;;;;;;;;;0.51118505;0.71337014;-0.6218146;;223.9
387.0;278.9;;;;;;;;;;;;;;0.90267646;0.28388318;-0.2369457;;;;;223.9
387.0;345.6;;;;;;;;;;;;;;;;;0.45777765;0.67522204;-0.48448133;;233.6
387.0;345.6;;;;;;;;;;;;;;0.90212715;0.28351694;-0.23639637;;;;;233.6
387.0;345.6;;;;;;;;;;;;;;;;;0.37766656;0.7896664;-0.43107393;;233.6
387.0;345.6;;;;;;;;;;;;;;0.90176094;0.28388318;-0.2369457;;;;;233.6
387.0;345.6;;;;;;;;;;;;;;;;;0.28992584;0.8507035;-0.32044435;;243.2
387.0;345.6;;;;;;;;;;;;;;0.9007843;0.28516495;-0.23480941;;;;;243.2
387.0;345.6;;;;;;;;;;;;;;;;;0.23651844;0.93081456;-0.2784814;;243.2
387.0;345.6;;;;;;;;;;;;;;0.90157783;0.28565326;-0.23651844;;;;;243.2
387.0;345.6;;;;;;;;;;;;;;;;;0.2822962;1.0605181;-0.35096285;;252.8
387.0;345.6;;;;;;;;;;;;;;0.90066224;0.2857143;-0.23590808;;;;;252.8
387.0;345.6;;;;;;;;;;;;;;;;;0.40437025;1.0605181;-0.3852962;;252.8
387.0;345.6;;;;;;;;;;;;;;0.89907527;0.2866909;-0.23810542;;;;;252.8
447.0;346.5;;;;;;;;;;;;;;;;;0.6447035;0.8125553;-0.48066652;;262.3
447.0;346.5;;;;;;;;;;;;;;0.9009064;0.2872402;-0.23975341;;;;;262.3
447.0;346.5;;;;;;;;;;;;;;;;;0.87740713;0.4997406;-0.59511095;;262.3
447.0;346.5;;;;;;;;;;;;;;0.9009064;0.2893765;-0.23871578;;;;;262.3
447.0;346.5;;;;;;;;;;;;;;;;;0.96133304;0.4768517;-0.59129614;;271.9
447.0;346.5;;;;;;;;;;;;;;0.90408033;0.2900479;-0.2369457;;;;;271.9
447.0;346.5;;;;;;;;;;;;;;;;;0.9460738;0.49592578;-0.6256294;;271.9
447.0;346.5;;;;;;;;;;;;;;0.90627766;0.29139072;-0.23841059;;;;;271.9
447.0;346.5;;;;;;;;;;;;;;;;;0.82399976;0.59511095;-0.7324442;;281.5
447.0;346.5;;;;;;;;;;;;;;0.90572834;0.2908414;-0.23566394;;;;;281.5
447.0;346.5;;;;;;;;;;;;;;;;;0.84307384;0.7057405;-0.7705924;;281.5
447.0;346.5;;;;;;;;;;;;;;0.9056673;0.29096347;-0.23548082;;;;;281.5
447.0;347.2;;;;;;;;;;;;;;;;;0.839259;0.71718496;-0.8545183;;291.2
447.0;347.2;;;;;;;;;;;;;;0.9043245;0.2900479;-0.2369457;;;;;291.2
447.0;347.2;;;;;;;;;;;;;;;;;0.79729605;0.74007386;-0.8888516;;291.2
447.0;347.2;;;;;;;;;;;;;;0.9033479;0.29194006;-0.23914304;;;;;291.2
447.0;347.2;;;;;;;;;;;;;;;;;0.7705924;0.7553331;-0.8545183;;300.8
447.0;347.2;;;;;;;;;;;;;;0.901883;0.29132968;-0.23950927;;;;;300.8
447.0;347.2;;;;;;;;;;;;;;;;;0.7057405;0.6637776;-0.8697775;;300.8
447.0;347.2;;;;;;;;;;;;;;0.9026154;0.29126865;-0.24127933;;;;;300.8
447.0;347.2;;;;;;;;;;;;;;;;;0.7057405;0.71337014;-0.7705924;;310.4
447.0;347.2;;;;;;;;;;;;;;0.90212715;0.29285562;-0.23926511;;;;;310.4
447.0;347.2;;;;;;;;;;;;;;;;;0.59892577;0.65233314;-0.7019257;;310.4
447.0;347.2;;;;;;;;;;;;;;0.9043855;0.29309976;-0.24042481;;;;;310.4
508.0;398.5;;;;;;;;;;;;;;;;;0.43870357;0.7209998;-0.6447035;;320.0
508.0;398.5;;;;;;;;;;;;;;0.9048738;0.29255044;-0.23773919;;;;;320.0
508.0;398.5;;;;;;;;;;;;;;;;;0.33951843;0.7705924;-0.5836665;;320.0
508.0;398.5;;;;;;;;;;;;;;0.9027375;0.2920011;-0.23541978;;;;;320.0
508.0;398.5;;;;;;;;;;;;;;;;;0.16403699;0.8163701;-0.5569628;;329.7
508.0;398.5;;;;;;;;;;;;;;0.90316474;0.29322183;-0.23517564;;;;;329.7
508.0;398.5;;;;;;;;;;;;;;;;;0.064851835;0.8049257;-0.5035554;;329.7
508.0;398.5;;;;;;;;;;;;;;0.9045076;0.29389325;-0.23493148;;;;;329.7
508.0;398.5;;;;;;;;;;;;;;;;;-0.049592577;0.7286294;-0.5378887;;339.3
508.0;398.5;;;;;;;;;;;;;;0.9031037;0.29340494;-0.2351146;;;;;339.3
508.0;398.5;;;;;;;;;;;;;;;;;-0.17548142;0.7438887;-0.54551834;;339.3
508.0;398.5;;;;;;;;;;;;;;0.90377516;0.29389325;-0.23255104;;;;;339.3
508.0;406.0;;;;;;;;;;;;;;;;;-0.17548142;0.7286294;-0.5264443;;349.0
508.0;406.0;;;;;;;;;;;;;;0.9032868;0.2929777;-0.23413801;;;;;349.0
508.0;406.0;;;;;;;;;;;;;;;;;-0.18692587;0.7438887;-0.46540728;;349.0
508.0;406.0;;;;;;;;;;;;;;0.90285957;0.29212317;-0.23456526;;;;;349.0
508.0;406.0;;;;;;;;;;;;;;;;;-0.034333322;0.67522204;-0.44251838;;358.7
508.0;406.0;;;;;;;;;;;;;;0.90347;0.2938322;-0.23169653;;;;;358.7
508.0;406.0;;;;;;;;;;;;;;;;;-0.12588885;0.57222205;-0.46159247;;358.7
508.0;406.0;;;;;;;;;;;;;;0.9063997;0.29371014;-0.23773919;;;;;358.7
508.0;406.0;;;;;;;;;;;;;;;;;-0.19455549;0.6904813;-0.44251838;;368.1
508.0;406.0;;;;;;;;;;;;;;0.9045686;0.29273355;-0.235786;;;;;368.1
508.0;406.0;;;;;;;;;;;;;;;;;-0.3624073;0.74007386;-0.40437025;;368.1
508.0;406.0;;;;;;;;;;;;;;0.9012726;0.29078037;-0.23566394;;;;;368.1
570.0;458.8;;;;;;;;;;;;;;;;;-0.65233314;0.71337014;-0.30518508;;377.8
570.0;458.8;;;;;;;;;;;;;;0.9013947;0.286874;-0.23859371;;;;;377.8
570.0;458.8;;;;;;;;;;;;;;;;;-0.71718496;0.7209998;-0.32044435;;377.8
570.0;458.8;;;;;;;;;;;;;;0.89919734;0.2855922;-0.23688467;;;;;377.8
570.0;458.8;;;;;;;;;;;;;;;;;-0.8316294;0.73625904;-0.40055543;;387.4
570.0;458.8;;;;;;;;;;;;;;0.90029603;0.28284556;-0.23712882;;;;;387.4
570.0;458.8;;;;;;;;;;;;;;;;;-0.7286294;0.82018495;-0.3624073;;387.4
570.0;458.8;;;;;;;;;;;;;;0.898648;0.28107548;-0.23126927;;;;;387.4
570.0;458.8;;;;;;;;;;;;;;;;;-0.7248146;0.6714072;-0.4196295;;397.0
570.0;458.8;;;;;;;;;;;;;;0.8982208;0.27906126;-0.22931609;;;;;397.0
570.0;458.8;;;;;;;;;;;;;;;;;-0.80111086;0.48066652;-0.49592578;;397.0
570.0;458.8;;;;;;;;;;;;;;0.9024323;0.27887815;-0.2290109;;;;;397.0
570.0;511.7;;;;;;;;;;;;;;;;;-0.8049257;0.32807398;-0.5836665;;406.7
570.0;511.7;;;;;;;;;;;;;;0.9025544;0.27686393;-0.23242897;;;;;406.7
570.0;511.7;;;;;;;;;;;;;;;;;-0.8659627;0.26703694;-0.6256294;;406.7
570.0;511.7;;;;;;;;;;;;;;0.9050569;0.27484968;-0.23401593;;;;;406.7
570.0;511.7;;;;;;;;;;;;;;;;;-0.7553331;0.24796289;-0.8087405;;416.3
570.0;511.7;;;;;;;;;;;;;;0.90444654;0.27393416;-0.23352763;;;;;416.3
570.0;511.7;;;;;;;;;;;;;;;;;-0.67522204;0.14496292;-1.045259;;416.3
570.0;511.7;;;;;;;;;;;;;;0.90658283;0.27143162;-0.23450422;;;;;416.3
570.0;511.7;;;;;;;;;;;;;;;;;-0.3357036;0.15640736;-1.2932218;;426.0
570.0;511.7;;;;;;;;;;;;;;0.9092685;0.27063814;-0.23340556;;;;;426.0
570.0;511.7;;;;;;;;;;;;;;;;;-0.034333322;0.1678518;-1.5678884;;426.0
570.0;511.7;;;;;;;;;;;;;;0.9099399;0.2696005;-0.23413801;;;;;426.0
629.0;512.8;;;;;;;;;;;;;;;;;0.068666644;0.28992584;-1.7471846;;435.5
629.0;512.8;;;;;;;;;;;;;;0.9160436;0.27179784;-0.23438215;;;;;435.5
629.0;512.8;;;;;;;;;;;;;;;;;0.25940734;0.37766656;-1.8463699;;435.5
629.0;512.8;;;;;;;;;;;;;;0.9164708;0.26972258;-0.23529771;;;;;435.5
629.0;512.8;;;;;;;;;;;;;;;;;0.37003693;0.46540728;-1.9341105;;445.2
629.0;512.8;;;;;;;;;;;;;;0.9162267;0.27069917;-0.23499252;;;;;445.2
629.0;512.8;;;;;;;;;;;;;;;;;0.4158147;0.57222205;-1.9989624;;445.2
629.0;512.8;;;;;;;;;;;;;;0.9126255;0.26917326;-0.23456526;;;;;445.2
629.0;512.8;;;;;;;;;;;;;;;;;0.65233314;0.57222205;-2.0828884;;454.9
629.0;512.8;;;;;;;;;;;;;;0.91036713;0.26667073;-0.2362743;;;;;454.9
629.0;512.8;;;;;;;;;;;;;;;;;0.96896267;0.6027406;-2.3079624;;454.9
629.0;512.8;;;;;;;;;;;;;;0.90737635;0.26453444;-0.23419905;;;;;454.9
629.0;519.0;;;;;;;;;;;;;;;;;1.1978515;0.7820368;-2.5521104;;464.5
629.0;519.0;;;;;;;;;;;;;;0.9092685;0.26190984;-0.23456526;;;;;464.5
629.0;519.0;;;;;;;;;;;;;;;;;1.392407;0.98422194;-2.6970735;;464.5
629.0;519.0;;;;;;;;;;;;;;0.9045686;0.2609943;-0.22986542;;;;;464.5
629.0;519.0;;;;;;;;;;;;;;;;;1.4725181;0.99185157;-2.826777;;474.1
629.0;519.0;;;;;;;;;;;;;;0.9076815;0.25861385;-0.23255104;;;;;474.1
629.0;519.0;;;;;;;;;;;;;;;;;1.5717032;1.2131108;-2.9869993;;474.1
629.0;519.0;;;;;;;;;;;;;;0.906827;0.25782037;-0.23169653;;;;;474.1
629.0;519.0;;;;;;;;;;;;;;;;;1.7204809;1.2779626;-3.1205175;;483.8
629.0;519.0;;;;;;;;;;;;;;0.90755945;0.2560503;-0.23212378;;;;;483.8
629.0;519.0;;;;;;;;;;;;;;;;;1.9226661;1.2741477;-3.2883694;;483.8
629.0;519.0;;;;;;;;;;;;;;0.9097568;0.255562;-0.23285623;;;;;483.8
697.0;571.8;;;;;;;;;;;;;;;;;2.1782587;1.2588885;-3.4867396;;493.4
697.0;571.8;;;;;;;;;;;;;;0.9114658;0.25397503;-0.23273416;;;;;493.4
697.0;571.8;;;;;;;;;;;;;;;;;2.5711844;1.1329997;-3.6698508;;493.4
697.0;571.8;;;;;;;;;;;;;;0.91311383;0.2548906;-0.23352763;;;;;493.4
697.0;571.8;;;;;;;;;;;;;;;;;2.883999;1.1406293;-3.8186285;;503.0
697.0;571.8;;;;;;;;;;;;;;0.9153722;0.25513473;-0.23407696;;;;;503.0
697.0;571.8;;;;;;;;;;;;;;;;;3.1434064;1.2855922;-3.9826655;;503.0
697.0;571.8;;;;;;;;;;;;;;0.9147618;0.25434124;-0.23639637;;;;;503.0
697.0;571.8;;;;;;;;;;;;;;;;;3.4447768;1.3275552;-4.1695914;;512.7
697.0;571.8;;;;;;;;;;;;;;0.9164708;0.25415814;-0.23853268;;;;;512.7
697.0;571.8;;;;;;;;;;;;;;;;;3.810999;1.4915922;-4.3641467;;512.7
697.0;571.8;;;;;;;;;;;;;;0.91317487;0.2547075;-0.23761712;;;;;512.7
697.0;586.8;;;;;;;;;;;;;;;;;4.1505175;1.4992218;-4.4976654;;522.3
697.0;586.8;;;;;;;;;;;;;;0.9139073;0.2544023;-0.23621327;;;;;522.3
697.0;586.8;;;;;;;;;;;;;;;;;4.4289985;1.6479995;-4.730369;;522.3
697.0;586.8;;;;;;;;;;;;;;0.91201514;0.25531784;-0.23120824;;;;;522.3
697.0;586.8;;;;;;;;;;;;;;;;;4.6388135;1.6441847;-4.9058504;;532.0
697.0;586.8;;;;;;;;;;;;;;0.91384625;0.25580615;-0.23224586;;;;;532.0
697.0;586.8;;;;;;;;;;;;;;;;;4.909665;1.7509995;-5.050813;;532.0
697.0;586.8;;;;;;;;;;;;;;0.9114658;0.25989562;-0.23102511;;;;;532.0
697.0;586.8;;;;;;;;;;;;;;;;;5.3216653;1.8616291;-5.180517;;541.6
697.0;586.8;;;;;;;;;;;;;;0.91293067;0.26367992;-0.23224586;;;;;541.6
697.0;586.8;;;;;;;;;;;;;;;;;5.760369;1.9493698;-5.287332;;541.6
697.0;586.8;;;;;;;;;;;;;;0.9135411;0.26813564;-0.23267312;;;;;541.6
749.0;632.5;;;;;;;;;;;;;;;;;6.0808134;1.9302957;-5.42848;;551.3
749.0;632.5;;;;;;;;;;;;;;0.9148228;0.27344584;-0.23432112;;;;;551.3
749.0;632.5;;;;;;;;;;;;;;;;;6.408887;1.9875181;-5.516221;;551.3
749.0;632.5;;;;;;;;;;;;;;0.91653186;0.2793054;-0.23352763;;;;;551.3
749.0;632.5;;;;;;;;;;;;;;;;;6.599628;2.071444;-5.539109;;560.9
749.0;632.5;;;;;;;;;;;;;;0.9189123;0.2844325;-0.23364972;;;;;560.9
749.0;632.5;;;;;;;;;;;;;;;;;6.733146;2.2392957;-5.489517;;560.9
749.0;632.5;;;;;;;;;;;;;;0.91665393;0.28852198;-0.23389386;;;;;560.9
749.0;632.5;;;;;;;;;;;;;;;;;6.7484055;2.2278512;-5.3788877;;570.5
749.0;632.5;;;;;;;;;;;;;;0.9142735;0.29242834;-0.23450422;;;;;570.5
749.0;632.5;;;;;;;;;;;;;;;;;6.7522206;2.0981476;-5.2911468;;570.5
749.0;632.5;;;;;;;;;;;;;;0.91024506;0.29493088;-0.23389386;;;;;570.5
749.0;639.6;;;;;;;;;;;;;;;;;6.618702;1.8311106;-5.115665;;580.2
749.0;639.6;;;;;;;;;;;;;;0.9110385;0.29834896;-0.23700674;;;;;580.2
749.0;639.6;;;;;;;;;;;;;;;;;6.4661093;1.8158513;-4.8333693;;580.2
749.0;639.6;;;;;;;;;;;;;;0.91073334;0.30115664;-0.23749503;;;;;580.2
749.0;639.6;;;;;;;;;;;;;;;;;6.14948;1.7929624;-4.6197395;;589.8
749.0;639.6;;;;;;;;;;;;;;0.91036713;0.30115664;-0.23688467;;;;;589.8
749.0;639.6;;;;;;;;;;;;;;;;;5.8252206;1.781518;-4.3450727;;589.8
749.0;639.6;;;;;;;;;;;;;;0.908475;0.29950866;-0.23816645;;;;;589.8
749.0;639.6;;;;;;;;;;;;;;;;;5.5352945;1.7929624;-4.0704064;;599.5
749.0;639.6;;;;;;;;;;;;;;0.9081088;0.29920346;-0.23816645;;;;;599.5
749.0;639.6;;;;;;;;;;;;;;;;;5.4017763;1.8578143;-3.7766654;;599.5
749.0;639.6;;;;;;;;;;;;;;0.9049348;0.2993866;-0.23969238;;;;;599.5
806.0;692.5;;;;;;;;;;;;;;;;;5.2682576;1.9188513;-3.4524064;;609.1
806.0;692.5;;;;;;;;;;;;;;0.9031037;0.2989593;-0.23963134;;;;;609.1
806.0;692.5;;;;;;;;;;;;;;;;;5.260628;1.9531846;-3.295999;;609.1
806.0;692.5;;;;;;;;;;;;;;0.9013947;0.2985931;-0.23938718;;;;;609.1
806.0;692.5;;;;;;;;;;;;;;;;;5.3407393;1.9150364;-3.1281471;;618.7
806.0;692.5;;;;;;;;;;;;;;0.8993194;0.29767755;-0.23786126;;;;;618.7
806.0;692.5;;;;;;;;;;;;;;;;;5.4246655;1.8463699;-3.032777;;618.7
806.0;692.5;;;;;;;;;;;;;;0.8973052;0.2989593;-0.23780023;;;;;618.7
806.0;692.5;;;;;;;;;;;;;;;;;5.466628;1.7471846;-2.9793696;;628.4
806.0;692.5;;;;;;;;;;;;;;0.89815974;0.29963073;-0.23975341;;;;;628.4
806.0;692.5;;;;;;;;;;;;;;;;;5.474258;1.6975921;-2.887814;;628.4
806.0;692.5;;;;;;;;;;;;;;0.8987701;0.30097353;-0.2367626;;;;;628.4
806.0;693.3;;;;;;;;;;;;;;;;;5.4399247;1.7204809;-2.8496659;;637.9
806.0;693.3;;;;;;;;;;;;;;0.8984039;0.30359814;-0.23761712;;;;;637.9
806.0;693.3;;;;;;;;;;;;;;;;;5.2758875;1.7662587;-2.7695546;;637.9
806.0;693.3;;;;;;;;;;;;;;0.8963286;0.3058565;-0.23810542;;;;;637.9
806.0;693.3;;;;;;;;;;;;;;;;;5.130924;1.8501847;-2.7161474;;647.6
806.0;693.3;;;;;;;;;;;;;;0.89407027;0.30762658;-0.23981445;;;;;647.6
806.0;693.3;;;;;;;;;;;;;;;;;5.054628;1.9684439;-2.7352216;;647.6
806.0;693.3;;;;;;;;;;;;;;0.8933378;0.31073946;-0.23914304;;;;;647.6
806.0;693.3;;;;;;;;;;;;;;;;;4.9668875;1.9531846;-2.803888;;657.3
806.0;693.3;;;;;;;;;;;;;;0.89260536;0.31299785;-0.23780023;;;;;657.3
806.0;693.3;;;;;;;;;;;;;;;;;4.9439983;1.8616291;-2.8382213;;657.3
806.0;693.3;;;;;;;;;;;;;;0.8924833;0.31556138;-0.23664053;;;;;657.3
867.0;752.8;;;;;;;;;;;;;;;;;4.8982205;1.8463699;-2.929777;;666.9
867.0;752.8;;;;;;;;;;;;;;0.8897977;0.31434065;-0.23834956;;;;;666.9
867.0;752.8;;;;;;;;;;;;;;;;;4.795221;1.7548143;-2.9602954;;666.9
867.0;752.8;;;;;;;;;;;;;;0.8878445;0.3140965;-0.23865475;;;;;666.9
867.0;752.8;;;;;;;;;;;;;;;;;4.650258;1.7624439;-3.0022585;;676.6
867.0;752.8;;;;;;;;;;;;;;0.88698995;0.31403548;-0.24097416;;;;;676.6
867.0;752.8;;;;;;;;;;;;;;;;;4.360332;1.8158513;-2.990814;;676.6
867.0;752.8;;;;;;;;;;;;;;0.8852199;0.31397444;-0.24433118;;;;;676.6
867.0;752.8;;;;;;;;;;;;;;;;;4.257332;1.8463699;-3.0671103;;686.3
867.0;752.8;;;;;;;;;;;;;;0.8858913;0.3128147;-0.24134037;;;;;686.3
867.0;752.8;;;;;;;;;;;;;;;;;4.291665;1.7891476;-3.257851;;686.3
867.0;752.8;;;;;;;;;;;;;;0.88698995;0.31183812;-0.24280526;;;;;686.3
867.0;753.9;;;;;;;;;;;;;;;;;4.341258;1.7624439;-3.456221;;696.0
867.0;753.9;;;;;;;;;;;;;;0.887112;0.3098239;-0.24207282;;;;;696.0
867.0;753.9;;;;;;;;;;;;;;;;;4.39848;1.6708884;-3.6355176;;696.0
867.0;753.9;;;;;;;;;;;;;;0.88827175;0.30872524;-0.244026;;;;;696.0
867.0;753.9;;;;;;;;;;;;;;;;;4.4366283;1.4687033;-3.8300729;;705.7
867.0;753.9;;;;;;;;;;;;;;0.88991976;0.30573443;-0.24292734;;;;;705.7
867.0;753.9;;;;;;;;;;;;;;;;;4.402295;1.289407;-3.910184;;705.7
867.0;753.9;;;;;;;;;;;;;;0.8931547;0.30500197;-0.2418897;;;;;705.7
867.0;753.9;;;;;;;;;;;;;;;;;4.222999;1.2970366;-3.910184;;715.3
867.0;753.9;;;;;;;;;;;;;;0.8951689;0.30341503;-0.24268319;;;;;715.3
867.0;753.9;;;;;;;;;;;;;;;;;3.9559617;1.2741477;-3.8758507;;715.3
867.0;753.9;;;;;;;;;;;;;;0.89638966;0.30097353;-0.24317148;;;;;715.3
934.0;813.2;;;;;;;;;;;;;;;;;3.8148136;1.2741477;-3.9063692;;725.0
934.0;813.2;;;;;;;;;;;;;;0.89437544;0.29963073;-0.2446974;;;;;725.0
934.0;813.2;;;;;;;;;;;;;;;;;3.8605914;1.3580737;-3.9254432;;725.0
934.0;813.2;;;;;;;;;;;;;;0.8935209;0.2985931;-0.24719992;;;;;725.0
934.0;813.2;;;;;;;;;;;;;;;;;3.952147;1.5335552;-3.9483323;;734.5
934.0;813.2;;;;;;;;;;;;;;0.891934;0.29902035;-0.24890897;;;;;734.5
934.0;813.2;;;;;;;;;;;;;;;;;3.9902954;1.6403699;-4.039888;;734.5
934.0;813.2;;;;;;;;;;;;;;0.8915677;0.29609057;-0.24793237;;;;;734.5
934.0;813.2;;;;;;;;;;;;;;;;;3.9750361;1.6708884;-4.0627766;;744.1
934.0;813.2;;;;;;;;;;;;;;0.8938261;0.29523605;-0.24652852;;;;;744.1
934.0;813.2;;;;;;;;;;;;;;;;;4.0665917;1.7624439;-4.161962;;744.1
934.0;813.2;;;;;;;;;;;;;;0.89278847;0.29505295;-0.24213386;;;;;744.1
934.0;814.0;;;;;;;;;;;;;;;;;4.093295;1.8807031;-4.234443;;753.8
934.0;814.0;;;;;;;;;;;;;;0.8924833;0.29419842;-0.24231696;;;;;753.8
934.0;814.0;;;;;;;;;;;;;;;;;4.1505175;1.9493698;-4.360332;;753.8
934.0;814.0;;;;;;;;;;;;;;0.8905301;0.2959685;-0.24311045;;;;;753.8
934.0;814.0;;;;;;;;;;;;;;;;;4.139073;1.9684439;-4.459517;;763.5
934.0;814.0;;;;;;;;;;;;;;0.8892483;0.29670095;-0.24494156;;;;;763.5
934.0;814.0;;;;;;;;;;;;;;;;;4.1657767;1.9226661;-4.676962;;763.5
934.0;814.0;;;;;;;;;;;;;;0.88827175;0.29755548;-0.24542986;;;;;763.5
934.0;814.0;;;;;;;;;;;;;;;;;4.341258;1.8845179;-4.7608876;;773.1
934.0;814.0;;;;;;;;;;;;;;0.8905301;0.29755548;-0.24536882;;;;;773.1
934.0;814.0;;;;;;;;;;;;;;;;;4.440443;1.9837031;-4.860073;;773.1
934.0;814.0;;;;;;;;;;;;;;0.8930326;0.29865414;-0.24359874;;;;;773.1
988.0;873.5;;;;;;;;;;;;;;;;;4.482406;2.006592;-4.932554;;782.7
988.0;873.5;;;;;;;;;;;;;;0.8979156;0.2979217;-0.24317148;;;;;782.7
988.0;873.5;;;;;;;;;;;;;;;;;4.5854063;1.9989624;-5.123295;;782.7
988.0;873.5;;;;;;;;;;;;;;0.9011505;0.29688406;-0.2395703;;;;;782.7
988.0;873.5;;;;;;;;;;;;;;;;;4.753258;2.0218513;-5.2339244;;792.4
988.0;873.5;;;;;;;;;;;;;;0.9029206;0.29523605;-0.23944822;;;;;792.4
988.0;873.5;;;;;;;;;;;;;;;;;4.81811;2.1019626;-5.3636284;;792.4
988.0;873.5;;;;;;;;;;;;;;0.9021882;0.29328287;-0.23969238;;;;;792.4
988.0;873.5;;;;;;;;;;;;;;;;;4.8333693;2.2698143;-5.4437394;;802.0
988.0;873.5;;;;;;;;;;;;;;0.9027375;0.29187903;-0.24329355;;;;;802.0
988.0;873.5;;;;;;;;;;;;;;;;;4.669332;2.437666;-5.4971466;;802.0
988.0;873.5;;;;;;;;;;;;;;0.90133363;0.29029205;-0.24573503;;;;;802.0
988.0;874.7;;;;;;;;;;;;;;;;;4.7189245;2.5749993;-5.584887;;811.6
988.0;874.7;;;;;;;;;;;;;;0.8988311;0.2887051;-0.24585712;;;;;811.6
988.0;874.7;;;;;;;;;;;;;;;;;4.852443;2.5711844;-5.6230354;;811.6
988.0;874.7;;;;;;;;;;;;;;0.8999298;0.28754538;-0.24280526;;;;;811.6
988.0;874.7;;;;;;;;;;;;;;;;;4.9592576;2.55974;-5.7908874;;821.3
988.0;874.7;;;;;;;;;;;;;;0.901883;0.28736228;-0.24060793;;;;;821.3
988.0;874.7;;;;;;;;;;;;;;;;;5.1919613;2.5749993;-5.882443;;821.3
988.0;874.7;;;;;;;;;;;;;;0.90279853;0.28852198;-0.24036378;;;;;821.3
988.0;874.7;;;;;;;;;;;;;;;;;5.359813;2.5749993;-6.061739;;831.0
988.0;874.7;;;;;;;;;;;;;;0.9015168;0.2890103;-0.24164556;;;;;831.0
988.0;874.7;;;;;;;;;;;;;;;;;5.6344795;2.746666;-6.1571097;;831.0
988.0;874.7;;;;;;;;;;;;;;0.8987701;0.29108554;-0.2445143;;;;;831.0
1048.0;941.5;;;;;;;;;;;;;;;;;5.920591;2.8420362;-6.1609244;;840.6
1048.0;941.5;;;;;;;;;;;;;;0.89602345;0.29261148;-0.24604023;;;;;840.6
1048.0;941.5;;;;;;;;;;;;;;;;;6.2257757;2.7428513;-6.3135166;;840.6
1048.0;941.5;;;;;;;;;;;;;;0.8957793;0.29602954;-0.24573503;;;;;840.6
1048.0;941.5;;;;;;;;;;;;;;;;;6.618702;2.7008882;-6.3859982;;850.2
1048.0;941.5;;;;;;;;;;;;;;0.89687794;0.30018005;-0.24207282;;;;;850.2
1048.0;941.5;;;;;;;;;;;;;;;;;7.084109;2.7695546;-6.4470353;;850.2
1048.0;941.5;;;;;;;;;;;;;;0.8968169;0.30359814;-0.23999757;;;;;850.2
1048.0;941.5;;;;;;;;;;;;;;;;;7.560961;2.822962;-6.405072;;859.9
1048.0;941.5;;;;;;;;;;;;;;0.89522994;0.30726036;-0.24115726;;;;;859.9
1048.0;941.5;;;;;;;;;;;;;;;;;7.827998;2.7886288;-6.3135166;;859.9
1048.0;941.5;;;;;;;;;;;;;;0.8923612;0.31354716;-0.24201179;;;;;859.9
1048.0;942.4;;;;;;;;;;;;;;;;;8.022553;2.7581105;-6.195257;;869.6
1048.0;942.4;;;;;;;;;;;;;;0.88930935;0.31800288;-0.24365978;;;;;869.6
1048.0;942.4;;;;;;;;;;;;;;;;;8.003479;2.7199624;-5.897702;;869.6
1048.0;942.4;;;;;;;;;;;;;;0.88930935;0.3234962;-0.24213386;;;;;869.6
1048.0;942.4;;;;;;;;;;;;;;;;;7.816553;2.6741846;-5.5887017;;879.1
1048.0;942.4;;;;;;;;;;;;;;0.88973665;0.32789087;-0.23822749;;;;;879.1
1048.0;942.4;;;;;;;;;;;;;;;;;7.335887;2.7314067;-5.2529984;;879.1
1048.0;942.4;;;;;;;;;;;;;;0.8907132;0.32953885;-0.23639637;;;;;879.1
1048.0;942.4;;;;;;;;;;;;;;;;;6.824702;2.7161474;-4.8409986;;888.7
1048.0;942.4;;;;;;;;;;;;;;0.8895535;0.33344522;-0.23328349;;;;;888.7
1048.0;942.4;;;;;;;;;;;;;;;;;6.382183;2.475814;-4.4518876;;888.7
1048.0;942.4;;;;;;;;;;;;;;0.88845485;0.33533737;-0.23169653;;;;;888.7
1106.0;994.4;;;;;;;;;;;;;;;;;6.107517;2.1591845;-4.127629;;898.4
1106.0;994.4;;;;;;;;;;;;;;0.8888821;0.33960998;-0.2320017;;;;;898.4
1106.0;994.4;;;;;;;;;;;;;;;;;5.706961;1.865444;-3.784295;;898.4
1106.0;994.4;;;;;;;;;;;;;;0.8892483;0.34229562;-0.2329783;;;;;898.4
1106.0;994.4;;;;;;;;;;;;;;;;;5.371258;1.6861477;-3.5287027;;908.0
1106.0;994.4;;;;;;;;;;;;;;0.88949245;0.3441267;-0.23157445;;;;;908.0
1106.0;994.4;;;;;;;;;;;;;;;;;5.0012207;1.4992218;-3.3455918;;908.0
1106.0;994.4;;;;;;;;;;;;;;0.8883328;0.3457747;-0.2323069;;;;;908.0
1106.0;994.4;;;;;;;;;;;;;;;;;4.6655173;1.4572588;-3.1853695;;917.6
1106.0;994.4;;;;;;;;;;;;;;0.8906522;0.34406567;-0.23145238;;;;;917.6
1106.0;994.4;;;;;;;;;;;;;;;;;4.234443;1.5106663;-2.9641104;;917.6
1106.0;994.4;;;;;;;;;;;;;;0.8917509;0.34455398;-0.22949919;;;;;917.6
1106.0;995.1;;;;;;;;;;;;;;;;;3.7423322;1.4458144;-2.8534806;;927.1
1106.0;995.1;;;;;;;;;;;;;;0.8921171;0.34156317;-0.22998749;;;;;927.1
1106.0;995.1;;;;;;;;;;;;;;;;;3.2921844;1.4610736;-2.6703696;;927.1
1106.0;995.1;;;;;;;;;;;;;;0.8913846;0.34211248;-0.2320017;;;;;927.1
1106.0;995.1;;;;;;;;;;;;;;;;;2.7619252;1.4267403;-2.517777;;936.7
1106.0;995.1;;;;;;;;;;;;;;0.8926664;0.34174627;-0.23352763;;;;;936.7
1106.0;995.1;;;;;;;;;;;;;;;;;2.315592;1.4191107;-2.3842587;;936.7
1106.0;995.1;;;;;;;;;;;;;;0.8908353;0.34168524;-0.23535874;;;;;936.7
1106.0;995.1;;;;;;;;;;;;;;;;;1.9493698;1.3542589;-2.3003328;;946.4
1106.0;995.1;;;;;;;;;;;;;;0.89059114;0.3414411;-0.23645741;;;;;946.4
1106.0;995.1;;;;;;;;;;;;;;;;;1.6708884;1.2054812;-2.1782587;;946.4
1106.0;995.1;;;;;;;;;;;;;;0.88863796;0.33954895;-0.23572497;;;;;946.4
1168.0;1055.2;;;;;;;;;;;;;;;;;1.2779626;1.1749626;-2.0409255;;955.9
1168.0;1055.2;;;;;;;;;;;;;;0.888699;0.33960998;-0.23682363;;;;;955.9
1168.0;1055.2;;;;;;;;;;;;;;;;;1.0223701;1.0872219;-1.9379253;;955.9
1168.0;1055.2;;;;;;;;;;;;;;0.8883938;0.3368633;-0.23761712;;;;;955.9
1168.0;1055.2;;;;;;;;;;;;;;;;;0.7820368;1.1444441;-1.8387402;;965.6
1168.0;1055.2;;;;;;;;;;;;;;0.8881497;0.33491012;-0.2360912;;;;;965.6
1168.0;1055.2;;;;;;;;;;;;;;;;;0.45014802;1.209296;-1.6708884;;965.6
1168.0;1055.2;;;;;;;;;;;;;;0.8852199;0.333079;-0.23596911;;;;;965.6
1168.0;1055.2;;;;;;;;;;;;;;;;;0.25940734;1.12537;-1.5984069;;975.1
1168.0;1055.2;;;;;;;;;;;;;;0.8861965;0.33179724;-0.23450422;;;;;975.1
1168.0;1055.2;;;;;;;;;;;;;;;;;0.17548142;1.0605181;-1.5182959;;975.1
1168.0;1055.2;;;;;;;;;;;;;;0.8872341;0.3302713;-0.23285623;;;;;975.1
1168.0;1056.0;;;;;;;;;;;;;;;;;0.1678518;1.0299997;-1.5106663;;984.7
1168.0;1056.0;;;;;;;;;;;;;;0.88778347;0.32966095;-0.2296823;;;;;984.7
1168.0;1056.0;;;;;;;;;;;;;;;;;0.16403699;0.8697775;-1.4381847;;984.7
1168.0;1056.0;;;;;;;;;;;;;;0.8858303;0.32734153;-0.2296823;;;;;984.7
1168.0;1056.0;;;;;;;;;;;;;;;;;0.37385175;0.5836665;-1.4000366;;994.4
1168.0;1056.0;;;;;;;;;;;;;;0.8874172;0.32642597;-0.2296823;;;;;994.4
1168.0;1056.0;;;;;;;;;;;;;;;;;0.5035554;0.3318888;-1.3695182;;994.4
1168.0;1056.0;;;;;;;;;;;;;;0.8883328;0.32459486;-0.2318186;;;;;994.4
1168.0;1056.0;;;;;;;;;;;;;;;;;0.61037016;0.10681479;-1.3199255;;1004.0
1168.0;1056.0;;;;;;;;;;;;;;0.8907132;0.3230079;-0.23322245;;;;;1004.0
1168.0;1056.0;;;;;;;;;;;;;;;;;0.5569628;0.24796289;-1.2855922;;1004.0
1168.0;1056.0;;;;;;;;;;;;;;0.89095736;0.32142094;-0.23535874;;;;;1004.0
1170.0;1115.1;;;;;;;;;;;;;;;;;0.3929258;0.39674062;-1.2550737;;1013.6
1170.0;1115.1;;;;;;;;;;;;;;0.890347;0.3185522;-0.23590808;;;;;1013.6
1170.0;1115.1;;;;;;;;;;;;;;;;;0.25559253;0.5035554;-1.2550737;;1013.6
1170.0;1115.1;;;;;;;;;;;;;;0.89291054;0.3183691;-0.23670156;;;;;1013.6
1170.0;1115.1;;;;;;;;;;;;;;;;;0.22125919;0.6447035;-1.3237404;;1023.2
1170.0;1115.1;;;;;;;;;;;;;;0.8933988;0.31733146;-0.2356029;;;;;1023.2
1170.0;1115.1;;;;;;;;;;;;;;;;;0.053407393;0.8049257;-1.2970366;;1023.2
1170.0;1115.1;;;;;;;;;;;;;;0.8905301;0.3160497;-0.23487045;;;;;1023.2
1170.0;1115.1;;;;;;;;;;;;;;;;;-0.053407393;0.8888516;-1.3389996;;1032.9
1170.0;1115.1;;;;;;;;;;;;;;0.89126253;0.31580552;-0.2351146;;;;;1032.9
1170.0;1115.1;;;;;;;;;;;;;;;;;-0.07248146;1.003296;-1.373333;;1032.9
1170.0;1115.1;;;;;;;;;;;;;;0.88991976;0.3144017;-0.23670156;;;;;1032.9
1170.0;1115.8;;;;;;;;;;;;;;;;;-0.27085176;1.1520737;-1.3809626;;1042.5
1170.0;1115.8;;;;;;;;;;;;;;0.8895535;0.31495103;-0.2379223;;;;;1042.5
1170.0;1115.8;;;;;;;;;;;;;;;;;-0.5302591;1.2703329;-1.3618885;;1042.5
1170.0;1115.8;;;;;;;;;;;;;;0.89028597;0.31647694;-0.23908201;;;;;1042.5
1170.0;1115.8;;;;;;;;;;;;;;;;;-0.6027406;1.3199255;-1.3885921;;1052.0
1170.0;1115.8;;;;;;;;;;;;;;0.8921781;0.31513414;-0.24018067;;;;;1052.0
1170.0;1115.8;;;;;;;;;;;;;;;;;-0.6828517;1.4000366;-1.4038514;;1052.0
1170.0;1115.8;;;;;;;;;;;;;;0.8923002;0.31580552;-0.23999757;;;;;1052.0
1170.0;1115.8;;;;;;;;;;;;;;;;;-0.6828517;1.3809626;-1.4000366;;1061.7
1170.0;1115.8;;;;;;;;;;;;;;0.8948637;0.31495103;-0.23920408;;;;;1061.7
1170.0;1115.8;;;;;;;;;;;;;;;;;-0.614185;1.4229255;-1.3428144;;1061.7
1170.0;1115.8;;;;;;;;;;;;;;0.89510787;0.31635487;-0.23938718;;;;;1061.7
1171.0;1128.2;;;;0.0;0.0;0.0;;;;;;;;;;;;;;;
1171.0;1128.2;;;;-0.13413621;0.11397554;0.0027961733;;;;;;;;;;;;;;;
1171.0;1128.2;;;;-0.7526971;0.5726395;-0.19129184;;;;;;;;;;;;;;;
1171.0;1128.2;;;;-0.83887875;0.6362992;-0.23217776;;;;;;;;;;;;;;;
1171.0;1128.2;;;;-0.838585;0.63309866;-0.23401645;;;;;;;;;;;;;;;
1171.0;1130.4;;;;;;;;;;;;;;;;;-0.5378887;1.2627033;-1.3504441;;1071.4
1171.0;1130.4;;;;;;;;;;;;;;0.89638966;0.31727043;-0.2379223;;;;;1071.4
1171.0;1130.4;;;;;;;;;;;;;;;;;-0.37766656;1.1101108;-1.4801477;;1071.4
1171.0;1130.4;;;;;;;;;;;;;;0.895352;0.31781974;-0.23883785;;;;;1071.4
1171.0;1130.4;;;;;;;;;;;;;;;;;-0.2822962;0.92318493;-1.5717032;;1081.0
1171.0;1130.4;;;;;;;;;;;;;;0.8954741;0.31763664;-0.23908201;;;;;1081.0
1171.0;1130.4;;;;;;;;;;;;;;;;;-0.16403699;0.839259;-1.5678884;;1081.0
1171.0;1130.4;;;;;;;;;;;;;;0.8955962;0.3183691;-0.24036378;;;;;1081.0
1171.0;1130.4;;;;;;;;;;;;;;;;;-0.12588885;0.8163701;-1.5449996;;1090.6
1171.0;1130.4;;;;;;;;;;;;;;0.89767146;0.3175756;-0.23987548;;;;;1090.6
1171.0;1130.4;;;;;;;;;;;;;;;;;-0.064851835;0.8545183;-1.5602587;;1090.6
1171.0;1130.4;;;;;;;;;;;;;;0.89638966;0.31586656;-0.23834956;;;;;1090.6
1228.0;1138.2;;;;-0.8364755;0.6304055;-0.23544315;;;;;;;;;;;;;;;
1228.0;1138.2;;;;-0.832615;0.62857443;-0.23650363;;;;;;;;;;;;;;;
1228.0;1138.2;;;;-0.8279077;0.6257592;-0.2358971;;;;;;;;;;;;;;;
1228.0;1138.2;;;;-0.82449734;0.62388235;-0.23556903;;;;;;;;;;;;;;;
1228.0;1138.2;;;;-0.8215753;0.6216393;-0.23663715;;;;;;;;;;;;;;;
1228.0;1140.4;57450;57473;12796;;;;;;;;;;;;;;;;;;
1228.0;1148.0;;;;-0.82042706;0.6186066;-0.23461917;;;;;;;;;;;;;;;
1228.0;1148.0;;;;-0.8182641;0.6134377;-0.23417285;;;;;;;;;;;;;;;
1228.0;1148.0;;;;-0.80225766;0.6131707;-0.2307091;;;;;;;;;;;;;;;
1228.0;1148.0;;;;-0.80209744;0.6100083;-0.23409656;;;;;;;;;;;;;;;
1228.0;1148.0;;;;-0.81385815;0.607956;-0.23357394;;;;;;;;;;;;;;;
1228.0;1158.1;;;;-0.81974804;0.6116753;-0.22994998;;;;;;;;;;;;;;;
1228.0;1158.1;;;;-0.82097256;0.61513525;-0.22856143;;;;;;;;;;;;;;;
1228.0;1158.1;;;;-0.81985104;0.6160584;-0.22778705;;;;;;;;;;;;;;;
1228.0;1158.1;;;;-0.8195993;0.61446387;-0.22674182;;;;;;;;;;;;;;;
1228.0;1158.1;;;;-0.8192102;0.6105004;-0.22529605;;;;;;;;;;;;;;;
1228.0;1160.4;73945;73867;12784;;;;;;;;;;;;;;;;;;
1228.0;1166.8;;;;;;;;;;;;;0;;;;;;;;
1228.0;1166.8;;;;;;;;;;;;;0;;;;;;;;
1228.0;1166.8;;;;;;;;;;;;;-1;;;;;;;;
1228.0;1166.8;;;;;;;;;;;;;-3;;;;;;;;
1228.0;1166.8;;;;;;;;;;;;;-3;;;;;;;;
1230.0;1168.3;;;;-0.8177339;0.6072083;-0.22333911;;;;;;;;;;;;;;;
1230.0;1168.3;;;;-0.8182756;0.6053925;-0.22191623;;;;;;;;;;;;;;;
1230.0;1168.3;;;;-0.81874096;0.6041146;-0.21987537;;;;;;;;;;;;;;;
1230.0;1168.3;;;;-0.81948864;0.6036797;-0.21803287;;;;;;;;;;;;;;;
1230.0;1168.3;;;;-0.82011044;0.6029931;-0.2174454;;;;;;;;;;;;;;;
1230.0;1178.4;;;;-0.81987774;0.6020089;-0.21664432;;;;;;;;;;;;;;;
1230.0;1178.4;;;;-0.8189508;0.6004296;-0.21625522;;;;;;;;;;;;;;;
1230.0;1178.4;;;;-0.8169519;0.59948736;-0.21595767;;;;;;;;;;;;;;;
1230.0;1178.4;;;;-0.81549084;0.5980988;-0.21527866;;;;;;;;;;;;;;;
1230.0;1178.4;;;;-0.8140718;0.59741217;-0.21459582;;;;;;;;;;;;;;;
1230.0;1180.7;90254;90284;12774;;;;;;;;;;;;;;;;;;
1230.0;1182.8;;;;;;;;;;;;;;;;;0.0;0.82399976;-1.4992218;;1100.3
1230.0;1182.8;;;;;;;;;;;;;;0.89584035;0.316599;-0.23871578;;;;;1100.3
1230.0;1182.8;;;;;;;;;;;;;;;;;-0.064851835;0.7477035;-1.3008515;;1100.3
1230.0;1182.8;;;;;;;;;;;;;;0.8960845;0.31598866;-0.23908201;;;;;1100.3
1230.0;1182.8;;;;;;;;;;;;;;;;;-0.11444441;0.7438887;-1.1787775;;1109.9
1230.0;1182.8;;;;;;;;;;;;;;0.89687794;0.31708732;-0.23975341;;;;;1109.9
1230.0;1182.8;;;;;;;;;;;;;;;;;-0.20218512;0.82399976;-0.9193701;;1109.9
1230.0;1182.8;;;;;;;;;;;;;;0.89651173;0.31879634;-0.24115726;;;;;1109.9
1230.0;1182.8;;;;;;;;;;;;;;;;;-0.32807398;0.96896267;-0.77440715;;1119.6
1230.0;1182.8;;;;;;;;;;;;;;0.8937651;0.3175756;-0.24048586;;;;;1119.6
1230.0;1182.8;;;;;;;;;;;;;;;;;-0.48829615;1.0872219;-0.6485183;;1119.6
1230.0;1182.8;;;;;;;;;;;;;;0.89242226;0.31769767;-0.24176763;;;;;1119.6
1290.0;1188.4;;;;-0.81230557;0.5959855;-0.21492007;;;;;;;;;;;;;;;
1290.0;1188.4;;;;-0.8114625;0.595604;-0.21533969;;;;;;;;;;;;;;;
1290.0;1188.4;;;;-0.8111154;0.5953675;-0.21548083;;;;;;;;;;;;;;;
1290.0;1188.4;;;;-0.81102383;0.59413916;-0.21483234;;;;;;;;;;;;;;;
1290.0;1188.4;;;;-0.8111726;0.59354407;-0.2149277;;;;;;;;;;;;;;;
1290.0;1190.2;;;;;;;;;;;;;;;;;-0.614185;1.1482589;-0.59129614;;1129.2
1290.0;1190.2;;;;;;;;;;;;;;0.8913846;0.31690422;-0.24085207;;;;;1129.2
1290.0;1190.2;;;;;;;;;;;;;;;;;-0.7057405;1.1825923;-0.4997406;;1129.2
1290.0;1190.2;;;;;;;;;;;;;;0.8915677;0.31800288;-0.24127933;;;;;1129.2
1290.0;1190.2;;;;;;;;;;;;;;;;;-0.88503677;1.1482589;-0.35096285;;1138.8
1290.0;1190.2;;;;;;;;;;;;;;0.8910794;0.31708732;-0.24073;;;;;1138.8
1290.0;1190.2;;;;;;;;;;;;;;;;;-1.0147405;1.1749626;-0.20599994;;1138.8
1290.0;1190.2;;;;;;;;;;;;;;0.8901639;0.31513414;-0.23999757;;;;;1138.8
1290.0;1190.2;;;;;;;;;;;;;;;;;-1.1101108;1.064333;-0.045777764;;1148.3
1290.0;1190.2;;;;;;;;;;;;;;0.8906522;0.3137913;-0.23895992;;;;;1148.3
1290.0;1190.2;;;;;;;;;;;;;;;;;-1.1902219;0.8888516;0.026703697;;1148.3
1290.0;1190.2;;;;;;;;;;;;;;0.8885159;0.3144017;-0.23981445;;;;;1148.3
1290.0;1198.2;;;;-0.81066525;0.5922738;-0.21529773;;;;;;;;;;;;;;;
1290.0;1198.2;;;;-0.8089105;0.5911065;-0.21613696;;;;;;;;;;;;;;;
1290.0;1198.2;;;;-0.80487835;0.5898972;-0.2161713;;;;;;;;;;;;;;;
1290.0;1198.2;;;;-0.8001214;0.58829504;-0.21558002;;;;;;;;;;;;;;;
1290.0;1198.2;;;;-0.79571164;0.58691794;-0.21404651;;;;;;;;;;;;;;;
1290.0;1200.6;106617;106629;12768;;;;;;;;;;;;;;;;;;
1293.0;1206.9;;;;;;;;;;;;;-4;;;;;;;;
1293.0;1206.9;;;;;;;;;;;;;-13;;;;;;;;
1293.0;1206.9;;;;;;;;;;;;;-10;;;;;;;;
1293.0;1206.9;;;;;;;;;;;;;2;;;;;;;;
1293.0;1206.9;;;;;;;;;;;;;-33;;;;;;;;
1293.0;1208.3;;;;-0.7913476;0.5861626;-0.21343234;;;;;;;;;;;;;;;
1293.0;1208.3;;;;-0.7863809;0.5858498;-0.21281818;;;;;;;;;;;;;;;
1293.0;1208.3;;;;-0.7806665;0.58456045;-0.21249011;;;;;;;;;;;;;;;
1293.0;1208.3;;;;-0.77414715;0.58362967;-0.21193317;;;;;;;;;;;;;;;
1293.0;1208.3;;;;-0.7658578;0.5837136;-0.20951465;;;;;;;;;;;;;;;
1293.0;1218.4;;;;-0.75558865;0.5835152;-0.20736316;;;;;;;;;;;;;;;
1293.0;1218.4;;;;-0.7454987;0.5830689;-0.20576862;;;;;;;;;;;;;;;
1293.0;1218.4;;;;-0.73826605;0.5829049;-0.20385745;;;;;;;;;;;;;;;
1293.0;1218.4;;;;-0.73647314;0.5822106;-0.20293048;;;;;;;;;;;;;;;
1293.0;1218.4;;;;-0.73959357;0.5819321;-0.20212558;;;;;;;;;;;;;;;
1293.0;1220.9;123047;122993;12771;;;;;;;;;;;;;;;;;;
1293.0;1228.6;;;;-0.74533087;0.5814362;-0.2010422;;;;;;;;;;;;;;;
1293.0;1228.6;;;;-0.75138104;0.5806847;-0.19984058;;;;;;;;;;;;;;;
1293.0;1228.6;;;;-0.7568666;0.58046347;-0.19904712;;;;;;;;;;;;;;;
1293.0;1228.6;;;;-0.7626306;0.58022696;-0.19832233;;;;;;;;;;;;;;;
1293.0;1228.6;;;;-0.7671319;0.58046347;-0.19850543;;;;;;;;;;;;;;;
1294.0;1235.6;;;;;;;;;;;;;;;;;-1.2207403;0.7057405;0.04196295;;1158.0
1294.0;1235.6;;;;;;;;;;;;;;0.8898587;0.31452376;-0.24164556;;;;;1158.0
1294.0;1235.6;;;;;;;;;;;;;;;;;-1.1329997;0.614185;0.06103702;;1158.0
1294.0;1235.6;;;;;;;;;;;;;;0.88949245;0.3147679;-0.23877682;;;;;1158.0
1294.0;1235.6;;;;;;;;;;;;;;;;;-1.0986663;0.5417035;0.019074067;;1167.6
1294.0;1235.6;;;;;;;;;;;;;;0.89242226;0.31427962;-0.23700674;;;;;1167.6
1294.0;1235.6;;;;;;;;;;;;;;;;;-0.9765923;0.6408887;-0.057222206;;1167.6
1294.0;1235.6;;;;;;;;;;;;;;0.8955352;0.3134251;-0.23334453;;;;;1167.6
1294.0;1235.6;;;;;;;;;;;;;;;;;-0.9765923;0.82399976;-0.14496292;;1177.3
1294.0;1235.6;;;;;;;;;;;;;;0.8973052;0.31250954;-0.2313303;;;;;1177.3
1294.0;1235.6;;;;;;;;;;;;;;;;;-1.1215552;0.88503677;-0.20981476;;1177.3
1294.0;1235.6;;;;;;;;;;;;;;0.8975494;0.31305888;-0.22913297;;;;;1177.3
1294.0;1238.6;;;;-0.77087414;0.58004385;-0.19880679;;;;;;;;;;;;;;;
1294.0;1238.6;;;;-0.77466595;0.57978064;-0.19882968;;;;;;;;;;;;;;;
1294.0;1238.6;;;;-0.7780763;0.5795174;-0.19935992;;;;;;;;;;;;;;;
1294.0;1238.6;;;;-0.78125775;0.578518;-0.19952396;;;;;;;;;;;;;;;
1294.0;1238.6;;;;-0.78287137;0.57791144;-0.20001605;;;;;;;;;;;;;;;
1294.0;1241.1;139497;139439;12762;;;;;;;;;;;;;;;;;;
1294.0;1247.4;;;;;;;;;;;;;10;;;;;;;;
1294.0;1247.4;;;;;;;;;;;;;-35;;;;;;;;
1294.0;1247.4;;;;;;;;;;;;;-65;;;;;;;;
1294.0;1247.4;;;;;;;;;;;;;132;;;;;;;;
1294.0;1247.4;;;;;;;;;;;;;-241;;;;;;;;
1348.0;1248.7;;;;-0.7836877;0.5765801;-0.20034793;;;;;;;;;;;;;;;
1348.0;1248.7;;;;-0.7826463;0.5754357;-0.20214847;;;;;;;;;;;;;;;
1348.0;1248.7;;;;-0.7811662;0.57443625;-0.20310977;;;;;;;;;;;;;;;
1348.0;1248.7;;;;-0.7797853;0.5735398;-0.20425418;;;;;;;;;;;;;;;
1348.0;1248.7;;;;-0.7797967;0.5731049;-0.20623401;;;;;;;;;;;;;;;
1348.0;1250.7;;;;;;;;;;;;;;;;;-1.1749626;0.84688866;-0.26322216;;1187.0
1348.0;1250.7;;;;;;;;;;;;;;0.8979156;0.31134984;-0.23157445;;;;;1187.0
1348.0;1250.7;;;;;;;;;;;;;;;;;-1.1177404;0.7820368;-0.29374066;;1187.0
1348.0;1250.7;;;;;;;;;;;;;;0.89687794;0.3103122;-0.23261207;;;;;1187.0
1348.0;1250.7;;;;;;;;;;;;;;;;;-1.1215552;0.6599628;-0.38148138;;1196.7
1348.0;1250.7;;;;;;;;;;;;;;0.8971221;0.30994597;-0.23273416;;;;;1196.7
1348.0;1250.7;;;;;;;;;;;;;;;;;-1.1482589;0.67522204;-0.45014802;;1196.7
1348.0;1250.7;;;;;;;;;;;;;;0.8998688;0.30951872;-0.23371075;;;;;1196.7
1348.0;1250.7;;;;;;;;;;;;;;;;;-1.1825923;0.59892577;-0.5645924;;1206.4
1348.0;1250.7;;;;;;;;;;;;;;0.89999086;0.30854213;-0.23474838;;;;;1206.4
1348.0;1250.7;;;;;;;;;;;;;;;;;-1.0986663;0.6218146;-0.7515183;;1206.4
1348.0;1250.7;;;;;;;;;;;;;;0.90029603;0.30738243;-0.23389386;;;;;1206.4
1348.0;1258.5;;;;-0.7809068;0.5725518;-0.20822528;;;;;;;;;;;;;;;
1348.0;1258.5;;;;-0.78245175;0.57176214;-0.20941547;;;;;;;;;;;;;;;
1348.0;1258.5;;;;-0.7849046;0.5710946;-0.21149829;;;;;;;;;;;;;;;
1348.0;1258.5;;;;-0.78678906;0.5707589;-0.21265033;;;;;;;;;;;;;;;
1348.0;1258.5;;;;-0.78761685;0.5705643;-0.21462634;;;;;;;;;;;;;;;
1348.0;1261.0;155784;155759;12763;;;;;;;;;;;;;;;;;;
1350.0;1268.5;;;;-0.7885629;0.5702401;-0.21602634;;;;;;;;;;;;;;;
1350.0;1268.5;;;;-0.7887155;0.5703812;-0.21658328;;;;;;;;;;;;;;;
1350.0;1268.5;;;;-0.7891847;0.570942;-0.21815875;;;;;;;;;;;;;;;
1350.0;1268.5;;;;-0.7911264;0.57091147;-0.21914676;;;;;;;;;;;;;;;
1350.0;1268.5;;;;-0.79306424;0.5716248;-0.21905902;;;;;;;;;;;;;;;
1350.0;1278.6;;;;-0.79446423;0.5723687;-0.22004703;;;;;;;;;;;;;;;
1350.0;1278.6;;;;-0.7964479;0.5729676;-0.22031024;;;;;;;;;;;;;;;
1350.0;1278.6;;;;-0.79890454;0.57303625;-0.21994022;;;;;;;;;;;;;;;
1350.0;1278.6;;;;-0.80074704;0.5734444;-0.21874622;;;;;;;;;;;;;;;
1350.0;1278.6;;;;-0.80186474;0.57397467;-0.21754077;;;;;;;;;;;;;;;
1350.0;1281.2;172139;172094;12755;;;;;;;;;;;;;;;;;;
1350.0;1287.6;;;;;;;;;;;;;-346;;;;;;;;
1350.0;1287.6;;;;;;;;;;;;;636;;;;;;;;
1350.0;1287.6;;;;;;;;;;;;;577;;;;;;;;
1350.0;1287.6;;;;;;;;;;;;;-1538;;;;;;;;
1350.0;1287.6;;;;;;;;;;;;;-3465;;;;;;;;
1350.0;1288.7;;;;-0.8020631;0.57405096;-0.21722415;;;;;;;;;;;;;;;
1350.0;1288.7;;;;-0.8011476;0.5738717;-0.2158089;;;;;;;;;;;;;;;
1350.0;1288.7;;;;-0.7998277;0.57366186;-0.21480182;;;;;;;;;;;;;;;
1350.0;1288.7;;;;-0.79893506;0.57347494;-0.21397403;;;;;;;;;;;;;;;
1350.0;1288.7;;;;-0.79781353;0.5737191;-0.21310809;;;;;;;;;;;;;;;
1352.0;1296.3;;;;;;;;;;;;;;;;;-1.1482589;0.7248146;-0.8125553;;1215.9
1352.0;1296.3;;;;;;;;;;;;;;0.89901423;0.3058565;-0.235786;;;;;1215.9
1352.0;1296.3;;;;;;;;;;;;;;;;;-1.2359996;0.7896664;-0.92318493;;1215.9
1352.0;1296.3;;;;;;;;;;;;;;0.8979156;0.30463576;-0.23590808;;;;;1215.9
1352.0;1296.3;;;;;;;;;;;;;;;;;-1.2207403;0.92318493;-1.0185553;;1225.5
1352.0;1296.3;;;;;;;;;;;;;;0.89797664;0.30384228;-0.23584704;;;;;1225.5
1352.0;1296.3;;;;;;;;;;;;;;;;;-0.9575182;1.1635182;-1.1368145;;1225.5
1352.0;1296.3;;;;;;;;;;;;;;0.89724416;0.3030488;-0.23535874;;;;;1225.5
1352.0;1296.3;;;;;;;;;;;;;;;;;-0.8163701;1.2970366;-1.2665181;;1235.1
1352.0;1296.3;;;;;;;;;;;;;;0.89669484;0.30292672;-0.23456526;;;;;1235.1
1352.0;1296.3;;;;;;;;;;;;;;;;;-0.6637776;1.3466293;-1.3504441;;1235.1
1352.0;1296.3;;;;;;;;;;;;;;0.89999086;0.30231637;-0.2351146;;;;;1235.1
1352.0;1298.7;;;;-0.79646313;0.5741616;-0.21409228;;;;;;;;;;;;;;;
1352.0;1298.7;;;;-0.79506695;0.5733338;-0.21457294;;;;;;;;;;;;;;;
1352.0;1298.7;;;;-0.79498684;0.57342917;-0.21315005;;;;;;;;;;;;;;;
1352.0;1298.7;;;;-0.79597104;0.5732537;-0.21330646;;;;;;;;;;;;;;;
1352.0;1298.7;;;;-0.79685605;0.573288;-0.21436313;;;;;;;;;;;;;;;
1352.0;1301.4;188619;188598;12768;;;;;;;;;;;;;;;;;;
1409.0;1303.4;;;;;;;;;;;;;;;;;-0.57222205;1.4458144;-1.5640736;;1244.8
1409.0;1303.4;;;;;;;;;;;;;;0.90176094;0.30176702;-0.23438215;;;;;1244.8
1409.0;1303.4;;;;;;;;;;;;;;;;;-0.5874813;1.5793328;-1.6060365;;1244.8
1409.0;1303.4;;;;;;;;;;;;;;0.90426344;0.30024108;-0.23688467;;;;;1244.8
1409.0;1303.4;;;;;;;;;;;;;;;;;-0.61037016;1.6289254;-1.678518;;1254.4
1409.0;1303.4;;;;;;;;;;;;;;0.9037141;0.30085146;-0.23877682;;;;;1254.4
1409.0;1303.4;;;;;;;;;;;;;;;;;-0.59129614;1.739555;-1.7853328;;1254.4
1409.0;1303.4;;;;;;;;;;;;;;0.90609455;0.30146185;-0.23883785;;;;;1254.4
1409.0;1303.4;;;;;;;;;;;;;;;;;-0.43870357;1.7777032;-1.903592;;1264.1
1409.0;1303.4;;;;;;;;;;;;;;0.9057894;0.30036318;-0.23773919;;;;;1264.1
1409.0;1303.4;;;;;;;;;;;;;;;;;-0.3013703;1.842555;-2.067629;;1264.1
1409.0;1303.4;;;;;;;;;;;;;;0.90713215;0.30060732;-0.23535874;;;;;1264.1
1409.0;1308.7;;;;-0.7986032;0.5727654;-0.21605304;;;;;;;;;;;;;;;
1409.0;1308.7;;;;-0.799698;0.5722466;-0.21651462;;;;;;;;;;;;;;;
1409.0;1308.7;;;;-0.80271924;0.57173926;-0.21751788;;;;;;;;;;;;;;;
1409.0;1308.7;;;;-0.8060571;0.57122046;-0.21917346;;;;;;;;;;;;;;;
1409.0;1308.7;;;;-0.809414;0.57057196;-0.21990588;;;;;;;;;;;;;;;
1409.0;1318.8;;;;-0.8131219;0.5697518;-0.22004703;;;;;;;;;;;;;;;
1409.0;1318.8;;;;-0.81702435;0.56974036;-0.21891788;;;;;;;;;;;;;;;
1409.0;1318.8;;;;-0.8203546;0.5695382;-0.21807101;;;;;;;;;;;;;;;
1409.0;1318.8;;;;-0.8245965;0.5691529;-0.21844867;;;;;;;;;;;;;;;
1409.0;1318.8;;;;-0.8284036;0.5687066;-0.21855167;;;;;;;;;;;;;;;
1409.0;1321.4;204954;204929;12752;;;;;;;;;;;;;;;;;;
1411.0;1327.6;;;;;;;;;;;;;-2268;;;;;;;;
1411.0;1327.6;;;;;;;;;;;;;1506;;;;;;;;
1411.0;1327.6;;;;;;;;;;;;;4424;;;;;;;;
1411.0;1327.6;;;;;;;;;;;;;4599;;;;;;;;
1411.0;1327.6;;;;;;;;;;;;;3394;;;;;;;;
1411.0;1328.7;;;;-0.8312837;0.5676308;-0.21745303;;;;;;;;;;;;;;;
1411.0;1328.7;;;;-0.83269894;0.56729895;-0.21562198;;;;;;;;;;;;;;;
1411.0;1328.7;;;;-0.8322488;0.56631476;-0.21301273;;;;;;;;;;;;;;;
1411.0;1328.7;;;;-0.8314172;0.5656052;-0.21139911;;;;;;;;;;;;;;;
1411.0;1328.7;;;;-0.8289987;0.5655022;-0.20900348;;;;;;;;;;;;;;;
1411.0;1338.8;;;;-0.826748;0.56548697;-0.20743564;;;;;;;;;;;;;;;
1411.0;1338.8;;;;-0.8253213;0.56509405;-0.2058678;;;;;;;;;;;;;;;
1411.0;1338.8;;;;-0.8224374;0.56517035;-0.20361713;;;;;;;;;;;;;;;
1411.0;1338.8;;;;-0.82088864;0.5647202;-0.200264;;;;;;;;;;;;;;;
1411.0;1338.8;;;;-0.8199502;0.56600195;-0.19758609;;;;;;;;;;;;;;;
1411.0;1341.6;221311;221292;12747;;;;;;;;;;;;;;;;;;
1411.0;1348.9;;;;-0.8182832;0.5678902;-0.19532397;;;;;;;;;;;;;;;
1411.0;1348.9;;;;-0.81612027;0.5685387;-0.19295886;;;;;;;;;;;;;;;
1411.0;1348.9;;;;-0.81393826;0.56982046;-0.18869784;;;;;;;;;;;;;;;
1411.0;1348.9;;;;-0.8108903;0.57028586;-0.18649675;;;;;;;;;;;;;;;
1411.0;1348.9;;;;-0.8062631;0.57059485;-0.18516923;;;;;;;;;;;;;;;
1413.0;1356.2;;;;;;;;;;;;;;;;;-0.18311106;1.7509995;-2.212592;;1273.8
1413.0;1356.2;;;;;;;;;;;;;;0.90914637;0.2999359;-0.23377179;;;;;1273.8
1413.0;1356.2;;;;;;;;;;;;;;;;;-0.049592577;1.6823329;-2.3880734;;1273.8
1413.0;1356.2;;;;;;;;;;;;;;0.90664387;0.29816583;-0.23120824;;;;;1273.8
1413.0;1356.2;;;;;;;;;;;;;;;;;0.17166662;1.7166661;-2.5711844;;1283.4
1413.0;1356.2;;;;;;;;;;;;;;0.9070711;0.2961516;-0.23236793;;;;;1283.4
1413.0;1356.2;;;;;;;;;;;;;;;;;0.38911098;1.7357402;-2.6360364;;1283.4
1413.0;1356.2;;;;;;;;;;;;;;0.90359205;0.2952971;-0.23169653;;;;;1283.4
1413.0;1356.2;;;;;;;;;;;;;;;;;0.44251838;1.659444;-2.746666;;1293.1
1413.0;1356.2;;;;;;;;;;;;;;0.8995026;0.29303873;-0.2323069;;;;;1293.1
1413.0;1356.2;;;;;;;;;;;;;;;;;0.54933316;1.6670736;-2.7771842;;1293.1
1413.0;1356.2;;;;;;;;;;;;;;0.89852595;0.29157385;-0.23389386;;;;;1293.1
1413.0;1358.9;;;;-0.80181134;0.5706826;-0.18334962;;;;;;;;;;;;;;;
1413.0;1358.9;;;;-0.7974397;0.57082754;-0.18156816;;;;;;;;;;;;;;;
1413.0;1358.9;;;;-0.79339993;0.57072073;-0.17910387;;;;;;;;;;;;;;;
1413.0;1358.9;;;;-0.7906953;0.56989294;-0.17749406;;;;;;;;;;;;;;;
1413.0;1358.9;;;;-0.7875825;0.5703545;-0.17568971;;;;;;;;;;;;;;;
1413.0;1361.7;237795;237744;12745;;;;;;;;;;;;;;;;;;
1414.0;1363.7;;;;;;;;;;;;;;;;;0.6408887;1.678518;-2.8420362;;1302.7
1414.0;1363.7;;;;;;;;;;;;;;0.89388716;0.29016998;-0.23584704;;;;;1302.7
1414.0;1363.7;;;;;;;;;;;;;;;;;0.82018495;1.7967772;-2.9374065;;1302.7
1414.0;1363.7;;;;;;;;;;;;;;0.89168984;0.28778955;-0.23523667;;;;;1302.7
1414.0;1363.7;;;;;;;;;;;;;;;;;0.9727775;1.9264809;-2.990814;;1312.3
1414.0;1363.7;;;;;;;;;;;;;;0.89114046;0.28748435;-0.23706779;;;;;1312.3
1414.0;1363.7;;;;;;;;;;;;;;;;;1.12537;1.9760735;-3.055666;;1312.3
1414.0;1363.7;;;;;;;;;;;;;;0.890347;0.28632465;-0.23554185;;;;;1312.3
1414.0;1363.7;;;;;;;;;;;;;;;;;1.411481;2.1324809;-3.151036;;1321.9
1414.0;1363.7;;;;;;;;;;;;;;0.8883938;0.28595844;-0.23841059;;;;;1321.9
1414.0;1363.7;;;;;;;;;;;;;;;;;1.6518143;2.3461106;-3.2082584;;1321.9
1414.0;1363.7;;;;;;;;;;;;;;0.8869289;0.28547013;-0.24091311;;;;;1321.9
1414.0;1367.9;;;;;;;;;;;;;3126;;;;;;;;
1414.0;1367.9;;;;;;;;;;;;;3121;;;;;;;;
1414.0;1367.9;;;;;;;;;;;;;2698;;;;;;;;
1414.0;1367.9;;;;;;;;;;;;;2868;;;;;;;;
1414.0;1367.9;;;;;;;;;;;;;2861;;;;;;;;
1414.0;1368.9;;;;-0.7849542;0.5711327;-0.17368318;;;;;;;;;;;;;;;
1414.0;1368.9;;;;-0.78340924;0.5715142;-0.17269517;;;;;;;;;;;;;;;
1414.0;1368.9;;;;-0.7811891;0.57251364;-0.1706772;;;;;;;;;;;;;;;
1414.0;1368.9;;;;-0.7761308;0.5734597;-0.16843797;;;;;;;;;;;;;;;
1414.0;1368.9;;;;-0.7679292;0.57430655;-0.16640855;;;;;;;;;;;;;;;
1467.0;1379.0;;;;-0.7574655;0.5748368;-0.16541673;;;;;;;;;;;;;;;
1467.0;1379.0;;;;-0.7475663;0.5748063;-0.16346742;;;;;;;;;;;;;;;
1467.0;1379.0;;;;-0.73974234;0.57575613;-0.16104509;;;;;;;;;;;;;;;
1467.0;1379.0;;;;-0.7336121;0.57622534;-0.16033556;;;;;;;;;;;;;;;
1467.0;1379.0;;;;-0.73099524;0.5766869;-0.15737535;;;;;;;;;;;;;;;
1467.0;1381.6;254113;254122;12746;;;;;;;;;;;;;;;;;;
1467.0;1388.8;;;;-0.73170096;0.57809454;-0.15396883;;;;;;;;;;;;;;;
1467.0;1388.8;;;;-0.7327958;0.5799294;-0.15190889;;;;;;;;;;;;;;;
1467.0;1388.8;;;;-0.7337647;0.58146673;-0.15109636;;;;;;;;;;;;;;;
1467.0;1388.8;;;;-0.7345658;0.58310705;-0.15139009;;;;;;;;;;;;;;;
1467.0;1388.8;;;;-0.73519903;0.58427817;-0.15129854;;;;;;;;;;;;;;;
1467.0;1398.9;;;;-0.7372094;0.58598715;-0.15146638;;;;;;;;;;;;;;;
1467.0;1398.9;;;;-0.740284;0.587864;-0.15077592;;;;;;;;;;;;;;;
1467.0;1398.9;;;;-0.7412873;0.58886725;-0.14958955;;;;;;;;;;;;;;;
1467.0;1398.9;;;;-0.73995596;0.5897332;-0.14772035;;;;;;;;;;;;;;;
1467.0;1398.9;;;;-0.7363587;0.59071356;-0.14692308;;;;;;;;;;;;;;;
1467.0;1401.9;262143;262143;12740;;;;;;;;;;;;;;;;;;
1467.0;1408.1;;;;;;;;;;;;;2054;;;;;;;;
1467.0;1408.1;;;;;;;;;;;;;1066;;;;;;;;
1467.0;1408.1;;;;;;;;;;;;;416;;;;;;;;
1467.0;1408.1;;;;;;;;;;;;;158;;;;;;;;
1467.0;1408.1;;;;;;;;;;;;;-52;;;;;;;;
1468.0;1409.0;;;;-0.73154455;0.591446;-0.14739992;;;;;;;;;;;;;;;
1468.0;1409.0;;;;-0.7266961;0.5920716;-0.14738084;;;;;;;;;;;;;;;
1468.0;1409.0;;;;-0.7246323;0.59325033;-0.14728166;;;;;;;;;;;;;;;
1468.0;1409.0;;;;-0.72479254;0.5944329;-0.14782716;;;;;;;;;;;;;;;
1468.0;1409.0;;;;-0.7271462;0.59501654;-0.14945222;;;;;;;;;;;;;;;
1468.0;1416.9;;;;;;;;;;;;;;;;;1.903592;2.4109623;-3.2654805;;1331.4
1468.0;1416.9;;;;;;;;;;;;;;0.88430434;0.28711814;-0.2402417;;;;;1331.4
1468.0;1416.9;;;;;;;;;;;;;;;;;2.3079624;2.3842587;-3.3722954;;1331.4
1468.0;1416.9;;;;;;;;;;;;;;0.885464;0.28846094;-0.242378;;;;;1331.4
1468.0;1416.9;;;;;;;;;;;;;;;;;2.6360364;2.3842587;-3.47911;;1341.1
1468.0;1416.9;;;;;;;;;;;;;;0.8846095;0.29175696;-0.24060793;;;;;1341.1
1468.0;1416.9;;;;;;;;;;;;;;;;;2.967925;2.376629;-3.5096285;;1341.1
1468.0;1416.9;;;;;;;;;;;;;;0.88552505;0.29609057;-0.23834956;;;;;1341.1
1468.0;1416.9;;;;;;;;;;;;;;;;;3.2464066;2.3689995;-3.4752953;;1350.8
1468.0;1416.9;;;;;;;;;;;;;;0.8879666;0.30249947;-0.23590808;;;;;1350.8
1468.0;1416.9;;;;;;;;;;;;;;;;;3.47911;2.4071476;-3.379925;;1350.8
1468.0;1416.9;;;;;;;;;;;;;;0.8893704;0.3098239;-0.23535874;;;;;1350.8
1468.0;1419.0;;;;-0.7312203;0.59602743;-0.15150072;;;;;;;;;;;;;;;
1468.0;1419.0;;;;-0.735714;0.59686667;-0.15296556;;;;;;;;;;;;;;;
1468.0;1419.0;;;;-0.7403565;0.5975304;-0.15343095;;;;;;;;;;;;;;;
1468.0;1419.0;;;;-0.745266;0.59719855;-0.15575029;;;;;;;;;;;;;;;
1468.0;1419.0;;;;-0.7499009;0.5965119;-0.1578026;;;;;;;;;;;;;;;
1468.0;1422.0;262143;262143;12732;;;;;;;;;;;;;;;;;;
1529.0;1424.0;;;;;;;;;;;;;;;;;3.6774805;2.4719992;-3.295999;;1360.5
1529.0;1424.0;;;;;;;;;;;;;;0.8915067;0.31818599;-0.23358867;;;;;1360.5
1529.0;1424.0;;;;;;;;;;;;;;;;;3.7194436;2.418592;-3.0404067;;1360.5
1529.0;1424.0;;;;;;;;;;;;;;0.8899808;0.32544938;-0.23352763;;;;;1360.5
1529.0;1424.0;;;;;;;;;;;;;;;;;3.7041843;2.1820734;-2.8153324;;1370.2
1529.0;1424.0;;;;;;;;;;;;;;0.8904691;0.33326212;-0.23419905;;;;;1370.2
1529.0;1424.0;;;;;;;;;;;;;;;;;3.5782952;1.8120365;-2.582629;;1370.2
1529.0;1424.0;;;;;;;;;;;;;;0.88912624;0.33845028;-0.23535874;;;;;1370.2
1529.0;1424.0;;;;;;;;;;;;;;;;;3.4104435;1.4572588;-2.273629;;1379.8
1529.0;1424.0;;;;;;;;;;;;;;0.8925443;0.3449202;-0.23847163;;;;;1379.8
1529.0;1424.0;;;;;;;;;;;;;;;;;2.9412215;1.4648885;-1.9302957;;1379.8
1529.0;1424.0;;;;;;;;;;;;;;0.89474165;0.34827724;-0.23700674;;;;;1379.8
1529.0;1429.0;;;;-0.7553369;0.5957909;-0.15903093;;;;;;;;;;;;;;;
1529.0;1429.0;;;;-0.7602464;0.59548193;-0.1594887;;;;;;;;;;;;;;;
1529.0;1429.0;;;;-0.7644502;0.59470373;-0.16080095;;;;;;;;;;;;;;;
1529.0;1429.0;;;;-0.7673112;0.59405524;-0.1613579;;;;;;;;;;;;;;;
1529.0;1429.0;;;;-0.76809704;0.5941735;-0.1629181;;;;;;;;;;;;;;;
1529.0;1439.0;;;;-0.7687799;0.59398276;-0.16496278;;;;;;;;;;;;;;;
1529.0;1439.0;;;;-0.76843655;0.59421545;-0.16679002;;;;;;;;;;;;;;;
1529.0;1439.0;;;;-0.7688371;0.5948525;-0.1683426;;;;;;;;;;;;;;;
1529.0;1439.0;;;;-0.7705308;0.59525305;-0.17029954;;;;;;;;;;;;;;;
1529.0;1439.0;;;;-0.77383053;0.5966225;-0.17189409;;;;;;;;;;;;;;;
1529.0;1442.0;262143;262143;12719;;;;;;;;;;;;;;;;;;
1590.0;1448.2;;;;;;;;;;;;;-270;;;;;;;;
1590.0;1448.2;;;;;;;;;;;;;-555;;;;;;;;
1590.0;1448.2;;;;;;;;;;;;;-1112;;;;;;;;
1590.0;1448.2;;;;;;;;;;;;;-1818;;;;;;;;
1590.0;1448.2;;;;;;;;;;;;;-2334;;;;;;;;
1590.0;1449.0;;;;-0.7775308;0.59743506;-0.17276384;;;;;;;;;;;;;;;
1590.0;1449.0;;;;-0.7806665;0.5984269;-0.17392732;;;;;;;;;;;;;;;
1590.0;1449.0;;;;-0.7844087;0.5995713;-0.17325212;;;;;;;;;;;;;;;
1590.0;1449.0;;;;-0.7880174;0.6005135;-0.17425539;;;;;;;;;;;;;;;
1590.0;1449.0;;;;-0.7904855;0.60132986;-0.17653276;;;;;;;;;;;;;;;
1590.0;1459.1;;;;-0.7919351;0.6022454;-0.17579271;;;;;;;;;;;;;;;
1590.0;1459.1;;;;-0.7931863;0.6028901;-0.1755066;;;;;;;;;;;;;;;
1590.0;1459.1;;;;-0.7924882;0.6031342;-0.17515184;;;;;;;;;;;;;;;
1590.0;1459.1;;;;-0.78993237;0.6032525;-0.1753235;;;;;;;;;;;;;;;
1590.0;1459.1;;;;-0.78800213;0.60306555;-0.17545702;;;;;;;;;;;;;;;
1590.0;1462.2;262143;262143;12722;;;;;;;;;;;;;;;;;;
1590.0;1469.2;;;;-0.7871438;0.60210043;-0.1743622;;;;;;;;;;;;;;;
1590.0;1469.2;;;;-0.78837216;0.6004792;-0.1740761;;;;;;;;;;;;;;;
1590.0;1469.2;;;;-0.78979504;0.5991364;-0.1719475;;;;;;;;;;;;;;;
1590.0;1469.2;;;;-0.79283917;0.5979081;-0.16863634;;;;;;;;;;;;;;;
1590.0;1469.2;;;;-0.797619;0.59564596;-0.16884996;;;;;;;;;;;;;;;
1592.0;1476.8;;;;;;;;;;;;;;;;;2.2965178;1.5030366;-1.659444;;1389.5
1592.0;1476.8;;;;;;;;;;;;;;0.8957183;0.34968108;-0.23389386;;;;;1389.5
1592.0;1476.8;;;;;;;;;;;;;;;;;1.7509995;1.7052218;-1.373333;;1389.5
1592.0;1476.8;;;;;;;;;;;;;;0.8951689;0.3526719;-0.2318186;;;;;1389.5
1592.0;1476.8;;;;;;;;;;;;;;;;;1.3962218;1.8044069;-1.2169256;;1399.1
1592.0;1476.8;;;;;;;;;;;;;;0.8942534;0.3543199;-0.2323069;;;;;1399.1
1592.0;1476.8;;;;;;;;;;;;;;;;;1.0719626;1.7128513;-1.0567034;;1399.1
1592.0;1476.8;;;;;;;;;;;;;;0.89309365;0.35291603;-0.23065889;;;;;1399.1
1592.0;1476.8;;;;;;;;;;;;;;;;;0.82399976;1.5335552;-0.92318493;;1408.7
1592.0;1476.8;;;;;;;;;;;;;;0.89132357;0.35291603;-0.23071994;;;;;1408.7
1592.0;1476.8;;;;;;;;;;;;;;;;;0.6408887;1.2588885;-0.82399976;;1408.7
1592.0;1476.8;;;;;;;;;;;;;;0.8938261;0.35279396;-0.23035371;;;;;1408.7
1592.0;1479.2;;;;-0.80388653;0.5933762;-0.1692772;;;;;;;;;;;;;;;
1592.0;1479.2;;;;-0.8100015;0.5909882;-0.16864397;;;;;;;;;;;;;;;
1592.0;1479.2;;;;-0.81419766;0.5888024;-0.16672517;;;;;;;;;;;;;;;
1592.0;1479.2;;;;-0.8146707;0.58640677;-0.16601564;;;;;;;;;;;;;;;
1592.0;1479.2;;;;-0.8121377;0.58549124;-0.16691972;;;;;;;;;;;;;;;
1592.0;1482.4;262143;262143;12706;;;;;;;;;;;;;;;;;;
1592.0;1488.6;;;;;;;;;;;;;-2628;;;;;;;;
1592.0;1488.6;;;;;;;;;;;;;-3161;;;;;;;;
1592.0;1488.6;;;;;;;;;;;;;-4109;;;;;;;;
1592.0;1488.6;;;;;;;;;;;;;-4863;;;;;;;;
1592.0;1488.6;;;;;;;;;;;;;-5097;;;;;;;;
1593.0;1489.3;;;;-0.8081895;0.5844422;-0.16803743;;;;;;;;;;;;;;;
1593.0;1489.3;;;;-0.8023721;0.5826188;-0.16820909;;;;;;;;;;;;;;;
1593.0;1489.3;;;;-0.7966043;0.58149725;-0.16740419;;;;;;;;;;;;;;;
1593.0;1489.3;;;;-0.7948266;0.5809899;-0.16656114;;;;;;;;;;;;;;;
1593.0;1489.3;;;;-0.79356396;0.58082587;-0.16466524;;;;;;;;;;;;;;;
1593.0;1491.9;;;;;;;;;;;;;;;;;0.6218146;1.1825923;-0.71718496;;1418.3
1593.0;1491.9;;;;;;;;;;;;;;0.8959624;0.35139012;-0.23004852;;;;;1418.3
1593.0;1491.9;;;;;;;;;;;;;;;;;0.59511095;1.1482589;-0.6408887;;1418.3
1593.0;1491.9;;;;;;;;;;;;;;0.8976104;0.34986418;-0.23169653;;;;;1418.3
1593.0;1491.9;;;;;;;;;;;;;;;;;0.5226295;1.0605181;-0.57222205;;1427.9
1593.0;1491.9;;;;;;;;;;;;;;0.89638966;0.34827724;-0.23352763;;;;;1427.9
1593.0;1491.9;;;;;;;;;;;;;;;;;0.42344433;1.083407;-0.5874813;;1427.9
1593.0;1491.9;;;;;;;;;;;;;;0.89492476;0.3439436;-0.23535874;;;;;1427.9
1593.0;1491.9;;;;;;;;;;;;;;;;;0.3929258;1.1139256;-0.4158147;;1437.6
1593.0;1491.9;;;;;;;;;;;;;;0.8930326;0.34186834;-0.23639637;;;;;1437.6
1593.0;1491.9;;;;;;;;;;;;;;;;;0.19455549;1.1444441;-0.27085176;;1437.6
1593.0;1491.9;;;;;;;;;;;;;;0.89187294;0.33985412;-0.2327952;;;;;1437.6
1593.0;1499.2;;;;-0.79314053;0.58092886;-0.16345216;;;;;;;;;;;;;;;
1593.0;1499.2;;;;-0.7928239;0.58107764;-0.16141511;;;;;;;;;;;;;;;
1593.0;1499.2;;;;-0.79270566;0.58037955;-0.1595955;;;;;;;;;;;;;;;
1593.0;1499.2;;;;-0.7930032;0.58011633;-0.15821077;;;;;;;;;;;;;;;
1593.0;1499.2;;;;-0.79286206;0.5790749;-0.15754701;;;;;;;;;;;;;;;
1593.0;1502.3;262143;262143;12705;;;;;;;;;;;;;;;;;;
1595.0;1509.1;;;;-0.7927972;0.5778313;-0.15760423;;;;;;;;;;;;;;;
1595.0;1509.1;;;;-0.79205334;0.5764199;-0.15700532;;;;;;;;;;;;;;;
1595.0;1509.1;;;;-0.78985226;0.5750542;-0.15659334;;;;;;;;;;;;;;;
1595.0;1509.1;;;;-0.786934;0.57350165;-0.1562195;;;;;;;;;;;;;;;
1595.0;1509.1;;;;-0.7823869;0.5718766;-0.15501405;;;;;;;;;;;;;;;
1595.0;1519.2;;;;-0.7777978;0.57043844;-0.1546631;;;;;;;;;;;;;;;
1595.0;1519.2;;;;-0.7737161;0.5689202;-0.15569307;;;;;;;;;;;;;;;
1595.0;1519.2;;;;-0.7707139;0.56758124;-0.15635301;;;;;;;;;;;;;;;
1595.0;1519.2;;;;-0.7675668;0.5658913;-0.15840913;;;;;;;;;;;;;;;
1595.0;1519.2;;;;-0.7653314;0.56467825;-0.15875627;;;;;;;;;;;;;;;
1595.0;1522.5;262143;262143;12705;;;;;;;;;;;;;;;;;;
1595.0;1528.7;;;;;;;;;;;;;-5385;;;;;;;;
1595.0;1528.7;;;;;;;;;;;;;-5934;;;;;;;;
1595.0;1528.7;;;;;;;;;;;;;-6065;;;;;;;;
1595.0;1528.7;;;;;;;;;;;;;-5389;;;;;;;;
1595.0;1528.7;;;;;;;;;;;;;-4385;;;;;;;;
1595.0;1529.3;;;;-0.76324856;0.5634232;-0.15851976;;;;;;;;;;;;;;;
1595.0;1529.3;;;;-0.7620126;0.56259924;-0.15736772;;;;;;;;;;;;;;;
1595.0;1529.3;;;;-0.76041806;0.5622025;-0.15702058;;;;;;;;;;;;;;;
1595.0;1529.3;;;;-0.7597734;0.5617371;-0.15759279;;;;;;;;;;;;;;;
1595.0;1529.3;;;;-0.75881207;0.56112295;-0.15869905;;;;;;;;;;;;;;;
1596.0;1537.1;;;;;;;;;;;;;;;;;-0.022888882;1.2245551;-0.095370345;;1447.3
1596.0;1537.1;;;;;;;;;;;;;;0.89059114;0.3370464;-0.23261207;;;;;1447.3
1596.0;1537.1;;;;;;;;;;;;;;;;;-0.09155553;1.4191107;-0.019074067;;1447.3
1596.0;1537.1;;;;;;;;;;;;;;0.88827175;0.3368633;-0.22772911;;;;;1447.3
1596.0;1537.1;;;;;;;;;;;;;;;;;-0.10299997;1.5068514;0.064851835;;1457.0
1596.0;1537.1;;;;;;;;;;;;;;0.88644063;0.33845028;-0.22528763;;;;;1457.0
1596.0;1537.1;;;;;;;;;;;;;;;;;-0.015259255;1.411481;0.14496292;;1457.0
1596.0;1537.1;;;;;;;;;;;;;;0.8849147;0.33808404;-0.22168645;;;;;1457.0
1596.0;1537.1;;;;;;;;;;;;;;;;;0.11444441;1.0910367;0.24414808;;1466.6
1596.0;1537.1;;;;;;;;;;;;;;0.8860134;0.3368633;-0.22351757;;;;;1466.6
1596.0;1537.1;;;;;;;;;;;;;;;;;0.110629596;0.93081456;0.23270364;;1466.6
1596.0;1537.1;;;;;;;;;;;;;;0.88717306;0.33710745;-0.2245552;;;;;1466.6
1596.0;1537.8;;;;;;;;;;;;;;;;;0.064851835;0.8964812;0.38148138;;1476.3
1596.0;1537.8;;;;;;;;;;;;;;0.8923612;0.33771783;-0.22730187;;;;;1476.3
1596.0;1537.8;;;;;;;;;;;;;;;;;-0.10681479;1.045259;0.48448133;;1476.3
1596.0;1537.8;;;;;;;;;;;;;;0.8955962;0.33722952;-0.22821741;;;;;1476.3
1596.0;1537.8;;;;;;;;;;;;;;;;;-0.26322216;1.2359996;0.5378887;;1485.9
1596.0;1537.8;;;;;;;;;;;;;;0.8984039;0.33320108;-0.22730187;;;;;1485.9
1596.0;1537.8;;;;;;;;;;;;;;;;;-0.3318888;1.4572588;0.5417035;;1485.9
1596.0;1537.8;;;;;;;;;;;;;;0.89852595;0.33314005;-0.22534868;;;;;1485.9
1596.0;1537.8;;;;;;;;;;;;;;;;;-0.20599994;1.6937773;0.45777765;;1495.6
1596.0;1537.8;;;;;;;;;;;;;;0.897;0.33295694;-0.22363964;;;;;1495.6
1596.0;1537.8;;;;;;;;;;;;;;;;;-0.11825922;1.8158513;0.43488875;;1495.6
1596.0;1537.8;;;;;;;;;;;;;;0.8962676;0.33283487;-0.21997742;;;;;1495.6
1648.0;1539.2;;;;-0.758423;0.56070715;-0.16054918;;;;;;;;;;;;;;;
1648.0;1539.2;;;;-0.7586938;0.560566;-0.16214372;;;;;;;;;;;;;;;
1648.0;1539.2;;;;-0.760357;0.5600434;-0.16326906;;;;;;;;;;;;;;;
1648.0;1539.2;;;;-0.7625047;0.5596314;-0.16363908;;;;;;;;;;;;;;;
1648.0;1539.2;;;;-0.76475537;0.5596352;-0.16407396;;;;;;;;;;;;;;;
1648.0;1542.5;262143;262143;12698;;;;;;;;;;;;;;;;;;
1648.0;1549.3;;;;-0.76749814;0.5596352;-0.16407777;;;;;;;;;;;;;;;
1648.0;1549.3;;;;-0.7700921;0.55927664;-0.1638756;;;;;;;;;;;;;;;
1648.0;1549.3;;;;-0.77370846;0.55904394;-0.16360094;;;;;;;;;;;;;;;
1648.0;1549.3;;;;-0.7764398;0.5592957;-0.16223909;;;;;;;;;;;;;;;
1648.0;1549.3;;;;-0.7773744;0.5593911;-0.16125871;;;;;;;;;;;;;;;
1648.0;1559.3;;;;-0.7764398;0.55932623;-0.15936281;;;;;;;;;;;;;;;
1648.0;1559.3;;;;-0.77408993;0.55935293;-0.1585808;;;;;;;;;;;;;;;
1648.0;1559.3;;;;-0.7715608;0.5595055;-0.15557863;;;;;;;;;;;;;;;
1648.0;1559.3;;;;-0.76931775;0.5595589;-0.15343858;;;;;;;;;;;;;;;
1648.0;1559.3;;;;-0.76771176;0.5600968;-0.15021135;;;;;;;;;;;;;;;
1648.0;1562.7;262143;262143;12689;;;;;;;;;;;;;;;;;;
1648.0;1568.6;;;;;;;;;;;;;-3392;;;;;;;;
1648.0;1568.6;;;;;;;;;;;;;-2074;;;;;;;;
1648.0;1568.6;;;;;;;;;;;;;-353;;;;;;;;
1648.0;1568.6;;;;;;;;;;;;;1187;;;;;;;;
1648.0;1568.6;;;;;;;;;;;;;2113;;;;;;;;
1651.0;1569.1;;;;-0.76674664;0.5604058;-0.14642717;;;;;;;;;;;;;;;
1651.0;1569.1;;;;-0.76614773;0.56049734;-0.14161684;;;;;;;;;;;;;;;
1651.0;1569.1;;;;-0.7647096;0.56132513;-0.13666917;;;;;;;;;;;;;;;
1651.0;1569.1;;;;-0.763836;0.56151587;-0.13035585;;;;;;;;;;;;;;;
1651.0;1569.1;;;;-0.76317227;0.5615693;-0.12378313;;;;;;;;;;;;;;;
1651.0;1579.2;;;;-0.76298916;0.5616799;-0.1173134;;;;;;;;;;;;;;;
1651.0;1579.2;;;;-0.76182187;0.5623856;-0.11178209;;;;;;;;;;;;;;;
1651.0;1579.2;;;;-0.7586366;0.5642434;-0.10518266;;;;;;;;;;;;;;;
1651.0;1579.2;;;;-0.759884;0.5635491;-0.10386278;;;;;;;;;;;;;;;
1651.0;1579.2;;;;-0.7432175;0.5716401;-0.08890153;;;;;;;;;;;;;;;
1651.0;1582.7;262143;262143;12694;;;;;;;;;;;;;;;;;;
1651.0;1589.4;;;;-0.7355233;0.5777016;-0.090702064;;;;;;;;;;;;;;;
1651.0;1589.4;;;;-0.7659532;0.5630799;-0.1042061;;;;;;;;;;;;;;;
1651.0;1589.4;;;;-0.79820263;0.54772955;-0.097793594;;;;;;;;;;;;;;;
1651.0;1589.4;;;;-0.8066484;0.54677206;-0.086170204;;;;;;;;;;;;;;;
1651.0;1589.4;;;;-0.80218136;0.55390173;-0.084945686;;;;;;;;;;;;;;;
1653.0;1597.3;;;;;;;;;;;;;;;;;-0.18692587;1.8807031;0.37766656;;1505.3
1653.0;1597.3;;;;;;;;;;;;;;0.89565724;0.33216345;-0.22363964;;;;;1505.3
1653.0;1597.3;;;;;;;;;;;;;;;;;-0.32044435;1.8768883;0.3357036;;1505.3
1653.0;1597.3;;;;;;;;;;;;;;0.8948637;0.3327128;-0.22107609;;;;;1505.3
1653.0;1597.3;;;;;;;;;;;;;;;;;-0.5302591;1.9302957;0.48829615;;1514.8
1653.0;1597.3;;;;;;;;;;;;;;0.895352;0.33216345;-0.22205268;;;;;1514.8
1653.0;1597.3;;;;;;;;;;;;;;;;;-0.76296276;1.9722588;0.5798517;;1514.8
1653.0;1597.3;;;;;;;;;;;;;;0.89492476;0.33344522;-0.22504349;;;;;1514.8
1653.0;1597.3;;;;;;;;;;;;;;;;;-0.96896267;2.067629;0.6408887;;1524.4
1653.0;1597.3;;;;;;;;;;;;;;0.89278847;0.33356732;-0.22431104;;;;;1524.4
1653.0;1597.3;;;;;;;;;;;;;;;;;-1.083407;2.1210363;0.6828517;;1524.4
1653.0;1597.3;;;;;;;;;;;;;;0.89242226;0.33710745;-0.22278512;;;;;1524.4
1653.0;1598.1;;;;;;;;;;;;;;;;;-1.0414442;2.006592;0.7248146;;1534.0
1653.0;1598.1;;;;;;;;;;;;;;0.89327675;0.33692434;-0.22589801;;;;;1534.0
1653.0;1598.1;;;;;;;;;;;;;;;;;-0.99185157;1.9989624;0.7057405;;1534.0
1653.0;1598.1;;;;;;;;;;;;;;0.8915677;0.33777887;-0.22589801;;;;;1534.0
1653.0;1598.1;;;;;;;;;;;;;;;;;-0.8125553;2.067629;0.6637776;;1543.7
1653.0;1598.1;;;;;;;;;;;;;;0.8928495;0.33814508;-0.22632527;;;;;1543.7
1653.0;1598.1;;;;;;;;;;;;;;;;;-0.87740713;1.9951477;0.5798517;;1543.7
1653.0;1598.1;;;;;;;;;;;;;;0.891995;0.33472702;-0.22858363;;;;;1543.7
1653.0;1598.1;;;;;;;;;;;;;;;;;-0.79729605;2.0409255;0.43488875;;1553.4
1653.0;1598.1;;;;;;;;;;;;;;0.89205605;0.3344218;-0.22840053;;;;;1553.4
1653.0;1598.1;;;;;;;;;;;;;;;;;-0.87740713;2.1820734;0.3318888;;1553.4
1653.0;1598.1;;;;;;;;;;;;;;0.8921781;0.3324076;-0.23187964;;;;;1553.4
1707.0;1599.3;;;;-0.8002244;0.5572205;-0.0878563;;;;;;;;;;;;;;;
1707.0;1599.3;;;;-0.8008996;0.55730444;-0.08914948;;;;;;;;;;;;;;;
1707.0;1599.3;;;;-0.7987596;0.55826956;-0.08782578;;;;;;;;;;;;;;;
1707.0;1599.3;;;;-0.79711163;0.5600243;-0.089183815;;;;;;;;;;;;;;;
1707.0;1599.3;;;;-0.7986795;0.5611878;-0.09055329;;;;;;;;;;;;;;;
1707.0;1602.8;262143;262143;12685;;;;;;;;;;;;;;;;;;
1707.0;1609.0;;;;;;;;;;;;;2715;;;;;;;;
1707.0;1609.0;;;;;;;;;;;;;3319;;;;;;;;
1707.0;1609.0;;;;;;;;;;;;;3617;;;;;;;;
1707.0;1609.0;;;;;;;;;;;;;3511;;;;;;;;
1707.0;1609.0;;;;;;;;;;;;;3512;;;;;;;;
1707.0;1609.4;;;;-0.80513394;0.5619393;-0.09215928;;;;;;;;;;;;;;;
1707.0;1609.4;;;;-0.8119165;0.5620385;-0.09500505;;;;;;;;;;;;;;;
1707.0;1609.4;;;;-0.81557477;0.5620957;-0.098533645;;;;;;;;;;;;;;;
1707.0;1609.4;;;;-0.816826;0.56244284;-0.1023369;;;;;;;;;;;;;;;
1707.0;1609.4;;;;-0.815796;0.5631562;-0.10547258;;;;;;;;;;;;;;;
1707.0;1619.4;;;;-0.8148881;0.5621148;-0.108871475;;;;;;;;;;;;;;;
1707.0;1619.4;;;;-0.81365216;0.5614434;-0.11230852;;;;;;;;;;;;;;;
1707.0;1619.4;;;;-0.81048214;0.56060416;-0.116741195;;;;;;;;;;;;;;;
1707.0;1619.4;;;;-0.8089982;0.5584069;-0.123237625;;;;;;;;;;;;;;;
1707.0;1619.4;;;;-0.8097917;0.55746466;-0.12999345;;;;;;;;;;;;;;;
1707.0;1623.0;262143;262143;12678;;;;;;;;;;;;;;;;;;
1711.0;1629.3;;;;-0.8118745;0.55416495;-0.13588335;;;;;;;;;;;;;;;
1711.0;1629.3;;;;-0.81133664;0.54952246;-0.14218523;;;;;;;;;;;;;;;
1711.0;1629.3;;;;-0.8120805;0.545723;-0.14982606;;;;;;;;;;;;;;;
1711.0;1629.3;;;;-0.8106233;0.54363257;-0.15559007;;;;;;;;;;;;;;;
1711.0;1629.3;;;;-0.80682385;0.5425797;-0.16236879;;;;;;;;;;;;;;;
1711.0;1639.4;;;;-0.8066217;0.54165655;-0.16977693;;;;;;;;;;;;;;;
1711.0;1639.4;;;;-0.8079454;0.5399018;-0.17477037;;;;;;;;;;;;;;;
1711.0;1639.4;;;;-0.81053936;0.53934103;-0.18103792;;;;;;;;;;;;;;;
1711.0;1639.4;;;;-0.8155519;0.53682715;-0.18688203;;;;;;;;;;;;;;;
1711.0;1639.4;;;;-0.8160974;0.53721243;-0.18951419;;;;;;;;;;;;;;;
1711.0;1643.0;262143;262143;12667;;;;;;;;;;;;;;;;;;
1711.0;1649.2;;;;;;;;;;;;;3702;;;;;;;;
1711.0;1649.2;;;;;;;;;;;;;3614;;;;;;;;
1711.0;1649.2;;;;;;;;;;;;;3217;;;;;;;;
1711.0;1649.2;;;;;;;;;;;;;2968;;;;;;;;
1711.0;1649.2;;;;;;;;;;;;;2978;;;;;;;;
1711.0;1649.5;;;;-0.81291974;0.53968054;-0.19388202;;;;;;;;;;;;;;;
1711.0;1649.5;;;;-0.808941;0.54428107;-0.1980553;;;;;;;;;;;;;;;
1711.0;1649.5;;;;-0.803959;0.54274374;-0.20393756;;;;;;;;;;;;;;;
1711.0;1649.5;;;;-0.79026425;0.53978735;-0.2086449;;;;;;;;;;;;;;;
1711.0;1649.5;;;;-0.7770692;0.54399496;-0.21099094;;;;;;;;;;;;;;;
1712.0;1657.6;;;;;;;;;;;;;;;;;-1.1177404;2.2965178;0.2517777;;1563.1
1712.0;1657.6;;;;;;;;;;;;;;0.8905301;0.3300882;-0.23194067;;;;;1563.1
1712.0;1657.6;;;;;;;;;;;;;;;;;-1.3122959;2.315592;0.11444441;;1563.1
1712.0;1657.6;;;;;;;;;;;;;;0.8899808;0.32691428;-0.23053682;;;;;1563.1
1712.0;1657.6;;;;;;;;;;;;;;;;;-1.4076662;2.3461106;-0.019074067;;1572.7
1712.0;1657.6;;;;;;;;;;;;;;0.89077425;0.32306895;-0.22827846;;;;;1572.7
1712.0;1657.6;;;;;;;;;;;;;;;;;-1.4610736;2.395703;-0.19837031;;1572.7
1712.0;1657.6;;;;;;;;;;;;;;0.890347;0.32026124;-0.227546;;;;;1572.7
1712.0;1657.6;;;;;;;;;;;;;;;;;-1.3389996;2.3461106;-0.34333324;;1582.2
1712.0;1657.6;;;;;;;;;;;;;;0.89132357;0.3173925;-0.23151341;;;;;1582.2
1712.0;1657.6;;;;;;;;;;;;;;;;;-1.2741477;2.3651845;-0.54933316;;1582.2
1712.0;1657.6;;;;;;;;;;;;;;0.89059114;0.31586656;-0.23358867;;;;;1582.2
1712.0;1658.8;;;;;;;;;;;;;;;;;-1.045259;2.5292215;-0.6904813;;1591.8
1712.0;1658.8;;;;;;;;;;;;;;0.89205605;0.3136082;-0.23316142;;;;;1591.8
1712.0;1658.8;;;;;;;;;;;;;;;;;-0.93081456;2.8382213;-0.7667776;;1591.8
1712.0;1658.8;;;;;;;;;;;;;;0.8946806;0.31250954;-0.23224586;;;;;1591.8
1712.0;1658.8;;;;;;;;;;;;;;;;;-0.80111086;2.9602954;-0.8926664;;1601.4
1712.0;1658.8;;;;;;;;;;;;;;0.8939482;0.31067842;-0.23139134;;;;;1601.4
1712.0;1658.8;;;;;;;;;;;;;;;;;-0.54551834;3.2082584;-1.0414442;;1601.4
1712.0;1658.8;;;;;;;;;;;;;;0.89407027;0.31073946;-0.22907193;;;;;1601.4
1712.0;1658.8;;;;;;;;;;;;;;;;;-0.16403699;3.2654805;-1.2245551;;1611.1
1712.0;1658.8;;;;;;;;;;;;;;0.8939482;0.31116673;-0.2287057;;;;;1611.1
1712.0;1658.8;;;;;;;;;;;;;;;;;0.29755548;3.3761103;-1.4801477;;1611.1
1712.0;1658.8;;;;;;;;;;;;;;0.8918119;0.3119602;-0.229194;;;;;1611.1
1768.0;1659.5;;;;-0.7692338;0.5466195;-0.2138634;;;;;;;;;;;;;;;
1768.0;1659.5;;;;-0.76139843;0.5469666;-0.21445087;;;;;;;;;;;;;;;
1768.0;1659.5;;;;-0.7509767;0.5478707;-0.21571735;;;;;;;;;;;;;;;
1768.0;1659.5;;;;-0.7434426;0.5486794;-0.21965793;;;;;;;;;;;;;;;
1768.0;1659.5;;;;-0.73780066;0.5509835;-0.21997836;;;;;;;;;;;;;;;
1768.0;1663.2;262143;262143;12648;;;;;;;;;;;;;;;;;;
1768.0;1669.6;;;;-0.7317353;0.5523415;-0.22070315;;;;;;;;;;;;;;;
1768.0;1669.6;;;;-0.727974;0.55579;-0.22394946;;;;;;;;;;;;;;;
1768.0;1669.6;;;;-0.7257958;0.55611426;-0.22483829;;;;;;;;;;;;;;;
1768.0;1669.6;;;;-0.7273064;0.55647284;-0.22917178;;;;;;;;;;;;;;;
1768.0;1669.6;;;;-0.7289162;0.5549889;-0.23439792;;;;;;;;;;;;;;;
1768.0;1679.6;;;;-0.7265778;0.55348974;-0.23438266;;;;;;;;;;;;;;;
1768.0;1679.6;;;;-0.72092825;0.5527497;-0.23249057;;;;;;;;;;;;;;;
1768.0;1679.6;;;;-0.71976477;0.5534516;-0.23155215;;;;;;;;;;;;;;;
1768.0;1679.6;;;;-0.7183762;0.5537301;-0.23228839;;;;;;;;;;;;;;;
1768.0;1679.6;;;;-0.71490103;0.5526734;-0.23312;;;;;;;;;;;;;;;
1768.0;1683.2;262143;262143;12620;;;;;;;;;;;;;;;;;;
1768.0;1689.1;;;;;;;;;;;;;2878;;;;;;;;
1768.0;1689.1;;;;;;;;;;;;;2443;;;;;;;;
1768.0;1689.1;;;;;;;;;;;;;2089;;;;;;;;
1768.0;1689.1;;;;;;;;;;;;;2087;;;;;;;;
1768.0;1689.1;;;;;;;;;;;;;1960;;;;;;;;
1770.0;1689.3;;;;-0.7086716;0.5503922;-0.23397449;;;;;;;;;;;;;;;
1770.0;1689.3;;;;-0.7065659;0.55175406;-0.23464969;;;;;;;;;;;;;;;
1770.0;1689.3;;;;-0.7041245;0.5540009;-0.23326877;;;;;;;;;;;;;;;
1770.0;1689.3;;;;-0.69918066;0.55564123;-0.23424914;;;;;;;;;;;;;;;
1770.0;1689.3;;;;-0.69518286;0.55500036;-0.23312381;;;;;;;;;;;;;;;
1770.0;1699.5;;;;-0.6932946;0.5558701;-0.23023608;;;;;;;;;;;;;;;
1770.0;1699.5;;;;-0.6940957;0.5573998;-0.22753909;;;;;;;;;;;;;;;
1770.0;1699.5;;;;-0.69922644;0.5575562;-0.22332385;;;;;;;;;;;;;;;
1770.0;1699.5;;;;-0.7073098;0.56106955;-0.21841815;;;;;;;;;;;;;;;
1770.0;1699.5;;;;-0.71892554;0.56695944;-0.21240619;;;;;;;;;;;;;;;
1770.0;1703.2;262143;262143;12613;;;;;;;;;;;;;;;;;;
1770.0;1709.6;;;;-0.72868735;0.56989294;-0.20716098;;;;;;;;;;;;;;;
1770.0;1709.6;;;;-0.7363053;0.5738717;-0.20289996;;;;;;;;;;;;;;;
1770.0;1709.6;;;;-0.7417527;0.57901007;-0.19644168;;;;;;;;;;;;;;;
1770.0;1709.6;;;;-0.7477265;0.5861016;-0.1904755;;;;;;;;;;;;;;;
1770.0;1709.6;;;;-0.75252926;0.5892182;-0.18606187;;;;;;;;;;;;;;;
1784.0;1717.8;;;;;;;;;;;;;;;;;0.6599628;3.360851;-1.7509995;;1620.7
1784.0;1717.8;;;;;;;;;;;;;;0.8891873;0.3103122;-0.22943816;;;;;1620.7
1784.0;1717.8;;;;;;;;;;;;;;;;;0.9765923;3.2044435;-1.9684439;;1620.7
1784.0;1717.8;;;;;;;;;;;;;;0.88680685;0.31055635;-0.22876675;;;;;1620.7
1784.0;1717.8;;;;;;;;;;;;;;;;;1.3580737;2.994629;-2.1095922;;1630.3
1784.0;1717.8;;;;;;;;;;;;;;0.8858913;0.30970183;-0.23071994;;;;;1630.3
1784.0;1717.8;;;;;;;;;;;;;;;;;1.7509995;2.8382213;-2.277444;;1630.3
1784.0;1717.8;;;;;;;;;;;;;;0.885464;0.31055635;-0.23212378;;;;;1630.3
1784.0;1717.8;;;;;;;;;;;;;;;;;1.9951477;2.704703;-2.399518;;1640.0
1784.0;1717.8;;;;;;;;;;;;;;0.8858303;0.31232643;-0.23273416;;;;;1640.0
1784.0;1717.8;;;;;;;;;;;;;;;;;2.1095922;2.666555;-2.5482955;;1640.0
1784.0;1717.8;;;;;;;;;;;;;;0.88576925;0.31293678;-0.23328349;;;;;1640.0
1784.0;1718.6;;;;;;;;;;;;;;;;;2.3651845;2.6703696;-2.727592;;1649.6
1784.0;1718.6;;;;;;;;;;;;;;0.8847926;0.31354716;-0.2318186;;;;;1649.6
1784.0;1718.6;;;;;;;;;;;;;;;;;2.5673697;2.6055179;-2.887814;;1649.6
1784.0;1718.6;;;;;;;;;;;;;;0.8858303;0.31397444;-0.23322245;;;;;1649.6
1784.0;1718.6;;;;;;;;;;;;;;;;;2.8382213;2.704703;-2.9602954;;1659.2
1784.0;1718.6;;;;;;;;;;;;;;0.88595235;0.31470686;-0.23249;;;;;1659.2
1784.0;1718.6;;;;;;;;;;;;;;;;;2.9259622;2.9259622;-3.0785549;;1659.2
1784.0;1718.6;;;;;;;;;;;;;;0.8836329;0.3137913;-0.2323069;;;;;1659.2
1784.0;1718.6;;;;;;;;;;;;;;;;;2.929777;3.0175178;-3.1357768;;1668.9
1784.0;1718.6;;;;;;;;;;;;;;0.88412124;0.31250954;-0.23462631;;;;;1668.9
1784.0;1718.6;;;;;;;;;;;;;;;;;2.746666;3.0823696;-3.1777399;;1668.9
1784.0;1718.6;;;;;;;;;;;;;;0.8834498;0.31073946;-0.23389386;;;;;1668.9
1796.0;1719.6;;;;-0.75605786;0.5913392;-0.183342;;;;;;;;;;;;;;;
1796.0;1719.6;;;;-0.755726;0.5947991;-0.18003465;;;;;;;;;;;;;;;
1796.0;1719.6;;;;-0.7498322;0.5969849;-0.1758156;;;;;;;;;;;;;;;
1796.0;1719.6;;;;-0.7416764;0.59748846;-0.17153169;;;;;;;;;;;;;;;
1796.0;1719.6;;;;-0.73118216;0.5978814;-0.16846468;;;;;;;;;;;;;;;
1796.0;1723.4;262143;262143;12601;;;;;;;;;;;;;;;;;;
1796.0;1729.5;;;;;;;;;;;;;1736;;;;;;;;
1796.0;1729.5;;;;;;;;;;;;;1801;;;;;;;;
1796.0;1729.5;;;;;;;;;;;;;1939;;;;;;;;
1796.0;1729.5;;;;;;;;;;;;;1935;;;;;;;;
1796.0;1729.5;;;;;;;;;;;;;1886;;;;;;;;
1796.0;1729.7;;;;-0.7229729;0.59816366;-0.16670229;;;;;;;;;;;;;;;
1796.0;1729.7;;;;-0.7184716;0.5980378;-0.16736986;;;;;;;;;;;;;;;
1796.0;1729.7;;;;-0.72019964;0.6002465;-0.17199327;;;;;;;;;;;;;;;
1796.0;1729.7;;;;-0.72952276;0.6023751;-0.1773224;;;;;;;;;;;;;;;
1796.0;1729.7;;;;-0.74047476;0.6026879;-0.18104555;;;;;;;;;;;;;;;
1796.0;1739.7;;;;-0.7538606;0.6019669;-0.18608095;;;;;;;;;;;;;;;
1796.0;1739.7;;;;-0.7644998;0.6011048;-0.18956378;;;;;;;;;;;;;;;
1796.0;1739.7;;;;-0.7740747;0.6041413;-0.19113162;;;;;;;;;;;;;;;
1796.0;1739.7;;;;-0.7793771;0.60877615;-0.19548419;;;;;;;;;;;;;;;
1796.0;1739.7;;;;-0.7763177;0.6179734;-0.20175555;;;;;;;;;;;;;;;
1796.0;1739.8;;;;;;;;;;1.678518;19.642475;-1.1558886;;;;;;;;;
1796.0;1739.8;;;;;;;0.74648273;-0.5851619;-0.15411848;;;;;;;;;;;;
1796.0;1739.8;;;;;;;;;;5.0202947;32.444992;9.842219;;;;;;;;;
1796.0;1739.8;;;;;;;0.83639026;-0.6513871;-0.17621388;;;;;;;;;;;;
1827.0;1743.4;262143;262143;12587;;;;;;;;;;;;;;;;;;
1827.0;1749.3;;;;;;;;;;-2.4147773;8.075961;-1.4572588;;;;;;;;;
1827.0;1749.3;;;;;;;0.827662;-0.6456496;-0.18042544;;;;;;;;;;;;
1827.0;1749.3;;;;;;;;;;5.069887;18.311106;6.5424056;;;;;;;;;
1827.0;1749.3;;;;;;;0.819361;-0.6405225;-0.17859432;;;;;;;;;;;;
1827.0;1749.6;;;;-0.7898408;0.6170998;-0.21291354;;;;;;;;;;;;;;;
1827.0;1749.6;;;;-0.7976304;0.61679846;-0.22149661;;;;;;;;;;;;;;;
1827.0;1749.6;;;;-0.8021394;0.6160622;-0.23162463;;;;;;;;;;;;;;;
1827.0;1749.6;;;;-0.80077374;0.6150933;-0.2381325;;;;;;;;;;;;;;;
1827.0;1749.6;;;;-0.7987138;0.6125031;-0.2477608;;;;;;;;;;;;;;;
1827.0;1758.9;;;;;;;;;;5.1728873;20.18418;6.5347757;;;;;;;;;
1827.0;1758.9;;;;;;;0.8108768;-0.63252664;-0.17554247;;;;;;;;;;;;
1827.0;1758.9;;;;;;;;;;-0.43870357;-14.206367;-15.072329;;;;;;;;;
1827.0;1758.9;;;;;;;0.8065432;-0.6295968;-0.17401654;;;;;;;;;;;;
1827.0;1759.7;;;;-0.79999554;0.61261374;-0.2526169;;;;;;;;;;;;;;;
1827.0;1759.7;;;;-0.8057176;0.6151772;-0.25281146;;;;;;;;;;;;;;;
1827.0;1759.7;;;;-0.81066906;0.6176835;-0.25718692;;;;;;;;;;;;;;;
1827.0;1759.7;;;;-0.8064157;0.62089545;-0.25812152;;;;;;;;;;;;;;;
1827.0;1759.7;;;;-0.79641354;0.62492377;-0.259182;;;;;;;;;;;;;;;
1827.0;1763.7;262143;262143;12595;;;;;;;;;;;;;;;;;;
1829.0;1768.6;;;;;;;;;;-1.1978515;-12.520218;-16.434217;;;;;;;;;
1829.0;1768.6;;;;;;;0.81710255;-0.633198;-0.17145298;;;;;;;;;;;;
1829.0;1768.6;;;;;;;;;;-1.823481;-10.162663;-18.31492;;;;;;;;;
1829.0;1768.6;;;;;;;0.8142949;-0.63161105;-0.16956083;;;;;;;;;;;;
1829.0;1769.8;;;;;;;;;;;;;1930;;;;;;;;
1829.0;1769.8;;;;;;;;;;;;;1966;;;;;;;;
1829.0;1769.8;;;;;;;;;;;;;1971;;;;;;;;
1829.0;1769.8;;;;;;;;;;;;;1985;;;;;;;;
1829.0;1769.8;;;;;;;;;;;;;1957;;;;;;;;
1829.0;1769.8;;;;-0.7963754;0.6212197;-0.26415256;;;;;;;;;;;;;;;
1829.0;1769.8;;;;-0.80926526;0.61622244;-0.26241305;;;;;;;;;;;;;;;
1829.0;1769.8;;;;-0.81118786;0.61814505;-0.2651482;;;;;;;;;;;;;;;
1829.0;1769.8;;;;-0.81634533;0.6244355;-0.26912692;;;;;;;;;;;;;;;
1829.0;1769.8;;;;-0.82260907;0.62097174;-0.26139072;;;;;;;;;;;;;;;
1829.0;1778.3;;;;;;;;;;;;;;;;;2.5940733;3.0861845;-3.1205175;;1678.5
1829.0;1778.3;;;;;;;;;;;;;;0.8860134;0.31086153;-0.23566394;;;;;1678.5
1829.0;1778.3;;;;;;;;;;;;;;;;;2.4262216;3.1014435;-2.9412215;;1678.5
1829.0;1778.3;;;;;;;;;;;;;;0.8869289;0.31006807;-0.23621327;;;;;1678.5
1829.0;1778.3;;;;;;;;;;;;;;;;;2.1439252;2.8954437;-2.7962584;;1688.2
1829.0;1778.3;;;;;;;;;;;;;;0.8893704;0.30988494;-0.23902097;;;;;1688.2
1829.0;1778.3;;;;;;;;;;;;;;;;;1.7967772;2.7924435;-2.639851;;1688.2
1829.0;1778.3;;;;;;;;;;;;;;0.8933988;0.31159398;-0.24341564;;;;;1688.2
1829.0;1778.3;;;;;;;;;;;;;;;;;1.5411848;2.9641104;-2.4071476;;1697.6
1829.0;1778.3;;;;;;;;;;;;;;0.89400923;0.31092256;-0.24231696;;;;;1697.6
1829.0;1778.3;;;;;;;;;;;;;;;;;1.3199255;2.9412215;-2.3232217;;1697.6
1829.0;1778.3;;;;;;;;;;;;;;0.8948637;0.31269264;-0.24201179;;;;;1697.6
1830.0;1778.2;;;;;;;;;;-2.7886288;0.29374066;-14.004181;;;;;;;;;
1830.0;1778.2;;;;;;;0.81606495;-0.62263864;-0.16583759;;;;;;;;;;;;
1830.0;1778.2;;;;;;;;;;-3.3455918;10.95996;-7.37785;;;;;;;;;
1830.0;1778.2;;;;;;;0.8175909;-0.6214179;-0.1607715;;;;;;;;;;;;
1830.0;1779.4;;;;;;;;;;;;;;;;;1.2855922;2.8725548;-2.2583697;;1707.3
1830.0;1779.4;;;;;;;;;;;;;;0.8979156;0.31104466;-0.23834956;;;;;1707.3
1830.0;1779.4;;;;;;;;;;;;;;;;;1.3809626;2.8534806;-2.25074;;1707.3
1830.0;1779.4;;;;;;;;;;;;;;0.89687794;0.31318095;-0.23877682;;;;;1707.3
1830.0;1779.4;;;;;;;;;;;;;;;;;1.6708884;2.8305917;-2.311777;;1717.0
1830.0;1779.4;;;;;;;;;;;;;;0.89785457;0.3137913;-0.23786126;;;;;1717.0
1830.0;1779.4;;;;;;;;;;;;;;;;;2.0332959;2.8077028;-2.3613698;;1717.0
1830.0;1779.4;;;;;;;;;;;;;;0.8984039;0.31311992;-0.23767816;;;;;1717.0
1830.0;1779.4;;;;;;;;;;;;;;;;;2.3041475;3.0442214;-2.3728142;;1726.6
1830.0;1779.4;;;;;;;;;;;;;;0.89767146;0.31592762;-0.23670156;;;;;1726.6
1830.0;1779.4;;;;;;;;;;;;;;;;;2.4414806;3.212073;-2.395703;;1726.6
1830.0;1779.4;;;;;;;;;;;;;;0.89706105;0.3157445;-0.23426008;;;;;1726.6
1830.0;1779.8;;;;-0.8190843;0.6249314;-0.26500705;;;;;;;;;;;;;;;
1830.0;1779.8;;;;-0.81245434;0.62424475;-0.2648392;;;;;;;;;;;;;;;
1830.0;1779.8;;;;-0.8072854;0.62050253;-0.25800708;;;;;;;;;;;;;;;
1830.0;1779.8;;;;-0.81238186;0.61643606;-0.25582126;;;;;;;;;;;;;;;
1830.0;1779.8;;;;-0.8085214;0.6141663;-0.25436023;;;;;;;;;;;;;;;
1830.0;1783.8;262143;262143;12592;;;;;;;;;;;;;;;;;;
1889.0;1787.7;;;;;;;;;;-3.276925;12.741478;-7.1298866;;;;;;;;;
1889.0;1787.7;;;;;;;0.81771296;-0.6180608;-0.15881832;;;;;;;;;;;;
1889.0;1787.7;;;;;;;;;;-3.131962;14.080477;-7.141331;;;;;;;;;
1889.0;1787.7;;;;;;;0.81283;-0.6160466;-0.15881832;;;;;;;;;;;;
1889.0;1789.9;;;;-0.8009416;0.6113091;-0.25095752;;;;;;;;;;;;;;;
1889.0;1789.9;;;;-0.7920152;0.6125031;-0.2509766;;;;;;;;;;;;;;;
1889.0;1789.9;;;;-0.7876283;0.61436087;-0.24905398;;;;;;;;;;;;;;;
1889.0;1789.9;;;;-0.7900125;0.612938;-0.25026324;;;;;;;;;;;;;;;
1889.0;1789.9;;;;-0.7761613;0.61020285;-0.24638751;;;;;;;;;;;;;;;
1889.0;1797.2;;;;;;;;;;-2.910703;15.179143;-7.229072;;;;;;;;;
1889.0;1797.2;;;;;;;0.81081575;-0.6136662;-0.15710929;;;;;;;;;;;;
1889.0;1797.2;;;;;;;;;;-2.6093326;16.052736;-7.1985536;;;;;;;;;
1889.0;1797.2;;;;;;;0.80898464;-0.6114078;-0.15887935;;;;;;;;;;;;
1889.0;1799.9;;;;-0.7603494;0.6063538;-0.24694446;;;;;;;;;;;;;;;
1889.0;1799.9;;;;-0.7557832;0.6019669;-0.251915;;;;;;;;;;;;;;;
1889.0;1799.9;;;;-0.7621194;0.5995026;-0.24927524;;;;;;;;;;;;;;;
1889.0;1799.9;;;;-0.7717172;0.60202795;-0.24524692;;;;;;;;;;;;;;;
1889.0;1799.9;;;;-0.7829858;0.6058846;-0.24351886;;;;;;;;;;;;;;;
1889.0;1803.9;262143;262143;12614;;;;;;;;;;;;;;;;;;
1889.0;1806.6;;;;;;;;;;-2.334666;16.869106;-7.221442;;;;;;;;;
1889.0;1806.6;;;;;;;0.80751973;-0.60982084;-0.15979491;;;;;;;;;;;;
1889.0;1806.6;;;;;;;;;;-2.010407;17.464216;-7.209998;;;;;;;;;
1889.0;1806.6;;;;;;;0.8037965;-0.6068911;-0.15997803;;;;;;;;;;;;
1890.0;1809.8;;;;-0.7923089;0.60939795;-0.23848727;;;;;;;;;;;;;;;
1890.0;1809.8;;;;-0.8014413;0.6110535;-0.23890308;;;;;;;;;;;;;;;
1890.0;1809.8;;;;-0.80233395;0.6133042;-0.23635104;;;;;;;;;;;;;;;
1890.0;1809.8;;;;-0.8061334;0.6138535;-0.23480609;;;;;;;;;;;;;;;
1890.0;1809.8;;;;-0.80524457;0.61679083;-0.23064044;;;;;;;;;;;;;;;
1890.0;1809.8;;;;;;;;;;;;;1994;;;;;;;;
1890.0;1809.8;;;;;;;;;;;;;1948;;;;;;;;
1890.0;1809.8;;;;;;;;;;;;;1929;;;;;;;;
1890.0;1809.8;;;;;;;;;;;;;2158;;;;;;;;
1890.0;1809.8;;;;;;;;;;;;;2080;;;;;;;;
1890.0;1816.2;;;;;;;;;;-1.7548143;17.525253;-6.851405;;;;;;;;;
1890.0;1816.2;;;;;;;0.7922605;-0.6041444;-0.15820795;;;;;;;;;;;;
1890.0;1816.2;;;;;;;;;;-1.411481;17.330698;-6.2906275;;;;;;;;;
1890.0;1816.2;;;;;;;0.77846617;-0.6025575;-0.15478988;;;;;;;;;;;;
1890.0;1819.9;;;;-0.80207074;0.62019354;-0.2300606;;;;;;;;;;;;;;;
1890.0;1819.9;;;;-0.7892839;0.6222306;-0.22947696;;;;;;;;;;;;;;;
1890.0;1819.9;;;;-0.7751733;0.62463385;-0.23536304;;;;;;;;;;;;;;;
1890.0;1819.9;;;;-0.7723886;0.62655264;-0.2442551;;;;;;;;;;;;;;;
1890.0;1819.9;;;;-0.77730954;0.62899405;-0.25065997;;;;;;;;;;;;;;;
1890.0;1824.0;262143;262143;12648;;;;;;;;;;;;;;;;;;
1890.0;1825.8;;;;;;;;;;-1.3046663;16.922514;-5.8633685;;;;;;;;;
1890.0;1825.8;;;;;;;0.7574694;-0.6015198;-0.15063937;;;;;;;;;;;;
1890.0;1825.8;;;;;;;;;;-1.3885921;16.537218;-5.7031465;;;;;;;;;
1890.0;1825.8;;;;;;;0.73677784;-0.60048217;-0.14465773;;;;;;;;;;;;
1892.0;1830.0;;;;-0.7731744;0.62901694;-0.25648502;;;;;;;;;;;;;;;
1892.0;1830.0;;;;-0.7705995;0.63639075;-0.26111987;;;;;;;;;;;;;;;
1892.0;1830.0;;;;-0.7773706;0.6326638;-0.26969913;;;;;;;;;;;;;;;
1892.0;1830.0;;;;-0.7769929;0.6339341;-0.280674;;;;;;;;;;;;;;;
1892.0;1830.0;;;;-0.7708436;0.6314736;-0.2891312;;;;;;;;;;;;;;;
1892.0;1835.5;;;;;;;;;;-1.4152958;15.945921;-5.5887017;;;;;;;;;
1892.0;1835.5;;;;;;;0.7375103;-0.59993285;-0.14221625;;;;;;;;;;;;
1892.0;1835.5;;;;;;;;;;-1.5449996;15.160069;-5.5619984;;;;;;;;;
1892.0;1835.5;;;;;;;0.7508774;-0.59828484;-0.14191107;;;;;;;;;;;;
1892.0;1838.5;;;;;;;;;;;;;;;;;2.4910734;3.357036;-2.3918884;;1736.3
1892.0;1838.5;;;;;;;;;;;;;;0.8973662;0.31519517;-0.23334453;;;;;1736.3
1892.0;1838.5;;;;;;;;;;;;;;;;;2.475814;3.3989992;-2.2965178;;1736.3
1892.0;1838.5;;;;;;;;;;;;;;0.8967559;0.3147679;-0.23084201;;;;;1736.3
1892.0;1838.5;;;;;;;;;;;;;;;;;2.4414806;3.295999;-2.2812586;;1745.8
1892.0;1838.5;;;;;;;;;;;;;;0.89651173;0.31550035;-0.23059785;;;;;1745.8
1892.0;1838.5;;;;;;;;;;;;;;;;;2.5330362;3.2654805;-2.2164068;;1745.8
1892.0;1838.5;;;;;;;;;;;;;;0.8931547;0.316599;-0.23071994;;;;;1745.8
1892.0;1838.5;;;;;;;;;;;;;;;;;2.66274;3.2502213;-2.1477401;;1755.5
1892.0;1838.5;;;;;;;;;;;;;;0.89278847;0.31666005;-0.2313303;;;;;1755.5
1892.0;1838.5;;;;;;;;;;;;;;;;;2.5978882;3.3455918;-2.1095922;;1755.5
1892.0;1838.5;;;;;;;;;;;;;;0.89040804;0.3173925;-0.22974335;;;;;1755.5
1893.0;1839.3;;;;;;;;;;;;;;;;;2.7008882;3.1701102;-2.0638144;;1765.1
1893.0;1839.3;;;;;;;;;;;;;;0.8933988;0.31653798;-0.23145238;;;;;1765.1
1893.0;1839.3;;;;;;;;;;;;;;;;;2.8801844;3.154851;-2.0485551;;1765.1
1893.0;1839.3;;;;;;;;;;;;;;0.8951689;0.31690422;-0.22931609;;;;;1765.1
1893.0;1839.3;;;;;;;;;;;;;;;;;2.967925;3.2006288;-2.0180366;;1774.7
1893.0;1839.3;;;;;;;;;;;;;;0.89504683;0.31556138;-0.23059785;;;;;1774.7
1893.0;1839.3;;;;;;;;;;;;;;;;;3.055666;3.3417768;-2.029481;;1774.7
1893.0;1839.3;;;;;;;;;;;;;;0.8946196;0.31427962;-0.23114718;;;;;1774.7
1893.0;1839.3;;;;;;;;;;;;;;;;;3.2235177;3.4638507;-2.0027773;;1784.4
1893.0;1839.3;;;;;;;;;;;;;;0.8937651;0.31415755;-0.22937712;;;;;1784.4
1893.0;1839.3;;;;;;;;;;;;;;;;;3.4218879;3.360851;-2.006592;;1784.4
1893.0;1839.3;;;;;;;;;;;;;;0.89419234;0.31330302;-0.2296823;;;;;1784.4
1893.0;1840.0;;;;-0.76098263;0.62683874;-0.2984276;;;;;;;;;;;;;;;
1893.0;1840.0;;;;-0.7527238;0.6220971;-0.30492404;;;;;;;;;;;;;;;
1893.0;1840.0;;;;-0.7483254;0.6167107;-0.3129616;;;;;;;;;;;;;;;
1893.0;1840.0;;;;-0.7525903;0.614914;-0.32195666;;;;;;;;;;;;;;;
1893.0;1840.0;;;;-0.75395215;0.61215216;-0.33036044;;;;;;;;;;;;;;;
1893.0;1844.1;262143;262143;12673;;;;;;;;;;;;;;;;;;
1893.0;1845.0;;;;;;;;;;-1.5640736;14.370403;-5.794702;;;;;;;;;
1893.0;1845.0;;;;;;;0.76216924;-0.5978576;-0.14093448;;;;;;;;;;;;
1893.0;1845.0;;;;;;;;;;-1.4992218;13.565478;-6.14948;;;;;;;;;
1893.0;1845.0;;;;;;;0.77407146;-0.5971862;-0.14148381;;;;;;;;;;;;
1949.0;1850.1;;;;-0.7512857;0.61391836;-0.33980182;;;;;;;;;;;;;;;
1949.0;1850.1;;;;-0.749981;0.6086884;-0.34479144;;;;;;;;;;;;;;;
1949.0;1850.1;;;;-0.7430306;0.606865;-0.34907916;;;;;;;;;;;;;;;
1949.0;1850.1;;;;-0.7355309;0.6009484;-0.35907748;;;;;;;;;;;;;;;
1949.0;1850.1;;;;-0.72367483;0.58650213;-0.36400226;;;;;;;;;;;;;;;
1949.0;1850.2;;;;;;;;;;;;;1898;;;;;;;;
1949.0;1850.2;;;;;;;;;;;;;2005;;;;;;;;
1949.0;1850.2;;;;;;;;;;;;;1932;;;;;;;;
1949.0;1850.2;;;;;;;;;;;;;1503;;;;;;;;
1949.0;1850.2;;;;;;;;;;;;;1098;;;;;;;;
1949.0;1854.5;;;;;;;;;;-1.4572588;13.164922;-6.3058867;;;;;;;;;
1949.0;1854.5;;;;;;;0.7807245;-0.5957213;-0.14239937;;;;;;;;;;;;
1949.0;1854.5;;;;;;;;;;-1.4801477;13.000885;-6.2257757;;;;;;;;;
1949.0;1854.5;;;;;;;0.7806635;-0.59181494;-0.14282663;;;;;;;;;;;;
1949.0;1860.1;;;;-0.7111893;0.5842896;-0.3571625;;;;;;;;;;;;;;;
1949.0;1860.1;;;;-0.7351189;0.57853323;-0.36983112;;;;;;;;;;;;;;;
1949.0;1860.1;;;;-0.7576524;0.5773316;-0.37476352;;;;;;;;;;;;;;;
1949.0;1860.1;;;;-0.7639924;0.59016424;-0.38140112;;;;;;;;;;;;;;;
1949.0;1860.1;;;;-0.7598268;0.60329443;-0.3835526;;;;;;;;;;;;;;;
1949.0;1864.0;;;;;;;;;;-1.4877774;12.741478;-5.901517;;;;;;;;;
1949.0;1864.0;;;;;;;0.7795648;-0.5890683;-0.14716025;;;;;;;;;;;;
1949.0;1864.0;;;;;;;;;;-1.5068514;46722;-5.546739;;;;;;;;;
1949.0;1864.0;;;;;;;0.7806635;-0.5880917;-0.15106662;;;;;;;;;;;;
1949.0;1864.2;262143;262143;12701;;;;;;;;;;;;;;;;;;
1950.0;1869.9;;;;-0.76155484;0.6103783;-0.38711935;;;;;;;;;;;;;;;
1950.0;1869.9;;;;-0.7688829;0.6107827;-0.38932806;;;;;;;;;;;;;;;
1950.0;1869.9;;;;-0.7800256;0.6082383;-0.39451224;;;;;;;;;;;;;;;
1950.0;1869.9;;;;-0.80002224;0.6002503;-0.40266043;;;;;;;;;;;;;;;
1950.0;1869.9;;;;-0.8058969;0.58761984;-0.40767294;;;;;;;;;;;;;;;
1950.0;1873.4;;;;;;;;;;-1.4419996;12.558367;-5.493332;;;;;;;;;
1950.0;1873.4;;;;;;;0.78377634;-0.58717614;-0.15472884;;;;;;;;;;;;
1950.0;1873.4;;;;;;;;;;-1.3695182;12.3638115;-5.5887017;;;;;;;;;
1950.0;1873.4;;;;;;;0.78542435;-0.5885189;-0.15698722;;;;;;;;;;;;
1950.0;1880.0;;;;-0.78966916;0.57773596;-0.4027596;;;;;;;;;;;;;;;
1950.0;1880.0;;;;-0.76706326;0.5749665;-0.39316565;;;;;;;;;;;;;;;
1950.0;1880.0;;;;-0.77873623;0.57275015;-0.39202887;;;;;;;;;;;;;;;
1950.0;1880.0;;;;-0.8016397;0.5857621;-0.38463598;;;;;;;;;;;;;;;
1950.0;1880.0;;;;-0.798813;0.58889776;-0.3985749;;;;;;;;;;;;;;;
1950.0;1883.1;;;;;;;;;;-1.3199255;12.504959;-5.6421094;;;;;;;;;
1950.0;1883.1;;;;;;;0.7895138;-0.5863826;-0.16254158;;;;;;;;;;;;
1950.0;1883.1;;;;;;;;;;-1.1711478;12.890255;-5.5047765;;;;;;;;;
1950.0;1883.1;;;;;;;0.7945799;-0.58821374;-0.16187018;;;;;;;;;;;;
1950.0;1884.3;262143;262143;12727;;;;;;;;;;;;;;;;;;
1951.0;1890.1;;;;-0.7865335;0.5857888;-0.38678366;;;;;;;;;;;;;;;
1951.0;1890.1;;;;-0.7772027;0.58321005;-0.38569647;;;;;;;;;;;;;;;
1951.0;1890.1;;;;-0.77759564;0.57903296;-0.3837586;;;;;;;;;;;;;;;
1951.0;1890.1;;;;-0.78867733;0.57715994;-0.3797379;;;;;;;;;;;;;;;
1951.0;1890.1;;;;-0.80669034;0.5777131;-0.3792382;;;;;;;;;;;;;;;
1951.0;1890.3;;;;;;;;;;;;;1201;;;;;;;;
1951.0;1890.3;;;;;;;;;;;;;1567;;;;;;;;
1951.0;1890.3;;;;;;;;;;;;;1544;;;;;;;;
1951.0;1890.3;;;;;;;;;;;;;1125;;;;;;;;
1951.0;1890.3;;;;;;;;;;;;;747;;;;;;;;
1951.0;1892.7;;;;;;;;;;-1.12537;13.744773;-5.466628;;;;;;;;;
1951.0;1892.7;;;;;;;0.79927975;-0.5899228;-0.16235848;;;;;;;;;;;;
1951.0;1892.7;;;;;;;;;;-0.9346294;14.793848;-5.4818873;;;;;;;;;
1951.0;1892.7;;;;;;;0.8004395;-0.5899228;-0.15814692;;;;;;;;;;;;
1951.0;1898.8;;;;;;;;;;;;;;;;;3.810999;3.360851;-2.0485551;;1794.0
1951.0;1898.8;;;;;;;;;;;;;;0.8933988;0.3144017;-0.23249;;;;;1794.0
1951.0;1898.8;;;;;;;;;;;;;;;;;4.1772213;3.3112583;-2.0447402;;1794.0
1951.0;1898.8;;;;;;;;;;;;;;0.89437544;0.31696525;-0.23364972;;;;;1794.0
1951.0;1898.8;;;;;;;;;;;;;;;;;4.440443;3.173925;-2.029481;;1803.7
1951.0;1898.8;;;;;;;;;;;;;;0.8928495;0.31849116;-0.23688467;;;;;1803.7
1951.0;1898.8;;;;;;;;;;;;;;;;;4.688406;3.131962;-2.010407;;1803.7
1951.0;1898.8;;;;;;;;;;;;;;0.89291054;0.31867427;-0.235786;;;;;1803.7
1951.0;1898.8;;;;;;;;;;;;;;;;;4.7647023;3.2807398;-1.9722588;;1813.3
1951.0;1898.8;;;;;;;;;;;;;;0.89602345;0.3187353;-0.23474838;;;;;1813.3
1951.0;1898.8;;;;;;;;;;;;;;;;;4.875332;3.4943693;-1.8921475;;1813.3
1951.0;1898.8;;;;;;;;;;;;;;0.8957793;0.3175756;-0.2318186;;;;;1813.3
1953.0;1899.6;;;;;;;;;;;;;;;;;4.970702;3.711814;-1.7509995;;1822.7
1953.0;1899.6;;;;;;;;;;;;;;0.8966338;0.31830806;-0.22748497;;;;;1822.7
1953.0;1899.6;;;;;;;;;;;;;;;;;4.989776;3.7232583;-1.6632588;;1822.7
1953.0;1899.6;;;;;;;;;;;;;;0.8955962;0.3175756;-0.2233955;;;;;1822.7
1953.0;1899.6;;;;;;;;;;;;;;;;;5.115665;3.5897398;-1.7357402;;1832.4
1953.0;1899.6;;;;;;;;;;;;;;0.8959624;0.31629384;-0.22394483;;;;;1832.4
1953.0;1899.6;;;;;;;;;;;;;;;;;5.371258;3.5821102;-1.7967772;;1832.4
1953.0;1899.6;;;;;;;;;;;;;;0.8941313;0.3195288;-0.21759698;;;;;1832.4
1953.0;1899.6;;;;;;;;;;;;;;;;;5.500962;3.4257026;-1.823481;;1842.1
1953.0;1899.6;;;;;;;;;;;;;;0.8957793;0.31818599;-0.219306;;;;;1842.1
1953.0;1899.6;;;;;;;;;;;;;;;;;5.516221;3.5706656;-1.8387402;;1842.1
1953.0;1899.6;;;;;;;;;;;;;;0.8955352;0.31928465;-0.22107609;;;;;1842.1
1953.0;1900.1;;;;-0.82856;0.57688147;-0.381836;;;;;;;;;;;;;;;
1953.0;1900.1;;;;-0.8365518;0.574997;-0.3757401;;;;;;;;;;;;;;;
1953.0;1900.1;;;;-0.82693875;0.5740128;-0.3780709;;;;;;;;;;;;;;;
1953.0;1900.1;;;;-0.81964123;0.5717736;-0.37961966;;;;;;;;;;;;;;;
1953.0;1900.1;;;;-0.8185922;0.56096274;-0.38598257;;;;;;;;;;;;;;;
1953.0;1902.2;;;;;;;;;;-0.8049257;15.846737;-5.4246655;;;;;;;;;
1953.0;1902.2;;;;;;;0.79677725;-0.5888241;-0.15741447;;;;;;;;;;;;
1953.0;1902.2;;;;;;;;;;-0.6065554;16.876738;-5.1614428;;;;;;;;;
1953.0;1902.2;;;;;;;0.7936033;-0.58949554;-0.15594958;;;;;;;;;;;;
1953.0;1904.5;262143;262143;12751;;;;;;;;;;;;;;;;;;
1954.0;1910.2;;;;-0.7936059;0.55844504;-0.36994937;;;;;;;;;;;;;;;
1954.0;1910.2;;;;-0.80199444;0.5537339;-0.37631994;;;;;;;;;;;;;;;
1954.0;1910.2;;;;-0.81266415;0.55291754;-0.38058096;;;;;;;;;;;;;;;
1954.0;1910.2;;;;-0.7989274;0.55494696;-0.3865052;;;;;;;;;;;;;;;
1954.0;1910.2;;;;-0.7721559;0.56187826;-0.38901526;;;;;;;;;;;;;;;
1954.0;1911.8;;;;;;;;;;-0.44251838;17.731255;-5.0660725;;;;;;;;;
1954.0;1911.8;;;;;;;0.7928709;-0.5906552;-0.15570544;;;;;;;;;;;;
1954.0;1911.8;;;;;;;;;;-0.35096285;18.429365;-5.165258;;;;;;;;;
1954.0;1911.8;;;;;;;0.79409164;-0.5889462;-0.15765862;;;;;;;;;;;;
1954.0;1914.1;;;;;;;;;;;;;;;;;5.493332;3.7690358;-1.8845179;;1851.8
1954.0;1914.1;;;;;;;;;;;;;;0.8931547;0.32026124;-0.21991637;;;;;1851.8
1954.0;1914.1;;;;;;;;;;;;;;;;;5.542924;3.910184;-1.9150364;;1851.8
1954.0;1914.1;;;;;;;;;;;;;;0.89187294;0.31965086;-0.22101505;;;;;1851.8
1954.0;1914.1;;;;;;;;;;;;;;;;;5.6192203;4.020814;-2.0027773;;1861.4
1954.0;1914.1;;;;;;;;;;;;;;0.89223915;0.31928465;-0.22150335;;;;;1861.4
1954.0;1914.1;;;;;;;;;;;;;;;;;5.710776;4.0475173;-2.0256662;;1861.4
1954.0;1914.1;;;;;;;;;;;;;;0.8904691;0.32007813;-0.22132023;;;;;1861.4
1954.0;1914.1;;;;;;;;;;;;;;;;;5.687887;4.0093694;-2.006592;;1871.0
1954.0;1914.1;;;;;;;;;;;;;;0.8915677;0.3188574;-0.22119816;;;;;1871.0
1954.0;1914.1;;;;;;;;;;;;;;;;;5.5200357;4.127629;-2.0599995;;1871.0
1954.0;1914.1;;;;;;;;;;;;;;0.89022493;0.31958982;-0.21796319;;;;;1871.0
2006.0;1920.1;;;;-0.75229657;0.5627976;-0.38960272;;;;;;;;;;;;;;;
2006.0;1920.1;;;;-0.74999624;0.56252295;-0.3913918;;;;;;;;;;;;;;;
2006.0;1920.1;;;;-0.7682878;0.5607491;-0.39482123;;;;;;;;;;;;;;;
2006.0;1920.1;;;;-0.78923047;0.55798346;-0.40061957;;;;;;;;;;;;;;;
2006.0;1920.1;;;;-0.8121301;0.5573006;-0.40131384;;;;;;;;;;;;;;;
2006.0;1921.2;;;;;;;;;;-0.20599994;19.245735;-5.3292947;;;;;;;;;
2006.0;1921.2;;;;;;;0.801355;-0.58821374;-0.16095462;;;;;;;;;;;;
2006.0;1921.2;;;;;;;;;;-0.038148135;20.332956;-5.558183;;;;;;;;;
2006.0;1921.2;;;;;;;0.8086184;-0.58717614;-0.16254158;;;;;;;;;;;;
2006.0;1924.2;262143;262143;12758;;;;;;;;;;;;;;;;;;
2006.0;1929.9;;;;-0.8254663;0.5545922;-0.40599066;;;;;;;;;;;;;;;
2006.0;1929.9;;;;-0.8236505;0.5513688;-0.40868002;;;;;;;;;;;;;;;
2006.0;1929.9;;;;-0.8037187;0.5498696;-0.40679175;;;;;;;;;;;;;;;
2006.0;1929.9;;;;-0.78989804;0.549923;-0.40897375;;;;;;;;;;;;;;;
2006.0;1929.9;;;;-0.77889645;0.5511742;-0.41006476;;;;;;;;;;;;;;;
2006.0;1930.2;;;;;;;;;;;;;662;;;;;;;;
2006.0;1930.2;;;;;;;;;;;;;338;;;;;;;;
2006.0;1930.2;;;;;;;;;;;;;-136;;;;;;;;
2006.0;1930.2;;;;;;;;;;;;;160;;;;;;;;
2006.0;1930.2;;;;;;;;;;;;;1058;;;;;;;;
2006.0;1930.6;;;;;;;;;;0.022888882;21.683401;-6.015961;;;;;;;;;
2006.0;1930.6;;;;;;;0.8181402;-0.5861385;-0.15967284;;;;;;;;;;;;
2006.0;1930.6;;;;;;;;;;0.034333322;23.35429;-6.260109;;;;;;;;;
2006.0;1930.6;;;;;;;0.8275399;-0.58406323;-0.15906247;;;;;;;;;;;;
2010.0;1940.0;;;;-0.7645608;0.5504342;-0.4150582;;;;;;;;;;;;;;;
2010.0;1940.0;;;;-0.74716574;0.5464402;-0.42197424;;;;;;;;;;;;;;;
2010.0;1940.0;;;;-0.73826987;0.5427781;-0.42444617;;;;;;;;;;;;;;;
2010.0;1940.0;;;;-0.7408181;0.54258734;-0.4279061;;;;;;;;;;;;;;;
2010.0;1940.0;;;;-0.7569581;0.54699713;-0.43315893;;;;;;;;;;;;;;;
2010.0;1940.2;;;;;;;;;;0.10299997;25.07477;-6.2067018;;;;;;;;;
2010.0;1940.2;;;;;;;0.832728;-0.5827204;-0.15527818;;;;;;;;;;;;
2010.0;1940.2;;;;;;;;;;0.10681479;26.535845;-6.0350356;;;;;;;;;
2010.0;1940.2;;;;;;;0.8269295;-0.5813166;-0.15051728;;;;;;;;;;;;
2010.0;1944.5;262143;262143;12769;;;;;;;;;;;;;;;;;;
2010.0;1949.8;;;;;;;;;;0.3013703;28.004547;-5.7832575;;;;;;;;;
2010.0;1949.8;;;;;;;0.8224128;-0.5816828;-0.14587848;;;;;;;;;;;;
2010.0;1949.8;;;;;;;;;;0.37003693;29.320658;-5.4780726;;;;;;;;;
2010.0;1949.8;;;;;;;0.81875056;-0.58302563;-0.14160588;;;;;;;;;;;;
2010.0;1950.2;;;;-0.7656785;0.5510178;-0.4380799;;;;;;;;;;;;;;;
2010.0;1950.2;;;;-0.7677156;0.55416113;-0.445839;;;;;;;;;;;;;;;
2010.0;1950.2;;;;-0.76334774;0.5541077;-0.44965369;;;;;;;;;;;;;;;
2010.0;1950.2;;;;-0.7563516;0.55133444;-0.45309454;;;;;;;;;;;;;;;
2010.0;1950.2;;;;-0.75189984;0.5462876;-0.45788962;;;;;;;;;;;;;;;
2011.0;1958.9;;;;;;;;;;;;;;;;;5.359813;4.3221836;-2.0981476;;1880.7
2011.0;1958.9;;;;;;;;;;;;;;0.8917509;0.3192236;-0.21875668;;;;;1880.7
2011.0;1958.9;;;;;;;;;;;;;;;;;5.3827024;4.50148;-2.1439252;;1880.7
2011.0;1958.9;;;;;;;;;;;;;;0.8913846;0.31891844;-0.21973327;;;;;1880.7
2011.0;1958.9;;;;;;;;;;;;;;;;;5.451369;4.642628;-2.2888882;;1890.2
2011.0;1958.9;;;;;;;;;;;;;;0.8921781;0.31958982;-0.21948913;;;;;1890.2
2011.0;1958.9;;;;;;;;;;;;;;;;;5.714591;4.634999;-2.4796288;;1890.2
2011.0;1958.9;;;;;;;;;;;;;;0.8908963;0.32111576;-0.22132023;;;;;1890.2
2011.0;1958.9;;;;;;;;;;;;;;;;;5.8900723;4.6121097;-2.6474807;;1899.8
2011.0;1958.9;;;;;;;;;;;;;;0.8923612;0.32178718;-0.22040467;;;;;1899.8
2011.0;1958.9;;;;;;;;;;;;;;;;;6.1418505;4.7189245;-2.7619252;;1899.8
2011.0;1958.9;;;;;;;;;;;;;;0.89504683;0.3218482;-0.21955016;;;;;1899.8
2011.0;1959.4;;;;;;;;;;0.5874813;30.758842;-5.245369;;;;;;;;;
2011.0;1959.4;;;;;;;0.81569874;-0.5863826;-0.13464767;;;;;;;;;;;;
2011.0;1959.4;;;;;;;;;;0.9537034;32.20466;-4.9783316;;;;;;;;;
2011.0;1959.4;;;;;;;0.8069094;-0.58784753;-0.12872708;;;;;;;;;;;;
2011.0;1960.1;;;;-0.75284207;0.5441399;-0.46012503;;;;;;;;;;;;;;;
2011.0;1960.1;;;;-0.75662625;0.5437165;-0.46381003;;;;;;;;;;;;;;;
2011.0;1960.1;;;;-0.7515069;0.5431214;-0.46800238;;;;;;;;;;;;;;;
2011.0;1960.1;;;;-0.7402001;0.54116446;-0.4706536;;;;;;;;;;;;;;;
2011.0;1960.1;;;;-0.73198706;0.5424767;-0.47351462;;;;;;;;;;;;;;;
2011.0;1964.6;262143;262143;12785;;;;;;;;;;;;;;;;;;
2012.0;1968.9;;;;;;;;;;1.33137;33.31477;-4.8982205;;;;;;;;;
2012.0;1968.9;;;;;;;0.7955565;-0.58772546;-0.12451552;;;;;;;;;;;;
2012.0;1968.9;;;;;;;;;;1.6136662;33.856472;-4.8677025;;;;;;;;;
2012.0;1968.9;;;;;;;0.7882931;-0.58626056;-0.11847285;;;;;;;;;;;;
2012.0;1970.1;;;;-0.72987753;0.54225165;-0.47764593;;;;;;;;;;;;;;;
2012.0;1970.1;;;;-0.7350083;0.5424004;-0.48049933;;;;;;;;;;;;;;;
2012.0;1970.1;;;;-0.73722464;0.54311377;-0.4813004;;;;;;;;;;;;;;;
2012.0;1970.1;;;;-0.7392464;0.54525;-0.48370367;;;;;;;;;;;;;;;
2012.0;1970.1;;;;-0.742199;0.5460625;-0.48693472;;;;;;;;;;;;;;;
2012.0;1970.5;;;;;;;;;;;;;1654;;;;;;;;
2012.0;1970.5;;;;;;;;;;;;;1593;;;;;;;;
2012.0;1970.5;;;;;;;;;;;;;1184;;;;;;;;
2012.0;1970.5;;;;;;;;;;;;;706;;;;;;;;
2012.0;1970.5;;;;;;;;;;;;;421;;;;;;;;
2012.0;1973.8;;;;;;;;;;;;;;;;;6.3135166;4.776147;-2.97174;;1909.5
2012.0;1973.8;;;;;;;;;;;;;;0.89602345;0.32227546;-0.21826838;;;;;1909.5
2012.0;1973.8;;;;;;;;;;;;;;;;;6.5233316;4.8409986;-3.1434064;;1909.5
2012.0;1973.8;;;;;;;;;;;;;;0.89510787;0.32294688;-0.21668142;;;;;1909.5
2012.0;1973.8;;;;;;;;;;;;;;;;;6.6682944;4.8982205;-3.2616658;;1919.2
2012.0;1973.8;;;;;;;;;;;;;;0.89291054;0.32190925;-0.21875668;;;;;1919.2
2012.0;1973.8;;;;;;;;;;;;;;;;;6.8170724;4.8219247;-3.3379622;;1919.2
2012.0;1973.8;;;;;;;;;;;;;;0.89388716;0.32355723;-0.21955016;;;;;1919.2
2012.0;1973.8;;;;;;;;;;;;;;;;;7.042146;4.730369;-3.5935545;;1928.7
2012.0;1973.8;;;;;;;;;;;;;;0.893582;0.32636493;-0.21924497;;;;;1928.7
2012.0;1973.8;;;;;;;;;;;;;;;;;7.168035;4.6464434;-3.7690358;;1928.7
2012.0;1973.8;;;;;;;;;;;;;;0.8946196;0.32721946;-0.21881771;;;;;1928.7
2067.0;1978.3;;;;;;;;;;1.8311106;33.6314;-4.5396285;;;;;;;;;
2067.0;1978.3;;;;;;;0.78341013;-0.58821374;-0.115421005;;;;;;;;;;;;
2067.0;1978.3;;;;;;;;;;2.0790737;32.376324;-4.226814;;;;;;;;;
2067.0;1978.3;;;;;;;0.77266765;-0.5901669;-0.1114536;;;;;;;;;;;;
2067.0;1980.0;;;;-0.74488074;0.5488053;-0.48694998;;;;;;;;;;;;;;;
2067.0;1980.0;;;;-0.74665457;0.5513802;-0.48566824;;;;;;;;;;;;;;;
2067.0;1980.0;;;;-0.75034344;0.5544587;-0.48363882;;;;;;;;;;;;;;;
2067.0;1980.0;;;;-0.76000226;0.55798346;-0.479477;;;;;;;;;;;;;;;
2067.0;1980.0;;;;-0.7661096;0.56127554;-0.4716454;;;;;;;;;;;;;;;
2067.0;1984.5;262143;262143;12788;;;;;;;;;;;;;;;;;;
2067.0;1987.8;;;;;;;;;;2.4338512;31.163214;-4.181036;;;;;;;;;
2067.0;1987.8;;;;;;;0.7511216;-0.5912656;-0.10657064;;;;;;;;;;;;
2067.0;1987.8;;;;;;;;;;2.7733696;29.70977;-4.3488874;;;;;;;;;
2067.0;1987.8;;;;;;;0.732078;-0.59315777;-0.10144353;;;;;;;;;;;;
2067.0;1990.0;;;;-0.77040875;0.5651131;-0.4642716;;;;;;;;;;;;;;;
2067.0;1990.0;;;;-0.7714349;0.5665627;-0.45963293;;;;;;;;;;;;;;;
2067.0;1990.0;;;;-0.7704202;0.5692368;-0.45445257;;;;;;;;;;;;;;;
2067.0;1990.0;;;;-0.7679025;0.5699006;-0.449997;;;;;;;;;;;;;;;
2067.0;1990.0;;;;-0.76417553;0.57039267;-0.4486962;;;;;;;;;;;;;;;
2067.0;1997.4;;;;;;;;;;3.0480363;27.996918;-4.50148;;;;;;;;;
2067.0;1997.4;;;;;;;0.7295145;-0.5962096;-0.096377455;;;;;;;;;;;;
2067.0;1997.4;;;;;;;;;;3.4104435;25.517288;-4.3565173;;;;;;;;;
2067.0;1997.4;;;;;;;0.732017;-0.59956664;-0.09442427;;;;;;;;;;;;
2070.0;2000.1;;;;-0.7620927;0.57015234;-0.45052344;;;;;;;;;;;;;;;
2070.0;2000.1;;;;-0.7623941;0.56991583;-0.44958884;;;;;;;;;;;;;;;
2070.0;2000.1;;;;-0.7633096;0.5703431;-0.45161444;;;;;;;;;;;;;;;
2070.0;2000.1;;;;-0.7627412;0.5693055;-0.45322424;;;;;;;;;;;;;;;
2070.0;2000.1;;;;-0.7620927;0.5697022;-0.45576102;;;;;;;;;;;;;;;
2070.0;2004.7;262143;262143;12802;;;;;;;;;;;;;;;;;;
2070.0;2007.0;;;;;;;;;;3.933073;22.804956;-4.6617026;;;;;;;;;
2070.0;2007.0;;;;;;;0.7345805;-0.6023743;-0.09295938;;;;;;;;;;;;
2070.0;2007.0;;;;;;;;;;4.2687764;20.107882;-5.0012207;;;;;;;;;
2070.0;2007.0;;;;;;;0.73909724;-0.6065249;-0.09076205;;;;;;;;;;;;
2070.0;2010.2;;;;-0.7620355;0.56945425;-0.45968252;;;;;;;;;;;;;;;
2070.0;2010.2;;;;-0.7616769;0.5687142;-0.46092993;;;;;;;;;;;;;;;
2070.0;2010.2;;;;-0.76236355;0.56984335;-0.46044928;;;;;;;;;;;;;;;
2070.0;2010.2;;;;-0.76202786;0.57005316;-0.46174246;;;;;;;;;;;;;;;
2070.0;2010.2;;;;-0.7600137;0.5709153;-0.4590264;;;;;;;;;;;;;;;
2070.0;2010.7;;;;;;;;;;;;;1084;;;;;;;;
2070.0;2010.7;;;;;;;;;;;;;2470;;;;;;;;
2070.0;2010.7;;;;;;;;;;;;;621;;;;;;;;
2070.0;2010.7;;;;;;;;;;;;;-8692;;;;;;;;
2070.0;2010.7;;;;;;;;;;;;;-21205;;;;;;;;
2070.0;2016.6;;;;;;;;;;4.623554;16.739403;-5.409406;;;;;;;;;
2070.0;2016.6;;;;;;;0.73000276;-0.6090274;-0.08819849;;;;;;;;;;;;
2070.0;2016.6;;;;;;;;;;4.928739;13.176367;-5.8252206;;;;;;;;;
2070.0;2016.6;;;;;;;0.7244484;-0.6095767;-0.090151675;;;;;;;;;;;;
2071.0;2019.1;;;;;;;;;;;;;;;;;7.2595906;4.6464434;-3.8644063;;1938.4
2071.0;2019.1;;;;;;;;;;;;;;0.89455855;0.32959992;-0.22022156;;;;;1938.4
2071.0;2019.1;;;;;;;;;;;;;;;;;7.4045534;4.581591;-4.016999;;1938.4
2071.0;2019.1;;;;;;;;;;;;;;0.8930326;0.328135;-0.21729179;;;;;1938.4
2071.0;2019.1;;;;;;;;;;;;;;;;;7.5418863;4.39848;-4.1657767;;1948.0
2071.0;2019.1;;;;;;;;;;;;;;0.89541304;0.32831812;-0.21558276;;;;;1948.0
2071.0;2019.1;;;;;;;;;;;;;;;;;7.721183;4.1848507;-4.299295;;1948.0
2071.0;2019.1;;;;;;;;;;;;;;0.8948637;0.32862332;-0.21454512;;;;;1948.0
2071.0;2019.1;;;;;;;;;;;;;;;;;7.854701;4.142888;-4.360332;;1957.6
2071.0;2019.1;;;;;;;;;;;;;;0.89345986;0.32831812;-0.21277505;;;;;1957.6
2071.0;2019.1;;;;;;;;;;;;;;;;;7.854701;4.2191844;-4.3641467;;1957.6
2071.0;2019.1;;;;;;;;;;;;;;0.8933378;0.32770777;-0.21350749;;;;;1957.6
2071.0;2020.2;;;;-0.75527966;0.57124716;-0.457367;;;;;;;;;;;;;;;
2071.0;2020.2;;;;-0.7500192;0.5721474;-0.45763022;;;;;;;;;;;;;;;
2071.0;2020.2;;;;-0.74843985;0.57490927;-0.45911413;;;;;;;;;;;;;;;
2071.0;2020.2;;;;-0.7501527;0.57720953;-0.46186453;;;;;;;;;;;;;;;
2071.0;2020.2;;;;-0.7570802;0.5814782;-0.4640885;;;;;;;;;;;;;;;
2071.0;2024.9;262143;262143;12823;;;;;;;;;;;;;;;;;;
2071.0;2026.1;;;;;;;;;;5.3827024;9.281442;-5.6993318;;;;;;;;;
2071.0;2026.1;;;;;;;0.72981966;-0.6135441;-0.09228797;;;;;;;;;;;;
2071.0;2026.1;;;;;;;;;;5.7412944;5.2491837;-5.283517;;;;;;;;;
2071.0;2026.1;;;;;;;0.7399518;-0.6139103;-0.09521775;;;;;;;;;;;;
2073.0;2030.3;;;;-0.76609814;0.58572775;-0.46739584;;;;;;;;;;;;;;;
2073.0;2030.3;;;;-0.77093136;0.5889512;-0.47200018;;;;;;;;;;;;;;;
2073.0;2030.3;;;;-0.7732965;0.59114844;-0.4737931;;;;;;;;;;;;;;;
2073.0;2030.3;;;;-0.77424634;0.5929375;-0.4762345;;;;;;;;;;;;;;;
2073.0;2030.3;;;;-0.77666867;0.59330374;-0.4788323;;;;;;;;;;;;;;;
2073.0;2034.6;;;;;;;;;;;;;;;;;7.7326274;4.4328136;-4.276406;;1967.2
2073.0;2034.6;;;;;;;;;;;;;;0.89400923;0.32782984;-0.21387371;;;;;1967.2
2073.0;2034.6;;;;;;;;;;;;;;;;;7.6677756;4.547258;-4.1962953;;1967.2
2073.0;2034.6;;;;;;;;;;;;;;0.8943144;0.32752463;-0.21179846;;;;;1967.2
2073.0;2034.6;;;;;;;;;;;;;;;;;7.694479;4.5739617;-4.1924806;;1976.9
2073.0;2034.6;;;;;;;;;;;;;;0.8908963;0.32819605;-0.21338542;;;;;1976.9
2073.0;2034.6;;;;;;;;;;;;;;;;;7.778405;4.570147;-4.100925;;1976.9
2073.0;2034.6;;;;;;;;;;;;;;0.893643;0.33069858;-0.21503341;;;;;1976.9
2073.0;2034.6;;;;;;;;;;;;;;;;;7.797479;4.4709616;-4.0055547;;1986.6
2073.0;2034.6;;;;;;;;;;;;;;0.8954741;0.33228552;-0.21295816;;;;;1986.6
2073.0;2034.6;;;;;;;;;;;;;;;;;7.801294;4.5358133;-3.8949249;;1986.6
2073.0;2034.6;;;;;;;;;;;;;;0.89767146;0.3345439;-0.21320231;;;;;1986.6
2073.0;2035.6;;;;;;;;;;5.9053316;1.5831476;-5.035554;;;;;;;;;
2073.0;2035.6;;;;;;;0.7515488;-0.6129948;-0.098391674;;;;;;;;;;;;
2073.0;2035.6;;;;;;;;;;5.874813;-1.6403699;-4.8066654;;;;;;;;;
2073.0;2035.6;;;;;;;0.7630238;-0.6129948;-0.10187078;;;;;;;;;;;;
2122.0;2040.3;;;;-0.78029263;0.59257895;-0.48284155;;;;;;;;;;;;;;;
2122.0;2040.3;;;;-0.7836076;0.58905417;-0.4858361;;;;;;;;;;;;;;;
2122.0;2040.3;;;;-0.7865869;0.5869065;-0.48414618;;;;;;;;;;;;;;;
2122.0;2040.3;;;;-0.7890283;0.5835801;-0.48380286;;;;;;;;;;;;;;;
2122.0;2040.3;;;;-0.7904893;0.58009344;-0.48315054;;;;;;;;;;;;;;;
2122.0;2045.1;;;;;;;;;;5.8709984;-4.505295;-4.5930357;;;;;;;;;
2122.0;2045.1;;;;;;;0.7691275;-0.6124455;-0.10400708;;;;;;;;;;;;
2122.0;2045.1;;;;;;;;;;5.771813;-6.9963684;-4.1238136;;;;;;;;;
2122.0;2045.1;;;;;;;0.7690054;-0.6128727;-0.10809656;;;;;;;;;;;;
2122.0;2044.9;262143;262143;12819;;;;;;;;;;;;;;;;;;
2122.0;2050.1;;;;-0.7940408;0.57614523;-0.47905356;;;;;;;;;;;;;;;
2122.0;2050.1;;;;-0.79320157;0.57409674;-0.47794348;;;;;;;;;;;;;;;
2122.0;2050.1;;;;-0.7992822;0.5753365;-0.47449118;;;;;;;;;;;;;;;
2122.0;2050.1;;;;-0.8032304;0.5793839;-0.4719048;;;;;;;;;;;;;;;
2122.0;2050.1;;;;-0.8006784;0.5850106;-0.4693604;;;;;;;;;;;;;;;
2122.0;2050.7;;;;;;;;;;;;;-25748;;;;;;;;
2122.0;2050.7;;;;;;;;;;;;;-17485;;;;;;;;
2122.0;2050.7;;;;;;;;;;;;;-4073;;;;;;;;
2122.0;2050.7;;;;;;;;;;;;;3764;;;;;;;;
2122.0;2050.7;;;;;;;;;;;;;3782;;;;;;;;
2122.0;2054.6;;;;;;;;;;5.5543685;-9.014404;-3.543962;;;;;;;;;
2122.0;2054.6;;;;;;;0.7727287;-0.61488694;-0.113406785;;;;;;;;;;;;
2122.0;2054.6;;;;;;;;;;5.283517;-10.364849;-3.1281471;;;;;;;;;
2122.0;2054.6;;;;;;;0.77913755;-0.6171453;-0.11511582;;;;;;;;;;;;
2128.0;2060.2;;;;-0.7945863;0.59229285;-0.4643479;;;;;;;;;;;;;;;
2128.0;2060.2;;;;-0.7894784;0.59881216;-0.45995718;;;;;;;;;;;;;;;
2128.0;2060.2;;;;-0.78543866;0.6028519;-0.454773;;;;;;;;;;;;;;;
2128.0;2060.2;;;;-0.78416073;0.604538;-0.45015723;;;;;;;;;;;;;;;
2128.0;2060.2;;;;-0.78344357;0.6039086;-0.44626242;;;;;;;;;;;;;;;
2128.0;2064.3;;;;;;;;;;4.951628;-11.257515;-2.8534806;;;;;;;;;
2128.0;2064.3;;;;;;;0.7893307;-0.618244;-0.11627552;;;;;;;;;;;;
2128.0;2064.3;;;;;;;;;;4.7608876;-11.448256;-2.5711844;;;;;;;;;
2128.0;2064.3;;;;;;;0.7922605;-0.6204413;-0.11670278;;;;;;;;;;;;
2128.0;2065.0;262143;262143;12818;;;;;;;;;;;;;;;;;;
2128.0;2070.4;;;;-0.78585446;0.6015969;-0.44372565;;;;;;;;;;;;;;;
2128.0;2070.4;;;;-0.78990567;0.597725;-0.4408837;;;;;;;;;;;;;;;
2128.0;2070.4;;;;-0.7919847;0.5924035;-0.43825155;;;;;;;;;;;;;;;
2128.0;2070.4;;;;-0.7893678;0.5873986;-0.43811423;;;;;;;;;;;;;;;
2128.0;2070.4;;;;-0.78401196;0.5827752;-0.43680578;;;;;;;;;;;;;;;
2128.0;2073.9;;;;;;;;;;4.5243692;-11.360515;-2.2164068;;;;;;;;;
2128.0;2073.9;;;;;;;0.7869503;-0.61952573;-0.117313154;;;;;;;;;;;;
2128.0;2073.9;;;;;;;;;;4.2954803;-11.017182;-1.8578143;;;;;;;;;
2128.0;2073.9;;;;;;;0.7855464;-0.61952573;-0.11578722;;;;;;;;;;;;
2130.0;2079.4;;;;;;;;;;;;;;;;;7.637257;4.4518876;-3.7614062;;1996.1
2130.0;2079.4;;;;;;;;;;;;;;0.8989532;0.3355205;-0.21436201;;;;;1996.1
2130.0;2079.4;;;;;;;;;;;;;;;;;7.3397017;4.482406;-3.521073;;1996.1
2130.0;2079.4;;;;;;;;;;;;;;0.90176094;0.33606982;-0.2163152;;;;;1996.1
2130.0;2079.4;;;;;;;;;;;;;;;;;7.145146;4.562517;-3.2616658;;2005.7
2130.0;2079.4;;;;;;;;;;;;;;0.9022492;0.3357036;-0.2186346;;;;;2005.7
2130.0;2079.4;;;;;;;;;;;;;;;;;7.106998;4.6617026;-3.1090732;;2005.7
2130.0;2079.4;;;;;;;;;;;;;;0.8980377;0.33613086;-0.21710868;;;;;2005.7
2130.0;2079.4;;;;;;;;;;;;;;;;;7.1184425;4.608295;-2.9526658;;2015.3
2130.0;2079.4;;;;;;;;;;;;;;0.898648;0.33594775;-0.21594897;;;;;2015.3
2130.0;2079.4;;;;;;;;;;;;;;;;;7.2977386;4.5968504;-2.8916287;;2015.3
2130.0;2079.4;;;;;;;;;;;;;;0.8955352;0.33729056;-0.21112704;;;;;2015.3
2130.0;2080.4;;;;-0.7808229;0.5785981;-0.43597037;;;;;;;;;;;;;;;
2130.0;2080.4;;;;-0.7848054;0.5766564;-0.43442923;;;;;;;;;;;;;;;
2130.0;2080.4;;;;-0.78795636;0.57674414;-0.4300881;;;;;;;;;;;;;;;
2130.0;2080.4;;;;-0.7836076;0.57755286;-0.42662436;;;;;;;;;;;;;;;
2130.0;2080.4;;;;-0.77939236;0.58014303;-0.4213906;;;;;;;;;;;;;;;
2130.0;2083.4;;;;;;;;;;4.0856657;-10.479293;-1.7052218;;;;;;;;;
2130.0;2083.4;;;;;;;0.7907346;-0.6159856;-0.11206397;;;;;;;;;;;;
2130.0;2083.4;;;;;;;;;;4.0665917;-9.289071;-1.6251106;;;;;;;;;
2130.0;2083.4;;;;;;;0.80416274;-0.6108585;-0.110721156;;;;;;;;;;;;
2130.0;2085.2;262143;262143;12843;;;;;;;;;;;;;;;;;;
2131.0;2086.8;;;;;;;;;;;;;;;;;7.5189977;4.608295;-2.7962584;;2025.0
2131.0;2086.8;;;;;;;;;;;;;;0.8937651;0.33796197;-0.20618305;;;;;2025.0
2131.0;2086.8;;;;;;;;;;;;;;;;;7.7478867;4.5930357;-2.723777;;2025.0
2131.0;2086.8;;;;;;;;;;;;;;0.8938261;0.34058657;-0.20453505;;;;;2025.0
2131.0;2086.8;;;;;;;;;;;;;;;;;7.9081087;4.6998506;-2.6360364;;2034.6
2131.0;2086.8;;;;;;;;;;;;;;0.89291054;0.3419904;-0.20288706;;;;;2034.6
2131.0;2086.8;;;;;;;;;;;;;;;;;7.8966646;4.757073;-2.5444808;;2034.6
2131.0;2086.8;;;;;;;;;;;;;;0.8935209;0.3432722;-0.20618305;;;;;2034.6
2131.0;2086.8;;;;;;;;;;;;;;;;;7.889035;4.8829613;-2.3499253;;2044.3
2131.0;2086.8;;;;;;;;;;;;;;0.8938261;0.3444319;-0.2080752;;;;;2044.3
2131.0;2086.8;;;;;;;;;;;;;;;;;7.7326274;4.9668875;-2.2049623;;2044.3
2131.0;2086.8;;;;;;;;;;;;;;0.89706105;0.3465682;-0.2075869;;;;;2044.3
2131.0;2090.4;;;;-0.7766954;0.58401114;-0.41748053;;;;;;;;;;;;;;;
2131.0;2090.4;;;;-0.77536786;0.58673865;-0.4139977;;;;;;;;;;;;;;;
2131.0;2090.4;;;;-0.7752;0.5872918;-0.40902716;;;;;;;;;;;;;;;
2131.0;2090.4;;;;-0.7757226;0.5871659;-0.40625387;;;;;;;;;;;;;;;
2131.0;2090.4;;;;-0.7781564;0.5857697;-0.40425497;;;;;;;;;;;;;;;
2131.0;2091.0;;;;;;;;;;;;;1611;;;;;;;;
2131.0;2091.0;;;;;;;;;;;;;1588;;;;;;;;
2131.0;2091.0;;;;;;;;;;;;;2636;;;;;;;;
2131.0;2091.0;;;;;;;;;;;;;2881;;;;;;;;
2131.0;2091.0;;;;;;;;;;;;;2639;;;;;;;;
2131.0;2092.9;;;;;;;;;;3.9063692;-7.9615164;-1.781518;;;;;;;;;
2131.0;2092.9;;;;;;;0.8138066;-0.6036561;-0.109073155;;;;;;;;;;;;
2131.0;2092.9;;;;;;;;;;3.8148136;-6.7445908;-2.010407;;;;;;;;;
2131.0;2092.9;;;;;;;0.80556655;-0.6014588;-0.11017182;;;;;;;;;;;;
2201.0;2100.3;;;;-0.77909863;0.58259207;-0.40281683;;;;;;;;;;;;;;;
2201.0;2100.3;;;;-0.7822267;0.57934195;-0.40338904;;;;;;;;;;;;;;;
2201.0;2100.3;;;;-0.788952;0.5765229;-0.40544897;;;;;;;;;;;;;;;
2201.0;2100.3;;;;-0.7939569;0.5748673;-0.40606314;;;;;;;;;;;;;;;
2201.0;2100.3;;;;-0.7930871;0.57272345;-0.4072762;;;;;;;;;;;;;;;
2201.0;2102.4;;;;;;;;;;3.6660361;-5.62685;-1.9341105;;;;;;;;;
2201.0;2102.4;;;;;;;0.7958006;-0.5971252;-0.107974485;;;;;;;;;;;;
2201.0;2102.4;;;;;;;;;;3.3684807;-4.9630723;-1.5259255;;;;;;;;;
2201.0;2102.4;;;;;;;0.7920774;-0.5978576;-0.1048616;;;;;;;;;;;;
2201.0;2105.2;262143;262143;12844;;;;;;;;;;;;;;;;;;
2201.0;2110.1;;;;-0.78850186;0.5711594;-0.40869147;;;;;;;;;;;;;;;
2201.0;2110.1;;;;-0.78287137;0.5695115;-0.41147238;;;;;;;;;;;;;;;
2201.0;2110.1;;;;-0.7779962;0.56830984;-0.41314703;;;;;;;;;;;;;;;
2201.0;2110.1;;;;-0.77782834;0.56698996;-0.41449744;;;;;;;;;;;;;;;
2201.0;2110.1;;;;-0.7770196;0.56501395;-0.4157868;;;;;;;;;;;;;;;
2201.0;2111.7;;;;;;;;;;3.1662953;-4.608295;-1.1711478;;;;;;;;;
2201.0;2111.7;;;;;;;0.791467;-0.5975524;-0.100405894;;;;;;;;;;;;
2201.0;2111.7;;;;;;;;;;2.97174;-4.50911;-1.0795922;;;;;;;;;
2201.0;2111.7;;;;;;;0.7929319;-0.5943785;-0.09863582;;;;;;;;;;;;
2206.0;2120.2;;;;-0.77832806;0.56166846;-0.4171601;;;;;;;;;;;;;;;
2206.0;2120.2;;;;-0.78031933;0.5578576;-0.42017752;;;;;;;;;;;;;;;
2206.0;2120.2;;;;-0.77458584;0.5561829;-0.42171484;;;;;;;;;;;;;;;
2206.0;2120.2;;;;-0.7690965;0.5567246;-0.42508322;;;;;;;;;;;;;;;
2206.0;2120.2;;;;-0.76832974;0.5574494;-0.42887503;;;;;;;;;;;;;;;
2206.0;2121.3;;;;;;;;;;2.8572955;-4.4976654;-0.9117405;;;;;;;;;
2206.0;2121.3;;;;;;;0.789819;-0.59150976;-0.097048864;;;;;;;;;;;;
2206.0;2121.3;;;;;;;;;;2.7161474;-4.482406;-0.7209998;;;;;;;;;
2206.0;2121.3;;;;;;;0.77968687;-0.588702;-0.09595019;;;;;;;;;;;;
2206.0;2125.1;262143;262143;12854;;;;;;;;;;;;;;;;;;
2206.0;2130.3;;;;-0.7724916;0.5573769;-0.4309731;;;;;;;;;;;;;;;
2206.0;2130.3;;;;-0.77819836;0.5574723;-0.43305594;;;;;;;;;;;;;;;
2206.0;2130.3;;;;-0.783249;0.55767447;-0.4353829;;;;;;;;;;;;;;;
2206.0;2130.3;;;;-0.7858392;0.5570832;-0.43650824;;;;;;;;;;;;;;;
2206.0;2130.3;;;;-0.78847516;0.55567557;-0.4384957;;;;;;;;;;;;;;;
2206.0;2131.0;;;;;;;;;;2.5292215;-4.4785914;-0.3852962;;;;;;;;;
2206.0;2131.0;;;;;;;0.76961577;-0.5845515;-0.098269604;;;;;;;;;;;;
2206.0;2131.0;;;;;;;;;;2.2621846;-4.543443;0.068666644;;;;;;;;;
2206.0;2131.0;;;;;;;0.7629017;-0.58015686;-0.099185154;;;;;;;;;;;;
2206.0;2131.1;;;;;;;;;;;;;2270;;;;;;;;
2206.0;2131.1;;;;;;;;;;;;;1831;;;;;;;;
2206.0;2131.1;;;;;;;;;;;;;1519;;;;;;;;
2206.0;2131.1;;;;;;;;;;;;;1137;;;;;;;;
2206.0;2131.1;;;;;;;;;;;;;680;;;;;;;;
2209.0;2139.5;;;;;;;;;;;;;;;;;7.5800347;5.2491837;-2.0218513;;2054.0
2209.0;2139.5;;;;;;;;;;;;;;0.89834285;0.3467513;-0.2075869;;;;;2054.0
2209.0;2139.5;;;;;;;;;;;;;;;;;7.3473315;5.405591;-1.8959624;;2054.0
2209.0;2139.5;;;;;;;;;;;;;;0.8989532;0.3482162;-0.20966215;;;;;2054.0
2209.0;2139.5;;;;;;;;;;;;;;;;;7.038331;5.4704432;-1.739555;;2063.6
2209.0;2139.5;;;;;;;;;;;;;;0.89944154;0.3482162;-0.2097232;;;;;2063.6
2209.0;2139.5;;;;;;;;;;;;;;;;;6.859035;5.455184;-1.5831476;;2063.6
2209.0;2139.5;;;;;;;;;;;;;;0.898648;0.34864345;-0.21008942;;;;;2063.6
2209.0;2139.5;;;;;;;;;;;;;;;;;6.740776;5.4246655;-1.4877774;;2073.2
2209.0;2139.5;;;;;;;;;;;;;;0.8964507;0.3469344;-0.20990631;;;;;2073.2
2209.0;2139.5;;;;;;;;;;;;;;;;;6.75985;5.394147;-1.453444;;2073.2
2209.0;2139.5;;;;;;;;;;;;;;0.8951689;0.34583575;-0.20954008;;;;;2073.2
2209.0;2140.3;;;;-0.79109204;0.55310446;-0.44013602;;;;;;;;;;;;;;;
2209.0;2140.3;;;;-0.7908441;0.5498124;-0.44050986;;;;;;;;;;;;;;;
2209.0;2140.3;;;;-0.7809793;0.5481034;-0.4400025;;;;;;;;;;;;;;;
2209.0;2140.3;;;;-0.76846707;0.5484467;-0.44196707;;;;;;;;;;;;;;;
2209.0;2140.3;;;;-0.7600862;0.5484238;-0.4446717;;;;;;;;;;;;;;;
2209.0;2140.5;;;;;;;;;;2.0981476;-4.7456284;0.4196295;;;;;;;;;
2209.0;2140.5;;;;;;;0.75948364;-0.5797296;-0.09906308;;;;;;;;;;;;
2209.0;2140.5;;;;;;;;;;2.010407;-5.0660725;0.7095553;;;;;;;;;
2209.0;2140.5;;;;;;;0.7579577;-0.5767998;-0.10046694;;;;;;;;;;;;
2209.0;2145.3;262143;262143;12857;;;;;;;;;;;;;;;;;;
2211.0;2146.9;;;;;;;;;;;;;;;;;6.645406;5.3178506;-1.3847773;;2082.8
2211.0;2146.9;;;;;;;;;;;;;;0.8937651;0.3452254;-0.20935698;;;;;2082.8
2211.0;2146.9;;;;;;;;;;;;;;;;;6.5195165;5.260628;-1.2207403;;2082.8
2211.0;2146.9;;;;;;;;;;;;;;0.89168984;0.34168524;-0.20703757;;;;;2082.8
2211.0;2146.9;;;;;;;;;;;;;;;;;6.1609244;5.0126653;-1.0872219;;2092.5
2211.0;2146.9;;;;;;;;;;;;;;0.891934;0.33832818;-0.20978424;;;;;2092.5
2211.0;2146.9;;;;;;;;;;;;;;;;;5.733665;4.8829613;-0.87740713;;2092.5
2211.0;2146.9;;;;;;;;;;;;;;0.89407027;0.33613086;-0.21192053;;;;;2092.5
2211.0;2146.9;;;;;;;;;;;;;;;;;5.359813;5.0012207;-0.7667776;;2102.2
2211.0;2146.9;;;;;;;;;;;;;;0.8928495;0.33228552;-0.21143223;;;;;2102.2
2211.0;2146.9;;;;;;;;;;;;;;;;;5.1957765;5.069887;-0.6904813;;2102.2
2211.0;2146.9;;;;;;;;;;;;;;0.8917509;0.32905057;-0.21259193;;;;;2102.2
2211.0;2150.0;;;;;;;;;;1.8463699;-5.2529984;1.0719626;;;;;;;;;
2211.0;2150.0;;;;;;;0.7596057;-0.5760674;-0.10388501;;;;;;;;;;;;
2211.0;2150.0;;;;;;;;;;1.7586291;-5.3178506;1.5602587;;;;;;;;;
2211.0;2150.0;;;;;;;0.76277965;-0.57600635;-0.10614338;;;;;;;;;;;;
2211.0;2150.3;;;;-0.756611;0.5476151;-0.4466706;;;;;;;;;;;;;;;
2211.0;2150.3;;;;-0.756714;0.54565054;-0.44927222;;;;;;;;;;;;;;;
2211.0;2150.3;;;;-0.7543222;0.5449601;-0.44886023;;;;;;;;;;;;;;;
2211.0;2150.3;;;;-0.7536279;0.54563147;-0.4483872;;;;;;;;;;;;;;;
2211.0;2150.3;;;;-0.75571454;0.5477143;-0.4461518;;;;;;;;;;;;;;;
2211.0;2159.5;;;;;;;;;;1.5793328;-5.1728873;2.1439252;;;;;;;;;
2211.0;2159.5;;;;;;;0.7697989;-0.5758843;-0.105533004;;;;;;;;;;;;
2211.0;2159.5;;;;;;;;;;1.4000366;-4.886776;2.6093326;;;;;;;;;
2211.0;2159.5;;;;;;;0.7754143;-0.57667774;-0.10400708;;;;;;;;;;;;
2244.0;2160.3;;;;-0.7588922;0.5470925;-0.44435126;;;;;;;;;;;;;;;
2244.0;2160.3;;;;-0.75254834;0.5491677;-0.44118887;;;;;;;;;;;;;;;
2244.0;2160.3;;;;-0.74584585;0.55231863;-0.44233328;;;;;;;;;;;;;;;
2244.0;2160.3;;;;-0.7460442;0.5547448;-0.44409567;;;;;;;;;;;;;;;
2244.0;2160.3;;;;-0.7510034;0.55502325;-0.44551092;;;;;;;;;;;;;;;
2244.0;2165.3;262143;262143;12853;;;;;;;;;;;;;;;;;;
2244.0;2168.8;;;;;;;;;;1.2169256;-4.379406;3.051851;;;;;;;;;
2244.0;2168.8;;;;;;;0.7745598;-0.5746025;-0.100161746;;;;;;;;;;;;
2244.0;2168.8;;;;;;;;;;1.1101108;-3.9864802;3.4905546;;;;;;;;;
2244.0;2168.8;;;;;;;0.766686;-0.577105;-0.094485305;;;;;;;;;;;;
2244.0;2170.0;;;;-0.7588655;0.55315787;-0.44733053;;;;;;;;;;;;;;;
2244.0;2170.0;;;;-0.7604867;0.55014807;-0.44752508;;;;;;;;;;;;;;;
2244.0;2170.0;;;;-0.7586709;0.5481835;-0.45149237;;;;;;;;;;;;;;;
2244.0;2170.0;;;;-0.76090634;0.5446854;-0.45516974;;;;;;;;;;;;;;;
2244.0;2170.0;;;;-0.7549974;0.544365;-0.45220572;;;;;;;;;;;;;;;
2244.0;2170.9;;;;;;;;;;;;;448;;;;;;;;
2244.0;2170.9;;;;;;;;;;;;;287;;;;;;;;
2244.0;2170.9;;;;;;;;;;;;;31;;;;;;;;
2244.0;2170.9;;;;;;;;;;;;;-306;;;;;;;;
2244.0;2170.9;;;;;;;;;;;;;-791;;;;;;;;
2244.0;2178.4;;;;;;;;;;0.8659627;-3.6507769;4.020814;;;;;;;;;
2244.0;2178.4;;;;;;;0.76430553;-0.57655567;-0.08471938;;;;;;;;;;;;
2244.0;2178.4;;;;;;;;;;0.6218146;-3.4142585;4.413739;;;;;;;;;
2244.0;2178.4;;;;;;;0.7628407;-0.5775323;-0.07159642;;;;;;;;;;;;
2247.0;2180.1;;;;-0.7500764;0.5471955;-0.4533654;;;;;;;;;;;;;;;
2247.0;2180.1;;;;-0.75268567;0.54996115;-0.45301062;;;;;;;;;;;;;;;
2247.0;2180.1;;;;-0.7556344;0.5518418;-0.45021063;;;;;;;;;;;;;;;
2247.0;2180.1;;;;-0.7544404;0.5538178;-0.44617087;;;;;;;;;;;;;;;
2247.0;2180.1;;;;-0.7522851;0.55618674;-0.442051;;;;;;;;;;;;;;;
2247.0;2185.3;262143;262143;12859;;;;;;;;;;;;;;;;;;
2247.0;2188.0;;;;;;;;;;0.3662221;-3.3494065;4.6655173;;;;;;;;;
2247.0;2188.0;;;;;;;0.7596057;-0.5802179;-0.056764428;;;;;;;;;;;;
2247.0;2188.0;;;;;;;;;;0.045777764;-3.257851;4.871517;;;;;;;;;
2247.0;2188.0;;;;;;;0.7571032;-0.5811945;-0.044984285;;;;;;;;;;;;
2247.0;2190.3;;;;-0.7479592;0.5586892;-0.437378;;;;;;;;;;;;;;;
2247.0;2190.3;;;;-0.74732214;0.56037146;-0.43520743;;;;;;;;;;;;;;;
2247.0;2190.3;;;;-0.7522584;0.5616227;-0.43436438;;;;;;;;;;;;;;;
2247.0;2190.3;;;;-0.7607423;0.56254584;-0.4360085;;;;;;;;;;;;;;;
2247.0;2190.3;;;;-0.7694589;0.5638123;-0.43724066;;;;;;;;;;;;;;;
2247.0;2197.7;;;;;;;;;;0.045777764;-3.3989992;5.4971466;;;;;;;;;
2247.0;2197.7;;;;;;;0.74666584;-0.58937347;-0.037354656;;;;;;;;;;;;
2247.0;2197.7;;;;;;;;;;-0.064851835;-3.0098882;6.309702;;;;;;;;;
2247.0;2197.7;;;;;;;0.7956175;-0.56300545;-0.03460799;;;;;;;;;;;;
2248.0;2199.9;;;;;;;;;;;;;;;;;4.989776;5.218665;-0.6828517;;2111.9
2248.0;2199.9;;;;;;;;;;;;;;0.8923612;0.32490006;-0.21216469;;;;;2111.9
2248.0;2199.9;;;;;;;;;;;;;;;;;4.970702;5.3025913;-0.77440715;;2111.9
2248.0;2199.9;;;;;;;;;;;;;;0.8942534;0.32325205;-0.21094394;;;;;2111.9
2248.0;2199.9;;;;;;;;;;;;;;;;;5.0660725;5.359813;-0.9537034;;2121.5
2248.0;2199.9;;;;;;;;;;;;;;0.89620656;0.31977293;-0.20990631;;;;;2121.5
2248.0;2199.9;;;;;;;;;;;;;;;;;5.413221;5.4208503;-1.0948515;;2121.5
2248.0;2199.9;;;;;;;;;;;;;;0.89541304;0.31849116;-0.20667134;;;;;2121.5
2248.0;2199.9;;;;;;;;;;;;;;;;;5.874813;5.3750725;-1.3084811;;2131.0
2248.0;2199.9;;;;;;;;;;;;;;0.8942534;0.31653798;-0.20606098;;;;;2131.0
2248.0;2199.9;;;;;;;;;;;;;;;;;6.4394054;5.287332;-1.7090366;;2131.0
2248.0;2199.9;;;;;;;;;;;;;;0.8954741;0.31556138;-0.20087282;;;;;2131.0
2248.0;2200.3;;;;-0.77671826;0.56514364;-0.4403878;;;;;;;;;;;;;;;
2248.0;2200.3;;;;-0.78104794;0.566845;-0.44329458;;;;;;;;;;;;;;;
2248.0;2200.3;;;;-0.7781564;0.5688134;-0.449421;;;;;;;;;;;;;;;
2248.0;2200.3;;;;-0.77411664;0.569027;-0.45309836;;;;;;;;;;;;;;;
2248.0;2200.3;;;;-0.7806703;0.5686074;-0.4564324;;;;;;;;;;;;;;;
2248.0;2205.4;262143;262143;12861;;;;;;;;;;;;;;;;;;
2249.0;2207.0;;;;;;;;;;;;;;;;;6.977294;5.2758875;-2.0599995;;2140.7
2249.0;2207.0;;;;;;;;;;;;;;0.8973662;0.31556138;-0.20111698;;;;;2140.7
2249.0;2207.0;;;;;;;;;;;;;;;;;7.3931093;5.592517;-2.3842587;;2140.7
2249.0;2207.0;;;;;;;;;;;;;;0.8944365;0.31427962;-0.19940794;;;;;2140.7
2249.0;2207.0;;;;;;;;;;;;;;;;;7.915738;5.687887;-2.883999;;2150.3
2249.0;2207.0;;;;;;;;;;;;;;0.8948637;0.31171605;-0.19989623;;;;;2150.3
2249.0;2207.0;;;;;;;;;;;;;;;;;8.308664;5.7908874;-3.318888;;2150.3
2249.0;2207.0;;;;;;;;;;;;;;0.89132357;0.31049532;-0.2033143;;;;;2150.3
2249.0;2207.0;;;;;;;;;;;;;;;;;8.70159;5.733665;-3.7614062;;2160.0
2249.0;2207.0;;;;;;;;;;;;;;0.89144564;0.30994597;-0.20538957;;;;;2160.0
2249.0;2207.0;;;;;;;;;;;;;;;;;9.289071;5.592517;-4.127629;;2160.0
2249.0;2207.0;;;;;;;;;;;;;;0.8942534;0.3086642;-0.20746483;;;;;2160.0
2249.0;2207.1;;;;;;;;;;-0.48829615;-1.8158513;5.0737023;;;;;;;;;
2249.0;2207.1;;;;;;;0.79677725;-0.5731376;-0.032593768;;;;;;;;;;;;
2249.0;2207.1;;;;;;;;;;-0.63325906;-0.8278146;4.139073;;;;;;;;;
2249.0;2207.1;;;;;;;0.7942137;-0.57747126;-0.031250954;;;;;;;;;;;;
2249.0;2210.3;;;;-0.79190075;0.5674172;-0.45913702;;;;;;;;;;;;;;;
2249.0;2210.3;;;;-0.79581845;0.56522375;-0.46015555;;;;;;;;;;;;;;;
2249.0;2210.3;;;;-0.80088055;0.56343466;-0.46322638;;;;;;;;;;;;;;;
2249.0;2210.3;;;;-0.8036653;0.561081;-0.4648705;;;;;;;;;;;;;;;
2249.0;2210.3;;;;-0.79791653;0.5605088;-0.46202093;;;;;;;;;;;;;;;
2249.0;2211.2;;;;;;;;;;;;;-1303;;;;;;;;
2249.0;2211.2;;;;;;;;;;;;;-1766;;;;;;;;
2249.0;2211.2;;;;;;;;;;;;;-2299;;;;;;;;
2249.0;2211.2;;;;;;;;;;;;;-2905;;;;;;;;
2249.0;2211.2;;;;;;;;;;;;;-3554;;;;;;;;
2306.0;2216.6;;;;;;;;;;-0.9498886;0.71718496;3.9025545;;;;;;;;;
2306.0;2216.6;;;;;;;0.8003174;-0.57924134;-0.03564562;;;;;;;;;;;;
2306.0;2216.6;;;;;;;;;;-1.1597034;2.189703;3.8796656;;;;;;;;;
2306.0;2216.6;;;;;;;0.81191444;-0.58082825;-0.041932434;;;;;;;;;;;;
2306.0;2220.3;;;;-0.7898408;0.56345755;-0.4594193;;;;;;;;;;;;;;;
2306.0;2220.3;;;;-0.7868844;0.56568915;-0.46038824;;;;;;;;;;;;;;;
2306.0;2220.3;;;;-0.7866937;0.5658799;-0.45971686;;;;;;;;;;;;;;;
2306.0;2220.3;;;;-0.7865945;0.5657044;-0.45502478;;;;;;;;;;;;;;;
2306.0;2220.3;;;;-0.7881738;0.5661126;-0.4491349;;;;;;;;;;;;;;;
2306.0;2225.2;262143;262143;12872;;;;;;;;;;;;;;;;;;
2306.0;2226.0;;;;;;;;;;-1.5068514;4.1314435;3.2425916;;;;;;;;;
2306.0;2226.0;;;;;;;0.8121586;-0.5799127;-0.050111394;;;;;;;;;;;;
2306.0;2226.0;;;;;;;;;;-1.7281106;6.530961;2.8916287;;;;;;;;;
2306.0;2226.0;;;;;;;0.8097171;-0.57814264;-0.05859554;;;;;;;;;;;;
2306.0;2230.0;;;;-0.7919847;0.56548697;-0.4451447;;;;;;;;;;;;;;;
2306.0;2230.0;;;;-0.7961732;0.5648461;-0.44364554;;;;;;;;;;;;;;;
2306.0;2230.0;;;;-0.798607;0.5635682;-0.4439469;;;;;;;;;;;;;;;
2306.0;2230.0;;;;-0.79950726;0.5605164;-0.4467507;;;;;;;;;;;;;;;
2306.0;2230.0;;;;-0.79917157;0.555523;-0.45050055;;;;;;;;;;;;;;;
2306.0;2235.4;;;;;;;;;;-1.9837031;9.483627;3.2883694;;;;;;;;;
2306.0;2235.4;;;;;;;0.8082522;-0.57350385;-0.07330546;;;;;;;;;;;;
2306.0;2235.4;;;;;;;;;;-2.5330362;13.477737;3.5782952;;;;;;;;;
2306.0;2235.4;;;;;;;0.8074587;-0.56398207;-0.08850368;;;;;;;;;;;;
2307.0;2240.1;;;;-0.79859173;0.54866415;-0.45769888;;;;;;;;;;;;;;;
2307.0;2240.1;;;;-0.79620373;0.53992087;-0.46602637;;;;;;;;;;;;;;;
2307.0;2240.1;;;;-0.79392254;0.53137976;-0.47391897;;;;;;;;;;;;;;;
2307.0;2240.1;;;;-0.7939378;0.52366644;-0.47961432;;;;;;;;;;;;;;;
2307.0;2240.1;;;;-0.79600155;0.51759344;-0.48406225;;;;;;;;;;;;;;;
2307.0;2245.1;;;;;;;;;;-3.238777;17.742699;3.318888;;;;;;;;;
2307.0;2245.1;;;;;;;0.8011719;-0.558916;-0.105288856;;;;;;;;;;;;
2307.0;2245.1;;;;;;;;;;-3.868221;22.171696;2.5254066;;;;;;;;;
2307.0;2245.1;;;;;;;0.8028199;-0.5551927;-0.11761834;;;;;;;;;;;;
2307.0;2245.4;262143;262143;12862;;;;;;;;;;;;;;;;;;
2307.0;2250.2;;;;-0.798771;0.5135918;-0.48808676;;;;;;;;;;;;;;;
2307.0;2250.2;;;;-0.79914486;0.51134497;-0.49139792;;;;;;;;;;;;;;;
2307.0;2250.2;;;;-0.796837;0.5109826;-0.49371725;;;;;;;;;;;;;;;
2307.0;2250.2;;;;-0.79233944;0.5117493;-0.49610144;;;;;;;;;;;;;;;
2307.0;2250.2;;;;-0.7848588;0.5139504;-0.49742895;;;;;;;;;;;;;;;
2307.0;2251.3;;;;;;;;;;;;;-4295;;;;;;;;
2307.0;2251.3;;;;;;;;;;;;;-5020;;;;;;;;
2307.0;2251.3;;;;;;;;;;;;;-5491;;;;;;;;
2307.0;2251.3;;;;;;;;;;;;;-5667;;;;;;;;
2307.0;2251.3;;;;;;;;;;;;;-5637;;;;;;;;
2307.0;2254.7;;;;;;;;;;-4.528184;26.493881;1.8311106;;;;;;;;;
2307.0;2254.7;;;;;;;0.81044954;-0.5545213;-0.13049714;;;;;;;;;;;;
2307.0;2254.7;;;;;;;;;;-5.00885;30.373547;1.3580737;;;;;;;;;
2307.0;2254.7;;;;;;;0.80434585;-0.55940425;-0.14050722;;;;;;;;;;;;
2309.0;2259.7;;;;;;;;;;;;;;;;;9.784997;5.550554;-4.3565173;;2169.5
2309.0;2259.7;;;;;;;;;;;;;;0.89889216;0.3051851;-0.20801416;;;;;2169.5
2309.0;2259.7;;;;;;;;;;;;;;;;;10.296182;5.5963316;-4.6388135;;2169.5
2309.0;2259.7;;;;;;;;;;;;;;0.90212715;0.30573443;-0.20813623;;;;;2169.5
2309.0;2259.7;;;;;;;;;;;;;;;;;10.528886;5.771813;-4.8486285;;2179.2
2309.0;2259.7;;;;;;;;;;;;;;0.9045076;0.3035371;-0.20667134;;;;;2179.2
2309.0;2259.7;;;;;;;;;;;;;;;;;10.826442;5.9701834;-5.077517;;2179.2
2309.0;2259.7;;;;;;;;;;;;;;0.9053011;0.30036318;-0.2064272;;;;;2179.2
2309.0;2259.7;;;;;;;;;;;;;;;;;10.917997;6.0960727;-5.283517;;2188.7
2309.0;2259.7;;;;;;;;;;;;;;0.90359205;0.2969451;-0.21100497;;;;;2188.7
2309.0;2259.7;;;;;;;;;;;;;;;;;10.795923;6.328776;-5.4246655;;2188.7
2309.0;2259.7;;;;;;;;;;;;;;0.90194404;0.29377118;-0.21375164;;;;;2188.7
2309.0;2260.2;;;;-0.77743924;0.51702505;-0.49841696;;;;;;;;;;;;;;;
2309.0;2260.2;;;;-0.7681695;0.52019125;-0.49711615;;;;;;;;;;;;;;;
2309.0;2260.2;;;;-0.7592279;0.5224343;-0.49573523;;;;;;;;;;;;;;;
2309.0;2260.2;;;;-0.7519723;0.5239983;-0.49469382;;;;;;;;;;;;;;;
2309.0;2260.2;;;;-0.745987;0.52403265;-0.49353796;;;;;;;;;;;;;;;
2309.0;2264.2;;;;;;;;;;-5.3025913;32.837917;0.9460738;;;;;;;;;
2309.0;2264.2;;;;;;;0.78414255;-0.55800045;-0.1490524;;;;;;;;;;;;
2309.0;2264.2;;;;;;;;;;-5.8481092;33.932766;1.6975921;;;;;;;;;
2309.0;2264.2;;;;;;;0.76021606;-0.5637379;-0.15424055;;;;;;;;;;;;
2309.0;2265.5;262143;262143;12863;;;;;;;;;;;;;;;;;;
2310.0;2267.0;;;;;;;;;;;;;;;;;10.834071;6.576739;-5.5543685;;2198.2
2310.0;2267.0;;;;;;;;;;;;;;0.90133363;0.28992584;-0.21607105;;;;;2198.2
2310.0;2267.0;;;;;;;;;;;;;;;;;11.024812;6.76748;-5.668813;;2198.2
2310.0;2267.0;;;;;;;;;;;;;;0.90121156;0.28662986;-0.21637623;;;;;2198.2
