patientId;holterMac;flexMac;;;;;;;;;;;;;;;;;;;;
;CA:F3:0B:1E:33:78;D3:4A:5C:52:80:78;;;;;;;;;;;;;;;;;;;;
receivedTimeStamp;timeStamp;red;ir;green;adxl_accX;adxl_accY;adxl_accZ;lsm_accelX;lsm_accelY;lsm_accelZ;lsm_gyroX;lsm_gyroY;lsm_gyroZ;ecg;flex_lsm_accelX;flex_lsm_accelY;flex_lsm_accelZ;flex_lsm_gyroX;flex_lsm_gyroY;flex_lsm_gyroZ;flex_cmd;flexTimeStamp
273.0;219.1;;;;;;;;;;;;;;;;;;;;17;0.1
273.0;219.1;;;;;;;;;;;;;;;;;13.779107;0.6447035;1.1139256;;127.5
273.0;219.1;;;;;;;;;;;;;;0.44264045;-0.59810174;0.041444138;;;;;127.5
273.0;219.1;;;;;;;;;;;;;;;;;-5.0660725;-17.319254;-7.309183;;127.5
273.0;219.1;;;;;;;;;;;;;;0.40021974;-0.59566027;0.04687643;;;;;127.5
273.0;219.1;;;;;;;;;;;;;;;;;-65.52324;-84.547714;-59.736168;;137.1
273.0;219.1;;;;;;;;;;;;;;0.3645741;-0.5990173;0.026673177;;;;;137.1
273.0;219.1;;;;;;;;;;;;;;;;;-122.52037;-124.988556;-118.842896;;137.1
273.0;219.1;;;;;;;;;;;;;;0.30066836;-0.5882748;-0.0022583697;;;;;137.1
334.0;220.0;;;;;;;;;;;;;;;;;-67.1598;-124.988556;-65.70254;;146.7
334.0;220.0;;;;;;;;;;;;;;0.26038393;-0.59511095;-0.021362957;;;;;146.7
334.0;220.0;;;;;;;;;;;;;;;;;-16.785181;-124.988556;2.7008882;;146.7
334.0;220.0;;;;;;;;;;;;;;0.2146672;-0.6056093;-0.047669914;;;;;146.7
334.0;220.0;;;;;;;;;;;;;;;;;-30.476545;-101.687675;23.998993;;156.4
334.0;220.0;;;;;;;;;;;;;;0.1820124;-0.61329997;-0.08832057;;;;;156.4
334.0;220.0;;;;;;;;;;;;;;;;;-41.71499;-25.097658;56.810204;;156.4
334.0;220.0;;;;;;;;;;;;;;0.15558337;-0.61470383;-0.114627525;;;;;156.4
334.0;220.0;;;;;;;;;;;;;;;;;-42.462692;-19.714956;62.940613;;166.0
334.0;220.0;;;;;;;;;;;;;;0.122989595;-0.61970884;-0.13885921;;;;;166.0
334.0;220.0;;;;;;;;;;;;;;;;;-38.686028;-19.92477;66.52272;;166.0
334.0;220.0;;;;;;;;;;;;;;0.09747612;-0.62318796;-0.15710929;;;;;166.0
334.0;279.6;;;;;;;;;;;;;;;;;-31.601917;-18.64681;69.18164;;175.7
334.0;279.6;;;;;;;;;;;;;;0.08209479;-0.6239204;-0.16150396;;;;;175.7
334.0;279.6;;;;;;;;;;;;;;;;;-22.709585;-18.864254;69.80346;;175.7
334.0;279.6;;;;;;;;;;;;;;0.071413316;-0.60683006;-0.16278572;;;;;175.7
334.0;279.6;;;;;;;;;;;;;;;;;-12.985626;-23.461103;69.53642;;185.3
334.0;279.6;;;;;;;;;;;;;;0.07885983;-0.5525071;-0.19708854;;;;;185.3
334.0;279.6;;;;;;;;;;;;;;;;;-3.131962;-31.430248;69.42579;;185.3
334.0;279.6;;;;;;;;;;;;;;0.08417005;-0.5058138;-0.21729179;;;;;185.3
334.0;279.6;;;;;;;;;;;;;;;;;4.0894804;-43.378246;68.56746;;194.9
334.0;279.6;;;;;;;;;;;;;;0.097048864;-0.4560686;-0.27710807;;;;;194.9
334.0;279.6;;;;;;;;;;;;;;;;;15.148624;-53.10602;67.78161;;194.9
334.0;279.6;;;;;;;;;;;;;;0.07770012;-0.42658773;-0.2890103;;;;;194.9
397.0;280.4;;;;;;;;;;;;;;;;;23.483994;-65.0235;68.13257;;204.5
397.0;280.4;;;;;;;;;;;;;;0.06946013;-0.420423;-0.29029205;;;;;204.5
397.0;280.4;;;;;;;;;;;;;;;;;28.904844;-75.128944;66.00772;;204.5
397.0;280.4;;;;;;;;;;;;;;0.059266947;-0.4011353;-0.28858304;;;;;204.5
397.0;280.4;;;;;;;;;;;;;;;;;34.028137;-84.67361;64.0202;;214.2
397.0;280.4;;;;;;;;;;;;;;0.048280284;-0.4026612;-0.28797266;;;;;214.2
397.0;280.4;;;;;;;;;;;;;;;;;41.047394;-92.06671;61.95639;;214.2
397.0;280.4;;;;;;;;;;;;;;0.06439406;-0.40937528;-0.2874233;;;;;214.2
397.0;280.4;;;;;;;;;;;;;;;;;48.76095;-97.52571;60.110016;;223.8
397.0;280.4;;;;;;;;;;;;;;0.0949736;-0.40333262;-0.2865688;;;;;223.8
397.0;280.4;;;;;;;;;;;;;;;;;51.557205;-105.84964;58.729057;;223.8
397.0;280.4;;;;;;;;;;;;;;0.14899136;-0.39863276;-0.34290597;;;;;223.8
397.0;340.0;;;;;;;;;;;;;;;;;52.640614;-115.51256;57.73339;;233.5
397.0;340.0;;;;;;;;;;;;;;0.21869564;-0.3863033;-0.40748313;;;;;233.5
397.0;340.0;;;;;;;;;;;;;;;;;53.235725;-122.06641;57.79061;;233.5
397.0;340.0;;;;;;;;;;;;;;0.30976287;-0.36902982;-0.45735037;;;;;233.5
397.0;340.0;;;;;;;;;;;;;;;;;52.854244;-124.30189;58.870205;;243.1
397.0;340.0;;;;;;;;;;;;;;0.39197972;-0.36561173;-0.4903714;;;;;243.1
397.0;340.0;;;;;;;;;;;;;;;;;50.954464;-124.47356;60.312202;;243.1
397.0;340.0;;;;;;;;;;;;;;0.47926268;-0.3645741;-0.49385053;;;;;243.1
397.0;340.0;;;;;;;;;;;;;;;;;47.10532;-124.12259;62.105167;;252.6
397.0;340.0;;;;;;;;;;;;;;0.56776637;-0.3876461;-0.50166327;;;;;252.6
397.0;340.0;;;;;;;;;;;;;;;;;43.591877;-121.868034;62.646873;;252.6
397.0;340.0;;;;;;;;;;;;;;0.68727684;-0.38966033;-0.5030061;;;;;252.6
458.0;340.7;;;;;;;;;;;;;;;;;41.31443;-114.73815;64.39787;;262.3
458.0;340.7;;;;;;;;;;;;;;0.7569201;-0.40656757;-0.4664449;;;;;262.3
458.0;340.7;;;;;;;;;;;;;;;;;42.210915;-107.825714;64.84802;;262.3
458.0;340.7;;;;;;;;;;;;;;0.8308969;-0.4011353;-0.43879512;;;;;262.3
458.0;340.7;;;;;;;;;;;;;;;;;40.879543;-96.73986;65.52324;;271.8
458.0;340.7;;;;;;;;;;;;;;0.89095736;-0.4067507;-0.40504166;;;;;271.8
458.0;340.7;;;;;;;;;;;;;;;;;38.38084;-81.57597;66.59521;;271.8
458.0;340.7;;;;;;;;;;;;;;0.9551683;-0.41749322;-0.3745842;;;;;271.8
458.0;340.7;;;;;;;;;;;;;;;;;34.26084;-60.029907;66.12217;;281.5
458.0;340.7;;;;;;;;;;;;;;1.0043641;-0.4339732;-0.316599;;;;;281.5
458.0;340.7;;;;;;;;;;;;;;;;;28.1724;-38.232063;64.38643;;281.5
458.0;340.7;;;;;;;;;;;;;;1.0606403;-0.44380015;-0.24555193;;;;;281.5
458.0;400.3;;;;;;;;;;;;;;;;;20.405437;-17.365032;62.639244;;291.2
458.0;400.3;;;;;;;;;;;;;;1.1355327;-0.46290475;-0.2200995;;;;;291.2
458.0;400.3;;;;;;;;;;;;;;;;;14.812922;3.6317027;57.832577;;291.2
458.0;400.3;;;;;;;;;;;;;;1.131016;-0.52143925;-0.18451491;;;;;291.2
458.0;400.3;;;;;;;;;;;;;;;;;11.829738;15.961182;44.0611;;300.7
458.0;400.3;;;;;;;;;;;;;;1.1885128;-0.54249704;-0.16742454;;;;;300.7
458.0;400.3;;;;;;;;;;;;;;;;;10.742516;23.86929;25.521103;;300.7
458.0;400.3;;;;;;;;;;;;;;1.2533342;-0.5608081;-0.1572924;;;;;300.7
458.0;400.3;;;;;;;;;;;;;;;;;10.380108;30.92288;12.092959;;310.4
458.0;400.3;;;;;;;;;;;;;;1.3737602;-0.46864223;-0.23285623;;;;;310.4
458.0;400.3;;;;;;;;;;;;;;;;;10.368664;46.403393;13.302256;;310.4
458.0;400.3;;;;;;;;;;;;;;1.4365063;-0.4062624;-0.25202185;;;;;310.4
517.0;401.5;;;;;;;;;;;;;;;;;16.48381;52.85043;29.656363;;320.1
517.0;401.5;;;;;;;;;;;;;;1.5095675;-0.31891844;-0.24689475;;;;;320.1
517.0;401.5;;;;;;;;;;;;;;;;;23.602253;55.61617;57.54265;;320.1
517.0;401.5;;;;;;;;;;;;;;1.4694662;-0.23554185;-0.22064883;;;;;320.1
517.0;401.5;;;;;;;;;;;;;;;;;26.30314;59.430984;84.70794;;329.7
517.0;401.5;;;;;;;;;;;;;;1.2953887;-0.28083134;-0.17859432;;;;;329.7
517.0;401.5;;;;;;;;;;;;;;;;;18.791773;65.725426;91.650894;;329.7
517.0;401.5;;;;;;;;;;;;;;1.1647084;-0.31403548;-0.13312174;;;;;329.7
517.0;401.5;;;;;;;;;;;;;;;;;9.006775;72.35175;86.6802;;339.4
517.0;401.5;;;;;;;;;;;;;;1.1602527;-0.2562334;-0.10309152;;;;;339.4
517.0;401.5;;;;;;;;;;;;;;;;;0.39674062;79.51979;83.48338;;339.4
517.0;401.5;;;;;;;;;;;;;;1.1454207;-0.2252266;-0.07238991;;;;;339.4
517.0;460.8;;;;;;;;;;;;;;;;;-6.870479;85.211494;80.088196;;349.0
517.0;460.8;;;;;;;;;;;;;;1.1206397;-0.20026246;-0.061098058;;;;;349.0
517.0;460.8;;;;;;;;;;;;;;;;;-11.123997;87.42027;75.65157;;349.0
517.0;460.8;;;;;;;;;;;;;;1.104587;-0.16840114;-0.06268502;;;;;349.0
517.0;460.8;;;;;;;;;;;;;;;;;-14.820552;87.1952;71.72994;;358.7
517.0;460.8;;;;;;;;;;;;;;1.0878627;-0.15009002;-0.09149449;;;;;358.7
517.0;460.8;;;;;;;;;;;;;;;;;-18.63155;87.45842;67.770164;;358.7
517.0;460.8;;;;;;;;;;;;;;1.0628986;-0.13116856;-0.13727225;;;;;358.7
517.0;460.8;;;;;;;;;;;;;;;;;-23.709066;87.961975;63.97061;;368.3
517.0;460.8;;;;;;;;;;;;;;1.0398877;-0.11792352;-0.16730247;;;;;368.3
517.0;460.8;;;;;;;;;;;;;;;;;-30.644398;86.68401;61.151463;;368.3
517.0;460.8;;;;;;;;;;;;;;1.027131;-0.11963256;-0.20178838;;;;;368.3
579.0;461.4;;;;;;;;;;;;;;;;;-39.773247;84.50957;59.19065;;377.9
579.0;461.4;;;;;;;;;;;;;;0.9905698;-0.15289773;-0.24933623;;;;;377.9
579.0;461.4;;;;;;;;;;;;;;;;;-46.03717;80.64134;57.86691;;377.9
579.0;461.4;;;;;;;;;;;;;;0.96188235;-0.20935698;-0.27582628;;;;;377.9
579.0;461.4;;;;;;;;;;;;;;;;;-49.55443;75.235756;56.48976;;387.6
579.0;461.4;;;;;;;;;;;;;;0.92519915;-0.26514482;-0.28620258;;;;;387.6
579.0;461.4;;;;;;;;;;;;;;;;;-50.83239;68.792534;55.581833;;387.6
579.0;461.4;;;;;;;;;;;;;;0.8883328;-0.34858242;-0.2705771;;;;;387.6
579.0;461.4;;;;;;;;;;;;;;;;;-50.458538;65.511795;55.14313;;397.2
579.0;461.4;;;;;;;;;;;;;;0.83315533;-0.43110445;-0.31055635;;;;;397.2
579.0;461.4;;;;;;;;;;;;;;;;;-52.62154;65.55758;54.548023;;397.2
579.0;461.4;;;;;;;;;;;;;;0.797998;-0.5266274;-0.4521012;;;;;397.2
579.0;520.9;;;;;;;;;;;;;;;;;-53.212837;68.262276;54.01013;;406.8
579.0;520.9;;;;;;;;;;;;;;0.7981811;-0.61940366;-0.5659963;;;;;406.8
579.0;520.9;;;;;;;;;;;;;;;;;-52.838985;68.71623;54.734947;;406.8
579.0;520.9;;;;;;;;;;;;;;0.7776116;-0.71480453;-0.61610764;;;;;406.8
579.0;520.9;;;;;;;;;;;;;;;;;-54.303875;62.932983;56.550797;;416.5
579.0;520.9;;;;;;;;;;;;;;0.72011477;-0.8523209;-0.54969937;;;;;416.5
579.0;520.9;;;;;;;;;;;;;;;;;-54.91424;53.716393;57.24128;;416.5
579.0;520.9;;;;;;;;;;;;;;0.6394238;-1.09476;-0.23389386;;;;;416.5
579.0;520.9;;;;;;;;;;;;;;;;;-48.074284;43.64147;58.01187;;426.0
579.0;520.9;;;;;;;;;;;;;;0.5584887;-1.4164861;0.16913357;;;;;426.0
579.0;520.9;;;;;;;;;;;;;;;;;-29.271067;33.95947;62.166203;;426.0
579.0;520.9;;;;;;;;;;;;;;0.4585101;-1.7159947;0.49336222;;;;;426.0
638.0;522.1;;;;;;;;;;;;;;;;;-15.694143;22.186956;63.531906;;435.5
638.0;522.1;;;;;;;;;;;;;;0.3065279;-1.9310281;0.72023684;;;;;435.5
638.0;522.1;;;;;;;;;;;;;;;;;-20.214697;-1.0414442;57.679985;;435.5
638.0;522.1;;;;;;;;;;;;;;0.20783105;-1.9998169;0.54103214;;;;;435.5
638.0;522.1;;;;;;;;;;;;;;;;;-20.60381;-20.359661;47.27317;;445.2
638.0;522.1;;;;;;;;;;;;;;0.21295816;-1.9584948;-0.030335398;;;;;445.2
638.0;522.1;;;;;;;;;;;;;;;;;-6.0579243;-31.247139;45.186466;;445.2
638.0;522.1;;;;;;;;;;;;;;0.2834559;-1.7413862;-0.6102481;;;;;445.2
638.0;522.1;;;;;;;;;;;;;;;;;15.617847;-43.99243;41.81036;;454.8
638.0;522.1;;;;;;;;;;;;;;0.6074404;-1.3200476;-1.0064394;;;;;454.8
638.0;522.1;;;;;;;;;;;;;;;;;36.099583;-51.942505;37.52632;;454.8
638.0;522.1;;;;;;;;;;;;;;0.9355754;-0.94985807;-1.1495101;;;;;454.8
638.0;536.0;;;;;;;;;;;;;;;;;60.510574;-48.860134;34.859768;;464.5
638.0;536.0;;;;;;;;;;;;;;1.1192969;-0.6803186;-0.92788476;;;;;464.5
638.0;536.0;;;;;;;;;;;;;;;;;70.53972;-33.097324;32.15888;;464.5
638.0;536.0;;;;;;;;;;;;;;1.140965;-0.46919155;-0.5058748;;;;;464.5
638.0;536.0;;;;;;;;;;;;;;;;;69.963684;-13.908811;29.49614;;474.1
638.0;536.0;;;;;;;;;;;;;;1.0755943;-0.31452376;-0.054139838;;;;;474.1
638.0;536.0;;;;;;;;;;;;;;;;;58.06528;-1.9722588;28.145695;;474.1
638.0;536.0;;;;;;;;;;;;;;0.9311808;-0.27997681;0.39033175;;;;;474.1
638.0;536.0;;;;;;;;;;;;;;;;;34.241768;-6.2067018;22.4044;;483.8
638.0;536.0;;;;;;;;;;;;;;0.78078556;-0.4083987;0.511063;;;;;483.8
638.0;536.0;;;;;;;;;;;;;;;;;22.171696;-7.78222;12.897885;;483.8
638.0;536.0;;;;;;;;;;;;;;0.6244087;-0.55769527;0.48628193;;;;;483.8
696.0;581.3;;;;;;;;;;;;;;;;;15.789515;-1.0223701;3.4867396;;493.4
696.0;581.3;;;;;;;;;;;;;;0.4770043;-0.6567583;0.43739128;;;;;493.4
696.0;581.3;;;;;;;;;;;;;;;;;5.279702;8.59859;-3.1815546;;493.4
696.0;581.3;;;;;;;;;;;;;;0.38227484;-0.7647939;0.3551134;;;;;493.4
696.0;581.3;;;;;;;;;;;;;;;;;-11.135441;17.17429;-8.411665;;502.9
696.0;581.3;;;;;;;;;;;;;;0.35157323;-0.8283944;0.14337596;;;;;502.9
696.0;581.3;;;;;;;;;;;;;;;;;-32.99051;23.377178;-10.910368;;502.9
696.0;581.3;;;;;;;;;;;;;;0.4015015;-0.8280282;-0.14966278;;;;;502.9
696.0;581.3;;;;;;;;;;;;;;;;;-60.010834;23.621326;-11.440626;;512.6
696.0;581.3;;;;;;;;;;;;;;0.5584887;-0.807886;-0.46626177;;;;;512.6
696.0;581.3;;;;;;;;;;;;;;;;;-92.39097;15.903959;-9.437849;;512.6
696.0;581.3;;;;;;;;;;;;;;0.8829615;-0.90517896;-0.7792596;;;;;512.6
696.0;596.2;;;;;;;;;;;;;;;;;-121.417885;2.8725548;-10.441145;;522.3
696.0;596.2;;;;;;;;;;;;;;1.4024476;-1.1059908;-1.1656849;;;;;522.3
696.0;596.2;;;;;;;;;;;;;;;;;-124.988556;4.844814;-10.784478;;522.3
696.0;596.2;;;;;;;;;;;;;;1.8823817;-1.4358349;-1.7059847;;;;;522.3
696.0;596.2;;;;;;;;;;;;;;;;;-118.94971;39.17432;-9.73922;;531.9
696.0;596.2;;;;;;;;;;;;;;1.9969481;-1.8200018;-1.9557482;;;;;531.9
696.0;596.2;;;;;;;;;;;;;;;;;-44.957577;77.3568;-4.3755913;;531.9
696.0;596.2;;;;;;;;;;;;;;1.9969481;-1.7783746;-1.4461501;;;;;531.9
696.0;596.2;;;;;;;;;;;;;;;;;50.000763;73.95398;8.747368;;541.5
696.0;596.2;;;;;;;;;;;;;;1.6904203;-1.0146794;-0.9540696;;;;;541.5
696.0;596.2;;;;;;;;;;;;;;;;;80.99994;69.83779;21.740623;;541.5
696.0;596.2;;;;;;;;;;;;;;1.1495712;-0.6516923;-0.31092256;;;;;541.5
767.0;641.4;;;;;;;;;;;;;;;;;54.52895;43.877987;20.29481;;551.2
767.0;641.4;;;;;;;;;;;;;;0.82992035;-0.5421308;-0.037965026;;;;;551.2
767.0;641.4;;;;;;;;;;;;;;;;;51.084167;18.03644;18.429365;;551.2
767.0;641.4;;;;;;;;;;;;;;0.64741963;-0.5366375;0.04998932;;;;;551.2
767.0;641.4;;;;;;;;;;;;;;;;;49.436172;9.887997;14.385662;;560.9
767.0;641.4;;;;;;;;;;;;;;0.4845729;-0.57502973;0.13861507;;;;;560.9
767.0;641.4;;;;;;;;;;;;;;;;;27.985474;5.8671837;4.7875915;;560.9
767.0;641.4;;;;;;;;;;;;;;0.35608998;-0.57618946;0.06482132;;;;;560.9
767.0;641.4;;;;;;;;;;;;;;;;;-0.3929258;11.864071;-5.226295;;570.4
767.0;641.4;;;;;;;;;;;;;;0.2827235;-0.54896694;-0.041871395;;;;;570.4
767.0;641.4;;;;;;;;;;;;;;;;;-27.2454;26.505325;-9.8155155;;570.4
767.0;641.4;;;;;;;;;;;;;;0.20795313;-0.5979186;-0.11828975;;;;;570.4
767.0;656.8;;;;;;;;;;;;;;;;;-48.24595;44.442577;-13.603626;;580.0
767.0;656.8;;;;;;;;;;;;;;0.19312114;-0.70528275;-0.15161596;;;;;580.0
767.0;656.8;;;;;;;;;;;;;;;;;-61.208683;59.949795;-15.587329;;580.0
767.0;656.8;;;;;;;;;;;;;;0.21228676;-0.8691061;-0.17902158;;;;;580.0
767.0;656.8;;;;;;;;;;;;;;;;;-68.693344;66.60665;-14.355144;;589.7
767.0;656.8;;;;;;;;;;;;;;0.21478927;-1.0047303;-0.23371075;;;;;589.7
767.0;656.8;;;;;;;;;;;;;;;;;-79.68764;62.665947;-8.644367;;589.7
767.0;656.8;;;;;;;;;;;;;;0.2156438;-1.1427962;-0.35999635;;;;;589.7
767.0;656.8;;;;;;;;;;;;;;;;;-86.733604;49.733723;0.3624073;;599.3
767.0;656.8;;;;;;;;;;;;;;0.21332438;-1.3005768;-0.48103276;;;;;599.3
767.0;656.8;;;;;;;;;;;;;;;;;-85.04364;27.680288;10.158849;;599.3
767.0;656.8;;;;;;;;;;;;;;0.21820734;-1.4631184;-0.6353343;;;;;599.3
817.0;701.7;;;;;;;;;;;;;;;;;-73.870056;5.546739;21.80166;;608.7
817.0;701.7;;;;;;;;;;;;;;0.18738365;-1.5934324;-0.7546617;;;;;608.7
817.0;701.7;;;;;;;;;;;;;;;;;-53.743095;-10.917997;36.347546;;608.7
817.0;701.7;;;;;;;;;;;;;;0.17029329;-1.6707664;-0.8273568;;;;;608.7
817.0;701.7;;;;;;;;;;;;;;;;;-29.950102;-17.906734;54.052097;;618.3
817.0;701.7;;;;;;;;;;;;;;0.08374279;-1.757561;-0.8878445;;;;;618.3
817.0;701.7;;;;;;;;;;;;;;;;;-9.033479;-8.983886;61.487167;;618.3
817.0;701.7;;;;;;;;;;;;;;-0.038941618;-1.7833186;-0.88497573;;;;;618.3
817.0;701.7;;;;;;;;;;;;;;;;;6.530961;8.816034;53.720207;;628.0
817.0;701.7;;;;;;;;;;;;;;-0.047608875;-1.6091189;-0.82430494;;;;;628.0
817.0;701.7;;;;;;;;;;;;;;;;;19.142736;24.285105;42.752617;;628.0
817.0;701.7;;;;;;;;;;;;;;0.086123236;-1.2635273;-0.66457105;;;;;628.0
817.0;716.8;;;;;;;;;;;;;;;;;22.049623;28.420362;42.657246;;637.6
817.0;716.8;;;;;;;;;;;;;;0.15601063;-1.096347;-0.54719687;;;;;637.6
817.0;716.8;;;;;;;;;;;;;;;;;22.061068;28.080843;41.287727;;637.6
817.0;716.8;;;;;;;;;;;;;;0.24884793;-0.9585864;-0.48133793;;;;;637.6
817.0;716.8;;;;;;;;;;;;;;;;;21.874142;25.879696;40.36836;;647.3
817.0;716.8;;;;;;;;;;;;;;0.32111576;-0.8682516;-0.42481765;;;;;647.3
817.0;716.8;;;;;;;;;;;;;;;;;20.18418;21.149328;39.220097;;647.3
817.0;716.8;;;;;;;;;;;;;;0.3833125;-0.8092288;-0.40601826;;;;;647.3
817.0;716.8;;;;;;;;;;;;;;;;;18.192846;18.295847;37.41951;;656.9
817.0;716.8;;;;;;;;;;;;;;0.44923246;-0.7770623;-0.3810541;;;;;656.9
817.0;716.8;;;;;;;;;;;;;;;;;15.804773;16.49907;34.501175;;656.9
817.0;716.8;;;;;;;;;;;;;;0.5349895;-0.7215186;-0.33491012;;;;;656.9
936.0;777.2;;;;;;;;;;;;;;;;;11.06296;13.473923;31.95288;;666.5
936.0;777.2;;;;;;;;;;;;;;0.5895566;-0.6713462;-0.28015992;;;;;666.5
936.0;777.2;;;;;;;;;;;;;;;;;10.433516;9.392072;29.40077;;666.5
936.0;777.2;;;;;;;;;;;;;;0.6596881;-0.62678915;-0.22717978;;;;;666.5
936.0;777.2;;;;;;;;;;;;;;;;;12.478255;7.06122;27.562029;;676.1
936.0;777.2;;;;;;;;;;;;;;0.7113254;-0.593524;-0.1225013;;;;;676.1
936.0;777.2;;;;;;;;;;;;;;;;;16.228218;2.9221473;25.551622;;676.1
936.0;777.2;;;;;;;;;;;;;;0.74831384;-0.5851009;-0.049745172;;;;;676.1
936.0;777.2;;;;;;;;;;;;;;;;;21.313364;-1.3580737;22.762993;;685.6
936.0;777.2;;;;;;;;;;;;;;0.7870113;-0.5541551;-0.0042115543;;;;;685.6
936.0;777.2;;;;;;;;;;;;;;;;;23.117771;-4.2191844;19.669178;;685.6
936.0;777.2;;;;;;;;;;;;;;0.8153935;-0.51948607;-0.0145878475;;;;;685.6
936.0;778.4;;;;;;;;;;;;;;;;;23.628956;-4.6731467;16.186255;;695.3
936.0;778.4;;;;;;;;;;;;;;0.82412183;-0.48878446;-0.014343699;;;;;695.3
936.0;778.4;;;;;;;;;;;;;;;;;24.452957;-4.3717766;13.145848;;695.3
936.0;778.4;;;;;;;;;;;;;;0.80794704;-0.46552935;0.0114139225;;;;;695.3
936.0;778.4;;;;;;;;;;;;;;;;;26.039919;-4.856258;9.952848;;704.9
936.0;778.4;;;;;;;;;;;;;;0.74886316;-0.44636372;0.04388562;;;;;704.9
936.0;778.4;;;;;;;;;;;;;;;;;26.20014;-7.3206277;7.5800347;;704.9
936.0;778.4;;;;;;;;;;;;;;0.715659;-0.48194832;0.09094516;;;;;704.9
936.0;778.4;;;;;;;;;;;;;;;;;20.56566;-12.310404;6.172369;;714.6
936.0;778.4;;;;;;;;;;;;;;0.6357005;-0.5827204;0.0463271;;;;;714.6
936.0;778.4;;;;;;;;;;;;;;;;;16.144293;-13.30607;4.3221836;;714.6
936.0;778.4;;;;;;;;;;;;;;0.53761405;-0.64821315;0.003601184;;;;;714.6
1179.0;890.8;;;;;;;;;;;;;;;;;12.527848;-14.034699;2.7314067;;724.2
1179.0;890.8;;;;;;;;;;;;;;0.45759454;-0.7081515;-0.05694754;;;;;724.2
1179.0;890.8;;;;;;;;;;;;;;;;;9.952848;-15.285958;0.7667776;;724.2
1179.0;890.8;;;;;;;;;;;;;;0.40443128;-0.7536851;-0.10608234;;;;;724.2
1179.0;890.8;;;;;;;;;;;;;;;;;9.388257;-17.15903;-0.8697775;;733.8
1179.0;890.8;;;;;;;;;;;;;;0.37391278;-0.7965331;-0.13373211;;;;;733.8
1179.0;890.8;;;;;;;;;;;;;;;;;11.135441;-19.760735;-2.067629;;733.8
1179.0;890.8;;;;;;;;;;;;;;0.36335337;-0.8388317;-0.15698722;;;;;733.8
1179.0;890.8;;;;;;;;;;;;;;;;;15.171514;-21.649069;-2.8992584;;743.4
1179.0;890.8;;;;;;;;;;;;;;0.36408582;-0.8602557;-0.18115787;;;;;743.4
1179.0;890.8;;;;;;;;;;;;;;;;;19.810328;-22.312845;-3.2807398;;743.4
1179.0;890.8;;;;;;;;;;;;;;0.36579487;-0.86593217;-0.19660024;;;;;743.4
1179.0;891.4;;;;;;;;;;;;;;;;;24.468216;-22.919401;-3.238777;;753.1
1179.0;891.4;;;;;;;;;;;;;;0.37665945;-0.86208683;-0.21027254;;;;;753.1
1179.0;891.4;;;;;;;;;;;;;;;;;29.766993;-22.751549;-2.9793696;;753.1
1179.0;891.4;;;;;;;;;;;;;;0.3935667;-0.8527482;-0.21008942;;;;;753.1
1179.0;891.4;;;;;;;;;;;;;;;;;35.245064;-21.858883;-2.704703;;762.8
1179.0;891.4;;;;;;;;;;;;;;0.40864283;-0.8206427;-0.19232765;;;;;762.8
1179.0;891.4;;;;;;;;;;;;;;;;;40.215763;-21.549883;-2.55974;;762.8
1179.0;891.4;;;;;;;;;;;;;;0.42200994;-0.7727897;-0.1815241;;;;;762.8
1179.0;891.4;;;;;;;;;;;;;;;;;43.279064;-22.190771;-2.3613698;;772.4
1179.0;891.4;;;;;;;;;;;;;;0.4403821;-0.71932125;-0.18988617;;;;;772.4
1179.0;891.4;;;;;;;;;;;;;;;;;43.572803;-23.037659;-1.9722588;;772.4
1179.0;891.4;;;;;;;;;;;;;;0.4608295;-0.671041;-0.2038026;;;;;772.4
1237.0;1129.6;;;;0.0;0.0;0.0;;;;;;;;;;;;;;;
1237.0;1129.6;;;;-0.118949905;0.16742708;0.03333283;;;;;;;;;;;;;;;
1237.0;1129.6;;;;-0.53947073;0.9184724;0.0020790102;;;;;;;;;;;;;;;
1237.0;1129.6;;;;-0.6060067;1.0411035;-0.010314942;;;;;;;;;;;;;;;
1237.0;1129.6;;;;-0.61272055;1.0606805;-0.010154725;;;;;;;;;;;;;;;
1237.0;1139.6;;;;-0.62195975;1.0762559;-0.0125427265;;;;;;;;;;;;;;;
1237.0;1139.6;;;;-0.6350823;1.0905801;-0.012851717;;;;;;;;;;;;;;;
1237.0;1139.6;;;;-0.6481553;1.1038667;-0.012149813;;;;;;;;;;;;;;;
1237.0;1139.6;;;;-0.65552527;1.119156;-0.010692597;;;;;;;;;;;;;;;
1237.0;1139.6;;;;-0.6547852;1.1404077;-0.013015749;;;;;;;;;;;;;;;
1237.0;1140.8;57521;57571;10259;;;;;;;;;;;;;;;;;;
1237.0;1149.5;;;;-0.67732626;1.1547662;-0.011470796;;;;;;;;;;;;;;;
1237.0;1149.5;;;;-0.6921273;1.1680719;-0.0031013493;;;;;;;;;;;;;;;
1237.0;1149.5;;;;-0.7032586;1.1885263;-5.340577E-5;;;;;;;;;;;;;;;
1237.0;1149.5;;;;-0.71775824;1.20533;7.6675427E-4;;;;;;;;;;;;;;;
1237.0;1149.5;;;;-0.73470694;1.2244912;0.004451752;;;;;;;;;;;;;;;
1239.0;1159.6;;;;-0.7370568;1.2517396;0.010967256;;;;;;;;;;;;;;;
1239.0;1159.6;;;;-0.7563096;1.2685014;0.010936738;;;;;;;;;;;;;;;
1239.0;1159.6;;;;-0.7695123;1.292164;0.018024446;;;;;;;;;;;;;;;
1239.0;1159.6;;;;-0.7950784;1.3089486;0.02276993;;;;;;;;;;;;;;;
1239.0;1159.6;;;;-0.82756054;1.3233033;0.031574253;;;;;;;;;;;;;;;
1239.0;1160.9;73843;73883;10232;;;;;;;;;;;;;;;;;;
1239.0;1167.3;;;;;;;;;;;;;0;;;;;;;;
1239.0;1167.3;;;;;;;;;;;;;0;;;;;;;;
1239.0;1167.3;;;;;;;;;;;;;-1;;;;;;;;
1239.0;1167.3;;;;;;;;;;;;;-3;;;;;;;;
1239.0;1167.3;;;;;;;;;;;;;-3;;;;;;;;
1239.0;1169.7;;;;-0.8428918;1.341961;0.036437992;;;;;;;;;;;;;;;
1239.0;1169.7;;;;-0.87734234;1.3463479;0.043926243;;;;;;;;;;;;;;;
1239.0;1169.7;;;;-0.8987428;1.3634187;0.05573655;;;;;;;;;;;;;;;
1239.0;1169.7;;;;-0.93229306;1.3642999;0.061443336;;;;;;;;;;;;;;;
1239.0;1169.7;;;;-0.9431459;1.3811227;0.070579536;;;;;;;;;;;;;;;
1239.0;1179.8;;;;-0.9665872;1.3781968;0.08153153;;;;;;;;;;;;;;;
1239.0;1179.8;;;;-0.99359906;1.3727037;0.10617067;;;;;;;;;;;;;;;
1239.0;1179.8;;;;-1.006775;1.3878213;0.12692262;;;;;;;;;;;;;;;
1239.0;1179.8;;;;-1.0133363;1.4059182;0.12290193;;;;;;;;;;;;;;;
1239.0;1179.8;;;;-1.0192796;1.4191438;0.11751558;;;;;;;;;;;;;;;
1239.0;1181.2;90262;90247;10203;;;;;;;;;;;;;;;;;;
1240.0;1185.6;;;;;;;;;;;;;;;;;41.34495;-23.586992;-1.2665181;;782.1
1240.0;1185.6;;;;;;;;;;;;;;0.4937895;-0.6270333;-0.23029268;;;;;782.1
1240.0;1185.6;;;;;;;;;;;;;;;;;37.442398;-23.25129;-0.24414808;;782.1
1240.0;1185.6;;;;;;;;;;;;;;0.5326701;-0.5912046;-0.2511063;;;;;782.1
1240.0;1185.6;;;;;;;;;;;;;;;;;33.452103;-22.606585;1.209296;;791.8
1240.0;1185.6;;;;;;;;;;;;;;0.5645314;-0.5645924;-0.27228615;;;;;791.8
1240.0;1185.6;;;;;;;;;;;;;;;;;29.747917;-21.145512;2.7695546;;791.8
1240.0;1185.6;;;;;;;;;;;;;;0.60206914;-0.5460372;-0.28998688;;;;;791.8
1240.0;1185.6;;;;;;;;;;;;;;;;;26.2154;-18.620106;4.3946652;;801.5
1240.0;1185.6;;;;;;;;;;;;;;0.6352733;-0.5309;-0.28766748;;;;;801.5
1240.0;1185.6;;;;;;;;;;;;;;;;;23.201696;-15.888699;5.8442945;;801.5
1240.0;1185.6;;;;;;;;;;;;;;0.65926087;-0.51796013;-0.26801354;;;;;801.5
1240.0;1186.5;;;;;;;;;;;;;;;;;21.164587;-13.61507;7.309183;;811.0
1240.0;1186.5;;;;;;;;;;;;;;0.67659533;-0.50428784;-0.25861385;;;;;811.0
1240.0;1186.5;;;;;;;;;;;;;;;;;19.932402;-11.211737;8.7397375;;811.0
1240.0;1186.5;;;;;;;;;;;;;;0.6878872;-0.48927274;-0.26319164;;;;;811.0
1240.0;1186.5;;;;;;;;;;;;;;;;;18.929106;-8.850368;9.758293;;820.6
1240.0;1186.5;;;;;;;;;;;;;;0.687582;-0.4677877;-0.28034303;;;;;820.6
1240.0;1186.5;;;;;;;;;;;;;;;;;17.582476;-5.794702;10.395368;;820.6
1240.0;1186.5;;;;;;;;;;;;;;0.6823328;-0.4417249;-0.28620258;;;;;820.6
1240.0;1186.5;;;;;;;;;;;;;;;;;16.453293;-2.8000731;10.414441;;830.3
1240.0;1186.5;;;;;;;;;;;;;;0.67323834;-0.40974152;-0.2779626;;;;;830.3
1240.0;1186.5;;;;;;;;;;;;;;;;;15.77807;-0.98422194;10.048219;;830.3
1240.0;1186.5;;;;;;;;;;;;;;0.66096985;-0.37549976;-0.2730186;;;;;830.3
1242.0;1187.8;;;;;;;;;;;;;;;;;16.26255;0.41199988;9.361553;;840.0
1242.0;1187.8;;;;;;;;;;;;;;0.6497391;-0.34748375;-0.2573321;;;;;840.0
1242.0;1187.8;;;;;;;;;;;;;;;;;16.83096;1.8807031;8.354443;;840.0
1242.0;1187.8;;;;;;;;;;;;;;0.62587357;-0.3302713;-0.23468734;;;;;840.0
1242.0;1187.8;;;;;;;;;;;;;;;;;17.147587;3.093814;7.003998;;849.4
1242.0;1187.8;;;;;;;;;;;;;;0.59022796;-0.30744347;-0.2111881;;;;;849.4
1242.0;1187.8;;;;;;;;;;;;;;;;;16.548662;3.1434064;5.5352945;;849.4
1242.0;1187.8;;;;;;;;;;;;;;0.54750204;-0.2916349;-0.20239876;;;;;849.4
1242.0;1187.8;;;;;;;;;;;;;;;;;14.984588;2.5482955;3.952147;;859.0
1242.0;1187.8;;;;;;;;;;;;;;0.51368755;-0.28553116;-0.19263284;;;;;859.0
1242.0;1187.8;;;;;;;;;;;;;;;;;14.267404;1.0567034;2.0371106;;859.0
1242.0;1187.8;;;;;;;;;;;;;;0.49421674;-0.28333384;-0.19574572;;;;;859.0
1242.0;1188.4;;;;;;;;;;;;;;;;;13.4167;-1.1711478;0.16403699;;868.7
1242.0;1188.4;;;;;;;;;;;;;;0.484756;-0.28498185;-0.21552171;;;;;868.7
1242.0;1188.4;;;;;;;;;;;;;;;;;13.2107;-3.1586657;-1.7738883;;868.7
1242.0;1188.4;;;;;;;;;;;;;;0.47791985;-0.3060396;-0.21033357;;;;;868.7
1242.0;1188.4;;;;;;;;;;;;;;;;;14.400922;-5.287332;-3.6393323;;878.3
1242.0;1188.4;;;;;;;;;;;;;;0.47413558;-0.3350322;-0.20471816;;;;;878.3
1242.0;1188.4;;;;;;;;;;;;;;;;;16.07181;-7.4655905;-5.344554;;878.3
1242.0;1188.4;;;;;;;;;;;;;;0.47755364;-0.35767692;-0.23071994;;;;;878.3
1242.0;1188.4;;;;;;;;;;;;;;;;;17.216253;-8.316295;-6.6835537;;888.0
1242.0;1188.4;;;;;;;;;;;;;;0.4901883;-0.37220374;-0.26178777;;;;;888.0
1242.0;1188.4;;;;;;;;;;;;;;;;;16.930143;-8.48033;-7.507553;;888.0
1242.0;1188.4;;;;;;;;;;;;;;0.51405376;-0.3949095;-0.2858974;;;;;888.0
1243.0;1189.3;;;;;;;;;;;;;;;;;16.151922;-8.144628;-7.816553;;897.6
1243.0;1189.3;;;;;;;;;;;;;;0.5497604;-0.4323252;-0.28553116;;;;;897.6
1243.0;1189.3;;;;;;;;;;;;;;;;;16.113773;-8.575701;-7.9004793;;897.6
1243.0;1189.3;;;;;;;;;;;;;;0.59474474;-0.4794458;-0.2811365;;;;;897.6
1243.0;1189.3;;;;;;;;;;;;;;;;;17.693106;-9.670553;-7.820368;;907.3
1243.0;1189.3;;;;;;;;;;;;;;0.6540727;-0.5113071;-0.2854091;;;;;907.3
1243.0;1189.3;;;;;;;;;;;;;;;;;20.569475;-11.082033;-7.9958496;;907.3
1243.0;1189.3;;;;;;;;;;;;;;0.7217628;-0.5188757;-0.2776574;;;;;907.3
1243.0;1189.3;;;;;;;;;;;;;;;;;23.823511;-13.4167;-8.537553;;916.9
1243.0;1189.3;;;;;;;;;;;;;;0.78633994;-0.50953704;-0.2583697;;;;;916.9
1243.0;1189.3;;;;;;;;;;;;;;;;;27.75277;-15.972626;-9.42259;;916.9
1243.0;1189.3;;;;;;;;;;;;;;0.86251414;-0.49732962;-0.25251016;;;;;916.9
1243.0;1189.6;;;;-1.0068856;1.4188386;0.12862398;;;;;;;;;;;;;;;
1243.0;1189.6;;;;-0.9655839;1.440262;0.15245439;;;;;;;;;;;;;;;
1243.0;1189.6;;;;-0.9193002;1.4585649;0.16678621;;;;;;;;;;;;;;;
1243.0;1189.6;;;;-0.89079297;1.4503824;0.17639162;;;;;;;;;;;;;;;
1243.0;1189.6;;;;-0.8916017;1.4447252;0.19614032;;;;;;;;;;;;;;;
1243.0;1199.7;;;;-0.9021722;1.4444009;0.2284508;;;;;;;;;;;;;;;
1243.0;1199.7;;;;-0.9378282;1.4586526;0.24071124;;;;;;;;;;;;;;;
1243.0;1199.7;;;;-0.9970399;1.4640886;0.23022464;;;;;;;;;;;;;;;
1243.0;1199.7;;;;-1.0576707;1.4616586;0.22628406;;;;;;;;;;;;;;;
1243.0;1199.7;;;;-1.1125604;1.4410669;0.22810367;;;;;;;;;;;;;;;
1293.0;1200.5;;;;;;;;;;;;;;;;;33.341473;-17.6664;-11.06296;;926.6
1293.0;1200.5;;;;;;;;;;;;;;0.93630785;-0.4560686;-0.27008882;;;;;926.6
1293.0;1200.5;;;;;;;;;;;;;;;;;39.429913;-18.55144;-13.576922;;926.6
1293.0;1200.5;;;;;;;;;;;;;;0.99649036;-0.38172552;-0.28992584;;;;;926.6
1293.0;1200.5;;;;;;;;;;;;;;;;;44.553207;-18.292032;-16.304514;;936.1
1293.0;1200.5;;;;;;;;;;;;;;1.0311594;-0.30201116;-0.23749503;;;;;936.1
1293.0;1200.5;;;;;;;;;;;;;;;;;50.279243;-18.101292;-19.04355;;936.1
1293.0;1200.5;;;;;;;;;;;;;;1.0397656;-0.23065889;-0.14203314;;;;;936.1
1293.0;1200.5;;;;;;;;;;;;;;;;;59.98794;-19.486069;-22.156437;;945.8
1293.0;1200.5;;;;;;;;;;;;;;1.015717;-0.15808588;-0.05084384;;;;;945.8
1293.0;1200.5;;;;;;;;;;;;;;;;;66.60284;-23.674734;-26.577806;;945.8
1293.0;1200.5;;;;;;;;;;;;;;0.9887997;-0.0987579;-6.103702E-4;;;;;945.8
1293.0;1200.9;106663;106592;10185;;;;;;;;;;;;;;;;;;
1293.0;1207.2;;;;;;;;;;;;;-3;;;;;;;;
1293.0;1207.2;;;;;;;;;;;;;-11;;;;;;;;
1293.0;1207.2;;;;;;;;;;;;;-15;;;;;;;;
1293.0;1207.2;;;;;;;;;;;;;4;;;;;;;;
1293.0;1207.2;;;;;;;;;;;;;-15;;;;;;;;
1293.0;1209.5;;;;-1.1479799;1.4224817;0.23905185;;;;;;;;;;;;;;;
1293.0;1209.5;;;;-1.1816674;1.4081155;0.2505913;;;;;;;;;;;;;;;
1293.0;1209.5;;;;-1.2049943;1.4188157;0.25355914;;;;;;;;;;;;;;;
1293.0;1209.5;;;;-1.2340394;1.4004289;0.25410846;;;;;;;;;;;;;;;
1293.0;1209.5;;;;-1.2584153;1.3833429;0.25943378;;;;;;;;;;;;;;;
1294.0;1219.4;;;;-1.2699624;1.3727456;0.25776294;;;;;;;;;;;;;;;
1294.0;1219.4;;;;-1.2759553;1.3547784;0.25148013;;;;;;;;;;;;;;;
1294.0;1219.4;;;;-1.2669069;1.3440019;0.24482349;;;;;;;;;;;;;;;
1294.0;1219.4;;;;-1.2409135;1.338791;0.23408511;;;;;;;;;;;;;;;
1294.0;1219.4;;;;-1.2016717;1.328888;0.22551349;;;;;;;;;;;;;;;
1294.0;1220.8;123089;122931;10165;;;;;;;;;;;;;;;;;;
1294.0;1229.5;;;;-1.1581727;1.3179437;0.217186;;;;;;;;;;;;;;;
1294.0;1229.5;;;;-1.1054422;1.3064195;0.20943454;;;;;;;;;;;;;;;
1294.0;1229.5;;;;-1.0554277;1.2963868;0.20751956;;;;;;;;;;;;;;;
1294.0;1229.5;;;;-1.0069467;1.2867967;0.21405795;;;;;;;;;;;;;;;
1294.0;1229.5;;;;-0.96278393;1.2760888;0.22146991;;;;;;;;;;;;;;;
1294.0;1239.6;;;;-0.91599286;1.2629052;0.22549441;;;;;;;;;;;;;;;
1294.0;1239.6;;;;-0.86958706;1.2528497;0.22573856;;;;;;;;;;;;;;;
1294.0;1239.6;;;;-0.8296815;1.2456247;0.22189334;;;;;;;;;;;;;;;
1294.0;1239.6;;;;-0.7885629;1.241829;0.22518924;;;;;;;;;;;;;;;
1294.0;1239.6;;;;-0.75906384;1.2449151;0.2284737;;;;;;;;;;;;;;;
1294.0;1241.1;139437;139424;10168;;;;;;;;;;;;;;;;;;
1298.0;1246.0;;;;;;;;;;;;;;;;;62.875763;-28.37077;-32.448807;;955.4
1298.0;1246.0;;;;;;;;;;;;;;0.9538255;-0.067201756;-0.005798517;;;;;955.4
1298.0;1246.0;;;;;;;;;;;;;;;;;63.08557;-24.697105;-38.71273;;955.4
1298.0;1246.0;;;;;;;;;;;;;;0.88778347;-0.0077517014;0.09564501;;;;;955.4
1298.0;1246.0;;;;;;;;;;;;;;;;;64.79461;-23.293253;-45.560318;;965.1
1298.0;1246.0;;;;;;;;;;;;;;0.78853726;0.075441755;0.18933684;;;;;965.1
1298.0;1246.0;;;;;;;;;;;;;;;;;59.15632;-27.630695;-51.602985;;965.1
1298.0;1246.0;;;;;;;;;;;;;;0.67824334;0.091921754;0.20288706;;;;;965.1
1298.0;1246.0;;;;;;;;;;;;;;;;;50.508133;-32.147434;-57.546463;;974.7
1298.0;1246.0;;;;;;;;;;;;;;0.60011595;0.032837916;0.16095462;;;;;974.7
1298.0;1246.0;;;;;;;;;;;;;;;;;43.065434;-32.53655;-63.890503;;974.7
1298.0;1246.0;;;;;;;;;;;;;;0.55458236;-0.055421613;0.08899198;;;;;974.7
1298.0;1246.7;;;;;;;;;;;;;;;;;39.48332;-26.867733;-70.513016;;984.4
1298.0;1246.7;;;;;;;;;;;;;;0.5274819;-0.12512589;0.0369274;;;;;984.4
1298.0;1246.7;;;;;;;;;;;;;;;;;39.36506;-20.821253;-75.43413;;984.4
1298.0;1246.7;;;;;;;;;;;;;;0.4903714;-0.1739555;0.016724143;;;;;984.4
1298.0;1246.7;;;;;;;;;;;;;;;;;38.666954;-20.104067;-78.65001;;994.0
1298.0;1246.7;;;;;;;;;;;;;;0.49244666;-0.24524674;-0.020996734;;;;;994.0
1298.0;1246.7;;;;;;;;;;;;;;;;;38.644066;-22.930845;-80.91601;;994.0
1298.0;1246.7;;;;;;;;;;;;;;0.5515915;-0.29114658;-0.0926542;;;;;994.0
1298.0;1246.7;;;;;;;;;;;;;;;;;37.835323;-25.872066;-83.25449;;1003.7
1298.0;1246.7;;;;;;;;;;;;;;0.64131594;-0.30494094;-0.19226661;;;;;1003.7
1298.0;1246.7;;;;;;;;;;;;;;;;;34.226505;-25.036621;-86.02405;;1003.7
1298.0;1246.7;;;;;;;;;;;;;;0.7539903;-0.2969451;-0.23761712;;;;;1003.7
1300.0;1247.6;;;;;;;;;;;;;;;;;19.730215;-45.838802;-101.29093;;1167.4
1300.0;1247.6;;;;;;;;;;;;;;1.0653402;-1.1127049;-0.12152471;;;;;1167.4
1300.0;1247.6;;;;;;;;;;;;;;;;;24.002808;-35.55406;-95.877716;;1167.4
1300.0;1247.6;;;;;;;;;;;;;;1.0976287;-1.0108341;-0.11615345;;;;;1167.4
1300.0;1247.6;;;;;;;;;;;;;;;;;21.61855;-22.572252;-90.46449;;1177.1
1300.0;1247.6;;;;;;;;;;;;;;1.1283914;-0.9284341;-0.11615345;;;;;1177.1
1300.0;1247.6;;;;;;;;;;;;;;;;;15.549181;-8.877071;-84.425644;;1177.1
1300.0;1247.6;;;;;;;;;;;;;;1.1426741;-0.8913846;-0.13397625;;;;;1177.1
1300.0;1247.6;;;;;;;;;;;;;;;;;9.990996;4.7837768;-78.31812;;1186.7
1300.0;1247.6;;;;;;;;;;;;;;1.0868862;-0.8519547;-0.1495407;;;;;1186.7
1300.0;1247.6;;;;;;;;;;;;;;;;;4.6578875;15.732292;-71.9512;;1186.7
1300.0;1247.6;;;;;;;;;;;;;;1.0348216;-0.8111209;-0.13006988;;;;;1186.7
1300.0;1247.3;;;;;;;;;;;;;21;;;;;;;;
1300.0;1247.3;;;;;;;;;;;;;14;;;;;;;;
1300.0;1247.3;;;;;;;;;;;;;-54;;;;;;;;
1300.0;1247.3;;;;;;;;;;;;;187;;;;;;;;
1300.0;1247.3;;;;;;;;;;;;;-79;;;;;;;;
1300.0;1249.5;;;;-0.7413369;1.249405;0.22534564;;;;;;;;;;;;;;;
1300.0;1249.5;;;;-0.7322121;1.2554475;0.22402576;;;;;;;;;;;;;;;
1300.0;1249.5;;;;-0.73203284;1.2598611;0.22360614;;;;;;;;;;;;;;;
1300.0;1249.5;;;;-0.7401505;1.2643701;0.22181323;;;;;;;;;;;;;;;
1300.0;1249.5;;;;-0.7554132;1.2673227;0.21939471;;;;;;;;;;;;;;;
1417.0;1259.5;;;;-0.7752;1.2682077;0.21612552;;;;;;;;;;;;;;;
1417.0;1259.5;;;;-0.7973672;1.2670137;0.21364978;;;;;;;;;;;;;;;
1417.0;1259.5;;;;-0.8178369;1.2640573;0.21158221;;;;;;;;;;;;;;;
1417.0;1259.5;;;;-0.8347665;1.2585031;0.21008304;;;;;;;;;;;;;;;
1417.0;1259.5;;;;-0.84723294;1.2499925;0.2084389;;;;;;;;;;;;;;;
1417.0;1261.0;155765;155795;10177;;;;;;;;;;;;;;;;;;
1417.0;1269.4;;;;-0.8569795;1.2396737;0.20623782;;;;;;;;;;;;;;;
1417.0;1269.4;;;;-0.8636819;1.2271043;0.20411304;;;;;;;;;;;;;;;
1417.0;1269.4;;;;-0.867592;1.2137033;0.20212176;;;;;;;;;;;;;;;
1417.0;1269.4;;;;-0.86506283;1.2005769;0.2007027;;;;;;;;;;;;;;;
1417.0;1269.4;;;;-0.8561326;1.1882707;0.19993976;;;;;;;;;;;;;;;
1417.0;1279.3;;;;-0.84276974;1.1769563;0.19860461;;;;;;;;;;;;;;;
1417.0;1279.3;;;;-0.8251649;1.1677209;0.19903186;;;;;;;;;;;;;;;
1417.0;1279.3;;;;-0.80723965;1.160164;0.19900516;;;;;;;;;;;;;;;
1417.0;1279.3;;;;-0.78829205;1.153618;0.20046237;;;;;;;;;;;;;;;
1417.0;1279.3;;;;-0.7709161;1.148842;0.20187381;;;;;;;;;;;;;;;
1417.0;1280.9;172136;172223;10193;;;;;;;;;;;;;;;;;;
1417.0;1287.2;;;;;;;;;;;;;-740;;;;;;;;
1417.0;1287.2;;;;;;;;;;;;;156;;;;;;;;
1417.0;1287.2;;;;;;;;;;;;;1527;;;;;;;;
1417.0;1287.2;;;;;;;;;;;;;-728;;;;;;;;
1417.0;1287.2;;;;;;;;;;;;;-7949;;;;;;;;
1419.0;1289.4;;;;-0.75312436;1.1442682;0.20440295;;;;;;;;;;;;;;;
1419.0;1289.4;;;;-0.7386132;1.1416322;0.20751193;;;;;;;;;;;;;;;
1419.0;1289.4;;;;-0.7252045;1.1410943;0.21109393;;;;;;;;;;;;;;;
1419.0;1289.4;;;;-0.71358496;1.1415979;0.21535876;;;;;;;;;;;;;;;
1419.0;1289.4;;;;-0.7046433;1.1421777;0.21852878;;;;;;;;;;;;;;;
1419.0;1299.5;;;;-0.69948584;1.1434861;0.22344974;;;;;;;;;;;;;;;
1419.0;1299.5;;;;-0.6962548;1.1431123;0.2278786;;;;;;;;;;;;;;;
1419.0;1299.5;;;;-0.6926041;1.1418306;0.23364642;;;;;;;;;;;;;;;
1419.0;1299.5;;;;-0.6889382;1.1390992;0.23795703;;;;;;;;;;;;;;;
1419.0;1299.5;;;;-0.6882096;1.1345674;0.24146274;;;;;;;;;;;;;;;
1419.0;1301.2;188504;188549;10219;;;;;;;;;;;;;;;;;;
1419.0;1305.5;;;;;;;;;;;;;;;;;-2.2812586;19.093143;-65.019684;;1196.4
1419.0;1305.5;;;;;;;;;;;;;;0.9701224;-0.7906125;-0.10547197;;;;;1196.4
1419.0;1305.5;;;;;;;;;;;;;;;;;-9.670553;17.323069;-58.37428;;1196.4
1419.0;1305.5;;;;;;;;;;;;;;0.93197423;-0.78341013;-0.070314646;;;;;1196.4
1419.0;1305.5;;;;;;;;;;;;;;;;;-13.3137;14.675589;-52.37739;;1205.7
1419.0;1305.5;;;;;;;;;;;;;;0.86733603;-0.7711417;-0.025513474;;;;;1205.7
1419.0;1305.5;;;;;;;;;;;;;;;;;-14.736626;12.184515;-46.92602;;1205.7
1419.0;1305.5;;;;;;;;;;;;;;0.8096561;-0.7350688;0.01574755;;;;;1205.7
1419.0;1305.5;;;;;;;;;;;;;;;;;-16.727959;11.349071;-41.547134;;1215.2
1419.0;1305.5;;;;;;;;;;;;;;0.75899535;-0.7027192;0.01904355;;;;;1215.2
1419.0;1305.5;;;;;;;;;;;;;;;;;-18.94818;joulu.27;-35.988953;;1215.2
1419.0;1305.5;;;;;;;;;;;;;;0.69374675;-0.666158;0.053407393;;;;;1215.2
1420.0;1306.3;;;;;;;;;;;;;;;;;-23.976105;12.730033;-30.762657;;1224.9
1420.0;1306.3;;;;;;;;;;;;;;0.6344188;-0.6416212;0.06146428;;;;;1224.9
1420.0;1306.3;;;;;;;;;;;;;;;;;-29.8204;12.958922;-25.79577;;1224.9
1420.0;1306.3;;;;;;;;;;;;;;0.57564014;-0.62825406;0.06500442;;;;;1224.9
1420.0;1306.3;;;;;;;;;;;;;;;;;-35.824913;13.290812;-21.473587;;1234.5
1420.0;1306.3;;;;;;;;;;;;;;0.52180547;-0.6259346;0.04449599;;;;;1234.5
1420.0;1306.3;;;;;;;;;;;;;;;;;-39.57106;14.614552;-17.15903;;1234.5
1420.0;1306.3;;;;;;;;;;;;;;0.48353526;-0.62465286;0.0014648885;;;;;1234.5
1420.0;1306.3;;;;;;;;;;;;;;;;;-41.577656;16.49907;-12.367626;;1244.2
1420.0;1306.3;;;;;;;;;;;;;;0.45429853;-0.62007505;-0.05017243;;;;;1244.2
1420.0;1306.3;;;;;;;;;;;;;;;;;-42.355877;17.765587;-7.152776;;1244.2
1420.0;1306.3;;;;;;;;;;;;;;0.42396313;-0.60982084;-0.07574694;;;;;1244.2
1420.0;1309.4;;;;-0.68497854;1.1311151;0.24753955;;;;;;;;;;;;;;;
1420.0;1309.4;;;;-0.6862641;1.1253396;0.2520447;;;;;;;;;;;;;;;
1420.0;1309.4;;;;-0.6825562;1.1184274;0.25825885;;;;;;;;;;;;;;;
1420.0;1309.4;;;;-0.6841126;1.111538;0.26248553;;;;;;;;;;;;;;;
1420.0;1309.4;;;;-0.68132025;1.1034814;0.26846698;;;;;;;;;;;;;;;
1420.0;1319.4;;;;-0.67208105;1.0972291;0.27531055;;;;;;;;;;;;;;;
1420.0;1319.4;;;;-0.6614724;1.0910875;0.2797394;;;;;;;;;;;;;;;
1420.0;1319.4;;;;-0.657219;1.081772;0.28419498;;;;;;;;;;;;;;;
1420.0;1319.4;;;;-0.6524506;1.0737001;0.2902985;;;;;;;;;;;;;;;
1420.0;1319.4;;;;-0.64376074;1.0667382;0.29537585;;;;;;;;;;;;;;;
1420.0;1321.0;204925;204975;10230;;;;;;;;;;;;;;;;;;
1421.0;1327.2;;;;;;;;;;;;;-15770;;;;;;;;
1421.0;1327.2;;;;;;;;;;;;;-18705;;;;;;;;
1421.0;1327.2;;;;;;;;;;;;;-16437;;;;;;;;
1421.0;1327.2;;;;;;;;;;;;;-13296;;;;;;;;
1421.0;1327.2;;;;;;;;;;;;;-12318;;;;;;;;
1421.0;1329.3;;;;-0.6428986;1.0575258;0.29887012;;;;;;;;;;;;;;;
1421.0;1329.3;;;;-0.64030844;1.0527726;0.3048897;;;;;;;;;;;;;;;
1421.0;1329.3;;;;-0.63273245;1.0491258;0.31070712;;;;;;;;;;;;;;;
1421.0;1329.3;;;;-0.62627035;1.0454866;0.31390002;;;;;;;;;;;;;;;
1421.0;1329.3;;;;-0.62463385;1.0388261;0.31800464;;;;;;;;;;;;;;;
1421.0;1339.4;;;;-0.62032324;1.0360261;0.3222504;;;;;;;;;;;;;;;
1421.0;1339.4;;;;-0.6167794;1.0304528;0.3239365;;;;;;;;;;;;;;;
1421.0;1339.4;;;;-0.6098214;1.0296861;0.32701877;;;;;;;;;;;;;;;
1421.0;1339.4;;;;-0.61022574;1.0271951;0.32792667;;;;;;;;;;;;;;;
1421.0;1339.4;;;;-0.6051331;1.0292093;0.327961;;;;;;;;;;;;;;;
1421.0;1341.2;221274;221283;10250;;;;;;;;;;;;;;;;;;
1421.0;1349.5;;;;-0.6042405;1.0245286;0.32735446;;;;;;;;;;;;;;;
1421.0;1349.5;;;;-0.60200125;1.0161515;0.32685474;;;;;;;;;;;;;;;
1421.0;1349.5;;;;-0.59398276;1.0121118;0.32656863;;;;;;;;;;;;;;;
1421.0;1349.5;;;;-0.5845681;1.011078;0.32493213;;;;;;;;;;;;;;;
1421.0;1349.5;;;;-0.5810967;1.0031205;0.32084277;;;;;;;;;;;;;;;
1422.0;1359.7;;;;-0.5823594;0.9946214;0.32076266;;;;;;;;;;;;;;;
1422.0;1359.7;;;;-0.5766831;0.99128735;0.3217621;;;;;;;;;;;;;;;
1422.0;1359.7;;;;-0.5735741;0.98902524;0.32334903;;;;;;;;;;;;;;;
1422.0;1359.7;;;;-0.57163244;0.9845811;0.31827548;;;;;;;;;;;;;;;
1422.0;1359.7;;;;-0.55535513;0.97838604;0.31514362;;;;;;;;;;;;;;;
1422.0;1361.5;237749;237683;10267;;;;;;;;;;;;;;;;;;
1422.0;1366.3;;;;;;;;;;;;;;;;;-43.76736;16.842403;-1.823481;;1253.8
1422.0;1366.3;;;;;;;;;;;;;;0.38953826;-0.6021912;-0.08221687;;;;;1253.8
1422.0;1366.3;;;;;;;;;;;;;;;;;-46.00284;13.153478;3.5515916;;1253.8
1422.0;1366.3;;;;;;;;;;;;;;0.3471175;-0.60426646;-0.07983642;;;;;1253.8
1422.0;1366.3;;;;;;;;;;;;;;;;;-47.51732;8.7397375;8.606219;;1263.5
1422.0;1366.3;;;;;;;;;;;;;;0.31318095;-0.6153142;-0.065858945;;;;;1263.5
1422.0;1366.3;;;;;;;;;;;;;;;;;-46.887875;4.9821467;13.91644;;1263.5
1422.0;1366.3;;;;;;;;;;;;;;0.28620258;-0.646321;-0.05084384;;;;;1263.5
1422.0;1366.3;;;;;;;;;;;;;;;;;-43.534657;1.8349254;19.07407;;1273.2
1422.0;1366.3;;;;;;;;;;;;;;0.28449354;-0.67665637;-0.030884732;;;;;1273.2
1422.0;1366.3;;;;;;;;;;;;;;;;;-38.674583;-1.9493698;24.311808;;1273.2
1422.0;1366.3;;;;;;;;;;;;;;0.2855922;-0.69789726;-0.016541032;;;;;1273.2
1423.0;1367.0;;;;;;;;;;;;;;;;;-32.155064;-7.27485;29.015472;;1282.7
1423.0;1367.0;;;;;;;;;;;;;;0.28693503;-0.7052217;-0.008545183;;;;;1282.7
1423.0;1367.0;;;;;;;;;;;;;;;;;-25.200659;-14.339885;34.306618;;1282.7
1423.0;1367.0;;;;;;;;;;;;;;0.29309976;-0.70278025;-0.0012817774;;;;;1282.7
1423.0;1367.0;;;;;;;;;;;;;;;;;-21.38203;-23.358105;40.635395;;1292.4
1423.0;1367.0;;;;;;;;;;;;;;0.29041412;-0.71004367;-0.012634663;;;;;1292.4
1423.0;1367.0;;;;;;;;;;;;;;;;;-18.990143;-33.677177;47.463913;;1292.4
1423.0;1367.0;;;;;;;;;;;;;;0.2862636;-0.71553695;-0.02764977;;;;;1292.4
1423.0;1367.0;;;;;;;;;;;;;;;;;-16.441847;-43.393505;54.75402;;1302.1
1423.0;1367.0;;;;;;;;;;;;;;0.27491075;-0.7194433;-0.02929777;;;;;1302.1
1423.0;1367.0;;;;;;;;;;;;;;;;;-14.141514;-53.90332;61.475723;;1302.1
1423.0;1367.0;;;;;;;;;;;;;;0.2512894;-0.7010712;-0.05590991;;;;;1302.1
1423.0;1367.5;;;;;;;;;;;;;-11885;;;;;;;;
1423.0;1367.5;;;;;;;;;;;;;-10670;;;;;;;;
1423.0;1367.5;;;;;;;;;;;;;-9583;;;;;;;;
1423.0;1367.5;;;;;;;;;;;;;-8134;;;;;;;;
1423.0;1367.5;;;;;;;;;;;;;-6152;;;;;;;;
1423.0;1369.5;;;;-0.5512696;0.97016156;0.30934146;;;;;;;;;;;;;;;
1423.0;1369.5;;;;-0.5401078;0.96943676;0.30655673;;;;;;;;;;;;;;;
1423.0;1369.5;;;;-0.5292092;0.9627229;0.3014069;;;;;;;;;;;;;;;
1423.0;1369.5;;;;-0.5218163;0.95453656;0.29730228;;;;;;;;;;;;;;;
1423.0;1369.5;;;;-0.5102883;0.94340146;0.29420093;;;;;;;;;;;;;;;
1477.0;1379.6;;;;-0.51471716;0.92021954;0.28919604;;;;;;;;;;;;;;;
1477.0;1379.6;;;;-0.51362616;0.9002267;0.283062;;;;;;;;;;;;;;;
1477.0;1379.6;;;;-0.49901587;0.8931428;0.27627566;;;;;;;;;;;;;;;
1477.0;1379.6;;;;-0.4780236;0.8848878;0.26890567;;;;;;;;;;;;;;;
1477.0;1379.6;;;;-0.46464163;0.8465959;0.25554278;;;;;;;;;;;;;;;
1477.0;1381.4;253979;254091;10259;;;;;;;;;;;;;;;;;;
1477.0;1389.6;;;;-0.45901877;0.8409654;0.26726535;;;;;;;;;;;;;;;
1477.0;1389.6;;;;-0.44770056;0.86338055;0.2669678;;;;;;;;;;;;;;;
1477.0;1389.6;;;;-0.43456656;0.8581964;0.24776843;;;;;;;;;;;;;;;
1477.0;1389.6;;;;-0.43513495;0.8561479;0.24177554;;;;;;;;;;;;;;;
1477.0;1389.6;;;;-0.42405325;0.8664018;0.23181155;;;;;;;;;;;;;;;
1477.0;1399.3;;;;-0.40248877;0.8616067;0.22544101;;;;;;;;;;;;;;;
1477.0;1399.3;;;;-0.40201193;0.85279095;0.21024325;;;;;;;;;;;;;;;
1477.0;1399.3;;;;-0.3978806;0.831627;0.20154193;;;;;;;;;;;;;;;
1477.0;1399.3;;;;-0.40361792;0.81180966;0.20374301;;;;;;;;;;;;;;;
1477.0;1399.3;;;;-0.41844183;0.78938687;0.20079806;;;;;;;;;;;;;;;
1477.0;1401.2;262143;262143;10245;;;;;;;;;;;;;;;;;;
1477.0;1407.5;;;;;;;;;;;;;-4970;;;;;;;;
1477.0;1407.5;;;;;;;;;;;;;-6557;;;;;;;;
1477.0;1407.5;;;;;;;;;;;;;-13152;;;;;;;;
1477.0;1407.5;;;;;;;;;;;;;-22117;;;;;;;;
1477.0;1407.5;;;;;;;;;;;;;-25207;;;;;;;;
1480.0;1409.4;;;;-0.42591482;0.7686502;0.19899753;;;;;;;;;;;;;;;
1480.0;1409.4;;;;-0.42111212;0.7565881;0.19524005;;;;;;;;;;;;;;;
1480.0;1409.4;;;;-0.40947348;0.7256394;0.18935779;;;;;;;;;;;;;;;
1480.0;1409.4;;;;-0.41158682;0.7296906;0.18925098;;;;;;;;;;;;;;;
1480.0;1409.4;;;;-0.40362936;0.73286444;0.19327167;;;;;;;;;;;;;;;
1480.0;1419.5;;;;-0.3883553;0.7382813;0.19458392;;;;;;;;;;;;;;;
1480.0;1419.5;;;;-0.37142184;0.7610742;0.19640735;;;;;;;;;;;;;;;
1480.0;1419.5;;;;-0.35589603;0.75019467;0.19046023;;;;;;;;;;;;;;;
1480.0;1419.5;;;;-0.34687808;0.733265;0.1934357;;;;;;;;;;;;;;;
1480.0;1419.5;;;;-0.35146716;0.72855383;0.20127872;;;;;;;;;;;;;;;
1480.0;1421.5;262143;262143;10232;;;;;;;;;;;;;;;;;;
1480.0;1425.8;;;;;;;;;;;;;;;;;-11.719108;-62.505722;67.34291;;1311.7
1480.0;1425.8;;;;;;;;;;;;;;0.25348675;-0.6735435;-0.08844264;;;;;1311.7
1480.0;1425.8;;;;;;;;;;;;;;;;;-10.9408865;-67.00339;72.420425;;1311.7
1480.0;1425.8;;;;;;;;;;;;;;0.21918394;-0.6501053;-0.10022279;;;;;1311.7
1480.0;1425.8;;;;;;;;;;;;;;;;;-11.246071;-71.649826;76.11317;;1321.3
1480.0;1425.8;;;;;;;;;;;;;;0.19318217;-0.61775565;-0.10412916;;;;;1321.3
1480.0;1425.8;;;;;;;;;;;;;;;;;-13.405255;-73.580124;78.47071;;1321.3
1480.0;1425.8;;;;;;;;;;;;;;0.17566454;-0.6190985;-0.12140263;;;;;1321.3
1480.0;1425.8;;;;;;;;;;;;;;;;;-11.3986635;-69.8149;78.35627;;1330.9
1480.0;1425.8;;;;;;;;;;;;;;0.15033418;-0.6291696;-0.12537004;;;;;1330.9
1480.0;1425.8;;;;;;;;;;;;;;;;;-4.0475173;-63.688316;76.10554;;1330.9
1480.0;1425.8;;;;;;;;;;;;;;0.13653982;-0.6306955;-0.12854396;;;;;1330.9
1535.0;1426.6;;;;;;;;;;;;;;;;;7.637257;-58.38191;73.25968;;1340.5
1535.0;1426.6;;;;;;;;;;;;;;0.13049714;-0.61848813;-0.13599049;;;;;1340.5
1535.0;1426.6;;;;;;;;;;;;;;;;;21.51555;-55.188908;70.25361;;1340.5
1535.0;1426.6;;;;;;;;;;;;;;0.11993774;-0.59468365;-0.14716025;;;;;1340.5
1535.0;1426.6;;;;;;;;;;;;;;;;;34.653767;-55.108795;67.5985;;1350.1
1535.0;1426.6;;;;;;;;;;;;;;0.11737419;-0.5641652;-0.14075136;;;;;1350.1
1535.0;1426.6;;;;;;;;;;;;;;;;;45.163578;-58.614613;65.47365;;1350.1
1535.0;1426.6;;;;;;;;;;;;;;0.12402722;-0.5304117;-0.17798395;;;;;1350.1
1535.0;1426.6;;;;;;;;;;;;;;;;;53.834652;-61.82287;63.455612;;1359.8
1535.0;1426.6;;;;;;;;;;;;;;0.10559405;-0.48896757;-0.18085268;;;;;1359.8
1535.0;1426.6;;;;;;;;;;;;;;;;;60.075684;-66.88895;61.788536;;1359.8
1535.0;1426.6;;;;;;;;;;;;;;0.09088412;-0.44953763;-0.1770684;;;;;1359.8
1535.0;1429.4;;;;-0.34902194;0.71378714;0.20425037;;;;;;;;;;;;;;;
1535.0;1429.4;;;;-0.35610202;0.70919424;0.2079697;;;;;;;;;;;;;;;
1535.0;1429.4;;;;-0.3456612;0.7210961;0.212719;;;;;;;;;;;;;;;
1535.0;1429.4;;;;-0.33905032;0.7210465;0.21870807;;;;;;;;;;;;;;;
1535.0;1429.4;;;;-0.33724597;0.71954733;0.21768954;;;;;;;;;;;;;;;
1535.0;1439.5;;;;-0.3355408;0.7227059;0.22745135;;;;;;;;;;;;;;;
1535.0;1439.5;;;;-0.33523944;0.7185822;0.23430637;;;;;;;;;;;;;;;
1535.0;1439.5;;;;-0.34468463;0.71303564;0.23954013;;;;;;;;;;;;;;;
1535.0;1439.5;;;;-0.3445435;0.7245713;0.24684146;;;;;;;;;;;;;;;
1535.0;1439.5;;;;-0.34943393;0.7302399;0.25444797;;;;;;;;;;;;;;;
1535.0;1441.4;262143;262143;10216;;;;;;;;;;;;;;;;;;
1538.0;1447.6;;;;;;;;;;;;;-17893;;;;;;;;
1538.0;1447.6;;;;;;;;;;;;;-5406;;;;;;;;
1538.0;1447.6;;;;;;;;;;;;;2808;;;;;;;;
1538.0;1447.6;;;;;;;;;;;;;3125;;;;;;;;
1538.0;1447.6;;;;;;;;;;;;;-133;;;;;;;;
1538.0;1449.4;;;;-0.34658054;0.7338372;0.25943378;;;;;;;;;;;;;;;
1538.0;1449.4;;;;-0.34284213;0.7378846;0.26726535;;;;;;;;;;;;;;;
1538.0;1449.4;;;;-0.34266284;0.74431616;0.2752991;;;;;;;;;;;;;;;
1538.0;1449.4;;;;-0.34146884;0.7541772;0.28322604;;;;;;;;;;;;;;;
1538.0;1449.4;;;;-0.3406258;0.7538568;0.28639987;;;;;;;;;;;;;;;
1538.0;1459.3;;;;-0.3511391;0.74888235;0.29011157;;;;;;;;;;;;;;;
1538.0;1459.3;;;;-0.35571674;0.75154126;0.2965813;;;;;;;;;;;;;;;
1538.0;1459.3;;;;-0.36007312;0.75338376;0.3026543;;;;;;;;;;;;;;;
1538.0;1459.3;;;;-0.35912707;0.75524914;0.3060837;;;;;;;;;;;;;;;
1538.0;1459.3;;;;-0.3585129;0.7607614;0.3127518;;;;;;;;;;;;;;;
1538.0;1461.4;262143;262143;10194;;;;;;;;;;;;;;;;;;
1538.0;1469.4;;;;-0.3600922;0.765339;0.31741717;;;;;;;;;;;;;;;
1538.0;1469.4;;;;-0.36641315;0.7671243;0.32369235;;;;;;;;;;;;;;;
1538.0;1469.4;;;;-0.36926654;0.77022564;0.33029178;;;;;;;;;;;;;;;
1538.0;1469.4;;;;-0.37232974;0.77279675;0.3337517;;;;;;;;;;;;;;;
1538.0;1469.4;;;;-0.37722784;0.7736398;0.3366013;;;;;;;;;;;;;;;
1594.0;1479.6;;;;-0.3815232;0.77414715;0.34159854;;;;;;;;;;;;;;;
1594.0;1479.6;;;;-0.3864823;0.7745477;0.34348682;;;;;;;;;;;;;;;
1594.0;1479.6;;;;-0.3899346;0.7749902;0.3442612;;;;;;;;;;;;;;;
1594.0;1479.6;;;;-0.39355475;0.77505505;0.34465793;;;;;;;;;;;;;;;
1594.0;1479.6;;;;-0.3974915;0.77350247;0.34572604;;;;;;;;;;;;;;;
1594.0;1481.7;262143;262143;10208;;;;;;;;;;;;;;;;;;
1594.0;1486.5;;;;;;;;;;;;;;;;;63.222908;-74.96872;60.312202;;1369.4
1594.0;1486.5;;;;;;;;;;;;;;0.083803825;-0.40961942;-0.1737724;;;;;1369.4
1594.0;1486.5;;;;;;;;;;;;;;;;;61.83813;-85.97064;59.408096;;1369.4
1594.0;1486.5;;;;;;;;;;;;;;0.0926542;-0.38770714;-0.22620319;;;;;1369.4
1594.0;1486.5;;;;;;;;;;;;;;;;;62.097538;-96.4919;60.052795;;1379.1
1594.0;1486.5;;;;;;;;;;;;;;0.11365093;-0.37800226;-0.27637562;;;;;1379.1
1594.0;1486.5;;;;;;;;;;;;;;;;;62.00598;-106.79189;61.02176;;1379.1
1594.0;1486.5;;;;;;;;;;;;;;0.13879818;-0.36335337;-0.3187353;;;;;1379.1
1594.0;1486.5;;;;;;;;;;;;;;;;;60.35798;-115.92456;61.712242;;1388.7
1594.0;1486.5;;;;;;;;;;;;;;0.20166631;-0.34205145;-0.38325143;;;;;1388.7
1594.0;1486.5;;;;;;;;;;;;;;;;;60.781425;-121.97485;63.612022;;1388.7
1594.0;1486.5;;;;;;;;;;;;;;0.2766808;-0.3195288;-0.41413617;;;;;1388.7
1597.0;1487.3;;;;;;;;;;;;;;;;;58.126316;-124.74059;65.58428;;1398.4
1597.0;1487.3;;;;;;;;;;;;;;0.34485915;-0.30640584;-0.41554004;;;;;1398.4
1597.0;1487.3;;;;;;;;;;;;;;;;;55.509354;-124.988556;67.339096;;1398.4
1597.0;1487.3;;;;;;;;;;;;;;0.44026002;-0.30298775;-0.4636372;;;;;1398.4
1597.0;1487.3;;;;;;;;;;;;;;;;;56.00528;-124.988556;70.2765;;1408.0
1597.0;1487.3;;;;;;;;;;;;;;0.55165255;-0.30689412;-0.47181615;;;;;1408.0
1597.0;1487.3;;;;;;;;;;;;;;;;;54.1818;-124.988556;72.29453;;1408.0
1597.0;1487.3;;;;;;;;;;;;;;0.6419874;-0.34168524;-0.4443495;;;;;1408.0
1597.0;1487.3;;;;;;;;;;;;;;;;;55.837425;-124.988556;72.96976;;1417.6
1597.0;1487.3;;;;;;;;;;;;;;0.73592335;-0.37244788;-0.43104342;;;;;1417.6
1597.0;1487.3;;;;;;;;;;;;;;;;;59.572132;-123.21848;72.17246;;1417.6
1597.0;1487.3;;;;;;;;;;;;;;0.84267706;-0.38605914;-0.43873408;;;;;1417.6
1597.0;1487.8;;;;;;;;;;;;;-1594;;;;;;;;
1597.0;1487.8;;;;;;;;;;;;;-1047;;;;;;;;
1597.0;1487.8;;;;;;;;;;;;;-949;;;;;;;;
1597.0;1487.8;;;;;;;;;;;;;-1417;;;;;;;;
1597.0;1487.8;;;;;;;;;;;;;-1924;;;;;;;;
1597.0;1489.5;;;;-0.40140158;0.7713586;0.34679034;;;;;;;;;;;;;;;
1597.0;1489.5;;;;-0.40468222;0.7696115;0.34758762;;;;;;;;;;;;;;;
1597.0;1489.5;;;;-0.40893942;0.7673341;0.34658435;;;;;;;;;;;;;;;
1597.0;1489.5;;;;-0.41275412;0.76444256;0.34655765;;;;;;;;;;;;;;;
1597.0;1489.5;;;;-0.41634375;0.76130307;0.34634402;;;;;;;;;;;;;;;
1598.0;1499.6;;;;-0.41969687;0.7585145;0.3440819;;;;;;;;;;;;;;;
1598.0;1499.6;;;;-0.42241293;0.75497067;0.3412209;;;;;;;;;;;;;;;
1598.0;1499.6;;;;-0.42544943;0.75211346;0.3382645;;;;;;;;;;;;;;;
1598.0;1499.6;;;;-0.42991263;0.7496415;0.33462146;;;;;;;;;;;;;;;
1598.0;1499.6;;;;-0.43490607;0.74644476;0.33178332;;;;;;;;;;;;;;;
1598.0;1501.7;262143;262143;10195;;;;;;;;;;;;;;;;;;
1598.0;1509.6;;;;-0.4404984;0.74317557;0.32815936;;;;;;;;;;;;;;;
1598.0;1509.6;;;;-0.44590765;0.7388802;0.32499316;;;;;;;;;;;;;;;
1598.0;1509.6;;;;-0.451706;0.7351647;0.32237628;;;;;;;;;;;;;;;
1598.0;1509.6;;;;-0.4566689;0.73125845;0.32079318;;;;;;;;;;;;;;;
1598.0;1509.6;;;;-0.46082312;0.72733694;0.31869128;;;;;;;;;;;;;;;
1598.0;1519.5;;;;-0.46482474;0.7243882;0.31671527;;;;;;;;;;;;;;;
1598.0;1519.5;;;;-0.46854025;0.7210999;0.31466678;;;;;;;;;;;;;;;
1598.0;1519.5;;;;-0.47204977;0.71887594;0.3120995;;;;;;;;;;;;;;;
1598.0;1519.5;;;;-0.47481924;0.71594626;0.30949023;;;;;;;;;;;;;;;
1598.0;1519.5;;;;-0.47739798;0.7135735;0.30686572;;;;;;;;;;;;;;;
1598.0;1521.7;262143;262143;10192;;;;;;;;;;;;;;;;;;
1598.0;1527.9;;;;;;;;;;;;;-2622;;;;;;;;
1598.0;1527.9;;;;;;;;;;;;;-2980;;;;;;;;
1598.0;1527.9;;;;;;;;;;;;;-3004;;;;;;;;
1598.0;1527.9;;;;;;;;;;;;;-3434;;;;;;;;
1598.0;1527.9;;;;;;;;;;;;;-4528;;;;;;;;
1654.0;1529.6;;;;-0.48066336;0.7116814;0.30433658;;;;;;;;;;;;;;;
1654.0;1529.6;;;;-0.48327643;0.710846;0.30212024;;;;;;;;;;;;;;;
1654.0;1529.6;;;;-0.48653418;0.710476;0.30038074;;;;;;;;;;;;;;;
1654.0;1529.6;;;;-0.48928076;0.70999914;0.29919818;;;;;;;;;;;;;;;
1654.0;1529.6;;;;-0.49267584;0.71007925;0.30010226;;;;;;;;;;;;;;;
1654.0;1539.7;;;;-0.49688727;0.71073157;0.29970172;;;;;;;;;;;;;;;
1654.0;1539.7;;;;-0.50092703;0.7113648;0.2989197;;;;;;;;;;;;;;;
1654.0;1539.7;;;;-0.50474554;0.7129441;0.29916385;;;;;;;;;;;;;;;
1654.0;1539.7;;;;-0.50954443;0.71545416;0.30103686;;;;;;;;;;;;;;;
1654.0;1539.7;;;;-0.5132256;0.7176667;0.30357364;;;;;;;;;;;;;;;
1654.0;1542.0;262143;262143;10191;;;;;;;;;;;;;;;;;;
1654.0;1546.3;;;;;;;;;;;;;;;;;62.719353;-112.235634;70.26124;;1427.3
1654.0;1546.3;;;;;;;;;;;;;;0.9276406;-0.39283425;-0.42213202;;;;;1427.3
1654.0;1546.3;;;;;;;;;;;;;;;;;61.906796;-97.22816;69.49446;;1427.3
1654.0;1546.3;;;;;;;;;;;;;;1.0290841;-0.4110233;-0.40699485;;;;;1427.3
1654.0;1546.3;;;;;;;;;;;;;;;;;54.303875;-86.27201;68.998535;;1437.0
1654.0;1546.3;;;;;;;;;;;;;;1.1109347;-0.46919155;-0.39649647;;;;;1437.0
1654.0;1546.3;;;;;;;;;;;;;;;;;47.63558;-82.08716;65.1265;;1437.0
1654.0;1546.3;;;;;;;;;;;;;;1.1982177;-0.52229375;-0.45332193;;;;;1437.0
1654.0;1546.3;;;;;;;;;;;;;;;;;45.113987;-74.54146;57.40913;;1446.6
1654.0;1546.3;;;;;;;;;;;;;;1.2538224;-0.59511095;-0.5147252;;;;;1446.6
1654.0;1546.3;;;;;;;;;;;;;;;;;47.578358;-65.27909;41.657764;;1446.6
1654.0;1546.3;;;;;;;;;;;;;;1.3094882;-0.6559038;-0.600238;;;;;1446.6
1656.0;1547.1;;;;;;;;;;;;;;;;;45.25132;-45.285652;18.627735;;1456.2
1656.0;1547.1;;;;;;;;;;;;;;1.4176458;-0.67098;-0.61018705;;;;;1456.2
1656.0;1547.1;;;;;;;;;;;;;;;;;40.692616;-25.563066;-5.245369;;1456.2
1656.0;1547.1;;;;;;;;;;;;;;1.5095065;-0.6899014;-0.66225165;;;;;1456.2
1656.0;1547.1;;;;;;;;;;;;;;;;;44.660023;-1.6747032;-28.35551;;1465.9
1656.0;1547.1;;;;;;;;;;;;;;1.7084872;-0.48963895;-0.69435716;;;;;1465.9
1656.0;1547.1;;;;;;;;;;;;;;;;;49.447617;28.229622;-35.6151;;1465.9
1656.0;1547.1;;;;;;;;;;;;;;1.6743065;-0.41621143;-0.6099429;;;;;1465.9
1656.0;1547.1;;;;;;;;;;;;;;;;;71.12338;36.606953;-36.465805;;1475.5
1656.0;1547.1;;;;;;;;;;;;;;1.7737968;-0.07513657;-0.5535447;;;;;1475.5
1656.0;1547.1;;;;;;;;;;;;;;;;;74.59106;54.589985;-13.618885;;1475.5
1656.0;1547.1;;;;;;;;;;;;;;1.6745507;0.2553789;-0.32941678;;;;;1475.5
1656.0;1549.6;;;;-0.5176354;0.71991354;0.30619052;;;;;;;;;;;;;;;
1656.0;1549.6;;;;-0.52180487;0.72232825;0.3080826;;;;;;;;;;;;;;;
1656.0;1549.6;;;;-0.5255814;0.72477347;0.30825046;;;;;;;;;;;;;;;
1656.0;1549.6;;;;-0.52867514;0.72645956;0.309063;;;;;;;;;;;;;;;
1656.0;1549.6;;;;-0.53119665;0.728344;0.309536;;;;;;;;;;;;;;;
1656.0;1559.6;;;;-0.53342444;0.7299767;0.31038287;;;;;;;;;;;;;;;
1656.0;1559.6;;;;-0.5348397;0.73047644;0.31094745;;;;;;;;;;;;;;;
1656.0;1559.6;;;;-0.53620154;0.7298699;0.3103371;;;;;;;;;;;;;;;
1656.0;1559.6;;;;-0.5375367;0.7299424;0.30931476;;;;;;;;;;;;;;;
1656.0;1559.6;;;;-0.5382653;0.7298127;0.30716708;;;;;;;;;;;;;;;
1658.0;1561.1;;;;;;;;;;;;;;;;;43.97336;64.90143;20.25666;;1485.2
1658.0;1561.1;;;;;;;;;;;;;;1.5026094;0.39106417;-0.1594287;;;;;1485.2
1658.0;1561.1;;;;;;;;;;;;;;;;;18.82229;60.560165;44.51506;;1485.2
1658.0;1561.1;;;;;;;;;;;;;;1.3746147;0.35212258;-0.11828975;;;;;1485.2
1658.0;1561.1;;;;;;;;;;;;;;;;;6.9620347;56.966614;58.25602;;1494.8
1658.0;1561.1;;;;;;;;;;;;;;1.2132939;0.19385357;-0.12775049;;;;;1494.8
1658.0;1561.1;;;;;;;;;;;;;;;;;-5.489517;62.639244;55.90228;;1494.8
1658.0;1561.1;;;;;;;;;;;;;;1.1528062;0.16638692;-0.1264687;;;;;1494.8
1658.0;1561.1;;;;;;;;;;;;;;;;;-16.106144;70.55116;51.236763;;1504.5
1658.0;1561.1;;;;;;;;;;;;;;1.0890225;0.18134098;-0.11517686;;;;;1504.5
1658.0;1561.1;;;;;;;;;;;;;;;;;-28.015991;77.101204;47.669914;;1504.5
1658.0;1561.1;;;;;;;;;;;;;;1.0263985;0.18366039;-0.119083226;;;;;1504.5
1658.0;1561.7;262143;262143;10197;;;;;;;;;;;;;;;;;;
1658.0;1567.9;;;;;;;;;;;;;-5768;;;;;;;;
1658.0;1567.9;;;;;;;;;;;;;-6325;;;;;;;;
1658.0;1567.9;;;;;;;;;;;;;-6189;;;;;;;;
1658.0;1567.9;;;;;;;;;;;;;-6123;;;;;;;;
1658.0;1567.9;;;;;;;;;;;;;-6170;;;;;;;;
1658.0;1569.4;;;;-0.53908926;0.7286797;0.30373767;;;;;;;;;;;;;;;
1658.0;1569.4;;;;-0.5395928;0.72738653;0.30036166;;;;;;;;;;;;;;;
1658.0;1569.4;;;;-0.53913885;0.72637564;0.2958298;;;;;;;;;;;;;;;
1658.0;1569.4;;;;-0.5390702;0.7256852;0.29104617;;;;;;;;;;;;;;;
1658.0;1569.4;;;;-0.538971;0.7250748;0.28681567;;;;;;;;;;;;;;;
1659.0;1579.3;;;;-0.5380822;0.72507864;0.28343585;;;;;;;;;;;;;;;
1659.0;1579.3;;;;-0.5359803;0.72476584;0.28137973;;;;;;;;;;;;;;;
1659.0;1579.3;;;;-0.5351983;0.72585684;0.2790909;;;;;;;;;;;;;;;
1659.0;1579.3;;;;-0.535965;0.7287827;0.2763367;;;;;;;;;;;;;;;
1659.0;1579.3;;;;-0.5365525;0.73339087;0.27396777;;;;;;;;;;;;;;;
1659.0;1581.6;262143;262143;10209;;;;;;;;;;;;;;;;;;
1659.0;1589.4;;;;-0.5373803;0.738308;0.2719002;;;;;;;;;;;;;;;
1659.0;1589.4;;;;-0.5379258;0.7438088;0.27030185;;;;;;;;;;;;;;;
1659.0;1589.4;;;;-0.53947455;0.75078213;0.2678261;;;;;;;;;;;;;;;
1659.0;1589.4;;;;-0.54118735;0.7588731;0.26578906;;;;;;;;;;;;;;;
1659.0;1589.4;;;;-0.54313284;0.7674104;0.26400378;;;;;;;;;;;;;;;
1659.0;1599.5;;;;-0.5455323;0.7768823;0.26173022;;;;;;;;;;;;;;;
1659.0;1599.5;;;;-0.5481759;0.78680813;0.25928882;;;;;;;;;;;;;;;
1659.0;1599.5;;;;-0.5507508;0.7982904;0.25739673;;;;;;;;;;;;;;;
1659.0;1599.5;;;;-0.5529824;0.8091546;0.25690082;;;;;;;;;;;;;;;
1659.0;1599.5;;;;-0.55611426;0.82036984;0.25659183;;;;;;;;;;;;;;;
1659.0;1601.9;262143;262143;10214;;;;;;;;;;;;;;;;;;
1663.0;1606.2;;;;;;;;;;;;;;;;;-41.531876;82.789085;44.999542;;1514.2
1663.0;1606.2;;;;;;;;;;;;;;0.9735404;0.1523484;-0.12781152;;;;;1514.2
1663.0;1606.2;;;;;;;;;;;;;;;;;-52.362133;87.40883;43.130283;;1514.2
1663.0;1606.2;;;;;;;;;;;;;;0.93093663;0.0933256;-0.10260323;;;;;1514.2
1663.0;1606.2;;;;;;;;;;;;;;;;;-60.384686;88.75164;41.451767;;1523.8
1663.0;1606.2;;;;;;;;;;;;;;0.90462965;0.043702506;-0.045533616;;;;;1523.8
1663.0;1606.2;;;;;;;;;;;;;;;;;-66.58376;87.03116;41.29917;;1523.8
1663.0;1606.2;;;;;;;;;;;;;;0.8691061;-0.03051851;-0.010925626;;;;;1523.8
1663.0;1606.2;;;;;;;;;;;;;;;;;-76.6892;84.768974;41.19999;;1533.5
1663.0;1606.2;;;;;;;;;;;;;;0.85842466;-0.13147373;-0.10748619;;;;;1533.5
1663.0;1606.2;;;;;;;;;;;;;;;;;-91.242714;84.71557;40.29969;;1533.5
1663.0;1606.2;;;;;;;;;;;;;;0.8789941;-0.2764977;-0.3056734;;;;;1533.5
1663.0;1608.0;;;;;;;;;;;;;-5796;;;;;;;;
1663.0;1608.0;;;;;;;;;;;;;-5181;;;;;;;;
1663.0;1608.0;;;;;;;;;;;;;-4794;;;;;;;;
1663.0;1608.0;;;;;;;;;;;;;-4460;;;;;;;;
1663.0;1608.0;;;;;;;;;;;;;-3773;;;;;;;;
1663.0;1609.5;;;;-0.5599137;0.83321774;0.2556;;;;;;;;;;;;;;;
1663.0;1609.5;;;;-0.5638123;0.8469049;0.25566486;;;;;;;;;;;;;;;
1663.0;1609.5;;;;-0.5678559;0.86076367;0.25642398;;;;;;;;;;;;;;;
1663.0;1609.5;;;;-0.5714684;0.87482846;0.25539783;;;;;;;;;;;;;;;
1663.0;1609.5;;;;-0.57446295;0.8902017;0.25489047;;;;;;;;;;;;;;;
1716.0;1619.6;;;;-0.57659537;0.90547955;0.25465396;;;;;;;;;;;;;;;
1716.0;1619.6;;;;-0.5791283;0.92188275;0.25346377;;;;;;;;;;;;;;;
1716.0;1619.6;;;;-0.5814057;0.93870556;0.2530022;;;;;;;;;;;;;;;
1716.0;1619.6;;;;-0.58333975;0.9551889;0.25298312;;;;;;;;;;;;;;;
1716.0;1619.6;;;;-0.5846253;0.9724275;0.2515755;;;;;;;;;;;;;;;
1716.0;1621.3;;;;;;;;;;;;;;;;;-103.29371;86.74505;39.773247;;1543.2
1716.0;1621.3;;;;;;;;;;;;;;0.9063997;-0.43104342;-0.46070743;;;;;1543.2
1716.0;1621.3;;;;;;;;;;;;;;;;;-106.91397;82.17109;41.337322;;1543.2
1716.0;1621.3;;;;;;;;;;;;;;0.90896326;-0.58699304;-0.4646138;;;;;1543.2
1716.0;1621.3;;;;;;;;;;;;;;;;;-98.494675;64.424576;43.748283;;1552.8
1716.0;1621.3;;;;;;;;;;;;;;0.8644673;-0.8480483;-0.2633137;;;;;1552.8
1716.0;1621.3;;;;;;;;;;;;;;;;;-77.75353;37.37373;44.9881;;1552.8
1716.0;1621.3;;;;;;;;;;;;;;0.793054;-1.1983398;-0.016113773;;;;;1552.8
1716.0;1621.3;;;;;;;;;;;;;;;;;-47.532578;13.550219;45.98758;;1562.3
1716.0;1621.3;;;;;;;;;;;;;;0.70546585;-1.4794763;0.15112767;;;;;1562.3
1716.0;1621.3;;;;;;;;;;;;;;;;;-14.137699;-8.793145;49.18821;;1562.3
1716.0;1621.3;;;;;;;;;;;;;;0.56624043;-1.6193732;0.22925505;;;;;1562.3
1716.0;1621.8;262143;262143;10230;;;;;;;;;;;;;;;;;;
1716.0;1629.3;;;;-0.58557516;0.98939145;0.25011066;;;;;;;;;;;;;;;
1716.0;1629.3;;;;-0.5861817;1.0065805;0.2497063;;;;;;;;;;;;;;;
1716.0;1629.3;;;;-0.5879021;1.0241624;0.24857333;;;;;;;;;;;;;;;
1716.0;1629.3;;;;-0.5896874;1.0406915;0.24787906;;;;;;;;;;;;;;;
1716.0;1629.3;;;;-0.59099585;1.0565149;0.24726489;;;;;;;;;;;;;;;
1718.0;1639.2;;;;-0.59260947;1.0715333;0.24726489;;;;;;;;;;;;;;;
1718.0;1639.2;;;;-0.59364325;1.0870095;0.24777988;;;;;;;;;;;;;;;
1718.0;1639.2;;;;-0.5950776;1.102234;0.24812701;;;;;;;;;;;;;;;
1718.0;1639.2;;;;-0.5950013;1.1169664;0.24700168;;;;;;;;;;;;;;;
1718.0;1639.2;;;;-0.595234;1.1323549;0.24623492;;;;;;;;;;;;;;;
1718.0;1641.7;262143;262143;10245;;;;;;;;;;;;;;;;;;
1718.0;1647.9;;;;;;;;;;;;;-2707;;;;;;;;
1718.0;1647.9;;;;;;;;;;;;;-1625;;;;;;;;
1718.0;1647.9;;;;;;;;;;;;;-768;;;;;;;;
1718.0;1647.9;;;;;;;;;;;;;-102;;;;;;;;
1718.0;1647.9;;;;;;;;;;;;;484;;;;;;;;
1718.0;1649.3;;;;-0.5946999;1.1483384;0.24435809;;;;;;;;;;;;;;;
1718.0;1649.3;;;;-0.59276205;1.162098;0.24118426;;;;;;;;;;;;;;;
1718.0;1649.3;;;;-0.5910912;1.1743089;0.23878863;;;;;;;;;;;;;;;
1718.0;1649.3;;;;-0.5882302;1.1846849;0.23673251;;;;;;;;;;;;;;;
1718.0;1649.3;;;;-0.58510214;1.1961442;0.23278049;;;;;;;;;;;;;;;
1718.0;1659.4;;;;-0.5807267;1.2055665;0.22784427;;;;;;;;;;;;;;;
1718.0;1659.4;;;;-0.5772324;1.2125589;0.22311404;;;;;;;;;;;;;;;
1718.0;1659.4;;;;-0.573803;1.2192994;0.21783069;;;;;;;;;;;;;;;
1718.0;1659.4;;;;-0.57085043;1.2251092;0.21171191;;;;;;;;;;;;;;;
1718.0;1659.4;;;;-0.56667334;1.2308885;0.20531467;;;;;;;;;;;;;;;
1718.0;1662.0;262143;262143;10272;;;;;;;;;;;;;;;;;;
1720.0;1666.3;;;;;;;;;;;;;;;;;0.54551834;-32.940918;50.67217;;1572.0
1720.0;1666.3;;;;;;;;;;;;;;0.45765558;-1.6901761;0.19611195;;;;;1572.0
1720.0;1666.3;;;;;;;;;;;;;;;;;-2.990814;-53.2548;49.77569;;1572.0
1720.0;1666.3;;;;;;;;;;;;;;0.48188725;-1.7333903;-0.039613027;;;;;1572.0
1720.0;1666.3;;;;;;;;;;;;;;;;;-10.76159;-60.68224;50.87054;;1581.7
1720.0;1666.3;;;;;;;;;;;;;;0.5373699;-1.7623829;-0.48976105;;;;;1581.7
1720.0;1666.3;;;;;;;;;;;;;;;;;-0.9460738;-57.30613;52.62154;;1581.7
1720.0;1666.3;;;;;;;;;;;;;;0.60817283;-1.6815088;-0.8336436;;;;;1581.7
1720.0;1666.3;;;;;;;;;;;;;;;;;20.126957;-45.785393;48.6961;;1591.3
1720.0;1666.3;;;;;;;;;;;;;;0.71877193;-1.4195379;-0.9486984;;;;;1591.3
1720.0;1666.3;;;;;;;;;;;;;;;;;40.341652;-35.473953;39.288765;;1591.3
1720.0;1666.3;;;;;;;;;;;;;;0.85317546;-1.0485549;-0.8370617;;;;;1591.3
1720.0;1669.4;;;;-0.5617867;1.235325;0.19935611;;;;;;;;;;;;;;;
1720.0;1669.4;;;;-0.55619437;1.2379495;0.19292834;;;;;;;;;;;;;;;
1720.0;1669.4;;;;-0.550293;1.240841;0.1841736;;;;;;;;;;;;;;;
1720.0;1669.4;;;;-0.5447884;1.2447282;0.17710878;;;;;;;;;;;;;;;
1720.0;1669.4;;;;-0.5389367;1.2476274;0.17012025;;;;;;;;;;;;;;;
1720.0;1679.4;;;;-0.5327149;1.2524377;0.16179658;;;;;;;;;;;;;;;
1720.0;1679.4;;;;-0.52680594;1.2570077;0.15522768;;;;;;;;;;;;;;;
1720.0;1679.4;;;;-0.5215302;1.2614061;0.14808656;;;;;;;;;;;;;;;
1720.0;1679.4;;;;-0.51650625;1.2658769;0.14054109;;;;;;;;;;;;;;;
1720.0;1679.4;;;;-0.51157767;1.2710916;0.13386537;;;;;;;;;;;;;;;
1778.0;1681.2;;;;;;;;;;;;;;;;;57.378613;-26.505325;32.98288;;1601.0
1778.0;1681.2;;;;;;;;;;;;;;0.9120762;-0.73628956;-0.5373699;;;;;1601.0
1778.0;1681.2;;;;;;;;;;;;;;;;;63.638725;-18.723106;30.159916;;1601.0
1778.0;1681.2;;;;;;;;;;;;;;0.88747823;-0.5892514;-0.24658956;;;;;1601.0
1778.0;1681.2;;;;;;;;;;;;;;;;;64.88617;-13.393811;28.927732;;1610.6
1778.0;1681.2;;;;;;;;;;;;;;0.8303476;-0.54719687;-0.014160588;;;;;1610.6
1778.0;1681.2;;;;;;;;;;;;;;;;;59.99939;-6.496628;25.341806;;1610.6
1778.0;1681.2;;;;;;;;;;;;;;0.7912229;-0.5255287;0.18866542;;;;;1610.6
1778.0;1681.2;;;;;;;;;;;;;;;;;48.638874;1.0795922;19.600512;;1620.2
1778.0;1681.2;;;;;;;;;;;;;;0.74745935;-0.51692253;0.2946257;;;;;1620.2
1778.0;1681.2;;;;;;;;;;;;;;;;;36.01184;9.9147005;13.302256;;1620.2
1778.0;1681.2;;;;;;;;;;;;;;0.70583206;-0.48451185;0.3209937;;;;;1620.2
1778.0;1681.8;262143;262143;10281;;;;;;;;;;;;;;;;;;
1778.0;1687.9;;;;;;;;;;;;;1118;;;;;;;;
1778.0;1687.9;;;;;;;;;;;;;1796;;;;;;;;
1778.0;1687.9;;;;;;;;;;;;;2402;;;;;;;;
1778.0;1687.9;;;;;;;;;;;;;2876;;;;;;;;
1778.0;1687.9;;;;;;;;;;;;;3457;;;;;;;;
1778.0;1689.2;;;;-0.50802237;1.2771302;0.12652208;;;;;;;;;;;;;;;
1778.0;1689.2;;;;-0.5046807;1.2848588;0.11821748;;;;;;;;;;;;;;;
1778.0;1689.2;;;;-0.50210196;1.2945253;0.112087265;;;;;;;;;;;;;;;
1778.0;1689.2;;;;-0.499878;1.3060724;0.104892746;;;;;;;;;;;;;;;
1778.0;1689.2;;;;-0.499981;1.3204957;0.09725191;;;;;;;;;;;;;;;
1779.0;1699.1;;;;-0.49700934;1.3354837;0.09055329;;;;;;;;;;;;;;;
1779.0;1699.1;;;;-0.49601752;1.3536798;0.08480454;;;;;;;;;;;;;;;
1779.0;1699.1;;;;-0.49630362;1.3749963;0.07844926;;;;;;;;;;;;;;;
1779.0;1699.1;;;;-0.4976235;1.4000398;0.073055275;;;;;;;;;;;;;;;
1779.0;1699.1;;;;-0.49937063;1.4267007;0.06922532;;;;;;;;;;;;;;;
1779.0;1701.8;262143;262143;10295;;;;;;;;;;;;;;;;;;
1779.0;1709.3;;;;-0.50168234;1.4544603;0.069141395;;;;;;;;;;;;;;;
1779.0;1709.3;;;;-0.5041085;1.4878503;0.07146073;;;;;;;;;;;;;;;
1779.0;1709.3;;;;-0.5092278;1.5243647;0.074443825;;;;;;;;;;;;;;;
1779.0;1709.3;;;;-0.51004416;1.5622904;0.07950593;;;;;;;;;;;;;;;
1779.0;1709.3;;;;-0.51396567;1.6016085;0.085392006;;;;;;;;;;;;;;;
1779.0;1719.4;;;;-0.5181542;1.6429217;0.09260178;;;;;;;;;;;;;;;
1779.0;1719.4;;;;-0.5222855;1.6850092;0.09794618;;;;;;;;;;;;;;;
1779.0;1719.4;;;;-0.52268225;1.7237208;0.10240175;;;;;;;;;;;;;;;
1779.0;1719.4;;;;-0.5265961;1.7623332;0.10787584;;;;;;;;;;;;;;;
1779.0;1719.4;;;;-0.52974707;1.7995646;0.11199571;;;;;;;;;;;;;;;
1779.0;1722.1;262143;262143;10297;;;;;;;;;;;;;;;;;;
1780.0;1726.8;;;;;;;;;;;;;;;;;20.67629;17.273476;7.816553;;1629.9
1780.0;1726.8;;;;;;;;;;;;;;0.6579791;-0.5047761;0.26703694;;;;;1629.9
1780.0;1726.8;;;;;;;;;;;;;;;;;5.508591;22.671436;3.5935545;;1629.9
1780.0;1726.8;;;;;;;;;;;;;;0.54194766;-0.58033997;0.22186956;;;;;1629.9
1780.0;1726.8;;;;;;;;;;;;;;;;;-10.006256;22.312845;1.1711478;;1639.6
1780.0;1726.8;;;;;;;;;;;;;;0.47999513;-0.65089875;0.08215583;;;;;1639.6
1780.0;1726.8;;;;;;;;;;;;;;;;;-26.024658;20.298624;1.2321848;;1639.6
1780.0;1726.8;;;;;;;;;;;;;;0.49403363;-0.67506945;-0.14416943;;;;;1639.6
1780.0;1726.8;;;;;;;;;;;;;;;;;-41.894283;12.417218;2.7809992;;1649.2
1780.0;1726.8;;;;;;;;;;;;;;0.6619465;-0.63386947;-0.40705588;;;;;1649.2
1780.0;1726.8;;;;;;;;;;;;;;;;;-62.654503;2.521592;4.860073;;1649.2
1780.0;1726.8;;;;;;;;;;;;;;0.97366256;-0.66139716;-0.63484603;;;;;1649.2
1780.0;1728.2;;;;;;;;;;;;;4469;;;;;;;;
1780.0;1728.2;;;;;;;;;;;;;5584;;;;;;;;
1780.0;1728.2;;;;;;;;;;;;;6052;;;;;;;;
1780.0;1728.2;;;;;;;;;;;;;5695;;;;;;;;
1780.0;1728.2;;;;;;;;;;;;;5231;;;;;;;;
1780.0;1729.4;;;;-0.53122336;1.83062;0.11359407;;;;;;;;;;;;;;;
1780.0;1729.4;;;;-0.53072745;1.8591998;0.11523439;;;;;;;;;;;;;;;
1780.0;1729.4;;;;-0.53088003;1.8831522;0.11693956;;;;;;;;;;;;;;;
1780.0;1729.4;;;;-0.53106695;1.9032023;0.116432205;;;;;;;;;;;;;;;
1780.0;1729.4;;;;-0.5297318;1.9189837;0.118640915;;;;;;;;;;;;;;;
1780.0;1738.5;;;;;;;;;;1.5678884;18.574327;-2.967925;;;;;;;;;
1780.0;1738.5;;;;;;;0.5146031;-0.9290445;0.034546953;;;;;;;;;;;;
1780.0;1738.5;;;;;;;;;;8.140813;28.992584;7.2252574;;;;;;;;;
1780.0;1738.5;;;;;;;0.6124455;-1.0740684;0.035950806;;;;;;;;;;;;
1782.0;1739.5;;;;-0.5251885;1.9273455;0.11741258;;;;;;;;;;;;;;;
1782.0;1739.5;;;;-0.51871115;1.941685;0.11478044;;;;;;;;;;;;;;;
1782.0;1739.5;;;;-0.51357657;1.9544032;0.11268617;;;;;;;;;;;;;;;
1782.0;1739.5;;;;-0.5101548;1.9672244;0.10416414;;;;;;;;;;;;;;;
1782.0;1739.5;;;;-0.50666815;1.9792979;0.09959413;;;;;;;;;;;;;;;
1782.0;1741.5;;;;;;;;;;;;;;;;;-88.46553;-9.643849;5.0279245;;1658.8
1782.0;1741.5;;;;;;;;;;;;;;1.4537797;-0.83474225;-0.8614765;;;;;1658.8
1782.0;1741.5;;;;;;;;;;;;;;;;;-114.535965;-16.266367;1.0414442;;1658.8
1782.0;1741.5;;;;;;;;;;;;;;1.9264504;-1.1092257;-1.2535173;;;;;1658.8
1782.0;1741.5;;;;;;;;;;;;;;;;;-112.91849;3.8148136;-12.79107;;1668.5
1782.0;1741.5;;;;;;;;;;;;;;1.9969481;-1.4246651;-1.5390484;;;;;1668.5
1782.0;1741.5;;;;;;;;;;;;;;;;;-53.28532;40.276802;-25.975067;;1668.5
1782.0;1741.5;;;;;;;;;;;;;;1.9969481;-1.6223029;-1.3439741;;;;;1668.5
1782.0;1741.5;;;;;;;;;;;;;;;;;26.284067;60.766167;-20.46266;;1678.2
1782.0;1741.5;;;;;;;;;;;;;;1.9969481;-1.1789911;-0.91885126;;;;;1678.2
1782.0;1741.5;;;;;;;;;;;;;;;;;88.42738;68.64375;3.1052582;;1678.2
1782.0;1741.5;;;;;;;;;;;;;;1.663625;-0.6277047;-0.4572283;;;;;1678.2
1782.0;1742.1;262143;262143;10289;;;;;;;;;;;;;;;;;;
1782.0;1748.0;;;;;;;;;;4.272591;-4.3031096;10.059664;;;;;;;;;
1782.0;1748.0;;;;;;;0.6388745;-1.1124607;0.031067843;;;;;;;;;;;;
1782.0;1748.0;;;;;;;;;;16.048922;-20.397808;33.978542;;;;;;;;;
1782.0;1748.0;;;;;;;0.65779597;-1.1501205;0.03234962;;;;;;;;;;;;
1835.0;1749.4;;;;-0.503563;1.9903376;0.09347535;;;;;;;;;;;;;;;
1835.0;1749.4;;;;-0.4989472;1.9984667;0.08976746;;;;;;;;;;;;;;;
1835.0;1749.4;;;;-0.4932595;1.9999964;0.086738594;;;;;;;;;;;;;;;
1835.0;1749.4;;;;-0.48448187;1.9999964;0.08283616;;;;;;;;;;;;;;;
1835.0;1749.4;;;;-0.47234732;1.9999964;0.079868324;;;;;;;;;;;;;;;
1835.0;1757.2;;;;;;;;;;25.856808;-48.867764;57.084873;;;;;;;;;
1835.0;1757.2;;;;;;;0.6938078;-1.1883297;0.040833768;;;;;;;;;;;;
1835.0;1757.2;;;;;;;;;;31.132694;-110.549484;59.854427;;;;;;;;;
1835.0;1757.2;;;;;;;0.7266457;-1.2327037;0.046754356;;;;;;;;;;;;
1835.0;1759.1;;;;-0.45846564;1.9999964;0.07732011;;;;;;;;;;;;;;;
1835.0;1759.1;;;;-0.4487267;1.9999964;0.07484055;;;;;;;;;;;;;;;
1835.0;1759.1;;;;-0.4406548;1.9999964;0.07268525;;;;;;;;;;;;;;;
1835.0;1759.1;;;;-0.43450552;1.998215;0.07043458;;;;;;;;;;;;;;;
1835.0;1759.1;;;;-0.42636114;1.9853442;0.068759926;;;;;;;;;;;;;;;
1835.0;1761.9;262143;262143;10272;;;;;;;;;;;;;;;;;;
1835.0;1766.8;;;;;;;;;;42.05451;-124.202705;82.80053;;;;;;;;;
1835.0;1766.8;;;;;;;0.75569934;-1.2846462;0.056031983;;;;;;;;;;;;
1835.0;1766.8;;;;;;;;;;53.315838;-124.87792;106.12812;;;;;;;;;
1835.0;1766.8;;;;;;;0.8022706;-1.3317667;0.06872769;;;;;;;;;;;;
1835.0;1768.1;;;;;;;;;;;;;5371;;;;;;;;
1835.0;1768.1;;;;;;;;;;;;;5977;;;;;;;;
1835.0;1768.1;;;;;;;;;;;;;6513;;;;;;;;
1835.0;1768.1;;;;;;;;;;;;;6555;;;;;;;;
1835.0;1768.1;;;;;;;;;;;;;6337;;;;;;;;
1850.0;1769.2;;;;-0.41740423;1.9730532;0.06623078;;;;;;;;;;;;;;;
1850.0;1769.2;;;;-0.40907675;1.95871;0.06326676;;;;;;;;;;;;;;;
1850.0;1769.2;;;;-0.39970404;1.9416659;0.057910927;;;;;;;;;;;;;;;
1850.0;1769.2;;;;-0.3941384;1.922066;0.054439552;;;;;;;;;;;;;;;
1850.0;1769.2;;;;-0.38859946;1.9035761;0.053092964;;;;;;;;;;;;;;;
1850.0;1776.4;;;;;;;;;;62.524796;-124.881744;122.21137;;;;;;;;;
1850.0;1776.4;;;;;;;0.8665426;-1.3680837;0.08685568;;;;;;;;;;;;
1850.0;1776.4;;;;;;;;;;65.11887;-124.881744;124.88937;;;;;;;;;
1850.0;1776.4;;;;;;;0.92806786;-1.3942076;0.109073155;;;;;;;;;;;;
1850.0;1779.3;;;;-0.38258368;1.8868945;0.052604683;;;;;;;;;;;;;;;
1850.0;1779.3;;;;-0.37468722;1.8695567;0.053646095;;;;;;;;;;;;;;;
1850.0;1779.3;;;;-0.36773685;1.8516581;0.053565986;;;;;;;;;;;;;;;
1850.0;1779.3;;;;-0.3599663;1.8356364;0.051403053;;;;;;;;;;;;;;;
1850.0;1779.3;;;;-0.34984973;1.8165438;0.049911506;;;;;;;;;;;;;;;
1850.0;1782.2;262143;262143;10259;;;;;;;;;;;;;;;;;;
1850.0;1786.0;;;;;;;;;;65.63769;-124.881744;124.881744;;;;;;;;;
1850.0;1786.0;;;;;;;0.9798273;-1.4062929;0.13220619;;;;;;;;;;;;
1850.0;1786.0;;;;;;;;;;66.08021;-124.83596;124.881744;;;;;;;;;
1850.0;1786.0;;;;;;;1.0260323;-1.4217353;0.16730247;;;;;;;;;;;;
1852.0;1786.5;;;;;;;;;;;;;;;;;83.075195;63.718834;11.005738;;1687.8
1852.0;1786.5;;;;;;;;;;;;;;1.1984619;-0.46723837;0.029602954;;;;;1687.8
1852.0;1786.5;;;;;;;;;;;;;;;;;66.98813;38.69747;11.722922;;1687.8
1852.0;1786.5;;;;;;;;;;;;;;0.8622089;-0.4845729;0.14526811;;;;;1687.8
1852.0;1786.5;;;;;;;;;;;;;;;;;63.72265;20.027771;8.816034;;1697.5
1852.0;1786.5;;;;;;;;;;;;;;0.49201941;-0.51515245;0.23151341;;;;;1697.5
1852.0;1786.5;;;;;;;;;;;;;;;;;39.536728;2.1629994;-0.3013703;;1697.5
1852.0;1786.5;;;;;;;;;;;;;;0.20398572;-0.49470505;0.1469161;;;;;1697.5
1852.0;1786.5;;;;;;;;;;;;;;;;;-0.2517777;-7.087924;-10.586108;;1707.2
1852.0;1786.5;;;;;;;;;;;;;;0.042847987;-0.46607867;-0.05328532;;;;;1707.2
1852.0;1786.5;;;;;;;;;;;;;;;;;-40.730766;-3.9979248;-16.51433;;1707.2
1852.0;1786.5;;;;;;;;;;;;;;-0.033143103;-0.4458144;-0.28595844;;;;;1707.2
1852.0;1789.3;;;;-0.34355548;1.8024714;0.04783631;;;;;;;;;;;;;;;
1852.0;1789.3;;;;-0.33819202;1.786526;0.045822147;;;;;;;;;;;;;;;
1852.0;1789.3;;;;-0.332428;1.7698328;0.044692997;;;;;;;;;;;;;;;
1852.0;1789.3;;;;-0.32612994;1.7543795;0.043651585;;;;;;;;;;;;;;;
1852.0;1789.3;;;;-0.31930164;1.7413943;0.04394913;;;;;;;;;;;;;;;
1854.0;1793.9;;;;;;;;;;;;;;;;;-69.24268;13.275552;-15.404218;;1716.8
1854.0;1793.9;;;;;;;;;;;;;;-0.05719169;-0.5627613;-0.3958861;;;;;1716.8
1854.0;1793.9;;;;;;;;;;;;;;;;;-87.90857;38.377026;-11.043886;;1716.8
1854.0;1793.9;;;;;;;;;;;;;;-0.05859554;-0.8636128;-0.35602894;;;;;1716.8
1854.0;1793.9;;;;;;;;;;;;;;;;;-97.36168;47.52495;-11.635181;;1726.4
1854.0;1793.9;;;;;;;;;;;;;;-0.037110507;-1.0082705;-0.39936522;;;;;1726.4
1854.0;1793.9;;;;;;;;;;;;;;;;;-104.075745;43.115025;-8.468886;;1726.4
1854.0;1793.9;;;;;;;;;;;;;;-0.02496414;-1.0746177;-0.5098422;;;;;1726.4
1854.0;1793.9;;;;;;;;;;;;;;;;;-111.20181;34.588913;-1.3771478;;1736.0
1854.0;1793.9;;;;;;;;;;;;;;-0.0054933317;-1.1676382;-0.57094026;;;;;1736.0
1854.0;1793.9;;;;;;;;;;;;;;;;;-111.892296;16.07181;8.648182;;1736.0
1854.0;1793.9;;;;;;;;;;;;;;0.04382458;-1.3075961;-0.68153936;;;;;1736.0
1854.0;1795.4;;;;;;;;;;68.285164;-124.504074;124.881744;;;;;;;;;
1854.0;1795.4;;;;;;;1.0245674;-1.4504226;0.16888943;;;;;;;;;;;;
1854.0;1795.4;;;;;;;;;;71.84057;-124.40108;124.881744;;;;;;;;;
1854.0;1795.4;;;;;;;0.93850523;-1.4805139;0.20221564;;;;;;;;;;;;
1854.0;1799.3;;;;-0.31393817;1.7326548;0.04549027;;;;;;;;;;;;;;;
1854.0;1799.3;;;;-0.31103137;1.7238734;0.04790116;;;;;;;;;;;;;;;
1854.0;1799.3;;;;-0.30500033;1.7177508;0.050243385;;;;;;;;;;;;;;;
1854.0;1799.3;;;;-0.30232242;1.7116549;0.05262757;;;;;;;;;;;;;;;
1854.0;1799.3;;;;-0.29929355;1.7060511;0.057273872;;;;;;;;;;;;;;;
1854.0;1802.1;262143;262143;10245;;;;;;;;;;;;;;;;;;
1892.0;1805.0;;;;;;;;;;76.24668;-121.292;124.881744;;;;;;;;;
1892.0;1805.0;;;;;;;0.90560627;-1.4742271;0.24488053;;;;;;;;;;;;
1892.0;1805.0;;;;;;;;;;80.675674;-109.31349;124.881744;;;;;;;;;
1892.0;1805.0;;;;;;;0.98208565;-1.4937589;0.26996672;;;;;;;;;;;;
1892.0;1808.1;;;;;;;;;;;;;6542;;;;;;;;
1892.0;1808.1;;;;;;;;;;;;;6959;;;;;;;;
1892.0;1808.1;;;;;;;;;;;;;6498;;;;;;;;
1892.0;1808.1;;;;;;;;;;;;;4918;;;;;;;;
1892.0;1808.1;;;;;;;;;;;;;3630;;;;;;;;
1892.0;1809.1;;;;-0.2968445;1.7006686;0.05930329;;;;;;;;;;;;;;;
1892.0;1809.1;;;;-0.2959824;1.6911776;0.06365586;;;;;;;;;;;;;;;
1892.0;1809.1;;;;-0.29698566;1.6896746;0.067321785;;;;;;;;;;;;;;;
1892.0;1809.1;;;;-0.29381183;1.6865504;0.06872178;;;;;;;;;;;;;;;
1892.0;1809.1;;;;-0.29249957;1.6853411;0.07096482;;;;;;;;;;;;;;;
1892.0;1814.2;;;;;;;;;;82.739494;-94.206825;124.881744;;;;;;;;;
1892.0;1814.2;;;;;;;1.1117893;-1.4731895;0.28388318;;;;;;;;;;;;
1892.0;1814.2;;;;;;;;;;78.581345;-75.53331;124.881744;;;;;;;;;
1892.0;1814.2;;;;;;;1.2064577;-1.4501785;0.31311992;;;;;;;;;;;;
1892.0;1819.0;;;;-0.28954318;1.6861308;0.0723343;;;;;;;;;;;;;;;
1892.0;1819.0;;;;-0.28572085;1.6841967;0.07190705;;;;;;;;;;;;;;;
1892.0;1819.0;;;;-0.28213885;1.683842;0.071212776;;;;;;;;;;;;;;;
1892.0;1819.0;;;;-0.2829781;1.6837046;0.06956101;;;;;;;;;;;;;;;
1892.0;1819.0;;;;-0.28045657;1.6869853;0.068336494;;;;;;;;;;;;;;;
1892.0;1822.0;262143;262143;10233;;;;;;;;;;;;;;;;;;
1895.0;1823.8;;;;;;;;;;70.62364;-54.345837;124.881744;;;;;;;;;
1895.0;1823.8;;;;;;;1.2710959;-1.421247;0.32166508;;;;;;;;;;;;
1895.0;1823.8;;;;;;;;;;61.037018;-34.764397;124.881744;;;;;;;;;
1895.0;1823.8;;;;;;;1.2952056;-1.3869442;0.31647694;;;;;;;;;;;;
1895.0;1829.1;;;;-0.2797394;1.6861994;0.065940864;;;;;;;;;;;;;;;
1895.0;1829.1;;;;-0.2768822;1.6866076;0.06526566;;;;;;;;;;;;;;;
1895.0;1829.1;;;;-0.27443698;1.6862414;0.062263496;;;;;;;;;;;;;;;
1895.0;1829.1;;;;-0.27099994;1.684746;0.060855873;;;;;;;;;;;;;;;
1895.0;1829.1;;;;-0.27071765;1.6768038;0.05952836;;;;;;;;;;;;;;;
1895.0;1833.5;;;;;;;;;;50.122837;-19.417402;124.881744;;;;;;;;;
1895.0;1833.5;;;;;;;1.2344127;-1.3683279;0.30182806;;;;;;;;;;;;
1895.0;1833.5;;;;;;;;;;37.511063;-5.6192203;124.881744;;;;;;;;;
1895.0;1833.5;;;;;;;1.1191748;-1.3401898;0.28351694;;;;;;;;;;;;
1895.0;1839.2;;;;-0.26591113;1.6681445;0.05986405;;;;;;;;;;;;;;;
1895.0;1839.2;;;;-0.26080325;1.6622775;0.05754853;;;;;;;;;;;;;;;
1895.0;1839.2;;;;-0.25252917;1.6592371;0.054775245;;;;;;;;;;;;;;;
1895.0;1839.2;;;;-0.24929431;1.653023;0.0513115;;;;;;;;;;;;;;;
1895.0;1839.2;;;;-0.247139;1.6418383;0.049087532;;;;;;;;;;;;;;;
1895.0;1842.3;262143;262143;10220;;;;;;;;;;;;;;;;;;
1895.0;1843.1;;;;;;;;;;24.59792;7.5189977;124.881744;;;;;;;;;
1895.0;1843.1;;;;;;;0.9972839;-1.3130894;0.28339487;;;;;;;;;;;;
1895.0;1843.1;;;;;;;;;;14.812922;18.047884;124.881744;;;;;;;;;
1895.0;1843.1;;;;;;;0.8809473;-1.2833034;0.28394422;;;;;;;;;;;;
1897.0;1848.3;;;;;;;;;;;;;3671;;;;;;;;
1897.0;1848.3;;;;;;;;;;;;;3800;;;;;;;;
1897.0;1848.3;;;;;;;;;;;;;793;;;;;;;;
1897.0;1848.3;;;;;;;;;;;;;-7547;;;;;;;;
1897.0;1848.3;;;;;;;;;;;;;-17100;;;;;;;;
1897.0;1849.2;;;;-0.24364474;1.6286204;0.045795444;;;;;;;;;;;;;;;
1897.0;1849.2;;;;-0.23952869;1.6172488;0.04203034;;;;;;;;;;;;;;;
1897.0;1849.2;;;;-0.23547748;1.6014903;0.03856278;;;;;;;;;;;;;;;
1897.0;1849.2;;;;-0.23315814;1.5856783;0.03585053;;;;;;;;;;;;;;;
1897.0;1849.2;;;;-0.23065951;1.5678256;0.03255463;;;;;;;;;;;;;;;
1897.0;1852.6;;;;;;;;;;8.041628;25.070955;124.881744;;;;;;;;;
1897.0;1852.6;;;;;;;0.78456986;-1.2720115;0.27924436;;;;;;;;;;;;
1897.0;1852.6;;;;;;;;;;3.1052582;30.049286;124.881744;;;;;;;;;
1897.0;1852.6;;;;;;;0.7338481;-1.2817163;0.27582628;;;;;;;;;;;;
1897.0;1854.4;;;;;;;;;;;;;;;;;-98.200935;-4.692221;16.49907;;1745.6
1897.0;1854.4;;;;;;;;;;;;;;0.12964264;-1.432722;-0.8319956;;;;;1745.6
1897.0;1854.4;;;;;;;;;;;;;;;;;-71.14627;-16.10233;25.746178;;1745.6
1897.0;1854.4;;;;;;;;;;;;;;0.18262276;-1.5687735;-0.94338816;;;;;1745.6
1897.0;1854.4;;;;;;;;;;;;;;;;;-34.62325;-20.17655;32.582325;;1755.1
1897.0;1854.4;;;;;;;;;;;;;;0.22809534;-1.6489761;-0.99166846;;;;;1755.1
1897.0;1854.4;;;;;;;;;;;;;;;;;-9.544664;-14.877774;36.175877;;1755.1
1897.0;1854.4;;;;;;;;;;;;;;0.28333384;-1.6559343;-1.0010681;;;;;1755.1
1897.0;1854.4;;;;;;;;;;;;;;;;;6.9696646;0.110629596;33.684807;;1764.8
1897.0;1854.4;;;;;;;;;;;;;;0.38276315;-1.4780114;-0.9452193;;;;;1764.8
1897.0;1854.4;;;;;;;;;;;;;;;;;25.910215;10.078737;30.69399;;1764.8
1897.0;1854.4;;;;;;;;;;;;;;0.5107578;-1.2306284;-0.85042876;;;;;1764.8
1900.0;1855.2;;;;;;;;;;;;;;;;;40.330208;14.378033;30.014954;;1774.4
1900.0;1855.2;;;;;;;;;;;;;;0.5876644;-1.0832239;-0.70186466;;;;;1774.4
1900.0;1855.2;;;;;;;;;;;;;;;;;45.175022;16.739403;28.302103;;1774.4
1900.0;1855.2;;;;;;;;;;;;;;0.6483352;-0.9594409;-0.606769;;;;;1774.4
1900.0;1855.2;;;;;;;;;;;;;;;;;50.092316;17.742699;26.474808;;1784.1
1900.0;1855.2;;;;;;;;;;;;;;0.6866665;-0.8445692;-0.4909818;;;;;1784.1
1900.0;1855.2;;;;;;;;;;;;;;;;;52.030243;12.501144;24.315622;;1784.1
1900.0;1855.2;;;;;;;;;;;;;;0.7044893;-0.75899535;-0.41865292;;;;;1784.1
1900.0;1855.2;;;;;;;;;;;;;;;;;51.641132;3.5592213;21.042513;;1793.7
1900.0;1855.2;;;;;;;;;;;;;;0.71810055;-0.6925871;-0.3961913;;;;;1793.7
1900.0;1855.2;;;;;;;;;;;;;;;;;50.881985;-6.4661093;18.017365;;1793.7
1900.0;1855.2;;;;;;;;;;;;;;0.7414167;-0.6227607;-0.39777824;;;;;1793.7
1900.0;1859.2;;;;-0.22715;1.5519106;0.029632572;;;;;;;;;;;;;;;
1900.0;1859.2;;;;-0.2246857;1.5393565;0.02651978;;;;;;;;;;;;;;;
1900.0;1859.2;;;;-0.22370532;1.5183718;0.02348328;;;;;;;;;;;;;;;
1900.0;1859.2;;;;-0.21990588;1.4980317;0.020828249;;;;;;;;;;;;;;;
1900.0;1859.2;;;;-0.21646121;1.4798547;0.016479494;;;;;;;;;;;;;;;
1900.0;1862.0;;;;;;;;;;-0.6904813;34.253212;124.881744;;;;;;;;;
1900.0;1862.0;;;;;;;0.7401349;-1.2936186;0.27149266;;;;;;;;;;;;
1900.0;1862.0;;;;;;;;;;-4.5739617;38.92636;124.881744;;;;;;;;;
1900.0;1862.0;;;;;;;0.7802362;-1.2970366;0.26868495;;;;;;;;;;;;
1900.0;1862.2;262143;262143;10222;;;;;;;;;;;;;;;;;;
1956.0;1869.2;;;;-0.21053317;1.4591867;0.013080599;;;;;;;;;;;;;;;
1956.0;1869.2;;;;-0.20576862;1.4368211;0.010856629;;;;;;;;;;;;;;;
1956.0;1869.2;;;;-0.19986728;1.4149362;0.0076141367;;;;;;;;;;;;;;;
1956.0;1869.2;;;;-0.19438937;1.3947679;0.0039939885;;;;;;;;;;;;;;;
1956.0;1869.2;;;;-0.18848804;1.3737527;0.0014610292;;;;;;;;;;;;;;;
1956.0;1871.4;;;;;;;;;;-9.277627;44.778282;124.881744;;;;;;;;;
1956.0;1871.4;;;;;;;0.8301645;-1.289468;0.26459548;;;;;;;;;;;;
1956.0;1871.4;;;;;;;;;;-15.160069;51.94632;124.881744;;;;;;;;;
1956.0;1871.4;;;;;;;0.858974;-1.2665792;0.2630085;;;;;;;;;;;;
1956.0;1879.1;;;;-0.18345262;1.3538743;-0.0015258791;;;;;;;;;;;;;;;
1956.0;1879.1;;;;-0.17850877;1.336651;-0.003509522;;;;;;;;;;;;;;;
1956.0;1879.1;;;;-0.1731415;1.3201791;-0.005653382;;;;;;;;;;;;;;;
1956.0;1879.1;;;;-0.16864397;1.3030511;-0.008544923;;;;;;;;;;;;;;;
1956.0;1879.1;;;;-0.16441728;1.2851945;-0.009761811;;;;;;;;;;;;;;;
1956.0;1881.0;;;;;;;;;;-21.790216;59.869686;124.881744;;;;;;;;;
1956.0;1881.0;;;;;;;0.8653218;-1.2358165;0.25946838;;;;;;;;;;;;
1956.0;1881.0;;;;;;;;;;-29.030733;67.32002;124.881744;;;;;;;;;
1956.0;1881.0;;;;;;;0.8415784;-1.2073733;0.25757623;;;;;;;;;;;;
1956.0;1882.3;262143;262143;10238;;;;;;;;;;;;;;;;;;
1956.0;1888.4;;;;;;;;;;;;;-19442;;;;;;;;
1956.0;1888.4;;;;;;;;;;;;;-11605;;;;;;;;
1956.0;1888.4;;;;;;;;;;;;;215;;;;;;;;
1956.0;1888.4;;;;;;;;;;;;;7467;;;;;;;;
1956.0;1888.4;;;;;;;;;;;;;7891;;;;;;;;
1959.0;1889.2;;;;-0.1617241;1.2665254;-0.011005403;;;;;;;;;;;;;;;
1959.0;1889.2;;;;-0.15864946;1.246544;-0.011341096;;;;;;;;;;;;;;;
1959.0;1889.2;;;;-0.15578462;1.2278787;-0.010925294;;;;;;;;;;;;;;;
1959.0;1889.2;;;;-0.15353395;1.2102205;-0.011787416;;;;;;;;;;;;;;;
1959.0;1889.2;;;;-0.15143205;1.1930734;-0.011108399;;;;;;;;;;;;;;;
1959.0;1890.7;;;;;;;;;;-36.450546;73.870056;124.881744;;;;;;;;;
1959.0;1890.7;;;;;;;0.79860836;-1.1874752;0.25849178;;;;;;;;;;;;
1959.0;1890.7;;;;;;;;;;-43.691063;79.61897;124.881744;;;;;;;;;
1959.0;1890.7;;;;;;;0.7538682;-1.1766106;0.2628254;;;;;;;;;;;;
1959.0;1899.4;;;;-0.14904024;1.1763345;-0.010128022;;;;;;;;;;;;;;;
1959.0;1899.4;;;;-0.14783098;1.1598893;-0.009731294;;;;;;;;;;;;;;;
1959.0;1899.4;;;;-0.14737703;1.1436311;-0.0093956;;;;;;;;;;;;;;;
1959.0;1899.4;;;;-0.1468773;1.1276399;-0.007408143;;;;;;;;;;;;;;;
1959.0;1899.4;;;;-0.14691164;1.1121408;-0.0056190495;;;;;;;;;;;;;;;
1959.0;1900.3;;;;;;;;;;-50.85528;84.25016;124.881744;;;;;;;;;
1959.0;1900.3;;;;;;;0.71864986;-1.1701407;0.26953948;;;;;;;;;;;;
1959.0;1900.3;;;;;;;;;;-57.85928;88.00012;124.881744;;;;;;;;;
1959.0;1900.3;;;;;;;0.695822;-1.1703849;0.276986;;;;;;;;;;;;
1959.0;1902.5;262143;262143;10242;;;;;;;;;;;;;;;;;;
1960.0;1909.5;;;;-0.14879991;1.0961572;-0.003711701;;;;;;;;;;;;;;;
1960.0;1909.5;;;;-0.15238573;1.0814401;-0.0020675662;;;;;;;;;;;;;;;
1960.0;1909.5;;;;-0.15314867;1.0671159;-2.9754642E-4;;;;;;;;;;;;;;;
1960.0;1909.5;;;;-0.15322877;1.0535356;6.484986E-5;;;;;;;;;;;;;;;
1960.0;1909.5;;;;-0.15657426;1.0398408;0.001464844;;;;;;;;;;;;;;;
1960.0;1909.9;;;;;;;;;;-64.5848;91.143524;124.881744;;;;;;;;;
1960.0;1909.9;;;;;;;0.685934;-1.1697744;0.28949857;;;;;;;;;;;;
1960.0;1909.9;;;;;;;;;;-70.98987;93.47438;124.881744;;;;;;;;;
1960.0;1909.9;;;;;;;0.6789148;-1.1620837;0.3005463;;;;;;;;;;;;
1960.0;1919.5;;;;;;;;;;-77.29576;95.43901;124.881744;;;;;;;;;
1960.0;1919.5;;;;;;;0.6765343;-1.1498764;0.31366923;;;;;;;;;;;;
1960.0;1919.5;;;;;;;;;;-83.34605;96.98401;124.881744;;;;;;;;;
1960.0;1919.5;;;;;;;0.67030853;-1.1324809;0.32471696;;;;;;;;;;;;
1960.0;1919.6;;;;-0.1599846;1.0254556;0.0043220525;;;;;;;;;;;;;;;
1960.0;1919.6;;;;-0.16406251;1.0115892;0.0053672795;;;;;;;;;;;;;;;
1960.0;1919.6;;;;-0.16902925;0.9964868;0.0041084294;;;;;;;;;;;;;;;
1960.0;1919.6;;;;-0.1727295;0.98350537;0.0072631845;;;;;;;;;;;;;;;
1960.0;1919.6;;;;-0.17785646;0.9719163;0.008754731;;;;;;;;;;;;;;;
1960.0;1922.8;262143;262143;10253;;;;;;;;;;;;;;;;;;
1960.0;1928.8;;;;;;;;;;;;;5878;;;;;;;;
1960.0;1928.8;;;;;;;;;;;;;5655;;;;;;;;
1960.0;1928.8;;;;;;;;;;;;;6899;;;;;;;;
1960.0;1928.8;;;;;;;;;;;;;7583;;;;;;;;
1960.0;1928.8;;;;;;;;;;;;;7475;;;;;;;;
2015.0;1929.1;;;;;;;;;;-89.178894;98.078865;124.881744;;;;;;;;;
2015.0;1929.1;;;;;;;0.6535844;-1.1147801;0.3350322;;;;;;;;;;;;
2015.0;1929.1;;;;;;;;;;-94.44716;98.38405;124.881744;;;;;;;;;
2015.0;1929.1;;;;;;;0.64027834;-1.0951262;0.34797204;;;;;;;;;;;;
2015.0;1929.6;;;;-0.18138506;0.9593469;0.009571076;;;;;;;;;;;;;;;
2015.0;1929.6;;;;-0.18359376;0.94661725;0.011558534;;;;;;;;;;;;;;;
2015.0;1929.6;;;;-0.18424608;0.9347993;0.013988497;;;;;;;;;;;;;;;
2015.0;1929.6;;;;-0.18666078;0.92307675;0.015804293;;;;;;;;;;;;;;;
2015.0;1929.6;;;;-0.18805316;0.9093286;0.015216829;;;;;;;;;;;;;;;
2015.0;1938.7;;;;;;;;;;-99.31867;98.74264;124.881744;;;;;;;;;
2015.0;1938.7;;;;;;;0.63020724;-1.0790124;0.35834834;;;;;;;;;;;;
2015.0;1938.7;;;;;;;;;;-103.89264;99.03256;124.881744;;;;;;;;;
2015.0;1938.7;;;;;;;0.618305;-1.0686362;0.36658832;;;;;;;;;;;;
2015.0;1939.7;;;;-0.18618013;0.8970071;0.017902376;;;;;;;;;;;;;;;
2015.0;1939.7;;;;-0.1849022;0.8856889;0.01861954;;;;;;;;;;;;;;;
2015.0;1939.7;;;;-0.18532564;0.87352383;0.019832613;;;;;;;;;;;;;;;
2015.0;1939.7;;;;-0.1887894;0.860695;0.0219574;;;;;;;;;;;;;;;
2015.0;1939.7;;;;-0.18780139;0.84960186;0.022312166;;;;;;;;;;;;;;;
2015.0;1943.0;262143;262143;10251;;;;;;;;;;;;;;;;;;
2015.0;1948.3;;;;;;;;;;-108.05842;99.05545;124.881744;;;;;;;;;
2015.0;1948.3;;;;;;;0.60786766;-1.0576495;0.37366864;;;;;;;;;;;;
2015.0;1948.3;;;;;;;;;;-111.67485;99.20804;124.881744;;;;;;;;;
2015.0;1948.3;;;;;;;0.59956664;-1.0532548;0.37598804;;;;;;;;;;;;
2017.0;1949.8;;;;-0.18759158;0.8384973;0.02225876;;;;;;;;;;;;;;;
2017.0;1949.8;;;;-0.18746187;0.82545483;0.022621157;;;;;;;;;;;;;;;
2017.0;1949.8;;;;-0.18901828;0.81406796;0.024837498;;;;;;;;;;;;;;;
2017.0;1949.8;;;;-0.18739702;0.8036729;0.02442551;;;;;;;;;;;;;;;
2017.0;1949.8;;;;-0.18872073;0.7930223;0.024086002;;;;;;;;;;;;;;;
2017.0;1958.0;;;;;;;;;;-114.66567;99.002045;124.881744;;;;;;;;;
2017.0;1958.0;;;;;;;0.59346294;-1.0458083;0.37366864;;;;;;;;;;;;
2017.0;1958.0;;;;;;;;;;-116.794334;98.536644;124.881744;;;;;;;;;
2017.0;1958.0;;;;;;;0.5793024;-1.0340282;0.37092197;;;;;;;;;;;;
2017.0;1959.9;;;;-0.19026187;0.7808572;0.023849491;;;;;;;;;;;;;;;
2017.0;1959.9;;;;-0.1922951;0.76976025;0.02412415;;;;;;;;;;;;;;;
2017.0;1959.9;;;;-0.19340137;0.75657284;0.024120335;;;;;;;;;;;;;;;
2017.0;1959.9;;;;-0.19295505;0.7466431;0.022350313;;;;;;;;;;;;;;;
2017.0;1959.9;;;;-0.1939545;0.7354165;0.022018434;;;;;;;;;;;;;;;
2017.0;1963.3;262143;262143;10259;;;;;;;;;;;;;;;;;;
2017.0;1967.6;;;;;;;;;;-118.26304;97.922455;124.881744;;;;;;;;;
2017.0;1967.6;;;;;;;0.5695975;-1.0182806;0.36317027;;;;;;;;;;;;
2017.0;1967.6;;;;;;;;;;-118.46141;97.708824;124.881744;;;;;;;;;
2017.0;1967.6;;;;;;;0.5583056;-1.0084536;0.35895872;;;;;;;;;;;;
2017.0;1969.3;;;;;;;;;;;;;6898;;;;;;;;
2017.0;1969.3;;;;;;;;;;;;;5970;;;;;;;;
2017.0;1969.3;;;;;;;;;;;;;5205;;;;;;;;
2017.0;1969.3;;;;;;;;;;;;;4784;;;;;;;;
2017.0;1969.3;;;;;;;;;;;;;4396;;;;;;;;
2019.0;1970.0;;;;-0.1948891;0.72396475;0.02246094;;;;;;;;;;;;;;;
2019.0;1970.0;;;;-0.19403842;0.7138367;0.021125795;;;;;;;;;;;;;;;
2019.0;1970.0;;;;-0.19302371;0.7048226;0.01931;;;;;;;;;;;;;;;
2019.0;1970.0;;;;-0.19316486;0.69338614;0.0190506;;;;;;;;;;;;;;;
2019.0;1970.0;;;;-0.19401172;0.6825257;0.019298555;;;;;;;;;;;;;;;
2019.0;1977.2;;;;;;;;;;-117.53441;96.800896;124.881744;;;;;;;;;
2019.0;1977.2;;;;;;;0.53914;-0.9936827;0.346202;;;;;;;;;;;;
2019.0;1977.2;;;;;;;;;;-116.02374;95.03845;124.881744;;;;;;;;;
2019.0;1977.2;;;;;;;0.5153966;-0.97885066;0.3348491;;;;;;;;;;;;
2019.0;1980.1;;;;-0.19254687;0.6729775;0.017337801;;;;;;;;;;;;;;;
2019.0;1980.1;;;;-0.19177249;0.66217047;0.016639711;;;;;;;;;;;;;;;
2019.0;1980.1;;;;-0.18918994;0.65116507;0.016284944;;;;;;;;;;;;;;;
2019.0;1980.1;;;;-0.1872635;0.64402395;0.01647568;;;;;;;;;;;;;;;
2019.0;1980.1;;;;-0.19108966;0.6365853;0.018249514;;;;;;;;;;;;;;;
2019.0;1983.4;262143;262143;10269;;;;;;;;;;;;;;;;;;
2019.0;1986.7;;;;;;;;;;-113.63948;92.757195;124.881744;;;;;;;;;
2019.0;1986.7;;;;;;;0.501236;-0.94338816;0.32502213;;;;;;;;;;;;
2019.0;1986.7;;;;;;;;;;-110.549484;90.58656;124.881744;;;;;;;;;
2019.0;1986.7;;;;;;;0.47920164;-0.9097568;0.30927458;;;;;;;;;;;;
2075.0;1990.1;;;;-0.19243243;0.62961584;0.017795565;;;;;;;;;;;;;;;
2075.0;1990.1;;;;-0.19035342;0.6216164;0.017570497;;;;;;;;;;;;;;;
2075.0;1990.1;;;;-0.18856052;0.6139527;0.018344881;;;;;;;;;;;;;;;
2075.0;1990.1;;;;-0.18715288;0.6058236;0.019096376;;;;;;;;;;;;;;;
2075.0;1990.1;;;;-0.18471147;0.5996781;0.01810074;;;;;;;;;;;;;;;
2075.0;1996.1;;;;;;;;;;-107.1009;87.68731;124.80544;;;;;;;;;
2075.0;1996.1;;;;;;;0.45149082;-0.86391795;0.29682302;;;;;;;;;;;;
2075.0;1996.1;;;;;;;;;;-102.70623;83.50246;123.21848;;;;;;;;;
2075.0;1996.1;;;;;;;0.41828668;-0.8769799;0.28040406;;;;;;;;;;;;
2075.0;2000.0;;;;-0.18185045;0.5952912;0.017425539;;;;;;;;;;;;;;;
2075.0;2000.0;;;;-0.17985536;0.5902367;0.01835251;;;;;;;;;;;;;;;
2075.0;2000.0;;;;-0.17473604;0.5870438;0.018848421;;;;;;;;;;;;;;;
2075.0;2000.0;;;;-0.1702347;0.58328635;0.018093111;;;;;;;;;;;;;;;
2075.0;2000.0;;;;-0.16569139;0.5779534;0.017299654;;;;;;;;;;;;;;;
2075.0;2003.5;262143;262143;10272;;;;;;;;;;;;;;;;;;
2075.0;2005.8;;;;;;;;;;-97.17475;78.3372;118.2783;;;;;;;;;
2075.0;2005.8;;;;;;;0.40009767;-0.88485366;0.26288643;;;;;;;;;;;;
2075.0;2005.8;;;;;;;;;;-92.356636;73.04224;113.528854;;;;;;;;;
2075.0;2005.8;;;;;;;0.38660848;-0.85580003;0.242378;;;;;;;;;;;;
2075.0;2009.5;;;;;;;;;;;;;3860;;;;;;;;
2075.0;2009.5;;;;;;;;;;;;;3184;;;;;;;;
2075.0;2009.5;;;;;;;;;;;;;2526;;;;;;;;
2075.0;2009.5;;;;;;;;;;;;;2086;;;;;;;;
2075.0;2009.5;;;;;;;;;;;;;1928;;;;;;;;
2080.0;2010.2;;;;-0.16518404;0.5727578;0.01848984;;;;;;;;;;;;;;;
2080.0;2010.2;;;;-0.16848375;0.5657311;0.01917267;;;;;;;;;;;;;;;
2080.0;2010.2;;;;-0.16656877;0.56285864;0.018497469;;;;;;;;;;;;;;;
2080.0;2010.2;;;;-0.1578026;0.5613366;0.016563417;;;;;;;;;;;;;;;
2080.0;2010.2;;;;-0.1537552;0.5578156;0.017082216;;;;;;;;;;;;;;;
2080.0;2015.4;;;;;;;;;;-88.32439;68.24702;110.377815;;;;;;;;;
2080.0;2015.4;;;;;;;0.4005249;-0.80288094;0.23603015;;;;;;;;;;;;
2080.0;2015.4;;;;;;;;;;-83.967865;63.016907;105.51012;;;;;;;;;
2080.0;2015.4;;;;;;;0.39643544;-0.7571032;0.22956023;;;;;;;;;;;;
2080.0;2020.3;;;;-0.15093996;0.5536309;0.017608644;;;;;;;;;;;;;;;
2080.0;2020.3;;;;-0.1471634;0.54975516;0.017524721;;;;;;;;;;;;;;;
2080.0;2020.3;;;;-0.14582826;0.545517;0.017757418;;;;;;;;;;;;;;;
2080.0;2020.3;;;;-0.14664079;0.54037863;0.017120363;;;;;;;;;;;;;;;
2080.0;2020.3;;;;-0.14333726;0.53768164;0.016830446;;;;;;;;;;;;;;;
2080.0;2023.8;262143;262143;10278;;;;;;;;;;;;;;;;;;
2080.0;2025.0;;;;;;;;;;-80.202644;58.1988;99.9939;;;;;;;;;
2080.0;2025.0;;;;;;;0.3830073;-0.75106055;0.23224586;;;;;;;;;;;;
2080.0;2025.0;;;;;;;;;;-76.28864;52.73217;94.29456;;;;;;;;;
2080.0;2025.0;;;;;;;0.35047457;-0.7726066;0.23194067;;;;;;;;;;;;
2082.0;2030.4;;;;-0.14052965;0.5335694;0.017623903;;;;;;;;;;;;;;;
2082.0;2030.4;;;;-0.13940813;0.53049475;0.01887131;;;;;;;;;;;;;;;
2082.0;2030.4;;;;-0.13471605;0.52834326;0.020008089;;;;;;;;;;;;;;;
2082.0;2030.4;;;;-0.13230135;0.5248719;0.020519258;;;;;;;;;;;;;;;
2082.0;2030.4;;;;-0.12939455;0.5214272;0.023033144;;;;;;;;;;;;;;;
2082.0;2034.6;;;;;;;;;;-72.2335;46.5598;90.64378;;;;;;;;;
2082.0;2034.6;;;;;;;0.33753473;-0.7467269;0.23865475;;;;;;;;;;;;
2082.0;2034.6;;;;;;;;;;-68.384346;40.50569;88.41594;;;;;;;;;
2082.0;2034.6;;;;;;;0.33277383;-0.73158973;0.24738304;;;;;;;;;;;;
2082.0;2040.5;;;;-0.12507631;0.5187035;0.02448273;;;;;;;;;;;;;;;
2082.0;2040.5;;;;-0.120151535;0.51720434;0.022830965;;;;;;;;;;;;;;;
2082.0;2040.5;;;;-0.1163788;0.5149613;0.022579195;;;;;;;;;;;;;;;
2082.0;2040.5;;;;-0.11392976;0.5121575;0.02164078;;;;;;;;;;;;;;;
2082.0;2040.5;;;;-0.11066438;0.5098954;0.021720888;;;;;;;;;;;;;;;
2082.0;2044.1;;;;;;;;;;-64.28724;34.226505;84.37224;;;;;;;;;
2082.0;2044.1;;;;;;;0.32258064;-0.7391583;0.25812554;;;;;;;;;;;;
2082.0;2044.1;;;;;;;;;;-60.56398;28.145695;80.57268;;;;;;;;;
2082.0;2044.1;;;;;;;0.32056642;-0.7373272;0.27307963;;;;;;;;;;;;
2082.0;2043.9;262143;262143;10288;;;;;;;;;;;;;;;;;;
2082.0;2049.8;;;;;;;;;;;;;1972;;;;;;;;
2082.0;2049.8;;;;;;;;;;;;;2042;;;;;;;;
2082.0;2049.8;;;;;;;;;;;;;2106;;;;;;;;
2082.0;2049.8;;;;;;;;;;;;;2344;;;;;;;;
2082.0;2049.8;;;;;;;;;;;;;2755;;;;;;;;
2136.0;2050.3;;;;-0.108821884;0.5074349;0.022438051;;;;;;;;;;;;;;;
2136.0;2050.3;;;;-0.10507585;0.504448;0.02252579;;;;;;;;;;;;;;;
2136.0;2050.3;;;;-0.10096361;0.5017777;0.022296907;;;;;;;;;;;;;;;
2136.0;2050.3;;;;-0.09944917;0.49874884;0.023193361;;;;;;;;;;;;;;;
2136.0;2050.3;;;;-0.09776689;0.49576956;0.024585728;;;;;;;;;;;;;;;
2136.0;2053.3;;;;;;;;;;-57.119205;22.518845;77.26905;;;;;;;;;
2136.0;2053.3;;;;;;;0.32862332;-0.74471265;0.28748435;;;;;;;;;;;;
2136.0;2053.3;;;;;;;;;;-53.51802;16.624958;73.507645;;;;;;;;;
2136.0;2053.3;;;;;;;0.32905057;-0.7559435;0.3037202;;;;;;;;;;;;
2136.0;2060.1;;;;-0.09655;0.49324042;0.02599335;;;;;;;;;;;;;;;
2136.0;2060.1;;;;-0.094390884;0.49003226;0.027385715;;;;;;;;;;;;;;;
2136.0;2060.1;;;;-0.09244157;0.4867974;0.029457096;;;;;;;;;;;;;;;
2136.0;2060.1;;;;-0.09061051;0.48427206;0.031047825;;;;;;;;;;;;;;;
2136.0;2060.1;;;;-0.0882454;0.4809342;0.031631473;;;;;;;;;;;;;;;
2136.0;2062.9;;;;;;;;;;-49.756615;10.66622;70.09338;;;;;;;;;
2136.0;2062.9;;;;;;;0.3261208;-0.77303386;0.31861323;;;;;;;;;;;;
2136.0;2062.9;;;;;;;;;;-45.770134;4.936369;67.247536;;;;;;;;;
2136.0;2062.9;;;;;;;0.33655813;-0.77163;0.3299051;;;;;;;;;;;;
2136.0;2063.7;262143;262143;10295;;;;;;;;;;;;;;;;;;
2140.0;2070.2;;;;-0.08604813;0.4774552;0.032520298;;;;;;;;;;;;;;;
2140.0;2070.2;;;;-0.08324433;0.47386557;0.03310776;;;;;;;;;;;;;;;
2140.0;2070.2;;;;-0.0804062;0.47005087;0.03393555;;;;;;;;;;;;;;;
2140.0;2070.2;;;;-0.07815171;0.46680075;0.034477238;;;;;;;;;;;;;;;
2140.0;2070.2;;;;-0.074752815;0.4625016;0.03526688;;;;;;;;;;;;;;;
2140.0;2072.6;;;;;;;;;;-42.09647;-0.38148138;64.04309;;;;;;;;;
2140.0;2072.6;;;;;;;0.342967;-0.7760857;0.342967;;;;;;;;;;;;
2140.0;2072.6;;;;;;;;;;-38.31599;-5.592517;60.544907;;;;;;;;;
2140.0;2072.6;;;;;;;0.34730065;-0.7878658;0.35517442;;;;;;;;;;;;
2140.0;2080.3;;;;-0.07149506;0.4588738;0.035430912;;;;;;;;;;;;;;;
2140.0;2080.3;;;;-0.067768104;0.4553948;0.03639603;;;;;;;;;;;;;;;
2140.0;2080.3;;;;-0.06405259;0.45170218;0.036746982;;;;;;;;;;;;;;;
2140.0;2080.3;;;;-0.059841163;0.44835287;0.037261967;;;;;;;;;;;;;;;
2140.0;2080.3;;;;-0.056011207;0.4447251;0.038383488;;;;;;;;;;;;;;;
2140.0;2082.2;;;;;;;;;;-34.669025;-10.578479;57.52739;;;;;;;;;
2140.0;2082.2;;;;;;;0.35523546;-0.7945189;0.3688467;;;;;;;;;;;;
2140.0;2082.2;;;;;;;;;;-30.945768;-15.251625;54.391617;;;;;;;;;
2140.0;2082.2;;;;;;;0.36548966;-0.79677725;0.37665945;;;;;;;;;;;;
2140.0;2084.0;262143;262143;10293;;;;;;;;;;;;;;;;;;
2140.0;2090.0;;;;;;;;;;;;;3297;;;;;;;;
2140.0;2090.0;;;;;;;;;;;;;3892;;;;;;;;
2140.0;2090.0;;;;;;;;;;;;;4417;;;;;;;;
2140.0;2090.0;;;;;;;;;;;;;4871;;;;;;;;
2140.0;2090.0;;;;;;;;;;;;;5111;;;;;;;;
2143.0;2090.4;;;;-0.05277253;0.44134527;0.039085392;;;;;;;;;;;;;;;
2143.0;2090.4;;;;-0.049453743;0.43812567;0.039688114;;;;;;;;;;;;;;;
2143.0;2090.4;;;;-0.04561234;0.43461615;0.04063416;;;;;;;;;;;;;;;
2143.0;2090.4;;;;-0.041263584;0.43131644;0.04212189;;;;;;;;;;;;;;;
2143.0;2090.4;;;;-0.03815079;0.42876822;0.043365482;;;;;;;;;;;;;;;
2143.0;2091.8;;;;;;;;;;-27.233955;-19.512772;51.09943;;;;;;;;;
2143.0;2091.8;;;;;;;0.3767205;-0.7984863;0.38190863;;;;;;;;;;;;
2143.0;2091.8;;;;;;;;;;-23.83114;-23.586992;47.677544;;;;;;;;;
2143.0;2091.8;;;;;;;0.38294625;-0.79464096;0.38410595;;;;;;;;;;;;
2143.0;2100.5;;;;-0.035102848;0.42615134;0.043350223;;;;;;;;;;;;;;;
2143.0;2100.5;;;;-0.032234196;0.4235955;0.044616703;;;;;;;;;;;;;;;
2143.0;2100.5;;;;-0.029197697;0.42117697;0.04579926;;;;;;;;;;;;;;;
2143.0;2100.5;;;;-0.025695805;0.42003638;0.046520237;;;;;;;;;;;;;;;
2143.0;2100.5;;;;-0.02245331;0.41898352;0.046688084;;;;;;;;;;;;;;;
2143.0;2101.4;;;;;;;;;;-20.519882;-27.314068;44.175545;;;;;;;;;
2143.0;2101.4;;;;;;;0.39106417;-0.7900632;0.3838618;;;;;;;;;;;;
2143.0;2101.4;;;;;;;;;;-17.365032;-30.594805;40.643024;;;;;;;;;
2143.0;2101.4;;;;;;;0.40058595;-0.78359324;0.38373974;;;;;;;;;;;;
2144.0;2103.3;;;;;;;;;;;;;;;;;49.577316;-12.104404;15.907774;;1803.3
2144.0;2103.3;;;;;;;;;;;;;;0.7754753;-0.5535447;-0.3894162;;;;;1803.3
2144.0;2103.3;;;;;;;;;;;;;;;;;50.424206;-13.603626;15.358439;;1803.3
2144.0;2103.3;;;;;;;;;;;;;;0.80141604;-0.48103276;-0.3188574;;;;;1803.3
2144.0;2103.3;;;;;;;;;;;;;;;;;50.83239;-13.6227;15.747551;;1812.9
2144.0;2103.3;;;;;;;;;;;;;;0.8199103;-0.42603838;-0.1932432;;;;;1812.9
2144.0;2103.3;;;;;;;;;;;;;;;;;47.357098;-12.848292;16.006958;;1812.9
2144.0;2103.3;;;;;;;;;;;;;;0.8261971;-0.39167455;-0.073549606;;;;;1812.9
2144.0;2103.3;;;;;;;;;;;;;;;;;47.06336;-13.176367;16.006958;;1822.4
2144.0;2103.3;;;;;;;;;;;;;;0.8274789;-0.37879574;0.006836146;;;;;1822.4
2144.0;2103.3;;;;;;;;;;;;;;;;;45.02243;-11.032442;14.969329;;1822.4
2144.0;2103.3;;;;;;;;;;;;;;0.8132572;-0.36146122;0.053712577;;;;;1822.4
2144.0;2104.0;;;;;;;;;;;;;;;;;38.785213;-8.468886;12.810144;;1832.0
2144.0;2104.0;;;;;;;;;;;;;;0.7920774;-0.34528643;0.027466659;;;;;1832.0
2144.0;2104.0;;;;;;;;;;;;;;;;;29.56862;-5.7565536;10.917997;;1832.0
2144.0;2104.0;;;;;;;;;;;;;;0.76168096;-0.35023043;-0.048524432;;;;;1832.0
2144.0;2104.0;;;;;;;;;;;;;;;;;20.99292;-1.0948515;8.564257;;1841.7
2144.0;2104.0;;;;;;;;;;;;;;0.7241432;-0.357799;-0.08868679;;;;;1841.7
2144.0;2104.0;;;;;;;;;;;;;;;;;11.471145;1.9417402;6.4394054;;1841.7
2144.0;2104.0;;;;;;;;;;;;;;0.67824334;-0.39906004;-0.10742515;;;;;1841.7
2144.0;2104.0;;;;;;;;;;;;;;;;;1.0147405;2.2888882;4.7456284;;1851.3
2144.0;2104.0;;;;;;;;;;;;;;0.64131594;-0.5017243;-0.13019197;;;;;1851.3
2144.0;2104.0;;;;;;;;;;;;;;;;;-5.6764426;1.9264809;2.7771842;;1851.3
2144.0;2104.0;;;;;;;;;;;;;;0.6222114;-0.5916318;-0.14056826;;;;;1851.3
2145.0;2105.0;;;;;;;;;;;;;;;;;-7.5457015;1.2588885;0.7209998;;1861.0
2145.0;2105.0;;;;;;;;;;;;;;0.60860014;-0.6619465;-0.15265359;;;;;1861.0
2145.0;2105.0;;;;;;;;;;;;;;;;;-5.83285;0.92699975;-0.86214787;;1861.0
2145.0;2105.0;;;;;;;;;;;;;;0.6021302;-0.7134617;-0.17011017;;;;;1861.0
2145.0;2105.0;;;;;;;;;;;;;;;;;-1.7662587;0.77822196;-2.0218513;;1870.7
2145.0;2105.0;;;;;;;;;;;;;;0.5834529;-0.75045013;-0.15948974;;;;;1870.7
2145.0;2105.0;;;;;;;;;;;;;;;;;3.215888;-0.6675924;-2.8305917;;1870.7
2145.0;2105.0;;;;;;;;;;;;;;0.57832575;-0.7726066;-0.19013031;;;;;1870.7
2145.0;2105.0;;;;;;;;;;;;;;;;;8.159886;-1.6861477;-3.5515916;;1880.4
2145.0;2105.0;;;;;;;;;;;;;;0.5831477;-0.77449876;-0.20905179;;;;;1880.4
2145.0;2105.0;;;;;;;;;;;;;;;;;13.485367;-2.311777;-4.222999;;1880.4
2145.0;2105.0;;;;;;;;;;;;;;0.5940733;-0.7630848;-0.21613209;;;;;1880.4
2145.0;2104.1;262143;262143;10293;;;;;;;;;;;;;;;;;;
2196.0;2106.8;;;;;;;;;;;;;;;;;19.432661;-2.948851;-5.0012207;;1890.0
2196.0;2106.8;;;;;;;;;;;;;;0.61836606;-0.74257636;-0.2080752;;;;;1890.0
2196.0;2106.8;;;;;;;;;;;;;;;;;25.91403;-3.173925;-6.107517;;1890.0
2196.0;2106.8;;;;;;;;;;;;;;0.63777584;-0.7198706;-0.16705832;;;;;1890.0
2196.0;2106.8;;;;;;;;;;;;;;;;;31.704918;-4.272591;-7.206183;;1899.7
2196.0;2106.8;;;;;;;;;;;;;;0.66750085;-0.6967376;-0.12707907;;;;;1899.7
2196.0;2106.8;;;;;;;;;;;;;;;;;35.988953;-5.8175907;-8.217109;;1899.7
2196.0;2106.8;;;;;;;;;;;;;;0.69753104;-0.6686605;-0.11255226;;;;;1899.7
2196.0;2106.8;;;;;;;;;;;;;;;;;37.656025;-7.9615164;-8.762627;;1909.4
2196.0;2106.8;;;;;;;;;;;;;;0.71828365;-0.6491897;-0.14185004;;;;;1909.4
2196.0;2106.8;;;;;;;;;;;;;;;;;36.98462;-9.235664;-8.865627;;1909.4
2196.0;2106.8;;;;;;;;;;;;;;0.7391583;-0.6313059;-0.18750572;;;;;1909.4
2196.0;2110.3;;;;-0.020709993;0.41758734;0.0472107;;;;;;;;;;;;;;;
2196.0;2110.3;;;;-0.019729616;0.41507727;0.048503883;;;;;;;;;;;;;;;
2196.0;2110.3;;;;-0.01664734;0.41351324;0.048191078;;;;;;;;;;;;;;;
2196.0;2110.3;;;;-0.014564516;0.41217428;0.046764378;;;;;;;;;;;;;;;
2196.0;2110.3;;;;-0.012641909;0.41006857;0.04620743;;;;;;;;;;;;;;;
2196.0;2110.7;;;;;;;;;;-14.381847;-33.284252;37.10288;;;;;;;;;
2196.0;2110.7;;;;;;;0.4083987;-0.77663505;0.37836847;;;;;;;;;;;;
2196.0;2110.7;;;;;;;;;;-11.654256;-35.340435;33.692436;;;;;;;;;
2196.0;2110.7;;;;;;;0.42072818;-0.76943266;0.37018952;;;;;;;;;;;;
2196.0;2120.2;;;;;;;;;;-9.159368;-36.687065;30.465101;;;;;;;;;
2196.0;2120.2;;;;;;;0.43476668;-0.75966674;0.36481827;;;;;;;;;;;;
2196.0;2120.2;;;;;;;;;;-6.96585;-37.80099;27.359844;;;;;;;;;
2196.0;2120.2;;;;;;;0.44495988;-0.75081635;0.3606067;;;;;;;;;;;;
2197.0;2120.3;;;;-0.010581971;0.40835577;0.045730595;;;;;;;;;;;;;;;
2197.0;2120.3;;;;-0.008651734;0.40697867;0.045631412;;;;;;;;;;;;;;;
2197.0;2120.3;;;;-0.007396699;0.40599066;0.046062473;;;;;;;;;;;;;;;
2197.0;2120.3;;;;-0.0051689153;0.405613;0.046253208;;;;;;;;;;;;;;;
2197.0;2120.3;;;;-0.0036697392;0.4051705;0.04727555;;;;;;;;;;;;;;;
2197.0;2124.0;262143;262143;10303;;;;;;;;;;;;;;;;;;
2197.0;2129.8;;;;;;;;;;-5.0050354;-38.6021;24.28892;;;;;;;;;
2197.0;2129.8;;;;;;;0.45399335;-0.743553;0.3554796;;;;;;;;;;;;
2197.0;2129.8;;;;;;;;;;-3.379925;-38.99884;21.156958;;;;;;;;;
2197.0;2129.8;;;;;;;0.46192816;-0.7376934;0.35059664;;;;;;;;;;;;
2197.0;2130.0;;;;;;;;;;;;;4765;;;;;;;;
2197.0;2130.0;;;;;;;;;;;;;3745;;;;;;;;
2197.0;2130.0;;;;;;;;;;;;;2532;;;;;;;;
2197.0;2130.0;;;;;;;;;;;;;1602;;;;;;;;
2197.0;2130.0;;;;;;;;;;;;;1021;;;;;;;;
2197.0;2130.4;;;;-0.0027465823;0.40456015;0.048027046;;;;;;;;;;;;;;;
2197.0;2130.4;;;;-0.0019836428;0.40456778;0.04936219;;;;;;;;;;;;;;;
2197.0;2130.4;;;;-0.0024490359;0.40428168;0.05200959;;;;;;;;;;;;;;;
2197.0;2130.4;;;;-0.0035400395;0.40445334;0.055236824;;;;;;;;;;;;;;;
2197.0;2130.4;;;;-0.0050277715;0.40383917;0.057884224;;;;;;;;;;;;;;;
2197.0;2139.4;;;;;;;;;;-1.9646292;-39.044617;18.292032;;;;;;;;;
2197.0;2139.4;;;;;;;0.46748254;-0.7342143;0.3457747;;;;;;;;;;;;
2197.0;2139.4;;;;;;;;;;-0.73625904;-38.6784;15.400403;;;;;;;;;
2197.0;2139.4;;;;;;;0.4760277;-0.73409224;0.34253976;;;;;;;;;;;;
2199.0;2140.5;;;;-0.007495881;0.40455633;0.06082917;;;;;;;;;;;;;;;
2199.0;2140.5;;;;-0.009761811;0.40583807;0.06423951;;;;;;;;;;;;;;;
2199.0;2140.5;;;;-0.011764528;0.40835577;0.06526185;;;;;;;;;;;;;;;
2199.0;2140.5;;;;-0.015659334;0.4101792;0.06999207;;;;;;;;;;;;;;;
2199.0;2140.5;;;;-0.018772127;0.41095358;0.07472993;;;;;;;;;;;;;;;
2199.0;2144.3;262143;262143;10301;;;;;;;;;;;;;;;;;;
2199.0;2149.1;;;;;;;;;;0.4158147;-37.766655;12.543107;;;;;;;;;
2199.0;2149.1;;;;;;;0.48628193;-0.733726;0.34205145;;;;;;;;;;;;
2199.0;2149.1;;;;;;;;;;1.3771478;-36.389507;9.842219;;;;;;;;;
2199.0;2149.1;;;;;;;0.49616992;-0.74037904;0.34553057;;;;;;;;;;;;
2199.0;2150.6;;;;-0.020660402;0.41283804;0.07805253;;;;;;;;;;;;;;;
2199.0;2150.6;;;;-0.021327974;0.4146424;0.084587105;;;;;;;;;;;;;;;
2199.0;2150.6;;;;-0.023586277;0.4170838;0.091651924;;;;;;;;;;;;;;;
2199.0;2150.6;;;;-0.025211338;0.41948324;0.09939577;;;;;;;;;;;;;;;
2199.0;2150.6;;;;-0.026844028;0.4229012;0.10718919;;;;;;;;;;;;;;;
2199.0;2158.7;;;;;;;;;;2.2583697;-34.649952;7.0917387;;;;;;;;;
2199.0;2158.7;;;;;;;0.5072787;-0.7447737;0.34962004;;;;;;;;;;;;
2199.0;2158.7;;;;;;;;;;3.1395917;-32.662437;4.3946652;;;;;;;;;
2199.0;2158.7;;;;;;;0.5157018;-0.7496567;0.3515122;;;;;;;;;;;;
2254.0;2160.7;;;;-0.027626041;0.42683417;0.11465837;;;;;;;;;;;;;;;
2254.0;2160.7;;;;-0.028141025;0.4299088;0.124065414;;;;;;;;;;;;;;;
2254.0;2160.7;;;;-0.028507236;0.4322167;0.13243105;;;;;;;;;;;;;;;
2254.0;2160.7;;;;-0.02928162;0.43505102;0.1411667;;;;;;;;;;;;;;;
2254.0;2160.7;;;;-0.029609684;0.43767172;0.15025713;;;;;;;;;;;;;;;
2254.0;2164.4;262143;262143;10290;;;;;;;;;;;;;;;;;;
2254.0;2168.2;;;;;;;;;;4.0475173;-30.407879;1.5945921;;;;;;;;;
2254.0;2168.2;;;;;;;0.5188757;-0.7541734;0.3533433;;;;;;;;;;;;
2254.0;2168.2;;;;;;;;;;4.936369;-27.962584;-1.2741477;;;;;;;;;
2254.0;2168.2;;;;;;;0.5224158;-0.75392926;0.35193944;;;;;;;;;;;;
2254.0;2170.3;;;;;;;;;;;;;643;;;;;;;;
2254.0;2170.3;;;;;;;;;;;;;348;;;;;;;;
2254.0;2170.3;;;;;;;;;;;;;207;;;;;;;;
2254.0;2170.3;;;;;;;;;;;;;307;;;;;;;;
2254.0;2170.3;;;;;;;;;;;;;421;;;;;;;;
2254.0;2170.5;;;;-0.030643467;0.43989187;0.15901567;;;;;;;;;;;;;;;
2254.0;2170.5;;;;-0.030834202;0.44318014;0.16732027;;;;;;;;;;;;;;;
2254.0;2170.5;;;;-0.031188969;0.4464646;0.17622377;;;;;;;;;;;;;;;
2254.0;2170.5;;;;-0.031272892;0.44852072;0.18367387;;;;;;;;;;;;;;;
2254.0;2170.5;;;;-0.0321312;0.4495278;0.19040683;;;;;;;;;;;;;;;
2254.0;2177.5;;;;;;;;;;5.767998;-25.326548;-4.1581473;;;;;;;;;
2254.0;2177.5;;;;;;;0.5252846;-0.75228125;0.34736168;;;;;;;;;;;;
2254.0;2177.5;;;;;;;;;;6.5271463;-22.576067;-7.141331;;;;;;;;;
2254.0;2177.5;;;;;;;0.5229652;-0.7493515;0.33680227;;;;;;;;;;;;
2265.0;2180.5;;;;-0.0322609;0.452488;0.19596103;;;;;;;;;;;;;;;
2265.0;2180.5;;;;-0.03209305;0.4563828;0.20135882;;;;;;;;;;;;;;;
2265.0;2180.5;;;;-0.03406525;0.4611817;0.20636752;;;;;;;;;;;;;;;
2265.0;2180.5;;;;-0.036804203;0.46620947;0.20984653;;;;;;;;;;;;;;;
2265.0;2180.5;;;;-0.038959507;0.47186285;0.2129555;;;;;;;;;;;;;;;
2265.0;2184.4;262143;262143;10294;;;;;;;;;;;;;;;;;;
2265.0;2187.1;;;;;;;;;;7.0955534;-19.810328;-10.23896;;;;;;;;;
2265.0;2187.1;;;;;;;0.52449113;-0.74794763;0.32831812;;;;;;;;;;;;
2265.0;2187.1;;;;;;;;;;7.5457015;-16.888182;-13.328959;;;;;;;;;
2265.0;2187.1;;;;;;;0.51960814;-0.7511216;0.32276377;;;;;;;;;;;;
2265.0;2190.6;;;;-0.043170933;0.47759634;0.21709827;;;;;;;;;;;;;;;
2265.0;2190.6;;;;-0.048999794;0.48429877;0.22148135;;;;;;;;;;;;;;;
2265.0;2190.6;;;;-0.055889137;0.49202734;0.22481921;;;;;;;;;;;;;;;
2265.0;2190.6;;;;-0.064788826;0.49965292;0.22837833;;;;;;;;;;;;;;;
2265.0;2190.6;;;;-0.07592774;0.5081292;0.23240283;;;;;;;;;;;;;;;
2265.0;2196.8;;;;;;;;;;7.866146;-13.870663;-16.422773;;;;;;;;;
2265.0;2196.8;;;;;;;0.5200964;-0.7616199;0.31751457;;;;;;;;;;;;
2265.0;2196.8;;;;;;;;;;7.965331;-10.75396;-19.672993;;;;;;;;;
2265.0;2196.8;;;;;;;0.5251015;-0.7772454;0.31171605;;;;;;;;;;;;
2267.0;2200.7;;;;-0.08715058;0.5174218;0.23659137;;;;;;;;;;;;;;;
2267.0;2200.7;;;;-0.097770706;0.52657706;0.24016574;;;;;;;;;;;;;;;
2267.0;2200.7;;;;-0.1091385;0.53659827;0.24368289;;;;;;;;;;;;;;;
2267.0;2200.7;;;;-0.11904909;0.5468789;0.24639514;;;;;;;;;;;;;;;
2267.0;2200.7;;;;-0.12906267;0.55699927;0.24834827;;;;;;;;;;;;;;;
2267.0;2204.7;262143;262143;10302;;;;;;;;;;;;;;;;;;
2267.0;2206.4;;;;;;;;;;8.072146;-7.415998;-22.873623;;;;;;;;;
2267.0;2206.4;;;;;;;0.52937406;-0.7968993;0.30860317;;;;;;;;;;;;
2267.0;2206.4;;;;;;;;;;8.095035;-3.7804804;-25.967436;;;;;;;;;
2267.0;2206.4;;;;;;;0.53444016;-0.821131;0.3030488;;;;;;;;;;;;
2267.0;2210.6;;;;;;;;;;;;;299;;;;;;;;
2267.0;2210.6;;;;;;;;;;;;;-163;;;;;;;;
2267.0;2210.6;;;;;;;;;;;;;-719;;;;;;;;
2267.0;2210.6;;;;;;;;;;;;;-837;;;;;;;;
2267.0;2210.6;;;;;;;;;;;;;-350;;;;;;;;
2267.0;2210.8;;;;-0.1376114;0.56836325;0.24907687;;;;;;;;;;;;;;;
2267.0;2210.8;;;;-0.14704897;0.5799218;0.24932483;;;;;;;;;;;;;;;
2267.0;2210.8;;;;-0.15647127;0.5928307;0.25029376;;;;;;;;;;;;;;;
2267.0;2210.8;;;;-0.1656418;0.60625845;0.25146487;;;;;;;;;;;;;;;
2267.0;2210.8;;;;-0.17435075;0.619587;0.25101092;;;;;;;;;;;;;;;
2267.0;2216.0;;;;;;;;;;8.121738;0.26322216;-28.98877;;;;;;;;;
2267.0;2216.0;;;;;;;0.5426191;-0.84884185;0.30103457;;;;;;;;;;;;
2267.0;2216.0;;;;;;;;;;8.331553;4.3641467;-31.765953;;;;;;;;;
2267.0;2216.0;;;;;;;0.5517747;-0.88320565;0.30066836;;;;;;;;;;;;
2313.0;2220.9;;;;-0.18244554;0.63270575;0.24968722;;;;;;;;;;;;;;;
2313.0;2220.9;;;;-0.19114688;0.64641196;0.24539188;;;;;;;;;;;;;;;
2313.0;2220.9;;;;-0.20021823;0.66213614;0.24242786;;;;;;;;;;;;;;;
2313.0;2220.9;;;;-0.2104874;0.67817694;0.23841861;;;;;;;;;;;;;;;
2313.0;2220.9;;;;-0.22311786;0.6973267;0.23505405;;;;;;;;;;;;;;;
2313.0;2224.9;262143;262143;10302;;;;;;;;;;;;;;;;;;
2313.0;2225.6;;;;;;;;;;8.461257;8.526108;-34.360023;;;;;;;;;
2313.0;2225.6;;;;;;;0.56282234;-0.9178747;0.2997528;;;;;;;;;;;;
2313.0;2225.6;;;;;;;;;;8.629108;13.000885;-36.877804;;;;;;;;;
2313.0;2225.6;;;;;;;0.56715596;-0.9558397;0.29786065;;;;;;;;;;;;
2313.0;2231.0;;;;-0.23569873;0.71827704;0.23323825;;;;;;;;;;;;;;;
2313.0;2231.0;;;;-0.24781421;0.738823;0.23137668;;;;;;;;;;;;;;;
2313.0;2231.0;;;;-0.26200488;0.76158917;0.23077396;;;;;;;;;;;;;;;
2313.0;2231.0;;;;-0.27588657;0.78818905;0.23099902;;;;;;;;;;;;;;;
2313.0;2231.0;;;;-0.29854968;0.8098985;0.23117831;;;;;;;;;;;;;;;
2313.0;2235.2;;;;;;;;;;8.964812;17.639698;-39.353615;;;;;;;;;
2313.0;2235.2;;;;;;;0.5721;-0.99630725;0.2952971;;;;;;;;;;;;
2313.0;2235.2;;;;;;;;;;9.62096;22.282326;-41.737877;;;;;;;;;
2313.0;2235.2;;;;;;;0.5759453;-1.0398877;0.29145175;;;;;;;;;;;;
2314.0;2241.1;;;;-0.3202782;0.83189785;0.23379901;;;;;;;;;;;;;;;
2314.0;2241.1;;;;-0.3420563;0.8530923;0.2372475;;;;;;;;;;;;;;;
2314.0;2241.1;;;;-0.36407474;0.87635815;0.2422829;;;;;;;;;;;;;;;
2314.0;2241.1;;;;-0.38869482;0.89431393;0.24648288;;;;;;;;;;;;;;;
2314.0;2241.1;;;;-0.41037375;0.90797055;0.24989703;;;;;;;;;;;;;;;
2314.0;2244.8;;;;;;;;;;10.475478;26.917326;-44.07636;;;;;;;;;
2314.0;2244.8;;;;;;;0.57869196;-1.0811487;0.2883999;;;;;;;;;;;;
2314.0;2244.8;;;;;;;;;;11.581775;31.659138;-46.468246;;;;;;;;;
2314.0;2244.8;;;;;;;0.58046204;-1.1171606;0.28760645;;;;;;;;;;;;
2314.0;2245.1;262143;262143;10298;;;;;;;;;;;;;;;;;;
2314.0;2251.0;;;;;;;;;;;;;218;;;;;;;;
2314.0;2251.0;;;;;;;;;;;;;350;;;;;;;;
2314.0;2251.0;;;;;;;;;;;;;149;;;;;;;;
2314.0;2251.0;;;;;;;;;;;;;-410;;;;;;;;
2314.0;2251.0;;;;;;;;;;;;;-1065;;;;;;;;
2314.0;2251.2;;;;-0.43271643;0.92473614;0.25570682;;;;;;;;;;;;;;;
2314.0;2251.2;;;;-0.44767767;0.9475175;0.2609215;;;;;;;;;;;;;;;
2314.0;2251.2;;;;-0.4674645;0.9634439;0.26083758;;;;;;;;;;;;;;;
2314.0;2251.2;;;;-0.48471457;0.9848443;0.26529315;;;;;;;;;;;;;;;
2314.0;2251.2;;;;-0.5044022;0.9907342;0.26516727;;;;;;;;;;;;;;;
2314.0;2254.4;;;;;;;;;;13.061922;36.439102;-49.066135;;;;;;;;;
2314.0;2254.4;;;;;;;0.5821711;-1.154271;0.28650776;;;;;;;;;;;;
2314.0;2254.4;;;;;;;;;;14.793848;41.333508;-51.67165;;;;;;;;;
2314.0;2254.4;;;;;;;0.5805231;-1.1902219;0.28131962;;;;;;;;;;;;
2319.0;2261.3;;;;-0.52519995;0.99803936;0.2662125;;;;;;;;;;;;;;;
2319.0;2261.3;;;;-0.5390931;1.0153428;0.26676944;;;;;;;;;;;;;;;
2319.0;2261.3;;;;-0.5565873;1.0272981;0.26913837;;;;;;;;;;;;;;;
2319.0;2261.3;;;;-0.5778504;1.0334474;0.26947024;;;;;;;;;;;;;;;
2319.0;2261.3;;;;-0.60132986;1.0464364;0.27076724;;;;;;;;;;;;;;;
2319.0;2264.0;;;;;;;;;;16.762293;46.193577;-54.277172;;;;;;;;;
2319.0;2264.0;;;;;;;0.575396;-1.2193365;0.27375102;;;;;;;;;;;;
2319.0;2264.0;;;;;;;;;;19.116032;50.695057;-56.89413;;;;;;;;;
2319.0;2264.0;;;;;;;0.56611836;-1.2430799;0.26258126;;;;;;;;;;;;
2319.0;2265.4;262143;262143;10291;;;;;;;;;;;;;;;;;;
2319.0;2270.3;;;;;;;;;;;;;;;;;35.008545;-9.281442;-8.571886;;1919.0
2319.0;2270.3;;;;;;;;;;;;;;0.7563097;-0.5982238;-0.22675252;;;;;1919.0
2319.0;2270.3;;;;;;;;;;;;;;;;;31.96051;-8.884701;-7.3320723;;1919.0
2319.0;2270.3;;;;;;;;;;;;;;0.76082647;-0.57564014;-0.2482986;;;;;1919.0
2319.0;2270.3;;;;;;;;;;;;;;;;;28.351696;-8.453628;-5.5543685;;1928.6
2319.0;2270.3;;;;;;;;;;;;;;0.73628956;-0.5757622;-0.22064883;;;;;1928.6
2319.0;2270.3;;;;;;;;;;;;;;;;;25.727104;-9.510331;-3.3913696;;1928.6
2319.0;2270.3;;;;;;;;;;;;;;0.69057286;-0.5807672;-0.16937773;;;;;1928.6
2319.0;2270.3;;;;;;;;;;;;;;;;;24.063845;-11.6657;-1.2207403;;1938.3
2319.0;2270.3;;;;;;;;;;;;;;0.63582265;-0.59468365;-0.14508499;;;;;1938.3
2319.0;2270.3;;;;;;;;;;;;;;;;;23.34666;-13.012329;0.9155553;;1938.3
2319.0;2270.3;;;;;;;;;;;;;;0.5851009;-0.6020081;-0.14191107;;;;;1938.3
2320.0;2271.3;;;;-0.6198159;1.0620004;0.27122882;;;;;;;;;;;;;;;
2320.0;2271.3;;;;-0.63680273;1.0728456;0.26903537;;;;;;;;;;;;;;;
2320.0;2271.3;;;;-0.64991385;1.0857545;0.26903155;;;;;;;;;;;;;;;
2320.0;2271.3;;;;-0.6584931;1.1059533;0.27077106;;;;;;;;;;;;;;;
2320.0;2271.3;;;;-0.66706854;1.1176912;0.27025226;;;;;;;;;;;;;;;
2320.0;2272.0;;;;;;;;;;;;;;;;;22.79351;-13.225959;3.0137029;;1948.0
2320.0;2272.0;;;;;;;;;;;;;;0.54084903;-0.58589435;-0.15765862;;;;;1948.0
2320.0;2272.0;;;;;;;;;;;;;;;;;21.443068;-12.802515;4.8677025;;1948.0
2320.0;2272.0;;;;;;;;;;;;;;0.50721765;-0.5630665;-0.1788995;;;;;1948.0
2320.0;2272.0;;;;;;;;;;;;;;;;;19.596697;-12.073886;6.44322;;1957.6
2320.0;2272.0;;;;;;;;;;;;;;0.4848781;-0.54139835;-0.2031312;;;;;1957.6
2320.0;2272.0;;;;;;;;;;;;;;;;;18.74218;-11.265144;7.4045534;;1957.6
2320.0;2272.0;;;;;;;;;;;;;;0.47657704;-0.5269326;-0.21820734;;;;;1957.6
2320.0;2272.0;;;;;;;;;;;;;;;;;19.856104;-10.830256;7.827998;;1967.3
2320.0;2272.0;;;;;;;;;;;;;;0.47309792;-0.5019074;-0.22980438;;;;;1967.3
2320.0;2272.0;;;;;;;;;;;;;;;;;22.63329;-10.727257;7.5991087;;1967.3
2320.0;2272.0;;;;;;;;;;;;;;0.48060548;-0.4646138;-0.23859371;;;;;1967.3
2321.0;2272.7;;;;;;;;;;;;;;;;;25.986511;-10.696738;7.1146274;;1976.9
2321.0;2272.7;;;;;;;;;;;;;;0.5015412;-0.43055514;-0.25244913;;;;;1976.9
2321.0;2272.7;;;;;;;;;;;;;;;;;29.232918;-10.090182;6.267739;;1976.9
2321.0;2272.7;;;;;;;;;;;;;;0.52937406;-0.39765617;-0.263802;;;;;1976.9
2321.0;2272.7;;;;;;;;;;;;;;;;;31.662952;-9.468368;5.0393686;;1986.6
2321.0;2272.7;;;;;;;;;;;;;;0.5663625;-0.3571276;-0.27234718;;;;;1986.6
2321.0;2272.7;;;;;;;;;;;;;;;;;33.227028;-8.671071;3.6431472;;1986.6
2321.0;2272.7;;;;;;;;;;;;;;0.6048769;-0.3291116;-0.26007873;;;;;1986.6
2321.0;2272.7;;;;;;;;;;;;;;;;;34.432507;-7.572405;2.311777;;1996.2
2321.0;2272.7;;;;;;;;;;;;;;0.6398511;-0.3157445;-0.23871578;;;;;1996.2
2321.0;2272.7;;;;;;;;;;;;;;;;;36.37425;-6.4355907;1.083407;;1996.2
2321.0;2272.7;;;;;;;;;;;;;;0.6751915;-0.31647694;-0.22577593;;;;;1996.2
2321.0;2273.4;;;;;;;;;;21.752068;54.98672;-59.72854;;;;;;;;;
2321.0;2273.4;;;;;;;0.55781734;-1.2576678;0.25098422;;;;;;;;;;;;
2321.0;2273.4;;;;;;;;;;24.51018;59.011353;-62.65069;;;;;;;;;
2321.0;2273.4;;;;;;;0.54469436;-1.2701803;0.23664053;;;;;;;;;;;;
2321.0;2281.2;;;;-0.68424994;1.1208459;0.2753487;;;;;;;;;;;;;;;
2321.0;2281.2;;;;-0.6969872;1.1338845;0.28131106;;;;;;;;;;;;;;;
2321.0;2281.2;;;;-0.70984274;1.1457788;0.28476718;;;;;;;;;;;;;;;
2321.0;2281.2;;;;-0.73032767;1.1561891;0.29155734;;;;;;;;;;;;;;;
2321.0;2281.2;;;;-0.7481614;1.1727334;0.29791644;;;;;;;;;;;;;;;
2321.0;2283.0;;;;;;;;;;27.470472;62.730797;-65.7445;;;;;;;;;
2321.0;2283.0;;;;;;;0.53279215;-1.2754296;0.21985534;;;;;;;;;;;;
2321.0;2283.0;;;;;;;;;;30.51088;66.13743;-68.89553;;;;;;;;;
2321.0;2283.0;;;;;;;0.51850945;-1.2857448;0.20172735;;;;;;;;;;;;
2374.0;2285.3;262143;262143;10270;;;;;;;;;;;;;;;;;;
2374.0;2291.2;;;;-0.7698251;1.1748239;0.30276492;;;;;;;;;;;;;;;
2374.0;2291.2;;;;-0.78948224;1.1871835;0.3154526;;;;;;;;;;;;;;;
2374.0;2291.2;;;;-0.8077737;1.1962777;0.3220406;;;;;;;;;;;;;;;
2374.0;2291.2;;;;-0.82673657;1.2204286;0.32922748;;;;;;;;;;;;;;;
2374.0;2291.2;;;;-0.84298337;1.2389604;0.33512118;;;;;;;;;;;;;;;
2374.0;2291.2;;;;;;;;;;;;;-881;;;;;;;;
2374.0;2291.2;;;;;;;;;;;;;81;;;;;;;;
2374.0;2291.2;;;;;;;;;;;;;24;;;;;;;;
2374.0;2291.2;;;;;;;;;;;;;-4173;;;;;;;;
2374.0;2291.2;;;;;;;;;;;;;-12900;;;;;;;;
2374.0;2292.4;;;;;;;;;;33.406326;69.25413;-72.11905;;;;;;;;;
2374.0;2292.4;;;;;;;0.50630206;-1.2970977;0.18488114;;;;;;;;;;;;
2374.0;2292.4;;;;;;;;;;36.381878;72.23731;-75.18235;;;;;;;;;
2374.0;2292.4;;;;;;;0.4931791;-1.3105258;0.1683401;;;;;;;;;;;;
2374.0;2301.1;;;;-0.862877;1.244507;0.34515002;;;;;;;;;;;;;;;
2374.0;2301.1;;;;-0.88149655;1.2532197;0.3544121;;;;;;;;;;;;;;;
2374.0;2301.1;;;;-0.8959619;1.26849;0.36471942;;;;;;;;;;;;;;;
2374.0;2301.1;;;;-0.91403973;1.2815362;0.3679848;;;;;;;;;;;;;;;
2374.0;2301.1;;;;-0.9286386;1.301262;0.37601095;;;;;;;;;;;;;;;
2374.0;2301.9;;;;;;;;;;39.330727;75.20142;-78.12738;;;;;;;;;
2374.0;2301.9;;;;;;;0.4873806;-1.3285928;0.15021211;;;;;;;;;;;;
2374.0;2301.9;;;;;;;;;;42.092655;77.99005;-81.0419;;;;;;;;;
2374.0;2301.9;;;;;;;0.48365733;-1.3605762;0.13525803;;;;;;;;;;;;
2374.0;2305.3;262143;262143;10263;;;;;;;;;;;;;;;;;;
2376.0;2311.2;;;;-0.9433137;1.3175851;0.38367087;;;;;;;;;;;;;;;
2376.0;2311.2;;;;-0.95352185;1.3227769;0.38607413;;;;;;;;;;;;;;;
2376.0;2311.2;;;;-0.965397;1.3222924;0.3921929;;;;;;;;;;;;;;;
2376.0;2311.2;;;;-0.9687921;1.3282014;0.40048224;;;;;;;;;;;;;;;
2376.0;2311.2;;;;-0.97327435;1.3455392;0.40352637;;;;;;;;;;;;;;;
2376.0;2311.6;;;;;;;;;;44.820244;80.81301;-83.90683;;;;;;;;;
2376.0;2311.6;;;;;;;0.48121586;-1.4061098;0.1208533;;;;;;;;;;;;
2376.0;2311.6;;;;;;;;;;47.66228;83.77331;-86.32161;;;;;;;;;
2376.0;2311.6;;;;;;;0.48567155;-1.4684896;0.11102634;;;;;;;;;;;;
2376.0;2321.2;;;;;;;;;;50.6798;86.90909;-88.66771;;;;;;;;;
2376.0;2321.2;;;;;;;0.49269083;-1.5450301;0.11127049;;;;;;;;;;;;
2376.0;2321.2;;;;;;;;;;53.945282;90.23179;-90.88412;;;;;;;;;
2376.0;2321.2;;;;;;;0.5009308;-1.6382335;0.123416856;;;;;;;;;;;;
2376.0;2321.3;;;;-0.9744226;1.3452646;0.40408713;;;;;;;;;;;;;;;
2376.0;2321.3;;;;-0.9810144;1.3381616;0.41009527;;;;;;;;;;;;;;;
2376.0;2321.3;;;;-0.9784814;1.3387834;0.41496664;;;;;;;;;;;;;;;
2376.0;2321.3;;;;-0.9782983;1.3430787;0.41819388;;;;;;;;;;;;;;;
2376.0;2321.3;;;;-0.9799005;1.348694;0.41934973;;;;;;;;;;;;;;;
2376.0;2325.6;262143;262143;10231;;;;;;;;;;;;;;;;;;
2381.0;2329.1;;;;;;;;;;;;;;;;;37.92688;-5.1080356;-0.16022217;;2005.9
2381.0;2329.1;;;;;;;;;;;;;;0.69734794;-0.31464583;-0.22168645;;;;;2005.9
2381.0;2329.1;;;;;;;;;;;;;;;;;38.743248;-3.6507769;-1.3580737;;2005.9
2381.0;2329.1;;;;;;;;;;;;;;0.695822;-0.3119602;-0.19080172;;;;;2005.9
2381.0;2329.1;;;;;;;;;;;;;;;;;38.865322;-3.8262582;-2.4109623;;2015.4
2381.0;2329.1;;;;;;;;;;;;;;0.68404186;-0.32264167;-0.15710929;;;;;2015.4
2381.0;2329.1;;;;;;;;;;;;;;;;;38.865322;-4.875332;-3.3265176;;2015.4
2381.0;2329.1;;;;;;;;;;;;;;0.66243476;-0.33033234;-0.15570544;;;;;2015.4
2381.0;2329.1;;;;;;;;;;;;;;;;;38.659325;-4.7265544;-3.9674063;;2025.1
2381.0;2329.1;;;;;;;;;;;;;;0.62910855;-0.3299051;-0.16748558;;;;;2025.1
2381.0;2329.1;;;;;;;;;;;;;;;;;36.561176;-3.872036;-4.333628;;2025.1
2381.0;2329.1;;;;;;;;;;;;;;0.5744194;-0.33033234;-0.17481002;;;;;2025.1
2381.0;2330.0;;;;;;;;;;;;;;;;;52.33543;-24.990843;-21.893217;;2140.8
2381.0;2330.0;;;;;;;;;;;;;;0.70595413;-0.1732841;-0.18933684;;;;;2140.8
2381.0;2330.0;;;;;;;;;;;;;;;;;45.018616;-23.651846;-25.799585;;2140.8
2381.0;2330.0;;;;;;;;;;;;;;0.71645254;-0.1645558;-0.18512528;;;;;2140.8
2381.0;2330.0;;;;;;;;;;;;;;;;;37.915436;-22.679068;-29.953917;;2150.4
2381.0;2330.0;;;;;;;;;;;;;;0.7538072;-0.19281594;-0.107608266;;;;;2150.4
2381.0;2330.0;;;;;;;;;;;;;;;;;34.142582;-23.735771;-35.206913;;2150.4
2381.0;2330.0;;;;;;;;;;;;;;0.8297983;-0.25641653;-0.07049776;;;;;2150.4
2381.0;2330.0;;;;;;;;;;;;;;;;;33.555103;-23.129215;-41.97821;;2160.0
2381.0;2330.0;;;;;;;;;;;;;;0.9218421;-0.3302713;-0.09582812;;;;;2160.0
2381.0;2330.0;;;;;;;;;;;;;;;;;34.516434;-19.005402;-50.183872;;2160.0
2381.0;2330.0;;;;;;;;;;;;;;1.0379345;-0.37678152;-0.121768855;;;;;2160.0
2383.0;2330.8;;;;;;;;;;;;;;;;;35.86688;-13.065737;-59.347057;;2169.6
2383.0;2330.8;;;;;;;;;;;;;;1.173925;-0.40272224;-0.11761834;;;;;2169.6
2383.0;2330.8;;;;;;;;;;;;;;;;;37.377544;-6.8437757;-68.38816;;2169.6
2383.0;2330.8;;;;;;;;;;;;;;1.297647;-0.43208104;-0.081667535;;;;;2169.6
2383.0;2330.8;;;;;;;;;;;;;;;;;39.384136;-1.9226661;-77.84128;;2179.3
2383.0;2330.8;;;;;;;;;;;;;;1.4082462;-0.46089053;-0.03277688;;;;;2179.3
2383.0;2330.8;;;;;;;;;;;;;;;;;42.806026;0.7705924;-87.49657;;2179.3
2383.0;2330.8;;;;;;;;;;;;;;1.5139623;-0.49110386;0.0015259255;;;;;2179.3
2383.0;2330.8;;;;;;;;;;;;;;;;;47.143467;1.5488143;-97.193825;;2188.9
2383.0;2330.8;;;;;;;;;;;;;;1.6018555;-0.5289468;0.04181036;;;;;2188.9
2383.0;2330.8;;;;;;;;;;;;;;;;;50.67217;0.25940734;-106.59353;;2188.9
2383.0;2330.8;;;;;;;;;;;;;;1.6467788;-0.5620899;0.074892424;;;;;2188.9
2383.0;2330.6;;;;;;;;;;57.561726;93.7376;-92.60841;;;;;;;;;
2383.0;2330.6;;;;;;;0.51203954;-1.7374188;0.13385418;;;;;;;;;;;;
2383.0;2330.6;;;;;;;;;;61.52913;97.14805;-93.96649;;;;;;;;;
2383.0;2330.6;;;;;;;0.5190588;-1.8295236;0.14331493;;;;;;;;;;;;
2384.0;2331.7;;;;;;;;;;;;;;;;;23.239845;-10.464034;2.6284068;;2063.6
2384.0;2331.7;;;;;;;;;;;;;;0.30780968;-0.37794122;-0.25269327;;;;;2063.6
2384.0;2331.7;;;;;;;;;;;;;;;;;24.20118;-12.096774;4.0017395;;2063.6
2384.0;2331.7;;;;;;;;;;;;;;0.3228248;-0.38019958;-0.26587725;;;;;2063.6
2384.0;2331.7;;;;;;;;;;;;;;;;;25.8034;-12.531663;5.306406;;2073.2
2384.0;2331.7;;;;;;;;;;;;;;0.36756492;-0.37830743;-0.28797266;;;;;2073.2
2384.0;2331.7;;;;;;;;;;;;;;;;;28.176214;-12.478255;6.366924;;2073.2
2384.0;2331.7;;;;;;;;;;;;;;0.42756432;-0.3725089;-0.30738243;;;;;2073.2
2384.0;2331.7;;;;;;;;;;;;;;;;;30.716879;-12.417218;7.106998;;2082.9
2384.0;2331.7;;;;;;;;;;;;;;0.5126499;-0.36072877;-0.31989503;;;;;2082.9
2384.0;2331.7;;;;;;;;;;;;;;;;;32.7044;-12.462996;7.3206277;;2082.9
2384.0;2331.7;;;;;;;;;;;;;;0.606769;-0.33869442;-0.32868436;;;;;2082.9
2384.0;2331.2;;;;-0.9806901;1.3554574;0.42153555;;;;;;;;;;;;;;;
2384.0;2331.2;;;;-0.978634;1.3568918;0.423626;;;;;;;;;;;;;;;
2384.0;2331.2;;;;-0.9754373;1.3498079;0.42457205;;;;;;;;;;;;;;;
2384.0;2331.2;;;;-0.97267926;1.3448373;0.42711645;;;;;;;;;;;;;;;
2384.0;2331.2;;;;-0.96808636;1.3397027;0.42979437;;;;;;;;;;;;;;;
2384.0;2331.3;;;;;;;;;;;;;-20156;;;;;;;;
2384.0;2331.3;;;;;;;;;;;;;-19149;;;;;;;;
2384.0;2331.3;;;;;;;;;;;;;-10050;;;;;;;;
2384.0;2331.3;;;;;;;;;;;;;24;;;;;;;;
2384.0;2331.3;;;;;;;;;;;;;4639;;;;;;;;
2386.0;2332.4;;;;;;;;;;;;;;;;;56.043427;-10.921812;-124.88937;;2208.3
2386.0;2332.4;;;;;;;;;;;;;;1.5666372;-0.69142735;0.18420972;;;;;2208.3
2386.0;2332.4;;;;;;;;;;;;;;;;;52.449875;-15.308847;-124.988556;;2208.3
2386.0;2332.4;;;;;;;;;;;;;;1.4675131;-0.74532306;0.18127994;;;;;2208.3
2386.0;2332.4;;;;;;;;;;;;;;;;;47.074802;-18.910032;-124.988556;;2218.0
2386.0;2332.4;;;;;;;;;;;;;;1.3383588;-0.81752986;0.15393536;;;;;2218.0
2386.0;2332.4;;;;;;;;;;;;;;;;;38.50673;-22.32429;-124.988556;;2218.0
2386.0;2332.4;;;;;;;;;;;;;;1.2251961;-0.9045076;0.07428205;;;;;2218.0
2386.0;2332.4;;;;;;;;;;;;;;;;;26.902067;-24.830622;-124.988556;;2227.3
2386.0;2332.4;;;;;;;;;;;;;;1.1236305;-1.025483;0.0014038514;;;;;2227.3
2386.0;2332.4;;;;;;;;;;;;;;;;;15.411847;-25.07477;-124.988556;;2227.3
2386.0;2332.4;;;;;;;;;;;;;;1.0478835;-1.1685537;-0.05139317;;;;;2227.3
2386.0;2336.6;;;;;;;;;;;;;;;;;1.373333;-25.036621;-124.988556;;2236.9
2386.0;2336.6;;;;;;;;;;;;;;1.0104069;-1.2518082;-0.22486039;;;;;2236.9
2386.0;2336.6;;;;;;;;;;;;;;;;;-15.526292;-23.678549;-124.988556;;2236.9
2386.0;2336.6;;;;;;;;;;;;;;1.0039979;-1.3859676;-0.3483993;;;;;2236.9
2386.0;2336.6;;;;;;;;;;;;;;;;;-28.145695;-23.23603;-124.988556;;2246.6
2386.0;2336.6;;;;;;;;;;;;;;1.0325632;-1.4944304;-0.5180822;;;;;2246.6
2386.0;2336.6;;;;;;;;;;;;;;;;;-34.813988;-23.85403;-124.988556;;2246.6
2386.0;2336.6;;;;;;;;;;;;;;1.1076388;-1.6065553;-0.6923429;;;;;2246.6
2386.0;2336.6;;;;;;;;;;;;;;;;;-29.713585;-21.938993;-124.9733;;2256.2
2386.0;2336.6;;;;;;;;;;;;;;1.2253182;-1.7062899;-0.7655263;;;;;2256.2
2386.0;2336.6;;;;;;;;;;;;;;;;;-16.533403;-18.574327;-124.23704;;2256.2
2386.0;2336.6;;;;;;;;;;;;;;1.2814722;-1.7590868;-0.7405011;;;;;2256.2
2387.0;2339.9;;;;;;;;;;66.00009;99.84893;-95.18342;;;;;;;;;
2387.0;2339.9;;;;;;;0.520951;-1.9037446;0.14941862;;;;;;;;;;;;
2387.0;2339.9;;;;;;;;;;70.53209;101.68004;-96.58346;;;;;;;;;
2387.0;2339.9;;;;;;;0.52070683;-1.9534287;0.15198217;;;;;;;;;;;;
2387.0;2341.0;;;;-0.96032727;1.3314744;0.4311753;;;;;;;;;;;;;;;
2387.0;2341.0;;;;-0.95560086;1.3254434;0.43571097;;;;;;;;;;;;;;;
2387.0;2341.0;;;;-0.95333874;1.3259012;0.44292074;;;;;;;;;;;;;;;
2387.0;2341.0;;;;-0.9527627;1.3279687;0.44800192;;;;;;;;;;;;;;;
2387.0;2341.0;;;;-0.9525529;1.3283006;0.44577414;;;;;;;;;;;;;;;
2387.0;2344.2;;;;;;;;;;;;;;;;;1.2131108;-17.670218;-121.631516;;2265.9
2387.0;2344.2;;;;;;;;;;;;;;1.2667012;-1.6625874;-0.6450392;;;;;2265.9
2387.0;2344.2;;;;;;;;;;;;;;;;;17.08655;-17.235327;-118.33171;;2265.9
2387.0;2344.2;;;;;;;;;;;;;;1.1412702;-1.3950621;-0.52735984;;;;;2265.9
2387.0;2344.2;;;;;;;;;;;;;;;;;25.257881;-17.28492;-114.81826;;2275.5
2387.0;2344.2;;;;;;;;;;;;;;0.9774468;-1.226783;-0.39667958;;;;;2275.5
