patientId;holterMac;flexMac;;;;;;;;;;;;;;;;;;;;
;CA:F3:0B:1E:33:78;D3:4A:5C:52:80:78;;;;;;;;;;;;;;;;;;;;
receivedTimeStamp;timeStamp;red;ir;green;adxl_accX;adxl_accY;adxl_accZ;lsm_accelX;lsm_accelY;lsm_accelZ;lsm_gyroX;lsm_gyroY;lsm_gyroZ;ecg;flex_lsm_accelX;flex_lsm_accelY;flex_lsm_accelZ;flex_lsm_gyroX;flex_lsm_gyroY;flex_lsm_gyroZ;flex_cmd;flexTimeStamp
306.0;219.1;;;;;;;;;;;;;;;;;;;;17;0.1
306.0;219.1;;;;;;;;;;;;;;;;;13.035218;0.82018495;1.6708884;;127.7
306.0;219.1;;;;;;;;;;;;;;0.776513;0.2760094;0.035767693;;;;;127.7
306.0;219.1;;;;;;;;;;;;;;;;;-6.111332;-18.24244;-6.839961;;127.7
306.0;219.1;;;;;;;;;;;;;;0.8280282;0.25678274;-0.0024414808;;;;;127.7
306.0;219.1;;;;;;;;;;;;;;;;;-60.95309;-84.5706;-59.736168;;137.3
306.0;219.1;;;;;;;;;;;;;;0.82485425;0.23810542;0.015137181;;;;;137.3
306.0;219.1;;;;;;;;;;;;;;;;;-121.53996;-124.988556;-118.97641;;137.3
306.0;219.1;;;;;;;;;;;;;;0.8094119;0.23529771;0.06769005;;;;;137.3
368.0;219.9;;;;;;;;;;;;;;;;;-38.098545;-124.59944;-68.842125;;147.0
368.0;219.9;;;;;;;;;;;;;;0.8006836;0.2405469;0.120670184;;;;;147.0
368.0;219.9;;;;;;;;;;;;;;;;;63.253426;-122.95145;-6.6301465;;147.0
368.0;219.9;;;;;;;;;;;;;;0.84865874;0.21887875;0.17731254;;;;;147.0
368.0;219.9;;;;;;;;;;;;;;;;;80.43534;-91.43727;8.514664;;156.6
368.0;219.9;;;;;;;;;;;;;;0.88467056;0.23664053;0.23071994;;;;;156.6
368.0;219.9;;;;;;;;;;;;;;;;;93.33704;-6.183813;34.87884;;156.6
368.0;219.9;;;;;;;;;;;;;;0.97903377;0.28083134;0.14593951;;;;;156.6
368.0;219.9;;;;;;;;;;;;;;;;;107.77993;0.39674062;38.25495;;166.2
368.0;219.9;;;;;;;;;;;;;;1.0483718;0.2796716;0.093142495;;;;;166.2
368.0;219.9;;;;;;;;;;;;;;;;;120.74267;-0.9193701;38.468582;;166.2
368.0;219.9;;;;;;;;;;;;;;1.0774865;0.27198097;0.056642354;;;;;166.2
368.0;279.8;;;;;;;;;;;;;;;;;124.90463;-1.7509995;38.937805;;175.9
368.0;279.8;;;;;;;;;;;;;;1.1042818;0.29395428;0.07940916;;;;;175.9
368.0;279.8;;;;;;;;;;;;;;;;;124.988556;-0.18311106;37.163914;;175.9
368.0;279.8;;;;;;;;;;;;;;1.1093478;0.31049532;0.13269448;;;;;175.9
368.0;279.8;;;;;;;;;;;;;;;;;124.988556;-6.2448497;32.45262;;185.5
368.0;279.8;;;;;;;;;;;;;;1.0448927;0.29706717;0.07739494;;;;;185.5
368.0;279.8;;;;;;;;;;;;;;;;;124.988556;-35.74862;24.506365;;185.5
368.0;279.8;;;;;;;;;;;;;;1.1068453;0.35261086;-0.2069155;;;;;185.5
368.0;279.8;;;;;;;;;;;;;;;;;124.988556;-60.2092;20.17655;;195.2
368.0;279.8;;;;;;;;;;;;;;1.1941893;0.36152226;-0.43024996;;;;;195.2
368.0;279.8;;;;;;;;;;;;;;;;;124.988556;-75.42268;19.016848;;195.2
368.0;279.8;;;;;;;;;;;;;;1.2207404;0.2849208;-0.37244788;;;;;195.2
427.0;280.6;;;;;;;;;;;;;;;;;124.988556;-99.6086;20.76403;;204.8
427.0;280.6;;;;;;;;;;;;;;1.3855404;0.22974335;-0.42133853;;;;;204.8
427.0;280.6;;;;;;;;;;;;;;;;;124.988556;-105.903046;23.266548;;204.8
427.0;280.6;;;;;;;;;;;;;;1.5105442;0.15546128;-0.51258886;;;;;204.8
427.0;280.6;;;;;;;;;;;;;;;;;124.988556;-98.35353;32.002472;;214.5
427.0;280.6;;;;;;;;;;;;;;1.5491196;-0.079226054;-0.45429853;;;;;214.5
427.0;280.6;;;;;;;;;;;;;;;;;122.760704;-116.46626;43.06925;;214.5
427.0;280.6;;;;;;;;;;;;;;1.5549791;-0.26630452;-0.4532609;;;;;214.5
427.0;280.6;;;;;;;;;;;;;;;;;84.89868;-124.485;52.934357;;224.0
427.0;280.6;;;;;;;;;;;;;;1.7208778;-0.33906063;-0.5542772;;;;;224.0
427.0;280.6;;;;;;;;;;;;;;;;;-8.262887;-79.89364;70.650345;;224.0
427.0;280.6;;;;;;;;;;;;;;1.8869594;-0.38758507;-0.38209173;;;;;224.0
427.0;339.7;;;;;;;;;;;;;;;;;-98.97534;42.497025;81.19068;;233.6
427.0;339.7;;;;;;;;;;;;;;1.7446212;-0.4992828;0.07477035;;;;;233.6
427.0;339.7;;;;;;;;;;;;;;;;;-105.55589;115.29511;63.54335;;233.6
427.0;339.7;;;;;;;;;;;;;;1.2692648;-0.5536668;0.6616413;;;;;233.6
427.0;339.7;;;;;;;;;;;;;;;;;-50.58824;83.796196;20.126957;;243.3
427.0;339.7;;;;;;;;;;;;;;0.76778466;-0.39387187;0.95883054;;;;;243.3
427.0;339.7;;;;;;;;;;;;;;;;;13.2107;-44.568466;-25.940733;;243.3
427.0;339.7;;;;;;;;;;;;;;0.7615589;-0.09076205;0.44807276;;;;;243.3
427.0;339.7;;;;;;;;;;;;;;;;;51.40843;-121.09363;-55.04013;;253.0
427.0;339.7;;;;;;;;;;;;;;0.9043245;0.072206795;-0.46040222;;;;;253.0
427.0;339.7;;;;;;;;;;;;;;;;;78.81405;-124.988556;-71.62694;;253.0
427.0;339.7;;;;;;;;;;;;;;0.96511734;0.30658895;-1.0461745;;;;;253.0
489.0;340.4;;;;;;;;;;;;;;;;;77.21946;-109.519485;-75.121315;;262.6
489.0;340.4;;;;;;;;;;;;;;0.8813135;0.51551867;-1.0368968;;;;;262.6
489.0;340.4;;;;;;;;;;;;;;;;;42.458878;-13.611256;-76.3535;;262.6
489.0;340.4;;;;;;;;;;;;;;0.7137669;0.5442061;-0.49287394;;;;;262.6
489.0;340.4;;;;;;;;;;;;;;;;;11.745811;67.060616;-72.29453;;272.3
489.0;340.4;;;;;;;;;;;;;;0.6833705;0.52430797;0.22235785;;;;;272.3
489.0;340.4;;;;;;;;;;;;;;;;;5.142369;39.876247;-49.623096;;272.3
489.0;340.4;;;;;;;;;;;;;;0.75264746;0.53657645;0.49201941;;;;;272.3
489.0;340.4;;;;;;;;;;;;;;;;;6.7293315;-42.439804;-34.169285;;281.8
489.0;340.4;;;;;;;;;;;;;;1.0868862;0.55439925;-0.06555376;;;;;281.8
489.0;340.4;;;;;;;;;;;;;;;;;13.30607;-55.288094;-16.716515;;281.8
489.0;340.4;;;;;;;;;;;;;;1.4504226;0.342967;-0.60713524;;;;;281.8
489.0;400.0;;;;;;;;;;;;;;;;;27.275919;1.0872219;10.490738;;291.5
489.0;400.0;;;;;;;;;;;;;;1.6924955;0.017578661;-0.49501023;;;;;291.5
489.0;400.0;;;;;;;;;;;;;;;;;24.838251;47.669914;30.560472;;291.5
489.0;400.0;;;;;;;;;;;;;;1.9233375;-0.26044497;-0.05963317;;;;;291.5
489.0;400.0;;;;;;;;;;;;;;;;;22.579882;39.61684;35.10773;;301.2
489.0;400.0;;;;;;;;;;;;;;1.8364208;-0.46687216;0.106753744;;;;;301.2
489.0;400.0;;;;;;;;;;;;;;;;;49.741352;-18.074587;3.1167028;;301.2
489.0;400.0;;;;;;;;;;;;;;1.700003;-0.37269205;-0.18567461;;;;;301.2
489.0;400.0;;;;;;;;;;;;;;;;;61.47191;-63.116096;-47.040466;;310.9
489.0;400.0;;;;;;;;;;;;;;1.7979064;0.07959227;-0.5546434;;;;;310.9
489.0;400.0;;;;;;;;;;;;;;;;;36.81677;-55.34913;-68.97565;;310.9
489.0;400.0;;;;;;;;;;;;;;1.5954466;0.41578418;-0.80251473;;;;;310.9
551.0;400.8;;;;;;;;;;;;;;;;;-13.508256;-12.48207;-77.723015;;320.6
551.0;400.8;;;;;;;;;;;;;;1.3323771;0.65022737;-0.70424515;;;;;320.6
551.0;400.8;;;;;;;;;;;;;;;;;-62.7575;13.264108;-77.894684;;320.6
551.0;400.8;;;;;;;;;;;;;;1.2108524;0.791406;-0.65883356;;;;;320.6
551.0;400.8;;;;;;;;;;;;;;;;;-65.748314;29.507584;-49.428543;;330.2
551.0;400.8;;;;;;;;;;;;;;1.2667012;0.7514878;-0.49995422;;;;;330.2
551.0;400.8;;;;;;;;;;;;;;;;;-47.475357;25.47151;-1.4801477;;330.2
551.0;400.8;;;;;;;;;;;;;;1.1946166;0.10693686;-0.37586597;;;;;330.2
551.0;400.8;;;;;;;;;;;;;;;;;-24.746696;11.051516;8.888515;;339.8
551.0;400.8;;;;;;;;;;;;;;1.0973846;-0.17694631;-0.3234962;;;;;339.8
551.0;400.8;;;;;;;;;;;;;;;;;1.2436292;-12.192145;18.704031;;339.8
551.0;400.8;;;;;;;;;;;;;;1.0182806;-0.34595782;-0.3736076;;;;;339.8
551.0;460.3;;;;;;;;;;;;;;;;;16.590626;-20.119328;35.00473;;349.4
551.0;460.3;;;;;;;;;;;;;;0.9059725;-0.46699423;-0.35932493;;;;;349.4
551.0;460.3;;;;;;;;;;;;;;;;;20.134586;-25.360882;49.30647;;349.4
551.0;460.3;;;;;;;;;;;;;;0.8055055;-0.55128634;-0.35236672;;;;;349.4
551.0;460.3;;;;;;;;;;;;;;;;;27.44377;-40.341652;60.41139;;359.1
551.0;460.3;;;;;;;;;;;;;;0.7209082;-0.65773493;-0.4242683;;;;;359.1
551.0;460.3;;;;;;;;;;;;;;;;;37.37373;-56.46306;54.97909;;359.1
551.0;460.3;;;;;;;;;;;;;;0.6362499;-0.72505873;-0.5024567;;;;;359.1
551.0;460.3;;;;;;;;;;;;;;;;;37.87347;-72.1572;29.374065;;368.4
551.0;460.3;;;;;;;;;;;;;;0.6174505;-0.6432691;-0.63899654;;;;;368.4
551.0;460.3;;;;;;;;;;;;;;;;;21.057772;-67.85027;3.7575915;;368.4
551.0;460.3;;;;;;;;;;;;;;0.7269509;-0.25495163;-0.7268288;;;;;368.4
610.0;461.1;;;;;;;;;;;;;;;;;1.453444;-50.7065;1.5297403;;378.1
610.0;461.1;;;;;;;;;;;;;;0.8168584;-0.10748619;-0.7498398;;;;;378.1
610.0;461.1;;;;;;;;;;;;;;;;;2.128666;-35.660877;-2.521592;;378.1
610.0;461.1;;;;;;;;;;;;;;0.91909546;-0.01904355;-0.63631094;;;;;378.1
610.0;461.1;;;;;;;;;;;;;;;;;6.0922575;-30.316324;-5.8519244;;387.8
610.0;461.1;;;;;;;;;;;;;;1.1325419;0.108401746;-0.5512253;;;;;387.8
610.0;461.1;;;;;;;;;;;;;;;;;5.226295;-30.80462;9.929959;;387.8
610.0;461.1;;;;;;;;;;;;;;1.2948393;0.14490189;-0.51814324;;;;;387.8
610.0;461.1;;;;;;;;;;;;;;;;;2.6741846;-28.393658;24.014252;;397.4
610.0;461.1;;;;;;;;;;;;;;1.3951231;0.09735405;-0.5139927;;;;;397.4
610.0;461.1;;;;;;;;;;;;;;;;;7.98822;-26.486252;29.812769;;397.4
610.0;461.1;;;;;;;;;;;;;;1.3928648;0.12018189;-0.40803248;;;;;397.4
610.0;520.7;;;;;;;;;;;;;;;;;4.3488874;-29.190954;29.427473;;407.0
610.0;520.7;;;;;;;;;;;;;;1.338847;0.16187018;-0.37006745;;;;;407.0
610.0;520.7;;;;;;;;;;;;;;;;;2.0561848;-29.049807;27.562029;;407.0
610.0;520.7;;;;;;;;;;;;;;1.2551042;0.19519639;-0.349559;;;;;407.0
610.0;520.7;;;;;;;;;;;;;;;;;4.6540728;-30.667286;30.571917;;416.7
610.0;520.7;;;;;;;;;;;;;;1.2156132;0.19672231;-0.33332315;;;;;416.7
610.0;520.7;;;;;;;;;;;;;;;;;3.521073;-29.114658;37.274544;;416.7
610.0;520.7;;;;;;;;;;;;;;1.2372814;0.08600116;-0.31611073;;;;;416.7
610.0;520.7;;;;;;;;;;;;;;;;;1.6823329;-23.65566;39.838097;;426.3
610.0;520.7;;;;;;;;;;;;;;1.2612079;-0.011963256;-0.29029205;;;;;426.3
610.0;520.7;;;;;;;;;;;;;;;;;0.37003693;-15.831476;37.972656;;426.3
610.0;520.7;;;;;;;;;;;;;;1.2538835;-0.028321177;-0.22797327;;;;;426.3
671.0;521.9;;;;;;;;;;;;;;;;;0.7896664;-12.623219;35.557877;;436.0
671.0;521.9;;;;;;;;;;;;;;1.2505875;-0.013122959;-0.18921477;;;;;436.0
671.0;521.9;;;;;;;;;;;;;;;;;2.2965178;-12.3867;34.11206;;436.0
671.0;521.9;;;;;;;;;;;;;;1.2167119;-0.019104587;-0.18488114;;;;;436.0
671.0;521.9;;;;;;;;;;;;;;;;;4.4099245;-11.15833;32.155064;;445.7
671.0;521.9;;;;;;;;;;;;;;1.144322;-0.0112308115;-0.19238868;;;;;445.7
671.0;521.9;;;;;;;;;;;;;;;;;5.7908874;-9.758293;31.064028;;445.7
671.0;521.9;;;;;;;;;;;;;;1.0702231;-0.021668142;-0.18695639;;;;;445.7
671.0;521.9;;;;;;;;;;;;;;;;;7.2786646;-10.12833;30.610065;;455.2
671.0;521.9;;;;;;;;;;;;;;1.0119327;-0.041322064;-0.17615284;;;;;455.2
671.0;521.9;;;;;;;;;;;;;;;;;10.288552;-10.517442;30.533768;;455.2
671.0;521.9;;;;;;;;;;;;;;0.9580371;-0.07470931;-0.15710929;;;;;455.2
671.0;535.6;;;;;;;;;;;;;;;;;15.55681;-10.608997;30.89236;;464.9
671.0;535.6;;;;;;;;;;;;;;0.89980775;-0.09985656;-0.119876705;;;;;464.9
671.0;535.6;;;;;;;;;;;;;;;;;22.511215;-14.229255;31.167028;;464.9
671.0;535.6;;;;;;;;;;;;;;0.8417615;-0.12329478;-0.10480056;;;;;464.9
671.0;535.6;;;;;;;;;;;;;;;;;32.826473;-21.09592;32.486954;;474.5
671.0;535.6;;;;;;;;;;;;;;0.7985473;-0.14374217;-0.111514635;;;;;474.5
671.0;535.6;;;;;;;;;;;;;;;;;43.92758;-28.534807;32.666252;;474.5
671.0;535.6;;;;;;;;;;;;;;0.75142676;-0.15033418;-0.1281167;;;;;474.5
671.0;535.6;;;;;;;;;;;;;;;;;54.87991;-36.43147;30.78936;;484.1
671.0;535.6;;;;;;;;;;;;;;0.7202979;-0.12225715;-0.151677;;;;;484.1
671.0;535.6;;;;;;;;;;;;;;;;;64.359726;-43.698692;28.66451;;484.1
671.0;535.6;;;;;;;;;;;;;;0.69734794;-0.08899198;-0.1726127;;;;;484.1
730.0;580.9;;;;;;;;;;;;;;;;;71.192055;-49.87106;25.452436;;493.8
730.0;580.9;;;;;;;;;;;;;;0.69466233;-0.038575396;-0.20459609;;;;;493.8
730.0;580.9;;;;;;;;;;;;;;;;;75.27009;-53.266243;22.236547;;493.8
730.0;580.9;;;;;;;;;;;;;;0.6963714;0.005859554;-0.2405469;;;;;493.8
730.0;580.9;;;;;;;;;;;;;;;;;78.46308;-55.021057;17.242958;;503.4
730.0;580.9;;;;;;;;;;;;;;0.7029023;0.05963317;-0.27069917;;;;;503.4
730.0;580.9;;;;;;;;;;;;;;;;;79.008606;-54.21232;10.639516;;503.4
730.0;580.9;;;;;;;;;;;;;;0.708945;0.11011078;-0.30182806;;;;;503.4
730.0;580.9;;;;;;;;;;;;;;;;;78.05109;-51.4008;5.1538134;;513.1
730.0;580.9;;;;;;;;;;;;;;0.7087619;0.15753655;-0.32618183;;;;;513.1
730.0;580.9;;;;;;;;;;;;;;;;;77.13554;-48.703728;-0.41199988;;513.1
730.0;580.9;;;;;;;;;;;;;;0.7041841;0.1744438;-0.34479812;;;;;513.1
730.0;596.0;;;;;;;;;;;;;;;;;75.48372;-44.644764;-9.502701;;522.7
730.0;596.0;;;;;;;;;;;;;;0.7223731;0.24439223;-0.342967;;;;;522.7
730.0;596.0;;;;;;;;;;;;;;;;;66.21372;-39.559616;-15.4194765;;522.7
730.0;596.0;;;;;;;;;;;;;;0.73158973;0.3096408;-0.35456404;;;;;522.7
730.0;596.0;;;;;;;;;;;;;;;;;57.126835;-33.82214;-18.024994;;532.4
730.0;596.0;;;;;;;;;;;;;;0.7358623;0.35499132;-0.3653676;;;;;532.4
730.0;596.0;;;;;;;;;;;;;;;;;51.305428;-24.536882;-21.08066;;532.4
730.0;596.0;;;;;;;;;;;;;;0.7480697;0.3932005;-0.35999635;;;;;532.4
730.0;596.0;;;;;;;;;;;;;;;;;48.818172;-13.431959;-20.744957;;541.9
730.0;596.0;;;;;;;;;;;;;;0.755089;0.44209114;-0.2927946;;;;;541.9
730.0;596.0;;;;;;;;;;;;;;;;;38.91873;-4.5930357;-18.795588;;541.9
730.0;596.0;;;;;;;;;;;;;;0.76741844;0.47193822;-0.2417066;;;;;541.9
788.0;641.6;;;;;;;;;;;;;;;;;28.416548;-0.50737023;-14.450515;;551.6
788.0;641.6;;;;;;;;;;;;;;0.7725456;0.49482712;-0.21362957;;;;;551.6
788.0;641.6;;;;;;;;;;;;;;;;;22.343363;2.193518;-8.136998;;551.6
788.0;641.6;;;;;;;;;;;;;;0.801355;0.52626115;-0.21271402;;;;;551.6
788.0;641.6;;;;;;;;;;;;;;;;;20.69155;7.930998;1.3771478;;561.2
788.0;641.6;;;;;;;;;;;;;;0.8094729;0.52589494;-0.18378246;;;;;561.2
788.0;641.6;;;;;;;;;;;;;;;;;18.650625;12.169256;9.537035;;561.2
788.0;641.6;;;;;;;;;;;;;;0.79464096;0.45448163;-0.14886929;;;;;561.2
788.0;641.6;;;;;;;;;;;;;;;;;17.036957;12.874996;9.811701;;570.8
788.0;641.6;;;;;;;;;;;;;;0.79067355;0.4060793;-0.12543108;;;;;570.8
788.0;641.6;;;;;;;;;;;;;;;;;13.161107;13.584552;5.6840725;;570.8
788.0;641.6;;;;;;;;;;;;;;0.7833491;0.4212775;-0.12408826;;;;;570.8
788.0;656.2;;;;;;;;;;;;;;;;;8.50322;15.934477;4.20774;;580.4
788.0;656.2;;;;;;;;;;;;;;0.7718741;0.42072818;-0.11780145;;;;;580.4
788.0;656.2;;;;;;;;;;;;;;;;;3.7194436;20.466475;4.0627766;;580.4
788.0;656.2;;;;;;;;;;;;;;0.78615683;0.40388197;-0.09466842;;;;;580.4
788.0;656.2;;;;;;;;;;;;;;;;;-1.6670736;26.963104;2.76574;;590.1
788.0;656.2;;;;;;;;;;;;;;0.7840815;0.3927732;-0.04870754;;;;;590.1
788.0;656.2;;;;;;;;;;;;;;;;;-5.4704432;29.057436;0.12207404;;590.1
788.0;656.2;;;;;;;;;;;;;;0.77370524;0.39582506;-0.011597034;;;;;590.1
788.0;656.2;;;;;;;;;;;;;;;;;-4.276406;21.629993;-1.5907773;;599.8
788.0;656.2;;;;;;;;;;;;;;0.76326793;0.38282418;-0.027100436;;;;;599.8
788.0;656.2;;;;;;;;;;;;;;;;;0.43107393;10.906552;-2.8763695;;599.8
788.0;656.2;;;;;;;;;;;;;;0.7529527;0.3490707;-0.1060213;;;;;599.8
851.0;701.5;;;;;;;;;;;;;;;;;4.6197395;5.94348;-4.615925;;609.4
851.0;701.5;;;;;;;;;;;;;;0.76149786;0.319834;-0.18506424;;;;;609.4
851.0;701.5;;;;;;;;;;;;;;;;;6.572924;9.102145;-5.2110357;;609.4
851.0;701.5;;;;;;;;;;;;;;0.74471265;0.27118748;-0.18506424;;;;;609.4
851.0;701.5;;;;;;;;;;;;;;;;;5.996887;13.5883665;-5.2148504;;618.9
851.0;701.5;;;;;;;;;;;;;;0.7176122;0.21710868;-0.15478988;;;;;618.9
851.0;701.5;;;;;;;;;;;;;;;;;7.209998;15.743736;-3.9902954;;618.9
851.0;701.5;;;;;;;;;;;;;;0.6795862;0.1652272;-0.12933744;;;;;618.9
851.0;701.5;;;;;;;;;;;;;;;;;10.86459;15.358439;-3.1128879;;628.5
851.0;701.5;;;;;;;;;;;;;;0.6560869;0.13397625;-0.119754635;;;;;628.5
851.0;701.5;;;;;;;;;;;;;;;;;14.233069;20.226141;-1.8883327;;628.5
851.0;701.5;;;;;;;;;;;;;;0.6356395;0.10791345;-0.10956145;;;;;628.5
851.0;709.0;;;;;;;;;;;;;;;;;15.709402;32.139805;-2.0409255;;638.2
851.0;709.0;;;;;;;;;;;;;;0.614948;0.0921659;-0.072878204;;;;;638.2
851.0;709.0;;;;;;;;;;;;;;;;;joulu.27;50.092316;-4.7418137;;638.2
851.0;709.0;;;;;;;;;;;;;;0.5888241;0.07190161;-0.009094516;;;;;638.2
851.0;709.0;;;;;;;;;;;;;;;;;8.59859;63.367874;-7.9500723;;647.9
851.0;709.0;;;;;;;;;;;;;;0.5198523;0.052797023;0.056459244;;;;;647.9
851.0;709.0;;;;;;;;;;;;;;;;;10.670034;63.59294;-11.394848;;647.9
851.0;709.0;;;;;;;;;;;;;;0.44166386;0.043092135;0.09613331;;;;;647.9
851.0;709.0;;;;;;;;;;;;;;;;;19.093143;52.312542;-15.503403;;657.6
851.0;709.0;;;;;;;;;;;;;;0.3744621;0.03540147;0.10943937;;;;;657.6
851.0;709.0;;;;;;;;;;;;;;;;;31.12888;32.92566;-21.778772;;657.6
851.0;709.0;;;;;;;;;;;;;;0.36542863;0.059694204;0.05755791;;;;;657.6
914.0;761.7;;;;;;;;;;;;;;;;;43.073063;20.233772;-27.909176;;667.2
914.0;761.7;;;;;;;;;;;;;;0.380871;0.09588916;0.0043336283;;;;;667.2
914.0;761.7;;;;;;;;;;;;;;;;;55.036316;8.362072;-30.762657;;667.2
914.0;761.7;;;;;;;;;;;;;;0.3863033;0.115970336;-0.03155614;;;;;667.2
914.0;761.7;;;;;;;;;;;;;;;;;68.506424;-12.203589;-30.880917;;676.7
914.0;761.7;;;;;;;;;;;;;;0.42243722;0.12372204;-0.096499525;;;;;676.7
914.0;761.7;;;;;;;;;;;;;;;;;84.15479;-32.05588;-29.538103;;676.7
914.0;761.7;;;;;;;;;;;;;;0.47322002;0.11548204;-0.23621327;;;;;676.7
914.0;761.7;;;;;;;;;;;;;;;;;104.32371;-41.104618;-29.889067;;686.4
914.0;761.7;;;;;;;;;;;;;;0.5459151;0.1246376;-0.4210944;;;;;686.4
914.0;761.7;;;;;;;;;;;;;;;;;116.737114;-37.453842;-30.095064;;686.4
914.0;761.7;;;;;;;;;;;;;;0.6159856;0.16742454;-0.55024874;;;;;686.4
914.0;769.6;;;;;;;;;;;;;;;;;101.744896;-21.042513;-27.199623;;696.1
914.0;769.6;;;;;;;;;;;;;;0.6657918;0.1666921;-0.6194647;;;;;696.1
914.0;769.6;;;;;;;;;;;;;;;;;60.995056;10.914183;-23.953215;;696.1
914.0;769.6;;;;;;;;;;;;;;0.69734794;0.14679404;-0.6128117;;;;;696.1
914.0;769.6;;;;;;;;;;;;;;;;;15.686514;47.330395;-24.96414;;705.7
914.0;769.6;;;;;;;;;;;;;;0.73738825;0.17120884;-0.5415204;;;;;705.7
914.0;769.6;;;;;;;;;;;;;;;;;-14.374218;76.05976;-29.91577;;705.7
914.0;769.6;;;;;;;;;;;;;;0.81771296;0.23212378;-0.42878506;;;;;705.7
914.0;769.6;;;;;;;;;;;;;;;;;-29.648733;94.66079;-33.43303;;715.4
914.0;769.6;;;;;;;;;;;;;;0.9564501;0.3023774;-0.31580552;;;;;715.4
914.0;769.6;;;;;;;;;;;;;;;;;-32.88751;100.0473;-37.709435;;715.4
914.0;769.6;;;;;;;;;;;;;;1.1272317;0.35932493;-0.23621327;;;;;715.4
969.0;822.1;;;;;;;;;;;;;;;;;-14.198736;89.3086;-43.149357;;725.1
969.0;822.1;;;;;;;;;;;;;;1.1566515;0.42793053;-0.13605152;;;;;725.1
969.0;822.1;;;;;;;;;;;;;;;;;16.735588;69.54024;-42.355877;;725.1
969.0;822.1;;;;;;;;;;;;;;0.9936827;0.51045257;-0.04242073;;;;;725.1
969.0;822.1;;;;;;;;;;;;;;;;;33.032475;51.67165;-29.18714;;734.7
969.0;822.1;;;;;;;;;;;;;;0.7813959;0.45777765;-0.0050050355;;;;;734.7
969.0;822.1;;;;;;;;;;;;;;;;;40.303505;24.662771;-19.276255;;734.7
969.0;822.1;;;;;;;;;;;;;;0.7473373;0.38953826;-0.13293862;;;;;734.7
969.0;822.1;;;;;;;;;;;;;;;;;49.93591;1.0109257;-16.20533;;744.4
969.0;822.1;;;;;;;;;;;;;;0.7763298;0.36426893;-0.3154393;;;;;744.4
969.0;822.1;;;;;;;;;;;;;;;;;50.119022;-6.7751093;-14.618366;;744.4
969.0;822.1;;;;;;;;;;;;;;0.7676626;0.35737175;-0.44770652;;;;;744.4
969.0;829.5;;;;;;;;;;;;;;;;;31.022064;12.8711815;-13.435774;;754.0
969.0;829.5;;;;;;;;;;;;;;0.71053195;0.36011842;-0.46107364;;;;;754.0
969.0;829.5;;;;;;;;;;;;;;;;;4.8829613;44.7058;-11.036257;;754.0
969.0;829.5;;;;;;;;;;;;;;0.66042054;0.38904995;-0.31666005;;;;;754.0
969.0;829.5;;;;;;;;;;;;;;;;;-5.9930725;55.780205;-4.5777764;;763.7
969.0;829.5;;;;;;;;;;;;;;0.6638386;0.3714713;-0.16943876;;;;;763.7
969.0;829.5;;;;;;;;;;;;;;;;;-1.0910367;45.51454;-0.38148138;;763.7
969.0;829.5;;;;;;;;;;;;;;0.656209;0.32770777;-0.12573627;;;;;763.7
969.0;829.5;;;;;;;;;;;;;;;;;9.342479;27.565844;-1.2054812;;773.3
969.0;829.5;;;;;;;;;;;;;;0.6679281;0.36976227;-0.20752586;;;;;773.3
969.0;829.5;;;;;;;;;;;;;;;;;10.734886;20.935698;-2.0256662;;773.3
969.0;829.5;;;;;;;;;;;;;;0.69179356;0.42793053;-0.29175696;;;;;773.3
1030.0;882.3;;;;;;;;;;;;;;;;;6.2448497;23.792994;-3.4180732;;782.9
1030.0;882.3;;;;;;;;;;;;;;0.70509964;0.46522415;-0.30317086;;;;;782.9
1030.0;882.3;;;;;;;;;;;;;;;;;-0.08011109;30.106508;-7.805109;;782.9
1030.0;882.3;;;;;;;;;;;;;;0.71663564;0.49024934;-0.25775933;;;;;782.9
1030.0;882.3;;;;;;;;;;;;;;;;;-8.388776;40.677357;-13.912625;;792.4
1030.0;882.3;;;;;;;;;;;;;;0.77101964;0.5328532;-0.19544053;;;;;792.4
1030.0;882.3;;;;;;;;;;;;;;;;;-24.578846;68.620865;-19.089329;;792.4
1030.0;882.3;;;;;;;;;;;;;;0.88399917;0.56135744;-0.11365093;;;;;792.4
1030.0;882.3;;;;;;;;;;;;;;;;;-44.541763;112.79641;-27.787102;;802.0
1030.0;882.3;;;;;;;;;;;;;;1.0435499;0.5020905;5.4933317E-4;;;;;802.0
1030.0;882.3;;;;;;;;;;;;;;;;;-42.241432;124.97711;-37.739952;;802.0
1030.0;882.3;;;;;;;;;;;;;;1.1928464;0.46253854;0.17474899;;;;;802.0
1030.0;890.2;;;;;;;;;;;;;;;;;-19.791252;124.988556;-45.499283;;811.7
1030.0;890.2;;;;;;;;;;;;;;1.240089;0.4126713;0.39881587;;;;;811.7
1030.0;890.2;;;;;;;;;;;;;;;;;4.0856657;124.481186;-55.806908;;811.7
1030.0;890.2;;;;;;;;;;;;;;1.2869655;0.37104404;0.51435894;;;;;811.7
1030.0;890.2;;;;;;;;;;;;;;;;;25.299845;103.045746;-69.8912;;821.3
1030.0;890.2;;;;;;;;;;;;;;1.4069033;0.31690422;0.46571246;;;;;821.3
1030.0;890.2;;;;;;;;;;;;;;;;;44.938503;64.59243;-88.75164;;821.3
1030.0;890.2;;;;;;;;;;;;;;1.5771966;0.32898954;0.2700278;;;;;821.3
1030.0;890.2;;;;;;;;;;;;;;;;;58.328503;52.941986;-110.70207;;831.0
1030.0;890.2;;;;;;;;;;;;;;1.7519455;0.3714713;0.09820856;;;;;831.0
1030.0;890.2;;;;;;;;;;;;;;;;;61.368908;64.588615;-123.874626;;831.0
1030.0;890.2;;;;;;;;;;;;;;1.7040925;0.43372905;-0.034730066;;;;;831.0
1089.0;943.1;;;;;;;;;;;;;;;;;46.67806;100.42878;-124.988556;;840.5
1089.0;943.1;;;;;;;;;;;;;;1.7953429;0.514481;-0.11572619;;;;;840.5
1089.0;943.1;;;;;;;;;;;;;;;;;22.991882;124.67574;-124.988556;;840.5
1089.0;943.1;;;;;;;;;;;;;;1.9739372;0.504593;-0.010742515;;;;;840.5
1089.0;943.1;;;;;;;;;;;;;;;;;17.391735;124.988556;-124.988556;;850.0
1089.0;943.1;;;;;;;;;;;;;;1.9970702;0.35688344;0.1744438;;;;;850.0
1089.0;943.1;;;;;;;;;;;;;;;;;32.891323;124.988556;-124.988556;;850.0
1089.0;943.1;;;;;;;;;;;;;;1.9970702;0.11084323;0.49940488;;;;;850.0
1089.0;943.1;;;;;;;;;;;;;;;;;57.9165;122.98959;-124.988556;;859.6
1089.0;943.1;;;;;;;;;;;;;;1.9425641;-0.12305063;0.6237373;;;;;859.6
1089.0;943.1;;;;;;;;;;;;;;;;;87.54998;75.987274;-124.988556;;859.6
1089.0;943.1;;;;;;;;;;;;;;1.8182317;-0.24262215;0.22772911;;;;;859.6
1089.0;943.9;;;;;;;;;;;;;;;;;119.38078;5.1461835;-124.988556;;869.2
1089.0;943.9;;;;;;;;;;;;;;1.8653524;-0.17011017;-0.21131016;;;;;869.2
1089.0;943.9;;;;;;;;;;;;;;;;;124.988556;-23.426771;-124.9733;;869.2
1089.0;943.9;;;;;;;;;;;;;;1.8712119;-0.24146245;-0.53926206;;;;;869.2
1089.0;943.9;;;;;;;;;;;;;;;;;124.988556;-13.985106;-114.55122;;878.8
1089.0;943.9;;;;;;;;;;;;;;1.7915586;-0.3745842;-0.67555773;;;;;878.8
1089.0;943.9;;;;;;;;;;;;;;;;;124.988556;30.987732;-86.809906;;878.8
1089.0;943.9;;;;;;;;;;;;;;1.6000245;-0.5449385;-0.6535234;;;;;878.8
1089.0;943.9;;;;;;;;;;;;;;;;;120.42603;90.76968;-73.43135;;888.5
1089.0;943.9;;;;;;;;;;;;;;1.3732109;-0.6659139;-0.5006256;;;;;888.5
1089.0;943.9;;;;;;;;;;;;;;;;;104.461044;122.74163;-79.947044;;888.5
1089.0;943.9;;;;;;;;;;;;;;1.212012;-0.7788934;-0.36347544;;;;;888.5
1152.0;1003.4;;;;;;;;;;;;;;;;;104.82345;124.988556;-99.19278;;898.0
1152.0;1003.4;;;;;;;;;;;;;;1.1260109;-0.8770409;-0.19037446;;;;;898.0
1152.0;1003.4;;;;;;;;;;;;;;;;;99.074524;124.988556;-123.12311;;898.0
1152.0;1003.4;;;;;;;;;;;;;;1.2273934;-0.57765436;0.022400586;;;;;898.0
1152.0;1003.4;;;;;;;;;;;;;;;;;90.15549;122.60048;-124.988556;;907.5
1152.0;1003.4;;;;;;;;;;;;;;1.3063753;-0.062135685;0.15369122;;;;;907.5
1152.0;1003.4;;;;;;;;;;;;;;;;;62.952057;92.34138;-124.988556;;907.5
1152.0;1003.4;;;;;;;;;;;;;;1.3320719;0.2999359;0.05304117;;;;;907.5
1152.0;1003.4;;;;;;;;;;;;;;;;;49.542984;56.058685;-124.988556;;917.1
1152.0;1003.4;;;;;;;;;;;;;;1.4582964;0.6882534;-0.19013031;;;;;917.1
1152.0;1003.4;;;;;;;;;;;;;;;;;47.196877;51.065094;-124.988556;;917.1
1152.0;1003.4;;;;;;;;;;;;;;1.5218971;1.1065401;-0.36878568;;;;;917.1
1152.0;1004.2;;;;;;;;;;;;;;;;;37.766655;62.47902;-124.988556;;926.7
1152.0;1004.2;;;;;;;;;;;;;;1.5478988;1.2850124;-0.50538653;;;;;926.7
1152.0;1004.2;;;;;;;;;;;;;;;;;35.336617;81.194496;-124.618515;;926.7
1152.0;1004.2;;;;;;;;;;;;;;1.5034028;1.0989105;-0.51222265;;;;;926.7
1152.0;1004.2;;;;;;;;;;;;;;;;;34.661396;100.01297;-117.19871;;936.4
1152.0;1004.2;;;;;;;;;;;;;;1.5034028;0.69850767;-0.21900083;;;;;936.4
1152.0;1004.2;;;;;;;;;;;;;;;;;23.907438;88.484604;-113.66238;;936.4
1152.0;1004.2;;;;;;;;;;;;;;1.5804316;0.5409711;0.014099551;;;;;936.4
1152.0;1004.2;;;;;;;;;;;;;;;;;13.580737;61.53676;-114.39101;;946.1
1152.0;1004.2;;;;;;;;;;;;;;1.548204;0.47553942;-0.018677328;;;;;946.1
1152.0;1004.2;;;;;;;;;;;;;;;;;4.81048;45.560318;-108.35216;;946.1
1152.0;1004.2;;;;;;;;;;;;;;1.4338206;0.35608998;-0.08819849;;;;;946.1
1227.0;1063.7;;;;;;;;;;;;;;;;;-9.842219;44.41206;-103.36619;;955.7
1227.0;1063.7;;;;;;;;;;;;;;1.3252968;0.27246925;-0.0738548;;;;;955.7
1227.0;1063.7;;;;;;;;;;;;;;;;;-24.16303;44.724873;-97.86142;;955.7
1227.0;1063.7;;;;;;;;;;;;;;1.2127445;0.15778069;-0.024842067;;;;;955.7
1227.0;1063.7;;;;;;;;;;;;;;;;;-31.46077;41.688286;-92.55119;;965.3
1227.0;1063.7;;;;;;;;;;;;;;1.0951262;0.092043824;0.021546068;;;;;965.3
1227.0;1063.7;;;;;;;;;;;;;;;;;-36.053802;36.008026;-88.57616;;965.3
1227.0;1063.7;;;;;;;;;;;;;;0.9983215;0.06732383;0.03009125;;;;;965.3
1227.0;1063.7;;;;;;;;;;;;;;;;;-38.071842;30.941954;-84.246346;;974.9
1227.0;1063.7;;;;;;;;;;;;;;0.9006012;0.06140324;0.028687399;;;;;974.9
1227.0;1063.7;;;;;;;;;;;;;;;;;-39.494766;26.902067;-78.75683;;974.9
1227.0;1063.7;;;;;;;;;;;;;;0.7972045;0.060121465;0.034058657;;;;;974.9
1227.0;1064.5;;;;;;;;;;;;;;;;;-40.364544;21.656698;-72.6722;;984.6
1227.0;1064.5;;;;;;;;;;;;;;0.7068087;0.050904874;0.019898068;;;;;984.6
1227.0;1064.5;;;;;;;;;;;;;;;;;-39.803764;16.785181;-66.64098;;984.6
1227.0;1064.5;;;;;;;;;;;;;;0.61214024;0.021973327;-0.0051271096;;;;;984.6
1227.0;1064.5;;;;;;;;;;;;;;;;;-37.86584;14.191107;-60.304573;;994.3
1227.0;1064.5;;;;;;;;;;;;;;0.5287027;0.0041505173;-0.0015869625;;;;;994.3
1227.0;1064.5;;;;;;;;;;;;;;;;;-34.646137;11.120181;-53.45317;;994.3
1227.0;1064.5;;;;;;;;;;;;;;0.46821496;-0.011719108;0.0145268105;;;;;994.3
1227.0;1064.5;;;;;;;;;;;;;;;;;-30.755028;8.724479;-46.914577;;1004.0
1227.0;1064.5;;;;;;;;;;;;;;0.43415633;-0.014831996;0.043153174;;;;;1004.0
1227.0;1064.5;;;;;;;;;;;;;;;;;-25.227362;4.482406;-39.353615;;1004.0
1227.0;1064.5;;;;;;;;;;;;;;0.41645557;-0.021057772;0.059694204;;;;;1004.0
1231.0;1123.5;;;;;;;;;;;;;;;;;-18.7727;0.068666644;-32.414474;;1013.5
1231.0;1123.5;;;;;;;;;;;;;;0.40571305;-0.015686514;0.04870754;;;;;1013.5
1231.0;1123.5;;;;;;;;;;;;;;;;;-14.015625;-2.7085178;-25.47914;;1013.5
1231.0;1123.5;;;;;;;;;;;;;;0.37720877;-0.0113528855;0.05053865;;;;;1013.5
1231.0;1123.5;;;;;;;;;;;;;;;;;-11.45207;-4.9439983;-18.959625;;1023.1
1231.0;1123.5;;;;;;;;;;;;;;0.35309917;0.01574755;0.07794427;;;;;1023.1
1231.0;1123.5;;;;;;;;;;;;;;;;;-9.514146;-8.518478;-11.730552;;1023.1
1231.0;1123.5;;;;;;;;;;;;;;0.34913176;0.043336283;0.072634056;;;;;1023.1
1231.0;1123.5;;;;;;;;;;;;;;;;;-8.3925905;-10.258034;-4.772332;;1032.8
1231.0;1123.5;;;;;;;;;;;;;;0.34479812;0.071108125;0.05719169;;;;;1032.8
1231.0;1123.5;;;;;;;;;;;;;;;;;-8.033998;-10.601367;2.845851;;1032.8
1231.0;1123.5;;;;;;;;;;;;;;0.32221442;0.0966216;0.070986055;;;;;1032.8
1232.0;1124.3;;;;;;;;;;;;;;;;;-8.056887;-13.145848;10.872219;;1042.5
1232.0;1124.3;;;;;;;;;;;;;;0.29389325;0.09698782;0.07306131;;;;;1042.5
1232.0;1124.3;;;;;;;;;;;;;;;;;-7.0345163;-15.484328;19.47081;;1042.5
1232.0;1124.3;;;;;;;;;;;;;;0.26386303;0.08197272;0.07550279;;;;;1042.5
1232.0;1124.3;;;;;;;;;;;;;;;;;-3.4943693;-16.972105;28.233437;;1052.1
1232.0;1124.3;;;;;;;;;;;;;;0.23187964;0.054628134;0.10089419;;;;;1052.1
1232.0;1124.3;;;;;;;;;;;;;;;;;1.5907773;-16.754663;34.84069;;1052.1
1232.0;1124.3;;;;;;;;;;;;;;0.21448408;0.068544574;0.13611256;;;;;1052.1
1232.0;1124.3;;;;;;;;;;;;;;;;;7.6029234;-15.182959;39.761803;;1061.7
1232.0;1124.3;;;;;;;;;;;;;;0.25476852;0.12805566;0.19550157;;;;;1061.7
1232.0;1124.3;;;;;;;;;;;;;;;;;11.852626;-14.023255;42.67251;;1061.7
1232.0;1124.3;;;;;;;;;;;;;;0.33954895;0.25763726;0.2593463;;;;;1061.7
1232.0;1127.3;;;;0.0;0.0;0.0;;;;;;;;;;;;;;;
1232.0;1127.3;;;;-0.1489258;0.022083284;-0.015296938;;;;;;;;;;;;;;;
1232.0;1127.3;;;;-0.701809;-0.012908937;-0.19057086;;;;;;;;;;;;;;;
1232.0;1127.3;;;;-0.77328503;-0.02256775;-0.22236255;;;;;;;;;;;;;;;
1232.0;1127.3;;;;-0.7714654;-0.020977022;-0.21913913;;;;;;;;;;;;;;;
1232.0;1137.4;;;;-0.768818;-0.018573763;-0.21519855;;;;;;;;;;;;;;;
1232.0;1137.4;;;;-0.76633465;-0.017120363;-0.2119942;;;;;;;;;;;;;;;
1232.0;1137.4;;;;-0.762066;-0.014686586;-0.20783237;;;;;;;;;;;;;;;
1232.0;1137.4;;;;-0.75766003;-0.012783052;-0.20339969;;;;;;;;;;;;;;;
1232.0;1137.4;;;;-0.7524072;-0.011844637;-0.1994057;;;;;;;;;;;;;;;
1269.0;1138.5;57449;57472;11556;;;;;;;;;;;;;;;;;;
1269.0;1147.3;;;;-0.7462235;-0.010845185;-0.19448474;;;;;;;;;;;;;;;
1269.0;1147.3;;;;-0.7399941;-0.009811402;-0.18873599;;;;;;;;;;;;;;;
1269.0;1147.3;;;;-0.7333184;-0.009296418;-0.18275453;;;;;;;;;;;;;;;
1269.0;1147.3;;;;-0.72396094;-0.009391786;-0.17713167;;;;;;;;;;;;;;;
1269.0;1147.3;;;;-0.7209893;-0.010673524;-0.17586519;;;;;;;;;;;;;;;
1269.0;1157.2;;;;-0.71809393;-0.012348177;-0.16861345;;;;;;;;;;;;;;;
1269.0;1157.2;;;;-0.71234137;-0.0138778705;-0.16267015;;;;;;;;;;;;;;;
1269.0;1157.2;;;;-0.7068406;-0.016269686;-0.16071321;;;;;;;;;;;;;;;
1269.0;1157.2;;;;-0.7026749;-0.01923752;-0.15796281;;;;;;;;;;;;;;;
1269.0;1157.2;;;;-0.6980782;-0.022800447;-0.15497209;;;;;;;;;;;;;;;
1269.0;1158.5;73844;73890;11574;;;;;;;;;;;;;;;;;;
1269.0;1164.8;;;;;;;;;;;;;0;;;;;;;;
1269.0;1164.8;;;;;;;;;;;;;0;;;;;;;;
1269.0;1164.8;;;;;;;;;;;;;-1;;;;;;;;
1269.0;1164.8;;;;;;;;;;;;;-3;;;;;;;;
1269.0;1164.8;;;;;;;;;;;;;-4;;;;;;;;
1269.0;1167.3;;;;-0.69406897;-0.026237492;-0.15273286;;;;;;;;;;;;;;;
1269.0;1167.3;;;;-0.6919251;-0.02933884;-0.15112688;;;;;;;;;;;;;;;
1269.0;1167.3;;;;-0.6903916;-0.03205872;-0.15013887;;;;;;;;;;;;;;;
1269.0;1167.3;;;;-0.68908316;-0.035125736;-0.15005495;;;;;;;;;;;;;;;
1269.0;1167.3;;;;-0.6889191;-0.038009647;-0.14941789;;;;;;;;;;;;;;;
1271.0;1177.4;;;;-0.68999106;-0.040523533;-0.14842607;;;;;;;;;;;;;;;
1271.0;1177.4;;;;-0.6918755;-0.042831425;-0.14761354;;;;;;;;;;;;;;;
1271.0;1177.4;;;;-0.69494635;-0.044357304;-0.14713289;;;;;;;;;;;;;;;
1271.0;1177.4;;;;-0.699936;-0.04573441;-0.14606859;;;;;;;;;;;;;;;
1271.0;1177.4;;;;-0.7057343;-0.04603577;-0.14354326;;;;;;;;;;;;;;;
1271.0;1178.7;90269;90274;11572;;;;;;;;;;;;;;;;;;
1271.0;1184.0;;;;;;;;;;;;;;;;;13.103885;-12.356182;44.34339;;1071.4
1271.0;1184.0;;;;;;;;;;;;;;0.39576402;0.3780633;0.31043428;;;;;1071.4
1271.0;1184.0;;;;;;;;;;;;;;;;;11.772515;-11.852626;47.20069;;1071.4
1271.0;1184.0;;;;;;;;;;;;;;0.4052858;0.4245735;0.3554796;;;;;1071.4
1271.0;1184.0;;;;;;;;;;;;;;;;;10.082552;-18.410292;52.484207;;1080.9
1271.0;1184.0;;;;;;;;;;;;;;0.43653676;0.377575;0.32453382;;;;;1080.9
1271.0;1184.0;;;;;;;;;;;;;;;;;8.232368;-24.0524;58.896908;;1080.9
1271.0;1184.0;;;;;;;;;;;;;;0.52705467;0.37104404;0.23389386;;;;;1080.9
1271.0;1184.0;;;;;;;;;;;;;;;;;1.0910367;-17.330698;67.75872;;1090.6
1271.0;1184.0;;;;;;;;;;;;;;0.58375806;0.3162328;0.20020142;;;;;1090.6
1271.0;1184.0;;;;;;;;;;;;;;;;;-5.3140354;-7.038331;75.9415;;1090.6
1271.0;1184.0;;;;;;;;;;;;;;0.524369;0.22656941;0.23157445;;;;;1090.6
1274.0;1184.9;;;;;;;;;;;;;;;;;-3.4943693;-13.653218;83.2049;;1100.2
1274.0;1184.9;;;;;;;;;;;;;;0.41328165;0.14307077;0.19153416;;;;;1100.2
1274.0;1184.9;;;;;;;;;;;;;;;;;7.0307016;-36.568806;94.492935;;1100.2
1274.0;1184.9;;;;;;;;;;;;;;0.3579211;-0.08026368;0.052125614;;;;;1100.2
1274.0;1184.9;;;;;;;;;;;;;;;;;25.254066;-52.9458;105.44908;;1109.8
1274.0;1184.9;;;;;;;;;;;;;;0.37488937;-0.21625416;0.008911405;;;;;1109.8
1274.0;1184.9;;;;;;;;;;;;;;;;;44.598984;-58.79391;113.81115;;1109.8
1274.0;1184.9;;;;;;;;;;;;;;0.42530596;-0.25476852;0.10388501;;;;;1109.8
1274.0;1184.9;;;;;;;;;;;;;;;;;58.118687;-59.465317;119.75082;;1119.5
1274.0;1184.9;;;;;;;;;;;;;;0.47499007;-0.27594838;0.20038453;;;;;1119.5
1274.0;1184.9;;;;;;;;;;;;;;;;;66.65243;-57.06198;122.71874;;1119.5
1274.0;1184.9;;;;;;;;;;;;;;0.49525437;-0.2576983;0.23841059;;;;;1119.5
1274.0;1187.3;;;;-0.7125054;-0.045379642;-0.14077379;;;;;;;;;;;;;;;
1274.0;1187.3;;;;-0.71904;-0.04397965;-0.13842012;;;;;;;;;;;;;;;
1274.0;1187.3;;;;-0.7255898;-0.04203034;-0.13578035;;;;;;;;;;;;;;;
1274.0;1187.3;;;;-0.7310944;-0.03946686;-0.13305284;;;;;;;;;;;;;;;
1274.0;1187.3;;;;-0.7353783;-0.03574753;-0.1311989;;;;;;;;;;;;;;;
1274.0;1197.3;;;;-0.73901755;-0.031772617;-0.12976457;;;;;;;;;;;;;;;
1274.0;1197.3;;;;-0.7419663;-0.027851108;-0.12829973;;;;;;;;;;;;;;;
1274.0;1197.3;;;;-0.7448197;-0.023269655;-0.12832262;;;;;;;;;;;;;;;
1274.0;1197.3;;;;-0.74846655;-0.018692018;-0.13045503;;;;;;;;;;;;;;;
1274.0;1197.3;;;;-0.752308;-0.014587404;-0.13361742;;;;;;;;;;;;;;;
1274.0;1198.5;106672;106637;11575;;;;;;;;;;;;;;;;;;
1326.0;1204.9;;;;;;;;;;;;;1;;;;;;;;
1326.0;1204.9;;;;;;;;;;;;;-23;;;;;;;;
1326.0;1204.9;;;;;;;;;;;;;-18;;;;;;;;
1326.0;1204.9;;;;;;;;;;;;;41;;;;;;;;
1326.0;1204.9;;;;;;;;;;;;;-60;;;;;;;;
1326.0;1207.2;;;;-0.7567216;-0.010406495;-0.13733293;;;;;;;;;;;;;;;
1326.0;1207.2;;;;-0.76171124;-0.0062065134;-0.14138795;;;;;;;;;;;;;;;
1326.0;1207.2;;;;-0.76688397;-0.0026206973;-0.14638521;;;;;;;;;;;;;;;
1326.0;1207.2;;;;-0.7722131;8.735658E-4;-0.15159608;;;;;;;;;;;;;;;
1326.0;1207.2;;;;-0.77705395;0.0042304997;-0.15448762;;;;;;;;;;;;;;;
1326.0;1217.2;;;;-0.7805444;0.006713868;-0.15793993;;;;;;;;;;;;;;;
1326.0;1217.2;;;;-0.78325284;0.009487153;-0.16126634;;;;;;;;;;;;;;;
1326.0;1217.2;;;;-0.7850877;0.0116233835;-0.1658478;;;;;;;;;;;;;;;
1326.0;1217.2;;;;-0.7860986;0.013488771;-0.17039873;;;;;;;;;;;;;;;
1326.0;1217.2;;;;-0.78717816;0.015285494;-0.17486574;;;;;;;;;;;;;;;
1326.0;1218.6;122979;122952;11568;;;;;;;;;;;;;;;;;;
1326.0;1227.3;;;;-0.7878877;0.01595688;-0.17950441;;;;;;;;;;;;;;;
1326.0;1227.3;;;;-0.7885705;0.016838076;-0.18434145;;;;;;;;;;;;;;;
1326.0;1227.3;;;;-0.78959286;0.017234804;-0.18894199;;;;;;;;;;;;;;;
1326.0;1227.3;;;;-0.7903863;0.017818453;-0.19337848;;;;;;;;;;;;;;;
1326.0;1227.3;;;;-0.79101956;0.018997194;-0.19698337;;;;;;;;;;;;;;;
1329.0;1237.4;;;;-0.792019;0.020435335;-0.2008591;;;;;;;;;;;;;;;
1329.0;1237.4;;;;-0.79312146;0.022216799;-0.20317844;;;;;;;;;;;;;;;
1329.0;1237.4;;;;-0.79483044;0.024444584;-0.20545581;;;;;;;;;;;;;;;
1329.0;1237.4;;;;-0.7964784;0.026966099;-0.20745471;;;;;;;;;;;;;;;
1329.0;1237.4;;;;-0.79809964;0.029644016;-0.20946506;;;;;;;;;;;;;;;
1329.0;1238.9;139344;139421;11540;;;;;;;;;;;;;;;;;;
1329.0;1243.9;;;;;;;;;;;;;;;;;73.32835;-51.85095;124.485;;1129.2
1329.0;1243.9;;;;;;;;;;;;;;0.4801172;-0.2148503;0.2169866;;;;;1129.2
1329.0;1243.9;;;;;;;;;;;;;;;;;76.773125;-40.158543;124.96567;;1129.2
1329.0;1243.9;;;;;;;;;;;;;;0.49061555;-0.1594287;0.16760765;;;;;1129.2
1329.0;1243.9;;;;;;;;;;;;;;;;;74.78179;-22.4044;124.988556;;1138.9
1329.0;1243.9;;;;;;;;;;;;;;0.49671927;-0.10260323;0.13721122;;;;;1138.9
1329.0;1243.9;;;;;;;;;;;;;;;;;65.004425;-13.569293;124.988556;;1138.9
1329.0;1243.9;;;;;;;;;;;;;;0.47016814;-0.05633717;0.05322428;;;;;1138.9
1329.0;1243.9;;;;;;;;;;;;;;;;;48.84106;-24.842066;124.988556;;1148.2
1329.0;1243.9;;;;;;;;;;;;;;0.4389172;0.018555254;-0.13806574;;;;;1148.2
1329.0;1243.9;;;;;;;;;;;;;;;;;29.37788;-50.187687;124.988556;;1148.2
1329.0;1243.9;;;;;;;;;;;;;;0.44642475;0.13544114;-0.4229255;;;;;1148.2
1331.0;1244.7;;;;;;;;;;;;;;;;;12.409589;-73.442795;124.988556;;1157.9
1331.0;1244.7;;;;;;;;;;;;;;0.4677877;0.27405623;-0.60933256;;;;;1157.9
1331.0;1244.7;;;;;;;;;;;;;;;;;-2.9526658;-90.334785;124.988556;;1157.9
1331.0;1244.7;;;;;;;;;;;;;;0.5014191;0.34913176;-0.6322825;;;;;1157.9
1331.0;1244.7;;;;;;;;;;;;;;;;;-17.30781;-102.67571;124.988556;;1167.6
1331.0;1244.7;;;;;;;;;;;;;;0.54988253;0.4087039;-0.598529;;;;;1167.6
1331.0;1244.7;;;;;;;;;;;;;;;;;-31.117435;-105.71612;124.988556;;1167.6
1331.0;1244.7;;;;;;;;;;;;;;0.6513871;0.4553972;-0.5986511;;;;;1167.6
1331.0;1244.7;;;;;;;;;;;;;;;;;-32.528915;-92.085785;123.85555;;1177.3
1331.0;1244.7;;;;;;;;;;;;;;0.8166753;0.48219246;-0.57814264;;;;;1177.3
1331.0;1244.7;;;;;;;;;;;;;;;;;-18.73455;-63.539536;109.664444;;1177.3
1331.0;1244.7;;;;;;;;;;;;;;1.0349437;0.54158145;-0.4156621;;;;;1177.3
1331.0;1245.1;;;;;;;;;;;;;55;;;;;;;;
1331.0;1245.1;;;;;;;;;;;;;-38;;;;;;;;
1331.0;1245.1;;;;;;;;;;;;;-196;;;;;;;;
1331.0;1245.1;;;;;;;;;;;;;510;;;;;;;;
1331.0;1245.1;;;;;;;;;;;;;-673;;;;;;;;
1331.0;1247.4;;;;-0.79988873;0.032608036;-0.21060565;;;;;;;;;;;;;;;
1331.0;1247.4;;;;-0.80145276;0.035839085;-0.21113971;;;;;;;;;;;;;;;
1331.0;1247.4;;;;-0.80316556;0.038585667;-0.21168521;;;;;;;;;;;;;;;
1331.0;1247.4;;;;-0.8043901;0.041008;-0.21203616;;;;;;;;;;;;;;;
1331.0;1247.4;;;;-0.805256;0.043262485;-0.21141055;;;;;;;;;;;;;;;
1392.0;1257.5;;;;-0.8056947;0.045497898;-0.21018222;;;;;;;;;;;;;;;
1392.0;1257.5;;;;-0.80630124;0.047065742;-0.20894626;;;;;;;;;;;;;;;
1392.0;1257.5;;;;-0.80659115;0.04810334;-0.20713428;;;;;;;;;;;;;;;
1392.0;1257.5;;;;-0.8068162;0.049526222;-0.20443347;;;;;;;;;;;;;;;
1392.0;1257.5;;;;-0.80698025;0.050399788;-0.20252994;;;;;;;;;;;;;;;
1392.0;1258.8;155749;155775;11545;;;;;;;;;;;;;;;;;;
1392.0;1267.4;;;;-0.8075563;0.0518303;-0.2007294;;;;;;;;;;;;;;;
1392.0;1267.4;;;;-0.8084146;0.053234108;-0.19826892;;;;;;;;;;;;;;;
1392.0;1267.4;;;;-0.8099061;0.05453492;-0.19646457;;;;;;;;;;;;;;;
1392.0;1267.4;;;;-0.8123666;0.056446083;-0.19480136;;;;;;;;;;;;;;;
1392.0;1267.4;;;;-0.81583416;0.058559425;-0.19235232;;;;;;;;;;;;;;;
1392.0;1277.4;;;;-0.81925213;0.061115272;-0.18964389;;;;;;;;;;;;;;;
1392.0;1277.4;;;;-0.82330716;0.06388856;-0.18740083;;;;;;;;;;;;;;;
1392.0;1277.4;;;;-0.8280488;0.06690598;-0.18573;;;;;;;;;;;;;;;
1392.0;1277.4;;;;-0.83173764;0.06991578;-0.18333437;;;;;;;;;;;;;;;
1392.0;1277.4;;;;-0.8355218;0.07216645;-0.18018343;;;;;;;;;;;;;;;
1392.0;1278.9;172177;172151;11571;;;;;;;;;;;;;;;;;;
1392.0;1285.3;;;;;;;;;;;;;-1528;;;;;;;;
1392.0;1285.3;;;;;;;;;;;;;2305;;;;;;;;
1392.0;1285.3;;;;;;;;;;;;;3061;;;;;;;;
1392.0;1285.3;;;;;;;;;;;;;-5821;;;;;;;;
1392.0;1285.3;;;;;;;;;;;;;-15764;;;;;;;;
1394.0;1287.5;;;;-0.83898175;0.074550636;-0.17708208;;;;;;;;;;;;;;;
1394.0;1287.5;;;;-0.84204495;0.07685471;-0.17567827;;;;;;;;;;;;;;;
1394.0;1287.5;;;;-0.84474576;0.07906724;-0.1741295;;;;;;;;;;;;;;;
1394.0;1287.5;;;;-0.84770215;0.080413826;-0.17245103;;;;;;;;;;;;;;;
1394.0;1287.5;;;;-0.85102093;0.08111573;-0.17139436;;;;;;;;;;;;;;;
1394.0;1297.6;;;;-0.85437405;0.08122254;-0.17143632;;;;;;;;;;;;;;;
1394.0;1297.6;;;;-0.8582612;0.08025742;-0.17113878;;;;;;;;;;;;;;;
1394.0;1297.6;;;;-0.8630601;0.079162605;-0.1700821;;;;;;;;;;;;;;;
1394.0;1297.6;;;;-0.867695;0.07773972;-0.1688614;;;;;;;;;;;;;;;
1394.0;1297.6;;;;-0.8721429;0.07599259;-0.16755678;;;;;;;;;;;;;;;
1394.0;1299.2;188517;188549;11584;;;;;;;;;;;;;;;;;;
1394.0;1304.2;;;;;;;;;;;;;;;;;-1.0605181;-31.197546;86.56194;;1186.9
1394.0;1304.2;;;;;;;;;;;;;;1.3689992;0.5553148;-0.1984924;;;;;1186.9
1394.0;1304.2;;;;;;;;;;;;;;;;;32.929474;1.8044069;58.229317;;1186.9
1394.0;1304.2;;;;;;;;;;;;;;1.5770135;0.50538653;0.05200354;;;;;1186.9
1394.0;1304.2;;;;;;;;;;;;;;;;;79.966125;31.308174;22.892696;;1196.6
1394.0;1304.2;;;;;;;;;;;;;;1.5585803;0.6507767;0.3482162;;;;;1196.6
1394.0;1304.2;;;;;;;;;;;;;;;;;106.63549;50.87817;-1.5945921;;1196.6
1394.0;1304.2;;;;;;;;;;;;;;1.2803736;0.8334605;0.5345012;;;;;1196.6
1394.0;1304.2;;;;;;;;;;;;;;;;;117.90445;36.191135;-0.011444441;;1206.1
1394.0;1304.2;;;;;;;;;;;;;;1.1151463;0.9552904;0.48707542;;;;;1206.1
1394.0;1304.2;;;;;;;;;;;;;;;;;124.41252;-1.5602587;26.745659;;1206.1
1394.0;1304.2;;;;;;;;;;;;;;1.0926237;1.0167546;0.15143284;;;;;1206.1
1395.0;1305.4;;;;;;;;;;;;;;;;;124.988556;-26.39088;66.48457;;1215.8
1395.0;1305.4;;;;;;;;;;;;;;1.1017792;0.7409894;-0.21314128;;;;;1215.8
1395.0;1305.4;;;;;;;;;;;;;;;;;124.988556;-32.368694;84.50957;;1215.8
1395.0;1305.4;;;;;;;;;;;;;;1.12772;0.5297403;-0.42384106;;;;;1215.8
1395.0;1305.4;;;;;;;;;;;;;;;;;123.82122;-9.117405;64.08124;;1225.5
1395.0;1305.4;;;;;;;;;;;;;;1.0823084;0.61561936;-0.30726036;;;;;1225.5
1395.0;1305.4;;;;;;;;;;;;;;;;;105.17823;0.3624073;56.958984;;1225.5
1395.0;1305.4;;;;;;;;;;;;;;0.96890163;0.60951567;-0.105960265;;;;;1225.5
1395.0;1305.4;;;;;;;;;;;;;;;;;74.43465;-15.884884;57.08106;;1235.1
1395.0;1305.4;;;;;;;;;;;;;;0.9533982;0.55690175;0.079226054;;;;;1235.1
1395.0;1305.4;;;;;;;;;;;;;;;;;42.348248;-35.18021;55.051575;;1235.1
1395.0;1305.4;;;;;;;;;;;;;;1.0110172;0.5246132;0.10132145;;;;;1235.1
1395.0;1307.6;;;;-0.87698376;0.07444001;-0.1662407;;;;;;;;;;;;;;;
1395.0;1307.6;;;;-0.88092816;0.07305146;-0.16648866;;;;;;;;;;;;;;;
1395.0;1307.6;;;;-0.88505185;0.071430214;-0.167408;;;;;;;;;;;;;;;
1395.0;1307.6;;;;-0.888733;0.070026405;-0.16840746;;;;;;;;;;;;;;;
1395.0;1307.6;;;;-0.89206326;0.06840897;-0.1696129;;;;;;;;;;;;;;;
1395.0;1317.7;;;;-0.8956338;0.06554795;-0.17152025;;;;;;;;;;;;;;;
1395.0;1317.7;;;;-0.8990785;0.062480934;-0.17409517;;;;;;;;;;;;;;;
1395.0;1317.7;;;;-0.903103;0.05876542;-0.17748262;;;;;;;;;;;;;;;
1395.0;1317.7;;;;-0.9088861;0.054882057;-0.18149187;;;;;;;;;;;;;;;
1395.0;1317.7;;;;-0.9163629;0.050090797;-0.18641664;;;;;;;;;;;;;;;
1447.0;1319.2;;;;;;;;;;;;;;;;;15.537736;-37.518692;53.125095;;1244.7
1447.0;1319.2;;;;;;;;;;;;;;1.0283517;0.49501023;0.1281167;;;;;1244.7
1447.0;1319.2;;;;;;;;;;;;;;;;;-1.9302957;-34.131138;52.793205;;1244.7
1447.0;1319.2;;;;;;;;;;;;;;1.0191351;0.44013795;0.19965209;;;;;1244.7
1447.0;1319.2;;;;;;;;;;;;;;;;;-10.757775;-37.400433;52.23243;;1254.3
1447.0;1319.2;;;;;;;;;;;;;;0.9960021;0.40540788;0.20105594;;;;;1254.3
1447.0;1319.2;;;;;;;;;;;;;;;;;-14.000366;-41.070282;50.22965;;1254.3
1447.0;1319.2;;;;;;;;;;;;;;1.0533159;0.4323252;0.10608234;;;;;1254.3
1447.0;1319.2;;;;;;;;;;;;;;;;;-15.15244;-29.641104;48.177284;;1263.9
1447.0;1319.2;;;;;;;;;;;;;;1.1150242;0.47260964;0.06689657;;;;;1263.9
1447.0;1319.2;;;;;;;;;;;;;;;;;-13.740958;-8.827478;44.19462;;1263.9
1447.0;1319.2;;;;;;;;;;;;;;1.1319926;0.51081884;0.105960265;;;;;1263.9
1447.0;1319.0;204943;204960;11570;;;;;;;;;;;;;;;;;;
1447.0;1325.4;;;;;;;;;;;;;-12735;;;;;;;;
1447.0;1325.4;;;;;;;;;;;;;3522;;;;;;;;
1447.0;1325.4;;;;;;;;;;;;;17629;;;;;;;;
1447.0;1325.4;;;;;;;;;;;;;18901;;;;;;;;
1447.0;1325.4;;;;;;;;;;;;;13220;;;;;;;;
1447.0;1327.5;;;;-0.9256593;0.04553223;-0.19198611;;;;;;;;;;;;;;;
1447.0;1327.5;;;;-0.93670285;0.04122925;-0.19788745;;;;;;;;;;;;;;;
1447.0;1327.5;;;;-0.9498178;0.03715897;-0.20343783;;;;;;;;;;;;;;;
1447.0;1327.5;;;;-0.9646226;0.033355717;-0.20926669;;;;;;;;;;;;;;;
1447.0;1327.5;;;;-0.9802934;0.030315403;-0.21472552;;;;;;;;;;;;;;;
1449.0;1337.4;;;;-0.9963418;0.028755192;-0.22124103;;;;;;;;;;;;;;;
1449.0;1337.4;;;;-1.0117036;0.028434757;-0.22647479;;;;;;;;;;;;;;;
1449.0;1337.4;;;;-1.0272065;0.029220585;-0.23131946;;;;;;;;;;;;;;;
1449.0;1337.4;;;;-1.0420877;0.03154755;-0.23683932;;;;;;;;;;;;;;;
1449.0;1337.4;;;;-1.056923;0.035587315;-0.24172977;;;;;;;;;;;;;;;
1449.0;1339.1;221281;221322;11566;;;;;;;;;;;;;;;;;;
1449.0;1347.5;;;;-1.0707208;0.04056168;-0.24707034;;;;;;;;;;;;;;;
1449.0;1347.5;;;;-1.0834275;0.047035225;-0.2522736;;;;;;;;;;;;;;;
1449.0;1347.5;;;;-1.0953332;0.05446244;-0.25823978;;;;;;;;;;;;;;;
1449.0;1347.5;;;;-1.1060182;0.062442787;-0.2638283;;;;;;;;;;;;;;;
1449.0;1347.5;;;;-1.116337;0.07083131;-0.27054217;;;;;;;;;;;;;;;
1449.0;1357.6;;;;-1.1265184;0.079975136;-0.2775307;;;;;;;;;;;;;;;
1449.0;1357.6;;;;-1.1362725;0.088665016;-0.2839966;;;;;;;;;;;;;;;
1449.0;1357.6;;;;-1.1460649;0.09777452;-0.29114917;;;;;;;;;;;;;;;
1449.0;1357.6;;;;-1.1557504;0.10636522;-0.29912952;;;;;;;;;;;;;;;
1449.0;1357.6;;;;-1.1654664;0.114906326;-0.30643848;;;;;;;;;;;;;;;
1449.0;1359.4;237773;237854;11577;;;;;;;;;;;;;;;;;;
1451.0;1364.3;;;;;;;;;;;;;;;;;2.8000731;7.8127384;38.842434;;1273.6
1451.0;1364.3;;;;;;;;;;;;;;1.1166112;0.521012;0.15259255;;;;;1273.6
1451.0;1364.3;;;;;;;;;;;;;;;;;38.914917;7.4808497;30.793177;;1273.6
1451.0;1364.3;;;;;;;;;;;;;;1.0571612;0.5526292;0.15179907;;;;;1273.6
1451.0;1364.3;;;;;;;;;;;;;;;;;85.68453;-26.989807;23.457289;;1283.2
1451.0;1364.3;;;;;;;;;;;;;;1.0111393;0.5643483;-0.023499252;;;;;1283.2
1451.0;1364.3;;;;;;;;;;;;;;;;;114.803;-77.608574;20.897549;;1283.2
1451.0;1364.3;;;;;;;;;;;;;;1.1944335;0.615009;-0.30347607;;;;;1283.2
1451.0;1364.3;;;;;;;;;;;;;;;;;110.82415;-98.40694;21.732994;;1292.9
1451.0;1364.3;;;;;;;;;;;;;;1.4617145;0.5442671;-0.48750266;;;;;1292.9
1451.0;1364.3;;;;;;;;;;;;;;;;;93.764305;-78.974266;24.426252;;1292.9
1451.0;1364.3;;;;;;;;;;;;;;1.5437483;0.37916195;-0.23358867;;;;;1292.9
1451.0;1365.5;;;;;;;;;;;;;12201;;;;;;;;
1451.0;1365.5;;;;;;;;;;;;;14377;;;;;;;;
1451.0;1365.5;;;;;;;;;;;;;13565;;;;;;;;
1451.0;1365.5;;;;;;;;;;;;;12173;;;;;;;;
1451.0;1365.5;;;;;;;;;;;;;11116;;;;;;;;
1451.0;1367.6;;;;-1.17688;0.12289049;-0.31369784;;;;;;;;;;;;;;;
1451.0;1367.6;;;;-1.1886979;0.13069154;-0.32189563;;;;;;;;;;;;;;;
1451.0;1367.6;;;;-1.2022783;0.13821031;-0.32870868;;;;;;;;;;;;;;;
1451.0;1367.6;;;;-1.2167779;0.14598848;-0.33558276;;;;;;;;;;;;;;;
1451.0;1367.6;;;;-1.2307588;0.15306856;-0.34289172;;;;;;;;;;;;;;;
1506.0;1377.7;;;;-1.2408487;0.15982057;-0.3494301;;;;;;;;;;;;;;;
1506.0;1377.7;;;;-1.2445337;0.16639711;-0.354023;;;;;;;;;;;;;;;
1506.0;1377.7;;;;-1.2429658;0.1718712;-0.35844043;;;;;;;;;;;;;;;
1506.0;1377.7;;;;-1.2359239;0.17668535;-0.36085895;;;;;;;;;;;;;;;
1506.0;1377.7;;;;-1.2267915;0.18037798;-0.36264423;;;;;;;;;;;;;;;
1506.0;1379.4;;;;;;;;;;;;;;;;;63.230537;-49.851982;27.15003;;1302.5
1506.0;1379.4;;;;;;;;;;;;;;1.4824672;0.2111881;0.20917386;;;;;1302.5
1506.0;1379.4;;;;;;;;;;;;;;;;;31.823177;-55.589462;29.778437;;1302.5
1506.0;1379.4;;;;;;;;;;;;;;1.3414105;0.09302042;0.24921414;;;;;1302.5
1506.0;1379.4;;;;;;;;;;;;;;;;;2.727592;-79.73342;28.122807;;1312.2
1506.0;1379.4;;;;;;;;;;;;;;1.3287759;0.12103641;0.0048219245;;;;;1312.2
1506.0;1379.4;;;;;;;;;;;;;;;;;-25.414288;-94.11145;32.20466;;1312.2
1506.0;1379.4;;;;;;;;;;;;;;1.4717246;0.18024231;-0.19965209;;;;;1312.2
1506.0;1379.4;;;;;;;;;;;;;;;;;-67.705315;-58.397167;43.851284;;1321.7
1506.0;1379.4;;;;;;;;;;;;;;1.6807764;0.16895047;-0.1911069;;;;;1321.7
1506.0;1379.4;;;;;;;;;;;;;;;;;-113.70815;37.38136;59.541615;;1321.7
1506.0;1379.4;;;;;;;;;;;;;;1.653798;0.076662496;0.30176702;;;;;1321.7
1506.0;1379.3;254115;254093;11604;;;;;;;;;;;;;;;;;;
1506.0;1387.6;;;;-1.2166559;0.18467332;-0.36474994;;;;;;;;;;;;;;;
1506.0;1387.6;;;;-1.2061731;0.18944171;-0.36601642;;;;;;;;;;;;;;;
1506.0;1387.6;;;;-1.1973764;0.1941643;-0.3667641;;;;;;;;;;;;;;;
1506.0;1387.6;;;;-1.1898385;0.19845966;-0.36692813;;;;;;;;;;;;;;;
1506.0;1387.6;;;;-1.18359;0.20241168;-0.3679085;;;;;;;;;;;;;;;
1510.0;1397.6;;;;-1.1788598;0.20602801;-0.36974338;;;;;;;;;;;;;;;
1510.0;1397.6;;;;-1.1761361;0.20854953;-0.37096027;;;;;;;;;;;;;;;
1510.0;1397.6;;;;-1.1748201;0.2089844;-0.37263873;;;;;;;;;;;;;;;
1510.0;1397.6;;;;-1.1740495;0.20923617;-0.3745537;;;;;;;;;;;;;;;
1510.0;1397.6;;;;-1.174759;0.20867923;-0.37649542;;;;;;;;;;;;;;;
1510.0;1399.4;262143;262143;11642;;;;;;;;;;;;;;;;;;
1510.0;1405.6;;;;;;;;;;;;;9529;;;;;;;;
1510.0;1405.6;;;;;;;;;;;;;8609;;;;;;;;
1510.0;1405.6;;;;;;;;;;;;;8097;;;;;;;;
1510.0;1405.6;;;;;;;;;;;;;7708;;;;;;;;
1510.0;1405.6;;;;;;;;;;;;;7507;;;;;;;;
1510.0;1407.7;;;;-1.1761209;0.20775989;-0.3775521;;;;;;;;;;;;;;;
1510.0;1407.7;;;;-1.1776506;0.20681003;-0.3786698;;;;;;;;;;;;;;;
1510.0;1407.7;;;;-1.1794206;0.20601276;-0.37968832;;;;;;;;;;;;;;;
1510.0;1407.7;;;;-1.1815873;0.20555118;-0.38109213;;;;;;;;;;;;;;;
1510.0;1407.7;;;;-1.1831514;0.20512012;-0.3824578;;;;;;;;;;;;;;;
1510.0;1417.8;;;;-1.1846391;0.20449832;-0.38418585;;;;;;;;;;;;;;;
1510.0;1417.8;;;;-1.1870652;0.20339587;-0.3857842;;;;;;;;;;;;;;;
1510.0;1417.8;;;;-1.1905977;0.20198062;-0.38835913;;;;;;;;;;;;;;;
1510.0;1417.8;;;;-1.1953279;0.20090488;-0.3913079;;;;;;;;;;;;;;;
1510.0;1417.8;;;;-1.2014085;0.19898608;-0.39498144;;;;;;;;;;;;;;;
1510.0;1419.6;262143;262143;11664;;;;;;;;;;;;;;;;;;
1512.0;1424.9;;;;;;;;;;;;;;;;;-121.66585;89.14456;73.1605;;1331.2
1512.0;1424.9;;;;;;;;;;;;;;1.437849;-0.16724144;0.79909664;;;;;1331.2
1512.0;1424.9;;;;;;;;;;;;;;;;;-59.842983;44.900356;57.18024;;1331.2
1512.0;1424.9;;;;;;;;;;;;;;1.1966918;-0.4229255;0.8271737;;;;;1331.2
1512.0;1424.9;;;;;;;;;;;;;;;;;49.45143;-38.747063;4.360332;;1340.8
1512.0;1424.9;;;;;;;;;;;;;;1.129429;-0.086489454;0.33259073;;;;;1340.8
1512.0;1424.9;;;;;;;;;;;;;;;;;109.797966;-78.94756;-28.691214;;1340.8
1512.0;1424.9;;;;;;;;;;;;;;1.1627553;0.2973113;-0.16235848;;;;;1340.8
1512.0;1424.9;;;;;;;;;;;;;;;;;112.04108;-65.42024;-38.319805;;1350.5
1512.0;1424.9;;;;;;;;;;;;;;1.1500595;0.48152104;-0.22577593;;;;;1350.5
1512.0;1424.9;;;;;;;;;;;;;;;;;70.32227;-38.186287;-33.284252;;1350.5
1512.0;1424.9;;;;;;;;;;;;;;1.0244453;0.49836725;-0.109073155;;;;;1350.5
1512.0;1427.8;;;;-1.208748;0.19685748;-0.39837652;;;;;;;;;;;;;;;
1512.0;1427.8;;;;-1.2177469;0.1947327;-0.40326697;;;;;;;;;;;;;;;
1512.0;1427.8;;;;-1.2288781;0.1926842;-0.40883642;;;;;;;;;;;;;;;
1512.0;1427.8;;;;-1.2418557;0.19077685;-0.41418082;;;;;;;;;;;;;;;
1512.0;1427.8;;;;-1.2561647;0.18948749;-0.420147;;;;;;;;;;;;;;;
1512.0;1437.8;;;;-1.2710763;0.18902591;-0.4257775;;;;;;;;;;;;;;;
1512.0;1437.8;;;;-1.2859308;0.18967059;-0.4310761;;;;;;;;;;;;;;;
1512.0;1437.8;;;;-1.300541;0.19126895;-0.43656546;;;;;;;;;;;;;;;
1512.0;1437.8;;;;-1.3138658;0.19423679;-0.4411736;;;;;;;;;;;;;;;
1512.0;1437.8;;;;-1.3248063;0.19807437;-0.44577414;;;;;;;;;;;;;;;
1568.0;1439.6;;;;;;;;;;;;;;;;;33.833584;-38.151955;-33.780178;;1360.2
1568.0;1439.6;;;;;;;;;;;;;;0.94247264;0.48988312;-0.10852382;;;;;1360.2
1568.0;1439.6;;;;;;;;;;;;;;;;;18.589588;-59.72854;-41.89047;;1360.2
1568.0;1439.6;;;;;;;;;;;;;;0.9392987;0.52558976;-0.270394;;;;;1360.2
1568.0;1439.6;;;;;;;;;;;;;;;;;13.523515;-82.47246;-43.160805;;1369.8
1568.0;1439.6;;;;;;;;;;;;;;1.0391552;0.5299844;-0.5670339;;;;;1369.8
1568.0;1439.6;;;;;;;;;;;;;;;;;7.4846644;-76.09028;-25.936918;;1369.8
1568.0;1439.6;;;;;;;;;;;;;;1.1521958;0.27179784;-0.7679067;;;;;1369.8
1568.0;1439.6;;;;;;;;;;;;;;;;;-14.164403;-30.0531;-8.877071;;1379.5
1568.0;1439.6;;;;;;;;;;;;;;1.2622455;0.09424116;-0.6239204;;;;;1379.5
1568.0;1439.6;;;;;;;;;;;;;;;;;-67.892235;43.65673;1.8539995;;1379.5
1568.0;1439.6;;;;;;;;;;;;;;1.373333;-0.006408887;-0.32026124;;;;;1379.5
1568.0;1439.5;262143;262143;11688;;;;;;;;;;;;;;;;;;
1568.0;1445.8;;;;;;;;;;;;;7156;;;;;;;;
1568.0;1445.8;;;;;;;;;;;;;6310;;;;;;;;
1568.0;1445.8;;;;;;;;;;;;;4754;;;;;;;;
1568.0;1445.8;;;;;;;;;;;;;2977;;;;;;;;
1568.0;1445.8;;;;;;;;;;;;;1993;;;;;;;;
1568.0;1447.6;;;;-1.3346177;0.20284274;-0.45036322;;;;;;;;;;;;;;;
1568.0;1447.6;;;;-1.3413736;0.20884708;-0.45333105;;;;;;;;;;;;;;;
1568.0;1447.6;;;;-1.346306;0.2146416;-0.45600897;;;;;;;;;;;;;;;
1568.0;1447.6;;;;-1.349518;0.22122577;-0.4584313;;;;;;;;;;;;;;;
1568.0;1447.6;;;;-1.3505975;0.22744372;-0.46007925;;;;;;;;;;;;;;;
1571.0;1457.7;;;;-1.349907;0.2334061;-0.4617501;;;;;;;;;;;;;;;
1571.0;1457.7;;;;-1.3476411;0.23909;-0.46347433;;;;;;;;;;;;;;;
1571.0;1457.7;;;;-1.3447152;0.24420932;-0.46405798;;;;;;;;;;;;;;;
1571.0;1457.7;;;;-1.3405076;0.24810413;-0.4657212;;;;;;;;;;;;;;;
1571.0;1457.7;;;;-1.3357812;0.25185016;-0.46602637;;;;;;;;;;;;;;;
1571.0;1459.6;262143;262143;11703;;;;;;;;;;;;;;;;;;
1571.0;1467.8;;;;-1.3309709;0.25500873;-0.46656042;;;;;;;;;;;;;;;
1571.0;1467.8;;;;-1.3247567;0.2578049;-0.46747595;;;;;;;;;;;;;;;
1571.0;1467.8;;;;-1.3184282;0.25971988;-0.46818548;;;;;;;;;;;;;;;
1571.0;1467.8;;;;-1.312214;0.26144412;-0.46842963;;;;;;;;;;;;;;;
1571.0;1467.8;;;;-1.305832;0.26293948;-0.4689904;;;;;;;;;;;;;;;
1571.0;1477.9;;;;-1.2997247;0.26408008;-0.46963507;;;;;;;;;;;;;;;
1571.0;1477.9;;;;-1.2941095;0.2646599;-0.46965033;;;;;;;;;;;;;;;
1571.0;1477.9;;;;-1.2891656;0.2648163;-0.4699059;;;;;;;;;;;;;;;
1571.0;1477.9;;;;-1.2847139;0.26505283;-0.47011954;;;;;;;;;;;;;;;
1571.0;1477.9;;;;-1.2804185;0.2650452;-0.46838766;;;;;;;;;;;;;;;
1571.0;1479.9;262143;262143;11721;;;;;;;;;;;;;;;;;;
1574.0;1484.8;;;;;;;;;;;;;;;;;-77.379684;93.67657;-1.0223701;;1389.2
1574.0;1484.8;;;;;;;;;;;;;;1.340434;-0.056215096;0.07794427;;;;;1389.2
1574.0;1484.8;;;;;;;;;;;;;;;;;-40.429394;70.127716;-26.398512;;1389.2
1574.0;1484.8;;;;;;;;;;;;;;1.271401;0.14276558;0.29511398;;;;;1389.2
1574.0;1484.8;;;;;;;;;;;;;;;;;-2.3499253;-8.743553;-60.1062;;1398.8
1574.0;1484.8;;;;;;;;;;;;;;1.40141;0.50666827;-0.21973327;;;;;1398.8
1574.0;1484.8;;;;;;;;;;;;;;;;;6.263924;-45.373394;-76.56332;;1398.8
1574.0;1484.8;;;;;;;;;;;;;;1.4484695;0.78164005;-0.7307962;;;;;1398.8
1574.0;1484.8;;;;;;;;;;;;;;;;;-17.906734;-34.161655;-66.53036;;1408.5
1574.0;1484.8;;;;;;;;;;;;;;1.4549394;0.9273965;-1.0361034;;;;;1408.5
1574.0;1484.8;;;;;;;;;;;;;;;;;-53.26243;17.73507;-27.657398;;1408.5
1574.0;1484.8;;;;;;;;;;;;;;1.2823877;0.65382856;-0.8601947;;;;;1408.5
1574.0;1486.0;;;;;;;;;;;;;1801;;;;;;;;
1574.0;1486.0;;;;;;;;;;;;;1283;;;;;;;;
1574.0;1486.0;;;;;;;;;;;;;-55;;;;;;;;
1574.0;1486.0;;;;;;;;;;;;;-1439;;;;;;;;
1574.0;1486.0;;;;;;;;;;;;;-2183;;;;;;;;
1574.0;1487.9;;;;-1.276909;0.26430896;-0.46829993;;;;;;;;;;;;;;;
1574.0;1487.9;;;;-1.2729837;0.26401523;-0.46758276;;;;;;;;;;;;;;;
1574.0;1487.9;;;;-1.26849;0.26306155;-0.46666342;;;;;;;;;;;;;;;
1574.0;1487.9;;;;-1.2644273;0.26199725;-0.4653054;;;;;;;;;;;;;;;
1574.0;1487.9;;;;-1.259739;0.26101306;-0.463749;;;;;;;;;;;;;;;
1628.0;1492.2;;;;;;;;;;;;;;;;;-64.489426;60.869167;8.152257;;1418.1
1628.0;1492.2;;;;;;;;;;;;;;1.2050538;0.07824946;-0.41199988;;;;;1418.1
1628.0;1492.2;;;;;;;;;;;;;;;;;-37.789547;60.575424;41.627247;;1418.1
1628.0;1492.2;;;;;;;;;;;;;;1.0896939;-0.21234779;-0.06591998;;;;;1418.1
1628.0;1492.2;;;;;;;;;;;;;;;;;-3.6965547;11.734367;74.86572;;1427.8
1628.0;1492.2;;;;;;;;;;;;;;0.98403883;-0.40302745;-0.08850368;;;;;1427.8
1628.0;1492.2;;;;;;;;;;;;;;;;;16.914885;-42.703026;89.964745;;1427.8
1628.0;1492.2;;;;;;;;;;;;;;0.9339274;-0.6706137;-0.42512283;;;;;1427.8
1628.0;1492.2;;;;;;;;;;;;;;;;;34.661396;-62.990204;72.9812;;1437.4
1628.0;1492.2;;;;;;;;;;;;;;0.8619037;-0.79500717;-0.6419874;;;;;1437.4
1628.0;1492.2;;;;;;;;;;;;;;;;;23.621326;-53.00302;31.075472;;1437.4
1628.0;1492.2;;;;;;;;;;;;;;0.76760155;-0.62117374;-0.69472337;;;;;1437.4
1628.0;1497.9;;;;-1.2545663;0.25986102;-0.4630776;;;;;;;;;;;;;;;
1628.0;1497.9;;;;-1.2491037;0.25817493;-0.4615212;;;;;;;;;;;;;;;
1628.0;1497.9;;;;-1.2428743;0.25654224;-0.46035773;;;;;;;;;;;;;;;
1628.0;1497.9;;;;-1.235489;0.25481418;-0.4577828;;;;;;;;;;;;;;;
1628.0;1497.9;;;;-1.2278367;0.25221637;-0.4549027;;;;;;;;;;;;;;;
1628.0;1499.8;262143;262143;11735;;;;;;;;;;;;;;;;;;
1628.0;1507.8;;;;-1.219082;0.24972919;-0.45249945;;;;;;;;;;;;;;;
1628.0;1507.8;;;;-1.2095529;0.24667361;-0.44929892;;;;;;;;;;;;;;;
1628.0;1507.8;;;;-1.1989404;0.2434006;-0.44652945;;;;;;;;;;;;;;;
1628.0;1507.8;;;;-1.1870233;0.2392464;-0.44279104;;;;;;;;;;;;;;;
1628.0;1507.8;;;;-1.1747705;0.23532107;-0.4389611;;;;;;;;;;;;;;;
1630.0;1517.8;;;;-1.1619836;0.23099521;-0.43527228;;;;;;;;;;;;;;;
1630.0;1517.8;;;;-1.1479341;0.22619632;-0.43088156;;;;;;;;;;;;;;;
1630.0;1517.8;;;;-1.1345102;0.22062686;-0.42615134;;;;;;;;;;;;;;;
1630.0;1517.8;;;;-1.1205484;0.21528247;-0.42111212;;;;;;;;;;;;;;;
1630.0;1517.8;;;;-1.1065751;0.20969394;-0.41572577;;;;;;;;;;;;;;;
1630.0;1519.9;262143;262143;11751;;;;;;;;;;;;;;;;;;
1630.0;1526.1;;;;;;;;;;;;;-2484;;;;;;;;
1630.0;1526.1;;;;;;;;;;;;;-2696;;;;;;;;
1630.0;1526.1;;;;;;;;;;;;;-2661;;;;;;;;
1630.0;1526.1;;;;;;;;;;;;;-1628;;;;;;;;
1630.0;1526.1;;;;;;;;;;;;;543;;;;;;;;
1630.0;1527.9;;;;-1.0928422;0.20401004;-0.40983588;;;;;;;;;;;;;;;
1630.0;1527.9;;;;-1.0788652;0.1985245;-0.40328223;;;;;;;;;;;;;;;
1630.0;1527.9;;;;-1.0650636;0.19297794;-0.39733893;;;;;;;;;;;;;;;
1630.0;1527.9;;;;-1.0511667;0.18724443;-0.39166647;;;;;;;;;;;;;;;
1630.0;1527.9;;;;-1.0376703;0.18170549;-0.38563162;;;;;;;;;;;;;;;
1630.0;1538.0;;;;-1.023964;0.175869;-0.38003546;;;;;;;;;;;;;;;
1630.0;1538.0;;;;-1.0096055;0.16941454;-0.37324145;;;;;;;;;;;;;;;
1630.0;1538.0;;;;-0.9960977;0.16297151;-0.3666878;;;;;;;;;;;;;;;
1630.0;1538.0;;;;-0.98282635;0.15685274;-0.35985568;;;;;;;;;;;;;;;
1630.0;1538.0;;;;-0.9699708;0.15040208;-0.3531647;;;;;;;;;;;;;;;
1630.0;1540.2;262143;262143;11752;;;;;;;;;;;;;;;;;;
1632.0;1548.0;;;;-0.9574739;0.1437111;-0.34648135;;;;;;;;;;;;;;;
1632.0;1548.0;;;;-0.94464505;0.13748552;-0.33931735;;;;;;;;;;;;;;;
1632.0;1548.0;;;;-0.9308053;0.131588;-0.33173755;;;;;;;;;;;;;;;
1632.0;1548.0;;;;-0.91783154;0.124691024;-0.32538608;;;;;;;;;;;;;;;
1632.0;1548.0;;;;-0.90459454;0.117820755;-0.31832126;;;;;;;;;;;;;;;
1632.0;1552.4;;;;;;;;;;;;;;;;;-18.974884;-34.421062;-3.8758507;;1446.9
1632.0;1552.4;;;;;;;;;;;;;;0.8258309;-0.09228797;-0.710654;;;;;1446.9
1632.0;1552.4;;;;;;;;;;;;;;;;;-42.268135;-17.983032;-6.786554;;1446.9
1632.0;1552.4;;;;;;;;;;;;;;0.8811304;0.07562487;-0.7041231;;;;;1446.9
1632.0;1552.4;;;;;;;;;;;;;;;;;-30.972471;-4.0055547;-3.8415174;;1456.3
1632.0;1552.4;;;;;;;;;;;;;;0.985992;0.1848201;-0.52412486;;;;;1456.3
1632.0;1552.4;;;;;;;;;;;;;;;;;-20.649586;-7.1146274;8.766441;;1456.3
1632.0;1552.4;;;;;;;;;;;;;;1.0760216;0.21820734;-0.41981262;;;;;1456.3
1632.0;1552.4;;;;;;;;;;;;;;;;;-13.721885;-17.288734;17.525253;;1465.9
1632.0;1552.4;;;;;;;;;;;;;;1.1435896;0.21735282;-0.41584522;;;;;1465.9
1632.0;1552.4;;;;;;;;;;;;;;;;;-0.026703697;-26.924955;21.38966;;1465.9
1632.0;1552.4;;;;;;;;;;;;;;1.1233864;0.22058779;-0.4016846;;;;;1465.9
1636.0;1553.2;;;;;;;;;;;;;;;;;9.765923;-36.25599;21.011993;;1475.6
1636.0;1553.2;;;;;;;;;;;;;;1.0350658;0.23041475;-0.41358685;;;;;1475.6
1636.0;1553.2;;;;;;;;;;;;;;;;;9.784997;-42.573322;17.258217;;1475.6
1636.0;1553.2;;;;;;;;;;;;;;0.96963406;0.2603229;-0.42518386;;;;;1475.6
1636.0;1553.2;;;;;;;;;;;;;;;;;2.3880734;-46.071503;11.608478;;1485.2
1636.0;1553.2;;;;;;;;;;;;;;0.93673515;0.30005798;-0.46498;;;;;1485.2
1636.0;1553.2;;;;;;;;;;;;;;;;;-5.031739;-42.86706;6.5462203;;1485.2
1636.0;1553.2;;;;;;;;;;;;;;0.90414137;0.3501694;-0.46925262;;;;;1485.2
1636.0;1553.2;;;;;;;;;;;;;;;;;-13.870663;-34.161655;3.8872952;;1494.9
1636.0;1553.2;;;;;;;;;;;;;;0.87759024;0.3864864;-0.43531603;;;;;1494.9
1636.0;1553.2;;;;;;;;;;;;;;;;;-23.14066;-19.203773;7.423628;;1494.9
1636.0;1553.2;;;;;;;;;;;;;;0.873867;0.38911098;-0.35718864;;;;;1494.9
1636.0;1557.9;;;;-0.891575;0.1114731;-0.31019595;;;;;;;;;;;;;;;
1636.0;1557.9;;;;-0.8784448;0.10448839;-0.30411914;;;;;;;;;;;;;;;
1636.0;1557.9;;;;-0.8665849;0.097785965;-0.2991753;;;;;;;;;;;;;;;
1636.0;1557.9;;;;-0.85520566;0.09052659;-0.29618457;;;;;;;;;;;;;;;
1636.0;1557.9;;;;-0.84422314;0.08288575;-0.29319385;;;;;;;;;;;;;;;
1636.0;1560.0;262143;262143;11733;;;;;;;;;;;;;;;;;;
1636.0;1566.2;;;;;;;;;;;;;2716;;;;;;;;
1636.0;1566.2;;;;;;;;;;;;;4127;;;;;;;;
1636.0;1566.2;;;;;;;;;;;;;5037;;;;;;;;
1636.0;1566.2;;;;;;;;;;;;;5472;;;;;;;;
1636.0;1566.2;;;;;;;;;;;;;5139;;;;;;;;
1686.0;1567.9;;;;-0.83348477;0.07506562;-0.2889252;;;;;;;;;;;;;;;
1686.0;1567.9;;;;-0.8221437;0.06796647;-0.2835541;;;;;;;;;;;;;;;
1686.0;1567.9;;;;-0.8095132;0.06190873;-0.27790835;;;;;;;;;;;;;;;
1686.0;1567.9;;;;-0.79612744;0.056259163;-0.2732239;;;;;;;;;;;;;;;
1686.0;1567.9;;;;-0.7835504;0.050781257;-0.26879504;;;;;;;;;;;;;;;
1686.0;1577.6;;;;-0.7725564;0.0453949;-0.26532748;;;;;;;;;;;;;;;
1686.0;1577.6;;;;-0.76469815;0.039321903;-0.26187137;;;;;;;;;;;;;;;
1686.0;1577.6;;;;-0.7591592;0.03266144;-0.25810245;;;;;;;;;;;;;;;
1686.0;1577.6;;;;-0.7551881;0.026115421;-0.25392917;;;;;;;;;;;;;;;
1686.0;1577.6;;;;-0.7513124;0.019599916;-0.250721;;;;;;;;;;;;;;;
1686.0;1579.9;262143;262143;11717;;;;;;;;;;;;;;;;;;
1686.0;1587.7;;;;-0.74729925;0.012981417;-0.2484627;;;;;;;;;;;;;;;
1686.0;1587.7;;;;-0.74192435;0.007461549;-0.24504092;;;;;;;;;;;;;;;
1686.0;1587.7;;;;-0.7376328;0.0035247807;-0.24146655;;;;;;;;;;;;;;;
1686.0;1587.7;;;;-0.73468405;2.7465823E-4;-0.23542407;;;;;;;;;;;;;;;
1686.0;1587.7;;;;-0.73247916;-0.0025405886;-0.2303963;;;;;;;;;;;;;;;
1686.0;1597.8;;;;-0.73123556;-0.0044097905;-0.22938922;;;;;;;;;;;;;;;
1686.0;1597.8;;;;-0.731247;-0.006675721;-0.2314072;;;;;;;;;;;;;;;
1686.0;1597.8;;;;-0.7316666;-0.0089645395;-0.23297122;;;;;;;;;;;;;;;
1686.0;1597.8;;;;-0.7301751;-0.010601045;-0.23234943;;;;;;;;;;;;;;;
1686.0;1597.8;;;;-0.7243462;-0.013191225;-0.23069003;;;;;;;;;;;;;;;
1691.0;1600.1;262143;262143;11692;;;;;;;;;;;;;;;;;;
1691.0;1604.9;;;;;;;;;;;;;;;;;-29.251991;-1.392407;16.777552;;1504.6
1691.0;1604.9;;;;;;;;;;;;;;0.8642842;0.27771842;-0.21887875;;;;;1504.6
1691.0;1604.9;;;;;;;;;;;;;;;;;-28.904844;8.156072;22.061068;;1504.6
1691.0;1604.9;;;;;;;;;;;;;;0.8644673;0.16119877;-0.092593156;;;;;1504.6
1691.0;1604.9;;;;;;;;;;;;;;;;;-25.551622;8.655812;21.53081;;1514.2
1691.0;1604.9;;;;;;;;;;;;;;0.8778954;0.09161656;-0.032471694;;;;;1514.2
1691.0;1604.9;;;;;;;;;;;;;;;;;-17.07892;2.8344066;16.235847;;1514.2
1691.0;1604.9;;;;;;;;;;;;;;0.8670919;0.05597095;-0.04113895;;;;;1514.2
1691.0;1604.9;;;;;;;;;;;;;;;;;-7.7097383;-5.1461835;9.670553;;1523.9
1691.0;1604.9;;;;;;;;;;;;;;0.8460341;0.10748619;-0.1477096;;;;;1523.9
1691.0;1604.9;;;;;;;;;;;;;;;;;-4.5129247;-6.0197763;9.102145;;1523.9
1691.0;1604.9;;;;;;;;;;;;;;0.85152745;0.11328471;-0.23706779;;;;;1523.9
1691.0;1606.2;;;;;;;;;;;;;4361;;;;;;;;
1691.0;1606.2;;;;;;;;;;;;;4183;;;;;;;;
1691.0;1606.2;;;;;;;;;;;;;5227;;;;;;;;
1691.0;1606.2;;;;;;;;;;;;;6500;;;;;;;;
1691.0;1606.2;;;;;;;;;;;;;6778;;;;;;;;
1691.0;1607.8;;;;-0.71485907;-0.016365053;-0.22883227;;;;;;;;;;;;;;;
1691.0;1607.8;;;;-0.7030335;-0.019084932;-0.2261658;;;;;;;;;;;;;;;
1691.0;1607.8;;;;-0.69126135;-0.021636965;-0.22555164;;;;;;;;;;;;;;;
1691.0;1607.8;;;;-0.68090063;-0.024501804;-0.22621158;;;;;;;;;;;;;;;
1691.0;1607.8;;;;-0.67276007;-0.026882175;-0.22737888;;;;;;;;;;;;;;;
1746.0;1612.4;;;;;;;;;;;;;;;;;-5.264443;-0.29374066;10.132145;;1533.5
1746.0;1612.4;;;;;;;;;;;;;;0.8455458;0.056154057;-0.22779016;;;;;1533.5
1746.0;1612.4;;;;;;;;;;;;;;;;;-7.5457015;4.5777764;8.087405;;1533.5
1746.0;1612.4;;;;;;;;;;;;;;0.81643116;0.055543687;-0.16211432;;;;;1533.5
1746.0;1612.4;;;;;;;;;;;;;;;;;-6.916257;5.287332;6.5195165;;1543.1
1746.0;1612.4;;;;;;;;;;;;;;0.80123293;0.065187536;-0.116641745;;;;;1543.1
1746.0;1612.4;;;;;;;;;;;;;;;;;-4.1962953;7.023072;6.0808134;;1543.1
1746.0;1612.4;;;;;;;;;;;;;;0.7823115;0.05938902;-0.079775386;;;;;1543.1
1746.0;1612.4;;;;;;;;;;;;;;;;;-0.37766656;7.6029234;5.184332;;1552.8
1746.0;1612.4;;;;;;;;;;;;;;0.74929047;0.053102206;-0.05920591;;;;;1552.8
1746.0;1612.4;;;;;;;;;;;;;;;;;4.280221;2.803888;4.1848507;;1552.8
1746.0;1612.4;;;;;;;;;;;;;;0.72273934;0.04486221;-0.08728294;;;;;1552.8
1746.0;1617.8;;;;-0.66767126;-0.029434208;-0.22817615;;;;;;;;;;;;;;;
1746.0;1617.8;;;;-0.6643639;-0.031639103;-0.22782138;;;;;;;;;;;;;;;
1746.0;1617.8;;;;-0.66382223;-0.033218388;-0.22898105;;;;;;;;;;;;;;;
1746.0;1617.8;;;;-0.6641999;-0.034343723;-0.23029712;;;;;;;;;;;;;;;
1746.0;1617.8;;;;-0.6623078;-0.03528214;-0.2286568;;;;;;;;;;;;;;;
1746.0;1620.0;262143;262143;11685;;;;;;;;;;;;;;;;;;
1746.0;1627.8;;;;-0.66043097;-0.035736088;-0.22703937;;;;;;;;;;;;;;;
1746.0;1627.8;;;;-0.66117865;-0.03449631;-0.22592548;;;;;;;;;;;;;;;
1746.0;1627.8;;;;-0.662304;-0.03222275;-0.2237511;;;;;;;;;;;;;;;
1746.0;1627.8;;;;-0.66211325;-0.029464725;-0.22044376;;;;;;;;;;;;;;;
1746.0;1627.8;;;;-0.66052634;-0.026969913;-0.21767047;;;;;;;;;;;;;;;
1749.0;1637.7;;;;-0.65790945;-0.025405888;-0.21538165;;;;;;;;;;;;;;;
1749.0;1637.7;;;;-0.65626913;-0.023509983;-0.21405795;;;;;;;;;;;;;;;
1749.0;1637.7;;;;-0.6555024;-0.022464754;-0.21309665;;;;;;;;;;;;;;;
1749.0;1637.7;;;;-0.6553574;-0.021297457;-0.21232608;;;;;;;;;;;;;;;
1749.0;1637.7;;;;-0.6551629;-0.020484926;-0.21130756;;;;;;;;;;;;;;;
1749.0;1640.1;262143;262143;11678;;;;;;;;;;;;;;;;;;
1749.0;1646.3;;;;;;;;;;;;;6597;;;;;;;;
1749.0;1646.3;;;;;;;;;;;;;7003;;;;;;;;
1749.0;1646.3;;;;;;;;;;;;;7107;;;;;;;;
1749.0;1646.3;;;;;;;;;;;;;5492;;;;;;;;
1749.0;1646.3;;;;;;;;;;;;;2927;;;;;;;;
1749.0;1647.9;;;;-0.6540757;-0.019721987;-0.20935443;;;;;;;;;;;;;;;
1749.0;1647.9;;;;-0.6523133;-0.019264223;-0.20724109;;;;;;;;;;;;;;;
1749.0;1647.9;;;;-0.65001684;-0.019111635;-0.2056084;;;;;;;;;;;;;;;
1749.0;1647.9;;;;-0.6467553;-0.018714907;-0.20391467;;;;;;;;;;;;;;;
1749.0;1647.9;;;;-0.6433335;-0.018981935;-0.20129779;;;;;;;;;;;;;;;
1749.0;1658.0;;;;-0.63942724;-0.019195559;-0.1983414;;;;;;;;;;;;;;;
1749.0;1658.0;;;;-0.6352921;-0.019802095;-0.19654468;;;;;;;;;;;;;;;
1749.0;1658.0;;;;-0.6311074;-0.020717623;-0.19477466;;;;;;;;;;;;;;;
1749.0;1658.0;;;;-0.62683874;-0.021583559;-0.19394687;;;;;;;;;;;;;;;
1749.0;1658.0;;;;-0.6230889;-0.022869112;-0.19379428;;;;;;;;;;;;;;;
1749.0;1660.4;262143;262143;11675;;;;;;;;;;;;;;;;;;
1751.0;1665.2;;;;;;;;;;;;;;;;;9.483627;-5.00885;3.4104435;;1562.4
1751.0;1665.2;;;;;;;;;;;;;;0.71553695;0.05261391;-0.1431318;;;;;1562.4
1751.0;1665.2;;;;;;;;;;;;;;;;;12.9703665;-10.120701;3.5935545;;1562.4
1751.0;1665.2;;;;;;;;;;;;;;0.7069918;0.061830502;-0.17188025;;;;;1562.4
1751.0;1665.2;;;;;;;;;;;;;;;;;13.0047;-9.678183;4.013184;;1572.0
1751.0;1665.2;;;;;;;;;;;;;;0.70546585;0.07538072;-0.1688284;;;;;1572.0
1751.0;1665.2;;;;;;;;;;;;;;;;;11.88696;-6.5691094;4.7265544;;1572.0
1751.0;1665.2;;;;;;;;;;;;;;0.71248513;0.10065004;-0.14423047;;;;;1572.0
1751.0;1665.2;;;;;;;;;;;;;;;;;12.218848;-6.0121465;5.8519244;;1581.6
1751.0;1665.2;;;;;;;;;;;;;;0.7256081;0.13287759;-0.130253;;;;;1581.6
1751.0;1665.2;;;;;;;;;;;;;;;;;12.745293;-5.93585;6.599628;;1581.6
1751.0;1665.2;;;;;;;;;;;;;;0.7347026;0.18091373;-0.11084323;;;;;1581.6
1751.0;1667.9;;;;-0.6203652;-0.024028782;-0.19375995;;;;;;;;;;;;;;;
1751.0;1667.9;;;;-0.617508;-0.024898533;-0.1936455;;;;;;;;;;;;;;;
1751.0;1667.9;;;;-0.616623;-0.026111607;-0.19381335;;;;;;;;;;;;;;;
1751.0;1667.9;;;;-0.61705405;-0.026874546;-0.19384387;;;;;;;;;;;;;;;
1751.0;1667.9;;;;-0.61819845;-0.027301792;-0.19337466;;;;;;;;;;;;;;;
1753.0;1673.0;;;;;;;;;;;;;;;;;11.612293;-8.018739;6.6492205;;1591.2
1753.0;1673.0;;;;;;;;;;;;;;0.7572253;0.23169653;-0.11774041;;;;;1591.2
1753.0;1673.0;;;;;;;;;;;;;;;;;9.63622;-8.930479;6.6911836;;1591.2
1753.0;1673.0;;;;;;;;;;;;;;0.7904294;0.27124852;-0.14368114;;;;;1591.2
1753.0;1673.0;;;;;;;;;;;;;;;;;8.819849;-7.560961;6.2257757;;1600.8
1753.0;1673.0;;;;;;;;;;;;;;0.8213752;0.31470686;-0.16132084;;;;;1600.8
1753.0;1673.0;;;;;;;;;;;;;;;;;5.264443;-3.295999;5.5200357;;1600.8
1753.0;1673.0;;;;;;;;;;;;;;0.8382824;0.35059664;-0.15173803;;;;;1600.8
1753.0;1673.0;;;;;;;;;;;;;;;;;0.12588885;3.1701102;4.3488874;;1610.5
1753.0;1673.0;;;;;;;;;;;;;;0.855739;0.3778802;-0.14441359;;;;;1610.5
1753.0;1673.0;;;;;;;;;;;;;;;;;-0.24796289;11.921293;2.7809992;;1610.5
1753.0;1673.0;;;;;;;;;;;;;;0.84939116;0.39796138;-0.103396714;;;;;1610.5
1753.0;1677.9;;;;-0.6202088;-0.027645115;-0.19360355;;;;;;;;;;;;;;;
1753.0;1677.9;;;;-0.62279516;-0.027263645;-0.1937981;;;;;;;;;;;;;;;
1753.0;1677.9;;;;-0.6263352;-0.026847843;-0.19463733;;;;;;;;;;;;;;;
1753.0;1677.9;;;;-0.6304551;-0.026725773;-0.19588473;;;;;;;;;;;;;;;
1753.0;1677.9;;;;-0.63475424;-0.026199345;-0.19767764;;;;;;;;;;;;;;;
1753.0;1680.3;262143;262143;11683;;;;;;;;;;;;;;;;;;
1753.0;1686.5;;;;;;;;;;;;;1022;;;;;;;;
1753.0;1686.5;;;;;;;;;;;;;120;;;;;;;;
1753.0;1686.5;;;;;;;;;;;;;-345;;;;;;;;
1753.0;1686.5;;;;;;;;;;;;;-477;;;;;;;;
1753.0;1686.5;;;;;;;;;;;;;141;;;;;;;;
1808.0;1687.9;;;;-0.639412;-0.025947575;-0.2000275;;;;;;;;;;;;;;;
1808.0;1687.9;;;;-0.6445809;-0.025485996;-0.20253375;;;;;;;;;;;;;;;
1808.0;1687.9;;;;-0.6498299;-0.025379185;-0.20492938;;;;;;;;;;;;;;;
1808.0;1687.9;;;;-0.65560156;-0.02498627;-0.20714954;;;;;;;;;;;;;;;
1808.0;1687.9;;;;-0.66180044;-0.02405167;-0.2094765;;;;;;;;;;;;;;;
1808.0;1697.7;;;;-0.66763693;-0.023090364;-0.21206287;;;;;;;;;;;;;;;
1808.0;1697.7;;;;-0.673462;-0.02225876;-0.21449283;;;;;;;;;;;;;;;
1808.0;1697.7;;;;-0.6797562;-0.020500185;-0.21702197;;;;;;;;;;;;;;;
1808.0;1697.7;;;;-0.68599707;-0.018962862;-0.22048572;;;;;;;;;;;;;;;
1808.0;1697.7;;;;-0.692669;-0.016696932;-0.22454455;;;;;;;;;;;;;;;
1808.0;1700.3;262143;262143;11680;;;;;;;;;;;;;;;;;;
1808.0;1707.8;;;;-0.6991883;-0.014373781;-0.22835162;;;;;;;;;;;;;;;
1808.0;1707.8;;;;-0.70646673;-0.011775972;-0.23217013;;;;;;;;;;;;;;;
1808.0;1707.8;;;;-0.71451575;-0.008625031;-0.23634341;;;;;;;;;;;;;;;
1808.0;1707.8;;;;-0.723465;-0.005210877;-0.24036029;;;;;;;;;;;;;;;
1808.0;1707.8;;;;-0.7326699;-0.0015754702;-0.2440987;;;;;;;;;;;;;;;
1808.0;1718.0;;;;-0.7423821;0.0021667483;-0.24853519;;;;;;;;;;;;;;;
1808.0;1718.0;;;;-0.7518121;0.0067863474;-0.25184634;;;;;;;;;;;;;;;
1808.0;1718.0;;;;-0.76098263;0.011589051;-0.25499728;;;;;;;;;;;;;;;
1808.0;1718.0;;;;-0.7691499;0.016769411;-0.25774387;;;;;;;;;;;;;;;
1808.0;1718.0;;;;-0.7767755;0.022354128;-0.2600899;;;;;;;;;;;;;;;
1811.0;1720.5;262143;262143;11687;;;;;;;;;;;;;;;;;;
1811.0;1725.2;;;;;;;;;;;;;;;;;3.5096285;14.248329;-0.07629627;;1620.1
1811.0;1725.2;;;;;;;;;;;;;;0.81887263;0.42103335;-0.06451613;;;;;1620.1
1811.0;1725.2;;;;;;;;;;;;;;;;;10.788294;7.694479;-3.2692955;;1620.1
1811.0;1725.2;;;;;;;;;;;;;;0.7860347;0.45100254;-0.062440872;;;;;1620.1
1811.0;1725.2;;;;;;;;;;;;;;;;;15.65218;0.45396283;-2.7771842;;1629.6
1811.0;1725.2;;;;;;;;;;;;;;0.7664418;0.4835963;-0.08282723;;;;;1629.6
1811.0;1725.2;;;;;;;;;;;;;;;;;joulu.27;-0.25559253;3.3684807;;1629.6
1811.0;1725.2;;;;;;;;;;;;;;0.74684894;0.46925262;-0.12823878;;;;;1629.6
1811.0;1725.2;;;;;;;;;;;;;;;;;7.965331;7.206183;9.063997;;1639.3
1811.0;1725.2;;;;;;;;;;;;;;0.70796835;0.39759514;-0.1312296;;;;;1639.3
1811.0;1725.2;;;;;;;;;;;;;;;;;5.9739985;13.054293;9.11359;;1639.3
1811.0;1725.2;;;;;;;;;;;;;;0.67342144;0.36329234;-0.09668264;;;;;1639.3
1828.0;1726.0;;;;;;;;;;;;;;;;;6.084628;10.170293;6.828517;;1649.0
1828.0;1726.0;;;;;;;;;;;;;;0.6483352;0.37220374;-0.10858486;;;;;1649.0
1828.0;1726.0;;;;;;;;;;;;;;;;;8.453628;0.8354442;5.3369246;;1649.0
1828.0;1726.0;;;;;;;;;;;;;;0.6212958;0.3645741;-0.16223639;;;;;1649.0
1828.0;1726.0;;;;;;;;;;;;;;;;;13.176367;-8.9991455;3.8148136;;1658.7
1828.0;1726.0;;;;;;;;;;;;;;0.6074404;0.35303813;-0.21753594;;;;;1658.7
1828.0;1726.0;;;;;;;;;;;;;;;;;16.899626;-10.03296;3.4409618;;1658.7
1828.0;1726.0;;;;;;;;;;;;;;0.61061436;0.34284493;-0.25281534;;;;;1658.7
1828.0;1726.0;;;;;;;;;;;;;;;;;10.235145;8.594775;4.894406;;1668.3
1828.0;1726.0;;;;;;;;;;;;;;0.6169622;0.30384228;-0.21002838;;;;;1668.3
1828.0;1726.0;;;;;;;;;;;;;;;;;-0.015259255;28.06177;10.040589;;1668.3
1828.0;1726.0;;;;;;;;;;;;;;0.6556597;0.23670156;-0.109500416;;;;;1668.3
1828.0;1726.5;;;;;;;;;;;;;1124;;;;;;;;
1828.0;1726.5;;;;;;;;;;;;;1505;;;;;;;;
1828.0;1726.5;;;;;;;;;;;;;1138;;;;;;;;
1828.0;1726.5;;;;;;;;;;;;;627;;;;;;;;
1828.0;1726.5;;;;;;;;;;;;;280;;;;;;;;
1828.0;1727.8;;;;-0.78242123;0.027385715;-0.26360705;;;;;;;;;;;;;;;
1828.0;1727.8;;;;-0.78738415;0.032783512;-0.26542667;;;;;;;;;;;;;;;
1828.0;1727.8;;;;-0.7919923;0.038551334;-0.26783755;;;;;;;;;;;;;;;
1828.0;1727.8;;;;-0.7962533;0.043487553;-0.270649;;;;;;;;;;;;;;;
1828.0;1727.8;;;;-0.7997476;0.048610695;-0.27302173;;;;;;;;;;;;;;;
1828.0;1737.7;;;;;;;;;;0.9804071;18.421736;-4.161962;;;;;;;;;
1828.0;1737.7;;;;;;;0.6873379;0.022461623;-0.14716025;;;;;;;;;;;;
1828.0;1737.7;;;;;;;;;;6.5004425;30.320139;6.637776;;;;;;;;;
1828.0;1737.7;;;;;;;0.7674795;0.021179846;-0.1604053;;;;;;;;;;;;
1869.0;1737.8;;;;-0.803795;0.053279884;-0.2753754;;;;;;;;;;;;;;;
1869.0;1737.8;;;;-0.8068086;0.058032997;-0.27798465;;;;;;;;;;;;;;;
1869.0;1737.8;;;;-0.81123364;0.06333924;-0.28101733;;;;;;;;;;;;;;;
1869.0;1737.8;;;;-0.8168107;0.06837464;-0.28311542;;;;;;;;;;;;;;;
1869.0;1737.8;;;;-0.8230134;0.07371522;-0.2865334;;;;;;;;;;;;;;;
1869.0;1740.3;262143;262143;11704;;;;;;;;;;;;;;;;;;
1869.0;1747.2;;;;;;;;;;2.3270364;3.0785549;-1.7662587;;;;;;;;;
1869.0;1747.2;;;;;;;0.75856805;0.016113773;-0.15124974;;;;;;;;;;;;
1869.0;1747.2;;;;;;;;;;9.01822;15.881069;8.2819605;;;;;;;;;
1869.0;1747.2;;;;;;;0.74703205;0.0112308115;-0.14282663;;;;;;;;;;;;
1869.0;1747.7;;;;-0.82994854;0.07923127;-0.28974155;;;;;;;;;;;;;;;
1869.0;1747.7;;;;-0.836506;0.08536149;-0.2923775;;;;;;;;;;;;;;;
1869.0;1747.7;;;;-0.84360516;0.09139634;-0.29446414;;;;;;;;;;;;;;;
1869.0;1747.7;;;;-0.8500024;0.09755327;-0.29751208;;;;;;;;;;;;;;;
1869.0;1747.7;;;;-0.85665905;0.10372926;-0.29999927;;;;;;;;;;;;;;;
1869.0;1756.5;;;;;;;;;;11.764886;15.923033;9.655293;;;;;;;;;
1869.0;1756.5;;;;;;;0.73134553;0.010010071;-0.13043611;;;;;;;;;;;;
1869.0;1756.5;;;;;;;;;;8.926664;-20.378735;-10.601367;;;;;;;;;
1869.0;1756.5;;;;;;;0.71700186;0.008728294;-0.11792352;;;;;;;;;;;;
1870.0;1757.6;;;;-0.86280453;0.1099167;-0.3027878;;;;;;;;;;;;;;;
1870.0;1757.6;;;;-0.86748517;0.11620714;-0.3052788;;;;;;;;;;;;;;;
1870.0;1757.6;;;;-0.8714181;0.121913925;-0.30739596;;;;;;;;;;;;;;;
1870.0;1757.6;;;;-0.8748704;0.12770464;-0.30955508;;;;;;;;;;;;;;;
1870.0;1757.6;;;;-0.87705624;0.13344575;-0.31236652;;;;;;;;;;;;;;;
1870.0;1760.2;262143;262143;11732;;;;;;;;;;;;;;;;;;
1870.0;1766.1;;;;;;;;;;10.799738;-21.622364;-11.394848;;;;;;;;;
1870.0;1766.1;;;;;;;0.70571;0.01495407;-0.10773034;;;;;;;;;;;;
1870.0;1766.1;;;;;;;;;;12.58507;-22.225103;-12.421033;;;;;;;;;
1870.0;1766.1;;;;;;;0.6940519;0.020020142;-0.098818935;;;;;;;;;;;;
1870.0;1766.4;;;;;;;;;;;;;-36;;;;;;;;
1870.0;1766.4;;;;;;;;;;;;;-68;;;;;;;;
1870.0;1766.4;;;;;;;;;;;;;611;;;;;;;;
1870.0;1766.4;;;;;;;;;;;;;1850;;;;;;;;
1870.0;1766.4;;;;;;;;;;;;;3194;;;;;;;;
1870.0;1767.7;;;;-0.87843716;0.1389084;-0.3148804;;;;;;;;;;;;;;;
1870.0;1767.7;;;;-0.87897503;0.14408495;-0.31696323;;;;;;;;;;;;;;;
1870.0;1767.7;;;;-0.8799859;0.14871599;-0.3190041;;;;;;;;;;;;;;;
1870.0;1767.7;;;;-0.88061154;0.15361024;-0.3200188;;;;;;;;;;;;;;;
1870.0;1767.7;;;;-0.880417;0.15839006;-0.32154086;;;;;;;;;;;;;;;
1870.0;1775.7;;;;;;;;;;13.462478;-14.728996;-7.5800347;;;;;;;;;
1870.0;1775.7;;;;;;;0.68581194;0.028626362;-0.09479049;;;;;;;;;;;;
1870.0;1775.7;;;;;;;;;;13.061922;-6.061739;-1.7738883;;;;;;;;;
1870.0;1775.7;;;;;;;0.6816004;0.036133915;-0.09271523;;;;;;;;;;;;
1872.0;1777.8;;;;-0.8804437;0.16252138;-0.32297137;;;;;;;;;;;;;;;
1872.0;1777.8;;;;-0.88016903;0.16596223;-0.32377246;;;;;;;;;;;;;;;
1872.0;1777.8;;;;-0.88006604;0.16902544;-0.3252068;;;;;;;;;;;;;;;
1872.0;1777.8;;;;-0.87981045;0.17198946;-0.32642367;;;;;;;;;;;;;;;
1872.0;1777.8;;;;-0.8800851;0.17385484;-0.32806018;;;;;;;;;;;;;;;
1872.0;1780.5;262143;262143;11745;;;;;;;;;;;;;;;;;;
1872.0;1785.3;;;;;;;;;;;;;;;;;-8.003479;38.125248;14.172032;;1678.0
1872.0;1785.3;;;;;;;;;;;;;;0.67464215;0.1716361;-0.050416578;;;;;1678.0
1872.0;1785.3;;;;;;;;;;;;;;;;;-4.8829613;36.3361;15.167699;;1678.0
1872.0;1785.3;;;;;;;;;;;;;;0.6624958;0.11206397;-0.012634663;;;;;1678.0
1872.0;1785.3;;;;;;;;;;;;;;;;;6.023591;19.772179;11.928923;;1687.5
1872.0;1785.3;;;;;;;;;;;;;;0.6523026;0.09814753;-0.0463271;;;;;1687.5
1872.0;1785.3;;;;;;;;;;;;;;;;;15.449995;0.019074067;5.668813;;1687.5
1872.0;1785.3;;;;;;;;;;;;;;0.67378765;0.17767876;-0.15082248;;;;;1687.5
1872.0;1785.3;;;;;;;;;;;;;;;;;21.042513;-12.256997;4.5167394;;1697.1
1872.0;1785.3;;;;;;;;;;;;;;0.6981414;0.22663045;-0.24738304;;;;;1697.1
1872.0;1785.3;;;;;;;;;;;;;;;;;23.419142;-15.854366;6.4851832;;1697.1
1872.0;1785.3;;;;;;;;;;;;;;0.7138279;0.24127933;-0.3106174;;;;;1697.1
1872.0;1785.3;;;;;;;;;;12.882626;-5.455184;-2.4033327;;;;;;;;;
1872.0;1785.3;;;;;;;0.6826991;0.04358043;-0.090701014;;;;;;;;;;;;
1872.0;1785.3;;;;;;;;;;12.79107;-4.711295;-2.9183326;;;;;;;;;
1872.0;1785.3;;;;;;;0.69289225;0.04571673;-0.088930935;;;;;;;;;;;;
1873.0;1786.5;;;;;;;;;;;;;;;;;20.115513;-8.6405525;8.079776;;1706.8
1873.0;1786.5;;;;;;;;;;;;;;0.71895504;0.24884793;-0.3209937;;;;;1706.8
1873.0;1786.5;;;;;;;;;;;;;;;;;10.2732935;8.285776;8.674886;;1706.8
1873.0;1786.5;;;;;;;;;;;;;;0.72188485;0.25666067;-0.27997681;;;;;1706.8
1873.0;1786.5;;;;;;;;;;;;;;;;;0.8049257;25.936918;10.5822935;;1716.5
1873.0;1786.5;;;;;;;;;;;;;;0.7198706;0.24689475;-0.19690542;;;;;1716.5
1873.0;1786.5;;;;;;;;;;;;;;;;;-2.2659993;37.85821;12.249367;;1716.5
1873.0;1786.5;;;;;;;;;;;;;;0.7179785;0.23114718;-0.12591937;;;;;1716.5
1873.0;1786.5;;;;;;;;;;;;;;;;;2.601703;41.066467;11.352885;;1726.1
1873.0;1786.5;;;;;;;;;;;;;;0.70442826;0.24213386;-0.059327982;;;;;1726.1
1873.0;1786.5;;;;;;;;;;;;;;;;;12.256997;28.313547;7.026887;;1726.1
1873.0;1786.5;;;;;;;;;;;;;;0.6857509;0.28070924;-0.07904294;;;;;1726.1
1873.0;1787.8;;;;-0.88191235;0.17508699;-0.33018497;;;;;;;;;;;;;;;
1873.0;1787.8;;;;-0.88377774;0.17528154;-0.33260348;;;;;;;;;;;;;;;
1873.0;1787.8;;;;-0.8864938;0.174778;-0.33547595;;;;;;;;;;;;;;;
1873.0;1787.8;;;;-0.89024746;0.17346956;-0.33781055;;;;;;;;;;;;;;;
1873.0;1787.8;;;;-0.8938981;0.17140962;-0.34058383;;;;;;;;;;;;;;;
1873.0;1794.8;;;;;;;;;;12.707144;-4.016999;-3.3036287;;;;;;;;;
1873.0;1794.8;;;;;;;0.70741904;0.044068728;-0.0827662;;;;;;;;;;;;
1873.0;1794.8;;;;;;;;;;12.703329;-3.4714804;-3.6660361;;;;;;;;;
1873.0;1794.8;;;;;;;0.72371596;0.04058962;-0.078676715;;;;;;;;;;;;
1928.0;1797.8;;;;-0.8970796;0.16836168;-0.34375766;;;;;;;;;;;;;;;
1928.0;1797.8;;;;-0.9009439;0.16505815;-0.3480225;;;;;;;;;;;;;;;
1928.0;1797.8;;;;-0.905903;0.16108705;-0.35317233;;;;;;;;;;;;;;;
1928.0;1797.8;;;;-0.91311276;0.15682985;-0.35927585;;;;;;;;;;;;;;;
1928.0;1797.8;;;;-0.9234315;0.15228654;-0.36591724;;;;;;;;;;;;;;;
1928.0;1800.5;262143;262143;11763;;;;;;;;;;;;;;;;;;
1928.0;1804.3;;;;;;;;;;12.836848;-2.8992584;-4.0475173;;;;;;;;;
1928.0;1804.3;;;;;;;0.733726;0.033692434;-0.073427536;;;;;;;;;;;;
1928.0;1804.3;;;;;;;;;;12.985626;-2.071444;-4.253517;;;;;;;;;
1928.0;1804.3;;;;;;;0.7412946;0.022034364;-0.073427536;;;;;;;;;;;;
1928.0;1806.6;;;;;;;;;;;;;4320;;;;;;;;
1928.0;1806.6;;;;;;;;;;;;;4855;;;;;;;;
1928.0;1806.6;;;;;;;;;;;;;4676;;;;;;;;
1928.0;1806.6;;;;;;;;;;;;;4123;;;;;;;;
1928.0;1806.6;;;;;;;;;;;;;3673;;;;;;;;
1928.0;1807.7;;;;-0.9379045;0.1471863;-0.37302402;;;;;;;;;;;;;;;
1928.0;1807.7;;;;-0.9559022;0.1428795;-0.38015753;;;;;;;;;;;;;;;
1928.0;1807.7;;;;-0.97696316;0.14003374;-0.3881188;;;;;;;;;;;;;;;
1928.0;1807.7;;;;-1.0000192;0.13803484;-0.39506918;;;;;;;;;;;;;;;
1928.0;1807.7;;;;-1.0231286;0.13767244;-0.4028855;;;;;;;;;;;;;;;
1928.0;1813.7;;;;;;;;;;12.974181;-1.0986663;-4.3031096;;;;;;;;;
1928.0;1813.7;;;;;;;0.75063324;0.011841182;-0.079226054;;;;;;;;;;;;
1928.0;1813.7;;;;;;;;;;12.8711815;0.09155553;-4.360332;;;;;;;;;
1928.0;1813.7;;;;;;;0.7628407;0.003173925;-0.090029605;;;;;;;;;;;;
1931.0;1817.7;;;;-1.0457879;0.13990785;-0.40887076;;;;;;;;;;;;;;;
1931.0;1817.7;;;;-1.0658761;0.14416505;-0.41398627;;;;;;;;;;;;;;;
1931.0;1817.7;;;;-1.0821534;0.15039445;-0.4177819;;;;;;;;;;;;;;;
1931.0;1817.7;;;;-1.0943986;0.1582184;-0.4196282;;;;;;;;;;;;;;;
1931.0;1817.7;;;;-1.1031724;0.1676941;-0.4207688;;;;;;;;;;;;;;;
1931.0;1820.5;262143;262143;11772;;;;;;;;;;;;;;;;;;
1931.0;1823.3;;;;;;;;;;12.7719965;1.0185553;-4.543443;;;;;;;;;
1931.0;1823.3;;;;;;;0.774926;-0.0049439985;-0.09979553;;;;;;;;;;;;
1931.0;1823.3;;;;;;;;;;12.775811;1.3199255;-4.6578875;;;;;;;;;
1931.0;1823.3;;;;;;;0.78243357;-0.011841182;-0.106753744;;;;;;;;;;;;
1931.0;1827.8;;;;-1.1085092;0.17807008;-0.4217835;;;;;;;;;;;;;;;
1931.0;1827.8;;;;-1.1119615;0.18862155;-0.42411047;;;;;;;;;;;;;;;
1931.0;1827.8;;;;-1.1147233;0.19976428;-0.4258576;;;;;;;;;;;;;;;
1931.0;1827.8;;;;-1.1190988;0.21083453;-0.42835623;;;;;;;;;;;;;;;
1931.0;1827.8;;;;-1.122429;0.2219086;-0.43105704;;;;;;;;;;;;;;;
1931.0;1832.9;;;;;;;;;;12.737662;1.1787775;-4.6731467;;;;;;;;;
1931.0;1832.9;;;;;;;0.7838374;-0.015137181;-0.11688589;;;;;;;;;;;;
1931.0;1832.9;;;;;;;;;;12.607959;0.93081456;-4.6388135;;;;;;;;;
1931.0;1832.9;;;;;;;0.7856685;-0.016663106;-0.12878811;;;;;;;;;;;;
1932.0;1837.9;;;;-1.1252557;0.23160556;-0.4334107;;;;;;;;;;;;;;;
1932.0;1837.9;;;;-1.1271211;0.24099734;-0.43588644;;;;;;;;;;;;;;;
1932.0;1837.9;;;;-1.1282197;0.24956897;-0.43749624;;;;;;;;;;;;;;;
1932.0;1837.9;;;;-1.1290704;0.2569199;-0.43896872;;;;;;;;;;;;;;;
1932.0;1837.9;;;;-1.128956;0.26285556;-0.4401589;;;;;;;;;;;;;;;
1932.0;1840.8;262143;262143;11792;;;;;;;;;;;;;;;;;;
1932.0;1842.6;;;;;;;;;;12.367626;0.46922207;-4.5739617;;;;;;;;;
1932.0;1842.6;;;;;;;0.78865933;-0.018738365;-0.13776055;;;;;;;;;;;;
1932.0;1842.6;;;;;;;;;;12.073886;0.08774071;-4.615925;;;;;;;;;
1932.0;1842.6;;;;;;;0.79409164;-0.022766808;-0.14368114;;;;;;;;;;;;
1932.0;1845.5;;;;;;;;;;;;;;;;;24.529253;7.9233685;0.94225895;;1735.7
1932.0;1845.5;;;;;;;;;;;;;;0.6571245;0.31733146;-0.16791284;;;;;1735.7
1932.0;1845.5;;;;;;;;;;;;;;;;;31.975769;-13.264108;-6.3135166;;1735.7
1932.0;1845.5;;;;;;;;;;;;;;0.67885375;0.38404492;-0.2715537;;;;;1735.7
1932.0;1845.5;;;;;;;;;;;;;;;;;28.97351;-22.915585;-12.722404;;1745.3
1932.0;1845.5;;;;;;;;;;;;;;0.7145604;0.44660786;-0.38441116;;;;;1745.3
1932.0;1845.5;;;;;;;;;;;;;;;;;21.366772;-11.558886;-16.266367;;1745.3
1932.0;1845.5;;;;;;;;;;;;;;0.7030244;0.50618;-0.41132846;;;;;1745.3
1932.0;1845.5;;;;;;;;;;;;;;;;;9.529405;8.430738;-16.937773;;1754.9
1932.0;1845.5;;;;;;;;;;;;;;0.70778525;0.58461255;-0.40046388;;;;;1754.9
1932.0;1845.5;;;;;;;;;;;;;;;;;-1.7204809;28.382214;-8.552812;;1754.9
1932.0;1845.5;;;;;;;;;;;;;;0.7379986;0.5365154;-0.36432996;;;;;1754.9
1934.0;1846.2;;;;;;;;;;;;;;;;;-10.124516;51.82806;2.376629;;1764.5
1934.0;1846.2;;;;;;;;;;;;;;0.80159914;0.39783928;-0.2882168;;;;;1764.5
1934.0;1846.2;;;;;;;;;;;;;;;;;-20.76403;84.852905;2.6169622;;1764.5
1934.0;1846.2;;;;;;;;;;;;;;0.8925443;0.34669027;-0.15503404;;;;;1764.5
1934.0;1846.2;;;;;;;;;;;;;;;;;-25.833918;99.02493;-5.653554;;1774.2
1934.0;1846.2;;;;;;;;;;;;;;1.0059512;0.30774865;-0.044312876;;;;;1774.2
1934.0;1846.2;;;;;;;;;;;;;;;;;-10.155034;77.2309;-23.068178;;1774.2
1934.0;1846.2;;;;;;;;;;;;;;1.1221045;0.3518784;0.006042665;;;;;1774.2
1934.0;1846.2;;;;;;;;;;;;;;;;;9.54085;41.032135;-36.07288;;1783.9
1934.0;1846.2;;;;;;;;;;;;;;1.2088991;0.4092532;-0.079775386;;;;;1783.9
1934.0;1846.2;;;;;;;;;;;;;;;;;16.144293;26.066622;-41.608173;;1783.9
1934.0;1846.2;;;;;;;;;;;;;;1.3303019;0.4049196;-0.24652852;;;;;1783.9
1934.0;1846.6;;;;;;;;;;;;;3470;;;;;;;;
1934.0;1846.6;;;;;;;;;;;;;3086;;;;;;;;
1934.0;1846.6;;;;;;;;;;;;;2312;;;;;;;;
1934.0;1846.6;;;;;;;;;;;;;1691;;;;;;;;
1934.0;1846.6;;;;;;;;;;;;;1951;;;;;;;;
1934.0;1847.8;;;;-1.1294252;0.2683983;-0.44082266;;;;;;;;;;;;;;;
1934.0;1847.8;;;;-1.1297342;0.27271655;-0.4419251;;;;;;;;;;;;;;;
1934.0;1847.8;;;;-1.1305658;0.27668765;-0.44289404;;;;;;;;;;;;;;;
1934.0;1847.8;;;;-1.1316072;0.27960208;-0.4433022;;;;;;;;;;;;;;;
1934.0;1847.8;;;;-1.132023;0.28140262;-0.4435082;;;;;;;;;;;;;;;
1934.0;1851.9;;;;;;;;;;11.822107;-0.614185;-4.6464434;;;;;;;;;
1934.0;1851.9;;;;;;;0.7948851;-0.03051851;-0.14874722;;;;;;;;;;;;
1934.0;1851.9;;;;;;;;;;11.444441;-1.3962218;-4.5968504;;;;;;;;;
1934.0;1851.9;;;;;;;0.8008667;-0.036133915;-0.1523484;;;;;;;;;;;;
1987.0;1857.9;;;;-1.1322099;0.283165;-0.4429894;;;;;;;;;;;;;;;
1987.0;1857.9;;;;-1.1324998;0.28434375;-0.44185644;;;;;;;;;;;;;;;
1987.0;1857.9;;;;-1.1328241;0.2852135;-0.440342;;;;;;;;;;;;;;;
1987.0;1857.9;;;;-1.1332208;0.28589633;-0.437851;;;;;;;;;;;;;;;
1987.0;1857.9;;;;-1.13406;0.2868195;-0.43394476;;;;;;;;;;;;;;;
1987.0;1860.6;262143;262143;11809;;;;;;;;;;;;;;;;;;
1987.0;1861.4;;;;;;;;;;11.108737;-2.1782587;-4.5319986;;;;;;;;;
1987.0;1861.4;;;;;;;0.8033082;-0.043092135;-0.15210426;;;;;;;;;;;;
1987.0;1861.4;;;;;;;;;;10.734886;-2.9602954;-4.4557023;;;;;;;;;
1987.0;1861.4;;;;;;;0.80507827;-0.049073763;-0.1490524;;;;;;;;;;;;
1987.0;1867.8;;;;-1.1357995;0.28839114;-0.42980582;;;;;;;;;;;;;;;
1987.0;1867.8;;;;-1.1372758;0.29015735;-0.42516333;;;;;;;;;;;;;;;
1987.0;1867.8;;;;-1.1387445;0.29239658;-0.4181977;;;;;;;;;;;;;;;
1987.0;1867.8;;;;-1.1397897;0.2946854;-0.41086584;;;;;;;;;;;;;;;
1987.0;1867.8;;;;-1.1394693;0.29714206;-0.4034043;;;;;;;;;;;;;;;
1987.0;1870.9;;;;;;;;;;loka.67;-3.7690358;-4.3450727;;;;;;;;;
1987.0;1870.9;;;;;;;0.80397964;-0.05121006;-0.14355907;;;;;;;;;;;;
1987.0;1870.9;;;;;;;;;;9.796441;-4.6121097;-4.39848;;;;;;;;;
1987.0;1870.9;;;;;;;0.8066042;-0.053163245;-0.13666189;;;;;;;;;;;;
1989.0;1877.6;;;;-1.13826;0.2995682;-0.39498144;;;;;;;;;;;;;;;
1989.0;1877.6;;;;-1.1359941;0.30109027;-0.3868447;;;;;;;;;;;;;;;
1989.0;1877.6;;;;-1.1333352;0.3026543;-0.3785134;;;;;;;;;;;;;;;
1989.0;1877.6;;;;-1.1305238;0.3030434;-0.37065127;;;;;;;;;;;;;;;
1989.0;1877.6;;;;-1.1281282;0.302887;-0.36323932;;;;;;;;;;;;;;;
1989.0;1880.3;;;;;;;;;;9.350108;-5.4208503;-4.4785914;;;;;;;;;
1989.0;1880.3;;;;;;;0.8099002;-0.058229316;-0.133549;;;;;;;;;;;;
1989.0;1880.3;;;;;;;;;;8.930479;-6.0274057;-4.8677025;;;;;;;;;
1989.0;1880.3;;;;;;;0.81801814;-0.063844725;-0.1297647;;;;;;;;;;;;
1989.0;1880.5;262143;262143;11812;;;;;;;;;;;;;;;;;;
1989.0;1886.6;;;;;;;;;;;;;2884;;;;;;;;
1989.0;1886.6;;;;;;;;;;;;;3156;;;;;;;;
1989.0;1886.6;;;;;;;;;;;;;2091;;;;;;;;
1989.0;1886.6;;;;;;;;;;;;;496;;;;;;;;
1989.0;1886.6;;;;;;;;;;;;;-531;;;;;;;;
1989.0;1887.7;;;;-1.126381;0.3017998;-0.35600284;;;;;;;;;;;;;;;
1989.0;1887.7;;;;-1.1256562;0.29950336;-0.3490906;;;;;;;;;;;;;;;
1989.0;1887.7;;;;-1.1261064;0.29662326;-0.34352878;;;;;;;;;;;;;;;
1989.0;1887.7;;;;-1.1277391;0.2936516;-0.33881763;;;;;;;;;;;;;;;
1989.0;1887.7;;;;-1.1312333;0.29007342;-0.33392337;;;;;;;;;;;;;;;
1989.0;1889.9;;;;;;;;;;8.587145;-6.4661093;-5.3140354;;;;;;;;;
1989.0;1889.9;;;;;;;0.82863855;-0.07129124;-0.12475967;;;;;;;;;;;;
1989.0;1889.9;;;;;;;;;;8.312479;-6.550035;-5.6421094;;;;;;;;;
1989.0;1889.9;;;;;;;0.8366344;-0.076906644;-0.11963256;;;;;;;;;;;;
1991.0;1897.8;;;;-1.1368371;0.28636554;-0.32992557;;;;;;;;;;;;;;;
1991.0;1897.8;;;;-1.1436502;0.28291705;-0.3265076;;;;;;;;;;;;;;;
1991.0;1897.8;;;;-1.151951;0.2796555;-0.3242531;;;;;;;;;;;;;;;
1991.0;1897.8;;;;-1.1612741;0.27769092;-0.32184604;;;;;;;;;;;;;;;
1991.0;1897.8;;;;-1.1713029;0.2762108;-0.31999972;;;;;;;;;;;;;;;
1991.0;1899.5;;;;;;;;;;7.953887;-6.34785;-5.8633685;;;;;;;;;
1991.0;1899.5;;;;;;;0.8449355;-0.081240274;-0.11444441;;;;;;;;;;;;
1991.0;1899.5;;;;;;;;;;7.5914793;-5.779443;-5.93585;;;;;;;;;
1991.0;1899.5;;;;;;;0.85262614;-0.08270516;-0.11365093;;;;;;;;;;;;
1991.0;1900.8;262143;262143;11818;;;;;;;;;;;;;;;;;;
1991.0;1905.4;;;;;;;;;;;;;;;;;8.114109;46.36906;-48.50154;;1793.5
1991.0;1905.4;;;;;;;;;;;;;;1.4914396;0.39576402;-0.30878627;;;;;1793.5
1991.0;1905.4;;;;;;;;;;;;;;;;;-13.42433;91.03671;-59.644615;;1793.5
1991.0;1905.4;;;;;;;;;;;;;;1.6005738;0.38361767;-0.19891964;;;;;1793.5
1991.0;1905.4;;;;;;;;;;;;;;;;;-33.43303;122.21137;-73.89676;;1803.1
1991.0;1905.4;;;;;;;;;;;;;;1.6618549;0.38227484;-0.014770959;;;;;1803.1
1991.0;1905.4;;;;;;;;;;;;;;;;;-37.10288;124.988556;-90.60945;;1803.1
1991.0;1905.4;;;;;;;;;;;;;;1.5966064;0.39765617;0.16162603;;;;;1803.1
1991.0;1905.4;;;;;;;;;;;;;;;;;-23.838772;124.6643;-109.29442;;1812.8
1991.0;1905.4;;;;;;;;;;;;;;1.4606159;0.47541735;0.28357798;;;;;1812.8
1991.0;1905.4;;;;;;;;;;;;;;;;;-3.6584065;108.096565;-123.19178;;1812.8
1991.0;1905.4;;;;;;;;;;;;;;1.3392133;0.59779656;0.26355785;;;;;1812.8
1992.0;1906.2;;;;;;;;;;;;;;;;;6.7941833;77.4102;-124.988556;;1822.3
1992.0;1906.2;;;;;;;;;;;;;;1.3223671;0.66176337;0.11304056;;;;;1822.3
1992.0;1906.2;;;;;;;;;;;;;;;;;8.800775;66.35487;-124.988556;;1822.3
1992.0;1906.2;;;;;;;;;;;;;;1.3456831;0.6219672;-0.059266947;;;;;1822.3
1992.0;1906.2;;;;;;;;;;;;;;;;;8.522293;76.38783;-124.988556;;1832.0
1992.0;1906.2;;;;;;;;;;;;;;1.3413495;0.46766564;-0.12683493;;;;;1832.0
1992.0;1906.2;;;;;;;;;;;;;;;;;6.4661093;97.045044;-124.988556;;1832.0
1992.0;1906.2;;;;;;;;;;;;;;1.3285928;0.32355723;-0.07519761;;;;;1832.0
1992.0;1906.2;;;;;;;;;;;;;;;;;6.3364053;115.4706;-124.19126;;1841.6
1992.0;1906.2;;;;;;;;;;;;;;1.3218176;0.18622394;0.03686636;;;;;1841.6
1992.0;1906.2;;;;;;;;;;;;;;;;;10.509811;120.34211;-115.29893;;1841.6
1992.0;1906.2;;;;;;;;;;;;;;1.3757744;0.048463393;0.12262337;;;;;1841.6
1992.0;1907.7;;;;-1.1815339;0.27481082;-0.31877902;;;;;;;;;;;;;;;
1992.0;1907.7;;;;-1.1919023;0.273922;-0.3187714;;;;;;;;;;;;;;;
1992.0;1907.7;;;;-1.2021714;0.27425388;-0.31883624;;;;;;;;;;;;;;;
1992.0;1907.7;;;;-1.2129556;0.2748795;-0.32107547;;;;;;;;;;;;;;;
1992.0;1907.7;;;;-1.2235757;0.27606586;-0.32353595;;;;;;;;;;;;;;;
1992.0;1908.9;;;;;;;;;;7.2443314;-4.8028507;-5.9587393;;;;;;;;;
1992.0;1908.9;;;;;;;0.86404;-0.08319346;-0.11328471;;;;;;;;;;;;
1992.0;1908.9;;;;;;;;;;6.9620347;-3.4447768;-6.103702;;;;;;;;;
1992.0;1908.9;;;;;;;0.8744774;-0.07757805;-0.11120945;;;;;;;;;;;;
2047.0;1917.8;;;;-1.2346345;0.2777939;-0.32630542;;;;;;;;;;;;;;;
2047.0;1917.8;;;;-1.2453843;0.2792435;-0.33030704;;;;;;;;;;;;;;;
2047.0;1917.8;;;;-1.256138;0.28117755;-0.33396915;;;;;;;;;;;;;;;
2047.0;1917.8;;;;-1.2659875;0.2828789;-0.33848575;;;;;;;;;;;;;;;
2047.0;1917.8;;;;-1.2740594;0.2854996;-0.3424416;;;;;;;;;;;;;;;
2047.0;1918.5;;;;;;;;;;6.75985;-1.945555;-6.1571097;;;;;;;;;
2047.0;1918.5;;;;;;;0.8850978;-0.0740379;-0.109866634;;;;;;;;;;;;
2047.0;1918.5;;;;;;;;;;6.679739;-0.10299997;-6.0350356;;;;;;;;;
2047.0;1918.5;;;;;;;0.8933378;-0.06769005;-0.11481063;;;;;;;;;;;;
2047.0;1920.7;262143;262143;11807;;;;;;;;;;;;;;;;;;
2047.0;1926.8;;;;;;;;;;;;;-713;;;;;;;;
2047.0;1926.8;;;;;;;;;;;;;-612;;;;;;;;
2047.0;1926.8;;;;;;;;;;;;;-598;;;;;;;;
2047.0;1926.8;;;;;;;;;;;;;-673;;;;;;;;
2047.0;1926.8;;;;;;;;;;;;;-698;;;;;;;;
2047.0;1927.7;;;;-1.2808152;0.28758243;-0.3459778;;;;;;;;;;;;;;;
2047.0;1927.7;;;;-1.2851068;0.28987888;-0.35002902;;;;;;;;;;;;;;;
2047.0;1927.7;;;;-1.2876436;0.2925835;-0.35314563;;;;;;;;;;;;;;;
2047.0;1927.7;;;;-1.2884446;0.29522327;-0.35701373;;;;;;;;;;;;;;;
2047.0;1927.7;;;;-1.2880594;0.299202;-0.36057666;;;;;;;;;;;;;;;
2047.0;1928.0;;;;;;;;;;6.6415906;2.1095922;-5.714591;;;;;;;;;
2047.0;1928.0;;;;;;;0.9045076;-0.060365614;-0.119205296;;;;;;;;;;;;
2047.0;1928.0;;;;;;;;;;6.557665;4.2420726;-5.180517;;;;;;;;;
2047.0;1928.0;;;;;;;0.92104864;-0.049867246;-0.12994781;;;;;;;;;;;;
2049.0;1937.5;;;;;;;;;;6.3173313;6.5080724;-4.554888;;;;;;;;;
2049.0;1937.5;;;;;;;0.9460738;-0.039246805;-0.14423047;;;;;;;;;;;;
2049.0;1937.5;;;;;;;;;;6.2524796;8.507034;-3.8453321;;;;;;;;;
2049.0;1937.5;;;;;;;0.98403883;-0.029969176;-0.15839106;;;;;;;;;;;;
2049.0;1937.7;;;;-1.2858583;0.30344775;-0.36306384;;;;;;;;;;;;;;;
2049.0;1937.7;;;;-1.282055;0.30831912;-0.36540988;;;;;;;;;;;;;;;
2049.0;1937.7;;;;-1.2777864;0.31418994;-0.36710742;;;;;;;;;;;;;;;
2049.0;1937.7;;;;-1.271763;0.3205109;-0.36847308;;;;;;;;;;;;;;;
2049.0;1937.7;;;;-1.266102;0.32725146;-0.36934283;;;;;;;;;;;;;;;
2049.0;1940.8;262143;262143;11819;;;;;;;;;;;;;;;;;;
2049.0;1947.1;;;;;;;;;;6.3974423;9.949034;-3.1281471;;;;;;;;;
2049.0;1947.1;;;;;;;1.0207831;-0.028992584;-0.16895047;;;;;;;;;;;;
2049.0;1947.1;;;;;;;;;;6.6949983;11.14307;-2.254555;;;;;;;;;
2049.0;1947.1;;;;;;;1.0583819;-0.033875547;-0.18225653;;;;;;;;;;;;
2049.0;1947.8;;;;-1.2600824;0.33410266;-0.37030795;;;;;;;;;;;;;;;
2049.0;1947.8;;;;-1.2542421;0.34103778;-0.3694611;;;;;;;;;;;;;;;
2049.0;1947.8;;;;-1.2488137;0.34792712;-0.36908343;;;;;;;;;;;;;;;
2049.0;1947.8;;;;-1.2436372;0.35417178;-0.36777118;;;;;;;;;;;;;;;
2049.0;1947.8;;;;-1.2386628;0.36021045;-0.36594012;;;;;;;;;;;;;;;
2049.0;1956.7;;;;;;;;;;7.122257;12.169256;-1.3771478;;;;;;;;;
2049.0;1956.7;;;;;;;1.0924406;-0.04754784;-0.19519639;;;;;;;;;;;;
2049.0;1956.7;;;;;;;;;;7.5457015;12.897885;-0.59892577;;;;;;;;;
2049.0;1956.7;;;;;;;1.1181371;-0.067751095;-0.20868556;;;;;;;;;;;;
2051.0;1957.9;;;;-1.2337037;0.36521152;-0.36397555;;;;;;;;;;;;;;;
2051.0;1957.9;;;;-1.22958;0.36951068;-0.3614426;;;;;;;;;;;;;;;
2051.0;1957.9;;;;-1.225258;0.3724976;-0.35839084;;;;;;;;;;;;;;;
2051.0;1957.9;;;;-1.2209245;0.3742638;-0.35566333;;;;;;;;;;;;;;;
2051.0;1957.9;;;;-1.2168199;0.37496188;-0.353035;;;;;;;;;;;;;;;
2051.0;1961.1;262143;262143;11821;;;;;;;;;;;;;;;;;;
2051.0;1966.0;;;;;;;;;;;;;;;;;24.414808;111.26667;-99.60478;;1851.2
2051.0;1966.0;;;;;;;;;;;;;;1.4363842;-0.11206397;0.12079226;;;;;1851.2
2051.0;1966.0;;;;;;;;;;;;;;;;;46.643726;96.16001;-90.44541;;1851.2
2051.0;1966.0;;;;;;;;;;;;;;1.4539628;-0.26062807;0.07257301;;;;;1851.2
2051.0;1966.0;;;;;;;;;;;;;;;;;68.769646;84.181496;-87.405014;;1860.8
2051.0;1966.0;;;;;;;;;;;;;;1.4762414;-0.3691519;-0.0145878475;;;;;1860.8
2051.0;1966.0;;;;;;;;;;;;;;;;;81.53401;82.861565;-95.000305;;1860.8
2051.0;1966.0;;;;;;;;;;;;;;1.454207;-0.4766991;-0.061952576;;;;;1860.8
2051.0;1966.0;;;;;;;;;;;;;;;;;77.40639;91.37241;-119.89959;;1870.4
2051.0;1966.0;;;;;;;;;;;;;;1.4697104;-0.4964751;-0.07483139;;;;;1870.4
2051.0;1966.0;;;;;;;;;;;;;;;;;80.91601;88.95382;-124.988556;;1870.4
2051.0;1966.0;;;;;;;;;;;;;;1.5375836;-0.32312998;-0.085573904;;;;;1870.4
2051.0;1966.2;;;;;;;;;;8.068331;13.508256;0.038148135;;;;;;;;;
2051.0;1966.2;;;;;;;1.1426741;-0.0883816;-0.22486039;;;;;;;;;;;;
2051.0;1966.2;;;;;;;;;;8.621479;14.000366;0.48829615;;;;;;;;;
2051.0;1966.2;;;;;;;1.1660513;-0.11059908;-0.24146245;;;;;;;;;;;;
2052.0;1966.9;;;;;;;;;;;;;;;;;85.49379;89.11023;-124.988556;;1880.1
2052.0;1966.9;;;;;;;;;;;;;;1.6085696;-0.061891537;-0.08990753;;;;;1880.1
2052.0;1966.9;;;;;;;;;;;;;;;;;87.21046;95.942566;-124.988556;;1880.1
2052.0;1966.9;;;;;;;;;;;;;;1.5445417;0.0369274;-0.034119695;;;;;1880.1
2052.0;1966.9;;;;;;;;;;;;;;;;;86.82135;94.53108;-124.988556;;1889.8
2052.0;1966.9;;;;;;;;;;;;;;1.495529;0.09088412;0.033692434;;;;;1889.8
2052.0;1966.9;;;;;;;;;;;;;;;;;83.21253;83.8496;-124.988556;;1889.8
2052.0;1966.9;;;;;;;;;;;;;;1.5067599;0.20606098;0.075441755;;;;;1889.8
2052.0;1966.9;;;;;;;;;;;;;;;;;77.04017;69.956055;-124.988556;;1899.5
2052.0;1966.9;;;;;;;;;;;;;;1.5277566;0.3355205;0.05719169;;;;;1899.5
2052.0;1966.9;;;;;;;;;;;;;;;;;67.81594;56.756798;-124.988556;;1899.5
2052.0;1966.9;;;;;;;;;;;;;;1.5609608;0.5083163;-0.0012207404;;;;;1899.5
2052.0;1966.9;;;;;;;;;;;;;-379;;;;;;;;
2052.0;1966.9;;;;;;;;;;;;;80;;;;;;;;
2052.0;1966.9;;;;;;;;;;;;;168;;;;;;;;
2052.0;1966.9;;;;;;;;;;;;;-600;;;;;;;;
2052.0;1966.9;;;;;;;;;;;;;-94;;;;;;;;
2052.0;1967.8;;;;-1.2131654;0.37360004;-0.35105518;;;;;;;;;;;;;;;
2052.0;1967.8;;;;-1.2099572;0.37092212;-0.34865192;;;;;;;;;;;;;;;
2052.0;1967.8;;;;-1.2069627;0.36765292;-0.34533313;;;;;;;;;;;;;;;
2052.0;1967.8;;;;-1.2047426;0.36351398;-0.34084705;;;;;;;;;;;;;;;
2052.0;1967.8;;;;-1.2031595;0.35924152;-0.3347588;;;;;;;;;;;;;;;
2052.0;1975.7;;;;;;;;;;9.178442;14.610737;0.8087405;;;;;;;;;
2052.0;1975.7;;;;;;;1.1918699;-0.12988678;-0.26026186;;;;;;;;;;;;
2052.0;1975.7;;;;;;;;;;9.80407;15.629292;0.7667776;;;;;;;;;
2052.0;1975.7;;;;;;;1.2236091;-0.14716025;-0.27753532;;;;;;;;;;;;
2108.0;1977.9;;;;-1.2019616;0.3552437;-0.32800677;;;;;;;;;;;;;;;
2108.0;1977.9;;;;-1.200966;0.35089877;-0.32181552;;;;;;;;;;;;;;;
2108.0;1977.9;;;;-1.2000924;0.34659198;-0.31608585;;;;;;;;;;;;;;;
2108.0;1977.9;;;;-1.1981469;0.3428574;-0.3099251;;;;;;;;;;;;;;;
2108.0;1977.9;;;;-1.1949998;0.3393021;-0.30417636;;;;;;;;;;;;;;;
2108.0;1981.0;262143;262143;11830;;;;;;;;;;;;;;;;;;
2108.0;1985.2;;;;;;;;;;10.589923;17.143772;0.31662953;;;;;;;;;
2108.0;1985.2;;;;;;;1.2495499;-0.16534929;-0.29352704;;;;;;;;;;;;
2108.0;1985.2;;;;;;;;;;11.429182;18.33018;-0.1411481;;;;;;;;;
2108.0;1985.2;;;;;;;1.2472914;-0.17883846;-0.30146185;;;;;;;;;;;;
2108.0;1987.7;;;;-1.1915551;0.3355179;-0.29770663;;;;;;;;;;;;;;;
2108.0;1987.7;;;;-1.1874963;0.33178332;-0.291523;;;;;;;;;;;;;;;
2108.0;1987.7;;;;-1.1827203;0.32846454;-0.28541568;;;;;;;;;;;;;;;
2108.0;1987.7;;;;-1.177292;0.32535174;-0.27800754;;;;;;;;;;;;;;;
2108.0;1987.7;;;;-1.171116;0.32237247;-0.27159122;;;;;;;;;;;;;;;
2108.0;1994.3;;;;;;;;;;12.295145;19.623402;-0.07248146;;;;;;;;;
2108.0;1994.3;;;;;;;1.2258675;-0.1897641;-0.30426955;;;;;;;;;;;;
2108.0;1994.3;;;;;;;;;;13.016145;20.825068;0.37385175;;;;;;;;;
2108.0;1994.3;;;;;;;1.200476;-0.20001832;-0.308298;;;;;;;;;;;;
2111.0;1997.4;;;;-1.1642267;0.31874087;-0.26519015;;;;;;;;;;;;;;;
2111.0;1997.4;;;;-1.1563913;0.31523517;-0.25795367;;;;;;;;;;;;;;;
2111.0;1997.4;;;;-1.1479608;0.311348;-0.25128558;;;;;;;;;;;;;;;
2111.0;1997.4;;;;-1.1385919;0.30720523;-0.24519351;;;;;;;;;;;;;;;
2111.0;1997.4;;;;-1.1302758;0.30327228;-0.23878482;;;;;;;;;;;;;;;
2111.0;2000.6;262143;262143;11835;;;;;;;;;;;;;;;;;;
2111.0;2003.9;;;;;;;;;;13.660849;21.72155;0.4768517;;;;;;;;;
2111.0;2003.9;;;;;;;1.1857662;-0.21027254;-0.30976287;;;;;;;;;;;;
2111.0;2003.9;;;;;;;;;;14.297922;22.480696;-0.17166662;;;;;;;;;
2111.0;2003.9;;;;;;;1.1794794;-0.21423994;-0.31391338;;;;;;;;;;;;
2111.0;2006.7;;;;;;;;;;;;;4012;;;;;;;;
2111.0;2006.7;;;;;;;;;;;;;2044;;;;;;;;
2111.0;2006.7;;;;;;;;;;;;;-18479;;;;;;;;
2111.0;2006.7;;;;;;;;;;;;;-46789;;;;;;;;
2111.0;2006.7;;;;;;;;;;;;;-55295;;;;;;;;
2111.0;2007.5;;;;-1.1221238;0.29922107;-0.23180392;;;;;;;;;;;;;;;
2111.0;2007.5;;;;-1.1138574;0.29465106;-0.22514728;;;;;;;;;;;;;;;
2111.0;2007.5;;;;-1.105755;0.2899857;-0.21834949;;;;;;;;;;;;;;;
2111.0;2007.5;;;;-1.097252;0.28538135;-0.21154788;;;;;;;;;;;;;;;
2111.0;2007.5;;;;-1.0883752;0.28047946;-0.2045975;;;;;;;;;;;;;;;
2111.0;2013.5;;;;;;;;;;14.973144;22.808771;-1.1902219;;;;;;;;;
2111.0;2013.5;;;;;;;1.182104;-0.21295816;-0.31800288;;;;;;;;;;;;
2111.0;2013.5;;;;;;;;;;15.682699;22.930845;-2.0638144;;;;;;;;;
2111.0;2013.5;;;;;;;1.1876583;-0.21002838;-0.32044435;;;;;;;;;;;;
2112.0;2017.6;;;;-1.0787584;0.27534488;-0.19768146;;;;;;;;;;;;;;;
2112.0;2017.6;;;;-1.0684587;0.2700272;-0.19161227;;;;;;;;;;;;;;;
2112.0;2017.6;;;;-1.0574495;0.26445392;-0.18367006;;;;;;;;;;;;;;;
2112.0;2017.6;;;;-1.0464822;0.2592812;-0.17639162;;;;;;;;;;;;;;;
2112.0;2017.6;;;;-1.0336267;0.2537041;-0.16899873;;;;;;;;;;;;;;;
2112.0;2020.9;262143;262143;11830;;;;;;;;;;;;;;;;;;
2112.0;2023.2;;;;;;;;;;16.407515;23.033844;-2.6245918;;;;;;;;;
2112.0;2023.2;;;;;;;1.1923581;-0.20862453;-0.3223365;;;;;;;;;;;;
2112.0;2023.2;;;;;;;;;;17.105623;23.224586;-2.6970735;;;;;;;;;
2112.0;2023.2;;;;;;;1.1981567;-0.20520645;-0.32764673;;;;;;;;;;;;
2112.0;2025.6;;;;;;;;;;;;;;;;;53.58669;51.492355;-124.988556;;1909.1
2112.0;2025.6;;;;;;;;;;;;;;1.5361797;0.6480911;-0.081789605;;;;;1909.1
2112.0;2025.6;;;;;;;;;;;;;;;;;41.63106;54.47554;-124.98093;;1909.1
2112.0;2025.6;;;;;;;;;;;;;;1.442793;0.7559435;-0.07721183;;;;;1909.1
2112.0;2025.6;;;;;;;;;;;;;;;;;29.324472;58.069096;-123.21467;;1918.7
2112.0;2025.6;;;;;;;;;;;;;;1.3418989;0.7536241;-0.047791988;;;;;1918.7
2112.0;2025.6;;;;;;;;;;;;;;;;;22.02292;55.787834;-116.41286;;1918.7
2112.0;2025.6;;;;;;;;;;;;;;1.2495499;0.7213355;0.009949034;;;;;1918.7
2112.0;2025.6;;;;;;;;;;;;;;;;;14.427626;45.64806;-105.84964;;1928.3
2112.0;2025.6;;;;;;;;;;;;;;1.1642201;0.6637776;0.01843318;;;;;1928.3
2112.0;2025.6;;;;;;;;;;;;;;;;;4.795221;37.617878;-95.60305;;1928.3
2112.0;2025.6;;;;;;;;;;;;;;1.106479;0.5769829;0.008850368;;;;;1928.3
2114.0;2026.4;;;;;;;;;;;;;;;;;-6.721702;35.031433;-86.94342;;1938.0
2114.0;2026.4;;;;;;;;;;;;;;1.0560014;0.47706535;0.02417066;;;;;1938.0
2114.0;2026.4;;;;;;;;;;;;;;;;;-17.109438;32.845547;-78.009125;;1938.0
2114.0;2026.4;;;;;;;;;;;;;;1.0028383;0.32837915;0.032898955;;;;;1938.0
2114.0;2026.4;;;;;;;;;;;;;;;;;-24.796288;26.600697;-70.806755;;1947.7
2114.0;2026.4;;;;;;;;;;;;;;0.9558397;0.21680349;0.014831996;;;;;1947.7
2114.0;2026.4;;;;;;;;;;;;;;;;;-31.04114;18.429365;-64.580986;;1947.7
2114.0;2026.4;;;;;;;;;;;;;;0.9165929;0.11499374;-0.041016877;;;;;1947.7
2114.0;2026.4;;;;;;;;;;;;;;;;;-33.558918;14.713737;-59.6408;;1957.3
2114.0;2026.4;;;;;;;;;;;;;;0.85280925;0.038880583;-0.05444502;;;;;1957.3
2114.0;2026.4;;;;;;;;;;;;;;;;;-32.895138;14.671774;-55.89465;;1957.3
2114.0;2026.4;;;;;;;;;;;;;;0.7952513;0.013367107;-0.029541917;;;;;1957.3
2114.0;2027.6;;;;-1.019848;0.24782947;-0.16166307;;;;;;;;;;;;;;;
2114.0;2027.6;;;;-1.0036851;0.24226764;-0.15363313;;;;;;;;;;;;;;;
2114.0;2027.6;;;;-0.98799145;0.2367554;-0.1473694;;;;;;;;;;;;;;;
2114.0;2027.6;;;;-0.98513806;0.2315903;-0.14934541;;;;;;;;;;;;;;;
2114.0;2027.6;;;;-0.9776727;0.2260361;-0.1359749;;;;;;;;;;;;;;;
2114.0;2032.6;;;;;;;;;;17.834253;23.56029;-2.4796288;;;;;;;;;
2114.0;2032.6;;;;;;;1.2111576;-0.20227668;-0.33582568;;;;;;;;;;;;
2114.0;2032.6;;;;;;;;;;18.65444;24.044771;-2.170629;;;;;;;;;
2114.0;2032.6;;;;;;;1.2336802;-0.1970275;-0.34730065;;;;;;;;;;;;
2169.0;2037.7;;;;-0.9653207;0.22038653;-0.13003542;;;;;;;;;;;;;;;
2169.0;2037.7;;;;-0.9538957;0.2135773;-0.12565996;;;;;;;;;;;;;;;
2169.0;2037.7;;;;-0.9434396;0.207634;-0.121524826;;;;;;;;;;;;;;;
2169.0;2037.7;;;;-0.9341661;0.20309451;-0.11586763;;;;;;;;;;;;;;;
2169.0;2037.7;;;;-0.9248544;0.19828418;-0.11201097;;;;;;;;;;;;;;;
2169.0;2040.9;262143;262143;11798;;;;;;;;;;;;;;;;;;
2169.0;2042.1;;;;;;;;;;19.547104;24.403364;-1.8730735;;;;;;;;;
2169.0;2042.1;;;;;;;1.2656026;-0.19190039;-0.35975218;;;;;;;;;;;;
2169.0;2042.1;;;;;;;;;;20.622883;24.59792;-1.5869625;;;;;;;;;
2169.0;2042.1;;;;;;;1.3029573;-0.19348735;-0.37238684;;;;;;;;;;;;
2169.0;2046.9;;;;;;;;;;;;;-33916;;;;;;;;
2169.0;2046.9;;;;;;;;;;;;;-3973;;;;;;;;
2169.0;2046.9;;;;;;;;;;;;;8803;;;;;;;;
2169.0;2046.9;;;;;;;;;;;;;4016;;;;;;;;
2169.0;2046.9;;;;;;;;;;;;;-1102;;;;;;;;
2169.0;2047.6;;;;-0.916504;0.1935387;-0.10802843;;;;;;;;;;;;;;;
2169.0;2047.6;;;;-0.908249;0.18852618;-0.10411836;;;;;;;;;;;;;;;
2169.0;2047.6;;;;-0.90012753;0.18348695;-0.10034563;;;;;;;;;;;;;;;
2169.0;2047.6;;;;-0.8929368;0.17803575;-0.098144546;;;;;;;;;;;;;;;
2169.0;2047.6;;;;-0.88546383;0.17251588;-0.09580995;;;;;;;;;;;;;;;
2169.0;2051.5;;;;;;;;;;21.931364;24.555956;-1.1291848;;;;;;;;;
2169.0;2051.5;;;;;;;1.3351848;-0.20001832;-0.38355663;;;;;;;;;;;;
2169.0;2051.5;;;;;;;;;;23.274178;24.403364;-0.2517777;;;;;;;;;
2169.0;2051.5;;;;;;;1.3558153;-0.21326335;-0.39350566;;;;;;;;;;;;
2170.0;2057.5;;;;-0.8781549;0.16679002;-0.09310532;;;;;;;;;;;;;;;
2170.0;2057.5;;;;-0.8708383;0.16088869;-0.09109498;;;;;;;;;;;;;;;
2170.0;2057.5;;;;-0.8640214;0.15472795;-0.090248115;;;;;;;;;;;;;;;
2170.0;2057.5;;;;-0.8571702;0.14916612;-0.08952332;;;;;;;;;;;;;;;
2170.0;2057.5;;;;-0.8505708;0.14318849;-0.08920289;;;;;;;;;;;;;;;
2170.0;2061.1;;;;;;;;;;24.586475;24.079105;0.73625904;;;;;;;;;
2170.0;2061.1;;;;;;;1.3660696;-0.22797327;-0.40028077;;;;;;;;;;;;
2170.0;2061.1;;;;;;;;;;25.978882;23.712883;1.8196661;;;;;;;;;
2170.0;2061.1;;;;;;;1.3625294;-0.2445143;-0.40290537;;;;;;;;;;;;
2170.0;2060.9;262143;262143;11767;;;;;;;;;;;;;;;;;;
2170.0;2067.6;;;;-0.8446542;0.13728715;-0.089168556;;;;;;;;;;;;;;;
2170.0;2067.6;;;;-0.83874524;0.1317444;-0.09001542;;;;;;;;;;;;;;;
2170.0;2067.6;;;;-0.83314145;0.12638856;-0.09004975;;;;;;;;;;;;;;;
2170.0;2067.6;;;;-0.8270341;0.12081148;-0.09103013;;;;;;;;;;;;;;;
2170.0;2067.6;;;;-0.82135403;0.11502458;-0.09185029;;;;;;;;;;;;;;;
2170.0;2070.7;;;;;;;;;;27.397991;23.018585;2.8115177;;;;;;;;;
2170.0;2070.7;;;;;;;1.3523362;-0.25281534;-0.40534684;;;;;;;;;;;;
2170.0;2070.7;;;;;;;;;;28.76751;21.622364;3.482925;;;;;;;;;
2170.0;2070.7;;;;;;;1.3409222;-0.26258126;-0.4079104;;;;;;;;;;;;
2172.0;2077.7;;;;-0.8157579;0.11004259;-0.092342384;;;;;;;;;;;;;;;
2172.0;2077.7;;;;-0.81011975;0.10507585;-0.093730934;;;;;;;;;;;;;;;
2172.0;2077.7;;;;-0.8051187;0.10013963;-0.096130386;;;;;;;;;;;;;;;
2172.0;2077.7;;;;-0.80054104;0.095066085;-0.09770204;;;;;;;;;;;;;;;
2172.0;2077.7;;;;-0.7966157;0.090564735;-0.10243608;;;;;;;;;;;;;;;
2172.0;2080.3;;;;;;;;;;30.232397;19.436476;4.058962;;;;;;;;;
2172.0;2080.3;;;;;;;1.3277383;-0.26770836;-0.407239;;;;;;;;;;;;
2172.0;2080.3;;;;;;;;;;31.651508;16.49907;4.562517;;;;;;;;;
2172.0;2080.3;;;;;;;1.3113194;-0.26984465;-0.40784937;;;;;;;;;;;;
2172.0;2081.2;262143;262143;11737;;;;;;;;;;;;;;;;;;
2172.0;2086.2;;;;;;;;;;;;;;;;;-29.847103;13.126774;-51.484726;;1967.0
2172.0;2086.2;;;;;;;;;;;;;;0.7235328;-0.020996734;-0.006164739;;;;;1967.0
2172.0;2086.2;;;;;;;;;;;;;;;;;-24.47966;9.193701;-47.372356;;1967.0
2172.0;2086.2;;;;;;;;;;;;;;0.66750085;-0.043397322;0.0015259255;;;;;1967.0
2172.0;2086.2;;;;;;;;;;;;;;;;;-18.574327;4.505295;-43.32484;;1976.6
2172.0;2086.2;;;;;;;;;;;;;;0.6247139;-0.06537065;0.0015869625;;;;;1976.6
2172.0;2086.2;;;;;;;;;;;;;;;;;-12.714774;0.50737023;-39.262062;;1976.6
2172.0;2086.2;;;;;;;;;;;;;;0.58424634;-0.08001953;0.009155553;;;;;1976.6
2172.0;2086.2;;;;;;;;;;;;;;;;;-7.145146;-3.2197027;-35.157322;;1986.2
2172.0;2086.2;;;;;;;;;;;;;;0.5522019;-0.09601123;0.019837031;;;;;1986.2
2172.0;2086.2;;;;;;;;;;;;;;;;;-1.1520737;-7.942442;-30.888546;;1986.2
2172.0;2086.2;;;;;;;;;;;;;;0.53621024;-0.07678457;0.038270213;;;;;1986.2
2173.0;2087.0;;;;;;;;;;;;;;;;;3.4905546;-13.70281;-25.66225;;1995.8
2173.0;2087.0;;;;;;;;;;;;;;0.5338908;-0.06500442;0.04297006;;;;;1995.8
2173.0;2087.0;;;;;;;;;;;;;;;;;7.133702;-18.475143;-20.37492;;1995.8
2173.0;2087.0;;;;;;;;;;;;;;0.54536575;-0.043092135;0.05389569;;;;;1995.8
2173.0;2087.0;;;;;;;;;;;;;;;;;9.033479;-21.923735;-15.331736;;2005.5
2173.0;2087.0;;;;;;;;;;;;;;0.55854976;0.0015869625;0.07257301;;;;;2005.5
2173.0;2087.0;;;;;;;;;;;;;;;;;9.93759;-26.150547;-9.304331;;2005.5
2173.0;2087.0;;;;;;;;;;;;;;0.58174384;0.039002657;0.0844142;;;;;2005.5
2173.0;2087.0;;;;;;;;;;;;;;;;;10.13596;-29.59151;-3.4295175;;2015.2
2173.0;2087.0;;;;;;;;;;;;;;0.5917539;0.06878872;0.08697775;;;;;2015.2
2173.0;2087.0;;;;;;;;;;;;;;;;;9.727776;-31.96814;2.5101473;;2015.2
2173.0;2087.0;;;;;;;;;;;;;;0.5989563;0.0926542;0.08783227;;;;;2015.2
2173.0;2087.0;;;;;;;;;;;;;1153;;;;;;;;
2173.0;2087.0;;;;;;;;;;;;;3923;;;;;;;;
2173.0;2087.0;;;;;;;;;;;;;3617;;;;;;;;
2173.0;2087.0;;;;;;;;;;;;;2760;;;;;;;;
2173.0;2087.0;;;;;;;;;;;;;1446;;;;;;;;
2173.0;2087.7;;;;-0.79216015;0.08636857;-0.1063347;;;;;;;;;;;;;;;
2173.0;2087.7;;;;-0.78819287;0.082069404;-0.10523225;;;;;;;;;;;;;;;
2173.0;2087.7;;;;-0.7840539;0.07902909;-0.10172655;;;;;;;;;;;;;;;
2173.0;2087.7;;;;-0.7799722;0.07674027;-0.09907915;;;;;;;;;;;;;;;
2173.0;2087.7;;;;-0.7784158;0.07485963;-0.099144;;;;;;;;;;;;;;;
2173.0;2089.8;;;;;;;;;;33.143105;12.924589;5.035554;;;;;;;;;
2173.0;2089.8;;;;;;;1.297586;-0.27051607;-0.40784937;;;;;;;;;;;;
2173.0;2089.8;;;;;;;;;;34.52025;8.934294;5.367443;;;;;;;;;
2173.0;2089.8;;;;;;;1.289346;-0.26899013;-0.40705588;;;;;;;;;;;;
2177.0;2097.8;;;;-0.7778932;0.072464;-0.10132219;;;;;;;;;;;;;;;
2177.0;2097.8;;;;-0.77847683;0.069320686;-0.10379411;;;;;;;;;;;;;;;
2177.0;2097.8;;;;-0.7785531;0.06578446;-0.108230606;;;;;;;;;;;;;;;
2177.0;2097.8;;;;-0.778164;0.06203843;-0.11338045;;;;;;;;;;;;;;;
2177.0;2097.8;;;;-0.77744305;0.05874253;-0.1190262;;;;;;;;;;;;;;;
2177.0;2099.4;;;;;;;;;;35.96225;4.642628;5.6344795;;;;;;;;;
2177.0;2099.4;;;;;;;1.2797632;-0.2666097;-0.4051027;;;;;;;;;;;;
2177.0;2099.4;;;;;;;;;;37.29362;0.17548142;5.9129615;;;;;;;;;
2177.0;2099.4;;;;;;;1.2681051;-0.26514482;-0.4011353;;;;;;;;;;;;
2177.0;2100.8;;;;;;;;;;;;;;;;;9.033479;-34.03958;8.541368;;2024.8
2177.0;2100.8;;;;;;;;;;;;;;0.59633166;0.105960265;0.07238991;;;;;2024.8
2177.0;2100.8;;;;;;;;;;;;;;;;;9.243294;-34.91699;13.958403;;2024.8
2177.0;2100.8;;;;;;;;;;;;;;0.5724662;0.10449538;0.06573687;;;;;2024.8
2177.0;2100.8;;;;;;;;;;;;;;;;;10.471663;-36.530655;19.810328;;2034.3
2177.0;2100.8;;;;;;;;;;;;;;0.5551317;0.12585834;0.07928709;;;;;2034.3
2177.0;2100.8;;;;;;;;;;;;;;;;;11.246071;-38.445694;25.814844;;2034.3
2177.0;2100.8;;;;;;;;;;;;;;0.5412763;0.13061923;0.0844142;;;;;2034.3
2177.0;2100.8;;;;;;;;;;;;;;;;;12.237923;-38.83099;31.632435;;2044.0
2177.0;2100.8;;;;;;;;;;;;;;0.5380413;0.14831996;0.09973449;;;;;2044.0
2177.0;2100.8;;;;;;;;;;;;;;;;;13.496811;-38.010803;38.010803;;2044.0
2177.0;2100.8;;;;;;;;;;;;;;0.5083773;0.14007996;0.128605;;;;;2044.0
2177.0;2101.0;262143;262143;11713;;;;;;;;;;;;;;;;;;
2229.0;2107.6;;;;-0.77589047;0.05653382;-0.12452318;;;;;;;;;;;;;;;
2229.0;2107.6;;;;-0.7734834;0.054824837;-0.12842943;;;;;;;;;;;;;;;
2229.0;2107.6;;;;-0.771557;0.054157265;-0.13095476;;;;;;;;;;;;;;;
2229.0;2107.6;;;;-0.76988995;0.053977974;-0.13329698;;;;;;;;;;;;;;;
2229.0;2107.6;;;;-0.76892865;0.05414582;-0.13510515;;;;;;;;;;;;;;;
2229.0;2108.8;;;;;;;;;;38.613544;-4.1734066;6.275368;;;;;;;;;
2229.0;2108.8;;;;;;;1.2533952;-0.2612995;-0.39710686;;;;;;;;;;;;
2229.0;2108.8;;;;;;;;;;39.77706;-8.236183;6.8323317;;;;;;;;;
2229.0;2108.8;;;;;;;1.235023;-0.25757623;-0.39069796;;;;;;;;;;;;
2229.0;2117.5;;;;-0.7683908;0.054809578;-0.13670732;;;;;;;;;;;;;;;
2229.0;2117.5;;;;-0.76792157;0.05545426;-0.13808824;;;;;;;;;;;;;;;
2229.0;2117.5;;;;-0.76755536;0.05541993;-0.13924791;;;;;;;;;;;;;;;
2229.0;2117.5;;;;-0.7659608;0.05508805;-0.14120485;;;;;;;;;;;;;;;
2229.0;2117.5;;;;-0.76309216;0.054489143;-0.14340974;;;;;;;;;;;;;;;
2229.0;2118.1;;;;;;;;;;40.810875;-12.047182;7.438887;;;;;;;;;
2229.0;2118.1;;;;;;;1.2095706;-0.24890897;-0.38380077;;;;;;;;;;;;
2229.0;2118.1;;;;;;;;;;41.676838;-15.55681;8.072146;;;;;;;;;
2229.0;2118.1;;;;;;;1.1804559;-0.23688467;-0.3754387;;;;;;;;;;;;
2229.0;2121.0;262143;262143;11694;;;;;;;;;;;;;;;;;;
2229.0;2127.0;;;;;;;;;;;;;85;;;;;;;;
2229.0;2127.0;;;;;;;;;;;;;173;;;;;;;;
2229.0;2127.0;;;;;;;;;;;;;1294;;;;;;;;
2229.0;2127.0;;;;;;;;;;;;;2077;;;;;;;;
2229.0;2127.0;;;;;;;;;;;;;1634;;;;;;;;
2232.0;2127.6;;;;-0.76028836;0.05359269;-0.14704515;;;;;;;;;;;;;;;
2232.0;2127.6;;;;-0.75686276;0.052413948;-0.15033723;;;;;;;;;;;;;;;
2232.0;2127.6;;;;-0.75341046;0.05151368;-0.15210725;;;;;;;;;;;;;;;
2232.0;2127.6;;;;-0.7501832;0.05069352;-0.15370561;;;;;;;;;;;;;;;
2232.0;2127.6;;;;-0.74623114;0.050415047;-0.15512086;;;;;;;;;;;;;;;
2232.0;2127.8;;;;;;;;;;42.458878;-18.696402;8.724479;;;;;;;;;
2232.0;2127.8;;;;;;;1.1471908;-0.2247383;-0.36542863;;;;;;;;;;;;
2232.0;2127.8;;;;;;;;;;43.149357;-21.370586;9.243294;;;;;;;;;
2232.0;2127.8;;;;;;;1.1142308;-0.21350749;-0.3521836;;;;;;;;;;;;
2232.0;2137.4;;;;;;;;;;43.72158;-23.644215;9.788812;;;;;;;;;
2232.0;2137.4;;;;;;;1.0799279;-0.1991638;-0.338023;;;;;;;;;;;;
2232.0;2137.4;;;;;;;;;;44.23658;-25.69277;10.357219;;;;;;;;;
2232.0;2137.4;;;;;;;1.0459304;-0.1848201;-0.32410657;;;;;;;;;;;;
2232.0;2137.7;;;;-0.7426835;0.050079353;-0.15637209;;;;;;;;;;;;;;;
2232.0;2137.7;;;;-0.7388459;0.050113685;-0.15773775;;;;;;;;;;;;;;;
2232.0;2137.7;;;;-0.7359162;0.05093766;-0.15946199;;;;;;;;;;;;;;;
2232.0;2137.7;;;;-0.7336808;0.052280433;-0.1610222;;;;;;;;;;;;;;;
2232.0;2137.7;;;;-0.73184973;0.05366517;-0.16318895;;;;;;;;;;;;;;;
2232.0;2141.3;262143;262143;11699;;;;;;;;;;;;;;;;;;
2233.0;2145.9;;;;;;;;;;;;;;;;;14.942626;-37.331768;44.160286;;2053.7
2233.0;2145.9;;;;;;;;;;;;;;0.48146;0.12543108;0.16302988;;;;;2053.7
2233.0;2145.9;;;;;;;;;;;;;;;;;17.28492;-36.118656;49.97787;;2053.7
2233.0;2145.9;;;;;;;;;;;;;;0.46864223;0.1098056;0.20575579;;;;;2053.7
2233.0;2145.9;;;;;;;;;;;;;;;;;20.054476;-34.535507;54.6968;;2063.3
2233.0;2145.9;;;;;;;;;;;;;;0.48176518;0.117069006;0.2334666;;;;;2063.3
2233.0;2145.9;;;;;;;;;;;;;;;;;23.842587;-30.461287;58.084354;;2063.3
2233.0;2145.9;;;;;;;;;;;;;;0.4753563;0.17249061;0.26685384;;;;;2063.3
2233.0;2145.9;;;;;;;;;;;;;;;;;28.687399;-26.638844;60.77761;;2073.0
2233.0;2145.9;;;;;;;;;;;;;;0.45680106;0.24970244;0.30726036;;;;;2073.0
2233.0;2145.9;;;;;;;;;;;;;;;;;33.13547;-27.054659;63.76461;;2073.0
2233.0;2145.9;;;;;;;;;;;;;;0.46766564;0.32087162;0.3200171;;;;;2073.0
2233.0;2146.9;;;;;;;;;;44.606613;-27.26829;10.925627;;;;;;;;;
2233.0;2146.9;;;;;;;1.0110782;-0.17053743;-0.31067842;;;;;;;;;;;;
2233.0;2146.9;;;;;;;;;;44.866024;-28.180029;11.471145;;;;;;;;;
2233.0;2146.9;;;;;;;0.977691;-0.15497299;-0.29255044;;;;;;;;;;;;
2233.0;2147.7;;;;-0.73076636;0.05546189;-0.16500093;;;;;;;;;;;;;;;
2233.0;2147.7;;;;-0.7297326;0.057079323;-0.16632463;;;;;;;;;;;;;;;
2233.0;2147.7;;;;-0.7280541;0.05849076;-0.16655351;;;;;;;;;;;;;;;
2233.0;2147.7;;;;-0.72674185;0.05929566;-0.1681061;;;;;;;;;;;;;;;
2233.0;2147.7;;;;-0.7242814;0.05995942;-0.1695366;;;;;;;;;;;;;;;
2233.0;2156.5;;;;;;;;;;44.991913;-28.828547;12.173071;;;;;;;;;
2233.0;2156.5;;;;;;;0.9469283;-0.13953063;-0.27686393;;;;;;;;;;;;
2233.0;2156.5;;;;;;;;;;45.010986;-29.053621;12.840663;;;;;;;;;
2233.0;2156.5;;;;;;;0.91348004;-0.12427137;-0.25989562;;;;;;;;;;;;
2235.0;2157.8;;;;-0.7225037;0.06024552;-0.17076494;;;;;;;;;;;;;;;
2235.0;2157.8;;;;-0.7210923;0.06069184;-0.17174913;;;;;;;;;;;;;;;
2235.0;2157.8;;;;-0.7199555;0.06053544;-0.17207338;;;;;;;;;;;;;;;
2235.0;2157.8;;;;-0.7189141;0.060298927;-0.17208482;;;;;;;;;;;;;;;
2235.0;2157.8;;;;-0.7184449;0.060508735;-0.17200471;;;;;;;;;;;;;;;
2235.0;2160.9;;;;;;;;;;;;;;;;;35.229805;-29.293955;69.44486;;2082.7
2235.0;2160.9;;;;;;;;;;;;;;0.47627187;0.3071383;0.2783288;;;;;2082.7
2235.0;2160.9;;;;;;;;;;;;;;;;;35.10773;-29.911955;77.49031;;2082.7
2235.0;2160.9;;;;;;;;;;;;;;0.4810938;0.2760094;0.2283395;;;;;2082.7
2235.0;2160.9;;;;;;;;;;;;;;;;;30.552843;-30.827509;87.59957;;2092.3
2235.0;2160.9;;;;;;;;;;;;;;0.52290416;0.2738731;0.18372142;;;;;2092.3
2235.0;2160.9;;;;;;;;;;;;;;;;;19.936216;-28.588213;98.55953;;2092.3
2235.0;2160.9;;;;;;;;;;;;;;0.54615927;0.26459548;0.17694631;;;;;2092.3
2235.0;2160.9;;;;;;;;;;;;;;;;;9.834589;-29.545732;107.23823;;2101.9
2235.0;2160.9;;;;;;;;;;;;;;0.4958037;0.21808527;0.20825832;;;;;2101.9
2235.0;2160.9;;;;;;;;;;;;;;;;;11.123997;-50.534836;120.07889;;2101.9
2235.0;2160.9;;;;;;;;;;;;;;0.41181678;-0.002990814;0.13000885;;;;;2101.9
2235.0;2161.2;262143;262143;11700;;;;;;;;;;;;;;;;;;
2235.0;2165.9;;;;;;;;;;45.00717;-28.691214;13.462478;;;;;;;;;
2235.0;2165.9;;;;;;;0.88033694;-0.10687582;-0.24463637;;;;;;;;;;;;
2235.0;2165.9;;;;;;;;;;44.9118;-27.35603;14.034699;;;;;;;;;
2235.0;2165.9;;;;;;;0.85189366;-0.08874783;-0.23548082;;;;;;;;;;;;
2287.0;2167.1;;;;;;;;;;;;;471;;;;;;;;
2287.0;2167.1;;;;;;;;;;;;;-179;;;;;;;;
2287.0;2167.1;;;;;;;;;;;;;-56;;;;;;;;
2287.0;2167.1;;;;;;;;;;;;;-131;;;;;;;;
2287.0;2167.1;;;;;;;;;;;;;-1271;;;;;;;;
2287.0;2167.6;;;;-0.7182961;0.060142525;-0.17163469;;;;;;;;;;;;;;;
2287.0;2167.6;;;;-0.71805197;0.059787758;-0.17138673;;;;;;;;;;;;;;;
2287.0;2167.6;;;;-0.71747214;0.059226997;-0.17130663;;;;;;;;;;;;;;;
2287.0;2167.6;;;;-0.7174035;0.05923844;-0.17047884;;;;;;;;;;;;;;;
2287.0;2167.6;;;;-0.71861273;0.059158333;-0.1706772;;;;;;;;;;;;;;;
2287.0;2175.4;;;;;;;;;;44.778282;-25.830103;14.679403;;;;;;;;;
2287.0;2175.4;;;;;;;0.8267464;-0.07208472;-0.22394483;;;;;;;;;;;;
2287.0;2175.4;;;;;;;;;;44.473095;-25.849178;15.434736;;;;;;;;;
2287.0;2175.4;;;;;;;0.79549545;-0.057863094;-0.2108829;;;;;;;;;;;;
2287.0;2177.6;;;;-0.7200089;0.059143074;-0.16986848;;;;;;;;;;;;;;;
2287.0;2177.6;;;;-0.7221299;0.05974198;-0.16947939;;;;;;;;;;;;;;;
2287.0;2177.6;;;;-0.7252274;0.060298927;-0.1685753;;;;;;;;;;;;;;;
2287.0;2177.6;;;;-0.7283059;0.062236793;-0.16826631;;;;;;;;;;;;;;;
2287.0;2177.6;;;;-0.7319489;0.06356049;-0.1681328;;;;;;;;;;;;;;;
2287.0;2181.3;262143;262143;11717;;;;;;;;;;;;;;;;;;
2287.0;2185.0;;;;;;;;;;44.202248;-25.940733;15.968811;;;;;;;;;
2287.0;2185.0;;;;;;;0.7679067;-0.043763544;-0.20276497;;;;;;;;;;;;
2287.0;2185.0;;;;;;;;;;43.980988;-25.112917;16.220589;;;;;;;;;
2287.0;2185.0;;;;;;;0.7521592;-0.02496414;-0.1944029;;;;;;;;;;;;
2289.0;2187.7;;;;-0.73640066;0.0652237;-0.1685219;;;;;;;;;;;;;;;
2289.0;2187.7;;;;-0.7417031;0.06626511;-0.16934587;;;;;;;;;;;;;;;
2289.0;2187.7;;;;-0.7479554;0.06772233;-0.17121126;;;;;;;;;;;;;;;
2289.0;2187.7;;;;-0.7556573;0.06941224;-0.17313005;;;;;;;;;;;;;;;
2289.0;2187.7;;;;-0.76386654;0.07098008;-0.17364122;;;;;;;;;;;;;;;
2289.0;2194.6;;;;;;;;;;43.67199;-24.277475;16.28544;;;;;;;;;
2289.0;2194.6;;;;;;;0.7417829;-0.012146367;-0.18604083;;;;;;;;;;;;
2289.0;2194.6;;;;;;;;;;43.252357;-23.621326;16.418959;;;;;;;;;
2289.0;2194.6;;;;;;;0.7309183;-7.324442E-4;-0.17902158;;;;;;;;;;;;
2289.0;2197.8;;;;-0.77198803;0.07248307;-0.174675;;;;;;;;;;;;;;;
2289.0;2197.8;;;;-0.7795564;0.07332612;-0.17461015;;;;;;;;;;;;;;;
2289.0;2197.8;;;;-0.78501904;0.074558266;-0.17461778;;;;;;;;;;;;;;;
2289.0;2197.8;;;;-0.7891122;0.07525254;-0.17557909;;;;;;;;;;;;;;;
2289.0;2197.8;;;;-0.7929765;0.07706452;-0.1771126;;;;;;;;;;;;;;;
2289.0;2201.5;262143;262143;11729;;;;;;;;;;;;;;;;;;
2289.0;2204.2;;;;;;;;;;42.89758;-22.62566;16.750847;;;;;;;;;
2289.0;2204.2;;;;;;;0.7257912;0.006042665;-0.16870633;;;;;;;;;;;;
2289.0;2204.2;;;;;;;;;;42.39021;-21.176031;16.98355;;;;;;;;;
2289.0;2204.2;;;;;;;0.725486;0.010315256;-0.1693167;;;;;;;;;;;;
2290.0;2206.5;;;;;;;;;;;;;;;;;24.315622;-78.581345;124.98093;;2111.4
2290.0;2206.5;;;;;;;;;;;;;;0.46589556;-0.08233894;-0.008239998;;;;;2111.4
2290.0;2206.5;;;;;;;;;;;;;;;;;38.430435;-86.34831;124.988556;;2111.4
2290.0;2206.5;;;;;;;;;;;;;;0.5355388;-0.121768855;-0.029236732;;;;;2111.4
2290.0;2206.5;;;;;;;;;;;;;;;;;48.71517;-77.650536;124.988556;;2121.0
2290.0;2206.5;;;;;;;;;;;;;;0.5495773;-0.14642781;0.06494339;;;;;2121.0
2290.0;2206.5;;;;;;;;;;;;;;;;;52.11417;-65.36302;124.988556;;2121.0
2290.0;2206.5;;;;;;;;;;;;;;0.54219186;-0.1589404;0.15887935;;;;;2121.0
2290.0;2206.5;;;;;;;;;;;;;;;;;53.28532;-58.847317;124.988556;;2130.6
2290.0;2206.5;;;;;;;;;;;;;;0.5436567;-0.119876705;0.19104587;;;;;2130.6
2290.0;2206.5;;;;;;;;;;;;;;;;;55.45213;-53.834652;124.988556;;2130.6
2290.0;2206.5;;;;;;;;;;;;;;0.55836666;-0.059450056;0.1589404;;;;;2130.6
2290.0;2207.4;;;;;;;;;;;;;-3177;;;;;;;;
2290.0;2207.4;;;;;;;;;;;;;-4910;;;;;;;;
2290.0;2207.4;;;;;;;;;;;;;-6005;;;;;;;;
2290.0;2207.4;;;;;;;;;;;;;-6708;;;;;;;;
2290.0;2207.4;;;;;;;;;;;;;-7305;;;;;;;;
2290.0;2207.8;;;;-0.79724133;0.07889939;-0.17821123;;;;;;;;;;;;;;;
2290.0;2207.8;;;;-0.801777;0.08089066;-0.17909624;;;;;;;;;;;;;;;
2290.0;2207.8;;;;-0.80731595;0.08280183;-0.17960359;;;;;;;;;;;;;;;
2290.0;2207.8;;;;-0.81346524;0.08510209;-0.17967989;;;;;;;;;;;;;;;
2290.0;2207.8;;;;-0.8204423;0.08845902;-0.18085863;;;;;;;;;;;;;;;
2290.0;2213.6;;;;;;;;;;41.451767;-20.016327;16.895811;;;;;;;;;
2290.0;2213.6;;;;;;;0.71236306;0.015930662;-0.16693625;;;;;;;;;;;;
2290.0;2213.6;;;;;;;;;;40.566727;-19.692068;16.804255;;;;;;;;;
2290.0;2213.6;;;;;;;0.6864833;0.022644734;-0.16290781;;;;;;;;;;;;
2292.0;2217.8;;;;-0.8272058;0.09209824;-0.1823845;;;;;;;;;;;;;;;
2292.0;2217.8;;;;-0.83461773;0.096462265;-0.1847725;;;;;;;;;;;;;;;
2292.0;2217.8;;;;-0.84220517;0.100944534;-0.18660738;;;;;;;;;;;;;;;
2292.0;2217.8;;;;-0.8489305;0.10655977;-0.18869403;;;;;;;;;;;;;;;
2292.0;2217.8;;;;-0.85442364;0.11248781;-0.19069293;;;;;;;;;;;;;;;
2292.0;2221.0;;;;;;;;;;;;;;;;;56.760612;-45.865505;124.988556;;2140.3
2292.0;2221.0;;;;;;;;;;;;;;0.57979065;-0.02130192;0.084353164;;;;;2140.3
2292.0;2221.0;;;;;;;;;;;;;;;;;55.406353;-39.48332;124.988556;;2140.3
2292.0;2221.0;;;;;;;;;;;;;;0.5963927;-0.01660207;-0.012756737;;;;;2140.3
2292.0;2221.0;;;;;;;;;;;;;;;;;47.322765;-44.846947;124.988556;;2150.0
2292.0;2221.0;;;;;;;;;;;;;;0.64333016;-0.018311106;-0.18311106;;;;;2150.0
2292.0;2221.0;;;;;;;;;;;;;;;;;34.55458;-61.429943;124.988556;;2150.0
2292.0;2221.0;;;;;;;;;;;;;;0.70796835;0.03540147;-0.4029664;;;;;2150.0
2292.0;2221.0;;;;;;;;;;;;;;;;;18.04407;-81.28605;124.988556;;2159.6
2292.0;2221.0;;;;;;;;;;;;;;0.7912839;0.14007996;-0.63252664;;;;;2159.6
2292.0;2221.0;;;;;;;;;;;;;;;;;2.357555;-87.32872;124.988556;;2159.6
2292.0;2221.0;;;;;;;;;;;;;;0.9070711;0.26654866;-0.7849971;;;;;2159.6
2292.0;2221.3;262143;262143;11733;;;;;;;;;;;;;;;;;;
2292.0;2223.0;;;;;;;;;;39.59395;-19.409773;17.162846;;;;;;;;;
2292.0;2223.0;;;;;;;0.66493726;0.028931547;-0.16431166;;;;;;;;;;;;
2292.0;2223.0;;;;;;;;;;38.277843;-19.444107;17.124699;;;;;;;;;
2292.0;2223.0;;;;;;;0.6541948;0.03418073;-0.16541032;;;;;;;;;;;;
2345.0;2227.7;;;;-0.85857785;0.11772539;-0.19329837;;;;;;;;;;;;;;;
2345.0;2227.7;;;;-0.86180127;0.12394716;-0.19607547;;;;;;;;;;;;;;;
2345.0;2227.7;;;;-0.8641397;0.13011171;-0.1991463;;;;;;;;;;;;;;;
2345.0;2227.7;;;;-0.8656007;0.13546754;-0.20238498;;;;;;;;;;;;;;;
2345.0;2227.7;;;;-0.86690915;0.14081956;-0.20574954;;;;;;;;;;;;;;;
2345.0;2232.6;;;;;;;;;;37.106693;-19.474625;16.247292;;;;;;;;;
2345.0;2232.6;;;;;;;0.652974;0.034546953;-0.16498306;;;;;;;;;;;;
2345.0;2232.6;;;;;;;;;;36.038544;-19.291513;15.243996;;;;;;;;;
2345.0;2232.6;;;;;;;0.6523026;0.033326212;-0.16046633;;;;;;;;;;;;
2345.0;2237.6;;;;-0.8678018;0.14546205;-0.20957187;;;;;;;;;;;;;;;
2345.0;2237.6;;;;-0.86870205;0.15005495;-0.21217349;;;;;;;;;;;;;;;
2345.0;2237.6;;;;-0.8694612;0.1541939;-0.2161217;;;;;;;;;;;;;;;
2345.0;2237.6;;;;-0.87069714;0.1582184;-0.21981815;;;;;;;;;;;;;;;
2345.0;2237.6;;;;-0.87290204;0.16139223;-0.2238808;;;;;;;;;;;;;;;
2345.0;2241.4;262143;262143;11748;;;;;;;;;;;;;;;;;;
2345.0;2242.1;;;;;;;;;;34.83306;-19.196144;14.309366;;;;;;;;;
2345.0;2242.1;;;;;;;0.6501053;0.0270394;-0.15417951;;;;;;;;;;;;
2345.0;2242.1;;;;;;;;;;33.44066;-18.230995;13.550219;;;;;;;;;
2345.0;2242.1;;;;;;;0.6469924;0.023316141;-0.15015107;;;;;;;;;;;;
2345.0;2247.4;;;;;;;;;;;;;-7438;;;;;;;;
2345.0;2247.4;;;;;;;;;;;;;-6560;;;;;;;;
2345.0;2247.4;;;;;;;;;;;;;-4834;;;;;;;;
2345.0;2247.4;;;;;;;;;;;;;-3030;;;;;;;;
2345.0;2247.4;;;;;;;;;;;;;-1602;;;;;;;;
2348.0;2247.7;;;;-0.8753396;0.1641617;-0.22703555;;;;;;;;;;;;;;;
2348.0;2247.7;;;;-0.877144;0.16695787;-0.23065951;;;;;;;;;;;;;;;
2348.0;2247.7;;;;-0.87825406;0.16889574;-0.23362353;;;;;;;;;;;;;;;
2348.0;2247.7;;;;-0.87913525;0.17138673;-0.2372742;;;;;;;;;;;;;;;
2348.0;2247.7;;;;-0.8791505;0.17308046;-0.24148944;;;;;;;;;;;;;;;
2348.0;2251.7;;;;;;;;;;31.788841;-16.7127;12.943663;;;;;;;;;
2348.0;2251.7;;;;;;;0.6458327;0.021240883;-0.14697714;;;;;;;;;;;;
2348.0;2251.7;;;;;;;;;;30.156101;-15.018921;12.035737;;;;;;;;;
2348.0;2251.7;;;;;;;0.641438;0.019470809;-0.14349803;;;;;;;;;;;;
2348.0;2257.8;;;;-0.87970746;0.17435838;-0.24488452;;;;;;;;;;;;;;;
2348.0;2257.8;;;;-0.8803178;0.17544939;-0.24746707;;;;;;;;;;;;;;;
2348.0;2257.8;;;;-0.88139737;0.17654802;-0.24958041;;;;;;;;;;;;;;;
2348.0;2257.8;;;;-0.88266766;0.17743684;-0.2515221;;;;;;;;;;;;;;;
2348.0;2257.8;;;;-0.8849946;0.17805864;-0.25334552;;;;;;;;;;;;;;;
2348.0;2261.3;;;;;;;;;;28.599659;-13.405255;10.788294;;;;;;;;;
2348.0;2261.3;;;;;;;0.6326487;0.018494217;-0.13769951;;;;;;;;;;;;
2348.0;2261.3;;;;;;;;;;27.073734;-11.909848;9.628591;;;;;;;;;
2348.0;2261.3;;;;;;;0.62300485;0.02069155;-0.13397625;;;;;;;;;;;;
2348.0;2261.7;262143;262143;11746;;;;;;;;;;;;;;;;;;
2349.0;2266.2;;;;;;;;;;;;;;;;;-6.714072;-70.757164;124.988556;;2169.2
2349.0;2266.2;;;;;;;;;;;;;;1.0688193;0.38282418;-0.75704217;;;;;2169.2
2349.0;2266.2;;;;;;;;;;;;;;;;;-3.032777;-46.95273;118.88867;;2169.2
2349.0;2266.2;;;;;;;;;;;;;;1.2997833;0.4328135;-0.58394116;;;;;2169.2
2349.0;2266.2;;;;;;;;;;;;;;;;;24.929806;-34.47447;89.86938;;2178.9
2349.0;2266.2;;;;;;;;;;;;;;1.5276955;0.48670918;-0.41987365;;;;;2178.9
2349.0;2266.2;;;;;;;;;;;;;;;;;78.97045;-27.83288;51.58391;;2178.9
2349.0;2266.2;;;;;;;;;;;;;;1.6853541;0.5528733;-0.2944426;;;;;2178.9
2349.0;2266.2;;;;;;;;;;;;;;;;;121.38355;-14.13007;14.110995;;2188.5
2349.0;2266.2;;;;;;;;;;;;;;1.6940825;0.77101964;-0.1060213;;;;;2188.5
2349.0;2266.2;;;;;;;;;;;;;;;;;124.988556;6.3402205;-10.982849;;2188.5
2349.0;2266.2;;;;;;;;;;;;;;1.5569934;0.9671926;0.055543687;;;;;2188.5
